key_resp.keys,key_resp.rt,instr_done_touch.x,instr_done_touch.y,instr_done_touch.leftButton,instr_done_touch.midButton,instr_done_touch.rightButton,instruction_pages.thisRepN,instruction_pages.thisTrialN,instruction_pages.thisN,instruction_pages.thisIndex,instruction_pages.ran,pageN,phase,instruct_text,has_image,instruct_image,participant,age,date,expName,psychopyVersion,OS,frameRate,response.keys,response.corr,response.rt,touch_resp.x,touch_resp.y,touch_resp.leftButton,touch_resp.midButton,touch_resp.rightButton,touch_resp.time,touch_resp.clicked_name,rt,corr,practrials.thisRepN,practrials.thisTrialN,practrials.thisN,practrials.thisIndex,practrials.ran,TrialID,Target,corrAns,end_of_practice_trials_pages.thisRepN,end_of_practice_trials_pages.thisTrialN,end_of_practice_trials_pages.thisN,end_of_practice_trials_pages.thisIndex,end_of_practice_trials_pages.ran,key_resp_2.keys,key_resp_2.corr,key_resp_2.rt,targ_click.x,targ_click.y,targ_click.leftButton,targ_click.midButton,targ_click.rightButton,targ_click.time,targ_click.clicked_name,break_done_touch.x,break_done_touch.y,break_done_touch.leftButton,break_done_touch.midButton,break_done_touch.rightButton,break_done_keyboard.keys,maintrials.thisRepN,maintrials.thisTrialN,maintrials.thisN,maintrials.thisIndex,maintrials.ran,string,blur,study,lex,stim_path,break_done_keyboard.rt,mouse_2.x,mouse_2.y,mouse_2.leftButton,mouse_2.midButton,mouse_2.rightButton,mouse_2.clicked_name,slider.response,slider.rt,trials.thisRepN,trials.thisTrialN,trials.thisN,trials.thisIndex,trials.ran,test_instructions.thisRepN,test_instructions.thisTrialN,test_instructions.thisN,test_instructions.thisIndex,test_instructions.ran,instr_done_touch.clicked_name,key_resp_3.keys,key_resp_3.corr,key_resp_3.rt,test_click.x,test_click.y,test_click.leftButton,test_click.midButton,test_click.rightButton,test_click.time,test_click.clicked_name,test_phase.thisRepN,test_phase.thisTrialN,test_phase.thisN,test_phase.thisIndex,test_phase.ran
space,22.3247,0.251659738,-0.252980742,0,0,0,0,0,0,0,1,1,instructions,"INSTRUCTIONS
At the start of each trial, look at the plus sign  (+) in the center of the screen.  This tells you that a trial is about to begin and where to look. Second, the plus sign will disappear and a string of letters will appear. Your task is to determine if the string of letters is a word or not. If the item is a word press the M key (on keyboard)  or touch the word button (phone/tablet).  If the item is not a word,  press the  Z key (on keyboard)  or touch the nonword button (on phone/tablet). 
Press the space bar or touch  continue.",0,,54e32a60fdf99b3eae9de85b,37,2022-02-12_12h32.39.999,lexical_decision_task_DD_L2,2021.2.3,Linux x86_64,30.00390051,,,,,,,,,,,,,,,,,,,,,,,,,,,,,,,,,,,,,,,,,,,,,,,,,,,,,,,,,,,,,,,,,,,,,,,,,,,,,,,,,,,,,,
space,16.9334,0.251659738,-0.252980742,0,0,0,0,1,1,1,1,2,instructions,"If your device has a keyboard, press the 'Z' key for nonwords and the 'M' key for words.





Press the space bar or touch the button below to continue.",0,keyboard-example.gif,54e32a60fdf99b3eae9de85b,37,2022-02-12_12h32.39.999,lexical_decision_task_DD_L2,2021.2.3,Linux x86_64,30.00390051,,,,,,,,,,,,,,,,,,,,,,,,,,,,,,,,,,,,,,,,,,,,,,,,,,,,,,,,,,,,,,,,,,,,,,,,,,,,,,,,,,,,,,
space,3.1829,0.251659738,-0.252980742,0,0,0,0,2,2,2,1,3,instructions,"If you are using a touchscreen only device, use the buttons on the screen. Do not use the mouse.





Press the space bar or touch the button below to continue.",0,touchscreen-example.gif,54e32a60fdf99b3eae9de85b,37,2022-02-12_12h32.39.999,lexical_decision_task_DD_L2,2021.2.3,Linux x86_64,30.00390051,,,,,,,,,,,,,,,,,,,,,,,,,,,,,,,,,,,,,,,,,,,,,,,,,,,,,,,,,,,,,,,,,,,,,,,,,,,,,,,,,,,,,,
space,5.0445,0.251659738,-0.252980742,0,0,0,0,3,3,3,1,4,instructions,"It is very important that you respond as quickly and accurately as possible, as each letter string will only be on the screen for two seconds. If you do not respond within this time, the message 'Too slow!' will be displayed and the experiment will progress to the next letter string. The first 20 trials will be practice trials and you will receive feedback on your answers. 

Press the space bar or touch the button below to start the practice trials.",0,,54e32a60fdf99b3eae9de85b,37,2022-02-12_12h32.39.999,lexical_decision_task_DD_L2,2021.2.3,Linux x86_64,30.00390051,,,,,,,,,,,,,,,,,,,,,,,,,,,,,,,,,,,,,,,,,,,,,,,,,,,,,,,,,,,,,,,,,,,,,,,,,,,,,,,,,,,,,,
,,,,,,,,,,,,,,,,,54e32a60fdf99b3eae9de85b,37,2022-02-12_12h32.39.999,lexical_decision_task_DD_L2,2021.2.3,Linux x86_64,30.00390051,m,1,1.0592,,,,,,,,1.0592,1,0,0,0,5,1,1001,OBTAIN,m,,,,,,,,,,,,,,,,,,,,,,,,,,,,,,,,,,,,,,,,,,,,,,,,,,,,,,,,,,,,,,,,,,
,,,,,,,,,,,,,,,,,54e32a60fdf99b3eae9de85b,37,2022-02-12_12h32.39.999,lexical_decision_task_DD_L2,2021.2.3,Linux x86_64,30.00390051,m,1,0.4941,,,,,,,,0.4941,1,0,1,1,4,1,1001,SQUEAK,m,,,,,,,,,,,,,,,,,,,,,,,,,,,,,,,,,,,,,,,,,,,,,,,,,,,,,,,,,,,,,,,,,,
,,,,,,,,,,,,,,,,,54e32a60fdf99b3eae9de85b,37,2022-02-12_12h32.39.999,lexical_decision_task_DD_L2,2021.2.3,Linux x86_64,30.00390051,z,1,0.5988,,,,,,,,0.5988,1,0,2,2,11,1,1001,RASHET,z,,,,,,,,,,,,,,,,,,,,,,,,,,,,,,,,,,,,,,,,,,,,,,,,,,,,,,,,,,,,,,,,,,
,,,,,,,,,,,,,,,,,54e32a60fdf99b3eae9de85b,37,2022-02-12_12h32.39.999,lexical_decision_task_DD_L2,2021.2.3,Linux x86_64,30.00390051,m,1,0.5109,,,,,,,,0.5109,1,0,3,3,2,1,1001,ALMOND,m,,,,,,,,,,,,,,,,,,,,,,,,,,,,,,,,,,,,,,,,,,,,,,,,,,,,,,,,,,,,,,,,,,
,,,,,,,,,,,,,,,,,54e32a60fdf99b3eae9de85b,37,2022-02-12_12h32.39.999,lexical_decision_task_DD_L2,2021.2.3,Linux x86_64,30.00390051,z,1,0.5602,,,,,,,,0.5602,1,0,4,4,8,1,1001,ASLERT,z,,,,,,,,,,,,,,,,,,,,,,,,,,,,,,,,,,,,,,,,,,,,,,,,,,,,,,,,,,,,,,,,,,
,,,,,,,,,,,,,,,,,54e32a60fdf99b3eae9de85b,37,2022-02-12_12h32.39.999,lexical_decision_task_DD_L2,2021.2.3,Linux x86_64,30.00390051,z,1,0.5506,,,,,,,,0.5506,1,0,5,5,13,1,1001,ROUPET,z,,,,,,,,,,,,,,,,,,,,,,,,,,,,,,,,,,,,,,,,,,,,,,,,,,,,,,,,,,,,,,,,,,
,,,,,,,,,,,,,,,,,54e32a60fdf99b3eae9de85b,37,2022-02-12_12h32.39.999,lexical_decision_task_DD_L2,2021.2.3,Linux x86_64,30.00390051,z,1,0.7028,,,,,,,,0.7028,1,0,6,6,10,1,1001,INLADE,z,,,,,,,,,,,,,,,,,,,,,,,,,,,,,,,,,,,,,,,,,,,,,,,,,,,,,,,,,,,,,,,,,,
,,,,,,,,,,,,,,,,,54e32a60fdf99b3eae9de85b,37,2022-02-12_12h32.39.999,lexical_decision_task_DD_L2,2021.2.3,Linux x86_64,30.00390051,m,1,0.5457,,,,,,,,0.5457,1,0,7,7,1,1,1001,ADJUST,m,,,,,,,,,,,,,,,,,,,,,,,,,,,,,,,,,,,,,,,,,,,,,,,,,,,,,,,,,,,,,,,,,,
,,,,,,,,,,,,,,,,,54e32a60fdf99b3eae9de85b,37,2022-02-12_12h32.39.999,lexical_decision_task_DD_L2,2021.2.3,Linux x86_64,30.00390051,m,1,0.4866,,,,,,,,0.4866,1,0,8,8,7,1,1001,VOLUME,m,,,,,,,,,,,,,,,,,,,,,,,,,,,,,,,,,,,,,,,,,,,,,,,,,,,,,,,,,,,,,,,,,,
,,,,,,,,,,,,,,,,,54e32a60fdf99b3eae9de85b,37,2022-02-12_12h32.39.999,lexical_decision_task_DD_L2,2021.2.3,Linux x86_64,30.00390051,z,1,0.5013,,,,,,,,0.5013,1,0,9,9,9,1,1001,FARINY,z,,,,,,,,,,,,,,,,,,,,,,,,,,,,,,,,,,,,,,,,,,,,,,,,,,,,,,,,,,,,,,,,,,
,,,,,,,,,,,,,,,,,54e32a60fdf99b3eae9de85b,37,2022-02-12_12h32.39.999,lexical_decision_task_DD_L2,2021.2.3,Linux x86_64,30.00390051,z,1,0.587,,,,,,,,0.587,1,0,10,10,12,1,1001,SPRINY,z,,,,,,,,,,,,,,,,,,,,,,,,,,,,,,,,,,,,,,,,,,,,,,,,,,,,,,,,,,,,,,,,,,
,,,,,,,,,,,,,,,,,54e32a60fdf99b3eae9de85b,37,2022-02-12_12h32.39.999,lexical_decision_task_DD_L2,2021.2.3,Linux x86_64,30.00390051,z,1,0.5997,,,,,,,,0.5997,1,0,11,11,15,1,1001,WHAISE,z,,,,,,,,,,,,,,,,,,,,,,,,,,,,,,,,,,,,,,,,,,,,,,,,,,,,,,,,,,,,,,,,,,
,,,,,,,,,,,,,,,,,54e32a60fdf99b3eae9de85b,37,2022-02-12_12h32.39.999,lexical_decision_task_DD_L2,2021.2.3,Linux x86_64,30.00390051,z,0,0.458,,,,,,,,0.458,0,0,12,12,6,1,1001,ZOMBIE,m,,,,,,,,,,,,,,,,,,,,,,,,,,,,,,,,,,,,,,,,,,,,,,,,,,,,,,,,,,,,,,,,,,
,,,,,,,,,,,,,,,,,54e32a60fdf99b3eae9de85b,37,2022-02-12_12h32.39.999,lexical_decision_task_DD_L2,2021.2.3,Linux x86_64,30.00390051,m,1,0.5668,,,,,,,,0.5668,1,0,13,13,0,1,1001,UTOPIA,m,,,,,,,,,,,,,,,,,,,,,,,,,,,,,,,,,,,,,,,,,,,,,,,,,,,,,,,,,,,,,,,,,,
,,,,,,,,,,,,,,,,,54e32a60fdf99b3eae9de85b,37,2022-02-12_12h32.39.999,lexical_decision_task_DD_L2,2021.2.3,Linux x86_64,30.00390051,m,1,0.5478,,,,,,,,0.5478,1,0,14,14,3,1,1001,MATRIX,m,,,,,,,,,,,,,,,,,,,,,,,,,,,,,,,,,,,,,,,,,,,,,,,,,,,,,,,,,,,,,,,,,,
,,,,,,,,,,,,,,,,,54e32a60fdf99b3eae9de85b,37,2022-02-12_12h32.39.999,lexical_decision_task_DD_L2,2021.2.3,Linux x86_64,30.00390051,z,1,0.5746,,,,,,,,0.5746,1,0,15,15,14,1,1001,THRALE,z,,,,,,,,,,,,,,,,,,,,,,,,,,,,,,,,,,,,,,,,,,,,,,,,,,,,,,,,,,,,,,,,,,
space,8.6478,0.251659738,-0.252980742,0,0,0,,,,,,1,end_of_practice,"You have completed the practice trials. During the experimental trials, you will not receive feedback. 
Before you begin, please ensure that you are in a comfortable and quiet location and will not be disturbed for about 15 minutes, as we cannot use your data if you do not complete all the trials. 
 When you are ready to start the experimental trials, please press space or touch the button below.",,,54e32a60fdf99b3eae9de85b,37,2022-02-12_12h32.39.999,lexical_decision_task_DD_L2,2021.2.3,Linux x86_64,30.00390051,,,,,,,,,,,,,,,,,,,,,0,0,0,0,1,,,,,,,,,,,,,,,,,,,,,,,,,,,,,,,,,,,,,,,,,,,,,,,,,,,,,,,,,,,,,
,,,,,,,,,,,,,,,,,54e32a60fdf99b3eae9de85b,37,2022-02-12_12h32.39.999,lexical_decision_task_DD_L2,2021.2.3,Linux x86_64,30.00390051,,,,,,,,,,,0.6595,1,,,,,,,,,,,,,,m,1,0.6595,,,,,,,,0.251659738,-0.252980742,0,0,0,,0,0,0,11,1,BONNET,C,old,m,./images/BONNET.png,,,,,,,,,,,,,,,,,,,,,,,,,,,,,,,,,,,
,,,,,,,,,,,,,,,,,54e32a60fdf99b3eae9de85b,37,2022-02-12_12h32.39.999,lexical_decision_task_DD_L2,2021.2.3,Linux x86_64,30.00390051,,,,,,,,,,,0.9445,1,,,,,,,,,,,,,,z,1,0.9445,,,,,,,,0.251659738,-0.252980742,0,0,0,,0,1,1,127,1,NINDY,HB,old,z,./images/NINDYHB.png,,,,,,,,,,,,,,,,,,,,,,,,,,,,,,,,,,,
,,,,,,,,,,,,,,,,,54e32a60fdf99b3eae9de85b,37,2022-02-12_12h32.39.999,lexical_decision_task_DD_L2,2021.2.3,Linux x86_64,30.00390051,,,,,,,,,,,0.6312,1,,,,,,,,,,,,,,m,1,0.6312,,,,,,,,0.251659738,-0.252980742,0,0,0,,0,2,2,18,1,JAGUAR,HB,old,m,./images/JAGUARHB.png,,,,,,,,,,,,,,,,,,,,,,,,,,,,,,,,,,,
,,,,,,,,,,,,,,,,,54e32a60fdf99b3eae9de85b,37,2022-02-12_12h32.39.999,lexical_decision_task_DD_L2,2021.2.3,Linux x86_64,30.00390051,,,,,,,,,,,0.5529,1,,,,,,,,,,,,,,m,1,0.5529,,,,,,,,0.251659738,-0.252980742,0,0,0,,0,3,3,58,1,BABOON,LB,old,m,./images/BABOONLB.png,,,,,,,,,,,,,,,,,,,,,,,,,,,,,,,,,,,
,,,,,,,,,,,,,,,,,54e32a60fdf99b3eae9de85b,37,2022-02-12_12h32.39.999,lexical_decision_task_DD_L2,2021.2.3,Linux x86_64,30.00390051,,,,,,,,,,,0.6171,0,,,,,,,,,,,,,,z,0,0.6171,,,,,,,,0.251659738,-0.252980742,0,0,0,,0,4,4,79,1,CRUST,LB,old,m,./images/CRUSTLB.png,,,,,,,,,,,,,,,,,,,,,,,,,,,,,,,,,,,
,,,,,,,,,,,,,,,,,54e32a60fdf99b3eae9de85b,37,2022-02-12_12h32.39.999,lexical_decision_task_DD_L2,2021.2.3,Linux x86_64,30.00390051,,,,,,,,,,,0.4816,1,,,,,,,,,,,,,,m,1,0.4816,,,,,,,,0.251659738,-0.252980742,0,0,0,,0,5,5,24,1,SCREW,HB,old,m,./images/SCREWHB.png,,,,,,,,,,,,,,,,,,,,,,,,,,,,,,,,,,,
,,,,,,,,,,,,,,,,,54e32a60fdf99b3eae9de85b,37,2022-02-12_12h32.39.999,lexical_decision_task_DD_L2,2021.2.3,Linux x86_64,30.00390051,,,,,,,,,,,0.4682,1,,,,,,,,,,,,,,m,1,0.4682,,,,,,,,0.251659738,-0.252980742,0,0,0,,0,6,6,40,1,SWING,LB,old,m,./images/SWINGLB.png,,,,,,,,,,,,,,,,,,,,,,,,,,,,,,,,,,,
,,,,,,,,,,,,,,,,,54e32a60fdf99b3eae9de85b,37,2022-02-12_12h32.39.999,lexical_decision_task_DD_L2,2021.2.3,Linux x86_64,30.00390051,,,,,,,,,,,0.6494,1,,,,,,,,,,,,,,z,1,0.6494,,,,,,,,0.251659738,-0.252980742,0,0,0,,0,7,7,101,1,GLEET,LB,old,z,./images/GLEETLB.png,,,,,,,,,,,,,,,,,,,,,,,,,,,,,,,,,,,
,,,,,,,,,,,,,,,,,54e32a60fdf99b3eae9de85b,37,2022-02-12_12h32.39.999,lexical_decision_task_DD_L2,2021.2.3,Linux x86_64,30.00390051,,,,,,,,,,,0.7238,1,,,,,,,,,,,,,,z,1,0.7238,,,,,,,,0.251659738,-0.252980742,0,0,0,,0,8,8,144,1,NAIRY,C,old,z,./images/NAIRY.png,,,,,,,,,,,,,,,,,,,,,,,,,,,,,,,,,,,
,,,,,,,,,,,,,,,,,54e32a60fdf99b3eae9de85b,37,2022-02-12_12h32.39.999,lexical_decision_task_DD_L2,2021.2.3,Linux x86_64,30.00390051,,,,,,,,,,,0.5568,0,,,,,,,,,,,,,,m,0,0.5568,,,,,,,,0.251659738,-0.252980742,0,0,0,,0,9,9,164,1,SGREW,LB,old,z,./images/SGREWLB.png,,,,,,,,,,,,,,,,,,,,,,,,,,,,,,,,,,,
,,,,,,,,,,,,,,,,,54e32a60fdf99b3eae9de85b,37,2022-02-12_12h32.39.999,lexical_decision_task_DD_L2,2021.2.3,Linux x86_64,30.00390051,,,,,,,,,,,0.6504,1,,,,,,,,,,,,,,z,1,0.6504,,,,,,,,0.251659738,-0.252980742,0,0,0,,0,10,10,89,1,DRIEK,LB,old,z,./images/DRIEKLB.png,,,,,,,,,,,,,,,,,,,,,,,,,,,,,,,,,,,
,,,,,,,,,,,,,,,,,54e32a60fdf99b3eae9de85b,37,2022-02-12_12h32.39.999,lexical_decision_task_DD_L2,2021.2.3,Linux x86_64,30.00390051,,,,,,,,,,,0.595,1,,,,,,,,,,,,,,z,1,0.595,,,,,,,,0.251659738,-0.252980742,0,0,0,,0,11,11,119,1,PAFER,LB,old,z,./images/PAFERLB.png,,,,,,,,,,,,,,,,,,,,,,,,,,,,,,,,,,,
,,,,,,,,,,,,,,,,,54e32a60fdf99b3eae9de85b,37,2022-02-12_12h32.39.999,lexical_decision_task_DD_L2,2021.2.3,Linux x86_64,30.00390051,,,,,,,,,,,0.6193,1,,,,,,,,,,,,,,z,1,0.6193,,,,,,,,0.251659738,-0.252980742,0,0,0,,0,12,12,103,1,FLORT,HB,old,z,./images/FLORTHB.png,,,,,,,,,,,,,,,,,,,,,,,,,,,,,,,,,,,
,,,,,,,,,,,,,,,,,54e32a60fdf99b3eae9de85b,37,2022-02-12_12h32.39.999,lexical_decision_task_DD_L2,2021.2.3,Linux x86_64,30.00390051,,,,,,,,,,,0.6294,1,,,,,,,,,,,,,,z,1,0.6294,,,,,,,,0.251659738,-0.252980742,0,0,0,,0,13,13,95,1,HANTY,LB,old,z,./images/HANTYLB.png,,,,,,,,,,,,,,,,,,,,,,,,,,,,,,,,,,,
,,,,,,,,,,,,,,,,,54e32a60fdf99b3eae9de85b,37,2022-02-12_12h32.39.999,lexical_decision_task_DD_L2,2021.2.3,Linux x86_64,30.00390051,,,,,,,,,,,0.7029,1,,,,,,,,,,,,,,m,1,0.7029,,,,,,,,0.251659738,-0.252980742,0,0,0,,0,14,14,4,1,MUSCLE,LB,old,m,./images/MUSCLELB.png,,,,,,,,,,,,,,,,,,,,,,,,,,,,,,,,,,,
,,,,,,,,,,,,,,,,,54e32a60fdf99b3eae9de85b,37,2022-02-12_12h32.39.999,lexical_decision_task_DD_L2,2021.2.3,Linux x86_64,30.00390051,,,,,,,,,,,0.6426,1,,,,,,,,,,,,,,z,1,0.6426,,,,,,,,0.251659738,-0.252980742,0,0,0,,0,15,15,106,1,CLUMS,HB,old,z,./images/CLUMSHB.png,,,,,,,,,,,,,,,,,,,,,,,,,,,,,,,,,,,
,,,,,,,,,,,,,,,,,54e32a60fdf99b3eae9de85b,37,2022-02-12_12h32.39.999,lexical_decision_task_DD_L2,2021.2.3,Linux x86_64,30.00390051,,,,,,,,,,,0.6324,1,,,,,,,,,,,,,,m,1,0.6324,,,,,,,,0.251659738,-0.252980742,0,0,0,,0,16,16,45,1,KITTEN,HB,old,m,./images/KITTENHB.png,,,,,,,,,,,,,,,,,,,,,,,,,,,,,,,,,,,
,,,,,,,,,,,,,,,,,54e32a60fdf99b3eae9de85b,37,2022-02-12_12h32.39.999,lexical_decision_task_DD_L2,2021.2.3,Linux x86_64,30.00390051,,,,,,,,,,,0.5473,1,,,,,,,,,,,,,,m,1,0.5473,,,,,,,,0.251659738,-0.252980742,0,0,0,,0,17,17,67,1,SAILOR,LB,old,m,./images/SAILORLB.png,,,,,,,,,,,,,,,,,,,,,,,,,,,,,,,,,,,
,,,,,,,,,,,,,,,,,54e32a60fdf99b3eae9de85b,37,2022-02-12_12h32.39.999,lexical_decision_task_DD_L2,2021.2.3,Linux x86_64,30.00390051,,,,,,,,,,,0.5488,1,,,,,,,,,,,,,,z,1,0.5488,,,,,,,,0.251659738,-0.252980742,0,0,0,,0,18,18,148,1,JOMS,HB,old,z,./images/JOMSHB.png,,,,,,,,,,,,,,,,,,,,,,,,,,,,,,,,,,,
,,,,,,,,,,,,,,,,,54e32a60fdf99b3eae9de85b,37,2022-02-12_12h32.39.999,lexical_decision_task_DD_L2,2021.2.3,Linux x86_64,30.00390051,,,,,,,,,,,0.5153,1,,,,,,,,,,,,,,z,1,0.5153,,,,,,,,0.251659738,-0.252980742,0,0,0,,0,19,19,100,1,DRIBS,HB,old,z,./images/DRIBSHB.png,,,,,,,,,,,,,,,,,,,,,,,,,,,,,,,,,,,
,,,,,,,,,,,,,,,,,54e32a60fdf99b3eae9de85b,37,2022-02-12_12h32.39.999,lexical_decision_task_DD_L2,2021.2.3,Linux x86_64,30.00390051,,,,,,,,,,,0.6889,1,,,,,,,,,,,,,,m,1,0.6889,,,,,,,,0.251659738,-0.252980742,0,0,0,,0,20,20,42,1,FOLDER,HB,old,m,./images/FOLDERHB.png,,,,,,,,,,,,,,,,,,,,,,,,,,,,,,,,,,,
,,,,,,,,,,,,,,,,,54e32a60fdf99b3eae9de85b,37,2022-02-12_12h32.39.999,lexical_decision_task_DD_L2,2021.2.3,Linux x86_64,30.00390051,,,,,,,,,,,0.5175,1,,,,,,,,,,,,,,z,1,0.5175,,,,,,,,0.251659738,-0.252980742,0,0,0,,0,21,21,114,1,RIKES,C,old,z,./images/RIKES.png,,,,,,,,,,,,,,,,,,,,,,,,,,,,,,,,,,,
,,,,,,,,,,,,,,,,,54e32a60fdf99b3eae9de85b,37,2022-02-12_12h32.39.999,lexical_decision_task_DD_L2,2021.2.3,Linux x86_64,30.00390051,,,,,,,,,,,0.5428,1,,,,,,,,,,,,,,z,1,0.5428,,,,,,,,0.251659738,-0.252980742,0,0,0,,0,22,22,84,1,HAXES,C,old,z,./images/HAXES.png,,,,,,,,,,,,,,,,,,,,,,,,,,,,,,,,,,,
,,,,,,,,,,,,,,,,,54e32a60fdf99b3eae9de85b,37,2022-02-12_12h32.39.999,lexical_decision_task_DD_L2,2021.2.3,Linux x86_64,30.00390051,,,,,,,,,,,0.6211,1,,,,,,,,,,,,,,z,1,0.6211,,,,,,,,0.251659738,-0.252980742,0,0,0,,0,23,23,112,1,MYING,HB,old,z,./images/MYINGHB.png,,,,,,,,,,,,,,,,,,,,,,,,,,,,,,,,,,,
,,,,,,,,,,,,,,,,,54e32a60fdf99b3eae9de85b,37,2022-02-12_12h32.39.999,lexical_decision_task_DD_L2,2021.2.3,Linux x86_64,30.00390051,,,,,,,,,,,0.5143,1,,,,,,,,,,,,,,m,1,0.5143,,,,,,,,0.251659738,-0.252980742,0,0,0,,0,24,24,83,1,JUNGLE,C,old,m,./images/JUNGLE.png,,,,,,,,,,,,,,,,,,,,,,,,,,,,,,,,,,,
,,,,,,,,,,,,,,,,,54e32a60fdf99b3eae9de85b,37,2022-02-12_12h32.39.999,lexical_decision_task_DD_L2,2021.2.3,Linux x86_64,30.00390051,,,,,,,,,,,0.5755,1,,,,,,,,,,,,,,z,1,0.5755,,,,,,,,0.251659738,-0.252980742,0,0,0,,0,25,25,94,1,BLANS,HB,old,z,./images/BLANSHB.png,,,,,,,,,,,,,,,,,,,,,,,,,,,,,,,,,,,
,,,,,,,,,,,,,,,,,54e32a60fdf99b3eae9de85b,37,2022-02-12_12h32.39.999,lexical_decision_task_DD_L2,2021.2.3,Linux x86_64,30.00390051,,,,,,,,,,,0.6559,1,,,,,,,,,,,,,,z,1,0.6559,,,,,,,,0.251659738,-0.252980742,0,0,0,,0,26,26,138,1,PLICE,C,old,z,./images/PLICE.png,,,,,,,,,,,,,,,,,,,,,,,,,,,,,,,,,,,
,,,,,,,,,,,,,,,,,54e32a60fdf99b3eae9de85b,37,2022-02-12_12h32.39.999,lexical_decision_task_DD_L2,2021.2.3,Linux x86_64,30.00390051,,,,,,,,,,,0.5412,1,,,,,,,,,,,,,,m,1,0.5412,,,,,,,,0.251659738,-0.252980742,0,0,0,,0,27,27,53,1,CARPET,C,old,m,./images/CARPET.png,,,,,,,,,,,,,,,,,,,,,,,,,,,,,,,,,,,
,,,,,,,,,,,,,,,,,54e32a60fdf99b3eae9de85b,37,2022-02-12_12h32.39.999,lexical_decision_task_DD_L2,2021.2.3,Linux x86_64,30.00390051,,,,,,,,,,,0.5288,1,,,,,,,,,,,,,,z,1,0.5288,,,,,,,,0.251659738,-0.252980742,0,0,0,,0,28,28,165,1,TROWN,C,old,z,./images/TROWN.png,,,,,,,,,,,,,,,,,,,,,,,,,,,,,,,,,,,
,,,,,,,,,,,,,,,,,54e32a60fdf99b3eae9de85b,37,2022-02-12_12h32.39.999,lexical_decision_task_DD_L2,2021.2.3,Linux x86_64,30.00390051,,,,,,,,,,,0.6064,1,,,,,,,,,,,,,,m,1,0.6064,,,,,,,,0.251659738,-0.252980742,0,0,0,,0,29,29,74,1,CEMENT,C,old,m,./images/CEMENT.png,,,,,,,,,,,,,,,,,,,,,,,,,,,,,,,,,,,
,,,,,,,,,,,,,,,,,54e32a60fdf99b3eae9de85b,37,2022-02-12_12h32.39.999,lexical_decision_task_DD_L2,2021.2.3,Linux x86_64,30.00390051,,,,,,,,,,,0.523,1,,,,,,,,,,,,,,m,1,0.523,,,,,,,,0.251659738,-0.252980742,0,0,0,,0,30,30,52,1,BANNER,LB,old,m,./images/BANNERLB.png,,,,,,,,,,,,,,,,,,,,,,,,,,,,,,,,,,,
,,,,,,,,,,,,,,,,,54e32a60fdf99b3eae9de85b,37,2022-02-12_12h32.39.999,lexical_decision_task_DD_L2,2021.2.3,Linux x86_64,30.00390051,,,,,,,,,,,0.5766,0,,,,,,,,,,,,,,m,0,0.5766,,,,,,,,0.251659738,-0.252980742,0,0,0,,0,31,31,153,1,CLUPS,C,old,z,./images/CLUPS.png,,,,,,,,,,,,,,,,,,,,,,,,,,,,,,,,,,,
,,,,,,,,,,,,,,,,,54e32a60fdf99b3eae9de85b,37,2022-02-12_12h32.39.999,lexical_decision_task_DD_L2,2021.2.3,Linux x86_64,30.00390051,,,,,,,,,,,0.4954,1,,,,,,,,,,,,,,m,1,0.4954,,,,,,,,0.251659738,-0.252980742,0,0,0,,0,32,32,56,1,PACKET,C,old,m,./images/PACKET.png,,,,,,,,,,,,,,,,,,,,,,,,,,,,,,,,,,,
,,,,,,,,,,,,,,,,,54e32a60fdf99b3eae9de85b,37,2022-02-12_12h32.39.999,lexical_decision_task_DD_L2,2021.2.3,Linux x86_64,30.00390051,,,,,,,,,,,0.5715,0,,,,,,,,,,,,,,z,0,0.5715,,,,,,,,0.251659738,-0.252980742,0,0,0,,0,33,33,81,1,POODLE,HB,old,m,./images/POODLEHB.png,,,,,,,,,,,,,,,,,,,,,,,,,,,,,,,,,,,
,,,,,,,,,,,,,,,,,54e32a60fdf99b3eae9de85b,37,2022-02-12_12h32.39.999,lexical_decision_task_DD_L2,2021.2.3,Linux x86_64,30.00390051,,,,,,,,,,,0.4835,1,,,,,,,,,,,,,,m,1,0.4835,,,,,,,,0.251659738,-0.252980742,0,0,0,,0,34,34,1,1,PLANK,LB,old,m,./images/PLANKLB.png,,,,,,,,,,,,,,,,,,,,,,,,,,,,,,,,,,,
,,,,,,,,,,,,,,,,,54e32a60fdf99b3eae9de85b,37,2022-02-12_12h32.39.999,lexical_decision_task_DD_L2,2021.2.3,Linux x86_64,30.00390051,,,,,,,,,,,0.5004,0,,,,,,,,,,,,,,z,0,0.5004,,,,,,,,0.251659738,-0.252980742,0,0,0,,0,35,35,16,1,PENCE,LB,old,m,./images/PENCELB.png,,,,,,,,,,,,,,,,,,,,,,,,,,,,,,,,,,,
,,,,,,,,,,,,,,,,,54e32a60fdf99b3eae9de85b,37,2022-02-12_12h32.39.999,lexical_decision_task_DD_L2,2021.2.3,Linux x86_64,30.00390051,,,,,,,,,,,0.6539,1,,,,,,,,,,,,,,z,1,0.6539,,,,,,,,0.251659738,-0.252980742,0,0,0,,0,36,36,109,1,BURGE,HB,old,z,./images/BURGEHB.png,,,,,,,,,,,,,,,,,,,,,,,,,,,,,,,,,,,
,,,,,,,,,,,,,,,,,54e32a60fdf99b3eae9de85b,37,2022-02-12_12h32.39.999,lexical_decision_task_DD_L2,2021.2.3,Linux x86_64,30.00390051,,,,,,,,,,,0.5211,1,,,,,,,,,,,,,,m,1,0.5211,,,,,,,,0.251659738,-0.252980742,0,0,0,,0,37,37,59,1,BURIAL,C,old,m,./images/BURIAL.png,,,,,,,,,,,,,,,,,,,,,,,,,,,,,,,,,,,
,,,,,,,,,,,,,,,,,54e32a60fdf99b3eae9de85b,37,2022-02-12_12h32.39.999,lexical_decision_task_DD_L2,2021.2.3,Linux x86_64,30.00390051,,,,,,,,,,,0.5398,1,,,,,,,,,,,,,,z,1,0.5398,,,,,,,,0.251659738,-0.252980742,0,0,0,,0,38,38,152,1,FRAIN,LB,old,z,./images/FRAINLB.png,,,,,,,,,,,,,,,,,,,,,,,,,,,,,,,,,,,
,,,,,,,,,,,,,,,,,54e32a60fdf99b3eae9de85b,37,2022-02-12_12h32.39.999,lexical_decision_task_DD_L2,2021.2.3,Linux x86_64,30.00390051,,,,,,,,,,,0.5939,1,,,,,,,,,,,,,,m,1,0.5939,,,,,,,,0.251659738,-0.252980742,0,0,0,,0,39,39,78,1,LITTER,HB,old,m,./images/LITTERHB.png,,,,,,,,,,,,,,,,,,,,,,,,,,,,,,,,,,,
,,,,,,,,,,,,,,,,,54e32a60fdf99b3eae9de85b,37,2022-02-12_12h32.39.999,lexical_decision_task_DD_L2,2021.2.3,Linux x86_64,30.00390051,,,,,,,,,,,0.5269,1,,,,,,,,,,,,,,z,1,0.5269,,,,,,,,0.251659738,-0.252980742,0,0,0,,0,40,40,161,1,BLAPS,LB,old,z,./images/BLAPSLB.png,,,,,,,,,,,,,,,,,,,,,,,,,,,,,,,,,,,
,,,,,,,,,,,,,,,,,54e32a60fdf99b3eae9de85b,37,2022-02-12_12h32.39.999,lexical_decision_task_DD_L2,2021.2.3,Linux x86_64,30.00390051,,,,,,,,,,,0.4782,1,,,,,,,,,,,,,,m,1,0.4782,,,,,,,,0.251659738,-0.252980742,0,0,0,space,0,41,41,51,1,ONION,HB,old,m,./images/ONIONHB.png,4.7202,,,,,,,,,,,,,,,,,,,,,,,,,,,,,,,,,,
,,,,,,,,,,,,,,,,,54e32a60fdf99b3eae9de85b,37,2022-02-12_12h32.39.999,lexical_decision_task_DD_L2,2021.2.3,Linux x86_64,30.00390051,,,,,,,,,,,0.4962,1,,,,,,,,,,,,,,m,1,0.4962,,,,,,,,0.251659738,-0.252980742,0,0,0,,0,42,42,57,1,MOOSE,HB,old,m,./images/MOOSEHB.png,,,,,,,,,,,,,,,,,,,,,,,,,,,,,,,,,,,
,,,,,,,,,,,,,,,,,54e32a60fdf99b3eae9de85b,37,2022-02-12_12h32.39.999,lexical_decision_task_DD_L2,2021.2.3,Linux x86_64,30.00390051,,,,,,,,,,,0.424,1,,,,,,,,,,,,,,z,1,0.424,,,,,,,,0.251659738,-0.252980742,0,0,0,,0,43,43,159,1,CUDDY,C,old,z,./images/CUDDY.png,,,,,,,,,,,,,,,,,,,,,,,,,,,,,,,,,,,
,,,,,,,,,,,,,,,,,54e32a60fdf99b3eae9de85b,37,2022-02-12_12h32.39.999,lexical_decision_task_DD_L2,2021.2.3,Linux x86_64,30.00390051,,,,,,,,,,,0.4995,1,,,,,,,,,,,,,,m,1,0.4995,,,,,,,,0.251659738,-0.252980742,0,0,0,,0,44,44,14,1,PICKLE,C,old,m,./images/PICKLE.png,,,,,,,,,,,,,,,,,,,,,,,,,,,,,,,,,,,
,,,,,,,,,,,,,,,,,54e32a60fdf99b3eae9de85b,37,2022-02-12_12h32.39.999,lexical_decision_task_DD_L2,2021.2.3,Linux x86_64,30.00390051,,,,,,,,,,,0.5053,1,,,,,,,,,,,,,,m,1,0.5053,,,,,,,,0.251659738,-0.252980742,0,0,0,,0,45,45,23,1,WALRUS,C,old,m,./images/WALRUS.png,,,,,,,,,,,,,,,,,,,,,,,,,,,,,,,,,,,
,,,,,,,,,,,,,,,,,54e32a60fdf99b3eae9de85b,37,2022-02-12_12h32.39.999,lexical_decision_task_DD_L2,2021.2.3,Linux x86_64,30.00390051,,,,,,,,,,,0.6112,1,,,,,,,,,,,,,,m,1,0.6112,,,,,,,,0.251659738,-0.252980742,0,0,0,,0,46,46,61,1,CANDLE,LB,old,m,./images/CANDLELB.png,,,,,,,,,,,,,,,,,,,,,,,,,,,,,,,,,,,
,,,,,,,,,,,,,,,,,54e32a60fdf99b3eae9de85b,37,2022-02-12_12h32.39.999,lexical_decision_task_DD_L2,2021.2.3,Linux x86_64,30.00390051,,,,,,,,,,,0.5612,1,,,,,,,,,,,,,,z,1,0.5612,,,,,,,,0.251659738,-0.252980742,0,0,0,,0,47,47,88,1,GLUSH,HB,old,z,./images/GLUSHHB.png,,,,,,,,,,,,,,,,,,,,,,,,,,,,,,,,,,,
,,,,,,,,,,,,,,,,,54e32a60fdf99b3eae9de85b,37,2022-02-12_12h32.39.999,lexical_decision_task_DD_L2,2021.2.3,Linux x86_64,30.00390051,,,,,,,,,,,0.571,1,,,,,,,,,,,,,,m,1,0.571,,,,,,,,0.251659738,-0.252980742,0,0,0,,0,48,48,32,1,BARREL,C,old,m,./images/BARREL.png,,,,,,,,,,,,,,,,,,,,,,,,,,,,,,,,,,,
,,,,,,,,,,,,,,,,,54e32a60fdf99b3eae9de85b,37,2022-02-12_12h32.39.999,lexical_decision_task_DD_L2,2021.2.3,Linux x86_64,30.00390051,,,,,,,,,,,0.5248,1,,,,,,,,,,,,,,z,1,0.5248,,,,,,,,0.251659738,-0.252980742,0,0,0,,0,49,49,117,1,STEEG,C,old,z,./images/STEEG.png,,,,,,,,,,,,,,,,,,,,,,,,,,,,,,,,,,,
,,,,,,,,,,,,,,,,,54e32a60fdf99b3eae9de85b,37,2022-02-12_12h32.39.999,lexical_decision_task_DD_L2,2021.2.3,Linux x86_64,30.00390051,,,,,,,,,,,0.5675,1,,,,,,,,,,,,,,z,1,0.5675,,,,,,,,0.251659738,-0.252980742,0,0,0,,0,50,50,151,1,TINKY,HB,old,z,./images/TINKYHB.png,,,,,,,,,,,,,,,,,,,,,,,,,,,,,,,,,,,
,,,,,,,,,,,,,,,,,54e32a60fdf99b3eae9de85b,37,2022-02-12_12h32.39.999,lexical_decision_task_DD_L2,2021.2.3,Linux x86_64,30.00390051,,,,,,,,,,,0.519,0,,,,,,,,,,,,,,m,0,0.519,,,,,,,,0.251659738,-0.252980742,0,0,0,,0,51,51,96,1,KEAMS,C,old,z,./images/KEAMS.png,,,,,,,,,,,,,,,,,,,,,,,,,,,,,,,,,,,
,,,,,,,,,,,,,,,,,54e32a60fdf99b3eae9de85b,37,2022-02-12_12h32.39.999,lexical_decision_task_DD_L2,2021.2.3,Linux x86_64,30.00390051,,,,,,,,,,,0.6192,1,,,,,,,,,,,,,,z,1,0.6192,,,,,,,,0.251659738,-0.252980742,0,0,0,,0,52,52,149,1,VEASE,LB,old,z,./images/VEASELB.png,,,,,,,,,,,,,,,,,,,,,,,,,,,,,,,,,,,
,,,,,,,,,,,,,,,,,54e32a60fdf99b3eae9de85b,37,2022-02-12_12h32.39.999,lexical_decision_task_DD_L2,2021.2.3,Linux x86_64,30.00390051,,,,,,,,,,,0.5576,1,,,,,,,,,,,,,,z,1,0.5576,,,,,,,,0.251659738,-0.252980742,0,0,0,,0,53,53,136,1,WERVE,HB,old,z,./images/WERVEHB.png,,,,,,,,,,,,,,,,,,,,,,,,,,,,,,,,,,,
,,,,,,,,,,,,,,,,,54e32a60fdf99b3eae9de85b,37,2022-02-12_12h32.39.999,lexical_decision_task_DD_L2,2021.2.3,Linux x86_64,30.00390051,,,,,,,,,,,0.4878,1,,,,,,,,,,,,,,m,1,0.4878,,,,,,,,0.251659738,-0.252980742,0,0,0,,0,54,54,43,1,MOSQUE,LB,old,m,./images/MOSQUELB.png,,,,,,,,,,,,,,,,,,,,,,,,,,,,,,,,,,,
,,,,,,,,,,,,,,,,,54e32a60fdf99b3eae9de85b,37,2022-02-12_12h32.39.999,lexical_decision_task_DD_L2,2021.2.3,Linux x86_64,30.00390051,,,,,,,,,,,0.4092,0,,,,,,,,,,,,,,z,0,0.4092,,,,,,,,0.251659738,-0.252980742,0,0,0,,0,55,55,2,1,BEARD,C,old,m,./images/BEARD.png,,,,,,,,,,,,,,,,,,,,,,,,,,,,,,,,,,,
,,,,,,,,,,,,,,,,,54e32a60fdf99b3eae9de85b,37,2022-02-12_12h32.39.999,lexical_decision_task_DD_L2,2021.2.3,Linux x86_64,30.00390051,,,,,,,,,,,0.5775,1,,,,,,,,,,,,,,z,1,0.5775,,,,,,,,0.251659738,-0.252980742,0,0,0,,0,56,56,120,1,RINED,C,old,z,./images/RINED.png,,,,,,,,,,,,,,,,,,,,,,,,,,,,,,,,,,,
,,,,,,,,,,,,,,,,,54e32a60fdf99b3eae9de85b,37,2022-02-12_12h32.39.999,lexical_decision_task_DD_L2,2021.2.3,Linux x86_64,30.00390051,,,,,,,,,,,0.6244,1,,,,,,,,,,,,,,m,1,0.6244,,,,,,,,0.251659738,-0.252980742,0,0,0,,0,57,57,0,1,TOMATO,HB,old,m,./images/TOMATOHB.png,,,,,,,,,,,,,,,,,,,,,,,,,,,,,,,,,,,
,,,,,,,,,,,,,,,,,54e32a60fdf99b3eae9de85b,37,2022-02-12_12h32.39.999,lexical_decision_task_DD_L2,2021.2.3,Linux x86_64,30.00390051,,,,,,,,,,,0.5609,1,,,,,,,,,,,,,,z,1,0.5609,,,,,,,,0.251659738,-0.252980742,0,0,0,,0,58,58,99,1,BACKY,C,old,z,./images/BACKY.png,,,,,,,,,,,,,,,,,,,,,,,,,,,,,,,,,,,
,,,,,,,,,,,,,,,,,54e32a60fdf99b3eae9de85b,37,2022-02-12_12h32.39.999,lexical_decision_task_DD_L2,2021.2.3,Linux x86_64,30.00390051,,,,,,,,,,,0.5946,1,,,,,,,,,,,,,,z,1,0.5946,,,,,,,,0.251659738,-0.252980742,0,0,0,,0,59,59,166,1,SHORY,HB,old,z,./images/SHORYHB.png,,,,,,,,,,,,,,,,,,,,,,,,,,,,,,,,,,,
,,,,,,,,,,,,,,,,,54e32a60fdf99b3eae9de85b,37,2022-02-12_12h32.39.999,lexical_decision_task_DD_L2,2021.2.3,Linux x86_64,30.00390051,,,,,,,,,,,0.5867,1,,,,,,,,,,,,,,z,1,0.5867,,,,,,,,0.251659738,-0.252980742,0,0,0,,0,60,60,92,1,PAIMS,LB,old,z,./images/PAIMSLB.png,,,,,,,,,,,,,,,,,,,,,,,,,,,,,,,,,,,
,,,,,,,,,,,,,,,,,54e32a60fdf99b3eae9de85b,37,2022-02-12_12h32.39.999,lexical_decision_task_DD_L2,2021.2.3,Linux x86_64,30.00390051,,,,,,,,,,,0.573,1,,,,,,,,,,,,,,m,1,0.573,,,,,,,,0.251659738,-0.252980742,0,0,0,,0,61,61,80,1,WEASEL,C,old,m,./images/WEASEL.png,,,,,,,,,,,,,,,,,,,,,,,,,,,,,,,,,,,
,,,,,,,,,,,,,,,,,54e32a60fdf99b3eae9de85b,37,2022-02-12_12h32.39.999,lexical_decision_task_DD_L2,2021.2.3,Linux x86_64,30.00390051,,,,,,,,,,,0.5574,1,,,,,,,,,,,,,,z,1,0.5574,,,,,,,,0.251659738,-0.252980742,0,0,0,,0,62,62,86,1,AIFED,LB,old,z,./images/AIFEDLB.png,,,,,,,,,,,,,,,,,,,,,,,,,,,,,,,,,,,
,,,,,,,,,,,,,,,,,54e32a60fdf99b3eae9de85b,37,2022-02-12_12h32.39.999,lexical_decision_task_DD_L2,2021.2.3,Linux x86_64,30.00390051,,,,,,,,,,,0.8103,1,,,,,,,,,,,,,,m,1,0.8103,,,,,,,,0.251659738,-0.252980742,0,0,0,,0,63,63,69,1,COOKER,HB,old,m,./images/COOKERHB.png,,,,,,,,,,,,,,,,,,,,,,,,,,,,,,,,,,,
,,,,,,,,,,,,,,,,,54e32a60fdf99b3eae9de85b,37,2022-02-12_12h32.39.999,lexical_decision_task_DD_L2,2021.2.3,Linux x86_64,30.00390051,,,,,,,,,,,0.5321,1,,,,,,,,,,,,,,m,1,0.5321,,,,,,,,0.251659738,-0.252980742,0,0,0,,0,64,64,66,1,SWEAT,HB,old,m,./images/SWEATHB.png,,,,,,,,,,,,,,,,,,,,,,,,,,,,,,,,,,,
,,,,,,,,,,,,,,,,,54e32a60fdf99b3eae9de85b,37,2022-02-12_12h32.39.999,lexical_decision_task_DD_L2,2021.2.3,Linux x86_64,30.00390051,,,,,,,,,,,0.5223,1,,,,,,,,,,,,,,m,1,0.5223,,,,,,,,0.251659738,-0.252980742,0,0,0,,0,65,65,64,1,JELLY,LB,old,m,./images/JELLYLB.png,,,,,,,,,,,,,,,,,,,,,,,,,,,,,,,,,,,
,,,,,,,,,,,,,,,,,54e32a60fdf99b3eae9de85b,37,2022-02-12_12h32.39.999,lexical_decision_task_DD_L2,2021.2.3,Linux x86_64,30.00390051,,,,,,,,,,,0.5181,1,,,,,,,,,,,,,,m,1,0.5181,,,,,,,,0.251659738,-0.252980742,0,0,0,,0,66,66,28,1,FALCON,LB,old,m,./images/FALCONLB.png,,,,,,,,,,,,,,,,,,,,,,,,,,,,,,,,,,,
,,,,,,,,,,,,,,,,,54e32a60fdf99b3eae9de85b,37,2022-02-12_12h32.39.999,lexical_decision_task_DD_L2,2021.2.3,Linux x86_64,30.00390051,,,,,,,,,,,0.4976,1,,,,,,,,,,,,,,z,1,0.4976,,,,,,,,0.251659738,-0.252980742,0,0,0,,0,67,67,150,1,NOOLS,C,old,z,./images/NOOLS.png,,,,,,,,,,,,,,,,,,,,,,,,,,,,,,,,,,,
,,,,,,,,,,,,,,,,,54e32a60fdf99b3eae9de85b,37,2022-02-12_12h32.39.999,lexical_decision_task_DD_L2,2021.2.3,Linux x86_64,30.00390051,,,,,,,,,,,0.5625,1,,,,,,,,,,,,,,m,1,0.5625,,,,,,,,0.251659738,-0.252980742,0,0,0,,0,68,68,20,1,CRADLE,C,old,m,./images/CRADLE.png,,,,,,,,,,,,,,,,,,,,,,,,,,,,,,,,,,,
,,,,,,,,,,,,,,,,,54e32a60fdf99b3eae9de85b,37,2022-02-12_12h32.39.999,lexical_decision_task_DD_L2,2021.2.3,Linux x86_64,30.00390051,,,,,,,,,,,0.5087,1,,,,,,,,,,,,,,z,1,0.5087,,,,,,,,0.251659738,-0.252980742,0,0,0,,0,69,69,118,1,BAVEL,HB,old,z,./images/BAVELHB.png,,,,,,,,,,,,,,,,,,,,,,,,,,,,,,,,,,,
,,,,,,,,,,,,,,,,,54e32a60fdf99b3eae9de85b,37,2022-02-12_12h32.39.999,lexical_decision_task_DD_L2,2021.2.3,Linux x86_64,30.00390051,,,,,,,,,,,0.5505,1,,,,,,,,,,,,,,m,1,0.5505,,,,,,,,0.251659738,-0.252980742,0,0,0,,0,70,70,12,1,SHORE,HB,old,m,./images/SHOREHB.png,,,,,,,,,,,,,,,,,,,,,,,,,,,,,,,,,,,
,,,,,,,,,,,,,,,,,54e32a60fdf99b3eae9de85b,37,2022-02-12_12h32.39.999,lexical_decision_task_DD_L2,2021.2.3,Linux x86_64,30.00390051,,,,,,,,,,,0.5413,1,,,,,,,,,,,,,,z,1,0.5413,,,,,,,,0.251659738,-0.252980742,0,0,0,,0,71,71,98,1,BAMPS,LB,old,z,./images/BAMPSLB.png,,,,,,,,,,,,,,,,,,,,,,,,,,,,,,,,,,,
,,,,,,,,,,,,,,,,,54e32a60fdf99b3eae9de85b,37,2022-02-12_12h32.39.999,lexical_decision_task_DD_L2,2021.2.3,Linux x86_64,30.00390051,,,,,,,,,,,0.4982,1,,,,,,,,,,,,,,m,1,0.4982,,,,,,,,0.251659738,-0.252980742,0,0,0,,0,72,72,68,1,TORCH,C,old,m,./images/TORCH.png,,,,,,,,,,,,,,,,,,,,,,,,,,,,,,,,,,,
,,,,,,,,,,,,,,,,,54e32a60fdf99b3eae9de85b,37,2022-02-12_12h32.39.999,lexical_decision_task_DD_L2,2021.2.3,Linux x86_64,30.00390051,,,,,,,,,,,0.5479,1,,,,,,,,,,,,,,m,1,0.5479,,,,,,,,0.251659738,-0.252980742,0,0,0,,0,73,73,27,1,ATTIC,HB,old,m,./images/ATTICHB.png,,,,,,,,,,,,,,,,,,,,,,,,,,,,,,,,,,,
,,,,,,,,,,,,,,,,,54e32a60fdf99b3eae9de85b,37,2022-02-12_12h32.39.999,lexical_decision_task_DD_L2,2021.2.3,Linux x86_64,30.00390051,,,,,,,,,,,0.5188,1,,,,,,,,,,,,,,z,1,0.5188,,,,,,,,0.251659738,-0.252980742,0,0,0,,0,74,74,141,1,PLEET,C,old,z,./images/PLEET.png,,,,,,,,,,,,,,,,,,,,,,,,,,,,,,,,,,,
,,,,,,,,,,,,,,,,,54e32a60fdf99b3eae9de85b,37,2022-02-12_12h32.39.999,lexical_decision_task_DD_L2,2021.2.3,Linux x86_64,30.00390051,,,,,,,,,,,0.5205,1,,,,,,,,,,,,,,z,1,0.5205,,,,,,,,0.251659738,-0.252980742,0,0,0,,0,75,75,121,1,CEERS,HB,old,z,./images/CEERSHB.png,,,,,,,,,,,,,,,,,,,,,,,,,,,,,,,,,,,
,,,,,,,,,,,,,,,,,54e32a60fdf99b3eae9de85b,37,2022-02-12_12h32.39.999,lexical_decision_task_DD_L2,2021.2.3,Linux x86_64,30.00390051,,,,,,,,,,,0.55,1,,,,,,,,,,,,,,z,1,0.55,,,,,,,,0.251659738,-0.252980742,0,0,0,,0,76,76,116,1,BALGY,LB,old,z,./images/BALGYLB.png,,,,,,,,,,,,,,,,,,,,,,,,,,,,,,,,,,,
,,,,,,,,,,,,,,,,,54e32a60fdf99b3eae9de85b,37,2022-02-12_12h32.39.999,lexical_decision_task_DD_L2,2021.2.3,Linux x86_64,30.00390051,,,,,,,,,,,0.5935,1,,,,,,,,,,,,,,m,1,0.5935,,,,,,,,0.251659738,-0.252980742,0,0,0,,0,77,77,60,1,TWINS,HB,old,m,./images/TWINSHB.png,,,,,,,,,,,,,,,,,,,,,,,,,,,,,,,,,,,
,,,,,,,,,,,,,,,,,54e32a60fdf99b3eae9de85b,37,2022-02-12_12h32.39.999,lexical_decision_task_DD_L2,2021.2.3,Linux x86_64,30.00390051,,,,,,,,,,,0.5315,1,,,,,,,,,,,,,,z,1,0.5315,,,,,,,,0.251659738,-0.252980742,0,0,0,,0,78,78,87,1,TRING,C,old,z,./images/TRING.png,,,,,,,,,,,,,,,,,,,,,,,,,,,,,,,,,,,
,,,,,,,,,,,,,,,,,54e32a60fdf99b3eae9de85b,37,2022-02-12_12h32.39.999,lexical_decision_task_DD_L2,2021.2.3,Linux x86_64,30.00390051,,,,,,,,,,,0.5974,1,,,,,,,,,,,,,,z,1,0.5974,,,,,,,,0.251659738,-0.252980742,0,0,0,,0,79,79,107,1,FASKS,LB,old,z,./images/FASKSLB.png,,,,,,,,,,,,,,,,,,,,,,,,,,,,,,,,,,,
,,,,,,,,,,,,,,,,,54e32a60fdf99b3eae9de85b,37,2022-02-12_12h32.39.999,lexical_decision_task_DD_L2,2021.2.3,Linux x86_64,30.00390051,,,,,,,,,,,0.5675,0,,,,,,,,,,,,,,z,0,0.5675,,,,,,,,0.251659738,-0.252980742,0,0,0,,0,80,80,54,1,TRIPOD,HB,old,m,./images/TRIPODHB.png,,,,,,,,,,,,,,,,,,,,,,,,,,,,,,,,,,,
,,,,,,,,,,,,,,,,,54e32a60fdf99b3eae9de85b,37,2022-02-12_12h32.39.999,lexical_decision_task_DD_L2,2021.2.3,Linux x86_64,30.00390051,,,,,,,,,,,0.5604,1,,,,,,,,,,,,,,z,1,0.5604,,,,,,,,0.251659738,-0.252980742,0,0,0,,0,81,81,145,1,LAMEL,HB,old,z,./images/LAMELHB.png,,,,,,,,,,,,,,,,,,,,,,,,,,,,,,,,,,,
,,,,,,,,,,,,,,,,,54e32a60fdf99b3eae9de85b,37,2022-02-12_12h32.39.999,lexical_decision_task_DD_L2,2021.2.3,Linux x86_64,30.00390051,,,,,,,,,,,0.5872,1,,,,,,,,,,,,,,z,1,0.5872,,,,,,,,0.251659738,-0.252980742,0,0,0,,0,82,82,156,1,HIXES,C,old,z,./images/HIXES.png,,,,,,,,,,,,,,,,,,,,,,,,,,,,,,,,,,,
,,,,,,,,,,,,,,,,,54e32a60fdf99b3eae9de85b,37,2022-02-12_12h32.39.999,lexical_decision_task_DD_L2,2021.2.3,Linux x86_64,30.00390051,,,,,,,,,,,0.4917,1,,,,,,,,,,,,,,z,1,0.4917,,,,,,,,0.251659738,-0.252980742,0,0,0,space,0,83,83,93,1,SMONE,C,old,z,./images/SMONE.png,1.3886,,,,,,,,,,,,,,,,,,,,,,,,,,,,,,,,,,
,,,,,,,,,,,,,,,,,54e32a60fdf99b3eae9de85b,37,2022-02-12_12h32.39.999,lexical_decision_task_DD_L2,2021.2.3,Linux x86_64,30.00390051,,,,,,,,,,,0.5219,1,,,,,,,,,,,,,,z,1,0.5219,,,,,,,,0.251659738,-0.252980742,0,0,0,,0,84,84,108,1,GRUET,C,old,z,./images/GRUET.png,,,,,,,,,,,,,,,,,,,,,,,,,,,,,,,,,,,
,,,,,,,,,,,,,,,,,54e32a60fdf99b3eae9de85b,37,2022-02-12_12h32.39.999,lexical_decision_task_DD_L2,2021.2.3,Linux x86_64,30.00390051,,,,,,,,,,,0.5293,1,,,,,,,,,,,,,,z,1,0.5293,,,,,,,,0.251659738,-0.252980742,0,0,0,,0,85,85,137,1,JOOST,LB,old,z,./images/JOOSTLB.png,,,,,,,,,,,,,,,,,,,,,,,,,,,,,,,,,,,
,,,,,,,,,,,,,,,,,54e32a60fdf99b3eae9de85b,37,2022-02-12_12h32.39.999,lexical_decision_task_DD_L2,2021.2.3,Linux x86_64,30.00390051,,,,,,,,,,,0.6139,1,,,,,,,,,,,,,,m,1,0.6139,,,,,,,,0.251659738,-0.252980742,0,0,0,,0,86,86,7,1,PAINT,LB,old,m,./images/PAINTLB.png,,,,,,,,,,,,,,,,,,,,,,,,,,,,,,,,,,,
,,,,,,,,,,,,,,,,,54e32a60fdf99b3eae9de85b,37,2022-02-12_12h32.39.999,lexical_decision_task_DD_L2,2021.2.3,Linux x86_64,30.00390051,,,,,,,,,,,0.5244,1,,,,,,,,,,,,,,z,1,0.5244,,,,,,,,0.251659738,-0.252980742,0,0,0,,0,87,87,155,1,CANGY,LB,old,z,./images/CANGYLB.png,,,,,,,,,,,,,,,,,,,,,,,,,,,,,,,,,,,
,,,,,,,,,,,,,,,,,54e32a60fdf99b3eae9de85b,37,2022-02-12_12h32.39.999,lexical_decision_task_DD_L2,2021.2.3,Linux x86_64,30.00390051,,,,,,,,,,,0.6008,1,,,,,,,,,,,,,,m,1,0.6008,,,,,,,,0.251659738,-0.252980742,0,0,0,,0,88,88,70,1,URINE,LB,old,m,./images/URINELB.png,,,,,,,,,,,,,,,,,,,,,,,,,,,,,,,,,,,
,,,,,,,,,,,,,,,,,54e32a60fdf99b3eae9de85b,37,2022-02-12_12h32.39.999,lexical_decision_task_DD_L2,2021.2.3,Linux x86_64,30.00390051,,,,,,,,,,,0.5589,1,,,,,,,,,,,,,,m,1,0.5589,,,,,,,,0.251659738,-0.252980742,0,0,0,,0,89,89,22,1,MELON,LB,old,m,./images/MELONLB.png,,,,,,,,,,,,,,,,,,,,,,,,,,,,,,,,,,,
,,,,,,,,,,,,,,,,,54e32a60fdf99b3eae9de85b,37,2022-02-12_12h32.39.999,lexical_decision_task_DD_L2,2021.2.3,Linux x86_64,30.00390051,,,,,,,,,,,0.5735,1,,,,,,,,,,,,,,m,1,0.5735,,,,,,,,0.251659738,-0.252980742,0,0,0,,0,90,90,76,1,INFANT,LB,old,m,./images/INFANTLB.png,,,,,,,,,,,,,,,,,,,,,,,,,,,,,,,,,,,
,,,,,,,,,,,,,,,,,54e32a60fdf99b3eae9de85b,37,2022-02-12_12h32.39.999,lexical_decision_task_DD_L2,2021.2.3,Linux x86_64,30.00390051,,,,,,,,,,,0.5265,1,,,,,,,,,,,,,,z,1,0.5265,,,,,,,,0.251659738,-0.252980742,0,0,0,,0,91,91,126,1,GUELS,C,old,z,./images/GUELS.png,,,,,,,,,,,,,,,,,,,,,,,,,,,,,,,,,,,
,,,,,,,,,,,,,,,,,54e32a60fdf99b3eae9de85b,37,2022-02-12_12h32.39.999,lexical_decision_task_DD_L2,2021.2.3,Linux x86_64,30.00390051,,,,,,,,,,,0.4807,1,,,,,,,,,,,,,,z,1,0.4807,,,,,,,,0.251659738,-0.252980742,0,0,0,,0,92,92,123,1,SEDGE,C,old,z,./images/SEDGE.png,,,,,,,,,,,,,,,,,,,,,,,,,,,,,,,,,,,
,,,,,,,,,,,,,,,,,54e32a60fdf99b3eae9de85b,37,2022-02-12_12h32.39.999,lexical_decision_task_DD_L2,2021.2.3,Linux x86_64,30.00390051,,,,,,,,,,,0.5457,1,,,,,,,,,,,,,,z,1,0.5457,,,,,,,,0.251659738,-0.252980742,0,0,0,,0,93,93,160,1,VEETS,HB,old,z,./images/VEETSHB.png,,,,,,,,,,,,,,,,,,,,,,,,,,,,,,,,,,,
,,,,,,,,,,,,,,,,,54e32a60fdf99b3eae9de85b,37,2022-02-12_12h32.39.999,lexical_decision_task_DD_L2,2021.2.3,Linux x86_64,30.00390051,,,,,,,,,,,0.6858,1,,,,,,,,,,,,,,z,1,0.6858,,,,,,,,0.251659738,-0.252980742,0,0,0,,0,94,94,146,1,MOOST,LB,old,z,./images/MOOSTLB.png,,,,,,,,,,,,,,,,,,,,,,,,,,,,,,,,,,,
,,,,,,,,,,,,,,,,,54e32a60fdf99b3eae9de85b,37,2022-02-12_12h32.39.999,lexical_decision_task_DD_L2,2021.2.3,Linux x86_64,30.00390051,,,,,,,,,,,0.5707,1,,,,,,,,,,,,,,z,1,0.5707,,,,,,,,0.251659738,-0.252980742,0,0,0,,0,95,95,135,1,JOODY,C,old,z,./images/JOODY.png,,,,,,,,,,,,,,,,,,,,,,,,,,,,,,,,,,,
,,,,,,,,,,,,,,,,,54e32a60fdf99b3eae9de85b,37,2022-02-12_12h32.39.999,lexical_decision_task_DD_L2,2021.2.3,Linux x86_64,30.00390051,,,,,,,,,,,0.5674,1,,,,,,,,,,,,,,m,1,0.5674,,,,,,,,0.251659738,-0.252980742,0,0,0,,0,96,96,34,1,CANYON,LB,old,m,./images/CANYONLB.png,,,,,,,,,,,,,,,,,,,,,,,,,,,,,,,,,,,
,,,,,,,,,,,,,,,,,54e32a60fdf99b3eae9de85b,37,2022-02-12_12h32.39.999,lexical_decision_task_DD_L2,2021.2.3,Linux x86_64,30.00390051,,,,,,,,,,,0.6087,1,,,,,,,,,,,,,,m,1,0.6087,,,,,,,,0.251659738,-0.252980742,0,0,0,,0,97,97,8,1,TULIP,C,old,m,./images/TULIP.png,,,,,,,,,,,,,,,,,,,,,,,,,,,,,,,,,,,
,,,,,,,,,,,,,,,,,54e32a60fdf99b3eae9de85b,37,2022-02-12_12h32.39.999,lexical_decision_task_DD_L2,2021.2.3,Linux x86_64,30.00390051,,,,,,,,,,,0.5319,1,,,,,,,,,,,,,,m,1,0.5319,,,,,,,,0.251659738,-0.252980742,0,0,0,,0,98,98,10,1,BELLY,LB,old,m,./images/BELLYLB.png,,,,,,,,,,,,,,,,,,,,,,,,,,,,,,,,,,,
,,,,,,,,,,,,,,,,,54e32a60fdf99b3eae9de85b,37,2022-02-12_12h32.39.999,lexical_decision_task_DD_L2,2021.2.3,Linux x86_64,30.00390051,,,,,,,,,,,0.6388,1,,,,,,,,,,,,,,m,1,0.6388,,,,,,,,0.251659738,-0.252980742,0,0,0,,0,99,99,50,1,MALLET,C,old,m,./images/MALLET.png,,,,,,,,,,,,,,,,,,,,,,,,,,,,,,,,,,,
,,,,,,,,,,,,,,,,,54e32a60fdf99b3eae9de85b,37,2022-02-12_12h32.39.999,lexical_decision_task_DD_L2,2021.2.3,Linux x86_64,30.00390051,,,,,,,,,,,0.4845,1,,,,,,,,,,,,,,z,1,0.4845,,,,,,,,0.251659738,-0.252980742,0,0,0,,0,100,100,143,1,MONGS,LB,old,z,./images/MONGSLB.png,,,,,,,,,,,,,,,,,,,,,,,,,,,,,,,,,,,
,,,,,,,,,,,,,,,,,54e32a60fdf99b3eae9de85b,37,2022-02-12_12h32.39.999,lexical_decision_task_DD_L2,2021.2.3,Linux x86_64,30.00390051,,,,,,,,,,,0.4852,1,,,,,,,,,,,,,,m,1,0.4852,,,,,,,,0.251659738,-0.252980742,0,0,0,,0,101,101,13,1,MOTOR,LB,old,m,./images/MOTORLB.png,,,,,,,,,,,,,,,,,,,,,,,,,,,,,,,,,,,
,,,,,,,,,,,,,,,,,54e32a60fdf99b3eae9de85b,37,2022-02-12_12h32.39.999,lexical_decision_task_DD_L2,2021.2.3,Linux x86_64,30.00390051,,,,,,,,,,,0.5211,1,,,,,,,,,,,,,,z,1,0.5211,,,,,,,,0.251659738,-0.252980742,0,0,0,,0,102,102,128,1,GRIFT,LB,old,z,./images/GRIFTLB.png,,,,,,,,,,,,,,,,,,,,,,,,,,,,,,,,,,,
,,,,,,,,,,,,,,,,,54e32a60fdf99b3eae9de85b,37,2022-02-12_12h32.39.999,lexical_decision_task_DD_L2,2021.2.3,Linux x86_64,30.00390051,,,,,,,,,,,0.56,1,,,,,,,,,,,,,,z,1,0.56,,,,,,,,0.251659738,-0.252980742,0,0,0,,0,103,103,133,1,POWDY,HB,old,z,./images/POWDYHB.png,,,,,,,,,,,,,,,,,,,,,,,,,,,,,,,,,,,
,,,,,,,,,,,,,,,,,54e32a60fdf99b3eae9de85b,37,2022-02-12_12h32.39.999,lexical_decision_task_DD_L2,2021.2.3,Linux x86_64,30.00390051,,,,,,,,,,,0.6069,1,,,,,,,,,,,,,,m,1,0.6069,,,,,,,,0.251659738,-0.252980742,0,0,0,,0,104,104,47,1,BERRY,C,old,m,./images/BERRY.png,,,,,,,,,,,,,,,,,,,,,,,,,,,,,,,,,,,
,,,,,,,,,,,,,,,,,54e32a60fdf99b3eae9de85b,37,2022-02-12_12h32.39.999,lexical_decision_task_DD_L2,2021.2.3,Linux x86_64,30.00390051,,,,,,,,,,,0.5326,1,,,,,,,,,,,,,,z,1,0.5326,,,,,,,,0.251659738,-0.252980742,0,0,0,,0,105,105,131,1,NACES,LB,old,z,./images/NACESLB.png,,,,,,,,,,,,,,,,,,,,,,,,,,,,,,,,,,,
,,,,,,,,,,,,,,,,,54e32a60fdf99b3eae9de85b,37,2022-02-12_12h32.39.999,lexical_decision_task_DD_L2,2021.2.3,Linux x86_64,30.00390051,,,,,,,,,,,0.5511,1,,,,,,,,,,,,,,m,1,0.5511,,,,,,,,0.251659738,-0.252980742,0,0,0,,0,106,106,71,1,PIMPLE,C,old,m,./images/PIMPLE.png,,,,,,,,,,,,,,,,,,,,,,,,,,,,,,,,,,,
,,,,,,,,,,,,,,,,,54e32a60fdf99b3eae9de85b,37,2022-02-12_12h32.39.999,lexical_decision_task_DD_L2,2021.2.3,Linux x86_64,30.00390051,,,,,,,,,,,0.5351,1,,,,,,,,,,,,,,z,1,0.5351,,,,,,,,0.251659738,-0.252980742,0,0,0,,0,107,107,90,1,NEAST,C,old,z,./images/NEAST.png,,,,,,,,,,,,,,,,,,,,,,,,,,,,,,,,,,,
,,,,,,,,,,,,,,,,,54e32a60fdf99b3eae9de85b,37,2022-02-12_12h32.39.999,lexical_decision_task_DD_L2,2021.2.3,Linux x86_64,30.00390051,,,,,,,,,,,0.7298,1,,,,,,,,,,,,,,m,1,0.7298,,,,,,,,0.251659738,-0.252980742,0,0,0,,0,108,108,21,1,KIDNEY,HB,old,m,./images/KIDNEYHB.png,,,,,,,,,,,,,,,,,,,,,,,,,,,,,,,,,,,
,,,,,,,,,,,,,,,,,54e32a60fdf99b3eae9de85b,37,2022-02-12_12h32.39.999,lexical_decision_task_DD_L2,2021.2.3,Linux x86_64,30.00390051,,,,,,,,,,,0.4506,1,,,,,,,,,,,,,,m,1,0.4506,,,,,,,,0.251659738,-0.252980742,0,0,0,,0,109,109,44,1,LIZARD,C,old,m,./images/LIZARD.png,,,,,,,,,,,,,,,,,,,,,,,,,,,,,,,,,,,
,,,,,,,,,,,,,,,,,54e32a60fdf99b3eae9de85b,37,2022-02-12_12h32.39.999,lexical_decision_task_DD_L2,2021.2.3,Linux x86_64,30.00390051,,,,,,,,,,,0.8571,1,,,,,,,,,,,,,,z,1,0.8571,,,,,,,,0.251659738,-0.252980742,0,0,0,,0,110,110,132,1,SCIFF,C,old,z,./images/SCIFF.png,,,,,,,,,,,,,,,,,,,,,,,,,,,,,,,,,,,
,,,,,,,,,,,,,,,,,54e32a60fdf99b3eae9de85b,37,2022-02-12_12h32.39.999,lexical_decision_task_DD_L2,2021.2.3,Linux x86_64,30.00390051,,,,,,,,,,,0.5897,0,,,,,,,,,,,,,,z,0,0.5897,,,,,,,,0.251659738,-0.252980742,0,0,0,,0,111,111,3,1,FINGER,HB,old,m,./images/FINGERHB.png,,,,,,,,,,,,,,,,,,,,,,,,,,,,,,,,,,,
,,,,,,,,,,,,,,,,,54e32a60fdf99b3eae9de85b,37,2022-02-12_12h32.39.999,lexical_decision_task_DD_L2,2021.2.3,Linux x86_64,30.00390051,,,,,,,,,,,0.6789,1,,,,,,,,,,,,,,z,1,0.6789,,,,,,,,0.251659738,-0.252980742,0,0,0,,0,112,112,162,1,LEICH,C,old,z,./images/LEICH.png,,,,,,,,,,,,,,,,,,,,,,,,,,,,,,,,,,,
,,,,,,,,,,,,,,,,,54e32a60fdf99b3eae9de85b,37,2022-02-12_12h32.39.999,lexical_decision_task_DD_L2,2021.2.3,Linux x86_64,30.00390051,,,,,,,,,,,0.5493,1,,,,,,,,,,,,,,m,1,0.5493,,,,,,,,0.251659738,-0.252980742,0,0,0,,0,113,113,48,1,SPORT,HB,old,m,./images/SPORTHB.png,,,,,,,,,,,,,,,,,,,,,,,,,,,,,,,,,,,
,,,,,,,,,,,,,,,,,54e32a60fdf99b3eae9de85b,37,2022-02-12_12h32.39.999,lexical_decision_task_DD_L2,2021.2.3,Linux x86_64,30.00390051,,,,,,,,,,,0.5605,1,,,,,,,,,,,,,,m,1,0.5605,,,,,,,,0.251659738,-0.252980742,0,0,0,,0,114,114,29,1,CRUMB,C,old,m,./images/CRUMB.png,,,,,,,,,,,,,,,,,,,,,,,,,,,,,,,,,,,
,,,,,,,,,,,,,,,,,54e32a60fdf99b3eae9de85b,37,2022-02-12_12h32.39.999,lexical_decision_task_DD_L2,2021.2.3,Linux x86_64,30.00390051,,,,,,,,,,,0.8101,1,,,,,,,,,,,,,,z,1,0.8101,,,,,,,,0.251659738,-0.252980742,0,0,0,,0,115,115,113,1,LINEW,LB,old,z,./images/LINEWLB.png,,,,,,,,,,,,,,,,,,,,,,,,,,,,,,,,,,,
,,,,,,,,,,,,,,,,,54e32a60fdf99b3eae9de85b,37,2022-02-12_12h32.39.999,lexical_decision_task_DD_L2,2021.2.3,Linux x86_64,30.00390051,,,,,,,,,,,0.4896,1,,,,,,,,,,,,,,m,1,0.4896,,,,,,,,0.251659738,-0.252980742,0,0,0,,0,116,116,26,1,SMOKER,C,old,m,./images/SMOKER.png,,,,,,,,,,,,,,,,,,,,,,,,,,,,,,,,,,,
,,,,,,,,,,,,,,,,,54e32a60fdf99b3eae9de85b,37,2022-02-12_12h32.39.999,lexical_decision_task_DD_L2,2021.2.3,Linux x86_64,30.00390051,,,,,,,,,,,0.5611,1,,,,,,,,,,,,,,m,1,0.5611,,,,,,,,0.251659738,-0.252980742,0,0,0,,0,117,117,25,1,WRIST,LB,old,m,./images/WRISTLB.png,,,,,,,,,,,,,,,,,,,,,,,,,,,,,,,,,,,
,,,,,,,,,,,,,,,,,54e32a60fdf99b3eae9de85b,37,2022-02-12_12h32.39.999,lexical_decision_task_DD_L2,2021.2.3,Linux x86_64,30.00390051,,,,,,,,,,,0.569,1,,,,,,,,,,,,,,z,1,0.569,,,,,,,,0.251659738,-0.252980742,0,0,0,,0,118,118,167,1,ZONET,LB,old,z,./images/ZONETLB.png,,,,,,,,,,,,,,,,,,,,,,,,,,,,,,,,,,,
,,,,,,,,,,,,,,,,,54e32a60fdf99b3eae9de85b,37,2022-02-12_12h32.39.999,lexical_decision_task_DD_L2,2021.2.3,Linux x86_64,30.00390051,,,,,,,,,,,0.6011,1,,,,,,,,,,,,,,m,1,0.6011,,,,,,,,0.251659738,-0.252980742,0,0,0,,0,119,119,9,1,RHINO,HB,old,m,./images/RHINOHB.png,,,,,,,,,,,,,,,,,,,,,,,,,,,,,,,,,,,
,,,,,,,,,,,,,,,,,54e32a60fdf99b3eae9de85b,37,2022-02-12_12h32.39.999,lexical_decision_task_DD_L2,2021.2.3,Linux x86_64,30.00390051,,,,,,,,,,,0.4933,1,,,,,,,,,,,,,,m,1,0.4933,,,,,,,,0.251659738,-0.252980742,0,0,0,,0,120,120,82,1,SUNSET,LB,old,m,./images/SUNSETLB.png,,,,,,,,,,,,,,,,,,,,,,,,,,,,,,,,,,,
,,,,,,,,,,,,,,,,,54e32a60fdf99b3eae9de85b,37,2022-02-12_12h32.39.999,lexical_decision_task_DD_L2,2021.2.3,Linux x86_64,30.00390051,,,,,,,,,,,0.5766,1,,,,,,,,,,,,,,z,1,0.5766,,,,,,,,0.251659738,-0.252980742,0,0,0,,0,121,121,130,1,CRILL,HB,old,z,./images/CRILLHB.png,,,,,,,,,,,,,,,,,,,,,,,,,,,,,,,,,,,
,,,,,,,,,,,,,,,,,54e32a60fdf99b3eae9de85b,37,2022-02-12_12h32.39.999,lexical_decision_task_DD_L2,2021.2.3,Linux x86_64,30.00390051,,,,,,,,,,,0.6005,1,,,,,,,,,,,,,,m,1,0.6005,,,,,,,,0.251659738,-0.252980742,0,0,0,,0,122,122,75,1,GRAIN,HB,old,m,./images/GRAINHB.png,,,,,,,,,,,,,,,,,,,,,,,,,,,,,,,,,,,
,,,,,,,,,,,,,,,,,54e32a60fdf99b3eae9de85b,37,2022-02-12_12h32.39.999,lexical_decision_task_DD_L2,2021.2.3,Linux x86_64,30.00390051,,,,,,,,,,,0.5864,1,,,,,,,,,,,,,,m,1,0.5864,,,,,,,,0.251659738,-0.252980742,0,0,0,,0,123,123,6,1,SQUARE,HB,old,m,./images/SQUAREHB.png,,,,,,,,,,,,,,,,,,,,,,,,,,,,,,,,,,,
,,,,,,,,,,,,,,,,,54e32a60fdf99b3eae9de85b,37,2022-02-12_12h32.39.999,lexical_decision_task_DD_L2,2021.2.3,Linux x86_64,30.00390051,,,,,,,,,,,0.6653,1,,,,,,,,,,,,,,z,1,0.6653,,,,,,,,0.251659738,-0.252980742,0,0,0,,0,124,124,125,1,MOOKY,LB,old,z,./images/MOOKYLB.png,,,,,,,,,,,,,,,,,,,,,,,,,,,,,,,,,,,
,,,,,,,,,,,,,,,,,54e32a60fdf99b3eae9de85b,37,2022-02-12_12h32.39.999,lexical_decision_task_DD_L2,2021.2.3,Linux x86_64,30.00390051,,,,,,,,,,,0.6219,1,,,,,,,,,,,,,,m,1,0.6219,,,,,,,,0.251659738,-0.252980742,0,0,0,space,0,125,125,19,1,DOUGH,LB,old,m,./images/DOUGHLB.png,42.802,,,,,,,,,,,,,,,,,,,,,,,,,,,,,,,,,,
,,,,,,,,,,,,,,,,,54e32a60fdf99b3eae9de85b,37,2022-02-12_12h32.39.999,lexical_decision_task_DD_L2,2021.2.3,Linux x86_64,30.00390051,,,,,,,,,,,0.6834,1,,,,,,,,,,,,,,z,1,0.6834,,,,,,,,0.251659738,-0.252980742,0,0,0,,0,126,126,115,1,MAWNS,HB,old,z,./images/MAWNSHB.png,,,,,,,,,,,,,,,,,,,,,,,,,,,,,,,,,,,
,,,,,,,,,,,,,,,,,54e32a60fdf99b3eae9de85b,37,2022-02-12_12h32.39.999,lexical_decision_task_DD_L2,2021.2.3,Linux x86_64,30.00390051,,,,,,,,,,,0.6891,1,,,,,,,,,,,,,,z,1,0.6891,,,,,,,,0.251659738,-0.252980742,0,0,0,,0,127,127,140,1,DOVET,LB,old,z,./images/DOVETLB.png,,,,,,,,,,,,,,,,,,,,,,,,,,,,,,,,,,,
,,,,,,,,,,,,,,,,,54e32a60fdf99b3eae9de85b,37,2022-02-12_12h32.39.999,lexical_decision_task_DD_L2,2021.2.3,Linux x86_64,30.00390051,,,,,,,,,,,0.5849,1,,,,,,,,,,,,,,z,1,0.5849,,,,,,,,0.251659738,-0.252980742,0,0,0,,0,128,128,157,1,INLER,HB,old,z,./images/INLERHB.png,,,,,,,,,,,,,,,,,,,,,,,,,,,,,,,,,,,
,,,,,,,,,,,,,,,,,54e32a60fdf99b3eae9de85b,37,2022-02-12_12h32.39.999,lexical_decision_task_DD_L2,2021.2.3,Linux x86_64,30.00390051,,,,,,,,,,,0.4397,1,,,,,,,,,,,,,,m,1,0.4397,,,,,,,,0.251659738,-0.252980742,0,0,0,,0,129,129,73,1,SNACK,LB,old,m,./images/SNACKLB.png,,,,,,,,,,,,,,,,,,,,,,,,,,,,,,,,,,,
,,,,,,,,,,,,,,,,,54e32a60fdf99b3eae9de85b,37,2022-02-12_12h32.39.999,lexical_decision_task_DD_L2,2021.2.3,Linux x86_64,30.00390051,,,,,,,,,,,0.4696,1,,,,,,,,,,,,,,m,1,0.4696,,,,,,,,0.251659738,-0.252980742,0,0,0,,0,130,130,15,1,GREASE,HB,old,m,./images/GREASEHB.png,,,,,,,,,,,,,,,,,,,,,,,,,,,,,,,,,,,
,,,,,,,,,,,,,,,,,54e32a60fdf99b3eae9de85b,37,2022-02-12_12h32.39.999,lexical_decision_task_DD_L2,2021.2.3,Linux x86_64,30.00390051,,,,,,,,,,,0.4588,1,,,,,,,,,,,,,,m,1,0.4588,,,,,,,,0.251659738,-0.252980742,0,0,0,,0,131,131,55,1,MUFFIN,LB,old,m,./images/MUFFINLB.png,,,,,,,,,,,,,,,,,,,,,,,,,,,,,,,,,,,
,,,,,,,,,,,,,,,,,54e32a60fdf99b3eae9de85b,37,2022-02-12_12h32.39.999,lexical_decision_task_DD_L2,2021.2.3,Linux x86_64,30.00390051,,,,,,,,,,,0.5562,1,,,,,,,,,,,,,,z,1,0.5562,,,,,,,,0.251659738,-0.252980742,0,0,0,,0,132,132,85,1,CHULK,HB,old,z,./images/CHULKHB.png,,,,,,,,,,,,,,,,,,,,,,,,,,,,,,,,,,,
,,,,,,,,,,,,,,,,,54e32a60fdf99b3eae9de85b,37,2022-02-12_12h32.39.999,lexical_decision_task_DD_L2,2021.2.3,Linux x86_64,30.00390051,,,,,,,,,,,0.4746,1,,,,,,,,,,,,,,m,1,0.4746,,,,,,,,0.251659738,-0.252980742,0,0,0,,0,133,133,65,1,FARMER,C,old,m,./images/FARMER.png,,,,,,,,,,,,,,,,,,,,,,,,,,,,,,,,,,,
,,,,,,,,,,,,,,,,,54e32a60fdf99b3eae9de85b,37,2022-02-12_12h32.39.999,lexical_decision_task_DD_L2,2021.2.3,Linux x86_64,30.00390051,,,,,,,,,,,0.6178,1,,,,,,,,,,,,,,z,1,0.6178,,,,,,,,0.251659738,-0.252980742,0,0,0,,0,134,134,142,1,PLASK,HB,old,z,./images/PLASKHB.png,,,,,,,,,,,,,,,,,,,,,,,,,,,,,,,,,,,
,,,,,,,,,,,,,,,,,54e32a60fdf99b3eae9de85b,37,2022-02-12_12h32.39.999,lexical_decision_task_DD_L2,2021.2.3,Linux x86_64,30.00390051,,,,,,,,,,,0.4928,1,,,,,,,,,,,,,,m,1,0.4928,,,,,,,,0.251659738,-0.252980742,0,0,0,,0,135,135,35,1,PEACH,C,old,m,./images/PEACH.png,,,,,,,,,,,,,,,,,,,,,,,,,,,,,,,,,,,
,,,,,,,,,,,,,,,,,54e32a60fdf99b3eae9de85b,37,2022-02-12_12h32.39.999,lexical_decision_task_DD_L2,2021.2.3,Linux x86_64,30.00390051,,,,,,,,,,,0.6284,1,,,,,,,,,,,,,,z,1,0.6284,,,,,,,,0.251659738,-0.252980742,0,0,0,,0,136,136,139,1,BLEAR,HB,old,z,./images/BLEARHB.png,,,,,,,,,,,,,,,,,,,,,,,,,,,,,,,,,,,
,,,,,,,,,,,,,,,,,54e32a60fdf99b3eae9de85b,37,2022-02-12_12h32.39.999,lexical_decision_task_DD_L2,2021.2.3,Linux x86_64,30.00390051,,,,,,,,,,,0.6297,1,,,,,,,,,,,,,,z,1,0.6297,,,,,,,,0.251659738,-0.252980742,0,0,0,,0,137,137,124,1,TUNCH,HB,old,z,./images/TUNCHHB.png,,,,,,,,,,,,,,,,,,,,,,,,,,,,,,,,,,,
,,,,,,,,,,,,,,,,,54e32a60fdf99b3eae9de85b,37,2022-02-12_12h32.39.999,lexical_decision_task_DD_L2,2021.2.3,Linux x86_64,30.00390051,,,,,,,,,,,0.6297,1,,,,,,,,,,,,,,z,1,0.6297,,,,,,,,0.251659738,-0.252980742,0,0,0,,0,138,138,158,1,EGECT,LB,old,z,./images/EGECTLB.png,,,,,,,,,,,,,,,,,,,,,,,,,,,,,,,,,,,
,,,,,,,,,,,,,,,,,54e32a60fdf99b3eae9de85b,37,2022-02-12_12h32.39.999,lexical_decision_task_DD_L2,2021.2.3,Linux x86_64,30.00390051,,,,,,,,,,,0.9229,1,,,,,,,,,,,,,,z,1,0.9229,,,,,,,,0.251659738,-0.252980742,0,0,0,,0,139,139,110,1,CRUNK,LB,old,z,./images/CRUNKLB.png,,,,,,,,,,,,,,,,,,,,,,,,,,,,,,,,,,,
,,,,,,,,,,,,,,,,,54e32a60fdf99b3eae9de85b,37,2022-02-12_12h32.39.999,lexical_decision_task_DD_L2,2021.2.3,Linux x86_64,30.00390051,,,,,,,,,,,0.6138,1,,,,,,,,,,,,,,z,1,0.6138,,,,,,,,0.251659738,-0.252980742,0,0,0,,0,140,140,134,1,TROSS,LB,old,z,./images/TROSSLB.png,,,,,,,,,,,,,,,,,,,,,,,,,,,,,,,,,,,
,,,,,,,,,,,,,,,,,54e32a60fdf99b3eae9de85b,37,2022-02-12_12h32.39.999,lexical_decision_task_DD_L2,2021.2.3,Linux x86_64,30.00390051,,,,,,,,,,,0.5424,1,,,,,,,,,,,,,,z,1,0.5424,,,,,,,,0.251659738,-0.252980742,0,0,0,,0,141,141,147,1,ZOLES,C,old,z,./images/ZOLES.png,,,,,,,,,,,,,,,,,,,,,,,,,,,,,,,,,,,
,,,,,,,,,,,,,,,,,54e32a60fdf99b3eae9de85b,37,2022-02-12_12h32.39.999,lexical_decision_task_DD_L2,2021.2.3,Linux x86_64,30.00390051,,,,,,,,,,,0.5376,1,,,,,,,,,,,,,,m,1,0.5376,,,,,,,,0.251659738,-0.252980742,0,0,0,,0,142,142,38,1,LADDER,C,old,m,./images/LADDER.png,,,,,,,,,,,,,,,,,,,,,,,,,,,,,,,,,,,
,,,,,,,,,,,,,,,,,54e32a60fdf99b3eae9de85b,37,2022-02-12_12h32.39.999,lexical_decision_task_DD_L2,2021.2.3,Linux x86_64,30.00390051,,,,,,,,,,,0.5746,1,,,,,,,,,,,,,,z,1,0.5746,,,,,,,,0.251659738,-0.252980742,0,0,0,,0,143,143,122,1,BLOOT,LB,old,z,./images/BLOOTLB.png,,,,,,,,,,,,,,,,,,,,,,,,,,,,,,,,,,,
,,,,,,,,,,,,,,,,,54e32a60fdf99b3eae9de85b,37,2022-02-12_12h32.39.999,lexical_decision_task_DD_L2,2021.2.3,Linux x86_64,30.00390051,,,,,,,,,,,0.5801,1,,,,,,,,,,,,,,z,1,0.5801,,,,,,,,0.251659738,-0.252980742,0,0,0,,0,144,144,97,1,CHIDS,HB,old,z,./images/CHIDSHB.png,,,,,,,,,,,,,,,,,,,,,,,,,,,,,,,,,,,
,,,,,,,,,,,,,,,,,54e32a60fdf99b3eae9de85b,37,2022-02-12_12h32.39.999,lexical_decision_task_DD_L2,2021.2.3,Linux x86_64,30.00390051,,,,,,,,,,,0.495,1,,,,,,,,,,,,,,m,1,0.495,,,,,,,,0.251659738,-0.252980742,0,0,0,,0,145,145,5,1,PASTA,C,old,m,./images/PASTA.png,,,,,,,,,,,,,,,,,,,,,,,,,,,,,,,,,,,
,,,,,,,,,,,,,,,,,54e32a60fdf99b3eae9de85b,37,2022-02-12_12h32.39.999,lexical_decision_task_DD_L2,2021.2.3,Linux x86_64,30.00390051,,,,,,,,,,,0.5365,1,,,,,,,,,,,,,,m,1,0.5365,,,,,,,,0.251659738,-0.252980742,0,0,0,,0,146,146,41,1,STRING,C,old,m,./images/STRING.png,,,,,,,,,,,,,,,,,,,,,,,,,,,,,,,,,,,
,,,,,,,,,,,,,,,,,54e32a60fdf99b3eae9de85b,37,2022-02-12_12h32.39.999,lexical_decision_task_DD_L2,2021.2.3,Linux x86_64,30.00390051,,,,,,,,,,,0.6274,1,,,,,,,,,,,,,,m,1,0.6274,,,,,,,,0.251659738,-0.252980742,0,0,0,,0,147,147,17,1,SKIING,C,old,m,./images/SKIING.png,,,,,,,,,,,,,,,,,,,,,,,,,,,,,,,,,,,
,,,,,,,,,,,,,,,,,54e32a60fdf99b3eae9de85b,37,2022-02-12_12h32.39.999,lexical_decision_task_DD_L2,2021.2.3,Linux x86_64,30.00390051,,,,,,,,,,,0.633,1,,,,,,,,,,,,,,z,1,0.633,,,,,,,,0.251659738,-0.252980742,0,0,0,,0,148,148,163,1,GAMBA,HB,old,z,./images/GAMBAHB.png,,,,,,,,,,,,,,,,,,,,,,,,,,,,,,,,,,,
,,,,,,,,,,,,,,,,,54e32a60fdf99b3eae9de85b,37,2022-02-12_12h32.39.999,lexical_decision_task_DD_L2,2021.2.3,Linux x86_64,30.00390051,,,,,,,,,,,0.5415,1,,,,,,,,,,,,,,m,1,0.5415,,,,,,,,0.251659738,-0.252980742,0,0,0,,0,149,149,46,1,PEARL,LB,old,m,./images/PEARLLB.png,,,,,,,,,,,,,,,,,,,,,,,,,,,,,,,,,,,
,,,,,,,,,,,,,,,,,54e32a60fdf99b3eae9de85b,37,2022-02-12_12h32.39.999,lexical_decision_task_DD_L2,2021.2.3,Linux x86_64,30.00390051,,,,,,,,,,,0.4256,1,,,,,,,,,,,,,,m,1,0.4256,,,,,,,,0.251659738,-0.252980742,0,0,0,,0,150,150,77,1,COUCH,C,old,m,./images/COUCH.png,,,,,,,,,,,,,,,,,,,,,,,,,,,,,,,,,,,
,,,,,,,,,,,,,,,,,54e32a60fdf99b3eae9de85b,37,2022-02-12_12h32.39.999,lexical_decision_task_DD_L2,2021.2.3,Linux x86_64,30.00390051,,,,,,,,,,,0.5598,1,,,,,,,,,,,,,,m,1,0.5598,,,,,,,,0.251659738,-0.252980742,0,0,0,,0,151,151,37,1,BIRTH,LB,old,m,./images/BIRTHLB.png,,,,,,,,,,,,,,,,,,,,,,,,,,,,,,,,,,,
,,,,,,,,,,,,,,,,,54e32a60fdf99b3eae9de85b,37,2022-02-12_12h32.39.999,lexical_decision_task_DD_L2,2021.2.3,Linux x86_64,30.00390051,,,,,,,,,,,0.5292,1,,,,,,,,,,,,,,m,1,0.5292,,,,,,,,0.251659738,-0.252980742,0,0,0,,0,152,152,62,1,PURSE,C,old,m,./images/PURSE.png,,,,,,,,,,,,,,,,,,,,,,,,,,,,,,,,,,,
,,,,,,,,,,,,,,,,,54e32a60fdf99b3eae9de85b,37,2022-02-12_12h32.39.999,lexical_decision_task_DD_L2,2021.2.3,Linux x86_64,30.00390051,,,,,,,,,,,0.4853,1,,,,,,,,,,,,,,m,1,0.4853,,,,,,,,0.251659738,-0.252980742,0,0,0,,0,153,153,72,1,NOOSE,HB,old,m,./images/NOOSEHB.png,,,,,,,,,,,,,,,,,,,,,,,,,,,,,,,,,,,
,,,,,,,,,,,,,,,,,54e32a60fdf99b3eae9de85b,37,2022-02-12_12h32.39.999,lexical_decision_task_DD_L2,2021.2.3,Linux x86_64,30.00390051,,,,,,,,,,,0.5792,1,,,,,,,,,,,,,,m,1,0.5792,,,,,,,,0.251659738,-0.252980742,0,0,0,,0,154,154,63,1,MIRROR,HB,old,m,./images/MIRRORHB.png,,,,,,,,,,,,,,,,,,,,,,,,,,,,,,,,,,,
,,,,,,,,,,,,,,,,,54e32a60fdf99b3eae9de85b,37,2022-02-12_12h32.39.999,lexical_decision_task_DD_L2,2021.2.3,Linux x86_64,30.00390051,,,,,,,,,,,0.599,1,,,,,,,,,,,,,,z,1,0.599,,,,,,,,0.251659738,-0.252980742,0,0,0,,0,155,155,91,1,SHENS,HB,old,z,./images/SHENSHB.png,,,,,,,,,,,,,,,,,,,,,,,,,,,,,,,,,,,
,,,,,,,,,,,,,,,,,54e32a60fdf99b3eae9de85b,37,2022-02-12_12h32.39.999,lexical_decision_task_DD_L2,2021.2.3,Linux x86_64,30.00390051,,,,,,,,,,,0.6194,1,,,,,,,,,,,,,,m,1,0.6194,,,,,,,,0.251659738,-0.252980742,0,0,0,,0,156,156,39,1,SHELF,HB,old,m,./images/SHELFHB.png,,,,,,,,,,,,,,,,,,,,,,,,,,,,,,,,,,,
,,,,,,,,,,,,,,,,,54e32a60fdf99b3eae9de85b,37,2022-02-12_12h32.39.999,lexical_decision_task_DD_L2,2021.2.3,Linux x86_64,30.00390051,,,,,,,,,,,0.7014,1,,,,,,,,,,,,,,z,1,0.7014,,,,,,,,0.251659738,-0.252980742,0,0,0,,0,157,157,105,1,MOKER,C,old,z,./images/MOKER.png,,,,,,,,,,,,,,,,,,,,,,,,,,,,,,,,,,,
,,,,,,,,,,,,,,,,,54e32a60fdf99b3eae9de85b,37,2022-02-12_12h32.39.999,lexical_decision_task_DD_L2,2021.2.3,Linux x86_64,30.00390051,,,,,,,,,,,0.6367,1,,,,,,,,,,,,,,z,1,0.6367,,,,,,,,0.251659738,-0.252980742,0,0,0,,0,158,158,154,1,THINT,HB,old,z,./images/THINTHB.png,,,,,,,,,,,,,,,,,,,,,,,,,,,,,,,,,,,
,,,,,,,,,,,,,,,,,54e32a60fdf99b3eae9de85b,37,2022-02-12_12h32.39.999,lexical_decision_task_DD_L2,2021.2.3,Linux x86_64,30.00390051,,,,,,,,,,,0.6201,1,,,,,,,,,,,,,,z,1,0.6201,,,,,,,,0.251659738,-0.252980742,0,0,0,,0,159,159,102,1,DULLE,C,old,z,./images/DULLE.png,,,,,,,,,,,,,,,,,,,,,,,,,,,,,,,,,,,
,,,,,,,,,,,,,,,,,54e32a60fdf99b3eae9de85b,37,2022-02-12_12h32.39.999,lexical_decision_task_DD_L2,2021.2.3,Linux x86_64,30.00390051,,,,,,,,,,,0.5987,1,,,,,,,,,,,,,,m,1,0.5987,,,,,,,,0.251659738,-0.252980742,0,0,0,,0,160,160,31,1,QUILL,LB,old,m,./images/QUILLLB.png,,,,,,,,,,,,,,,,,,,,,,,,,,,,,,,,,,,
,,,,,,,,,,,,,,,,,54e32a60fdf99b3eae9de85b,37,2022-02-12_12h32.39.999,lexical_decision_task_DD_L2,2021.2.3,Linux x86_64,30.00390051,,,,,,,,,,,0.761,1,,,,,,,,,,,,,,z,1,0.761,,,,,,,,0.251659738,-0.252980742,0,0,0,,0,161,161,104,1,GITTY,LB,old,z,./images/GITTYLB.png,,,,,,,,,,,,,,,,,,,,,,,,,,,,,,,,,,,
,,,,,,,,,,,,,,,,,54e32a60fdf99b3eae9de85b,37,2022-02-12_12h32.39.999,lexical_decision_task_DD_L2,2021.2.3,Linux x86_64,30.00390051,,,,,,,,,,,0.6231,0,,,,,,,,,,,,,,z,0,0.6231,,,,,,,,0.251659738,-0.252980742,0,0,0,,0,162,162,33,1,MAGGOT,HB,old,m,./images/MAGGOTHB.png,,,,,,,,,,,,,,,,,,,,,,,,,,,,,,,,,,,
,,,,,,,,,,,,,,,,,54e32a60fdf99b3eae9de85b,37,2022-02-12_12h32.39.999,lexical_decision_task_DD_L2,2021.2.3,Linux x86_64,30.00390051,,,,,,,,,,,0.6113,1,,,,,,,,,,,,,,z,1,0.6113,,,,,,,,0.251659738,-0.252980742,0,0,0,,0,163,163,129,1,PRANS,C,old,z,./images/PRANS.png,,,,,,,,,,,,,,,,,,,,,,,,,,,,,,,,,,,
,,,,,,,,,,,,,,,,,54e32a60fdf99b3eae9de85b,37,2022-02-12_12h32.39.999,lexical_decision_task_DD_L2,2021.2.3,Linux x86_64,30.00390051,,,,,,,,,,,0.6049,1,,,,,,,,,,,,,,m,1,0.6049,,,,,,,,0.251659738,-0.252980742,0,0,0,,0,164,164,49,1,DRUMS,LB,old,m,./images/DRUMSLB.png,,,,,,,,,,,,,,,,,,,,,,,,,,,,,,,,,,,
,,,,,,,,,,,,,,,,,54e32a60fdf99b3eae9de85b,37,2022-02-12_12h32.39.999,lexical_decision_task_DD_L2,2021.2.3,Linux x86_64,30.00390051,,,,,,,,,,,0.5596,1,,,,,,,,,,,,,,m,1,0.5596,,,,,,,,0.251659738,-0.252980742,0,0,0,,0,165,165,36,1,THROAT,HB,old,m,./images/THROATHB.png,,,,,,,,,,,,,,,,,,,,,,,,,,,,,,,,,,,
,,,,,,,,,,,,,,,,,54e32a60fdf99b3eae9de85b,37,2022-02-12_12h32.39.999,lexical_decision_task_DD_L2,2021.2.3,Linux x86_64,30.00390051,,,,,,,,,,,0.6311,1,,,,,,,,,,,,,,z,1,0.6311,,,,,,,,0.251659738,-0.252980742,0,0,0,,0,166,166,111,1,HOSSE,C,old,z,./images/HOSSE.png,,,,,,,,,,,,,,,,,,,,,,,,,,,,,,,,,,,
,,,,,,,,,,,,,,,,,54e32a60fdf99b3eae9de85b,37,2022-02-12_12h32.39.999,lexical_decision_task_DD_L2,2021.2.3,Linux x86_64,30.00390051,,,,,,,,,,,0.6549,1,,,,,,,,,,,,,,m,1,0.6549,,,,,,,,0.251659738,-0.252980742,0,0,0,,0,167,167,30,1,STORM,HB,old,m,./images/STORMHB.png,,,,,,,,,,,,,,,,,,,,,,,,,,,,,,,,,,,
,,,,,,,,,,,,,,,,,54e32a60fdf99b3eae9de85b,37,2022-02-12_12h32.39.999,lexical_decision_task_DD_L2,2021.2.3,Linux x86_64,30.00390051,,,,,,,,,,,,,,,,,,,,,,,,,,,,,,,,,,,,,,,,,,,,,,,,How likely will it be that you will recognize the words presented clearly on a scale of 0 (not likely) to 100 (most likely)?,,,,,-0.018995697,-0.426073794,1,0,0,jol_adv,6,10.2891,0,0,0,0,1,,,,,,,,,,,,,,,,,,,,,
,,,,,,,,,,,,,,,,,54e32a60fdf99b3eae9de85b,37,2022-02-12_12h32.39.999,lexical_decision_task_DD_L2,2021.2.3,Linux x86_64,30.00390051,,,,,,,,,,,,,,,,,,,,,,,,,,,,,,,,,,,,,,,,,,,,,,,,How likely will it be that you will recognize the words presented slighly blurred on a scale of 0 (not likely) to 100 (most likely)?,,,,,,,,,,,6,3.5542,0,1,1,1,1,,,,,,,,,,,,,,,,,,,,,
,,,,,,,,,,,,,,,,,54e32a60fdf99b3eae9de85b,37,2022-02-12_12h32.39.999,lexical_decision_task_DD_L2,2021.2.3,Linux x86_64,30.00390051,,,,,,,,,,,,,,,,,,,,,,,,,,,,,,,,,,,,,,,,,,,,,,,,How likely will it be that you will recognize the words presented very blurred on a scale of 0 (not likely) to 100 (most likely)?,,,,,,,,,,,3,2.6878,0,2,2,2,1,,,,,,,,,,,,,,,,,,,,,
space,27.8383,-0.100818865,-0.20184543,0,0,0,,,,,,1,test,"In the next phase you will be presented with the words from the the first phase. Your job is to decide whether you remember seeing the word or not. If you remember seeing the word press ""old"" or type ""m"". If you do not remember seeing the word press ""new"" or type ""z"". Please press the space bar or click on continue to begin. ",,,54e32a60fdf99b3eae9de85b,37,2022-02-12_12h32.39.999,lexical_decision_task_DD_L2,2021.2.3,Linux x86_64,30.00390051,,,,,,,,,,,,,,,,,,,,,,,,,,,,,,,,,,,,,,,,,,,,,,,,,,,,,,,,,,,,,,,,,,0,0,0,0,1,,,,,,,,,,,,,,,,
space,1.9582,-0.100818865,-0.20184543,0,0,0,,,,,,1,test,"In the next phase you will be presented with the words from the the first phase. Your job is to decide whether you remember seeing the word or not. If you remember seeing the word press ""old"" or type ""m"". If you do not remember seeing the word press ""new"" or type ""z"". Please press the space bar or click on continue to begin. ",,,54e32a60fdf99b3eae9de85b,37,2022-02-12_12h32.39.999,lexical_decision_task_DD_L2,2021.2.3,Linux x86_64,30.00390051,,,,,,,,,,,,,,,,,,,,,,,,,,,,,,,,,,,,,,,,,,,,,,,,,,,,,,,,,,,,,,,,,,1,0,1,0,1,,,,,,,,,,,,,,,,
,,0.033371451,-0.421172332,1,0,0,,,,,,1,test,"In the next phase you will be presented with the words from the the first phase. Your job is to decide whether you remember seeing the word or not. If you remember seeing the word press ""old"" or type ""m"". If you do not remember seeing the word press ""new"" or type ""z"". Please press the space bar or click on continue to begin. ",,,54e32a60fdf99b3eae9de85b,37,2022-02-12_12h32.39.999,lexical_decision_task_DD_L2,2021.2.3,Linux x86_64,30.00390051,,,,,,,,,,,,,,,,,,,,,,,,,,,,,,,,,,,,,,,,,,,,,,,,,,,,,,,,,,,,,,,,,,2,0,2,0,1,instr_done_button,,,,,,,,,,,,,,,
,,0.02976806,-0.404156521,1,0,0,,,,,,1,test,"In the next phase you will be presented with the words from the the first phase. Your job is to decide whether you remember seeing the word or not. If you remember seeing the word press ""old"" or type ""m"". If you do not remember seeing the word press ""new"" or type ""z"". Please press the space bar or click on continue to begin. ",,,54e32a60fdf99b3eae9de85b,37,2022-02-12_12h32.39.999,lexical_decision_task_DD_L2,2021.2.3,Linux x86_64,30.00390051,,,,,,,,,,,,,,,,,,,,,,,,,,,,,,,,,,,,,,,,,,,,,,,,,,,,,,,,,,,,,,,,,,3,0,3,0,1,instr_done_button,,,,,,,,,,,,,,,
space,0.5164,0.02976806,-0.404156521,0,0,0,,,,,,1,test,"In the next phase you will be presented with the words from the the first phase. Your job is to decide whether you remember seeing the word or not. If you remember seeing the word press ""old"" or type ""m"". If you do not remember seeing the word press ""new"" or type ""z"". Please press the space bar or click on continue to begin. ",,,54e32a60fdf99b3eae9de85b,37,2022-02-12_12h32.39.999,lexical_decision_task_DD_L2,2021.2.3,Linux x86_64,30.00390051,,,,,,,,,,,,,,,,,,,,,,,,,,,,,,,,,,,,,,,,,,,,,,,,,,,,,,,,,,,,,,,,,,4,0,4,0,1,,,,,,,,,,,,,,,,
,,,,,,,,,,,,,,,,,54e32a60fdf99b3eae9de85b,37,2022-02-12_12h32.39.999,lexical_decision_task_DD_L2,2021.2.3,Linux x86_64,30.00390051,,,,,,,,,,,1.1576,1,,,,,,,,,,,,,,,,,,,,,,,,0.02976806,-0.404156521,0,0,0,,,,,,,POODLE,HB,m,y,./images/POODLEHB.png,,,,,,,,,,,,,,,,,,,,,m,1,1.1576,,,,,,,,0,0,0,81,1
,,,,,,,,,,,,,,,,,54e32a60fdf99b3eae9de85b,37,2022-02-12_12h32.39.999,lexical_decision_task_DD_L2,2021.2.3,Linux x86_64,30.00390051,,,,,,,,,,,0.7272,1,,,,,,,,,,,,,,,,,,,,,,,,0.02976806,-0.404156521,0,0,0,,,,,,,PENCE,LB,m,y,./images/PENCELB.png,,,,,,,,,,,,,,,,,,,,,m,1,0.7272,,,,,,,,0,1,1,16,1
,,,,,,,,,,,,,,,,,54e32a60fdf99b3eae9de85b,37,2022-02-12_12h32.39.999,lexical_decision_task_DD_L2,2021.2.3,Linux x86_64,30.00390051,,,,,,,,,,,0.6049,1,,,,,,,,,,,,,,,,,,,,,,,,0.02976806,-0.404156521,0,0,0,,,,,,,GREASE,HB,m,y,./images/GREASEHB.png,,,,,,,,,,,,,,,,,,,,,m,1,0.6049,,,,,,,,0,2,2,15,1
,,,,,,,,,,,,,,,,,54e32a60fdf99b3eae9de85b,37,2022-02-12_12h32.39.999,lexical_decision_task_DD_L2,2021.2.3,Linux x86_64,30.00390051,,,,,,,,,,,0.6765,1,,,,,,,,,,,,,,,,,,,,,,,,0.02976806,-0.404156521,0,0,0,,,,,,,ATTIC,HB,m,y,./images/ATTICHB.png,,,,,,,,,,,,,,,,,,,,,m,1,0.6765,,,,,,,,0,3,3,27,1
,,,,,,,,,,,,,,,,,54e32a60fdf99b3eae9de85b,37,2022-02-12_12h32.39.999,lexical_decision_task_DD_L2,2021.2.3,Linux x86_64,30.00390051,,,,,,,,,,,0.5401,1,,,,,,,,,,,,,,,,,,,,,,,,0.02976806,-0.404156521,0,0,0,,,,,,,TOMATO,HB,m,y,./images/TOMATOHB.png,,,,,,,,,,,,,,,,,,,,,m,1,0.5401,,,,,,,,0,4,4,0,1
,,,,,,,,,,,,,,,,,54e32a60fdf99b3eae9de85b,37,2022-02-12_12h32.39.999,lexical_decision_task_DD_L2,2021.2.3,Linux x86_64,30.00390051,,,,,,,,,,,0.6438,1,,,,,,,,,,,,,,,,,,,,,,,,0.02976806,-0.404156521,0,0,0,,,,,,,BABOON,LB,m,y,./images/BABOONLB.png,,,,,,,,,,,,,,,,,,,,,m,1,0.6438,,,,,,,,0,5,5,58,1
,,,,,,,,,,,,,,,,,54e32a60fdf99b3eae9de85b,37,2022-02-12_12h32.39.999,lexical_decision_task_DD_L2,2021.2.3,Linux x86_64,30.00390051,,,,,,,,,,,0.8823,0,,,,,,,,,,,,,,,,,,,,,,,,0.02976806,-0.404156521,0,0,0,,,,,,,CANOE,LB,z,y,./images/CANOELB.png,,,,,,,,,,,,,,,,,,,,,m,0,0.8823,,,,,,,,0,6,6,142,1
,,,,,,,,,,,,,,,,,54e32a60fdf99b3eae9de85b,37,2022-02-12_12h32.39.999,lexical_decision_task_DD_L2,2021.2.3,Linux x86_64,30.00390051,,,,,,,,,,,0.5552,0,,,,,,,,,,,,,,,,,,,,,,,,0.02976806,-0.404156521,0,0,0,,,,,,,CASINO,LB,z,y,./images/CASINOLB.png,,,,,,,,,,,,,,,,,,,,,m,0,0.5552,,,,,,,,0,7,7,112,1
,,,,,,,,,,,,,,,,,54e32a60fdf99b3eae9de85b,37,2022-02-12_12h32.39.999,lexical_decision_task_DD_L2,2021.2.3,Linux x86_64,30.00390051,,,,,,,,,,,0.5881,1,,,,,,,,,,,,,,,,,,,,,,,,0.02976806,-0.404156521,0,0,0,,,,,,,PEACH,C,m,y,./images/PEACH.png,,,,,,,,,,,,,,,,,,,,,m,1,0.5881,,,,,,,,0,8,8,35,1
,,,,,,,,,,,,,,,,,54e32a60fdf99b3eae9de85b,37,2022-02-12_12h32.39.999,lexical_decision_task_DD_L2,2021.2.3,Linux x86_64,30.00390051,,,,,,,,,,,0.5863,0,,,,,,,,,,,,,,,,,,,,,,,,0.02976806,-0.404156521,0,0,0,,,,,,,WAGON,LB,z,y,./images/WAGONLB.png,,,,,,,,,,,,,,,,,,,,,m,0,0.5863,,,,,,,,0,9,9,91,1
,,,,,,,,,,,,,,,,,54e32a60fdf99b3eae9de85b,37,2022-02-12_12h32.39.999,lexical_decision_task_DD_L2,2021.2.3,Linux x86_64,30.00390051,,,,,,,,,,,0.6349,1,,,,,,,,,,,,,,,,,,,,,,,,0.02976806,-0.404156521,0,0,0,,,,,,,PICKLE,C,m,y,./images/PICKLE.png,,,,,,,,,,,,,,,,,,,,,m,1,0.6349,,,,,,,,0,10,10,14,1
,,,,,,,,,,,,,,,,,54e32a60fdf99b3eae9de85b,37,2022-02-12_12h32.39.999,lexical_decision_task_DD_L2,2021.2.3,Linux x86_64,30.00390051,,,,,,,,,,,0.5762,1,,,,,,,,,,,,,,,,,,,,,,,,0.02976806,-0.404156521,0,0,0,,,,,,,SAUNA,HB,z,y,./images/SAUNAHB.png,,,,,,,,,,,,,,,,,,,,,z,1,0.5762,,,,,,,,0,11,11,117,1
,,,,,,,,,,,,,,,,,54e32a60fdf99b3eae9de85b,37,2022-02-12_12h32.39.999,lexical_decision_task_DD_L2,2021.2.3,Linux x86_64,30.00390051,,,,,,,,,,,0.6447,1,,,,,,,,,,,,,,,,,,,,,,,,0.02976806,-0.404156521,0,0,0,,,,,,,ARTIST,LB,z,y,./images/ARTISTLB.png,,,,,,,,,,,,,,,,,,,,,z,1,0.6447,,,,,,,,0,12,12,145,1
,,,,,,,,,,,,,,,,,54e32a60fdf99b3eae9de85b,37,2022-02-12_12h32.39.999,lexical_decision_task_DD_L2,2021.2.3,Linux x86_64,30.00390051,,,,,,,,,,,0.718,1,,,,,,,,,,,,,,,,,,,,,,,,0.02976806,-0.404156521,0,0,0,,,,,,,SWING,LB,m,y,./images/SWINGLB.png,,,,,,,,,,,,,,,,,,,,,m,1,0.718,,,,,,,,0,13,13,40,1
,,,,,,,,,,,,,,,,,54e32a60fdf99b3eae9de85b,37,2022-02-12_12h32.39.999,lexical_decision_task_DD_L2,2021.2.3,Linux x86_64,30.00390051,,,,,,,,,,,0.6513,1,,,,,,,,,,,,,,,,,,,,,,,,0.02976806,-0.404156521,0,0,0,,,,,,,JELLY,LB,m,y,./images/JELLYLB.png,,,,,,,,,,,,,,,,,,,,,m,1,0.6513,,,,,,,,0,14,14,64,1
,,,,,,,,,,,,,,,,,54e32a60fdf99b3eae9de85b,37,2022-02-12_12h32.39.999,lexical_decision_task_DD_L2,2021.2.3,Linux x86_64,30.00390051,,,,,,,,,,,0.6217,0,,,,,,,,,,,,,,,,,,,,,,,,0.02976806,-0.404156521,0,0,0,,,,,,,GLOVE,LB,z,y,./images/GLOVELB.png,,,,,,,,,,,,,,,,,,,,,m,0,0.6217,,,,,,,,0,15,15,157,1
,,,,,,,,,,,,,,,,,54e32a60fdf99b3eae9de85b,37,2022-02-12_12h32.39.999,lexical_decision_task_DD_L2,2021.2.3,Linux x86_64,30.00390051,,,,,,,,,,,0.536,1,,,,,,,,,,,,,,,,,,,,,,,,0.02976806,-0.404156521,0,0,0,,,,,,,NOOSE,HB,m,y,./images/NOOSEHB.png,,,,,,,,,,,,,,,,,,,,,m,1,0.536,,,,,,,,0,16,16,72,1
,,,,,,,,,,,,,,,,,54e32a60fdf99b3eae9de85b,37,2022-02-12_12h32.39.999,lexical_decision_task_DD_L2,2021.2.3,Linux x86_64,30.00390051,,,,,,,,,,,0.6662,1,,,,,,,,,,,,,,,,,,,,,,,,0.02976806,-0.404156521,0,0,0,,,,,,,WALRUS,C,m,y,./images/WALRUS.png,,,,,,,,,,,,,,,,,,,,,m,1,0.6662,,,,,,,,0,17,17,23,1
,,,,,,,,,,,,,,,,,54e32a60fdf99b3eae9de85b,37,2022-02-12_12h32.39.999,lexical_decision_task_DD_L2,2021.2.3,Linux x86_64,30.00390051,,,,,,,,,,,0.7115,1,,,,,,,,,,,,,,,,,,,,,,,,0.02976806,-0.404156521,0,0,0,,,,,,,PEBBLE,LB,z,y,./images/PEBBLELB.png,,,,,,,,,,,,,,,,,,,,,z,1,0.7115,,,,,,,,0,18,18,166,1
,,,,,,,,,,,,,,,,,54e32a60fdf99b3eae9de85b,37,2022-02-12_12h32.39.999,lexical_decision_task_DD_L2,2021.2.3,Linux x86_64,30.00390051,,,,,,,,,,,0.5963,1,,,,,,,,,,,,,,,,,,,,,,,,0.02976806,-0.404156521,0,0,0,,,,,,,DRUMS,LB,m,y,./images/DRUMSLB.png,,,,,,,,,,,,,,,,,,,,,m,1,0.5963,,,,,,,,0,19,19,49,1
,,,,,,,,,,,,,,,,,54e32a60fdf99b3eae9de85b,37,2022-02-12_12h32.39.999,lexical_decision_task_DD_L2,2021.2.3,Linux x86_64,30.00390051,,,,,,,,,,,0.6696,0,,,,,,,,,,,,,,,,,,,,,,,,0.02976806,-0.404156521,0,0,0,,,,,,,CANDLE,LB,m,y,./images/CANDLELB.png,,,,,,,,,,,,,,,,,,,,,z,0,0.6696,,,,,,,,0,20,20,61,1
,,,,,,,,,,,,,,,,,54e32a60fdf99b3eae9de85b,37,2022-02-12_12h32.39.999,lexical_decision_task_DD_L2,2021.2.3,Linux x86_64,30.00390051,,,,,,,,,,,0.5368,1,,,,,,,,,,,,,,,,,,,,,,,,0.02976806,-0.404156521,0,0,0,,,,,,,QUILL,LB,m,y,./images/QUILLLB.png,,,,,,,,,,,,,,,,,,,,,m,1,0.5368,,,,,,,,0,21,21,31,1
,,,,,,,,,,,,,,,,,54e32a60fdf99b3eae9de85b,37,2022-02-12_12h32.39.999,lexical_decision_task_DD_L2,2021.2.3,Linux x86_64,30.00390051,,,,,,,,,,,0.6327,1,,,,,,,,,,,,,,,,,,,,,,,,0.02976806,-0.404156521,0,0,0,,,,,,,JUMPER,C,z,y,./images/JUMPER.png,,,,,,,,,,,,,,,,,,,,,z,1,0.6327,,,,,,,,0,22,22,158,1
,,,,,,,,,,,,,,,,,54e32a60fdf99b3eae9de85b,37,2022-02-12_12h32.39.999,lexical_decision_task_DD_L2,2021.2.3,Linux x86_64,30.00390051,,,,,,,,,,,0.6939,0,,,,,,,,,,,,,,,,,,,,,,,,0.02976806,-0.404156521,0,0,0,,,,,,,FLASK,HB,z,y,./images/FLASKHB.png,,,,,,,,,,,,,,,,,,,,,m,0,0.6939,,,,,,,,0,23,23,156,1
,,,,,,,,,,,,,,,,,54e32a60fdf99b3eae9de85b,37,2022-02-12_12h32.39.999,lexical_decision_task_DD_L2,2021.2.3,Linux x86_64,30.00390051,,,,,,,,,,,0.686,1,,,,,,,,,,,,,,,,,,,,,,,,0.02976806,-0.404156521,0,0,0,,,,,,,LITTER,HB,m,y,./images/LITTERHB.png,,,,,,,,,,,,,,,,,,,,,m,1,0.686,,,,,,,,0,24,24,78,1
,,,,,,,,,,,,,,,,,54e32a60fdf99b3eae9de85b,37,2022-02-12_12h32.39.999,lexical_decision_task_DD_L2,2021.2.3,Linux x86_64,30.00390051,,,,,,,,,,,0.5948,0,,,,,,,,,,,,,,,,,,,,,,,,0.02976806,-0.404156521,0,0,0,,,,,,,BUNNY,LB,z,y,./images/BUNNYLB.png,,,,,,,,,,,,,,,,,,,,,m,0,0.5948,,,,,,,,0,25,25,97,1
,,,,,,,,,,,,,,,,,54e32a60fdf99b3eae9de85b,37,2022-02-12_12h32.39.999,lexical_decision_task_DD_L2,2021.2.3,Linux x86_64,30.00390051,,,,,,,,,,,0.5343,1,,,,,,,,,,,,,,,,,,,,,,,,0.02976806,-0.404156521,0,0,0,,,,,,,STRING,C,m,y,./images/STRING.png,,,,,,,,,,,,,,,,,,,,,m,1,0.5343,,,,,,,,0,26,26,41,1
,,,,,,,,,,,,,,,,,54e32a60fdf99b3eae9de85b,37,2022-02-12_12h32.39.999,lexical_decision_task_DD_L2,2021.2.3,Linux x86_64,30.00390051,,,,,,,,,,,0.537,1,,,,,,,,,,,,,,,,,,,,,,,,0.02976806,-0.404156521,0,0,0,,,,,,,CANYON,LB,m,y,./images/CANYONLB.png,,,,,,,,,,,,,,,,,,,,,m,1,0.537,,,,,,,,0,27,27,34,1
,,,,,,,,,,,,,,,,,54e32a60fdf99b3eae9de85b,37,2022-02-12_12h32.39.999,lexical_decision_task_DD_L2,2021.2.3,Linux x86_64,30.00390051,,,,,,,,,,,0.5434,0,,,,,,,,,,,,,,,,,,,,,,,,0.02976806,-0.404156521,0,0,0,,,,,,,BUBBLE,C,z,y,./images/BUBBLE.png,,,,,,,,,,,,,,,,,,,,,m,0,0.5434,,,,,,,,0,28,28,155,1
,,,,,,,,,,,,,,,,,54e32a60fdf99b3eae9de85b,37,2022-02-12_12h32.39.999,lexical_decision_task_DD_L2,2021.2.3,Linux x86_64,30.00390051,,,,,,,,,,,0.5992,0,,,,,,,,,,,,,,,,,,,,,,,,0.02976806,-0.404156521,0,0,0,,,,,,,DONKEY,LB,z,y,./images/DONKEYLB.png,,,,,,,,,,,,,,,,,,,,,m,0,0.5992,,,,,,,,0,29,29,103,1
,,,,,,,,,,,,,,,,,54e32a60fdf99b3eae9de85b,37,2022-02-12_12h32.39.999,lexical_decision_task_DD_L2,2021.2.3,Linux x86_64,30.00390051,,,,,,,,,,,0.5698,0,,,,,,,,,,,,,,,,,,,,,,,,0.02976806,-0.404156521,0,0,0,,,,,,,WHISKY,C,z,y,./images/WHISKY.png,,,,,,,,,,,,,,,,,,,,,m,0,0.5698,,,,,,,,0,30,30,167,1
,,,,,,,,,,,,,,,,,54e32a60fdf99b3eae9de85b,37,2022-02-12_12h32.39.999,lexical_decision_task_DD_L2,2021.2.3,Linux x86_64,30.00390051,,,,,,,,,,,0.5465,1,,,,,,,,,,,,,,,,,,,,,,,,0.02976806,-0.404156521,0,0,0,,,,,,,BANNER,LB,m,y,./images/BANNERLB.png,,,,,,,,,,,,,,,,,,,,,m,1,0.5465,,,,,,,,0,31,31,52,1
,,,,,,,,,,,,,,,,,54e32a60fdf99b3eae9de85b,37,2022-02-12_12h32.39.999,lexical_decision_task_DD_L2,2021.2.3,Linux x86_64,30.00390051,,,,,,,,,,,0.7644,0,,,,,,,,,,,,,,,,,,,,,,,,0.02976806,-0.404156521,0,0,0,,,,,,,TWINS,HB,m,y,./images/TWINSHB.png,,,,,,,,,,,,,,,,,,,,,z,0,0.7644,,,,,,,,0,32,32,60,1
,,,,,,,,,,,,,,,,,54e32a60fdf99b3eae9de85b,37,2022-02-12_12h32.39.999,lexical_decision_task_DD_L2,2021.2.3,Linux x86_64,30.00390051,,,,,,,,,,,0.5565,0,,,,,,,,,,,,,,,,,,,,,,,,0.02976806,-0.404156521,0,0,0,,,,,,,COLLAR,HB,z,y,./images/COLLARHB.png,,,,,,,,,,,,,,,,,,,,,m,0,0.5565,,,,,,,,0,33,33,99,1
,,,,,,,,,,,,,,,,,54e32a60fdf99b3eae9de85b,37,2022-02-12_12h32.39.999,lexical_decision_task_DD_L2,2021.2.3,Linux x86_64,30.00390051,,,,,,,,,,,0.6002,1,,,,,,,,,,,,,,,,,,,,,,,,0.02976806,-0.404156521,0,0,0,,,,,,,BELLY,LB,m,y,./images/BELLYLB.png,,,,,,,,,,,,,,,,,,,,,m,1,0.6002,,,,,,,,0,34,34,10,1
,,,,,,,,,,,,,,,,,54e32a60fdf99b3eae9de85b,37,2022-02-12_12h32.39.999,lexical_decision_task_DD_L2,2021.2.3,Linux x86_64,30.00390051,,,,,,,,,,,0.5745,1,,,,,,,,,,,,,,,,,,,,,,,,0.02976806,-0.404156521,0,0,0,,,,,,,FALCON,LB,m,y,./images/FALCONLB.png,,,,,,,,,,,,,,,,,,,,,m,1,0.5745,,,,,,,,0,35,35,28,1
,,,,,,,,,,,,,,,,,54e32a60fdf99b3eae9de85b,37,2022-02-12_12h32.39.999,lexical_decision_task_DD_L2,2021.2.3,Linux x86_64,30.00390051,,,,,,,,,,,0.7258,1,,,,,,,,,,,,,,,,,,,,,,,,0.02976806,-0.404156521,0,0,0,,,,,,,STOOL,LB,z,y,./images/STOOLLB.png,,,,,,,,,,,,,,,,,,,,,z,1,0.7258,,,,,,,,0,36,36,127,1
,,,,,,,,,,,,,,,,,54e32a60fdf99b3eae9de85b,37,2022-02-12_12h32.39.999,lexical_decision_task_DD_L2,2021.2.3,Linux x86_64,30.00390051,,,,,,,,,,,0.6663,1,,,,,,,,,,,,,,,,,,,,,,,,0.02976806,-0.404156521,0,0,0,,,,,,,BOXER,LB,z,y,./images/BOXERLB.png,,,,,,,,,,,,,,,,,,,,,z,1,0.6663,,,,,,,,0,37,37,88,1
,,,,,,,,,,,,,,,,,54e32a60fdf99b3eae9de85b,37,2022-02-12_12h32.39.999,lexical_decision_task_DD_L2,2021.2.3,Linux x86_64,30.00390051,,,,,,,,,,,0.6713,1,,,,,,,,,,,,,,,,,,,,,,,,0.02976806,-0.404156521,0,0,0,,,,,,,SAUCE,HB,z,y,./images/SAUCEHB.png,,,,,,,,,,,,,,,,,,,,,z,1,0.6713,,,,,,,,0,38,38,135,1
,,,,,,,,,,,,,,,,,54e32a60fdf99b3eae9de85b,37,2022-02-12_12h32.39.999,lexical_decision_task_DD_L2,2021.2.3,Linux x86_64,30.00390051,,,,,,,,,,,0.5562,0,,,,,,,,,,,,,,,,,,,,,,,,0.02976806,-0.404156521,0,0,0,,,,,,,CLOTH,C,z,y,./images/CLOTH.png,,,,,,,,,,,,,,,,,,,,,m,0,0.5562,,,,,,,,0,39,39,107,1
,,,,,,,,,,,,,,,,,54e32a60fdf99b3eae9de85b,37,2022-02-12_12h32.39.999,lexical_decision_task_DD_L2,2021.2.3,Linux x86_64,30.00390051,,,,,,,,,,,0.7307,0,,,,,,,,,,,,,,,,,,,,,,,,0.02976806,-0.404156521,0,0,0,,,,,,,PARCEL,HB,z,y,./images/PARCELHB.png,,,,,,,,,,,,,,,,,,,,,m,0,0.7307,,,,,,,,0,40,40,102,1
,,,,,,,,,,,,,,,,,54e32a60fdf99b3eae9de85b,37,2022-02-12_12h32.39.999,lexical_decision_task_DD_L2,2021.2.3,Linux x86_64,30.00390051,,,,,,,,,,,0.6173,1,,,,,,,,,,,,,,,,,,,,,,,,0.02976806,-0.404156521,0,0,0,space,,,,,,PIMPLE,C,m,y,./images/PIMPLE.png,72.9372,,,,,,,,,,,,,,,,,,,,m,1,0.6173,,,,,,,,0,41,41,71,1
,,,,,,,,,,,,,,,,,54e32a60fdf99b3eae9de85b,37,2022-02-12_12h32.39.999,lexical_decision_task_DD_L2,2021.2.3,Linux x86_64,30.00390051,,,,,,,,,,,0.9183,1,,,,,,,,,,,,,,,,,,,,,,,,0.02976806,-0.404156521,0,0,0,,,,,,,BUTTER,HB,z,y,./images/BUTTERHB.png,,,,,,,,,,,,,,,,,,,,,z,1,0.9183,,,,,,,,0,42,42,111,1
,,,,,,,,,,,,,,,,,54e32a60fdf99b3eae9de85b,37,2022-02-12_12h32.39.999,lexical_decision_task_DD_L2,2021.2.3,Linux x86_64,30.00390051,,,,,,,,,,,0.6289,0,,,,,,,,,,,,,,,,,,,,,,,,0.02976806,-0.404156521,0,0,0,,,,,,,MONKEY,HB,z,y,./images/MONKEYHB.png,,,,,,,,,,,,,,,,,,,,,m,0,0.6289,,,,,,,,0,43,43,129,1
,,,,,,,,,,,,,,,,,54e32a60fdf99b3eae9de85b,37,2022-02-12_12h32.39.999,lexical_decision_task_DD_L2,2021.2.3,Linux x86_64,30.00390051,,,,,,,,,,,0.6107,1,,,,,,,,,,,,,,,,,,,,,,,,0.02976806,-0.404156521,0,0,0,,,,,,,TORCH,C,m,y,./images/TORCH.png,,,,,,,,,,,,,,,,,,,,,m,1,0.6107,,,,,,,,0,44,44,68,1
,,,,,,,,,,,,,,,,,54e32a60fdf99b3eae9de85b,37,2022-02-12_12h32.39.999,lexical_decision_task_DD_L2,2021.2.3,Linux x86_64,30.00390051,,,,,,,,,,,0.7099,1,,,,,,,,,,,,,,,,,,,,,,,,0.02976806,-0.404156521,0,0,0,,,,,,,PURSE,C,m,y,./images/PURSE.png,,,,,,,,,,,,,,,,,,,,,m,1,0.7099,,,,,,,,0,45,45,62,1
,,,,,,,,,,,,,,,,,54e32a60fdf99b3eae9de85b,37,2022-02-12_12h32.39.999,lexical_decision_task_DD_L2,2021.2.3,Linux x86_64,30.00390051,,,,,,,,,,,0.7247,0,,,,,,,,,,,,,,,,,,,,,,,,0.02976806,-0.404156521,0,0,0,,,,,,,PILOT,C,z,y,./images/PILOT.png,,,,,,,,,,,,,,,,,,,,,m,0,0.7247,,,,,,,,0,46,46,134,1
,,,,,,,,,,,,,,,,,54e32a60fdf99b3eae9de85b,37,2022-02-12_12h32.39.999,lexical_decision_task_DD_L2,2021.2.3,Linux x86_64,30.00390051,,,,,,,,,,,0.6477,1,,,,,,,,,,,,,,,,,,,,,,,,0.02976806,-0.404156521,0,0,0,,,,,,,SPINE,C,z,y,./images/SPINE.png,,,,,,,,,,,,,,,,,,,,,z,1,0.6477,,,,,,,,0,47,47,149,1
,,,,,,,,,,,,,,,,,54e32a60fdf99b3eae9de85b,37,2022-02-12_12h32.39.999,lexical_decision_task_DD_L2,2021.2.3,Linux x86_64,30.00390051,,,,,,,,,,,0.6885,0,,,,,,,,,,,,,,,,,,,,,,,,0.02976806,-0.404156521,0,0,0,,,,,,,WALNUT,HB,z,y,./images/WALNUTHB.png,,,,,,,,,,,,,,,,,,,,,m,0,0.6885,,,,,,,,0,48,48,84,1
,,,,,,,,,,,,,,,,,54e32a60fdf99b3eae9de85b,37,2022-02-12_12h32.39.999,lexical_decision_task_DD_L2,2021.2.3,Linux x86_64,30.00390051,,,,,,,,,,,0.6558,0,,,,,,,,,,,,,,,,,,,,,,,,0.02976806,-0.404156521,0,0,0,,,,,,,FERRY,HB,z,y,./images/FERRYHB.png,,,,,,,,,,,,,,,,,,,,,m,0,0.6558,,,,,,,,0,49,49,141,1
,,,,,,,,,,,,,,,,,54e32a60fdf99b3eae9de85b,37,2022-02-12_12h32.39.999,lexical_decision_task_DD_L2,2021.2.3,Linux x86_64,30.00390051,,,,,,,,,,,1.5561,1,,,,,,,,,,,,,,,,,,,,,,,,0.02976806,-0.404156521,0,0,0,,,,,,,PARADE,C,z,y,./images/PARADE.png,,,,,,,,,,,,,,,,,,,,,z,1,1.5561,,,,,,,,0,50,50,101,1
,,,,,,,,,,,,,,,,,54e32a60fdf99b3eae9de85b,37,2022-02-12_12h32.39.999,lexical_decision_task_DD_L2,2021.2.3,Linux x86_64,30.00390051,,,,,,,,,,,0.6927,1,,,,,,,,,,,,,,,,,,,,,,,,0.02976806,-0.404156521,0,0,0,,,,,,,MAGGOT,HB,m,y,./images/MAGGOTHB.png,,,,,,,,,,,,,,,,,,,,,m,1,0.6927,,,,,,,,0,51,51,33,1
,,,,,,,,,,,,,,,,,54e32a60fdf99b3eae9de85b,37,2022-02-12_12h32.39.999,lexical_decision_task_DD_L2,2021.2.3,Linux x86_64,30.00390051,,,,,,,,,,,0.6219,1,,,,,,,,,,,,,,,,,,,,,,,,0.02976806,-0.404156521,0,0,0,,,,,,,SNAKE,LB,z,y,./images/SNAKELB.png,,,,,,,,,,,,,,,,,,,,,z,1,0.6219,,,,,,,,0,52,52,124,1
,,,,,,,,,,,,,,,,,54e32a60fdf99b3eae9de85b,37,2022-02-12_12h32.39.999,lexical_decision_task_DD_L2,2021.2.3,Linux x86_64,30.00390051,,,,,,,,,,,0.6391,1,,,,,,,,,,,,,,,,,,,,,,,,0.02976806,-0.404156521,0,0,0,,,,,,,LIZARD,C,m,y,./images/LIZARD.png,,,,,,,,,,,,,,,,,,,,,m,1,0.6391,,,,,,,,0,53,53,44,1
,,,,,,,,,,,,,,,,,54e32a60fdf99b3eae9de85b,37,2022-02-12_12h32.39.999,lexical_decision_task_DD_L2,2021.2.3,Linux x86_64,30.00390051,,,,,,,,,,,0.6206,1,,,,,,,,,,,,,,,,,,,,,,,,0.02976806,-0.404156521,0,0,0,,,,,,,SKIING,C,m,y,./images/SKIING.png,,,,,,,,,,,,,,,,,,,,,m,1,0.6206,,,,,,,,0,54,54,17,1
,,,,,,,,,,,,,,,,,54e32a60fdf99b3eae9de85b,37,2022-02-12_12h32.39.999,lexical_decision_task_DD_L2,2021.2.3,Linux x86_64,30.00390051,,,,,,,,,,,0.6838,1,,,,,,,,,,,,,,,,,,,,,,,,0.02976806,-0.404156521,0,0,0,,,,,,,DIVER,HB,z,y,./images/DIVERHB.png,,,,,,,,,,,,,,,,,,,,,z,1,0.6838,,,,,,,,0,55,55,93,1
,,,,,,,,,,,,,,,,,54e32a60fdf99b3eae9de85b,37,2022-02-12_12h32.39.999,lexical_decision_task_DD_L2,2021.2.3,Linux x86_64,30.00390051,,,,,,,,,,,0.6336,1,,,,,,,,,,,,,,,,,,,,,,,,0.02976806,-0.404156521,0,0,0,,,,,,,MELON,LB,m,y,./images/MELONLB.png,,,,,,,,,,,,,,,,,,,,,m,1,0.6336,,,,,,,,0,56,56,22,1
,,,,,,,,,,,,,,,,,54e32a60fdf99b3eae9de85b,37,2022-02-12_12h32.39.999,lexical_decision_task_DD_L2,2021.2.3,Linux x86_64,30.00390051,,,,,,,,,,,0.7524,1,,,,,,,,,,,,,,,,,,,,,,,,0.02976806,-0.404156521,0,0,0,,,,,,,CURRY,HB,z,y,./images/CURRYHB.png,,,,,,,,,,,,,,,,,,,,,z,1,0.7524,,,,,,,,0,57,57,144,1
,,,,,,,,,,,,,,,,,54e32a60fdf99b3eae9de85b,37,2022-02-12_12h32.39.999,lexical_decision_task_DD_L2,2021.2.3,Linux x86_64,30.00390051,,,,,,,,,,,0.5786,1,,,,,,,,,,,,,,,,,,,,,,,,0.02976806,-0.404156521,0,0,0,,,,,,,JUNGLE,C,m,y,./images/JUNGLE.png,,,,,,,,,,,,,,,,,,,,,m,1,0.5786,,,,,,,,0,58,58,83,1
,,,,,,,,,,,,,,,,,54e32a60fdf99b3eae9de85b,37,2022-02-12_12h32.39.999,lexical_decision_task_DD_L2,2021.2.3,Linux x86_64,30.00390051,,,,,,,,,,,0.7741,0,,,,,,,,,,,,,,,,,,,,,,,,0.02976806,-0.404156521,0,0,0,,,,,,,SNACK,LB,m,y,./images/SNACKLB.png,,,,,,,,,,,,,,,,,,,,,z,0,0.7741,,,,,,,,0,59,59,73,1
,,,,,,,,,,,,,,,,,54e32a60fdf99b3eae9de85b,37,2022-02-12_12h32.39.999,lexical_decision_task_DD_L2,2021.2.3,Linux x86_64,30.00390051,,,,,,,,,,,0.9965,1,,,,,,,,,,,,,,,,,,,,,,,,0.02976806,-0.404156521,0,0,0,,,,,,,CHERRY,HB,z,y,./images/CHERRYHB.png,,,,,,,,,,,,,,,,,,,,,z,1,0.9965,,,,,,,,0,60,60,138,1
,,,,,,,,,,,,,,,,,54e32a60fdf99b3eae9de85b,37,2022-02-12_12h32.39.999,lexical_decision_task_DD_L2,2021.2.3,Linux x86_64,30.00390051,,,,,,,,,,,0.7723,0,,,,,,,,,,,,,,,,,,,,,,,,0.02976806,-0.404156521,0,0,0,,,,,,,PEARL,LB,m,y,./images/PEARLLB.png,,,,,,,,,,,,,,,,,,,,,z,0,0.7723,,,,,,,,0,61,61,46,1
,,,,,,,,,,,,,,,,,54e32a60fdf99b3eae9de85b,37,2022-02-12_12h32.39.999,lexical_decision_task_DD_L2,2021.2.3,Linux x86_64,30.00390051,,,,,,,,,,,0.6481,0,,,,,,,,,,,,,,,,,,,,,,,,0.02976806,-0.404156521,0,0,0,,,,,,,BASKET,C,z,y,./images/BASKET.png,,,,,,,,,,,,,,,,,,,,,m,0,0.6481,,,,,,,,0,62,62,128,1
,,,,,,,,,,,,,,,,,54e32a60fdf99b3eae9de85b,37,2022-02-12_12h32.39.999,lexical_decision_task_DD_L2,2021.2.3,Linux x86_64,30.00390051,,,,,,,,,,,0.637,1,,,,,,,,,,,,,,,,,,,,,,,,0.02976806,-0.404156521,0,0,0,,,,,,,VALLEY,C,z,y,./images/VALLEY.png,,,,,,,,,,,,,,,,,,,,,z,1,0.637,,,,,,,,0,63,63,152,1
,,,,,,,,,,,,,,,,,54e32a60fdf99b3eae9de85b,37,2022-02-12_12h32.39.999,lexical_decision_task_DD_L2,2021.2.3,Linux x86_64,30.00390051,,,,,,,,,,,0.824,1,,,,,,,,,,,,,,,,,,,,,,,,0.02976806,-0.404156521,0,0,0,,,,,,,CANDY,HB,z,y,./images/CANDYHB.png,,,,,,,,,,,,,,,,,,,,,z,1,0.824,,,,,,,,0,64,64,123,1
,,,,,,,,,,,,,,,,,54e32a60fdf99b3eae9de85b,37,2022-02-12_12h32.39.999,lexical_decision_task_DD_L2,2021.2.3,Linux x86_64,30.00390051,,,,,,,,,,,0.6779,1,,,,,,,,,,,,,,,,,,,,,,,,0.02976806,-0.404156521,0,0,0,,,,,,,CHALK,LB,z,y,./images/CHALKLB.png,,,,,,,,,,,,,,,,,,,,,z,1,0.6779,,,,,,,,0,65,65,109,1
,,,,,,,,,,,,,,,,,54e32a60fdf99b3eae9de85b,37,2022-02-12_12h32.39.999,lexical_decision_task_DD_L2,2021.2.3,Linux x86_64,30.00390051,,,,,,,,,,,0.5692,0,,,,,,,,,,,,,,,,,,,,,,,,0.02976806,-0.404156521,0,0,0,,,,,,,HOCKEY,C,z,y,./images/HOCKEY.png,,,,,,,,,,,,,,,,,,,,,m,0,0.5692,,,,,,,,0,66,66,116,1
,,,,,,,,,,,,,,,,,54e32a60fdf99b3eae9de85b,37,2022-02-12_12h32.39.999,lexical_decision_task_DD_L2,2021.2.3,Linux x86_64,30.00390051,,,,,,,,,,,0.5964,1,,,,,,,,,,,,,,,,,,,,,,,,0.02976806,-0.404156521,0,0,0,,,,,,,URINE,LB,m,y,./images/URINELB.png,,,,,,,,,,,,,,,,,,,,,m,1,0.5964,,,,,,,,0,67,67,70,1
,,,,,,,,,,,,,,,,,54e32a60fdf99b3eae9de85b,37,2022-02-12_12h32.39.999,lexical_decision_task_DD_L2,2021.2.3,Linux x86_64,30.00390051,,,,,,,,,,,0.5973,1,,,,,,,,,,,,,,,,,,,,,,,,0.02976806,-0.404156521,0,0,0,,,,,,,SLOPE,HB,z,y,./images/SLOPEHB.png,,,,,,,,,,,,,,,,,,,,,z,1,0.5973,,,,,,,,0,68,68,114,1
,,,,,,,,,,,,,,,,,54e32a60fdf99b3eae9de85b,37,2022-02-12_12h32.39.999,lexical_decision_task_DD_L2,2021.2.3,Linux x86_64,30.00390051,,,,,,,,,,,0.6585,0,,,,,,,,,,,,,,,,,,,,,,,,0.02976806,-0.404156521,0,0,0,,,,,,,BRUSH,C,z,y,./images/BRUSH.png,,,,,,,,,,,,,,,,,,,,,m,0,0.6585,,,,,,,,0,69,69,143,1
,,,,,,,,,,,,,,,,,54e32a60fdf99b3eae9de85b,37,2022-02-12_12h32.39.999,lexical_decision_task_DD_L2,2021.2.3,Linux x86_64,30.00390051,,,,,,,,,,,0.5641,1,,,,,,,,,,,,,,,,,,,,,,,,0.02976806,-0.404156521,0,0,0,,,,,,,STAIN,HB,z,y,./images/STAINHB.png,,,,,,,,,,,,,,,,,,,,,z,1,0.5641,,,,,,,,0,70,70,90,1
,,,,,,,,,,,,,,,,,54e32a60fdf99b3eae9de85b,37,2022-02-12_12h32.39.999,lexical_decision_task_DD_L2,2021.2.3,Linux x86_64,30.00390051,,,,,,,,,,,0.6549,1,,,,,,,,,,,,,,,,,,,,,,,,0.02976806,-0.404156521,0,0,0,,,,,,,PISTOL,C,z,y,./images/PISTOL.png,,,,,,,,,,,,,,,,,,,,,z,1,0.6549,,,,,,,,0,71,71,113,1
,,,,,,,,,,,,,,,,,54e32a60fdf99b3eae9de85b,37,2022-02-12_12h32.39.999,lexical_decision_task_DD_L2,2021.2.3,Linux x86_64,30.00390051,,,,,,,,,,,0.7381,1,,,,,,,,,,,,,,,,,,,,,,,,0.02976806,-0.404156521,0,0,0,,,,,,,WHEEL,C,z,y,./images/WHEEL.png,,,,,,,,,,,,,,,,,,,,,z,1,0.7381,,,,,,,,0,72,72,161,1
,,,,,,,,,,,,,,,,,54e32a60fdf99b3eae9de85b,37,2022-02-12_12h32.39.999,lexical_decision_task_DD_L2,2021.2.3,Linux x86_64,30.00390051,,,,,,,,,,,0.6339,1,,,,,,,,,,,,,,,,,,,,,,,,0.02976806,-0.404156521,0,0,0,,,,,,,DOUGH,LB,m,y,./images/DOUGHLB.png,,,,,,,,,,,,,,,,,,,,,m,1,0.6339,,,,,,,,0,73,73,19,1
,,,,,,,,,,,,,,,,,54e32a60fdf99b3eae9de85b,37,2022-02-12_12h32.39.999,lexical_decision_task_DD_L2,2021.2.3,Linux x86_64,30.00390051,,,,,,,,,,,0.7862,1,,,,,,,,,,,,,,,,,,,,,,,,0.02976806,-0.404156521,0,0,0,,,,,,,SCREW,HB,m,y,./images/SCREWHB.png,,,,,,,,,,,,,,,,,,,,,m,1,0.7862,,,,,,,,0,74,74,24,1
,,,,,,,,,,,,,,,,,54e32a60fdf99b3eae9de85b,37,2022-02-12_12h32.39.999,lexical_decision_task_DD_L2,2021.2.3,Linux x86_64,30.00390051,,,,,,,,,,,0.8736,1,,,,,,,,,,,,,,,,,,,,,,,,0.02976806,-0.404156521,0,0,0,,,,,,,BROOM,HB,z,y,./images/BROOMHB.png,,,,,,,,,,,,,,,,,,,,,z,1,0.8736,,,,,,,,0,75,75,162,1
,,,,,,,,,,,,,,,,,54e32a60fdf99b3eae9de85b,37,2022-02-12_12h32.39.999,lexical_decision_task_DD_L2,2021.2.3,Linux x86_64,30.00390051,,,,,,,,,,,0.6976,1,,,,,,,,,,,,,,,,,,,,,,,,0.02976806,-0.404156521,0,0,0,,,,,,,MOOSE,HB,m,y,./images/MOOSEHB.png,,,,,,,,,,,,,,,,,,,,,m,1,0.6976,,,,,,,,0,76,76,57,1
,,,,,,,,,,,,,,,,,54e32a60fdf99b3eae9de85b,37,2022-02-12_12h32.39.999,lexical_decision_task_DD_L2,2021.2.3,Linux x86_64,30.00390051,,,,,,,,,,,0.5049,1,,,,,,,,,,,,,,,,,,,,,,,,0.02976806,-0.404156521,0,0,0,,,,,,,BISHOP,LB,z,y,./images/BISHOPLB.png,,,,,,,,,,,,,,,,,,,,,z,1,0.5049,,,,,,,,0,77,77,133,1
,,,,,,,,,,,,,,,,,54e32a60fdf99b3eae9de85b,37,2022-02-12_12h32.39.999,lexical_decision_task_DD_L2,2021.2.3,Linux x86_64,30.00390051,,,,,,,,,,,0.7708,1,,,,,,,,,,,,,,,,,,,,,,,,0.02976806,-0.404156521,0,0,0,,,,,,,SHORE,HB,m,y,./images/SHOREHB.png,,,,,,,,,,,,,,,,,,,,,m,1,0.7708,,,,,,,,0,78,78,12,1
,,,,,,,,,,,,,,,,,54e32a60fdf99b3eae9de85b,37,2022-02-12_12h32.39.999,lexical_decision_task_DD_L2,2021.2.3,Linux x86_64,30.00390051,,,,,,,,,,,0.828,0,,,,,,,,,,,,,,,,,,,,,,,,0.02976806,-0.404156521,0,0,0,,,,,,,SPORT,HB,m,y,./images/SPORTHB.png,,,,,,,,,,,,,,,,,,,,,z,0,0.828,,,,,,,,0,79,79,48,1
,,,,,,,,,,,,,,,,,54e32a60fdf99b3eae9de85b,37,2022-02-12_12h32.39.999,lexical_decision_task_DD_L2,2021.2.3,Linux x86_64,30.00390051,,,,,,,,,,,0.6399,1,,,,,,,,,,,,,,,,,,,,,,,,0.02976806,-0.404156521,0,0,0,,,,,,,FLESH,HB,z,y,./images/FLESHHB.png,,,,,,,,,,,,,,,,,,,,,z,1,0.6399,,,,,,,,0,80,80,108,1
,,,,,,,,,,,,,,,,,54e32a60fdf99b3eae9de85b,37,2022-02-12_12h32.39.999,lexical_decision_task_DD_L2,2021.2.3,Linux x86_64,30.00390051,,,,,,,,,,,0.657,1,,,,,,,,,,,,,,,,,,,,,,,,0.02976806,-0.404156521,0,0,0,,,,,,,RAZOR,LB,z,y,./images/RAZORLB.png,,,,,,,,,,,,,,,,,,,,,z,1,0.657,,,,,,,,0,81,81,118,1
,,,,,,,,,,,,,,,,,54e32a60fdf99b3eae9de85b,37,2022-02-12_12h32.39.999,lexical_decision_task_DD_L2,2021.2.3,Linux x86_64,30.00390051,,,,,,,,,,,0.7935,1,,,,,,,,,,,,,,,,,,,,,,,,0.02976806,-0.404156521,0,0,0,,,,,,,COUCH,C,m,y,./images/COUCH.png,,,,,,,,,,,,,,,,,,,,,m,1,0.7935,,,,,,,,0,82,82,77,1
,,,,,,,,,,,,,,,,,54e32a60fdf99b3eae9de85b,37,2022-02-12_12h32.39.999,lexical_decision_task_DD_L2,2021.2.3,Linux x86_64,30.00390051,,,,,,,,,,,0.7872,1,,,,,,,,,,,,,,,,,,,,,,,,0.02976806,-0.404156521,0,0,0,space,,,,,,CLOWN,LB,z,y,./images/CLOWNLB.png,11.1841,,,,,,,,,,,,,,,,,,,,z,1,0.7872,,,,,,,,0,83,83,106,1
,,,,,,,,,,,,,,,,,54e32a60fdf99b3eae9de85b,37,2022-02-12_12h32.39.999,lexical_decision_task_DD_L2,2021.2.3,Linux x86_64,30.00390051,,,,,,,,,,,0.7201,0,,,,,,,,,,,,,,,,,,,,,,,,0.02976806,-0.404156521,0,0,0,,,,,,,TRIPOD,HB,m,y,./images/TRIPODHB.png,,,,,,,,,,,,,,,,,,,,,z,0,0.7201,,,,,,,,0,84,84,54,1
,,,,,,,,,,,,,,,,,54e32a60fdf99b3eae9de85b,37,2022-02-12_12h32.39.999,lexical_decision_task_DD_L2,2021.2.3,Linux x86_64,30.00390051,,,,,,,,,,,0.6527,0,,,,,,,,,,,,,,,,,,,,,,,,0.02976806,-0.404156521,0,0,0,,,,,,,SHELF,HB,m,y,./images/SHELFHB.png,,,,,,,,,,,,,,,,,,,,,z,0,0.6527,,,,,,,,0,85,85,39,1
,,,,,,,,,,,,,,,,,54e32a60fdf99b3eae9de85b,37,2022-02-12_12h32.39.999,lexical_decision_task_DD_L2,2021.2.3,Linux x86_64,30.00390051,,,,,,,,,,,0.6147,0,,,,,,,,,,,,,,,,,,,,,,,,0.02976806,-0.404156521,0,0,0,,,,,,,THROAT,HB,m,y,./images/THROATHB.png,,,,,,,,,,,,,,,,,,,,,z,0,0.6147,,,,,,,,0,86,86,36,1
,,,,,,,,,,,,,,,,,54e32a60fdf99b3eae9de85b,37,2022-02-12_12h32.39.999,lexical_decision_task_DD_L2,2021.2.3,Linux x86_64,30.00390051,,,,,,,,,,,0.6806,0,,,,,,,,,,,,,,,,,,,,,,,,0.02976806,-0.404156521,0,0,0,,,,,,,WRIST,LB,m,y,./images/WRISTLB.png,,,,,,,,,,,,,,,,,,,,,z,0,0.6806,,,,,,,,0,87,87,25,1
,,,,,,,,,,,,,,,,,54e32a60fdf99b3eae9de85b,37,2022-02-12_12h32.39.999,lexical_decision_task_DD_L2,2021.2.3,Linux x86_64,30.00390051,,,,,,,,,,,0.6218,1,,,,,,,,,,,,,,,,,,,,,,,,0.02976806,-0.404156521,0,0,0,,,,,,,STORM,HB,m,y,./images/STORMHB.png,,,,,,,,,,,,,,,,,,,,,m,1,0.6218,,,,,,,,0,88,88,30,1
,,,,,,,,,,,,,,,,,54e32a60fdf99b3eae9de85b,37,2022-02-12_12h32.39.999,lexical_decision_task_DD_L2,2021.2.3,Linux x86_64,30.00390051,,,,,,,,,,,0.5747,1,,,,,,,,,,,,,,,,,,,,,,,,0.02976806,-0.404156521,0,0,0,,,,,,,SQUARE,HB,m,y,./images/SQUAREHB.png,,,,,,,,,,,,,,,,,,,,,m,1,0.5747,,,,,,,,0,89,89,6,1
,,,,,,,,,,,,,,,,,54e32a60fdf99b3eae9de85b,37,2022-02-12_12h32.39.999,lexical_decision_task_DD_L2,2021.2.3,Linux x86_64,30.00390051,,,,,,,,,,,0.6392,0,,,,,,,,,,,,,,,,,,,,,,,,0.02976806,-0.404156521,0,0,0,,,,,,,STATUE,HB,z,y,./images/STATUEHB.png,,,,,,,,,,,,,,,,,,,,,m,0,0.6392,,,,,,,,0,90,90,150,1
,,,,,,,,,,,,,,,,,54e32a60fdf99b3eae9de85b,37,2022-02-12_12h32.39.999,lexical_decision_task_DD_L2,2021.2.3,Linux x86_64,30.00390051,,,,,,,,,,,0.7045,1,,,,,,,,,,,,,,,,,,,,,,,,0.02976806,-0.404156521,0,0,0,,,,,,,DANCER,HB,z,y,./images/DANCERHB.png,,,,,,,,,,,,,,,,,,,,,z,1,0.7045,,,,,,,,0,91,91,105,1
,,,,,,,,,,,,,,,,,54e32a60fdf99b3eae9de85b,37,2022-02-12_12h32.39.999,lexical_decision_task_DD_L2,2021.2.3,Linux x86_64,30.00390051,,,,,,,,,,,0.4889,0,,,,,,,,,,,,,,,,,,,,,,,,0.02976806,-0.404156521,0,0,0,,,,,,,CRADLE,C,m,y,./images/CRADLE.png,,,,,,,,,,,,,,,,,,,,,z,0,0.4889,,,,,,,,0,92,92,20,1
,,,,,,,,,,,,,,,,,54e32a60fdf99b3eae9de85b,37,2022-02-12_12h32.39.999,lexical_decision_task_DD_L2,2021.2.3,Linux x86_64,30.00390051,,,,,,,,,,,0.5629,0,,,,,,,,,,,,,,,,,,,,,,,,0.02976806,-0.404156521,0,0,0,,,,,,,PACKET,C,m,y,./images/PACKET.png,,,,,,,,,,,,,,,,,,,,,z,0,0.5629,,,,,,,,0,93,93,56,1
,,,,,,,,,,,,,,,,,54e32a60fdf99b3eae9de85b,37,2022-02-12_12h32.39.999,lexical_decision_task_DD_L2,2021.2.3,Linux x86_64,30.00390051,,,,,,,,,,,0.47,1,,,,,,,,,,,,,,,,,,,,,,,,0.02976806,-0.404156521,0,0,0,,,,,,,ALLEY,LB,z,y,./images/ALLEYLB.png,,,,,,,,,,,,,,,,,,,,,z,1,0.47,,,,,,,,0,94,94,139,1
,,,,,,,,,,,,,,,,,54e32a60fdf99b3eae9de85b,37,2022-02-12_12h32.39.999,lexical_decision_task_DD_L2,2021.2.3,Linux x86_64,30.00390051,,,,,,,,,,,0.6036,0,,,,,,,,,,,,,,,,,,,,,,,,0.02976806,-0.404156521,0,0,0,,,,,,,BIRTH,LB,m,y,./images/BIRTHLB.png,,,,,,,,,,,,,,,,,,,,,z,0,0.6036,,,,,,,,0,95,95,37,1
,,,,,,,,,,,,,,,,,54e32a60fdf99b3eae9de85b,37,2022-02-12_12h32.39.999,lexical_decision_task_DD_L2,2021.2.3,Linux x86_64,30.00390051,,,,,,,,,,,0.5613,1,,,,,,,,,,,,,,,,,,,,,,,,0.02976806,-0.404156521,0,0,0,,,,,,,MIDGET,LB,z,y,./images/MIDGETLB.png,,,,,,,,,,,,,,,,,,,,,z,1,0.5613,,,,,,,,0,96,96,160,1
,,,,,,,,,,,,,,,,,54e32a60fdf99b3eae9de85b,37,2022-02-12_12h32.39.999,lexical_decision_task_DD_L2,2021.2.3,Linux x86_64,30.00390051,,,,,,,,,,,0.7506,1,,,,,,,,,,,,,,,,,,,,,,,,0.02976806,-0.404156521,0,0,0,,,,,,,PLANET,C,z,y,./images/PLANET.png,,,,,,,,,,,,,,,,,,,,,z,1,0.7506,,,,,,,,0,97,97,164,1
,,,,,,,,,,,,,,,,,54e32a60fdf99b3eae9de85b,37,2022-02-12_12h32.39.999,lexical_decision_task_DD_L2,2021.2.3,Linux x86_64,30.00390051,,,,,,,,,,,0.8651,1,,,,,,,,,,,,,,,,,,,,,,,,0.02976806,-0.404156521,0,0,0,,,,,,,BOILER,HB,z,y,./images/BOILERHB.png,,,,,,,,,,,,,,,,,,,,,z,1,0.8651,,,,,,,,0,98,98,120,1
,,,,,,,,,,,,,,,,,54e32a60fdf99b3eae9de85b,37,2022-02-12_12h32.39.999,lexical_decision_task_DD_L2,2021.2.3,Linux x86_64,30.00390051,,,,,,,,,,,0.6905,1,,,,,,,,,,,,,,,,,,,,,,,,0.02976806,-0.404156521,0,0,0,,,,,,,GRAPE,LB,z,y,./images/GRAPELB.png,,,,,,,,,,,,,,,,,,,,,z,1,0.6905,,,,,,,,0,99,99,100,1
,,,,,,,,,,,,,,,,,54e32a60fdf99b3eae9de85b,37,2022-02-12_12h32.39.999,lexical_decision_task_DD_L2,2021.2.3,Linux x86_64,30.00390051,,,,,,,,,,,0.5853,0,,,,,,,,,,,,,,,,,,,,,,,,0.02976806,-0.404156521,0,0,0,,,,,,,PAINT,LB,m,y,./images/PAINTLB.png,,,,,,,,,,,,,,,,,,,,,z,0,0.5853,,,,,,,,0,100,100,7,1
,,,,,,,,,,,,,,,,,54e32a60fdf99b3eae9de85b,37,2022-02-12_12h32.39.999,lexical_decision_task_DD_L2,2021.2.3,Linux x86_64,30.00390051,,,,,,,,,,,1.1609,0,,,,,,,,,,,,,,,,,,,,,,,,0.02976806,-0.404156521,0,0,0,,,,,,,SAILOR,LB,m,y,./images/SAILORLB.png,,,,,,,,,,,,,,,,,,,,,z,0,1.1609,,,,,,,,0,101,101,67,1
,,,,,,,,,,,,,,,,,54e32a60fdf99b3eae9de85b,37,2022-02-12_12h32.39.999,lexical_decision_task_DD_L2,2021.2.3,Linux x86_64,30.00390051,,,,,,,,,,,0.8563,1,,,,,,,,,,,,,,,,,,,,,,,,0.02976806,-0.404156521,0,0,0,,,,,,,TOWEL,LB,z,y,./images/TOWELLB.png,,,,,,,,,,,,,,,,,,,,,z,1,0.8563,,,,,,,,0,102,102,85,1
,,,,,,,,,,,,,,,,,54e32a60fdf99b3eae9de85b,37,2022-02-12_12h32.39.999,lexical_decision_task_DD_L2,2021.2.3,Linux x86_64,30.00390051,,,,,,,,,,,0.6716,0,,,,,,,,,,,,,,,,,,,,,,,,0.02976806,-0.404156521,0,0,0,,,,,,,FINGER,HB,m,y,./images/FINGERHB.png,,,,,,,,,,,,,,,,,,,,,z,0,0.6716,,,,,,,,0,103,103,3,1
,,,,,,,,,,,,,,,,,54e32a60fdf99b3eae9de85b,37,2022-02-12_12h32.39.999,lexical_decision_task_DD_L2,2021.2.3,Linux x86_64,30.00390051,,,,,,,,,,,0.7393,1,,,,,,,,,,,,,,,,,,,,,,,,0.02976806,-0.404156521,0,0,0,,,,,,,COOKER,HB,m,y,./images/COOKERHB.png,,,,,,,,,,,,,,,,,,,,,m,1,0.7393,,,,,,,,0,104,104,69,1
,,,,,,,,,,,,,,,,,54e32a60fdf99b3eae9de85b,37,2022-02-12_12h32.39.999,lexical_decision_task_DD_L2,2021.2.3,Linux x86_64,30.00390051,,,,,,,,,,,0.6737,1,,,,,,,,,,,,,,,,,,,,,,,,0.02976806,-0.404156521,0,0,0,,,,,,,FOLDER,HB,m,y,./images/FOLDERHB.png,,,,,,,,,,,,,,,,,,,,,m,1,0.6737,,,,,,,,0,105,105,42,1
,,,,,,,,,,,,,,,,,54e32a60fdf99b3eae9de85b,37,2022-02-12_12h32.39.999,lexical_decision_task_DD_L2,2021.2.3,Linux x86_64,30.00390051,,,,,,,,,,,0.6387,1,,,,,,,,,,,,,,,,,,,,,,,,0.02976806,-0.404156521,0,0,0,,,,,,,KITTEN,HB,m,y,./images/KITTENHB.png,,,,,,,,,,,,,,,,,,,,,m,1,0.6387,,,,,,,,0,106,106,45,1
,,,,,,,,,,,,,,,,,54e32a60fdf99b3eae9de85b,37,2022-02-12_12h32.39.999,lexical_decision_task_DD_L2,2021.2.3,Linux x86_64,30.00390051,,,,,,,,,,,0.6975,1,,,,,,,,,,,,,,,,,,,,,,,,0.02976806,-0.404156521,0,0,0,,,,,,,MUSCLE,LB,m,y,./images/MUSCLELB.png,,,,,,,,,,,,,,,,,,,,,m,1,0.6975,,,,,,,,0,107,107,4,1
,,,,,,,,,,,,,,,,,54e32a60fdf99b3eae9de85b,37,2022-02-12_12h32.39.999,lexical_decision_task_DD_L2,2021.2.3,Linux x86_64,30.00390051,,,,,,,,,,,0.8424,1,,,,,,,,,,,,,,,,,,,,,,,,0.02976806,-0.404156521,0,0,0,,,,,,,DRILL,HB,z,y,./images/DRILLHB.png,,,,,,,,,,,,,,,,,,,,,z,1,0.8424,,,,,,,,0,108,108,165,1
,,,,,,,,,,,,,,,,,54e32a60fdf99b3eae9de85b,37,2022-02-12_12h32.39.999,lexical_decision_task_DD_L2,2021.2.3,Linux x86_64,30.00390051,,,,,,,,,,,0.6992,1,,,,,,,,,,,,,,,,,,,,,,,,0.02976806,-0.404156521,0,0,0,,,,,,,GARDEN,LB,z,y,./images/GARDENLB.png,,,,,,,,,,,,,,,,,,,,,z,1,0.6992,,,,,,,,0,109,109,94,1
,,,,,,,,,,,,,,,,,54e32a60fdf99b3eae9de85b,37,2022-02-12_12h32.39.999,lexical_decision_task_DD_L2,2021.2.3,Linux x86_64,30.00390051,,,,,,,,,,,0.7205,1,,,,,,,,,,,,,,,,,,,,,,,,0.02976806,-0.404156521,0,0,0,,,,,,,CEMENT,C,m,y,./images/CEMENT.png,,,,,,,,,,,,,,,,,,,,,m,1,0.7205,,,,,,,,0,110,110,74,1
,,,,,,,,,,,,,,,,,54e32a60fdf99b3eae9de85b,37,2022-02-12_12h32.39.999,lexical_decision_task_DD_L2,2021.2.3,Linux x86_64,30.00390051,,,,,,,,,,,0.7679,0,,,,,,,,,,,,,,,,,,,,,,,,0.02976806,-0.404156521,0,0,0,,,,,,,INFANT,LB,m,y,./images/INFANTLB.png,,,,,,,,,,,,,,,,,,,,,z,0,0.7679,,,,,,,,0,111,111,76,1
,,,,,,,,,,,,,,,,,54e32a60fdf99b3eae9de85b,37,2022-02-12_12h32.39.999,lexical_decision_task_DD_L2,2021.2.3,Linux x86_64,30.00390051,,,,,,,,,,,0.847,1,,,,,,,,,,,,,,,,,,,,,,,,0.02976806,-0.404156521,0,0,0,,,,,,,PLANK,LB,m,y,./images/PLANKLB.png,,,,,,,,,,,,,,,,,,,,,m,1,0.847,,,,,,,,0,112,112,1,1
,,,,,,,,,,,,,,,,,54e32a60fdf99b3eae9de85b,37,2022-02-12_12h32.39.999,lexical_decision_task_DD_L2,2021.2.3,Linux x86_64,30.00390051,,,,,,,,,,,0.59,1,,,,,,,,,,,,,,,,,,,,,,,,0.02976806,-0.404156521,0,0,0,,,,,,,MUFFIN,LB,m,y,./images/MUFFINLB.png,,,,,,,,,,,,,,,,,,,,,m,1,0.59,,,,,,,,0,113,113,55,1
,,,,,,,,,,,,,,,,,54e32a60fdf99b3eae9de85b,37,2022-02-12_12h32.39.999,lexical_decision_task_DD_L2,2021.2.3,Linux x86_64,30.00390051,,,,,,,,,,,0.7096,1,,,,,,,,,,,,,,,,,,,,,,,,0.02976806,-0.404156521,0,0,0,,,,,,,POSTER,C,z,y,./images/POSTER.png,,,,,,,,,,,,,,,,,,,,,z,1,0.7096,,,,,,,,0,114,114,137,1
,,,,,,,,,,,,,,,,,54e32a60fdf99b3eae9de85b,37,2022-02-12_12h32.39.999,lexical_decision_task_DD_L2,2021.2.3,Linux x86_64,30.00390051,,,,,,,,,,,0.5479,0,,,,,,,,,,,,,,,,,,,,,,,,0.02976806,-0.404156521,0,0,0,,,,,,,BONNET,C,m,y,./images/BONNET.png,,,,,,,,,,,,,,,,,,,,,z,0,0.5479,,,,,,,,0,115,115,11,1
,,,,,,,,,,,,,,,,,54e32a60fdf99b3eae9de85b,37,2022-02-12_12h32.39.999,lexical_decision_task_DD_L2,2021.2.3,Linux x86_64,30.00390051,,,,,,,,,,,0.6508,1,,,,,,,,,,,,,,,,,,,,,,,,0.02976806,-0.404156521,0,0,0,,,,,,,MEDAL,C,z,y,./images/MEDAL.png,,,,,,,,,,,,,,,,,,,,,z,1,0.6508,,,,,,,,0,116,116,95,1
,,,,,,,,,,,,,,,,,54e32a60fdf99b3eae9de85b,37,2022-02-12_12h32.39.999,lexical_decision_task_DD_L2,2021.2.3,Linux x86_64,30.00390051,,,,,,,,,,,0.601,1,,,,,,,,,,,,,,,,,,,,,,,,0.02976806,-0.404156521,0,0,0,,,,,,,MAMMAL,C,z,y,./images/MAMMAL.png,,,,,,,,,,,,,,,,,,,,,z,1,0.601,,,,,,,,0,117,117,146,1
,,,,,,,,,,,,,,,,,54e32a60fdf99b3eae9de85b,37,2022-02-12_12h32.39.999,lexical_decision_task_DD_L2,2021.2.3,Linux x86_64,30.00390051,,,,,,,,,,,0.6782,1,,,,,,,,,,,,,,,,,,,,,,,,0.02976806,-0.404156521,0,0,0,,,,,,,BAMBOO,C,z,y,./images/BAMBOO.png,,,,,,,,,,,,,,,,,,,,,z,1,0.6782,,,,,,,,0,118,118,89,1
,,,,,,,,,,,,,,,,,54e32a60fdf99b3eae9de85b,37,2022-02-12_12h32.39.999,lexical_decision_task_DD_L2,2021.2.3,Linux x86_64,30.00390051,,,,,,,,,,,0.6223,1,,,,,,,,,,,,,,,,,,,,,,,,0.02976806,-0.404156521,0,0,0,,,,,,,KIDNEY,HB,m,y,./images/KIDNEYHB.png,,,,,,,,,,,,,,,,,,,,,m,1,0.6223,,,,,,,,0,119,119,21,1
,,,,,,,,,,,,,,,,,54e32a60fdf99b3eae9de85b,37,2022-02-12_12h32.39.999,lexical_decision_task_DD_L2,2021.2.3,Linux x86_64,30.00390051,,,,,,,,,,,0.6687,0,,,,,,,,,,,,,,,,,,,,,,,,0.02976806,-0.404156521,0,0,0,,,,,,,ONION,HB,m,y,./images/ONIONHB.png,,,,,,,,,,,,,,,,,,,,,z,0,0.6687,,,,,,,,0,120,120,51,1
,,,,,,,,,,,,,,,,,54e32a60fdf99b3eae9de85b,37,2022-02-12_12h32.39.999,lexical_decision_task_DD_L2,2021.2.3,Linux x86_64,30.00390051,,,,,,,,,,,0.5751,1,,,,,,,,,,,,,,,,,,,,,,,,0.02976806,-0.404156521,0,0,0,,,,,,,CLIFF,C,z,y,./images/CLIFF.png,,,,,,,,,,,,,,,,,,,,,z,1,0.5751,,,,,,,,0,121,121,92,1
,,,,,,,,,,,,,,,,,54e32a60fdf99b3eae9de85b,37,2022-02-12_12h32.39.999,lexical_decision_task_DD_L2,2021.2.3,Linux x86_64,30.00390051,,,,,,,,,,,1.0538,0,,,,,,,,,,,,,,,,,,,,,,,,0.02976806,-0.404156521,0,0,0,,,,,,,CRUST,LB,m,y,./images/CRUSTLB.png,,,,,,,,,,,,,,,,,,,,,z,0,1.0538,,,,,,,,0,122,122,79,1
,,,,,,,,,,,,,,,,,54e32a60fdf99b3eae9de85b,37,2022-02-12_12h32.39.999,lexical_decision_task_DD_L2,2021.2.3,Linux x86_64,30.00390051,,,,,,,,,,,0.7394,0,,,,,,,,,,,,,,,,,,,,,,,,0.02976806,-0.404156521,0,0,0,,,,,,,HAMMER,HB,z,y,./images/HAMMERHB.png,,,,,,,,,,,,,,,,,,,,,m,0,0.7394,,,,,,,,0,123,123,159,1
