key_resp.keys,instr_done_touch.x,instr_done_touch.y,instr_done_touch.leftButton,instr_done_touch.midButton,instr_done_touch.rightButton,instr_done_touch.clicked_name,instruction_pages.thisRepN,instruction_pages.thisTrialN,instruction_pages.thisN,instruction_pages.thisIndex,instruction_pages.ran,pageN,phase,instruct_text,has_image,instruct_image,participant,age,date,expName,psychopyVersion,OS,frameRate,response.keys,response.corr,touch_resp.x,touch_resp.y,touch_resp.leftButton,touch_resp.midButton,touch_resp.rightButton,touch_resp.time,touch_resp.clicked_name,rt,corr,practrials.thisRepN,practrials.thisTrialN,practrials.thisN,practrials.thisIndex,practrials.ran,TrialID,Target,corrAns,end_of_practice_trials_pages.thisRepN,end_of_practice_trials_pages.thisTrialN,end_of_practice_trials_pages.thisN,end_of_practice_trials_pages.thisIndex,end_of_practice_trials_pages.ran,key_resp_2.keys,key_resp_2.corr,targ_click.x,targ_click.y,targ_click.leftButton,targ_click.midButton,targ_click.rightButton,targ_click.time,targ_click.clicked_name,break_done_touch.x,break_done_touch.y,break_done_touch.leftButton,break_done_touch.midButton,break_done_touch.rightButton,break_done_keyboard.keys,maintrials.thisRepN,maintrials.thisTrialN,maintrials.thisN,maintrials.thisIndex,maintrials.ran,string,blur,study,lex,stim_path,break_done_touch.clicked_name,mouse_2.x,mouse_2.y,mouse_2.leftButton,mouse_2.midButton,mouse_2.rightButton,mouse_2.clicked_name,slider.response,slider.rt,trials.thisRepN,trials.thisTrialN,trials.thisN,trials.thisIndex,trials.ran,test_instructions.thisRepN,test_instructions.thisTrialN,test_instructions.thisN,test_instructions.thisIndex,test_instructions.ran,key_resp_3.keys,key_resp_3.corr,test_click.x,test_click.y,test_click.leftButton,test_click.midButton,test_click.rightButton,test_click.time,test_click.clicked_name,test_phase.thisRepN,test_phase.thisTrialN,test_phase.thisN,test_phase.thisIndex,test_phase.ran
,0.009355545,-0.403692913,1,0,0,instr_done_button,0,0,0,0,1,1,instructions,"INSTRUCTIONS
At the start of each trial, look at the plus sign  (+) in the center of the screen.  This tells you that a trial is about to begin and where to look. Second, the plus sign will disappear and a string of letters will appear. Your task is to determine if the string of letters is a word or not. If the item is a word press the M key (on keyboard)  or touch the word button (phone/tablet).  If the item is not a word,  press the  Z key (on keyboard)  or touch the nonword button (on phone/tablet). 
Press the space bar or touch  continue.",0,,55d7e6f669dbc30012b6826e,65,2022-02-12_18h02.17.567,lexical_decision_task_DD_L3,2021.2.3,Linux armv8l,29.91593622,,,,,,,,,,,,,,,,,,,,,,,,,,,,,,,,,,,,,,,,,,,,,,,,,,,,,,,,,,,,,,,,,,,,,,,,,,,,,,,,,,
,0.057172537,-0.405773735,1,0,0,instr_done_button,0,1,1,1,1,2,instructions,"If your device has a keyboard, press the 'Z' key for nonwords and the 'M' key for words.





Press the space bar or touch the button below to continue.",0,keyboard-example.gif,55d7e6f669dbc30012b6826e,65,2022-02-12_18h02.17.567,lexical_decision_task_DD_L3,2021.2.3,Linux armv8l,29.91593622,,,,,,,,,,,,,,,,,,,,,,,,,,,,,,,,,,,,,,,,,,,,,,,,,,,,,,,,,,,,,,,,,,,,,,,,,,,,,,,,,,
,-0.001039505,-0.416178131,1,0,0,instr_done_button,0,2,2,2,1,3,instructions,"If you are using a touchscreen only device, use the buttons on the screen. Do not use the mouse.





Press the space bar or touch the button below to continue.",0,touchscreen-example.gif,55d7e6f669dbc30012b6826e,65,2022-02-12_18h02.17.567,lexical_decision_task_DD_L3,2021.2.3,Linux armv8l,29.91593622,,,,,,,,,,,,,,,,,,,,,,,,,,,,,,,,,,,,,,,,,,,,,,,,,,,,,,,,,,,,,,,,,,,,,,,,,,,,,,,,,,
,0.03846159,-0.4016119,1,0,0,instr_done_button,0,3,3,3,1,4,instructions,"It is very important that you respond as quickly and accurately as possible, as each letter string will only be on the screen for two seconds. If you do not respond within this time, the message 'Too slow!' will be displayed and the experiment will progress to the next letter string. The first 20 trials will be practice trials and you will receive feedback on your answers. 

Press the space bar or touch the button below to start the practice trials.",0,,55d7e6f669dbc30012b6826e,65,2022-02-12_18h02.17.567,lexical_decision_task_DD_L3,2021.2.3,Linux armv8l,29.91593622,,,,,,,,,,,,,,,,,,,,,,,,,,,,,,,,,,,,,,,,,,,,,,,,,,,,,,,,,,,,,,,,,,,,,,,,,,,,,,,,,,
,,,,,,,,,,,,,,,,,55d7e6f669dbc30012b6826e,65,2022-02-12_18h02.17.567,lexical_decision_task_DD_L3,2021.2.3,Linux armv8l,29.91593622,,0,0.391891861,-0.35999403,1,0,0,2.2457,button_right,2.2457,1,0,0,0,7,1,1001,VOLUME,m,,,,,,,,,,,,,,,,,,,,,,,,,,,,,,,,,,,,,,,,,,,,,,,,,,,,,,,,,,,,,,,
,,,,,,,,,,,,,,,,,55d7e6f669dbc30012b6826e,65,2022-02-12_18h02.17.567,lexical_decision_task_DD_L3,2021.2.3,Linux armv8l,29.91593622,,0,0.383576012,-0.316295147,1,0,0,1.2786,button_right,1.2786,1,0,1,1,5,1,1001,OBTAIN,m,,,,,,,,,,,,,,,,,,,,,,,,,,,,,,,,,,,,,,,,,,,,,,,,,,,,,,,,,,,,,,,
,,,,,,,,,,,,,,,,,55d7e6f669dbc30012b6826e,65,2022-02-12_18h02.17.567,lexical_decision_task_DD_L3,2021.2.3,Linux armv8l,29.91593622,,0,0.379417992,-0.305890656,1,0,0,1.0113,button_right,1.0113,1,0,2,2,4,1,1001,SQUEAK,m,,,,,,,,,,,,,,,,,,,,,,,,,,,,,,,,,,,,,,,,,,,,,,,,,,,,,,,,,,,,,,,
,,,,,,,,,,,,,,,,,55d7e6f669dbc30012b6826e,65,2022-02-12_18h02.17.567,lexical_decision_task_DD_L3,2021.2.3,Linux armv8l,29.91593622,,0,0.375259972,-0.310052395,1,0,0,0.806,button_right,0.806,1,0,3,3,1,1,1001,ADJUST,m,,,,,,,,,,,,,,,,,,,,,,,,,,,,,,,,,,,,,,,,,,,,,,,,,,,,,,,,,,,,,,,
,,,,,,,,,,,,,,,,,55d7e6f669dbc30012b6826e,65,2022-02-12_18h02.17.567,lexical_decision_task_DD_L3,2021.2.3,Linux armv8l,29.91593622,,0,-0.310810816,-0.301728821,1,0,0,0.9958,button_left,0.9958,1,0,4,4,14,1,1001,THRALE,z,,,,,,,,,,,,,,,,,,,,,,,,,,,,,,,,,,,,,,,,,,,,,,,,,,,,,,,,,,,,,,,
,,,,,,,,,,,,,,,,,55d7e6f669dbc30012b6826e,65,2022-02-12_18h02.17.567,lexical_decision_task_DD_L3,2021.2.3,Linux armv8l,29.91593622,,0,0.369022942,-0.316295147,1,0,0,1.0297,button_right,1.0297,1,0,5,5,0,1,1001,UTOPIA,m,,,,,,,,,,,,,,,,,,,,,,,,,,,,,,,,,,,,,,,,,,,,,,,,,,,,,,,,,,,,,,,
,,,,,,,,,,,,,,,,,55d7e6f669dbc30012b6826e,65,2022-02-12_18h02.17.567,lexical_decision_task_DD_L3,2021.2.3,Linux armv8l,29.91593622,,0,0.356548882,-0.307971573,1,0,0,0.8484,button_right,0.8484,1,0,6,6,3,1,1001,MATRIX,m,,,,,,,,,,,,,,,,,,,,,,,,,,,,,,,,,,,,,,,,,,,,,,,,,,,,,,,,,,,,,,,
,,,,,,,,,,,,,,,,,55d7e6f669dbc30012b6826e,65,2022-02-12_18h02.17.567,lexical_decision_task_DD_L3,2021.2.3,Linux armv8l,29.91593622,,0,0.348232841,-0.312133312,1,0,0,0.7323,button_right,0.7323,1,0,7,7,2,1,1001,ALMOND,m,,,,,,,,,,,,,,,,,,,,,,,,,,,,,,,,,,,,,,,,,,,,,,,,,,,,,,,,,,,,,,,
,,,,,,,,,,,,,,,,,55d7e6f669dbc30012b6826e,65,2022-02-12_18h02.17.567,lexical_decision_task_DD_L3,2021.2.3,Linux armv8l,29.91593622,,0,-0.321205819,-0.297566986,1,0,0,1.0111,button_left,1.0111,1,0,8,8,13,1,1001,ROUPET,z,,,,,,,,,,,,,,,,,,,,,,,,,,,,,,,,,,,,,,,,,,,,,,,,,,,,,,,,,,,,,,,
,,,,,,,,,,,,,,,,,55d7e6f669dbc30012b6826e,65,2022-02-12_18h02.17.567,lexical_decision_task_DD_L3,2021.2.3,Linux armv8l,29.91593622,,0,0.323284817,-0.339184952,1,0,0,0.9832,button_right,0.9832,1,0,9,9,6,1,1001,ZOMBIE,m,,,,,,,,,,,,,,,,,,,,,,,,,,,,,,,,,,,,,,,,,,,,,,,,,,,,,,,,,,,,,,,
,,,,,,,,,,,,,,,,,55d7e6f669dbc30012b6826e,65,2022-02-12_18h02.17.567,lexical_decision_task_DD_L3,2021.2.3,Linux armv8l,29.91593622,,0,-0.306652796,-0.343346786,1,0,0,1.0305,button_left,1.0305,1,0,10,10,8,1,1001,ASLERT,z,,,,,,,,,,,,,,,,,,,,,,,,,,,,,,,,,,,,,,,,,,,,,,,,,,,,,,,,,,,,,,,
,,,,,,,,,,,,,,,,,55d7e6f669dbc30012b6826e,65,2022-02-12_18h02.17.567,lexical_decision_task_DD_L3,2021.2.3,Linux armv8l,29.91593622,,0,-0.28794179,-0.320456982,1,0,0,0.9985,button_left,0.9985,1,0,11,11,12,1,1001,SPRINY,z,,,,,,,,,,,,,,,,,,,,,,,,,,,,,,,,,,,,,,,,,,,,,,,,,,,,,,,,,,,,,,,
,,,,,,,,,,,,,,,,,55d7e6f669dbc30012b6826e,65,2022-02-12_18h02.17.567,lexical_decision_task_DD_L3,2021.2.3,Linux armv8l,29.91593622,,0,-0.277546787,-0.332942486,1,0,0,1.3317,button_left,1.3317,1,0,12,12,11,1,1001,RASHET,z,,,,,,,,,,,,,,,,,,,,,,,,,,,,,,,,,,,,,,,,,,,,,,,,,,,,,,,,,,,,,,,
,,,,,,,,,,,,,,,,,55d7e6f669dbc30012b6826e,65,2022-02-12_18h02.17.567,lexical_decision_task_DD_L3,2021.2.3,Linux armv8l,29.91593622,,0,-0.292099786,-0.280919933,1,0,0,0.895,button_left,0.895,1,0,13,13,9,1,1001,FARINY,z,,,,,,,,,,,,,,,,,,,,,,,,,,,,,,,,,,,,,,,,,,,,,,,,,,,,,,,,,,,,,,,
,,,,,,,,,,,,,,,,,55d7e6f669dbc30012b6826e,65,2022-02-12_18h02.17.567,lexical_decision_task_DD_L3,2021.2.3,Linux armv8l,29.91593622,,0,-0.269230771,-0.266353607,1,0,0,0.8955,button_left,0.8955,1,0,14,14,15,1,1001,WHAISE,z,,,,,,,,,,,,,,,,,,,,,,,,,,,,,,,,,,,,,,,,,,,,,,,,,,,,,,,,,,,,,,,
,,,,,,,,,,,,,,,,,55d7e6f669dbc30012b6826e,65,2022-02-12_18h02.17.567,lexical_decision_task_DD_L3,2021.2.3,Linux armv8l,29.91593622,,0,-0.248440742,-0.332942486,1,0,0,0.9117,button_left,0.9117,1,0,15,15,10,1,1001,INLADE,z,,,,,,,,,,,,,,,,,,,,,,,,,,,,,,,,,,,,,,,,,,,,,,,,,,,,,,,,,,,,,,,
,0.065488577,-0.399531078,1,0,0,instr_done_button,,,,,,1,end_of_practice,"You have completed the practice trials. During the experimental trials, you will not receive feedback. 
Before you begin, please ensure that you are in a comfortable and quiet location and will not be disturbed for about 15 minutes, as we cannot use your data if you do not complete all the trials. 
 When you are ready to start the experimental trials, please press space or touch the button below.",,,55d7e6f669dbc30012b6826e,65,2022-02-12_18h02.17.567,lexical_decision_task_DD_L3,2021.2.3,Linux armv8l,29.91593622,,,,,,,,,,,,,,,,,,,,0,0,0,0,1,,,,,,,,,,,,,,,,,,,,,,,,,,,,,,,,,,,,,,,,,,,,,,,,,,,,,,,,,,
,,,,,,,,,,,,,,,,,55d7e6f669dbc30012b6826e,65,2022-02-12_18h02.17.567,lexical_decision_task_DD_L3,2021.2.3,Linux armv8l,29.91593622,,,,,,,,,,1.4574,1,,,,,,,,,,,,,,,0,-0.310810816,-0.301728821,1,0,0,1.4574,button_left_main,-0.310810816,-0.301728821,1,0,0,,0,0,0,159,1,CUDDY,C,old,z,./images/CUDDY.png,,,,,,,,,,,,,,,,,,,,,,,,,,,,,,,,,
,,,,,,,,,,,,,,,,,55d7e6f669dbc30012b6826e,65,2022-02-12_18h02.17.567,lexical_decision_task_DD_L3,2021.2.3,Linux armv8l,29.91593622,,,,,,,,,,2.2845,1,,,,,,,,,,,,,,,0,-0.28794179,-0.355832195,1,0,0,2.2845,button_left_main,-0.28794179,-0.355832195,1,0,0,,0,1,1,88,1,GLUSH,HB,old,z,./images/GLUSHHB.png,,,,,,,,,,,,,,,,,,,,,,,,,,,,,,,,,
,,,,,,,,,,,,,,,,,55d7e6f669dbc30012b6826e,65,2022-02-12_18h02.17.567,lexical_decision_task_DD_L3,2021.2.3,Linux armv8l,29.91593622,,,,,,,,,,1.1894,1,,,,,,,,,,,,,,,0,0.321205902,-0.332942486,1,0,0,1.1894,button_right_main,0.321205902,-0.332942486,1,0,0,,0,2,2,42,1,FOLDER,LB,old,m,./images/FOLDERLB.png,,,,,,,,,,,,,,,,,,,,,,,,,,,,,,,,,
,,,,,,,,,,,,,,,,,55d7e6f669dbc30012b6826e,65,2022-02-12_18h02.17.567,lexical_decision_task_DD_L3,2021.2.3,Linux armv8l,29.91593622,,,,,,,,,,0.8824,1,,,,,,,,,,,,,,,0,0.321205902,-0.353751278,1,0,0,0.8824,button_right_main,0.321205902,-0.353751278,1,0,0,,0,3,3,79,1,CRUST,C,old,m,./images/CRUST.png,,,,,,,,,,,,,,,,,,,,,,,,,,,,,,,,,
,,,,,,,,,,,,,,,,,55d7e6f669dbc30012b6826e,65,2022-02-12_18h02.17.567,lexical_decision_task_DD_L3,2021.2.3,Linux armv8l,29.91593622,,,,,,,,,,0.9506,1,,,,,,,,,,,,,,,0,0.333679867,-0.335023308,1,0,0,0.9506,button_right_main,0.333679867,-0.335023308,1,0,0,,0,4,4,56,1,PACKET,HB,old,m,./images/PACKETHB.png,,,,,,,,,,,,,,,,,,,,,,,,,,,,,,,,,
,,,,,,,,,,,,,,,,,55d7e6f669dbc30012b6826e,65,2022-02-12_18h02.17.567,lexical_decision_task_DD_L3,2021.2.3,Linux armv8l,29.91593622,,,,,,,,,,0.8382,1,,,,,,,,,,,,,,,0,0.335758877,-0.339184952,1,0,0,0.8382,button_right_main,0.335758877,-0.339184952,1,0,0,,0,5,5,19,1,DOUGH,C,old,m,./images/DOUGH.png,,,,,,,,,,,,,,,,,,,,,,,,,,,,,,,,,
,,,,,,,,,,,,,,,,,55d7e6f669dbc30012b6826e,65,2022-02-12_18h02.17.567,lexical_decision_task_DD_L3,2021.2.3,Linux armv8l,29.91593622,,,,,,,,,,0.8517,1,,,,,,,,,,,,,,,0,0.327442837,-0.337104034,1,0,0,0.8517,button_right_main,0.327442837,-0.337104034,1,0,0,,0,6,6,77,1,COUCH,HB,old,m,./images/COUCHHB.png,,,,,,,,,,,,,,,,,,,,,,,,,,,,,,,,,
,,,,,,,,,,,,,,,,,55d7e6f669dbc30012b6826e,65,2022-02-12_18h02.17.567,lexical_decision_task_DD_L3,2021.2.3,Linux armv8l,29.91593622,,,,,,,,,,1.0169,1,,,,,,,,,,,,,,,0,-0.28170476,-0.318376064,1,0,0,1.0169,button_left_main,-0.28170476,-0.318376064,1,0,0,,0,7,7,116,1,BALGY,LB,old,z,./images/BALGYLB.png,,,,,,,,,,,,,,,,,,,,,,,,,,,,,,,,,
,,,,,,,,,,,,,,,,,55d7e6f669dbc30012b6826e,65,2022-02-12_18h02.17.567,lexical_decision_task_DD_L3,2021.2.3,Linux armv8l,29.91593622,,,,,,,,,,0.9188,1,,,,,,,,,,,,,,,0,0.314968872,-0.310052395,1,0,0,0.9188,button_right_main,0.314968872,-0.310052395,1,0,0,,0,8,8,73,1,SNACK,C,old,m,./images/SNACK.png,,,,,,,,,,,,,,,,,,,,,,,,,,,,,,,,,
,,,,,,,,,,,,,,,,,55d7e6f669dbc30012b6826e,65,2022-02-12_18h02.17.567,lexical_decision_task_DD_L3,2021.2.3,Linux armv8l,29.91593622,,,,,,,,,,0.9104,1,,,,,,,,,,,,,,,0,-0.329521811,-0.301728821,1,0,0,0.9104,button_left_main,-0.329521811,-0.301728821,1,0,0,,0,9,9,107,1,FASKS,LB,old,z,./images/FASKSLB.png,,,,,,,,,,,,,,,,,,,,,,,,,,,,,,,,,
,,,,,,,,,,,,,,,,,55d7e6f669dbc30012b6826e,65,2022-02-12_18h02.17.567,lexical_decision_task_DD_L3,2021.2.3,Linux armv8l,29.91593622,,,,,,,,,,1.8932,1,,,,,,,,,,,,,,,0,-0.225571728,-0.316295147,1,0,0,1.8932,button_left_main,-0.225571728,-0.316295147,1,0,0,,0,10,10,145,1,LAMEL,HB,old,z,./images/LAMELHB.png,,,,,,,,,,,,,,,,,,,,,,,,,,,,,,,,,
,,,,,,,,,,,,,,,,,55d7e6f669dbc30012b6826e,65,2022-02-12_18h02.17.567,lexical_decision_task_DD_L3,2021.2.3,Linux armv8l,29.91593622,,,,,,,,,,0.9229,1,,,,,,,,,,,,,,,0,-0.246361732,-0.316295147,1,0,0,0.9229,button_left_main,-0.246361732,-0.316295147,1,0,0,,0,11,11,119,1,PAFER,LB,old,z,./images/PAFERLB.png,,,,,,,,,,,,,,,,,,,,,,,,,,,,,,,,,
,,,,,,,,,,,,,,,,,55d7e6f669dbc30012b6826e,65,2022-02-12_18h02.17.567,lexical_decision_task_DD_L3,2021.2.3,Linux armv8l,29.91593622,,,,,,,,,,1.1803,1,,,,,,,,,,,,,,,0,-0.240124726,-0.307971573,1,0,0,1.1803,button_left_main,-0.240124726,-0.307971573,1,0,0,,0,12,12,160,1,VEETS,HB,old,z,./images/VEETSHB.png,,,,,,,,,,,,,,,,,,,,,,,,,,,,,,,,,
,,,,,,,,,,,,,,,,,55d7e6f669dbc30012b6826e,65,2022-02-12_18h02.17.567,lexical_decision_task_DD_L3,2021.2.3,Linux armv8l,29.91593622,,,,,,,,,,1.2198,1,,,,,,,,,,,,,,,0,0.281704855,-0.351670361,1,0,0,1.2198,button_right_main,0.281704855,-0.351670361,1,0,0,,0,13,13,80,1,WEASEL,HB,old,m,./images/WEASELHB.png,,,,,,,,,,,,,,,,,,,,,,,,,,,,,,,,,
,,,,,,,,,,,,,,,,,55d7e6f669dbc30012b6826e,65,2022-02-12_18h02.17.567,lexical_decision_task_DD_L3,2021.2.3,Linux armv8l,29.91593622,,,,,,,,,,0.9483,1,,,,,,,,,,,,,,,0,0.296257782,-0.332942486,1,0,0,0.9483,button_right_main,0.296257782,-0.332942486,1,0,0,,0,14,14,58,1,BABOON,C,old,m,./images/BABOON.png,,,,,,,,,,,,,,,,,,,,,,,,,,,,,,,,,
,,,,,,,,,,,,,,,,,55d7e6f669dbc30012b6826e,65,2022-02-12_18h02.17.567,lexical_decision_task_DD_L3,2021.2.3,Linux armv8l,29.91593622,,,,,,,,,,1.0479,1,,,,,,,,,,,,,,,0,-0.2297297,-0.316295147,1,0,0,1.0479,button_left_main,-0.2297297,-0.316295147,1,0,0,,0,15,15,135,1,JOODY,C,old,z,./images/JOODY.png,,,,,,,,,,,,,,,,,,,,,,,,,,,,,,,,,
,,,,,,,,,,,,,,,,,55d7e6f669dbc30012b6826e,65,2022-02-12_18h02.17.567,lexical_decision_task_DD_L3,2021.2.3,Linux armv8l,29.91593622,,,,,,,,,,0.9823,1,,,,,,,,,,,,,,,0,-0.242203736,-0.295486259,1,0,0,0.9823,button_left_main,-0.242203736,-0.295486259,1,0,0,,0,16,16,126,1,GUELS,C,old,z,./images/GUELS.png,,,,,,,,,,,,,,,,,,,,,,,,,,,,,,,,,
,,,,,,,,,,,,,,,,,55d7e6f669dbc30012b6826e,65,2022-02-12_18h02.17.567,lexical_decision_task_DD_L3,2021.2.3,Linux armv8l,29.91593622,,,,,,,,,,0.9623,1,,,,,,,,,,,,,,,0,0.292099762,-0.339184952,1,0,0,0.9623,button_right_main,0.292099762,-0.339184952,1,0,0,,0,17,17,60,1,TWINS,LB,old,m,./images/TWINSLB.png,,,,,,,,,,,,,,,,,,,,,,,,,,,,,,,,,
,,,,,,,,,,,,,,,,,55d7e6f669dbc30012b6826e,65,2022-02-12_18h02.17.567,lexical_decision_task_DD_L3,2021.2.3,Linux armv8l,29.91593622,,,,,,,,,,0.862,1,,,,,,,,,,,,,,,0,0.314968872,-0.339184952,1,0,0,0.862,button_right_main,0.314968872,-0.339184952,1,0,0,,0,18,18,25,1,WRIST,C,old,m,./images/WRIST.png,,,,,,,,,,,,,,,,,,,,,,,,,,,,,,,,,
,,,,,,,,,,,,,,,,,55d7e6f669dbc30012b6826e,65,2022-02-12_18h02.17.567,lexical_decision_task_DD_L3,2021.2.3,Linux armv8l,29.91593622,,,,,,,,,,0.9704,1,,,,,,,,,,,,,,,0,0.302494812,-0.345427704,1,0,0,0.9704,button_right_main,0.302494812,-0.345427704,1,0,0,,0,19,19,38,1,LADDER,HB,old,m,./images/LADDERHB.png,,,,,,,,,,,,,,,,,,,,,,,,,,,,,,,,,
,,,,,,,,,,,,,,,,,55d7e6f669dbc30012b6826e,65,2022-02-12_18h02.17.567,lexical_decision_task_DD_L3,2021.2.3,Linux armv8l,29.91593622,,,,,,,,,,0.7909,1,,,,,,,,,,,,,,,0,0.306652832,-0.339184952,1,0,0,0.7909,button_right_main,0.306652832,-0.339184952,1,0,0,,0,20,20,61,1,CANDLE,C,old,m,./images/CANDLE.png,,,,,,,,,,,,,,,,,,,,,,,,,,,,,,,,,
,,,,,,,,,,,,,,,,,55d7e6f669dbc30012b6826e,65,2022-02-12_18h02.17.567,lexical_decision_task_DD_L3,2021.2.3,Linux armv8l,29.91593622,,,,,,,,,,0.6823,1,,,,,,,,,,,,,,,0,0.306652832,-0.347508621,1,0,0,0.6823,button_right_main,0.306652832,-0.347508621,1,0,0,,0,21,21,39,1,SHELF,LB,old,m,./images/SHELFLB.png,,,,,,,,,,,,,,,,,,,,,,,,,,,,,,,,,
,,,,,,,,,,,,,,,,,55d7e6f669dbc30012b6826e,65,2022-02-12_18h02.17.567,lexical_decision_task_DD_L3,2021.2.3,Linux armv8l,29.91593622,,,,,,,,,,0.8819,1,,,,,,,,,,,,,,,0,0.306652832,-0.347508621,1,0,0,0.8819,button_right_main,0.306652832,-0.347508621,1,0,0,,0,22,22,83,1,JUNGLE,HB,old,m,./images/JUNGLEHB.png,,,,,,,,,,,,,,,,,,,,,,,,,,,,,,,,,
,,,,,,,,,,,,,,,,,55d7e6f669dbc30012b6826e,65,2022-02-12_18h02.17.567,lexical_decision_task_DD_L3,2021.2.3,Linux armv8l,29.91593622,,,,,,,,,,0.7641,1,,,,,,,,,,,,,,,0,0.312889862,-0.332942486,1,0,0,0.7641,button_right_main,0.312889862,-0.332942486,1,0,0,,0,23,23,46,1,PEARL,C,old,m,./images/PEARL.png,,,,,,,,,,,,,,,,,,,,,,,,,,,,,,,,,
,,,,,,,,,,,,,,,,,55d7e6f669dbc30012b6826e,65,2022-02-12_18h02.17.567,lexical_decision_task_DD_L3,2021.2.3,Linux armv8l,29.91593622,,,,,,,,,,1.1162,1,,,,,,,,,,,,,,,0,-0.269230771,-0.291324425,1,0,0,1.1162,button_left_main,-0.269230771,-0.291324425,1,0,0,,0,24,24,92,1,PAIMS,LB,old,z,./images/PAIMSLB.png,,,,,,,,,,,,,,,,,,,,,,,,,,,,,,,,,
,,,,,,,,,,,,,,,,,55d7e6f669dbc30012b6826e,65,2022-02-12_18h02.17.567,lexical_decision_task_DD_L3,2021.2.3,Linux armv8l,29.91593622,,,,,,,,,,0.946,1,,,,,,,,,,,,,,,0,-0.23180871,-0.310052395,1,0,0,0.946,button_left_main,-0.23180871,-0.310052395,1,0,0,,0,25,25,87,1,TRING,C,old,z,./images/TRING.png,,,,,,,,,,,,,,,,,,,,,,,,,,,,,,,,,
,,,,,,,,,,,,,,,,,55d7e6f669dbc30012b6826e,65,2022-02-12_18h02.17.567,lexical_decision_task_DD_L3,2021.2.3,Linux armv8l,29.91593622,,,,,,,,,,1.2305,1,,,,,,,,,,,,,,,0,0.331600857,-0.322537804,1,0,0,1.2305,button_right_main,0.331600857,-0.322537804,1,0,0,,0,26,26,43,1,MOSQUE,C,old,m,./images/MOSQUE.png,,,,,,,,,,,,,,,,,,,,,,,,,,,,,,,,,
,,,,,,,,,,,,,,,,,55d7e6f669dbc30012b6826e,65,2022-02-12_18h02.17.567,lexical_decision_task_DD_L3,2021.2.3,Linux armv8l,29.91593622,,,,,,,,,,1.5685,1,,,,,,,,,,,,,,,0,0.333679867,-0.316295147,1,0,0,1.5685,button_right_main,0.333679867,-0.316295147,1,0,0,,0,27,27,2,1,BEARD,HB,old,m,./images/BEARDHB.png,,,,,,,,,,,,,,,,,,,,,,,,,,,,,,,,,
,,,,,,,,,,,,,,,,,55d7e6f669dbc30012b6826e,65,2022-02-12_18h02.17.567,lexical_decision_task_DD_L3,2021.2.3,Linux armv8l,29.91593622,,,,,,,,,,1.3003,1,,,,,,,,,,,,,,,0,-0.302494812,-0.324618816,1,0,0,1.3003,button_left_main,-0.302494812,-0.324618816,1,0,0,,0,28,28,134,1,TROSS,LB,old,z,./images/TROSSLB.png,,,,,,,,,,,,,,,,,,,,,,,,,,,,,,,,,
,,,,,,,,,,,,,,,,,55d7e6f669dbc30012b6826e,65,2022-02-12_18h02.17.567,lexical_decision_task_DD_L3,2021.2.3,Linux armv8l,29.91593622,,,,,,,,,,0.881,1,,,,,,,,,,,,,,,0,0.250519753,-0.310052395,1,0,0,0.881,button_right_main,0.250519753,-0.310052395,1,0,0,,0,29,29,24,1,SCREW,LB,old,m,./images/SCREWLB.png,,,,,,,,,,,,,,,,,,,,,,,,,,,,,,,,,
,,,,,,,,,,,,,,,,,55d7e6f669dbc30012b6826e,65,2022-02-12_18h02.17.567,lexical_decision_task_DD_L3,2021.2.3,Linux armv8l,29.91593622,,,,,,,,,,0.9223,1,,,,,,,,,,,,,,,0,-0.292099786,-0.330861473,1,0,0,0.9223,button_left_main,-0.292099786,-0.330861473,1,0,0,,0,30,30,101,1,GLEET,LB,old,z,./images/GLEETLB.png,,,,,,,,,,,,,,,,,,,,,,,,,,,,,,,,,
,,,,,,,,,,,,,,,,,55d7e6f669dbc30012b6826e,65,2022-02-12_18h02.17.567,lexical_decision_task_DD_L3,2021.2.3,Linux armv8l,29.91593622,,,,,,,,,,0.9201,1,,,,,,,,,,,,,,,0,-0.23388772,-0.337104034,1,0,0,0.9201,button_left_main,-0.23388772,-0.337104034,1,0,0,,0,31,31,164,1,SGREW,LB,old,z,./images/SGREWLB.png,,,,,,,,,,,,,,,,,,,,,,,,,,,,,,,,,
,,,,,,,,,,,,,,,,,55d7e6f669dbc30012b6826e,65,2022-02-12_18h02.17.567,lexical_decision_task_DD_L3,2021.2.3,Linux armv8l,29.91593622,,,,,,,,,,1.116,1,,,,,,,,,,,,,,,0,0.354469872,-0.289243603,1,0,0,1.116,button_right_main,0.354469872,-0.289243603,1,0,0,,0,32,32,74,1,CEMENT,HB,old,m,./images/CEMENTHB.png,,,,,,,,,,,,,,,,,,,,,,,,,,,,,,,,,
,,,,,,,,,,,,,,,,,55d7e6f669dbc30012b6826e,65,2022-02-12_18h02.17.567,lexical_decision_task_DD_L3,2021.2.3,Linux armv8l,29.91593622,,,,,,,,,,0.9028,1,,,,,,,,,,,,,,,0,0.333679867,-0.364155865,1,0,0,0.9028,button_right_main,0.333679867,-0.364155865,1,0,0,,0,33,33,64,1,JELLY,C,old,m,./images/JELLY.png,,,,,,,,,,,,,,,,,,,,,,,,,,,,,,,,,
,,,,,,,,,,,,,,,,,55d7e6f669dbc30012b6826e,65,2022-02-12_18h02.17.567,lexical_decision_task_DD_L3,2021.2.3,Linux armv8l,29.91593622,,,,,,,,,,0.7649,1,,,,,,,,,,,,,,,0,0.333679867,-0.316295147,1,0,0,0.7649,button_right_main,0.333679867,-0.316295147,1,0,0,,0,34,34,67,1,SAILOR,C,old,m,./images/SAILOR.png,,,,,,,,,,,,,,,,,,,,,,,,,,,,,,,,,
,,,,,,,,,,,,,,,,,55d7e6f669dbc30012b6826e,65,2022-02-12_18h02.17.567,lexical_decision_task_DD_L3,2021.2.3,Linux armv8l,29.91593622,,,,,,,,,,0.7644,1,,,,,,,,,,,,,,,0,0.333679867,-0.332942486,1,0,0,0.7644,button_right_main,0.333679867,-0.332942486,1,0,0,,0,35,35,16,1,PENCE,C,old,m,./images/PENCE.png,,,,,,,,,,,,,,,,,,,,,,,,,,,,,,,,,
,,,,,,,,,,,,,,,,,55d7e6f669dbc30012b6826e,65,2022-02-12_18h02.17.567,lexical_decision_task_DD_L3,2021.2.3,Linux armv8l,29.91593622,,,,,,,,,,1.6874,1,,,,,,,,,,,,,,,0,0.327442837,-0.310052395,1,0,0,1.6874,button_right_main,0.327442837,-0.310052395,1,0,0,,0,36,36,8,1,TULIP,HB,old,m,./images/TULIPHB.png,,,,,,,,,,,,,,,,,,,,,,,,,,,,,,,,,
,,,,,,,,,,,,,,,,,55d7e6f669dbc30012b6826e,65,2022-02-12_18h02.17.567,lexical_decision_task_DD_L3,2021.2.3,Linux armv8l,29.91593622,,,,,,,,,,0.8007,1,,,,,,,,,,,,,,,0,0.329521847,-0.324618816,1,0,0,0.8007,button_right_main,0.329521847,-0.324618816,1,0,0,,0,37,37,7,1,PAINT,C,old,m,./images/PAINT.png,,,,,,,,,,,,,,,,,,,,,,,,,,,,,,,,,
,,,,,,,,,,,,,,,,,55d7e6f669dbc30012b6826e,65,2022-02-12_18h02.17.567,lexical_decision_task_DD_L3,2021.2.3,Linux armv8l,29.91593622,,,,,,,,,,1.2593,1,,,,,,,,,,,,,,,0,-0.23180871,-0.28716259,1,0,0,1.2593,button_left_main,-0.23180871,-0.28716259,1,0,0,,0,38,38,85,1,CHULK,HB,old,z,./images/CHULKHB.png,,,,,,,,,,,,,,,,,,,,,,,,,,,,,,,,,
,,,,,,,,,,,,,,,,,55d7e6f669dbc30012b6826e,65,2022-02-12_18h02.17.567,lexical_decision_task_DD_L3,2021.2.3,Linux armv8l,29.91593622,,,,,,,,,,1.0975,1,,,,,,,,,,,,,,,0,-0.246361732,-0.324618816,1,0,0,1.0975,button_left_main,-0.246361732,-0.324618816,1,0,0,,0,39,39,93,1,SMONE,C,old,z,./images/SMONE.png,,,,,,,,,,,,,,,,,,,,,,,,,,,,,,,,,
,,,,,,,,,,,,,,,,,55d7e6f669dbc30012b6826e,65,2022-02-12_18h02.17.567,lexical_decision_task_DD_L3,2021.2.3,Linux armv8l,29.91593622,,,,,,,,,,1.4828,1,,,,,,,,,,,,,,,0,-0.221413732,-0.324618816,1,0,0,1.4828,button_left_main,-0.221413732,-0.324618816,1,0,0,,0,40,40,162,1,LEICH,C,old,z,./images/LEICH.png,,,,,,,,,,,,,,,,,,,,,,,,,,,,,,,,,
,,,,,,,,,,,,,,,,,55d7e6f669dbc30012b6826e,65,2022-02-12_18h02.17.567,lexical_decision_task_DD_L3,2021.2.3,Linux armv8l,29.91593622,,,,,,,,,,0.8108,1,,,,,,,,,,,,,,,0,-0.23180871,-0.305890656,1,0,0,0.8108,button_left_main,0.096673584,-0.397450161,1,0,0,,0,41,41,163,1,GAMBA,HB,old,z,./images/GAMBAHB.png,break_done_button,,,,,,,,,,,,,,,,,,,,,,,,,,,,,,,,
,,,,,,,,,,,,,,,,,55d7e6f669dbc30012b6826e,65,2022-02-12_18h02.17.567,lexical_decision_task_DD_L3,2021.2.3,Linux armv8l,29.91593622,,,,,,,,,,1.0909,1,,,,,,,,,,,,,,,0,-0.223492718,-0.330861473,1,0,0,1.0909,button_left_main,-0.223492718,-0.330861473,1,0,0,,0,42,42,110,1,CRUNK,LB,old,z,./images/CRUNKLB.png,,,,,,,,,,,,,,,,,,,,,,,,,,,,,,,,,
,,,,,,,,,,,,,,,,,55d7e6f669dbc30012b6826e,65,2022-02-12_18h02.17.567,lexical_decision_task_DD_L3,2021.2.3,Linux armv8l,29.91593622,,,,,,,,,,1.6841,1,,,,,,,,,,,,,,,0,-0.23804574,-0.31421423,1,0,0,1.6841,button_left_main,-0.23804574,-0.31421423,1,0,0,,0,43,43,127,1,NINDY,HB,old,z,./images/NINDYHB.png,,,,,,,,,,,,,,,,,,,,,,,,,,,,,,,,,
,,,,,,,,,,,,,,,,,55d7e6f669dbc30012b6826e,65,2022-02-12_18h02.17.567,lexical_decision_task_DD_L3,2021.2.3,Linux armv8l,29.91593622,,,,,,,,,,0.8911,1,,,,,,,,,,,,,,,0,-0.275467777,-0.310052395,1,0,0,0.8911,button_left_main,-0.275467777,-0.310052395,1,0,0,,0,44,44,86,1,AIFED,LB,old,z,./images/AIFEDLB.png,,,,,,,,,,,,,,,,,,,,,,,,,,,,,,,,,
,,,,,,,,,,,,,,,,,55d7e6f669dbc30012b6826e,65,2022-02-12_18h02.17.567,lexical_decision_task_DD_L3,2021.2.3,Linux armv8l,29.91593622,,,,,,,,,,1.3827,1,,,,,,,,,,,,,,,0,0.312889862,-0.332942486,1,0,0,1.3827,button_right_main,0.312889862,-0.332942486,1,0,0,,0,45,45,53,1,CARPET,HB,old,m,./images/CARPETHB.png,,,,,,,,,,,,,,,,,,,,,,,,,,,,,,,,,
,,,,,,,,,,,,,,,,,55d7e6f669dbc30012b6826e,65,2022-02-12_18h02.17.567,lexical_decision_task_DD_L3,2021.2.3,Linux armv8l,29.91593622,,,,,,,,,,1.3366,1,,,,,,,,,,,,,,,0,0.323284817,-0.339184952,1,0,0,1.3366,button_right_main,0.323284817,-0.339184952,1,0,0,,0,46,46,71,1,PIMPLE,HB,old,m,./images/PIMPLEHB.png,,,,,,,,,,,,,,,,,,,,,,,,,,,,,,,,,
,,,,,,,,,,,,,,,,,55d7e6f669dbc30012b6826e,65,2022-02-12_18h02.17.567,lexical_decision_task_DD_L3,2021.2.3,Linux armv8l,29.91593622,,,,,,,,,,0.866,1,,,,,,,,,,,,,,,0,0.429313946,-0.26427269,1,0,0,0.866,button_right_main,0.429313946,-0.26427269,1,0,0,,0,47,47,27,1,ATTIC,LB,old,m,./images/ATTICLB.png,,,,,,,,,,,,,,,,,,,,,,,,,,,,,,,,,
,,,,,,,,,,,,,,,,,55d7e6f669dbc30012b6826e,65,2022-02-12_18h02.17.567,lexical_decision_task_DD_L3,2021.2.3,Linux armv8l,29.91593622,,,,,,,,,,0.997,1,,,,,,,,,,,,,,,0,-0.302494812,-0.249706554,1,0,0,0.997,button_left_main,-0.302494812,-0.249706554,1,0,0,,0,48,48,96,1,KEAMS,C,old,z,./images/KEAMS.png,,,,,,,,,,,,,,,,,,,,,,,,,,,,,,,,,
,,,,,,,,,,,,,,,,,55d7e6f669dbc30012b6826e,65,2022-02-12_18h02.17.567,lexical_decision_task_DD_L3,2021.2.3,Linux armv8l,29.91593622,,,,,,,,,,2.1025,1,,,,,,,,,,,,,,,0,-0.294178796,-0.316295147,1,0,0,2.1025,button_left_main,-0.294178796,-0.316295147,1,0,0,,0,49,49,136,1,WERVE,HB,old,z,./images/WERVEHB.png,,,,,,,,,,,,,,,,,,,,,,,,,,,,,,,,,
,,,,,,,,,,,,,,,,,55d7e6f669dbc30012b6826e,65,2022-02-12_18h02.17.567,lexical_decision_task_DD_L3,2021.2.3,Linux armv8l,29.91593622,,,,,,,,,,1.1894,1,,,,,,,,,,,,,,,0,0.341995811,-0.316295147,1,0,0,1.1894,button_right_main,0.341995811,-0.316295147,1,0,0,,0,50,50,57,1,MOOSE,LB,old,m,./images/MOOSELB.png,,,,,,,,,,,,,,,,,,,,,,,,,,,,,,,,,
,,,,,,,,,,,,,,,,,55d7e6f669dbc30012b6826e,65,2022-02-12_18h02.17.567,lexical_decision_task_DD_L3,2021.2.3,Linux armv8l,29.91593622,,,,,,,,,,1.266,1,,,,,,,,,,,,,,,0,0.341995811,-0.316295147,1,0,0,1.266,button_right_main,0.341995811,-0.316295147,1,0,0,,0,51,51,62,1,PURSE,HB,old,m,./images/PURSEHB.png,,,,,,,,,,,,,,,,,,,,,,,,,,,,,,,,,
,,,,,,,,,,,,,,,,,55d7e6f669dbc30012b6826e,65,2022-02-12_18h02.17.567,lexical_decision_task_DD_L3,2021.2.3,Linux armv8l,29.91593622,,,,,,,,,,1.4331,1,,,,,,,,,,,,,,,0,-0.265072751,-0.301728821,1,0,0,1.4331,button_left_main,-0.265072751,-0.301728821,1,0,0,,0,52,52,112,1,MYING,HB,old,z,./images/MYINGHB.png,,,,,,,,,,,,,,,,,,,,,,,,,,,,,,,,,
,,,,,,,,,,,,,,,,,55d7e6f669dbc30012b6826e,65,2022-02-12_18h02.17.567,lexical_decision_task_DD_L3,2021.2.3,Linux armv8l,29.91593622,,,,,,,,,,0.9002,1,,,,,,,,,,,,,,,0,0.323284817,-0.326699638,1,0,0,0.9002,button_right_main,0.323284817,-0.326699638,1,0,0,,0,53,53,28,1,FALCON,C,old,m,./images/FALCON.png,,,,,,,,,,,,,,,,,,,,,,,,,,,,,,,,,
,,,,,,,,,,,,,,,,,55d7e6f669dbc30012b6826e,65,2022-02-12_18h02.17.567,lexical_decision_task_DD_L3,2021.2.3,Linux armv8l,29.91593622,,,,,,,,,,1.3327,0,,,,,,,,,,,,,,,0,0.323284817,-0.330861473,1,0,0,1.3327,button_right_main,0.323284817,-0.330861473,1,0,0,,0,54,54,109,1,BURGE,HB,old,z,./images/BURGEHB.png,,,,,,,,,,,,,,,,,,,,,,,,,,,,,,,,,
,,,,,,,,,,,,,,,,,55d7e6f669dbc30012b6826e,65,2022-02-12_18h02.17.567,lexical_decision_task_DD_L3,2021.2.3,Linux armv8l,29.91593622,,,,,,,,,,0.8162,1,,,,,,,,,,,,,,,0,0.333679867,-0.330861473,1,0,0,0.8162,button_right_main,0.333679867,-0.330861473,1,0,0,,0,55,55,82,1,SUNSET,C,old,m,./images/SUNSET.png,,,,,,,,,,,,,,,,,,,,,,,,,,,,,,,,,
,,,,,,,,,,,,,,,,,55d7e6f669dbc30012b6826e,65,2022-02-12_18h02.17.567,lexical_decision_task_DD_L3,2021.2.3,Linux armv8l,29.91593622,,,,,,,,,,1.0782,1,,,,,,,,,,,,,,,0,-0.277546787,-0.337104034,1,0,0,1.0782,button_left_main,-0.277546787,-0.337104034,1,0,0,,0,56,56,104,1,GITTY,LB,old,z,./images/GITTYLB.png,,,,,,,,,,,,,,,,,,,,,,,,,,,,,,,,,
,,,,,,,,,,,,,,,,,55d7e6f669dbc30012b6826e,65,2022-02-12_18h02.17.567,lexical_decision_task_DD_L3,2021.2.3,Linux armv8l,29.91593622,,,,,,,,,,0.9512,1,,,,,,,,,,,,,,,0,0.262993765,-0.332942486,1,0,0,0.9512,button_right_main,0.262993765,-0.332942486,1,0,0,,0,57,57,10,1,BELLY,C,old,m,./images/BELLY.png,,,,,,,,,,,,,,,,,,,,,,,,,,,,,,,,,
,,,,,,,,,,,,,,,,,55d7e6f669dbc30012b6826e,65,2022-02-12_18h02.17.567,lexical_decision_task_DD_L3,2021.2.3,Linux armv8l,29.91593622,,,,,,,,,,0.9751,1,,,,,,,,,,,,,,,0,-0.28586278,-0.347508621,1,0,0,0.9751,button_left_main,-0.28586278,-0.347508621,1,0,0,,0,58,58,89,1,DRIEK,LB,old,z,./images/DRIEKLB.png,,,,,,,,,,,,,,,,,,,,,,,,,,,,,,,,,
,,,,,,,,,,,,,,,,,55d7e6f669dbc30012b6826e,65,2022-02-12_18h02.17.567,lexical_decision_task_DD_L3,2021.2.3,Linux armv8l,29.91593622,,,,,,,,,,0.9676,1,,,,,,,,,,,,,,,0,0.292099762,-0.328780651,1,0,0,0.9676,button_right_main,0.292099762,-0.328780651,1,0,0,,0,59,59,1,1,PLANK,C,old,m,./images/PLANK.png,,,,,,,,,,,,,,,,,,,,,,,,,,,,,,,,,
,,,,,,,,,,,,,,,,,55d7e6f669dbc30012b6826e,65,2022-02-12_18h02.17.567,lexical_decision_task_DD_L3,2021.2.3,Linux armv8l,29.91593622,,,,,,,,,,1.1954,1,,,,,,,,,,,,,,,0,-0.200623703,-0.307971573,1,0,0,1.1954,button_left_main,-0.200623703,-0.307971573,1,0,0,,0,60,60,144,1,NAIRY,C,old,z,./images/NAIRY.png,,,,,,,,,,,,,,,,,,,,,,,,,,,,,,,,,
,,,,,,,,,,,,,,,,,55d7e6f669dbc30012b6826e,65,2022-02-12_18h02.17.567,lexical_decision_task_DD_L3,2021.2.3,Linux armv8l,29.91593622,,,,,,,,,,1.859,1,,,,,,,,,,,,,,,0,-0.246361732,-0.328780651,1,0,0,1.859,button_left_main,-0.246361732,-0.328780651,1,0,0,,0,61,61,106,1,CLUMS,HB,old,z,./images/CLUMSHB.png,,,,,,,,,,,,,,,,,,,,,,,,,,,,,,,,,
,,,,,,,,,,,,,,,,,55d7e6f669dbc30012b6826e,65,2022-02-12_18h02.17.567,lexical_decision_task_DD_L3,2021.2.3,Linux armv8l,29.91593622,,,,,,,,,,1.2002,1,,,,,,,,,,,,,,,0,0.331600857,-0.316295147,1,0,0,1.2002,button_right_main,0.331600857,-0.316295147,1,0,0,,0,62,62,32,1,BARREL,HB,old,m,./images/BARRELHB.png,,,,,,,,,,,,,,,,,,,,,,,,,,,,,,,,,
,,,,,,,,,,,,,,,,,55d7e6f669dbc30012b6826e,65,2022-02-12_18h02.17.567,lexical_decision_task_DD_L3,2021.2.3,Linux armv8l,29.91593622,,,,,,,,,,1.3901,1,,,,,,,,,,,,,,,0,0.323284817,-0.320456982,1,0,0,1.3901,button_right_main,0.323284817,-0.320456982,1,0,0,,0,63,63,41,1,STRING,HB,old,m,./images/STRINGHB.png,,,,,,,,,,,,,,,,,,,,,,,,,,,,,,,,,
,,,,,,,,,,,,,,,,,55d7e6f669dbc30012b6826e,65,2022-02-12_18h02.17.567,lexical_decision_task_DD_L3,2021.2.3,Linux armv8l,29.91593622,,,,,,,,,,0.9906,1,,,,,,,,,,,,,,,0,-0.246361732,-0.297566986,1,0,0,0.9906,button_left_main,-0.246361732,-0.297566986,1,0,0,,0,64,64,95,1,HANTY,LB,old,z,./images/HANTYLB.png,,,,,,,,,,,,,,,,,,,,,,,,,,,,,,,,,
,,,,,,,,,,,,,,,,,55d7e6f669dbc30012b6826e,65,2022-02-12_18h02.17.567,lexical_decision_task_DD_L3,2021.2.3,Linux armv8l,29.91593622,,,,,,,,,,1.2666,1,,,,,,,,,,,,,,,0,-0.225571728,-0.351670361,1,0,0,1.2666,button_left_main,-0.225571728,-0.351670361,1,0,0,,0,65,65,152,1,FRAIN,LB,old,z,./images/FRAINLB.png,,,,,,,,,,,,,,,,,,,,,,,,,,,,,,,,,
,,,,,,,,,,,,,,,,,55d7e6f669dbc30012b6826e,65,2022-02-12_18h02.17.567,lexical_decision_task_DD_L3,2021.2.3,Linux armv8l,29.91593622,,,,,,,,,,1.5668,1,,,,,,,,,,,,,,,0,-0.23804574,-0.326699638,1,0,0,1.5668,button_left_main,-0.23804574,-0.326699638,1,0,0,,0,66,66,148,1,JOMS,HB,old,z,./images/JOMSHB.png,,,,,,,,,,,,,,,,,,,,,,,,,,,,,,,,,
,,,,,,,,,,,,,,,,,55d7e6f669dbc30012b6826e,65,2022-02-12_18h02.17.567,lexical_decision_task_DD_L3,2021.2.3,Linux armv8l,29.91593622,,,,,,,,,,1.5657,1,,,,,,,,,,,,,,,0,0.306652832,-0.341265869,1,0,0,1.5657,button_right_main,0.306652832,-0.341265869,1,0,0,,0,67,67,50,1,MALLET,HB,old,m,./images/MALLETHB.png,,,,,,,,,,,,,,,,,,,,,,,,,,,,,,,,,
,,,,,,,,,,,,,,,,,55d7e6f669dbc30012b6826e,65,2022-02-12_18h02.17.567,lexical_decision_task_DD_L3,2021.2.3,Linux armv8l,29.91593622,,,,,,,,,,0.7995,1,,,,,,,,,,,,,,,0,0.319126892,-0.330861473,1,0,0,0.7995,button_right_main,0.319126892,-0.330861473,1,0,0,,0,68,68,13,1,MOTOR,C,old,m,./images/MOTOR.png,,,,,,,,,,,,,,,,,,,,,,,,,,,,,,,,,
,,,,,,,,,,,,,,,,,55d7e6f669dbc30012b6826e,65,2022-02-12_18h02.17.567,lexical_decision_task_DD_L3,2021.2.3,Linux armv8l,29.91593622,,,,,,,,,,0.8513,1,,,,,,,,,,,,,,,0,0.323284817,-0.351670361,1,0,0,0.8513,button_right_main,0.323284817,-0.351670361,1,0,0,,0,69,69,33,1,MAGGOT,LB,old,m,./images/MAGGOTLB.png,,,,,,,,,,,,,,,,,,,,,,,,,,,,,,,,,
,,,,,,,,,,,,,,,,,55d7e6f669dbc30012b6826e,65,2022-02-12_18h02.17.567,lexical_decision_task_DD_L3,2021.2.3,Linux armv8l,29.91593622,,,,,,,,,,1.0196,1,,,,,,,,,,,,,,,0,-0.254677725,-0.345427704,1,0,0,1.0196,button_left_main,-0.254677725,-0.345427704,1,0,0,,0,70,70,153,1,CLUPS,C,old,z,./images/CLUPS.png,,,,,,,,,,,,,,,,,,,,,,,,,,,,,,,,,
,,,,,,,,,,,,,,,,,55d7e6f669dbc30012b6826e,65,2022-02-12_18h02.17.567,lexical_decision_task_DD_L3,2021.2.3,Linux armv8l,29.91593622,,,,,,,,,,0.9675,1,,,,,,,,,,,,,,,0,-0.23596673,-0.322537804,1,0,0,0.9675,button_left_main,-0.23596673,-0.322537804,1,0,0,,0,71,71,105,1,MOKER,C,old,z,./images/MOKER.png,,,,,,,,,,,,,,,,,,,,,,,,,,,,,,,,,
,,,,,,,,,,,,,,,,,55d7e6f669dbc30012b6826e,65,2022-02-12_18h02.17.567,lexical_decision_task_DD_L3,2021.2.3,Linux armv8l,29.91593622,,,,,,,,,,0.915,1,,,,,,,,,,,,,,,0,-0.221413732,-0.335023308,1,0,0,0.915,button_left_main,-0.221413732,-0.335023308,1,0,0,,0,72,72,120,1,RINED,C,old,z,./images/RINED.png,,,,,,,,,,,,,,,,,,,,,,,,,,,,,,,,,
,,,,,,,,,,,,,,,,,55d7e6f669dbc30012b6826e,65,2022-02-12_18h02.17.567,lexical_decision_task_DD_L3,2021.2.3,Linux armv8l,29.91593622,,,,,,,,,,0.9832,1,,,,,,,,,,,,,,,0,0.323284817,-0.324618816,1,0,0,0.9832,button_right_main,0.323284817,-0.324618816,1,0,0,,0,73,73,51,1,ONION,LB,old,m,./images/ONIONLB.png,,,,,,,,,,,,,,,,,,,,,,,,,,,,,,,,,
,,,,,,,,,,,,,,,,,55d7e6f669dbc30012b6826e,65,2022-02-12_18h02.17.567,lexical_decision_task_DD_L3,2021.2.3,Linux armv8l,29.91593622,,,,,,,,,,0.8335,1,,,,,,,,,,,,,,,0,0.327442837,-0.337104034,1,0,0,0.8335,button_right_main,0.327442837,-0.337104034,1,0,0,,0,74,74,69,1,COOKER,LB,old,m,./images/COOKERLB.png,,,,,,,,,,,,,,,,,,,,,,,,,,,,,,,,,
,,,,,,,,,,,,,,,,,55d7e6f669dbc30012b6826e,65,2022-02-12_18h02.17.567,lexical_decision_task_DD_L3,2021.2.3,Linux armv8l,29.91593622,,,,,,,,,,0.7257,1,,,,,,,,,,,,,,,0,0.329521847,-0.378722,1,0,0,0.7257,button_right_main,0.329521847,-0.378722,1,0,0,,0,75,75,15,1,GREASE,LB,old,m,./images/GREASELB.png,,,,,,,,,,,,,,,,,,,,,,,,,,,,,,,,,
,,,,,,,,,,,,,,,,,55d7e6f669dbc30012b6826e,65,2022-02-12_18h02.17.567,lexical_decision_task_DD_L3,2021.2.3,Linux armv8l,29.91593622,,,,,,,,,,0.7321,1,,,,,,,,,,,,,,,0,0.327442837,-0.351670361,1,0,0,0.7321,button_right_main,0.327442837,-0.351670361,1,0,0,,0,76,76,81,1,POODLE,LB,old,m,./images/POODLELB.png,,,,,,,,,,,,,,,,,,,,,,,,,,,,,,,,,
,,,,,,,,,,,,,,,,,55d7e6f669dbc30012b6826e,65,2022-02-12_18h02.17.567,lexical_decision_task_DD_L3,2021.2.3,Linux armv8l,29.91593622,,,,,,,,,,0.7817,1,,,,,,,,,,,,,,,0,0.306652832,-0.341265869,1,0,0,0.7817,button_right_main,0.306652832,-0.341265869,1,0,0,,0,77,77,22,1,MELON,C,old,m,./images/MELON.png,,,,,,,,,,,,,,,,,,,,,,,,,,,,,,,,,
,,,,,,,,,,,,,,,,,55d7e6f669dbc30012b6826e,65,2022-02-12_18h02.17.567,lexical_decision_task_DD_L3,2021.2.3,Linux armv8l,29.91593622,,,,,,,,,,2.1683,1,,,,,,,,,,,,,,,0,-0.240124726,-0.291324425,1,0,0,2.1683,button_left_main,-0.240124726,-0.291324425,1,0,0,,0,78,78,115,1,MAWNS,HB,old,z,./images/MAWNSHB.png,,,,,,,,,,,,,,,,,,,,,,,,,,,,,,,,,
,,,,,,,,,,,,,,,,,55d7e6f669dbc30012b6826e,65,2022-02-12_18h02.17.567,lexical_decision_task_DD_L3,2021.2.3,Linux armv8l,29.91593622,,,,,,,,,,1.5326,1,,,,,,,,,,,,,,,0,0.323284817,-0.351670361,1,0,0,1.5326,button_right_main,0.323284817,-0.351670361,1,0,0,,0,79,79,68,1,TORCH,HB,old,m,./images/TORCHHB.png,,,,,,,,,,,,,,,,,,,,,,,,,,,,,,,,,
,,,,,,,,,,,,,,,,,55d7e6f669dbc30012b6826e,65,2022-02-12_18h02.17.567,lexical_decision_task_DD_L3,2021.2.3,Linux armv8l,29.91593622,,,,,,,,,,1.1189,1,,,,,,,,,,,,,,,0,-0.217255712,-0.332942486,1,0,0,1.1189,button_left_main,-0.217255712,-0.332942486,1,0,0,,0,80,80,155,1,CANGY,LB,old,z,./images/CANGYLB.png,,,,,,,,,,,,,,,,,,,,,,,,,,,,,,,,,
,,,,,,,,,,,,,,,,,55d7e6f669dbc30012b6826e,65,2022-02-12_18h02.17.567,lexical_decision_task_DD_L3,2021.2.3,Linux armv8l,29.91593622,,,,,,,,,,1.9851,1,,,,,,,,,,,,,,,0,-0.23180871,-0.347508621,1,0,0,1.9851,button_left_main,-0.23180871,-0.347508621,1,0,0,,0,81,81,139,1,BLEAR,HB,old,z,./images/BLEARHB.png,,,,,,,,,,,,,,,,,,,,,,,,,,,,,,,,,
,,,,,,,,,,,,,,,,,55d7e6f669dbc30012b6826e,65,2022-02-12_18h02.17.567,lexical_decision_task_DD_L3,2021.2.3,Linux armv8l,29.91593622,,,,,,,,,,1.2909,1,,,,,,,,,,,,,,,0,-0.2297297,-0.343346786,1,0,0,1.2909,button_left_main,-0.2297297,-0.343346786,1,0,0,,0,82,82,117,1,STEEG,C,old,z,./images/STEEG.png,,,,,,,,,,,,,,,,,,,,,,,,,,,,,,,,,
,,,,,,,,,,,,,,,,,55d7e6f669dbc30012b6826e,65,2022-02-12_18h02.17.567,lexical_decision_task_DD_L3,2021.2.3,Linux armv8l,29.91593622,,,,,,,,,,1.1315,1,,,,,,,,,,,,,,,0,-0.219334722,-0.337104034,1,0,0,1.1315,button_left_main,0.063409567,-0.40993557,1,0,0,,0,83,83,111,1,HOSSE,C,old,z,./images/HOSSE.png,break_done_button,,,,,,,,,,,,,,,,,,,,,,,,,,,,,,,,
,,,,,,,,,,,,,,,,,55d7e6f669dbc30012b6826e,65,2022-02-12_18h02.17.567,lexical_decision_task_DD_L3,2021.2.3,Linux armv8l,29.91593622,,,,,,,,,,0.8981,1,,,,,,,,,,,,,,,0,0.319126892,-0.337104034,1,0,0,0.8981,button_right_main,0.319126892,-0.337104034,1,0,0,,0,84,84,66,1,SWEAT,LB,old,m,./images/SWEATLB.png,,,,,,,,,,,,,,,,,,,,,,,,,,,,,,,,,
,,,,,,,,,,,,,,,,,55d7e6f669dbc30012b6826e,65,2022-02-12_18h02.17.567,lexical_decision_task_DD_L3,2021.2.3,Linux armv8l,29.91593622,,,,,,,,,,1.0487,1,,,,,,,,,,,,,,,0,-0.294178796,-0.322537804,1,0,0,1.0487,button_left_main,-0.294178796,-0.322537804,1,0,0,,0,85,85,129,1,PRANS,C,old,z,./images/PRANS.png,,,,,,,,,,,,,,,,,,,,,,,,,,,,,,,,,
,,,,,,,,,,,,,,,,,55d7e6f669dbc30012b6826e,65,2022-02-12_18h02.17.567,lexical_decision_task_DD_L3,2021.2.3,Linux armv8l,29.91593622,,,,,,,,,,1.1202,1,,,,,,,,,,,,,,,0,0.302494812,-0.364155865,1,0,0,1.1202,button_right_main,0.302494812,-0.364155865,1,0,0,,0,86,86,5,1,PASTA,HB,old,m,./images/PASTAHB.png,,,,,,,,,,,,,,,,,,,,,,,,,,,,,,,,,
,,,,,,,,,,,,,,,,,55d7e6f669dbc30012b6826e,65,2022-02-12_18h02.17.567,lexical_decision_task_DD_L3,2021.2.3,Linux armv8l,29.91593622,,,,,,,,,,0.8784,1,,,,,,,,,,,,,,,0,0.325363827,-0.35999403,1,0,0,0.8784,button_right_main,0.325363827,-0.35999403,1,0,0,,0,87,87,4,1,MUSCLE,C,old,m,./images/MUSCLE.png,,,,,,,,,,,,,,,,,,,,,,,,,,,,,,,,,
,,,,,,,,,,,,,,,,,55d7e6f669dbc30012b6826e,65,2022-02-12_18h02.17.567,lexical_decision_task_DD_L3,2021.2.3,Linux armv8l,29.91593622,,,,,,,,,,1.2486,1,,,,,,,,,,,,,,,0,0.325363827,-0.353751278,1,0,0,1.2486,button_right_main,0.325363827,-0.353751278,1,0,0,,0,88,88,26,1,SMOKER,HB,old,m,./images/SMOKERHB.png,,,,,,,,,,,,,,,,,,,,,,,,,,,,,,,,,
,,,,,,,,,,,,,,,,,55d7e6f669dbc30012b6826e,65,2022-02-12_18h02.17.567,lexical_decision_task_DD_L3,2021.2.3,Linux armv8l,29.91593622,,,,,,,,,,1.2817,1,,,,,,,,,,,,,,,0,-0.204781723,-0.307971573,1,0,0,1.2817,button_left_main,-0.204781723,-0.307971573,1,0,0,,0,89,89,124,1,TUNCH,HB,old,z,./images/TUNCHHB.png,,,,,,,,,,,,,,,,,,,,,,,,,,,,,,,,,
,,,,,,,,,,,,,,,,,55d7e6f669dbc30012b6826e,65,2022-02-12_18h02.17.567,lexical_decision_task_DD_L3,2021.2.3,Linux armv8l,29.91593622,,,,,,,,,,1.1377,1,,,,,,,,,,,,,,,0,-0.227650738,-0.318376064,1,0,0,1.1377,button_left_main,-0.227650738,-0.318376064,1,0,0,,0,90,90,149,1,VEASE,LB,old,z,./images/VEASELB.png,,,,,,,,,,,,,,,,,,,,,,,,,,,,,,,,,
,,,,,,,,,,,,,,,,,55d7e6f669dbc30012b6826e,65,2022-02-12_18h02.17.567,lexical_decision_task_DD_L3,2021.2.3,Linux armv8l,29.91593622,,,,,,,,,,0.8892,1,,,,,,,,,,,,,,,0,0.329521847,-0.335023308,1,0,0,0.8892,button_right_main,0.329521847,-0.335023308,1,0,0,,0,91,91,75,1,GRAIN,LB,old,m,./images/GRAINLB.png,,,,,,,,,,,,,,,,,,,,,,,,,,,,,,,,,
,,,,,,,,,,,,,,,,,55d7e6f669dbc30012b6826e,65,2022-02-12_18h02.17.567,lexical_decision_task_DD_L3,2021.2.3,Linux armv8l,29.91593622,,,,,,,,,,1.0816,1,,,,,,,,,,,,,,,0,0.325363827,-0.339184952,1,0,0,1.0816,button_right_main,0.325363827,-0.339184952,1,0,0,,0,92,92,44,1,LIZARD,HB,old,m,./images/LIZARDHB.png,,,,,,,,,,,,,,,,,,,,,,,,,,,,,,,,,
,,,,,,,,,,,,,,,,,55d7e6f669dbc30012b6826e,65,2022-02-12_18h02.17.567,lexical_decision_task_DD_L3,2021.2.3,Linux armv8l,29.91593622,,,,,,,,,,1.0949,1,,,,,,,,,,,,,,,0,-0.265072751,-0.293405437,1,0,0,1.0949,button_left_main,-0.265072751,-0.293405437,1,0,0,,0,93,93,102,1,DULLE,C,old,z,./images/DULLE.png,,,,,,,,,,,,,,,,,,,,,,,,,,,,,,,,,
,,,,,,,,,,,,,,,,,55d7e6f669dbc30012b6826e,65,2022-02-12_18h02.17.567,lexical_decision_task_DD_L3,2021.2.3,Linux armv8l,29.91593622,,,,,,,,,,0.8548,1,,,,,,,,,,,,,,,0,-0.240124726,-0.337104034,1,0,0,0.8548,button_left_main,-0.240124726,-0.337104034,1,0,0,,0,94,94,156,1,HIXES,C,old,z,./images/HIXES.png,,,,,,,,,,,,,,,,,,,,,,,,,,,,,,,,,
,,,,,,,,,,,,,,,,,55d7e6f669dbc30012b6826e,65,2022-02-12_18h02.17.567,lexical_decision_task_DD_L3,2021.2.3,Linux armv8l,29.91593622,,,,,,,,,,1.0175,1,,,,,,,,,,,,,,,0,0.308731842,-0.351670361,1,0,0,1.0175,button_right_main,0.308731842,-0.351670361,1,0,0,,0,95,95,55,1,MUFFIN,C,old,m,./images/MUFFIN.png,,,,,,,,,,,,,,,,,,,,,,,,,,,,,,,,,
,,,,,,,,,,,,,,,,,55d7e6f669dbc30012b6826e,65,2022-02-12_18h02.17.567,lexical_decision_task_DD_L3,2021.2.3,Linux armv8l,29.91593622,,,,,,,,,,2.703,1,,,,,,,,,,,,,,,0,-0.254677725,-0.322537804,1,0,0,2.703,button_left_main,-0.254677725,-0.322537804,1,0,0,,0,96,96,94,1,BLANS,HB,old,z,./images/BLANSHB.png,,,,,,,,,,,,,,,,,,,,,,,,,,,,,,,,,
,,,,,,,,,,,,,,,,,55d7e6f669dbc30012b6826e,65,2022-02-12_18h02.17.567,lexical_decision_task_DD_L3,2021.2.3,Linux armv8l,29.91593622,,,,,,,,,,0.9009,1,,,,,,,,,,,,,,,0,0.339916897,-0.339184952,1,0,0,0.9009,button_right_main,0.339916897,-0.339184952,1,0,0,,0,97,97,30,1,STORM,LB,old,m,./images/STORMLB.png,,,,,,,,,,,,,,,,,,,,,,,,,,,,,,,,,
,,,,,,,,,,,,,,,,,55d7e6f669dbc30012b6826e,65,2022-02-12_18h02.17.567,lexical_decision_task_DD_L3,2021.2.3,Linux armv8l,29.91593622,,,,,,,,,,1.0769,1,,,,,,,,,,,,,,,0,-0.223492718,-0.322537804,1,0,0,1.0769,button_left_main,-0.223492718,-0.322537804,1,0,0,,0,98,98,108,1,GRUET,C,old,z,./images/GRUET.png,,,,,,,,,,,,,,,,,,,,,,,,,,,,,,,,,
,,,,,,,,,,,,,,,,,55d7e6f669dbc30012b6826e,65,2022-02-12_18h02.17.567,lexical_decision_task_DD_L3,2021.2.3,Linux armv8l,29.91593622,,,,,,,,,,1.6199,1,,,,,,,,,,,,,,,0,-0.23804574,-0.332942486,1,0,0,1.6199,button_left_main,-0.23804574,-0.332942486,1,0,0,,0,99,99,121,1,CEERS,HB,old,z,./images/CEERSHB.png,,,,,,,,,,,,,,,,,,,,,,,,,,,,,,,,,
,,,,,,,,,,,,,,,,,55d7e6f669dbc30012b6826e,65,2022-02-12_18h02.17.567,lexical_decision_task_DD_L3,2021.2.3,Linux armv8l,29.91593622,,,,,,,,,,1.4368,1,,,,,,,,,,,,,,,0,-0.240124726,-0.318376064,1,0,0,1.4368,button_left_main,-0.240124726,-0.318376064,1,0,0,,0,100,100,130,1,CRILL,HB,old,z,./images/CRILLHB.png,,,,,,,,,,,,,,,,,,,,,,,,,,,,,,,,,
,,,,,,,,,,,,,,,,,55d7e6f669dbc30012b6826e,65,2022-02-12_18h02.17.567,lexical_decision_task_DD_L3,2021.2.3,Linux armv8l,29.91593622,,,,,,,,,,1.2241,1,,,,,,,,,,,,,,,0,0.358627892,-0.280919933,1,0,0,1.2241,button_right_main,0.358627892,-0.280919933,1,0,0,,0,101,101,59,1,BURIAL,HB,old,m,./images/BURIALHB.png,,,,,,,,,,,,,,,,,,,,,,,,,,,,,,,,,
,,,,,,,,,,,,,,,,,55d7e6f669dbc30012b6826e,65,2022-02-12_18h02.17.567,lexical_decision_task_DD_L3,2021.2.3,Linux armv8l,29.91593622,,,,,,,,,,1.0978,1,,,,,,,,,,,,,,,0,-0.252598763,-0.274677181,1,0,0,1.0978,button_left_main,-0.252598763,-0.274677181,1,0,0,,0,102,102,90,1,NEAST,C,old,z,./images/NEAST.png,,,,,,,,,,,,,,,,,,,,,,,,,,,,,,,,,
,,,,,,,,,,,,,,,,,55d7e6f669dbc30012b6826e,65,2022-02-12_18h02.17.567,lexical_decision_task_DD_L3,2021.2.3,Linux armv8l,29.91593622,,,,,,,,,,0.9192,1,,,,,,,,,,,,,,,0,-0.262993765,-0.322537804,1,0,0,0.9192,button_left_main,-0.262993765,-0.322537804,1,0,0,,0,103,103,158,1,EGECT,LB,old,z,./images/EGECTLB.png,,,,,,,,,,,,,,,,,,,,,,,,,,,,,,,,,
,,,,,,,,,,,,,,,,,55d7e6f669dbc30012b6826e,65,2022-02-12_18h02.17.567,lexical_decision_task_DD_L3,2021.2.3,Linux armv8l,29.91593622,,,,,,,,,,0.8826,1,,,,,,,,,,,,,,,0,0.319126892,-0.332942486,1,0,0,0.8826,button_right_main,0.319126892,-0.332942486,1,0,0,,0,104,104,48,1,SPORT,LB,old,m,./images/SPORTLB.png,,,,,,,,,,,,,,,,,,,,,,,,,,,,,,,,,
,,,,,,,,,,,,,,,,,55d7e6f669dbc30012b6826e,65,2022-02-12_18h02.17.567,lexical_decision_task_DD_L3,2021.2.3,Linux armv8l,29.91593622,,,,,,,,,,0.815,1,,,,,,,,,,,,,,,0,0.327442837,-0.332942486,1,0,0,0.815,button_right_main,0.327442837,-0.332942486,1,0,0,,0,105,105,37,1,BIRTH,C,old,m,./images/BIRTH.png,,,,,,,,,,,,,,,,,,,,,,,,,,,,,,,,,
,,,,,,,,,,,,,,,,,55d7e6f669dbc30012b6826e,65,2022-02-12_18h02.17.567,lexical_decision_task_DD_L3,2021.2.3,Linux armv8l,29.91593622,,,,,,,,,,0.8667,1,,,,,,,,,,,,,,,0,0.319126892,-0.337104034,1,0,0,0.8667,button_right_main,0.319126892,-0.337104034,1,0,0,,0,106,106,9,1,RHINO,LB,old,m,./images/RHINOLB.png,,,,,,,,,,,,,,,,,,,,,,,,,,,,,,,,,
,,,,,,,,,,,,,,,,,55d7e6f669dbc30012b6826e,65,2022-02-12_18h02.17.567,lexical_decision_task_DD_L3,2021.2.3,Linux armv8l,29.91593622,,,,,,,,,,1.179,1,,,,,,,,,,,,,,,0,-0.250519753,-0.322537804,1,0,0,1.179,button_left_main,-0.250519753,-0.322537804,1,0,0,,0,107,107,114,1,RIKES,C,old,z,./images/RIKES.png,,,,,,,,,,,,,,,,,,,,,,,,,,,,,,,,,
,,,,,,,,,,,,,,,,,55d7e6f669dbc30012b6826e,65,2022-02-12_18h02.17.567,lexical_decision_task_DD_L3,2021.2.3,Linux armv8l,29.91593622,,,,,,,,,,0.9983,1,,,,,,,,,,,,,,,0,0.233887768,-0.322537804,1,0,0,0.9983,button_right_main,0.233887768,-0.322537804,1,0,0,,0,108,108,70,1,URINE,C,old,m,./images/URINE.png,,,,,,,,,,,,,,,,,,,,,,,,,,,,,,,,,
,,,,,,,,,,,,,,,,,55d7e6f669dbc30012b6826e,65,2022-02-12_18h02.17.567,lexical_decision_task_DD_L3,2021.2.3,Linux armv8l,29.91593622,,,,,,,,,,0.8648,1,,,,,,,,,,,,,,,0,0.283783865,-0.343346786,1,0,0,0.8648,button_right_main,0.283783865,-0.343346786,1,0,0,,0,109,109,34,1,CANYON,C,old,m,./images/CANYON.png,,,,,,,,,,,,,,,,,,,,,,,,,,,,,,,,,
,,,,,,,,,,,,,,,,,55d7e6f669dbc30012b6826e,65,2022-02-12_18h02.17.567,lexical_decision_task_DD_L3,2021.2.3,Linux armv8l,29.91593622,,,,,,,,,,1.0275,1,,,,,,,,,,,,,,,0,-0.246361732,-0.335023308,1,0,0,1.0275,button_left_main,-0.246361732,-0.335023308,1,0,0,,0,110,110,167,1,ZONET,LB,old,z,./images/ZONETLB.png,,,,,,,,,,,,,,,,,,,,,,,,,,,,,,,,,
,,,,,,,,,,,,,,,,,55d7e6f669dbc30012b6826e,65,2022-02-12_18h02.17.567,lexical_decision_task_DD_L3,2021.2.3,Linux armv8l,29.91593622,,,,,,,,,,1.9984,1,,,,,,,,,,,,,,,0,-0.258835745,-0.312133312,1,0,0,1.9984,button_left_main,-0.258835745,-0.312133312,1,0,0,,0,111,111,147,1,ZOLES,C,old,z,./images/ZOLES.png,,,,,,,,,,,,,,,,,,,,,,,,,,,,,,,,,
,,,,,,,,,,,,,,,,,55d7e6f669dbc30012b6826e,65,2022-02-12_18h02.17.567,lexical_decision_task_DD_L3,2021.2.3,Linux armv8l,29.91593622,,,,,,,,,,1.0232,1,,,,,,,,,,,,,,,0,0.341995811,-0.297566986,1,0,0,1.0232,button_right_main,0.341995811,-0.297566986,1,0,0,,0,112,112,65,1,FARMER,HB,old,m,./images/FARMERHB.png,,,,,,,,,,,,,,,,,,,,,,,,,,,,,,,,,
,,,,,,,,,,,,,,,,,55d7e6f669dbc30012b6826e,65,2022-02-12_18h02.17.567,lexical_decision_task_DD_L3,2021.2.3,Linux armv8l,29.91593622,,,,,,,,,,1.364,1,,,,,,,,,,,,,,,0,0.348232841,-0.339184952,1,0,0,1.364,button_right_main,0.348232841,-0.339184952,1,0,0,,0,113,113,11,1,BONNET,HB,old,m,./images/BONNETHB.png,,,,,,,,,,,,,,,,,,,,,,,,,,,,,,,,,
,,,,,,,,,,,,,,,,,55d7e6f669dbc30012b6826e,65,2022-02-12_18h02.17.567,lexical_decision_task_DD_L3,2021.2.3,Linux armv8l,29.91593622,,,,,,,,,,0.8998,1,,,,,,,,,,,,,,,0,0.346153831,-0.330861473,1,0,0,0.8998,button_right_main,0.346153831,-0.330861473,1,0,0,,0,114,114,40,1,SWING,C,old,m,./images/SWING.png,,,,,,,,,,,,,,,,,,,,,,,,,,,,,,,,,
,,,,,,,,,,,,,,,,,55d7e6f669dbc30012b6826e,65,2022-02-12_18h02.17.567,lexical_decision_task_DD_L3,2021.2.3,Linux armv8l,29.91593622,,,,,,,,,,1.0316,1,,,,,,,,,,,,,,,0,0.344074821,-0.341265869,1,0,0,1.0316,button_right_main,0.344074821,-0.341265869,1,0,0,,0,115,115,20,1,CRADLE,HB,old,m,./images/CRADLEHB.png,,,,,,,,,,,,,,,,,,,,,,,,,,,,,,,,,
,,,,,,,,,,,,,,,,,55d7e6f669dbc30012b6826e,65,2022-02-12_18h02.17.567,lexical_decision_task_DD_L3,2021.2.3,Linux armv8l,29.91593622,,,,,,,,,,0.7669,1,,,,,,,,,,,,,,,0,0.339916897,-0.341265869,1,0,0,0.7669,button_right_main,0.339916897,-0.341265869,1,0,0,,0,116,116,6,1,SQUARE,LB,old,m,./images/SQUARELB.png,,,,,,,,,,,,,,,,,,,,,,,,,,,,,,,,,
,,,,,,,,,,,,,,,,,55d7e6f669dbc30012b6826e,65,2022-02-12_18h02.17.567,lexical_decision_task_DD_L3,2021.2.3,Linux armv8l,29.91593622,,,,,,,,,,0.8665,1,,,,,,,,,,,,,,,0,0.339916897,-0.345427704,1,0,0,0.8665,button_right_main,0.339916897,-0.345427704,1,0,0,,0,117,117,54,1,TRIPOD,LB,old,m,./images/TRIPODLB.png,,,,,,,,,,,,,,,,,,,,,,,,,,,,,,,,,
,,,,,,,,,,,,,,,,,55d7e6f669dbc30012b6826e,65,2022-02-12_18h02.17.567,lexical_decision_task_DD_L3,2021.2.3,Linux armv8l,29.91593622,,,,,,,,,,1.1086,1,,,,,,,,,,,,,,,0,-0.260914755,-0.353751278,1,0,0,1.1086,button_left_main,-0.260914755,-0.353751278,1,0,0,,0,118,118,99,1,BACKY,C,old,z,./images/BACKY.png,,,,,,,,,,,,,,,,,,,,,,,,,,,,,,,,,
,,,,,,,,,,,,,,,,,55d7e6f669dbc30012b6826e,65,2022-02-12_18h02.17.567,lexical_decision_task_DD_L3,2021.2.3,Linux armv8l,29.91593622,,,,,,,,,,2.0425,1,,,,,,,,,,,,,,,0,0.312889862,-0.349589443,1,0,0,2.0425,button_right_main,0.312889862,-0.349589443,1,0,0,,0,119,119,47,1,BERRY,HB,old,m,./images/BERRYHB.png,,,,,,,,,,,,,,,,,,,,,,,,,,,,,,,,,
,,,,,,,,,,,,,,,,,55d7e6f669dbc30012b6826e,65,2022-02-12_18h02.17.567,lexical_decision_task_DD_L3,2021.2.3,Linux armv8l,29.91593622,,,,,,,,,,0.7149,1,,,,,,,,,,,,,,,0,0.321205902,-0.343346786,1,0,0,0.7149,button_right_main,0.321205902,-0.343346786,1,0,0,,0,120,120,0,1,TOMATO,LB,old,m,./images/TOMATOLB.png,,,,,,,,,,,,,,,,,,,,,,,,,,,,,,,,,
,,,,,,,,,,,,,,,,,55d7e6f669dbc30012b6826e,65,2022-02-12_18h02.17.567,lexical_decision_task_DD_L3,2021.2.3,Linux armv8l,29.91593622,,,,,,,,,,3.4784,1,,,,,,,,,,,,,,,0,-0.331600821,-0.316295147,1,0,0,3.4784,button_left_main,-0.331600821,-0.316295147,1,0,0,,0,121,121,142,1,PLASK,HB,old,z,./images/PLASKHB.png,,,,,,,,,,,,,,,,,,,,,,,,,,,,,,,,,
,,,,,,,,,,,,,,,,,55d7e6f669dbc30012b6826e,65,2022-02-12_18h02.17.567,lexical_decision_task_DD_L3,2021.2.3,Linux armv8l,29.91593622,,,,,,,,,,0.9395,1,,,,,,,,,,,,,,,0,-0.269230771,-0.31421423,1,0,0,0.9395,button_left_main,-0.269230771,-0.31421423,1,0,0,,0,122,122,131,1,NACES,LB,old,z,./images/NACESLB.png,,,,,,,,,,,,,,,,,,,,,,,,,,,,,,,,,
,,,,,,,,,,,,,,,,,55d7e6f669dbc30012b6826e,65,2022-02-12_18h02.17.567,lexical_decision_task_DD_L3,2021.2.3,Linux armv8l,29.91593622,,,,,,,,,,1.1032,1,,,,,,,,,,,,,,,0,-0.225571728,-0.324618816,1,0,0,1.1032,button_left_main,-0.225571728,-0.324618816,1,0,0,,0,123,123,113,1,LINEW,LB,old,z,./images/LINEWLB.png,,,,,,,,,,,,,,,,,,,,,,,,,,,,,,,,,
,,,,,,,,,,,,,,,,,55d7e6f669dbc30012b6826e,65,2022-02-12_18h02.17.567,lexical_decision_task_DD_L3,2021.2.3,Linux armv8l,29.91593622,,,,,,,,,,2.1535,1,,,,,,,,,,,,,,,0,-0.213097692,-0.339184952,1,0,0,2.1535,button_left_main,-0.213097692,-0.339184952,1,0,0,,0,124,124,118,1,BAVEL,HB,old,z,./images/BAVELHB.png,,,,,,,,,,,,,,,,,,,,,,,,,,,,,,,,,
,,,,,,,,,,,,,,,,,55d7e6f669dbc30012b6826e,65,2022-02-12_18h02.17.567,lexical_decision_task_DD_L3,2021.2.3,Linux armv8l,29.91593622,,,,,,,,,,1.25,1,,,,,,,,,,,,,,,0,-0.217255712,-0.343346786,1,0,0,1.25,button_left_main,0.127858639,-0.368317699,1,0,0,,0,125,125,138,1,PLICE,C,old,z,./images/PLICE.png,break_done_button,,,,,,,,,,,,,,,,,,,,,,,,,,,,,,,,
,,,,,,,,,,,,,,,,,55d7e6f669dbc30012b6826e,65,2022-02-12_18h02.17.567,lexical_decision_task_DD_L3,2021.2.3,Linux armv8l,29.91593622,,,,,,,,,,2.4528,1,,,,,,,,,,,,,,,0,-0.260914755,-0.353751278,1,0,0,2.4528,button_left_main,-0.260914755,-0.353751278,1,0,0,,0,126,126,157,1,INLER,HB,old,z,./images/INLERHB.png,,,,,,,,,,,,,,,,,,,,,,,,,,,,,,,,,
,,,,,,,,,,,,,,,,,55d7e6f669dbc30012b6826e,65,2022-02-12_18h02.17.567,lexical_decision_task_DD_L3,2021.2.3,Linux armv8l,29.91593622,,,,,,,,,,0.8809,1,,,,,,,,,,,,,,,0,0.331600857,-0.310052395,1,0,0,0.8809,button_right_main,0.331600857,-0.310052395,1,0,0,,0,127,127,52,1,BANNER,C,old,m,./images/BANNER.png,,,,,,,,,,,,,,,,,,,,,,,,,,,,,,,,,
,,,,,,,,,,,,,,,,,55d7e6f669dbc30012b6826e,65,2022-02-12_18h02.17.567,lexical_decision_task_DD_L3,2021.2.3,Linux armv8l,29.91593622,,,,,,,,,,0.7143,1,,,,,,,,,,,,,,,0,0.341995811,-0.326699638,1,0,0,0.7143,button_right_main,0.341995811,-0.326699638,1,0,0,,0,128,128,36,1,THROAT,LB,old,m,./images/THROATLB.png,,,,,,,,,,,,,,,,,,,,,,,,,,,,,,,,,
,,,,,,,,,,,,,,,,,55d7e6f669dbc30012b6826e,65,2022-02-12_18h02.17.567,lexical_decision_task_DD_L3,2021.2.3,Linux armv8l,29.91593622,,,,,,,,,,1.1173,1,,,,,,,,,,,,,,,0,-0.211018682,-0.330861473,1,0,0,1.1173,button_left_main,-0.211018682,-0.330861473,1,0,0,,0,129,129,143,1,MONGS,LB,old,z,./images/MONGSLB.png,,,,,,,,,,,,,,,,,,,,,,,,,,,,,,,,,
,,,,,,,,,,,,,,,,,55d7e6f669dbc30012b6826e,65,2022-02-12_18h02.17.567,lexical_decision_task_DD_L3,2021.2.3,Linux armv8l,29.91593622,,,,,,,,,,1.1677,1,,,,,,,,,,,,,,,0,0.325363827,-0.347508621,1,0,0,1.1677,button_right_main,0.325363827,-0.347508621,1,0,0,,0,130,130,31,1,QUILL,C,old,m,./images/QUILL.png,,,,,,,,,,,,,,,,,,,,,,,,,,,,,,,,,
,,,,,,,,,,,,,,,,,55d7e6f669dbc30012b6826e,65,2022-02-12_18h02.17.567,lexical_decision_task_DD_L3,2021.2.3,Linux armv8l,29.91593622,,,,,,,,,,0.7622,1,,,,,,,,,,,,,,,0,0.333679867,-0.357913113,1,0,0,0.7622,button_right_main,0.333679867,-0.357913113,1,0,0,,0,131,131,21,1,KIDNEY,LB,old,m,./images/KIDNEYLB.png,,,,,,,,,,,,,,,,,,,,,,,,,,,,,,,,,
,,,,,,,,,,,,,,,,,55d7e6f669dbc30012b6826e,65,2022-02-12_18h02.17.567,lexical_decision_task_DD_L3,2021.2.3,Linux armv8l,29.91593622,,,,,,,,,,1.6147,1,,,,,,,,,,,,,,,0,-0.294178796,-0.31421423,1,0,0,1.6147,button_left_main,-0.294178796,-0.31421423,1,0,0,,0,132,132,137,1,JOOST,LB,old,z,./images/JOOSTLB.png,,,,,,,,,,,,,,,,,,,,,,,,,,,,,,,,,
,,,,,,,,,,,,,,,,,55d7e6f669dbc30012b6826e,65,2022-02-12_18h02.17.567,lexical_decision_task_DD_L3,2021.2.3,Linux armv8l,29.91593622,,,,,,,,,,1.323,1,,,,,,,,,,,,,,,0,0.298336792,-0.320456982,1,0,0,1.323,button_right_main,0.298336792,-0.320456982,1,0,0,,0,133,133,29,1,CRUMB,HB,old,m,./images/CRUMBHB.png,,,,,,,,,,,,,,,,,,,,,,,,,,,,,,,,,
,,,,,,,,,,,,,,,,,55d7e6f669dbc30012b6826e,65,2022-02-12_18h02.17.567,lexical_decision_task_DD_L3,2021.2.3,Linux armv8l,29.91593622,,,,,,,,,,3.3208,1,,,,,,,,,,,,,,,0,-0.327442837,-0.345427704,1,0,0,3.3208,button_left_main,-0.327442837,-0.345427704,1,0,0,,0,134,134,128,1,GRIFT,LB,old,z,./images/GRIFTLB.png,,,,,,,,,,,,,,,,,,,,,,,,,,,,,,,,,
,,,,,,,,,,,,,,,,,55d7e6f669dbc30012b6826e,65,2022-02-12_18h02.17.567,lexical_decision_task_DD_L3,2021.2.3,Linux armv8l,29.91593622,,,,,,,,,,1.2325,1,,,,,,,,,,,,,,,0,0.333679867,-0.341265869,1,0,0,1.2325,button_right_main,0.333679867,-0.341265869,1,0,0,,0,135,135,23,1,WALRUS,HB,old,m,./images/WALRUSHB.png,,,,,,,,,,,,,,,,,,,,,,,,,,,,,,,,,
,,,,,,,,,,,,,,,,,55d7e6f669dbc30012b6826e,65,2022-02-12_18h02.17.567,lexical_decision_task_DD_L3,2021.2.3,Linux armv8l,29.91593622,,,,,,,,,,1.4614,1,,,,,,,,,,,,,,,0,-0.256756735,-0.324618816,1,0,0,1.4614,button_left_main,-0.256756735,-0.324618816,1,0,0,,0,136,136,141,1,PLEET,C,old,z,./images/PLEET.png,,,,,,,,,,,,,,,,,,,,,,,,,,,,,,,,,
,,,,,,,,,,,,,,,,,55d7e6f669dbc30012b6826e,65,2022-02-12_18h02.17.567,lexical_decision_task_DD_L3,2021.2.3,Linux armv8l,29.91593622,,,,,,,,,,0.8623,1,,,,,,,,,,,,,,,0,0.331600857,-0.328780651,1,0,0,0.8623,button_right_main,0.331600857,-0.328780651,1,0,0,,0,137,137,18,1,JAGUAR,LB,old,m,./images/JAGUARLB.png,,,,,,,,,,,,,,,,,,,,,,,,,,,,,,,,,
,,,,,,,,,,,,,,,,,55d7e6f669dbc30012b6826e,65,2022-02-12_18h02.17.567,lexical_decision_task_DD_L3,2021.2.3,Linux armv8l,29.91593622,,,,,,,,,,0.7313,1,,,,,,,,,,,,,,,0,0.337837887,-0.341265869,1,0,0,0.7313,button_right_main,0.337837887,-0.341265869,1,0,0,,0,138,138,12,1,SHORE,LB,old,m,./images/SHORELB.png,,,,,,,,,,,,,,,,,,,,,,,,,,,,,,,,,
,,,,,,,,,,,,,,,,,55d7e6f669dbc30012b6826e,65,2022-02-12_18h02.17.567,lexical_decision_task_DD_L3,2021.2.3,Linux armv8l,29.91593622,,,,,,,,,,0.9859,1,,,,,,,,,,,,,,,0,-0.267151761,-0.316295147,1,0,0,0.9859,button_left_main,-0.267151761,-0.316295147,1,0,0,,0,139,139,125,1,MOOKY,LB,old,z,./images/MOOKYLB.png,,,,,,,,,,,,,,,,,,,,,,,,,,,,,,,,,
,,,,,,,,,,,,,,,,,55d7e6f669dbc30012b6826e,65,2022-02-12_18h02.17.567,lexical_decision_task_DD_L3,2021.2.3,Linux armv8l,29.91593622,,,,,,,,,,0.9805,1,,,,,,,,,,,,,,,0,0.329521847,-0.335023308,1,0,0,0.9805,button_right_main,0.329521847,-0.335023308,1,0,0,,0,140,140,72,1,NOOSE,LB,old,m,./images/NOOSELB.png,,,,,,,,,,,,,,,,,,,,,,,,,,,,,,,,,
,,,,,,,,,,,,,,,,,55d7e6f669dbc30012b6826e,65,2022-02-12_18h02.17.567,lexical_decision_task_DD_L3,2021.2.3,Linux armv8l,29.91593622,,,,,,,,,,2.0709,1,,,,,,,,,,,,,,,0,-0.28170476,-0.307971573,1,0,0,2.0709,button_left_main,-0.28170476,-0.307971573,1,0,0,,0,141,141,100,1,DRIBS,HB,old,z,./images/DRIBSHB.png,,,,,,,,,,,,,,,,,,,,,,,,,,,,,,,,,
,,,,,,,,,,,,,,,,,55d7e6f669dbc30012b6826e,65,2022-02-12_18h02.17.567,lexical_decision_task_DD_L3,2021.2.3,Linux armv8l,29.91593622,,,,,,,,,,1.2119,1,,,,,,,,,,,,,,,0,-0.240124726,-0.316295147,1,0,0,1.2119,button_left_main,-0.240124726,-0.316295147,1,0,0,,0,142,142,146,1,MOOST,LB,old,z,./images/MOOSTLB.png,,,,,,,,,,,,,,,,,,,,,,,,,,,,,,,,,
,,,,,,,,,,,,,,,,,55d7e6f669dbc30012b6826e,65,2022-02-12_18h02.17.567,lexical_decision_task_DD_L3,2021.2.3,Linux armv8l,29.91593622,,,,,,,,,,1.4008,1,,,,,,,,,,,,,,,0,-0.260914755,-0.307971573,1,0,0,1.4008,button_left_main,-0.260914755,-0.307971573,1,0,0,,0,143,143,140,1,DOVET,LB,old,z,./images/DOVETLB.png,,,,,,,,,,,,,,,,,,,,,,,,,,,,,,,,,
,,,,,,,,,,,,,,,,,55d7e6f669dbc30012b6826e,65,2022-02-12_18h02.17.567,lexical_decision_task_DD_L3,2021.2.3,Linux armv8l,29.91593622,,,,,,,,,,1.9417,1,,,,,,,,,,,,,,,0,-0.260914755,-0.347508621,1,0,0,1.9417,button_left_main,-0.260914755,-0.347508621,1,0,0,,0,144,144,133,1,POWDY,HB,old,z,./images/POWDYHB.png,,,,,,,,,,,,,,,,,,,,,,,,,,,,,,,,,
,,,,,,,,,,,,,,,,,55d7e6f669dbc30012b6826e,65,2022-02-12_18h02.17.567,lexical_decision_task_DD_L3,2021.2.3,Linux armv8l,29.91593622,,,,,,,,,,0.9354,1,,,,,,,,,,,,,,,0,0.325363827,-0.347508621,1,0,0,0.9354,button_right_main,0.325363827,-0.347508621,1,0,0,,0,145,145,49,1,DRUMS,C,old,m,./images/DRUMS.png,,,,,,,,,,,,,,,,,,,,,,,,,,,,,,,,,
,,,,,,,,,,,,,,,,,55d7e6f669dbc30012b6826e,65,2022-02-12_18h02.17.567,lexical_decision_task_DD_L3,2021.2.3,Linux armv8l,29.91593622,,,,,,,,,,1.0146,1,,,,,,,,,,,,,,,0,0.337837887,-0.357913113,1,0,0,1.0146,button_right_main,0.337837887,-0.357913113,1,0,0,,0,146,146,78,1,LITTER,LB,old,m,./images/LITTERLB.png,,,,,,,,,,,,,,,,,,,,,,,,,,,,,,,,,
,,,,,,,,,,,,,,,,,55d7e6f669dbc30012b6826e,65,2022-02-12_18h02.17.567,lexical_decision_task_DD_L3,2021.2.3,Linux armv8l,29.91593622,,,,,,,,,,1.2118,1,,,,,,,,,,,,,,,0,-0.28586278,-0.330861473,1,0,0,1.2118,button_left_main,-0.28586278,-0.330861473,1,0,0,,0,147,147,123,1,SEDGE,C,old,z,./images/SEDGE.png,,,,,,,,,,,,,,,,,,,,,,,,,,,,,,,,,
,,,,,,,,,,,,,,,,,55d7e6f669dbc30012b6826e,65,2022-02-12_18h02.17.567,lexical_decision_task_DD_L3,2021.2.3,Linux armv8l,29.91593622,,,,,,,,,,0.8312,1,,,,,,,,,,,,,,,0,0.325363827,-0.341265869,1,0,0,0.8312,button_right_main,0.325363827,-0.341265869,1,0,0,,0,148,148,63,1,MIRROR,LB,old,m,./images/MIRRORLB.png,,,,,,,,,,,,,,,,,,,,,,,,,,,,,,,,,
,,,,,,,,,,,,,,,,,55d7e6f669dbc30012b6826e,65,2022-02-12_18h02.17.567,lexical_decision_task_DD_L3,2021.2.3,Linux armv8l,29.91593622,,,,,,,,,,1.0654,1,,,,,,,,,,,,,,,0,-0.265072751,-0.328780651,1,0,0,1.0654,button_left_main,-0.265072751,-0.328780651,1,0,0,,0,149,149,132,1,SCIFF,C,old,z,./images/SCIFF.png,,,,,,,,,,,,,,,,,,,,,,,,,,,,,,,,,
,,,,,,,,,,,,,,,,,55d7e6f669dbc30012b6826e,65,2022-02-12_18h02.17.567,lexical_decision_task_DD_L3,2021.2.3,Linux armv8l,29.91593622,,,,,,,,,,2.5534,1,,,,,,,,,,,,,,,0,-0.28170476,-0.328780651,1,0,0,2.5534,button_left_main,-0.28170476,-0.328780651,1,0,0,,0,150,150,154,1,THINT,HB,old,z,./images/THINTHB.png,,,,,,,,,,,,,,,,,,,,,,,,,,,,,,,,,
,,,,,,,,,,,,,,,,,55d7e6f669dbc30012b6826e,65,2022-02-12_18h02.17.567,lexical_decision_task_DD_L3,2021.2.3,Linux armv8l,29.91593622,,,,,,,,,,0.8468,1,,,,,,,,,,,,,,,0,0.325363827,-0.316295147,1,0,0,0.8468,button_right_main,0.325363827,-0.316295147,1,0,0,,0,151,151,76,1,INFANT,C,old,m,./images/INFANT.png,,,,,,,,,,,,,,,,,,,,,,,,,,,,,,,,,
,,,,,,,,,,,,,,,,,55d7e6f669dbc30012b6826e,65,2022-02-12_18h02.17.567,lexical_decision_task_DD_L3,2021.2.3,Linux armv8l,29.91593622,,,,,,,,,,1.1629,1,,,,,,,,,,,,,,,0,-0.290020776,-0.320456982,1,0,0,1.1629,button_left_main,-0.290020776,-0.320456982,1,0,0,,0,152,152,165,1,TROWN,C,old,z,./images/TROWN.png,,,,,,,,,,,,,,,,,,,,,,,,,,,,,,,,,
,,,,,,,,,,,,,,,,,55d7e6f669dbc30012b6826e,65,2022-02-12_18h02.17.567,lexical_decision_task_DD_L3,2021.2.3,Linux armv8l,29.91593622,,,,,,,,,,0.8101,1,,,,,,,,,,,,,,,0,0.331600857,-0.324618816,1,0,0,0.8101,button_right_main,0.331600857,-0.324618816,1,0,0,,0,153,153,45,1,KITTEN,LB,old,m,./images/KITTENLB.png,,,,,,,,,,,,,,,,,,,,,,,,,,,,,,,,,
,,,,,,,,,,,,,,,,,55d7e6f669dbc30012b6826e,65,2022-02-12_18h02.17.567,lexical_decision_task_DD_L3,2021.2.3,Linux armv8l,29.91593622,,,,,,,,,,1.5029,1,,,,,,,,,,,,,,,0,0.346153831,-0.337104034,1,0,0,1.5029,button_right_main,0.346153831,-0.337104034,1,0,0,,0,154,154,17,1,SKIING,HB,old,m,./images/SKIINGHB.png,,,,,,,,,,,,,,,,,,,,,,,,,,,,,,,,,
,,,,,,,,,,,,,,,,,55d7e6f669dbc30012b6826e,65,2022-02-12_18h02.17.567,lexical_decision_task_DD_L3,2021.2.3,Linux armv8l,29.91593622,,,,,,,,,,1.3568,0,,,,,,,,,,,,,,,0,0.354469872,-0.341265869,1,0,0,1.3568,button_right_main,0.354469872,-0.341265869,1,0,0,,0,155,155,166,1,SHORY,HB,old,z,./images/SHORYHB.png,,,,,,,,,,,,,,,,,,,,,,,,,,,,,,,,,
,,,,,,,,,,,,,,,,,55d7e6f669dbc30012b6826e,65,2022-02-12_18h02.17.567,lexical_decision_task_DD_L3,2021.2.3,Linux armv8l,29.91593622,,,,,,,,,,1.1154,1,,,,,,,,,,,,,,,0,-0.27962575,-0.299647903,1,0,0,1.1154,button_left_main,-0.27962575,-0.299647903,1,0,0,,0,156,156,150,1,NOOLS,C,old,z,./images/NOOLS.png,,,,,,,,,,,,,,,,,,,,,,,,,,,,,,,,,
,,,,,,,,,,,,,,,,,55d7e6f669dbc30012b6826e,65,2022-02-12_18h02.17.567,lexical_decision_task_DD_L3,2021.2.3,Linux armv8l,29.91593622,,,,,,,,,,1.8681,1,,,,,,,,,,,,,,,0,-0.28586278,-0.339184952,1,0,0,1.8681,button_left_main,-0.28586278,-0.339184952,1,0,0,,0,157,157,97,1,CHIDS,HB,old,z,./images/CHIDSHB.png,,,,,,,,,,,,,,,,,,,,,,,,,,,,,,,,,
,,,,,,,,,,,,,,,,,55d7e6f669dbc30012b6826e,65,2022-02-12_18h02.17.567,lexical_decision_task_DD_L3,2021.2.3,Linux armv8l,29.91593622,,,,,,,,,,1.141,1,,,,,,,,,,,,,,,0,0.287941885,-0.351670361,1,0,0,1.141,button_right_main,0.287941885,-0.351670361,1,0,0,,0,158,158,35,1,PEACH,HB,old,m,./images/PEACHHB.png,,,,,,,,,,,,,,,,,,,,,,,,,,,,,,,,,
,,,,,,,,,,,,,,,,,55d7e6f669dbc30012b6826e,65,2022-02-12_18h02.17.567,lexical_decision_task_DD_L3,2021.2.3,Linux armv8l,29.91593622,,,,,,,,,,1.2683,0,,,,,,,,,,,,,,,0,0.341995811,-0.339184952,1,0,0,1.2683,button_right_main,0.341995811,-0.339184952,1,0,0,,0,159,159,103,1,FLORT,HB,old,z,./images/FLORTHB.png,,,,,,,,,,,,,,,,,,,,,,,,,,,,,,,,,
,,,,,,,,,,,,,,,,,55d7e6f669dbc30012b6826e,65,2022-02-12_18h02.17.567,lexical_decision_task_DD_L3,2021.2.3,Linux armv8l,29.91593622,,,,,,,,,,0.7662,1,,,,,,,,,,,,,,,0,0.348232841,-0.351670361,1,0,0,0.7662,button_right_main,0.348232841,-0.351670361,1,0,0,,0,160,160,3,1,FINGER,LB,old,m,./images/FINGERLB.png,,,,,,,,,,,,,,,,,,,,,,,,,,,,,,,,,
,,,,,,,,,,,,,,,,,55d7e6f669dbc30012b6826e,65,2022-02-12_18h02.17.567,lexical_decision_task_DD_L3,2021.2.3,Linux armv8l,29.91593622,,,,,,,,,,1.1981,1,,,,,,,,,,,,,,,0,-0.308731806,-0.389126492,1,0,0,1.1981,button_left_main,-0.308731806,-0.389126492,1,0,0,,0,161,161,151,1,TINKY,HB,old,z,./images/TINKYHB.png,,,,,,,,,,,,,,,,,,,,,,,,,,,,,,,,,
,,,,,,,,,,,,,,,,,55d7e6f669dbc30012b6826e,65,2022-02-12_18h02.17.567,lexical_decision_task_DD_L3,2021.2.3,Linux armv8l,29.91593622,,,,,,,,,,1.6685,1,,,,,,,,,,,,,,,0,-0.28794179,-0.349589443,1,0,0,1.6685,button_left_main,-0.28794179,-0.349589443,1,0,0,,0,162,162,91,1,SHENS,HB,old,z,./images/SHENSHB.png,,,,,,,,,,,,,,,,,,,,,,,,,,,,,,,,,
,,,,,,,,,,,,,,,,,55d7e6f669dbc30012b6826e,65,2022-02-12_18h02.17.567,lexical_decision_task_DD_L3,2021.2.3,Linux armv8l,29.91593622,,,,,,,,,,1.2317,1,,,,,,,,,,,,,,,0,-0.248440742,-0.301728821,1,0,0,1.2317,button_left_main,-0.248440742,-0.301728821,1,0,0,,0,163,163,98,1,BAMPS,LB,old,z,./images/BAMPSLB.png,,,,,,,,,,,,,,,,,,,,,,,,,,,,,,,,,
,,,,,,,,,,,,,,,,,55d7e6f669dbc30012b6826e,65,2022-02-12_18h02.17.567,lexical_decision_task_DD_L3,2021.2.3,Linux armv8l,29.91593622,,,,,,,,,,1.0662,1,,,,,,,,,,,,,,,0,-0.296257782,-0.326699638,1,0,0,1.0662,button_left_main,-0.296257782,-0.326699638,1,0,0,,0,164,164,161,1,BLAPS,LB,old,z,./images/BLAPSLB.png,,,,,,,,,,,,,,,,,,,,,,,,,,,,,,,,,
,,,,,,,,,,,,,,,,,55d7e6f669dbc30012b6826e,65,2022-02-12_18h02.17.567,lexical_decision_task_DD_L3,2021.2.3,Linux armv8l,29.91593622,,,,,,,,,,1.0295,1,,,,,,,,,,,,,,,0,-0.28586278,-0.320456982,1,0,0,1.0295,button_left_main,-0.28586278,-0.320456982,1,0,0,,0,165,165,84,1,HAXES,C,old,z,./images/HAXES.png,,,,,,,,,,,,,,,,,,,,,,,,,,,,,,,,,
,,,,,,,,,,,,,,,,,55d7e6f669dbc30012b6826e,65,2022-02-12_18h02.17.567,lexical_decision_task_DD_L3,2021.2.3,Linux armv8l,29.91593622,,,,,,,,,,1.0494,1,,,,,,,,,,,,,,,0,-0.296257782,-0.322537804,1,0,0,1.0494,button_left_main,-0.296257782,-0.322537804,1,0,0,,0,166,166,122,1,BLOOT,LB,old,z,./images/BLOOTLB.png,,,,,,,,,,,,,,,,,,,,,,,,,,,,,,,,,
,,,,,,,,,,,,,,,,,55d7e6f669dbc30012b6826e,65,2022-02-12_18h02.17.567,lexical_decision_task_DD_L3,2021.2.3,Linux armv8l,29.91593622,,,,,,,,,,1.1725,1,,,,,,,,,,,,,,,0,0.344074821,-0.322537804,1,0,0,1.1725,button_right_main,0.344074821,-0.322537804,1,0,0,,0,167,167,14,1,PICKLE,HB,old,m,./images/PICKLEHB.png,,,,,,,,,,,,,,,,,,,,,,,,,,,,,,,,,
,,,,,,,,,,,,,,,,,55d7e6f669dbc30012b6826e,65,2022-02-12_18h02.17.567,lexical_decision_task_DD_L3,2021.2.3,Linux armv8l,29.91593622,,,,,,,,,,,,,,,,,,,,,,,,,,,,,,,,,,,,,,,,,,,,,,How likely will it be that you will recognize the words presented clearly on a scale of 0 (not likely) to 100 (most likely)?,,,,,-0.02390852,-0.420339966,1,0,0,jol_adv,5,5.5792,0,0,0,0,1,,,,,,,,,,,,,,,,,,,
,,,,,,,,,,,,,,,,,55d7e6f669dbc30012b6826e,65,2022-02-12_18h02.17.567,lexical_decision_task_DD_L3,2021.2.3,Linux armv8l,29.91593622,,,,,,,,,,,,,,,,,,,,,,,,,,,,,,,,,,,,,,,,,,,,,,How likely will it be that you will recognize the words presented very blurred on a scale of 0 (not likely) to 100 (most likely)?,,,,,,,,,,,5,7.7147,0,1,1,2,1,,,,,,,,,,,,,,,,,,,
,,,,,,,,,,,,,,,,,55d7e6f669dbc30012b6826e,65,2022-02-12_18h02.17.567,lexical_decision_task_DD_L3,2021.2.3,Linux armv8l,29.91593622,,,,,,,,,,,,,,,,,,,,,,,,,,,,,,,,,,,,,,,,,,,,,,How likely will it be that you will recognize the words presented slighly blurred on a scale of 0 (not likely) to 100 (most likely)?,,,,,,,,,,,4,4.7861,0,2,2,1,1,,,,,,,,,,,,,,,,,,,
,0.061330557,-0.35999403,1,0,0,instr_done_button,,,,,,1,test,"In the next phase you will be presented with the words from the the first phase. Your job is to decide whether you remember seeing the word or not. If you remember seeing the word press ""old"" or type ""m"". If you do not remember seeing the word press ""new"" or type ""z"". Please press the space bar or click on continue to begin. ",,,55d7e6f669dbc30012b6826e,65,2022-02-12_18h02.17.567,lexical_decision_task_DD_L3,2021.2.3,Linux armv8l,29.91593622,,,,,,,,,,,,,,,,,,,,,,,,,,,,,,,,,,,,,,,,,,,,,,,,,,,,,,,,,,,,,,,,0,0,0,0,1,,,,,,,,,,,,,,
,0.046777534,-0.420339966,1,0,0,instr_done_button,,,,,,1,test,"In the next phase you will be presented with the words from the the first phase. Your job is to decide whether you remember seeing the word or not. If you remember seeing the word press ""old"" or type ""m"". If you do not remember seeing the word press ""new"" or type ""z"". Please press the space bar or click on continue to begin. ",,,55d7e6f669dbc30012b6826e,65,2022-02-12_18h02.17.567,lexical_decision_task_DD_L3,2021.2.3,Linux armv8l,29.91593622,,,,,,,,,,,,,,,,,,,,,,,,,,,,,,,,,,,,,,,,,,,,,,,,,,,,,,,,,,,,,,,,1,0,1,0,1,,,,,,,,,,,,,,
,0.03846159,-0.4016119,1,0,0,instr_done_button,,,,,,1,test,"In the next phase you will be presented with the words from the the first phase. Your job is to decide whether you remember seeing the word or not. If you remember seeing the word press ""old"" or type ""m"". If you do not remember seeing the word press ""new"" or type ""z"". Please press the space bar or click on continue to begin. ",,,55d7e6f669dbc30012b6826e,65,2022-02-12_18h02.17.567,lexical_decision_task_DD_L3,2021.2.3,Linux armv8l,29.91593622,,,,,,,,,,,,,,,,,,,,,,,,,,,,,,,,,,,,,,,,,,,,,,,,,,,,,,,,,,,,,,,,2,0,2,0,1,,,,,,,,,,,,,,
,-0.02806654,-0.387045574,1,0,0,instr_done_button,,,,,,1,test,"In the next phase you will be presented with the words from the the first phase. Your job is to decide whether you remember seeing the word or not. If you remember seeing the word press ""old"" or type ""m"". If you do not remember seeing the word press ""new"" or type ""z"". Please press the space bar or click on continue to begin. ",,,55d7e6f669dbc30012b6826e,65,2022-02-12_18h02.17.567,lexical_decision_task_DD_L3,2021.2.3,Linux armv8l,29.91593622,,,,,,,,,,,,,,,,,,,,,,,,,,,,,,,,,,,,,,,,,,,,,,,,,,,,,,,,,,,,,,,,3,0,3,0,1,,,,,,,,,,,,,,
,0.092515564,-0.432825375,1,0,0,instr_done_button,,,,,,1,test,"In the next phase you will be presented with the words from the the first phase. Your job is to decide whether you remember seeing the word or not. If you remember seeing the word press ""old"" or type ""m"". If you do not remember seeing the word press ""new"" or type ""z"". Please press the space bar or click on continue to begin. ",,,55d7e6f669dbc30012b6826e,65,2022-02-12_18h02.17.567,lexical_decision_task_DD_L3,2021.2.3,Linux armv8l,29.91593622,,,,,,,,,,,,,,,,,,,,,,,,,,,,,,,,,,,,,,,,,,,,,,,,,,,,,,,,,,,,,,,,4,0,4,0,1,,,,,,,,,,,,,,
,,,,,,,,,,,,,,,,,55d7e6f669dbc30012b6826e,65,2022-02-12_18h02.17.567,lexical_decision_task_DD_L3,2021.2.3,Linux armv8l,29.91593622,,,,,,,,,,2.2819,1,,,,,,,,,,,,,,,,,,,,,,,-0.331600821,-0.316295147,1,0,0,,,,,,,CANOE,C,z,m,./images/CANOE.png,,,,,,,,,,,,,,,,,,,,,0,-0.331600821,-0.316295147,1,0,0,2.2819,button_left_test,0,0,0,142,1
,,,,,,,,,,,,,,,,,55d7e6f669dbc30012b6826e,65,2022-02-12_18h02.17.567,lexical_decision_task_DD_L3,2021.2.3,Linux armv8l,29.91593622,,,,,,,,,,1.8094,1,,,,,,,,,,,,,,,,,,,,,,,0.321205902,-0.341265869,1,0,0,,,,,,,PENCE,C,m,m,./images/PENCE.png,,,,,,,,,,,,,,,,,,,,,0,0.321205902,-0.341265869,1,0,0,1.8094,button_right_test,0,1,1,16,1
,,,,,,,,,,,,,,,,,55d7e6f669dbc30012b6826e,65,2022-02-12_18h02.17.567,lexical_decision_task_DD_L3,2021.2.3,Linux armv8l,29.91593622,,,,,,,,,,0.8619,1,,,,,,,,,,,,,,,,,,,,,,,0.327442837,-0.339184952,1,0,0,,,,,,,PEACH,HB,m,m,./images/PEACHHB.png,,,,,,,,,,,,,,,,,,,,,0,0.327442837,-0.339184952,1,0,0,0.8619,button_right_test,0,2,2,35,1
,,,,,,,,,,,,,,,,,55d7e6f669dbc30012b6826e,65,2022-02-12_18h02.17.567,lexical_decision_task_DD_L3,2021.2.3,Linux armv8l,29.91593622,,,,,,,,,,0.8134,1,,,,,,,,,,,,,,,,,,,,,,,0.341995811,-0.332942486,1,0,0,,,,,,,BANNER,C,m,m,./images/BANNER.png,,,,,,,,,,,,,,,,,,,,,0,0.341995811,-0.332942486,1,0,0,0.8134,button_right_test,0,3,3,52,1
,,,,,,,,,,,,,,,,,55d7e6f669dbc30012b6826e,65,2022-02-12_18h02.17.567,lexical_decision_task_DD_L3,2021.2.3,Linux armv8l,29.91593622,,,,,,,,,,1.1265,1,,,,,,,,,,,,,,,,,,,,,,,-0.28170476,-0.285081768,1,0,0,,,,,,,HEATER,HB,z,m,./images/HEATERHB.png,,,,,,,,,,,,,,,,,,,,,0,-0.28170476,-0.285081768,1,0,0,1.1265,button_left_test,0,4,4,140,1
,,,,,,,,,,,,,,,,,55d7e6f669dbc30012b6826e,65,2022-02-12_18h02.17.567,lexical_decision_task_DD_L3,2021.2.3,Linux armv8l,29.91593622,,,,,,,,,,1.4181,1,,,,,,,,,,,,,,,,,,,,,,,-0.292099786,-0.283000851,1,0,0,,,,,,,MIDGET,C,z,m,./images/MIDGET.png,,,,,,,,,,,,,,,,,,,,,0,-0.292099786,-0.283000851,1,0,0,1.4181,button_left_test,0,5,5,160,1
,,,,,,,,,,,,,,,,,55d7e6f669dbc30012b6826e,65,2022-02-12_18h02.17.567,lexical_decision_task_DD_L3,2021.2.3,Linux armv8l,29.91593622,,,,,,,,,,1.2457,1,,,,,,,,,,,,,,,,,,,,,,,-0.267151761,-0.332942486,1,0,0,,,,,,,CLOWN,C,z,m,./images/CLOWN.png,,,,,,,,,,,,,,,,,,,,,0,-0.267151761,-0.332942486,1,0,0,1.2457,button_left_test,0,6,6,106,1
,,,,,,,,,,,,,,,,,55d7e6f669dbc30012b6826e,65,2022-02-12_18h02.17.567,lexical_decision_task_DD_L3,2021.2.3,Linux armv8l,29.91593622,,,,,,,,,,1.7317,1,,,,,,,,,,,,,,,,,,,,,,,-0.213097692,-0.357913113,1,0,0,,,,,,,STAIN,LB,z,m,./images/STAINLB.png,,,,,,,,,,,,,,,,,,,,,0,-0.213097692,-0.357913113,1,0,0,1.7317,button_left_test,0,7,7,90,1
,,,,,,,,,,,,,,,,,55d7e6f669dbc30012b6826e,65,2022-02-12_18h02.17.567,lexical_decision_task_DD_L3,2021.2.3,Linux armv8l,29.91593622,,,,,,,,,,1.1704,1,,,,,,,,,,,,,,,,,,,,,,,-0.240124726,-0.347508621,1,0,0,,,,,,,BUNNY,C,z,m,./images/BUNNY.png,,,,,,,,,,,,,,,,,,,,,0,-0.240124726,-0.347508621,1,0,0,1.1704,button_left_test,0,8,8,97,1
,,,,,,,,,,,,,,,,,55d7e6f669dbc30012b6826e,65,2022-02-12_18h02.17.567,lexical_decision_task_DD_L3,2021.2.3,Linux armv8l,29.91593622,,,,,,,,,,0.9116,1,,,,,,,,,,,,,,,,,,,,,,,0.319126892,-0.347508621,1,0,0,,,,,,,WALRUS,HB,m,m,./images/WALRUSHB.png,,,,,,,,,,,,,,,,,,,,,0,0.319126892,-0.347508621,1,0,0,0.9116,button_right_test,0,9,9,23,1
,,,,,,,,,,,,,,,,,55d7e6f669dbc30012b6826e,65,2022-02-12_18h02.17.567,lexical_decision_task_DD_L3,2021.2.3,Linux armv8l,29.91593622,,,,,,,,,,0.746,1,,,,,,,,,,,,,,,,,,,,,,,0.325363827,-0.343346786,1,0,0,,,,,,,BERRY,HB,m,m,./images/BERRYHB.png,,,,,,,,,,,,,,,,,,,,,0,0.325363827,-0.343346786,1,0,0,0.746,button_right_test,0,10,10,47,1
,,,,,,,,,,,,,,,,,55d7e6f669dbc30012b6826e,65,2022-02-12_18h02.17.567,lexical_decision_task_DD_L3,2021.2.3,Linux armv8l,29.91593622,,,,,,,,,,0.8644,0,,,,,,,,,,,,,,,,,,,,,,,0.319126892,-0.335023308,1,0,0,,,,,,,PARADE,HB,z,m,./images/PARADEHB.png,,,,,,,,,,,,,,,,,,,,,0,0.319126892,-0.335023308,1,0,0,0.8644,button_right_test,0,11,11,101,1
,,,,,,,,,,,,,,,,,55d7e6f669dbc30012b6826e,65,2022-02-12_18h02.17.567,lexical_decision_task_DD_L3,2021.2.3,Linux armv8l,29.91593622,,,,,,,,,,0.7796,1,,,,,,,,,,,,,,,,,,,,,,,0.327442837,-0.339184952,1,0,0,,,,,,,LIZARD,HB,m,m,./images/LIZARDHB.png,,,,,,,,,,,,,,,,,,,,,0,0.327442837,-0.339184952,1,0,0,0.7796,button_right_test,0,12,12,44,1
,,,,,,,,,,,,,,,,,55d7e6f669dbc30012b6826e,65,2022-02-12_18h02.17.567,lexical_decision_task_DD_L3,2021.2.3,Linux armv8l,29.91593622,,,,,,,,,,0.8967,1,,,,,,,,,,,,,,,,,,,,,,,0.327442837,-0.330861473,1,0,0,,,,,,,SQUARE,LB,m,m,./images/SQUARELB.png,,,,,,,,,,,,,,,,,,,,,0,0.327442837,-0.330861473,1,0,0,0.8967,button_right_test,0,13,13,6,1
,,,,,,,,,,,,,,,,,55d7e6f669dbc30012b6826e,65,2022-02-12_18h02.17.567,lexical_decision_task_DD_L3,2021.2.3,Linux armv8l,29.91593622,,,,,,,,,,0.8317,1,,,,,,,,,,,,,,,,,,,,,,,0.321205902,-0.343346786,1,0,0,,,,,,,BABOON,C,m,m,./images/BABOON.png,,,,,,,,,,,,,,,,,,,,,0,0.321205902,-0.343346786,1,0,0,0.8317,button_right_test,0,14,14,58,1
,,,,,,,,,,,,,,,,,55d7e6f669dbc30012b6826e,65,2022-02-12_18h02.17.567,lexical_decision_task_DD_L3,2021.2.3,Linux armv8l,29.91593622,,,,,,,,,,0.8779,1,,,,,,,,,,,,,,,,,,,,,,,0.314968872,-0.343346786,1,0,0,,,,,,,WRIST,C,m,m,./images/WRIST.png,,,,,,,,,,,,,,,,,,,,,0,0.314968872,-0.343346786,1,0,0,0.8779,button_right_test,0,15,15,25,1
,,,,,,,,,,,,,,,,,55d7e6f669dbc30012b6826e,65,2022-02-12_18h02.17.567,lexical_decision_task_DD_L3,2021.2.3,Linux armv8l,29.91593622,,,,,,,,,,1.1956,1,,,,,,,,,,,,,,,,,,,,,,,-0.337837839,-0.351670361,1,0,0,,,,,,,STATUE,LB,z,m,./images/STATUELB.png,,,,,,,,,,,,,,,,,,,,,0,-0.337837839,-0.351670361,1,0,0,1.1956,button_left_test,0,16,16,150,1
,,,,,,,,,,,,,,,,,55d7e6f669dbc30012b6826e,65,2022-02-12_18h02.17.567,lexical_decision_task_DD_L3,2021.2.3,Linux armv8l,29.91593622,,,,,,,,,,1.0451,1,,,,,,,,,,,,,,,,,,,,,,,0.283783865,-0.343346786,1,0,0,,,,,,,JUNGLE,HB,m,m,./images/JUNGLEHB.png,,,,,,,,,,,,,,,,,,,,,0,0.283783865,-0.343346786,1,0,0,1.0451,button_right_test,0,17,17,83,1
,,,,,,,,,,,,,,,,,55d7e6f669dbc30012b6826e,65,2022-02-12_18h02.17.567,lexical_decision_task_DD_L3,2021.2.3,Linux armv8l,29.91593622,,,,,,,,,,1.3635,0,,,,,,,,,,,,,,,,,,,,,,,0.333679867,-0.343346786,1,0,0,,,,,,,FLASK,LB,z,m,./images/FLASKLB.png,,,,,,,,,,,,,,,,,,,,,0,0.333679867,-0.343346786,1,0,0,1.3635,button_right_test,0,18,18,156,1
,,,,,,,,,,,,,,,,,55d7e6f669dbc30012b6826e,65,2022-02-12_18h02.17.567,lexical_decision_task_DD_L3,2021.2.3,Linux armv8l,29.91593622,,,,,,,,,,1.317,1,,,,,,,,,,,,,,,,,,,,,,,0.339916897,-0.326699638,1,0,0,,,,,,,MELON,C,m,m,./images/MELON.png,,,,,,,,,,,,,,,,,,,,,0,0.339916897,-0.326699638,1,0,0,1.317,button_right_test,0,19,19,22,1
,,,,,,,,,,,,,,,,,55d7e6f669dbc30012b6826e,65,2022-02-12_18h02.17.567,lexical_decision_task_DD_L3,2021.2.3,Linux armv8l,29.91593622,,,,,,,,,,0.7954,1,,,,,,,,,,,,,,,,,,,,,,,0.348232841,-0.326699638,1,0,0,,,,,,,SNACK,C,m,m,./images/SNACK.png,,,,,,,,,,,,,,,,,,,,,0,0.348232841,-0.326699638,1,0,0,0.7954,button_right_test,0,20,20,73,1
,,,,,,,,,,,,,,,,,55d7e6f669dbc30012b6826e,65,2022-02-12_18h02.17.567,lexical_decision_task_DD_L3,2021.2.3,Linux armv8l,29.91593622,,,,,,,,,,0.7786,1,,,,,,,,,,,,,,,,,,,,,,,0.344074821,-0.322537804,1,0,0,,,,,,,STORM,LB,m,m,./images/STORMLB.png,,,,,,,,,,,,,,,,,,,,,0,0.344074821,-0.322537804,1,0,0,0.7786,button_right_test,0,21,21,30,1
,,,,,,,,,,,,,,,,,55d7e6f669dbc30012b6826e,65,2022-02-12_18h02.17.567,lexical_decision_task_DD_L3,2021.2.3,Linux armv8l,29.91593622,,,,,,,,,,1.0468,0,,,,,,,,,,,,,,,,,,,,,,,0.333679867,-0.332942486,1,0,0,,,,,,,HOCKEY,HB,z,m,./images/HOCKEYHB.png,,,,,,,,,,,,,,,,,,,,,0,0.333679867,-0.332942486,1,0,0,1.0468,button_right_test,0,22,22,116,1
,,,,,,,,,,,,,,,,,55d7e6f669dbc30012b6826e,65,2022-02-12_18h02.17.567,lexical_decision_task_DD_L3,2021.2.3,Linux armv8l,29.91593622,,,,,,,,,,0.8132,1,,,,,,,,,,,,,,,,,,,,,,,0.333679867,-0.335023308,1,0,0,,,,,,,TOMATO,LB,m,m,./images/TOMATOLB.png,,,,,,,,,,,,,,,,,,,,,0,0.333679867,-0.335023308,1,0,0,0.8132,button_right_test,0,23,23,0,1
,,,,,,,,,,,,,,,,,55d7e6f669dbc30012b6826e,65,2022-02-12_18h02.17.567,lexical_decision_task_DD_L3,2021.2.3,Linux armv8l,29.91593622,,,,,,,,,,0.8612,1,,,,,,,,,,,,,,,,,,,,,,,0.333679867,-0.330861473,1,0,0,,,,,,,BARREL,HB,m,m,./images/BARRELHB.png,,,,,,,,,,,,,,,,,,,,,0,0.333679867,-0.330861473,1,0,0,0.8612,button_right_test,0,24,24,32,1
,,,,,,,,,,,,,,,,,55d7e6f669dbc30012b6826e,65,2022-02-12_18h02.17.567,lexical_decision_task_DD_L3,2021.2.3,Linux armv8l,29.91593622,,,,,,,,,,0.862,1,,,,,,,,,,,,,,,,,,,,,,,0.331600857,-0.330861473,1,0,0,,,,,,,SKIING,HB,m,m,./images/SKIINGHB.png,,,,,,,,,,,,,,,,,,,,,0,0.331600857,-0.330861473,1,0,0,0.862,button_right_test,0,25,25,17,1
,,,,,,,,,,,,,,,,,55d7e6f669dbc30012b6826e,65,2022-02-12_18h02.17.567,lexical_decision_task_DD_L3,2021.2.3,Linux armv8l,29.91593622,,,,,,,,,,0.8617,1,,,,,,,,,,,,,,,,,,,,,,,0.331600857,-0.330861473,1,0,0,,,,,,,KITTEN,LB,m,m,./images/KITTENLB.png,,,,,,,,,,,,,,,,,,,,,0,0.331600857,-0.330861473,1,0,0,0.8617,button_right_test,0,26,26,45,1
,,,,,,,,,,,,,,,,,55d7e6f669dbc30012b6826e,65,2022-02-12_18h02.17.567,lexical_decision_task_DD_L3,2021.2.3,Linux armv8l,29.91593622,,,,,,,,,,1.4469,1,,,,,,,,,,,,,,,,,,,,,,,0.335758877,-0.332942486,1,0,0,,,,,,,BURIAL,HB,m,m,./images/BURIALHB.png,,,,,,,,,,,,,,,,,,,,,0,0.335758877,-0.332942486,1,0,0,1.4469,button_right_test,0,27,27,59,1
,,,,,,,,,,,,,,,,,55d7e6f669dbc30012b6826e,65,2022-02-12_18h02.17.567,lexical_decision_task_DD_L3,2021.2.3,Linux armv8l,29.91593622,,,,,,,,,,1.3777,1,,,,,,,,,,,,,,,,,,,,,,,-0.329521811,-0.328780651,1,0,0,,,,,,,LAGOON,HB,z,m,./images/LAGOONHB.png,,,,,,,,,,,,,,,,,,,,,0,-0.329521811,-0.328780651,1,0,0,1.3777,button_left_test,0,28,28,131,1
,,,,,,,,,,,,,,,,,55d7e6f669dbc30012b6826e,65,2022-02-12_18h02.17.567,lexical_decision_task_DD_L3,2021.2.3,Linux armv8l,29.91593622,,,,,,,,,,1.1312,1,,,,,,,,,,,,,,,,,,,,,,,-0.321205819,-0.301728821,1,0,0,,,,,,,CURRY,LB,z,m,./images/CURRYLB.png,,,,,,,,,,,,,,,,,,,,,0,-0.321205819,-0.301728821,1,0,0,1.1312,button_left_test,0,29,29,144,1
,,,,,,,,,,,,,,,,,55d7e6f669dbc30012b6826e,65,2022-02-12_18h02.17.567,lexical_decision_task_DD_L3,2021.2.3,Linux armv8l,29.91593622,,,,,,,,,,0.8373,1,,,,,,,,,,,,,,,,,,,,,,,0.331600857,-0.310052395,1,0,0,,,,,,,SPORT,LB,m,m,./images/SPORTLB.png,,,,,,,,,,,,,,,,,,,,,0,0.331600857,-0.310052395,1,0,0,0.8373,button_right_test,0,30,30,48,1
,,,,,,,,,,,,,,,,,55d7e6f669dbc30012b6826e,65,2022-02-12_18h02.17.567,lexical_decision_task_DD_L3,2021.2.3,Linux armv8l,29.91593622,,,,,,,,,,1.5319,1,,,,,,,,,,,,,,,,,,,,,,,0.327442837,-0.337104034,1,0,0,,,,,,,STRING,HB,m,m,./images/STRINGHB.png,,,,,,,,,,,,,,,,,,,,,0,0.327442837,-0.337104034,1,0,0,1.5319,button_right_test,0,31,31,41,1
,,,,,,,,,,,,,,,,,55d7e6f669dbc30012b6826e,65,2022-02-12_18h02.17.567,lexical_decision_task_DD_L3,2021.2.3,Linux armv8l,29.91593622,,,,,,,,,,0.8467,1,,,,,,,,,,,,,,,,,,,,,,,0.327442837,-0.335023308,1,0,0,,,,,,,GRAIN,LB,m,m,./images/GRAINLB.png,,,,,,,,,,,,,,,,,,,,,0,0.327442837,-0.335023308,1,0,0,0.8467,button_right_test,0,32,32,75,1
,,,,,,,,,,,,,,,,,55d7e6f669dbc30012b6826e,65,2022-02-12_18h02.17.567,lexical_decision_task_DD_L3,2021.2.3,Linux armv8l,29.91593622,,,,,,,,,,0.8476,1,,,,,,,,,,,,,,,,,,,,,,,0.333679867,-0.343346786,1,0,0,,,,,,,MOSQUE,C,m,m,./images/MOSQUE.png,,,,,,,,,,,,,,,,,,,,,0,0.333679867,-0.343346786,1,0,0,0.8476,button_right_test,0,33,33,43,1
,,,,,,,,,,,,,,,,,55d7e6f669dbc30012b6826e,65,2022-02-12_18h02.17.567,lexical_decision_task_DD_L3,2021.2.3,Linux armv8l,29.91593622,,,,,,,,,,1.46,1,,,,,,,,,,,,,,,,,,,,,,,-0.319126821,-0.320456982,1,0,0,,,,,,,BOILER,LB,z,m,./images/BOILERLB.png,,,,,,,,,,,,,,,,,,,,,0,-0.319126821,-0.320456982,1,0,0,1.46,button_left_test,0,34,34,120,1
,,,,,,,,,,,,,,,,,55d7e6f669dbc30012b6826e,65,2022-02-12_18h02.17.567,lexical_decision_task_DD_L3,2021.2.3,Linux armv8l,29.91593622,,,,,,,,,,1.4209,1,,,,,,,,,,,,,,,,,,,,,,,-0.248440742,-0.345427704,1,0,0,,,,,,,CHERRY,LB,z,m,./images/CHERRYLB.png,,,,,,,,,,,,,,,,,,,,,0,-0.248440742,-0.345427704,1,0,0,1.4209,button_left_test,0,35,35,138,1
,,,,,,,,,,,,,,,,,55d7e6f669dbc30012b6826e,65,2022-02-12_18h02.17.567,lexical_decision_task_DD_L3,2021.2.3,Linux armv8l,29.91593622,,,,,,,,,,0.9708,1,,,,,,,,,,,,,,,,,,,,,,,0.325363827,-0.266353607,1,0,0,,,,,,,INFANT,C,m,m,./images/INFANT.png,,,,,,,,,,,,,,,,,,,,,0,0.325363827,-0.266353607,1,0,0,0.9708,button_right_test,0,36,36,76,1
,,,,,,,,,,,,,,,,,55d7e6f669dbc30012b6826e,65,2022-02-12_18h02.17.567,lexical_decision_task_DD_L3,2021.2.3,Linux armv8l,29.91593622,,,,,,,,,,0.9579,1,,,,,,,,,,,,,,,,,,,,,,,0.344074821,-0.322537804,1,0,0,,,,,,,JELLY,C,m,m,./images/JELLY.png,,,,,,,,,,,,,,,,,,,,,0,0.344074821,-0.322537804,1,0,0,0.9579,button_right_test,0,37,37,64,1
,,,,,,,,,,,,,,,,,55d7e6f669dbc30012b6826e,65,2022-02-12_18h02.17.567,lexical_decision_task_DD_L3,2021.2.3,Linux armv8l,29.91593622,,,,,,,,,,1.6928,1,,,,,,,,,,,,,,,,,,,,,,,-0.296257782,-0.297566986,1,0,0,,,,,,,WALNUT,LB,z,m,./images/WALNUTLB.png,,,,,,,,,,,,,,,,,,,,,0,-0.296257782,-0.297566986,1,0,0,1.6928,button_left_test,0,38,38,84,1
,,,,,,,,,,,,,,,,,55d7e6f669dbc30012b6826e,65,2022-02-12_18h02.17.567,lexical_decision_task_DD_L3,2021.2.3,Linux armv8l,29.91593622,,,,,,,,,,0.9291,1,,,,,,,,,,,,,,,,,,,,,,,0.323284817,-0.312133312,1,0,0,,,,,,,LADDER,HB,m,m,./images/LADDERHB.png,,,,,,,,,,,,,,,,,,,,,0,0.323284817,-0.312133312,1,0,0,0.9291,button_right_test,0,39,39,38,1
,,,,,,,,,,,,,,,,,55d7e6f669dbc30012b6826e,65,2022-02-12_18h02.17.567,lexical_decision_task_DD_L3,2021.2.3,Linux armv8l,29.91593622,,,,,,,,,,0.9123,1,,,,,,,,,,,,,,,,,,,,,,,0.327442837,-0.357913113,1,0,0,,,,,,,DRUMS,C,m,m,./images/DRUMS.png,,,,,,,,,,,,,,,,,,,,,0,0.327442837,-0.357913113,1,0,0,0.9123,button_right_test,0,40,40,49,1
,,,,,,,,,,,,,,,,,55d7e6f669dbc30012b6826e,65,2022-02-12_18h02.17.567,lexical_decision_task_DD_L3,2021.2.3,Linux armv8l,29.91593622,,,,,,,,,,1.1787,0,,,,,,,,,,,,,,,,,,,,,,,0.073804617,-0.424501801,1,0,0,,,,,,,VALLEY,HB,z,m,./images/VALLEYHB.png,break_done_button,,,,,,,,,,,,,,,,,,,,0,0.329521847,-0.351670361,1,0,0,1.1787,button_right_test,0,41,41,152,1
,,,,,,,,,,,,,,,,,55d7e6f669dbc30012b6826e,65,2022-02-12_18h02.17.567,lexical_decision_task_DD_L3,2021.2.3,Linux armv8l,29.91593622,,,,,,,,,,1.1604,1,,,,,,,,,,,,,,,,,,,,,,,-0.28794179,-0.310052395,1,0,0,,,,,,,ARTIST,C,z,m,./images/ARTIST.png,,,,,,,,,,,,,,,,,,,,,0,-0.28794179,-0.310052395,1,0,0,1.1604,button_left_test,0,42,42,145,1
,,,,,,,,,,,,,,,,,55d7e6f669dbc30012b6826e,65,2022-02-12_18h02.17.567,lexical_decision_task_DD_L3,2021.2.3,Linux armv8l,29.91593622,,,,,,,,,,0.9191,1,,,,,,,,,,,,,,,,,,,,,,,0.310810852,-0.318376064,1,0,0,,,,,,,BONNET,HB,m,m,./images/BONNETHB.png,,,,,,,,,,,,,,,,,,,,,0,0.310810852,-0.318376064,1,0,0,0.9191,button_right_test,0,43,43,11,1
,,,,,,,,,,,,,,,,,55d7e6f669dbc30012b6826e,65,2022-02-12_18h02.17.567,lexical_decision_task_DD_L3,2021.2.3,Linux armv8l,29.91593622,,,,,,,,,,0.7623,1,,,,,,,,,,,,,,,,,,,,,,,0.321205902,-0.343346786,1,0,0,,,,,,,CRUST,C,m,m,./images/CRUST.png,,,,,,,,,,,,,,,,,,,,,0,0.321205902,-0.343346786,1,0,0,0.7623,button_right_test,0,44,44,79,1
,,,,,,,,,,,,,,,,,55d7e6f669dbc30012b6826e,65,2022-02-12_18h02.17.567,lexical_decision_task_DD_L3,2021.2.3,Linux armv8l,29.91593622,,,,,,,,,,0.7795,1,,,,,,,,,,,,,,,,,,,,,,,0.329521847,-0.339184952,1,0,0,,,,,,,THROAT,LB,m,m,./images/THROATLB.png,,,,,,,,,,,,,,,,,,,,,0,0.329521847,-0.339184952,1,0,0,0.7795,button_right_test,0,45,45,36,1
,,,,,,,,,,,,,,,,,55d7e6f669dbc30012b6826e,65,2022-02-12_18h02.17.567,lexical_decision_task_DD_L3,2021.2.3,Linux armv8l,29.91593622,,,,,,,,,,0.9781,0,,,,,,,,,,,,,,,,,,,,,,,0.331600857,-0.335023308,1,0,0,,,,,,,BASKET,HB,z,m,./images/BASKETHB.png,,,,,,,,,,,,,,,,,,,,,0,0.331600857,-0.335023308,1,0,0,0.9781,button_right_test,0,46,46,128,1
,,,,,,,,,,,,,,,,,55d7e6f669dbc30012b6826e,65,2022-02-12_18h02.17.567,lexical_decision_task_DD_L3,2021.2.3,Linux armv8l,29.91593622,,,,,,,,,,1.3843,1,,,,,,,,,,,,,,,,,,,,,,,-0.267151761,-0.335023308,1,0,0,,,,,,,RAZOR,C,z,m,./images/RAZOR.png,,,,,,,,,,,,,,,,,,,,,0,-0.267151761,-0.335023308,1,0,0,1.3843,button_left_test,0,47,47,118,1
,,,,,,,,,,,,,,,,,55d7e6f669dbc30012b6826e,65,2022-02-12_18h02.17.567,lexical_decision_task_DD_L3,2021.2.3,Linux armv8l,29.91593622,,,,,,,,,,0.9631,1,,,,,,,,,,,,,,,,,,,,,,,0.348232841,-0.285081768,1,0,0,,,,,,,SWING,C,m,m,./images/SWING.png,,,,,,,,,,,,,,,,,,,,,0,0.348232841,-0.285081768,1,0,0,0.9631,button_right_test,0,48,48,40,1
,,,,,,,,,,,,,,,,,55d7e6f669dbc30012b6826e,65,2022-02-12_18h02.17.567,lexical_decision_task_DD_L3,2021.2.3,Linux armv8l,29.91593622,,,,,,,,,,1.5143,1,,,,,,,,,,,,,,,,,,,,,,,-0.28794179,-0.335023308,1,0,0,,,,,,,PARCEL,LB,z,m,./images/PARCELLB.png,,,,,,,,,,,,,,,,,,,,,0,-0.28794179,-0.335023308,1,0,0,1.5143,button_left_test,0,49,49,102,1
,,,,,,,,,,,,,,,,,55d7e6f669dbc30012b6826e,65,2022-02-12_18h02.17.567,lexical_decision_task_DD_L3,2021.2.3,Linux armv8l,29.91593622,,,,,,,,,,1.2288,1,,,,,,,,,,,,,,,,,,,,,,,-0.267151761,-0.324618816,1,0,0,,,,,,,JUMPER,HB,z,m,./images/JUMPERHB.png,,,,,,,,,,,,,,,,,,,,,0,-0.267151761,-0.324618816,1,0,0,1.2288,button_left_test,0,50,50,158,1
,,,,,,,,,,,,,,,,,55d7e6f669dbc30012b6826e,65,2022-02-12_18h02.17.567,lexical_decision_task_DD_L3,2021.2.3,Linux armv8l,29.91593622,,,,,,,,,,1.5481,0,,,,,,,,,,,,,,,,,,,,,,,0.333679867,-0.335023308,1,0,0,,,,,,,BOXER,C,z,m,./images/BOXER.png,,,,,,,,,,,,,,,,,,,,,0,0.333679867,-0.335023308,1,0,0,1.5481,button_right_test,0,51,51,88,1
,,,,,,,,,,,,,,,,,55d7e6f669dbc30012b6826e,65,2022-02-12_18h02.17.567,lexical_decision_task_DD_L3,2021.2.3,Linux armv8l,29.91593622,,,,,,,,,,0.7697,0,,,,,,,,,,,,,,,,,,,,,,,0.331600857,-0.337104034,1,0,0,,,,,,,FENCE,HB,z,m,./images/FENCEHB.png,,,,,,,,,,,,,,,,,,,,,0,0.331600857,-0.337104034,1,0,0,0.7697,button_right_test,0,52,52,98,1
,,,,,,,,,,,,,,,,,55d7e6f669dbc30012b6826e,65,2022-02-12_18h02.17.567,lexical_decision_task_DD_L3,2021.2.3,Linux armv8l,29.91593622,,,,,,,,,,0.7798,1,,,,,,,,,,,,,,,,,,,,,,,0.341995811,-0.351670361,1,0,0,,,,,,,CANYON,C,m,m,./images/CANYON.png,,,,,,,,,,,,,,,,,,,,,0,0.341995811,-0.351670361,1,0,0,0.7798,button_right_test,0,53,53,34,1
,,,,,,,,,,,,,,,,,55d7e6f669dbc30012b6826e,65,2022-02-12_18h02.17.567,lexical_decision_task_DD_L3,2021.2.3,Linux armv8l,29.91593622,,,,,,,,,,1.1292,1,,,,,,,,,,,,,,,,,,,,,,,-0.273388767,-0.357913113,1,0,0,,,,,,,SAUCE,LB,z,m,./images/SAUCELB.png,,,,,,,,,,,,,,,,,,,,,0,-0.273388767,-0.357913113,1,0,0,1.1292,button_left_test,0,54,54,135,1
,,,,,,,,,,,,,,,,,55d7e6f669dbc30012b6826e,65,2022-02-12_18h02.17.567,lexical_decision_task_DD_L3,2021.2.3,Linux armv8l,29.91593622,,,,,,,,,,1.2128,0,,,,,,,,,,,,,,,,,,,,,,,0.325363827,-0.343346786,1,0,0,,,,,,,SPINE,HB,z,m,./images/SPINEHB.png,,,,,,,,,,,,,,,,,,,,,0,0.325363827,-0.343346786,1,0,0,1.2128,button_right_test,0,55,55,149,1
,,,,,,,,,,,,,,,,,55d7e6f669dbc30012b6826e,65,2022-02-12_18h02.17.567,lexical_decision_task_DD_L3,2021.2.3,Linux armv8l,29.91593622,,,,,,,,,,1.3784,0,,,,,,,,,,,,,,,,,,,,,,,0.325363827,-0.353751278,1,0,0,,,,,,,ARROW,LB,z,m,./images/ARROWLB.png,,,,,,,,,,,,,,,,,,,,,0,0.325363827,-0.353751278,1,0,0,1.3784,button_right_test,0,56,56,153,1
,,,,,,,,,,,,,,,,,55d7e6f669dbc30012b6826e,65,2022-02-12_18h02.17.567,lexical_decision_task_DD_L3,2021.2.3,Linux armv8l,29.91593622,,,,,,,,,,0.93,0,,,,,,,,,,,,,,,,,,,,,,,0.321205902,-0.339184952,1,0,0,,,,,,,MONKEY,LB,z,m,./images/MONKEYLB.png,,,,,,,,,,,,,,,,,,,,,0,0.321205902,-0.339184952,1,0,0,0.93,button_right_test,0,57,57,129,1
,,,,,,,,,,,,,,,,,55d7e6f669dbc30012b6826e,65,2022-02-12_18h02.17.567,lexical_decision_task_DD_L3,2021.2.3,Linux armv8l,29.91593622,,,,,,,,,,0.878,1,,,,,,,,,,,,,,,,,,,,,,,0.327442837,-0.355832195,1,0,0,,,,,,,MUFFIN,C,m,m,./images/MUFFIN.png,,,,,,,,,,,,,,,,,,,,,0,0.327442837,-0.355832195,1,0,0,0.878,button_right_test,0,58,58,55,1
,,,,,,,,,,,,,,,,,55d7e6f669dbc30012b6826e,65,2022-02-12_18h02.17.567,lexical_decision_task_DD_L3,2021.2.3,Linux armv8l,29.91593622,,,,,,,,,,1.1301,1,,,,,,,,,,,,,,,,,,,,,,,0.329521847,-0.351670361,1,0,0,,,,,,,BELLY,C,m,m,./images/BELLY.png,,,,,,,,,,,,,,,,,,,,,0,0.329521847,-0.351670361,1,0,0,1.1301,button_right_test,0,59,59,10,1
,,,,,,,,,,,,,,,,,55d7e6f669dbc30012b6826e,65,2022-02-12_18h02.17.567,lexical_decision_task_DD_L3,2021.2.3,Linux armv8l,29.91593622,,,,,,,,,,1.1284,1,,,,,,,,,,,,,,,,,,,,,,,-0.296257782,-0.330861473,1,0,0,,,,,,,BLOKE,LB,z,m,./images/BLOKELB.png,,,,,,,,,,,,,,,,,,,,,0,-0.296257782,-0.330861473,1,0,0,1.1284,button_left_test,0,60,60,96,1
,,,,,,,,,,,,,,,,,55d7e6f669dbc30012b6826e,65,2022-02-12_18h02.17.567,lexical_decision_task_DD_L3,2021.2.3,Linux armv8l,29.91593622,,,,,,,,,,0.9935,1,,,,,,,,,,,,,,,,,,,,,,,-0.28794179,-0.31421423,1,0,0,,,,,,,BRIDE,C,z,m,./images/BRIDE.png,,,,,,,,,,,,,,,,,,,,,0,-0.28794179,-0.31421423,1,0,0,0.9935,button_left_test,0,61,61,148,1
,,,,,,,,,,,,,,,,,55d7e6f669dbc30012b6826e,65,2022-02-12_18h02.17.567,lexical_decision_task_DD_L3,2021.2.3,Linux armv8l,29.91593622,,,,,,,,,,0.9482,1,,,,,,,,,,,,,,,,,,,,,,,0.323284817,-0.330861473,1,0,0,,,,,,,FOLDER,LB,m,m,./images/FOLDERLB.png,,,,,,,,,,,,,,,,,,,,,0,0.323284817,-0.330861473,1,0,0,0.9482,button_right_test,0,62,62,42,1
,,,,,,,,,,,,,,,,,55d7e6f669dbc30012b6826e,65,2022-02-12_18h02.17.567,lexical_decision_task_DD_L3,2021.2.3,Linux armv8l,29.91593622,,,,,,,,,,1.0005,1,,,,,,,,,,,,,,,,,,,,,,,0.329521847,-0.343346786,1,0,0,,,,,,,PICKLE,HB,m,m,./images/PICKLEHB.png,,,,,,,,,,,,,,,,,,,,,0,0.329521847,-0.343346786,1,0,0,1.0005,button_right_test,0,63,63,14,1
,,,,,,,,,,,,,,,,,55d7e6f669dbc30012b6826e,65,2022-02-12_18h02.17.567,lexical_decision_task_DD_L3,2021.2.3,Linux armv8l,29.91593622,,,,,,,,,,1.1455,0,,,,,,,,,,,,,,,,,,,,,,,0.329521847,-0.353751278,1,0,0,,,,,,,PEBBLE,C,z,m,./images/PEBBLE.png,,,,,,,,,,,,,,,,,,,,,0,0.329521847,-0.353751278,1,0,0,1.1455,button_right_test,0,64,64,166,1
,,,,,,,,,,,,,,,,,55d7e6f669dbc30012b6826e,65,2022-02-12_18h02.17.567,lexical_decision_task_DD_L3,2021.2.3,Linux armv8l,29.91593622,,,,,,,,,,0.9456,1,,,,,,,,,,,,,,,,,,,,,,,0.323284817,-0.339184952,1,0,0,,,,,,,DOUGH,C,m,m,./images/DOUGH.png,,,,,,,,,,,,,,,,,,,,,0,0.323284817,-0.339184952,1,0,0,0.9456,button_right_test,0,65,65,19,1
,,,,,,,,,,,,,,,,,55d7e6f669dbc30012b6826e,65,2022-02-12_18h02.17.567,lexical_decision_task_DD_L3,2021.2.3,Linux armv8l,29.91593622,,,,,,,,,,1.3882,1,,,,,,,,,,,,,,,,,,,,,,,0.327442837,-0.349589443,1,0,0,,,,,,,POODLE,LB,m,m,./images/POODLELB.png,,,,,,,,,,,,,,,,,,,,,0,0.327442837,-0.349589443,1,0,0,1.3882,button_right_test,0,66,66,81,1
,,,,,,,,,,,,,,,,,55d7e6f669dbc30012b6826e,65,2022-02-12_18h02.17.567,lexical_decision_task_DD_L3,2021.2.3,Linux armv8l,29.91593622,,,,,,,,,,1.1765,0,,,,,,,,,,,,,,,,,,,,,,,0.312889862,-0.347508621,1,0,0,,,,,,,ENGINE,HB,z,m,./images/ENGINEHB.png,,,,,,,,,,,,,,,,,,,,,0,0.312889862,-0.347508621,1,0,0,1.1765,button_right_test,0,67,67,122,1
,,,,,,,,,,,,,,,,,55d7e6f669dbc30012b6826e,65,2022-02-12_18h02.17.567,lexical_decision_task_DD_L3,2021.2.3,Linux armv8l,29.91593622,,,,,,,,,,0.9783,1,,,,,,,,,,,,,,,,,,,,,,,0.323284817,-0.335023308,1,0,0,,,,,,,JAGUAR,LB,m,m,./images/JAGUARLB.png,,,,,,,,,,,,,,,,,,,,,0,0.323284817,-0.335023308,1,0,0,0.9783,button_right_test,0,68,68,18,1
,,,,,,,,,,,,,,,,,55d7e6f669dbc30012b6826e,65,2022-02-12_18h02.17.567,lexical_decision_task_DD_L3,2021.2.3,Linux armv8l,29.91593622,,,,,,,,,,1.038,1,,,,,,,,,,,,,,,,,,,,,,,0.323284817,-0.347508621,1,0,0,,,,,,,SMOKER,HB,m,m,./images/SMOKERHB.png,,,,,,,,,,,,,,,,,,,,,0,0.323284817,-0.347508621,1,0,0,1.038,button_right_test,0,69,69,26,1
,,,,,,,,,,,,,,,,,55d7e6f669dbc30012b6826e,65,2022-02-12_18h02.17.567,lexical_decision_task_DD_L3,2021.2.3,Linux armv8l,29.91593622,,,,,,,,,,1.1794,0,,,,,,,,,,,,,,,,,,,,,,,0.323284817,-0.341265869,1,0,0,,,,,,,CLOUD,HB,z,m,./images/CLOUDHB.png,,,,,,,,,,,,,,,,,,,,,0,0.323284817,-0.341265869,1,0,0,1.1794,button_right_test,0,70,70,110,1
,,,,,,,,,,,,,,,,,55d7e6f669dbc30012b6826e,65,2022-02-12_18h02.17.567,lexical_decision_task_DD_L3,2021.2.3,Linux armv8l,29.91593622,,,,,,,,,,1.3134,1,,,,,,,,,,,,,,,,,,,,,,,-0.275467777,-0.303809738,1,0,0,,,,,,,CLIFF,HB,z,m,./images/CLIFFHB.png,,,,,,,,,,,,,,,,,,,,,0,-0.275467777,-0.303809738,1,0,0,1.3134,button_left_test,0,71,71,92,1
,,,,,,,,,,,,,,,,,55d7e6f669dbc30012b6826e,65,2022-02-12_18h02.17.567,lexical_decision_task_DD_L3,2021.2.3,Linux armv8l,29.91593622,,,,,,,,,,1.4986,1,,,,,,,,,,,,,,,,,,,,,,,0.298336792,-0.260110855,1,0,0,,,,,,,WEASEL,HB,m,m,./images/WEASELHB.png,,,,,,,,,,,,,,,,,,,,,0,0.298336792,-0.260110855,1,0,0,1.4986,button_right_test,0,72,72,80,1
,,,,,,,,,,,,,,,,,55d7e6f669dbc30012b6826e,65,2022-02-12_18h02.17.567,lexical_decision_task_DD_L3,2021.2.3,Linux armv8l,29.91593622,,,,,,,,,,0.86,1,,,,,,,,,,,,,,,,,,,,,,,0.333679867,-0.330861473,1,0,0,,,,,,,MOOSE,LB,m,m,./images/MOOSELB.png,,,,,,,,,,,,,,,,,,,,,0,0.333679867,-0.330861473,1,0,0,0.86,button_right_test,0,73,73,57,1
,,,,,,,,,,,,,,,,,55d7e6f669dbc30012b6826e,65,2022-02-12_18h02.17.567,lexical_decision_task_DD_L3,2021.2.3,Linux armv8l,29.91593622,,,,,,,,,,1.5756,1,,,,,,,,,,,,,,,,,,,,,,,-0.275467777,-0.316295147,1,0,0,,,,,,,BAMBOO,HB,z,m,./images/BAMBOOHB.png,,,,,,,,,,,,,,,,,,,,,0,-0.275467777,-0.316295147,1,0,0,1.5756,button_left_test,0,74,74,89,1
,,,,,,,,,,,,,,,,,55d7e6f669dbc30012b6826e,65,2022-02-12_18h02.17.567,lexical_decision_task_DD_L3,2021.2.3,Linux armv8l,29.91593622,,,,,,,,,,1.0974,1,,,,,,,,,,,,,,,,,,,,,,,-0.254677725,-0.295486259,1,0,0,,,,,,,CRATER,LB,z,m,./images/CRATERLB.png,,,,,,,,,,,,,,,,,,,,,0,-0.254677725,-0.295486259,1,0,0,1.0974,button_left_test,0,75,75,87,1
,,,,,,,,,,,,,,,,,55d7e6f669dbc30012b6826e,65,2022-02-12_18h02.17.567,lexical_decision_task_DD_L3,2021.2.3,Linux armv8l,29.91593622,,,,,,,,,,0.8965,1,,,,,,,,,,,,,,,,,,,,,,,0.329521847,-0.316295147,1,0,0,,,,,,,SAILOR,C,m,m,./images/SAILOR.png,,,,,,,,,,,,,,,,,,,,,0,0.329521847,-0.316295147,1,0,0,0.8965,button_right_test,0,76,76,67,1
,,,,,,,,,,,,,,,,,55d7e6f669dbc30012b6826e,65,2022-02-12_18h02.17.567,lexical_decision_task_DD_L3,2021.2.3,Linux armv8l,29.91593622,,,,,,,,,,1.7142,0,,,,,,,,,,,,,,,,,,,,,,,-0.28378377,-0.322537804,1,0,0,,,,,,,FINGER,LB,m,m,./images/FINGERLB.png,,,,,,,,,,,,,,,,,,,,,0,-0.28378377,-0.322537804,1,0,0,1.7142,button_left_test,0,77,77,3,1
,,,,,,,,,,,,,,,,,55d7e6f669dbc30012b6826e,65,2022-02-12_18h02.17.567,lexical_decision_task_DD_L3,2021.2.3,Linux armv8l,29.91593622,,,,,,,,,,0.9965,1,,,,,,,,,,,,,,,,,,,,,,,-0.296257782,-0.316295147,1,0,0,,,,,,,SLOPE,LB,z,m,./images/SLOPELB.png,,,,,,,,,,,,,,,,,,,,,0,-0.296257782,-0.316295147,1,0,0,0.9965,button_left_test,0,78,78,114,1
,,,,,,,,,,,,,,,,,55d7e6f669dbc30012b6826e,65,2022-02-12_18h02.17.567,lexical_decision_task_DD_L3,2021.2.3,Linux armv8l,29.91593622,,,,,,,,,,0.83,1,,,,,,,,,,,,,,,,,,,,,,,0.317047882,-0.324618816,1,0,0,,,,,,,RHINO,LB,m,m,./images/RHINOLB.png,,,,,,,,,,,,,,,,,,,,,0,0.317047882,-0.324618816,1,0,0,0.83,button_right_test,0,79,79,9,1
,,,,,,,,,,,,,,,,,55d7e6f669dbc30012b6826e,65,2022-02-12_18h02.17.567,lexical_decision_task_DD_L3,2021.2.3,Linux armv8l,29.91593622,,,,,,,,,,0.8485,0,,,,,,,,,,,,,,,,,,,,,,,0.319126892,-0.343346786,1,0,0,,,,,,,WAGON,C,z,m,./images/WAGON.png,,,,,,,,,,,,,,,,,,,,,0,0.319126892,-0.343346786,1,0,0,0.8485,button_right_test,0,80,80,91,1
,,,,,,,,,,,,,,,,,55d7e6f669dbc30012b6826e,65,2022-02-12_18h02.17.567,lexical_decision_task_DD_L3,2021.2.3,Linux armv8l,29.91593622,,,,,,,,,,0.7747,0,,,,,,,,,,,,,,,,,,,,,,,0.321205902,-0.351670361,1,0,0,,,,,,,POSTER,HB,z,m,./images/POSTERHB.png,,,,,,,,,,,,,,,,,,,,,0,0.321205902,-0.351670361,1,0,0,0.7747,button_right_test,0,81,81,137,1
,,,,,,,,,,,,,,,,,55d7e6f669dbc30012b6826e,65,2022-02-12_18h02.17.567,lexical_decision_task_DD_L3,2021.2.3,Linux armv8l,29.91593622,,,,,,,,,,0.8785,1,,,,,,,,,,,,,,,,,,,,,,,0.327442837,-0.337104034,1,0,0,,,,,,,TORCH,HB,m,m,./images/TORCHHB.png,,,,,,,,,,,,,,,,,,,,,0,0.327442837,-0.337104034,1,0,0,0.8785,button_right_test,0,82,82,68,1
,,,,,,,,,,,,,,,,,55d7e6f669dbc30012b6826e,65,2022-02-12_18h02.17.567,lexical_decision_task_DD_L3,2021.2.3,Linux armv8l,29.91593622,,,,,,,,,,1.1499,0,,,,,,,,,,,,,,,,,,,,,,,0.03014555,-0.384964752,1,0,0,,,,,,,BROOM,LB,z,m,./images/BROOMLB.png,break_done_button,,,,,,,,,,,,,,,,,,,,0,0.321205902,-0.343346786,1,0,0,1.1499,button_right_test,0,83,83,162,1
,,,,,,,,,,,,,,,,,55d7e6f669dbc30012b6826e,65,2022-02-12_18h02.17.567,lexical_decision_task_DD_L3,2021.2.3,Linux armv8l,29.91593622,,,,,,,,,,0.9174,1,,,,,,,,,,,,,,,,,,,,,,,0.325363827,-0.332942486,1,0,0,,,,,,,CANDLE,C,m,m,./images/CANDLE.png,,,,,,,,,,,,,,,,,,,,,0,0.325363827,-0.332942486,1,0,0,0.9174,button_right_test,0,84,84,61,1
,,,,,,,,,,,,,,,,,55d7e6f669dbc30012b6826e,65,2022-02-12_18h02.17.567,lexical_decision_task_DD_L3,2021.2.3,Linux armv8l,29.91593622,,,,,,,,,,0.8501,1,,,,,,,,,,,,,,,,,,,,,,,0.327442837,-0.330861473,1,0,0,,,,,,,PLANK,C,m,m,./images/PLANK.png,,,,,,,,,,,,,,,,,,,,,0,0.327442837,-0.330861473,1,0,0,0.8501,button_right_test,0,85,85,1,1
,,,,,,,,,,,,,,,,,55d7e6f669dbc30012b6826e,65,2022-02-12_18h02.17.567,lexical_decision_task_DD_L3,2021.2.3,Linux armv8l,29.91593622,,,,,,,,,,0.9937,0,,,,,,,,,,,,,,,,,,,,,,,0.327442837,-0.322537804,1,0,0,,,,,,,BRUSH,HB,z,m,./images/BRUSHHB.png,,,,,,,,,,,,,,,,,,,,,0,0.327442837,-0.322537804,1,0,0,0.9937,button_right_test,0,86,86,143,1
,,,,,,,,,,,,,,,,,55d7e6f669dbc30012b6826e,65,2022-02-12_18h02.17.567,lexical_decision_task_DD_L3,2021.2.3,Linux armv8l,29.91593622,,,,,,,,,,1.1128,1,,,,,,,,,,,,,,,,,,,,,,,0.323284817,-0.345427704,1,0,0,,,,,,,BEARD,HB,m,m,./images/BEARDHB.png,,,,,,,,,,,,,,,,,,,,,0,0.323284817,-0.345427704,1,0,0,1.1128,button_right_test,0,87,87,2,1
,,,,,,,,,,,,,,,,,55d7e6f669dbc30012b6826e,65,2022-02-12_18h02.17.567,lexical_decision_task_DD_L3,2021.2.3,Linux armv8l,29.91593622,,,,,,,,,,1.0298,1,,,,,,,,,,,,,,,,,,,,,,,0.327442837,-0.332942486,1,0,0,,,,,,,KIDNEY,LB,m,m,./images/KIDNEYLB.png,,,,,,,,,,,,,,,,,,,,,0,0.327442837,-0.332942486,1,0,0,1.0298,button_right_test,0,88,88,21,1
