key_resp.keys,instr_done_touch.x,instr_done_touch.y,instr_done_touch.leftButton,instr_done_touch.midButton,instr_done_touch.rightButton,instr_done_touch.clicked_name,instruction_pages.thisRepN,instruction_pages.thisTrialN,instruction_pages.thisN,instruction_pages.thisIndex,instruction_pages.ran,pageN,phase,instruct_text,has_image,instruct_image,participant,age,date,expName,psychopyVersion,OS,frameRate,response.keys,response.corr,response.rt,touch_resp.x,touch_resp.y,touch_resp.leftButton,touch_resp.midButton,touch_resp.rightButton,touch_resp.time,touch_resp.clicked_name,rt,corr,practrials.thisRepN,practrials.thisTrialN,practrials.thisN,practrials.thisIndex,practrials.ran,TrialID,Target,corrAns,end_of_practice_trials_pages.thisRepN,end_of_practice_trials_pages.thisTrialN,end_of_practice_trials_pages.thisN,end_of_practice_trials_pages.thisIndex,end_of_practice_trials_pages.ran,key_resp_2.keys,key_resp_2.corr,key_resp_2.rt,targ_click.x,targ_click.y,targ_click.leftButton,targ_click.midButton,targ_click.rightButton,targ_click.time,targ_click.clicked_name,break_done_touch.x,break_done_touch.y,break_done_touch.leftButton,break_done_touch.midButton,break_done_touch.rightButton,break_done_keyboard.keys,maintrials.thisRepN,maintrials.thisTrialN,maintrials.thisN,maintrials.thisIndex,maintrials.ran,string,blur,study,lex,stim_path,break_done_keyboard.rt,break_done_touch.clicked_name,mouse_2.x,mouse_2.y,mouse_2.leftButton,mouse_2.midButton,mouse_2.rightButton,mouse_2.clicked_name,slider.response,slider.rt,trials.thisRepN,trials.thisTrialN,trials.thisN,trials.thisIndex,trials.ran,test_instructions.thisRepN,test_instructions.thisTrialN,test_instructions.thisN,test_instructions.thisIndex,test_instructions.ran,key_resp.rt,key_resp_3.keys,key_resp_3.corr,key_resp_3.rt,test_click.x,test_click.y,test_click.leftButton,test_click.midButton,test_click.rightButton,test_click.time,test_click.clicked_name,test_phase.thisRepN,test_phase.thisTrialN,test_phase.thisN,test_phase.thisIndex,test_phase.ran
,0.117592593,-0.400925926,1,0,0,instr_done_button,0,0,0,0,1,1,instructions,"INSTRUCTIONS
At the start of each trial, look at the plus sign  (+) in the center of the screen.  This tells you that a trial is about to begin and where to look. Second, the plus sign will disappear and a string of letters will appear. Your task is to determine if the string of letters is a word or not. If the item is a word press the M key (on keyboard)  or touch the word button (phone/tablet).  If the item is not a word,  press the  Z key (on keyboard)  or touch the nonword button (on phone/tablet). 
Press the space bar or touch  continue.",0,,58c38ef58158840001b5c230,34,2022-02-12_18h17.22.860,lexical_decision_task_DD,2021.2.3,Win32,142.6533524,,,,,,,,,,,,,,,,,,,,,,,,,,,,,,,,,,,,,,,,,,,,,,,,,,,,,,,,,,,,,,,,,,,,,,,,,,,,,,,,,,,,,,,
,0.117592593,-0.380555556,1,0,0,instr_done_button,0,1,1,1,1,2,instructions,"If your device has a keyboard, press the 'Z' key for nonwords and the 'M' key for words.





Press the space bar or touch the button below to continue.",0,keyboard-example.gif,58c38ef58158840001b5c230,34,2022-02-12_18h17.22.860,lexical_decision_task_DD,2021.2.3,Win32,142.6533524,,,,,,,,,,,,,,,,,,,,,,,,,,,,,,,,,,,,,,,,,,,,,,,,,,,,,,,,,,,,,,,,,,,,,,,,,,,,,,,,,,,,,,,
,0.112962963,-0.380555556,1,0,0,instr_done_button,0,2,2,2,1,3,instructions,"If you are using a touchscreen only device, use the buttons on the screen. Do not use the mouse.





Press the space bar or touch the button below to continue.",0,touchscreen-example.gif,58c38ef58158840001b5c230,34,2022-02-12_18h17.22.860,lexical_decision_task_DD,2021.2.3,Win32,142.6533524,,,,,,,,,,,,,,,,,,,,,,,,,,,,,,,,,,,,,,,,,,,,,,,,,,,,,,,,,,,,,,,,,,,,,,,,,,,,,,,,,,,,,,,
,0.111111111,-0.380555556,1,0,0,instr_done_button,0,3,3,3,1,4,instructions,"It is very important that you respond as quickly and accurately as possible, as each letter string will only be on the screen for two seconds. If you do not respond within this time, the message 'Too slow!' will be displayed and the experiment will progress to the next letter string. The first 20 trials will be practice trials and you will receive feedback on your answers. 

Press the space bar or touch the button below to start the practice trials.",0,,58c38ef58158840001b5c230,34,2022-02-12_18h17.22.860,lexical_decision_task_DD,2021.2.3,Win32,142.6533524,,,,,,,,,,,,,,,,,,,,,,,,,,,,,,,,,,,,,,,,,,,,,,,,,,,,,,,,,,,,,,,,,,,,,,,,,,,,,,,,,,,,,,,
,,,,,,,,,,,,,,,,,58c38ef58158840001b5c230,34,2022-02-12_18h17.22.860,lexical_decision_task_DD,2021.2.3,Win32,142.6533524,z,1,6.2208,,,,,,,,6.2208,1,0,0,0,10,1,1001,INLADE,z,,,,,,,,,,,,,,,,,,,,,,,,,,,,,,,,,,,,,,,,,,,,,,,,,,,,,,,,,,,,,,,,,,,
,,,,,,,,,,,,,,,,,58c38ef58158840001b5c230,34,2022-02-12_18h17.22.860,lexical_decision_task_DD,2021.2.3,Win32,142.6533524,m,1,1.0948,,,,,,,,1.0948,1,0,1,1,3,1,1001,MATRIX,m,,,,,,,,,,,,,,,,,,,,,,,,,,,,,,,,,,,,,,,,,,,,,,,,,,,,,,,,,,,,,,,,,,,
,,,,,,,,,,,,,,,,,58c38ef58158840001b5c230,34,2022-02-12_18h17.22.860,lexical_decision_task_DD,2021.2.3,Win32,142.6533524,z,1,0.9429,,,,,,,,0.9429,1,0,2,2,11,1,1001,RASHET,z,,,,,,,,,,,,,,,,,,,,,,,,,,,,,,,,,,,,,,,,,,,,,,,,,,,,,,,,,,,,,,,,,,,
,,,,,,,,,,,,,,,,,58c38ef58158840001b5c230,34,2022-02-12_18h17.22.860,lexical_decision_task_DD,2021.2.3,Win32,142.6533524,z,1,0.9163,,,,,,,,0.9163,1,0,3,3,9,1,1001,FARINY,z,,,,,,,,,,,,,,,,,,,,,,,,,,,,,,,,,,,,,,,,,,,,,,,,,,,,,,,,,,,,,,,,,,,
,,,,,,,,,,,,,,,,,58c38ef58158840001b5c230,34,2022-02-12_18h17.22.860,lexical_decision_task_DD,2021.2.3,Win32,142.6533524,m,1,0.679,,,,,,,,0.679,1,0,4,4,2,1,1001,ALMOND,m,,,,,,,,,,,,,,,,,,,,,,,,,,,,,,,,,,,,,,,,,,,,,,,,,,,,,,,,,,,,,,,,,,,
,,,,,,,,,,,,,,,,,58c38ef58158840001b5c230,34,2022-02-12_18h17.22.860,lexical_decision_task_DD,2021.2.3,Win32,142.6533524,z,1,0.774,,,,,,,,0.774,1,0,5,5,12,1,1001,SPRINY,z,,,,,,,,,,,,,,,,,,,,,,,,,,,,,,,,,,,,,,,,,,,,,,,,,,,,,,,,,,,,,,,,,,,
,,,,,,,,,,,,,,,,,58c38ef58158840001b5c230,34,2022-02-12_18h17.22.860,lexical_decision_task_DD,2021.2.3,Win32,142.6533524,z,1,0.7784,,,,,,,,0.7784,1,0,6,6,15,1,1001,WHAISE,z,,,,,,,,,,,,,,,,,,,,,,,,,,,,,,,,,,,,,,,,,,,,,,,,,,,,,,,,,,,,,,,,,,,
,,,,,,,,,,,,,,,,,58c38ef58158840001b5c230,34,2022-02-12_18h17.22.860,lexical_decision_task_DD,2021.2.3,Win32,142.6533524,z,1,0.7201,,,,,,,,0.7201,1,0,7,7,8,1,1001,ASLERT,z,,,,,,,,,,,,,,,,,,,,,,,,,,,,,,,,,,,,,,,,,,,,,,,,,,,,,,,,,,,,,,,,,,,
,,,,,,,,,,,,,,,,,58c38ef58158840001b5c230,34,2022-02-12_18h17.22.860,lexical_decision_task_DD,2021.2.3,Win32,142.6533524,m,1,0.6401,,,,,,,,0.6401,1,0,8,8,4,1,1001,SQUEAK,m,,,,,,,,,,,,,,,,,,,,,,,,,,,,,,,,,,,,,,,,,,,,,,,,,,,,,,,,,,,,,,,,,,,
,,,,,,,,,,,,,,,,,58c38ef58158840001b5c230,34,2022-02-12_18h17.22.860,lexical_decision_task_DD,2021.2.3,Win32,142.6533524,m,0,1.1507,,,,,,,,1.1507,0,0,9,9,14,1,1001,THRALE,z,,,,,,,,,,,,,,,,,,,,,,,,,,,,,,,,,,,,,,,,,,,,,,,,,,,,,,,,,,,,,,,,,,,
,,,,,,,,,,,,,,,,,58c38ef58158840001b5c230,34,2022-02-12_18h17.22.860,lexical_decision_task_DD,2021.2.3,Win32,142.6533524,m,1,0.6611,,,,,,,,0.6611,1,0,10,10,1,1,1001,ADJUST,m,,,,,,,,,,,,,,,,,,,,,,,,,,,,,,,,,,,,,,,,,,,,,,,,,,,,,,,,,,,,,,,,,,,
,,,,,,,,,,,,,,,,,58c38ef58158840001b5c230,34,2022-02-12_18h17.22.860,lexical_decision_task_DD,2021.2.3,Win32,142.6533524,m,1,0.658,,,,,,,,0.658,1,0,11,11,6,1,1001,ZOMBIE,m,,,,,,,,,,,,,,,,,,,,,,,,,,,,,,,,,,,,,,,,,,,,,,,,,,,,,,,,,,,,,,,,,,,
,,,,,,,,,,,,,,,,,58c38ef58158840001b5c230,34,2022-02-12_18h17.22.860,lexical_decision_task_DD,2021.2.3,Win32,142.6533524,m,1,0.7664,,,,,,,,0.7664,1,0,12,12,0,1,1001,UTOPIA,m,,,,,,,,,,,,,,,,,,,,,,,,,,,,,,,,,,,,,,,,,,,,,,,,,,,,,,,,,,,,,,,,,,,
,,,,,,,,,,,,,,,,,58c38ef58158840001b5c230,34,2022-02-12_18h17.22.860,lexical_decision_task_DD,2021.2.3,Win32,142.6533524,m,1,0.6234,,,,,,,,0.6234,1,0,13,13,5,1,1001,OBTAIN,m,,,,,,,,,,,,,,,,,,,,,,,,,,,,,,,,,,,,,,,,,,,,,,,,,,,,,,,,,,,,,,,,,,,
,,,,,,,,,,,,,,,,,58c38ef58158840001b5c230,34,2022-02-12_18h17.22.860,lexical_decision_task_DD,2021.2.3,Win32,142.6533524,m,1,0.5449,,,,,,,,0.5449,1,0,14,14,7,1,1001,VOLUME,m,,,,,,,,,,,,,,,,,,,,,,,,,,,,,,,,,,,,,,,,,,,,,,,,,,,,,,,,,,,,,,,,,,,
,,,,,,,,,,,,,,,,,58c38ef58158840001b5c230,34,2022-02-12_18h17.22.860,lexical_decision_task_DD,2021.2.3,Win32,142.6533524,z,1,0.8731,,,,,,,,0.8731,1,0,15,15,13,1,1001,ROUPET,z,,,,,,,,,,,,,,,,,,,,,,,,,,,,,,,,,,,,,,,,,,,,,,,,,,,,,,,,,,,,,,,,,,,
,0.027835052,-0.417525773,1,0,0,instr_done_button,,,,,,1,end_of_practice,"You have completed the practice trials. During the experimental trials, you will not receive feedback. 
Before you begin, please ensure that you are in a comfortable and quiet location and will not be disturbed for about 15 minutes, as we cannot use your data if you do not complete all the trials. 
 When you are ready to start the experimental trials, please press space or touch the button below.",,,58c38ef58158840001b5c230,34,2022-02-12_18h17.22.860,lexical_decision_task_DD,2021.2.3,Win32,142.6533524,,,,,,,,,,,,,,,,,,,,,0,0,0,0,1,,,,,,,,,,,,,,,,,,,,,,,,,,,,,,,,,,,,,,,,,,,,,,,,,,,,,,,,,,,,,,
,,,,,,,,,,,,,,,,,58c38ef58158840001b5c230,34,2022-02-12_18h17.22.860,lexical_decision_task_DD,2021.2.3,Win32,142.6533524,,,,,,,,,,,3.3934,1,,,,,,,,,,,,,,z,1,3.3934,,,,,,,,-0.002061856,-0.322680412,0,0,0,,0,0,0,139,1,BLEAR,HB,old,z,./images/BLEARHB.png,,,,,,,,,,,,,,,,,,,,,,,,,,,,,,,,,,,,
,,,,,,,,,,,,,,,,,58c38ef58158840001b5c230,34,2022-02-12_18h17.22.860,lexical_decision_task_DD,2021.2.3,Win32,142.6533524,,,,,,,,,,,0.8694,1,,,,,,,,,,,,,,z,1,0.8694,,,,,,,,0,-0.320618557,0,0,0,,0,1,1,120,1,RINED,C,old,z,./images/RINED.png,,,,,,,,,,,,,,,,,,,,,,,,,,,,,,,,,,,,
,,,,,,,,,,,,,,,,,58c38ef58158840001b5c230,34,2022-02-12_18h17.22.860,lexical_decision_task_DD,2021.2.3,Win32,142.6533524,,,,,,,,,,,1.1472,1,,,,,,,,,,,,,,z,1,1.1472,,,,,,,,0.008247423,-0.328865979,0,0,0,,0,2,2,136,1,WERVE,HB,old,z,./images/WERVEHB.png,,,,,,,,,,,,,,,,,,,,,,,,,,,,,,,,,,,,
,,,,,,,,,,,,,,,,,58c38ef58158840001b5c230,34,2022-02-12_18h17.22.860,lexical_decision_task_DD,2021.2.3,Win32,142.6533524,,,,,,,,,,,1.155,1,,,,,,,,,,,,,,z,1,1.155,,,,,,,,0.008247423,-0.328865979,0,0,0,,0,3,3,142,1,PLASK,HB,old,z,./images/PLASKHB.png,,,,,,,,,,,,,,,,,,,,,,,,,,,,,,,,,,,,
,,,,,,,,,,,,,,,,,58c38ef58158840001b5c230,34,2022-02-12_18h17.22.860,lexical_decision_task_DD,2021.2.3,Win32,142.6533524,,,,,,,,,,,0.7905,1,,,,,,,,,,,,,,z,1,0.7905,,,,,,,,0.008247423,-0.328865979,0,0,0,,0,4,4,134,1,TROSS,LB,old,z,./images/TROSSLB.png,,,,,,,,,,,,,,,,,,,,,,,,,,,,,,,,,,,,
,,,,,,,,,,,,,,,,,58c38ef58158840001b5c230,34,2022-02-12_18h17.22.860,lexical_decision_task_DD,2021.2.3,Win32,142.6533524,,,,,,,,,,,0.737,1,,,,,,,,,,,,,,z,1,0.737,,,,,,,,0.008247423,-0.328865979,0,0,0,,0,5,5,84,1,HAXES,C,old,z,./images/HAXES.png,,,,,,,,,,,,,,,,,,,,,,,,,,,,,,,,,,,,
,,,,,,,,,,,,,,,,,58c38ef58158840001b5c230,34,2022-02-12_18h17.22.860,lexical_decision_task_DD,2021.2.3,Win32,142.6533524,,,,,,,,,,,0.645,1,,,,,,,,,,,,,,m,1,0.645,,,,,,,,0.008247423,-0.328865979,0,0,0,,0,6,6,65,1,FARMER,LB,old,m,./images/FARMERLB.png,,,,,,,,,,,,,,,,,,,,,,,,,,,,,,,,,,,,
,,,,,,,,,,,,,,,,,58c38ef58158840001b5c230,34,2022-02-12_18h17.22.860,lexical_decision_task_DD,2021.2.3,Win32,142.6533524,,,,,,,,,,,0.6424,1,,,,,,,,,,,,,,m,1,0.6424,,,,,,,,0.008247423,-0.328865979,0,0,0,,0,7,7,42,1,FOLDER,C,old,m,./images/FOLDER.png,,,,,,,,,,,,,,,,,,,,,,,,,,,,,,,,,,,,
,,,,,,,,,,,,,,,,,58c38ef58158840001b5c230,34,2022-02-12_18h17.22.860,lexical_decision_task_DD,2021.2.3,Win32,142.6533524,,,,,,,,,,,0.762,1,,,,,,,,,,,,,,z,1,0.762,,,,,,,,0.008247423,-0.328865979,0,0,0,,0,8,8,101,1,GLEET,LB,old,z,./images/GLEETLB.png,,,,,,,,,,,,,,,,,,,,,,,,,,,,,,,,,,,,
,,,,,,,,,,,,,,,,,58c38ef58158840001b5c230,34,2022-02-12_18h17.22.860,lexical_decision_task_DD,2021.2.3,Win32,142.6533524,,,,,,,,,,,0.5772,1,,,,,,,,,,,,,,m,1,0.5772,,,,,,,,0.008247423,-0.328865979,0,0,0,,0,9,9,23,1,WALRUS,LB,old,m,./images/WALRUSLB.png,,,,,,,,,,,,,,,,,,,,,,,,,,,,,,,,,,,,
,,,,,,,,,,,,,,,,,58c38ef58158840001b5c230,34,2022-02-12_18h17.22.860,lexical_decision_task_DD,2021.2.3,Win32,142.6533524,,,,,,,,,,,0.5762,1,,,,,,,,,,,,,,m,1,0.5762,,,,,,,,0.008247423,-0.328865979,0,0,0,,0,10,10,50,1,MALLET,LB,old,m,./images/MALLETLB.png,,,,,,,,,,,,,,,,,,,,,,,,,,,,,,,,,,,,
,,,,,,,,,,,,,,,,,58c38ef58158840001b5c230,34,2022-02-12_18h17.22.860,lexical_decision_task_DD,2021.2.3,Win32,142.6533524,,,,,,,,,,,0.765,1,,,,,,,,,,,,,,m,1,0.765,,,,,,,,0.008247423,-0.328865979,0,0,0,,0,11,11,10,1,BELLY,HB,old,m,./images/BELLYHB.png,,,,,,,,,,,,,,,,,,,,,,,,,,,,,,,,,,,,
,,,,,,,,,,,,,,,,,58c38ef58158840001b5c230,34,2022-02-12_18h17.22.860,lexical_decision_task_DD,2021.2.3,Win32,142.6533524,,,,,,,,,,,0.7317,1,,,,,,,,,,,,,,z,1,0.7317,,,,,,,,0.008247423,-0.328865979,0,0,0,,0,12,12,88,1,GLUSH,HB,old,z,./images/GLUSHHB.png,,,,,,,,,,,,,,,,,,,,,,,,,,,,,,,,,,,,
,,,,,,,,,,,,,,,,,58c38ef58158840001b5c230,34,2022-02-12_18h17.22.860,lexical_decision_task_DD,2021.2.3,Win32,142.6533524,,,,,,,,,,,0.5375,1,,,,,,,,,,,,,,m,1,0.5375,,,,,,,,0.008247423,-0.328865979,0,0,0,,0,13,13,48,1,SPORT,C,old,m,./images/SPORT.png,,,,,,,,,,,,,,,,,,,,,,,,,,,,,,,,,,,,
,,,,,,,,,,,,,,,,,58c38ef58158840001b5c230,34,2022-02-12_18h17.22.860,lexical_decision_task_DD,2021.2.3,Win32,142.6533524,,,,,,,,,,,0.5345,1,,,,,,,,,,,,,,m,1,0.5345,,,,,,,,0.008247423,-0.328865979,0,0,0,,0,14,14,21,1,KIDNEY,C,old,m,./images/KIDNEY.png,,,,,,,,,,,,,,,,,,,,,,,,,,,,,,,,,,,,
,,,,,,,,,,,,,,,,,58c38ef58158840001b5c230,34,2022-02-12_18h17.22.860,lexical_decision_task_DD,2021.2.3,Win32,142.6533524,,,,,,,,,,,0.7509,1,,,,,,,,,,,,,,m,1,0.7509,,,,,,,,0.008247423,-0.328865979,0,0,0,,0,15,15,70,1,URINE,HB,old,m,./images/URINEHB.png,,,,,,,,,,,,,,,,,,,,,,,,,,,,,,,,,,,,
,,,,,,,,,,,,,,,,,58c38ef58158840001b5c230,34,2022-02-12_18h17.22.860,lexical_decision_task_DD,2021.2.3,Win32,142.6533524,,,,,,,,,,,0.6245,1,,,,,,,,,,,,,,m,1,0.6245,,,,,,,,0.008247423,-0.328865979,0,0,0,,0,16,16,69,1,COOKER,C,old,m,./images/COOKER.png,,,,,,,,,,,,,,,,,,,,,,,,,,,,,,,,,,,,
,,,,,,,,,,,,,,,,,58c38ef58158840001b5c230,34,2022-02-12_18h17.22.860,lexical_decision_task_DD,2021.2.3,Win32,142.6533524,,,,,,,,,,,0.5912,1,,,,,,,,,,,,,,z,1,0.5912,,,,,,,,0.008247423,-0.328865979,0,0,0,,0,17,17,92,1,PAIMS,LB,old,z,./images/PAIMSLB.png,,,,,,,,,,,,,,,,,,,,,,,,,,,,,,,,,,,,
,,,,,,,,,,,,,,,,,58c38ef58158840001b5c230,34,2022-02-12_18h17.22.860,lexical_decision_task_DD,2021.2.3,Win32,142.6533524,,,,,,,,,,,0.5637,1,,,,,,,,,,,,,,z,1,0.5637,,,,,,,,0.008247423,-0.328865979,0,0,0,,0,18,18,123,1,SEDGE,C,old,z,./images/SEDGE.png,,,,,,,,,,,,,,,,,,,,,,,,,,,,,,,,,,,,
,,,,,,,,,,,,,,,,,58c38ef58158840001b5c230,34,2022-02-12_18h17.22.860,lexical_decision_task_DD,2021.2.3,Win32,142.6533524,,,,,,,,,,,0.8832,1,,,,,,,,,,,,,,m,1,0.8832,,,,,,,,0.008247423,-0.328865979,0,0,0,,0,19,19,67,1,SAILOR,HB,old,m,./images/SAILORHB.png,,,,,,,,,,,,,,,,,,,,,,,,,,,,,,,,,,,,
,,,,,,,,,,,,,,,,,58c38ef58158840001b5c230,34,2022-02-12_18h17.22.860,lexical_decision_task_DD,2021.2.3,Win32,142.6533524,,,,,,,,,,,0.815,1,,,,,,,,,,,,,,m,1,0.815,,,,,,,,0.008247423,-0.328865979,0,0,0,,0,20,20,46,1,PEARL,HB,old,m,./images/PEARLHB.png,,,,,,,,,,,,,,,,,,,,,,,,,,,,,,,,,,,,
,,,,,,,,,,,,,,,,,58c38ef58158840001b5c230,34,2022-02-12_18h17.22.860,lexical_decision_task_DD,2021.2.3,Win32,142.6533524,,,,,,,,,,,0.7823,1,,,,,,,,,,,,,,m,1,0.7823,,,,,,,,0.008247423,-0.328865979,0,0,0,,0,21,21,45,1,KITTEN,C,old,m,./images/KITTEN.png,,,,,,,,,,,,,,,,,,,,,,,,,,,,,,,,,,,,
,,,,,,,,,,,,,,,,,58c38ef58158840001b5c230,34,2022-02-12_18h17.22.860,lexical_decision_task_DD,2021.2.3,Win32,142.6533524,,,,,,,,,,,0.8461,1,,,,,,,,,,,,,,m,1,0.8461,,,,,,,,0.008247423,-0.328865979,0,0,0,,0,22,22,8,1,TULIP,LB,old,m,./images/TULIPLB.png,,,,,,,,,,,,,,,,,,,,,,,,,,,,,,,,,,,,
,,,,,,,,,,,,,,,,,58c38ef58158840001b5c230,34,2022-02-12_18h17.22.860,lexical_decision_task_DD,2021.2.3,Win32,142.6533524,,,,,,,,,,,0.5985,1,,,,,,,,,,,,,,m,1,0.5985,,,,,,,,0.008247423,-0.328865979,0,0,0,,0,23,23,77,1,COUCH,LB,old,m,./images/COUCHLB.png,,,,,,,,,,,,,,,,,,,,,,,,,,,,,,,,,,,,
,,,,,,,,,,,,,,,,,58c38ef58158840001b5c230,34,2022-02-12_18h17.22.860,lexical_decision_task_DD,2021.2.3,Win32,142.6533524,,,,,,,,,,,0.6522,1,,,,,,,,,,,,,,m,1,0.6522,,,,,,,,0.008247423,-0.328865979,0,0,0,,0,24,24,59,1,BURIAL,LB,old,m,./images/BURIALLB.png,,,,,,,,,,,,,,,,,,,,,,,,,,,,,,,,,,,,
,,,,,,,,,,,,,,,,,58c38ef58158840001b5c230,34,2022-02-12_18h17.22.860,lexical_decision_task_DD,2021.2.3,Win32,142.6533524,,,,,,,,,,,0.8265,1,,,,,,,,,,,,,,z,1,0.8265,,,,,,,,0.008247423,-0.328865979,0,0,0,,0,25,25,118,1,BAVEL,HB,old,z,./images/BAVELHB.png,,,,,,,,,,,,,,,,,,,,,,,,,,,,,,,,,,,,
,,,,,,,,,,,,,,,,,58c38ef58158840001b5c230,34,2022-02-12_18h17.22.860,lexical_decision_task_DD,2021.2.3,Win32,142.6533524,,,,,,,,,,,0.6234,0,,,,,,,,,,,,,,m,0,0.6234,,,,,,,,0.008247423,-0.328865979,0,0,0,,0,26,26,110,1,CRUNK,LB,old,z,./images/CRUNKLB.png,,,,,,,,,,,,,,,,,,,,,,,,,,,,,,,,,,,,
,,,,,,,,,,,,,,,,,58c38ef58158840001b5c230,34,2022-02-12_18h17.22.860,lexical_decision_task_DD,2021.2.3,Win32,142.6533524,,,,,,,,,,,1.0303,1,,,,,,,,,,,,,,z,1,1.0303,,,,,,,,0.008247423,-0.328865979,0,0,0,,0,27,27,164,1,SGREW,LB,old,z,./images/SGREWLB.png,,,,,,,,,,,,,,,,,,,,,,,,,,,,,,,,,,,,
,,,,,,,,,,,,,,,,,58c38ef58158840001b5c230,34,2022-02-12_18h17.22.860,lexical_decision_task_DD,2021.2.3,Win32,142.6533524,,,,,,,,,,,0.793,1,,,,,,,,,,,,,,z,1,0.793,,,,,,,,0.008247423,-0.328865979,0,0,0,,0,28,28,89,1,DRIEK,LB,old,z,./images/DRIEKLB.png,,,,,,,,,,,,,,,,,,,,,,,,,,,,,,,,,,,,
,,,,,,,,,,,,,,,,,58c38ef58158840001b5c230,34,2022-02-12_18h17.22.860,lexical_decision_task_DD,2021.2.3,Win32,142.6533524,,,,,,,,,,,0.698,1,,,,,,,,,,,,,,m,1,0.698,,,,,,,,0.008247423,-0.328865979,0,0,0,,0,29,29,39,1,SHELF,C,old,m,./images/SHELF.png,,,,,,,,,,,,,,,,,,,,,,,,,,,,,,,,,,,,
,,,,,,,,,,,,,,,,,58c38ef58158840001b5c230,34,2022-02-12_18h17.22.860,lexical_decision_task_DD,2021.2.3,Win32,142.6533524,,,,,,,,,,,0.6215,1,,,,,,,,,,,,,,z,1,0.6215,,,,,,,,0.008247423,-0.328865979,0,0,0,,0,30,30,160,1,VEETS,HB,old,z,./images/VEETSHB.png,,,,,,,,,,,,,,,,,,,,,,,,,,,,,,,,,,,,
,,,,,,,,,,,,,,,,,58c38ef58158840001b5c230,34,2022-02-12_18h17.22.860,lexical_decision_task_DD,2021.2.3,Win32,142.6533524,,,,,,,,,,,0.8225,1,,,,,,,,,,,,,,m,1,0.8225,,,,,,,,0.008247423,-0.328865979,0,0,0,,0,31,31,11,1,BONNET,LB,old,m,./images/BONNETLB.png,,,,,,,,,,,,,,,,,,,,,,,,,,,,,,,,,,,,
,,,,,,,,,,,,,,,,,58c38ef58158840001b5c230,34,2022-02-12_18h17.22.860,lexical_decision_task_DD,2021.2.3,Win32,142.6533524,,,,,,,,,,,0.6695,1,,,,,,,,,,,,,,m,1,0.6695,,,,,,,,0.008247423,-0.328865979,0,0,0,,0,32,32,41,1,STRING,LB,old,m,./images/STRINGLB.png,,,,,,,,,,,,,,,,,,,,,,,,,,,,,,,,,,,,
,,,,,,,,,,,,,,,,,58c38ef58158840001b5c230,34,2022-02-12_18h17.22.860,lexical_decision_task_DD,2021.2.3,Win32,142.6533524,,,,,,,,,,,1.2379,1,,,,,,,,,,,,,,m,1,1.2379,,,,,,,,0.008247423,-0.328865979,0,0,0,,0,33,33,43,1,MOSQUE,HB,old,m,./images/MOSQUEHB.png,,,,,,,,,,,,,,,,,,,,,,,,,,,,,,,,,,,,
,,,,,,,,,,,,,,,,,58c38ef58158840001b5c230,34,2022-02-12_18h17.22.860,lexical_decision_task_DD,2021.2.3,Win32,142.6533524,,,,,,,,,,,1.0739,1,,,,,,,,,,,,,,m,1,1.0739,,,,,,,,0.008247423,-0.328865979,0,0,0,,0,34,34,31,1,QUILL,HB,old,m,./images/QUILLHB.png,,,,,,,,,,,,,,,,,,,,,,,,,,,,,,,,,,,,
,,,,,,,,,,,,,,,,,58c38ef58158840001b5c230,34,2022-02-12_18h17.22.860,lexical_decision_task_DD,2021.2.3,Win32,142.6533524,,,,,,,,,,,0.5789,1,,,,,,,,,,,,,,m,1,0.5789,,,,,,,,0.008247423,-0.328865979,0,0,0,,0,35,35,24,1,SCREW,C,old,m,./images/SCREW.png,,,,,,,,,,,,,,,,,,,,,,,,,,,,,,,,,,,,
,,,,,,,,,,,,,,,,,58c38ef58158840001b5c230,34,2022-02-12_18h17.22.860,lexical_decision_task_DD,2021.2.3,Win32,142.6533524,,,,,,,,,,,0.6888,1,,,,,,,,,,,,,,z,1,0.6888,,,,,,,,0.008247423,-0.328865979,0,0,0,,0,36,36,151,1,TINKY,HB,old,z,./images/TINKYHB.png,,,,,,,,,,,,,,,,,,,,,,,,,,,,,,,,,,,,
,,,,,,,,,,,,,,,,,58c38ef58158840001b5c230,34,2022-02-12_18h17.22.860,lexical_decision_task_DD,2021.2.3,Win32,142.6533524,,,,,,,,,,,1.2477,1,,,,,,,,,,,,,,m,1,1.2477,,,,,,,,0.008247423,-0.328865979,0,0,0,,0,37,37,52,1,BANNER,HB,old,m,./images/BANNERHB.png,,,,,,,,,,,,,,,,,,,,,,,,,,,,,,,,,,,,
,,,,,,,,,,,,,,,,,58c38ef58158840001b5c230,34,2022-02-12_18h17.22.860,lexical_decision_task_DD,2021.2.3,Win32,142.6533524,,,,,,,,,,,0.6978,1,,,,,,,,,,,,,,z,1,0.6978,,,,,,,,0.008247423,-0.328865979,0,0,0,,0,38,38,105,1,MOKER,C,old,z,./images/MOKER.png,,,,,,,,,,,,,,,,,,,,,,,,,,,,,,,,,,,,
,,,,,,,,,,,,,,,,,58c38ef58158840001b5c230,34,2022-02-12_18h17.22.860,lexical_decision_task_DD,2021.2.3,Win32,142.6533524,,,,,,,,,,,0.7871,1,,,,,,,,,,,,,,m,1,0.7871,,,,,,,,0.008247423,-0.328865979,0,0,0,,0,39,39,81,1,POODLE,C,old,m,./images/POODLE.png,,,,,,,,,,,,,,,,,,,,,,,,,,,,,,,,,,,,
,,,,,,,,,,,,,,,,,58c38ef58158840001b5c230,34,2022-02-12_18h17.22.860,lexical_decision_task_DD,2021.2.3,Win32,142.6533524,,,,,,,,,,,0.6234,1,,,,,,,,,,,,,,m,1,0.6234,,,,,,,,0.008247423,-0.328865979,0,0,0,,0,40,40,3,1,FINGER,C,old,m,./images/FINGER.png,,,,,,,,,,,,,,,,,,,,,,,,,,,,,,,,,,,,
,,,,,,,,,,,,,,,,,58c38ef58158840001b5c230,34,2022-02-12_18h17.22.860,lexical_decision_task_DD,2021.2.3,Win32,142.6533524,,,,,,,,,,,1.0986,1,,,,,,,,,,,,,,z,1,1.0986,,,,,,,,0.008247423,-0.328865979,0,0,0,space,0,41,41,154,1,THINT,HB,old,z,./images/THINTHB.png,2.621,,,,,,,,,,,,,,,,,,,,,,,,,,,,,,,,,,,
,,,,,,,,,,,,,,,,,58c38ef58158840001b5c230,34,2022-02-12_18h17.22.860,lexical_decision_task_DD,2021.2.3,Win32,142.6533524,,,,,,,,,,,0.7595,1,,,,,,,,,,,,,,z,1,0.7595,,,,,,,,0.008247423,-0.328865979,0,0,0,,0,42,42,86,1,AIFED,LB,old,z,./images/AIFEDLB.png,,,,,,,,,,,,,,,,,,,,,,,,,,,,,,,,,,,,
,,,,,,,,,,,,,,,,,58c38ef58158840001b5c230,34,2022-02-12_18h17.22.860,lexical_decision_task_DD,2021.2.3,Win32,142.6533524,,,,,,,,,,,0.6624,0,,,,,,,,,,,,,,m,0,0.6624,,,,,,,,0.008247423,-0.328865979,0,0,0,,0,43,43,128,1,GRIFT,LB,old,z,./images/GRIFTLB.png,,,,,,,,,,,,,,,,,,,,,,,,,,,,,,,,,,,,
,,,,,,,,,,,,,,,,,58c38ef58158840001b5c230,34,2022-02-12_18h17.22.860,lexical_decision_task_DD,2021.2.3,Win32,142.6533524,,,,,,,,,,,0.8435,1,,,,,,,,,,,,,,z,1,0.8435,,,,,,,,0.008247423,-0.328865979,0,0,0,,0,44,44,131,1,NACES,LB,old,z,./images/NACESLB.png,,,,,,,,,,,,,,,,,,,,,,,,,,,,,,,,,,,,
,,,,,,,,,,,,,,,,,58c38ef58158840001b5c230,34,2022-02-12_18h17.22.860,lexical_decision_task_DD,2021.2.3,Win32,142.6533524,,,,,,,,,,,0.6831,1,,,,,,,,,,,,,,m,1,0.6831,,,,,,,,-0.008247423,-0.235051546,0,0,0,,0,45,45,63,1,MIRROR,C,old,m,./images/MIRROR.png,,,,,,,,,,,,,,,,,,,,,,,,,,,,,,,,,,,,
,,,,,,,,,,,,,,,,,58c38ef58158840001b5c230,34,2022-02-12_18h17.22.860,lexical_decision_task_DD,2021.2.3,Win32,142.6533524,,,,,,,,,,,0.876,1,,,,,,,,,,,,,,z,1,0.876,,,,,,,,0.002061856,-0.350515464,0,0,0,,0,46,46,97,1,CHIDS,HB,old,z,./images/CHIDSHB.png,,,,,,,,,,,,,,,,,,,,,,,,,,,,,,,,,,,,
,,,,,,,,,,,,,,,,,58c38ef58158840001b5c230,34,2022-02-12_18h17.22.860,lexical_decision_task_DD,2021.2.3,Win32,142.6533524,,,,,,,,,,,0.9658,1,,,,,,,,,,,,,,z,1,0.9658,,,,,,,,0.020618557,-0.210309278,0,0,0,,0,47,47,102,1,DULLE,C,old,z,./images/DULLE.png,,,,,,,,,,,,,,,,,,,,,,,,,,,,,,,,,,,,
,,,,,,,,,,,,,,,,,58c38ef58158840001b5c230,34,2022-02-12_18h17.22.860,lexical_decision_task_DD,2021.2.3,Win32,142.6533524,,,,,,,,,,,1.3436,1,,,,,,,,,,,,,,z,1,1.3436,,,,,,,,0.026804124,-0.293814433,0,0,0,,0,48,48,148,1,JOMS,HB,old,z,./images/JOMSHB.png,,,,,,,,,,,,,,,,,,,,,,,,,,,,,,,,,,,,
,,,,,,,,,,,,,,,,,58c38ef58158840001b5c230,34,2022-02-12_18h17.22.860,lexical_decision_task_DD,2021.2.3,Win32,142.6533524,,,,,,,,,,,0.7619,1,,,,,,,,,,,,,,z,1,0.7619,,,,,,,,0.080412371,-0.290721649,0,0,0,,0,49,49,95,1,HANTY,LB,old,z,./images/HANTYLB.png,,,,,,,,,,,,,,,,,,,,,,,,,,,,,,,,,,,,
,,,,,,,,,,,,,,,,,58c38ef58158840001b5c230,34,2022-02-12_18h17.22.860,lexical_decision_task_DD,2021.2.3,Win32,142.6533524,,,,,,,,,,,0.5948,1,,,,,,,,,,,,,,m,1,0.5948,,,,,,,,0.013402062,-0.290721649,0,0,0,,0,50,50,6,1,SQUARE,C,old,m,./images/SQUARE.png,,,,,,,,,,,,,,,,,,,,,,,,,,,,,,,,,,,,
,,,,,,,,,,,,,,,,,58c38ef58158840001b5c230,34,2022-02-12_18h17.22.860,lexical_decision_task_DD,2021.2.3,Win32,142.6533524,,,,,,,,,,,0.7404,1,,,,,,,,,,,,,,z,1,0.7404,,,,,,,,0.013402062,-0.289690722,0,0,0,,0,51,51,127,1,NINDY,HB,old,z,./images/NINDYHB.png,,,,,,,,,,,,,,,,,,,,,,,,,,,,,,,,,,,,
,,,,,,,,,,,,,,,,,58c38ef58158840001b5c230,34,2022-02-12_18h17.22.860,lexical_decision_task_DD,2021.2.3,Win32,142.6533524,,,,,,,,,,,0.9629,1,,,,,,,,,,,,,,z,1,0.9629,,,,,,,,0.013402062,-0.289690722,0,0,0,,0,52,52,140,1,DOVET,LB,old,z,./images/DOVETLB.png,,,,,,,,,,,,,,,,,,,,,,,,,,,,,,,,,,,,
,,,,,,,,,,,,,,,,,58c38ef58158840001b5c230,34,2022-02-12_18h17.22.860,lexical_decision_task_DD,2021.2.3,Win32,142.6533524,,,,,,,,,,,0.8692,1,,,,,,,,,,,,,,z,1,0.8692,,,,,,,,0.013402062,-0.289690722,0,0,0,,0,53,53,156,1,HIXES,C,old,z,./images/HIXES.png,,,,,,,,,,,,,,,,,,,,,,,,,,,,,,,,,,,,
,,,,,,,,,,,,,,,,,58c38ef58158840001b5c230,34,2022-02-12_18h17.22.860,lexical_decision_task_DD,2021.2.3,Win32,142.6533524,,,,,,,,,,,0.6137,1,,,,,,,,,,,,,,m,1,0.6137,,,,,,,,0.016494845,-0.28556701,0,0,0,,0,54,54,83,1,JUNGLE,LB,old,m,./images/JUNGLELB.png,,,,,,,,,,,,,,,,,,,,,,,,,,,,,,,,,,,,
,,,,,,,,,,,,,,,,,58c38ef58158840001b5c230,34,2022-02-12_18h17.22.860,lexical_decision_task_DD,2021.2.3,Win32,142.6533524,,,,,,,,,,,0.7523,1,,,,,,,,,,,,,,z,1,0.7523,,,,,,,,0.016494845,-0.283505155,0,0,0,,0,55,55,103,1,FLORT,HB,old,z,./images/FLORTHB.png,,,,,,,,,,,,,,,,,,,,,,,,,,,,,,,,,,,,
,,,,,,,,,,,,,,,,,58c38ef58158840001b5c230,34,2022-02-12_18h17.22.860,lexical_decision_task_DD,2021.2.3,Win32,142.6533524,,,,,,,,,,,0.8436,1,,,,,,,,,,,,,,z,1,0.8436,,,,,,,,0.016494845,-0.284536082,0,0,0,,0,56,56,129,1,PRANS,C,old,z,./images/PRANS.png,,,,,,,,,,,,,,,,,,,,,,,,,,,,,,,,,,,,
,,,,,,,,,,,,,,,,,58c38ef58158840001b5c230,34,2022-02-12_18h17.22.860,lexical_decision_task_DD,2021.2.3,Win32,142.6533524,,,,,,,,,,,0.6086,1,,,,,,,,,,,,,,z,1,0.6086,,,,,,,,0.020618557,-0.280412371,0,0,0,,0,57,57,99,1,BACKY,C,old,z,./images/BACKY.png,,,,,,,,,,,,,,,,,,,,,,,,,,,,,,,,,,,,
,,,,,,,,,,,,,,,,,58c38ef58158840001b5c230,34,2022-02-12_18h17.22.860,lexical_decision_task_DD,2021.2.3,Win32,142.6533524,,,,,,,,,,,0.6642,1,,,,,,,,,,,,,,m,1,0.6642,,,,,,,,0.020618557,-0.279381443,0,0,0,,0,58,58,36,1,THROAT,C,old,m,./images/THROAT.png,,,,,,,,,,,,,,,,,,,,,,,,,,,,,,,,,,,,
,,,,,,,,,,,,,,,,,58c38ef58158840001b5c230,34,2022-02-12_18h17.22.860,lexical_decision_task_DD,2021.2.3,Win32,142.6533524,,,,,,,,,,,0.6125,1,,,,,,,,,,,,,,m,1,0.6125,,,,,,,,0.020618557,-0.279381443,0,0,0,,0,59,59,60,1,TWINS,C,old,m,./images/TWINS.png,,,,,,,,,,,,,,,,,,,,,,,,,,,,,,,,,,,,
,,,,,,,,,,,,,,,,,58c38ef58158840001b5c230,34,2022-02-12_18h17.22.860,lexical_decision_task_DD,2021.2.3,Win32,142.6533524,,,,,,,,,,,0.5823,1,,,,,,,,,,,,,,z,1,0.5823,,,,,,,,0.020618557,-0.278350515,0,0,0,,0,60,60,167,1,ZONET,LB,old,z,./images/ZONETLB.png,,,,,,,,,,,,,,,,,,,,,,,,,,,,,,,,,,,,
,,,,,,,,,,,,,,,,,58c38ef58158840001b5c230,34,2022-02-12_18h17.22.860,lexical_decision_task_DD,2021.2.3,Win32,142.6533524,,,,,,,,,,,0.8208,1,,,,,,,,,,,,,,m,1,0.8208,,,,,,,,0.02371134,-0.274226804,0,0,0,,0,61,61,4,1,MUSCLE,HB,old,m,./images/MUSCLEHB.png,,,,,,,,,,,,,,,,,,,,,,,,,,,,,,,,,,,,
,,,,,,,,,,,,,,,,,58c38ef58158840001b5c230,34,2022-02-12_18h17.22.860,lexical_decision_task_DD,2021.2.3,Win32,142.6533524,,,,,,,,,,,0.6372,1,,,,,,,,,,,,,,z,1,0.6372,,,,,,,,0.027835052,-0.24742268,0,0,0,,0,62,62,112,1,MYING,HB,old,z,./images/MYINGHB.png,,,,,,,,,,,,,,,,,,,,,,,,,,,,,,,,,,,,
,,,,,,,,,,,,,,,,,58c38ef58158840001b5c230,34,2022-02-12_18h17.22.860,lexical_decision_task_DD,2021.2.3,Win32,142.6533524,,,,,,,,,,,0.6887,1,,,,,,,,,,,,,,z,1,0.6887,,,,,,,,0.027835052,-0.24742268,0,0,0,,0,63,63,96,1,KEAMS,C,old,z,./images/KEAMS.png,,,,,,,,,,,,,,,,,,,,,,,,,,,,,,,,,,,,
,,,,,,,,,,,,,,,,,58c38ef58158840001b5c230,34,2022-02-12_18h17.22.860,lexical_decision_task_DD,2021.2.3,Win32,142.6533524,,,,,,,,,,,0.8153,1,,,,,,,,,,,,,,m,1,0.8153,,,,,,,,0.027835052,-0.24742268,0,0,0,,0,64,64,78,1,LITTER,C,old,m,./images/LITTER.png,,,,,,,,,,,,,,,,,,,,,,,,,,,,,,,,,,,,
,,,,,,,,,,,,,,,,,58c38ef58158840001b5c230,34,2022-02-12_18h17.22.860,lexical_decision_task_DD,2021.2.3,Win32,142.6533524,,,,,,,,,,,0.8954,1,,,,,,,,,,,,,,z,1,0.8954,,,,,,,,0.027835052,-0.24742268,0,0,0,,0,65,65,98,1,BAMPS,LB,old,z,./images/BAMPSLB.png,,,,,,,,,,,,,,,,,,,,,,,,,,,,,,,,,,,,
,,,,,,,,,,,,,,,,,58c38ef58158840001b5c230,34,2022-02-12_18h17.22.860,lexical_decision_task_DD,2021.2.3,Win32,142.6533524,,,,,,,,,,,0.6912,1,,,,,,,,,,,,,,m,1,0.6912,,,,,,,,0.027835052,-0.24742268,0,0,0,,0,66,66,9,1,RHINO,C,old,m,./images/RHINO.png,,,,,,,,,,,,,,,,,,,,,,,,,,,,,,,,,,,,
,,,,,,,,,,,,,,,,,58c38ef58158840001b5c230,34,2022-02-12_18h17.22.860,lexical_decision_task_DD,2021.2.3,Win32,142.6533524,,,,,,,,,,,0.9808,1,,,,,,,,,,,,,,m,1,0.9808,,,,,,,,0.027835052,-0.24742268,0,0,0,,0,67,67,79,1,CRUST,HB,old,m,./images/CRUSTHB.png,,,,,,,,,,,,,,,,,,,,,,,,,,,,,,,,,,,,
,,,,,,,,,,,,,,,,,58c38ef58158840001b5c230,34,2022-02-12_18h17.22.860,lexical_decision_task_DD,2021.2.3,Win32,142.6533524,,,,,,,,,,,0.6542,1,,,,,,,,,,,,,,z,1,0.6542,,,,,,,,0.027835052,-0.24742268,0,0,0,,0,68,68,143,1,MONGS,LB,old,z,./images/MONGSLB.png,,,,,,,,,,,,,,,,,,,,,,,,,,,,,,,,,,,,
,,,,,,,,,,,,,,,,,58c38ef58158840001b5c230,34,2022-02-12_18h17.22.860,lexical_decision_task_DD,2021.2.3,Win32,142.6533524,,,,,,,,,,,1.3219,1,,,,,,,,,,,,,,z,1,1.3219,,,,,,,,0.027835052,-0.24742268,0,0,0,,0,69,69,94,1,BLANS,HB,old,z,./images/BLANSHB.png,,,,,,,,,,,,,,,,,,,,,,,,,,,,,,,,,,,,
,,,,,,,,,,,,,,,,,58c38ef58158840001b5c230,34,2022-02-12_18h17.22.860,lexical_decision_task_DD,2021.2.3,Win32,142.6533524,,,,,,,,,,,0.7937,1,,,,,,,,,,,,,,m,1,0.7937,,,,,,,,0.027835052,-0.24742268,0,0,0,,0,70,70,34,1,CANYON,HB,old,m,./images/CANYONHB.png,,,,,,,,,,,,,,,,,,,,,,,,,,,,,,,,,,,,
,,,,,,,,,,,,,,,,,58c38ef58158840001b5c230,34,2022-02-12_18h17.22.860,lexical_decision_task_DD,2021.2.3,Win32,142.6533524,,,,,,,,,,,0.9407,1,,,,,,,,,,,,,,m,1,0.9407,,,,,,,,0.027835052,-0.24742268,0,0,0,,0,71,71,14,1,PICKLE,LB,old,m,./images/PICKLELB.png,,,,,,,,,,,,,,,,,,,,,,,,,,,,,,,,,,,,
,,,,,,,,,,,,,,,,,58c38ef58158840001b5c230,34,2022-02-12_18h17.22.860,lexical_decision_task_DD,2021.2.3,Win32,142.6533524,,,,,,,,,,,0.9161,1,,,,,,,,,,,,,,m,1,0.9161,,,,,,,,0.027835052,-0.24742268,0,0,0,,0,72,72,51,1,ONION,C,old,m,./images/ONION.png,,,,,,,,,,,,,,,,,,,,,,,,,,,,,,,,,,,,
,,,,,,,,,,,,,,,,,58c38ef58158840001b5c230,34,2022-02-12_18h17.22.860,lexical_decision_task_DD,2021.2.3,Win32,142.6533524,,,,,,,,,,,0.8286,1,,,,,,,,,,,,,,z,1,0.8286,,,,,,,,0.027835052,-0.24742268,0,0,0,,0,73,73,130,1,CRILL,HB,old,z,./images/CRILLHB.png,,,,,,,,,,,,,,,,,,,,,,,,,,,,,,,,,,,,
,,,,,,,,,,,,,,,,,58c38ef58158840001b5c230,34,2022-02-12_18h17.22.860,lexical_decision_task_DD,2021.2.3,Win32,142.6533524,,,,,,,,,,,0.732,1,,,,,,,,,,,,,,z,1,0.732,,,,,,,,0.025773196,-0.24742268,0,0,0,,0,74,74,144,1,NAIRY,C,old,z,./images/NAIRY.png,,,,,,,,,,,,,,,,,,,,,,,,,,,,,,,,,,,,
,,,,,,,,,,,,,,,,,58c38ef58158840001b5c230,34,2022-02-12_18h17.22.860,lexical_decision_task_DD,2021.2.3,Win32,142.6533524,,,,,,,,,,,0.6705,1,,,,,,,,,,,,,,m,1,0.6705,,,,,,,,0.025773196,-0.24742268,0,0,0,,0,75,75,26,1,SMOKER,LB,old,m,./images/SMOKERLB.png,,,,,,,,,,,,,,,,,,,,,,,,,,,,,,,,,,,,
,,,,,,,,,,,,,,,,,58c38ef58158840001b5c230,34,2022-02-12_18h17.22.860,lexical_decision_task_DD,2021.2.3,Win32,142.6533524,,,,,,,,,,,0.6568,1,,,,,,,,,,,,,,z,1,0.6568,,,,,,,,-0.021649485,-0.31443299,0,0,0,,0,76,76,117,1,STEEG,C,old,z,./images/STEEG.png,,,,,,,,,,,,,,,,,,,,,,,,,,,,,,,,,,,,
,,,,,,,,,,,,,,,,,58c38ef58158840001b5c230,34,2022-02-12_18h17.22.860,lexical_decision_task_DD,2021.2.3,Win32,142.6533524,,,,,,,,,,,0.7277,1,,,,,,,,,,,,,,m,1,0.7277,,,,,,,,-0.008247423,-0.319587629,0,0,0,,0,77,77,7,1,PAINT,HB,old,m,./images/PAINTHB.png,,,,,,,,,,,,,,,,,,,,,,,,,,,,,,,,,,,,
,,,,,,,,,,,,,,,,,58c38ef58158840001b5c230,34,2022-02-12_18h17.22.860,lexical_decision_task_DD,2021.2.3,Win32,142.6533524,,,,,,,,,,,0.8716,1,,,,,,,,,,,,,,z,1,0.8716,,,,,,,,-0.008247423,-0.31443299,0,0,0,,0,78,78,133,1,POWDY,HB,old,z,./images/POWDYHB.png,,,,,,,,,,,,,,,,,,,,,,,,,,,,,,,,,,,,
,,,,,,,,,,,,,,,,,58c38ef58158840001b5c230,34,2022-02-12_18h17.22.860,lexical_decision_task_DD,2021.2.3,Win32,142.6533524,,,,,,,,,,,0.6,1,,,,,,,,,,,,,,m,1,0.6,,,,,,,,-0.008247423,-0.31443299,0,0,0,,0,79,79,66,1,SWEAT,C,old,m,./images/SWEAT.png,,,,,,,,,,,,,,,,,,,,,,,,,,,,,,,,,,,,
,,,,,,,,,,,,,,,,,58c38ef58158840001b5c230,34,2022-02-12_18h17.22.860,lexical_decision_task_DD,2021.2.3,Win32,142.6533524,,,,,,,,,,,0.6075,1,,,,,,,,,,,,,,m,1,0.6075,,,,,,,,-0.008247423,-0.311340206,0,0,0,,0,80,80,74,1,CEMENT,LB,old,m,./images/CEMENTLB.png,,,,,,,,,,,,,,,,,,,,,,,,,,,,,,,,,,,,
,,,,,,,,,,,,,,,,,58c38ef58158840001b5c230,34,2022-02-12_18h17.22.860,lexical_decision_task_DD,2021.2.3,Win32,142.6533524,,,,,,,,,,,0.6574,1,,,,,,,,,,,,,,m,1,0.6574,,,,,,,,-0.008247423,-0.310309278,0,0,0,,0,81,81,30,1,STORM,C,old,m,./images/STORM.png,,,,,,,,,,,,,,,,,,,,,,,,,,,,,,,,,,,,
,,,,,,,,,,,,,,,,,58c38ef58158840001b5c230,34,2022-02-12_18h17.22.860,lexical_decision_task_DD,2021.2.3,Win32,142.6533524,,,,,,,,,,,0.6853,1,,,,,,,,,,,,,,z,1,0.6853,,,,,,,,-0.007216495,-0.313402062,0,0,0,,0,82,82,146,1,MOOST,LB,old,z,./images/MOOSTLB.png,,,,,,,,,,,,,,,,,,,,,,,,,,,,,,,,,,,,
,,,,,,,,,,,,,,,,,58c38ef58158840001b5c230,34,2022-02-12_18h17.22.860,lexical_decision_task_DD,2021.2.3,Win32,142.6533524,,,,,,,,,,,0.6008,1,,,,,,,,,,,,,,m,1,0.6008,,,,,,,,-0.007216495,-0.313402062,0,0,0,space,0,83,83,68,1,TORCH,LB,old,m,./images/TORCHLB.png,1.2273,,,,,,,,,,,,,,,,,,,,,,,,,,,,,,,,,,,
,,,,,,,,,,,,,,,,,58c38ef58158840001b5c230,34,2022-02-12_18h17.22.860,lexical_decision_task_DD,2021.2.3,Win32,142.6533524,,,,,,,,,,,0.666,1,,,,,,,,,,,,,,z,1,0.666,,,,,,,,-0.007216495,-0.313402062,0,0,0,,0,84,84,149,1,VEASE,LB,old,z,./images/VEASELB.png,,,,,,,,,,,,,,,,,,,,,,,,,,,,,,,,,,,,
,,,,,,,,,,,,,,,,,58c38ef58158840001b5c230,34,2022-02-12_18h17.22.860,lexical_decision_task_DD,2021.2.3,Win32,142.6533524,,,,,,,,,,,0.661,1,,,,,,,,,,,,,,z,1,0.661,,,,,,,,-0.007216495,-0.313402062,0,0,0,,0,85,85,166,1,SHORY,HB,old,z,./images/SHORYHB.png,,,,,,,,,,,,,,,,,,,,,,,,,,,,,,,,,,,,
,,,,,,,,,,,,,,,,,58c38ef58158840001b5c230,34,2022-02-12_18h17.22.860,lexical_decision_task_DD,2021.2.3,Win32,142.6533524,,,,,,,,,,,0.6803,0,,,,,,,,,,,,,,m,0,0.6803,,,,,,,,-0.007216495,-0.313402062,0,0,0,,0,86,86,116,1,BALGY,LB,old,z,./images/BALGYLB.png,,,,,,,,,,,,,,,,,,,,,,,,,,,,,,,,,,,,
,,,,,,,,,,,,,,,,,58c38ef58158840001b5c230,34,2022-02-12_18h17.22.860,lexical_decision_task_DD,2021.2.3,Win32,142.6533524,,,,,,,,,,,0.7578,1,,,,,,,,,,,,,,m,1,0.7578,,,,,,,,0.026804124,-0.26185567,0,0,0,,0,87,87,40,1,SWING,HB,old,m,./images/SWINGHB.png,,,,,,,,,,,,,,,,,,,,,,,,,,,,,,,,,,,,
,,,,,,,,,,,,,,,,,58c38ef58158840001b5c230,34,2022-02-12_18h17.22.860,lexical_decision_task_DD,2021.2.3,Win32,142.6533524,,,,,,,,,,,0.7856,1,,,,,,,,,,,,,,z,1,0.7856,,,,,,,,-0.008247423,-0.3,0,0,0,,0,88,88,163,1,GAMBA,HB,old,z,./images/GAMBAHB.png,,,,,,,,,,,,,,,,,,,,,,,,,,,,,,,,,,,,
,,,,,,,,,,,,,,,,,58c38ef58158840001b5c230,34,2022-02-12_18h17.22.860,lexical_decision_task_DD,2021.2.3,Win32,142.6533524,,,,,,,,,,,0.7301,1,,,,,,,,,,,,,,m,1,0.7301,,,,,,,,0.032989691,-0.264948454,0,0,0,,0,89,89,80,1,WEASEL,LB,old,m,./images/WEASELLB.png,,,,,,,,,,,,,,,,,,,,,,,,,,,,,,,,,,,,
,,,,,,,,,,,,,,,,,58c38ef58158840001b5c230,34,2022-02-12_18h17.22.860,lexical_decision_task_DD,2021.2.3,Win32,142.6533524,,,,,,,,,,,0.9637,1,,,,,,,,,,,,,,z,1,0.9637,,,,,,,,0.030927835,-0.262886598,0,0,0,,0,90,90,165,1,TROWN,C,old,z,./images/TROWN.png,,,,,,,,,,,,,,,,,,,,,,,,,,,,,,,,,,,,
,,,,,,,,,,,,,,,,,58c38ef58158840001b5c230,34,2022-02-12_18h17.22.860,lexical_decision_task_DD,2021.2.3,Win32,142.6533524,,,,,,,,,,,0.8321,1,,,,,,,,,,,,,,z,1,0.8321,,,,,,,,0.030927835,-0.262886598,0,0,0,,0,91,91,159,1,CUDDY,C,old,z,./images/CUDDY.png,,,,,,,,,,,,,,,,,,,,,,,,,,,,,,,,,,,,
,,,,,,,,,,,,,,,,,58c38ef58158840001b5c230,34,2022-02-12_18h17.22.860,lexical_decision_task_DD,2021.2.3,Win32,142.6533524,,,,,,,,,,,0.9813,1,,,,,,,,,,,,,,z,1,0.9813,,,,,,,,0.030927835,-0.262886598,0,0,0,,0,92,92,115,1,MAWNS,HB,old,z,./images/MAWNSHB.png,,,,,,,,,,,,,,,,,,,,,,,,,,,,,,,,,,,,
,,,,,,,,,,,,,,,,,58c38ef58158840001b5c230,34,2022-02-12_18h17.22.860,lexical_decision_task_DD,2021.2.3,Win32,142.6533524,,,,,,,,,,,0.8496,0,,,,,,,,,,,,,,z,0,0.8496,,,,,,,,0.030927835,-0.262886598,0,0,0,,0,93,93,25,1,WRIST,HB,old,m,./images/WRISTHB.png,,,,,,,,,,,,,,,,,,,,,,,,,,,,,,,,,,,,
,,,,,,,,,,,,,,,,,58c38ef58158840001b5c230,34,2022-02-12_18h17.22.860,lexical_decision_task_DD,2021.2.3,Win32,142.6533524,,,,,,,,,,,0.8074,1,,,,,,,,,,,,,,z,1,0.8074,,,,,,,,0.028865979,-0.263917526,0,0,0,,0,94,94,122,1,BLOOT,LB,old,z,./images/BLOOTLB.png,,,,,,,,,,,,,,,,,,,,,,,,,,,,,,,,,,,,
,,,,,,,,,,,,,,,,,58c38ef58158840001b5c230,34,2022-02-12_18h17.22.860,lexical_decision_task_DD,2021.2.3,Win32,142.6533524,,,,,,,,,,,0.723,1,,,,,,,,,,,,,,z,1,0.723,,,,,,,,0.010309278,-0.308247423,0,0,0,,0,95,95,145,1,LAMEL,HB,old,z,./images/LAMELHB.png,,,,,,,,,,,,,,,,,,,,,,,,,,,,,,,,,,,,
,,,,,,,,,,,,,,,,,58c38ef58158840001b5c230,34,2022-02-12_18h17.22.860,lexical_decision_task_DD,2021.2.3,Win32,142.6533524,,,,,,,,,,,0.7649,1,,,,,,,,,,,,,,z,1,0.7649,,,,,,,,-0.012371134,-0.310309278,0,0,0,,0,96,96,108,1,GRUET,C,old,z,./images/GRUET.png,,,,,,,,,,,,,,,,,,,,,,,,,,,,,,,,,,,,
,,,,,,,,,,,,,,,,,58c38ef58158840001b5c230,34,2022-02-12_18h17.22.860,lexical_decision_task_DD,2021.2.3,Win32,142.6533524,,,,,,,,,,,0.6155,1,,,,,,,,,,,,,,m,1,0.6155,,,,,,,,-0.017525773,-0.307216495,0,0,0,,0,97,97,2,1,BEARD,LB,old,m,./images/BEARDLB.png,,,,,,,,,,,,,,,,,,,,,,,,,,,,,,,,,,,,
,,,,,,,,,,,,,,,,,58c38ef58158840001b5c230,34,2022-02-12_18h17.22.860,lexical_decision_task_DD,2021.2.3,Win32,142.6533524,,,,,,,,,,,0.8188,1,,,,,,,,,,,,,,m,1,0.8188,,,,,,,,-0.017525773,-0.307216495,0,0,0,,0,98,98,49,1,DRUMS,HB,old,m,./images/DRUMSHB.png,,,,,,,,,,,,,,,,,,,,,,,,,,,,,,,,,,,,
,,,,,,,,,,,,,,,,,58c38ef58158840001b5c230,34,2022-02-12_18h17.22.860,lexical_decision_task_DD,2021.2.3,Win32,142.6533524,,,,,,,,,,,0.6467,1,,,,,,,,,,,,,,z,1,0.6467,,,,,,,,-0.017525773,-0.302061856,0,0,0,,0,99,99,119,1,PAFER,LB,old,z,./images/PAFERLB.png,,,,,,,,,,,,,,,,,,,,,,,,,,,,,,,,,,,,
,,,,,,,,,,,,,,,,,58c38ef58158840001b5c230,34,2022-02-12_18h17.22.860,lexical_decision_task_DD,2021.2.3,Win32,142.6533524,,,,,,,,,,,0.6098,1,,,,,,,,,,,,,,m,1,0.6098,,,,,,,,-0.017525773,-0.301030928,0,0,0,,0,100,100,15,1,GREASE,C,old,m,./images/GREASE.png,,,,,,,,,,,,,,,,,,,,,,,,,,,,,,,,,,,,
,,,,,,,,,,,,,,,,,58c38ef58158840001b5c230,34,2022-02-12_18h17.22.860,lexical_decision_task_DD,2021.2.3,Win32,142.6533524,,,,,,,,,,,0.5951,1,,,,,,,,,,,,,,z,1,0.5951,,,,,,,,-0.002061856,-0.319587629,0,0,0,,0,101,101,113,1,LINEW,LB,old,z,./images/LINEWLB.png,,,,,,,,,,,,,,,,,,,,,,,,,,,,,,,,,,,,
,,,,,,,,,,,,,,,,,58c38ef58158840001b5c230,34,2022-02-12_18h17.22.860,lexical_decision_task_DD,2021.2.3,Win32,142.6533524,,,,,,,,,,,0.6679,1,,,,,,,,,,,,,,z,1,0.6679,,,,,,,,-0.012371134,-0.290721649,0,0,0,,0,102,102,158,1,EGECT,LB,old,z,./images/EGECTLB.png,,,,,,,,,,,,,,,,,,,,,,,,,,,,,,,,,,,,
,,,,,,,,,,,,,,,,,58c38ef58158840001b5c230,34,2022-02-12_18h17.22.860,lexical_decision_task_DD,2021.2.3,Win32,142.6533524,,,,,,,,,,,1.0089,1,,,,,,,,,,,,,,m,1,1.0089,,,,,,,,0.010309278,-0.281443299,0,0,0,,0,103,103,76,1,INFANT,HB,old,m,./images/INFANTHB.png,,,,,,,,,,,,,,,,,,,,,,,,,,,,,,,,,,,,
,,,,,,,,,,,,,,,,,58c38ef58158840001b5c230,34,2022-02-12_18h17.22.860,lexical_decision_task_DD,2021.2.3,Win32,142.6533524,,,,,,,,,,,0.7344,1,,,,,,,,,,,,,,z,1,0.7344,,,,,,,,0.010309278,-0.281443299,0,0,0,,0,104,104,87,1,TRING,C,old,z,./images/TRING.png,,,,,,,,,,,,,,,,,,,,,,,,,,,,,,,,,,,,
,,,,,,,,,,,,,,,,,58c38ef58158840001b5c230,34,2022-02-12_18h17.22.860,lexical_decision_task_DD,2021.2.3,Win32,142.6533524,,,,,,,,,,,0.5938,1,,,,,,,,,,,,,,z,1,0.5938,,,,,,,,0.010309278,-0.281443299,0,0,0,,0,105,105,90,1,NEAST,C,old,z,./images/NEAST.png,,,,,,,,,,,,,,,,,,,,,,,,,,,,,,,,,,,,
,,,,,,,,,,,,,,,,,58c38ef58158840001b5c230,34,2022-02-12_18h17.22.860,lexical_decision_task_DD,2021.2.3,Win32,142.6533524,,,,,,,,,,,0.5076,1,,,,,,,,,,,,,,z,1,0.5076,,,,,,,,0.010309278,-0.281443299,0,0,0,,0,106,106,162,1,LEICH,C,old,z,./images/LEICH.png,,,,,,,,,,,,,,,,,,,,,,,,,,,,,,,,,,,,
,,,,,,,,,,,,,,,,,58c38ef58158840001b5c230,34,2022-02-12_18h17.22.860,lexical_decision_task_DD,2021.2.3,Win32,142.6533524,,,,,,,,,,,0.6008,1,,,,,,,,,,,,,,z,1,0.6008,,,,,,,,0.03814433,-0.289690722,0,0,0,,0,107,107,125,1,MOOKY,LB,old,z,./images/MOOKYLB.png,,,,,,,,,,,,,,,,,,,,,,,,,,,,,,,,,,,,
,,,,,,,,,,,,,,,,,58c38ef58158840001b5c230,34,2022-02-12_18h17.22.860,lexical_decision_task_DD,2021.2.3,Win32,142.6533524,,,,,,,,,,,1.0918,1,,,,,,,,,,,,,,m,1,1.0918,,,,,,,,-0.030927835,-0.256701031,0,0,0,,0,108,108,22,1,MELON,HB,old,m,./images/MELONHB.png,,,,,,,,,,,,,,,,,,,,,,,,,,,,,,,,,,,,
,,,,,,,,,,,,,,,,,58c38ef58158840001b5c230,34,2022-02-12_18h17.22.860,lexical_decision_task_DD,2021.2.3,Win32,142.6533524,,,,,,,,,,,0.7509,1,,,,,,,,,,,,,,m,1,0.7509,,,,,,,,-0.015463918,-0.22371134,0,0,0,,0,109,109,54,1,TRIPOD,C,old,m,./images/TRIPOD.png,,,,,,,,,,,,,,,,,,,,,,,,,,,,,,,,,,,,
,,,,,,,,,,,,,,,,,58c38ef58158840001b5c230,34,2022-02-12_18h17.22.860,lexical_decision_task_DD,2021.2.3,Win32,142.6533524,,,,,,,,,,,0.6264,1,,,,,,,,,,,,,,m,1,0.6264,,,,,,,,-0.04742268,-0.180412371,0,0,0,,0,110,110,57,1,MOOSE,C,old,m,./images/MOOSE.png,,,,,,,,,,,,,,,,,,,,,,,,,,,,,,,,,,,,
,,,,,,,,,,,,,,,,,58c38ef58158840001b5c230,34,2022-02-12_18h17.22.860,lexical_decision_task_DD,2021.2.3,Win32,142.6533524,,,,,,,,,,,0.5932,1,,,,,,,,,,,,,,m,1,0.5932,,,,,,,,-0.04742268,-0.181443299,0,0,0,,0,111,111,35,1,PEACH,LB,old,m,./images/PEACHLB.png,,,,,,,,,,,,,,,,,,,,,,,,,,,,,,,,,,,,
,,,,,,,,,,,,,,,,,58c38ef58158840001b5c230,34,2022-02-12_18h17.22.860,lexical_decision_task_DD,2021.2.3,Win32,142.6533524,,,,,,,,,,,0.6831,1,,,,,,,,,,,,,,z,1,0.6831,,,,,,,,-0.044329897,-0.179381443,0,0,0,,0,112,112,147,1,ZOLES,C,old,z,./images/ZOLES.png,,,,,,,,,,,,,,,,,,,,,,,,,,,,,,,,,,,,
,,,,,,,,,,,,,,,,,58c38ef58158840001b5c230,34,2022-02-12_18h17.22.860,lexical_decision_task_DD,2021.2.3,Win32,142.6533524,,,,,,,,,,,0.7271,1,,,,,,,,,,,,,,m,1,0.7271,,,,,,,,-0.044329897,-0.179381443,0,0,0,,0,113,113,56,1,PACKET,LB,old,m,./images/PACKETLB.png,,,,,,,,,,,,,,,,,,,,,,,,,,,,,,,,,,,,
,,,,,,,,,,,,,,,,,58c38ef58158840001b5c230,34,2022-02-12_18h17.22.860,lexical_decision_task_DD,2021.2.3,Win32,142.6533524,,,,,,,,,,,0.8832,1,,,,,,,,,,,,,,z,1,0.8832,,,,,,,,-0.044329897,-0.179381443,0,0,0,,0,114,114,157,1,INLER,HB,old,z,./images/INLERHB.png,,,,,,,,,,,,,,,,,,,,,,,,,,,,,,,,,,,,
,,,,,,,,,,,,,,,,,58c38ef58158840001b5c230,34,2022-02-12_18h17.22.860,lexical_decision_task_DD,2021.2.3,Win32,142.6533524,,,,,,,,,,,0.7322,1,,,,,,,,,,,,,,z,1,0.7322,,,,,,,,-0.044329897,-0.179381443,0,0,0,,0,115,115,100,1,DRIBS,HB,old,z,./images/DRIBSHB.png,,,,,,,,,,,,,,,,,,,,,,,,,,,,,,,,,,,,
,,,,,,,,,,,,,,,,,58c38ef58158840001b5c230,34,2022-02-12_18h17.22.860,lexical_decision_task_DD,2021.2.3,Win32,142.6533524,,,,,,,,,,,0.677,1,,,,,,,,,,,,,,z,1,0.677,,,,,,,,-0.043298969,-0.177319588,0,0,0,,0,116,116,161,1,BLAPS,LB,old,z,./images/BLAPSLB.png,,,,,,,,,,,,,,,,,,,,,,,,,,,,,,,,,,,,
,,,,,,,,,,,,,,,,,58c38ef58158840001b5c230,34,2022-02-12_18h17.22.860,lexical_decision_task_DD,2021.2.3,Win32,142.6533524,,,,,,,,,,,0.627,1,,,,,,,,,,,,,,m,1,0.627,,,,,,,,-0.041237113,-0.175257732,0,0,0,,0,117,117,12,1,SHORE,C,old,m,./images/SHORE.png,,,,,,,,,,,,,,,,,,,,,,,,,,,,,,,,,,,,
,,,,,,,,,,,,,,,,,58c38ef58158840001b5c230,34,2022-02-12_18h17.22.860,lexical_decision_task_DD,2021.2.3,Win32,142.6533524,,,,,,,,,,,0.6383,1,,,,,,,,,,,,,,m,1,0.6383,,,,,,,,-0.041237113,-0.175257732,0,0,0,,0,118,118,20,1,CRADLE,LB,old,m,./images/CRADLELB.png,,,,,,,,,,,,,,,,,,,,,,,,,,,,,,,,,,,,
,,,,,,,,,,,,,,,,,58c38ef58158840001b5c230,34,2022-02-12_18h17.22.860,lexical_decision_task_DD,2021.2.3,Win32,142.6533524,,,,,,,,,,,0.6008,1,,,,,,,,,,,,,,m,1,0.6008,,,,,,,,-0.041237113,-0.175257732,0,0,0,,0,119,119,27,1,ATTIC,C,old,m,./images/ATTIC.png,,,,,,,,,,,,,,,,,,,,,,,,,,,,,,,,,,,,
,,,,,,,,,,,,,,,,,58c38ef58158840001b5c230,34,2022-02-12_18h17.22.860,lexical_decision_task_DD,2021.2.3,Win32,142.6533524,,,,,,,,,,,0.5702,1,,,,,,,,,,,,,,z,1,0.5702,,,,,,,,-0.041237113,-0.173195876,0,0,0,,0,120,120,126,1,GUELS,C,old,z,./images/GUELS.png,,,,,,,,,,,,,,,,,,,,,,,,,,,,,,,,,,,,
,,,,,,,,,,,,,,,,,58c38ef58158840001b5c230,34,2022-02-12_18h17.22.860,lexical_decision_task_DD,2021.2.3,Win32,142.6533524,,,,,,,,,,,0.5872,0,,,,,,,,,,,,,,m,0,0.5872,,,,,,,,-0.082474227,-0.232989691,0,0,0,,0,121,121,104,1,GITTY,LB,old,z,./images/GITTYLB.png,,,,,,,,,,,,,,,,,,,,,,,,,,,,,,,,,,,,
,,,,,,,,,,,,,,,,,58c38ef58158840001b5c230,34,2022-02-12_18h17.22.860,lexical_decision_task_DD,2021.2.3,Win32,142.6533524,,,,,,,,,,,0.7495,1,,,,,,,,,,,,,,z,1,0.7495,,,,,,,,-0.054639175,-0.273195876,0,0,0,,0,122,122,91,1,SHENS,HB,old,z,./images/SHENSHB.png,,,,,,,,,,,,,,,,,,,,,,,,,,,,,,,,,,,,
,,,,,,,,,,,,,,,,,58c38ef58158840001b5c230,34,2022-02-12_18h17.22.860,lexical_decision_task_DD,2021.2.3,Win32,142.6533524,,,,,,,,,,,0.6435,1,,,,,,,,,,,,,,m,1,0.6435,,,,,,,,-0.053608247,-0.271134021,0,0,0,,0,123,123,5,1,PASTA,LB,old,m,./images/PASTALB.png,,,,,,,,,,,,,,,,,,,,,,,,,,,,,,,,,,,,
,,,,,,,,,,,,,,,,,58c38ef58158840001b5c230,34,2022-02-12_18h17.22.860,lexical_decision_task_DD,2021.2.3,Win32,142.6533524,,,,,,,,,,,1.0886,1,,,,,,,,,,,,,,m,1,1.0886,,,,,,,,-0.048453608,-0.259793814,0,0,0,,0,124,124,16,1,PENCE,HB,old,m,./images/PENCEHB.png,,,,,,,,,,,,,,,,,,,,,,,,,,,,,,,,,,,,
,,,,,,,,,,,,,,,,,58c38ef58158840001b5c230,34,2022-02-12_18h17.22.860,lexical_decision_task_DD,2021.2.3,Win32,142.6533524,,,,,,,,,,,0.9425,1,,,,,,,,,,,,,,z,1,0.9425,,,,,,,,0.024742268,-0.394845361,1,0,0,,0,125,125,106,1,CLUMS,HB,old,z,./images/CLUMSHB.png,,break_done_button,,,,,,,,,,,,,,,,,,,,,,,,,,,,,,,,,,
,,,,,,,,,,,,,,,,,58c38ef58158840001b5c230,34,2022-02-12_18h17.22.860,lexical_decision_task_DD,2021.2.3,Win32,142.6533524,,,,,,,,,,,0.6377,1,,,,,,,,,,,,,,z,1,0.6377,,,,,,,,0.027835052,-0.264948454,0,0,0,,0,126,126,132,1,SCIFF,C,old,z,./images/SCIFF.png,,,,,,,,,,,,,,,,,,,,,,,,,,,,,,,,,,,,
,,,,,,,,,,,,,,,,,58c38ef58158840001b5c230,34,2022-02-12_18h17.22.860,lexical_decision_task_DD,2021.2.3,Win32,142.6533524,,,,,,,,,,,0.6387,1,,,,,,,,,,,,,,z,1,0.6387,,,,,,,,0.025773196,-0.264948454,0,0,0,,0,127,127,111,1,HOSSE,C,old,z,./images/HOSSE.png,,,,,,,,,,,,,,,,,,,,,,,,,,,,,,,,,,,,
,,,,,,,,,,,,,,,,,58c38ef58158840001b5c230,34,2022-02-12_18h17.22.860,lexical_decision_task_DD,2021.2.3,Win32,142.6533524,,,,,,,,,,,0.8559,1,,,,,,,,,,,,,,m,1,0.8559,,,,,,,,0.025773196,-0.264948454,0,0,0,,0,128,128,1,1,PLANK,HB,old,m,./images/PLANKHB.png,,,,,,,,,,,,,,,,,,,,,,,,,,,,,,,,,,,,
,,,,,,,,,,,,,,,,,58c38ef58158840001b5c230,34,2022-02-12_18h17.22.860,lexical_decision_task_DD,2021.2.3,Win32,142.6533524,,,,,,,,,,,0.545,1,,,,,,,,,,,,,,m,1,0.545,,,,,,,,0.025773196,-0.264948454,0,0,0,,0,129,129,0,1,TOMATO,C,old,m,./images/TOMATO.png,,,,,,,,,,,,,,,,,,,,,,,,,,,,,,,,,,,,
,,,,,,,,,,,,,,,,,58c38ef58158840001b5c230,34,2022-02-12_18h17.22.860,lexical_decision_task_DD,2021.2.3,Win32,142.6533524,,,,,,,,,,,0.6763,1,,,,,,,,,,,,,,z,1,0.6763,,,,,,,,0.025773196,-0.264948454,0,0,0,,0,130,130,109,1,BURGE,HB,old,z,./images/BURGEHB.png,,,,,,,,,,,,,,,,,,,,,,,,,,,,,,,,,,,,
,,,,,,,,,,,,,,,,,58c38ef58158840001b5c230,34,2022-02-12_18h17.22.860,lexical_decision_task_DD,2021.2.3,Win32,142.6533524,,,,,,,,,,,0.7335,1,,,,,,,,,,,,,,m,1,0.7335,,,,,,,,0.025773196,-0.264948454,0,0,0,,0,131,131,28,1,FALCON,HB,old,m,./images/FALCONHB.png,,,,,,,,,,,,,,,,,,,,,,,,,,,,,,,,,,,,
,,,,,,,,,,,,,,,,,58c38ef58158840001b5c230,34,2022-02-12_18h17.22.860,lexical_decision_task_DD,2021.2.3,Win32,142.6533524,,,,,,,,,,,0.701,1,,,,,,,,,,,,,,m,1,0.701,,,,,,,,0.025773196,-0.264948454,0,0,0,,0,132,132,75,1,GRAIN,C,old,m,./images/GRAIN.png,,,,,,,,,,,,,,,,,,,,,,,,,,,,,,,,,,,,
,,,,,,,,,,,,,,,,,58c38ef58158840001b5c230,34,2022-02-12_18h17.22.860,lexical_decision_task_DD,2021.2.3,Win32,142.6533524,,,,,,,,,,,0.6258,1,,,,,,,,,,,,,,m,1,0.6258,,,,,,,,0.025773196,-0.264948454,0,0,0,,0,133,133,29,1,CRUMB,LB,old,m,./images/CRUMBLB.png,,,,,,,,,,,,,,,,,,,,,,,,,,,,,,,,,,,,
,,,,,,,,,,,,,,,,,58c38ef58158840001b5c230,34,2022-02-12_18h17.22.860,lexical_decision_task_DD,2021.2.3,Win32,142.6533524,,,,,,,,,,,0.6577,1,,,,,,,,,,,,,,z,1,0.6577,,,,,,,,0.025773196,-0.264948454,0,0,0,,0,134,134,135,1,JOODY,C,old,z,./images/JOODY.png,,,,,,,,,,,,,,,,,,,,,,,,,,,,,,,,,,,,
,,,,,,,,,,,,,,,,,58c38ef58158840001b5c230,34,2022-02-12_18h17.22.860,lexical_decision_task_DD,2021.2.3,Win32,142.6533524,,,,,,,,,,,0.8752,1,,,,,,,,,,,,,,m,1,0.8752,,,,,,,,0.025773196,-0.264948454,0,0,0,,0,135,135,13,1,MOTOR,HB,old,m,./images/MOTORHB.png,,,,,,,,,,,,,,,,,,,,,,,,,,,,,,,,,,,,
,,,,,,,,,,,,,,,,,58c38ef58158840001b5c230,34,2022-02-12_18h17.22.860,lexical_decision_task_DD,2021.2.3,Win32,142.6533524,,,,,,,,,,,0.6781,1,,,,,,,,,,,,,,z,1,0.6781,,,,,,,,0.025773196,-0.264948454,0,0,0,,0,136,136,155,1,CANGY,LB,old,z,./images/CANGYLB.png,,,,,,,,,,,,,,,,,,,,,,,,,,,,,,,,,,,,
,,,,,,,,,,,,,,,,,58c38ef58158840001b5c230,34,2022-02-12_18h17.22.860,lexical_decision_task_DD,2021.2.3,Win32,142.6533524,,,,,,,,,,,0.861,1,,,,,,,,,,,,,,m,1,0.861,,,,,,,,0.025773196,-0.264948454,0,0,0,,0,137,137,62,1,PURSE,LB,old,m,./images/PURSELB.png,,,,,,,,,,,,,,,,,,,,,,,,,,,,,,,,,,,,
,,,,,,,,,,,,,,,,,58c38ef58158840001b5c230,34,2022-02-12_18h17.22.860,lexical_decision_task_DD,2021.2.3,Win32,142.6533524,,,,,,,,,,,0.6119,0,,,,,,,,,,,,,,z,0,0.6119,,,,,,,,0.025773196,-0.264948454,0,0,0,,0,138,138,19,1,DOUGH,HB,old,m,./images/DOUGHHB.png,,,,,,,,,,,,,,,,,,,,,,,,,,,,,,,,,,,,
,,,,,,,,,,,,,,,,,58c38ef58158840001b5c230,34,2022-02-12_18h17.22.860,lexical_decision_task_DD,2021.2.3,Win32,142.6533524,,,,,,,,,,,0.7156,1,,,,,,,,,,,,,,z,1,0.7156,,,,,,,,0.025773196,-0.264948454,0,0,0,,0,139,139,114,1,RIKES,C,old,z,./images/RIKES.png,,,,,,,,,,,,,,,,,,,,,,,,,,,,,,,,,,,,
,,,,,,,,,,,,,,,,,58c38ef58158840001b5c230,34,2022-02-12_18h17.22.860,lexical_decision_task_DD,2021.2.3,Win32,142.6533524,,,,,,,,,,,0.6873,1,,,,,,,,,,,,,,z,1,0.6873,,,,,,,,0.025773196,-0.264948454,0,0,0,,0,140,140,124,1,TUNCH,HB,old,z,./images/TUNCHHB.png,,,,,,,,,,,,,,,,,,,,,,,,,,,,,,,,,,,,
,,,,,,,,,,,,,,,,,58c38ef58158840001b5c230,34,2022-02-12_18h17.22.860,lexical_decision_task_DD,2021.2.3,Win32,142.6533524,,,,,,,,,,,0.6189,1,,,,,,,,,,,,,,m,1,0.6189,,,,,,,,0.025773196,-0.264948454,0,0,0,,0,141,141,32,1,BARREL,LB,old,m,./images/BARRELLB.png,,,,,,,,,,,,,,,,,,,,,,,,,,,,,,,,,,,,
,,,,,,,,,,,,,,,,,58c38ef58158840001b5c230,34,2022-02-12_18h17.22.860,lexical_decision_task_DD,2021.2.3,Win32,142.6533524,,,,,,,,,,,0.758,1,,,,,,,,,,,,,,z,1,0.758,,,,,,,,0.025773196,-0.264948454,0,0,0,,0,142,142,85,1,CHULK,HB,old,z,./images/CHULKHB.png,,,,,,,,,,,,,,,,,,,,,,,,,,,,,,,,,,,,
,,,,,,,,,,,,,,,,,58c38ef58158840001b5c230,34,2022-02-12_18h17.22.860,lexical_decision_task_DD,2021.2.3,Win32,142.6533524,,,,,,,,,,,1.1387,1,,,,,,,,,,,,,,z,1,1.1387,,,,,,,,0.025773196,-0.264948454,0,0,0,,0,143,143,107,1,FASKS,LB,old,z,./images/FASKSLB.png,,,,,,,,,,,,,,,,,,,,,,,,,,,,,,,,,,,,
,,,,,,,,,,,,,,,,,58c38ef58158840001b5c230,34,2022-02-12_18h17.22.860,lexical_decision_task_DD,2021.2.3,Win32,142.6533524,,,,,,,,,,,1.3341,1,,,,,,,,,,,,,,z,1,1.3341,,,,,,,,0.025773196,-0.264948454,0,0,0,,0,144,144,121,1,CEERS,HB,old,z,./images/CEERSHB.png,,,,,,,,,,,,,,,,,,,,,,,,,,,,,,,,,,,,
,,,,,,,,,,,,,,,,,58c38ef58158840001b5c230,34,2022-02-12_18h17.22.860,lexical_decision_task_DD,2021.2.3,Win32,142.6533524,,,,,,,,,,,0.9353,1,,,,,,,,,,,,,,m,1,0.9353,,,,,,,,0.025773196,-0.264948454,0,0,0,,0,145,145,71,1,PIMPLE,LB,old,m,./images/PIMPLELB.png,,,,,,,,,,,,,,,,,,,,,,,,,,,,,,,,,,,,
,,,,,,,,,,,,,,,,,58c38ef58158840001b5c230,34,2022-02-12_18h17.22.860,lexical_decision_task_DD,2021.2.3,Win32,142.6533524,,,,,,,,,,,2.3368,1,,,,,,,,,,,,,,m,1,2.3368,,,,,,,,0.025773196,-0.264948454,0,0,0,,0,146,146,73,1,SNACK,HB,old,m,./images/SNACKHB.png,,,,,,,,,,,,,,,,,,,,,,,,,,,,,,,,,,,,
,,,,,,,,,,,,,,,,,58c38ef58158840001b5c230,34,2022-02-12_18h17.22.860,lexical_decision_task_DD,2021.2.3,Win32,142.6533524,,,,,,,,,,,2.0878,1,,,,,,,,,,,,,,z,1,2.0878,,,,,,,,0.025773196,-0.264948454,0,0,0,,0,147,147,138,1,PLICE,C,old,z,./images/PLICE.png,,,,,,,,,,,,,,,,,,,,,,,,,,,,,,,,,,,,
,,,,,,,,,,,,,,,,,58c38ef58158840001b5c230,34,2022-02-12_18h17.22.860,lexical_decision_task_DD,2021.2.3,Win32,142.6533524,,,,,,,,,,,0.911,1,,,,,,,,,,,,,,z,1,0.911,,,,,,,,0.025773196,-0.264948454,0,0,0,,0,148,148,152,1,FRAIN,LB,old,z,./images/FRAINLB.png,,,,,,,,,,,,,,,,,,,,,,,,,,,,,,,,,,,,
,,,,,,,,,,,,,,,,,58c38ef58158840001b5c230,34,2022-02-12_18h17.22.860,lexical_decision_task_DD,2021.2.3,Win32,142.6533524,,,,,,,,,,,1.21,1,,,,,,,,,,,,,,m,1,1.21,,,,,,,,0.025773196,-0.264948454,0,0,0,,0,149,149,17,1,SKIING,LB,old,m,./images/SKIINGLB.png,,,,,,,,,,,,,,,,,,,,,,,,,,,,,,,,,,,,
,,,,,,,,,,,,,,,,,58c38ef58158840001b5c230,34,2022-02-12_18h17.22.860,lexical_decision_task_DD,2021.2.3,Win32,142.6533524,,,,,,,,,,,1.1077,0,,,,,,,,,,,,,,z,0,1.1077,,,,,,,,0.025773196,-0.264948454,0,0,0,,0,150,150,72,1,NOOSE,C,old,m,./images/NOOSE.png,,,,,,,,,,,,,,,,,,,,,,,,,,,,,,,,,,,,
,,,,,,,,,,,,,,,,,58c38ef58158840001b5c230,34,2022-02-12_18h17.22.860,lexical_decision_task_DD,2021.2.3,Win32,142.6533524,,,,,,,,,,,0.963,1,,,,,,,,,,,,,,z,1,0.963,,,,,,,,0.025773196,-0.264948454,0,0,0,,0,151,151,137,1,JOOST,LB,old,z,./images/JOOSTLB.png,,,,,,,,,,,,,,,,,,,,,,,,,,,,,,,,,,,,
,,,,,,,,,,,,,,,,,58c38ef58158840001b5c230,34,2022-02-12_18h17.22.860,lexical_decision_task_DD,2021.2.3,Win32,142.6533524,,,,,,,,,,,0.7791,1,,,,,,,,,,,,,,m,1,0.7791,,,,,,,,0.025773196,-0.264948454,0,0,0,,0,152,152,82,1,SUNSET,HB,old,m,./images/SUNSETHB.png,,,,,,,,,,,,,,,,,,,,,,,,,,,,,,,,,,,,
,,,,,,,,,,,,,,,,,58c38ef58158840001b5c230,34,2022-02-12_18h17.22.860,lexical_decision_task_DD,2021.2.3,Win32,142.6533524,,,,,,,,,,,0.569,1,,,,,,,,,,,,,,m,1,0.569,,,,,,,,0.025773196,-0.264948454,0,0,0,,0,153,153,47,1,BERRY,LB,old,m,./images/BERRYLB.png,,,,,,,,,,,,,,,,,,,,,,,,,,,,,,,,,,,,
,,,,,,,,,,,,,,,,,58c38ef58158840001b5c230,34,2022-02-12_18h17.22.860,lexical_decision_task_DD,2021.2.3,Win32,142.6533524,,,,,,,,,,,0.5845,1,,,,,,,,,,,,,,z,1,0.5845,,,,,,,,0.025773196,-0.264948454,0,0,0,,0,154,154,153,1,CLUPS,C,old,z,./images/CLUPS.png,,,,,,,,,,,,,,,,,,,,,,,,,,,,,,,,,,,,
,,,,,,,,,,,,,,,,,58c38ef58158840001b5c230,34,2022-02-12_18h17.22.860,lexical_decision_task_DD,2021.2.3,Win32,142.6533524,,,,,,,,,,,0.6423,1,,,,,,,,,,,,,,z,1,0.6423,,,,,,,,0.025773196,-0.264948454,0,0,0,,0,155,155,141,1,PLEET,C,old,z,./images/PLEET.png,,,,,,,,,,,,,,,,,,,,,,,,,,,,,,,,,,,,
,,,,,,,,,,,,,,,,,58c38ef58158840001b5c230,34,2022-02-12_18h17.22.860,lexical_decision_task_DD,2021.2.3,Win32,142.6533524,,,,,,,,,,,1.1241,1,,,,,,,,,,,,,,m,1,1.1241,,,,,,,,0.025773196,-0.264948454,0,0,0,,0,156,156,37,1,BIRTH,HB,old,m,./images/BIRTHHB.png,,,,,,,,,,,,,,,,,,,,,,,,,,,,,,,,,,,,
,,,,,,,,,,,,,,,,,58c38ef58158840001b5c230,34,2022-02-12_18h17.22.860,lexical_decision_task_DD,2021.2.3,Win32,142.6533524,,,,,,,,,,,0.7023,1,,,,,,,,,,,,,,m,1,0.7023,,,,,,,,0.025773196,-0.264948454,0,0,0,,0,157,157,61,1,CANDLE,HB,old,m,./images/CANDLEHB.png,,,,,,,,,,,,,,,,,,,,,,,,,,,,,,,,,,,,
,,,,,,,,,,,,,,,,,58c38ef58158840001b5c230,34,2022-02-12_18h17.22.860,lexical_decision_task_DD,2021.2.3,Win32,142.6533524,,,,,,,,,,,0.7348,1,,,,,,,,,,,,,,m,1,0.7348,,,,,,,,0.025773196,-0.264948454,0,0,0,,0,158,158,33,1,MAGGOT,C,old,m,./images/MAGGOT.png,,,,,,,,,,,,,,,,,,,,,,,,,,,,,,,,,,,,
,,,,,,,,,,,,,,,,,58c38ef58158840001b5c230,34,2022-02-12_18h17.22.860,lexical_decision_task_DD,2021.2.3,Win32,142.6533524,,,,,,,,,,,0.5782,1,,,,,,,,,,,,,,z,1,0.5782,,,,,,,,0.025773196,-0.264948454,0,0,0,,0,159,159,150,1,NOOLS,C,old,z,./images/NOOLS.png,,,,,,,,,,,,,,,,,,,,,,,,,,,,,,,,,,,,
,,,,,,,,,,,,,,,,,58c38ef58158840001b5c230,34,2022-02-12_18h17.22.860,lexical_decision_task_DD,2021.2.3,Win32,142.6533524,,,,,,,,,,,0.6231,1,,,,,,,,,,,,,,m,1,0.6231,,,,,,,,0.025773196,-0.264948454,0,0,0,,0,160,160,53,1,CARPET,LB,old,m,./images/CARPETLB.png,,,,,,,,,,,,,,,,,,,,,,,,,,,,,,,,,,,,
,,,,,,,,,,,,,,,,,58c38ef58158840001b5c230,34,2022-02-12_18h17.22.860,lexical_decision_task_DD,2021.2.3,Win32,142.6533524,,,,,,,,,,,1.0317,1,,,,,,,,,,,,,,m,1,1.0317,,,,,,,,0.025773196,-0.264948454,0,0,0,,0,161,161,55,1,MUFFIN,HB,old,m,./images/MUFFINHB.png,,,,,,,,,,,,,,,,,,,,,,,,,,,,,,,,,,,,
,,,,,,,,,,,,,,,,,58c38ef58158840001b5c230,34,2022-02-12_18h17.22.860,lexical_decision_task_DD,2021.2.3,Win32,142.6533524,,,,,,,,,,,0.6204,1,,,,,,,,,,,,,,m,1,0.6204,,,,,,,,0.025773196,-0.264948454,0,0,0,,0,162,162,44,1,LIZARD,LB,old,m,./images/LIZARDLB.png,,,,,,,,,,,,,,,,,,,,,,,,,,,,,,,,,,,,
,,,,,,,,,,,,,,,,,58c38ef58158840001b5c230,34,2022-02-12_18h17.22.860,lexical_decision_task_DD,2021.2.3,Win32,142.6533524,,,,,,,,,,,0.6473,1,,,,,,,,,,,,,,m,1,0.6473,,,,,,,,0.025773196,-0.264948454,0,0,0,,0,163,163,64,1,JELLY,HB,old,m,./images/JELLYHB.png,,,,,,,,,,,,,,,,,,,,,,,,,,,,,,,,,,,,
,,,,,,,,,,,,,,,,,58c38ef58158840001b5c230,34,2022-02-12_18h17.22.860,lexical_decision_task_DD,2021.2.3,Win32,142.6533524,,,,,,,,,,,0.6676,1,,,,,,,,,,,,,,m,1,0.6676,,,,,,,,0.025773196,-0.264948454,0,0,0,,0,164,164,18,1,JAGUAR,C,old,m,./images/JAGUAR.png,,,,,,,,,,,,,,,,,,,,,,,,,,,,,,,,,,,,
,,,,,,,,,,,,,,,,,58c38ef58158840001b5c230,34,2022-02-12_18h17.22.860,lexical_decision_task_DD,2021.2.3,Win32,142.6533524,,,,,,,,,,,0.7581,1,,,,,,,,,,,,,,z,1,0.7581,,,,,,,,0.025773196,-0.264948454,0,0,0,,0,165,165,93,1,SMONE,C,old,z,./images/SMONE.png,,,,,,,,,,,,,,,,,,,,,,,,,,,,,,,,,,,,
,,,,,,,,,,,,,,,,,58c38ef58158840001b5c230,34,2022-02-12_18h17.22.860,lexical_decision_task_DD,2021.2.3,Win32,142.6533524,,,,,,,,,,,0.5784,1,,,,,,,,,,,,,,m,1,0.5784,,,,,,,,0.025773196,-0.264948454,0,0,0,,0,166,166,38,1,LADDER,LB,old,m,./images/LADDERLB.png,,,,,,,,,,,,,,,,,,,,,,,,,,,,,,,,,,,,
,,,,,,,,,,,,,,,,,58c38ef58158840001b5c230,34,2022-02-12_18h17.22.860,lexical_decision_task_DD,2021.2.3,Win32,142.6533524,,,,,,,,,,,0.8136,1,,,,,,,,,,,,,,m,1,0.8136,,,,,,,,0.025773196,-0.264948454,0,0,0,,0,167,167,58,1,BABOON,HB,old,m,./images/BABOONHB.png,,,,,,,,,,,,,,,,,,,,,,,,,,,,,,,,,,,,
,,,,,,,,,,,,,,,,,58c38ef58158840001b5c230,34,2022-02-12_18h17.22.860,lexical_decision_task_DD,2021.2.3,Win32,142.6533524,,,,,,,,,,,,,,,,,,,,,,,,,,,,,,,,,,,,,,,,,,,,,,,,How likely will it be that you will recognize the words presented very blurred on a scale of 0 (not likely) to 100 (most likely)?,,,,,,-0.011340206,-0.390721649,1,0,0,jol_adv,2,4.8982,0,0,0,2,1,,,,,,,,,,,,,,,,,,,,,
,,,,,,,,,,,,,,,,,58c38ef58158840001b5c230,34,2022-02-12_18h17.22.860,lexical_decision_task_DD,2021.2.3,Win32,142.6533524,,,,,,,,,,,,,,,,,,,,,,,,,,,,,,,,,,,,,,,,,,,,,,,,How likely will it be that you will recognize the words presented clearly on a scale of 0 (not likely) to 100 (most likely)?,,,,,,,,,,,,2,0.4365,0,1,1,0,1,,,,,,,,,,,,,,,,,,,,,
,,,,,,,,,,,,,,,,,58c38ef58158840001b5c230,34,2022-02-12_18h17.22.860,lexical_decision_task_DD,2021.2.3,Win32,142.6533524,,,,,,,,,,,,,,,,,,,,,,,,,,,,,,,,,,,,,,,,,,,,,,,,How likely will it be that you will recognize the words presented slighly blurred on a scale of 0 (not likely) to 100 (most likely)?,,,,,,,,,,,,2,0.7997,0,2,2,1,1,,,,,,,,,,,,,,,,,,,,,
,-0.013402062,-0.408247423,1,0,0,instr_done_button,,,,,,1,test,"In the next phase you will be presented with the words from the the first phase. Your job is to decide whether you remember seeing the word or not. If you remember seeing the word press ""old"" or type ""m"". If you do not remember seeing the word press ""new"" or type ""z"". Please press the space bar or click on continue to begin. ",,,58c38ef58158840001b5c230,34,2022-02-12_18h17.22.860,lexical_decision_task_DD,2021.2.3,Win32,142.6533524,,,,,,,,,,,,,,,,,,,,,,,,,,,,,,,,,,,,,,,,,,,,,,,,,,,,,,,,,,,,,,,,,,,0,0,0,0,1,,,,,,,,,,,,,,,,
,-0.028865979,-0.421649485,1,0,0,instr_done_button,,,,,,1,test,"In the next phase you will be presented with the words from the the first phase. Your job is to decide whether you remember seeing the word or not. If you remember seeing the word press ""old"" or type ""m"". If you do not remember seeing the word press ""new"" or type ""z"". Please press the space bar or click on continue to begin. ",,,58c38ef58158840001b5c230,34,2022-02-12_18h17.22.860,lexical_decision_task_DD,2021.2.3,Win32,142.6533524,,,,,,,,,,,,,,,,,,,,,,,,,,,,,,,,,,,,,,,,,,,,,,,,,,,,,,,,,,,,,,,,,,,1,0,1,0,1,,,,,,,,,,,,,,,,
,-0.028865979,-0.426804124,1,0,0,instr_done_button,,,,,,1,test,"In the next phase you will be presented with the words from the the first phase. Your job is to decide whether you remember seeing the word or not. If you remember seeing the word press ""old"" or type ""m"". If you do not remember seeing the word press ""new"" or type ""z"". Please press the space bar or click on continue to begin. ",,,58c38ef58158840001b5c230,34,2022-02-12_18h17.22.860,lexical_decision_task_DD,2021.2.3,Win32,142.6533524,,,,,,,,,,,,,,,,,,,,,,,,,,,,,,,,,,,,,,,,,,,,,,,,,,,,,,,,,,,,,,,,,,,2,0,2,0,1,,,,,,,,,,,,,,,,
space,0.112371134,-0.24742268,0,0,0,,,,,,,1,test,"In the next phase you will be presented with the words from the the first phase. Your job is to decide whether you remember seeing the word or not. If you remember seeing the word press ""old"" or type ""m"". If you do not remember seeing the word press ""new"" or type ""z"". Please press the space bar or click on continue to begin. ",,,58c38ef58158840001b5c230,34,2022-02-12_18h17.22.860,lexical_decision_task_DD,2021.2.3,Win32,142.6533524,,,,,,,,,,,,,,,,,,,,,,,,,,,,,,,,,,,,,,,,,,,,,,,,,,,,,,,,,,,,,,,,,,,3,0,3,0,1,2.34,,,,,,,,,,,,,,,
,-0.004123711,-0.406185567,1,0,0,instr_done_button,,,,,,1,test,"In the next phase you will be presented with the words from the the first phase. Your job is to decide whether you remember seeing the word or not. If you remember seeing the word press ""old"" or type ""m"". If you do not remember seeing the word press ""new"" or type ""z"". Please press the space bar or click on continue to begin. ",,,58c38ef58158840001b5c230,34,2022-02-12_18h17.22.860,lexical_decision_task_DD,2021.2.3,Win32,142.6533524,,,,,,,,,,,,,,,,,,,,,,,,,,,,,,,,,,,,,,,,,,,,,,,,,,,,,,,,,,,,,,,,,,,4,0,4,0,1,,,,,,,,,,,,,,,,
,,,,,,,,,,,,,,,,,58c38ef58158840001b5c230,34,2022-02-12_18h17.22.860,lexical_decision_task_DD,2021.2.3,Win32,142.6533524,,,,,,,,,,,2.0334,1,,,,,,,,,,,,,,,,,,,,,,,,-0.010309278,-0.428865979,0,0,0,,,,,,,CURRY,C,z,m,./images/CURRY.png,,,,,,,,,,,,,,,,,,,,,,z,1,2.0334,,,,,,,,0,0,0,144,1
,,,,,,,,,,,,,,,,,58c38ef58158840001b5c230,34,2022-02-12_18h17.22.860,lexical_decision_task_DD,2021.2.3,Win32,142.6533524,,,,,,,,,,,0.6997,0,,,,,,,,,,,,,,,,,,,,,,,,-0.010309278,-0.428865979,0,0,0,,,,,,,FALCON,HB,m,m,./images/FALCONHB.png,,,,,,,,,,,,,,,,,,,,,,z,0,0.6997,,,,,,,,0,1,1,28,1
,,,,,,,,,,,,,,,,,58c38ef58158840001b5c230,34,2022-02-12_18h17.22.860,lexical_decision_task_DD,2021.2.3,Win32,142.6533524,,,,,,,,,,,0.5958,0,,,,,,,,,,,,,,,,,,,,,,,,-0.010309278,-0.428865979,0,0,0,,,,,,,WEASEL,LB,m,m,./images/WEASELLB.png,,,,,,,,,,,,,,,,,,,,,,z,0,0.5958,,,,,,,,0,2,2,80,1
,,,,,,,,,,,,,,,,,58c38ef58158840001b5c230,34,2022-02-12_18h17.22.860,lexical_decision_task_DD,2021.2.3,Win32,142.6533524,,,,,,,,,,,0.0777,0,,,,,,,,,,,,,,,,,,,,,,,,-0.010309278,-0.428865979,0,0,0,,,,,,,PISTOL,LB,z,m,./images/PISTOLLB.png,,,,,,,,,,,,,,,,,,,,,,m,0,0.0777,,,,,,,,0,3,3,113,1
,,,,,,,,,,,,,,,,,58c38ef58158840001b5c230,34,2022-02-12_18h17.22.860,lexical_decision_task_DD,2021.2.3,Win32,142.6533524,,,,,,,,,,,0.0189,1,,,,,,,,,,,,,,,,,,,,,,,,-0.010309278,-0.428865979,0,0,0,,,,,,,SLOPE,C,z,m,./images/SLOPE.png,,,,,,,,,,,,,,,,,,,,,,z,1,0.0189,,,,,,,,0,4,4,114,1
,,,,,,,,,,,,,,,,,58c38ef58158840001b5c230,34,2022-02-12_18h17.22.860,lexical_decision_task_DD,2021.2.3,Win32,142.6533524,,,,,,,,,,,0.0922,1,,,,,,,,,,,,,,,,,,,,,,,,-0.010309278,-0.428865979,0,0,0,,,,,,,POODLE,C,m,m,./images/POODLE.png,,,,,,,,,,,,,,,,,,,,,,m,1,0.0922,,,,,,,,0,5,5,81,1
,,,,,,,,,,,,,,,,,58c38ef58158840001b5c230,34,2022-02-12_18h17.22.860,lexical_decision_task_DD,2021.2.3,Win32,142.6533524,,,,,,,,,,,0.1577,1,,,,,,,,,,,,,,,,,,,,,,,,-0.010309278,-0.428865979,0,0,0,,,,,,,PLANET,LB,z,m,./images/PLANETLB.png,,,,,,,,,,,,,,,,,,,,,,z,1,0.1577,,,,,,,,0,6,6,164,1
,,,,,,,,,,,,,,,,,58c38ef58158840001b5c230,34,2022-02-12_18h17.22.860,lexical_decision_task_DD,2021.2.3,Win32,142.6533524,,,,,,,,,,,0.001,0,,,,,,,,,,,,,,,,,,,,,,,,-0.010309278,-0.428865979,0,0,0,,,,,,,TORCH,LB,m,m,./images/TORCHLB.png,,,,,,,,,,,,,,,,,,,,,,z,0,0.001,,,,,,,,0,7,7,68,1
,,,,,,,,,,,,,,,,,58c38ef58158840001b5c230,34,2022-02-12_18h17.22.860,lexical_decision_task_DD,2021.2.3,Win32,142.6533524,,,,,,,,,,,0.2467,1,,,,,,,,,,,,,,,,,,,,,,,,-0.010309278,-0.428865979,0,0,0,,,,,,,CHAIN,C,z,m,./images/CHAIN.png,,,,,,,,,,,,,,,,,,,,,,z,1,0.2467,,,,,,,,0,8,8,126,1
,,,,,,,,,,,,,,,,,58c38ef58158840001b5c230,34,2022-02-12_18h17.22.860,lexical_decision_task_DD,2021.2.3,Win32,142.6533524,,,,,,,,,,,0.1364,1,,,,,,,,,,,,,,,,,,,,,,,,-0.010309278,-0.428865979,0,0,0,,,,,,,BEARD,LB,m,m,./images/BEARDLB.png,,,,,,,,,,,,,,,,,,,,,,m,1,0.1364,,,,,,,,0,9,9,2,1
,,,,,,,,,,,,,,,,,58c38ef58158840001b5c230,34,2022-02-12_18h17.22.860,lexical_decision_task_DD,2021.2.3,Win32,142.6533524,,,,,,,,,,,0.1508,1,,,,,,,,,,,,,,,,,,,,,,,,-0.010309278,-0.428865979,0,0,0,,,,,,,TOMATO,C,m,m,./images/TOMATO.png,,,,,,,,,,,,,,,,,,,,,,m,1,0.1508,,,,,,,,0,10,10,0,1
,,,,,,,,,,,,,,,,,58c38ef58158840001b5c230,34,2022-02-12_18h17.22.860,lexical_decision_task_DD,2021.2.3,Win32,142.6533524,,,,,,,,,,,0.0965,1,,,,,,,,,,,,,,,,,,,,,,,,-0.010309278,-0.428865979,0,0,0,,,,,,,KIDNEY,C,m,m,./images/KIDNEY.png,,,,,,,,,,,,,,,,,,,,,,m,1,0.0965,,,,,,,,0,11,11,21,1
,,,,,,,,,,,,,,,,,58c38ef58158840001b5c230,34,2022-02-12_18h17.22.860,lexical_decision_task_DD,2021.2.3,Win32,142.6533524,,,,,,,,,,,0.1387,0,,,,,,,,,,,,,,,,,,,,,,,,-0.010309278,-0.428865979,0,0,0,,,,,,,SNACK,HB,m,m,./images/SNACKHB.png,,,,,,,,,,,,,,,,,,,,,,z,0,0.1387,,,,,,,,0,12,12,73,1
,,,,,,,,,,,,,,,,,58c38ef58158840001b5c230,34,2022-02-12_18h17.22.860,lexical_decision_task_DD,2021.2.3,Win32,142.6533524,,,,,,,,,,,3.3341,0,,,,,,,,,,,,,,,,,,,,,,,,-0.010309278,-0.428865979,0,0,0,,,,,,,ATTIC,C,m,m,./images/ATTIC.png,,,,,,,,,,,,,,,,,,,,,,z,0,3.3341,,,,,,,,0,13,13,27,1
,,,,,,,,,,,,,,,,,58c38ef58158840001b5c230,34,2022-02-12_18h17.22.860,lexical_decision_task_DD,2021.2.3,Win32,142.6533524,,,,,,,,,,,0.1539,0,,,,,,,,,,,,,,,,,,,,,,,,-0.010309278,-0.428865979,0,0,0,,,,,,,PLANK,HB,m,m,./images/PLANKHB.png,,,,,,,,,,,,,,,,,,,,,,z,0,0.1539,,,,,,,,0,14,14,1,1
,,,,,,,,,,,,,,,,,58c38ef58158840001b5c230,34,2022-02-12_18h17.22.860,lexical_decision_task_DD,2021.2.3,Win32,142.6533524,,,,,,,,,,,0.0511,1,,,,,,,,,,,,,,,,,,,,,,,,-0.010309278,-0.428865979,0,0,0,,,,,,,FENCE,LB,z,m,./images/FENCELB.png,,,,,,,,,,,,,,,,,,,,,,z,1,0.0511,,,,,,,,0,15,15,98,1
,,,,,,,,,,,,,,,,,58c38ef58158840001b5c230,34,2022-02-12_18h17.22.860,lexical_decision_task_DD,2021.2.3,Win32,142.6533524,,,,,,,,,,,0.063,1,,,,,,,,,,,,,,,,,,,,,,,,-0.010309278,-0.428865979,0,0,0,,,,,,,RAZOR,HB,z,m,./images/RAZORHB.png,,,,,,,,,,,,,,,,,,,,,,z,1,0.063,,,,,,,,0,16,16,118,1
,,,,,,,,,,,,,,,,,58c38ef58158840001b5c230,34,2022-02-12_18h17.22.860,lexical_decision_task_DD,2021.2.3,Win32,142.6533524,,,,,,,,,,,0.0561,0,,,,,,,,,,,,,,,,,,,,,,,,-0.010309278,-0.428865979,0,0,0,,,,,,,PILOT,LB,z,m,./images/PILOTLB.png,,,,,,,,,,,,,,,,,,,,,,m,0,0.0561,,,,,,,,0,17,17,134,1
,,,,,,,,,,,,,,,,,58c38ef58158840001b5c230,34,2022-02-12_18h17.22.860,lexical_decision_task_DD,2021.2.3,Win32,142.6533524,,,,,,,,,,,0.0947,0,,,,,,,,,,,,,,,,,,,,,,,,-0.010309278,-0.428865979,0,0,0,,,,,,,SAUNA,C,z,m,./images/SAUNA.png,,,,,,,,,,,,,,,,,,,,,,m,0,0.0947,,,,,,,,0,18,18,117,1
,,,,,,,,,,,,,,,,,58c38ef58158840001b5c230,34,2022-02-12_18h17.22.860,lexical_decision_task_DD,2021.2.3,Win32,142.6533524,,,,,,,,,,,0.044,1,,,,,,,,,,,,,,,,,,,,,,,,-0.010309278,-0.428865979,0,0,0,,,,,,,BASKET,LB,z,m,./images/BASKETLB.png,,,,,,,,,,,,,,,,,,,,,,z,1,0.044,,,,,,,,0,19,19,128,1
,,,,,,,,,,,,,,,,,58c38ef58158840001b5c230,34,2022-02-12_18h17.22.860,lexical_decision_task_DD,2021.2.3,Win32,142.6533524,,,,,,,,,,,0.2211,1,,,,,,,,,,,,,,,,,,,,,,,,-0.010309278,-0.428865979,0,0,0,,,,,,,DOUGH,HB,m,m,./images/DOUGHHB.png,,,,,,,,,,,,,,,,,,,,,,m,1,0.2211,,,,,,,,0,20,20,19,1
,,,,,,,,,,,,,,,,,58c38ef58158840001b5c230,34,2022-02-12_18h17.22.860,lexical_decision_task_DD,2021.2.3,Win32,142.6533524,,,,,,,,,,,0.1787,1,,,,,,,,,,,,,,,,,,,,,,,,-0.010309278,-0.428865979,0,0,0,,,,,,,BIRTH,HB,m,m,./images/BIRTHHB.png,,,,,,,,,,,,,,,,,,,,,,m,1,0.1787,,,,,,,,0,21,21,37,1
,,,,,,,,,,,,,,,,,58c38ef58158840001b5c230,34,2022-02-12_18h17.22.860,lexical_decision_task_DD,2021.2.3,Win32,142.6533524,,,,,,,,,,,0.1247,1,,,,,,,,,,,,,,,,,,,,,,,,-0.010309278,-0.428865979,0,0,0,,,,,,,WHISKY,LB,z,m,./images/WHISKYLB.png,,,,,,,,,,,,,,,,,,,,,,z,1,0.1247,,,,,,,,0,22,22,167,1
,,,,,,,,,,,,,,,,,58c38ef58158840001b5c230,34,2022-02-12_18h17.22.860,lexical_decision_task_DD,2021.2.3,Win32,142.6533524,,,,,,,,,,,0.1896,0,,,,,,,,,,,,,,,,,,,,,,,,-0.010309278,-0.428865979,0,0,0,,,,,,,JAGUAR,C,m,m,./images/JAGUAR.png,,,,,,,,,,,,,,,,,,,,,,z,0,0.1896,,,,,,,,0,23,23,18,1
,,,,,,,,,,,,,,,,,58c38ef58158840001b5c230,34,2022-02-12_18h17.22.860,lexical_decision_task_DD,2021.2.3,Win32,142.6533524,,,,,,,,,,,0.0445,0,,,,,,,,,,,,,,,,,,,,,,,,-0.010309278,-0.428865979,0,0,0,,,,,,,CANDLE,HB,m,m,./images/CANDLEHB.png,,,,,,,,,,,,,,,,,,,,,,z,0,0.0445,,,,,,,,0,24,24,61,1
,,,,,,,,,,,,,,,,,58c38ef58158840001b5c230,34,2022-02-12_18h17.22.860,lexical_decision_task_DD,2021.2.3,Win32,142.6533524,,,,,,,,,,,0.0858,0,,,,,,,,,,,,,,,,,,,,,,,,-0.010309278,-0.428865979,0,0,0,,,,,,,SWEAT,C,m,m,./images/SWEAT.png,,,,,,,,,,,,,,,,,,,,,,z,0,0.0858,,,,,,,,0,25,25,66,1
,,,,,,,,,,,,,,,,,58c38ef58158840001b5c230,34,2022-02-12_18h17.22.860,lexical_decision_task_DD,2021.2.3,Win32,142.6533524,,,,,,,,,,,0.0926,1,,,,,,,,,,,,,,,,,,,,,,,,-0.010309278,-0.428865979,0,0,0,,,,,,,SQUARE,C,m,m,./images/SQUARE.png,,,,,,,,,,,,,,,,,,,,,,m,1,0.0926,,,,,,,,0,26,26,6,1
,,,,,,,,,,,,,,,,,58c38ef58158840001b5c230,34,2022-02-12_18h17.22.860,lexical_decision_task_DD,2021.2.3,Win32,142.6533524,,,,,,,,,,,0.0118,1,,,,,,,,,,,,,,,,,,,,,,,,-0.010309278,-0.428865979,0,0,0,,,,,,,CANYON,HB,m,m,./images/CANYONHB.png,,,,,,,,,,,,,,,,,,,,,,m,1,0.0118,,,,,,,,0,27,27,34,1
,,,,,,,,,,,,,,,,,58c38ef58158840001b5c230,34,2022-02-12_18h17.22.860,lexical_decision_task_DD,2021.2.3,Win32,142.6533524,,,,,,,,,,,0.0101,0,,,,,,,,,,,,,,,,,,,,,,,,-0.010309278,-0.428865979,0,0,0,,,,,,,BUTTER,C,z,m,./images/BUTTER.png,,,,,,,,,,,,,,,,,,,,,,m,0,0.0101,,,,,,,,0,28,28,111,1
,,,,,,,,,,,,,,,,,58c38ef58158840001b5c230,34,2022-02-12_18h17.22.860,lexical_decision_task_DD,2021.2.3,Win32,142.6533524,,,,,,,,,,,0.0157,0,,,,,,,,,,,,,,,,,,,,,,,,-0.010309278,-0.428865979,0,0,0,,,,,,,SUNSET,HB,m,m,./images/SUNSETHB.png,,,,,,,,,,,,,,,,,,,,,,z,0,0.0157,,,,,,,,0,29,29,82,1
,,,,,,,,,,,,,,,,,58c38ef58158840001b5c230,34,2022-02-12_18h17.22.860,lexical_decision_task_DD,2021.2.3,Win32,142.6533524,,,,,,,,,,,0.0492,0,,,,,,,,,,,,,,,,,,,,,,,,-0.010309278,-0.428865979,0,0,0,,,,,,,SPINE,LB,z,m,./images/SPINELB.png,,,,,,,,,,,,,,,,,,,,,,m,0,0.0492,,,,,,,,0,30,30,149,1
,,,,,,,,,,,,,,,,,58c38ef58158840001b5c230,34,2022-02-12_18h17.22.860,lexical_decision_task_DD,2021.2.3,Win32,142.6533524,,,,,,,,,,,0.2739,1,,,,,,,,,,,,,,,,,,,,,,,,-0.010309278,-0.428865979,0,0,0,,,,,,,WAGON,HB,z,m,./images/WAGONHB.png,,,,,,,,,,,,,,,,,,,,,,z,1,0.2739,,,,,,,,0,31,31,91,1
,,,,,,,,,,,,,,,,,58c38ef58158840001b5c230,34,2022-02-12_18h17.22.860,lexical_decision_task_DD,2021.2.3,Win32,142.6533524,,,,,,,,,,,0.212,0,,,,,,,,,,,,,,,,,,,,,,,,-0.010309278,-0.428865979,0,0,0,,,,,,,DRUMS,HB,m,m,./images/DRUMSHB.png,,,,,,,,,,,,,,,,,,,,,,z,0,0.212,,,,,,,,0,32,32,49,1
,,,,,,,,,,,,,,,,,58c38ef58158840001b5c230,34,2022-02-12_18h17.22.860,lexical_decision_task_DD,2021.2.3,Win32,142.6533524,,,,,,,,,,,0.1193,1,,,,,,,,,,,,,,,,,,,,,,,,-0.010309278,-0.428865979,0,0,0,,,,,,,INFANT,HB,m,m,./images/INFANTHB.png,,,,,,,,,,,,,,,,,,,,,,m,1,0.1193,,,,,,,,0,33,33,76,1
,,,,,,,,,,,,,,,,,58c38ef58158840001b5c230,34,2022-02-12_18h17.22.860,lexical_decision_task_DD,2021.2.3,Win32,142.6533524,,,,,,,,,,,0.0835,0,,,,,,,,,,,,,,,,,,,,,,,,-0.010309278,-0.428865979,0,0,0,,,,,,,ENGINE,LB,z,m,./images/ENGINELB.png,,,,,,,,,,,,,,,,,,,,,,m,0,0.0835,,,,,,,,0,34,34,122,1
,,,,,,,,,,,,,,,,,58c38ef58158840001b5c230,34,2022-02-12_18h17.22.860,lexical_decision_task_DD,2021.2.3,Win32,142.6533524,,,,,,,,,,,0.2035,1,,,,,,,,,,,,,,,,,,,,,,,,-0.010309278,-0.428865979,0,0,0,,,,,,,TULIP,LB,m,m,./images/TULIPLB.png,,,,,,,,,,,,,,,,,,,,,,m,1,0.2035,,,,,,,,0,35,35,8,1
,,,,,,,,,,,,,,,,,58c38ef58158840001b5c230,34,2022-02-12_18h17.22.860,lexical_decision_task_DD,2021.2.3,Win32,142.6533524,,,,,,,,,,,0.0703,0,,,,,,,,,,,,,,,,,,,,,,,,-0.010309278,-0.428865979,0,0,0,,,,,,,CLOUD,LB,z,m,./images/CLOUDLB.png,,,,,,,,,,,,,,,,,,,,,,m,0,0.0703,,,,,,,,0,36,36,110,1
,,,,,,,,,,,,,,,,,58c38ef58158840001b5c230,34,2022-02-12_18h17.22.860,lexical_decision_task_DD,2021.2.3,Win32,142.6533524,,,,,,,,,,,0.236,1,,,,,,,,,,,,,,,,,,,,,,,,-0.010309278,-0.428865979,0,0,0,,,,,,,CANDY,C,z,m,./images/CANDY.png,,,,,,,,,,,,,,,,,,,,,,z,1,0.236,,,,,,,,0,37,37,123,1
,,,,,,,,,,,,,,,,,58c38ef58158840001b5c230,34,2022-02-12_18h17.22.860,lexical_decision_task_DD,2021.2.3,Win32,142.6533524,,,,,,,,,,,0.1359,1,,,,,,,,,,,,,,,,,,,,,,,,-0.010309278,-0.428865979,0,0,0,,,,,,,TOWEL,HB,z,m,./images/TOWELHB.png,,,,,,,,,,,,,,,,,,,,,,z,1,0.1359,,,,,,,,0,38,38,85,1
,,,,,,,,,,,,,,,,,58c38ef58158840001b5c230,34,2022-02-12_18h17.22.860,lexical_decision_task_DD,2021.2.3,Win32,142.6533524,,,,,,,,,,,0.0519,0,,,,,,,,,,,,,,,,,,,,,,,,-0.010309278,-0.428865979,0,0,0,,,,,,,BRUSH,LB,z,m,./images/BRUSHLB.png,,,,,,,,,,,,,,,,,,,,,,m,0,0.0519,,,,,,,,0,39,39,143,1
,,,,,,,,,,,,,,,,,58c38ef58158840001b5c230,34,2022-02-12_18h17.22.860,lexical_decision_task_DD,2021.2.3,Win32,142.6533524,,,,,,,,,,,0.0553,1,,,,,,,,,,,,,,,,,,,,,,,,-0.010309278,-0.428865979,0,0,0,,,,,,,SKIING,LB,m,m,./images/SKIINGLB.png,,,,,,,,,,,,,,,,,,,,,,m,1,0.0553,,,,,,,,0,40,40,17,1
,,,,,,,,,,,,,,,,,58c38ef58158840001b5c230,34,2022-02-12_18h17.22.860,lexical_decision_task_DD,2021.2.3,Win32,142.6533524,,,,,,,,,,,0.0017,0,,,,,,,,,,,,,,,,,,,,,,,,-0.010309278,-0.428865979,0,0,0,space,,,,,,MIRROR,C,m,m,./images/MIRROR.png,2.6403,,,,,,,,,,,,,,,,,,,,,z,0,0.0017,,,,,,,,0,41,41,63,1
,,,,,,,,,,,,,,,,,58c38ef58158840001b5c230,34,2022-02-12_18h17.22.860,lexical_decision_task_DD,2021.2.3,Win32,142.6533524,,,,,,,,,,,0.0384,0,,,,,,,,,,,,,,,,,,,,,,,,-0.010309278,-0.428865979,0,0,0,,,,,,,SWING,HB,m,m,./images/SWINGHB.png,,,,,,,,,,,,,,,,,,,,,,z,0,0.0384,,,,,,,,0,42,42,40,1
,,,,,,,,,,,,,,,,,58c38ef58158840001b5c230,34,2022-02-12_18h17.22.860,lexical_decision_task_DD,2021.2.3,Win32,142.6533524,,,,,,,,,,,0.3034,1,,,,,,,,,,,,,,,,,,,,,,,,-0.010309278,-0.428865979,0,0,0,,,,,,,LAGOON,LB,z,m,./images/LAGOONLB.png,,,,,,,,,,,,,,,,,,,,,,z,1,0.3034,,,,,,,,0,43,43,131,1
,,,,,,,,,,,,,,,,,58c38ef58158840001b5c230,34,2022-02-12_18h17.22.860,lexical_decision_task_DD,2021.2.3,Win32,142.6533524,,,,,,,,,,,0.3087,0,,,,,,,,,,,,,,,,,,,,,,,,-0.010309278,-0.428865979,0,0,0,,,,,,,CRADLE,LB,m,m,./images/CRADLELB.png,,,,,,,,,,,,,,,,,,,,,,z,0,0.3087,,,,,,,,0,44,44,20,1
,,,,,,,,,,,,,,,,,58c38ef58158840001b5c230,34,2022-02-12_18h17.22.860,lexical_decision_task_DD,2021.2.3,Win32,142.6533524,,,,,,,,,,,0.8057,0,,,,,,,,,,,,,,,,,,,,,,,,-0.010309278,-0.428865979,0,0,0,,,,,,,GRAIN,C,m,m,./images/GRAIN.png,,,,,,,,,,,,,,,,,,,,,,z,0,0.8057,,,,,,,,0,45,45,75,1
,,,,,,,,,,,,,,,,,58c38ef58158840001b5c230,34,2022-02-12_18h17.22.860,lexical_decision_task_DD,2021.2.3,Win32,142.6533524,,,,,,,,,,,1.0951,0,,,,,,,,,,,,,,,,,,,,,,,,-0.010309278,-0.428865979,0,0,0,,,,,,,STEAK,HB,z,m,./images/STEAKHB.png,,,,,,,,,,,,,,,,,,,,,,m,0,1.0951,,,,,,,,0,46,46,115,1
,,,,,,,,,,,,,,,,,58c38ef58158840001b5c230,34,2022-02-12_18h17.22.860,lexical_decision_task_DD,2021.2.3,Win32,142.6533524,,,,,,,,,,,1.0734,1,,,,,,,,,,,,,,,,,,,,,,,,-0.010309278,-0.428865979,0,0,0,,,,,,,CLOWN,HB,z,m,./images/CLOWNHB.png,,,,,,,,,,,,,,,,,,,,,,z,1,1.0734,,,,,,,,0,47,47,106,1
,,,,,,,,,,,,,,,,,58c38ef58158840001b5c230,34,2022-02-12_18h17.22.860,lexical_decision_task_DD,2021.2.3,Win32,142.6533524,,,,,,,,,,,0.196,0,,,,,,,,,,,,,,,,,,,,,,,,-0.010309278,-0.428865979,0,0,0,,,,,,,TRIPOD,C,m,m,./images/TRIPOD.png,,,,,,,,,,,,,,,,,,,,,,z,0,0.196,,,,,,,,0,48,48,54,1
,,,,,,,,,,,,,,,,,58c38ef58158840001b5c230,34,2022-02-12_18h17.22.860,lexical_decision_task_DD,2021.2.3,Win32,142.6533524,,,,,,,,,,,0.4653,1,,,,,,,,,,,,,,,,,,,,,,,,-0.010309278,-0.428865979,0,0,0,,,,,,,GARDEN,HB,z,m,./images/GARDENHB.png,,,,,,,,,,,,,,,,,,,,,,z,1,0.4653,,,,,,,,0,49,49,94,1
,,,,,,,,,,,,,,,,,58c38ef58158840001b5c230,34,2022-02-12_18h17.22.860,lexical_decision_task_DD,2021.2.3,Win32,142.6533524,,,,,,,,,,,0.2735,1,,,,,,,,,,,,,,,,,,,,,,,,-0.010309278,-0.428865979,0,0,0,,,,,,,COUCH,LB,m,m,./images/COUCHLB.png,,,,,,,,,,,,,,,,,,,,,,m,1,0.2735,,,,,,,,0,50,50,77,1
,,,,,,,,,,,,,,,,,58c38ef58158840001b5c230,34,2022-02-12_18h17.22.860,lexical_decision_task_DD,2021.2.3,Win32,142.6533524,,,,,,,,,,,0.1107,1,,,,,,,,,,,,,,,,,,,,,,,,-0.010309278,-0.428865979,0,0,0,,,,,,,SAILOR,HB,m,m,./images/SAILORHB.png,,,,,,,,,,,,,,,,,,,,,,m,1,0.1107,,,,,,,,0,51,51,67,1
,,,,,,,,,,,,,,,,,58c38ef58158840001b5c230,34,2022-02-12_18h17.22.860,lexical_decision_task_DD,2021.2.3,Win32,142.6533524,,,,,,,,,,,0.217,0,,,,,,,,,,,,,,,,,,,,,,,,-0.010309278,-0.428865979,0,0,0,,,,,,,ALLEY,HB,z,m,./images/ALLEYHB.png,,,,,,,,,,,,,,,,,,,,,,m,0,0.217,,,,,,,,0,52,52,139,1
,,,,,,,,,,,,,,,,,58c38ef58158840001b5c230,34,2022-02-12_18h17.22.860,lexical_decision_task_DD,2021.2.3,Win32,142.6533524,,,,,,,,,,,1.0071,1,,,,,,,,,,,,,,,,,,,,,,,,-0.010309278,-0.428865979,0,0,0,,,,,,,PEACH,LB,m,m,./images/PEACHLB.png,,,,,,,,,,,,,,,,,,,,,,m,1,1.0071,,,,,,,,0,53,53,35,1
,,,,,,,,,,,,,,,,,58c38ef58158840001b5c230,34,2022-02-12_18h17.22.860,lexical_decision_task_DD,2021.2.3,Win32,142.6533524,,,,,,,,,,,0.2449,0,,,,,,,,,,,,,,,,,,,,,,,,-0.010309278,-0.428865979,0,0,0,,,,,,,RHINO,C,m,m,./images/RHINO.png,,,,,,,,,,,,,,,,,,,,,,z,0,0.2449,,,,,,,,0,54,54,9,1
,,,,,,,,,,,,,,,,,58c38ef58158840001b5c230,34,2022-02-12_18h17.22.860,lexical_decision_task_DD,2021.2.3,Win32,142.6533524,,,,,,,,,,,0.1383,0,,,,,,,,,,,,,,,,,,,,,,,,-0.010309278,-0.428865979,0,0,0,,,,,,,STORM,C,m,m,./images/STORM.png,,,,,,,,,,,,,,,,,,,,,,z,0,0.1383,,,,,,,,0,55,55,30,1
,,,,,,,,,,,,,,,,,58c38ef58158840001b5c230,34,2022-02-12_18h17.22.860,lexical_decision_task_DD,2021.2.3,Win32,142.6533524,,,,,,,,,,,0.2005,0,,,,,,,,,,,,,,,,,,,,,,,,-0.010309278,-0.428865979,0,0,0,,,,,,,PEARL,HB,m,m,./images/PEARLHB.png,,,,,,,,,,,,,,,,,,,,,,z,0,0.2005,,,,,,,,0,56,56,46,1
,,,,,,,,,,,,,,,,,58c38ef58158840001b5c230,34,2022-02-12_18h17.22.860,lexical_decision_task_DD,2021.2.3,Win32,142.6533524,,,,,,,,,,,1.0793,0,,,,,,,,,,,,,,,,,,,,,,,,-0.010309278,-0.428865979,0,0,0,,,,,,,BAKER,C,z,m,./images/BAKER.png,,,,,,,,,,,,,,,,,,,,,,m,0,1.0793,,,,,,,,0,57,57,147,1
,,,,,,,,,,,,,,,,,58c38ef58158840001b5c230,34,2022-02-12_18h17.22.860,lexical_decision_task_DD,2021.2.3,Win32,142.6533524,,,,,,,,,,,1.1186,1,,,,,,,,,,,,,,,,,,,,,,,,-0.010309278,-0.428865979,0,0,0,,,,,,,FLESH,C,z,m,./images/FLESH.png,,,,,,,,,,,,,,,,,,,,,,z,1,1.1186,,,,,,,,0,58,58,108,1
,,,,,,,,,,,,,,,,,58c38ef58158840001b5c230,34,2022-02-12_18h17.22.860,lexical_decision_task_DD,2021.2.3,Win32,142.6533524,,,,,,,,,,,0.4276,1,,,,,,,,,,,,,,,,,,,,,,,,-0.010309278,-0.428865979,0,0,0,,,,,,,VALLEY,LB,z,m,./images/VALLEYLB.png,,,,,,,,,,,,,,,,,,,,,,z,1,0.4276,,,,,,,,0,59,59,152,1
,,,,,,,,,,,,,,,,,58c38ef58158840001b5c230,34,2022-02-12_18h17.22.860,lexical_decision_task_DD,2021.2.3,Win32,142.6533524,,,,,,,,,,,1.154,0,,,,,,,,,,,,,,,,,,,,,,,,-0.010309278,-0.428865979,0,0,0,,,,,,,MOOSE,C,m,m,./images/MOOSE.png,,,,,,,,,,,,,,,,,,,,,,z,0,1.154,,,,,,,,0,60,60,57,1
,,,,,,,,,,,,,,,,,58c38ef58158840001b5c230,34,2022-02-12_18h17.22.860,lexical_decision_task_DD,2021.2.3,Win32,142.6533524,,,,,,,,,,,0.3508,1,,,,,,,,,,,,,,,,,,,,,,,,-0.010309278,-0.428865979,0,0,0,,,,,,,CRUST,HB,m,m,./images/CRUSTHB.png,,,,,,,,,,,,,,,,,,,,,,m,1,0.3508,,,,,,,,0,61,61,79,1
,,,,,,,,,,,,,,,,,58c38ef58158840001b5c230,34,2022-02-12_18h17.22.860,lexical_decision_task_DD,2021.2.3,Win32,142.6533524,,,,,,,,,,,0.0897,0,,,,,,,,,,,,,,,,,,,,,,,,-0.010309278,-0.428865979,0,0,0,,,,,,,STAIN,C,z,m,./images/STAIN.png,,,,,,,,,,,,,,,,,,,,,,m,0,0.0897,,,,,,,,0,62,62,90,1
,,,,,,,,,,,,,,,,,58c38ef58158840001b5c230,34,2022-02-12_18h17.22.860,lexical_decision_task_DD,2021.2.3,Win32,142.6533524,,,,,,,,,,,0.3125,1,,,,,,,,,,,,,,,,,,,,,,,,-0.010309278,-0.428865979,0,0,0,,,,,,,THROAT,C,m,m,./images/THROAT.png,,,,,,,,,,,,,,,,,,,,,,m,1,0.3125,,,,,,,,0,63,63,36,1
,,,,,,,,,,,,,,,,,58c38ef58158840001b5c230,34,2022-02-12_18h17.22.860,lexical_decision_task_DD,2021.2.3,Win32,142.6533524,,,,,,,,,,,0.0721,0,,,,,,,,,,,,,,,,,,,,,,,,-0.010309278,-0.428865979,0,0,0,,,,,,,BUBBLE,LB,z,m,./images/BUBBLELB.png,,,,,,,,,,,,,,,,,,,,,,m,0,0.0721,,,,,,,,0,64,64,155,1
,,,,,,,,,,,,,,,,,58c38ef58158840001b5c230,34,2022-02-12_18h17.22.860,lexical_decision_task_DD,2021.2.3,Win32,142.6533524,,,,,,,,,,,0.1207,1,,,,,,,,,,,,,,,,,,,,,,,,-0.010309278,-0.428865979,0,0,0,,,,,,,WALNUT,C,z,m,./images/WALNUT.png,,,,,,,,,,,,,,,,,,,,,,z,1,0.1207,,,,,,,,0,65,65,84,1
,,,,,,,,,,,,,,,,,58c38ef58158840001b5c230,34,2022-02-12_18h17.22.860,lexical_decision_task_DD,2021.2.3,Win32,142.6533524,,,,,,,,,,,0.1905,1,,,,,,,,,,,,,,,,,,,,,,,,-0.010309278,-0.428865979,0,0,0,,,,,,,HAMMER,C,z,m,./images/HAMMER.png,,,,,,,,,,,,,,,,,,,,,,z,1,0.1905,,,,,,,,0,66,66,159,1
,,,,,,,,,,,,,,,,,58c38ef58158840001b5c230,34,2022-02-12_18h17.22.860,lexical_decision_task_DD,2021.2.3,Win32,142.6533524,,,,,,,,,,,0.1151,1,,,,,,,,,,,,,,,,,,,,,,,,-0.010309278,-0.428865979,0,0,0,,,,,,,FLASK,C,z,m,./images/FLASK.png,,,,,,,,,,,,,,,,,,,,,,z,1,0.1151,,,,,,,,0,67,67,156,1
,,,,,,,,,,,,,,,,,58c38ef58158840001b5c230,34,2022-02-12_18h17.22.860,lexical_decision_task_DD,2021.2.3,Win32,142.6533524,,,,,,,,,,,1.1864,0,,,,,,,,,,,,,,,,,,,,,,,,-0.010309278,-0.428865979,0,0,0,,,,,,,PEBBLE,HB,z,m,./images/PEBBLEHB.png,,,,,,,,,,,,,,,,,,,,,,m,0,1.1864,,,,,,,,0,68,68,166,1
,,,,,,,,,,,,,,,,,58c38ef58158840001b5c230,34,2022-02-12_18h17.22.860,lexical_decision_task_DD,2021.2.3,Win32,142.6533524,,,,,,,,,,,0.223,1,,,,,,,,,,,,,,,,,,,,,,,,-0.010309278,-0.428865979,0,0,0,,,,,,,DESERT,HB,z,m,./images/DESERTHB.png,,,,,,,,,,,,,,,,,,,,,,z,1,0.223,,,,,,,,0,69,69,136,1
,,,,,,,,,,,,,,,,,58c38ef58158840001b5c230,34,2022-02-12_18h17.22.860,lexical_decision_task_DD,2021.2.3,Win32,142.6533524,,,,,,,,,,,0.2583,1,,,,,,,,,,,,,,,,,,,,,,,,-0.010309278,-0.428865979,0,0,0,,,,,,,SNAKE,HB,z,m,./images/SNAKEHB.png,,,,,,,,,,,,,,,,,,,,,,z,1,0.2583,,,,,,,,0,70,70,124,1
,,,,,,,,,,,,,,,,,58c38ef58158840001b5c230,34,2022-02-12_18h17.22.860,lexical_decision_task_DD,2021.2.3,Win32,142.6533524,,,,,,,,,,,0.3961,1,,,,,,,,,,,,,,,,,,,,,,,,-0.010309278,-0.428865979,0,0,0,,,,,,,DRILL,C,z,m,./images/DRILL.png,,,,,,,,,,,,,,,,,,,,,,z,1,0.3961,,,,,,,,0,71,71,165,1
,,,,,,,,,,,,,,,,,58c38ef58158840001b5c230,34,2022-02-12_18h17.22.860,lexical_decision_task_DD,2021.2.3,Win32,142.6533524,,,,,,,,,,,0.3478,0,,,,,,,,,,,,,,,,,,,,,,,,-0.010309278,-0.428865979,0,0,0,,,,,,,BANANA,HB,z,m,./images/BANANAHB.png,,,,,,,,,,,,,,,,,,,,,,m,0,0.3478,,,,,,,,0,72,72,154,1
,,,,,,,,,,,,,,,,,58c38ef58158840001b5c230,34,2022-02-12_18h17.22.860,lexical_decision_task_DD,2021.2.3,Win32,142.6533524,,,,,,,,,,,0.3035,0,,,,,,,,,,,,,,,,,,,,,,,,-0.010309278,-0.428865979,0,0,0,,,,,,,JUNGLE,LB,m,m,./images/JUNGLELB.png,,,,,,,,,,,,,,,,,,,,,,z,0,0.3035,,,,,,,,0,73,73,83,1
,,,,,,,,,,,,,,,,,58c38ef58158840001b5c230,34,2022-02-12_18h17.22.860,lexical_decision_task_DD,2021.2.3,Win32,142.6533524,,,,,,,,,,,0.1251,0,,,,,,,,,,,,,,,,,,,,,,,,-0.010309278,-0.428865979,0,0,0,,,,,,,FOLDER,C,m,m,./images/FOLDER.png,,,,,,,,,,,,,,,,,,,,,,z,0,0.1251,,,,,,,,0,74,74,42,1
,,,,,,,,,,,,,,,,,58c38ef58158840001b5c230,34,2022-02-12_18h17.22.860,lexical_decision_task_DD,2021.2.3,Win32,142.6533524,,,,,,,,,,,0.1432,1,,,,,,,,,,,,,,,,,,,,,,,,-0.010309278,-0.428865979,0,0,0,,,,,,,CLOTH,LB,z,m,./images/CLOTHLB.png,,,,,,,,,,,,,,,,,,,,,,z,1,0.1432,,,,,,,,0,75,75,107,1
,,,,,,,,,,,,,,,,,58c38ef58158840001b5c230,34,2022-02-12_18h17.22.860,lexical_decision_task_DD,2021.2.3,Win32,142.6533524,,,,,,,,,,,0.1616,1,,,,,,,,,,,,,,,,,,,,,,,,-0.010309278,-0.428865979,0,0,0,,,,,,,CEMENT,LB,m,m,./images/CEMENTLB.png,,,,,,,,,,,,,,,,,,,,,,m,1,0.1616,,,,,,,,0,76,76,74,1
,,,,,,,,,,,,,,,,,58c38ef58158840001b5c230,34,2022-02-12_18h17.22.860,lexical_decision_task_DD,2021.2.3,Win32,142.6533524,,,,,,,,,,,0.3986,0,,,,,,,,,,,,,,,,,,,,,,,,-0.010309278,-0.428865979,0,0,0,,,,,,,BROOM,C,z,m,./images/BROOM.png,,,,,,,,,,,,,,,,,,,,,,m,0,0.3986,,,,,,,,0,77,77,162,1
,,,,,,,,,,,,,,,,,58c38ef58158840001b5c230,34,2022-02-12_18h17.22.860,lexical_decision_task_DD,2021.2.3,Win32,142.6533524,,,,,,,,,,,0.2167,1,,,,,,,,,,,,,,,,,,,,,,,,-0.010309278,-0.428865979,0,0,0,,,,,,,CANOE,HB,z,m,./images/CANOEHB.png,,,,,,,,,,,,,,,,,,,,,,z,1,0.2167,,,,,,,,0,78,78,142,1
,,,,,,,,,,,,,,,,,58c38ef58158840001b5c230,34,2022-02-12_18h17.22.860,lexical_decision_task_DD,2021.2.3,Win32,142.6533524,,,,,,,,,,,0.1597,1,,,,,,,,,,,,,,,,,,,,,,,,-0.010309278,-0.428865979,0,0,0,,,,,,,BUNNY,HB,z,m,./images/BUNNYHB.png,,,,,,,,,,,,,,,,,,,,,,z,1,0.1597,,,,,,,,0,79,79,97,1
,,,,,,,,,,,,,,,,,58c38ef58158840001b5c230,34,2022-02-12_18h17.22.860,lexical_decision_task_DD,2021.2.3,Win32,142.6533524,,,,,,,,,,,0.3263,0,,,,,,,,,,,,,,,,,,,,,,,,-0.010309278,-0.428865979,0,0,0,,,,,,,PURSE,LB,m,m,./images/PURSELB.png,,,,,,,,,,,,,,,,,,,,,,z,0,0.3263,,,,,,,,0,80,80,62,1
,,,,,,,,,,,,,,,,,58c38ef58158840001b5c230,34,2022-02-12_18h17.22.860,lexical_decision_task_DD,2021.2.3,Win32,142.6533524,,,,,,,,,,,0.1941,1,,,,,,,,,,,,,,,,,,,,,,,,-0.010309278,-0.428865979,0,0,0,,,,,,,STREAM,LB,z,m,./images/STREAMLB.png,,,,,,,,,,,,,,,,,,,,,,z,1,0.1941,,,,,,,,0,81,81,125,1
,,,,,,,,,,,,,,,,,58c38ef58158840001b5c230,34,2022-02-12_18h17.22.860,lexical_decision_task_DD,2021.2.3,Win32,142.6533524,,,,,,,,,,,0.0518,1,,,,,,,,,,,,,,,,,,,,,,,,-0.010309278,-0.428865979,0,0,0,,,,,,,BRIDE,HB,z,m,./images/BRIDEHB.png,,,,,,,,,,,,,,,,,,,,,,z,1,0.0518,,,,,,,,0,82,82,148,1
,,,,,,,,,,,,,,,,,58c38ef58158840001b5c230,34,2022-02-12_18h17.22.860,lexical_decision_task_DD,2021.2.3,Win32,142.6533524,,,,,,,,,,,0.1886,0,,,,,,,,,,,,,,,,,,,,,,,,-0.010309278,-0.428865979,0,0,0,space,,,,,,DANCER,C,z,m,./images/DANCER.png,0.7776,,,,,,,,,,,,,,,,,,,,,m,0,0.1886,,,,,,,,0,83,83,105,1
,,,,,,,,,,,,,,,,,58c38ef58158840001b5c230,34,2022-02-12_18h17.22.860,lexical_decision_task_DD,2021.2.3,Win32,142.6533524,,,,,,,,,,,0.0987,0,,,,,,,,,,,,,,,,,,,,,,,,-0.010309278,-0.428865979,0,0,0,,,,,,,HOCKEY,LB,z,m,./images/HOCKEYLB.png,,,,,,,,,,,,,,,,,,,,,,m,0,0.0987,,,,,,,,0,84,84,116,1
,,,,,,,,,,,,,,,,,58c38ef58158840001b5c230,34,2022-02-12_18h17.22.860,lexical_decision_task_DD,2021.2.3,Win32,142.6533524,,,,,,,,,,,0.176,1,,,,,,,,,,,,,,,,,,,,,,,,-0.010309278,-0.428865979,0,0,0,,,,,,,SMOKER,LB,m,m,./images/SMOKERLB.png,,,,,,,,,,,,,,,,,,,,,,m,1,0.176,,,,,,,,0,85,85,26,1
,,,,,,,,,,,,,,,,,58c38ef58158840001b5c230,34,2022-02-12_18h17.22.860,lexical_decision_task_DD,2021.2.3,Win32,142.6533524,,,,,,,,,,,0.2176,0,,,,,,,,,,,,,,,,,,,,,,,,-0.010309278,-0.428865979,0,0,0,,,,,,,STRING,LB,m,m,./images/STRINGLB.png,,,,,,,,,,,,,,,,,,,,,,z,0,0.2176,,,,,,,,0,86,86,41,1
,,,,,,,,,,,,,,,,,58c38ef58158840001b5c230,34,2022-02-12_18h17.22.860,lexical_decision_task_DD,2021.2.3,Win32,142.6533524,,,,,,,,,,,0.0537,0,,,,,,,,,,,,,,,,,,,,,,,,-0.010309278,-0.428865979,0,0,0,,,,,,,PAINT,HB,m,m,./images/PAINTHB.png,,,,,,,,,,,,,,,,,,,,,,z,0,0.0537,,,,,,,,0,87,87,7,1
,,,,,,,,,,,,,,,,,58c38ef58158840001b5c230,34,2022-02-12_18h17.22.860,lexical_decision_task_DD,2021.2.3,Win32,142.6533524,,,,,,,,,,,0.2106,0,,,,,,,,,,,,,,,,,,,,,,,,-0.010309278,-0.428865979,0,0,0,,,,,,,PIMPLE,LB,m,m,./images/PIMPLELB.png,,,,,,,,,,,,,,,,,,,,,,z,0,0.2106,,,,,,,,0,88,88,71,1
,,,,,,,,,,,,,,,,,58c38ef58158840001b5c230,34,2022-02-12_18h17.22.860,lexical_decision_task_DD,2021.2.3,Win32,142.6533524,,,,,,,,,,,0.1222,0,,,,,,,,,,,,,,,,,,,,,,,,-0.010309278,-0.428865979,0,0,0,,,,,,,CHERRY,C,z,m,./images/CHERRY.png,,,,,,,,,,,,,,,,,,,,,,m,0,0.1222,,,,,,,,0,89,89,138,1
,,,,,,,,,,,,,,,,,58c38ef58158840001b5c230,34,2022-02-12_18h17.22.860,lexical_decision_task_DD,2021.2.3,Win32,142.6533524,,,,,,,,,,,0.9055,1,,,,,,,,,,,,,,,,,,,,,,,,-0.010309278,-0.428865979,0,0,0,,,,,,,DIVER,C,z,m,./images/DIVER.png,,,,,,,,,,,,,,,,,,,,,,z,1,0.9055,,,,,,,,0,90,90,93,1
,,,,,,,,,,,,,,,,,58c38ef58158840001b5c230,34,2022-02-12_18h17.22.860,lexical_decision_task_DD,2021.2.3,Win32,142.6533524,,,,,,,,,,,0.3073,0,,,,,,,,,,,,,,,,,,,,,,,,-0.010309278,-0.428865979,0,0,0,,,,,,,BURIAL,LB,m,m,./images/BURIALLB.png,,,,,,,,,,,,,,,,,,,,,,z,0,0.3073,,,,,,,,0,91,91,59,1
,,,,,,,,,,,,,,,,,58c38ef58158840001b5c230,34,2022-02-12_18h17.22.860,lexical_decision_task_DD,2021.2.3,Win32,142.6533524,,,,,,,,,,,0.0535,0,,,,,,,,,,,,,,,,,,,,,,,,-0.010309278,-0.428865979,0,0,0,,,,,,,MOTOR,HB,m,m,./images/MOTORHB.png,,,,,,,,,,,,,,,,,,,,,,z,0,0.0535,,,,,,,,0,92,92,13,1
,,,,,,,,,,,,,,,,,58c38ef58158840001b5c230,34,2022-02-12_18h17.22.860,lexical_decision_task_DD,2021.2.3,Win32,142.6533524,,,,,,,,,,,0.0163,1,,,,,,,,,,,,,,,,,,,,,,,,-0.010309278,-0.428865979,0,0,0,,,,,,,BABOON,HB,m,m,./images/BABOONHB.png,,,,,,,,,,,,,,,,,,,,,,m,1,0.0163,,,,,,,,0,93,93,58,1
,,,,,,,,,,,,,,,,,58c38ef58158840001b5c230,34,2022-02-12_18h17.22.860,lexical_decision_task_DD,2021.2.3,Win32,142.6533524,,,,,,,,,,,0.1134,0,,,,,,,,,,,,,,,,,,,,,,,,-0.010309278,-0.428865979,0,0,0,,,,,,,FERRY,C,z,m,./images/FERRY.png,,,,,,,,,,,,,,,,,,,,,,m,0,0.1134,,,,,,,,0,94,94,141,1
,,,,,,,,,,,,,,,,,58c38ef58158840001b5c230,34,2022-02-12_18h17.22.860,lexical_decision_task_DD,2021.2.3,Win32,142.6533524,,,,,,,,,,,0.2325,0,,,,,,,,,,,,,,,,,,,,,,,,-0.010309278,-0.428865979,0,0,0,,,,,,,CLIFF,LB,z,m,./images/CLIFFLB.png,,,,,,,,,,,,,,,,,,,,,,m,0,0.2325,,,,,,,,0,95,95,92,1
,,,,,,,,,,,,,,,,,58c38ef58158840001b5c230,34,2022-02-12_18h17.22.860,lexical_decision_task_DD,2021.2.3,Win32,142.6533524,,,,,,,,,,,0.1565,0,,,,,,,,,,,,,,,,,,,,,,,,-0.010309278,-0.428865979,0,0,0,,,,,,,SHORE,C,m,m,./images/SHORE.png,,,,,,,,,,,,,,,,,,,,,,z,0,0.1565,,,,,,,,0,96,96,12,1
,,,,,,,,,,,,,,,,,58c38ef58158840001b5c230,34,2022-02-12_18h17.22.860,lexical_decision_task_DD,2021.2.3,Win32,142.6533524,,,,,,,,,,,0.2588,1,,,,,,,,,,,,,,,,,,,,,,,,-0.010309278,-0.428865979,0,0,0,,,,,,,FINGER,C,m,m,./images/FINGER.png,,,,,,,,,,,,,,,,,,,,,,m,1,0.2588,,,,,,,,0,97,97,3,1
,,,,,,,,,,,,,,,,,58c38ef58158840001b5c230,34,2022-02-12_18h17.22.860,lexical_decision_task_DD,2021.2.3,Win32,142.6533524,,,,,,,,,,,0.2179,0,,,,,,,,,,,,,,,,,,,,,,,,-0.010309278,-0.428865979,0,0,0,,,,,,,DONKEY,HB,z,m,./images/DONKEYHB.png,,,,,,,,,,,,,,,,,,,,,,m,0,0.2179,,,,,,,,0,98,98,103,1
,,,,,,,,,,,,,,,,,58c38ef58158840001b5c230,34,2022-02-12_18h17.22.860,lexical_decision_task_DD,2021.2.3,Win32,142.6533524,,,,,,,,,,,0.0699,0,,,,,,,,,,,,,,,,,,,,,,,,-0.010309278,-0.428865979,0,0,0,,,,,,,GLOVE,HB,z,m,./images/GLOVEHB.png,,,,,,,,,,,,,,,,,,,,,,m,0,0.0699,,,,,,,,0,99,99,157,1
,,,,,,,,,,,,,,,,,58c38ef58158840001b5c230,34,2022-02-12_18h17.22.860,lexical_decision_task_DD,2021.2.3,Win32,142.6533524,,,,,,,,,,,0.2559,0,,,,,,,,,,,,,,,,,,,,,,,,-0.010309278,-0.428865979,0,0,0,,,,,,,MUFFIN,HB,m,m,./images/MUFFINHB.png,,,,,,,,,,,,,,,,,,,,,,z,0,0.2559,,,,,,,,0,100,100,55,1
,,,,,,,,,,,,,,,,,58c38ef58158840001b5c230,34,2022-02-12_18h17.22.860,lexical_decision_task_DD,2021.2.3,Win32,142.6533524,,,,,,,,,,,0.1521,0,,,,,,,,,,,,,,,,,,,,,,,,-0.010309278,-0.428865979,0,0,0,,,,,,,MOSQUE,HB,m,m,./images/MOSQUEHB.png,,,,,,,,,,,,,,,,,,,,,,z,0,0.1521,,,,,,,,0,101,101,43,1
,,,,,,,,,,,,,,,,,58c38ef58158840001b5c230,34,2022-02-12_18h17.22.860,lexical_decision_task_DD,2021.2.3,Win32,142.6533524,,,,,,,,,,,0.1199,0,,,,,,,,,,,,,,,,,,,,,,,,-0.010309278,-0.428865979,0,0,0,,,,,,,BONNET,LB,m,m,./images/BONNETLB.png,,,,,,,,,,,,,,,,,,,,,,z,0,0.1199,,,,,,,,0,102,102,11,1
,,,,,,,,,,,,,,,,,58c38ef58158840001b5c230,34,2022-02-12_18h17.22.860,lexical_decision_task_DD,2021.2.3,Win32,142.6533524,,,,,,,,,,,0.1562,0,,,,,,,,,,,,,,,,,,,,,,,,-0.010309278,-0.428865979,0,0,0,,,,,,,COOKER,C,m,m,./images/COOKER.png,,,,,,,,,,,,,,,,,,,,,,z,0,0.1562,,,,,,,,0,103,103,69,1
,,,,,,,,,,,,,,,,,58c38ef58158840001b5c230,34,2022-02-12_18h17.22.860,lexical_decision_task_DD,2021.2.3,Win32,142.6533524,,,,,,,,,,,0.152,1,,,,,,,,,,,,,,,,,,,,,,,,-0.010309278,-0.428865979,0,0,0,,,,,,,BERRY,LB,m,m,./images/BERRYLB.png,,,,,,,,,,,,,,,,,,,,,,m,1,0.152,,,,,,,,0,104,104,47,1
,,,,,,,,,,,,,,,,,58c38ef58158840001b5c230,34,2022-02-12_18h17.22.860,lexical_decision_task_DD,2021.2.3,Win32,142.6533524,,,,,,,,,,,0.0619,1,,,,,,,,,,,,,,,,,,,,,,,,-0.010309278,-0.428865979,0,0,0,,,,,,,BARREL,LB,m,m,./images/BARRELLB.png,,,,,,,,,,,,,,,,,,,,,,m,1,0.0619,,,,,,,,0,105,105,32,1
,,,,,,,,,,,,,,,,,58c38ef58158840001b5c230,34,2022-02-12_18h17.22.860,lexical_decision_task_DD,2021.2.3,Win32,142.6533524,,,,,,,,,,,0.2453,0,,,,,,,,,,,,,,,,,,,,,,,,-0.010309278,-0.428865979,0,0,0,,,,,,,SCREW,C,m,m,./images/SCREW.png,,,,,,,,,,,,,,,,,,,,,,z,0,0.2453,,,,,,,,0,106,106,24,1
,,,,,,,,,,,,,,,,,58c38ef58158840001b5c230,34,2022-02-12_18h17.22.860,lexical_decision_task_DD,2021.2.3,Win32,142.6533524,,,,,,,,,,,0.2054,1,,,,,,,,,,,,,,,,,,,,,,,,-0.010309278,-0.428865979,0,0,0,,,,,,,PARCEL,C,z,m,./images/PARCEL.png,,,,,,,,,,,,,,,,,,,,,,z,1,0.2054,,,,,,,,0,107,107,102,1
,,,,,,,,,,,,,,,,,58c38ef58158840001b5c230,34,2022-02-12_18h17.22.860,lexical_decision_task_DD,2021.2.3,Win32,142.6533524,,,,,,,,,,,0.2384,1,,,,,,,,,,,,,,,,,,,,,,,,-0.010309278,-0.428865979,0,0,0,,,,,,,BAMBOO,LB,z,m,./images/BAMBOOLB.png,,,,,,,,,,,,,,,,,,,,,,z,1,0.2384,,,,,,,,0,108,108,89,1
,,,,,,,,,,,,,,,,,58c38ef58158840001b5c230,34,2022-02-12_18h17.22.860,lexical_decision_task_DD,2021.2.3,Win32,142.6533524,,,,,,,,,,,0.1355,0,,,,,,,,,,,,,,,,,,,,,,,,-0.010309278,-0.428865979,0,0,0,,,,,,,MAGGOT,C,m,m,./images/MAGGOT.png,,,,,,,,,,,,,,,,,,,,,,z,0,0.1355,,,,,,,,0,109,109,33,1
,,,,,,,,,,,,,,,,,58c38ef58158840001b5c230,34,2022-02-12_18h17.22.860,lexical_decision_task_DD,2021.2.3,Win32,142.6533524,,,,,,,,,,,0.2816,1,,,,,,,,,,,,,,,,,,,,,,,,-0.010309278,-0.428865979,0,0,0,,,,,,,BELLY,HB,m,m,./images/BELLYHB.png,,,,,,,,,,,,,,,,,,,,,,m,1,0.2816,,,,,,,,0,110,110,10,1
,,,,,,,,,,,,,,,,,58c38ef58158840001b5c230,34,2022-02-12_18h17.22.860,lexical_decision_task_DD,2021.2.3,Win32,142.6533524,,,,,,,,,,,0.0462,0,,,,,,,,,,,,,,,,,,,,,,,,-0.010309278,-0.428865979,0,0,0,,,,,,,SPORT,C,m,m,./images/SPORT.png,,,,,,,,,,,,,,,,,,,,,,z,0,0.0462,,,,,,,,0,111,111,48,1
,,,,,,,,,,,,,,,,,58c38ef58158840001b5c230,34,2022-02-12_18h17.22.860,lexical_decision_task_DD,2021.2.3,Win32,142.6533524,,,,,,,,,,,0.1511,0,,,,,,,,,,,,,,,,,,,,,,,,-0.010309278,-0.428865979,0,0,0,,,,,,,FARMER,LB,m,m,./images/FARMERLB.png,,,,,,,,,,,,,,,,,,,,,,z,0,0.1511,,,,,,,,0,112,112,65,1
,,,,,,,,,,,,,,,,,58c38ef58158840001b5c230,34,2022-02-12_18h17.22.860,lexical_decision_task_DD,2021.2.3,Win32,142.6533524,,,,,,,,,,,0.1868,0,,,,,,,,,,,,,,,,,,,,,,,,-0.010309278,-0.428865979,0,0,0,,,,,,,HEATER,LB,z,m,./images/HEATERLB.png,,,,,,,,,,,,,,,,,,,,,,m,0,0.1868,,,,,,,,0,113,113,140,1
,,,,,,,,,,,,,,,,,58c38ef58158840001b5c230,34,2022-02-12_18h17.22.860,lexical_decision_task_DD,2021.2.3,Win32,142.6533524,,,,,,,,,,,0.2271,1,,,,,,,,,,,,,,,,,,,,,,,,-0.010309278,-0.428865979,0,0,0,,,,,,,BANNER,HB,m,m,./images/BANNERHB.png,,,,,,,,,,,,,,,,,,,,,,m,1,0.2271,,,,,,,,0,114,114,52,1
,,,,,,,,,,,,,,,,,58c38ef58158840001b5c230,34,2022-02-12_18h17.22.860,lexical_decision_task_DD,2021.2.3,Win32,142.6533524,,,,,,,,,,,0.1211,0,,,,,,,,,,,,,,,,,,,,,,,,-0.010309278,-0.428865979,0,0,0,,,,,,,PARADE,LB,z,m,./images/PARADELB.png,,,,,,,,,,,,,,,,,,,,,,m,0,0.1211,,,,,,,,0,115,115,101,1
,,,,,,,,,,,,,,,,,58c38ef58158840001b5c230,34,2022-02-12_18h17.22.860,lexical_decision_task_DD,2021.2.3,Win32,142.6533524,,,,,,,,,,,0.0829,0,,,,,,,,,,,,,,,,,,,,,,,,-0.010309278,-0.428865979,0,0,0,,,,,,,NOOSE,C,m,m,./images/NOOSE.png,,,,,,,,,,,,,,,,,,,,,,z,0,0.0829,,,,,,,,0,116,116,72,1
,,,,,,,,,,,,,,,,,58c38ef58158840001b5c230,34,2022-02-12_18h17.22.860,lexical_decision_task_DD,2021.2.3,Win32,142.6533524,,,,,,,,,,,0.0908,1,,,,,,,,,,,,,,,,,,,,,,,,-0.010309278,-0.428865979,0,0,0,,,,,,,MONKEY,C,z,m,./images/MONKEY.png,,,,,,,,,,,,,,,,,,,,,,z,1,0.0908,,,,,,,,0,117,117,129,1
,,,,,,,,,,,,,,,,,58c38ef58158840001b5c230,34,2022-02-12_18h17.22.860,lexical_decision_task_DD,2021.2.3,Win32,142.6533524,,,,,,,,,,,0.1087,0,,,,,,,,,,,,,,,,,,,,,,,,-0.010309278,-0.428865979,0,0,0,,,,,,,CASINO,HB,z,m,./images/CASINOHB.png,,,,,,,,,,,,,,,,,,,,,,m,0,0.1087,,,,,,,,0,118,118,112,1
,,,,,,,,,,,,,,,,,58c38ef58158840001b5c230,34,2022-02-12_18h17.22.860,lexical_decision_task_DD,2021.2.3,Win32,142.6533524,,,,,,,,,,,0.1009,1,,,,,,,,,,,,,,,,,,,,,,,,-0.010309278,-0.428865979,0,0,0,,,,,,,LADDER,LB,m,m,./images/LADDERLB.png,,,,,,,,,,,,,,,,,,,,,,m,1,0.1009,,,,,,,,0,119,119,38,1
,,,,,,,,,,,,,,,,,58c38ef58158840001b5c230,34,2022-02-12_18h17.22.860,lexical_decision_task_DD,2021.2.3,Win32,142.6533524,,,,,,,,,,,0.0152,1,,,,,,,,,,,,,,,,,,,,,,,,-0.010309278,-0.428865979,0,0,0,,,,,,,JELLY,HB,m,m,./images/JELLYHB.png,,,,,,,,,,,,,,,,,,,,,,m,1,0.0152,,,,,,,,0,120,120,64,1
,,,,,,,,,,,,,,,,,58c38ef58158840001b5c230,34,2022-02-12_18h17.22.860,lexical_decision_task_DD,2021.2.3,Win32,142.6533524,,,,,,,,,,,0.1815,0,,,,,,,,,,,,,,,,,,,,,,,,-0.010309278,-0.428865979,0,0,0,,,,,,,KITTEN,C,m,m,./images/KITTEN.png,,,,,,,,,,,,,,,,,,,,,,z,0,0.1815,,,,,,,,0,121,121,45,1
,,,,,,,,,,,,,,,,,58c38ef58158840001b5c230,34,2022-02-12_18h17.22.860,lexical_decision_task_DD,2021.2.3,Win32,142.6533524,,,,,,,,,,,0.4128,1,,,,,,,,,,,,,,,,,,,,,,,,-0.010309278,-0.428865979,0,0,0,,,,,,,CRATER,C,z,m,./images/CRATER.png,,,,,,,,,,,,,,,,,,,,,,z,1,0.4128,,,,,,,,0,122,122,87,1
,,,,,,,,,,,,,,,,,58c38ef58158840001b5c230,34,2022-02-12_18h17.22.860,lexical_decision_task_DD,2021.2.3,Win32,142.6533524,,,,,,,,,,,0.2855,0,,,,,,,,,,,,,,,,,,,,,,,,-0.010309278,-0.428865979,0,0,0,,,,,,,WALRUS,LB,m,m,./images/WALRUSLB.png,,,,,,,,,,,,,,,,,,,,,,z,0,0.2855,,,,,,,,0,123,123,23,1
,,,,,,,,,,,,,,,,,58c38ef58158840001b5c230,34,2022-02-12_18h17.22.860,lexical_decision_task_DD,2021.2.3,Win32,142.6533524,,,,,,,,,,,0.0159,1,,,,,,,,,,,,,,,,,,,,,,,,-0.010309278,-0.428865979,0,0,0,,,,,,,PICKLE,LB,m,m,./images/PICKLELB.png,,,,,,,,,,,,,,,,,,,,,,m,1,0.0159,,,,,,,,0,124,124,14,1
,,,,,,,,,,,,,,,,,58c38ef58158840001b5c230,34,2022-02-12_18h17.22.860,lexical_decision_task_DD,2021.2.3,Win32,142.6533524,,,,,,,,,,,0.1219,0,,,,,,,,,,,,,,,,,,,,,,,,-0.010309278,-0.428865979,0,0,0,space,,,,,,MELON,HB,m,m,./images/MELONHB.png,0.8793,,,,,,,,,,,,,,,,,,,,,z,0,0.1219,,,,,,,,0,125,125,22,1
,,,,,,,,,,,,,,,,,58c38ef58158840001b5c230,34,2022-02-12_18h17.22.860,lexical_decision_task_DD,2021.2.3,Win32,142.6533524,,,,,,,,,,,0.267,0,,,,,,,,,,,,,,,,,,,,,,,,-0.010309278,-0.428865979,0,0,0,,,,,,,URINE,HB,m,m,./images/URINEHB.png,,,,,,,,,,,,,,,,,,,,,,z,0,0.267,,,,,,,,0,126,126,70,1
,,,,,,,,,,,,,,,,,58c38ef58158840001b5c230,34,2022-02-12_18h17.22.860,lexical_decision_task_DD,2021.2.3,Win32,142.6533524,,,,,,,,,,,0.0314,1,,,,,,,,,,,,,,,,,,,,,,,,-0.010309278,-0.428865979,0,0,0,,,,,,,ARROW,C,z,m,./images/ARROW.png,,,,,,,,,,,,,,,,,,,,,,z,1,0.0314,,,,,,,,0,127,127,153,1
,,,,,,,,,,,,,,,,,58c38ef58158840001b5c230,34,2022-02-12_18h17.22.860,lexical_decision_task_DD,2021.2.3,Win32,142.6533524,,,,,,,,,,,0.2425,0,,,,,,,,,,,,,,,,,,,,,,,,-0.010309278,-0.428865979,0,0,0,,,,,,,CRUMB,LB,m,m,./images/CRUMBLB.png,,,,,,,,,,,,,,,,,,,,,,z,0,0.2425,,,,,,,,0,128,128,29,1
,,,,,,,,,,,,,,,,,58c38ef58158840001b5c230,34,2022-02-12_18h17.22.860,lexical_decision_task_DD,2021.2.3,Win32,142.6533524,,,,,,,,,,,0.3783,1,,,,,,,,,,,,,,,,,,,,,,,,-0.010309278,-0.428865979,0,0,0,,,,,,,SAUCE,C,z,m,./images/SAUCE.png,,,,,,,,,,,,,,,,,,,,,,z,1,0.3783,,,,,,,,0,129,129,135,1
,,,,,,,,,,,,,,,,,58c38ef58158840001b5c230,34,2022-02-12_18h17.22.860,lexical_decision_task_DD,2021.2.3,Win32,142.6533524,,,,,,,,,,,0.0741,0,,,,,,,,,,,,,,,,,,,,,,,,-0.010309278,-0.428865979,0,0,0,,,,,,,STATUE,C,z,m,./images/STATUE.png,,,,,,,,,,,,,,,,,,,,,,m,0,0.0741,,,,,,,,0,130,130,150,1
,,,,,,,,,,,,,,,,,58c38ef58158840001b5c230,34,2022-02-12_18h17.22.860,lexical_decision_task_DD,2021.2.3,Win32,142.6533524,,,,,,,,,,,0.1672,0,,,,,,,,,,,,,,,,,,,,,,,,-0.010309278,-0.428865979,0,0,0,,,,,,,STOOL,HB,z,m,./images/STOOLHB.png,,,,,,,,,,,,,,,,,,,,,,m,0,0.1672,,,,,,,,0,131,131,127,1
,,,,,,,,,,,,,,,,,58c38ef58158840001b5c230,34,2022-02-12_18h17.22.860,lexical_decision_task_DD,2021.2.3,Win32,142.6533524,,,,,,,,,,,0.2533,0,,,,,,,,,,,,,,,,,,,,,,,,-0.010309278,-0.428865979,0,0,0,,,,,,,PASTA,LB,m,m,./images/PASTALB.png,,,,,,,,,,,,,,,,,,,,,,z,0,0.2533,,,,,,,,0,132,132,5,1
