key_resp.keys,key_resp.rt,instr_done_touch.x,instr_done_touch.y,instr_done_touch.leftButton,instr_done_touch.midButton,instr_done_touch.rightButton,instruction_pages.thisRepN,instruction_pages.thisTrialN,instruction_pages.thisN,instruction_pages.thisIndex,instruction_pages.ran,pageN,phase,instruct_text,has_image,instruct_image,participant,age,date,expName,psychopyVersion,OS,frameRate,response.keys,response.corr,response.rt,touch_resp.x,touch_resp.y,touch_resp.leftButton,touch_resp.midButton,touch_resp.rightButton,touch_resp.time,touch_resp.clicked_name,rt,corr,practrials.thisRepN,practrials.thisTrialN,practrials.thisN,practrials.thisIndex,practrials.ran,TrialID,Target,corrAns,end_of_practice_trials_pages.thisRepN,end_of_practice_trials_pages.thisTrialN,end_of_practice_trials_pages.thisN,end_of_practice_trials_pages.thisIndex,end_of_practice_trials_pages.ran,key_resp_2.keys,key_resp_2.corr,key_resp_2.rt,targ_click.x,targ_click.y,targ_click.leftButton,targ_click.midButton,targ_click.rightButton,targ_click.time,targ_click.clicked_name,break_done_touch.x,break_done_touch.y,break_done_touch.leftButton,break_done_touch.midButton,break_done_touch.rightButton,break_done_keyboard.keys,maintrials.thisRepN,maintrials.thisTrialN,maintrials.thisN,maintrials.thisIndex,maintrials.ran,string,blur,study,lex,stim_path,break_done_keyboard.rt,mouse_2.x,mouse_2.y,mouse_2.leftButton,mouse_2.midButton,mouse_2.rightButton,mouse_2.clicked_name,slider.response,slider.rt,trials.thisRepN,trials.thisTrialN,trials.thisN,trials.thisIndex,trials.ran,test_instructions.thisRepN,test_instructions.thisTrialN,test_instructions.thisN,test_instructions.thisIndex,test_instructions.ran,instr_done_touch.clicked_name,key_resp_3.keys,key_resp_3.corr,key_resp_3.rt,test_click.x,test_click.y,test_click.leftButton,test_click.midButton,test_click.rightButton,test_click.time,test_click.clicked_name,test_phase.thisRepN,test_phase.thisTrialN,test_phase.thisN,test_phase.thisIndex,test_phase.ran
space,61.654,0.608333333,-0.026851852,0,0,0,0,0,0,0,1,1,instructions,"INSTRUCTIONS
At the start of each trial, look at the plus sign  (+) in the center of the screen.  This tells you that a trial is about to begin and where to look. Second, the plus sign will disappear and a string of letters will appear. Your task is to determine if the string of letters is a word or not. If the item is a word press the M key (on keyboard)  or touch the word button (phone/tablet).  If the item is not a word,  press the  Z key (on keyboard)  or touch the nonword button (on phone/tablet). 
Press the space bar or touch  continue.",0,,59daff10e776fd00015ec7ec,32,2022-02-12_15h00.16.081,lexical_decision_task_DD_L2,2021.2.3,MacIntel,20.08838891,,,,,,,,,,,,,,,,,,,,,,,,,,,,,,,,,,,,,,,,,,,,,,,,,,,,,,,,,,,,,,,,,,,,,,,,,,,,,,,,,,,,,,
space,2.995,0.608333333,-0.026851852,0,0,0,0,1,1,1,1,2,instructions,"If your device has a keyboard, press the 'Z' key for nonwords and the 'M' key for words.





Press the space bar or touch the button below to continue.",0,keyboard-example.gif,59daff10e776fd00015ec7ec,32,2022-02-12_15h00.16.081,lexical_decision_task_DD_L2,2021.2.3,MacIntel,20.08838891,,,,,,,,,,,,,,,,,,,,,,,,,,,,,,,,,,,,,,,,,,,,,,,,,,,,,,,,,,,,,,,,,,,,,,,,,,,,,,,,,,,,,,
space,2.825,0.608333333,-0.026851852,0,0,0,0,2,2,2,1,3,instructions,"If you are using a touchscreen only device, use the buttons on the screen. Do not use the mouse.





Press the space bar or touch the button below to continue.",0,touchscreen-example.gif,59daff10e776fd00015ec7ec,32,2022-02-12_15h00.16.081,lexical_decision_task_DD_L2,2021.2.3,MacIntel,20.08838891,,,,,,,,,,,,,,,,,,,,,,,,,,,,,,,,,,,,,,,,,,,,,,,,,,,,,,,,,,,,,,,,,,,,,,,,,,,,,,,,,,,,,,
space,9.776,0.608333333,-0.026851852,0,0,0,0,3,3,3,1,4,instructions,"It is very important that you respond as quickly and accurately as possible, as each letter string will only be on the screen for two seconds. If you do not respond within this time, the message 'Too slow!' will be displayed and the experiment will progress to the next letter string. The first 20 trials will be practice trials and you will receive feedback on your answers. 

Press the space bar or touch the button below to start the practice trials.",0,,59daff10e776fd00015ec7ec,32,2022-02-12_15h00.16.081,lexical_decision_task_DD_L2,2021.2.3,MacIntel,20.08838891,,,,,,,,,,,,,,,,,,,,,,,,,,,,,,,,,,,,,,,,,,,,,,,,,,,,,,,,,,,,,,,,,,,,,,,,,,,,,,,,,,,,,,
,,,,,,,,,,,,,,,,,59daff10e776fd00015ec7ec,32,2022-02-12_15h00.16.081,lexical_decision_task_DD_L2,2021.2.3,MacIntel,20.08838891,m,1,0.794,,,,,,,,0.794,1,0,0,0,0,1,1001,UTOPIA,m,,,,,,,,,,,,,,,,,,,,,,,,,,,,,,,,,,,,,,,,,,,,,,,,,,,,,,,,,,,,,,,,,,
,,,,,,,,,,,,,,,,,59daff10e776fd00015ec7ec,32,2022-02-12_15h00.16.081,lexical_decision_task_DD_L2,2021.2.3,MacIntel,20.08838891,z,1,0.791,,,,,,,,0.791,1,0,1,1,8,1,1001,ASLERT,z,,,,,,,,,,,,,,,,,,,,,,,,,,,,,,,,,,,,,,,,,,,,,,,,,,,,,,,,,,,,,,,,,,
,,,,,,,,,,,,,,,,,59daff10e776fd00015ec7ec,32,2022-02-12_15h00.16.081,lexical_decision_task_DD_L2,2021.2.3,MacIntel,20.08838891,m,1,0.738,,,,,,,,0.738,1,0,2,2,4,1,1001,SQUEAK,m,,,,,,,,,,,,,,,,,,,,,,,,,,,,,,,,,,,,,,,,,,,,,,,,,,,,,,,,,,,,,,,,,,
,,,,,,,,,,,,,,,,,59daff10e776fd00015ec7ec,32,2022-02-12_15h00.16.081,lexical_decision_task_DD_L2,2021.2.3,MacIntel,20.08838891,z,1,0.76,,,,,,,,0.76,1,0,3,3,13,1,1001,ROUPET,z,,,,,,,,,,,,,,,,,,,,,,,,,,,,,,,,,,,,,,,,,,,,,,,,,,,,,,,,,,,,,,,,,,
,,,,,,,,,,,,,,,,,59daff10e776fd00015ec7ec,32,2022-02-12_15h00.16.081,lexical_decision_task_DD_L2,2021.2.3,MacIntel,20.08838891,z,1,0.769,,,,,,,,0.769,1,0,4,4,10,1,1001,INLADE,z,,,,,,,,,,,,,,,,,,,,,,,,,,,,,,,,,,,,,,,,,,,,,,,,,,,,,,,,,,,,,,,,,,
,,,,,,,,,,,,,,,,,59daff10e776fd00015ec7ec,32,2022-02-12_15h00.16.081,lexical_decision_task_DD_L2,2021.2.3,MacIntel,20.08838891,z,1,0.839,,,,,,,,0.839,1,0,5,5,15,1,1001,WHAISE,z,,,,,,,,,,,,,,,,,,,,,,,,,,,,,,,,,,,,,,,,,,,,,,,,,,,,,,,,,,,,,,,,,,
,,,,,,,,,,,,,,,,,59daff10e776fd00015ec7ec,32,2022-02-12_15h00.16.081,lexical_decision_task_DD_L2,2021.2.3,MacIntel,20.08838891,z,1,0.738,,,,,,,,0.738,1,0,6,6,9,1,1001,FARINY,z,,,,,,,,,,,,,,,,,,,,,,,,,,,,,,,,,,,,,,,,,,,,,,,,,,,,,,,,,,,,,,,,,,
,,,,,,,,,,,,,,,,,59daff10e776fd00015ec7ec,32,2022-02-12_15h00.16.081,lexical_decision_task_DD_L2,2021.2.3,MacIntel,20.08838891,m,1,0.787,,,,,,,,0.787,1,0,7,7,7,1,1001,VOLUME,m,,,,,,,,,,,,,,,,,,,,,,,,,,,,,,,,,,,,,,,,,,,,,,,,,,,,,,,,,,,,,,,,,,
,,,,,,,,,,,,,,,,,59daff10e776fd00015ec7ec,32,2022-02-12_15h00.16.081,lexical_decision_task_DD_L2,2021.2.3,MacIntel,20.08838891,z,1,0.861,,,,,,,,0.861,1,0,8,8,11,1,1001,RASHET,z,,,,,,,,,,,,,,,,,,,,,,,,,,,,,,,,,,,,,,,,,,,,,,,,,,,,,,,,,,,,,,,,,,
,,,,,,,,,,,,,,,,,59daff10e776fd00015ec7ec,32,2022-02-12_15h00.16.081,lexical_decision_task_DD_L2,2021.2.3,MacIntel,20.08838891,m,1,0.782,,,,,,,,0.782,1,0,9,9,5,1,1001,OBTAIN,m,,,,,,,,,,,,,,,,,,,,,,,,,,,,,,,,,,,,,,,,,,,,,,,,,,,,,,,,,,,,,,,,,,
,,,,,,,,,,,,,,,,,59daff10e776fd00015ec7ec,32,2022-02-12_15h00.16.081,lexical_decision_task_DD_L2,2021.2.3,MacIntel,20.08838891,m,1,0.785,,,,,,,,0.785,1,0,10,10,2,1,1001,ALMOND,m,,,,,,,,,,,,,,,,,,,,,,,,,,,,,,,,,,,,,,,,,,,,,,,,,,,,,,,,,,,,,,,,,,
,,,,,,,,,,,,,,,,,59daff10e776fd00015ec7ec,32,2022-02-12_15h00.16.081,lexical_decision_task_DD_L2,2021.2.3,MacIntel,20.08838891,z,1,0.711,,,,,,,,0.711,1,0,11,11,14,1,1001,THRALE,z,,,,,,,,,,,,,,,,,,,,,,,,,,,,,,,,,,,,,,,,,,,,,,,,,,,,,,,,,,,,,,,,,,
,,,,,,,,,,,,,,,,,59daff10e776fd00015ec7ec,32,2022-02-12_15h00.16.081,lexical_decision_task_DD_L2,2021.2.3,MacIntel,20.08838891,m,1,0.657,,,,,,,,0.657,1,0,12,12,3,1,1001,MATRIX,m,,,,,,,,,,,,,,,,,,,,,,,,,,,,,,,,,,,,,,,,,,,,,,,,,,,,,,,,,,,,,,,,,,
,,,,,,,,,,,,,,,,,59daff10e776fd00015ec7ec,32,2022-02-12_15h00.16.081,lexical_decision_task_DD_L2,2021.2.3,MacIntel,20.08838891,m,1,0.606,,,,,,,,0.606,1,0,13,13,6,1,1001,ZOMBIE,m,,,,,,,,,,,,,,,,,,,,,,,,,,,,,,,,,,,,,,,,,,,,,,,,,,,,,,,,,,,,,,,,,,
,,,,,,,,,,,,,,,,,59daff10e776fd00015ec7ec,32,2022-02-12_15h00.16.081,lexical_decision_task_DD_L2,2021.2.3,MacIntel,20.08838891,z,1,0.734,,,,,,,,0.734,1,0,14,14,12,1,1001,SPRINY,z,,,,,,,,,,,,,,,,,,,,,,,,,,,,,,,,,,,,,,,,,,,,,,,,,,,,,,,,,,,,,,,,,,
,,,,,,,,,,,,,,,,,59daff10e776fd00015ec7ec,32,2022-02-12_15h00.16.081,lexical_decision_task_DD_L2,2021.2.3,MacIntel,20.08838891,m,1,0.75,,,,,,,,0.75,1,0,15,15,1,1,1001,ADJUST,m,,,,,,,,,,,,,,,,,,,,,,,,,,,,,,,,,,,,,,,,,,,,,,,,,,,,,,,,,,,,,,,,,,
space,23.69,0.881481481,-0.04537037,0,0,0,,,,,,1,end_of_practice,"You have completed the practice trials. During the experimental trials, you will not receive feedback. 
Before you begin, please ensure that you are in a comfortable and quiet location and will not be disturbed for about 15 minutes, as we cannot use your data if you do not complete all the trials. 
 When you are ready to start the experimental trials, please press space or touch the button below.",,,59daff10e776fd00015ec7ec,32,2022-02-12_15h00.16.081,lexical_decision_task_DD_L2,2021.2.3,MacIntel,20.08838891,,,,,,,,,,,,,,,,,,,,,0,0,0,0,1,,,,,,,,,,,,,,,,,,,,,,,,,,,,,,,,,,,,,,,,,,,,,,,,,,,,,,,,,,,,,
,,,,,,,,,,,,,,,,,59daff10e776fd00015ec7ec,32,2022-02-12_15h00.16.081,lexical_decision_task_DD_L2,2021.2.3,MacIntel,20.08838891,,,,,,,,,,,1.105,0,,,,,,,,,,,,,,m,0,1.105,,,,,,,,0.881481481,-0.04537037,0,0,0,,0,0,0,109,1,BURGE,HB,old,z,./images/BURGEHB.png,,,,,,,,,,,,,,,,,,,,,,,,,,,,,,,,,,,
,,,,,,,,,,,,,,,,,59daff10e776fd00015ec7ec,32,2022-02-12_15h00.16.081,lexical_decision_task_DD_L2,2021.2.3,MacIntel,20.08838891,,,,,,,,,,,0.896,1,,,,,,,,,,,,,,m,1,0.896,,,,,,,,0.881481481,-0.04537037,0,0,0,,0,1,1,12,1,SHORE,HB,old,m,./images/SHOREHB.png,,,,,,,,,,,,,,,,,,,,,,,,,,,,,,,,,,,
,,,,,,,,,,,,,,,,,59daff10e776fd00015ec7ec,32,2022-02-12_15h00.16.081,lexical_decision_task_DD_L2,2021.2.3,MacIntel,20.08838891,,,,,,,,,,,0.984,1,,,,,,,,,,,,,,z,1,0.984,,,,,,,,0.881481481,-0.04537037,0,0,0,,0,2,2,163,1,GAMBA,HB,old,z,./images/GAMBAHB.png,,,,,,,,,,,,,,,,,,,,,,,,,,,,,,,,,,,
,,,,,,,,,,,,,,,,,59daff10e776fd00015ec7ec,32,2022-02-12_15h00.16.081,lexical_decision_task_DD_L2,2021.2.3,MacIntel,20.08838891,,,,,,,,,,,0.692,1,,,,,,,,,,,,,,m,1,0.692,,,,,,,,0.881481481,-0.04537037,0,0,0,,0,3,3,55,1,MUFFIN,LB,old,m,./images/MUFFINLB.png,,,,,,,,,,,,,,,,,,,,,,,,,,,,,,,,,,,
,,,,,,,,,,,,,,,,,59daff10e776fd00015ec7ec,32,2022-02-12_15h00.16.081,lexical_decision_task_DD_L2,2021.2.3,MacIntel,20.08838891,,,,,,,,,,,0.641,1,,,,,,,,,,,,,,m,1,0.641,,,,,,,,0.881481481,-0.04537037,0,0,0,,0,4,4,37,1,BIRTH,LB,old,m,./images/BIRTHLB.png,,,,,,,,,,,,,,,,,,,,,,,,,,,,,,,,,,,
,,,,,,,,,,,,,,,,,59daff10e776fd00015ec7ec,32,2022-02-12_15h00.16.081,lexical_decision_task_DD_L2,2021.2.3,MacIntel,20.08838891,,,,,,,,,,,0.668,1,,,,,,,,,,,,,,z,1,0.668,,,,,,,,0.881481481,-0.04537037,0,0,0,,0,5,5,162,1,LEICH,C,old,z,./images/LEICH.png,,,,,,,,,,,,,,,,,,,,,,,,,,,,,,,,,,,
,,,,,,,,,,,,,,,,,59daff10e776fd00015ec7ec,32,2022-02-12_15h00.16.081,lexical_decision_task_DD_L2,2021.2.3,MacIntel,20.08838891,,,,,,,,,,,0.666,1,,,,,,,,,,,,,,m,1,0.666,,,,,,,,0.881481481,-0.04537037,0,0,0,,0,6,6,13,1,MOTOR,LB,old,m,./images/MOTORLB.png,,,,,,,,,,,,,,,,,,,,,,,,,,,,,,,,,,,
,,,,,,,,,,,,,,,,,59daff10e776fd00015ec7ec,32,2022-02-12_15h00.16.081,lexical_decision_task_DD_L2,2021.2.3,MacIntel,20.08838891,,,,,,,,,,,0.713,1,,,,,,,,,,,,,,z,1,0.713,,,,,,,,0.881481481,-0.04537037,0,0,0,,0,7,7,86,1,AIFED,LB,old,z,./images/AIFEDLB.png,,,,,,,,,,,,,,,,,,,,,,,,,,,,,,,,,,,
,,,,,,,,,,,,,,,,,59daff10e776fd00015ec7ec,32,2022-02-12_15h00.16.081,lexical_decision_task_DD_L2,2021.2.3,MacIntel,20.08838891,,,,,,,,,,,0.762,0,,,,,,,,,,,,,,m,0,0.762,,,,,,,,0.881481481,-0.04537037,0,0,0,,0,8,8,84,1,HAXES,C,old,z,./images/HAXES.png,,,,,,,,,,,,,,,,,,,,,,,,,,,,,,,,,,,
,,,,,,,,,,,,,,,,,59daff10e776fd00015ec7ec,32,2022-02-12_15h00.16.081,lexical_decision_task_DD_L2,2021.2.3,MacIntel,20.08838891,,,,,,,,,,,0.743,1,,,,,,,,,,,,,,m,1,0.743,,,,,,,,0.881481481,-0.04537037,0,0,0,,0,9,9,25,1,WRIST,LB,old,m,./images/WRISTLB.png,,,,,,,,,,,,,,,,,,,,,,,,,,,,,,,,,,,
,,,,,,,,,,,,,,,,,59daff10e776fd00015ec7ec,32,2022-02-12_15h00.16.081,lexical_decision_task_DD_L2,2021.2.3,MacIntel,20.08838891,,,,,,,,,,,0.689,1,,,,,,,,,,,,,,z,1,0.689,,,,,,,,0.881481481,-0.04537037,0,0,0,,0,10,10,89,1,DRIEK,LB,old,z,./images/DRIEKLB.png,,,,,,,,,,,,,,,,,,,,,,,,,,,,,,,,,,,
,,,,,,,,,,,,,,,,,59daff10e776fd00015ec7ec,32,2022-02-12_15h00.16.081,lexical_decision_task_DD_L2,2021.2.3,MacIntel,20.08838891,,,,,,,,,,,0.648,1,,,,,,,,,,,,,,m,1,0.648,,,,,,,,0.881481481,-0.04537037,0,0,0,,0,11,11,68,1,TORCH,C,old,m,./images/TORCH.png,,,,,,,,,,,,,,,,,,,,,,,,,,,,,,,,,,,
,,,,,,,,,,,,,,,,,59daff10e776fd00015ec7ec,32,2022-02-12_15h00.16.081,lexical_decision_task_DD_L2,2021.2.3,MacIntel,20.08838891,,,,,,,,,,,0.683,1,,,,,,,,,,,,,,m,1,0.683,,,,,,,,0.881481481,-0.04537037,0,0,0,,0,12,12,19,1,DOUGH,LB,old,m,./images/DOUGHLB.png,,,,,,,,,,,,,,,,,,,,,,,,,,,,,,,,,,,
,,,,,,,,,,,,,,,,,59daff10e776fd00015ec7ec,32,2022-02-12_15h00.16.081,lexical_decision_task_DD_L2,2021.2.3,MacIntel,20.08838891,,,,,,,,,,,0.672,1,,,,,,,,,,,,,,z,1,0.672,,,,,,,,0.881481481,-0.04537037,0,0,0,,0,13,13,102,1,DULLE,C,old,z,./images/DULLE.png,,,,,,,,,,,,,,,,,,,,,,,,,,,,,,,,,,,
,,,,,,,,,,,,,,,,,59daff10e776fd00015ec7ec,32,2022-02-12_15h00.16.081,lexical_decision_task_DD_L2,2021.2.3,MacIntel,20.08838891,,,,,,,,,,,0.752,1,,,,,,,,,,,,,,z,1,0.752,,,,,,,,0.881481481,-0.04537037,0,0,0,,0,14,14,114,1,RIKES,C,old,z,./images/RIKES.png,,,,,,,,,,,,,,,,,,,,,,,,,,,,,,,,,,,
,,,,,,,,,,,,,,,,,59daff10e776fd00015ec7ec,32,2022-02-12_15h00.16.081,lexical_decision_task_DD_L2,2021.2.3,MacIntel,20.08838891,,,,,,,,,,,0.697,1,,,,,,,,,,,,,,m,1,0.697,,,,,,,,0.881481481,-0.04537037,0,0,0,,0,15,15,49,1,DRUMS,LB,old,m,./images/DRUMSLB.png,,,,,,,,,,,,,,,,,,,,,,,,,,,,,,,,,,,
,,,,,,,,,,,,,,,,,59daff10e776fd00015ec7ec,32,2022-02-12_15h00.16.081,lexical_decision_task_DD_L2,2021.2.3,MacIntel,20.08838891,,,,,,,,,,,0.905,1,,,,,,,,,,,,,,z,1,0.905,,,,,,,,0.881481481,-0.04537037,0,0,0,,0,16,16,141,1,PLEET,C,old,z,./images/PLEET.png,,,,,,,,,,,,,,,,,,,,,,,,,,,,,,,,,,,
,,,,,,,,,,,,,,,,,59daff10e776fd00015ec7ec,32,2022-02-12_15h00.16.081,lexical_decision_task_DD_L2,2021.2.3,MacIntel,20.08838891,,,,,,,,,,,0.788,1,,,,,,,,,,,,,,z,1,0.788,,,,,,,,0.881481481,-0.04537037,0,0,0,,0,17,17,158,1,EGECT,LB,old,z,./images/EGECTLB.png,,,,,,,,,,,,,,,,,,,,,,,,,,,,,,,,,,,
,,,,,,,,,,,,,,,,,59daff10e776fd00015ec7ec,32,2022-02-12_15h00.16.081,lexical_decision_task_DD_L2,2021.2.3,MacIntel,20.08838891,,,,,,,,,,,0.743,1,,,,,,,,,,,,,,z,1,0.743,,,,,,,,0.881481481,-0.04537037,0,0,0,,0,18,18,108,1,GRUET,C,old,z,./images/GRUET.png,,,,,,,,,,,,,,,,,,,,,,,,,,,,,,,,,,,
,,,,,,,,,,,,,,,,,59daff10e776fd00015ec7ec,32,2022-02-12_15h00.16.081,lexical_decision_task_DD_L2,2021.2.3,MacIntel,20.08838891,,,,,,,,,,,0.759,1,,,,,,,,,,,,,,m,1,0.759,,,,,,,,0.881481481,-0.04537037,0,0,0,,0,19,19,5,1,PASTA,C,old,m,./images/PASTA.png,,,,,,,,,,,,,,,,,,,,,,,,,,,,,,,,,,,
,,,,,,,,,,,,,,,,,59daff10e776fd00015ec7ec,32,2022-02-12_15h00.16.081,lexical_decision_task_DD_L2,2021.2.3,MacIntel,20.08838891,,,,,,,,,,,0.703,1,,,,,,,,,,,,,,m,1,0.703,,,,,,,,0.881481481,-0.04537037,0,0,0,,0,20,20,26,1,SMOKER,C,old,m,./images/SMOKER.png,,,,,,,,,,,,,,,,,,,,,,,,,,,,,,,,,,,
,,,,,,,,,,,,,,,,,59daff10e776fd00015ec7ec,32,2022-02-12_15h00.16.081,lexical_decision_task_DD_L2,2021.2.3,MacIntel,20.08838891,,,,,,,,,,,0.937,1,,,,,,,,,,,,,,m,1,0.937,,,,,,,,0.881481481,-0.04537037,0,0,0,,0,21,21,36,1,THROAT,HB,old,m,./images/THROATHB.png,,,,,,,,,,,,,,,,,,,,,,,,,,,,,,,,,,,
,,,,,,,,,,,,,,,,,59daff10e776fd00015ec7ec,32,2022-02-12_15h00.16.081,lexical_decision_task_DD_L2,2021.2.3,MacIntel,20.08838891,,,,,,,,,,,0.715,1,,,,,,,,,,,,,,m,1,0.715,,,,,,,,0.881481481,-0.04537037,0,0,0,,0,22,22,10,1,BELLY,LB,old,m,./images/BELLYLB.png,,,,,,,,,,,,,,,,,,,,,,,,,,,,,,,,,,,
,,,,,,,,,,,,,,,,,59daff10e776fd00015ec7ec,32,2022-02-12_15h00.16.081,lexical_decision_task_DD_L2,2021.2.3,MacIntel,20.08838891,,,,,,,,,,,0.705,1,,,,,,,,,,,,,,z,1,0.705,,,,,,,,0.881481481,-0.04537037,0,0,0,,0,23,23,87,1,TRING,C,old,z,./images/TRING.png,,,,,,,,,,,,,,,,,,,,,,,,,,,,,,,,,,,
,,,,,,,,,,,,,,,,,59daff10e776fd00015ec7ec,32,2022-02-12_15h00.16.081,lexical_decision_task_DD_L2,2021.2.3,MacIntel,20.08838891,,,,,,,,,,,0.906,1,,,,,,,,,,,,,,z,1,0.906,,,,,,,,0.881481481,-0.04537037,0,0,0,,0,24,24,107,1,FASKS,LB,old,z,./images/FASKSLB.png,,,,,,,,,,,,,,,,,,,,,,,,,,,,,,,,,,,
,,,,,,,,,,,,,,,,,59daff10e776fd00015ec7ec,32,2022-02-12_15h00.16.081,lexical_decision_task_DD_L2,2021.2.3,MacIntel,20.08838891,,,,,,,,,,,1.172,1,,,,,,,,,,,,,,z,1,1.172,,,,,,,,0.881481481,-0.04537037,0,0,0,,0,25,25,148,1,JOMS,HB,old,z,./images/JOMSHB.png,,,,,,,,,,,,,,,,,,,,,,,,,,,,,,,,,,,
,,,,,,,,,,,,,,,,,59daff10e776fd00015ec7ec,32,2022-02-12_15h00.16.081,lexical_decision_task_DD_L2,2021.2.3,MacIntel,20.08838891,,,,,,,,,,,0.644,1,,,,,,,,,,,,,,m,1,0.644,,,,,,,,0.881481481,-0.04537037,0,0,0,,0,26,26,35,1,PEACH,C,old,m,./images/PEACH.png,,,,,,,,,,,,,,,,,,,,,,,,,,,,,,,,,,,
,,,,,,,,,,,,,,,,,59daff10e776fd00015ec7ec,32,2022-02-12_15h00.16.081,lexical_decision_task_DD_L2,2021.2.3,MacIntel,20.08838891,,,,,,,,,,,0.716,1,,,,,,,,,,,,,,m,1,0.716,,,,,,,,0.881481481,-0.04537037,0,0,0,,0,27,27,20,1,CRADLE,C,old,m,./images/CRADLE.png,,,,,,,,,,,,,,,,,,,,,,,,,,,,,,,,,,,
,,,,,,,,,,,,,,,,,59daff10e776fd00015ec7ec,32,2022-02-12_15h00.16.081,lexical_decision_task_DD_L2,2021.2.3,MacIntel,20.08838891,,,,,,,,,,,0.847,1,,,,,,,,,,,,,,m,1,0.847,,,,,,,,0.881481481,-0.04537037,0,0,0,,0,28,28,57,1,MOOSE,HB,old,m,./images/MOOSEHB.png,,,,,,,,,,,,,,,,,,,,,,,,,,,,,,,,,,,
,,,,,,,,,,,,,,,,,59daff10e776fd00015ec7ec,32,2022-02-12_15h00.16.081,lexical_decision_task_DD_L2,2021.2.3,MacIntel,20.08838891,,,,,,,,,,,0.965,1,,,,,,,,,,,,,,z,1,0.965,,,,,,,,0.881481481,-0.04537037,0,0,0,,0,29,29,94,1,BLANS,HB,old,z,./images/BLANSHB.png,,,,,,,,,,,,,,,,,,,,,,,,,,,,,,,,,,,
,,,,,,,,,,,,,,,,,59daff10e776fd00015ec7ec,32,2022-02-12_15h00.16.081,lexical_decision_task_DD_L2,2021.2.3,MacIntel,20.08838891,,,,,,,,,,,1.035,1,,,,,,,,,,,,,,z,1,1.035,,,,,,,,0.881481481,-0.04537037,0,0,0,,0,30,30,139,1,BLEAR,HB,old,z,./images/BLEARHB.png,,,,,,,,,,,,,,,,,,,,,,,,,,,,,,,,,,,
,,,,,,,,,,,,,,,,,59daff10e776fd00015ec7ec,32,2022-02-12_15h00.16.081,lexical_decision_task_DD_L2,2021.2.3,MacIntel,20.08838891,,,,,,,,,,,0.788,1,,,,,,,,,,,,,,z,1,0.788,,,,,,,,0.881481481,-0.04537037,0,0,0,,0,31,31,149,1,VEASE,LB,old,z,./images/VEASELB.png,,,,,,,,,,,,,,,,,,,,,,,,,,,,,,,,,,,
,,,,,,,,,,,,,,,,,59daff10e776fd00015ec7ec,32,2022-02-12_15h00.16.081,lexical_decision_task_DD_L2,2021.2.3,MacIntel,20.08838891,,,,,,,,,,,0.699,1,,,,,,,,,,,,,,z,1,0.699,,,,,,,,0.881481481,-0.04537037,0,0,0,,0,32,32,152,1,FRAIN,LB,old,z,./images/FRAINLB.png,,,,,,,,,,,,,,,,,,,,,,,,,,,,,,,,,,,
,,,,,,,,,,,,,,,,,59daff10e776fd00015ec7ec,32,2022-02-12_15h00.16.081,lexical_decision_task_DD_L2,2021.2.3,MacIntel,20.08838891,,,,,,,,,,,0.773,1,,,,,,,,,,,,,,z,1,0.773,,,,,,,,0.881481481,-0.04537037,0,0,0,,0,33,33,104,1,GITTY,LB,old,z,./images/GITTYLB.png,,,,,,,,,,,,,,,,,,,,,,,,,,,,,,,,,,,
,,,,,,,,,,,,,,,,,59daff10e776fd00015ec7ec,32,2022-02-12_15h00.16.081,lexical_decision_task_DD_L2,2021.2.3,MacIntel,20.08838891,,,,,,,,,,,0.694,1,,,,,,,,,,,,,,z,1,0.694,,,,,,,,0.881481481,-0.04537037,0,0,0,,0,34,34,135,1,JOODY,C,old,z,./images/JOODY.png,,,,,,,,,,,,,,,,,,,,,,,,,,,,,,,,,,,
,,,,,,,,,,,,,,,,,59daff10e776fd00015ec7ec,32,2022-02-12_15h00.16.081,lexical_decision_task_DD_L2,2021.2.3,MacIntel,20.08838891,,,,,,,,,,,0.671,1,,,,,,,,,,,,,,m,1,0.671,,,,,,,,0.881481481,-0.04537037,0,0,0,,0,35,35,28,1,FALCON,LB,old,m,./images/FALCONLB.png,,,,,,,,,,,,,,,,,,,,,,,,,,,,,,,,,,,
,,,,,,,,,,,,,,,,,59daff10e776fd00015ec7ec,32,2022-02-12_15h00.16.081,lexical_decision_task_DD_L2,2021.2.3,MacIntel,20.08838891,,,,,,,,,,,0.896,1,,,,,,,,,,,,,,z,1,0.896,,,,,,,,0.881481481,-0.04537037,0,0,0,,0,36,36,151,1,TINKY,HB,old,z,./images/TINKYHB.png,,,,,,,,,,,,,,,,,,,,,,,,,,,,,,,,,,,
,,,,,,,,,,,,,,,,,59daff10e776fd00015ec7ec,32,2022-02-12_15h00.16.081,lexical_decision_task_DD_L2,2021.2.3,MacIntel,20.08838891,,,,,,,,,,,0.826,1,,,,,,,,,,,,,,m,1,0.826,,,,,,,,0.881481481,-0.04537037,0,0,0,,0,37,37,78,1,LITTER,HB,old,m,./images/LITTERHB.png,,,,,,,,,,,,,,,,,,,,,,,,,,,,,,,,,,,
,,,,,,,,,,,,,,,,,59daff10e776fd00015ec7ec,32,2022-02-12_15h00.16.081,lexical_decision_task_DD_L2,2021.2.3,MacIntel,20.08838891,,,,,,,,,,,0.715,1,,,,,,,,,,,,,,z,1,0.715,,,,,,,,0.881481481,-0.04537037,0,0,0,,0,38,38,126,1,GUELS,C,old,z,./images/GUELS.png,,,,,,,,,,,,,,,,,,,,,,,,,,,,,,,,,,,
,,,,,,,,,,,,,,,,,59daff10e776fd00015ec7ec,32,2022-02-12_15h00.16.081,lexical_decision_task_DD_L2,2021.2.3,MacIntel,20.08838891,,,,,,,,,,,0.74,1,,,,,,,,,,,,,,m,1,0.74,,,,,,,,0.881481481,-0.04537037,0,0,0,,0,39,39,63,1,MIRROR,HB,old,m,./images/MIRRORHB.png,,,,,,,,,,,,,,,,,,,,,,,,,,,,,,,,,,,
,,,,,,,,,,,,,,,,,59daff10e776fd00015ec7ec,32,2022-02-12_15h00.16.081,lexical_decision_task_DD_L2,2021.2.3,MacIntel,20.08838891,,,,,,,,,,,0.796,1,,,,,,,,,,,,,,z,1,0.796,,,,,,,,0.881481481,-0.04537037,0,0,0,,0,40,40,113,1,LINEW,LB,old,z,./images/LINEWLB.png,,,,,,,,,,,,,,,,,,,,,,,,,,,,,,,,,,,
,,,,,,,,,,,,,,,,,59daff10e776fd00015ec7ec,32,2022-02-12_15h00.16.081,lexical_decision_task_DD_L2,2021.2.3,MacIntel,20.08838891,,,,,,,,,,,0.825,1,,,,,,,,,,,,,,z,1,0.825,,,,,,,,0.881481481,-0.04537037,0,0,0,space,0,41,41,93,1,SMONE,C,old,z,./images/SMONE.png,6.837,,,,,,,,,,,,,,,,,,,,,,,,,,,,,,,,,,
,,,,,,,,,,,,,,,,,59daff10e776fd00015ec7ec,32,2022-02-12_15h00.16.081,lexical_decision_task_DD_L2,2021.2.3,MacIntel,20.08838891,,,,,,,,,,,0.663,1,,,,,,,,,,,,,,m,1,0.663,,,,,,,,0.881481481,-0.04537037,0,0,0,,0,42,42,71,1,PIMPLE,C,old,m,./images/PIMPLE.png,,,,,,,,,,,,,,,,,,,,,,,,,,,,,,,,,,,
,,,,,,,,,,,,,,,,,59daff10e776fd00015ec7ec,32,2022-02-12_15h00.16.081,lexical_decision_task_DD_L2,2021.2.3,MacIntel,20.08838891,,,,,,,,,,,0.661,1,,,,,,,,,,,,,,z,1,0.661,,,,,,,,0.881481481,-0.04537037,0,0,0,,0,43,43,119,1,PAFER,LB,old,z,./images/PAFERLB.png,,,,,,,,,,,,,,,,,,,,,,,,,,,,,,,,,,,
,,,,,,,,,,,,,,,,,59daff10e776fd00015ec7ec,32,2022-02-12_15h00.16.081,lexical_decision_task_DD_L2,2021.2.3,MacIntel,20.08838891,,,,,,,,,,,0.971,1,,,,,,,,,,,,,,z,1,0.971,,,,,,,,0.881481481,-0.04537037,0,0,0,,0,44,44,106,1,CLUMS,HB,old,z,./images/CLUMSHB.png,,,,,,,,,,,,,,,,,,,,,,,,,,,,,,,,,,,
,,,,,,,,,,,,,,,,,59daff10e776fd00015ec7ec,32,2022-02-12_15h00.16.081,lexical_decision_task_DD_L2,2021.2.3,MacIntel,20.08838891,,,,,,,,,,,1.122,1,,,,,,,,,,,,,,z,1,1.122,,,,,,,,0.881481481,-0.04537037,0,0,0,,0,45,45,136,1,WERVE,HB,old,z,./images/WERVEHB.png,,,,,,,,,,,,,,,,,,,,,,,,,,,,,,,,,,,
,,,,,,,,,,,,,,,,,59daff10e776fd00015ec7ec,32,2022-02-12_15h00.16.081,lexical_decision_task_DD_L2,2021.2.3,MacIntel,20.08838891,,,,,,,,,,,1.068,1,,,,,,,,,,,,,,m,1,1.068,,,,,,,,0.881481481,-0.04537037,0,0,0,,0,46,46,51,1,ONION,HB,old,m,./images/ONIONHB.png,,,,,,,,,,,,,,,,,,,,,,,,,,,,,,,,,,,
,,,,,,,,,,,,,,,,,59daff10e776fd00015ec7ec,32,2022-02-12_15h00.16.081,lexical_decision_task_DD_L2,2021.2.3,MacIntel,20.08838891,,,,,,,,,,,0.65,1,,,,,,,,,,,,,,z,1,0.65,,,,,,,,0.881481481,-0.04537037,0,0,0,,0,47,47,150,1,NOOLS,C,old,z,./images/NOOLS.png,,,,,,,,,,,,,,,,,,,,,,,,,,,,,,,,,,,
,,,,,,,,,,,,,,,,,59daff10e776fd00015ec7ec,32,2022-02-12_15h00.16.081,lexical_decision_task_DD_L2,2021.2.3,MacIntel,20.08838891,,,,,,,,,,,0.675,1,,,,,,,,,,,,,,m,1,0.675,,,,,,,,0.881481481,-0.04537037,0,0,0,,0,48,48,45,1,KITTEN,HB,old,m,./images/KITTENHB.png,,,,,,,,,,,,,,,,,,,,,,,,,,,,,,,,,,,
,,,,,,,,,,,,,,,,,59daff10e776fd00015ec7ec,32,2022-02-12_15h00.16.081,lexical_decision_task_DD_L2,2021.2.3,MacIntel,20.08838891,,,,,,,,,,,0.993,1,,,,,,,,,,,,,,z,1,0.993,,,,,,,,0.881481481,-0.04537037,0,0,0,,0,49,49,100,1,DRIBS,HB,old,z,./images/DRIBSHB.png,,,,,,,,,,,,,,,,,,,,,,,,,,,,,,,,,,,
,,,,,,,,,,,,,,,,,59daff10e776fd00015ec7ec,32,2022-02-12_15h00.16.081,lexical_decision_task_DD_L2,2021.2.3,MacIntel,20.08838891,,,,,,,,,,,0.694,1,,,,,,,,,,,,,,z,1,0.694,,,,,,,,0.881481481,-0.04537037,0,0,0,,0,50,50,147,1,ZOLES,C,old,z,./images/ZOLES.png,,,,,,,,,,,,,,,,,,,,,,,,,,,,,,,,,,,
,,,,,,,,,,,,,,,,,59daff10e776fd00015ec7ec,32,2022-02-12_15h00.16.081,lexical_decision_task_DD_L2,2021.2.3,MacIntel,20.08838891,,,,,,,,,,,0.74,1,,,,,,,,,,,,,,m,1,0.74,,,,,,,,0.881481481,-0.04537037,0,0,0,,0,51,51,67,1,SAILOR,LB,old,m,./images/SAILORLB.png,,,,,,,,,,,,,,,,,,,,,,,,,,,,,,,,,,,
,,,,,,,,,,,,,,,,,59daff10e776fd00015ec7ec,32,2022-02-12_15h00.16.081,lexical_decision_task_DD_L2,2021.2.3,MacIntel,20.08838891,,,,,,,,,,,0.931,1,,,,,,,,,,,,,,z,1,0.931,,,,,,,,0.881481481,-0.04537037,0,0,0,,0,52,52,118,1,BAVEL,HB,old,z,./images/BAVELHB.png,,,,,,,,,,,,,,,,,,,,,,,,,,,,,,,,,,,
,,,,,,,,,,,,,,,,,59daff10e776fd00015ec7ec,32,2022-02-12_15h00.16.081,lexical_decision_task_DD_L2,2021.2.3,MacIntel,20.08838891,,,,,,,,,,,0.685,1,,,,,,,,,,,,,,z,1,0.685,,,,,,,,0.881481481,-0.04537037,0,0,0,,0,53,53,161,1,BLAPS,LB,old,z,./images/BLAPSLB.png,,,,,,,,,,,,,,,,,,,,,,,,,,,,,,,,,,,
,,,,,,,,,,,,,,,,,59daff10e776fd00015ec7ec,32,2022-02-12_15h00.16.081,lexical_decision_task_DD_L2,2021.2.3,MacIntel,20.08838891,,,,,,,,,,,0.842,1,,,,,,,,,,,,,,m,1,0.842,,,,,,,,0.881481481,-0.04537037,0,0,0,,0,54,54,48,1,SPORT,HB,old,m,./images/SPORTHB.png,,,,,,,,,,,,,,,,,,,,,,,,,,,,,,,,,,,
,,,,,,,,,,,,,,,,,59daff10e776fd00015ec7ec,32,2022-02-12_15h00.16.081,lexical_decision_task_DD_L2,2021.2.3,MacIntel,20.08838891,,,,,,,,,,,1.125,1,,,,,,,,,,,,,,z,1,1.125,,,,,,,,0.881481481,-0.04537037,0,0,0,,0,55,55,130,1,CRILL,HB,old,z,./images/CRILLHB.png,,,,,,,,,,,,,,,,,,,,,,,,,,,,,,,,,,,
,,,,,,,,,,,,,,,,,59daff10e776fd00015ec7ec,32,2022-02-12_15h00.16.081,lexical_decision_task_DD_L2,2021.2.3,MacIntel,20.08838891,,,,,,,,,,,0.784,1,,,,,,,,,,,,,,m,1,0.784,,,,,,,,0.881481481,-0.04537037,0,0,0,,0,56,56,41,1,STRING,C,old,m,./images/STRING.png,,,,,,,,,,,,,,,,,,,,,,,,,,,,,,,,,,,
,,,,,,,,,,,,,,,,,59daff10e776fd00015ec7ec,32,2022-02-12_15h00.16.081,lexical_decision_task_DD_L2,2021.2.3,MacIntel,20.08838891,,,,,,,,,,,1.256,1,,,,,,,,,,,,,,z,1,1.256,,,,,,,,0.881481481,-0.04537037,0,0,0,,0,57,57,98,1,BAMPS,LB,old,z,./images/BAMPSLB.png,,,,,,,,,,,,,,,,,,,,,,,,,,,,,,,,,,,
,,,,,,,,,,,,,,,,,59daff10e776fd00015ec7ec,32,2022-02-12_15h00.16.081,lexical_decision_task_DD_L2,2021.2.3,MacIntel,20.08838891,,,,,,,,,,,0.925,1,,,,,,,,,,,,,,m,1,0.925,,,,,,,,0.881481481,-0.04537037,0,0,0,,0,58,58,16,1,PENCE,LB,old,m,./images/PENCELB.png,,,,,,,,,,,,,,,,,,,,,,,,,,,,,,,,,,,
,,,,,,,,,,,,,,,,,59daff10e776fd00015ec7ec,32,2022-02-12_15h00.16.081,lexical_decision_task_DD_L2,2021.2.3,MacIntel,20.08838891,,,,,,,,,,,0.879,1,,,,,,,,,,,,,,m,1,0.879,,,,,,,,0.881481481,-0.04537037,0,0,0,,0,59,59,21,1,KIDNEY,HB,old,m,./images/KIDNEYHB.png,,,,,,,,,,,,,,,,,,,,,,,,,,,,,,,,,,,
,,,,,,,,,,,,,,,,,59daff10e776fd00015ec7ec,32,2022-02-12_15h00.16.081,lexical_decision_task_DD_L2,2021.2.3,MacIntel,20.08838891,,,,,,,,,,,1.218,0,,,,,,,,,,,,,,z,0,1.218,,,,,,,,0.881481481,-0.04537037,0,0,0,,0,60,60,33,1,MAGGOT,HB,old,m,./images/MAGGOTHB.png,,,,,,,,,,,,,,,,,,,,,,,,,,,,,,,,,,,
,,,,,,,,,,,,,,,,,59daff10e776fd00015ec7ec,32,2022-02-12_15h00.16.081,lexical_decision_task_DD_L2,2021.2.3,MacIntel,20.08838891,,,,,,,,,,,0.816,1,,,,,,,,,,,,,,z,1,0.816,,,,,,,,0.881481481,-0.04537037,0,0,0,,0,61,61,145,1,LAMEL,HB,old,z,./images/LAMELHB.png,,,,,,,,,,,,,,,,,,,,,,,,,,,,,,,,,,,
,,,,,,,,,,,,,,,,,59daff10e776fd00015ec7ec,32,2022-02-12_15h00.16.081,lexical_decision_task_DD_L2,2021.2.3,MacIntel,20.08838891,,,,,,,,,,,0.743,1,,,,,,,,,,,,,,z,1,0.743,,,,,,,,0.881481481,-0.04537037,0,0,0,,0,62,62,99,1,BACKY,C,old,z,./images/BACKY.png,,,,,,,,,,,,,,,,,,,,,,,,,,,,,,,,,,,
,,,,,,,,,,,,,,,,,59daff10e776fd00015ec7ec,32,2022-02-12_15h00.16.081,lexical_decision_task_DD_L2,2021.2.3,MacIntel,20.08838891,,,,,,,,,,,0.689,1,,,,,,,,,,,,,,z,1,0.689,,,,,,,,0.881481481,-0.04537037,0,0,0,,0,63,63,156,1,HIXES,C,old,z,./images/HIXES.png,,,,,,,,,,,,,,,,,,,,,,,,,,,,,,,,,,,
,,,,,,,,,,,,,,,,,59daff10e776fd00015ec7ec,32,2022-02-12_15h00.16.081,lexical_decision_task_DD_L2,2021.2.3,MacIntel,20.08838891,,,,,,,,,,,0.928,1,,,,,,,,,,,,,,z,1,0.928,,,,,,,,0.881481481,-0.04537037,0,0,0,,0,64,64,115,1,MAWNS,HB,old,z,./images/MAWNSHB.png,,,,,,,,,,,,,,,,,,,,,,,,,,,,,,,,,,,
,,,,,,,,,,,,,,,,,59daff10e776fd00015ec7ec,32,2022-02-12_15h00.16.081,lexical_decision_task_DD_L2,2021.2.3,MacIntel,20.08838891,,,,,,,,,,,0.749,1,,,,,,,,,,,,,,z,1,0.749,,,,,,,,0.881481481,-0.04537037,0,0,0,,0,65,65,132,1,SCIFF,C,old,z,./images/SCIFF.png,,,,,,,,,,,,,,,,,,,,,,,,,,,,,,,,,,,
,,,,,,,,,,,,,,,,,59daff10e776fd00015ec7ec,32,2022-02-12_15h00.16.081,lexical_decision_task_DD_L2,2021.2.3,MacIntel,20.08838891,,,,,,,,,,,0.961,1,,,,,,,,,,,,,,z,1,0.961,,,,,,,,0.881481481,-0.04537037,0,0,0,,0,66,66,121,1,CEERS,HB,old,z,./images/CEERSHB.png,,,,,,,,,,,,,,,,,,,,,,,,,,,,,,,,,,,
,,,,,,,,,,,,,,,,,59daff10e776fd00015ec7ec,32,2022-02-12_15h00.16.081,lexical_decision_task_DD_L2,2021.2.3,MacIntel,20.08838891,,,,,,,,,,,0.954,1,,,,,,,,,,,,,,z,1,0.954,,,,,,,,0.881481481,-0.04537037,0,0,0,,0,67,67,110,1,CRUNK,LB,old,z,./images/CRUNKLB.png,,,,,,,,,,,,,,,,,,,,,,,,,,,,,,,,,,,
,,,,,,,,,,,,,,,,,59daff10e776fd00015ec7ec,32,2022-02-12_15h00.16.081,lexical_decision_task_DD_L2,2021.2.3,MacIntel,20.08838891,,,,,,,,,,,0.649,1,,,,,,,,,,,,,,m,1,0.649,,,,,,,,0.881481481,-0.04537037,0,0,0,,0,68,68,66,1,SWEAT,HB,old,m,./images/SWEATHB.png,,,,,,,,,,,,,,,,,,,,,,,,,,,,,,,,,,,
,,,,,,,,,,,,,,,,,59daff10e776fd00015ec7ec,32,2022-02-12_15h00.16.081,lexical_decision_task_DD_L2,2021.2.3,MacIntel,20.08838891,,,,,,,,,,,0.69,1,,,,,,,,,,,,,,m,1,0.69,,,,,,,,0.881481481,-0.04537037,0,0,0,,0,69,69,74,1,CEMENT,C,old,m,./images/CEMENT.png,,,,,,,,,,,,,,,,,,,,,,,,,,,,,,,,,,,
,,,,,,,,,,,,,,,,,59daff10e776fd00015ec7ec,32,2022-02-12_15h00.16.081,lexical_decision_task_DD_L2,2021.2.3,MacIntel,20.08838891,,,,,,,,,,,0.651,1,,,,,,,,,,,,,,m,1,0.651,,,,,,,,0.881481481,-0.04537037,0,0,0,,0,70,70,62,1,PURSE,C,old,m,./images/PURSE.png,,,,,,,,,,,,,,,,,,,,,,,,,,,,,,,,,,,
,,,,,,,,,,,,,,,,,59daff10e776fd00015ec7ec,32,2022-02-12_15h00.16.081,lexical_decision_task_DD_L2,2021.2.3,MacIntel,20.08838891,,,,,,,,,,,0.637,1,,,,,,,,,,,,,,m,1,0.637,,,,,,,,0.881481481,-0.04537037,0,0,0,,0,71,71,82,1,SUNSET,LB,old,m,./images/SUNSETLB.png,,,,,,,,,,,,,,,,,,,,,,,,,,,,,,,,,,,
,,,,,,,,,,,,,,,,,59daff10e776fd00015ec7ec,32,2022-02-12_15h00.16.081,lexical_decision_task_DD_L2,2021.2.3,MacIntel,20.08838891,,,,,,,,,,,0.673,1,,,,,,,,,,,,,,m,1,0.673,,,,,,,,0.881481481,-0.04537037,0,0,0,,0,72,72,0,1,TOMATO,HB,old,m,./images/TOMATOHB.png,,,,,,,,,,,,,,,,,,,,,,,,,,,,,,,,,,,
,,,,,,,,,,,,,,,,,59daff10e776fd00015ec7ec,32,2022-02-12_15h00.16.081,lexical_decision_task_DD_L2,2021.2.3,MacIntel,20.08838891,,,,,,,,,,,0.797,1,,,,,,,,,,,,,,z,1,0.797,,,,,,,,0.881481481,-0.04537037,0,0,0,,0,73,73,97,1,CHIDS,HB,old,z,./images/CHIDSHB.png,,,,,,,,,,,,,,,,,,,,,,,,,,,,,,,,,,,
,,,,,,,,,,,,,,,,,59daff10e776fd00015ec7ec,32,2022-02-12_15h00.16.081,lexical_decision_task_DD_L2,2021.2.3,MacIntel,20.08838891,,,,,,,,,,,0.642,1,,,,,,,,,,,,,,m,1,0.642,,,,,,,,0.881481481,-0.04537037,0,0,0,,0,74,74,2,1,BEARD,C,old,m,./images/BEARD.png,,,,,,,,,,,,,,,,,,,,,,,,,,,,,,,,,,,
,,,,,,,,,,,,,,,,,59daff10e776fd00015ec7ec,32,2022-02-12_15h00.16.081,lexical_decision_task_DD_L2,2021.2.3,MacIntel,20.08838891,,,,,,,,,,,0.688,1,,,,,,,,,,,,,,m,1,0.688,,,,,,,,0.881481481,-0.04537037,0,0,0,,0,75,75,70,1,URINE,LB,old,m,./images/URINELB.png,,,,,,,,,,,,,,,,,,,,,,,,,,,,,,,,,,,
,,,,,,,,,,,,,,,,,59daff10e776fd00015ec7ec,32,2022-02-12_15h00.16.081,lexical_decision_task_DD_L2,2021.2.3,MacIntel,20.08838891,,,,,,,,,,,0.673,1,,,,,,,,,,,,,,z,1,0.673,,,,,,,,0.881481481,-0.04537037,0,0,0,,0,76,76,116,1,BALGY,LB,old,z,./images/BALGYLB.png,,,,,,,,,,,,,,,,,,,,,,,,,,,,,,,,,,,
,,,,,,,,,,,,,,,,,59daff10e776fd00015ec7ec,32,2022-02-12_15h00.16.081,lexical_decision_task_DD_L2,2021.2.3,MacIntel,20.08838891,,,,,,,,,,,0.771,1,,,,,,,,,,,,,,m,1,0.771,,,,,,,,0.881481481,-0.04537037,0,0,0,,0,77,77,15,1,GREASE,HB,old,m,./images/GREASEHB.png,,,,,,,,,,,,,,,,,,,,,,,,,,,,,,,,,,,
,,,,,,,,,,,,,,,,,59daff10e776fd00015ec7ec,32,2022-02-12_15h00.16.081,lexical_decision_task_DD_L2,2021.2.3,MacIntel,20.08838891,,,,,,,,,,,0.738,1,,,,,,,,,,,,,,m,1,0.738,,,,,,,,0.881481481,-0.04537037,0,0,0,,0,78,78,47,1,BERRY,C,old,m,./images/BERRY.png,,,,,,,,,,,,,,,,,,,,,,,,,,,,,,,,,,,
,,,,,,,,,,,,,,,,,59daff10e776fd00015ec7ec,32,2022-02-12_15h00.16.081,lexical_decision_task_DD_L2,2021.2.3,MacIntel,20.08838891,,,,,,,,,,,0.658,1,,,,,,,,,,,,,,m,1,0.658,,,,,,,,0.881481481,-0.04537037,0,0,0,,0,79,79,73,1,SNACK,LB,old,m,./images/SNACKLB.png,,,,,,,,,,,,,,,,,,,,,,,,,,,,,,,,,,,
,,,,,,,,,,,,,,,,,59daff10e776fd00015ec7ec,32,2022-02-12_15h00.16.081,lexical_decision_task_DD_L2,2021.2.3,MacIntel,20.08838891,,,,,,,,,,,0.681,1,,,,,,,,,,,,,,m,1,0.681,,,,,,,,0.881481481,-0.04537037,0,0,0,,0,80,80,46,1,PEARL,LB,old,m,./images/PEARLLB.png,,,,,,,,,,,,,,,,,,,,,,,,,,,,,,,,,,,
,,,,,,,,,,,,,,,,,59daff10e776fd00015ec7ec,32,2022-02-12_15h00.16.081,lexical_decision_task_DD_L2,2021.2.3,MacIntel,20.08838891,,,,,,,,,,,0.793,1,,,,,,,,,,,,,,z,1,0.793,,,,,,,,0.881481481,-0.04537037,0,0,0,,0,81,81,153,1,CLUPS,C,old,z,./images/CLUPS.png,,,,,,,,,,,,,,,,,,,,,,,,,,,,,,,,,,,
,,,,,,,,,,,,,,,,,59daff10e776fd00015ec7ec,32,2022-02-12_15h00.16.081,lexical_decision_task_DD_L2,2021.2.3,MacIntel,20.08838891,,,,,,,,,,,1.125,1,,,,,,,,,,,,,,z,1,1.125,,,,,,,,0.881481481,-0.04537037,0,0,0,,0,82,82,124,1,TUNCH,HB,old,z,./images/TUNCHHB.png,,,,,,,,,,,,,,,,,,,,,,,,,,,,,,,,,,,
,,,,,,,,,,,,,,,,,59daff10e776fd00015ec7ec,32,2022-02-12_15h00.16.081,lexical_decision_task_DD_L2,2021.2.3,MacIntel,20.08838891,,,,,,,,,,,0.69,1,,,,,,,,,,,,,,m,1,0.69,,,,,,,,0.881481481,-0.04537037,0,0,0,space,0,83,83,3,1,FINGER,HB,old,m,./images/FINGERHB.png,1.38,,,,,,,,,,,,,,,,,,,,,,,,,,,,,,,,,,
,,,,,,,,,,,,,,,,,59daff10e776fd00015ec7ec,32,2022-02-12_15h00.16.081,lexical_decision_task_DD_L2,2021.2.3,MacIntel,20.08838891,,,,,,,,,,,0.87,1,,,,,,,,,,,,,,m,1,0.87,,,,,,,,0.881481481,-0.04537037,0,0,0,,0,84,84,50,1,MALLET,C,old,m,./images/MALLET.png,,,,,,,,,,,,,,,,,,,,,,,,,,,,,,,,,,,
,,,,,,,,,,,,,,,,,59daff10e776fd00015ec7ec,32,2022-02-12_15h00.16.081,lexical_decision_task_DD_L2,2021.2.3,MacIntel,20.08838891,,,,,,,,,,,0.77,1,,,,,,,,,,,,,,z,1,0.77,,,,,,,,0.881481481,-0.04537037,0,0,0,,0,85,85,143,1,MONGS,LB,old,z,./images/MONGSLB.png,,,,,,,,,,,,,,,,,,,,,,,,,,,,,,,,,,,
,,,,,,,,,,,,,,,,,59daff10e776fd00015ec7ec,32,2022-02-12_15h00.16.081,lexical_decision_task_DD_L2,2021.2.3,MacIntel,20.08838891,,,,,,,,,,,0.814,1,,,,,,,,,,,,,,z,1,0.814,,,,,,,,0.881481481,-0.04537037,0,0,0,,0,86,86,146,1,MOOST,LB,old,z,./images/MOOSTLB.png,,,,,,,,,,,,,,,,,,,,,,,,,,,,,,,,,,,
,,,,,,,,,,,,,,,,,59daff10e776fd00015ec7ec,32,2022-02-12_15h00.16.081,lexical_decision_task_DD_L2,2021.2.3,MacIntel,20.08838891,,,,,,,,,,,0.721,1,,,,,,,,,,,,,,z,1,0.721,,,,,,,,0.881481481,-0.04537037,0,0,0,,0,87,87,122,1,BLOOT,LB,old,z,./images/BLOOTLB.png,,,,,,,,,,,,,,,,,,,,,,,,,,,,,,,,,,,
,,,,,,,,,,,,,,,,,59daff10e776fd00015ec7ec,32,2022-02-12_15h00.16.081,lexical_decision_task_DD_L2,2021.2.3,MacIntel,20.08838891,,,,,,,,,,,0.742,1,,,,,,,,,,,,,,m,1,0.742,,,,,,,,0.881481481,-0.04537037,0,0,0,,0,88,88,11,1,BONNET,C,old,m,./images/BONNET.png,,,,,,,,,,,,,,,,,,,,,,,,,,,,,,,,,,,
,,,,,,,,,,,,,,,,,59daff10e776fd00015ec7ec,32,2022-02-12_15h00.16.081,lexical_decision_task_DD_L2,2021.2.3,MacIntel,20.08838891,,,,,,,,,,,0.767,1,,,,,,,,,,,,,,z,1,0.767,,,,,,,,0.881481481,-0.04537037,0,0,0,,0,89,89,144,1,NAIRY,C,old,z,./images/NAIRY.png,,,,,,,,,,,,,,,,,,,,,,,,,,,,,,,,,,,
,,,,,,,,,,,,,,,,,59daff10e776fd00015ec7ec,32,2022-02-12_15h00.16.081,lexical_decision_task_DD_L2,2021.2.3,MacIntel,20.08838891,,,,,,,,,,,0.727,1,,,,,,,,,,,,,,m,1,0.727,,,,,,,,0.881481481,-0.04537037,0,0,0,,0,90,90,1,1,PLANK,LB,old,m,./images/PLANKLB.png,,,,,,,,,,,,,,,,,,,,,,,,,,,,,,,,,,,
,,,,,,,,,,,,,,,,,59daff10e776fd00015ec7ec,32,2022-02-12_15h00.16.081,lexical_decision_task_DD_L2,2021.2.3,MacIntel,20.08838891,,,,,,,,,,,0.648,1,,,,,,,,,,,,,,z,1,0.648,,,,,,,,0.881481481,-0.04537037,0,0,0,,0,91,91,155,1,CANGY,LB,old,z,./images/CANGYLB.png,,,,,,,,,,,,,,,,,,,,,,,,,,,,,,,,,,,
,,,,,,,,,,,,,,,,,59daff10e776fd00015ec7ec,32,2022-02-12_15h00.16.081,lexical_decision_task_DD_L2,2021.2.3,MacIntel,20.08838891,,,,,,,,,,,0.639,1,,,,,,,,,,,,,,z,1,0.639,,,,,,,,0.881481481,-0.04537037,0,0,0,,0,92,92,95,1,HANTY,LB,old,z,./images/HANTYLB.png,,,,,,,,,,,,,,,,,,,,,,,,,,,,,,,,,,,
,,,,,,,,,,,,,,,,,59daff10e776fd00015ec7ec,32,2022-02-12_15h00.16.081,lexical_decision_task_DD_L2,2021.2.3,MacIntel,20.08838891,,,,,,,,,,,0.608,1,,,,,,,,,,,,,,z,1,0.608,,,,,,,,0.881481481,-0.04537037,0,0,0,,0,93,93,96,1,KEAMS,C,old,z,./images/KEAMS.png,,,,,,,,,,,,,,,,,,,,,,,,,,,,,,,,,,,
,,,,,,,,,,,,,,,,,59daff10e776fd00015ec7ec,32,2022-02-12_15h00.16.081,lexical_decision_task_DD_L2,2021.2.3,MacIntel,20.08838891,,,,,,,,,,,0.641,1,,,,,,,,,,,,,,z,1,0.641,,,,,,,,0.881481481,-0.04537037,0,0,0,,0,94,94,105,1,MOKER,C,old,z,./images/MOKER.png,,,,,,,,,,,,,,,,,,,,,,,,,,,,,,,,,,,
,,,,,,,,,,,,,,,,,59daff10e776fd00015ec7ec,32,2022-02-12_15h00.16.081,lexical_decision_task_DD_L2,2021.2.3,MacIntel,20.08838891,,,,,,,,,,,0.631,1,,,,,,,,,,,,,,z,1,0.631,,,,,,,,0.881481481,-0.04537037,0,0,0,,0,95,95,131,1,NACES,LB,old,z,./images/NACESLB.png,,,,,,,,,,,,,,,,,,,,,,,,,,,,,,,,,,,
,,,,,,,,,,,,,,,,,59daff10e776fd00015ec7ec,32,2022-02-12_15h00.16.081,lexical_decision_task_DD_L2,2021.2.3,MacIntel,20.08838891,,,,,,,,,,,0.923,1,,,,,,,,,,,,,,m,1,0.923,,,,,,,,0.881481481,-0.04537037,0,0,0,,0,96,96,42,1,FOLDER,HB,old,m,./images/FOLDERHB.png,,,,,,,,,,,,,,,,,,,,,,,,,,,,,,,,,,,
,,,,,,,,,,,,,,,,,59daff10e776fd00015ec7ec,32,2022-02-12_15h00.16.081,lexical_decision_task_DD_L2,2021.2.3,MacIntel,20.08838891,,,,,,,,,,,0.698,1,,,,,,,,,,,,,,m,1,0.698,,,,,,,,0.881481481,-0.04537037,0,0,0,,0,97,97,83,1,JUNGLE,C,old,m,./images/JUNGLE.png,,,,,,,,,,,,,,,,,,,,,,,,,,,,,,,,,,,
,,,,,,,,,,,,,,,,,59daff10e776fd00015ec7ec,32,2022-02-12_15h00.16.081,lexical_decision_task_DD_L2,2021.2.3,MacIntel,20.08838891,,,,,,,,,,,1.329,1,,,,,,,,,,,,,,z,1,1.329,,,,,,,,0.881481481,-0.04537037,0,0,0,,0,98,98,160,1,VEETS,HB,old,z,./images/VEETSHB.png,,,,,,,,,,,,,,,,,,,,,,,,,,,,,,,,,,,
,,,,,,,,,,,,,,,,,59daff10e776fd00015ec7ec,32,2022-02-12_15h00.16.081,lexical_decision_task_DD_L2,2021.2.3,MacIntel,20.08838891,,,,,,,,,,,0.689,1,,,,,,,,,,,,,,m,1,0.689,,,,,,,,0.881481481,-0.04537037,0,0,0,,0,99,99,79,1,CRUST,LB,old,m,./images/CRUSTLB.png,,,,,,,,,,,,,,,,,,,,,,,,,,,,,,,,,,,
,,,,,,,,,,,,,,,,,59daff10e776fd00015ec7ec,32,2022-02-12_15h00.16.081,lexical_decision_task_DD_L2,2021.2.3,MacIntel,20.08838891,,,,,,,,,,,0.669,1,,,,,,,,,,,,,,z,1,0.669,,,,,,,,0.881481481,-0.04537037,0,0,0,,0,100,100,120,1,RINED,C,old,z,./images/RINED.png,,,,,,,,,,,,,,,,,,,,,,,,,,,,,,,,,,,
,,,,,,,,,,,,,,,,,59daff10e776fd00015ec7ec,32,2022-02-12_15h00.16.081,lexical_decision_task_DD_L2,2021.2.3,MacIntel,20.08838891,,,,,,,,,,,0.899,1,,,,,,,,,,,,,,z,1,0.899,,,,,,,,0.881481481,-0.04537037,0,0,0,,0,101,101,112,1,MYING,HB,old,z,./images/MYINGHB.png,,,,,,,,,,,,,,,,,,,,,,,,,,,,,,,,,,,
,,,,,,,,,,,,,,,,,59daff10e776fd00015ec7ec,32,2022-02-12_15h00.16.081,lexical_decision_task_DD_L2,2021.2.3,MacIntel,20.08838891,,,,,,,,,,,0.745,1,,,,,,,,,,,,,,m,1,0.745,,,,,,,,0.881481481,-0.04537037,0,0,0,,0,102,102,29,1,CRUMB,C,old,m,./images/CRUMB.png,,,,,,,,,,,,,,,,,,,,,,,,,,,,,,,,,,,
,,,,,,,,,,,,,,,,,59daff10e776fd00015ec7ec,32,2022-02-12_15h00.16.081,lexical_decision_task_DD_L2,2021.2.3,MacIntel,20.08838891,,,,,,,,,,,1.422,1,,,,,,,,,,,,,,z,1,1.422,,,,,,,,0.881481481,-0.04537037,0,0,0,,0,103,103,166,1,SHORY,HB,old,z,./images/SHORYHB.png,,,,,,,,,,,,,,,,,,,,,,,,,,,,,,,,,,,
,,,,,,,,,,,,,,,,,59daff10e776fd00015ec7ec,32,2022-02-12_15h00.16.081,lexical_decision_task_DD_L2,2021.2.3,MacIntel,20.08838891,,,,,,,,,,,0.945,0,,,,,,,,,,,,,,m,0,0.945,,,,,,,,0.881481481,-0.04537037,0,0,0,,0,104,104,140,1,DOVET,LB,old,z,./images/DOVETLB.png,,,,,,,,,,,,,,,,,,,,,,,,,,,,,,,,,,,
,,,,,,,,,,,,,,,,,59daff10e776fd00015ec7ec,32,2022-02-12_15h00.16.081,lexical_decision_task_DD_L2,2021.2.3,MacIntel,20.08838891,,,,,,,,,,,0.769,1,,,,,,,,,,,,,,m,1,0.769,,,,,,,,0.881481481,-0.04537037,0,0,0,,0,105,105,31,1,QUILL,LB,old,m,./images/QUILLLB.png,,,,,,,,,,,,,,,,,,,,,,,,,,,,,,,,,,,
,,,,,,,,,,,,,,,,,59daff10e776fd00015ec7ec,32,2022-02-12_15h00.16.081,lexical_decision_task_DD_L2,2021.2.3,MacIntel,20.08838891,,,,,,,,,,,0.646,1,,,,,,,,,,,,,,z,1,0.646,,,,,,,,0.881481481,-0.04537037,0,0,0,,0,106,106,137,1,JOOST,LB,old,z,./images/JOOSTLB.png,,,,,,,,,,,,,,,,,,,,,,,,,,,,,,,,,,,
,,,,,,,,,,,,,,,,,59daff10e776fd00015ec7ec,32,2022-02-12_15h00.16.081,lexical_decision_task_DD_L2,2021.2.3,MacIntel,20.08838891,,,,,,,,,,,0.682,1,,,,,,,,,,,,,,m,1,0.682,,,,,,,,0.881481481,-0.04537037,0,0,0,,0,107,107,77,1,COUCH,C,old,m,./images/COUCH.png,,,,,,,,,,,,,,,,,,,,,,,,,,,,,,,,,,,
,,,,,,,,,,,,,,,,,59daff10e776fd00015ec7ec,32,2022-02-12_15h00.16.081,lexical_decision_task_DD_L2,2021.2.3,MacIntel,20.08838891,,,,,,,,,,,0.657,1,,,,,,,,,,,,,,z,1,0.657,,,,,,,,0.881481481,-0.04537037,0,0,0,,0,108,108,117,1,STEEG,C,old,z,./images/STEEG.png,,,,,,,,,,,,,,,,,,,,,,,,,,,,,,,,,,,
,,,,,,,,,,,,,,,,,59daff10e776fd00015ec7ec,32,2022-02-12_15h00.16.081,lexical_decision_task_DD_L2,2021.2.3,MacIntel,20.08838891,,,,,,,,,,,0.899,1,,,,,,,,,,,,,,z,1,0.899,,,,,,,,0.881481481,-0.04537037,0,0,0,,0,109,109,127,1,NINDY,HB,old,z,./images/NINDYHB.png,,,,,,,,,,,,,,,,,,,,,,,,,,,,,,,,,,,
,,,,,,,,,,,,,,,,,59daff10e776fd00015ec7ec,32,2022-02-12_15h00.16.081,lexical_decision_task_DD_L2,2021.2.3,MacIntel,20.08838891,,,,,,,,,,,0.673,1,,,,,,,,,,,,,,m,1,0.673,,,,,,,,0.881481481,-0.04537037,0,0,0,,0,110,110,56,1,PACKET,C,old,m,./images/PACKET.png,,,,,,,,,,,,,,,,,,,,,,,,,,,,,,,,,,,
,,,,,,,,,,,,,,,,,59daff10e776fd00015ec7ec,32,2022-02-12_15h00.16.081,lexical_decision_task_DD_L2,2021.2.3,MacIntel,20.08838891,,,,,,,,,,,0.716,1,,,,,,,,,,,,,,m,1,0.716,,,,,,,,0.881481481,-0.04537037,0,0,0,,0,111,111,4,1,MUSCLE,LB,old,m,./images/MUSCLELB.png,,,,,,,,,,,,,,,,,,,,,,,,,,,,,,,,,,,
,,,,,,,,,,,,,,,,,59daff10e776fd00015ec7ec,32,2022-02-12_15h00.16.081,lexical_decision_task_DD_L2,2021.2.3,MacIntel,20.08838891,,,,,,,,,,,0.782,1,,,,,,,,,,,,,,m,1,0.782,,,,,,,,0.881481481,-0.04537037,0,0,0,,0,112,112,54,1,TRIPOD,HB,old,m,./images/TRIPODHB.png,,,,,,,,,,,,,,,,,,,,,,,,,,,,,,,,,,,
,,,,,,,,,,,,,,,,,59daff10e776fd00015ec7ec,32,2022-02-12_15h00.16.081,lexical_decision_task_DD_L2,2021.2.3,MacIntel,20.08838891,,,,,,,,,,,0.697,1,,,,,,,,,,,,,,z,1,0.697,,,,,,,,0.881481481,-0.04537037,0,0,0,,0,113,113,92,1,PAIMS,LB,old,z,./images/PAIMSLB.png,,,,,,,,,,,,,,,,,,,,,,,,,,,,,,,,,,,
,,,,,,,,,,,,,,,,,59daff10e776fd00015ec7ec,32,2022-02-12_15h00.16.081,lexical_decision_task_DD_L2,2021.2.3,MacIntel,20.08838891,,,,,,,,,,,1.224,1,,,,,,,,,,,,,,z,1,1.224,,,,,,,,0.881481481,-0.04537037,0,0,0,,0,114,114,91,1,SHENS,HB,old,z,./images/SHENSHB.png,,,,,,,,,,,,,,,,,,,,,,,,,,,,,,,,,,,
,,,,,,,,,,,,,,,,,59daff10e776fd00015ec7ec,32,2022-02-12_15h00.16.081,lexical_decision_task_DD_L2,2021.2.3,MacIntel,20.08838891,,,,,,,,,,,0.718,1,,,,,,,,,,,,,,m,1,0.718,,,,,,,,0.881481481,-0.04537037,0,0,0,,0,115,115,40,1,SWING,LB,old,m,./images/SWINGLB.png,,,,,,,,,,,,,,,,,,,,,,,,,,,,,,,,,,,
,,,,,,,,,,,,,,,,,59daff10e776fd00015ec7ec,32,2022-02-12_15h00.16.081,lexical_decision_task_DD_L2,2021.2.3,MacIntel,20.08838891,,,,,,,,,,,0.936,0,,,,,,,,,,,,,,m,0,0.936,,,,,,,,0.881481481,-0.04537037,0,0,0,,0,116,116,142,1,PLASK,HB,old,z,./images/PLASKHB.png,,,,,,,,,,,,,,,,,,,,,,,,,,,,,,,,,,,
,,,,,,,,,,,,,,,,,59daff10e776fd00015ec7ec,32,2022-02-12_15h00.16.081,lexical_decision_task_DD_L2,2021.2.3,MacIntel,20.08838891,,,,,,,,,,,1.038,1,,,,,,,,,,,,,,z,1,1.038,,,,,,,,0.881481481,-0.04537037,0,0,0,,0,117,117,157,1,INLER,HB,old,z,./images/INLERHB.png,,,,,,,,,,,,,,,,,,,,,,,,,,,,,,,,,,,
,,,,,,,,,,,,,,,,,59daff10e776fd00015ec7ec,32,2022-02-12_15h00.16.081,lexical_decision_task_DD_L2,2021.2.3,MacIntel,20.08838891,,,,,,,,,,,0.831,1,,,,,,,,,,,,,,m,1,0.831,,,,,,,,0.881481481,-0.04537037,0,0,0,,0,118,118,27,1,ATTIC,HB,old,m,./images/ATTICHB.png,,,,,,,,,,,,,,,,,,,,,,,,,,,,,,,,,,,
,,,,,,,,,,,,,,,,,59daff10e776fd00015ec7ec,32,2022-02-12_15h00.16.081,lexical_decision_task_DD_L2,2021.2.3,MacIntel,20.08838891,,,,,,,,,,,0.945,1,,,,,,,,,,,,,,z,1,0.945,,,,,,,,0.881481481,-0.04537037,0,0,0,,0,119,119,133,1,POWDY,HB,old,z,./images/POWDYHB.png,,,,,,,,,,,,,,,,,,,,,,,,,,,,,,,,,,,
,,,,,,,,,,,,,,,,,59daff10e776fd00015ec7ec,32,2022-02-12_15h00.16.081,lexical_decision_task_DD_L2,2021.2.3,MacIntel,20.08838891,,,,,,,,,,,0.931,1,,,,,,,,,,,,,,z,1,0.931,,,,,,,,0.881481481,-0.04537037,0,0,0,,0,120,120,154,1,THINT,HB,old,z,./images/THINTHB.png,,,,,,,,,,,,,,,,,,,,,,,,,,,,,,,,,,,
,,,,,,,,,,,,,,,,,59daff10e776fd00015ec7ec,32,2022-02-12_15h00.16.081,lexical_decision_task_DD_L2,2021.2.3,MacIntel,20.08838891,,,,,,,,,,,0.7,1,,,,,,,,,,,,,,m,1,0.7,,,,,,,,0.881481481,-0.04537037,0,0,0,,0,121,121,60,1,TWINS,HB,old,m,./images/TWINSHB.png,,,,,,,,,,,,,,,,,,,,,,,,,,,,,,,,,,,
,,,,,,,,,,,,,,,,,59daff10e776fd00015ec7ec,32,2022-02-12_15h00.16.081,lexical_decision_task_DD_L2,2021.2.3,MacIntel,20.08838891,,,,,,,,,,,0.607,1,,,,,,,,,,,,,,m,1,0.607,,,,,,,,0.881481481,-0.04537037,0,0,0,,0,122,122,14,1,PICKLE,C,old,m,./images/PICKLE.png,,,,,,,,,,,,,,,,,,,,,,,,,,,,,,,,,,,
,,,,,,,,,,,,,,,,,59daff10e776fd00015ec7ec,32,2022-02-12_15h00.16.081,lexical_decision_task_DD_L2,2021.2.3,MacIntel,20.08838891,,,,,,,,,,,0.604,1,,,,,,,,,,,,,,m,1,0.604,,,,,,,,0.881481481,-0.04537037,0,0,0,,0,123,123,65,1,FARMER,C,old,m,./images/FARMER.png,,,,,,,,,,,,,,,,,,,,,,,,,,,,,,,,,,,
,,,,,,,,,,,,,,,,,59daff10e776fd00015ec7ec,32,2022-02-12_15h00.16.081,lexical_decision_task_DD_L2,2021.2.3,MacIntel,20.08838891,,,,,,,,,,,1.067,1,,,,,,,,,,,,,,m,1,1.067,,,,,,,,0.881481481,-0.04537037,0,0,0,,0,124,124,17,1,SKIING,C,old,m,./images/SKIING.png,,,,,,,,,,,,,,,,,,,,,,,,,,,,,,,,,,,
,,,,,,,,,,,,,,,,,59daff10e776fd00015ec7ec,32,2022-02-12_15h00.16.081,lexical_decision_task_DD_L2,2021.2.3,MacIntel,20.08838891,,,,,,,,,,,0.696,1,,,,,,,,,,,,,,m,1,0.696,,,,,,,,0.881481481,-0.04537037,0,0,0,space,0,125,125,53,1,CARPET,C,old,m,./images/CARPET.png,7.051,,,,,,,,,,,,,,,,,,,,,,,,,,,,,,,,,,
,,,,,,,,,,,,,,,,,59daff10e776fd00015ec7ec,32,2022-02-12_15h00.16.081,lexical_decision_task_DD_L2,2021.2.3,MacIntel,20.08838891,,,,,,,,,,,0.854,1,,,,,,,,,,,,,,z,1,0.854,,,,,,,,0.881481481,-0.04537037,0,0,0,,0,126,126,85,1,CHULK,HB,old,z,./images/CHULKHB.png,,,,,,,,,,,,,,,,,,,,,,,,,,,,,,,,,,,
,,,,,,,,,,,,,,,,,59daff10e776fd00015ec7ec,32,2022-02-12_15h00.16.081,lexical_decision_task_DD_L2,2021.2.3,MacIntel,20.08838891,,,,,,,,,,,0.692,1,,,,,,,,,,,,,,m,1,0.692,,,,,,,,0.881481481,-0.04537037,0,0,0,,0,127,127,22,1,MELON,LB,old,m,./images/MELONLB.png,,,,,,,,,,,,,,,,,,,,,,,,,,,,,,,,,,,
,,,,,,,,,,,,,,,,,59daff10e776fd00015ec7ec,32,2022-02-12_15h00.16.081,lexical_decision_task_DD_L2,2021.2.3,MacIntel,20.08838891,,,,,,,,,,,0.63,1,,,,,,,,,,,,,,m,1,0.63,,,,,,,,0.881481481,-0.04537037,0,0,0,,0,128,128,52,1,BANNER,LB,old,m,./images/BANNERLB.png,,,,,,,,,,,,,,,,,,,,,,,,,,,,,,,,,,,
,,,,,,,,,,,,,,,,,59daff10e776fd00015ec7ec,32,2022-02-12_15h00.16.081,lexical_decision_task_DD_L2,2021.2.3,MacIntel,20.08838891,,,,,,,,,,,0.703,1,,,,,,,,,,,,,,m,1,0.703,,,,,,,,0.881481481,-0.04537037,0,0,0,,0,129,129,23,1,WALRUS,C,old,m,./images/WALRUS.png,,,,,,,,,,,,,,,,,,,,,,,,,,,,,,,,,,,
,,,,,,,,,,,,,,,,,59daff10e776fd00015ec7ec,32,2022-02-12_15h00.16.081,lexical_decision_task_DD_L2,2021.2.3,MacIntel,20.08838891,,,,,,,,,,,0.702,1,,,,,,,,,,,,,,z,1,0.702,,,,,,,,0.881481481,-0.04537037,0,0,0,,0,130,130,123,1,SEDGE,C,old,z,./images/SEDGE.png,,,,,,,,,,,,,,,,,,,,,,,,,,,,,,,,,,,
,,,,,,,,,,,,,,,,,59daff10e776fd00015ec7ec,32,2022-02-12_15h00.16.081,lexical_decision_task_DD_L2,2021.2.3,MacIntel,20.08838891,,,,,,,,,,,0.715,1,,,,,,,,,,,,,,m,1,0.715,,,,,,,,0.881481481,-0.04537037,0,0,0,,0,131,131,44,1,LIZARD,C,old,m,./images/LIZARD.png,,,,,,,,,,,,,,,,,,,,,,,,,,,,,,,,,,,
,,,,,,,,,,,,,,,,,59daff10e776fd00015ec7ec,32,2022-02-12_15h00.16.081,lexical_decision_task_DD_L2,2021.2.3,MacIntel,20.08838891,,,,,,,,,,,0.676,1,,,,,,,,,,,,,,z,1,0.676,,,,,,,,0.881481481,-0.04537037,0,0,0,,0,132,132,129,1,PRANS,C,old,z,./images/PRANS.png,,,,,,,,,,,,,,,,,,,,,,,,,,,,,,,,,,,
,,,,,,,,,,,,,,,,,59daff10e776fd00015ec7ec,32,2022-02-12_15h00.16.081,lexical_decision_task_DD_L2,2021.2.3,MacIntel,20.08838891,,,,,,,,,,,0.756,1,,,,,,,,,,,,,,z,1,0.756,,,,,,,,0.881481481,-0.04537037,0,0,0,,0,133,133,125,1,MOOKY,LB,old,z,./images/MOOKYLB.png,,,,,,,,,,,,,,,,,,,,,,,,,,,,,,,,,,,
,,,,,,,,,,,,,,,,,59daff10e776fd00015ec7ec,32,2022-02-12_15h00.16.081,lexical_decision_task_DD_L2,2021.2.3,MacIntel,20.08838891,,,,,,,,,,,0.663,1,,,,,,,,,,,,,,m,1,0.663,,,,,,,,0.881481481,-0.04537037,0,0,0,,0,134,134,7,1,PAINT,LB,old,m,./images/PAINTLB.png,,,,,,,,,,,,,,,,,,,,,,,,,,,,,,,,,,,
,,,,,,,,,,,,,,,,,59daff10e776fd00015ec7ec,32,2022-02-12_15h00.16.081,lexical_decision_task_DD_L2,2021.2.3,MacIntel,20.08838891,,,,,,,,,,,0.666,1,,,,,,,,,,,,,,m,1,0.666,,,,,,,,0.881481481,-0.04537037,0,0,0,,0,135,135,61,1,CANDLE,LB,old,m,./images/CANDLELB.png,,,,,,,,,,,,,,,,,,,,,,,,,,,,,,,,,,,
,,,,,,,,,,,,,,,,,59daff10e776fd00015ec7ec,32,2022-02-12_15h00.16.081,lexical_decision_task_DD_L2,2021.2.3,MacIntel,20.08838891,,,,,,,,,,,0.724,1,,,,,,,,,,,,,,m,1,0.724,,,,,,,,0.881481481,-0.04537037,0,0,0,,0,136,136,76,1,INFANT,LB,old,m,./images/INFANTLB.png,,,,,,,,,,,,,,,,,,,,,,,,,,,,,,,,,,,
,,,,,,,,,,,,,,,,,59daff10e776fd00015ec7ec,32,2022-02-12_15h00.16.081,lexical_decision_task_DD_L2,2021.2.3,MacIntel,20.08838891,,,,,,,,,,,0.686,1,,,,,,,,,,,,,,z,1,0.686,,,,,,,,0.881481481,-0.04537037,0,0,0,,0,137,137,164,1,SGREW,LB,old,z,./images/SGREWLB.png,,,,,,,,,,,,,,,,,,,,,,,,,,,,,,,,,,,
,,,,,,,,,,,,,,,,,59daff10e776fd00015ec7ec,32,2022-02-12_15h00.16.081,lexical_decision_task_DD_L2,2021.2.3,MacIntel,20.08838891,,,,,,,,,,,0.692,1,,,,,,,,,,,,,,m,1,0.692,,,,,,,,0.881481481,-0.04537037,0,0,0,,0,138,138,38,1,LADDER,C,old,m,./images/LADDER.png,,,,,,,,,,,,,,,,,,,,,,,,,,,,,,,,,,,
,,,,,,,,,,,,,,,,,59daff10e776fd00015ec7ec,32,2022-02-12_15h00.16.081,lexical_decision_task_DD_L2,2021.2.3,MacIntel,20.08838891,,,,,,,,,,,0.641,1,,,,,,,,,,,,,,z,1,0.641,,,,,,,,0.881481481,-0.04537037,0,0,0,,0,139,139,134,1,TROSS,LB,old,z,./images/TROSSLB.png,,,,,,,,,,,,,,,,,,,,,,,,,,,,,,,,,,,
,,,,,,,,,,,,,,,,,59daff10e776fd00015ec7ec,32,2022-02-12_15h00.16.081,lexical_decision_task_DD_L2,2021.2.3,MacIntel,20.08838891,,,,,,,,,,,0.749,1,,,,,,,,,,,,,,z,1,0.749,,,,,,,,0.881481481,-0.04537037,0,0,0,,0,140,140,111,1,HOSSE,C,old,z,./images/HOSSE.png,,,,,,,,,,,,,,,,,,,,,,,,,,,,,,,,,,,
,,,,,,,,,,,,,,,,,59daff10e776fd00015ec7ec,32,2022-02-12_15h00.16.081,lexical_decision_task_DD_L2,2021.2.3,MacIntel,20.08838891,,,,,,,,,,,1.082,1,,,,,,,,,,,,,,m,1,1.082,,,,,,,,0.881481481,-0.04537037,0,0,0,,0,141,141,34,1,CANYON,LB,old,m,./images/CANYONLB.png,,,,,,,,,,,,,,,,,,,,,,,,,,,,,,,,,,,
,,,,,,,,,,,,,,,,,59daff10e776fd00015ec7ec,32,2022-02-12_15h00.16.081,lexical_decision_task_DD_L2,2021.2.3,MacIntel,20.08838891,,,,,,,,,,,0.932,1,,,,,,,,,,,,,,z,1,0.932,,,,,,,,0.881481481,-0.04537037,0,0,0,,0,142,142,103,1,FLORT,HB,old,z,./images/FLORTHB.png,,,,,,,,,,,,,,,,,,,,,,,,,,,,,,,,,,,
,,,,,,,,,,,,,,,,,59daff10e776fd00015ec7ec,32,2022-02-12_15h00.16.081,lexical_decision_task_DD_L2,2021.2.3,MacIntel,20.08838891,,,,,,,,,,,0.713,1,,,,,,,,,,,,,,m,1,0.713,,,,,,,,0.881481481,-0.04537037,0,0,0,,0,143,143,80,1,WEASEL,C,old,m,./images/WEASEL.png,,,,,,,,,,,,,,,,,,,,,,,,,,,,,,,,,,,
,,,,,,,,,,,,,,,,,59daff10e776fd00015ec7ec,32,2022-02-12_15h00.16.081,lexical_decision_task_DD_L2,2021.2.3,MacIntel,20.08838891,,,,,,,,,,,0.834,1,,,,,,,,,,,,,,z,1,0.834,,,,,,,,0.881481481,-0.04537037,0,0,0,,0,144,144,159,1,CUDDY,C,old,z,./images/CUDDY.png,,,,,,,,,,,,,,,,,,,,,,,,,,,,,,,,,,,
,,,,,,,,,,,,,,,,,59daff10e776fd00015ec7ec,32,2022-02-12_15h00.16.081,lexical_decision_task_DD_L2,2021.2.3,MacIntel,20.08838891,,,,,,,,,,,0.899,1,,,,,,,,,,,,,,m,1,0.899,,,,,,,,0.881481481,-0.04537037,0,0,0,,0,145,145,9,1,RHINO,HB,old,m,./images/RHINOHB.png,,,,,,,,,,,,,,,,,,,,,,,,,,,,,,,,,,,
,,,,,,,,,,,,,,,,,59daff10e776fd00015ec7ec,32,2022-02-12_15h00.16.081,lexical_decision_task_DD_L2,2021.2.3,MacIntel,20.08838891,,,,,,,,,,,1.013,1,,,,,,,,,,,,,,m,1,1.013,,,,,,,,0.881481481,-0.04537037,0,0,0,,0,146,146,18,1,JAGUAR,HB,old,m,./images/JAGUARHB.png,,,,,,,,,,,,,,,,,,,,,,,,,,,,,,,,,,,
,,,,,,,,,,,,,,,,,59daff10e776fd00015ec7ec,32,2022-02-12_15h00.16.081,lexical_decision_task_DD_L2,2021.2.3,MacIntel,20.08838891,,,,,,,,,,,0.704,1,,,,,,,,,,,,,,z,1,0.704,,,,,,,,0.881481481,-0.04537037,0,0,0,,0,147,147,90,1,NEAST,C,old,z,./images/NEAST.png,,,,,,,,,,,,,,,,,,,,,,,,,,,,,,,,,,,
,,,,,,,,,,,,,,,,,59daff10e776fd00015ec7ec,32,2022-02-12_15h00.16.081,lexical_decision_task_DD_L2,2021.2.3,MacIntel,20.08838891,,,,,,,,,,,0.659,1,,,,,,,,,,,,,,m,1,0.659,,,,,,,,0.881481481,-0.04537037,0,0,0,,0,148,148,64,1,JELLY,LB,old,m,./images/JELLYLB.png,,,,,,,,,,,,,,,,,,,,,,,,,,,,,,,,,,,
,,,,,,,,,,,,,,,,,59daff10e776fd00015ec7ec,32,2022-02-12_15h00.16.081,lexical_decision_task_DD_L2,2021.2.3,MacIntel,20.08838891,,,,,,,,,,,0.866,1,,,,,,,,,,,,,,m,1,0.866,,,,,,,,0.881481481,-0.04537037,0,0,0,,0,149,149,43,1,MOSQUE,LB,old,m,./images/MOSQUELB.png,,,,,,,,,,,,,,,,,,,,,,,,,,,,,,,,,,,
,,,,,,,,,,,,,,,,,59daff10e776fd00015ec7ec,32,2022-02-12_15h00.16.081,lexical_decision_task_DD_L2,2021.2.3,MacIntel,20.08838891,,,,,,,,,,,0.904,1,,,,,,,,,,,,,,z,1,0.904,,,,,,,,0.881481481,-0.04537037,0,0,0,,0,150,150,88,1,GLUSH,HB,old,z,./images/GLUSHHB.png,,,,,,,,,,,,,,,,,,,,,,,,,,,,,,,,,,,
,,,,,,,,,,,,,,,,,59daff10e776fd00015ec7ec,32,2022-02-12_15h00.16.081,lexical_decision_task_DD_L2,2021.2.3,MacIntel,20.08838891,,,,,,,,,,,0.754,1,,,,,,,,,,,,,,z,1,0.754,,,,,,,,0.881481481,-0.04537037,0,0,0,,0,151,151,167,1,ZONET,LB,old,z,./images/ZONETLB.png,,,,,,,,,,,,,,,,,,,,,,,,,,,,,,,,,,,
,,,,,,,,,,,,,,,,,59daff10e776fd00015ec7ec,32,2022-02-12_15h00.16.081,lexical_decision_task_DD_L2,2021.2.3,MacIntel,20.08838891,,,,,,,,,,,0.782,1,,,,,,,,,,,,,,m,1,0.782,,,,,,,,0.881481481,-0.04537037,0,0,0,,0,152,152,81,1,POODLE,HB,old,m,./images/POODLEHB.png,,,,,,,,,,,,,,,,,,,,,,,,,,,,,,,,,,,
,,,,,,,,,,,,,,,,,59daff10e776fd00015ec7ec,32,2022-02-12_15h00.16.081,lexical_decision_task_DD_L2,2021.2.3,MacIntel,20.08838891,,,,,,,,,,,0.648,1,,,,,,,,,,,,,,z,1,0.648,,,,,,,,0.881481481,-0.04537037,0,0,0,,0,153,153,138,1,PLICE,C,old,z,./images/PLICE.png,,,,,,,,,,,,,,,,,,,,,,,,,,,,,,,,,,,
,,,,,,,,,,,,,,,,,59daff10e776fd00015ec7ec,32,2022-02-12_15h00.16.081,lexical_decision_task_DD_L2,2021.2.3,MacIntel,20.08838891,,,,,,,,,,,0.704,1,,,,,,,,,,,,,,m,1,0.704,,,,,,,,0.881481481,-0.04537037,0,0,0,,0,154,154,8,1,TULIP,C,old,m,./images/TULIP.png,,,,,,,,,,,,,,,,,,,,,,,,,,,,,,,,,,,
,,,,,,,,,,,,,,,,,59daff10e776fd00015ec7ec,32,2022-02-12_15h00.16.081,lexical_decision_task_DD_L2,2021.2.3,MacIntel,20.08838891,,,,,,,,,,,0.651,1,,,,,,,,,,,,,,z,1,0.651,,,,,,,,0.881481481,-0.04537037,0,0,0,,0,155,155,101,1,GLEET,LB,old,z,./images/GLEETLB.png,,,,,,,,,,,,,,,,,,,,,,,,,,,,,,,,,,,
,,,,,,,,,,,,,,,,,59daff10e776fd00015ec7ec,32,2022-02-12_15h00.16.081,lexical_decision_task_DD_L2,2021.2.3,MacIntel,20.08838891,,,,,,,,,,,0.931,1,,,,,,,,,,,,,,m,1,0.931,,,,,,,,0.881481481,-0.04537037,0,0,0,,0,156,156,72,1,NOOSE,HB,old,m,./images/NOOSEHB.png,,,,,,,,,,,,,,,,,,,,,,,,,,,,,,,,,,,
,,,,,,,,,,,,,,,,,59daff10e776fd00015ec7ec,32,2022-02-12_15h00.16.081,lexical_decision_task_DD_L2,2021.2.3,MacIntel,20.08838891,,,,,,,,,,,0.643,1,,,,,,,,,,,,,,z,1,0.643,,,,,,,,0.881481481,-0.04537037,0,0,0,,0,157,157,165,1,TROWN,C,old,z,./images/TROWN.png,,,,,,,,,,,,,,,,,,,,,,,,,,,,,,,,,,,
,,,,,,,,,,,,,,,,,59daff10e776fd00015ec7ec,32,2022-02-12_15h00.16.081,lexical_decision_task_DD_L2,2021.2.3,MacIntel,20.08838891,,,,,,,,,,,0.804,1,,,,,,,,,,,,,,m,1,0.804,,,,,,,,0.881481481,-0.04537037,0,0,0,,0,158,158,24,1,SCREW,HB,old,m,./images/SCREWHB.png,,,,,,,,,,,,,,,,,,,,,,,,,,,,,,,,,,,
,,,,,,,,,,,,,,,,,59daff10e776fd00015ec7ec,32,2022-02-12_15h00.16.081,lexical_decision_task_DD_L2,2021.2.3,MacIntel,20.08838891,,,,,,,,,,,0.809,1,,,,,,,,,,,,,,m,1,0.809,,,,,,,,0.881481481,-0.04537037,0,0,0,,0,159,159,59,1,BURIAL,C,old,m,./images/BURIAL.png,,,,,,,,,,,,,,,,,,,,,,,,,,,,,,,,,,,
,,,,,,,,,,,,,,,,,59daff10e776fd00015ec7ec,32,2022-02-12_15h00.16.081,lexical_decision_task_DD_L2,2021.2.3,MacIntel,20.08838891,,,,,,,,,,,0.818,1,,,,,,,,,,,,,,m,1,0.818,,,,,,,,0.881481481,-0.04537037,0,0,0,,0,160,160,75,1,GRAIN,HB,old,m,./images/GRAINHB.png,,,,,,,,,,,,,,,,,,,,,,,,,,,,,,,,,,,
,,,,,,,,,,,,,,,,,59daff10e776fd00015ec7ec,32,2022-02-12_15h00.16.081,lexical_decision_task_DD_L2,2021.2.3,MacIntel,20.08838891,,,,,,,,,,,1.055,1,,,,,,,,,,,,,,m,1,1.055,,,,,,,,0.881481481,-0.04537037,0,0,0,,0,161,161,69,1,COOKER,HB,old,m,./images/COOKERHB.png,,,,,,,,,,,,,,,,,,,,,,,,,,,,,,,,,,,
,,,,,,,,,,,,,,,,,59daff10e776fd00015ec7ec,32,2022-02-12_15h00.16.081,lexical_decision_task_DD_L2,2021.2.3,MacIntel,20.08838891,,,,,,,,,,,0.756,0,,,,,,,,,,,,,,m,0,0.756,,,,,,,,0.881481481,-0.04537037,0,0,0,,0,162,162,128,1,GRIFT,LB,old,z,./images/GRIFTLB.png,,,,,,,,,,,,,,,,,,,,,,,,,,,,,,,,,,,
,,,,,,,,,,,,,,,,,59daff10e776fd00015ec7ec,32,2022-02-12_15h00.16.081,lexical_decision_task_DD_L2,2021.2.3,MacIntel,20.08838891,,,,,,,,,,,0.938,1,,,,,,,,,,,,,,m,1,0.938,,,,,,,,0.881481481,-0.04537037,0,0,0,,0,163,163,58,1,BABOON,LB,old,m,./images/BABOONLB.png,,,,,,,,,,,,,,,,,,,,,,,,,,,,,,,,,,,
,,,,,,,,,,,,,,,,,59daff10e776fd00015ec7ec,32,2022-02-12_15h00.16.081,lexical_decision_task_DD_L2,2021.2.3,MacIntel,20.08838891,,,,,,,,,,,0.765,1,,,,,,,,,,,,,,m,1,0.765,,,,,,,,0.881481481,-0.04537037,0,0,0,,0,164,164,30,1,STORM,HB,old,m,./images/STORMHB.png,,,,,,,,,,,,,,,,,,,,,,,,,,,,,,,,,,,
,,,,,,,,,,,,,,,,,59daff10e776fd00015ec7ec,32,2022-02-12_15h00.16.081,lexical_decision_task_DD_L2,2021.2.3,MacIntel,20.08838891,,,,,,,,,,,0.689,1,,,,,,,,,,,,,,m,1,0.689,,,,,,,,0.881481481,-0.04537037,0,0,0,,0,165,165,6,1,SQUARE,HB,old,m,./images/SQUAREHB.png,,,,,,,,,,,,,,,,,,,,,,,,,,,,,,,,,,,
,,,,,,,,,,,,,,,,,59daff10e776fd00015ec7ec,32,2022-02-12_15h00.16.081,lexical_decision_task_DD_L2,2021.2.3,MacIntel,20.08838891,,,,,,,,,,,0.632,1,,,,,,,,,,,,,,m,1,0.632,,,,,,,,0.881481481,-0.04537037,0,0,0,,0,166,166,32,1,BARREL,C,old,m,./images/BARREL.png,,,,,,,,,,,,,,,,,,,,,,,,,,,,,,,,,,,
,,,,,,,,,,,,,,,,,59daff10e776fd00015ec7ec,32,2022-02-12_15h00.16.081,lexical_decision_task_DD_L2,2021.2.3,MacIntel,20.08838891,,,,,,,,,,,0.668,1,,,,,,,,,,,,,,m,1,0.668,,,,,,,,0.881481481,-0.04537037,0,0,0,,0,167,167,39,1,SHELF,HB,old,m,./images/SHELFHB.png,,,,,,,,,,,,,,,,,,,,,,,,,,,,,,,,,,,
,,,,,,,,,,,,,,,,,59daff10e776fd00015ec7ec,32,2022-02-12_15h00.16.081,lexical_decision_task_DD_L2,2021.2.3,MacIntel,20.08838891,,,,,,,,,,,,,,,,,,,,,,,,,,,,,,,,,,,,,,,,,,,,,,,,How likely will it be that you will recognize the words presented clearly on a scale of 0 (not likely) to 100 (most likely)?,,,,,-0.005555556,-0.400925926,1,0,0,jol_adv,6,5.855,0,0,0,0,1,,,,,,,,,,,,,,,,,,,,,
,,,,,,,,,,,,,,,,,59daff10e776fd00015ec7ec,32,2022-02-12_15h00.16.081,lexical_decision_task_DD_L2,2021.2.3,MacIntel,20.08838891,,,,,,,,,,,,,,,,,,,,,,,,,,,,,,,,,,,,,,,,,,,,,,,,How likely will it be that you will recognize the words presented slighly blurred on a scale of 0 (not likely) to 100 (most likely)?,,,,,,,,,,,5,4.013,0,1,1,1,1,,,,,,,,,,,,,,,,,,,,,
,,,,,,,,,,,,,,,,,59daff10e776fd00015ec7ec,32,2022-02-12_15h00.16.081,lexical_decision_task_DD_L2,2021.2.3,MacIntel,20.08838891,,,,,,,,,,,,,,,,,,,,,,,,,,,,,,,,,,,,,,,,,,,,,,,,How likely will it be that you will recognize the words presented very blurred on a scale of 0 (not likely) to 100 (most likely)?,,,,,,,,,,,3,2.996,0,2,2,2,1,,,,,,,,,,,,,,,,,,,,,
space,10.262,0.873148148,-0.132407407,0,0,0,,,,,,1,test,"In the next phase you will be presented with the words from the the first phase. Your job is to decide whether you remember seeing the word or not. If you remember seeing the word press ""old"" or type ""m"". If you do not remember seeing the word press ""new"" or type ""z"". Please press the space bar or click on continue to begin. ",,,59daff10e776fd00015ec7ec,32,2022-02-12_15h00.16.081,lexical_decision_task_DD_L2,2021.2.3,MacIntel,20.08838891,,,,,,,,,,,,,,,,,,,,,,,,,,,,,,,,,,,,,,,,,,,,,,,,,,,,,,,,,,,,,,,,,,0,0,0,0,1,,,,,,,,,,,,,,,,
space,2.906,0.666666667,-0.155555556,0,0,0,,,,,,1,test,"In the next phase you will be presented with the words from the the first phase. Your job is to decide whether you remember seeing the word or not. If you remember seeing the word press ""old"" or type ""m"". If you do not remember seeing the word press ""new"" or type ""z"". Please press the space bar or click on continue to begin. ",,,59daff10e776fd00015ec7ec,32,2022-02-12_15h00.16.081,lexical_decision_task_DD_L2,2021.2.3,MacIntel,20.08838891,,,,,,,,,,,,,,,,,,,,,,,,,,,,,,,,,,,,,,,,,,,,,,,,,,,,,,,,,,,,,,,,,,1,0,1,0,1,,,,,,,,,,,,,,,,
,,0.101851852,-0.413888889,1,0,0,,,,,,1,test,"In the next phase you will be presented with the words from the the first phase. Your job is to decide whether you remember seeing the word or not. If you remember seeing the word press ""old"" or type ""m"". If you do not remember seeing the word press ""new"" or type ""z"". Please press the space bar or click on continue to begin. ",,,59daff10e776fd00015ec7ec,32,2022-02-12_15h00.16.081,lexical_decision_task_DD_L2,2021.2.3,MacIntel,20.08838891,,,,,,,,,,,,,,,,,,,,,,,,,,,,,,,,,,,,,,,,,,,,,,,,,,,,,,,,,,,,,,,,,,2,0,2,0,1,instr_done_button,,,,,,,,,,,,,,,
,,0.006481481,-0.403703704,1,0,0,,,,,,1,test,"In the next phase you will be presented with the words from the the first phase. Your job is to decide whether you remember seeing the word or not. If you remember seeing the word press ""old"" or type ""m"". If you do not remember seeing the word press ""new"" or type ""z"". Please press the space bar or click on continue to begin. ",,,59daff10e776fd00015ec7ec,32,2022-02-12_15h00.16.081,lexical_decision_task_DD_L2,2021.2.3,MacIntel,20.08838891,,,,,,,,,,,,,,,,,,,,,,,,,,,,,,,,,,,,,,,,,,,,,,,,,,,,,,,,,,,,,,,,,,3,0,3,0,1,instr_done_button,,,,,,,,,,,,,,,
,,0.006481481,-0.403703704,1,0,0,,,,,,1,test,"In the next phase you will be presented with the words from the the first phase. Your job is to decide whether you remember seeing the word or not. If you remember seeing the word press ""old"" or type ""m"". If you do not remember seeing the word press ""new"" or type ""z"". Please press the space bar or click on continue to begin. ",,,59daff10e776fd00015ec7ec,32,2022-02-12_15h00.16.081,lexical_decision_task_DD_L2,2021.2.3,MacIntel,20.08838891,,,,,,,,,,,,,,,,,,,,,,,,,,,,,,,,,,,,,,,,,,,,,,,,,,,,,,,,,,,,,,,,,,4,0,4,0,1,instr_done_button,,,,,,,,,,,,,,,
,,,,,,,,,,,,,,,,,59daff10e776fd00015ec7ec,32,2022-02-12_15h00.16.081,lexical_decision_task_DD_L2,2021.2.3,MacIntel,20.08838891,,,,,,,,,,,1.463,0,,,,,,,,,,,,,,,,,,,,,,,,0.849074074,-0.125925926,0,0,0,,,,,,,BAKER,HB,z,y,./images/BAKERHB.png,,,,,,,,,,,,,,,,,,,,,m,0,1.463,,,,,,,,0,0,0,147,1
,,,,,,,,,,,,,,,,,59daff10e776fd00015ec7ec,32,2022-02-12_15h00.16.081,lexical_decision_task_DD_L2,2021.2.3,MacIntel,20.08838891,,,,,,,,,,,1.054,1,,,,,,,,,,,,,,,,,,,,,,,,0.849074074,-0.125925926,0,0,0,,,,,,,LIZARD,C,m,y,./images/LIZARD.png,,,,,,,,,,,,,,,,,,,,,m,1,1.054,,,,,,,,0,1,1,44,1
,,,,,,,,,,,,,,,,,59daff10e776fd00015ec7ec,32,2022-02-12_15h00.16.081,lexical_decision_task_DD_L2,2021.2.3,MacIntel,20.08838891,,,,,,,,,,,1.055,0,,,,,,,,,,,,,,,,,,,,,,,,0.849074074,-0.125925926,0,0,0,,,,,,,RAZOR,LB,z,y,./images/RAZORLB.png,,,,,,,,,,,,,,,,,,,,,m,0,1.055,,,,,,,,0,2,2,118,1
,,,,,,,,,,,,,,,,,59daff10e776fd00015ec7ec,32,2022-02-12_15h00.16.081,lexical_decision_task_DD_L2,2021.2.3,MacIntel,20.08838891,,,,,,,,,,,0.757,1,,,,,,,,,,,,,,,,,,,,,,,,0.849074074,-0.125925926,0,0,0,,,,,,,MIRROR,HB,m,y,./images/MIRRORHB.png,,,,,,,,,,,,,,,,,,,,,m,1,0.757,,,,,,,,0,3,3,63,1
,,,,,,,,,,,,,,,,,59daff10e776fd00015ec7ec,32,2022-02-12_15h00.16.081,lexical_decision_task_DD_L2,2021.2.3,MacIntel,20.08838891,,,,,,,,,,,0.925,1,,,,,,,,,,,,,,,,,,,,,,,,0.849074074,-0.125925926,0,0,0,,,,,,,TULIP,C,m,y,./images/TULIP.png,,,,,,,,,,,,,,,,,,,,,m,1,0.925,,,,,,,,0,4,4,8,1
,,,,,,,,,,,,,,,,,59daff10e776fd00015ec7ec,32,2022-02-12_15h00.16.081,lexical_decision_task_DD_L2,2021.2.3,MacIntel,20.08838891,,,,,,,,,,,0.899,1,,,,,,,,,,,,,,,,,,,,,,,,0.849074074,-0.125925926,0,0,0,,,,,,,GRANNY,C,z,y,./images/GRANNY.png,,,,,,,,,,,,,,,,,,,,,z,1,0.899,,,,,,,,0,5,5,104,1
,,,,,,,,,,,,,,,,,59daff10e776fd00015ec7ec,32,2022-02-12_15h00.16.081,lexical_decision_task_DD_L2,2021.2.3,MacIntel,20.08838891,,,,,,,,,,,0.815,1,,,,,,,,,,,,,,,,,,,,,,,,0.849074074,-0.125925926,0,0,0,,,,,,,HAMMER,HB,z,y,./images/HAMMERHB.png,,,,,,,,,,,,,,,,,,,,,z,1,0.815,,,,,,,,0,6,6,159,1
,,,,,,,,,,,,,,,,,59daff10e776fd00015ec7ec,32,2022-02-12_15h00.16.081,lexical_decision_task_DD_L2,2021.2.3,MacIntel,20.08838891,,,,,,,,,,,0.77,1,,,,,,,,,,,,,,,,,,,,,,,,0.849074074,-0.125925926,0,0,0,,,,,,,HOCKEY,C,z,y,./images/HOCKEY.png,,,,,,,,,,,,,,,,,,,,,z,1,0.77,,,,,,,,0,7,7,116,1
,,,,,,,,,,,,,,,,,59daff10e776fd00015ec7ec,32,2022-02-12_15h00.16.081,lexical_decision_task_DD_L2,2021.2.3,MacIntel,20.08838891,,,,,,,,,,,0.998,1,,,,,,,,,,,,,,,,,,,,,,,,0.849074074,-0.125925926,0,0,0,,,,,,,POODLE,HB,m,y,./images/POODLEHB.png,,,,,,,,,,,,,,,,,,,,,m,1,0.998,,,,,,,,0,8,8,81,1
,,,,,,,,,,,,,,,,,59daff10e776fd00015ec7ec,32,2022-02-12_15h00.16.081,lexical_decision_task_DD_L2,2021.2.3,MacIntel,20.08838891,,,,,,,,,,,0.859,1,,,,,,,,,,,,,,,,,,,,,,,,0.849074074,-0.125925926,0,0,0,,,,,,,BASKET,C,z,y,./images/BASKET.png,,,,,,,,,,,,,,,,,,,,,z,1,0.859,,,,,,,,0,9,9,128,1
,,,,,,,,,,,,,,,,,59daff10e776fd00015ec7ec,32,2022-02-12_15h00.16.081,lexical_decision_task_DD_L2,2021.2.3,MacIntel,20.08838891,,,,,,,,,,,1.078,0,,,,,,,,,,,,,,,,,,,,,,,,0.849074074,-0.125925926,0,0,0,,,,,,,ONION,HB,m,y,./images/ONIONHB.png,,,,,,,,,,,,,,,,,,,,,z,0,1.078,,,,,,,,0,10,10,51,1
,,,,,,,,,,,,,,,,,59daff10e776fd00015ec7ec,32,2022-02-12_15h00.16.081,lexical_decision_task_DD_L2,2021.2.3,MacIntel,20.08838891,,,,,,,,,,,1.312,1,,,,,,,,,,,,,,,,,,,,,,,,0.849074074,-0.125925926,0,0,0,,,,,,,MALLET,C,m,y,./images/MALLET.png,,,,,,,,,,,,,,,,,,,,,m,1,1.312,,,,,,,,0,11,11,50,1
,,,,,,,,,,,,,,,,,59daff10e776fd00015ec7ec,32,2022-02-12_15h00.16.081,lexical_decision_task_DD_L2,2021.2.3,MacIntel,20.08838891,,,,,,,,,,,0.865,1,,,,,,,,,,,,,,,,,,,,,,,,0.849074074,-0.125925926,0,0,0,,,,,,,JUMPER,C,z,y,./images/JUMPER.png,,,,,,,,,,,,,,,,,,,,,z,1,0.865,,,,,,,,0,12,12,158,1
,,,,,,,,,,,,,,,,,59daff10e776fd00015ec7ec,32,2022-02-12_15h00.16.081,lexical_decision_task_DD_L2,2021.2.3,MacIntel,20.08838891,,,,,,,,,,,0.745,0,,,,,,,,,,,,,,,,,,,,,,,,0.849074074,-0.125925926,0,0,0,,,,,,,SPORT,HB,m,y,./images/SPORTHB.png,,,,,,,,,,,,,,,,,,,,,z,0,0.745,,,,,,,,0,13,13,48,1
,,,,,,,,,,,,,,,,,59daff10e776fd00015ec7ec,32,2022-02-12_15h00.16.081,lexical_decision_task_DD_L2,2021.2.3,MacIntel,20.08838891,,,,,,,,,,,0.7,1,,,,,,,,,,,,,,,,,,,,,,,,0.849074074,-0.125925926,0,0,0,,,,,,,MAMMAL,C,z,y,./images/MAMMAL.png,,,,,,,,,,,,,,,,,,,,,z,1,0.7,,,,,,,,0,14,14,146,1
,,,,,,,,,,,,,,,,,59daff10e776fd00015ec7ec,32,2022-02-12_15h00.16.081,lexical_decision_task_DD_L2,2021.2.3,MacIntel,20.08838891,,,,,,,,,,,0.654,0,,,,,,,,,,,,,,,,,,,,,,,,0.849074074,-0.125925926,0,0,0,,,,,,,ATTIC,HB,m,y,./images/ATTICHB.png,,,,,,,,,,,,,,,,,,,,,z,0,0.654,,,,,,,,0,15,15,27,1
,,,,,,,,,,,,,,,,,59daff10e776fd00015ec7ec,32,2022-02-12_15h00.16.081,lexical_decision_task_DD_L2,2021.2.3,MacIntel,20.08838891,,,,,,,,,,,0.7,1,,,,,,,,,,,,,,,,,,,,,,,,0.849074074,-0.125925926,0,0,0,,,,,,,SHIELD,HB,z,y,./images/SHIELDHB.png,,,,,,,,,,,,,,,,,,,,,z,1,0.7,,,,,,,,0,16,16,132,1
,,,,,,,,,,,,,,,,,59daff10e776fd00015ec7ec,32,2022-02-12_15h00.16.081,lexical_decision_task_DD_L2,2021.2.3,MacIntel,20.08838891,,,,,,,,,,,0.843,1,,,,,,,,,,,,,,,,,,,,,,,,0.849074074,-0.125925926,0,0,0,,,,,,,COUCH,C,m,y,./images/COUCH.png,,,,,,,,,,,,,,,,,,,,,m,1,0.843,,,,,,,,0,17,17,77,1
,,,,,,,,,,,,,,,,,59daff10e776fd00015ec7ec,32,2022-02-12_15h00.16.081,lexical_decision_task_DD_L2,2021.2.3,MacIntel,20.08838891,,,,,,,,,,,0.652,1,,,,,,,,,,,,,,,,,,,,,,,,0.849074074,-0.125925926,0,0,0,,,,,,,FLESH,HB,z,y,./images/FLESHHB.png,,,,,,,,,,,,,,,,,,,,,z,1,0.652,,,,,,,,0,18,18,108,1
,,,,,,,,,,,,,,,,,59daff10e776fd00015ec7ec,32,2022-02-12_15h00.16.081,lexical_decision_task_DD_L2,2021.2.3,MacIntel,20.08838891,,,,,,,,,,,0.869,1,,,,,,,,,,,,,,,,,,,,,,,,0.849074074,-0.125925926,0,0,0,,,,,,,MELON,LB,m,y,./images/MELONLB.png,,,,,,,,,,,,,,,,,,,,,m,1,0.869,,,,,,,,0,19,19,22,1
,,,,,,,,,,,,,,,,,59daff10e776fd00015ec7ec,32,2022-02-12_15h00.16.081,lexical_decision_task_DD_L2,2021.2.3,MacIntel,20.08838891,,,,,,,,,,,0.742,1,,,,,,,,,,,,,,,,,,,,,,,,0.849074074,-0.125925926,0,0,0,,,,,,,SLOPE,HB,z,y,./images/SLOPEHB.png,,,,,,,,,,,,,,,,,,,,,z,1,0.742,,,,,,,,0,20,20,114,1
,,,,,,,,,,,,,,,,,59daff10e776fd00015ec7ec,32,2022-02-12_15h00.16.081,lexical_decision_task_DD_L2,2021.2.3,MacIntel,20.08838891,,,,,,,,,,,0.752,1,,,,,,,,,,,,,,,,,,,,,,,,0.849074074,-0.125925926,0,0,0,,,,,,,STREAM,C,z,y,./images/STREAM.png,,,,,,,,,,,,,,,,,,,,,z,1,0.752,,,,,,,,0,21,21,125,1
,,,,,,,,,,,,,,,,,59daff10e776fd00015ec7ec,32,2022-02-12_15h00.16.081,lexical_decision_task_DD_L2,2021.2.3,MacIntel,20.08838891,,,,,,,,,,,0.759,1,,,,,,,,,,,,,,,,,,,,,,,,0.849074074,-0.125925926,0,0,0,,,,,,,POKER,LB,z,y,./images/POKERLB.png,,,,,,,,,,,,,,,,,,,,,z,1,0.759,,,,,,,,0,22,22,151,1
,,,,,,,,,,,,,,,,,59daff10e776fd00015ec7ec,32,2022-02-12_15h00.16.081,lexical_decision_task_DD_L2,2021.2.3,MacIntel,20.08838891,,,,,,,,,,,0.757,1,,,,,,,,,,,,,,,,,,,,,,,,0.849074074,-0.125925926,0,0,0,,,,,,,BLOKE,HB,z,y,./images/BLOKEHB.png,,,,,,,,,,,,,,,,,,,,,z,1,0.757,,,,,,,,0,23,23,96,1
,,,,,,,,,,,,,,,,,59daff10e776fd00015ec7ec,32,2022-02-12_15h00.16.081,lexical_decision_task_DD_L2,2021.2.3,MacIntel,20.08838891,,,,,,,,,,,0.834,1,,,,,,,,,,,,,,,,,,,,,,,,0.849074074,-0.125925926,0,0,0,,,,,,,FARMER,C,m,y,./images/FARMER.png,,,,,,,,,,,,,,,,,,,,,m,1,0.834,,,,,,,,0,24,24,65,1
,,,,,,,,,,,,,,,,,59daff10e776fd00015ec7ec,32,2022-02-12_15h00.16.081,lexical_decision_task_DD_L2,2021.2.3,MacIntel,20.08838891,,,,,,,,,,,0.845,0,,,,,,,,,,,,,,,,,,,,,,,,0.849074074,-0.125925926,0,0,0,,,,,,,DOUGH,LB,m,y,./images/DOUGHLB.png,,,,,,,,,,,,,,,,,,,,,z,0,0.845,,,,,,,,0,25,25,19,1
,,,,,,,,,,,,,,,,,59daff10e776fd00015ec7ec,32,2022-02-12_15h00.16.081,lexical_decision_task_DD_L2,2021.2.3,MacIntel,20.08838891,,,,,,,,,,,0.678,1,,,,,,,,,,,,,,,,,,,,,,,,0.849074074,-0.125925926,0,0,0,,,,,,,WHEEL,C,z,y,./images/WHEEL.png,,,,,,,,,,,,,,,,,,,,,z,1,0.678,,,,,,,,0,26,26,161,1
,,,,,,,,,,,,,,,,,59daff10e776fd00015ec7ec,32,2022-02-12_15h00.16.081,lexical_decision_task_DD_L2,2021.2.3,MacIntel,20.08838891,,,,,,,,,,,0.749,1,,,,,,,,,,,,,,,,,,,,,,,,0.849074074,-0.125925926,0,0,0,,,,,,,DANCER,HB,z,y,./images/DANCERHB.png,,,,,,,,,,,,,,,,,,,,,z,1,0.749,,,,,,,,0,27,27,105,1
,,,,,,,,,,,,,,,,,59daff10e776fd00015ec7ec,32,2022-02-12_15h00.16.081,lexical_decision_task_DD_L2,2021.2.3,MacIntel,20.08838891,,,,,,,,,,,0.805,1,,,,,,,,,,,,,,,,,,,,,,,,0.849074074,-0.125925926,0,0,0,,,,,,,PARCEL,HB,z,y,./images/PARCELHB.png,,,,,,,,,,,,,,,,,,,,,z,1,0.805,,,,,,,,0,28,28,102,1
,,,,,,,,,,,,,,,,,59daff10e776fd00015ec7ec,32,2022-02-12_15h00.16.081,lexical_decision_task_DD_L2,2021.2.3,MacIntel,20.08838891,,,,,,,,,,,1.034,0,,,,,,,,,,,,,,,,,,,,,,,,0.849074074,-0.125925926,0,0,0,,,,,,,GRAIN,HB,m,y,./images/GRAINHB.png,,,,,,,,,,,,,,,,,,,,,z,0,1.034,,,,,,,,0,29,29,75,1
,,,,,,,,,,,,,,,,,59daff10e776fd00015ec7ec,32,2022-02-12_15h00.16.081,lexical_decision_task_DD_L2,2021.2.3,MacIntel,20.08838891,,,,,,,,,,,0.8,1,,,,,,,,,,,,,,,,,,,,,,,,0.849074074,-0.125925926,0,0,0,,,,,,,SHORE,HB,m,y,./images/SHOREHB.png,,,,,,,,,,,,,,,,,,,,,m,1,0.8,,,,,,,,0,30,30,12,1
,,,,,,,,,,,,,,,,,59daff10e776fd00015ec7ec,32,2022-02-12_15h00.16.081,lexical_decision_task_DD_L2,2021.2.3,MacIntel,20.08838891,,,,,,,,,,,1.154,1,,,,,,,,,,,,,,,,,,,,,,,,0.849074074,-0.125925926,0,0,0,,,,,,,RULER,LB,z,y,./images/RULERLB.png,,,,,,,,,,,,,,,,,,,,,z,1,1.154,,,,,,,,0,31,31,163,1
,,,,,,,,,,,,,,,,,59daff10e776fd00015ec7ec,32,2022-02-12_15h00.16.081,lexical_decision_task_DD_L2,2021.2.3,MacIntel,20.08838891,,,,,,,,,,,0.8,0,,,,,,,,,,,,,,,,,,,,,,,,0.849074074,-0.125925926,0,0,0,,,,,,,PURSE,C,m,y,./images/PURSE.png,,,,,,,,,,,,,,,,,,,,,z,0,0.8,,,,,,,,0,32,32,62,1
,,,,,,,,,,,,,,,,,59daff10e776fd00015ec7ec,32,2022-02-12_15h00.16.081,lexical_decision_task_DD_L2,2021.2.3,MacIntel,20.08838891,,,,,,,,,,,0.8,1,,,,,,,,,,,,,,,,,,,,,,,,0.849074074,-0.125925926,0,0,0,,,,,,,CRUMB,C,m,y,./images/CRUMB.png,,,,,,,,,,,,,,,,,,,,,m,1,0.8,,,,,,,,0,33,33,29,1
,,,,,,,,,,,,,,,,,59daff10e776fd00015ec7ec,32,2022-02-12_15h00.16.081,lexical_decision_task_DD_L2,2021.2.3,MacIntel,20.08838891,,,,,,,,,,,0.649,1,,,,,,,,,,,,,,,,,,,,,,,,0.849074074,-0.125925926,0,0,0,,,,,,,ALLEY,LB,z,y,./images/ALLEYLB.png,,,,,,,,,,,,,,,,,,,,,z,1,0.649,,,,,,,,0,34,34,139,1
,,,,,,,,,,,,,,,,,59daff10e776fd00015ec7ec,32,2022-02-12_15h00.16.081,lexical_decision_task_DD_L2,2021.2.3,MacIntel,20.08838891,,,,,,,,,,,0.744,0,,,,,,,,,,,,,,,,,,,,,,,,0.849074074,-0.125925926,0,0,0,,,,,,,PACKET,C,m,y,./images/PACKET.png,,,,,,,,,,,,,,,,,,,,,z,0,0.744,,,,,,,,0,35,35,56,1
,,,,,,,,,,,,,,,,,59daff10e776fd00015ec7ec,32,2022-02-12_15h00.16.081,lexical_decision_task_DD_L2,2021.2.3,MacIntel,20.08838891,,,,,,,,,,,0.754,1,,,,,,,,,,,,,,,,,,,,,,,,0.849074074,-0.125925926,0,0,0,,,,,,,PARADE,C,z,y,./images/PARADE.png,,,,,,,,,,,,,,,,,,,,,z,1,0.754,,,,,,,,0,36,36,101,1
,,,,,,,,,,,,,,,,,59daff10e776fd00015ec7ec,32,2022-02-12_15h00.16.081,lexical_decision_task_DD_L2,2021.2.3,MacIntel,20.08838891,,,,,,,,,,,0.723,0,,,,,,,,,,,,,,,,,,,,,,,,0.849074074,-0.125925926,0,0,0,,,,,,,FALCON,LB,m,y,./images/FALCONLB.png,,,,,,,,,,,,,,,,,,,,,z,0,0.723,,,,,,,,0,37,37,28,1
,,,,,,,,,,,,,,,,,59daff10e776fd00015ec7ec,32,2022-02-12_15h00.16.081,lexical_decision_task_DD_L2,2021.2.3,MacIntel,20.08838891,,,,,,,,,,,0.758,1,,,,,,,,,,,,,,,,,,,,,,,,0.849074074,-0.125925926,0,0,0,,,,,,,BANANA,LB,z,y,./images/BANANALB.png,,,,,,,,,,,,,,,,,,,,,z,1,0.758,,,,,,,,0,38,38,154,1
,,,,,,,,,,,,,,,,,59daff10e776fd00015ec7ec,32,2022-02-12_15h00.16.081,lexical_decision_task_DD_L2,2021.2.3,MacIntel,20.08838891,,,,,,,,,,,0.741,1,,,,,,,,,,,,,,,,,,,,,,,,0.849074074,-0.125925926,0,0,0,,,,,,,BUBBLE,C,z,y,./images/BUBBLE.png,,,,,,,,,,,,,,,,,,,,,z,1,0.741,,,,,,,,0,39,39,155,1
,,,,,,,,,,,,,,,,,59daff10e776fd00015ec7ec,32,2022-02-12_15h00.16.081,lexical_decision_task_DD_L2,2021.2.3,MacIntel,20.08838891,,,,,,,,,,,1.289,1,,,,,,,,,,,,,,,,,,,,,,,,0.849074074,-0.125925926,0,0,0,,,,,,,BABOON,LB,m,y,./images/BABOONLB.png,,,,,,,,,,,,,,,,,,,,,m,1,1.289,,,,,,,,0,40,40,58,1
,,,,,,,,,,,,,,,,,59daff10e776fd00015ec7ec,32,2022-02-12_15h00.16.081,lexical_decision_task_DD_L2,2021.2.3,MacIntel,20.08838891,,,,,,,,,,,0.781,1,,,,,,,,,,,,,,,,,,,,,,,,0.849074074,-0.125925926,0,0,0,space,,,,,,BUTTER,HB,z,y,./images/BUTTERHB.png,1.665,,,,,,,,,,,,,,,,,,,,z,1,0.781,,,,,,,,0,41,41,111,1
,,,,,,,,,,,,,,,,,59daff10e776fd00015ec7ec,32,2022-02-12_15h00.16.081,lexical_decision_task_DD_L2,2021.2.3,MacIntel,20.08838891,,,,,,,,,,,0.8,0,,,,,,,,,,,,,,,,,,,,,,,,0.849074074,-0.125925926,0,0,0,,,,,,,FOLDER,HB,m,y,./images/FOLDERHB.png,,,,,,,,,,,,,,,,,,,,,z,0,0.8,,,,,,,,0,42,42,42,1
,,,,,,,,,,,,,,,,,59daff10e776fd00015ec7ec,32,2022-02-12_15h00.16.081,lexical_decision_task_DD_L2,2021.2.3,MacIntel,20.08838891,,,,,,,,,,,0.981,1,,,,,,,,,,,,,,,,,,,,,,,,0.849074074,-0.125925926,0,0,0,,,,,,,RHINO,HB,m,y,./images/RHINOHB.png,,,,,,,,,,,,,,,,,,,,,m,1,0.981,,,,,,,,0,43,43,9,1
,,,,,,,,,,,,,,,,,59daff10e776fd00015ec7ec,32,2022-02-12_15h00.16.081,lexical_decision_task_DD_L2,2021.2.3,MacIntel,20.08838891,,,,,,,,,,,0.745,1,,,,,,,,,,,,,,,,,,,,,,,,0.849074074,-0.125925926,0,0,0,,,,,,,MUMMY,LB,z,y,./images/MUMMYLB.png,,,,,,,,,,,,,,,,,,,,,z,1,0.745,,,,,,,,0,44,44,130,1
,,,,,,,,,,,,,,,,,59daff10e776fd00015ec7ec,32,2022-02-12_15h00.16.081,lexical_decision_task_DD_L2,2021.2.3,MacIntel,20.08838891,,,,,,,,,,,0.671,1,,,,,,,,,,,,,,,,,,,,,,,,0.849074074,-0.125925926,0,0,0,,,,,,,LLAMA,C,z,y,./images/LLAMA.png,,,,,,,,,,,,,,,,,,,,,z,1,0.671,,,,,,,,0,45,45,119,1
,,,,,,,,,,,,,,,,,59daff10e776fd00015ec7ec,32,2022-02-12_15h00.16.081,lexical_decision_task_DD_L2,2021.2.3,MacIntel,20.08838891,,,,,,,,,,,0.832,1,,,,,,,,,,,,,,,,,,,,,,,,0.849074074,-0.125925926,0,0,0,,,,,,,SMOKER,C,m,y,./images/SMOKER.png,,,,,,,,,,,,,,,,,,,,,m,1,0.832,,,,,,,,0,46,46,26,1
,,,,,,,,,,,,,,,,,59daff10e776fd00015ec7ec,32,2022-02-12_15h00.16.081,lexical_decision_task_DD_L2,2021.2.3,MacIntel,20.08838891,,,,,,,,,,,1.264,0,,,,,,,,,,,,,,,,,,,,,,,,0.849074074,-0.125925926,0,0,0,,,,,,,PEACH,C,m,y,./images/PEACH.png,,,,,,,,,,,,,,,,,,,,,z,0,1.264,,,,,,,,0,47,47,35,1
,,,,,,,,,,,,,,,,,59daff10e776fd00015ec7ec,32,2022-02-12_15h00.16.081,lexical_decision_task_DD_L2,2021.2.3,MacIntel,20.08838891,,,,,,,,,,,0.771,0,,,,,,,,,,,,,,,,,,,,,,,,0.849074074,-0.125925926,0,0,0,,,,,,,MUSCLE,LB,m,y,./images/MUSCLELB.png,,,,,,,,,,,,,,,,,,,,,z,0,0.771,,,,,,,,0,48,48,4,1
,,,,,,,,,,,,,,,,,59daff10e776fd00015ec7ec,32,2022-02-12_15h00.16.081,lexical_decision_task_DD_L2,2021.2.3,MacIntel,20.08838891,,,,,,,,,,,0.87,0,,,,,,,,,,,,,,,,,,,,,,,,0.849074074,-0.125925926,0,0,0,,,,,,,CRADLE,C,m,y,./images/CRADLE.png,,,,,,,,,,,,,,,,,,,,,z,0,0.87,,,,,,,,0,49,49,20,1
,,,,,,,,,,,,,,,,,59daff10e776fd00015ec7ec,32,2022-02-12_15h00.16.081,lexical_decision_task_DD_L2,2021.2.3,MacIntel,20.08838891,,,,,,,,,,,1,1,,,,,,,,,,,,,,,,,,,,,,,,0.849074074,-0.125925926,0,0,0,,,,,,,LADDER,C,m,y,./images/LADDER.png,,,,,,,,,,,,,,,,,,,,,m,1,1,,,,,,,,0,50,50,38,1
,,,,,,,,,,,,,,,,,59daff10e776fd00015ec7ec,32,2022-02-12_15h00.16.081,lexical_decision_task_DD_L2,2021.2.3,MacIntel,20.08838891,,,,,,,,,,,0.733,1,,,,,,,,,,,,,,,,,,,,,,,,0.849074074,-0.125925926,0,0,0,,,,,,,CLOUD,C,z,y,./images/CLOUD.png,,,,,,,,,,,,,,,,,,,,,z,1,0.733,,,,,,,,0,51,51,110,1
,,,,,,,,,,,,,,,,,59daff10e776fd00015ec7ec,32,2022-02-12_15h00.16.081,lexical_decision_task_DD_L2,2021.2.3,MacIntel,20.08838891,,,,,,,,,,,0.82,0,,,,,,,,,,,,,,,,,,,,,,,,0.849074074,-0.125925926,0,0,0,,,,,,,MOOSE,HB,m,y,./images/MOOSEHB.png,,,,,,,,,,,,,,,,,,,,,z,0,0.82,,,,,,,,0,52,52,57,1
,,,,,,,,,,,,,,,,,59daff10e776fd00015ec7ec,32,2022-02-12_15h00.16.081,lexical_decision_task_DD_L2,2021.2.3,MacIntel,20.08838891,,,,,,,,,,,0.679,0,,,,,,,,,,,,,,,,,,,,,,,,0.849074074,-0.125925926,0,0,0,,,,,,,PIMPLE,C,m,y,./images/PIMPLE.png,,,,,,,,,,,,,,,,,,,,,z,0,0.679,,,,,,,,0,53,53,71,1
,,,,,,,,,,,,,,,,,59daff10e776fd00015ec7ec,32,2022-02-12_15h00.16.081,lexical_decision_task_DD_L2,2021.2.3,MacIntel,20.08838891,,,,,,,,,,,0.686,1,,,,,,,,,,,,,,,,,,,,,,,,0.849074074,-0.125925926,0,0,0,,,,,,,ARROW,HB,z,y,./images/ARROWHB.png,,,,,,,,,,,,,,,,,,,,,z,1,0.686,,,,,,,,0,54,54,153,1
,,,,,,,,,,,,,,,,,59daff10e776fd00015ec7ec,32,2022-02-12_15h00.16.081,lexical_decision_task_DD_L2,2021.2.3,MacIntel,20.08838891,,,,,,,,,,,0.753,0,,,,,,,,,,,,,,,,,,,,,,,,0.849074074,-0.125925926,0,0,0,,,,,,,QUILL,LB,m,y,./images/QUILLLB.png,,,,,,,,,,,,,,,,,,,,,z,0,0.753,,,,,,,,0,55,55,31,1
,,,,,,,,,,,,,,,,,59daff10e776fd00015ec7ec,32,2022-02-12_15h00.16.081,lexical_decision_task_DD_L2,2021.2.3,MacIntel,20.08838891,,,,,,,,,,,0.77,1,,,,,,,,,,,,,,,,,,,,,,,,0.849074074,-0.125925926,0,0,0,,,,,,,HEATER,C,z,y,./images/HEATER.png,,,,,,,,,,,,,,,,,,,,,z,1,0.77,,,,,,,,0,56,56,140,1
,,,,,,,,,,,,,,,,,59daff10e776fd00015ec7ec,32,2022-02-12_15h00.16.081,lexical_decision_task_DD_L2,2021.2.3,MacIntel,20.08838891,,,,,,,,,,,1.104,1,,,,,,,,,,,,,,,,,,,,,,,,0.849074074,-0.125925926,0,0,0,,,,,,,SHELF,HB,m,y,./images/SHELFHB.png,,,,,,,,,,,,,,,,,,,,,m,1,1.104,,,,,,,,0,57,57,39,1
,,,,,,,,,,,,,,,,,59daff10e776fd00015ec7ec,32,2022-02-12_15h00.16.081,lexical_decision_task_DD_L2,2021.2.3,MacIntel,20.08838891,,,,,,,,,,,0.77,0,,,,,,,,,,,,,,,,,,,,,,,,0.849074074,-0.125925926,0,0,0,,,,,,,TRIPOD,HB,m,y,./images/TRIPODHB.png,,,,,,,,,,,,,,,,,,,,,z,0,0.77,,,,,,,,0,58,58,54,1
,,,,,,,,,,,,,,,,,59daff10e776fd00015ec7ec,32,2022-02-12_15h00.16.081,lexical_decision_task_DD_L2,2021.2.3,MacIntel,20.08838891,,,,,,,,,,,0.634,1,,,,,,,,,,,,,,,,,,,,,,,,0.849074074,-0.125925926,0,0,0,,,,,,,STAIN,HB,z,y,./images/STAINHB.png,,,,,,,,,,,,,,,,,,,,,z,1,0.634,,,,,,,,0,59,59,90,1
,,,,,,,,,,,,,,,,,59daff10e776fd00015ec7ec,32,2022-02-12_15h00.16.081,lexical_decision_task_DD_L2,2021.2.3,MacIntel,20.08838891,,,,,,,,,,,0.792,0,,,,,,,,,,,,,,,,,,,,,,,,0.849074074,-0.125925926,0,0,0,,,,,,,MAGGOT,HB,m,y,./images/MAGGOTHB.png,,,,,,,,,,,,,,,,,,,,,z,0,0.792,,,,,,,,0,60,60,33,1
,,,,,,,,,,,,,,,,,59daff10e776fd00015ec7ec,32,2022-02-12_15h00.16.081,lexical_decision_task_DD_L2,2021.2.3,MacIntel,20.08838891,,,,,,,,,,,0.912,1,,,,,,,,,,,,,,,,,,,,,,,,0.849074074,-0.125925926,0,0,0,,,,,,,CRUST,LB,m,y,./images/CRUSTLB.png,,,,,,,,,,,,,,,,,,,,,m,1,0.912,,,,,,,,0,61,61,79,1
,,,,,,,,,,,,,,,,,59daff10e776fd00015ec7ec,32,2022-02-12_15h00.16.081,lexical_decision_task_DD_L2,2021.2.3,MacIntel,20.08838891,,,,,,,,,,,0.812,1,,,,,,,,,,,,,,,,,,,,,,,,0.849074074,-0.125925926,0,0,0,,,,,,,BISHOP,LB,z,y,./images/BISHOPLB.png,,,,,,,,,,,,,,,,,,,,,z,1,0.812,,,,,,,,0,62,62,133,1
,,,,,,,,,,,,,,,,,59daff10e776fd00015ec7ec,32,2022-02-12_15h00.16.081,lexical_decision_task_DD_L2,2021.2.3,MacIntel,20.08838891,,,,,,,,,,,0.772,1,,,,,,,,,,,,,,,,,,,,,,,,0.849074074,-0.125925926,0,0,0,,,,,,,JAGUAR,HB,m,y,./images/JAGUARHB.png,,,,,,,,,,,,,,,,,,,,,m,1,0.772,,,,,,,,0,63,63,18,1
,,,,,,,,,,,,,,,,,59daff10e776fd00015ec7ec,32,2022-02-12_15h00.16.081,lexical_decision_task_DD_L2,2021.2.3,MacIntel,20.08838891,,,,,,,,,,,0.842,1,,,,,,,,,,,,,,,,,,,,,,,,0.849074074,-0.125925926,0,0,0,,,,,,,MOSQUE,LB,m,y,./images/MOSQUELB.png,,,,,,,,,,,,,,,,,,,,,m,1,0.842,,,,,,,,0,64,64,43,1
,,,,,,,,,,,,,,,,,59daff10e776fd00015ec7ec,32,2022-02-12_15h00.16.081,lexical_decision_task_DD_L2,2021.2.3,MacIntel,20.08838891,,,,,,,,,,,0.764,1,,,,,,,,,,,,,,,,,,,,,,,,0.849074074,-0.125925926,0,0,0,,,,,,,BOXER,LB,z,y,./images/BOXERLB.png,,,,,,,,,,,,,,,,,,,,,z,1,0.764,,,,,,,,0,65,65,88,1
,,,,,,,,,,,,,,,,,59daff10e776fd00015ec7ec,32,2022-02-12_15h00.16.081,lexical_decision_task_DD_L2,2021.2.3,MacIntel,20.08838891,,,,,,,,,,,0.776,0,,,,,,,,,,,,,,,,,,,,,,,,0.849074074,-0.125925926,0,0,0,,,,,,,PICKLE,C,m,y,./images/PICKLE.png,,,,,,,,,,,,,,,,,,,,,z,0,0.776,,,,,,,,0,66,66,14,1
,,,,,,,,,,,,,,,,,59daff10e776fd00015ec7ec,32,2022-02-12_15h00.16.081,lexical_decision_task_DD_L2,2021.2.3,MacIntel,20.08838891,,,,,,,,,,,0.76,0,,,,,,,,,,,,,,,,,,,,,,,,0.849074074,-0.125925926,0,0,0,,,,,,,WRIST,LB,m,y,./images/WRISTLB.png,,,,,,,,,,,,,,,,,,,,,z,0,0.76,,,,,,,,0,67,67,25,1
,,,,,,,,,,,,,,,,,59daff10e776fd00015ec7ec,32,2022-02-12_15h00.16.081,lexical_decision_task_DD_L2,2021.2.3,MacIntel,20.08838891,,,,,,,,,,,0.831,0,,,,,,,,,,,,,,,,,,,,,,,,0.849074074,-0.125925926,0,0,0,,,,,,,JELLY,LB,m,y,./images/JELLYLB.png,,,,,,,,,,,,,,,,,,,,,z,0,0.831,,,,,,,,0,68,68,64,1
,,,,,,,,,,,,,,,,,59daff10e776fd00015ec7ec,32,2022-02-12_15h00.16.081,lexical_decision_task_DD_L2,2021.2.3,MacIntel,20.08838891,,,,,,,,,,,0.7,1,,,,,,,,,,,,,,,,,,,,,,,,0.849074074,-0.125925926,0,0,0,,,,,,,CANOE,LB,z,y,./images/CANOELB.png,,,,,,,,,,,,,,,,,,,,,z,1,0.7,,,,,,,,0,69,69,142,1
,,,,,,,,,,,,,,,,,59daff10e776fd00015ec7ec,32,2022-02-12_15h00.16.081,lexical_decision_task_DD_L2,2021.2.3,MacIntel,20.08838891,,,,,,,,,,,0.702,0,,,,,,,,,,,,,,,,,,,,,,,,0.849074074,-0.125925926,0,0,0,,,,,,,NOOSE,HB,m,y,./images/NOOSEHB.png,,,,,,,,,,,,,,,,,,,,,z,0,0.702,,,,,,,,0,70,70,72,1
,,,,,,,,,,,,,,,,,59daff10e776fd00015ec7ec,32,2022-02-12_15h00.16.081,lexical_decision_task_DD_L2,2021.2.3,MacIntel,20.08838891,,,,,,,,,,,0.77,1,,,,,,,,,,,,,,,,,,,,,,,,0.849074074,-0.125925926,0,0,0,,,,,,,ARTIST,LB,z,y,./images/ARTISTLB.png,,,,,,,,,,,,,,,,,,,,,z,1,0.77,,,,,,,,0,71,71,145,1
,,,,,,,,,,,,,,,,,59daff10e776fd00015ec7ec,32,2022-02-12_15h00.16.081,lexical_decision_task_DD_L2,2021.2.3,MacIntel,20.08838891,,,,,,,,,,,0.789,1,,,,,,,,,,,,,,,,,,,,,,,,0.849074074,-0.125925926,0,0,0,,,,,,,MIDGET,LB,z,y,./images/MIDGETLB.png,,,,,,,,,,,,,,,,,,,,,z,1,0.789,,,,,,,,0,72,72,160,1
,,,,,,,,,,,,,,,,,59daff10e776fd00015ec7ec,32,2022-02-12_15h00.16.081,lexical_decision_task_DD_L2,2021.2.3,MacIntel,20.08838891,,,,,,,,,,,0.773,1,,,,,,,,,,,,,,,,,,,,,,,,0.849074074,-0.125925926,0,0,0,,,,,,,PEBBLE,LB,z,y,./images/PEBBLELB.png,,,,,,,,,,,,,,,,,,,,,z,1,0.773,,,,,,,,0,73,73,166,1
,,,,,,,,,,,,,,,,,59daff10e776fd00015ec7ec,32,2022-02-12_15h00.16.081,lexical_decision_task_DD_L2,2021.2.3,MacIntel,20.08838891,,,,,,,,,,,0.911,1,,,,,,,,,,,,,,,,,,,,,,,,0.849074074,-0.125925926,0,0,0,,,,,,,GLOVE,LB,z,y,./images/GLOVELB.png,,,,,,,,,,,,,,,,,,,,,z,1,0.911,,,,,,,,0,74,74,157,1
,,,,,,,,,,,,,,,,,59daff10e776fd00015ec7ec,32,2022-02-12_15h00.16.081,lexical_decision_task_DD_L2,2021.2.3,MacIntel,20.08838891,,,,,,,,,,,0.796,1,,,,,,,,,,,,,,,,,,,,,,,,0.849074074,-0.125925926,0,0,0,,,,,,,MEDAL,C,z,y,./images/MEDAL.png,,,,,,,,,,,,,,,,,,,,,z,1,0.796,,,,,,,,0,75,75,95,1
,,,,,,,,,,,,,,,,,59daff10e776fd00015ec7ec,32,2022-02-12_15h00.16.081,lexical_decision_task_DD_L2,2021.2.3,MacIntel,20.08838891,,,,,,,,,,,1.018,0,,,,,,,,,,,,,,,,,,,,,,,,0.849074074,-0.125925926,0,0,0,,,,,,,URINE,LB,m,y,./images/URINELB.png,,,,,,,,,,,,,,,,,,,,,z,0,1.018,,,,,,,,0,76,76,70,1
,,,,,,,,,,,,,,,,,59daff10e776fd00015ec7ec,32,2022-02-12_15h00.16.081,lexical_decision_task_DD_L2,2021.2.3,MacIntel,20.08838891,,,,,,,,,,,0.831,1,,,,,,,,,,,,,,,,,,,,,,,,0.849074074,-0.125925926,0,0,0,,,,,,,BOILER,HB,z,y,./images/BOILERHB.png,,,,,,,,,,,,,,,,,,,,,z,1,0.831,,,,,,,,0,77,77,120,1
,,,,,,,,,,,,,,,,,59daff10e776fd00015ec7ec,32,2022-02-12_15h00.16.081,lexical_decision_task_DD_L2,2021.2.3,MacIntel,20.08838891,,,,,,,,,,,0.86,1,,,,,,,,,,,,,,,,,,,,,,,,0.849074074,-0.125925926,0,0,0,,,,,,,STORM,HB,m,y,./images/STORMHB.png,,,,,,,,,,,,,,,,,,,,,m,1,0.86,,,,,,,,0,78,78,30,1
,,,,,,,,,,,,,,,,,59daff10e776fd00015ec7ec,32,2022-02-12_15h00.16.081,lexical_decision_task_DD_L2,2021.2.3,MacIntel,20.08838891,,,,,,,,,,,0.665,1,,,,,,,,,,,,,,,,,,,,,,,,0.849074074,-0.125925926,0,0,0,,,,,,,ENGINE,C,z,y,./images/ENGINE.png,,,,,,,,,,,,,,,,,,,,,z,1,0.665,,,,,,,,0,79,79,122,1
,,,,,,,,,,,,,,,,,59daff10e776fd00015ec7ec,32,2022-02-12_15h00.16.081,lexical_decision_task_DD_L2,2021.2.3,MacIntel,20.08838891,,,,,,,,,,,0.72,0,,,,,,,,,,,,,,,,,,,,,,,,0.849074074,-0.125925926,0,0,0,,,,,,,BELLY,LB,m,y,./images/BELLYLB.png,,,,,,,,,,,,,,,,,,,,,z,0,0.72,,,,,,,,0,80,80,10,1
,,,,,,,,,,,,,,,,,59daff10e776fd00015ec7ec,32,2022-02-12_15h00.16.081,lexical_decision_task_DD_L2,2021.2.3,MacIntel,20.08838891,,,,,,,,,,,0.917,1,,,,,,,,,,,,,,,,,,,,,,,,0.849074074,-0.125925926,0,0,0,,,,,,,CANDLE,LB,m,y,./images/CANDLELB.png,,,,,,,,,,,,,,,,,,,,,m,1,0.917,,,,,,,,0,81,81,61,1
,,,,,,,,,,,,,,,,,59daff10e776fd00015ec7ec,32,2022-02-12_15h00.16.081,lexical_decision_task_DD_L2,2021.2.3,MacIntel,20.08838891,,,,,,,,,,,0.872,1,,,,,,,,,,,,,,,,,,,,,,,,0.849074074,-0.125925926,0,0,0,,,,,,,LAGOON,C,z,y,./images/LAGOON.png,,,,,,,,,,,,,,,,,,,,,z,1,0.872,,,,,,,,0,82,82,131,1
,,,,,,,,,,,,,,,,,59daff10e776fd00015ec7ec,32,2022-02-12_15h00.16.081,lexical_decision_task_DD_L2,2021.2.3,MacIntel,20.08838891,,,,,,,,,,,0.768,0,,,,,,,,,,,,,,,,,,,,,,,,0.849074074,-0.125925926,0,0,0,space,,,,,,SWEAT,HB,m,y,./images/SWEATHB.png,1.26,,,,,,,,,,,,,,,,,,,,z,0,0.768,,,,,,,,0,83,83,66,1
,,,,,,,,,,,,,,,,,59daff10e776fd00015ec7ec,32,2022-02-12_15h00.16.081,lexical_decision_task_DD_L2,2021.2.3,MacIntel,20.08838891,,,,,,,,,,,0.652,0,,,,,,,,,,,,,,,,,,,,,,,,0.849074074,-0.125925926,0,0,0,,,,,,,SWING,LB,m,y,./images/SWINGLB.png,,,,,,,,,,,,,,,,,,,,,z,0,0.652,,,,,,,,0,84,84,40,1
,,,,,,,,,,,,,,,,,59daff10e776fd00015ec7ec,32,2022-02-12_15h00.16.081,lexical_decision_task_DD_L2,2021.2.3,MacIntel,20.08838891,,,,,,,,,,,0.889,0,,,,,,,,,,,,,,,,,,,,,,,,0.849074074,-0.125925926,0,0,0,,,,,,,WEASEL,C,m,y,./images/WEASEL.png,,,,,,,,,,,,,,,,,,,,,z,0,0.889,,,,,,,,0,85,85,80,1
,,,,,,,,,,,,,,,,,59daff10e776fd00015ec7ec,32,2022-02-12_15h00.16.081,lexical_decision_task_DD_L2,2021.2.3,MacIntel,20.08838891,,,,,,,,,,,1.072,1,,,,,,,,,,,,,,,,,,,,,,,,0.849074074,-0.125925926,0,0,0,,,,,,,DIVER,HB,z,y,./images/DIVERHB.png,,,,,,,,,,,,,,,,,,,,,z,1,1.072,,,,,,,,0,86,86,93,1
,,,,,,,,,,,,,,,,,59daff10e776fd00015ec7ec,32,2022-02-12_15h00.16.081,lexical_decision_task_DD_L2,2021.2.3,MacIntel,20.08838891,,,,,,,,,,,1.069,1,,,,,,,,,,,,,,,,,,,,,,,,0.849074074,-0.125925926,0,0,0,,,,,,,BANNER,LB,m,y,./images/BANNERLB.png,,,,,,,,,,,,,,,,,,,,,m,1,1.069,,,,,,,,0,87,87,52,1
,,,,,,,,,,,,,,,,,59daff10e776fd00015ec7ec,32,2022-02-12_15h00.16.081,lexical_decision_task_DD_L2,2021.2.3,MacIntel,20.08838891,,,,,,,,,,,0.873,0,,,,,,,,,,,,,,,,,,,,,,,,0.849074074,-0.125925926,0,0,0,,,,,,,SUNSET,LB,m,y,./images/SUNSETLB.png,,,,,,,,,,,,,,,,,,,,,z,0,0.873,,,,,,,,0,88,88,82,1
,,,,,,,,,,,,,,,,,59daff10e776fd00015ec7ec,32,2022-02-12_15h00.16.081,lexical_decision_task_DD_L2,2021.2.3,MacIntel,20.08838891,,,,,,,,,,,0.909,0,,,,,,,,,,,,,,,,,,,,,,,,0.849074074,-0.125925926,0,0,0,,,,,,,CANYON,LB,m,y,./images/CANYONLB.png,,,,,,,,,,,,,,,,,,,,,z,0,0.909,,,,,,,,0,89,89,34,1
,,,,,,,,,,,,,,,,,59daff10e776fd00015ec7ec,32,2022-02-12_15h00.16.081,lexical_decision_task_DD_L2,2021.2.3,MacIntel,20.08838891,,,,,,,,,,,0.865,1,,,,,,,,,,,,,,,,,,,,,,,,0.849074074,-0.125925926,0,0,0,,,,,,,COLLAR,HB,z,y,./images/COLLARHB.png,,,,,,,,,,,,,,,,,,,,,z,1,0.865,,,,,,,,0,90,90,99,1
,,,,,,,,,,,,,,,,,59daff10e776fd00015ec7ec,32,2022-02-12_15h00.16.081,lexical_decision_task_DD_L2,2021.2.3,MacIntel,20.08838891,,,,,,,,,,,0.898,0,,,,,,,,,,,,,,,,,,,,,,,,0.849074074,-0.125925926,0,0,0,,,,,,,FERRY,HB,z,y,./images/FERRYHB.png,,,,,,,,,,,,,,,,,,,,,m,0,0.898,,,,,,,,0,91,91,141,1
,,,,,,,,,,,,,,,,,59daff10e776fd00015ec7ec,32,2022-02-12_15h00.16.081,lexical_decision_task_DD_L2,2021.2.3,MacIntel,20.08838891,,,,,,,,,,,0.996,1,,,,,,,,,,,,,,,,,,,,,,,,0.849074074,-0.125925926,0,0,0,,,,,,,KITTEN,HB,m,y,./images/KITTENHB.png,,,,,,,,,,,,,,,,,,,,,m,1,0.996,,,,,,,,0,92,92,45,1
,,,,,,,,,,,,,,,,,59daff10e776fd00015ec7ec,32,2022-02-12_15h00.16.081,lexical_decision_task_DD_L2,2021.2.3,MacIntel,20.08838891,,,,,,,,,,,0.729,1,,,,,,,,,,,,,,,,,,,,,,,,0.849074074,-0.125925926,0,0,0,,,,,,,PISTOL,C,z,y,./images/PISTOL.png,,,,,,,,,,,,,,,,,,,,,z,1,0.729,,,,,,,,0,93,93,113,1
,,,,,,,,,,,,,,,,,59daff10e776fd00015ec7ec,32,2022-02-12_15h00.16.081,lexical_decision_task_DD_L2,2021.2.3,MacIntel,20.08838891,,,,,,,,,,,0.72,0,,,,,,,,,,,,,,,,,,,,,,,,0.849074074,-0.125925926,0,0,0,,,,,,,STRING,C,m,y,./images/STRING.png,,,,,,,,,,,,,,,,,,,,,z,0,0.72,,,,,,,,0,94,94,41,1
,,,,,,,,,,,,,,,,,59daff10e776fd00015ec7ec,32,2022-02-12_15h00.16.081,lexical_decision_task_DD_L2,2021.2.3,MacIntel,20.08838891,,,,,,,,,,,1.389,1,,,,,,,,,,,,,,,,,,,,,,,,0.849074074,-0.125925926,0,0,0,,,,,,,WALNUT,HB,z,y,./images/WALNUTHB.png,,,,,,,,,,,,,,,,,,,,,z,1,1.389,,,,,,,,0,95,95,84,1
,,,,,,,,,,,,,,,,,59daff10e776fd00015ec7ec,32,2022-02-12_15h00.16.081,lexical_decision_task_DD_L2,2021.2.3,MacIntel,20.08838891,,,,,,,,,,,1.03,1,,,,,,,,,,,,,,,,,,,,,,,,0.849074074,-0.125925926,0,0,0,,,,,,,SNAKE,LB,z,y,./images/SNAKELB.png,,,,,,,,,,,,,,,,,,,,,z,1,1.03,,,,,,,,0,96,96,124,1
,,,,,,,,,,,,,,,,,59daff10e776fd00015ec7ec,32,2022-02-12_15h00.16.081,lexical_decision_task_DD_L2,2021.2.3,MacIntel,20.08838891,,,,,,,,,,,0.87,0,,,,,,,,,,,,,,,,,,,,,,,,0.849074074,-0.125925926,0,0,0,,,,,,,TORCH,C,m,y,./images/TORCH.png,,,,,,,,,,,,,,,,,,,,,z,0,0.87,,,,,,,,0,97,97,68,1
,,,,,,,,,,,,,,,,,59daff10e776fd00015ec7ec,32,2022-02-12_15h00.16.081,lexical_decision_task_DD_L2,2021.2.3,MacIntel,20.08838891,,,,,,,,,,,0.847,0,,,,,,,,,,,,,,,,,,,,,,,,0.849074074,-0.125925926,0,0,0,,,,,,,CLIFF,C,z,y,./images/CLIFF.png,,,,,,,,,,,,,,,,,,,,,m,0,0.847,,,,,,,,0,98,98,92,1
,,,,,,,,,,,,,,,,,59daff10e776fd00015ec7ec,32,2022-02-12_15h00.16.081,lexical_decision_task_DD_L2,2021.2.3,MacIntel,20.08838891,,,,,,,,,,,0.807,1,,,,,,,,,,,,,,,,,,,,,,,,0.849074074,-0.125925926,0,0,0,,,,,,,GRAPE,LB,z,y,./images/GRAPELB.png,,,,,,,,,,,,,,,,,,,,,z,1,0.807,,,,,,,,0,99,99,100,1
,,,,,,,,,,,,,,,,,59daff10e776fd00015ec7ec,32,2022-02-12_15h00.16.081,lexical_decision_task_DD_L2,2021.2.3,MacIntel,20.08838891,,,,,,,,,,,0.817,1,,,,,,,,,,,,,,,,,,,,,,,,0.849074074,-0.125925926,0,0,0,,,,,,,CHALK,LB,z,y,./images/CHALKLB.png,,,,,,,,,,,,,,,,,,,,,z,1,0.817,,,,,,,,0,100,100,109,1
,,,,,,,,,,,,,,,,,59daff10e776fd00015ec7ec,32,2022-02-12_15h00.16.081,lexical_decision_task_DD_L2,2021.2.3,MacIntel,20.08838891,,,,,,,,,,,1.097,1,,,,,,,,,,,,,,,,,,,,,,,,0.849074074,-0.125925926,0,0,0,,,,,,,STOOL,LB,z,y,./images/STOOLLB.png,,,,,,,,,,,,,,,,,,,,,z,1,1.097,,,,,,,,0,101,101,127,1
,,,,,,,,,,,,,,,,,59daff10e776fd00015ec7ec,32,2022-02-12_15h00.16.081,lexical_decision_task_DD_L2,2021.2.3,MacIntel,20.08838891,,,,,,,,,,,1.008,0,,,,,,,,,,,,,,,,,,,,,,,,0.849074074,-0.125925926,0,0,0,,,,,,,FINGER,HB,m,y,./images/FINGERHB.png,,,,,,,,,,,,,,,,,,,,,z,0,1.008,,,,,,,,0,102,102,3,1
,,,,,,,,,,,,,,,,,59daff10e776fd00015ec7ec,32,2022-02-12_15h00.16.081,lexical_decision_task_DD_L2,2021.2.3,MacIntel,20.08838891,,,,,,,,,,,0.688,1,,,,,,,,,,,,,,,,,,,,,,,,0.849074074,-0.125925926,0,0,0,,,,,,,VALLEY,C,z,y,./images/VALLEY.png,,,,,,,,,,,,,,,,,,,,,z,1,0.688,,,,,,,,0,103,103,152,1
,,,,,,,,,,,,,,,,,59daff10e776fd00015ec7ec,32,2022-02-12_15h00.16.081,lexical_decision_task_DD_L2,2021.2.3,MacIntel,20.08838891,,,,,,,,,,,0.7,1,,,,,,,,,,,,,,,,,,,,,,,,0.849074074,-0.125925926,0,0,0,,,,,,,BRIDE,LB,z,y,./images/BRIDELB.png,,,,,,,,,,,,,,,,,,,,,z,1,0.7,,,,,,,,0,104,104,148,1
,,,,,,,,,,,,,,,,,59daff10e776fd00015ec7ec,32,2022-02-12_15h00.16.081,lexical_decision_task_DD_L2,2021.2.3,MacIntel,20.08838891,,,,,,,,,,,0.973,1,,,,,,,,,,,,,,,,,,,,,,,,0.849074074,-0.125925926,0,0,0,,,,,,,CANDY,HB,z,y,./images/CANDYHB.png,,,,,,,,,,,,,,,,,,,,,z,1,0.973,,,,,,,,0,105,105,123,1
,,,,,,,,,,,,,,,,,59daff10e776fd00015ec7ec,32,2022-02-12_15h00.16.081,lexical_decision_task_DD_L2,2021.2.3,MacIntel,20.08838891,,,,,,,,,,,1.221,1,,,,,,,,,,,,,,,,,,,,,,,,0.849074074,-0.125925926,0,0,0,,,,,,,CARPET,C,m,y,./images/CARPET.png,,,,,,,,,,,,,,,,,,,,,m,1,1.221,,,,,,,,0,106,106,53,1
,,,,,,,,,,,,,,,,,59daff10e776fd00015ec7ec,32,2022-02-12_15h00.16.081,lexical_decision_task_DD_L2,2021.2.3,MacIntel,20.08838891,,,,,,,,,,,0.861,0,,,,,,,,,,,,,,,,,,,,,,,,0.849074074,-0.125925926,0,0,0,,,,,,,WAGON,LB,z,y,./images/WAGONLB.png,,,,,,,,,,,,,,,,,,,,,m,0,0.861,,,,,,,,0,107,107,91,1
,,,,,,,,,,,,,,,,,59daff10e776fd00015ec7ec,32,2022-02-12_15h00.16.081,lexical_decision_task_DD_L2,2021.2.3,MacIntel,20.08838891,,,,,,,,,,,0.687,1,,,,,,,,,,,,,,,,,,,,,,,,0.849074074,-0.125925926,0,0,0,,,,,,,BROOM,HB,z,y,./images/BROOMHB.png,,,,,,,,,,,,,,,,,,,,,z,1,0.687,,,,,,,,0,108,108,162,1
,,,,,,,,,,,,,,,,,59daff10e776fd00015ec7ec,32,2022-02-12_15h00.16.081,lexical_decision_task_DD_L2,2021.2.3,MacIntel,20.08838891,,,,,,,,,,,1.149,0,,,,,,,,,,,,,,,,,,,,,,,,0.849074074,-0.125925926,0,0,0,,,,,,,JUNGLE,C,m,y,./images/JUNGLE.png,,,,,,,,,,,,,,,,,,,,,z,0,1.149,,,,,,,,0,109,109,83,1
,,,,,,,,,,,,,,,,,59daff10e776fd00015ec7ec,32,2022-02-12_15h00.16.081,lexical_decision_task_DD_L2,2021.2.3,MacIntel,20.08838891,,,,,,,,,,,0.731,0,,,,,,,,,,,,,,,,,,,,,,,,0.849074074,-0.125925926,0,0,0,,,,,,,PENCE,LB,m,y,./images/PENCELB.png,,,,,,,,,,,,,,,,,,,,,z,0,0.731,,,,,,,,0,110,110,16,1
,,,,,,,,,,,,,,,,,59daff10e776fd00015ec7ec,32,2022-02-12_15h00.16.081,lexical_decision_task_DD_L2,2021.2.3,MacIntel,20.08838891,,,,,,,,,,,1.103,1,,,,,,,,,,,,,,,,,,,,,,,,0.849074074,-0.125925926,0,0,0,,,,,,,DONKEY,LB,z,y,./images/DONKEYLB.png,,,,,,,,,,,,,,,,,,,,,z,1,1.103,,,,,,,,0,111,111,103,1
,,,,,,,,,,,,,,,,,59daff10e776fd00015ec7ec,32,2022-02-12_15h00.16.081,lexical_decision_task_DD_L2,2021.2.3,MacIntel,20.08838891,,,,,,,,,,,0.847,0,,,,,,,,,,,,,,,,,,,,,,,,0.849074074,-0.125925926,0,0,0,,,,,,,SNACK,LB,m,y,./images/SNACKLB.png,,,,,,,,,,,,,,,,,,,,,z,0,0.847,,,,,,,,0,112,112,73,1
,,,,,,,,,,,,,,,,,59daff10e776fd00015ec7ec,32,2022-02-12_15h00.16.081,lexical_decision_task_DD_L2,2021.2.3,MacIntel,20.08838891,,,,,,,,,,,0.783,1,,,,,,,,,,,,,,,,,,,,,,,,0.849074074,-0.125925926,0,0,0,,,,,,,SAUCE,HB,z,y,./images/SAUCEHB.png,,,,,,,,,,,,,,,,,,,,,z,1,0.783,,,,,,,,0,113,113,135,1
,,,,,,,,,,,,,,,,,59daff10e776fd00015ec7ec,32,2022-02-12_15h00.16.081,lexical_decision_task_DD_L2,2021.2.3,MacIntel,20.08838891,,,,,,,,,,,0.98,0,,,,,,,,,,,,,,,,,,,,,,,,0.849074074,-0.125925926,0,0,0,,,,,,,SQUARE,HB,m,y,./images/SQUAREHB.png,,,,,,,,,,,,,,,,,,,,,z,0,0.98,,,,,,,,0,114,114,6,1
,,,,,,,,,,,,,,,,,59daff10e776fd00015ec7ec,32,2022-02-12_15h00.16.081,lexical_decision_task_DD_L2,2021.2.3,MacIntel,20.08838891,,,,,,,,,,,0.898,1,,,,,,,,,,,,,,,,,,,,,,,,0.849074074,-0.125925926,0,0,0,,,,,,,CURRY,HB,z,y,./images/CURRYHB.png,,,,,,,,,,,,,,,,,,,,,z,1,0.898,,,,,,,,0,115,115,144,1
,,,,,,,,,,,,,,,,,59daff10e776fd00015ec7ec,32,2022-02-12_15h00.16.081,lexical_decision_task_DD_L2,2021.2.3,MacIntel,20.08838891,,,,,,,,,,,1.109,1,,,,,,,,,,,,,,,,,,,,,,,,0.849074074,-0.125925926,0,0,0,,,,,,,CLOTH,C,z,y,./images/CLOTH.png,,,,,,,,,,,,,,,,,,,,,z,1,1.109,,,,,,,,0,116,116,107,1
,,,,,,,,,,,,,,,,,59daff10e776fd00015ec7ec,32,2022-02-12_15h00.16.081,lexical_decision_task_DD_L2,2021.2.3,MacIntel,20.08838891,,,,,,,,,,,0.819,0,,,,,,,,,,,,,,,,,,,,,,,,0.849074074,-0.125925926,0,0,0,,,,,,,TWINS,HB,m,y,./images/TWINSHB.png,,,,,,,,,,,,,,,,,,,,,z,0,0.819,,,,,,,,0,117,117,60,1
,,,,,,,,,,,,,,,,,59daff10e776fd00015ec7ec,32,2022-02-12_15h00.16.081,lexical_decision_task_DD_L2,2021.2.3,MacIntel,20.08838891,,,,,,,,,,,0.983,1,,,,,,,,,,,,,,,,,,,,,,,,0.849074074,-0.125925926,0,0,0,,,,,,,SAUNA,HB,z,y,./images/SAUNAHB.png,,,,,,,,,,,,,,,,,,,,,z,1,0.983,,,,,,,,0,118,118,117,1
,,,,,,,,,,,,,,,,,59daff10e776fd00015ec7ec,32,2022-02-12_15h00.16.081,lexical_decision_task_DD_L2,2021.2.3,MacIntel,20.08838891,,,,,,,,,,,1.096,1,,,,,,,,,,,,,,,,,,,,,,,,0.849074074,-0.125925926,0,0,0,,,,,,,PASTA,C,m,y,./images/PASTA.png,,,,,,,,,,,,,,,,,,,,,m,1,1.096,,,,,,,,0,119,119,5,1
,,,,,,,,,,,,,,,,,59daff10e776fd00015ec7ec,32,2022-02-12_15h00.16.081,lexical_decision_task_DD_L2,2021.2.3,MacIntel,20.08838891,,,,,,,,,,,1.183,0,,,,,,,,,,,,,,,,,,,,,,,,0.849074074,-0.125925926,0,0,0,,,,,,,MONKEY,HB,z,y,./images/MONKEYHB.png,,,,,,,,,,,,,,,,,,,,,m,0,1.183,,,,,,,,0,120,120,129,1
,,,,,,,,,,,,,,,,,59daff10e776fd00015ec7ec,32,2022-02-12_15h00.16.081,lexical_decision_task_DD_L2,2021.2.3,MacIntel,20.08838891,,,,,,,,,,,0.817,1,,,,,,,,,,,,,,,,,,,,,,,,0.849074074,-0.125925926,0,0,0,,,,,,,PLANK,LB,m,y,./images/PLANKLB.png,,,,,,,,,,,,,,,,,,,,,m,1,0.817,,,,,,,,0,121,121,1,1
,,,,,,,,,,,,,,,,,59daff10e776fd00015ec7ec,32,2022-02-12_15h00.16.081,lexical_decision_task_DD_L2,2021.2.3,MacIntel,20.08838891,,,,,,,,,,,1.294,1,,,,,,,,,,,,,,,,,,,,,,,,0.849074074,-0.125925926,0,0,0,,,,,,,PILOT,C,z,y,./images/PILOT.png,,,,,,,,,,,,,,,,,,,,,z,1,1.294,,,,,,,,0,122,122,134,1
,,,,,,,,,,,,,,,,,59daff10e776fd00015ec7ec,32,2022-02-12_15h00.16.081,lexical_decision_task_DD_L2,2021.2.3,MacIntel,20.08838891,,,,,,,,,,,1.057,0,,,,,,,,,,,,,,,,,,,,,,,,0.849074074,-0.125925926,0,0,0,,,,,,,SCREW,HB,m,y,./images/SCREWHB.png,,,,,,,,,,,,,,,,,,,,,z,0,1.057,,,,,,,,0,123,123,24,1
,,,,,,,,,,,,,,,,,59daff10e776fd00015ec7ec,32,2022-02-12_15h00.16.081,lexical_decision_task_DD_L2,2021.2.3,MacIntel,20.08838891,,,,,,,,,,,0.841,1,,,,,,,,,,,,,,,,,,,,,,,,0.849074074,-0.125925926,0,0,0,,,,,,,TOMATO,HB,m,y,./images/TOMATOHB.png,,,,,,,,,,,,,,,,,,,,,m,1,0.841,,,,,,,,0,124,124,0,1
,,,,,,,,,,,,,,,,,59daff10e776fd00015ec7ec,32,2022-02-12_15h00.16.081,lexical_decision_task_DD_L2,2021.2.3,MacIntel,20.08838891,,,,,,,,,,,1.257,0,,,,,,,,,,,,,,,,,,,,,,,,0.849074074,-0.125925926,0,0,0,space,,,,,,POSTER,C,z,y,./images/POSTER.png,7.039,,,,,,,,,,,,,,,,,,,,m,0,1.257,,,,,,,,0,125,125,137,1
,,,,,,,,,,,,,,,,,59daff10e776fd00015ec7ec,32,2022-02-12_15h00.16.081,lexical_decision_task_DD_L2,2021.2.3,MacIntel,20.08838891,,,,,,,,,,,0.806,0,,,,,,,,,,,,,,,,,,,,,,,,0.849074074,-0.125925926,0,0,0,,,,,,,BIRTH,LB,m,y,./images/BIRTHLB.png,,,,,,,,,,,,,,,,,,,,,z,0,0.806,,,,,,,,0,126,126,37,1
,,,,,,,,,,,,,,,,,59daff10e776fd00015ec7ec,32,2022-02-12_15h00.16.081,lexical_decision_task_DD_L2,2021.2.3,MacIntel,20.08838891,,,,,,,,,,,0.863,1,,,,,,,,,,,,,,,,,,,,,,,,0.849074074,-0.125925926,0,0,0,,,,,,,STOVE,C,z,y,./images/STOVE.png,,,,,,,,,,,,,,,,,,,,,z,1,0.863,,,,,,,,0,127,127,86,1
,,,,,,,,,,,,,,,,,59daff10e776fd00015ec7ec,32,2022-02-12_15h00.16.081,lexical_decision_task_DD_L2,2021.2.3,MacIntel,20.08838891,,,,,,,,,,,0.835,1,,,,,,,,,,,,,,,,,,,,,,,,0.849074074,-0.125925926,0,0,0,,,,,,,STATUE,HB,z,y,./images/STATUEHB.png,,,,,,,,,,,,,,,,,,,,,z,1,0.835,,,,,,,,0,128,128,150,1
,,,,,,,,,,,,,,,,,59daff10e776fd00015ec7ec,32,2022-02-12_15h00.16.081,lexical_decision_task_DD_L2,2021.2.3,MacIntel,20.08838891,,,,,,,,,,,0.997,1,,,,,,,,,,,,,,,,,,,,,,,,0.849074074,-0.125925926,0,0,0,,,,,,,DRUMS,LB,m,y,./images/DRUMSLB.png,,,,,,,,,,,,,,,,,,,,,m,1,0.997,,,,,,,,0,129,129,49,1
,,,,,,,,,,,,,,,,,59daff10e776fd00015ec7ec,32,2022-02-12_15h00.16.081,lexical_decision_task_DD_L2,2021.2.3,MacIntel,20.08838891,,,,,,,,,,,0.784,1,,,,,,,,,,,,,,,,,,,,,,,,0.849074074,-0.125925926,0,0,0,,,,,,,DESERT,LB,z,y,./images/DESERTLB.png,,,,,,,,,,,,,,,,,,,,,z,1,0.784,,,,,,,,0,130,130,136,1
