key_resp.keys,key_resp.rt,instr_done_touch.x,instr_done_touch.y,instr_done_touch.leftButton,instr_done_touch.midButton,instr_done_touch.rightButton,instruction_pages.thisRepN,instruction_pages.thisTrialN,instruction_pages.thisN,instruction_pages.thisIndex,instruction_pages.ran,pageN,phase,instruct_text,has_image,instruct_image,participant,age,date,expName,psychopyVersion,OS,frameRate,response.keys,response.corr,response.rt,touch_resp.x,touch_resp.y,touch_resp.leftButton,touch_resp.midButton,touch_resp.rightButton,touch_resp.time,touch_resp.clicked_name,rt,corr,practrials.thisRepN,practrials.thisTrialN,practrials.thisN,practrials.thisIndex,practrials.ran,TrialID,Target,corrAns,end_of_practice_trials_pages.thisRepN,end_of_practice_trials_pages.thisTrialN,end_of_practice_trials_pages.thisN,end_of_practice_trials_pages.thisIndex,end_of_practice_trials_pages.ran,key_resp_2.keys,key_resp_2.corr,key_resp_2.rt,targ_click.x,targ_click.y,targ_click.leftButton,targ_click.midButton,targ_click.rightButton,targ_click.time,targ_click.clicked_name,break_done_touch.x,break_done_touch.y,break_done_touch.leftButton,break_done_touch.midButton,break_done_touch.rightButton,break_done_keyboard.keys,maintrials.thisRepN,maintrials.thisTrialN,maintrials.thisN,maintrials.thisIndex,maintrials.ran,string,blur,study,lex,stim_path,break_done_keyboard.rt,mouse_2.x,mouse_2.y,mouse_2.leftButton,mouse_2.midButton,mouse_2.rightButton,mouse_2.clicked_name,slider.response,slider.rt,trials.thisRepN,trials.thisTrialN,trials.thisN,trials.thisIndex,trials.ran,test_instructions.thisRepN,test_instructions.thisTrialN,test_instructions.thisN,test_instructions.thisIndex,test_instructions.ran,instr_done_touch.clicked_name,key_resp_3.keys,key_resp_3.corr,key_resp_3.rt,test_click.x,test_click.y,test_click.leftButton,test_click.midButton,test_click.rightButton,test_click.time,test_click.clicked_name,test_phase.thisRepN,test_phase.thisTrialN,test_phase.thisN,test_phase.thisIndex,test_phase.ran
space,23.4738,0.152387695,-0.356782227,0,0,0,0,0,0,0,1,1,instructions,"INSTRUCTIONS
At the start of each trial, look at the plus sign  (+) in the center of the screen.  This tells you that a trial is about to begin and where to look. Second, the plus sign will disappear and a string of letters will appear. Your task is to determine if the string of letters is a word or not. If the item is a word press the M key (on keyboard)  or touch the word button (phone/tablet).  If the item is not a word,  press the  Z key (on keyboard)  or touch the nonword button (on phone/tablet). 
Press the space bar or touch  continue.",0,,5a74d7f717ef3500016ff92a,31,2022-02-12_14h09.36.809,lexical_decision_task_DD,2021.2.3,MacIntel,60.14675809,,,,,,,,,,,,,,,,,,,,,,,,,,,,,,,,,,,,,,,,,,,,,,,,,,,,,,,,,,,,,,,,,,,,,,,,,,,,,,,,,,,,,,
space,7.8717,0.152387695,-0.356782227,0,0,0,0,1,1,1,1,2,instructions,"If your device has a keyboard, press the 'Z' key for nonwords and the 'M' key for words.





Press the space bar or touch the button below to continue.",0,keyboard-example.gif,5a74d7f717ef3500016ff92a,31,2022-02-12_14h09.36.809,lexical_decision_task_DD,2021.2.3,MacIntel,60.14675809,,,,,,,,,,,,,,,,,,,,,,,,,,,,,,,,,,,,,,,,,,,,,,,,,,,,,,,,,,,,,,,,,,,,,,,,,,,,,,,,,,,,,,
space,1.5417,0.152387695,-0.356782227,0,0,0,0,2,2,2,1,3,instructions,"If you are using a touchscreen only device, use the buttons on the screen. Do not use the mouse.





Press the space bar or touch the button below to continue.",0,touchscreen-example.gif,5a74d7f717ef3500016ff92a,31,2022-02-12_14h09.36.809,lexical_decision_task_DD,2021.2.3,MacIntel,60.14675809,,,,,,,,,,,,,,,,,,,,,,,,,,,,,,,,,,,,,,,,,,,,,,,,,,,,,,,,,,,,,,,,,,,,,,,,,,,,,,,,,,,,,,
space,9.1614,0.152387695,-0.356782227,0,0,0,0,3,3,3,1,4,instructions,"It is very important that you respond as quickly and accurately as possible, as each letter string will only be on the screen for two seconds. If you do not respond within this time, the message 'Too slow!' will be displayed and the experiment will progress to the next letter string. The first 20 trials will be practice trials and you will receive feedback on your answers. 

Press the space bar or touch the button below to start the practice trials.",0,,5a74d7f717ef3500016ff92a,31,2022-02-12_14h09.36.809,lexical_decision_task_DD,2021.2.3,MacIntel,60.14675809,,,,,,,,,,,,,,,,,,,,,,,,,,,,,,,,,,,,,,,,,,,,,,,,,,,,,,,,,,,,,,,,,,,,,,,,,,,,,,,,,,,,,,
,,,,,,,,,,,,,,,,,5a74d7f717ef3500016ff92a,31,2022-02-12_14h09.36.809,lexical_decision_task_DD,2021.2.3,MacIntel,60.14675809,m,1,0.9837,,,,,,,,0.9837,1,0,0,0,5,1,1001,OBTAIN,m,,,,,,,,,,,,,,,,,,,,,,,,,,,,,,,,,,,,,,,,,,,,,,,,,,,,,,,,,,,,,,,,,,
,,,,,,,,,,,,,,,,,5a74d7f717ef3500016ff92a,31,2022-02-12_14h09.36.809,lexical_decision_task_DD,2021.2.3,MacIntel,60.14675809,z,1,0.6826,,,,,,,,0.6826,1,0,1,1,13,1,1001,ROUPET,z,,,,,,,,,,,,,,,,,,,,,,,,,,,,,,,,,,,,,,,,,,,,,,,,,,,,,,,,,,,,,,,,,,
,,,,,,,,,,,,,,,,,5a74d7f717ef3500016ff92a,31,2022-02-12_14h09.36.809,lexical_decision_task_DD,2021.2.3,MacIntel,60.14675809,m,1,0.6185,,,,,,,,0.6185,1,0,2,2,3,1,1001,MATRIX,m,,,,,,,,,,,,,,,,,,,,,,,,,,,,,,,,,,,,,,,,,,,,,,,,,,,,,,,,,,,,,,,,,,
,,,,,,,,,,,,,,,,,5a74d7f717ef3500016ff92a,31,2022-02-12_14h09.36.809,lexical_decision_task_DD,2021.2.3,MacIntel,60.14675809,z,1,1.2773,,,,,,,,1.2773,1,0,3,3,15,1,1001,WHAISE,z,,,,,,,,,,,,,,,,,,,,,,,,,,,,,,,,,,,,,,,,,,,,,,,,,,,,,,,,,,,,,,,,,,
,,,,,,,,,,,,,,,,,5a74d7f717ef3500016ff92a,31,2022-02-12_14h09.36.809,lexical_decision_task_DD,2021.2.3,MacIntel,60.14675809,z,1,0.7319,,,,,,,,0.7319,1,0,4,4,8,1,1001,ASLERT,z,,,,,,,,,,,,,,,,,,,,,,,,,,,,,,,,,,,,,,,,,,,,,,,,,,,,,,,,,,,,,,,,,,
,,,,,,,,,,,,,,,,,5a74d7f717ef3500016ff92a,31,2022-02-12_14h09.36.809,lexical_decision_task_DD,2021.2.3,MacIntel,60.14675809,m,1,0.5822,,,,,,,,0.5822,1,0,5,5,1,1,1001,ADJUST,m,,,,,,,,,,,,,,,,,,,,,,,,,,,,,,,,,,,,,,,,,,,,,,,,,,,,,,,,,,,,,,,,,,
,,,,,,,,,,,,,,,,,5a74d7f717ef3500016ff92a,31,2022-02-12_14h09.36.809,lexical_decision_task_DD,2021.2.3,MacIntel,60.14675809,z,1,0.6304,,,,,,,,0.6304,1,0,6,6,14,1,1001,THRALE,z,,,,,,,,,,,,,,,,,,,,,,,,,,,,,,,,,,,,,,,,,,,,,,,,,,,,,,,,,,,,,,,,,,
,,,,,,,,,,,,,,,,,5a74d7f717ef3500016ff92a,31,2022-02-12_14h09.36.809,lexical_decision_task_DD,2021.2.3,MacIntel,60.14675809,z,1,0.6873,,,,,,,,0.6873,1,0,7,7,10,1,1001,INLADE,z,,,,,,,,,,,,,,,,,,,,,,,,,,,,,,,,,,,,,,,,,,,,,,,,,,,,,,,,,,,,,,,,,,
,,,,,,,,,,,,,,,,,5a74d7f717ef3500016ff92a,31,2022-02-12_14h09.36.809,lexical_decision_task_DD,2021.2.3,MacIntel,60.14675809,z,1,0.6974,,,,,,,,0.6974,1,0,8,8,9,1,1001,FARINY,z,,,,,,,,,,,,,,,,,,,,,,,,,,,,,,,,,,,,,,,,,,,,,,,,,,,,,,,,,,,,,,,,,,
,,,,,,,,,,,,,,,,,5a74d7f717ef3500016ff92a,31,2022-02-12_14h09.36.809,lexical_decision_task_DD,2021.2.3,MacIntel,60.14675809,z,1,0.5696,,,,,,,,0.5696,1,0,9,9,12,1,1001,SPRINY,z,,,,,,,,,,,,,,,,,,,,,,,,,,,,,,,,,,,,,,,,,,,,,,,,,,,,,,,,,,,,,,,,,,
,,,,,,,,,,,,,,,,,5a74d7f717ef3500016ff92a,31,2022-02-12_14h09.36.809,lexical_decision_task_DD,2021.2.3,MacIntel,60.14675809,m,1,0.6326,,,,,,,,0.6326,1,0,10,10,4,1,1001,SQUEAK,m,,,,,,,,,,,,,,,,,,,,,,,,,,,,,,,,,,,,,,,,,,,,,,,,,,,,,,,,,,,,,,,,,,
,,,,,,,,,,,,,,,,,5a74d7f717ef3500016ff92a,31,2022-02-12_14h09.36.809,lexical_decision_task_DD,2021.2.3,MacIntel,60.14675809,m,1,0.5987,,,,,,,,0.5987,1,0,11,11,7,1,1001,VOLUME,m,,,,,,,,,,,,,,,,,,,,,,,,,,,,,,,,,,,,,,,,,,,,,,,,,,,,,,,,,,,,,,,,,,
,,,,,,,,,,,,,,,,,5a74d7f717ef3500016ff92a,31,2022-02-12_14h09.36.809,lexical_decision_task_DD,2021.2.3,MacIntel,60.14675809,z,1,0.683,,,,,,,,0.683,1,0,12,12,11,1,1001,RASHET,z,,,,,,,,,,,,,,,,,,,,,,,,,,,,,,,,,,,,,,,,,,,,,,,,,,,,,,,,,,,,,,,,,,
,,,,,,,,,,,,,,,,,5a74d7f717ef3500016ff92a,31,2022-02-12_14h09.36.809,lexical_decision_task_DD,2021.2.3,MacIntel,60.14675809,m,1,0.6676,,,,,,,,0.6676,1,0,13,13,0,1,1001,UTOPIA,m,,,,,,,,,,,,,,,,,,,,,,,,,,,,,,,,,,,,,,,,,,,,,,,,,,,,,,,,,,,,,,,,,,
,,,,,,,,,,,,,,,,,5a74d7f717ef3500016ff92a,31,2022-02-12_14h09.36.809,lexical_decision_task_DD,2021.2.3,MacIntel,60.14675809,m,1,0.5812,,,,,,,,0.5812,1,0,14,14,6,1,1001,ZOMBIE,m,,,,,,,,,,,,,,,,,,,,,,,,,,,,,,,,,,,,,,,,,,,,,,,,,,,,,,,,,,,,,,,,,,
,,,,,,,,,,,,,,,,,5a74d7f717ef3500016ff92a,31,2022-02-12_14h09.36.809,lexical_decision_task_DD,2021.2.3,MacIntel,60.14675809,m,1,0.7314,,,,,,,,0.7314,1,0,15,15,2,1,1001,ALMOND,m,,,,,,,,,,,,,,,,,,,,,,,,,,,,,,,,,,,,,,,,,,,,,,,,,,,,,,,,,,,,,,,,,,
space,9.6903,0.358735352,-0.233037109,0,0,0,,,,,,1,end_of_practice,"You have completed the practice trials. During the experimental trials, you will not receive feedback. 
Before you begin, please ensure that you are in a comfortable and quiet location and will not be disturbed for about 15 minutes, as we cannot use your data if you do not complete all the trials. 
 When you are ready to start the experimental trials, please press space or touch the button below.",,,5a74d7f717ef3500016ff92a,31,2022-02-12_14h09.36.809,lexical_decision_task_DD,2021.2.3,MacIntel,60.14675809,,,,,,,,,,,,,,,,,,,,,0,0,0,0,1,,,,,,,,,,,,,,,,,,,,,,,,,,,,,,,,,,,,,,,,,,,,,,,,,,,,,,,,,,,,,
,,,,,,,,,,,,,,,,,5a74d7f717ef3500016ff92a,31,2022-02-12_14h09.36.809,lexical_decision_task_DD,2021.2.3,MacIntel,60.14675809,,,,,,,,,,,1.421,1,,,,,,,,,,,,,,m,1,1.421,,,,,,,,0.358735352,-0.233037109,0,0,0,,0,0,0,15,1,GREASE,C,old,m,./images/GREASE.png,,,,,,,,,,,,,,,,,,,,,,,,,,,,,,,,,,,
,,,,,,,,,,,,,,,,,5a74d7f717ef3500016ff92a,31,2022-02-12_14h09.36.809,lexical_decision_task_DD,2021.2.3,MacIntel,60.14675809,,,,,,,,,,,0.8352,1,,,,,,,,,,,,,,z,1,0.8352,,,,,,,,0.358735352,-0.233037109,0,0,0,,0,1,1,156,1,HIXES,C,old,z,./images/HIXES.png,,,,,,,,,,,,,,,,,,,,,,,,,,,,,,,,,,,
,,,,,,,,,,,,,,,,,5a74d7f717ef3500016ff92a,31,2022-02-12_14h09.36.809,lexical_decision_task_DD,2021.2.3,MacIntel,60.14675809,,,,,,,,,,,0.5816,1,,,,,,,,,,,,,,z,1,0.5816,,,,,,,,0.358735352,-0.233037109,0,0,0,,0,2,2,158,1,EGECT,LB,old,z,./images/EGECTLB.png,,,,,,,,,,,,,,,,,,,,,,,,,,,,,,,,,,,
,,,,,,,,,,,,,,,,,5a74d7f717ef3500016ff92a,31,2022-02-12_14h09.36.809,lexical_decision_task_DD,2021.2.3,MacIntel,60.14675809,,,,,,,,,,,0.5443,1,,,,,,,,,,,,,,z,1,0.5443,,,,,,,,0.358735352,-0.233037109,0,0,0,,0,3,3,140,1,DOVET,LB,old,z,./images/DOVETLB.png,,,,,,,,,,,,,,,,,,,,,,,,,,,,,,,,,,,
,,,,,,,,,,,,,,,,,5a74d7f717ef3500016ff92a,31,2022-02-12_14h09.36.809,lexical_decision_task_DD,2021.2.3,MacIntel,60.14675809,,,,,,,,,,,0.5511,0,,,,,,,,,,,,,,z,0,0.5511,,,,,,,,0.358735352,-0.233037109,0,0,0,,0,4,4,59,1,BURIAL,LB,old,m,./images/BURIALLB.png,,,,,,,,,,,,,,,,,,,,,,,,,,,,,,,,,,,
,,,,,,,,,,,,,,,,,5a74d7f717ef3500016ff92a,31,2022-02-12_14h09.36.809,lexical_decision_task_DD,2021.2.3,MacIntel,60.14675809,,,,,,,,,,,0.493,1,,,,,,,,,,,,,,m,1,0.493,,,,,,,,0.358735352,-0.233037109,0,0,0,,0,5,5,51,1,ONION,C,old,m,./images/ONION.png,,,,,,,,,,,,,,,,,,,,,,,,,,,,,,,,,,,
,,,,,,,,,,,,,,,,,5a74d7f717ef3500016ff92a,31,2022-02-12_14h09.36.809,lexical_decision_task_DD,2021.2.3,MacIntel,60.14675809,,,,,,,,,,,0.8808,1,,,,,,,,,,,,,,m,1,0.8808,,,,,,,,0.358735352,-0.233037109,0,0,0,,0,6,6,11,1,BONNET,LB,old,m,./images/BONNETLB.png,,,,,,,,,,,,,,,,,,,,,,,,,,,,,,,,,,,
,,,,,,,,,,,,,,,,,5a74d7f717ef3500016ff92a,31,2022-02-12_14h09.36.809,lexical_decision_task_DD,2021.2.3,MacIntel,60.14675809,,,,,,,,,,,0.5638,1,,,,,,,,,,,,,,m,1,0.5638,,,,,,,,0.358735352,-0.233037109,0,0,0,,0,7,7,38,1,LADDER,LB,old,m,./images/LADDERLB.png,,,,,,,,,,,,,,,,,,,,,,,,,,,,,,,,,,,
,,,,,,,,,,,,,,,,,5a74d7f717ef3500016ff92a,31,2022-02-12_14h09.36.809,lexical_decision_task_DD,2021.2.3,MacIntel,60.14675809,,,,,,,,,,,0.7985,1,,,,,,,,,,,,,,z,1,0.7985,,,,,,,,0.358735352,-0.233037109,0,0,0,,0,8,8,125,1,MOOKY,LB,old,z,./images/MOOKYLB.png,,,,,,,,,,,,,,,,,,,,,,,,,,,,,,,,,,,
,,,,,,,,,,,,,,,,,5a74d7f717ef3500016ff92a,31,2022-02-12_14h09.36.809,lexical_decision_task_DD,2021.2.3,MacIntel,60.14675809,,,,,,,,,,,0.6439,1,,,,,,,,,,,,,,m,1,0.6439,,,,,,,,0.358735352,-0.233037109,0,0,0,,0,9,9,66,1,SWEAT,C,old,m,./images/SWEAT.png,,,,,,,,,,,,,,,,,,,,,,,,,,,,,,,,,,,
,,,,,,,,,,,,,,,,,5a74d7f717ef3500016ff92a,31,2022-02-12_14h09.36.809,lexical_decision_task_DD,2021.2.3,MacIntel,60.14675809,,,,,,,,,,,0.9088,1,,,,,,,,,,,,,,z,1,0.9088,,,,,,,,0.358735352,-0.233037109,0,0,0,,0,10,10,114,1,RIKES,C,old,z,./images/RIKES.png,,,,,,,,,,,,,,,,,,,,,,,,,,,,,,,,,,,
,,,,,,,,,,,,,,,,,5a74d7f717ef3500016ff92a,31,2022-02-12_14h09.36.809,lexical_decision_task_DD,2021.2.3,MacIntel,60.14675809,,,,,,,,,,,0.6821,1,,,,,,,,,,,,,,z,1,0.6821,,,,,,,,0.358735352,-0.233037109,0,0,0,,0,11,11,89,1,DRIEK,LB,old,z,./images/DRIEKLB.png,,,,,,,,,,,,,,,,,,,,,,,,,,,,,,,,,,,
,,,,,,,,,,,,,,,,,5a74d7f717ef3500016ff92a,31,2022-02-12_14h09.36.809,lexical_decision_task_DD,2021.2.3,MacIntel,60.14675809,,,,,,,,,,,0.8716,1,,,,,,,,,,,,,,z,1,0.8716,,,,,,,,0.358735352,-0.233037109,0,0,0,,0,12,12,165,1,TROWN,C,old,z,./images/TROWN.png,,,,,,,,,,,,,,,,,,,,,,,,,,,,,,,,,,,
,,,,,,,,,,,,,,,,,5a74d7f717ef3500016ff92a,31,2022-02-12_14h09.36.809,lexical_decision_task_DD,2021.2.3,MacIntel,60.14675809,,,,,,,,,,,0.6304,1,,,,,,,,,,,,,,m,1,0.6304,,,,,,,,0.358735352,-0.233037109,0,0,0,,0,13,13,54,1,TRIPOD,C,old,m,./images/TRIPOD.png,,,,,,,,,,,,,,,,,,,,,,,,,,,,,,,,,,,
,,,,,,,,,,,,,,,,,5a74d7f717ef3500016ff92a,31,2022-02-12_14h09.36.809,lexical_decision_task_DD,2021.2.3,MacIntel,60.14675809,,,,,,,,,,,0.4743,1,,,,,,,,,,,,,,m,1,0.4743,,,,,,,,0.358735352,-0.233037109,0,0,0,,0,14,14,48,1,SPORT,C,old,m,./images/SPORT.png,,,,,,,,,,,,,,,,,,,,,,,,,,,,,,,,,,,
,,,,,,,,,,,,,,,,,5a74d7f717ef3500016ff92a,31,2022-02-12_14h09.36.809,lexical_decision_task_DD,2021.2.3,MacIntel,60.14675809,,,,,,,,,,,0.8324,1,,,,,,,,,,,,,,m,1,0.8324,,,,,,,,0.358735352,-0.233037109,0,0,0,,0,15,15,28,1,FALCON,HB,old,m,./images/FALCONHB.png,,,,,,,,,,,,,,,,,,,,,,,,,,,,,,,,,,,
,,,,,,,,,,,,,,,,,5a74d7f717ef3500016ff92a,31,2022-02-12_14h09.36.809,lexical_decision_task_DD,2021.2.3,MacIntel,60.14675809,,,,,,,,,,,1.0784,1,,,,,,,,,,,,,,z,1,1.0784,,,,,,,,0.358735352,-0.233037109,0,0,0,,0,16,16,85,1,CHULK,HB,old,z,./images/CHULKHB.png,,,,,,,,,,,,,,,,,,,,,,,,,,,,,,,,,,,
,,,,,,,,,,,,,,,,,5a74d7f717ef3500016ff92a,31,2022-02-12_14h09.36.809,lexical_decision_task_DD,2021.2.3,MacIntel,60.14675809,,,,,,,,,,,1.0364,1,,,,,,,,,,,,,,m,1,1.0364,,,,,,,,0.358735352,-0.233037109,0,0,0,,0,17,17,31,1,QUILL,HB,old,m,./images/QUILLHB.png,,,,,,,,,,,,,,,,,,,,,,,,,,,,,,,,,,,
,,,,,,,,,,,,,,,,,5a74d7f717ef3500016ff92a,31,2022-02-12_14h09.36.809,lexical_decision_task_DD,2021.2.3,MacIntel,60.14675809,,,,,,,,,,,1.3449,1,,,,,,,,,,,,,,z,1,1.3449,,,,,,,,0.358735352,-0.233037109,0,0,0,,0,18,18,91,1,SHENS,HB,old,z,./images/SHENSHB.png,,,,,,,,,,,,,,,,,,,,,,,,,,,,,,,,,,,
,,,,,,,,,,,,,,,,,5a74d7f717ef3500016ff92a,31,2022-02-12_14h09.36.809,lexical_decision_task_DD,2021.2.3,MacIntel,60.14675809,,,,,,,,,,,0.7513,1,,,,,,,,,,,,,,m,1,0.7513,,,,,,,,0.358735352,-0.233037109,0,0,0,,0,19,19,40,1,SWING,HB,old,m,./images/SWINGHB.png,,,,,,,,,,,,,,,,,,,,,,,,,,,,,,,,,,,
,,,,,,,,,,,,,,,,,5a74d7f717ef3500016ff92a,31,2022-02-12_14h09.36.809,lexical_decision_task_DD,2021.2.3,MacIntel,60.14675809,,,,,,,,,,,1.1986,1,,,,,,,,,,,,,,z,1,1.1986,,,,,,,,0.358735352,-0.233037109,0,0,0,,0,20,20,130,1,CRILL,HB,old,z,./images/CRILLHB.png,,,,,,,,,,,,,,,,,,,,,,,,,,,,,,,,,,,
,,,,,,,,,,,,,,,,,5a74d7f717ef3500016ff92a,31,2022-02-12_14h09.36.809,lexical_decision_task_DD,2021.2.3,MacIntel,60.14675809,,,,,,,,,,,0.7249,0,,,,,,,,,,,,,,m,0,0.7249,,,,,,,,0.358735352,-0.233037109,0,0,0,,0,21,21,144,1,NAIRY,C,old,z,./images/NAIRY.png,,,,,,,,,,,,,,,,,,,,,,,,,,,,,,,,,,,
,,,,,,,,,,,,,,,,,5a74d7f717ef3500016ff92a,31,2022-02-12_14h09.36.809,lexical_decision_task_DD,2021.2.3,MacIntel,60.14675809,,,,,,,,,,,0.9306,1,,,,,,,,,,,,,,m,1,0.9306,,,,,,,,0.358735352,-0.233037109,0,0,0,,0,22,22,37,1,BIRTH,HB,old,m,./images/BIRTHHB.png,,,,,,,,,,,,,,,,,,,,,,,,,,,,,,,,,,,
,,,,,,,,,,,,,,,,,5a74d7f717ef3500016ff92a,31,2022-02-12_14h09.36.809,lexical_decision_task_DD,2021.2.3,MacIntel,60.14675809,,,,,,,,,,,1.3364,1,,,,,,,,,,,,,,z,1,1.3364,,,,,,,,0.358735352,-0.233037109,0,0,0,,0,23,23,88,1,GLUSH,HB,old,z,./images/GLUSHHB.png,,,,,,,,,,,,,,,,,,,,,,,,,,,,,,,,,,,
,,,,,,,,,,,,,,,,,5a74d7f717ef3500016ff92a,31,2022-02-12_14h09.36.809,lexical_decision_task_DD,2021.2.3,MacIntel,60.14675809,,,,,,,,,,,0.6831,1,,,,,,,,,,,,,,m,1,0.6831,,,,,,,,0.358735352,-0.233037109,0,0,0,,0,24,24,25,1,WRIST,HB,old,m,./images/WRISTHB.png,,,,,,,,,,,,,,,,,,,,,,,,,,,,,,,,,,,
,,,,,,,,,,,,,,,,,5a74d7f717ef3500016ff92a,31,2022-02-12_14h09.36.809,lexical_decision_task_DD,2021.2.3,MacIntel,60.14675809,,,,,,,,,,,0.4994,1,,,,,,,,,,,,,,m,1,0.4994,,,,,,,,0.358735352,-0.233037109,0,0,0,,0,25,25,41,1,STRING,LB,old,m,./images/STRINGLB.png,,,,,,,,,,,,,,,,,,,,,,,,,,,,,,,,,,,
,,,,,,,,,,,,,,,,,5a74d7f717ef3500016ff92a,31,2022-02-12_14h09.36.809,lexical_decision_task_DD,2021.2.3,MacIntel,60.14675809,,,,,,,,,,,0.5077,1,,,,,,,,,,,,,,m,1,0.5077,,,,,,,,0.358735352,-0.233037109,0,0,0,,0,26,26,83,1,JUNGLE,LB,old,m,./images/JUNGLELB.png,,,,,,,,,,,,,,,,,,,,,,,,,,,,,,,,,,,
,,,,,,,,,,,,,,,,,5a74d7f717ef3500016ff92a,31,2022-02-12_14h09.36.809,lexical_decision_task_DD,2021.2.3,MacIntel,60.14675809,,,,,,,,,,,0.6749,1,,,,,,,,,,,,,,z,1,0.6749,,,,,,,,0.358735352,-0.233037109,0,0,0,,0,27,27,102,1,DULLE,C,old,z,./images/DULLE.png,,,,,,,,,,,,,,,,,,,,,,,,,,,,,,,,,,,
,,,,,,,,,,,,,,,,,5a74d7f717ef3500016ff92a,31,2022-02-12_14h09.36.809,lexical_decision_task_DD,2021.2.3,MacIntel,60.14675809,,,,,,,,,,,0.5989,1,,,,,,,,,,,,,,m,1,0.5989,,,,,,,,0.358735352,-0.233037109,0,0,0,,0,28,28,5,1,PASTA,LB,old,m,./images/PASTALB.png,,,,,,,,,,,,,,,,,,,,,,,,,,,,,,,,,,,
,,,,,,,,,,,,,,,,,5a74d7f717ef3500016ff92a,31,2022-02-12_14h09.36.809,lexical_decision_task_DD,2021.2.3,MacIntel,60.14675809,,,,,,,,,,,0.6626,0,,,,,,,,,,,,,,m,0,0.6626,,,,,,,,0.358735352,-0.233037109,0,0,0,,0,29,29,166,1,SHORY,HB,old,z,./images/SHORYHB.png,,,,,,,,,,,,,,,,,,,,,,,,,,,,,,,,,,,
,,,,,,,,,,,,,,,,,5a74d7f717ef3500016ff92a,31,2022-02-12_14h09.36.809,lexical_decision_task_DD,2021.2.3,MacIntel,60.14675809,,,,,,,,,,,1.1964,1,,,,,,,,,,,,,,z,1,1.1964,,,,,,,,0.358735352,-0.233037109,0,0,0,,0,30,30,136,1,WERVE,HB,old,z,./images/WERVEHB.png,,,,,,,,,,,,,,,,,,,,,,,,,,,,,,,,,,,
,,,,,,,,,,,,,,,,,5a74d7f717ef3500016ff92a,31,2022-02-12_14h09.36.809,lexical_decision_task_DD,2021.2.3,MacIntel,60.14675809,,,,,,,,,,,0.6966,1,,,,,,,,,,,,,,z,1,0.6966,,,,,,,,0.358735352,-0.233037109,0,0,0,,0,31,31,86,1,AIFED,LB,old,z,./images/AIFEDLB.png,,,,,,,,,,,,,,,,,,,,,,,,,,,,,,,,,,,
,,,,,,,,,,,,,,,,,5a74d7f717ef3500016ff92a,31,2022-02-12_14h09.36.809,lexical_decision_task_DD,2021.2.3,MacIntel,60.14675809,,,,,,,,,,,0.8314,1,,,,,,,,,,,,,,m,1,0.8314,,,,,,,,0.358735352,-0.233037109,0,0,0,,0,32,32,55,1,MUFFIN,HB,old,m,./images/MUFFINHB.png,,,,,,,,,,,,,,,,,,,,,,,,,,,,,,,,,,,
,,,,,,,,,,,,,,,,,5a74d7f717ef3500016ff92a,31,2022-02-12_14h09.36.809,lexical_decision_task_DD,2021.2.3,MacIntel,60.14675809,,,,,,,,,,,0.7393,1,,,,,,,,,,,,,,z,1,0.7393,,,,,,,,0.358735352,-0.233037109,0,0,0,,0,33,33,150,1,NOOLS,C,old,z,./images/NOOLS.png,,,,,,,,,,,,,,,,,,,,,,,,,,,,,,,,,,,
,,,,,,,,,,,,,,,,,5a74d7f717ef3500016ff92a,31,2022-02-12_14h09.36.809,lexical_decision_task_DD,2021.2.3,MacIntel,60.14675809,,,,,,,,,,,0.8329,0,,,,,,,,,,,,,,m,0,0.8329,,,,,,,,0.358735352,-0.233037109,0,0,0,,0,34,34,142,1,PLASK,HB,old,z,./images/PLASKHB.png,,,,,,,,,,,,,,,,,,,,,,,,,,,,,,,,,,,
,,,,,,,,,,,,,,,,,5a74d7f717ef3500016ff92a,31,2022-02-12_14h09.36.809,lexical_decision_task_DD,2021.2.3,MacIntel,60.14675809,,,,,,,,,,,1.2957,1,,,,,,,,,,,,,,z,1,1.2957,,,,,,,,0.358735352,-0.233037109,0,0,0,,0,35,35,97,1,CHIDS,HB,old,z,./images/CHIDSHB.png,,,,,,,,,,,,,,,,,,,,,,,,,,,,,,,,,,,
,,,,,,,,,,,,,,,,,5a74d7f717ef3500016ff92a,31,2022-02-12_14h09.36.809,lexical_decision_task_DD,2021.2.3,MacIntel,60.14675809,,,,,,,,,,,0.6791,1,,,,,,,,,,,,,,m,1,0.6791,,,,,,,,0.358735352,-0.233037109,0,0,0,,0,36,36,44,1,LIZARD,LB,old,m,./images/LIZARDLB.png,,,,,,,,,,,,,,,,,,,,,,,,,,,,,,,,,,,
,,,,,,,,,,,,,,,,,5a74d7f717ef3500016ff92a,31,2022-02-12_14h09.36.809,lexical_decision_task_DD,2021.2.3,MacIntel,60.14675809,,,,,,,,,,,0.7494,1,,,,,,,,,,,,,,z,1,0.7494,,,,,,,,0.358735352,-0.233037109,0,0,0,,0,37,37,104,1,GITTY,LB,old,z,./images/GITTYLB.png,,,,,,,,,,,,,,,,,,,,,,,,,,,,,,,,,,,
,,,,,,,,,,,,,,,,,5a74d7f717ef3500016ff92a,31,2022-02-12_14h09.36.809,lexical_decision_task_DD,2021.2.3,MacIntel,60.14675809,,,,,,,,,,,0.5613,1,,,,,,,,,,,,,,m,1,0.5613,,,,,,,,0.358735352,-0.233037109,0,0,0,,0,38,38,6,1,SQUARE,C,old,m,./images/SQUARE.png,,,,,,,,,,,,,,,,,,,,,,,,,,,,,,,,,,,
,,,,,,,,,,,,,,,,,5a74d7f717ef3500016ff92a,31,2022-02-12_14h09.36.809,lexical_decision_task_DD,2021.2.3,MacIntel,60.14675809,,,,,,,,,,,2.201,1,,,,,,,,,,,,,,z,1,2.201,,,,,,,,0.358735352,-0.233037109,0,0,0,,0,39,39,148,1,JOMS,HB,old,z,./images/JOMSHB.png,,,,,,,,,,,,,,,,,,,,,,,,,,,,,,,,,,,
,,,,,,,,,,,,,,,,,5a74d7f717ef3500016ff92a,31,2022-02-12_14h09.36.809,lexical_decision_task_DD,2021.2.3,MacIntel,60.14675809,,,,,,,,,,,0.5912,1,,,,,,,,,,,,,,m,1,0.5912,,,,,,,,0.358735352,-0.233037109,0,0,0,,0,40,40,27,1,ATTIC,C,old,m,./images/ATTIC.png,,,,,,,,,,,,,,,,,,,,,,,,,,,,,,,,,,,
,,,,,,,,,,,,,,,,,5a74d7f717ef3500016ff92a,31,2022-02-12_14h09.36.809,lexical_decision_task_DD,2021.2.3,MacIntel,60.14675809,,,,,,,,,,,0.9977,1,,,,,,,,,,,,,,m,1,0.9977,,,,,,,,0.358735352,-0.233037109,0,0,0,space,0,41,41,43,1,MOSQUE,HB,old,m,./images/MOSQUEHB.png,4.3184,,,,,,,,,,,,,,,,,,,,,,,,,,,,,,,,,,
,,,,,,,,,,,,,,,,,5a74d7f717ef3500016ff92a,31,2022-02-12_14h09.36.809,lexical_decision_task_DD,2021.2.3,MacIntel,60.14675809,,,,,,,,,,,1.9958,1,,,,,,,,,,,,,,z,1,1.9958,,,,,,,,0.358735352,-0.233037109,0,0,0,,0,42,42,127,1,NINDY,HB,old,z,./images/NINDYHB.png,,,,,,,,,,,,,,,,,,,,,,,,,,,,,,,,,,,
,,,,,,,,,,,,,,,,,5a74d7f717ef3500016ff92a,31,2022-02-12_14h09.36.809,lexical_decision_task_DD,2021.2.3,MacIntel,60.14675809,,,,,,,,,,,0.7092,1,,,,,,,,,,,,,,z,1,0.7092,,,,,,,,0.358735352,-0.233037109,0,0,0,,0,43,43,138,1,PLICE,C,old,z,./images/PLICE.png,,,,,,,,,,,,,,,,,,,,,,,,,,,,,,,,,,,
,,,,,,,,,,,,,,,,,5a74d7f717ef3500016ff92a,31,2022-02-12_14h09.36.809,lexical_decision_task_DD,2021.2.3,MacIntel,60.14675809,,,,,,,,,,,0.6495,1,,,,,,,,,,,,,,m,1,0.6495,,,,,,,,0.358735352,-0.233037109,0,0,0,,0,44,44,71,1,PIMPLE,LB,old,m,./images/PIMPLELB.png,,,,,,,,,,,,,,,,,,,,,,,,,,,,,,,,,,,
,,,,,,,,,,,,,,,,,5a74d7f717ef3500016ff92a,31,2022-02-12_14h09.36.809,lexical_decision_task_DD,2021.2.3,MacIntel,60.14675809,,,,,,,,,,,0.6147,1,,,,,,,,,,,,,,m,1,0.6147,,,,,,,,0.358735352,-0.233037109,0,0,0,,0,45,45,61,1,CANDLE,HB,old,m,./images/CANDLEHB.png,,,,,,,,,,,,,,,,,,,,,,,,,,,,,,,,,,,
,,,,,,,,,,,,,,,,,5a74d7f717ef3500016ff92a,31,2022-02-12_14h09.36.809,lexical_decision_task_DD,2021.2.3,MacIntel,60.14675809,,,,,,,,,,,0.7021,1,,,,,,,,,,,,,,z,1,0.7021,,,,,,,,0.358735352,-0.233037109,0,0,0,,0,46,46,106,1,CLUMS,HB,old,z,./images/CLUMSHB.png,,,,,,,,,,,,,,,,,,,,,,,,,,,,,,,,,,,
,,,,,,,,,,,,,,,,,5a74d7f717ef3500016ff92a,31,2022-02-12_14h09.36.809,lexical_decision_task_DD,2021.2.3,MacIntel,60.14675809,,,,,,,,,,,0.8637,1,,,,,,,,,,,,,,m,1,0.8637,,,,,,,,0.358735352,-0.233037109,0,0,0,,0,47,47,50,1,MALLET,LB,old,m,./images/MALLETLB.png,,,,,,,,,,,,,,,,,,,,,,,,,,,,,,,,,,,
,,,,,,,,,,,,,,,,,5a74d7f717ef3500016ff92a,31,2022-02-12_14h09.36.809,lexical_decision_task_DD,2021.2.3,MacIntel,60.14675809,,,,,,,,,,,0.6259,1,,,,,,,,,,,,,,z,1,0.6259,,,,,,,,0.358735352,-0.233037109,0,0,0,,0,48,48,129,1,PRANS,C,old,z,./images/PRANS.png,,,,,,,,,,,,,,,,,,,,,,,,,,,,,,,,,,,
,,,,,,,,,,,,,,,,,5a74d7f717ef3500016ff92a,31,2022-02-12_14h09.36.809,lexical_decision_task_DD,2021.2.3,MacIntel,60.14675809,,,,,,,,,,,1.0793,1,,,,,,,,,,,,,,z,1,1.0793,,,,,,,,0.358735352,-0.233037109,0,0,0,,0,49,49,112,1,MYING,HB,old,z,./images/MYINGHB.png,,,,,,,,,,,,,,,,,,,,,,,,,,,,,,,,,,,
,,,,,,,,,,,,,,,,,5a74d7f717ef3500016ff92a,31,2022-02-12_14h09.36.809,lexical_decision_task_DD,2021.2.3,MacIntel,60.14675809,,,,,,,,,,,0.9296,1,,,,,,,,,,,,,,m,1,0.9296,,,,,,,,0.358735352,-0.233037109,0,0,0,,0,50,50,1,1,PLANK,HB,old,m,./images/PLANKHB.png,,,,,,,,,,,,,,,,,,,,,,,,,,,,,,,,,,,
,,,,,,,,,,,,,,,,,5a74d7f717ef3500016ff92a,31,2022-02-12_14h09.36.809,lexical_decision_task_DD,2021.2.3,MacIntel,60.14675809,,,,,,,,,,,0.5825,1,,,,,,,,,,,,,,m,1,0.5825,,,,,,,,0.358735352,-0.233037109,0,0,0,,0,51,51,20,1,CRADLE,LB,old,m,./images/CRADLELB.png,,,,,,,,,,,,,,,,,,,,,,,,,,,,,,,,,,,
,,,,,,,,,,,,,,,,,5a74d7f717ef3500016ff92a,31,2022-02-12_14h09.36.809,lexical_decision_task_DD,2021.2.3,MacIntel,60.14675809,,,,,,,,,,,0.6976,1,,,,,,,,,,,,,,z,1,0.6976,,,,,,,,0.358735352,-0.233037109,0,0,0,,0,52,52,84,1,HAXES,C,old,z,./images/HAXES.png,,,,,,,,,,,,,,,,,,,,,,,,,,,,,,,,,,,
,,,,,,,,,,,,,,,,,5a74d7f717ef3500016ff92a,31,2022-02-12_14h09.36.809,lexical_decision_task_DD,2021.2.3,MacIntel,60.14675809,,,,,,,,,,,2.7458,0,,,,,,,,,,,,,,z,0,2.7458,,,,,,,,0.358735352,-0.233037109,0,0,0,,0,53,53,16,1,PENCE,HB,old,m,./images/PENCEHB.png,,,,,,,,,,,,,,,,,,,,,,,,,,,,,,,,,,,
,,,,,,,,,,,,,,,,,5a74d7f717ef3500016ff92a,31,2022-02-12_14h09.36.809,lexical_decision_task_DD,2021.2.3,MacIntel,60.14675809,,,,,,,,,,,0.8237,1,,,,,,,,,,,,,,z,1,0.8237,,,,,,,,0.358735352,-0.233037109,0,0,0,,0,54,54,132,1,SCIFF,C,old,z,./images/SCIFF.png,,,,,,,,,,,,,,,,,,,,,,,,,,,,,,,,,,,
,,,,,,,,,,,,,,,,,5a74d7f717ef3500016ff92a,31,2022-02-12_14h09.36.809,lexical_decision_task_DD,2021.2.3,MacIntel,60.14675809,,,,,,,,,,,0.7987,1,,,,,,,,,,,,,,m,1,0.7987,,,,,,,,0.358735352,-0.233037109,0,0,0,,0,55,55,82,1,SUNSET,HB,old,m,./images/SUNSETHB.png,,,,,,,,,,,,,,,,,,,,,,,,,,,,,,,,,,,
,,,,,,,,,,,,,,,,,5a74d7f717ef3500016ff92a,31,2022-02-12_14h09.36.809,lexical_decision_task_DD,2021.2.3,MacIntel,60.14675809,,,,,,,,,,,0.7498,1,,,,,,,,,,,,,,z,1,0.7498,,,,,,,,0.358735352,-0.233037109,0,0,0,,0,56,56,122,1,BLOOT,LB,old,z,./images/BLOOTLB.png,,,,,,,,,,,,,,,,,,,,,,,,,,,,,,,,,,,
,,,,,,,,,,,,,,,,,5a74d7f717ef3500016ff92a,31,2022-02-12_14h09.36.809,lexical_decision_task_DD,2021.2.3,MacIntel,60.14675809,,,,,,,,,,,0.631,1,,,,,,,,,,,,,,m,1,0.631,,,,,,,,0.358735352,-0.233037109,0,0,0,,0,57,57,56,1,PACKET,LB,old,m,./images/PACKETLB.png,,,,,,,,,,,,,,,,,,,,,,,,,,,,,,,,,,,
,,,,,,,,,,,,,,,,,5a74d7f717ef3500016ff92a,31,2022-02-12_14h09.36.809,lexical_decision_task_DD,2021.2.3,MacIntel,60.14675809,,,,,,,,,,,0.6133,1,,,,,,,,,,,,,,m,1,0.6133,,,,,,,,0.358735352,-0.233037109,0,0,0,,0,58,58,21,1,KIDNEY,C,old,m,./images/KIDNEY.png,,,,,,,,,,,,,,,,,,,,,,,,,,,,,,,,,,,
,,,,,,,,,,,,,,,,,5a74d7f717ef3500016ff92a,31,2022-02-12_14h09.36.809,lexical_decision_task_DD,2021.2.3,MacIntel,60.14675809,,,,,,,,,,,0.5417,1,,,,,,,,,,,,,,m,1,0.5417,,,,,,,,0.358735352,-0.233037109,0,0,0,,0,59,59,42,1,FOLDER,C,old,m,./images/FOLDER.png,,,,,,,,,,,,,,,,,,,,,,,,,,,,,,,,,,,
,,,,,,,,,,,,,,,,,5a74d7f717ef3500016ff92a,31,2022-02-12_14h09.36.809,lexical_decision_task_DD,2021.2.3,MacIntel,60.14675809,,,,,,,,,,,0.5646,1,,,,,,,,,,,,,,m,1,0.5646,,,,,,,,0.358735352,-0.233037109,0,0,0,,0,60,60,26,1,SMOKER,LB,old,m,./images/SMOKERLB.png,,,,,,,,,,,,,,,,,,,,,,,,,,,,,,,,,,,
,,,,,,,,,,,,,,,,,5a74d7f717ef3500016ff92a,31,2022-02-12_14h09.36.809,lexical_decision_task_DD,2021.2.3,MacIntel,60.14675809,,,,,,,,,,,0.5593,1,,,,,,,,,,,,,,m,1,0.5593,,,,,,,,0.358735352,-0.233037109,0,0,0,,0,61,61,45,1,KITTEN,C,old,m,./images/KITTEN.png,,,,,,,,,,,,,,,,,,,,,,,,,,,,,,,,,,,
,,,,,,,,,,,,,,,,,5a74d7f717ef3500016ff92a,31,2022-02-12_14h09.36.809,lexical_decision_task_DD,2021.2.3,MacIntel,60.14675809,,,,,,,,,,,0.9498,1,,,,,,,,,,,,,,z,1,0.9498,,,,,,,,0.358735352,-0.233037109,0,0,0,,0,62,62,143,1,MONGS,LB,old,z,./images/MONGSLB.png,,,,,,,,,,,,,,,,,,,,,,,,,,,,,,,,,,,
,,,,,,,,,,,,,,,,,5a74d7f717ef3500016ff92a,31,2022-02-12_14h09.36.809,lexical_decision_task_DD,2021.2.3,MacIntel,60.14675809,,,,,,,,,,,1.3692,1,,,,,,,,,,,,,,m,1,1.3692,,,,,,,,0.358735352,-0.233037109,0,0,0,,0,63,63,34,1,CANYON,HB,old,m,./images/CANYONHB.png,,,,,,,,,,,,,,,,,,,,,,,,,,,,,,,,,,,
,,,,,,,,,,,,,,,,,5a74d7f717ef3500016ff92a,31,2022-02-12_14h09.36.809,lexical_decision_task_DD,2021.2.3,MacIntel,60.14675809,,,,,,,,,,,0.5318,1,,,,,,,,,,,,,,m,1,0.5318,,,,,,,,0.358735352,-0.233037109,0,0,0,,0,64,64,63,1,MIRROR,C,old,m,./images/MIRROR.png,,,,,,,,,,,,,,,,,,,,,,,,,,,,,,,,,,,
,,,,,,,,,,,,,,,,,5a74d7f717ef3500016ff92a,31,2022-02-12_14h09.36.809,lexical_decision_task_DD,2021.2.3,MacIntel,60.14675809,,,,,,,,,,,0.7661,1,,,,,,,,,,,,,,m,1,0.7661,,,,,,,,0.358735352,-0.233037109,0,0,0,,0,65,65,19,1,DOUGH,HB,old,m,./images/DOUGHHB.png,,,,,,,,,,,,,,,,,,,,,,,,,,,,,,,,,,,
,,,,,,,,,,,,,,,,,5a74d7f717ef3500016ff92a,31,2022-02-12_14h09.36.809,lexical_decision_task_DD,2021.2.3,MacIntel,60.14675809,,,,,,,,,,,1.0115,1,,,,,,,,,,,,,,z,1,1.0115,,,,,,,,0.358735352,-0.233037109,0,0,0,,0,66,66,118,1,BAVEL,HB,old,z,./images/BAVELHB.png,,,,,,,,,,,,,,,,,,,,,,,,,,,,,,,,,,,
,,,,,,,,,,,,,,,,,5a74d7f717ef3500016ff92a,31,2022-02-12_14h09.36.809,lexical_decision_task_DD,2021.2.3,MacIntel,60.14675809,,,,,,,,,,,1.0319,1,,,,,,,,,,,,,,m,1,1.0319,,,,,,,,0.358735352,-0.233037109,0,0,0,,0,67,67,7,1,PAINT,HB,old,m,./images/PAINTHB.png,,,,,,,,,,,,,,,,,,,,,,,,,,,,,,,,,,,
,,,,,,,,,,,,,,,,,5a74d7f717ef3500016ff92a,31,2022-02-12_14h09.36.809,lexical_decision_task_DD,2021.2.3,MacIntel,60.14675809,,,,,,,,,,,0.511,1,,,,,,,,,,,,,,m,1,0.511,,,,,,,,0.358735352,-0.233037109,0,0,0,,0,68,68,78,1,LITTER,C,old,m,./images/LITTER.png,,,,,,,,,,,,,,,,,,,,,,,,,,,,,,,,,,,
,,,,,,,,,,,,,,,,,5a74d7f717ef3500016ff92a,31,2022-02-12_14h09.36.809,lexical_decision_task_DD,2021.2.3,MacIntel,60.14675809,,,,,,,,,,,1.696,1,,,,,,,,,,,,,,z,1,1.696,,,,,,,,0.358735352,-0.233037109,0,0,0,,0,69,69,115,1,MAWNS,HB,old,z,./images/MAWNSHB.png,,,,,,,,,,,,,,,,,,,,,,,,,,,,,,,,,,,
,,,,,,,,,,,,,,,,,5a74d7f717ef3500016ff92a,31,2022-02-12_14h09.36.809,lexical_decision_task_DD,2021.2.3,MacIntel,60.14675809,,,,,,,,,,,1.1962,1,,,,,,,,,,,,,,z,1,1.1962,,,,,,,,0.358735352,-0.233037109,0,0,0,,0,70,70,121,1,CEERS,HB,old,z,./images/CEERSHB.png,,,,,,,,,,,,,,,,,,,,,,,,,,,,,,,,,,,
,,,,,,,,,,,,,,,,,5a74d7f717ef3500016ff92a,31,2022-02-12_14h09.36.809,lexical_decision_task_DD,2021.2.3,MacIntel,60.14675809,,,,,,,,,,,0.8329,1,,,,,,,,,,,,,,m,1,0.8329,,,,,,,,0.358735352,-0.233037109,0,0,0,,0,71,71,76,1,INFANT,HB,old,m,./images/INFANTHB.png,,,,,,,,,,,,,,,,,,,,,,,,,,,,,,,,,,,
,,,,,,,,,,,,,,,,,5a74d7f717ef3500016ff92a,31,2022-02-12_14h09.36.809,lexical_decision_task_DD,2021.2.3,MacIntel,60.14675809,,,,,,,,,,,0.5592,1,,,,,,,,,,,,,,m,1,0.5592,,,,,,,,0.358735352,-0.233037109,0,0,0,,0,72,72,69,1,COOKER,C,old,m,./images/COOKER.png,,,,,,,,,,,,,,,,,,,,,,,,,,,,,,,,,,,
,,,,,,,,,,,,,,,,,5a74d7f717ef3500016ff92a,31,2022-02-12_14h09.36.809,lexical_decision_task_DD,2021.2.3,MacIntel,60.14675809,,,,,,,,,,,0.7068,1,,,,,,,,,,,,,,z,1,0.7068,,,,,,,,0.358735352,-0.233037109,0,0,0,,0,73,73,105,1,MOKER,C,old,z,./images/MOKER.png,,,,,,,,,,,,,,,,,,,,,,,,,,,,,,,,,,,
,,,,,,,,,,,,,,,,,5a74d7f717ef3500016ff92a,31,2022-02-12_14h09.36.809,lexical_decision_task_DD,2021.2.3,MacIntel,60.14675809,,,,,,,,,,,0.6929,1,,,,,,,,,,,,,,z,1,0.6929,,,,,,,,0.358735352,-0.233037109,0,0,0,,0,74,74,120,1,RINED,C,old,z,./images/RINED.png,,,,,,,,,,,,,,,,,,,,,,,,,,,,,,,,,,,
,,,,,,,,,,,,,,,,,5a74d7f717ef3500016ff92a,31,2022-02-12_14h09.36.809,lexical_decision_task_DD,2021.2.3,MacIntel,60.14675809,,,,,,,,,,,0.6653,1,,,,,,,,,,,,,,m,1,0.6653,,,,,,,,0.358735352,-0.233037109,0,0,0,,0,75,75,23,1,WALRUS,LB,old,m,./images/WALRUSLB.png,,,,,,,,,,,,,,,,,,,,,,,,,,,,,,,,,,,
,,,,,,,,,,,,,,,,,5a74d7f717ef3500016ff92a,31,2022-02-12_14h09.36.809,lexical_decision_task_DD,2021.2.3,MacIntel,60.14675809,,,,,,,,,,,0.7499,1,,,,,,,,,,,,,,z,1,0.7499,,,,,,,,0.358735352,-0.233037109,0,0,0,,0,76,76,155,1,CANGY,LB,old,z,./images/CANGYLB.png,,,,,,,,,,,,,,,,,,,,,,,,,,,,,,,,,,,
,,,,,,,,,,,,,,,,,5a74d7f717ef3500016ff92a,31,2022-02-12_14h09.36.809,lexical_decision_task_DD,2021.2.3,MacIntel,60.14675809,,,,,,,,,,,1.5808,1,,,,,,,,,,,,,,z,1,1.5808,,,,,,,,0.358735352,-0.233037109,0,0,0,,0,77,77,145,1,LAMEL,HB,old,z,./images/LAMELHB.png,,,,,,,,,,,,,,,,,,,,,,,,,,,,,,,,,,,
,,,,,,,,,,,,,,,,,5a74d7f717ef3500016ff92a,31,2022-02-12_14h09.36.809,lexical_decision_task_DD,2021.2.3,MacIntel,60.14675809,,,,,,,,,,,0.6214,1,,,,,,,,,,,,,,m,1,0.6214,,,,,,,,0.358735352,-0.233037109,0,0,0,,0,78,78,74,1,CEMENT,LB,old,m,./images/CEMENTLB.png,,,,,,,,,,,,,,,,,,,,,,,,,,,,,,,,,,,
,,,,,,,,,,,,,,,,,5a74d7f717ef3500016ff92a,31,2022-02-12_14h09.36.809,lexical_decision_task_DD,2021.2.3,MacIntel,60.14675809,,,,,,,,,,,0.7264,1,,,,,,,,,,,,,,z,1,0.7264,,,,,,,,0.358735352,-0.233037109,0,0,0,,0,79,79,159,1,CUDDY,C,old,z,./images/CUDDY.png,,,,,,,,,,,,,,,,,,,,,,,,,,,,,,,,,,,
,,,,,,,,,,,,,,,,,5a74d7f717ef3500016ff92a,31,2022-02-12_14h09.36.809,lexical_decision_task_DD,2021.2.3,MacIntel,60.14675809,,,,,,,,,,,0.8661,1,,,,,,,,,,,,,,m,1,0.8661,,,,,,,,0.358735352,-0.233037109,0,0,0,,0,80,80,52,1,BANNER,HB,old,m,./images/BANNERHB.png,,,,,,,,,,,,,,,,,,,,,,,,,,,,,,,,,,,
,,,,,,,,,,,,,,,,,5a74d7f717ef3500016ff92a,31,2022-02-12_14h09.36.809,lexical_decision_task_DD,2021.2.3,MacIntel,60.14675809,,,,,,,,,,,0.6651,0,,,,,,,,,,,,,,m,0,0.6651,,,,,,,,0.358735352,-0.233037109,0,0,0,,0,81,81,128,1,GRIFT,LB,old,z,./images/GRIFTLB.png,,,,,,,,,,,,,,,,,,,,,,,,,,,,,,,,,,,
,,,,,,,,,,,,,,,,,5a74d7f717ef3500016ff92a,31,2022-02-12_14h09.36.809,lexical_decision_task_DD,2021.2.3,MacIntel,60.14675809,,,,,,,,,,,0.5266,1,,,,,,,,,,,,,,m,1,0.5266,,,,,,,,0.358735352,-0.233037109,0,0,0,,0,82,82,36,1,THROAT,C,old,m,./images/THROAT.png,,,,,,,,,,,,,,,,,,,,,,,,,,,,,,,,,,,
,,,,,,,,,,,,,,,,,5a74d7f717ef3500016ff92a,31,2022-02-12_14h09.36.809,lexical_decision_task_DD,2021.2.3,MacIntel,60.14675809,,,,,,,,,,,0.6822,1,,,,,,,,,,,,,,z,1,0.6822,,,,,,,,0.358735352,-0.233037109,0,0,0,space,0,83,83,98,1,BAMPS,LB,old,z,./images/BAMPSLB.png,8.798,,,,,,,,,,,,,,,,,,,,,,,,,,,,,,,,,,
,,,,,,,,,,,,,,,,,5a74d7f717ef3500016ff92a,31,2022-02-12_14h09.36.809,lexical_decision_task_DD,2021.2.3,MacIntel,60.14675809,,,,,,,,,,,0.5323,1,,,,,,,,,,,,,,m,1,0.5323,,,,,,,,0.358735352,-0.233037109,0,0,0,,0,84,84,47,1,BERRY,LB,old,m,./images/BERRYLB.png,,,,,,,,,,,,,,,,,,,,,,,,,,,,,,,,,,,
,,,,,,,,,,,,,,,,,5a74d7f717ef3500016ff92a,31,2022-02-12_14h09.36.809,lexical_decision_task_DD,2021.2.3,MacIntel,60.14675809,,,,,,,,,,,0.509,1,,,,,,,,,,,,,,m,1,0.509,,,,,,,,0.358735352,-0.233037109,0,0,0,,0,85,85,0,1,TOMATO,C,old,m,./images/TOMATO.png,,,,,,,,,,,,,,,,,,,,,,,,,,,,,,,,,,,
,,,,,,,,,,,,,,,,,5a74d7f717ef3500016ff92a,31,2022-02-12_14h09.36.809,lexical_decision_task_DD,2021.2.3,MacIntel,60.14675809,,,,,,,,,,,0.6159,1,,,,,,,,,,,,,,m,1,0.6159,,,,,,,,0.358735352,-0.233037109,0,0,0,,0,86,86,2,1,BEARD,LB,old,m,./images/BEARDLB.png,,,,,,,,,,,,,,,,,,,,,,,,,,,,,,,,,,,
,,,,,,,,,,,,,,,,,5a74d7f717ef3500016ff92a,31,2022-02-12_14h09.36.809,lexical_decision_task_DD,2021.2.3,MacIntel,60.14675809,,,,,,,,,,,0.6828,1,,,,,,,,,,,,,,z,1,0.6828,,,,,,,,0.358735352,-0.233037109,0,0,0,,0,87,87,164,1,SGREW,LB,old,z,./images/SGREWLB.png,,,,,,,,,,,,,,,,,,,,,,,,,,,,,,,,,,,
,,,,,,,,,,,,,,,,,5a74d7f717ef3500016ff92a,31,2022-02-12_14h09.36.809,lexical_decision_task_DD,2021.2.3,MacIntel,60.14675809,,,,,,,,,,,0.5907,1,,,,,,,,,,,,,,z,1,0.5907,,,,,,,,0.358735352,-0.233037109,0,0,0,,0,88,88,153,1,CLUPS,C,old,z,./images/CLUPS.png,,,,,,,,,,,,,,,,,,,,,,,,,,,,,,,,,,,
,,,,,,,,,,,,,,,,,5a74d7f717ef3500016ff92a,31,2022-02-12_14h09.36.809,lexical_decision_task_DD,2021.2.3,MacIntel,60.14675809,,,,,,,,,,,0.6503,1,,,,,,,,,,,,,,m,1,0.6503,,,,,,,,0.358735352,-0.233037109,0,0,0,,0,89,89,70,1,URINE,HB,old,m,./images/URINEHB.png,,,,,,,,,,,,,,,,,,,,,,,,,,,,,,,,,,,
,,,,,,,,,,,,,,,,,5a74d7f717ef3500016ff92a,31,2022-02-12_14h09.36.809,lexical_decision_task_DD,2021.2.3,MacIntel,60.14675809,,,,,,,,,,,1.7289,1,,,,,,,,,,,,,,z,1,1.7289,,,,,,,,0.358735352,-0.233037109,0,0,0,,0,90,90,113,1,LINEW,LB,old,z,./images/LINEWLB.png,,,,,,,,,,,,,,,,,,,,,,,,,,,,,,,,,,,
,,,,,,,,,,,,,,,,,5a74d7f717ef3500016ff92a,31,2022-02-12_14h09.36.809,lexical_decision_task_DD,2021.2.3,MacIntel,60.14675809,,,,,,,,,,,0.7839,1,,,,,,,,,,,,,,m,1,0.7839,,,,,,,,0.358735352,-0.233037109,0,0,0,,0,91,91,58,1,BABOON,HB,old,m,./images/BABOONHB.png,,,,,,,,,,,,,,,,,,,,,,,,,,,,,,,,,,,
,,,,,,,,,,,,,,,,,5a74d7f717ef3500016ff92a,31,2022-02-12_14h09.36.809,lexical_decision_task_DD,2021.2.3,MacIntel,60.14675809,,,,,,,,,,,0.6161,1,,,,,,,,,,,,,,m,1,0.6161,,,,,,,,0.358735352,-0.233037109,0,0,0,,0,92,92,14,1,PICKLE,LB,old,m,./images/PICKLELB.png,,,,,,,,,,,,,,,,,,,,,,,,,,,,,,,,,,,
,,,,,,,,,,,,,,,,,5a74d7f717ef3500016ff92a,31,2022-02-12_14h09.36.809,lexical_decision_task_DD,2021.2.3,MacIntel,60.14675809,,,,,,,,,,,0.6436,1,,,,,,,,,,,,,,z,1,0.6436,,,,,,,,0.358735352,-0.233037109,0,0,0,,0,93,93,96,1,KEAMS,C,old,z,./images/KEAMS.png,,,,,,,,,,,,,,,,,,,,,,,,,,,,,,,,,,,
,,,,,,,,,,,,,,,,,5a74d7f717ef3500016ff92a,31,2022-02-12_14h09.36.809,lexical_decision_task_DD,2021.2.3,MacIntel,60.14675809,,,,,,,,,,,0.6126,1,,,,,,,,,,,,,,m,1,0.6126,,,,,,,,0.358735352,-0.233037109,0,0,0,,0,94,94,39,1,SHELF,C,old,m,./images/SHELF.png,,,,,,,,,,,,,,,,,,,,,,,,,,,,,,,,,,,
,,,,,,,,,,,,,,,,,5a74d7f717ef3500016ff92a,31,2022-02-12_14h09.36.809,lexical_decision_task_DD,2021.2.3,MacIntel,60.14675809,,,,,,,,,,,0.8162,1,,,,,,,,,,,,,,m,1,0.8162,,,,,,,,0.358735352,-0.233037109,0,0,0,,0,95,95,49,1,DRUMS,HB,old,m,./images/DRUMSHB.png,,,,,,,,,,,,,,,,,,,,,,,,,,,,,,,,,,,
,,,,,,,,,,,,,,,,,5a74d7f717ef3500016ff92a,31,2022-02-12_14h09.36.809,lexical_decision_task_DD,2021.2.3,MacIntel,60.14675809,,,,,,,,,,,0.8293,1,,,,,,,,,,,,,,z,1,0.8293,,,,,,,,0.358735352,-0.233037109,0,0,0,,0,96,96,146,1,MOOST,LB,old,z,./images/MOOSTLB.png,,,,,,,,,,,,,,,,,,,,,,,,,,,,,,,,,,,
,,,,,,,,,,,,,,,,,5a74d7f717ef3500016ff92a,31,2022-02-12_14h09.36.809,lexical_decision_task_DD,2021.2.3,MacIntel,60.14675809,,,,,,,,,,,1.0817,1,,,,,,,,,,,,,,z,1,1.0817,,,,,,,,0.358735352,-0.233037109,0,0,0,,0,97,97,160,1,VEETS,HB,old,z,./images/VEETSHB.png,,,,,,,,,,,,,,,,,,,,,,,,,,,,,,,,,,,
,,,,,,,,,,,,,,,,,5a74d7f717ef3500016ff92a,31,2022-02-12_14h09.36.809,lexical_decision_task_DD,2021.2.3,MacIntel,60.14675809,,,,,,,,,,,0.5762,1,,,,,,,,,,,,,,m,1,0.5762,,,,,,,,0.358735352,-0.233037109,0,0,0,,0,98,98,81,1,POODLE,C,old,m,./images/POODLE.png,,,,,,,,,,,,,,,,,,,,,,,,,,,,,,,,,,,
,,,,,,,,,,,,,,,,,5a74d7f717ef3500016ff92a,31,2022-02-12_14h09.36.809,lexical_decision_task_DD,2021.2.3,MacIntel,60.14675809,,,,,,,,,,,0.7975,1,,,,,,,,,,,,,,z,1,0.7975,,,,,,,,0.358735352,-0.233037109,0,0,0,,0,99,99,133,1,POWDY,HB,old,z,./images/POWDYHB.png,,,,,,,,,,,,,,,,,,,,,,,,,,,,,,,,,,,
,,,,,,,,,,,,,,,,,5a74d7f717ef3500016ff92a,31,2022-02-12_14h09.36.809,lexical_decision_task_DD,2021.2.3,MacIntel,60.14675809,,,,,,,,,,,0.6474,1,,,,,,,,,,,,,,z,1,0.6474,,,,,,,,0.358735352,-0.233037109,0,0,0,,0,100,100,161,1,BLAPS,LB,old,z,./images/BLAPSLB.png,,,,,,,,,,,,,,,,,,,,,,,,,,,,,,,,,,,
,,,,,,,,,,,,,,,,,5a74d7f717ef3500016ff92a,31,2022-02-12_14h09.36.809,lexical_decision_task_DD,2021.2.3,MacIntel,60.14675809,,,,,,,,,,,0.5786,1,,,,,,,,,,,,,,m,1,0.5786,,,,,,,,0.358735352,-0.233037109,0,0,0,,0,101,101,30,1,STORM,C,old,m,./images/STORM.png,,,,,,,,,,,,,,,,,,,,,,,,,,,,,,,,,,,
,,,,,,,,,,,,,,,,,5a74d7f717ef3500016ff92a,31,2022-02-12_14h09.36.809,lexical_decision_task_DD,2021.2.3,MacIntel,60.14675809,,,,,,,,,,,0.7328,1,,,,,,,,,,,,,,z,1,0.7328,,,,,,,,0.358735352,-0.233037109,0,0,0,,0,102,102,167,1,ZONET,LB,old,z,./images/ZONETLB.png,,,,,,,,,,,,,,,,,,,,,,,,,,,,,,,,,,,
,,,,,,,,,,,,,,,,,5a74d7f717ef3500016ff92a,31,2022-02-12_14h09.36.809,lexical_decision_task_DD,2021.2.3,MacIntel,60.14675809,,,,,,,,,,,0.6113,1,,,,,,,,,,,,,,m,1,0.6113,,,,,,,,0.358735352,-0.233037109,0,0,0,,0,103,103,9,1,RHINO,C,old,m,./images/RHINO.png,,,,,,,,,,,,,,,,,,,,,,,,,,,,,,,,,,,
,,,,,,,,,,,,,,,,,5a74d7f717ef3500016ff92a,31,2022-02-12_14h09.36.809,lexical_decision_task_DD,2021.2.3,MacIntel,60.14675809,,,,,,,,,,,0.6002,1,,,,,,,,,,,,,,z,1,0.6002,,,,,,,,0.358735352,-0.233037109,0,0,0,,0,104,104,131,1,NACES,LB,old,z,./images/NACESLB.png,,,,,,,,,,,,,,,,,,,,,,,,,,,,,,,,,,,
,,,,,,,,,,,,,,,,,5a74d7f717ef3500016ff92a,31,2022-02-12_14h09.36.809,lexical_decision_task_DD,2021.2.3,MacIntel,60.14675809,,,,,,,,,,,0.6018,1,,,,,,,,,,,,,,z,1,0.6018,,,,,,,,0.358735352,-0.233037109,0,0,0,,0,105,105,101,1,GLEET,LB,old,z,./images/GLEETLB.png,,,,,,,,,,,,,,,,,,,,,,,,,,,,,,,,,,,
,,,,,,,,,,,,,,,,,5a74d7f717ef3500016ff92a,31,2022-02-12_14h09.36.809,lexical_decision_task_DD,2021.2.3,MacIntel,60.14675809,,,,,,,,,,,0.5093,1,,,,,,,,,,,,,,m,1,0.5093,,,,,,,,0.358735352,-0.233037109,0,0,0,,0,106,106,35,1,PEACH,LB,old,m,./images/PEACHLB.png,,,,,,,,,,,,,,,,,,,,,,,,,,,,,,,,,,,
,,,,,,,,,,,,,,,,,5a74d7f717ef3500016ff92a,31,2022-02-12_14h09.36.809,lexical_decision_task_DD,2021.2.3,MacIntel,60.14675809,,,,,,,,,,,0.5429,1,,,,,,,,,,,,,,z,1,0.5429,,,,,,,,0.358735352,-0.233037109,0,0,0,,0,107,107,135,1,JOODY,C,old,z,./images/JOODY.png,,,,,,,,,,,,,,,,,,,,,,,,,,,,,,,,,,,
,,,,,,,,,,,,,,,,,5a74d7f717ef3500016ff92a,31,2022-02-12_14h09.36.809,lexical_decision_task_DD,2021.2.3,MacIntel,60.14675809,,,,,,,,,,,0.5672,1,,,,,,,,,,,,,,m,1,0.5672,,,,,,,,0.358735352,-0.233037109,0,0,0,,0,108,108,62,1,PURSE,LB,old,m,./images/PURSELB.png,,,,,,,,,,,,,,,,,,,,,,,,,,,,,,,,,,,
,,,,,,,,,,,,,,,,,5a74d7f717ef3500016ff92a,31,2022-02-12_14h09.36.809,lexical_decision_task_DD,2021.2.3,MacIntel,60.14675809,,,,,,,,,,,0.5172,0,,,,,,,,,,,,,,z,0,0.5172,,,,,,,,0.358735352,-0.233037109,0,0,0,,0,109,109,8,1,TULIP,LB,old,m,./images/TULIPLB.png,,,,,,,,,,,,,,,,,,,,,,,,,,,,,,,,,,,
,,,,,,,,,,,,,,,,,5a74d7f717ef3500016ff92a,31,2022-02-12_14h09.36.809,lexical_decision_task_DD,2021.2.3,MacIntel,60.14675809,,,,,,,,,,,0.9801,1,,,,,,,,,,,,,,m,1,0.9801,,,,,,,,0.358735352,-0.233037109,0,0,0,,0,110,110,32,1,BARREL,LB,old,m,./images/BARRELLB.png,,,,,,,,,,,,,,,,,,,,,,,,,,,,,,,,,,,
,,,,,,,,,,,,,,,,,5a74d7f717ef3500016ff92a,31,2022-02-12_14h09.36.809,lexical_decision_task_DD,2021.2.3,MacIntel,60.14675809,,,,,,,,,,,0.6533,1,,,,,,,,,,,,,,m,1,0.6533,,,,,,,,0.358735352,-0.233037109,0,0,0,,0,111,111,29,1,CRUMB,LB,old,m,./images/CRUMBLB.png,,,,,,,,,,,,,,,,,,,,,,,,,,,,,,,,,,,
,,,,,,,,,,,,,,,,,5a74d7f717ef3500016ff92a,31,2022-02-12_14h09.36.809,lexical_decision_task_DD,2021.2.3,MacIntel,60.14675809,,,,,,,,,,,0.6639,1,,,,,,,,,,,,,,z,1,0.6639,,,,,,,,0.358735352,-0.233037109,0,0,0,,0,112,112,149,1,VEASE,LB,old,z,./images/VEASELB.png,,,,,,,,,,,,,,,,,,,,,,,,,,,,,,,,,,,
,,,,,,,,,,,,,,,,,5a74d7f717ef3500016ff92a,31,2022-02-12_14h09.36.809,lexical_decision_task_DD,2021.2.3,MacIntel,60.14675809,,,,,,,,,,,1.615,1,,,,,,,,,,,,,,z,1,1.615,,,,,,,,0.358735352,-0.233037109,0,0,0,,0,113,113,154,1,THINT,HB,old,z,./images/THINTHB.png,,,,,,,,,,,,,,,,,,,,,,,,,,,,,,,,,,,
,,,,,,,,,,,,,,,,,5a74d7f717ef3500016ff92a,31,2022-02-12_14h09.36.809,lexical_decision_task_DD,2021.2.3,MacIntel,60.14675809,,,,,,,,,,,0.608,1,,,,,,,,,,,,,,m,1,0.608,,,,,,,,0.358735352,-0.233037109,0,0,0,,0,114,114,72,1,NOOSE,C,old,m,./images/NOOSE.png,,,,,,,,,,,,,,,,,,,,,,,,,,,,,,,,,,,
,,,,,,,,,,,,,,,,,5a74d7f717ef3500016ff92a,31,2022-02-12_14h09.36.809,lexical_decision_task_DD,2021.2.3,MacIntel,60.14675809,,,,,,,,,,,1.3448,1,,,,,,,,,,,,,,z,1,1.3448,,,,,,,,0.358735352,-0.233037109,0,0,0,,0,115,115,109,1,BURGE,HB,old,z,./images/BURGEHB.png,,,,,,,,,,,,,,,,,,,,,,,,,,,,,,,,,,,
,,,,,,,,,,,,,,,,,5a74d7f717ef3500016ff92a,31,2022-02-12_14h09.36.809,lexical_decision_task_DD,2021.2.3,MacIntel,60.14675809,,,,,,,,,,,0.7801,1,,,,,,,,,,,,,,m,1,0.7801,,,,,,,,0.358735352,-0.233037109,0,0,0,,0,116,116,46,1,PEARL,HB,old,m,./images/PEARLHB.png,,,,,,,,,,,,,,,,,,,,,,,,,,,,,,,,,,,
,,,,,,,,,,,,,,,,,5a74d7f717ef3500016ff92a,31,2022-02-12_14h09.36.809,lexical_decision_task_DD,2021.2.3,MacIntel,60.14675809,,,,,,,,,,,1.147,1,,,,,,,,,,,,,,z,1,1.147,,,,,,,,0.358735352,-0.233037109,0,0,0,,0,117,117,94,1,BLANS,HB,old,z,./images/BLANSHB.png,,,,,,,,,,,,,,,,,,,,,,,,,,,,,,,,,,,
,,,,,,,,,,,,,,,,,5a74d7f717ef3500016ff92a,31,2022-02-12_14h09.36.809,lexical_decision_task_DD,2021.2.3,MacIntel,60.14675809,,,,,,,,,,,0.7578,1,,,,,,,,,,,,,,z,1,0.7578,,,,,,,,0.358735352,-0.233037109,0,0,0,,0,118,118,92,1,PAIMS,LB,old,z,./images/PAIMSLB.png,,,,,,,,,,,,,,,,,,,,,,,,,,,,,,,,,,,
,,,,,,,,,,,,,,,,,5a74d7f717ef3500016ff92a,31,2022-02-12_14h09.36.809,lexical_decision_task_DD,2021.2.3,MacIntel,60.14675809,,,,,,,,,,,0.7492,1,,,,,,,,,,,,,,z,1,0.7492,,,,,,,,0.358735352,-0.233037109,0,0,0,,0,119,119,103,1,FLORT,HB,old,z,./images/FLORTHB.png,,,,,,,,,,,,,,,,,,,,,,,,,,,,,,,,,,,
,,,,,,,,,,,,,,,,,5a74d7f717ef3500016ff92a,31,2022-02-12_14h09.36.809,lexical_decision_task_DD,2021.2.3,MacIntel,60.14675809,,,,,,,,,,,0.6768,1,,,,,,,,,,,,,,m,1,0.6768,,,,,,,,0.358735352,-0.233037109,0,0,0,,0,120,120,75,1,GRAIN,C,old,m,./images/GRAIN.png,,,,,,,,,,,,,,,,,,,,,,,,,,,,,,,,,,,
,,,,,,,,,,,,,,,,,5a74d7f717ef3500016ff92a,31,2022-02-12_14h09.36.809,lexical_decision_task_DD,2021.2.3,MacIntel,60.14675809,,,,,,,,,,,0.7753,1,,,,,,,,,,,,,,z,1,0.7753,,,,,,,,0.358735352,-0.233037109,0,0,0,,0,121,121,110,1,CRUNK,LB,old,z,./images/CRUNKLB.png,,,,,,,,,,,,,,,,,,,,,,,,,,,,,,,,,,,
,,,,,,,,,,,,,,,,,5a74d7f717ef3500016ff92a,31,2022-02-12_14h09.36.809,lexical_decision_task_DD,2021.2.3,MacIntel,60.14675809,,,,,,,,,,,0.5247,1,,,,,,,,,,,,,,z,1,0.5247,,,,,,,,0.358735352,-0.233037109,0,0,0,,0,122,122,147,1,ZOLES,C,old,z,./images/ZOLES.png,,,,,,,,,,,,,,,,,,,,,,,,,,,,,,,,,,,
,,,,,,,,,,,,,,,,,5a74d7f717ef3500016ff92a,31,2022-02-12_14h09.36.809,lexical_decision_task_DD,2021.2.3,MacIntel,60.14675809,,,,,,,,,,,0.5923,1,,,,,,,,,,,,,,z,1,0.5923,,,,,,,,0.358735352,-0.233037109,0,0,0,,0,123,123,141,1,PLEET,C,old,z,./images/PLEET.png,,,,,,,,,,,,,,,,,,,,,,,,,,,,,,,,,,,
,,,,,,,,,,,,,,,,,5a74d7f717ef3500016ff92a,31,2022-02-12_14h09.36.809,lexical_decision_task_DD,2021.2.3,MacIntel,60.14675809,,,,,,,,,,,0.5427,1,,,,,,,,,,,,,,z,1,0.5427,,,,,,,,0.358735352,-0.233037109,0,0,0,,0,124,124,99,1,BACKY,C,old,z,./images/BACKY.png,,,,,,,,,,,,,,,,,,,,,,,,,,,,,,,,,,,
,,,,,,,,,,,,,,,,,5a74d7f717ef3500016ff92a,31,2022-02-12_14h09.36.809,lexical_decision_task_DD,2021.2.3,MacIntel,60.14675809,,,,,,,,,,,0.5825,1,,,,,,,,,,,,,,z,1,0.5825,,,,,,,,0.358735352,-0.233037109,0,0,0,space,0,125,125,152,1,FRAIN,LB,old,z,./images/FRAINLB.png,1.4897,,,,,,,,,,,,,,,,,,,,,,,,,,,,,,,,,,
,,,,,,,,,,,,,,,,,5a74d7f717ef3500016ff92a,31,2022-02-12_14h09.36.809,lexical_decision_task_DD,2021.2.3,MacIntel,60.14675809,,,,,,,,,,,0.732,1,,,,,,,,,,,,,,m,1,0.732,,,,,,,,0.358735352,-0.233037109,0,0,0,,0,126,126,22,1,MELON,HB,old,m,./images/MELONHB.png,,,,,,,,,,,,,,,,,,,,,,,,,,,,,,,,,,,
,,,,,,,,,,,,,,,,,5a74d7f717ef3500016ff92a,31,2022-02-12_14h09.36.809,lexical_decision_task_DD,2021.2.3,MacIntel,60.14675809,,,,,,,,,,,0.5946,1,,,,,,,,,,,,,,z,1,0.5946,,,,,,,,0.358735352,-0.233037109,0,0,0,,0,127,127,116,1,BALGY,LB,old,z,./images/BALGYLB.png,,,,,,,,,,,,,,,,,,,,,,,,,,,,,,,,,,,
,,,,,,,,,,,,,,,,,5a74d7f717ef3500016ff92a,31,2022-02-12_14h09.36.809,lexical_decision_task_DD,2021.2.3,MacIntel,60.14675809,,,,,,,,,,,0.7641,1,,,,,,,,,,,,,,z,1,0.7641,,,,,,,,0.358735352,-0.233037109,0,0,0,,0,128,128,107,1,FASKS,LB,old,z,./images/FASKSLB.png,,,,,,,,,,,,,,,,,,,,,,,,,,,,,,,,,,,
,,,,,,,,,,,,,,,,,5a74d7f717ef3500016ff92a,31,2022-02-12_14h09.36.809,lexical_decision_task_DD,2021.2.3,MacIntel,60.14675809,,,,,,,,,,,0.6172,1,,,,,,,,,,,,,,m,1,0.6172,,,,,,,,0.358735352,-0.233037109,0,0,0,,0,129,129,53,1,CARPET,LB,old,m,./images/CARPETLB.png,,,,,,,,,,,,,,,,,,,,,,,,,,,,,,,,,,,
,,,,,,,,,,,,,,,,,5a74d7f717ef3500016ff92a,31,2022-02-12_14h09.36.809,lexical_decision_task_DD,2021.2.3,MacIntel,60.14675809,,,,,,,,,,,0.5846,1,,,,,,,,,,,,,,m,1,0.5846,,,,,,,,0.358735352,-0.233037109,0,0,0,,0,130,130,80,1,WEASEL,LB,old,m,./images/WEASELLB.png,,,,,,,,,,,,,,,,,,,,,,,,,,,,,,,,,,,
,,,,,,,,,,,,,,,,,5a74d7f717ef3500016ff92a,31,2022-02-12_14h09.36.809,lexical_decision_task_DD,2021.2.3,MacIntel,60.14675809,,,,,,,,,,,0.5294,1,,,,,,,,,,,,,,z,1,0.5294,,,,,,,,0.358735352,-0.233037109,0,0,0,,0,131,131,137,1,JOOST,LB,old,z,./images/JOOSTLB.png,,,,,,,,,,,,,,,,,,,,,,,,,,,,,,,,,,,
,,,,,,,,,,,,,,,,,5a74d7f717ef3500016ff92a,31,2022-02-12_14h09.36.809,lexical_decision_task_DD,2021.2.3,MacIntel,60.14675809,,,,,,,,,,,0.5461,1,,,,,,,,,,,,,,m,1,0.5461,,,,,,,,0.358735352,-0.233037109,0,0,0,,0,132,132,65,1,FARMER,LB,old,m,./images/FARMERLB.png,,,,,,,,,,,,,,,,,,,,,,,,,,,,,,,,,,,
,,,,,,,,,,,,,,,,,5a74d7f717ef3500016ff92a,31,2022-02-12_14h09.36.809,lexical_decision_task_DD,2021.2.3,MacIntel,60.14675809,,,,,,,,,,,0.559,1,,,,,,,,,,,,,,z,1,0.559,,,,,,,,0.358735352,-0.233037109,0,0,0,,0,133,133,126,1,GUELS,C,old,z,./images/GUELS.png,,,,,,,,,,,,,,,,,,,,,,,,,,,,,,,,,,,
,,,,,,,,,,,,,,,,,5a74d7f717ef3500016ff92a,31,2022-02-12_14h09.36.809,lexical_decision_task_DD,2021.2.3,MacIntel,60.14675809,,,,,,,,,,,0.7154,1,,,,,,,,,,,,,,m,1,0.7154,,,,,,,,0.358735352,-0.233037109,0,0,0,,0,134,134,79,1,CRUST,HB,old,m,./images/CRUSTHB.png,,,,,,,,,,,,,,,,,,,,,,,,,,,,,,,,,,,
,,,,,,,,,,,,,,,,,5a74d7f717ef3500016ff92a,31,2022-02-12_14h09.36.809,lexical_decision_task_DD,2021.2.3,MacIntel,60.14675809,,,,,,,,,,,0.5589,1,,,,,,,,,,,,,,m,1,0.5589,,,,,,,,0.358735352,-0.233037109,0,0,0,,0,135,135,18,1,JAGUAR,C,old,m,./images/JAGUAR.png,,,,,,,,,,,,,,,,,,,,,,,,,,,,,,,,,,,
,,,,,,,,,,,,,,,,,5a74d7f717ef3500016ff92a,31,2022-02-12_14h09.36.809,lexical_decision_task_DD,2021.2.3,MacIntel,60.14675809,,,,,,,,,,,0.7499,1,,,,,,,,,,,,,,m,1,0.7499,,,,,,,,0.358735352,-0.233037109,0,0,0,,0,136,136,73,1,SNACK,HB,old,m,./images/SNACKHB.png,,,,,,,,,,,,,,,,,,,,,,,,,,,,,,,,,,,
,,,,,,,,,,,,,,,,,5a74d7f717ef3500016ff92a,31,2022-02-12_14h09.36.809,lexical_decision_task_DD,2021.2.3,MacIntel,60.14675809,,,,,,,,,,,0.6537,1,,,,,,,,,,,,,,m,1,0.6537,,,,,,,,0.358735352,-0.233037109,0,0,0,,0,137,137,77,1,COUCH,LB,old,m,./images/COUCHLB.png,,,,,,,,,,,,,,,,,,,,,,,,,,,,,,,,,,,
,,,,,,,,,,,,,,,,,5a74d7f717ef3500016ff92a,31,2022-02-12_14h09.36.809,lexical_decision_task_DD,2021.2.3,MacIntel,60.14675809,,,,,,,,,,,0.7755,1,,,,,,,,,,,,,,m,1,0.7755,,,,,,,,0.358735352,-0.233037109,0,0,0,,0,138,138,57,1,MOOSE,C,old,m,./images/MOOSE.png,,,,,,,,,,,,,,,,,,,,,,,,,,,,,,,,,,,
,,,,,,,,,,,,,,,,,5a74d7f717ef3500016ff92a,31,2022-02-12_14h09.36.809,lexical_decision_task_DD,2021.2.3,MacIntel,60.14675809,,,,,,,,,,,0.6265,1,,,,,,,,,,,,,,z,1,0.6265,,,,,,,,0.358735352,-0.233037109,0,0,0,,0,139,139,87,1,TRING,C,old,z,./images/TRING.png,,,,,,,,,,,,,,,,,,,,,,,,,,,,,,,,,,,
,,,,,,,,,,,,,,,,,5a74d7f717ef3500016ff92a,31,2022-02-12_14h09.36.809,lexical_decision_task_DD,2021.2.3,MacIntel,60.14675809,,,,,,,,,,,0.7433,1,,,,,,,,,,,,,,z,1,0.7433,,,,,,,,0.358735352,-0.233037109,0,0,0,,0,140,140,123,1,SEDGE,C,old,z,./images/SEDGE.png,,,,,,,,,,,,,,,,,,,,,,,,,,,,,,,,,,,
,,,,,,,,,,,,,,,,,5a74d7f717ef3500016ff92a,31,2022-02-12_14h09.36.809,lexical_decision_task_DD,2021.2.3,MacIntel,60.14675809,,,,,,,,,,,0.8452,1,,,,,,,,,,,,,,z,1,0.8452,,,,,,,,0.358735352,-0.233037109,0,0,0,,0,141,141,100,1,DRIBS,HB,old,z,./images/DRIBSHB.png,,,,,,,,,,,,,,,,,,,,,,,,,,,,,,,,,,,
,,,,,,,,,,,,,,,,,5a74d7f717ef3500016ff92a,31,2022-02-12_14h09.36.809,lexical_decision_task_DD,2021.2.3,MacIntel,60.14675809,,,,,,,,,,,1.2003,1,,,,,,,,,,,,,,z,1,1.2003,,,,,,,,0.358735352,-0.233037109,0,0,0,,0,142,142,163,1,GAMBA,HB,old,z,./images/GAMBAHB.png,,,,,,,,,,,,,,,,,,,,,,,,,,,,,,,,,,,
,,,,,,,,,,,,,,,,,5a74d7f717ef3500016ff92a,31,2022-02-12_14h09.36.809,lexical_decision_task_DD,2021.2.3,MacIntel,60.14675809,,,,,,,,,,,0.7469,1,,,,,,,,,,,,,,m,1,0.7469,,,,,,,,0.358735352,-0.233037109,0,0,0,,0,143,143,64,1,JELLY,HB,old,m,./images/JELLYHB.png,,,,,,,,,,,,,,,,,,,,,,,,,,,,,,,,,,,
,,,,,,,,,,,,,,,,,5a74d7f717ef3500016ff92a,31,2022-02-12_14h09.36.809,lexical_decision_task_DD,2021.2.3,MacIntel,60.14675809,,,,,,,,,,,0.8647,1,,,,,,,,,,,,,,m,1,0.8647,,,,,,,,0.358735352,-0.233037109,0,0,0,,0,144,144,13,1,MOTOR,HB,old,m,./images/MOTORHB.png,,,,,,,,,,,,,,,,,,,,,,,,,,,,,,,,,,,
,,,,,,,,,,,,,,,,,5a74d7f717ef3500016ff92a,31,2022-02-12_14h09.36.809,lexical_decision_task_DD,2021.2.3,MacIntel,60.14675809,,,,,,,,,,,0.6148,1,,,,,,,,,,,,,,m,1,0.6148,,,,,,,,0.358735352,-0.233037109,0,0,0,,0,145,145,4,1,MUSCLE,HB,old,m,./images/MUSCLEHB.png,,,,,,,,,,,,,,,,,,,,,,,,,,,,,,,,,,,
,,,,,,,,,,,,,,,,,5a74d7f717ef3500016ff92a,31,2022-02-12_14h09.36.809,lexical_decision_task_DD,2021.2.3,MacIntel,60.14675809,,,,,,,,,,,0.6312,1,,,,,,,,,,,,,,z,1,0.6312,,,,,,,,0.358735352,-0.233037109,0,0,0,,0,146,146,93,1,SMONE,C,old,z,./images/SMONE.png,,,,,,,,,,,,,,,,,,,,,,,,,,,,,,,,,,,
,,,,,,,,,,,,,,,,,5a74d7f717ef3500016ff92a,31,2022-02-12_14h09.36.809,lexical_decision_task_DD,2021.2.3,MacIntel,60.14675809,,,,,,,,,,,0.5779,1,,,,,,,,,,,,,,z,1,0.5779,,,,,,,,0.358735352,-0.233037109,0,0,0,,0,147,147,90,1,NEAST,C,old,z,./images/NEAST.png,,,,,,,,,,,,,,,,,,,,,,,,,,,,,,,,,,,
,,,,,,,,,,,,,,,,,5a74d7f717ef3500016ff92a,31,2022-02-12_14h09.36.809,lexical_decision_task_DD,2021.2.3,MacIntel,60.14675809,,,,,,,,,,,1.6832,1,,,,,,,,,,,,,,z,1,1.6832,,,,,,,,0.358735352,-0.233037109,0,0,0,,0,148,148,157,1,INLER,HB,old,z,./images/INLERHB.png,,,,,,,,,,,,,,,,,,,,,,,,,,,,,,,,,,,
,,,,,,,,,,,,,,,,,5a74d7f717ef3500016ff92a,31,2022-02-12_14h09.36.809,lexical_decision_task_DD,2021.2.3,MacIntel,60.14675809,,,,,,,,,,,1.1036,1,,,,,,,,,,,,,,z,1,1.1036,,,,,,,,0.358735352,-0.233037109,0,0,0,,0,149,149,139,1,BLEAR,HB,old,z,./images/BLEARHB.png,,,,,,,,,,,,,,,,,,,,,,,,,,,,,,,,,,,
,,,,,,,,,,,,,,,,,5a74d7f717ef3500016ff92a,31,2022-02-12_14h09.36.809,lexical_decision_task_DD,2021.2.3,MacIntel,60.14675809,,,,,,,,,,,0.6251,1,,,,,,,,,,,,,,z,1,0.6251,,,,,,,,0.358735352,-0.233037109,0,0,0,,0,150,150,162,1,LEICH,C,old,z,./images/LEICH.png,,,,,,,,,,,,,,,,,,,,,,,,,,,,,,,,,,,
,,,,,,,,,,,,,,,,,5a74d7f717ef3500016ff92a,31,2022-02-12_14h09.36.809,lexical_decision_task_DD,2021.2.3,MacIntel,60.14675809,,,,,,,,,,,0.595,1,,,,,,,,,,,,,,z,1,0.595,,,,,,,,0.358735352,-0.233037109,0,0,0,,0,151,151,117,1,STEEG,C,old,z,./images/STEEG.png,,,,,,,,,,,,,,,,,,,,,,,,,,,,,,,,,,,
,,,,,,,,,,,,,,,,,5a74d7f717ef3500016ff92a,31,2022-02-12_14h09.36.809,lexical_decision_task_DD,2021.2.3,MacIntel,60.14675809,,,,,,,,,,,0.5271,1,,,,,,,,,,,,,,m,1,0.5271,,,,,,,,0.358735352,-0.233037109,0,0,0,,0,152,152,24,1,SCREW,C,old,m,./images/SCREW.png,,,,,,,,,,,,,,,,,,,,,,,,,,,,,,,,,,,
,,,,,,,,,,,,,,,,,5a74d7f717ef3500016ff92a,31,2022-02-12_14h09.36.809,lexical_decision_task_DD,2021.2.3,MacIntel,60.14675809,,,,,,,,,,,0.6236,1,,,,,,,,,,,,,,m,1,0.6236,,,,,,,,0.358735352,-0.233037109,0,0,0,,0,153,153,67,1,SAILOR,HB,old,m,./images/SAILORHB.png,,,,,,,,,,,,,,,,,,,,,,,,,,,,,,,,,,,
,,,,,,,,,,,,,,,,,5a74d7f717ef3500016ff92a,31,2022-02-12_14h09.36.809,lexical_decision_task_DD,2021.2.3,MacIntel,60.14675809,,,,,,,,,,,0.6368,1,,,,,,,,,,,,,,m,1,0.6368,,,,,,,,0.358735352,-0.233037109,0,0,0,,0,154,154,17,1,SKIING,LB,old,m,./images/SKIINGLB.png,,,,,,,,,,,,,,,,,,,,,,,,,,,,,,,,,,,
,,,,,,,,,,,,,,,,,5a74d7f717ef3500016ff92a,31,2022-02-12_14h09.36.809,lexical_decision_task_DD,2021.2.3,MacIntel,60.14675809,,,,,,,,,,,0.5856,1,,,,,,,,,,,,,,m,1,0.5856,,,,,,,,0.358735352,-0.233037109,0,0,0,,0,155,155,68,1,TORCH,LB,old,m,./images/TORCHLB.png,,,,,,,,,,,,,,,,,,,,,,,,,,,,,,,,,,,
,,,,,,,,,,,,,,,,,5a74d7f717ef3500016ff92a,31,2022-02-12_14h09.36.809,lexical_decision_task_DD,2021.2.3,MacIntel,60.14675809,,,,,,,,,,,0.478,1,,,,,,,,,,,,,,m,1,0.478,,,,,,,,0.358735352,-0.233037109,0,0,0,,0,156,156,60,1,TWINS,C,old,m,./images/TWINS.png,,,,,,,,,,,,,,,,,,,,,,,,,,,,,,,,,,,
,,,,,,,,,,,,,,,,,5a74d7f717ef3500016ff92a,31,2022-02-12_14h09.36.809,lexical_decision_task_DD,2021.2.3,MacIntel,60.14675809,,,,,,,,,,,0.5102,1,,,,,,,,,,,,,,z,1,0.5102,,,,,,,,0.358735352,-0.233037109,0,0,0,,0,157,157,108,1,GRUET,C,old,z,./images/GRUET.png,,,,,,,,,,,,,,,,,,,,,,,,,,,,,,,,,,,
,,,,,,,,,,,,,,,,,5a74d7f717ef3500016ff92a,31,2022-02-12_14h09.36.809,lexical_decision_task_DD,2021.2.3,MacIntel,60.14675809,,,,,,,,,,,1.0363,1,,,,,,,,,,,,,,z,1,1.0363,,,,,,,,0.358735352,-0.233037109,0,0,0,,0,158,158,124,1,TUNCH,HB,old,z,./images/TUNCHHB.png,,,,,,,,,,,,,,,,,,,,,,,,,,,,,,,,,,,
,,,,,,,,,,,,,,,,,5a74d7f717ef3500016ff92a,31,2022-02-12_14h09.36.809,lexical_decision_task_DD,2021.2.3,MacIntel,60.14675809,,,,,,,,,,,1.5963,1,,,,,,,,,,,,,,z,1,1.5963,,,,,,,,0.358735352,-0.233037109,0,0,0,,0,159,159,151,1,TINKY,HB,old,z,./images/TINKYHB.png,,,,,,,,,,,,,,,,,,,,,,,,,,,,,,,,,,,
,,,,,,,,,,,,,,,,,5a74d7f717ef3500016ff92a,31,2022-02-12_14h09.36.809,lexical_decision_task_DD,2021.2.3,MacIntel,60.14675809,,,,,,,,,,,0.8227,1,,,,,,,,,,,,,,z,1,0.8227,,,,,,,,0.358735352,-0.233037109,0,0,0,,0,160,160,119,1,PAFER,LB,old,z,./images/PAFERLB.png,,,,,,,,,,,,,,,,,,,,,,,,,,,,,,,,,,,
,,,,,,,,,,,,,,,,,5a74d7f717ef3500016ff92a,31,2022-02-12_14h09.36.809,lexical_decision_task_DD,2021.2.3,MacIntel,60.14675809,,,,,,,,,,,0.6805,1,,,,,,,,,,,,,,m,1,0.6805,,,,,,,,0.358735352,-0.233037109,0,0,0,,0,161,161,10,1,BELLY,HB,old,m,./images/BELLYHB.png,,,,,,,,,,,,,,,,,,,,,,,,,,,,,,,,,,,
,,,,,,,,,,,,,,,,,5a74d7f717ef3500016ff92a,31,2022-02-12_14h09.36.809,lexical_decision_task_DD,2021.2.3,MacIntel,60.14675809,,,,,,,,,,,0.6907,1,,,,,,,,,,,,,,m,1,0.6907,,,,,,,,0.358735352,-0.233037109,0,0,0,,0,162,162,12,1,SHORE,C,old,m,./images/SHORE.png,,,,,,,,,,,,,,,,,,,,,,,,,,,,,,,,,,,
,,,,,,,,,,,,,,,,,5a74d7f717ef3500016ff92a,31,2022-02-12_14h09.36.809,lexical_decision_task_DD,2021.2.3,MacIntel,60.14675809,,,,,,,,,,,0.7298,1,,,,,,,,,,,,,,z,1,0.7298,,,,,,,,0.358735352,-0.233037109,0,0,0,,0,163,163,134,1,TROSS,LB,old,z,./images/TROSSLB.png,,,,,,,,,,,,,,,,,,,,,,,,,,,,,,,,,,,
,,,,,,,,,,,,,,,,,5a74d7f717ef3500016ff92a,31,2022-02-12_14h09.36.809,lexical_decision_task_DD,2021.2.3,MacIntel,60.14675809,,,,,,,,,,,0.6172,1,,,,,,,,,,,,,,z,1,0.6172,,,,,,,,0.358735352,-0.233037109,0,0,0,,0,164,164,95,1,HANTY,LB,old,z,./images/HANTYLB.png,,,,,,,,,,,,,,,,,,,,,,,,,,,,,,,,,,,
,,,,,,,,,,,,,,,,,5a74d7f717ef3500016ff92a,31,2022-02-12_14h09.36.809,lexical_decision_task_DD,2021.2.3,MacIntel,60.14675809,,,,,,,,,,,0.5892,1,,,,,,,,,,,,,,m,1,0.5892,,,,,,,,0.358735352,-0.233037109,0,0,0,,0,165,165,3,1,FINGER,C,old,m,./images/FINGER.png,,,,,,,,,,,,,,,,,,,,,,,,,,,,,,,,,,,
,,,,,,,,,,,,,,,,,5a74d7f717ef3500016ff92a,31,2022-02-12_14h09.36.809,lexical_decision_task_DD,2021.2.3,MacIntel,60.14675809,,,,,,,,,,,0.5571,1,,,,,,,,,,,,,,z,1,0.5571,,,,,,,,0.358735352,-0.233037109,0,0,0,,0,166,166,111,1,HOSSE,C,old,z,./images/HOSSE.png,,,,,,,,,,,,,,,,,,,,,,,,,,,,,,,,,,,
,,,,,,,,,,,,,,,,,5a74d7f717ef3500016ff92a,31,2022-02-12_14h09.36.809,lexical_decision_task_DD,2021.2.3,MacIntel,60.14675809,,,,,,,,,,,1.3572,1,,,,,,,,,,,,,,m,1,1.3572,,,,,,,,0.358735352,-0.233037109,0,0,0,,0,167,167,33,1,MAGGOT,C,old,m,./images/MAGGOT.png,,,,,,,,,,,,,,,,,,,,,,,,,,,,,,,,,,,
,,,,,,,,,,,,,,,,,5a74d7f717ef3500016ff92a,31,2022-02-12_14h09.36.809,lexical_decision_task_DD,2021.2.3,MacIntel,60.14675809,,,,,,,,,,,,,,,,,,,,,,,,,,,,,,,,,,,,,,,,,,,,,,,,How likely will it be that you will recognize the words presented slighly blurred on a scale of 0 (not likely) to 100 (most likely)?,,,,,0.013520508,-0.406391602,1,0,0,jol_adv,4,8.6493,0,0,0,1,1,,,,,,,,,,,,,,,,,,,,,
,,,,,,,,,,,,,,,,,5a74d7f717ef3500016ff92a,31,2022-02-12_14h09.36.809,lexical_decision_task_DD,2021.2.3,MacIntel,60.14675809,,,,,,,,,,,,,,,,,,,,,,,,,,,,,,,,,,,,,,,,,,,,,,,,How likely will it be that you will recognize the words presented very blurred on a scale of 0 (not likely) to 100 (most likely)?,,,,,,,,,,,4,8.6307,0,1,1,2,1,,,,,,,,,,,,,,,,,,,,,
,,,,,,,,,,,,,,,,,5a74d7f717ef3500016ff92a,31,2022-02-12_14h09.36.809,lexical_decision_task_DD,2021.2.3,MacIntel,60.14675809,,,,,,,,,,,,,,,,,,,,,,,,,,,,,,,,,,,,,,,,,,,,,,,,How likely will it be that you will recognize the words presented clearly on a scale of 0 (not likely) to 100 (most likely)?,,,,,,,,,,,6,3.15,0,2,2,0,1,,,,,,,,,,,,,,,,,,,,,
space,10.5,0.262817383,-0.075375977,0,0,0,,,,,,1,test,"In the next phase you will be presented with the words from the the first phase. Your job is to decide whether you remember seeing the word or not. If you remember seeing the word press ""old"" or type ""m"". If you do not remember seeing the word press ""new"" or type ""z"". Please press the space bar or click on continue to begin. ",,,5a74d7f717ef3500016ff92a,31,2022-02-12_14h09.36.809,lexical_decision_task_DD,2021.2.3,MacIntel,60.14675809,,,,,,,,,,,,,,,,,,,,,,,,,,,,,,,,,,,,,,,,,,,,,,,,,,,,,,,,,,,,,,,,,,0,0,0,0,1,,,,,,,,,,,,,,,,
space,2.2895,0.156513672,-0.353251953,0,0,0,,,,,,1,test,"In the next phase you will be presented with the words from the the first phase. Your job is to decide whether you remember seeing the word or not. If you remember seeing the word press ""old"" or type ""m"". If you do not remember seeing the word press ""new"" or type ""z"". Please press the space bar or click on continue to begin. ",,,5a74d7f717ef3500016ff92a,31,2022-02-12_14h09.36.809,lexical_decision_task_DD,2021.2.3,MacIntel,60.14675809,,,,,,,,,,,,,,,,,,,,,,,,,,,,,,,,,,,,,,,,,,,,,,,,,,,,,,,,,,,,,,,,,,1,0,1,0,1,,,,,,,,,,,,,,,,
,,0.156513672,-0.353251953,1,0,0,,,,,,1,test,"In the next phase you will be presented with the words from the the first phase. Your job is to decide whether you remember seeing the word or not. If you remember seeing the word press ""old"" or type ""m"". If you do not remember seeing the word press ""new"" or type ""z"". Please press the space bar or click on continue to begin. ",,,5a74d7f717ef3500016ff92a,31,2022-02-12_14h09.36.809,lexical_decision_task_DD,2021.2.3,MacIntel,60.14675809,,,,,,,,,,,,,,,,,,,,,,,,,,,,,,,,,,,,,,,,,,,,,,,,,,,,,,,,,,,,,,,,,,2,0,2,0,1,instr_done_button,,,,,,,,,,,,,,,
space,1.6149,0.383662109,0.031259766,0,0,0,,,,,,1,test,"In the next phase you will be presented with the words from the the first phase. Your job is to decide whether you remember seeing the word or not. If you remember seeing the word press ""old"" or type ""m"". If you do not remember seeing the word press ""new"" or type ""z"". Please press the space bar or click on continue to begin. ",,,5a74d7f717ef3500016ff92a,31,2022-02-12_14h09.36.809,lexical_decision_task_DD,2021.2.3,MacIntel,60.14675809,,,,,,,,,,,,,,,,,,,,,,,,,,,,,,,,,,,,,,,,,,,,,,,,,,,,,,,,,,,,,,,,,,3,0,3,0,1,,,,,,,,,,,,,,,,
space,2.1285,0.07140625,-0.141914062,0,0,0,,,,,,1,test,"In the next phase you will be presented with the words from the the first phase. Your job is to decide whether you remember seeing the word or not. If you remember seeing the word press ""old"" or type ""m"". If you do not remember seeing the word press ""new"" or type ""z"". Please press the space bar or click on continue to begin. ",,,5a74d7f717ef3500016ff92a,31,2022-02-12_14h09.36.809,lexical_decision_task_DD,2021.2.3,MacIntel,60.14675809,,,,,,,,,,,,,,,,,,,,,,,,,,,,,,,,,,,,,,,,,,,,,,,,,,,,,,,,,,,,,,,,,,4,0,4,0,1,,,,,,,,,,,,,,,,
,,,,,,,,,,,,,,,,,5a74d7f717ef3500016ff92a,31,2022-02-12_14h09.36.809,lexical_decision_task_DD,2021.2.3,MacIntel,60.14675809,,,,,,,,,,,1.2935,1,,,,,,,,,,,,,,,,,,,,,,,,0.07140625,-0.141914062,0,0,0,,,,,,,WHEEL,LB,z,m,./images/WHEELLB.png,,,,,,,,,,,,,,,,,,,,,z,1,1.2935,,,,,,,,0,0,0,161,1
,,,,,,,,,,,,,,,,,5a74d7f717ef3500016ff92a,31,2022-02-12_14h09.36.809,lexical_decision_task_DD,2021.2.3,MacIntel,60.14675809,,,,,,,,,,,1.1793,1,,,,,,,,,,,,,,,,,,,,,,,,0.07140625,-0.141914062,0,0,0,,,,,,,SHORE,C,m,m,./images/SHORE.png,,,,,,,,,,,,,,,,,,,,,m,1,1.1793,,,,,,,,0,1,1,12,1
,,,,,,,,,,,,,,,,,5a74d7f717ef3500016ff92a,31,2022-02-12_14h09.36.809,lexical_decision_task_DD,2021.2.3,MacIntel,60.14675809,,,,,,,,,,,0.8861,1,,,,,,,,,,,,,,,,,,,,,,,,0.07140625,-0.141914062,0,0,0,,,,,,,HAMMER,C,z,m,./images/HAMMER.png,,,,,,,,,,,,,,,,,,,,,z,1,0.8861,,,,,,,,0,2,2,159,1
,,,,,,,,,,,,,,,,,5a74d7f717ef3500016ff92a,31,2022-02-12_14h09.36.809,lexical_decision_task_DD,2021.2.3,MacIntel,60.14675809,,,,,,,,,,,0.6657,0,,,,,,,,,,,,,,,,,,,,,,,,0.07140625,-0.141914062,0,0,0,,,,,,,QUILL,HB,m,m,./images/QUILLHB.png,,,,,,,,,,,,,,,,,,,,,z,0,0.6657,,,,,,,,0,3,3,31,1
,,,,,,,,,,,,,,,,,5a74d7f717ef3500016ff92a,31,2022-02-12_14h09.36.809,lexical_decision_task_DD,2021.2.3,MacIntel,60.14675809,,,,,,,,,,,1.2812,0,,,,,,,,,,,,,,,,,,,,,,,,0.07140625,-0.141914062,0,0,0,,,,,,,BEARD,LB,m,m,./images/BEARDLB.png,,,,,,,,,,,,,,,,,,,,,z,0,1.2812,,,,,,,,0,4,4,2,1
,,,,,,,,,,,,,,,,,5a74d7f717ef3500016ff92a,31,2022-02-12_14h09.36.809,lexical_decision_task_DD,2021.2.3,MacIntel,60.14675809,,,,,,,,,,,0.7496,1,,,,,,,,,,,,,,,,,,,,,,,,0.07140625,-0.141914062,0,0,0,,,,,,,BURIAL,LB,m,m,./images/BURIALLB.png,,,,,,,,,,,,,,,,,,,,,m,1,0.7496,,,,,,,,0,5,5,59,1
,,,,,,,,,,,,,,,,,5a74d7f717ef3500016ff92a,31,2022-02-12_14h09.36.809,lexical_decision_task_DD,2021.2.3,MacIntel,60.14675809,,,,,,,,,,,0.705,1,,,,,,,,,,,,,,,,,,,,,,,,0.07140625,-0.141914062,0,0,0,,,,,,,BROOM,C,z,m,./images/BROOM.png,,,,,,,,,,,,,,,,,,,,,z,1,0.705,,,,,,,,0,6,6,162,1
,,,,,,,,,,,,,,,,,5a74d7f717ef3500016ff92a,31,2022-02-12_14h09.36.809,lexical_decision_task_DD,2021.2.3,MacIntel,60.14675809,,,,,,,,,,,0.7092,1,,,,,,,,,,,,,,,,,,,,,,,,0.07140625,-0.141914062,0,0,0,,,,,,,RULER,HB,z,m,./images/RULERHB.png,,,,,,,,,,,,,,,,,,,,,z,1,0.7092,,,,,,,,0,7,7,163,1
,,,,,,,,,,,,,,,,,5a74d7f717ef3500016ff92a,31,2022-02-12_14h09.36.809,lexical_decision_task_DD,2021.2.3,MacIntel,60.14675809,,,,,,,,,,,0.7669,1,,,,,,,,,,,,,,,,,,,,,,,,0.07140625,-0.141914062,0,0,0,,,,,,,LAGOON,LB,z,m,./images/LAGOONLB.png,,,,,,,,,,,,,,,,,,,,,z,1,0.7669,,,,,,,,0,8,8,131,1
,,,,,,,,,,,,,,,,,5a74d7f717ef3500016ff92a,31,2022-02-12_14h09.36.809,lexical_decision_task_DD,2021.2.3,MacIntel,60.14675809,,,,,,,,,,,0.5999,1,,,,,,,,,,,,,,,,,,,,,,,,0.07140625,-0.141914062,0,0,0,,,,,,,BANANA,HB,z,m,./images/BANANAHB.png,,,,,,,,,,,,,,,,,,,,,z,1,0.5999,,,,,,,,0,9,9,154,1
,,,,,,,,,,,,,,,,,5a74d7f717ef3500016ff92a,31,2022-02-12_14h09.36.809,lexical_decision_task_DD,2021.2.3,MacIntel,60.14675809,,,,,,,,,,,1.016,1,,,,,,,,,,,,,,,,,,,,,,,,0.07140625,-0.141914062,0,0,0,,,,,,,BUBBLE,LB,z,m,./images/BUBBLELB.png,,,,,,,,,,,,,,,,,,,,,z,1,1.016,,,,,,,,0,10,10,155,1
,,,,,,,,,,,,,,,,,5a74d7f717ef3500016ff92a,31,2022-02-12_14h09.36.809,lexical_decision_task_DD,2021.2.3,MacIntel,60.14675809,,,,,,,,,,,0.7887,0,,,,,,,,,,,,,,,,,,,,,,,,0.07140625,-0.141914062,0,0,0,,,,,,,CHERRY,C,z,m,./images/CHERRY.png,,,,,,,,,,,,,,,,,,,,,m,0,0.7887,,,,,,,,0,11,11,138,1
,,,,,,,,,,,,,,,,,5a74d7f717ef3500016ff92a,31,2022-02-12_14h09.36.809,lexical_decision_task_DD,2021.2.3,MacIntel,60.14675809,,,,,,,,,,,1.0167,1,,,,,,,,,,,,,,,,,,,,,,,,0.07140625,-0.141914062,0,0,0,,,,,,,BISHOP,HB,z,m,./images/BISHOPHB.png,,,,,,,,,,,,,,,,,,,,,z,1,1.0167,,,,,,,,0,12,12,133,1
,,,,,,,,,,,,,,,,,5a74d7f717ef3500016ff92a,31,2022-02-12_14h09.36.809,lexical_decision_task_DD,2021.2.3,MacIntel,60.14675809,,,,,,,,,,,0.6985,1,,,,,,,,,,,,,,,,,,,,,,,,0.07140625,-0.141914062,0,0,0,,,,,,,DOUGH,HB,m,m,./images/DOUGHHB.png,,,,,,,,,,,,,,,,,,,,,m,1,0.6985,,,,,,,,0,13,13,19,1
,,,,,,,,,,,,,,,,,5a74d7f717ef3500016ff92a,31,2022-02-12_14h09.36.809,lexical_decision_task_DD,2021.2.3,MacIntel,60.14675809,,,,,,,,,,,0.6722,1,,,,,,,,,,,,,,,,,,,,,,,,0.07140625,-0.141914062,0,0,0,,,,,,,BANNER,HB,m,m,./images/BANNERHB.png,,,,,,,,,,,,,,,,,,,,,m,1,0.6722,,,,,,,,0,14,14,52,1
,,,,,,,,,,,,,,,,,5a74d7f717ef3500016ff92a,31,2022-02-12_14h09.36.809,lexical_decision_task_DD,2021.2.3,MacIntel,60.14675809,,,,,,,,,,,0.7147,1,,,,,,,,,,,,,,,,,,,,,,,,0.07140625,-0.141914062,0,0,0,,,,,,,MALLET,LB,m,m,./images/MALLETLB.png,,,,,,,,,,,,,,,,,,,,,m,1,0.7147,,,,,,,,0,15,15,50,1
,,,,,,,,,,,,,,,,,5a74d7f717ef3500016ff92a,31,2022-02-12_14h09.36.809,lexical_decision_task_DD,2021.2.3,MacIntel,60.14675809,,,,,,,,,,,1.016,1,,,,,,,,,,,,,,,,,,,,,,,,0.07140625,-0.141914062,0,0,0,,,,,,,GRAIN,C,m,m,./images/GRAIN.png,,,,,,,,,,,,,,,,,,,,,m,1,1.016,,,,,,,,0,16,16,75,1
,,,,,,,,,,,,,,,,,5a74d7f717ef3500016ff92a,31,2022-02-12_14h09.36.809,lexical_decision_task_DD,2021.2.3,MacIntel,60.14675809,,,,,,,,,,,0.8004,1,,,,,,,,,,,,,,,,,,,,,,,,0.07140625,-0.141914062,0,0,0,,,,,,,SAUNA,C,z,m,./images/SAUNA.png,,,,,,,,,,,,,,,,,,,,,z,1,0.8004,,,,,,,,0,17,17,117,1
,,,,,,,,,,,,,,,,,5a74d7f717ef3500016ff92a,31,2022-02-12_14h09.36.809,lexical_decision_task_DD,2021.2.3,MacIntel,60.14675809,,,,,,,,,,,0.7514,1,,,,,,,,,,,,,,,,,,,,,,,,0.07140625,-0.141914062,0,0,0,,,,,,,CASINO,HB,z,m,./images/CASINOHB.png,,,,,,,,,,,,,,,,,,,,,z,1,0.7514,,,,,,,,0,18,18,112,1
,,,,,,,,,,,,,,,,,5a74d7f717ef3500016ff92a,31,2022-02-12_14h09.36.809,lexical_decision_task_DD,2021.2.3,MacIntel,60.14675809,,,,,,,,,,,0.7994,1,,,,,,,,,,,,,,,,,,,,,,,,0.07140625,-0.141914062,0,0,0,,,,,,,CANOE,HB,z,m,./images/CANOEHB.png,,,,,,,,,,,,,,,,,,,,,z,1,0.7994,,,,,,,,0,19,19,142,1
,,,,,,,,,,,,,,,,,5a74d7f717ef3500016ff92a,31,2022-02-12_14h09.36.809,lexical_decision_task_DD,2021.2.3,MacIntel,60.14675809,,,,,,,,,,,0.7205,1,,,,,,,,,,,,,,,,,,,,,,,,0.07140625,-0.141914062,0,0,0,,,,,,,CRATER,C,z,m,./images/CRATER.png,,,,,,,,,,,,,,,,,,,,,z,1,0.7205,,,,,,,,0,20,20,87,1
,,,,,,,,,,,,,,,,,5a74d7f717ef3500016ff92a,31,2022-02-12_14h09.36.809,lexical_decision_task_DD,2021.2.3,MacIntel,60.14675809,,,,,,,,,,,1.7423,0,,,,,,,,,,,,,,,,,,,,,,,,0.07140625,-0.141914062,0,0,0,,,,,,,SWING,HB,m,m,./images/SWINGHB.png,,,,,,,,,,,,,,,,,,,,,z,0,1.7423,,,,,,,,0,21,21,40,1
,,,,,,,,,,,,,,,,,5a74d7f717ef3500016ff92a,31,2022-02-12_14h09.36.809,lexical_decision_task_DD,2021.2.3,MacIntel,60.14675809,,,,,,,,,,,0.6093,1,,,,,,,,,,,,,,,,,,,,,,,,0.07140625,-0.141914062,0,0,0,,,,,,,MIRROR,C,m,m,./images/MIRROR.png,,,,,,,,,,,,,,,,,,,,,m,1,0.6093,,,,,,,,0,22,22,63,1
,,,,,,,,,,,,,,,,,5a74d7f717ef3500016ff92a,31,2022-02-12_14h09.36.809,lexical_decision_task_DD,2021.2.3,MacIntel,60.14675809,,,,,,,,,,,0.9498,0,,,,,,,,,,,,,,,,,,,,,,,,0.07140625,-0.141914062,0,0,0,,,,,,,COUCH,LB,m,m,./images/COUCHLB.png,,,,,,,,,,,,,,,,,,,,,z,0,0.9498,,,,,,,,0,23,23,77,1
,,,,,,,,,,,,,,,,,5a74d7f717ef3500016ff92a,31,2022-02-12_14h09.36.809,lexical_decision_task_DD,2021.2.3,MacIntel,60.14675809,,,,,,,,,,,0.7357,1,,,,,,,,,,,,,,,,,,,,,,,,0.07140625,-0.141914062,0,0,0,,,,,,,TULIP,LB,m,m,./images/TULIPLB.png,,,,,,,,,,,,,,,,,,,,,m,1,0.7357,,,,,,,,0,24,24,8,1
,,,,,,,,,,,,,,,,,5a74d7f717ef3500016ff92a,31,2022-02-12_14h09.36.809,lexical_decision_task_DD,2021.2.3,MacIntel,60.14675809,,,,,,,,,,,0.7215,1,,,,,,,,,,,,,,,,,,,,,,,,0.07140625,-0.141914062,0,0,0,,,,,,,PEARL,HB,m,m,./images/PEARLHB.png,,,,,,,,,,,,,,,,,,,,,m,1,0.7215,,,,,,,,0,25,25,46,1
,,,,,,,,,,,,,,,,,5a74d7f717ef3500016ff92a,31,2022-02-12_14h09.36.809,lexical_decision_task_DD,2021.2.3,MacIntel,60.14675809,,,,,,,,,,,0.7136,1,,,,,,,,,,,,,,,,,,,,,,,,0.07140625,-0.141914062,0,0,0,,,,,,,SQUARE,C,m,m,./images/SQUARE.png,,,,,,,,,,,,,,,,,,,,,m,1,0.7136,,,,,,,,0,26,26,6,1
,,,,,,,,,,,,,,,,,5a74d7f717ef3500016ff92a,31,2022-02-12_14h09.36.809,lexical_decision_task_DD,2021.2.3,MacIntel,60.14675809,,,,,,,,,,,0.7514,1,,,,,,,,,,,,,,,,,,,,,,,,0.07140625,-0.141914062,0,0,0,,,,,,,TRIPOD,C,m,m,./images/TRIPOD.png,,,,,,,,,,,,,,,,,,,,,m,1,0.7514,,,,,,,,0,27,27,54,1
,,,,,,,,,,,,,,,,,5a74d7f717ef3500016ff92a,31,2022-02-12_14h09.36.809,lexical_decision_task_DD,2021.2.3,MacIntel,60.14675809,,,,,,,,,,,0.6186,1,,,,,,,,,,,,,,,,,,,,,,,,0.07140625,-0.141914062,0,0,0,,,,,,,LADDER,LB,m,m,./images/LADDERLB.png,,,,,,,,,,,,,,,,,,,,,m,1,0.6186,,,,,,,,0,28,28,38,1
,,,,,,,,,,,,,,,,,5a74d7f717ef3500016ff92a,31,2022-02-12_14h09.36.809,lexical_decision_task_DD,2021.2.3,MacIntel,60.14675809,,,,,,,,,,,0.6139,1,,,,,,,,,,,,,,,,,,,,,,,,0.07140625,-0.141914062,0,0,0,,,,,,,MOOSE,C,m,m,./images/MOOSE.png,,,,,,,,,,,,,,,,,,,,,m,1,0.6139,,,,,,,,0,29,29,57,1
,,,,,,,,,,,,,,,,,5a74d7f717ef3500016ff92a,31,2022-02-12_14h09.36.809,lexical_decision_task_DD,2021.2.3,MacIntel,60.14675809,,,,,,,,,,,0.817,1,,,,,,,,,,,,,,,,,,,,,,,,0.07140625,-0.141914062,0,0,0,,,,,,,BAKER,C,z,m,./images/BAKER.png,,,,,,,,,,,,,,,,,,,,,z,1,0.817,,,,,,,,0,30,30,147,1
,,,,,,,,,,,,,,,,,5a74d7f717ef3500016ff92a,31,2022-02-12_14h09.36.809,lexical_decision_task_DD,2021.2.3,MacIntel,60.14675809,,,,,,,,,,,1.0833,1,,,,,,,,,,,,,,,,,,,,,,,,0.07140625,-0.141914062,0,0,0,,,,,,,TORCH,LB,m,m,./images/TORCHLB.png,,,,,,,,,,,,,,,,,,,,,m,1,1.0833,,,,,,,,0,31,31,68,1
,,,,,,,,,,,,,,,,,5a74d7f717ef3500016ff92a,31,2022-02-12_14h09.36.809,lexical_decision_task_DD,2021.2.3,MacIntel,60.14675809,,,,,,,,,,,0.7157,1,,,,,,,,,,,,,,,,,,,,,,,,0.07140625,-0.141914062,0,0,0,,,,,,,SUNSET,HB,m,m,./images/SUNSETHB.png,,,,,,,,,,,,,,,,,,,,,m,1,0.7157,,,,,,,,0,32,32,82,1
,,,,,,,,,,,,,,,,,5a74d7f717ef3500016ff92a,31,2022-02-12_14h09.36.809,lexical_decision_task_DD,2021.2.3,MacIntel,60.14675809,,,,,,,,,,,0.9496,0,,,,,,,,,,,,,,,,,,,,,,,,0.07140625,-0.141914062,0,0,0,,,,,,,PISTOL,LB,z,m,./images/PISTOLLB.png,,,,,,,,,,,,,,,,,,,,,m,0,0.9496,,,,,,,,0,33,33,113,1
,,,,,,,,,,,,,,,,,5a74d7f717ef3500016ff92a,31,2022-02-12_14h09.36.809,lexical_decision_task_DD,2021.2.3,MacIntel,60.14675809,,,,,,,,,,,0.7713,1,,,,,,,,,,,,,,,,,,,,,,,,0.07140625,-0.141914062,0,0,0,,,,,,,ARTIST,HB,z,m,./images/ARTISTHB.png,,,,,,,,,,,,,,,,,,,,,z,1,0.7713,,,,,,,,0,34,34,145,1
,,,,,,,,,,,,,,,,,5a74d7f717ef3500016ff92a,31,2022-02-12_14h09.36.809,lexical_decision_task_DD,2021.2.3,MacIntel,60.14675809,,,,,,,,,,,0.667,1,,,,,,,,,,,,,,,,,,,,,,,,0.07140625,-0.141914062,0,0,0,,,,,,,CANYON,HB,m,m,./images/CANYONHB.png,,,,,,,,,,,,,,,,,,,,,m,1,0.667,,,,,,,,0,35,35,34,1
,,,,,,,,,,,,,,,,,5a74d7f717ef3500016ff92a,31,2022-02-12_14h09.36.809,lexical_decision_task_DD,2021.2.3,MacIntel,60.14675809,,,,,,,,,,,1.8277,1,,,,,,,,,,,,,,,,,,,,,,,,0.07140625,-0.141914062,0,0,0,,,,,,,BAMBOO,LB,z,m,./images/BAMBOOLB.png,,,,,,,,,,,,,,,,,,,,,z,1,1.8277,,,,,,,,0,36,36,89,1
,,,,,,,,,,,,,,,,,5a74d7f717ef3500016ff92a,31,2022-02-12_14h09.36.809,lexical_decision_task_DD,2021.2.3,MacIntel,60.14675809,,,,,,,,,,,0.8454,1,,,,,,,,,,,,,,,,,,,,,,,,0.07140625,-0.141914062,0,0,0,,,,,,,BOILER,C,z,m,./images/BOILER.png,,,,,,,,,,,,,,,,,,,,,z,1,0.8454,,,,,,,,0,37,37,120,1
,,,,,,,,,,,,,,,,,5a74d7f717ef3500016ff92a,31,2022-02-12_14h09.36.809,lexical_decision_task_DD,2021.2.3,MacIntel,60.14675809,,,,,,,,,,,0.8337,1,,,,,,,,,,,,,,,,,,,,,,,,0.07140625,-0.141914062,0,0,0,,,,,,,VALLEY,LB,z,m,./images/VALLEYLB.png,,,,,,,,,,,,,,,,,,,,,z,1,0.8337,,,,,,,,0,38,38,152,1
,,,,,,,,,,,,,,,,,5a74d7f717ef3500016ff92a,31,2022-02-12_14h09.36.809,lexical_decision_task_DD,2021.2.3,MacIntel,60.14675809,,,,,,,,,,,0.8157,1,,,,,,,,,,,,,,,,,,,,,,,,0.07140625,-0.141914062,0,0,0,,,,,,,ATTIC,C,m,m,./images/ATTIC.png,,,,,,,,,,,,,,,,,,,,,m,1,0.8157,,,,,,,,0,39,39,27,1
,,,,,,,,,,,,,,,,,5a74d7f717ef3500016ff92a,31,2022-02-12_14h09.36.809,lexical_decision_task_DD,2021.2.3,MacIntel,60.14675809,,,,,,,,,,,1.5988,1,,,,,,,,,,,,,,,,,,,,,,,,0.07140625,-0.141914062,0,0,0,,,,,,,STOVE,LB,z,m,./images/STOVELB.png,,,,,,,,,,,,,,,,,,,,,z,1,1.5988,,,,,,,,0,40,40,86,1
,,,,,,,,,,,,,,,,,5a74d7f717ef3500016ff92a,31,2022-02-12_14h09.36.809,lexical_decision_task_DD,2021.2.3,MacIntel,60.14675809,,,,,,,,,,,1.4285,0,,,,,,,,,,,,,,,,,,,,,,,,0.07140625,-0.141914062,0,0,0,space,,,,,,PLANK,HB,m,m,./images/PLANKHB.png,2.3775,,,,,,,,,,,,,,,,,,,,z,0,1.4285,,,,,,,,0,41,41,1,1
,,,,,,,,,,,,,,,,,5a74d7f717ef3500016ff92a,31,2022-02-12_14h09.36.809,lexical_decision_task_DD,2021.2.3,MacIntel,60.14675809,,,,,,,,,,,1.5829,1,,,,,,,,,,,,,,,,,,,,,,,,0.07140625,-0.141914062,0,0,0,,,,,,,CARPET,LB,m,m,./images/CARPETLB.png,,,,,,,,,,,,,,,,,,,,,m,1,1.5829,,,,,,,,0,42,42,53,1
,,,,,,,,,,,,,,,,,5a74d7f717ef3500016ff92a,31,2022-02-12_14h09.36.809,lexical_decision_task_DD,2021.2.3,MacIntel,60.14675809,,,,,,,,,,,0.6171,1,,,,,,,,,,,,,,,,,,,,,,,,0.07140625,-0.141914062,0,0,0,,,,,,,PASTA,LB,m,m,./images/PASTALB.png,,,,,,,,,,,,,,,,,,,,,m,1,0.6171,,,,,,,,0,43,43,5,1
,,,,,,,,,,,,,,,,,5a74d7f717ef3500016ff92a,31,2022-02-12_14h09.36.809,lexical_decision_task_DD,2021.2.3,MacIntel,60.14675809,,,,,,,,,,,0.7801,1,,,,,,,,,,,,,,,,,,,,,,,,0.07140625,-0.141914062,0,0,0,,,,,,,MEDAL,LB,z,m,./images/MEDALLB.png,,,,,,,,,,,,,,,,,,,,,z,1,0.7801,,,,,,,,0,44,44,95,1
,,,,,,,,,,,,,,,,,5a74d7f717ef3500016ff92a,31,2022-02-12_14h09.36.809,lexical_decision_task_DD,2021.2.3,MacIntel,60.14675809,,,,,,,,,,,0.6988,1,,,,,,,,,,,,,,,,,,,,,,,,0.07140625,-0.141914062,0,0,0,,,,,,,STOOL,HB,z,m,./images/STOOLHB.png,,,,,,,,,,,,,,,,,,,,,z,1,0.6988,,,,,,,,0,45,45,127,1
,,,,,,,,,,,,,,,,,5a74d7f717ef3500016ff92a,31,2022-02-12_14h09.36.809,lexical_decision_task_DD,2021.2.3,MacIntel,60.14675809,,,,,,,,,,,1.2626,1,,,,,,,,,,,,,,,,,,,,,,,,0.07140625,-0.141914062,0,0,0,,,,,,,PENCE,HB,m,m,./images/PENCEHB.png,,,,,,,,,,,,,,,,,,,,,m,1,1.2626,,,,,,,,0,46,46,16,1
,,,,,,,,,,,,,,,,,5a74d7f717ef3500016ff92a,31,2022-02-12_14h09.36.809,lexical_decision_task_DD,2021.2.3,MacIntel,60.14675809,,,,,,,,,,,0.8353,0,,,,,,,,,,,,,,,,,,,,,,,,0.07140625,-0.141914062,0,0,0,,,,,,,WAGON,HB,z,m,./images/WAGONHB.png,,,,,,,,,,,,,,,,,,,,,m,0,0.8353,,,,,,,,0,47,47,91,1
,,,,,,,,,,,,,,,,,5a74d7f717ef3500016ff92a,31,2022-02-12_14h09.36.809,lexical_decision_task_DD,2021.2.3,MacIntel,60.14675809,,,,,,,,,,,0.9307,1,,,,,,,,,,,,,,,,,,,,,,,,0.07140625,-0.141914062,0,0,0,,,,,,,COLLAR,C,z,m,./images/COLLAR.png,,,,,,,,,,,,,,,,,,,,,z,1,0.9307,,,,,,,,0,48,48,99,1
,,,,,,,,,,,,,,,,,5a74d7f717ef3500016ff92a,31,2022-02-12_14h09.36.809,lexical_decision_task_DD,2021.2.3,MacIntel,60.14675809,,,,,,,,,,,1.049,1,,,,,,,,,,,,,,,,,,,,,,,,0.07140625,-0.141914062,0,0,0,,,,,,,STORM,C,m,m,./images/STORM.png,,,,,,,,,,,,,,,,,,,,,m,1,1.049,,,,,,,,0,49,49,30,1
,,,,,,,,,,,,,,,,,5a74d7f717ef3500016ff92a,31,2022-02-12_14h09.36.809,lexical_decision_task_DD,2021.2.3,MacIntel,60.14675809,,,,,,,,,,,0.5819,1,,,,,,,,,,,,,,,,,,,,,,,,0.07140625,-0.141914062,0,0,0,,,,,,,PEACH,LB,m,m,./images/PEACHLB.png,,,,,,,,,,,,,,,,,,,,,m,1,0.5819,,,,,,,,0,50,50,35,1
,,,,,,,,,,,,,,,,,5a74d7f717ef3500016ff92a,31,2022-02-12_14h09.36.809,lexical_decision_task_DD,2021.2.3,MacIntel,60.14675809,,,,,,,,,,,0.8981,1,,,,,,,,,,,,,,,,,,,,,,,,0.07140625,-0.141914062,0,0,0,,,,,,,SHIELD,C,z,m,./images/SHIELD.png,,,,,,,,,,,,,,,,,,,,,z,1,0.8981,,,,,,,,0,51,51,132,1
,,,,,,,,,,,,,,,,,5a74d7f717ef3500016ff92a,31,2022-02-12_14h09.36.809,lexical_decision_task_DD,2021.2.3,MacIntel,60.14675809,,,,,,,,,,,0.6309,1,,,,,,,,,,,,,,,,,,,,,,,,0.07140625,-0.141914062,0,0,0,,,,,,,MUSCLE,HB,m,m,./images/MUSCLEHB.png,,,,,,,,,,,,,,,,,,,,,m,1,0.6309,,,,,,,,0,52,52,4,1
,,,,,,,,,,,,,,,,,5a74d7f717ef3500016ff92a,31,2022-02-12_14h09.36.809,lexical_decision_task_DD,2021.2.3,MacIntel,60.14675809,,,,,,,,,,,0.6368,1,,,,,,,,,,,,,,,,,,,,,,,,0.07140625,-0.141914062,0,0,0,,,,,,,PURSE,LB,m,m,./images/PURSELB.png,,,,,,,,,,,,,,,,,,,,,m,1,0.6368,,,,,,,,0,53,53,62,1
,,,,,,,,,,,,,,,,,5a74d7f717ef3500016ff92a,31,2022-02-12_14h09.36.809,lexical_decision_task_DD,2021.2.3,MacIntel,60.14675809,,,,,,,,,,,0.6692,1,,,,,,,,,,,,,,,,,,,,,,,,0.07140625,-0.141914062,0,0,0,,,,,,,TWINS,C,m,m,./images/TWINS.png,,,,,,,,,,,,,,,,,,,,,m,1,0.6692,,,,,,,,0,54,54,60,1
,,,,,,,,,,,,,,,,,5a74d7f717ef3500016ff92a,31,2022-02-12_14h09.36.809,lexical_decision_task_DD,2021.2.3,MacIntel,60.14675809,,,,,,,,,,,0.7154,1,,,,,,,,,,,,,,,,,,,,,,,,0.07140625,-0.141914062,0,0,0,,,,,,,STATUE,C,z,m,./images/STATUE.png,,,,,,,,,,,,,,,,,,,,,z,1,0.7154,,,,,,,,0,55,55,150,1
,,,,,,,,,,,,,,,,,5a74d7f717ef3500016ff92a,31,2022-02-12_14h09.36.809,lexical_decision_task_DD,2021.2.3,MacIntel,60.14675809,,,,,,,,,,,1.0661,0,,,,,,,,,,,,,,,,,,,,,,,,0.07140625,-0.141914062,0,0,0,,,,,,,STEAK,HB,z,m,./images/STEAKHB.png,,,,,,,,,,,,,,,,,,,,,m,0,1.0661,,,,,,,,0,56,56,115,1
,,,,,,,,,,,,,,,,,5a74d7f717ef3500016ff92a,31,2022-02-12_14h09.36.809,lexical_decision_task_DD,2021.2.3,MacIntel,60.14675809,,,,,,,,,,,0.7166,1,,,,,,,,,,,,,,,,,,,,,,,,0.07140625,-0.141914062,0,0,0,,,,,,,SCREW,C,m,m,./images/SCREW.png,,,,,,,,,,,,,,,,,,,,,m,1,0.7166,,,,,,,,0,57,57,24,1
,,,,,,,,,,,,,,,,,5a74d7f717ef3500016ff92a,31,2022-02-12_14h09.36.809,lexical_decision_task_DD,2021.2.3,MacIntel,60.14675809,,,,,,,,,,,1.0657,1,,,,,,,,,,,,,,,,,,,,,,,,0.07140625,-0.141914062,0,0,0,,,,,,,SWEAT,C,m,m,./images/SWEAT.png,,,,,,,,,,,,,,,,,,,,,m,1,1.0657,,,,,,,,0,58,58,66,1
,,,,,,,,,,,,,,,,,5a74d7f717ef3500016ff92a,31,2022-02-12_14h09.36.809,lexical_decision_task_DD,2021.2.3,MacIntel,60.14675809,,,,,,,,,,,0.8156,1,,,,,,,,,,,,,,,,,,,,,,,,0.07140625,-0.141914062,0,0,0,,,,,,,PACKET,LB,m,m,./images/PACKETLB.png,,,,,,,,,,,,,,,,,,,,,m,1,0.8156,,,,,,,,0,59,59,56,1
,,,,,,,,,,,,,,,,,5a74d7f717ef3500016ff92a,31,2022-02-12_14h09.36.809,lexical_decision_task_DD,2021.2.3,MacIntel,60.14675809,,,,,,,,,,,0.8156,1,,,,,,,,,,,,,,,,,,,,,,,,0.07140625,-0.141914062,0,0,0,,,,,,,CLOUD,LB,z,m,./images/CLOUDLB.png,,,,,,,,,,,,,,,,,,,,,z,1,0.8156,,,,,,,,0,60,60,110,1
,,,,,,,,,,,,,,,,,5a74d7f717ef3500016ff92a,31,2022-02-12_14h09.36.809,lexical_decision_task_DD,2021.2.3,MacIntel,60.14675809,,,,,,,,,,,0.7696,1,,,,,,,,,,,,,,,,,,,,,,,,0.07140625,-0.141914062,0,0,0,,,,,,,SLOPE,C,z,m,./images/SLOPE.png,,,,,,,,,,,,,,,,,,,,,z,1,0.7696,,,,,,,,0,61,61,114,1
,,,,,,,,,,,,,,,,,5a74d7f717ef3500016ff92a,31,2022-02-12_14h09.36.809,lexical_decision_task_DD,2021.2.3,MacIntel,60.14675809,,,,,,,,,,,0.9826,1,,,,,,,,,,,,,,,,,,,,,,,,0.07140625,-0.141914062,0,0,0,,,,,,,RAZOR,HB,z,m,./images/RAZORHB.png,,,,,,,,,,,,,,,,,,,,,z,1,0.9826,,,,,,,,0,62,62,118,1
,,,,,,,,,,,,,,,,,5a74d7f717ef3500016ff92a,31,2022-02-12_14h09.36.809,lexical_decision_task_DD,2021.2.3,MacIntel,60.14675809,,,,,,,,,,,1.5648,0,,,,,,,,,,,,,,,,,,,,,,,,0.07140625,-0.141914062,0,0,0,,,,,,,COOKER,C,m,m,./images/COOKER.png,,,,,,,,,,,,,,,,,,,,,z,0,1.5648,,,,,,,,0,63,63,69,1
,,,,,,,,,,,,,,,,,5a74d7f717ef3500016ff92a,31,2022-02-12_14h09.36.809,lexical_decision_task_DD,2021.2.3,MacIntel,60.14675809,,,,,,,,,,,0.6661,1,,,,,,,,,,,,,,,,,,,,,,,,0.07140625,-0.141914062,0,0,0,,,,,,,BONNET,LB,m,m,./images/BONNETLB.png,,,,,,,,,,,,,,,,,,,,,m,1,0.6661,,,,,,,,0,64,64,11,1
,,,,,,,,,,,,,,,,,5a74d7f717ef3500016ff92a,31,2022-02-12_14h09.36.809,lexical_decision_task_DD,2021.2.3,MacIntel,60.14675809,,,,,,,,,,,0.9476,1,,,,,,,,,,,,,,,,,,,,,,,,0.07140625,-0.141914062,0,0,0,,,,,,,HEATER,LB,z,m,./images/HEATERLB.png,,,,,,,,,,,,,,,,,,,,,z,1,0.9476,,,,,,,,0,65,65,140,1
,,,,,,,,,,,,,,,,,5a74d7f717ef3500016ff92a,31,2022-02-12_14h09.36.809,lexical_decision_task_DD,2021.2.3,MacIntel,60.14675809,,,,,,,,,,,1.1981,1,,,,,,,,,,,,,,,,,,,,,,,,0.07140625,-0.141914062,0,0,0,,,,,,,BASKET,LB,z,m,./images/BASKETLB.png,,,,,,,,,,,,,,,,,,,,,z,1,1.1981,,,,,,,,0,66,66,128,1
,,,,,,,,,,,,,,,,,5a74d7f717ef3500016ff92a,31,2022-02-12_14h09.36.809,lexical_decision_task_DD,2021.2.3,MacIntel,60.14675809,,,,,,,,,,,1.2408,0,,,,,,,,,,,,,,,,,,,,,,,,0.07140625,-0.141914062,0,0,0,,,,,,,FERRY,C,z,m,./images/FERRY.png,,,,,,,,,,,,,,,,,,,,,m,0,1.2408,,,,,,,,0,67,67,141,1
,,,,,,,,,,,,,,,,,5a74d7f717ef3500016ff92a,31,2022-02-12_14h09.36.809,lexical_decision_task_DD,2021.2.3,MacIntel,60.14675809,,,,,,,,,,,0.7329,1,,,,,,,,,,,,,,,,,,,,,,,,0.07140625,-0.141914062,0,0,0,,,,,,,MUFFIN,HB,m,m,./images/MUFFINHB.png,,,,,,,,,,,,,,,,,,,,,m,1,0.7329,,,,,,,,0,68,68,55,1
,,,,,,,,,,,,,,,,,5a74d7f717ef3500016ff92a,31,2022-02-12_14h09.36.809,lexical_decision_task_DD,2021.2.3,MacIntel,60.14675809,,,,,,,,,,,0.7837,1,,,,,,,,,,,,,,,,,,,,,,,,0.07140625,-0.141914062,0,0,0,,,,,,,PARADE,LB,z,m,./images/PARADELB.png,,,,,,,,,,,,,,,,,,,,,z,1,0.7837,,,,,,,,0,69,69,101,1
,,,,,,,,,,,,,,,,,5a74d7f717ef3500016ff92a,31,2022-02-12_14h09.36.809,lexical_decision_task_DD,2021.2.3,MacIntel,60.14675809,,,,,,,,,,,1.2362,1,,,,,,,,,,,,,,,,,,,,,,,,0.07140625,-0.141914062,0,0,0,,,,,,,PIMPLE,LB,m,m,./images/PIMPLELB.png,,,,,,,,,,,,,,,,,,,,,m,1,1.2362,,,,,,,,0,70,70,71,1
,,,,,,,,,,,,,,,,,5a74d7f717ef3500016ff92a,31,2022-02-12_14h09.36.809,lexical_decision_task_DD,2021.2.3,MacIntel,60.14675809,,,,,,,,,,,0.88,1,,,,,,,,,,,,,,,,,,,,,,,,0.07140625,-0.141914062,0,0,0,,,,,,,CLOTH,LB,z,m,./images/CLOTHLB.png,,,,,,,,,,,,,,,,,,,,,z,1,0.88,,,,,,,,0,71,71,107,1
,,,,,,,,,,,,,,,,,5a74d7f717ef3500016ff92a,31,2022-02-12_14h09.36.809,lexical_decision_task_DD,2021.2.3,MacIntel,60.14675809,,,,,,,,,,,0.6833,1,,,,,,,,,,,,,,,,,,,,,,,,0.07140625,-0.141914062,0,0,0,,,,,,,POODLE,C,m,m,./images/POODLE.png,,,,,,,,,,,,,,,,,,,,,m,1,0.6833,,,,,,,,0,72,72,81,1
,,,,,,,,,,,,,,,,,5a74d7f717ef3500016ff92a,31,2022-02-12_14h09.36.809,lexical_decision_task_DD,2021.2.3,MacIntel,60.14675809,,,,,,,,,,,0.6684,1,,,,,,,,,,,,,,,,,,,,,,,,0.07140625,-0.141914062,0,0,0,,,,,,,BIRTH,HB,m,m,./images/BIRTHHB.png,,,,,,,,,,,,,,,,,,,,,m,1,0.6684,,,,,,,,0,73,73,37,1
,,,,,,,,,,,,,,,,,5a74d7f717ef3500016ff92a,31,2022-02-12_14h09.36.809,lexical_decision_task_DD,2021.2.3,MacIntel,60.14675809,,,,,,,,,,,0.6138,1,,,,,,,,,,,,,,,,,,,,,,,,0.07140625,-0.141914062,0,0,0,,,,,,,ONION,C,m,m,./images/ONION.png,,,,,,,,,,,,,,,,,,,,,m,1,0.6138,,,,,,,,0,74,74,51,1
,,,,,,,,,,,,,,,,,5a74d7f717ef3500016ff92a,31,2022-02-12_14h09.36.809,lexical_decision_task_DD,2021.2.3,MacIntel,60.14675809,,,,,,,,,,,0.8533,1,,,,,,,,,,,,,,,,,,,,,,,,0.07140625,-0.141914062,0,0,0,,,,,,,FLESH,C,z,m,./images/FLESH.png,,,,,,,,,,,,,,,,,,,,,z,1,0.8533,,,,,,,,0,75,75,108,1
,,,,,,,,,,,,,,,,,5a74d7f717ef3500016ff92a,31,2022-02-12_14h09.36.809,lexical_decision_task_DD,2021.2.3,MacIntel,60.14675809,,,,,,,,,,,0.8162,1,,,,,,,,,,,,,,,,,,,,,,,,0.07140625,-0.141914062,0,0,0,,,,,,,JUNGLE,LB,m,m,./images/JUNGLELB.png,,,,,,,,,,,,,,,,,,,,,m,1,0.8162,,,,,,,,0,76,76,83,1
,,,,,,,,,,,,,,,,,5a74d7f717ef3500016ff92a,31,2022-02-12_14h09.36.809,lexical_decision_task_DD,2021.2.3,MacIntel,60.14675809,,,,,,,,,,,0.6374,1,,,,,,,,,,,,,,,,,,,,,,,,0.07140625,-0.141914062,0,0,0,,,,,,,KIDNEY,C,m,m,./images/KIDNEY.png,,,,,,,,,,,,,,,,,,,,,m,1,0.6374,,,,,,,,0,77,77,21,1
,,,,,,,,,,,,,,,,,5a74d7f717ef3500016ff92a,31,2022-02-12_14h09.36.809,lexical_decision_task_DD,2021.2.3,MacIntel,60.14675809,,,,,,,,,,,0.5924,1,,,,,,,,,,,,,,,,,,,,,,,,0.07140625,-0.141914062,0,0,0,,,,,,,MELON,HB,m,m,./images/MELONHB.png,,,,,,,,,,,,,,,,,,,,,m,1,0.5924,,,,,,,,0,78,78,22,1
,,,,,,,,,,,,,,,,,5a74d7f717ef3500016ff92a,31,2022-02-12_14h09.36.809,lexical_decision_task_DD,2021.2.3,MacIntel,60.14675809,,,,,,,,,,,0.8151,1,,,,,,,,,,,,,,,,,,,,,,,,0.07140625,-0.141914062,0,0,0,,,,,,,MAMMAL,LB,z,m,./images/MAMMALLB.png,,,,,,,,,,,,,,,,,,,,,z,1,0.8151,,,,,,,,0,79,79,146,1
,,,,,,,,,,,,,,,,,5a74d7f717ef3500016ff92a,31,2022-02-12_14h09.36.809,lexical_decision_task_DD,2021.2.3,MacIntel,60.14675809,,,,,,,,,,,0.7671,1,,,,,,,,,,,,,,,,,,,,,,,,0.07140625,-0.141914062,0,0,0,,,,,,,BUTTER,C,z,m,./images/BUTTER.png,,,,,,,,,,,,,,,,,,,,,z,1,0.7671,,,,,,,,0,80,80,111,1
,,,,,,,,,,,,,,,,,5a74d7f717ef3500016ff92a,31,2022-02-12_14h09.36.809,lexical_decision_task_DD,2021.2.3,MacIntel,60.14675809,,,,,,,,,,,0.6828,1,,,,,,,,,,,,,,,,,,,,,,,,0.07140625,-0.141914062,0,0,0,,,,,,,BELLY,HB,m,m,./images/BELLYHB.png,,,,,,,,,,,,,,,,,,,,,m,1,0.6828,,,,,,,,0,81,81,10,1
,,,,,,,,,,,,,,,,,5a74d7f717ef3500016ff92a,31,2022-02-12_14h09.36.809,lexical_decision_task_DD,2021.2.3,MacIntel,60.14675809,,,,,,,,,,,0.7828,0,,,,,,,,,,,,,,,,,,,,,,,,0.07140625,-0.141914062,0,0,0,,,,,,,FLASK,C,z,m,./images/FLASK.png,,,,,,,,,,,,,,,,,,,,,m,0,0.7828,,,,,,,,0,82,82,156,1
,,,,,,,,,,,,,,,,,5a74d7f717ef3500016ff92a,31,2022-02-12_14h09.36.809,lexical_decision_task_DD,2021.2.3,MacIntel,60.14675809,,,,,,,,,,,0.7984,1,,,,,,,,,,,,,,,,,,,,,,,,0.07140625,-0.141914062,0,0,0,space,,,,,,FALCON,HB,m,m,./images/FALCONHB.png,6.9465,,,,,,,,,,,,,,,,,,,,m,1,0.7984,,,,,,,,0,83,83,28,1
,,,,,,,,,,,,,,,,,5a74d7f717ef3500016ff92a,31,2022-02-12_14h09.36.809,lexical_decision_task_DD,2021.2.3,MacIntel,60.14675809,,,,,,,,,,,0.6134,1,,,,,,,,,,,,,,,,,,,,,,,,0.07140625,-0.141914062,0,0,0,,,,,,,CANDLE,HB,m,m,./images/CANDLEHB.png,,,,,,,,,,,,,,,,,,,,,m,1,0.6134,,,,,,,,0,84,84,61,1
,,,,,,,,,,,,,,,,,5a74d7f717ef3500016ff92a,31,2022-02-12_14h09.36.809,lexical_decision_task_DD,2021.2.3,MacIntel,60.14675809,,,,,,,,,,,0.7323,1,,,,,,,,,,,,,,,,,,,,,,,,0.07140625,-0.141914062,0,0,0,,,,,,,STRING,LB,m,m,./images/STRINGLB.png,,,,,,,,,,,,,,,,,,,,,m,1,0.7323,,,,,,,,0,85,85,41,1
,,,,,,,,,,,,,,,,,5a74d7f717ef3500016ff92a,31,2022-02-12_14h09.36.809,lexical_decision_task_DD,2021.2.3,MacIntel,60.14675809,,,,,,,,,,,1.4452,0,,,,,,,,,,,,,,,,,,,,,,,,0.07140625,-0.141914062,0,0,0,,,,,,,DANCER,C,z,m,./images/DANCER.png,,,,,,,,,,,,,,,,,,,,,m,0,1.4452,,,,,,,,0,86,86,105,1
,,,,,,,,,,,,,,,,,5a74d7f717ef3500016ff92a,31,2022-02-12_14h09.36.809,lexical_decision_task_DD,2021.2.3,MacIntel,60.14675809,,,,,,,,,,,1.4311,1,,,,,,,,,,,,,,,,,,,,,,,,0.07140625,-0.141914062,0,0,0,,,,,,,CRUMB,LB,m,m,./images/CRUMBLB.png,,,,,,,,,,,,,,,,,,,,,m,1,1.4311,,,,,,,,0,87,87,29,1
,,,,,,,,,,,,,,,,,5a74d7f717ef3500016ff92a,31,2022-02-12_14h09.36.809,lexical_decision_task_DD,2021.2.3,MacIntel,60.14675809,,,,,,,,,,,1.4148,1,,,,,,,,,,,,,,,,,,,,,,,,0.07140625,-0.141914062,0,0,0,,,,,,,SAUCE,C,z,m,./images/SAUCE.png,,,,,,,,,,,,,,,,,,,,,z,1,1.4148,,,,,,,,0,88,88,135,1
,,,,,,,,,,,,,,,,,5a74d7f717ef3500016ff92a,31,2022-02-12_14h09.36.809,lexical_decision_task_DD,2021.2.3,MacIntel,60.14675809,,,,,,,,,,,0.7859,1,,,,,,,,,,,,,,,,,,,,,,,,0.07140625,-0.141914062,0,0,0,,,,,,,MIDGET,HB,z,m,./images/MIDGETHB.png,,,,,,,,,,,,,,,,,,,,,z,1,0.7859,,,,,,,,0,89,89,160,1
,,,,,,,,,,,,,,,,,5a74d7f717ef3500016ff92a,31,2022-02-12_14h09.36.809,lexical_decision_task_DD,2021.2.3,MacIntel,60.14675809,,,,,,,,,,,0.6825,1,,,,,,,,,,,,,,,,,,,,,,,,0.07140625,-0.141914062,0,0,0,,,,,,,CLIFF,LB,z,m,./images/CLIFFLB.png,,,,,,,,,,,,,,,,,,,,,z,1,0.6825,,,,,,,,0,90,90,92,1
,,,,,,,,,,,,,,,,,5a74d7f717ef3500016ff92a,31,2022-02-12_14h09.36.809,lexical_decision_task_DD,2021.2.3,MacIntel,60.14675809,,,,,,,,,,,0.7881,1,,,,,,,,,,,,,,,,,,,,,,,,0.07140625,-0.141914062,0,0,0,,,,,,,SNACK,HB,m,m,./images/SNACKHB.png,,,,,,,,,,,,,,,,,,,,,m,1,0.7881,,,,,,,,0,91,91,73,1
,,,,,,,,,,,,,,,,,5a74d7f717ef3500016ff92a,31,2022-02-12_14h09.36.809,lexical_decision_task_DD,2021.2.3,MacIntel,60.14675809,,,,,,,,,,,0.7826,1,,,,,,,,,,,,,,,,,,,,,,,,0.07140625,-0.141914062,0,0,0,,,,,,,PICKLE,LB,m,m,./images/PICKLELB.png,,,,,,,,,,,,,,,,,,,,,m,1,0.7826,,,,,,,,0,92,92,14,1
,,,,,,,,,,,,,,,,,5a74d7f717ef3500016ff92a,31,2022-02-12_14h09.36.809,lexical_decision_task_DD,2021.2.3,MacIntel,60.14675809,,,,,,,,,,,1.2323,1,,,,,,,,,,,,,,,,,,,,,,,,0.07140625,-0.141914062,0,0,0,,,,,,,FOLDER,C,m,m,./images/FOLDER.png,,,,,,,,,,,,,,,,,,,,,m,1,1.2323,,,,,,,,0,93,93,42,1
,,,,,,,,,,,,,,,,,5a74d7f717ef3500016ff92a,31,2022-02-12_14h09.36.809,lexical_decision_task_DD,2021.2.3,MacIntel,60.14675809,,,,,,,,,,,0.6328,1,,,,,,,,,,,,,,,,,,,,,,,,0.07140625,-0.141914062,0,0,0,,,,,,,KITTEN,C,m,m,./images/KITTEN.png,,,,,,,,,,,,,,,,,,,,,m,1,0.6328,,,,,,,,0,94,94,45,1
,,,,,,,,,,,,,,,,,5a74d7f717ef3500016ff92a,31,2022-02-12_14h09.36.809,lexical_decision_task_DD,2021.2.3,MacIntel,60.14675809,,,,,,,,,,,0.6668,1,,,,,,,,,,,,,,,,,,,,,,,,0.07140625,-0.141914062,0,0,0,,,,,,,WALRUS,LB,m,m,./images/WALRUSLB.png,,,,,,,,,,,,,,,,,,,,,m,1,0.6668,,,,,,,,0,95,95,23,1
,,,,,,,,,,,,,,,,,5a74d7f717ef3500016ff92a,31,2022-02-12_14h09.36.809,lexical_decision_task_DD,2021.2.3,MacIntel,60.14675809,,,,,,,,,,,0.6709,1,,,,,,,,,,,,,,,,,,,,,,,,0.07140625,-0.141914062,0,0,0,,,,,,,MOSQUE,HB,m,m,./images/MOSQUEHB.png,,,,,,,,,,,,,,,,,,,,,m,1,0.6709,,,,,,,,0,96,96,43,1
,,,,,,,,,,,,,,,,,5a74d7f717ef3500016ff92a,31,2022-02-12_14h09.36.809,lexical_decision_task_DD,2021.2.3,MacIntel,60.14675809,,,,,,,,,,,0.6849,1,,,,,,,,,,,,,,,,,,,,,,,,0.07140625,-0.141914062,0,0,0,,,,,,,LITTER,C,m,m,./images/LITTER.png,,,,,,,,,,,,,,,,,,,,,m,1,0.6849,,,,,,,,0,97,97,78,1
,,,,,,,,,,,,,,,,,5a74d7f717ef3500016ff92a,31,2022-02-12_14h09.36.809,lexical_decision_task_DD,2021.2.3,MacIntel,60.14675809,,,,,,,,,,,0.614,1,,,,,,,,,,,,,,,,,,,,,,,,0.07140625,-0.141914062,0,0,0,,,,,,,ENGINE,LB,z,m,./images/ENGINELB.png,,,,,,,,,,,,,,,,,,,,,z,1,0.614,,,,,,,,0,98,98,122,1
,,,,,,,,,,,,,,,,,5a74d7f717ef3500016ff92a,31,2022-02-12_14h09.36.809,lexical_decision_task_DD,2021.2.3,MacIntel,60.14675809,,,,,,,,,,,0.6325,1,,,,,,,,,,,,,,,,,,,,,,,,0.07140625,-0.141914062,0,0,0,,,,,,,JAGUAR,C,m,m,./images/JAGUAR.png,,,,,,,,,,,,,,,,,,,,,m,1,0.6325,,,,,,,,0,99,99,18,1
,,,,,,,,,,,,,,,,,5a74d7f717ef3500016ff92a,31,2022-02-12_14h09.36.809,lexical_decision_task_DD,2021.2.3,MacIntel,60.14675809,,,,,,,,,,,0.8153,0,,,,,,,,,,,,,,,,,,,,,,,,0.07140625,-0.141914062,0,0,0,,,,,,,FENCE,LB,z,m,./images/FENCELB.png,,,,,,,,,,,,,,,,,,,,,m,0,0.8153,,,,,,,,0,100,100,98,1
,,,,,,,,,,,,,,,,,5a74d7f717ef3500016ff92a,31,2022-02-12_14h09.36.809,lexical_decision_task_DD,2021.2.3,MacIntel,60.14675809,,,,,,,,,,,0.7503,0,,,,,,,,,,,,,,,,,,,,,,,,0.07140625,-0.141914062,0,0,0,,,,,,,PILOT,LB,z,m,./images/PILOTLB.png,,,,,,,,,,,,,,,,,,,,,m,0,0.7503,,,,,,,,0,101,101,134,1
,,,,,,,,,,,,,,,,,5a74d7f717ef3500016ff92a,31,2022-02-12_14h09.36.809,lexical_decision_task_DD,2021.2.3,MacIntel,60.14675809,,,,,,,,,,,0.9324,1,,,,,,,,,,,,,,,,,,,,,,,,0.07140625,-0.141914062,0,0,0,,,,,,,PLANET,LB,z,m,./images/PLANETLB.png,,,,,,,,,,,,,,,,,,,,,z,1,0.9324,,,,,,,,0,102,102,164,1
,,,,,,,,,,,,,,,,,5a74d7f717ef3500016ff92a,31,2022-02-12_14h09.36.809,lexical_decision_task_DD,2021.2.3,MacIntel,60.14675809,,,,,,,,,,,0.7327,1,,,,,,,,,,,,,,,,,,,,,,,,0.07140625,-0.141914062,0,0,0,,,,,,,SAILOR,HB,m,m,./images/SAILORHB.png,,,,,,,,,,,,,,,,,,,,,m,1,0.7327,,,,,,,,0,103,103,67,1
,,,,,,,,,,,,,,,,,5a74d7f717ef3500016ff92a,31,2022-02-12_14h09.36.809,lexical_decision_task_DD,2021.2.3,MacIntel,60.14675809,,,,,,,,,,,0.7824,1,,,,,,,,,,,,,,,,,,,,,,,,0.07140625,-0.141914062,0,0,0,,,,,,,FARMER,LB,m,m,./images/FARMERLB.png,,,,,,,,,,,,,,,,,,,,,m,1,0.7824,,,,,,,,0,104,104,65,1
,,,,,,,,,,,,,,,,,5a74d7f717ef3500016ff92a,31,2022-02-12_14h09.36.809,lexical_decision_task_DD,2021.2.3,MacIntel,60.14675809,,,,,,,,,,,0.6336,0,,,,,,,,,,,,,,,,,,,,,,,,0.07140625,-0.141914062,0,0,0,,,,,,,MONKEY,C,z,m,./images/MONKEY.png,,,,,,,,,,,,,,,,,,,,,m,0,0.6336,,,,,,,,0,105,105,129,1
,,,,,,,,,,,,,,,,,5a74d7f717ef3500016ff92a,31,2022-02-12_14h09.36.809,lexical_decision_task_DD,2021.2.3,MacIntel,60.14675809,,,,,,,,,,,1.0962,1,,,,,,,,,,,,,,,,,,,,,,,,0.07140625,-0.141914062,0,0,0,,,,,,,SNAKE,HB,z,m,./images/SNAKEHB.png,,,,,,,,,,,,,,,,,,,,,z,1,1.0962,,,,,,,,0,106,106,124,1
,,,,,,,,,,,,,,,,,5a74d7f717ef3500016ff92a,31,2022-02-12_14h09.36.809,lexical_decision_task_DD,2021.2.3,MacIntel,60.14675809,,,,,,,,,,,1.1494,1,,,,,,,,,,,,,,,,,,,,,,,,0.07140625,-0.141914062,0,0,0,,,,,,,DONKEY,HB,z,m,./images/DONKEYHB.png,,,,,,,,,,,,,,,,,,,,,z,1,1.1494,,,,,,,,0,107,107,103,1
,,,,,,,,,,,,,,,,,5a74d7f717ef3500016ff92a,31,2022-02-12_14h09.36.809,lexical_decision_task_DD,2021.2.3,MacIntel,60.14675809,,,,,,,,,,,0.6505,1,,,,,,,,,,,,,,,,,,,,,,,,0.07140625,-0.141914062,0,0,0,,,,,,,TOMATO,C,m,m,./images/TOMATO.png,,,,,,,,,,,,,,,,,,,,,m,1,0.6505,,,,,,,,0,108,108,0,1
,,,,,,,,,,,,,,,,,5a74d7f717ef3500016ff92a,31,2022-02-12_14h09.36.809,lexical_decision_task_DD,2021.2.3,MacIntel,60.14675809,,,,,,,,,,,0.9667,1,,,,,,,,,,,,,,,,,,,,,,,,0.07140625,-0.141914062,0,0,0,,,,,,,SMOKER,LB,m,m,./images/SMOKERLB.png,,,,,,,,,,,,,,,,,,,,,m,1,0.9667,,,,,,,,0,109,109,26,1
,,,,,,,,,,,,,,,,,5a74d7f717ef3500016ff92a,31,2022-02-12_14h09.36.809,lexical_decision_task_DD,2021.2.3,MacIntel,60.14675809,,,,,,,,,,,0.7196,1,,,,,,,,,,,,,,,,,,,,,,,,0.07140625,-0.141914062,0,0,0,,,,,,,HOCKEY,LB,z,m,./images/HOCKEYLB.png,,,,,,,,,,,,,,,,,,,,,z,1,0.7196,,,,,,,,0,110,110,116,1
,,,,,,,,,,,,,,,,,5a74d7f717ef3500016ff92a,31,2022-02-12_14h09.36.809,lexical_decision_task_DD,2021.2.3,MacIntel,60.14675809,,,,,,,,,,,0.7603,1,,,,,,,,,,,,,,,,,,,,,,,,0.07140625,-0.141914062,0,0,0,,,,,,,MAGGOT,C,m,m,./images/MAGGOT.png,,,,,,,,,,,,,,,,,,,,,m,1,0.7603,,,,,,,,0,111,111,33,1
,,,,,,,,,,,,,,,,,5a74d7f717ef3500016ff92a,31,2022-02-12_14h09.36.809,lexical_decision_task_DD,2021.2.3,MacIntel,60.14675809,,,,,,,,,,,0.7133,1,,,,,,,,,,,,,,,,,,,,,,,,0.07140625,-0.141914062,0,0,0,,,,,,,URINE,HB,m,m,./images/URINEHB.png,,,,,,,,,,,,,,,,,,,,,m,1,0.7133,,,,,,,,0,112,112,70,1
,,,,,,,,,,,,,,,,,5a74d7f717ef3500016ff92a,31,2022-02-12_14h09.36.809,lexical_decision_task_DD,2021.2.3,MacIntel,60.14675809,,,,,,,,,,,0.7488,1,,,,,,,,,,,,,,,,,,,,,,,,0.07140625,-0.141914062,0,0,0,,,,,,,SHELF,C,m,m,./images/SHELF.png,,,,,,,,,,,,,,,,,,,,,m,1,0.7488,,,,,,,,0,113,113,39,1
,,,,,,,,,,,,,,,,,5a74d7f717ef3500016ff92a,31,2022-02-12_14h09.36.809,lexical_decision_task_DD,2021.2.3,MacIntel,60.14675809,,,,,,,,,,,1.1016,0,,,,,,,,,,,,,,,,,,,,,,,,0.07140625,-0.141914062,0,0,0,,,,,,,CHALK,HB,z,m,./images/CHALKHB.png,,,,,,,,,,,,,,,,,,,,,m,0,1.1016,,,,,,,,0,114,114,109,1
,,,,,,,,,,,,,,,,,5a74d7f717ef3500016ff92a,31,2022-02-12_14h09.36.809,lexical_decision_task_DD,2021.2.3,MacIntel,60.14675809,,,,,,,,,,,0.6833,1,,,,,,,,,,,,,,,,,,,,,,,,0.07140625,-0.141914062,0,0,0,,,,,,,CLOWN,HB,z,m,./images/CLOWNHB.png,,,,,,,,,,,,,,,,,,,,,z,1,0.6833,,,,,,,,0,115,115,106,1
,,,,,,,,,,,,,,,,,5a74d7f717ef3500016ff92a,31,2022-02-12_14h09.36.809,lexical_decision_task_DD,2021.2.3,MacIntel,60.14675809,,,,,,,,,,,0.6148,1,,,,,,,,,,,,,,,,,,,,,,,,0.07140625,-0.141914062,0,0,0,,,,,,,BOXER,HB,z,m,./images/BOXERHB.png,,,,,,,,,,,,,,,,,,,,,z,1,0.6148,,,,,,,,0,116,116,88,1
,,,,,,,,,,,,,,,,,5a74d7f717ef3500016ff92a,31,2022-02-12_14h09.36.809,lexical_decision_task_DD,2021.2.3,MacIntel,60.14675809,,,,,,,,,,,1.2158,1,,,,,,,,,,,,,,,,,,,,,,,,0.07140625,-0.141914062,0,0,0,,,,,,,BLOKE,C,z,m,./images/BLOKE.png,,,,,,,,,,,,,,,,,,,,,z,1,1.2158,,,,,,,,0,117,117,96,1
,,,,,,,,,,,,,,,,,5a74d7f717ef3500016ff92a,31,2022-02-12_14h09.36.809,lexical_decision_task_DD,2021.2.3,MacIntel,60.14675809,,,,,,,,,,,1.3654,1,,,,,,,,,,,,,,,,,,,,,,,,0.07140625,-0.141914062,0,0,0,,,,,,,BRUSH,LB,z,m,./images/BRUSHLB.png,,,,,,,,,,,,,,,,,,,,,z,1,1.3654,,,,,,,,0,118,118,143,1
,,,,,,,,,,,,,,,,,5a74d7f717ef3500016ff92a,31,2022-02-12_14h09.36.809,lexical_decision_task_DD,2021.2.3,MacIntel,60.14675809,,,,,,,,,,,0.651,1,,,,,,,,,,,,,,,,,,,,,,,,0.07140625,-0.141914062,0,0,0,,,,,,,FINGER,C,m,m,./images/FINGER.png,,,,,,,,,,,,,,,,,,,,,m,1,0.651,,,,,,,,0,119,119,3,1
,,,,,,,,,,,,,,,,,5a74d7f717ef3500016ff92a,31,2022-02-12_14h09.36.809,lexical_decision_task_DD,2021.2.3,MacIntel,60.14675809,,,,,,,,,,,0.7158,1,,,,,,,,,,,,,,,,,,,,,,,,0.07140625,-0.141914062,0,0,0,,,,,,,DIVER,C,z,m,./images/DIVER.png,,,,,,,,,,,,,,,,,,,,,z,1,0.7158,,,,,,,,0,120,120,93,1
,,,,,,,,,,,,,,,,,5a74d7f717ef3500016ff92a,31,2022-02-12_14h09.36.809,lexical_decision_task_DD,2021.2.3,MacIntel,60.14675809,,,,,,,,,,,0.9172,1,,,,,,,,,,,,,,,,,,,,,,,,0.07140625,-0.141914062,0,0,0,,,,,,,PARCEL,C,z,m,./images/PARCEL.png,,,,,,,,,,,,,,,,,,,,,z,1,0.9172,,,,,,,,0,121,121,102,1
,,,,,,,,,,,,,,,,,5a74d7f717ef3500016ff92a,31,2022-02-12_14h09.36.809,lexical_decision_task_DD,2021.2.3,MacIntel,60.14675809,,,,,,,,,,,0.8178,1,,,,,,,,,,,,,,,,,,,,,,,,0.07140625,-0.141914062,0,0,0,,,,,,,BABOON,HB,m,m,./images/BABOONHB.png,,,,,,,,,,,,,,,,,,,,,m,1,0.8178,,,,,,,,0,122,122,58,1
,,,,,,,,,,,,,,,,,5a74d7f717ef3500016ff92a,31,2022-02-12_14h09.36.809,lexical_decision_task_DD,2021.2.3,MacIntel,60.14675809,,,,,,,,,,,0.7493,1,,,,,,,,,,,,,,,,,,,,,,,,0.07140625,-0.141914062,0,0,0,,,,,,,WEASEL,LB,m,m,./images/WEASELLB.png,,,,,,,,,,,,,,,,,,,,,m,1,0.7493,,,,,,,,0,123,123,80,1
,,,,,,,,,,,,,,,,,5a74d7f717ef3500016ff92a,31,2022-02-12_14h09.36.809,lexical_decision_task_DD,2021.2.3,MacIntel,60.14675809,,,,,,,,,,,0.8984,1,,,,,,,,,,,,,,,,,,,,,,,,0.07140625,-0.141914062,0,0,0,,,,,,,MUMMY,HB,z,m,./images/MUMMYHB.png,,,,,,,,,,,,,,,,,,,,,z,1,0.8984,,,,,,,,0,124,124,130,1
,,,,,,,,,,,,,,,,,5a74d7f717ef3500016ff92a,31,2022-02-12_14h09.36.809,lexical_decision_task_DD,2021.2.3,MacIntel,60.14675809,,,,,,,,,,,0.8323,1,,,,,,,,,,,,,,,,,,,,,,,,0.07140625,-0.141914062,0,0,0,space,,,,,,CURRY,C,z,m,./images/CURRY.png,8.4156,,,,,,,,,,,,,,,,,,,,z,1,0.8323,,,,,,,,0,125,125,144,1
,,,,,,,,,,,,,,,,,5a74d7f717ef3500016ff92a,31,2022-02-12_14h09.36.809,lexical_decision_task_DD,2021.2.3,MacIntel,60.14675809,,,,,,,,,,,1.2142,1,,,,,,,,,,,,,,,,,,,,,,,,0.07140625,-0.141914062,0,0,0,,,,,,,CANDY,C,z,m,./images/CANDY.png,,,,,,,,,,,,,,,,,,,,,z,1,1.2142,,,,,,,,0,126,126,123,1
,,,,,,,,,,,,,,,,,5a74d7f717ef3500016ff92a,31,2022-02-12_14h09.36.809,lexical_decision_task_DD,2021.2.3,MacIntel,60.14675809,,,,,,,,,,,0.6972,1,,,,,,,,,,,,,,,,,,,,,,,,0.07140625,-0.141914062,0,0,0,,,,,,,BERRY,LB,m,m,./images/BERRYLB.png,,,,,,,,,,,,,,,,,,,,,m,1,0.6972,,,,,,,,0,127,127,47,1
,,,,,,,,,,,,,,,,,5a74d7f717ef3500016ff92a,31,2022-02-12_14h09.36.809,lexical_decision_task_DD,2021.2.3,MacIntel,60.14675809,,,,,,,,,,,1.0992,0,,,,,,,,,,,,,,,,,,,,,,,,0.07140625,-0.141914062,0,0,0,,,,,,,CRADLE,LB,m,m,./images/CRADLELB.png,,,,,,,,,,,,,,,,,,,,,z,0,1.0992,,,,,,,,0,128,128,20,1
,,,,,,,,,,,,,,,,,5a74d7f717ef3500016ff92a,31,2022-02-12_14h09.36.809,lexical_decision_task_DD,2021.2.3,MacIntel,60.14675809,,,,,,,,,,,0.8333,0,,,,,,,,,,,,,,,,,,,,,,,,0.07140625,-0.141914062,0,0,0,,,,,,,THROAT,C,m,m,./images/THROAT.png,,,,,,,,,,,,,,,,,,,,,z,0,0.8333,,,,,,,,0,129,129,36,1
,,,,,,,,,,,,,,,,,5a74d7f717ef3500016ff92a,31,2022-02-12_14h09.36.809,lexical_decision_task_DD,2021.2.3,MacIntel,60.14675809,,,,,,,,,,,1.1163,1,,,,,,,,,,,,,,,,,,,,,,,,0.07140625,-0.141914062,0,0,0,,,,,,,CRUST,HB,m,m,./images/CRUSTHB.png,,,,,,,,,,,,,,,,,,,,,m,1,1.1163,,,,,,,,0,130,130,79,1
,,,,,,,,,,,,,,,,,5a74d7f717ef3500016ff92a,31,2022-02-12_14h09.36.809,lexical_decision_task_DD,2021.2.3,MacIntel,60.14675809,,,,,,,,,,,2.2116,1,,,,,,,,,,,,,,,,,,,,,,,,0.07140625,-0.141914062,0,0,0,,,,,,,WHISKY,LB,z,m,./images/WHISKYLB.png,,,,,,,,,,,,,,,,,,,,,z,1,2.2116,,,,,,,,0,131,131,167,1
