key_resp.keys,key_resp.rt,instr_done_touch.x,instr_done_touch.y,instr_done_touch.leftButton,instr_done_touch.midButton,instr_done_touch.rightButton,instruction_pages.thisRepN,instruction_pages.thisTrialN,instruction_pages.thisN,instruction_pages.thisIndex,instruction_pages.ran,pageN,phase,instruct_text,has_image,instruct_image,participant,age,date,expName,psychopyVersion,OS,frameRate,response.keys,response.corr,response.rt,touch_resp.x,touch_resp.y,touch_resp.leftButton,touch_resp.midButton,touch_resp.rightButton,touch_resp.time,touch_resp.clicked_name,rt,corr,practrials.thisRepN,practrials.thisTrialN,practrials.thisN,practrials.thisIndex,practrials.ran,TrialID,Target,corrAns,end_of_practice_trials_pages.thisRepN,end_of_practice_trials_pages.thisTrialN,end_of_practice_trials_pages.thisN,end_of_practice_trials_pages.thisIndex,end_of_practice_trials_pages.ran,key_resp_2.keys,key_resp_2.corr,key_resp_2.rt,targ_click.x,targ_click.y,targ_click.leftButton,targ_click.midButton,targ_click.rightButton,targ_click.time,targ_click.clicked_name,break_done_touch.x,break_done_touch.y,break_done_touch.leftButton,break_done_touch.midButton,break_done_touch.rightButton,break_done_keyboard.keys,maintrials.thisRepN,maintrials.thisTrialN,maintrials.thisN,maintrials.thisIndex,maintrials.ran,string,blur,study,lex,stim_path,break_done_keyboard.rt,mouse_2.x,mouse_2.y,mouse_2.leftButton,mouse_2.midButton,mouse_2.rightButton,mouse_2.clicked_name,slider.response,slider.rt,trials.thisRepN,trials.thisTrialN,trials.thisN,trials.thisIndex,trials.ran,test_instructions.thisRepN,test_instructions.thisTrialN,test_instructions.thisN,test_instructions.thisIndex,test_instructions.ran,instr_done_touch.clicked_name,key_resp_3.keys,key_resp_3.corr,key_resp_3.rt,test_click.x,test_click.y,test_click.leftButton,test_click.midButton,test_click.rightButton,test_click.time,test_click.clicked_name,test_phase.thisRepN,test_phase.thisTrialN,test_phase.thisN,test_phase.thisIndex,test_phase.ran
space,46.3957,-0.07421875,-0.194010417,0,0,0,0,0,0,0,1,1,instructions,"INSTRUCTIONS
At the start of each trial, look at the plus sign  (+) in the center of the screen.  This tells you that a trial is about to begin and where to look. Second, the plus sign will disappear and a string of letters will appear. Your task is to determine if the string of letters is a word or not. If the item is a word press the M key (on keyboard)  or touch the word button (phone/tablet).  If the item is not a word,  press the  Z key (on keyboard)  or touch the nonword button (on phone/tablet). 
Press the space bar or touch  continue.",0,,5a8352feae9a0b0001a9da8f,57,2022-02-12_16h50.27.922,lexical_decision_task_DD,2021.2.3,Win32,59.80861244,,,,,,,,,,,,,,,,,,,,,,,,,,,,,,,,,,,,,,,,,,,,,,,,,,,,,,,,,,,,,,,,,,,,,,,,,,,,,,,,,,,,,,
space,8.6471,-0.07421875,-0.194010417,0,0,0,0,1,1,1,1,2,instructions,"If your device has a keyboard, press the 'Z' key for nonwords and the 'M' key for words.





Press the space bar or touch the button below to continue.",0,keyboard-example.gif,5a8352feae9a0b0001a9da8f,57,2022-02-12_16h50.27.922,lexical_decision_task_DD,2021.2.3,Win32,59.80861244,,,,,,,,,,,,,,,,,,,,,,,,,,,,,,,,,,,,,,,,,,,,,,,,,,,,,,,,,,,,,,,,,,,,,,,,,,,,,,,,,,,,,,
space,6.2785,-0.07421875,-0.194010417,0,0,0,0,2,2,2,1,3,instructions,"If you are using a touchscreen only device, use the buttons on the screen. Do not use the mouse.





Press the space bar or touch the button below to continue.",0,touchscreen-example.gif,5a8352feae9a0b0001a9da8f,57,2022-02-12_16h50.27.922,lexical_decision_task_DD,2021.2.3,Win32,59.80861244,,,,,,,,,,,,,,,,,,,,,,,,,,,,,,,,,,,,,,,,,,,,,,,,,,,,,,,,,,,,,,,,,,,,,,,,,,,,,,,,,,,,,,
space,15.8048,-0.07421875,-0.194010417,0,0,0,0,3,3,3,1,4,instructions,"It is very important that you respond as quickly and accurately as possible, as each letter string will only be on the screen for two seconds. If you do not respond within this time, the message 'Too slow!' will be displayed and the experiment will progress to the next letter string. The first 20 trials will be practice trials and you will receive feedback on your answers. 

Press the space bar or touch the button below to start the practice trials.",0,,5a8352feae9a0b0001a9da8f,57,2022-02-12_16h50.27.922,lexical_decision_task_DD,2021.2.3,Win32,59.80861244,,,,,,,,,,,,,,,,,,,,,,,,,,,,,,,,,,,,,,,,,,,,,,,,,,,,,,,,,,,,,,,,,,,,,,,,,,,,,,,,,,,,,,
,,,,,,,,,,,,,,,,,5a8352feae9a0b0001a9da8f,57,2022-02-12_16h50.27.922,lexical_decision_task_DD,2021.2.3,Win32,59.80861244,z,1,0.9447,,,,,,,,0.9447,1,0,0,0,13,1,1001,ROUPET,z,,,,,,,,,,,,,,,,,,,,,,,,,,,,,,,,,,,,,,,,,,,,,,,,,,,,,,,,,,,,,,,,,,
,,,,,,,,,,,,,,,,,5a8352feae9a0b0001a9da8f,57,2022-02-12_16h50.27.922,lexical_decision_task_DD,2021.2.3,Win32,59.80861244,z,1,1.0518,,,,,,,,1.0518,1,0,1,1,14,1,1001,THRALE,z,,,,,,,,,,,,,,,,,,,,,,,,,,,,,,,,,,,,,,,,,,,,,,,,,,,,,,,,,,,,,,,,,,
,,,,,,,,,,,,,,,,,5a8352feae9a0b0001a9da8f,57,2022-02-12_16h50.27.922,lexical_decision_task_DD,2021.2.3,Win32,59.80861244,z,1,1.1523,,,,,,,,1.1523,1,0,2,2,10,1,1001,INLADE,z,,,,,,,,,,,,,,,,,,,,,,,,,,,,,,,,,,,,,,,,,,,,,,,,,,,,,,,,,,,,,,,,,,
,,,,,,,,,,,,,,,,,5a8352feae9a0b0001a9da8f,57,2022-02-12_16h50.27.922,lexical_decision_task_DD,2021.2.3,Win32,59.80861244,m,1,0.8031,,,,,,,,0.8031,1,0,3,3,3,1,1001,MATRIX,m,,,,,,,,,,,,,,,,,,,,,,,,,,,,,,,,,,,,,,,,,,,,,,,,,,,,,,,,,,,,,,,,,,
,,,,,,,,,,,,,,,,,5a8352feae9a0b0001a9da8f,57,2022-02-12_16h50.27.922,lexical_decision_task_DD,2021.2.3,Win32,59.80861244,z,1,0.8607,,,,,,,,0.8607,1,0,4,4,8,1,1001,ASLERT,z,,,,,,,,,,,,,,,,,,,,,,,,,,,,,,,,,,,,,,,,,,,,,,,,,,,,,,,,,,,,,,,,,,
,,,,,,,,,,,,,,,,,5a8352feae9a0b0001a9da8f,57,2022-02-12_16h50.27.922,lexical_decision_task_DD,2021.2.3,Win32,59.80861244,z,0,0.8032,,,,,,,,0.8032,0,0,5,5,6,1,1001,ZOMBIE,m,,,,,,,,,,,,,,,,,,,,,,,,,,,,,,,,,,,,,,,,,,,,,,,,,,,,,,,,,,,,,,,,,,
,,,,,,,,,,,,,,,,,5a8352feae9a0b0001a9da8f,57,2022-02-12_16h50.27.922,lexical_decision_task_DD,2021.2.3,Win32,59.80861244,m,1,0.7518,,,,,,,,0.7518,1,0,6,6,1,1,1001,ADJUST,m,,,,,,,,,,,,,,,,,,,,,,,,,,,,,,,,,,,,,,,,,,,,,,,,,,,,,,,,,,,,,,,,,,
,,,,,,,,,,,,,,,,,5a8352feae9a0b0001a9da8f,57,2022-02-12_16h50.27.922,lexical_decision_task_DD,2021.2.3,Win32,59.80861244,z,1,0.8101,,,,,,,,0.8101,1,0,7,7,15,1,1001,WHAISE,z,,,,,,,,,,,,,,,,,,,,,,,,,,,,,,,,,,,,,,,,,,,,,,,,,,,,,,,,,,,,,,,,,,
,,,,,,,,,,,,,,,,,5a8352feae9a0b0001a9da8f,57,2022-02-12_16h50.27.922,lexical_decision_task_DD,2021.2.3,Win32,59.80861244,z,1,0.821,,,,,,,,0.821,1,0,8,8,9,1,1001,FARINY,z,,,,,,,,,,,,,,,,,,,,,,,,,,,,,,,,,,,,,,,,,,,,,,,,,,,,,,,,,,,,,,,,,,
,,,,,,,,,,,,,,,,,5a8352feae9a0b0001a9da8f,57,2022-02-12_16h50.27.922,lexical_decision_task_DD,2021.2.3,Win32,59.80861244,m,1,0.6548,,,,,,,,0.6548,1,0,9,9,7,1,1001,VOLUME,m,,,,,,,,,,,,,,,,,,,,,,,,,,,,,,,,,,,,,,,,,,,,,,,,,,,,,,,,,,,,,,,,,,
,,,,,,,,,,,,,,,,,5a8352feae9a0b0001a9da8f,57,2022-02-12_16h50.27.922,lexical_decision_task_DD,2021.2.3,Win32,59.80861244,m,1,0.7396,,,,,,,,0.7396,1,0,10,10,2,1,1001,ALMOND,m,,,,,,,,,,,,,,,,,,,,,,,,,,,,,,,,,,,,,,,,,,,,,,,,,,,,,,,,,,,,,,,,,,
,,,,,,,,,,,,,,,,,5a8352feae9a0b0001a9da8f,57,2022-02-12_16h50.27.922,lexical_decision_task_DD,2021.2.3,Win32,59.80861244,z,1,0.8517,,,,,,,,0.8517,1,0,11,11,12,1,1001,SPRINY,z,,,,,,,,,,,,,,,,,,,,,,,,,,,,,,,,,,,,,,,,,,,,,,,,,,,,,,,,,,,,,,,,,,
,,,,,,,,,,,,,,,,,5a8352feae9a0b0001a9da8f,57,2022-02-12_16h50.27.922,lexical_decision_task_DD,2021.2.3,Win32,59.80861244,m,1,0.6679,,,,,,,,0.6679,1,0,12,12,5,1,1001,OBTAIN,m,,,,,,,,,,,,,,,,,,,,,,,,,,,,,,,,,,,,,,,,,,,,,,,,,,,,,,,,,,,,,,,,,,
,,,,,,,,,,,,,,,,,5a8352feae9a0b0001a9da8f,57,2022-02-12_16h50.27.922,lexical_decision_task_DD,2021.2.3,Win32,59.80861244,m,1,0.6891,,,,,,,,0.6891,1,0,13,13,4,1,1001,SQUEAK,m,,,,,,,,,,,,,,,,,,,,,,,,,,,,,,,,,,,,,,,,,,,,,,,,,,,,,,,,,,,,,,,,,,
,,,,,,,,,,,,,,,,,5a8352feae9a0b0001a9da8f,57,2022-02-12_16h50.27.922,lexical_decision_task_DD,2021.2.3,Win32,59.80861244,m,1,0.7271,,,,,,,,0.7271,1,0,14,14,0,1,1001,UTOPIA,m,,,,,,,,,,,,,,,,,,,,,,,,,,,,,,,,,,,,,,,,,,,,,,,,,,,,,,,,,,,,,,,,,,
,,,,,,,,,,,,,,,,,5a8352feae9a0b0001a9da8f,57,2022-02-12_16h50.27.922,lexical_decision_task_DD,2021.2.3,Win32,59.80861244,z,1,0.6781,,,,,,,,0.6781,1,0,15,15,11,1,1001,RASHET,z,,,,,,,,,,,,,,,,,,,,,,,,,,,,,,,,,,,,,,,,,,,,,,,,,,,,,,,,,,,,,,,,,,
space,13.9865,-0.07421875,-0.194010417,0,0,0,,,,,,1,end_of_practice,"You have completed the practice trials. During the experimental trials, you will not receive feedback. 
Before you begin, please ensure that you are in a comfortable and quiet location and will not be disturbed for about 15 minutes, as we cannot use your data if you do not complete all the trials. 
 When you are ready to start the experimental trials, please press space or touch the button below.",,,5a8352feae9a0b0001a9da8f,57,2022-02-12_16h50.27.922,lexical_decision_task_DD,2021.2.3,Win32,59.80861244,,,,,,,,,,,,,,,,,,,,,0,0,0,0,1,,,,,,,,,,,,,,,,,,,,,,,,,,,,,,,,,,,,,,,,,,,,,,,,,,,,,,,,,,,,,
,,,,,,,,,,,,,,,,,5a8352feae9a0b0001a9da8f,57,2022-02-12_16h50.27.922,lexical_decision_task_DD,2021.2.3,Win32,59.80861244,,,,,,,,,,,0.7242,1,,,,,,,,,,,,,,m,1,0.7242,,,,,,,,-0.07421875,-0.194010417,0,0,0,,0,0,0,14,1,PICKLE,LB,old,m,./images/PICKLELB.png,,,,,,,,,,,,,,,,,,,,,,,,,,,,,,,,,,,
,,,,,,,,,,,,,,,,,5a8352feae9a0b0001a9da8f,57,2022-02-12_16h50.27.922,lexical_decision_task_DD,2021.2.3,Win32,59.80861244,,,,,,,,,,,0.8467,1,,,,,,,,,,,,,,m,1,0.8467,,,,,,,,-0.07421875,-0.194010417,0,0,0,,0,1,1,55,1,MUFFIN,HB,old,m,./images/MUFFINHB.png,,,,,,,,,,,,,,,,,,,,,,,,,,,,,,,,,,,
,,,,,,,,,,,,,,,,,5a8352feae9a0b0001a9da8f,57,2022-02-12_16h50.27.922,lexical_decision_task_DD,2021.2.3,Win32,59.80861244,,,,,,,,,,,0.6939,1,,,,,,,,,,,,,,m,1,0.6939,,,,,,,,-0.07421875,-0.194010417,0,0,0,,0,2,2,63,1,MIRROR,C,old,m,./images/MIRROR.png,,,,,,,,,,,,,,,,,,,,,,,,,,,,,,,,,,,
,,,,,,,,,,,,,,,,,5a8352feae9a0b0001a9da8f,57,2022-02-12_16h50.27.922,lexical_decision_task_DD,2021.2.3,Win32,59.80861244,,,,,,,,,,,0.8528,1,,,,,,,,,,,,,,z,1,0.8528,,,,,,,,-0.07421875,-0.194010417,0,0,0,,0,3,3,128,1,GRIFT,LB,old,z,./images/GRIFTLB.png,,,,,,,,,,,,,,,,,,,,,,,,,,,,,,,,,,,
,,,,,,,,,,,,,,,,,5a8352feae9a0b0001a9da8f,57,2022-02-12_16h50.27.922,lexical_decision_task_DD,2021.2.3,Win32,59.80861244,,,,,,,,,,,0.9817,1,,,,,,,,,,,,,,z,1,0.9817,,,,,,,,-0.07421875,-0.194010417,0,0,0,,0,4,4,152,1,FRAIN,LB,old,z,./images/FRAINLB.png,,,,,,,,,,,,,,,,,,,,,,,,,,,,,,,,,,,
,,,,,,,,,,,,,,,,,5a8352feae9a0b0001a9da8f,57,2022-02-12_16h50.27.922,lexical_decision_task_DD,2021.2.3,Win32,59.80861244,,,,,,,,,,,0.7612,1,,,,,,,,,,,,,,z,1,0.7612,,,,,,,,-0.07421875,-0.194010417,0,0,0,,0,5,5,108,1,GRUET,C,old,z,./images/GRUET.png,,,,,,,,,,,,,,,,,,,,,,,,,,,,,,,,,,,
,,,,,,,,,,,,,,,,,5a8352feae9a0b0001a9da8f,57,2022-02-12_16h50.27.922,lexical_decision_task_DD,2021.2.3,Win32,59.80861244,,,,,,,,,,,1.2381,1,,,,,,,,,,,,,,m,1,1.2381,,,,,,,,-0.07421875,-0.194010417,0,0,0,,0,6,6,16,1,PENCE,HB,old,m,./images/PENCEHB.png,,,,,,,,,,,,,,,,,,,,,,,,,,,,,,,,,,,
,,,,,,,,,,,,,,,,,5a8352feae9a0b0001a9da8f,57,2022-02-12_16h50.27.922,lexical_decision_task_DD,2021.2.3,Win32,59.80861244,,,,,,,,,,,0.811,1,,,,,,,,,,,,,,z,1,0.811,,,,,,,,-0.07421875,-0.194010417,0,0,0,,0,7,7,144,1,NAIRY,C,old,z,./images/NAIRY.png,,,,,,,,,,,,,,,,,,,,,,,,,,,,,,,,,,,
,,,,,,,,,,,,,,,,,5a8352feae9a0b0001a9da8f,57,2022-02-12_16h50.27.922,lexical_decision_task_DD,2021.2.3,Win32,59.80861244,,,,,,,,,,,1.0296,1,,,,,,,,,,,,,,z,1,1.0296,,,,,,,,-0.07421875,-0.194010417,0,0,0,,0,8,8,101,1,GLEET,LB,old,z,./images/GLEETLB.png,,,,,,,,,,,,,,,,,,,,,,,,,,,,,,,,,,,
,,,,,,,,,,,,,,,,,5a8352feae9a0b0001a9da8f,57,2022-02-12_16h50.27.922,lexical_decision_task_DD,2021.2.3,Win32,59.80861244,,,,,,,,,,,1.0465,1,,,,,,,,,,,,,,z,1,1.0465,,,,,,,,-0.07421875,-0.194010417,0,0,0,,0,9,9,105,1,MOKER,C,old,z,./images/MOKER.png,,,,,,,,,,,,,,,,,,,,,,,,,,,,,,,,,,,
,,,,,,,,,,,,,,,,,5a8352feae9a0b0001a9da8f,57,2022-02-12_16h50.27.922,lexical_decision_task_DD,2021.2.3,Win32,59.80861244,,,,,,,,,,,1.1043,1,,,,,,,,,,,,,,z,1,1.1043,,,,,,,,-0.07421875,-0.194010417,0,0,0,,0,10,10,110,1,CRUNK,LB,old,z,./images/CRUNKLB.png,,,,,,,,,,,,,,,,,,,,,,,,,,,,,,,,,,,
,,,,,,,,,,,,,,,,,5a8352feae9a0b0001a9da8f,57,2022-02-12_16h50.27.922,lexical_decision_task_DD,2021.2.3,Win32,59.80861244,,,,,,,,,,,1.0711,1,,,,,,,,,,,,,,z,1,1.0711,,,,,,,,-0.07421875,-0.194010417,0,0,0,,0,11,11,107,1,FASKS,LB,old,z,./images/FASKSLB.png,,,,,,,,,,,,,,,,,,,,,,,,,,,,,,,,,,,
,,,,,,,,,,,,,,,,,5a8352feae9a0b0001a9da8f,57,2022-02-12_16h50.27.922,lexical_decision_task_DD,2021.2.3,Win32,59.80861244,,,,,,,,,,,0.813,1,,,,,,,,,,,,,,m,1,0.813,,,,,,,,-0.07421875,-0.194010417,0,0,0,,0,12,12,33,1,MAGGOT,C,old,m,./images/MAGGOT.png,,,,,,,,,,,,,,,,,,,,,,,,,,,,,,,,,,,
,,,,,,,,,,,,,,,,,5a8352feae9a0b0001a9da8f,57,2022-02-12_16h50.27.922,lexical_decision_task_DD,2021.2.3,Win32,59.80861244,,,,,,,,,,,0.8131,1,,,,,,,,,,,,,,m,1,0.8131,,,,,,,,-0.07421875,-0.194010417,0,0,0,,0,13,13,75,1,GRAIN,C,old,m,./images/GRAIN.png,,,,,,,,,,,,,,,,,,,,,,,,,,,,,,,,,,,
,,,,,,,,,,,,,,,,,5a8352feae9a0b0001a9da8f,57,2022-02-12_16h50.27.922,lexical_decision_task_DD,2021.2.3,Win32,59.80861244,,,,,,,,,,,0.6692,1,,,,,,,,,,,,,,m,1,0.6692,,,,,,,,-0.07421875,-0.194010417,0,0,0,,0,14,14,5,1,PASTA,LB,old,m,./images/PASTALB.png,,,,,,,,,,,,,,,,,,,,,,,,,,,,,,,,,,,
,,,,,,,,,,,,,,,,,5a8352feae9a0b0001a9da8f,57,2022-02-12_16h50.27.922,lexical_decision_task_DD,2021.2.3,Win32,59.80861244,,,,,,,,,,,0.996,1,,,,,,,,,,,,,,z,1,0.996,,,,,,,,-0.07421875,-0.194010417,0,0,0,,0,15,15,147,1,ZOLES,C,old,z,./images/ZOLES.png,,,,,,,,,,,,,,,,,,,,,,,,,,,,,,,,,,,
,,,,,,,,,,,,,,,,,5a8352feae9a0b0001a9da8f,57,2022-02-12_16h50.27.922,lexical_decision_task_DD,2021.2.3,Win32,59.80861244,,,,,,,,,,,1.1311,1,,,,,,,,,,,,,,m,1,1.1311,,,,,,,,-0.07421875,-0.194010417,0,0,0,,0,16,16,20,1,CRADLE,LB,old,m,./images/CRADLELB.png,,,,,,,,,,,,,,,,,,,,,,,,,,,,,,,,,,,
,,,,,,,,,,,,,,,,,5a8352feae9a0b0001a9da8f,57,2022-02-12_16h50.27.922,lexical_decision_task_DD,2021.2.3,Win32,59.80861244,,,,,,,,,,,0.7659,1,,,,,,,,,,,,,,m,1,0.7659,,,,,,,,-0.07421875,-0.194010417,0,0,0,,0,17,17,12,1,SHORE,C,old,m,./images/SHORE.png,,,,,,,,,,,,,,,,,,,,,,,,,,,,,,,,,,,
,,,,,,,,,,,,,,,,,5a8352feae9a0b0001a9da8f,57,2022-02-12_16h50.27.922,lexical_decision_task_DD,2021.2.3,Win32,59.80861244,,,,,,,,,,,0.8365,1,,,,,,,,,,,,,,z,1,0.8365,,,,,,,,-0.07421875,-0.194010417,0,0,0,,0,18,18,149,1,VEASE,LB,old,z,./images/VEASELB.png,,,,,,,,,,,,,,,,,,,,,,,,,,,,,,,,,,,
,,,,,,,,,,,,,,,,,5a8352feae9a0b0001a9da8f,57,2022-02-12_16h50.27.922,lexical_decision_task_DD,2021.2.3,Win32,59.80861244,,,,,,,,,,,0.7523,1,,,,,,,,,,,,,,m,1,0.7523,,,,,,,,-0.07421875,-0.194010417,0,0,0,,0,19,19,77,1,COUCH,LB,old,m,./images/COUCHLB.png,,,,,,,,,,,,,,,,,,,,,,,,,,,,,,,,,,,
,,,,,,,,,,,,,,,,,5a8352feae9a0b0001a9da8f,57,2022-02-12_16h50.27.922,lexical_decision_task_DD,2021.2.3,Win32,59.80861244,,,,,,,,,,,0.635,1,,,,,,,,,,,,,,m,1,0.635,,,,,,,,-0.07421875,-0.194010417,0,0,0,,0,20,20,44,1,LIZARD,LB,old,m,./images/LIZARDLB.png,,,,,,,,,,,,,,,,,,,,,,,,,,,,,,,,,,,
,,,,,,,,,,,,,,,,,5a8352feae9a0b0001a9da8f,57,2022-02-12_16h50.27.922,lexical_decision_task_DD,2021.2.3,Win32,59.80861244,,,,,,,,,,,1.0711,1,,,,,,,,,,,,,,m,1,1.0711,,,,,,,,-0.07421875,-0.194010417,0,0,0,,0,21,21,28,1,FALCON,HB,old,m,./images/FALCONHB.png,,,,,,,,,,,,,,,,,,,,,,,,,,,,,,,,,,,
,,,,,,,,,,,,,,,,,5a8352feae9a0b0001a9da8f,57,2022-02-12_16h50.27.922,lexical_decision_task_DD,2021.2.3,Win32,59.80861244,,,,,,,,,,,0.6948,1,,,,,,,,,,,,,,m,1,0.6948,,,,,,,,-0.07421875,-0.194010417,0,0,0,,0,22,22,36,1,THROAT,C,old,m,./images/THROAT.png,,,,,,,,,,,,,,,,,,,,,,,,,,,,,,,,,,,
,,,,,,,,,,,,,,,,,5a8352feae9a0b0001a9da8f,57,2022-02-12_16h50.27.922,lexical_decision_task_DD,2021.2.3,Win32,59.80861244,,,,,,,,,,,0.9696,1,,,,,,,,,,,,,,z,1,0.9696,,,,,,,,-0.07421875,-0.194010417,0,0,0,,0,23,23,125,1,MOOKY,LB,old,z,./images/MOOKYLB.png,,,,,,,,,,,,,,,,,,,,,,,,,,,,,,,,,,,
,,,,,,,,,,,,,,,,,5a8352feae9a0b0001a9da8f,57,2022-02-12_16h50.27.922,lexical_decision_task_DD,2021.2.3,Win32,59.80861244,,,,,,,,,,,1.1631,0,,,,,,,,,,,,,,m,0,1.1631,,,,,,,,-0.07421875,-0.194010417,0,0,0,,0,24,24,91,1,SHENS,HB,old,z,./images/SHENSHB.png,,,,,,,,,,,,,,,,,,,,,,,,,,,,,,,,,,,
,,,,,,,,,,,,,,,,,5a8352feae9a0b0001a9da8f,57,2022-02-12_16h50.27.922,lexical_decision_task_DD,2021.2.3,Win32,59.80861244,,,,,,,,,,,0.5949,1,,,,,,,,,,,,,,m,1,0.5949,,,,,,,,-0.07421875,-0.194010417,0,0,0,,0,25,25,66,1,SWEAT,C,old,m,./images/SWEAT.png,,,,,,,,,,,,,,,,,,,,,,,,,,,,,,,,,,,
,,,,,,,,,,,,,,,,,5a8352feae9a0b0001a9da8f,57,2022-02-12_16h50.27.922,lexical_decision_task_DD,2021.2.3,Win32,59.80861244,,,,,,,,,,,0.9766,1,,,,,,,,,,,,,,z,1,0.9766,,,,,,,,-0.07421875,-0.194010417,0,0,0,,0,26,26,120,1,RINED,C,old,z,./images/RINED.png,,,,,,,,,,,,,,,,,,,,,,,,,,,,,,,,,,,
,,,,,,,,,,,,,,,,,5a8352feae9a0b0001a9da8f,57,2022-02-12_16h50.27.922,lexical_decision_task_DD,2021.2.3,Win32,59.80861244,,,,,,,,,,,0.847,1,,,,,,,,,,,,,,m,1,0.847,,,,,,,,-0.07421875,-0.194010417,0,0,0,,0,27,27,47,1,BERRY,LB,old,m,./images/BERRYLB.png,,,,,,,,,,,,,,,,,,,,,,,,,,,,,,,,,,,
,,,,,,,,,,,,,,,,,5a8352feae9a0b0001a9da8f,57,2022-02-12_16h50.27.922,lexical_decision_task_DD,2021.2.3,Win32,59.80861244,,,,,,,,,,,0.9967,1,,,,,,,,,,,,,,z,1,0.9967,,,,,,,,-0.07421875,-0.194010417,0,0,0,,0,28,28,156,1,HIXES,C,old,z,./images/HIXES.png,,,,,,,,,,,,,,,,,,,,,,,,,,,,,,,,,,,
,,,,,,,,,,,,,,,,,5a8352feae9a0b0001a9da8f,57,2022-02-12_16h50.27.922,lexical_decision_task_DD,2021.2.3,Win32,59.80861244,,,,,,,,,,,1.011,1,,,,,,,,,,,,,,z,1,1.011,,,,,,,,-0.07421875,-0.194010417,0,0,0,,0,29,29,150,1,NOOLS,C,old,z,./images/NOOLS.png,,,,,,,,,,,,,,,,,,,,,,,,,,,,,,,,,,,
,,,,,,,,,,,,,,,,,5a8352feae9a0b0001a9da8f,57,2022-02-12_16h50.27.922,lexical_decision_task_DD,2021.2.3,Win32,59.80861244,,,,,,,,,,,0.7793,1,,,,,,,,,,,,,,m,1,0.7793,,,,,,,,-0.07421875,-0.194010417,0,0,0,,0,30,30,53,1,CARPET,LB,old,m,./images/CARPETLB.png,,,,,,,,,,,,,,,,,,,,,,,,,,,,,,,,,,,
,,,,,,,,,,,,,,,,,5a8352feae9a0b0001a9da8f,57,2022-02-12_16h50.27.922,lexical_decision_task_DD,2021.2.3,Win32,59.80861244,,,,,,,,,,,0.779,1,,,,,,,,,,,,,,z,1,0.779,,,,,,,,-0.07421875,-0.194010417,0,0,0,,0,31,31,159,1,CUDDY,C,old,z,./images/CUDDY.png,,,,,,,,,,,,,,,,,,,,,,,,,,,,,,,,,,,
,,,,,,,,,,,,,,,,,5a8352feae9a0b0001a9da8f,57,2022-02-12_16h50.27.922,lexical_decision_task_DD,2021.2.3,Win32,59.80861244,,,,,,,,,,,1.1701,0,,,,,,,,,,,,,,m,0,1.1701,,,,,,,,-0.07421875,-0.194010417,0,0,0,,0,32,32,166,1,SHORY,HB,old,z,./images/SHORYHB.png,,,,,,,,,,,,,,,,,,,,,,,,,,,,,,,,,,,
,,,,,,,,,,,,,,,,,5a8352feae9a0b0001a9da8f,57,2022-02-12_16h50.27.922,lexical_decision_task_DD,2021.2.3,Win32,59.80861244,,,,,,,,,,,0.8869,1,,,,,,,,,,,,,,m,1,0.8869,,,,,,,,-0.07421875,-0.194010417,0,0,0,,0,33,33,79,1,CRUST,HB,old,m,./images/CRUSTHB.png,,,,,,,,,,,,,,,,,,,,,,,,,,,,,,,,,,,
,,,,,,,,,,,,,,,,,5a8352feae9a0b0001a9da8f,57,2022-02-12_16h50.27.922,lexical_decision_task_DD,2021.2.3,Win32,59.80861244,,,,,,,,,,,0.7626,1,,,,,,,,,,,,,,m,1,0.7626,,,,,,,,-0.07421875,-0.194010417,0,0,0,,0,34,34,24,1,SCREW,C,old,m,./images/SCREW.png,,,,,,,,,,,,,,,,,,,,,,,,,,,,,,,,,,,
,,,,,,,,,,,,,,,,,5a8352feae9a0b0001a9da8f,57,2022-02-12_16h50.27.922,lexical_decision_task_DD,2021.2.3,Win32,59.80861244,,,,,,,,,,,0.7785,1,,,,,,,,,,,,,,z,1,0.7785,,,,,,,,-0.07421875,-0.194010417,0,0,0,,0,35,35,126,1,GUELS,C,old,z,./images/GUELS.png,,,,,,,,,,,,,,,,,,,,,,,,,,,,,,,,,,,
,,,,,,,,,,,,,,,,,5a8352feae9a0b0001a9da8f,57,2022-02-12_16h50.27.922,lexical_decision_task_DD,2021.2.3,Win32,59.80861244,,,,,,,,,,,0.6746,1,,,,,,,,,,,,,,z,1,0.6746,,,,,,,,-0.07421875,-0.194010417,0,0,0,,0,36,36,135,1,JOODY,C,old,z,./images/JOODY.png,,,,,,,,,,,,,,,,,,,,,,,,,,,,,,,,,,,
,,,,,,,,,,,,,,,,,5a8352feae9a0b0001a9da8f,57,2022-02-12_16h50.27.922,lexical_decision_task_DD,2021.2.3,Win32,59.80861244,,,,,,,,,,,0.9792,0,,,,,,,,,,,,,,m,0,0.9792,,,,,,,,-0.07421875,-0.194010417,0,0,0,,0,37,37,109,1,BURGE,HB,old,z,./images/BURGEHB.png,,,,,,,,,,,,,,,,,,,,,,,,,,,,,,,,,,,
,,,,,,,,,,,,,,,,,5a8352feae9a0b0001a9da8f,57,2022-02-12_16h50.27.922,lexical_decision_task_DD,2021.2.3,Win32,59.80861244,,,,,,,,,,,0.6412,1,,,,,,,,,,,,,,m,1,0.6412,,,,,,,,-0.07421875,-0.194010417,0,0,0,,0,38,38,35,1,PEACH,LB,old,m,./images/PEACHLB.png,,,,,,,,,,,,,,,,,,,,,,,,,,,,,,,,,,,
,,,,,,,,,,,,,,,,,5a8352feae9a0b0001a9da8f,57,2022-02-12_16h50.27.922,lexical_decision_task_DD,2021.2.3,Win32,59.80861244,,,,,,,,,,,0.6694,1,,,,,,,,,,,,,,m,1,0.6694,,,,,,,,-0.07421875,-0.194010417,0,0,0,,0,39,39,65,1,FARMER,LB,old,m,./images/FARMERLB.png,,,,,,,,,,,,,,,,,,,,,,,,,,,,,,,,,,,
,,,,,,,,,,,,,,,,,5a8352feae9a0b0001a9da8f,57,2022-02-12_16h50.27.922,lexical_decision_task_DD,2021.2.3,Win32,59.80861244,,,,,,,,,,,0.8997,1,,,,,,,,,,,,,,z,1,0.8997,,,,,,,,-0.07421875,-0.194010417,0,0,0,,0,40,40,106,1,CLUMS,HB,old,z,./images/CLUMSHB.png,,,,,,,,,,,,,,,,,,,,,,,,,,,,,,,,,,,
,,,,,,,,,,,,,,,,,5a8352feae9a0b0001a9da8f,57,2022-02-12_16h50.27.922,lexical_decision_task_DD,2021.2.3,Win32,59.80861244,,,,,,,,,,,0.8637,1,,,,,,,,,,,,,,m,1,0.8637,,,,,,,,-0.07421875,-0.194010417,0,0,0,space,0,41,41,29,1,CRUMB,LB,old,m,./images/CRUMBLB.png,4.8876,,,,,,,,,,,,,,,,,,,,,,,,,,,,,,,,,,
,,,,,,,,,,,,,,,,,5a8352feae9a0b0001a9da8f,57,2022-02-12_16h50.27.922,lexical_decision_task_DD,2021.2.3,Win32,59.80861244,,,,,,,,,,,1.2387,0,,,,,,,,,,,,,,z,0,1.2387,,,,,,,,-0.07421875,-0.194010417,0,0,0,,0,42,42,67,1,SAILOR,HB,old,m,./images/SAILORHB.png,,,,,,,,,,,,,,,,,,,,,,,,,,,,,,,,,,,
,,,,,,,,,,,,,,,,,5a8352feae9a0b0001a9da8f,57,2022-02-12_16h50.27.922,lexical_decision_task_DD,2021.2.3,Win32,59.80861244,,,,,,,,,,,0.9685,1,,,,,,,,,,,,,,z,1,0.9685,,,,,,,,-0.07421875,-0.194010417,0,0,0,,0,43,43,165,1,TROWN,C,old,z,./images/TROWN.png,,,,,,,,,,,,,,,,,,,,,,,,,,,,,,,,,,,
,,,,,,,,,,,,,,,,,5a8352feae9a0b0001a9da8f,57,2022-02-12_16h50.27.922,lexical_decision_task_DD,2021.2.3,Win32,59.80861244,,,,,,,,,,,0.6935,1,,,,,,,,,,,,,,m,1,0.6935,,,,,,,,-0.07421875,-0.194010417,0,0,0,,0,44,44,51,1,ONION,C,old,m,./images/ONION.png,,,,,,,,,,,,,,,,,,,,,,,,,,,,,,,,,,,
,,,,,,,,,,,,,,,,,5a8352feae9a0b0001a9da8f,57,2022-02-12_16h50.27.922,lexical_decision_task_DD,2021.2.3,Win32,59.80861244,,,,,,,,,,,1.0712,1,,,,,,,,,,,,,,z,1,1.0712,,,,,,,,-0.07421875,-0.194010417,0,0,0,,0,45,45,130,1,CRILL,HB,old,z,./images/CRILLHB.png,,,,,,,,,,,,,,,,,,,,,,,,,,,,,,,,,,,
,,,,,,,,,,,,,,,,,5a8352feae9a0b0001a9da8f,57,2022-02-12_16h50.27.922,lexical_decision_task_DD,2021.2.3,Win32,59.80861244,,,,,,,,,,,0.6533,1,,,,,,,,,,,,,,m,1,0.6533,,,,,,,,-0.07421875,-0.194010417,0,0,0,,0,46,46,13,1,MOTOR,HB,old,m,./images/MOTORHB.png,,,,,,,,,,,,,,,,,,,,,,,,,,,,,,,,,,,
,,,,,,,,,,,,,,,,,5a8352feae9a0b0001a9da8f,57,2022-02-12_16h50.27.922,lexical_decision_task_DD,2021.2.3,Win32,59.80861244,,,,,,,,,,,1.2222,1,,,,,,,,,,,,,,m,1,1.2222,,,,,,,,-0.07421875,-0.194010417,0,0,0,,0,47,47,40,1,SWING,HB,old,m,./images/SWINGHB.png,,,,,,,,,,,,,,,,,,,,,,,,,,,,,,,,,,,
,,,,,,,,,,,,,,,,,5a8352feae9a0b0001a9da8f,57,2022-02-12_16h50.27.922,lexical_decision_task_DD,2021.2.3,Win32,59.80861244,,,,,,,,,,,0.6991,1,,,,,,,,,,,,,,m,1,0.6991,,,,,,,,-0.07421875,-0.194010417,0,0,0,,0,48,48,27,1,ATTIC,C,old,m,./images/ATTIC.png,,,,,,,,,,,,,,,,,,,,,,,,,,,,,,,,,,,
,,,,,,,,,,,,,,,,,5a8352feae9a0b0001a9da8f,57,2022-02-12_16h50.27.922,lexical_decision_task_DD,2021.2.3,Win32,59.80861244,,,,,,,,,,,1.0579,1,,,,,,,,,,,,,,m,1,1.0579,,,,,,,,-0.07421875,-0.194010417,0,0,0,,0,49,49,6,1,SQUARE,C,old,m,./images/SQUARE.png,,,,,,,,,,,,,,,,,,,,,,,,,,,,,,,,,,,
,,,,,,,,,,,,,,,,,5a8352feae9a0b0001a9da8f,57,2022-02-12_16h50.27.922,lexical_decision_task_DD,2021.2.3,Win32,59.80861244,,,,,,,,,,,0.615,1,,,,,,,,,,,,,,m,1,0.615,,,,,,,,-0.07421875,-0.194010417,0,0,0,,0,50,50,9,1,RHINO,C,old,m,./images/RHINO.png,,,,,,,,,,,,,,,,,,,,,,,,,,,,,,,,,,,
,,,,,,,,,,,,,,,,,5a8352feae9a0b0001a9da8f,57,2022-02-12_16h50.27.922,lexical_decision_task_DD,2021.2.3,Win32,59.80861244,,,,,,,,,,,0.8426,1,,,,,,,,,,,,,,m,1,0.8426,,,,,,,,-0.07421875,-0.194010417,0,0,0,,0,51,51,58,1,BABOON,HB,old,m,./images/BABOONHB.png,,,,,,,,,,,,,,,,,,,,,,,,,,,,,,,,,,,
,,,,,,,,,,,,,,,,,5a8352feae9a0b0001a9da8f,57,2022-02-12_16h50.27.922,lexical_decision_task_DD,2021.2.3,Win32,59.80861244,,,,,,,,,,,0.9972,1,,,,,,,,,,,,,,z,1,0.9972,,,,,,,,-0.07421875,-0.194010417,0,0,0,,0,52,52,92,1,PAIMS,LB,old,z,./images/PAIMSLB.png,,,,,,,,,,,,,,,,,,,,,,,,,,,,,,,,,,,
,,,,,,,,,,,,,,,,,5a8352feae9a0b0001a9da8f,57,2022-02-12_16h50.27.922,lexical_decision_task_DD,2021.2.3,Win32,59.80861244,,,,,,,,,,,0.7787,1,,,,,,,,,,,,,,z,1,0.7787,,,,,,,,-0.07421875,-0.194010417,0,0,0,,0,53,53,87,1,TRING,C,old,z,./images/TRING.png,,,,,,,,,,,,,,,,,,,,,,,,,,,,,,,,,,,
,,,,,,,,,,,,,,,,,5a8352feae9a0b0001a9da8f,57,2022-02-12_16h50.27.922,lexical_decision_task_DD,2021.2.3,Win32,59.80861244,,,,,,,,,,,0.6753,1,,,,,,,,,,,,,,z,1,0.6753,,,,,,,,-0.07421875,-0.194010417,0,0,0,,0,54,54,114,1,RIKES,C,old,z,./images/RIKES.png,,,,,,,,,,,,,,,,,,,,,,,,,,,,,,,,,,,
,,,,,,,,,,,,,,,,,5a8352feae9a0b0001a9da8f,57,2022-02-12_16h50.27.922,lexical_decision_task_DD,2021.2.3,Win32,59.80861244,,,,,,,,,,,1.6386,0,,,,,,,,,,,,,,m,0,1.6386,,,,,,,,-0.07421875,-0.194010417,0,0,0,,0,55,55,151,1,TINKY,HB,old,z,./images/TINKYHB.png,,,,,,,,,,,,,,,,,,,,,,,,,,,,,,,,,,,
,,,,,,,,,,,,,,,,,5a8352feae9a0b0001a9da8f,57,2022-02-12_16h50.27.922,lexical_decision_task_DD,2021.2.3,Win32,59.80861244,,,,,,,,,,,0.8293,1,,,,,,,,,,,,,,m,1,0.8293,,,,,,,,-0.07421875,-0.194010417,0,0,0,,0,56,56,46,1,PEARL,HB,old,m,./images/PEARLHB.png,,,,,,,,,,,,,,,,,,,,,,,,,,,,,,,,,,,
,,,,,,,,,,,,,,,,,5a8352feae9a0b0001a9da8f,57,2022-02-12_16h50.27.922,lexical_decision_task_DD,2021.2.3,Win32,59.80861244,,,,,,,,,,,0.8012,1,,,,,,,,,,,,,,z,1,0.8012,,,,,,,,-0.07421875,-0.194010417,0,0,0,,0,57,57,98,1,BAMPS,LB,old,z,./images/BAMPSLB.png,,,,,,,,,,,,,,,,,,,,,,,,,,,,,,,,,,,
,,,,,,,,,,,,,,,,,5a8352feae9a0b0001a9da8f,57,2022-02-12_16h50.27.922,lexical_decision_task_DD,2021.2.3,Win32,59.80861244,,,,,,,,,,,0.879,1,,,,,,,,,,,,,,z,1,0.879,,,,,,,,-0.07421875,-0.194010417,0,0,0,,0,58,58,99,1,BACKY,C,old,z,./images/BACKY.png,,,,,,,,,,,,,,,,,,,,,,,,,,,,,,,,,,,
,,,,,,,,,,,,,,,,,5a8352feae9a0b0001a9da8f,57,2022-02-12_16h50.27.922,lexical_decision_task_DD,2021.2.3,Win32,59.80861244,,,,,,,,,,,0.8359,1,,,,,,,,,,,,,,m,1,0.8359,,,,,,,,-0.07421875,-0.194010417,0,0,0,,0,59,59,4,1,MUSCLE,HB,old,m,./images/MUSCLEHB.png,,,,,,,,,,,,,,,,,,,,,,,,,,,,,,,,,,,
,,,,,,,,,,,,,,,,,5a8352feae9a0b0001a9da8f,57,2022-02-12_16h50.27.922,lexical_decision_task_DD,2021.2.3,Win32,59.80861244,,,,,,,,,,,0.788,1,,,,,,,,,,,,,,m,1,0.788,,,,,,,,-0.07421875,-0.194010417,0,0,0,,0,60,60,74,1,CEMENT,LB,old,m,./images/CEMENTLB.png,,,,,,,,,,,,,,,,,,,,,,,,,,,,,,,,,,,
,,,,,,,,,,,,,,,,,5a8352feae9a0b0001a9da8f,57,2022-02-12_16h50.27.922,lexical_decision_task_DD,2021.2.3,Win32,59.80861244,,,,,,,,,,,0.8497,1,,,,,,,,,,,,,,m,1,0.8497,,,,,,,,-0.07421875,-0.194010417,0,0,0,,0,61,61,52,1,BANNER,HB,old,m,./images/BANNERHB.png,,,,,,,,,,,,,,,,,,,,,,,,,,,,,,,,,,,
,,,,,,,,,,,,,,,,,5a8352feae9a0b0001a9da8f,57,2022-02-12_16h50.27.922,lexical_decision_task_DD,2021.2.3,Win32,59.80861244,,,,,,,,,,,1.2388,1,,,,,,,,,,,,,,z,1,1.2388,,,,,,,,-0.07421875,-0.194010417,0,0,0,,0,62,62,118,1,BAVEL,HB,old,z,./images/BAVELHB.png,,,,,,,,,,,,,,,,,,,,,,,,,,,,,,,,,,,
,,,,,,,,,,,,,,,,,5a8352feae9a0b0001a9da8f,57,2022-02-12_16h50.27.922,lexical_decision_task_DD,2021.2.3,Win32,59.80861244,,,,,,,,,,,0.9376,1,,,,,,,,,,,,,,z,1,0.9376,,,,,,,,-0.07421875,-0.194010417,0,0,0,,0,63,63,88,1,GLUSH,HB,old,z,./images/GLUSHHB.png,,,,,,,,,,,,,,,,,,,,,,,,,,,,,,,,,,,
,,,,,,,,,,,,,,,,,5a8352feae9a0b0001a9da8f,57,2022-02-12_16h50.27.922,lexical_decision_task_DD,2021.2.3,Win32,59.80861244,,,,,,,,,,,0.7167,1,,,,,,,,,,,,,,m,1,0.7167,,,,,,,,-0.07421875,-0.194010417,0,0,0,,0,64,64,26,1,SMOKER,LB,old,m,./images/SMOKERLB.png,,,,,,,,,,,,,,,,,,,,,,,,,,,,,,,,,,,
,,,,,,,,,,,,,,,,,5a8352feae9a0b0001a9da8f,57,2022-02-12_16h50.27.922,lexical_decision_task_DD,2021.2.3,Win32,59.80861244,,,,,,,,,,,0.8033,1,,,,,,,,,,,,,,m,1,0.8033,,,,,,,,-0.07421875,-0.194010417,0,0,0,,0,65,65,56,1,PACKET,LB,old,m,./images/PACKETLB.png,,,,,,,,,,,,,,,,,,,,,,,,,,,,,,,,,,,
,,,,,,,,,,,,,,,,,5a8352feae9a0b0001a9da8f,57,2022-02-12_16h50.27.922,lexical_decision_task_DD,2021.2.3,Win32,59.80861244,,,,,,,,,,,0.9708,1,,,,,,,,,,,,,,z,1,0.9708,,,,,,,,-0.07421875,-0.194010417,0,0,0,,0,66,66,113,1,LINEW,LB,old,z,./images/LINEWLB.png,,,,,,,,,,,,,,,,,,,,,,,,,,,,,,,,,,,
,,,,,,,,,,,,,,,,,5a8352feae9a0b0001a9da8f,57,2022-02-12_16h50.27.922,lexical_decision_task_DD,2021.2.3,Win32,59.80861244,,,,,,,,,,,1.2724,1,,,,,,,,,,,,,,m,1,1.2724,,,,,,,,-0.07421875,-0.194010417,0,0,0,,0,67,67,1,1,PLANK,HB,old,m,./images/PLANKHB.png,,,,,,,,,,,,,,,,,,,,,,,,,,,,,,,,,,,
,,,,,,,,,,,,,,,,,5a8352feae9a0b0001a9da8f,57,2022-02-12_16h50.27.922,lexical_decision_task_DD,2021.2.3,Win32,59.80861244,,,,,,,,,,,1.119,1,,,,,,,,,,,,,,z,1,1.119,,,,,,,,-0.07421875,-0.194010417,0,0,0,,0,68,68,100,1,DRIBS,HB,old,z,./images/DRIBSHB.png,,,,,,,,,,,,,,,,,,,,,,,,,,,,,,,,,,,
,,,,,,,,,,,,,,,,,5a8352feae9a0b0001a9da8f,57,2022-02-12_16h50.27.922,lexical_decision_task_DD,2021.2.3,Win32,59.80861244,,,,,,,,,,,1.2547,1,,,,,,,,,,,,,,z,1,1.2547,,,,,,,,-0.07421875,-0.194010417,0,0,0,,0,69,69,154,1,THINT,HB,old,z,./images/THINTHB.png,,,,,,,,,,,,,,,,,,,,,,,,,,,,,,,,,,,
,,,,,,,,,,,,,,,,,5a8352feae9a0b0001a9da8f,57,2022-02-12_16h50.27.922,lexical_decision_task_DD,2021.2.3,Win32,59.80861244,,,,,,,,,,,0.9969,1,,,,,,,,,,,,,,z,1,0.9969,,,,,,,,-0.07421875,-0.194010417,0,0,0,,0,70,70,90,1,NEAST,C,old,z,./images/NEAST.png,,,,,,,,,,,,,,,,,,,,,,,,,,,,,,,,,,,
,,,,,,,,,,,,,,,,,5a8352feae9a0b0001a9da8f,57,2022-02-12_16h50.27.922,lexical_decision_task_DD,2021.2.3,Win32,59.80861244,,,,,,,,,,,0.9096,1,,,,,,,,,,,,,,z,1,0.9096,,,,,,,,-0.07421875,-0.194010417,0,0,0,,0,71,71,131,1,NACES,LB,old,z,./images/NACESLB.png,,,,,,,,,,,,,,,,,,,,,,,,,,,,,,,,,,,
,,,,,,,,,,,,,,,,,5a8352feae9a0b0001a9da8f,57,2022-02-12_16h50.27.922,lexical_decision_task_DD,2021.2.3,Win32,59.80861244,,,,,,,,,,,0.8493,1,,,,,,,,,,,,,,z,1,0.8493,,,,,,,,-0.07421875,-0.194010417,0,0,0,,0,72,72,122,1,BLOOT,LB,old,z,./images/BLOOTLB.png,,,,,,,,,,,,,,,,,,,,,,,,,,,,,,,,,,,
,,,,,,,,,,,,,,,,,5a8352feae9a0b0001a9da8f,57,2022-02-12_16h50.27.922,lexical_decision_task_DD,2021.2.3,Win32,59.80861244,,,,,,,,,,,0.8376,1,,,,,,,,,,,,,,z,1,0.8376,,,,,,,,-0.07421875,-0.194010417,0,0,0,,0,73,73,96,1,KEAMS,C,old,z,./images/KEAMS.png,,,,,,,,,,,,,,,,,,,,,,,,,,,,,,,,,,,
,,,,,,,,,,,,,,,,,5a8352feae9a0b0001a9da8f,57,2022-02-12_16h50.27.922,lexical_decision_task_DD,2021.2.3,Win32,59.80861244,,,,,,,,,,,0.7299,1,,,,,,,,,,,,,,z,1,0.7299,,,,,,,,-0.07421875,-0.194010417,0,0,0,,0,74,74,116,1,BALGY,LB,old,z,./images/BALGYLB.png,,,,,,,,,,,,,,,,,,,,,,,,,,,,,,,,,,,
,,,,,,,,,,,,,,,,,5a8352feae9a0b0001a9da8f,57,2022-02-12_16h50.27.922,lexical_decision_task_DD,2021.2.3,Win32,59.80861244,,,,,,,,,,,0.8784,1,,,,,,,,,,,,,,m,1,0.8784,,,,,,,,-0.07421875,-0.194010417,0,0,0,,0,75,75,11,1,BONNET,LB,old,m,./images/BONNETLB.png,,,,,,,,,,,,,,,,,,,,,,,,,,,,,,,,,,,
,,,,,,,,,,,,,,,,,5a8352feae9a0b0001a9da8f,57,2022-02-12_16h50.27.922,lexical_decision_task_DD,2021.2.3,Win32,59.80861244,,,,,,,,,,,0.7527,1,,,,,,,,,,,,,,m,1,0.7527,,,,,,,,-0.07421875,-0.194010417,0,0,0,,0,76,76,17,1,SKIING,LB,old,m,./images/SKIINGLB.png,,,,,,,,,,,,,,,,,,,,,,,,,,,,,,,,,,,
,,,,,,,,,,,,,,,,,5a8352feae9a0b0001a9da8f,57,2022-02-12_16h50.27.922,lexical_decision_task_DD,2021.2.3,Win32,59.80861244,,,,,,,,,,,0.9476,1,,,,,,,,,,,,,,z,1,0.9476,,,,,,,,-0.07421875,-0.194010417,0,0,0,,0,77,77,136,1,WERVE,HB,old,z,./images/WERVEHB.png,,,,,,,,,,,,,,,,,,,,,,,,,,,,,,,,,,,
,,,,,,,,,,,,,,,,,5a8352feae9a0b0001a9da8f,57,2022-02-12_16h50.27.922,lexical_decision_task_DD,2021.2.3,Win32,59.80861244,,,,,,,,,,,0.7807,1,,,,,,,,,,,,,,m,1,0.7807,,,,,,,,-0.07421875,-0.194010417,0,0,0,,0,78,78,68,1,TORCH,LB,old,m,./images/TORCHLB.png,,,,,,,,,,,,,,,,,,,,,,,,,,,,,,,,,,,
,,,,,,,,,,,,,,,,,5a8352feae9a0b0001a9da8f,57,2022-02-12_16h50.27.922,lexical_decision_task_DD,2021.2.3,Win32,59.80861244,,,,,,,,,,,1.2057,0,,,,,,,,,,,,,,m,0,1.2057,,,,,,,,-0.07421875,-0.194010417,0,0,0,,0,79,79,140,1,DOVET,LB,old,z,./images/DOVETLB.png,,,,,,,,,,,,,,,,,,,,,,,,,,,,,,,,,,,
,,,,,,,,,,,,,,,,,5a8352feae9a0b0001a9da8f,57,2022-02-12_16h50.27.922,lexical_decision_task_DD,2021.2.3,Win32,59.80861244,,,,,,,,,,,1.1416,1,,,,,,,,,,,,,,z,1,1.1416,,,,,,,,-0.07421875,-0.194010417,0,0,0,,0,80,80,97,1,CHIDS,HB,old,z,./images/CHIDSHB.png,,,,,,,,,,,,,,,,,,,,,,,,,,,,,,,,,,,
,,,,,,,,,,,,,,,,,5a8352feae9a0b0001a9da8f,57,2022-02-12_16h50.27.922,lexical_decision_task_DD,2021.2.3,Win32,59.80861244,,,,,,,,,,,1.0824,1,,,,,,,,,,,,,,z,1,1.0824,,,,,,,,-0.07421875,-0.194010417,0,0,0,,0,81,81,89,1,DRIEK,LB,old,z,./images/DRIEKLB.png,,,,,,,,,,,,,,,,,,,,,,,,,,,,,,,,,,,
,,,,,,,,,,,,,,,,,5a8352feae9a0b0001a9da8f,57,2022-02-12_16h50.27.922,lexical_decision_task_DD,2021.2.3,Win32,59.80861244,,,,,,,,,,,1.0964,1,,,,,,,,,,,,,,m,1,1.0964,,,,,,,,-0.07421875,-0.194010417,0,0,0,,0,82,82,22,1,MELON,HB,old,m,./images/MELONHB.png,,,,,,,,,,,,,,,,,,,,,,,,,,,,,,,,,,,
,,,,,,,,,,,,,,,,,5a8352feae9a0b0001a9da8f,57,2022-02-12_16h50.27.922,lexical_decision_task_DD,2021.2.3,Win32,59.80861244,,,,,,,,,,,1.1355,1,,,,,,,,,,,,,,z,1,1.1355,,,,,,,,-0.07421875,-0.194010417,0,0,0,space,0,83,83,121,1,CEERS,HB,old,z,./images/CEERSHB.png,5.8787,,,,,,,,,,,,,,,,,,,,,,,,,,,,,,,,,,
,,,,,,,,,,,,,,,,,5a8352feae9a0b0001a9da8f,57,2022-02-12_16h50.27.922,lexical_decision_task_DD,2021.2.3,Win32,59.80861244,,,,,,,,,,,0.7477,1,,,,,,,,,,,,,,m,1,0.7477,,,,,,,,-0.07421875,-0.194010417,0,0,0,,0,84,84,82,1,SUNSET,HB,old,m,./images/SUNSETHB.png,,,,,,,,,,,,,,,,,,,,,,,,,,,,,,,,,,,
,,,,,,,,,,,,,,,,,5a8352feae9a0b0001a9da8f,57,2022-02-12_16h50.27.922,lexical_decision_task_DD,2021.2.3,Win32,59.80861244,,,,,,,,,,,0.6611,1,,,,,,,,,,,,,,m,1,0.6611,,,,,,,,-0.07421875,-0.194010417,0,0,0,,0,85,85,0,1,TOMATO,C,old,m,./images/TOMATO.png,,,,,,,,,,,,,,,,,,,,,,,,,,,,,,,,,,,
,,,,,,,,,,,,,,,,,5a8352feae9a0b0001a9da8f,57,2022-02-12_16h50.27.922,lexical_decision_task_DD,2021.2.3,Win32,59.80861244,,,,,,,,,,,0.6503,1,,,,,,,,,,,,,,m,1,0.6503,,,,,,,,-0.07421875,-0.194010417,0,0,0,,0,86,86,32,1,BARREL,LB,old,m,./images/BARRELLB.png,,,,,,,,,,,,,,,,,,,,,,,,,,,,,,,,,,,
,,,,,,,,,,,,,,,,,5a8352feae9a0b0001a9da8f,57,2022-02-12_16h50.27.922,lexical_decision_task_DD,2021.2.3,Win32,59.80861244,,,,,,,,,,,0.769,1,,,,,,,,,,,,,,z,1,0.769,,,,,,,,-0.07421875,-0.194010417,0,0,0,,0,87,87,103,1,FLORT,HB,old,z,./images/FLORTHB.png,,,,,,,,,,,,,,,,,,,,,,,,,,,,,,,,,,,
,,,,,,,,,,,,,,,,,5a8352feae9a0b0001a9da8f,57,2022-02-12_16h50.27.922,lexical_decision_task_DD,2021.2.3,Win32,59.80861244,,,,,,,,,,,0.9395,1,,,,,,,,,,,,,,z,1,0.9395,,,,,,,,-0.07421875,-0.194010417,0,0,0,,0,88,88,142,1,PLASK,HB,old,z,./images/PLASKHB.png,,,,,,,,,,,,,,,,,,,,,,,,,,,,,,,,,,,
,,,,,,,,,,,,,,,,,5a8352feae9a0b0001a9da8f,57,2022-02-12_16h50.27.922,lexical_decision_task_DD,2021.2.3,Win32,59.80861244,,,,,,,,,,,0.721,1,,,,,,,,,,,,,,z,1,0.721,,,,,,,,-0.07421875,-0.194010417,0,0,0,,0,89,89,167,1,ZONET,LB,old,z,./images/ZONETLB.png,,,,,,,,,,,,,,,,,,,,,,,,,,,,,,,,,,,
,,,,,,,,,,,,,,,,,5a8352feae9a0b0001a9da8f,57,2022-02-12_16h50.27.922,lexical_decision_task_DD,2021.2.3,Win32,59.80861244,,,,,,,,,,,1.0476,1,,,,,,,,,,,,,,z,1,1.0476,,,,,,,,-0.07421875,-0.194010417,0,0,0,,0,90,90,102,1,DULLE,C,old,z,./images/DULLE.png,,,,,,,,,,,,,,,,,,,,,,,,,,,,,,,,,,,
,,,,,,,,,,,,,,,,,5a8352feae9a0b0001a9da8f,57,2022-02-12_16h50.27.922,lexical_decision_task_DD,2021.2.3,Win32,59.80861244,,,,,,,,,,,0.8366,1,,,,,,,,,,,,,,m,1,0.8366,,,,,,,,-0.07421875,-0.194010417,0,0,0,,0,91,91,37,1,BIRTH,HB,old,m,./images/BIRTHHB.png,,,,,,,,,,,,,,,,,,,,,,,,,,,,,,,,,,,
,,,,,,,,,,,,,,,,,5a8352feae9a0b0001a9da8f,57,2022-02-12_16h50.27.922,lexical_decision_task_DD,2021.2.3,Win32,59.80861244,,,,,,,,,,,0.7202,1,,,,,,,,,,,,,,z,1,0.7202,,,,,,,,-0.07421875,-0.194010417,0,0,0,,0,92,92,146,1,MOOST,LB,old,z,./images/MOOSTLB.png,,,,,,,,,,,,,,,,,,,,,,,,,,,,,,,,,,,
,,,,,,,,,,,,,,,,,5a8352feae9a0b0001a9da8f,57,2022-02-12_16h50.27.922,lexical_decision_task_DD,2021.2.3,Win32,59.80861244,,,,,,,,,,,0.7689,1,,,,,,,,,,,,,,m,1,0.7689,,,,,,,,-0.07421875,-0.194010417,0,0,0,,0,93,93,34,1,CANYON,HB,old,m,./images/CANYONHB.png,,,,,,,,,,,,,,,,,,,,,,,,,,,,,,,,,,,
,,,,,,,,,,,,,,,,,5a8352feae9a0b0001a9da8f,57,2022-02-12_16h50.27.922,lexical_decision_task_DD,2021.2.3,Win32,59.80861244,,,,,,,,,,,1.1208,1,,,,,,,,,,,,,,z,1,1.1208,,,,,,,,-0.07421875,-0.194010417,0,0,0,,0,94,94,164,1,SGREW,LB,old,z,./images/SGREWLB.png,,,,,,,,,,,,,,,,,,,,,,,,,,,,,,,,,,,
,,,,,,,,,,,,,,,,,5a8352feae9a0b0001a9da8f,57,2022-02-12_16h50.27.922,lexical_decision_task_DD,2021.2.3,Win32,59.80861244,,,,,,,,,,,0.8529,1,,,,,,,,,,,,,,m,1,0.8529,,,,,,,,-0.07421875,-0.194010417,0,0,0,,0,95,95,41,1,STRING,LB,old,m,./images/STRINGLB.png,,,,,,,,,,,,,,,,,,,,,,,,,,,,,,,,,,,
,,,,,,,,,,,,,,,,,5a8352feae9a0b0001a9da8f,57,2022-02-12_16h50.27.922,lexical_decision_task_DD,2021.2.3,Win32,59.80861244,,,,,,,,,,,0.7098,1,,,,,,,,,,,,,,m,1,0.7098,,,,,,,,-0.07421875,-0.194010417,0,0,0,,0,96,96,54,1,TRIPOD,C,old,m,./images/TRIPOD.png,,,,,,,,,,,,,,,,,,,,,,,,,,,,,,,,,,,
,,,,,,,,,,,,,,,,,5a8352feae9a0b0001a9da8f,57,2022-02-12_16h50.27.922,lexical_decision_task_DD,2021.2.3,Win32,59.80861244,,,,,,,,,,,0.862,1,,,,,,,,,,,,,,z,1,0.862,,,,,,,,-0.07421875,-0.194010417,0,0,0,,0,97,97,93,1,SMONE,C,old,z,./images/SMONE.png,,,,,,,,,,,,,,,,,,,,,,,,,,,,,,,,,,,
,,,,,,,,,,,,,,,,,5a8352feae9a0b0001a9da8f,57,2022-02-12_16h50.27.922,lexical_decision_task_DD,2021.2.3,Win32,59.80861244,,,,,,,,,,,0.7867,1,,,,,,,,,,,,,,m,1,0.7867,,,,,,,,-0.07421875,-0.194010417,0,0,0,,0,98,98,73,1,SNACK,HB,old,m,./images/SNACKHB.png,,,,,,,,,,,,,,,,,,,,,,,,,,,,,,,,,,,
,,,,,,,,,,,,,,,,,5a8352feae9a0b0001a9da8f,57,2022-02-12_16h50.27.922,lexical_decision_task_DD,2021.2.3,Win32,59.80861244,,,,,,,,,,,1.0038,1,,,,,,,,,,,,,,z,1,1.0038,,,,,,,,-0.07421875,-0.194010417,0,0,0,,0,99,99,95,1,HANTY,LB,old,z,./images/HANTYLB.png,,,,,,,,,,,,,,,,,,,,,,,,,,,,,,,,,,,
,,,,,,,,,,,,,,,,,5a8352feae9a0b0001a9da8f,57,2022-02-12_16h50.27.922,lexical_decision_task_DD,2021.2.3,Win32,59.80861244,,,,,,,,,,,0.7529,1,,,,,,,,,,,,,,z,1,0.7529,,,,,,,,-0.07421875,-0.194010417,0,0,0,,0,100,100,138,1,PLICE,C,old,z,./images/PLICE.png,,,,,,,,,,,,,,,,,,,,,,,,,,,,,,,,,,,
,,,,,,,,,,,,,,,,,5a8352feae9a0b0001a9da8f,57,2022-02-12_16h50.27.922,lexical_decision_task_DD,2021.2.3,Win32,59.80861244,,,,,,,,,,,1.3433,1,,,,,,,,,,,,,,z,1,1.3433,,,,,,,,-0.07421875,-0.194010417,0,0,0,,0,101,101,157,1,INLER,HB,old,z,./images/INLERHB.png,,,,,,,,,,,,,,,,,,,,,,,,,,,,,,,,,,,
,,,,,,,,,,,,,,,,,5a8352feae9a0b0001a9da8f,57,2022-02-12_16h50.27.922,lexical_decision_task_DD,2021.2.3,Win32,59.80861244,,,,,,,,,,,1.0318,1,,,,,,,,,,,,,,m,1,1.0318,,,,,,,,-0.07421875,-0.194010417,0,0,0,,0,102,102,50,1,MALLET,LB,old,m,./images/MALLETLB.png,,,,,,,,,,,,,,,,,,,,,,,,,,,,,,,,,,,
,,,,,,,,,,,,,,,,,5a8352feae9a0b0001a9da8f,57,2022-02-12_16h50.27.922,lexical_decision_task_DD,2021.2.3,Win32,59.80861244,,,,,,,,,,,0.6445,1,,,,,,,,,,,,,,m,1,0.6445,,,,,,,,-0.07421875,-0.194010417,0,0,0,,0,103,103,30,1,STORM,C,old,m,./images/STORM.png,,,,,,,,,,,,,,,,,,,,,,,,,,,,,,,,,,,
,,,,,,,,,,,,,,,,,5a8352feae9a0b0001a9da8f,57,2022-02-12_16h50.27.922,lexical_decision_task_DD,2021.2.3,Win32,59.80861244,,,,,,,,,,,0.6523,1,,,,,,,,,,,,,,m,1,0.6523,,,,,,,,-0.07421875,-0.194010417,0,0,0,,0,104,104,2,1,BEARD,LB,old,m,./images/BEARDLB.png,,,,,,,,,,,,,,,,,,,,,,,,,,,,,,,,,,,
,,,,,,,,,,,,,,,,,5a8352feae9a0b0001a9da8f,57,2022-02-12_16h50.27.922,lexical_decision_task_DD,2021.2.3,Win32,59.80861244,,,,,,,,,,,0.9537,1,,,,,,,,,,,,,,m,1,0.9537,,,,,,,,-0.07421875,-0.194010417,0,0,0,,0,105,105,25,1,WRIST,HB,old,m,./images/WRISTHB.png,,,,,,,,,,,,,,,,,,,,,,,,,,,,,,,,,,,
,,,,,,,,,,,,,,,,,5a8352feae9a0b0001a9da8f,57,2022-02-12_16h50.27.922,lexical_decision_task_DD,2021.2.3,Win32,59.80861244,,,,,,,,,,,1.0213,0,,,,,,,,,,,,,,m,0,1.0213,,,,,,,,-0.07421875,-0.194010417,0,0,0,,0,106,106,145,1,LAMEL,HB,old,z,./images/LAMELHB.png,,,,,,,,,,,,,,,,,,,,,,,,,,,,,,,,,,,
,,,,,,,,,,,,,,,,,5a8352feae9a0b0001a9da8f,57,2022-02-12_16h50.27.922,lexical_decision_task_DD,2021.2.3,Win32,59.80861244,,,,,,,,,,,0.7239,1,,,,,,,,,,,,,,z,1,0.7239,,,,,,,,-0.07421875,-0.194010417,0,0,0,,0,107,107,111,1,HOSSE,C,old,z,./images/HOSSE.png,,,,,,,,,,,,,,,,,,,,,,,,,,,,,,,,,,,
,,,,,,,,,,,,,,,,,5a8352feae9a0b0001a9da8f,57,2022-02-12_16h50.27.922,lexical_decision_task_DD,2021.2.3,Win32,59.80861244,,,,,,,,,,,1.1752,1,,,,,,,,,,,,,,m,1,1.1752,,,,,,,,-0.07421875,-0.194010417,0,0,0,,0,108,108,31,1,QUILL,HB,old,m,./images/QUILLHB.png,,,,,,,,,,,,,,,,,,,,,,,,,,,,,,,,,,,
,,,,,,,,,,,,,,,,,5a8352feae9a0b0001a9da8f,57,2022-02-12_16h50.27.922,lexical_decision_task_DD,2021.2.3,Win32,59.80861244,,,,,,,,,,,1.1322,1,,,,,,,,,,,,,,z,1,1.1322,,,,,,,,-0.07421875,-0.194010417,0,0,0,,0,109,109,115,1,MAWNS,HB,old,z,./images/MAWNSHB.png,,,,,,,,,,,,,,,,,,,,,,,,,,,,,,,,,,,
,,,,,,,,,,,,,,,,,5a8352feae9a0b0001a9da8f,57,2022-02-12_16h50.27.922,lexical_decision_task_DD,2021.2.3,Win32,59.80861244,,,,,,,,,,,0.9295,1,,,,,,,,,,,,,,z,1,0.9295,,,,,,,,-0.07421875,-0.194010417,0,0,0,,0,110,110,123,1,SEDGE,C,old,z,./images/SEDGE.png,,,,,,,,,,,,,,,,,,,,,,,,,,,,,,,,,,,
,,,,,,,,,,,,,,,,,5a8352feae9a0b0001a9da8f,57,2022-02-12_16h50.27.922,lexical_decision_task_DD,2021.2.3,Win32,59.80861244,,,,,,,,,,,0.9201,1,,,,,,,,,,,,,,m,1,0.9201,,,,,,,,-0.07421875,-0.194010417,0,0,0,,0,111,111,7,1,PAINT,HB,old,m,./images/PAINTHB.png,,,,,,,,,,,,,,,,,,,,,,,,,,,,,,,,,,,
,,,,,,,,,,,,,,,,,5a8352feae9a0b0001a9da8f,57,2022-02-12_16h50.27.922,lexical_decision_task_DD,2021.2.3,Win32,59.80861244,,,,,,,,,,,0.7022,1,,,,,,,,,,,,,,z,1,0.7022,,,,,,,,-0.07421875,-0.194010417,0,0,0,,0,112,112,143,1,MONGS,LB,old,z,./images/MONGSLB.png,,,,,,,,,,,,,,,,,,,,,,,,,,,,,,,,,,,
,,,,,,,,,,,,,,,,,5a8352feae9a0b0001a9da8f,57,2022-02-12_16h50.27.922,lexical_decision_task_DD,2021.2.3,Win32,59.80861244,,,,,,,,,,,0.6705,1,,,,,,,,,,,,,,z,1,0.6705,,,,,,,,-0.07421875,-0.194010417,0,0,0,,0,113,113,137,1,JOOST,LB,old,z,./images/JOOSTLB.png,,,,,,,,,,,,,,,,,,,,,,,,,,,,,,,,,,,
,,,,,,,,,,,,,,,,,5a8352feae9a0b0001a9da8f,57,2022-02-12_16h50.27.922,lexical_decision_task_DD,2021.2.3,Win32,59.80861244,,,,,,,,,,,0.8529,1,,,,,,,,,,,,,,m,1,0.8529,,,,,,,,-0.07421875,-0.194010417,0,0,0,,0,114,114,62,1,PURSE,LB,old,m,./images/PURSELB.png,,,,,,,,,,,,,,,,,,,,,,,,,,,,,,,,,,,
,,,,,,,,,,,,,,,,,5a8352feae9a0b0001a9da8f,57,2022-02-12_16h50.27.922,lexical_decision_task_DD,2021.2.3,Win32,59.80861244,,,,,,,,,,,0.7194,1,,,,,,,,,,,,,,z,1,0.7194,,,,,,,,-0.07421875,-0.194010417,0,0,0,,0,115,115,161,1,BLAPS,LB,old,z,./images/BLAPSLB.png,,,,,,,,,,,,,,,,,,,,,,,,,,,,,,,,,,,
,,,,,,,,,,,,,,,,,5a8352feae9a0b0001a9da8f,57,2022-02-12_16h50.27.922,lexical_decision_task_DD,2021.2.3,Win32,59.80861244,,,,,,,,,,,0.7254,1,,,,,,,,,,,,,,m,1,0.7254,,,,,,,,-0.07421875,-0.194010417,0,0,0,,0,116,116,3,1,FINGER,C,old,m,./images/FINGER.png,,,,,,,,,,,,,,,,,,,,,,,,,,,,,,,,,,,
,,,,,,,,,,,,,,,,,5a8352feae9a0b0001a9da8f,57,2022-02-12_16h50.27.922,lexical_decision_task_DD,2021.2.3,Win32,59.80861244,,,,,,,,,,,0.6456,1,,,,,,,,,,,,,,m,1,0.6456,,,,,,,,-0.07421875,-0.194010417,0,0,0,,0,117,117,80,1,WEASEL,LB,old,m,./images/WEASELLB.png,,,,,,,,,,,,,,,,,,,,,,,,,,,,,,,,,,,
,,,,,,,,,,,,,,,,,5a8352feae9a0b0001a9da8f,57,2022-02-12_16h50.27.922,lexical_decision_task_DD,2021.2.3,Win32,59.80861244,,,,,,,,,,,0.9356,1,,,,,,,,,,,,,,z,1,0.9356,,,,,,,,-0.07421875,-0.194010417,0,0,0,,0,118,118,163,1,GAMBA,HB,old,z,./images/GAMBAHB.png,,,,,,,,,,,,,,,,,,,,,,,,,,,,,,,,,,,
,,,,,,,,,,,,,,,,,5a8352feae9a0b0001a9da8f,57,2022-02-12_16h50.27.922,lexical_decision_task_DD,2021.2.3,Win32,59.80861244,,,,,,,,,,,0.8634,1,,,,,,,,,,,,,,z,1,0.8634,,,,,,,,-0.07421875,-0.194010417,0,0,0,,0,119,119,129,1,PRANS,C,old,z,./images/PRANS.png,,,,,,,,,,,,,,,,,,,,,,,,,,,,,,,,,,,
,,,,,,,,,,,,,,,,,5a8352feae9a0b0001a9da8f,57,2022-02-12_16h50.27.922,lexical_decision_task_DD,2021.2.3,Win32,59.80861244,,,,,,,,,,,0.7676,1,,,,,,,,,,,,,,z,1,0.7676,,,,,,,,-0.07421875,-0.194010417,0,0,0,,0,120,120,117,1,STEEG,C,old,z,./images/STEEG.png,,,,,,,,,,,,,,,,,,,,,,,,,,,,,,,,,,,
,,,,,,,,,,,,,,,,,5a8352feae9a0b0001a9da8f,57,2022-02-12_16h50.27.922,lexical_decision_task_DD,2021.2.3,Win32,59.80861244,,,,,,,,,,,0.7303,1,,,,,,,,,,,,,,m,1,0.7303,,,,,,,,-0.07421875,-0.194010417,0,0,0,,0,121,121,23,1,WALRUS,LB,old,m,./images/WALRUSLB.png,,,,,,,,,,,,,,,,,,,,,,,,,,,,,,,,,,,
,,,,,,,,,,,,,,,,,5a8352feae9a0b0001a9da8f,57,2022-02-12_16h50.27.922,lexical_decision_task_DD,2021.2.3,Win32,59.80861244,,,,,,,,,,,0.7776,1,,,,,,,,,,,,,,m,1,0.7776,,,,,,,,-0.07421875,-0.194010417,0,0,0,,0,122,122,69,1,COOKER,C,old,m,./images/COOKER.png,,,,,,,,,,,,,,,,,,,,,,,,,,,,,,,,,,,
,,,,,,,,,,,,,,,,,5a8352feae9a0b0001a9da8f,57,2022-02-12_16h50.27.922,lexical_decision_task_DD,2021.2.3,Win32,59.80861244,,,,,,,,,,,0.7862,1,,,,,,,,,,,,,,z,1,0.7862,,,,,,,,-0.07421875,-0.194010417,0,0,0,,0,123,123,155,1,CANGY,LB,old,z,./images/CANGYLB.png,,,,,,,,,,,,,,,,,,,,,,,,,,,,,,,,,,,
,,,,,,,,,,,,,,,,,5a8352feae9a0b0001a9da8f,57,2022-02-12_16h50.27.922,lexical_decision_task_DD,2021.2.3,Win32,59.80861244,,,,,,,,,,,1.0701,1,,,,,,,,,,,,,,z,1,1.0701,,,,,,,,-0.07421875,-0.194010417,0,0,0,,0,124,124,94,1,BLANS,HB,old,z,./images/BLANSHB.png,,,,,,,,,,,,,,,,,,,,,,,,,,,,,,,,,,,
,,,,,,,,,,,,,,,,,5a8352feae9a0b0001a9da8f,57,2022-02-12_16h50.27.922,lexical_decision_task_DD,2021.2.3,Win32,59.80861244,,,,,,,,,,,1.3056,1,,,,,,,,,,,,,,z,1,1.3056,,,,,,,,-0.07421875,-0.194010417,0,0,0,space,0,125,125,124,1,TUNCH,HB,old,z,./images/TUNCHHB.png,2.1433,,,,,,,,,,,,,,,,,,,,,,,,,,,,,,,,,,
,,,,,,,,,,,,,,,,,5a8352feae9a0b0001a9da8f,57,2022-02-12_16h50.27.922,lexical_decision_task_DD,2021.2.3,Win32,59.80861244,,,,,,,,,,,0.803,1,,,,,,,,,,,,,,m,1,0.803,,,,,,,,-0.07421875,-0.194010417,0,0,0,,0,126,126,61,1,CANDLE,HB,old,m,./images/CANDLEHB.png,,,,,,,,,,,,,,,,,,,,,,,,,,,,,,,,,,,
,,,,,,,,,,,,,,,,,5a8352feae9a0b0001a9da8f,57,2022-02-12_16h50.27.922,lexical_decision_task_DD,2021.2.3,Win32,59.80861244,,,,,,,,,,,0.7931,1,,,,,,,,,,,,,,m,1,0.7931,,,,,,,,-0.07421875,-0.194010417,0,0,0,,0,127,127,45,1,KITTEN,C,old,m,./images/KITTEN.png,,,,,,,,,,,,,,,,,,,,,,,,,,,,,,,,,,,
,,,,,,,,,,,,,,,,,5a8352feae9a0b0001a9da8f,57,2022-02-12_16h50.27.922,lexical_decision_task_DD,2021.2.3,Win32,59.80861244,,,,,,,,,,,0.5768,1,,,,,,,,,,,,,,m,1,0.5768,,,,,,,,-0.07421875,-0.194010417,0,0,0,,0,128,128,60,1,TWINS,C,old,m,./images/TWINS.png,,,,,,,,,,,,,,,,,,,,,,,,,,,,,,,,,,,
,,,,,,,,,,,,,,,,,5a8352feae9a0b0001a9da8f,57,2022-02-12_16h50.27.922,lexical_decision_task_DD,2021.2.3,Win32,59.80861244,,,,,,,,,,,0.736,1,,,,,,,,,,,,,,z,1,0.736,,,,,,,,-0.07421875,-0.194010417,0,0,0,,0,129,129,119,1,PAFER,LB,old,z,./images/PAFERLB.png,,,,,,,,,,,,,,,,,,,,,,,,,,,,,,,,,,,
,,,,,,,,,,,,,,,,,5a8352feae9a0b0001a9da8f,57,2022-02-12_16h50.27.922,lexical_decision_task_DD,2021.2.3,Win32,59.80861244,,,,,,,,,,,1.0705,1,,,,,,,,,,,,,,z,1,1.0705,,,,,,,,-0.07421875,-0.194010417,0,0,0,,0,130,130,160,1,VEETS,HB,old,z,./images/VEETSHB.png,,,,,,,,,,,,,,,,,,,,,,,,,,,,,,,,,,,
,,,,,,,,,,,,,,,,,5a8352feae9a0b0001a9da8f,57,2022-02-12_16h50.27.922,lexical_decision_task_DD,2021.2.3,Win32,59.80861244,,,,,,,,,,,0.8196,1,,,,,,,,,,,,,,m,1,0.8196,,,,,,,,-0.07421875,-0.194010417,0,0,0,,0,131,131,8,1,TULIP,LB,old,m,./images/TULIPLB.png,,,,,,,,,,,,,,,,,,,,,,,,,,,,,,,,,,,
,,,,,,,,,,,,,,,,,5a8352feae9a0b0001a9da8f,57,2022-02-12_16h50.27.922,lexical_decision_task_DD,2021.2.3,Win32,59.80861244,,,,,,,,,,,1.018,1,,,,,,,,,,,,,,z,1,1.018,,,,,,,,-0.07421875,-0.194010417,0,0,0,,0,132,132,162,1,LEICH,C,old,z,./images/LEICH.png,,,,,,,,,,,,,,,,,,,,,,,,,,,,,,,,,,,
,,,,,,,,,,,,,,,,,5a8352feae9a0b0001a9da8f,57,2022-02-12_16h50.27.922,lexical_decision_task_DD,2021.2.3,Win32,59.80861244,,,,,,,,,,,1.3195,1,,,,,,,,,,,,,,z,1,1.3195,,,,,,,,-0.07421875,-0.194010417,0,0,0,,0,133,133,112,1,MYING,HB,old,z,./images/MYINGHB.png,,,,,,,,,,,,,,,,,,,,,,,,,,,,,,,,,,,
,,,,,,,,,,,,,,,,,5a8352feae9a0b0001a9da8f,57,2022-02-12_16h50.27.922,lexical_decision_task_DD,2021.2.3,Win32,59.80861244,,,,,,,,,,,0.8134,1,,,,,,,,,,,,,,z,1,0.8134,,,,,,,,-0.07421875,-0.194010417,0,0,0,,0,134,134,153,1,CLUPS,C,old,z,./images/CLUPS.png,,,,,,,,,,,,,,,,,,,,,,,,,,,,,,,,,,,
,,,,,,,,,,,,,,,,,5a8352feae9a0b0001a9da8f,57,2022-02-12_16h50.27.922,lexical_decision_task_DD,2021.2.3,Win32,59.80861244,,,,,,,,,,,0.7446,1,,,,,,,,,,,,,,m,1,0.7446,,,,,,,,-0.07421875,-0.194010417,0,0,0,,0,135,135,39,1,SHELF,C,old,m,./images/SHELF.png,,,,,,,,,,,,,,,,,,,,,,,,,,,,,,,,,,,
,,,,,,,,,,,,,,,,,5a8352feae9a0b0001a9da8f,57,2022-02-12_16h50.27.922,lexical_decision_task_DD,2021.2.3,Win32,59.80861244,,,,,,,,,,,0.5945,1,,,,,,,,,,,,,,m,1,0.5945,,,,,,,,-0.07421875,-0.194010417,0,0,0,,0,136,136,48,1,SPORT,C,old,m,./images/SPORT.png,,,,,,,,,,,,,,,,,,,,,,,,,,,,,,,,,,,
,,,,,,,,,,,,,,,,,5a8352feae9a0b0001a9da8f,57,2022-02-12_16h50.27.922,lexical_decision_task_DD,2021.2.3,Win32,59.80861244,,,,,,,,,,,1.1011,1,,,,,,,,,,,,,,m,1,1.1011,,,,,,,,-0.07421875,-0.194010417,0,0,0,,0,137,137,49,1,DRUMS,HB,old,m,./images/DRUMSHB.png,,,,,,,,,,,,,,,,,,,,,,,,,,,,,,,,,,,
,,,,,,,,,,,,,,,,,5a8352feae9a0b0001a9da8f,57,2022-02-12_16h50.27.922,lexical_decision_task_DD,2021.2.3,Win32,59.80861244,,,,,,,,,,,1.6231,0,,,,,,,,,,,,,,z,0,1.6231,,,,,,,,-0.07421875,-0.194010417,0,0,0,,0,138,138,76,1,INFANT,HB,old,m,./images/INFANTHB.png,,,,,,,,,,,,,,,,,,,,,,,,,,,,,,,,,,,
,,,,,,,,,,,,,,,,,5a8352feae9a0b0001a9da8f,57,2022-02-12_16h50.27.922,lexical_decision_task_DD,2021.2.3,Win32,59.80861244,,,,,,,,,,,0.7535,1,,,,,,,,,,,,,,m,1,0.7535,,,,,,,,-0.07421875,-0.194010417,0,0,0,,0,139,139,38,1,LADDER,LB,old,m,./images/LADDERLB.png,,,,,,,,,,,,,,,,,,,,,,,,,,,,,,,,,,,
,,,,,,,,,,,,,,,,,5a8352feae9a0b0001a9da8f,57,2022-02-12_16h50.27.922,lexical_decision_task_DD,2021.2.3,Win32,59.80861244,,,,,,,,,,,0.5779,1,,,,,,,,,,,,,,m,1,0.5779,,,,,,,,-0.07421875,-0.194010417,0,0,0,,0,140,140,21,1,KIDNEY,C,old,m,./images/KIDNEY.png,,,,,,,,,,,,,,,,,,,,,,,,,,,,,,,,,,,
,,,,,,,,,,,,,,,,,5a8352feae9a0b0001a9da8f,57,2022-02-12_16h50.27.922,lexical_decision_task_DD,2021.2.3,Win32,59.80861244,,,,,,,,,,,0.4926,1,,,,,,,,,,,,,,m,1,0.4926,,,,,,,,-0.07421875,-0.194010417,0,0,0,,0,141,141,15,1,GREASE,C,old,m,./images/GREASE.png,,,,,,,,,,,,,,,,,,,,,,,,,,,,,,,,,,,
,,,,,,,,,,,,,,,,,5a8352feae9a0b0001a9da8f,57,2022-02-12_16h50.27.922,lexical_decision_task_DD,2021.2.3,Win32,59.80861244,,,,,,,,,,,0.9206,1,,,,,,,,,,,,,,z,1,0.9206,,,,,,,,-0.07421875,-0.194010417,0,0,0,,0,142,142,141,1,PLEET,C,old,z,./images/PLEET.png,,,,,,,,,,,,,,,,,,,,,,,,,,,,,,,,,,,
,,,,,,,,,,,,,,,,,5a8352feae9a0b0001a9da8f,57,2022-02-12_16h50.27.922,lexical_decision_task_DD,2021.2.3,Win32,59.80861244,,,,,,,,,,,0.9807,1,,,,,,,,,,,,,,z,1,0.9807,,,,,,,,-0.07421875,-0.194010417,0,0,0,,0,143,143,104,1,GITTY,LB,old,z,./images/GITTYLB.png,,,,,,,,,,,,,,,,,,,,,,,,,,,,,,,,,,,
,,,,,,,,,,,,,,,,,5a8352feae9a0b0001a9da8f,57,2022-02-12_16h50.27.922,lexical_decision_task_DD,2021.2.3,Win32,59.80861244,,,,,,,,,,,0.828,0,,,,,,,,,,,,,,z,0,0.828,,,,,,,,-0.07421875,-0.194010417,0,0,0,,0,144,144,72,1,NOOSE,C,old,m,./images/NOOSE.png,,,,,,,,,,,,,,,,,,,,,,,,,,,,,,,,,,,
,,,,,,,,,,,,,,,,,5a8352feae9a0b0001a9da8f,57,2022-02-12_16h50.27.922,lexical_decision_task_DD,2021.2.3,Win32,59.80861244,,,,,,,,,,,1.2341,0,,,,,,,,,,,,,,m,0,1.2341,,,,,,,,-0.07421875,-0.194010417,0,0,0,,0,145,145,132,1,SCIFF,C,old,z,./images/SCIFF.png,,,,,,,,,,,,,,,,,,,,,,,,,,,,,,,,,,,
,,,,,,,,,,,,,,,,,5a8352feae9a0b0001a9da8f,57,2022-02-12_16h50.27.922,lexical_decision_task_DD,2021.2.3,Win32,59.80861244,,,,,,,,,,,1.2148,1,,,,,,,,,,,,,,m,1,1.2148,,,,,,,,-0.07421875,-0.194010417,0,0,0,,0,146,146,70,1,URINE,HB,old,m,./images/URINEHB.png,,,,,,,,,,,,,,,,,,,,,,,,,,,,,,,,,,,
,,,,,,,,,,,,,,,,,5a8352feae9a0b0001a9da8f,57,2022-02-12_16h50.27.922,lexical_decision_task_DD,2021.2.3,Win32,59.80861244,,,,,,,,,,,0.7269,1,,,,,,,,,,,,,,m,1,0.7269,,,,,,,,-0.07421875,-0.194010417,0,0,0,,0,147,147,10,1,BELLY,HB,old,m,./images/BELLYHB.png,,,,,,,,,,,,,,,,,,,,,,,,,,,,,,,,,,,
,,,,,,,,,,,,,,,,,5a8352feae9a0b0001a9da8f,57,2022-02-12_16h50.27.922,lexical_decision_task_DD,2021.2.3,Win32,59.80861244,,,,,,,,,,,0.7787,1,,,,,,,,,,,,,,m,1,0.7787,,,,,,,,-0.07421875,-0.194010417,0,0,0,,0,148,148,57,1,MOOSE,C,old,m,./images/MOOSE.png,,,,,,,,,,,,,,,,,,,,,,,,,,,,,,,,,,,
,,,,,,,,,,,,,,,,,5a8352feae9a0b0001a9da8f,57,2022-02-12_16h50.27.922,lexical_decision_task_DD,2021.2.3,Win32,59.80861244,,,,,,,,,,,1.0347,1,,,,,,,,,,,,,,m,1,1.0347,,,,,,,,-0.07421875,-0.194010417,0,0,0,,0,149,149,19,1,DOUGH,HB,old,m,./images/DOUGHHB.png,,,,,,,,,,,,,,,,,,,,,,,,,,,,,,,,,,,
,,,,,,,,,,,,,,,,,5a8352feae9a0b0001a9da8f,57,2022-02-12_16h50.27.922,lexical_decision_task_DD,2021.2.3,Win32,59.80861244,,,,,,,,,,,0.702,1,,,,,,,,,,,,,,m,1,0.702,,,,,,,,-0.07421875,-0.194010417,0,0,0,,0,150,150,83,1,JUNGLE,LB,old,m,./images/JUNGLELB.png,,,,,,,,,,,,,,,,,,,,,,,,,,,,,,,,,,,
,,,,,,,,,,,,,,,,,5a8352feae9a0b0001a9da8f,57,2022-02-12_16h50.27.922,lexical_decision_task_DD,2021.2.3,Win32,59.80861244,,,,,,,,,,,1.043,1,,,,,,,,,,,,,,z,1,1.043,,,,,,,,-0.07421875,-0.194010417,0,0,0,,0,151,151,84,1,HAXES,C,old,z,./images/HAXES.png,,,,,,,,,,,,,,,,,,,,,,,,,,,,,,,,,,,
,,,,,,,,,,,,,,,,,5a8352feae9a0b0001a9da8f,57,2022-02-12_16h50.27.922,lexical_decision_task_DD,2021.2.3,Win32,59.80861244,,,,,,,,,,,0.9956,1,,,,,,,,,,,,,,z,1,0.9956,,,,,,,,-0.07421875,-0.194010417,0,0,0,,0,152,152,85,1,CHULK,HB,old,z,./images/CHULKHB.png,,,,,,,,,,,,,,,,,,,,,,,,,,,,,,,,,,,
,,,,,,,,,,,,,,,,,5a8352feae9a0b0001a9da8f,57,2022-02-12_16h50.27.922,lexical_decision_task_DD,2021.2.3,Win32,59.80861244,,,,,,,,,,,0.7945,1,,,,,,,,,,,,,,z,1,0.7945,,,,,,,,-0.07421875,-0.194010417,0,0,0,,0,153,153,158,1,EGECT,LB,old,z,./images/EGECTLB.png,,,,,,,,,,,,,,,,,,,,,,,,,,,,,,,,,,,
,,,,,,,,,,,,,,,,,5a8352feae9a0b0001a9da8f,57,2022-02-12_16h50.27.922,lexical_decision_task_DD,2021.2.3,Win32,59.80861244,,,,,,,,,,,0.8468,1,,,,,,,,,,,,,,z,1,0.8468,,,,,,,,-0.07421875,-0.194010417,0,0,0,,0,154,154,148,1,JOMS,HB,old,z,./images/JOMSHB.png,,,,,,,,,,,,,,,,,,,,,,,,,,,,,,,,,,,
,,,,,,,,,,,,,,,,,5a8352feae9a0b0001a9da8f,57,2022-02-12_16h50.27.922,lexical_decision_task_DD,2021.2.3,Win32,59.80861244,,,,,,,,,,,0.6776,1,,,,,,,,,,,,,,m,1,0.6776,,,,,,,,-0.07421875,-0.194010417,0,0,0,,0,155,155,71,1,PIMPLE,LB,old,m,./images/PIMPLELB.png,,,,,,,,,,,,,,,,,,,,,,,,,,,,,,,,,,,
,,,,,,,,,,,,,,,,,5a8352feae9a0b0001a9da8f,57,2022-02-12_16h50.27.922,lexical_decision_task_DD,2021.2.3,Win32,59.80861244,,,,,,,,,,,0.822,1,,,,,,,,,,,,,,z,1,0.822,,,,,,,,-0.07421875,-0.194010417,0,0,0,,0,156,156,134,1,TROSS,LB,old,z,./images/TROSSLB.png,,,,,,,,,,,,,,,,,,,,,,,,,,,,,,,,,,,
,,,,,,,,,,,,,,,,,5a8352feae9a0b0001a9da8f,57,2022-02-12_16h50.27.922,lexical_decision_task_DD,2021.2.3,Win32,59.80861244,,,,,,,,,,,0.6684,1,,,,,,,,,,,,,,m,1,0.6684,,,,,,,,-0.07421875,-0.194010417,0,0,0,,0,157,157,42,1,FOLDER,C,old,m,./images/FOLDER.png,,,,,,,,,,,,,,,,,,,,,,,,,,,,,,,,,,,
,,,,,,,,,,,,,,,,,5a8352feae9a0b0001a9da8f,57,2022-02-12_16h50.27.922,lexical_decision_task_DD,2021.2.3,Win32,59.80861244,,,,,,,,,,,0.6101,1,,,,,,,,,,,,,,m,1,0.6101,,,,,,,,-0.07421875,-0.194010417,0,0,0,,0,158,158,81,1,POODLE,C,old,m,./images/POODLE.png,,,,,,,,,,,,,,,,,,,,,,,,,,,,,,,,,,,
,,,,,,,,,,,,,,,,,5a8352feae9a0b0001a9da8f,57,2022-02-12_16h50.27.922,lexical_decision_task_DD,2021.2.3,Win32,59.80861244,,,,,,,,,,,0.987,1,,,,,,,,,,,,,,m,1,0.987,,,,,,,,-0.07421875,-0.194010417,0,0,0,,0,159,159,43,1,MOSQUE,HB,old,m,./images/MOSQUEHB.png,,,,,,,,,,,,,,,,,,,,,,,,,,,,,,,,,,,
,,,,,,,,,,,,,,,,,5a8352feae9a0b0001a9da8f,57,2022-02-12_16h50.27.922,lexical_decision_task_DD,2021.2.3,Win32,59.80861244,,,,,,,,,,,1.2542,1,,,,,,,,,,,,,,z,1,1.2542,,,,,,,,-0.07421875,-0.194010417,0,0,0,,0,160,160,139,1,BLEAR,HB,old,z,./images/BLEARHB.png,,,,,,,,,,,,,,,,,,,,,,,,,,,,,,,,,,,
,,,,,,,,,,,,,,,,,5a8352feae9a0b0001a9da8f,57,2022-02-12_16h50.27.922,lexical_decision_task_DD,2021.2.3,Win32,59.80861244,,,,,,,,,,,0.7317,1,,,,,,,,,,,,,,m,1,0.7317,,,,,,,,-0.07421875,-0.194010417,0,0,0,,0,161,161,78,1,LITTER,C,old,m,./images/LITTER.png,,,,,,,,,,,,,,,,,,,,,,,,,,,,,,,,,,,
,,,,,,,,,,,,,,,,,5a8352feae9a0b0001a9da8f,57,2022-02-12_16h50.27.922,lexical_decision_task_DD,2021.2.3,Win32,59.80861244,,,,,,,,,,,0.9197,1,,,,,,,,,,,,,,z,1,0.9197,,,,,,,,-0.07421875,-0.194010417,0,0,0,,0,162,162,133,1,POWDY,HB,old,z,./images/POWDYHB.png,,,,,,,,,,,,,,,,,,,,,,,,,,,,,,,,,,,
,,,,,,,,,,,,,,,,,5a8352feae9a0b0001a9da8f,57,2022-02-12_16h50.27.922,lexical_decision_task_DD,2021.2.3,Win32,59.80861244,,,,,,,,,,,0.5944,1,,,,,,,,,,,,,,m,1,0.5944,,,,,,,,-0.07421875,-0.194010417,0,0,0,,0,163,163,18,1,JAGUAR,C,old,m,./images/JAGUAR.png,,,,,,,,,,,,,,,,,,,,,,,,,,,,,,,,,,,
,,,,,,,,,,,,,,,,,5a8352feae9a0b0001a9da8f,57,2022-02-12_16h50.27.922,lexical_decision_task_DD,2021.2.3,Win32,59.80861244,,,,,,,,,,,0.6305,1,,,,,,,,,,,,,,m,1,0.6305,,,,,,,,-0.07421875,-0.194010417,0,0,0,,0,164,164,59,1,BURIAL,LB,old,m,./images/BURIALLB.png,,,,,,,,,,,,,,,,,,,,,,,,,,,,,,,,,,,
,,,,,,,,,,,,,,,,,5a8352feae9a0b0001a9da8f,57,2022-02-12_16h50.27.922,lexical_decision_task_DD,2021.2.3,Win32,59.80861244,,,,,,,,,,,0.9806,1,,,,,,,,,,,,,,z,1,0.9806,,,,,,,,-0.07421875,-0.194010417,0,0,0,,0,165,165,127,1,NINDY,HB,old,z,./images/NINDYHB.png,,,,,,,,,,,,,,,,,,,,,,,,,,,,,,,,,,,
,,,,,,,,,,,,,,,,,5a8352feae9a0b0001a9da8f,57,2022-02-12_16h50.27.922,lexical_decision_task_DD,2021.2.3,Win32,59.80861244,,,,,,,,,,,0.9659,1,,,,,,,,,,,,,,z,1,0.9659,,,,,,,,-0.07421875,-0.194010417,0,0,0,,0,166,166,86,1,AIFED,LB,old,z,./images/AIFEDLB.png,,,,,,,,,,,,,,,,,,,,,,,,,,,,,,,,,,,
,,,,,,,,,,,,,,,,,5a8352feae9a0b0001a9da8f,57,2022-02-12_16h50.27.922,lexical_decision_task_DD,2021.2.3,Win32,59.80861244,,,,,,,,,,,0.7137,1,,,,,,,,,,,,,,m,1,0.7137,,,,,,,,-0.07421875,-0.194010417,0,0,0,,0,167,167,64,1,JELLY,HB,old,m,./images/JELLYHB.png,,,,,,,,,,,,,,,,,,,,,,,,,,,,,,,,,,,
,,,,,,,,,,,,,,,,,5a8352feae9a0b0001a9da8f,57,2022-02-12_16h50.27.922,lexical_decision_task_DD,2021.2.3,Win32,59.80861244,,,,,,,,,,,,,,,,,,,,,,,,,,,,,,,,,,,,,,,,,,,,,,,,How likely will it be that you will recognize the words presented very blurred on a scale of 0 (not likely) to 100 (most likely)?,,,,,-0.001302083,-0.415364583,1,0,0,jol_adv,5,16.8595,0,0,0,2,1,,,,,,,,,,,,,,,,,,,,,
,,,,,,,,,,,,,,,,,5a8352feae9a0b0001a9da8f,57,2022-02-12_16h50.27.922,lexical_decision_task_DD,2021.2.3,Win32,59.80861244,,,,,,,,,,,,,,,,,,,,,,,,,,,,,,,,,,,,,,,,,,,,,,,,How likely will it be that you will recognize the words presented clearly on a scale of 0 (not likely) to 100 (most likely)?,,,,,,,,,,,5,2.3382,0,1,1,0,1,,,,,,,,,,,,,,,,,,,,,
,,,,,,,,,,,,,,,,,5a8352feae9a0b0001a9da8f,57,2022-02-12_16h50.27.922,lexical_decision_task_DD,2021.2.3,Win32,59.80861244,,,,,,,,,,,,,,,,,,,,,,,,,,,,,,,,,,,,,,,,,,,,,,,,How likely will it be that you will recognize the words presented slighly blurred on a scale of 0 (not likely) to 100 (most likely)?,,,,,,,,,,,6,12.5879,0,2,2,1,1,,,,,,,,,,,,,,,,,,,,,
space,25.5428,0.1171875,-0.260416667,0,0,0,,,,,,1,test,"In the next phase you will be presented with the words from the the first phase. Your job is to decide whether you remember seeing the word or not. If you remember seeing the word press ""old"" or type ""m"". If you do not remember seeing the word press ""new"" or type ""z"". Please press the space bar or click on continue to begin. ",,,5a8352feae9a0b0001a9da8f,57,2022-02-12_16h50.27.922,lexical_decision_task_DD,2021.2.3,Win32,59.80861244,,,,,,,,,,,,,,,,,,,,,,,,,,,,,,,,,,,,,,,,,,,,,,,,,,,,,,,,,,,,,,,,,,0,0,0,0,1,,,,,,,,,,,,,,,,
,,0.088541667,-0.408854167,1,0,0,,,,,,1,test,"In the next phase you will be presented with the words from the the first phase. Your job is to decide whether you remember seeing the word or not. If you remember seeing the word press ""old"" or type ""m"". If you do not remember seeing the word press ""new"" or type ""z"". Please press the space bar or click on continue to begin. ",,,5a8352feae9a0b0001a9da8f,57,2022-02-12_16h50.27.922,lexical_decision_task_DD,2021.2.3,Win32,59.80861244,,,,,,,,,,,,,,,,,,,,,,,,,,,,,,,,,,,,,,,,,,,,,,,,,,,,,,,,,,,,,,,,,,1,0,1,0,1,instr_done_button,,,,,,,,,,,,,,,
,,0.033854167,-0.39453125,1,0,0,,,,,,1,test,"In the next phase you will be presented with the words from the the first phase. Your job is to decide whether you remember seeing the word or not. If you remember seeing the word press ""old"" or type ""m"". If you do not remember seeing the word press ""new"" or type ""z"". Please press the space bar or click on continue to begin. ",,,5a8352feae9a0b0001a9da8f,57,2022-02-12_16h50.27.922,lexical_decision_task_DD,2021.2.3,Win32,59.80861244,,,,,,,,,,,,,,,,,,,,,,,,,,,,,,,,,,,,,,,,,,,,,,,,,,,,,,,,,,,,,,,,,,2,0,2,0,1,instr_done_button,,,,,,,,,,,,,,,
space,2.389,0.4765625,-0.3515625,0,0,0,,,,,,1,test,"In the next phase you will be presented with the words from the the first phase. Your job is to decide whether you remember seeing the word or not. If you remember seeing the word press ""old"" or type ""m"". If you do not remember seeing the word press ""new"" or type ""z"". Please press the space bar or click on continue to begin. ",,,5a8352feae9a0b0001a9da8f,57,2022-02-12_16h50.27.922,lexical_decision_task_DD,2021.2.3,Win32,59.80861244,,,,,,,,,,,,,,,,,,,,,,,,,,,,,,,,,,,,,,,,,,,,,,,,,,,,,,,,,,,,,,,,,,3,0,3,0,1,,,,,,,,,,,,,,,,
,,-0.084635417,-0.384114583,1,0,0,,,,,,1,test,"In the next phase you will be presented with the words from the the first phase. Your job is to decide whether you remember seeing the word or not. If you remember seeing the word press ""old"" or type ""m"". If you do not remember seeing the word press ""new"" or type ""z"". Please press the space bar or click on continue to begin. ",,,5a8352feae9a0b0001a9da8f,57,2022-02-12_16h50.27.922,lexical_decision_task_DD,2021.2.3,Win32,59.80861244,,,,,,,,,,,,,,,,,,,,,,,,,,,,,,,,,,,,,,,,,,,,,,,,,,,,,,,,,,,,,,,,,,4,0,4,0,1,instr_done_button,,,,,,,,,,,,,,,
,,,,,,,,,,,,,,,,,5a8352feae9a0b0001a9da8f,57,2022-02-12_16h50.27.922,lexical_decision_task_DD,2021.2.3,Win32,59.80861244,,,,,,,,,,,4.2355,0,,,,,,,,,,,,,,,,,,,,,,,,-0.59375,0.40234375,0,0,0,,,,,,,DESERT,HB,z,m,./images/DESERTHB.png,,,,,,,,,,,,,,,,,,,,,m,0,4.2355,,,,,,,,0,0,0,136,1
,,,,,,,,,,,,,,,,,5a8352feae9a0b0001a9da8f,57,2022-02-12_16h50.27.922,lexical_decision_task_DD,2021.2.3,Win32,59.80861244,,,,,,,,,,,2.0366,0,,,,,,,,,,,,,,,,,,,,,,,,-0.59375,0.40234375,0,0,0,,,,,,,HAMMER,C,z,m,./images/HAMMER.png,,,,,,,,,,,,,,,,,,,,,m,0,2.0366,,,,,,,,0,1,1,159,1
,,,,,,,,,,,,,,,,,5a8352feae9a0b0001a9da8f,57,2022-02-12_16h50.27.922,lexical_decision_task_DD,2021.2.3,Win32,59.80861244,,,,,,,,,,,0.7704,1,,,,,,,,,,,,,,,,,,,,,,,,-0.59375,0.40234375,0,0,0,,,,,,,JAGUAR,C,m,m,./images/JAGUAR.png,,,,,,,,,,,,,,,,,,,,,m,1,0.7704,,,,,,,,0,2,2,18,1
,,,,,,,,,,,,,,,,,5a8352feae9a0b0001a9da8f,57,2022-02-12_16h50.27.922,lexical_decision_task_DD,2021.2.3,Win32,59.80861244,,,,,,,,,,,1.4398,1,,,,,,,,,,,,,,,,,,,,,,,,-0.59375,0.40234375,0,0,0,,,,,,,KITTEN,C,m,m,./images/KITTEN.png,,,,,,,,,,,,,,,,,,,,,m,1,1.4398,,,,,,,,0,3,3,45,1
,,,,,,,,,,,,,,,,,5a8352feae9a0b0001a9da8f,57,2022-02-12_16h50.27.922,lexical_decision_task_DD,2021.2.3,Win32,59.80861244,,,,,,,,,,,1.3727,0,,,,,,,,,,,,,,,,,,,,,,,,-0.59375,0.40234375,0,0,0,,,,,,,JUMPER,LB,z,m,./images/JUMPERLB.png,,,,,,,,,,,,,,,,,,,,,m,0,1.3727,,,,,,,,0,4,4,158,1
,,,,,,,,,,,,,,,,,5a8352feae9a0b0001a9da8f,57,2022-02-12_16h50.27.922,lexical_decision_task_DD,2021.2.3,Win32,59.80861244,,,,,,,,,,,0.7874,1,,,,,,,,,,,,,,,,,,,,,,,,-0.59375,0.40234375,0,0,0,,,,,,,PASTA,LB,m,m,./images/PASTALB.png,,,,,,,,,,,,,,,,,,,,,m,1,0.7874,,,,,,,,0,5,5,5,1
,,,,,,,,,,,,,,,,,5a8352feae9a0b0001a9da8f,57,2022-02-12_16h50.27.922,lexical_decision_task_DD,2021.2.3,Win32,59.80861244,,,,,,,,,,,1.3062,1,,,,,,,,,,,,,,,,,,,,,,,,-0.59375,0.40234375,0,0,0,,,,,,,DIVER,C,z,m,./images/DIVER.png,,,,,,,,,,,,,,,,,,,,,z,1,1.3062,,,,,,,,0,6,6,93,1
,,,,,,,,,,,,,,,,,5a8352feae9a0b0001a9da8f,57,2022-02-12_16h50.27.922,lexical_decision_task_DD,2021.2.3,Win32,59.80861244,,,,,,,,,,,0.9881,1,,,,,,,,,,,,,,,,,,,,,,,,-0.59375,0.40234375,0,0,0,,,,,,,PEARL,HB,m,m,./images/PEARLHB.png,,,,,,,,,,,,,,,,,,,,,m,1,0.9881,,,,,,,,0,7,7,46,1
,,,,,,,,,,,,,,,,,5a8352feae9a0b0001a9da8f,57,2022-02-12_16h50.27.922,lexical_decision_task_DD,2021.2.3,Win32,59.80861244,,,,,,,,,,,1.6245,0,,,,,,,,,,,,,,,,,,,,,,,,-0.59375,0.40234375,0,0,0,,,,,,,PACKET,LB,m,m,./images/PACKETLB.png,,,,,,,,,,,,,,,,,,,,,z,0,1.6245,,,,,,,,0,8,8,56,1
,,,,,,,,,,,,,,,,,5a8352feae9a0b0001a9da8f,57,2022-02-12_16h50.27.922,lexical_decision_task_DD,2021.2.3,Win32,59.80861244,,,,,,,,,,,1.2056,1,,,,,,,,,,,,,,,,,,,,,,,,-0.59375,0.40234375,0,0,0,,,,,,,THROAT,C,m,m,./images/THROAT.png,,,,,,,,,,,,,,,,,,,,,m,1,1.2056,,,,,,,,0,9,9,36,1
,,,,,,,,,,,,,,,,,5a8352feae9a0b0001a9da8f,57,2022-02-12_16h50.27.922,lexical_decision_task_DD,2021.2.3,Win32,59.80861244,,,,,,,,,,,1.005,0,,,,,,,,,,,,,,,,,,,,,,,,-0.59375,0.40234375,0,0,0,,,,,,,WALNUT,C,z,m,./images/WALNUT.png,,,,,,,,,,,,,,,,,,,,,m,0,1.005,,,,,,,,0,10,10,84,1
,,,,,,,,,,,,,,,,,5a8352feae9a0b0001a9da8f,57,2022-02-12_16h50.27.922,lexical_decision_task_DD,2021.2.3,Win32,59.80861244,,,,,,,,,,,0.7368,0,,,,,,,,,,,,,,,,,,,,,,,,-0.59375,0.40234375,0,0,0,,,,,,,COLLAR,C,z,m,./images/COLLAR.png,,,,,,,,,,,,,,,,,,,,,m,0,0.7368,,,,,,,,0,11,11,99,1
,,,,,,,,,,,,,,,,,5a8352feae9a0b0001a9da8f,57,2022-02-12_16h50.27.922,lexical_decision_task_DD,2021.2.3,Win32,59.80861244,,,,,,,,,,,1.2391,0,,,,,,,,,,,,,,,,,,,,,,,,-0.59375,0.40234375,0,0,0,,,,,,,NOOSE,C,m,m,./images/NOOSE.png,,,,,,,,,,,,,,,,,,,,,z,0,1.2391,,,,,,,,0,12,12,72,1
,,,,,,,,,,,,,,,,,5a8352feae9a0b0001a9da8f,57,2022-02-12_16h50.27.922,lexical_decision_task_DD,2021.2.3,Win32,59.80861244,,,,,,,,,,,1.1381,1,,,,,,,,,,,,,,,,,,,,,,,,-0.59375,0.40234375,0,0,0,,,,,,,LITTER,C,m,m,./images/LITTER.png,,,,,,,,,,,,,,,,,,,,,m,1,1.1381,,,,,,,,0,13,13,78,1
,,,,,,,,,,,,,,,,,5a8352feae9a0b0001a9da8f,57,2022-02-12_16h50.27.922,lexical_decision_task_DD,2021.2.3,Win32,59.80861244,,,,,,,,,,,1.1387,0,,,,,,,,,,,,,,,,,,,,,,,,-0.59375,0.40234375,0,0,0,,,,,,,SWING,HB,m,m,./images/SWINGHB.png,,,,,,,,,,,,,,,,,,,,,z,0,1.1387,,,,,,,,0,14,14,40,1
,,,,,,,,,,,,,,,,,5a8352feae9a0b0001a9da8f,57,2022-02-12_16h50.27.922,lexical_decision_task_DD,2021.2.3,Win32,59.80861244,,,,,,,,,,,0.988,1,,,,,,,,,,,,,,,,,,,,,,,,-0.59375,0.40234375,0,0,0,,,,,,,CLOUD,LB,z,m,./images/CLOUDLB.png,,,,,,,,,,,,,,,,,,,,,z,1,0.988,,,,,,,,0,15,15,110,1
,,,,,,,,,,,,,,,,,5a8352feae9a0b0001a9da8f,57,2022-02-12_16h50.27.922,lexical_decision_task_DD,2021.2.3,Win32,59.80861244,,,,,,,,,,,1.2892,1,,,,,,,,,,,,,,,,,,,,,,,,-0.59375,0.40234375,0,0,0,,,,,,,QUILL,HB,m,m,./images/QUILLHB.png,,,,,,,,,,,,,,,,,,,,,m,1,1.2892,,,,,,,,0,16,16,31,1
,,,,,,,,,,,,,,,,,5a8352feae9a0b0001a9da8f,57,2022-02-12_16h50.27.922,lexical_decision_task_DD,2021.2.3,Win32,59.80861244,,,,,,,,,,,1.156,1,,,,,,,,,,,,,,,,,,,,,,,,-0.59375,0.40234375,0,0,0,,,,,,,STOVE,LB,z,m,./images/STOVELB.png,,,,,,,,,,,,,,,,,,,,,z,1,1.156,,,,,,,,0,17,17,86,1
,,,,,,,,,,,,,,,,,5a8352feae9a0b0001a9da8f,57,2022-02-12_16h50.27.922,lexical_decision_task_DD,2021.2.3,Win32,59.80861244,,,,,,,,,,,0.7878,1,,,,,,,,,,,,,,,,,,,,,,,,-0.59375,0.40234375,0,0,0,,,,,,,CANYON,HB,m,m,./images/CANYONHB.png,,,,,,,,,,,,,,,,,,,,,m,1,0.7878,,,,,,,,0,18,18,34,1
,,,,,,,,,,,,,,,,,5a8352feae9a0b0001a9da8f,57,2022-02-12_16h50.27.922,lexical_decision_task_DD,2021.2.3,Win32,59.80861244,,,,,,,,,,,1.022,1,,,,,,,,,,,,,,,,,,,,,,,,-0.59375,0.40234375,0,0,0,,,,,,,CRATER,C,z,m,./images/CRATER.png,,,,,,,,,,,,,,,,,,,,,z,1,1.022,,,,,,,,0,19,19,87,1
,,,,,,,,,,,,,,,,,5a8352feae9a0b0001a9da8f,57,2022-02-12_16h50.27.922,lexical_decision_task_DD,2021.2.3,Win32,59.80861244,,,,,,,,,,,0.9379,1,,,,,,,,,,,,,,,,,,,,,,,,-0.59375,0.40234375,0,0,0,,,,,,,CHERRY,C,z,m,./images/CHERRY.png,,,,,,,,,,,,,,,,,,,,,z,1,0.9379,,,,,,,,0,20,20,138,1
,,,,,,,,,,,,,,,,,5a8352feae9a0b0001a9da8f,57,2022-02-12_16h50.27.922,lexical_decision_task_DD,2021.2.3,Win32,59.80861244,,,,,,,,,,,1.3389,1,,,,,,,,,,,,,,,,,,,,,,,,-0.59375,0.40234375,0,0,0,,,,,,,BAKER,C,z,m,./images/BAKER.png,,,,,,,,,,,,,,,,,,,,,z,1,1.3389,,,,,,,,0,21,21,147,1
,,,,,,,,,,,,,,,,,5a8352feae9a0b0001a9da8f,57,2022-02-12_16h50.27.922,lexical_decision_task_DD,2021.2.3,Win32,59.80861244,,,,,,,,,,,0.7703,1,,,,,,,,,,,,,,,,,,,,,,,,-0.59375,0.40234375,0,0,0,,,,,,,BARREL,LB,m,m,./images/BARRELLB.png,,,,,,,,,,,,,,,,,,,,,m,1,0.7703,,,,,,,,0,22,22,32,1
,,,,,,,,,,,,,,,,,5a8352feae9a0b0001a9da8f,57,2022-02-12_16h50.27.922,lexical_decision_task_DD,2021.2.3,Win32,59.80861244,,,,,,,,,,,0.9712,1,,,,,,,,,,,,,,,,,,,,,,,,-0.59375,0.40234375,0,0,0,,,,,,,SUNSET,HB,m,m,./images/SUNSETHB.png,,,,,,,,,,,,,,,,,,,,,m,1,0.9712,,,,,,,,0,23,23,82,1
,,,,,,,,,,,,,,,,,5a8352feae9a0b0001a9da8f,57,2022-02-12_16h50.27.922,lexical_decision_task_DD,2021.2.3,Win32,59.80861244,,,,,,,,,,,1.0384,1,,,,,,,,,,,,,,,,,,,,,,,,-0.59375,0.40234375,0,0,0,,,,,,,SPORT,C,m,m,./images/SPORT.png,,,,,,,,,,,,,,,,,,,,,m,1,1.0384,,,,,,,,0,24,24,48,1
,,,,,,,,,,,,,,,,,5a8352feae9a0b0001a9da8f,57,2022-02-12_16h50.27.922,lexical_decision_task_DD,2021.2.3,Win32,59.80861244,,,,,,,,,,,0.9379,1,,,,,,,,,,,,,,,,,,,,,,,,-0.59375,0.40234375,0,0,0,,,,,,,LLAMA,LB,z,m,./images/LLAMALB.png,,,,,,,,,,,,,,,,,,,,,z,1,0.9379,,,,,,,,0,25,25,119,1
,,,,,,,,,,,,,,,,,5a8352feae9a0b0001a9da8f,57,2022-02-12_16h50.27.922,lexical_decision_task_DD,2021.2.3,Win32,59.80861244,,,,,,,,,,,1.7919,1,,,,,,,,,,,,,,,,,,,,,,,,-0.59375,0.40234375,0,0,0,,,,,,,TIGER,HB,z,m,./images/TIGERHB.png,,,,,,,,,,,,,,,,,,,,,z,1,1.7919,,,,,,,,0,26,26,121,1
,,,,,,,,,,,,,,,,,5a8352feae9a0b0001a9da8f,57,2022-02-12_16h50.27.922,lexical_decision_task_DD,2021.2.3,Win32,59.80861244,,,,,,,,,,,1.6746,1,,,,,,,,,,,,,,,,,,,,,,,,-0.59375,0.40234375,0,0,0,,,,,,,CANOE,HB,z,m,./images/CANOEHB.png,,,,,,,,,,,,,,,,,,,,,z,1,1.6746,,,,,,,,0,27,27,142,1
,,,,,,,,,,,,,,,,,5a8352feae9a0b0001a9da8f,57,2022-02-12_16h50.27.922,lexical_decision_task_DD,2021.2.3,Win32,59.80861244,,,,,,,,,,,0.7371,0,,,,,,,,,,,,,,,,,,,,,,,,-0.59375,0.40234375,0,0,0,,,,,,,WAGON,HB,z,m,./images/WAGONHB.png,,,,,,,,,,,,,,,,,,,,,m,0,0.7371,,,,,,,,0,28,28,91,1
,,,,,,,,,,,,,,,,,5a8352feae9a0b0001a9da8f,57,2022-02-12_16h50.27.922,lexical_decision_task_DD,2021.2.3,Win32,59.80861244,,,,,,,,,,,0.7202,0,,,,,,,,,,,,,,,,,,,,,,,,-0.59375,0.40234375,0,0,0,,,,,,,BAMBOO,LB,z,m,./images/BAMBOOLB.png,,,,,,,,,,,,,,,,,,,,,m,0,0.7202,,,,,,,,0,29,29,89,1
,,,,,,,,,,,,,,,,,5a8352feae9a0b0001a9da8f,57,2022-02-12_16h50.27.922,lexical_decision_task_DD,2021.2.3,Win32,59.80861244,,,,,,,,,,,0.8881,0,,,,,,,,,,,,,,,,,,,,,,,,-0.59375,0.40234375,0,0,0,,,,,,,PARCEL,C,z,m,./images/PARCEL.png,,,,,,,,,,,,,,,,,,,,,m,0,0.8881,,,,,,,,0,30,30,102,1
,,,,,,,,,,,,,,,,,5a8352feae9a0b0001a9da8f,57,2022-02-12_16h50.27.922,lexical_decision_task_DD,2021.2.3,Win32,59.80861244,,,,,,,,,,,1.1385,1,,,,,,,,,,,,,,,,,,,,,,,,-0.59375,0.40234375,0,0,0,,,,,,,CEMENT,LB,m,m,./images/CEMENTLB.png,,,,,,,,,,,,,,,,,,,,,m,1,1.1385,,,,,,,,0,31,31,74,1
,,,,,,,,,,,,,,,,,5a8352feae9a0b0001a9da8f,57,2022-02-12_16h50.27.922,lexical_decision_task_DD,2021.2.3,Win32,59.80861244,,,,,,,,,,,1.1725,1,,,,,,,,,,,,,,,,,,,,,,,,-0.59375,0.40234375,0,0,0,,,,,,,FLESH,C,z,m,./images/FLESH.png,,,,,,,,,,,,,,,,,,,,,z,1,1.1725,,,,,,,,0,32,32,108,1
,,,,,,,,,,,,,,,,,5a8352feae9a0b0001a9da8f,57,2022-02-12_16h50.27.922,lexical_decision_task_DD,2021.2.3,Win32,59.80861244,,,,,,,,,,,1.2225,1,,,,,,,,,,,,,,,,,,,,,,,,-0.59375,0.40234375,0,0,0,,,,,,,GLOVE,HB,z,m,./images/GLOVEHB.png,,,,,,,,,,,,,,,,,,,,,z,1,1.2225,,,,,,,,0,33,33,157,1
,,,,,,,,,,,,,,,,,5a8352feae9a0b0001a9da8f,57,2022-02-12_16h50.27.922,lexical_decision_task_DD,2021.2.3,Win32,59.80861244,,,,,,,,,,,0.7521,1,,,,,,,,,,,,,,,,,,,,,,,,-0.59375,0.40234375,0,0,0,,,,,,,BURIAL,LB,m,m,./images/BURIALLB.png,,,,,,,,,,,,,,,,,,,,,m,1,0.7521,,,,,,,,0,34,34,59,1
,,,,,,,,,,,,,,,,,5a8352feae9a0b0001a9da8f,57,2022-02-12_16h50.27.922,lexical_decision_task_DD,2021.2.3,Win32,59.80861244,,,,,,,,,,,1.1541,0,,,,,,,,,,,,,,,,,,,,,,,,-0.59375,0.40234375,0,0,0,,,,,,,BUNNY,HB,z,m,./images/BUNNYHB.png,,,,,,,,,,,,,,,,,,,,,m,0,1.1541,,,,,,,,0,35,35,97,1
,,,,,,,,,,,,,,,,,5a8352feae9a0b0001a9da8f,57,2022-02-12_16h50.27.922,lexical_decision_task_DD,2021.2.3,Win32,59.80861244,,,,,,,,,,,0.8957,1,,,,,,,,,,,,,,,,,,,,,,,,-0.59375,0.40234375,0,0,0,,,,,,,PAINT,HB,m,m,./images/PAINTHB.png,,,,,,,,,,,,,,,,,,,,,m,1,0.8957,,,,,,,,0,36,36,7,1
,,,,,,,,,,,,,,,,,5a8352feae9a0b0001a9da8f,57,2022-02-12_16h50.27.922,lexical_decision_task_DD,2021.2.3,Win32,59.80861244,,,,,,,,,,,0.6684,1,,,,,,,,,,,,,,,,,,,,,,,,-0.59375,0.40234375,0,0,0,,,,,,,WEASEL,LB,m,m,./images/WEASELLB.png,,,,,,,,,,,,,,,,,,,,,m,1,0.6684,,,,,,,,0,37,37,80,1
,,,,,,,,,,,,,,,,,5a8352feae9a0b0001a9da8f,57,2022-02-12_16h50.27.922,lexical_decision_task_DD,2021.2.3,Win32,59.80861244,,,,,,,,,,,0.7096,1,,,,,,,,,,,,,,,,,,,,,,,,-0.59375,0.40234375,0,0,0,,,,,,,PEACH,LB,m,m,./images/PEACHLB.png,,,,,,,,,,,,,,,,,,,,,m,1,0.7096,,,,,,,,0,38,38,35,1
,,,,,,,,,,,,,,,,,5a8352feae9a0b0001a9da8f,57,2022-02-12_16h50.27.922,lexical_decision_task_DD,2021.2.3,Win32,59.80861244,,,,,,,,,,,1.0671,1,,,,,,,,,,,,,,,,,,,,,,,,-0.59375,0.40234375,0,0,0,,,,,,,HOCKEY,LB,z,m,./images/HOCKEYLB.png,,,,,,,,,,,,,,,,,,,,,z,1,1.0671,,,,,,,,0,39,39,116,1
,,,,,,,,,,,,,,,,,5a8352feae9a0b0001a9da8f,57,2022-02-12_16h50.27.922,lexical_decision_task_DD,2021.2.3,Win32,59.80861244,,,,,,,,,,,0.8267,1,,,,,,,,,,,,,,,,,,,,,,,,-0.59375,0.40234375,0,0,0,,,,,,,PENCE,HB,m,m,./images/PENCEHB.png,,,,,,,,,,,,,,,,,,,,,m,1,0.8267,,,,,,,,0,40,40,16,1
,,,,,,,,,,,,,,,,,5a8352feae9a0b0001a9da8f,57,2022-02-12_16h50.27.922,lexical_decision_task_DD,2021.2.3,Win32,59.80861244,,,,,,,,,,,1.2717,1,,,,,,,,,,,,,,,,,,,,,,,,-0.59375,0.40234375,0,0,0,space,,,,,,CASINO,HB,z,m,./images/CASINOHB.png,2.1854,,,,,,,,,,,,,,,,,,,,z,1,1.2717,,,,,,,,0,41,41,112,1
,,,,,,,,,,,,,,,,,5a8352feae9a0b0001a9da8f,57,2022-02-12_16h50.27.922,lexical_decision_task_DD,2021.2.3,Win32,59.80861244,,,,,,,,,,,1.0046,1,,,,,,,,,,,,,,,,,,,,,,,,-0.59375,0.40234375,0,0,0,,,,,,,CANDLE,HB,m,m,./images/CANDLEHB.png,,,,,,,,,,,,,,,,,,,,,m,1,1.0046,,,,,,,,0,42,42,61,1
,,,,,,,,,,,,,,,,,5a8352feae9a0b0001a9da8f,57,2022-02-12_16h50.27.922,lexical_decision_task_DD,2021.2.3,Win32,59.80861244,,,,,,,,,,,1.0718,1,,,,,,,,,,,,,,,,,,,,,,,,-0.59375,0.40234375,0,0,0,,,,,,,WHEEL,LB,z,m,./images/WHEELLB.png,,,,,,,,,,,,,,,,,,,,,z,1,1.0718,,,,,,,,0,43,43,161,1
,,,,,,,,,,,,,,,,,5a8352feae9a0b0001a9da8f,57,2022-02-12_16h50.27.922,lexical_decision_task_DD,2021.2.3,Win32,59.80861244,,,,,,,,,,,0.9792,1,,,,,,,,,,,,,,,,,,,,,,,,-0.59375,0.40234375,0,0,0,,,,,,,SKIING,LB,m,m,./images/SKIINGLB.png,,,,,,,,,,,,,,,,,,,,,m,1,0.9792,,,,,,,,0,44,44,17,1
,,,,,,,,,,,,,,,,,5a8352feae9a0b0001a9da8f,57,2022-02-12_16h50.27.922,lexical_decision_task_DD,2021.2.3,Win32,59.80861244,,,,,,,,,,,1.0044,1,,,,,,,,,,,,,,,,,,,,,,,,-0.59375,0.40234375,0,0,0,,,,,,,RAZOR,HB,z,m,./images/RAZORHB.png,,,,,,,,,,,,,,,,,,,,,z,1,1.0044,,,,,,,,0,45,45,118,1
,,,,,,,,,,,,,,,,,5a8352feae9a0b0001a9da8f,57,2022-02-12_16h50.27.922,lexical_decision_task_DD,2021.2.3,Win32,59.80861244,,,,,,,,,,,1.0202,1,,,,,,,,,,,,,,,,,,,,,,,,-0.59375,0.40234375,0,0,0,,,,,,,GRANNY,LB,z,m,./images/GRANNYLB.png,,,,,,,,,,,,,,,,,,,,,z,1,1.0202,,,,,,,,0,46,46,104,1
,,,,,,,,,,,,,,,,,5a8352feae9a0b0001a9da8f,57,2022-02-12_16h50.27.922,lexical_decision_task_DD,2021.2.3,Win32,59.80861244,,,,,,,,,,,0.7685,1,,,,,,,,,,,,,,,,,,,,,,,,-0.59375,0.40234375,0,0,0,,,,,,,CARPET,LB,m,m,./images/CARPETLB.png,,,,,,,,,,,,,,,,,,,,,m,1,0.7685,,,,,,,,0,47,47,53,1
,,,,,,,,,,,,,,,,,5a8352feae9a0b0001a9da8f,57,2022-02-12_16h50.27.922,lexical_decision_task_DD,2021.2.3,Win32,59.80861244,,,,,,,,,,,0.97,1,,,,,,,,,,,,,,,,,,,,,,,,-0.59375,0.40234375,0,0,0,,,,,,,FERRY,C,z,m,./images/FERRY.png,,,,,,,,,,,,,,,,,,,,,z,1,0.97,,,,,,,,0,48,48,141,1
,,,,,,,,,,,,,,,,,5a8352feae9a0b0001a9da8f,57,2022-02-12_16h50.27.922,lexical_decision_task_DD,2021.2.3,Win32,59.80861244,,,,,,,,,,,0.7956,1,,,,,,,,,,,,,,,,,,,,,,,,-0.59375,0.40234375,0,0,0,,,,,,,PIMPLE,LB,m,m,./images/PIMPLELB.png,,,,,,,,,,,,,,,,,,,,,m,1,0.7956,,,,,,,,0,49,49,71,1
,,,,,,,,,,,,,,,,,5a8352feae9a0b0001a9da8f,57,2022-02-12_16h50.27.922,lexical_decision_task_DD,2021.2.3,Win32,59.80861244,,,,,,,,,,,0.854,0,,,,,,,,,,,,,,,,,,,,,,,,-0.59375,0.40234375,0,0,0,,,,,,,POKER,HB,z,m,./images/POKERHB.png,,,,,,,,,,,,,,,,,,,,,m,0,0.854,,,,,,,,0,50,50,151,1
,,,,,,,,,,,,,,,,,5a8352feae9a0b0001a9da8f,57,2022-02-12_16h50.27.922,lexical_decision_task_DD,2021.2.3,Win32,59.80861244,,,,,,,,,,,0.8546,1,,,,,,,,,,,,,,,,,,,,,,,,-0.59375,0.40234375,0,0,0,,,,,,,SHORE,C,m,m,./images/SHORE.png,,,,,,,,,,,,,,,,,,,,,m,1,0.8546,,,,,,,,0,51,51,12,1
,,,,,,,,,,,,,,,,,5a8352feae9a0b0001a9da8f,57,2022-02-12_16h50.27.922,lexical_decision_task_DD,2021.2.3,Win32,59.80861244,,,,,,,,,,,0.721,1,,,,,,,,,,,,,,,,,,,,,,,,-0.59375,0.40234375,0,0,0,,,,,,,SWEAT,C,m,m,./images/SWEAT.png,,,,,,,,,,,,,,,,,,,,,m,1,0.721,,,,,,,,0,52,52,66,1
,,,,,,,,,,,,,,,,,5a8352feae9a0b0001a9da8f,57,2022-02-12_16h50.27.922,lexical_decision_task_DD,2021.2.3,Win32,59.80861244,,,,,,,,,,,0.9551,1,,,,,,,,,,,,,,,,,,,,,,,,-0.59375,0.40234375,0,0,0,,,,,,,BANANA,HB,z,m,./images/BANANAHB.png,,,,,,,,,,,,,,,,,,,,,z,1,0.9551,,,,,,,,0,53,53,154,1
,,,,,,,,,,,,,,,,,5a8352feae9a0b0001a9da8f,57,2022-02-12_16h50.27.922,lexical_decision_task_DD,2021.2.3,Win32,59.80861244,,,,,,,,,,,0.9714,1,,,,,,,,,,,,,,,,,,,,,,,,-0.59375,0.40234375,0,0,0,,,,,,,BISHOP,HB,z,m,./images/BISHOPHB.png,,,,,,,,,,,,,,,,,,,,,z,1,0.9714,,,,,,,,0,54,54,133,1
,,,,,,,,,,,,,,,,,5a8352feae9a0b0001a9da8f,57,2022-02-12_16h50.27.922,lexical_decision_task_DD,2021.2.3,Win32,59.80861244,,,,,,,,,,,0.7374,0,,,,,,,,,,,,,,,,,,,,,,,,-0.59375,0.40234375,0,0,0,,,,,,,SAUCE,C,z,m,./images/SAUCE.png,,,,,,,,,,,,,,,,,,,,,m,0,0.7374,,,,,,,,0,55,55,135,1
,,,,,,,,,,,,,,,,,5a8352feae9a0b0001a9da8f,57,2022-02-12_16h50.27.922,lexical_decision_task_DD,2021.2.3,Win32,59.80861244,,,,,,,,,,,0.6199,1,,,,,,,,,,,,,,,,,,,,,,,,-0.59375,0.40234375,0,0,0,,,,,,,BONNET,LB,m,m,./images/BONNETLB.png,,,,,,,,,,,,,,,,,,,,,m,1,0.6199,,,,,,,,0,56,56,11,1
,,,,,,,,,,,,,,,,,5a8352feae9a0b0001a9da8f,57,2022-02-12_16h50.27.922,lexical_decision_task_DD,2021.2.3,Win32,59.80861244,,,,,,,,,,,0.7875,1,,,,,,,,,,,,,,,,,,,,,,,,-0.59375,0.40234375,0,0,0,,,,,,,LADDER,LB,m,m,./images/LADDERLB.png,,,,,,,,,,,,,,,,,,,,,m,1,0.7875,,,,,,,,0,57,57,38,1
,,,,,,,,,,,,,,,,,5a8352feae9a0b0001a9da8f,57,2022-02-12_16h50.27.922,lexical_decision_task_DD,2021.2.3,Win32,59.80861244,,,,,,,,,,,0.6873,1,,,,,,,,,,,,,,,,,,,,,,,,-0.59375,0.40234375,0,0,0,,,,,,,STRING,LB,m,m,./images/STRINGLB.png,,,,,,,,,,,,,,,,,,,,,m,1,0.6873,,,,,,,,0,58,58,41,1
,,,,,,,,,,,,,,,,,5a8352feae9a0b0001a9da8f,57,2022-02-12_16h50.27.922,lexical_decision_task_DD,2021.2.3,Win32,59.80861244,,,,,,,,,,,1.1223,0,,,,,,,,,,,,,,,,,,,,,,,,-0.59375,0.40234375,0,0,0,,,,,,,PLANK,HB,m,m,./images/PLANKHB.png,,,,,,,,,,,,,,,,,,,,,z,0,1.1223,,,,,,,,0,59,59,1,1
,,,,,,,,,,,,,,,,,5a8352feae9a0b0001a9da8f,57,2022-02-12_16h50.27.922,lexical_decision_task_DD,2021.2.3,Win32,59.80861244,,,,,,,,,,,1.1553,1,,,,,,,,,,,,,,,,,,,,,,,,-0.59375,0.40234375,0,0,0,,,,,,,SHELF,C,m,m,./images/SHELF.png,,,,,,,,,,,,,,,,,,,,,m,1,1.1553,,,,,,,,0,60,60,39,1
,,,,,,,,,,,,,,,,,5a8352feae9a0b0001a9da8f,57,2022-02-12_16h50.27.922,lexical_decision_task_DD,2021.2.3,Win32,59.80861244,,,,,,,,,,,1.0048,1,,,,,,,,,,,,,,,,,,,,,,,,-0.59375,0.40234375,0,0,0,,,,,,,WHISKY,LB,z,m,./images/WHISKYLB.png,,,,,,,,,,,,,,,,,,,,,z,1,1.0048,,,,,,,,0,61,61,167,1
,,,,,,,,,,,,,,,,,5a8352feae9a0b0001a9da8f,57,2022-02-12_16h50.27.922,lexical_decision_task_DD,2021.2.3,Win32,59.80861244,,,,,,,,,,,1.1551,0,,,,,,,,,,,,,,,,,,,,,,,,-0.59375,0.40234375,0,0,0,,,,,,,FINGER,C,m,m,./images/FINGER.png,,,,,,,,,,,,,,,,,,,,,z,0,1.1551,,,,,,,,0,62,62,3,1
,,,,,,,,,,,,,,,,,5a8352feae9a0b0001a9da8f,57,2022-02-12_16h50.27.922,lexical_decision_task_DD,2021.2.3,Win32,59.80861244,,,,,,,,,,,0.9055,1,,,,,,,,,,,,,,,,,,,,,,,,-0.59375,0.40234375,0,0,0,,,,,,,INFANT,HB,m,m,./images/INFANTHB.png,,,,,,,,,,,,,,,,,,,,,m,1,0.9055,,,,,,,,0,63,63,76,1
,,,,,,,,,,,,,,,,,5a8352feae9a0b0001a9da8f,57,2022-02-12_16h50.27.922,lexical_decision_task_DD,2021.2.3,Win32,59.80861244,,,,,,,,,,,0.9382,1,,,,,,,,,,,,,,,,,,,,,,,,-0.59375,0.40234375,0,0,0,,,,,,,MUMMY,HB,z,m,./images/MUMMYHB.png,,,,,,,,,,,,,,,,,,,,,z,1,0.9382,,,,,,,,0,64,64,130,1
,,,,,,,,,,,,,,,,,5a8352feae9a0b0001a9da8f,57,2022-02-12_16h50.27.922,lexical_decision_task_DD,2021.2.3,Win32,59.80861244,,,,,,,,,,,1.6915,1,,,,,,,,,,,,,,,,,,,,,,,,-0.59375,0.40234375,0,0,0,,,,,,,TOMATO,C,m,m,./images/TOMATO.png,,,,,,,,,,,,,,,,,,,,,m,1,1.6915,,,,,,,,0,65,65,0,1
,,,,,,,,,,,,,,,,,5a8352feae9a0b0001a9da8f,57,2022-02-12_16h50.27.922,lexical_decision_task_DD,2021.2.3,Win32,59.80861244,,,,,,,,,,,0.7037,1,,,,,,,,,,,,,,,,,,,,,,,,-0.59375,0.40234375,0,0,0,,,,,,,MALLET,LB,m,m,./images/MALLETLB.png,,,,,,,,,,,,,,,,,,,,,m,1,0.7037,,,,,,,,0,66,66,50,1
,,,,,,,,,,,,,,,,,5a8352feae9a0b0001a9da8f,57,2022-02-12_16h50.27.922,lexical_decision_task_DD,2021.2.3,Win32,59.80861244,,,,,,,,,,,1.0217,1,,,,,,,,,,,,,,,,,,,,,,,,-0.59375,0.40234375,0,0,0,,,,,,,CURRY,C,z,m,./images/CURRY.png,,,,,,,,,,,,,,,,,,,,,z,1,1.0217,,,,,,,,0,67,67,144,1
,,,,,,,,,,,,,,,,,5a8352feae9a0b0001a9da8f,57,2022-02-12_16h50.27.922,lexical_decision_task_DD,2021.2.3,Win32,59.80861244,,,,,,,,,,,0.9887,0,,,,,,,,,,,,,,,,,,,,,,,,-0.59375,0.40234375,0,0,0,,,,,,,DRUMS,HB,m,m,./images/DRUMSHB.png,,,,,,,,,,,,,,,,,,,,,z,0,0.9887,,,,,,,,0,68,68,49,1
,,,,,,,,,,,,,,,,,5a8352feae9a0b0001a9da8f,57,2022-02-12_16h50.27.922,lexical_decision_task_DD,2021.2.3,Win32,59.80861244,,,,,,,,,,,1.0391,1,,,,,,,,,,,,,,,,,,,,,,,,-0.59375,0.40234375,0,0,0,,,,,,,VALLEY,LB,z,m,./images/VALLEYLB.png,,,,,,,,,,,,,,,,,,,,,z,1,1.0391,,,,,,,,0,69,69,152,1
,,,,,,,,,,,,,,,,,5a8352feae9a0b0001a9da8f,57,2022-02-12_16h50.27.922,lexical_decision_task_DD,2021.2.3,Win32,59.80861244,,,,,,,,,,,0.9718,1,,,,,,,,,,,,,,,,,,,,,,,,-0.59375,0.40234375,0,0,0,,,,,,,SHIELD,C,z,m,./images/SHIELD.png,,,,,,,,,,,,,,,,,,,,,z,1,0.9718,,,,,,,,0,70,70,132,1
,,,,,,,,,,,,,,,,,5a8352feae9a0b0001a9da8f,57,2022-02-12_16h50.27.922,lexical_decision_task_DD,2021.2.3,Win32,59.80861244,,,,,,,,,,,0.8377,1,,,,,,,,,,,,,,,,,,,,,,,,-0.59375,0.40234375,0,0,0,,,,,,,DANCER,C,z,m,./images/DANCER.png,,,,,,,,,,,,,,,,,,,,,z,1,0.8377,,,,,,,,0,71,71,105,1
,,,,,,,,,,,,,,,,,5a8352feae9a0b0001a9da8f,57,2022-02-12_16h50.27.922,lexical_decision_task_DD,2021.2.3,Win32,59.80861244,,,,,,,,,,,0.9547,0,,,,,,,,,,,,,,,,,,,,,,,,-0.59375,0.40234375,0,0,0,,,,,,,TWINS,C,m,m,./images/TWINS.png,,,,,,,,,,,,,,,,,,,,,z,0,0.9547,,,,,,,,0,72,72,60,1
,,,,,,,,,,,,,,,,,5a8352feae9a0b0001a9da8f,57,2022-02-12_16h50.27.922,lexical_decision_task_DD,2021.2.3,Win32,59.80861244,,,,,,,,,,,0.7202,1,,,,,,,,,,,,,,,,,,,,,,,,-0.59375,0.40234375,0,0,0,,,,,,,CRUMB,LB,m,m,./images/CRUMBLB.png,,,,,,,,,,,,,,,,,,,,,m,1,0.7202,,,,,,,,0,73,73,29,1
,,,,,,,,,,,,,,,,,5a8352feae9a0b0001a9da8f,57,2022-02-12_16h50.27.922,lexical_decision_task_DD,2021.2.3,Win32,59.80861244,,,,,,,,,,,1.2559,1,,,,,,,,,,,,,,,,,,,,,,,,-0.59375,0.40234375,0,0,0,,,,,,,MIDGET,HB,z,m,./images/MIDGETHB.png,,,,,,,,,,,,,,,,,,,,,z,1,1.2559,,,,,,,,0,74,74,160,1
,,,,,,,,,,,,,,,,,5a8352feae9a0b0001a9da8f,57,2022-02-12_16h50.27.922,lexical_decision_task_DD,2021.2.3,Win32,59.80861244,,,,,,,,,,,1.1553,0,,,,,,,,,,,,,,,,,,,,,,,,-0.59375,0.40234375,0,0,0,,,,,,,RULER,HB,z,m,./images/RULERHB.png,,,,,,,,,,,,,,,,,,,,,m,0,1.1553,,,,,,,,0,75,75,163,1
,,,,,,,,,,,,,,,,,5a8352feae9a0b0001a9da8f,57,2022-02-12_16h50.27.922,lexical_decision_task_DD,2021.2.3,Win32,59.80861244,,,,,,,,,,,1.1389,1,,,,,,,,,,,,,,,,,,,,,,,,-0.59375,0.40234375,0,0,0,,,,,,,SPINE,LB,z,m,./images/SPINELB.png,,,,,,,,,,,,,,,,,,,,,z,1,1.1389,,,,,,,,0,76,76,149,1
,,,,,,,,,,,,,,,,,5a8352feae9a0b0001a9da8f,57,2022-02-12_16h50.27.922,lexical_decision_task_DD,2021.2.3,Win32,59.80861244,,,,,,,,,,,0.8757,1,,,,,,,,,,,,,,,,,,,,,,,,-0.59375,0.40234375,0,0,0,,,,,,,MELON,HB,m,m,./images/MELONHB.png,,,,,,,,,,,,,,,,,,,,,m,1,0.8757,,,,,,,,0,77,77,22,1
,,,,,,,,,,,,,,,,,5a8352feae9a0b0001a9da8f,57,2022-02-12_16h50.27.922,lexical_decision_task_DD,2021.2.3,Win32,59.80861244,,,,,,,,,,,0.8522,1,,,,,,,,,,,,,,,,,,,,,,,,-0.59375,0.40234375,0,0,0,,,,,,,ATTIC,C,m,m,./images/ATTIC.png,,,,,,,,,,,,,,,,,,,,,m,1,0.8522,,,,,,,,0,78,78,27,1
,,,,,,,,,,,,,,,,,5a8352feae9a0b0001a9da8f,57,2022-02-12_16h50.27.922,lexical_decision_task_DD,2021.2.3,Win32,59.80861244,,,,,,,,,,,0.8724,1,,,,,,,,,,,,,,,,,,,,,,,,-0.59375,0.40234375,0,0,0,,,,,,,CLOWN,HB,z,m,./images/CLOWNHB.png,,,,,,,,,,,,,,,,,,,,,z,1,0.8724,,,,,,,,0,79,79,106,1
,,,,,,,,,,,,,,,,,5a8352feae9a0b0001a9da8f,57,2022-02-12_16h50.27.922,lexical_decision_task_DD,2021.2.3,Win32,59.80861244,,,,,,,,,,,0.8353,1,,,,,,,,,,,,,,,,,,,,,,,,-0.59375,0.40234375,0,0,0,,,,,,,BABOON,HB,m,m,./images/BABOONHB.png,,,,,,,,,,,,,,,,,,,,,m,1,0.8353,,,,,,,,0,80,80,58,1
,,,,,,,,,,,,,,,,,5a8352feae9a0b0001a9da8f,57,2022-02-12_16h50.27.922,lexical_decision_task_DD,2021.2.3,Win32,59.80861244,,,,,,,,,,,0.7854,1,,,,,,,,,,,,,,,,,,,,,,,,-0.59375,0.40234375,0,0,0,,,,,,,JELLY,HB,m,m,./images/JELLYHB.png,,,,,,,,,,,,,,,,,,,,,m,1,0.7854,,,,,,,,0,81,81,64,1
,,,,,,,,,,,,,,,,,5a8352feae9a0b0001a9da8f,57,2022-02-12_16h50.27.922,lexical_decision_task_DD,2021.2.3,Win32,59.80861244,,,,,,,,,,,0.8982,1,,,,,,,,,,,,,,,,,,,,,,,,-0.59375,0.40234375,0,0,0,,,,,,,GRAPE,HB,z,m,./images/GRAPEHB.png,,,,,,,,,,,,,,,,,,,,,z,1,0.8982,,,,,,,,0,82,82,100,1
,,,,,,,,,,,,,,,,,5a8352feae9a0b0001a9da8f,57,2022-02-12_16h50.27.922,lexical_decision_task_DD,2021.2.3,Win32,59.80861244,,,,,,,,,,,1.3983,0,,,,,,,,,,,,,,,,,,,,,,,,-0.59375,0.40234375,0,0,0,space,,,,,,POODLE,C,m,m,./images/POODLE.png,1.6114,,,,,,,,,,,,,,,,,,,,z,0,1.3983,,,,,,,,0,83,83,81,1
,,,,,,,,,,,,,,,,,5a8352feae9a0b0001a9da8f,57,2022-02-12_16h50.27.922,lexical_decision_task_DD,2021.2.3,Win32,59.80861244,,,,,,,,,,,0.9786,0,,,,,,,,,,,,,,,,,,,,,,,,-0.59375,0.40234375,0,0,0,,,,,,,MUFFIN,HB,m,m,./images/MUFFINHB.png,,,,,,,,,,,,,,,,,,,,,z,0,0.9786,,,,,,,,0,84,84,55,1
,,,,,,,,,,,,,,,,,5a8352feae9a0b0001a9da8f,57,2022-02-12_16h50.27.922,lexical_decision_task_DD,2021.2.3,Win32,59.80861244,,,,,,,,,,,0.9883,1,,,,,,,,,,,,,,,,,,,,,,,,-0.59375,0.40234375,0,0,0,,,,,,,FOLDER,C,m,m,./images/FOLDER.png,,,,,,,,,,,,,,,,,,,,,m,1,0.9883,,,,,,,,0,85,85,42,1
,,,,,,,,,,,,,,,,,5a8352feae9a0b0001a9da8f,57,2022-02-12_16h50.27.922,lexical_decision_task_DD,2021.2.3,Win32,59.80861244,,,,,,,,,,,1.139,1,,,,,,,,,,,,,,,,,,,,,,,,-0.59375,0.40234375,0,0,0,,,,,,,CANDY,C,z,m,./images/CANDY.png,,,,,,,,,,,,,,,,,,,,,z,1,1.139,,,,,,,,0,86,86,123,1
,,,,,,,,,,,,,,,,,5a8352feae9a0b0001a9da8f,57,2022-02-12_16h50.27.922,lexical_decision_task_DD,2021.2.3,Win32,59.80861244,,,,,,,,,,,1.2395,0,,,,,,,,,,,,,,,,,,,,,,,,-0.59375,0.40234375,0,0,0,,,,,,,PURSE,LB,m,m,./images/PURSELB.png,,,,,,,,,,,,,,,,,,,,,z,0,1.2395,,,,,,,,0,87,87,62,1
,,,,,,,,,,,,,,,,,5a8352feae9a0b0001a9da8f,57,2022-02-12_16h50.27.922,lexical_decision_task_DD,2021.2.3,Win32,59.80861244,,,,,,,,,,,0.804,1,,,,,,,,,,,,,,,,,,,,,,,,-0.59375,0.40234375,0,0,0,,,,,,,DOUGH,HB,m,m,./images/DOUGHHB.png,,,,,,,,,,,,,,,,,,,,,m,1,0.804,,,,,,,,0,88,88,19,1
,,,,,,,,,,,,,,,,,5a8352feae9a0b0001a9da8f,57,2022-02-12_16h50.27.922,lexical_decision_task_DD,2021.2.3,Win32,59.80861244,,,,,,,,,,,0.9213,0,,,,,,,,,,,,,,,,,,,,,,,,-0.59375,0.40234375,0,0,0,,,,,,,GRAIN,C,m,m,./images/GRAIN.png,,,,,,,,,,,,,,,,,,,,,z,0,0.9213,,,,,,,,0,89,89,75,1
,,,,,,,,,,,,,,,,,5a8352feae9a0b0001a9da8f,57,2022-02-12_16h50.27.922,lexical_decision_task_DD,2021.2.3,Win32,59.80861244,,,,,,,,,,,1.021,1,,,,,,,,,,,,,,,,,,,,,,,,-0.59375,0.40234375,0,0,0,,,,,,,ARROW,C,z,m,./images/ARROW.png,,,,,,,,,,,,,,,,,,,,,z,1,1.021,,,,,,,,0,90,90,153,1
,,,,,,,,,,,,,,,,,5a8352feae9a0b0001a9da8f,57,2022-02-12_16h50.27.922,lexical_decision_task_DD,2021.2.3,Win32,59.80861244,,,,,,,,,,,1.0223,1,,,,,,,,,,,,,,,,,,,,,,,,-0.59375,0.40234375,0,0,0,,,,,,,FENCE,LB,z,m,./images/FENCELB.png,,,,,,,,,,,,,,,,,,,,,z,1,1.0223,,,,,,,,0,91,91,98,1
,,,,,,,,,,,,,,,,,5a8352feae9a0b0001a9da8f,57,2022-02-12_16h50.27.922,lexical_decision_task_DD,2021.2.3,Win32,59.80861244,,,,,,,,,,,0.8375,1,,,,,,,,,,,,,,,,,,,,,,,,-0.59375,0.40234375,0,0,0,,,,,,,MOSQUE,HB,m,m,./images/MOSQUEHB.png,,,,,,,,,,,,,,,,,,,,,m,1,0.8375,,,,,,,,0,92,92,43,1
,,,,,,,,,,,,,,,,,5a8352feae9a0b0001a9da8f,57,2022-02-12_16h50.27.922,lexical_decision_task_DD,2021.2.3,Win32,59.80861244,,,,,,,,,,,1.0722,1,,,,,,,,,,,,,,,,,,,,,,,,-0.59375,0.40234375,0,0,0,,,,,,,BUTTER,C,z,m,./images/BUTTER.png,,,,,,,,,,,,,,,,,,,,,z,1,1.0722,,,,,,,,0,93,93,111,1
,,,,,,,,,,,,,,,,,5a8352feae9a0b0001a9da8f,57,2022-02-12_16h50.27.922,lexical_decision_task_DD,2021.2.3,Win32,59.80861244,,,,,,,,,,,0.972,1,,,,,,,,,,,,,,,,,,,,,,,,-0.59375,0.40234375,0,0,0,,,,,,,CRUST,HB,m,m,./images/CRUSTHB.png,,,,,,,,,,,,,,,,,,,,,m,1,0.972,,,,,,,,0,94,94,79,1
,,,,,,,,,,,,,,,,,5a8352feae9a0b0001a9da8f,57,2022-02-12_16h50.27.922,lexical_decision_task_DD,2021.2.3,Win32,59.80861244,,,,,,,,,,,0.9213,1,,,,,,,,,,,,,,,,,,,,,,,,-0.59375,0.40234375,0,0,0,,,,,,,GARDEN,HB,z,m,./images/GARDENHB.png,,,,,,,,,,,,,,,,,,,,,z,1,0.9213,,,,,,,,0,95,95,94,1
,,,,,,,,,,,,,,,,,5a8352feae9a0b0001a9da8f,57,2022-02-12_16h50.27.922,lexical_decision_task_DD,2021.2.3,Win32,59.80861244,,,,,,,,,,,0.9551,1,,,,,,,,,,,,,,,,,,,,,,,,-0.59375,0.40234375,0,0,0,,,,,,,MEDAL,LB,z,m,./images/MEDALLB.png,,,,,,,,,,,,,,,,,,,,,z,1,0.9551,,,,,,,,0,96,96,95,1
,,,,,,,,,,,,,,,,,5a8352feae9a0b0001a9da8f,57,2022-02-12_16h50.27.922,lexical_decision_task_DD,2021.2.3,Win32,59.80861244,,,,,,,,,,,0.8378,1,,,,,,,,,,,,,,,,,,,,,,,,-0.59375,0.40234375,0,0,0,,,,,,,ALLEY,HB,z,m,./images/ALLEYHB.png,,,,,,,,,,,,,,,,,,,,,z,1,0.8378,,,,,,,,0,97,97,139,1
,,,,,,,,,,,,,,,,,5a8352feae9a0b0001a9da8f,57,2022-02-12_16h50.27.922,lexical_decision_task_DD,2021.2.3,Win32,59.80861244,,,,,,,,,,,1.039,0,,,,,,,,,,,,,,,,,,,,,,,,-0.59375,0.40234375,0,0,0,,,,,,,SMOKER,LB,m,m,./images/SMOKERLB.png,,,,,,,,,,,,,,,,,,,,,z,0,1.039,,,,,,,,0,98,98,26,1
,,,,,,,,,,,,,,,,,5a8352feae9a0b0001a9da8f,57,2022-02-12_16h50.27.922,lexical_decision_task_DD,2021.2.3,Win32,59.80861244,,,,,,,,,,,1.2041,1,,,,,,,,,,,,,,,,,,,,,,,,-0.59375,0.40234375,0,0,0,,,,,,,CHAIN,C,z,m,./images/CHAIN.png,,,,,,,,,,,,,,,,,,,,,z,1,1.2041,,,,,,,,0,99,99,126,1
,,,,,,,,,,,,,,,,,5a8352feae9a0b0001a9da8f,57,2022-02-12_16h50.27.922,lexical_decision_task_DD,2021.2.3,Win32,59.80861244,,,,,,,,,,,0.7204,1,,,,,,,,,,,,,,,,,,,,,,,,-0.59375,0.40234375,0,0,0,,,,,,,MAGGOT,C,m,m,./images/MAGGOT.png,,,,,,,,,,,,,,,,,,,,,m,1,0.7204,,,,,,,,0,100,100,33,1
,,,,,,,,,,,,,,,,,5a8352feae9a0b0001a9da8f,57,2022-02-12_16h50.27.922,lexical_decision_task_DD,2021.2.3,Win32,59.80861244,,,,,,,,,,,0.9379,1,,,,,,,,,,,,,,,,,,,,,,,,-0.59375,0.40234375,0,0,0,,,,,,,STOOL,HB,z,m,./images/STOOLHB.png,,,,,,,,,,,,,,,,,,,,,z,1,0.9379,,,,,,,,0,101,101,127,1
,,,,,,,,,,,,,,,,,5a8352feae9a0b0001a9da8f,57,2022-02-12_16h50.27.922,lexical_decision_task_DD,2021.2.3,Win32,59.80861244,,,,,,,,,,,0.972,0,,,,,,,,,,,,,,,,,,,,,,,,-0.59375,0.40234375,0,0,0,,,,,,,DRILL,C,z,m,./images/DRILL.png,,,,,,,,,,,,,,,,,,,,,m,0,0.972,,,,,,,,0,102,102,165,1
,,,,,,,,,,,,,,,,,5a8352feae9a0b0001a9da8f,57,2022-02-12_16h50.27.922,lexical_decision_task_DD,2021.2.3,Win32,59.80861244,,,,,,,,,,,0.752,1,,,,,,,,,,,,,,,,,,,,,,,,-0.59375,0.40234375,0,0,0,,,,,,,FARMER,LB,m,m,./images/FARMERLB.png,,,,,,,,,,,,,,,,,,,,,m,1,0.752,,,,,,,,0,103,103,65,1
,,,,,,,,,,,,,,,,,5a8352feae9a0b0001a9da8f,57,2022-02-12_16h50.27.922,lexical_decision_task_DD,2021.2.3,Win32,59.80861244,,,,,,,,,,,0.6589,1,,,,,,,,,,,,,,,,,,,,,,,,-0.59375,0.40234375,0,0,0,,,,,,,URINE,HB,m,m,./images/URINEHB.png,,,,,,,,,,,,,,,,,,,,,m,1,0.6589,,,,,,,,0,104,104,70,1
,,,,,,,,,,,,,,,,,5a8352feae9a0b0001a9da8f,57,2022-02-12_16h50.27.922,lexical_decision_task_DD,2021.2.3,Win32,59.80861244,,,,,,,,,,,0.9348,1,,,,,,,,,,,,,,,,,,,,,,,,-0.59375,0.40234375,0,0,0,,,,,,,BOXER,HB,z,m,./images/BOXERHB.png,,,,,,,,,,,,,,,,,,,,,z,1,0.9348,,,,,,,,0,105,105,88,1
,,,,,,,,,,,,,,,,,5a8352feae9a0b0001a9da8f,57,2022-02-12_16h50.27.922,lexical_decision_task_DD,2021.2.3,Win32,59.80861244,,,,,,,,,,,0.8024,1,,,,,,,,,,,,,,,,,,,,,,,,-0.59375,0.40234375,0,0,0,,,,,,,POSTER,LB,z,m,./images/POSTERLB.png,,,,,,,,,,,,,,,,,,,,,z,1,0.8024,,,,,,,,0,106,106,137,1
,,,,,,,,,,,,,,,,,5a8352feae9a0b0001a9da8f,57,2022-02-12_16h50.27.922,lexical_decision_task_DD,2021.2.3,Win32,59.80861244,,,,,,,,,,,0.7189,1,,,,,,,,,,,,,,,,,,,,,,,,-0.59375,0.40234375,0,0,0,,,,,,,SCREW,C,m,m,./images/SCREW.png,,,,,,,,,,,,,,,,,,,,,m,1,0.7189,,,,,,,,0,107,107,24,1
,,,,,,,,,,,,,,,,,5a8352feae9a0b0001a9da8f,57,2022-02-12_16h50.27.922,lexical_decision_task_DD,2021.2.3,Win32,59.80861244,,,,,,,,,,,1.0507,1,,,,,,,,,,,,,,,,,,,,,,,,-0.59375,0.40234375,0,0,0,,,,,,,CLIFF,LB,z,m,./images/CLIFFLB.png,,,,,,,,,,,,,,,,,,,,,z,1,1.0507,,,,,,,,0,108,108,92,1
,,,,,,,,,,,,,,,,,5a8352feae9a0b0001a9da8f,57,2022-02-12_16h50.27.922,lexical_decision_task_DD,2021.2.3,Win32,59.80861244,,,,,,,,,,,0.8432,1,,,,,,,,,,,,,,,,,,,,,,,,-0.59375,0.40234375,0,0,0,,,,,,,ARTIST,HB,z,m,./images/ARTISTHB.png,,,,,,,,,,,,,,,,,,,,,z,1,0.8432,,,,,,,,0,109,109,145,1
,,,,,,,,,,,,,,,,,5a8352feae9a0b0001a9da8f,57,2022-02-12_16h50.27.922,lexical_decision_task_DD,2021.2.3,Win32,59.80861244,,,,,,,,,,,1.2707,1,,,,,,,,,,,,,,,,,,,,,,,,-0.59375,0.40234375,0,0,0,,,,,,,COUCH,LB,m,m,./images/COUCHLB.png,,,,,,,,,,,,,,,,,,,,,m,1,1.2707,,,,,,,,0,110,110,77,1
,,,,,,,,,,,,,,,,,5a8352feae9a0b0001a9da8f,57,2022-02-12_16h50.27.922,lexical_decision_task_DD,2021.2.3,Win32,59.80861244,,,,,,,,,,,0.8361,0,,,,,,,,,,,,,,,,,,,,,,,,-0.59375,0.40234375,0,0,0,,,,,,,BOILER,C,z,m,./images/BOILER.png,,,,,,,,,,,,,,,,,,,,,m,0,0.8361,,,,,,,,0,111,111,120,1
,,,,,,,,,,,,,,,,,5a8352feae9a0b0001a9da8f,57,2022-02-12_16h50.27.922,lexical_decision_task_DD,2021.2.3,Win32,59.80861244,,,,,,,,,,,1.1314,1,,,,,,,,,,,,,,,,,,,,,,,,-0.59375,0.40234375,0,0,0,,,,,,,SAUNA,C,z,m,./images/SAUNA.png,,,,,,,,,,,,,,,,,,,,,z,1,1.1314,,,,,,,,0,112,112,117,1
,,,,,,,,,,,,,,,,,5a8352feae9a0b0001a9da8f,57,2022-02-12_16h50.27.922,lexical_decision_task_DD,2021.2.3,Win32,59.80861244,,,,,,,,,,,0.9034,1,,,,,,,,,,,,,,,,,,,,,,,,-0.59375,0.40234375,0,0,0,,,,,,,PEBBLE,HB,z,m,./images/PEBBLEHB.png,,,,,,,,,,,,,,,,,,,,,z,1,0.9034,,,,,,,,0,113,113,166,1
,,,,,,,,,,,,,,,,,5a8352feae9a0b0001a9da8f,57,2022-02-12_16h50.27.922,lexical_decision_task_DD,2021.2.3,Win32,59.80861244,,,,,,,,,,,0.8856,1,,,,,,,,,,,,,,,,,,,,,,,,-0.59375,0.40234375,0,0,0,,,,,,,GREASE,C,m,m,./images/GREASE.png,,,,,,,,,,,,,,,,,,,,,m,1,0.8856,,,,,,,,0,114,114,15,1
,,,,,,,,,,,,,,,,,5a8352feae9a0b0001a9da8f,57,2022-02-12_16h50.27.922,lexical_decision_task_DD,2021.2.3,Win32,59.80861244,,,,,,,,,,,1.0643,1,,,,,,,,,,,,,,,,,,,,,,,,-0.59375,0.40234375,0,0,0,,,,,,,MUSCLE,HB,m,m,./images/MUSCLEHB.png,,,,,,,,,,,,,,,,,,,,,m,1,1.0643,,,,,,,,0,115,115,4,1
,,,,,,,,,,,,,,,,,5a8352feae9a0b0001a9da8f,57,2022-02-12_16h50.27.922,lexical_decision_task_DD,2021.2.3,Win32,59.80861244,,,,,,,,,,,0.957,0,,,,,,,,,,,,,,,,,,,,,,,,-0.59375,0.40234375,0,0,0,,,,,,,FLASK,C,z,m,./images/FLASK.png,,,,,,,,,,,,,,,,,,,,,m,0,0.957,,,,,,,,0,116,116,156,1
,,,,,,,,,,,,,,,,,5a8352feae9a0b0001a9da8f,57,2022-02-12_16h50.27.922,lexical_decision_task_DD,2021.2.3,Win32,59.80861244,,,,,,,,,,,1.1262,1,,,,,,,,,,,,,,,,,,,,,,,,-0.59375,0.40234375,0,0,0,,,,,,,BRUSH,LB,z,m,./images/BRUSHLB.png,,,,,,,,,,,,,,,,,,,,,z,1,1.1262,,,,,,,,0,117,117,143,1
,,,,,,,,,,,,,,,,,5a8352feae9a0b0001a9da8f,57,2022-02-12_16h50.27.922,lexical_decision_task_DD,2021.2.3,Win32,59.80861244,,,,,,,,,,,0.8926,1,,,,,,,,,,,,,,,,,,,,,,,,-0.59375,0.40234375,0,0,0,,,,,,,STAIN,C,z,m,./images/STAIN.png,,,,,,,,,,,,,,,,,,,,,z,1,0.8926,,,,,,,,0,118,118,90,1
,,,,,,,,,,,,,,,,,5a8352feae9a0b0001a9da8f,57,2022-02-12_16h50.27.922,lexical_decision_task_DD,2021.2.3,Win32,59.80861244,,,,,,,,,,,0.7848,1,,,,,,,,,,,,,,,,,,,,,,,,-0.59375,0.40234375,0,0,0,,,,,,,BERRY,LB,m,m,./images/BERRYLB.png,,,,,,,,,,,,,,,,,,,,,m,1,0.7848,,,,,,,,0,119,119,47,1
,,,,,,,,,,,,,,,,,5a8352feae9a0b0001a9da8f,57,2022-02-12_16h50.27.922,lexical_decision_task_DD,2021.2.3,Win32,59.80861244,,,,,,,,,,,0.6486,1,,,,,,,,,,,,,,,,,,,,,,,,-0.59375,0.40234375,0,0,0,,,,,,,JUNGLE,LB,m,m,./images/JUNGLELB.png,,,,,,,,,,,,,,,,,,,,,m,1,0.6486,,,,,,,,0,120,120,83,1
,,,,,,,,,,,,,,,,,5a8352feae9a0b0001a9da8f,57,2022-02-12_16h50.27.922,lexical_decision_task_DD,2021.2.3,Win32,59.80861244,,,,,,,,,,,0.7182,1,,,,,,,,,,,,,,,,,,,,,,,,-0.59375,0.40234375,0,0,0,,,,,,,BELLY,HB,m,m,./images/BELLYHB.png,,,,,,,,,,,,,,,,,,,,,m,1,0.7182,,,,,,,,0,121,121,10,1
,,,,,,,,,,,,,,,,,5a8352feae9a0b0001a9da8f,57,2022-02-12_16h50.27.922,lexical_decision_task_DD,2021.2.3,Win32,59.80861244,,,,,,,,,,,0.9026,1,,,,,,,,,,,,,,,,,,,,,,,,-0.59375,0.40234375,0,0,0,,,,,,,STATUE,C,z,m,./images/STATUE.png,,,,,,,,,,,,,,,,,,,,,z,1,0.9026,,,,,,,,0,122,122,150,1
,,,,,,,,,,,,,,,,,5a8352feae9a0b0001a9da8f,57,2022-02-12_16h50.27.922,lexical_decision_task_DD,2021.2.3,Win32,59.80861244,,,,,,,,,,,0.9028,0,,,,,,,,,,,,,,,,,,,,,,,,-0.59375,0.40234375,0,0,0,,,,,,,WALRUS,LB,m,m,./images/WALRUSLB.png,,,,,,,,,,,,,,,,,,,,,z,0,0.9028,,,,,,,,0,123,123,23,1
,,,,,,,,,,,,,,,,,5a8352feae9a0b0001a9da8f,57,2022-02-12_16h50.27.922,lexical_decision_task_DD,2021.2.3,Win32,59.80861244,,,,,,,,,,,1.1804,1,,,,,,,,,,,,,,,,,,,,,,,,-0.59375,0.40234375,0,0,0,,,,,,,KIDNEY,C,m,m,./images/KIDNEY.png,,,,,,,,,,,,,,,,,,,,,m,1,1.1804,,,,,,,,0,124,124,21,1
,,,,,,,,,,,,,,,,,5a8352feae9a0b0001a9da8f,57,2022-02-12_16h50.27.922,lexical_decision_task_DD,2021.2.3,Win32,59.80861244,,,,,,,,,,,0.6887,1,,,,,,,,,,,,,,,,,,,,,,,,-0.59375,0.40234375,0,0,0,space,,,,,,TRIPOD,C,m,m,./images/TRIPOD.png,1.2617,,,,,,,,,,,,,,,,,,,,m,1,0.6887,,,,,,,,0,125,125,54,1
,,,,,,,,,,,,,,,,,5a8352feae9a0b0001a9da8f,57,2022-02-12_16h50.27.922,lexical_decision_task_DD,2021.2.3,Win32,59.80861244,,,,,,,,,,,0.93,1,,,,,,,,,,,,,,,,,,,,,,,,-0.59375,0.40234375,0,0,0,,,,,,,PLANET,LB,z,m,./images/PLANETLB.png,,,,,,,,,,,,,,,,,,,,,z,1,0.93,,,,,,,,0,126,126,164,1
,,,,,,,,,,,,,,,,,5a8352feae9a0b0001a9da8f,57,2022-02-12_16h50.27.922,lexical_decision_task_DD,2021.2.3,Win32,59.80861244,,,,,,,,,,,0.744,1,,,,,,,,,,,,,,,,,,,,,,,,-0.59375,0.40234375,0,0,0,,,,,,,CRADLE,LB,m,m,./images/CRADLELB.png,,,,,,,,,,,,,,,,,,,,,m,1,0.744,,,,,,,,0,127,127,20,1
,,,,,,,,,,,,,,,,,5a8352feae9a0b0001a9da8f,57,2022-02-12_16h50.27.922,lexical_decision_task_DD,2021.2.3,Win32,59.80861244,,,,,,,,,,,0.8463,1,,,,,,,,,,,,,,,,,,,,,,,,-0.59375,0.40234375,0,0,0,,,,,,,BUBBLE,LB,z,m,./images/BUBBLELB.png,,,,,,,,,,,,,,,,,,,,,z,1,0.8463,,,,,,,,0,128,128,155,1
,,,,,,,,,,,,,,,,,5a8352feae9a0b0001a9da8f,57,2022-02-12_16h50.27.922,lexical_decision_task_DD,2021.2.3,Win32,59.80861244,,,,,,,,,,,1.0244,0,,,,,,,,,,,,,,,,,,,,,,,,-0.59375,0.40234375,0,0,0,,,,,,,PILOT,LB,z,m,./images/PILOTLB.png,,,,,,,,,,,,,,,,,,,,,m,0,1.0244,,,,,,,,0,129,129,134,1
,,,,,,,,,,,,,,,,,5a8352feae9a0b0001a9da8f,57,2022-02-12_16h50.27.922,lexical_decision_task_DD,2021.2.3,Win32,59.80861244,,,,,,,,,,,0.8716,0,,,,,,,,,,,,,,,,,,,,,,,,-0.59375,0.40234375,0,0,0,,,,,,,HEATER,LB,z,m,./images/HEATERLB.png,,,,,,,,,,,,,,,,,,,,,m,0,0.8716,,,,,,,,0,130,130,140,1
,,,,,,,,,,,,,,,,,5a8352feae9a0b0001a9da8f,57,2022-02-12_16h50.27.922,lexical_decision_task_DD,2021.2.3,Win32,59.80861244,,,,,,,,,,,0.9872,1,,,,,,,,,,,,,,,,,,,,,,,,-0.59375,0.40234375,0,0,0,,,,,,,PARADE,LB,z,m,./images/PARADELB.png,,,,,,,,,,,,,,,,,,,,,z,1,0.9872,,,,,,,,0,131,131,101,1
,,,,,,,,,,,,,,,,,5a8352feae9a0b0001a9da8f,57,2022-02-12_16h50.27.922,lexical_decision_task_DD,2021.2.3,Win32,59.80861244,,,,,,,,,,,0.9527,1,,,,,,,,,,,,,,,,,,,,,,,,-0.59375,0.40234375,0,0,0,,,,,,,LAGOON,LB,z,m,./images/LAGOONLB.png,,,,,,,,,,,,,,,,,,,,,z,1,0.9527,,,,,,,,0,132,132,131,1
,,,,,,,,,,,,,,,,,5a8352feae9a0b0001a9da8f,57,2022-02-12_16h50.27.922,lexical_decision_task_DD,2021.2.3,Win32,59.80861244,,,,,,,,,,,0.7871,0,,,,,,,,,,,,,,,,,,,,,,,,-0.59375,0.40234375,0,0,0,,,,,,,BIRTH,HB,m,m,./images/BIRTHHB.png,,,,,,,,,,,,,,,,,,,,,z,0,0.7871,,,,,,,,0,133,133,37,1
,,,,,,,,,,,,,,,,,5a8352feae9a0b0001a9da8f,57,2022-02-12_16h50.27.922,lexical_decision_task_DD,2021.2.3,Win32,59.80861244,,,,,,,,,,,0.7086,1,,,,,,,,,,,,,,,,,,,,,,,,-0.59375,0.40234375,0,0,0,,,,,,,BROOM,C,z,m,./images/BROOM.png,,,,,,,,,,,,,,,,,,,,,z,1,0.7086,,,,,,,,0,134,134,162,1
,,,,,,,,,,,,,,,,,5a8352feae9a0b0001a9da8f,57,2022-02-12_16h50.27.922,lexical_decision_task_DD,2021.2.3,Win32,59.80861244,,,,,,,,,,,0.6184,1,,,,,,,,,,,,,,,,,,,,,,,,-0.59375,0.40234375,0,0,0,,,,,,,STEAK,HB,z,m,./images/STEAKHB.png,,,,,,,,,,,,,,,,,,,,,z,1,0.6184,,,,,,,,0,135,135,115,1
,,,,,,,,,,,,,,,,,5a8352feae9a0b0001a9da8f,57,2022-02-12_16h50.27.922,lexical_decision_task_DD,2021.2.3,Win32,59.80861244,,,,,,,,,,,0.7526,0,,,,,,,,,,,,,,,,,,,,,,,,-0.59375,0.40234375,0,0,0,,,,,,,MIRROR,C,m,m,./images/MIRROR.png,,,,,,,,,,,,,,,,,,,,,z,0,0.7526,,,,,,,,0,136,136,63,1
,,,,,,,,,,,,,,,,,5a8352feae9a0b0001a9da8f,57,2022-02-12_16h50.27.922,lexical_decision_task_DD,2021.2.3,Win32,59.80861244,,,,,,,,,,,0.6278,0,,,,,,,,,,,,,,,,,,,,,,,,-0.59375,0.40234375,0,0,0,,,,,,,PICKLE,LB,m,m,./images/PICKLELB.png,,,,,,,,,,,,,,,,,,,,,z,0,0.6278,,,,,,,,0,137,137,14,1
