key_resp.keys,instr_done_touch.x,instr_done_touch.y,instr_done_touch.leftButton,instr_done_touch.midButton,instr_done_touch.rightButton,instr_done_touch.clicked_name,instruction_pages.thisRepN,instruction_pages.thisTrialN,instruction_pages.thisN,instruction_pages.thisIndex,instruction_pages.ran,pageN,phase,instruct_text,has_image,instruct_image,participant,age,date,expName,psychopyVersion,OS,frameRate,key_resp.rt,response.keys,response.corr,response.rt,touch_resp.x,touch_resp.y,touch_resp.leftButton,touch_resp.midButton,touch_resp.rightButton,touch_resp.time,touch_resp.clicked_name,rt,corr,practrials.thisRepN,practrials.thisTrialN,practrials.thisN,practrials.thisIndex,practrials.ran,TrialID,Target,corrAns,end_of_practice_trials_pages.thisRepN,end_of_practice_trials_pages.thisTrialN,end_of_practice_trials_pages.thisN,end_of_practice_trials_pages.thisIndex,end_of_practice_trials_pages.ran,key_resp_2.keys,key_resp_2.corr,key_resp_2.rt,targ_click.x,targ_click.y,targ_click.leftButton,targ_click.midButton,targ_click.rightButton,targ_click.time,targ_click.clicked_name,break_done_touch.x,break_done_touch.y,break_done_touch.leftButton,break_done_touch.midButton,break_done_touch.rightButton,break_done_keyboard.keys,maintrials.thisRepN,maintrials.thisTrialN,maintrials.thisN,maintrials.thisIndex,maintrials.ran,string,blur,study,lex,stim_path,break_done_keyboard.rt,mouse_2.x,mouse_2.y,mouse_2.leftButton,mouse_2.midButton,mouse_2.rightButton,mouse_2.clicked_name,slider.response,slider.rt,trials.thisRepN,trials.thisTrialN,trials.thisN,trials.thisIndex,trials.ran,test_instructions.thisRepN,test_instructions.thisTrialN,test_instructions.thisN,test_instructions.thisIndex,test_instructions.ran,key_resp_3.keys,key_resp_3.corr,key_resp_3.rt,test_click.x,test_click.y,test_click.leftButton,test_click.midButton,test_click.rightButton,test_click.time,test_click.clicked_name,test_phase.thisRepN,test_phase.thisTrialN,test_phase.thisN,test_phase.thisIndex,test_phase.ran
,-0.062036956,-0.428703731,1,0,0,instr_done_button,0,0,0,0,1,1,instructions,"INSTRUCTIONS
At the start of each trial, look at the plus sign  (+) in the center of the screen.  This tells you that a trial is about to begin and where to look. Second, the plus sign will disappear and a string of letters will appear. Your task is to determine if the string of letters is a word or not. If the item is a word press the M key (on keyboard)  or touch the word button (phone/tablet).  If the item is not a word,  press the  Z key (on keyboard)  or touch the nonword button (on phone/tablet). 
Press the space bar or touch  continue.",0,,5a8e54c9f49c9a0001f3dc3f,29,2022-02-12_18h02.11.812,lexical_decision_task_DD,2021.2.3,Win32,60.76072427,,,,,,,,,,,,,,,,,,,,,,,,,,,,,,,,,,,,,,,,,,,,,,,,,,,,,,,,,,,,,,,,,,,,,,,,,,,,,,,,,,,,,,
,-0.015740715,-0.426851936,1,0,0,instr_done_button,0,1,1,1,1,2,instructions,"If your device has a keyboard, press the 'Z' key for nonwords and the 'M' key for words.





Press the space bar or touch the button below to continue.",0,keyboard-example.gif,5a8e54c9f49c9a0001f3dc3f,29,2022-02-12_18h02.11.812,lexical_decision_task_DD,2021.2.3,Win32,60.76072427,,,,,,,,,,,,,,,,,,,,,,,,,,,,,,,,,,,,,,,,,,,,,,,,,,,,,,,,,,,,,,,,,,,,,,,,,,,,,,,,,,,,,,
,-0.014814732,-0.426851936,1,0,0,instr_done_button,0,2,2,2,1,3,instructions,"If you are using a touchscreen only device, use the buttons on the screen. Do not use the mouse.





Press the space bar or touch the button below to continue.",0,touchscreen-example.gif,5a8e54c9f49c9a0001f3dc3f,29,2022-02-12_18h02.11.812,lexical_decision_task_DD,2021.2.3,Win32,60.76072427,,,,,,,,,,,,,,,,,,,,,,,,,,,,,,,,,,,,,,,,,,,,,,,,,,,,,,,,,,,,,,,,,,,,,,,,,,,,,,,,,,,,,,
space,0.009259286,-0.406481508,0,0,0,,0,3,3,3,1,4,instructions,"It is very important that you respond as quickly and accurately as possible, as each letter string will only be on the screen for two seconds. If you do not respond within this time, the message 'Too slow!' will be displayed and the experiment will progress to the next letter string. The first 20 trials will be practice trials and you will receive feedback on your answers. 

Press the space bar or touch the button below to start the practice trials.",0,,5a8e54c9f49c9a0001f3dc3f,29,2022-02-12_18h02.11.812,lexical_decision_task_DD,2021.2.3,Win32,60.76072427,6.8803,,,,,,,,,,,,,,,,,,,,,,,,,,,,,,,,,,,,,,,,,,,,,,,,,,,,,,,,,,,,,,,,,,,,,,,,,,,,,,,,,,,,,
,,,,,,,,,,,,,,,,,5a8e54c9f49c9a0001f3dc3f,29,2022-02-12_18h02.11.812,lexical_decision_task_DD,2021.2.3,Win32,60.76072427,,m,1,0.8184,,,,,,,,0.8184,1,0,0,0,0,1,1001,UTOPIA,m,,,,,,,,,,,,,,,,,,,,,,,,,,,,,,,,,,,,,,,,,,,,,,,,,,,,,,,,,,,,,,,,,
,,,,,,,,,,,,,,,,,5a8e54c9f49c9a0001f3dc3f,29,2022-02-12_18h02.11.812,lexical_decision_task_DD,2021.2.3,Win32,60.76072427,,z,1,0.8663,,,,,,,,0.8663,1,0,1,1,9,1,1001,FARINY,z,,,,,,,,,,,,,,,,,,,,,,,,,,,,,,,,,,,,,,,,,,,,,,,,,,,,,,,,,,,,,,,,,
,,,,,,,,,,,,,,,,,5a8e54c9f49c9a0001f3dc3f,29,2022-02-12_18h02.11.812,lexical_decision_task_DD,2021.2.3,Win32,60.76072427,,z,1,0.7475,,,,,,,,0.7475,1,0,2,2,13,1,1001,ROUPET,z,,,,,,,,,,,,,,,,,,,,,,,,,,,,,,,,,,,,,,,,,,,,,,,,,,,,,,,,,,,,,,,,,
,,,,,,,,,,,,,,,,,5a8e54c9f49c9a0001f3dc3f,29,2022-02-12_18h02.11.812,lexical_decision_task_DD,2021.2.3,Win32,60.76072427,,m,1,0.6809,,,,,,,,0.6809,1,0,3,3,5,1,1001,OBTAIN,m,,,,,,,,,,,,,,,,,,,,,,,,,,,,,,,,,,,,,,,,,,,,,,,,,,,,,,,,,,,,,,,,,
,,,,,,,,,,,,,,,,,5a8e54c9f49c9a0001f3dc3f,29,2022-02-12_18h02.11.812,lexical_decision_task_DD,2021.2.3,Win32,60.76072427,,m,1,0.6712,,,,,,,,0.6712,1,0,4,4,4,1,1001,SQUEAK,m,,,,,,,,,,,,,,,,,,,,,,,,,,,,,,,,,,,,,,,,,,,,,,,,,,,,,,,,,,,,,,,,,
,,,,,,,,,,,,,,,,,5a8e54c9f49c9a0001f3dc3f,29,2022-02-12_18h02.11.812,lexical_decision_task_DD,2021.2.3,Win32,60.76072427,,z,1,0.6062,,,,,,,,0.6062,1,0,5,5,12,1,1001,SPRINY,z,,,,,,,,,,,,,,,,,,,,,,,,,,,,,,,,,,,,,,,,,,,,,,,,,,,,,,,,,,,,,,,,,
,,,,,,,,,,,,,,,,,5a8e54c9f49c9a0001f3dc3f,29,2022-02-12_18h02.11.812,lexical_decision_task_DD,2021.2.3,Win32,60.76072427,,z,1,0.8146,,,,,,,,0.8146,1,0,6,6,8,1,1001,ASLERT,z,,,,,,,,,,,,,,,,,,,,,,,,,,,,,,,,,,,,,,,,,,,,,,,,,,,,,,,,,,,,,,,,,
,,,,,,,,,,,,,,,,,5a8e54c9f49c9a0001f3dc3f,29,2022-02-12_18h02.11.812,lexical_decision_task_DD,2021.2.3,Win32,60.76072427,,m,1,0.5692,,,,,,,,0.5692,1,0,7,7,7,1,1001,VOLUME,m,,,,,,,,,,,,,,,,,,,,,,,,,,,,,,,,,,,,,,,,,,,,,,,,,,,,,,,,,,,,,,,,,
,,,,,,,,,,,,,,,,,5a8e54c9f49c9a0001f3dc3f,29,2022-02-12_18h02.11.812,lexical_decision_task_DD,2021.2.3,Win32,60.76072427,,m,1,0.5185,,,,,,,,0.5185,1,0,8,8,2,1,1001,ALMOND,m,,,,,,,,,,,,,,,,,,,,,,,,,,,,,,,,,,,,,,,,,,,,,,,,,,,,,,,,,,,,,,,,,
,,,,,,,,,,,,,,,,,5a8e54c9f49c9a0001f3dc3f,29,2022-02-12_18h02.11.812,lexical_decision_task_DD,2021.2.3,Win32,60.76072427,,m,1,0.612,,,,,,,,0.612,1,0,9,9,6,1,1001,ZOMBIE,m,,,,,,,,,,,,,,,,,,,,,,,,,,,,,,,,,,,,,,,,,,,,,,,,,,,,,,,,,,,,,,,,,
,,,,,,,,,,,,,,,,,5a8e54c9f49c9a0001f3dc3f,29,2022-02-12_18h02.11.812,lexical_decision_task_DD,2021.2.3,Win32,60.76072427,,z,1,0.5779,,,,,,,,0.5779,1,0,10,10,14,1,1001,THRALE,z,,,,,,,,,,,,,,,,,,,,,,,,,,,,,,,,,,,,,,,,,,,,,,,,,,,,,,,,,,,,,,,,,
,,,,,,,,,,,,,,,,,5a8e54c9f49c9a0001f3dc3f,29,2022-02-12_18h02.11.812,lexical_decision_task_DD,2021.2.3,Win32,60.76072427,,z,1,0.6119,,,,,,,,0.6119,1,0,11,11,10,1,1001,INLADE,z,,,,,,,,,,,,,,,,,,,,,,,,,,,,,,,,,,,,,,,,,,,,,,,,,,,,,,,,,,,,,,,,,
,,,,,,,,,,,,,,,,,5a8e54c9f49c9a0001f3dc3f,29,2022-02-12_18h02.11.812,lexical_decision_task_DD,2021.2.3,Win32,60.76072427,,z,1,0.6436,,,,,,,,0.6436,1,0,12,12,15,1,1001,WHAISE,z,,,,,,,,,,,,,,,,,,,,,,,,,,,,,,,,,,,,,,,,,,,,,,,,,,,,,,,,,,,,,,,,,
,,,,,,,,,,,,,,,,,5a8e54c9f49c9a0001f3dc3f,29,2022-02-12_18h02.11.812,lexical_decision_task_DD,2021.2.3,Win32,60.76072427,,m,1,0.6145,,,,,,,,0.6145,1,0,13,13,1,1,1001,ADJUST,m,,,,,,,,,,,,,,,,,,,,,,,,,,,,,,,,,,,,,,,,,,,,,,,,,,,,,,,,,,,,,,,,,
,,,,,,,,,,,,,,,,,5a8e54c9f49c9a0001f3dc3f,29,2022-02-12_18h02.11.812,lexical_decision_task_DD,2021.2.3,Win32,60.76072427,,m,1,0.5778,,,,,,,,0.5778,1,0,14,14,3,1,1001,MATRIX,m,,,,,,,,,,,,,,,,,,,,,,,,,,,,,,,,,,,,,,,,,,,,,,,,,,,,,,,,,,,,,,,,,
,,,,,,,,,,,,,,,,,5a8e54c9f49c9a0001f3dc3f,29,2022-02-12_18h02.11.812,lexical_decision_task_DD,2021.2.3,Win32,60.76072427,,z,1,0.6672,,,,,,,,0.6672,1,0,15,15,11,1,1001,RASHET,z,,,,,,,,,,,,,,,,,,,,,,,,,,,,,,,,,,,,,,,,,,,,,,,,,,,,,,,,,,,,,,,,,
space,0.009259286,-0.406481508,0,0,0,,,,,,,1,end_of_practice,"You have completed the practice trials. During the experimental trials, you will not receive feedback. 
Before you begin, please ensure that you are in a comfortable and quiet location and will not be disturbed for about 15 minutes, as we cannot use your data if you do not complete all the trials. 
 When you are ready to start the experimental trials, please press space or touch the button below.",,,5a8e54c9f49c9a0001f3dc3f,29,2022-02-12_18h02.11.812,lexical_decision_task_DD,2021.2.3,Win32,60.76072427,4.9006,,,,,,,,,,,,,,,,,,,,,0,0,0,0,1,,,,,,,,,,,,,,,,,,,,,,,,,,,,,,,,,,,,,,,,,,,,,,,,,,,,,,,,,,,,
,,,,,,,,,,,,,,,,,5a8e54c9f49c9a0001f3dc3f,29,2022-02-12_18h02.11.812,lexical_decision_task_DD,2021.2.3,Win32,60.76072427,,,,,,,,,,,,0.9022,1,,,,,,,,,,,,,,m,1,0.9022,,,,,,,,0.009259286,-0.406481508,0,0,0,,0,0,0,32,1,BARREL,LB,old,m,./images/BARRELLB.png,,,,,,,,,,,,,,,,,,,,,,,,,,,,,,,,,,
,,,,,,,,,,,,,,,,,5a8e54c9f49c9a0001f3dc3f,29,2022-02-12_18h02.11.812,lexical_decision_task_DD,2021.2.3,Win32,60.76072427,,,,,,,,,,,,0.8191,1,,,,,,,,,,,,,,z,1,0.8191,,,,,,,,0.009259286,-0.406481508,0,0,0,,0,1,1,134,1,TROSS,LB,old,z,./images/TROSSLB.png,,,,,,,,,,,,,,,,,,,,,,,,,,,,,,,,,,
,,,,,,,,,,,,,,,,,5a8e54c9f49c9a0001f3dc3f,29,2022-02-12_18h02.11.812,lexical_decision_task_DD,2021.2.3,Win32,60.76072427,,,,,,,,,,,,0.6449,1,,,,,,,,,,,,,,m,1,0.6449,,,,,,,,0.009259286,-0.406481508,0,0,0,,0,2,2,80,1,WEASEL,LB,old,m,./images/WEASELLB.png,,,,,,,,,,,,,,,,,,,,,,,,,,,,,,,,,,
,,,,,,,,,,,,,,,,,5a8e54c9f49c9a0001f3dc3f,29,2022-02-12_18h02.11.812,lexical_decision_task_DD,2021.2.3,Win32,60.76072427,,,,,,,,,,,,0.8684,1,,,,,,,,,,,,,,m,1,0.8684,,,,,,,,0.009259286,-0.406481508,0,0,0,,0,3,3,1,1,PLANK,HB,old,m,./images/PLANKHB.png,,,,,,,,,,,,,,,,,,,,,,,,,,,,,,,,,,
,,,,,,,,,,,,,,,,,5a8e54c9f49c9a0001f3dc3f,29,2022-02-12_18h02.11.812,lexical_decision_task_DD,2021.2.3,Win32,60.76072427,,,,,,,,,,,,0.909,1,,,,,,,,,,,,,,z,1,0.909,,,,,,,,0.009259286,-0.406481508,0,0,0,,0,4,4,88,1,GLUSH,HB,old,z,./images/GLUSHHB.png,,,,,,,,,,,,,,,,,,,,,,,,,,,,,,,,,,
,,,,,,,,,,,,,,,,,5a8e54c9f49c9a0001f3dc3f,29,2022-02-12_18h02.11.812,lexical_decision_task_DD,2021.2.3,Win32,60.76072427,,,,,,,,,,,,0.6857,1,,,,,,,,,,,,,,m,1,0.6857,,,,,,,,0.009259286,-0.406481508,0,0,0,,0,5,5,74,1,CEMENT,LB,old,m,./images/CEMENTLB.png,,,,,,,,,,,,,,,,,,,,,,,,,,,,,,,,,,
,,,,,,,,,,,,,,,,,5a8e54c9f49c9a0001f3dc3f,29,2022-02-12_18h02.11.812,lexical_decision_task_DD,2021.2.3,Win32,60.76072427,,,,,,,,,,,,0.6303,1,,,,,,,,,,,,,,z,1,0.6303,,,,,,,,0.009259286,-0.406481508,0,0,0,,0,6,6,150,1,NOOLS,C,old,z,./images/NOOLS.png,,,,,,,,,,,,,,,,,,,,,,,,,,,,,,,,,,
,,,,,,,,,,,,,,,,,5a8e54c9f49c9a0001f3dc3f,29,2022-02-12_18h02.11.812,lexical_decision_task_DD,2021.2.3,Win32,60.76072427,,,,,,,,,,,,0.5095,1,,,,,,,,,,,,,,z,1,0.5095,,,,,,,,0.009259286,-0.406481508,0,0,0,,0,7,7,96,1,KEAMS,C,old,z,./images/KEAMS.png,,,,,,,,,,,,,,,,,,,,,,,,,,,,,,,,,,
,,,,,,,,,,,,,,,,,5a8e54c9f49c9a0001f3dc3f,29,2022-02-12_18h02.11.812,lexical_decision_task_DD,2021.2.3,Win32,60.76072427,,,,,,,,,,,,0.8699,1,,,,,,,,,,,,,,m,1,0.8699,,,,,,,,0.009259286,-0.406481508,0,0,0,,0,8,8,49,1,DRUMS,HB,old,m,./images/DRUMSHB.png,,,,,,,,,,,,,,,,,,,,,,,,,,,,,,,,,,
,,,,,,,,,,,,,,,,,5a8e54c9f49c9a0001f3dc3f,29,2022-02-12_18h02.11.812,lexical_decision_task_DD,2021.2.3,Win32,60.76072427,,,,,,,,,,,,0.7951,1,,,,,,,,,,,,,,m,1,0.7951,,,,,,,,0.009259286,-0.406481508,0,0,0,,0,9,9,9,1,RHINO,C,old,m,./images/RHINO.png,,,,,,,,,,,,,,,,,,,,,,,,,,,,,,,,,,
,,,,,,,,,,,,,,,,,5a8e54c9f49c9a0001f3dc3f,29,2022-02-12_18h02.11.812,lexical_decision_task_DD,2021.2.3,Win32,60.76072427,,,,,,,,,,,,0.6441,1,,,,,,,,,,,,,,z,1,0.6441,,,,,,,,0.009259286,-0.406481508,0,0,0,,0,10,10,122,1,BLOOT,LB,old,z,./images/BLOOTLB.png,,,,,,,,,,,,,,,,,,,,,,,,,,,,,,,,,,
,,,,,,,,,,,,,,,,,5a8e54c9f49c9a0001f3dc3f,29,2022-02-12_18h02.11.812,lexical_decision_task_DD,2021.2.3,Win32,60.76072427,,,,,,,,,,,,0.6668,1,,,,,,,,,,,,,,z,1,0.6668,,,,,,,,0.009259286,-0.406481508,0,0,0,,0,11,11,128,1,GRIFT,LB,old,z,./images/GRIFTLB.png,,,,,,,,,,,,,,,,,,,,,,,,,,,,,,,,,,
,,,,,,,,,,,,,,,,,5a8e54c9f49c9a0001f3dc3f,29,2022-02-12_18h02.11.812,lexical_decision_task_DD,2021.2.3,Win32,60.76072427,,,,,,,,,,,,0.6304,1,,,,,,,,,,,,,,z,1,0.6304,,,,,,,,0.009259286,-0.406481508,0,0,0,,0,12,12,152,1,FRAIN,LB,old,z,./images/FRAINLB.png,,,,,,,,,,,,,,,,,,,,,,,,,,,,,,,,,,
,,,,,,,,,,,,,,,,,5a8e54c9f49c9a0001f3dc3f,29,2022-02-12_18h02.11.812,lexical_decision_task_DD,2021.2.3,Win32,60.76072427,,,,,,,,,,,,0.6476,1,,,,,,,,,,,,,,z,1,0.6476,,,,,,,,0.009259286,-0.406481508,0,0,0,,0,13,13,129,1,PRANS,C,old,z,./images/PRANS.png,,,,,,,,,,,,,,,,,,,,,,,,,,,,,,,,,,
,,,,,,,,,,,,,,,,,5a8e54c9f49c9a0001f3dc3f,29,2022-02-12_18h02.11.812,lexical_decision_task_DD,2021.2.3,Win32,60.76072427,,,,,,,,,,,,0.5517,1,,,,,,,,,,,,,,m,1,0.5517,,,,,,,,0.009259286,-0.406481508,0,0,0,,0,14,14,62,1,PURSE,LB,old,m,./images/PURSELB.png,,,,,,,,,,,,,,,,,,,,,,,,,,,,,,,,,,
,,,,,,,,,,,,,,,,,5a8e54c9f49c9a0001f3dc3f,29,2022-02-12_18h02.11.812,lexical_decision_task_DD,2021.2.3,Win32,60.76072427,,,,,,,,,,,,0.7274,1,,,,,,,,,,,,,,m,1,0.7274,,,,,,,,0.009259286,-0.406481508,0,0,0,,0,15,15,4,1,MUSCLE,HB,old,m,./images/MUSCLEHB.png,,,,,,,,,,,,,,,,,,,,,,,,,,,,,,,,,,
,,,,,,,,,,,,,,,,,5a8e54c9f49c9a0001f3dc3f,29,2022-02-12_18h02.11.812,lexical_decision_task_DD,2021.2.3,Win32,60.76072427,,,,,,,,,,,,1.0621,0,,,,,,,,,,,,,,m,0,1.0621,,,,,,,,0.009259286,-0.406481508,0,0,0,,0,16,16,110,1,CRUNK,LB,old,z,./images/CRUNKLB.png,,,,,,,,,,,,,,,,,,,,,,,,,,,,,,,,,,
,,,,,,,,,,,,,,,,,5a8e54c9f49c9a0001f3dc3f,29,2022-02-12_18h02.11.812,lexical_decision_task_DD,2021.2.3,Win32,60.76072427,,,,,,,,,,,,0.7097,1,,,,,,,,,,,,,,z,1,0.7097,,,,,,,,0.009259286,-0.406481508,0,0,0,,0,17,17,144,1,NAIRY,C,old,z,./images/NAIRY.png,,,,,,,,,,,,,,,,,,,,,,,,,,,,,,,,,,
,,,,,,,,,,,,,,,,,5a8e54c9f49c9a0001f3dc3f,29,2022-02-12_18h02.11.812,lexical_decision_task_DD,2021.2.3,Win32,60.76072427,,,,,,,,,,,,1.0813,1,,,,,,,,,,,,,,z,1,1.0813,,,,,,,,0.009259286,-0.406481508,0,0,0,,0,18,18,124,1,TUNCH,HB,old,z,./images/TUNCHHB.png,,,,,,,,,,,,,,,,,,,,,,,,,,,,,,,,,,
,,,,,,,,,,,,,,,,,5a8e54c9f49c9a0001f3dc3f,29,2022-02-12_18h02.11.812,lexical_decision_task_DD,2021.2.3,Win32,60.76072427,,,,,,,,,,,,0.6606,1,,,,,,,,,,,,,,z,1,0.6606,,,,,,,,0.009259286,-0.406481508,0,0,0,,0,19,19,138,1,PLICE,C,old,z,./images/PLICE.png,,,,,,,,,,,,,,,,,,,,,,,,,,,,,,,,,,
,,,,,,,,,,,,,,,,,5a8e54c9f49c9a0001f3dc3f,29,2022-02-12_18h02.11.812,lexical_decision_task_DD,2021.2.3,Win32,60.76072427,,,,,,,,,,,,0.6075,1,,,,,,,,,,,,,,m,1,0.6075,,,,,,,,0.009259286,-0.406481508,0,0,0,,0,20,20,66,1,SWEAT,C,old,m,./images/SWEAT.png,,,,,,,,,,,,,,,,,,,,,,,,,,,,,,,,,,
,,,,,,,,,,,,,,,,,5a8e54c9f49c9a0001f3dc3f,29,2022-02-12_18h02.11.812,lexical_decision_task_DD,2021.2.3,Win32,60.76072427,,,,,,,,,,,,0.6769,1,,,,,,,,,,,,,,z,1,0.6769,,,,,,,,0.009259286,-0.406481508,0,0,0,,0,21,21,147,1,ZOLES,C,old,z,./images/ZOLES.png,,,,,,,,,,,,,,,,,,,,,,,,,,,,,,,,,,
,,,,,,,,,,,,,,,,,5a8e54c9f49c9a0001f3dc3f,29,2022-02-12_18h02.11.812,lexical_decision_task_DD,2021.2.3,Win32,60.76072427,,,,,,,,,,,,0.6444,1,,,,,,,,,,,,,,z,1,0.6444,,,,,,,,0.009259286,-0.406481508,0,0,0,,0,22,22,111,1,HOSSE,C,old,z,./images/HOSSE.png,,,,,,,,,,,,,,,,,,,,,,,,,,,,,,,,,,
,,,,,,,,,,,,,,,,,5a8e54c9f49c9a0001f3dc3f,29,2022-02-12_18h02.11.812,lexical_decision_task_DD,2021.2.3,Win32,60.76072427,,,,,,,,,,,,1.2741,1,,,,,,,,,,,,,,z,1,1.2741,,,,,,,,0.009259286,-0.406481508,0,0,0,,0,23,23,123,1,SEDGE,C,old,z,./images/SEDGE.png,,,,,,,,,,,,,,,,,,,,,,,,,,,,,,,,,,
,,,,,,,,,,,,,,,,,5a8e54c9f49c9a0001f3dc3f,29,2022-02-12_18h02.11.812,lexical_decision_task_DD,2021.2.3,Win32,60.76072427,,,,,,,,,,,,0.5974,1,,,,,,,,,,,,,,m,1,0.5974,,,,,,,,0.009259286,-0.406481508,0,0,0,,0,24,24,39,1,SHELF,C,old,m,./images/SHELF.png,,,,,,,,,,,,,,,,,,,,,,,,,,,,,,,,,,
,,,,,,,,,,,,,,,,,5a8e54c9f49c9a0001f3dc3f,29,2022-02-12_18h02.11.812,lexical_decision_task_DD,2021.2.3,Win32,60.76072427,,,,,,,,,,,,0.6457,1,,,,,,,,,,,,,,z,1,0.6457,,,,,,,,0.009259286,-0.406481508,0,0,0,,0,25,25,98,1,BAMPS,LB,old,z,./images/BAMPSLB.png,,,,,,,,,,,,,,,,,,,,,,,,,,,,,,,,,,
,,,,,,,,,,,,,,,,,5a8e54c9f49c9a0001f3dc3f,29,2022-02-12_18h02.11.812,lexical_decision_task_DD,2021.2.3,Win32,60.76072427,,,,,,,,,,,,1.077,1,,,,,,,,,,,,,,m,1,1.077,,,,,,,,0.009259286,-0.406481508,0,0,0,,0,26,26,22,1,MELON,HB,old,m,./images/MELONHB.png,,,,,,,,,,,,,,,,,,,,,,,,,,,,,,,,,,
,,,,,,,,,,,,,,,,,5a8e54c9f49c9a0001f3dc3f,29,2022-02-12_18h02.11.812,lexical_decision_task_DD,2021.2.3,Win32,60.76072427,,,,,,,,,,,,0.6593,1,,,,,,,,,,,,,,m,1,0.6593,,,,,,,,0.009259286,-0.406481508,0,0,0,,0,27,27,35,1,PEACH,LB,old,m,./images/PEACHLB.png,,,,,,,,,,,,,,,,,,,,,,,,,,,,,,,,,,
,,,,,,,,,,,,,,,,,5a8e54c9f49c9a0001f3dc3f,29,2022-02-12_18h02.11.812,lexical_decision_task_DD,2021.2.3,Win32,60.76072427,,,,,,,,,,,,0.5363,1,,,,,,,,,,,,,,z,1,0.5363,,,,,,,,0.009259286,-0.406481508,0,0,0,,0,28,28,135,1,JOODY,C,old,z,./images/JOODY.png,,,,,,,,,,,,,,,,,,,,,,,,,,,,,,,,,,
,,,,,,,,,,,,,,,,,5a8e54c9f49c9a0001f3dc3f,29,2022-02-12_18h02.11.812,lexical_decision_task_DD,2021.2.3,Win32,60.76072427,,,,,,,,,,,,0.7595,1,,,,,,,,,,,,,,z,1,0.7595,,,,,,,,0.009259286,-0.406481508,0,0,0,,0,29,29,136,1,WERVE,HB,old,z,./images/WERVEHB.png,,,,,,,,,,,,,,,,,,,,,,,,,,,,,,,,,,
,,,,,,,,,,,,,,,,,5a8e54c9f49c9a0001f3dc3f,29,2022-02-12_18h02.11.812,lexical_decision_task_DD,2021.2.3,Win32,60.76072427,,,,,,,,,,,,0.8368,1,,,,,,,,,,,,,,m,1,0.8368,,,,,,,,0.009259286,-0.406481508,0,0,0,,0,30,30,82,1,SUNSET,HB,old,m,./images/SUNSETHB.png,,,,,,,,,,,,,,,,,,,,,,,,,,,,,,,,,,
,,,,,,,,,,,,,,,,,5a8e54c9f49c9a0001f3dc3f,29,2022-02-12_18h02.11.812,lexical_decision_task_DD,2021.2.3,Win32,60.76072427,,,,,,,,,,,,0.7963,1,,,,,,,,,,,,,,m,1,0.7963,,,,,,,,0.009259286,-0.406481508,0,0,0,,0,31,31,59,1,BURIAL,LB,old,m,./images/BURIALLB.png,,,,,,,,,,,,,,,,,,,,,,,,,,,,,,,,,,
,,,,,,,,,,,,,,,,,5a8e54c9f49c9a0001f3dc3f,29,2022-02-12_18h02.11.812,lexical_decision_task_DD,2021.2.3,Win32,60.76072427,,,,,,,,,,,,0.7957,1,,,,,,,,,,,,,,z,1,0.7957,,,,,,,,0.009259286,-0.406481508,0,0,0,,0,32,32,100,1,DRIBS,HB,old,z,./images/DRIBSHB.png,,,,,,,,,,,,,,,,,,,,,,,,,,,,,,,,,,
,,,,,,,,,,,,,,,,,5a8e54c9f49c9a0001f3dc3f,29,2022-02-12_18h02.11.812,lexical_decision_task_DD,2021.2.3,Win32,60.76072427,,,,,,,,,,,,0.6123,1,,,,,,,,,,,,,,z,1,0.6123,,,,,,,,0.009259286,-0.406481508,0,0,0,,0,33,33,101,1,GLEET,LB,old,z,./images/GLEETLB.png,,,,,,,,,,,,,,,,,,,,,,,,,,,,,,,,,,
,,,,,,,,,,,,,,,,,5a8e54c9f49c9a0001f3dc3f,29,2022-02-12_18h02.11.812,lexical_decision_task_DD,2021.2.3,Win32,60.76072427,,,,,,,,,,,,0.7264,1,,,,,,,,,,,,,,z,1,0.7264,,,,,,,,0.009259286,-0.406481508,0,0,0,,0,34,34,160,1,VEETS,HB,old,z,./images/VEETSHB.png,,,,,,,,,,,,,,,,,,,,,,,,,,,,,,,,,,
,,,,,,,,,,,,,,,,,5a8e54c9f49c9a0001f3dc3f,29,2022-02-12_18h02.11.812,lexical_decision_task_DD,2021.2.3,Win32,60.76072427,,,,,,,,,,,,0.5518,1,,,,,,,,,,,,,,m,1,0.5518,,,,,,,,0.009259286,-0.406481508,0,0,0,,0,35,35,71,1,PIMPLE,LB,old,m,./images/PIMPLELB.png,,,,,,,,,,,,,,,,,,,,,,,,,,,,,,,,,,
,,,,,,,,,,,,,,,,,5a8e54c9f49c9a0001f3dc3f,29,2022-02-12_18h02.11.812,lexical_decision_task_DD,2021.2.3,Win32,60.76072427,,,,,,,,,,,,0.58,1,,,,,,,,,,,,,,z,1,0.58,,,,,,,,0.009259286,-0.406481508,0,0,0,,0,36,36,108,1,GRUET,C,old,z,./images/GRUET.png,,,,,,,,,,,,,,,,,,,,,,,,,,,,,,,,,,
,,,,,,,,,,,,,,,,,5a8e54c9f49c9a0001f3dc3f,29,2022-02-12_18h02.11.812,lexical_decision_task_DD,2021.2.3,Win32,60.76072427,,,,,,,,,,,,0.7258,1,,,,,,,,,,,,,,m,1,0.7258,,,,,,,,0.009259286,-0.406481508,0,0,0,,0,37,37,40,1,SWING,HB,old,m,./images/SWINGHB.png,,,,,,,,,,,,,,,,,,,,,,,,,,,,,,,,,,
,,,,,,,,,,,,,,,,,5a8e54c9f49c9a0001f3dc3f,29,2022-02-12_18h02.11.812,lexical_decision_task_DD,2021.2.3,Win32,60.76072427,,,,,,,,,,,,0.4962,1,,,,,,,,,,,,,,m,1,0.4962,,,,,,,,0.009259286,-0.406481508,0,0,0,,0,38,38,29,1,CRUMB,LB,old,m,./images/CRUMBLB.png,,,,,,,,,,,,,,,,,,,,,,,,,,,,,,,,,,
,,,,,,,,,,,,,,,,,5a8e54c9f49c9a0001f3dc3f,29,2022-02-12_18h02.11.812,lexical_decision_task_DD,2021.2.3,Win32,60.76072427,,,,,,,,,,,,0.5107,1,,,,,,,,,,,,,,z,1,0.5107,,,,,,,,0.009259286,-0.406481508,0,0,0,,0,39,39,120,1,RINED,C,old,z,./images/RINED.png,,,,,,,,,,,,,,,,,,,,,,,,,,,,,,,,,,
,,,,,,,,,,,,,,,,,5a8e54c9f49c9a0001f3dc3f,29,2022-02-12_18h02.11.812,lexical_decision_task_DD,2021.2.3,Win32,60.76072427,,,,,,,,,,,,0.7795,0,,,,,,,,,,,,,,m,0,0.7795,,,,,,,,0.009259286,-0.406481508,0,0,0,,0,40,40,142,1,PLASK,HB,old,z,./images/PLASKHB.png,,,,,,,,,,,,,,,,,,,,,,,,,,,,,,,,,,
,,,,,,,,,,,,,,,,,5a8e54c9f49c9a0001f3dc3f,29,2022-02-12_18h02.11.812,lexical_decision_task_DD,2021.2.3,Win32,60.76072427,,,,,,,,,,,,0.5394,1,,,,,,,,,,,,,,m,1,0.5394,,,,,,,,0.009259286,-0.406481508,0,0,0,space,0,41,41,83,1,JUNGLE,LB,old,m,./images/JUNGLELB.png,5.844,,,,,,,,,,,,,,,,,,,,,,,,,,,,,,,,,
,,,,,,,,,,,,,,,,,5a8e54c9f49c9a0001f3dc3f,29,2022-02-12_18h02.11.812,lexical_decision_task_DD,2021.2.3,Win32,60.76072427,,,,,,,,,,,,0.7348,1,,,,,,,,,,,,,,z,1,0.7348,,,,,,,,0.009259286,-0.406481508,0,0,0,,0,42,42,118,1,BAVEL,HB,old,z,./images/BAVELHB.png,,,,,,,,,,,,,,,,,,,,,,,,,,,,,,,,,,
,,,,,,,,,,,,,,,,,5a8e54c9f49c9a0001f3dc3f,29,2022-02-12_18h02.11.812,lexical_decision_task_DD,2021.2.3,Win32,60.76072427,,,,,,,,,,,,0.8413,1,,,,,,,,,,,,,,m,1,0.8413,,,,,,,,0.009259286,-0.406481508,0,0,0,,0,43,43,37,1,BIRTH,HB,old,m,./images/BIRTHHB.png,,,,,,,,,,,,,,,,,,,,,,,,,,,,,,,,,,
,,,,,,,,,,,,,,,,,5a8e54c9f49c9a0001f3dc3f,29,2022-02-12_18h02.11.812,lexical_decision_task_DD,2021.2.3,Win32,60.76072427,,,,,,,,,,,,1.0961,1,,,,,,,,,,,,,,m,1,1.0961,,,,,,,,0.009259286,-0.406481508,0,0,0,,0,44,44,67,1,SAILOR,HB,old,m,./images/SAILORHB.png,,,,,,,,,,,,,,,,,,,,,,,,,,,,,,,,,,
,,,,,,,,,,,,,,,,,5a8e54c9f49c9a0001f3dc3f,29,2022-02-12_18h02.11.812,lexical_decision_task_DD,2021.2.3,Win32,60.76072427,,,,,,,,,,,,0.7026,1,,,,,,,,,,,,,,m,1,0.7026,,,,,,,,0.009259286,-0.406481508,0,0,0,,0,45,45,25,1,WRIST,HB,old,m,./images/WRISTHB.png,,,,,,,,,,,,,,,,,,,,,,,,,,,,,,,,,,
,,,,,,,,,,,,,,,,,5a8e54c9f49c9a0001f3dc3f,29,2022-02-12_18h02.11.812,lexical_decision_task_DD,2021.2.3,Win32,60.76072427,,,,,,,,,,,,0.6339,1,,,,,,,,,,,,,,m,1,0.6339,,,,,,,,0.009259286,-0.406481508,0,0,0,,0,46,46,8,1,TULIP,LB,old,m,./images/TULIPLB.png,,,,,,,,,,,,,,,,,,,,,,,,,,,,,,,,,,
,,,,,,,,,,,,,,,,,5a8e54c9f49c9a0001f3dc3f,29,2022-02-12_18h02.11.812,lexical_decision_task_DD,2021.2.3,Win32,60.76072427,,,,,,,,,,,,0.6177,1,,,,,,,,,,,,,,z,1,0.6177,,,,,,,,0.009259286,-0.406481508,0,0,0,,0,47,47,131,1,NACES,LB,old,z,./images/NACESLB.png,,,,,,,,,,,,,,,,,,,,,,,,,,,,,,,,,,
,,,,,,,,,,,,,,,,,5a8e54c9f49c9a0001f3dc3f,29,2022-02-12_18h02.11.812,lexical_decision_task_DD,2021.2.3,Win32,60.76072427,,,,,,,,,,,,0.568,1,,,,,,,,,,,,,,m,1,0.568,,,,,,,,0.009259286,-0.406481508,0,0,0,,0,48,48,30,1,STORM,C,old,m,./images/STORM.png,,,,,,,,,,,,,,,,,,,,,,,,,,,,,,,,,,
,,,,,,,,,,,,,,,,,5a8e54c9f49c9a0001f3dc3f,29,2022-02-12_18h02.11.812,lexical_decision_task_DD,2021.2.3,Win32,60.76072427,,,,,,,,,,,,0.7745,1,,,,,,,,,,,,,,m,1,0.7745,,,,,,,,0.009259286,-0.406481508,0,0,0,,0,49,49,36,1,THROAT,C,old,m,./images/THROAT.png,,,,,,,,,,,,,,,,,,,,,,,,,,,,,,,,,,
,,,,,,,,,,,,,,,,,5a8e54c9f49c9a0001f3dc3f,29,2022-02-12_18h02.11.812,lexical_decision_task_DD,2021.2.3,Win32,60.76072427,,,,,,,,,,,,0.5875,1,,,,,,,,,,,,,,m,1,0.5875,,,,,,,,0.009259286,-0.406481508,0,0,0,,0,50,50,65,1,FARMER,LB,old,m,./images/FARMERLB.png,,,,,,,,,,,,,,,,,,,,,,,,,,,,,,,,,,
,,,,,,,,,,,,,,,,,5a8e54c9f49c9a0001f3dc3f,29,2022-02-12_18h02.11.812,lexical_decision_task_DD,2021.2.3,Win32,60.76072427,,,,,,,,,,,,1.0528,1,,,,,,,,,,,,,,z,1,1.0528,,,,,,,,0.009259286,-0.406481508,0,0,0,,0,51,51,121,1,CEERS,HB,old,z,./images/CEERSHB.png,,,,,,,,,,,,,,,,,,,,,,,,,,,,,,,,,,
,,,,,,,,,,,,,,,,,5a8e54c9f49c9a0001f3dc3f,29,2022-02-12_18h02.11.812,lexical_decision_task_DD,2021.2.3,Win32,60.76072427,,,,,,,,,,,,0.6008,1,,,,,,,,,,,,,,m,1,0.6008,,,,,,,,0.009259286,-0.406481508,0,0,0,,0,52,52,15,1,GREASE,C,old,m,./images/GREASE.png,,,,,,,,,,,,,,,,,,,,,,,,,,,,,,,,,,
,,,,,,,,,,,,,,,,,5a8e54c9f49c9a0001f3dc3f,29,2022-02-12_18h02.11.812,lexical_decision_task_DD,2021.2.3,Win32,60.76072427,,,,,,,,,,,,0.6006,1,,,,,,,,,,,,,,m,1,0.6006,,,,,,,,0.009259286,-0.406481508,0,0,0,,0,53,53,63,1,MIRROR,C,old,m,./images/MIRROR.png,,,,,,,,,,,,,,,,,,,,,,,,,,,,,,,,,,
,,,,,,,,,,,,,,,,,5a8e54c9f49c9a0001f3dc3f,29,2022-02-12_18h02.11.812,lexical_decision_task_DD,2021.2.3,Win32,60.76072427,,,,,,,,,,,,0.7843,1,,,,,,,,,,,,,,m,1,0.7843,,,,,,,,0.009259286,-0.406481508,0,0,0,,0,54,54,55,1,MUFFIN,HB,old,m,./images/MUFFINHB.png,,,,,,,,,,,,,,,,,,,,,,,,,,,,,,,,,,
,,,,,,,,,,,,,,,,,5a8e54c9f49c9a0001f3dc3f,29,2022-02-12_18h02.11.812,lexical_decision_task_DD,2021.2.3,Win32,60.76072427,,,,,,,,,,,,0.6672,1,,,,,,,,,,,,,,m,1,0.6672,,,,,,,,0.009259286,-0.406481508,0,0,0,,0,55,55,47,1,BERRY,LB,old,m,./images/BERRYLB.png,,,,,,,,,,,,,,,,,,,,,,,,,,,,,,,,,,
,,,,,,,,,,,,,,,,,5a8e54c9f49c9a0001f3dc3f,29,2022-02-12_18h02.11.812,lexical_decision_task_DD,2021.2.3,Win32,60.76072427,,,,,,,,,,,,0.4884,1,,,,,,,,,,,,,,m,1,0.4884,,,,,,,,0.009259286,-0.406481508,0,0,0,,0,56,56,6,1,SQUARE,C,old,m,./images/SQUARE.png,,,,,,,,,,,,,,,,,,,,,,,,,,,,,,,,,,
,,,,,,,,,,,,,,,,,5a8e54c9f49c9a0001f3dc3f,29,2022-02-12_18h02.11.812,lexical_decision_task_DD,2021.2.3,Win32,60.76072427,,,,,,,,,,,,0.8344,1,,,,,,,,,,,,,,m,1,0.8344,,,,,,,,0.009259286,-0.406481508,0,0,0,,0,57,57,76,1,INFANT,HB,old,m,./images/INFANTHB.png,,,,,,,,,,,,,,,,,,,,,,,,,,,,,,,,,,
,,,,,,,,,,,,,,,,,5a8e54c9f49c9a0001f3dc3f,29,2022-02-12_18h02.11.812,lexical_decision_task_DD,2021.2.3,Win32,60.76072427,,,,,,,,,,,,0.6679,1,,,,,,,,,,,,,,z,1,0.6679,,,,,,,,0.009259286,-0.406481508,0,0,0,,0,58,58,146,1,MOOST,LB,old,z,./images/MOOSTLB.png,,,,,,,,,,,,,,,,,,,,,,,,,,,,,,,,,,
,,,,,,,,,,,,,,,,,5a8e54c9f49c9a0001f3dc3f,29,2022-02-12_18h02.11.812,lexical_decision_task_DD,2021.2.3,Win32,60.76072427,,,,,,,,,,,,0.7338,1,,,,,,,,,,,,,,z,1,0.7338,,,,,,,,0.009259286,-0.406481508,0,0,0,,0,59,59,155,1,CANGY,LB,old,z,./images/CANGYLB.png,,,,,,,,,,,,,,,,,,,,,,,,,,,,,,,,,,
,,,,,,,,,,,,,,,,,5a8e54c9f49c9a0001f3dc3f,29,2022-02-12_18h02.11.812,lexical_decision_task_DD,2021.2.3,Win32,60.76072427,,,,,,,,,,,,0.6988,1,,,,,,,,,,,,,,z,1,0.6988,,,,,,,,0.009259286,-0.406481508,0,0,0,,0,60,60,99,1,BACKY,C,old,z,./images/BACKY.png,,,,,,,,,,,,,,,,,,,,,,,,,,,,,,,,,,
,,,,,,,,,,,,,,,,,5a8e54c9f49c9a0001f3dc3f,29,2022-02-12_18h02.11.812,lexical_decision_task_DD,2021.2.3,Win32,60.76072427,,,,,,,,,,,,0.7107,1,,,,,,,,,,,,,,m,1,0.7107,,,,,,,,0.009259286,-0.406481508,0,0,0,,0,61,61,54,1,TRIPOD,C,old,m,./images/TRIPOD.png,,,,,,,,,,,,,,,,,,,,,,,,,,,,,,,,,,
,,,,,,,,,,,,,,,,,5a8e54c9f49c9a0001f3dc3f,29,2022-02-12_18h02.11.812,lexical_decision_task_DD,2021.2.3,Win32,60.76072427,,,,,,,,,,,,0.5844,1,,,,,,,,,,,,,,z,1,0.5844,,,,,,,,0.009259286,-0.406481508,0,0,0,,0,62,62,167,1,ZONET,LB,old,z,./images/ZONETLB.png,,,,,,,,,,,,,,,,,,,,,,,,,,,,,,,,,,
,,,,,,,,,,,,,,,,,5a8e54c9f49c9a0001f3dc3f,29,2022-02-12_18h02.11.812,lexical_decision_task_DD,2021.2.3,Win32,60.76072427,,,,,,,,,,,,0.507,1,,,,,,,,,,,,,,m,1,0.507,,,,,,,,0.009259286,-0.406481508,0,0,0,,0,63,63,13,1,MOTOR,HB,old,m,./images/MOTORHB.png,,,,,,,,,,,,,,,,,,,,,,,,,,,,,,,,,,
,,,,,,,,,,,,,,,,,5a8e54c9f49c9a0001f3dc3f,29,2022-02-12_18h02.11.812,lexical_decision_task_DD,2021.2.3,Win32,60.76072427,,,,,,,,,,,,0.5011,1,,,,,,,,,,,,,,z,1,0.5011,,,,,,,,0.009259286,-0.406481508,0,0,0,,0,64,64,87,1,TRING,C,old,z,./images/TRING.png,,,,,,,,,,,,,,,,,,,,,,,,,,,,,,,,,,
,,,,,,,,,,,,,,,,,5a8e54c9f49c9a0001f3dc3f,29,2022-02-12_18h02.11.812,lexical_decision_task_DD,2021.2.3,Win32,60.76072427,,,,,,,,,,,,0.8,1,,,,,,,,,,,,,,m,1,0.8,,,,,,,,0.009259286,-0.406481508,0,0,0,,0,65,65,7,1,PAINT,HB,old,m,./images/PAINTHB.png,,,,,,,,,,,,,,,,,,,,,,,,,,,,,,,,,,
,,,,,,,,,,,,,,,,,5a8e54c9f49c9a0001f3dc3f,29,2022-02-12_18h02.11.812,lexical_decision_task_DD,2021.2.3,Win32,60.76072427,,,,,,,,,,,,0.5835,1,,,,,,,,,,,,,,z,1,0.5835,,,,,,,,0.009259286,-0.406481508,0,0,0,,0,66,66,158,1,EGECT,LB,old,z,./images/EGECTLB.png,,,,,,,,,,,,,,,,,,,,,,,,,,,,,,,,,,
,,,,,,,,,,,,,,,,,5a8e54c9f49c9a0001f3dc3f,29,2022-02-12_18h02.11.812,lexical_decision_task_DD,2021.2.3,Win32,60.76072427,,,,,,,,,,,,0.9886,0,,,,,,,,,,,,,,z,0,0.9886,,,,,,,,0.009259286,-0.406481508,0,0,0,,0,67,67,10,1,BELLY,HB,old,m,./images/BELLYHB.png,,,,,,,,,,,,,,,,,,,,,,,,,,,,,,,,,,
,,,,,,,,,,,,,,,,,5a8e54c9f49c9a0001f3dc3f,29,2022-02-12_18h02.11.812,lexical_decision_task_DD,2021.2.3,Win32,60.76072427,,,,,,,,,,,,0.6341,1,,,,,,,,,,,,,,z,1,0.6341,,,,,,,,0.009259286,-0.406481508,0,0,0,,0,68,68,140,1,DOVET,LB,old,z,./images/DOVETLB.png,,,,,,,,,,,,,,,,,,,,,,,,,,,,,,,,,,
,,,,,,,,,,,,,,,,,5a8e54c9f49c9a0001f3dc3f,29,2022-02-12_18h02.11.812,lexical_decision_task_DD,2021.2.3,Win32,60.76072427,,,,,,,,,,,,0.5844,1,,,,,,,,,,,,,,m,1,0.5844,,,,,,,,0.009259286,-0.406481508,0,0,0,,0,69,69,81,1,POODLE,C,old,m,./images/POODLE.png,,,,,,,,,,,,,,,,,,,,,,,,,,,,,,,,,,
,,,,,,,,,,,,,,,,,5a8e54c9f49c9a0001f3dc3f,29,2022-02-12_18h02.11.812,lexical_decision_task_DD,2021.2.3,Win32,60.76072427,,,,,,,,,,,,0.6665,1,,,,,,,,,,,,,,z,1,0.6665,,,,,,,,0.009259286,-0.406481508,0,0,0,,0,70,70,145,1,LAMEL,HB,old,z,./images/LAMELHB.png,,,,,,,,,,,,,,,,,,,,,,,,,,,,,,,,,,
,,,,,,,,,,,,,,,,,5a8e54c9f49c9a0001f3dc3f,29,2022-02-12_18h02.11.812,lexical_decision_task_DD,2021.2.3,Win32,60.76072427,,,,,,,,,,,,0.6177,1,,,,,,,,,,,,,,z,1,0.6177,,,,,,,,0.009259286,-0.406481508,0,0,0,,0,71,71,165,1,TROWN,C,old,z,./images/TROWN.png,,,,,,,,,,,,,,,,,,,,,,,,,,,,,,,,,,
,,,,,,,,,,,,,,,,,5a8e54c9f49c9a0001f3dc3f,29,2022-02-12_18h02.11.812,lexical_decision_task_DD,2021.2.3,Win32,60.76072427,,,,,,,,,,,,0.9586,1,,,,,,,,,,,,,,z,1,0.9586,,,,,,,,0.009259286,-0.406481508,0,0,0,,0,72,72,85,1,CHULK,HB,old,z,./images/CHULKHB.png,,,,,,,,,,,,,,,,,,,,,,,,,,,,,,,,,,
,,,,,,,,,,,,,,,,,5a8e54c9f49c9a0001f3dc3f,29,2022-02-12_18h02.11.812,lexical_decision_task_DD,2021.2.3,Win32,60.76072427,,,,,,,,,,,,1.4673,1,,,,,,,,,,,,,,z,1,1.4673,,,,,,,,0.009259286,-0.406481508,0,0,0,,0,73,73,106,1,CLUMS,HB,old,z,./images/CLUMSHB.png,,,,,,,,,,,,,,,,,,,,,,,,,,,,,,,,,,
,,,,,,,,,,,,,,,,,5a8e54c9f49c9a0001f3dc3f,29,2022-02-12_18h02.11.812,lexical_decision_task_DD,2021.2.3,Win32,60.76072427,,,,,,,,,,,,0.5679,1,,,,,,,,,,,,,,z,1,0.5679,,,,,,,,0.009259286,-0.406481508,0,0,0,,0,74,74,149,1,VEASE,LB,old,z,./images/VEASELB.png,,,,,,,,,,,,,,,,,,,,,,,,,,,,,,,,,,
,,,,,,,,,,,,,,,,,5a8e54c9f49c9a0001f3dc3f,29,2022-02-12_18h02.11.812,lexical_decision_task_DD,2021.2.3,Win32,60.76072427,,,,,,,,,,,,0.5684,1,,,,,,,,,,,,,,m,1,0.5684,,,,,,,,0.009259286,-0.406481508,0,0,0,,0,75,75,44,1,LIZARD,LB,old,m,./images/LIZARDLB.png,,,,,,,,,,,,,,,,,,,,,,,,,,,,,,,,,,
,,,,,,,,,,,,,,,,,5a8e54c9f49c9a0001f3dc3f,29,2022-02-12_18h02.11.812,lexical_decision_task_DD,2021.2.3,Win32,60.76072427,,,,,,,,,,,,0.702,1,,,,,,,,,,,,,,m,1,0.702,,,,,,,,0.009259286,-0.406481508,0,0,0,,0,76,76,19,1,DOUGH,HB,old,m,./images/DOUGHHB.png,,,,,,,,,,,,,,,,,,,,,,,,,,,,,,,,,,
,,,,,,,,,,,,,,,,,5a8e54c9f49c9a0001f3dc3f,29,2022-02-12_18h02.11.812,lexical_decision_task_DD,2021.2.3,Win32,60.76072427,,,,,,,,,,,,0.7174,1,,,,,,,,,,,,,,z,1,0.7174,,,,,,,,0.009259286,-0.406481508,0,0,0,,0,77,77,127,1,NINDY,HB,old,z,./images/NINDYHB.png,,,,,,,,,,,,,,,,,,,,,,,,,,,,,,,,,,
,,,,,,,,,,,,,,,,,5a8e54c9f49c9a0001f3dc3f,29,2022-02-12_18h02.11.812,lexical_decision_task_DD,2021.2.3,Win32,60.76072427,,,,,,,,,,,,0.5684,1,,,,,,,,,,,,,,m,1,0.5684,,,,,,,,0.009259286,-0.406481508,0,0,0,,0,78,78,48,1,SPORT,C,old,m,./images/SPORT.png,,,,,,,,,,,,,,,,,,,,,,,,,,,,,,,,,,
,,,,,,,,,,,,,,,,,5a8e54c9f49c9a0001f3dc3f,29,2022-02-12_18h02.11.812,lexical_decision_task_DD,2021.2.3,Win32,60.76072427,,,,,,,,,,,,0.7184,1,,,,,,,,,,,,,,m,1,0.7184,,,,,,,,0.009259286,-0.406481508,0,0,0,,0,79,79,58,1,BABOON,HB,old,m,./images/BABOONHB.png,,,,,,,,,,,,,,,,,,,,,,,,,,,,,,,,,,
,,,,,,,,,,,,,,,,,5a8e54c9f49c9a0001f3dc3f,29,2022-02-12_18h02.11.812,lexical_decision_task_DD,2021.2.3,Win32,60.76072427,,,,,,,,,,,,0.5846,1,,,,,,,,,,,,,,z,1,0.5846,,,,,,,,0.009259286,-0.406481508,0,0,0,,0,80,80,125,1,MOOKY,LB,old,z,./images/MOOKYLB.png,,,,,,,,,,,,,,,,,,,,,,,,,,,,,,,,,,
,,,,,,,,,,,,,,,,,5a8e54c9f49c9a0001f3dc3f,29,2022-02-12_18h02.11.812,lexical_decision_task_DD,2021.2.3,Win32,60.76072427,,,,,,,,,,,,0.9377,1,,,,,,,,,,,,,,z,1,0.9377,,,,,,,,0.009259286,-0.406481508,0,0,0,,0,81,81,109,1,BURGE,HB,old,z,./images/BURGEHB.png,,,,,,,,,,,,,,,,,,,,,,,,,,,,,,,,,,
,,,,,,,,,,,,,,,,,5a8e54c9f49c9a0001f3dc3f,29,2022-02-12_18h02.11.812,lexical_decision_task_DD,2021.2.3,Win32,60.76072427,,,,,,,,,,,,0.8674,1,,,,,,,,,,,,,,m,1,0.8674,,,,,,,,0.009259286,-0.406481508,0,0,0,,0,82,82,69,1,COOKER,C,old,m,./images/COOKER.png,,,,,,,,,,,,,,,,,,,,,,,,,,,,,,,,,,
,,,,,,,,,,,,,,,,,5a8e54c9f49c9a0001f3dc3f,29,2022-02-12_18h02.11.812,lexical_decision_task_DD,2021.2.3,Win32,60.76072427,,,,,,,,,,,,0.6995,1,,,,,,,,,,,,,,m,1,0.6995,,,,,,,,0.009259286,-0.406481508,0,0,0,space,0,83,83,64,1,JELLY,HB,old,m,./images/JELLYHB.png,4.1344,,,,,,,,,,,,,,,,,,,,,,,,,,,,,,,,,
,,,,,,,,,,,,,,,,,5a8e54c9f49c9a0001f3dc3f,29,2022-02-12_18h02.11.812,lexical_decision_task_DD,2021.2.3,Win32,60.76072427,,,,,,,,,,,,1.0677,1,,,,,,,,,,,,,,z,1,1.0677,,,,,,,,0.009259286,-0.406481508,0,0,0,,0,84,84,91,1,SHENS,HB,old,z,./images/SHENSHB.png,,,,,,,,,,,,,,,,,,,,,,,,,,,,,,,,,,
,,,,,,,,,,,,,,,,,5a8e54c9f49c9a0001f3dc3f,29,2022-02-12_18h02.11.812,lexical_decision_task_DD,2021.2.3,Win32,60.76072427,,,,,,,,,,,,0.9494,1,,,,,,,,,,,,,,z,1,0.9494,,,,,,,,0.009259286,-0.406481508,0,0,0,,0,85,85,133,1,POWDY,HB,old,z,./images/POWDYHB.png,,,,,,,,,,,,,,,,,,,,,,,,,,,,,,,,,,
,,,,,,,,,,,,,,,,,5a8e54c9f49c9a0001f3dc3f,29,2022-02-12_18h02.11.812,lexical_decision_task_DD,2021.2.3,Win32,60.76072427,,,,,,,,,,,,0.8159,1,,,,,,,,,,,,,,m,1,0.8159,,,,,,,,0.009259286,-0.406481508,0,0,0,,0,86,86,70,1,URINE,HB,old,m,./images/URINEHB.png,,,,,,,,,,,,,,,,,,,,,,,,,,,,,,,,,,
,,,,,,,,,,,,,,,,,5a8e54c9f49c9a0001f3dc3f,29,2022-02-12_18h02.11.812,lexical_decision_task_DD,2021.2.3,Win32,60.76072427,,,,,,,,,,,,0.65,1,,,,,,,,,,,,,,m,1,0.65,,,,,,,,0.009259286,-0.406481508,0,0,0,,0,87,87,56,1,PACKET,LB,old,m,./images/PACKETLB.png,,,,,,,,,,,,,,,,,,,,,,,,,,,,,,,,,,
,,,,,,,,,,,,,,,,,5a8e54c9f49c9a0001f3dc3f,29,2022-02-12_18h02.11.812,lexical_decision_task_DD,2021.2.3,Win32,60.76072427,,,,,,,,,,,,0.9498,1,,,,,,,,,,,,,,z,1,0.9498,,,,,,,,0.009259286,-0.406481508,0,0,0,,0,88,88,139,1,BLEAR,HB,old,z,./images/BLEARHB.png,,,,,,,,,,,,,,,,,,,,,,,,,,,,,,,,,,
,,,,,,,,,,,,,,,,,5a8e54c9f49c9a0001f3dc3f,29,2022-02-12_18h02.11.812,lexical_decision_task_DD,2021.2.3,Win32,60.76072427,,,,,,,,,,,,0.7661,1,,,,,,,,,,,,,,z,1,0.7661,,,,,,,,0.009259286,-0.406481508,0,0,0,,0,89,89,94,1,BLANS,HB,old,z,./images/BLANSHB.png,,,,,,,,,,,,,,,,,,,,,,,,,,,,,,,,,,
,,,,,,,,,,,,,,,,,5a8e54c9f49c9a0001f3dc3f,29,2022-02-12_18h02.11.812,lexical_decision_task_DD,2021.2.3,Win32,60.76072427,,,,,,,,,,,,0.6414,1,,,,,,,,,,,,,,z,1,0.6414,,,,,,,,0.009259286,-0.406481508,0,0,0,,0,90,90,132,1,SCIFF,C,old,z,./images/SCIFF.png,,,,,,,,,,,,,,,,,,,,,,,,,,,,,,,,,,
,,,,,,,,,,,,,,,,,5a8e54c9f49c9a0001f3dc3f,29,2022-02-12_18h02.11.812,lexical_decision_task_DD,2021.2.3,Win32,60.76072427,,,,,,,,,,,,0.9169,1,,,,,,,,,,,,,,z,1,0.9169,,,,,,,,0.009259286,-0.406481508,0,0,0,,0,91,91,148,1,JOMS,HB,old,z,./images/JOMSHB.png,,,,,,,,,,,,,,,,,,,,,,,,,,,,,,,,,,
,,,,,,,,,,,,,,,,,5a8e54c9f49c9a0001f3dc3f,29,2022-02-12_18h02.11.812,lexical_decision_task_DD,2021.2.3,Win32,60.76072427,,,,,,,,,,,,1.0586,1,,,,,,,,,,,,,,z,1,1.0586,,,,,,,,0.009259286,-0.406481508,0,0,0,,0,92,92,157,1,INLER,HB,old,z,./images/INLERHB.png,,,,,,,,,,,,,,,,,,,,,,,,,,,,,,,,,,
,,,,,,,,,,,,,,,,,5a8e54c9f49c9a0001f3dc3f,29,2022-02-12_18h02.11.812,lexical_decision_task_DD,2021.2.3,Win32,60.76072427,,,,,,,,,,,,1.1868,1,,,,,,,,,,,,,,m,1,1.1868,,,,,,,,0.009259286,-0.406481508,0,0,0,,0,93,93,46,1,PEARL,HB,old,m,./images/PEARLHB.png,,,,,,,,,,,,,,,,,,,,,,,,,,,,,,,,,,
,,,,,,,,,,,,,,,,,5a8e54c9f49c9a0001f3dc3f,29,2022-02-12_18h02.11.812,lexical_decision_task_DD,2021.2.3,Win32,60.76072427,,,,,,,,,,,,1.1853,0,,,,,,,,,,,,,,z,0,1.1853,,,,,,,,0.009259286,-0.406481508,0,0,0,,0,94,94,16,1,PENCE,HB,old,m,./images/PENCEHB.png,,,,,,,,,,,,,,,,,,,,,,,,,,,,,,,,,,
,,,,,,,,,,,,,,,,,5a8e54c9f49c9a0001f3dc3f,29,2022-02-12_18h02.11.812,lexical_decision_task_DD,2021.2.3,Win32,60.76072427,,,,,,,,,,,,0.5074,1,,,,,,,,,,,,,,m,1,0.5074,,,,,,,,0.009259286,-0.406481508,0,0,0,,0,95,95,41,1,STRING,LB,old,m,./images/STRINGLB.png,,,,,,,,,,,,,,,,,,,,,,,,,,,,,,,,,,
,,,,,,,,,,,,,,,,,5a8e54c9f49c9a0001f3dc3f,29,2022-02-12_18h02.11.812,lexical_decision_task_DD,2021.2.3,Win32,60.76072427,,,,,,,,,,,,0.5695,1,,,,,,,,,,,,,,z,1,0.5695,,,,,,,,0.009259286,-0.406481508,0,0,0,,0,96,96,153,1,CLUPS,C,old,z,./images/CLUPS.png,,,,,,,,,,,,,,,,,,,,,,,,,,,,,,,,,,
,,,,,,,,,,,,,,,,,5a8e54c9f49c9a0001f3dc3f,29,2022-02-12_18h02.11.812,lexical_decision_task_DD,2021.2.3,Win32,60.76072427,,,,,,,,,,,,0.9178,1,,,,,,,,,,,,,,m,1,0.9178,,,,,,,,0.009259286,-0.406481508,0,0,0,,0,97,97,33,1,MAGGOT,C,old,m,./images/MAGGOT.png,,,,,,,,,,,,,,,,,,,,,,,,,,,,,,,,,,
,,,,,,,,,,,,,,,,,5a8e54c9f49c9a0001f3dc3f,29,2022-02-12_18h02.11.812,lexical_decision_task_DD,2021.2.3,Win32,60.76072427,,,,,,,,,,,,0.6344,1,,,,,,,,,,,,,,m,1,0.6344,,,,,,,,0.009259286,-0.406481508,0,0,0,,0,98,98,27,1,ATTIC,C,old,m,./images/ATTIC.png,,,,,,,,,,,,,,,,,,,,,,,,,,,,,,,,,,
,,,,,,,,,,,,,,,,,5a8e54c9f49c9a0001f3dc3f,29,2022-02-12_18h02.11.812,lexical_decision_task_DD,2021.2.3,Win32,60.76072427,,,,,,,,,,,,0.6009,1,,,,,,,,,,,,,,z,1,0.6009,,,,,,,,0.009259286,-0.406481508,0,0,0,,0,99,99,92,1,PAIMS,LB,old,z,./images/PAIMSLB.png,,,,,,,,,,,,,,,,,,,,,,,,,,,,,,,,,,
,,,,,,,,,,,,,,,,,5a8e54c9f49c9a0001f3dc3f,29,2022-02-12_18h02.11.812,lexical_decision_task_DD,2021.2.3,Win32,60.76072427,,,,,,,,,,,,0.6337,1,,,,,,,,,,,,,,m,1,0.6337,,,,,,,,0.009259286,-0.406481508,0,0,0,,0,100,100,50,1,MALLET,LB,old,m,./images/MALLETLB.png,,,,,,,,,,,,,,,,,,,,,,,,,,,,,,,,,,
,,,,,,,,,,,,,,,,,5a8e54c9f49c9a0001f3dc3f,29,2022-02-12_18h02.11.812,lexical_decision_task_DD,2021.2.3,Win32,60.76072427,,,,,,,,,,,,0.5171,1,,,,,,,,,,,,,,z,1,0.5171,,,,,,,,0.009259286,-0.406481508,0,0,0,,0,101,101,102,1,DULLE,C,old,z,./images/DULLE.png,,,,,,,,,,,,,,,,,,,,,,,,,,,,,,,,,,
,,,,,,,,,,,,,,,,,5a8e54c9f49c9a0001f3dc3f,29,2022-02-12_18h02.11.812,lexical_decision_task_DD,2021.2.3,Win32,60.76072427,,,,,,,,,,,,0.6844,1,,,,,,,,,,,,,,z,1,0.6844,,,,,,,,0.009259286,-0.406481508,0,0,0,,0,102,102,113,1,LINEW,LB,old,z,./images/LINEWLB.png,,,,,,,,,,,,,,,,,,,,,,,,,,,,,,,,,,
,,,,,,,,,,,,,,,,,5a8e54c9f49c9a0001f3dc3f,29,2022-02-12_18h02.11.812,lexical_decision_task_DD,2021.2.3,Win32,60.76072427,,,,,,,,,,,,0.5927,1,,,,,,,,,,,,,,z,1,0.5927,,,,,,,,0.009259286,-0.406481508,0,0,0,,0,103,103,137,1,JOOST,LB,old,z,./images/JOOSTLB.png,,,,,,,,,,,,,,,,,,,,,,,,,,,,,,,,,,
,,,,,,,,,,,,,,,,,5a8e54c9f49c9a0001f3dc3f,29,2022-02-12_18h02.11.812,lexical_decision_task_DD,2021.2.3,Win32,60.76072427,,,,,,,,,,,,0.6524,1,,,,,,,,,,,,,,m,1,0.6524,,,,,,,,0.009259286,-0.406481508,0,0,0,,0,104,104,23,1,WALRUS,LB,old,m,./images/WALRUSLB.png,,,,,,,,,,,,,,,,,,,,,,,,,,,,,,,,,,
,,,,,,,,,,,,,,,,,5a8e54c9f49c9a0001f3dc3f,29,2022-02-12_18h02.11.812,lexical_decision_task_DD,2021.2.3,Win32,60.76072427,,,,,,,,,,,,1.1742,1,,,,,,,,,,,,,,z,1,1.1742,,,,,,,,0.009259286,-0.406481508,0,0,0,,0,105,105,166,1,SHORY,HB,old,z,./images/SHORYHB.png,,,,,,,,,,,,,,,,,,,,,,,,,,,,,,,,,,
,,,,,,,,,,,,,,,,,5a8e54c9f49c9a0001f3dc3f,29,2022-02-12_18h02.11.812,lexical_decision_task_DD,2021.2.3,Win32,60.76072427,,,,,,,,,,,,0.6177,1,,,,,,,,,,,,,,m,1,0.6177,,,,,,,,0.009259286,-0.406481508,0,0,0,,0,106,106,2,1,BEARD,LB,old,m,./images/BEARDLB.png,,,,,,,,,,,,,,,,,,,,,,,,,,,,,,,,,,
,,,,,,,,,,,,,,,,,5a8e54c9f49c9a0001f3dc3f,29,2022-02-12_18h02.11.812,lexical_decision_task_DD,2021.2.3,Win32,60.76072427,,,,,,,,,,,,0.5616,1,,,,,,,,,,,,,,z,1,0.5616,,,,,,,,0.009259286,-0.406481508,0,0,0,,0,107,107,86,1,AIFED,LB,old,z,./images/AIFEDLB.png,,,,,,,,,,,,,,,,,,,,,,,,,,,,,,,,,,
,,,,,,,,,,,,,,,,,5a8e54c9f49c9a0001f3dc3f,29,2022-02-12_18h02.11.812,lexical_decision_task_DD,2021.2.3,Win32,60.76072427,,,,,,,,,,,,0.6493,1,,,,,,,,,,,,,,z,1,0.6493,,,,,,,,0.009259286,-0.406481508,0,0,0,,0,108,108,161,1,BLAPS,LB,old,z,./images/BLAPSLB.png,,,,,,,,,,,,,,,,,,,,,,,,,,,,,,,,,,
,,,,,,,,,,,,,,,,,5a8e54c9f49c9a0001f3dc3f,29,2022-02-12_18h02.11.812,lexical_decision_task_DD,2021.2.3,Win32,60.76072427,,,,,,,,,,,,1.0348,1,,,,,,,,,,,,,,z,1,1.0348,,,,,,,,0.009259286,-0.406481508,0,0,0,,0,109,109,151,1,TINKY,HB,old,z,./images/TINKYHB.png,,,,,,,,,,,,,,,,,,,,,,,,,,,,,,,,,,
,,,,,,,,,,,,,,,,,5a8e54c9f49c9a0001f3dc3f,29,2022-02-12_18h02.11.812,lexical_decision_task_DD,2021.2.3,Win32,60.76072427,,,,,,,,,,,,0.7176,1,,,,,,,,,,,,,,m,1,0.7176,,,,,,,,0.009259286,-0.406481508,0,0,0,,0,110,110,61,1,CANDLE,HB,old,m,./images/CANDLEHB.png,,,,,,,,,,,,,,,,,,,,,,,,,,,,,,,,,,
,,,,,,,,,,,,,,,,,5a8e54c9f49c9a0001f3dc3f,29,2022-02-12_18h02.11.812,lexical_decision_task_DD,2021.2.3,Win32,60.76072427,,,,,,,,,,,,0.5698,1,,,,,,,,,,,,,,z,1,0.5698,,,,,,,,0.009259286,-0.406481508,0,0,0,,0,111,111,141,1,PLEET,C,old,z,./images/PLEET.png,,,,,,,,,,,,,,,,,,,,,,,,,,,,,,,,,,
,,,,,,,,,,,,,,,,,5a8e54c9f49c9a0001f3dc3f,29,2022-02-12_18h02.11.812,lexical_decision_task_DD,2021.2.3,Win32,60.76072427,,,,,,,,,,,,0.6422,1,,,,,,,,,,,,,,m,1,0.6422,,,,,,,,0.009259286,-0.406481508,0,0,0,,0,112,112,34,1,CANYON,HB,old,m,./images/CANYONHB.png,,,,,,,,,,,,,,,,,,,,,,,,,,,,,,,,,,
,,,,,,,,,,,,,,,,,5a8e54c9f49c9a0001f3dc3f,29,2022-02-12_18h02.11.812,lexical_decision_task_DD,2021.2.3,Win32,60.76072427,,,,,,,,,,,,0.5417,1,,,,,,,,,,,,,,m,1,0.5417,,,,,,,,0.009259286,-0.406481508,0,0,0,,0,113,113,20,1,CRADLE,LB,old,m,./images/CRADLELB.png,,,,,,,,,,,,,,,,,,,,,,,,,,,,,,,,,,
,,,,,,,,,,,,,,,,,5a8e54c9f49c9a0001f3dc3f,29,2022-02-12_18h02.11.812,lexical_decision_task_DD,2021.2.3,Win32,60.76072427,,,,,,,,,,,,0.684,1,,,,,,,,,,,,,,m,1,0.684,,,,,,,,0.009259286,-0.406481508,0,0,0,,0,114,114,78,1,LITTER,C,old,m,./images/LITTER.png,,,,,,,,,,,,,,,,,,,,,,,,,,,,,,,,,,
,,,,,,,,,,,,,,,,,5a8e54c9f49c9a0001f3dc3f,29,2022-02-12_18h02.11.812,lexical_decision_task_DD,2021.2.3,Win32,60.76072427,,,,,,,,,,,,0.5396,1,,,,,,,,,,,,,,z,1,0.5396,,,,,,,,0.009259286,-0.406481508,0,0,0,,0,115,115,117,1,STEEG,C,old,z,./images/STEEG.png,,,,,,,,,,,,,,,,,,,,,,,,,,,,,,,,,,
,,,,,,,,,,,,,,,,,5a8e54c9f49c9a0001f3dc3f,29,2022-02-12_18h02.11.812,lexical_decision_task_DD,2021.2.3,Win32,60.76072427,,,,,,,,,,,,0.8002,1,,,,,,,,,,,,,,m,1,0.8002,,,,,,,,0.009259286,-0.406481508,0,0,0,,0,116,116,31,1,QUILL,HB,old,m,./images/QUILLHB.png,,,,,,,,,,,,,,,,,,,,,,,,,,,,,,,,,,
,,,,,,,,,,,,,,,,,5a8e54c9f49c9a0001f3dc3f,29,2022-02-12_18h02.11.812,lexical_decision_task_DD,2021.2.3,Win32,60.76072427,,,,,,,,,,,,0.6554,1,,,,,,,,,,,,,,m,1,0.6554,,,,,,,,0.009259286,-0.406481508,0,0,0,,0,117,117,17,1,SKIING,LB,old,m,./images/SKIINGLB.png,,,,,,,,,,,,,,,,,,,,,,,,,,,,,,,,,,
,,,,,,,,,,,,,,,,,5a8e54c9f49c9a0001f3dc3f,29,2022-02-12_18h02.11.812,lexical_decision_task_DD,2021.2.3,Win32,60.76072427,,,,,,,,,,,,0.8178,1,,,,,,,,,,,,,,m,1,0.8178,,,,,,,,0.009259286,-0.406481508,0,0,0,,0,118,118,28,1,FALCON,HB,old,m,./images/FALCONHB.png,,,,,,,,,,,,,,,,,,,,,,,,,,,,,,,,,,
,,,,,,,,,,,,,,,,,5a8e54c9f49c9a0001f3dc3f,29,2022-02-12_18h02.11.812,lexical_decision_task_DD,2021.2.3,Win32,60.76072427,,,,,,,,,,,,0.7178,1,,,,,,,,,,,,,,z,1,0.7178,,,,,,,,0.009259286,-0.406481508,0,0,0,,0,119,119,103,1,FLORT,HB,old,z,./images/FLORTHB.png,,,,,,,,,,,,,,,,,,,,,,,,,,,,,,,,,,
,,,,,,,,,,,,,,,,,5a8e54c9f49c9a0001f3dc3f,29,2022-02-12_18h02.11.812,lexical_decision_task_DD,2021.2.3,Win32,60.76072427,,,,,,,,,,,,0.9507,1,,,,,,,,,,,,,,z,1,0.9507,,,,,,,,0.009259286,-0.406481508,0,0,0,,0,120,120,115,1,MAWNS,HB,old,z,./images/MAWNSHB.png,,,,,,,,,,,,,,,,,,,,,,,,,,,,,,,,,,
,,,,,,,,,,,,,,,,,5a8e54c9f49c9a0001f3dc3f,29,2022-02-12_18h02.11.812,lexical_decision_task_DD,2021.2.3,Win32,60.76072427,,,,,,,,,,,,0.9023,1,,,,,,,,,,,,,,z,1,0.9023,,,,,,,,0.009259286,-0.406481508,0,0,0,,0,121,121,97,1,CHIDS,HB,old,z,./images/CHIDSHB.png,,,,,,,,,,,,,,,,,,,,,,,,,,,,,,,,,,
,,,,,,,,,,,,,,,,,5a8e54c9f49c9a0001f3dc3f,29,2022-02-12_18h02.11.812,lexical_decision_task_DD,2021.2.3,Win32,60.76072427,,,,,,,,,,,,0.6511,1,,,,,,,,,,,,,,z,1,0.6511,,,,,,,,0.009259286,-0.406481508,0,0,0,,0,122,122,90,1,NEAST,C,old,z,./images/NEAST.png,,,,,,,,,,,,,,,,,,,,,,,,,,,,,,,,,,
,,,,,,,,,,,,,,,,,5a8e54c9f49c9a0001f3dc3f,29,2022-02-12_18h02.11.812,lexical_decision_task_DD,2021.2.3,Win32,60.76072427,,,,,,,,,,,,0.6738,1,,,,,,,,,,,,,,z,1,0.6738,,,,,,,,0.009259286,-0.406481508,0,0,0,,0,123,123,114,1,RIKES,C,old,z,./images/RIKES.png,,,,,,,,,,,,,,,,,,,,,,,,,,,,,,,,,,
,,,,,,,,,,,,,,,,,5a8e54c9f49c9a0001f3dc3f,29,2022-02-12_18h02.11.812,lexical_decision_task_DD,2021.2.3,Win32,60.76072427,,,,,,,,,,,,0.5865,1,,,,,,,,,,,,,,m,1,0.5865,,,,,,,,0.009259286,-0.406481508,0,0,0,,0,124,124,60,1,TWINS,C,old,m,./images/TWINS.png,,,,,,,,,,,,,,,,,,,,,,,,,,,,,,,,,,
,,,,,,,,,,,,,,,,,5a8e54c9f49c9a0001f3dc3f,29,2022-02-12_18h02.11.812,lexical_decision_task_DD,2021.2.3,Win32,60.76072427,,,,,,,,,,,,0.6188,1,,,,,,,,,,,,,,m,1,0.6188,,,,,,,,0.009259286,-0.406481508,0,0,0,space,0,125,125,5,1,PASTA,LB,old,m,./images/PASTALB.png,4.5999,,,,,,,,,,,,,,,,,,,,,,,,,,,,,,,,,
,,,,,,,,,,,,,,,,,5a8e54c9f49c9a0001f3dc3f,29,2022-02-12_18h02.11.812,lexical_decision_task_DD,2021.2.3,Win32,60.76072427,,,,,,,,,,,,0.7376,1,,,,,,,,,,,,,,m,1,0.7376,,,,,,,,0.009259286,-0.406481508,0,0,0,,0,126,126,52,1,BANNER,HB,old,m,./images/BANNERHB.png,,,,,,,,,,,,,,,,,,,,,,,,,,,,,,,,,,
,,,,,,,,,,,,,,,,,5a8e54c9f49c9a0001f3dc3f,29,2022-02-12_18h02.11.812,lexical_decision_task_DD,2021.2.3,Win32,60.76072427,,,,,,,,,,,,0.5539,1,,,,,,,,,,,,,,m,1,0.5539,,,,,,,,0.009259286,-0.406481508,0,0,0,,0,127,127,38,1,LADDER,LB,old,m,./images/LADDERLB.png,,,,,,,,,,,,,,,,,,,,,,,,,,,,,,,,,,
,,,,,,,,,,,,,,,,,5a8e54c9f49c9a0001f3dc3f,29,2022-02-12_18h02.11.812,lexical_decision_task_DD,2021.2.3,Win32,60.76072427,,,,,,,,,,,,0.7781,1,,,,,,,,,,,,,,z,1,0.7781,,,,,,,,0.009259286,-0.406481508,0,0,0,,0,128,128,156,1,HIXES,C,old,z,./images/HIXES.png,,,,,,,,,,,,,,,,,,,,,,,,,,,,,,,,,,
,,,,,,,,,,,,,,,,,5a8e54c9f49c9a0001f3dc3f,29,2022-02-12_18h02.11.812,lexical_decision_task_DD,2021.2.3,Win32,60.76072427,,,,,,,,,,,,0.6684,1,,,,,,,,,,,,,,m,1,0.6684,,,,,,,,0.009259286,-0.406481508,0,0,0,,0,129,129,57,1,MOOSE,C,old,m,./images/MOOSE.png,,,,,,,,,,,,,,,,,,,,,,,,,,,,,,,,,,
,,,,,,,,,,,,,,,,,5a8e54c9f49c9a0001f3dc3f,29,2022-02-12_18h02.11.812,lexical_decision_task_DD,2021.2.3,Win32,60.76072427,,,,,,,,,,,,0.6334,1,,,,,,,,,,,,,,z,1,0.6334,,,,,,,,0.009259286,-0.406481508,0,0,0,,0,130,130,95,1,HANTY,LB,old,z,./images/HANTYLB.png,,,,,,,,,,,,,,,,,,,,,,,,,,,,,,,,,,
,,,,,,,,,,,,,,,,,5a8e54c9f49c9a0001f3dc3f,29,2022-02-12_18h02.11.812,lexical_decision_task_DD,2021.2.3,Win32,60.76072427,,,,,,,,,,,,0.5715,1,,,,,,,,,,,,,,z,1,0.5715,,,,,,,,0.009259286,-0.406481508,0,0,0,,0,131,131,119,1,PAFER,LB,old,z,./images/PAFERLB.png,,,,,,,,,,,,,,,,,,,,,,,,,,,,,,,,,,
,,,,,,,,,,,,,,,,,5a8e54c9f49c9a0001f3dc3f,29,2022-02-12_18h02.11.812,lexical_decision_task_DD,2021.2.3,Win32,60.76072427,,,,,,,,,,,,0.4945,1,,,,,,,,,,,,,,m,1,0.4945,,,,,,,,0.009259286,-0.406481508,0,0,0,,0,132,132,77,1,COUCH,LB,old,m,./images/COUCHLB.png,,,,,,,,,,,,,,,,,,,,,,,,,,,,,,,,,,
,,,,,,,,,,,,,,,,,5a8e54c9f49c9a0001f3dc3f,29,2022-02-12_18h02.11.812,lexical_decision_task_DD,2021.2.3,Win32,60.76072427,,,,,,,,,,,,0.5179,1,,,,,,,,,,,,,,m,1,0.5179,,,,,,,,0.009259286,-0.406481508,0,0,0,,0,133,133,0,1,TOMATO,C,old,m,./images/TOMATO.png,,,,,,,,,,,,,,,,,,,,,,,,,,,,,,,,,,
,,,,,,,,,,,,,,,,,5a8e54c9f49c9a0001f3dc3f,29,2022-02-12_18h02.11.812,lexical_decision_task_DD,2021.2.3,Win32,60.76072427,,,,,,,,,,,,0.6066,1,,,,,,,,,,,,,,m,1,0.6066,,,,,,,,0.009259286,-0.406481508,0,0,0,,0,134,134,53,1,CARPET,LB,old,m,./images/CARPETLB.png,,,,,,,,,,,,,,,,,,,,,,,,,,,,,,,,,,
,,,,,,,,,,,,,,,,,5a8e54c9f49c9a0001f3dc3f,29,2022-02-12_18h02.11.812,lexical_decision_task_DD,2021.2.3,Win32,60.76072427,,,,,,,,,,,,0.9186,1,,,,,,,,,,,,,,z,1,0.9186,,,,,,,,0.009259286,-0.406481508,0,0,0,,0,135,135,112,1,MYING,HB,old,z,./images/MYINGHB.png,,,,,,,,,,,,,,,,,,,,,,,,,,,,,,,,,,
,,,,,,,,,,,,,,,,,5a8e54c9f49c9a0001f3dc3f,29,2022-02-12_18h02.11.812,lexical_decision_task_DD,2021.2.3,Win32,60.76072427,,,,,,,,,,,,0.5835,1,,,,,,,,,,,,,,z,1,0.5835,,,,,,,,0.009259286,-0.406481508,0,0,0,,0,136,136,164,1,SGREW,LB,old,z,./images/SGREWLB.png,,,,,,,,,,,,,,,,,,,,,,,,,,,,,,,,,,
,,,,,,,,,,,,,,,,,5a8e54c9f49c9a0001f3dc3f,29,2022-02-12_18h02.11.812,lexical_decision_task_DD,2021.2.3,Win32,60.76072427,,,,,,,,,,,,0.8673,1,,,,,,,,,,,,,,z,1,0.8673,,,,,,,,0.009259286,-0.406481508,0,0,0,,0,137,137,154,1,THINT,HB,old,z,./images/THINTHB.png,,,,,,,,,,,,,,,,,,,,,,,,,,,,,,,,,,
,,,,,,,,,,,,,,,,,5a8e54c9f49c9a0001f3dc3f,29,2022-02-12_18h02.11.812,lexical_decision_task_DD,2021.2.3,Win32,60.76072427,,,,,,,,,,,,0.7515,1,,,,,,,,,,,,,,z,1,0.7515,,,,,,,,0.009259286,-0.406481508,0,0,0,,0,138,138,104,1,GITTY,LB,old,z,./images/GITTYLB.png,,,,,,,,,,,,,,,,,,,,,,,,,,,,,,,,,,
,,,,,,,,,,,,,,,,,5a8e54c9f49c9a0001f3dc3f,29,2022-02-12_18h02.11.812,lexical_decision_task_DD,2021.2.3,Win32,60.76072427,,,,,,,,,,,,0.6509,1,,,,,,,,,,,,,,z,1,0.6509,,,,,,,,0.009259286,-0.406481508,0,0,0,,0,139,139,143,1,MONGS,LB,old,z,./images/MONGSLB.png,,,,,,,,,,,,,,,,,,,,,,,,,,,,,,,,,,
,,,,,,,,,,,,,,,,,5a8e54c9f49c9a0001f3dc3f,29,2022-02-12_18h02.11.812,lexical_decision_task_DD,2021.2.3,Win32,60.76072427,,,,,,,,,,,,0.4874,0,,,,,,,,,,,,,,m,0,0.4874,,,,,,,,0.009259286,-0.406481508,0,0,0,,0,140,140,159,1,CUDDY,C,old,z,./images/CUDDY.png,,,,,,,,,,,,,,,,,,,,,,,,,,,,,,,,,,
,,,,,,,,,,,,,,,,,5a8e54c9f49c9a0001f3dc3f,29,2022-02-12_18h02.11.812,lexical_decision_task_DD,2021.2.3,Win32,60.76072427,,,,,,,,,,,,0.5349,1,,,,,,,,,,,,,,m,1,0.5349,,,,,,,,0.009259286,-0.406481508,0,0,0,,0,141,141,24,1,SCREW,C,old,m,./images/SCREW.png,,,,,,,,,,,,,,,,,,,,,,,,,,,,,,,,,,
,,,,,,,,,,,,,,,,,5a8e54c9f49c9a0001f3dc3f,29,2022-02-12_18h02.11.812,lexical_decision_task_DD,2021.2.3,Win32,60.76072427,,,,,,,,,,,,0.5066,1,,,,,,,,,,,,,,m,1,0.5066,,,,,,,,0.009259286,-0.406481508,0,0,0,,0,142,142,3,1,FINGER,C,old,m,./images/FINGER.png,,,,,,,,,,,,,,,,,,,,,,,,,,,,,,,,,,
,,,,,,,,,,,,,,,,,5a8e54c9f49c9a0001f3dc3f,29,2022-02-12_18h02.11.812,lexical_decision_task_DD,2021.2.3,Win32,60.76072427,,,,,,,,,,,,0.6544,1,,,,,,,,,,,,,,m,1,0.6544,,,,,,,,0.009259286,-0.406481508,0,0,0,,0,143,143,14,1,PICKLE,LB,old,m,./images/PICKLELB.png,,,,,,,,,,,,,,,,,,,,,,,,,,,,,,,,,,
,,,,,,,,,,,,,,,,,5a8e54c9f49c9a0001f3dc3f,29,2022-02-12_18h02.11.812,lexical_decision_task_DD,2021.2.3,Win32,60.76072427,,,,,,,,,,,,1.0518,1,,,,,,,,,,,,,,m,1,1.0518,,,,,,,,0.009259286,-0.406481508,0,0,0,,0,144,144,43,1,MOSQUE,HB,old,m,./images/MOSQUEHB.png,,,,,,,,,,,,,,,,,,,,,,,,,,,,,,,,,,
,,,,,,,,,,,,,,,,,5a8e54c9f49c9a0001f3dc3f,29,2022-02-12_18h02.11.812,lexical_decision_task_DD,2021.2.3,Win32,60.76072427,,,,,,,,,,,,0.634,1,,,,,,,,,,,,,,z,1,0.634,,,,,,,,0.009259286,-0.406481508,0,0,0,,0,145,145,89,1,DRIEK,LB,old,z,./images/DRIEKLB.png,,,,,,,,,,,,,,,,,,,,,,,,,,,,,,,,,,
,,,,,,,,,,,,,,,,,5a8e54c9f49c9a0001f3dc3f,29,2022-02-12_18h02.11.812,lexical_decision_task_DD,2021.2.3,Win32,60.76072427,,,,,,,,,,,,1.1222,0,,,,,,,,,,,,,,m,0,1.1222,,,,,,,,0.009259286,-0.406481508,0,0,0,,0,146,146,130,1,CRILL,HB,old,z,./images/CRILLHB.png,,,,,,,,,,,,,,,,,,,,,,,,,,,,,,,,,,
,,,,,,,,,,,,,,,,,5a8e54c9f49c9a0001f3dc3f,29,2022-02-12_18h02.11.812,lexical_decision_task_DD,2021.2.3,Win32,60.76072427,,,,,,,,,,,,0.6677,1,,,,,,,,,,,,,,m,1,0.6677,,,,,,,,0.009259286,-0.406481508,0,0,0,,0,147,147,26,1,SMOKER,LB,old,m,./images/SMOKERLB.png,,,,,,,,,,,,,,,,,,,,,,,,,,,,,,,,,,
,,,,,,,,,,,,,,,,,5a8e54c9f49c9a0001f3dc3f,29,2022-02-12_18h02.11.812,lexical_decision_task_DD,2021.2.3,Win32,60.76072427,,,,,,,,,,,,0.5119,1,,,,,,,,,,,,,,z,1,0.5119,,,,,,,,0.009259286,-0.406481508,0,0,0,,0,148,148,84,1,HAXES,C,old,z,./images/HAXES.png,,,,,,,,,,,,,,,,,,,,,,,,,,,,,,,,,,
,,,,,,,,,,,,,,,,,5a8e54c9f49c9a0001f3dc3f,29,2022-02-12_18h02.11.812,lexical_decision_task_DD,2021.2.3,Win32,60.76072427,,,,,,,,,,,,0.5851,1,,,,,,,,,,,,,,m,1,0.5851,,,,,,,,0.009259286,-0.406481508,0,0,0,,0,149,149,45,1,KITTEN,C,old,m,./images/KITTEN.png,,,,,,,,,,,,,,,,,,,,,,,,,,,,,,,,,,
,,,,,,,,,,,,,,,,,5a8e54c9f49c9a0001f3dc3f,29,2022-02-12_18h02.11.812,lexical_decision_task_DD,2021.2.3,Win32,60.76072427,,,,,,,,,,,,0.6335,1,,,,,,,,,,,,,,m,1,0.6335,,,,,,,,0.009259286,-0.406481508,0,0,0,,0,150,150,18,1,JAGUAR,C,old,m,./images/JAGUAR.png,,,,,,,,,,,,,,,,,,,,,,,,,,,,,,,,,,
,,,,,,,,,,,,,,,,,5a8e54c9f49c9a0001f3dc3f,29,2022-02-12_18h02.11.812,lexical_decision_task_DD,2021.2.3,Win32,60.76072427,,,,,,,,,,,,0.5693,1,,,,,,,,,,,,,,m,1,0.5693,,,,,,,,0.009259286,-0.406481508,0,0,0,,0,151,151,21,1,KIDNEY,C,old,m,./images/KIDNEY.png,,,,,,,,,,,,,,,,,,,,,,,,,,,,,,,,,,
,,,,,,,,,,,,,,,,,5a8e54c9f49c9a0001f3dc3f,29,2022-02-12_18h02.11.812,lexical_decision_task_DD,2021.2.3,Win32,60.76072427,,,,,,,,,,,,0.5018,1,,,,,,,,,,,,,,z,1,0.5018,,,,,,,,0.009259286,-0.406481508,0,0,0,,0,152,152,116,1,BALGY,LB,old,z,./images/BALGYLB.png,,,,,,,,,,,,,,,,,,,,,,,,,,,,,,,,,,
,,,,,,,,,,,,,,,,,5a8e54c9f49c9a0001f3dc3f,29,2022-02-12_18h02.11.812,lexical_decision_task_DD,2021.2.3,Win32,60.76072427,,,,,,,,,,,,1.3043,1,,,,,,,,,,,,,,m,1,1.3043,,,,,,,,0.009259286,-0.406481508,0,0,0,,0,153,153,79,1,CRUST,HB,old,m,./images/CRUSTHB.png,,,,,,,,,,,,,,,,,,,,,,,,,,,,,,,,,,
,,,,,,,,,,,,,,,,,5a8e54c9f49c9a0001f3dc3f,29,2022-02-12_18h02.11.812,lexical_decision_task_DD,2021.2.3,Win32,60.76072427,,,,,,,,,,,,0.5745,1,,,,,,,,,,,,,,z,1,0.5745,,,,,,,,0.009259286,-0.406481508,0,0,0,,0,154,154,105,1,MOKER,C,old,z,./images/MOKER.png,,,,,,,,,,,,,,,,,,,,,,,,,,,,,,,,,,
,,,,,,,,,,,,,,,,,5a8e54c9f49c9a0001f3dc3f,29,2022-02-12_18h02.11.812,lexical_decision_task_DD,2021.2.3,Win32,60.76072427,,,,,,,,,,,,0.5682,1,,,,,,,,,,,,,,m,1,0.5682,,,,,,,,0.009259286,-0.406481508,0,0,0,,0,155,155,68,1,TORCH,LB,old,m,./images/TORCHLB.png,,,,,,,,,,,,,,,,,,,,,,,,,,,,,,,,,,
,,,,,,,,,,,,,,,,,5a8e54c9f49c9a0001f3dc3f,29,2022-02-12_18h02.11.812,lexical_decision_task_DD,2021.2.3,Win32,60.76072427,,,,,,,,,,,,0.4396,1,,,,,,,,,,,,,,z,1,0.4396,,,,,,,,0.009259286,-0.406481508,0,0,0,,0,156,156,126,1,GUELS,C,old,z,./images/GUELS.png,,,,,,,,,,,,,,,,,,,,,,,,,,,,,,,,,,
,,,,,,,,,,,,,,,,,5a8e54c9f49c9a0001f3dc3f,29,2022-02-12_18h02.11.812,lexical_decision_task_DD,2021.2.3,Win32,60.76072427,,,,,,,,,,,,0.5348,1,,,,,,,,,,,,,,m,1,0.5348,,,,,,,,0.009259286,-0.406481508,0,0,0,,0,157,157,75,1,GRAIN,C,old,m,./images/GRAIN.png,,,,,,,,,,,,,,,,,,,,,,,,,,,,,,,,,,
,,,,,,,,,,,,,,,,,5a8e54c9f49c9a0001f3dc3f,29,2022-02-12_18h02.11.812,lexical_decision_task_DD,2021.2.3,Win32,60.76072427,,,,,,,,,,,,0.5104,1,,,,,,,,,,,,,,z,1,0.5104,,,,,,,,0.009259286,-0.406481508,0,0,0,,0,158,158,107,1,FASKS,LB,old,z,./images/FASKSLB.png,,,,,,,,,,,,,,,,,,,,,,,,,,,,,,,,,,
,,,,,,,,,,,,,,,,,5a8e54c9f49c9a0001f3dc3f,29,2022-02-12_18h02.11.812,lexical_decision_task_DD,2021.2.3,Win32,60.76072427,,,,,,,,,,,,0.6076,0,,,,,,,,,,,,,,z,0,0.6076,,,,,,,,0.009259286,-0.406481508,0,0,0,,0,159,159,72,1,NOOSE,C,old,m,./images/NOOSE.png,,,,,,,,,,,,,,,,,,,,,,,,,,,,,,,,,,
,,,,,,,,,,,,,,,,,5a8e54c9f49c9a0001f3dc3f,29,2022-02-12_18h02.11.812,lexical_decision_task_DD,2021.2.3,Win32,60.76072427,,,,,,,,,,,,0.7012,1,,,,,,,,,,,,,,m,1,0.7012,,,,,,,,0.009259286,-0.406481508,0,0,0,,0,160,160,11,1,BONNET,LB,old,m,./images/BONNETLB.png,,,,,,,,,,,,,,,,,,,,,,,,,,,,,,,,,,
,,,,,,,,,,,,,,,,,5a8e54c9f49c9a0001f3dc3f,29,2022-02-12_18h02.11.812,lexical_decision_task_DD,2021.2.3,Win32,60.76072427,,,,,,,,,,,,0.8509,1,,,,,,,,,,,,,,m,1,0.8509,,,,,,,,0.009259286,-0.406481508,0,0,0,,0,161,161,73,1,SNACK,HB,old,m,./images/SNACKHB.png,,,,,,,,,,,,,,,,,,,,,,,,,,,,,,,,,,
,,,,,,,,,,,,,,,,,5a8e54c9f49c9a0001f3dc3f,29,2022-02-12_18h02.11.812,lexical_decision_task_DD,2021.2.3,Win32,60.76072427,,,,,,,,,,,,0.6398,1,,,,,,,,,,,,,,z,1,0.6398,,,,,,,,0.009259286,-0.406481508,0,0,0,,0,162,162,93,1,SMONE,C,old,z,./images/SMONE.png,,,,,,,,,,,,,,,,,,,,,,,,,,,,,,,,,,
,,,,,,,,,,,,,,,,,5a8e54c9f49c9a0001f3dc3f,29,2022-02-12_18h02.11.812,lexical_decision_task_DD,2021.2.3,Win32,60.76072427,,,,,,,,,,,,0.5895,1,,,,,,,,,,,,,,m,1,0.5895,,,,,,,,0.009259286,-0.406481508,0,0,0,,0,163,163,42,1,FOLDER,C,old,m,./images/FOLDER.png,,,,,,,,,,,,,,,,,,,,,,,,,,,,,,,,,,
,,,,,,,,,,,,,,,,,5a8e54c9f49c9a0001f3dc3f,29,2022-02-12_18h02.11.812,lexical_decision_task_DD,2021.2.3,Win32,60.76072427,,,,,,,,,,,,1.0511,1,,,,,,,,,,,,,,z,1,1.0511,,,,,,,,0.009259286,-0.406481508,0,0,0,,0,164,164,163,1,GAMBA,HB,old,z,./images/GAMBAHB.png,,,,,,,,,,,,,,,,,,,,,,,,,,,,,,,,,,
,,,,,,,,,,,,,,,,,5a8e54c9f49c9a0001f3dc3f,29,2022-02-12_18h02.11.812,lexical_decision_task_DD,2021.2.3,Win32,60.76072427,,,,,,,,,,,,0.5255,1,,,,,,,,,,,,,,z,1,0.5255,,,,,,,,0.009259286,-0.406481508,0,0,0,,0,165,165,162,1,LEICH,C,old,z,./images/LEICH.png,,,,,,,,,,,,,,,,,,,,,,,,,,,,,,,,,,
,,,,,,,,,,,,,,,,,5a8e54c9f49c9a0001f3dc3f,29,2022-02-12_18h02.11.812,lexical_decision_task_DD,2021.2.3,Win32,60.76072427,,,,,,,,,,,,0.6039,1,,,,,,,,,,,,,,m,1,0.6039,,,,,,,,0.009259286,-0.406481508,0,0,0,,0,166,166,51,1,ONION,C,old,m,./images/ONION.png,,,,,,,,,,,,,,,,,,,,,,,,,,,,,,,,,,
,,,,,,,,,,,,,,,,,5a8e54c9f49c9a0001f3dc3f,29,2022-02-12_18h02.11.812,lexical_decision_task_DD,2021.2.3,Win32,60.76072427,,,,,,,,,,,,0.7004,1,,,,,,,,,,,,,,m,1,0.7004,,,,,,,,0.009259286,-0.406481508,0,0,0,,0,167,167,12,1,SHORE,C,old,m,./images/SHORE.png,,,,,,,,,,,,,,,,,,,,,,,,,,,,,,,,,,
,,,,,,,,,,,,,,,,,5a8e54c9f49c9a0001f3dc3f,29,2022-02-12_18h02.11.812,lexical_decision_task_DD,2021.2.3,Win32,60.76072427,,,,,,,,,,,,,,,,,,,,,,,,,,,,,,,,,,,,,,,,,,,,,,,,,How likely will it be that you will recognize the words presented clearly on a scale of 0 (not likely) to 100 (most likely)?,,,,,-0.02129627,-0.432407492,1,0,0,jol_adv,4,7.8225,0,0,0,0,1,,,,,,,,,,,,,,,,,,,,
,,,,,,,,,,,,,,,,,5a8e54c9f49c9a0001f3dc3f,29,2022-02-12_18h02.11.812,lexical_decision_task_DD,2021.2.3,Win32,60.76072427,,,,,,,,,,,,,,,,,,,,,,,,,,,,,,,,,,,,,,,,,,,,,,,,,How likely will it be that you will recognize the words presented very blurred on a scale of 0 (not likely) to 100 (most likely)?,,,,,,,,,,,4,6.9166,0,1,1,2,1,,,,,,,,,,,,,,,,,,,,
,,,,,,,,,,,,,,,,,5a8e54c9f49c9a0001f3dc3f,29,2022-02-12_18h02.11.812,lexical_decision_task_DD,2021.2.3,Win32,60.76072427,,,,,,,,,,,,,,,,,,,,,,,,,,,,,,,,,,,,,,,,,,,,,,,,,How likely will it be that you will recognize the words presented slighly blurred on a scale of 0 (not likely) to 100 (most likely)?,,,,,,,,,,,2,4.7513,0,2,2,1,1,,,,,,,,,,,,,,,,,,,,
,-0.070370289,-0.368518601,1,0,0,instr_done_button,,,,,,1,test,"In the next phase you will be presented with the words from the the first phase. Your job is to decide whether you remember seeing the word or not. If you remember seeing the word press ""old"" or type ""m"". If you do not remember seeing the word press ""new"" or type ""z"". Please press the space bar or click on continue to begin. ",,,5a8e54c9f49c9a0001f3dc3f,29,2022-02-12_18h02.11.812,lexical_decision_task_DD,2021.2.3,Win32,60.76072427,,,,,,,,,,,,,,,,,,,,,,,,,,,,,,,,,,,,,,,,,,,,,,,,,,,,,,,,,,,,,,,,,,,0,0,0,0,1,,,,,,,,,,,,,,,
,-0.023148066,-0.407407491,1,0,0,instr_done_button,,,,,,1,test,"In the next phase you will be presented with the words from the the first phase. Your job is to decide whether you remember seeing the word or not. If you remember seeing the word press ""old"" or type ""m"". If you do not remember seeing the word press ""new"" or type ""z"". Please press the space bar or click on continue to begin. ",,,5a8e54c9f49c9a0001f3dc3f,29,2022-02-12_18h02.11.812,lexical_decision_task_DD,2021.2.3,Win32,60.76072427,,,,,,,,,,,,,,,,,,,,,,,,,,,,,,,,,,,,,,,,,,,,,,,,,,,,,,,,,,,,,,,,,,,1,0,1,0,1,,,,,,,,,,,,,,,
space,0.103703733,-0.046296313,0,0,0,,,,,,,1,test,"In the next phase you will be presented with the words from the the first phase. Your job is to decide whether you remember seeing the word or not. If you remember seeing the word press ""old"" or type ""m"". If you do not remember seeing the word press ""new"" or type ""z"". Please press the space bar or click on continue to begin. ",,,5a8e54c9f49c9a0001f3dc3f,29,2022-02-12_18h02.11.812,lexical_decision_task_DD,2021.2.3,Win32,60.76072427,1.4536,,,,,,,,,,,,,,,,,,,,,,,,,,,,,,,,,,,,,,,,,,,,,,,,,,,,,,,,,,,,,,,,,,2,0,2,0,1,,,,,,,,,,,,,,,
,-0.009259177,-0.411111138,1,0,0,instr_done_button,,,,,,1,test,"In the next phase you will be presented with the words from the the first phase. Your job is to decide whether you remember seeing the word or not. If you remember seeing the word press ""old"" or type ""m"". If you do not remember seeing the word press ""new"" or type ""z"". Please press the space bar or click on continue to begin. ",,,5a8e54c9f49c9a0001f3dc3f,29,2022-02-12_18h02.11.812,lexical_decision_task_DD,2021.2.3,Win32,60.76072427,,,,,,,,,,,,,,,,,,,,,,,,,,,,,,,,,,,,,,,,,,,,,,,,,,,,,,,,,,,,,,,,,,,3,0,3,0,1,,,,,,,,,,,,,,,
space,0.737037199,0.139814804,0,0,0,,,,,,,1,test,"In the next phase you will be presented with the words from the the first phase. Your job is to decide whether you remember seeing the word or not. If you remember seeing the word press ""old"" or type ""m"". If you do not remember seeing the word press ""new"" or type ""z"". Please press the space bar or click on continue to begin. ",,,5a8e54c9f49c9a0001f3dc3f,29,2022-02-12_18h02.11.812,lexical_decision_task_DD,2021.2.3,Win32,60.76072427,9.208,,,,,,,,,,,,,,,,,,,,,,,,,,,,,,,,,,,,,,,,,,,,,,,,,,,,,,,,,,,,,,,,,,4,0,4,0,1,,,,,,,,,,,,,,,
,,,,,,,,,,,,,,,,,5a8e54c9f49c9a0001f3dc3f,29,2022-02-12_18h02.11.812,lexical_decision_task_DD,2021.2.3,Win32,60.76072427,,,,,,,,,,,,1.5227,1,,,,,,,,,,,,,,,,,,,,,,,,0.737037199,0.139814804,0,0,0,,,,,,,SLOPE,C,z,m,./images/SLOPE.png,,,,,,,,,,,,,,,,,,,,z,1,1.5227,,,,,,,,0,0,0,114,1
,,,,,,,,,,,,,,,,,5a8e54c9f49c9a0001f3dc3f,29,2022-02-12_18h02.11.812,lexical_decision_task_DD,2021.2.3,Win32,60.76072427,,,,,,,,,,,,0.9243,1,,,,,,,,,,,,,,,,,,,,,,,,0.737037199,0.139814804,0,0,0,,,,,,,PLANET,LB,z,m,./images/PLANETLB.png,,,,,,,,,,,,,,,,,,,,z,1,0.9243,,,,,,,,0,1,1,164,1
,,,,,,,,,,,,,,,,,5a8e54c9f49c9a0001f3dc3f,29,2022-02-12_18h02.11.812,lexical_decision_task_DD,2021.2.3,Win32,60.76072427,,,,,,,,,,,,1.0669,1,,,,,,,,,,,,,,,,,,,,,,,,0.737037199,0.139814804,0,0,0,,,,,,,JAGUAR,C,m,m,./images/JAGUAR.png,,,,,,,,,,,,,,,,,,,,m,1,1.0669,,,,,,,,0,2,2,18,1
,,,,,,,,,,,,,,,,,5a8e54c9f49c9a0001f3dc3f,29,2022-02-12_18h02.11.812,lexical_decision_task_DD,2021.2.3,Win32,60.76072427,,,,,,,,,,,,0.9172,1,,,,,,,,,,,,,,,,,,,,,,,,0.737037199,0.139814804,0,0,0,,,,,,,STREAM,LB,z,m,./images/STREAMLB.png,,,,,,,,,,,,,,,,,,,,z,1,0.9172,,,,,,,,0,3,3,125,1
,,,,,,,,,,,,,,,,,5a8e54c9f49c9a0001f3dc3f,29,2022-02-12_18h02.11.812,lexical_decision_task_DD,2021.2.3,Win32,60.76072427,,,,,,,,,,,,0.7842,1,,,,,,,,,,,,,,,,,,,,,,,,0.737037199,0.139814804,0,0,0,,,,,,,CURRY,C,z,m,./images/CURRY.png,,,,,,,,,,,,,,,,,,,,z,1,0.7842,,,,,,,,0,4,4,144,1
,,,,,,,,,,,,,,,,,5a8e54c9f49c9a0001f3dc3f,29,2022-02-12_18h02.11.812,lexical_decision_task_DD,2021.2.3,Win32,60.76072427,,,,,,,,,,,,0.652,1,,,,,,,,,,,,,,,,,,,,,,,,0.737037199,0.139814804,0,0,0,,,,,,,BANANA,HB,z,m,./images/BANANAHB.png,,,,,,,,,,,,,,,,,,,,z,1,0.652,,,,,,,,0,5,5,154,1
,,,,,,,,,,,,,,,,,5a8e54c9f49c9a0001f3dc3f,29,2022-02-12_18h02.11.812,lexical_decision_task_DD,2021.2.3,Win32,60.76072427,,,,,,,,,,,,0.71,1,,,,,,,,,,,,,,,,,,,,,,,,0.737037199,0.139814804,0,0,0,,,,,,,TULIP,LB,m,m,./images/TULIPLB.png,,,,,,,,,,,,,,,,,,,,m,1,0.71,,,,,,,,0,6,6,8,1
,,,,,,,,,,,,,,,,,5a8e54c9f49c9a0001f3dc3f,29,2022-02-12_18h02.11.812,lexical_decision_task_DD,2021.2.3,Win32,60.76072427,,,,,,,,,,,,0.7018,1,,,,,,,,,,,,,,,,,,,,,,,,0.737037199,0.139814804,0,0,0,,,,,,,CANOE,HB,z,m,./images/CANOEHB.png,,,,,,,,,,,,,,,,,,,,z,1,0.7018,,,,,,,,0,7,7,142,1
,,,,,,,,,,,,,,,,,5a8e54c9f49c9a0001f3dc3f,29,2022-02-12_18h02.11.812,lexical_decision_task_DD,2021.2.3,Win32,60.76072427,,,,,,,,,,,,0.7337,0,,,,,,,,,,,,,,,,,,,,,,,,0.737037199,0.139814804,0,0,0,,,,,,,FARMER,LB,m,m,./images/FARMERLB.png,,,,,,,,,,,,,,,,,,,,z,0,0.7337,,,,,,,,0,8,8,65,1
,,,,,,,,,,,,,,,,,5a8e54c9f49c9a0001f3dc3f,29,2022-02-12_18h02.11.812,lexical_decision_task_DD,2021.2.3,Win32,60.76072427,,,,,,,,,,,,1.3429,1,,,,,,,,,,,,,,,,,,,,,,,,0.737037199,0.139814804,0,0,0,,,,,,,TORCH,LB,m,m,./images/TORCHLB.png,,,,,,,,,,,,,,,,,,,,m,1,1.3429,,,,,,,,0,9,9,68,1
,,,,,,,,,,,,,,,,,5a8e54c9f49c9a0001f3dc3f,29,2022-02-12_18h02.11.812,lexical_decision_task_DD,2021.2.3,Win32,60.76072427,,,,,,,,,,,,0.7833,0,,,,,,,,,,,,,,,,,,,,,,,,0.737037199,0.139814804,0,0,0,,,,,,,PACKET,LB,m,m,./images/PACKETLB.png,,,,,,,,,,,,,,,,,,,,z,0,0.7833,,,,,,,,0,10,10,56,1
,,,,,,,,,,,,,,,,,5a8e54c9f49c9a0001f3dc3f,29,2022-02-12_18h02.11.812,lexical_decision_task_DD,2021.2.3,Win32,60.76072427,,,,,,,,,,,,0.8841,1,,,,,,,,,,,,,,,,,,,,,,,,0.737037199,0.139814804,0,0,0,,,,,,,STEAK,HB,z,m,./images/STEAKHB.png,,,,,,,,,,,,,,,,,,,,z,1,0.8841,,,,,,,,0,11,11,115,1
,,,,,,,,,,,,,,,,,5a8e54c9f49c9a0001f3dc3f,29,2022-02-12_18h02.11.812,lexical_decision_task_DD,2021.2.3,Win32,60.76072427,,,,,,,,,,,,0.5675,1,,,,,,,,,,,,,,,,,,,,,,,,0.737037199,0.139814804,0,0,0,,,,,,,MIDGET,HB,z,m,./images/MIDGETHB.png,,,,,,,,,,,,,,,,,,,,z,1,0.5675,,,,,,,,0,12,12,160,1
,,,,,,,,,,,,,,,,,5a8e54c9f49c9a0001f3dc3f,29,2022-02-12_18h02.11.812,lexical_decision_task_DD,2021.2.3,Win32,60.76072427,,,,,,,,,,,,0.6408,1,,,,,,,,,,,,,,,,,,,,,,,,0.737037199,0.139814804,0,0,0,,,,,,,WALNUT,C,z,m,./images/WALNUT.png,,,,,,,,,,,,,,,,,,,,z,1,0.6408,,,,,,,,0,13,13,84,1
,,,,,,,,,,,,,,,,,5a8e54c9f49c9a0001f3dc3f,29,2022-02-12_18h02.11.812,lexical_decision_task_DD,2021.2.3,Win32,60.76072427,,,,,,,,,,,,0.8601,1,,,,,,,,,,,,,,,,,,,,,,,,0.737037199,0.139814804,0,0,0,,,,,,,FOLDER,C,m,m,./images/FOLDER.png,,,,,,,,,,,,,,,,,,,,m,1,0.8601,,,,,,,,0,14,14,42,1
,,,,,,,,,,,,,,,,,5a8e54c9f49c9a0001f3dc3f,29,2022-02-12_18h02.11.812,lexical_decision_task_DD,2021.2.3,Win32,60.76072427,,,,,,,,,,,,0.8868,1,,,,,,,,,,,,,,,,,,,,,,,,0.737037199,0.139814804,0,0,0,,,,,,,GREASE,C,m,m,./images/GREASE.png,,,,,,,,,,,,,,,,,,,,m,1,0.8868,,,,,,,,0,15,15,15,1
,,,,,,,,,,,,,,,,,5a8e54c9f49c9a0001f3dc3f,29,2022-02-12_18h02.11.812,lexical_decision_task_DD,2021.2.3,Win32,60.76072427,,,,,,,,,,,,0.7223,1,,,,,,,,,,,,,,,,,,,,,,,,0.737037199,0.139814804,0,0,0,,,,,,,BUNNY,HB,z,m,./images/BUNNYHB.png,,,,,,,,,,,,,,,,,,,,z,1,0.7223,,,,,,,,0,16,16,97,1
,,,,,,,,,,,,,,,,,5a8e54c9f49c9a0001f3dc3f,29,2022-02-12_18h02.11.812,lexical_decision_task_DD,2021.2.3,Win32,60.76072427,,,,,,,,,,,,0.768,1,,,,,,,,,,,,,,,,,,,,,,,,0.737037199,0.139814804,0,0,0,,,,,,,MOSQUE,HB,m,m,./images/MOSQUEHB.png,,,,,,,,,,,,,,,,,,,,m,1,0.768,,,,,,,,0,17,17,43,1
,,,,,,,,,,,,,,,,,5a8e54c9f49c9a0001f3dc3f,29,2022-02-12_18h02.11.812,lexical_decision_task_DD,2021.2.3,Win32,60.76072427,,,,,,,,,,,,1.0582,1,,,,,,,,,,,,,,,,,,,,,,,,0.737037199,0.139814804,0,0,0,,,,,,,CASINO,HB,z,m,./images/CASINOHB.png,,,,,,,,,,,,,,,,,,,,z,1,1.0582,,,,,,,,0,18,18,112,1
,,,,,,,,,,,,,,,,,5a8e54c9f49c9a0001f3dc3f,29,2022-02-12_18h02.11.812,lexical_decision_task_DD,2021.2.3,Win32,60.76072427,,,,,,,,,,,,0.9062,0,,,,,,,,,,,,,,,,,,,,,,,,0.737037199,0.139814804,0,0,0,,,,,,,RULER,HB,z,m,./images/RULERHB.png,,,,,,,,,,,,,,,,,,,,m,0,0.9062,,,,,,,,0,19,19,163,1
,,,,,,,,,,,,,,,,,5a8e54c9f49c9a0001f3dc3f,29,2022-02-12_18h02.11.812,lexical_decision_task_DD,2021.2.3,Win32,60.76072427,,,,,,,,,,,,0.8663,1,,,,,,,,,,,,,,,,,,,,,,,,0.737037199,0.139814804,0,0,0,,,,,,,CRUMB,LB,m,m,./images/CRUMBLB.png,,,,,,,,,,,,,,,,,,,,m,1,0.8663,,,,,,,,0,20,20,29,1
,,,,,,,,,,,,,,,,,5a8e54c9f49c9a0001f3dc3f,29,2022-02-12_18h02.11.812,lexical_decision_task_DD,2021.2.3,Win32,60.76072427,,,,,,,,,,,,0.6606,1,,,,,,,,,,,,,,,,,,,,,,,,0.737037199,0.139814804,0,0,0,,,,,,,FENCE,LB,z,m,./images/FENCELB.png,,,,,,,,,,,,,,,,,,,,z,1,0.6606,,,,,,,,0,21,21,98,1
,,,,,,,,,,,,,,,,,5a8e54c9f49c9a0001f3dc3f,29,2022-02-12_18h02.11.812,lexical_decision_task_DD,2021.2.3,Win32,60.76072427,,,,,,,,,,,,0.5776,1,,,,,,,,,,,,,,,,,,,,,,,,0.737037199,0.139814804,0,0,0,,,,,,,ARROW,C,z,m,./images/ARROW.png,,,,,,,,,,,,,,,,,,,,z,1,0.5776,,,,,,,,0,22,22,153,1
,,,,,,,,,,,,,,,,,5a8e54c9f49c9a0001f3dc3f,29,2022-02-12_18h02.11.812,lexical_decision_task_DD,2021.2.3,Win32,60.76072427,,,,,,,,,,,,0.7009,1,,,,,,,,,,,,,,,,,,,,,,,,0.737037199,0.139814804,0,0,0,,,,,,,LAGOON,LB,z,m,./images/LAGOONLB.png,,,,,,,,,,,,,,,,,,,,z,1,0.7009,,,,,,,,0,23,23,131,1
,,,,,,,,,,,,,,,,,5a8e54c9f49c9a0001f3dc3f,29,2022-02-12_18h02.11.812,lexical_decision_task_DD,2021.2.3,Win32,60.76072427,,,,,,,,,,,,0.7363,1,,,,,,,,,,,,,,,,,,,,,,,,0.737037199,0.139814804,0,0,0,,,,,,,FERRY,C,z,m,./images/FERRY.png,,,,,,,,,,,,,,,,,,,,z,1,0.7363,,,,,,,,0,24,24,141,1
,,,,,,,,,,,,,,,,,5a8e54c9f49c9a0001f3dc3f,29,2022-02-12_18h02.11.812,lexical_decision_task_DD,2021.2.3,Win32,60.76072427,,,,,,,,,,,,1.124,0,,,,,,,,,,,,,,,,,,,,,,,,0.737037199,0.139814804,0,0,0,,,,,,,MOTOR,HB,m,m,./images/MOTORHB.png,,,,,,,,,,,,,,,,,,,,z,0,1.124,,,,,,,,0,25,25,13,1
,,,,,,,,,,,,,,,,,5a8e54c9f49c9a0001f3dc3f,29,2022-02-12_18h02.11.812,lexical_decision_task_DD,2021.2.3,Win32,60.76072427,,,,,,,,,,,,0.805,1,,,,,,,,,,,,,,,,,,,,,,,,0.737037199,0.139814804,0,0,0,,,,,,,PILOT,LB,z,m,./images/PILOTLB.png,,,,,,,,,,,,,,,,,,,,z,1,0.805,,,,,,,,0,26,26,134,1
,,,,,,,,,,,,,,,,,5a8e54c9f49c9a0001f3dc3f,29,2022-02-12_18h02.11.812,lexical_decision_task_DD,2021.2.3,Win32,60.76072427,,,,,,,,,,,,0.7407,1,,,,,,,,,,,,,,,,,,,,,,,,0.737037199,0.139814804,0,0,0,,,,,,,POKER,HB,z,m,./images/POKERHB.png,,,,,,,,,,,,,,,,,,,,z,1,0.7407,,,,,,,,0,27,27,151,1
,,,,,,,,,,,,,,,,,5a8e54c9f49c9a0001f3dc3f,29,2022-02-12_18h02.11.812,lexical_decision_task_DD,2021.2.3,Win32,60.76072427,,,,,,,,,,,,0.7392,1,,,,,,,,,,,,,,,,,,,,,,,,0.737037199,0.139814804,0,0,0,,,,,,,STOVE,LB,z,m,./images/STOVELB.png,,,,,,,,,,,,,,,,,,,,z,1,0.7392,,,,,,,,0,28,28,86,1
,,,,,,,,,,,,,,,,,5a8e54c9f49c9a0001f3dc3f,29,2022-02-12_18h02.11.812,lexical_decision_task_DD,2021.2.3,Win32,60.76072427,,,,,,,,,,,,0.6019,0,,,,,,,,,,,,,,,,,,,,,,,,0.737037199,0.139814804,0,0,0,,,,,,,SCREW,C,m,m,./images/SCREW.png,,,,,,,,,,,,,,,,,,,,z,0,0.6019,,,,,,,,0,29,29,24,1
,,,,,,,,,,,,,,,,,5a8e54c9f49c9a0001f3dc3f,29,2022-02-12_18h02.11.812,lexical_decision_task_DD,2021.2.3,Win32,60.76072427,,,,,,,,,,,,0.6491,1,,,,,,,,,,,,,,,,,,,,,,,,0.737037199,0.139814804,0,0,0,,,,,,,CARPET,LB,m,m,./images/CARPETLB.png,,,,,,,,,,,,,,,,,,,,m,1,0.6491,,,,,,,,0,30,30,53,1
,,,,,,,,,,,,,,,,,5a8e54c9f49c9a0001f3dc3f,29,2022-02-12_18h02.11.812,lexical_decision_task_DD,2021.2.3,Win32,60.76072427,,,,,,,,,,,,0.9509,1,,,,,,,,,,,,,,,,,,,,,,,,0.737037199,0.139814804,0,0,0,,,,,,,STOOL,HB,z,m,./images/STOOLHB.png,,,,,,,,,,,,,,,,,,,,z,1,0.9509,,,,,,,,0,31,31,127,1
,,,,,,,,,,,,,,,,,5a8e54c9f49c9a0001f3dc3f,29,2022-02-12_18h02.11.812,lexical_decision_task_DD,2021.2.3,Win32,60.76072427,,,,,,,,,,,,0.906,1,,,,,,,,,,,,,,,,,,,,,,,,0.737037199,0.139814804,0,0,0,,,,,,,CRADLE,LB,m,m,./images/CRADLELB.png,,,,,,,,,,,,,,,,,,,,m,1,0.906,,,,,,,,0,32,32,20,1
,,,,,,,,,,,,,,,,,5a8e54c9f49c9a0001f3dc3f,29,2022-02-12_18h02.11.812,lexical_decision_task_DD,2021.2.3,Win32,60.76072427,,,,,,,,,,,,0.7026,1,,,,,,,,,,,,,,,,,,,,,,,,0.737037199,0.139814804,0,0,0,,,,,,,SNAKE,HB,z,m,./images/SNAKEHB.png,,,,,,,,,,,,,,,,,,,,z,1,0.7026,,,,,,,,0,33,33,124,1
,,,,,,,,,,,,,,,,,5a8e54c9f49c9a0001f3dc3f,29,2022-02-12_18h02.11.812,lexical_decision_task_DD,2021.2.3,Win32,60.76072427,,,,,,,,,,,,0.8539,1,,,,,,,,,,,,,,,,,,,,,,,,0.737037199,0.139814804,0,0,0,,,,,,,DESERT,HB,z,m,./images/DESERTHB.png,,,,,,,,,,,,,,,,,,,,z,1,0.8539,,,,,,,,0,34,34,136,1
,,,,,,,,,,,,,,,,,5a8e54c9f49c9a0001f3dc3f,29,2022-02-12_18h02.11.812,lexical_decision_task_DD,2021.2.3,Win32,60.76072427,,,,,,,,,,,,1.1008,1,,,,,,,,,,,,,,,,,,,,,,,,0.737037199,0.139814804,0,0,0,,,,,,,MEDAL,LB,z,m,./images/MEDALLB.png,,,,,,,,,,,,,,,,,,,,z,1,1.1008,,,,,,,,0,35,35,95,1
,,,,,,,,,,,,,,,,,5a8e54c9f49c9a0001f3dc3f,29,2022-02-12_18h02.11.812,lexical_decision_task_DD,2021.2.3,Win32,60.76072427,,,,,,,,,,,,0.7343,1,,,,,,,,,,,,,,,,,,,,,,,,0.737037199,0.139814804,0,0,0,,,,,,,PISTOL,LB,z,m,./images/PISTOLLB.png,,,,,,,,,,,,,,,,,,,,z,1,0.7343,,,,,,,,0,36,36,113,1
,,,,,,,,,,,,,,,,,5a8e54c9f49c9a0001f3dc3f,29,2022-02-12_18h02.11.812,lexical_decision_task_DD,2021.2.3,Win32,60.76072427,,,,,,,,,,,,1.0351,0,,,,,,,,,,,,,,,,,,,,,,,,0.737037199,0.139814804,0,0,0,,,,,,,BERRY,LB,m,m,./images/BERRYLB.png,,,,,,,,,,,,,,,,,,,,z,0,1.0351,,,,,,,,0,37,37,47,1
,,,,,,,,,,,,,,,,,5a8e54c9f49c9a0001f3dc3f,29,2022-02-12_18h02.11.812,lexical_decision_task_DD,2021.2.3,Win32,60.76072427,,,,,,,,,,,,0.8077,1,,,,,,,,,,,,,,,,,,,,,,,,0.737037199,0.139814804,0,0,0,,,,,,,BLOKE,C,z,m,./images/BLOKE.png,,,,,,,,,,,,,,,,,,,,z,1,0.8077,,,,,,,,0,38,38,96,1
,,,,,,,,,,,,,,,,,5a8e54c9f49c9a0001f3dc3f,29,2022-02-12_18h02.11.812,lexical_decision_task_DD,2021.2.3,Win32,60.76072427,,,,,,,,,,,,0.6511,1,,,,,,,,,,,,,,,,,,,,,,,,0.737037199,0.139814804,0,0,0,,,,,,,CRUST,HB,m,m,./images/CRUSTHB.png,,,,,,,,,,,,,,,,,,,,m,1,0.6511,,,,,,,,0,39,39,79,1
,,,,,,,,,,,,,,,,,5a8e54c9f49c9a0001f3dc3f,29,2022-02-12_18h02.11.812,lexical_decision_task_DD,2021.2.3,Win32,60.76072427,,,,,,,,,,,,0.651,1,,,,,,,,,,,,,,,,,,,,,,,,0.737037199,0.139814804,0,0,0,,,,,,,BAMBOO,LB,z,m,./images/BAMBOOLB.png,,,,,,,,,,,,,,,,,,,,z,1,0.651,,,,,,,,0,40,40,89,1
,,,,,,,,,,,,,,,,,5a8e54c9f49c9a0001f3dc3f,29,2022-02-12_18h02.11.812,lexical_decision_task_DD,2021.2.3,Win32,60.76072427,,,,,,,,,,,,0.7507,1,,,,,,,,,,,,,,,,,,,,,,,,0.737037199,0.139814804,0,0,0,space,,,,,,ATTIC,C,m,m,./images/ATTIC.png,3.9573,,,,,,,,,,,,,,,,,,,m,1,0.7507,,,,,,,,0,41,41,27,1
,,,,,,,,,,,,,,,,,5a8e54c9f49c9a0001f3dc3f,29,2022-02-12_18h02.11.812,lexical_decision_task_DD,2021.2.3,Win32,60.76072427,,,,,,,,,,,,1.0678,0,,,,,,,,,,,,,,,,,,,,,,,,0.737037199,0.139814804,0,0,0,,,,,,,THROAT,C,m,m,./images/THROAT.png,,,,,,,,,,,,,,,,,,,,z,0,1.0678,,,,,,,,0,42,42,36,1
,,,,,,,,,,,,,,,,,5a8e54c9f49c9a0001f3dc3f,29,2022-02-12_18h02.11.812,lexical_decision_task_DD,2021.2.3,Win32,60.76072427,,,,,,,,,,,,0.9165,0,,,,,,,,,,,,,,,,,,,,,,,,0.737037199,0.139814804,0,0,0,,,,,,,LITTER,C,m,m,./images/LITTER.png,,,,,,,,,,,,,,,,,,,,z,0,0.9165,,,,,,,,0,43,43,78,1
,,,,,,,,,,,,,,,,,5a8e54c9f49c9a0001f3dc3f,29,2022-02-12_18h02.11.812,lexical_decision_task_DD,2021.2.3,Win32,60.76072427,,,,,,,,,,,,0.784,1,,,,,,,,,,,,,,,,,,,,,,,,0.737037199,0.139814804,0,0,0,,,,,,,VALLEY,LB,z,m,./images/VALLEYLB.png,,,,,,,,,,,,,,,,,,,,z,1,0.784,,,,,,,,0,44,44,152,1
,,,,,,,,,,,,,,,,,5a8e54c9f49c9a0001f3dc3f,29,2022-02-12_18h02.11.812,lexical_decision_task_DD,2021.2.3,Win32,60.76072427,,,,,,,,,,,,1.0673,1,,,,,,,,,,,,,,,,,,,,,,,,0.737037199,0.139814804,0,0,0,,,,,,,FLASK,C,z,m,./images/FLASK.png,,,,,,,,,,,,,,,,,,,,z,1,1.0673,,,,,,,,0,45,45,156,1
,,,,,,,,,,,,,,,,,5a8e54c9f49c9a0001f3dc3f,29,2022-02-12_18h02.11.812,lexical_decision_task_DD,2021.2.3,Win32,60.76072427,,,,,,,,,,,,0.9196,1,,,,,,,,,,,,,,,,,,,,,,,,0.737037199,0.139814804,0,0,0,,,,,,,BOILER,C,z,m,./images/BOILER.png,,,,,,,,,,,,,,,,,,,,z,1,0.9196,,,,,,,,0,46,46,120,1
,,,,,,,,,,,,,,,,,5a8e54c9f49c9a0001f3dc3f,29,2022-02-12_18h02.11.812,lexical_decision_task_DD,2021.2.3,Win32,60.76072427,,,,,,,,,,,,0.8678,0,,,,,,,,,,,,,,,,,,,,,,,,0.737037199,0.139814804,0,0,0,,,,,,,INFANT,HB,m,m,./images/INFANTHB.png,,,,,,,,,,,,,,,,,,,,z,0,0.8678,,,,,,,,0,47,47,76,1
,,,,,,,,,,,,,,,,,5a8e54c9f49c9a0001f3dc3f,29,2022-02-12_18h02.11.812,lexical_decision_task_DD,2021.2.3,Win32,60.76072427,,,,,,,,,,,,0.7672,1,,,,,,,,,,,,,,,,,,,,,,,,0.737037199,0.139814804,0,0,0,,,,,,,STAIN,C,z,m,./images/STAIN.png,,,,,,,,,,,,,,,,,,,,z,1,0.7672,,,,,,,,0,48,48,90,1
,,,,,,,,,,,,,,,,,5a8e54c9f49c9a0001f3dc3f,29,2022-02-12_18h02.11.812,lexical_decision_task_DD,2021.2.3,Win32,60.76072427,,,,,,,,,,,,0.7861,1,,,,,,,,,,,,,,,,,,,,,,,,0.737037199,0.139814804,0,0,0,,,,,,,CHALK,HB,z,m,./images/CHALKHB.png,,,,,,,,,,,,,,,,,,,,z,1,0.7861,,,,,,,,0,49,49,109,1
,,,,,,,,,,,,,,,,,5a8e54c9f49c9a0001f3dc3f,29,2022-02-12_18h02.11.812,lexical_decision_task_DD,2021.2.3,Win32,60.76072427,,,,,,,,,,,,0.6858,1,,,,,,,,,,,,,,,,,,,,,,,,0.737037199,0.139814804,0,0,0,,,,,,,TOWEL,HB,z,m,./images/TOWELHB.png,,,,,,,,,,,,,,,,,,,,z,1,0.6858,,,,,,,,0,50,50,85,1
,,,,,,,,,,,,,,,,,5a8e54c9f49c9a0001f3dc3f,29,2022-02-12_18h02.11.812,lexical_decision_task_DD,2021.2.3,Win32,60.76072427,,,,,,,,,,,,1.0079,1,,,,,,,,,,,,,,,,,,,,,,,,0.737037199,0.139814804,0,0,0,,,,,,,SPINE,LB,z,m,./images/SPINELB.png,,,,,,,,,,,,,,,,,,,,z,1,1.0079,,,,,,,,0,51,51,149,1
,,,,,,,,,,,,,,,,,5a8e54c9f49c9a0001f3dc3f,29,2022-02-12_18h02.11.812,lexical_decision_task_DD,2021.2.3,Win32,60.76072427,,,,,,,,,,,,0.7836,1,,,,,,,,,,,,,,,,,,,,,,,,0.737037199,0.139814804,0,0,0,,,,,,,SHELF,C,m,m,./images/SHELF.png,,,,,,,,,,,,,,,,,,,,m,1,0.7836,,,,,,,,0,52,52,39,1
,,,,,,,,,,,,,,,,,5a8e54c9f49c9a0001f3dc3f,29,2022-02-12_18h02.11.812,lexical_decision_task_DD,2021.2.3,Win32,60.76072427,,,,,,,,,,,,0.7265,1,,,,,,,,,,,,,,,,,,,,,,,,0.737037199,0.139814804,0,0,0,,,,,,,BONNET,LB,m,m,./images/BONNETLB.png,,,,,,,,,,,,,,,,,,,,m,1,0.7265,,,,,,,,0,53,53,11,1
,,,,,,,,,,,,,,,,,5a8e54c9f49c9a0001f3dc3f,29,2022-02-12_18h02.11.812,lexical_decision_task_DD,2021.2.3,Win32,60.76072427,,,,,,,,,,,,0.8427,1,,,,,,,,,,,,,,,,,,,,,,,,0.737037199,0.139814804,0,0,0,,,,,,,PIMPLE,LB,m,m,./images/PIMPLELB.png,,,,,,,,,,,,,,,,,,,,m,1,0.8427,,,,,,,,0,54,54,71,1
,,,,,,,,,,,,,,,,,5a8e54c9f49c9a0001f3dc3f,29,2022-02-12_18h02.11.812,lexical_decision_task_DD,2021.2.3,Win32,60.76072427,,,,,,,,,,,,0.5775,1,,,,,,,,,,,,,,,,,,,,,,,,0.737037199,0.139814804,0,0,0,,,,,,,CANDY,C,z,m,./images/CANDY.png,,,,,,,,,,,,,,,,,,,,z,1,0.5775,,,,,,,,0,55,55,123,1
,,,,,,,,,,,,,,,,,5a8e54c9f49c9a0001f3dc3f,29,2022-02-12_18h02.11.812,lexical_decision_task_DD,2021.2.3,Win32,60.76072427,,,,,,,,,,,,0.8009,1,,,,,,,,,,,,,,,,,,,,,,,,0.737037199,0.139814804,0,0,0,,,,,,,GLOVE,HB,z,m,./images/GLOVEHB.png,,,,,,,,,,,,,,,,,,,,z,1,0.8009,,,,,,,,0,56,56,157,1
,,,,,,,,,,,,,,,,,5a8e54c9f49c9a0001f3dc3f,29,2022-02-12_18h02.11.812,lexical_decision_task_DD,2021.2.3,Win32,60.76072427,,,,,,,,,,,,0.7172,1,,,,,,,,,,,,,,,,,,,,,,,,0.737037199,0.139814804,0,0,0,,,,,,,BRUSH,LB,z,m,./images/BRUSHLB.png,,,,,,,,,,,,,,,,,,,,z,1,0.7172,,,,,,,,0,57,57,143,1
,,,,,,,,,,,,,,,,,5a8e54c9f49c9a0001f3dc3f,29,2022-02-12_18h02.11.812,lexical_decision_task_DD,2021.2.3,Win32,60.76072427,,,,,,,,,,,,0.9587,0,,,,,,,,,,,,,,,,,,,,,,,,0.737037199,0.139814804,0,0,0,,,,,,,CANYON,HB,m,m,./images/CANYONHB.png,,,,,,,,,,,,,,,,,,,,z,0,0.9587,,,,,,,,0,58,58,34,1
,,,,,,,,,,,,,,,,,5a8e54c9f49c9a0001f3dc3f,29,2022-02-12_18h02.11.812,lexical_decision_task_DD,2021.2.3,Win32,60.76072427,,,,,,,,,,,,0.7341,1,,,,,,,,,,,,,,,,,,,,,,,,0.737037199,0.139814804,0,0,0,,,,,,,SAILOR,HB,m,m,./images/SAILORHB.png,,,,,,,,,,,,,,,,,,,,m,1,0.7341,,,,,,,,0,59,59,67,1
,,,,,,,,,,,,,,,,,5a8e54c9f49c9a0001f3dc3f,29,2022-02-12_18h02.11.812,lexical_decision_task_DD,2021.2.3,Win32,60.76072427,,,,,,,,,,,,0.793,0,,,,,,,,,,,,,,,,,,,,,,,,0.737037199,0.139814804,0,0,0,,,,,,,BARREL,LB,m,m,./images/BARRELLB.png,,,,,,,,,,,,,,,,,,,,z,0,0.793,,,,,,,,0,60,60,32,1
,,,,,,,,,,,,,,,,,5a8e54c9f49c9a0001f3dc3f,29,2022-02-12_18h02.11.812,lexical_decision_task_DD,2021.2.3,Win32,60.76072427,,,,,,,,,,,,0.6834,1,,,,,,,,,,,,,,,,,,,,,,,,0.737037199,0.139814804,0,0,0,,,,,,,WHISKY,LB,z,m,./images/WHISKYLB.png,,,,,,,,,,,,,,,,,,,,z,1,0.6834,,,,,,,,0,61,61,167,1
,,,,,,,,,,,,,,,,,5a8e54c9f49c9a0001f3dc3f,29,2022-02-12_18h02.11.812,lexical_decision_task_DD,2021.2.3,Win32,60.76072427,,,,,,,,,,,,0.9002,0,,,,,,,,,,,,,,,,,,,,,,,,0.737037199,0.139814804,0,0,0,,,,,,,STRING,LB,m,m,./images/STRINGLB.png,,,,,,,,,,,,,,,,,,,,z,0,0.9002,,,,,,,,0,62,62,41,1
,,,,,,,,,,,,,,,,,5a8e54c9f49c9a0001f3dc3f,29,2022-02-12_18h02.11.812,lexical_decision_task_DD,2021.2.3,Win32,60.76072427,,,,,,,,,,,,0.7018,1,,,,,,,,,,,,,,,,,,,,,,,,0.737037199,0.139814804,0,0,0,,,,,,,JELLY,HB,m,m,./images/JELLYHB.png,,,,,,,,,,,,,,,,,,,,m,1,0.7018,,,,,,,,0,63,63,64,1
,,,,,,,,,,,,,,,,,5a8e54c9f49c9a0001f3dc3f,29,2022-02-12_18h02.11.812,lexical_decision_task_DD,2021.2.3,Win32,60.76072427,,,,,,,,,,,,0.6044,1,,,,,,,,,,,,,,,,,,,,,,,,0.737037199,0.139814804,0,0,0,,,,,,,DRILL,C,z,m,./images/DRILL.png,,,,,,,,,,,,,,,,,,,,z,1,0.6044,,,,,,,,0,64,64,165,1
,,,,,,,,,,,,,,,,,5a8e54c9f49c9a0001f3dc3f,29,2022-02-12_18h02.11.812,lexical_decision_task_DD,2021.2.3,Win32,60.76072427,,,,,,,,,,,,0.6377,1,,,,,,,,,,,,,,,,,,,,,,,,0.737037199,0.139814804,0,0,0,,,,,,,TOMATO,C,m,m,./images/TOMATO.png,,,,,,,,,,,,,,,,,,,,m,1,0.6377,,,,,,,,0,65,65,0,1
,,,,,,,,,,,,,,,,,5a8e54c9f49c9a0001f3dc3f,29,2022-02-12_18h02.11.812,lexical_decision_task_DD,2021.2.3,Win32,60.76072427,,,,,,,,,,,,0.6251,0,,,,,,,,,,,,,,,,,,,,,,,,0.737037199,0.139814804,0,0,0,,,,,,,POODLE,C,m,m,./images/POODLE.png,,,,,,,,,,,,,,,,,,,,z,0,0.6251,,,,,,,,0,66,66,81,1
,,,,,,,,,,,,,,,,,5a8e54c9f49c9a0001f3dc3f,29,2022-02-12_18h02.11.812,lexical_decision_task_DD,2021.2.3,Win32,60.76072427,,,,,,,,,,,,0.6507,1,,,,,,,,,,,,,,,,,,,,,,,,0.737037199,0.139814804,0,0,0,,,,,,,FLESH,C,z,m,./images/FLESH.png,,,,,,,,,,,,,,,,,,,,z,1,0.6507,,,,,,,,0,67,67,108,1
,,,,,,,,,,,,,,,,,5a8e54c9f49c9a0001f3dc3f,29,2022-02-12_18h02.11.812,lexical_decision_task_DD,2021.2.3,Win32,60.76072427,,,,,,,,,,,,0.8519,1,,,,,,,,,,,,,,,,,,,,,,,,0.737037199,0.139814804,0,0,0,,,,,,,GARDEN,HB,z,m,./images/GARDENHB.png,,,,,,,,,,,,,,,,,,,,z,1,0.8519,,,,,,,,0,68,68,94,1
,,,,,,,,,,,,,,,,,5a8e54c9f49c9a0001f3dc3f,29,2022-02-12_18h02.11.812,lexical_decision_task_DD,2021.2.3,Win32,60.76072427,,,,,,,,,,,,0.6345,1,,,,,,,,,,,,,,,,,,,,,,,,0.737037199,0.139814804,0,0,0,,,,,,,TWINS,C,m,m,./images/TWINS.png,,,,,,,,,,,,,,,,,,,,m,1,0.6345,,,,,,,,0,69,69,60,1
,,,,,,,,,,,,,,,,,5a8e54c9f49c9a0001f3dc3f,29,2022-02-12_18h02.11.812,lexical_decision_task_DD,2021.2.3,Win32,60.76072427,,,,,,,,,,,,0.6886,1,,,,,,,,,,,,,,,,,,,,,,,,0.737037199,0.139814804,0,0,0,,,,,,,ONION,C,m,m,./images/ONION.png,,,,,,,,,,,,,,,,,,,,m,1,0.6886,,,,,,,,0,70,70,51,1
,,,,,,,,,,,,,,,,,5a8e54c9f49c9a0001f3dc3f,29,2022-02-12_18h02.11.812,lexical_decision_task_DD,2021.2.3,Win32,60.76072427,,,,,,,,,,,,0.6772,0,,,,,,,,,,,,,,,,,,,,,,,,0.737037199,0.139814804,0,0,0,,,,,,,SQUARE,C,m,m,./images/SQUARE.png,,,,,,,,,,,,,,,,,,,,z,0,0.6772,,,,,,,,0,71,71,6,1
,,,,,,,,,,,,,,,,,5a8e54c9f49c9a0001f3dc3f,29,2022-02-12_18h02.11.812,lexical_decision_task_DD,2021.2.3,Win32,60.76072427,,,,,,,,,,,,0.7756,1,,,,,,,,,,,,,,,,,,,,,,,,0.737037199,0.139814804,0,0,0,,,,,,,SWEAT,C,m,m,./images/SWEAT.png,,,,,,,,,,,,,,,,,,,,m,1,0.7756,,,,,,,,0,72,72,66,1
,,,,,,,,,,,,,,,,,5a8e54c9f49c9a0001f3dc3f,29,2022-02-12_18h02.11.812,lexical_decision_task_DD,2021.2.3,Win32,60.76072427,,,,,,,,,,,,0.9179,1,,,,,,,,,,,,,,,,,,,,,,,,0.737037199,0.139814804,0,0,0,,,,,,,MALLET,LB,m,m,./images/MALLETLB.png,,,,,,,,,,,,,,,,,,,,m,1,0.9179,,,,,,,,0,73,73,50,1
,,,,,,,,,,,,,,,,,5a8e54c9f49c9a0001f3dc3f,29,2022-02-12_18h02.11.812,lexical_decision_task_DD,2021.2.3,Win32,60.76072427,,,,,,,,,,,,0.9672,0,,,,,,,,,,,,,,,,,,,,,,,,0.737037199,0.139814804,0,0,0,,,,,,,BUBBLE,LB,z,m,./images/BUBBLELB.png,,,,,,,,,,,,,,,,,,,,m,0,0.9672,,,,,,,,0,74,74,155,1
,,,,,,,,,,,,,,,,,5a8e54c9f49c9a0001f3dc3f,29,2022-02-12_18h02.11.812,lexical_decision_task_DD,2021.2.3,Win32,60.76072427,,,,,,,,,,,,0.6227,0,,,,,,,,,,,,,,,,,,,,,,,,0.737037199,0.139814804,0,0,0,,,,,,,MUFFIN,HB,m,m,./images/MUFFINHB.png,,,,,,,,,,,,,,,,,,,,z,0,0.6227,,,,,,,,0,75,75,55,1
,,,,,,,,,,,,,,,,,5a8e54c9f49c9a0001f3dc3f,29,2022-02-12_18h02.11.812,lexical_decision_task_DD,2021.2.3,Win32,60.76072427,,,,,,,,,,,,0.7724,1,,,,,,,,,,,,,,,,,,,,,,,,0.737037199,0.139814804,0,0,0,,,,,,,SUNSET,HB,m,m,./images/SUNSETHB.png,,,,,,,,,,,,,,,,,,,,m,1,0.7724,,,,,,,,0,76,76,82,1
,,,,,,,,,,,,,,,,,5a8e54c9f49c9a0001f3dc3f,29,2022-02-12_18h02.11.812,lexical_decision_task_DD,2021.2.3,Win32,60.76072427,,,,,,,,,,,,0.8227,1,,,,,,,,,,,,,,,,,,,,,,,,0.737037199,0.139814804,0,0,0,,,,,,,RAZOR,HB,z,m,./images/RAZORHB.png,,,,,,,,,,,,,,,,,,,,z,1,0.8227,,,,,,,,0,77,77,118,1
,,,,,,,,,,,,,,,,,5a8e54c9f49c9a0001f3dc3f,29,2022-02-12_18h02.11.812,lexical_decision_task_DD,2021.2.3,Win32,60.76072427,,,,,,,,,,,,1.6586,1,,,,,,,,,,,,,,,,,,,,,,,,0.737037199,0.139814804,0,0,0,,,,,,,SWING,HB,m,m,./images/SWINGHB.png,,,,,,,,,,,,,,,,,,,,m,1,1.6586,,,,,,,,0,78,78,40,1
,,,,,,,,,,,,,,,,,5a8e54c9f49c9a0001f3dc3f,29,2022-02-12_18h02.11.812,lexical_decision_task_DD,2021.2.3,Win32,60.76072427,,,,,,,,,,,,0.6424,1,,,,,,,,,,,,,,,,,,,,,,,,0.737037199,0.139814804,0,0,0,,,,,,,PEARL,HB,m,m,./images/PEARLHB.png,,,,,,,,,,,,,,,,,,,,m,1,0.6424,,,,,,,,0,79,79,46,1
,,,,,,,,,,,,,,,,,5a8e54c9f49c9a0001f3dc3f,29,2022-02-12_18h02.11.812,lexical_decision_task_DD,2021.2.3,Win32,60.76072427,,,,,,,,,,,,0.6925,1,,,,,,,,,,,,,,,,,,,,,,,,0.737037199,0.139814804,0,0,0,,,,,,,DIVER,C,z,m,./images/DIVER.png,,,,,,,,,,,,,,,,,,,,z,1,0.6925,,,,,,,,0,80,80,93,1
,,,,,,,,,,,,,,,,,5a8e54c9f49c9a0001f3dc3f,29,2022-02-12_18h02.11.812,lexical_decision_task_DD,2021.2.3,Win32,60.76072427,,,,,,,,,,,,0.852,1,,,,,,,,,,,,,,,,,,,,,,,,0.737037199,0.139814804,0,0,0,,,,,,,BASKET,LB,z,m,./images/BASKETLB.png,,,,,,,,,,,,,,,,,,,,z,1,0.852,,,,,,,,0,81,81,128,1
,,,,,,,,,,,,,,,,,5a8e54c9f49c9a0001f3dc3f,29,2022-02-12_18h02.11.812,lexical_decision_task_DD,2021.2.3,Win32,60.76072427,,,,,,,,,,,,0.81,1,,,,,,,,,,,,,,,,,,,,,,,,0.737037199,0.139814804,0,0,0,,,,,,,COUCH,LB,m,m,./images/COUCHLB.png,,,,,,,,,,,,,,,,,,,,m,1,0.81,,,,,,,,0,82,82,77,1
,,,,,,,,,,,,,,,,,5a8e54c9f49c9a0001f3dc3f,29,2022-02-12_18h02.11.812,lexical_decision_task_DD,2021.2.3,Win32,60.76072427,,,,,,,,,,,,1.1198,1,,,,,,,,,,,,,,,,,,,,,,,,0.737037199,0.139814804,0,0,0,space,,,,,,BURIAL,LB,m,m,./images/BURIALLB.png,3.0679,,,,,,,,,,,,,,,,,,,m,1,1.1198,,,,,,,,0,83,83,59,1
,,,,,,,,,,,,,,,,,5a8e54c9f49c9a0001f3dc3f,29,2022-02-12_18h02.11.812,lexical_decision_task_DD,2021.2.3,Win32,60.76072427,,,,,,,,,,,,0.9344,1,,,,,,,,,,,,,,,,,,,,,,,,0.737037199,0.139814804,0,0,0,,,,,,,KITTEN,C,m,m,./images/KITTEN.png,,,,,,,,,,,,,,,,,,,,m,1,0.9344,,,,,,,,0,84,84,45,1
,,,,,,,,,,,,,,,,,5a8e54c9f49c9a0001f3dc3f,29,2022-02-12_18h02.11.812,lexical_decision_task_DD,2021.2.3,Win32,60.76072427,,,,,,,,,,,,0.7511,0,,,,,,,,,,,,,,,,,,,,,,,,0.737037199,0.139814804,0,0,0,,,,,,,WRIST,HB,m,m,./images/WRISTHB.png,,,,,,,,,,,,,,,,,,,,z,0,0.7511,,,,,,,,0,85,85,25,1
,,,,,,,,,,,,,,,,,5a8e54c9f49c9a0001f3dc3f,29,2022-02-12_18h02.11.812,lexical_decision_task_DD,2021.2.3,Win32,60.76072427,,,,,,,,,,,,0.7009,1,,,,,,,,,,,,,,,,,,,,,,,,0.737037199,0.139814804,0,0,0,,,,,,,GRAPE,HB,z,m,./images/GRAPEHB.png,,,,,,,,,,,,,,,,,,,,z,1,0.7009,,,,,,,,0,86,86,100,1
,,,,,,,,,,,,,,,,,5a8e54c9f49c9a0001f3dc3f,29,2022-02-12_18h02.11.812,lexical_decision_task_DD,2021.2.3,Win32,60.76072427,,,,,,,,,,,,0.9204,1,,,,,,,,,,,,,,,,,,,,,,,,0.737037199,0.139814804,0,0,0,,,,,,,CEMENT,LB,m,m,./images/CEMENTLB.png,,,,,,,,,,,,,,,,,,,,m,1,0.9204,,,,,,,,0,87,87,74,1
,,,,,,,,,,,,,,,,,5a8e54c9f49c9a0001f3dc3f,29,2022-02-12_18h02.11.812,lexical_decision_task_DD,2021.2.3,Win32,60.76072427,,,,,,,,,,,,0.6504,1,,,,,,,,,,,,,,,,,,,,,,,,0.737037199,0.139814804,0,0,0,,,,,,,KIDNEY,C,m,m,./images/KIDNEY.png,,,,,,,,,,,,,,,,,,,,m,1,0.6504,,,,,,,,0,88,88,21,1
,,,,,,,,,,,,,,,,,5a8e54c9f49c9a0001f3dc3f,29,2022-02-12_18h02.11.812,lexical_decision_task_DD,2021.2.3,Win32,60.76072427,,,,,,,,,,,,0.7012,1,,,,,,,,,,,,,,,,,,,,,,,,0.737037199,0.139814804,0,0,0,,,,,,,DANCER,C,z,m,./images/DANCER.png,,,,,,,,,,,,,,,,,,,,z,1,0.7012,,,,,,,,0,89,89,105,1
,,,,,,,,,,,,,,,,,5a8e54c9f49c9a0001f3dc3f,29,2022-02-12_18h02.11.812,lexical_decision_task_DD,2021.2.3,Win32,60.76072427,,,,,,,,,,,,1.0842,1,,,,,,,,,,,,,,,,,,,,,,,,0.737037199,0.139814804,0,0,0,,,,,,,COOKER,C,m,m,./images/COOKER.png,,,,,,,,,,,,,,,,,,,,m,1,1.0842,,,,,,,,0,90,90,69,1
,,,,,,,,,,,,,,,,,5a8e54c9f49c9a0001f3dc3f,29,2022-02-12_18h02.11.812,lexical_decision_task_DD,2021.2.3,Win32,60.76072427,,,,,,,,,,,,0.7871,0,,,,,,,,,,,,,,,,,,,,,,,,0.737037199,0.139814804,0,0,0,,,,,,,FINGER,C,m,m,./images/FINGER.png,,,,,,,,,,,,,,,,,,,,z,0,0.7871,,,,,,,,0,91,91,3,1
,,,,,,,,,,,,,,,,,5a8e54c9f49c9a0001f3dc3f,29,2022-02-12_18h02.11.812,lexical_decision_task_DD,2021.2.3,Win32,60.76072427,,,,,,,,,,,,0.7677,1,,,,,,,,,,,,,,,,,,,,,,,,0.737037199,0.139814804,0,0,0,,,,,,,COLLAR,C,z,m,./images/COLLAR.png,,,,,,,,,,,,,,,,,,,,z,1,0.7677,,,,,,,,0,92,92,99,1
,,,,,,,,,,,,,,,,,5a8e54c9f49c9a0001f3dc3f,29,2022-02-12_18h02.11.812,lexical_decision_task_DD,2021.2.3,Win32,60.76072427,,,,,,,,,,,,0.721,1,,,,,,,,,,,,,,,,,,,,,,,,0.737037199,0.139814804,0,0,0,,,,,,,WEASEL,LB,m,m,./images/WEASELLB.png,,,,,,,,,,,,,,,,,,,,m,1,0.721,,,,,,,,0,93,93,80,1
,,,,,,,,,,,,,,,,,5a8e54c9f49c9a0001f3dc3f,29,2022-02-12_18h02.11.812,lexical_decision_task_DD,2021.2.3,Win32,60.76072427,,,,,,,,,,,,1.0843,0,,,,,,,,,,,,,,,,,,,,,,,,0.737037199,0.139814804,0,0,0,,,,,,,MUMMY,HB,z,m,./images/MUMMYHB.png,,,,,,,,,,,,,,,,,,,,m,0,1.0843,,,,,,,,0,94,94,130,1
,,,,,,,,,,,,,,,,,5a8e54c9f49c9a0001f3dc3f,29,2022-02-12_18h02.11.812,lexical_decision_task_DD,2021.2.3,Win32,60.76072427,,,,,,,,,,,,0.967,1,,,,,,,,,,,,,,,,,,,,,,,,0.737037199,0.139814804,0,0,0,,,,,,,SNACK,HB,m,m,./images/SNACKHB.png,,,,,,,,,,,,,,,,,,,,m,1,0.967,,,,,,,,0,95,95,73,1
,,,,,,,,,,,,,,,,,5a8e54c9f49c9a0001f3dc3f,29,2022-02-12_18h02.11.812,lexical_decision_task_DD,2021.2.3,Win32,60.76072427,,,,,,,,,,,,0.7203,1,,,,,,,,,,,,,,,,,,,,,,,,0.737037199,0.139814804,0,0,0,,,,,,,PEBBLE,HB,z,m,./images/PEBBLEHB.png,,,,,,,,,,,,,,,,,,,,z,1,0.7203,,,,,,,,0,96,96,166,1
,,,,,,,,,,,,,,,,,5a8e54c9f49c9a0001f3dc3f,29,2022-02-12_18h02.11.812,lexical_decision_task_DD,2021.2.3,Win32,60.76072427,,,,,,,,,,,,0.8194,1,,,,,,,,,,,,,,,,,,,,,,,,0.737037199,0.139814804,0,0,0,,,,,,,SAUNA,C,z,m,./images/SAUNA.png,,,,,,,,,,,,,,,,,,,,z,1,0.8194,,,,,,,,0,97,97,117,1
,,,,,,,,,,,,,,,,,5a8e54c9f49c9a0001f3dc3f,29,2022-02-12_18h02.11.812,lexical_decision_task_DD,2021.2.3,Win32,60.76072427,,,,,,,,,,,,0.6516,1,,,,,,,,,,,,,,,,,,,,,,,,0.737037199,0.139814804,0,0,0,,,,,,,MONKEY,C,z,m,./images/MONKEY.png,,,,,,,,,,,,,,,,,,,,z,1,0.6516,,,,,,,,0,98,98,129,1
,,,,,,,,,,,,,,,,,5a8e54c9f49c9a0001f3dc3f,29,2022-02-12_18h02.11.812,lexical_decision_task_DD,2021.2.3,Win32,60.76072427,,,,,,,,,,,,0.9378,0,,,,,,,,,,,,,,,,,,,,,,,,0.737037199,0.139814804,0,0,0,,,,,,,CRATER,C,z,m,./images/CRATER.png,,,,,,,,,,,,,,,,,,,,m,0,0.9378,,,,,,,,0,99,99,87,1
,,,,,,,,,,,,,,,,,5a8e54c9f49c9a0001f3dc3f,29,2022-02-12_18h02.11.812,lexical_decision_task_DD,2021.2.3,Win32,60.76072427,,,,,,,,,,,,0.6334,1,,,,,,,,,,,,,,,,,,,,,,,,0.737037199,0.139814804,0,0,0,,,,,,,CLOTH,LB,z,m,./images/CLOTHLB.png,,,,,,,,,,,,,,,,,,,,z,1,0.6334,,,,,,,,0,100,100,107,1
,,,,,,,,,,,,,,,,,5a8e54c9f49c9a0001f3dc3f,29,2022-02-12_18h02.11.812,lexical_decision_task_DD,2021.2.3,Win32,60.76072427,,,,,,,,,,,,0.8393,1,,,,,,,,,,,,,,,,,,,,,,,,0.737037199,0.139814804,0,0,0,,,,,,,HOCKEY,LB,z,m,./images/HOCKEYLB.png,,,,,,,,,,,,,,,,,,,,z,1,0.8393,,,,,,,,0,101,101,116,1
,,,,,,,,,,,,,,,,,5a8e54c9f49c9a0001f3dc3f,29,2022-02-12_18h02.11.812,lexical_decision_task_DD,2021.2.3,Win32,60.76072427,,,,,,,,,,,,0.9083,0,,,,,,,,,,,,,,,,,,,,,,,,0.737037199,0.139814804,0,0,0,,,,,,,PAINT,HB,m,m,./images/PAINTHB.png,,,,,,,,,,,,,,,,,,,,z,0,0.9083,,,,,,,,0,102,102,7,1
,,,,,,,,,,,,,,,,,5a8e54c9f49c9a0001f3dc3f,29,2022-02-12_18h02.11.812,lexical_decision_task_DD,2021.2.3,Win32,60.76072427,,,,,,,,,,,,0.5766,1,,,,,,,,,,,,,,,,,,,,,,,,0.737037199,0.139814804,0,0,0,,,,,,,MELON,HB,m,m,./images/MELONHB.png,,,,,,,,,,,,,,,,,,,,m,1,0.5766,,,,,,,,0,103,103,22,1
,,,,,,,,,,,,,,,,,5a8e54c9f49c9a0001f3dc3f,29,2022-02-12_18h02.11.812,lexical_decision_task_DD,2021.2.3,Win32,60.76072427,,,,,,,,,,,,0.959,1,,,,,,,,,,,,,,,,,,,,,,,,0.737037199,0.139814804,0,0,0,,,,,,,WAGON,HB,z,m,./images/WAGONHB.png,,,,,,,,,,,,,,,,,,,,z,1,0.959,,,,,,,,0,104,104,91,1
,,,,,,,,,,,,,,,,,5a8e54c9f49c9a0001f3dc3f,29,2022-02-12_18h02.11.812,lexical_decision_task_DD,2021.2.3,Win32,60.76072427,,,,,,,,,,,,0.8758,0,,,,,,,,,,,,,,,,,,,,,,,,0.737037199,0.139814804,0,0,0,,,,,,,JUNGLE,LB,m,m,./images/JUNGLELB.png,,,,,,,,,,,,,,,,,,,,z,0,0.8758,,,,,,,,0,105,105,83,1
,,,,,,,,,,,,,,,,,5a8e54c9f49c9a0001f3dc3f,29,2022-02-12_18h02.11.812,lexical_decision_task_DD,2021.2.3,Win32,60.76072427,,,,,,,,,,,,0.8581,1,,,,,,,,,,,,,,,,,,,,,,,,0.737037199,0.139814804,0,0,0,,,,,,,BAKER,C,z,m,./images/BAKER.png,,,,,,,,,,,,,,,,,,,,z,1,0.8581,,,,,,,,0,106,106,147,1
,,,,,,,,,,,,,,,,,5a8e54c9f49c9a0001f3dc3f,29,2022-02-12_18h02.11.812,lexical_decision_task_DD,2021.2.3,Win32,60.76072427,,,,,,,,,,,,0.9009,0,,,,,,,,,,,,,,,,,,,,,,,,0.737037199,0.139814804,0,0,0,,,,,,,BELLY,HB,m,m,./images/BELLYHB.png,,,,,,,,,,,,,,,,,,,,z,0,0.9009,,,,,,,,0,107,107,10,1
,,,,,,,,,,,,,,,,,5a8e54c9f49c9a0001f3dc3f,29,2022-02-12_18h02.11.812,lexical_decision_task_DD,2021.2.3,Win32,60.76072427,,,,,,,,,,,,0.634,1,,,,,,,,,,,,,,,,,,,,,,,,0.737037199,0.139814804,0,0,0,,,,,,,TRIPOD,C,m,m,./images/TRIPOD.png,,,,,,,,,,,,,,,,,,,,m,1,0.634,,,,,,,,0,108,108,54,1
,,,,,,,,,,,,,,,,,5a8e54c9f49c9a0001f3dc3f,29,2022-02-12_18h02.11.812,lexical_decision_task_DD,2021.2.3,Win32,60.76072427,,,,,,,,,,,,0.6411,1,,,,,,,,,,,,,,,,,,,,,,,,0.737037199,0.139814804,0,0,0,,,,,,,BUTTER,C,z,m,./images/BUTTER.png,,,,,,,,,,,,,,,,,,,,z,1,0.6411,,,,,,,,0,109,109,111,1
,,,,,,,,,,,,,,,,,5a8e54c9f49c9a0001f3dc3f,29,2022-02-12_18h02.11.812,lexical_decision_task_DD,2021.2.3,Win32,60.76072427,,,,,,,,,,,,0.7175,1,,,,,,,,,,,,,,,,,,,,,,,,0.737037199,0.139814804,0,0,0,,,,,,,LIZARD,LB,m,m,./images/LIZARDLB.png,,,,,,,,,,,,,,,,,,,,m,1,0.7175,,,,,,,,0,110,110,44,1
,,,,,,,,,,,,,,,,,5a8e54c9f49c9a0001f3dc3f,29,2022-02-12_18h02.11.812,lexical_decision_task_DD,2021.2.3,Win32,60.76072427,,,,,,,,,,,,0.5938,1,,,,,,,,,,,,,,,,,,,,,,,,0.737037199,0.139814804,0,0,0,,,,,,,SHORE,C,m,m,./images/SHORE.png,,,,,,,,,,,,,,,,,,,,m,1,0.5938,,,,,,,,0,111,111,12,1
,,,,,,,,,,,,,,,,,5a8e54c9f49c9a0001f3dc3f,29,2022-02-12_18h02.11.812,lexical_decision_task_DD,2021.2.3,Win32,60.76072427,,,,,,,,,,,,0.6106,1,,,,,,,,,,,,,,,,,,,,,,,,0.737037199,0.139814804,0,0,0,,,,,,,WHEEL,LB,z,m,./images/WHEELLB.png,,,,,,,,,,,,,,,,,,,,z,1,0.6106,,,,,,,,0,112,112,161,1
,,,,,,,,,,,,,,,,,5a8e54c9f49c9a0001f3dc3f,29,2022-02-12_18h02.11.812,lexical_decision_task_DD,2021.2.3,Win32,60.76072427,,,,,,,,,,,,0.6059,1,,,,,,,,,,,,,,,,,,,,,,,,0.737037199,0.139814804,0,0,0,,,,,,,PURSE,LB,m,m,./images/PURSELB.png,,,,,,,,,,,,,,,,,,,,m,1,0.6059,,,,,,,,0,113,113,62,1
,,,,,,,,,,,,,,,,,5a8e54c9f49c9a0001f3dc3f,29,2022-02-12_18h02.11.812,lexical_decision_task_DD,2021.2.3,Win32,60.76072427,,,,,,,,,,,,0.6673,1,,,,,,,,,,,,,,,,,,,,,,,,0.737037199,0.139814804,0,0,0,,,,,,,CANDLE,HB,m,m,./images/CANDLEHB.png,,,,,,,,,,,,,,,,,,,,m,1,0.6673,,,,,,,,0,114,114,61,1
,,,,,,,,,,,,,,,,,5a8e54c9f49c9a0001f3dc3f,29,2022-02-12_18h02.11.812,lexical_decision_task_DD,2021.2.3,Win32,60.76072427,,,,,,,,,,,,0.6245,1,,,,,,,,,,,,,,,,,,,,,,,,0.737037199,0.139814804,0,0,0,,,,,,,DONKEY,HB,z,m,./images/DONKEYHB.png,,,,,,,,,,,,,,,,,,,,z,1,0.6245,,,,,,,,0,115,115,103,1
,,,,,,,,,,,,,,,,,5a8e54c9f49c9a0001f3dc3f,29,2022-02-12_18h02.11.812,lexical_decision_task_DD,2021.2.3,Win32,60.76072427,,,,,,,,,,,,0.8058,0,,,,,,,,,,,,,,,,,,,,,,,,0.737037199,0.139814804,0,0,0,,,,,,,PARADE,LB,z,m,./images/PARADELB.png,,,,,,,,,,,,,,,,,,,,m,0,0.8058,,,,,,,,0,116,116,101,1
,,,,,,,,,,,,,,,,,5a8e54c9f49c9a0001f3dc3f,29,2022-02-12_18h02.11.812,lexical_decision_task_DD,2021.2.3,Win32,60.76072427,,,,,,,,,,,,0.6502,0,,,,,,,,,,,,,,,,,,,,,,,,0.737037199,0.139814804,0,0,0,,,,,,,PEACH,LB,m,m,./images/PEACHLB.png,,,,,,,,,,,,,,,,,,,,z,0,0.6502,,,,,,,,0,117,117,35,1
,,,,,,,,,,,,,,,,,5a8e54c9f49c9a0001f3dc3f,29,2022-02-12_18h02.11.812,lexical_decision_task_DD,2021.2.3,Win32,60.76072427,,,,,,,,,,,,0.7504,1,,,,,,,,,,,,,,,,,,,,,,,,0.737037199,0.139814804,0,0,0,,,,,,,HAMMER,C,z,m,./images/HAMMER.png,,,,,,,,,,,,,,,,,,,,z,1,0.7504,,,,,,,,0,118,118,159,1
,,,,,,,,,,,,,,,,,5a8e54c9f49c9a0001f3dc3f,29,2022-02-12_18h02.11.812,lexical_decision_task_DD,2021.2.3,Win32,60.76072427,,,,,,,,,,,,0.584,1,,,,,,,,,,,,,,,,,,,,,,,,0.737037199,0.139814804,0,0,0,,,,,,,HEATER,LB,z,m,./images/HEATERLB.png,,,,,,,,,,,,,,,,,,,,z,1,0.584,,,,,,,,0,119,119,140,1
,,,,,,,,,,,,,,,,,5a8e54c9f49c9a0001f3dc3f,29,2022-02-12_18h02.11.812,lexical_decision_task_DD,2021.2.3,Win32,60.76072427,,,,,,,,,,,,0.7048,0,,,,,,,,,,,,,,,,,,,,,,,,0.737037199,0.139814804,0,0,0,,,,,,,MUSCLE,HB,m,m,./images/MUSCLEHB.png,,,,,,,,,,,,,,,,,,,,z,0,0.7048,,,,,,,,0,120,120,4,1
,,,,,,,,,,,,,,,,,5a8e54c9f49c9a0001f3dc3f,29,2022-02-12_18h02.11.812,lexical_decision_task_DD,2021.2.3,Win32,60.76072427,,,,,,,,,,,,0.8346,0,,,,,,,,,,,,,,,,,,,,,,,,0.737037199,0.139814804,0,0,0,,,,,,,STORM,C,m,m,./images/STORM.png,,,,,,,,,,,,,,,,,,,,z,0,0.8346,,,,,,,,0,121,121,30,1
,,,,,,,,,,,,,,,,,5a8e54c9f49c9a0001f3dc3f,29,2022-02-12_18h02.11.812,lexical_decision_task_DD,2021.2.3,Win32,60.76072427,,,,,,,,,,,,0.6227,1,,,,,,,,,,,,,,,,,,,,,,,,0.737037199,0.139814804,0,0,0,,,,,,,MIRROR,C,m,m,./images/MIRROR.png,,,,,,,,,,,,,,,,,,,,m,1,0.6227,,,,,,,,0,122,122,63,1
,,,,,,,,,,,,,,,,,5a8e54c9f49c9a0001f3dc3f,29,2022-02-12_18h02.11.812,lexical_decision_task_DD,2021.2.3,Win32,60.76072427,,,,,,,,,,,,0.6359,0,,,,,,,,,,,,,,,,,,,,,,,,0.737037199,0.139814804,0,0,0,,,,,,,PASTA,LB,m,m,./images/PASTALB.png,,,,,,,,,,,,,,,,,,,,z,0,0.6359,,,,,,,,0,123,123,5,1
,,,,,,,,,,,,,,,,,5a8e54c9f49c9a0001f3dc3f,29,2022-02-12_18h02.11.812,lexical_decision_task_DD,2021.2.3,Win32,60.76072427,,,,,,,,,,,,0.6193,0,,,,,,,,,,,,,,,,,,,,,,,,0.737037199,0.139814804,0,0,0,,,,,,,BIRTH,HB,m,m,./images/BIRTHHB.png,,,,,,,,,,,,,,,,,,,,z,0,0.6193,,,,,,,,0,124,124,37,1
,,,,,,,,,,,,,,,,,5a8e54c9f49c9a0001f3dc3f,29,2022-02-12_18h02.11.812,lexical_decision_task_DD,2021.2.3,Win32,60.76072427,,,,,,,,,,,,0.5539,1,,,,,,,,,,,,,,,,,,,,,,,,0.737037199,0.139814804,0,0,0,space,,,,,,BISHOP,HB,z,m,./images/BISHOPHB.png,3.366,,,,,,,,,,,,,,,,,,,z,1,0.5539,,,,,,,,0,125,125,133,1
,,,,,,,,,,,,,,,,,5a8e54c9f49c9a0001f3dc3f,29,2022-02-12_18h02.11.812,lexical_decision_task_DD,2021.2.3,Win32,60.76072427,,,,,,,,,,,,0.7123,1,,,,,,,,,,,,,,,,,,,,,,,,0.737037199,0.139814804,0,0,0,,,,,,,BOXER,HB,z,m,./images/BOXERHB.png,,,,,,,,,,,,,,,,,,,,z,1,0.7123,,,,,,,,0,126,126,88,1
,,,,,,,,,,,,,,,,,5a8e54c9f49c9a0001f3dc3f,29,2022-02-12_18h02.11.812,lexical_decision_task_DD,2021.2.3,Win32,60.76072427,,,,,,,,,,,,0.6165,1,,,,,,,,,,,,,,,,,,,,,,,,0.737037199,0.139814804,0,0,0,,,,,,,ALLEY,HB,z,m,./images/ALLEYHB.png,,,,,,,,,,,,,,,,,,,,z,1,0.6165,,,,,,,,0,127,127,139,1
,,,,,,,,,,,,,,,,,5a8e54c9f49c9a0001f3dc3f,29,2022-02-12_18h02.11.812,lexical_decision_task_DD,2021.2.3,Win32,60.76072427,,,,,,,,,,,,0.9007,1,,,,,,,,,,,,,,,,,,,,,,,,0.737037199,0.139814804,0,0,0,,,,,,,BEARD,LB,m,m,./images/BEARDLB.png,,,,,,,,,,,,,,,,,,,,m,1,0.9007,,,,,,,,0,128,128,2,1
,,,,,,,,,,,,,,,,,5a8e54c9f49c9a0001f3dc3f,29,2022-02-12_18h02.11.812,lexical_decision_task_DD,2021.2.3,Win32,60.76072427,,,,,,,,,,,,0.5844,1,,,,,,,,,,,,,,,,,,,,,,,,0.737037199,0.139814804,0,0,0,,,,,,,MAGGOT,C,m,m,./images/MAGGOT.png,,,,,,,,,,,,,,,,,,,,m,1,0.5844,,,,,,,,0,129,129,33,1
,,,,,,,,,,,,,,,,,5a8e54c9f49c9a0001f3dc3f,29,2022-02-12_18h02.11.812,lexical_decision_task_DD,2021.2.3,Win32,60.76072427,,,,,,,,,,,,0.6698,1,,,,,,,,,,,,,,,,,,,,,,,,0.737037199,0.139814804,0,0,0,,,,,,,BROOM,C,z,m,./images/BROOM.png,,,,,,,,,,,,,,,,,,,,z,1,0.6698,,,,,,,,0,130,130,162,1
,,,,,,,,,,,,,,,,,5a8e54c9f49c9a0001f3dc3f,29,2022-02-12_18h02.11.812,lexical_decision_task_DD,2021.2.3,Win32,60.76072427,,,,,,,,,,,,0.6675,1,,,,,,,,,,,,,,,,,,,,,,,,0.737037199,0.139814804,0,0,0,,,,,,,MOOSE,C,m,m,./images/MOOSE.png,,,,,,,,,,,,,,,,,,,,m,1,0.6675,,,,,,,,0,131,131,57,1
,,,,,,,,,,,,,,,,,5a8e54c9f49c9a0001f3dc3f,29,2022-02-12_18h02.11.812,lexical_decision_task_DD,2021.2.3,Win32,60.76072427,,,,,,,,,,,,0.6203,1,,,,,,,,,,,,,,,,,,,,,,,,0.737037199,0.139814804,0,0,0,,,,,,,JUMPER,LB,z,m,./images/JUMPERLB.png,,,,,,,,,,,,,,,,,,,,z,1,0.6203,,,,,,,,0,132,132,158,1
,,,,,,,,,,,,,,,,,5a8e54c9f49c9a0001f3dc3f,29,2022-02-12_18h02.11.812,lexical_decision_task_DD,2021.2.3,Win32,60.76072427,,,,,,,,,,,,0.7847,1,,,,,,,,,,,,,,,,,,,,,,,,0.737037199,0.139814804,0,0,0,,,,,,,POSTER,LB,z,m,./images/POSTERLB.png,,,,,,,,,,,,,,,,,,,,z,1,0.7847,,,,,,,,0,133,133,137,1
,,,,,,,,,,,,,,,,,5a8e54c9f49c9a0001f3dc3f,29,2022-02-12_18h02.11.812,lexical_decision_task_DD,2021.2.3,Win32,60.76072427,,,,,,,,,,,,0.6607,1,,,,,,,,,,,,,,,,,,,,,,,,0.737037199,0.139814804,0,0,0,,,,,,,NOOSE,C,m,m,./images/NOOSE.png,,,,,,,,,,,,,,,,,,,,m,1,0.6607,,,,,,,,0,134,134,72,1
,,,,,,,,,,,,,,,,,5a8e54c9f49c9a0001f3dc3f,29,2022-02-12_18h02.11.812,lexical_decision_task_DD,2021.2.3,Win32,60.76072427,,,,,,,,,,,,0.6675,0,,,,,,,,,,,,,,,,,,,,,,,,0.737037199,0.139814804,0,0,0,,,,,,,PLANK,HB,m,m,./images/PLANKHB.png,,,,,,,,,,,,,,,,,,,,z,0,0.6675,,,,,,,,0,135,135,1,1
