key_resp.keys,instr_done_touch.x,instr_done_touch.y,instr_done_touch.leftButton,instr_done_touch.midButton,instr_done_touch.rightButton,instr_done_touch.clicked_name,instruction_pages.thisRepN,instruction_pages.thisTrialN,instruction_pages.thisN,instruction_pages.thisIndex,instruction_pages.ran,pageN,phase,instruct_text,has_image,instruct_image,participant,age,date,expName,psychopyVersion,OS,frameRate,response.keys,response.corr,touch_resp.x,touch_resp.y,touch_resp.leftButton,touch_resp.midButton,touch_resp.rightButton,touch_resp.time,touch_resp.clicked_name,rt,corr,practrials.thisRepN,practrials.thisTrialN,practrials.thisN,practrials.thisIndex,practrials.ran,TrialID,Target,corrAns,end_of_practice_trials_pages.thisRepN,end_of_practice_trials_pages.thisTrialN,end_of_practice_trials_pages.thisN,end_of_practice_trials_pages.thisIndex,end_of_practice_trials_pages.ran,key_resp_2.keys,key_resp_2.corr,targ_click.x,targ_click.y,targ_click.leftButton,targ_click.midButton,targ_click.rightButton,targ_click.time,targ_click.clicked_name,break_done_touch.x,break_done_touch.y,break_done_touch.leftButton,break_done_touch.midButton,break_done_touch.rightButton,break_done_keyboard.keys,maintrials.thisRepN,maintrials.thisTrialN,maintrials.thisN,maintrials.thisIndex,maintrials.ran,string,blur,study,lex,stim_path,break_done_touch.clicked_name,mouse_2.x,mouse_2.y,mouse_2.leftButton,mouse_2.midButton,mouse_2.rightButton,mouse_2.clicked_name,slider.response,slider.rt,trials.thisRepN,trials.thisTrialN,trials.thisN,trials.thisIndex,trials.ran,test_instructions.thisRepN,test_instructions.thisTrialN,test_instructions.thisN,test_instructions.thisIndex,test_instructions.ran,key_resp_3.keys,key_resp_3.corr,test_click.x,test_click.y,test_click.leftButton,test_click.midButton,test_click.rightButton,test_click.time,test_click.clicked_name,test_phase.thisRepN,test_phase.thisTrialN,test_phase.thisN,test_phase.thisIndex,test_phase.ran
,0.078571429,-0.398469388,1,0,0,instr_done_button,0,0,0,0,1,1,instructions,"INSTRUCTIONS
At the start of each trial, look at the plus sign  (+) in the center of the screen.  This tells you that a trial is about to begin and where to look. Second, the plus sign will disappear and a string of letters will appear. Your task is to determine if the string of letters is a word or not. If the item is a word press the M key (on keyboard)  or touch the word button (phone/tablet).  If the item is not a word,  press the  Z key (on keyboard)  or touch the nonword button (on phone/tablet). 
Press the space bar or touch  continue.",0,,5afcdf4796a88e0001ff2b61,20,2022-02-12_12h35.53.492,lexical_decision_task_DD_L6,2021.2.3,iPhone,58.82352941,,,,,,,,,,,,,,,,,,,,,,,,,,,,,,,,,,,,,,,,,,,,,,,,,,,,,,,,,,,,,,,,,,,,,,,,,,,,,,,,,,
,0.157142857,-0.379081633,1,0,0,instr_done_button,0,1,1,1,1,2,instructions,"If your device has a keyboard, press the 'Z' key for nonwords and the 'M' key for words.





Press the space bar or touch the button below to continue.",0,keyboard-example.gif,5afcdf4796a88e0001ff2b61,20,2022-02-12_12h35.53.492,lexical_decision_task_DD_L6,2021.2.3,iPhone,58.82352941,,,,,,,,,,,,,,,,,,,,,,,,,,,,,,,,,,,,,,,,,,,,,,,,,,,,,,,,,,,,,,,,,,,,,,,,,,,,,,,,,,
,0.142857143,-0.385204082,1,0,0,instr_done_button,0,2,2,2,1,3,instructions,"If you are using a touchscreen only device, use the buttons on the screen. Do not use the mouse.





Press the space bar or touch the button below to continue.",0,touchscreen-example.gif,5afcdf4796a88e0001ff2b61,20,2022-02-12_12h35.53.492,lexical_decision_task_DD_L6,2021.2.3,iPhone,58.82352941,,,,,,,,,,,,,,,,,,,,,,,,,,,,,,,,,,,,,,,,,,,,,,,,,,,,,,,,,,,,,,,,,,,,,,,,,,,,,,,,,,
,0.153061224,-0.389285714,1,0,0,instr_done_button,0,3,3,3,1,4,instructions,"It is very important that you respond as quickly and accurately as possible, as each letter string will only be on the screen for two seconds. If you do not respond within this time, the message 'Too slow!' will be displayed and the experiment will progress to the next letter string. The first 20 trials will be practice trials and you will receive feedback on your answers. 

Press the space bar or touch the button below to start the practice trials.",0,,5afcdf4796a88e0001ff2b61,20,2022-02-12_12h35.53.492,lexical_decision_task_DD_L6,2021.2.3,iPhone,58.82352941,,,,,,,,,,,,,,,,,,,,,,,,,,,,,,,,,,,,,,,,,,,,,,,,,,,,,,,,,,,,,,,,,,,,,,,,,,,,,,,,,,
,,,,,,,,,,,,,,,,,5afcdf4796a88e0001ff2b61,20,2022-02-12_12h35.53.492,lexical_decision_task_DD_L6,2021.2.3,iPhone,58.82352941,,0,-0.35,-0.323979592,1,0,0,1.72,button_left,1.72,1,0,0,0,15,1,1001,WHAISE,z,,,,,,,,,,,,,,,,,,,,,,,,,,,,,,,,,,,,,,,,,,,,,,,,,,,,,,,,,,,,,,,
,,,,,,,,,,,,,,,,,5afcdf4796a88e0001ff2b61,20,2022-02-12_12h35.53.492,lexical_decision_task_DD_L6,2021.2.3,iPhone,58.82352941,,0,-0.359183673,-0.304591837,1,0,0,0.79,button_left,0.79,1,0,1,1,12,1,1001,SPRINY,z,,,,,,,,,,,,,,,,,,,,,,,,,,,,,,,,,,,,,,,,,,,,,,,,,,,,,,,,,,,,,,,
,,,,,,,,,,,,,,,,,5afcdf4796a88e0001ff2b61,20,2022-02-12_12h35.53.492,lexical_decision_task_DD_L6,2021.2.3,iPhone,58.82352941,,0,-0.352040816,-0.291326531,1,0,0,0.642,button_left,0.642,1,0,2,2,14,1,1001,THRALE,z,,,,,,,,,,,,,,,,,,,,,,,,,,,,,,,,,,,,,,,,,,,,,,,,,,,,,,,,,,,,,,,
,,,,,,,,,,,,,,,,,5afcdf4796a88e0001ff2b61,20,2022-02-12_12h35.53.492,lexical_decision_task_DD_L6,2021.2.3,iPhone,58.82352941,,0,-0.360204082,-0.289285714,1,0,0,0.791,button_left,0.791,1,0,3,3,13,1,1001,ROUPET,z,,,,,,,,,,,,,,,,,,,,,,,,,,,,,,,,,,,,,,,,,,,,,,,,,,,,,,,,,,,,,,,
,,,,,,,,,,,,,,,,,5afcdf4796a88e0001ff2b61,20,2022-02-12_12h35.53.492,lexical_decision_task_DD_L6,2021.2.3,iPhone,58.82352941,,0,-0.36122449,-0.289285714,1,0,0,0.724,button_left,0.724,1,0,4,4,11,1,1001,RASHET,z,,,,,,,,,,,,,,,,,,,,,,,,,,,,,,,,,,,,,,,,,,,,,,,,,,,,,,,,,,,,,,,
,,,,,,,,,,,,,,,,,5afcdf4796a88e0001ff2b61,20,2022-02-12_12h35.53.492,lexical_decision_task_DD_L6,2021.2.3,iPhone,58.82352941,,0,0.320408163,-0.342346939,1,0,0,0.742,button_right,0.742,1,0,5,5,5,1,1001,OBTAIN,m,,,,,,,,,,,,,,,,,,,,,,,,,,,,,,,,,,,,,,,,,,,,,,,,,,,,,,,,,,,,,,,
,,,,,,,,,,,,,,,,,5afcdf4796a88e0001ff2b61,20,2022-02-12_12h35.53.492,lexical_decision_task_DD_L6,2021.2.3,iPhone,58.82352941,,0,0.336734694,-0.353571429,1,0,0,0.89,button_right,0.89,1,0,6,6,1,1,1001,ADJUST,m,,,,,,,,,,,,,,,,,,,,,,,,,,,,,,,,,,,,,,,,,,,,,,,,,,,,,,,,,,,,,,,
,,,,,,,,,,,,,,,,,5afcdf4796a88e0001ff2b61,20,2022-02-12_12h35.53.492,lexical_decision_task_DD_L6,2021.2.3,iPhone,58.82352941,,0,-0.354081633,-0.308673469,1,0,0,0.922,button_left,0.922,1,0,7,7,9,1,1001,FARINY,z,,,,,,,,,,,,,,,,,,,,,,,,,,,,,,,,,,,,,,,,,,,,,,,,,,,,,,,,,,,,,,,
,,,,,,,,,,,,,,,,,5afcdf4796a88e0001ff2b61,20,2022-02-12_12h35.53.492,lexical_decision_task_DD_L6,2021.2.3,iPhone,58.82352941,,0,0.330612245,-0.323979592,1,0,0,0.924,button_right,0.924,1,0,8,8,4,1,1001,SQUEAK,m,,,,,,,,,,,,,,,,,,,,,,,,,,,,,,,,,,,,,,,,,,,,,,,,,,,,,,,,,,,,,,,
,,,,,,,,,,,,,,,,,5afcdf4796a88e0001ff2b61,20,2022-02-12_12h35.53.492,lexical_decision_task_DD_L6,2021.2.3,iPhone,58.82352941,,0,0.370408163,-0.250510204,1,0,0,0.756,button_right,0.756,1,0,9,9,0,1,1001,UTOPIA,m,,,,,,,,,,,,,,,,,,,,,,,,,,,,,,,,,,,,,,,,,,,,,,,,,,,,,,,,,,,,,,,
,,,,,,,,,,,,,,,,,5afcdf4796a88e0001ff2b61,20,2022-02-12_12h35.53.492,lexical_decision_task_DD_L6,2021.2.3,iPhone,58.82352941,,0,0.352040816,-0.30255102,1,0,0,0.726,button_right,0.726,1,0,10,10,2,1,1001,ALMOND,m,,,,,,,,,,,,,,,,,,,,,,,,,,,,,,,,,,,,,,,,,,,,,,,,,,,,,,,,,,,,,,,
,,,,,,,,,,,,,,,,,5afcdf4796a88e0001ff2b61,20,2022-02-12_12h35.53.492,lexical_decision_task_DD_L6,2021.2.3,iPhone,58.82352941,,0,0.333673469,-0.308673469,1,0,0,1.559,button_right,1.559,0,0,11,11,10,1,1001,INLADE,z,,,,,,,,,,,,,,,,,,,,,,,,,,,,,,,,,,,,,,,,,,,,,,,,,,,,,,,,,,,,,,,
,,,,,,,,,,,,,,,,,5afcdf4796a88e0001ff2b61,20,2022-02-12_12h35.53.492,lexical_decision_task_DD_L6,2021.2.3,iPhone,58.82352941,,0,0.341836735,-0.304591837,1,0,0,1.023,button_right,1.023,1,0,12,12,7,1,1001,VOLUME,m,,,,,,,,,,,,,,,,,,,,,,,,,,,,,,,,,,,,,,,,,,,,,,,,,,,,,,,,,,,,,,,
,,,,,,,,,,,,,,,,,5afcdf4796a88e0001ff2b61,20,2022-02-12_12h35.53.492,lexical_decision_task_DD_L6,2021.2.3,iPhone,58.82352941,,0,0.335714286,-0.311734694,1,0,0,0.673,button_right,0.673,1,0,13,13,6,1,1001,ZOMBIE,m,,,,,,,,,,,,,,,,,,,,,,,,,,,,,,,,,,,,,,,,,,,,,,,,,,,,,,,,,,,,,,,
,,,,,,,,,,,,,,,,,5afcdf4796a88e0001ff2b61,20,2022-02-12_12h35.53.492,lexical_decision_task_DD_L6,2021.2.3,iPhone,58.82352941,,0,0.305102041,-0.330102041,1,0,0,0.824,button_right,0.824,1,0,14,14,3,1,1001,MATRIX,m,,,,,,,,,,,,,,,,,,,,,,,,,,,,,,,,,,,,,,,,,,,,,,,,,,,,,,,,,,,,,,,
,,,,,,,,,,,,,,,,,5afcdf4796a88e0001ff2b61,20,2022-02-12_12h35.53.492,lexical_decision_task_DD_L6,2021.2.3,iPhone,58.82352941,,0,-0.371428571,-0.292346939,1,0,0,0.725,button_left,0.725,1,0,15,15,8,1,1001,ASLERT,z,,,,,,,,,,,,,,,,,,,,,,,,,,,,,,,,,,,,,,,,,,,,,,,,,,,,,,,,,,,,,,,
,0.130612245,-0.416836735,1,0,0,instr_done_button,,,,,,1,end_of_practice,"You have completed the practice trials. During the experimental trials, you will not receive feedback. 
Before you begin, please ensure that you are in a comfortable and quiet location and will not be disturbed for about 15 minutes, as we cannot use your data if you do not complete all the trials. 
 When you are ready to start the experimental trials, please press space or touch the button below.",,,5afcdf4796a88e0001ff2b61,20,2022-02-12_12h35.53.492,lexical_decision_task_DD_L6,2021.2.3,iPhone,58.82352941,,,,,,,,,,,,,,,,,,,,0,0,0,0,1,,,,,,,,,,,,,,,,,,,,,,,,,,,,,,,,,,,,,,,,,,,,,,,,,,,,,,,,,,
,,,,,,,,,,,,,,,,,5afcdf4796a88e0001ff2b61,20,2022-02-12_12h35.53.492,lexical_decision_task_DD_L6,2021.2.3,iPhone,58.82352941,,,,,,,,,,1.954,1,,,,,,,,,,,,,,,0,0.297959184,-0.321938776,1,0,0,1.954,button_right_main,0.297959184,-0.321938776,1,0,0,,0,0,0,20,1,GRANNY,HB,m,m,./images/GRANNYHB.png,,,,,,,,,,,,,,,,,,,,,,,,,,,,,,,,,
,,,,,,,,,,,,,,,,,5afcdf4796a88e0001ff2b61,20,2022-02-12_12h35.53.492,lexical_decision_task_DD_L6,2021.2.3,iPhone,58.82352941,,,,,,,,,,0.825,1,,,,,,,,,,,,,,,0,-0.358163265,-0.291326531,1,0,0,0.825,button_left_main,-0.358163265,-0.291326531,1,0,0,,0,1,1,94,1,BLANS,HB,z,z,./images/BLANSHB.png,,,,,,,,,,,,,,,,,,,,,,,,,,,,,,,,,
,,,,,,,,,,,,,,,,,5afcdf4796a88e0001ff2b61,20,2022-02-12_12h35.53.492,lexical_decision_task_DD_L6,2021.2.3,iPhone,58.82352941,,,,,,,,,,0.81,1,,,,,,,,,,,,,,,0,-0.351020408,-0.332142857,1,0,0,0.81,button_left_main,-0.351020408,-0.332142857,1,0,0,,0,2,2,107,1,FASKS,LB,z,z,./images/FASKSLB.png,,,,,,,,,,,,,,,,,,,,,,,,,,,,,,,,,
,,,,,,,,,,,,,,,,,5afcdf4796a88e0001ff2b61,20,2022-02-12_12h35.53.492,lexical_decision_task_DD_L6,2021.2.3,iPhone,58.82352941,,,,,,,,,,0.723,1,,,,,,,,,,,,,,,0,0.283673469,-0.325,1,0,0,0.723,button_right_main,0.283673469,-0.325,1,0,0,,0,3,3,68,1,VALLEY,HB,m,m,./images/VALLEYHB.png,,,,,,,,,,,,,,,,,,,,,,,,,,,,,,,,,
,,,,,,,,,,,,,,,,,5afcdf4796a88e0001ff2b61,20,2022-02-12_12h35.53.492,lexical_decision_task_DD_L6,2021.2.3,iPhone,58.82352941,,,,,,,,,,0.61,1,,,,,,,,,,,,,,,0,-0.364285714,-0.319897959,1,0,0,0.61,button_left_main,-0.364285714,-0.319897959,1,0,0,,0,4,4,111,1,HOSSE,C,z,z,./images/HOSSE.png,,,,,,,,,,,,,,,,,,,,,,,,,,,,,,,,,
,,,,,,,,,,,,,,,,,5afcdf4796a88e0001ff2b61,20,2022-02-12_12h35.53.492,lexical_decision_task_DD_L6,2021.2.3,iPhone,58.82352941,,,,,,,,,,1.075,1,,,,,,,,,,,,,,,0,0.287755102,-0.325,1,0,0,1.075,button_right_main,0.287755102,-0.325,1,0,0,,0,5,5,22,1,CLOWN,C,m,m,./images/CLOWN.png,,,,,,,,,,,,,,,,,,,,,,,,,,,,,,,,,
,,,,,,,,,,,,,,,,,5afcdf4796a88e0001ff2b61,20,2022-02-12_12h35.53.492,lexical_decision_task_DD_L6,2021.2.3,iPhone,58.82352941,,,,,,,,,,0.71,1,,,,,,,,,,,,,,,0,-0.37244898,-0.305612245,1,0,0,0.71,button_left_main,-0.37244898,-0.305612245,1,0,0,,0,6,6,138,1,PLICE,C,z,z,./images/PLICE.png,,,,,,,,,,,,,,,,,,,,,,,,,,,,,,,,,
,,,,,,,,,,,,,,,,,5afcdf4796a88e0001ff2b61,20,2022-02-12_12h35.53.492,lexical_decision_task_DD_L6,2021.2.3,iPhone,58.82352941,,,,,,,,,,0.691,1,,,,,,,,,,,,,,,0,-0.353061224,-0.314795918,1,0,0,0.691,button_left_main,-0.353061224,-0.314795918,1,0,0,,0,7,7,105,1,MOKER,C,z,z,./images/MOKER.png,,,,,,,,,,,,,,,,,,,,,,,,,,,,,,,,,
,,,,,,,,,,,,,,,,,5afcdf4796a88e0001ff2b61,20,2022-02-12_12h35.53.492,lexical_decision_task_DD_L6,2021.2.3,iPhone,58.82352941,,,,,,,,,,0.642,1,,,,,,,,,,,,,,,0,0.273469388,-0.323979592,1,0,0,0.642,button_right_main,0.273469388,-0.323979592,1,0,0,,0,8,8,58,1,CANOE,C,m,m,./images/CANOE.png,,,,,,,,,,,,,,,,,,,,,,,,,,,,,,,,,
,,,,,,,,,,,,,,,,,5afcdf4796a88e0001ff2b61,20,2022-02-12_12h35.53.492,lexical_decision_task_DD_L6,2021.2.3,iPhone,58.82352941,,,,,,,,,,0.693,1,,,,,,,,,,,,,,,0,-0.363265306,-0.329081633,1,0,0,0.693,button_left_main,-0.363265306,-0.329081633,1,0,0,,0,9,9,112,1,MYING,HB,z,z,./images/MYINGHB.png,,,,,,,,,,,,,,,,,,,,,,,,,,,,,,,,,
,,,,,,,,,,,,,,,,,5afcdf4796a88e0001ff2b61,20,2022-02-12_12h35.53.492,lexical_decision_task_DD_L6,2021.2.3,iPhone,58.82352941,,,,,,,,,,0.674,1,,,,,,,,,,,,,,,0,-0.37244898,-0.320918367,1,0,0,0.674,button_left_main,-0.37244898,-0.320918367,1,0,0,,0,10,10,98,1,BAMPS,LB,z,z,./images/BAMPSLB.png,,,,,,,,,,,,,,,,,,,,,,,,,,,,,,,,,
,,,,,,,,,,,,,,,,,5afcdf4796a88e0001ff2b61,20,2022-02-12_12h35.53.492,lexical_decision_task_DD_L6,2021.2.3,iPhone,58.82352941,,,,,,,,,,0.676,1,,,,,,,,,,,,,,,0,0.291836735,-0.309693878,1,0,0,0.676,button_right_main,0.291836735,-0.309693878,1,0,0,,0,11,11,43,1,STOOL,C,m,m,./images/STOOL.png,,,,,,,,,,,,,,,,,,,,,,,,,,,,,,,,,
,,,,,,,,,,,,,,,,,5afcdf4796a88e0001ff2b61,20,2022-02-12_12h35.53.492,lexical_decision_task_DD_L6,2021.2.3,iPhone,58.82352941,,,,,,,,,,0.626,1,,,,,,,,,,,,,,,0,-0.363265306,-0.275,1,0,0,0.626,button_left_main,-0.363265306,-0.275,1,0,0,,0,12,12,132,1,SCIFF,C,z,z,./images/SCIFF.png,,,,,,,,,,,,,,,,,,,,,,,,,,,,,,,,,
,,,,,,,,,,,,,,,,,5afcdf4796a88e0001ff2b61,20,2022-02-12_12h35.53.492,lexical_decision_task_DD_L6,2021.2.3,iPhone,58.82352941,,,,,,,,,,0.609,1,,,,,,,,,,,,,,,0,0.284693878,-0.316836735,1,0,0,0.609,button_right_main,0.284693878,-0.316836735,1,0,0,,0,13,13,13,1,BUNNY,C,m,m,./images/BUNNY.png,,,,,,,,,,,,,,,,,,,,,,,,,,,,,,,,,
,,,,,,,,,,,,,,,,,5afcdf4796a88e0001ff2b61,20,2022-02-12_12h35.53.492,lexical_decision_task_DD_L6,2021.2.3,iPhone,58.82352941,,,,,,,,,,0.743,1,,,,,,,,,,,,,,,0,0.285714286,-0.312755102,1,0,0,0.743,button_right_main,0.285714286,-0.312755102,1,0,0,,0,14,14,39,1,CANDY,LB,m,m,./images/CANDYLB.png,,,,,,,,,,,,,,,,,,,,,,,,,,,,,,,,,
,,,,,,,,,,,,,,,,,5afcdf4796a88e0001ff2b61,20,2022-02-12_12h35.53.492,lexical_decision_task_DD_L6,2021.2.3,iPhone,58.82352941,,,,,,,,,,1.51,1,,,,,,,,,,,,,,,0,-0.353061224,-0.36377551,1,0,0,1.51,button_left_main,-0.353061224,-0.36377551,1,0,0,,0,15,15,84,1,HAXES,C,z,z,./images/HAXES.png,,,,,,,,,,,,,,,,,,,,,,,,,,,,,,,,,
,,,,,,,,,,,,,,,,,5afcdf4796a88e0001ff2b61,20,2022-02-12_12h35.53.492,lexical_decision_task_DD_L6,2021.2.3,iPhone,58.82352941,,,,,,,,,,1.875,0,,,,,,,,,,,,,,,0,0.309183673,-0.304591837,1,0,0,1.875,button_right_main,0.309183673,-0.304591837,1,0,0,,0,16,16,130,1,CRILL,HB,z,z,./images/CRILLHB.png,,,,,,,,,,,,,,,,,,,,,,,,,,,,,,,,,
,,,,,,,,,,,,,,,,,5afcdf4796a88e0001ff2b61,20,2022-02-12_12h35.53.492,lexical_decision_task_DD_L6,2021.2.3,iPhone,58.82352941,,,,,,,,,,0.794,1,,,,,,,,,,,,,,,0,0.333673469,-0.326020408,1,0,0,0.794,button_right_main,0.333673469,-0.326020408,1,0,0,,0,17,17,30,1,SLOPE,LB,m,m,./images/SLOPELB.png,,,,,,,,,,,,,,,,,,,,,,,,,,,,,,,,,
,,,,,,,,,,,,,,,,,5afcdf4796a88e0001ff2b61,20,2022-02-12_12h35.53.492,lexical_decision_task_DD_L6,2021.2.3,iPhone,58.82352941,,,,,,,,,,0.743,1,,,,,,,,,,,,,,,0,0.304081633,-0.344387755,1,0,0,0.743,button_right_main,0.304081633,-0.344387755,1,0,0,,0,18,18,57,1,FERRY,LB,m,m,./images/FERRYLB.png,,,,,,,,,,,,,,,,,,,,,,,,,,,,,,,,,
,,,,,,,,,,,,,,,,,5afcdf4796a88e0001ff2b61,20,2022-02-12_12h35.53.492,lexical_decision_task_DD_L6,2021.2.3,iPhone,58.82352941,,,,,,,,,,0.542,1,,,,,,,,,,,,,,,0,0.28877551,-0.343367347,1,0,0,0.542,button_right_main,0.28877551,-0.343367347,1,0,0,,0,19,19,77,1,WHEEL,HB,m,m,./images/WHEELHB.png,,,,,,,,,,,,,,,,,,,,,,,,,,,,,,,,,
,,,,,,,,,,,,,,,,,5afcdf4796a88e0001ff2b61,20,2022-02-12_12h35.53.492,lexical_decision_task_DD_L6,2021.2.3,iPhone,58.82352941,,,,,,,,,,1.727,1,,,,,,,,,,,,,,,0,-0.37244898,-0.325,1,0,0,1.727,button_left_main,-0.37244898,-0.325,1,0,0,,0,20,20,119,1,PAFER,LB,z,z,./images/PAFERLB.png,,,,,,,,,,,,,,,,,,,,,,,,,,,,,,,,,
,,,,,,,,,,,,,,,,,5afcdf4796a88e0001ff2b61,20,2022-02-12_12h35.53.492,lexical_decision_task_DD_L6,2021.2.3,iPhone,58.82352941,,,,,,,,,,0.859,1,,,,,,,,,,,,,,,0,-0.35,-0.355612245,1,0,0,0.859,button_left_main,-0.35,-0.355612245,1,0,0,,0,21,21,164,1,SGREW,LB,z,z,./images/SGREWLB.png,,,,,,,,,,,,,,,,,,,,,,,,,,,,,,,,,
,,,,,,,,,,,,,,,,,5afcdf4796a88e0001ff2b61,20,2022-02-12_12h35.53.492,lexical_decision_task_DD_L6,2021.2.3,iPhone,58.82352941,,,,,,,,,,0.842,1,,,,,,,,,,,,,,,0,-0.354081633,-0.330102041,1,0,0,0.842,button_left_main,-0.354081633,-0.330102041,1,0,0,,0,22,22,96,1,KEAMS,C,z,z,./images/KEAMS.png,,,,,,,,,,,,,,,,,,,,,,,,,,,,,,,,,
,,,,,,,,,,,,,,,,,5afcdf4796a88e0001ff2b61,20,2022-02-12_12h35.53.492,lexical_decision_task_DD_L6,2021.2.3,iPhone,58.82352941,,,,,,,,,,1.045,1,,,,,,,,,,,,,,,0,0.291836735,-0.350510204,1,0,0,1.045,button_right_main,0.291836735,-0.350510204,1,0,0,,0,23,23,53,1,POSTER,HB,m,m,./images/POSTERHB.png,,,,,,,,,,,,,,,,,,,,,,,,,,,,,,,,,
,,,,,,,,,,,,,,,,,5afcdf4796a88e0001ff2b61,20,2022-02-12_12h35.53.492,lexical_decision_task_DD_L6,2021.2.3,iPhone,58.82352941,,,,,,,,,,0.692,1,,,,,,,,,,,,,,,0,-0.358163265,-0.344387755,1,0,0,0.692,button_left_main,-0.358163265,-0.344387755,1,0,0,,0,24,24,135,1,JOODY,C,z,z,./images/JOODY.png,,,,,,,,,,,,,,,,,,,,,,,,,,,,,,,,,
,,,,,,,,,,,,,,,,,5afcdf4796a88e0001ff2b61,20,2022-02-12_12h35.53.492,lexical_decision_task_DD_L6,2021.2.3,iPhone,58.82352941,,,,,,,,,,0.71,0,,,,,,,,,,,,,,,0,0.315306122,-0.360714286,1,0,0,0.71,button_right_main,0.315306122,-0.360714286,1,0,0,,0,25,25,154,1,THINT,HB,z,z,./images/THINTHB.png,,,,,,,,,,,,,,,,,,,,,,,,,,,,,,,,,
,,,,,,,,,,,,,,,,,5afcdf4796a88e0001ff2b61,20,2022-02-12_12h35.53.492,lexical_decision_task_DD_L6,2021.2.3,iPhone,58.82352941,,,,,,,,,,0.911,1,,,,,,,,,,,,,,,0,0.309183673,-0.327040816,1,0,0,0.911,button_right_main,0.309183673,-0.327040816,1,0,0,,0,26,26,72,1,FLASK,LB,m,m,./images/FLASKLB.png,,,,,,,,,,,,,,,,,,,,,,,,,,,,,,,,,
,,,,,,,,,,,,,,,,,5afcdf4796a88e0001ff2b61,20,2022-02-12_12h35.53.492,lexical_decision_task_DD_L6,2021.2.3,iPhone,58.82352941,,,,,,,,,,0.726,1,,,,,,,,,,,,,,,0,0.319387755,-0.321938776,1,0,0,0.726,button_right_main,0.319387755,-0.321938776,1,0,0,,0,27,27,21,1,DANCER,LB,m,m,./images/DANCERLB.png,,,,,,,,,,,,,,,,,,,,,,,,,,,,,,,,,
,,,,,,,,,,,,,,,,,5afcdf4796a88e0001ff2b61,20,2022-02-12_12h35.53.492,lexical_decision_task_DD_L6,2021.2.3,iPhone,58.82352941,,,,,,,,,,0.61,1,,,,,,,,,,,,,,,0,0.315306122,-0.351530612,1,0,0,0.61,button_right_main,0.315306122,-0.351530612,1,0,0,,0,28,28,73,1,GLOVE,C,m,m,./images/GLOVE.png,,,,,,,,,,,,,,,,,,,,,,,,,,,,,,,,,
,,,,,,,,,,,,,,,,,5afcdf4796a88e0001ff2b61,20,2022-02-12_12h35.53.492,lexical_decision_task_DD_L6,2021.2.3,iPhone,58.82352941,,,,,,,,,,0.692,1,,,,,,,,,,,,,,,0,-0.419387755,-0.246428571,1,0,0,0.692,button_left_main,-0.419387755,-0.246428571,1,0,0,,0,29,29,120,1,RINED,C,z,z,./images/RINED.png,,,,,,,,,,,,,,,,,,,,,,,,,,,,,,,,,
,,,,,,,,,,,,,,,,,5afcdf4796a88e0001ff2b61,20,2022-02-12_12h35.53.492,lexical_decision_task_DD_L6,2021.2.3,iPhone,58.82352941,,,,,,,,,,2.01,1,,,,,,,,,,,,,,,0,-0.404081633,-0.341326531,1,0,0,2.01,button_left_main,-0.404081633,-0.341326531,1,0,0,,0,30,30,109,1,BURGE,HB,z,z,./images/BURGEHB.png,,,,,,,,,,,,,,,,,,,,,,,,,,,,,,,,,
,,,,,,,,,,,,,,,,,5afcdf4796a88e0001ff2b61,20,2022-02-12_12h35.53.492,lexical_decision_task_DD_L6,2021.2.3,iPhone,58.82352941,,,,,,,,,,0.807,1,,,,,,,,,,,,,,,0,0.306122449,-0.327040816,1,0,0,0.807,button_right_main,0.306122449,-0.327040816,1,0,0,,0,31,31,7,1,WAGON,C,m,m,./images/WAGON.png,,,,,,,,,,,,,,,,,,,,,,,,,,,,,,,,,
,,,,,,,,,,,,,,,,,5afcdf4796a88e0001ff2b61,20,2022-02-12_12h35.53.492,lexical_decision_task_DD_L6,2021.2.3,iPhone,58.82352941,,,,,,,,,,0.988,1,,,,,,,,,,,,,,,0,-0.337755102,-0.35255102,1,0,0,0.988,button_left_main,-0.337755102,-0.35255102,1,0,0,,0,32,32,150,1,NOOLS,C,z,z,./images/NOOLS.png,,,,,,,,,,,,,,,,,,,,,,,,,,,,,,,,,
,,,,,,,,,,,,,,,,,5afcdf4796a88e0001ff2b61,20,2022-02-12_12h35.53.492,lexical_decision_task_DD_L6,2021.2.3,iPhone,58.82352941,,,,,,,,,,0.74,1,,,,,,,,,,,,,,,0,-0.330612245,-0.280102041,1,0,0,0.74,button_left_main,-0.330612245,-0.280102041,1,0,0,,0,33,33,121,1,CEERS,HB,z,z,./images/CEERSHB.png,,,,,,,,,,,,,,,,,,,,,,,,,,,,,,,,,
,,,,,,,,,,,,,,,,,5afcdf4796a88e0001ff2b61,20,2022-02-12_12h35.53.492,lexical_decision_task_DD_L6,2021.2.3,iPhone,58.82352941,,,,,,,,,,0.857,1,,,,,,,,,,,,,,,0,-0.339795918,-0.326020408,1,0,0,0.857,button_left_main,-0.339795918,-0.326020408,1,0,0,,0,34,34,159,1,CUDDY,C,z,z,./images/CUDDY.png,,,,,,,,,,,,,,,,,,,,,,,,,,,,,,,,,
,,,,,,,,,,,,,,,,,5afcdf4796a88e0001ff2b61,20,2022-02-12_12h35.53.492,lexical_decision_task_DD_L6,2021.2.3,iPhone,58.82352941,,,,,,,,,,0.625,1,,,,,,,,,,,,,,,0,-0.335714286,-0.309693878,1,0,0,0.625,button_left_main,-0.335714286,-0.309693878,1,0,0,,0,35,35,129,1,PRANS,C,z,z,./images/PRANS.png,,,,,,,,,,,,,,,,,,,,,,,,,,,,,,,,,
,,,,,,,,,,,,,,,,,5afcdf4796a88e0001ff2b61,20,2022-02-12_12h35.53.492,lexical_decision_task_DD_L6,2021.2.3,iPhone,58.82352941,,,,,,,,,,0.642,1,,,,,,,,,,,,,,,0,-0.32244898,-0.308673469,1,0,0,0.642,button_left_main,-0.32244898,-0.308673469,1,0,0,,0,36,36,87,1,TRING,C,z,z,./images/TRING.png,,,,,,,,,,,,,,,,,,,,,,,,,,,,,,,,,
,,,,,,,,,,,,,,,,,5afcdf4796a88e0001ff2b61,20,2022-02-12_12h35.53.492,lexical_decision_task_DD_L6,2021.2.3,iPhone,58.82352941,,,,,,,,,,0.892,0,,,,,,,,,,,,,,,0,-0.331632653,-0.294387755,1,0,0,0.892,button_left_main,-0.331632653,-0.294387755,1,0,0,,0,37,37,46,1,MUMMY,C,m,m,./images/MUMMY.png,,,,,,,,,,,,,,,,,,,,,,,,,,,,,,,,,
,,,,,,,,,,,,,,,,,5afcdf4796a88e0001ff2b61,20,2022-02-12_12h35.53.492,lexical_decision_task_DD_L6,2021.2.3,iPhone,58.82352941,,,,,,,,,,0.891,1,,,,,,,,,,,,,,,0,0.283673469,-0.355612245,1,0,0,0.891,button_right_main,0.283673469,-0.355612245,1,0,0,,0,38,38,79,1,RULER,C,m,m,./images/RULER.png,,,,,,,,,,,,,,,,,,,,,,,,,,,,,,,,,
,,,,,,,,,,,,,,,,,5afcdf4796a88e0001ff2b61,20,2022-02-12_12h35.53.492,lexical_decision_task_DD_L6,2021.2.3,iPhone,58.82352941,,,,,,,,,,0.728,1,,,,,,,,,,,,,,,0,0.3,-0.358673469,1,0,0,0.728,button_right_main,0.3,-0.358673469,1,0,0,,0,39,39,33,1,SAUNA,LB,m,m,./images/SAUNALB.png,,,,,,,,,,,,,,,,,,,,,,,,,,,,,,,,,
,,,,,,,,,,,,,,,,,5afcdf4796a88e0001ff2b61,20,2022-02-12_12h35.53.492,lexical_decision_task_DD_L6,2021.2.3,iPhone,58.82352941,,,,,,,,,,0.526,1,,,,,,,,,,,,,,,0,0.295918367,-0.34744898,1,0,0,0.526,button_right_main,0.295918367,-0.34744898,1,0,0,,0,40,40,40,1,SNAKE,C,m,m,./images/SNAKE.png,,,,,,,,,,,,,,,,,,,,,,,,,,,,,,,,,
,,,,,,,,,,,,,,,,,5afcdf4796a88e0001ff2b61,20,2022-02-12_12h35.53.492,lexical_decision_task_DD_L6,2021.2.3,iPhone,58.82352941,,,,,,,,,,0.594,1,,,,,,,,,,,,,,,0,-0.313265306,-0.312755102,1,0,0,0.594,button_left_main,0.168367347,-0.41377551,1,0,0,,0,41,41,152,1,FRAIN,LB,z,z,./images/FRAINLB.png,break_done_button,,,,,,,,,,,,,,,,,,,,,,,,,,,,,,,,
,,,,,,,,,,,,,,,,,5afcdf4796a88e0001ff2b61,20,2022-02-12_12h35.53.492,lexical_decision_task_DD_L6,2021.2.3,iPhone,58.82352941,,,,,,,,,,0.858,1,,,,,,,,,,,,,,,0,0.27755102,-0.373979592,1,0,0,0.858,button_right_main,0.27755102,-0.373979592,1,0,0,,0,42,42,35,1,LLAMA,HB,m,m,./images/LLAMAHB.png,,,,,,,,,,,,,,,,,,,,,,,,,,,,,,,,,
,,,,,,,,,,,,,,,,,5afcdf4796a88e0001ff2b61,20,2022-02-12_12h35.53.492,lexical_decision_task_DD_L6,2021.2.3,iPhone,58.82352941,,,,,,,,,,0.643,1,,,,,,,,,,,,,,,0,-0.331632653,-0.332142857,1,0,0,0.643,button_left_main,-0.331632653,-0.332142857,1,0,0,,0,43,43,155,1,CANGY,LB,z,z,./images/CANGYLB.png,,,,,,,,,,,,,,,,,,,,,,,,,,,,,,,,,
,,,,,,,,,,,,,,,,,5afcdf4796a88e0001ff2b61,20,2022-02-12_12h35.53.492,lexical_decision_task_DD_L6,2021.2.3,iPhone,58.82352941,,,,,,,,,,0.659,1,,,,,,,,,,,,,,,0,-0.337755102,-0.345408163,1,0,0,0.659,button_left_main,-0.337755102,-0.345408163,1,0,0,,0,44,44,126,1,GUELS,C,z,z,./images/GUELS.png,,,,,,,,,,,,,,,,,,,,,,,,,,,,,,,,,
,,,,,,,,,,,,,,,,,5afcdf4796a88e0001ff2b61,20,2022-02-12_12h35.53.492,lexical_decision_task_DD_L6,2021.2.3,iPhone,58.82352941,,,,,,,,,,0.559,1,,,,,,,,,,,,,,,0,-0.356122449,-0.309693878,1,0,0,0.559,button_left_main,-0.356122449,-0.309693878,1,0,0,,0,45,45,116,1,BALGY,LB,z,z,./images/BALGYLB.png,,,,,,,,,,,,,,,,,,,,,,,,,,,,,,,,,
,,,,,,,,,,,,,,,,,5afcdf4796a88e0001ff2b61,20,2022-02-12_12h35.53.492,lexical_decision_task_DD_L6,2021.2.3,iPhone,58.82352941,,,,,,,,,,0.873,1,,,,,,,,,,,,,,,0,0.254081633,-0.367857143,1,0,0,0.873,button_right_main,0.254081633,-0.367857143,1,0,0,,0,46,46,17,1,PARADE,HB,m,m,./images/PARADEHB.png,,,,,,,,,,,,,,,,,,,,,,,,,,,,,,,,,
,,,,,,,,,,,,,,,,,5afcdf4796a88e0001ff2b61,20,2022-02-12_12h35.53.492,lexical_decision_task_DD_L6,2021.2.3,iPhone,58.82352941,,,,,,,,,,0.675,1,,,,,,,,,,,,,,,0,-0.357142857,-0.34744898,1,0,0,0.675,button_left_main,-0.357142857,-0.34744898,1,0,0,,0,47,47,117,1,STEEG,C,z,z,./images/STEEG.png,,,,,,,,,,,,,,,,,,,,,,,,,,,,,,,,,
,,,,,,,,,,,,,,,,,5afcdf4796a88e0001ff2b61,20,2022-02-12_12h35.53.492,lexical_decision_task_DD_L6,2021.2.3,iPhone,58.82352941,,,,,,,,,,0.693,1,,,,,,,,,,,,,,,0,-0.358163265,-0.346428571,1,0,0,0.693,button_left_main,-0.358163265,-0.346428571,1,0,0,,0,48,48,125,1,MOOKY,LB,z,z,./images/MOOKYLB.png,,,,,,,,,,,,,,,,,,,,,,,,,,,,,,,,,
,,,,,,,,,,,,,,,,,5afcdf4796a88e0001ff2b61,20,2022-02-12_12h35.53.492,lexical_decision_task_DD_L6,2021.2.3,iPhone,58.82352941,,,,,,,,,,1.344,1,,,,,,,,,,,,,,,0,0.27244898,-0.346428571,1,0,0,1.344,button_right_main,0.27244898,-0.346428571,1,0,0,,0,49,49,28,1,CASINO,C,m,m,./images/CASINO.png,,,,,,,,,,,,,,,,,,,,,,,,,,,,,,,,,
,,,,,,,,,,,,,,,,,5afcdf4796a88e0001ff2b61,20,2022-02-12_12h35.53.492,lexical_decision_task_DD_L6,2021.2.3,iPhone,58.82352941,,,,,,,,,,0.642,1,,,,,,,,,,,,,,,0,-0.358163265,-0.335204082,1,0,0,0.642,button_left_main,-0.358163265,-0.335204082,1,0,0,,0,50,50,167,1,ZONET,LB,z,z,./images/ZONETLB.png,,,,,,,,,,,,,,,,,,,,,,,,,,,,,,,,,
,,,,,,,,,,,,,,,,,5afcdf4796a88e0001ff2b61,20,2022-02-12_12h35.53.492,lexical_decision_task_DD_L6,2021.2.3,iPhone,58.82352941,,,,,,,,,,0.825,1,,,,,,,,,,,,,,,0,0.319387755,-0.332142857,1,0,0,0.825,button_right_main,0.319387755,-0.332142857,1,0,0,,0,51,51,69,1,ARROW,LB,m,m,./images/ARROWLB.png,,,,,,,,,,,,,,,,,,,,,,,,,,,,,,,,,
,,,,,,,,,,,,,,,,,5afcdf4796a88e0001ff2b61,20,2022-02-12_12h35.53.492,lexical_decision_task_DD_L6,2021.2.3,iPhone,58.82352941,,,,,,,,,,0.559,1,,,,,,,,,,,,,,,0,-0.335714286,-0.330102041,1,0,0,0.559,button_left_main,-0.335714286,-0.330102041,1,0,0,,0,52,52,118,1,BAVEL,HB,z,z,./images/BAVELHB.png,,,,,,,,,,,,,,,,,,,,,,,,,,,,,,,,,
,,,,,,,,,,,,,,,,,5afcdf4796a88e0001ff2b61,20,2022-02-12_12h35.53.492,lexical_decision_task_DD_L6,2021.2.3,iPhone,58.82352941,,,,,,,,,,0.576,1,,,,,,,,,,,,,,,0,0.276530612,-0.353571429,1,0,0,0.576,button_right_main,0.276530612,-0.353571429,1,0,0,,0,53,53,48,1,SHIELD,LB,m,m,./images/SHIELDLB.png,,,,,,,,,,,,,,,,,,,,,,,,,,,,,,,,,
,,,,,,,,,,,,,,,,,5afcdf4796a88e0001ff2b61,20,2022-02-12_12h35.53.492,lexical_decision_task_DD_L6,2021.2.3,iPhone,58.82352941,,,,,,,,,,0.76,1,,,,,,,,,,,,,,,0,-0.347959184,-0.327040816,1,0,0,0.76,button_left_main,-0.347959184,-0.327040816,1,0,0,,0,54,54,141,1,PLEET,C,z,z,./images/PLEET.png,,,,,,,,,,,,,,,,,,,,,,,,,,,,,,,,,
,,,,,,,,,,,,,,,,,5afcdf4796a88e0001ff2b61,20,2022-02-12_12h35.53.492,lexical_decision_task_DD_L6,2021.2.3,iPhone,58.82352941,,,,,,,,,,0.608,1,,,,,,,,,,,,,,,0,0.310204082,-0.30255102,1,0,0,0.608,button_right_main,0.310204082,-0.30255102,1,0,0,,0,55,55,60,1,CURRY,LB,m,m,./images/CURRYLB.png,,,,,,,,,,,,,,,,,,,,,,,,,,,,,,,,,
,,,,,,,,,,,,,,,,,5afcdf4796a88e0001ff2b61,20,2022-02-12_12h35.53.492,lexical_decision_task_DD_L6,2021.2.3,iPhone,58.82352941,,,,,,,,,,0.558,1,,,,,,,,,,,,,,,0,-0.325510204,-0.341326531,1,0,0,0.558,button_left_main,-0.325510204,-0.341326531,1,0,0,,0,56,56,161,1,BLAPS,LB,z,z,./images/BLAPSLB.png,,,,,,,,,,,,,,,,,,,,,,,,,,,,,,,,,
,,,,,,,,,,,,,,,,,5afcdf4796a88e0001ff2b61,20,2022-02-12_12h35.53.492,lexical_decision_task_DD_L6,2021.2.3,iPhone,58.82352941,,,,,,,,,,0.792,1,,,,,,,,,,,,,,,0,0.293877551,-0.34744898,1,0,0,0.792,button_right_main,0.293877551,-0.34744898,1,0,0,,0,57,57,51,1,SAUCE,LB,m,m,./images/SAUCELB.png,,,,,,,,,,,,,,,,,,,,,,,,,,,,,,,,,
,,,,,,,,,,,,,,,,,5afcdf4796a88e0001ff2b61,20,2022-02-12_12h35.53.492,lexical_decision_task_DD_L6,2021.2.3,iPhone,58.82352941,,,,,,,,,,1.011,1,,,,,,,,,,,,,,,0,0.293877551,-0.348469388,1,0,0,1.011,button_right_main,0.293877551,-0.348469388,1,0,0,,0,58,58,56,1,HEATER,HB,m,m,./images/HEATERHB.png,,,,,,,,,,,,,,,,,,,,,,,,,,,,,,,,,
,,,,,,,,,,,,,,,,,5afcdf4796a88e0001ff2b61,20,2022-02-12_12h35.53.492,lexical_decision_task_DD_L6,2021.2.3,iPhone,58.82352941,,,,,,,,,,0.726,1,,,,,,,,,,,,,,,0,0.313265306,-0.328061224,1,0,0,0.726,button_right_main,0.313265306,-0.328061224,1,0,0,,0,59,59,75,1,HAMMER,LB,m,m,./images/HAMMERLB.png,,,,,,,,,,,,,,,,,,,,,,,,,,,,,,,,,
,,,,,,,,,,,,,,,,,5afcdf4796a88e0001ff2b61,20,2022-02-12_12h35.53.492,lexical_decision_task_DD_L6,2021.2.3,iPhone,58.82352941,,,,,,,,,,0.66,1,,,,,,,,,,,,,,,0,0.303061224,-0.33622449,1,0,0,0.66,button_right_main,0.303061224,-0.33622449,1,0,0,,0,60,60,16,1,GRAPE,C,m,m,./images/GRAPE.png,,,,,,,,,,,,,,,,,,,,,,,,,,,,,,,,,
,,,,,,,,,,,,,,,,,5afcdf4796a88e0001ff2b61,20,2022-02-12_12h35.53.492,lexical_decision_task_DD_L6,2021.2.3,iPhone,58.82352941,,,,,,,,,,1.21,1,,,,,,,,,,,,,,,0,-0.363265306,-0.327040816,1,0,0,1.21,button_left_main,-0.363265306,-0.327040816,1,0,0,,0,61,61,166,1,SHORY,HB,z,z,./images/SHORYHB.png,,,,,,,,,,,,,,,,,,,,,,,,,,,,,,,,,
,,,,,,,,,,,,,,,,,5afcdf4796a88e0001ff2b61,20,2022-02-12_12h35.53.492,lexical_decision_task_DD_L6,2021.2.3,iPhone,58.82352941,,,,,,,,,,0.925,1,,,,,,,,,,,,,,,0,0.296938776,-0.333163265,1,0,0,0.925,button_right_main,0.296938776,-0.333163265,1,0,0,,0,62,62,52,1,DESERT,C,m,m,./images/DESERT.png,,,,,,,,,,,,,,,,,,,,,,,,,,,,,,,,,
,,,,,,,,,,,,,,,,,5afcdf4796a88e0001ff2b61,20,2022-02-12_12h35.53.492,lexical_decision_task_DD_L6,2021.2.3,iPhone,58.82352941,,,,,,,,,,0.659,1,,,,,,,,,,,,,,,0,0.310204082,-0.310714286,1,0,0,0.659,button_right_main,0.310204082,-0.310714286,1,0,0,,0,63,63,31,1,STEAK,C,m,m,./images/STEAK.png,,,,,,,,,,,,,,,,,,,,,,,,,,,,,,,,,
,,,,,,,,,,,,,,,,,5afcdf4796a88e0001ff2b61,20,2022-02-12_12h35.53.492,lexical_decision_task_DD_L6,2021.2.3,iPhone,58.82352941,,,,,,,,,,0.679,1,,,,,,,,,,,,,,,0,0.312244898,-0.344387755,1,0,0,0.679,button_right_main,0.312244898,-0.344387755,1,0,0,,0,64,64,76,1,MIDGET,C,m,m,./images/MIDGET.png,,,,,,,,,,,,,,,,,,,,,,,,,,,,,,,,,
,,,,,,,,,,,,,,,,,5afcdf4796a88e0001ff2b61,20,2022-02-12_12h35.53.492,lexical_decision_task_DD_L6,2021.2.3,iPhone,58.82352941,,,,,,,,,,0.658,1,,,,,,,,,,,,,,,0,-0.381632653,-0.300510204,1,0,0,0.658,button_left_main,-0.381632653,-0.300510204,1,0,0,,0,65,65,131,1,NACES,LB,z,z,./images/NACESLB.png,,,,,,,,,,,,,,,,,,,,,,,,,,,,,,,,,
,,,,,,,,,,,,,,,,,5afcdf4796a88e0001ff2b61,20,2022-02-12_12h35.53.492,lexical_decision_task_DD_L6,2021.2.3,iPhone,58.82352941,,,,,,,,,,0.509,1,,,,,,,,,,,,,,,0,-0.386734694,-0.281122449,1,0,0,0.509,button_left_main,-0.386734694,-0.281122449,1,0,0,,0,66,66,86,1,AIFED,LB,z,z,./images/AIFEDLB.png,,,,,,,,,,,,,,,,,,,,,,,,,,,,,,,,,
,,,,,,,,,,,,,,,,,5afcdf4796a88e0001ff2b61,20,2022-02-12_12h35.53.492,lexical_decision_task_DD_L6,2021.2.3,iPhone,58.82352941,,,,,,,,,,0.658,1,,,,,,,,,,,,,,,0,0.330612245,-0.376020408,1,0,0,0.658,button_right_main,0.330612245,-0.376020408,1,0,0,,0,67,67,0,1,WALNUT,LB,m,m,./images/WALNUTLB.png,,,,,,,,,,,,,,,,,,,,,,,,,,,,,,,,,
,,,,,,,,,,,,,,,,,5afcdf4796a88e0001ff2b61,20,2022-02-12_12h35.53.492,lexical_decision_task_DD_L6,2021.2.3,iPhone,58.82352941,,,,,,,,,,0.609,1,,,,,,,,,,,,,,,0,0.331632653,-0.370918367,1,0,0,0.609,button_right_main,0.331632653,-0.370918367,1,0,0,,0,68,68,80,1,PLANET,HB,m,m,./images/PLANETHB.png,,,,,,,,,,,,,,,,,,,,,,,,,,,,,,,,,
,,,,,,,,,,,,,,,,,5afcdf4796a88e0001ff2b61,20,2022-02-12_12h35.53.492,lexical_decision_task_DD_L6,2021.2.3,iPhone,58.82352941,,,,,,,,,,0.674,1,,,,,,,,,,,,,,,0,0.28877551,-0.364795918,1,0,0,0.674,button_right_main,0.28877551,-0.364795918,1,0,0,,0,69,69,15,1,COLLAR,LB,m,m,./images/COLLARLB.png,,,,,,,,,,,,,,,,,,,,,,,,,,,,,,,,,
,,,,,,,,,,,,,,,,,5afcdf4796a88e0001ff2b61,20,2022-02-12_12h35.53.492,lexical_decision_task_DD_L6,2021.2.3,iPhone,58.82352941,,,,,,,,,,1.026,1,,,,,,,,,,,,,,,0,-0.387755102,-0.318877551,1,0,0,1.026,button_left_main,-0.387755102,-0.318877551,1,0,0,,0,70,70,145,1,LAMEL,HB,z,z,./images/LAMELHB.png,,,,,,,,,,,,,,,,,,,,,,,,,,,,,,,,,
,,,,,,,,,,,,,,,,,5afcdf4796a88e0001ff2b61,20,2022-02-12_12h35.53.492,lexical_decision_task_DD_L6,2021.2.3,iPhone,58.82352941,,,,,,,,,,0.81,1,,,,,,,,,,,,,,,0,-0.363265306,-0.348469388,1,0,0,0.81,button_left_main,-0.363265306,-0.348469388,1,0,0,,0,71,71,140,1,DOVET,LB,z,z,./images/DOVETLB.png,,,,,,,,,,,,,,,,,,,,,,,,,,,,,,,,,
,,,,,,,,,,,,,,,,,5afcdf4796a88e0001ff2b61,20,2022-02-12_12h35.53.492,lexical_decision_task_DD_L6,2021.2.3,iPhone,58.82352941,,,,,,,,,,0.875,1,,,,,,,,,,,,,,,0,0.292857143,-0.360714286,1,0,0,0.875,button_right_main,0.292857143,-0.360714286,1,0,0,,0,72,72,83,1,WHISKY,HB,m,m,./images/WHISKYHB.png,,,,,,,,,,,,,,,,,,,,,,,,,,,,,,,,,
,,,,,,,,,,,,,,,,,5afcdf4796a88e0001ff2b61,20,2022-02-12_12h35.53.492,lexical_decision_task_DD_L6,2021.2.3,iPhone,58.82352941,,,,,,,,,,0.908,1,,,,,,,,,,,,,,,0,0.295918367,-0.383163265,1,0,0,0.908,button_right_main,0.295918367,-0.383163265,1,0,0,,0,73,73,37,1,TIGER,C,m,m,./images/TIGER.png,,,,,,,,,,,,,,,,,,,,,,,,,,,,,,,,,
,,,,,,,,,,,,,,,,,5afcdf4796a88e0001ff2b61,20,2022-02-12_12h35.53.492,lexical_decision_task_DD_L6,2021.2.3,iPhone,58.82352941,,,,,,,,,,1.21,1,,,,,,,,,,,,,,,0,-0.337755102,-0.285204082,1,0,0,1.21,button_left_main,-0.337755102,-0.285204082,1,0,0,,0,74,74,100,1,DRIBS,HB,z,z,./images/DRIBSHB.png,,,,,,,,,,,,,,,,,,,,,,,,,,,,,,,,,
,,,,,,,,,,,,,,,,,5afcdf4796a88e0001ff2b61,20,2022-02-12_12h35.53.492,lexical_decision_task_DD_L6,2021.2.3,iPhone,58.82352941,,,,,,,,,,0.86,0,,,,,,,,,,,,,,,0,0.313265306,-0.319897959,1,0,0,0.86,button_right_main,0.313265306,-0.319897959,1,0,0,,0,75,75,142,1,PLASK,HB,z,z,./images/PLASKHB.png,,,,,,,,,,,,,,,,,,,,,,,,,,,,,,,,,
,,,,,,,,,,,,,,,,,5afcdf4796a88e0001ff2b61,20,2022-02-12_12h35.53.492,lexical_decision_task_DD_L6,2021.2.3,iPhone,58.82352941,,,,,,,,,,0.893,1,,,,,,,,,,,,,,,0,-0.345918367,-0.321938776,1,0,0,0.893,button_left_main,-0.345918367,-0.321938776,1,0,0,,0,76,76,157,1,INLER,HB,z,z,./images/INLERHB.png,,,,,,,,,,,,,,,,,,,,,,,,,,,,,,,,,
,,,,,,,,,,,,,,,,,5afcdf4796a88e0001ff2b61,20,2022-02-12_12h35.53.492,lexical_decision_task_DD_L6,2021.2.3,iPhone,58.82352941,,,,,,,,,,1.125,1,,,,,,,,,,,,,,,0,0.309183673,-0.316836735,1,0,0,1.125,button_right_main,0.309183673,-0.316836735,1,0,0,,0,77,77,64,1,BRIDE,C,m,m,./images/BRIDE.png,,,,,,,,,,,,,,,,,,,,,,,,,,,,,,,,,
,,,,,,,,,,,,,,,,,5afcdf4796a88e0001ff2b61,20,2022-02-12_12h35.53.492,lexical_decision_task_DD_L6,2021.2.3,iPhone,58.82352941,,,,,,,,,,1.143,1,,,,,,,,,,,,,,,0,0.3,-0.361734694,1,0,0,1.143,button_right_main,0.3,-0.361734694,1,0,0,,0,78,78,55,1,ALLEY,C,m,m,./images/ALLEY.png,,,,,,,,,,,,,,,,,,,,,,,,,,,,,,,,,
,,,,,,,,,,,,,,,,,5afcdf4796a88e0001ff2b61,20,2022-02-12_12h35.53.492,lexical_decision_task_DD_L6,2021.2.3,iPhone,58.82352941,,,,,,,,,,1.46,1,,,,,,,,,,,,,,,0,0.3,-0.337244898,1,0,0,1.46,button_right_main,0.3,-0.337244898,1,0,0,,0,79,79,74,1,JUMPER,HB,m,m,./images/JUMPERHB.png,,,,,,,,,,,,,,,,,,,,,,,,,,,,,,,,,
,,,,,,,,,,,,,,,,,5afcdf4796a88e0001ff2b61,20,2022-02-12_12h35.53.492,lexical_decision_task_DD_L6,2021.2.3,iPhone,58.82352941,,,,,,,,,,1.195,1,,,,,,,,,,,,,,,0,-0.325510204,-0.343367347,1,0,0,1.195,button_left_main,-0.325510204,-0.343367347,1,0,0,,0,80,80,136,1,WERVE,HB,z,z,./images/WERVEHB.png,,,,,,,,,,,,,,,,,,,,,,,,,,,,,,,,,
,,,,,,,,,,,,,,,,,5afcdf4796a88e0001ff2b61,20,2022-02-12_12h35.53.492,lexical_decision_task_DD_L6,2021.2.3,iPhone,58.82352941,,,,,,,,,,0.674,1,,,,,,,,,,,,,,,0,-0.369387755,-0.311734694,1,0,0,0.674,button_left_main,-0.369387755,-0.311734694,1,0,0,,0,81,81,122,1,BLOOT,LB,z,z,./images/BLOOTLB.png,,,,,,,,,,,,,,,,,,,,,,,,,,,,,,,,,
,,,,,,,,,,,,,,,,,5afcdf4796a88e0001ff2b61,20,2022-02-12_12h35.53.492,lexical_decision_task_DD_L6,2021.2.3,iPhone,58.82352941,,,,,,,,,,1.041,1,,,,,,,,,,,,,,,0,0.315306122,-0.330102041,1,0,0,1.041,button_right_main,0.315306122,-0.330102041,1,0,0,,0,82,82,18,1,PARCEL,LB,m,m,./images/PARCELLB.png,,,,,,,,,,,,,,,,,,,,,,,,,,,,,,,,,
,,,,,,,,,,,,,,,,,5afcdf4796a88e0001ff2b61,20,2022-02-12_12h35.53.492,lexical_decision_task_DD_L6,2021.2.3,iPhone,58.82352941,,,,,,,,,,1.174,1,,,,,,,,,,,,,,,0,0.325510204,-0.331122449,1,0,0,1.174,button_right_main,0.157142857,-0.376020408,1,0,0,,0,83,83,61,1,ARTIST,C,m,m,./images/ARTIST.png,break_done_button,,,,,,,,,,,,,,,,,,,,,,,,,,,,,,,,
,,,,,,,,,,,,,,,,,5afcdf4796a88e0001ff2b61,20,2022-02-12_12h35.53.492,lexical_decision_task_DD_L6,2021.2.3,iPhone,58.82352941,,,,,,,,,,0.691,1,,,,,,,,,,,,,,,0,0.305102041,-0.321938776,1,0,0,0.691,button_right_main,0.305102041,-0.321938776,1,0,0,,0,84,84,29,1,PISTOL,HB,m,m,./images/PISTOLHB.png,,,,,,,,,,,,,,,,,,,,,,,,,,,,,,,,,
,,,,,,,,,,,,,,,,,5afcdf4796a88e0001ff2b61,20,2022-02-12_12h35.53.492,lexical_decision_task_DD_L6,2021.2.3,iPhone,58.82352941,,,,,,,,,,0.759,1,,,,,,,,,,,,,,,0,0.320408163,-0.340306122,1,0,0,0.759,button_right_main,0.320408163,-0.340306122,1,0,0,,0,85,85,8,1,CLIFF,HB,m,m,./images/CLIFFHB.png,,,,,,,,,,,,,,,,,,,,,,,,,,,,,,,,,
,,,,,,,,,,,,,,,,,5afcdf4796a88e0001ff2b61,20,2022-02-12_12h35.53.492,lexical_decision_task_DD_L6,2021.2.3,iPhone,58.82352941,,,,,,,,,,0.594,1,,,,,,,,,,,,,,,0,0.326530612,-0.285204082,1,0,0,0.594,button_right_main,0.326530612,-0.285204082,1,0,0,,0,86,86,50,1,PILOT,HB,m,m,./images/PILOTHB.png,,,,,,,,,,,,,,,,,,,,,,,,,,,,,,,,,
,,,,,,,,,,,,,,,,,5afcdf4796a88e0001ff2b61,20,2022-02-12_12h35.53.492,lexical_decision_task_DD_L6,2021.2.3,iPhone,58.82352941,,,,,,,,,,0.676,1,,,,,,,,,,,,,,,0,0.330612245,-0.331122449,1,0,0,0.676,button_right_main,0.330612245,-0.331122449,1,0,0,,0,87,87,47,1,LAGOON,HB,m,m,./images/LAGOONHB.png,,,,,,,,,,,,,,,,,,,,,,,,,,,,,,,,,
,,,,,,,,,,,,,,,,,5afcdf4796a88e0001ff2b61,20,2022-02-12_12h35.53.492,lexical_decision_task_DD_L6,2021.2.3,iPhone,58.82352941,,,,,,,,,,0.642,1,,,,,,,,,,,,,,,0,-0.414285714,-0.277040816,1,0,0,0.642,button_left_main,-0.414285714,-0.277040816,1,0,0,,0,88,88,97,1,CHIDS,HB,z,z,./images/CHIDSHB.png,,,,,,,,,,,,,,,,,,,,,,,,,,,,,,,,,
,,,,,,,,,,,,,,,,,5afcdf4796a88e0001ff2b61,20,2022-02-12_12h35.53.492,lexical_decision_task_DD_L6,2021.2.3,iPhone,58.82352941,,,,,,,,,,0.724,1,,,,,,,,,,,,,,,0,0.309183673,-0.309693878,1,0,0,0.724,button_right_main,0.309183673,-0.309693878,1,0,0,,0,89,89,44,1,BASKET,HB,m,m,./images/BASKETHB.png,,,,,,,,,,,,,,,,,,,,,,,,,,,,,,,,,
,,,,,,,,,,,,,,,,,5afcdf4796a88e0001ff2b61,20,2022-02-12_12h35.53.492,lexical_decision_task_DD_L6,2021.2.3,iPhone,58.82352941,,,,,,,,,,0.927,1,,,,,,,,,,,,,,,0,-0.392857143,-0.307653061,1,0,0,0.927,button_left_main,-0.392857143,-0.307653061,1,0,0,,0,90,90,139,1,BLEAR,HB,z,z,./images/BLEARHB.png,,,,,,,,,,,,,,,,,,,,,,,,,,,,,,,,,
,,,,,,,,,,,,,,,,,5afcdf4796a88e0001ff2b61,20,2022-02-12_12h35.53.492,lexical_decision_task_DD_L6,2021.2.3,iPhone,58.82352941,,,,,,,,,,0.627,1,,,,,,,,,,,,,,,0,0.286734694,-0.346428571,1,0,0,0.627,button_right_main,0.286734694,-0.346428571,1,0,0,,0,91,91,59,1,BRUSH,HB,m,m,./images/BRUSHHB.png,,,,,,,,,,,,,,,,,,,,,,,,,,,,,,,,,
,,,,,,,,,,,,,,,,,5afcdf4796a88e0001ff2b61,20,2022-02-12_12h35.53.492,lexical_decision_task_DD_L6,2021.2.3,iPhone,58.82352941,,,,,,,,,,0.761,1,,,,,,,,,,,,,,,0,-0.384693878,-0.319897959,1,0,0,0.761,button_left_main,-0.384693878,-0.319897959,1,0,0,,0,92,92,156,1,HIXES,C,z,z,./images/HIXES.png,,,,,,,,,,,,,,,,,,,,,,,,,,,,,,,,,
,,,,,,,,,,,,,,,,,5afcdf4796a88e0001ff2b61,20,2022-02-12_12h35.53.492,lexical_decision_task_DD_L6,2021.2.3,iPhone,58.82352941,,,,,,,,,,0.693,0,,,,,,,,,,,,,,,0,-0.391836735,-0.323979592,1,0,0,0.693,button_left_main,-0.391836735,-0.323979592,1,0,0,,0,93,93,24,1,FLESH,LB,m,m,./images/FLESHLB.png,,,,,,,,,,,,,,,,,,,,,,,,,,,,,,,,,
,,,,,,,,,,,,,,,,,5afcdf4796a88e0001ff2b61,20,2022-02-12_12h35.53.492,lexical_decision_task_DD_L6,2021.2.3,iPhone,58.82352941,,,,,,,,,,0.591,1,,,,,,,,,,,,,,,0,-0.402040816,-0.316836735,1,0,0,0.591,button_left_main,-0.402040816,-0.316836735,1,0,0,,0,94,94,123,1,SEDGE,C,z,z,./images/SEDGE.png,,,,,,,,,,,,,,,,,,,,,,,,,,,,,,,,,
,,,,,,,,,,,,,,,,,5afcdf4796a88e0001ff2b61,20,2022-02-12_12h35.53.492,lexical_decision_task_DD_L6,2021.2.3,iPhone,58.82352941,,,,,,,,,,0.742,1,,,,,,,,,,,,,,,0,0.305102041,-0.385204082,1,0,0,0.742,button_right_main,0.305102041,-0.385204082,1,0,0,,0,95,95,36,1,BOILER,LB,m,m,./images/BOILERLB.png,,,,,,,,,,,,,,,,,,,,,,,,,,,,,,,,,
,,,,,,,,,,,,,,,,,5afcdf4796a88e0001ff2b61,20,2022-02-12_12h35.53.492,lexical_decision_task_DD_L6,2021.2.3,iPhone,58.82352941,,,,,,,,,,0.642,1,,,,,,,,,,,,,,,0,-0.373469388,-0.30255102,1,0,0,0.642,button_left_main,-0.373469388,-0.30255102,1,0,0,,0,96,96,108,1,GRUET,C,z,z,./images/GRUET.png,,,,,,,,,,,,,,,,,,,,,,,,,,,,,,,,,
,,,,,,,,,,,,,,,,,5afcdf4796a88e0001ff2b61,20,2022-02-12_12h35.53.492,lexical_decision_task_DD_L6,2021.2.3,iPhone,58.82352941,,,,,,,,,,0.641,1,,,,,,,,,,,,,,,0,0.283673469,-0.350510204,1,0,0,0.641,button_right_main,0.283673469,-0.350510204,1,0,0,,0,97,97,49,1,BISHOP,C,m,m,./images/BISHOP.png,,,,,,,,,,,,,,,,,,,,,,,,,,,,,,,,,
,,,,,,,,,,,,,,,,,5afcdf4796a88e0001ff2b61,20,2022-02-12_12h35.53.492,lexical_decision_task_DD_L6,2021.2.3,iPhone,58.82352941,,,,,,,,,,0.71,1,,,,,,,,,,,,,,,0,-0.363265306,-0.323979592,1,0,0,0.71,button_left_main,-0.363265306,-0.323979592,1,0,0,,0,98,98,113,1,LINEW,LB,z,z,./images/LINEWLB.png,,,,,,,,,,,,,,,,,,,,,,,,,,,,,,,,,
,,,,,,,,,,,,,,,,,5afcdf4796a88e0001ff2b61,20,2022-02-12_12h35.53.492,lexical_decision_task_DD_L6,2021.2.3,iPhone,58.82352941,,,,,,,,,,1.342,1,,,,,,,,,,,,,,,0,-0.358163265,-0.298469388,1,0,0,1.342,button_left_main,-0.358163265,-0.298469388,1,0,0,,0,99,99,85,1,CHULK,HB,z,z,./images/CHULKHB.png,,,,,,,,,,,,,,,,,,,,,,,,,,,,,,,,,
,,,,,,,,,,,,,,,,,5afcdf4796a88e0001ff2b61,20,2022-02-12_12h35.53.492,lexical_decision_task_DD_L6,2021.2.3,iPhone,58.82352941,,,,,,,,,,1.208,1,,,,,,,,,,,,,,,0,0.316326531,-0.349489796,1,0,0,1.208,button_right_main,0.316326531,-0.349489796,1,0,0,,0,100,100,66,1,STATUE,LB,m,m,./images/STATUELB.png,,,,,,,,,,,,,,,,,,,,,,,,,,,,,,,,,
,,,,,,,,,,,,,,,,,5afcdf4796a88e0001ff2b61,20,2022-02-12_12h35.53.492,lexical_decision_task_DD_L6,2021.2.3,iPhone,58.82352941,,,,,,,,,,0.725,1,,,,,,,,,,,,,,,0,0.323469388,-0.300510204,1,0,0,0.725,button_right_main,0.323469388,-0.300510204,1,0,0,,0,101,101,5,1,BAMBOO,HB,m,m,./images/BAMBOOHB.png,,,,,,,,,,,,,,,,,,,,,,,,,,,,,,,,,
,,,,,,,,,,,,,,,,,5afcdf4796a88e0001ff2b61,20,2022-02-12_12h35.53.492,lexical_decision_task_DD_L6,2021.2.3,iPhone,58.82352941,,,,,,,,,,0.826,1,,,,,,,,,,,,,,,0,-0.343877551,-0.35255102,1,0,0,0.826,button_left_main,-0.343877551,-0.35255102,1,0,0,,0,102,102,106,1,CLUMS,HB,z,z,./images/CLUMSHB.png,,,,,,,,,,,,,,,,,,,,,,,,,,,,,,,,,
,,,,,,,,,,,,,,,,,5afcdf4796a88e0001ff2b61,20,2022-02-12_12h35.53.492,lexical_decision_task_DD_L6,2021.2.3,iPhone,58.82352941,,,,,,,,,,0.559,1,,,,,,,,,,,,,,,0,0.358163265,-0.320918367,1,0,0,0.559,button_right_main,0.358163265,-0.320918367,1,0,0,,0,103,103,1,1,TOWEL,C,m,m,./images/TOWEL.png,,,,,,,,,,,,,,,,,,,,,,,,,,,,,,,,,
,,,,,,,,,,,,,,,,,5afcdf4796a88e0001ff2b61,20,2022-02-12_12h35.53.492,lexical_decision_task_DD_L6,2021.2.3,iPhone,58.82352941,,,,,,,,,,0.875,1,,,,,,,,,,,,,,,0,0.316326531,-0.341326531,1,0,0,0.875,button_right_main,0.316326531,-0.341326531,1,0,0,,0,104,104,62,1,MAMMAL,HB,m,m,./images/MAMMALHB.png,,,,,,,,,,,,,,,,,,,,,,,,,,,,,,,,,
,,,,,,,,,,,,,,,,,5afcdf4796a88e0001ff2b61,20,2022-02-12_12h35.53.492,lexical_decision_task_DD_L6,2021.2.3,iPhone,58.82352941,,,,,,,,,,0.609,1,,,,,,,,,,,,,,,0,-0.345918367,-0.353571429,1,0,0,0.609,button_left_main,-0.345918367,-0.353571429,1,0,0,,0,105,105,137,1,JOOST,LB,z,z,./images/JOOSTLB.png,,,,,,,,,,,,,,,,,,,,,,,,,,,,,,,,,
,,,,,,,,,,,,,,,,,5afcdf4796a88e0001ff2b61,20,2022-02-12_12h35.53.492,lexical_decision_task_DD_L6,2021.2.3,iPhone,58.82352941,,,,,,,,,,0.741,1,,,,,,,,,,,,,,,0,0.279591837,-0.30255102,1,0,0,0.741,button_right_main,0.279591837,-0.30255102,1,0,0,,0,106,106,11,1,MEDAL,HB,m,m,./images/MEDALHB.png,,,,,,,,,,,,,,,,,,,,,,,,,,,,,,,,,
,,,,,,,,,,,,,,,,,5afcdf4796a88e0001ff2b61,20,2022-02-12_12h35.53.492,lexical_decision_task_DD_L6,2021.2.3,iPhone,58.82352941,,,,,,,,,,0.69,1,,,,,,,,,,,,,,,0,-0.351020408,-0.314795918,1,0,0,0.69,button_left_main,-0.351020408,-0.314795918,1,0,0,,0,107,107,103,1,FLORT,HB,z,z,./images/FLORTHB.png,,,,,,,,,,,,,,,,,,,,,,,,,,,,,,,,,
,,,,,,,,,,,,,,,,,5afcdf4796a88e0001ff2b61,20,2022-02-12_12h35.53.492,lexical_decision_task_DD_L6,2021.2.3,iPhone,58.82352941,,,,,,,,,,0.758,1,,,,,,,,,,,,,,,0,-0.356122449,-0.327040816,1,0,0,0.758,button_left_main,-0.356122449,-0.327040816,1,0,0,,0,108,108,160,1,VEETS,HB,z,z,./images/VEETSHB.png,,,,,,,,,,,,,,,,,,,,,,,,,,,,,,,,,
,,,,,,,,,,,,,,,,,5afcdf4796a88e0001ff2b61,20,2022-02-12_12h35.53.492,lexical_decision_task_DD_L6,2021.2.3,iPhone,58.82352941,,,,,,,,,,1.026,1,,,,,,,,,,,,,,,0,0.254081633,-0.345408163,1,0,0,1.026,button_right_main,0.254081633,-0.345408163,1,0,0,,0,109,109,12,1,BLOKE,LB,m,m,./images/BLOKELB.png,,,,,,,,,,,,,,,,,,,,,,,,,,,,,,,,,
,,,,,,,,,,,,,,,,,5afcdf4796a88e0001ff2b61,20,2022-02-12_12h35.53.492,lexical_decision_task_DD_L6,2021.2.3,iPhone,58.82352941,,,,,,,,,,1.409,1,,,,,,,,,,,,,,,0,-0.325510204,-0.305612245,1,0,0,1.409,button_left_main,-0.325510204,-0.305612245,1,0,0,,0,110,110,151,1,TINKY,HB,z,z,./images/TINKYHB.png,,,,,,,,,,,,,,,,,,,,,,,,,,,,,,,,,
,,,,,,,,,,,,,,,,,5afcdf4796a88e0001ff2b61,20,2022-02-12_12h35.53.492,lexical_decision_task_DD_L6,2021.2.3,iPhone,58.82352941,,,,,,,,,,0.792,1,,,,,,,,,,,,,,,0,0.282653061,-0.326020408,1,0,0,0.792,button_right_main,0.282653061,-0.326020408,1,0,0,,0,111,111,38,1,ENGINE,HB,m,m,./images/ENGINEHB.png,,,,,,,,,,,,,,,,,,,,,,,,,,,,,,,,,
,,,,,,,,,,,,,,,,,5afcdf4796a88e0001ff2b61,20,2022-02-12_12h35.53.492,lexical_decision_task_DD_L6,2021.2.3,iPhone,58.82352941,,,,,,,,,,0.791,1,,,,,,,,,,,,,,,0,0.273469388,-0.327040816,1,0,0,0.791,button_right_main,0.273469388,-0.327040816,1,0,0,,0,112,112,34,1,RAZOR,C,m,m,./images/RAZOR.png,,,,,,,,,,,,,,,,,,,,,,,,,,,,,,,,,
,,,,,,,,,,,,,,,,,5afcdf4796a88e0001ff2b61,20,2022-02-12_12h35.53.492,lexical_decision_task_DD_L6,2021.2.3,iPhone,58.82352941,,,,,,,,,,2.285,0,,,,,,,,,,,,,,,0,0.283673469,-0.33622449,1,0,0,2.285,button_right_main,0.283673469,-0.33622449,1,0,0,,0,113,113,110,1,CRUNK,LB,z,z,./images/CRUNKLB.png,,,,,,,,,,,,,,,,,,,,,,,,,,,,,,,,,
,,,,,,,,,,,,,,,,,5afcdf4796a88e0001ff2b61,20,2022-02-12_12h35.53.492,lexical_decision_task_DD_L6,2021.2.3,iPhone,58.82352941,,,,,,,,,,0.955,1,,,,,,,,,,,,,,,0,-0.337755102,-0.318877551,1,0,0,0.955,button_left_main,-0.337755102,-0.318877551,1,0,0,,0,114,114,165,1,TROWN,C,z,z,./images/TROWN.png,,,,,,,,,,,,,,,,,,,,,,,,,,,,,,,,,
,,,,,,,,,,,,,,,,,5afcdf4796a88e0001ff2b61,20,2022-02-12_12h35.53.492,lexical_decision_task_DD_L6,2021.2.3,iPhone,58.82352941,,,,,,,,,,0.973,1,,,,,,,,,,,,,,,0,0.253061224,-0.339285714,1,0,0,0.973,button_right_main,0.253061224,-0.339285714,1,0,0,,0,115,115,54,1,CHERRY,LB,m,m,./images/CHERRYLB.png,,,,,,,,,,,,,,,,,,,,,,,,,,,,,,,,,
,,,,,,,,,,,,,,,,,5afcdf4796a88e0001ff2b61,20,2022-02-12_12h35.53.492,lexical_decision_task_DD_L6,2021.2.3,iPhone,58.82352941,,,,,,,,,,0.891,0,,,,,,,,,,,,,,,0,0.268367347,-0.342346939,1,0,0,0.891,button_right_main,0.268367347,-0.342346939,1,0,0,,0,116,116,88,1,GLUSH,HB,z,z,./images/GLUSHHB.png,,,,,,,,,,,,,,,,,,,,,,,,,,,,,,,,,
,,,,,,,,,,,,,,,,,5afcdf4796a88e0001ff2b61,20,2022-02-12_12h35.53.492,lexical_decision_task_DD_L6,2021.2.3,iPhone,58.82352941,,,,,,,,,,1.041,1,,,,,,,,,,,,,,,0,0.241836735,-0.314795918,1,0,0,1.041,button_right_main,0.241836735,-0.314795918,1,0,0,,0,117,117,4,1,BOXER,C,m,m,./images/BOXER.png,,,,,,,,,,,,,,,,,,,,,,,,,,,,,,,,,
,,,,,,,,,,,,,,,,,5afcdf4796a88e0001ff2b61,20,2022-02-12_12h35.53.492,lexical_decision_task_DD_L6,2021.2.3,iPhone,58.82352941,,,,,,,,,,1.326,1,,,,,,,,,,,,,,,0,-0.353061224,-0.316836735,1,0,0,1.326,button_left_main,-0.353061224,-0.316836735,1,0,0,,0,118,118,90,1,NEAST,C,z,z,./images/NEAST.png,,,,,,,,,,,,,,,,,,,,,,,,,,,,,,,,,
,,,,,,,,,,,,,,,,,5afcdf4796a88e0001ff2b61,20,2022-02-12_12h35.53.492,lexical_decision_task_DD_L6,2021.2.3,iPhone,58.82352941,,,,,,,,,,1.188,1,,,,,,,,,,,,,,,0,0.257142857,-0.358673469,1,0,0,1.188,button_right_main,0.257142857,-0.358673469,1,0,0,,0,119,119,14,1,FENCE,HB,m,m,./images/FENCEHB.png,,,,,,,,,,,,,,,,,,,,,,,,,,,,,,,,,
,,,,,,,,,,,,,,,,,5afcdf4796a88e0001ff2b61,20,2022-02-12_12h35.53.492,lexical_decision_task_DD_L6,2021.2.3,iPhone,58.82352941,,,,,,,,,,0.891,1,,,,,,,,,,,,,,,0,0.239795918,-0.344387755,1,0,0,0.891,button_right_main,0.239795918,-0.344387755,1,0,0,,0,120,120,71,1,BUBBLE,HB,m,m,./images/BUBBLEHB.png,,,,,,,,,,,,,,,,,,,,,,,,,,,,,,,,,
,,,,,,,,,,,,,,,,,5afcdf4796a88e0001ff2b61,20,2022-02-12_12h35.53.492,lexical_decision_task_DD_L6,2021.2.3,iPhone,58.82352941,,,,,,,,,,0.742,1,,,,,,,,,,,,,,,0,-0.32244898,-0.309693878,1,0,0,0.742,button_left_main,-0.32244898,-0.309693878,1,0,0,,0,121,121,163,1,GAMBA,HB,z,z,./images/GAMBAHB.png,,,,,,,,,,,,,,,,,,,,,,,,,,,,,,,,,
,,,,,,,,,,,,,,,,,5afcdf4796a88e0001ff2b61,20,2022-02-12_12h35.53.492,lexical_decision_task_DD_L6,2021.2.3,iPhone,58.82352941,,,,,,,,,,0.741,1,,,,,,,,,,,,,,,0,0.285714286,-0.33622449,1,0,0,0.741,button_right_main,0.285714286,-0.33622449,1,0,0,,0,122,122,78,1,BROOM,LB,m,m,./images/BROOMLB.png,,,,,,,,,,,,,,,,,,,,,,,,,,,,,,,,,
,,,,,,,,,,,,,,,,,5afcdf4796a88e0001ff2b61,20,2022-02-12_12h35.53.492,lexical_decision_task_DD_L6,2021.2.3,iPhone,58.82352941,,,,,,,,,,0.642,1,,,,,,,,,,,,,,,0,0.247959184,-0.334183673,1,0,0,0.642,button_right_main,0.247959184,-0.334183673,1,0,0,,0,123,123,82,1,PEBBLE,C,m,m,./images/PEBBLE.png,,,,,,,,,,,,,,,,,,,,,,,,,,,,,,,,,
,,,,,,,,,,,,,,,,,5afcdf4796a88e0001ff2b61,20,2022-02-12_12h35.53.492,lexical_decision_task_DD_L6,2021.2.3,iPhone,58.82352941,,,,,,,,,,0.727,1,,,,,,,,,,,,,,,0,0.297959184,-0.354591837,1,0,0,0.727,button_right_main,0.297959184,-0.354591837,1,0,0,,0,124,124,70,1,BANANA,C,m,m,./images/BANANA.png,,,,,,,,,,,,,,,,,,,,,,,,,,,,,,,,,
,,,,,,,,,,,,,,,,,5afcdf4796a88e0001ff2b61,20,2022-02-12_12h35.53.492,lexical_decision_task_DD_L6,2021.2.3,iPhone,58.82352941,,,,,,,,,,0.726,1,,,,,,,,,,,,,,,0,0.295918367,-0.316836735,1,0,0,0.726,button_right_main,0.113265306,-0.401530612,1,0,0,,0,125,125,67,1,POKER,C,m,m,./images/POKER.png,break_done_button,,,,,,,,,,,,,,,,,,,,,,,,,,,,,,,,
,,,,,,,,,,,,,,,,,5afcdf4796a88e0001ff2b61,20,2022-02-12_12h35.53.492,lexical_decision_task_DD_L6,2021.2.3,iPhone,58.82352941,,,,,,,,,,0.826,1,,,,,,,,,,,,,,,0,0.281632653,-0.349489796,1,0,0,0.826,button_right_main,0.281632653,-0.349489796,1,0,0,,0,126,126,42,1,CHAIN,LB,m,m,./images/CHAINLB.png,,,,,,,,,,,,,,,,,,,,,,,,,,,,,,,,,
,,,,,,,,,,,,,,,,,5afcdf4796a88e0001ff2b61,20,2022-02-12_12h35.53.492,lexical_decision_task_DD_L6,2021.2.3,iPhone,58.82352941,,,,,,,,,,0.659,1,,,,,,,,,,,,,,,0,0.268367347,-0.35255102,1,0,0,0.659,button_right_main,0.268367347,-0.35255102,1,0,0,,0,127,127,3,1,CRATER,LB,m,m,./images/CRATERLB.png,,,,,,,,,,,,,,,,,,,,,,,,,,,,,,,,,
,,,,,,,,,,,,,,,,,5afcdf4796a88e0001ff2b61,20,2022-02-12_12h35.53.492,lexical_decision_task_DD_L6,2021.2.3,iPhone,58.82352941,,,,,,,,,,0.708,1,,,,,,,,,,,,,,,0,0.280612245,-0.379081633,1,0,0,0.708,button_right_main,0.280612245,-0.379081633,1,0,0,,0,128,128,23,1,CLOTH,HB,m,m,./images/CLOTHHB.png,,,,,,,,,,,,,,,,,,,,,,,,,,,,,,,,,
,,,,,,,,,,,,,,,,,5afcdf4796a88e0001ff2b61,20,2022-02-12_12h35.53.492,lexical_decision_task_DD_L6,2021.2.3,iPhone,58.82352941,,,,,,,,,,0.542,1,,,,,,,,,,,,,,,0,0.263265306,-0.350510204,1,0,0,0.542,button_right_main,0.263265306,-0.350510204,1,0,0,,0,129,129,10,1,GARDEN,C,m,m,./images/GARDEN.png,,,,,,,,,,,,,,,,,,,,,,,,,,,,,,,,,
,,,,,,,,,,,,,,,,,5afcdf4796a88e0001ff2b61,20,2022-02-12_12h35.53.492,lexical_decision_task_DD_L6,2021.2.3,iPhone,58.82352941,,,,,,,,,,0.573,1,,,,,,,,,,,,,,,0,-0.340816327,-0.305612245,1,0,0,0.573,button_left_main,-0.340816327,-0.305612245,1,0,0,,0,130,130,153,1,CLUPS,C,z,z,./images/CLUPS.png,,,,,,,,,,,,,,,,,,,,,,,,,,,,,,,,,
,,,,,,,,,,,,,,,,,5afcdf4796a88e0001ff2b61,20,2022-02-12_12h35.53.492,lexical_decision_task_DD_L6,2021.2.3,iPhone,58.82352941,,,,,,,,,,0.608,1,,,,,,,,,,,,,,,0,-0.331632653,-0.337244898,1,0,0,0.608,button_left_main,-0.331632653,-0.337244898,1,0,0,,0,131,131,127,1,NINDY,HB,z,z,./images/NINDYHB.png,,,,,,,,,,,,,,,,,,,,,,,,,,,,,,,,,
,,,,,,,,,,,,,,,,,5afcdf4796a88e0001ff2b61,20,2022-02-12_12h35.53.492,lexical_decision_task_DD_L6,2021.2.3,iPhone,58.82352941,,,,,,,,,,0.542,1,,,,,,,,,,,,,,,0,-0.335714286,-0.314795918,1,0,0,0.542,button_left_main,-0.335714286,-0.314795918,1,0,0,,0,132,132,149,1,VEASE,LB,z,z,./images/VEASELB.png,,,,,,,,,,,,,,,,,,,,,,,,,,,,,,,,,
,,,,,,,,,,,,,,,,,5afcdf4796a88e0001ff2b61,20,2022-02-12_12h35.53.492,lexical_decision_task_DD_L6,2021.2.3,iPhone,58.82352941,,,,,,,,,,0.458,1,,,,,,,,,,,,,,,0,-0.312244898,-0.337244898,1,0,0,0.458,button_left_main,-0.312244898,-0.337244898,1,0,0,,0,133,133,102,1,DULLE,C,z,z,./images/DULLE.png,,,,,,,,,,,,,,,,,,,,,,,,,,,,,,,,,
,,,,,,,,,,,,,,,,,5afcdf4796a88e0001ff2b61,20,2022-02-12_12h35.53.492,lexical_decision_task_DD_L6,2021.2.3,iPhone,58.82352941,,,,,,,,,,0.626,1,,,,,,,,,,,,,,,0,-0.332653061,-0.337244898,1,0,0,0.626,button_left_main,-0.332653061,-0.337244898,1,0,0,,0,134,134,148,1,JOMS,HB,z,z,./images/JOMSHB.png,,,,,,,,,,,,,,,,,,,,,,,,,,,,,,,,,
,,,,,,,,,,,,,,,,,5afcdf4796a88e0001ff2b61,20,2022-02-12_12h35.53.492,lexical_decision_task_DD_L6,2021.2.3,iPhone,58.82352941,,,,,,,,,,0.676,1,,,,,,,,,,,,,,,0,-0.332653061,-0.320918367,1,0,0,0.676,button_left_main,-0.332653061,-0.320918367,1,0,0,,0,135,135,146,1,MOOST,LB,z,z,./images/MOOSTLB.png,,,,,,,,,,,,,,,,,,,,,,,,,,,,,,,,,
,,,,,,,,,,,,,,,,,5afcdf4796a88e0001ff2b61,20,2022-02-12_12h35.53.492,lexical_decision_task_DD_L6,2021.2.3,iPhone,58.82352941,,,,,,,,,,0.624,1,,,,,,,,,,,,,,,0,-0.320408163,-0.332142857,1,0,0,0.624,button_left_main,-0.320408163,-0.332142857,1,0,0,,0,136,136,101,1,GLEET,LB,z,z,./images/GLEETLB.png,,,,,,,,,,,,,,,,,,,,,,,,,,,,,,,,,
,,,,,,,,,,,,,,,,,5afcdf4796a88e0001ff2b61,20,2022-02-12_12h35.53.492,lexical_decision_task_DD_L6,2021.2.3,iPhone,58.82352941,,,,,,,,,,0.758,1,,,,,,,,,,,,,,,0,-0.316326531,-0.331122449,1,0,0,0.758,button_left_main,-0.316326531,-0.331122449,1,0,0,,0,137,137,91,1,SHENS,HB,z,z,./images/SHENSHB.png,,,,,,,,,,,,,,,,,,,,,,,,,,,,,,,,,
,,,,,,,,,,,,,,,,,5afcdf4796a88e0001ff2b61,20,2022-02-12_12h35.53.492,lexical_decision_task_DD_L6,2021.2.3,iPhone,58.82352941,,,,,,,,,,0.575,1,,,,,,,,,,,,,,,0,-0.319387755,-0.328061224,1,0,0,0.575,button_left_main,-0.319387755,-0.328061224,1,0,0,,0,138,138,162,1,LEICH,C,z,z,./images/LEICH.png,,,,,,,,,,,,,,,,,,,,,,,,,,,,,,,,,
,,,,,,,,,,,,,,,,,5afcdf4796a88e0001ff2b61,20,2022-02-12_12h35.53.492,lexical_decision_task_DD_L6,2021.2.3,iPhone,58.82352941,,,,,,,,,,0.525,1,,,,,,,,,,,,,,,0,-0.310204082,-0.323979592,1,0,0,0.525,button_left_main,-0.310204082,-0.323979592,1,0,0,,0,139,139,114,1,RIKES,C,z,z,./images/RIKES.png,,,,,,,,,,,,,,,,,,,,,,,,,,,,,,,,,
,,,,,,,,,,,,,,,,,5afcdf4796a88e0001ff2b61,20,2022-02-12_12h35.53.492,lexical_decision_task_DD_L6,2021.2.3,iPhone,58.82352941,,,,,,,,,,0.856,1,,,,,,,,,,,,,,,0,0.243877551,-0.400510204,1,0,0,0.856,button_right_main,0.263265306,-0.36377551,1,0,0,,0,140,140,65,1,SPINE,HB,m,m,./images/SPINEHB.png,,,,,,,,,,,,,,,,,,,,,,,,,,,,,,,,,
,,,,,,,,,,,,,,,,,5afcdf4796a88e0001ff2b61,20,2022-02-12_12h35.53.492,lexical_decision_task_DD_L6,2021.2.3,iPhone,58.82352941,,,,,,,,,,0.709,1,,,,,,,,,,,,,,,0,-0.319387755,-0.349489796,1,0,0,0.709,button_left_main,-0.319387755,-0.349489796,1,0,0,,0,141,141,144,1,NAIRY,C,z,z,./images/NAIRY.png,,,,,,,,,,,,,,,,,,,,,,,,,,,,,,,,,
,,,,,,,,,,,,,,,,,5afcdf4796a88e0001ff2b61,20,2022-02-12_12h35.53.492,lexical_decision_task_DD_L6,2021.2.3,iPhone,58.82352941,,,,,,,,,,0.792,1,,,,,,,,,,,,,,,0,0.236734694,-0.369897959,1,0,0,0.792,button_right_main,0.236734694,-0.369897959,1,0,0,,0,142,142,2,1,STOVE,HB,m,m,./images/STOVEHB.png,,,,,,,,,,,,,,,,,,,,,,,,,,,,,,,,,
,,,,,,,,,,,,,,,,,5afcdf4796a88e0001ff2b61,20,2022-02-12_12h35.53.492,lexical_decision_task_DD_L6,2021.2.3,iPhone,58.82352941,,,,,,,,,,1.441,1,,,,,,,,,,,,,,,0,-0.308163265,-0.348469388,1,0,0,1.441,button_left_main,-0.308163265,-0.348469388,1,0,0,,0,143,143,128,1,GRIFT,LB,z,z,./images/GRIFTLB.png,,,,,,,,,,,,,,,,,,,,,,,,,,,,,,,,,
,,,,,,,,,,,,,,,,,5afcdf4796a88e0001ff2b61,20,2022-02-12_12h35.53.492,lexical_decision_task_DD_L6,2021.2.3,iPhone,58.82352941,,,,,,,,,,0.893,1,,,,,,,,,,,,,,,0,-0.290816327,-0.300510204,1,0,0,0.893,button_left_main,-0.290816327,-0.300510204,1,0,0,,0,144,144,95,1,HANTY,LB,z,z,./images/HANTYLB.png,,,,,,,,,,,,,,,,,,,,,,,,,,,,,,,,,
,,,,,,,,,,,,,,,,,5afcdf4796a88e0001ff2b61,20,2022-02-12_12h35.53.492,lexical_decision_task_DD_L6,2021.2.3,iPhone,58.82352941,,,,,,,,,,0.773,1,,,,,,,,,,,,,,,0,-0.312244898,-0.356632653,1,0,0,0.773,button_left_main,-0.312244898,-0.356632653,1,0,0,,0,145,145,99,1,BACKY,C,z,z,./images/BACKY.png,,,,,,,,,,,,,,,,,,,,,,,,,,,,,,,,,
,,,,,,,,,,,,,,,,,5afcdf4796a88e0001ff2b61,20,2022-02-12_12h35.53.492,lexical_decision_task_DD_L6,2021.2.3,iPhone,58.82352941,,,,,,,,,,0.875,1,,,,,,,,,,,,,,,0,0.267346939,-0.322959184,1,0,0,0.875,button_right_main,0.267346939,-0.322959184,1,0,0,,0,146,146,27,1,BUTTER,LB,m,m,./images/BUTTERLB.png,,,,,,,,,,,,,,,,,,,,,,,,,,,,,,,,,
,,,,,,,,,,,,,,,,,5afcdf4796a88e0001ff2b61,20,2022-02-12_12h35.53.492,lexical_decision_task_DD_L6,2021.2.3,iPhone,58.82352941,,,,,,,,,,0.86,1,,,,,,,,,,,,,,,0,-0.329591837,-0.344387755,1,0,0,0.86,button_left_main,-0.329591837,-0.344387755,1,0,0,,0,147,147,158,1,EGECT,LB,z,z,./images/EGECTLB.png,,,,,,,,,,,,,,,,,,,,,,,,,,,,,,,,,
,,,,,,,,,,,,,,,,,5afcdf4796a88e0001ff2b61,20,2022-02-12_12h35.53.492,lexical_decision_task_DD_L6,2021.2.3,iPhone,58.82352941,,,,,,,,,,0.727,1,,,,,,,,,,,,,,,0,-0.331632653,-0.300510204,1,0,0,0.727,button_left_main,-0.331632653,-0.300510204,1,0,0,,0,148,148,143,1,MONGS,LB,z,z,./images/MONGSLB.png,,,,,,,,,,,,,,,,,,,,,,,,,,,,,,,,,
,,,,,,,,,,,,,,,,,5afcdf4796a88e0001ff2b61,20,2022-02-12_12h35.53.492,lexical_decision_task_DD_L6,2021.2.3,iPhone,58.82352941,,,,,,,,,,0.842,1,,,,,,,,,,,,,,,0,0.309183673,-0.307653061,1,0,0,0.842,button_right_main,0.309183673,-0.307653061,1,0,0,,0,149,149,6,1,STAIN,LB,m,m,./images/STAINLB.png,,,,,,,,,,,,,,,,,,,,,,,,,,,,,,,,,
,,,,,,,,,,,,,,,,,5afcdf4796a88e0001ff2b61,20,2022-02-12_12h35.53.492,lexical_decision_task_DD_L6,2021.2.3,iPhone,58.82352941,,,,,,,,,,0.925,1,,,,,,,,,,,,,,,0,0.310204082,-0.373979592,1,0,0,0.925,button_right_main,0.310204082,-0.373979592,1,0,0,,0,150,150,41,1,STREAM,HB,m,m,./images/STREAMHB.png,,,,,,,,,,,,,,,,,,,,,,,,,,,,,,,,,
,,,,,,,,,,,,,,,,,5afcdf4796a88e0001ff2b61,20,2022-02-12_12h35.53.492,lexical_decision_task_DD_L6,2021.2.3,iPhone,58.82352941,,,,,,,,,,0.742,1,,,,,,,,,,,,,,,0,0.302040816,-0.331122449,1,0,0,0.742,button_right_main,0.302040816,-0.331122449,1,0,0,,0,151,151,81,1,DRILL,LB,m,m,./images/DRILLLB.png,,,,,,,,,,,,,,,,,,,,,,,,,,,,,,,,,
,,,,,,,,,,,,,,,,,5afcdf4796a88e0001ff2b61,20,2022-02-12_12h35.53.492,lexical_decision_task_DD_L6,2021.2.3,iPhone,58.82352941,,,,,,,,,,0.66,1,,,,,,,,,,,,,,,0,-0.379591837,-0.287244898,1,0,0,0.66,button_left_main,-0.379591837,-0.287244898,1,0,0,,0,152,152,104,1,GITTY,LB,z,z,./images/GITTYLB.png,,,,,,,,,,,,,,,,,,,,,,,,,,,,,,,,,
,,,,,,,,,,,,,,,,,5afcdf4796a88e0001ff2b61,20,2022-02-12_12h35.53.492,lexical_decision_task_DD_L6,2021.2.3,iPhone,58.82352941,,,,,,,,,,0.824,1,,,,,,,,,,,,,,,0,0.270408163,-0.388265306,1,0,0,0.824,button_right_main,0.270408163,-0.388265306,1,0,0,,0,153,153,9,1,DIVER,LB,m,m,./images/DIVERLB.png,,,,,,,,,,,,,,,,,,,,,,,,,,,,,,,,,
,,,,,,,,,,,,,,,,,5afcdf4796a88e0001ff2b61,20,2022-02-12_12h35.53.492,lexical_decision_task_DD_L6,2021.2.3,iPhone,58.82352941,,,,,,,,,,0.86,1,,,,,,,,,,,,,,,0,0.23877551,-0.359693878,1,0,0,0.86,button_right_main,0.23877551,-0.359693878,1,0,0,,0,154,154,63,1,BAKER,LB,m,m,./images/BAKERLB.png,,,,,,,,,,,,,,,,,,,,,,,,,,,,,,,,,
,,,,,,,,,,,,,,,,,5afcdf4796a88e0001ff2b61,20,2022-02-12_12h35.53.492,lexical_decision_task_DD_L6,2021.2.3,iPhone,58.82352941,,,,,,,,,,1.608,0,,,,,,,,,,,,,,,0,-0.379591837,-0.322959184,1,0,0,1.608,button_left_main,-0.379591837,-0.322959184,1,0,0,,0,155,155,25,1,CHALK,C,m,m,./images/CHALK.png,,,,,,,,,,,,,,,,,,,,,,,,,,,,,,,,,
,,,,,,,,,,,,,,,,,5afcdf4796a88e0001ff2b61,20,2022-02-12_12h35.53.492,lexical_decision_task_DD_L6,2021.2.3,iPhone,58.82352941,,,,,,,,,,1.043,1,,,,,,,,,,,,,,,0,0.228571429,-0.337244898,1,0,0,1.043,button_right_main,0.228571429,-0.337244898,1,0,0,,0,156,156,19,1,DONKEY,C,m,m,./images/DONKEY.png,,,,,,,,,,,,,,,,,,,,,,,,,,,,,,,,,
,,,,,,,,,,,,,,,,,5afcdf4796a88e0001ff2b61,20,2022-02-12_12h35.53.492,lexical_decision_task_DD_L6,2021.2.3,iPhone,58.82352941,,,,,,,,,,0.824,1,,,,,,,,,,,,,,,0,-0.391836735,-0.329081633,1,0,0,0.824,button_left_main,-0.391836735,-0.329081633,1,0,0,,0,157,157,133,1,POWDY,HB,z,z,./images/POWDYHB.png,,,,,,,,,,,,,,,,,,,,,,,,,,,,,,,,,
,,,,,,,,,,,,,,,,,5afcdf4796a88e0001ff2b61,20,2022-02-12_12h35.53.492,lexical_decision_task_DD_L6,2021.2.3,iPhone,58.82352941,,,,,,,,,,0.692,1,,,,,,,,,,,,,,,0,-0.38877551,-0.31377551,1,0,0,0.692,button_left_main,-0.38877551,-0.31377551,1,0,0,,0,158,158,134,1,TROSS,LB,z,z,./images/TROSSLB.png,,,,,,,,,,,,,,,,,,,,,,,,,,,,,,,,,
,,,,,,,,,,,,,,,,,5afcdf4796a88e0001ff2b61,20,2022-02-12_12h35.53.492,lexical_decision_task_DD_L6,2021.2.3,iPhone,58.82352941,,,,,,,,,,0.891,1,,,,,,,,,,,,,,,0,-0.370408163,-0.337244898,1,0,0,0.891,button_left_main,-0.370408163,-0.337244898,1,0,0,,0,159,159,124,1,TUNCH,HB,z,z,./images/TUNCHHB.png,,,,,,,,,,,,,,,,,,,,,,,,,,,,,,,,,
,,,,,,,,,,,,,,,,,5afcdf4796a88e0001ff2b61,20,2022-02-12_12h35.53.492,lexical_decision_task_DD_L6,2021.2.3,iPhone,58.82352941,,,,,,,,,,0.709,1,,,,,,,,,,,,,,,0,0.283673469,-0.387244898,1,0,0,0.709,button_right_main,0.283673469,-0.387244898,1,0,0,,0,160,160,45,1,MONKEY,LB,m,m,./images/MONKEYLB.png,,,,,,,,,,,,,,,,,,,,,,,,,,,,,,,,,
,,,,,,,,,,,,,,,,,5afcdf4796a88e0001ff2b61,20,2022-02-12_12h35.53.492,lexical_decision_task_DD_L6,2021.2.3,iPhone,58.82352941,,,,,,,,,,0.643,1,,,,,,,,,,,,,,,0,0.286734694,-0.369897959,1,0,0,0.643,button_right_main,0.286734694,-0.369897959,1,0,0,,0,161,161,26,1,CLOUD,HB,m,m,./images/CLOUDHB.png,,,,,,,,,,,,,,,,,,,,,,,,,,,,,,,,,
,,,,,,,,,,,,,,,,,5afcdf4796a88e0001ff2b61,20,2022-02-12_12h35.53.492,lexical_decision_task_DD_L6,2021.2.3,iPhone,58.82352941,,,,,,,,,,0.726,1,,,,,,,,,,,,,,,0,-0.406122449,-0.331122449,1,0,0,0.726,button_left_main,-0.406122449,-0.331122449,1,0,0,,0,162,162,93,1,SMONE,C,z,z,./images/SMONE.png,,,,,,,,,,,,,,,,,,,,,,,,,,,,,,,,,
,,,,,,,,,,,,,,,,,5afcdf4796a88e0001ff2b61,20,2022-02-12_12h35.53.492,lexical_decision_task_DD_L6,2021.2.3,iPhone,58.82352941,,,,,,,,,,2.073,1,,,,,,,,,,,,,,,0,0.282653061,-0.358673469,1,0,0,2.073,button_right_main,0.282653061,-0.358673469,1,0,0,,0,163,163,32,1,HOCKEY,HB,m,m,./images/HOCKEYHB.png,,,,,,,,,,,,,,,,,,,,,,,,,,,,,,,,,
,,,,,,,,,,,,,,,,,5afcdf4796a88e0001ff2b61,20,2022-02-12_12h35.53.492,lexical_decision_task_DD_L6,2021.2.3,iPhone,58.82352941,,,,,,,,,,0.724,1,,,,,,,,,,,,,,,0,-0.389795918,-0.331122449,1,0,0,0.724,button_left_main,-0.389795918,-0.331122449,1,0,0,,0,164,164,89,1,DRIEK,LB,z,z,./images/DRIEKLB.png,,,,,,,,,,,,,,,,,,,,,,,,,,,,,,,,,
,,,,,,,,,,,,,,,,,5afcdf4796a88e0001ff2b61,20,2022-02-12_12h35.53.492,lexical_decision_task_DD_L6,2021.2.3,iPhone,58.82352941,,,,,,,,,,0.741,1,,,,,,,,,,,,,,,0,-0.389795918,-0.341326531,1,0,0,0.741,button_left_main,-0.389795918,-0.341326531,1,0,0,,0,165,165,115,1,MAWNS,HB,z,z,./images/MAWNSHB.png,,,,,,,,,,,,,,,,,,,,,,,,,,,,,,,,,
,,,,,,,,,,,,,,,,,5afcdf4796a88e0001ff2b61,20,2022-02-12_12h35.53.492,lexical_decision_task_DD_L6,2021.2.3,iPhone,58.82352941,,,,,,,,,,0.554,1,,,,,,,,,,,,,,,0,-0.382653061,-0.372959184,1,0,0,0.554,button_left_main,-0.382653061,-0.372959184,1,0,0,,0,166,166,147,1,ZOLES,C,z,z,./images/ZOLES.png,,,,,,,,,,,,,,,,,,,,,,,,,,,,,,,,,
,,,,,,,,,,,,,,,,,5afcdf4796a88e0001ff2b61,20,2022-02-12_12h35.53.492,lexical_decision_task_DD_L6,2021.2.3,iPhone,58.82352941,,,,,,,,,,0.725,1,,,,,,,,,,,,,,,0,-0.391836735,-0.348469388,1,0,0,0.725,button_left_main,-0.391836735,-0.348469388,1,0,0,,0,167,167,92,1,PAIMS,LB,z,z,./images/PAIMSLB.png,,,,,,,,,,,,,,,,,,,,,,,,,,,,,,,,,
,,,,,,,,,,,,,,,,,5afcdf4796a88e0001ff2b61,20,2022-02-12_12h35.53.492,lexical_decision_task_DD_L6,2021.2.3,iPhone,58.82352941,,,,,,,,,,,,,,,,,,,,,,,,,,,,,,,,,,,,,,,,,,,,,,How likely will it be that you will recognize the words presented slighly blurred on a scale of 0 (not likely) to 100 (most likely)?,,,,,-0.043877551,-0.449489796,1,0,0,jol_adv,6,5.573,0,0,0,1,1,,,,,,,,,,,,,,,,,,,
,,,,,,,,,,,,,,,,,5afcdf4796a88e0001ff2b61,20,2022-02-12_12h35.53.492,lexical_decision_task_DD_L6,2021.2.3,iPhone,58.82352941,,,,,,,,,,,,,,,,,,,,,,,,,,,,,,,,,,,,,,,,,,,,,,How likely will it be that you will recognize the words presented clearly on a scale of 0 (not likely) to 100 (most likely)?,,,,,,,,,,,6,5.144,0,1,1,0,1,,,,,,,,,,,,,,,,,,,
,,,,,,,,,,,,,,,,,5afcdf4796a88e0001ff2b61,20,2022-02-12_12h35.53.492,lexical_decision_task_DD_L6,2021.2.3,iPhone,58.82352941,,,,,,,,,,,,,,,,,,,,,,,,,,,,,,,,,,,,,,,,,,,,,,How likely will it be that you will recognize the words presented very blurred on a scale of 0 (not likely) to 100 (most likely)?,,,,,,,,,,,5,4.328,0,2,2,2,1,,,,,,,,,,,,,,,,,,,
,0.058163265,-0.400510204,1,0,0,instr_done_button,,,,,,1,test,"In the next phase you will be presented with the words from the the first phase. Your job is to decide whether you remember seeing the word or not. If you remember seeing the word press ""old"" or type ""m"". If you do not remember seeing the word press ""new"" or type ""z"". Please press the space bar or click on continue to begin. ",,,5afcdf4796a88e0001ff2b61,20,2022-02-12_12h35.53.492,lexical_decision_task_DD_L6,2021.2.3,iPhone,58.82352941,,,,,,,,,,,,,,,,,,,,,,,,,,,,,,,,,,,,,,,,,,,,,,,,,,,,,,,,,,,,,,,,0,0,0,0,1,,,,,,,,,,,,,,
,0.085714286,-0.362755102,1,0,0,instr_done_button,,,,,,1,test,"In the next phase you will be presented with the words from the the first phase. Your job is to decide whether you remember seeing the word or not. If you remember seeing the word press ""old"" or type ""m"". If you do not remember seeing the word press ""new"" or type ""z"". Please press the space bar or click on continue to begin. ",,,5afcdf4796a88e0001ff2b61,20,2022-02-12_12h35.53.492,lexical_decision_task_DD_L6,2021.2.3,iPhone,58.82352941,,,,,,,,,,,,,,,,,,,,,,,,,,,,,,,,,,,,,,,,,,,,,,,,,,,,,,,,,,,,,,,,1,0,1,0,1,,,,,,,,,,,,,,
,0.075510204,-0.405612245,1,0,0,instr_done_button,,,,,,1,test,"In the next phase you will be presented with the words from the the first phase. Your job is to decide whether you remember seeing the word or not. If you remember seeing the word press ""old"" or type ""m"". If you do not remember seeing the word press ""new"" or type ""z"". Please press the space bar or click on continue to begin. ",,,5afcdf4796a88e0001ff2b61,20,2022-02-12_12h35.53.492,lexical_decision_task_DD_L6,2021.2.3,iPhone,58.82352941,,,,,,,,,,,,,,,,,,,,,,,,,,,,,,,,,,,,,,,,,,,,,,,,,,,,,,,,,,,,,,,,2,0,2,0,1,,,,,,,,,,,,,,
,0.043877551,-0.437244898,1,0,0,instr_done_button,,,,,,1,test,"In the next phase you will be presented with the words from the the first phase. Your job is to decide whether you remember seeing the word or not. If you remember seeing the word press ""old"" or type ""m"". If you do not remember seeing the word press ""new"" or type ""z"". Please press the space bar or click on continue to begin. ",,,5afcdf4796a88e0001ff2b61,20,2022-02-12_12h35.53.492,lexical_decision_task_DD_L6,2021.2.3,iPhone,58.82352941,,,,,,,,,,,,,,,,,,,,,,,,,,,,,,,,,,,,,,,,,,,,,,,,,,,,,,,,,,,,,,,,3,0,3,0,1,,,,,,,,,,,,,,
,0.02244898,-0.410714286,1,0,0,instr_done_button,,,,,,1,test,"In the next phase you will be presented with the words from the the first phase. Your job is to decide whether you remember seeing the word or not. If you remember seeing the word press ""old"" or type ""m"". If you do not remember seeing the word press ""new"" or type ""z"". Please press the space bar or click on continue to begin. ",,,5afcdf4796a88e0001ff2b61,20,2022-02-12_12h35.53.492,lexical_decision_task_DD_L6,2021.2.3,iPhone,58.82352941,,,,,,,,,,,,,,,,,,,,,,,,,,,,,,,,,,,,,,,,,,,,,,,,,,,,,,,,,,,,,,,,4,0,4,0,1,,,,,,,,,,,,,,
,,,,,,,,,,,,,,,,,5afcdf4796a88e0001ff2b61,20,2022-02-12_12h35.53.492,lexical_decision_task_DD_L6,2021.2.3,iPhone,58.82352941,,,,,,,,,,2.537,1,,,,,,,,,,,,,,,,,,,,,,,-0.379591837,-0.326020408,1,0,0,,,,,,,MOSQUE,C,z,y,./images/MOSQUE.png,,,,,,,,,,,,,,,,,,,,,0,-0.379591837,-0.326020408,1,0,0,2.537,button_left_test,0,0,0,127,1
,,,,,,,,,,,,,,,,,5afcdf4796a88e0001ff2b61,20,2022-02-12_12h35.53.492,lexical_decision_task_DD_L6,2021.2.3,iPhone,58.82352941,,,,,,,,,,0.741,1,,,,,,,,,,,,,,,,,,,,,,,0.346938776,-0.318877551,1,0,0,,,,,,,DESERT,C,m,y,./images/DESERT.png,,,,,,,,,,,,,,,,,,,,,0,0.346938776,-0.318877551,1,0,0,0.741,button_right_test,0,1,1,52,1
,,,,,,,,,,,,,,,,,5afcdf4796a88e0001ff2b61,20,2022-02-12_12h35.53.492,lexical_decision_task_DD_L6,2021.2.3,iPhone,58.82352941,,,,,,,,,,1.058,1,,,,,,,,,,,,,,,,,,,,,,,0.381632653,-0.29744898,1,0,0,,,,,,,MONKEY,LB,m,y,./images/MONKEYLB.png,,,,,,,,,,,,,,,,,,,,,0,0.381632653,-0.29744898,1,0,0,1.058,button_right_test,0,2,2,45,1
,,,,,,,,,,,,,,,,,5afcdf4796a88e0001ff2b61,20,2022-02-12_12h35.53.492,lexical_decision_task_DD_L6,2021.2.3,iPhone,58.82352941,,,,,,,,,,1.308,1,,,,,,,,,,,,,,,,,,,,,,,0.368367347,-0.332142857,1,0,0,,,,,,,RULER,C,m,y,./images/RULER.png,,,,,,,,,,,,,,,,,,,,,0,0.368367347,-0.332142857,1,0,0,1.308,button_right_test,0,3,3,79,1
,,,,,,,,,,,,,,,,,5afcdf4796a88e0001ff2b61,20,2022-02-12_12h35.53.492,lexical_decision_task_DD_L6,2021.2.3,iPhone,58.82352941,,,,,,,,,,0.641,1,,,,,,,,,,,,,,,,,,,,,,,0.358163265,-0.328061224,1,0,0,,,,,,,BANANA,C,m,y,./images/BANANA.png,,,,,,,,,,,,,,,,,,,,,0,0.358163265,-0.328061224,1,0,0,0.641,button_right_test,0,4,4,70,1
,,,,,,,,,,,,,,,,,5afcdf4796a88e0001ff2b61,20,2022-02-12_12h35.53.492,lexical_decision_task_DD_L6,2021.2.3,iPhone,58.82352941,,,,,,,,,,0.689,1,,,,,,,,,,,,,,,,,,,,,,,0.339795918,-0.305612245,1,0,0,,,,,,,DRILL,LB,m,y,./images/DRILLLB.png,,,,,,,,,,,,,,,,,,,,,0,0.339795918,-0.305612245,1,0,0,0.689,button_right_test,0,5,5,81,1
,,,,,,,,,,,,,,,,,5afcdf4796a88e0001ff2b61,20,2022-02-12_12h35.53.492,lexical_decision_task_DD_L6,2021.2.3,iPhone,58.82352941,,,,,,,,,,1.491,1,,,,,,,,,,,,,,,,,,,,,,,-0.369387755,-0.296428571,1,0,0,,,,,,,SNACK,C,z,y,./images/SNACK.png,,,,,,,,,,,,,,,,,,,,,0,-0.369387755,-0.296428571,1,0,0,1.491,button_left_test,0,6,6,157,1
,,,,,,,,,,,,,,,,,5afcdf4796a88e0001ff2b61,20,2022-02-12_12h35.53.492,lexical_decision_task_DD_L6,2021.2.3,iPhone,58.82352941,,,,,,,,,,1.02,1,,,,,,,,,,,,,,,,,,,,,,,0.316326531,-0.250510204,1,0,0,,,,,,,LAGOON,HB,m,y,./images/LAGOONHB.png,,,,,,,,,,,,,,,,,,,,,0,0.316326531,-0.250510204,1,0,0,1.02,button_right_test,0,7,7,47,1
,,,,,,,,,,,,,,,,,5afcdf4796a88e0001ff2b61,20,2022-02-12_12h35.53.492,lexical_decision_task_DD_L6,2021.2.3,iPhone,58.82352941,,,,,,,,,,1.156,0,,,,,,,,,,,,,,,,,,,,,,,0.283673469,-0.33622449,1,0,0,,,,,,,BABOON,C,z,y,./images/BABOON.png,,,,,,,,,,,,,,,,,,,,,0,0.283673469,-0.33622449,1,0,0,1.156,button_right_test,0,8,8,142,1
,,,,,,,,,,,,,,,,,5afcdf4796a88e0001ff2b61,20,2022-02-12_12h35.53.492,lexical_decision_task_DD_L6,2021.2.3,iPhone,58.82352941,,,,,,,,,,0.939,0,,,,,,,,,,,,,,,,,,,,,,,0.293877551,-0.330102041,1,0,0,,,,,,,STORM,LB,z,y,./images/STORMLB.png,,,,,,,,,,,,,,,,,,,,,0,0.293877551,-0.330102041,1,0,0,0.939,button_right_test,0,9,9,114,1
,,,,,,,,,,,,,,,,,5afcdf4796a88e0001ff2b61,20,2022-02-12_12h35.53.492,lexical_decision_task_DD_L6,2021.2.3,iPhone,58.82352941,,,,,,,,,,1.157,1,,,,,,,,,,,,,,,,,,,,,,,-0.384693878,-0.275,1,0,0,,,,,,,KIDNEY,LB,z,y,./images/KIDNEYLB.png,,,,,,,,,,,,,,,,,,,,,0,-0.384693878,-0.275,1,0,0,1.157,button_left_test,0,10,10,105,1
,,,,,,,,,,,,,,,,,5afcdf4796a88e0001ff2b61,20,2022-02-12_12h35.53.492,lexical_decision_task_DD_L6,2021.2.3,iPhone,58.82352941,,,,,,,,,,1.707,1,,,,,,,,,,,,,,,,,,,,,,,-0.353061224,-0.312755102,1,0,0,,,,,,,ATTIC,LB,z,y,./images/ATTICLB.png,,,,,,,,,,,,,,,,,,,,,0,-0.353061224,-0.312755102,1,0,0,1.707,button_left_test,0,11,11,111,1
,,,,,,,,,,,,,,,,,5afcdf4796a88e0001ff2b61,20,2022-02-12_12h35.53.492,lexical_decision_task_DD_L6,2021.2.3,iPhone,58.82352941,,,,,,,,,,0.725,1,,,,,,,,,,,,,,,,,,,,,,,-0.316326531,-0.314795918,1,0,0,,,,,,,GRAIN,LB,z,y,./images/GRAINLB.png,,,,,,,,,,,,,,,,,,,,,0,-0.316326531,-0.314795918,1,0,0,0.725,button_left_test,0,12,12,159,1
,,,,,,,,,,,,,,,,,5afcdf4796a88e0001ff2b61,20,2022-02-12_12h35.53.492,lexical_decision_task_DD_L6,2021.2.3,iPhone,58.82352941,,,,,,,,,,0.843,0,,,,,,,,,,,,,,,,,,,,,,,-0.320408163,-0.318877551,1,0,0,,,,,,,STATUE,LB,m,y,./images/STATUELB.png,,,,,,,,,,,,,,,,,,,,,0,-0.320408163,-0.318877551,1,0,0,0.843,button_left_test,0,13,13,66,1
,,,,,,,,,,,,,,,,,5afcdf4796a88e0001ff2b61,20,2022-02-12_12h35.53.492,lexical_decision_task_DD_L6,2021.2.3,iPhone,58.82352941,,,,,,,,,,0.823,0,,,,,,,,,,,,,,,,,,,,,,,0.304081633,-0.280102041,1,0,0,,,,,,,TWINS,LB,z,y,./images/TWINSLB.png,,,,,,,,,,,,,,,,,,,,,0,0.304081633,-0.280102041,1,0,0,0.823,button_right_test,0,14,14,144,1
,,,,,,,,,,,,,,,,,5afcdf4796a88e0001ff2b61,20,2022-02-12_12h35.53.492,lexical_decision_task_DD_L6,2021.2.3,iPhone,58.82352941,,,,,,,,,,1.092,0,,,,,,,,,,,,,,,,,,,,,,,-0.306122449,-0.330102041,1,0,0,,,,,,,CLIFF,HB,m,y,./images/CLIFFHB.png,,,,,,,,,,,,,,,,,,,,,0,-0.306122449,-0.330102041,1,0,0,1.092,button_left_test,0,15,15,8,1
,,,,,,,,,,,,,,,,,5afcdf4796a88e0001ff2b61,20,2022-02-12_12h35.53.492,lexical_decision_task_DD_L6,2021.2.3,iPhone,58.82352941,,,,,,,,,,0.975,1,,,,,,,,,,,,,,,,,,,,,,,0.27244898,-0.341326531,1,0,0,,,,,,,SAUNA,LB,m,y,./images/SAUNALB.png,,,,,,,,,,,,,,,,,,,,,0,0.27244898,-0.341326531,1,0,0,0.975,button_right_test,0,16,16,33,1
,,,,,,,,,,,,,,,,,5afcdf4796a88e0001ff2b61,20,2022-02-12_12h35.53.492,lexical_decision_task_DD_L6,2021.2.3,iPhone,58.82352941,,,,,,,,,,0.741,1,,,,,,,,,,,,,,,,,,,,,,,0.262244898,-0.344387755,1,0,0,,,,,,,GRANNY,HB,m,y,./images/GRANNYHB.png,,,,,,,,,,,,,,,,,,,,,0,0.262244898,-0.344387755,1,0,0,0.741,button_right_test,0,17,17,20,1
,,,,,,,,,,,,,,,,,5afcdf4796a88e0001ff2b61,20,2022-02-12_12h35.53.492,lexical_decision_task_DD_L6,2021.2.3,iPhone,58.82352941,,,,,,,,,,0.909,1,,,,,,,,,,,,,,,,,,,,,,,0.27244898,-0.327040816,1,0,0,,,,,,,STEAK,C,m,y,./images/STEAK.png,,,,,,,,,,,,,,,,,,,,,0,0.27244898,-0.327040816,1,0,0,0.909,button_right_test,0,18,18,31,1
,,,,,,,,,,,,,,,,,5afcdf4796a88e0001ff2b61,20,2022-02-12_12h35.53.492,lexical_decision_task_DD_L6,2021.2.3,iPhone,58.82352941,,,,,,,,,,0.676,1,,,,,,,,,,,,,,,,,,,,,,,0.307142857,-0.312755102,1,0,0,,,,,,,CLOWN,C,m,y,./images/CLOWN.png,,,,,,,,,,,,,,,,,,,,,0,0.307142857,-0.312755102,1,0,0,0.676,button_right_test,0,19,19,22,1
,,,,,,,,,,,,,,,,,5afcdf4796a88e0001ff2b61,20,2022-02-12_12h35.53.492,lexical_decision_task_DD_L6,2021.2.3,iPhone,58.82352941,,,,,,,,,,0.693,1,,,,,,,,,,,,,,,,,,,,,,,0.318367347,-0.314795918,1,0,0,,,,,,,DANCER,LB,m,y,./images/DANCERLB.png,,,,,,,,,,,,,,,,,,,,,0,0.318367347,-0.314795918,1,0,0,0.693,button_right_test,0,20,20,21,1
,,,,,,,,,,,,,,,,,5afcdf4796a88e0001ff2b61,20,2022-02-12_12h35.53.492,lexical_decision_task_DD_L6,2021.2.3,iPhone,58.82352941,,,,,,,,,,0.675,1,,,,,,,,,,,,,,,,,,,,,,,0.324489796,-0.309693878,1,0,0,,,,,,,DIVER,LB,m,y,./images/DIVERLB.png,,,,,,,,,,,,,,,,,,,,,0,0.324489796,-0.309693878,1,0,0,0.675,button_right_test,0,21,21,9,1
,,,,,,,,,,,,,,,,,5afcdf4796a88e0001ff2b61,20,2022-02-12_12h35.53.492,lexical_decision_task_DD_L6,2021.2.3,iPhone,58.82352941,,,,,,,,,,1.076,1,,,,,,,,,,,,,,,,,,,,,,,0.310204082,-0.299489796,1,0,0,,,,,,,ALLEY,C,m,y,./images/ALLEY.png,,,,,,,,,,,,,,,,,,,,,0,0.310204082,-0.299489796,1,0,0,1.076,button_right_test,0,22,22,55,1
,,,,,,,,,,,,,,,,,5afcdf4796a88e0001ff2b61,20,2022-02-12_12h35.53.492,lexical_decision_task_DD_L6,2021.2.3,iPhone,58.82352941,,,,,,,,,,0.758,1,,,,,,,,,,,,,,,,,,,,,,,-0.337755102,-0.319897959,1,0,0,,,,,,,SWING,C,z,y,./images/SWING.png,,,,,,,,,,,,,,,,,,,,,0,-0.337755102,-0.319897959,1,0,0,0.758,button_left_test,0,23,23,124,1
,,,,,,,,,,,,,,,,,5afcdf4796a88e0001ff2b61,20,2022-02-12_12h35.53.492,lexical_decision_task_DD_L6,2021.2.3,iPhone,58.82352941,,,,,,,,,,0.793,1,,,,,,,,,,,,,,,,,,,,,,,0.235714286,-0.338265306,1,0,0,,,,,,,MIDGET,C,m,y,./images/MIDGET.png,,,,,,,,,,,,,,,,,,,,,0,0.235714286,-0.338265306,1,0,0,0.793,button_right_test,0,24,24,76,1
,,,,,,,,,,,,,,,,,5afcdf4796a88e0001ff2b61,20,2022-02-12_12h35.53.492,lexical_decision_task_DD_L6,2021.2.3,iPhone,58.82352941,,,,,,,,,,0.709,1,,,,,,,,,,,,,,,,,,,,,,,0.320408163,-0.341326531,1,0,0,,,,,,,BUBBLE,HB,m,y,./images/BUBBLEHB.png,,,,,,,,,,,,,,,,,,,,,0,0.320408163,-0.341326531,1,0,0,0.709,button_right_test,0,25,25,71,1
,,,,,,,,,,,,,,,,,5afcdf4796a88e0001ff2b61,20,2022-02-12_12h35.53.492,lexical_decision_task_DD_L6,2021.2.3,iPhone,58.82352941,,,,,,,,,,0.675,1,,,,,,,,,,,,,,,,,,,,,,,0.323469388,-0.311734694,1,0,0,,,,,,,ARTIST,C,m,y,./images/ARTIST.png,,,,,,,,,,,,,,,,,,,,,0,0.323469388,-0.311734694,1,0,0,0.675,button_right_test,0,26,26,61,1
,,,,,,,,,,,,,,,,,5afcdf4796a88e0001ff2b61,20,2022-02-12_12h35.53.492,lexical_decision_task_DD_L6,2021.2.3,iPhone,58.82352941,,,,,,,,,,0.709,0,,,,,,,,,,,,,,,,,,,,,,,-0.292857143,-0.330102041,1,0,0,,,,,,,PARADE,HB,m,y,./images/PARADEHB.png,,,,,,,,,,,,,,,,,,,,,0,-0.292857143,-0.330102041,1,0,0,0.709,button_left_test,0,27,27,17,1
,,,,,,,,,,,,,,,,,5afcdf4796a88e0001ff2b61,20,2022-02-12_12h35.53.492,lexical_decision_task_DD_L6,2021.2.3,iPhone,58.82352941,,,,,,,,,,0.708,0,,,,,,,,,,,,,,,,,,,,,,,0.306122449,-0.325,1,0,0,,,,,,,SCREW,LB,z,y,./images/SCREWLB.png,,,,,,,,,,,,,,,,,,,,,0,0.306122449,-0.325,1,0,0,0.708,button_right_test,0,28,28,108,1
,,,,,,,,,,,,,,,,,5afcdf4796a88e0001ff2b61,20,2022-02-12_12h35.53.492,lexical_decision_task_DD_L6,2021.2.3,iPhone,58.82352941,,,,,,,,,,0.692,0,,,,,,,,,,,,,,,,,,,,,,,0.305102041,-0.314795918,1,0,0,,,,,,,SMOKER,HB,z,y,./images/SMOKERHB.png,,,,,,,,,,,,,,,,,,,,,0,0.305102041,-0.314795918,1,0,0,0.692,button_right_test,0,29,29,110,1
,,,,,,,,,,,,,,,,,5afcdf4796a88e0001ff2b61,20,2022-02-12_12h35.53.492,lexical_decision_task_DD_L6,2021.2.3,iPhone,58.82352941,,,,,,,,,,0.609,0,,,,,,,,,,,,,,,,,,,,,,,0.293877551,-0.310714286,1,0,0,,,,,,,POODLE,LB,z,y,./images/POODLELB.png,,,,,,,,,,,,,,,,,,,,,0,0.293877551,-0.310714286,1,0,0,0.609,button_right_test,0,30,30,165,1
,,,,,,,,,,,,,,,,,5afcdf4796a88e0001ff2b61,20,2022-02-12_12h35.53.492,lexical_decision_task_DD_L6,2021.2.3,iPhone,58.82352941,,,,,,,,,,0.792,1,,,,,,,,,,,,,,,,,,,,,,,-0.294897959,-0.290306122,1,0,0,,,,,,,PICKLE,HB,z,y,./images/PICKLEHB.png,,,,,,,,,,,,,,,,,,,,,0,-0.294897959,-0.290306122,1,0,0,0.792,button_left_test,0,31,31,98,1
,,,,,,,,,,,,,,,,,5afcdf4796a88e0001ff2b61,20,2022-02-12_12h35.53.492,lexical_decision_task_DD_L6,2021.2.3,iPhone,58.82352941,,,,,,,,,,0.96,0,,,,,,,,,,,,,,,,,,,,,,,0.269387755,-0.299489796,1,0,0,,,,,,,SWEAT,LB,z,y,./images/SWEATLB.png,,,,,,,,,,,,,,,,,,,,,0,0.269387755,-0.299489796,1,0,0,0.96,button_right_test,0,32,32,150,1
,,,,,,,,,,,,,,,,,5afcdf4796a88e0001ff2b61,20,2022-02-12_12h35.53.492,lexical_decision_task_DD_L6,2021.2.3,iPhone,58.82352941,,,,,,,,,,1.475,1,,,,,,,,,,,,,,,,,,,,,,,0.289795918,-0.342346939,1,0,0,,,,,,,HEATER,HB,m,y,./images/HEATERHB.png,,,,,,,,,,,,,,,,,,,,,0,0.289795918,-0.342346939,1,0,0,1.475,button_right_test,0,33,33,56,1
,,,,,,,,,,,,,,,,,5afcdf4796a88e0001ff2b61,20,2022-02-12_12h35.53.492,lexical_decision_task_DD_L6,2021.2.3,iPhone,58.82352941,,,,,,,,,,0.609,1,,,,,,,,,,,,,,,,,,,,,,,0.32244898,-0.295408163,1,0,0,,,,,,,SNAKE,C,m,y,./images/SNAKE.png,,,,,,,,,,,,,,,,,,,,,0,0.32244898,-0.295408163,1,0,0,0.609,button_right_test,0,34,34,40,1
,,,,,,,,,,,,,,,,,5afcdf4796a88e0001ff2b61,20,2022-02-12_12h35.53.492,lexical_decision_task_DD_L6,2021.2.3,iPhone,58.82352941,,,,,,,,,,0.655,1,,,,,,,,,,,,,,,,,,,,,,,0.291836735,-0.335204082,1,0,0,,,,,,,MAMMAL,HB,m,y,./images/MAMMALHB.png,,,,,,,,,,,,,,,,,,,,,0,0.291836735,-0.335204082,1,0,0,0.655,button_right_test,0,35,35,62,1
,,,,,,,,,,,,,,,,,5afcdf4796a88e0001ff2b61,20,2022-02-12_12h35.53.492,lexical_decision_task_DD_L6,2021.2.3,iPhone,58.82352941,,,,,,,,,,0.559,0,,,,,,,,,,,,,,,,,,,,,,,0.292857143,-0.348469388,1,0,0,,,,,,,WALRUS,HB,z,y,./images/WALRUSHB.png,,,,,,,,,,,,,,,,,,,,,0,0.292857143,-0.348469388,1,0,0,0.559,button_right_test,0,36,36,107,1
,,,,,,,,,,,,,,,,,5afcdf4796a88e0001ff2b61,20,2022-02-12_12h35.53.492,lexical_decision_task_DD_L6,2021.2.3,iPhone,58.82352941,,,,,,,,,,1.091,1,,,,,,,,,,,,,,,,,,,,,,,-0.318367347,-0.332142857,1,0,0,,,,,,,FINGER,LB,z,y,./images/FINGERLB.png,,,,,,,,,,,,,,,,,,,,,0,-0.318367347,-0.332142857,1,0,0,1.091,button_left_test,0,37,37,87,1
,,,,,,,,,,,,,,,,,5afcdf4796a88e0001ff2b61,20,2022-02-12_12h35.53.492,lexical_decision_task_DD_L6,2021.2.3,iPhone,58.82352941,,,,,,,,,,1.292,0,,,,,,,,,,,,,,,,,,,,,,,0.263265306,-0.322959184,1,0,0,,,,,,,BEARD,HB,z,y,./images/BEARDHB.png,,,,,,,,,,,,,,,,,,,,,0,0.263265306,-0.322959184,1,0,0,1.292,button_right_test,0,38,38,86,1
,,,,,,,,,,,,,,,,,5afcdf4796a88e0001ff2b61,20,2022-02-12_12h35.53.492,lexical_decision_task_DD_L6,2021.2.3,iPhone,58.82352941,,,,,,,,,,1.51,1,,,,,,,,,,,,,,,,,,,,,,,0.25,-0.329081633,1,0,0,,,,,,,VALLEY,HB,m,y,./images/VALLEYHB.png,,,,,,,,,,,,,,,,,,,,,0,0.25,-0.329081633,1,0,0,1.51,button_right_test,0,39,39,68,1
,,,,,,,,,,,,,,,,,5afcdf4796a88e0001ff2b61,20,2022-02-12_12h35.53.492,lexical_decision_task_DD_L6,2021.2.3,iPhone,58.82352941,,,,,,,,,,1.009,1,,,,,,,,,,,,,,,,,,,,,,,-0.281632653,-0.333163265,1,0,0,,,,,,,QUILL,C,z,y,./images/QUILL.png,,,,,,,,,,,,,,,,,,,,,0,-0.281632653,-0.333163265,1,0,0,1.009,button_left_test,0,40,40,115,1
,,,,,,,,,,,,,,,,,5afcdf4796a88e0001ff2b61,20,2022-02-12_12h35.53.492,lexical_decision_task_DD_L6,2021.2.3,iPhone,58.82352941,,,,,,,,,,0.772,1,,,,,,,,,,,,,,,,,,,,,,,0.18877551,-0.404591837,1,0,0,,,,,,,TIGER,C,m,y,./images/TIGER.png,break_done_button,,,,,,,,,,,,,,,,,,,,0,0.245918367,-0.341326531,1,0,0,0.772,button_right_test,0,41,41,37,1
,,,,,,,,,,,,,,,,,5afcdf4796a88e0001ff2b61,20,2022-02-12_12h35.53.492,lexical_decision_task_DD_L6,2021.2.3,iPhone,58.82352941,,,,,,,,,,2.56,1,,,,,,,,,,,,,,,,,,,,,,,0.319387755,-0.280102041,1,0,0,,,,,,,POSTER,HB,m,y,./images/POSTERHB.png,,,,,,,,,,,,,,,,,,,,,0,0.319387755,-0.280102041,1,0,0,2.56,button_right_test,0,42,42,53,1
,,,,,,,,,,,,,,,,,5afcdf4796a88e0001ff2b61,20,2022-02-12_12h35.53.492,lexical_decision_task_DD_L6,2021.2.3,iPhone,58.82352941,,,,,,,,,,0.776,0,,,,,,,,,,,,,,,,,,,,,,,0.342857143,-0.293367347,1,0,0,,,,,,,PAINT,C,z,y,./images/PAINT.png,,,,,,,,,,,,,,,,,,,,,0,0.342857143,-0.293367347,1,0,0,0.776,button_right_test,0,43,43,91,1
,,,,,,,,,,,,,,,,,5afcdf4796a88e0001ff2b61,20,2022-02-12_12h35.53.492,lexical_decision_task_DD_L6,2021.2.3,iPhone,58.82352941,,,,,,,,,,0.624,0,,,,,,,,,,,,,,,,,,,,,,,0.333673469,-0.23622449,1,0,0,,,,,,,STRING,HB,z,y,./images/STRINGHB.png,,,,,,,,,,,,,,,,,,,,,0,0.333673469,-0.23622449,1,0,0,0.624,button_right_test,0,44,44,125,1
,,,,,,,,,,,,,,,,,5afcdf4796a88e0001ff2b61,20,2022-02-12_12h35.53.492,lexical_decision_task_DD_L6,2021.2.3,iPhone,58.82352941,,,,,,,,,,0.976,1,,,,,,,,,,,,,,,,,,,,,,,0.312244898,-0.271938776,1,0,0,,,,,,,CLOTH,HB,m,y,./images/CLOTHHB.png,,,,,,,,,,,,,,,,,,,,,0,0.312244898,-0.271938776,1,0,0,0.976,button_right_test,0,45,45,23,1
,,,,,,,,,,,,,,,,,5afcdf4796a88e0001ff2b61,20,2022-02-12_12h35.53.492,lexical_decision_task_DD_L6,2021.2.3,iPhone,58.82352941,,,,,,,,,,0.707,1,,,,,,,,,,,,,,,,,,,,,,,-0.358163265,-0.299489796,1,0,0,,,,,,,SQUARE,LB,z,y,./images/SQUARELB.png,,,,,,,,,,,,,,,,,,,,,0,-0.358163265,-0.299489796,1,0,0,0.707,button_left_test,0,46,46,90,1
,,,,,,,,,,,,,,,,,5afcdf4796a88e0001ff2b61,20,2022-02-12_12h35.53.492,lexical_decision_task_DD_L6,2021.2.3,iPhone,58.82352941,,,,,,,,,,1.176,0,,,,,,,,,,,,,,,,,,,,,,,-0.347959184,-0.311734694,1,0,0,,,,,,,BLOKE,LB,m,y,./images/BLOKELB.png,,,,,,,,,,,,,,,,,,,,,0,-0.347959184,-0.311734694,1,0,0,1.176,button_left_test,0,47,47,12,1
,,,,,,,,,,,,,,,,,5afcdf4796a88e0001ff2b61,20,2022-02-12_12h35.53.492,lexical_decision_task_DD_L6,2021.2.3,iPhone,58.82352941,,,,,,,,,,1.126,0,,,,,,,,,,,,,,,,,,,,,,,0.342857143,-0.312755102,1,0,0,,,,,,,CANYON,C,z,y,./images/CANYON.png,,,,,,,,,,,,,,,,,,,,,0,0.342857143,-0.312755102,1,0,0,1.126,button_right_test,0,48,48,118,1
,,,,,,,,,,,,,,,,,5afcdf4796a88e0001ff2b61,20,2022-02-12_12h35.53.492,lexical_decision_task_DD_L6,2021.2.3,iPhone,58.82352941,,,,,,,,,,1.777,1,,,,,,,,,,,,,,,,,,,,,,,-0.321428571,-0.350510204,1,0,0,,,,,,,MELON,C,z,y,./images/MELON.png,,,,,,,,,,,,,,,,,,,,,0,-0.321428571,-0.350510204,1,0,0,1.777,button_left_test,0,49,49,106,1
,,,,,,,,,,,,,,,,,5afcdf4796a88e0001ff2b61,20,2022-02-12_12h35.53.492,lexical_decision_task_DD_L6,2021.2.3,iPhone,58.82352941,,,,,,,,,,1.126,0,,,,,,,,,,,,,,,,,,,,,,,0.256122449,-0.293367347,1,0,0,,,,,,,WEASEL,HB,z,y,./images/WEASELHB.png,,,,,,,,,,,,,,,,,,,,,0,0.256122449,-0.293367347,1,0,0,1.126,button_right_test,0,50,50,164,1
,,,,,,,,,,,,,,,,,5afcdf4796a88e0001ff2b61,20,2022-02-12_12h35.53.492,lexical_decision_task_DD_L6,2021.2.3,iPhone,58.82352941,,,,,,,,,,1.976,1,,,,,,,,,,,,,,,,,,,,,,,-0.325510204,-0.360714286,1,0,0,,,,,,,PIMPLE,HB,z,y,./images/PIMPLEHB.png,,,,,,,,,,,,,,,,,,,,,0,-0.325510204,-0.360714286,1,0,0,1.976,button_left_test,0,51,51,155,1
,,,,,,,,,,,,,,,,,5afcdf4796a88e0001ff2b61,20,2022-02-12_12h35.53.492,lexical_decision_task_DD_L6,2021.2.3,iPhone,58.82352941,,,,,,,,,,1.226,1,,,,,,,,,,,,,,,,,,,,,,,0.223469388,-0.290306122,1,0,0,,,,,,,FENCE,HB,m,y,./images/FENCEHB.png,,,,,,,,,,,,,,,,,,,,,0,0.223469388,-0.290306122,1,0,0,1.226,button_right_test,0,52,52,14,1
,,,,,,,,,,,,,,,,,5afcdf4796a88e0001ff2b61,20,2022-02-12_12h35.53.492,lexical_decision_task_DD_L6,2021.2.3,iPhone,58.82352941,,,,,,,,,,0.725,0,,,,,,,,,,,,,,,,,,,,,,,0.241836735,-0.290306122,1,0,0,,,,,,,CRUMB,HB,z,y,./images/CRUMBHB.png,,,,,,,,,,,,,,,,,,,,,0,0.241836735,-0.290306122,1,0,0,0.725,button_right_test,0,53,53,113,1
,,,,,,,,,,,,,,,,,5afcdf4796a88e0001ff2b61,20,2022-02-12_12h35.53.492,lexical_decision_task_DD_L6,2021.2.3,iPhone,58.82352941,,,,,,,,,,0.641,0,,,,,,,,,,,,,,,,,,,,,,,0.291836735,-0.30255102,1,0,0,,,,,,,PACKET,HB,z,y,./images/PACKETHB.png,,,,,,,,,,,,,,,,,,,,,0,0.291836735,-0.30255102,1,0,0,0.641,button_right_test,0,54,54,140,1
,,,,,,,,,,,,,,,,,5afcdf4796a88e0001ff2b61,20,2022-02-12_12h35.53.492,lexical_decision_task_DD_L6,2021.2.3,iPhone,58.82352941,,,,,,,,,,0.907,1,,,,,,,,,,,,,,,,,,,,,,,-0.32755102,-0.362755102,1,0,0,,,,,,,THROAT,LB,z,y,./images/THROATLB.png,,,,,,,,,,,,,,,,,,,,,0,-0.32755102,-0.362755102,1,0,0,0.907,button_left_test,0,55,55,120,1
,,,,,,,,,,,,,,,,,5afcdf4796a88e0001ff2b61,20,2022-02-12_12h35.53.492,lexical_decision_task_DD_L6,2021.2.3,iPhone,58.82352941,,,,,,,,,,1.076,1,,,,,,,,,,,,,,,,,,,,,,,0.243877551,-0.28622449,1,0,0,,,,,,,WHISKY,HB,m,y,./images/WHISKYHB.png,,,,,,,,,,,,,,,,,,,,,0,0.243877551,-0.28622449,1,0,0,1.076,button_right_test,0,56,56,83,1
,,,,,,,,,,,,,,,,,5afcdf4796a88e0001ff2b61,20,2022-02-12_12h35.53.492,lexical_decision_task_DD_L6,2021.2.3,iPhone,58.82352941,,,,,,,,,,1.308,0,,,,,,,,,,,,,,,,,,,,,,,0.28877551,-0.287244898,1,0,0,,,,,,,WRIST,C,z,y,./images/WRIST.png,,,,,,,,,,,,,,,,,,,,,0,0.28877551,-0.287244898,1,0,0,1.308,button_right_test,0,57,57,109,1
,,,,,,,,,,,,,,,,,5afcdf4796a88e0001ff2b61,20,2022-02-12_12h35.53.492,lexical_decision_task_DD_L6,2021.2.3,iPhone,58.82352941,,,,,,,,,,0.811,1,,,,,,,,,,,,,,,,,,,,,,,-0.31122449,-0.341326531,1,0,0,,,,,,,DOUGH,C,z,y,./images/DOUGH.png,,,,,,,,,,,,,,,,,,,,,0,-0.31122449,-0.341326531,1,0,0,0.811,button_left_test,0,58,58,103,1
,,,,,,,,,,,,,,,,,5afcdf4796a88e0001ff2b61,20,2022-02-12_12h35.53.492,lexical_decision_task_DD_L6,2021.2.3,iPhone,58.82352941,,,,,,,,,,0.975,0,,,,,,,,,,,,,,,,,,,,,,,0.325510204,-0.283163265,1,0,0,,,,,,,SAILOR,C,z,y,./images/SAILOR.png,,,,,,,,,,,,,,,,,,,,,0,0.325510204,-0.283163265,1,0,0,0.975,button_right_test,0,59,59,151,1
,,,,,,,,,,,,,,,,,5afcdf4796a88e0001ff2b61,20,2022-02-12_12h35.53.492,lexical_decision_task_DD_L6,2021.2.3,iPhone,58.82352941,,,,,,,,,,1.139,1,,,,,,,,,,,,,,,,,,,,,,,0.304081633,-0.305612245,1,0,0,,,,,,,MUMMY,C,m,y,./images/MUMMY.png,,,,,,,,,,,,,,,,,,,,,0,0.304081633,-0.305612245,1,0,0,1.139,button_right_test,0,60,60,46,1
,,,,,,,,,,,,,,,,,5afcdf4796a88e0001ff2b61,20,2022-02-12_12h35.53.492,lexical_decision_task_DD_L6,2021.2.3,iPhone,58.82352941,,,,,,,,,,1.375,0,,,,,,,,,,,,,,,,,,,,,,,-0.359183673,-0.301530612,1,0,0,,,,,,,FLASK,LB,m,y,./images/FLASKLB.png,,,,,,,,,,,,,,,,,,,,,0,-0.359183673,-0.301530612,1,0,0,1.375,button_left_test,0,61,61,72,1
,,,,,,,,,,,,,,,,,5afcdf4796a88e0001ff2b61,20,2022-02-12_12h35.53.492,lexical_decision_task_DD_L6,2021.2.3,iPhone,58.82352941,,,,,,,,,,1.226,1,,,,,,,,,,,,,,,,,,,,,,,-0.384693878,-0.327040816,1,0,0,,,,,,,CEMENT,HB,z,y,./images/CEMENTHB.png,,,,,,,,,,,,,,,,,,,,,0,-0.384693878,-0.327040816,1,0,0,1.226,button_left_test,0,62,62,158,1
,,,,,,,,,,,,,,,,,5afcdf4796a88e0001ff2b61,20,2022-02-12_12h35.53.492,lexical_decision_task_DD_L6,2021.2.3,iPhone,58.82352941,,,,,,,,,,1.559,1,,,,,,,,,,,,,,,,,,,,,,,-0.321428571,-0.353571429,1,0,0,,,,,,,CRADLE,HB,z,y,./images/CRADLEHB.png,,,,,,,,,,,,,,,,,,,,,0,-0.321428571,-0.353571429,1,0,0,1.559,button_left_test,0,63,63,104,1
,,,,,,,,,,,,,,,,,5afcdf4796a88e0001ff2b61,20,2022-02-12_12h35.53.492,lexical_decision_task_DD_L6,2021.2.3,iPhone,58.82352941,,,,,,,,,,1.138,1,,,,,,,,,,,,,,,,,,,,,,,0.320408163,-0.328061224,1,0,0,,,,,,,BOXER,C,m,y,./images/BOXER.png,,,,,,,,,,,,,,,,,,,,,0,0.320408163,-0.328061224,1,0,0,1.138,button_right_test,0,64,64,4,1
,,,,,,,,,,,,,,,,,5afcdf4796a88e0001ff2b61,20,2022-02-12_12h35.53.492,lexical_decision_task_DD_L6,2021.2.3,iPhone,58.82352941,,,,,,,,,,0.773,1,,,,,,,,,,,,,,,,,,,,,,,0.285714286,-0.316836735,1,0,0,,,,,,,GRAPE,C,m,y,./images/GRAPE.png,,,,,,,,,,,,,,,,,,,,,0,0.285714286,-0.316836735,1,0,0,0.773,button_right_test,0,65,65,16,1
,,,,,,,,,,,,,,,,,5afcdf4796a88e0001ff2b61,20,2022-02-12_12h35.53.492,lexical_decision_task_DD_L6,2021.2.3,iPhone,58.82352941,,,,,,,,,,0.953,1,,,,,,,,,,,,,,,,,,,,,,,0.283673469,-0.316836735,1,0,0,,,,,,,HOCKEY,HB,m,y,./images/HOCKEYHB.png,,,,,,,,,,,,,,,,,,,,,0,0.283673469,-0.316836735,1,0,0,0.953,button_right_test,0,66,66,32,1
,,,,,,,,,,,,,,,,,5afcdf4796a88e0001ff2b61,20,2022-02-12_12h35.53.492,lexical_decision_task_DD_L6,2021.2.3,iPhone,58.82352941,,,,,,,,,,0.94,1,,,,,,,,,,,,,,,,,,,,,,,-0.3,-0.332142857,1,0,0,,,,,,,SHORE,LB,z,y,./images/SHORELB.png,,,,,,,,,,,,,,,,,,,,,0,-0.3,-0.332142857,1,0,0,0.94,button_left_test,0,67,67,96,1
,,,,,,,,,,,,,,,,,5afcdf4796a88e0001ff2b61,20,2022-02-12_12h35.53.492,lexical_decision_task_DD_L6,2021.2.3,iPhone,58.82352941,,,,,,,,,,0.942,1,,,,,,,,,,,,,,,,,,,,,,,-0.289795918,-0.30255102,1,0,0,,,,,,,MIRROR,LB,z,y,./images/MIRRORLB.png,,,,,,,,,,,,,,,,,,,,,0,-0.289795918,-0.30255102,1,0,0,0.942,button_left_test,0,68,68,147,1
,,,,,,,,,,,,,,,,,5afcdf4796a88e0001ff2b61,20,2022-02-12_12h35.53.492,lexical_decision_task_DD_L6,2021.2.3,iPhone,58.82352941,,,,,,,,,,1.07,0,,,,,,,,,,,,,,,,,,,,,,,0.365306122,-0.317857143,1,0,0,,,,,,,TORCH,HB,z,y,./images/TORCHHB.png,,,,,,,,,,,,,,,,,,,,,0,0.365306122,-0.317857143,1,0,0,1.07,button_right_test,0,69,69,152,1
,,,,,,,,,,,,,,,,,5afcdf4796a88e0001ff2b61,20,2022-02-12_12h35.53.492,lexical_decision_task_DD_L6,2021.2.3,iPhone,58.82352941,,,,,,,,,,0.775,1,,,,,,,,,,,,,,,,,,,,,,,0.303061224,-0.281122449,1,0,0,,,,,,,TOWEL,C,m,y,./images/TOWEL.png,,,,,,,,,,,,,,,,,,,,,0,0.303061224,-0.281122449,1,0,0,0.775,button_right_test,0,70,70,1,1
,,,,,,,,,,,,,,,,,5afcdf4796a88e0001ff2b61,20,2022-02-12_12h35.53.492,lexical_decision_task_DD_L6,2021.2.3,iPhone,58.82352941,,,,,,,,,,1.024,1,,,,,,,,,,,,,,,,,,,,,,,0.224489796,-0.317857143,1,0,0,,,,,,,DONKEY,C,m,y,./images/DONKEY.png,,,,,,,,,,,,,,,,,,,,,0,0.224489796,-0.317857143,1,0,0,1.024,button_right_test,0,71,71,19,1
,,,,,,,,,,,,,,,,,5afcdf4796a88e0001ff2b61,20,2022-02-12_12h35.53.492,lexical_decision_task_DD_L6,2021.2.3,iPhone,58.82352941,,,,,,,,,,1.84,1,,,,,,,,,,,,,,,,,,,,,,,-0.35,-0.314795918,1,0,0,,,,,,,BERRY,HB,z,y,./images/BERRYHB.png,,,,,,,,,,,,,,,,,,,,,0,-0.35,-0.314795918,1,0,0,1.84,button_left_test,0,72,72,131,1
,,,,,,,,,,,,,,,,,5afcdf4796a88e0001ff2b61,20,2022-02-12_12h35.53.492,lexical_decision_task_DD_L6,2021.2.3,iPhone,58.82352941,,,,,,,,,,1.703,1,,,,,,,,,,,,,,,,,,,,,,,0.348979592,-0.332142857,1,0,0,,,,,,,STOVE,HB,m,y,./images/STOVEHB.png,,,,,,,,,,,,,,,,,,,,,0,0.348979592,-0.332142857,1,0,0,1.703,button_right_test,0,73,73,2,1
,,,,,,,,,,,,,,,,,5afcdf4796a88e0001ff2b61,20,2022-02-12_12h35.53.492,lexical_decision_task_DD_L6,2021.2.3,iPhone,58.82352941,,,,,,,,,,0.992,1,,,,,,,,,,,,,,,,,,,,,,,-0.32755102,-0.330102041,1,0,0,,,,,,,FARMER,HB,z,y,./images/FARMERHB.png,,,,,,,,,,,,,,,,,,,,,0,-0.32755102,-0.330102041,1,0,0,0.992,button_left_test,0,74,74,149,1
,,,,,,,,,,,,,,,,,5afcdf4796a88e0001ff2b61,20,2022-02-12_12h35.53.492,lexical_decision_task_DD_L6,2021.2.3,iPhone,58.82352941,,,,,,,,,,1.309,1,,,,,,,,,,,,,,,,,,,,,,,-0.337755102,-0.292346939,1,0,0,,,,,,,RHINO,LB,z,y,./images/RHINOLB.png,,,,,,,,,,,,,,,,,,,,,0,-0.337755102,-0.292346939,1,0,0,1.309,button_left_test,0,75,75,93,1
,,,,,,,,,,,,,,,,,5afcdf4796a88e0001ff2b61,20,2022-02-12_12h35.53.492,lexical_decision_task_DD_L6,2021.2.3,iPhone,58.82352941,,,,,,,,,,1.159,0,,,,,,,,,,,,,,,,,,,,,,,-0.376530612,-0.358673469,1,0,0,,,,,,,ENGINE,HB,m,y,./images/ENGINEHB.png,,,,,,,,,,,,,,,,,,,,,0,-0.376530612,-0.358673469,1,0,0,1.159,button_left_test,0,76,76,38,1
,,,,,,,,,,,,,,,,,5afcdf4796a88e0001ff2b61,20,2022-02-12_12h35.53.492,lexical_decision_task_DD_L6,2021.2.3,iPhone,58.82352941,,,,,,,,,,0.975,0,,,,,,,,,,,,,,,,,,,,,,,0.306122449,-0.318877551,1,0,0,,,,,,,ONION,LB,z,y,./images/ONIONLB.png,,,,,,,,,,,,,,,,,,,,,0,0.306122449,-0.318877551,1,0,0,0.975,button_right_test,0,77,77,135,1
,,,,,,,,,,,,,,,,,5afcdf4796a88e0001ff2b61,20,2022-02-12_12h35.53.492,lexical_decision_task_DD_L6,2021.2.3,iPhone,58.82352941,,,,,,,,,,1.126,1,,,,,,,,,,,,,,,,,,,,,,,0.286734694,-0.295408163,1,0,0,,,,,,,HAMMER,LB,m,y,./images/HAMMERLB.png,,,,,,,,,,,,,,,,,,,,,0,0.286734694,-0.295408163,1,0,0,1.126,button_right_test,0,78,78,75,1
,,,,,,,,,,,,,,,,,5afcdf4796a88e0001ff2b61,20,2022-02-12_12h35.53.492,lexical_decision_task_DD_L6,2021.2.3,iPhone,58.82352941,,,,,,,,,,1.341,0,,,,,,,,,,,,,,,,,,,,,,,0.296938776,-0.292346939,1,0,0,,,,,,,CARPET,HB,z,y,./images/CARPETHB.png,,,,,,,,,,,,,,,,,,,,,0,0.296938776,-0.292346939,1,0,0,1.341,button_right_test,0,79,79,137,1
,,,,,,,,,,,,,,,,,5afcdf4796a88e0001ff2b61,20,2022-02-12_12h35.53.492,lexical_decision_task_DD_L6,2021.2.3,iPhone,58.82352941,,,,,,,,,,1.253,1,,,,,,,,,,,,,,,,,,,,,,,-0.31122449,-0.301530612,1,0,0,,,,,,,DRUMS,C,z,y,./images/DRUMS.png,,,,,,,,,,,,,,,,,,,,,0,-0.31122449,-0.301530612,1,0,0,1.253,button_left_test,0,80,80,133,1
,,,,,,,,,,,,,,,,,5afcdf4796a88e0001ff2b61,20,2022-02-12_12h35.53.492,lexical_decision_task_DD_L6,2021.2.3,iPhone,58.82352941,,,,,,,,,,0.893,0,,,,,,,,,,,,,,,,,,,,,,,0.352040816,-0.26377551,1,0,0,,,,,,,CANDLE,C,z,y,./images/CANDLE.png,,,,,,,,,,,,,,,,,,,,,0,0.352040816,-0.26377551,1,0,0,0.893,button_right_test,0,81,81,145,1
,,,,,,,,,,,,,,,,,5afcdf4796a88e0001ff2b61,20,2022-02-12_12h35.53.492,lexical_decision_task_DD_L6,2021.2.3,iPhone,58.82352941,,,,,,,,,,0.743,1,,,,,,,,,,,,,,,,,,,,,,,0.321428571,-0.291326531,1,0,0,,,,,,,STAIN,LB,m,y,./images/STAINLB.png,,,,,,,,,,,,,,,,,,,,,0,0.321428571,-0.291326531,1,0,0,0.743,button_right_test,0,82,82,6,1
,,,,,,,,,,,,,,,,,5afcdf4796a88e0001ff2b61,20,2022-02-12_12h35.53.492,lexical_decision_task_DD_L6,2021.2.3,iPhone,58.82352941,,,,,,,,,,2.91,1,,,,,,,,,,,,,,,,,,,,,,,0.019387755,-0.411734694,1,0,0,,,,,,,JUMPER,HB,m,y,./images/JUMPERHB.png,break_done_button,,,,,,,,,,,,,,,,,,,,0,0.353061224,-0.36377551,1,0,0,2.91,button_right_test,0,83,83,74,1
,,,,,,,,,,,,,,,,,5afcdf4796a88e0001ff2b61,20,2022-02-12_12h35.53.492,lexical_decision_task_DD_L6,2021.2.3,iPhone,58.82352941,,,,,,,,,,1.492,0,,,,,,,,,,,,,,,,,,,,,,,-0.345918367,-0.33622449,1,0,0,,,,,,,BRUSH,HB,m,y,./images/BRUSHHB.png,,,,,,,,,,,,,,,,,,,,,0,-0.345918367,-0.33622449,1,0,0,1.492,button_left_test,0,84,84,59,1
,,,,,,,,,,,,,,,,,5afcdf4796a88e0001ff2b61,20,2022-02-12_12h35.53.492,lexical_decision_task_DD_L6,2021.2.3,iPhone,58.82352941,,,,,,,,,,1.009,1,,,,,,,,,,,,,,,,,,,,,,,-0.343877551,-0.305612245,1,0,0,,,,,,,FOLDER,LB,z,y,./images/FOLDERLB.png,,,,,,,,,,,,,,,,,,,,,0,-0.343877551,-0.305612245,1,0,0,1.009,button_left_test,0,85,85,126,1
,,,,,,,,,,,,,,,,,5afcdf4796a88e0001ff2b61,20,2022-02-12_12h35.53.492,lexical_decision_task_DD_L6,2021.2.3,iPhone,58.82352941,,,,,,,,,,0.759,0,,,,,,,,,,,,,,,,,,,,,,,0.310204082,-0.351530612,1,0,0,,,,,,,SHELF,LB,z,y,./images/SHELFLB.png,,,,,,,,,,,,,,,,,,,,,0,0.310204082,-0.351530612,1,0,0,0.759,button_right_test,0,86,86,123,1
,,,,,,,,,,,,,,,,,5afcdf4796a88e0001ff2b61,20,2022-02-12_12h35.53.492,lexical_decision_task_DD_L6,2021.2.3,iPhone,58.82352941,,,,,,,,,,0.877,1,,,,,,,,,,,,,,,,,,,,,,,0.317346939,-0.337244898,1,0,0,,,,,,,BOILER,LB,m,y,./images/BOILERLB.png,,,,,,,,,,,,,,,,,,,,,0,0.317346939,-0.337244898,1,0,0,0.877,button_right_test,0,87,87,36,1
,,,,,,,,,,,,,,,,,5afcdf4796a88e0001ff2b61,20,2022-02-12_12h35.53.492,lexical_decision_task_DD_L6,2021.2.3,iPhone,58.82352941,,,,,,,,,,0.691,0,,,,,,,,,,,,,,,,,,,,,,,0.33877551,-0.331122449,1,0,0,,,,,,,INFANT,C,z,y,./images/INFANT.png,,,,,,,,,,,,,,,,,,,,,0,0.33877551,-0.331122449,1,0,0,0.691,button_right_test,0,88,88,160,1
,,,,,,,,,,,,,,,,,5afcdf4796a88e0001ff2b61,20,2022-02-12_12h35.53.492,lexical_decision_task_DD_L6,2021.2.3,iPhone,58.82352941,,,,,,,,,,0.86,1,,,,,,,,,,,,,,,,,,,,,,,-0.344897959,-0.295408163,1,0,0,,,,,,,COOKER,LB,z,y,./images/COOKERLB.png,,,,,,,,,,,,,,,,,,,,,0,-0.344897959,-0.295408163,1,0,0,0.86,button_left_test,0,89,89,153,1
,,,,,,,,,,,,,,,,,5afcdf4796a88e0001ff2b61,20,2022-02-12_12h35.53.492,lexical_decision_task_DD_L6,2021.2.3,iPhone,58.82352941,,,,,,,,,,0.742,0,,,,,,,,,,,,,,,,,,,,,,,-0.331632653,-0.265816327,1,0,0,,,,,,,PARCEL,LB,m,y,./images/PARCELLB.png,,,,,,,,,,,,,,,,,,,,,0,-0.331632653,-0.265816327,1,0,0,0.742,button_left_test,0,90,90,18,1
,,,,,,,,,,,,,,,,,5afcdf4796a88e0001ff2b61,20,2022-02-12_12h35.53.492,lexical_decision_task_DD_L6,2021.2.3,iPhone,58.82352941,,,,,,,,,,0.758,1,,,,,,,,,,,,,,,,,,,,,,,0.336734694,-0.327040816,1,0,0,,,,,,,PISTOL,HB,m,y,./images/PISTOLHB.png,,,,,,,,,,,,,,,,,,,,,0,0.336734694,-0.327040816,1,0,0,0.758,button_right_test,0,91,91,29,1
,,,,,,,,,,,,,,,,,5afcdf4796a88e0001ff2b61,20,2022-02-12_12h35.53.492,lexical_decision_task_DD_L6,2021.2.3,iPhone,58.82352941,,,,,,,,,,0.591,1,,,,,,,,,,,,,,,,,,,,,,,0.324489796,-0.348469388,1,0,0,,,,,,,RAZOR,C,m,y,./images/RAZOR.png,,,,,,,,,,,,,,,,,,,,,0,0.324489796,-0.348469388,1,0,0,0.591,button_right_test,0,92,92,34,1
,,,,,,,,,,,,,,,,,5afcdf4796a88e0001ff2b61,20,2022-02-12_12h35.53.492,lexical_decision_task_DD_L6,2021.2.3,iPhone,58.82352941,,,,,,,,,,0.604,1,,,,,,,,,,,,,,,,,,,,,,,0.331632653,-0.36377551,1,0,0,,,,,,,BAMBOO,HB,m,y,./images/BAMBOOHB.png,,,,,,,,,,,,,,,,,,,,,0,0.331632653,-0.36377551,1,0,0,0.604,button_right_test,0,93,93,5,1
,,,,,,,,,,,,,,,,,5afcdf4796a88e0001ff2b61,20,2022-02-12_12h35.53.492,lexical_decision_task_DD_L6,2021.2.3,iPhone,58.82352941,,,,,,,,,,0.675,1,,,,,,,,,,,,,,,,,,,,,,,-0.35,-0.276020408,1,0,0,,,,,,,SUNSET,C,z,y,./images/SUNSET.png,,,,,,,,,,,,,,,,,,,,,0,-0.35,-0.276020408,1,0,0,0.675,button_left_test,0,94,94,166,1
,,,,,,,,,,,,,,,,,5afcdf4796a88e0001ff2b61,20,2022-02-12_12h35.53.492,lexical_decision_task_DD_L6,2021.2.3,iPhone,58.82352941,,,,,,,,,,0.86,0,,,,,,,,,,,,,,,,,,,,,,,0.323469388,-0.328061224,1,0,0,,,,,,,COUCH,HB,z,y,./images/COUCHHB.png,,,,,,,,,,,,,,,,,,,,,0,0.323469388,-0.328061224,1,0,0,0.86,button_right_test,0,95,95,161,1
,,,,,,,,,,,,,,,,,5afcdf4796a88e0001ff2b61,20,2022-02-12_12h35.53.492,lexical_decision_task_DD_L6,2021.2.3,iPhone,58.82352941,,,,,,,,,,0.658,1,,,,,,,,,,,,,,,,,,,,,,,0.32755102,-0.272959184,1,0,0,,,,,,,CURRY,LB,m,y,./images/CURRYLB.png,,,,,,,,,,,,,,,,,,,,,0,0.32755102,-0.272959184,1,0,0,0.658,button_right_test,0,96,96,60,1
,,,,,,,,,,,,,,,,,5afcdf4796a88e0001ff2b61,20,2022-02-12_12h35.53.492,lexical_decision_task_DD_L6,2021.2.3,iPhone,58.82352941,,,,,,,,,,0.724,1,,,,,,,,,,,,,,,,,,,,,,,-0.331632653,-0.270918367,1,0,0,,,,,,,BURIAL,HB,z,y,./images/BURIALHB.png,,,,,,,,,,,,,,,,,,,,,0,-0.331632653,-0.270918367,1,0,0,0.724,button_left_test,0,97,97,143,1
