key_resp.keys,instr_done_touch.x,instr_done_touch.y,instr_done_touch.leftButton,instr_done_touch.midButton,instr_done_touch.rightButton,instr_done_touch.clicked_name,instruction_pages.thisRepN,instruction_pages.thisTrialN,instruction_pages.thisN,instruction_pages.thisIndex,instruction_pages.ran,pageN,phase,instruct_text,has_image,instruct_image,participant,age,date,expName,psychopyVersion,OS,frameRate,response.keys,response.corr,touch_resp.x,touch_resp.y,touch_resp.leftButton,touch_resp.midButton,touch_resp.rightButton,touch_resp.time,touch_resp.clicked_name,rt,corr,practrials.thisRepN,practrials.thisTrialN,practrials.thisN,practrials.thisIndex,practrials.ran,TrialID,Target,corrAns,end_of_practice_trials_pages.thisRepN,end_of_practice_trials_pages.thisTrialN,end_of_practice_trials_pages.thisN,end_of_practice_trials_pages.thisIndex,end_of_practice_trials_pages.ran,key_resp_2.keys,key_resp_2.corr,targ_click.x,targ_click.y,targ_click.leftButton,targ_click.midButton,targ_click.rightButton,targ_click.time,targ_click.clicked_name,break_done_touch.x,break_done_touch.y,break_done_touch.leftButton,break_done_touch.midButton,break_done_touch.rightButton,break_done_keyboard.keys,maintrials.thisRepN,maintrials.thisTrialN,maintrials.thisN,maintrials.thisIndex,maintrials.ran,string,blur,study,lex,stim_path,break_done_touch.clicked_name,mouse_2.x,mouse_2.y,mouse_2.leftButton,mouse_2.midButton,mouse_2.rightButton,mouse_2.clicked_name,slider.response,slider.rt,trials.thisRepN,trials.thisTrialN,trials.thisN,trials.thisIndex,trials.ran,test_instructions.thisRepN,test_instructions.thisTrialN,test_instructions.thisN,test_instructions.thisIndex,test_instructions.ran,key_resp_3.keys,key_resp_3.corr,test_click.x,test_click.y,test_click.leftButton,test_click.midButton,test_click.rightButton,test_click.time,test_click.clicked_name,test_phase.thisRepN,test_phase.thisTrialN,test_phase.thisN,test_phase.thisIndex,test_phase.ran
,0.121826172,-0.374652778,1,0,0,instr_done_button,0,0,0,0,1,1,instructions,"INSTRUCTIONS
At the start of each trial, look at the plus sign  (+) in the center of the screen.  This tells you that a trial is about to begin and where to look. Second, the plus sign will disappear and a string of letters will appear. Your task is to determine if the string of letters is a word or not. If the item is a word press the M key (on keyboard)  or touch the word button (phone/tablet).  If the item is not a word,  press the  Z key (on keyboard)  or touch the nonword button (on phone/tablet). 
Press the space bar or touch  continue.",0,,5b0495e0b98c410001adb589,28,2022-02-12_14h27.28.291,lexical_decision_task_DD,2021.2.3,Linux armv8l,59.85156811,,,,,,,,,,,,,,,,,,,,,,,,,,,,,,,,,,,,,,,,,,,,,,,,,,,,,,,,,,,,,,,,,,,,,,,,,,,,,,,,,,
,0.117431641,-0.38444553,1,0,0,instr_done_button,0,1,1,1,1,2,instructions,"If your device has a keyboard, press the 'Z' key for nonwords and the 'M' key for words.





Press the space bar or touch the button below to continue.",0,keyboard-example.gif,5b0495e0b98c410001adb589,28,2022-02-12_14h27.28.291,lexical_decision_task_DD,2021.2.3,Linux armv8l,59.85156811,,,,,,,,,,,,,,,,,,,,,,,,,,,,,,,,,,,,,,,,,,,,,,,,,,,,,,,,,,,,,,,,,,,,,,,,,,,,,,,,,,
,0.146972656,-0.392176649,1,0,0,instr_done_button,0,2,2,2,1,3,instructions,"If you are using a touchscreen only device, use the buttons on the screen. Do not use the mouse.





Press the space bar or touch the button below to continue.",0,touchscreen-example.gif,5b0495e0b98c410001adb589,28,2022-02-12_14h27.28.291,lexical_decision_task_DD,2021.2.3,Linux armv8l,59.85156811,,,,,,,,,,,,,,,,,,,,,,,,,,,,,,,,,,,,,,,,,,,,,,,,,,,,,,,,,,,,,,,,,,,,,,,,,,,,,,,,,,
,0.136962891,-0.394238281,1,0,0,instr_done_button,0,3,3,3,1,4,instructions,"It is very important that you respond as quickly and accurately as possible, as each letter string will only be on the screen for two seconds. If you do not respond within this time, the message 'Too slow!' will be displayed and the experiment will progress to the next letter string. The first 20 trials will be practice trials and you will receive feedback on your answers. 

Press the space bar or touch the button below to start the practice trials.",0,,5b0495e0b98c410001adb589,28,2022-02-12_14h27.28.291,lexical_decision_task_DD,2021.2.3,Linux armv8l,59.85156811,,,,,,,,,,,,,,,,,,,,,,,,,,,,,,,,,,,,,,,,,,,,,,,,,,,,,,,,,,,,,,,,,,,,,,,,,,,,,,,,,,
,,,,,,,,,,,,,,,,,5b0495e0b98c410001adb589,28,2022-02-12_14h27.28.291,lexical_decision_task_DD,2021.2.3,Linux armv8l,59.85156811,,0,0.375,-0.312288411,1,0,0,1.2084,button_right,1.2084,1,0,0,0,2,1,1001,ALMOND,m,,,,,,,,,,,,,,,,,,,,,,,,,,,,,,,,,,,,,,,,,,,,,,,,,,,,,,,,,,,,,,,
,,,,,,,,,,,,,,,,,5b0495e0b98c410001adb589,28,2022-02-12_14h27.28.291,lexical_decision_task_DD,2021.2.3,Linux armv8l,59.85156811,,0,0.386962891,-0.317957899,1,0,0,0.8289,button_right,0.8289,1,0,1,1,0,1,1001,UTOPIA,m,,,,,,,,,,,,,,,,,,,,,,,,,,,,,,,,,,,,,,,,,,,,,,,,,,,,,,,,,,,,,,,
,,,,,,,,,,,,,,,,,5b0495e0b98c410001adb589,28,2022-02-12_14h27.28.291,lexical_decision_task_DD,2021.2.3,Linux armv8l,59.85156811,,0,0.327148438,-0.320019531,1,0,0,0.5986,button_right,0.5986,1,0,2,2,4,1,1001,SQUEAK,m,,,,,,,,,,,,,,,,,,,,,,,,,,,,,,,,,,,,,,,,,,,,,,,,,,,,,,,,,,,,,,,
,,,,,,,,,,,,,,,,,5b0495e0b98c410001adb589,28,2022-02-12_14h27.28.291,lexical_decision_task_DD,2021.2.3,Linux armv8l,59.85156811,,0,-0.360107422,-0.351974826,1,0,0,0.9609,button_left,0.9609,1,0,3,3,10,1,1001,INLADE,z,,,,,,,,,,,,,,,,,,,,,,,,,,,,,,,,,,,,,,,,,,,,,,,,,,,,,,,,,,,,,,,
,,,,,,,,,,,,,,,,,5b0495e0b98c410001adb589,28,2022-02-12_14h27.28.291,lexical_decision_task_DD,2021.2.3,Linux armv8l,59.85156811,,0,-0.305419922,-0.309195964,1,0,0,0.799,button_left,0.799,1,0,4,4,15,1,1001,WHAISE,z,,,,,,,,,,,,,,,,,,,,,,,,,,,,,,,,,,,,,,,,,,,,,,,,,,,,,,,,,,,,,,,
,,,,,,,,,,,,,,,,,5b0495e0b98c410001adb589,28,2022-02-12_14h27.28.291,lexical_decision_task_DD,2021.2.3,Linux armv8l,59.85156811,,0,-0.319335938,-0.338574219,1,0,0,0.8182,button_left,0.8182,1,0,5,5,13,1,1001,ROUPET,z,,,,,,,,,,,,,,,,,,,,,,,,,,,,,,,,,,,,,,,,,,,,,,,,,,,,,,,,,,,,,,,
,,,,,,,,,,,,,,,,,5b0495e0b98c410001adb589,28,2022-02-12_14h27.28.291,lexical_decision_task_DD,2021.2.3,Linux armv8l,59.85156811,,0,-0.302734375,-0.329296875,1,0,0,0.7983,button_left,0.7983,1,0,6,6,11,1,1001,RASHET,z,,,,,,,,,,,,,,,,,,,,,,,,,,,,,,,,,,,,,,,,,,,,,,,,,,,,,,,,,,,,,,,
,,,,,,,,,,,,,,,,,5b0495e0b98c410001adb589,28,2022-02-12_14h27.28.291,lexical_decision_task_DD,2021.2.3,Linux armv8l,59.85156811,,0,0.371582031,-0.298887804,1,0,0,0.7701,button_right,0.7701,0,0,7,7,8,1,1001,ASLERT,z,,,,,,,,,,,,,,,,,,,,,,,,,,,,,,,,,,,,,,,,,,,,,,,,,,,,,,,,,,,,,,,
,,,,,,,,,,,,,,,,,5b0495e0b98c410001adb589,28,2022-02-12_14h27.28.291,lexical_decision_task_DD,2021.2.3,Linux armv8l,59.85156811,,0,0.345458984,-0.309195964,1,0,0,0.6911,button_right,0.6911,1,0,8,8,1,1,1001,ADJUST,m,,,,,,,,,,,,,,,,,,,,,,,,,,,,,,,,,,,,,,,,,,,,,,,,,,,,,,,,,,,,,,,
,,,,,,,,,,,,,,,,,5b0495e0b98c410001adb589,28,2022-02-12_14h27.28.291,lexical_decision_task_DD,2021.2.3,Linux armv8l,59.85156811,,0,-0.323486328,-0.316411675,1,0,0,0.6428,button_left,0.6428,0,0,9,9,6,1,1001,ZOMBIE,m,,,,,,,,,,,,,,,,,,,,,,,,,,,,,,,,,,,,,,,,,,,,,,,,,,,,,,,,,,,,,,,
,,,,,,,,,,,,,,,,,5b0495e0b98c410001adb589,28,2022-02-12_14h27.28.291,lexical_decision_task_DD,2021.2.3,Linux armv8l,59.85156811,,0,0.350830078,-0.316927083,1,0,0,0.8138,button_right,0.8138,1,0,10,10,7,1,1001,VOLUME,m,,,,,,,,,,,,,,,,,,,,,,,,,,,,,,,,,,,,,,,,,,,,,,,,,,,,,,,,,,,,,,,
,,,,,,,,,,,,,,,,,5b0495e0b98c410001adb589,28,2022-02-12_14h27.28.291,lexical_decision_task_DD,2021.2.3,Linux armv8l,59.85156811,,0,-0.31640625,-0.334450955,1,0,0,0.7613,button_left,0.7613,1,0,11,11,12,1,1001,SPRINY,z,,,,,,,,,,,,,,,,,,,,,,,,,,,,,,,,,,,,,,,,,,,,,,,,,,,,,,,,,,,,,,,
,,,,,,,,,,,,,,,,,5b0495e0b98c410001adb589,28,2022-02-12_14h27.28.291,lexical_decision_task_DD,2021.2.3,Linux armv8l,59.85156811,,0,0.339355469,-0.351459418,1,0,0,0.7809,button_right,0.7809,1,0,12,12,5,1,1001,OBTAIN,m,,,,,,,,,,,,,,,,,,,,,,,,,,,,,,,,,,,,,,,,,,,,,,,,,,,,,,,,,,,,,,,
,,,,,,,,,,,,,,,,,5b0495e0b98c410001adb589,28,2022-02-12_14h27.28.291,lexical_decision_task_DD,2021.2.3,Linux armv8l,59.85156811,,0,0.344238281,-0.327750651,1,0,0,0.7147,button_right,0.7147,1,0,13,13,3,1,1001,MATRIX,m,,,,,,,,,,,,,,,,,,,,,,,,,,,,,,,,,,,,,,,,,,,,,,,,,,,,,,,,,,,,,,,
,,,,,,,,,,,,,,,,,5b0495e0b98c410001adb589,28,2022-02-12_14h27.28.291,lexical_decision_task_DD,2021.2.3,Linux armv8l,59.85156811,,0,-0.327636719,-0.2921875,1,0,0,0.7626,button_left,0.7626,1,0,14,14,9,1,1001,FARINY,z,,,,,,,,,,,,,,,,,,,,,,,,,,,,,,,,,,,,,,,,,,,,,,,,,,,,,,,,,,,,,,,
,,,,,,,,,,,,,,,,,5b0495e0b98c410001adb589,28,2022-02-12_14h27.28.291,lexical_decision_task_DD,2021.2.3,Linux armv8l,59.85156811,,0,-0.310302734,-0.335481771,1,0,0,0.7148,button_left,0.7148,1,0,15,15,14,1,1001,THRALE,z,,,,,,,,,,,,,,,,,,,,,,,,,,,,,,,,,,,,,,,,,,,,,,,,,,,,,,,,,,,,,,,
,0.123701562,-0.407033115,1,0,0,instr_done_button,,,,,,1,end_of_practice,"You have completed the practice trials. During the experimental trials, you will not receive feedback. 
Before you begin, please ensure that you are in a comfortable and quiet location and will not be disturbed for about 15 minutes, as we cannot use your data if you do not complete all the trials. 
 When you are ready to start the experimental trials, please press space or touch the button below.",,,5b0495e0b98c410001adb589,28,2022-02-12_14h27.28.291,lexical_decision_task_DD,2021.2.3,Linux armv8l,59.85156811,,,,,,,,,,,,,,,,,,,,0,0,0,0,1,,,,,,,,,,,,,,,,,,,,,,,,,,,,,,,,,,,,,,,,,,,,,,,,,,,,,,,,,,
,,,,,,,,,,,,,,,,,5b0495e0b98c410001adb589,28,2022-02-12_14h27.28.291,lexical_decision_task_DD,2021.2.3,Linux armv8l,59.85156811,,,,,,,,,,0.9577,1,,,,,,,,,,,,,,,0,-0.238630252,-0.269826084,1,0,0,0.9577,button_left_main,-0.238630252,-0.269826084,1,0,0,,0,0,0,159,1,CUDDY,C,old,z,./images/CUDDY.png,,,,,,,,,,,,,,,,,,,,,,,,,,,,,,,,,
,,,,,,,,,,,,,,,,,5b0495e0b98c410001adb589,28,2022-02-12_14h27.28.291,lexical_decision_task_DD,2021.2.3,Linux armv8l,59.85156811,,,,,,,,,,1.9651,0,,,,,,,,,,,,,,,0,-0.446855079,-0.316701084,1,0,0,1.9651,button_left_main,-0.446855079,-0.316701084,1,0,0,,0,1,1,22,1,MELON,HB,old,m,./images/MELONHB.png,,,,,,,,,,,,,,,,,,,,,,,,,,,,,,,,,
,,,,,,,,,,,,,,,,,5b0495e0b98c410001adb589,28,2022-02-12_14h27.28.291,lexical_decision_task_DD,2021.2.3,Linux armv8l,59.85156811,,,,,,,,,,1.1034,1,,,,,,,,,,,,,,,0,0.475725301,-0.285695224,1,0,0,1.1034,button_right_main,0.475725301,-0.285695224,1,0,0,,0,2,2,47,1,BERRY,LB,old,m,./images/BERRYLB.png,,,,,,,,,,,,,,,,,,,,,,,,,,,,,,,,,
,,,,,,,,,,,,,,,,,5b0495e0b98c410001adb589,28,2022-02-12_14h27.28.291,lexical_decision_task_DD,2021.2.3,Linux armv8l,59.85156811,,,,,,,,,,1.0465,1,,,,,,,,,,,,,,,0,0.481394789,-0.284718662,1,0,0,1.0465,button_right_main,0.481394789,-0.284718662,1,0,0,,0,3,3,46,1,PEARL,HB,old,m,./images/PEARLHB.png,,,,,,,,,,,,,,,,,,,,,,,,,,,,,,,,,
,,,,,,,,,,,,,,,,,5b0495e0b98c410001adb589,28,2022-02-12_14h27.28.291,lexical_decision_task_DD,2021.2.3,Linux armv8l,59.85156811,,,,,,,,,,1.0709,1,,,,,,,,,,,,,,,0,-0.469017622,-0.240773349,1,0,0,1.0709,button_left_main,-0.469017622,-0.240773349,1,0,0,,0,4,4,94,1,BLANS,HB,old,z,./images/BLANSHB.png,,,,,,,,,,,,,,,,,,,,,,,,,,,,,,,,,
,,,,,,,,,,,,,,,,,5b0495e0b98c410001adb589,28,2022-02-12_14h27.28.291,lexical_decision_task_DD,2021.2.3,Linux armv8l,59.85156811,,,,,,,,,,0.73,1,,,,,,,,,,,,,,,0,0.467994181,-0.285206943,1,0,0,0.73,button_right_main,0.467994181,-0.285206943,1,0,0,,0,5,5,6,1,SQUARE,C,old,m,./images/SQUARE.png,,,,,,,,,,,,,,,,,,,,,,,,,,,,,,,,,
,,,,,,,,,,,,,,,,,5b0495e0b98c410001adb589,28,2022-02-12_14h27.28.291,lexical_decision_task_DD,2021.2.3,Linux armv8l,59.85156811,,,,,,,,,,0.8706,1,,,,,,,,,,,,,,,0,-0.486541494,-0.276906162,1,0,0,0.8706,button_left_main,-0.486541494,-0.276906162,1,0,0,,0,6,6,149,1,VEASE,LB,old,z,./images/VEASELB.png,,,,,,,,,,,,,,,,,,,,,,,,,,,,,,,,,
,,,,,,,,,,,,,,,,,5b0495e0b98c410001adb589,28,2022-02-12_14h27.28.291,lexical_decision_task_DD,2021.2.3,Linux armv8l,59.85156811,,,,,,,,,,0.6839,1,,,,,,,,,,,,,,,0,0.485002645,-0.296193271,1,0,0,0.6839,button_right_main,0.485002645,-0.296193271,1,0,0,,0,7,7,78,1,LITTER,C,old,m,./images/LITTER.png,,,,,,,,,,,,,,,,,,,,,,,,,,,,,,,,,
,,,,,,,,,,,,,,,,,5b0495e0b98c410001adb589,28,2022-02-12_14h27.28.291,lexical_decision_task_DD,2021.2.3,Linux armv8l,59.85156811,,,,,,,,,,0.7974,1,,,,,,,,,,,,,,,0,0.485518053,-0.28789249,1,0,0,0.7974,button_right_main,0.485518053,-0.28789249,1,0,0,,0,8,8,18,1,JAGUAR,C,old,m,./images/JAGUAR.png,,,,,,,,,,,,,,,,,,,,,,,,,,,,,,,,,
,,,,,,,,,,,,,,,,,5b0495e0b98c410001adb589,28,2022-02-12_14h27.28.291,lexical_decision_task_DD,2021.2.3,Linux armv8l,59.85156811,,,,,,,,,,0.839,1,,,,,,,,,,,,,,,0,0.472117445,-0.297169834,1,0,0,0.839,button_right_main,0.472117445,-0.297169834,1,0,0,,0,9,9,20,1,CRADLE,LB,old,m,./images/CRADLELB.png,,,,,,,,,,,,,,,,,,,,,,,,,,,,,,,,,
,,,,,,,,,,,,,,,,,5b0495e0b98c410001adb589,28,2022-02-12_14h27.28.291,lexical_decision_task_DD,2021.2.3,Linux armv8l,59.85156811,,,,,,,,,,1.2696,1,,,,,,,,,,,,,,,0,-0.492210982,-0.279103427,1,0,0,1.2696,button_left_main,-0.492210982,-0.279103427,1,0,0,,0,10,10,100,1,DRIBS,HB,old,z,./images/DRIBSHB.png,,,,,,,,,,,,,,,,,,,,,,,,,,,,,,,,,
,,,,,,,,,,,,,,,,,5b0495e0b98c410001adb589,28,2022-02-12_14h27.28.291,lexical_decision_task_DD,2021.2.3,Linux armv8l,59.85156811,,,,,,,,,,0.8512,1,,,,,,,,,,,,,,,0,-0.511796485,-0.289357334,1,0,0,0.8512,button_left_main,-0.511796485,-0.289357334,1,0,0,,0,11,11,135,1,JOODY,C,old,z,./images/JOODY.png,,,,,,,,,,,,,,,,,,,,,,,,,,,,,,,,,
,,,,,,,,,,,,,,,,,5b0495e0b98c410001adb589,28,2022-02-12_14h27.28.291,lexical_decision_task_DD,2021.2.3,Linux armv8l,59.85156811,,,,,,,,,,1.1184,1,,,,,,,,,,,,,,,0,-0.506126997,-0.301076084,1,0,0,1.1184,button_left_main,-0.506126997,-0.301076084,1,0,0,,0,12,12,90,1,NEAST,C,old,z,./images/NEAST.png,,,,,,,,,,,,,,,,,,,,,,,,,,,,,,,,,
,,,,,,,,,,,,,,,,,5b0495e0b98c410001adb589,28,2022-02-12_14h27.28.291,lexical_decision_task_DD,2021.2.3,Linux armv8l,59.85156811,,,,,,,,,,0.9891,1,,,,,,,,,,,,,,,0,0.498403252,-0.313283115,1,0,0,0.9891,button_right_main,0.498403252,-0.313283115,1,0,0,,0,13,13,30,1,STORM,C,old,m,./images/STORM.png,,,,,,,,,,,,,,,,,,,,,,,,,,,,,,,,,
,,,,,,,,,,,,,,,,,5b0495e0b98c410001adb589,28,2022-02-12_14h27.28.291,lexical_decision_task_DD,2021.2.3,Linux armv8l,59.85156811,,,,,,,,,,0.878,1,,,,,,,,,,,,,,,0,-0.499942101,-0.281300693,1,0,0,0.878,button_left_main,-0.499942101,-0.281300693,1,0,0,,0,14,14,141,1,PLEET,C,old,z,./images/PLEET.png,,,,,,,,,,,,,,,,,,,,,,,,,,,,,,,,,
,,,,,,,,,,,,,,,,,5b0495e0b98c410001adb589,28,2022-02-12_14h27.28.291,lexical_decision_task_DD,2021.2.3,Linux armv8l,59.85156811,,,,,,,,,,0.9523,1,,,,,,,,,,,,,,,0,-0.507157813,-0.278859287,1,0,0,0.9523,button_left_main,-0.507157813,-0.278859287,1,0,0,,0,15,15,87,1,TRING,C,old,z,./images/TRING.png,,,,,,,,,,,,,,,,,,,,,,,,,,,,,,,,,
,,,,,,,,,,,,,,,,,5b0495e0b98c410001adb589,28,2022-02-12_14h27.28.291,lexical_decision_task_DD,2021.2.3,Linux armv8l,59.85156811,,,,,,,,,,1.0475,1,,,,,,,,,,,,,,,0,0.482941013,-0.301076084,1,0,0,1.0475,button_right_main,0.482941013,-0.301076084,1,0,0,,0,16,16,28,1,FALCON,HB,old,m,./images/FALCONHB.png,,,,,,,,,,,,,,,,,,,,,,,,,,,,,,,,,
,,,,,,,,,,,,,,,,,5b0495e0b98c410001adb589,28,2022-02-12_14h27.28.291,lexical_decision_task_DD,2021.2.3,Linux armv8l,59.85156811,,,,,,,,,,0.9221,1,,,,,,,,,,,,,,,0,0.502011108,-0.301320224,1,0,0,0.9221,button_right_main,0.502011108,-0.301320224,1,0,0,,0,17,17,21,1,KIDNEY,C,old,m,./images/KIDNEY.png,,,,,,,,,,,,,,,,,,,,,,,,,,,,,,,,,
,,,,,,,,,,,,,,,,,5b0495e0b98c410001adb589,28,2022-02-12_14h27.28.291,lexical_decision_task_DD,2021.2.3,Linux armv8l,59.85156811,,,,,,,,,,0.829,1,,,,,,,,,,,,,,,0,0.489641317,-0.291554599,1,0,0,0.829,button_right_main,0.489641317,-0.291554599,1,0,0,,0,18,18,25,1,WRIST,HB,old,m,./images/WRISTHB.png,,,,,,,,,,,,,,,,,,,,,,,,,,,,,,,,,
,,,,,,,,,,,,,,,,,5b0495e0b98c410001adb589,28,2022-02-12_14h27.28.291,lexical_decision_task_DD,2021.2.3,Linux armv8l,59.85156811,,,,,,,,,,0.7173,1,,,,,,,,,,,,,,,0,-0.533959028,-0.289845615,1,0,0,0.7173,button_left_main,-0.533959028,-0.289845615,1,0,0,,0,19,19,102,1,DULLE,C,old,z,./images/DULLE.png,,,,,,,,,,,,,,,,,,,,,,,,,,,,,,,,,
,,,,,,,,,,,,,,,,,5b0495e0b98c410001adb589,28,2022-02-12_14h27.28.291,lexical_decision_task_DD,2021.2.3,Linux armv8l,59.85156811,,,,,,,,,,0.6805,1,,,,,,,,,,,,,,,0,-0.504580773,-0.292775302,1,0,0,0.6805,button_left_main,-0.504580773,-0.292775302,1,0,0,,0,20,20,156,1,HIXES,C,old,z,./images/HIXES.png,,,,,,,,,,,,,,,,,,,,,,,,,,,,,,,,,
,,,,,,,,,,,,,,,,,5b0495e0b98c410001adb589,28,2022-02-12_14h27.28.291,lexical_decision_task_DD,2021.2.3,Linux armv8l,59.85156811,,,,,,,,,,1.1357,1,,,,,,,,,,,,,,,0,-0.443762631,-0.310597568,1,0,0,1.1357,button_left_main,-0.443762631,-0.310597568,1,0,0,,0,21,21,118,1,BAVEL,HB,old,z,./images/BAVELHB.png,,,,,,,,,,,,,,,,,,,,,,,,,,,,,,,,,
,,,,,,,,,,,,,,,,,5b0495e0b98c410001adb589,28,2022-02-12_14h27.28.291,lexical_decision_task_DD,2021.2.3,Linux armv8l,59.85156811,,,,,,,,,,0.8482,1,,,,,,,,,,,,,,,0,-0.505611589,-0.299367099,1,0,0,0.8482,button_left_main,-0.505611589,-0.299367099,1,0,0,,0,22,22,167,1,ZONET,LB,old,z,./images/ZONETLB.png,,,,,,,,,,,,,,,,,,,,,,,,,,,,,,,,,
,,,,,,,,,,,,,,,,,5b0495e0b98c410001adb589,28,2022-02-12_14h27.28.291,lexical_decision_task_DD,2021.2.3,Linux armv8l,59.85156811,,,,,,,,,,1.0066,1,,,,,,,,,,,,,,,0,-0.515919749,-0.280324131,1,0,0,1.0066,button_left_main,-0.515919749,-0.280324131,1,0,0,,0,23,23,120,1,RINED,C,old,z,./images/RINED.png,,,,,,,,,,,,,,,,,,,,,,,,,,,,,,,,,
,,,,,,,,,,,,,,,,,5b0495e0b98c410001adb589,28,2022-02-12_14h27.28.291,lexical_decision_task_DD,2021.2.3,Linux armv8l,59.85156811,,,,,,,,,,0.7882,1,,,,,,,,,,,,,,,0,-0.523135461,-0.285206943,1,0,0,0.7882,button_left_main,-0.523135461,-0.285206943,1,0,0,,0,24,24,144,1,NAIRY,C,old,z,./images/NAIRY.png,,,,,,,,,,,,,,,,,,,,,,,,,,,,,,,,,
,,,,,,,,,,,,,,,,,5b0495e0b98c410001adb589,28,2022-02-12_14h27.28.291,lexical_decision_task_DD,2021.2.3,Linux armv8l,59.85156811,,,,,,,,,,0.9048,1,,,,,,,,,,,,,,,0,0.467994181,-0.276417881,1,0,0,0.9048,button_right_main,0.467994181,-0.276417881,1,0,0,,0,25,25,77,1,COUCH,LB,old,m,./images/COUCHLB.png,,,,,,,,,,,,,,,,,,,,,,,,,,,,,,,,,
,,,,,,,,,,,,,,,,,5b0495e0b98c410001adb589,28,2022-02-12_14h27.28.291,lexical_decision_task_DD,2021.2.3,Linux armv8l,59.85156811,,,,,,,,,,1.1516,1,,,,,,,,,,,,,,,0,-0.522104645,-0.280568271,1,0,0,1.1516,button_left_main,-0.522104645,-0.280568271,1,0,0,,0,26,26,86,1,AIFED,LB,old,z,./images/AIFEDLB.png,,,,,,,,,,,,,,,,,,,,,,,,,,,,,,,,,
,,,,,,,,,,,,,,,,,5b0495e0b98c410001adb589,28,2022-02-12_14h27.28.291,lexical_decision_task_DD,2021.2.3,Linux armv8l,59.85156811,,,,,,,,,,1.0317,1,,,,,,,,,,,,,,,0,-0.521589237,-0.275197177,1,0,0,1.0317,button_left_main,-0.521589237,-0.275197177,1,0,0,,0,27,27,97,1,CHIDS,HB,old,z,./images/CHIDSHB.png,,,,,,,,,,,,,,,,,,,,,,,,,,,,,,,,,
,,,,,,,,,,,,,,,,,5b0495e0b98c410001adb589,28,2022-02-12_14h27.28.291,lexical_decision_task_DD,2021.2.3,Linux armv8l,59.85156811,,,,,,,,,,0.7034,1,,,,,,,,,,,,,,,0,0.459747654,-0.290089756,1,0,0,0.7034,button_right_main,0.459747654,-0.290089756,1,0,0,,0,28,28,36,1,THROAT,C,old,m,./images/THROAT.png,,,,,,,,,,,,,,,,,,,,,,,,,,,,,,,,,
,,,,,,,,,,,,,,,,,5b0495e0b98c410001adb589,28,2022-02-12_14h27.28.291,lexical_decision_task_DD,2021.2.3,Linux armv8l,59.85156811,,,,,,,,,,0.669,1,,,,,,,,,,,,,,,0,-0.534989844,-0.289845615,1,0,0,0.669,button_left_main,-0.534989844,-0.289845615,1,0,0,,0,29,29,89,1,DRIEK,LB,old,z,./images/DRIEKLB.png,,,,,,,,,,,,,,,,,,,,,,,,,,,,,,,,,
,,,,,,,,,,,,,,,,,5b0495e0b98c410001adb589,28,2022-02-12_14h27.28.291,lexical_decision_task_DD,2021.2.3,Linux armv8l,59.85156811,,,,,,,,,,0.8526,1,,,,,,,,,,,,,,,0,-0.523650869,-0.286671787,1,0,0,0.8526,button_left_main,-0.523650869,-0.286671787,1,0,0,,0,30,30,155,1,CANGY,LB,old,z,./images/CANGYLB.png,,,,,,,,,,,,,,,,,,,,,,,,,,,,,,,,,
,,,,,,,,,,,,,,,,,5b0495e0b98c410001adb589,28,2022-02-12_14h27.28.291,lexical_decision_task_DD,2021.2.3,Linux armv8l,59.85156811,,,,,,,,,,0.6875,1,,,,,,,,,,,,,,,0,-0.506642405,-0.280812412,1,0,0,0.6875,button_left_main,-0.506642405,-0.280812412,1,0,0,,0,31,31,131,1,NACES,LB,old,z,./images/NACESLB.png,,,,,,,,,,,,,,,,,,,,,,,,,,,,,,,,,
,,,,,,,,,,,,,,,,,5b0495e0b98c410001adb589,28,2022-02-12_14h27.28.291,lexical_decision_task_DD,2021.2.3,Linux armv8l,59.85156811,,,,,,,,,,0.7066,1,,,,,,,,,,,,,,,0,-0.503034549,-0.294728427,1,0,0,0.7066,button_left_main,-0.503034549,-0.294728427,1,0,0,,0,32,32,137,1,JOOST,LB,old,z,./images/JOOSTLB.png,,,,,,,,,,,,,,,,,,,,,,,,,,,,,,,,,
,,,,,,,,,,,,,,,,,5b0495e0b98c410001adb589,28,2022-02-12_14h27.28.291,lexical_decision_task_DD,2021.2.3,Linux armv8l,59.85156811,,,,,,,,,,0.783,1,,,,,,,,,,,,,,,0,-0.523650869,-0.292287021,1,0,0,0.783,button_left_main,-0.523650869,-0.292287021,1,0,0,,0,33,33,103,1,FLORT,HB,old,z,./images/FLORTHB.png,,,,,,,,,,,,,,,,,,,,,,,,,,,,,,,,,
,,,,,,,,,,,,,,,,,5b0495e0b98c410001adb589,28,2022-02-12_14h27.28.291,lexical_decision_task_DD,2021.2.3,Linux armv8l,59.85156811,,,,,,,,,,0.7355,1,,,,,,,,,,,,,,,0,0.475209893,-0.290333896,1,0,0,0.7355,button_right_main,0.475209893,-0.290333896,1,0,0,,0,34,34,42,1,FOLDER,C,old,m,./images/FOLDER.png,,,,,,,,,,,,,,,,,,,,,,,,,,,,,,,,,
,,,,,,,,,,,,,,,,,5b0495e0b98c410001adb589,28,2022-02-12_14h27.28.291,lexical_decision_task_DD,2021.2.3,Linux armv8l,59.85156811,,,,,,,,,,0.9123,1,,,,,,,,,,,,,,,0,0.478817749,-0.302785068,1,0,0,0.9123,button_right_main,0.478817749,-0.302785068,1,0,0,,0,35,35,1,1,PLANK,HB,old,m,./images/PLANKHB.png,,,,,,,,,,,,,,,,,,,,,,,,,,,,,,,,,
,,,,,,,,,,,,,,,,,5b0495e0b98c410001adb589,28,2022-02-12_14h27.28.291,lexical_decision_task_DD,2021.2.3,Linux armv8l,59.85156811,,,,,,,,,,0.9836,1,,,,,,,,,,,,,,,0,-0.510250261,-0.286915927,1,0,0,0.9836,button_left_main,-0.510250261,-0.286915927,1,0,0,,0,36,36,139,1,BLEAR,HB,old,z,./images/BLEARHB.png,,,,,,,,,,,,,,,,,,,,,,,,,,,,,,,,,
,,,,,,,,,,,,,,,,,5b0495e0b98c410001adb589,28,2022-02-12_14h27.28.291,lexical_decision_task_DD,2021.2.3,Linux armv8l,59.85156811,,,,,,,,,,0.8184,1,,,,,,,,,,,,,,,0,-0.48757231,-0.290333896,1,0,0,0.8184,button_left_main,-0.48757231,-0.290333896,1,0,0,,0,37,37,138,1,PLICE,C,old,z,./images/PLICE.png,,,,,,,,,,,,,,,,,,,,,,,,,,,,,,,,,
,,,,,,,,,,,,,,,,,5b0495e0b98c410001adb589,28,2022-02-12_14h27.28.291,lexical_decision_task_DD,2021.2.3,Linux armv8l,59.85156811,,,,,,,,,,0.7044,1,,,,,,,,,,,,,,,0,0.435523478,-0.307667881,1,0,0,0.7044,button_right_main,0.435523478,-0.307667881,1,0,0,,0,38,38,75,1,GRAIN,C,old,m,./images/GRAIN.png,,,,,,,,,,,,,,,,,,,,,,,,,,,,,,,,,
,,,,,,,,,,,,,,,,,5b0495e0b98c410001adb589,28,2022-02-12_14h27.28.291,lexical_decision_task_DD,2021.2.3,Linux armv8l,59.85156811,,,,,,,,,,0.8043,1,,,,,,,,,,,,,,,0,0.478817749,-0.296681552,1,0,0,0.8043,button_right_main,0.478817749,-0.296681552,1,0,0,,0,39,39,59,1,BURIAL,LB,old,m,./images/BURIALLB.png,,,,,,,,,,,,,,,,,,,,,,,,,,,,,,,,,
,,,,,,,,,,,,,,,,,5b0495e0b98c410001adb589,28,2022-02-12_14h27.28.291,lexical_decision_task_DD,2021.2.3,Linux armv8l,59.85156811,,,,,,,,,,0.9408,1,,,,,,,,,,,,,,,0,-0.47984119,-0.292042881,1,0,0,0.9408,button_left_main,-0.47984119,-0.292042881,1,0,0,,0,40,40,92,1,PAIMS,LB,old,z,./images/PAIMSLB.png,,,,,,,,,,,,,,,,,,,,,,,,,,,,,,,,,
,,,,,,,,,,,,,,,,,5b0495e0b98c410001adb589,28,2022-02-12_14h27.28.291,lexical_decision_task_DD,2021.2.3,Linux armv8l,59.85156811,,,,,,,,,,0.7171,1,,,,,,,,,,,,,,,0,0.464386325,-0.297413974,1,0,0,0.7171,button_right_main,0.119578298,-0.416310459,1,0,0,,0,41,41,37,1,BIRTH,HB,old,m,./images/BIRTHHB.png,break_done_button,,,,,,,,,,,,,,,,,,,,,,,,,,,,,,,,
,,,,,,,,,,,,,,,,,5b0495e0b98c410001adb589,28,2022-02-12_14h27.28.291,lexical_decision_task_DD,2021.2.3,Linux armv8l,59.85156811,,,,,,,,,,1.064,1,,,,,,,,,,,,,,,0,0.472117445,-0.306935459,1,0,0,1.064,button_right_main,0.472117445,-0.306935459,1,0,0,,0,42,42,19,1,DOUGH,HB,old,m,./images/DOUGHHB.png,,,,,,,,,,,,,,,,,,,,,,,,,,,,,,,,,
,,,,,,,,,,,,,,,,,5b0495e0b98c410001adb589,28,2022-02-12_14h27.28.291,lexical_decision_task_DD,2021.2.3,Linux armv8l,59.85156811,,,,,,,,,,0.7324,1,,,,,,,,,,,,,,,0,0.479848565,-0.289601474,1,0,0,0.7324,button_right_main,0.479848565,-0.289601474,1,0,0,,0,43,43,8,1,TULIP,LB,old,m,./images/TULIPLB.png,,,,,,,,,,,,,,,,,,,,,,,,,,,,,,,,,
,,,,,,,,,,,,,,,,,5b0495e0b98c410001adb589,28,2022-02-12_14h27.28.291,lexical_decision_task_DD,2021.2.3,Linux armv8l,59.85156811,,,,,,,,,,0.6345,1,,,,,,,,,,,,,,,0,0.470571221,-0.297902256,1,0,0,0.6345,button_right_main,0.470571221,-0.297902256,1,0,0,,0,44,44,71,1,PIMPLE,LB,old,m,./images/PIMPLELB.png,,,,,,,,,,,,,,,,,,,,,,,,,,,,,,,,,
,,,,,,,,,,,,,,,,,5b0495e0b98c410001adb589,28,2022-02-12_14h27.28.291,lexical_decision_task_DD,2021.2.3,Linux armv8l,59.85156811,,,,,,,,,,1.2395,1,,,,,,,,,,,,,,,0,0.464901733,-0.286427646,1,0,0,1.2395,button_right_main,0.464901733,-0.286427646,1,0,0,,0,45,45,43,1,MOSQUE,HB,old,m,./images/MOSQUEHB.png,,,,,,,,,,,,,,,,,,,,,,,,,,,,,,,,,
,,,,,,,,,,,,,,,,,5b0495e0b98c410001adb589,28,2022-02-12_14h27.28.291,lexical_decision_task_DD,2021.2.3,Linux armv8l,59.85156811,,,,,,,,,,1.0451,1,,,,,,,,,,,,,,,0,-0.516435157,-0.28007999,1,0,0,1.0451,button_left_main,-0.516435157,-0.28007999,1,0,0,,0,46,46,114,1,RIKES,C,old,z,./images/RIKES.png,,,,,,,,,,,,,,,,,,,,,,,,,,,,,,,,,
,,,,,,,,,,,,,,,,,5b0495e0b98c410001adb589,28,2022-02-12_14h27.28.291,lexical_decision_task_DD,2021.2.3,Linux armv8l,59.85156811,,,,,,,,,,0.9865,1,,,,,,,,,,,,,,,0,-0.492210982,-0.293019443,1,0,0,0.9865,button_left_main,-0.492210982,-0.293019443,1,0,0,,0,47,47,142,1,PLASK,HB,old,z,./images/PLASKHB.png,,,,,,,,,,,,,,,,,,,,,,,,,,,,,,,,,
,,,,,,,,,,,,,,,,,5b0495e0b98c410001adb589,28,2022-02-12_14h27.28.291,lexical_decision_task_DD,2021.2.3,Linux armv8l,59.85156811,,,,,,,,,,1.2964,1,,,,,,,,,,,,,,,0,-0.494272614,-0.299122959,1,0,0,1.2964,button_left_main,-0.494272614,-0.299122959,1,0,0,,0,48,48,109,1,BURGE,HB,old,z,./images/BURGEHB.png,,,,,,,,,,,,,,,,,,,,,,,,,,,,,,,,,
,,,,,,,,,,,,,,,,,5b0495e0b98c410001adb589,28,2022-02-12_14h27.28.291,lexical_decision_task_DD,2021.2.3,Linux armv8l,59.85156811,,,,,,,,,,1.4422,1,,,,,,,,,,,,,,,0,0.51180386,-0.257374912,1,0,0,1.4422,button_right_main,0.51180386,-0.257374912,1,0,0,,0,49,49,76,1,INFANT,HB,old,m,./images/INFANTHB.png,,,,,,,,,,,,,,,,,,,,,,,,,,,,,,,,,
,,,,,,,,,,,,,,,,,5b0495e0b98c410001adb589,28,2022-02-12_14h27.28.291,lexical_decision_task_DD,2021.2.3,Linux armv8l,59.85156811,,,,,,,,,,0.6805,1,,,,,,,,,,,,,,,0,0.483456421,-0.289845615,1,0,0,0.6805,button_right_main,0.483456421,-0.289845615,1,0,0,,0,50,50,38,1,LADDER,LB,old,m,./images/LADDERLB.png,,,,,,,,,,,,,,,,,,,,,,,,,,,,,,,,,
,,,,,,,,,,,,,,,,,5b0495e0b98c410001adb589,28,2022-02-12_14h27.28.291,lexical_decision_task_DD,2021.2.3,Linux armv8l,59.85156811,,,,,,,,,,0.8648,1,,,,,,,,,,,,,,,0,-0.494788022,-0.279591709,1,0,0,0.8648,button_left_main,-0.494788022,-0.279591709,1,0,0,,0,51,51,99,1,BACKY,C,old,z,./images/BACKY.png,,,,,,,,,,,,,,,,,,,,,,,,,,,,,,,,,
,,,,,,,,,,,,,,,,,5b0495e0b98c410001adb589,28,2022-02-12_14h27.28.291,lexical_decision_task_DD,2021.2.3,Linux armv8l,59.85156811,,,,,,,,,,1.0173,1,,,,,,,,,,,,,,,0,-0.500457509,-0.291554599,1,0,0,1.0173,button_left_main,-0.500457509,-0.291554599,1,0,0,,0,52,52,106,1,CLUMS,HB,old,z,./images/CLUMSHB.png,,,,,,,,,,,,,,,,,,,,,,,,,,,,,,,,,
,,,,,,,,,,,,,,,,,5b0495e0b98c410001adb589,28,2022-02-12_14h27.28.291,lexical_decision_task_DD,2021.2.3,Linux armv8l,59.85156811,,,,,,,,,,0.7813,1,,,,,,,,,,,,,,,0,-0.495303429,-0.310597568,1,0,0,0.7813,button_left_main,-0.495303429,-0.310597568,1,0,0,,0,53,53,105,1,MOKER,C,old,z,./images/MOKER.png,,,,,,,,,,,,,,,,,,,,,,,,,,,,,,,,,
,,,,,,,,,,,,,,,,,5b0495e0b98c410001adb589,28,2022-02-12_14h27.28.291,lexical_decision_task_DD,2021.2.3,Linux armv8l,59.85156811,,,,,,,,,,0.765,1,,,,,,,,,,,,,,,0,0.459747654,-0.31523624,1,0,0,0.765,button_right_main,0.459747654,-0.31523624,1,0,0,,0,54,54,14,1,PICKLE,LB,old,m,./images/PICKLELB.png,,,,,,,,,,,,,,,,,,,,,,,,,,,,,,,,,
,,,,,,,,,,,,,,,,,5b0495e0b98c410001adb589,28,2022-02-12_14h27.28.291,lexical_decision_task_DD,2021.2.3,Linux armv8l,59.85156811,,,,,,,,,,0.5802,1,,,,,,,,,,,,,,,0,0.461809285,-0.300343662,1,0,0,0.5802,button_right_main,0.461809285,-0.300343662,1,0,0,,0,55,55,69,1,COOKER,C,old,m,./images/COOKER.png,,,,,,,,,,,,,,,,,,,,,,,,,,,,,,,,,
,,,,,,,,,,,,,,,,,5b0495e0b98c410001adb589,28,2022-02-12_14h27.28.291,lexical_decision_task_DD,2021.2.3,Linux armv8l,59.85156811,,,,,,,,,,0.8231,1,,,,,,,,,,,,,,,0,0.45304735,-0.301076084,1,0,0,0.8231,button_right_main,0.45304735,-0.301076084,1,0,0,,0,56,56,49,1,DRUMS,HB,old,m,./images/DRUMSHB.png,,,,,,,,,,,,,,,,,,,,,,,,,,,,,,,,,
,,,,,,,,,,,,,,,,,5b0495e0b98c410001adb589,28,2022-02-12_14h27.28.291,lexical_decision_task_DD,2021.2.3,Linux armv8l,59.85156811,,,,,,,,,,0.6968,1,,,,,,,,,,,,,,,0,0.481910197,-0.276417881,1,0,0,0.6968,button_right_main,0.481910197,-0.276417881,1,0,0,,0,57,57,7,1,PAINT,HB,old,m,./images/PAINTHB.png,,,,,,,,,,,,,,,,,,,,,,,,,,,,,,,,,
,,,,,,,,,,,,,,,,,5b0495e0b98c410001adb589,28,2022-02-12_14h27.28.291,lexical_decision_task_DD,2021.2.3,Linux armv8l,59.85156811,,,,,,,,,,0.6443,1,,,,,,,,,,,,,,,0,0.473148261,-0.286427646,1,0,0,0.6443,button_right_main,0.473148261,-0.286427646,1,0,0,,0,58,58,79,1,CRUST,HB,old,m,./images/CRUSTHB.png,,,,,,,,,,,,,,,,,,,,,,,,,,,,,,,,,
,,,,,,,,,,,,,,,,,5b0495e0b98c410001adb589,28,2022-02-12_14h27.28.291,lexical_decision_task_DD,2021.2.3,Linux armv8l,59.85156811,,,,,,,,,,0.6483,1,,,,,,,,,,,,,,,0,0.451501126,-0.298146396,1,0,0,0.6483,button_right_main,0.451501126,-0.298146396,1,0,0,,0,59,59,54,1,TRIPOD,C,old,m,./images/TRIPOD.png,,,,,,,,,,,,,,,,,,,,,,,,,,,,,,,,,
,,,,,,,,,,,,,,,,,5b0495e0b98c410001adb589,28,2022-02-12_14h27.28.291,lexical_decision_task_DD,2021.2.3,Linux armv8l,59.85156811,,,,,,,,,,1.2816,1,,,,,,,,,,,,,,,0,-0.469017622,-0.294728427,1,0,0,1.2816,button_left_main,-0.469017622,-0.294728427,1,0,0,,0,60,60,121,1,CEERS,HB,old,z,./images/CEERSHB.png,,,,,,,,,,,,,,,,,,,,,,,,,,,,,,,,,
,,,,,,,,,,,,,,,,,5b0495e0b98c410001adb589,28,2022-02-12_14h27.28.291,lexical_decision_task_DD,2021.2.3,Linux armv8l,59.85156811,,,,,,,,,,0.772,1,,,,,,,,,,,,,,,0,0.450985718,-0.305714756,1,0,0,0.772,button_right_main,0.450985718,-0.305714756,1,0,0,,0,61,61,17,1,SKIING,LB,old,m,./images/SKIINGLB.png,,,,,,,,,,,,,,,,,,,,,,,,,,,,,,,,,
,,,,,,,,,,,,,,,,,5b0495e0b98c410001adb589,28,2022-02-12_14h27.28.291,lexical_decision_task_DD,2021.2.3,Linux armv8l,59.85156811,,,,,,,,,,1.2542,1,,,,,,,,,,,,,,,0,-0.484479862,-0.280568271,1,0,0,1.2542,button_left_main,-0.484479862,-0.280568271,1,0,0,,0,62,62,85,1,CHULK,HB,old,z,./images/CHULKHB.png,,,,,,,,,,,,,,,,,,,,,,,,,,,,,,,,,
,,,,,,,,,,,,,,,,,5b0495e0b98c410001adb589,28,2022-02-12_14h27.28.291,lexical_decision_task_DD,2021.2.3,Linux armv8l,59.85156811,,,,,,,,,,0.9554,1,,,,,,,,,,,,,,,0,-0.512311893,-0.286915927,1,0,0,0.9554,button_left_main,-0.512311893,-0.286915927,1,0,0,,0,63,63,122,1,BLOOT,LB,old,z,./images/BLOOTLB.png,,,,,,,,,,,,,,,,,,,,,,,,,,,,,,,,,
,,,,,,,,,,,,,,,,,5b0495e0b98c410001adb589,28,2022-02-12_14h27.28.291,lexical_decision_task_DD,2021.2.3,Linux armv8l,59.85156811,,,,,,,,,,1.0615,1,,,,,,,,,,,,,,,0,0.461809285,-0.312794834,1,0,0,1.0615,button_right_main,0.461809285,-0.312794834,1,0,0,,0,64,64,72,1,NOOSE,C,old,m,./images/NOOSE.png,,,,,,,,,,,,,,,,,,,,,,,,,,,,,,,,,
,,,,,,,,,,,,,,,,,5b0495e0b98c410001adb589,28,2022-02-12_14h27.28.291,lexical_decision_task_DD,2021.2.3,Linux armv8l,59.85156811,,,,,,,,,,0.9051,0,,,,,,,,,,,,,,,0,0.476756117,-0.310353427,1,0,0,0.9051,button_right_main,0.476756117,-0.310353427,1,0,0,,0,65,65,166,1,SHORY,HB,old,z,./images/SHORYHB.png,,,,,,,,,,,,,,,,,,,,,,,,,,,,,,,,,
,,,,,,,,,,,,,,,,,5b0495e0b98c410001adb589,28,2022-02-12_14h27.28.291,lexical_decision_task_DD,2021.2.3,Linux armv8l,59.85156811,,,,,,,,,,0.6141,1,,,,,,,,,,,,,,,0,0.487579685,-0.300831943,1,0,0,0.6141,button_right_main,0.487579685,-0.300831943,1,0,0,,0,66,66,44,1,LIZARD,LB,old,m,./images/LIZARDLB.png,,,,,,,,,,,,,,,,,,,,,,,,,,,,,,,,,
,,,,,,,,,,,,,,,,,5b0495e0b98c410001adb589,28,2022-02-12_14h27.28.291,lexical_decision_task_DD,2021.2.3,Linux armv8l,59.85156811,,,,,,,,,,0.7189,1,,,,,,,,,,,,,,,0,0.465417141,-0.305714756,1,0,0,0.7189,button_right_main,0.465417141,-0.305714756,1,0,0,,0,67,67,39,1,SHELF,C,old,m,./images/SHELF.png,,,,,,,,,,,,,,,,,,,,,,,,,,,,,,,,,
,,,,,,,,,,,,,,,,,5b0495e0b98c410001adb589,28,2022-02-12_14h27.28.291,lexical_decision_task_DD,2021.2.3,Linux armv8l,59.85156811,,,,,,,,,,0.65,1,,,,,,,,,,,,,,,0,0.471602037,-0.296193271,1,0,0,0.65,button_right_main,0.471602037,-0.296193271,1,0,0,,0,68,68,83,1,JUNGLE,LB,old,m,./images/JUNGLELB.png,,,,,,,,,,,,,,,,,,,,,,,,,,,,,,,,,
,,,,,,,,,,,,,,,,,5b0495e0b98c410001adb589,28,2022-02-12_14h27.28.291,lexical_decision_task_DD,2021.2.3,Linux armv8l,59.85156811,,,,,,,,,,0.6858,1,,,,,,,,,,,,,,,0,0.45820143,-0.302296787,1,0,0,0.6858,button_right_main,0.45820143,-0.302296787,1,0,0,,0,69,69,70,1,URINE,HB,old,m,./images/URINEHB.png,,,,,,,,,,,,,,,,,,,,,,,,,,,,,,,,,
,,,,,,,,,,,,,,,,,5b0495e0b98c410001adb589,28,2022-02-12_14h27.28.291,lexical_decision_task_DD,2021.2.3,Linux armv8l,59.85156811,,,,,,,,,,0.5502,1,,,,,,,,,,,,,,,0,0.468509589,-0.290578037,1,0,0,0.5502,button_right_main,0.468509589,-0.290578037,1,0,0,,0,70,70,74,1,CEMENT,LB,old,m,./images/CEMENTLB.png,,,,,,,,,,,,,,,,,,,,,,,,,,,,,,,,,
,,,,,,,,,,,,,,,,,5b0495e0b98c410001adb589,28,2022-02-12_14h27.28.291,lexical_decision_task_DD,2021.2.3,Linux armv8l,59.85156811,,,,,,,,,,0.6493,1,,,,,,,,,,,,,,,0,-0.525197093,-0.29179874,1,0,0,0.6493,button_left_main,-0.525197093,-0.29179874,1,0,0,,0,71,71,125,1,MOOKY,LB,old,z,./images/MOOKYLB.png,,,,,,,,,,,,,,,,,,,,,,,,,,,,,,,,,
,,,,,,,,,,,,,,,,,5b0495e0b98c410001adb589,28,2022-02-12_14h27.28.291,lexical_decision_task_DD,2021.2.3,Linux armv8l,59.85156811,,,,,,,,,,1.1889,1,,,,,,,,,,,,,,,0,-0.514888933,-0.287648349,1,0,0,1.1889,button_left_main,-0.514888933,-0.287648349,1,0,0,,0,72,72,110,1,CRUNK,LB,old,z,./images/CRUNKLB.png,,,,,,,,,,,,,,,,,,,,,,,,,,,,,,,,,
,,,,,,,,,,,,,,,,,5b0495e0b98c410001adb589,28,2022-02-12_14h27.28.291,lexical_decision_task_DD,2021.2.3,Linux armv8l,59.85156811,,,,,,,,,,0.882,1,,,,,,,,,,,,,,,0,0.446347046,-0.299122959,1,0,0,0.882,button_right_main,0.446347046,-0.299122959,1,0,0,,0,73,73,26,1,SMOKER,LB,old,m,./images/SMOKERLB.png,,,,,,,,,,,,,,,,,,,,,,,,,,,,,,,,,
,,,,,,,,,,,,,,,,,5b0495e0b98c410001adb589,28,2022-02-12_14h27.28.291,lexical_decision_task_DD,2021.2.3,Linux armv8l,59.85156811,,,,,,,,,,0.8148,1,,,,,,,,,,,,,,,0,0.467478773,-0.300587802,1,0,0,0.8148,button_right_main,0.467478773,-0.300587802,1,0,0,,0,74,74,62,1,PURSE,LB,old,m,./images/PURSELB.png,,,,,,,,,,,,,,,,,,,,,,,,,,,,,,,,,
,,,,,,,,,,,,,,,,,5b0495e0b98c410001adb589,28,2022-02-12_14h27.28.291,lexical_decision_task_DD,2021.2.3,Linux armv8l,59.85156811,,,,,,,,,,0.8018,1,,,,,,,,,,,,,,,0,0.467994181,-0.292531162,1,0,0,0.8018,button_right_main,0.467994181,-0.292531162,1,0,0,,0,75,75,82,1,SUNSET,HB,old,m,./images/SUNSETHB.png,,,,,,,,,,,,,,,,,,,,,,,,,,,,,,,,,
,,,,,,,,,,,,,,,,,5b0495e0b98c410001adb589,28,2022-02-12_14h27.28.291,lexical_decision_task_DD,2021.2.3,Linux armv8l,59.85156811,,,,,,,,,,0.6899,1,,,,,,,,,,,,,,,0,0.456655206,-0.285206943,1,0,0,0.6899,button_right_main,0.456655206,-0.285206943,1,0,0,,0,76,76,64,1,JELLY,HB,old,m,./images/JELLYHB.png,,,,,,,,,,,,,,,,,,,,,,,,,,,,,,,,,
,,,,,,,,,,,,,,,,,5b0495e0b98c410001adb589,28,2022-02-12_14h27.28.291,lexical_decision_task_DD,2021.2.3,Linux armv8l,59.85156811,,,,,,,,,,0.77,1,,,,,,,,,,,,,,,0,-0.517981381,-0.284230381,1,0,0,0.77,button_left_main,-0.517981381,-0.284230381,1,0,0,,0,77,77,160,1,VEETS,HB,old,z,./images/VEETSHB.png,,,,,,,,,,,,,,,,,,,,,,,,,,,,,,,,,
,,,,,,,,,,,,,,,,,5b0495e0b98c410001adb589,28,2022-02-12_14h27.28.291,lexical_decision_task_DD,2021.2.3,Linux armv8l,59.85156811,,,,,,,,,,0.7018,1,,,,,,,,,,,,,,,0,-0.511281077,-0.283497959,1,0,0,0.7018,button_left_main,-0.511281077,-0.283497959,1,0,0,,0,78,78,119,1,PAFER,LB,old,z,./images/PAFERLB.png,,,,,,,,,,,,,,,,,,,,,,,,,,,,,,,,,
,,,,,,,,,,,,,,,,,5b0495e0b98c410001adb589,28,2022-02-12_14h27.28.291,lexical_decision_task_DD,2021.2.3,Linux armv8l,59.85156811,,,,,,,,,,0.7679,1,,,,,,,,,,,,,,,0,-0.517981381,-0.282033115,1,0,0,0.7679,button_left_main,-0.517981381,-0.282033115,1,0,0,,0,79,79,162,1,LEICH,C,old,z,./images/LEICH.png,,,,,,,,,,,,,,,,,,,,,,,,,,,,,,,,,
,,,,,,,,,,,,,,,,,5b0495e0b98c410001adb589,28,2022-02-12_14h27.28.291,lexical_decision_task_DD,2021.2.3,Linux armv8l,59.85156811,,,,,,,,,,0.6639,1,,,,,,,,,,,,,,,0,-0.534989844,-0.280324131,1,0,0,0.6639,button_left_main,-0.534989844,-0.280324131,1,0,0,,0,80,80,98,1,BAMPS,LB,old,z,./images/BAMPSLB.png,,,,,,,,,,,,,,,,,,,,,,,,,,,,,,,,,
,,,,,,,,,,,,,,,,,5b0495e0b98c410001adb589,28,2022-02-12_14h27.28.291,lexical_decision_task_DD,2021.2.3,Linux armv8l,59.85156811,,,,,,,,,,0.6782,1,,,,,,,,,,,,,,,0,0.457170614,-0.289357334,1,0,0,0.6782,button_right_main,0.457170614,-0.289357334,1,0,0,,0,81,81,63,1,MIRROR,C,old,m,./images/MIRROR.png,,,,,,,,,,,,,,,,,,,,,,,,,,,,,,,,,
,,,,,,,,,,,,,,,,,5b0495e0b98c410001adb589,28,2022-02-12_14h27.28.291,lexical_decision_task_DD,2021.2.3,Linux armv8l,59.85156811,,,,,,,,,,0.999,1,,,,,,,,,,,,,,,0,0.466963365,-0.312306552,1,0,0,0.999,button_right_main,0.466963365,-0.312306552,1,0,0,,0,82,82,57,1,MOOSE,C,old,m,./images/MOOSE.png,,,,,,,,,,,,,,,,,,,,,,,,,,,,,,,,,
,,,,,,,,,,,,,,,,,5b0495e0b98c410001adb589,28,2022-02-12_14h27.28.291,lexical_decision_task_DD,2021.2.3,Linux armv8l,59.85156811,,,,,,,,,,0.6201,0,,,,,,,,,,,,,,,0,0.462840101,-0.297169834,1,0,0,0.6201,button_right_main,0.089169227,-0.405568271,1,0,0,,0,83,83,128,1,GRIFT,LB,old,z,./images/GRIFTLB.png,break_done_button,,,,,,,,,,,,,,,,,,,,,,,,,,,,,,,,
,,,,,,,,,,,,,,,,,5b0495e0b98c410001adb589,28,2022-02-12_14h27.28.291,lexical_decision_task_DD,2021.2.3,Linux armv8l,59.85156811,,,,,,,,,,1.0194,1,,,,,,,,,,,,,,,0,0.53242018,-0.292042881,1,0,0,1.0194,button_right_main,0.53242018,-0.292042881,1,0,0,,0,84,84,4,1,MUSCLE,HB,old,m,./images/MUSCLEHB.png,,,,,,,,,,,,,,,,,,,,,,,,,,,,,,,,,
,,,,,,,,,,,,,,,,,5b0495e0b98c410001adb589,28,2022-02-12_14h27.28.291,lexical_decision_task_DD,2021.2.3,Linux armv8l,59.85156811,,,,,,,,,,0.697,1,,,,,,,,,,,,,,,0,-0.494272614,-0.279103427,1,0,0,0.697,button_left_main,-0.494272614,-0.279103427,1,0,0,,0,85,85,133,1,POWDY,HB,old,z,./images/POWDYHB.png,,,,,,,,,,,,,,,,,,,,,,,,,,,,,,,,,
,,,,,,,,,,,,,,,,,5b0495e0b98c410001adb589,28,2022-02-12_14h27.28.291,lexical_decision_task_DD,2021.2.3,Linux armv8l,59.85156811,,,,,,,,,,0.7144,0,,,,,,,,,,,,,,,0,0.459747654,-0.300099521,1,0,0,0.7144,button_right_main,0.459747654,-0.300099521,1,0,0,,0,86,86,136,1,WERVE,HB,old,z,./images/WERVEHB.png,,,,,,,,,,,,,,,,,,,,,,,,,,,,,,,,,
,,,,,,,,,,,,,,,,,5b0495e0b98c410001adb589,28,2022-02-12_14h27.28.291,lexical_decision_task_DD,2021.2.3,Linux armv8l,59.85156811,,,,,,,,,,0.767,1,,,,,,,,,,,,,,,0,-0.508704037,-0.291066318,1,0,0,0.767,button_left_main,-0.508704037,-0.291066318,1,0,0,,0,87,87,146,1,MOOST,LB,old,z,./images/MOOSTLB.png,,,,,,,,,,,,,,,,,,,,,,,,,,,,,,,,,
,,,,,,,,,,,,,,,,,5b0495e0b98c410001adb589,28,2022-02-12_14h27.28.291,lexical_decision_task_DD,2021.2.3,Linux armv8l,59.85156811,,,,,,,,,,1.1003,1,,,,,,,,,,,,,,,0,-0.510250261,-0.293996006,1,0,0,1.1003,button_left_main,-0.510250261,-0.293996006,1,0,0,,0,88,88,154,1,THINT,HB,old,z,./images/THINTHB.png,,,,,,,,,,,,,,,,,,,,,,,,,,,,,,,,,
,,,,,,,,,,,,,,,,,5b0495e0b98c410001adb589,28,2022-02-12_14h27.28.291,lexical_decision_task_DD,2021.2.3,Linux armv8l,59.85156811,,,,,,,,,,0.7325,1,,,,,,,,,,,,,,,0,0.446347046,-0.276417881,1,0,0,0.7325,button_right_main,0.446347046,-0.276417881,1,0,0,,0,89,89,68,1,TORCH,LB,old,m,./images/TORCHLB.png,,,,,,,,,,,,,,,,,,,,,,,,,,,,,,,,,
,,,,,,,,,,,,,,,,,5b0495e0b98c410001adb589,28,2022-02-12_14h27.28.291,lexical_decision_task_DD,2021.2.3,Linux armv8l,59.85156811,,,,,,,,,,0.9542,1,,,,,,,,,,,,,,,0,-0.503034549,-0.296437412,1,0,0,0.9542,button_left_main,-0.503034549,-0.296437412,1,0,0,,0,90,90,130,1,CRILL,HB,old,z,./images/CRILLHB.png,,,,,,,,,,,,,,,,,,,,,,,,,,,,,,,,,
,,,,,,,,,,,,,,,,,5b0495e0b98c410001adb589,28,2022-02-12_14h27.28.291,lexical_decision_task_DD,2021.2.3,Linux armv8l,59.85156811,,,,,,,,,,0.7146,1,,,,,,,,,,,,,,,0,0.432946438,-0.280324131,1,0,0,0.7146,button_right_main,0.432946438,-0.280324131,1,0,0,,0,91,91,15,1,GREASE,C,old,m,./images/GREASE.png,,,,,,,,,,,,,,,,,,,,,,,,,,,,,,,,,
,,,,,,,,,,,,,,,,,5b0495e0b98c410001adb589,28,2022-02-12_14h27.28.291,lexical_decision_task_DD,2021.2.3,Linux armv8l,59.85156811,,,,,,,,,,0.585,1,,,,,,,,,,,,,,,0,0.444800822,-0.317433506,1,0,0,0.585,button_right_main,0.444800822,-0.317433506,1,0,0,,0,92,92,45,1,KITTEN,C,old,m,./images/KITTEN.png,,,,,,,,,,,,,,,,,,,,,,,,,,,,,,,,,
,,,,,,,,,,,,,,,,,5b0495e0b98c410001adb589,28,2022-02-12_14h27.28.291,lexical_decision_task_DD,2021.2.3,Linux armv8l,59.85156811,,,,,,,,,,0.666,1,,,,,,,,,,,,,,,0,0.45047031,-0.297658115,1,0,0,0.666,button_right_main,0.45047031,-0.297658115,1,0,0,,0,93,93,81,1,POODLE,C,old,m,./images/POODLE.png,,,,,,,,,,,,,,,,,,,,,,,,,,,,,,,,,
,,,,,,,,,,,,,,,,,5b0495e0b98c410001adb589,28,2022-02-12_14h27.28.291,lexical_decision_task_DD,2021.2.3,Linux armv8l,59.85156811,,,,,,,,,,0.6837,1,,,,,,,,,,,,,,,0,0.44016215,-0.30351749,1,0,0,0.6837,button_right_main,0.44016215,-0.30351749,1,0,0,,0,94,94,12,1,SHORE,C,old,m,./images/SHORE.png,,,,,,,,,,,,,,,,,,,,,,,,,,,,,,,,,
,,,,,,,,,,,,,,,,,5b0495e0b98c410001adb589,28,2022-02-12_14h27.28.291,lexical_decision_task_DD,2021.2.3,Linux armv8l,59.85156811,,,,,,,,,,0.851,1,,,,,,,,,,,,,,,0,-0.508704037,-0.297902256,1,0,0,0.851,button_left_main,-0.508704037,-0.297902256,1,0,0,,0,95,95,129,1,PRANS,C,old,z,./images/PRANS.png,,,,,,,,,,,,,,,,,,,,,,,,,,,,,,,,,
,,,,,,,,,,,,,,,,,5b0495e0b98c410001adb589,28,2022-02-12_14h27.28.291,lexical_decision_task_DD,2021.2.3,Linux armv8l,59.85156811,,,,,,,,,,0.8227,1,,,,,,,,,,,,,,,0,0.435523478,-0.286671787,1,0,0,0.8227,button_right_main,0.435523478,-0.286671787,1,0,0,,0,96,96,34,1,CANYON,HB,old,m,./images/CANYONHB.png,,,,,,,,,,,,,,,,,,,,,,,,,,,,,,,,,
,,,,,,,,,,,,,,,,,5b0495e0b98c410001adb589,28,2022-02-12_14h27.28.291,lexical_decision_task_DD,2021.2.3,Linux armv8l,59.85156811,,,,,,,,,,0.7555,1,,,,,,,,,,,,,,,0,-0.522104645,-0.287404209,1,0,0,0.7555,button_left_main,-0.522104645,-0.287404209,1,0,0,,0,97,97,108,1,GRUET,C,old,z,./images/GRUET.png,,,,,,,,,,,,,,,,,,,,,,,,,,,,,,,,,
,,,,,,,,,,,,,,,,,5b0495e0b98c410001adb589,28,2022-02-12_14h27.28.291,lexical_decision_task_DD,2021.2.3,Linux armv8l,59.85156811,,,,,,,,,,0.7383,1,,,,,,,,,,,,,,,0,0.444285414,-0.304494052,1,0,0,0.7383,button_right_main,0.444285414,-0.304494052,1,0,0,,0,98,98,23,1,WALRUS,LB,old,m,./images/WALRUSLB.png,,,,,,,,,,,,,,,,,,,,,,,,,,,,,,,,,
,,,,,,,,,,,,,,,,,5b0495e0b98c410001adb589,28,2022-02-12_14h27.28.291,lexical_decision_task_DD,2021.2.3,Linux armv8l,59.85156811,,,,,,,,,,1.0658,1,,,,,,,,,,,,,,,0,0.438615926,-0.288380771,1,0,0,1.0658,button_right_main,0.438615926,-0.288380771,1,0,0,,0,99,99,31,1,QUILL,HB,old,m,./images/QUILLHB.png,,,,,,,,,,,,,,,,,,,,,,,,,,,,,,,,,
,,,,,,,,,,,,,,,,,5b0495e0b98c410001adb589,28,2022-02-12_14h27.28.291,lexical_decision_task_DD,2021.2.3,Linux armv8l,59.85156811,,,,,,,,,,0.6343,1,,,,,,,,,,,,,,,0,0.42727695,-0.305226474,1,0,0,0.6343,button_right_main,0.42727695,-0.305226474,1,0,0,,0,100,100,50,1,MALLET,LB,old,m,./images/MALLETLB.png,,,,,,,,,,,,,,,,,,,,,,,,,,,,,,,,,
,,,,,,,,,,,,,,,,,5b0495e0b98c410001adb589,28,2022-02-12_14h27.28.291,lexical_decision_task_DD,2021.2.3,Linux armv8l,59.85156811,,,,,,,,,,0.6357,1,,,,,,,,,,,,,,,0,-0.505611589,-0.298146396,1,0,0,0.6357,button_left_main,-0.505611589,-0.298146396,1,0,0,,0,101,101,95,1,HANTY,LB,old,z,./images/HANTYLB.png,,,,,,,,,,,,,,,,,,,,,,,,,,,,,,,,,
,,,,,,,,,,,,,,,,,5b0495e0b98c410001adb589,28,2022-02-12_14h27.28.291,lexical_decision_task_DD,2021.2.3,Linux armv8l,59.85156811,,,,,,,,,,0.602,1,,,,,,,,,,,,,,,0,0.425215318,-0.29570499,1,0,0,0.602,button_right_main,0.425215318,-0.29570499,1,0,0,,0,102,102,61,1,CANDLE,HB,old,m,./images/CANDLEHB.png,,,,,,,,,,,,,,,,,,,,,,,,,,,,,,,,,
,,,,,,,,,,,,,,,,,5b0495e0b98c410001adb589,28,2022-02-12_14h27.28.291,lexical_decision_task_DD,2021.2.3,Linux armv8l,59.85156811,,,,,,,,,,0.6981,1,,,,,,,,,,,,,,,0,-0.496849653,-0.308400302,1,0,0,0.6981,button_left_main,-0.496849653,-0.308400302,1,0,0,,0,103,103,101,1,GLEET,LB,old,z,./images/GLEETLB.png,,,,,,,,,,,,,,,,,,,,,,,,,,,,,,,,,
,,,,,,,,,,,,,,,,,5b0495e0b98c410001adb589,28,2022-02-12_14h27.28.291,lexical_decision_task_DD,2021.2.3,Linux armv8l,59.85156811,,,,,,,,,,0.7369,1,,,,,,,,,,,,,,,0,-0.523650869,-0.299122959,1,0,0,0.7369,button_left_main,-0.523650869,-0.299122959,1,0,0,,0,104,104,140,1,DOVET,LB,old,z,./images/DOVETLB.png,,,,,,,,,,,,,,,,,,,,,,,,,,,,,,,,,
,,,,,,,,,,,,,,,,,5b0495e0b98c410001adb589,28,2022-02-12_14h27.28.291,lexical_decision_task_DD,2021.2.3,Linux armv8l,59.85156811,,,,,,,,,,0.654,1,,,,,,,,,,,,,,,0,0.417484114,-0.297902256,1,0,0,0.654,button_right_main,0.417484114,-0.297902256,1,0,0,,0,105,105,10,1,BELLY,HB,old,m,./images/BELLYHB.png,,,,,,,,,,,,,,,,,,,,,,,,,,,,,,,,,
,,,,,,,,,,,,,,,,,5b0495e0b98c410001adb589,28,2022-02-12_14h27.28.291,lexical_decision_task_DD,2021.2.3,Linux armv8l,59.85156811,,,,,,,,,,0.7554,1,,,,,,,,,,,,,,,0,-0.532412804,-0.300343662,1,0,0,0.7554,button_left_main,-0.532412804,-0.300343662,1,0,0,,0,106,106,148,1,JOMS,HB,old,z,./images/JOMSHB.png,,,,,,,,,,,,,,,,,,,,,,,,,,,,,,,,,
,,,,,,,,,,,,,,,,,5b0495e0b98c410001adb589,28,2022-02-12_14h27.28.291,lexical_decision_task_DD,2021.2.3,Linux armv8l,59.85156811,,,,,,,,,,0.6817,1,,,,,,,,,,,,,,,0,-0.511796485,-0.294484287,1,0,0,0.6817,button_left_main,-0.511796485,-0.294484287,1,0,0,,0,107,107,123,1,SEDGE,C,old,z,./images/SEDGE.png,,,,,,,,,,,,,,,,,,,,,,,,,,,,,,,,,
,,,,,,,,,,,,,,,,,5b0495e0b98c410001adb589,28,2022-02-12_14h27.28.291,lexical_decision_task_DD,2021.2.3,Linux armv8l,59.85156811,,,,,,,,,,0.7296,1,,,,,,,,,,,,,,,0,-0.524681685,-0.297169834,1,0,0,0.7296,button_left_main,-0.524681685,-0.297169834,1,0,0,,0,108,108,84,1,HAXES,C,old,z,./images/HAXES.png,,,,,,,,,,,,,,,,,,,,,,,,,,,,,,,,,
,,,,,,,,,,,,,,,,,5b0495e0b98c410001adb589,28,2022-02-12_14h27.28.291,lexical_decision_task_DD,2021.2.3,Linux armv8l,59.85156811,,,,,,,,,,0.6622,1,,,,,,,,,,,,,,,0,0.417484114,-0.276417881,1,0,0,0.6622,button_right_main,0.417484114,-0.276417881,1,0,0,,0,109,109,41,1,STRING,LB,old,m,./images/STRINGLB.png,,,,,,,,,,,,,,,,,,,,,,,,,,,,,,,,,
,,,,,,,,,,,,,,,,,5b0495e0b98c410001adb589,28,2022-02-12_14h27.28.291,lexical_decision_task_DD,2021.2.3,Linux armv8l,59.85156811,,,,,,,,,,0.7153,1,,,,,,,,,,,,,,,0,0.425730726,-0.300099521,1,0,0,0.7153,button_right_main,0.425730726,-0.300099521,1,0,0,,0,110,110,40,1,SWING,HB,old,m,./images/SWINGHB.png,,,,,,,,,,,,,,,,,,,,,,,,,,,,,,,,,
,,,,,,,,,,,,,,,,,5b0495e0b98c410001adb589,28,2022-02-12_14h27.28.291,lexical_decision_task_DD,2021.2.3,Linux armv8l,59.85156811,,,,,,,,,,0.6533,1,,,,,,,,,,,,,,,0,-0.499942101,-0.30742374,1,0,0,0.6533,button_left_main,-0.499942101,-0.30742374,1,0,0,,0,111,111,132,1,SCIFF,C,old,z,./images/SCIFF.png,,,,,,,,,,,,,,,,,,,,,,,,,,,,,,,,,
,,,,,,,,,,,,,,,,,5b0495e0b98c410001adb589,28,2022-02-12_14h27.28.291,lexical_decision_task_DD,2021.2.3,Linux armv8l,59.85156811,,,,,,,,,,0.7,1,,,,,,,,,,,,,,,0,-0.521589237,-0.292775302,1,0,0,0.7,button_left_main,-0.521589237,-0.292775302,1,0,0,,0,112,112,161,1,BLAPS,LB,old,z,./images/BLAPSLB.png,,,,,,,,,,,,,,,,,,,,,,,,,,,,,,,,,
,,,,,,,,,,,,,,,,,5b0495e0b98c410001adb589,28,2022-02-12_14h27.28.291,lexical_decision_task_DD,2021.2.3,Linux armv8l,59.85156811,,,,,,,,,,0.6528,1,,,,,,,,,,,,,,,0,-0.507673221,-0.292531162,1,0,0,0.6528,button_left_main,-0.507673221,-0.292531162,1,0,0,,0,113,113,104,1,GITTY,LB,old,z,./images/GITTYLB.png,,,,,,,,,,,,,,,,,,,,,,,,,,,,,,,,,
,,,,,,,,,,,,,,,,,5b0495e0b98c410001adb589,28,2022-02-12_14h27.28.291,lexical_decision_task_DD,2021.2.3,Linux armv8l,59.85156811,,,,,,,,,,0.8086,1,,,,,,,,,,,,,,,0,0.438100518,-0.306447177,1,0,0,0.8086,button_right_main,0.438100518,-0.306447177,1,0,0,,0,114,114,52,1,BANNER,HB,old,m,./images/BANNERHB.png,,,,,,,,,,,,,,,,,,,,,,,,,,,,,,,,,
,,,,,,,,,,,,,,,,,5b0495e0b98c410001adb589,28,2022-02-12_14h27.28.291,lexical_decision_task_DD,2021.2.3,Linux armv8l,59.85156811,,,,,,,,,,0.6352,1,,,,,,,,,,,,,,,0,-0.495818837,-0.307667881,1,0,0,0.6352,button_left_main,-0.495818837,-0.307667881,1,0,0,,0,115,115,113,1,LINEW,LB,old,z,./images/LINEWLB.png,,,,,,,,,,,,,,,,,,,,,,,,,,,,,,,,,
,,,,,,,,,,,,,,,,,5b0495e0b98c410001adb589,28,2022-02-12_14h27.28.291,lexical_decision_task_DD,2021.2.3,Linux armv8l,59.85156811,,,,,,,,,,0.9311,1,,,,,,,,,,,,,,,0,-0.512311893,-0.303761631,1,0,0,0.9311,button_left_main,-0.512311893,-0.303761631,1,0,0,,0,116,116,151,1,TINKY,HB,old,z,./images/TINKYHB.png,,,,,,,,,,,,,,,,,,,,,,,,,,,,,,,,,
,,,,,,,,,,,,,,,,,5b0495e0b98c410001adb589,28,2022-02-12_14h27.28.291,lexical_decision_task_DD,2021.2.3,Linux armv8l,59.85156811,,,,,,,,,,0.6183,1,,,,,,,,,,,,,,,0,0.420576647,-0.301076084,1,0,0,0.6183,button_right_main,0.420576647,-0.301076084,1,0,0,,0,117,117,80,1,WEASEL,LB,old,m,./images/WEASELLB.png,,,,,,,,,,,,,,,,,,,,,,,,,,,,,,,,,
,,,,,,,,,,,,,,,,,5b0495e0b98c410001adb589,28,2022-02-12_14h27.28.291,lexical_decision_task_DD,2021.2.3,Linux armv8l,59.85156811,,,,,,,,,,0.6962,1,,,,,,,,,,,,,,,0,-0.522104645,-0.292042881,1,0,0,0.6962,button_left_main,-0.522104645,-0.292042881,1,0,0,,0,118,118,111,1,HOSSE,C,old,z,./images/HOSSE.png,,,,,,,,,,,,,,,,,,,,,,,,,,,,,,,,,
,,,,,,,,,,,,,,,,,5b0495e0b98c410001adb589,28,2022-02-12_14h27.28.291,lexical_decision_task_DD,2021.2.3,Linux armv8l,59.85156811,,,,,,,,,,0.9546,1,,,,,,,,,,,,,,,0,0.419030338,-0.299122959,1,0,0,0.9546,button_right_main,0.419030338,-0.299122959,1,0,0,,0,119,119,73,1,SNACK,HB,old,m,./images/SNACKHB.png,,,,,,,,,,,,,,,,,,,,,,,,,,,,,,,,,
,,,,,,,,,,,,,,,,,5b0495e0b98c410001adb589,28,2022-02-12_14h27.28.291,lexical_decision_task_DD,2021.2.3,Linux armv8l,59.85156811,,,,,,,,,,0.7761,1,,,,,,,,,,,,,,,0,-0.516950565,-0.28789249,1,0,0,0.7761,button_left_main,-0.516950565,-0.28789249,1,0,0,,0,120,120,124,1,TUNCH,HB,old,z,./images/TUNCHHB.png,,,,,,,,,,,,,,,,,,,,,,,,,,,,,,,,,
,,,,,,,,,,,,,,,,,5b0495e0b98c410001adb589,28,2022-02-12_14h27.28.291,lexical_decision_task_DD,2021.2.3,Linux armv8l,59.85156811,,,,,,,,,,0.5833,1,,,,,,,,,,,,,,,0,0.41593789,-0.293507724,1,0,0,0.5833,button_right_main,0.41593789,-0.293507724,1,0,0,,0,121,121,35,1,PEACH,LB,old,m,./images/PEACHLB.png,,,,,,,,,,,,,,,,,,,,,,,,,,,,,,,,,
,,,,,,,,,,,,,,,,,5b0495e0b98c410001adb589,28,2022-02-12_14h27.28.291,lexical_decision_task_DD,2021.2.3,Linux armv8l,59.85156811,,,,,,,,,,0.6021,1,,,,,,,,,,,,,,,0,-0.507673221,-0.300099521,1,0,0,0.6021,button_left_main,-0.507673221,-0.300099521,1,0,0,,0,122,122,134,1,TROSS,LB,old,z,./images/TROSSLB.png,,,,,,,,,,,,,,,,,,,,,,,,,,,,,,,,,
,,,,,,,,,,,,,,,,,5b0495e0b98c410001adb589,28,2022-02-12_14h27.28.291,lexical_decision_task_DD,2021.2.3,Linux armv8l,59.85156811,,,,,,,,,,0.5589,1,,,,,,,,,,,,,,,0,0.416453298,-0.307667881,1,0,0,0.5589,button_right_main,0.416453298,-0.307667881,1,0,0,,0,123,123,33,1,MAGGOT,C,old,m,./images/MAGGOT.png,,,,,,,,,,,,,,,,,,,,,,,,,,,,,,,,,
,,,,,,,,,,,,,,,,,5b0495e0b98c410001adb589,28,2022-02-12_14h27.28.291,lexical_decision_task_DD,2021.2.3,Linux armv8l,59.85156811,,,,,,,,,,0.7992,1,,,,,,,,,,,,,,,0,-0.530351173,-0.289357334,1,0,0,0.7992,button_left_main,-0.530351173,-0.289357334,1,0,0,,0,124,124,115,1,MAWNS,HB,old,z,./images/MAWNSHB.png,,,,,,,,,,,,,,,,,,,,,,,,,,,,,,,,,
,,,,,,,,,,,,,,,,,5b0495e0b98c410001adb589,28,2022-02-12_14h27.28.291,lexical_decision_task_DD,2021.2.3,Linux armv8l,59.85156811,,,,,,,,,,0.7823,1,,,,,,,,,,,,,,,0,0.419030338,-0.301076084,1,0,0,0.7823,button_right_main,0.119578298,-0.385060459,1,0,0,,0,125,125,0,1,TOMATO,C,old,m,./images/TOMATO.png,break_done_button,,,,,,,,,,,,,,,,,,,,,,,,,,,,,,,,
,,,,,,,,,,,,,,,,,5b0495e0b98c410001adb589,28,2022-02-12_14h27.28.291,lexical_decision_task_DD,2021.2.3,Linux armv8l,59.85156811,,,,,,,,,,0.7368,1,,,,,,,,,,,,,,,0,0.392744531,-0.283009677,1,0,0,0.7368,button_right_main,0.392744531,-0.283009677,1,0,0,,0,126,126,56,1,PACKET,LB,old,m,./images/PACKETLB.png,,,,,,,,,,,,,,,,,,,,,,,,,,,,,,,,,
,,,,,,,,,,,,,,,,,5b0495e0b98c410001adb589,28,2022-02-12_14h27.28.291,lexical_decision_task_DD,2021.2.3,Linux armv8l,59.85156811,,,,,,,,,,0.5879,1,,,,,,,,,,,,,,,0,0.402537282,-0.28789249,1,0,0,0.5879,button_right_main,0.402537282,-0.28789249,1,0,0,,0,127,127,3,1,FINGER,C,old,m,./images/FINGER.png,,,,,,,,,,,,,,,,,,,,,,,,,,,,,,,,,
,,,,,,,,,,,,,,,,,5b0495e0b98c410001adb589,28,2022-02-12_14h27.28.291,lexical_decision_task_DD,2021.2.3,Linux armv8l,59.85156811,,,,,,,,,,0.553,1,,,,,,,,,,,,,,,0,0.408722178,-0.297169834,1,0,0,0.553,button_right_main,0.408722178,-0.297169834,1,0,0,,0,128,128,32,1,BARREL,LB,old,m,./images/BARRELLB.png,,,,,,,,,,,,,,,,,,,,,,,,,,,,,,,,,
,,,,,,,,,,,,,,,,,5b0495e0b98c410001adb589,28,2022-02-12_14h27.28.291,lexical_decision_task_DD,2021.2.3,Linux armv8l,59.85156811,,,,,,,,,,0.867,0,,,,,,,,,,,,,,,0,-0.53344362,-0.290822177,1,0,0,0.867,button_left_main,-0.53344362,-0.290822177,1,0,0,,0,129,129,67,1,SAILOR,HB,old,m,./images/SAILORHB.png,,,,,,,,,,,,,,,,,,,,,,,,,,,,,,,,,
,,,,,,,,,,,,,,,,,5b0495e0b98c410001adb589,28,2022-02-12_14h27.28.291,lexical_decision_task_DD,2021.2.3,Linux armv8l,59.85156811,,,,,,,,,,0.9486,0,,,,,,,,,,,,,,,0,-0.543236372,-0.287648349,1,0,0,0.9486,button_left_main,-0.543236372,-0.287648349,1,0,0,,0,130,130,16,1,PENCE,HB,old,m,./images/PENCEHB.png,,,,,,,,,,,,,,,,,,,,,,,,,,,,,,,,,
,,,,,,,,,,,,,,,,,5b0495e0b98c410001adb589,28,2022-02-12_14h27.28.291,lexical_decision_task_DD,2021.2.3,Linux armv8l,59.85156811,,,,,,,,,,1.1684,1,,,,,,,,,,,,,,,0,-0.520043013,-0.284962802,1,0,0,1.1684,button_left_main,-0.520043013,-0.284962802,1,0,0,,0,131,131,163,1,GAMBA,HB,old,z,./images/GAMBAHB.png,,,,,,,,,,,,,,,,,,,,,,,,,,,,,,,,,
,,,,,,,,,,,,,,,,,5b0495e0b98c410001adb589,28,2022-02-12_14h27.28.291,lexical_decision_task_DD,2021.2.3,Linux armv8l,59.85156811,,,,,,,,,,0.8471,1,,,,,,,,,,,,,,,0,-0.516950565,-0.295949131,1,0,0,0.8471,button_left_main,-0.516950565,-0.295949131,1,0,0,,0,132,132,88,1,GLUSH,HB,old,z,./images/GLUSHHB.png,,,,,,,,,,,,,,,,,,,,,,,,,,,,,,,,,
,,,,,,,,,,,,,,,,,5b0495e0b98c410001adb589,28,2022-02-12_14h27.28.291,lexical_decision_task_DD,2021.2.3,Linux armv8l,59.85156811,,,,,,,,,,0.6962,1,,,,,,,,,,,,,,,0,0.412330034,-0.29179874,1,0,0,0.6962,button_right_main,0.412330034,-0.29179874,1,0,0,,0,133,133,2,1,BEARD,LB,old,m,./images/BEARDLB.png,,,,,,,,,,,,,,,,,,,,,,,,,,,,,,,,,
,,,,,,,,,,,,,,,,,5b0495e0b98c410001adb589,28,2022-02-12_14h27.28.291,lexical_decision_task_DD,2021.2.3,Linux armv8l,59.85156811,,,,,,,,,,0.6197,1,,,,,,,,,,,,,,,0,-0.517465973,-0.287160068,1,0,0,0.6197,button_left_main,-0.517465973,-0.287160068,1,0,0,,0,134,134,126,1,GUELS,C,old,z,./images/GUELS.png,,,,,,,,,,,,,,,,,,,,,,,,,,,,,,,,,
,,,,,,,,,,,,,,,,,5b0495e0b98c410001adb589,28,2022-02-12_14h27.28.291,lexical_decision_task_DD,2021.2.3,Linux armv8l,59.85156811,,,,,,,,,,1.1035,1,,,,,,,,,,,,,,,0,-0.548390452,-0.275441318,1,0,0,1.1035,button_left_main,-0.548390452,-0.275441318,1,0,0,,0,135,135,91,1,SHENS,HB,old,z,./images/SHENSHB.png,,,,,,,,,,,,,,,,,,,,,,,,,,,,,,,,,
,,,,,,,,,,,,,,,,,5b0495e0b98c410001adb589,28,2022-02-12_14h27.28.291,lexical_decision_task_DD,2021.2.3,Linux armv8l,59.85156811,,,,,,,,,,0.7023,1,,,,,,,,,,,,,,,0,-0.524681685,-0.273488193,1,0,0,0.7023,button_left_main,-0.524681685,-0.273488193,1,0,0,,0,136,136,107,1,FASKS,LB,old,z,./images/FASKSLB.png,,,,,,,,,,,,,,,,,,,,,,,,,,,,,,,,,
,,,,,,,,,,,,,,,,,5b0495e0b98c410001adb589,28,2022-02-12_14h27.28.291,lexical_decision_task_DD,2021.2.3,Linux armv8l,59.85156811,,,,,,,,,,0.6044,1,,,,,,,,,,,,,,,0,0.40820677,-0.294240146,1,0,0,0.6044,button_right_main,0.40820677,-0.294240146,1,0,0,,0,137,137,48,1,SPORT,C,old,m,./images/SPORT.png,,,,,,,,,,,,,,,,,,,,,,,,,,,,,,,,,
,,,,,,,,,,,,,,,,,5b0495e0b98c410001adb589,28,2022-02-12_14h27.28.291,lexical_decision_task_DD,2021.2.3,Linux armv8l,59.85156811,,,,,,,,,,0.8864,1,,,,,,,,,,,,,,,0,-0.531897397,-0.279591709,1,0,0,0.8864,button_left_main,-0.531897397,-0.279591709,1,0,0,,0,138,138,157,1,INLER,HB,old,z,./images/INLERHB.png,,,,,,,,,,,,,,,,,,,,,,,,,,,,,,,,,
,,,,,,,,,,,,,,,,,5b0495e0b98c410001adb589,28,2022-02-12_14h27.28.291,lexical_decision_task_DD,2021.2.3,Linux armv8l,59.85156811,,,,,,,,,,0.6938,1,,,,,,,,,,,,,,,0,-0.520558421,-0.293996006,1,0,0,0.6938,button_left_main,-0.520558421,-0.293996006,1,0,0,,0,139,139,93,1,SMONE,C,old,z,./images/SMONE.png,,,,,,,,,,,,,,,,,,,,,,,,,,,,,,,,,
,,,,,,,,,,,,,,,,,5b0495e0b98c410001adb589,28,2022-02-12_14h27.28.291,lexical_decision_task_DD,2021.2.3,Linux armv8l,59.85156811,,,,,,,,,,0.6516,1,,,,,,,,,,,,,,,0,0.406145138,-0.300099521,1,0,0,0.6516,button_right_main,0.406145138,-0.300099521,1,0,0,,0,140,140,65,1,FARMER,LB,old,m,./images/FARMERLB.png,,,,,,,,,,,,,,,,,,,,,,,,,,,,,,,,,
,,,,,,,,,,,,,,,,,5b0495e0b98c410001adb589,28,2022-02-12_14h27.28.291,lexical_decision_task_DD,2021.2.3,Linux armv8l,59.85156811,,,,,,,,,,0.7013,1,,,,,,,,,,,,,,,0,0.408722178,-0.298878818,1,0,0,0.7013,button_right_main,0.408722178,-0.298878818,1,0,0,,0,141,141,29,1,CRUMB,LB,old,m,./images/CRUMBLB.png,,,,,,,,,,,,,,,,,,,,,,,,,,,,,,,,,
,,,,,,,,,,,,,,,,,5b0495e0b98c410001adb589,28,2022-02-12_14h27.28.291,lexical_decision_task_DD,2021.2.3,Linux armv8l,59.85156811,,,,,,,,,,0.6197,1,,,,,,,,,,,,,,,0,0.41851493,-0.302785068,1,0,0,0.6197,button_right_main,0.41851493,-0.302785068,1,0,0,,0,142,142,66,1,SWEAT,C,old,m,./images/SWEAT.png,,,,,,,,,,,,,,,,,,,,,,,,,,,,,,,,,
,,,,,,,,,,,,,,,,,5b0495e0b98c410001adb589,28,2022-02-12_14h27.28.291,lexical_decision_task_DD,2021.2.3,Linux armv8l,59.85156811,,,,,,,,,,0.684,1,,,,,,,,,,,,,,,0,-0.525712501,-0.298634677,1,0,0,0.684,button_left_main,-0.525712501,-0.298634677,1,0,0,,0,143,143,96,1,KEAMS,C,old,z,./images/KEAMS.png,,,,,,,,,,,,,,,,,,,,,,,,,,,,,,,,,
,,,,,,,,,,,,,,,,,5b0495e0b98c410001adb589,28,2022-02-12_14h27.28.291,lexical_decision_task_DD,2021.2.3,Linux armv8l,59.85156811,,,,,,,,,,0.7788,1,,,,,,,,,,,,,,,0,-0.509734853,-0.300831943,1,0,0,0.7788,button_left_main,-0.509734853,-0.300831943,1,0,0,,0,144,144,150,1,NOOLS,C,old,z,./images/NOOLS.png,,,,,,,,,,,,,,,,,,,,,,,,,,,,,,,,,
,,,,,,,,,,,,,,,,,5b0495e0b98c410001adb589,28,2022-02-12_14h27.28.291,lexical_decision_task_DD,2021.2.3,Linux armv8l,59.85156811,,,,,,,,,,0.5806,1,,,,,,,,,,,,,,,0,0.409752994,-0.300099521,1,0,0,0.5806,button_right_main,0.409752994,-0.300099521,1,0,0,,0,145,145,53,1,CARPET,LB,old,m,./images/CARPETLB.png,,,,,,,,,,,,,,,,,,,,,,,,,,,,,,,,,
,,,,,,,,,,,,,,,,,5b0495e0b98c410001adb589,28,2022-02-12_14h27.28.291,lexical_decision_task_DD,2021.2.3,Linux armv8l,59.85156811,,,,,,,,,,0.6374,1,,,,,,,,,,,,,,,0,-0.526227909,-0.291554599,1,0,0,0.6374,button_left_main,-0.526227909,-0.291554599,1,0,0,,0,146,146,117,1,STEEG,C,old,z,./images/STEEG.png,,,,,,,,,,,,,,,,,,,,,,,,,,,,,,,,,
,,,,,,,,,,,,,,,,,5b0495e0b98c410001adb589,28,2022-02-12_14h27.28.291,lexical_decision_task_DD,2021.2.3,Linux armv8l,59.85156811,,,,,,,,,,0.8851,1,,,,,,,,,,,,,,,0,-0.525712501,-0.291066318,1,0,0,0.8851,button_left_main,-0.525712501,-0.291066318,1,0,0,,0,147,147,164,1,SGREW,LB,old,z,./images/SGREWLB.png,,,,,,,,,,,,,,,,,,,,,,,,,,,,,,,,,
,,,,,,,,,,,,,,,,,5b0495e0b98c410001adb589,28,2022-02-12_14h27.28.291,lexical_decision_task_DD,2021.2.3,Linux armv8l,59.85156811,,,,,,,,,,0.9686,1,,,,,,,,,,,,,,,0,0.399960242,-0.292042881,1,0,0,0.9686,button_right_main,0.399960242,-0.292042881,1,0,0,,0,148,148,60,1,TWINS,C,old,m,./images/TWINS.png,,,,,,,,,,,,,,,,,,,,,,,,,,,,,,,,,
,,,,,,,,,,,,,,,,,5b0495e0b98c410001adb589,28,2022-02-12_14h27.28.291,lexical_decision_task_DD,2021.2.3,Linux armv8l,59.85156811,,,,,,,,,,0.883,1,,,,,,,,,,,,,,,0,-0.539113108,-0.284474521,1,0,0,0.883,button_left_main,-0.539113108,-0.284474521,1,0,0,,0,149,149,127,1,NINDY,HB,old,z,./images/NINDYHB.png,,,,,,,,,,,,,,,,,,,,,,,,,,,,,,,,,
,,,,,,,,,,,,,,,,,5b0495e0b98c410001adb589,28,2022-02-12_14h27.28.291,lexical_decision_task_DD,2021.2.3,Linux armv8l,59.85156811,,,,,,,,,,0.6708,1,,,,,,,,,,,,,,,0,-0.546844228,-0.283253818,1,0,0,0.6708,button_left_main,-0.546844228,-0.283253818,1,0,0,,0,150,150,152,1,FRAIN,LB,old,z,./images/FRAINLB.png,,,,,,,,,,,,,,,,,,,,,,,,,,,,,,,,,
,,,,,,,,,,,,,,,,,5b0495e0b98c410001adb589,28,2022-02-12_14h27.28.291,lexical_decision_task_DD,2021.2.3,Linux armv8l,59.85156811,,,,,,,,,,0.7658,1,,,,,,,,,,,,,,,0,-0.519012197,-0.279591709,1,0,0,0.7658,button_left_main,-0.519012197,-0.279591709,1,0,0,,0,151,151,165,1,TROWN,C,old,z,./images/TROWN.png,,,,,,,,,,,,,,,,,,,,,,,,,,,,,,,,,
,,,,,,,,,,,,,,,,,5b0495e0b98c410001adb589,28,2022-02-12_14h27.28.291,lexical_decision_task_DD,2021.2.3,Linux armv8l,59.85156811,,,,,,,,,,0.7302,1,,,,,,,,,,,,,,,0,-0.533959028,-0.279591709,1,0,0,0.7302,button_left_main,-0.533959028,-0.279591709,1,0,0,,0,152,152,112,1,MYING,HB,old,z,./images/MYINGHB.png,,,,,,,,,,,,,,,,,,,,,,,,,,,,,,,,,
,,,,,,,,,,,,,,,,,5b0495e0b98c410001adb589,28,2022-02-12_14h27.28.291,lexical_decision_task_DD,2021.2.3,Linux armv8l,59.85156811,,,,,,,,,,0.7187,1,,,,,,,,,,,,,,,0,0.39789861,-0.297902256,1,0,0,0.7187,button_right_main,0.39789861,-0.297902256,1,0,0,,0,153,153,11,1,BONNET,LB,old,m,./images/BONNETLB.png,,,,,,,,,,,,,,,,,,,,,,,,,,,,,,,,,
,,,,,,,,,,,,,,,,,5b0495e0b98c410001adb589,28,2022-02-12_14h27.28.291,lexical_decision_task_DD,2021.2.3,Linux armv8l,59.85156811,,,,,,,,,,0.7488,1,,,,,,,,,,,,,,,0,0.409237586,-0.288869052,1,0,0,0.7488,button_right_main,0.409237586,-0.288869052,1,0,0,,0,154,154,58,1,BABOON,HB,old,m,./images/BABOONHB.png,,,,,,,,,,,,,,,,,,,,,,,,,,,,,,,,,
,,,,,,,,,,,,,,,,,5b0495e0b98c410001adb589,28,2022-02-12_14h27.28.291,lexical_decision_task_DD,2021.2.3,Linux armv8l,59.85156811,,,,,,,,,,0.7348,1,,,,,,,,,,,,,,,0,0.415422482,-0.28398624,1,0,0,0.7348,button_right_main,0.415422482,-0.28398624,1,0,0,,0,155,155,55,1,MUFFIN,HB,old,m,./images/MUFFINHB.png,,,,,,,,,,,,,,,,,,,,,,,,,,,,,,,,,
,,,,,,,,,,,,,,,,,5b0495e0b98c410001adb589,28,2022-02-12_14h27.28.291,lexical_decision_task_DD,2021.2.3,Linux armv8l,59.85156811,,,,,,,,,,0.619,1,,,,,,,,,,,,,,,0,0.412845442,-0.28789249,1,0,0,0.619,button_right_main,0.412845442,-0.28789249,1,0,0,,0,156,156,24,1,SCREW,C,old,m,./images/SCREW.png,,,,,,,,,,,,,,,,,,,,,,,,,,,,,,,,,
,,,,,,,,,,,,,,,,,5b0495e0b98c410001adb589,28,2022-02-12_14h27.28.291,lexical_decision_task_DD,2021.2.3,Linux armv8l,59.85156811,,,,,,,,,,0.7667,1,,,,,,,,,,,,,,,0,0.412845442,-0.290822177,1,0,0,0.7667,button_right_main,0.412845442,-0.290822177,1,0,0,,0,157,157,13,1,MOTOR,HB,old,m,./images/MOTORHB.png,,,,,,,,,,,,,,,,,,,,,,,,,,,,,,,,,
,,,,,,,,,,,,,,,,,5b0495e0b98c410001adb589,28,2022-02-12_14h27.28.291,lexical_decision_task_DD,2021.2.3,Linux armv8l,59.85156811,,,,,,,,,,0.6184,1,,,,,,,,,,,,,,,0,0.39789861,-0.287160068,1,0,0,0.6184,button_right_main,0.39789861,-0.287160068,1,0,0,,0,158,158,9,1,RHINO,C,old,m,./images/RHINO.png,,,,,,,,,,,,,,,,,,,,,,,,,,,,,,,,,
,,,,,,,,,,,,,,,,,5b0495e0b98c410001adb589,28,2022-02-12_14h27.28.291,lexical_decision_task_DD,2021.2.3,Linux armv8l,59.85156811,,,,,,,,,,0.6374,1,,,,,,,,,,,,,,,0,-0.529835765,-0.292287021,1,0,0,0.6374,button_left_main,-0.529835765,-0.292287021,1,0,0,,0,159,159,116,1,BALGY,LB,old,z,./images/BALGYLB.png,,,,,,,,,,,,,,,,,,,,,,,,,,,,,,,,,
,,,,,,,,,,,,,,,,,5b0495e0b98c410001adb589,28,2022-02-12_14h27.28.291,lexical_decision_task_DD,2021.2.3,Linux armv8l,59.85156811,,,,,,,,,,0.6476,1,,,,,,,,,,,,,,,0,0.384498003,-0.298878818,1,0,0,0.6476,button_right_main,0.384498003,-0.298878818,1,0,0,,0,160,160,5,1,PASTA,LB,old,m,./images/PASTALB.png,,,,,,,,,,,,,,,,,,,,,,,,,,,,,,,,,
,,,,,,,,,,,,,,,,,5b0495e0b98c410001adb589,28,2022-02-12_14h27.28.291,lexical_decision_task_DD,2021.2.3,Linux armv8l,59.85156811,,,,,,,,,,0.5675,1,,,,,,,,,,,,,,,0,0.390682899,-0.288869052,1,0,0,0.5675,button_right_main,0.390682899,-0.288869052,1,0,0,,0,161,161,51,1,ONION,C,old,m,./images/ONION.png,,,,,,,,,,,,,,,,,,,,,,,,,,,,,,,,,
,,,,,,,,,,,,,,,,,5b0495e0b98c410001adb589,28,2022-02-12_14h27.28.291,lexical_decision_task_DD,2021.2.3,Linux armv8l,59.85156811,,,,,,,,,,0.5821,1,,,,,,,,,,,,,,,0,0.387590451,-0.289845615,1,0,0,0.5821,button_right_main,0.387590451,-0.289845615,1,0,0,,0,162,162,27,1,ATTIC,C,old,m,./images/ATTIC.png,,,,,,,,,,,,,,,,,,,,,,,,,,,,,,,,,
,,,,,,,,,,,,,,,,,5b0495e0b98c410001adb589,28,2022-02-12_14h27.28.291,lexical_decision_task_DD,2021.2.3,Linux armv8l,59.85156811,,,,,,,,,,0.5714,1,,,,,,,,,,,,,,,0,-0.527774133,-0.29570499,1,0,0,0.5714,button_left_main,-0.527774133,-0.29570499,1,0,0,,0,163,163,143,1,MONGS,LB,old,z,./images/MONGSLB.png,,,,,,,,,,,,,,,,,,,,,,,,,,,,,,,,,
,,,,,,,,,,,,,,,,,5b0495e0b98c410001adb589,28,2022-02-12_14h27.28.291,lexical_decision_task_DD,2021.2.3,Linux armv8l,59.85156811,,,,,,,,,,0.6282,1,,,,,,,,,,,,,,,0,-0.529835765,-0.283009677,1,0,0,0.6282,button_left_main,-0.529835765,-0.283009677,1,0,0,,0,164,164,147,1,ZOLES,C,old,z,./images/ZOLES.png,,,,,,,,,,,,,,,,,,,,,,,,,,,,,,,,,
,,,,,,,,,,,,,,,,,5b0495e0b98c410001adb589,28,2022-02-12_14h27.28.291,lexical_decision_task_DD,2021.2.3,Linux armv8l,59.85156811,,,,,,,,,,0.7549,1,,,,,,,,,,,,,,,0,-0.527774133,-0.284718662,1,0,0,0.7549,button_left_main,-0.527774133,-0.284718662,1,0,0,,0,165,165,158,1,EGECT,LB,old,z,./images/EGECTLB.png,,,,,,,,,,,,,,,,,,,,,,,,,,,,,,,,,
,,,,,,,,,,,,,,,,,5b0495e0b98c410001adb589,28,2022-02-12_14h27.28.291,lexical_decision_task_DD,2021.2.3,Linux armv8l,59.85156811,,,,,,,,,,1.0322,1,,,,,,,,,,,,,,,0,-0.522620053,-0.295460849,1,0,0,1.0322,button_left_main,-0.522620053,-0.295460849,1,0,0,,0,166,166,145,1,LAMEL,HB,old,z,./images/LAMELHB.png,,,,,,,,,,,,,,,,,,,,,,,,,,,,,,,,,
,,,,,,,,,,,,,,,,,5b0495e0b98c410001adb589,28,2022-02-12_14h27.28.291,lexical_decision_task_DD,2021.2.3,Linux armv8l,59.85156811,,,,,,,,,,1.2638,1,,,,,,,,,,,,,,,0,-0.522104645,-0.29961124,1,0,0,1.2638,button_left_main,-0.522104645,-0.29961124,1,0,0,,0,167,167,153,1,CLUPS,C,old,z,./images/CLUPS.png,,,,,,,,,,,,,,,,,,,,,,,,,,,,,,,,,
,,,,,,,,,,,,,,,,,5b0495e0b98c410001adb589,28,2022-02-12_14h27.28.291,lexical_decision_task_DD,2021.2.3,Linux armv8l,59.85156811,,,,,,,,,,,,,,,,,,,,,,,,,,,,,,,,,,,,,,,,,,,,,,How likely will it be that you will recognize the words presented slighly blurred on a scale of 0 (not likely) to 100 (most likely)?,,,,,0.002580685,-0.390675693,1,0,0,jol_adv,5,12.857,0,0,0,1,1,,,,,,,,,,,,,,,,,,,
,,,,,,,,,,,,,,,,,5b0495e0b98c410001adb589,28,2022-02-12_14h27.28.291,lexical_decision_task_DD,2021.2.3,Linux armv8l,59.85156811,,,,,,,,,,,,,,,,,,,,,,,,,,,,,,,,,,,,,,,,,,,,,,How likely will it be that you will recognize the words presented clearly on a scale of 0 (not likely) to 100 (most likely)?,,,,,,,,,,,5,4.2234,0,1,1,0,1,,,,,,,,,,,,,,,,,,,
,,,,,,,,,,,,,,,,,5b0495e0b98c410001adb589,28,2022-02-12_14h27.28.291,lexical_decision_task_DD,2021.2.3,Linux armv8l,59.85156811,,,,,,,,,,,,,,,,,,,,,,,,,,,,,,,,,,,,,,,,,,,,,,How likely will it be that you will recognize the words presented very blurred on a scale of 0 (not likely) to 100 (most likely)?,,,,,,,,,,,3,4.5565,0,2,2,2,1,,,,,,,,,,,,,,,,,,,
,0.149471961,-0.41289249,1,0,0,instr_done_button,,,,,,1,test,"In the next phase you will be presented with the words from the the first phase. Your job is to decide whether you remember seeing the word or not. If you remember seeing the word press ""old"" or type ""m"". If you do not remember seeing the word press ""new"" or type ""z"". Please press the space bar or click on continue to begin. ",,,5b0495e0b98c410001adb589,28,2022-02-12_14h27.28.291,lexical_decision_task_DD,2021.2.3,Linux armv8l,59.85156811,,,,,,,,,,,,,,,,,,,,,,,,,,,,,,,,,,,,,,,,,,,,,,,,,,,,,,,,,,,,,,,,0,0,0,0,1,,,,,,,,,,,,,,
,0.051029036,-0.393117099,1,0,0,instr_done_button,,,,,,1,test,"In the next phase you will be presented with the words from the the first phase. Your job is to decide whether you remember seeing the word or not. If you remember seeing the word press ""old"" or type ""m"". If you do not remember seeing the word press ""new"" or type ""z"". Please press the space bar or click on continue to begin. ",,,5b0495e0b98c410001adb589,28,2022-02-12_14h27.28.291,lexical_decision_task_DD,2021.2.3,Linux armv8l,59.85156811,,,,,,,,,,,,,,,,,,,,,,,,,,,,,,,,,,,,,,,,,,,,,,,,,,,,,,,,,,,,,,,,1,0,1,0,1,,,,,,,,,,,,,,
,0.006703949,-0.406300693,1,0,0,instr_done_button,,,,,,1,test,"In the next phase you will be presented with the words from the the first phase. Your job is to decide whether you remember seeing the word or not. If you remember seeing the word press ""old"" or type ""m"". If you do not remember seeing the word press ""new"" or type ""z"". Please press the space bar or click on continue to begin. ",,,5b0495e0b98c410001adb589,28,2022-02-12_14h27.28.291,lexical_decision_task_DD,2021.2.3,Linux armv8l,59.85156811,,,,,,,,,,,,,,,,,,,,,,,,,,,,,,,,,,,,,,,,,,,,,,,,,,,,,,,,,,,,,,,,2,0,2,0,1,,,,,,,,,,,,,,
,0.063476563,-0.403000217,1,0,0,instr_done_button,,,,,,1,test,"In the next phase you will be presented with the words from the the first phase. Your job is to decide whether you remember seeing the word or not. If you remember seeing the word press ""old"" or type ""m"". If you do not remember seeing the word press ""new"" or type ""z"". Please press the space bar or click on continue to begin. ",,,5b0495e0b98c410001adb589,28,2022-02-12_14h27.28.291,lexical_decision_task_DD,2021.2.3,Linux armv8l,59.85156811,,,,,,,,,,,,,,,,,,,,,,,,,,,,,,,,,,,,,,,,,,,,,,,,,,,,,,,,,,,,,,,,3,0,3,0,1,,,,,,,,,,,,,,
,0.072998047,-0.398876953,1,0,0,instr_done_button,,,,,,1,test,"In the next phase you will be presented with the words from the the first phase. Your job is to decide whether you remember seeing the word or not. If you remember seeing the word press ""old"" or type ""m"". If you do not remember seeing the word press ""new"" or type ""z"". Please press the space bar or click on continue to begin. ",,,5b0495e0b98c410001adb589,28,2022-02-12_14h27.28.291,lexical_decision_task_DD,2021.2.3,Linux armv8l,59.85156811,,,,,,,,,,,,,,,,,,,,,,,,,,,,,,,,,,,,,,,,,,,,,,,,,,,,,,,,,,,,,,,,4,0,4,0,1,,,,,,,,,,,,,,
,,,,,,,,,,,,,,,,,5b0495e0b98c410001adb589,28,2022-02-12_14h27.28.291,lexical_decision_task_DD,2021.2.3,Linux armv8l,59.85156811,,,,,,,,,,1.4097,1,,,,,,,,,,,,,,,,,,,,,,,0.361572266,-0.329296875,1,0,0,,,,,,,LITTER,C,m,m,./images/LITTER.png,,,,,,,,,,,,,,,,,,,,,0,0.361572266,-0.329296875,1,0,0,1.4097,button_right_test,0,0,0,78,1
,,,,,,,,,,,,,,,,,5b0495e0b98c410001adb589,28,2022-02-12_14h27.28.291,lexical_decision_task_DD,2021.2.3,Linux armv8l,59.85156811,,,,,,,,,,1.2106,1,,,,,,,,,,,,,,,,,,,,,,,-0.470048438,-0.305958896,1,0,0,,,,,,,BOXER,HB,z,m,./images/BOXERHB.png,,,,,,,,,,,,,,,,,,,,,0,-0.470048438,-0.305958896,1,0,0,1.2106,button_left_test,0,1,1,88,1
,,,,,,,,,,,,,,,,,5b0495e0b98c410001adb589,28,2022-02-12_14h27.28.291,lexical_decision_task_DD,2021.2.3,Linux armv8l,59.85156811,,,,,,,,,,1.1324,1,,,,,,,,,,,,,,,,,,,,,,,-0.498911285,-0.310109287,1,0,0,,,,,,,PISTOL,LB,z,m,./images/PISTOLLB.png,,,,,,,,,,,,,,,,,,,,,0,-0.498911285,-0.310109287,1,0,0,1.1324,button_left_test,0,2,2,113,1
,,,,,,,,,,,,,,,,,5b0495e0b98c410001adb589,28,2022-02-12_14h27.28.291,lexical_decision_task_DD,2021.2.3,Linux armv8l,59.85156811,,,,,,,,,,1.013,0,,,,,,,,,,,,,,,,,,,,,,,0.479848565,-0.306447177,1,0,0,,,,,,,CLOUD,LB,z,m,./images/CLOUDLB.png,,,,,,,,,,,,,,,,,,,,,0,0.479848565,-0.306447177,1,0,0,1.013,button_right_test,0,3,3,110,1
,,,,,,,,,,,,,,,,,5b0495e0b98c410001adb589,28,2022-02-12_14h27.28.291,lexical_decision_task_DD,2021.2.3,Linux armv8l,59.85156811,,,,,,,,,,0.879,1,,,,,,,,,,,,,,,,,,,,,,,0.495826213,-0.317921787,1,0,0,,,,,,,MELON,HB,m,m,./images/MELONHB.png,,,,,,,,,,,,,,,,,,,,,0,0.495826213,-0.317921787,1,0,0,0.879,button_right_test,0,4,4,22,1
,,,,,,,,,,,,,,,,,5b0495e0b98c410001adb589,28,2022-02-12_14h27.28.291,lexical_decision_task_DD,2021.2.3,Linux armv8l,59.85156811,,,,,,,,,,0.6773,1,,,,,,,,,,,,,,,,,,,,,,,0.480879381,-0.318654209,1,0,0,,,,,,,SKIING,LB,m,m,./images/SKIINGLB.png,,,,,,,,,,,,,,,,,,,,,0,0.480879381,-0.318654209,1,0,0,0.6773,button_right_test,0,5,5,17,1
,,,,,,,,,,,,,,,,,5b0495e0b98c410001adb589,28,2022-02-12_14h27.28.291,lexical_decision_task_DD,2021.2.3,Linux armv8l,59.85156811,,,,,,,,,,0.8122,1,,,,,,,,,,,,,,,,,,,,,,,-0.477779558,-0.299122959,1,0,0,,,,,,,FERRY,C,z,m,./images/FERRY.png,,,,,,,,,,,,,,,,,,,,,0,-0.477779558,-0.299122959,1,0,0,0.8122,button_left_test,0,6,6,141,1
,,,,,,,,,,,,,,,,,5b0495e0b98c410001adb589,28,2022-02-12_14h27.28.291,lexical_decision_task_DD,2021.2.3,Linux armv8l,59.85156811,,,,,,,,,,0.7125,1,,,,,,,,,,,,,,,,,,,,,,,0.474694485,-0.313527256,1,0,0,,,,,,,DOUGH,HB,m,m,./images/DOUGHHB.png,,,,,,,,,,,,,,,,,,,,,0,0.474694485,-0.313527256,1,0,0,0.7125,button_right_test,0,7,7,19,1
,,,,,,,,,,,,,,,,,5b0495e0b98c410001adb589,28,2022-02-12_14h27.28.291,lexical_decision_task_DD,2021.2.3,Linux armv8l,59.85156811,,,,,,,,,,0.8788,1,,,,,,,,,,,,,,,,,,,,,,,-0.497365061,-0.298878818,1,0,0,,,,,,,PARADE,LB,z,m,./images/PARADELB.png,,,,,,,,,,,,,,,,,,,,,0,-0.497365061,-0.298878818,1,0,0,0.8788,button_left_test,0,8,8,101,1
,,,,,,,,,,,,,,,,,5b0495e0b98c410001adb589,28,2022-02-12_14h27.28.291,lexical_decision_task_DD,2021.2.3,Linux armv8l,59.85156811,,,,,,,,,,0.9593,1,,,,,,,,,,,,,,,,,,,,,,,-0.484479862,-0.301564365,1,0,0,,,,,,,WHEEL,LB,z,m,./images/WHEELLB.png,,,,,,,,,,,,,,,,,,,,,0,-0.484479862,-0.301564365,1,0,0,0.9593,button_left_test,0,9,9,161,1
,,,,,,,,,,,,,,,,,5b0495e0b98c410001adb589,28,2022-02-12_14h27.28.291,lexical_decision_task_DD,2021.2.3,Linux armv8l,59.85156811,,,,,,,,,,0.8995,1,,,,,,,,,,,,,,,,,,,,,,,0.490156725,-0.311818271,1,0,0,,,,,,,CRUST,HB,m,m,./images/CRUSTHB.png,,,,,,,,,,,,,,,,,,,,,0,0.490156725,-0.311818271,1,0,0,0.8995,button_right_test,0,10,10,79,1
,,,,,,,,,,,,,,,,,5b0495e0b98c410001adb589,28,2022-02-12_14h27.28.291,lexical_decision_task_DD,2021.2.3,Linux armv8l,59.85156811,,,,,,,,,,0.6577,1,,,,,,,,,,,,,,,,,,,,,,,0.478817749,-0.323292881,1,0,0,,,,,,,WALRUS,LB,m,m,./images/WALRUSLB.png,,,,,,,,,,,,,,,,,,,,,0,0.478817749,-0.323292881,1,0,0,0.6577,button_right_test,0,11,11,23,1
,,,,,,,,,,,,,,,,,5b0495e0b98c410001adb589,28,2022-02-12_14h27.28.291,lexical_decision_task_DD,2021.2.3,Linux armv8l,59.85156811,,,,,,,,,,0.6301,1,,,,,,,,,,,,,,,,,,,,,,,0.480879381,-0.322804599,1,0,0,,,,,,,ONION,C,m,m,./images/ONION.png,,,,,,,,,,,,,,,,,,,,,0,0.480879381,-0.322804599,1,0,0,0.6301,button_right_test,0,12,12,51,1
,,,,,,,,,,,,,,,,,5b0495e0b98c410001adb589,28,2022-02-12_14h27.28.291,lexical_decision_task_DD,2021.2.3,Linux armv8l,59.85156811,,,,,,,,,,0.9765,1,,,,,,,,,,,,,,,,,,,,,,,-0.500972917,-0.290578037,1,0,0,,,,,,,GRAPE,HB,z,m,./images/GRAPEHB.png,,,,,,,,,,,,,,,,,,,,,0,-0.500972917,-0.290578037,1,0,0,0.9765,button_left_test,0,13,13,100,1
,,,,,,,,,,,,,,,,,5b0495e0b98c410001adb589,28,2022-02-12_14h27.28.291,lexical_decision_task_DD,2021.2.3,Linux armv8l,59.85156811,,,,,,,,,,1.0116,0,,,,,,,,,,,,,,,,,,,,,,,-0.516435157,-0.30351749,1,0,0,,,,,,,THROAT,C,m,m,./images/THROAT.png,,,,,,,,,,,,,,,,,,,,,0,-0.516435157,-0.30351749,1,0,0,1.0116,button_left_test,0,14,14,36,1
,,,,,,,,,,,,,,,,,5b0495e0b98c410001adb589,28,2022-02-12_14h27.28.291,lexical_decision_task_DD,2021.2.3,Linux armv8l,59.85156811,,,,,,,,,,0.9428,0,,,,,,,,,,,,,,,,,,,,,,,-0.502519141,-0.303273349,1,0,0,,,,,,,FOLDER,C,m,m,./images/FOLDER.png,,,,,,,,,,,,,,,,,,,,,0,-0.502519141,-0.303273349,1,0,0,0.9428,button_left_test,0,15,15,42,1
,,,,,,,,,,,,,,,,,5b0495e0b98c410001adb589,28,2022-02-12_14h27.28.291,lexical_decision_task_DD,2021.2.3,Linux armv8l,59.85156811,,,,,,,,,,0.6928,1,,,,,,,,,,,,,,,,,,,,,,,0.478817749,-0.318410068,1,0,0,,,,,,,FARMER,LB,m,m,./images/FARMERLB.png,,,,,,,,,,,,,,,,,,,,,0,0.478817749,-0.318410068,1,0,0,0.6928,button_right_test,0,16,16,65,1
,,,,,,,,,,,,,,,,,5b0495e0b98c410001adb589,28,2022-02-12_14h27.28.291,lexical_decision_task_DD,2021.2.3,Linux armv8l,59.85156811,,,,,,,,,,0.7578,1,,,,,,,,,,,,,,,,,,,,,,,0.489641317,-0.318654209,1,0,0,,,,,,,BIRTH,HB,m,m,./images/BIRTHHB.png,,,,,,,,,,,,,,,,,,,,,0,0.489641317,-0.318654209,1,0,0,0.7578,button_right_test,0,17,17,37,1
,,,,,,,,,,,,,,,,,5b0495e0b98c410001adb589,28,2022-02-12_14h27.28.291,lexical_decision_task_DD,2021.2.3,Linux armv8l,59.85156811,,,,,,,,,,0.8566,1,,,,,,,,,,,,,,,,,,,,,,,-0.496849653,-0.289601474,1,0,0,,,,,,,RAZOR,HB,z,m,./images/RAZORHB.png,,,,,,,,,,,,,,,,,,,,,0,-0.496849653,-0.289601474,1,0,0,0.8566,button_left_test,0,18,18,118,1
,,,,,,,,,,,,,,,,,5b0495e0b98c410001adb589,28,2022-02-12_14h27.28.291,lexical_decision_task_DD,2021.2.3,Linux armv8l,59.85156811,,,,,,,,,,0.8661,0,,,,,,,,,,,,,,,,,,,,,,,0.460263062,-0.329396396,1,0,0,,,,,,,PEBBLE,HB,z,m,./images/PEBBLEHB.png,,,,,,,,,,,,,,,,,,,,,0,0.460263062,-0.329396396,1,0,0,0.8661,button_right_test,0,19,19,166,1
,,,,,,,,,,,,,,,,,5b0495e0b98c410001adb589,28,2022-02-12_14h27.28.291,lexical_decision_task_DD,2021.2.3,Linux armv8l,59.85156811,,,,,,,,,,0.6355,1,,,,,,,,,,,,,,,,,,,,,,,0.465932549,-0.316456943,1,0,0,,,,,,,PEARL,HB,m,m,./images/PEARLHB.png,,,,,,,,,,,,,,,,,,,,,0,0.465932549,-0.316456943,1,0,0,0.6355,button_right_test,0,20,20,46,1
,,,,,,,,,,,,,,,,,5b0495e0b98c410001adb589,28,2022-02-12_14h27.28.291,lexical_decision_task_DD,2021.2.3,Linux armv8l,59.85156811,,,,,,,,,,0.8265,1,,,,,,,,,,,,,,,,,,,,,,,-0.502519141,-0.283009677,1,0,0,,,,,,,MAMMAL,LB,z,m,./images/MAMMALLB.png,,,,,,,,,,,,,,,,,,,,,0,-0.502519141,-0.283009677,1,0,0,0.8265,button_left_test,0,21,21,146,1
,,,,,,,,,,,,,,,,,5b0495e0b98c410001adb589,28,2022-02-12_14h27.28.291,lexical_decision_task_DD,2021.2.3,Linux armv8l,59.85156811,,,,,,,,,,0.91,0,,,,,,,,,,,,,,,,,,,,,,,0.469540405,-0.309132724,1,0,0,,,,,,,PILOT,LB,z,m,./images/PILOTLB.png,,,,,,,,,,,,,,,,,,,,,0,0.469540405,-0.309132724,1,0,0,0.91,button_right_test,0,22,22,134,1
,,,,,,,,,,,,,,,,,5b0495e0b98c410001adb589,28,2022-02-12_14h27.28.291,lexical_decision_task_DD,2021.2.3,Linux armv8l,59.85156811,,,,,,,,,,0.6683,1,,,,,,,,,,,,,,,,,,,,,,,0.464386325,-0.319630771,1,0,0,,,,,,,BEARD,LB,m,m,./images/BEARDLB.png,,,,,,,,,,,,,,,,,,,,,0,0.464386325,-0.319630771,1,0,0,0.6683,button_right_test,0,23,23,2,1
,,,,,,,,,,,,,,,,,5b0495e0b98c410001adb589,28,2022-02-12_14h27.28.291,lexical_decision_task_DD,2021.2.3,Linux armv8l,59.85156811,,,,,,,,,,0.749,1,,,,,,,,,,,,,,,,,,,,,,,0.449439494,-0.324757724,1,0,0,,,,,,,CRADLE,LB,m,m,./images/CRADLELB.png,,,,,,,,,,,,,,,,,,,,,0,0.449439494,-0.324757724,1,0,0,0.749,button_right_test,0,24,24,20,1
,,,,,,,,,,,,,,,,,5b0495e0b98c410001adb589,28,2022-02-12_14h27.28.291,lexical_decision_task_DD,2021.2.3,Linux armv8l,59.85156811,,,,,,,,,,0.6622,1,,,,,,,,,,,,,,,,,,,,,,,-0.501488325,-0.296437412,1,0,0,,,,,,,VALLEY,LB,z,m,./images/VALLEYLB.png,,,,,,,,,,,,,,,,,,,,,0,-0.501488325,-0.296437412,1,0,0,0.6622,button_left_test,0,25,25,152,1
,,,,,,,,,,,,,,,,,5b0495e0b98c410001adb589,28,2022-02-12_14h27.28.291,lexical_decision_task_DD,2021.2.3,Linux armv8l,59.85156811,,,,,,,,,,0.7007,1,,,,,,,,,,,,,,,,,,,,,,,0.442223782,-0.311085849,1,0,0,,,,,,,PASTA,LB,m,m,./images/PASTALB.png,,,,,,,,,,,,,,,,,,,,,0,0.442223782,-0.311085849,1,0,0,0.7007,button_right_test,0,26,26,5,1
,,,,,,,,,,,,,,,,,5b0495e0b98c410001adb589,28,2022-02-12_14h27.28.291,lexical_decision_task_DD,2021.2.3,Linux armv8l,59.85156811,,,,,,,,,,0.6452,1,,,,,,,,,,,,,,,,,,,,,,,0.448408678,-0.322072177,1,0,0,,,,,,,MAGGOT,C,m,m,./images/MAGGOT.png,,,,,,,,,,,,,,,,,,,,,0,0.448408678,-0.322072177,1,0,0,0.6452,button_right_test,0,27,27,33,1
,,,,,,,,,,,,,,,,,5b0495e0b98c410001adb589,28,2022-02-12_14h27.28.291,lexical_decision_task_DD,2021.2.3,Linux armv8l,59.85156811,,,,,,,,,,0.8094,1,,,,,,,,,,,,,,,,,,,,,,,0.482941013,-0.330372959,1,0,0,,,,,,,TORCH,LB,m,m,./images/TORCHLB.png,,,,,,,,,,,,,,,,,,,,,0,0.482941013,-0.330372959,1,0,0,0.8094,button_right_test,0,28,28,68,1
,,,,,,,,,,,,,,,,,5b0495e0b98c410001adb589,28,2022-02-12_14h27.28.291,lexical_decision_task_DD,2021.2.3,Linux armv8l,59.85156811,,,,,,,,,,0.892,1,,,,,,,,,,,,,,,,,,,,,,,-0.487056902,-0.301320224,1,0,0,,,,,,,GARDEN,HB,z,m,./images/GARDENHB.png,,,,,,,,,,,,,,,,,,,,,0,-0.487056902,-0.301320224,1,0,0,0.892,button_left_test,0,29,29,94,1
,,,,,,,,,,,,,,,,,5b0495e0b98c410001adb589,28,2022-02-12_14h27.28.291,lexical_decision_task_DD,2021.2.3,Linux armv8l,59.85156811,,,,,,,,,,0.7259,1,,,,,,,,,,,,,,,,,,,,,,,0.52211202,-0.305714756,1,0,0,,,,,,,BURIAL,LB,m,m,./images/BURIALLB.png,,,,,,,,,,,,,,,,,,,,,0,0.52211202,-0.305714756,1,0,0,0.7259,button_right_test,0,30,30,59,1
,,,,,,,,,,,,,,,,,5b0495e0b98c410001adb589,28,2022-02-12_14h27.28.291,lexical_decision_task_DD,2021.2.3,Linux armv8l,59.85156811,,,,,,,,,,0.6121,1,,,,,,,,,,,,,,,,,,,,,,,0.519019572,-0.318165927,1,0,0,,,,,,,PAINT,HB,m,m,./images/PAINTHB.png,,,,,,,,,,,,,,,,,,,,,0,0.519019572,-0.318165927,1,0,0,0.6121,button_right_test,0,31,31,7,1
,,,,,,,,,,,,,,,,,5b0495e0b98c410001adb589,28,2022-02-12_14h27.28.291,lexical_decision_task_DD,2021.2.3,Linux armv8l,59.85156811,,,,,,,,,,0.767,1,,,,,,,,,,,,,,,,,,,,,,,-0.516950565,-0.285451084,1,0,0,,,,,,,CASINO,HB,z,m,./images/CASINOHB.png,,,,,,,,,,,,,,,,,,,,,0,-0.516950565,-0.285451084,1,0,0,0.767,button_left_test,0,32,32,112,1
,,,,,,,,,,,,,,,,,5b0495e0b98c410001adb589,28,2022-02-12_14h27.28.291,lexical_decision_task_DD,2021.2.3,Linux armv8l,59.85156811,,,,,,,,,,0.6102,1,,,,,,,,,,,,,,,,,,,,,,,0.518504164,-0.319874912,1,0,0,,,,,,,MIRROR,C,m,m,./images/MIRROR.png,,,,,,,,,,,,,,,,,,,,,0,0.518504164,-0.319874912,1,0,0,0.6102,button_right_test,0,33,33,63,1
,,,,,,,,,,,,,,,,,5b0495e0b98c410001adb589,28,2022-02-12_14h27.28.291,lexical_decision_task_DD,2021.2.3,Linux armv8l,59.85156811,,,,,,,,,,0.8967,1,,,,,,,,,,,,,,,,,,,,,,,0.51180386,-0.326466709,1,0,0,,,,,,,GRAIN,C,m,m,./images/GRAIN.png,,,,,,,,,,,,,,,,,,,,,0,0.51180386,-0.326466709,1,0,0,0.8967,button_right_test,0,34,34,75,1
,,,,,,,,,,,,,,,,,5b0495e0b98c410001adb589,28,2022-02-12_14h27.28.291,lexical_decision_task_DD,2021.2.3,Linux armv8l,59.85156811,,,,,,,,,,0.7899,1,,,,,,,,,,,,,,,,,,,,,,,-0.500457509,-0.292287021,1,0,0,,,,,,,POSTER,LB,z,m,./images/POSTERLB.png,,,,,,,,,,,,,,,,,,,,,0,-0.500457509,-0.292287021,1,0,0,0.7899,button_left_test,0,35,35,137,1
,,,,,,,,,,,,,,,,,5b0495e0b98c410001adb589,28,2022-02-12_14h27.28.291,lexical_decision_task_DD,2021.2.3,Linux armv8l,59.85156811,,,,,,,,,,1.1412,0,,,,,,,,,,,,,,,,,,,,,,,0.528812324,-0.314259677,1,0,0,,,,,,,CLOWN,HB,z,m,./images/CLOWNHB.png,,,,,,,,,,,,,,,,,,,,,0,0.528812324,-0.314259677,1,0,0,1.1412,button_right_test,0,36,36,106,1
,,,,,,,,,,,,,,,,,5b0495e0b98c410001adb589,28,2022-02-12_14h27.28.291,lexical_decision_task_DD,2021.2.3,Linux armv8l,59.85156811,,,,,,,,,,1.0145,1,,,,,,,,,,,,,,,,,,,,,,,-0.504580773,-0.298390537,1,0,0,,,,,,,BAMBOO,LB,z,m,./images/BAMBOOLB.png,,,,,,,,,,,,,,,,,,,,,0,-0.504580773,-0.298390537,1,0,0,1.0145,button_left_test,0,37,37,89,1
,,,,,,,,,,,,,,,,,5b0495e0b98c410001adb589,28,2022-02-12_14h27.28.291,lexical_decision_task_DD,2021.2.3,Linux armv8l,59.85156811,,,,,,,,,,0.9937,1,,,,,,,,,,,,,,,,,,,,,,,-0.502003733,-0.291554599,1,0,0,,,,,,,MEDAL,LB,z,m,./images/MEDALLB.png,,,,,,,,,,,,,,,,,,,,,0,-0.502003733,-0.291554599,1,0,0,0.9937,button_left_test,0,38,38,95,1
,,,,,,,,,,,,,,,,,5b0495e0b98c410001adb589,28,2022-02-12_14h27.28.291,lexical_decision_task_DD,2021.2.3,Linux armv8l,59.85156811,,,,,,,,,,0.8448,0,,,,,,,,,,,,,,,,,,,,,,,0.52984314,-0.320607334,1,0,0,,,,,,,BASKET,LB,z,m,./images/BASKETLB.png,,,,,,,,,,,,,,,,,,,,,0,0.52984314,-0.320607334,1,0,0,0.8448,button_right_test,0,39,39,128,1
,,,,,,,,,,,,,,,,,5b0495e0b98c410001adb589,28,2022-02-12_14h27.28.291,lexical_decision_task_DD,2021.2.3,Linux armv8l,59.85156811,,,,,,,,,,0.8494,0,,,,,,,,,,,,,,,,,,,,,,,0.511288452,-0.321339756,1,0,0,,,,,,,SHIELD,C,z,m,./images/SHIELD.png,,,,,,,,,,,,,,,,,,,,,0,0.511288452,-0.321339756,1,0,0,0.8494,button_right_test,0,40,40,132,1
,,,,,,,,,,,,,,,,,5b0495e0b98c410001adb589,28,2022-02-12_14h27.28.291,lexical_decision_task_DD,2021.2.3,Linux armv8l,59.85156811,,,,,,,,,,0.7805,0,,,,,,,,,,,,,,,,,,,,,,,0.130917274,-0.388722568,1,0,0,,,,,,,SUNSET,HB,m,m,./images/SUNSETHB.png,break_done_button,,,,,,,,,,,,,,,,,,,,0,-0.528289541,-0.294484287,1,0,0,0.7805,button_left_test,0,41,41,82,1
,,,,,,,,,,,,,,,,,5b0495e0b98c410001adb589,28,2022-02-12_14h27.28.291,lexical_decision_task_DD,2021.2.3,Linux armv8l,59.85156811,,,,,,,,,,0.7753,1,,,,,,,,,,,,,,,,,,,,,,,0.503557332,-0.329396396,1,0,0,,,,,,,BANNER,HB,m,m,./images/BANNERHB.png,,,,,,,,,,,,,,,,,,,,,0,0.503557332,-0.329396396,1,0,0,0.7753,button_right_test,0,42,42,52,1
,,,,,,,,,,,,,,,,,5b0495e0b98c410001adb589,28,2022-02-12_14h27.28.291,lexical_decision_task_DD,2021.2.3,Linux armv8l,59.85156811,,,,,,,,,,0.7794,1,,,,,,,,,,,,,,,,,,,,,,,0.498403252,-0.314747959,1,0,0,,,,,,,BELLY,HB,m,m,./images/BELLYHB.png,,,,,,,,,,,,,,,,,,,,,0,0.498403252,-0.314747959,1,0,0,0.7794,button_right_test,0,43,43,10,1
,,,,,,,,,,,,,,,,,5b0495e0b98c410001adb589,28,2022-02-12_14h27.28.291,lexical_decision_task_DD,2021.2.3,Linux armv8l,59.85156811,,,,,,,,,,0.7013,1,,,,,,,,,,,,,,,,,,,,,,,0.497372437,-0.314503818,1,0,0,,,,,,,POODLE,C,m,m,./images/POODLE.png,,,,,,,,,,,,,,,,,,,,,0,0.497372437,-0.314503818,1,0,0,0.7013,button_right_test,0,44,44,81,1
,,,,,,,,,,,,,,,,,5b0495e0b98c410001adb589,28,2022-02-12_14h27.28.291,lexical_decision_task_DD,2021.2.3,Linux armv8l,59.85156811,,,,,,,,,,0.998,1,,,,,,,,,,,,,,,,,,,,,,,-0.520043013,-0.293996006,1,0,0,,,,,,,ENGINE,LB,z,m,./images/ENGINELB.png,,,,,,,,,,,,,,,,,,,,,0,-0.520043013,-0.293996006,1,0,0,0.998,button_left_test,0,45,45,122,1
,,,,,,,,,,,,,,,,,5b0495e0b98c410001adb589,28,2022-02-12_14h27.28.291,lexical_decision_task_DD,2021.2.3,Linux armv8l,59.85156811,,,,,,,,,,0.7103,1,,,,,,,,,,,,,,,,,,,,,,,-0.514373525,-0.281788974,1,0,0,,,,,,,CHALK,HB,z,m,./images/CHALKHB.png,,,,,,,,,,,,,,,,,,,,,0,-0.514373525,-0.281788974,1,0,0,0.7103,button_left_test,0,46,46,109,1
,,,,,,,,,,,,,,,,,5b0495e0b98c410001adb589,28,2022-02-12_14h27.28.291,lexical_decision_task_DD,2021.2.3,Linux armv8l,59.85156811,,,,,,,,,,0.8121,1,,,,,,,,,,,,,,,,,,,,,,,-0.528289541,-0.288624912,1,0,0,,,,,,,LLAMA,LB,z,m,./images/LLAMALB.png,,,,,,,,,,,,,,,,,,,,,0,-0.528289541,-0.288624912,1,0,0,0.8121,button_left_test,0,47,47,119,1
,,,,,,,,,,,,,,,,,5b0495e0b98c410001adb589,28,2022-02-12_14h27.28.291,lexical_decision_task_DD,2021.2.3,Linux armv8l,59.85156811,,,,,,,,,,0.7661,1,,,,,,,,,,,,,,,,,,,,,,,-0.540659332,-0.276417881,1,0,0,,,,,,,GRANNY,LB,z,m,./images/GRANNYLB.png,,,,,,,,,,,,,,,,,,,,,0,-0.540659332,-0.276417881,1,0,0,0.7661,button_left_test,0,48,48,104,1
,,,,,,,,,,,,,,,,,5b0495e0b98c410001adb589,28,2022-02-12_14h27.28.291,lexical_decision_task_DD,2021.2.3,Linux armv8l,59.85156811,,,,,,,,,,0.9454,1,,,,,,,,,,,,,,,,,,,,,,,0.475209893,-0.321583896,1,0,0,,,,,,,QUILL,HB,m,m,./images/QUILLHB.png,,,,,,,,,,,,,,,,,,,,,0,0.475209893,-0.321583896,1,0,0,0.9454,button_right_test,0,49,49,31,1
,,,,,,,,,,,,,,,,,5b0495e0b98c410001adb589,28,2022-02-12_14h27.28.291,lexical_decision_task_DD,2021.2.3,Linux armv8l,59.85156811,,,,,,,,,,0.6627,1,,,,,,,,,,,,,,,,,,,,,,,-0.526227909,-0.300099521,1,0,0,,,,,,,SAUNA,C,z,m,./images/SAUNA.png,,,,,,,,,,,,,,,,,,,,,0,-0.526227909,-0.300099521,1,0,0,0.6627,button_left_test,0,50,50,117,1
,,,,,,,,,,,,,,,,,5b0495e0b98c410001adb589,28,2022-02-12_14h27.28.291,lexical_decision_task_DD,2021.2.3,Linux armv8l,59.85156811,,,,,,,,,,0.7088,1,,,,,,,,,,,,,,,,,,,,,,,0.502526516,-0.315480381,1,0,0,,,,,,,BARREL,LB,m,m,./images/BARRELLB.png,,,,,,,,,,,,,,,,,,,,,0,0.502526516,-0.315480381,1,0,0,0.7088,button_right_test,0,51,51,32,1
,,,,,,,,,,,,,,,,,5b0495e0b98c410001adb589,28,2022-02-12_14h27.28.291,lexical_decision_task_DD,2021.2.3,Linux armv8l,59.85156811,,,,,,,,,,0.712,1,,,,,,,,,,,,,,,,,,,,,,,-0.528804949,-0.295460849,1,0,0,,,,,,,CLOTH,LB,z,m,./images/CLOTHLB.png,,,,,,,,,,,,,,,,,,,,,0,-0.528804949,-0.295460849,1,0,0,0.712,button_left_test,0,52,52,107,1
,,,,,,,,,,,,,,,,,5b0495e0b98c410001adb589,28,2022-02-12_14h27.28.291,lexical_decision_task_DD,2021.2.3,Linux armv8l,59.85156811,,,,,,,,,,0.7608,0,,,,,,,,,,,,,,,,,,,,,,,-0.530866581,-0.294484287,1,0,0,,,,,,,KIDNEY,C,m,m,./images/KIDNEY.png,,,,,,,,,,,,,,,,,,,,,0,-0.530866581,-0.294484287,1,0,0,0.7608,button_left_test,0,53,53,21,1
,,,,,,,,,,,,,,,,,5b0495e0b98c410001adb589,28,2022-02-12_14h27.28.291,lexical_decision_task_DD,2021.2.3,Linux armv8l,59.85156811,,,,,,,,,,0.5984,1,,,,,,,,,,,,,,,,,,,,,,,-0.543236372,-0.293263584,1,0,0,,,,,,,LAGOON,LB,z,m,./images/LAGOONLB.png,,,,,,,,,,,,,,,,,,,,,0,-0.543236372,-0.293263584,1,0,0,0.5984,button_left_test,0,54,54,131,1
,,,,,,,,,,,,,,,,,5b0495e0b98c410001adb589,28,2022-02-12_14h27.28.291,lexical_decision_task_DD,2021.2.3,Linux armv8l,59.85156811,,,,,,,,,,0.8,1,,,,,,,,,,,,,,,,,,,,,,,-0.563337284,-0.28789249,1,0,0,,,,,,,STOOL,HB,z,m,./images/STOOLHB.png,,,,,,,,,,,,,,,,,,,,,0,-0.563337284,-0.28789249,1,0,0,0.8,button_left_test,0,55,55,127,1
,,,,,,,,,,,,,,,,,5b0495e0b98c410001adb589,28,2022-02-12_14h27.28.291,lexical_decision_task_DD,2021.2.3,Linux armv8l,59.85156811,,,,,,,,,,0.6991,0,,,,,,,,,,,,,,,,,,,,,,,-0.558183204,-0.281544834,1,0,0,,,,,,,TULIP,LB,m,m,./images/TULIPLB.png,,,,,,,,,,,,,,,,,,,,,0,-0.558183204,-0.281544834,1,0,0,0.6991,button_left_test,0,56,56,8,1
,,,,,,,,,,,,,,,,,5b0495e0b98c410001adb589,28,2022-02-12_14h27.28.291,lexical_decision_task_DD,2021.2.3,Linux armv8l,59.85156811,,,,,,,,,,0.7676,0,,,,,,,,,,,,,,,,,,,,,,,0.494795397,-0.317433506,1,0,0,,,,,,,POKER,HB,z,m,./images/POKERHB.png,,,,,,,,,,,,,,,,,,,,,0,0.494795397,-0.317433506,1,0,0,0.7676,button_right_test,0,57,57,151,1
,,,,,,,,,,,,,,,,,5b0495e0b98c410001adb589,28,2022-02-12_14h27.28.291,lexical_decision_task_DD,2021.2.3,Linux armv8l,59.85156811,,,,,,,,,,0.6922,1,,,,,,,,,,,,,,,,,,,,,,,0.497887845,-0.315968662,1,0,0,,,,,,,MUFFIN,HB,m,m,./images/MUFFINHB.png,,,,,,,,,,,,,,,,,,,,,0,0.497887845,-0.315968662,1,0,0,0.6922,button_right_test,0,58,58,55,1
,,,,,,,,,,,,,,,,,5b0495e0b98c410001adb589,28,2022-02-12_14h27.28.291,lexical_decision_task_DD,2021.2.3,Linux armv8l,59.85156811,,,,,,,,,,0.6741,0,,,,,,,,,,,,,,,,,,,,,,,-0.557667796,-0.290578037,1,0,0,,,,,,,SPORT,C,m,m,./images/SPORT.png,,,,,,,,,,,,,,,,,,,,,0,-0.557667796,-0.290578037,1,0,0,0.6741,button_left_test,0,59,59,48,1
,,,,,,,,,,,,,,,,,5b0495e0b98c410001adb589,28,2022-02-12_14h27.28.291,lexical_decision_task_DD,2021.2.3,Linux armv8l,59.85156811,,,,,,,,,,0.7604,1,,,,,,,,,,,,,,,,,,,,,,,0.493249173,-0.312794834,1,0,0,,,,,,,FINGER,C,m,m,./images/FINGER.png,,,,,,,,,,,,,,,,,,,,,0,0.493249173,-0.312794834,1,0,0,0.7604,button_right_test,0,60,60,3,1
,,,,,,,,,,,,,,,,,5b0495e0b98c410001adb589,28,2022-02-12_14h27.28.291,lexical_decision_task_DD,2021.2.3,Linux armv8l,59.85156811,,,,,,,,,,1.0857,0,,,,,,,,,,,,,,,,,,,,,,,0.513350084,-0.308400302,1,0,0,,,,,,,CHAIN,C,z,m,./images/CHAIN.png,,,,,,,,,,,,,,,,,,,,,0,0.513350084,-0.308400302,1,0,0,1.0857,button_right_test,0,61,61,126,1
,,,,,,,,,,,,,,,,,5b0495e0b98c410001adb589,28,2022-02-12_14h27.28.291,lexical_decision_task_DD,2021.2.3,Linux armv8l,59.85156811,,,,,,,,,,0.9183,1,,,,,,,,,,,,,,,,,,,,,,,-0.552513716,-0.283009677,1,0,0,,,,,,,HEATER,LB,z,m,./images/HEATERLB.png,,,,,,,,,,,,,,,,,,,,,0,-0.552513716,-0.283009677,1,0,0,0.9183,button_left_test,0,62,62,140,1
,,,,,,,,,,,,,,,,,5b0495e0b98c410001adb589,28,2022-02-12_14h27.28.291,lexical_decision_task_DD,2021.2.3,Linux armv8l,59.85156811,,,,,,,,,,0.7679,0,,,,,,,,,,,,,,,,,,,,,,,-0.560244836,-0.28789249,1,0,0,,,,,,,COOKER,C,m,m,./images/COOKER.png,,,,,,,,,,,,,,,,,,,,,0,-0.560244836,-0.28789249,1,0,0,0.7679,button_left_test,0,63,63,69,1
,,,,,,,,,,,,,,,,,5b0495e0b98c410001adb589,28,2022-02-12_14h27.28.291,lexical_decision_task_DD,2021.2.3,Linux armv8l,59.85156811,,,,,,,,,,0.6527,1,,,,,,,,,,,,,,,,,,,,,,,0.51180386,-0.306935459,1,0,0,,,,,,,DRUMS,HB,m,m,./images/DRUMSHB.png,,,,,,,,,,,,,,,,,,,,,0,0.51180386,-0.306935459,1,0,0,0.6527,button_right_test,0,64,64,49,1
,,,,,,,,,,,,,,,,,5b0495e0b98c410001adb589,28,2022-02-12_14h27.28.291,lexical_decision_task_DD,2021.2.3,Linux armv8l,59.85156811,,,,,,,,,,0.697,1,,,,,,,,,,,,,,,,,,,,,,,-0.554575348,-0.291066318,1,0,0,,,,,,,BRIDE,HB,z,m,./images/BRIDEHB.png,,,,,,,,,,,,,,,,,,,,,0,-0.554575348,-0.291066318,1,0,0,0.697,button_left_test,0,65,65,148,1
,,,,,,,,,,,,,,,,,5b0495e0b98c410001adb589,28,2022-02-12_14h27.28.291,lexical_decision_task_DD,2021.2.3,Linux armv8l,59.85156811,,,,,,,,,,0.7685,1,,,,,,,,,,,,,,,,,,,,,,,0.51180386,-0.317189365,1,0,0,,,,,,,CEMENT,LB,m,m,./images/CEMENTLB.png,,,,,,,,,,,,,,,,,,,,,0,0.51180386,-0.317189365,1,0,0,0.7685,button_right_test,0,66,66,74,1
,,,,,,,,,,,,,,,,,5b0495e0b98c410001adb589,28,2022-02-12_14h27.28.291,lexical_decision_task_DD,2021.2.3,Linux armv8l,59.85156811,,,,,,,,,,0.8467,1,,,,,,,,,,,,,,,,,,,,,,,0.512834676,-0.305958896,1,0,0,,,,,,,TOMATO,C,m,m,./images/TOMATO.png,,,,,,,,,,,,,,,,,,,,,0,0.512834676,-0.305958896,1,0,0,0.8467,button_right_test,0,67,67,0,1
,,,,,,,,,,,,,,,,,5b0495e0b98c410001adb589,28,2022-02-12_14h27.28.291,lexical_decision_task_DD,2021.2.3,Linux armv8l,59.85156811,,,,,,,,,,0.7617,1,,,,,,,,,,,,,,,,,,,,,,,0.503041924,-0.310841709,1,0,0,,,,,,,PENCE,HB,m,m,./images/PENCEHB.png,,,,,,,,,,,,,,,,,,,,,0,0.503041924,-0.310841709,1,0,0,0.7617,button_right_test,0,68,68,16,1
,,,,,,,,,,,,,,,,,5b0495e0b98c410001adb589,28,2022-02-12_14h27.28.291,lexical_decision_task_DD,2021.2.3,Linux armv8l,59.85156811,,,,,,,,,,1.1771,1,,,,,,,,,,,,,,,,,,,,,,,0.528296916,-0.331349521,1,0,0,,,,,,,JELLY,HB,m,m,./images/JELLYHB.png,,,,,,,,,,,,,,,,,,,,,0,0.528296916,-0.331349521,1,0,0,1.1771,button_right_test,0,69,69,64,1
,,,,,,,,,,,,,,,,,5b0495e0b98c410001adb589,28,2022-02-12_14h27.28.291,lexical_decision_task_DD,2021.2.3,Linux armv8l,59.85156811,,,,,,,,,,0.65,1,,,,,,,,,,,,,,,,,,,,,,,0.51695794,-0.316701084,1,0,0,,,,,,,MOOSE,C,m,m,./images/MOOSE.png,,,,,,,,,,,,,,,,,,,,,0,0.51695794,-0.316701084,1,0,0,0.65,button_right_test,0,70,70,57,1
,,,,,,,,,,,,,,,,,5b0495e0b98c410001adb589,28,2022-02-12_14h27.28.291,lexical_decision_task_DD,2021.2.3,Linux armv8l,59.85156811,,,,,,,,,,0.8969,1,,,,,,,,,,,,,,,,,,,,,,,0.527781508,-0.320851474,1,0,0,,,,,,,ATTIC,C,m,m,./images/ATTIC.png,,,,,,,,,,,,,,,,,,,,,0,0.527781508,-0.320851474,1,0,0,0.8969,button_right_test,0,71,71,27,1
,,,,,,,,,,,,,,,,,5b0495e0b98c410001adb589,28,2022-02-12_14h27.28.291,lexical_decision_task_DD,2021.2.3,Linux armv8l,59.85156811,,,,,,,,,,0.6593,1,,,,,,,,,,,,,,,,,,,,,,,0.512834676,-0.310841709,1,0,0,,,,,,,PACKET,LB,m,m,./images/PACKETLB.png,,,,,,,,,,,,,,,,,,,,,0,0.512834676,-0.310841709,1,0,0,0.6593,button_right_test,0,72,72,56,1
,,,,,,,,,,,,,,,,,5b0495e0b98c410001adb589,28,2022-02-12_14h27.28.291,lexical_decision_task_DD,2021.2.3,Linux armv8l,59.85156811,,,,,,,,,,0.8816,1,,,,,,,,,,,,,,,,,,,,,,,-0.541690148,-0.302296787,1,0,0,,,,,,,ARTIST,HB,z,m,./images/ARTISTHB.png,,,,,,,,,,,,,,,,,,,,,0,-0.541690148,-0.302296787,1,0,0,0.8816,button_left_test,0,73,73,145,1
,,,,,,,,,,,,,,,,,5b0495e0b98c410001adb589,28,2022-02-12_14h27.28.291,lexical_decision_task_DD,2021.2.3,Linux armv8l,59.85156811,,,,,,,,,,0.6654,1,,,,,,,,,,,,,,,,,,,,,,,-0.557667796,-0.287160068,1,0,0,,,,,,,COLLAR,C,z,m,./images/COLLAR.png,,,,,,,,,,,,,,,,,,,,,0,-0.557667796,-0.287160068,1,0,0,0.6654,button_left_test,0,74,74,99,1
,,,,,,,,,,,,,,,,,5b0495e0b98c410001adb589,28,2022-02-12_14h27.28.291,lexical_decision_task_DD,2021.2.3,Linux armv8l,59.85156811,,,,,,,,,,0.6023,0,,,,,,,,,,,,,,,,,,,,,,,0.512319268,-0.321095615,1,0,0,,,,,,,SNAKE,HB,z,m,./images/SNAKEHB.png,,,,,,,,,,,,,,,,,,,,,0,0.512319268,-0.321095615,1,0,0,0.6023,button_right_test,0,75,75,124,1
,,,,,,,,,,,,,,,,,5b0495e0b98c410001adb589,28,2022-02-12_14h27.28.291,lexical_decision_task_DD,2021.2.3,Linux armv8l,59.85156811,,,,,,,,,,1.2338,1,,,,,,,,,,,,,,,,,,,,,,,0.514896308,-0.310353427,1,0,0,,,,,,,SHORE,C,m,m,./images/SHORE.png,,,,,,,,,,,,,,,,,,,,,0,0.514896308,-0.310353427,1,0,0,1.2338,button_right_test,0,76,76,12,1
,,,,,,,,,,,,,,,,,5b0495e0b98c410001adb589,28,2022-02-12_14h27.28.291,lexical_decision_task_DD,2021.2.3,Linux armv8l,59.85156811,,,,,,,,,,1.0026,1,,,,,,,,,,,,,,,,,,,,,,,0.510773044,-0.311574131,1,0,0,,,,,,,SWING,HB,m,m,./images/SWINGHB.png,,,,,,,,,,,,,,,,,,,,,0,0.510773044,-0.311574131,1,0,0,1.0026,button_right_test,0,77,77,40,1
,,,,,,,,,,,,,,,,,5b0495e0b98c410001adb589,28,2022-02-12_14h27.28.291,lexical_decision_task_DD,2021.2.3,Linux armv8l,59.85156811,,,,,,,,,,0.9481,1,,,,,,,,,,,,,,,,,,,,,,,-0.521589237,-0.29961124,1,0,0,,,,,,,BOILER,C,z,m,./images/BOILER.png,,,,,,,,,,,,,,,,,,,,,0,-0.521589237,-0.29961124,1,0,0,0.9481,button_left_test,0,78,78,120,1
,,,,,,,,,,,,,,,,,5b0495e0b98c410001adb589,28,2022-02-12_14h27.28.291,lexical_decision_task_DD,2021.2.3,Linux armv8l,59.85156811,,,,,,,,,,0.8588,1,,,,,,,,,,,,,,,,,,,,,,,-0.537051476,-0.285451084,1,0,0,,,,,,,PLANET,LB,z,m,./images/PLANETLB.png,,,,,,,,,,,,,,,,,,,,,0,-0.537051476,-0.285451084,1,0,0,0.8588,button_left_test,0,79,79,164,1
,,,,,,,,,,,,,,,,,5b0495e0b98c410001adb589,28,2022-02-12_14h27.28.291,lexical_decision_task_DD,2021.2.3,Linux armv8l,59.85156811,,,,,,,,,,0.735,1,,,,,,,,,,,,,,,,,,,,,,,-0.54890586,-0.285206943,1,0,0,,,,,,,BISHOP,HB,z,m,./images/BISHOPHB.png,,,,,,,,,,,,,,,,,,,,,0,-0.54890586,-0.285206943,1,0,0,0.735,button_left_test,0,80,80,133,1
,,,,,,,,,,,,,,,,,5b0495e0b98c410001adb589,28,2022-02-12_14h27.28.291,lexical_decision_task_DD,2021.2.3,Linux armv8l,59.85156811,,,,,,,,,,0.8669,1,,,,,,,,,,,,,,,,,,,,,,,0.499434068,-0.317921787,1,0,0,,,,,,,INFANT,HB,m,m,./images/INFANTHB.png,,,,,,,,,,,,,,,,,,,,,0,0.499434068,-0.317921787,1,0,0,0.8669,button_right_test,0,81,81,76,1
,,,,,,,,,,,,,,,,,5b0495e0b98c410001adb589,28,2022-02-12_14h27.28.291,lexical_decision_task_DD,2021.2.3,Linux armv8l,59.85156811,,,,,,,,,,0.8445,1,,,,,,,,,,,,,,,,,,,,,,,-0.539113108,-0.278615146,1,0,0,,,,,,,SAUCE,C,z,m,./images/SAUCE.png,,,,,,,,,,,,,,,,,,,,,0,-0.539113108,-0.278615146,1,0,0,0.8445,button_left_test,0,82,82,135,1
,,,,,,,,,,,,,,,,,5b0495e0b98c410001adb589,28,2022-02-12_14h27.28.291,lexical_decision_task_DD,2021.2.3,Linux armv8l,59.85156811,,,,,,,,,,1.0533,0,,,,,,,,,,,,,,,,,,,,,,,0.006188541,-0.394337802,1,0,0,,,,,,,PICKLE,LB,m,m,./images/PICKLELB.png,break_done_button,,,,,,,,,,,,,,,,,,,,0,-0.557667796,-0.262501865,1,0,0,1.0533,button_left_test,0,83,83,14,1
,,,,,,,,,,,,,,,,,5b0495e0b98c410001adb589,28,2022-02-12_14h27.28.291,lexical_decision_task_DD,2021.2.3,Linux armv8l,59.85156811,,,,,,,,,,0.8022,1,,,,,,,,,,,,,,,,,,,,,,,-0.491695574,-0.294484287,1,0,0,,,,,,,WALNUT,C,z,m,./images/WALNUT.png,,,,,,,,,,,,,,,,,,,,,0,-0.491695574,-0.294484287,1,0,0,0.8022,button_left_test,0,84,84,84,1
,,,,,,,,,,,,,,,,,5b0495e0b98c410001adb589,28,2022-02-12_14h27.28.291,lexical_decision_task_DD,2021.2.3,Linux armv8l,59.85156811,,,,,,,,,,0.8178,1,,,,,,,,,,,,,,,,,,,,,,,0.411299218,-0.308888584,1,0,0,,,,,,,CANDLE,HB,m,m,./images/CANDLEHB.png,,,,,,,,,,,,,,,,,,,,,0,0.411299218,-0.308888584,1,0,0,0.8178,button_right_test,0,85,85,61,1
,,,,,,,,,,,,,,,,,5b0495e0b98c410001adb589,28,2022-02-12_14h27.28.291,lexical_decision_task_DD,2021.2.3,Linux armv8l,59.85156811,,,,,,,,,,0.6166,0,,,,,,,,,,,,,,,,,,,,,,,0.433977254,-0.312794834,1,0,0,,,,,,,DONKEY,HB,z,m,./images/DONKEYHB.png,,,,,,,,,,,,,,,,,,,,,0,0.433977254,-0.312794834,1,0,0,0.6166,button_right_test,0,86,86,103,1
,,,,,,,,,,,,,,,,,5b0495e0b98c410001adb589,28,2022-02-12_14h27.28.291,lexical_decision_task_DD,2021.2.3,Linux armv8l,59.85156811,,,,,,,,,,0.7179,1,,,,,,,,,,,,,,,,,,,,,,,-0.474171702,-0.313038974,1,0,0,,,,,,,HOCKEY,LB,z,m,./images/HOCKEYLB.png,,,,,,,,,,,,,,,,,,,,,0,-0.474171702,-0.313038974,1,0,0,0.7179,button_left_test,0,87,87,116,1
,,,,,,,,,,,,,,,,,5b0495e0b98c410001adb589,28,2022-02-12_14h27.28.291,lexical_decision_task_DD,2021.2.3,Linux armv8l,59.85156811,,,,,,,,,,0.7627,1,,,,,,,,,,,,,,,,,,,,,,,-0.476748742,-0.304982334,1,0,0,,,,,,,DESERT,HB,z,m,./images/DESERTHB.png,,,,,,,,,,,,,,,,,,,,,0,-0.476748742,-0.304982334,1,0,0,0.7627,button_left_test,0,88,88,136,1
,,,,,,,,,,,,,,,,,5b0495e0b98c410001adb589,28,2022-02-12_14h27.28.291,lexical_decision_task_DD,2021.2.3,Linux armv8l,59.85156811,,,,,,,,,,0.7338,1,,,,,,,,,,,,,,,,,,,,,,,-0.498395877,-0.305958896,1,0,0,,,,,,,STOVE,LB,z,m,./images/STOVELB.png,,,,,,,,,,,,,,,,,,,,,0,-0.498395877,-0.305958896,1,0,0,0.7338,button_left_test,0,89,89,86,1
,,,,,,,,,,,,,,,,,5b0495e0b98c410001adb589,28,2022-02-12_14h27.28.291,lexical_decision_task_DD,2021.2.3,Linux armv8l,59.85156811,,,,,,,,,,0.6015,1,,,,,,,,,,,,,,,,,,,,,,,-0.490664758,-0.293996006,1,0,0,,,,,,,MONKEY,C,z,m,./images/MONKEY.png,,,,,,,,,,,,,,,,,,,,,0,-0.490664758,-0.293996006,1,0,0,0.6015,button_left_test,0,90,90,129,1
,,,,,,,,,,,,,,,,,5b0495e0b98c410001adb589,28,2022-02-12_14h27.28.291,lexical_decision_task_DD,2021.2.3,Linux armv8l,59.85156811,,,,,,,,,,0.9304,0,,,,,,,,,,,,,,,,,,,,,,,-0.491180166,-0.306447177,1,0,0,,,,,,,CANYON,HB,m,m,./images/CANYONHB.png,,,,,,,,,,,,,,,,,,,,,0,-0.491180166,-0.306447177,1,0,0,0.9304,button_left_test,0,91,91,34,1
