key_resp.keys,key_resp.rt,instr_done_touch.x,instr_done_touch.y,instr_done_touch.leftButton,instr_done_touch.midButton,instr_done_touch.rightButton,instruction_pages.thisRepN,instruction_pages.thisTrialN,instruction_pages.thisN,instruction_pages.thisIndex,instruction_pages.ran,pageN,phase,instruct_text,has_image,instruct_image,participant,age,date,expName,psychopyVersion,OS,frameRate,response.keys,response.corr,response.rt,touch_resp.x,touch_resp.y,touch_resp.leftButton,touch_resp.midButton,touch_resp.rightButton,touch_resp.time,touch_resp.clicked_name,rt,corr,practrials.thisRepN,practrials.thisTrialN,practrials.thisN,practrials.thisIndex,practrials.ran,TrialID,Target,corrAns,end_of_practice_trials_pages.thisRepN,end_of_practice_trials_pages.thisTrialN,end_of_practice_trials_pages.thisN,end_of_practice_trials_pages.thisIndex,end_of_practice_trials_pages.ran,key_resp_2.keys,key_resp_2.corr,key_resp_2.rt,targ_click.x,targ_click.y,targ_click.leftButton,targ_click.midButton,targ_click.rightButton,targ_click.time,targ_click.clicked_name,break_done_touch.x,break_done_touch.y,break_done_touch.leftButton,break_done_touch.midButton,break_done_touch.rightButton,break_done_keyboard.keys,maintrials.thisRepN,maintrials.thisTrialN,maintrials.thisN,maintrials.thisIndex,maintrials.ran,string,blur,study,lex,stim_path,break_done_keyboard.rt,mouse_2.x,mouse_2.y,mouse_2.leftButton,mouse_2.midButton,mouse_2.rightButton,mouse_2.clicked_name,slider.response,slider.rt,trials.thisRepN,trials.thisTrialN,trials.thisN,trials.thisIndex,trials.ran,test_instructions.thisRepN,test_instructions.thisTrialN,test_instructions.thisN,test_instructions.thisIndex,test_instructions.ran,instr_done_touch.clicked_name,key_resp_3.keys,key_resp_3.corr,key_resp_3.rt,test_click.x,test_click.y,test_click.leftButton,test_click.midButton,test_click.rightButton,test_click.time,test_click.clicked_name,test_phase.thisRepN,test_phase.thisTrialN,test_phase.thisN,test_phase.thisIndex,test_phase.ran
space,15.7604,0.259437822,-0.038759266,0,0,0,0,0,0,0,1,1,instructions,"INSTRUCTIONS
At the start of each trial, look at the plus sign  (+) in the center of the screen.  This tells you that a trial is about to begin and where to look. Second, the plus sign will disappear and a string of letters will appear. Your task is to determine if the string of letters is a word or not. If the item is a word press the M key (on keyboard)  or touch the word button (phone/tablet).  If the item is not a word,  press the  Z key (on keyboard)  or touch the nonword button (on phone/tablet). 
Press the space bar or touch  continue.",0,,5b4d31673d01bd0001ec447e,29,2022-02-12_17h56.23.132,lexical_decision_task_DD,2021.2.3,MacIntel,60.0024001,,,,,,,,,,,,,,,,,,,,,,,,,,,,,,,,,,,,,,,,,,,,,,,,,,,,,,,,,,,,,,,,,,,,,,,,,,,,,,,,,,,,,,
space,2.7814,0.259437822,-0.038759266,0,0,0,0,1,1,1,1,2,instructions,"If your device has a keyboard, press the 'Z' key for nonwords and the 'M' key for words.





Press the space bar or touch the button below to continue.",0,keyboard-example.gif,5b4d31673d01bd0001ec447e,29,2022-02-12_17h56.23.132,lexical_decision_task_DD,2021.2.3,MacIntel,60.0024001,,,,,,,,,,,,,,,,,,,,,,,,,,,,,,,,,,,,,,,,,,,,,,,,,,,,,,,,,,,,,,,,,,,,,,,,,,,,,,,,,,,,,,
space,1.6789,0.259437822,-0.038759266,0,0,0,0,2,2,2,1,3,instructions,"If you are using a touchscreen only device, use the buttons on the screen. Do not use the mouse.





Press the space bar or touch the button below to continue.",0,touchscreen-example.gif,5b4d31673d01bd0001ec447e,29,2022-02-12_17h56.23.132,lexical_decision_task_DD,2021.2.3,MacIntel,60.0024001,,,,,,,,,,,,,,,,,,,,,,,,,,,,,,,,,,,,,,,,,,,,,,,,,,,,,,,,,,,,,,,,,,,,,,,,,,,,,,,,,,,,,,
space,2.8499,0.259437822,-0.038759266,0,0,0,0,3,3,3,1,4,instructions,"It is very important that you respond as quickly and accurately as possible, as each letter string will only be on the screen for two seconds. If you do not respond within this time, the message 'Too slow!' will be displayed and the experiment will progress to the next letter string. The first 20 trials will be practice trials and you will receive feedback on your answers. 

Press the space bar or touch the button below to start the practice trials.",0,,5b4d31673d01bd0001ec447e,29,2022-02-12_17h56.23.132,lexical_decision_task_DD,2021.2.3,MacIntel,60.0024001,,,,,,,,,,,,,,,,,,,,,,,,,,,,,,,,,,,,,,,,,,,,,,,,,,,,,,,,,,,,,,,,,,,,,,,,,,,,,,,,,,,,,,
,,,,,,,,,,,,,,,,,5b4d31673d01bd0001ec447e,29,2022-02-12_17h56.23.132,lexical_decision_task_DD,2021.2.3,MacIntel,60.0024001,m,1,1.6574,,,,,,,,1.6574,1,0,0,0,5,1,1001,OBTAIN,m,,,,,,,,,,,,,,,,,,,,,,,,,,,,,,,,,,,,,,,,,,,,,,,,,,,,,,,,,,,,,,,,,,
,,,,,,,,,,,,,,,,,5b4d31673d01bd0001ec447e,29,2022-02-12_17h56.23.132,lexical_decision_task_DD,2021.2.3,MacIntel,60.0024001,z,1,0.7206,,,,,,,,0.7206,1,0,1,1,8,1,1001,ASLERT,z,,,,,,,,,,,,,,,,,,,,,,,,,,,,,,,,,,,,,,,,,,,,,,,,,,,,,,,,,,,,,,,,,,
,,,,,,,,,,,,,,,,,5b4d31673d01bd0001ec447e,29,2022-02-12_17h56.23.132,lexical_decision_task_DD,2021.2.3,MacIntel,60.0024001,m,1,0.6529,,,,,,,,0.6529,1,0,2,2,0,1,1001,UTOPIA,m,,,,,,,,,,,,,,,,,,,,,,,,,,,,,,,,,,,,,,,,,,,,,,,,,,,,,,,,,,,,,,,,,,
,,,,,,,,,,,,,,,,,5b4d31673d01bd0001ec447e,29,2022-02-12_17h56.23.132,lexical_decision_task_DD,2021.2.3,MacIntel,60.0024001,m,1,0.4758,,,,,,,,0.4758,1,0,3,3,6,1,1001,ZOMBIE,m,,,,,,,,,,,,,,,,,,,,,,,,,,,,,,,,,,,,,,,,,,,,,,,,,,,,,,,,,,,,,,,,,,
,,,,,,,,,,,,,,,,,5b4d31673d01bd0001ec447e,29,2022-02-12_17h56.23.132,lexical_decision_task_DD,2021.2.3,MacIntel,60.0024001,z,1,0.5597,,,,,,,,0.5597,1,0,4,4,14,1,1001,THRALE,z,,,,,,,,,,,,,,,,,,,,,,,,,,,,,,,,,,,,,,,,,,,,,,,,,,,,,,,,,,,,,,,,,,
,,,,,,,,,,,,,,,,,5b4d31673d01bd0001ec447e,29,2022-02-12_17h56.23.132,lexical_decision_task_DD,2021.2.3,MacIntel,60.0024001,m,1,0.5889,,,,,,,,0.5889,1,0,5,5,2,1,1001,ALMOND,m,,,,,,,,,,,,,,,,,,,,,,,,,,,,,,,,,,,,,,,,,,,,,,,,,,,,,,,,,,,,,,,,,,
,,,,,,,,,,,,,,,,,5b4d31673d01bd0001ec447e,29,2022-02-12_17h56.23.132,lexical_decision_task_DD,2021.2.3,MacIntel,60.0024001,m,1,0.5287,,,,,,,,0.5287,1,0,6,6,1,1,1001,ADJUST,m,,,,,,,,,,,,,,,,,,,,,,,,,,,,,,,,,,,,,,,,,,,,,,,,,,,,,,,,,,,,,,,,,,
,,,,,,,,,,,,,,,,,5b4d31673d01bd0001ec447e,29,2022-02-12_17h56.23.132,lexical_decision_task_DD,2021.2.3,MacIntel,60.0024001,m,0,0.6339,,,,,,,,0.6339,0,0,7,7,11,1,1001,RASHET,z,,,,,,,,,,,,,,,,,,,,,,,,,,,,,,,,,,,,,,,,,,,,,,,,,,,,,,,,,,,,,,,,,,
,,,,,,,,,,,,,,,,,5b4d31673d01bd0001ec447e,29,2022-02-12_17h56.23.132,lexical_decision_task_DD,2021.2.3,MacIntel,60.0024001,m,1,0.4983,,,,,,,,0.4983,1,0,8,8,3,1,1001,MATRIX,m,,,,,,,,,,,,,,,,,,,,,,,,,,,,,,,,,,,,,,,,,,,,,,,,,,,,,,,,,,,,,,,,,,
,,,,,,,,,,,,,,,,,5b4d31673d01bd0001ec447e,29,2022-02-12_17h56.23.132,lexical_decision_task_DD,2021.2.3,MacIntel,60.0024001,z,1,0.5782,,,,,,,,0.5782,1,0,9,9,15,1,1001,WHAISE,z,,,,,,,,,,,,,,,,,,,,,,,,,,,,,,,,,,,,,,,,,,,,,,,,,,,,,,,,,,,,,,,,,,
,,,,,,,,,,,,,,,,,5b4d31673d01bd0001ec447e,29,2022-02-12_17h56.23.132,lexical_decision_task_DD,2021.2.3,MacIntel,60.0024001,z,1,0.622,,,,,,,,0.622,1,0,10,10,9,1,1001,FARINY,z,,,,,,,,,,,,,,,,,,,,,,,,,,,,,,,,,,,,,,,,,,,,,,,,,,,,,,,,,,,,,,,,,,
,,,,,,,,,,,,,,,,,5b4d31673d01bd0001ec447e,29,2022-02-12_17h56.23.132,lexical_decision_task_DD,2021.2.3,MacIntel,60.0024001,z,1,1.1885,,,,,,,,1.1885,1,0,11,11,10,1,1001,INLADE,z,,,,,,,,,,,,,,,,,,,,,,,,,,,,,,,,,,,,,,,,,,,,,,,,,,,,,,,,,,,,,,,,,,
,,,,,,,,,,,,,,,,,5b4d31673d01bd0001ec447e,29,2022-02-12_17h56.23.132,lexical_decision_task_DD,2021.2.3,MacIntel,60.0024001,z,1,0.638,,,,,,,,0.638,1,0,12,12,12,1,1001,SPRINY,z,,,,,,,,,,,,,,,,,,,,,,,,,,,,,,,,,,,,,,,,,,,,,,,,,,,,,,,,,,,,,,,,,,
,,,,,,,,,,,,,,,,,5b4d31673d01bd0001ec447e,29,2022-02-12_17h56.23.132,lexical_decision_task_DD,2021.2.3,MacIntel,60.0024001,m,1,0.6467,,,,,,,,0.6467,1,0,13,13,4,1,1001,SQUEAK,m,,,,,,,,,,,,,,,,,,,,,,,,,,,,,,,,,,,,,,,,,,,,,,,,,,,,,,,,,,,,,,,,,,
,,,,,,,,,,,,,,,,,5b4d31673d01bd0001ec447e,29,2022-02-12_17h56.23.132,lexical_decision_task_DD,2021.2.3,MacIntel,60.0024001,z,1,0.6654,,,,,,,,0.6654,1,0,14,14,13,1,1001,ROUPET,z,,,,,,,,,,,,,,,,,,,,,,,,,,,,,,,,,,,,,,,,,,,,,,,,,,,,,,,,,,,,,,,,,,
,,,,,,,,,,,,,,,,,5b4d31673d01bd0001ec447e,29,2022-02-12_17h56.23.132,lexical_decision_task_DD,2021.2.3,MacIntel,60.0024001,m,1,0.6215,,,,,,,,0.6215,1,0,15,15,7,1,1001,VOLUME,m,,,,,,,,,,,,,,,,,,,,,,,,,,,,,,,,,,,,,,,,,,,,,,,,,,,,,,,,,,,,,,,,,,
space,21.9888,0.259437822,-0.038759266,0,0,0,,,,,,1,end_of_practice,"You have completed the practice trials. During the experimental trials, you will not receive feedback. 
Before you begin, please ensure that you are in a comfortable and quiet location and will not be disturbed for about 15 minutes, as we cannot use your data if you do not complete all the trials. 
 When you are ready to start the experimental trials, please press space or touch the button below.",,,5b4d31673d01bd0001ec447e,29,2022-02-12_17h56.23.132,lexical_decision_task_DD,2021.2.3,MacIntel,60.0024001,,,,,,,,,,,,,,,,,,,,,0,0,0,0,1,,,,,,,,,,,,,,,,,,,,,,,,,,,,,,,,,,,,,,,,,,,,,,,,,,,,,,,,,,,,,
,,,,,,,,,,,,,,,,,5b4d31673d01bd0001ec447e,29,2022-02-12_17h56.23.132,lexical_decision_task_DD,2021.2.3,MacIntel,60.0024001,,,,,,,,,,,0.5473,1,,,,,,,,,,,,,,z,1,0.5473,,,,,,,,0.259437822,-0.038759266,0,0,0,,0,0,0,140,1,DOVET,LB,old,z,./images/DOVETLB.png,,,,,,,,,,,,,,,,,,,,,,,,,,,,,,,,,,,
,,,,,,,,,,,,,,,,,5b4d31673d01bd0001ec447e,29,2022-02-12_17h56.23.132,lexical_decision_task_DD,2021.2.3,MacIntel,60.0024001,,,,,,,,,,,2.6612,1,,,,,,,,,,,,,,z,1,2.6612,,,,,,,,0.259437822,-0.038759266,0,0,0,,0,1,1,112,1,MYING,HB,old,z,./images/MYINGHB.png,,,,,,,,,,,,,,,,,,,,,,,,,,,,,,,,,,,
,,,,,,,,,,,,,,,,,5b4d31673d01bd0001ec447e,29,2022-02-12_17h56.23.132,lexical_decision_task_DD,2021.2.3,MacIntel,60.0024001,,,,,,,,,,,0.7715,1,,,,,,,,,,,,,,m,1,0.7715,,,,,,,,0.259437822,-0.038759266,0,0,0,,0,2,2,31,1,QUILL,HB,old,m,./images/QUILLHB.png,,,,,,,,,,,,,,,,,,,,,,,,,,,,,,,,,,,
,,,,,,,,,,,,,,,,,5b4d31673d01bd0001ec447e,29,2022-02-12_17h56.23.132,lexical_decision_task_DD,2021.2.3,MacIntel,60.0024001,,,,,,,,,,,0.7323,0,,,,,,,,,,,,,,m,0,0.7323,,,,,,,,0.259437822,-0.038759266,0,0,0,,0,3,3,149,1,VEASE,LB,old,z,./images/VEASELB.png,,,,,,,,,,,,,,,,,,,,,,,,,,,,,,,,,,,
,,,,,,,,,,,,,,,,,5b4d31673d01bd0001ec447e,29,2022-02-12_17h56.23.132,lexical_decision_task_DD,2021.2.3,MacIntel,60.0024001,,,,,,,,,,,0.6769,1,,,,,,,,,,,,,,m,1,0.6769,,,,,,,,0.259437822,-0.038759266,0,0,0,,0,4,4,58,1,BABOON,HB,old,m,./images/BABOONHB.png,,,,,,,,,,,,,,,,,,,,,,,,,,,,,,,,,,,
,,,,,,,,,,,,,,,,,5b4d31673d01bd0001ec447e,29,2022-02-12_17h56.23.132,lexical_decision_task_DD,2021.2.3,MacIntel,60.0024001,,,,,,,,,,,0.6637,0,,,,,,,,,,,,,,m,0,0.6637,,,,,,,,0.259437822,-0.038759266,0,0,0,,0,5,5,118,1,BAVEL,HB,old,z,./images/BAVELHB.png,,,,,,,,,,,,,,,,,,,,,,,,,,,,,,,,,,,
,,,,,,,,,,,,,,,,,5b4d31673d01bd0001ec447e,29,2022-02-12_17h56.23.132,lexical_decision_task_DD,2021.2.3,MacIntel,60.0024001,,,,,,,,,,,0.646,1,,,,,,,,,,,,,,m,1,0.646,,,,,,,,0.259437822,-0.038759266,0,0,0,,0,6,6,49,1,DRUMS,HB,old,m,./images/DRUMSHB.png,,,,,,,,,,,,,,,,,,,,,,,,,,,,,,,,,,,
,,,,,,,,,,,,,,,,,5b4d31673d01bd0001ec447e,29,2022-02-12_17h56.23.132,lexical_decision_task_DD,2021.2.3,MacIntel,60.0024001,,,,,,,,,,,0.5467,0,,,,,,,,,,,,,,m,0,0.5467,,,,,,,,0.259437822,-0.038759266,0,0,0,,0,7,7,101,1,GLEET,LB,old,z,./images/GLEETLB.png,,,,,,,,,,,,,,,,,,,,,,,,,,,,,,,,,,,
,,,,,,,,,,,,,,,,,5b4d31673d01bd0001ec447e,29,2022-02-12_17h56.23.132,lexical_decision_task_DD,2021.2.3,MacIntel,60.0024001,,,,,,,,,,,0.5417,1,,,,,,,,,,,,,,m,1,0.5417,,,,,,,,0.259437822,-0.038759266,0,0,0,,0,8,8,45,1,KITTEN,C,old,m,./images/KITTEN.png,,,,,,,,,,,,,,,,,,,,,,,,,,,,,,,,,,,
,,,,,,,,,,,,,,,,,5b4d31673d01bd0001ec447e,29,2022-02-12_17h56.23.132,lexical_decision_task_DD,2021.2.3,MacIntel,60.0024001,,,,,,,,,,,0.7198,1,,,,,,,,,,,,,,z,1,0.7198,,,,,,,,0.259437822,-0.038759266,0,0,0,,0,9,9,145,1,LAMEL,HB,old,z,./images/LAMELHB.png,,,,,,,,,,,,,,,,,,,,,,,,,,,,,,,,,,,
,,,,,,,,,,,,,,,,,5b4d31673d01bd0001ec447e,29,2022-02-12_17h56.23.132,lexical_decision_task_DD,2021.2.3,MacIntel,60.0024001,,,,,,,,,,,0.5554,0,,,,,,,,,,,,,,m,0,0.5554,,,,,,,,0.259437822,-0.038759266,0,0,0,,0,10,10,104,1,GITTY,LB,old,z,./images/GITTYLB.png,,,,,,,,,,,,,,,,,,,,,,,,,,,,,,,,,,,
,,,,,,,,,,,,,,,,,5b4d31673d01bd0001ec447e,29,2022-02-12_17h56.23.132,lexical_decision_task_DD,2021.2.3,MacIntel,60.0024001,,,,,,,,,,,0.7767,1,,,,,,,,,,,,,,m,1,0.7767,,,,,,,,0.259437822,-0.038759266,0,0,0,,0,11,11,4,1,MUSCLE,HB,old,m,./images/MUSCLEHB.png,,,,,,,,,,,,,,,,,,,,,,,,,,,,,,,,,,,
,,,,,,,,,,,,,,,,,5b4d31673d01bd0001ec447e,29,2022-02-12_17h56.23.132,lexical_decision_task_DD,2021.2.3,MacIntel,60.0024001,,,,,,,,,,,0.7535,1,,,,,,,,,,,,,,z,1,0.7535,,,,,,,,0.259437822,-0.038759266,0,0,0,,0,12,12,93,1,SMONE,C,old,z,./images/SMONE.png,,,,,,,,,,,,,,,,,,,,,,,,,,,,,,,,,,,
,,,,,,,,,,,,,,,,,5b4d31673d01bd0001ec447e,29,2022-02-12_17h56.23.132,lexical_decision_task_DD,2021.2.3,MacIntel,60.0024001,,,,,,,,,,,0.6455,1,,,,,,,,,,,,,,m,1,0.6455,,,,,,,,0.259437822,-0.038759266,0,0,0,,0,13,13,26,1,SMOKER,LB,old,m,./images/SMOKERLB.png,,,,,,,,,,,,,,,,,,,,,,,,,,,,,,,,,,,
,,,,,,,,,,,,,,,,,5b4d31673d01bd0001ec447e,29,2022-02-12_17h56.23.132,lexical_decision_task_DD,2021.2.3,MacIntel,60.0024001,,,,,,,,,,,0.6782,1,,,,,,,,,,,,,,m,1,0.6782,,,,,,,,0.259437822,-0.038759266,0,0,0,,0,14,14,67,1,SAILOR,HB,old,m,./images/SAILORHB.png,,,,,,,,,,,,,,,,,,,,,,,,,,,,,,,,,,,
,,,,,,,,,,,,,,,,,5b4d31673d01bd0001ec447e,29,2022-02-12_17h56.23.132,lexical_decision_task_DD,2021.2.3,MacIntel,60.0024001,,,,,,,,,,,0.6071,1,,,,,,,,,,,,,,z,1,0.6071,,,,,,,,0.259437822,-0.038759266,0,0,0,,0,15,15,144,1,NAIRY,C,old,z,./images/NAIRY.png,,,,,,,,,,,,,,,,,,,,,,,,,,,,,,,,,,,
,,,,,,,,,,,,,,,,,5b4d31673d01bd0001ec447e,29,2022-02-12_17h56.23.132,lexical_decision_task_DD,2021.2.3,MacIntel,60.0024001,,,,,,,,,,,1.2527,1,,,,,,,,,,,,,,z,1,1.2527,,,,,,,,0.259437822,-0.038759266,0,0,0,,0,16,16,97,1,CHIDS,HB,old,z,./images/CHIDSHB.png,,,,,,,,,,,,,,,,,,,,,,,,,,,,,,,,,,,
,,,,,,,,,,,,,,,,,5b4d31673d01bd0001ec447e,29,2022-02-12_17h56.23.132,lexical_decision_task_DD,2021.2.3,MacIntel,60.0024001,,,,,,,,,,,0.9809,1,,,,,,,,,,,,,,m,1,0.9809,,,,,,,,0.259437822,-0.038759266,0,0,0,,0,17,17,51,1,ONION,C,old,m,./images/ONION.png,,,,,,,,,,,,,,,,,,,,,,,,,,,,,,,,,,,
,,,,,,,,,,,,,,,,,5b4d31673d01bd0001ec447e,29,2022-02-12_17h56.23.132,lexical_decision_task_DD,2021.2.3,MacIntel,60.0024001,,,,,,,,,,,1.1291,1,,,,,,,,,,,,,,z,1,1.1291,,,,,,,,0.259437822,-0.038759266,0,0,0,,0,18,18,120,1,RINED,C,old,z,./images/RINED.png,,,,,,,,,,,,,,,,,,,,,,,,,,,,,,,,,,,
,,,,,,,,,,,,,,,,,5b4d31673d01bd0001ec447e,29,2022-02-12_17h56.23.132,lexical_decision_task_DD,2021.2.3,MacIntel,60.0024001,,,,,,,,,,,0.9152,1,,,,,,,,,,,,,,m,1,0.9152,,,,,,,,0.259437822,-0.038759266,0,0,0,,0,19,19,10,1,BELLY,HB,old,m,./images/BELLYHB.png,,,,,,,,,,,,,,,,,,,,,,,,,,,,,,,,,,,
,,,,,,,,,,,,,,,,,5b4d31673d01bd0001ec447e,29,2022-02-12_17h56.23.132,lexical_decision_task_DD,2021.2.3,MacIntel,60.0024001,,,,,,,,,,,0.6301,1,,,,,,,,,,,,,,z,1,0.6301,,,,,,,,0.259437822,-0.038759266,0,0,0,,0,20,20,158,1,EGECT,LB,old,z,./images/EGECTLB.png,,,,,,,,,,,,,,,,,,,,,,,,,,,,,,,,,,,
,,,,,,,,,,,,,,,,,5b4d31673d01bd0001ec447e,29,2022-02-12_17h56.23.132,lexical_decision_task_DD,2021.2.3,MacIntel,60.0024001,,,,,,,,,,,0.629,1,,,,,,,,,,,,,,m,1,0.629,,,,,,,,0.259437822,-0.038759266,0,0,0,,0,21,21,30,1,STORM,C,old,m,./images/STORM.png,,,,,,,,,,,,,,,,,,,,,,,,,,,,,,,,,,,
,,,,,,,,,,,,,,,,,5b4d31673d01bd0001ec447e,29,2022-02-12_17h56.23.132,lexical_decision_task_DD,2021.2.3,MacIntel,60.0024001,,,,,,,,,,,0.5111,1,,,,,,,,,,,,,,m,1,0.5111,,,,,,,,0.259437822,-0.038759266,0,0,0,,0,22,22,54,1,TRIPOD,C,old,m,./images/TRIPOD.png,,,,,,,,,,,,,,,,,,,,,,,,,,,,,,,,,,,
,,,,,,,,,,,,,,,,,5b4d31673d01bd0001ec447e,29,2022-02-12_17h56.23.132,lexical_decision_task_DD,2021.2.3,MacIntel,60.0024001,,,,,,,,,,,0.5664,1,,,,,,,,,,,,,,m,1,0.5664,,,,,,,,0.259437822,-0.038759266,0,0,0,,0,23,23,44,1,LIZARD,LB,old,m,./images/LIZARDLB.png,,,,,,,,,,,,,,,,,,,,,,,,,,,,,,,,,,,
,,,,,,,,,,,,,,,,,5b4d31673d01bd0001ec447e,29,2022-02-12_17h56.23.132,lexical_decision_task_DD,2021.2.3,MacIntel,60.0024001,,,,,,,,,,,0.9701,1,,,,,,,,,,,,,,m,1,0.9701,,,,,,,,0.259437822,-0.038759266,0,0,0,,0,24,24,23,1,WALRUS,LB,old,m,./images/WALRUSLB.png,,,,,,,,,,,,,,,,,,,,,,,,,,,,,,,,,,,
,,,,,,,,,,,,,,,,,5b4d31673d01bd0001ec447e,29,2022-02-12_17h56.23.132,lexical_decision_task_DD,2021.2.3,MacIntel,60.0024001,,,,,,,,,,,0.6137,1,,,,,,,,,,,,,,m,1,0.6137,,,,,,,,0.259437822,-0.038759266,0,0,0,,0,25,25,20,1,CRADLE,LB,old,m,./images/CRADLELB.png,,,,,,,,,,,,,,,,,,,,,,,,,,,,,,,,,,,
,,,,,,,,,,,,,,,,,5b4d31673d01bd0001ec447e,29,2022-02-12_17h56.23.132,lexical_decision_task_DD,2021.2.3,MacIntel,60.0024001,,,,,,,,,,,0.8273,1,,,,,,,,,,,,,,m,1,0.8273,,,,,,,,0.259437822,-0.038759266,0,0,0,,0,26,26,46,1,PEARL,HB,old,m,./images/PEARLHB.png,,,,,,,,,,,,,,,,,,,,,,,,,,,,,,,,,,,
,,,,,,,,,,,,,,,,,5b4d31673d01bd0001ec447e,29,2022-02-12_17h56.23.132,lexical_decision_task_DD,2021.2.3,MacIntel,60.0024001,,,,,,,,,,,0.6105,1,,,,,,,,,,,,,,m,1,0.6105,,,,,,,,0.259437822,-0.038759266,0,0,0,,0,27,27,78,1,LITTER,C,old,m,./images/LITTER.png,,,,,,,,,,,,,,,,,,,,,,,,,,,,,,,,,,,
,,,,,,,,,,,,,,,,,5b4d31673d01bd0001ec447e,29,2022-02-12_17h56.23.132,lexical_decision_task_DD,2021.2.3,MacIntel,60.0024001,,,,,,,,,,,0.5583,1,,,,,,,,,,,,,,z,1,0.5583,,,,,,,,0.259437822,-0.038759266,0,0,0,,0,28,28,96,1,KEAMS,C,old,z,./images/KEAMS.png,,,,,,,,,,,,,,,,,,,,,,,,,,,,,,,,,,,
,,,,,,,,,,,,,,,,,5b4d31673d01bd0001ec447e,29,2022-02-12_17h56.23.132,lexical_decision_task_DD,2021.2.3,MacIntel,60.0024001,,,,,,,,,,,1.8085,0,,,,,,,,,,,,,,m,0,1.8085,,,,,,,,0.259437822,-0.038759266,0,0,0,,0,29,29,100,1,DRIBS,HB,old,z,./images/DRIBSHB.png,,,,,,,,,,,,,,,,,,,,,,,,,,,,,,,,,,,
,,,,,,,,,,,,,,,,,5b4d31673d01bd0001ec447e,29,2022-02-12_17h56.23.132,lexical_decision_task_DD,2021.2.3,MacIntel,60.0024001,,,,,,,,,,,0.8437,1,,,,,,,,,,,,,,z,1,0.8437,,,,,,,,0.259437822,-0.038759266,0,0,0,,0,30,30,105,1,MOKER,C,old,z,./images/MOKER.png,,,,,,,,,,,,,,,,,,,,,,,,,,,,,,,,,,,
,,,,,,,,,,,,,,,,,5b4d31673d01bd0001ec447e,29,2022-02-12_17h56.23.132,lexical_decision_task_DD,2021.2.3,MacIntel,60.0024001,,,,,,,,,,,0.459,1,,,,,,,,,,,,,,m,1,0.459,,,,,,,,0.259437822,-0.038759266,0,0,0,,0,31,31,62,1,PURSE,LB,old,m,./images/PURSELB.png,,,,,,,,,,,,,,,,,,,,,,,,,,,,,,,,,,,
,,,,,,,,,,,,,,,,,5b4d31673d01bd0001ec447e,29,2022-02-12_17h56.23.132,lexical_decision_task_DD,2021.2.3,MacIntel,60.0024001,,,,,,,,,,,0.5263,1,,,,,,,,,,,,,,z,1,0.5263,,,,,,,,0.259437822,-0.038759266,0,0,0,,0,32,32,135,1,JOODY,C,old,z,./images/JOODY.png,,,,,,,,,,,,,,,,,,,,,,,,,,,,,,,,,,,
,,,,,,,,,,,,,,,,,5b4d31673d01bd0001ec447e,29,2022-02-12_17h56.23.132,lexical_decision_task_DD,2021.2.3,MacIntel,60.0024001,,,,,,,,,,,0.6639,1,,,,,,,,,,,,,,z,1,0.6639,,,,,,,,0.259437822,-0.038759266,0,0,0,,0,33,33,103,1,FLORT,HB,old,z,./images/FLORTHB.png,,,,,,,,,,,,,,,,,,,,,,,,,,,,,,,,,,,
,,,,,,,,,,,,,,,,,5b4d31673d01bd0001ec447e,29,2022-02-12_17h56.23.132,lexical_decision_task_DD,2021.2.3,MacIntel,60.0024001,,,,,,,,,,,0.4957,1,,,,,,,,,,,,,,m,1,0.4957,,,,,,,,0.259437822,-0.038759266,0,0,0,,0,34,34,21,1,KIDNEY,C,old,m,./images/KIDNEY.png,,,,,,,,,,,,,,,,,,,,,,,,,,,,,,,,,,,
,,,,,,,,,,,,,,,,,5b4d31673d01bd0001ec447e,29,2022-02-12_17h56.23.132,lexical_decision_task_DD,2021.2.3,MacIntel,60.0024001,,,,,,,,,,,0.5295,1,,,,,,,,,,,,,,z,1,0.5295,,,,,,,,0.259437822,-0.038759266,0,0,0,,0,35,35,165,1,TROWN,C,old,z,./images/TROWN.png,,,,,,,,,,,,,,,,,,,,,,,,,,,,,,,,,,,
,,,,,,,,,,,,,,,,,5b4d31673d01bd0001ec447e,29,2022-02-12_17h56.23.132,lexical_decision_task_DD,2021.2.3,MacIntel,60.0024001,,,,,,,,,,,0.55,1,,,,,,,,,,,,,,m,1,0.55,,,,,,,,0.259437822,-0.038759266,0,0,0,,0,36,36,59,1,BURIAL,LB,old,m,./images/BURIALLB.png,,,,,,,,,,,,,,,,,,,,,,,,,,,,,,,,,,,
,,,,,,,,,,,,,,,,,5b4d31673d01bd0001ec447e,29,2022-02-12_17h56.23.132,lexical_decision_task_DD,2021.2.3,MacIntel,60.0024001,,,,,,,,,,,0.5784,1,,,,,,,,,,,,,,z,1,0.5784,,,,,,,,0.259437822,-0.038759266,0,0,0,,0,37,37,92,1,PAIMS,LB,old,z,./images/PAIMSLB.png,,,,,,,,,,,,,,,,,,,,,,,,,,,,,,,,,,,
,,,,,,,,,,,,,,,,,5b4d31673d01bd0001ec447e,29,2022-02-12_17h56.23.132,lexical_decision_task_DD,2021.2.3,MacIntel,60.0024001,,,,,,,,,,,0.5309,1,,,,,,,,,,,,,,z,1,0.5309,,,,,,,,0.259437822,-0.038759266,0,0,0,,0,38,38,143,1,MONGS,LB,old,z,./images/MONGSLB.png,,,,,,,,,,,,,,,,,,,,,,,,,,,,,,,,,,,
,,,,,,,,,,,,,,,,,5b4d31673d01bd0001ec447e,29,2022-02-12_17h56.23.132,lexical_decision_task_DD,2021.2.3,MacIntel,60.0024001,,,,,,,,,,,0.5464,1,,,,,,,,,,,,,,m,1,0.5464,,,,,,,,0.259437822,-0.038759266,0,0,0,,0,39,39,80,1,WEASEL,LB,old,m,./images/WEASELLB.png,,,,,,,,,,,,,,,,,,,,,,,,,,,,,,,,,,,
,,,,,,,,,,,,,,,,,5b4d31673d01bd0001ec447e,29,2022-02-12_17h56.23.132,lexical_decision_task_DD,2021.2.3,MacIntel,60.0024001,,,,,,,,,,,0.5335,1,,,,,,,,,,,,,,z,1,0.5335,,,,,,,,0.259437822,-0.038759266,0,0,0,,0,40,40,131,1,NACES,LB,old,z,./images/NACESLB.png,,,,,,,,,,,,,,,,,,,,,,,,,,,,,,,,,,,
,,,,,,,,,,,,,,,,,5b4d31673d01bd0001ec447e,29,2022-02-12_17h56.23.132,lexical_decision_task_DD,2021.2.3,MacIntel,60.0024001,,,,,,,,,,,0.9489,1,,,,,,,,,,,,,,m,1,0.9489,,,,,,,,0.259437822,-0.038759266,0,0,0,space,0,41,41,15,1,GREASE,C,old,m,./images/GREASE.png,25.999,,,,,,,,,,,,,,,,,,,,,,,,,,,,,,,,,,
,,,,,,,,,,,,,,,,,5b4d31673d01bd0001ec447e,29,2022-02-12_17h56.23.132,lexical_decision_task_DD,2021.2.3,MacIntel,60.0024001,,,,,,,,,,,0.4357,1,,,,,,,,,,,,,,z,1,0.4357,,,,,,,,0.259437822,-0.038759266,0,0,0,,0,42,42,152,1,FRAIN,LB,old,z,./images/FRAINLB.png,,,,,,,,,,,,,,,,,,,,,,,,,,,,,,,,,,,
,,,,,,,,,,,,,,,,,5b4d31673d01bd0001ec447e,29,2022-02-12_17h56.23.132,lexical_decision_task_DD,2021.2.3,MacIntel,60.0024001,,,,,,,,,,,0.5031,1,,,,,,,,,,,,,,z,1,0.5031,,,,,,,,0.259437822,-0.038759266,0,0,0,,0,43,43,124,1,TUNCH,HB,old,z,./images/TUNCHHB.png,,,,,,,,,,,,,,,,,,,,,,,,,,,,,,,,,,,
,,,,,,,,,,,,,,,,,5b4d31673d01bd0001ec447e,29,2022-02-12_17h56.23.132,lexical_decision_task_DD,2021.2.3,MacIntel,60.0024001,,,,,,,,,,,0.5441,1,,,,,,,,,,,,,,m,1,0.5441,,,,,,,,0.259437822,-0.038759266,0,0,0,,0,44,44,64,1,JELLY,HB,old,m,./images/JELLYHB.png,,,,,,,,,,,,,,,,,,,,,,,,,,,,,,,,,,,
,,,,,,,,,,,,,,,,,5b4d31673d01bd0001ec447e,29,2022-02-12_17h56.23.132,lexical_decision_task_DD,2021.2.3,MacIntel,60.0024001,,,,,,,,,,,0.6996,1,,,,,,,,,,,,,,m,1,0.6996,,,,,,,,0.259437822,-0.038759266,0,0,0,,0,45,45,73,1,SNACK,HB,old,m,./images/SNACKHB.png,,,,,,,,,,,,,,,,,,,,,,,,,,,,,,,,,,,
,,,,,,,,,,,,,,,,,5b4d31673d01bd0001ec447e,29,2022-02-12_17h56.23.132,lexical_decision_task_DD,2021.2.3,MacIntel,60.0024001,,,,,,,,,,,0.4463,1,,,,,,,,,,,,,,m,1,0.4463,,,,,,,,0.259437822,-0.038759266,0,0,0,,0,46,46,5,1,PASTA,LB,old,m,./images/PASTALB.png,,,,,,,,,,,,,,,,,,,,,,,,,,,,,,,,,,,
,,,,,,,,,,,,,,,,,5b4d31673d01bd0001ec447e,29,2022-02-12_17h56.23.132,lexical_decision_task_DD,2021.2.3,MacIntel,60.0024001,,,,,,,,,,,0.4464,0,,,,,,,,,,,,,,z,0,0.4464,,,,,,,,0.259437822,-0.038759266,0,0,0,,0,47,47,65,1,FARMER,LB,old,m,./images/FARMERLB.png,,,,,,,,,,,,,,,,,,,,,,,,,,,,,,,,,,,
,,,,,,,,,,,,,,,,,5b4d31673d01bd0001ec447e,29,2022-02-12_17h56.23.132,lexical_decision_task_DD,2021.2.3,MacIntel,60.0024001,,,,,,,,,,,0.4734,1,,,,,,,,,,,,,,m,1,0.4734,,,,,,,,0.259437822,-0.038759266,0,0,0,,0,48,48,47,1,BERRY,LB,old,m,./images/BERRYLB.png,,,,,,,,,,,,,,,,,,,,,,,,,,,,,,,,,,,
,,,,,,,,,,,,,,,,,5b4d31673d01bd0001ec447e,29,2022-02-12_17h56.23.132,lexical_decision_task_DD,2021.2.3,MacIntel,60.0024001,,,,,,,,,,,0.6547,1,,,,,,,,,,,,,,z,1,0.6547,,,,,,,,0.259437822,-0.038759266,0,0,0,,0,49,49,116,1,BALGY,LB,old,z,./images/BALGYLB.png,,,,,,,,,,,,,,,,,,,,,,,,,,,,,,,,,,,
,,,,,,,,,,,,,,,,,5b4d31673d01bd0001ec447e,29,2022-02-12_17h56.23.132,lexical_decision_task_DD,2021.2.3,MacIntel,60.0024001,,,,,,,,,,,0.4275,1,,,,,,,,,,,,,,m,1,0.4275,,,,,,,,0.259437822,-0.038759266,0,0,0,,0,50,50,33,1,MAGGOT,C,old,m,./images/MAGGOT.png,,,,,,,,,,,,,,,,,,,,,,,,,,,,,,,,,,,
,,,,,,,,,,,,,,,,,5b4d31673d01bd0001ec447e,29,2022-02-12_17h56.23.132,lexical_decision_task_DD,2021.2.3,MacIntel,60.0024001,,,,,,,,,,,0.8566,1,,,,,,,,,,,,,,z,1,0.8566,,,,,,,,0.259437822,-0.038759266,0,0,0,,0,51,51,133,1,POWDY,HB,old,z,./images/POWDYHB.png,,,,,,,,,,,,,,,,,,,,,,,,,,,,,,,,,,,
,,,,,,,,,,,,,,,,,5b4d31673d01bd0001ec447e,29,2022-02-12_17h56.23.132,lexical_decision_task_DD,2021.2.3,MacIntel,60.0024001,,,,,,,,,,,0.6687,1,,,,,,,,,,,,,,z,1,0.6687,,,,,,,,0.259437822,-0.038759266,0,0,0,,0,52,52,161,1,BLAPS,LB,old,z,./images/BLAPSLB.png,,,,,,,,,,,,,,,,,,,,,,,,,,,,,,,,,,,
,,,,,,,,,,,,,,,,,5b4d31673d01bd0001ec447e,29,2022-02-12_17h56.23.132,lexical_decision_task_DD,2021.2.3,MacIntel,60.0024001,,,,,,,,,,,0.4854,1,,,,,,,,,,,,,,m,1,0.4854,,,,,,,,0.259437822,-0.038759266,0,0,0,,0,53,53,60,1,TWINS,C,old,m,./images/TWINS.png,,,,,,,,,,,,,,,,,,,,,,,,,,,,,,,,,,,
,,,,,,,,,,,,,,,,,5b4d31673d01bd0001ec447e,29,2022-02-12_17h56.23.132,lexical_decision_task_DD,2021.2.3,MacIntel,60.0024001,,,,,,,,,,,0.5404,0,,,,,,,,,,,,,,m,0,0.5404,,,,,,,,0.259437822,-0.038759266,0,0,0,,0,54,54,110,1,CRUNK,LB,old,z,./images/CRUNKLB.png,,,,,,,,,,,,,,,,,,,,,,,,,,,,,,,,,,,
,,,,,,,,,,,,,,,,,5b4d31673d01bd0001ec447e,29,2022-02-12_17h56.23.132,lexical_decision_task_DD,2021.2.3,MacIntel,60.0024001,,,,,,,,,,,0.5057,1,,,,,,,,,,,,,,z,1,0.5057,,,,,,,,0.259437822,-0.038759266,0,0,0,,0,55,55,159,1,CUDDY,C,old,z,./images/CUDDY.png,,,,,,,,,,,,,,,,,,,,,,,,,,,,,,,,,,,
,,,,,,,,,,,,,,,,,5b4d31673d01bd0001ec447e,29,2022-02-12_17h56.23.132,lexical_decision_task_DD,2021.2.3,MacIntel,60.0024001,,,,,,,,,,,0.8425,0,,,,,,,,,,,,,,m,0,0.8425,,,,,,,,0.259437822,-0.038759266,0,0,0,,0,56,56,99,1,BACKY,C,old,z,./images/BACKY.png,,,,,,,,,,,,,,,,,,,,,,,,,,,,,,,,,,,
,,,,,,,,,,,,,,,,,5b4d31673d01bd0001ec447e,29,2022-02-12_17h56.23.132,lexical_decision_task_DD,2021.2.3,MacIntel,60.0024001,,,,,,,,,,,1.4831,1,,,,,,,,,,,,,,z,1,1.4831,,,,,,,,0.259437822,-0.038759266,0,0,0,,0,57,57,127,1,NINDY,HB,old,z,./images/NINDYHB.png,,,,,,,,,,,,,,,,,,,,,,,,,,,,,,,,,,,
,,,,,,,,,,,,,,,,,5b4d31673d01bd0001ec447e,29,2022-02-12_17h56.23.132,lexical_decision_task_DD,2021.2.3,MacIntel,60.0024001,,,,,,,,,,,0.4897,1,,,,,,,,,,,,,,m,1,0.4897,,,,,,,,0.259437822,-0.038759266,0,0,0,,0,58,58,83,1,JUNGLE,LB,old,m,./images/JUNGLELB.png,,,,,,,,,,,,,,,,,,,,,,,,,,,,,,,,,,,
,,,,,,,,,,,,,,,,,5b4d31673d01bd0001ec447e,29,2022-02-12_17h56.23.132,lexical_decision_task_DD,2021.2.3,MacIntel,60.0024001,,,,,,,,,,,0.5548,1,,,,,,,,,,,,,,m,1,0.5548,,,,,,,,0.259437822,-0.038759266,0,0,0,,0,59,59,18,1,JAGUAR,C,old,m,./images/JAGUAR.png,,,,,,,,,,,,,,,,,,,,,,,,,,,,,,,,,,,
,,,,,,,,,,,,,,,,,5b4d31673d01bd0001ec447e,29,2022-02-12_17h56.23.132,lexical_decision_task_DD,2021.2.3,MacIntel,60.0024001,,,,,,,,,,,0.6783,1,,,,,,,,,,,,,,m,1,0.6783,,,,,,,,0.259437822,-0.038759266,0,0,0,,0,60,60,72,1,NOOSE,C,old,m,./images/NOOSE.png,,,,,,,,,,,,,,,,,,,,,,,,,,,,,,,,,,,
,,,,,,,,,,,,,,,,,5b4d31673d01bd0001ec447e,29,2022-02-12_17h56.23.132,lexical_decision_task_DD,2021.2.3,MacIntel,60.0024001,,,,,,,,,,,0.445,1,,,,,,,,,,,,,,m,1,0.445,,,,,,,,0.259437822,-0.038759266,0,0,0,,0,61,61,36,1,THROAT,C,old,m,./images/THROAT.png,,,,,,,,,,,,,,,,,,,,,,,,,,,,,,,,,,,
,,,,,,,,,,,,,,,,,5b4d31673d01bd0001ec447e,29,2022-02-12_17h56.23.132,lexical_decision_task_DD,2021.2.3,MacIntel,60.0024001,,,,,,,,,,,0.5246,1,,,,,,,,,,,,,,z,1,0.5246,,,,,,,,0.259437822,-0.038759266,0,0,0,,0,62,62,102,1,DULLE,C,old,z,./images/DULLE.png,,,,,,,,,,,,,,,,,,,,,,,,,,,,,,,,,,,
,,,,,,,,,,,,,,,,,5b4d31673d01bd0001ec447e,29,2022-02-12_17h56.23.132,lexical_decision_task_DD,2021.2.3,MacIntel,60.0024001,,,,,,,,,,,0.4611,0,,,,,,,,,,,,,,m,0,0.4611,,,,,,,,0.259437822,-0.038759266,0,0,0,,0,63,63,128,1,GRIFT,LB,old,z,./images/GRIFTLB.png,,,,,,,,,,,,,,,,,,,,,,,,,,,,,,,,,,,
,,,,,,,,,,,,,,,,,5b4d31673d01bd0001ec447e,29,2022-02-12_17h56.23.132,lexical_decision_task_DD,2021.2.3,MacIntel,60.0024001,,,,,,,,,,,0.5297,1,,,,,,,,,,,,,,m,1,0.5297,,,,,,,,0.259437822,-0.038759266,0,0,0,,0,64,64,39,1,SHELF,C,old,m,./images/SHELF.png,,,,,,,,,,,,,,,,,,,,,,,,,,,,,,,,,,,
,,,,,,,,,,,,,,,,,5b4d31673d01bd0001ec447e,29,2022-02-12_17h56.23.132,lexical_decision_task_DD,2021.2.3,MacIntel,60.0024001,,,,,,,,,,,1.1991,0,,,,,,,,,,,,,,z,0,1.1991,,,,,,,,0.259437822,-0.038759266,0,0,0,,0,65,65,40,1,SWING,HB,old,m,./images/SWINGHB.png,,,,,,,,,,,,,,,,,,,,,,,,,,,,,,,,,,,
,,,,,,,,,,,,,,,,,5b4d31673d01bd0001ec447e,29,2022-02-12_17h56.23.132,lexical_decision_task_DD,2021.2.3,MacIntel,60.0024001,,,,,,,,,,,0.7769,1,,,,,,,,,,,,,,z,1,0.7769,,,,,,,,0.259437822,-0.038759266,0,0,0,,0,66,66,121,1,CEERS,HB,old,z,./images/CEERSHB.png,,,,,,,,,,,,,,,,,,,,,,,,,,,,,,,,,,,
,,,,,,,,,,,,,,,,,5b4d31673d01bd0001ec447e,29,2022-02-12_17h56.23.132,lexical_decision_task_DD,2021.2.3,MacIntel,60.0024001,,,,,,,,,,,0.4432,1,,,,,,,,,,,,,,m,1,0.4432,,,,,,,,0.259437822,-0.038759266,0,0,0,,0,67,67,9,1,RHINO,C,old,m,./images/RHINO.png,,,,,,,,,,,,,,,,,,,,,,,,,,,,,,,,,,,
,,,,,,,,,,,,,,,,,5b4d31673d01bd0001ec447e,29,2022-02-12_17h56.23.132,lexical_decision_task_DD,2021.2.3,MacIntel,60.0024001,,,,,,,,,,,0.7267,1,,,,,,,,,,,,,,z,1,0.7267,,,,,,,,0.259437822,-0.038759266,0,0,0,,0,68,68,113,1,LINEW,LB,old,z,./images/LINEWLB.png,,,,,,,,,,,,,,,,,,,,,,,,,,,,,,,,,,,
,,,,,,,,,,,,,,,,,5b4d31673d01bd0001ec447e,29,2022-02-12_17h56.23.132,lexical_decision_task_DD,2021.2.3,MacIntel,60.0024001,,,,,,,,,,,0.5428,1,,,,,,,,,,,,,,m,1,0.5428,,,,,,,,0.259437822,-0.038759266,0,0,0,,0,69,69,24,1,SCREW,C,old,m,./images/SCREW.png,,,,,,,,,,,,,,,,,,,,,,,,,,,,,,,,,,,
,,,,,,,,,,,,,,,,,5b4d31673d01bd0001ec447e,29,2022-02-12_17h56.23.132,lexical_decision_task_DD,2021.2.3,MacIntel,60.0024001,,,,,,,,,,,0.5676,1,,,,,,,,,,,,,,m,1,0.5676,,,,,,,,0.259437822,-0.038759266,0,0,0,,0,70,70,74,1,CEMENT,LB,old,m,./images/CEMENTLB.png,,,,,,,,,,,,,,,,,,,,,,,,,,,,,,,,,,,
,,,,,,,,,,,,,,,,,5b4d31673d01bd0001ec447e,29,2022-02-12_17h56.23.132,lexical_decision_task_DD,2021.2.3,MacIntel,60.0024001,,,,,,,,,,,0.5417,1,,,,,,,,,,,,,,m,1,0.5417,,,,,,,,0.259437822,-0.038759266,0,0,0,,0,71,71,79,1,CRUST,HB,old,m,./images/CRUSTHB.png,,,,,,,,,,,,,,,,,,,,,,,,,,,,,,,,,,,
,,,,,,,,,,,,,,,,,5b4d31673d01bd0001ec447e,29,2022-02-12_17h56.23.132,lexical_decision_task_DD,2021.2.3,MacIntel,60.0024001,,,,,,,,,,,0.5664,1,,,,,,,,,,,,,,m,1,0.5664,,,,,,,,0.259437822,-0.038759266,0,0,0,,0,72,72,17,1,SKIING,LB,old,m,./images/SKIINGLB.png,,,,,,,,,,,,,,,,,,,,,,,,,,,,,,,,,,,
,,,,,,,,,,,,,,,,,5b4d31673d01bd0001ec447e,29,2022-02-12_17h56.23.132,lexical_decision_task_DD,2021.2.3,MacIntel,60.0024001,,,,,,,,,,,0.5773,1,,,,,,,,,,,,,,z,1,0.5773,,,,,,,,0.259437822,-0.038759266,0,0,0,,0,73,73,108,1,GRUET,C,old,z,./images/GRUET.png,,,,,,,,,,,,,,,,,,,,,,,,,,,,,,,,,,,
,,,,,,,,,,,,,,,,,5b4d31673d01bd0001ec447e,29,2022-02-12_17h56.23.132,lexical_decision_task_DD,2021.2.3,MacIntel,60.0024001,,,,,,,,,,,1.0937,1,,,,,,,,,,,,,,z,1,1.0937,,,,,,,,0.259437822,-0.038759266,0,0,0,,0,74,74,139,1,BLEAR,HB,old,z,./images/BLEARHB.png,,,,,,,,,,,,,,,,,,,,,,,,,,,,,,,,,,,
,,,,,,,,,,,,,,,,,5b4d31673d01bd0001ec447e,29,2022-02-12_17h56.23.132,lexical_decision_task_DD,2021.2.3,MacIntel,60.0024001,,,,,,,,,,,0.8022,1,,,,,,,,,,,,,,m,1,0.8022,,,,,,,,0.259437822,-0.038759266,0,0,0,,0,75,75,76,1,INFANT,HB,old,m,./images/INFANTHB.png,,,,,,,,,,,,,,,,,,,,,,,,,,,,,,,,,,,
,,,,,,,,,,,,,,,,,5b4d31673d01bd0001ec447e,29,2022-02-12_17h56.23.132,lexical_decision_task_DD,2021.2.3,MacIntel,60.0024001,,,,,,,,,,,0.4795,1,,,,,,,,,,,,,,m,1,0.4795,,,,,,,,0.259437822,-0.038759266,0,0,0,,0,76,76,11,1,BONNET,LB,old,m,./images/BONNETLB.png,,,,,,,,,,,,,,,,,,,,,,,,,,,,,,,,,,,
,,,,,,,,,,,,,,,,,5b4d31673d01bd0001ec447e,29,2022-02-12_17h56.23.132,lexical_decision_task_DD,2021.2.3,MacIntel,60.0024001,,,,,,,,,,,0.687,1,,,,,,,,,,,,,,z,1,0.687,,,,,,,,0.259437822,-0.038759266,0,0,0,,0,77,77,126,1,GUELS,C,old,z,./images/GUELS.png,,,,,,,,,,,,,,,,,,,,,,,,,,,,,,,,,,,
,,,,,,,,,,,,,,,,,5b4d31673d01bd0001ec447e,29,2022-02-12_17h56.23.132,lexical_decision_task_DD,2021.2.3,MacIntel,60.0024001,,,,,,,,,,,0.6063,1,,,,,,,,,,,,,,m,1,0.6063,,,,,,,,0.259437822,-0.038759266,0,0,0,,0,78,78,7,1,PAINT,HB,old,m,./images/PAINTHB.png,,,,,,,,,,,,,,,,,,,,,,,,,,,,,,,,,,,
,,,,,,,,,,,,,,,,,5b4d31673d01bd0001ec447e,29,2022-02-12_17h56.23.132,lexical_decision_task_DD,2021.2.3,MacIntel,60.0024001,,,,,,,,,,,0.6408,1,,,,,,,,,,,,,,z,1,0.6408,,,,,,,,0.259437822,-0.038759266,0,0,0,,0,79,79,114,1,RIKES,C,old,z,./images/RIKES.png,,,,,,,,,,,,,,,,,,,,,,,,,,,,,,,,,,,
,,,,,,,,,,,,,,,,,5b4d31673d01bd0001ec447e,29,2022-02-12_17h56.23.132,lexical_decision_task_DD,2021.2.3,MacIntel,60.0024001,,,,,,,,,,,0.7273,1,,,,,,,,,,,,,,z,1,0.7273,,,,,,,,0.259437822,-0.038759266,0,0,0,,0,80,80,155,1,CANGY,LB,old,z,./images/CANGYLB.png,,,,,,,,,,,,,,,,,,,,,,,,,,,,,,,,,,,
,,,,,,,,,,,,,,,,,5b4d31673d01bd0001ec447e,29,2022-02-12_17h56.23.132,lexical_decision_task_DD,2021.2.3,MacIntel,60.0024001,,,,,,,,,,,0.7152,1,,,,,,,,,,,,,,m,1,0.7152,,,,,,,,0.259437822,-0.038759266,0,0,0,,0,81,81,61,1,CANDLE,HB,old,m,./images/CANDLEHB.png,,,,,,,,,,,,,,,,,,,,,,,,,,,,,,,,,,,
,,,,,,,,,,,,,,,,,5b4d31673d01bd0001ec447e,29,2022-02-12_17h56.23.132,lexical_decision_task_DD,2021.2.3,MacIntel,60.0024001,,,,,,,,,,,0.6193,1,,,,,,,,,,,,,,m,1,0.6193,,,,,,,,0.259437822,-0.038759266,0,0,0,,0,82,82,77,1,COUCH,LB,old,m,./images/COUCHLB.png,,,,,,,,,,,,,,,,,,,,,,,,,,,,,,,,,,,
,,,,,,,,,,,,,,,,,5b4d31673d01bd0001ec447e,29,2022-02-12_17h56.23.132,lexical_decision_task_DD,2021.2.3,MacIntel,60.0024001,,,,,,,,,,,0.5263,1,,,,,,,,,,,,,,m,1,0.5263,,,,,,,,0.259437822,-0.038759266,0,0,0,space,0,83,83,68,1,TORCH,LB,old,m,./images/TORCHLB.png,1.1192,,,,,,,,,,,,,,,,,,,,,,,,,,,,,,,,,,
,,,,,,,,,,,,,,,,,5b4d31673d01bd0001ec447e,29,2022-02-12_17h56.23.132,lexical_decision_task_DD,2021.2.3,MacIntel,60.0024001,,,,,,,,,,,0.9927,1,,,,,,,,,,,,,,z,1,0.9927,,,,,,,,0.259437822,-0.038759266,0,0,0,,0,84,84,163,1,GAMBA,HB,old,z,./images/GAMBAHB.png,,,,,,,,,,,,,,,,,,,,,,,,,,,,,,,,,,,
,,,,,,,,,,,,,,,,,5b4d31673d01bd0001ec447e,29,2022-02-12_17h56.23.132,lexical_decision_task_DD,2021.2.3,MacIntel,60.0024001,,,,,,,,,,,0.4787,1,,,,,,,,,,,,,,m,1,0.4787,,,,,,,,0.259437822,-0.038759266,0,0,0,,0,85,85,29,1,CRUMB,LB,old,m,./images/CRUMBLB.png,,,,,,,,,,,,,,,,,,,,,,,,,,,,,,,,,,,
,,,,,,,,,,,,,,,,,5b4d31673d01bd0001ec447e,29,2022-02-12_17h56.23.132,lexical_decision_task_DD,2021.2.3,MacIntel,60.0024001,,,,,,,,,,,0.5428,1,,,,,,,,,,,,,,z,1,0.5428,,,,,,,,0.259437822,-0.038759266,0,0,0,,0,86,86,90,1,NEAST,C,old,z,./images/NEAST.png,,,,,,,,,,,,,,,,,,,,,,,,,,,,,,,,,,,
,,,,,,,,,,,,,,,,,5b4d31673d01bd0001ec447e,29,2022-02-12_17h56.23.132,lexical_decision_task_DD,2021.2.3,MacIntel,60.0024001,,,,,,,,,,,0.5694,1,,,,,,,,,,,,,,z,1,0.5694,,,,,,,,0.259437822,-0.038759266,0,0,0,,0,87,87,153,1,CLUPS,C,old,z,./images/CLUPS.png,,,,,,,,,,,,,,,,,,,,,,,,,,,,,,,,,,,
,,,,,,,,,,,,,,,,,5b4d31673d01bd0001ec447e,29,2022-02-12_17h56.23.132,lexical_decision_task_DD,2021.2.3,MacIntel,60.0024001,,,,,,,,,,,1.0117,1,,,,,,,,,,,,,,z,1,1.0117,,,,,,,,0.259437822,-0.038759266,0,0,0,,0,88,88,154,1,THINT,HB,old,z,./images/THINTHB.png,,,,,,,,,,,,,,,,,,,,,,,,,,,,,,,,,,,
,,,,,,,,,,,,,,,,,5b4d31673d01bd0001ec447e,29,2022-02-12_17h56.23.132,lexical_decision_task_DD,2021.2.3,MacIntel,60.0024001,,,,,,,,,,,0.5971,0,,,,,,,,,,,,,,z,0,0.5971,,,,,,,,0.259437822,-0.038759266,0,0,0,,0,89,89,1,1,PLANK,HB,old,m,./images/PLANKHB.png,,,,,,,,,,,,,,,,,,,,,,,,,,,,,,,,,,,
,,,,,,,,,,,,,,,,,5b4d31673d01bd0001ec447e,29,2022-02-12_17h56.23.132,lexical_decision_task_DD,2021.2.3,MacIntel,60.0024001,,,,,,,,,,,0.5257,1,,,,,,,,,,,,,,z,1,0.5257,,,,,,,,0.259437822,-0.038759266,0,0,0,,0,90,90,167,1,ZONET,LB,old,z,./images/ZONETLB.png,,,,,,,,,,,,,,,,,,,,,,,,,,,,,,,,,,,
,,,,,,,,,,,,,,,,,5b4d31673d01bd0001ec447e,29,2022-02-12_17h56.23.132,lexical_decision_task_DD,2021.2.3,MacIntel,60.0024001,,,,,,,,,,,0.6479,1,,,,,,,,,,,,,,z,1,0.6479,,,,,,,,0.259437822,-0.038759266,0,0,0,,0,91,91,146,1,MOOST,LB,old,z,./images/MOOSTLB.png,,,,,,,,,,,,,,,,,,,,,,,,,,,,,,,,,,,
,,,,,,,,,,,,,,,,,5b4d31673d01bd0001ec447e,29,2022-02-12_17h56.23.132,lexical_decision_task_DD,2021.2.3,MacIntel,60.0024001,,,,,,,,,,,0.6092,1,,,,,,,,,,,,,,m,1,0.6092,,,,,,,,0.259437822,-0.038759266,0,0,0,,0,92,92,82,1,SUNSET,HB,old,m,./images/SUNSETHB.png,,,,,,,,,,,,,,,,,,,,,,,,,,,,,,,,,,,
,,,,,,,,,,,,,,,,,5b4d31673d01bd0001ec447e,29,2022-02-12_17h56.23.132,lexical_decision_task_DD,2021.2.3,MacIntel,60.0024001,,,,,,,,,,,0.5448,1,,,,,,,,,,,,,,m,1,0.5448,,,,,,,,0.259437822,-0.038759266,0,0,0,,0,93,93,13,1,MOTOR,HB,old,m,./images/MOTORHB.png,,,,,,,,,,,,,,,,,,,,,,,,,,,,,,,,,,,
,,,,,,,,,,,,,,,,,5b4d31673d01bd0001ec447e,29,2022-02-12_17h56.23.132,lexical_decision_task_DD,2021.2.3,MacIntel,60.0024001,,,,,,,,,,,0.5258,1,,,,,,,,,,,,,,m,1,0.5258,,,,,,,,0.259437822,-0.038759266,0,0,0,,0,94,94,3,1,FINGER,C,old,m,./images/FINGER.png,,,,,,,,,,,,,,,,,,,,,,,,,,,,,,,,,,,
,,,,,,,,,,,,,,,,,5b4d31673d01bd0001ec447e,29,2022-02-12_17h56.23.132,lexical_decision_task_DD,2021.2.3,MacIntel,60.0024001,,,,,,,,,,,0.6298,1,,,,,,,,,,,,,,m,1,0.6298,,,,,,,,0.259437822,-0.038759266,0,0,0,,0,95,95,70,1,URINE,HB,old,m,./images/URINEHB.png,,,,,,,,,,,,,,,,,,,,,,,,,,,,,,,,,,,
,,,,,,,,,,,,,,,,,5b4d31673d01bd0001ec447e,29,2022-02-12_17h56.23.132,lexical_decision_task_DD,2021.2.3,MacIntel,60.0024001,,,,,,,,,,,0.4528,1,,,,,,,,,,,,,,m,1,0.4528,,,,,,,,0.259437822,-0.038759266,0,0,0,,0,96,96,42,1,FOLDER,C,old,m,./images/FOLDER.png,,,,,,,,,,,,,,,,,,,,,,,,,,,,,,,,,,,
,,,,,,,,,,,,,,,,,5b4d31673d01bd0001ec447e,29,2022-02-12_17h56.23.132,lexical_decision_task_DD,2021.2.3,MacIntel,60.0024001,,,,,,,,,,,0.4416,1,,,,,,,,,,,,,,m,1,0.4416,,,,,,,,0.259437822,-0.038759266,0,0,0,,0,97,97,48,1,SPORT,C,old,m,./images/SPORT.png,,,,,,,,,,,,,,,,,,,,,,,,,,,,,,,,,,,
,,,,,,,,,,,,,,,,,5b4d31673d01bd0001ec447e,29,2022-02-12_17h56.23.132,lexical_decision_task_DD,2021.2.3,MacIntel,60.0024001,,,,,,,,,,,0.6411,1,,,,,,,,,,,,,,z,1,0.6411,,,,,,,,0.259437822,-0.038759266,0,0,0,,0,98,98,123,1,SEDGE,C,old,z,./images/SEDGE.png,,,,,,,,,,,,,,,,,,,,,,,,,,,,,,,,,,,
,,,,,,,,,,,,,,,,,5b4d31673d01bd0001ec447e,29,2022-02-12_17h56.23.132,lexical_decision_task_DD,2021.2.3,MacIntel,60.0024001,,,,,,,,,,,0.6573,1,,,,,,,,,,,,,,z,1,0.6573,,,,,,,,0.259437822,-0.038759266,0,0,0,,0,99,99,111,1,HOSSE,C,old,z,./images/HOSSE.png,,,,,,,,,,,,,,,,,,,,,,,,,,,,,,,,,,,
,,,,,,,,,,,,,,,,,5b4d31673d01bd0001ec447e,29,2022-02-12_17h56.23.132,lexical_decision_task_DD,2021.2.3,MacIntel,60.0024001,,,,,,,,,,,0.5372,1,,,,,,,,,,,,,,m,1,0.5372,,,,,,,,0.259437822,-0.038759266,0,0,0,,0,100,100,27,1,ATTIC,C,old,m,./images/ATTIC.png,,,,,,,,,,,,,,,,,,,,,,,,,,,,,,,,,,,
,,,,,,,,,,,,,,,,,5b4d31673d01bd0001ec447e,29,2022-02-12_17h56.23.132,lexical_decision_task_DD,2021.2.3,MacIntel,60.0024001,,,,,,,,,,,0.5519,1,,,,,,,,,,,,,,m,1,0.5519,,,,,,,,0.259437822,-0.038759266,0,0,0,,0,101,101,8,1,TULIP,LB,old,m,./images/TULIPLB.png,,,,,,,,,,,,,,,,,,,,,,,,,,,,,,,,,,,
,,,,,,,,,,,,,,,,,5b4d31673d01bd0001ec447e,29,2022-02-12_17h56.23.132,lexical_decision_task_DD,2021.2.3,MacIntel,60.0024001,,,,,,,,,,,0.6563,1,,,,,,,,,,,,,,z,1,0.6563,,,,,,,,0.259437822,-0.038759266,0,0,0,,0,102,102,84,1,HAXES,C,old,z,./images/HAXES.png,,,,,,,,,,,,,,,,,,,,,,,,,,,,,,,,,,,
,,,,,,,,,,,,,,,,,5b4d31673d01bd0001ec447e,29,2022-02-12_17h56.23.132,lexical_decision_task_DD,2021.2.3,MacIntel,60.0024001,,,,,,,,,,,0.5898,1,,,,,,,,,,,,,,z,1,0.5898,,,,,,,,0.259437822,-0.038759266,0,0,0,,0,103,103,117,1,STEEG,C,old,z,./images/STEEG.png,,,,,,,,,,,,,,,,,,,,,,,,,,,,,,,,,,,
,,,,,,,,,,,,,,,,,5b4d31673d01bd0001ec447e,29,2022-02-12_17h56.23.132,lexical_decision_task_DD,2021.2.3,MacIntel,60.0024001,,,,,,,,,,,1.0976,1,,,,,,,,,,,,,,z,1,1.0976,,,,,,,,0.259437822,-0.038759266,0,0,0,,0,104,104,136,1,WERVE,HB,old,z,./images/WERVEHB.png,,,,,,,,,,,,,,,,,,,,,,,,,,,,,,,,,,,
,,,,,,,,,,,,,,,,,5b4d31673d01bd0001ec447e,29,2022-02-12_17h56.23.132,lexical_decision_task_DD,2021.2.3,MacIntel,60.0024001,,,,,,,,,,,1.8619,1,,,,,,,,,,,,,,z,1,1.8619,,,,,,,,0.259437822,-0.038759266,0,0,0,,0,105,105,166,1,SHORY,HB,old,z,./images/SHORYHB.png,,,,,,,,,,,,,,,,,,,,,,,,,,,,,,,,,,,
,,,,,,,,,,,,,,,,,5b4d31673d01bd0001ec447e,29,2022-02-12_17h56.23.132,lexical_decision_task_DD,2021.2.3,MacIntel,60.0024001,,,,,,,,,,,0.8282,1,,,,,,,,,,,,,,m,1,0.8282,,,,,,,,0.259437822,-0.038759266,0,0,0,,0,106,106,43,1,MOSQUE,HB,old,m,./images/MOSQUEHB.png,,,,,,,,,,,,,,,,,,,,,,,,,,,,,,,,,,,
,,,,,,,,,,,,,,,,,5b4d31673d01bd0001ec447e,29,2022-02-12_17h56.23.132,lexical_decision_task_DD,2021.2.3,MacIntel,60.0024001,,,,,,,,,,,0.6072,1,,,,,,,,,,,,,,m,1,0.6072,,,,,,,,0.259437822,-0.038759266,0,0,0,,0,107,107,66,1,SWEAT,C,old,m,./images/SWEAT.png,,,,,,,,,,,,,,,,,,,,,,,,,,,,,,,,,,,
,,,,,,,,,,,,,,,,,5b4d31673d01bd0001ec447e,29,2022-02-12_17h56.23.132,lexical_decision_task_DD,2021.2.3,MacIntel,60.0024001,,,,,,,,,,,0.7948,1,,,,,,,,,,,,,,m,1,0.7948,,,,,,,,0.259437822,-0.038759266,0,0,0,,0,108,108,52,1,BANNER,HB,old,m,./images/BANNERHB.png,,,,,,,,,,,,,,,,,,,,,,,,,,,,,,,,,,,
,,,,,,,,,,,,,,,,,5b4d31673d01bd0001ec447e,29,2022-02-12_17h56.23.132,lexical_decision_task_DD,2021.2.3,MacIntel,60.0024001,,,,,,,,,,,0.627,1,,,,,,,,,,,,,,z,1,0.627,,,,,,,,0.259437822,-0.038759266,0,0,0,,0,109,109,119,1,PAFER,LB,old,z,./images/PAFERLB.png,,,,,,,,,,,,,,,,,,,,,,,,,,,,,,,,,,,
,,,,,,,,,,,,,,,,,5b4d31673d01bd0001ec447e,29,2022-02-12_17h56.23.132,lexical_decision_task_DD,2021.2.3,MacIntel,60.0024001,,,,,,,,,,,0.4961,1,,,,,,,,,,,,,,m,1,0.4961,,,,,,,,0.259437822,-0.038759266,0,0,0,,0,110,110,75,1,GRAIN,C,old,m,./images/GRAIN.png,,,,,,,,,,,,,,,,,,,,,,,,,,,,,,,,,,,
,,,,,,,,,,,,,,,,,5b4d31673d01bd0001ec447e,29,2022-02-12_17h56.23.132,lexical_decision_task_DD,2021.2.3,MacIntel,60.0024001,,,,,,,,,,,0.5919,1,,,,,,,,,,,,,,z,1,0.5919,,,,,,,,0.259437822,-0.038759266,0,0,0,,0,111,111,141,1,PLEET,C,old,z,./images/PLEET.png,,,,,,,,,,,,,,,,,,,,,,,,,,,,,,,,,,,
,,,,,,,,,,,,,,,,,5b4d31673d01bd0001ec447e,29,2022-02-12_17h56.23.132,lexical_decision_task_DD,2021.2.3,MacIntel,60.0024001,,,,,,,,,,,0.71,1,,,,,,,,,,,,,,z,1,0.71,,,,,,,,0.259437822,-0.038759266,0,0,0,,0,112,112,125,1,MOOKY,LB,old,z,./images/MOOKYLB.png,,,,,,,,,,,,,,,,,,,,,,,,,,,,,,,,,,,
,,,,,,,,,,,,,,,,,5b4d31673d01bd0001ec447e,29,2022-02-12_17h56.23.132,lexical_decision_task_DD,2021.2.3,MacIntel,60.0024001,,,,,,,,,,,0.6658,1,,,,,,,,,,,,,,m,1,0.6658,,,,,,,,0.259437822,-0.038759266,0,0,0,,0,113,113,34,1,CANYON,HB,old,m,./images/CANYONHB.png,,,,,,,,,,,,,,,,,,,,,,,,,,,,,,,,,,,
,,,,,,,,,,,,,,,,,5b4d31673d01bd0001ec447e,29,2022-02-12_17h56.23.132,lexical_decision_task_DD,2021.2.3,MacIntel,60.0024001,,,,,,,,,,,0.6157,1,,,,,,,,,,,,,,m,1,0.6157,,,,,,,,0.259437822,-0.038759266,0,0,0,,0,114,114,41,1,STRING,LB,old,m,./images/STRINGLB.png,,,,,,,,,,,,,,,,,,,,,,,,,,,,,,,,,,,
,,,,,,,,,,,,,,,,,5b4d31673d01bd0001ec447e,29,2022-02-12_17h56.23.132,lexical_decision_task_DD,2021.2.3,MacIntel,60.0024001,,,,,,,,,,,0.6759,1,,,,,,,,,,,,,,m,1,0.6759,,,,,,,,0.259437822,-0.038759266,0,0,0,,0,115,115,81,1,POODLE,C,old,m,./images/POODLE.png,,,,,,,,,,,,,,,,,,,,,,,,,,,,,,,,,,,
,,,,,,,,,,,,,,,,,5b4d31673d01bd0001ec447e,29,2022-02-12_17h56.23.132,lexical_decision_task_DD,2021.2.3,MacIntel,60.0024001,,,,,,,,,,,0.5731,1,,,,,,,,,,,,,,z,1,0.5731,,,,,,,,0.259437822,-0.038759266,0,0,0,,0,116,116,132,1,SCIFF,C,old,z,./images/SCIFF.png,,,,,,,,,,,,,,,,,,,,,,,,,,,,,,,,,,,
,,,,,,,,,,,,,,,,,5b4d31673d01bd0001ec447e,29,2022-02-12_17h56.23.132,lexical_decision_task_DD,2021.2.3,MacIntel,60.0024001,,,,,,,,,,,0.5232,1,,,,,,,,,,,,,,m,1,0.5232,,,,,,,,0.259437822,-0.038759266,0,0,0,,0,117,117,6,1,SQUARE,C,old,m,./images/SQUARE.png,,,,,,,,,,,,,,,,,,,,,,,,,,,,,,,,,,,
,,,,,,,,,,,,,,,,,5b4d31673d01bd0001ec447e,29,2022-02-12_17h56.23.132,lexical_decision_task_DD,2021.2.3,MacIntel,60.0024001,,,,,,,,,,,0.5919,1,,,,,,,,,,,,,,z,1,0.5919,,,,,,,,0.259437822,-0.038759266,0,0,0,,0,118,118,134,1,TROSS,LB,old,z,./images/TROSSLB.png,,,,,,,,,,,,,,,,,,,,,,,,,,,,,,,,,,,
,,,,,,,,,,,,,,,,,5b4d31673d01bd0001ec447e,29,2022-02-12_17h56.23.132,lexical_decision_task_DD,2021.2.3,MacIntel,60.0024001,,,,,,,,,,,0.607,1,,,,,,,,,,,,,,m,1,0.607,,,,,,,,0.259437822,-0.038759266,0,0,0,,0,119,119,0,1,TOMATO,C,old,m,./images/TOMATO.png,,,,,,,,,,,,,,,,,,,,,,,,,,,,,,,,,,,
,,,,,,,,,,,,,,,,,5b4d31673d01bd0001ec447e,29,2022-02-12_17h56.23.132,lexical_decision_task_DD,2021.2.3,MacIntel,60.0024001,,,,,,,,,,,0.6132,1,,,,,,,,,,,,,,z,1,0.6132,,,,,,,,0.259437822,-0.038759266,0,0,0,,0,120,120,160,1,VEETS,HB,old,z,./images/VEETSHB.png,,,,,,,,,,,,,,,,,,,,,,,,,,,,,,,,,,,
,,,,,,,,,,,,,,,,,5b4d31673d01bd0001ec447e,29,2022-02-12_17h56.23.132,lexical_decision_task_DD,2021.2.3,MacIntel,60.0024001,,,,,,,,,,,0.4623,1,,,,,,,,,,,,,,m,1,0.4623,,,,,,,,0.259437822,-0.038759266,0,0,0,,0,121,121,38,1,LADDER,LB,old,m,./images/LADDERLB.png,,,,,,,,,,,,,,,,,,,,,,,,,,,,,,,,,,,
,,,,,,,,,,,,,,,,,5b4d31673d01bd0001ec447e,29,2022-02-12_17h56.23.132,lexical_decision_task_DD,2021.2.3,MacIntel,60.0024001,,,,,,,,,,,0.5642,1,,,,,,,,,,,,,,z,1,0.5642,,,,,,,,0.259437822,-0.038759266,0,0,0,,0,122,122,147,1,ZOLES,C,old,z,./images/ZOLES.png,,,,,,,,,,,,,,,,,,,,,,,,,,,,,,,,,,,
,,,,,,,,,,,,,,,,,5b4d31673d01bd0001ec447e,29,2022-02-12_17h56.23.132,lexical_decision_task_DD,2021.2.3,MacIntel,60.0024001,,,,,,,,,,,0.881,0,,,,,,,,,,,,,,m,0,0.881,,,,,,,,0.259437822,-0.038759266,0,0,0,,0,123,123,106,1,CLUMS,HB,old,z,./images/CLUMSHB.png,,,,,,,,,,,,,,,,,,,,,,,,,,,,,,,,,,,
,,,,,,,,,,,,,,,,,5b4d31673d01bd0001ec447e,29,2022-02-12_17h56.23.132,lexical_decision_task_DD,2021.2.3,MacIntel,60.0024001,,,,,,,,,,,0.9447,1,,,,,,,,,,,,,,m,1,0.9447,,,,,,,,0.259437822,-0.038759266,0,0,0,,0,124,124,53,1,CARPET,LB,old,m,./images/CARPETLB.png,,,,,,,,,,,,,,,,,,,,,,,,,,,,,,,,,,,
,,,,,,,,,,,,,,,,,5b4d31673d01bd0001ec447e,29,2022-02-12_17h56.23.132,lexical_decision_task_DD,2021.2.3,MacIntel,60.0024001,,,,,,,,,,,0.5847,1,,,,,,,,,,,,,,z,1,0.5847,,,,,,,,0.259437822,-0.038759266,0,0,0,space,0,125,125,89,1,DRIEK,LB,old,z,./images/DRIEKLB.png,12.3237,,,,,,,,,,,,,,,,,,,,,,,,,,,,,,,,,,
,,,,,,,,,,,,,,,,,5b4d31673d01bd0001ec447e,29,2022-02-12_17h56.23.132,lexical_decision_task_DD,2021.2.3,MacIntel,60.0024001,,,,,,,,,,,0.5928,1,,,,,,,,,,,,,,z,1,0.5928,,,,,,,,0.259437822,-0.038759266,0,0,0,,0,126,126,150,1,NOOLS,C,old,z,./images/NOOLS.png,,,,,,,,,,,,,,,,,,,,,,,,,,,,,,,,,,,
,,,,,,,,,,,,,,,,,5b4d31673d01bd0001ec447e,29,2022-02-12_17h56.23.132,lexical_decision_task_DD,2021.2.3,MacIntel,60.0024001,,,,,,,,,,,0.502,1,,,,,,,,,,,,,,z,1,0.502,,,,,,,,0.259437822,-0.038759266,0,0,0,,0,127,127,137,1,JOOST,LB,old,z,./images/JOOSTLB.png,,,,,,,,,,,,,,,,,,,,,,,,,,,,,,,,,,,
,,,,,,,,,,,,,,,,,5b4d31673d01bd0001ec447e,29,2022-02-12_17h56.23.132,lexical_decision_task_DD,2021.2.3,MacIntel,60.0024001,,,,,,,,,,,0.6949,1,,,,,,,,,,,,,,m,1,0.6949,,,,,,,,0.259437822,-0.038759266,0,0,0,,0,128,128,37,1,BIRTH,HB,old,m,./images/BIRTHHB.png,,,,,,,,,,,,,,,,,,,,,,,,,,,,,,,,,,,
,,,,,,,,,,,,,,,,,5b4d31673d01bd0001ec447e,29,2022-02-12_17h56.23.132,lexical_decision_task_DD,2021.2.3,MacIntel,60.0024001,,,,,,,,,,,0.8023,1,,,,,,,,,,,,,,z,1,0.8023,,,,,,,,0.259437822,-0.038759266,0,0,0,,0,129,129,142,1,PLASK,HB,old,z,./images/PLASKHB.png,,,,,,,,,,,,,,,,,,,,,,,,,,,,,,,,,,,
,,,,,,,,,,,,,,,,,5b4d31673d01bd0001ec447e,29,2022-02-12_17h56.23.132,lexical_decision_task_DD,2021.2.3,MacIntel,60.0024001,,,,,,,,,,,0.4881,1,,,,,,,,,,,,,,m,1,0.4881,,,,,,,,0.259437822,-0.038759266,0,0,0,,0,130,130,57,1,MOOSE,C,old,m,./images/MOOSE.png,,,,,,,,,,,,,,,,,,,,,,,,,,,,,,,,,,,
,,,,,,,,,,,,,,,,,5b4d31673d01bd0001ec447e,29,2022-02-12_17h56.23.132,lexical_decision_task_DD,2021.2.3,MacIntel,60.0024001,,,,,,,,,,,0.5632,1,,,,,,,,,,,,,,z,1,0.5632,,,,,,,,0.259437822,-0.038759266,0,0,0,,0,131,131,107,1,FASKS,LB,old,z,./images/FASKSLB.png,,,,,,,,,,,,,,,,,,,,,,,,,,,,,,,,,,,
,,,,,,,,,,,,,,,,,5b4d31673d01bd0001ec447e,29,2022-02-12_17h56.23.132,lexical_decision_task_DD,2021.2.3,MacIntel,60.0024001,,,,,,,,,,,0.7339,1,,,,,,,,,,,,,,m,1,0.7339,,,,,,,,0.259437822,-0.038759266,0,0,0,,0,132,132,50,1,MALLET,LB,old,m,./images/MALLETLB.png,,,,,,,,,,,,,,,,,,,,,,,,,,,,,,,,,,,
,,,,,,,,,,,,,,,,,5b4d31673d01bd0001ec447e,29,2022-02-12_17h56.23.132,lexical_decision_task_DD,2021.2.3,MacIntel,60.0024001,,,,,,,,,,,0.6303,1,,,,,,,,,,,,,,m,1,0.6303,,,,,,,,0.259437822,-0.038759266,0,0,0,,0,133,133,19,1,DOUGH,HB,old,m,./images/DOUGHHB.png,,,,,,,,,,,,,,,,,,,,,,,,,,,,,,,,,,,
,,,,,,,,,,,,,,,,,5b4d31673d01bd0001ec447e,29,2022-02-12_17h56.23.132,lexical_decision_task_DD,2021.2.3,MacIntel,60.0024001,,,,,,,,,,,0.725,1,,,,,,,,,,,,,,z,1,0.725,,,,,,,,0.259437822,-0.038759266,0,0,0,,0,134,134,91,1,SHENS,HB,old,z,./images/SHENSHB.png,,,,,,,,,,,,,,,,,,,,,,,,,,,,,,,,,,,
,,,,,,,,,,,,,,,,,5b4d31673d01bd0001ec447e,29,2022-02-12_17h56.23.132,lexical_decision_task_DD,2021.2.3,MacIntel,60.0024001,,,,,,,,,,,1.4133,1,,,,,,,,,,,,,,z,1,1.4133,,,,,,,,0.259437822,-0.038759266,0,0,0,,0,135,135,157,1,INLER,HB,old,z,./images/INLERHB.png,,,,,,,,,,,,,,,,,,,,,,,,,,,,,,,,,,,
,,,,,,,,,,,,,,,,,5b4d31673d01bd0001ec447e,29,2022-02-12_17h56.23.132,lexical_decision_task_DD,2021.2.3,MacIntel,60.0024001,,,,,,,,,,,0.6982,1,,,,,,,,,,,,,,z,1,0.6982,,,,,,,,0.259437822,-0.038759266,0,0,0,,0,136,136,130,1,CRILL,HB,old,z,./images/CRILLHB.png,,,,,,,,,,,,,,,,,,,,,,,,,,,,,,,,,,,
,,,,,,,,,,,,,,,,,5b4d31673d01bd0001ec447e,29,2022-02-12_17h56.23.132,lexical_decision_task_DD,2021.2.3,MacIntel,60.0024001,,,,,,,,,,,0.4794,1,,,,,,,,,,,,,,m,1,0.4794,,,,,,,,0.259437822,-0.038759266,0,0,0,,0,137,137,35,1,PEACH,LB,old,m,./images/PEACHLB.png,,,,,,,,,,,,,,,,,,,,,,,,,,,,,,,,,,,
,,,,,,,,,,,,,,,,,5b4d31673d01bd0001ec447e,29,2022-02-12_17h56.23.132,lexical_decision_task_DD,2021.2.3,MacIntel,60.0024001,,,,,,,,,,,0.5724,1,,,,,,,,,,,,,,z,1,0.5724,,,,,,,,0.259437822,-0.038759266,0,0,0,,0,138,138,87,1,TRING,C,old,z,./images/TRING.png,,,,,,,,,,,,,,,,,,,,,,,,,,,,,,,,,,,
,,,,,,,,,,,,,,,,,5b4d31673d01bd0001ec447e,29,2022-02-12_17h56.23.132,lexical_decision_task_DD,2021.2.3,MacIntel,60.0024001,,,,,,,,,,,0.4609,1,,,,,,,,,,,,,,m,1,0.4609,,,,,,,,0.259437822,-0.038759266,0,0,0,,0,139,139,69,1,COOKER,C,old,m,./images/COOKER.png,,,,,,,,,,,,,,,,,,,,,,,,,,,,,,,,,,,
,,,,,,,,,,,,,,,,,5b4d31673d01bd0001ec447e,29,2022-02-12_17h56.23.132,lexical_decision_task_DD,2021.2.3,MacIntel,60.0024001,,,,,,,,,,,0.8606,1,,,,,,,,,,,,,,m,1,0.8606,,,,,,,,0.259437822,-0.038759266,0,0,0,,0,140,140,22,1,MELON,HB,old,m,./images/MELONHB.png,,,,,,,,,,,,,,,,,,,,,,,,,,,,,,,,,,,
,,,,,,,,,,,,,,,,,5b4d31673d01bd0001ec447e,29,2022-02-12_17h56.23.132,lexical_decision_task_DD,2021.2.3,MacIntel,60.0024001,,,,,,,,,,,0.462,1,,,,,,,,,,,,,,m,1,0.462,,,,,,,,0.259437822,-0.038759266,0,0,0,,0,141,141,12,1,SHORE,C,old,m,./images/SHORE.png,,,,,,,,,,,,,,,,,,,,,,,,,,,,,,,,,,,
,,,,,,,,,,,,,,,,,5b4d31673d01bd0001ec447e,29,2022-02-12_17h56.23.132,lexical_decision_task_DD,2021.2.3,MacIntel,60.0024001,,,,,,,,,,,1.1693,1,,,,,,,,,,,,,,z,1,1.1693,,,,,,,,0.259437822,-0.038759266,0,0,0,,0,142,142,109,1,BURGE,HB,old,z,./images/BURGEHB.png,,,,,,,,,,,,,,,,,,,,,,,,,,,,,,,,,,,
,,,,,,,,,,,,,,,,,5b4d31673d01bd0001ec447e,29,2022-02-12_17h56.23.132,lexical_decision_task_DD,2021.2.3,MacIntel,60.0024001,,,,,,,,,,,0.5588,1,,,,,,,,,,,,,,z,1,0.5588,,,,,,,,0.259437822,-0.038759266,0,0,0,,0,143,143,86,1,AIFED,LB,old,z,./images/AIFEDLB.png,,,,,,,,,,,,,,,,,,,,,,,,,,,,,,,,,,,
,,,,,,,,,,,,,,,,,5b4d31673d01bd0001ec447e,29,2022-02-12_17h56.23.132,lexical_decision_task_DD,2021.2.3,MacIntel,60.0024001,,,,,,,,,,,0.6861,1,,,,,,,,,,,,,,m,1,0.6861,,,,,,,,0.259437822,-0.038759266,0,0,0,,0,144,144,28,1,FALCON,HB,old,m,./images/FALCONHB.png,,,,,,,,,,,,,,,,,,,,,,,,,,,,,,,,,,,
,,,,,,,,,,,,,,,,,5b4d31673d01bd0001ec447e,29,2022-02-12_17h56.23.132,lexical_decision_task_DD,2021.2.3,MacIntel,60.0024001,,,,,,,,,,,0.3987,0,,,,,,,,,,,,,,m,0,0.3987,,,,,,,,0.259437822,-0.038759266,0,0,0,,0,145,145,162,1,LEICH,C,old,z,./images/LEICH.png,,,,,,,,,,,,,,,,,,,,,,,,,,,,,,,,,,,
,,,,,,,,,,,,,,,,,5b4d31673d01bd0001ec447e,29,2022-02-12_17h56.23.132,lexical_decision_task_DD,2021.2.3,MacIntel,60.0024001,,,,,,,,,,,0.7492,1,,,,,,,,,,,,,,z,1,0.7492,,,,,,,,0.259437822,-0.038759266,0,0,0,,0,146,146,148,1,JOMS,HB,old,z,./images/JOMSHB.png,,,,,,,,,,,,,,,,,,,,,,,,,,,,,,,,,,,
,,,,,,,,,,,,,,,,,5b4d31673d01bd0001ec447e,29,2022-02-12_17h56.23.132,lexical_decision_task_DD,2021.2.3,MacIntel,60.0024001,,,,,,,,,,,0.4505,1,,,,,,,,,,,,,,m,1,0.4505,,,,,,,,0.259437822,-0.038759266,0,0,0,,0,147,147,32,1,BARREL,LB,old,m,./images/BARRELLB.png,,,,,,,,,,,,,,,,,,,,,,,,,,,,,,,,,,,
,,,,,,,,,,,,,,,,,5b4d31673d01bd0001ec447e,29,2022-02-12_17h56.23.132,lexical_decision_task_DD,2021.2.3,MacIntel,60.0024001,,,,,,,,,,,0.5727,1,,,,,,,,,,,,,,z,1,0.5727,,,,,,,,0.259437822,-0.038759266,0,0,0,,0,148,148,156,1,HIXES,C,old,z,./images/HIXES.png,,,,,,,,,,,,,,,,,,,,,,,,,,,,,,,,,,,
,,,,,,,,,,,,,,,,,5b4d31673d01bd0001ec447e,29,2022-02-12_17h56.23.132,lexical_decision_task_DD,2021.2.3,MacIntel,60.0024001,,,,,,,,,,,0.4782,1,,,,,,,,,,,,,,m,1,0.4782,,,,,,,,0.259437822,-0.038759266,0,0,0,,0,149,149,56,1,PACKET,LB,old,m,./images/PACKETLB.png,,,,,,,,,,,,,,,,,,,,,,,,,,,,,,,,,,,
,,,,,,,,,,,,,,,,,5b4d31673d01bd0001ec447e,29,2022-02-12_17h56.23.132,lexical_decision_task_DD,2021.2.3,MacIntel,60.0024001,,,,,,,,,,,0.6134,1,,,,,,,,,,,,,,m,1,0.6134,,,,,,,,0.259437822,-0.038759266,0,0,0,,0,150,150,25,1,WRIST,HB,old,m,./images/WRISTHB.png,,,,,,,,,,,,,,,,,,,,,,,,,,,,,,,,,,,
,,,,,,,,,,,,,,,,,5b4d31673d01bd0001ec447e,29,2022-02-12_17h56.23.132,lexical_decision_task_DD,2021.2.3,MacIntel,60.0024001,,,,,,,,,,,0.4933,1,,,,,,,,,,,,,,z,1,0.4933,,,,,,,,0.259437822,-0.038759266,0,0,0,,0,151,151,129,1,PRANS,C,old,z,./images/PRANS.png,,,,,,,,,,,,,,,,,,,,,,,,,,,,,,,,,,,
,,,,,,,,,,,,,,,,,5b4d31673d01bd0001ec447e,29,2022-02-12_17h56.23.132,lexical_decision_task_DD,2021.2.3,MacIntel,60.0024001,,,,,,,,,,,0.5347,0,,,,,,,,,,,,,,m,0,0.5347,,,,,,,,0.259437822,-0.038759266,0,0,0,,0,152,152,88,1,GLUSH,HB,old,z,./images/GLUSHHB.png,,,,,,,,,,,,,,,,,,,,,,,,,,,,,,,,,,,
,,,,,,,,,,,,,,,,,5b4d31673d01bd0001ec447e,29,2022-02-12_17h56.23.132,lexical_decision_task_DD,2021.2.3,MacIntel,60.0024001,,,,,,,,,,,0.6523,1,,,,,,,,,,,,,,z,1,0.6523,,,,,,,,0.259437822,-0.038759266,0,0,0,,0,153,153,98,1,BAMPS,LB,old,z,./images/BAMPSLB.png,,,,,,,,,,,,,,,,,,,,,,,,,,,,,,,,,,,
,,,,,,,,,,,,,,,,,5b4d31673d01bd0001ec447e,29,2022-02-12_17h56.23.132,lexical_decision_task_DD,2021.2.3,MacIntel,60.0024001,,,,,,,,,,,0.5421,1,,,,,,,,,,,,,,m,1,0.5421,,,,,,,,0.259437822,-0.038759266,0,0,0,,0,154,154,63,1,MIRROR,C,old,m,./images/MIRROR.png,,,,,,,,,,,,,,,,,,,,,,,,,,,,,,,,,,,
,,,,,,,,,,,,,,,,,5b4d31673d01bd0001ec447e,29,2022-02-12_17h56.23.132,lexical_decision_task_DD,2021.2.3,MacIntel,60.0024001,,,,,,,,,,,0.6596,1,,,,,,,,,,,,,,z,1,0.6596,,,,,,,,0.259437822,-0.038759266,0,0,0,,0,155,155,94,1,BLANS,HB,old,z,./images/BLANSHB.png,,,,,,,,,,,,,,,,,,,,,,,,,,,,,,,,,,,
,,,,,,,,,,,,,,,,,5b4d31673d01bd0001ec447e,29,2022-02-12_17h56.23.132,lexical_decision_task_DD,2021.2.3,MacIntel,60.0024001,,,,,,,,,,,0.678,1,,,,,,,,,,,,,,z,1,0.678,,,,,,,,0.259437822,-0.038759266,0,0,0,,0,156,156,85,1,CHULK,HB,old,z,./images/CHULKHB.png,,,,,,,,,,,,,,,,,,,,,,,,,,,,,,,,,,,
,,,,,,,,,,,,,,,,,5b4d31673d01bd0001ec447e,29,2022-02-12_17h56.23.132,lexical_decision_task_DD,2021.2.3,MacIntel,60.0024001,,,,,,,,,,,0.6075,1,,,,,,,,,,,,,,z,1,0.6075,,,,,,,,0.259437822,-0.038759266,0,0,0,,0,157,157,138,1,PLICE,C,old,z,./images/PLICE.png,,,,,,,,,,,,,,,,,,,,,,,,,,,,,,,,,,,
,,,,,,,,,,,,,,,,,5b4d31673d01bd0001ec447e,29,2022-02-12_17h56.23.132,lexical_decision_task_DD,2021.2.3,MacIntel,60.0024001,,,,,,,,,,,0.9318,0,,,,,,,,,,,,,,m,0,0.9318,,,,,,,,0.259437822,-0.038759266,0,0,0,,0,158,158,115,1,MAWNS,HB,old,z,./images/MAWNSHB.png,,,,,,,,,,,,,,,,,,,,,,,,,,,,,,,,,,,
,,,,,,,,,,,,,,,,,5b4d31673d01bd0001ec447e,29,2022-02-12_17h56.23.132,lexical_decision_task_DD,2021.2.3,MacIntel,60.0024001,,,,,,,,,,,0.484,1,,,,,,,,,,,,,,m,1,0.484,,,,,,,,0.259437822,-0.038759266,0,0,0,,0,159,159,14,1,PICKLE,LB,old,m,./images/PICKLELB.png,,,,,,,,,,,,,,,,,,,,,,,,,,,,,,,,,,,
,,,,,,,,,,,,,,,,,5b4d31673d01bd0001ec447e,29,2022-02-12_17h56.23.132,lexical_decision_task_DD,2021.2.3,MacIntel,60.0024001,,,,,,,,,,,0.8022,1,,,,,,,,,,,,,,m,1,0.8022,,,,,,,,0.259437822,-0.038759266,0,0,0,,0,160,160,16,1,PENCE,HB,old,m,./images/PENCEHB.png,,,,,,,,,,,,,,,,,,,,,,,,,,,,,,,,,,,
,,,,,,,,,,,,,,,,,5b4d31673d01bd0001ec447e,29,2022-02-12_17h56.23.132,lexical_decision_task_DD,2021.2.3,MacIntel,60.0024001,,,,,,,,,,,0.8453,1,,,,,,,,,,,,,,m,1,0.8453,,,,,,,,0.259437822,-0.038759266,0,0,0,,0,161,161,71,1,PIMPLE,LB,old,m,./images/PIMPLELB.png,,,,,,,,,,,,,,,,,,,,,,,,,,,,,,,,,,,
,,,,,,,,,,,,,,,,,5b4d31673d01bd0001ec447e,29,2022-02-12_17h56.23.132,lexical_decision_task_DD,2021.2.3,MacIntel,60.0024001,,,,,,,,,,,0.5783,1,,,,,,,,,,,,,,z,1,0.5783,,,,,,,,0.259437822,-0.038759266,0,0,0,,0,162,162,95,1,HANTY,LB,old,z,./images/HANTYLB.png,,,,,,,,,,,,,,,,,,,,,,,,,,,,,,,,,,,
,,,,,,,,,,,,,,,,,5b4d31673d01bd0001ec447e,29,2022-02-12_17h56.23.132,lexical_decision_task_DD,2021.2.3,MacIntel,60.0024001,,,,,,,,,,,0.5494,1,,,,,,,,,,,,,,z,1,0.5494,,,,,,,,0.259437822,-0.038759266,0,0,0,,0,163,163,122,1,BLOOT,LB,old,z,./images/BLOOTLB.png,,,,,,,,,,,,,,,,,,,,,,,,,,,,,,,,,,,
,,,,,,,,,,,,,,,,,5b4d31673d01bd0001ec447e,29,2022-02-12_17h56.23.132,lexical_decision_task_DD,2021.2.3,MacIntel,60.0024001,,,,,,,,,,,0.9803,1,,,,,,,,,,,,,,z,1,0.9803,,,,,,,,0.259437822,-0.038759266,0,0,0,,0,164,164,164,1,SGREW,LB,old,z,./images/SGREWLB.png,,,,,,,,,,,,,,,,,,,,,,,,,,,,,,,,,,,
,,,,,,,,,,,,,,,,,5b4d31673d01bd0001ec447e,29,2022-02-12_17h56.23.132,lexical_decision_task_DD,2021.2.3,MacIntel,60.0024001,,,,,,,,,,,0.7175,1,,,,,,,,,,,,,,z,1,0.7175,,,,,,,,0.259437822,-0.038759266,0,0,0,,0,165,165,151,1,TINKY,HB,old,z,./images/TINKYHB.png,,,,,,,,,,,,,,,,,,,,,,,,,,,,,,,,,,,
,,,,,,,,,,,,,,,,,5b4d31673d01bd0001ec447e,29,2022-02-12_17h56.23.132,lexical_decision_task_DD,2021.2.3,MacIntel,60.0024001,,,,,,,,,,,0.4784,1,,,,,,,,,,,,,,m,1,0.4784,,,,,,,,0.259437822,-0.038759266,0,0,0,,0,166,166,2,1,BEARD,LB,old,m,./images/BEARDLB.png,,,,,,,,,,,,,,,,,,,,,,,,,,,,,,,,,,,
,,,,,,,,,,,,,,,,,5b4d31673d01bd0001ec447e,29,2022-02-12_17h56.23.132,lexical_decision_task_DD,2021.2.3,MacIntel,60.0024001,,,,,,,,,,,0.6267,1,,,,,,,,,,,,,,m,1,0.6267,,,,,,,,0.259437822,-0.038759266,0,0,0,,0,167,167,55,1,MUFFIN,HB,old,m,./images/MUFFINHB.png,,,,,,,,,,,,,,,,,,,,,,,,,,,,,,,,,,,
,,,,,,,,,,,,,,,,,5b4d31673d01bd0001ec447e,29,2022-02-12_17h56.23.132,lexical_decision_task_DD,2021.2.3,MacIntel,60.0024001,,,,,,,,,,,,,,,,,,,,,,,,,,,,,,,,,,,,,,,,,,,,,,,,How likely will it be that you will recognize the words presented clearly on a scale of 0 (not likely) to 100 (most likely)?,,,,,0.011212512,-0.407291099,1,0,0,jol_adv,4,3.9781,0,0,0,0,1,,,,,,,,,,,,,,,,,,,,,
,,,,,,,,,,,,,,,,,5b4d31673d01bd0001ec447e,29,2022-02-12_17h56.23.132,lexical_decision_task_DD,2021.2.3,MacIntel,60.0024001,,,,,,,,,,,,,,,,,,,,,,,,,,,,,,,,,,,,,,,,,,,,,,,,How likely will it be that you will recognize the words presented very blurred on a scale of 0 (not likely) to 100 (most likely)?,,,,,,,,,,,2,3.9139,0,1,1,2,1,,,,,,,,,,,,,,,,,,,,,
,,,,,,,,,,,,,,,,,5b4d31673d01bd0001ec447e,29,2022-02-12_17h56.23.132,lexical_decision_task_DD,2021.2.3,MacIntel,60.0024001,,,,,,,,,,,,,,,,,,,,,,,,,,,,,,,,,,,,,,,,,,,,,,,,How likely will it be that you will recognize the words presented slighly blurred on a scale of 0 (not likely) to 100 (most likely)?,,,,,,,,,,,3,2.9238,0,2,2,1,1,,,,,,,,,,,,,,,,,,,,,
space,5.7455,0.169757321,-0.336589854,0,0,0,,,,,,1,test,"In the next phase you will be presented with the words from the the first phase. Your job is to decide whether you remember seeing the word or not. If you remember seeing the word press ""old"" or type ""m"". If you do not remember seeing the word press ""new"" or type ""z"". Please press the space bar or click on continue to begin. ",,,5b4d31673d01bd0001ec447e,29,2022-02-12_17h56.23.132,lexical_decision_task_DD,2021.2.3,MacIntel,60.0024001,,,,,,,,,,,,,,,,,,,,,,,,,,,,,,,,,,,,,,,,,,,,,,,,,,,,,,,,,,,,,,,,,,0,0,0,0,1,,,,,,,,,,,,,,,,
space,3.4731,0.450689986,-0.38800162,0,0,0,,,,,,1,test,"In the next phase you will be presented with the words from the the first phase. Your job is to decide whether you remember seeing the word or not. If you remember seeing the word press ""old"" or type ""m"". If you do not remember seeing the word press ""new"" or type ""z"". Please press the space bar or click on continue to begin. ",,,5b4d31673d01bd0001ec447e,29,2022-02-12_17h56.23.132,lexical_decision_task_DD,2021.2.3,MacIntel,60.0024001,,,,,,,,,,,,,,,,,,,,,,,,,,,,,,,,,,,,,,,,,,,,,,,,,,,,,,,,,,,,,,,,,,1,0,1,0,1,,,,,,,,,,,,,,,,
space,3.0892,0.160191409,-0.079811274,0,0,0,,,,,,1,test,"In the next phase you will be presented with the words from the the first phase. Your job is to decide whether you remember seeing the word or not. If you remember seeing the word press ""old"" or type ""m"". If you do not remember seeing the word press ""new"" or type ""z"". Please press the space bar or click on continue to begin. ",,,5b4d31673d01bd0001ec447e,29,2022-02-12_17h56.23.132,lexical_decision_task_DD,2021.2.3,MacIntel,60.0024001,,,,,,,,,,,,,,,,,,,,,,,,,,,,,,,,,,,,,,,,,,,,,,,,,,,,,,,,,,,,,,,,,,2,0,2,0,1,,,,,,,,,,,,,,,,
,,0.105981264,-0.443300651,1,0,0,,,,,,1,test,"In the next phase you will be presented with the words from the the first phase. Your job is to decide whether you remember seeing the word or not. If you remember seeing the word press ""old"" or type ""m"". If you do not remember seeing the word press ""new"" or type ""z"". Please press the space bar or click on continue to begin. ",,,5b4d31673d01bd0001ec447e,29,2022-02-12_17h56.23.132,lexical_decision_task_DD,2021.2.3,MacIntel,60.0024001,,,,,,,,,,,,,,,,,,,,,,,,,,,,,,,,,,,,,,,,,,,,,,,,,,,,,,,,,,,,,,,,,,3,0,3,0,1,instr_done_button,,,,,,,,,,,,,,,
,,0.05531747,-0.423461561,1,0,0,,,,,,1,test,"In the next phase you will be presented with the words from the the first phase. Your job is to decide whether you remember seeing the word or not. If you remember seeing the word press ""old"" or type ""m"". If you do not remember seeing the word press ""new"" or type ""z"". Please press the space bar or click on continue to begin. ",,,5b4d31673d01bd0001ec447e,29,2022-02-12_17h56.23.132,lexical_decision_task_DD,2021.2.3,MacIntel,60.0024001,,,,,,,,,,,,,,,,,,,,,,,,,,,,,,,,,,,,,,,,,,,,,,,,,,,,,,,,,,,,,,,,,,4,0,4,0,1,instr_done_button,,,,,,,,,,,,,,,
,,,,,,,,,,,,,,,,,5b4d31673d01bd0001ec447e,29,2022-02-12_17h56.23.132,lexical_decision_task_DD,2021.2.3,MacIntel,60.0024001,,,,,,,,,,,0.8483,1,,,,,,,,,,,,,,,,,,,,,,,,0.05531747,-0.423461561,0,0,0,,,,,,,DONKEY,HB,z,m,./images/DONKEYHB.png,,,,,,,,,,,,,,,,,,,,,z,1,0.8483,,,,,,,,0,0,0,103,1
,,,,,,,,,,,,,,,,,5b4d31673d01bd0001ec447e,29,2022-02-12_17h56.23.132,lexical_decision_task_DD,2021.2.3,MacIntel,60.0024001,,,,,,,,,,,0.9775,0,,,,,,,,,,,,,,,,,,,,,,,,0.05531747,-0.423461561,0,0,0,,,,,,,HOCKEY,LB,z,m,./images/HOCKEYLB.png,,,,,,,,,,,,,,,,,,,,,m,0,0.9775,,,,,,,,0,1,1,116,1
,,,,,,,,,,,,,,,,,5b4d31673d01bd0001ec447e,29,2022-02-12_17h56.23.132,lexical_decision_task_DD,2021.2.3,MacIntel,60.0024001,,,,,,,,,,,0.7971,1,,,,,,,,,,,,,,,,,,,,,,,,0.05531747,-0.423461561,0,0,0,,,,,,,CANDY,C,z,m,./images/CANDY.png,,,,,,,,,,,,,,,,,,,,,z,1,0.7971,,,,,,,,0,2,2,123,1
,,,,,,,,,,,,,,,,,5b4d31673d01bd0001ec447e,29,2022-02-12_17h56.23.132,lexical_decision_task_DD,2021.2.3,MacIntel,60.0024001,,,,,,,,,,,0.5775,1,,,,,,,,,,,,,,,,,,,,,,,,0.05531747,-0.423461561,0,0,0,,,,,,,BRUSH,LB,z,m,./images/BRUSHLB.png,,,,,,,,,,,,,,,,,,,,,z,1,0.5775,,,,,,,,0,3,3,143,1
,,,,,,,,,,,,,,,,,5b4d31673d01bd0001ec447e,29,2022-02-12_17h56.23.132,lexical_decision_task_DD,2021.2.3,MacIntel,60.0024001,,,,,,,,,,,0.8477,1,,,,,,,,,,,,,,,,,,,,,,,,0.05531747,-0.423461561,0,0,0,,,,,,,CRADLE,LB,m,m,./images/CRADLELB.png,,,,,,,,,,,,,,,,,,,,,m,1,0.8477,,,,,,,,0,4,4,20,1
,,,,,,,,,,,,,,,,,5b4d31673d01bd0001ec447e,29,2022-02-12_17h56.23.132,lexical_decision_task_DD,2021.2.3,MacIntel,60.0024001,,,,,,,,,,,0.6476,1,,,,,,,,,,,,,,,,,,,,,,,,0.05531747,-0.423461561,0,0,0,,,,,,,MELON,HB,m,m,./images/MELONHB.png,,,,,,,,,,,,,,,,,,,,,m,1,0.6476,,,,,,,,0,5,5,22,1
,,,,,,,,,,,,,,,,,5b4d31673d01bd0001ec447e,29,2022-02-12_17h56.23.132,lexical_decision_task_DD,2021.2.3,MacIntel,60.0024001,,,,,,,,,,,0.5966,1,,,,,,,,,,,,,,,,,,,,,,,,0.05531747,-0.423461561,0,0,0,,,,,,,CARPET,LB,m,m,./images/CARPETLB.png,,,,,,,,,,,,,,,,,,,,,m,1,0.5966,,,,,,,,0,6,6,53,1
,,,,,,,,,,,,,,,,,5b4d31673d01bd0001ec447e,29,2022-02-12_17h56.23.132,lexical_decision_task_DD,2021.2.3,MacIntel,60.0024001,,,,,,,,,,,1.1493,1,,,,,,,,,,,,,,,,,,,,,,,,0.05531747,-0.423461561,0,0,0,,,,,,,FERRY,C,z,m,./images/FERRY.png,,,,,,,,,,,,,,,,,,,,,z,1,1.1493,,,,,,,,0,7,7,141,1
,,,,,,,,,,,,,,,,,5b4d31673d01bd0001ec447e,29,2022-02-12_17h56.23.132,lexical_decision_task_DD,2021.2.3,MacIntel,60.0024001,,,,,,,,,,,0.7809,1,,,,,,,,,,,,,,,,,,,,,,,,0.05531747,-0.423461561,0,0,0,,,,,,,FOLDER,C,m,m,./images/FOLDER.png,,,,,,,,,,,,,,,,,,,,,m,1,0.7809,,,,,,,,0,8,8,42,1
,,,,,,,,,,,,,,,,,5b4d31673d01bd0001ec447e,29,2022-02-12_17h56.23.132,lexical_decision_task_DD,2021.2.3,MacIntel,60.0024001,,,,,,,,,,,1.0271,1,,,,,,,,,,,,,,,,,,,,,,,,0.05531747,-0.423461561,0,0,0,,,,,,,SNACK,HB,m,m,./images/SNACKHB.png,,,,,,,,,,,,,,,,,,,,,m,1,1.0271,,,,,,,,0,9,9,73,1
,,,,,,,,,,,,,,,,,5b4d31673d01bd0001ec447e,29,2022-02-12_17h56.23.132,lexical_decision_task_DD,2021.2.3,MacIntel,60.0024001,,,,,,,,,,,0.6468,0,,,,,,,,,,,,,,,,,,,,,,,,0.05531747,-0.423461561,0,0,0,,,,,,,BUBBLE,LB,z,m,./images/BUBBLELB.png,,,,,,,,,,,,,,,,,,,,,m,0,0.6468,,,,,,,,0,10,10,155,1
,,,,,,,,,,,,,,,,,5b4d31673d01bd0001ec447e,29,2022-02-12_17h56.23.132,lexical_decision_task_DD,2021.2.3,MacIntel,60.0024001,,,,,,,,,,,0.8136,0,,,,,,,,,,,,,,,,,,,,,,,,0.05531747,-0.423461561,0,0,0,,,,,,,STREAM,LB,z,m,./images/STREAMLB.png,,,,,,,,,,,,,,,,,,,,,m,0,0.8136,,,,,,,,0,11,11,125,1
,,,,,,,,,,,,,,,,,5b4d31673d01bd0001ec447e,29,2022-02-12_17h56.23.132,lexical_decision_task_DD,2021.2.3,MacIntel,60.0024001,,,,,,,,,,,0.6334,1,,,,,,,,,,,,,,,,,,,,,,,,0.05531747,-0.423461561,0,0,0,,,,,,,PICKLE,LB,m,m,./images/PICKLELB.png,,,,,,,,,,,,,,,,,,,,,m,1,0.6334,,,,,,,,0,12,12,14,1
,,,,,,,,,,,,,,,,,5b4d31673d01bd0001ec447e,29,2022-02-12_17h56.23.132,lexical_decision_task_DD,2021.2.3,MacIntel,60.0024001,,,,,,,,,,,0.6476,1,,,,,,,,,,,,,,,,,,,,,,,,0.05531747,-0.423461561,0,0,0,,,,,,,BARREL,LB,m,m,./images/BARRELLB.png,,,,,,,,,,,,,,,,,,,,,m,1,0.6476,,,,,,,,0,13,13,32,1
,,,,,,,,,,,,,,,,,5b4d31673d01bd0001ec447e,29,2022-02-12_17h56.23.132,lexical_decision_task_DD,2021.2.3,MacIntel,60.0024001,,,,,,,,,,,0.7365,0,,,,,,,,,,,,,,,,,,,,,,,,0.05531747,-0.423461561,0,0,0,,,,,,,PEBBLE,HB,z,m,./images/PEBBLEHB.png,,,,,,,,,,,,,,,,,,,,,m,0,0.7365,,,,,,,,0,14,14,166,1
,,,,,,,,,,,,,,,,,5b4d31673d01bd0001ec447e,29,2022-02-12_17h56.23.132,lexical_decision_task_DD,2021.2.3,MacIntel,60.0024001,,,,,,,,,,,0.7163,1,,,,,,,,,,,,,,,,,,,,,,,,0.05531747,-0.423461561,0,0,0,,,,,,,TIGER,HB,z,m,./images/TIGERHB.png,,,,,,,,,,,,,,,,,,,,,z,1,0.7163,,,,,,,,0,15,15,121,1
,,,,,,,,,,,,,,,,,5b4d31673d01bd0001ec447e,29,2022-02-12_17h56.23.132,lexical_decision_task_DD,2021.2.3,MacIntel,60.0024001,,,,,,,,,,,0.6623,1,,,,,,,,,,,,,,,,,,,,,,,,0.05531747,-0.423461561,0,0,0,,,,,,,BEARD,LB,m,m,./images/BEARDLB.png,,,,,,,,,,,,,,,,,,,,,m,1,0.6623,,,,,,,,0,16,16,2,1
,,,,,,,,,,,,,,,,,5b4d31673d01bd0001ec447e,29,2022-02-12_17h56.23.132,lexical_decision_task_DD,2021.2.3,MacIntel,60.0024001,,,,,,,,,,,3.0405,1,,,,,,,,,,,,,,,,,,,,,,,,0.05531747,-0.422438822,0,0,0,,,,,,,PISTOL,LB,z,m,./images/PISTOLLB.png,,,,,,,,,,,,,,,,,,,,,z,1,3.0405,,,,,,,,0,17,17,113,1
,,,,,,,,,,,,,,,,,5b4d31673d01bd0001ec447e,29,2022-02-12_17h56.23.132,lexical_decision_task_DD,2021.2.3,MacIntel,60.0024001,,,,,,,,,,,0.6808,1,,,,,,,,,,,,,,,,,,,,,,,,0.05531747,-0.422438822,0,0,0,,,,,,,WHISKY,LB,z,m,./images/WHISKYLB.png,,,,,,,,,,,,,,,,,,,,,z,1,0.6808,,,,,,,,0,18,18,167,1
,,,,,,,,,,,,,,,,,5b4d31673d01bd0001ec447e,29,2022-02-12_17h56.23.132,lexical_decision_task_DD,2021.2.3,MacIntel,60.0024001,,,,,,,,,,,0.6625,1,,,,,,,,,,,,,,,,,,,,,,,,0.05531747,-0.422438822,0,0,0,,,,,,,SAILOR,HB,m,m,./images/SAILORHB.png,,,,,,,,,,,,,,,,,,,,,m,1,0.6625,,,,,,,,0,19,19,67,1
,,,,,,,,,,,,,,,,,5b4d31673d01bd0001ec447e,29,2022-02-12_17h56.23.132,lexical_decision_task_DD,2021.2.3,MacIntel,60.0024001,,,,,,,,,,,1.7778,1,,,,,,,,,,,,,,,,,,,,,,,,0.05531747,-0.422438822,0,0,0,,,,,,,SAUCE,C,z,m,./images/SAUCE.png,,,,,,,,,,,,,,,,,,,,,z,1,1.7778,,,,,,,,0,20,20,135,1
,,,,,,,,,,,,,,,,,5b4d31673d01bd0001ec447e,29,2022-02-12_17h56.23.132,lexical_decision_task_DD,2021.2.3,MacIntel,60.0024001,,,,,,,,,,,0.7199,0,,,,,,,,,,,,,,,,,,,,,,,,0.05531747,-0.422438822,0,0,0,,,,,,,SNAKE,HB,z,m,./images/SNAKEHB.png,,,,,,,,,,,,,,,,,,,,,m,0,0.7199,,,,,,,,0,21,21,124,1
,,,,,,,,,,,,,,,,,5b4d31673d01bd0001ec447e,29,2022-02-12_17h56.23.132,lexical_decision_task_DD,2021.2.3,MacIntel,60.0024001,,,,,,,,,,,0.7527,1,,,,,,,,,,,,,,,,,,,,,,,,0.05531747,-0.422438822,0,0,0,,,,,,,PIMPLE,LB,m,m,./images/PIMPLELB.png,,,,,,,,,,,,,,,,,,,,,m,1,0.7527,,,,,,,,0,22,22,71,1
,,,,,,,,,,,,,,,,,5b4d31673d01bd0001ec447e,29,2022-02-12_17h56.23.132,lexical_decision_task_DD,2021.2.3,MacIntel,60.0024001,,,,,,,,,,,0.5535,1,,,,,,,,,,,,,,,,,,,,,,,,0.05531747,-0.422438822,0,0,0,,,,,,,CLIFF,LB,z,m,./images/CLIFFLB.png,,,,,,,,,,,,,,,,,,,,,z,1,0.5535,,,,,,,,0,23,23,92,1
,,,,,,,,,,,,,,,,,5b4d31673d01bd0001ec447e,29,2022-02-12_17h56.23.132,lexical_decision_task_DD,2021.2.3,MacIntel,60.0024001,,,,,,,,,,,0.5293,1,,,,,,,,,,,,,,,,,,,,,,,,0.05531747,-0.422438822,0,0,0,,,,,,,PURSE,LB,m,m,./images/PURSELB.png,,,,,,,,,,,,,,,,,,,,,m,1,0.5293,,,,,,,,0,24,24,62,1
,,,,,,,,,,,,,,,,,5b4d31673d01bd0001ec447e,29,2022-02-12_17h56.23.132,lexical_decision_task_DD,2021.2.3,MacIntel,60.0024001,,,,,,,,,,,2.0152,1,,,,,,,,,,,,,,,,,,,,,,,,0.05531747,-0.422438822,0,0,0,,,,,,,KITTEN,C,m,m,./images/KITTEN.png,,,,,,,,,,,,,,,,,,,,,m,1,2.0152,,,,,,,,0,25,25,45,1
,,,,,,,,,,,,,,,,,5b4d31673d01bd0001ec447e,29,2022-02-12_17h56.23.132,lexical_decision_task_DD,2021.2.3,MacIntel,60.0024001,,,,,,,,,,,0.7152,1,,,,,,,,,,,,,,,,,,,,,,,,0.05531747,-0.422438822,0,0,0,,,,,,,WALRUS,LB,m,m,./images/WALRUSLB.png,,,,,,,,,,,,,,,,,,,,,m,1,0.7152,,,,,,,,0,26,26,23,1
,,,,,,,,,,,,,,,,,5b4d31673d01bd0001ec447e,29,2022-02-12_17h56.23.132,lexical_decision_task_DD,2021.2.3,MacIntel,60.0024001,,,,,,,,,,,1.4777,0,,,,,,,,,,,,,,,,,,,,,,,,0.05531747,-0.422438822,0,0,0,,,,,,,CANOE,HB,z,m,./images/CANOEHB.png,,,,,,,,,,,,,,,,,,,,,m,0,1.4777,,,,,,,,0,27,27,142,1
,,,,,,,,,,,,,,,,,5b4d31673d01bd0001ec447e,29,2022-02-12_17h56.23.132,lexical_decision_task_DD,2021.2.3,MacIntel,60.0024001,,,,,,,,,,,0.8537,1,,,,,,,,,,,,,,,,,,,,,,,,0.05531747,-0.422438822,0,0,0,,,,,,,POSTER,LB,z,m,./images/POSTERLB.png,,,,,,,,,,,,,,,,,,,,,z,1,0.8537,,,,,,,,0,28,28,137,1
,,,,,,,,,,,,,,,,,5b4d31673d01bd0001ec447e,29,2022-02-12_17h56.23.132,lexical_decision_task_DD,2021.2.3,MacIntel,60.0024001,,,,,,,,,,,1.1176,1,,,,,,,,,,,,,,,,,,,,,,,,0.05531747,-0.422438822,0,0,0,,,,,,,BISHOP,HB,z,m,./images/BISHOPHB.png,,,,,,,,,,,,,,,,,,,,,z,1,1.1176,,,,,,,,0,29,29,133,1
,,,,,,,,,,,,,,,,,5b4d31673d01bd0001ec447e,29,2022-02-12_17h56.23.132,lexical_decision_task_DD,2021.2.3,MacIntel,60.0024001,,,,,,,,,,,1.4156,0,,,,,,,,,,,,,,,,,,,,,,,,0.05531747,-0.422438822,0,0,0,,,,,,,SQUARE,C,m,m,./images/SQUARE.png,,,,,,,,,,,,,,,,,,,,,z,0,1.4156,,,,,,,,0,30,30,6,1
,,,,,,,,,,,,,,,,,5b4d31673d01bd0001ec447e,29,2022-02-12_17h56.23.132,lexical_decision_task_DD,2021.2.3,MacIntel,60.0024001,,,,,,,,,,,0.6144,1,,,,,,,,,,,,,,,,,,,,,,,,0.05531747,-0.422438822,0,0,0,,,,,,,MUFFIN,HB,m,m,./images/MUFFINHB.png,,,,,,,,,,,,,,,,,,,,,m,1,0.6144,,,,,,,,0,31,31,55,1
,,,,,,,,,,,,,,,,,5b4d31673d01bd0001ec447e,29,2022-02-12_17h56.23.132,lexical_decision_task_DD,2021.2.3,MacIntel,60.0024001,,,,,,,,,,,0.5954,0,,,,,,,,,,,,,,,,,,,,,,,,0.05531747,-0.422438822,0,0,0,,,,,,,STAIN,C,z,m,./images/STAIN.png,,,,,,,,,,,,,,,,,,,,,m,0,0.5954,,,,,,,,0,32,32,90,1
,,,,,,,,,,,,,,,,,5b4d31673d01bd0001ec447e,29,2022-02-12_17h56.23.132,lexical_decision_task_DD,2021.2.3,MacIntel,60.0024001,,,,,,,,,,,0.6712,0,,,,,,,,,,,,,,,,,,,,,,,,0.05531747,-0.422438822,0,0,0,,,,,,,MONKEY,C,z,m,./images/MONKEY.png,,,,,,,,,,,,,,,,,,,,,m,0,0.6712,,,,,,,,0,33,33,129,1
,,,,,,,,,,,,,,,,,5b4d31673d01bd0001ec447e,29,2022-02-12_17h56.23.132,lexical_decision_task_DD,2021.2.3,MacIntel,60.0024001,,,,,,,,,,,0.5669,0,,,,,,,,,,,,,,,,,,,,,,,,0.05531747,-0.422438822,0,0,0,,,,,,,LIZARD,LB,m,m,./images/LIZARDLB.png,,,,,,,,,,,,,,,,,,,,,z,0,0.5669,,,,,,,,0,34,34,44,1
,,,,,,,,,,,,,,,,,5b4d31673d01bd0001ec447e,29,2022-02-12_17h56.23.132,lexical_decision_task_DD,2021.2.3,MacIntel,60.0024001,,,,,,,,,,,0.7267,1,,,,,,,,,,,,,,,,,,,,,,,,0.05531747,-0.422438822,0,0,0,,,,,,,CANYON,HB,m,m,./images/CANYONHB.png,,,,,,,,,,,,,,,,,,,,,m,1,0.7267,,,,,,,,0,35,35,34,1
,,,,,,,,,,,,,,,,,5b4d31673d01bd0001ec447e,29,2022-02-12_17h56.23.132,lexical_decision_task_DD,2021.2.3,MacIntel,60.0024001,,,,,,,,,,,0.6277,1,,,,,,,,,,,,,,,,,,,,,,,,0.05531747,-0.422438822,0,0,0,,,,,,,BERRY,LB,m,m,./images/BERRYLB.png,,,,,,,,,,,,,,,,,,,,,m,1,0.6277,,,,,,,,0,36,36,47,1
,,,,,,,,,,,,,,,,,5b4d31673d01bd0001ec447e,29,2022-02-12_17h56.23.132,lexical_decision_task_DD,2021.2.3,MacIntel,60.0024001,,,,,,,,,,,0.649,1,,,,,,,,,,,,,,,,,,,,,,,,0.05531747,-0.422438822,0,0,0,,,,,,,CURRY,C,z,m,./images/CURRY.png,,,,,,,,,,,,,,,,,,,,,z,1,0.649,,,,,,,,0,37,37,144,1
,,,,,,,,,,,,,,,,,5b4d31673d01bd0001ec447e,29,2022-02-12_17h56.23.132,lexical_decision_task_DD,2021.2.3,MacIntel,60.0024001,,,,,,,,,,,0.8539,0,,,,,,,,,,,,,,,,,,,,,,,,0.05531747,-0.422438822,0,0,0,,,,,,,LAGOON,LB,z,m,./images/LAGOONLB.png,,,,,,,,,,,,,,,,,,,,,m,0,0.8539,,,,,,,,0,38,38,131,1
,,,,,,,,,,,,,,,,,5b4d31673d01bd0001ec447e,29,2022-02-12_17h56.23.132,lexical_decision_task_DD,2021.2.3,MacIntel,60.0024001,,,,,,,,,,,0.733,1,,,,,,,,,,,,,,,,,,,,,,,,0.05531747,-0.422438822,0,0,0,,,,,,,SHELF,C,m,m,./images/SHELF.png,,,,,,,,,,,,,,,,,,,,,m,1,0.733,,,,,,,,0,39,39,39,1
,,,,,,,,,,,,,,,,,5b4d31673d01bd0001ec447e,29,2022-02-12_17h56.23.132,lexical_decision_task_DD,2021.2.3,MacIntel,60.0024001,,,,,,,,,,,1.2355,1,,,,,,,,,,,,,,,,,,,,,,,,0.05531747,-0.422438822,0,0,0,,,,,,,TULIP,LB,m,m,./images/TULIPLB.png,,,,,,,,,,,,,,,,,,,,,m,1,1.2355,,,,,,,,0,40,40,8,1
,,,,,,,,,,,,,,,,,5b4d31673d01bd0001ec447e,29,2022-02-12_17h56.23.132,lexical_decision_task_DD,2021.2.3,MacIntel,60.0024001,,,,,,,,,,,0.7322,1,,,,,,,,,,,,,,,,,,,,,,,,0.05531747,-0.422438822,0,0,0,space,,,,,,SWEAT,C,m,m,./images/SWEAT.png,6.0156,,,,,,,,,,,,,,,,,,,,m,1,0.7322,,,,,,,,0,41,41,66,1
,,,,,,,,,,,,,,,,,5b4d31673d01bd0001ec447e,29,2022-02-12_17h56.23.132,lexical_decision_task_DD,2021.2.3,MacIntel,60.0024001,,,,,,,,,,,0.7514,1,,,,,,,,,,,,,,,,,,,,,,,,0.05531747,-0.422438822,0,0,0,,,,,,,JAGUAR,C,m,m,./images/JAGUAR.png,,,,,,,,,,,,,,,,,,,,,m,1,0.7514,,,,,,,,0,42,42,18,1
,,,,,,,,,,,,,,,,,5b4d31673d01bd0001ec447e,29,2022-02-12_17h56.23.132,lexical_decision_task_DD,2021.2.3,MacIntel,60.0024001,,,,,,,,,,,0.7537,1,,,,,,,,,,,,,,,,,,,,,,,,0.05531747,-0.422438822,0,0,0,,,,,,,TORCH,LB,m,m,./images/TORCHLB.png,,,,,,,,,,,,,,,,,,,,,m,1,0.7537,,,,,,,,0,43,43,68,1
,,,,,,,,,,,,,,,,,5b4d31673d01bd0001ec447e,29,2022-02-12_17h56.23.132,lexical_decision_task_DD,2021.2.3,MacIntel,60.0024001,,,,,,,,,,,0.5883,0,,,,,,,,,,,,,,,,,,,,,,,,0.05531747,-0.422438822,0,0,0,,,,,,,SKIING,LB,m,m,./images/SKIINGLB.png,,,,,,,,,,,,,,,,,,,,,z,0,0.5883,,,,,,,,0,44,44,17,1
,,,,,,,,,,,,,,,,,5b4d31673d01bd0001ec447e,29,2022-02-12_17h56.23.132,lexical_decision_task_DD,2021.2.3,MacIntel,60.0024001,,,,,,,,,,,0.6198,1,,,,,,,,,,,,,,,,,,,,,,,,0.05531747,-0.422438822,0,0,0,,,,,,,PEACH,LB,m,m,./images/PEACHLB.png,,,,,,,,,,,,,,,,,,,,,m,1,0.6198,,,,,,,,0,45,45,35,1
,,,,,,,,,,,,,,,,,5b4d31673d01bd0001ec447e,29,2022-02-12_17h56.23.132,lexical_decision_task_DD,2021.2.3,MacIntel,60.0024001,,,,,,,,,,,0.7977,1,,,,,,,,,,,,,,,,,,,,,,,,0.05531747,-0.422438822,0,0,0,,,,,,,STATUE,C,z,m,./images/STATUE.png,,,,,,,,,,,,,,,,,,,,,z,1,0.7977,,,,,,,,0,46,46,150,1
,,,,,,,,,,,,,,,,,5b4d31673d01bd0001ec447e,29,2022-02-12_17h56.23.132,lexical_decision_task_DD,2021.2.3,MacIntel,60.0024001,,,,,,,,,,,0.6472,0,,,,,,,,,,,,,,,,,,,,,,,,0.05531747,-0.422438822,0,0,0,,,,,,,TOWEL,HB,z,m,./images/TOWELHB.png,,,,,,,,,,,,,,,,,,,,,m,0,0.6472,,,,,,,,0,47,47,85,1
,,,,,,,,,,,,,,,,,5b4d31673d01bd0001ec447e,29,2022-02-12_17h56.23.132,lexical_decision_task_DD,2021.2.3,MacIntel,60.0024001,,,,,,,,,,,0.5187,1,,,,,,,,,,,,,,,,,,,,,,,,0.05531747,-0.422438822,0,0,0,,,,,,,JELLY,HB,m,m,./images/JELLYHB.png,,,,,,,,,,,,,,,,,,,,,m,1,0.5187,,,,,,,,0,48,48,64,1
,,,,,,,,,,,,,,,,,5b4d31673d01bd0001ec447e,29,2022-02-12_17h56.23.132,lexical_decision_task_DD,2021.2.3,MacIntel,60.0024001,,,,,,,,,,,0.8506,1,,,,,,,,,,,,,,,,,,,,,,,,0.05531747,-0.422438822,0,0,0,,,,,,,ARTIST,HB,z,m,./images/ARTISTHB.png,,,,,,,,,,,,,,,,,,,,,z,1,0.8506,,,,,,,,0,49,49,145,1
,,,,,,,,,,,,,,,,,5b4d31673d01bd0001ec447e,29,2022-02-12_17h56.23.132,lexical_decision_task_DD,2021.2.3,MacIntel,60.0024001,,,,,,,,,,,0.6471,0,,,,,,,,,,,,,,,,,,,,,,,,0.05531747,-0.422438822,0,0,0,,,,,,,SHORE,C,m,m,./images/SHORE.png,,,,,,,,,,,,,,,,,,,,,z,0,0.6471,,,,,,,,0,50,50,12,1
,,,,,,,,,,,,,,,,,5b4d31673d01bd0001ec447e,29,2022-02-12_17h56.23.132,lexical_decision_task_DD,2021.2.3,MacIntel,60.0024001,,,,,,,,,,,0.7802,1,,,,,,,,,,,,,,,,,,,,,,,,0.05531747,-0.422438822,0,0,0,,,,,,,MUMMY,HB,z,m,./images/MUMMYHB.png,,,,,,,,,,,,,,,,,,,,,z,1,0.7802,,,,,,,,0,51,51,130,1
,,,,,,,,,,,,,,,,,5b4d31673d01bd0001ec447e,29,2022-02-12_17h56.23.132,lexical_decision_task_DD,2021.2.3,MacIntel,60.0024001,,,,,,,,,,,0.6636,0,,,,,,,,,,,,,,,,,,,,,,,,0.05531747,-0.422438822,0,0,0,,,,,,,BRIDE,HB,z,m,./images/BRIDEHB.png,,,,,,,,,,,,,,,,,,,,,m,0,0.6636,,,,,,,,0,52,52,148,1
,,,,,,,,,,,,,,,,,5b4d31673d01bd0001ec447e,29,2022-02-12_17h56.23.132,lexical_decision_task_DD,2021.2.3,MacIntel,60.0024001,,,,,,,,,,,0.7859,1,,,,,,,,,,,,,,,,,,,,,,,,0.05531747,-0.422438822,0,0,0,,,,,,,GREASE,C,m,m,./images/GREASE.png,,,,,,,,,,,,,,,,,,,,,m,1,0.7859,,,,,,,,0,53,53,15,1
,,,,,,,,,,,,,,,,,5b4d31673d01bd0001ec447e,29,2022-02-12_17h56.23.132,lexical_decision_task_DD,2021.2.3,MacIntel,60.0024001,,,,,,,,,,,0.5749,1,,,,,,,,,,,,,,,,,,,,,,,,0.05531747,-0.422438822,0,0,0,,,,,,,MOTOR,HB,m,m,./images/MOTORHB.png,,,,,,,,,,,,,,,,,,,,,m,1,0.5749,,,,,,,,0,54,54,13,1
,,,,,,,,,,,,,,,,,5b4d31673d01bd0001ec447e,29,2022-02-12_17h56.23.132,lexical_decision_task_DD,2021.2.3,MacIntel,60.0024001,,,,,,,,,,,0.9296,1,,,,,,,,,,,,,,,,,,,,,,,,0.05531747,-0.422438822,0,0,0,,,,,,,BURIAL,LB,m,m,./images/BURIALLB.png,,,,,,,,,,,,,,,,,,,,,m,1,0.9296,,,,,,,,0,55,55,59,1
,,,,,,,,,,,,,,,,,5b4d31673d01bd0001ec447e,29,2022-02-12_17h56.23.132,lexical_decision_task_DD,2021.2.3,MacIntel,60.0024001,,,,,,,,,,,0.7934,1,,,,,,,,,,,,,,,,,,,,,,,,0.05531747,-0.422438822,0,0,0,,,,,,,FALCON,HB,m,m,./images/FALCONHB.png,,,,,,,,,,,,,,,,,,,,,m,1,0.7934,,,,,,,,0,56,56,28,1
,,,,,,,,,,,,,,,,,5b4d31673d01bd0001ec447e,29,2022-02-12_17h56.23.132,lexical_decision_task_DD,2021.2.3,MacIntel,60.0024001,,,,,,,,,,,0.5976,1,,,,,,,,,,,,,,,,,,,,,,,,0.05531747,-0.422438822,0,0,0,,,,,,,VALLEY,LB,z,m,./images/VALLEYLB.png,,,,,,,,,,,,,,,,,,,,,z,1,0.5976,,,,,,,,0,57,57,152,1
,,,,,,,,,,,,,,,,,5b4d31673d01bd0001ec447e,29,2022-02-12_17h56.23.132,lexical_decision_task_DD,2021.2.3,MacIntel,60.0024001,,,,,,,,,,,0.596,0,,,,,,,,,,,,,,,,,,,,,,,,0.05531747,-0.422438822,0,0,0,,,,,,,RAZOR,HB,z,m,./images/RAZORHB.png,,,,,,,,,,,,,,,,,,,,,m,0,0.596,,,,,,,,0,58,58,118,1
,,,,,,,,,,,,,,,,,5b4d31673d01bd0001ec447e,29,2022-02-12_17h56.23.132,lexical_decision_task_DD,2021.2.3,MacIntel,60.0024001,,,,,,,,,,,0.8727,1,,,,,,,,,,,,,,,,,,,,,,,,0.05531747,-0.422438822,0,0,0,,,,,,,RULER,HB,z,m,./images/RULERHB.png,,,,,,,,,,,,,,,,,,,,,z,1,0.8727,,,,,,,,0,59,59,163,1
,,,,,,,,,,,,,,,,,5b4d31673d01bd0001ec447e,29,2022-02-12_17h56.23.132,lexical_decision_task_DD,2021.2.3,MacIntel,60.0024001,,,,,,,,,,,0.9544,1,,,,,,,,,,,,,,,,,,,,,,,,0.05531747,-0.422438822,0,0,0,,,,,,,GLOVE,HB,z,m,./images/GLOVEHB.png,,,,,,,,,,,,,,,,,,,,,z,1,0.9544,,,,,,,,0,60,60,157,1
,,,,,,,,,,,,,,,,,5b4d31673d01bd0001ec447e,29,2022-02-12_17h56.23.132,lexical_decision_task_DD,2021.2.3,MacIntel,60.0024001,,,,,,,,,,,0.7297,1,,,,,,,,,,,,,,,,,,,,,,,,0.05531747,-0.422438822,0,0,0,,,,,,,GRANNY,LB,z,m,./images/GRANNYLB.png,,,,,,,,,,,,,,,,,,,,,z,1,0.7297,,,,,,,,0,61,61,104,1
,,,,,,,,,,,,,,,,,5b4d31673d01bd0001ec447e,29,2022-02-12_17h56.23.132,lexical_decision_task_DD,2021.2.3,MacIntel,60.0024001,,,,,,,,,,,0.6512,1,,,,,,,,,,,,,,,,,,,,,,,,0.05531747,-0.422438822,0,0,0,,,,,,,CLOTH,LB,z,m,./images/CLOTHLB.png,,,,,,,,,,,,,,,,,,,,,z,1,0.6512,,,,,,,,0,62,62,107,1
,,,,,,,,,,,,,,,,,5b4d31673d01bd0001ec447e,29,2022-02-12_17h56.23.132,lexical_decision_task_DD,2021.2.3,MacIntel,60.0024001,,,,,,,,,,,0.582,0,,,,,,,,,,,,,,,,,,,,,,,,0.05531747,-0.422438822,0,0,0,,,,,,,WALNUT,C,z,m,./images/WALNUT.png,,,,,,,,,,,,,,,,,,,,,m,0,0.582,,,,,,,,0,63,63,84,1
,,,,,,,,,,,,,,,,,5b4d31673d01bd0001ec447e,29,2022-02-12_17h56.23.132,lexical_decision_task_DD,2021.2.3,MacIntel,60.0024001,,,,,,,,,,,1.3034,0,,,,,,,,,,,,,,,,,,,,,,,,0.05531747,-0.422438822,0,0,0,,,,,,,GARDEN,HB,z,m,./images/GARDENHB.png,,,,,,,,,,,,,,,,,,,,,m,0,1.3034,,,,,,,,0,64,64,94,1
,,,,,,,,,,,,,,,,,5b4d31673d01bd0001ec447e,29,2022-02-12_17h56.23.132,lexical_decision_task_DD,2021.2.3,MacIntel,60.0024001,,,,,,,,,,,0.7731,0,,,,,,,,,,,,,,,,,,,,,,,,0.05531747,-0.422438822,0,0,0,,,,,,,BASKET,LB,z,m,./images/BASKETLB.png,,,,,,,,,,,,,,,,,,,,,m,0,0.7731,,,,,,,,0,65,65,128,1
,,,,,,,,,,,,,,,,,5b4d31673d01bd0001ec447e,29,2022-02-12_17h56.23.132,lexical_decision_task_DD,2021.2.3,MacIntel,60.0024001,,,,,,,,,,,0.5372,1,,,,,,,,,,,,,,,,,,,,,,,,0.05531747,-0.422438822,0,0,0,,,,,,,PAINT,HB,m,m,./images/PAINTHB.png,,,,,,,,,,,,,,,,,,,,,m,1,0.5372,,,,,,,,0,66,66,7,1
,,,,,,,,,,,,,,,,,5b4d31673d01bd0001ec447e,29,2022-02-12_17h56.23.132,lexical_decision_task_DD,2021.2.3,MacIntel,60.0024001,,,,,,,,,,,0.8964,0,,,,,,,,,,,,,,,,,,,,,,,,0.05531747,-0.422438822,0,0,0,,,,,,,ARROW,C,z,m,./images/ARROW.png,,,,,,,,,,,,,,,,,,,,,m,0,0.8964,,,,,,,,0,67,67,153,1
,,,,,,,,,,,,,,,,,5b4d31673d01bd0001ec447e,29,2022-02-12_17h56.23.132,lexical_decision_task_DD,2021.2.3,MacIntel,60.0024001,,,,,,,,,,,0.7167,1,,,,,,,,,,,,,,,,,,,,,,,,0.05531747,-0.422438822,0,0,0,,,,,,,NOOSE,C,m,m,./images/NOOSE.png,,,,,,,,,,,,,,,,,,,,,m,1,0.7167,,,,,,,,0,68,68,72,1
,,,,,,,,,,,,,,,,,5b4d31673d01bd0001ec447e,29,2022-02-12_17h56.23.132,lexical_decision_task_DD,2021.2.3,MacIntel,60.0024001,,,,,,,,,,,0.6286,1,,,,,,,,,,,,,,,,,,,,,,,,0.05531747,-0.422438822,0,0,0,,,,,,,FARMER,LB,m,m,./images/FARMERLB.png,,,,,,,,,,,,,,,,,,,,,m,1,0.6286,,,,,,,,0,69,69,65,1
,,,,,,,,,,,,,,,,,5b4d31673d01bd0001ec447e,29,2022-02-12_17h56.23.132,lexical_decision_task_DD,2021.2.3,MacIntel,60.0024001,,,,,,,,,,,0.8835,1,,,,,,,,,,,,,,,,,,,,,,,,0.05531747,-0.422438822,0,0,0,,,,,,,SPORT,C,m,m,./images/SPORT.png,,,,,,,,,,,,,,,,,,,,,m,1,0.8835,,,,,,,,0,70,70,48,1
,,,,,,,,,,,,,,,,,5b4d31673d01bd0001ec447e,29,2022-02-12_17h56.23.132,lexical_decision_task_DD,2021.2.3,MacIntel,60.0024001,,,,,,,,,,,1.4855,1,,,,,,,,,,,,,,,,,,,,,,,,0.05531747,-0.422438822,0,0,0,,,,,,,STORM,C,m,m,./images/STORM.png,,,,,,,,,,,,,,,,,,,,,m,1,1.4855,,,,,,,,0,71,71,30,1
,,,,,,,,,,,,,,,,,5b4d31673d01bd0001ec447e,29,2022-02-12_17h56.23.132,lexical_decision_task_DD,2021.2.3,MacIntel,60.0024001,,,,,,,,,,,0.6889,0,,,,,,,,,,,,,,,,,,,,,,,,0.05531747,-0.422438822,0,0,0,,,,,,,BANANA,HB,z,m,./images/BANANAHB.png,,,,,,,,,,,,,,,,,,,,,m,0,0.6889,,,,,,,,0,72,72,154,1
,,,,,,,,,,,,,,,,,5b4d31673d01bd0001ec447e,29,2022-02-12_17h56.23.132,lexical_decision_task_DD,2021.2.3,MacIntel,60.0024001,,,,,,,,,,,0.8399,1,,,,,,,,,,,,,,,,,,,,,,,,0.05531747,-0.422438822,0,0,0,,,,,,,SHIELD,C,z,m,./images/SHIELD.png,,,,,,,,,,,,,,,,,,,,,z,1,0.8399,,,,,,,,0,73,73,132,1
,,,,,,,,,,,,,,,,,5b4d31673d01bd0001ec447e,29,2022-02-12_17h56.23.132,lexical_decision_task_DD,2021.2.3,MacIntel,60.0024001,,,,,,,,,,,0.613,0,,,,,,,,,,,,,,,,,,,,,,,,0.05531747,-0.422438822,0,0,0,,,,,,,STEAK,HB,z,m,./images/STEAKHB.png,,,,,,,,,,,,,,,,,,,,,m,0,0.613,,,,,,,,0,74,74,115,1
,,,,,,,,,,,,,,,,,5b4d31673d01bd0001ec447e,29,2022-02-12_17h56.23.132,lexical_decision_task_DD,2021.2.3,MacIntel,60.0024001,,,,,,,,,,,1.1628,0,,,,,,,,,,,,,,,,,,,,,,,,0.05531747,-0.422438822,0,0,0,,,,,,,URINE,HB,m,m,./images/URINEHB.png,,,,,,,,,,,,,,,,,,,,,z,0,1.1628,,,,,,,,0,75,75,70,1
,,,,,,,,,,,,,,,,,5b4d31673d01bd0001ec447e,29,2022-02-12_17h56.23.132,lexical_decision_task_DD,2021.2.3,MacIntel,60.0024001,,,,,,,,,,,0.7999,1,,,,,,,,,,,,,,,,,,,,,,,,0.05531747,-0.422438822,0,0,0,,,,,,,WHEEL,LB,z,m,./images/WHEELLB.png,,,,,,,,,,,,,,,,,,,,,z,1,0.7999,,,,,,,,0,76,76,161,1
,,,,,,,,,,,,,,,,,5b4d31673d01bd0001ec447e,29,2022-02-12_17h56.23.132,lexical_decision_task_DD,2021.2.3,MacIntel,60.0024001,,,,,,,,,,,0.7015,1,,,,,,,,,,,,,,,,,,,,,,,,0.05531747,-0.422438822,0,0,0,,,,,,,BABOON,HB,m,m,./images/BABOONHB.png,,,,,,,,,,,,,,,,,,,,,m,1,0.7015,,,,,,,,0,77,77,58,1
,,,,,,,,,,,,,,,,,5b4d31673d01bd0001ec447e,29,2022-02-12_17h56.23.132,lexical_decision_task_DD,2021.2.3,MacIntel,60.0024001,,,,,,,,,,,0.6157,0,,,,,,,,,,,,,,,,,,,,,,,,0.05531747,-0.422438822,0,0,0,,,,,,,DRILL,C,z,m,./images/DRILL.png,,,,,,,,,,,,,,,,,,,,,m,0,0.6157,,,,,,,,0,78,78,165,1
,,,,,,,,,,,,,,,,,5b4d31673d01bd0001ec447e,29,2022-02-12_17h56.23.132,lexical_decision_task_DD,2021.2.3,MacIntel,60.0024001,,,,,,,,,,,1.0079,0,,,,,,,,,,,,,,,,,,,,,,,,0.05531747,-0.422438822,0,0,0,,,,,,,STRING,LB,m,m,./images/STRINGLB.png,,,,,,,,,,,,,,,,,,,,,z,0,1.0079,,,,,,,,0,79,79,41,1
,,,,,,,,,,,,,,,,,5b4d31673d01bd0001ec447e,29,2022-02-12_17h56.23.132,lexical_decision_task_DD,2021.2.3,MacIntel,60.0024001,,,,,,,,,,,0.9845,1,,,,,,,,,,,,,,,,,,,,,,,,0.05531747,-0.422438822,0,0,0,,,,,,,CASINO,HB,z,m,./images/CASINOHB.png,,,,,,,,,,,,,,,,,,,,,z,1,0.9845,,,,,,,,0,80,80,112,1
,,,,,,,,,,,,,,,,,5b4d31673d01bd0001ec447e,29,2022-02-12_17h56.23.132,lexical_decision_task_DD,2021.2.3,MacIntel,60.0024001,,,,,,,,,,,0.9286,1,,,,,,,,,,,,,,,,,,,,,,,,0.05531747,-0.422438822,0,0,0,,,,,,,JUMPER,LB,z,m,./images/JUMPERLB.png,,,,,,,,,,,,,,,,,,,,,z,1,0.9286,,,,,,,,0,81,81,158,1
,,,,,,,,,,,,,,,,,5b4d31673d01bd0001ec447e,29,2022-02-12_17h56.23.132,lexical_decision_task_DD,2021.2.3,MacIntel,60.0024001,,,,,,,,,,,0.5707,0,,,,,,,,,,,,,,,,,,,,,,,,0.05531747,-0.422438822,0,0,0,,,,,,,SPINE,LB,z,m,./images/SPINELB.png,,,,,,,,,,,,,,,,,,,,,m,0,0.5707,,,,,,,,0,82,82,149,1
,,,,,,,,,,,,,,,,,5b4d31673d01bd0001ec447e,29,2022-02-12_17h56.23.132,lexical_decision_task_DD,2021.2.3,MacIntel,60.0024001,,,,,,,,,,,0.6903,1,,,,,,,,,,,,,,,,,,,,,,,,0.05531747,-0.422438822,0,0,0,space,,,,,,DRUMS,HB,m,m,./images/DRUMSHB.png,2.7556,,,,,,,,,,,,,,,,,,,,m,1,0.6903,,,,,,,,0,83,83,49,1
,,,,,,,,,,,,,,,,,5b4d31673d01bd0001ec447e,29,2022-02-12_17h56.23.132,lexical_decision_task_DD,2021.2.3,MacIntel,60.0024001,,,,,,,,,,,1.0348,1,,,,,,,,,,,,,,,,,,,,,,,,0.05531747,-0.422438822,0,0,0,,,,,,,PLANET,LB,z,m,./images/PLANETLB.png,,,,,,,,,,,,,,,,,,,,,z,1,1.0348,,,,,,,,0,84,84,164,1
,,,,,,,,,,,,,,,,,5b4d31673d01bd0001ec447e,29,2022-02-12_17h56.23.132,lexical_decision_task_DD,2021.2.3,MacIntel,60.0024001,,,,,,,,,,,0.6025,1,,,,,,,,,,,,,,,,,,,,,,,,0.05531747,-0.422438822,0,0,0,,,,,,,BELLY,HB,m,m,./images/BELLYHB.png,,,,,,,,,,,,,,,,,,,,,m,1,0.6025,,,,,,,,0,85,85,10,1
,,,,,,,,,,,,,,,,,5b4d31673d01bd0001ec447e,29,2022-02-12_17h56.23.132,lexical_decision_task_DD,2021.2.3,MacIntel,60.0024001,,,,,,,,,,,0.8732,0,,,,,,,,,,,,,,,,,,,,,,,,0.05531747,-0.422438822,0,0,0,,,,,,,TRIPOD,C,m,m,./images/TRIPOD.png,,,,,,,,,,,,,,,,,,,,,z,0,0.8732,,,,,,,,0,86,86,54,1
,,,,,,,,,,,,,,,,,5b4d31673d01bd0001ec447e,29,2022-02-12_17h56.23.132,lexical_decision_task_DD,2021.2.3,MacIntel,60.0024001,,,,,,,,,,,1.6307,0,,,,,,,,,,,,,,,,,,,,,,,,0.05531747,-0.422438822,0,0,0,,,,,,,PARCEL,C,z,m,./images/PARCEL.png,,,,,,,,,,,,,,,,,,,,,m,0,1.6307,,,,,,,,0,87,87,102,1
,,,,,,,,,,,,,,,,,5b4d31673d01bd0001ec447e,29,2022-02-12_17h56.23.132,lexical_decision_task_DD,2021.2.3,MacIntel,60.0024001,,,,,,,,,,,0.7293,1,,,,,,,,,,,,,,,,,,,,,,,,0.05531747,-0.422438822,0,0,0,,,,,,,RHINO,C,m,m,./images/RHINO.png,,,,,,,,,,,,,,,,,,,,,m,1,0.7293,,,,,,,,0,88,88,9,1
,,,,,,,,,,,,,,,,,5b4d31673d01bd0001ec447e,29,2022-02-12_17h56.23.132,lexical_decision_task_DD,2021.2.3,MacIntel,60.0024001,,,,,,,,,,,0.7177,0,,,,,,,,,,,,,,,,,,,,,,,,0.05531747,-0.422438822,0,0,0,,,,,,,ONION,C,m,m,./images/ONION.png,,,,,,,,,,,,,,,,,,,,,z,0,0.7177,,,,,,,,0,89,89,51,1
,,,,,,,,,,,,,,,,,5b4d31673d01bd0001ec447e,29,2022-02-12_17h56.23.132,lexical_decision_task_DD,2021.2.3,MacIntel,60.0024001,,,,,,,,,,,1.0571,1,,,,,,,,,,,,,,,,,,,,,,,,0.05531747,-0.422438822,0,0,0,,,,,,,INFANT,HB,m,m,./images/INFANTHB.png,,,,,,,,,,,,,,,,,,,,,m,1,1.0571,,,,,,,,0,90,90,76,1
,,,,,,,,,,,,,,,,,5b4d31673d01bd0001ec447e,29,2022-02-12_17h56.23.132,lexical_decision_task_DD,2021.2.3,MacIntel,60.0024001,,,,,,,,,,,0.9964,0,,,,,,,,,,,,,,,,,,,,,,,,0.05531747,-0.422438822,0,0,0,,,,,,,TOMATO,C,m,m,./images/TOMATO.png,,,,,,,,,,,,,,,,,,,,,z,0,0.9964,,,,,,,,0,91,91,0,1
,,,,,,,,,,,,,,,,,5b4d31673d01bd0001ec447e,29,2022-02-12_17h56.23.132,lexical_decision_task_DD,2021.2.3,MacIntel,60.0024001,,,,,,,,,,,1.6619,0,,,,,,,,,,,,,,,,,,,,,,,,0.05531747,-0.422438822,0,0,0,,,,,,,FINGER,C,m,m,./images/FINGER.png,,,,,,,,,,,,,,,,,,,,,z,0,1.6619,,,,,,,,0,92,92,3,1
,,,,,,,,,,,,,,,,,5b4d31673d01bd0001ec447e,29,2022-02-12_17h56.23.132,lexical_decision_task_DD,2021.2.3,MacIntel,60.0024001,,,,,,,,,,,0.9649,1,,,,,,,,,,,,,,,,,,,,,,,,0.05531747,-0.422438822,0,0,0,,,,,,,MIDGET,HB,z,m,./images/MIDGETHB.png,,,,,,,,,,,,,,,,,,,,,z,1,0.9649,,,,,,,,0,93,93,160,1
,,,,,,,,,,,,,,,,,5b4d31673d01bd0001ec447e,29,2022-02-12_17h56.23.132,lexical_decision_task_DD,2021.2.3,MacIntel,60.0024001,,,,,,,,,,,0.6963,0,,,,,,,,,,,,,,,,,,,,,,,,0.05531747,-0.422438822,0,0,0,,,,,,,ALLEY,HB,z,m,./images/ALLEYHB.png,,,,,,,,,,,,,,,,,,,,,m,0,0.6963,,,,,,,,0,94,94,139,1
,,,,,,,,,,,,,,,,,5b4d31673d01bd0001ec447e,29,2022-02-12_17h56.23.132,lexical_decision_task_DD,2021.2.3,MacIntel,60.0024001,,,,,,,,,,,0.7234,0,,,,,,,,,,,,,,,,,,,,,,,,0.05531747,-0.422438822,0,0,0,,,,,,,PLANK,HB,m,m,./images/PLANKHB.png,,,,,,,,,,,,,,,,,,,,,z,0,0.7234,,,,,,,,0,95,95,1,1
,,,,,,,,,,,,,,,,,5b4d31673d01bd0001ec447e,29,2022-02-12_17h56.23.132,lexical_decision_task_DD,2021.2.3,MacIntel,60.0024001,,,,,,,,,,,0.7891,0,,,,,,,,,,,,,,,,,,,,,,,,0.05531747,-0.422438822,0,0,0,,,,,,,PACKET,LB,m,m,./images/PACKETLB.png,,,,,,,,,,,,,,,,,,,,,z,0,0.7891,,,,,,,,0,96,96,56,1
,,,,,,,,,,,,,,,,,5b4d31673d01bd0001ec447e,29,2022-02-12_17h56.23.132,lexical_decision_task_DD,2021.2.3,MacIntel,60.0024001,,,,,,,,,,,0.5473,0,,,,,,,,,,,,,,,,,,,,,,,,0.05531747,-0.422438822,0,0,0,,,,,,,CHERRY,C,z,m,./images/CHERRY.png,,,,,,,,,,,,,,,,,,,,,m,0,0.5473,,,,,,,,0,97,97,138,1
,,,,,,,,,,,,,,,,,5b4d31673d01bd0001ec447e,29,2022-02-12_17h56.23.132,lexical_decision_task_DD,2021.2.3,MacIntel,60.0024001,,,,,,,,,,,0.8974,0,,,,,,,,,,,,,,,,,,,,,,,,0.05531747,-0.422438822,0,0,0,,,,,,,SAUNA,C,z,m,./images/SAUNA.png,,,,,,,,,,,,,,,,,,,,,m,0,0.8974,,,,,,,,0,98,98,117,1
,,,,,,,,,,,,,,,,,5b4d31673d01bd0001ec447e,29,2022-02-12_17h56.23.132,lexical_decision_task_DD,2021.2.3,MacIntel,60.0024001,,,,,,,,,,,1.4284,1,,,,,,,,,,,,,,,,,,,,,,,,0.05531747,-0.422438822,0,0,0,,,,,,,COOKER,C,m,m,./images/COOKER.png,,,,,,,,,,,,,,,,,,,,,m,1,1.4284,,,,,,,,0,99,99,69,1
,,,,,,,,,,,,,,,,,5b4d31673d01bd0001ec447e,29,2022-02-12_17h56.23.132,lexical_decision_task_DD,2021.2.3,MacIntel,60.0024001,,,,,,,,,,,0.8656,1,,,,,,,,,,,,,,,,,,,,,,,,0.05531747,-0.422438822,0,0,0,,,,,,,MOOSE,C,m,m,./images/MOOSE.png,,,,,,,,,,,,,,,,,,,,,m,1,0.8656,,,,,,,,0,100,100,57,1
,,,,,,,,,,,,,,,,,5b4d31673d01bd0001ec447e,29,2022-02-12_17h56.23.132,lexical_decision_task_DD,2021.2.3,MacIntel,60.0024001,,,,,,,,,,,0.6791,1,,,,,,,,,,,,,,,,,,,,,,,,0.05531747,-0.422438822,0,0,0,,,,,,,MAGGOT,C,m,m,./images/MAGGOT.png,,,,,,,,,,,,,,,,,,,,,m,1,0.6791,,,,,,,,0,101,101,33,1
,,,,,,,,,,,,,,,,,5b4d31673d01bd0001ec447e,29,2022-02-12_17h56.23.132,lexical_decision_task_DD,2021.2.3,MacIntel,60.0024001,,,,,,,,,,,1.0138,0,,,,,,,,,,,,,,,,,,,,,,,,0.05531747,-0.422438822,0,0,0,,,,,,,BAKER,C,z,m,./images/BAKER.png,,,,,,,,,,,,,,,,,,,,,m,0,1.0138,,,,,,,,0,102,102,147,1
,,,,,,,,,,,,,,,,,5b4d31673d01bd0001ec447e,29,2022-02-12_17h56.23.132,lexical_decision_task_DD,2021.2.3,MacIntel,60.0024001,,,,,,,,,,,0.6167,1,,,,,,,,,,,,,,,,,,,,,,,,0.05531747,-0.422438822,0,0,0,,,,,,,ENGINE,LB,z,m,./images/ENGINELB.png,,,,,,,,,,,,,,,,,,,,,z,1,0.6167,,,,,,,,0,103,103,122,1
,,,,,,,,,,,,,,,,,5b4d31673d01bd0001ec447e,29,2022-02-12_17h56.23.132,lexical_decision_task_DD,2021.2.3,MacIntel,60.0024001,,,,,,,,,,,0.8592,0,,,,,,,,,,,,,,,,,,,,,,,,0.05531747,-0.422438822,0,0,0,,,,,,,PENCE,HB,m,m,./images/PENCEHB.png,,,,,,,,,,,,,,,,,,,,,z,0,0.8592,,,,,,,,0,104,104,16,1
,,,,,,,,,,,,,,,,,5b4d31673d01bd0001ec447e,29,2022-02-12_17h56.23.132,lexical_decision_task_DD,2021.2.3,MacIntel,60.0024001,,,,,,,,,,,0.7493,1,,,,,,,,,,,,,,,,,,,,,,,,0.05531747,-0.422438822,0,0,0,,,,,,,STOVE,LB,z,m,./images/STOVELB.png,,,,,,,,,,,,,,,,,,,,,z,1,0.7493,,,,,,,,0,105,105,86,1
,,,,,,,,,,,,,,,,,5b4d31673d01bd0001ec447e,29,2022-02-12_17h56.23.132,lexical_decision_task_DD,2021.2.3,MacIntel,60.0024001,,,,,,,,,,,0.816,1,,,,,,,,,,,,,,,,,,,,,,,,0.05531747,-0.422438822,0,0,0,,,,,,,LLAMA,LB,z,m,./images/LLAMALB.png,,,,,,,,,,,,,,,,,,,,,z,1,0.816,,,,,,,,0,106,106,119,1
,,,,,,,,,,,,,,,,,5b4d31673d01bd0001ec447e,29,2022-02-12_17h56.23.132,lexical_decision_task_DD,2021.2.3,MacIntel,60.0024001,,,,,,,,,,,0.5487,0,,,,,,,,,,,,,,,,,,,,,,,,0.05531747,-0.422438822,0,0,0,,,,,,,FENCE,LB,z,m,./images/FENCELB.png,,,,,,,,,,,,,,,,,,,,,m,0,0.5487,,,,,,,,0,107,107,98,1
,,,,,,,,,,,,,,,,,5b4d31673d01bd0001ec447e,29,2022-02-12_17h56.23.132,lexical_decision_task_DD,2021.2.3,MacIntel,60.0024001,,,,,,,,,,,0.6062,1,,,,,,,,,,,,,,,,,,,,,,,,0.05531747,-0.422438822,0,0,0,,,,,,,LADDER,LB,m,m,./images/LADDERLB.png,,,,,,,,,,,,,,,,,,,,,m,1,0.6062,,,,,,,,0,108,108,38,1
,,,,,,,,,,,,,,,,,5b4d31673d01bd0001ec447e,29,2022-02-12_17h56.23.132,lexical_decision_task_DD,2021.2.3,MacIntel,60.0024001,,,,,,,,,,,1.3481,1,,,,,,,,,,,,,,,,,,,,,,,,0.05531747,-0.422438822,0,0,0,,,,,,,SLOPE,C,z,m,./images/SLOPE.png,,,,,,,,,,,,,,,,,,,,,z,1,1.3481,,,,,,,,0,109,109,114,1
,,,,,,,,,,,,,,,,,5b4d31673d01bd0001ec447e,29,2022-02-12_17h56.23.132,lexical_decision_task_DD,2021.2.3,MacIntel,60.0024001,,,,,,,,,,,1.1151,0,,,,,,,,,,,,,,,,,,,,,,,,0.05531747,-0.422438822,0,0,0,,,,,,,SMOKER,LB,m,m,./images/SMOKERLB.png,,,,,,,,,,,,,,,,,,,,,z,0,1.1151,,,,,,,,0,110,110,26,1
,,,,,,,,,,,,,,,,,5b4d31673d01bd0001ec447e,29,2022-02-12_17h56.23.132,lexical_decision_task_DD,2021.2.3,MacIntel,60.0024001,,,,,,,,,,,1.1121,1,,,,,,,,,,,,,,,,,,,,,,,,0.05531747,-0.422438822,0,0,0,,,,,,,MEDAL,LB,z,m,./images/MEDALLB.png,,,,,,,,,,,,,,,,,,,,,z,1,1.1121,,,,,,,,0,111,111,95,1
,,,,,,,,,,,,,,,,,5b4d31673d01bd0001ec447e,29,2022-02-12_17h56.23.132,lexical_decision_task_DD,2021.2.3,MacIntel,60.0024001,,,,,,,,,,,0.714,1,,,,,,,,,,,,,,,,,,,,,,,,0.05531747,-0.422438822,0,0,0,,,,,,,CANDLE,HB,m,m,./images/CANDLEHB.png,,,,,,,,,,,,,,,,,,,,,m,1,0.714,,,,,,,,0,112,112,61,1
,,,,,,,,,,,,,,,,,5b4d31673d01bd0001ec447e,29,2022-02-12_17h56.23.132,lexical_decision_task_DD,2021.2.3,MacIntel,60.0024001,,,,,,,,,,,0.7874,1,,,,,,,,,,,,,,,,,,,,,,,,0.05531747,-0.422438822,0,0,0,,,,,,,GRAIN,C,m,m,./images/GRAIN.png,,,,,,,,,,,,,,,,,,,,,m,1,0.7874,,,,,,,,0,113,113,75,1
,,,,,,,,,,,,,,,,,5b4d31673d01bd0001ec447e,29,2022-02-12_17h56.23.132,lexical_decision_task_DD,2021.2.3,MacIntel,60.0024001,,,,,,,,,,,0.8838,1,,,,,,,,,,,,,,,,,,,,,,,,0.05531747,-0.422438822,0,0,0,,,,,,,BLOKE,C,z,m,./images/BLOKE.png,,,,,,,,,,,,,,,,,,,,,z,1,0.8838,,,,,,,,0,114,114,96,1
,,,,,,,,,,,,,,,,,5b4d31673d01bd0001ec447e,29,2022-02-12_17h56.23.132,lexical_decision_task_DD,2021.2.3,MacIntel,60.0024001,,,,,,,,,,,1.1308,0,,,,,,,,,,,,,,,,,,,,,,,,0.05531747,-0.422438822,0,0,0,,,,,,,HAMMER,C,z,m,./images/HAMMER.png,,,,,,,,,,,,,,,,,,,,,m,0,1.1308,,,,,,,,0,115,115,159,1
,,,,,,,,,,,,,,,,,5b4d31673d01bd0001ec447e,29,2022-02-12_17h56.23.132,lexical_decision_task_DD,2021.2.3,MacIntel,60.0024001,,,,,,,,,,,0.7338,1,,,,,,,,,,,,,,,,,,,,,,,,0.05531747,-0.422438822,0,0,0,,,,,,,SWING,HB,m,m,./images/SWINGHB.png,,,,,,,,,,,,,,,,,,,,,m,1,0.7338,,,,,,,,0,116,116,40,1
,,,,,,,,,,,,,,,,,5b4d31673d01bd0001ec447e,29,2022-02-12_17h56.23.132,lexical_decision_task_DD,2021.2.3,MacIntel,60.0024001,,,,,,,,,,,0.7828,1,,,,,,,,,,,,,,,,,,,,,,,,0.05531747,-0.422438822,0,0,0,,,,,,,CHALK,HB,z,m,./images/CHALKHB.png,,,,,,,,,,,,,,,,,,,,,z,1,0.7828,,,,,,,,0,117,117,109,1
,,,,,,,,,,,,,,,,,5b4d31673d01bd0001ec447e,29,2022-02-12_17h56.23.132,lexical_decision_task_DD,2021.2.3,MacIntel,60.0024001,,,,,,,,,,,1.2298,0,,,,,,,,,,,,,,,,,,,,,,,,0.05531747,-0.422438822,0,0,0,,,,,,,TWINS,C,m,m,./images/TWINS.png,,,,,,,,,,,,,,,,,,,,,z,0,1.2298,,,,,,,,0,118,118,60,1
,,,,,,,,,,,,,,,,,5b4d31673d01bd0001ec447e,29,2022-02-12_17h56.23.132,lexical_decision_task_DD,2021.2.3,MacIntel,60.0024001,,,,,,,,,,,0.8811,1,,,,,,,,,,,,,,,,,,,,,,,,0.05531747,-0.422438822,0,0,0,,,,,,,COLLAR,C,z,m,./images/COLLAR.png,,,,,,,,,,,,,,,,,,,,,z,1,0.8811,,,,,,,,0,119,119,99,1
,,,,,,,,,,,,,,,,,5b4d31673d01bd0001ec447e,29,2022-02-12_17h56.23.132,lexical_decision_task_DD,2021.2.3,MacIntel,60.0024001,,,,,,,,,,,0.9992,1,,,,,,,,,,,,,,,,,,,,,,,,0.05531747,-0.422438822,0,0,0,,,,,,,QUILL,HB,m,m,./images/QUILLHB.png,,,,,,,,,,,,,,,,,,,,,m,1,0.9992,,,,,,,,0,120,120,31,1
,,,,,,,,,,,,,,,,,5b4d31673d01bd0001ec447e,29,2022-02-12_17h56.23.132,lexical_decision_task_DD,2021.2.3,MacIntel,60.0024001,,,,,,,,,,,0.6492,1,,,,,,,,,,,,,,,,,,,,,,,,0.05531747,-0.422438822,0,0,0,,,,,,,MOSQUE,HB,m,m,./images/MOSQUEHB.png,,,,,,,,,,,,,,,,,,,,,m,1,0.6492,,,,,,,,0,121,121,43,1
,,,,,,,,,,,,,,,,,5b4d31673d01bd0001ec447e,29,2022-02-12_17h56.23.132,lexical_decision_task_DD,2021.2.3,MacIntel,60.0024001,,,,,,,,,,,0.7708,1,,,,,,,,,,,,,,,,,,,,,,,,0.05531747,-0.422438822,0,0,0,,,,,,,BOILER,C,z,m,./images/BOILER.png,,,,,,,,,,,,,,,,,,,,,z,1,0.7708,,,,,,,,0,122,122,120,1
,,,,,,,,,,,,,,,,,5b4d31673d01bd0001ec447e,29,2022-02-12_17h56.23.132,lexical_decision_task_DD,2021.2.3,MacIntel,60.0024001,,,,,,,,,,,0.7869,1,,,,,,,,,,,,,,,,,,,,,,,,0.05531747,-0.422438822,0,0,0,,,,,,,THROAT,C,m,m,./images/THROAT.png,,,,,,,,,,,,,,,,,,,,,m,1,0.7869,,,,,,,,0,123,123,36,1
,,,,,,,,,,,,,,,,,5b4d31673d01bd0001ec447e,29,2022-02-12_17h56.23.132,lexical_decision_task_DD,2021.2.3,MacIntel,60.0024001,,,,,,,,,,,0.6963,1,,,,,,,,,,,,,,,,,,,,,,,,0.05531747,-0.422438822,0,0,0,,,,,,,GRAPE,HB,z,m,./images/GRAPEHB.png,,,,,,,,,,,,,,,,,,,,,z,1,0.6963,,,,,,,,0,124,124,100,1
,,,,,,,,,,,,,,,,,5b4d31673d01bd0001ec447e,29,2022-02-12_17h56.23.132,lexical_decision_task_DD,2021.2.3,MacIntel,60.0024001,,,,,,,,,,,0.6175,1,,,,,,,,,,,,,,,,,,,,,,,,0.05531747,-0.422438822,0,0,0,space,,,,,,BONNET,LB,m,m,./images/BONNETLB.png,5.91,,,,,,,,,,,,,,,,,,,,m,1,0.6175,,,,,,,,0,125,125,11,1
,,,,,,,,,,,,,,,,,5b4d31673d01bd0001ec447e,29,2022-02-12_17h56.23.132,lexical_decision_task_DD,2021.2.3,MacIntel,60.0024001,,,,,,,,,,,0.771,1,,,,,,,,,,,,,,,,,,,,,,,,0.05531747,-0.422438822,0,0,0,,,,,,,BROOM,C,z,m,./images/BROOM.png,,,,,,,,,,,,,,,,,,,,,z,1,0.771,,,,,,,,0,126,126,162,1
,,,,,,,,,,,,,,,,,5b4d31673d01bd0001ec447e,29,2022-02-12_17h56.23.132,lexical_decision_task_DD,2021.2.3,MacIntel,60.0024001,,,,,,,,,,,1.0343,0,,,,,,,,,,,,,,,,,,,,,,,,0.05531747,-0.422438822,0,0,0,,,,,,,CEMENT,LB,m,m,./images/CEMENTLB.png,,,,,,,,,,,,,,,,,,,,,z,0,1.0343,,,,,,,,0,127,127,74,1
,,,,,,,,,,,,,,,,,5b4d31673d01bd0001ec447e,29,2022-02-12_17h56.23.132,lexical_decision_task_DD,2021.2.3,MacIntel,60.0024001,,,,,,,,,,,1.1469,1,,,,,,,,,,,,,,,,,,,,,,,,0.05531747,-0.422438822,0,0,0,,,,,,,PEARL,HB,m,m,./images/PEARLHB.png,,,,,,,,,,,,,,,,,,,,,m,1,1.1469,,,,,,,,0,128,128,46,1
,,,,,,,,,,,,,,,,,5b4d31673d01bd0001ec447e,29,2022-02-12_17h56.23.132,lexical_decision_task_DD,2021.2.3,MacIntel,60.0024001,,,,,,,,,,,0.5509,1,,,,,,,,,,,,,,,,,,,,,,,,0.05531747,-0.422438822,0,0,0,,,,,,,ATTIC,C,m,m,./images/ATTIC.png,,,,,,,,,,,,,,,,,,,,,m,1,0.5509,,,,,,,,0,129,129,27,1
,,,,,,,,,,,,,,,,,5b4d31673d01bd0001ec447e,29,2022-02-12_17h56.23.132,lexical_decision_task_DD,2021.2.3,MacIntel,60.0024001,,,,,,,,,,,0.631,1,,,,,,,,,,,,,,,,,,,,,,,,0.05531747,-0.422438822,0,0,0,,,,,,,CLOWN,HB,z,m,./images/CLOWNHB.png,,,,,,,,,,,,,,,,,,,,,z,1,0.631,,,,,,,,0,130,130,106,1
,,,,,,,,,,,,,,,,,5b4d31673d01bd0001ec447e,29,2022-02-12_17h56.23.132,lexical_decision_task_DD,2021.2.3,MacIntel,60.0024001,,,,,,,,,,,0.5814,1,,,,,,,,,,,,,,,,,,,,,,,,0.05531747,-0.422438822,0,0,0,,,,,,,BOXER,HB,z,m,./images/BOXERHB.png,,,,,,,,,,,,,,,,,,,,,z,1,0.5814,,,,,,,,0,131,131,88,1
,,,,,,,,,,,,,,,,,5b4d31673d01bd0001ec447e,29,2022-02-12_17h56.23.132,lexical_decision_task_DD,2021.2.3,MacIntel,60.0024001,,,,,,,,,,,0.9227,1,,,,,,,,,,,,,,,,,,,,,,,,0.05531747,-0.422438822,0,0,0,,,,,,,BUNNY,HB,z,m,./images/BUNNYHB.png,,,,,,,,,,,,,,,,,,,,,z,1,0.9227,,,,,,,,0,132,132,97,1
