key_resp.keys,key_resp.rt,instr_done_touch.x,instr_done_touch.y,instr_done_touch.leftButton,instr_done_touch.midButton,instr_done_touch.rightButton,instruction_pages.thisRepN,instruction_pages.thisTrialN,instruction_pages.thisN,instruction_pages.thisIndex,instruction_pages.ran,pageN,phase,instruct_text,has_image,instruct_image,participant,age,date,expName,psychopyVersion,OS,frameRate,response.keys,response.corr,response.rt,touch_resp.x,touch_resp.y,touch_resp.leftButton,touch_resp.midButton,touch_resp.rightButton,touch_resp.time,touch_resp.clicked_name,rt,corr,practrials.thisRepN,practrials.thisTrialN,practrials.thisN,practrials.thisIndex,practrials.ran,TrialID,Target,corrAns,end_of_practice_trials_pages.thisRepN,end_of_practice_trials_pages.thisTrialN,end_of_practice_trials_pages.thisN,end_of_practice_trials_pages.thisIndex,end_of_practice_trials_pages.ran,key_resp_2.keys,key_resp_2.corr,key_resp_2.rt,targ_click.x,targ_click.y,targ_click.leftButton,targ_click.midButton,targ_click.rightButton,targ_click.time,targ_click.clicked_name,break_done_touch.x,break_done_touch.y,break_done_touch.leftButton,break_done_touch.midButton,break_done_touch.rightButton,break_done_keyboard.keys,maintrials.thisRepN,maintrials.thisTrialN,maintrials.thisN,maintrials.thisIndex,maintrials.ran,string,blur,study,lex,stim_path,break_done_keyboard.rt,mouse_2.x,mouse_2.y,mouse_2.leftButton,mouse_2.midButton,mouse_2.rightButton,mouse_2.clicked_name,slider.response,slider.rt,trials.thisRepN,trials.thisTrialN,trials.thisN,trials.thisIndex,trials.ran,test_instructions.thisRepN,test_instructions.thisTrialN,test_instructions.thisN,test_instructions.thisIndex,test_instructions.ran,instr_done_touch.clicked_name,key_resp_3.keys,key_resp_3.corr,key_resp_3.rt,test_click.x,test_click.y,test_click.leftButton,test_click.midButton,test_click.rightButton,test_click.time,test_click.clicked_name,test_phase.thisRepN,test_phase.thisTrialN,test_phase.thisN,test_phase.thisIndex,test_phase.ran
space,28.0222,0.226434426,0.113729508,0,0,0,0,0,0,0,1,1,instructions,"INSTRUCTIONS
At the start of each trial, look at the plus sign  (+) in the center of the screen.  This tells you that a trial is about to begin and where to look. Second, the plus sign will disappear and a string of letters will appear. Your task is to determine if the string of letters is a word or not. If the item is a word press the M key (on keyboard)  or touch the word button (phone/tablet).  If the item is not a word,  press the  Z key (on keyboard)  or touch the nonword button (on phone/tablet). 
Press the space bar or touch  continue.",0,,5b75d448be28580001b5a603,51,2022-02-12_14h51.22.666,lexical_decision_task_DD_L5,2021.2.3,Win32,59.99160118,,,,,,,,,,,,,,,,,,,,,,,,,,,,,,,,,,,,,,,,,,,,,,,,,,,,,,,,,,,,,,,,,,,,,,,,,,,,,,,,,,,,,,
space,6.5913,0.226434426,0.113729508,0,0,0,0,1,1,1,1,2,instructions,"If your device has a keyboard, press the 'Z' key for nonwords and the 'M' key for words.





Press the space bar or touch the button below to continue.",0,keyboard-example.gif,5b75d448be28580001b5a603,51,2022-02-12_14h51.22.666,lexical_decision_task_DD_L5,2021.2.3,Win32,59.99160118,,,,,,,,,,,,,,,,,,,,,,,,,,,,,,,,,,,,,,,,,,,,,,,,,,,,,,,,,,,,,,,,,,,,,,,,,,,,,,,,,,,,,,
space,11.9109,-0.117827869,0.5,0,0,0,0,2,2,2,1,3,instructions,"If you are using a touchscreen only device, use the buttons on the screen. Do not use the mouse.





Press the space bar or touch the button below to continue.",0,touchscreen-example.gif,5b75d448be28580001b5a603,51,2022-02-12_14h51.22.666,lexical_decision_task_DD_L5,2021.2.3,Win32,59.99160118,,,,,,,,,,,,,,,,,,,,,,,,,,,,,,,,,,,,,,,,,,,,,,,,,,,,,,,,,,,,,,,,,,,,,,,,,,,,,,,,,,,,,,
space,12.1008,-0.117827869,0.5,0,0,0,0,3,3,3,1,4,instructions,"It is very important that you respond as quickly and accurately as possible, as each letter string will only be on the screen for two seconds. If you do not respond within this time, the message 'Too slow!' will be displayed and the experiment will progress to the next letter string. The first 20 trials will be practice trials and you will receive feedback on your answers. 

Press the space bar or touch the button below to start the practice trials.",0,,5b75d448be28580001b5a603,51,2022-02-12_14h51.22.666,lexical_decision_task_DD_L5,2021.2.3,Win32,59.99160118,,,,,,,,,,,,,,,,,,,,,,,,,,,,,,,,,,,,,,,,,,,,,,,,,,,,,,,,,,,,,,,,,,,,,,,,,,,,,,,,,,,,,,
,,,,,,,,,,,,,,,,,5b75d448be28580001b5a603,51,2022-02-12_14h51.22.666,lexical_decision_task_DD_L5,2021.2.3,Win32,59.99160118,m,1,0.888,,,,,,,,0.888,1,0,0,0,3,1,1001,MATRIX,m,,,,,,,,,,,,,,,,,,,,,,,,,,,,,,,,,,,,,,,,,,,,,,,,,,,,,,,,,,,,,,,,,,
,,,,,,,,,,,,,,,,,5b75d448be28580001b5a603,51,2022-02-12_14h51.22.666,lexical_decision_task_DD_L5,2021.2.3,Win32,59.99160118,z,1,1.0512,,,,,,,,1.0512,1,0,1,1,9,1,1001,FARINY,z,,,,,,,,,,,,,,,,,,,,,,,,,,,,,,,,,,,,,,,,,,,,,,,,,,,,,,,,,,,,,,,,,,
,,,,,,,,,,,,,,,,,5b75d448be28580001b5a603,51,2022-02-12_14h51.22.666,lexical_decision_task_DD_L5,2021.2.3,Win32,59.99160118,m,1,0.785,,,,,,,,0.785,1,0,2,2,4,1,1001,SQUEAK,m,,,,,,,,,,,,,,,,,,,,,,,,,,,,,,,,,,,,,,,,,,,,,,,,,,,,,,,,,,,,,,,,,,
,,,,,,,,,,,,,,,,,5b75d448be28580001b5a603,51,2022-02-12_14h51.22.666,lexical_decision_task_DD_L5,2021.2.3,Win32,59.99160118,m,1,0.759,,,,,,,,0.759,1,0,3,3,6,1,1001,ZOMBIE,m,,,,,,,,,,,,,,,,,,,,,,,,,,,,,,,,,,,,,,,,,,,,,,,,,,,,,,,,,,,,,,,,,,
,,,,,,,,,,,,,,,,,5b75d448be28580001b5a603,51,2022-02-12_14h51.22.666,lexical_decision_task_DD_L5,2021.2.3,Win32,59.99160118,z,1,0.988,,,,,,,,0.988,1,0,4,4,11,1,1001,RASHET,z,,,,,,,,,,,,,,,,,,,,,,,,,,,,,,,,,,,,,,,,,,,,,,,,,,,,,,,,,,,,,,,,,,
,,,,,,,,,,,,,,,,,5b75d448be28580001b5a603,51,2022-02-12_14h51.22.666,lexical_decision_task_DD_L5,2021.2.3,Win32,59.99160118,z,1,0.8268,,,,,,,,0.8268,1,0,5,5,12,1,1001,SPRINY,z,,,,,,,,,,,,,,,,,,,,,,,,,,,,,,,,,,,,,,,,,,,,,,,,,,,,,,,,,,,,,,,,,,
,,,,,,,,,,,,,,,,,5b75d448be28580001b5a603,51,2022-02-12_14h51.22.666,lexical_decision_task_DD_L5,2021.2.3,Win32,59.99160118,m,1,0.6612,,,,,,,,0.6612,1,0,6,6,7,1,1001,VOLUME,m,,,,,,,,,,,,,,,,,,,,,,,,,,,,,,,,,,,,,,,,,,,,,,,,,,,,,,,,,,,,,,,,,,
,,,,,,,,,,,,,,,,,5b75d448be28580001b5a603,51,2022-02-12_14h51.22.666,lexical_decision_task_DD_L5,2021.2.3,Win32,59.99160118,m,1,0.7907,,,,,,,,0.7907,1,0,7,7,0,1,1001,UTOPIA,m,,,,,,,,,,,,,,,,,,,,,,,,,,,,,,,,,,,,,,,,,,,,,,,,,,,,,,,,,,,,,,,,,,
,,,,,,,,,,,,,,,,,5b75d448be28580001b5a603,51,2022-02-12_14h51.22.666,lexical_decision_task_DD_L5,2021.2.3,Win32,59.99160118,m,1,0.6906,,,,,,,,0.6906,1,0,8,8,5,1,1001,OBTAIN,m,,,,,,,,,,,,,,,,,,,,,,,,,,,,,,,,,,,,,,,,,,,,,,,,,,,,,,,,,,,,,,,,,,
,,,,,,,,,,,,,,,,,5b75d448be28580001b5a603,51,2022-02-12_14h51.22.666,lexical_decision_task_DD_L5,2021.2.3,Win32,59.99160118,m,1,0.6045,,,,,,,,0.6045,1,0,9,9,1,1,1001,ADJUST,m,,,,,,,,,,,,,,,,,,,,,,,,,,,,,,,,,,,,,,,,,,,,,,,,,,,,,,,,,,,,,,,,,,
,,,,,,,,,,,,,,,,,5b75d448be28580001b5a603,51,2022-02-12_14h51.22.666,lexical_decision_task_DD_L5,2021.2.3,Win32,59.99160118,z,1,0.8336,,,,,,,,0.8336,1,0,10,10,10,1,1001,INLADE,z,,,,,,,,,,,,,,,,,,,,,,,,,,,,,,,,,,,,,,,,,,,,,,,,,,,,,,,,,,,,,,,,,,
,,,,,,,,,,,,,,,,,5b75d448be28580001b5a603,51,2022-02-12_14h51.22.666,lexical_decision_task_DD_L5,2021.2.3,Win32,59.99160118,z,1,0.7876,,,,,,,,0.7876,1,0,11,11,8,1,1001,ASLERT,z,,,,,,,,,,,,,,,,,,,,,,,,,,,,,,,,,,,,,,,,,,,,,,,,,,,,,,,,,,,,,,,,,,
,,,,,,,,,,,,,,,,,5b75d448be28580001b5a603,51,2022-02-12_14h51.22.666,lexical_decision_task_DD_L5,2021.2.3,Win32,59.99160118,m,0,0.8729,,,,,,,,0.8729,0,0,12,12,13,1,1001,ROUPET,z,,,,,,,,,,,,,,,,,,,,,,,,,,,,,,,,,,,,,,,,,,,,,,,,,,,,,,,,,,,,,,,,,,
,,,,,,,,,,,,,,,,,5b75d448be28580001b5a603,51,2022-02-12_14h51.22.666,lexical_decision_task_DD_L5,2021.2.3,Win32,59.99160118,z,1,0.8374,,,,,,,,0.8374,1,0,13,13,15,1,1001,WHAISE,z,,,,,,,,,,,,,,,,,,,,,,,,,,,,,,,,,,,,,,,,,,,,,,,,,,,,,,,,,,,,,,,,,,
,,,,,,,,,,,,,,,,,5b75d448be28580001b5a603,51,2022-02-12_14h51.22.666,lexical_decision_task_DD_L5,2021.2.3,Win32,59.99160118,m,1,0.8029,,,,,,,,0.8029,1,0,14,14,2,1,1001,ALMOND,m,,,,,,,,,,,,,,,,,,,,,,,,,,,,,,,,,,,,,,,,,,,,,,,,,,,,,,,,,,,,,,,,,,
,,,,,,,,,,,,,,,,,5b75d448be28580001b5a603,51,2022-02-12_14h51.22.666,lexical_decision_task_DD_L5,2021.2.3,Win32,59.99160118,z,1,0.7711,,,,,,,,0.7711,1,0,15,15,14,1,1001,THRALE,z,,,,,,,,,,,,,,,,,,,,,,,,,,,,,,,,,,,,,,,,,,,,,,,,,,,,,,,,,,,,,,,,,,
space,12.9932,-0.117827869,0.5,0,0,0,,,,,,1,end_of_practice,"You have completed the practice trials. During the experimental trials, you will not receive feedback. 
Before you begin, please ensure that you are in a comfortable and quiet location and will not be disturbed for about 15 minutes, as we cannot use your data if you do not complete all the trials. 
 When you are ready to start the experimental trials, please press space or touch the button below.",,,5b75d448be28580001b5a603,51,2022-02-12_14h51.22.666,lexical_decision_task_DD_L5,2021.2.3,Win32,59.99160118,,,,,,,,,,,,,,,,,,,,,0,0,0,0,1,,,,,,,,,,,,,,,,,,,,,,,,,,,,,,,,,,,,,,,,,,,,,,,,,,,,,,,,,,,,,
,,,,,,,,,,,,,,,,,5b75d448be28580001b5a603,51,2022-02-12_14h51.22.666,lexical_decision_task_DD_L5,2021.2.3,Win32,59.99160118,,,,,,,,,,,2.1044,1,,,,,,,,,,,,,,z,1,2.1044,,,,,,,,-0.117827869,0.5,0,0,0,,0,0,0,151,1,TINKY,HB,old,z,./images/TINKYHB.png,,,,,,,,,,,,,,,,,,,,,,,,,,,,,,,,,,,
,,,,,,,,,,,,,,,,,5b75d448be28580001b5a603,51,2022-02-12_14h51.22.666,lexical_decision_task_DD_L5,2021.2.3,Win32,59.99160118,,,,,,,,,,,0.9324,1,,,,,,,,,,,,,,z,1,0.9324,,,,,,,,-0.117827869,0.5,0,0,0,,0,1,1,92,1,PAIMS,LB,old,z,./images/PAIMSLB.png,,,,,,,,,,,,,,,,,,,,,,,,,,,,,,,,,,,
,,,,,,,,,,,,,,,,,5b75d448be28580001b5a603,51,2022-02-12_14h51.22.666,lexical_decision_task_DD_L5,2021.2.3,Win32,59.99160118,,,,,,,,,,,1.0856,0,,,,,,,,,,,,,,m,0,1.0856,,,,,,,,-0.117827869,0.5,0,0,0,,0,2,2,109,1,BURGE,HB,old,z,./images/BURGEHB.png,,,,,,,,,,,,,,,,,,,,,,,,,,,,,,,,,,,
,,,,,,,,,,,,,,,,,5b75d448be28580001b5a603,51,2022-02-12_14h51.22.666,lexical_decision_task_DD_L5,2021.2.3,Win32,59.99160118,,,,,,,,,,,2.1664,1,,,,,,,,,,,,,,z,1,2.1664,,,,,,,,-0.117827869,0.5,0,0,0,,0,3,3,127,1,NINDY,HB,old,z,./images/NINDYHB.png,,,,,,,,,,,,,,,,,,,,,,,,,,,,,,,,,,,
,,,,,,,,,,,,,,,,,5b75d448be28580001b5a603,51,2022-02-12_14h51.22.666,lexical_decision_task_DD_L5,2021.2.3,Win32,59.99160118,,,,,,,,,,,1.8153,1,,,,,,,,,,,,,,z,1,1.8153,,,,,,,,-0.117827869,0.5,0,0,0,,0,4,4,118,1,BAVEL,HB,old,z,./images/BAVELHB.png,,,,,,,,,,,,,,,,,,,,,,,,,,,,,,,,,,,
,,,,,,,,,,,,,,,,,5b75d448be28580001b5a603,51,2022-02-12_14h51.22.666,lexical_decision_task_DD_L5,2021.2.3,Win32,59.99160118,,,,,,,,,,,0.7727,1,,,,,,,,,,,,,,m,1,0.7727,,,,,,,,-0.117827869,0.5,0,0,0,,0,5,5,50,1,PILOT,C,old,m,./images/PILOT.png,,,,,,,,,,,,,,,,,,,,,,,,,,,,,,,,,,,
,,,,,,,,,,,,,,,,,5b75d448be28580001b5a603,51,2022-02-12_14h51.22.666,lexical_decision_task_DD_L5,2021.2.3,Win32,59.99160118,,,,,,,,,,,1.0026,1,,,,,,,,,,,,,,z,1,1.0026,,,,,,,,-0.117827869,0.5,0,0,0,,0,6,6,95,1,HANTY,LB,old,z,./images/HANTYLB.png,,,,,,,,,,,,,,,,,,,,,,,,,,,,,,,,,,,
,,,,,,,,,,,,,,,,,5b75d448be28580001b5a603,51,2022-02-12_14h51.22.666,lexical_decision_task_DD_L5,2021.2.3,Win32,59.99160118,,,,,,,,,,,1.0315,1,,,,,,,,,,,,,,m,1,1.0315,,,,,,,,-0.117827869,0.5,0,0,0,,0,7,7,39,1,CANDY,HB,old,m,./images/CANDYHB.png,,,,,,,,,,,,,,,,,,,,,,,,,,,,,,,,,,,
,,,,,,,,,,,,,,,,,5b75d448be28580001b5a603,51,2022-02-12_14h51.22.666,lexical_decision_task_DD_L5,2021.2.3,Win32,59.99160118,,,,,,,,,,,0.7978,1,,,,,,,,,,,,,,z,1,0.7978,,,,,,,,-0.117827869,0.5,0,0,0,,0,8,8,107,1,FASKS,LB,old,z,./images/FASKSLB.png,,,,,,,,,,,,,,,,,,,,,,,,,,,,,,,,,,,
,,,,,,,,,,,,,,,,,5b75d448be28580001b5a603,51,2022-02-12_14h51.22.666,lexical_decision_task_DD_L5,2021.2.3,Win32,59.99160118,,,,,,,,,,,0.8821,1,,,,,,,,,,,,,,z,1,0.8821,,,,,,,,-0.117827869,0.5,0,0,0,,0,9,9,159,1,CUDDY,C,old,z,./images/CUDDY.png,,,,,,,,,,,,,,,,,,,,,,,,,,,,,,,,,,,
,,,,,,,,,,,,,,,,,5b75d448be28580001b5a603,51,2022-02-12_14h51.22.666,lexical_decision_task_DD_L5,2021.2.3,Win32,59.99160118,,,,,,,,,,,1.1397,1,,,,,,,,,,,,,,z,1,1.1397,,,,,,,,-0.117827869,0.5,0,0,0,,0,10,10,145,1,LAMEL,HB,old,z,./images/LAMELHB.png,,,,,,,,,,,,,,,,,,,,,,,,,,,,,,,,,,,
,,,,,,,,,,,,,,,,,5b75d448be28580001b5a603,51,2022-02-12_14h51.22.666,lexical_decision_task_DD_L5,2021.2.3,Win32,59.99160118,,,,,,,,,,,1.3729,1,,,,,,,,,,,,,,m,1,1.3729,,,,,,,,-0.117827869,0.5,0,0,0,,0,11,11,42,1,CHAIN,HB,old,m,./images/CHAINHB.png,,,,,,,,,,,,,,,,,,,,,,,,,,,,,,,,,,,
,,,,,,,,,,,,,,,,,5b75d448be28580001b5a603,51,2022-02-12_14h51.22.666,lexical_decision_task_DD_L5,2021.2.3,Win32,59.99160118,,,,,,,,,,,0.7983,1,,,,,,,,,,,,,,m,1,0.7983,,,,,,,,-0.117827869,0.5,0,0,0,,0,12,12,14,1,FENCE,C,old,m,./images/FENCE.png,,,,,,,,,,,,,,,,,,,,,,,,,,,,,,,,,,,
,,,,,,,,,,,,,,,,,5b75d448be28580001b5a603,51,2022-02-12_14h51.22.666,lexical_decision_task_DD_L5,2021.2.3,Win32,59.99160118,,,,,,,,,,,0.685,1,,,,,,,,,,,,,,m,1,0.685,,,,,,,,-0.117827869,0.5,0,0,0,,0,13,13,32,1,HOCKEY,C,old,m,./images/HOCKEY.png,,,,,,,,,,,,,,,,,,,,,,,,,,,,,,,,,,,
,,,,,,,,,,,,,,,,,5b75d448be28580001b5a603,51,2022-02-12_14h51.22.666,lexical_decision_task_DD_L5,2021.2.3,Win32,59.99160118,,,,,,,,,,,0.7753,1,,,,,,,,,,,,,,z,1,0.7753,,,,,,,,-0.117827869,0.5,0,0,0,,0,14,14,119,1,PAFER,LB,old,z,./images/PAFERLB.png,,,,,,,,,,,,,,,,,,,,,,,,,,,,,,,,,,,
,,,,,,,,,,,,,,,,,5b75d448be28580001b5a603,51,2022-02-12_14h51.22.666,lexical_decision_task_DD_L5,2021.2.3,Win32,59.99160118,,,,,,,,,,,0.8523,1,,,,,,,,,,,,,,m,1,0.8523,,,,,,,,-0.117827869,0.5,0,0,0,,0,15,15,7,1,WAGON,LB,old,m,./images/WAGONLB.png,,,,,,,,,,,,,,,,,,,,,,,,,,,,,,,,,,,
,,,,,,,,,,,,,,,,,5b75d448be28580001b5a603,51,2022-02-12_14h51.22.666,lexical_decision_task_DD_L5,2021.2.3,Win32,59.99160118,,,,,,,,,,,0.971,1,,,,,,,,,,,,,,m,1,0.971,,,,,,,,-0.117827869,0.5,0,0,0,,0,16,16,72,1,FLASK,HB,old,m,./images/FLASKHB.png,,,,,,,,,,,,,,,,,,,,,,,,,,,,,,,,,,,
,,,,,,,,,,,,,,,,,5b75d448be28580001b5a603,51,2022-02-12_14h51.22.666,lexical_decision_task_DD_L5,2021.2.3,Win32,59.99160118,,,,,,,,,,,0.6336,1,,,,,,,,,,,,,,m,1,0.6336,,,,,,,,-0.117827869,0.5,0,0,0,,0,17,17,41,1,STREAM,C,old,m,./images/STREAM.png,,,,,,,,,,,,,,,,,,,,,,,,,,,,,,,,,,,
,,,,,,,,,,,,,,,,,5b75d448be28580001b5a603,51,2022-02-12_14h51.22.666,lexical_decision_task_DD_L5,2021.2.3,Win32,59.99160118,,,,,,,,,,,1.0538,0,,,,,,,,,,,,,,z,0,1.0538,,,,,,,,-0.117827869,0.5,0,0,0,,0,18,18,36,1,BOILER,HB,old,m,./images/BOILERHB.png,,,,,,,,,,,,,,,,,,,,,,,,,,,,,,,,,,,
,,,,,,,,,,,,,,,,,5b75d448be28580001b5a603,51,2022-02-12_14h51.22.666,lexical_decision_task_DD_L5,2021.2.3,Win32,59.99160118,,,,,,,,,,,0.8301,1,,,,,,,,,,,,,,z,1,0.8301,,,,,,,,-0.117827869,0.5,0,0,0,,0,19,19,153,1,CLUPS,C,old,z,./images/CLUPS.png,,,,,,,,,,,,,,,,,,,,,,,,,,,,,,,,,,,
,,,,,,,,,,,,,,,,,5b75d448be28580001b5a603,51,2022-02-12_14h51.22.666,lexical_decision_task_DD_L5,2021.2.3,Win32,59.99160118,,,,,,,,,,,0.7206,1,,,,,,,,,,,,,,m,1,0.7206,,,,,,,,-0.117827869,0.5,0,0,0,,0,20,20,16,1,GRAPE,LB,old,m,./images/GRAPELB.png,,,,,,,,,,,,,,,,,,,,,,,,,,,,,,,,,,,
,,,,,,,,,,,,,,,,,5b75d448be28580001b5a603,51,2022-02-12_14h51.22.666,lexical_decision_task_DD_L5,2021.2.3,Win32,59.99160118,,,,,,,,,,,1.3148,1,,,,,,,,,,,,,,z,1,1.3148,,,,,,,,-0.117827869,0.5,0,0,0,,0,21,21,97,1,CHIDS,HB,old,z,./images/CHIDSHB.png,,,,,,,,,,,,,,,,,,,,,,,,,,,,,,,,,,,
,,,,,,,,,,,,,,,,,5b75d448be28580001b5a603,51,2022-02-12_14h51.22.666,lexical_decision_task_DD_L5,2021.2.3,Win32,59.99160118,,,,,,,,,,,0.7092,1,,,,,,,,,,,,,,m,1,0.7092,,,,,,,,-0.117827869,0.5,0,0,0,,0,22,22,77,1,WHEEL,C,old,m,./images/WHEEL.png,,,,,,,,,,,,,,,,,,,,,,,,,,,,,,,,,,,
,,,,,,,,,,,,,,,,,5b75d448be28580001b5a603,51,2022-02-12_14h51.22.666,lexical_decision_task_DD_L5,2021.2.3,Win32,59.99160118,,,,,,,,,,,0.8307,1,,,,,,,,,,,,,,m,1,0.8307,,,,,,,,-0.117827869,0.5,0,0,0,,0,23,23,30,1,SLOPE,HB,old,m,./images/SLOPEHB.png,,,,,,,,,,,,,,,,,,,,,,,,,,,,,,,,,,,
,,,,,,,,,,,,,,,,,5b75d448be28580001b5a603,51,2022-02-12_14h51.22.666,lexical_decision_task_DD_L5,2021.2.3,Win32,59.99160118,,,,,,,,,,,0.9728,1,,,,,,,,,,,,,,m,1,0.9728,,,,,,,,-0.117827869,0.5,0,0,0,,0,24,24,81,1,DRILL,HB,old,m,./images/DRILLHB.png,,,,,,,,,,,,,,,,,,,,,,,,,,,,,,,,,,,
,,,,,,,,,,,,,,,,,5b75d448be28580001b5a603,51,2022-02-12_14h51.22.666,lexical_decision_task_DD_L5,2021.2.3,Win32,59.99160118,,,,,,,,,,,0.6568,1,,,,,,,,,,,,,,m,1,0.6568,,,,,,,,-0.117827869,0.5,0,0,0,,0,25,25,71,1,BUBBLE,C,old,m,./images/BUBBLE.png,,,,,,,,,,,,,,,,,,,,,,,,,,,,,,,,,,,
,,,,,,,,,,,,,,,,,5b75d448be28580001b5a603,51,2022-02-12_14h51.22.666,lexical_decision_task_DD_L5,2021.2.3,Win32,59.99160118,,,,,,,,,,,1.1834,1,,,,,,,,,,,,,,m,1,1.1834,,,,,,,,-0.117827869,0.5,0,0,0,,0,26,26,27,1,BUTTER,HB,old,m,./images/BUTTERHB.png,,,,,,,,,,,,,,,,,,,,,,,,,,,,,,,,,,,
,,,,,,,,,,,,,,,,,5b75d448be28580001b5a603,51,2022-02-12_14h51.22.666,lexical_decision_task_DD_L5,2021.2.3,Win32,59.99160118,,,,,,,,,,,0.8415,1,,,,,,,,,,,,,,z,1,0.8415,,,,,,,,-0.117827869,0.5,0,0,0,,0,27,27,137,1,JOOST,LB,old,z,./images/JOOSTLB.png,,,,,,,,,,,,,,,,,,,,,,,,,,,,,,,,,,,
,,,,,,,,,,,,,,,,,5b75d448be28580001b5a603,51,2022-02-12_14h51.22.666,lexical_decision_task_DD_L5,2021.2.3,Win32,59.99160118,,,,,,,,,,,0.8502,1,,,,,,,,,,,,,,m,1,0.8502,,,,,,,,-0.117827869,0.5,0,0,0,,0,28,28,73,1,GLOVE,LB,old,m,./images/GLOVELB.png,,,,,,,,,,,,,,,,,,,,,,,,,,,,,,,,,,,
,,,,,,,,,,,,,,,,,5b75d448be28580001b5a603,51,2022-02-12_14h51.22.666,lexical_decision_task_DD_L5,2021.2.3,Win32,59.99160118,,,,,,,,,,,1.5168,1,,,,,,,,,,,,,,m,1,1.5168,,,,,,,,-0.117827869,0.5,0,0,0,,0,29,29,9,1,DIVER,HB,old,m,./images/DIVERHB.png,,,,,,,,,,,,,,,,,,,,,,,,,,,,,,,,,,,
,,,,,,,,,,,,,,,,,5b75d448be28580001b5a603,51,2022-02-12_14h51.22.666,lexical_decision_task_DD_L5,2021.2.3,Win32,59.99160118,,,,,,,,,,,0.6676,1,,,,,,,,,,,,,,m,1,0.6676,,,,,,,,-0.117827869,0.5,0,0,0,,0,30,30,19,1,DONKEY,LB,old,m,./images/DONKEYLB.png,,,,,,,,,,,,,,,,,,,,,,,,,,,,,,,,,,,
,,,,,,,,,,,,,,,,,5b75d448be28580001b5a603,51,2022-02-12_14h51.22.666,lexical_decision_task_DD_L5,2021.2.3,Win32,59.99160118,,,,,,,,,,,1.2331,1,,,,,,,,,,,,,,m,1,1.2331,,,,,,,,-0.117827869,0.5,0,0,0,,0,31,31,78,1,BROOM,HB,old,m,./images/BROOMHB.png,,,,,,,,,,,,,,,,,,,,,,,,,,,,,,,,,,,
,,,,,,,,,,,,,,,,,5b75d448be28580001b5a603,51,2022-02-12_14h51.22.666,lexical_decision_task_DD_L5,2021.2.3,Win32,59.99160118,,,,,,,,,,,0.7899,1,,,,,,,,,,,,,,z,1,0.7899,,,,,,,,-0.117827869,0.5,0,0,0,,0,32,32,125,1,MOOKY,LB,old,z,./images/MOOKYLB.png,,,,,,,,,,,,,,,,,,,,,,,,,,,,,,,,,,,
,,,,,,,,,,,,,,,,,5b75d448be28580001b5a603,51,2022-02-12_14h51.22.666,lexical_decision_task_DD_L5,2021.2.3,Win32,59.99160118,,,,,,,,,,,1.1638,1,,,,,,,,,,,,,,z,1,1.1638,,,,,,,,-0.117827869,0.5,0,0,0,,0,33,33,160,1,VEETS,HB,old,z,./images/VEETSHB.png,,,,,,,,,,,,,,,,,,,,,,,,,,,,,,,,,,,
,,,,,,,,,,,,,,,,,5b75d448be28580001b5a603,51,2022-02-12_14h51.22.666,lexical_decision_task_DD_L5,2021.2.3,Win32,59.99160118,,,,,,,,,,,0.6565,1,,,,,,,,,,,,,,m,1,0.6565,,,,,,,,-0.117827869,0.5,0,0,0,,0,34,34,79,1,RULER,LB,old,m,./images/RULERLB.png,,,,,,,,,,,,,,,,,,,,,,,,,,,,,,,,,,,
,,,,,,,,,,,,,,,,,5b75d448be28580001b5a603,51,2022-02-12_14h51.22.666,lexical_decision_task_DD_L5,2021.2.3,Win32,59.99160118,,,,,,,,,,,0.8901,1,,,,,,,,,,,,,,m,1,0.8901,,,,,,,,-0.117827869,0.5,0,0,0,,0,35,35,12,1,BLOKE,HB,old,m,./images/BLOKEHB.png,,,,,,,,,,,,,,,,,,,,,,,,,,,,,,,,,,,
,,,,,,,,,,,,,,,,,5b75d448be28580001b5a603,51,2022-02-12_14h51.22.666,lexical_decision_task_DD_L5,2021.2.3,Win32,59.99160118,,,,,,,,,,,1.0968,1,,,,,,,,,,,,,,m,1,1.0968,,,,,,,,-0.117827869,0.5,0,0,0,,0,36,36,3,1,CRATER,HB,old,m,./images/CRATERHB.png,,,,,,,,,,,,,,,,,,,,,,,,,,,,,,,,,,,
,,,,,,,,,,,,,,,,,5b75d448be28580001b5a603,51,2022-02-12_14h51.22.666,lexical_decision_task_DD_L5,2021.2.3,Win32,59.99160118,,,,,,,,,,,0.9814,0,,,,,,,,,,,,,,z,0,0.9814,,,,,,,,-0.117827869,0.5,0,0,0,,0,37,37,83,1,WHISKY,C,old,m,./images/WHISKY.png,,,,,,,,,,,,,,,,,,,,,,,,,,,,,,,,,,,
,,,,,,,,,,,,,,,,,5b75d448be28580001b5a603,51,2022-02-12_14h51.22.666,lexical_decision_task_DD_L5,2021.2.3,Win32,59.99160118,,,,,,,,,,,0.8884,1,,,,,,,,,,,,,,z,1,0.8884,,,,,,,,-0.117827869,0.5,0,0,0,,0,38,38,147,1,ZOLES,C,old,z,./images/ZOLES.png,,,,,,,,,,,,,,,,,,,,,,,,,,,,,,,,,,,
,,,,,,,,,,,,,,,,,5b75d448be28580001b5a603,51,2022-02-12_14h51.22.666,lexical_decision_task_DD_L5,2021.2.3,Win32,59.99160118,,,,,,,,,,,1.3319,1,,,,,,,,,,,,,,z,1,1.3319,,,,,,,,-0.117827869,0.5,0,0,0,,0,39,39,91,1,SHENS,HB,old,z,./images/SHENSHB.png,,,,,,,,,,,,,,,,,,,,,,,,,,,,,,,,,,,
,,,,,,,,,,,,,,,,,5b75d448be28580001b5a603,51,2022-02-12_14h51.22.666,lexical_decision_task_DD_L5,2021.2.3,Win32,59.99160118,,,,,,,,,,,0.8538,1,,,,,,,,,,,,,,m,1,0.8538,,,,,,,,-0.117827869,0.5,0,0,0,,0,40,40,63,1,BAKER,HB,old,m,./images/BAKERHB.png,,,,,,,,,,,,,,,,,,,,,,,,,,,,,,,,,,,
,,,,,,,,,,,,,,,,,5b75d448be28580001b5a603,51,2022-02-12_14h51.22.666,lexical_decision_task_DD_L5,2021.2.3,Win32,59.99160118,,,,,,,,,,,0.7095,1,,,,,,,,,,,,,,z,1,0.7095,,,,,,,,-0.117827869,0.5,0,0,0,space,0,41,41,146,1,MOOST,LB,old,z,./images/MOOSTLB.png,8.5573,,,,,,,,,,,,,,,,,,,,,,,,,,,,,,,,,,
,,,,,,,,,,,,,,,,,5b75d448be28580001b5a603,51,2022-02-12_14h51.22.666,lexical_decision_task_DD_L5,2021.2.3,Win32,59.99160118,,,,,,,,,,,0.81,1,,,,,,,,,,,,,,z,1,0.81,,,,,,,,-0.117827869,0.5,0,0,0,,0,42,42,152,1,FRAIN,LB,old,z,./images/FRAINLB.png,,,,,,,,,,,,,,,,,,,,,,,,,,,,,,,,,,,
,,,,,,,,,,,,,,,,,5b75d448be28580001b5a603,51,2022-02-12_14h51.22.666,lexical_decision_task_DD_L5,2021.2.3,Win32,59.99160118,,,,,,,,,,,1.1301,1,,,,,,,,,,,,,,z,1,1.1301,,,,,,,,-0.117827869,0.5,0,0,0,,0,43,43,112,1,MYING,HB,old,z,./images/MYINGHB.png,,,,,,,,,,,,,,,,,,,,,,,,,,,,,,,,,,,
,,,,,,,,,,,,,,,,,5b75d448be28580001b5a603,51,2022-02-12_14h51.22.666,lexical_decision_task_DD_L5,2021.2.3,Win32,59.99160118,,,,,,,,,,,1.2838,1,,,,,,,,,,,,,,z,1,1.2838,,,,,,,,-0.117827869,0.5,0,0,0,,0,44,44,94,1,BLANS,HB,old,z,./images/BLANSHB.png,,,,,,,,,,,,,,,,,,,,,,,,,,,,,,,,,,,
,,,,,,,,,,,,,,,,,5b75d448be28580001b5a603,51,2022-02-12_14h51.22.666,lexical_decision_task_DD_L5,2021.2.3,Win32,59.99160118,,,,,,,,,,,0.7583,1,,,,,,,,,,,,,,m,1,0.7583,,,,,,,,-0.117827869,0.5,0,0,0,,0,45,45,76,1,MIDGET,LB,old,m,./images/MIDGETLB.png,,,,,,,,,,,,,,,,,,,,,,,,,,,,,,,,,,,
,,,,,,,,,,,,,,,,,5b75d448be28580001b5a603,51,2022-02-12_14h51.22.666,lexical_decision_task_DD_L5,2021.2.3,Win32,59.99160118,,,,,,,,,,,0.9002,1,,,,,,,,,,,,,,z,1,0.9002,,,,,,,,-0.117827869,0.5,0,0,0,,0,46,46,165,1,TROWN,C,old,z,./images/TROWN.png,,,,,,,,,,,,,,,,,,,,,,,,,,,,,,,,,,,
,,,,,,,,,,,,,,,,,5b75d448be28580001b5a603,51,2022-02-12_14h51.22.666,lexical_decision_task_DD_L5,2021.2.3,Win32,59.99160118,,,,,,,,,,,0.7175,1,,,,,,,,,,,,,,m,1,0.7175,,,,,,,,-0.117827869,0.5,0,0,0,,0,47,47,34,1,RAZOR,LB,old,m,./images/RAZORLB.png,,,,,,,,,,,,,,,,,,,,,,,,,,,,,,,,,,,
,,,,,,,,,,,,,,,,,5b75d448be28580001b5a603,51,2022-02-12_14h51.22.666,lexical_decision_task_DD_L5,2021.2.3,Win32,59.99160118,,,,,,,,,,,0.6827,1,,,,,,,,,,,,,,z,1,0.6827,,,,,,,,-0.117827869,0.5,0,0,0,,0,48,48,167,1,ZONET,LB,old,z,./images/ZONETLB.png,,,,,,,,,,,,,,,,,,,,,,,,,,,,,,,,,,,
,,,,,,,,,,,,,,,,,5b75d448be28580001b5a603,51,2022-02-12_14h51.22.666,lexical_decision_task_DD_L5,2021.2.3,Win32,59.99160118,,,,,,,,,,,1.3993,1,,,,,,,,,,,,,,m,1,1.3993,,,,,,,,-0.117827869,0.5,0,0,0,,0,49,49,54,1,CHERRY,HB,old,m,./images/CHERRYHB.png,,,,,,,,,,,,,,,,,,,,,,,,,,,,,,,,,,,
,,,,,,,,,,,,,,,,,5b75d448be28580001b5a603,51,2022-02-12_14h51.22.666,lexical_decision_task_DD_L5,2021.2.3,Win32,59.99160118,,,,,,,,,,,0.9871,1,,,,,,,,,,,,,,z,1,0.9871,,,,,,,,-0.117827869,0.5,0,0,0,,0,50,50,113,1,LINEW,LB,old,z,./images/LINEWLB.png,,,,,,,,,,,,,,,,,,,,,,,,,,,,,,,,,,,
,,,,,,,,,,,,,,,,,5b75d448be28580001b5a603,51,2022-02-12_14h51.22.666,lexical_decision_task_DD_L5,2021.2.3,Win32,59.99160118,,,,,,,,,,,0.667,1,,,,,,,,,,,,,,m,1,0.667,,,,,,,,-0.117827869,0.5,0,0,0,,0,51,51,53,1,POSTER,C,old,m,./images/POSTER.png,,,,,,,,,,,,,,,,,,,,,,,,,,,,,,,,,,,
,,,,,,,,,,,,,,,,,5b75d448be28580001b5a603,51,2022-02-12_14h51.22.666,lexical_decision_task_DD_L5,2021.2.3,Win32,59.99160118,,,,,,,,,,,0.7216,1,,,,,,,,,,,,,,z,1,0.7216,,,,,,,,-0.117827869,0.5,0,0,0,,0,52,52,96,1,KEAMS,C,old,z,./images/KEAMS.png,,,,,,,,,,,,,,,,,,,,,,,,,,,,,,,,,,,
,,,,,,,,,,,,,,,,,5b75d448be28580001b5a603,51,2022-02-12_14h51.22.666,lexical_decision_task_DD_L5,2021.2.3,Win32,59.99160118,,,,,,,,,,,0.6459,1,,,,,,,,,,,,,,m,1,0.6459,,,,,,,,-0.117827869,0.5,0,0,0,,0,53,53,17,1,PARADE,C,old,m,./images/PARADE.png,,,,,,,,,,,,,,,,,,,,,,,,,,,,,,,,,,,
,,,,,,,,,,,,,,,,,5b75d448be28580001b5a603,51,2022-02-12_14h51.22.666,lexical_decision_task_DD_L5,2021.2.3,Win32,59.99160118,,,,,,,,,,,0.7649,1,,,,,,,,,,,,,,z,1,0.7649,,,,,,,,-0.117827869,0.5,0,0,0,,0,54,54,122,1,BLOOT,LB,old,z,./images/BLOOTLB.png,,,,,,,,,,,,,,,,,,,,,,,,,,,,,,,,,,,
,,,,,,,,,,,,,,,,,5b75d448be28580001b5a603,51,2022-02-12_14h51.22.666,lexical_decision_task_DD_L5,2021.2.3,Win32,59.99160118,,,,,,,,,,,0.6622,1,,,,,,,,,,,,,,m,1,0.6622,,,,,,,,-0.117827869,0.5,0,0,0,,0,55,55,65,1,SPINE,C,old,m,./images/SPINE.png,,,,,,,,,,,,,,,,,,,,,,,,,,,,,,,,,,,
,,,,,,,,,,,,,,,,,5b75d448be28580001b5a603,51,2022-02-12_14h51.22.666,lexical_decision_task_DD_L5,2021.2.3,Win32,59.99160118,,,,,,,,,,,0.771,1,,,,,,,,,,,,,,z,1,0.771,,,,,,,,-0.117827869,0.5,0,0,0,,0,56,56,131,1,NACES,LB,old,z,./images/NACESLB.png,,,,,,,,,,,,,,,,,,,,,,,,,,,,,,,,,,,
,,,,,,,,,,,,,,,,,5b75d448be28580001b5a603,51,2022-02-12_14h51.22.666,lexical_decision_task_DD_L5,2021.2.3,Win32,59.99160118,,,,,,,,,,,0.689,1,,,,,,,,,,,,,,m,1,0.689,,,,,,,,-0.117827869,0.5,0,0,0,,0,57,57,47,1,LAGOON,C,old,m,./images/LAGOON.png,,,,,,,,,,,,,,,,,,,,,,,,,,,,,,,,,,,
,,,,,,,,,,,,,,,,,5b75d448be28580001b5a603,51,2022-02-12_14h51.22.666,lexical_decision_task_DD_L5,2021.2.3,Win32,59.99160118,,,,,,,,,,,0.6894,1,,,,,,,,,,,,,,m,1,0.6894,,,,,,,,-0.117827869,0.5,0,0,0,,0,58,58,49,1,BISHOP,LB,old,m,./images/BISHOPLB.png,,,,,,,,,,,,,,,,,,,,,,,,,,,,,,,,,,,
,,,,,,,,,,,,,,,,,5b75d448be28580001b5a603,51,2022-02-12_14h51.22.666,lexical_decision_task_DD_L5,2021.2.3,Win32,59.99160118,,,,,,,,,,,1.7032,1,,,,,,,,,,,,,,z,1,1.7032,,,,,,,,-0.117827869,0.5,0,0,0,,0,59,59,121,1,CEERS,HB,old,z,./images/CEERSHB.png,,,,,,,,,,,,,,,,,,,,,,,,,,,,,,,,,,,
,,,,,,,,,,,,,,,,,5b75d448be28580001b5a603,51,2022-02-12_14h51.22.666,lexical_decision_task_DD_L5,2021.2.3,Win32,59.99160118,,,,,,,,,,,0.8825,1,,,,,,,,,,,,,,m,1,0.8825,,,,,,,,-0.117827869,0.5,0,0,0,,0,60,60,44,1,BASKET,C,old,m,./images/BASKET.png,,,,,,,,,,,,,,,,,,,,,,,,,,,,,,,,,,,
,,,,,,,,,,,,,,,,,5b75d448be28580001b5a603,51,2022-02-12_14h51.22.666,lexical_decision_task_DD_L5,2021.2.3,Win32,59.99160118,,,,,,,,,,,0.8178,1,,,,,,,,,,,,,,z,1,0.8178,,,,,,,,-0.117827869,0.5,0,0,0,,0,61,61,98,1,BAMPS,LB,old,z,./images/BAMPSLB.png,,,,,,,,,,,,,,,,,,,,,,,,,,,,,,,,,,,
,,,,,,,,,,,,,,,,,5b75d448be28580001b5a603,51,2022-02-12_14h51.22.666,lexical_decision_task_DD_L5,2021.2.3,Win32,59.99160118,,,,,,,,,,,0.8485,1,,,,,,,,,,,,,,z,1,0.8485,,,,,,,,-0.117827869,0.5,0,0,0,,0,62,62,155,1,CANGY,LB,old,z,./images/CANGYLB.png,,,,,,,,,,,,,,,,,,,,,,,,,,,,,,,,,,,
,,,,,,,,,,,,,,,,,5b75d448be28580001b5a603,51,2022-02-12_14h51.22.666,lexical_decision_task_DD_L5,2021.2.3,Win32,59.99160118,,,,,,,,,,,0.7178,1,,,,,,,,,,,,,,m,1,0.7178,,,,,,,,-0.117827869,0.5,0,0,0,,0,63,63,2,1,STOVE,C,old,m,./images/STOVE.png,,,,,,,,,,,,,,,,,,,,,,,,,,,,,,,,,,,
,,,,,,,,,,,,,,,,,5b75d448be28580001b5a603,51,2022-02-12_14h51.22.666,lexical_decision_task_DD_L5,2021.2.3,Win32,59.99160118,,,,,,,,,,,0.7055,1,,,,,,,,,,,,,,z,1,0.7055,,,,,,,,-0.117827869,0.5,0,0,0,,0,64,64,87,1,TRING,C,old,z,./images/TRING.png,,,,,,,,,,,,,,,,,,,,,,,,,,,,,,,,,,,
,,,,,,,,,,,,,,,,,5b75d448be28580001b5a603,51,2022-02-12_14h51.22.666,lexical_decision_task_DD_L5,2021.2.3,Win32,59.99160118,,,,,,,,,,,0.7928,1,,,,,,,,,,,,,,m,1,0.7928,,,,,,,,-0.117827869,0.5,0,0,0,,0,65,65,58,1,CANOE,LB,old,m,./images/CANOELB.png,,,,,,,,,,,,,,,,,,,,,,,,,,,,,,,,,,,
,,,,,,,,,,,,,,,,,5b75d448be28580001b5a603,51,2022-02-12_14h51.22.666,lexical_decision_task_DD_L5,2021.2.3,Win32,59.99160118,,,,,,,,,,,0.6624,1,,,,,,,,,,,,,,m,1,0.6624,,,,,,,,-0.117827869,0.5,0,0,0,,0,66,66,5,1,BAMBOO,C,old,m,./images/BAMBOO.png,,,,,,,,,,,,,,,,,,,,,,,,,,,,,,,,,,,
,,,,,,,,,,,,,,,,,5b75d448be28580001b5a603,51,2022-02-12_14h51.22.666,lexical_decision_task_DD_L5,2021.2.3,Win32,59.99160118,,,,,,,,,,,0.7971,1,,,,,,,,,,,,,,z,1,0.7971,,,,,,,,-0.117827869,0.5,0,0,0,,0,67,67,116,1,BALGY,LB,old,z,./images/BALGYLB.png,,,,,,,,,,,,,,,,,,,,,,,,,,,,,,,,,,,
,,,,,,,,,,,,,,,,,5b75d448be28580001b5a603,51,2022-02-12_14h51.22.666,lexical_decision_task_DD_L5,2021.2.3,Win32,59.99160118,,,,,,,,,,,1.105,1,,,,,,,,,,,,,,z,1,1.105,,,,,,,,-0.117827869,0.5,0,0,0,,0,68,68,106,1,CLUMS,HB,old,z,./images/CLUMSHB.png,,,,,,,,,,,,,,,,,,,,,,,,,,,,,,,,,,,
,,,,,,,,,,,,,,,,,5b75d448be28580001b5a603,51,2022-02-12_14h51.22.666,lexical_decision_task_DD_L5,2021.2.3,Win32,59.99160118,,,,,,,,,,,0.817,1,,,,,,,,,,,,,,z,1,0.817,,,,,,,,-0.117827869,0.5,0,0,0,,0,69,69,149,1,VEASE,LB,old,z,./images/VEASELB.png,,,,,,,,,,,,,,,,,,,,,,,,,,,,,,,,,,,
,,,,,,,,,,,,,,,,,5b75d448be28580001b5a603,51,2022-02-12_14h51.22.666,lexical_decision_task_DD_L5,2021.2.3,Win32,59.99160118,,,,,,,,,,,0.8633,1,,,,,,,,,,,,,,z,1,0.8633,,,,,,,,-0.117827869,0.5,0,0,0,,0,70,70,126,1,GUELS,C,old,z,./images/GUELS.png,,,,,,,,,,,,,,,,,,,,,,,,,,,,,,,,,,,
,,,,,,,,,,,,,,,,,5b75d448be28580001b5a603,51,2022-02-12_14h51.22.666,lexical_decision_task_DD_L5,2021.2.3,Win32,59.99160118,,,,,,,,,,,0.765,1,,,,,,,,,,,,,,z,1,0.765,,,,,,,,-0.117827869,0.5,0,0,0,,0,71,71,89,1,DRIEK,LB,old,z,./images/DRIEKLB.png,,,,,,,,,,,,,,,,,,,,,,,,,,,,,,,,,,,
,,,,,,,,,,,,,,,,,5b75d448be28580001b5a603,51,2022-02-12_14h51.22.666,lexical_decision_task_DD_L5,2021.2.3,Win32,59.99160118,,,,,,,,,,,1.4296,1,,,,,,,,,,,,,,z,1,1.4296,,,,,,,,-0.117827869,0.5,0,0,0,,0,72,72,115,1,MAWNS,HB,old,z,./images/MAWNSHB.png,,,,,,,,,,,,,,,,,,,,,,,,,,,,,,,,,,,
,,,,,,,,,,,,,,,,,5b75d448be28580001b5a603,51,2022-02-12_14h51.22.666,lexical_decision_task_DD_L5,2021.2.3,Win32,59.99160118,,,,,,,,,,,1.0484,1,,,,,,,,,,,,,,m,1,1.0484,,,,,,,,-0.117827869,0.5,0,0,0,,0,73,73,45,1,MONKEY,HB,old,m,./images/MONKEYHB.png,,,,,,,,,,,,,,,,,,,,,,,,,,,,,,,,,,,
,,,,,,,,,,,,,,,,,5b75d448be28580001b5a603,51,2022-02-12_14h51.22.666,lexical_decision_task_DD_L5,2021.2.3,Win32,59.99160118,,,,,,,,,,,0.6713,1,,,,,,,,,,,,,,z,1,0.6713,,,,,,,,-0.117827869,0.5,0,0,0,,0,74,74,134,1,TROSS,LB,old,z,./images/TROSSLB.png,,,,,,,,,,,,,,,,,,,,,,,,,,,,,,,,,,,
,,,,,,,,,,,,,,,,,5b75d448be28580001b5a603,51,2022-02-12_14h51.22.666,lexical_decision_task_DD_L5,2021.2.3,Win32,59.99160118,,,,,,,,,,,0.7978,1,,,,,,,,,,,,,,z,1,0.7978,,,,,,,,-0.117827869,0.5,0,0,0,,0,75,75,132,1,SCIFF,C,old,z,./images/SCIFF.png,,,,,,,,,,,,,,,,,,,,,,,,,,,,,,,,,,,
,,,,,,,,,,,,,,,,,5b75d448be28580001b5a603,51,2022-02-12_14h51.22.666,lexical_decision_task_DD_L5,2021.2.3,Win32,59.99160118,,,,,,,,,,,1.5113,1,,,,,,,,,,,,,,m,1,1.5113,,,,,,,,-0.117827869,0.5,0,0,0,,0,76,76,33,1,SAUNA,HB,old,m,./images/SAUNAHB.png,,,,,,,,,,,,,,,,,,,,,,,,,,,,,,,,,,,
,,,,,,,,,,,,,,,,,5b75d448be28580001b5a603,51,2022-02-12_14h51.22.666,lexical_decision_task_DD_L5,2021.2.3,Win32,59.99160118,,,,,,,,,,,1.3672,1,,,,,,,,,,,,,,m,1,1.3672,,,,,,,,-0.117827869,0.5,0,0,0,,0,77,77,75,1,HAMMER,HB,old,m,./images/HAMMERHB.png,,,,,,,,,,,,,,,,,,,,,,,,,,,,,,,,,,,
,,,,,,,,,,,,,,,,,5b75d448be28580001b5a603,51,2022-02-12_14h51.22.666,lexical_decision_task_DD_L5,2021.2.3,Win32,59.99160118,,,,,,,,,,,0.6619,1,,,,,,,,,,,,,,m,1,0.6619,,,,,,,,-0.117827869,0.5,0,0,0,,0,78,78,40,1,SNAKE,LB,old,m,./images/SNAKELB.png,,,,,,,,,,,,,,,,,,,,,,,,,,,,,,,,,,,
,,,,,,,,,,,,,,,,,5b75d448be28580001b5a603,51,2022-02-12_14h51.22.666,lexical_decision_task_DD_L5,2021.2.3,Win32,59.99160118,,,,,,,,,,,0.6506,1,,,,,,,,,,,,,,m,1,0.6506,,,,,,,,-0.117827869,0.5,0,0,0,,0,79,79,13,1,BUNNY,LB,old,m,./images/BUNNYLB.png,,,,,,,,,,,,,,,,,,,,,,,,,,,,,,,,,,,
,,,,,,,,,,,,,,,,,5b75d448be28580001b5a603,51,2022-02-12_14h51.22.666,lexical_decision_task_DD_L5,2021.2.3,Win32,59.99160118,,,,,,,,,,,1.3348,1,,,,,,,,,,,,,,z,1,1.3348,,,,,,,,-0.117827869,0.5,0,0,0,,0,80,80,105,1,MOKER,C,old,z,./images/MOKER.png,,,,,,,,,,,,,,,,,,,,,,,,,,,,,,,,,,,
,,,,,,,,,,,,,,,,,5b75d448be28580001b5a603,51,2022-02-12_14h51.22.666,lexical_decision_task_DD_L5,2021.2.3,Win32,59.99160118,,,,,,,,,,,0.9383,1,,,,,,,,,,,,,,m,1,0.9383,,,,,,,,-0.117827869,0.5,0,0,0,,0,81,81,67,1,POKER,LB,old,m,./images/POKERLB.png,,,,,,,,,,,,,,,,,,,,,,,,,,,,,,,,,,,
,,,,,,,,,,,,,,,,,5b75d448be28580001b5a603,51,2022-02-12_14h51.22.666,lexical_decision_task_DD_L5,2021.2.3,Win32,59.99160118,,,,,,,,,,,1.5031,1,,,,,,,,,,,,,,z,1,1.5031,,,,,,,,-0.117827869,0.5,0,0,0,,0,82,82,148,1,JOMS,HB,old,z,./images/JOMSHB.png,,,,,,,,,,,,,,,,,,,,,,,,,,,,,,,,,,,
,,,,,,,,,,,,,,,,,5b75d448be28580001b5a603,51,2022-02-12_14h51.22.666,lexical_decision_task_DD_L5,2021.2.3,Win32,59.99160118,,,,,,,,,,,1.0577,1,,,,,,,,,,,,,,m,1,1.0577,,,,,,,,-0.00307377,0.035860656,0,0,0,space,0,83,83,62,1,MAMMAL,C,old,m,./images/MAMMAL.png,13.0527,,,,,,,,,,,,,,,,,,,,,,,,,,,,,,,,,,
,,,,,,,,,,,,,,,,,5b75d448be28580001b5a603,51,2022-02-12_14h51.22.666,lexical_decision_task_DD_L5,2021.2.3,Win32,59.99160118,,,,,,,,,,,1.4628,1,,,,,,,,,,,,,,z,1,1.4628,,,,,,,,-0.00307377,0.035860656,0,0,0,,0,84,84,163,1,GAMBA,HB,old,z,./images/GAMBAHB.png,,,,,,,,,,,,,,,,,,,,,,,,,,,,,,,,,,,
,,,,,,,,,,,,,,,,,5b75d448be28580001b5a603,51,2022-02-12_14h51.22.666,lexical_decision_task_DD_L5,2021.2.3,Win32,59.99160118,,,,,,,,,,,0.9702,1,,,,,,,,,,,,,,z,1,0.9702,,,,,,,,0.098360656,0.193647541,0,0,0,,0,85,85,138,1,PLICE,C,old,z,./images/PLICE.png,,,,,,,,,,,,,,,,,,,,,,,,,,,,,,,,,,,
,,,,,,,,,,,,,,,,,5b75d448be28580001b5a603,51,2022-02-12_14h51.22.666,lexical_decision_task_DD_L5,2021.2.3,Win32,59.99160118,,,,,,,,,,,0.7852,1,,,,,,,,,,,,,,z,1,0.7852,,,,,,,,0.098360656,0.193647541,0,0,0,,0,86,86,90,1,NEAST,C,old,z,./images/NEAST.png,,,,,,,,,,,,,,,,,,,,,,,,,,,,,,,,,,,
,,,,,,,,,,,,,,,,,5b75d448be28580001b5a603,51,2022-02-12_14h51.22.666,lexical_decision_task_DD_L5,2021.2.3,Win32,59.99160118,,,,,,,,,,,1.2378,1,,,,,,,,,,,,,,z,1,1.2378,,,,,,,,0.098360656,0.193647541,0,0,0,,0,87,87,110,1,CRUNK,LB,old,z,./images/CRUNKLB.png,,,,,,,,,,,,,,,,,,,,,,,,,,,,,,,,,,,
,,,,,,,,,,,,,,,,,5b75d448be28580001b5a603,51,2022-02-12_14h51.22.666,lexical_decision_task_DD_L5,2021.2.3,Win32,59.99160118,,,,,,,,,,,0.6932,1,,,,,,,,,,,,,,m,1,0.6932,,,,,,,,0.098360656,0.193647541,0,0,0,,0,88,88,70,1,BANANA,LB,old,m,./images/BANANALB.png,,,,,,,,,,,,,,,,,,,,,,,,,,,,,,,,,,,
,,,,,,,,,,,,,,,,,5b75d448be28580001b5a603,51,2022-02-12_14h51.22.666,lexical_decision_task_DD_L5,2021.2.3,Win32,59.99160118,,,,,,,,,,,1.1064,1,,,,,,,,,,,,,,z,1,1.1064,,,,,,,,0.098360656,0.193647541,0,0,0,,0,89,89,114,1,RIKES,C,old,z,./images/RIKES.png,,,,,,,,,,,,,,,,,,,,,,,,,,,,,,,,,,,
,,,,,,,,,,,,,,,,,5b75d448be28580001b5a603,51,2022-02-12_14h51.22.666,lexical_decision_task_DD_L5,2021.2.3,Win32,59.99160118,,,,,,,,,,,1.5795,1,,,,,,,,,,,,,,z,1,1.5795,,,,,,,,0.098360656,0.193647541,0,0,0,,0,90,90,142,1,PLASK,HB,old,z,./images/PLASKHB.png,,,,,,,,,,,,,,,,,,,,,,,,,,,,,,,,,,,
,,,,,,,,,,,,,,,,,5b75d448be28580001b5a603,51,2022-02-12_14h51.22.666,lexical_decision_task_DD_L5,2021.2.3,Win32,59.99160118,,,,,,,,,,,1.2672,1,,,,,,,,,,,,,,m,1,1.2672,,,,,,,,0.098360656,0.193647541,0,0,0,,0,91,91,48,1,SHIELD,HB,old,m,./images/SHIELDHB.png,,,,,,,,,,,,,,,,,,,,,,,,,,,,,,,,,,,
,,,,,,,,,,,,,,,,,5b75d448be28580001b5a603,51,2022-02-12_14h51.22.666,lexical_decision_task_DD_L5,2021.2.3,Win32,59.99160118,,,,,,,,,,,1.0318,1,,,,,,,,,,,,,,m,1,1.0318,,,,,,,,0.098360656,0.193647541,0,0,0,,0,92,92,61,1,ARTIST,LB,old,m,./images/ARTISTLB.png,,,,,,,,,,,,,,,,,,,,,,,,,,,,,,,,,,,
,,,,,,,,,,,,,,,,,5b75d448be28580001b5a603,51,2022-02-12_14h51.22.666,lexical_decision_task_DD_L5,2021.2.3,Win32,59.99160118,,,,,,,,,,,1.3987,1,,,,,,,,,,,,,,z,1,1.3987,,,,,,,,0.098360656,0.193647541,0,0,0,,0,93,93,88,1,GLUSH,HB,old,z,./images/GLUSHHB.png,,,,,,,,,,,,,,,,,,,,,,,,,,,,,,,,,,,
,,,,,,,,,,,,,,,,,5b75d448be28580001b5a603,51,2022-02-12_14h51.22.666,lexical_decision_task_DD_L5,2021.2.3,Win32,59.99160118,,,,,,,,,,,0.7048,1,,,,,,,,,,,,,,m,1,0.7048,,,,,,,,0.098360656,0.193647541,0,0,0,,0,94,94,29,1,PISTOL,C,old,m,./images/PISTOL.png,,,,,,,,,,,,,,,,,,,,,,,,,,,,,,,,,,,
,,,,,,,,,,,,,,,,,5b75d448be28580001b5a603,51,2022-02-12_14h51.22.666,lexical_decision_task_DD_L5,2021.2.3,Win32,59.99160118,,,,,,,,,,,0.9472,1,,,,,,,,,,,,,,m,1,0.9472,,,,,,,,0.098360656,0.193647541,0,0,0,,0,95,95,15,1,COLLAR,HB,old,m,./images/COLLARHB.png,,,,,,,,,,,,,,,,,,,,,,,,,,,,,,,,,,,
,,,,,,,,,,,,,,,,,5b75d448be28580001b5a603,51,2022-02-12_14h51.22.666,lexical_decision_task_DD_L5,2021.2.3,Win32,59.99160118,,,,,,,,,,,1.576,1,,,,,,,,,,,,,,z,1,1.576,,,,,,,,0.098360656,0.193647541,0,0,0,,0,96,96,124,1,TUNCH,HB,old,z,./images/TUNCHHB.png,,,,,,,,,,,,,,,,,,,,,,,,,,,,,,,,,,,
,,,,,,,,,,,,,,,,,5b75d448be28580001b5a603,51,2022-02-12_14h51.22.666,lexical_decision_task_DD_L5,2021.2.3,Win32,59.99160118,,,,,,,,,,,1.5887,1,,,,,,,,,,,,,,z,1,1.5887,,,,,,,,0.098360656,0.193647541,0,0,0,,0,97,97,130,1,CRILL,HB,old,z,./images/CRILLHB.png,,,,,,,,,,,,,,,,,,,,,,,,,,,,,,,,,,,
,,,,,,,,,,,,,,,,,5b75d448be28580001b5a603,51,2022-02-12_14h51.22.666,lexical_decision_task_DD_L5,2021.2.3,Win32,59.99160118,,,,,,,,,,,1.1905,1,,,,,,,,,,,,,,m,1,1.1905,,,,,,,,0.098360656,0.193647541,0,0,0,,0,98,98,6,1,STAIN,HB,old,m,./images/STAINHB.png,,,,,,,,,,,,,,,,,,,,,,,,,,,,,,,,,,,
,,,,,,,,,,,,,,,,,5b75d448be28580001b5a603,51,2022-02-12_14h51.22.666,lexical_decision_task_DD_L5,2021.2.3,Win32,59.99160118,,,,,,,,,,,0.7881,1,,,,,,,,,,,,,,z,1,0.7881,,,,,,,,0.098360656,0.193647541,0,0,0,,0,99,99,141,1,PLEET,C,old,z,./images/PLEET.png,,,,,,,,,,,,,,,,,,,,,,,,,,,,,,,,,,,
,,,,,,,,,,,,,,,,,5b75d448be28580001b5a603,51,2022-02-12_14h51.22.666,lexical_decision_task_DD_L5,2021.2.3,Win32,59.99160118,,,,,,,,,,,0.7979,1,,,,,,,,,,,,,,m,1,0.7979,,,,,,,,0.098360656,0.193647541,0,0,0,,0,100,100,37,1,TIGER,LB,old,m,./images/TIGERLB.png,,,,,,,,,,,,,,,,,,,,,,,,,,,,,,,,,,,
,,,,,,,,,,,,,,,,,5b75d448be28580001b5a603,51,2022-02-12_14h51.22.666,lexical_decision_task_DD_L5,2021.2.3,Win32,59.99160118,,,,,,,,,,,0.8401,1,,,,,,,,,,,,,,m,1,0.8401,,,,,,,,0.098360656,0.193647541,0,0,0,,0,101,101,68,1,VALLEY,C,old,m,./images/VALLEY.png,,,,,,,,,,,,,,,,,,,,,,,,,,,,,,,,,,,
,,,,,,,,,,,,,,,,,5b75d448be28580001b5a603,51,2022-02-12_14h51.22.666,lexical_decision_task_DD_L5,2021.2.3,Win32,59.99160118,,,,,,,,,,,0.907,1,,,,,,,,,,,,,,z,1,0.907,,,,,,,,0.098360656,0.193647541,0,0,0,,0,102,102,103,1,FLORT,HB,old,z,./images/FLORTHB.png,,,,,,,,,,,,,,,,,,,,,,,,,,,,,,,,,,,
,,,,,,,,,,,,,,,,,5b75d448be28580001b5a603,51,2022-02-12_14h51.22.666,lexical_decision_task_DD_L5,2021.2.3,Win32,59.99160118,,,,,,,,,,,0.701,1,,,,,,,,,,,,,,z,1,0.701,,,,,,,,0.098360656,0.193647541,0,0,0,,0,103,103,143,1,MONGS,LB,old,z,./images/MONGSLB.png,,,,,,,,,,,,,,,,,,,,,,,,,,,,,,,,,,,
,,,,,,,,,,,,,,,,,5b75d448be28580001b5a603,51,2022-02-12_14h51.22.666,lexical_decision_task_DD_L5,2021.2.3,Win32,59.99160118,,,,,,,,,,,0.7076,1,,,,,,,,,,,,,,z,1,0.7076,,,,,,,,0.098360656,0.193647541,0,0,0,,0,104,104,101,1,GLEET,LB,old,z,./images/GLEETLB.png,,,,,,,,,,,,,,,,,,,,,,,,,,,,,,,,,,,
,,,,,,,,,,,,,,,,,5b75d448be28580001b5a603,51,2022-02-12_14h51.22.666,lexical_decision_task_DD_L5,2021.2.3,Win32,59.99160118,,,,,,,,,,,1.3238,1,,,,,,,,,,,,,,m,1,1.3238,,,,,,,,0.098360656,0.193647541,0,0,0,,0,105,105,66,1,STATUE,HB,old,m,./images/STATUEHB.png,,,,,,,,,,,,,,,,,,,,,,,,,,,,,,,,,,,
,,,,,,,,,,,,,,,,,5b75d448be28580001b5a603,51,2022-02-12_14h51.22.666,lexical_decision_task_DD_L5,2021.2.3,Win32,59.99160118,,,,,,,,,,,0.7709,1,,,,,,,,,,,,,,m,1,0.7709,,,,,,,,0.098360656,0.193647541,0,0,0,,0,106,106,35,1,LLAMA,C,old,m,./images/LLAMA.png,,,,,,,,,,,,,,,,,,,,,,,,,,,,,,,,,,,
,,,,,,,,,,,,,,,,,5b75d448be28580001b5a603,51,2022-02-12_14h51.22.666,lexical_decision_task_DD_L5,2021.2.3,Win32,59.99160118,,,,,,,,,,,1.2863,1,,,,,,,,,,,,,,z,1,1.2863,,,,,,,,0.098360656,0.193647541,0,0,0,,0,107,107,139,1,BLEAR,HB,old,z,./images/BLEARHB.png,,,,,,,,,,,,,,,,,,,,,,,,,,,,,,,,,,,
,,,,,,,,,,,,,,,,,5b75d448be28580001b5a603,51,2022-02-12_14h51.22.666,lexical_decision_task_DD_L5,2021.2.3,Win32,59.99160118,,,,,,,,,,,0.8917,1,,,,,,,,,,,,,,z,1,0.8917,,,,,,,,0.098360656,0.193647541,0,0,0,,0,108,108,86,1,AIFED,LB,old,z,./images/AIFEDLB.png,,,,,,,,,,,,,,,,,,,,,,,,,,,,,,,,,,,
,,,,,,,,,,,,,,,,,5b75d448be28580001b5a603,51,2022-02-12_14h51.22.666,lexical_decision_task_DD_L5,2021.2.3,Win32,59.99160118,,,,,,,,,,,1.3549,0,,,,,,,,,,,,,,z,0,1.3549,,,,,,,,0.098360656,0.193647541,0,0,0,,0,109,109,57,1,FERRY,HB,old,m,./images/FERRYHB.png,,,,,,,,,,,,,,,,,,,,,,,,,,,,,,,,,,,
,,,,,,,,,,,,,,,,,5b75d448be28580001b5a603,51,2022-02-12_14h51.22.666,lexical_decision_task_DD_L5,2021.2.3,Win32,59.99160118,,,,,,,,,,,0.706,1,,,,,,,,,,,,,,z,1,0.706,,,,,,,,0.098360656,0.193647541,0,0,0,,0,110,110,99,1,BACKY,C,old,z,./images/BACKY.png,,,,,,,,,,,,,,,,,,,,,,,,,,,,,,,,,,,
,,,,,,,,,,,,,,,,,5b75d448be28580001b5a603,51,2022-02-12_14h51.22.666,lexical_decision_task_DD_L5,2021.2.3,Win32,59.99160118,,,,,,,,,,,0.8521,0,,,,,,,,,,,,,,m,0,0.8521,,,,,,,,0.098360656,0.193647541,0,0,0,,0,111,111,128,1,GRIFT,LB,old,z,./images/GRIFTLB.png,,,,,,,,,,,,,,,,,,,,,,,,,,,,,,,,,,,
,,,,,,,,,,,,,,,,,5b75d448be28580001b5a603,51,2022-02-12_14h51.22.666,lexical_decision_task_DD_L5,2021.2.3,Win32,59.99160118,,,,,,,,,,,1.0215,1,,,,,,,,,,,,,,m,1,1.0215,,,,,,,,0.098360656,0.193647541,0,0,0,,0,112,112,52,1,DESERT,LB,old,m,./images/DESERTLB.png,,,,,,,,,,,,,,,,,,,,,,,,,,,,,,,,,,,
,,,,,,,,,,,,,,,,,5b75d448be28580001b5a603,51,2022-02-12_14h51.22.666,lexical_decision_task_DD_L5,2021.2.3,Win32,59.99160118,,,,,,,,,,,0.7865,1,,,,,,,,,,,,,,z,1,0.7865,,,,,,,,0.098360656,0.193647541,0,0,0,,0,113,113,144,1,NAIRY,C,old,z,./images/NAIRY.png,,,,,,,,,,,,,,,,,,,,,,,,,,,,,,,,,,,
,,,,,,,,,,,,,,,,,5b75d448be28580001b5a603,51,2022-02-12_14h51.22.666,lexical_decision_task_DD_L5,2021.2.3,Win32,59.99160118,,,,,,,,,,,0.8509,1,,,,,,,,,,,,,,z,1,0.8509,,,,,,,,0.098360656,0.193647541,0,0,0,,0,114,114,140,1,DOVET,LB,old,z,./images/DOVETLB.png,,,,,,,,,,,,,,,,,,,,,,,,,,,,,,,,,,,
,,,,,,,,,,,,,,,,,5b75d448be28580001b5a603,51,2022-02-12_14h51.22.666,lexical_decision_task_DD_L5,2021.2.3,Win32,59.99160118,,,,,,,,,,,0.8226,1,,,,,,,,,,,,,,z,1,0.8226,,,,,,,,0.098360656,0.193647541,0,0,0,,0,115,115,108,1,GRUET,C,old,z,./images/GRUET.png,,,,,,,,,,,,,,,,,,,,,,,,,,,,,,,,,,,
,,,,,,,,,,,,,,,,,5b75d448be28580001b5a603,51,2022-02-12_14h51.22.666,lexical_decision_task_DD_L5,2021.2.3,Win32,59.99160118,,,,,,,,,,,0.9468,1,,,,,,,,,,,,,,m,1,0.9468,,,,,,,,0.098360656,0.193647541,0,0,0,,0,116,116,69,1,ARROW,HB,old,m,./images/ARROWHB.png,,,,,,,,,,,,,,,,,,,,,,,,,,,,,,,,,,,
,,,,,,,,,,,,,,,,,5b75d448be28580001b5a603,51,2022-02-12_14h51.22.666,lexical_decision_task_DD_L5,2021.2.3,Win32,59.99160118,,,,,,,,,,,0.6719,1,,,,,,,,,,,,,,m,1,0.6719,,,,,,,,0.098360656,0.193647541,0,0,0,,0,117,117,31,1,STEAK,LB,old,m,./images/STEAKLB.png,,,,,,,,,,,,,,,,,,,,,,,,,,,,,,,,,,,
,,,,,,,,,,,,,,,,,5b75d448be28580001b5a603,51,2022-02-12_14h51.22.666,lexical_decision_task_DD_L5,2021.2.3,Win32,59.99160118,,,,,,,,,,,0.745,1,,,,,,,,,,,,,,m,1,0.745,,,,,,,,0.098360656,0.193647541,0,0,0,,0,118,118,80,1,PLANET,C,old,m,./images/PLANET.png,,,,,,,,,,,,,,,,,,,,,,,,,,,,,,,,,,,
,,,,,,,,,,,,,,,,,5b75d448be28580001b5a603,51,2022-02-12_14h51.22.666,lexical_decision_task_DD_L5,2021.2.3,Win32,59.99160118,,,,,,,,,,,1.091,1,,,,,,,,,,,,,,m,1,1.091,,,,,,,,0.098360656,0.193647541,0,0,0,,0,119,119,24,1,FLESH,HB,old,m,./images/FLESHHB.png,,,,,,,,,,,,,,,,,,,,,,,,,,,,,,,,,,,
,,,,,,,,,,,,,,,,,5b75d448be28580001b5a603,51,2022-02-12_14h51.22.666,lexical_decision_task_DD_L5,2021.2.3,Win32,59.99160118,,,,,,,,,,,0.8002,1,,,,,,,,,,,,,,m,1,0.8002,,,,,,,,0.098360656,0.193647541,0,0,0,,0,120,120,22,1,CLOWN,LB,old,m,./images/CLOWNLB.png,,,,,,,,,,,,,,,,,,,,,,,,,,,,,,,,,,,
,,,,,,,,,,,,,,,,,5b75d448be28580001b5a603,51,2022-02-12_14h51.22.666,lexical_decision_task_DD_L5,2021.2.3,Win32,59.99160118,,,,,,,,,,,1.1502,0,,,,,,,,,,,,,,z,0,1.1502,,,,,,,,0.098360656,0.193647541,0,0,0,,0,121,121,21,1,DANCER,HB,old,m,./images/DANCERHB.png,,,,,,,,,,,,,,,,,,,,,,,,,,,,,,,,,,,
,,,,,,,,,,,,,,,,,5b75d448be28580001b5a603,51,2022-02-12_14h51.22.666,lexical_decision_task_DD_L5,2021.2.3,Win32,59.99160118,,,,,,,,,,,1.4164,1,,,,,,,,,,,,,,z,1,1.4164,,,,,,,,0.098360656,0.193647541,0,0,0,,0,122,122,100,1,DRIBS,HB,old,z,./images/DRIBSHB.png,,,,,,,,,,,,,,,,,,,,,,,,,,,,,,,,,,,
,,,,,,,,,,,,,,,,,5b75d448be28580001b5a603,51,2022-02-12_14h51.22.666,lexical_decision_task_DD_L5,2021.2.3,Win32,59.99160118,,,,,,,,,,,0.75,1,,,,,,,,,,,,,,z,1,0.75,,,,,,,,0.098360656,0.193647541,0,0,0,,0,123,123,150,1,NOOLS,C,old,z,./images/NOOLS.png,,,,,,,,,,,,,,,,,,,,,,,,,,,,,,,,,,,
,,,,,,,,,,,,,,,,,5b75d448be28580001b5a603,51,2022-02-12_14h51.22.666,lexical_decision_task_DD_L5,2021.2.3,Win32,59.99160118,,,,,,,,,,,0.8001,1,,,,,,,,,,,,,,z,1,0.8001,,,,,,,,0.098360656,0.193647541,0,0,0,,0,124,124,123,1,SEDGE,C,old,z,./images/SEDGE.png,,,,,,,,,,,,,,,,,,,,,,,,,,,,,,,,,,,
,,,,,,,,,,,,,,,,,5b75d448be28580001b5a603,51,2022-02-12_14h51.22.666,lexical_decision_task_DD_L5,2021.2.3,Win32,59.99160118,,,,,,,,,,,0.8665,1,,,,,,,,,,,,,,z,1,0.8665,,,,,,,,0.098360656,0.193647541,0,0,0,space,0,125,125,161,1,BLAPS,LB,old,z,./images/BLAPSLB.png,9.7721,,,,,,,,,,,,,,,,,,,,,,,,,,,,,,,,,,
,,,,,,,,,,,,,,,,,5b75d448be28580001b5a603,51,2022-02-12_14h51.22.666,lexical_decision_task_DD_L5,2021.2.3,Win32,59.99160118,,,,,,,,,,,0.8527,1,,,,,,,,,,,,,,m,1,0.8527,,,,,,,,0.098360656,0.193647541,0,0,0,,0,126,126,51,1,SAUCE,HB,old,m,./images/SAUCEHB.png,,,,,,,,,,,,,,,,,,,,,,,,,,,,,,,,,,,
,,,,,,,,,,,,,,,,,5b75d448be28580001b5a603,51,2022-02-12_14h51.22.666,lexical_decision_task_DD_L5,2021.2.3,Win32,59.99160118,,,,,,,,,,,0.8118,1,,,,,,,,,,,,,,m,1,0.8118,,,,,,,,0.098360656,0.193647541,0,0,0,,0,127,127,18,1,PARCEL,HB,old,m,./images/PARCELHB.png,,,,,,,,,,,,,,,,,,,,,,,,,,,,,,,,,,,
,,,,,,,,,,,,,,,,,5b75d448be28580001b5a603,51,2022-02-12_14h51.22.666,lexical_decision_task_DD_L5,2021.2.3,Win32,59.99160118,,,,,,,,,,,0.7195,1,,,,,,,,,,,,,,z,1,0.7195,,,,,,,,0.098360656,0.193647541,0,0,0,,0,128,128,117,1,STEEG,C,old,z,./images/STEEG.png,,,,,,,,,,,,,,,,,,,,,,,,,,,,,,,,,,,
,,,,,,,,,,,,,,,,,5b75d448be28580001b5a603,51,2022-02-12_14h51.22.666,lexical_decision_task_DD_L5,2021.2.3,Win32,59.99160118,,,,,,,,,,,1.3341,1,,,,,,,,,,,,,,z,1,1.3341,,,,,,,,0.098360656,0.193647541,0,0,0,,0,129,129,133,1,POWDY,HB,old,z,./images/POWDYHB.png,,,,,,,,,,,,,,,,,,,,,,,,,,,,,,,,,,,
,,,,,,,,,,,,,,,,,5b75d448be28580001b5a603,51,2022-02-12_14h51.22.666,lexical_decision_task_DD_L5,2021.2.3,Win32,59.99160118,,,,,,,,,,,1.1981,1,,,,,,,,,,,,,,z,1,1.1981,,,,,,,,0.098360656,0.193647541,0,0,0,,0,130,130,85,1,CHULK,HB,old,z,./images/CHULKHB.png,,,,,,,,,,,,,,,,,,,,,,,,,,,,,,,,,,,
,,,,,,,,,,,,,,,,,5b75d448be28580001b5a603,51,2022-02-12_14h51.22.666,lexical_decision_task_DD_L5,2021.2.3,Win32,59.99160118,,,,,,,,,,,0.742,1,,,,,,,,,,,,,,m,1,0.742,,,,,,,,0.098360656,0.193647541,0,0,0,,0,131,131,10,1,GARDEN,LB,old,m,./images/GARDENLB.png,,,,,,,,,,,,,,,,,,,,,,,,,,,,,,,,,,,
,,,,,,,,,,,,,,,,,5b75d448be28580001b5a603,51,2022-02-12_14h51.22.666,lexical_decision_task_DD_L5,2021.2.3,Win32,59.99160118,,,,,,,,,,,0.8353,1,,,,,,,,,,,,,,z,1,0.8353,,,,,,,,0.098360656,0.193647541,0,0,0,,0,132,132,162,1,LEICH,C,old,z,./images/LEICH.png,,,,,,,,,,,,,,,,,,,,,,,,,,,,,,,,,,,
,,,,,,,,,,,,,,,,,5b75d448be28580001b5a603,51,2022-02-12_14h51.22.666,lexical_decision_task_DD_L5,2021.2.3,Win32,59.99160118,,,,,,,,,,,0.6488,1,,,,,,,,,,,,,,m,1,0.6488,,,,,,,,0.098360656,0.193647541,0,0,0,,0,133,133,23,1,CLOTH,C,old,m,./images/CLOTH.png,,,,,,,,,,,,,,,,,,,,,,,,,,,,,,,,,,,
,,,,,,,,,,,,,,,,,5b75d448be28580001b5a603,51,2022-02-12_14h51.22.666,lexical_decision_task_DD_L5,2021.2.3,Win32,59.99160118,,,,,,,,,,,0.6509,1,,,,,,,,,,,,,,m,1,0.6509,,,,,,,,0.098360656,0.193647541,0,0,0,,0,134,134,25,1,CHALK,LB,old,m,./images/CHALKLB.png,,,,,,,,,,,,,,,,,,,,,,,,,,,,,,,,,,,
,,,,,,,,,,,,,,,,,5b75d448be28580001b5a603,51,2022-02-12_14h51.22.666,lexical_decision_task_DD_L5,2021.2.3,Win32,59.99160118,,,,,,,,,,,0.9257,1,,,,,,,,,,,,,,z,1,0.9257,,,,,,,,0.098360656,0.193647541,0,0,0,,0,135,135,158,1,EGECT,LB,old,z,./images/EGECTLB.png,,,,,,,,,,,,,,,,,,,,,,,,,,,,,,,,,,,
,,,,,,,,,,,,,,,,,5b75d448be28580001b5a603,51,2022-02-12_14h51.22.666,lexical_decision_task_DD_L5,2021.2.3,Win32,59.99160118,,,,,,,,,,,0.7019,1,,,,,,,,,,,,,,m,1,0.7019,,,,,,,,0.098360656,0.193647541,0,0,0,,0,136,136,8,1,CLIFF,C,old,m,./images/CLIFF.png,,,,,,,,,,,,,,,,,,,,,,,,,,,,,,,,,,,
,,,,,,,,,,,,,,,,,5b75d448be28580001b5a603,51,2022-02-12_14h51.22.666,lexical_decision_task_DD_L5,2021.2.3,Win32,59.99160118,,,,,,,,,,,0.7592,1,,,,,,,,,,,,,,z,1,0.7592,,,,,,,,0.098360656,0.193647541,0,0,0,,0,137,137,120,1,RINED,C,old,z,./images/RINED.png,,,,,,,,,,,,,,,,,,,,,,,,,,,,,,,,,,,
,,,,,,,,,,,,,,,,,5b75d448be28580001b5a603,51,2022-02-12_14h51.22.666,lexical_decision_task_DD_L5,2021.2.3,Win32,59.99160118,,,,,,,,,,,0.6901,1,,,,,,,,,,,,,,m,1,0.6901,,,,,,,,0.098360656,0.193647541,0,0,0,,0,138,138,1,1,TOWEL,LB,old,m,./images/TOWELLB.png,,,,,,,,,,,,,,,,,,,,,,,,,,,,,,,,,,,
,,,,,,,,,,,,,,,,,5b75d448be28580001b5a603,51,2022-02-12_14h51.22.666,lexical_decision_task_DD_L5,2021.2.3,Win32,59.99160118,,,,,,,,,,,0.8383,1,,,,,,,,,,,,,,z,1,0.8383,,,,,,,,0.098360656,0.193647541,0,0,0,,0,139,139,111,1,HOSSE,C,old,z,./images/HOSSE.png,,,,,,,,,,,,,,,,,,,,,,,,,,,,,,,,,,,
,,,,,,,,,,,,,,,,,5b75d448be28580001b5a603,51,2022-02-12_14h51.22.666,lexical_decision_task_DD_L5,2021.2.3,Win32,59.99160118,,,,,,,,,,,1.0835,1,,,,,,,,,,,,,,m,1,1.0835,,,,,,,,0.098360656,0.193647541,0,0,0,,0,140,140,60,1,CURRY,HB,old,m,./images/CURRYHB.png,,,,,,,,,,,,,,,,,,,,,,,,,,,,,,,,,,,
,,,,,,,,,,,,,,,,,5b75d448be28580001b5a603,51,2022-02-12_14h51.22.666,lexical_decision_task_DD_L5,2021.2.3,Win32,59.99160118,,,,,,,,,,,0.7867,1,,,,,,,,,,,,,,m,1,0.7867,,,,,,,,0.098360656,0.193647541,0,0,0,,0,141,141,38,1,ENGINE,C,old,m,./images/ENGINE.png,,,,,,,,,,,,,,,,,,,,,,,,,,,,,,,,,,,
,,,,,,,,,,,,,,,,,5b75d448be28580001b5a603,51,2022-02-12_14h51.22.666,lexical_decision_task_DD_L5,2021.2.3,Win32,59.99160118,,,,,,,,,,,0.8669,1,,,,,,,,,,,,,,z,1,0.8669,,,,,,,,0.098360656,0.193647541,0,0,0,,0,142,142,102,1,DULLE,C,old,z,./images/DULLE.png,,,,,,,,,,,,,,,,,,,,,,,,,,,,,,,,,,,
,,,,,,,,,,,,,,,,,5b75d448be28580001b5a603,51,2022-02-12_14h51.22.666,lexical_decision_task_DD_L5,2021.2.3,Win32,59.99160118,,,,,,,,,,,1.1051,1,,,,,,,,,,,,,,z,1,1.1051,,,,,,,,0.098360656,0.193647541,0,0,0,,0,143,143,104,1,GITTY,LB,old,z,./images/GITTYLB.png,,,,,,,,,,,,,,,,,,,,,,,,,,,,,,,,,,,
,,,,,,,,,,,,,,,,,5b75d448be28580001b5a603,51,2022-02-12_14h51.22.666,lexical_decision_task_DD_L5,2021.2.3,Win32,59.99160118,,,,,,,,,,,1.3197,1,,,,,,,,,,,,,,m,1,1.3197,,,,,,,,0.098360656,0.193647541,0,0,0,,0,144,144,0,1,WALNUT,HB,old,m,./images/WALNUTHB.png,,,,,,,,,,,,,,,,,,,,,,,,,,,,,,,,,,,
,,,,,,,,,,,,,,,,,5b75d448be28580001b5a603,51,2022-02-12_14h51.22.666,lexical_decision_task_DD_L5,2021.2.3,Win32,59.99160118,,,,,,,,,,,0.7543,1,,,,,,,,,,,,,,m,1,0.7543,,,,,,,,0.098360656,0.193647541,0,0,0,,0,145,145,64,1,BRIDE,LB,old,m,./images/BRIDELB.png,,,,,,,,,,,,,,,,,,,,,,,,,,,,,,,,,,,
,,,,,,,,,,,,,,,,,5b75d448be28580001b5a603,51,2022-02-12_14h51.22.666,lexical_decision_task_DD_L5,2021.2.3,Win32,59.99160118,,,,,,,,,,,0.6997,1,,,,,,,,,,,,,,m,1,0.6997,,,,,,,,0.098360656,0.193647541,0,0,0,,0,146,146,82,1,PEBBLE,LB,old,m,./images/PEBBLELB.png,,,,,,,,,,,,,,,,,,,,,,,,,,,,,,,,,,,
,,,,,,,,,,,,,,,,,5b75d448be28580001b5a603,51,2022-02-12_14h51.22.666,lexical_decision_task_DD_L5,2021.2.3,Win32,59.99160118,,,,,,,,,,,0.8604,1,,,,,,,,,,,,,,z,1,0.8604,,,,,,,,0.098360656,0.193647541,0,0,0,,0,147,147,136,1,WERVE,HB,old,z,./images/WERVEHB.png,,,,,,,,,,,,,,,,,,,,,,,,,,,,,,,,,,,
,,,,,,,,,,,,,,,,,5b75d448be28580001b5a603,51,2022-02-12_14h51.22.666,lexical_decision_task_DD_L5,2021.2.3,Win32,59.99160118,,,,,,,,,,,0.9405,1,,,,,,,,,,,,,,z,1,0.9405,,,,,,,,0.098360656,0.193647541,0,0,0,,0,148,148,93,1,SMONE,C,old,z,./images/SMONE.png,,,,,,,,,,,,,,,,,,,,,,,,,,,,,,,,,,,
,,,,,,,,,,,,,,,,,5b75d448be28580001b5a603,51,2022-02-12_14h51.22.666,lexical_decision_task_DD_L5,2021.2.3,Win32,59.99160118,,,,,,,,,,,0.7175,1,,,,,,,,,,,,,,m,1,0.7175,,,,,,,,0.098360656,0.193647541,0,0,0,,0,149,149,26,1,CLOUD,C,old,m,./images/CLOUD.png,,,,,,,,,,,,,,,,,,,,,,,,,,,,,,,,,,,
,,,,,,,,,,,,,,,,,5b75d448be28580001b5a603,51,2022-02-12_14h51.22.666,lexical_decision_task_DD_L5,2021.2.3,Win32,59.99160118,,,,,,,,,,,1.1002,1,,,,,,,,,,,,,,z,1,1.1002,,,,,,,,0.098360656,0.193647541,0,0,0,,0,150,150,164,1,SGREW,LB,old,z,./images/SGREWLB.png,,,,,,,,,,,,,,,,,,,,,,,,,,,,,,,,,,,
,,,,,,,,,,,,,,,,,5b75d448be28580001b5a603,51,2022-02-12_14h51.22.666,lexical_decision_task_DD_L5,2021.2.3,Win32,59.99160118,,,,,,,,,,,0.9652,1,,,,,,,,,,,,,,z,1,0.9652,,,,,,,,0.098360656,0.193647541,0,0,0,,0,151,151,84,1,HAXES,C,old,z,./images/HAXES.png,,,,,,,,,,,,,,,,,,,,,,,,,,,,,,,,,,,
,,,,,,,,,,,,,,,,,5b75d448be28580001b5a603,51,2022-02-12_14h51.22.666,lexical_decision_task_DD_L5,2021.2.3,Win32,59.99160118,,,,,,,,,,,0.6565,1,,,,,,,,,,,,,,m,1,0.6565,,,,,,,,0.098360656,0.193647541,0,0,0,,0,152,152,55,1,ALLEY,LB,old,m,./images/ALLEYLB.png,,,,,,,,,,,,,,,,,,,,,,,,,,,,,,,,,,,
,,,,,,,,,,,,,,,,,5b75d448be28580001b5a603,51,2022-02-12_14h51.22.666,lexical_decision_task_DD_L5,2021.2.3,Win32,59.99160118,,,,,,,,,,,1.4149,1,,,,,,,,,,,,,,m,1,1.4149,,,,,,,,0.098360656,0.193647541,0,0,0,,0,153,153,59,1,BRUSH,C,old,m,./images/BRUSH.png,,,,,,,,,,,,,,,,,,,,,,,,,,,,,,,,,,,
,,,,,,,,,,,,,,,,,5b75d448be28580001b5a603,51,2022-02-12_14h51.22.666,lexical_decision_task_DD_L5,2021.2.3,Win32,59.99160118,,,,,,,,,,,0.9764,1,,,,,,,,,,,,,,z,1,0.9764,,,,,,,,0.098360656,0.193647541,0,0,0,,0,154,154,129,1,PRANS,C,old,z,./images/PRANS.png,,,,,,,,,,,,,,,,,,,,,,,,,,,,,,,,,,,
,,,,,,,,,,,,,,,,,5b75d448be28580001b5a603,51,2022-02-12_14h51.22.666,lexical_decision_task_DD_L5,2021.2.3,Win32,59.99160118,,,,,,,,,,,0.6714,1,,,,,,,,,,,,,,m,1,0.6714,,,,,,,,0.098360656,0.193647541,0,0,0,,0,155,155,43,1,STOOL,LB,old,m,./images/STOOLLB.png,,,,,,,,,,,,,,,,,,,,,,,,,,,,,,,,,,,
,,,,,,,,,,,,,,,,,5b75d448be28580001b5a603,51,2022-02-12_14h51.22.666,lexical_decision_task_DD_L5,2021.2.3,Win32,59.99160118,,,,,,,,,,,0.6812,1,,,,,,,,,,,,,,m,1,0.6812,,,,,,,,0.098360656,0.193647541,0,0,0,,0,156,156,4,1,BOXER,LB,old,m,./images/BOXERLB.png,,,,,,,,,,,,,,,,,,,,,,,,,,,,,,,,,,,
,,,,,,,,,,,,,,,,,5b75d448be28580001b5a603,51,2022-02-12_14h51.22.666,lexical_decision_task_DD_L5,2021.2.3,Win32,59.99160118,,,,,,,,,,,1.2171,0,,,,,,,,,,,,,,z,0,1.2171,,,,,,,,0.098360656,0.193647541,0,0,0,,0,157,157,74,1,JUMPER,C,old,m,./images/JUMPER.png,,,,,,,,,,,,,,,,,,,,,,,,,,,,,,,,,,,
,,,,,,,,,,,,,,,,,5b75d448be28580001b5a603,51,2022-02-12_14h51.22.666,lexical_decision_task_DD_L5,2021.2.3,Win32,59.99160118,,,,,,,,,,,0.8837,1,,,,,,,,,,,,,,m,1,0.8837,,,,,,,,0.098360656,0.193647541,0,0,0,,0,158,158,28,1,CASINO,LB,old,m,./images/CASINOLB.png,,,,,,,,,,,,,,,,,,,,,,,,,,,,,,,,,,,
,,,,,,,,,,,,,,,,,5b75d448be28580001b5a603,51,2022-02-12_14h51.22.666,lexical_decision_task_DD_L5,2021.2.3,Win32,59.99160118,,,,,,,,,,,0.7852,1,,,,,,,,,,,,,,m,1,0.7852,,,,,,,,0.098360656,0.193647541,0,0,0,,0,159,159,46,1,MUMMY,LB,old,m,./images/MUMMYLB.png,,,,,,,,,,,,,,,,,,,,,,,,,,,,,,,,,,,
,,,,,,,,,,,,,,,,,5b75d448be28580001b5a603,51,2022-02-12_14h51.22.666,lexical_decision_task_DD_L5,2021.2.3,Win32,59.99160118,,,,,,,,,,,0.8669,1,,,,,,,,,,,,,,m,1,0.8669,,,,,,,,0.098360656,0.193647541,0,0,0,,0,160,160,20,1,GRANNY,C,old,m,./images/GRANNY.png,,,,,,,,,,,,,,,,,,,,,,,,,,,,,,,,,,,
,,,,,,,,,,,,,,,,,5b75d448be28580001b5a603,51,2022-02-12_14h51.22.666,lexical_decision_task_DD_L5,2021.2.3,Win32,59.99160118,,,,,,,,,,,1.6185,1,,,,,,,,,,,,,,z,1,1.6185,,,,,,,,0.098360656,0.193647541,0,0,0,,0,161,161,166,1,SHORY,HB,old,z,./images/SHORYHB.png,,,,,,,,,,,,,,,,,,,,,,,,,,,,,,,,,,,
,,,,,,,,,,,,,,,,,5b75d448be28580001b5a603,51,2022-02-12_14h51.22.666,lexical_decision_task_DD_L5,2021.2.3,Win32,59.99160118,,,,,,,,,,,0.7545,1,,,,,,,,,,,,,,m,1,0.7545,,,,,,,,0.098360656,0.193647541,0,0,0,,0,162,162,11,1,MEDAL,C,old,m,./images/MEDAL.png,,,,,,,,,,,,,,,,,,,,,,,,,,,,,,,,,,,
,,,,,,,,,,,,,,,,,5b75d448be28580001b5a603,51,2022-02-12_14h51.22.666,lexical_decision_task_DD_L5,2021.2.3,Win32,59.99160118,,,,,,,,,,,1.7682,1,,,,,,,,,,,,,,z,1,1.7682,,,,,,,,0.098360656,0.193647541,0,0,0,,0,163,163,157,1,INLER,HB,old,z,./images/INLERHB.png,,,,,,,,,,,,,,,,,,,,,,,,,,,,,,,,,,,
,,,,,,,,,,,,,,,,,5b75d448be28580001b5a603,51,2022-02-12_14h51.22.666,lexical_decision_task_DD_L5,2021.2.3,Win32,59.99160118,,,,,,,,,,,0.8073,1,,,,,,,,,,,,,,z,1,0.8073,,,,,,,,0.098360656,0.193647541,0,0,0,,0,164,164,156,1,HIXES,C,old,z,./images/HIXES.png,,,,,,,,,,,,,,,,,,,,,,,,,,,,,,,,,,,
,,,,,,,,,,,,,,,,,5b75d448be28580001b5a603,51,2022-02-12_14h51.22.666,lexical_decision_task_DD_L5,2021.2.3,Win32,59.99160118,,,,,,,,,,,1.7673,1,,,,,,,,,,,,,,z,1,1.7673,,,,,,,,0.098360656,0.193647541,0,0,0,,0,165,165,154,1,THINT,HB,old,z,./images/THINTHB.png,,,,,,,,,,,,,,,,,,,,,,,,,,,,,,,,,,,
,,,,,,,,,,,,,,,,,5b75d448be28580001b5a603,51,2022-02-12_14h51.22.666,lexical_decision_task_DD_L5,2021.2.3,Win32,59.99160118,,,,,,,,,,,0.8501,1,,,,,,,,,,,,,,z,1,0.8501,,,,,,,,0.098360656,0.193647541,0,0,0,,0,166,166,135,1,JOODY,C,old,z,./images/JOODY.png,,,,,,,,,,,,,,,,,,,,,,,,,,,,,,,,,,,
,,,,,,,,,,,,,,,,,5b75d448be28580001b5a603,51,2022-02-12_14h51.22.666,lexical_decision_task_DD_L5,2021.2.3,Win32,59.99160118,,,,,,,,,,,0.7035,1,,,,,,,,,,,,,,m,1,0.7035,,,,,,,,0.098360656,0.193647541,0,0,0,,0,167,167,56,1,HEATER,C,old,m,./images/HEATER.png,,,,,,,,,,,,,,,,,,,,,,,,,,,,,,,,,,,
,,,,,,,,,,,,,,,,,5b75d448be28580001b5a603,51,2022-02-12_14h51.22.666,lexical_decision_task_DD_L5,2021.2.3,Win32,59.99160118,,,,,,,,,,,,,,,,,,,,,,,,,,,,,,,,,,,,,,,,,,,,,,,,How likely will it be that you will recognize the words presented slighly blurred on a scale of 0 (not likely) to 100 (most likely)?,,,,,-0.009221311,-0.399590164,1,0,0,jol_adv,6,7.7295,0,0,0,1,1,,,,,,,,,,,,,,,,,,,,,
,,,,,,,,,,,,,,,,,5b75d448be28580001b5a603,51,2022-02-12_14h51.22.666,lexical_decision_task_DD_L5,2021.2.3,Win32,59.99160118,,,,,,,,,,,,,,,,,,,,,,,,,,,,,,,,,,,,,,,,,,,,,,,,How likely will it be that you will recognize the words presented clearly on a scale of 0 (not likely) to 100 (most likely)?,,,,,,,,,,,6,8.368,0,1,1,0,1,,,,,,,,,,,,,,,,,,,,,
,,,,,,,,,,,,,,,,,5b75d448be28580001b5a603,51,2022-02-12_14h51.22.666,lexical_decision_task_DD_L5,2021.2.3,Win32,59.99160118,,,,,,,,,,,,,,,,,,,,,,,,,,,,,,,,,,,,,,,,,,,,,,,,How likely will it be that you will recognize the words presented very blurred on a scale of 0 (not likely) to 100 (most likely)?,,,,,,,,,,,4,8.5954,0,2,2,2,1,,,,,,,,,,,,,,,,,,,,,
space,13.8966,0.196721311,-0.206967213,0,0,0,,,,,,1,test,"In the next phase you will be presented with the words from the the first phase. Your job is to decide whether you remember seeing the word or not. If you remember seeing the word press ""old"" or type ""m"". If you do not remember seeing the word press ""new"" or type ""z"". Please press the space bar or click on continue to begin. ",,,5b75d448be28580001b5a603,51,2022-02-12_14h51.22.666,lexical_decision_task_DD_L5,2021.2.3,Win32,59.99160118,,,,,,,,,,,,,,,,,,,,,,,,,,,,,,,,,,,,,,,,,,,,,,,,,,,,,,,,,,,,,,,,,,0,0,0,0,1,,,,,,,,,,,,,,,,
,,-0.021516393,-0.397540984,1,0,0,,,,,,1,test,"In the next phase you will be presented with the words from the the first phase. Your job is to decide whether you remember seeing the word or not. If you remember seeing the word press ""old"" or type ""m"". If you do not remember seeing the word press ""new"" or type ""z"". Please press the space bar or click on continue to begin. ",,,5b75d448be28580001b5a603,51,2022-02-12_14h51.22.666,lexical_decision_task_DD_L5,2021.2.3,Win32,59.99160118,,,,,,,,,,,,,,,,,,,,,,,,,,,,,,,,,,,,,,,,,,,,,,,,,,,,,,,,,,,,,,,,,,1,0,1,0,1,instr_done_button,,,,,,,,,,,,,,,
space,1.9978,0.080942623,-0.110655738,0,0,0,,,,,,1,test,"In the next phase you will be presented with the words from the the first phase. Your job is to decide whether you remember seeing the word or not. If you remember seeing the word press ""old"" or type ""m"". If you do not remember seeing the word press ""new"" or type ""z"". Please press the space bar or click on continue to begin. ",,,5b75d448be28580001b5a603,51,2022-02-12_14h51.22.666,lexical_decision_task_DD_L5,2021.2.3,Win32,59.99160118,,,,,,,,,,,,,,,,,,,,,,,,,,,,,,,,,,,,,,,,,,,,,,,,,,,,,,,,,,,,,,,,,,2,0,2,0,1,,,,,,,,,,,,,,,,
space,2.2187,0.080942623,-0.110655738,0,0,0,,,,,,1,test,"In the next phase you will be presented with the words from the the first phase. Your job is to decide whether you remember seeing the word or not. If you remember seeing the word press ""old"" or type ""m"". If you do not remember seeing the word press ""new"" or type ""z"". Please press the space bar or click on continue to begin. ",,,5b75d448be28580001b5a603,51,2022-02-12_14h51.22.666,lexical_decision_task_DD_L5,2021.2.3,Win32,59.99160118,,,,,,,,,,,,,,,,,,,,,,,,,,,,,,,,,,,,,,,,,,,,,,,,,,,,,,,,,,,,,,,,,,3,0,3,0,1,,,,,,,,,,,,,,,,
,,0,-0.375,1,0,0,,,,,,1,test,"In the next phase you will be presented with the words from the the first phase. Your job is to decide whether you remember seeing the word or not. If you remember seeing the word press ""old"" or type ""m"". If you do not remember seeing the word press ""new"" or type ""z"". Please press the space bar or click on continue to begin. ",,,5b75d448be28580001b5a603,51,2022-02-12_14h51.22.666,lexical_decision_task_DD_L5,2021.2.3,Win32,59.99160118,,,,,,,,,,,,,,,,,,,,,,,,,,,,,,,,,,,,,,,,,,,,,,,,,,,,,,,,,,,,,,,,,,4,0,4,0,1,instr_done_button,,,,,,,,,,,,,,,
,,,,,,,,,,,,,,,,,5b75d448be28580001b5a603,51,2022-02-12_14h51.22.666,lexical_decision_task_DD_L5,2021.2.3,Win32,59.99160118,,,,,,,,,,,2.068,1,,,,,,,,,,,,,,,,,,,,,,,,0.013319672,-0.053278689,0,0,0,,,,,,,MEDAL,C,m,y,./images/MEDAL.png,,,,,,,,,,,,,,,,,,,,,m,1,2.068,,,,,,,,0,0,0,11,1
,,,,,,,,,,,,,,,,,5b75d448be28580001b5a603,51,2022-02-12_14h51.22.666,lexical_decision_task_DD_L5,2021.2.3,Win32,59.99160118,,,,,,,,,,,1.0789,1,,,,,,,,,,,,,,,,,,,,,,,,0.013319672,-0.053278689,0,0,0,,,,,,,SAILOR,LB,z,y,./images/SAILORLB.png,,,,,,,,,,,,,,,,,,,,,z,1,1.0789,,,,,,,,0,1,1,151,1
,,,,,,,,,,,,,,,,,5b75d448be28580001b5a603,51,2022-02-12_14h51.22.666,lexical_decision_task_DD_L5,2021.2.3,Win32,59.99160118,,,,,,,,,,,1.1095,1,,,,,,,,,,,,,,,,,,,,,,,,0.013319672,-0.053278689,0,0,0,,,,,,,MALLET,C,z,y,./images/MALLET.png,,,,,,,,,,,,,,,,,,,,,z,1,1.1095,,,,,,,,0,2,2,134,1
,,,,,,,,,,,,,,,,,5b75d448be28580001b5a603,51,2022-02-12_14h51.22.666,lexical_decision_task_DD_L5,2021.2.3,Win32,59.99160118,,,,,,,,,,,0.86,1,,,,,,,,,,,,,,,,,,,,,,,,0.013319672,-0.053278689,0,0,0,,,,,,,SAUNA,HB,m,y,./images/SAUNAHB.png,,,,,,,,,,,,,,,,,,,,,m,1,0.86,,,,,,,,0,3,3,33,1
,,,,,,,,,,,,,,,,,5b75d448be28580001b5a603,51,2022-02-12_14h51.22.666,lexical_decision_task_DD_L5,2021.2.3,Win32,59.99160118,,,,,,,,,,,1.0839,1,,,,,,,,,,,,,,,,,,,,,,,,0.013319672,-0.053278689,0,0,0,,,,,,,PURSE,C,z,y,./images/PURSE.png,,,,,,,,,,,,,,,,,,,,,z,1,1.0839,,,,,,,,0,4,4,146,1
,,,,,,,,,,,,,,,,,5b75d448be28580001b5a603,51,2022-02-12_14h51.22.666,lexical_decision_task_DD_L5,2021.2.3,Win32,59.99160118,,,,,,,,,,,0.8902,1,,,,,,,,,,,,,,,,,,,,,,,,0.013319672,-0.053278689,0,0,0,,,,,,,ATTIC,HB,z,y,./images/ATTICHB.png,,,,,,,,,,,,,,,,,,,,,z,1,0.8902,,,,,,,,0,5,5,111,1
,,,,,,,,,,,,,,,,,5b75d448be28580001b5a603,51,2022-02-12_14h51.22.666,lexical_decision_task_DD_L5,2021.2.3,Win32,59.99160118,,,,,,,,,,,0.8917,1,,,,,,,,,,,,,,,,,,,,,,,,0.013319672,-0.053278689,0,0,0,,,,,,,MONKEY,HB,m,y,./images/MONKEYHB.png,,,,,,,,,,,,,,,,,,,,,m,1,0.8917,,,,,,,,0,6,6,45,1
,,,,,,,,,,,,,,,,,5b75d448be28580001b5a603,51,2022-02-12_14h51.22.666,lexical_decision_task_DD_L5,2021.2.3,Win32,59.99160118,,,,,,,,,,,0.7321,1,,,,,,,,,,,,,,,,,,,,,,,,0.013319672,-0.053278689,0,0,0,,,,,,,MUMMY,LB,m,y,./images/MUMMYLB.png,,,,,,,,,,,,,,,,,,,,,m,1,0.7321,,,,,,,,0,7,7,46,1
,,,,,,,,,,,,,,,,,5b75d448be28580001b5a603,51,2022-02-12_14h51.22.666,lexical_decision_task_DD_L5,2021.2.3,Win32,59.99160118,,,,,,,,,,,0.7213,1,,,,,,,,,,,,,,,,,,,,,,,,0.013319672,-0.053278689,0,0,0,,,,,,,CHALK,LB,m,y,./images/CHALKLB.png,,,,,,,,,,,,,,,,,,,,,m,1,0.7213,,,,,,,,0,8,8,25,1
,,,,,,,,,,,,,,,,,5b75d448be28580001b5a603,51,2022-02-12_14h51.22.666,lexical_decision_task_DD_L5,2021.2.3,Win32,59.99160118,,,,,,,,,,,0.8738,1,,,,,,,,,,,,,,,,,,,,,,,,0.013319672,-0.053278689,0,0,0,,,,,,,POKER,LB,m,y,./images/POKERLB.png,,,,,,,,,,,,,,,,,,,,,m,1,0.8738,,,,,,,,0,9,9,67,1
,,,,,,,,,,,,,,,,,5b75d448be28580001b5a603,51,2022-02-12_14h51.22.666,lexical_decision_task_DD_L5,2021.2.3,Win32,59.99160118,,,,,,,,,,,0.8549,1,,,,,,,,,,,,,,,,,,,,,,,,0.013319672,-0.053278689,0,0,0,,,,,,,MOTOR,LB,z,y,./images/MOTORLB.png,,,,,,,,,,,,,,,,,,,,,z,1,0.8549,,,,,,,,0,10,10,97,1
,,,,,,,,,,,,,,,,,5b75d448be28580001b5a603,51,2022-02-12_14h51.22.666,lexical_decision_task_DD_L5,2021.2.3,Win32,59.99160118,,,,,,,,,,,1.045,0,,,,,,,,,,,,,,,,,,,,,,,,0.013319672,-0.053278689,0,0,0,,,,,,,BROOM,HB,m,y,./images/BROOMHB.png,,,,,,,,,,,,,,,,,,,,,z,0,1.045,,,,,,,,0,11,11,78,1
,,,,,,,,,,,,,,,,,5b75d448be28580001b5a603,51,2022-02-12_14h51.22.666,lexical_decision_task_DD_L5,2021.2.3,Win32,59.99160118,,,,,,,,,,,0.8124,1,,,,,,,,,,,,,,,,,,,,,,,,0.013319672,-0.053278689,0,0,0,,,,,,,HOCKEY,C,m,y,./images/HOCKEY.png,,,,,,,,,,,,,,,,,,,,,m,1,0.8124,,,,,,,,0,12,12,32,1
,,,,,,,,,,,,,,,,,5b75d448be28580001b5a603,51,2022-02-12_14h51.22.666,lexical_decision_task_DD_L5,2021.2.3,Win32,59.99160118,,,,,,,,,,,0.9391,1,,,,,,,,,,,,,,,,,,,,,,,,0.013319672,-0.053278689,0,0,0,,,,,,,COOKER,HB,z,y,./images/COOKERHB.png,,,,,,,,,,,,,,,,,,,,,z,1,0.9391,,,,,,,,0,13,13,153,1
,,,,,,,,,,,,,,,,,5b75d448be28580001b5a603,51,2022-02-12_14h51.22.666,lexical_decision_task_DD_L5,2021.2.3,Win32,59.99160118,,,,,,,,,,,0.8058,1,,,,,,,,,,,,,,,,,,,,,,,,0.013319672,-0.053278689,0,0,0,,,,,,,URINE,LB,z,y,./images/URINELB.png,,,,,,,,,,,,,,,,,,,,,z,1,0.8058,,,,,,,,0,14,14,154,1
,,,,,,,,,,,,,,,,,5b75d448be28580001b5a603,51,2022-02-12_14h51.22.666,lexical_decision_task_DD_L5,2021.2.3,Win32,59.99160118,,,,,,,,,,,0.8639,1,,,,,,,,,,,,,,,,,,,,,,,,0.013319672,-0.053278689,0,0,0,,,,,,,BANNER,LB,z,y,./images/BANNERLB.png,,,,,,,,,,,,,,,,,,,,,z,1,0.8639,,,,,,,,0,15,15,136,1
,,,,,,,,,,,,,,,,,5b75d448be28580001b5a603,51,2022-02-12_14h51.22.666,lexical_decision_task_DD_L5,2021.2.3,Win32,59.99160118,,,,,,,,,,,0.9029,0,,,,,,,,,,,,,,,,,,,,,,,,0.013319672,-0.053278689,0,0,0,,,,,,,WHEEL,C,m,y,./images/WHEEL.png,,,,,,,,,,,,,,,,,,,,,z,0,0.9029,,,,,,,,0,16,16,77,1
,,,,,,,,,,,,,,,,,5b75d448be28580001b5a603,51,2022-02-12_14h51.22.666,lexical_decision_task_DD_L5,2021.2.3,Win32,59.99160118,,,,,,,,,,,1.2877,1,,,,,,,,,,,,,,,,,,,,,,,,0.013319672,-0.053278689,0,0,0,,,,,,,BASKET,C,m,y,./images/BASKET.png,,,,,,,,,,,,,,,,,,,,,m,1,1.2877,,,,,,,,0,17,17,44,1
,,,,,,,,,,,,,,,,,5b75d448be28580001b5a603,51,2022-02-12_14h51.22.666,lexical_decision_task_DD_L5,2021.2.3,Win32,59.99160118,,,,,,,,,,,0.8158,0,,,,,,,,,,,,,,,,,,,,,,,,0.013319672,-0.053278689,0,0,0,,,,,,,ARTIST,LB,m,y,./images/ARTISTLB.png,,,,,,,,,,,,,,,,,,,,,z,0,0.8158,,,,,,,,0,18,18,61,1
,,,,,,,,,,,,,,,,,5b75d448be28580001b5a603,51,2022-02-12_14h51.22.666,lexical_decision_task_DD_L5,2021.2.3,Win32,59.99160118,,,,,,,,,,,0.8312,1,,,,,,,,,,,,,,,,,,,,,,,,0.013319672,-0.053278689,0,0,0,,,,,,,BISHOP,LB,m,y,./images/BISHOPLB.png,,,,,,,,,,,,,,,,,,,,,m,1,0.8312,,,,,,,,0,19,19,49,1
,,,,,,,,,,,,,,,,,5b75d448be28580001b5a603,51,2022-02-12_14h51.22.666,lexical_decision_task_DD_L5,2021.2.3,Win32,59.99160118,,,,,,,,,,,0.7835,1,,,,,,,,,,,,,,,,,,,,,,,,0.013319672,-0.053278689,0,0,0,,,,,,,STEAK,LB,m,y,./images/STEAKLB.png,,,,,,,,,,,,,,,,,,,,,m,1,0.7835,,,,,,,,0,20,20,31,1
,,,,,,,,,,,,,,,,,5b75d448be28580001b5a603,51,2022-02-12_14h51.22.666,lexical_decision_task_DD_L5,2021.2.3,Win32,59.99160118,,,,,,,,,,,0.6169,1,,,,,,,,,,,,,,,,,,,,,,,,0.013319672,-0.053278689,0,0,0,,,,,,,BUNNY,LB,m,y,./images/BUNNYLB.png,,,,,,,,,,,,,,,,,,,,,m,1,0.6169,,,,,,,,0,21,21,13,1
,,,,,,,,,,,,,,,,,5b75d448be28580001b5a603,51,2022-02-12_14h51.22.666,lexical_decision_task_DD_L5,2021.2.3,Win32,59.99160118,,,,,,,,,,,1.1759,1,,,,,,,,,,,,,,,,,,,,,,,,0.013319672,-0.053278689,0,0,0,,,,,,,CASINO,LB,m,y,./images/CASINOLB.png,,,,,,,,,,,,,,,,,,,,,m,1,1.1759,,,,,,,,0,22,22,28,1
,,,,,,,,,,,,,,,,,5b75d448be28580001b5a603,51,2022-02-12_14h51.22.666,lexical_decision_task_DD_L5,2021.2.3,Win32,59.99160118,,,,,,,,,,,0.6026,1,,,,,,,,,,,,,,,,,,,,,,,,0.013319672,-0.053278689,0,0,0,,,,,,,CLOWN,LB,m,y,./images/CLOWNLB.png,,,,,,,,,,,,,,,,,,,,,m,1,0.6026,,,,,,,,0,23,23,22,1
,,,,,,,,,,,,,,,,,5b75d448be28580001b5a603,51,2022-02-12_14h51.22.666,lexical_decision_task_DD_L5,2021.2.3,Win32,59.99160118,,,,,,,,,,,0.7509,1,,,,,,,,,,,,,,,,,,,,,,,,0.013319672,-0.053278689,0,0,0,,,,,,,PEBBLE,LB,m,y,./images/PEBBLELB.png,,,,,,,,,,,,,,,,,,,,,m,1,0.7509,,,,,,,,0,24,24,82,1
,,,,,,,,,,,,,,,,,5b75d448be28580001b5a603,51,2022-02-12_14h51.22.666,lexical_decision_task_DD_L5,2021.2.3,Win32,59.99160118,,,,,,,,,,,0.9679,1,,,,,,,,,,,,,,,,,,,,,,,,0.013319672,-0.053278689,0,0,0,,,,,,,SPORT,HB,z,y,./images/SPORTHB.png,,,,,,,,,,,,,,,,,,,,,z,1,0.9679,,,,,,,,0,25,25,132,1
,,,,,,,,,,,,,,,,,5b75d448be28580001b5a603,51,2022-02-12_14h51.22.666,lexical_decision_task_DD_L5,2021.2.3,Win32,59.99160118,,,,,,,,,,,1.1319,1,,,,,,,,,,,,,,,,,,,,,,,,0.013319672,-0.053278689,0,0,0,,,,,,,ALLEY,LB,m,y,./images/ALLEYLB.png,,,,,,,,,,,,,,,,,,,,,m,1,1.1319,,,,,,,,0,26,26,55,1
,,,,,,,,,,,,,,,,,5b75d448be28580001b5a603,51,2022-02-12_14h51.22.666,lexical_decision_task_DD_L5,2021.2.3,Win32,59.99160118,,,,,,,,,,,1.5378,0,,,,,,,,,,,,,,,,,,,,,,,,0.013319672,-0.053278689,0,0,0,,,,,,,FENCE,C,m,y,./images/FENCE.png,,,,,,,,,,,,,,,,,,,,,z,0,1.5378,,,,,,,,0,27,27,14,1
,,,,,,,,,,,,,,,,,5b75d448be28580001b5a603,51,2022-02-12_14h51.22.666,lexical_decision_task_DD_L5,2021.2.3,Win32,59.99160118,,,,,,,,,,,0.966,1,,,,,,,,,,,,,,,,,,,,,,,,0.013319672,-0.053278689,0,0,0,,,,,,,PEARL,LB,z,y,./images/PEARLLB.png,,,,,,,,,,,,,,,,,,,,,z,1,0.966,,,,,,,,0,28,28,130,1
,,,,,,,,,,,,,,,,,5b75d448be28580001b5a603,51,2022-02-12_14h51.22.666,lexical_decision_task_DD_L5,2021.2.3,Win32,59.99160118,,,,,,,,,,,1.9477,1,,,,,,,,,,,,,,,,,,,,,,,,0.013319672,-0.053278689,0,0,0,,,,,,,BABOON,LB,z,y,./images/BABOONLB.png,,,,,,,,,,,,,,,,,,,,,z,1,1.9477,,,,,,,,0,29,29,142,1
,,,,,,,,,,,,,,,,,5b75d448be28580001b5a603,51,2022-02-12_14h51.22.666,lexical_decision_task_DD_L5,2021.2.3,Win32,59.99160118,,,,,,,,,,,1.3677,1,,,,,,,,,,,,,,,,,,,,,,,,0.013319672,-0.053278689,0,0,0,,,,,,,CRUMB,C,z,y,./images/CRUMB.png,,,,,,,,,,,,,,,,,,,,,z,1,1.3677,,,,,,,,0,30,30,113,1
,,,,,,,,,,,,,,,,,5b75d448be28580001b5a603,51,2022-02-12_14h51.22.666,lexical_decision_task_DD_L5,2021.2.3,Win32,59.99160118,,,,,,,,,,,0.7135,1,,,,,,,,,,,,,,,,,,,,,,,,0.013319672,-0.053278689,0,0,0,,,,,,,TOWEL,LB,m,y,./images/TOWELLB.png,,,,,,,,,,,,,,,,,,,,,m,1,0.7135,,,,,,,,0,31,31,1,1
,,,,,,,,,,,,,,,,,5b75d448be28580001b5a603,51,2022-02-12_14h51.22.666,lexical_decision_task_DD_L5,2021.2.3,Win32,59.99160118,,,,,,,,,,,0.7541,1,,,,,,,,,,,,,,,,,,,,,,,,0.013319672,-0.053278689,0,0,0,,,,,,,WAGON,LB,m,y,./images/WAGONLB.png,,,,,,,,,,,,,,,,,,,,,m,1,0.7541,,,,,,,,0,32,32,7,1
,,,,,,,,,,,,,,,,,5b75d448be28580001b5a603,51,2022-02-12_14h51.22.666,lexical_decision_task_DD_L5,2021.2.3,Win32,59.99160118,,,,,,,,,,,0.6127,1,,,,,,,,,,,,,,,,,,,,,,,,0.013319672,-0.053278689,0,0,0,,,,,,,CURRY,HB,m,y,./images/CURRYHB.png,,,,,,,,,,,,,,,,,,,,,m,1,0.6127,,,,,,,,0,33,33,60,1
,,,,,,,,,,,,,,,,,5b75d448be28580001b5a603,51,2022-02-12_14h51.22.666,lexical_decision_task_DD_L5,2021.2.3,Win32,59.99160118,,,,,,,,,,,0.8177,1,,,,,,,,,,,,,,,,,,,,,,,,0.013319672,-0.053278689,0,0,0,,,,,,,FOLDER,HB,z,y,./images/FOLDERHB.png,,,,,,,,,,,,,,,,,,,,,z,1,0.8177,,,,,,,,0,34,34,126,1
,,,,,,,,,,,,,,,,,5b75d448be28580001b5a603,51,2022-02-12_14h51.22.666,lexical_decision_task_DD_L5,2021.2.3,Win32,59.99160118,,,,,,,,,,,0.7749,1,,,,,,,,,,,,,,,,,,,,,,,,0.013319672,-0.053278689,0,0,0,,,,,,,STOVE,C,m,y,./images/STOVE.png,,,,,,,,,,,,,,,,,,,,,m,1,0.7749,,,,,,,,0,35,35,2,1
,,,,,,,,,,,,,,,,,5b75d448be28580001b5a603,51,2022-02-12_14h51.22.666,lexical_decision_task_DD_L5,2021.2.3,Win32,59.99160118,,,,,,,,,,,0.8501,1,,,,,,,,,,,,,,,,,,,,,,,,0.013319672,-0.053278689,0,0,0,,,,,,,LAGOON,C,m,y,./images/LAGOON.png,,,,,,,,,,,,,,,,,,,,,m,1,0.8501,,,,,,,,0,36,36,47,1
,,,,,,,,,,,,,,,,,5b75d448be28580001b5a603,51,2022-02-12_14h51.22.666,lexical_decision_task_DD_L5,2021.2.3,Win32,59.99160118,,,,,,,,,,,0.6537,1,,,,,,,,,,,,,,,,,,,,,,,,0.013319672,-0.053278689,0,0,0,,,,,,,RAZOR,LB,m,y,./images/RAZORLB.png,,,,,,,,,,,,,,,,,,,,,m,1,0.6537,,,,,,,,0,37,37,34,1
,,,,,,,,,,,,,,,,,5b75d448be28580001b5a603,51,2022-02-12_14h51.22.666,lexical_decision_task_DD_L5,2021.2.3,Win32,59.99160118,,,,,,,,,,,0.7199,1,,,,,,,,,,,,,,,,,,,,,,,,0.013319672,-0.053278689,0,0,0,,,,,,,BAKER,HB,m,y,./images/BAKERHB.png,,,,,,,,,,,,,,,,,,,,,m,1,0.7199,,,,,,,,0,38,38,63,1
,,,,,,,,,,,,,,,,,5b75d448be28580001b5a603,51,2022-02-12_14h51.22.666,lexical_decision_task_DD_L5,2021.2.3,Win32,59.99160118,,,,,,,,,,,0.9177,1,,,,,,,,,,,,,,,,,,,,,,,,0.013319672,-0.053278689,0,0,0,,,,,,,FERRY,HB,m,y,./images/FERRYHB.png,,,,,,,,,,,,,,,,,,,,,m,1,0.9177,,,,,,,,0,39,39,57,1
,,,,,,,,,,,,,,,,,5b75d448be28580001b5a603,51,2022-02-12_14h51.22.666,lexical_decision_task_DD_L5,2021.2.3,Win32,59.99160118,,,,,,,,,,,0.7945,1,,,,,,,,,,,,,,,,,,,,,,,,0.013319672,-0.053278689,0,0,0,,,,,,,CHERRY,HB,m,y,./images/CHERRYHB.png,,,,,,,,,,,,,,,,,,,,,m,1,0.7945,,,,,,,,0,40,40,54,1
,,,,,,,,,,,,,,,,,5b75d448be28580001b5a603,51,2022-02-12_14h51.22.666,lexical_decision_task_DD_L5,2021.2.3,Win32,59.99160118,,,,,,,,,,,0.9235,1,,,,,,,,,,,,,,,,,,,,,,,,0.013319672,-0.053278689,0,0,0,space,,,,,,VALLEY,C,m,y,./images/VALLEY.png,2.7858,,,,,,,,,,,,,,,,,,,,m,1,0.9235,,,,,,,,0,41,41,68,1
,,,,,,,,,,,,,,,,,5b75d448be28580001b5a603,51,2022-02-12_14h51.22.666,lexical_decision_task_DD_L5,2021.2.3,Win32,59.99160118,,,,,,,,,,,1.4059,1,,,,,,,,,,,,,,,,,,,,,,,,0.013319672,-0.053278689,0,0,0,,,,,,,BELLY,LB,z,y,./images/BELLYLB.png,,,,,,,,,,,,,,,,,,,,,z,1,1.4059,,,,,,,,0,42,42,94,1
,,,,,,,,,,,,,,,,,5b75d448be28580001b5a603,51,2022-02-12_14h51.22.666,lexical_decision_task_DD_L5,2021.2.3,Win32,59.99160118,,,,,,,,,,,0.8149,1,,,,,,,,,,,,,,,,,,,,,,,,0.013319672,-0.053278689,0,0,0,,,,,,,LLAMA,C,m,y,./images/LLAMA.png,,,,,,,,,,,,,,,,,,,,,m,1,0.8149,,,,,,,,0,43,43,35,1
,,,,,,,,,,,,,,,,,5b75d448be28580001b5a603,51,2022-02-12_14h51.22.666,lexical_decision_task_DD_L5,2021.2.3,Win32,59.99160118,,,,,,,,,,,0.8678,0,,,,,,,,,,,,,,,,,,,,,,,,0.013319672,-0.053278689,0,0,0,,,,,,,BARREL,C,z,y,./images/BARREL.png,,,,,,,,,,,,,,,,,,,,,m,0,0.8678,,,,,,,,0,44,44,116,1
,,,,,,,,,,,,,,,,,5b75d448be28580001b5a603,51,2022-02-12_14h51.22.666,lexical_decision_task_DD_L5,2021.2.3,Win32,59.99160118,,,,,,,,,,,0.7146,1,,,,,,,,,,,,,,,,,,,,,,,,0.013319672,-0.053278689,0,0,0,,,,,,,TIGER,LB,m,y,./images/TIGERLB.png,,,,,,,,,,,,,,,,,,,,,m,1,0.7146,,,,,,,,0,45,45,37,1
,,,,,,,,,,,,,,,,,5b75d448be28580001b5a603,51,2022-02-12_14h51.22.666,lexical_decision_task_DD_L5,2021.2.3,Win32,59.99160118,,,,,,,,,,,0.7378,1,,,,,,,,,,,,,,,,,,,,,,,,0.013319672,-0.053278689,0,0,0,,,,,,,STATUE,HB,m,y,./images/STATUEHB.png,,,,,,,,,,,,,,,,,,,,,m,1,0.7378,,,,,,,,0,46,46,66,1
,,,,,,,,,,,,,,,,,5b75d448be28580001b5a603,51,2022-02-12_14h51.22.666,lexical_decision_task_DD_L5,2021.2.3,Win32,59.99160118,,,,,,,,,,,0.7121,1,,,,,,,,,,,,,,,,,,,,,,,,0.013319672,-0.053278689,0,0,0,,,,,,,SLOPE,HB,m,y,./images/SLOPEHB.png,,,,,,,,,,,,,,,,,,,,,m,1,0.7121,,,,,,,,0,47,47,30,1
,,,,,,,,,,,,,,,,,5b75d448be28580001b5a603,51,2022-02-12_14h51.22.666,lexical_decision_task_DD_L5,2021.2.3,Win32,59.99160118,,,,,,,,,,,0.773,1,,,,,,,,,,,,,,,,,,,,,,,,0.013319672,-0.053278689,0,0,0,,,,,,,PACKET,C,z,y,./images/PACKET.png,,,,,,,,,,,,,,,,,,,,,z,1,0.773,,,,,,,,0,48,48,140,1
,,,,,,,,,,,,,,,,,5b75d448be28580001b5a603,51,2022-02-12_14h51.22.666,lexical_decision_task_DD_L5,2021.2.3,Win32,59.99160118,,,,,,,,,,,0.9427,1,,,,,,,,,,,,,,,,,,,,,,,,0.013319672,-0.053278689,0,0,0,,,,,,,PILOT,C,m,y,./images/PILOT.png,,,,,,,,,,,,,,,,,,,,,m,1,0.9427,,,,,,,,0,49,49,50,1
,,,,,,,,,,,,,,,,,5b75d448be28580001b5a603,51,2022-02-12_14h51.22.666,lexical_decision_task_DD_L5,2021.2.3,Win32,59.99160118,,,,,,,,,,,1.0521,1,,,,,,,,,,,,,,,,,,,,,,,,0.013319672,-0.053278689,0,0,0,,,,,,,RULER,LB,m,y,./images/RULERLB.png,,,,,,,,,,,,,,,,,,,,,m,1,1.0521,,,,,,,,0,50,50,79,1
,,,,,,,,,,,,,,,,,5b75d448be28580001b5a603,51,2022-02-12_14h51.22.666,lexical_decision_task_DD_L5,2021.2.3,Win32,59.99160118,,,,,,,,,,,0.7332,1,,,,,,,,,,,,,,,,,,,,,,,,0.013319672,-0.053278689,0,0,0,,,,,,,CLOTH,C,m,y,./images/CLOTH.png,,,,,,,,,,,,,,,,,,,,,m,1,0.7332,,,,,,,,0,51,51,23,1
,,,,,,,,,,,,,,,,,5b75d448be28580001b5a603,51,2022-02-12_14h51.22.666,lexical_decision_task_DD_L5,2021.2.3,Win32,59.99160118,,,,,,,,,,,0.7029,1,,,,,,,,,,,,,,,,,,,,,,,,0.013319672,-0.053278689,0,0,0,,,,,,,SPINE,C,m,y,./images/SPINE.png,,,,,,,,,,,,,,,,,,,,,m,1,0.7029,,,,,,,,0,52,52,65,1
,,,,,,,,,,,,,,,,,5b75d448be28580001b5a603,51,2022-02-12_14h51.22.666,lexical_decision_task_DD_L5,2021.2.3,Win32,59.99160118,,,,,,,,,,,0.7662,1,,,,,,,,,,,,,,,,,,,,,,,,0.013319672,-0.053278689,0,0,0,,,,,,,COLLAR,HB,m,y,./images/COLLARHB.png,,,,,,,,,,,,,,,,,,,,,m,1,0.7662,,,,,,,,0,53,53,15,1
,,,,,,,,,,,,,,,,,5b75d448be28580001b5a603,51,2022-02-12_14h51.22.666,lexical_decision_task_DD_L5,2021.2.3,Win32,59.99160118,,,,,,,,,,,0.8142,0,,,,,,,,,,,,,,,,,,,,,,,,0.013319672,-0.053278689,0,0,0,,,,,,,SCREW,HB,z,y,./images/SCREWHB.png,,,,,,,,,,,,,,,,,,,,,m,0,0.8142,,,,,,,,0,54,54,108,1
,,,,,,,,,,,,,,,,,5b75d448be28580001b5a603,51,2022-02-12_14h51.22.666,lexical_decision_task_DD_L5,2021.2.3,Win32,59.99160118,,,,,,,,,,,0.7898,1,,,,,,,,,,,,,,,,,,,,,,,,0.013319672,-0.053278689,0,0,0,,,,,,,PARADE,C,m,y,./images/PARADE.png,,,,,,,,,,,,,,,,,,,,,m,1,0.7898,,,,,,,,0,55,55,17,1
,,,,,,,,,,,,,,,,,5b75d448be28580001b5a603,51,2022-02-12_14h51.22.666,lexical_decision_task_DD_L5,2021.2.3,Win32,59.99160118,,,,,,,,,,,1.3482,1,,,,,,,,,,,,,,,,,,,,,,,,0.013319672,-0.053278689,0,0,0,,,,,,,DANCER,HB,m,y,./images/DANCERHB.png,,,,,,,,,,,,,,,,,,,,,m,1,1.3482,,,,,,,,0,56,56,21,1
,,,,,,,,,,,,,,,,,5b75d448be28580001b5a603,51,2022-02-12_14h51.22.666,lexical_decision_task_DD_L5,2021.2.3,Win32,59.99160118,,,,,,,,,,,0.9325,1,,,,,,,,,,,,,,,,,,,,,,,,0.013319672,-0.053278689,0,0,0,,,,,,,CANYON,LB,z,y,./images/CANYONLB.png,,,,,,,,,,,,,,,,,,,,,z,1,0.9325,,,,,,,,0,57,57,118,1
,,,,,,,,,,,,,,,,,5b75d448be28580001b5a603,51,2022-02-12_14h51.22.666,lexical_decision_task_DD_L5,2021.2.3,Win32,59.99160118,,,,,,,,,,,1.3378,0,,,,,,,,,,,,,,,,,,,,,,,,0.013319672,-0.053278689,0,0,0,,,,,,,JELLY,LB,z,y,./images/JELLYLB.png,,,,,,,,,,,,,,,,,,,,,m,0,1.3378,,,,,,,,0,58,58,148,1
,,,,,,,,,,,,,,,,,5b75d448be28580001b5a603,51,2022-02-12_14h51.22.666,lexical_decision_task_DD_L5,2021.2.3,Win32,59.99160118,,,,,,,,,,,1.3783,1,,,,,,,,,,,,,,,,,,,,,,,,0.013319672,-0.053278689,0,0,0,,,,,,,CANDY,HB,m,y,./images/CANDYHB.png,,,,,,,,,,,,,,,,,,,,,m,1,1.3783,,,,,,,,0,59,59,39,1
,,,,,,,,,,,,,,,,,5b75d448be28580001b5a603,51,2022-02-12_14h51.22.666,lexical_decision_task_DD_L5,2021.2.3,Win32,59.99160118,,,,,,,,,,,0.8573,1,,,,,,,,,,,,,,,,,,,,,,,,0.013319672,-0.053278689,0,0,0,,,,,,,TOMATO,HB,z,y,./images/TOMATOHB.png,,,,,,,,,,,,,,,,,,,,,z,1,0.8573,,,,,,,,0,60,60,84,1
,,,,,,,,,,,,,,,,,5b75d448be28580001b5a603,51,2022-02-12_14h51.22.666,lexical_decision_task_DD_L5,2021.2.3,Win32,59.99160118,,,,,,,,,,,1.2702,1,,,,,,,,,,,,,,,,,,,,,,,,0.013319672,-0.053278689,0,0,0,,,,,,,PIMPLE,C,z,y,./images/PIMPLE.png,,,,,,,,,,,,,,,,,,,,,z,1,1.2702,,,,,,,,0,61,61,155,1
,,,,,,,,,,,,,,,,,5b75d448be28580001b5a603,51,2022-02-12_14h51.22.666,lexical_decision_task_DD_L5,2021.2.3,Win32,59.99160118,,,,,,,,,,,0.8864,1,,,,,,,,,,,,,,,,,,,,,,,,0.013319672,-0.053278689,0,0,0,,,,,,,STOOL,LB,m,y,./images/STOOLLB.png,,,,,,,,,,,,,,,,,,,,,m,1,0.8864,,,,,,,,0,62,62,43,1
,,,,,,,,,,,,,,,,,5b75d448be28580001b5a603,51,2022-02-12_14h51.22.666,lexical_decision_task_DD_L5,2021.2.3,Win32,59.99160118,,,,,,,,,,,1.6762,0,,,,,,,,,,,,,,,,,,,,,,,,0.013319672,-0.053278689,0,0,0,,,,,,,BUTTER,HB,m,y,./images/BUTTERHB.png,,,,,,,,,,,,,,,,,,,,,z,0,1.6762,,,,,,,,0,63,63,27,1
,,,,,,,,,,,,,,,,,5b75d448be28580001b5a603,51,2022-02-12_14h51.22.666,lexical_decision_task_DD_L5,2021.2.3,Win32,59.99160118,,,,,,,,,,,0.9012,1,,,,,,,,,,,,,,,,,,,,,,,,0.013319672,-0.053278689,0,0,0,,,,,,,BERRY,C,z,y,./images/BERRY.png,,,,,,,,,,,,,,,,,,,,,z,1,0.9012,,,,,,,,0,64,64,131,1
,,,,,,,,,,,,,,,,,5b75d448be28580001b5a603,51,2022-02-12_14h51.22.666,lexical_decision_task_DD_L5,2021.2.3,Win32,59.99160118,,,,,,,,,,,1.0714,1,,,,,,,,,,,,,,,,,,,,,,,,0.013319672,-0.053278689,0,0,0,,,,,,,MOOSE,HB,z,y,./images/MOOSEHB.png,,,,,,,,,,,,,,,,,,,,,z,1,1.0714,,,,,,,,0,65,65,141,1
,,,,,,,,,,,,,,,,,5b75d448be28580001b5a603,51,2022-02-12_14h51.22.666,lexical_decision_task_DD_L5,2021.2.3,Win32,59.99160118,,,,,,,,,,,0.9853,1,,,,,,,,,,,,,,,,,,,,,,,,0.013319672,-0.053278689,0,0,0,,,,,,,CANDLE,LB,z,y,./images/CANDLELB.png,,,,,,,,,,,,,,,,,,,,,z,1,0.9853,,,,,,,,0,66,66,145,1
,,,,,,,,,,,,,,,,,5b75d448be28580001b5a603,51,2022-02-12_14h51.22.666,lexical_decision_task_DD_L5,2021.2.3,Win32,59.99160118,,,,,,,,,,,0.8466,1,,,,,,,,,,,,,,,,,,,,,,,,0.013319672,-0.053278689,0,0,0,,,,,,,CLOUD,C,m,y,./images/CLOUD.png,,,,,,,,,,,,,,,,,,,,,m,1,0.8466,,,,,,,,0,67,67,26,1
,,,,,,,,,,,,,,,,,5b75d448be28580001b5a603,51,2022-02-12_14h51.22.666,lexical_decision_task_DD_L5,2021.2.3,Win32,59.99160118,,,,,,,,,,,0.8534,1,,,,,,,,,,,,,,,,,,,,,,,,0.013319672,-0.053278689,0,0,0,,,,,,,FINGER,HB,z,y,./images/FINGERHB.png,,,,,,,,,,,,,,,,,,,,,z,1,0.8534,,,,,,,,0,68,68,87,1
,,,,,,,,,,,,,,,,,5b75d448be28580001b5a603,51,2022-02-12_14h51.22.666,lexical_decision_task_DD_L5,2021.2.3,Win32,59.99160118,,,,,,,,,,,0.749,1,,,,,,,,,,,,,,,,,,,,,,,,0.013319672,-0.053278689,0,0,0,,,,,,,LIZARD,C,z,y,./images/LIZARD.png,,,,,,,,,,,,,,,,,,,,,z,1,0.749,,,,,,,,0,69,69,128,1
,,,,,,,,,,,,,,,,,5b75d448be28580001b5a603,51,2022-02-12_14h51.22.666,lexical_decision_task_DD_L5,2021.2.3,Win32,59.99160118,,,,,,,,,,,0.8433,1,,,,,,,,,,,,,,,,,,,,,,,,0.013319672,-0.053278689,0,0,0,,,,,,,SQUARE,HB,z,y,./images/SQUAREHB.png,,,,,,,,,,,,,,,,,,,,,z,1,0.8433,,,,,,,,0,70,70,90,1
,,,,,,,,,,,,,,,,,5b75d448be28580001b5a603,51,2022-02-12_14h51.22.666,lexical_decision_task_DD_L5,2021.2.3,Win32,59.99160118,,,,,,,,,,,0.7548,1,,,,,,,,,,,,,,,,,,,,,,,,0.013319672,-0.053278689,0,0,0,,,,,,,FARMER,C,z,y,./images/FARMER.png,,,,,,,,,,,,,,,,,,,,,z,1,0.7548,,,,,,,,0,71,71,149,1
,,,,,,,,,,,,,,,,,5b75d448be28580001b5a603,51,2022-02-12_14h51.22.666,lexical_decision_task_DD_L5,2021.2.3,Win32,59.99160118,,,,,,,,,,,1.0669,1,,,,,,,,,,,,,,,,,,,,,,,,0.013319672,-0.053278689,0,0,0,,,,,,,DESERT,LB,m,y,./images/DESERTLB.png,,,,,,,,,,,,,,,,,,,,,m,1,1.0669,,,,,,,,0,72,72,52,1
,,,,,,,,,,,,,,,,,5b75d448be28580001b5a603,51,2022-02-12_14h51.22.666,lexical_decision_task_DD_L5,2021.2.3,Win32,59.99160118,,,,,,,,,,,1.1174,1,,,,,,,,,,,,,,,,,,,,,,,,0.013319672,-0.053278689,0,0,0,,,,,,,BOILER,HB,m,y,./images/BOILERHB.png,,,,,,,,,,,,,,,,,,,,,m,1,1.1174,,,,,,,,0,73,73,36,1
,,,,,,,,,,,,,,,,,5b75d448be28580001b5a603,51,2022-02-12_14h51.22.666,lexical_decision_task_DD_L5,2021.2.3,Win32,59.99160118,,,,,,,,,,,0.9669,1,,,,,,,,,,,,,,,,,,,,,,,,0.013319672,-0.053278689,0,0,0,,,,,,,SKIING,C,z,y,./images/SKIING.png,,,,,,,,,,,,,,,,,,,,,z,1,0.9669,,,,,,,,0,74,74,101,1
,,,,,,,,,,,,,,,,,5b75d448be28580001b5a603,51,2022-02-12_14h51.22.666,lexical_decision_task_DD_L5,2021.2.3,Win32,59.99160118,,,,,,,,,,,1.0171,1,,,,,,,,,,,,,,,,,,,,,,,,0.013319672,-0.053278689,0,0,0,,,,,,,STORM,HB,z,y,./images/STORMHB.png,,,,,,,,,,,,,,,,,,,,,z,1,1.0171,,,,,,,,0,75,75,114,1
,,,,,,,,,,,,,,,,,5b75d448be28580001b5a603,51,2022-02-12_14h51.22.666,lexical_decision_task_DD_L5,2021.2.3,Win32,59.99160118,,,,,,,,,,,0.9008,1,,,,,,,,,,,,,,,,,,,,,,,,0.013319672,-0.053278689,0,0,0,,,,,,,MAMMAL,C,m,y,./images/MAMMAL.png,,,,,,,,,,,,,,,,,,,,,m,1,0.9008,,,,,,,,0,76,76,62,1
,,,,,,,,,,,,,,,,,5b75d448be28580001b5a603,51,2022-02-12_14h51.22.666,lexical_decision_task_DD_L5,2021.2.3,Win32,59.99160118,,,,,,,,,,,0.8672,1,,,,,,,,,,,,,,,,,,,,,,,,0.013319672,-0.053278689,0,0,0,,,,,,,BLOKE,HB,m,y,./images/BLOKEHB.png,,,,,,,,,,,,,,,,,,,,,m,1,0.8672,,,,,,,,0,77,77,12,1
,,,,,,,,,,,,,,,,,5b75d448be28580001b5a603,51,2022-02-12_14h51.22.666,lexical_decision_task_DD_L5,2021.2.3,Win32,59.99160118,,,,,,,,,,,0.8669,1,,,,,,,,,,,,,,,,,,,,,,,,0.013319672,-0.053278689,0,0,0,,,,,,,THROAT,HB,z,y,./images/THROATHB.png,,,,,,,,,,,,,,,,,,,,,z,1,0.8669,,,,,,,,0,78,78,120,1
,,,,,,,,,,,,,,,,,5b75d448be28580001b5a603,51,2022-02-12_14h51.22.666,lexical_decision_task_DD_L5,2021.2.3,Win32,59.99160118,,,,,,,,,,,0.8322,1,,,,,,,,,,,,,,,,,,,,,,,,0.013319672,-0.053278689,0,0,0,,,,,,,ONION,HB,z,y,./images/ONIONHB.png,,,,,,,,,,,,,,,,,,,,,z,1,0.8322,,,,,,,,0,79,79,135,1
,,,,,,,,,,,,,,,,,5b75d448be28580001b5a603,51,2022-02-12_14h51.22.666,lexical_decision_task_DD_L5,2021.2.3,Win32,59.99160118,,,,,,,,,,,1.2361,1,,,,,,,,,,,,,,,,,,,,,,,,0.013319672,-0.053278689,0,0,0,,,,,,,NOOSE,HB,z,y,./images/NOOSEHB.png,,,,,,,,,,,,,,,,,,,,,z,1,1.2361,,,,,,,,0,80,80,156,1
,,,,,,,,,,,,,,,,,5b75d448be28580001b5a603,51,2022-02-12_14h51.22.666,lexical_decision_task_DD_L5,2021.2.3,Win32,59.99160118,,,,,,,,,,,1.054,1,,,,,,,,,,,,,,,,,,,,,,,,0.013319672,-0.053278689,0,0,0,,,,,,,DIVER,HB,m,y,./images/DIVERHB.png,,,,,,,,,,,,,,,,,,,,,m,1,1.054,,,,,,,,0,81,81,9,1
,,,,,,,,,,,,,,,,,5b75d448be28580001b5a603,51,2022-02-12_14h51.22.666,lexical_decision_task_DD_L5,2021.2.3,Win32,59.99160118,,,,,,,,,,,0.707,1,,,,,,,,,,,,,,,,,,,,,,,,0.013319672,-0.053278689,0,0,0,,,,,,,SAUCE,HB,m,y,./images/SAUCEHB.png,,,,,,,,,,,,,,,,,,,,,m,1,0.707,,,,,,,,0,82,82,51,1
,,,,,,,,,,,,,,,,,5b75d448be28580001b5a603,51,2022-02-12_14h51.22.666,lexical_decision_task_DD_L5,2021.2.3,Win32,59.99160118,,,,,,,,,,,0.9258,1,,,,,,,,,,,,,,,,,,,,,,,,0.013319672,-0.053278689,0,0,0,space,,,,,,CRATER,HB,m,y,./images/CRATERHB.png,1.1951,,,,,,,,,,,,,,,,,,,,m,1,0.9258,,,,,,,,0,83,83,3,1
,,,,,,,,,,,,,,,,,5b75d448be28580001b5a603,51,2022-02-12_14h51.22.666,lexical_decision_task_DD_L5,2021.2.3,Win32,59.99160118,,,,,,,,,,,1.2909,1,,,,,,,,,,,,,,,,,,,,,,,,0.013319672,-0.053278689,0,0,0,,,,,,,QUILL,LB,z,y,./images/QUILLLB.png,,,,,,,,,,,,,,,,,,,,,z,1,1.2909,,,,,,,,0,84,84,115,1
,,,,,,,,,,,,,,,,,5b75d448be28580001b5a603,51,2022-02-12_14h51.22.666,lexical_decision_task_DD_L5,2021.2.3,Win32,59.99160118,,,,,,,,,,,0.8666,1,,,,,,,,,,,,,,,,,,,,,,,,0.013319672,-0.053278689,0,0,0,,,,,,,PAINT,LB,z,y,./images/PAINTLB.png,,,,,,,,,,,,,,,,,,,,,z,1,0.8666,,,,,,,,0,85,85,91,1
,,,,,,,,,,,,,,,,,5b75d448be28580001b5a603,51,2022-02-12_14h51.22.666,lexical_decision_task_DD_L5,2021.2.3,Win32,59.99160118,,,,,,,,,,,0.75,1,,,,,,,,,,,,,,,,,,,,,,,,0.013319672,-0.053278689,0,0,0,,,,,,,BRUSH,C,m,y,./images/BRUSH.png,,,,,,,,,,,,,,,,,,,,,m,1,0.75,,,,,,,,0,86,86,59,1
,,,,,,,,,,,,,,,,,5b75d448be28580001b5a603,51,2022-02-12_14h51.22.666,lexical_decision_task_DD_L5,2021.2.3,Win32,59.99160118,,,,,,,,,,,0.6882,1,,,,,,,,,,,,,,,,,,,,,,,,0.013319672,-0.053278689,0,0,0,,,,,,,STAIN,HB,m,y,./images/STAINHB.png,,,,,,,,,,,,,,,,,,,,,m,1,0.6882,,,,,,,,0,87,87,6,1
,,,,,,,,,,,,,,,,,5b75d448be28580001b5a603,51,2022-02-12_14h51.22.666,lexical_decision_task_DD_L5,2021.2.3,Win32,59.99160118,,,,,,,,,,,0.8519,1,,,,,,,,,,,,,,,,,,,,,,,,0.013319672,-0.053278689,0,0,0,,,,,,,DRILL,HB,m,y,./images/DRILLHB.png,,,,,,,,,,,,,,,,,,,,,m,1,0.8519,,,,,,,,0,88,88,81,1
,,,,,,,,,,,,,,,,,5b75d448be28580001b5a603,51,2022-02-12_14h51.22.666,lexical_decision_task_DD_L5,2021.2.3,Win32,59.99160118,,,,,,,,,,,1.4021,1,,,,,,,,,,,,,,,,,,,,,,,,0.013319672,-0.053278689,0,0,0,,,,,,,CRADLE,C,z,y,./images/CRADLE.png,,,,,,,,,,,,,,,,,,,,,z,1,1.4021,,,,,,,,0,89,89,104,1
,,,,,,,,,,,,,,,,,5b75d448be28580001b5a603,51,2022-02-12_14h51.22.666,lexical_decision_task_DD_L5,2021.2.3,Win32,59.99160118,,,,,,,,,,,0.8397,1,,,,,,,,,,,,,,,,,,,,,,,,0.013319672,-0.053278689,0,0,0,,,,,,,SMOKER,C,z,y,./images/SMOKER.png,,,,,,,,,,,,,,,,,,,,,z,1,0.8397,,,,,,,,0,90,90,110,1
,,,,,,,,,,,,,,,,,5b75d448be28580001b5a603,51,2022-02-12_14h51.22.666,lexical_decision_task_DD_L5,2021.2.3,Win32,59.99160118,,,,,,,,,,,1.223,1,,,,,,,,,,,,,,,,,,,,,,,,0.013319672,-0.053278689,0,0,0,,,,,,,RHINO,HB,z,y,./images/RHINOHB.png,,,,,,,,,,,,,,,,,,,,,z,1,1.223,,,,,,,,0,91,91,93,1
,,,,,,,,,,,,,,,,,5b75d448be28580001b5a603,51,2022-02-12_14h51.22.666,lexical_decision_task_DD_L5,2021.2.3,Win32,59.99160118,,,,,,,,,,,0.7962,1,,,,,,,,,,,,,,,,,,,,,,,,0.013319672,-0.053278689,0,0,0,,,,,,,KITTEN,HB,z,y,./images/KITTENHB.png,,,,,,,,,,,,,,,,,,,,,z,1,0.7962,,,,,,,,0,92,92,129,1
,,,,,,,,,,,,,,,,,5b75d448be28580001b5a603,51,2022-02-12_14h51.22.666,lexical_decision_task_DD_L5,2021.2.3,Win32,59.99160118,,,,,,,,,,,1.009,1,,,,,,,,,,,,,,,,,,,,,,,,0.013319672,-0.053278689,0,0,0,,,,,,,GREASE,HB,z,y,./images/GREASEHB.png,,,,,,,,,,,,,,,,,,,,,z,1,1.009,,,,,,,,0,93,93,99,1
,,,,,,,,,,,,,,,,,5b75d448be28580001b5a603,51,2022-02-12_14h51.22.666,lexical_decision_task_DD_L5,2021.2.3,Win32,59.99160118,,,,,,,,,,,0.9427,1,,,,,,,,,,,,,,,,,,,,,,,,0.013319672,-0.053278689,0,0,0,,,,,,,CARPET,C,z,y,./images/CARPET.png,,,,,,,,,,,,,,,,,,,,,z,1,0.9427,,,,,,,,0,94,94,137,1
,,,,,,,,,,,,,,,,,5b75d448be28580001b5a603,51,2022-02-12_14h51.22.666,lexical_decision_task_DD_L5,2021.2.3,Win32,59.99160118,,,,,,,,,,,0.9665,1,,,,,,,,,,,,,,,,,,,,,,,,0.013319672,-0.053278689,0,0,0,,,,,,,FLASK,HB,m,y,./images/FLASKHB.png,,,,,,,,,,,,,,,,,,,,,m,1,0.9665,,,,,,,,0,95,95,72,1
,,,,,,,,,,,,,,,,,5b75d448be28580001b5a603,51,2022-02-12_14h51.22.666,lexical_decision_task_DD_L5,2021.2.3,Win32,59.99160118,,,,,,,,,,,0.8164,1,,,,,,,,,,,,,,,,,,,,,,,,0.013319672,-0.053278689,0,0,0,,,,,,,BURIAL,C,z,y,./images/BURIAL.png,,,,,,,,,,,,,,,,,,,,,z,1,0.8164,,,,,,,,0,96,96,143,1
,,,,,,,,,,,,,,,,,5b75d448be28580001b5a603,51,2022-02-12_14h51.22.666,lexical_decision_task_DD_L5,2021.2.3,Win32,59.99160118,,,,,,,,,,,1.7783,1,,,,,,,,,,,,,,,,,,,,,,,,0.013319672,-0.053278689,0,0,0,,,,,,,PENCE,LB,z,y,./images/PENCELB.png,,,,,,,,,,,,,,,,,,,,,z,1,1.7783,,,,,,,,0,97,97,100,1
,,,,,,,,,,,,,,,,,5b75d448be28580001b5a603,51,2022-02-12_14h51.22.666,lexical_decision_task_DD_L5,2021.2.3,Win32,59.99160118,,,,,,,,,,,1,0,,,,,,,,,,,,,,,,,,,,,,,,0.013319672,-0.053278689,0,0,0,,,,,,,SNAKE,LB,m,y,./images/SNAKELB.png,,,,,,,,,,,,,,,,,,,,,z,0,1,,,,,,,,0,98,98,40,1
,,,,,,,,,,,,,,,,,5b75d448be28580001b5a603,51,2022-02-12_14h51.22.666,lexical_decision_task_DD_L5,2021.2.3,Win32,59.99160118,,,,,,,,,,,1.1759,0,,,,,,,,,,,,,,,,,,,,,,,,0.013319672,-0.053278689,0,0,0,,,,,,,GLOVE,LB,m,y,./images/GLOVELB.png,,,,,,,,,,,,,,,,,,,,,z,0,1.1759,,,,,,,,0,99,99,73,1
,,,,,,,,,,,,,,,,,5b75d448be28580001b5a603,51,2022-02-12_14h51.22.666,lexical_decision_task_DD_L5,2021.2.3,Win32,59.99160118,,,,,,,,,,,0.9862,1,,,,,,,,,,,,,,,,,,,,,,,,0.013319672,-0.053278689,0,0,0,,,,,,,BAMBOO,C,m,y,./images/BAMBOO.png,,,,,,,,,,,,,,,,,,,,,m,1,0.9862,,,,,,,,0,100,100,5,1
,,,,,,,,,,,,,,,,,5b75d448be28580001b5a603,51,2022-02-12_14h51.22.666,lexical_decision_task_DD_L5,2021.2.3,Win32,59.99160118,,,,,,,,,,,0.7692,0,,,,,,,,,,,,,,,,,,,,,,,,0.013319672,-0.053278689,0,0,0,,,,,,,PLANK,LB,z,y,./images/PLANKLB.png,,,,,,,,,,,,,,,,,,,,,m,0,0.7692,,,,,,,,0,101,101,85,1
,,,,,,,,,,,,,,,,,5b75d448be28580001b5a603,51,2022-02-12_14h51.22.666,lexical_decision_task_DD_L5,2021.2.3,Win32,59.99160118,,,,,,,,,,,0.9867,1,,,,,,,,,,,,,,,,,,,,,,,,0.013319672,-0.053278689,0,0,0,,,,,,,PEACH,C,z,y,./images/PEACH.png,,,,,,,,,,,,,,,,,,,,,z,1,0.9867,,,,,,,,0,102,102,119,1
,,,,,,,,,,,,,,,,,5b75d448be28580001b5a603,51,2022-02-12_14h51.22.666,lexical_decision_task_DD_L5,2021.2.3,Win32,59.99160118,,,,,,,,,,,1.8351,1,,,,,,,,,,,,,,,,,,,,,,,,0.013319672,-0.053278689,0,0,0,,,,,,,DRUMS,LB,z,y,./images/DRUMSLB.png,,,,,,,,,,,,,,,,,,,,,z,1,1.8351,,,,,,,,0,103,103,133,1
,,,,,,,,,,,,,,,,,5b75d448be28580001b5a603,51,2022-02-12_14h51.22.666,lexical_decision_task_DD_L5,2021.2.3,Win32,59.99160118,,,,,,,,,,,1.0054,0,,,,,,,,,,,,,,,,,,,,,,,,0.013319672,-0.053278689,0,0,0,,,,,,,CHAIN,HB,m,y,./images/CHAINHB.png,,,,,,,,,,,,,,,,,,,,,z,0,1.0054,,,,,,,,0,104,104,42,1
,,,,,,,,,,,,,,,,,5b75d448be28580001b5a603,51,2022-02-12_14h51.22.666,lexical_decision_task_DD_L5,2021.2.3,Win32,59.99160118,,,,,,,,,,,1.5275,1,,,,,,,,,,,,,,,,,,,,,,,,0.013319672,-0.053278689,0,0,0,,,,,,,SHIELD,HB,m,y,./images/SHIELDHB.png,,,,,,,,,,,,,,,,,,,,,m,1,1.5275,,,,,,,,0,105,105,48,1
,,,,,,,,,,,,,,,,,5b75d448be28580001b5a603,51,2022-02-12_14h51.22.666,lexical_decision_task_DD_L5,2021.2.3,Win32,59.99160118,,,,,,,,,,,0.7869,1,,,,,,,,,,,,,,,,,,,,,,,,0.013319672,-0.053278689,0,0,0,,,,,,,BIRTH,LB,z,y,./images/BIRTHLB.png,,,,,,,,,,,,,,,,,,,,,z,1,0.7869,,,,,,,,0,106,106,121,1
,,,,,,,,,,,,,,,,,5b75d448be28580001b5a603,51,2022-02-12_14h51.22.666,lexical_decision_task_DD_L5,2021.2.3,Win32,59.99160118,,,,,,,,,,,0.8063,1,,,,,,,,,,,,,,,,,,,,,,,,0.013319672,-0.053278689,0,0,0,,,,,,,CEMENT,C,z,y,./images/CEMENT.png,,,,,,,,,,,,,,,,,,,,,z,1,0.8063,,,,,,,,0,107,107,158,1
,,,,,,,,,,,,,,,,,5b75d448be28580001b5a603,51,2022-02-12_14h51.22.666,lexical_decision_task_DD_L5,2021.2.3,Win32,59.99160118,,,,,,,,,,,0.7849,0,,,,,,,,,,,,,,,,,,,,,,,,0.013319672,-0.053278689,0,0,0,,,,,,,MAGGOT,HB,z,y,./images/MAGGOTHB.png,,,,,,,,,,,,,,,,,,,,,m,0,0.7849,,,,,,,,0,108,108,117,1
,,,,,,,,,,,,,,,,,5b75d448be28580001b5a603,51,2022-02-12_14h51.22.666,lexical_decision_task_DD_L5,2021.2.3,Win32,59.99160118,,,,,,,,,,,0.9223,0,,,,,,,,,,,,,,,,,,,,,,,,0.013319672,-0.053278689,0,0,0,,,,,,,WRIST,LB,z,y,./images/WRISTLB.png,,,,,,,,,,,,,,,,,,,,,m,0,0.9223,,,,,,,,0,109,109,109,1
,,,,,,,,,,,,,,,,,5b75d448be28580001b5a603,51,2022-02-12_14h51.22.666,lexical_decision_task_DD_L5,2021.2.3,Win32,59.99160118,,,,,,,,,,,0.7962,1,,,,,,,,,,,,,,,,,,,,,,,,0.013319672,-0.053278689,0,0,0,,,,,,,MOSQUE,LB,z,y,./images/MOSQUELB.png,,,,,,,,,,,,,,,,,,,,,z,1,0.7962,,,,,,,,0,110,110,127,1
,,,,,,,,,,,,,,,,,5b75d448be28580001b5a603,51,2022-02-12_14h51.22.666,lexical_decision_task_DD_L5,2021.2.3,Win32,59.99160118,,,,,,,,,,,0.9406,1,,,,,,,,,,,,,,,,,,,,,,,,0.013319672,-0.053278689,0,0,0,,,,,,,BANANA,LB,m,y,./images/BANANALB.png,,,,,,,,,,,,,,,,,,,,,m,1,0.9406,,,,,,,,0,111,111,70,1
,,,,,,,,,,,,,,,,,5b75d448be28580001b5a603,51,2022-02-12_14h51.22.666,lexical_decision_task_DD_L5,2021.2.3,Win32,59.99160118,,,,,,,,,,,1.1502,1,,,,,,,,,,,,,,,,,,,,,,,,0.013319672,-0.053278689,0,0,0,,,,,,,WHISKY,C,m,y,./images/WHISKY.png,,,,,,,,,,,,,,,,,,,,,m,1,1.1502,,,,,,,,0,112,112,83,1
,,,,,,,,,,,,,,,,,5b75d448be28580001b5a603,51,2022-02-12_14h51.22.666,lexical_decision_task_DD_L5,2021.2.3,Win32,59.99160118,,,,,,,,,,,0.8973,1,,,,,,,,,,,,,,,,,,,,,,,,0.013319672,-0.053278689,0,0,0,,,,,,,ARROW,HB,m,y,./images/ARROWHB.png,,,,,,,,,,,,,,,,,,,,,m,1,0.8973,,,,,,,,0,113,113,69,1
,,,,,,,,,,,,,,,,,5b75d448be28580001b5a603,51,2022-02-12_14h51.22.666,lexical_decision_task_DD_L5,2021.2.3,Win32,59.99160118,,,,,,,,,,,0.8699,1,,,,,,,,,,,,,,,,,,,,,,,,0.013319672,-0.053278689,0,0,0,,,,,,,CLIFF,C,m,y,./images/CLIFF.png,,,,,,,,,,,,,,,,,,,,,m,1,0.8699,,,,,,,,0,114,114,8,1
,,,,,,,,,,,,,,,,,5b75d448be28580001b5a603,51,2022-02-12_14h51.22.666,lexical_decision_task_DD_L5,2021.2.3,Win32,59.99160118,,,,,,,,,,,0.7457,1,,,,,,,,,,,,,,,,,,,,,,,,0.013319672,-0.053278689,0,0,0,,,,,,,DONKEY,LB,m,y,./images/DONKEYLB.png,,,,,,,,,,,,,,,,,,,,,m,1,0.7457,,,,,,,,0,115,115,19,1
,,,,,,,,,,,,,,,,,5b75d448be28580001b5a603,51,2022-02-12_14h51.22.666,lexical_decision_task_DD_L5,2021.2.3,Win32,59.99160118,,,,,,,,,,,2.1102,1,,,,,,,,,,,,,,,,,,,,,,,,0.013319672,-0.053278689,0,0,0,,,,,,,WEASEL,C,z,y,./images/WEASEL.png,,,,,,,,,,,,,,,,,,,,,z,1,2.1102,,,,,,,,0,116,116,164,1
,,,,,,,,,,,,,,,,,5b75d448be28580001b5a603,51,2022-02-12_14h51.22.666,lexical_decision_task_DD_L5,2021.2.3,Win32,59.99160118,,,,,,,,,,,0.848,1,,,,,,,,,,,,,,,,,,,,,,,,0.013319672,-0.053278689,0,0,0,,,,,,,WALRUS,C,z,y,./images/WALRUS.png,,,,,,,,,,,,,,,,,,,,,z,1,0.848,,,,,,,,0,117,117,107,1
,,,,,,,,,,,,,,,,,5b75d448be28580001b5a603,51,2022-02-12_14h51.22.666,lexical_decision_task_DD_L5,2021.2.3,Win32,59.99160118,,,,,,,,,,,1.2243,1,,,,,,,,,,,,,,,,,,,,,,,,0.013319672,-0.053278689,0,0,0,,,,,,,SHORE,HB,z,y,./images/SHOREHB.png,,,,,,,,,,,,,,,,,,,,,z,1,1.2243,,,,,,,,0,118,118,96,1
,,,,,,,,,,,,,,,,,5b75d448be28580001b5a603,51,2022-02-12_14h51.22.666,lexical_decision_task_DD_L5,2021.2.3,Win32,59.99160118,,,,,,,,,,,0.8722,1,,,,,,,,,,,,,,,,,,,,,,,,0.013319672,-0.053278689,0,0,0,,,,,,,PICKLE,C,z,y,./images/PICKLE.png,,,,,,,,,,,,,,,,,,,,,z,1,0.8722,,,,,,,,0,119,119,98,1
,,,,,,,,,,,,,,,,,5b75d448be28580001b5a603,51,2022-02-12_14h51.22.666,lexical_decision_task_DD_L5,2021.2.3,Win32,59.99160118,,,,,,,,,,,0.9766,1,,,,,,,,,,,,,,,,,,,,,,,,0.013319672,-0.053278689,0,0,0,,,,,,,MIDGET,LB,m,y,./images/MIDGETLB.png,,,,,,,,,,,,,,,,,,,,,m,1,0.9766,,,,,,,,0,120,120,76,1
,,,,,,,,,,,,,,,,,5b75d448be28580001b5a603,51,2022-02-12_14h51.22.666,lexical_decision_task_DD_L5,2021.2.3,Win32,59.99160118,,,,,,,,,,,1.3511,1,,,,,,,,,,,,,,,,,,,,,,,,0.013319672,-0.053278689,0,0,0,,,,,,,SNACK,LB,z,y,./images/SNACKLB.png,,,,,,,,,,,,,,,,,,,,,z,1,1.3511,,,,,,,,0,121,121,157,1
,,,,,,,,,,,,,,,,,5b75d448be28580001b5a603,51,2022-02-12_14h51.22.666,lexical_decision_task_DD_L5,2021.2.3,Win32,59.99160118,,,,,,,,,,,1.7143,1,,,,,,,,,,,,,,,,,,,,,,,,0.013319672,-0.053278689,0,0,0,,,,,,,MUFFIN,LB,z,y,./images/MUFFINLB.png,,,,,,,,,,,,,,,,,,,,,z,1,1.7143,,,,,,,,0,122,122,139,1
,,,,,,,,,,,,,,,,,5b75d448be28580001b5a603,51,2022-02-12_14h51.22.666,lexical_decision_task_DD_L5,2021.2.3,Win32,59.99160118,,,,,,,,,,,1.0906,1,,,,,,,,,,,,,,,,,,,,,,,,0.013319672,-0.053278689,0,0,0,,,,,,,GARDEN,LB,m,y,./images/GARDENLB.png,,,,,,,,,,,,,,,,,,,,,m,1,1.0906,,,,,,,,0,123,123,10,1
,,,,,,,,,,,,,,,,,5b75d448be28580001b5a603,51,2022-02-12_14h51.22.666,lexical_decision_task_DD_L5,2021.2.3,Win32,59.99160118,,,,,,,,,,,0.8424,0,,,,,,,,,,,,,,,,,,,,,,,,0.013319672,-0.053278689,0,0,0,,,,,,,COUCH,C,z,y,./images/COUCH.png,,,,,,,,,,,,,,,,,,,,,m,0,0.8424,,,,,,,,0,124,124,161,1
,,,,,,,,,,,,,,,,,5b75d448be28580001b5a603,51,2022-02-12_14h51.22.666,lexical_decision_task_DD_L5,2021.2.3,Win32,59.99160118,,,,,,,,,,,0.918,1,,,,,,,,,,,,,,,,,,,,,,,,0.013319672,-0.053278689,0,0,0,space,,,,,,GRAPE,LB,m,y,./images/GRAPELB.png,0.9037,,,,,,,,,,,,,,,,,,,,m,1,0.918,,,,,,,,0,125,125,16,1
,,,,,,,,,,,,,,,,,5b75d448be28580001b5a603,51,2022-02-12_14h51.22.666,lexical_decision_task_DD_L5,2021.2.3,Win32,59.99160118,,,,,,,,,,,1.1064,1,,,,,,,,,,,,,,,,,,,,,,,,0.013319672,-0.053278689,0,0,0,,,,,,,CRUST,LB,z,y,./images/CRUSTLB.png,,,,,,,,,,,,,,,,,,,,,z,1,1.1064,,,,,,,,0,126,126,163,1
,,,,,,,,,,,,,,,,,5b75d448be28580001b5a603,51,2022-02-12_14h51.22.666,lexical_decision_task_DD_L5,2021.2.3,Win32,59.99160118,,,,,,,,,,,0.7147,1,,,,,,,,,,,,,,,,,,,,,,,,0.013319672,-0.053278689,0,0,0,,,,,,,BRIDE,LB,m,y,./images/BRIDELB.png,,,,,,,,,,,,,,,,,,,,,m,1,0.7147,,,,,,,,0,127,127,64,1
,,,,,,,,,,,,,,,,,5b75d448be28580001b5a603,51,2022-02-12_14h51.22.666,lexical_decision_task_DD_L5,2021.2.3,Win32,59.99160118,,,,,,,,,,,1.2363,1,,,,,,,,,,,,,,,,,,,,,,,,0.013319672,-0.053278689,0,0,0,,,,,,,FALCON,LB,z,y,./images/FALCONLB.png,,,,,,,,,,,,,,,,,,,,,z,1,1.2363,,,,,,,,0,128,128,112,1
,,,,,,,,,,,,,,,,,5b75d448be28580001b5a603,51,2022-02-12_14h51.22.666,lexical_decision_task_DD_L5,2021.2.3,Win32,59.99160118,,,,,,,,,,,1.366,1,,,,,,,,,,,,,,,,,,,,,,,,0.013319672,-0.053278689,0,0,0,,,,,,,PASTA,C,z,y,./images/PASTA.png,,,,,,,,,,,,,,,,,,,,,z,1,1.366,,,,,,,,0,129,129,89,1
,,,,,,,,,,,,,,,,,5b75d448be28580001b5a603,51,2022-02-12_14h51.22.666,lexical_decision_task_DD_L5,2021.2.3,Win32,59.99160118,,,,,,,,,,,1.1533,1,,,,,,,,,,,,,,,,,,,,,,,,0.013319672,-0.053278689,0,0,0,,,,,,,SWEAT,HB,z,y,./images/SWEATHB.png,,,,,,,,,,,,,,,,,,,,,z,1,1.1533,,,,,,,,0,130,130,150,1
,,,,,,,,,,,,,,,,,5b75d448be28580001b5a603,51,2022-02-12_14h51.22.666,lexical_decision_task_DD_L5,2021.2.3,Win32,59.99160118,,,,,,,,,,,0.7607,1,,,,,,,,,,,,,,,,,,,,,,,,0.013319672,-0.053278689,0,0,0,,,,,,,PISTOL,C,m,y,./images/PISTOL.png,,,,,,,,,,,,,,,,,,,,,m,1,0.7607,,,,,,,,0,131,131,29,1
,,,,,,,,,,,,,,,,,5b75d448be28580001b5a603,51,2022-02-12_14h51.22.666,lexical_decision_task_DD_L5,2021.2.3,Win32,59.99160118,,,,,,,,,,,0.7895,0,,,,,,,,,,,,,,,,,,,,,,,,0.013319672,-0.053278689,0,0,0,,,,,,,JUMPER,C,m,y,./images/JUMPER.png,,,,,,,,,,,,,,,,,,,,,z,0,0.7895,,,,,,,,0,132,132,74,1
,,,,,,,,,,,,,,,,,5b75d448be28580001b5a603,51,2022-02-12_14h51.22.666,lexical_decision_task_DD_L5,2021.2.3,Win32,59.99160118,,,,,,,,,,,1.1264,1,,,,,,,,,,,,,,,,,,,,,,,,0.013319672,-0.053278689,0,0,0,,,,,,,BEARD,C,z,y,./images/BEARD.png,,,,,,,,,,,,,,,,,,,,,z,1,1.1264,,,,,,,,0,133,133,86,1
,,,,,,,,,,,,,,,,,5b75d448be28580001b5a603,51,2022-02-12_14h51.22.666,lexical_decision_task_DD_L5,2021.2.3,Win32,59.99160118,,,,,,,,,,,0.7222,1,,,,,,,,,,,,,,,,,,,,,,,,0.013319672,-0.053278689,0,0,0,,,,,,,DOUGH,LB,z,y,./images/DOUGHLB.png,,,,,,,,,,,,,,,,,,,,,z,1,0.7222,,,,,,,,0,134,134,103,1
