key_resp.keys,instr_done_touch.x,instr_done_touch.y,instr_done_touch.leftButton,instr_done_touch.midButton,instr_done_touch.rightButton,instr_done_touch.clicked_name,instruction_pages.thisRepN,instruction_pages.thisTrialN,instruction_pages.thisN,instruction_pages.thisIndex,instruction_pages.ran,pageN,phase,instruct_text,has_image,instruct_image,participant,age,date,expName,psychopyVersion,OS,frameRate,key_resp.rt,response.keys,response.corr,response.rt,touch_resp.x,touch_resp.y,touch_resp.leftButton,touch_resp.midButton,touch_resp.rightButton,touch_resp.time,touch_resp.clicked_name,rt,corr,practrials.thisRepN,practrials.thisTrialN,practrials.thisN,practrials.thisIndex,practrials.ran,TrialID,Target,corrAns,end_of_practice_trials_pages.thisRepN,end_of_practice_trials_pages.thisTrialN,end_of_practice_trials_pages.thisN,end_of_practice_trials_pages.thisIndex,end_of_practice_trials_pages.ran,key_resp_2.keys,key_resp_2.corr,key_resp_2.rt,targ_click.x,targ_click.y,targ_click.leftButton,targ_click.midButton,targ_click.rightButton,targ_click.time,targ_click.clicked_name,break_done_touch.x,break_done_touch.y,break_done_touch.leftButton,break_done_touch.midButton,break_done_touch.rightButton,break_done_keyboard.keys,maintrials.thisRepN,maintrials.thisTrialN,maintrials.thisN,maintrials.thisIndex,maintrials.ran,string,blur,study,lex,stim_path,break_done_keyboard.rt,mouse_2.x,mouse_2.y,mouse_2.leftButton,mouse_2.midButton,mouse_2.rightButton,mouse_2.clicked_name,slider.response,slider.rt,trials.thisRepN,trials.thisTrialN,trials.thisN,trials.thisIndex,trials.ran,test_instructions.thisRepN,test_instructions.thisTrialN,test_instructions.thisN,test_instructions.thisIndex,test_instructions.ran,key_resp_3.keys,key_resp_3.corr,key_resp_3.rt,test_click.x,test_click.y,test_click.leftButton,test_click.midButton,test_click.rightButton,test_click.time,test_click.clicked_name,test_phase.thisRepN,test_phase.thisTrialN,test_phase.thisN,test_phase.thisIndex,test_phase.ran
,-0.006047632,-0.398686403,1,0,0,instr_done_button,0,0,0,0,1,1,instructions,"INSTRUCTIONS
At the start of each trial, look at the plus sign  (+) in the center of the screen.  This tells you that a trial is about to begin and where to look. Second, the plus sign will disappear and a string of letters will appear. Your task is to determine if the string of letters is a word or not. If the item is a word press the M key (on keyboard)  or touch the word button (phone/tablet).  If the item is not a word,  press the  Z key (on keyboard)  or touch the nonword button (on phone/tablet). 
Press the space bar or touch  continue.",0,,5bad0eecf91cc300010cc978,51,2022-02-12_13h53.01.359,lexical_decision_task_DD_L6,2021.2.3,Win32,60.3646022,,,,,,,,,,,,,,,,,,,,,,,,,,,,,,,,,,,,,,,,,,,,,,,,,,,,,,,,,,,,,,,,,,,,,,,,,,,,,,,,,,,,,,
,-0.063272237,-0.397385844,1,0,0,instr_done_button,0,1,1,1,1,2,instructions,"If your device has a keyboard, press the 'Z' key for nonwords and the 'M' key for words.





Press the space bar or touch the button below to continue.",0,keyboard-example.gif,5bad0eecf91cc300010cc978,51,2022-02-12_13h53.01.359,lexical_decision_task_DD_L6,2021.2.3,Win32,60.3646022,,,,,,,,,,,,,,,,,,,,,,,,,,,,,,,,,,,,,,,,,,,,,,,,,,,,,,,,,,,,,,,,,,,,,,,,,,,,,,,,,,,,,,
space,-0.889127325,0.5,0,0,0,,0,2,2,2,1,3,instructions,"If you are using a touchscreen only device, use the buttons on the screen. Do not use the mouse.





Press the space bar or touch the button below to continue.",0,touchscreen-example.gif,5bad0eecf91cc300010cc978,51,2022-02-12_13h53.01.359,lexical_decision_task_DD_L6,2021.2.3,Win32,60.3646022,7.9676,,,,,,,,,,,,,,,,,,,,,,,,,,,,,,,,,,,,,,,,,,,,,,,,,,,,,,,,,,,,,,,,,,,,,,,,,,,,,,,,,,,,,
space,-0.889127325,0.5,0,0,0,,0,3,3,3,1,4,instructions,"It is very important that you respond as quickly and accurately as possible, as each letter string will only be on the screen for two seconds. If you do not respond within this time, the message 'Too slow!' will be displayed and the experiment will progress to the next letter string. The first 20 trials will be practice trials and you will receive feedback on your answers. 

Press the space bar or touch the button below to start the practice trials.",0,,5bad0eecf91cc300010cc978,51,2022-02-12_13h53.01.359,lexical_decision_task_DD_L6,2021.2.3,Win32,60.3646022,13.0203,,,,,,,,,,,,,,,,,,,,,,,,,,,,,,,,,,,,,,,,,,,,,,,,,,,,,,,,,,,,,,,,,,,,,,,,,,,,,,,,,,,,,
,,,,,,,,,,,,,,,,,5bad0eecf91cc300010cc978,51,2022-02-12_13h53.01.359,lexical_decision_task_DD_L6,2021.2.3,Win32,60.3646022,,m,1,0.7975,,,,,,,,0.7975,1,0,0,0,2,1,1001,ALMOND,m,,,,,,,,,,,,,,,,,,,,,,,,,,,,,,,,,,,,,,,,,,,,,,,,,,,,,,,,,,,,,,,,,
,,,,,,,,,,,,,,,,,5bad0eecf91cc300010cc978,51,2022-02-12_13h53.01.359,lexical_decision_task_DD_L6,2021.2.3,Win32,60.3646022,,m,1,0.7615,,,,,,,,0.7615,1,0,1,1,1,1,1001,ADJUST,m,,,,,,,,,,,,,,,,,,,,,,,,,,,,,,,,,,,,,,,,,,,,,,,,,,,,,,,,,,,,,,,,,
,,,,,,,,,,,,,,,,,5bad0eecf91cc300010cc978,51,2022-02-12_13h53.01.359,lexical_decision_task_DD_L6,2021.2.3,Win32,60.3646022,,m,1,0.5615,,,,,,,,0.5615,1,0,2,2,3,1,1001,MATRIX,m,,,,,,,,,,,,,,,,,,,,,,,,,,,,,,,,,,,,,,,,,,,,,,,,,,,,,,,,,,,,,,,,,
,,,,,,,,,,,,,,,,,5bad0eecf91cc300010cc978,51,2022-02-12_13h53.01.359,lexical_decision_task_DD_L6,2021.2.3,Win32,60.3646022,,z,1,0.7784,,,,,,,,0.7784,1,0,3,3,14,1,1001,THRALE,z,,,,,,,,,,,,,,,,,,,,,,,,,,,,,,,,,,,,,,,,,,,,,,,,,,,,,,,,,,,,,,,,,
,,,,,,,,,,,,,,,,,5bad0eecf91cc300010cc978,51,2022-02-12_13h53.01.359,lexical_decision_task_DD_L6,2021.2.3,Win32,60.3646022,,m,1,0.5587,,,,,,,,0.5587,1,0,4,4,7,1,1001,VOLUME,m,,,,,,,,,,,,,,,,,,,,,,,,,,,,,,,,,,,,,,,,,,,,,,,,,,,,,,,,,,,,,,,,,
,,,,,,,,,,,,,,,,,5bad0eecf91cc300010cc978,51,2022-02-12_13h53.01.359,lexical_decision_task_DD_L6,2021.2.3,Win32,60.3646022,,m,1,0.5669,,,,,,,,0.5669,1,0,5,5,5,1,1001,OBTAIN,m,,,,,,,,,,,,,,,,,,,,,,,,,,,,,,,,,,,,,,,,,,,,,,,,,,,,,,,,,,,,,,,,,
,,,,,,,,,,,,,,,,,5bad0eecf91cc300010cc978,51,2022-02-12_13h53.01.359,lexical_decision_task_DD_L6,2021.2.3,Win32,60.3646022,,z,1,0.5839,,,,,,,,0.5839,1,0,6,6,13,1,1001,ROUPET,z,,,,,,,,,,,,,,,,,,,,,,,,,,,,,,,,,,,,,,,,,,,,,,,,,,,,,,,,,,,,,,,,,
,,,,,,,,,,,,,,,,,5bad0eecf91cc300010cc978,51,2022-02-12_13h53.01.359,lexical_decision_task_DD_L6,2021.2.3,Win32,60.3646022,,z,1,0.7265,,,,,,,,0.7265,1,0,7,7,9,1,1001,FARINY,z,,,,,,,,,,,,,,,,,,,,,,,,,,,,,,,,,,,,,,,,,,,,,,,,,,,,,,,,,,,,,,,,,
,,,,,,,,,,,,,,,,,5bad0eecf91cc300010cc978,51,2022-02-12_13h53.01.359,lexical_decision_task_DD_L6,2021.2.3,Win32,60.3646022,,m,1,0.6451,,,,,,,,0.6451,1,0,8,8,0,1,1001,UTOPIA,m,,,,,,,,,,,,,,,,,,,,,,,,,,,,,,,,,,,,,,,,,,,,,,,,,,,,,,,,,,,,,,,,,
,,,,,,,,,,,,,,,,,5bad0eecf91cc300010cc978,51,2022-02-12_13h53.01.359,lexical_decision_task_DD_L6,2021.2.3,Win32,60.3646022,,z,1,0.6298,,,,,,,,0.6298,1,0,9,9,12,1,1001,SPRINY,z,,,,,,,,,,,,,,,,,,,,,,,,,,,,,,,,,,,,,,,,,,,,,,,,,,,,,,,,,,,,,,,,,
,,,,,,,,,,,,,,,,,5bad0eecf91cc300010cc978,51,2022-02-12_13h53.01.359,lexical_decision_task_DD_L6,2021.2.3,Win32,60.3646022,,z,1,0.634,,,,,,,,0.634,1,0,10,10,15,1,1001,WHAISE,z,,,,,,,,,,,,,,,,,,,,,,,,,,,,,,,,,,,,,,,,,,,,,,,,,,,,,,,,,,,,,,,,,
,,,,,,,,,,,,,,,,,5bad0eecf91cc300010cc978,51,2022-02-12_13h53.01.359,lexical_decision_task_DD_L6,2021.2.3,Win32,60.3646022,,z,1,0.5464,,,,,,,,0.5464,1,0,11,11,11,1,1001,RASHET,z,,,,,,,,,,,,,,,,,,,,,,,,,,,,,,,,,,,,,,,,,,,,,,,,,,,,,,,,,,,,,,,,,
,,,,,,,,,,,,,,,,,5bad0eecf91cc300010cc978,51,2022-02-12_13h53.01.359,lexical_decision_task_DD_L6,2021.2.3,Win32,60.3646022,,z,1,0.7038,,,,,,,,0.7038,1,0,12,12,8,1,1001,ASLERT,z,,,,,,,,,,,,,,,,,,,,,,,,,,,,,,,,,,,,,,,,,,,,,,,,,,,,,,,,,,,,,,,,,
,,,,,,,,,,,,,,,,,5bad0eecf91cc300010cc978,51,2022-02-12_13h53.01.359,lexical_decision_task_DD_L6,2021.2.3,Win32,60.3646022,,m,1,0.5424,,,,,,,,0.5424,1,0,13,13,6,1,1001,ZOMBIE,m,,,,,,,,,,,,,,,,,,,,,,,,,,,,,,,,,,,,,,,,,,,,,,,,,,,,,,,,,,,,,,,,,
,,,,,,,,,,,,,,,,,5bad0eecf91cc300010cc978,51,2022-02-12_13h53.01.359,lexical_decision_task_DD_L6,2021.2.3,Win32,60.3646022,,z,1,0.6484,,,,,,,,0.6484,1,0,14,14,10,1,1001,INLADE,z,,,,,,,,,,,,,,,,,,,,,,,,,,,,,,,,,,,,,,,,,,,,,,,,,,,,,,,,,,,,,,,,,
,,,,,,,,,,,,,,,,,5bad0eecf91cc300010cc978,51,2022-02-12_13h53.01.359,lexical_decision_task_DD_L6,2021.2.3,Win32,60.3646022,,m,1,0.5763,,,,,,,,0.5763,1,0,15,15,4,1,1001,SQUEAK,m,,,,,,,,,,,,,,,,,,,,,,,,,,,,,,,,,,,,,,,,,,,,,,,,,,,,,,,,,,,,,,,,,
space,-0.885225647,0.5,0,0,0,,,,,,,1,end_of_practice,"You have completed the practice trials. During the experimental trials, you will not receive feedback. 
Before you begin, please ensure that you are in a comfortable and quiet location and will not be disturbed for about 15 minutes, as we cannot use your data if you do not complete all the trials. 
 When you are ready to start the experimental trials, please press space or touch the button below.",,,5bad0eecf91cc300010cc978,51,2022-02-12_13h53.01.359,lexical_decision_task_DD_L6,2021.2.3,Win32,60.3646022,11.2881,,,,,,,,,,,,,,,,,,,,,0,0,0,0,1,,,,,,,,,,,,,,,,,,,,,,,,,,,,,,,,,,,,,,,,,,,,,,,,,,,,,,,,,,,,
,,,,,,,,,,,,,,,,,5bad0eecf91cc300010cc978,51,2022-02-12_13h53.01.359,lexical_decision_task_DD_L6,2021.2.3,Win32,60.3646022,,,,,,,,,,,,0.663,1,,,,,,,,,,,,,,m,1,0.663,,,,,,,,-0.885225647,0.5,0,0,0,,0,0,0,30,1,SLOPE,LB,m,m,./images/SLOPELB.png,,,,,,,,,,,,,,,,,,,,,,,,,,,,,,,,,,
,,,,,,,,,,,,,,,,,5bad0eecf91cc300010cc978,51,2022-02-12_13h53.01.359,lexical_decision_task_DD_L6,2021.2.3,Win32,60.3646022,,,,,,,,,,,,1.841,1,,,,,,,,,,,,,,z,1,1.841,,,,,,,,-0.885225647,0.5,0,0,0,,0,1,1,160,1,VEETS,HB,z,z,./images/VEETSHB.png,,,,,,,,,,,,,,,,,,,,,,,,,,,,,,,,,,
,,,,,,,,,,,,,,,,,5bad0eecf91cc300010cc978,51,2022-02-12_13h53.01.359,lexical_decision_task_DD_L6,2021.2.3,Win32,60.3646022,,,,,,,,,,,,0.8751,1,,,,,,,,,,,,,,z,1,0.8751,,,,,,,,-0.885225647,0.5,0,0,0,,0,2,2,110,1,CRUNK,LB,z,z,./images/CRUNKLB.png,,,,,,,,,,,,,,,,,,,,,,,,,,,,,,,,,,
,,,,,,,,,,,,,,,,,5bad0eecf91cc300010cc978,51,2022-02-12_13h53.01.359,lexical_decision_task_DD_L6,2021.2.3,Win32,60.3646022,,,,,,,,,,,,0.6631,1,,,,,,,,,,,,,,z,1,0.6631,,,,,,,,-0.885225647,0.5,0,0,0,,0,3,3,101,1,GLEET,LB,z,z,./images/GLEETLB.png,,,,,,,,,,,,,,,,,,,,,,,,,,,,,,,,,,
,,,,,,,,,,,,,,,,,5bad0eecf91cc300010cc978,51,2022-02-12_13h53.01.359,lexical_decision_task_DD_L6,2021.2.3,Win32,60.3646022,,,,,,,,,,,,0.6654,1,,,,,,,,,,,,,,z,1,0.6654,,,,,,,,-0.885225647,0.5,0,0,0,,0,4,4,90,1,NEAST,C,z,z,./images/NEAST.png,,,,,,,,,,,,,,,,,,,,,,,,,,,,,,,,,,
,,,,,,,,,,,,,,,,,5bad0eecf91cc300010cc978,51,2022-02-12_13h53.01.359,lexical_decision_task_DD_L6,2021.2.3,Win32,60.3646022,,,,,,,,,,,,0.6588,1,,,,,,,,,,,,,,m,1,0.6588,,,,,,,,-0.885225647,0.5,0,0,0,,0,5,5,79,1,RULER,C,m,m,./images/RULER.png,,,,,,,,,,,,,,,,,,,,,,,,,,,,,,,,,,
,,,,,,,,,,,,,,,,,5bad0eecf91cc300010cc978,51,2022-02-12_13h53.01.359,lexical_decision_task_DD_L6,2021.2.3,Win32,60.3646022,,,,,,,,,,,,1.0944,1,,,,,,,,,,,,,,m,1,1.0944,,,,,,,,-0.885225647,0.5,0,0,0,,0,6,6,11,1,MEDAL,HB,m,m,./images/MEDALHB.png,,,,,,,,,,,,,,,,,,,,,,,,,,,,,,,,,,
,,,,,,,,,,,,,,,,,5bad0eecf91cc300010cc978,51,2022-02-12_13h53.01.359,lexical_decision_task_DD_L6,2021.2.3,Win32,60.3646022,,,,,,,,,,,,0.7203,1,,,,,,,,,,,,,,z,1,0.7203,,,,,,,,-0.885225647,0.5,0,0,0,,0,7,7,143,1,MONGS,LB,z,z,./images/MONGSLB.png,,,,,,,,,,,,,,,,,,,,,,,,,,,,,,,,,,
,,,,,,,,,,,,,,,,,5bad0eecf91cc300010cc978,51,2022-02-12_13h53.01.359,lexical_decision_task_DD_L6,2021.2.3,Win32,60.3646022,,,,,,,,,,,,0.5552,1,,,,,,,,,,,,,,z,1,0.5552,,,,,,,,-0.885225647,0.5,0,0,0,,0,8,8,126,1,GUELS,C,z,z,./images/GUELS.png,,,,,,,,,,,,,,,,,,,,,,,,,,,,,,,,,,
,,,,,,,,,,,,,,,,,5bad0eecf91cc300010cc978,51,2022-02-12_13h53.01.359,lexical_decision_task_DD_L6,2021.2.3,Win32,60.3646022,,,,,,,,,,,,0.6649,1,,,,,,,,,,,,,,m,1,0.6649,,,,,,,,-0.885225647,0.5,0,0,0,,0,9,9,18,1,PARCEL,LB,m,m,./images/PARCELLB.png,,,,,,,,,,,,,,,,,,,,,,,,,,,,,,,,,,
,,,,,,,,,,,,,,,,,5bad0eecf91cc300010cc978,51,2022-02-12_13h53.01.359,lexical_decision_task_DD_L6,2021.2.3,Win32,60.3646022,,,,,,,,,,,,0.6492,1,,,,,,,,,,,,,,m,1,0.6492,,,,,,,,-0.885225647,0.5,0,0,0,,0,10,10,9,1,DIVER,LB,m,m,./images/DIVERLB.png,,,,,,,,,,,,,,,,,,,,,,,,,,,,,,,,,,
,,,,,,,,,,,,,,,,,5bad0eecf91cc300010cc978,51,2022-02-12_13h53.01.359,lexical_decision_task_DD_L6,2021.2.3,Win32,60.3646022,,,,,,,,,,,,0.5386,1,,,,,,,,,,,,,,z,1,0.5386,,,,,,,,-0.885225647,0.5,0,0,0,,0,11,11,141,1,PLEET,C,z,z,./images/PLEET.png,,,,,,,,,,,,,,,,,,,,,,,,,,,,,,,,,,
,,,,,,,,,,,,,,,,,5bad0eecf91cc300010cc978,51,2022-02-12_13h53.01.359,lexical_decision_task_DD_L6,2021.2.3,Win32,60.3646022,,,,,,,,,,,,0.7432,1,,,,,,,,,,,,,,z,1,0.7432,,,,,,,,-0.885225647,0.5,0,0,0,,0,12,12,158,1,EGECT,LB,z,z,./images/EGECTLB.png,,,,,,,,,,,,,,,,,,,,,,,,,,,,,,,,,,
,,,,,,,,,,,,,,,,,5bad0eecf91cc300010cc978,51,2022-02-12_13h53.01.359,lexical_decision_task_DD_L6,2021.2.3,Win32,60.3646022,,,,,,,,,,,,0.7438,1,,,,,,,,,,,,,,m,1,0.7438,,,,,,,,-0.885225647,0.5,0,0,0,,0,13,13,80,1,PLANET,HB,m,m,./images/PLANETHB.png,,,,,,,,,,,,,,,,,,,,,,,,,,,,,,,,,,
,,,,,,,,,,,,,,,,,5bad0eecf91cc300010cc978,51,2022-02-12_13h53.01.359,lexical_decision_task_DD_L6,2021.2.3,Win32,60.3646022,,,,,,,,,,,,0.6396,1,,,,,,,,,,,,,,m,1,0.6396,,,,,,,,-0.885225647,0.5,0,0,0,,0,14,14,69,1,ARROW,LB,m,m,./images/ARROWLB.png,,,,,,,,,,,,,,,,,,,,,,,,,,,,,,,,,,
,,,,,,,,,,,,,,,,,5bad0eecf91cc300010cc978,51,2022-02-12_13h53.01.359,lexical_decision_task_DD_L6,2021.2.3,Win32,60.3646022,,,,,,,,,,,,0.608,1,,,,,,,,,,,,,,z,1,0.608,,,,,,,,-0.885225647,0.5,0,0,0,,0,15,15,105,1,MOKER,C,z,z,./images/MOKER.png,,,,,,,,,,,,,,,,,,,,,,,,,,,,,,,,,,
,,,,,,,,,,,,,,,,,5bad0eecf91cc300010cc978,51,2022-02-12_13h53.01.359,lexical_decision_task_DD_L6,2021.2.3,Win32,60.3646022,,,,,,,,,,,,1.1261,0,,,,,,,,,,,,,,m,0,1.1261,,,,,,,,-0.885225647,0.5,0,0,0,,0,16,16,166,1,SHORY,HB,z,z,./images/SHORYHB.png,,,,,,,,,,,,,,,,,,,,,,,,,,,,,,,,,,
,,,,,,,,,,,,,,,,,5bad0eecf91cc300010cc978,51,2022-02-12_13h53.01.359,lexical_decision_task_DD_L6,2021.2.3,Win32,60.3646022,,,,,,,,,,,,0.7769,1,,,,,,,,,,,,,,z,1,0.7769,,,,,,,,-0.885225647,0.5,0,0,0,,0,17,17,103,1,FLORT,HB,z,z,./images/FLORTHB.png,,,,,,,,,,,,,,,,,,,,,,,,,,,,,,,,,,
,,,,,,,,,,,,,,,,,5bad0eecf91cc300010cc978,51,2022-02-12_13h53.01.359,lexical_decision_task_DD_L6,2021.2.3,Win32,60.3646022,,,,,,,,,,,,0.6131,1,,,,,,,,,,,,,,m,1,0.6131,,,,,,,,-0.885225647,0.5,0,0,0,,0,18,18,51,1,SAUCE,LB,m,m,./images/SAUCELB.png,,,,,,,,,,,,,,,,,,,,,,,,,,,,,,,,,,
,,,,,,,,,,,,,,,,,5bad0eecf91cc300010cc978,51,2022-02-12_13h53.01.359,lexical_decision_task_DD_L6,2021.2.3,Win32,60.3646022,,,,,,,,,,,,0.7395,0,,,,,,,,,,,,,,z,0,0.7395,,,,,,,,-0.885225647,0.5,0,0,0,,0,19,19,35,1,LLAMA,HB,m,m,./images/LLAMAHB.png,,,,,,,,,,,,,,,,,,,,,,,,,,,,,,,,,,
,,,,,,,,,,,,,,,,,5bad0eecf91cc300010cc978,51,2022-02-12_13h53.01.359,lexical_decision_task_DD_L6,2021.2.3,Win32,60.3646022,,,,,,,,,,,,0.6121,1,,,,,,,,,,,,,,z,1,0.6121,,,,,,,,-0.885225647,0.5,0,0,0,,0,20,20,111,1,HOSSE,C,z,z,./images/HOSSE.png,,,,,,,,,,,,,,,,,,,,,,,,,,,,,,,,,,
,,,,,,,,,,,,,,,,,5bad0eecf91cc300010cc978,51,2022-02-12_13h53.01.359,lexical_decision_task_DD_L6,2021.2.3,Win32,60.3646022,,,,,,,,,,,,0.7363,1,,,,,,,,,,,,,,z,1,0.7363,,,,,,,,-0.885225647,0.5,0,0,0,,0,21,21,118,1,BAVEL,HB,z,z,./images/BAVELHB.png,,,,,,,,,,,,,,,,,,,,,,,,,,,,,,,,,,
,,,,,,,,,,,,,,,,,5bad0eecf91cc300010cc978,51,2022-02-12_13h53.01.359,lexical_decision_task_DD_L6,2021.2.3,Win32,60.3646022,,,,,,,,,,,,0.5354,1,,,,,,,,,,,,,,z,1,0.5354,,,,,,,,-0.885225647,0.5,0,0,0,,0,22,22,134,1,TROSS,LB,z,z,./images/TROSSLB.png,,,,,,,,,,,,,,,,,,,,,,,,,,,,,,,,,,
,,,,,,,,,,,,,,,,,5bad0eecf91cc300010cc978,51,2022-02-12_13h53.01.359,lexical_decision_task_DD_L6,2021.2.3,Win32,60.3646022,,,,,,,,,,,,0.7433,1,,,,,,,,,,,,,,m,1,0.7433,,,,,,,,-0.885225647,0.5,0,0,0,,0,23,23,38,1,ENGINE,HB,m,m,./images/ENGINEHB.png,,,,,,,,,,,,,,,,,,,,,,,,,,,,,,,,,,
,,,,,,,,,,,,,,,,,5bad0eecf91cc300010cc978,51,2022-02-12_13h53.01.359,lexical_decision_task_DD_L6,2021.2.3,Win32,60.3646022,,,,,,,,,,,,0.5318,1,,,,,,,,,,,,,,z,1,0.5318,,,,,,,,-0.885225647,0.5,0,0,0,,0,24,24,138,1,PLICE,C,z,z,./images/PLICE.png,,,,,,,,,,,,,,,,,,,,,,,,,,,,,,,,,,
,,,,,,,,,,,,,,,,,5bad0eecf91cc300010cc978,51,2022-02-12_13h53.01.359,lexical_decision_task_DD_L6,2021.2.3,Win32,60.3646022,,,,,,,,,,,,0.7497,1,,,,,,,,,,,,,,m,1,0.7497,,,,,,,,-0.885225647,0.5,0,0,0,,0,25,25,62,1,MAMMAL,HB,m,m,./images/MAMMALHB.png,,,,,,,,,,,,,,,,,,,,,,,,,,,,,,,,,,
,,,,,,,,,,,,,,,,,5bad0eecf91cc300010cc978,51,2022-02-12_13h53.01.359,lexical_decision_task_DD_L6,2021.2.3,Win32,60.3646022,,,,,,,,,,,,0.4577,1,,,,,,,,,,,,,,z,1,0.4577,,,,,,,,-0.885225647,0.5,0,0,0,,0,26,26,96,1,KEAMS,C,z,z,./images/KEAMS.png,,,,,,,,,,,,,,,,,,,,,,,,,,,,,,,,,,
,,,,,,,,,,,,,,,,,5bad0eecf91cc300010cc978,51,2022-02-12_13h53.01.359,lexical_decision_task_DD_L6,2021.2.3,Win32,60.3646022,,,,,,,,,,,,0.5905,1,,,,,,,,,,,,,,m,1,0.5905,,,,,,,,-0.885225647,0.5,0,0,0,,0,27,27,7,1,WAGON,C,m,m,./images/WAGON.png,,,,,,,,,,,,,,,,,,,,,,,,,,,,,,,,,,
,,,,,,,,,,,,,,,,,5bad0eecf91cc300010cc978,51,2022-02-12_13h53.01.359,lexical_decision_task_DD_L6,2021.2.3,Win32,60.3646022,,,,,,,,,,,,0.5131,1,,,,,,,,,,,,,,m,1,0.5131,,,,,,,,-0.885225647,0.5,0,0,0,,0,28,28,6,1,STAIN,LB,m,m,./images/STAINLB.png,,,,,,,,,,,,,,,,,,,,,,,,,,,,,,,,,,
,,,,,,,,,,,,,,,,,5bad0eecf91cc300010cc978,51,2022-02-12_13h53.01.359,lexical_decision_task_DD_L6,2021.2.3,Win32,60.3646022,,,,,,,,,,,,0.5135,1,,,,,,,,,,,,,,z,1,0.5135,,,,,,,,-0.885225647,0.5,0,0,0,,0,29,29,159,1,CUDDY,C,z,z,./images/CUDDY.png,,,,,,,,,,,,,,,,,,,,,,,,,,,,,,,,,,
,,,,,,,,,,,,,,,,,5bad0eecf91cc300010cc978,51,2022-02-12_13h53.01.359,lexical_decision_task_DD_L6,2021.2.3,Win32,60.3646022,,,,,,,,,,,,0.5899,1,,,,,,,,,,,,,,z,1,0.5899,,,,,,,,-0.885225647,0.5,0,0,0,,0,30,30,97,1,CHIDS,HB,z,z,./images/CHIDSHB.png,,,,,,,,,,,,,,,,,,,,,,,,,,,,,,,,,,
,,,,,,,,,,,,,,,,,5bad0eecf91cc300010cc978,51,2022-02-12_13h53.01.359,lexical_decision_task_DD_L6,2021.2.3,Win32,60.3646022,,,,,,,,,,,,0.456,1,,,,,,,,,,,,,,m,1,0.456,,,,,,,,-0.885225647,0.5,0,0,0,,0,31,31,13,1,BUNNY,C,m,m,./images/BUNNY.png,,,,,,,,,,,,,,,,,,,,,,,,,,,,,,,,,,
,,,,,,,,,,,,,,,,,5bad0eecf91cc300010cc978,51,2022-02-12_13h53.01.359,lexical_decision_task_DD_L6,2021.2.3,Win32,60.3646022,,,,,,,,,,,,0.495,1,,,,,,,,,,,,,,z,1,0.495,,,,,,,,-0.885225647,0.5,0,0,0,,0,32,32,123,1,SEDGE,C,z,z,./images/SEDGE.png,,,,,,,,,,,,,,,,,,,,,,,,,,,,,,,,,,
,,,,,,,,,,,,,,,,,5bad0eecf91cc300010cc978,51,2022-02-12_13h53.01.359,lexical_decision_task_DD_L6,2021.2.3,Win32,60.3646022,,,,,,,,,,,,0.6489,1,,,,,,,,,,,,,,m,1,0.6489,,,,,,,,-0.885225647,0.5,0,0,0,,0,33,33,68,1,VALLEY,HB,m,m,./images/VALLEYHB.png,,,,,,,,,,,,,,,,,,,,,,,,,,,,,,,,,,
,,,,,,,,,,,,,,,,,5bad0eecf91cc300010cc978,51,2022-02-12_13h53.01.359,lexical_decision_task_DD_L6,2021.2.3,Win32,60.3646022,,,,,,,,,,,,0.584,1,,,,,,,,,,,,,,z,1,0.584,,,,,,,,-0.885225647,0.5,0,0,0,,0,34,34,128,1,GRIFT,LB,z,z,./images/GRIFTLB.png,,,,,,,,,,,,,,,,,,,,,,,,,,,,,,,,,,
,,,,,,,,,,,,,,,,,5bad0eecf91cc300010cc978,51,2022-02-12_13h53.01.359,lexical_decision_task_DD_L6,2021.2.3,Win32,60.3646022,,,,,,,,,,,,0.4884,1,,,,,,,,,,,,,,z,1,0.4884,,,,,,,,-0.885225647,0.5,0,0,0,,0,35,35,102,1,DULLE,C,z,z,./images/DULLE.png,,,,,,,,,,,,,,,,,,,,,,,,,,,,,,,,,,
,,,,,,,,,,,,,,,,,5bad0eecf91cc300010cc978,51,2022-02-12_13h53.01.359,lexical_decision_task_DD_L6,2021.2.3,Win32,60.3646022,,,,,,,,,,,,0.6343,1,,,,,,,,,,,,,,m,1,0.6343,,,,,,,,-0.885225647,0.5,0,0,0,,0,36,36,3,1,CRATER,LB,m,m,./images/CRATERLB.png,,,,,,,,,,,,,,,,,,,,,,,,,,,,,,,,,,
,,,,,,,,,,,,,,,,,5bad0eecf91cc300010cc978,51,2022-02-12_13h53.01.359,lexical_decision_task_DD_L6,2021.2.3,Win32,60.3646022,,,,,,,,,,,,0.5284,1,,,,,,,,,,,,,,z,1,0.5284,,,,,,,,-0.885225647,0.5,0,0,0,,0,37,37,87,1,TRING,C,z,z,./images/TRING.png,,,,,,,,,,,,,,,,,,,,,,,,,,,,,,,,,,
,,,,,,,,,,,,,,,,,5bad0eecf91cc300010cc978,51,2022-02-12_13h53.01.359,lexical_decision_task_DD_L6,2021.2.3,Win32,60.3646022,,,,,,,,,,,,0.7428,1,,,,,,,,,,,,,,z,1,0.7428,,,,,,,,-0.885225647,0.5,0,0,0,,0,38,38,88,1,GLUSH,HB,z,z,./images/GLUSHHB.png,,,,,,,,,,,,,,,,,,,,,,,,,,,,,,,,,,
,,,,,,,,,,,,,,,,,5bad0eecf91cc300010cc978,51,2022-02-12_13h53.01.359,lexical_decision_task_DD_L6,2021.2.3,Win32,60.3646022,,,,,,,,,,,,0.4701,1,,,,,,,,,,,,,,m,1,0.4701,,,,,,,,-0.885225647,0.5,0,0,0,,0,39,39,19,1,DONKEY,C,m,m,./images/DONKEY.png,,,,,,,,,,,,,,,,,,,,,,,,,,,,,,,,,,
,,,,,,,,,,,,,,,,,5bad0eecf91cc300010cc978,51,2022-02-12_13h53.01.359,lexical_decision_task_DD_L6,2021.2.3,Win32,60.3646022,,,,,,,,,,,,0.4658,0,,,,,,,,,,,,,,z,0,0.4658,,,,,,,,-0.885225647,0.5,0,0,0,,0,40,40,10,1,GARDEN,C,m,m,./images/GARDEN.png,,,,,,,,,,,,,,,,,,,,,,,,,,,,,,,,,,
,,,,,,,,,,,,,,,,,5bad0eecf91cc300010cc978,51,2022-02-12_13h53.01.359,lexical_decision_task_DD_L6,2021.2.3,Win32,60.3646022,,,,,,,,,,,,0.8918,1,,,,,,,,,,,,,,m,1,0.8918,,,,,,,,-0.885225647,0.5,0,0,0,space,0,41,41,22,1,CLOWN,C,m,m,./images/CLOWN.png,4.2657,,,,,,,,,,,,,,,,,,,,,,,,,,,,,,,,,
,,,,,,,,,,,,,,,,,5bad0eecf91cc300010cc978,51,2022-02-12_13h53.01.359,lexical_decision_task_DD_L6,2021.2.3,Win32,60.3646022,,,,,,,,,,,,0.6076,1,,,,,,,,,,,,,,z,1,0.6076,,,,,,,,-0.885225647,0.5,0,0,0,,0,42,42,117,1,STEEG,C,z,z,./images/STEEG.png,,,,,,,,,,,,,,,,,,,,,,,,,,,,,,,,,,
,,,,,,,,,,,,,,,,,5bad0eecf91cc300010cc978,51,2022-02-12_13h53.01.359,lexical_decision_task_DD_L6,2021.2.3,Win32,60.3646022,,,,,,,,,,,,0.5763,1,,,,,,,,,,,,,,z,1,0.5763,,,,,,,,-0.885225647,0.5,0,0,0,,0,43,43,152,1,FRAIN,LB,z,z,./images/FRAINLB.png,,,,,,,,,,,,,,,,,,,,,,,,,,,,,,,,,,
,,,,,,,,,,,,,,,,,5bad0eecf91cc300010cc978,51,2022-02-12_13h53.01.359,lexical_decision_task_DD_L6,2021.2.3,Win32,60.3646022,,,,,,,,,,,,0.5537,1,,,,,,,,,,,,,,m,1,0.5537,,,,,,,,-0.885225647,0.5,0,0,0,,0,44,44,81,1,DRILL,LB,m,m,./images/DRILLLB.png,,,,,,,,,,,,,,,,,,,,,,,,,,,,,,,,,,
,,,,,,,,,,,,,,,,,5bad0eecf91cc300010cc978,51,2022-02-12_13h53.01.359,lexical_decision_task_DD_L6,2021.2.3,Win32,60.3646022,,,,,,,,,,,,0.6233,1,,,,,,,,,,,,,,z,1,0.6233,,,,,,,,-0.885225647,0.5,0,0,0,,0,45,45,142,1,PLASK,HB,z,z,./images/PLASKHB.png,,,,,,,,,,,,,,,,,,,,,,,,,,,,,,,,,,
,,,,,,,,,,,,,,,,,5bad0eecf91cc300010cc978,51,2022-02-12_13h53.01.359,lexical_decision_task_DD_L6,2021.2.3,Win32,60.3646022,,,,,,,,,,,,0.4784,1,,,,,,,,,,,,,,z,1,0.4784,,,,,,,,-0.885225647,0.5,0,0,0,,0,46,46,153,1,CLUPS,C,z,z,./images/CLUPS.png,,,,,,,,,,,,,,,,,,,,,,,,,,,,,,,,,,
,,,,,,,,,,,,,,,,,5bad0eecf91cc300010cc978,51,2022-02-12_13h53.01.359,lexical_decision_task_DD_L6,2021.2.3,Win32,60.3646022,,,,,,,,,,,,0.66,1,,,,,,,,,,,,,,z,1,0.66,,,,,,,,-0.885225647,0.5,0,0,0,,0,47,47,113,1,LINEW,LB,z,z,./images/LINEWLB.png,,,,,,,,,,,,,,,,,,,,,,,,,,,,,,,,,,
,,,,,,,,,,,,,,,,,5bad0eecf91cc300010cc978,51,2022-02-12_13h53.01.359,lexical_decision_task_DD_L6,2021.2.3,Win32,60.3646022,,,,,,,,,,,,0.4968,1,,,,,,,,,,,,,,m,1,0.4968,,,,,,,,-0.885225647,0.5,0,0,0,,0,48,48,54,1,CHERRY,LB,m,m,./images/CHERRYLB.png,,,,,,,,,,,,,,,,,,,,,,,,,,,,,,,,,,
,,,,,,,,,,,,,,,,,5bad0eecf91cc300010cc978,51,2022-02-12_13h53.01.359,lexical_decision_task_DD_L6,2021.2.3,Win32,60.3646022,,,,,,,,,,,,0.504,1,,,,,,,,,,,,,,m,1,0.504,,,,,,,,-0.885225647,0.5,0,0,0,,0,49,49,78,1,BROOM,LB,m,m,./images/BROOMLB.png,,,,,,,,,,,,,,,,,,,,,,,,,,,,,,,,,,
,,,,,,,,,,,,,,,,,5bad0eecf91cc300010cc978,51,2022-02-12_13h53.01.359,lexical_decision_task_DD_L6,2021.2.3,Win32,60.3646022,,,,,,,,,,,,0.4862,1,,,,,,,,,,,,,,z,1,0.4862,,,,,,,,-0.885225647,0.5,0,0,0,,0,50,50,114,1,RIKES,C,z,z,./images/RIKES.png,,,,,,,,,,,,,,,,,,,,,,,,,,,,,,,,,,
,,,,,,,,,,,,,,,,,5bad0eecf91cc300010cc978,51,2022-02-12_13h53.01.359,lexical_decision_task_DD_L6,2021.2.3,Win32,60.3646022,,,,,,,,,,,,0.4654,1,,,,,,,,,,,,,,z,1,0.4654,,,,,,,,-0.885225647,0.5,0,0,0,,0,51,51,137,1,JOOST,LB,z,z,./images/JOOSTLB.png,,,,,,,,,,,,,,,,,,,,,,,,,,,,,,,,,,
,,,,,,,,,,,,,,,,,5bad0eecf91cc300010cc978,51,2022-02-12_13h53.01.359,lexical_decision_task_DD_L6,2021.2.3,Win32,60.3646022,,,,,,,,,,,,0.7361,1,,,,,,,,,,,,,,z,1,0.7361,,,,,,,,-0.885225647,0.5,0,0,0,,0,52,52,85,1,CHULK,HB,z,z,./images/CHULKHB.png,,,,,,,,,,,,,,,,,,,,,,,,,,,,,,,,,,
,,,,,,,,,,,,,,,,,5bad0eecf91cc300010cc978,51,2022-02-12_13h53.01.359,lexical_decision_task_DD_L6,2021.2.3,Win32,60.3646022,,,,,,,,,,,,0.5578,1,,,,,,,,,,,,,,z,1,0.5578,,,,,,,,-0.885225647,0.5,0,0,0,,0,53,53,125,1,MOOKY,LB,z,z,./images/MOOKYLB.png,,,,,,,,,,,,,,,,,,,,,,,,,,,,,,,,,,
,,,,,,,,,,,,,,,,,5bad0eecf91cc300010cc978,51,2022-02-12_13h53.01.359,lexical_decision_task_DD_L6,2021.2.3,Win32,60.3646022,,,,,,,,,,,,0.4799,1,,,,,,,,,,,,,,z,1,0.4799,,,,,,,,-0.885225647,0.5,0,0,0,,0,54,54,162,1,LEICH,C,z,z,./images/LEICH.png,,,,,,,,,,,,,,,,,,,,,,,,,,,,,,,,,,
,,,,,,,,,,,,,,,,,5bad0eecf91cc300010cc978,51,2022-02-12_13h53.01.359,lexical_decision_task_DD_L6,2021.2.3,Win32,60.3646022,,,,,,,,,,,,0.516,1,,,,,,,,,,,,,,m,1,0.516,,,,,,,,-0.885225647,0.5,0,0,0,,0,55,55,46,1,MUMMY,C,m,m,./images/MUMMY.png,,,,,,,,,,,,,,,,,,,,,,,,,,,,,,,,,,
,,,,,,,,,,,,,,,,,5bad0eecf91cc300010cc978,51,2022-02-12_13h53.01.359,lexical_decision_task_DD_L6,2021.2.3,Win32,60.3646022,,,,,,,,,,,,0.4739,1,,,,,,,,,,,,,,m,1,0.4739,,,,,,,,-0.885225647,0.5,0,0,0,,0,56,56,37,1,TIGER,C,m,m,./images/TIGER.png,,,,,,,,,,,,,,,,,,,,,,,,,,,,,,,,,,
,,,,,,,,,,,,,,,,,5bad0eecf91cc300010cc978,51,2022-02-12_13h53.01.359,lexical_decision_task_DD_L6,2021.2.3,Win32,60.3646022,,,,,,,,,,,,0.4684,1,,,,,,,,,,,,,,z,1,0.4684,,,,,,,,-0.885225647,0.5,0,0,0,,0,57,57,144,1,NAIRY,C,z,z,./images/NAIRY.png,,,,,,,,,,,,,,,,,,,,,,,,,,,,,,,,,,
,,,,,,,,,,,,,,,,,5bad0eecf91cc300010cc978,51,2022-02-12_13h53.01.359,lexical_decision_task_DD_L6,2021.2.3,Win32,60.3646022,,,,,,,,,,,,0.8941,1,,,,,,,,,,,,,,z,1,0.8941,,,,,,,,-0.885225647,0.5,0,0,0,,0,58,58,121,1,CEERS,HB,z,z,./images/CEERSHB.png,,,,,,,,,,,,,,,,,,,,,,,,,,,,,,,,,,
,,,,,,,,,,,,,,,,,5bad0eecf91cc300010cc978,51,2022-02-12_13h53.01.359,lexical_decision_task_DD_L6,2021.2.3,Win32,60.3646022,,,,,,,,,,,,0.6081,1,,,,,,,,,,,,,,z,1,0.6081,,,,,,,,-0.885225647,0.5,0,0,0,,0,59,59,99,1,BACKY,C,z,z,./images/BACKY.png,,,,,,,,,,,,,,,,,,,,,,,,,,,,,,,,,,
,,,,,,,,,,,,,,,,,5bad0eecf91cc300010cc978,51,2022-02-12_13h53.01.359,lexical_decision_task_DD_L6,2021.2.3,Win32,60.3646022,,,,,,,,,,,,0.5435,1,,,,,,,,,,,,,,m,1,0.5435,,,,,,,,-0.885225647,0.5,0,0,0,,0,60,60,39,1,CANDY,LB,m,m,./images/CANDYLB.png,,,,,,,,,,,,,,,,,,,,,,,,,,,,,,,,,,
,,,,,,,,,,,,,,,,,5bad0eecf91cc300010cc978,51,2022-02-12_13h53.01.359,lexical_decision_task_DD_L6,2021.2.3,Win32,60.3646022,,,,,,,,,,,,0.4844,1,,,,,,,,,,,,,,z,1,0.4844,,,,,,,,-0.885225647,0.5,0,0,0,,0,61,61,86,1,AIFED,LB,z,z,./images/AIFEDLB.png,,,,,,,,,,,,,,,,,,,,,,,,,,,,,,,,,,
,,,,,,,,,,,,,,,,,5bad0eecf91cc300010cc978,51,2022-02-12_13h53.01.359,lexical_decision_task_DD_L6,2021.2.3,Win32,60.3646022,,,,,,,,,,,,0.5779,1,,,,,,,,,,,,,,z,1,0.5779,,,,,,,,-0.885225647,0.5,0,0,0,,0,62,62,156,1,HIXES,C,z,z,./images/HIXES.png,,,,,,,,,,,,,,,,,,,,,,,,,,,,,,,,,,
,,,,,,,,,,,,,,,,,5bad0eecf91cc300010cc978,51,2022-02-12_13h53.01.359,lexical_decision_task_DD_L6,2021.2.3,Win32,60.3646022,,,,,,,,,,,,0.6131,1,,,,,,,,,,,,,,m,1,0.6131,,,,,,,,-0.885225647,0.5,0,0,0,,0,63,63,41,1,STREAM,HB,m,m,./images/STREAMHB.png,,,,,,,,,,,,,,,,,,,,,,,,,,,,,,,,,,
,,,,,,,,,,,,,,,,,5bad0eecf91cc300010cc978,51,2022-02-12_13h53.01.359,lexical_decision_task_DD_L6,2021.2.3,Win32,60.3646022,,,,,,,,,,,,0.4624,1,,,,,,,,,,,,,,z,1,0.4624,,,,,,,,-0.885225647,0.5,0,0,0,,0,64,64,131,1,NACES,LB,z,z,./images/NACESLB.png,,,,,,,,,,,,,,,,,,,,,,,,,,,,,,,,,,
,,,,,,,,,,,,,,,,,5bad0eecf91cc300010cc978,51,2022-02-12_13h53.01.359,lexical_decision_task_DD_L6,2021.2.3,Win32,60.3646022,,,,,,,,,,,,0.4376,1,,,,,,,,,,,,,,z,1,0.4376,,,,,,,,-0.885225647,0.5,0,0,0,,0,65,65,129,1,PRANS,C,z,z,./images/PRANS.png,,,,,,,,,,,,,,,,,,,,,,,,,,,,,,,,,,
,,,,,,,,,,,,,,,,,5bad0eecf91cc300010cc978,51,2022-02-12_13h53.01.359,lexical_decision_task_DD_L6,2021.2.3,Win32,60.3646022,,,,,,,,,,,,0.5757,1,,,,,,,,,,,,,,m,1,0.5757,,,,,,,,-0.885225647,0.5,0,0,0,,0,66,66,56,1,HEATER,HB,m,m,./images/HEATERHB.png,,,,,,,,,,,,,,,,,,,,,,,,,,,,,,,,,,
,,,,,,,,,,,,,,,,,5bad0eecf91cc300010cc978,51,2022-02-12_13h53.01.359,lexical_decision_task_DD_L6,2021.2.3,Win32,60.3646022,,,,,,,,,,,,0.5312,1,,,,,,,,,,,,,,m,1,0.5312,,,,,,,,-0.885225647,0.5,0,0,0,,0,67,67,70,1,BANANA,C,m,m,./images/BANANA.png,,,,,,,,,,,,,,,,,,,,,,,,,,,,,,,,,,
,,,,,,,,,,,,,,,,,5bad0eecf91cc300010cc978,51,2022-02-12_13h53.01.359,lexical_decision_task_DD_L6,2021.2.3,Win32,60.3646022,,,,,,,,,,,,0.5663,1,,,,,,,,,,,,,,m,1,0.5663,,,,,,,,-0.885225647,0.5,0,0,0,,0,68,68,33,1,SAUNA,LB,m,m,./images/SAUNALB.png,,,,,,,,,,,,,,,,,,,,,,,,,,,,,,,,,,
,,,,,,,,,,,,,,,,,5bad0eecf91cc300010cc978,51,2022-02-12_13h53.01.359,lexical_decision_task_DD_L6,2021.2.3,Win32,60.3646022,,,,,,,,,,,,0.7098,1,,,,,,,,,,,,,,m,1,0.7098,,,,,,,,-0.885225647,0.5,0,0,0,,0,69,69,74,1,JUMPER,HB,m,m,./images/JUMPERHB.png,,,,,,,,,,,,,,,,,,,,,,,,,,,,,,,,,,
,,,,,,,,,,,,,,,,,5bad0eecf91cc300010cc978,51,2022-02-12_13h53.01.359,lexical_decision_task_DD_L6,2021.2.3,Win32,60.3646022,,,,,,,,,,,,0.5636,1,,,,,,,,,,,,,,m,1,0.5636,,,,,,,,-0.885225647,0.5,0,0,0,,0,70,70,73,1,GLOVE,C,m,m,./images/GLOVE.png,,,,,,,,,,,,,,,,,,,,,,,,,,,,,,,,,,
,,,,,,,,,,,,,,,,,5bad0eecf91cc300010cc978,51,2022-02-12_13h53.01.359,lexical_decision_task_DD_L6,2021.2.3,Win32,60.3646022,,,,,,,,,,,,0.6254,1,,,,,,,,,,,,,,m,1,0.6254,,,,,,,,-0.885225647,0.5,0,0,0,,0,71,71,60,1,CURRY,LB,m,m,./images/CURRYLB.png,,,,,,,,,,,,,,,,,,,,,,,,,,,,,,,,,,
,,,,,,,,,,,,,,,,,5bad0eecf91cc300010cc978,51,2022-02-12_13h53.01.359,lexical_decision_task_DD_L6,2021.2.3,Win32,60.3646022,,,,,,,,,,,,0.5122,1,,,,,,,,,,,,,,z,1,0.5122,,,,,,,,-0.885225647,0.5,0,0,0,,0,72,72,119,1,PAFER,LB,z,z,./images/PAFERLB.png,,,,,,,,,,,,,,,,,,,,,,,,,,,,,,,,,,
,,,,,,,,,,,,,,,,,5bad0eecf91cc300010cc978,51,2022-02-12_13h53.01.359,lexical_decision_task_DD_L6,2021.2.3,Win32,60.3646022,,,,,,,,,,,,0.7607,1,,,,,,,,,,,,,,m,1,0.7607,,,,,,,,-0.885225647,0.5,0,0,0,,0,73,73,44,1,BASKET,HB,m,m,./images/BASKETHB.png,,,,,,,,,,,,,,,,,,,,,,,,,,,,,,,,,,
,,,,,,,,,,,,,,,,,5bad0eecf91cc300010cc978,51,2022-02-12_13h53.01.359,lexical_decision_task_DD_L6,2021.2.3,Win32,60.3646022,,,,,,,,,,,,0.6242,1,,,,,,,,,,,,,,m,1,0.6242,,,,,,,,-0.885225647,0.5,0,0,0,,0,74,74,28,1,CASINO,C,m,m,./images/CASINO.png,,,,,,,,,,,,,,,,,,,,,,,,,,,,,,,,,,
,,,,,,,,,,,,,,,,,5bad0eecf91cc300010cc978,51,2022-02-12_13h53.01.359,lexical_decision_task_DD_L6,2021.2.3,Win32,60.3646022,,,,,,,,,,,,0.4791,1,,,,,,,,,,,,,,m,1,0.4791,,,,,,,,-0.885225647,0.5,0,0,0,,0,75,75,58,1,CANOE,C,m,m,./images/CANOE.png,,,,,,,,,,,,,,,,,,,,,,,,,,,,,,,,,,
,,,,,,,,,,,,,,,,,5bad0eecf91cc300010cc978,51,2022-02-12_13h53.01.359,lexical_decision_task_DD_L6,2021.2.3,Win32,60.3646022,,,,,,,,,,,,0.6815,1,,,,,,,,,,,,,,m,1,0.6815,,,,,,,,-0.885225647,0.5,0,0,0,,0,76,76,5,1,BAMBOO,HB,m,m,./images/BAMBOOHB.png,,,,,,,,,,,,,,,,,,,,,,,,,,,,,,,,,,
,,,,,,,,,,,,,,,,,5bad0eecf91cc300010cc978,51,2022-02-12_13h53.01.359,lexical_decision_task_DD_L6,2021.2.3,Win32,60.3646022,,,,,,,,,,,,0.521,1,,,,,,,,,,,,,,z,1,0.521,,,,,,,,-0.885225647,0.5,0,0,0,,0,77,77,92,1,PAIMS,LB,z,z,./images/PAIMSLB.png,,,,,,,,,,,,,,,,,,,,,,,,,,,,,,,,,,
,,,,,,,,,,,,,,,,,5bad0eecf91cc300010cc978,51,2022-02-12_13h53.01.359,lexical_decision_task_DD_L6,2021.2.3,Win32,60.3646022,,,,,,,,,,,,0.5524,1,,,,,,,,,,,,,,m,1,0.5524,,,,,,,,-0.885225647,0.5,0,0,0,,0,78,78,72,1,FLASK,LB,m,m,./images/FLASKLB.png,,,,,,,,,,,,,,,,,,,,,,,,,,,,,,,,,,
,,,,,,,,,,,,,,,,,5bad0eecf91cc300010cc978,51,2022-02-12_13h53.01.359,lexical_decision_task_DD_L6,2021.2.3,Win32,60.3646022,,,,,,,,,,,,0.9596,1,,,,,,,,,,,,,,m,1,0.9596,,,,,,,,-0.885225647,0.5,0,0,0,,0,79,79,83,1,WHISKY,HB,m,m,./images/WHISKYHB.png,,,,,,,,,,,,,,,,,,,,,,,,,,,,,,,,,,
,,,,,,,,,,,,,,,,,5bad0eecf91cc300010cc978,51,2022-02-12_13h53.01.359,lexical_decision_task_DD_L6,2021.2.3,Win32,60.3646022,,,,,,,,,,,,0.7249,1,,,,,,,,,,,,,,z,1,0.7249,,,,,,,,-0.885225647,0.5,0,0,0,,0,80,80,164,1,SGREW,LB,z,z,./images/SGREWLB.png,,,,,,,,,,,,,,,,,,,,,,,,,,,,,,,,,,
,,,,,,,,,,,,,,,,,5bad0eecf91cc300010cc978,51,2022-02-12_13h53.01.359,lexical_decision_task_DD_L6,2021.2.3,Win32,60.3646022,,,,,,,,,,,,0.6105,1,,,,,,,,,,,,,,m,1,0.6105,,,,,,,,-0.885225647,0.5,0,0,0,,0,81,81,71,1,BUBBLE,HB,m,m,./images/BUBBLEHB.png,,,,,,,,,,,,,,,,,,,,,,,,,,,,,,,,,,
,,,,,,,,,,,,,,,,,5bad0eecf91cc300010cc978,51,2022-02-12_13h53.01.359,lexical_decision_task_DD_L6,2021.2.3,Win32,60.3646022,,,,,,,,,,,,0.5144,1,,,,,,,,,,,,,,m,1,0.5144,,,,,,,,-0.885225647,0.5,0,0,0,,0,82,82,40,1,SNAKE,C,m,m,./images/SNAKE.png,,,,,,,,,,,,,,,,,,,,,,,,,,,,,,,,,,
,,,,,,,,,,,,,,,,,5bad0eecf91cc300010cc978,51,2022-02-12_13h53.01.359,lexical_decision_task_DD_L6,2021.2.3,Win32,60.3646022,,,,,,,,,,,,0.4526,1,,,,,,,,,,,,,,m,1,0.4526,,,,,,,,-0.885225647,0.5,0,0,0,space,0,83,83,61,1,ARTIST,C,m,m,./images/ARTIST.png,8.2051,,,,,,,,,,,,,,,,,,,,,,,,,,,,,,,,,
,,,,,,,,,,,,,,,,,5bad0eecf91cc300010cc978,51,2022-02-12_13h53.01.359,lexical_decision_task_DD_L6,2021.2.3,Win32,60.3646022,,,,,,,,,,,,0.5094,1,,,,,,,,,,,,,,z,1,0.5094,,,,,,,,-0.885225647,0.5,0,0,0,,0,84,84,84,1,HAXES,C,z,z,./images/HAXES.png,,,,,,,,,,,,,,,,,,,,,,,,,,,,,,,,,,
,,,,,,,,,,,,,,,,,5bad0eecf91cc300010cc978,51,2022-02-12_13h53.01.359,lexical_decision_task_DD_L6,2021.2.3,Win32,60.3646022,,,,,,,,,,,,0.54,1,,,,,,,,,,,,,,z,1,0.54,,,,,,,,-0.885225647,0.5,0,0,0,,0,85,85,135,1,JOODY,C,z,z,./images/JOODY.png,,,,,,,,,,,,,,,,,,,,,,,,,,,,,,,,,,
,,,,,,,,,,,,,,,,,5bad0eecf91cc300010cc978,51,2022-02-12_13h53.01.359,lexical_decision_task_DD_L6,2021.2.3,Win32,60.3646022,,,,,,,,,,,,0.6354,1,,,,,,,,,,,,,,m,1,0.6354,,,,,,,,-0.885225647,0.5,0,0,0,,0,86,86,47,1,LAGOON,HB,m,m,./images/LAGOONHB.png,,,,,,,,,,,,,,,,,,,,,,,,,,,,,,,,,,
,,,,,,,,,,,,,,,,,5bad0eecf91cc300010cc978,51,2022-02-12_13h53.01.359,lexical_decision_task_DD_L6,2021.2.3,Win32,60.3646022,,,,,,,,,,,,0.4609,1,,,,,,,,,,,,,,m,1,0.4609,,,,,,,,-0.885225647,0.5,0,0,0,,0,87,87,55,1,ALLEY,C,m,m,./images/ALLEY.png,,,,,,,,,,,,,,,,,,,,,,,,,,,,,,,,,,
,,,,,,,,,,,,,,,,,5bad0eecf91cc300010cc978,51,2022-02-12_13h53.01.359,lexical_decision_task_DD_L6,2021.2.3,Win32,60.3646022,,,,,,,,,,,,0.4728,1,,,,,,,,,,,,,,m,1,0.4728,,,,,,,,-0.885225647,0.5,0,0,0,,0,88,88,16,1,GRAPE,C,m,m,./images/GRAPE.png,,,,,,,,,,,,,,,,,,,,,,,,,,,,,,,,,,
,,,,,,,,,,,,,,,,,5bad0eecf91cc300010cc978,51,2022-02-12_13h53.01.359,lexical_decision_task_DD_L6,2021.2.3,Win32,60.3646022,,,,,,,,,,,,0.508,1,,,,,,,,,,,,,,m,1,0.508,,,,,,,,-0.885225647,0.5,0,0,0,,0,89,89,76,1,MIDGET,C,m,m,./images/MIDGET.png,,,,,,,,,,,,,,,,,,,,,,,,,,,,,,,,,,
,,,,,,,,,,,,,,,,,5bad0eecf91cc300010cc978,51,2022-02-12_13h53.01.359,lexical_decision_task_DD_L6,2021.2.3,Win32,60.3646022,,,,,,,,,,,,0.5839,1,,,,,,,,,,,,,,z,1,0.5839,,,,,,,,-0.885225647,0.5,0,0,0,,0,90,90,91,1,SHENS,HB,z,z,./images/SHENSHB.png,,,,,,,,,,,,,,,,,,,,,,,,,,,,,,,,,,
,,,,,,,,,,,,,,,,,5bad0eecf91cc300010cc978,51,2022-02-12_13h53.01.359,lexical_decision_task_DD_L6,2021.2.3,Win32,60.3646022,,,,,,,,,,,,0.6253,1,,,,,,,,,,,,,,m,1,0.6253,,,,,,,,-0.885225647,0.5,0,0,0,,0,91,91,82,1,PEBBLE,C,m,m,./images/PEBBLE.png,,,,,,,,,,,,,,,,,,,,,,,,,,,,,,,,,,
,,,,,,,,,,,,,,,,,5bad0eecf91cc300010cc978,51,2022-02-12_13h53.01.359,lexical_decision_task_DD_L6,2021.2.3,Win32,60.3646022,,,,,,,,,,,,0.5581,1,,,,,,,,,,,,,,z,1,0.5581,,,,,,,,-0.885225647,0.5,0,0,0,,0,92,92,98,1,BAMPS,LB,z,z,./images/BAMPSLB.png,,,,,,,,,,,,,,,,,,,,,,,,,,,,,,,,,,
,,,,,,,,,,,,,,,,,5bad0eecf91cc300010cc978,51,2022-02-12_13h53.01.359,lexical_decision_task_DD_L6,2021.2.3,Win32,60.3646022,,,,,,,,,,,,0.5518,1,,,,,,,,,,,,,,m,1,0.5518,,,,,,,,-0.885225647,0.5,0,0,0,,0,93,93,21,1,DANCER,LB,m,m,./images/DANCERLB.png,,,,,,,,,,,,,,,,,,,,,,,,,,,,,,,,,,
,,,,,,,,,,,,,,,,,5bad0eecf91cc300010cc978,51,2022-02-12_13h53.01.359,lexical_decision_task_DD_L6,2021.2.3,Win32,60.3646022,,,,,,,,,,,,0.5049,1,,,,,,,,,,,,,,z,1,0.5049,,,,,,,,-0.885225647,0.5,0,0,0,,0,94,94,167,1,ZONET,LB,z,z,./images/ZONETLB.png,,,,,,,,,,,,,,,,,,,,,,,,,,,,,,,,,,
,,,,,,,,,,,,,,,,,5bad0eecf91cc300010cc978,51,2022-02-12_13h53.01.359,lexical_decision_task_DD_L6,2021.2.3,Win32,60.3646022,,,,,,,,,,,,0.6114,1,,,,,,,,,,,,,,z,1,0.6114,,,,,,,,-0.885225647,0.5,0,0,0,,0,95,95,106,1,CLUMS,HB,z,z,./images/CLUMSHB.png,,,,,,,,,,,,,,,,,,,,,,,,,,,,,,,,,,
,,,,,,,,,,,,,,,,,5bad0eecf91cc300010cc978,51,2022-02-12_13h53.01.359,lexical_decision_task_DD_L6,2021.2.3,Win32,60.3646022,,,,,,,,,,,,0.5176,1,,,,,,,,,,,,,,z,1,0.5176,,,,,,,,-0.885225647,0.5,0,0,0,,0,96,96,161,1,BLAPS,LB,z,z,./images/BLAPSLB.png,,,,,,,,,,,,,,,,,,,,,,,,,,,,,,,,,,
,,,,,,,,,,,,,,,,,5bad0eecf91cc300010cc978,51,2022-02-12_13h53.01.359,lexical_decision_task_DD_L6,2021.2.3,Win32,60.3646022,,,,,,,,,,,,0.562,1,,,,,,,,,,,,,,m,1,0.562,,,,,,,,-0.885225647,0.5,0,0,0,,0,97,97,59,1,BRUSH,HB,m,m,./images/BRUSHHB.png,,,,,,,,,,,,,,,,,,,,,,,,,,,,,,,,,,
,,,,,,,,,,,,,,,,,5bad0eecf91cc300010cc978,51,2022-02-12_13h53.01.359,lexical_decision_task_DD_L6,2021.2.3,Win32,60.3646022,,,,,,,,,,,,0.618,1,,,,,,,,,,,,,,z,1,0.618,,,,,,,,-0.885225647,0.5,0,0,0,,0,98,98,109,1,BURGE,HB,z,z,./images/BURGEHB.png,,,,,,,,,,,,,,,,,,,,,,,,,,,,,,,,,,
,,,,,,,,,,,,,,,,,5bad0eecf91cc300010cc978,51,2022-02-12_13h53.01.359,lexical_decision_task_DD_L6,2021.2.3,Win32,60.3646022,,,,,,,,,,,,0.6457,1,,,,,,,,,,,,,,m,1,0.6457,,,,,,,,-0.885225647,0.5,0,0,0,,0,99,99,57,1,FERRY,LB,m,m,./images/FERRYLB.png,,,,,,,,,,,,,,,,,,,,,,,,,,,,,,,,,,
,,,,,,,,,,,,,,,,,5bad0eecf91cc300010cc978,51,2022-02-12_13h53.01.359,lexical_decision_task_DD_L6,2021.2.3,Win32,60.3646022,,,,,,,,,,,,0.4384,1,,,,,,,,,,,,,,z,1,0.4384,,,,,,,,-0.885225647,0.5,0,0,0,,0,100,100,108,1,GRUET,C,z,z,./images/GRUET.png,,,,,,,,,,,,,,,,,,,,,,,,,,,,,,,,,,
,,,,,,,,,,,,,,,,,5bad0eecf91cc300010cc978,51,2022-02-12_13h53.01.359,lexical_decision_task_DD_L6,2021.2.3,Win32,60.3646022,,,,,,,,,,,,0.6795,1,,,,,,,,,,,,,,m,1,0.6795,,,,,,,,-0.885225647,0.5,0,0,0,,0,101,101,77,1,WHEEL,HB,m,m,./images/WHEELHB.png,,,,,,,,,,,,,,,,,,,,,,,,,,,,,,,,,,
,,,,,,,,,,,,,,,,,5bad0eecf91cc300010cc978,51,2022-02-12_13h53.01.359,lexical_decision_task_DD_L6,2021.2.3,Win32,60.3646022,,,,,,,,,,,,0.6593,1,,,,,,,,,,,,,,z,1,0.6593,,,,,,,,-0.885225647,0.5,0,0,0,,0,102,102,151,1,TINKY,HB,z,z,./images/TINKYHB.png,,,,,,,,,,,,,,,,,,,,,,,,,,,,,,,,,,
,,,,,,,,,,,,,,,,,5bad0eecf91cc300010cc978,51,2022-02-12_13h53.01.359,lexical_decision_task_DD_L6,2021.2.3,Win32,60.3646022,,,,,,,,,,,,0.6257,1,,,,,,,,,,,,,,z,1,0.6257,,,,,,,,-0.885225647,0.5,0,0,0,,0,103,103,139,1,BLEAR,HB,z,z,./images/BLEARHB.png,,,,,,,,,,,,,,,,,,,,,,,,,,,,,,,,,,
,,,,,,,,,,,,,,,,,5bad0eecf91cc300010cc978,51,2022-02-12_13h53.01.359,lexical_decision_task_DD_L6,2021.2.3,Win32,60.3646022,,,,,,,,,,,,0.8879,1,,,,,,,,,,,,,,z,1,0.8879,,,,,,,,-0.885225647,0.5,0,0,0,,0,104,104,136,1,WERVE,HB,z,z,./images/WERVEHB.png,,,,,,,,,,,,,,,,,,,,,,,,,,,,,,,,,,
,,,,,,,,,,,,,,,,,5bad0eecf91cc300010cc978,51,2022-02-12_13h53.01.359,lexical_decision_task_DD_L6,2021.2.3,Win32,60.3646022,,,,,,,,,,,,0.5139,1,,,,,,,,,,,,,,m,1,0.5139,,,,,,,,-0.885225647,0.5,0,0,0,,0,105,105,48,1,SHIELD,LB,m,m,./images/SHIELDLB.png,,,,,,,,,,,,,,,,,,,,,,,,,,,,,,,,,,
,,,,,,,,,,,,,,,,,5bad0eecf91cc300010cc978,51,2022-02-12_13h53.01.359,lexical_decision_task_DD_L6,2021.2.3,Win32,60.3646022,,,,,,,,,,,,0.6538,1,,,,,,,,,,,,,,m,1,0.6538,,,,,,,,-0.885225647,0.5,0,0,0,,0,106,106,24,1,FLESH,LB,m,m,./images/FLESHLB.png,,,,,,,,,,,,,,,,,,,,,,,,,,,,,,,,,,
,,,,,,,,,,,,,,,,,5bad0eecf91cc300010cc978,51,2022-02-12_13h53.01.359,lexical_decision_task_DD_L6,2021.2.3,Win32,60.3646022,,,,,,,,,,,,0.5446,1,,,,,,,,,,,,,,z,1,0.5446,,,,,,,,-0.885225647,0.5,0,0,0,,0,107,107,155,1,CANGY,LB,z,z,./images/CANGYLB.png,,,,,,,,,,,,,,,,,,,,,,,,,,,,,,,,,,
,,,,,,,,,,,,,,,,,5bad0eecf91cc300010cc978,51,2022-02-12_13h53.01.359,lexical_decision_task_DD_L6,2021.2.3,Win32,60.3646022,,,,,,,,,,,,0.5509,0,,,,,,,,,,,,,,m,0,0.5509,,,,,,,,-0.885225647,0.5,0,0,0,,0,108,108,133,1,POWDY,HB,z,z,./images/POWDYHB.png,,,,,,,,,,,,,,,,,,,,,,,,,,,,,,,,,,
,,,,,,,,,,,,,,,,,5bad0eecf91cc300010cc978,51,2022-02-12_13h53.01.359,lexical_decision_task_DD_L6,2021.2.3,Win32,60.3646022,,,,,,,,,,,,0.5002,1,,,,,,,,,,,,,,m,1,0.5002,,,,,,,,-0.885225647,0.5,0,0,0,,0,109,109,27,1,BUTTER,LB,m,m,./images/BUTTERLB.png,,,,,,,,,,,,,,,,,,,,,,,,,,,,,,,,,,
,,,,,,,,,,,,,,,,,5bad0eecf91cc300010cc978,51,2022-02-12_13h53.01.359,lexical_decision_task_DD_L6,2021.2.3,Win32,60.3646022,,,,,,,,,,,,0.7765,1,,,,,,,,,,,,,,m,1,0.7765,,,,,,,,-0.885225647,0.5,0,0,0,,0,110,110,23,1,CLOTH,HB,m,m,./images/CLOTHHB.png,,,,,,,,,,,,,,,,,,,,,,,,,,,,,,,,,,
,,,,,,,,,,,,,,,,,5bad0eecf91cc300010cc978,51,2022-02-12_13h53.01.359,lexical_decision_task_DD_L6,2021.2.3,Win32,60.3646022,,,,,,,,,,,,0.4869,0,,,,,,,,,,,,,,z,0,0.4869,,,,,,,,-0.885225647,0.5,0,0,0,,0,111,111,31,1,STEAK,C,m,m,./images/STEAK.png,,,,,,,,,,,,,,,,,,,,,,,,,,,,,,,,,,
,,,,,,,,,,,,,,,,,5bad0eecf91cc300010cc978,51,2022-02-12_13h53.01.359,lexical_decision_task_DD_L6,2021.2.3,Win32,60.3646022,,,,,,,,,,,,0.621,0,,,,,,,,,,,,,,z,0,0.621,,,,,,,,-0.885225647,0.5,0,0,0,,0,112,112,50,1,PILOT,HB,m,m,./images/PILOTHB.png,,,,,,,,,,,,,,,,,,,,,,,,,,,,,,,,,,
,,,,,,,,,,,,,,,,,5bad0eecf91cc300010cc978,51,2022-02-12_13h53.01.359,lexical_decision_task_DD_L6,2021.2.3,Win32,60.3646022,,,,,,,,,,,,0.6351,1,,,,,,,,,,,,,,z,1,0.6351,,,,,,,,-0.885225647,0.5,0,0,0,,0,113,113,148,1,JOMS,HB,z,z,./images/JOMSHB.png,,,,,,,,,,,,,,,,,,,,,,,,,,,,,,,,,,
,,,,,,,,,,,,,,,,,5bad0eecf91cc300010cc978,51,2022-02-12_13h53.01.359,lexical_decision_task_DD_L6,2021.2.3,Win32,60.3646022,,,,,,,,,,,,0.477,1,,,,,,,,,,,,,,m,1,0.477,,,,,,,,-0.885225647,0.5,0,0,0,,0,114,114,45,1,MONKEY,LB,m,m,./images/MONKEYLB.png,,,,,,,,,,,,,,,,,,,,,,,,,,,,,,,,,,
,,,,,,,,,,,,,,,,,5bad0eecf91cc300010cc978,51,2022-02-12_13h53.01.359,lexical_decision_task_DD_L6,2021.2.3,Win32,60.3646022,,,,,,,,,,,,0.5021,1,,,,,,,,,,,,,,m,1,0.5021,,,,,,,,-0.885225647,0.5,0,0,0,,0,115,115,0,1,WALNUT,LB,m,m,./images/WALNUTLB.png,,,,,,,,,,,,,,,,,,,,,,,,,,,,,,,,,,
,,,,,,,,,,,,,,,,,5bad0eecf91cc300010cc978,51,2022-02-12_13h53.01.359,lexical_decision_task_DD_L6,2021.2.3,Win32,60.3646022,,,,,,,,,,,,0.7109,0,,,,,,,,,,,,,,z,0,0.7109,,,,,,,,-0.885225647,0.5,0,0,0,,0,116,116,20,1,GRANNY,HB,m,m,./images/GRANNYHB.png,,,,,,,,,,,,,,,,,,,,,,,,,,,,,,,,,,
,,,,,,,,,,,,,,,,,5bad0eecf91cc300010cc978,51,2022-02-12_13h53.01.359,lexical_decision_task_DD_L6,2021.2.3,Win32,60.3646022,,,,,,,,,,,,0.5591,1,,,,,,,,,,,,,,m,1,0.5591,,,,,,,,-0.885225647,0.5,0,0,0,,0,117,117,66,1,STATUE,LB,m,m,./images/STATUELB.png,,,,,,,,,,,,,,,,,,,,,,,,,,,,,,,,,,
,,,,,,,,,,,,,,,,,5bad0eecf91cc300010cc978,51,2022-02-12_13h53.01.359,lexical_decision_task_DD_L6,2021.2.3,Win32,60.3646022,,,,,,,,,,,,0.5958,1,,,,,,,,,,,,,,m,1,0.5958,,,,,,,,-0.885225647,0.5,0,0,0,,0,118,118,49,1,BISHOP,C,m,m,./images/BISHOP.png,,,,,,,,,,,,,,,,,,,,,,,,,,,,,,,,,,
,,,,,,,,,,,,,,,,,5bad0eecf91cc300010cc978,51,2022-02-12_13h53.01.359,lexical_decision_task_DD_L6,2021.2.3,Win32,60.3646022,,,,,,,,,,,,0.6995,1,,,,,,,,,,,,,,m,1,0.6995,,,,,,,,-0.885225647,0.5,0,0,0,,0,119,119,8,1,CLIFF,HB,m,m,./images/CLIFFHB.png,,,,,,,,,,,,,,,,,,,,,,,,,,,,,,,,,,
,,,,,,,,,,,,,,,,,5bad0eecf91cc300010cc978,51,2022-02-12_13h53.01.359,lexical_decision_task_DD_L6,2021.2.3,Win32,60.3646022,,,,,,,,,,,,0.5066,1,,,,,,,,,,,,,,m,1,0.5066,,,,,,,,-0.885225647,0.5,0,0,0,,0,120,120,25,1,CHALK,C,m,m,./images/CHALK.png,,,,,,,,,,,,,,,,,,,,,,,,,,,,,,,,,,
,,,,,,,,,,,,,,,,,5bad0eecf91cc300010cc978,51,2022-02-12_13h53.01.359,lexical_decision_task_DD_L6,2021.2.3,Win32,60.3646022,,,,,,,,,,,,0.6061,1,,,,,,,,,,,,,,z,1,0.6061,,,,,,,,-0.885225647,0.5,0,0,0,,0,121,121,94,1,BLANS,HB,z,z,./images/BLANSHB.png,,,,,,,,,,,,,,,,,,,,,,,,,,,,,,,,,,
,,,,,,,,,,,,,,,,,5bad0eecf91cc300010cc978,51,2022-02-12_13h53.01.359,lexical_decision_task_DD_L6,2021.2.3,Win32,60.3646022,,,,,,,,,,,,0.7934,1,,,,,,,,,,,,,,m,1,0.7934,,,,,,,,-0.885225647,0.5,0,0,0,,0,122,122,26,1,CLOUD,HB,m,m,./images/CLOUDHB.png,,,,,,,,,,,,,,,,,,,,,,,,,,,,,,,,,,
,,,,,,,,,,,,,,,,,5bad0eecf91cc300010cc978,51,2022-02-12_13h53.01.359,lexical_decision_task_DD_L6,2021.2.3,Win32,60.3646022,,,,,,,,,,,,1.0098,1,,,,,,,,,,,,,,z,1,1.0098,,,,,,,,-0.885225647,0.5,0,0,0,,0,123,123,127,1,NINDY,HB,z,z,./images/NINDYHB.png,,,,,,,,,,,,,,,,,,,,,,,,,,,,,,,,,,
,,,,,,,,,,,,,,,,,5bad0eecf91cc300010cc978,51,2022-02-12_13h53.01.359,lexical_decision_task_DD_L6,2021.2.3,Win32,60.3646022,,,,,,,,,,,,0.5321,1,,,,,,,,,,,,,,m,1,0.5321,,,,,,,,-0.885225647,0.5,0,0,0,,0,124,124,75,1,HAMMER,LB,m,m,./images/HAMMERLB.png,,,,,,,,,,,,,,,,,,,,,,,,,,,,,,,,,,
,,,,,,,,,,,,,,,,,5bad0eecf91cc300010cc978,51,2022-02-12_13h53.01.359,lexical_decision_task_DD_L6,2021.2.3,Win32,60.3646022,,,,,,,,,,,,0.6559,1,,,,,,,,,,,,,,z,1,0.6559,,,,,,,,-0.863116141,0.5,0,0,0,space,0,125,125,100,1,DRIBS,HB,z,z,./images/DRIBSHB.png,3.4354,,,,,,,,,,,,,,,,,,,,,,,,,,,,,,,,,
,,,,,,,,,,,,,,,,,5bad0eecf91cc300010cc978,51,2022-02-12_13h53.01.359,lexical_decision_task_DD_L6,2021.2.3,Win32,60.3646022,,,,,,,,,,,,0.6019,1,,,,,,,,,,,,,,z,1,0.6019,,,,,,,,-0.863116141,0.5,0,0,0,,0,126,126,120,1,RINED,C,z,z,./images/RINED.png,,,,,,,,,,,,,,,,,,,,,,,,,,,,,,,,,,
,,,,,,,,,,,,,,,,,5bad0eecf91cc300010cc978,51,2022-02-12_13h53.01.359,lexical_decision_task_DD_L6,2021.2.3,Win32,60.3646022,,,,,,,,,,,,0.6287,1,,,,,,,,,,,,,,m,1,0.6287,,,,,,,,-0.863116141,0.5,0,0,0,,0,127,127,29,1,PISTOL,HB,m,m,./images/PISTOLHB.png,,,,,,,,,,,,,,,,,,,,,,,,,,,,,,,,,,
,,,,,,,,,,,,,,,,,5bad0eecf91cc300010cc978,51,2022-02-12_13h53.01.359,lexical_decision_task_DD_L6,2021.2.3,Win32,60.3646022,,,,,,,,,,,,0.6043,1,,,,,,,,,,,,,,z,1,0.6043,,,,,,,,-0.863116141,0.5,0,0,0,,0,128,128,93,1,SMONE,C,z,z,./images/SMONE.png,,,,,,,,,,,,,,,,,,,,,,,,,,,,,,,,,,
,,,,,,,,,,,,,,,,,5bad0eecf91cc300010cc978,51,2022-02-12_13h53.01.359,lexical_decision_task_DD_L6,2021.2.3,Win32,60.3646022,,,,,,,,,,,,0.6547,1,,,,,,,,,,,,,,z,1,0.6547,,,,,,,,-0.863116141,0.5,0,0,0,,0,129,129,140,1,DOVET,LB,z,z,./images/DOVETLB.png,,,,,,,,,,,,,,,,,,,,,,,,,,,,,,,,,,
,,,,,,,,,,,,,,,,,5bad0eecf91cc300010cc978,51,2022-02-12_13h53.01.359,lexical_decision_task_DD_L6,2021.2.3,Win32,60.3646022,,,,,,,,,,,,0.4839,1,,,,,,,,,,,,,,z,1,0.4839,,,,,,,,-0.863116141,0.5,0,0,0,,0,130,130,104,1,GITTY,LB,z,z,./images/GITTYLB.png,,,,,,,,,,,,,,,,,,,,,,,,,,,,,,,,,,
,,,,,,,,,,,,,,,,,5bad0eecf91cc300010cc978,51,2022-02-12_13h53.01.359,lexical_decision_task_DD_L6,2021.2.3,Win32,60.3646022,,,,,,,,,,,,0.5626,1,,,,,,,,,,,,,,m,1,0.5626,,,,,,,,-0.863116141,0.5,0,0,0,,0,131,131,67,1,POKER,C,m,m,./images/POKER.png,,,,,,,,,,,,,,,,,,,,,,,,,,,,,,,,,,
,,,,,,,,,,,,,,,,,5bad0eecf91cc300010cc978,51,2022-02-12_13h53.01.359,lexical_decision_task_DD_L6,2021.2.3,Win32,60.3646022,,,,,,,,,,,,0.7456,0,,,,,,,,,,,,,,z,0,0.7456,,,,,,,,-0.863116141,0.5,0,0,0,,0,132,132,53,1,POSTER,HB,m,m,./images/POSTERHB.png,,,,,,,,,,,,,,,,,,,,,,,,,,,,,,,,,,
,,,,,,,,,,,,,,,,,5bad0eecf91cc300010cc978,51,2022-02-12_13h53.01.359,lexical_decision_task_DD_L6,2021.2.3,Win32,60.3646022,,,,,,,,,,,,0.6693,1,,,,,,,,,,,,,,z,1,0.6693,,,,,,,,-0.863116141,0.5,0,0,0,,0,133,133,95,1,HANTY,LB,z,z,./images/HANTYLB.png,,,,,,,,,,,,,,,,,,,,,,,,,,,,,,,,,,
,,,,,,,,,,,,,,,,,5bad0eecf91cc300010cc978,51,2022-02-12_13h53.01.359,lexical_decision_task_DD_L6,2021.2.3,Win32,60.3646022,,,,,,,,,,,,0.7948,1,,,,,,,,,,,,,,m,1,0.7948,,,,,,,,-0.863116141,0.5,0,0,0,,0,134,134,65,1,SPINE,HB,m,m,./images/SPINEHB.png,,,,,,,,,,,,,,,,,,,,,,,,,,,,,,,,,,
,,,,,,,,,,,,,,,,,5bad0eecf91cc300010cc978,51,2022-02-12_13h53.01.359,lexical_decision_task_DD_L6,2021.2.3,Win32,60.3646022,,,,,,,,,,,,0.5371,1,,,,,,,,,,,,,,m,1,0.5371,,,,,,,,-0.863116141,0.5,0,0,0,,0,135,135,15,1,COLLAR,LB,m,m,./images/COLLARLB.png,,,,,,,,,,,,,,,,,,,,,,,,,,,,,,,,,,
,,,,,,,,,,,,,,,,,5bad0eecf91cc300010cc978,51,2022-02-12_13h53.01.359,lexical_decision_task_DD_L6,2021.2.3,Win32,60.3646022,,,,,,,,,,,,0.7191,1,,,,,,,,,,,,,,m,1,0.7191,,,,,,,,-0.863116141,0.5,0,0,0,,0,136,136,14,1,FENCE,HB,m,m,./images/FENCEHB.png,,,,,,,,,,,,,,,,,,,,,,,,,,,,,,,,,,
,,,,,,,,,,,,,,,,,5bad0eecf91cc300010cc978,51,2022-02-12_13h53.01.359,lexical_decision_task_DD_L6,2021.2.3,Win32,60.3646022,,,,,,,,,,,,0.5772,1,,,,,,,,,,,,,,m,1,0.5772,,,,,,,,-0.863116141,0.5,0,0,0,,0,137,137,36,1,BOILER,LB,m,m,./images/BOILERLB.png,,,,,,,,,,,,,,,,,,,,,,,,,,,,,,,,,,
,,,,,,,,,,,,,,,,,5bad0eecf91cc300010cc978,51,2022-02-12_13h53.01.359,lexical_decision_task_DD_L6,2021.2.3,Win32,60.3646022,,,,,,,,,,,,0.4439,1,,,,,,,,,,,,,,m,1,0.4439,,,,,,,,-0.863116141,0.5,0,0,0,,0,138,138,42,1,CHAIN,LB,m,m,./images/CHAINLB.png,,,,,,,,,,,,,,,,,,,,,,,,,,,,,,,,,,
,,,,,,,,,,,,,,,,,5bad0eecf91cc300010cc978,51,2022-02-12_13h53.01.359,lexical_decision_task_DD_L6,2021.2.3,Win32,60.3646022,,,,,,,,,,,,0.767,1,,,,,,,,,,,,,,z,1,0.767,,,,,,,,-0.863116141,0.5,0,0,0,,0,139,139,112,1,MYING,HB,z,z,./images/MYINGHB.png,,,,,,,,,,,,,,,,,,,,,,,,,,,,,,,,,,
,,,,,,,,,,,,,,,,,5bad0eecf91cc300010cc978,51,2022-02-12_13h53.01.359,lexical_decision_task_DD_L6,2021.2.3,Win32,60.3646022,,,,,,,,,,,,0.5486,1,,,,,,,,,,,,,,z,1,0.5486,,,,,,,,-0.863116141,0.5,0,0,0,,0,140,140,150,1,NOOLS,C,z,z,./images/NOOLS.png,,,,,,,,,,,,,,,,,,,,,,,,,,,,,,,,,,
,,,,,,,,,,,,,,,,,5bad0eecf91cc300010cc978,51,2022-02-12_13h53.01.359,lexical_decision_task_DD_L6,2021.2.3,Win32,60.3646022,,,,,,,,,,,,0.4679,1,,,,,,,,,,,,,,z,1,0.4679,,,,,,,,-0.863116141,0.5,0,0,0,,0,141,141,146,1,MOOST,LB,z,z,./images/MOOSTLB.png,,,,,,,,,,,,,,,,,,,,,,,,,,,,,,,,,,
,,,,,,,,,,,,,,,,,5bad0eecf91cc300010cc978,51,2022-02-12_13h53.01.359,lexical_decision_task_DD_L6,2021.2.3,Win32,60.3646022,,,,,,,,,,,,0.5406,1,,,,,,,,,,,,,,m,1,0.5406,,,,,,,,-0.863116141,0.5,0,0,0,,0,142,142,64,1,BRIDE,C,m,m,./images/BRIDE.png,,,,,,,,,,,,,,,,,,,,,,,,,,,,,,,,,,
,,,,,,,,,,,,,,,,,5bad0eecf91cc300010cc978,51,2022-02-12_13h53.01.359,lexical_decision_task_DD_L6,2021.2.3,Win32,60.3646022,,,,,,,,,,,,0.5236,1,,,,,,,,,,,,,,z,1,0.5236,,,,,,,,-0.863116141,0.5,0,0,0,,0,143,143,147,1,ZOLES,C,z,z,./images/ZOLES.png,,,,,,,,,,,,,,,,,,,,,,,,,,,,,,,,,,
,,,,,,,,,,,,,,,,,5bad0eecf91cc300010cc978,51,2022-02-12_13h53.01.359,lexical_decision_task_DD_L6,2021.2.3,Win32,60.3646022,,,,,,,,,,,,0.6865,1,,,,,,,,,,,,,,z,1,0.6865,,,,,,,,-0.863116141,0.5,0,0,0,,0,144,144,163,1,GAMBA,HB,z,z,./images/GAMBAHB.png,,,,,,,,,,,,,,,,,,,,,,,,,,,,,,,,,,
,,,,,,,,,,,,,,,,,5bad0eecf91cc300010cc978,51,2022-02-12_13h53.01.359,lexical_decision_task_DD_L6,2021.2.3,Win32,60.3646022,,,,,,,,,,,,0.4988,0,,,,,,,,,,,,,,m,0,0.4988,,,,,,,,-0.863116141,0.5,0,0,0,,0,145,145,165,1,TROWN,C,z,z,./images/TROWN.png,,,,,,,,,,,,,,,,,,,,,,,,,,,,,,,,,,
,,,,,,,,,,,,,,,,,5bad0eecf91cc300010cc978,51,2022-02-12_13h53.01.359,lexical_decision_task_DD_L6,2021.2.3,Win32,60.3646022,,,,,,,,,,,,0.6601,1,,,,,,,,,,,,,,z,1,0.6601,,,,,,,,-0.863116141,0.5,0,0,0,,0,146,146,107,1,FASKS,LB,z,z,./images/FASKSLB.png,,,,,,,,,,,,,,,,,,,,,,,,,,,,,,,,,,
,,,,,,,,,,,,,,,,,5bad0eecf91cc300010cc978,51,2022-02-12_13h53.01.359,lexical_decision_task_DD_L6,2021.2.3,Win32,60.3646022,,,,,,,,,,,,0.6831,1,,,,,,,,,,,,,,z,1,0.6831,,,,,,,,-0.863116141,0.5,0,0,0,,0,147,147,130,1,CRILL,HB,z,z,./images/CRILLHB.png,,,,,,,,,,,,,,,,,,,,,,,,,,,,,,,,,,
,,,,,,,,,,,,,,,,,5bad0eecf91cc300010cc978,51,2022-02-12_13h53.01.359,lexical_decision_task_DD_L6,2021.2.3,Win32,60.3646022,,,,,,,,,,,,0.5271,1,,,,,,,,,,,,,,z,1,0.5271,,,,,,,,-0.863116141,0.5,0,0,0,,0,148,148,132,1,SCIFF,C,z,z,./images/SCIFF.png,,,,,,,,,,,,,,,,,,,,,,,,,,,,,,,,,,
,,,,,,,,,,,,,,,,,5bad0eecf91cc300010cc978,51,2022-02-12_13h53.01.359,lexical_decision_task_DD_L6,2021.2.3,Win32,60.3646022,,,,,,,,,,,,0.5328,1,,,,,,,,,,,,,,m,1,0.5328,,,,,,,,-0.863116141,0.5,0,0,0,,0,149,149,34,1,RAZOR,C,m,m,./images/RAZOR.png,,,,,,,,,,,,,,,,,,,,,,,,,,,,,,,,,,
,,,,,,,,,,,,,,,,,5bad0eecf91cc300010cc978,51,2022-02-12_13h53.01.359,lexical_decision_task_DD_L6,2021.2.3,Win32,60.3646022,,,,,,,,,,,,1.1504,1,,,,,,,,,,,,,,z,1,1.1504,,,,,,,,-0.863116141,0.5,0,0,0,,0,150,150,154,1,THINT,HB,z,z,./images/THINTHB.png,,,,,,,,,,,,,,,,,,,,,,,,,,,,,,,,,,
,,,,,,,,,,,,,,,,,5bad0eecf91cc300010cc978,51,2022-02-12_13h53.01.359,lexical_decision_task_DD_L6,2021.2.3,Win32,60.3646022,,,,,,,,,,,,0.6112,1,,,,,,,,,,,,,,z,1,0.6112,,,,,,,,-0.863116141,0.5,0,0,0,,0,151,151,145,1,LAMEL,HB,z,z,./images/LAMELHB.png,,,,,,,,,,,,,,,,,,,,,,,,,,,,,,,,,,
,,,,,,,,,,,,,,,,,5bad0eecf91cc300010cc978,51,2022-02-12_13h53.01.359,lexical_decision_task_DD_L6,2021.2.3,Win32,60.3646022,,,,,,,,,,,,0.8958,1,,,,,,,,,,,,,,z,1,0.8958,,,,,,,,-0.863116141,0.5,0,0,0,,0,152,152,157,1,INLER,HB,z,z,./images/INLERHB.png,,,,,,,,,,,,,,,,,,,,,,,,,,,,,,,,,,
,,,,,,,,,,,,,,,,,5bad0eecf91cc300010cc978,51,2022-02-12_13h53.01.359,lexical_decision_task_DD_L6,2021.2.3,Win32,60.3646022,,,,,,,,,,,,0.4392,1,,,,,,,,,,,,,,m,1,0.4392,,,,,,,,-0.863116141,0.5,0,0,0,,0,153,153,1,1,TOWEL,C,m,m,./images/TOWEL.png,,,,,,,,,,,,,,,,,,,,,,,,,,,,,,,,,,
,,,,,,,,,,,,,,,,,5bad0eecf91cc300010cc978,51,2022-02-12_13h53.01.359,lexical_decision_task_DD_L6,2021.2.3,Win32,60.3646022,,,,,,,,,,,,0.6806,1,,,,,,,,,,,,,,m,1,0.6806,,,,,,,,-0.863116141,0.5,0,0,0,,0,154,154,17,1,PARADE,HB,m,m,./images/PARADEHB.png,,,,,,,,,,,,,,,,,,,,,,,,,,,,,,,,,,
,,,,,,,,,,,,,,,,,5bad0eecf91cc300010cc978,51,2022-02-12_13h53.01.359,lexical_decision_task_DD_L6,2021.2.3,Win32,60.3646022,,,,,,,,,,,,0.5043,1,,,,,,,,,,,,,,m,1,0.5043,,,,,,,,-0.863116141,0.5,0,0,0,,0,155,155,52,1,DESERT,C,m,m,./images/DESERT.png,,,,,,,,,,,,,,,,,,,,,,,,,,,,,,,,,,
,,,,,,,,,,,,,,,,,5bad0eecf91cc300010cc978,51,2022-02-12_13h53.01.359,lexical_decision_task_DD_L6,2021.2.3,Win32,60.3646022,,,,,,,,,,,,0.5001,1,,,,,,,,,,,,,,z,1,0.5001,,,,,,,,-0.863116141,0.5,0,0,0,,0,156,156,89,1,DRIEK,LB,z,z,./images/DRIEKLB.png,,,,,,,,,,,,,,,,,,,,,,,,,,,,,,,,,,
,,,,,,,,,,,,,,,,,5bad0eecf91cc300010cc978,51,2022-02-12_13h53.01.359,lexical_decision_task_DD_L6,2021.2.3,Win32,60.3646022,,,,,,,,,,,,0.893,0,,,,,,,,,,,,,,z,0,0.893,,,,,,,,-0.863116141,0.5,0,0,0,,0,157,157,32,1,HOCKEY,HB,m,m,./images/HOCKEYHB.png,,,,,,,,,,,,,,,,,,,,,,,,,,,,,,,,,,
,,,,,,,,,,,,,,,,,5bad0eecf91cc300010cc978,51,2022-02-12_13h53.01.359,lexical_decision_task_DD_L6,2021.2.3,Win32,60.3646022,,,,,,,,,,,,0.5773,1,,,,,,,,,,,,,,z,1,0.5773,,,,,,,,-0.863116141,0.5,0,0,0,,0,158,158,116,1,BALGY,LB,z,z,./images/BALGYLB.png,,,,,,,,,,,,,,,,,,,,,,,,,,,,,,,,,,
,,,,,,,,,,,,,,,,,5bad0eecf91cc300010cc978,51,2022-02-12_13h53.01.359,lexical_decision_task_DD_L6,2021.2.3,Win32,60.3646022,,,,,,,,,,,,0.5116,1,,,,,,,,,,,,,,z,1,0.5116,,,,,,,,-0.863116141,0.5,0,0,0,,0,159,159,122,1,BLOOT,LB,z,z,./images/BLOOTLB.png,,,,,,,,,,,,,,,,,,,,,,,,,,,,,,,,,,
,,,,,,,,,,,,,,,,,5bad0eecf91cc300010cc978,51,2022-02-12_13h53.01.359,lexical_decision_task_DD_L6,2021.2.3,Win32,60.3646022,,,,,,,,,,,,0.463,1,,,,,,,,,,,,,,m,1,0.463,,,,,,,,-0.863116141,0.5,0,0,0,,0,160,160,43,1,STOOL,C,m,m,./images/STOOL.png,,,,,,,,,,,,,,,,,,,,,,,,,,,,,,,,,,
,,,,,,,,,,,,,,,,,5bad0eecf91cc300010cc978,51,2022-02-12_13h53.01.359,lexical_decision_task_DD_L6,2021.2.3,Win32,60.3646022,,,,,,,,,,,,0.7028,1,,,,,,,,,,,,,,z,1,0.7028,,,,,,,,-0.863116141,0.5,0,0,0,,0,161,161,115,1,MAWNS,HB,z,z,./images/MAWNSHB.png,,,,,,,,,,,,,,,,,,,,,,,,,,,,,,,,,,
,,,,,,,,,,,,,,,,,5bad0eecf91cc300010cc978,51,2022-02-12_13h53.01.359,lexical_decision_task_DD_L6,2021.2.3,Win32,60.3646022,,,,,,,,,,,,0.4654,0,,,,,,,,,,,,,,z,0,0.4654,,,,,,,,-0.863116141,0.5,0,0,0,,0,162,162,4,1,BOXER,C,m,m,./images/BOXER.png,,,,,,,,,,,,,,,,,,,,,,,,,,,,,,,,,,
,,,,,,,,,,,,,,,,,5bad0eecf91cc300010cc978,51,2022-02-12_13h53.01.359,lexical_decision_task_DD_L6,2021.2.3,Win32,60.3646022,,,,,,,,,,,,0.6011,0,,,,,,,,,,,,,,z,0,0.6011,,,,,,,,-0.863116141,0.5,0,0,0,,0,163,163,12,1,BLOKE,LB,m,m,./images/BLOKELB.png,,,,,,,,,,,,,,,,,,,,,,,,,,,,,,,,,,
,,,,,,,,,,,,,,,,,5bad0eecf91cc300010cc978,51,2022-02-12_13h53.01.359,lexical_decision_task_DD_L6,2021.2.3,Win32,60.3646022,,,,,,,,,,,,0.6354,1,,,,,,,,,,,,,,m,1,0.6354,,,,,,,,-0.863116141,0.5,0,0,0,,0,164,164,2,1,STOVE,HB,m,m,./images/STOVEHB.png,,,,,,,,,,,,,,,,,,,,,,,,,,,,,,,,,,
,,,,,,,,,,,,,,,,,5bad0eecf91cc300010cc978,51,2022-02-12_13h53.01.359,lexical_decision_task_DD_L6,2021.2.3,Win32,60.3646022,,,,,,,,,,,,0.5637,1,,,,,,,,,,,,,,z,1,0.5637,-0.863116141,0.5,1,0,0,0.5498,,-0.863116141,0.5,1,0,0,,0,165,165,149,1,VEASE,LB,z,z,./images/VEASELB.png,,,,,,,,,,,,,,,,,,,,,,,,,,,,,,,,,,
,,,,,,,,,,,,,,,,,5bad0eecf91cc300010cc978,51,2022-02-12_13h53.01.359,lexical_decision_task_DD_L6,2021.2.3,Win32,60.3646022,,,,,,,,,,,,0.5332,1,,,,,,,,,,,,,,m,1,0.5332,,,,,,,,-0.863116141,0.5,0,0,0,,0,166,166,63,1,BAKER,LB,m,m,./images/BAKERLB.png,,,,,,,,,,,,,,,,,,,,,,,,,,,,,,,,,,
,,,,,,,,,,,,,,,,,5bad0eecf91cc300010cc978,51,2022-02-12_13h53.01.359,lexical_decision_task_DD_L6,2021.2.3,Win32,60.3646022,,,,,,,,,,,,0.8511,1,,,,,,,,,,,,,,z,1,0.8511,,,,,,,,-0.863116141,0.5,0,0,0,,0,167,167,124,1,TUNCH,HB,z,z,./images/TUNCHHB.png,,,,,,,,,,,,,,,,,,,,,,,,,,,,,,,,,,
,,,,,,,,,,,,,,,,,5bad0eecf91cc300010cc978,51,2022-02-12_13h53.01.359,lexical_decision_task_DD_L6,2021.2.3,Win32,60.3646022,,,,,,,,,,,,,,,,,,,,,,,,,,,,,,,,,,,,,,,,,,,,,,,,,How likely will it be that you will recognize the words presented slighly blurred on a scale of 0 (not likely) to 100 (most likely)?,,,,,0.006957881,-0.429899824,1,0,0,jol_adv,4,22.474,0,0,0,1,1,,,,,,,,,,,,,,,,,,,,
,,,,,,,,,,,,,,,,,5bad0eecf91cc300010cc978,51,2022-02-12_13h53.01.359,lexical_decision_task_DD_L6,2021.2.3,Win32,60.3646022,,,,,,,,,,,,,,,,,,,,,,,,,,,,,,,,,,,,,,,,,,,,,,,,,How likely will it be that you will recognize the words presented clearly on a scale of 0 (not likely) to 100 (most likely)?,,,,,,,,,,,5,3.8395,0,1,1,0,1,,,,,,,,,,,,,,,,,,,,
,,,,,,,,,,,,,,,,,5bad0eecf91cc300010cc978,51,2022-02-12_13h53.01.359,lexical_decision_task_DD_L6,2021.2.3,Win32,60.3646022,,,,,,,,,,,,,,,,,,,,,,,,,,,,,,,,,,,,,,,,,,,,,,,,,How likely will it be that you will recognize the words presented very blurred on a scale of 0 (not likely) to 100 (most likely)?,,,,,,,,,,,5,1.484,0,2,2,2,1,,,,,,,,,,,,,,,,,,,,
space,0.272272035,-0.243919859,0,0,0,,,,,,,1,test,"In the next phase you will be presented with the words from the the first phase. Your job is to decide whether you remember seeing the word or not. If you remember seeing the word press ""old"" or type ""m"". If you do not remember seeing the word press ""new"" or type ""z"". Please press the space bar or click on continue to begin. ",,,5bad0eecf91cc300010cc978,51,2022-02-12_13h53.01.359,lexical_decision_task_DD_L6,2021.2.3,Win32,60.3646022,96.3883,,,,,,,,,,,,,,,,,,,,,,,,,,,,,,,,,,,,,,,,,,,,,,,,,,,,,,,,,,,,,,,,,,0,0,0,0,1,,,,,,,,,,,,,,,
,0.057679768,-0.393484007,1,0,0,instr_done_button,,,,,,1,test,"In the next phase you will be presented with the words from the the first phase. Your job is to decide whether you remember seeing the word or not. If you remember seeing the word press ""old"" or type ""m"". If you do not remember seeing the word press ""new"" or type ""z"". Please press the space bar or click on continue to begin. ",,,5bad0eecf91cc300010cc978,51,2022-02-12_13h53.01.359,lexical_decision_task_DD_L6,2021.2.3,Win32,60.3646022,,,,,,,,,,,,,,,,,,,,,,,,,,,,,,,,,,,,,,,,,,,,,,,,,,,,,,,,,,,,,,,,,,,1,0,1,0,1,,,,,,,,,,,,,,,
space,0.057679768,-0.393484007,0,0,0,,,,,,,1,test,"In the next phase you will be presented with the words from the the first phase. Your job is to decide whether you remember seeing the word or not. If you remember seeing the word press ""old"" or type ""m"". If you do not remember seeing the word press ""new"" or type ""z"". Please press the space bar or click on continue to begin. ",,,5bad0eecf91cc300010cc978,51,2022-02-12_13h53.01.359,lexical_decision_task_DD_L6,2021.2.3,Win32,60.3646022,3.0343,,,,,,,,,,,,,,,,,,,,,,,,,,,,,,,,,,,,,,,,,,,,,,,,,,,,,,,,,,,,,,,,,,2,0,2,0,1,,,,,,,,,,,,,,,
space,-0.029457698,-0.383079693,0,0,0,,,,,,,1,test,"In the next phase you will be presented with the words from the the first phase. Your job is to decide whether you remember seeing the word or not. If you remember seeing the word press ""old"" or type ""m"". If you do not remember seeing the word press ""new"" or type ""z"". Please press the space bar or click on continue to begin. ",,,5bad0eecf91cc300010cc978,51,2022-02-12_13h53.01.359,lexical_decision_task_DD_L6,2021.2.3,Win32,60.3646022,3.6692,,,,,,,,,,,,,,,,,,,,,,,,,,,,,,,,,,,,,,,,,,,,,,,,,,,,,,,,,,,,,,,,,,3,0,3,0,1,,,,,,,,,,,,,,,
,-0.016452106,-0.383079693,1,0,0,instr_done_button,,,,,,1,test,"In the next phase you will be presented with the words from the the first phase. Your job is to decide whether you remember seeing the word or not. If you remember seeing the word press ""old"" or type ""m"". If you do not remember seeing the word press ""new"" or type ""z"". Please press the space bar or click on continue to begin. ",,,5bad0eecf91cc300010cc978,51,2022-02-12_13h53.01.359,lexical_decision_task_DD_L6,2021.2.3,Win32,60.3646022,,,,,,,,,,,,,,,,,,,,,,,,,,,,,,,,,,,,,,,,,,,,,,,,,,,,,,,,,,,,,,,,,,,4,0,4,0,1,,,,,,,,,,,,,,,
,,,,,,,,,,,,,,,,,5bad0eecf91cc300010cc978,51,2022-02-12_13h53.01.359,lexical_decision_task_DD_L6,2021.2.3,Win32,60.3646022,,,,,,,,,,,,0.8218,1,,,,,,,,,,,,,,,,,,,,,,,,-0.100988453,-0.344062917,0,0,0,,,,,,,SAILOR,C,z,y,./images/SAILOR.png,,,,,,,,,,,,,,,,,,,,z,1,0.8218,,,,,,,,0,0,0,151,1
,,,,,,,,,,,,,,,,,5bad0eecf91cc300010cc978,51,2022-02-12_13h53.01.359,lexical_decision_task_DD_L6,2021.2.3,Win32,60.3646022,,,,,,,,,,,,0.8919,1,,,,,,,,,,,,,,,,,,,,,,,,-0.100988453,-0.344062917,0,0,0,,,,,,,CLOWN,C,m,y,./images/CLOWN.png,,,,,,,,,,,,,,,,,,,,m,1,0.8919,,,,,,,,0,1,1,22,1
,,,,,,,,,,,,,,,,,5bad0eecf91cc300010cc978,51,2022-02-12_13h53.01.359,lexical_decision_task_DD_L6,2021.2.3,Win32,60.3646022,,,,,,,,,,,,0.6167,1,,,,,,,,,,,,,,,,,,,,,,,,-0.100988453,-0.344062917,0,0,0,,,,,,,CASINO,C,m,y,./images/CASINO.png,,,,,,,,,,,,,,,,,,,,m,1,0.6167,,,,,,,,0,2,2,28,1
,,,,,,,,,,,,,,,,,5bad0eecf91cc300010cc978,51,2022-02-12_13h53.01.359,lexical_decision_task_DD_L6,2021.2.3,Win32,60.3646022,,,,,,,,,,,,0.5405,0,,,,,,,,,,,,,,,,,,,,,,,,-0.100988453,-0.344062917,0,0,0,,,,,,,PAINT,C,z,y,./images/PAINT.png,,,,,,,,,,,,,,,,,,,,m,0,0.5405,,,,,,,,0,3,3,91,1
,,,,,,,,,,,,,,,,,5bad0eecf91cc300010cc978,51,2022-02-12_13h53.01.359,lexical_decision_task_DD_L6,2021.2.3,Win32,60.3646022,,,,,,,,,,,,0.5503,1,,,,,,,,,,,,,,,,,,,,,,,,-0.100988453,-0.344062917,0,0,0,,,,,,,ARTIST,C,m,y,./images/ARTIST.png,,,,,,,,,,,,,,,,,,,,m,1,0.5503,,,,,,,,0,4,4,61,1
,,,,,,,,,,,,,,,,,5bad0eecf91cc300010cc978,51,2022-02-12_13h53.01.359,lexical_decision_task_DD_L6,2021.2.3,Win32,60.3646022,,,,,,,,,,,,0.8951,1,,,,,,,,,,,,,,,,,,,,,,,,-0.100988453,-0.344062917,0,0,0,,,,,,,MIRROR,LB,z,y,./images/MIRRORLB.png,,,,,,,,,,,,,,,,,,,,z,1,0.8951,,,,,,,,0,5,5,147,1
,,,,,,,,,,,,,,,,,5bad0eecf91cc300010cc978,51,2022-02-12_13h53.01.359,lexical_decision_task_DD_L6,2021.2.3,Win32,60.3646022,,,,,,,,,,,,0.8616,1,,,,,,,,,,,,,,,,,,,,,,,,-0.100988453,-0.344062917,0,0,0,,,,,,,BANNER,C,z,y,./images/BANNER.png,,,,,,,,,,,,,,,,,,,,z,1,0.8616,,,,,,,,0,6,6,136,1
,,,,,,,,,,,,,,,,,5bad0eecf91cc300010cc978,51,2022-02-12_13h53.01.359,lexical_decision_task_DD_L6,2021.2.3,Win32,60.3646022,,,,,,,,,,,,0.8832,1,,,,,,,,,,,,,,,,,,,,,,,,-0.100988453,-0.344062917,0,0,0,,,,,,,FOLDER,LB,z,y,./images/FOLDERLB.png,,,,,,,,,,,,,,,,,,,,z,1,0.8832,,,,,,,,0,7,7,126,1
,,,,,,,,,,,,,,,,,5bad0eecf91cc300010cc978,51,2022-02-12_13h53.01.359,lexical_decision_task_DD_L6,2021.2.3,Win32,60.3646022,,,,,,,,,,,,0.9233,0,,,,,,,,,,,,,,,,,,,,,,,,-0.100988453,-0.344062917,0,0,0,,,,,,,CARPET,HB,z,y,./images/CARPETHB.png,,,,,,,,,,,,,,,,,,,,m,0,0.9233,,,,,,,,0,8,8,137,1
,,,,,,,,,,,,,,,,,5bad0eecf91cc300010cc978,51,2022-02-12_13h53.01.359,lexical_decision_task_DD_L6,2021.2.3,Win32,60.3646022,,,,,,,,,,,,0.567,1,,,,,,,,,,,,,,,,,,,,,,,,-0.100988453,-0.344062917,0,0,0,,,,,,,HAMMER,LB,m,y,./images/HAMMERLB.png,,,,,,,,,,,,,,,,,,,,m,1,0.567,,,,,,,,0,9,9,75,1
,,,,,,,,,,,,,,,,,5bad0eecf91cc300010cc978,51,2022-02-12_13h53.01.359,lexical_decision_task_DD_L6,2021.2.3,Win32,60.3646022,,,,,,,,,,,,0.8538,1,,,,,,,,,,,,,,,,,,,,,,,,-0.100988453,-0.344062917,0,0,0,,,,,,,BONNET,HB,z,y,./images/BONNETHB.png,,,,,,,,,,,,,,,,,,,,z,1,0.8538,,,,,,,,0,10,10,95,1
,,,,,,,,,,,,,,,,,5bad0eecf91cc300010cc978,51,2022-02-12_13h53.01.359,lexical_decision_task_DD_L6,2021.2.3,Win32,60.3646022,,,,,,,,,,,,0.8374,1,,,,,,,,,,,,,,,,,,,,,,,,-0.100988453,-0.344062917,0,0,0,,,,,,,WALNUT,LB,m,y,./images/WALNUTLB.png,,,,,,,,,,,,,,,,,,,,m,1,0.8374,,,,,,,,0,11,11,0,1
,,,,,,,,,,,,,,,,,5bad0eecf91cc300010cc978,51,2022-02-12_13h53.01.359,lexical_decision_task_DD_L6,2021.2.3,Win32,60.3646022,,,,,,,,,,,,0.9056,1,,,,,,,,,,,,,,,,,,,,,,,,-0.100988453,-0.344062917,0,0,0,,,,,,,DANCER,LB,m,y,./images/DANCERLB.png,,,,,,,,,,,,,,,,,,,,m,1,0.9056,,,,,,,,0,12,12,21,1
,,,,,,,,,,,,,,,,,5bad0eecf91cc300010cc978,51,2022-02-12_13h53.01.359,lexical_decision_task_DD_L6,2021.2.3,Win32,60.3646022,,,,,,,,,,,,0.6167,1,,,,,,,,,,,,,,,,,,,,,,,,-0.100988453,-0.344062917,0,0,0,,,,,,,MONKEY,LB,m,y,./images/MONKEYLB.png,,,,,,,,,,,,,,,,,,,,m,1,0.6167,,,,,,,,0,13,13,45,1
,,,,,,,,,,,,,,,,,5bad0eecf91cc300010cc978,51,2022-02-12_13h53.01.359,lexical_decision_task_DD_L6,2021.2.3,Win32,60.3646022,,,,,,,,,,,,0.5802,1,,,,,,,,,,,,,,,,,,,,,,,,-0.100988453,-0.344062917,0,0,0,,,,,,,THROAT,LB,z,y,./images/THROATLB.png,,,,,,,,,,,,,,,,,,,,z,1,0.5802,,,,,,,,0,14,14,120,1
,,,,,,,,,,,,,,,,,5bad0eecf91cc300010cc978,51,2022-02-12_13h53.01.359,lexical_decision_task_DD_L6,2021.2.3,Win32,60.3646022,,,,,,,,,,,,0.7222,1,,,,,,,,,,,,,,,,,,,,,,,,-0.100988453,-0.344062917,0,0,0,,,,,,,COLLAR,LB,m,y,./images/COLLARLB.png,,,,,,,,,,,,,,,,,,,,m,1,0.7222,,,,,,,,0,15,15,15,1
,,,,,,,,,,,,,,,,,5bad0eecf91cc300010cc978,51,2022-02-12_13h53.01.359,lexical_decision_task_DD_L6,2021.2.3,Win32,60.3646022,,,,,,,,,,,,0.7,0,,,,,,,,,,,,,,,,,,,,,,,,-0.100988453,-0.344062917,0,0,0,,,,,,,WALRUS,HB,z,y,./images/WALRUSHB.png,,,,,,,,,,,,,,,,,,,,m,0,0.7,,,,,,,,0,16,16,107,1
,,,,,,,,,,,,,,,,,5bad0eecf91cc300010cc978,51,2022-02-12_13h53.01.359,lexical_decision_task_DD_L6,2021.2.3,Win32,60.3646022,,,,,,,,,,,,0.9222,0,,,,,,,,,,,,,,,,,,,,,,,,-0.100988453,-0.344062917,0,0,0,,,,,,,MOTOR,C,z,y,./images/MOTOR.png,,,,,,,,,,,,,,,,,,,,m,0,0.9222,,,,,,,,0,17,17,97,1
,,,,,,,,,,,,,,,,,5bad0eecf91cc300010cc978,51,2022-02-12_13h53.01.359,lexical_decision_task_DD_L6,2021.2.3,Win32,60.3646022,,,,,,,,,,,,0.7837,0,,,,,,,,,,,,,,,,,,,,,,,,-0.100988453,-0.344062917,0,0,0,,,,,,,SWEAT,LB,z,y,./images/SWEATLB.png,,,,,,,,,,,,,,,,,,,,m,0,0.7837,,,,,,,,0,18,18,150,1
,,,,,,,,,,,,,,,,,5bad0eecf91cc300010cc978,51,2022-02-12_13h53.01.359,lexical_decision_task_DD_L6,2021.2.3,Win32,60.3646022,,,,,,,,,,,,0.9502,1,,,,,,,,,,,,,,,,,,,,,,,,-0.100988453,-0.344062917,0,0,0,,,,,,,TOWEL,C,m,y,./images/TOWEL.png,,,,,,,,,,,,,,,,,,,,m,1,0.9502,,,,,,,,0,19,19,1,1
,,,,,,,,,,,,,,,,,5bad0eecf91cc300010cc978,51,2022-02-12_13h53.01.359,lexical_decision_task_DD_L6,2021.2.3,Win32,60.3646022,,,,,,,,,,,,0.5868,0,,,,,,,,,,,,,,,,,,,,,,,,-0.100988453,-0.344062917,0,0,0,,,,,,,SLOPE,LB,m,y,./images/SLOPELB.png,,,,,,,,,,,,,,,,,,,,z,0,0.5868,,,,,,,,0,20,20,30,1
,,,,,,,,,,,,,,,,,5bad0eecf91cc300010cc978,51,2022-02-12_13h53.01.359,lexical_decision_task_DD_L6,2021.2.3,Win32,60.3646022,,,,,,,,,,,,0.6172,1,,,,,,,,,,,,,,,,,,,,,,,,-0.100988453,-0.344062917,0,0,0,,,,,,,URINE,C,z,y,./images/URINE.png,,,,,,,,,,,,,,,,,,,,z,1,0.6172,,,,,,,,0,21,21,154,1
,,,,,,,,,,,,,,,,,5bad0eecf91cc300010cc978,51,2022-02-12_13h53.01.359,lexical_decision_task_DD_L6,2021.2.3,Win32,60.3646022,,,,,,,,,,,,0.5731,1,,,,,,,,,,,,,,,,,,,,,,,,-0.100988453,-0.344062917,0,0,0,,,,,,,BUBBLE,HB,m,y,./images/BUBBLEHB.png,,,,,,,,,,,,,,,,,,,,m,1,0.5731,,,,,,,,0,22,22,71,1
,,,,,,,,,,,,,,,,,5bad0eecf91cc300010cc978,51,2022-02-12_13h53.01.359,lexical_decision_task_DD_L6,2021.2.3,Win32,60.3646022,,,,,,,,,,,,0.7034,1,,,,,,,,,,,,,,,,,,,,,,,,-0.100988453,-0.344062917,0,0,0,,,,,,,PEARL,C,z,y,./images/PEARL.png,,,,,,,,,,,,,,,,,,,,z,1,0.7034,,,,,,,,0,23,23,130,1
,,,,,,,,,,,,,,,,,5bad0eecf91cc300010cc978,51,2022-02-12_13h53.01.359,lexical_decision_task_DD_L6,2021.2.3,Win32,60.3646022,,,,,,,,,,,,0.6834,1,,,,,,,,,,,,,,,,,,,,,,,,-0.100988453,-0.344062917,0,0,0,,,,,,,SAUCE,LB,m,y,./images/SAUCELB.png,,,,,,,,,,,,,,,,,,,,m,1,0.6834,,,,,,,,0,24,24,51,1
,,,,,,,,,,,,,,,,,5bad0eecf91cc300010cc978,51,2022-02-12_13h53.01.359,lexical_decision_task_DD_L6,2021.2.3,Win32,60.3646022,,,,,,,,,,,,0.5732,1,,,,,,,,,,,,,,,,,,,,,,,,-0.100988453,-0.344062917,0,0,0,,,,,,,PARADE,HB,m,y,./images/PARADEHB.png,,,,,,,,,,,,,,,,,,,,m,1,0.5732,,,,,,,,0,25,25,17,1
,,,,,,,,,,,,,,,,,5bad0eecf91cc300010cc978,51,2022-02-12_13h53.01.359,lexical_decision_task_DD_L6,2021.2.3,Win32,60.3646022,,,,,,,,,,,,0.567,1,,,,,,,,,,,,,,,,,,,,,,,,-0.100988453,-0.344062917,0,0,0,,,,,,,CLOTH,HB,m,y,./images/CLOTHHB.png,,,,,,,,,,,,,,,,,,,,m,1,0.567,,,,,,,,0,26,26,23,1
,,,,,,,,,,,,,,,,,5bad0eecf91cc300010cc978,51,2022-02-12_13h53.01.359,lexical_decision_task_DD_L6,2021.2.3,Win32,60.3646022,,,,,,,,,,,,0.5689,1,,,,,,,,,,,,,,,,,,,,,,,,-0.100988453,-0.344062917,0,0,0,,,,,,,LITTER,LB,z,y,./images/LITTERLB.png,,,,,,,,,,,,,,,,,,,,z,1,0.5689,,,,,,,,0,27,27,162,1
,,,,,,,,,,,,,,,,,5bad0eecf91cc300010cc978,51,2022-02-12_13h53.01.359,lexical_decision_task_DD_L6,2021.2.3,Win32,60.3646022,,,,,,,,,,,,0.6585,1,,,,,,,,,,,,,,,,,,,,,,,,-0.100988453,-0.344062917,0,0,0,,,,,,,BOXER,C,m,y,./images/BOXER.png,,,,,,,,,,,,,,,,,,,,m,1,0.6585,,,,,,,,0,28,28,4,1
,,,,,,,,,,,,,,,,,5bad0eecf91cc300010cc978,51,2022-02-12_13h53.01.359,lexical_decision_task_DD_L6,2021.2.3,Win32,60.3646022,,,,,,,,,,,,0.6337,0,,,,,,,,,,,,,,,,,,,,,,,,-0.100988453,-0.344062917,0,0,0,,,,,,,LLAMA,HB,m,y,./images/LLAMAHB.png,,,,,,,,,,,,,,,,,,,,z,0,0.6337,,,,,,,,0,29,29,35,1
,,,,,,,,,,,,,,,,,5bad0eecf91cc300010cc978,51,2022-02-12_13h53.01.359,lexical_decision_task_DD_L6,2021.2.3,Win32,60.3646022,,,,,,,,,,,,0.6547,1,,,,,,,,,,,,,,,,,,,,,,,,-0.100988453,-0.344062917,0,0,0,,,,,,,CRUMB,HB,z,y,./images/CRUMBHB.png,,,,,,,,,,,,,,,,,,,,z,1,0.6547,,,,,,,,0,30,30,113,1
,,,,,,,,,,,,,,,,,5bad0eecf91cc300010cc978,51,2022-02-12_13h53.01.359,lexical_decision_task_DD_L6,2021.2.3,Win32,60.3646022,,,,,,,,,,,,0.8839,0,,,,,,,,,,,,,,,,,,,,,,,,-0.100988453,-0.344062917,0,0,0,,,,,,,GRAPE,C,m,y,./images/GRAPE.png,,,,,,,,,,,,,,,,,,,,z,0,0.8839,,,,,,,,0,31,31,16,1
,,,,,,,,,,,,,,,,,5bad0eecf91cc300010cc978,51,2022-02-12_13h53.01.359,lexical_decision_task_DD_L6,2021.2.3,Win32,60.3646022,,,,,,,,,,,,0.8542,1,,,,,,,,,,,,,,,,,,,,,,,,-0.100988453,-0.344062917,0,0,0,,,,,,,PEACH,HB,z,y,./images/PEACHHB.png,,,,,,,,,,,,,,,,,,,,z,1,0.8542,,,,,,,,0,32,32,119,1
,,,,,,,,,,,,,,,,,5bad0eecf91cc300010cc978,51,2022-02-12_13h53.01.359,lexical_decision_task_DD_L6,2021.2.3,Win32,60.3646022,,,,,,,,,,,,0.7636,1,,,,,,,,,,,,,,,,,,,,,,,,-0.100988453,-0.344062917,0,0,0,,,,,,,DOUGH,C,z,y,./images/DOUGH.png,,,,,,,,,,,,,,,,,,,,z,1,0.7636,,,,,,,,0,33,33,103,1
,,,,,,,,,,,,,,,,,5bad0eecf91cc300010cc978,51,2022-02-12_13h53.01.359,lexical_decision_task_DD_L6,2021.2.3,Win32,60.3646022,,,,,,,,,,,,0.627,0,,,,,,,,,,,,,,,,,,,,,,,,-0.100988453,-0.344062917,0,0,0,,,,,,,SWING,C,z,y,./images/SWING.png,,,,,,,,,,,,,,,,,,,,m,0,0.627,,,,,,,,0,34,34,124,1
,,,,,,,,,,,,,,,,,5bad0eecf91cc300010cc978,51,2022-02-12_13h53.01.359,lexical_decision_task_DD_L6,2021.2.3,Win32,60.3646022,,,,,,,,,,,,0.9961,1,,,,,,,,,,,,,,,,,,,,,,,,-0.100988453,-0.344062917,0,0,0,,,,,,,CANDY,LB,m,y,./images/CANDYLB.png,,,,,,,,,,,,,,,,,,,,m,1,0.9961,,,,,,,,0,35,35,39,1
,,,,,,,,,,,,,,,,,5bad0eecf91cc300010cc978,51,2022-02-12_13h53.01.359,lexical_decision_task_DD_L6,2021.2.3,Win32,60.3646022,,,,,,,,,,,,0.6072,1,,,,,,,,,,,,,,,,,,,,,,,,-0.100988453,-0.344062917,0,0,0,,,,,,,MOSQUE,C,z,y,./images/MOSQUE.png,,,,,,,,,,,,,,,,,,,,z,1,0.6072,,,,,,,,0,36,36,127,1
,,,,,,,,,,,,,,,,,5bad0eecf91cc300010cc978,51,2022-02-12_13h53.01.359,lexical_decision_task_DD_L6,2021.2.3,Win32,60.3646022,,,,,,,,,,,,0.7028,1,,,,,,,,,,,,,,,,,,,,,,,,-0.100988453,-0.344062917,0,0,0,,,,,,,SMOKER,HB,z,y,./images/SMOKERHB.png,,,,,,,,,,,,,,,,,,,,z,1,0.7028,,,,,,,,0,37,37,110,1
,,,,,,,,,,,,,,,,,5bad0eecf91cc300010cc978,51,2022-02-12_13h53.01.359,lexical_decision_task_DD_L6,2021.2.3,Win32,60.3646022,,,,,,,,,,,,0.8336,0,,,,,,,,,,,,,,,,,,,,,,,,-0.100988453,-0.344062917,0,0,0,,,,,,,PASTA,HB,z,y,./images/PASTAHB.png,,,,,,,,,,,,,,,,,,,,m,0,0.8336,,,,,,,,0,38,38,89,1
,,,,,,,,,,,,,,,,,5bad0eecf91cc300010cc978,51,2022-02-12_13h53.01.359,lexical_decision_task_DD_L6,2021.2.3,Win32,60.3646022,,,,,,,,,,,,0.9343,1,,,,,,,,,,,,,,,,,,,,,,,,-0.100988453,-0.344062917,0,0,0,,,,,,,PILOT,HB,m,y,./images/PILOTHB.png,,,,,,,,,,,,,,,,,,,,m,1,0.9343,,,,,,,,0,39,39,50,1
,,,,,,,,,,,,,,,,,5bad0eecf91cc300010cc978,51,2022-02-12_13h53.01.359,lexical_decision_task_DD_L6,2021.2.3,Win32,60.3646022,,,,,,,,,,,,0.6169,1,,,,,,,,,,,,,,,,,,,,,,,,-0.100988453,-0.344062917,0,0,0,,,,,,,DIVER,LB,m,y,./images/DIVERLB.png,,,,,,,,,,,,,,,,,,,,m,1,0.6169,,,,,,,,0,40,40,9,1
,,,,,,,,,,,,,,,,,5bad0eecf91cc300010cc978,51,2022-02-12_13h53.01.359,lexical_decision_task_DD_L6,2021.2.3,Win32,60.3646022,,,,,,,,,,,,0.6263,1,,,,,,,,,,,,,,,,,,,,,,,,-0.100988453,-0.344062917,0,0,0,space,,,,,,SUNSET,C,z,y,./images/SUNSET.png,3.3289,,,,,,,,,,,,,,,,,,,z,1,0.6263,,,,,,,,0,41,41,166,1
,,,,,,,,,,,,,,,,,5bad0eecf91cc300010cc978,51,2022-02-12_13h53.01.359,lexical_decision_task_DD_L6,2021.2.3,Win32,60.3646022,,,,,,,,,,,,0.7571,1,,,,,,,,,,,,,,,,,,,,,,,,-0.100988453,-0.344062917,0,0,0,,,,,,,DONKEY,C,m,y,./images/DONKEY.png,,,,,,,,,,,,,,,,,,,,m,1,0.7571,,,,,,,,0,42,42,19,1
,,,,,,,,,,,,,,,,,5bad0eecf91cc300010cc978,51,2022-02-12_13h53.01.359,lexical_decision_task_DD_L6,2021.2.3,Win32,60.3646022,,,,,,,,,,,,0.663,0,,,,,,,,,,,,,,,,,,,,,,,,-0.098387335,-0.344062917,0,0,0,,,,,,,ALLEY,C,m,y,./images/ALLEY.png,,,,,,,,,,,,,,,,,,,,z,0,0.663,,,,,,,,0,43,43,55,1
,,,,,,,,,,,,,,,,,5bad0eecf91cc300010cc978,51,2022-02-12_13h53.01.359,lexical_decision_task_DD_L6,2021.2.3,Win32,60.3646022,,,,,,,,,,,,0.5463,1,,,,,,,,,,,,,,,,,,,,,,,,-0.098387335,-0.344062917,0,0,0,,,,,,,MEDAL,HB,m,y,./images/MEDALHB.png,,,,,,,,,,,,,,,,,,,,m,1,0.5463,,,,,,,,0,44,44,11,1
,,,,,,,,,,,,,,,,,5bad0eecf91cc300010cc978,51,2022-02-12_13h53.01.359,lexical_decision_task_DD_L6,2021.2.3,Win32,60.3646022,,,,,,,,,,,,0.6924,1,,,,,,,,,,,,,,,,,,,,,,,,-0.098387335,-0.344062917,0,0,0,,,,,,,COUCH,HB,z,y,./images/COUCHHB.png,,,,,,,,,,,,,,,,,,,,z,1,0.6924,,,,,,,,0,45,45,161,1
,,,,,,,,,,,,,,,,,5bad0eecf91cc300010cc978,51,2022-02-12_13h53.01.359,lexical_decision_task_DD_L6,2021.2.3,Win32,60.3646022,,,,,,,,,,,,0.9096,1,,,,,,,,,,,,,,,,,,,,,,,,-0.098387335,-0.344062917,0,0,0,,,,,,,ARROW,LB,m,y,./images/ARROWLB.png,,,,,,,,,,,,,,,,,,,,m,1,0.9096,,,,,,,,0,46,46,69,1
,,,,,,,,,,,,,,,,,5bad0eecf91cc300010cc978,51,2022-02-12_13h53.01.359,lexical_decision_task_DD_L6,2021.2.3,Win32,60.3646022,,,,,,,,,,,,0.6113,1,,,,,,,,,,,,,,,,,,,,,,,,-0.098387335,-0.344062917,0,0,0,,,,,,,WRIST,C,z,y,./images/WRIST.png,,,,,,,,,,,,,,,,,,,,z,1,0.6113,,,,,,,,0,47,47,109,1
,,,,,,,,,,,,,,,,,5bad0eecf91cc300010cc978,51,2022-02-12_13h53.01.359,lexical_decision_task_DD_L6,2021.2.3,Win32,60.3646022,,,,,,,,,,,,0.6937,0,,,,,,,,,,,,,,,,,,,,,,,,-0.098387335,-0.344062917,0,0,0,,,,,,,PLANET,HB,m,y,./images/PLANETHB.png,,,,,,,,,,,,,,,,,,,,z,0,0.6937,,,,,,,,0,48,48,80,1
,,,,,,,,,,,,,,,,,5bad0eecf91cc300010cc978,51,2022-02-12_13h53.01.359,lexical_decision_task_DD_L6,2021.2.3,Win32,60.3646022,,,,,,,,,,,,0.705,1,,,,,,,,,,,,,,,,,,,,,,,,-0.098387335,-0.344062917,0,0,0,,,,,,,FENCE,HB,m,y,./images/FENCEHB.png,,,,,,,,,,,,,,,,,,,,m,1,0.705,,,,,,,,0,49,49,14,1
,,,,,,,,,,,,,,,,,5bad0eecf91cc300010cc978,51,2022-02-12_13h53.01.359,lexical_decision_task_DD_L6,2021.2.3,Win32,60.3646022,,,,,,,,,,,,0.8603,1,,,,,,,,,,,,,,,,,,,,,,,,-0.098387335,-0.344062917,0,0,0,,,,,,,HOCKEY,HB,m,y,./images/HOCKEYHB.png,,,,,,,,,,,,,,,,,,,,m,1,0.8603,,,,,,,,0,50,50,32,1
,,,,,,,,,,,,,,,,,5bad0eecf91cc300010cc978,51,2022-02-12_13h53.01.359,lexical_decision_task_DD_L6,2021.2.3,Win32,60.3646022,,,,,,,,,,,,0.5969,1,,,,,,,,,,,,,,,,,,,,,,,,-0.098387335,-0.344062917,0,0,0,,,,,,,MOOSE,LB,z,y,./images/MOOSELB.png,,,,,,,,,,,,,,,,,,,,z,1,0.5969,,,,,,,,0,51,51,141,1
,,,,,,,,,,,,,,,,,5bad0eecf91cc300010cc978,51,2022-02-12_13h53.01.359,lexical_decision_task_DD_L6,2021.2.3,Win32,60.3646022,,,,,,,,,,,,0.602,1,,,,,,,,,,,,,,,,,,,,,,,,-0.098387335,-0.344062917,0,0,0,,,,,,,JUMPER,HB,m,y,./images/JUMPERHB.png,,,,,,,,,,,,,,,,,,,,m,1,0.602,,,,,,,,0,52,52,74,1
,,,,,,,,,,,,,,,,,5bad0eecf91cc300010cc978,51,2022-02-12_13h53.01.359,lexical_decision_task_DD_L6,2021.2.3,Win32,60.3646022,,,,,,,,,,,,0.6505,1,,,,,,,,,,,,,,,,,,,,,,,,-0.098387335,-0.344062917,0,0,0,,,,,,,SNACK,C,z,y,./images/SNACK.png,,,,,,,,,,,,,,,,,,,,z,1,0.6505,,,,,,,,0,53,53,157,1
,,,,,,,,,,,,,,,,,5bad0eecf91cc300010cc978,51,2022-02-12_13h53.01.359,lexical_decision_task_DD_L6,2021.2.3,Win32,60.3646022,,,,,,,,,,,,0.9222,1,,,,,,,,,,,,,,,,,,,,,,,,-0.098387335,-0.344062917,0,0,0,,,,,,,BERRY,HB,z,y,./images/BERRYHB.png,,,,,,,,,,,,,,,,,,,,z,1,0.9222,,,,,,,,0,54,54,131,1
,,,,,,,,,,,,,,,,,5bad0eecf91cc300010cc978,51,2022-02-12_13h53.01.359,lexical_decision_task_DD_L6,2021.2.3,Win32,60.3646022,,,,,,,,,,,,0.7833,1,,,,,,,,,,,,,,,,,,,,,,,,-0.098387335,-0.344062917,0,0,0,,,,,,,GREASE,LB,z,y,./images/GREASELB.png,,,,,,,,,,,,,,,,,,,,z,1,0.7833,,,,,,,,0,55,55,99,1
,,,,,,,,,,,,,,,,,5bad0eecf91cc300010cc978,51,2022-02-12_13h53.01.359,lexical_decision_task_DD_L6,2021.2.3,Win32,60.3646022,,,,,,,,,,,,0.634,1,,,,,,,,,,,,,,,,,,,,,,,,-0.098387335,-0.344062917,0,0,0,,,,,,,DESERT,C,m,y,./images/DESERT.png,,,,,,,,,,,,,,,,,,,,m,1,0.634,,,,,,,,0,56,56,52,1
,,,,,,,,,,,,,,,,,5bad0eecf91cc300010cc978,51,2022-02-12_13h53.01.359,lexical_decision_task_DD_L6,2021.2.3,Win32,60.3646022,,,,,,,,,,,,1.1104,1,,,,,,,,,,,,,,,,,,,,,,,,-0.098387335,-0.344062917,0,0,0,,,,,,,FARMER,HB,z,y,./images/FARMERHB.png,,,,,,,,,,,,,,,,,,,,z,1,1.1104,,,,,,,,0,57,57,149,1
,,,,,,,,,,,,,,,,,5bad0eecf91cc300010cc978,51,2022-02-12_13h53.01.359,lexical_decision_task_DD_L6,2021.2.3,Win32,60.3646022,,,,,,,,,,,,0.6728,1,,,,,,,,,,,,,,,,,,,,,,,,-0.098387335,-0.344062917,0,0,0,,,,,,,MUFFIN,C,z,y,./images/MUFFIN.png,,,,,,,,,,,,,,,,,,,,z,1,0.6728,,,,,,,,0,58,58,139,1
,,,,,,,,,,,,,,,,,5bad0eecf91cc300010cc978,51,2022-02-12_13h53.01.359,lexical_decision_task_DD_L6,2021.2.3,Win32,60.3646022,,,,,,,,,,,,0.6671,1,,,,,,,,,,,,,,,,,,,,,,,,-0.098387335,-0.344062917,0,0,0,,,,,,,BRUSH,HB,m,y,./images/BRUSHHB.png,,,,,,,,,,,,,,,,,,,,m,1,0.6671,,,,,,,,0,59,59,59,1
,,,,,,,,,,,,,,,,,5bad0eecf91cc300010cc978,51,2022-02-12_13h53.01.359,lexical_decision_task_DD_L6,2021.2.3,Win32,60.3646022,,,,,,,,,,,,0.6168,1,,,,,,,,,,,,,,,,,,,,,,,,-0.098387335,-0.344062917,0,0,0,,,,,,,SKIING,HB,z,y,./images/SKIINGHB.png,,,,,,,,,,,,,,,,,,,,z,1,0.6168,,,,,,,,0,60,60,101,1
,,,,,,,,,,,,,,,,,5bad0eecf91cc300010cc978,51,2022-02-12_13h53.01.359,lexical_decision_task_DD_L6,2021.2.3,Win32,60.3646022,,,,,,,,,,,,0.6842,0,,,,,,,,,,,,,,,,,,,,,,,,-0.098387335,-0.344062917,0,0,0,,,,,,,CRUST,C,z,y,./images/CRUST.png,,,,,,,,,,,,,,,,,,,,m,0,0.6842,,,,,,,,0,61,61,163,1
,,,,,,,,,,,,,,,,,5bad0eecf91cc300010cc978,51,2022-02-12_13h53.01.359,lexical_decision_task_DD_L6,2021.2.3,Win32,60.3646022,,,,,,,,,,,,0.6056,1,,,,,,,,,,,,,,,,,,,,,,,,-0.098387335,-0.344062917,0,0,0,,,,,,,TORCH,HB,z,y,./images/TORCHHB.png,,,,,,,,,,,,,,,,,,,,z,1,0.6056,,,,,,,,0,62,62,152,1
,,,,,,,,,,,,,,,,,5bad0eecf91cc300010cc978,51,2022-02-12_13h53.01.359,lexical_decision_task_DD_L6,2021.2.3,Win32,60.3646022,,,,,,,,,,,,0.7962,0,,,,,,,,,,,,,,,,,,,,,,,,-0.098387335,-0.344062917,0,0,0,,,,,,,SCREW,LB,z,y,./images/SCREWLB.png,,,,,,,,,,,,,,,,,,,,m,0,0.7962,,,,,,,,0,63,63,108,1
,,,,,,,,,,,,,,,,,5bad0eecf91cc300010cc978,51,2022-02-12_13h53.01.359,lexical_decision_task_DD_L6,2021.2.3,Win32,60.3646022,,,,,,,,,,,,0.5172,1,,,,,,,,,,,,,,,,,,,,,,,,-0.098387335,-0.344062917,0,0,0,,,,,,,PIMPLE,HB,z,y,./images/PIMPLEHB.png,,,,,,,,,,,,,,,,,,,,z,1,0.5172,,,,,,,,0,64,64,155,1
,,,,,,,,,,,,,,,,,5bad0eecf91cc300010cc978,51,2022-02-12_13h53.01.359,lexical_decision_task_DD_L6,2021.2.3,Win32,60.3646022,,,,,,,,,,,,0.7664,0,,,,,,,,,,,,,,,,,,,,,,,,-0.098387335,-0.344062917,0,0,0,,,,,,,BABOON,C,z,y,./images/BABOON.png,,,,,,,,,,,,,,,,,,,,m,0,0.7664,,,,,,,,0,65,65,142,1
,,,,,,,,,,,,,,,,,5bad0eecf91cc300010cc978,51,2022-02-12_13h53.01.359,lexical_decision_task_DD_L6,2021.2.3,Win32,60.3646022,,,,,,,,,,,,0.6676,1,,,,,,,,,,,,,,,,,,,,,,,,-0.098387335,-0.344062917,0,0,0,,,,,,,BURIAL,HB,z,y,./images/BURIALHB.png,,,,,,,,,,,,,,,,,,,,z,1,0.6676,,,,,,,,0,66,66,143,1
,,,,,,,,,,,,,,,,,5bad0eecf91cc300010cc978,51,2022-02-12_13h53.01.359,lexical_decision_task_DD_L6,2021.2.3,Win32,60.3646022,,,,,,,,,,,,0.5711,1,,,,,,,,,,,,,,,,,,,,,,,,-0.098387335,-0.344062917,0,0,0,,,,,,,RAZOR,C,m,y,./images/RAZOR.png,,,,,,,,,,,,,,,,,,,,m,1,0.5711,,,,,,,,0,67,67,34,1
,,,,,,,,,,,,,,,,,5bad0eecf91cc300010cc978,51,2022-02-12_13h53.01.359,lexical_decision_task_DD_L6,2021.2.3,Win32,60.3646022,,,,,,,,,,,,0.8005,1,,,,,,,,,,,,,,,,,,,,,,,,-0.098387335,-0.344062917,0,0,0,,,,,,,COOKER,LB,z,y,./images/COOKERLB.png,,,,,,,,,,,,,,,,,,,,z,1,0.8005,,,,,,,,0,68,68,153,1
,,,,,,,,,,,,,,,,,5bad0eecf91cc300010cc978,51,2022-02-12_13h53.01.359,lexical_decision_task_DD_L6,2021.2.3,Win32,60.3646022,,,,,,,,,,,,0.8745,1,,,,,,,,,,,,,,,,,,,,,,,,-0.098387335,-0.344062917,0,0,0,,,,,,,MUSCLE,C,z,y,./images/MUSCLE.png,,,,,,,,,,,,,,,,,,,,z,1,0.8745,,,,,,,,0,69,69,88,1
,,,,,,,,,,,,,,,,,5bad0eecf91cc300010cc978,51,2022-02-12_13h53.01.359,lexical_decision_task_DD_L6,2021.2.3,Win32,60.3646022,,,,,,,,,,,,0.6008,0,,,,,,,,,,,,,,,,,,,,,,,,-0.098387335,-0.344062917,0,0,0,,,,,,,PICKLE,HB,z,y,./images/PICKLEHB.png,,,,,,,,,,,,,,,,,,,,m,0,0.6008,,,,,,,,0,70,70,98,1
,,,,,,,,,,,,,,,,,5bad0eecf91cc300010cc978,51,2022-02-12_13h53.01.359,lexical_decision_task_DD_L6,2021.2.3,Win32,60.3646022,,,,,,,,,,,,0.6844,1,,,,,,,,,,,,,,,,,,,,,,,,-0.098387335,-0.344062917,0,0,0,,,,,,,QUILL,C,z,y,./images/QUILL.png,,,,,,,,,,,,,,,,,,,,z,1,0.6844,,,,,,,,0,71,71,115,1
,,,,,,,,,,,,,,,,,5bad0eecf91cc300010cc978,51,2022-02-12_13h53.01.359,lexical_decision_task_DD_L6,2021.2.3,Win32,60.3646022,,,,,,,,,,,,0.9843,0,,,,,,,,,,,,,,,,,,,,,,,,-0.098387335,-0.344062917,0,0,0,,,,,,,SPORT,LB,z,y,./images/SPORTLB.png,,,,,,,,,,,,,,,,,,,,m,0,0.9843,,,,,,,,0,72,72,132,1
,,,,,,,,,,,,,,,,,5bad0eecf91cc300010cc978,51,2022-02-12_13h53.01.359,lexical_decision_task_DD_L6,2021.2.3,Win32,60.3646022,,,,,,,,,,,,0.6174,1,,,,,,,,,,,,,,,,,,,,,,,,-0.098387335,-0.344062917,0,0,0,,,,,,,CLOUD,HB,m,y,./images/CLOUDHB.png,,,,,,,,,,,,,,,,,,,,m,1,0.6174,,,,,,,,0,73,73,26,1
,,,,,,,,,,,,,,,,,5bad0eecf91cc300010cc978,51,2022-02-12_13h53.01.359,lexical_decision_task_DD_L6,2021.2.3,Win32,60.3646022,,,,,,,,,,,,0.7279,1,,,,,,,,,,,,,,,,,,,,,,,,-0.098387335,-0.344062917,0,0,0,,,,,,,STEAK,C,m,y,./images/STEAK.png,,,,,,,,,,,,,,,,,,,,m,1,0.7279,,,,,,,,0,74,74,31,1
,,,,,,,,,,,,,,,,,5bad0eecf91cc300010cc978,51,2022-02-12_13h53.01.359,lexical_decision_task_DD_L6,2021.2.3,Win32,60.3646022,,,,,,,,,,,,0.5288,1,,,,,,,,,,,,,,,,,,,,,,,,-0.098387335,-0.344062917,0,0,0,,,,,,,BELLY,C,z,y,./images/BELLY.png,,,,,,,,,,,,,,,,,,,,z,1,0.5288,,,,,,,,0,75,75,94,1
,,,,,,,,,,,,,,,,,5bad0eecf91cc300010cc978,51,2022-02-12_13h53.01.359,lexical_decision_task_DD_L6,2021.2.3,Win32,60.3646022,,,,,,,,,,,,0.7508,0,,,,,,,,,,,,,,,,,,,,,,,,-0.098387335,-0.344062917,0,0,0,,,,,,,DRUMS,C,z,y,./images/DRUMS.png,,,,,,,,,,,,,,,,,,,,m,0,0.7508,,,,,,,,0,76,76,133,1
,,,,,,,,,,,,,,,,,5bad0eecf91cc300010cc978,51,2022-02-12_13h53.01.359,lexical_decision_task_DD_L6,2021.2.3,Win32,60.3646022,,,,,,,,,,,,0.714,1,,,,,,,,,,,,,,,,,,,,,,,,-0.098387335,-0.344062917,0,0,0,,,,,,,CHERRY,LB,m,y,./images/CHERRYLB.png,,,,,,,,,,,,,,,,,,,,m,1,0.714,,,,,,,,0,77,77,54,1
,,,,,,,,,,,,,,,,,5bad0eecf91cc300010cc978,51,2022-02-12_13h53.01.359,lexical_decision_task_DD_L6,2021.2.3,Win32,60.3646022,,,,,,,,,,,,0.8322,0,,,,,,,,,,,,,,,,,,,,,,,,-0.098387335,-0.344062917,0,0,0,,,,,,,FALCON,C,z,y,./images/FALCON.png,,,,,,,,,,,,,,,,,,,,m,0,0.8322,,,,,,,,0,78,78,112,1
,,,,,,,,,,,,,,,,,5bad0eecf91cc300010cc978,51,2022-02-12_13h53.01.359,lexical_decision_task_DD_L6,2021.2.3,Win32,60.3646022,,,,,,,,,,,,0.7006,1,,,,,,,,,,,,,,,,,,,,,,,,-0.098387335,-0.344062917,0,0,0,,,,,,,BANANA,C,m,y,./images/BANANA.png,,,,,,,,,,,,,,,,,,,,m,1,0.7006,,,,,,,,0,79,79,70,1
,,,,,,,,,,,,,,,,,5bad0eecf91cc300010cc978,51,2022-02-12_13h53.01.359,lexical_decision_task_DD_L6,2021.2.3,Win32,60.3646022,,,,,,,,,,,,0.6004,1,,,,,,,,,,,,,,,,,,,,,,,,-0.098387335,-0.344062917,0,0,0,,,,,,,BAMBOO,HB,m,y,./images/BAMBOOHB.png,,,,,,,,,,,,,,,,,,,,m,1,0.6004,,,,,,,,0,80,80,5,1
,,,,,,,,,,,,,,,,,5bad0eecf91cc300010cc978,51,2022-02-12_13h53.01.359,lexical_decision_task_DD_L6,2021.2.3,Win32,60.3646022,,,,,,,,,,,,0.6507,0,,,,,,,,,,,,,,,,,,,,,,,,-0.098387335,-0.344062917,0,0,0,,,,,,,LADDER,HB,z,y,./images/LADDERHB.png,,,,,,,,,,,,,,,,,,,,m,0,0.6507,,,,,,,,0,81,81,122,1
,,,,,,,,,,,,,,,,,5bad0eecf91cc300010cc978,51,2022-02-12_13h53.01.359,lexical_decision_task_DD_L6,2021.2.3,Win32,60.3646022,,,,,,,,,,,,0.6344,1,,,,,,,,,,,,,,,,,,,,,,,,-0.098387335,-0.344062917,0,0,0,,,,,,,POSTER,HB,m,y,./images/POSTERHB.png,,,,,,,,,,,,,,,,,,,,m,1,0.6344,,,,,,,,0,82,82,53,1
,,,,,,,,,,,,,,,,,5bad0eecf91cc300010cc978,51,2022-02-12_13h53.01.359,lexical_decision_task_DD_L6,2021.2.3,Win32,60.3646022,,,,,,,,,,,,1.1758,1,,,,,,,,,,,,,,,,,,,,,,,,-0.098387335,-0.344062917,0,0,0,space,,,,,,MAMMAL,HB,m,y,./images/MAMMALHB.png,2.75,,,,,,,,,,,,,,,,,,,m,1,1.1758,,,,,,,,0,83,83,62,1
,,,,,,,,,,,,,,,,,5bad0eecf91cc300010cc978,51,2022-02-12_13h53.01.359,lexical_decision_task_DD_L6,2021.2.3,Win32,60.3646022,,,,,,,,,,,,0.6506,1,,,,,,,,,,,,,,,,,,,,,,,,-0.207634307,-0.156782314,0,0,0,,,,,,,WHISKY,HB,m,y,./images/WHISKYHB.png,,,,,,,,,,,,,,,,,,,,m,1,0.6506,,,,,,,,0,84,84,83,1
,,,,,,,,,,,,,,,,,5bad0eecf91cc300010cc978,51,2022-02-12_13h53.01.359,lexical_decision_task_DD_L6,2021.2.3,Win32,60.3646022,,,,,,,,,,,,0.8173,0,,,,,,,,,,,,,,,,,,,,,,,,-0.218038781,-0.167186867,0,0,0,,,,,,,TOMATO,LB,z,y,./images/TOMATOLB.png,,,,,,,,,,,,,,,,,,,,m,0,0.8173,,,,,,,,0,85,85,84,1
,,,,,,,,,,,,,,,,,5bad0eecf91cc300010cc978,51,2022-02-12_13h53.01.359,lexical_decision_task_DD_L6,2021.2.3,Win32,60.3646022,,,,,,,,,,,,0.6498,1,,,,,,,,,,,,,,,,,,,,,,,,-0.218038781,-0.165886307,0,0,0,,,,,,,BUTTER,LB,m,y,./images/BUTTERLB.png,,,,,,,,,,,,,,,,,,,,m,1,0.6498,,,,,,,,0,86,86,27,1
,,,,,,,,,,,,,,,,,5bad0eecf91cc300010cc978,51,2022-02-12_13h53.01.359,lexical_decision_task_DD_L6,2021.2.3,Win32,60.3646022,,,,,,,,,,,,0.6207,1,,,,,,,,,,,,,,,,,,,,,,,,-0.218038781,-0.165886307,0,0,0,,,,,,,BARREL,HB,z,y,./images/BARRELHB.png,,,,,,,,,,,,,,,,,,,,z,1,0.6207,,,,,,,,0,87,87,116,1
,,,,,,,,,,,,,,,,,5bad0eecf91cc300010cc978,51,2022-02-12_13h53.01.359,lexical_decision_task_DD_L6,2021.2.3,Win32,60.3646022,,,,,,,,,,,,0.6018,1,,,,,,,,,,,,,,,,,,,,,,,,-0.218038781,-0.164585748,0,0,0,,,,,,,POKER,C,m,y,./images/POKER.png,,,,,,,,,,,,,,,,,,,,m,1,0.6018,,,,,,,,0,88,88,67,1
,,,,,,,,,,,,,,,,,5bad0eecf91cc300010cc978,51,2022-02-12_13h53.01.359,lexical_decision_task_DD_L6,2021.2.3,Win32,60.3646022,,,,,,,,,,,,0.6918,1,,,,,,,,,,,,,,,,,,,,,,,,-0.218038781,-0.164585748,0,0,0,,,,,,,PACKET,HB,z,y,./images/PACKETHB.png,,,,,,,,,,,,,,,,,,,,z,1,0.6918,,,,,,,,0,89,89,140,1
,,,,,,,,,,,,,,,,,5bad0eecf91cc300010cc978,51,2022-02-12_13h53.01.359,lexical_decision_task_DD_L6,2021.2.3,Win32,60.3646022,,,,,,,,,,,,0.7509,1,,,,,,,,,,,,,,,,,,,,,,,,-0.218038781,-0.164585748,0,0,0,,,,,,,POODLE,LB,z,y,./images/POODLELB.png,,,,,,,,,,,,,,,,,,,,z,1,0.7509,,,,,,,,0,90,90,165,1
,,,,,,,,,,,,,,,,,5bad0eecf91cc300010cc978,51,2022-02-12_13h53.01.359,lexical_decision_task_DD_L6,2021.2.3,Win32,60.3646022,,,,,,,,,,,,0.6347,1,,,,,,,,,,,,,,,,,,,,,,,,-0.218038781,-0.163285189,0,0,0,,,,,,,CANOE,C,m,y,./images/CANOE.png,,,,,,,,,,,,,,,,,,,,m,1,0.6347,,,,,,,,0,91,91,58,1
,,,,,,,,,,,,,,,,,5bad0eecf91cc300010cc978,51,2022-02-12_13h53.01.359,lexical_decision_task_DD_L6,2021.2.3,Win32,60.3646022,,,,,,,,,,,,0.7532,1,,,,,,,,,,,,,,,,,,,,,,,,-0.218038781,-0.163285189,0,0,0,,,,,,,BIRTH,C,z,y,./images/BIRTH.png,,,,,,,,,,,,,,,,,,,,z,1,0.7532,,,,,,,,0,92,92,121,1
,,,,,,,,,,,,,,,,,5bad0eecf91cc300010cc978,51,2022-02-12_13h53.01.359,lexical_decision_task_DD_L6,2021.2.3,Win32,60.3646022,,,,,,,,,,,,0.6009,1,,,,,,,,,,,,,,,,,,,,,,,,-0.218038781,-0.163285189,0,0,0,,,,,,,BRIDE,C,m,y,./images/BRIDE.png,,,,,,,,,,,,,,,,,,,,m,1,0.6009,,,,,,,,0,93,93,64,1
,,,,,,,,,,,,,,,,,5bad0eecf91cc300010cc978,51,2022-02-12_13h53.01.359,lexical_decision_task_DD_L6,2021.2.3,Win32,60.3646022,,,,,,,,,,,,0.7671,1,,,,,,,,,,,,,,,,,,,,,,,,-0.218038781,-0.163285189,0,0,0,,,,,,,CRATER,LB,m,y,./images/CRATERLB.png,,,,,,,,,,,,,,,,,,,,m,1,0.7671,,,,,,,,0,94,94,3,1
,,,,,,,,,,,,,,,,,5bad0eecf91cc300010cc978,51,2022-02-12_13h53.01.359,lexical_decision_task_DD_L6,2021.2.3,Win32,60.3646022,,,,,,,,,,,,0.837,0,,,,,,,,,,,,,,,,,,,,,,,,-0.218038781,-0.163285189,0,0,0,,,,,,,CANYON,C,z,y,./images/CANYON.png,,,,,,,,,,,,,,,,,,,,m,0,0.837,,,,,,,,0,95,95,118,1
,,,,,,,,,,,,,,,,,5bad0eecf91cc300010cc978,51,2022-02-12_13h53.01.359,lexical_decision_task_DD_L6,2021.2.3,Win32,60.3646022,,,,,,,,,,,,0.8227,0,,,,,,,,,,,,,,,,,,,,,,,,-0.218038781,-0.163285189,0,0,0,,,,,,,JELLY,C,z,y,./images/JELLY.png,,,,,,,,,,,,,,,,,,,,m,0,0.8227,,,,,,,,0,96,96,148,1
,,,,,,,,,,,,,,,,,5bad0eecf91cc300010cc978,51,2022-02-12_13h53.01.359,lexical_decision_task_DD_L6,2021.2.3,Win32,60.3646022,,,,,,,,,,,,0.801,1,,,,,,,,,,,,,,,,,,,,,,,,-0.218038781,-0.163285189,0,0,0,,,,,,,KIDNEY,LB,z,y,./images/KIDNEYLB.png,,,,,,,,,,,,,,,,,,,,z,1,0.801,,,,,,,,0,97,97,105,1
,,,,,,,,,,,,,,,,,5bad0eecf91cc300010cc978,51,2022-02-12_13h53.01.359,lexical_decision_task_DD_L6,2021.2.3,Win32,60.3646022,,,,,,,,,,,,0.6318,1,,,,,,,,,,,,,,,,,,,,,,,,-0.218038781,-0.163285189,0,0,0,,,,,,,STOOL,C,m,y,./images/STOOL.png,,,,,,,,,,,,,,,,,,,,m,1,0.6318,,,,,,,,0,98,98,43,1
,,,,,,,,,,,,,,,,,5bad0eecf91cc300010cc978,51,2022-02-12_13h53.01.359,lexical_decision_task_DD_L6,2021.2.3,Win32,60.3646022,,,,,,,,,,,,0.5435,1,,,,,,,,,,,,,,,,,,,,,,,,-0.218038781,-0.163285189,0,0,0,,,,,,,GLOVE,C,m,y,./images/GLOVE.png,,,,,,,,,,,,,,,,,,,,m,1,0.5435,,,,,,,,0,99,99,73,1
,,,,,,,,,,,,,,,,,5bad0eecf91cc300010cc978,51,2022-02-12_13h53.01.359,lexical_decision_task_DD_L6,2021.2.3,Win32,60.3646022,,,,,,,,,,,,0.5842,1,,,,,,,,,,,,,,,,,,,,,,,,-0.218038781,-0.163285189,0,0,0,,,,,,,MUMMY,C,m,y,./images/MUMMY.png,,,,,,,,,,,,,,,,,,,,m,1,0.5842,,,,,,,,0,100,100,46,1
,,,,,,,,,,,,,,,,,5bad0eecf91cc300010cc978,51,2022-02-12_13h53.01.359,lexical_decision_task_DD_L6,2021.2.3,Win32,60.3646022,,,,,,,,,,,,0.9758,1,,,,,,,,,,,,,,,,,,,,,,,,-0.218038781,-0.163285189,0,0,0,,,,,,,CURRY,LB,m,y,./images/CURRYLB.png,,,,,,,,,,,,,,,,,,,,m,1,0.9758,,,,,,,,0,101,101,60,1
,,,,,,,,,,,,,,,,,5bad0eecf91cc300010cc978,51,2022-02-12_13h53.01.359,lexical_decision_task_DD_L6,2021.2.3,Win32,60.3646022,,,,,,,,,,,,0.6115,1,,,,,,,,,,,,,,,,,,,,,,,,-0.218038781,-0.163285189,0,0,0,,,,,,,BAKER,LB,m,y,./images/BAKERLB.png,,,,,,,,,,,,,,,,,,,,m,1,0.6115,,,,,,,,0,102,102,63,1
,,,,,,,,,,,,,,,,,5bad0eecf91cc300010cc978,51,2022-02-12_13h53.01.359,lexical_decision_task_DD_L6,2021.2.3,Win32,60.3646022,,,,,,,,,,,,0.8498,1,,,,,,,,,,,,,,,,,,,,,,,,-0.218038781,-0.163285189,0,0,0,,,,,,,GRANNY,HB,m,y,./images/GRANNYHB.png,,,,,,,,,,,,,,,,,,,,m,1,0.8498,,,,,,,,0,103,103,20,1
,,,,,,,,,,,,,,,,,5bad0eecf91cc300010cc978,51,2022-02-12_13h53.01.359,lexical_decision_task_DD_L6,2021.2.3,Win32,60.3646022,,,,,,,,,,,,0.6793,0,,,,,,,,,,,,,,,,,,,,,,,,-0.218038781,-0.163285189,0,0,0,,,,,,,PLANK,C,z,y,./images/PLANK.png,,,,,,,,,,,,,,,,,,,,m,0,0.6793,,,,,,,,0,104,104,85,1
,,,,,,,,,,,,,,,,,5bad0eecf91cc300010cc978,51,2022-02-12_13h53.01.359,lexical_decision_task_DD_L6,2021.2.3,Win32,60.3646022,,,,,,,,,,,,0.5675,1,,,,,,,,,,,,,,,,,,,,,,,,-0.218038781,-0.163285189,0,0,0,,,,,,,HEATER,HB,m,y,./images/HEATERHB.png,,,,,,,,,,,,,,,,,,,,m,1,0.5675,,,,,,,,0,105,105,56,1
,,,,,,,,,,,,,,,,,5bad0eecf91cc300010cc978,51,2022-02-12_13h53.01.359,lexical_decision_task_DD_L6,2021.2.3,Win32,60.3646022,,,,,,,,,,,,0.6091,1,,,,,,,,,,,,,,,,,,,,,,,,-0.218038781,-0.163285189,0,0,0,,,,,,,CLIFF,HB,m,y,./images/CLIFFHB.png,,,,,,,,,,,,,,,,,,,,m,1,0.6091,,,,,,,,0,106,106,8,1
,,,,,,,,,,,,,,,,,5bad0eecf91cc300010cc978,51,2022-02-12_13h53.01.359,lexical_decision_task_DD_L6,2021.2.3,Win32,60.3646022,,,,,,,,,,,,0.8449,1,,,,,,,,,,,,,,,,,,,,,,,,-0.218038781,-0.163285189,0,0,0,,,,,,,INFANT,C,z,y,./images/INFANT.png,,,,,,,,,,,,,,,,,,,,z,1,0.8449,,,,,,,,0,107,107,160,1
,,,,,,,,,,,,,,,,,5bad0eecf91cc300010cc978,51,2022-02-12_13h53.01.359,lexical_decision_task_DD_L6,2021.2.3,Win32,60.3646022,,,,,,,,,,,,0.618,1,,,,,,,,,,,,,,,,,,,,,,,,-0.218038781,-0.163285189,0,0,0,,,,,,,BASKET,HB,m,y,./images/BASKETHB.png,,,,,,,,,,,,,,,,,,,,m,1,0.618,,,,,,,,0,108,108,44,1
,,,,,,,,,,,,,,,,,5bad0eecf91cc300010cc978,51,2022-02-12_13h53.01.359,lexical_decision_task_DD_L6,2021.2.3,Win32,60.3646022,,,,,,,,,,,,0.6842,1,,,,,,,,,,,,,,,,,,,,,,,,-0.218038781,-0.163285189,0,0,0,,,,,,,FERRY,LB,m,y,./images/FERRYLB.png,,,,,,,,,,,,,,,,,,,,m,1,0.6842,,,,,,,,0,109,109,57,1
,,,,,,,,,,,,,,,,,5bad0eecf91cc300010cc978,51,2022-02-12_13h53.01.359,lexical_decision_task_DD_L6,2021.2.3,Win32,60.3646022,,,,,,,,,,,,0.7002,1,,,,,,,,,,,,,,,,,,,,,,,,-0.218038781,-0.163285189,0,0,0,,,,,,,LAGOON,HB,m,y,./images/LAGOONHB.png,,,,,,,,,,,,,,,,,,,,m,1,0.7002,,,,,,,,0,110,110,47,1
,,,,,,,,,,,,,,,,,5bad0eecf91cc300010cc978,51,2022-02-12_13h53.01.359,lexical_decision_task_DD_L6,2021.2.3,Win32,60.3646022,,,,,,,,,,,,0.6795,1,,,,,,,,,,,,,,,,,,,,,,,,-0.218038781,-0.163285189,0,0,0,,,,,,,MIDGET,C,m,y,./images/MIDGET.png,,,,,,,,,,,,,,,,,,,,m,1,0.6795,,,,,,,,0,111,111,76,1
,,,,,,,,,,,,,,,,,5bad0eecf91cc300010cc978,51,2022-02-12_13h53.01.359,lexical_decision_task_DD_L6,2021.2.3,Win32,60.3646022,,,,,,,,,,,,0.5884,1,,,,,,,,,,,,,,,,,,,,,,,,-0.218038781,-0.163285189,0,0,0,,,,,,,CHALK,C,m,y,./images/CHALK.png,,,,,,,,,,,,,,,,,,,,m,1,0.5884,,,,,,,,0,112,112,25,1
,,,,,,,,,,,,,,,,,5bad0eecf91cc300010cc978,51,2022-02-12_13h53.01.359,lexical_decision_task_DD_L6,2021.2.3,Win32,60.3646022,,,,,,,,,,,,0.621,1,,,,,,,,,,,,,,,,,,,,,,,,-0.218038781,-0.163285189,0,0,0,,,,,,,DRILL,LB,m,y,./images/DRILLLB.png,,,,,,,,,,,,,,,,,,,,m,1,0.621,,,,,,,,0,113,113,81,1
,,,,,,,,,,,,,,,,,5bad0eecf91cc300010cc978,51,2022-02-12_13h53.01.359,lexical_decision_task_DD_L6,2021.2.3,Win32,60.3646022,,,,,,,,,,,,0.5848,1,,,,,,,,,,,,,,,,,,,,,,,,-0.218038781,-0.163285189,0,0,0,,,,,,,SPINE,HB,m,y,./images/SPINEHB.png,,,,,,,,,,,,,,,,,,,,m,1,0.5848,,,,,,,,0,114,114,65,1
,,,,,,,,,,,,,,,,,5bad0eecf91cc300010cc978,51,2022-02-12_13h53.01.359,lexical_decision_task_DD_L6,2021.2.3,Win32,60.3646022,,,,,,,,,,,,0.8175,0,,,,,,,,,,,,,,,,,,,,,,,,-0.218038781,-0.163285189,0,0,0,,,,,,,KITTEN,LB,z,y,./images/KITTENLB.png,,,,,,,,,,,,,,,,,,,,m,0,0.8175,,,,,,,,0,115,115,129,1
,,,,,,,,,,,,,,,,,5bad0eecf91cc300010cc978,51,2022-02-12_13h53.01.359,lexical_decision_task_DD_L6,2021.2.3,Win32,60.3646022,,,,,,,,,,,,0.6414,1,,,,,,,,,,,,,,,,,,,,,,,,-0.218038781,-0.163285189,0,0,0,,,,,,,BOILER,LB,m,y,./images/BOILERLB.png,,,,,,,,,,,,,,,,,,,,m,1,0.6414,,,,,,,,0,116,116,36,1
,,,,,,,,,,,,,,,,,5bad0eecf91cc300010cc978,51,2022-02-12_13h53.01.359,lexical_decision_task_DD_L6,2021.2.3,Win32,60.3646022,,,,,,,,,,,,0.6001,1,,,,,,,,,,,,,,,,,,,,,,,,-0.218038781,-0.163285189,0,0,0,,,,,,,BROOM,LB,m,y,./images/BROOMLB.png,,,,,,,,,,,,,,,,,,,,m,1,0.6001,,,,,,,,0,117,117,78,1
,,,,,,,,,,,,,,,,,5bad0eecf91cc300010cc978,51,2022-02-12_13h53.01.359,lexical_decision_task_DD_L6,2021.2.3,Win32,60.3646022,,,,,,,,,,,,0.7286,1,,,,,,,,,,,,,,,,,,,,,,,,-0.218038781,-0.163285189,0,0,0,,,,,,,MAGGOT,LB,z,y,./images/MAGGOTLB.png,,,,,,,,,,,,,,,,,,,,z,1,0.7286,,,,,,,,0,118,118,117,1
,,,,,,,,,,,,,,,,,5bad0eecf91cc300010cc978,51,2022-02-12_13h53.01.359,lexical_decision_task_DD_L6,2021.2.3,Win32,60.3646022,,,,,,,,,,,,0.8456,0,,,,,,,,,,,,,,,,,,,,,,,,-0.218038781,-0.164585748,0,0,0,,,,,,,CANDLE,C,z,y,./images/CANDLE.png,,,,,,,,,,,,,,,,,,,,m,0,0.8456,,,,,,,,0,119,119,145,1
,,,,,,,,,,,,,,,,,5bad0eecf91cc300010cc978,51,2022-02-12_13h53.01.359,lexical_decision_task_DD_L6,2021.2.3,Win32,60.3646022,,,,,,,,,,,,0.5834,1,,,,,,,,,,,,,,,,,,,,,,,,-0.218038781,-0.164585748,0,0,0,,,,,,,BUNNY,C,m,y,./images/BUNNY.png,,,,,,,,,,,,,,,,,,,,m,1,0.5834,,,,,,,,0,120,120,13,1
,,,,,,,,,,,,,,,,,5bad0eecf91cc300010cc978,51,2022-02-12_13h53.01.359,lexical_decision_task_DD_L6,2021.2.3,Win32,60.3646022,,,,,,,,,,,,0.8785,1,,,,,,,,,,,,,,,,,,,,,,,,-0.218038781,-0.164585748,0,0,0,,,,,,,ONION,LB,z,y,./images/ONIONLB.png,,,,,,,,,,,,,,,,,,,,z,1,0.8785,,,,,,,,0,121,121,135,1
,,,,,,,,,,,,,,,,,5bad0eecf91cc300010cc978,51,2022-02-12_13h53.01.359,lexical_decision_task_DD_L6,2021.2.3,Win32,60.3646022,,,,,,,,,,,,1.0839,0,,,,,,,,,,,,,,,,,,,,,,,,-0.218038781,-0.164585748,0,0,0,,,,,,,SHORE,LB,z,y,./images/SHORELB.png,,,,,,,,,,,,,,,,,,,,m,0,1.0839,,,,,,,,0,122,122,96,1
,,,,,,,,,,,,,,,,,5bad0eecf91cc300010cc978,51,2022-02-12_13h53.01.359,lexical_decision_task_DD_L6,2021.2.3,Win32,60.3646022,,,,,,,,,,,,0.7436,1,,,,,,,,,,,,,,,,,,,,,,,,-0.218038781,-0.164585748,0,0,0,,,,,,,PARCEL,LB,m,y,./images/PARCELLB.png,,,,,,,,,,,,,,,,,,,,m,1,0.7436,,,,,,,,0,123,123,18,1
,,,,,,,,,,,,,,,,,5bad0eecf91cc300010cc978,51,2022-02-12_13h53.01.359,lexical_decision_task_DD_L6,2021.2.3,Win32,60.3646022,,,,,,,,,,,,0.5677,1,,,,,,,,,,,,,,,,,,,,,,,,-0.218038781,-0.164585748,0,0,0,,,,,,,TIGER,C,m,y,./images/TIGER.png,,,,,,,,,,,,,,,,,,,,m,1,0.5677,,,,,,,,0,124,124,37,1
,,,,,,,,,,,,,,,,,5bad0eecf91cc300010cc978,51,2022-02-12_13h53.01.359,lexical_decision_task_DD_L6,2021.2.3,Win32,60.3646022,,,,,,,,,,,,0.6596,1,,,,,,,,,,,,,,,,,,,,,,,,-0.406619943,-0.208804761,0,0,0,space,,,,,,PEBBLE,C,m,y,./images/PEBBLE.png,1.2509,,,,,,,,,,,,,,,,,,,m,1,0.6596,,,,,,,,0,125,125,82,1
,,,,,,,,,,,,,,,,,5bad0eecf91cc300010cc978,51,2022-02-12_13h53.01.359,lexical_decision_task_DD_L6,2021.2.3,Win32,60.3646022,,,,,,,,,,,,1.3677,1,,,,,,,,,,,,,,,,,,,,,,,,-0.337690227,-0.134672887,0,0,0,,,,,,,CHAIN,LB,m,y,./images/CHAINLB.png,,,,,,,,,,,,,,,,,,,,m,1,1.3677,,,,,,,,0,126,126,42,1
,,,,,,,,,,,,,,,,,5bad0eecf91cc300010cc978,51,2022-02-12_13h53.01.359,lexical_decision_task_DD_L6,2021.2.3,Win32,60.3646022,,,,,,,,,,,,1.6224,0,,,,,,,,,,,,,,,,,,,,,,,,-0.337690227,-0.134672887,0,0,0,,,,,,,JUNGLE,HB,z,y,./images/JUNGLEHB.png,,,,,,,,,,,,,,,,,,,,m,0,1.6224,,,,,,,,0,127,127,167,1
,,,,,,,,,,,,,,,,,5bad0eecf91cc300010cc978,51,2022-02-12_13h53.01.359,lexical_decision_task_DD_L6,2021.2.3,Win32,60.3646022,,,,,,,,,,,,0.6251,1,,,,,,,,,,,,,,,,,,,,,,,,-0.337690227,-0.134672887,0,0,0,,,,,,,SAUNA,LB,m,y,./images/SAUNALB.png,,,,,,,,,,,,,,,,,,,,m,1,0.6251,,,,,,,,0,128,128,33,1
,,,,,,,,,,,,,,,,,5bad0eecf91cc300010cc978,51,2022-02-12_13h53.01.359,lexical_decision_task_DD_L6,2021.2.3,Win32,60.3646022,,,,,,,,,,,,0.7341,1,,,,,,,,,,,,,,,,,,,,,,,,-0.337690227,-0.134672887,0,0,0,,,,,,,RULER,C,m,y,./images/RULER.png,,,,,,,,,,,,,,,,,,,,m,1,0.7341,,,,,,,,0,129,129,79,1
,,,,,,,,,,,,,,,,,5bad0eecf91cc300010cc978,51,2022-02-12_13h53.01.359,lexical_decision_task_DD_L6,2021.2.3,Win32,60.3646022,,,,,,,,,,,,0.8023,1,,,,,,,,,,,,,,,,,,,,,,,,-0.337690227,-0.134672887,0,0,0,,,,,,,MALLET,HB,z,y,./images/MALLETHB.png,,,,,,,,,,,,,,,,,,,,z,1,0.8023,,,,,,,,0,130,130,134,1
,,,,,,,,,,,,,,,,,5bad0eecf91cc300010cc978,51,2022-02-12_13h53.01.359,lexical_decision_task_DD_L6,2021.2.3,Win32,60.3646022,,,,,,,,,,,,1.0602,1,,,,,,,,,,,,,,,,,,,,,,,,-0.337690227,-0.134672887,0,0,0,,,,,,,GRAIN,LB,z,y,./images/GRAINLB.png,,,,,,,,,,,,,,,,,,,,z,1,1.0602,,,,,,,,0,131,131,159,1
,,,,,,,,,,,,,,,,,5bad0eecf91cc300010cc978,51,2022-02-12_13h53.01.359,lexical_decision_task_DD_L6,2021.2.3,Win32,60.3646022,,,,,,,,,,,,0.8168,1,,,,,,,,,,,,,,,,,,,,,,,,-0.337690227,-0.134672887,0,0,0,,,,,,,NOOSE,LB,z,y,./images/NOOSELB.png,,,,,,,,,,,,,,,,,,,,z,1,0.8168,,,,,,,,0,132,132,156,1
,,,,,,,,,,,,,,,,,5bad0eecf91cc300010cc978,51,2022-02-12_13h53.01.359,lexical_decision_task_DD_L6,2021.2.3,Win32,60.3646022,,,,,,,,,,,,0.7426,0,,,,,,,,,,,,,,,,,,,,,,,,-0.337690227,-0.134672887,0,0,0,,,,,,,SHELF,LB,z,y,./images/SHELFLB.png,,,,,,,,,,,,,,,,,,,,m,0,0.7426,,,,,,,,0,133,133,123,1
,,,,,,,,,,,,,,,,,5bad0eecf91cc300010cc978,51,2022-02-12_13h53.01.359,lexical_decision_task_DD_L6,2021.2.3,Win32,60.3646022,,,,,,,,,,,,0.5672,1,,,,,,,,,,,,,,,,,,,,,,,,-0.337690227,-0.134672887,0,0,0,,,,,,,STOVE,HB,m,y,./images/STOVEHB.png,,,,,,,,,,,,,,,,,,,,m,1,0.5672,,,,,,,,0,134,134,2,1
,,,,,,,,,,,,,,,,,5bad0eecf91cc300010cc978,51,2022-02-12_13h53.01.359,lexical_decision_task_DD_L6,2021.2.3,Win32,60.3646022,,,,,,,,,,,,0.9289,1,,,,,,,,,,,,,,,,,,,,,,,,-0.337690227,-0.134672887,0,0,0,,,,,,,SNAKE,C,m,y,./images/SNAKE.png,,,,,,,,,,,,,,,,,,,,m,1,0.9289,,,,,,,,0,135,135,40,1
,,,,,,,,,,,,,,,,,5bad0eecf91cc300010cc978,51,2022-02-12_13h53.01.359,lexical_decision_task_DD_L6,2021.2.3,Win32,60.3646022,,,,,,,,,,,,0.7961,1,,,,,,,,,,,,,,,,,,,,,,,,-0.337690227,-0.134672887,0,0,0,,,,,,,SQUARE,LB,z,y,./images/SQUARELB.png,,,,,,,,,,,,,,,,,,,,z,1,0.7961,,,,,,,,0,136,136,90,1
,,,,,,,,,,,,,,,,,5bad0eecf91cc300010cc978,51,2022-02-12_13h53.01.359,lexical_decision_task_DD_L6,2021.2.3,Win32,60.3646022,,,,,,,,,,,,0.7246,1,,,,,,,,,,,,,,,,,,,,,,,,-0.337690227,-0.134672887,0,0,0,,,,,,,PURSE,HB,z,y,./images/PURSEHB.png,,,,,,,,,,,,,,,,,,,,z,1,0.7246,,,,,,,,0,137,137,146,1
