key_resp.keys,instr_done_touch.x,instr_done_touch.y,instr_done_touch.leftButton,instr_done_touch.midButton,instr_done_touch.rightButton,instr_done_touch.clicked_name,instruction_pages.thisRepN,instruction_pages.thisTrialN,instruction_pages.thisN,instruction_pages.thisIndex,instruction_pages.ran,pageN,phase,instruct_text,has_image,instruct_image,participant,age,date,expName,psychopyVersion,OS,frameRate,response.keys,response.corr,touch_resp.x,touch_resp.y,touch_resp.leftButton,touch_resp.midButton,touch_resp.rightButton,touch_resp.time,touch_resp.clicked_name,rt,corr,practrials.thisRepN,practrials.thisTrialN,practrials.thisN,practrials.thisIndex,practrials.ran,TrialID,Target,corrAns,end_of_practice_trials_pages.thisRepN,end_of_practice_trials_pages.thisTrialN,end_of_practice_trials_pages.thisN,end_of_practice_trials_pages.thisIndex,end_of_practice_trials_pages.ran,key_resp_2.keys,key_resp_2.corr,targ_click.x,targ_click.y,targ_click.leftButton,targ_click.midButton,targ_click.rightButton,targ_click.time,targ_click.clicked_name,break_done_touch.x,break_done_touch.y,break_done_touch.leftButton,break_done_touch.midButton,break_done_touch.rightButton,break_done_keyboard.keys,maintrials.thisRepN,maintrials.thisTrialN,maintrials.thisN,maintrials.thisIndex,maintrials.ran,string,blur,study,lex,stim_path,break_done_touch.clicked_name,mouse_2.x,mouse_2.y,mouse_2.leftButton,mouse_2.midButton,mouse_2.rightButton,mouse_2.clicked_name,slider.response,slider.rt,trials.thisRepN,trials.thisTrialN,trials.thisN,trials.thisIndex,trials.ran,test_instructions.thisRepN,test_instructions.thisTrialN,test_instructions.thisN,test_instructions.thisIndex,test_instructions.ran,key_resp_3.keys,key_resp_3.corr,test_click.x,test_click.y,test_click.leftButton,test_click.midButton,test_click.rightButton,test_click.time,test_click.clicked_name,test_phase.thisRepN,test_phase.thisTrialN,test_phase.thisN,test_phase.thisIndex,test_phase.ran
,0.13877551,-0.392857143,1,0,0,instr_done_button,0,0,0,0,1,1,instructions,"INSTRUCTIONS
At the start of each trial, look at the plus sign  (+) in the center of the screen.  This tells you that a trial is about to begin and where to look. Second, the plus sign will disappear and a string of letters will appear. Your task is to determine if the string of letters is a word or not. If the item is a word press the M key (on keyboard)  or touch the word button (phone/tablet).  If the item is not a word,  press the  Z key (on keyboard)  or touch the nonword button (on phone/tablet). 
Press the space bar or touch  continue.",0,,5c2befdb805c1d0001b47296,40,2022-02-12_14h51.18.935,lexical_decision_task_DD_L6,2021.2.3,iPhone,62.5,,,,,,,,,,,,,,,,,,,,,,,,,,,,,,,,,,,,,,,,,,,,,,,,,,,,,,,,,,,,,,,,,,,,,,,,,,,,,,,,,,
,0.083673469,-0.420408163,1,0,0,instr_done_button,0,1,1,1,1,2,instructions,"If your device has a keyboard, press the 'Z' key for nonwords and the 'M' key for words.





Press the space bar or touch the button below to continue.",0,keyboard-example.gif,5c2befdb805c1d0001b47296,40,2022-02-12_14h51.18.935,lexical_decision_task_DD_L6,2021.2.3,iPhone,62.5,,,,,,,,,,,,,,,,,,,,,,,,,,,,,,,,,,,,,,,,,,,,,,,,,,,,,,,,,,,,,,,,,,,,,,,,,,,,,,,,,,
,0.1,-0.401020408,1,0,0,instr_done_button,0,2,2,2,1,3,instructions,"If you are using a touchscreen only device, use the buttons on the screen. Do not use the mouse.





Press the space bar or touch the button below to continue.",0,touchscreen-example.gif,5c2befdb805c1d0001b47296,40,2022-02-12_14h51.18.935,lexical_decision_task_DD_L6,2021.2.3,iPhone,62.5,,,,,,,,,,,,,,,,,,,,,,,,,,,,,,,,,,,,,,,,,,,,,,,,,,,,,,,,,,,,,,,,,,,,,,,,,,,,,,,,,,
,0.11122449,-0.413265306,1,0,0,instr_done_button,0,3,3,3,1,4,instructions,"It is very important that you respond as quickly and accurately as possible, as each letter string will only be on the screen for two seconds. If you do not respond within this time, the message 'Too slow!' will be displayed and the experiment will progress to the next letter string. The first 20 trials will be practice trials and you will receive feedback on your answers. 

Press the space bar or touch the button below to start the practice trials.",0,,5c2befdb805c1d0001b47296,40,2022-02-12_14h51.18.935,lexical_decision_task_DD_L6,2021.2.3,iPhone,62.5,,,,,,,,,,,,,,,,,,,,,,,,,,,,,,,,,,,,,,,,,,,,,,,,,,,,,,,,,,,,,,,,,,,,,,,,,,,,,,,,,,
,,,,,,,,,,,,,,,,,5c2befdb805c1d0001b47296,40,2022-02-12_14h51.18.935,lexical_decision_task_DD_L6,2021.2.3,iPhone,62.5,,0,0.393877551,-0.275510204,1,0,0,1.902,button_right,1.902,1,0,0,0,3,1,1001,MATRIX,m,,,,,,,,,,,,,,,,,,,,,,,,,,,,,,,,,,,,,,,,,,,,,,,,,,,,,,,,,,,,,,,
,,,,,,,,,,,,,,,,,5c2befdb805c1d0001b47296,40,2022-02-12_14h51.18.935,lexical_decision_task_DD_L6,2021.2.3,iPhone,62.5,,0,-0.394897959,-0.325510204,1,0,0,1.238,button_left,1.238,1,0,1,1,10,1,1001,INLADE,z,,,,,,,,,,,,,,,,,,,,,,,,,,,,,,,,,,,,,,,,,,,,,,,,,,,,,,,,,,,,,,,
,,,,,,,,,,,,,,,,,5c2befdb805c1d0001b47296,40,2022-02-12_14h51.18.935,lexical_decision_task_DD_L6,2021.2.3,iPhone,62.5,,0,-0.431632653,-0.324489796,1,0,0,1.471,button_left,1.471,1,0,2,2,15,1,1001,WHAISE,z,,,,,,,,,,,,,,,,,,,,,,,,,,,,,,,,,,,,,,,,,,,,,,,,,,,,,,,,,,,,,,,
,,,,,,,,,,,,,,,,,5c2befdb805c1d0001b47296,40,2022-02-12_14h51.18.935,lexical_decision_task_DD_L6,2021.2.3,iPhone,62.5,,0,0.389795918,-0.341836735,1,0,0,1.556,button_right,1.556,0,0,3,3,14,1,1001,THRALE,z,,,,,,,,,,,,,,,,,,,,,,,,,,,,,,,,,,,,,,,,,,,,,,,,,,,,,,,,,,,,,,,
,,,,,,,,,,,,,,,,,5c2befdb805c1d0001b47296,40,2022-02-12_14h51.18.935,lexical_decision_task_DD_L6,2021.2.3,iPhone,62.5,,0,0.394897959,-0.328571429,1,0,0,0.623,button_right,0.623,1,0,4,4,6,1,1001,ZOMBIE,m,,,,,,,,,,,,,,,,,,,,,,,,,,,,,,,,,,,,,,,,,,,,,,,,,,,,,,,,,,,,,,,
,,,,,,,,,,,,,,,,,5c2befdb805c1d0001b47296,40,2022-02-12_14h51.18.935,lexical_decision_task_DD_L6,2021.2.3,iPhone,62.5,,0,0.413265306,-0.316326531,1,0,0,0.62,button_right,0.62,1,0,5,5,1,1,1001,ADJUST,m,,,,,,,,,,,,,,,,,,,,,,,,,,,,,,,,,,,,,,,,,,,,,,,,,,,,,,,,,,,,,,,
,,,,,,,,,,,,,,,,,5c2befdb805c1d0001b47296,40,2022-02-12_14h51.18.935,lexical_decision_task_DD_L6,2021.2.3,iPhone,62.5,,0,-0.405102041,-0.314285714,1,0,0,1.152,button_left,1.152,1,0,6,6,12,1,1001,SPRINY,z,,,,,,,,,,,,,,,,,,,,,,,,,,,,,,,,,,,,,,,,,,,,,,,,,,,,,,,,,,,,,,,
,,,,,,,,,,,,,,,,,5c2befdb805c1d0001b47296,40,2022-02-12_14h51.18.935,lexical_decision_task_DD_L6,2021.2.3,iPhone,62.5,,0,0.4,-0.332653061,1,0,0,0.738,button_right,0.738,1,0,7,7,0,1,1001,UTOPIA,m,,,,,,,,,,,,,,,,,,,,,,,,,,,,,,,,,,,,,,,,,,,,,,,,,,,,,,,,,,,,,,,
,,,,,,,,,,,,,,,,,5c2befdb805c1d0001b47296,40,2022-02-12_14h51.18.935,lexical_decision_task_DD_L6,2021.2.3,iPhone,62.5,,0,-0.453061224,-0.331632653,1,0,0,0.988,button_left,0.988,1,0,8,8,8,1,1001,ASLERT,z,,,,,,,,,,,,,,,,,,,,,,,,,,,,,,,,,,,,,,,,,,,,,,,,,,,,,,,,,,,,,,,
,,,,,,,,,,,,,,,,,5c2befdb805c1d0001b47296,40,2022-02-12_14h51.18.935,lexical_decision_task_DD_L6,2021.2.3,iPhone,62.5,,0,0.413265306,-0.336734694,1,0,0,0.771,button_right,0.771,1,0,9,9,2,1,1001,ALMOND,m,,,,,,,,,,,,,,,,,,,,,,,,,,,,,,,,,,,,,,,,,,,,,,,,,,,,,,,,,,,,,,,
,,,,,,,,,,,,,,,,,5c2befdb805c1d0001b47296,40,2022-02-12_14h51.18.935,lexical_decision_task_DD_L6,2021.2.3,iPhone,62.5,,0,0.406122449,-0.314285714,1,0,0,1.576,button_right,1.576,0,0,10,10,11,1,1001,RASHET,z,,,,,,,,,,,,,,,,,,,,,,,,,,,,,,,,,,,,,,,,,,,,,,,,,,,,,,,,,,,,,,,
,,,,,,,,,,,,,,,,,5c2befdb805c1d0001b47296,40,2022-02-12_14h51.18.935,lexical_decision_task_DD_L6,2021.2.3,iPhone,62.5,,0,0.403061224,-0.330612245,1,0,0,0.671,button_right,0.671,1,0,11,11,4,1,1001,SQUEAK,m,,,,,,,,,,,,,,,,,,,,,,,,,,,,,,,,,,,,,,,,,,,,,,,,,,,,,,,,,,,,,,,
,,,,,,,,,,,,,,,,,5c2befdb805c1d0001b47296,40,2022-02-12_14h51.18.935,lexical_decision_task_DD_L6,2021.2.3,iPhone,62.5,,0,-0.410204082,-0.297959184,1,0,0,0.888,button_left,0.888,1,0,12,12,9,1,1001,FARINY,z,,,,,,,,,,,,,,,,,,,,,,,,,,,,,,,,,,,,,,,,,,,,,,,,,,,,,,,,,,,,,,,
,,,,,,,,,,,,,,,,,5c2befdb805c1d0001b47296,40,2022-02-12_14h51.18.935,lexical_decision_task_DD_L6,2021.2.3,iPhone,62.5,,0,0.382653061,-0.319387755,1,0,0,0.754,button_right,0.754,1,0,13,13,5,1,1001,OBTAIN,m,,,,,,,,,,,,,,,,,,,,,,,,,,,,,,,,,,,,,,,,,,,,,,,,,,,,,,,,,,,,,,,
,,,,,,,,,,,,,,,,,5c2befdb805c1d0001b47296,40,2022-02-12_14h51.18.935,lexical_decision_task_DD_L6,2021.2.3,iPhone,62.5,,0,-0.417346939,-0.336734694,1,0,0,0.821,button_left,0.821,1,0,14,14,13,1,1001,ROUPET,z,,,,,,,,,,,,,,,,,,,,,,,,,,,,,,,,,,,,,,,,,,,,,,,,,,,,,,,,,,,,,,,
,,,,,,,,,,,,,,,,,5c2befdb805c1d0001b47296,40,2022-02-12_14h51.18.935,lexical_decision_task_DD_L6,2021.2.3,iPhone,62.5,,0,0.391836735,-0.319387755,1,0,0,0.683,button_right,0.683,1,0,15,15,7,1,1001,VOLUME,m,,,,,,,,,,,,,,,,,,,,,,,,,,,,,,,,,,,,,,,,,,,,,,,,,,,,,,,,,,,,,,,
,0.144897959,-0.392857143,1,0,0,instr_done_button,,,,,,1,end_of_practice,"You have completed the practice trials. During the experimental trials, you will not receive feedback. 
Before you begin, please ensure that you are in a comfortable and quiet location and will not be disturbed for about 15 minutes, as we cannot use your data if you do not complete all the trials. 
 When you are ready to start the experimental trials, please press space or touch the button below.",,,5c2befdb805c1d0001b47296,40,2022-02-12_14h51.18.935,lexical_decision_task_DD_L6,2021.2.3,iPhone,62.5,,,,,,,,,,,,,,,,,,,,0,0,0,0,1,,,,,,,,,,,,,,,,,,,,,,,,,,,,,,,,,,,,,,,,,,,,,,,,,,,,,,,,,,
,,,,,,,,,,,,,,,,,5c2befdb805c1d0001b47296,40,2022-02-12_14h51.18.935,lexical_decision_task_DD_L6,2021.2.3,iPhone,62.5,,,,,,,,,,3.071,1,,,,,,,,,,,,,,,0,0.382653061,-0.28877551,1,0,0,3.071,button_right_main,0.382653061,-0.28877551,1,0,0,,0,0,0,20,1,GRANNY,HB,m,m,./images/GRANNYHB.png,,,,,,,,,,,,,,,,,,,,,,,,,,,,,,,,,
,,,,,,,,,,,,,,,,,5c2befdb805c1d0001b47296,40,2022-02-12_14h51.18.935,lexical_decision_task_DD_L6,2021.2.3,iPhone,62.5,,,,,,,,,,0.955,1,,,,,,,,,,,,,,,0,-0.413265306,-0.26122449,1,0,0,0.955,button_left_main,-0.413265306,-0.26122449,1,0,0,,0,1,1,92,1,PAIMS,LB,z,z,./images/PAIMSLB.png,,,,,,,,,,,,,,,,,,,,,,,,,,,,,,,,,
,,,,,,,,,,,,,,,,,5c2befdb805c1d0001b47296,40,2022-02-12_14h51.18.935,lexical_decision_task_DD_L6,2021.2.3,iPhone,62.5,,,,,,,,,,1.555,1,,,,,,,,,,,,,,,0,0.38877551,-0.325510204,1,0,0,1.555,button_right_main,0.38877551,-0.325510204,1,0,0,,0,2,2,38,1,ENGINE,HB,m,m,./images/ENGINEHB.png,,,,,,,,,,,,,,,,,,,,,,,,,,,,,,,,,
,,,,,,,,,,,,,,,,,5c2befdb805c1d0001b47296,40,2022-02-12_14h51.18.935,lexical_decision_task_DD_L6,2021.2.3,iPhone,62.5,,,,,,,,,,1.906,1,,,,,,,,,,,,,,,0,-0.416326531,-0.28877551,1,0,0,1.906,button_left_main,-0.416326531,-0.28877551,1,0,0,,0,3,3,159,1,CUDDY,C,z,z,./images/CUDDY.png,,,,,,,,,,,,,,,,,,,,,,,,,,,,,,,,,
,,,,,,,,,,,,,,,,,5c2befdb805c1d0001b47296,40,2022-02-12_14h51.18.935,lexical_decision_task_DD_L6,2021.2.3,iPhone,62.5,,,,,,,,,,0.839,1,,,,,,,,,,,,,,,0,-0.415306122,-0.318367347,1,0,0,0.839,button_left_main,-0.415306122,-0.318367347,1,0,0,,0,4,4,149,1,VEASE,LB,z,z,./images/VEASELB.png,,,,,,,,,,,,,,,,,,,,,,,,,,,,,,,,,
,,,,,,,,,,,,,,,,,5c2befdb805c1d0001b47296,40,2022-02-12_14h51.18.935,lexical_decision_task_DD_L6,2021.2.3,iPhone,62.5,,,,,,,,,,0.639,1,,,,,,,,,,,,,,,0,0.394897959,-0.325510204,1,0,0,0.639,button_right_main,0.394897959,-0.325510204,1,0,0,,0,5,5,40,1,SNAKE,C,m,m,./images/SNAKE.png,,,,,,,,,,,,,,,,,,,,,,,,,,,,,,,,,
,,,,,,,,,,,,,,,,,5c2befdb805c1d0001b47296,40,2022-02-12_14h51.18.935,lexical_decision_task_DD_L6,2021.2.3,iPhone,62.5,,,,,,,,,,1.556,1,,,,,,,,,,,,,,,0,-0.41122449,-0.315306122,1,0,0,1.556,button_left_main,-0.41122449,-0.315306122,1,0,0,,0,6,6,103,1,FLORT,HB,z,z,./images/FLORTHB.png,,,,,,,,,,,,,,,,,,,,,,,,,,,,,,,,,
,,,,,,,,,,,,,,,,,5c2befdb805c1d0001b47296,40,2022-02-12_14h51.18.935,lexical_decision_task_DD_L6,2021.2.3,iPhone,62.5,,,,,,,,,,0.923,1,,,,,,,,,,,,,,,0,0.391836735,-0.330612245,1,0,0,0.923,button_right_main,0.391836735,-0.330612245,1,0,0,,0,7,7,62,1,MAMMAL,HB,m,m,./images/MAMMALHB.png,,,,,,,,,,,,,,,,,,,,,,,,,,,,,,,,,
,,,,,,,,,,,,,,,,,5c2befdb805c1d0001b47296,40,2022-02-12_14h51.18.935,lexical_decision_task_DD_L6,2021.2.3,iPhone,62.5,,,,,,,,,,2.306,1,,,,,,,,,,,,,,,0,-0.41122449,-0.340816327,1,0,0,2.306,button_left_main,-0.41122449,-0.340816327,1,0,0,,0,8,8,154,1,THINT,HB,z,z,./images/THINTHB.png,,,,,,,,,,,,,,,,,,,,,,,,,,,,,,,,,
,,,,,,,,,,,,,,,,,5c2befdb805c1d0001b47296,40,2022-02-12_14h51.18.935,lexical_decision_task_DD_L6,2021.2.3,iPhone,62.5,,,,,,,,,,0.622,1,,,,,,,,,,,,,,,0,0.390816327,-0.308163265,1,0,0,0.622,button_right_main,0.390816327,-0.308163265,1,0,0,,0,9,9,19,1,DONKEY,C,m,m,./images/DONKEY.png,,,,,,,,,,,,,,,,,,,,,,,,,,,,,,,,,
,,,,,,,,,,,,,,,,,5c2befdb805c1d0001b47296,40,2022-02-12_14h51.18.935,lexical_decision_task_DD_L6,2021.2.3,iPhone,62.5,,,,,,,,,,0.57,1,,,,,,,,,,,,,,,0,0.402040816,-0.316326531,1,0,0,0.57,button_right_main,0.402040816,-0.316326531,1,0,0,,0,10,10,7,1,WAGON,C,m,m,./images/WAGON.png,,,,,,,,,,,,,,,,,,,,,,,,,,,,,,,,,
,,,,,,,,,,,,,,,,,5c2befdb805c1d0001b47296,40,2022-02-12_14h51.18.935,lexical_decision_task_DD_L6,2021.2.3,iPhone,62.5,,,,,,,,,,0.721,1,,,,,,,,,,,,,,,0,0.397959184,-0.320408163,1,0,0,0.721,button_right_main,0.397959184,-0.320408163,1,0,0,,0,11,11,33,1,SAUNA,LB,m,m,./images/SAUNALB.png,,,,,,,,,,,,,,,,,,,,,,,,,,,,,,,,,
,,,,,,,,,,,,,,,,,5c2befdb805c1d0001b47296,40,2022-02-12_14h51.18.935,lexical_decision_task_DD_L6,2021.2.3,iPhone,62.5,,,,,,,,,,0.638,1,,,,,,,,,,,,,,,0,0.386734694,-0.316326531,1,0,0,0.638,button_right_main,0.386734694,-0.316326531,1,0,0,,0,12,12,9,1,DIVER,LB,m,m,./images/DIVERLB.png,,,,,,,,,,,,,,,,,,,,,,,,,,,,,,,,,
,,,,,,,,,,,,,,,,,5c2befdb805c1d0001b47296,40,2022-02-12_14h51.18.935,lexical_decision_task_DD_L6,2021.2.3,iPhone,62.5,,,,,,,,,,0.555,1,,,,,,,,,,,,,,,0,0.4,-0.303061224,1,0,0,0.555,button_right_main,0.4,-0.303061224,1,0,0,,0,13,13,21,1,DANCER,LB,m,m,./images/DANCERLB.png,,,,,,,,,,,,,,,,,,,,,,,,,,,,,,,,,
,,,,,,,,,,,,,,,,,5c2befdb805c1d0001b47296,40,2022-02-12_14h51.18.935,lexical_decision_task_DD_L6,2021.2.3,iPhone,62.5,,,,,,,,,,0.805,1,,,,,,,,,,,,,,,0,-0.446938776,-0.316326531,1,0,0,0.805,button_left_main,-0.446938776,-0.316326531,1,0,0,,0,14,14,158,1,EGECT,LB,z,z,./images/EGECTLB.png,,,,,,,,,,,,,,,,,,,,,,,,,,,,,,,,,
,,,,,,,,,,,,,,,,,5c2befdb805c1d0001b47296,40,2022-02-12_14h51.18.935,lexical_decision_task_DD_L6,2021.2.3,iPhone,62.5,,,,,,,,,,0.921,1,,,,,,,,,,,,,,,0,0.390816327,-0.326530612,1,0,0,0.921,button_right_main,0.390816327,-0.326530612,1,0,0,,0,15,15,11,1,MEDAL,HB,m,m,./images/MEDALHB.png,,,,,,,,,,,,,,,,,,,,,,,,,,,,,,,,,
,,,,,,,,,,,,,,,,,5c2befdb805c1d0001b47296,40,2022-02-12_14h51.18.935,lexical_decision_task_DD_L6,2021.2.3,iPhone,62.5,,,,,,,,,,0.705,1,,,,,,,,,,,,,,,0,0.405102041,-0.316326531,1,0,0,0.705,button_right_main,0.405102041,-0.316326531,1,0,0,,0,16,16,29,1,PISTOL,HB,m,m,./images/PISTOLHB.png,,,,,,,,,,,,,,,,,,,,,,,,,,,,,,,,,
,,,,,,,,,,,,,,,,,5c2befdb805c1d0001b47296,40,2022-02-12_14h51.18.935,lexical_decision_task_DD_L6,2021.2.3,iPhone,62.5,,,,,,,,,,2.172,1,,,,,,,,,,,,,,,0,-0.429591837,-0.316326531,1,0,0,2.172,button_left_main,-0.429591837,-0.316326531,1,0,0,,0,17,17,163,1,GAMBA,HB,z,z,./images/GAMBAHB.png,,,,,,,,,,,,,,,,,,,,,,,,,,,,,,,,,
,,,,,,,,,,,,,,,,,5c2befdb805c1d0001b47296,40,2022-02-12_14h51.18.935,lexical_decision_task_DD_L6,2021.2.3,iPhone,62.5,,,,,,,,,,0.571,1,,,,,,,,,,,,,,,0,0.4,-0.326530612,1,0,0,0.571,button_right_main,0.4,-0.326530612,1,0,0,,0,18,18,70,1,BANANA,C,m,m,./images/BANANA.png,,,,,,,,,,,,,,,,,,,,,,,,,,,,,,,,,
,,,,,,,,,,,,,,,,,5c2befdb805c1d0001b47296,40,2022-02-12_14h51.18.935,lexical_decision_task_DD_L6,2021.2.3,iPhone,62.5,,,,,,,,,,0.835,1,,,,,,,,,,,,,,,0,-0.412244898,-0.294897959,1,0,0,0.835,button_left_main,-0.412244898,-0.294897959,1,0,0,,0,19,19,116,1,BALGY,LB,z,z,./images/BALGYLB.png,,,,,,,,,,,,,,,,,,,,,,,,,,,,,,,,,
,,,,,,,,,,,,,,,,,5c2befdb805c1d0001b47296,40,2022-02-12_14h51.18.935,lexical_decision_task_DD_L6,2021.2.3,iPhone,62.5,,,,,,,,,,0.589,0,,,,,,,,,,,,,,,0,0.404081633,-0.316326531,1,0,0,0.589,button_right_main,0.404081633,-0.316326531,1,0,0,,0,20,20,104,1,GITTY,LB,z,z,./images/GITTYLB.png,,,,,,,,,,,,,,,,,,,,,,,,,,,,,,,,,
,,,,,,,,,,,,,,,,,5c2befdb805c1d0001b47296,40,2022-02-12_14h51.18.935,lexical_decision_task_DD_L6,2021.2.3,iPhone,62.5,,,,,,,,,,1.038,1,,,,,,,,,,,,,,,0,-0.392857143,-0.293877551,1,0,0,1.038,button_left_main,-0.392857143,-0.293877551,1,0,0,,0,21,21,143,1,MONGS,LB,z,z,./images/MONGSLB.png,,,,,,,,,,,,,,,,,,,,,,,,,,,,,,,,,
,,,,,,,,,,,,,,,,,5c2befdb805c1d0001b47296,40,2022-02-12_14h51.18.935,lexical_decision_task_DD_L6,2021.2.3,iPhone,62.5,,,,,,,,,,1.445,1,,,,,,,,,,,,,,,0,-0.362244898,-0.325510204,1,0,0,1.445,button_left_main,-0.362244898,-0.325510204,1,0,0,,0,22,22,115,1,MAWNS,HB,z,z,./images/MAWNSHB.png,,,,,,,,,,,,,,,,,,,,,,,,,,,,,,,,,
,,,,,,,,,,,,,,,,,5c2befdb805c1d0001b47296,40,2022-02-12_14h51.18.935,lexical_decision_task_DD_L6,2021.2.3,iPhone,62.5,,,,,,,,,,0.638,1,,,,,,,,,,,,,,,0,0.38877551,-0.264285714,1,0,0,0.638,button_right_main,0.38877551,-0.264285714,1,0,0,,0,23,23,39,1,CANDY,LB,m,m,./images/CANDYLB.png,,,,,,,,,,,,,,,,,,,,,,,,,,,,,,,,,
,,,,,,,,,,,,,,,,,5c2befdb805c1d0001b47296,40,2022-02-12_14h51.18.935,lexical_decision_task_DD_L6,2021.2.3,iPhone,62.5,,,,,,,,,,0.489,1,,,,,,,,,,,,,,,0,0.378571429,-0.305102041,1,0,0,0.489,button_right_main,0.378571429,-0.305102041,1,0,0,,0,24,24,49,1,BISHOP,C,m,m,./images/BISHOP.png,,,,,,,,,,,,,,,,,,,,,,,,,,,,,,,,,
,,,,,,,,,,,,,,,,,5c2befdb805c1d0001b47296,40,2022-02-12_14h51.18.935,lexical_decision_task_DD_L6,2021.2.3,iPhone,62.5,,,,,,,,,,0.508,1,,,,,,,,,,,,,,,0,0.385714286,-0.302040816,1,0,0,0.508,button_right_main,0.385714286,-0.302040816,1,0,0,,0,25,25,78,1,BROOM,LB,m,m,./images/BROOMLB.png,,,,,,,,,,,,,,,,,,,,,,,,,,,,,,,,,
,,,,,,,,,,,,,,,,,5c2befdb805c1d0001b47296,40,2022-02-12_14h51.18.935,lexical_decision_task_DD_L6,2021.2.3,iPhone,62.5,,,,,,,,,,0.507,1,,,,,,,,,,,,,,,0,0.36122449,-0.295918367,1,0,0,0.507,button_right_main,0.36122449,-0.295918367,1,0,0,,0,26,26,34,1,RAZOR,C,m,m,./images/RAZOR.png,,,,,,,,,,,,,,,,,,,,,,,,,,,,,,,,,
,,,,,,,,,,,,,,,,,5c2befdb805c1d0001b47296,40,2022-02-12_14h51.18.935,lexical_decision_task_DD_L6,2021.2.3,iPhone,62.5,,,,,,,,,,0.902,1,,,,,,,,,,,,,,,0,-0.392857143,-0.281632653,1,0,0,0.902,button_left_main,-0.392857143,-0.281632653,1,0,0,,0,27,27,152,1,FRAIN,LB,z,z,./images/FRAINLB.png,,,,,,,,,,,,,,,,,,,,,,,,,,,,,,,,,
,,,,,,,,,,,,,,,,,5c2befdb805c1d0001b47296,40,2022-02-12_14h51.18.935,lexical_decision_task_DD_L6,2021.2.3,iPhone,62.5,,,,,,,,,,0.539,1,,,,,,,,,,,,,,,0,0.384693878,-0.289795918,1,0,0,0.539,button_right_main,0.384693878,-0.289795918,1,0,0,,0,28,28,69,1,ARROW,LB,m,m,./images/ARROWLB.png,,,,,,,,,,,,,,,,,,,,,,,,,,,,,,,,,
,,,,,,,,,,,,,,,,,5c2befdb805c1d0001b47296,40,2022-02-12_14h51.18.935,lexical_decision_task_DD_L6,2021.2.3,iPhone,62.5,,,,,,,,,,0.557,1,,,,,,,,,,,,,,,0,0.390816327,-0.293877551,1,0,0,0.557,button_right_main,0.390816327,-0.293877551,1,0,0,,0,29,29,22,1,CLOWN,C,m,m,./images/CLOWN.png,,,,,,,,,,,,,,,,,,,,,,,,,,,,,,,,,
,,,,,,,,,,,,,,,,,5c2befdb805c1d0001b47296,40,2022-02-12_14h51.18.935,lexical_decision_task_DD_L6,2021.2.3,iPhone,62.5,,,,,,,,,,0.725,1,,,,,,,,,,,,,,,0,-0.393877551,-0.323469388,1,0,0,0.725,button_left_main,-0.393877551,-0.323469388,1,0,0,,0,30,30,93,1,SMONE,C,z,z,./images/SMONE.png,,,,,,,,,,,,,,,,,,,,,,,,,,,,,,,,,
,,,,,,,,,,,,,,,,,5c2befdb805c1d0001b47296,40,2022-02-12_14h51.18.935,lexical_decision_task_DD_L6,2021.2.3,iPhone,62.5,,,,,,,,,,0.506,1,,,,,,,,,,,,,,,0,0.386734694,-0.308163265,1,0,0,0.506,button_right_main,0.386734694,-0.308163265,1,0,0,,0,31,31,45,1,MONKEY,LB,m,m,./images/MONKEYLB.png,,,,,,,,,,,,,,,,,,,,,,,,,,,,,,,,,
,,,,,,,,,,,,,,,,,5c2befdb805c1d0001b47296,40,2022-02-12_14h51.18.935,lexical_decision_task_DD_L6,2021.2.3,iPhone,62.5,,,,,,,,,,0.638,1,,,,,,,,,,,,,,,0,-0.4,-0.316326531,1,0,0,0.638,button_left_main,-0.4,-0.316326531,1,0,0,,0,32,32,86,1,AIFED,LB,z,z,./images/AIFEDLB.png,,,,,,,,,,,,,,,,,,,,,,,,,,,,,,,,,
,,,,,,,,,,,,,,,,,5c2befdb805c1d0001b47296,40,2022-02-12_14h51.18.935,lexical_decision_task_DD_L6,2021.2.3,iPhone,62.5,,,,,,,,,,0.589,1,,,,,,,,,,,,,,,0,0.379591837,-0.303061224,1,0,0,0.589,button_right_main,0.379591837,-0.303061224,1,0,0,,0,33,33,28,1,CASINO,C,m,m,./images/CASINO.png,,,,,,,,,,,,,,,,,,,,,,,,,,,,,,,,,
,,,,,,,,,,,,,,,,,5c2befdb805c1d0001b47296,40,2022-02-12_14h51.18.935,lexical_decision_task_DD_L6,2021.2.3,iPhone,62.5,,,,,,,,,,0.504,1,,,,,,,,,,,,,,,0,0.38877551,-0.276530612,1,0,0,0.504,button_right_main,0.38877551,-0.276530612,1,0,0,,0,34,34,0,1,WALNUT,LB,m,m,./images/WALNUTLB.png,,,,,,,,,,,,,,,,,,,,,,,,,,,,,,,,,
,,,,,,,,,,,,,,,,,5c2befdb805c1d0001b47296,40,2022-02-12_14h51.18.935,lexical_decision_task_DD_L6,2021.2.3,iPhone,62.5,,,,,,,,,,0.74,1,,,,,,,,,,,,,,,0,-0.390816327,-0.336734694,1,0,0,0.74,button_left_main,-0.390816327,-0.336734694,1,0,0,,0,35,35,119,1,PAFER,LB,z,z,./images/PAFERLB.png,,,,,,,,,,,,,,,,,,,,,,,,,,,,,,,,,
,,,,,,,,,,,,,,,,,5c2befdb805c1d0001b47296,40,2022-02-12_14h51.18.935,lexical_decision_task_DD_L6,2021.2.3,iPhone,62.5,,,,,,,,,,0.554,1,,,,,,,,,,,,,,,0,0.369387755,-0.294897959,1,0,0,0.554,button_right_main,0.369387755,-0.294897959,1,0,0,,0,36,36,66,1,STATUE,LB,m,m,./images/STATUELB.png,,,,,,,,,,,,,,,,,,,,,,,,,,,,,,,,,
,,,,,,,,,,,,,,,,,5c2befdb805c1d0001b47296,40,2022-02-12_14h51.18.935,lexical_decision_task_DD_L6,2021.2.3,iPhone,62.5,,,,,,,,,,0.672,1,,,,,,,,,,,,,,,0,-0.389795918,-0.330612245,1,0,0,0.672,button_left_main,-0.389795918,-0.330612245,1,0,0,,0,37,37,134,1,TROSS,LB,z,z,./images/TROSSLB.png,,,,,,,,,,,,,,,,,,,,,,,,,,,,,,,,,
,,,,,,,,,,,,,,,,,5c2befdb805c1d0001b47296,40,2022-02-12_14h51.18.935,lexical_decision_task_DD_L6,2021.2.3,iPhone,62.5,,,,,,,,,,0.705,1,,,,,,,,,,,,,,,0,-0.389795918,-0.323469388,1,0,0,0.705,button_left_main,-0.389795918,-0.323469388,1,0,0,,0,38,38,96,1,KEAMS,C,z,z,./images/KEAMS.png,,,,,,,,,,,,,,,,,,,,,,,,,,,,,,,,,
,,,,,,,,,,,,,,,,,5c2befdb805c1d0001b47296,40,2022-02-12_14h51.18.935,lexical_decision_task_DD_L6,2021.2.3,iPhone,62.5,,,,,,,,,,0.856,1,,,,,,,,,,,,,,,0,-0.391836735,-0.326530612,1,0,0,0.856,button_left_main,-0.391836735,-0.326530612,1,0,0,,0,39,39,91,1,SHENS,HB,z,z,./images/SHENSHB.png,,,,,,,,,,,,,,,,,,,,,,,,,,,,,,,,,
,,,,,,,,,,,,,,,,,5c2befdb805c1d0001b47296,40,2022-02-12_14h51.18.935,lexical_decision_task_DD_L6,2021.2.3,iPhone,62.5,,,,,,,,,,1.038,1,,,,,,,,,,,,,,,0,-0.385714286,-0.345918367,1,0,0,1.038,button_left_main,-0.385714286,-0.345918367,1,0,0,,0,40,40,136,1,WERVE,HB,z,z,./images/WERVEHB.png,,,,,,,,,,,,,,,,,,,,,,,,,,,,,,,,,
,,,,,,,,,,,,,,,,,5c2befdb805c1d0001b47296,40,2022-02-12_14h51.18.935,lexical_decision_task_DD_L6,2021.2.3,iPhone,62.5,,,,,,,,,,0.47,1,,,,,,,,,,,,,,,0,0.357142857,-0.32244898,1,0,0,0.47,button_right_main,-0.1,-0.409183673,1,0,0,,0,41,41,63,1,BAKER,LB,m,m,./images/BAKERLB.png,break_done_button,,,,,,,,,,,,,,,,,,,,,,,,,,,,,,,,
,,,,,,,,,,,,,,,,,5c2befdb805c1d0001b47296,40,2022-02-12_14h51.18.935,lexical_decision_task_DD_L6,2021.2.3,iPhone,62.5,,,,,,,,,,1.706,1,,,,,,,,,,,,,,,0,-0.387755102,-0.33877551,1,0,0,1.706,button_left_main,-0.387755102,-0.33877551,1,0,0,,0,42,42,151,1,TINKY,HB,z,z,./images/TINKYHB.png,,,,,,,,,,,,,,,,,,,,,,,,,,,,,,,,,
,,,,,,,,,,,,,,,,,5c2befdb805c1d0001b47296,40,2022-02-12_14h51.18.935,lexical_decision_task_DD_L6,2021.2.3,iPhone,62.5,,,,,,,,,,0.855,1,,,,,,,,,,,,,,,0,-0.395918367,-0.326530612,1,0,0,0.855,button_left_main,-0.395918367,-0.326530612,1,0,0,,0,43,43,140,1,DOVET,LB,z,z,./images/DOVETLB.png,,,,,,,,,,,,,,,,,,,,,,,,,,,,,,,,,
,,,,,,,,,,,,,,,,,5c2befdb805c1d0001b47296,40,2022-02-12_14h51.18.935,lexical_decision_task_DD_L6,2021.2.3,iPhone,62.5,,,,,,,,,,0.77,1,,,,,,,,,,,,,,,0,-0.393877551,-0.336734694,1,0,0,0.77,button_left_main,-0.393877551,-0.336734694,1,0,0,,0,44,44,153,1,CLUPS,C,z,z,./images/CLUPS.png,,,,,,,,,,,,,,,,,,,,,,,,,,,,,,,,,
,,,,,,,,,,,,,,,,,5c2befdb805c1d0001b47296,40,2022-02-12_14h51.18.935,lexical_decision_task_DD_L6,2021.2.3,iPhone,62.5,,,,,,,,,,0.906,1,,,,,,,,,,,,,,,0,0.404081633,-0.278571429,1,0,0,0.906,button_right_main,0.404081633,-0.278571429,1,0,0,,0,45,45,83,1,WHISKY,HB,m,m,./images/WHISKYHB.png,,,,,,,,,,,,,,,,,,,,,,,,,,,,,,,,,
,,,,,,,,,,,,,,,,,5c2befdb805c1d0001b47296,40,2022-02-12_14h51.18.935,lexical_decision_task_DD_L6,2021.2.3,iPhone,62.5,,,,,,,,,,0.872,1,,,,,,,,,,,,,,,0,-0.369387755,-0.352040816,1,0,0,0.872,button_left_main,-0.369387755,-0.352040816,1,0,0,,0,46,46,142,1,PLASK,HB,z,z,./images/PLASKHB.png,,,,,,,,,,,,,,,,,,,,,,,,,,,,,,,,,
,,,,,,,,,,,,,,,,,5c2befdb805c1d0001b47296,40,2022-02-12_14h51.18.935,lexical_decision_task_DD_L6,2021.2.3,iPhone,62.5,,,,,,,,,,0.907,1,,,,,,,,,,,,,,,0,-0.364285714,-0.283673469,1,0,0,0.907,button_left_main,-0.364285714,-0.283673469,1,0,0,,0,47,47,155,1,CANGY,LB,z,z,./images/CANGYLB.png,,,,,,,,,,,,,,,,,,,,,,,,,,,,,,,,,
,,,,,,,,,,,,,,,,,5c2befdb805c1d0001b47296,40,2022-02-12_14h51.18.935,lexical_decision_task_DD_L6,2021.2.3,iPhone,62.5,,,,,,,,,,0.871,1,,,,,,,,,,,,,,,0,0.367346939,-0.247959184,1,0,0,0.871,button_right_main,0.367346939,-0.247959184,1,0,0,,0,48,48,26,1,CLOUD,HB,m,m,./images/CLOUDHB.png,,,,,,,,,,,,,,,,,,,,,,,,,,,,,,,,,
,,,,,,,,,,,,,,,,,5c2befdb805c1d0001b47296,40,2022-02-12_14h51.18.935,lexical_decision_task_DD_L6,2021.2.3,iPhone,62.5,,,,,,,,,,0.787,1,,,,,,,,,,,,,,,0,0.395918367,-0.323469388,1,0,0,0.787,button_right_main,0.395918367,-0.323469388,1,0,0,,0,49,49,65,1,SPINE,HB,m,m,./images/SPINEHB.png,,,,,,,,,,,,,,,,,,,,,,,,,,,,,,,,,
,,,,,,,,,,,,,,,,,5c2befdb805c1d0001b47296,40,2022-02-12_14h51.18.935,lexical_decision_task_DD_L6,2021.2.3,iPhone,62.5,,,,,,,,,,0.804,1,,,,,,,,,,,,,,,0,0.398979592,-0.326530612,1,0,0,0.804,button_right_main,0.398979592,-0.326530612,1,0,0,,0,50,50,41,1,STREAM,HB,m,m,./images/STREAMHB.png,,,,,,,,,,,,,,,,,,,,,,,,,,,,,,,,,
,,,,,,,,,,,,,,,,,5c2befdb805c1d0001b47296,40,2022-02-12_14h51.18.935,lexical_decision_task_DD_L6,2021.2.3,iPhone,62.5,,,,,,,,,,1.326,1,,,,,,,,,,,,,,,0,-0.391836735,-0.340816327,1,0,0,1.326,button_left_main,-0.391836735,-0.340816327,1,0,0,,0,51,51,160,1,VEETS,HB,z,z,./images/VEETSHB.png,,,,,,,,,,,,,,,,,,,,,,,,,,,,,,,,,
,,,,,,,,,,,,,,,,,5c2befdb805c1d0001b47296,40,2022-02-12_14h51.18.935,lexical_decision_task_DD_L6,2021.2.3,iPhone,62.5,,,,,,,,,,0.587,1,,,,,,,,,,,,,,,0,-0.356122449,-0.380612245,1,0,0,0.587,button_left_main,-0.356122449,-0.380612245,1,0,0,,0,52,52,167,1,ZONET,LB,z,z,./images/ZONETLB.png,,,,,,,,,,,,,,,,,,,,,,,,,,,,,,,,,
,,,,,,,,,,,,,,,,,5c2befdb805c1d0001b47296,40,2022-02-12_14h51.18.935,lexical_decision_task_DD_L6,2021.2.3,iPhone,62.5,,,,,,,,,,0.526,1,,,,,,,,,,,,,,,0,-0.362244898,-0.342857143,1,0,0,0.526,button_left_main,-0.362244898,-0.342857143,1,0,0,,0,53,53,141,1,PLEET,C,z,z,./images/PLEET.png,,,,,,,,,,,,,,,,,,,,,,,,,,,,,,,,,
,,,,,,,,,,,,,,,,,5c2befdb805c1d0001b47296,40,2022-02-12_14h51.18.935,lexical_decision_task_DD_L6,2021.2.3,iPhone,62.5,,,,,,,,,,0.537,1,,,,,,,,,,,,,,,0,-0.387755102,-0.359183673,1,0,0,0.537,button_left_main,-0.387755102,-0.359183673,1,0,0,,0,54,54,138,1,PLICE,C,z,z,./images/PLICE.png,,,,,,,,,,,,,,,,,,,,,,,,,,,,,,,,,
,,,,,,,,,,,,,,,,,5c2befdb805c1d0001b47296,40,2022-02-12_14h51.18.935,lexical_decision_task_DD_L6,2021.2.3,iPhone,62.5,,,,,,,,,,0.737,1,,,,,,,,,,,,,,,0,-0.355102041,-0.357142857,1,0,0,0.737,button_left_main,-0.355102041,-0.357142857,1,0,0,,0,55,55,122,1,BLOOT,LB,z,z,./images/BLOOTLB.png,,,,,,,,,,,,,,,,,,,,,,,,,,,,,,,,,
,,,,,,,,,,,,,,,,,5c2befdb805c1d0001b47296,40,2022-02-12_14h51.18.935,lexical_decision_task_DD_L6,2021.2.3,iPhone,62.5,,,,,,,,,,1.188,0,,,,,,,,,,,,,,,0,0.359183673,-0.308163265,1,0,0,1.188,button_right_main,0.359183673,-0.308163265,1,0,0,,0,56,56,110,1,CRUNK,LB,z,z,./images/CRUNKLB.png,,,,,,,,,,,,,,,,,,,,,,,,,,,,,,,,,
,,,,,,,,,,,,,,,,,5c2befdb805c1d0001b47296,40,2022-02-12_14h51.18.935,lexical_decision_task_DD_L6,2021.2.3,iPhone,62.5,,,,,,,,,,0.623,1,,,,,,,,,,,,,,,0,-0.356122449,-0.352040816,1,0,0,0.623,button_left_main,-0.356122449,-0.352040816,1,0,0,,0,57,57,89,1,DRIEK,LB,z,z,./images/DRIEKLB.png,,,,,,,,,,,,,,,,,,,,,,,,,,,,,,,,,
,,,,,,,,,,,,,,,,,5c2befdb805c1d0001b47296,40,2022-02-12_14h51.18.935,lexical_decision_task_DD_L6,2021.2.3,iPhone,62.5,,,,,,,,,,1.573,1,,,,,,,,,,,,,,,0,0.344897959,-0.309183673,1,0,0,1.573,button_right_main,0.344897959,-0.309183673,1,0,0,,0,58,58,53,1,POSTER,HB,m,m,./images/POSTERHB.png,,,,,,,,,,,,,,,,,,,,,,,,,,,,,,,,,
,,,,,,,,,,,,,,,,,5c2befdb805c1d0001b47296,40,2022-02-12_14h51.18.935,lexical_decision_task_DD_L6,2021.2.3,iPhone,62.5,,,,,,,,,,0.554,1,,,,,,,,,,,,,,,0,0.35,-0.302040816,1,0,0,0.554,button_right_main,0.35,-0.302040816,1,0,0,,0,59,59,79,1,RULER,C,m,m,./images/RULER.png,,,,,,,,,,,,,,,,,,,,,,,,,,,,,,,,,
,,,,,,,,,,,,,,,,,5c2befdb805c1d0001b47296,40,2022-02-12_14h51.18.935,lexical_decision_task_DD_L6,2021.2.3,iPhone,62.5,,,,,,,,,,0.621,1,,,,,,,,,,,,,,,0,0.360204082,-0.31122449,1,0,0,0.621,button_right_main,0.360204082,-0.31122449,1,0,0,,0,60,60,44,1,BASKET,HB,m,m,./images/BASKETHB.png,,,,,,,,,,,,,,,,,,,,,,,,,,,,,,,,,
,,,,,,,,,,,,,,,,,5c2befdb805c1d0001b47296,40,2022-02-12_14h51.18.935,lexical_decision_task_DD_L6,2021.2.3,iPhone,62.5,,,,,,,,,,0.492,1,,,,,,,,,,,,,,,0,0.355102041,-0.310204082,1,0,0,0.492,button_right_main,0.355102041,-0.310204082,1,0,0,,0,61,61,4,1,BOXER,C,m,m,./images/BOXER.png,,,,,,,,,,,,,,,,,,,,,,,,,,,,,,,,,
,,,,,,,,,,,,,,,,,5c2befdb805c1d0001b47296,40,2022-02-12_14h51.18.935,lexical_decision_task_DD_L6,2021.2.3,iPhone,62.5,,,,,,,,,,0.471,1,,,,,,,,,,,,,,,0,0.343877551,-0.301020408,1,0,0,0.471,button_right_main,0.343877551,-0.301020408,1,0,0,,0,62,62,42,1,CHAIN,LB,m,m,./images/CHAINLB.png,,,,,,,,,,,,,,,,,,,,,,,,,,,,,,,,,
,,,,,,,,,,,,,,,,,5c2befdb805c1d0001b47296,40,2022-02-12_14h51.18.935,lexical_decision_task_DD_L6,2021.2.3,iPhone,62.5,,,,,,,,,,0.74,1,,,,,,,,,,,,,,,0,-0.417346939,-0.32755102,1,0,0,0.74,button_left_main,-0.417346939,-0.32755102,1,0,0,,0,63,63,101,1,GLEET,LB,z,z,./images/GLEETLB.png,,,,,,,,,,,,,,,,,,,,,,,,,,,,,,,,,
,,,,,,,,,,,,,,,,,5c2befdb805c1d0001b47296,40,2022-02-12_14h51.18.935,lexical_decision_task_DD_L6,2021.2.3,iPhone,62.5,,,,,,,,,,0.852,1,,,,,,,,,,,,,,,0,-0.417346939,-0.31122449,1,0,0,0.852,button_left_main,-0.417346939,-0.31122449,1,0,0,,0,64,64,106,1,CLUMS,HB,z,z,./images/CLUMSHB.png,,,,,,,,,,,,,,,,,,,,,,,,,,,,,,,,,
,,,,,,,,,,,,,,,,,5c2befdb805c1d0001b47296,40,2022-02-12_14h51.18.935,lexical_decision_task_DD_L6,2021.2.3,iPhone,62.5,,,,,,,,,,0.855,1,,,,,,,,,,,,,,,0,0.368367347,-0.230612245,1,0,0,0.855,button_right_main,0.368367347,-0.230612245,1,0,0,,0,65,65,67,1,POKER,C,m,m,./images/POKER.png,,,,,,,,,,,,,,,,,,,,,,,,,,,,,,,,,
,,,,,,,,,,,,,,,,,5c2befdb805c1d0001b47296,40,2022-02-12_14h51.18.935,lexical_decision_task_DD_L6,2021.2.3,iPhone,62.5,,,,,,,,,,0.605,1,,,,,,,,,,,,,,,0,-0.366326531,-0.316326531,1,0,0,0.605,button_left_main,-0.366326531,-0.316326531,1,0,0,,0,66,66,161,1,BLAPS,LB,z,z,./images/BLAPSLB.png,,,,,,,,,,,,,,,,,,,,,,,,,,,,,,,,,
,,,,,,,,,,,,,,,,,5c2befdb805c1d0001b47296,40,2022-02-12_14h51.18.935,lexical_decision_task_DD_L6,2021.2.3,iPhone,62.5,,,,,,,,,,0.673,1,,,,,,,,,,,,,,,0,-0.41122449,-0.331632653,1,0,0,0.673,button_left_main,-0.41122449,-0.331632653,1,0,0,,0,67,67,90,1,NEAST,C,z,z,./images/NEAST.png,,,,,,,,,,,,,,,,,,,,,,,,,,,,,,,,,
,,,,,,,,,,,,,,,,,5c2befdb805c1d0001b47296,40,2022-02-12_14h51.18.935,lexical_decision_task_DD_L6,2021.2.3,iPhone,62.5,,,,,,,,,,0.571,1,,,,,,,,,,,,,,,0,-0.417346939,-0.35,1,0,0,0.571,button_left_main,-0.417346939,-0.35,1,0,0,,0,68,68,113,1,LINEW,LB,z,z,./images/LINEWLB.png,,,,,,,,,,,,,,,,,,,,,,,,,,,,,,,,,
,,,,,,,,,,,,,,,,,5c2befdb805c1d0001b47296,40,2022-02-12_14h51.18.935,lexical_decision_task_DD_L6,2021.2.3,iPhone,62.5,,,,,,,,,,0.772,1,,,,,,,,,,,,,,,0,0.393877551,-0.296938776,1,0,0,0.772,button_right_main,0.393877551,-0.296938776,1,0,0,,0,69,69,2,1,STOVE,HB,m,m,./images/STOVEHB.png,,,,,,,,,,,,,,,,,,,,,,,,,,,,,,,,,
,,,,,,,,,,,,,,,,,5c2befdb805c1d0001b47296,40,2022-02-12_14h51.18.935,lexical_decision_task_DD_L6,2021.2.3,iPhone,62.5,,,,,,,,,,0.556,1,,,,,,,,,,,,,,,0,-0.417346939,-0.323469388,1,0,0,0.556,button_left_main,-0.417346939,-0.323469388,1,0,0,,0,70,70,95,1,HANTY,LB,z,z,./images/HANTYLB.png,,,,,,,,,,,,,,,,,,,,,,,,,,,,,,,,,
,,,,,,,,,,,,,,,,,5c2befdb805c1d0001b47296,40,2022-02-12_14h51.18.935,lexical_decision_task_DD_L6,2021.2.3,iPhone,62.5,,,,,,,,,,0.689,1,,,,,,,,,,,,,,,0,0.375510204,-0.301020408,1,0,0,0.689,button_right_main,0.375510204,-0.301020408,1,0,0,,0,71,71,18,1,PARCEL,LB,m,m,./images/PARCELLB.png,,,,,,,,,,,,,,,,,,,,,,,,,,,,,,,,,
,,,,,,,,,,,,,,,,,5c2befdb805c1d0001b47296,40,2022-02-12_14h51.18.935,lexical_decision_task_DD_L6,2021.2.3,iPhone,62.5,,,,,,,,,,0.523,1,,,,,,,,,,,,,,,0,0.416326531,-0.343877551,1,0,0,0.523,button_right_main,0.416326531,-0.343877551,1,0,0,,0,72,72,81,1,DRILL,LB,m,m,./images/DRILLLB.png,,,,,,,,,,,,,,,,,,,,,,,,,,,,,,,,,
,,,,,,,,,,,,,,,,,5c2befdb805c1d0001b47296,40,2022-02-12_14h51.18.935,lexical_decision_task_DD_L6,2021.2.3,iPhone,62.5,,,,,,,,,,0.572,1,,,,,,,,,,,,,,,0,-0.419387755,-0.316326531,1,0,0,0.572,button_left_main,-0.419387755,-0.316326531,1,0,0,,0,73,73,108,1,GRUET,C,z,z,./images/GRUET.png,,,,,,,,,,,,,,,,,,,,,,,,,,,,,,,,,
,,,,,,,,,,,,,,,,,5c2befdb805c1d0001b47296,40,2022-02-12_14h51.18.935,lexical_decision_task_DD_L6,2021.2.3,iPhone,62.5,,,,,,,,,,0.572,1,,,,,,,,,,,,,,,0,0.360204082,-0.269387755,1,0,0,0.572,button_right_main,0.360204082,-0.269387755,1,0,0,,0,74,74,64,1,BRIDE,C,m,m,./images/BRIDE.png,,,,,,,,,,,,,,,,,,,,,,,,,,,,,,,,,
,,,,,,,,,,,,,,,,,5c2befdb805c1d0001b47296,40,2022-02-12_14h51.18.935,lexical_decision_task_DD_L6,2021.2.3,iPhone,62.5,,,,,,,,,,0.555,1,,,,,,,,,,,,,,,0,0.356122449,-0.275510204,1,0,0,0.555,button_right_main,0.356122449,-0.275510204,1,0,0,,0,75,75,82,1,PEBBLE,C,m,m,./images/PEBBLE.png,,,,,,,,,,,,,,,,,,,,,,,,,,,,,,,,,
,,,,,,,,,,,,,,,,,5c2befdb805c1d0001b47296,40,2022-02-12_14h51.18.935,lexical_decision_task_DD_L6,2021.2.3,iPhone,62.5,,,,,,,,,,0.572,1,,,,,,,,,,,,,,,0,-0.457142857,-0.32244898,1,0,0,0.572,button_left_main,-0.457142857,-0.32244898,1,0,0,,0,76,76,135,1,JOODY,C,z,z,./images/JOODY.png,,,,,,,,,,,,,,,,,,,,,,,,,,,,,,,,,
,,,,,,,,,,,,,,,,,5c2befdb805c1d0001b47296,40,2022-02-12_14h51.18.935,lexical_decision_task_DD_L6,2021.2.3,iPhone,62.5,,,,,,,,,,0.741,1,,,,,,,,,,,,,,,0,-0.424489796,-0.312244898,1,0,0,0.741,button_left_main,-0.424489796,-0.312244898,1,0,0,,0,77,77,139,1,BLEAR,HB,z,z,./images/BLEARHB.png,,,,,,,,,,,,,,,,,,,,,,,,,,,,,,,,,
,,,,,,,,,,,,,,,,,5c2befdb805c1d0001b47296,40,2022-02-12_14h51.18.935,lexical_decision_task_DD_L6,2021.2.3,iPhone,62.5,,,,,,,,,,0.504,1,,,,,,,,,,,,,,,0,0.376530612,-0.295918367,1,0,0,0.504,button_right_main,0.376530612,-0.295918367,1,0,0,,0,78,78,48,1,SHIELD,LB,m,m,./images/SHIELDLB.png,,,,,,,,,,,,,,,,,,,,,,,,,,,,,,,,,
,,,,,,,,,,,,,,,,,5c2befdb805c1d0001b47296,40,2022-02-12_14h51.18.935,lexical_decision_task_DD_L6,2021.2.3,iPhone,62.5,,,,,,,,,,0.537,1,,,,,,,,,,,,,,,0,0.391836735,-0.310204082,1,0,0,0.537,button_right_main,0.391836735,-0.310204082,1,0,0,,0,79,79,30,1,SLOPE,LB,m,m,./images/SLOPELB.png,,,,,,,,,,,,,,,,,,,,,,,,,,,,,,,,,
,,,,,,,,,,,,,,,,,5c2befdb805c1d0001b47296,40,2022-02-12_14h51.18.935,lexical_decision_task_DD_L6,2021.2.3,iPhone,62.5,,,,,,,,,,0.555,1,,,,,,,,,,,,,,,0,-0.406122449,-0.308163265,1,0,0,0.555,button_left_main,-0.406122449,-0.308163265,1,0,0,,0,80,80,120,1,RINED,C,z,z,./images/RINED.png,,,,,,,,,,,,,,,,,,,,,,,,,,,,,,,,,
,,,,,,,,,,,,,,,,,5c2befdb805c1d0001b47296,40,2022-02-12_14h51.18.935,lexical_decision_task_DD_L6,2021.2.3,iPhone,62.5,,,,,,,,,,1.039,1,,,,,,,,,,,,,,,0,-0.409183673,-0.345918367,1,0,0,1.039,button_left_main,-0.409183673,-0.345918367,1,0,0,,0,81,81,157,1,INLER,HB,z,z,./images/INLERHB.png,,,,,,,,,,,,,,,,,,,,,,,,,,,,,,,,,
,,,,,,,,,,,,,,,,,5c2befdb805c1d0001b47296,40,2022-02-12_14h51.18.935,lexical_decision_task_DD_L6,2021.2.3,iPhone,62.5,,,,,,,,,,0.907,1,,,,,,,,,,,,,,,0,-0.432653061,-0.336734694,1,0,0,0.907,button_left_main,-0.432653061,-0.336734694,1,0,0,,0,82,82,97,1,CHIDS,HB,z,z,./images/CHIDSHB.png,,,,,,,,,,,,,,,,,,,,,,,,,,,,,,,,,
,,,,,,,,,,,,,,,,,5c2befdb805c1d0001b47296,40,2022-02-12_14h51.18.935,lexical_decision_task_DD_L6,2021.2.3,iPhone,62.5,,,,,,,,,,0.471,1,,,,,,,,,,,,,,,0,-0.426530612,-0.326530612,1,0,0,0.471,button_left_main,-0.087755102,-0.392857143,1,0,0,,0,83,83,132,1,SCIFF,C,z,z,./images/SCIFF.png,break_done_button,,,,,,,,,,,,,,,,,,,,,,,,,,,,,,,,
,,,,,,,,,,,,,,,,,5c2befdb805c1d0001b47296,40,2022-02-12_14h51.18.935,lexical_decision_task_DD_L6,2021.2.3,iPhone,62.5,,,,,,,,,,0.537,1,,,,,,,,,,,,,,,0,0.376530612,-0.329591837,1,0,0,0.537,button_right_main,0.376530612,-0.329591837,1,0,0,,0,84,84,31,1,STEAK,C,m,m,./images/STEAK.png,,,,,,,,,,,,,,,,,,,,,,,,,,,,,,,,,
,,,,,,,,,,,,,,,,,5c2befdb805c1d0001b47296,40,2022-02-12_14h51.18.935,lexical_decision_task_DD_L6,2021.2.3,iPhone,62.5,,,,,,,,,,0.722,1,,,,,,,,,,,,,,,0,-0.346938776,-0.316326531,1,0,0,0.722,button_left_main,-0.346938776,-0.316326531,1,0,0,,0,85,85,118,1,BAVEL,HB,z,z,./images/BAVELHB.png,,,,,,,,,,,,,,,,,,,,,,,,,,,,,,,,,
,,,,,,,,,,,,,,,,,5c2befdb805c1d0001b47296,40,2022-02-12_14h51.18.935,lexical_decision_task_DD_L6,2021.2.3,iPhone,62.5,,,,,,,,,,0.674,1,,,,,,,,,,,,,,,0,0.375510204,-0.304081633,1,0,0,0.674,button_right_main,0.375510204,-0.304081633,1,0,0,,0,86,86,14,1,FENCE,HB,m,m,./images/FENCEHB.png,,,,,,,,,,,,,,,,,,,,,,,,,,,,,,,,,
,,,,,,,,,,,,,,,,,5c2befdb805c1d0001b47296,40,2022-02-12_14h51.18.935,lexical_decision_task_DD_L6,2021.2.3,iPhone,62.5,,,,,,,,,,1.023,1,,,,,,,,,,,,,,,0,0.371428571,-0.378571429,1,0,0,1.023,button_right_main,0.371428571,-0.378571429,1,0,0,,0,87,87,76,1,MIDGET,C,m,m,./images/MIDGET.png,,,,,,,,,,,,,,,,,,,,,,,,,,,,,,,,,
,,,,,,,,,,,,,,,,,5c2befdb805c1d0001b47296,40,2022-02-12_14h51.18.935,lexical_decision_task_DD_L6,2021.2.3,iPhone,62.5,,,,,,,,,,1.106,1,,,,,,,,,,,,,,,0,-0.293877551,-0.257142857,1,0,0,1.106,button_left_main,-0.293877551,-0.257142857,1,0,0,,0,88,88,88,1,GLUSH,HB,z,z,./images/GLUSHHB.png,,,,,,,,,,,,,,,,,,,,,,,,,,,,,,,,,
,,,,,,,,,,,,,,,,,5c2befdb805c1d0001b47296,40,2022-02-12_14h51.18.935,lexical_decision_task_DD_L6,2021.2.3,iPhone,62.5,,,,,,,,,,0.638,1,,,,,,,,,,,,,,,0,0.347959184,-0.297959184,1,0,0,0.638,button_right_main,0.347959184,-0.297959184,1,0,0,,0,89,89,51,1,SAUCE,LB,m,m,./images/SAUCELB.png,,,,,,,,,,,,,,,,,,,,,,,,,,,,,,,,,
,,,,,,,,,,,,,,,,,5c2befdb805c1d0001b47296,40,2022-02-12_14h51.18.935,lexical_decision_task_DD_L6,2021.2.3,iPhone,62.5,,,,,,,,,,0.738,1,,,,,,,,,,,,,,,0,0.358163265,-0.253061224,1,0,0,0.738,button_right_main,0.358163265,-0.253061224,1,0,0,,0,90,90,59,1,BRUSH,HB,m,m,./images/BRUSHHB.png,,,,,,,,,,,,,,,,,,,,,,,,,,,,,,,,,
,,,,,,,,,,,,,,,,,5c2befdb805c1d0001b47296,40,2022-02-12_14h51.18.935,lexical_decision_task_DD_L6,2021.2.3,iPhone,62.5,,,,,,,,,,0.808,1,,,,,,,,,,,,,,,0,-0.370408163,-0.319387755,1,0,0,0.808,button_left_main,-0.370408163,-0.319387755,1,0,0,,0,91,91,99,1,BACKY,C,z,z,./images/BACKY.png,,,,,,,,,,,,,,,,,,,,,,,,,,,,,,,,,
,,,,,,,,,,,,,,,,,5c2befdb805c1d0001b47296,40,2022-02-12_14h51.18.935,lexical_decision_task_DD_L6,2021.2.3,iPhone,62.5,,,,,,,,,,0.806,1,,,,,,,,,,,,,,,0,-0.329591837,-0.306122449,1,0,0,0.806,button_left_main,-0.329591837,-0.306122449,1,0,0,,0,92,92,124,1,TUNCH,HB,z,z,./images/TUNCHHB.png,,,,,,,,,,,,,,,,,,,,,,,,,,,,,,,,,
,,,,,,,,,,,,,,,,,5c2befdb805c1d0001b47296,40,2022-02-12_14h51.18.935,lexical_decision_task_DD_L6,2021.2.3,iPhone,62.5,,,,,,,,,,0.837,1,,,,,,,,,,,,,,,0,-0.316326531,-0.316326531,1,0,0,0.837,button_left_main,-0.316326531,-0.316326531,1,0,0,,0,93,93,123,1,SEDGE,C,z,z,./images/SEDGE.png,,,,,,,,,,,,,,,,,,,,,,,,,,,,,,,,,
,,,,,,,,,,,,,,,,,5c2befdb805c1d0001b47296,40,2022-02-12_14h51.18.935,lexical_decision_task_DD_L6,2021.2.3,iPhone,62.5,,,,,,,,,,1.07,1,,,,,,,,,,,,,,,0,-0.307142857,-0.282653061,1,0,0,1.07,button_left_main,-0.307142857,-0.282653061,1,0,0,,0,94,94,109,1,BURGE,HB,z,z,./images/BURGEHB.png,,,,,,,,,,,,,,,,,,,,,,,,,,,,,,,,,
,,,,,,,,,,,,,,,,,5c2befdb805c1d0001b47296,40,2022-02-12_14h51.18.935,lexical_decision_task_DD_L6,2021.2.3,iPhone,62.5,,,,,,,,,,0.723,1,,,,,,,,,,,,,,,0,0.379591837,-0.345918367,1,0,0,0.723,button_right_main,0.379591837,-0.345918367,1,0,0,,0,95,95,25,1,CHALK,C,m,m,./images/CHALK.png,,,,,,,,,,,,,,,,,,,,,,,,,,,,,,,,,
,,,,,,,,,,,,,,,,,5c2befdb805c1d0001b47296,40,2022-02-12_14h51.18.935,lexical_decision_task_DD_L6,2021.2.3,iPhone,62.5,,,,,,,,,,0.701,1,,,,,,,,,,,,,,,0,-0.287755102,-0.296938776,1,0,0,0.701,button_left_main,-0.287755102,-0.296938776,1,0,0,,0,96,96,133,1,POWDY,HB,z,z,./images/POWDYHB.png,,,,,,,,,,,,,,,,,,,,,,,,,,,,,,,,,
,,,,,,,,,,,,,,,,,5c2befdb805c1d0001b47296,40,2022-02-12_14h51.18.935,lexical_decision_task_DD_L6,2021.2.3,iPhone,62.5,,,,,,,,,,0.722,1,,,,,,,,,,,,,,,0,-0.325510204,-0.283673469,1,0,0,0.722,button_left_main,-0.325510204,-0.283673469,1,0,0,,0,97,97,162,1,LEICH,C,z,z,./images/LEICH.png,,,,,,,,,,,,,,,,,,,,,,,,,,,,,,,,,
,,,,,,,,,,,,,,,,,5c2befdb805c1d0001b47296,40,2022-02-12_14h51.18.935,lexical_decision_task_DD_L6,2021.2.3,iPhone,62.5,,,,,,,,,,0.638,1,,,,,,,,,,,,,,,0,0.347959184,-0.32755102,1,0,0,0.638,button_right_main,0.347959184,-0.32755102,1,0,0,,0,98,98,72,1,FLASK,LB,m,m,./images/FLASKLB.png,,,,,,,,,,,,,,,,,,,,,,,,,,,,,,,,,
,,,,,,,,,,,,,,,,,5c2befdb805c1d0001b47296,40,2022-02-12_14h51.18.935,lexical_decision_task_DD_L6,2021.2.3,iPhone,62.5,,,,,,,,,,0.506,1,,,,,,,,,,,,,,,0,0.391836735,-0.315306122,1,0,0,0.506,button_right_main,0.391836735,-0.315306122,1,0,0,,0,99,99,52,1,DESERT,C,m,m,./images/DESERT.png,,,,,,,,,,,,,,,,,,,,,,,,,,,,,,,,,
,,,,,,,,,,,,,,,,,5c2befdb805c1d0001b47296,40,2022-02-12_14h51.18.935,lexical_decision_task_DD_L6,2021.2.3,iPhone,62.5,,,,,,,,,,0.522,1,,,,,,,,,,,,,,,0,0.366326531,-0.331632653,1,0,0,0.522,button_right_main,0.366326531,-0.331632653,1,0,0,,0,100,100,6,1,STAIN,LB,m,m,./images/STAINLB.png,,,,,,,,,,,,,,,,,,,,,,,,,,,,,,,,,
,,,,,,,,,,,,,,,,,5c2befdb805c1d0001b47296,40,2022-02-12_14h51.18.935,lexical_decision_task_DD_L6,2021.2.3,iPhone,62.5,,,,,,,,,,0.968,1,,,,,,,,,,,,,,,0,-0.348979592,-0.330612245,1,0,0,0.968,button_left_main,-0.348979592,-0.330612245,1,0,0,,0,101,101,94,1,BLANS,HB,z,z,./images/BLANSHB.png,,,,,,,,,,,,,,,,,,,,,,,,,,,,,,,,,
,,,,,,,,,,,,,,,,,5c2befdb805c1d0001b47296,40,2022-02-12_14h51.18.935,lexical_decision_task_DD_L6,2021.2.3,iPhone,62.5,,,,,,,,,,0.606,1,,,,,,,,,,,,,,,0,0.33877551,-0.331632653,1,0,0,0.606,button_right_main,0.33877551,-0.331632653,1,0,0,,0,102,102,77,1,WHEEL,HB,m,m,./images/WHEELHB.png,,,,,,,,,,,,,,,,,,,,,,,,,,,,,,,,,
,,,,,,,,,,,,,,,,,5c2befdb805c1d0001b47296,40,2022-02-12_14h51.18.935,lexical_decision_task_DD_L6,2021.2.3,iPhone,62.5,,,,,,,,,,0.601,1,,,,,,,,,,,,,,,0,0.355102041,-0.310204082,1,0,0,0.601,button_right_main,0.355102041,-0.310204082,1,0,0,,0,103,103,75,1,HAMMER,LB,m,m,./images/HAMMERLB.png,,,,,,,,,,,,,,,,,,,,,,,,,,,,,,,,,
,,,,,,,,,,,,,,,,,5c2befdb805c1d0001b47296,40,2022-02-12_14h51.18.935,lexical_decision_task_DD_L6,2021.2.3,iPhone,62.5,,,,,,,,,,0.991,1,,,,,,,,,,,,,,,0,0.36122449,-0.291836735,1,0,0,0.991,button_right_main,0.36122449,-0.291836735,1,0,0,,0,104,104,3,1,CRATER,LB,m,m,./images/CRATERLB.png,,,,,,,,,,,,,,,,,,,,,,,,,,,,,,,,,
,,,,,,,,,,,,,,,,,5c2befdb805c1d0001b47296,40,2022-02-12_14h51.18.935,lexical_decision_task_DD_L6,2021.2.3,iPhone,62.5,,,,,,,,,,0.939,1,,,,,,,,,,,,,,,0,-0.279591837,-0.276530612,1,0,0,0.939,button_left_main,-0.279591837,-0.276530612,1,0,0,,0,105,105,148,1,JOMS,HB,z,z,./images/JOMSHB.png,,,,,,,,,,,,,,,,,,,,,,,,,,,,,,,,,
,,,,,,,,,,,,,,,,,5c2befdb805c1d0001b47296,40,2022-02-12_14h51.18.935,lexical_decision_task_DD_L6,2021.2.3,iPhone,62.5,,,,,,,,,,0.639,1,,,,,,,,,,,,,,,0,0.333673469,-0.317346939,1,0,0,0.639,button_right_main,0.333673469,-0.317346939,1,0,0,,0,106,106,56,1,HEATER,HB,m,m,./images/HEATERHB.png,,,,,,,,,,,,,,,,,,,,,,,,,,,,,,,,,
,,,,,,,,,,,,,,,,,5c2befdb805c1d0001b47296,40,2022-02-12_14h51.18.935,lexical_decision_task_DD_L6,2021.2.3,iPhone,62.5,,,,,,,,,,0.855,1,,,,,,,,,,,,,,,0,-0.332653061,-0.274489796,1,0,0,0.855,button_left_main,-0.332653061,-0.274489796,1,0,0,,0,107,107,102,1,DULLE,C,z,z,./images/DULLE.png,,,,,,,,,,,,,,,,,,,,,,,,,,,,,,,,,
,,,,,,,,,,,,,,,,,5c2befdb805c1d0001b47296,40,2022-02-12_14h51.18.935,lexical_decision_task_DD_L6,2021.2.3,iPhone,62.5,,,,,,,,,,0.556,1,,,,,,,,,,,,,,,0,0.355102041,-0.307142857,1,0,0,0.556,button_right_main,0.355102041,-0.307142857,1,0,0,,0,108,108,43,1,STOOL,C,m,m,./images/STOOL.png,,,,,,,,,,,,,,,,,,,,,,,,,,,,,,,,,
,,,,,,,,,,,,,,,,,5c2befdb805c1d0001b47296,40,2022-02-12_14h51.18.935,lexical_decision_task_DD_L6,2021.2.3,iPhone,62.5,,,,,,,,,,0.989,1,,,,,,,,,,,,,,,0,-0.310204082,-0.263265306,1,0,0,0.989,button_left_main,-0.310204082,-0.263265306,1,0,0,,0,109,109,112,1,MYING,HB,z,z,./images/MYINGHB.png,,,,,,,,,,,,,,,,,,,,,,,,,,,,,,,,,
,,,,,,,,,,,,,,,,,5c2befdb805c1d0001b47296,40,2022-02-12_14h51.18.935,lexical_decision_task_DD_L6,2021.2.3,iPhone,62.5,,,,,,,,,,0.971,1,,,,,,,,,,,,,,,0,-0.258163265,-0.290816327,1,0,0,0.971,button_left_main,-0.258163265,-0.290816327,1,0,0,,0,110,110,107,1,FASKS,LB,z,z,./images/FASKSLB.png,,,,,,,,,,,,,,,,,,,,,,,,,,,,,,,,,
,,,,,,,,,,,,,,,,,5c2befdb805c1d0001b47296,40,2022-02-12_14h51.18.935,lexical_decision_task_DD_L6,2021.2.3,iPhone,62.5,,,,,,,,,,2.155,1,,,,,,,,,,,,,,,0,-0.391836735,-0.323469388,1,0,0,2.155,button_left_main,-0.391836735,-0.323469388,1,0,0,,0,111,111,131,1,NACES,LB,z,z,./images/NACESLB.png,,,,,,,,,,,,,,,,,,,,,,,,,,,,,,,,,
,,,,,,,,,,,,,,,,,5c2befdb805c1d0001b47296,40,2022-02-12_14h51.18.935,lexical_decision_task_DD_L6,2021.2.3,iPhone,62.5,,,,,,,,,,0.706,1,,,,,,,,,,,,,,,0,0.389795918,-0.316326531,1,0,0,0.706,button_right_main,0.389795918,-0.316326531,1,0,0,,0,112,112,13,1,BUNNY,C,m,m,./images/BUNNY.png,,,,,,,,,,,,,,,,,,,,,,,,,,,,,,,,,
,,,,,,,,,,,,,,,,,5c2befdb805c1d0001b47296,40,2022-02-12_14h51.18.935,lexical_decision_task_DD_L6,2021.2.3,iPhone,62.5,,,,,,,,,,1.122,1,,,,,,,,,,,,,,,0,0.391836735,-0.269387755,1,0,0,1.122,button_right_main,0.391836735,-0.269387755,1,0,0,,0,113,113,60,1,CURRY,LB,m,m,./images/CURRYLB.png,,,,,,,,,,,,,,,,,,,,,,,,,,,,,,,,,
,,,,,,,,,,,,,,,,,5c2befdb805c1d0001b47296,40,2022-02-12_14h51.18.935,lexical_decision_task_DD_L6,2021.2.3,iPhone,62.5,,,,,,,,,,0.638,1,,,,,,,,,,,,,,,0,-0.368367347,-0.312244898,1,0,0,0.638,button_left_main,-0.368367347,-0.312244898,1,0,0,,0,114,114,125,1,MOOKY,LB,z,z,./images/MOOKYLB.png,,,,,,,,,,,,,,,,,,,,,,,,,,,,,,,,,
,,,,,,,,,,,,,,,,,5c2befdb805c1d0001b47296,40,2022-02-12_14h51.18.935,lexical_decision_task_DD_L6,2021.2.3,iPhone,62.5,,,,,,,,,,0.388,1,,,,,,,,,,,,,,,0,-0.374489796,-0.32244898,1,0,0,0.388,button_left_main,-0.374489796,-0.32244898,1,0,0,,0,115,115,164,1,SGREW,LB,z,z,./images/SGREWLB.png,,,,,,,,,,,,,,,,,,,,,,,,,,,,,,,,,
,,,,,,,,,,,,,,,,,5c2befdb805c1d0001b47296,40,2022-02-12_14h51.18.935,lexical_decision_task_DD_L6,2021.2.3,iPhone,62.5,,,,,,,,,,0.722,1,,,,,,,,,,,,,,,0,0.38877551,-0.303061224,1,0,0,0.722,button_right_main,0.38877551,-0.303061224,1,0,0,,0,116,116,36,1,BOILER,LB,m,m,./images/BOILERLB.png,,,,,,,,,,,,,,,,,,,,,,,,,,,,,,,,,
,,,,,,,,,,,,,,,,,5c2befdb805c1d0001b47296,40,2022-02-12_14h51.18.935,lexical_decision_task_DD_L6,2021.2.3,iPhone,62.5,,,,,,,,,,0.586,0,,,,,,,,,,,,,,,0,-0.383673469,-0.345918367,1,0,0,0.586,button_left_main,-0.383673469,-0.345918367,1,0,0,,0,117,117,12,1,BLOKE,LB,m,m,./images/BLOKELB.png,,,,,,,,,,,,,,,,,,,,,,,,,,,,,,,,,
,,,,,,,,,,,,,,,,,5c2befdb805c1d0001b47296,40,2022-02-12_14h51.18.935,lexical_decision_task_DD_L6,2021.2.3,iPhone,62.5,,,,,,,,,,0.923,1,,,,,,,,,,,,,,,0,0.382653061,-0.324489796,1,0,0,0.923,button_right_main,0.382653061,-0.324489796,1,0,0,,0,118,118,5,1,BAMBOO,HB,m,m,./images/BAMBOOHB.png,,,,,,,,,,,,,,,,,,,,,,,,,,,,,,,,,
,,,,,,,,,,,,,,,,,5c2befdb805c1d0001b47296,40,2022-02-12_14h51.18.935,lexical_decision_task_DD_L6,2021.2.3,iPhone,62.5,,,,,,,,,,0.722,1,,,,,,,,,,,,,,,0,0.359183673,-0.247959184,1,0,0,0.722,button_right_main,0.359183673,-0.247959184,1,0,0,,0,119,119,54,1,CHERRY,LB,m,m,./images/CHERRYLB.png,,,,,,,,,,,,,,,,,,,,,,,,,,,,,,,,,
,,,,,,,,,,,,,,,,,5c2befdb805c1d0001b47296,40,2022-02-12_14h51.18.935,lexical_decision_task_DD_L6,2021.2.3,iPhone,62.5,,,,,,,,,,0.603,1,,,,,,,,,,,,,,,0,-0.368367347,-0.320408163,1,0,0,0.603,button_left_main,-0.368367347,-0.320408163,1,0,0,,0,120,120,105,1,MOKER,C,z,z,./images/MOKER.png,,,,,,,,,,,,,,,,,,,,,,,,,,,,,,,,,
,,,,,,,,,,,,,,,,,5c2befdb805c1d0001b47296,40,2022-02-12_14h51.18.935,lexical_decision_task_DD_L6,2021.2.3,iPhone,62.5,,,,,,,,,,0.868,1,,,,,,,,,,,,,,,0,0.385714286,-0.319387755,1,0,0,0.868,button_right_main,0.385714286,-0.319387755,1,0,0,,0,121,121,32,1,HOCKEY,HB,m,m,./images/HOCKEYHB.png,,,,,,,,,,,,,,,,,,,,,,,,,,,,,,,,,
,,,,,,,,,,,,,,,,,5c2befdb805c1d0001b47296,40,2022-02-12_14h51.18.935,lexical_decision_task_DD_L6,2021.2.3,iPhone,62.5,,,,,,,,,,0.688,1,,,,,,,,,,,,,,,0,-0.378571429,-0.260204082,1,0,0,0.688,button_left_main,-0.378571429,-0.260204082,1,0,0,,0,122,122,166,1,SHORY,HB,z,z,./images/SHORYHB.png,,,,,,,,,,,,,,,,,,,,,,,,,,,,,,,,,
,,,,,,,,,,,,,,,,,5c2befdb805c1d0001b47296,40,2022-02-12_14h51.18.935,lexical_decision_task_DD_L6,2021.2.3,iPhone,62.5,,,,,,,,,,1.207,1,,,,,,,,,,,,,,,0,-0.356122449,-0.333673469,1,0,0,1.207,button_left_main,-0.356122449,-0.333673469,1,0,0,,0,123,123,100,1,DRIBS,HB,z,z,./images/DRIBSHB.png,,,,,,,,,,,,,,,,,,,,,,,,,,,,,,,,,
,,,,,,,,,,,,,,,,,5c2befdb805c1d0001b47296,40,2022-02-12_14h51.18.935,lexical_decision_task_DD_L6,2021.2.3,iPhone,62.5,,,,,,,,,,0.739,1,,,,,,,,,,,,,,,0,0.381632653,-0.307142857,1,0,0,0.739,button_right_main,0.381632653,-0.307142857,1,0,0,,0,124,124,24,1,FLESH,LB,m,m,./images/FLESHLB.png,,,,,,,,,,,,,,,,,,,,,,,,,,,,,,,,,
,,,,,,,,,,,,,,,,,5c2befdb805c1d0001b47296,40,2022-02-12_14h51.18.935,lexical_decision_task_DD_L6,2021.2.3,iPhone,62.5,,,,,,,,,,0.538,1,,,,,,,,,,,,,,,0,-0.396938776,-0.268367347,1,0,0,0.538,button_left_main,-0.128571429,-0.38877551,1,0,0,,0,125,125,146,1,MOOST,LB,z,z,./images/MOOSTLB.png,break_done_button,,,,,,,,,,,,,,,,,,,,,,,,,,,,,,,,
,,,,,,,,,,,,,,,,,5c2befdb805c1d0001b47296,40,2022-02-12_14h51.18.935,lexical_decision_task_DD_L6,2021.2.3,iPhone,62.5,,,,,,,,,,0.607,1,,,,,,,,,,,,,,,0,0.442857143,-0.280612245,1,0,0,0.607,button_right_main,0.442857143,-0.280612245,1,0,0,,0,126,126,37,1,TIGER,C,m,m,./images/TIGER.png,,,,,,,,,,,,,,,,,,,,,,,,,,,,,,,,,
,,,,,,,,,,,,,,,,,5c2befdb805c1d0001b47296,40,2022-02-12_14h51.18.935,lexical_decision_task_DD_L6,2021.2.3,iPhone,62.5,,,,,,,,,,0.688,1,,,,,,,,,,,,,,,0,0.387755102,-0.334693878,1,0,0,0.688,button_right_main,0.387755102,-0.334693878,1,0,0,,0,127,127,73,1,GLOVE,C,m,m,./images/GLOVE.png,,,,,,,,,,,,,,,,,,,,,,,,,,,,,,,,,
,,,,,,,,,,,,,,,,,5c2befdb805c1d0001b47296,40,2022-02-12_14h51.18.935,lexical_decision_task_DD_L6,2021.2.3,iPhone,62.5,,,,,,,,,,1.038,0,,,,,,,,,,,,,,,0,-0.357142857,-0.321428571,1,0,0,1.038,button_left_main,-0.357142857,-0.321428571,1,0,0,,0,128,128,74,1,JUMPER,HB,m,m,./images/JUMPERHB.png,,,,,,,,,,,,,,,,,,,,,,,,,,,,,,,,,
,,,,,,,,,,,,,,,,,5c2befdb805c1d0001b47296,40,2022-02-12_14h51.18.935,lexical_decision_task_DD_L6,2021.2.3,iPhone,62.5,,,,,,,,,,0.689,1,,,,,,,,,,,,,,,0,0.38877551,-0.312244898,1,0,0,0.689,button_right_main,0.38877551,-0.312244898,1,0,0,,0,129,129,15,1,COLLAR,LB,m,m,./images/COLLARLB.png,,,,,,,,,,,,,,,,,,,,,,,,,,,,,,,,,
,,,,,,,,,,,,,,,,,5c2befdb805c1d0001b47296,40,2022-02-12_14h51.18.935,lexical_decision_task_DD_L6,2021.2.3,iPhone,62.5,,,,,,,,,,0.705,1,,,,,,,,,,,,,,,0,-0.352040816,-0.312244898,1,0,0,0.705,button_left_main,-0.352040816,-0.312244898,1,0,0,,0,130,130,84,1,HAXES,C,z,z,./images/HAXES.png,,,,,,,,,,,,,,,,,,,,,,,,,,,,,,,,,
,,,,,,,,,,,,,,,,,5c2befdb805c1d0001b47296,40,2022-02-12_14h51.18.935,lexical_decision_task_DD_L6,2021.2.3,iPhone,62.5,,,,,,,,,,0.755,1,,,,,,,,,,,,,,,0,0.404081633,-0.297959184,1,0,0,0.755,button_right_main,0.404081633,-0.297959184,1,0,0,,0,131,131,57,1,FERRY,LB,m,m,./images/FERRYLB.png,,,,,,,,,,,,,,,,,,,,,,,,,,,,,,,,,
,,,,,,,,,,,,,,,,,5c2befdb805c1d0001b47296,40,2022-02-12_14h51.18.935,lexical_decision_task_DD_L6,2021.2.3,iPhone,62.5,,,,,,,,,,0.655,1,,,,,,,,,,,,,,,0,0.384693878,-0.28877551,1,0,0,0.655,button_right_main,0.384693878,-0.28877551,1,0,0,,0,132,132,17,1,PARADE,HB,m,m,./images/PARADEHB.png,,,,,,,,,,,,,,,,,,,,,,,,,,,,,,,,,
,,,,,,,,,,,,,,,,,5c2befdb805c1d0001b47296,40,2022-02-12_14h51.18.935,lexical_decision_task_DD_L6,2021.2.3,iPhone,62.5,,,,,,,,,,0.653,1,,,,,,,,,,,,,,,0,0.385714286,-0.317346939,1,0,0,0.653,button_right_main,0.385714286,-0.317346939,1,0,0,,0,133,133,71,1,BUBBLE,HB,m,m,./images/BUBBLEHB.png,,,,,,,,,,,,,,,,,,,,,,,,,,,,,,,,,
,,,,,,,,,,,,,,,,,5c2befdb805c1d0001b47296,40,2022-02-12_14h51.18.935,lexical_decision_task_DD_L6,2021.2.3,iPhone,62.5,,,,,,,,,,0.704,1,,,,,,,,,,,,,,,0,0.389795918,-0.308163265,1,0,0,0.704,button_right_main,0.389795918,-0.308163265,1,0,0,,0,134,134,50,1,PILOT,HB,m,m,./images/PILOTHB.png,,,,,,,,,,,,,,,,,,,,,,,,,,,,,,,,,
,,,,,,,,,,,,,,,,,5c2befdb805c1d0001b47296,40,2022-02-12_14h51.18.935,lexical_decision_task_DD_L6,2021.2.3,iPhone,62.5,,,,,,,,,,0.722,1,,,,,,,,,,,,,,,0,-0.352040816,-0.335714286,1,0,0,0.722,button_left_main,-0.352040816,-0.335714286,1,0,0,,0,135,135,165,1,TROWN,C,z,z,./images/TROWN.png,,,,,,,,,,,,,,,,,,,,,,,,,,,,,,,,,
,,,,,,,,,,,,,,,,,5c2befdb805c1d0001b47296,40,2022-02-12_14h51.18.935,lexical_decision_task_DD_L6,2021.2.3,iPhone,62.5,,,,,,,,,,0.606,1,,,,,,,,,,,,,,,0,0.391836735,-0.290816327,1,0,0,0.606,button_right_main,0.391836735,-0.290816327,1,0,0,,0,136,136,16,1,GRAPE,C,m,m,./images/GRAPE.png,,,,,,,,,,,,,,,,,,,,,,,,,,,,,,,,,
,,,,,,,,,,,,,,,,,5c2befdb805c1d0001b47296,40,2022-02-12_14h51.18.935,lexical_decision_task_DD_L6,2021.2.3,iPhone,62.5,,,,,,,,,,0.773,1,,,,,,,,,,,,,,,0,-0.362244898,-0.328571429,1,0,0,0.773,button_left_main,-0.362244898,-0.328571429,1,0,0,,0,137,137,87,1,TRING,C,z,z,./images/TRING.png,,,,,,,,,,,,,,,,,,,,,,,,,,,,,,,,,
,,,,,,,,,,,,,,,,,5c2befdb805c1d0001b47296,40,2022-02-12_14h51.18.935,lexical_decision_task_DD_L6,2021.2.3,iPhone,62.5,,,,,,,,,,0.689,1,,,,,,,,,,,,,,,0,-0.360204082,-0.340816327,1,0,0,0.689,button_left_main,-0.360204082,-0.340816327,1,0,0,,0,138,138,111,1,HOSSE,C,z,z,./images/HOSSE.png,,,,,,,,,,,,,,,,,,,,,,,,,,,,,,,,,
,,,,,,,,,,,,,,,,,5c2befdb805c1d0001b47296,40,2022-02-12_14h51.18.935,lexical_decision_task_DD_L6,2021.2.3,iPhone,62.5,,,,,,,,,,1.19,0,,,,,,,,,,,,,,,0,0.38877551,-0.326530612,1,0,0,1.19,button_right_main,0.38877551,-0.326530612,1,0,0,,0,139,139,130,1,CRILL,HB,z,z,./images/CRILLHB.png,,,,,,,,,,,,,,,,,,,,,,,,,,,,,,,,,
,,,,,,,,,,,,,,,,,5c2befdb805c1d0001b47296,40,2022-02-12_14h51.18.935,lexical_decision_task_DD_L6,2021.2.3,iPhone,62.5,,,,,,,,,,0.655,1,,,,,,,,,,,,,,,0,0.406122449,-0.312244898,1,0,0,0.655,button_right_main,0.406122449,-0.312244898,1,0,0,,0,140,140,23,1,CLOTH,HB,m,m,./images/CLOTHHB.png,,,,,,,,,,,,,,,,,,,,,,,,,,,,,,,,,
,,,,,,,,,,,,,,,,,5c2befdb805c1d0001b47296,40,2022-02-12_14h51.18.935,lexical_decision_task_DD_L6,2021.2.3,iPhone,62.5,,,,,,,,,,0.656,1,,,,,,,,,,,,,,,0,-0.356122449,-0.328571429,1,0,0,0.656,button_left_main,-0.356122449,-0.328571429,1,0,0,,0,141,141,147,1,ZOLES,C,z,z,./images/ZOLES.png,,,,,,,,,,,,,,,,,,,,,,,,,,,,,,,,,
,,,,,,,,,,,,,,,,,5c2befdb805c1d0001b47296,40,2022-02-12_14h51.18.935,lexical_decision_task_DD_L6,2021.2.3,iPhone,62.5,,,,,,,,,,0.646,1,,,,,,,,,,,,,,,0,-0.371428571,-0.347959184,1,0,0,0.646,button_left_main,-0.371428571,-0.347959184,1,0,0,,0,142,142,126,1,GUELS,C,z,z,./images/GUELS.png,,,,,,,,,,,,,,,,,,,,,,,,,,,,,,,,,
,,,,,,,,,,,,,,,,,5c2befdb805c1d0001b47296,40,2022-02-12_14h51.18.935,lexical_decision_task_DD_L6,2021.2.3,iPhone,62.5,,,,,,,,,,0.506,1,,,,,,,,,,,,,,,0,-0.336734694,-0.340816327,1,0,0,0.506,button_left_main,-0.336734694,-0.340816327,1,0,0,,0,143,143,117,1,STEEG,C,z,z,./images/STEEG.png,,,,,,,,,,,,,,,,,,,,,,,,,,,,,,,,,
,,,,,,,,,,,,,,,,,5c2befdb805c1d0001b47296,40,2022-02-12_14h51.18.935,lexical_decision_task_DD_L6,2021.2.3,iPhone,62.5,,,,,,,,,,0.755,1,,,,,,,,,,,,,,,0,-0.342857143,-0.328571429,1,0,0,0.755,button_left_main,-0.342857143,-0.328571429,1,0,0,,0,144,144,145,1,LAMEL,HB,z,z,./images/LAMELHB.png,,,,,,,,,,,,,,,,,,,,,,,,,,,,,,,,,
,,,,,,,,,,,,,,,,,5c2befdb805c1d0001b47296,40,2022-02-12_14h51.18.935,lexical_decision_task_DD_L6,2021.2.3,iPhone,62.5,,,,,,,,,,0.79,1,,,,,,,,,,,,,,,0,0.37244898,-0.295918367,1,0,0,0.79,button_right_main,0.37244898,-0.295918367,1,0,0,,0,145,145,8,1,CLIFF,HB,m,m,./images/CLIFFHB.png,,,,,,,,,,,,,,,,,,,,,,,,,,,,,,,,,
,,,,,,,,,,,,,,,,,5c2befdb805c1d0001b47296,40,2022-02-12_14h51.18.935,lexical_decision_task_DD_L6,2021.2.3,iPhone,62.5,,,,,,,,,,0.495,1,,,,,,,,,,,,,,,0,-0.341836735,-0.323469388,1,0,0,0.495,button_left_main,-0.341836735,-0.323469388,1,0,0,,0,146,146,129,1,PRANS,C,z,z,./images/PRANS.png,,,,,,,,,,,,,,,,,,,,,,,,,,,,,,,,,
,,,,,,,,,,,,,,,,,5c2befdb805c1d0001b47296,40,2022-02-12_14h51.18.935,lexical_decision_task_DD_L6,2021.2.3,iPhone,62.5,,,,,,,,,,0.577,1,,,,,,,,,,,,,,,0,-0.351020408,-0.356122449,1,0,0,0.577,button_left_main,-0.351020408,-0.356122449,1,0,0,,0,147,147,114,1,RIKES,C,z,z,./images/RIKES.png,,,,,,,,,,,,,,,,,,,,,,,,,,,,,,,,,
,,,,,,,,,,,,,,,,,5c2befdb805c1d0001b47296,40,2022-02-12_14h51.18.935,lexical_decision_task_DD_L6,2021.2.3,iPhone,62.5,,,,,,,,,,0.722,1,,,,,,,,,,,,,,,0,0.371428571,-0.274489796,1,0,0,0.722,button_right_main,0.371428571,-0.274489796,1,0,0,,0,148,148,80,1,PLANET,HB,m,m,./images/PLANETHB.png,,,,,,,,,,,,,,,,,,,,,,,,,,,,,,,,,
,,,,,,,,,,,,,,,,,5c2befdb805c1d0001b47296,40,2022-02-12_14h51.18.935,lexical_decision_task_DD_L6,2021.2.3,iPhone,62.5,,,,,,,,,,0.552,0,,,,,,,,,,,,,,,0,-0.366326531,-0.330612245,1,0,0,0.552,button_left_main,-0.366326531,-0.330612245,1,0,0,,0,149,149,58,1,CANOE,C,m,m,./images/CANOE.png,,,,,,,,,,,,,,,,,,,,,,,,,,,,,,,,,
,,,,,,,,,,,,,,,,,5c2befdb805c1d0001b47296,40,2022-02-12_14h51.18.935,lexical_decision_task_DD_L6,2021.2.3,iPhone,62.5,,,,,,,,,,0.672,1,,,,,,,,,,,,,,,0,-0.362244898,-0.345918367,1,0,0,0.672,button_left_main,-0.362244898,-0.345918367,1,0,0,,0,150,150,98,1,BAMPS,LB,z,z,./images/BAMPSLB.png,,,,,,,,,,,,,,,,,,,,,,,,,,,,,,,,,
,,,,,,,,,,,,,,,,,5c2befdb805c1d0001b47296,40,2022-02-12_14h51.18.935,lexical_decision_task_DD_L6,2021.2.3,iPhone,62.5,,,,,,,,,,0.537,1,,,,,,,,,,,,,,,0,0.38877551,-0.308163265,1,0,0,0.537,button_right_main,0.38877551,-0.308163265,1,0,0,,0,151,151,46,1,MUMMY,C,m,m,./images/MUMMY.png,,,,,,,,,,,,,,,,,,,,,,,,,,,,,,,,,
,,,,,,,,,,,,,,,,,5c2befdb805c1d0001b47296,40,2022-02-12_14h51.18.935,lexical_decision_task_DD_L6,2021.2.3,iPhone,62.5,,,,,,,,,,1.057,0,,,,,,,,,,,,,,,0,0.395918367,-0.297959184,1,0,0,1.057,button_right_main,0.395918367,-0.297959184,1,0,0,,0,152,152,137,1,JOOST,LB,z,z,./images/JOOSTLB.png,,,,,,,,,,,,,,,,,,,,,,,,,,,,,,,,,
,,,,,,,,,,,,,,,,,5c2befdb805c1d0001b47296,40,2022-02-12_14h51.18.935,lexical_decision_task_DD_L6,2021.2.3,iPhone,62.5,,,,,,,,,,0.655,1,,,,,,,,,,,,,,,0,-0.374489796,-0.330612245,1,0,0,0.655,button_left_main,-0.374489796,-0.330612245,1,0,0,,0,153,153,144,1,NAIRY,C,z,z,./images/NAIRY.png,,,,,,,,,,,,,,,,,,,,,,,,,,,,,,,,,
,,,,,,,,,,,,,,,,,5c2befdb805c1d0001b47296,40,2022-02-12_14h51.18.935,lexical_decision_task_DD_L6,2021.2.3,iPhone,62.5,,,,,,,,,,1.172,1,,,,,,,,,,,,,,,0,-0.383673469,-0.319387755,1,0,0,1.172,button_left_main,-0.383673469,-0.319387755,1,0,0,,0,154,154,85,1,CHULK,HB,z,z,./images/CHULKHB.png,,,,,,,,,,,,,,,,,,,,,,,,,,,,,,,,,
,,,,,,,,,,,,,,,,,5c2befdb805c1d0001b47296,40,2022-02-12_14h51.18.935,lexical_decision_task_DD_L6,2021.2.3,iPhone,62.5,,,,,,,,,,0.824,1,,,,,,,,,,,,,,,0,-0.362244898,-0.337755102,1,0,0,0.824,button_left_main,-0.362244898,-0.337755102,1,0,0,,0,155,155,127,1,NINDY,HB,z,z,./images/NINDYHB.png,,,,,,,,,,,,,,,,,,,,,,,,,,,,,,,,,
,,,,,,,,,,,,,,,,,5c2befdb805c1d0001b47296,40,2022-02-12_14h51.18.935,lexical_decision_task_DD_L6,2021.2.3,iPhone,62.5,,,,,,,,,,0.788,1,,,,,,,,,,,,,,,0,-0.356122449,-0.323469388,1,0,0,0.788,button_left_main,-0.356122449,-0.323469388,1,0,0,,0,156,156,121,1,CEERS,HB,z,z,./images/CEERSHB.png,,,,,,,,,,,,,,,,,,,,,,,,,,,,,,,,,
,,,,,,,,,,,,,,,,,5c2befdb805c1d0001b47296,40,2022-02-12_14h51.18.935,lexical_decision_task_DD_L6,2021.2.3,iPhone,62.5,,,,,,,,,,0.638,1,,,,,,,,,,,,,,,0,0.369387755,-0.293877551,1,0,0,0.638,button_right_main,0.369387755,-0.293877551,1,0,0,,0,157,157,10,1,GARDEN,C,m,m,./images/GARDEN.png,,,,,,,,,,,,,,,,,,,,,,,,,,,,,,,,,
,,,,,,,,,,,,,,,,,5c2befdb805c1d0001b47296,40,2022-02-12_14h51.18.935,lexical_decision_task_DD_L6,2021.2.3,iPhone,62.5,,,,,,,,,,1.023,1,,,,,,,,,,,,,,,0,-0.340816327,-0.267346939,1,0,0,1.023,button_left_main,-0.340816327,-0.267346939,1,0,0,,0,158,158,128,1,GRIFT,LB,z,z,./images/GRIFTLB.png,,,,,,,,,,,,,,,,,,,,,,,,,,,,,,,,,
,,,,,,,,,,,,,,,,,5c2befdb805c1d0001b47296,40,2022-02-12_14h51.18.935,lexical_decision_task_DD_L6,2021.2.3,iPhone,62.5,,,,,,,,,,0.608,1,,,,,,,,,,,,,,,0,0.393877551,-0.345918367,1,0,0,0.608,button_right_main,0.393877551,-0.345918367,1,0,0,,0,159,159,61,1,ARTIST,C,m,m,./images/ARTIST.png,,,,,,,,,,,,,,,,,,,,,,,,,,,,,,,,,
,,,,,,,,,,,,,,,,,5c2befdb805c1d0001b47296,40,2022-02-12_14h51.18.935,lexical_decision_task_DD_L6,2021.2.3,iPhone,62.5,,,,,,,,,,0.689,1,,,,,,,,,,,,,,,0,0.391836735,-0.247959184,1,0,0,0.689,button_right_main,0.391836735,-0.247959184,1,0,0,,0,160,160,27,1,BUTTER,LB,m,m,./images/BUTTERLB.png,,,,,,,,,,,,,,,,,,,,,,,,,,,,,,,,,
,,,,,,,,,,,,,,,,,5c2befdb805c1d0001b47296,40,2022-02-12_14h51.18.935,lexical_decision_task_DD_L6,2021.2.3,iPhone,62.5,,,,,,,,,,0.926,1,,,,,,,,,,,,,,,0,-0.3,-0.286734694,1,0,0,0.926,button_left_main,-0.3,-0.286734694,1,0,0,,0,161,161,150,1,NOOLS,C,z,z,./images/NOOLS.png,,,,,,,,,,,,,,,,,,,,,,,,,,,,,,,,,
,,,,,,,,,,,,,,,,,5c2befdb805c1d0001b47296,40,2022-02-12_14h51.18.935,lexical_decision_task_DD_L6,2021.2.3,iPhone,62.5,,,,,,,,,,0.555,1,,,,,,,,,,,,,,,0,0.340816327,-0.295918367,1,0,0,0.555,button_right_main,0.340816327,-0.295918367,1,0,0,,0,162,162,55,1,ALLEY,C,m,m,./images/ALLEY.png,,,,,,,,,,,,,,,,,,,,,,,,,,,,,,,,,
,,,,,,,,,,,,,,,,,5c2befdb805c1d0001b47296,40,2022-02-12_14h51.18.935,lexical_decision_task_DD_L6,2021.2.3,iPhone,62.5,,,,,,,,,,0.636,1,,,,,,,,,,,,,,,0,0.405102041,-0.316326531,1,0,0,0.636,button_right_main,0.405102041,-0.316326531,1,0,0,,0,163,163,47,1,LAGOON,HB,m,m,./images/LAGOONHB.png,,,,,,,,,,,,,,,,,,,,,,,,,,,,,,,,,
,,,,,,,,,,,,,,,,,5c2befdb805c1d0001b47296,40,2022-02-12_14h51.18.935,lexical_decision_task_DD_L6,2021.2.3,iPhone,62.5,,,,,,,,,,0.525,1,,,,,,,,,,,,,,,0,0.368367347,-0.297959184,1,0,0,0.525,button_right_main,0.368367347,-0.297959184,1,0,0,,0,164,164,68,1,VALLEY,HB,m,m,./images/VALLEYHB.png,,,,,,,,,,,,,,,,,,,,,,,,,,,,,,,,,
,,,,,,,,,,,,,,,,,5c2befdb805c1d0001b47296,40,2022-02-12_14h51.18.935,lexical_decision_task_DD_L6,2021.2.3,iPhone,62.5,,,,,,,,,,0.956,1,,,,,,,,,,,,,,,0,-0.286734694,-0.301020408,1,0,0,0.956,button_left_main,-0.286734694,-0.301020408,1,0,0,,0,165,165,156,1,HIXES,C,z,z,./images/HIXES.png,,,,,,,,,,,,,,,,,,,,,,,,,,,,,,,,,
,,,,,,,,,,,,,,,,,5c2befdb805c1d0001b47296,40,2022-02-12_14h51.18.935,lexical_decision_task_DD_L6,2021.2.3,iPhone,62.5,,,,,,,,,,0.687,1,,,,,,,,,,,,,,,0,0.360204082,-0.281632653,1,0,0,0.687,button_right_main,0.360204082,-0.281632653,1,0,0,,0,166,166,35,1,LLAMA,HB,m,m,./images/LLAMAHB.png,,,,,,,,,,,,,,,,,,,,,,,,,,,,,,,,,
,,,,,,,,,,,,,,,,,5c2befdb805c1d0001b47296,40,2022-02-12_14h51.18.935,lexical_decision_task_DD_L6,2021.2.3,iPhone,62.5,,,,,,,,,,0.672,1,,,,,,,,,,,,,,,0,0.378571429,-0.289795918,1,0,0,0.672,button_right_main,0.378571429,-0.289795918,1,0,0,,0,167,167,1,1,TOWEL,C,m,m,./images/TOWEL.png,,,,,,,,,,,,,,,,,,,,,,,,,,,,,,,,,
,,,,,,,,,,,,,,,,,5c2befdb805c1d0001b47296,40,2022-02-12_14h51.18.935,lexical_decision_task_DD_L6,2021.2.3,iPhone,62.5,,,,,,,,,,,,,,,,,,,,,,,,,,,,,,,,,,,,,,,,,,,,,,How likely will it be that you will recognize the words presented very blurred on a scale of 0 (not likely) to 100 (most likely)?,,,,,0.001020408,-0.401020408,1,0,0,jol_adv,5,3.108,0,0,0,2,1,,,,,,,,,,,,,,,,,,,
,,,,,,,,,,,,,,,,,5c2befdb805c1d0001b47296,40,2022-02-12_14h51.18.935,lexical_decision_task_DD_L6,2021.2.3,iPhone,62.5,,,,,,,,,,,,,,,,,,,,,,,,,,,,,,,,,,,,,,,,,,,,,,How likely will it be that you will recognize the words presented slighly blurred on a scale of 0 (not likely) to 100 (most likely)?,,,,,,,,,,,5,3.619,0,1,1,1,1,,,,,,,,,,,,,,,,,,,
,,,,,,,,,,,,,,,,,5c2befdb805c1d0001b47296,40,2022-02-12_14h51.18.935,lexical_decision_task_DD_L6,2021.2.3,iPhone,62.5,,,,,,,,,,,,,,,,,,,,,,,,,,,,,,,,,,,,,,,,,,,,,,How likely will it be that you will recognize the words presented clearly on a scale of 0 (not likely) to 100 (most likely)?,,,,,,,,,,,6,5.487,0,2,2,0,1,,,,,,,,,,,,,,,,,,,
,0.125510204,-0.392857143,1,0,0,instr_done_button,,,,,,1,test,"In the next phase you will be presented with the words from the the first phase. Your job is to decide whether you remember seeing the word or not. If you remember seeing the word press ""old"" or type ""m"". If you do not remember seeing the word press ""new"" or type ""z"". Please press the space bar or click on continue to begin. ",,,5c2befdb805c1d0001b47296,40,2022-02-12_14h51.18.935,lexical_decision_task_DD_L6,2021.2.3,iPhone,62.5,,,,,,,,,,,,,,,,,,,,,,,,,,,,,,,,,,,,,,,,,,,,,,,,,,,,,,,,,,,,,,,,0,0,0,0,1,,,,,,,,,,,,,,
,0.126530612,-0.36122449,1,0,0,instr_done_button,,,,,,1,test,"In the next phase you will be presented with the words from the the first phase. Your job is to decide whether you remember seeing the word or not. If you remember seeing the word press ""old"" or type ""m"". If you do not remember seeing the word press ""new"" or type ""z"". Please press the space bar or click on continue to begin. ",,,5c2befdb805c1d0001b47296,40,2022-02-12_14h51.18.935,lexical_decision_task_DD_L6,2021.2.3,iPhone,62.5,,,,,,,,,,,,,,,,,,,,,,,,,,,,,,,,,,,,,,,,,,,,,,,,,,,,,,,,,,,,,,,,1,0,1,0,1,,,,,,,,,,,,,,
,0.106122449,-0.398979592,1,0,0,instr_done_button,,,,,,1,test,"In the next phase you will be presented with the words from the the first phase. Your job is to decide whether you remember seeing the word or not. If you remember seeing the word press ""old"" or type ""m"". If you do not remember seeing the word press ""new"" or type ""z"". Please press the space bar or click on continue to begin. ",,,5c2befdb805c1d0001b47296,40,2022-02-12_14h51.18.935,lexical_decision_task_DD_L6,2021.2.3,iPhone,62.5,,,,,,,,,,,,,,,,,,,,,,,,,,,,,,,,,,,,,,,,,,,,,,,,,,,,,,,,,,,,,,,,2,0,2,0,1,,,,,,,,,,,,,,
,-0.119387755,-0.407142857,1,0,0,instr_done_button,,,,,,1,test,"In the next phase you will be presented with the words from the the first phase. Your job is to decide whether you remember seeing the word or not. If you remember seeing the word press ""old"" or type ""m"". If you do not remember seeing the word press ""new"" or type ""z"". Please press the space bar or click on continue to begin. ",,,5c2befdb805c1d0001b47296,40,2022-02-12_14h51.18.935,lexical_decision_task_DD_L6,2021.2.3,iPhone,62.5,,,,,,,,,,,,,,,,,,,,,,,,,,,,,,,,,,,,,,,,,,,,,,,,,,,,,,,,,,,,,,,,3,0,3,0,1,,,,,,,,,,,,,,
,-0.05,-0.390816327,1,0,0,instr_done_button,,,,,,1,test,"In the next phase you will be presented with the words from the the first phase. Your job is to decide whether you remember seeing the word or not. If you remember seeing the word press ""old"" or type ""m"". If you do not remember seeing the word press ""new"" or type ""z"". Please press the space bar or click on continue to begin. ",,,5c2befdb805c1d0001b47296,40,2022-02-12_14h51.18.935,lexical_decision_task_DD_L6,2021.2.3,iPhone,62.5,,,,,,,,,,,,,,,,,,,,,,,,,,,,,,,,,,,,,,,,,,,,,,,,,,,,,,,,,,,,,,,,4,0,4,0,1,,,,,,,,,,,,,,
,,,,,,,,,,,,,,,,,5c2befdb805c1d0001b47296,40,2022-02-12_14h51.18.935,lexical_decision_task_DD_L6,2021.2.3,iPhone,62.5,,,,,,,,,,1.97,0,,,,,,,,,,,,,,,,,,,,,,,0.416326531,-0.27244898,1,0,0,,,,,,,SQUARE,LB,z,y,./images/SQUARELB.png,,,,,,,,,,,,,,,,,,,,,0,0.416326531,-0.27244898,1,0,0,1.97,button_right_test,0,0,0,90,1
,,,,,,,,,,,,,,,,,5c2befdb805c1d0001b47296,40,2022-02-12_14h51.18.935,lexical_decision_task_DD_L6,2021.2.3,iPhone,62.5,,,,,,,,,,1.121,1,,,,,,,,,,,,,,,,,,,,,,,0.397959184,-0.283673469,1,0,0,,,,,,,PARADE,HB,m,y,./images/PARADEHB.png,,,,,,,,,,,,,,,,,,,,,0,0.397959184,-0.283673469,1,0,0,1.121,button_right_test,0,1,1,17,1
,,,,,,,,,,,,,,,,,5c2befdb805c1d0001b47296,40,2022-02-12_14h51.18.935,lexical_decision_task_DD_L6,2021.2.3,iPhone,62.5,,,,,,,,,,0.592,0,,,,,,,,,,,,,,,,,,,,,,,0.379591837,-0.316326531,1,0,0,,,,,,,PURSE,HB,z,y,./images/PURSEHB.png,,,,,,,,,,,,,,,,,,,,,0,0.379591837,-0.316326531,1,0,0,0.592,button_right_test,0,2,2,146,1
,,,,,,,,,,,,,,,,,5c2befdb805c1d0001b47296,40,2022-02-12_14h51.18.935,lexical_decision_task_DD_L6,2021.2.3,iPhone,62.5,,,,,,,,,,0.671,1,,,,,,,,,,,,,,,,,,,,,,,0.396938776,-0.302040816,1,0,0,,,,,,,LLAMA,HB,m,y,./images/LLAMAHB.png,,,,,,,,,,,,,,,,,,,,,0,0.396938776,-0.302040816,1,0,0,0.671,button_right_test,0,3,3,35,1
,,,,,,,,,,,,,,,,,5c2befdb805c1d0001b47296,40,2022-02-12_14h51.18.935,lexical_decision_task_DD_L6,2021.2.3,iPhone,62.5,,,,,,,,,,0.554,1,,,,,,,,,,,,,,,,,,,,,,,0.390816327,-0.317346939,1,0,0,,,,,,,WAGON,C,m,y,./images/WAGON.png,,,,,,,,,,,,,,,,,,,,,0,0.390816327,-0.317346939,1,0,0,0.554,button_right_test,0,4,4,7,1
,,,,,,,,,,,,,,,,,5c2befdb805c1d0001b47296,40,2022-02-12_14h51.18.935,lexical_decision_task_DD_L6,2021.2.3,iPhone,62.5,,,,,,,,,,0.671,1,,,,,,,,,,,,,,,,,,,,,,,0.402040816,-0.284693878,1,0,0,,,,,,,FLASK,LB,m,y,./images/FLASKLB.png,,,,,,,,,,,,,,,,,,,,,0,0.402040816,-0.284693878,1,0,0,0.671,button_right_test,0,5,5,72,1
,,,,,,,,,,,,,,,,,5c2befdb805c1d0001b47296,40,2022-02-12_14h51.18.935,lexical_decision_task_DD_L6,2021.2.3,iPhone,62.5,,,,,,,,,,1.023,0,,,,,,,,,,,,,,,,,,,,,,,0.408163265,-0.273469388,1,0,0,,,,,,,DRUMS,C,z,y,./images/DRUMS.png,,,,,,,,,,,,,,,,,,,,,0,0.408163265,-0.273469388,1,0,0,1.023,button_right_test,0,6,6,133,1
,,,,,,,,,,,,,,,,,5c2befdb805c1d0001b47296,40,2022-02-12_14h51.18.935,lexical_decision_task_DD_L6,2021.2.3,iPhone,62.5,,,,,,,,,,0.671,0,,,,,,,,,,,,,,,,,,,,,,,0.352040816,-0.28877551,1,0,0,,,,,,,SWEAT,LB,z,y,./images/SWEATLB.png,,,,,,,,,,,,,,,,,,,,,0,0.352040816,-0.28877551,1,0,0,0.671,button_right_test,0,7,7,150,1
,,,,,,,,,,,,,,,,,5c2befdb805c1d0001b47296,40,2022-02-12_14h51.18.935,lexical_decision_task_DD_L6,2021.2.3,iPhone,62.5,,,,,,,,,,0.888,1,,,,,,,,,,,,,,,,,,,,,,,-0.384693878,-0.326530612,1,0,0,,,,,,,INFANT,C,z,y,./images/INFANT.png,,,,,,,,,,,,,,,,,,,,,0,-0.384693878,-0.326530612,1,0,0,0.888,button_left_test,0,8,8,160,1
,,,,,,,,,,,,,,,,,5c2befdb805c1d0001b47296,40,2022-02-12_14h51.18.935,lexical_decision_task_DD_L6,2021.2.3,iPhone,62.5,,,,,,,,,,1.09,0,,,,,,,,,,,,,,,,,,,,,,,0.375510204,-0.295918367,1,0,0,,,,,,,CANDLE,C,z,y,./images/CANDLE.png,,,,,,,,,,,,,,,,,,,,,0,0.375510204,-0.295918367,1,0,0,1.09,button_right_test,0,9,9,145,1
,,,,,,,,,,,,,,,,,5c2befdb805c1d0001b47296,40,2022-02-12_14h51.18.935,lexical_decision_task_DD_L6,2021.2.3,iPhone,62.5,,,,,,,,,,0.952,1,,,,,,,,,,,,,,,,,,,,,,,0.4,-0.291836735,1,0,0,,,,,,,ARROW,LB,m,y,./images/ARROWLB.png,,,,,,,,,,,,,,,,,,,,,0,0.4,-0.291836735,1,0,0,0.952,button_right_test,0,10,10,69,1
,,,,,,,,,,,,,,,,,5c2befdb805c1d0001b47296,40,2022-02-12_14h51.18.935,lexical_decision_task_DD_L6,2021.2.3,iPhone,62.5,,,,,,,,,,0.522,1,,,,,,,,,,,,,,,,,,,,,,,0.4,-0.287755102,1,0,0,,,,,,,JUMPER,HB,m,y,./images/JUMPERHB.png,,,,,,,,,,,,,,,,,,,,,0,0.4,-0.287755102,1,0,0,0.522,button_right_test,0,11,11,74,1
,,,,,,,,,,,,,,,,,5c2befdb805c1d0001b47296,40,2022-02-12_14h51.18.935,lexical_decision_task_DD_L6,2021.2.3,iPhone,62.5,,,,,,,,,,0.539,0,,,,,,,,,,,,,,,,,,,,,,,0.374489796,-0.313265306,1,0,0,,,,,,,SNACK,C,z,y,./images/SNACK.png,,,,,,,,,,,,,,,,,,,,,0,0.374489796,-0.313265306,1,0,0,0.539,button_right_test,0,12,12,157,1
,,,,,,,,,,,,,,,,,5c2befdb805c1d0001b47296,40,2022-02-12_14h51.18.935,lexical_decision_task_DD_L6,2021.2.3,iPhone,62.5,,,,,,,,,,0.855,1,,,,,,,,,,,,,,,,,,,,,,,0.373469388,-0.297959184,1,0,0,,,,,,,BROOM,LB,m,y,./images/BROOMLB.png,,,,,,,,,,,,,,,,,,,,,0,0.373469388,-0.297959184,1,0,0,0.855,button_right_test,0,13,13,78,1
,,,,,,,,,,,,,,,,,5c2befdb805c1d0001b47296,40,2022-02-12_14h51.18.935,lexical_decision_task_DD_L6,2021.2.3,iPhone,62.5,,,,,,,,,,0.654,0,,,,,,,,,,,,,,,,,,,,,,,0.354081633,-0.314285714,1,0,0,,,,,,,MALLET,HB,z,y,./images/MALLETHB.png,,,,,,,,,,,,,,,,,,,,,0,0.354081633,-0.314285714,1,0,0,0.654,button_right_test,0,14,14,134,1
,,,,,,,,,,,,,,,,,5c2befdb805c1d0001b47296,40,2022-02-12_14h51.18.935,lexical_decision_task_DD_L6,2021.2.3,iPhone,62.5,,,,,,,,,,1.188,1,,,,,,,,,,,,,,,,,,,,,,,-0.410204082,-0.303061224,1,0,0,,,,,,,GRAIN,LB,z,y,./images/GRAINLB.png,,,,,,,,,,,,,,,,,,,,,0,-0.410204082,-0.303061224,1,0,0,1.188,button_left_test,0,15,15,159,1
,,,,,,,,,,,,,,,,,5c2befdb805c1d0001b47296,40,2022-02-12_14h51.18.935,lexical_decision_task_DD_L6,2021.2.3,iPhone,62.5,,,,,,,,,,0.706,1,,,,,,,,,,,,,,,,,,,,,,,0.380612245,-0.275510204,1,0,0,,,,,,,TOWEL,C,m,y,./images/TOWEL.png,,,,,,,,,,,,,,,,,,,,,0,0.380612245,-0.275510204,1,0,0,0.706,button_right_test,0,16,16,1,1
,,,,,,,,,,,,,,,,,5c2befdb805c1d0001b47296,40,2022-02-12_14h51.18.935,lexical_decision_task_DD_L6,2021.2.3,iPhone,62.5,,,,,,,,,,0.638,1,,,,,,,,,,,,,,,,,,,,,,,0.37244898,-0.293877551,1,0,0,,,,,,,STEAK,C,m,y,./images/STEAK.png,,,,,,,,,,,,,,,,,,,,,0,0.37244898,-0.293877551,1,0,0,0.638,button_right_test,0,17,17,31,1
,,,,,,,,,,,,,,,,,5c2befdb805c1d0001b47296,40,2022-02-12_14h51.18.935,lexical_decision_task_DD_L6,2021.2.3,iPhone,62.5,,,,,,,,,,0.516,0,,,,,,,,,,,,,,,,,,,,,,,0.374489796,-0.292857143,1,0,0,,,,,,,MIRROR,LB,z,y,./images/MIRRORLB.png,,,,,,,,,,,,,,,,,,,,,0,0.374489796,-0.292857143,1,0,0,0.516,button_right_test,0,18,18,147,1
,,,,,,,,,,,,,,,,,5c2befdb805c1d0001b47296,40,2022-02-12_14h51.18.935,lexical_decision_task_DD_L6,2021.2.3,iPhone,62.5,,,,,,,,,,0.988,0,,,,,,,,,,,,,,,,,,,,,,,0.381632653,-0.279591837,1,0,0,,,,,,,FARMER,HB,z,y,./images/FARMERHB.png,,,,,,,,,,,,,,,,,,,,,0,0.381632653,-0.279591837,1,0,0,0.988,button_right_test,0,19,19,149,1
,,,,,,,,,,,,,,,,,5c2befdb805c1d0001b47296,40,2022-02-12_14h51.18.935,lexical_decision_task_DD_L6,2021.2.3,iPhone,62.5,,,,,,,,,,1.054,1,,,,,,,,,,,,,,,,,,,,,,,-0.415306122,-0.302040816,1,0,0,,,,,,,POODLE,LB,z,y,./images/POODLELB.png,,,,,,,,,,,,,,,,,,,,,0,-0.415306122,-0.302040816,1,0,0,1.054,button_left_test,0,20,20,165,1
,,,,,,,,,,,,,,,,,5c2befdb805c1d0001b47296,40,2022-02-12_14h51.18.935,lexical_decision_task_DD_L6,2021.2.3,iPhone,62.5,,,,,,,,,,1.069,0,,,,,,,,,,,,,,,,,,,,,,,-0.419387755,-0.315306122,1,0,0,,,,,,,CLIFF,HB,m,y,./images/CLIFFHB.png,,,,,,,,,,,,,,,,,,,,,0,-0.419387755,-0.315306122,1,0,0,1.069,button_left_test,0,21,21,8,1
,,,,,,,,,,,,,,,,,5c2befdb805c1d0001b47296,40,2022-02-12_14h51.18.935,lexical_decision_task_DD_L6,2021.2.3,iPhone,62.5,,,,,,,,,,0.689,1,,,,,,,,,,,,,,,,,,,,,,,0.375510204,-0.304081633,1,0,0,,,,,,,BAMBOO,HB,m,y,./images/BAMBOOHB.png,,,,,,,,,,,,,,,,,,,,,0,0.375510204,-0.304081633,1,0,0,0.689,button_right_test,0,22,22,5,1
,,,,,,,,,,,,,,,,,5c2befdb805c1d0001b47296,40,2022-02-12_14h51.18.935,lexical_decision_task_DD_L6,2021.2.3,iPhone,62.5,,,,,,,,,,0.695,1,,,,,,,,,,,,,,,,,,,,,,,0.384693878,-0.274489796,1,0,0,,,,,,,PISTOL,HB,m,y,./images/PISTOLHB.png,,,,,,,,,,,,,,,,,,,,,0,0.384693878,-0.274489796,1,0,0,0.695,button_right_test,0,23,23,29,1
,,,,,,,,,,,,,,,,,5c2befdb805c1d0001b47296,40,2022-02-12_14h51.18.935,lexical_decision_task_DD_L6,2021.2.3,iPhone,62.5,,,,,,,,,,1.426,0,,,,,,,,,,,,,,,,,,,,,,,-0.412244898,-0.312244898,1,0,0,,,,,,,BUNNY,C,m,y,./images/BUNNY.png,,,,,,,,,,,,,,,,,,,,,0,-0.412244898,-0.312244898,1,0,0,1.426,button_left_test,0,24,24,13,1
,,,,,,,,,,,,,,,,,5c2befdb805c1d0001b47296,40,2022-02-12_14h51.18.935,lexical_decision_task_DD_L6,2021.2.3,iPhone,62.5,,,,,,,,,,1.439,1,,,,,,,,,,,,,,,,,,,,,,,0.382653061,-0.27244898,1,0,0,,,,,,,PARCEL,LB,m,y,./images/PARCELLB.png,,,,,,,,,,,,,,,,,,,,,0,0.382653061,-0.27244898,1,0,0,1.439,button_right_test,0,25,25,18,1
,,,,,,,,,,,,,,,,,5c2befdb805c1d0001b47296,40,2022-02-12_14h51.18.935,lexical_decision_task_DD_L6,2021.2.3,iPhone,62.5,,,,,,,,,,0.836,1,,,,,,,,,,,,,,,,,,,,,,,-0.423469388,-0.303061224,1,0,0,,,,,,,JAGUAR,LB,z,y,./images/JAGUARLB.png,,,,,,,,,,,,,,,,,,,,,0,-0.423469388,-0.303061224,1,0,0,0.836,button_left_test,0,26,26,102,1
,,,,,,,,,,,,,,,,,5c2befdb805c1d0001b47296,40,2022-02-12_14h51.18.935,lexical_decision_task_DD_L6,2021.2.3,iPhone,62.5,,,,,,,,,,1.752,0,,,,,,,,,,,,,,,,,,,,,,,-0.413265306,-0.321428571,1,0,0,,,,,,,STAIN,LB,m,y,./images/STAINLB.png,,,,,,,,,,,,,,,,,,,,,0,-0.413265306,-0.321428571,1,0,0,1.752,button_left_test,0,27,27,6,1
,,,,,,,,,,,,,,,,,5c2befdb805c1d0001b47296,40,2022-02-12_14h51.18.935,lexical_decision_task_DD_L6,2021.2.3,iPhone,62.5,,,,,,,,,,0.79,1,,,,,,,,,,,,,,,,,,,,,,,0.37755102,-0.281632653,1,0,0,,,,,,,GARDEN,C,m,y,./images/GARDEN.png,,,,,,,,,,,,,,,,,,,,,0,0.37755102,-0.281632653,1,0,0,0.79,button_right_test,0,28,28,10,1
,,,,,,,,,,,,,,,,,5c2befdb805c1d0001b47296,40,2022-02-12_14h51.18.935,lexical_decision_task_DD_L6,2021.2.3,iPhone,62.5,,,,,,,,,,0.902,1,,,,,,,,,,,,,,,,,,,,,,,-0.419387755,-0.321428571,1,0,0,,,,,,,URINE,C,z,y,./images/URINE.png,,,,,,,,,,,,,,,,,,,,,0,-0.419387755,-0.321428571,1,0,0,0.902,button_left_test,0,29,29,154,1
,,,,,,,,,,,,,,,,,5c2befdb805c1d0001b47296,40,2022-02-12_14h51.18.935,lexical_decision_task_DD_L6,2021.2.3,iPhone,62.5,,,,,,,,,,1.272,1,,,,,,,,,,,,,,,,,,,,,,,-0.419387755,-0.317346939,1,0,0,,,,,,,WRIST,C,z,y,./images/WRIST.png,,,,,,,,,,,,,,,,,,,,,0,-0.419387755,-0.317346939,1,0,0,1.272,button_left_test,0,30,30,109,1
,,,,,,,,,,,,,,,,,5c2befdb805c1d0001b47296,40,2022-02-12_14h51.18.935,lexical_decision_task_DD_L6,2021.2.3,iPhone,62.5,,,,,,,,,,0.689,0,,,,,,,,,,,,,,,,,,,,,,,0.375510204,-0.274489796,1,0,0,,,,,,,SHELF,LB,z,y,./images/SHELFLB.png,,,,,,,,,,,,,,,,,,,,,0,0.375510204,-0.274489796,1,0,0,0.689,button_right_test,0,31,31,123,1
,,,,,,,,,,,,,,,,,5c2befdb805c1d0001b47296,40,2022-02-12_14h51.18.935,lexical_decision_task_DD_L6,2021.2.3,iPhone,62.5,,,,,,,,,,0.621,1,,,,,,,,,,,,,,,,,,,,,,,0.420408163,-0.319387755,1,0,0,,,,,,,TIGER,C,m,y,./images/TIGER.png,,,,,,,,,,,,,,,,,,,,,0,0.420408163,-0.319387755,1,0,0,0.621,button_right_test,0,32,32,37,1
,,,,,,,,,,,,,,,,,5c2befdb805c1d0001b47296,40,2022-02-12_14h51.18.935,lexical_decision_task_DD_L6,2021.2.3,iPhone,62.5,,,,,,,,,,0.706,1,,,,,,,,,,,,,,,,,,,,,,,0.408163265,-0.289795918,1,0,0,,,,,,,RULER,C,m,y,./images/RULER.png,,,,,,,,,,,,,,,,,,,,,0,0.408163265,-0.289795918,1,0,0,0.706,button_right_test,0,33,33,79,1
,,,,,,,,,,,,,,,,,5c2befdb805c1d0001b47296,40,2022-02-12_14h51.18.935,lexical_decision_task_DD_L6,2021.2.3,iPhone,62.5,,,,,,,,,,0.821,1,,,,,,,,,,,,,,,,,,,,,,,-0.4,-0.326530612,1,0,0,,,,,,,PASTA,HB,z,y,./images/PASTAHB.png,,,,,,,,,,,,,,,,,,,,,0,-0.4,-0.326530612,1,0,0,0.821,button_left_test,0,34,34,89,1
,,,,,,,,,,,,,,,,,5c2befdb805c1d0001b47296,40,2022-02-12_14h51.18.935,lexical_decision_task_DD_L6,2021.2.3,iPhone,62.5,,,,,,,,,,0.569,0,,,,,,,,,,,,,,,,,,,,,,,0.392857143,-0.290816327,1,0,0,,,,,,,STRING,HB,z,y,./images/STRINGHB.png,,,,,,,,,,,,,,,,,,,,,0,0.392857143,-0.290816327,1,0,0,0.569,button_right_test,0,35,35,125,1
,,,,,,,,,,,,,,,,,5c2befdb805c1d0001b47296,40,2022-02-12_14h51.18.935,lexical_decision_task_DD_L6,2021.2.3,iPhone,62.5,,,,,,,,,,0.939,0,,,,,,,,,,,,,,,,,,,,,,,-0.43877551,-0.326530612,1,0,0,,,,,,,HOCKEY,HB,m,y,./images/HOCKEYHB.png,,,,,,,,,,,,,,,,,,,,,0,-0.43877551,-0.326530612,1,0,0,0.939,button_left_test,0,36,36,32,1
,,,,,,,,,,,,,,,,,5c2befdb805c1d0001b47296,40,2022-02-12_14h51.18.935,lexical_decision_task_DD_L6,2021.2.3,iPhone,62.5,,,,,,,,,,0.688,1,,,,,,,,,,,,,,,,,,,,,,,0.402040816,-0.270408163,1,0,0,,,,,,,SPINE,HB,m,y,./images/SPINEHB.png,,,,,,,,,,,,,,,,,,,,,0,0.402040816,-0.270408163,1,0,0,0.688,button_right_test,0,37,37,65,1
,,,,,,,,,,,,,,,,,5c2befdb805c1d0001b47296,40,2022-02-12_14h51.18.935,lexical_decision_task_DD_L6,2021.2.3,iPhone,62.5,,,,,,,,,,1.422,1,,,,,,,,,,,,,,,,,,,,,,,-0.334693878,-0.285714286,1,0,0,,,,,,,MOTOR,C,z,y,./images/MOTOR.png,,,,,,,,,,,,,,,,,,,,,0,-0.334693878,-0.285714286,1,0,0,1.422,button_left_test,0,38,38,97,1
,,,,,,,,,,,,,,,,,5c2befdb805c1d0001b47296,40,2022-02-12_14h51.18.935,lexical_decision_task_DD_L6,2021.2.3,iPhone,62.5,,,,,,,,,,0.973,1,,,,,,,,,,,,,,,,,,,,,,,0.348979592,-0.326530612,1,0,0,,,,,,,DONKEY,C,m,y,./images/DONKEY.png,,,,,,,,,,,,,,,,,,,,,0,0.348979592,-0.326530612,1,0,0,0.973,button_right_test,0,39,39,19,1
,,,,,,,,,,,,,,,,,5c2befdb805c1d0001b47296,40,2022-02-12_14h51.18.935,lexical_decision_task_DD_L6,2021.2.3,iPhone,62.5,,,,,,,,,,0.805,1,,,,,,,,,,,,,,,,,,,,,,,0.340816327,-0.32244898,1,0,0,,,,,,,POSTER,HB,m,y,./images/POSTERHB.png,,,,,,,,,,,,,,,,,,,,,0,0.340816327,-0.32244898,1,0,0,0.805,button_right_test,0,40,40,53,1
,,,,,,,,,,,,,,,,,5c2befdb805c1d0001b47296,40,2022-02-12_14h51.18.935,lexical_decision_task_DD_L6,2021.2.3,iPhone,62.5,,,,,,,,,,0.688,1,,,,,,,,,,,,,,,,,,,,,,,0.078571429,-0.386734694,1,0,0,,,,,,,RAZOR,C,m,y,./images/RAZOR.png,break_done_button,,,,,,,,,,,,,,,,,,,,0,0.336734694,-0.328571429,1,0,0,0.688,button_right_test,0,41,41,34,1
,,,,,,,,,,,,,,,,,5c2befdb805c1d0001b47296,40,2022-02-12_14h51.18.935,lexical_decision_task_DD_L6,2021.2.3,iPhone,62.5,,,,,,,,,,0.854,1,,,,,,,,,,,,,,,,,,,,,,,0.32244898,-0.325510204,1,0,0,,,,,,,MUMMY,C,m,y,./images/MUMMY.png,,,,,,,,,,,,,,,,,,,,,0,0.32244898,-0.325510204,1,0,0,0.854,button_right_test,0,42,42,46,1
,,,,,,,,,,,,,,,,,5c2befdb805c1d0001b47296,40,2022-02-12_14h51.18.935,lexical_decision_task_DD_L6,2021.2.3,iPhone,62.5,,,,,,,,,,1.053,1,,,,,,,,,,,,,,,,,,,,,,,0.339795918,-0.324489796,1,0,0,,,,,,,STOOL,C,m,y,./images/STOOL.png,,,,,,,,,,,,,,,,,,,,,0,0.339795918,-0.324489796,1,0,0,1.053,button_right_test,0,43,43,43,1
,,,,,,,,,,,,,,,,,5c2befdb805c1d0001b47296,40,2022-02-12_14h51.18.935,lexical_decision_task_DD_L6,2021.2.3,iPhone,62.5,,,,,,,,,,0.888,1,,,,,,,,,,,,,,,,,,,,,,,-0.392857143,-0.28877551,1,0,0,,,,,,,WEASEL,HB,z,y,./images/WEASELHB.png,,,,,,,,,,,,,,,,,,,,,0,-0.392857143,-0.28877551,1,0,0,0.888,button_left_test,0,44,44,164,1
,,,,,,,,,,,,,,,,,5c2befdb805c1d0001b47296,40,2022-02-12_14h51.18.935,lexical_decision_task_DD_L6,2021.2.3,iPhone,62.5,,,,,,,,,,0.888,1,,,,,,,,,,,,,,,,,,,,,,,-0.395918367,-0.333673469,1,0,0,,,,,,,LIZARD,HB,z,y,./images/LIZARDHB.png,,,,,,,,,,,,,,,,,,,,,0,-0.395918367,-0.333673469,1,0,0,0.888,button_left_test,0,45,45,128,1
,,,,,,,,,,,,,,,,,5c2befdb805c1d0001b47296,40,2022-02-12_14h51.18.935,lexical_decision_task_DD_L6,2021.2.3,iPhone,62.5,,,,,,,,,,0.87,1,,,,,,,,,,,,,,,,,,,,,,,0.375510204,-0.285714286,1,0,0,,,,,,,MAMMAL,HB,m,y,./images/MAMMALHB.png,,,,,,,,,,,,,,,,,,,,,0,0.375510204,-0.285714286,1,0,0,0.87,button_right_test,0,46,46,62,1
,,,,,,,,,,,,,,,,,5c2befdb805c1d0001b47296,40,2022-02-12_14h51.18.935,lexical_decision_task_DD_L6,2021.2.3,iPhone,62.5,,,,,,,,,,1.419,0,,,,,,,,,,,,,,,,,,,,,,,-0.369387755,-0.320408163,1,0,0,,,,,,,BOILER,LB,m,y,./images/BOILERLB.png,,,,,,,,,,,,,,,,,,,,,0,-0.369387755,-0.320408163,1,0,0,1.419,button_left_test,0,47,47,36,1
,,,,,,,,,,,,,,,,,5c2befdb805c1d0001b47296,40,2022-02-12_14h51.18.935,lexical_decision_task_DD_L6,2021.2.3,iPhone,62.5,,,,,,,,,,2.624,1,,,,,,,,,,,,,,,,,,,,,,,0.36122449,-0.283673469,1,0,0,,,,,,,CURRY,LB,m,y,./images/CURRYLB.png,,,,,,,,,,,,,,,,,,,,,0,0.36122449,-0.283673469,1,0,0,2.624,button_right_test,0,48,48,60,1
,,,,,,,,,,,,,,,,,5c2befdb805c1d0001b47296,40,2022-02-12_14h51.18.935,lexical_decision_task_DD_L6,2021.2.3,iPhone,62.5,,,,,,,,,,1.503,1,,,,,,,,,,,,,,,,,,,,,,,-0.348979592,-0.302040816,1,0,0,,,,,,,TRIPOD,LB,z,y,./images/TRIPODLB.png,,,,,,,,,,,,,,,,,,,,,0,-0.348979592,-0.302040816,1,0,0,1.503,button_left_test,0,49,49,138,1
,,,,,,,,,,,,,,,,,5c2befdb805c1d0001b47296,40,2022-02-12_14h51.18.935,lexical_decision_task_DD_L6,2021.2.3,iPhone,62.5,,,,,,,,,,0.654,0,,,,,,,,,,,,,,,,,,,,,,,0.37755102,-0.281632653,1,0,0,,,,,,,THROAT,LB,z,y,./images/THROATLB.png,,,,,,,,,,,,,,,,,,,,,0,0.37755102,-0.281632653,1,0,0,0.654,button_right_test,0,50,50,120,1
,,,,,,,,,,,,,,,,,5c2befdb805c1d0001b47296,40,2022-02-12_14h51.18.935,lexical_decision_task_DD_L6,2021.2.3,iPhone,62.5,,,,,,,,,,1.089,0,,,,,,,,,,,,,,,,,,,,,,,0.357142857,-0.293877551,1,0,0,,,,,,,SPORT,LB,z,y,./images/SPORTLB.png,,,,,,,,,,,,,,,,,,,,,0,0.357142857,-0.293877551,1,0,0,1.089,button_right_test,0,51,51,132,1
,,,,,,,,,,,,,,,,,5c2befdb805c1d0001b47296,40,2022-02-12_14h51.18.935,lexical_decision_task_DD_L6,2021.2.3,iPhone,62.5,,,,,,,,,,0.721,1,,,,,,,,,,,,,,,,,,,,,,,-0.359183673,-0.328571429,1,0,0,,,,,,,BELLY,C,z,y,./images/BELLY.png,,,,,,,,,,,,,,,,,,,,,0,-0.359183673,-0.328571429,1,0,0,0.721,button_left_test,0,52,52,94,1
,,,,,,,,,,,,,,,,,5c2befdb805c1d0001b47296,40,2022-02-12_14h51.18.935,lexical_decision_task_DD_L6,2021.2.3,iPhone,62.5,,,,,,,,,,1.055,1,,,,,,,,,,,,,,,,,,,,,,,0.367346939,-0.31122449,1,0,0,,,,,,,WHISKY,HB,m,y,./images/WHISKYHB.png,,,,,,,,,,,,,,,,,,,,,0,0.367346939,-0.31122449,1,0,0,1.055,button_right_test,0,53,53,83,1
,,,,,,,,,,,,,,,,,5c2befdb805c1d0001b47296,40,2022-02-12_14h51.18.935,lexical_decision_task_DD_L6,2021.2.3,iPhone,62.5,,,,,,,,,,0.821,1,,,,,,,,,,,,,,,,,,,,,,,-0.344897959,-0.308163265,1,0,0,,,,,,,FALCON,C,z,y,./images/FALCON.png,,,,,,,,,,,,,,,,,,,,,0,-0.344897959,-0.308163265,1,0,0,0.821,button_left_test,0,54,54,112,1
,,,,,,,,,,,,,,,,,5c2befdb805c1d0001b47296,40,2022-02-12_14h51.18.935,lexical_decision_task_DD_L6,2021.2.3,iPhone,62.5,,,,,,,,,,0.738,1,,,,,,,,,,,,,,,,,,,,,,,0.416326531,-0.284693878,1,0,0,,,,,,,CANOE,C,m,y,./images/CANOE.png,,,,,,,,,,,,,,,,,,,,,0,0.416326531,-0.284693878,1,0,0,0.738,button_right_test,0,55,55,58,1
,,,,,,,,,,,,,,,,,5c2befdb805c1d0001b47296,40,2022-02-12_14h51.18.935,lexical_decision_task_DD_L6,2021.2.3,iPhone,62.5,,,,,,,,,,1.205,1,,,,,,,,,,,,,,,,,,,,,,,0.325510204,-0.323469388,1,0,0,,,,,,,DANCER,LB,m,y,./images/DANCERLB.png,,,,,,,,,,,,,,,,,,,,,0,0.325510204,-0.323469388,1,0,0,1.205,button_right_test,0,56,56,21,1
,,,,,,,,,,,,,,,,,5c2befdb805c1d0001b47296,40,2022-02-12_14h51.18.935,lexical_decision_task_DD_L6,2021.2.3,iPhone,62.5,,,,,,,,,,1.639,1,,,,,,,,,,,,,,,,,,,,,,,0.341836735,-0.301020408,1,0,0,,,,,,,MIDGET,C,m,y,./images/MIDGET.png,,,,,,,,,,,,,,,,,,,,,0,0.341836735,-0.301020408,1,0,0,1.639,button_right_test,0,57,57,76,1
,,,,,,,,,,,,,,,,,5c2befdb805c1d0001b47296,40,2022-02-12_14h51.18.935,lexical_decision_task_DD_L6,2021.2.3,iPhone,62.5,,,,,,,,,,0.603,1,,,,,,,,,,,,,,,,,,,,,,,0.344897959,-0.305102041,1,0,0,,,,,,,FENCE,HB,m,y,./images/FENCEHB.png,,,,,,,,,,,,,,,,,,,,,0,0.344897959,-0.305102041,1,0,0,0.603,button_right_test,0,58,58,14,1
,,,,,,,,,,,,,,,,,5c2befdb805c1d0001b47296,40,2022-02-12_14h51.18.935,lexical_decision_task_DD_L6,2021.2.3,iPhone,62.5,,,,,,,,,,0.655,1,,,,,,,,,,,,,,,,,,,,,,,0.364285714,-0.276530612,1,0,0,,,,,,,CRATER,LB,m,y,./images/CRATERLB.png,,,,,,,,,,,,,,,,,,,,,0,0.364285714,-0.276530612,1,0,0,0.655,button_right_test,0,59,59,3,1
,,,,,,,,,,,,,,,,,5c2befdb805c1d0001b47296,40,2022-02-12_14h51.18.935,lexical_decision_task_DD_L6,2021.2.3,iPhone,62.5,,,,,,,,,,0.62,1,,,,,,,,,,,,,,,,,,,,,,,0.353061224,-0.269387755,1,0,0,,,,,,,CLOUD,HB,m,y,./images/CLOUDHB.png,,,,,,,,,,,,,,,,,,,,,0,0.353061224,-0.269387755,1,0,0,0.62,button_right_test,0,60,60,26,1
,,,,,,,,,,,,,,,,,5c2befdb805c1d0001b47296,40,2022-02-12_14h51.18.935,lexical_decision_task_DD_L6,2021.2.3,iPhone,62.5,,,,,,,,,,0.871,1,,,,,,,,,,,,,,,,,,,,,,,-0.389795918,-0.330612245,1,0,0,,,,,,,MUFFIN,C,z,y,./images/MUFFIN.png,,,,,,,,,,,,,,,,,,,,,0,-0.389795918,-0.330612245,1,0,0,0.871,button_left_test,0,61,61,139,1
,,,,,,,,,,,,,,,,,5c2befdb805c1d0001b47296,40,2022-02-12_14h51.18.935,lexical_decision_task_DD_L6,2021.2.3,iPhone,62.5,,,,,,,,,,0.538,1,,,,,,,,,,,,,,,,,,,,,,,0.360204082,-0.3,1,0,0,,,,,,,BOXER,C,m,y,./images/BOXER.png,,,,,,,,,,,,,,,,,,,,,0,0.360204082,-0.3,1,0,0,0.538,button_right_test,0,62,62,4,1
,,,,,,,,,,,,,,,,,5c2befdb805c1d0001b47296,40,2022-02-12_14h51.18.935,lexical_decision_task_DD_L6,2021.2.3,iPhone,62.5,,,,,,,,,,1.206,1,,,,,,,,,,,,,,,,,,,,,,,-0.403061224,-0.312244898,1,0,0,,,,,,,CANYON,C,z,y,./images/CANYON.png,,,,,,,,,,,,,,,,,,,,,0,-0.403061224,-0.312244898,1,0,0,1.206,button_left_test,0,63,63,118,1
,,,,,,,,,,,,,,,,,5c2befdb805c1d0001b47296,40,2022-02-12_14h51.18.935,lexical_decision_task_DD_L6,2021.2.3,iPhone,62.5,,,,,,,,,,1.655,0,,,,,,,,,,,,,,,,,,,,,,,-0.413265306,-0.312244898,1,0,0,,,,,,,COLLAR,LB,m,y,./images/COLLARLB.png,,,,,,,,,,,,,,,,,,,,,0,-0.413265306,-0.312244898,1,0,0,1.655,button_left_test,0,64,64,15,1
,,,,,,,,,,,,,,,,,5c2befdb805c1d0001b47296,40,2022-02-12_14h51.18.935,lexical_decision_task_DD_L6,2021.2.3,iPhone,62.5,,,,,,,,,,0.538,1,,,,,,,,,,,,,,,,,,,,,,,0.36122449,-0.265306122,1,0,0,,,,,,,PILOT,HB,m,y,./images/PILOTHB.png,,,,,,,,,,,,,,,,,,,,,0,0.36122449,-0.265306122,1,0,0,0.538,button_right_test,0,65,65,50,1
,,,,,,,,,,,,,,,,,5c2befdb805c1d0001b47296,40,2022-02-12_14h51.18.935,lexical_decision_task_DD_L6,2021.2.3,iPhone,62.5,,,,,,,,,,0.822,1,,,,,,,,,,,,,,,,,,,,,,,0.35,-0.274489796,1,0,0,,,,,,,CHAIN,LB,m,y,./images/CHAINLB.png,,,,,,,,,,,,,,,,,,,,,0,0.35,-0.274489796,1,0,0,0.822,button_right_test,0,66,66,42,1
,,,,,,,,,,,,,,,,,5c2befdb805c1d0001b47296,40,2022-02-12_14h51.18.935,lexical_decision_task_DD_L6,2021.2.3,iPhone,62.5,,,,,,,,,,0.521,0,,,,,,,,,,,,,,,,,,,,,,,0.321428571,-0.284693878,1,0,0,,,,,,,PEARL,C,z,y,./images/PEARL.png,,,,,,,,,,,,,,,,,,,,,0,0.321428571,-0.284693878,1,0,0,0.521,button_right_test,0,67,67,130,1
,,,,,,,,,,,,,,,,,5c2befdb805c1d0001b47296,40,2022-02-12_14h51.18.935,lexical_decision_task_DD_L6,2021.2.3,iPhone,62.5,,,,,,,,,,0.538,0,,,,,,,,,,,,,,,,,,,,,,,0.341836735,-0.28877551,1,0,0,,,,,,,COUCH,HB,z,y,./images/COUCHHB.png,,,,,,,,,,,,,,,,,,,,,0,0.341836735,-0.28877551,1,0,0,0.538,button_right_test,0,68,68,161,1
,,,,,,,,,,,,,,,,,5c2befdb805c1d0001b47296,40,2022-02-12_14h51.18.935,lexical_decision_task_DD_L6,2021.2.3,iPhone,62.5,,,,,,,,,,1.44,0,,,,,,,,,,,,,,,,,,,,,,,-0.419387755,-0.330612245,1,0,0,,,,,,,BUBBLE,HB,m,y,./images/BUBBLEHB.png,,,,,,,,,,,,,,,,,,,,,0,-0.419387755,-0.330612245,1,0,0,1.44,button_left_test,0,69,69,71,1
,,,,,,,,,,,,,,,,,5c2befdb805c1d0001b47296,40,2022-02-12_14h51.18.935,lexical_decision_task_DD_L6,2021.2.3,iPhone,62.5,,,,,,,,,,1.638,1,,,,,,,,,,,,,,,,,,,,,,,-0.403061224,-0.32755102,1,0,0,,,,,,,PENCE,C,z,y,./images/PENCE.png,,,,,,,,,,,,,,,,,,,,,0,-0.403061224,-0.32755102,1,0,0,1.638,button_left_test,0,70,70,100,1
,,,,,,,,,,,,,,,,,5c2befdb805c1d0001b47296,40,2022-02-12_14h51.18.935,lexical_decision_task_DD_L6,2021.2.3,iPhone,62.5,,,,,,,,,,0.939,1,,,,,,,,,,,,,,,,,,,,,,,-0.417346939,-0.321428571,1,0,0,,,,,,,ONION,LB,z,y,./images/ONIONLB.png,,,,,,,,,,,,,,,,,,,,,0,-0.417346939,-0.321428571,1,0,0,0.939,button_left_test,0,71,71,135,1
,,,,,,,,,,,,,,,,,5c2befdb805c1d0001b47296,40,2022-02-12_14h51.18.935,lexical_decision_task_DD_L6,2021.2.3,iPhone,62.5,,,,,,,,,,1.672,1,,,,,,,,,,,,,,,,,,,,,,,-0.421428571,-0.32755102,1,0,0,,,,,,,FOLDER,LB,z,y,./images/FOLDERLB.png,,,,,,,,,,,,,,,,,,,,,0,-0.421428571,-0.32755102,1,0,0,1.672,button_left_test,0,72,72,126,1
,,,,,,,,,,,,,,,,,5c2befdb805c1d0001b47296,40,2022-02-12_14h51.18.935,lexical_decision_task_DD_L6,2021.2.3,iPhone,62.5,,,,,,,,,,0.805,0,,,,,,,,,,,,,,,,,,,,,,,-0.413265306,-0.330612245,1,0,0,,,,,,,BLOKE,LB,m,y,./images/BLOKELB.png,,,,,,,,,,,,,,,,,,,,,0,-0.413265306,-0.330612245,1,0,0,0.805,button_left_test,0,73,73,12,1
,,,,,,,,,,,,,,,,,5c2befdb805c1d0001b47296,40,2022-02-12_14h51.18.935,lexical_decision_task_DD_L6,2021.2.3,iPhone,62.5,,,,,,,,,,0.47,1,,,,,,,,,,,,,,,,,,,,,,,-0.4,-0.317346939,1,0,0,,,,,,,BIRTH,C,z,y,./images/BIRTH.png,,,,,,,,,,,,,,,,,,,,,0,-0.4,-0.317346939,1,0,0,0.47,button_left_test,0,74,74,121,1
,,,,,,,,,,,,,,,,,5c2befdb805c1d0001b47296,40,2022-02-12_14h51.18.935,lexical_decision_task_DD_L6,2021.2.3,iPhone,62.5,,,,,,,,,,0.657,0,,,,,,,,,,,,,,,,,,,,,,,0.380612245,-0.28877551,1,0,0,,,,,,,FINGER,LB,z,y,./images/FINGERLB.png,,,,,,,,,,,,,,,,,,,,,0,0.380612245,-0.28877551,1,0,0,0.657,button_right_test,0,75,75,87,1
,,,,,,,,,,,,,,,,,5c2befdb805c1d0001b47296,40,2022-02-12_14h51.18.935,lexical_decision_task_DD_L6,2021.2.3,iPhone,62.5,,,,,,,,,,0.938,1,,,,,,,,,,,,,,,,,,,,,,,-0.445918367,-0.330612245,1,0,0,,,,,,,DOUGH,C,z,y,./images/DOUGH.png,,,,,,,,,,,,,,,,,,,,,0,-0.445918367,-0.330612245,1,0,0,0.938,button_left_test,0,76,76,103,1
,,,,,,,,,,,,,,,,,5c2befdb805c1d0001b47296,40,2022-02-12_14h51.18.935,lexical_decision_task_DD_L6,2021.2.3,iPhone,62.5,,,,,,,,,,0.973,0,,,,,,,,,,,,,,,,,,,,,,,-0.444897959,-0.332653061,1,0,0,,,,,,,BUTTER,LB,m,y,./images/BUTTERLB.png,,,,,,,,,,,,,,,,,,,,,0,-0.444897959,-0.332653061,1,0,0,0.973,button_left_test,0,77,77,27,1
,,,,,,,,,,,,,,,,,5c2befdb805c1d0001b47296,40,2022-02-12_14h51.18.935,lexical_decision_task_DD_L6,2021.2.3,iPhone,62.5,,,,,,,,,,0.554,1,,,,,,,,,,,,,,,,,,,,,,,0.380612245,-0.278571429,1,0,0,,,,,,,LAGOON,HB,m,y,./images/LAGOONHB.png,,,,,,,,,,,,,,,,,,,,,0,0.380612245,-0.278571429,1,0,0,0.554,button_right_test,0,78,78,47,1
,,,,,,,,,,,,,,,,,5c2befdb805c1d0001b47296,40,2022-02-12_14h51.18.935,lexical_decision_task_DD_L6,2021.2.3,iPhone,62.5,,,,,,,,,,0.907,0,,,,,,,,,,,,,,,,,,,,,,,-0.437755102,-0.334693878,1,0,0,,,,,,,SAUNA,LB,m,y,./images/SAUNALB.png,,,,,,,,,,,,,,,,,,,,,0,-0.437755102,-0.334693878,1,0,0,0.907,button_left_test,0,79,79,33,1
,,,,,,,,,,,,,,,,,5c2befdb805c1d0001b47296,40,2022-02-12_14h51.18.935,lexical_decision_task_DD_L6,2021.2.3,iPhone,62.5,,,,,,,,,,0.739,0,,,,,,,,,,,,,,,,,,,,,,,-0.420408163,-0.331632653,1,0,0,,,,,,,VALLEY,HB,m,y,./images/VALLEYHB.png,,,,,,,,,,,,,,,,,,,,,0,-0.420408163,-0.331632653,1,0,0,0.739,button_left_test,0,80,80,68,1
,,,,,,,,,,,,,,,,,5c2befdb805c1d0001b47296,40,2022-02-12_14h51.18.935,lexical_decision_task_DD_L6,2021.2.3,iPhone,62.5,,,,,,,,,,1.356,0,,,,,,,,,,,,,,,,,,,,,,,0.374489796,-0.27755102,1,0,0,,,,,,,PICKLE,HB,z,y,./images/PICKLEHB.png,,,,,,,,,,,,,,,,,,,,,0,0.374489796,-0.27755102,1,0,0,1.356,button_right_test,0,81,81,98,1
,,,,,,,,,,,,,,,,,5c2befdb805c1d0001b47296,40,2022-02-12_14h51.18.935,lexical_decision_task_DD_L6,2021.2.3,iPhone,62.5,,,,,,,,,,1.672,0,,,,,,,,,,,,,,,,,,,,,,,0.365306122,-0.290816327,1,0,0,,,,,,,TORCH,HB,z,y,./images/TORCHHB.png,,,,,,,,,,,,,,,,,,,,,0,0.365306122,-0.290816327,1,0,0,1.672,button_right_test,0,82,82,152,1
,,,,,,,,,,,,,,,,,5c2befdb805c1d0001b47296,40,2022-02-12_14h51.18.935,lexical_decision_task_DD_L6,2021.2.3,iPhone,62.5,,,,,,,,,,0.871,1,,,,,,,,,,,,,,,,,,,,,,,-0.081632653,-0.398979592,1,0,0,,,,,,,HAMMER,LB,m,y,./images/HAMMERLB.png,break_done_button,,,,,,,,,,,,,,,,,,,,0,0.360204082,-0.268367347,1,0,0,0.871,button_right_test,0,83,83,75,1
,,,,,,,,,,,,,,,,,5c2befdb805c1d0001b47296,40,2022-02-12_14h51.18.935,lexical_decision_task_DD_L6,2021.2.3,iPhone,62.5,,,,,,,,,,0.789,1,,,,,,,,,,,,,,,,,,,,,,,0.358163265,-0.279591837,1,0,0,,,,,,,WHEEL,HB,m,y,./images/WHEELHB.png,,,,,,,,,,,,,,,,,,,,,0,0.358163265,-0.279591837,1,0,0,0.789,button_right_test,0,84,84,77,1
,,,,,,,,,,,,,,,,,5c2befdb805c1d0001b47296,40,2022-02-12_14h51.18.935,lexical_decision_task_DD_L6,2021.2.3,iPhone,62.5,,,,,,,,,,0.552,0,,,,,,,,,,,,,,,,,,,,,,,0.382653061,-0.268367347,1,0,0,,,,,,,TOMATO,LB,z,y,./images/TOMATOLB.png,,,,,,,,,,,,,,,,,,,,,0,0.382653061,-0.268367347,1,0,0,0.552,button_right_test,0,85,85,84,1
,,,,,,,,,,,,,,,,,5c2befdb805c1d0001b47296,40,2022-02-12_14h51.18.935,lexical_decision_task_DD_L6,2021.2.3,iPhone,62.5,,,,,,,,,,1.006,0,,,,,,,,,,,,,,,,,,,,,,,0.375510204,-0.25,1,0,0,,,,,,,BANNER,C,z,y,./images/BANNER.png,,,,,,,,,,,,,,,,,,,,,0,0.375510204,-0.25,1,0,0,1.006,button_right_test,0,86,86,136,1
,,,,,,,,,,,,,,,,,5c2befdb805c1d0001b47296,40,2022-02-12_14h51.18.935,lexical_decision_task_DD_L6,2021.2.3,iPhone,62.5,,,,,,,,,,0.486,1,,,,,,,,,,,,,,,,,,,,,,,0.347959184,-0.303061224,1,0,0,,,,,,,CLOWN,C,m,y,./images/CLOWN.png,,,,,,,,,,,,,,,,,,,,,0,0.347959184,-0.303061224,1,0,0,0.486,button_right_test,0,87,87,22,1
,,,,,,,,,,,,,,,,,5c2befdb805c1d0001b47296,40,2022-02-12_14h51.18.935,lexical_decision_task_DD_L6,2021.2.3,iPhone,62.5,,,,,,,,,,0.955,1,,,,,,,,,,,,,,,,,,,,,,,-0.408163265,-0.320408163,1,0,0,,,,,,,RHINO,LB,z,y,./images/RHINOLB.png,,,,,,,,,,,,,,,,,,,,,0,-0.408163265,-0.320408163,1,0,0,0.955,button_left_test,0,88,88,93,1
,,,,,,,,,,,,,,,,,5c2befdb805c1d0001b47296,40,2022-02-12_14h51.18.935,lexical_decision_task_DD_L6,2021.2.3,iPhone,62.5,,,,,,,,,,0.955,1,,,,,,,,,,,,,,,,,,,,,,,0.368367347,-0.293877551,1,0,0,,,,,,,GRANNY,HB,m,y,./images/GRANNYHB.png,,,,,,,,,,,,,,,,,,,,,0,0.368367347,-0.293877551,1,0,0,0.955,button_right_test,0,89,89,20,1
,,,,,,,,,,,,,,,,,5c2befdb805c1d0001b47296,40,2022-02-12_14h51.18.935,lexical_decision_task_DD_L6,2021.2.3,iPhone,62.5,,,,,,,,,,0.856,1,,,,,,,,,,,,,,,,,,,,,,,-0.416326531,-0.32755102,1,0,0,,,,,,,GREASE,LB,z,y,./images/GREASELB.png,,,,,,,,,,,,,,,,,,,,,0,-0.416326531,-0.32755102,1,0,0,0.856,button_left_test,0,90,90,99,1
,,,,,,,,,,,,,,,,,5c2befdb805c1d0001b47296,40,2022-02-12_14h51.18.935,lexical_decision_task_DD_L6,2021.2.3,iPhone,62.5,,,,,,,,,,1.025,1,,,,,,,,,,,,,,,,,,,,,,,0.368367347,-0.266326531,1,0,0,,,,,,,BRIDE,C,m,y,./images/BRIDE.png,,,,,,,,,,,,,,,,,,,,,0,0.368367347,-0.266326531,1,0,0,1.025,button_right_test,0,91,91,64,1
,,,,,,,,,,,,,,,,,5c2befdb805c1d0001b47296,40,2022-02-12_14h51.18.935,lexical_decision_task_DD_L6,2021.2.3,iPhone,62.5,,,,,,,,,,0.654,1,,,,,,,,,,,,,,,,,,,,,,,0.374489796,-0.282653061,1,0,0,,,,,,,CASINO,C,m,y,./images/CASINO.png,,,,,,,,,,,,,,,,,,,,,0,0.374489796,-0.282653061,1,0,0,0.654,button_right_test,0,92,92,28,1
,,,,,,,,,,,,,,,,,5c2befdb805c1d0001b47296,40,2022-02-12_14h51.18.935,lexical_decision_task_DD_L6,2021.2.3,iPhone,62.5,,,,,,,,,,0.471,0,,,,,,,,,,,,,,,,,,,,,,,0.363265306,-0.283673469,1,0,0,,,,,,,BERRY,HB,z,y,./images/BERRYHB.png,,,,,,,,,,,,,,,,,,,,,0,0.363265306,-0.283673469,1,0,0,0.471,button_right_test,0,93,93,131,1
,,,,,,,,,,,,,,,,,5c2befdb805c1d0001b47296,40,2022-02-12_14h51.18.935,lexical_decision_task_DD_L6,2021.2.3,iPhone,62.5,,,,,,,,,,0.471,0,,,,,,,,,,,,,,,,,,,,,,,0.365306122,-0.275510204,1,0,0,,,,,,,CARPET,HB,z,y,./images/CARPETHB.png,,,,,,,,,,,,,,,,,,,,,0,0.365306122,-0.275510204,1,0,0,0.471,button_right_test,0,94,94,137,1
,,,,,,,,,,,,,,,,,5c2befdb805c1d0001b47296,40,2022-02-12_14h51.18.935,lexical_decision_task_DD_L6,2021.2.3,iPhone,62.5,,,,,,,,,,1.673,0,,,,,,,,,,,,,,,,,,,,,,,-0.336734694,-0.32244898,1,0,0,,,,,,,BISHOP,C,m,y,./images/BISHOP.png,,,,,,,,,,,,,,,,,,,,,0,-0.336734694,-0.32244898,1,0,0,1.673,button_left_test,0,95,95,49,1
,,,,,,,,,,,,,,,,,5c2befdb805c1d0001b47296,40,2022-02-12_14h51.18.935,lexical_decision_task_DD_L6,2021.2.3,iPhone,62.5,,,,,,,,,,0.887,0,,,,,,,,,,,,,,,,,,,,,,,0.305102041,-0.320408163,1,0,0,,,,,,,CRUMB,HB,z,y,./images/CRUMBHB.png,,,,,,,,,,,,,,,,,,,,,0,0.305102041,-0.320408163,1,0,0,0.887,button_right_test,0,96,96,113,1
,,,,,,,,,,,,,,,,,5c2befdb805c1d0001b47296,40,2022-02-12_14h51.18.935,lexical_decision_task_DD_L6,2021.2.3,iPhone,62.5,,,,,,,,,,1.155,1,,,,,,,,,,,,,,,,,,,,,,,0.358163265,-0.308163265,1,0,0,,,,,,,SHIELD,LB,m,y,./images/SHIELDLB.png,,,,,,,,,,,,,,,,,,,,,0,0.358163265,-0.308163265,1,0,0,1.155,button_right_test,0,97,97,48,1
,,,,,,,,,,,,,,,,,5c2befdb805c1d0001b47296,40,2022-02-12_14h51.18.935,lexical_decision_task_DD_L6,2021.2.3,iPhone,62.5,,,,,,,,,,1.046,1,,,,,,,,,,,,,,,,,,,,,,,-0.38877551,-0.232653061,1,0,0,,,,,,,TULIP,HB,z,y,./images/TULIPHB.png,,,,,,,,,,,,,,,,,,,,,0,-0.38877551,-0.232653061,1,0,0,1.046,button_left_test,0,98,98,92,1
,,,,,,,,,,,,,,,,,5c2befdb805c1d0001b47296,40,2022-02-12_14h51.18.935,lexical_decision_task_DD_L6,2021.2.3,iPhone,62.5,,,,,,,,,,0.957,1,,,,,,,,,,,,,,,,,,,,,,,0.395918367,-0.306122449,1,0,0,,,,,,,SAUCE,LB,m,y,./images/SAUCELB.png,,,,,,,,,,,,,,,,,,,,,0,0.395918367,-0.306122449,1,0,0,0.957,button_right_test,0,99,99,51,1
,,,,,,,,,,,,,,,,,5c2befdb805c1d0001b47296,40,2022-02-12_14h51.18.935,lexical_decision_task_DD_L6,2021.2.3,iPhone,62.5,,,,,,,,,,1.088,0,,,,,,,,,,,,,,,,,,,,,,,-0.314285714,-0.303061224,1,0,0,,,,,,,MEDAL,HB,m,y,./images/MEDALHB.png,,,,,,,,,,,,,,,,,,,,,0,-0.314285714,-0.303061224,1,0,0,1.088,button_left_test,0,100,100,11,1
,,,,,,,,,,,,,,,,,5c2befdb805c1d0001b47296,40,2022-02-12_14h51.18.935,lexical_decision_task_DD_L6,2021.2.3,iPhone,62.5,,,,,,,,,,1.089,1,,,,,,,,,,,,,,,,,,,,,,,-0.37755102,-0.380612245,1,0,0,,,,,,,JUNGLE,HB,z,y,./images/JUNGLEHB.png,,,,,,,,,,,,,,,,,,,,,0,-0.37755102,-0.380612245,1,0,0,1.089,button_left_test,0,101,101,167,1
,,,,,,,,,,,,,,,,,5c2befdb805c1d0001b47296,40,2022-02-12_14h51.18.935,lexical_decision_task_DD_L6,2021.2.3,iPhone,62.5,,,,,,,,,,0.721,0,,,,,,,,,,,,,,,,,,,,,,,0.254081633,-0.295918367,1,0,0,,,,,,,CRADLE,HB,z,y,./images/CRADLEHB.png,,,,,,,,,,,,,,,,,,,,,0,0.254081633,-0.295918367,1,0,0,0.721,button_right_test,0,102,102,104,1
,,,,,,,,,,,,,,,,,5c2befdb805c1d0001b47296,40,2022-02-12_14h51.18.935,lexical_decision_task_DD_L6,2021.2.3,iPhone,62.5,,,,,,,,,,1.204,1,,,,,,,,,,,,,,,,,,,,,,,-0.341836735,-0.257142857,1,0,0,,,,,,,PACKET,HB,z,y,./images/PACKETHB.png,,,,,,,,,,,,,,,,,,,,,0,-0.341836735,-0.257142857,1,0,0,1.204,button_left_test,0,103,103,140,1
