key_resp.keys,instr_done_touch.x,instr_done_touch.y,instr_done_touch.leftButton,instr_done_touch.midButton,instr_done_touch.rightButton,instr_done_touch.clicked_name,instruction_pages.thisRepN,instruction_pages.thisTrialN,instruction_pages.thisN,instruction_pages.thisIndex,instruction_pages.ran,pageN,phase,instruct_text,has_image,instruct_image,participant,age,date,expName,psychopyVersion,OS,frameRate,response.keys,response.corr,touch_resp.x,touch_resp.y,touch_resp.leftButton,touch_resp.midButton,touch_resp.rightButton,touch_resp.time,touch_resp.clicked_name,rt,corr,practrials.thisRepN,practrials.thisTrialN,practrials.thisN,practrials.thisIndex,practrials.ran,TrialID,Target,corrAns,end_of_practice_trials_pages.thisRepN,end_of_practice_trials_pages.thisTrialN,end_of_practice_trials_pages.thisN,end_of_practice_trials_pages.thisIndex,end_of_practice_trials_pages.ran,key_resp_2.keys,key_resp_2.corr,targ_click.x,targ_click.y,targ_click.leftButton,targ_click.midButton,targ_click.rightButton,targ_click.time,targ_click.clicked_name,break_done_touch.x,break_done_touch.y,break_done_touch.leftButton,break_done_touch.midButton,break_done_touch.rightButton,break_done_keyboard.keys,maintrials.thisRepN,maintrials.thisTrialN,maintrials.thisN,maintrials.thisIndex,maintrials.ran,string,blur,study,lex,stim_path,break_done_touch.clicked_name,mouse_2.x,mouse_2.y,mouse_2.leftButton,mouse_2.midButton,mouse_2.rightButton,mouse_2.clicked_name,slider.response,slider.rt,trials.thisRepN,trials.thisTrialN,trials.thisN,trials.thisIndex,trials.ran,test_instructions.thisRepN,test_instructions.thisTrialN,test_instructions.thisN,test_instructions.thisIndex,test_instructions.ran,key_resp_3.keys,key_resp_3.corr,test_click.x,test_click.y,test_click.leftButton,test_click.midButton,test_click.rightButton,test_click.time,test_click.clicked_name,test_phase.thisRepN,test_phase.thisTrialN,test_phase.thisN,test_phase.thisIndex,test_phase.ran
,0.08984375,-0.406995985,1,0,0,instr_done_button,0,0,0,0,1,1,instructions,"INSTRUCTIONS
At the start of each trial, look at the plus sign  (+) in the center of the screen.  This tells you that a trial is about to begin and where to look. Second, the plus sign will disappear and a string of letters will appear. Your task is to determine if the string of letters is a word or not. If the item is a word press the M key (on keyboard)  or touch the word button (phone/tablet).  If the item is not a word,  press the  Z key (on keyboard)  or touch the nonword button (on phone/tablet). 
Press the space bar or touch  continue.",0,,5c3388fa01439b0001a0adfe,38,2022-02-12_13h22.53.971,lexical_decision_task_DD_L6,2021.2.3,Linux armv8l,59.89458553,,,,,,,,,,,,,,,,,,,,,,,,,,,,,,,,,,,,,,,,,,,,,,,,,,,,,,,,,,,,,,,,,,,,,,,,,,,,,,,,,,
,0.073242188,-0.42054579,1,0,0,instr_done_button,0,1,1,1,1,2,instructions,"If your device has a keyboard, press the 'Z' key for nonwords and the 'M' key for words.





Press the space bar or touch the button below to continue.",0,keyboard-example.gif,5c3388fa01439b0001a0adfe,38,2022-02-12_13h22.53.971,lexical_decision_task_DD_L6,2021.2.3,Linux armv8l,59.89458553,,,,,,,,,,,,,,,,,,,,,,,,,,,,,,,,,,,,,,,,,,,,,,,,,,,,,,,,,,,,,,,,,,,,,,,,,,,,,,,,,,
,0.036376953,-0.429077148,1,0,0,instr_done_button,0,2,2,2,1,3,instructions,"If you are using a touchscreen only device, use the buttons on the screen. Do not use the mouse.





Press the space bar or touch the button below to continue.",0,touchscreen-example.gif,5c3388fa01439b0001a0adfe,38,2022-02-12_13h22.53.971,lexical_decision_task_DD_L6,2021.2.3,Linux armv8l,59.89458553,,,,,,,,,,,,,,,,,,,,,,,,,,,,,,,,,,,,,,,,,,,,,,,,,,,,,,,,,,,,,,,,,,,,,,,,,,,,,,,,,,
,0.069335938,-0.399970161,1,0,0,instr_done_button,0,3,3,3,1,4,instructions,"It is very important that you respond as quickly and accurately as possible, as each letter string will only be on the screen for two seconds. If you do not respond within this time, the message 'Too slow!' will be displayed and the experiment will progress to the next letter string. The first 20 trials will be practice trials and you will receive feedback on your answers. 

Press the space bar or touch the button below to start the practice trials.",0,,5c3388fa01439b0001a0adfe,38,2022-02-12_13h22.53.971,lexical_decision_task_DD_L6,2021.2.3,Linux armv8l,59.89458553,,,,,,,,,,,,,,,,,,,,,,,,,,,,,,,,,,,,,,,,,,,,,,,,,,,,,,,,,,,,,,,,,,,,,,,,,,,,,,,,,,
,,,,,,,,,,,,,,,,,5c3388fa01439b0001a0adfe,38,2022-02-12_13h22.53.971,lexical_decision_task_DD_L6,2021.2.3,Linux armv8l,59.89458553,,0,0.345947266,-0.340752496,1,0,0,1.8075,button_right,1.8075,1,0,0,0,7,1,1001,VOLUME,m,,,,,,,,,,,,,,,,,,,,,,,,,,,,,,,,,,,,,,,,,,,,,,,,,,,,,,,,,,,,,,,
,,,,,,,,,,,,,,,,,5c3388fa01439b0001a0adfe,38,2022-02-12_13h22.53.971,lexical_decision_task_DD_L6,2021.2.3,Linux armv8l,59.89458553,,0,-0.317382813,-0.33473036,1,0,0,1.0919,button_left,1.0919,1,0,1,1,8,1,1001,ASLERT,z,,,,,,,,,,,,,,,,,,,,,,,,,,,,,,,,,,,,,,,,,,,,,,,,,,,,,,,,,,,,,,,
,,,,,,,,,,,,,,,,,5c3388fa01439b0001a0adfe,38,2022-02-12_13h22.53.971,lexical_decision_task_DD_L6,2021.2.3,Linux armv8l,59.89458553,,0,0.370849609,-0.372870551,1,0,0,0.9788,button_right,0.9788,1,0,2,2,0,1,1001,UTOPIA,m,,,,,,,,,,,,,,,,,,,,,,,,,,,,,,,,,,,,,,,,,,,,,,,,,,,,,,,,,,,,,,,
,,,,,,,,,,,,,,,,,5c3388fa01439b0001a0adfe,38,2022-02-12_13h22.53.971,lexical_decision_task_DD_L6,2021.2.3,Linux armv8l,59.89458553,,0,-0.257568359,-0.334228516,1,0,0,0.7411,button_left,0.7411,1,0,3,3,13,1,1001,ROUPET,z,,,,,,,,,,,,,,,,,,,,,,,,,,,,,,,,,,,,,,,,,,,,,,,,,,,,,,,,,,,,,,,
,,,,,,,,,,,,,,,,,5c3388fa01439b0001a0adfe,38,2022-02-12_13h22.53.971,lexical_decision_task_DD_L6,2021.2.3,Linux armv8l,59.89458553,,0,0.334716797,-0.304619683,1,0,0,0.7578,button_right,0.7578,1,0,4,4,2,1,1001,ALMOND,m,,,,,,,,,,,,,,,,,,,,,,,,,,,,,,,,,,,,,,,,,,,,,,,,,,,,,,,,,,,,,,,
,,,,,,,,,,,,,,,,,5c3388fa01439b0001a0adfe,38,2022-02-12_13h22.53.971,lexical_decision_task_DD_L6,2021.2.3,Linux armv8l,59.89458553,,0,0.320800781,-0.273505317,1,0,0,0.7722,button_right,0.7722,1,0,5,5,6,1,1001,ZOMBIE,m,,,,,,,,,,,,,,,,,,,,,,,,,,,,,,,,,,,,,,,,,,,,,,,,,,,,,,,,,,,,,,,
,,,,,,,,,,,,,,,,,5c3388fa01439b0001a0adfe,38,2022-02-12_13h22.53.971,lexical_decision_task_DD_L6,2021.2.3,Linux armv8l,59.89458553,,0,-0.2890625,-0.358818902,1,0,0,0.6397,button_left,0.6397,1,0,6,6,11,1,1001,RASHET,z,,,,,,,,,,,,,,,,,,,,,,,,,,,,,,,,,,,,,,,,,,,,,,,,,,,,,,,,,,,,,,,
,,,,,,,,,,,,,,,,,5c3388fa01439b0001a0adfe,38,2022-02-12_13h22.53.971,lexical_decision_task_DD_L6,2021.2.3,Linux armv8l,59.89458553,,0,-0.263427734,-0.359320747,1,0,0,0.7236,button_left,0.7236,1,0,7,7,9,1,1001,FARINY,z,,,,,,,,,,,,,,,,,,,,,,,,,,,,,,,,,,,,,,,,,,,,,,,,,,,,,,,,,,,,,,,
,,,,,,,,,,,,,,,,,5c3388fa01439b0001a0adfe,38,2022-02-12_13h22.53.971,lexical_decision_task_DD_L6,2021.2.3,Linux armv8l,59.89458553,,0,0.303466797,-0.271497938,1,0,0,0.65,button_right,0.65,1,0,8,8,4,1,1001,SQUEAK,m,,,,,,,,,,,,,,,,,,,,,,,,,,,,,,,,,,,,,,,,,,,,,,,,,,,,,,,,,,,,,,,
,,,,,,,,,,,,,,,,,5c3388fa01439b0001a0adfe,38,2022-02-12_13h22.53.971,lexical_decision_task_DD_L6,2021.2.3,Linux armv8l,59.89458553,,0,0.302001953,-0.349785699,1,0,0,0.91,button_right,0.91,1,0,9,9,5,1,1001,OBTAIN,m,,,,,,,,,,,,,,,,,,,,,,,,,,,,,,,,,,,,,,,,,,,,,,,,,,,,,,,,,,,,,,,
,,,,,,,,,,,,,,,,,5c3388fa01439b0001a0adfe,38,2022-02-12_13h22.53.971,lexical_decision_task_DD_L6,2021.2.3,Linux armv8l,59.89458553,,0,-0.312011719,-0.390435113,1,0,0,0.932,button_left,0.932,1,0,10,10,12,1,1001,SPRINY,z,,,,,,,,,,,,,,,,,,,,,,,,,,,,,,,,,,,,,,,,,,,,,,,,,,,,,,,,,,,,,,,
,,,,,,,,,,,,,,,,,5c3388fa01439b0001a0adfe,38,2022-02-12_13h22.53.971,lexical_decision_task_DD_L6,2021.2.3,Linux armv8l,59.89458553,,0,0.262451172,-0.384914822,1,0,0,0.7788,button_right,0.7788,1,0,11,11,3,1,1001,MATRIX,m,,,,,,,,,,,,,,,,,,,,,,,,,,,,,,,,,,,,,,,,,,,,,,,,,,,,,,,,,,,,,,,
,,,,,,,,,,,,,,,,,5c3388fa01439b0001a0adfe,38,2022-02-12_13h22.53.971,lexical_decision_task_DD_L6,2021.2.3,Linux armv8l,59.89458553,,0,-0.272949219,-0.339246962,1,0,0,0.7087,button_left,0.7087,1,0,12,12,15,1,1001,WHAISE,z,,,,,,,,,,,,,,,,,,,,,,,,,,,,,,,,,,,,,,,,,,,,,,,,,,,,,,,,,,,,,,,
,,,,,,,,,,,,,,,,,5c3388fa01439b0001a0adfe,38,2022-02-12_13h22.53.971,lexical_decision_task_DD_L6,2021.2.3,Linux armv8l,59.89458553,,0,0.298095703,-0.341756185,1,0,0,0.6912,button_right,0.6912,1,0,13,13,1,1,1001,ADJUST,m,,,,,,,,,,,,,,,,,,,,,,,,,,,,,,,,,,,,,,,,,,,,,,,,,,,,,,,,,,,,,,,
,,,,,,,,,,,,,,,,,5c3388fa01439b0001a0adfe,38,2022-02-12_13h22.53.971,lexical_decision_task_DD_L6,2021.2.3,Linux armv8l,59.89458553,,0,-0.222412109,-0.34125434,1,0,0,0.7649,button_left,0.7649,1,0,14,14,10,1,1001,INLADE,z,,,,,,,,,,,,,,,,,,,,,,,,,,,,,,,,,,,,,,,,,,,,,,,,,,,,,,,,,,,,,,,
,,,,,,,,,,,,,,,,,5c3388fa01439b0001a0adfe,38,2022-02-12_13h22.53.971,lexical_decision_task_DD_L6,2021.2.3,Linux armv8l,59.89458553,,0,0.310058594,-0.345770942,1,0,0,0.6337,button_right,0.6337,0,0,15,15,14,1,1001,THRALE,z,,,,,,,,,,,,,,,,,,,,,,,,,,,,,,,,,,,,,,,,,,,,,,,,,,,,,,,,,,,,,,,
,0.064697266,-0.405490451,1,0,0,instr_done_button,,,,,,1,end_of_practice,"You have completed the practice trials. During the experimental trials, you will not receive feedback. 
Before you begin, please ensure that you are in a comfortable and quiet location and will not be disturbed for about 15 minutes, as we cannot use your data if you do not complete all the trials. 
 When you are ready to start the experimental trials, please press space or touch the button below.",,,5c3388fa01439b0001a0adfe,38,2022-02-12_13h22.53.971,lexical_decision_task_DD_L6,2021.2.3,Linux armv8l,59.89458553,,,,,,,,,,,,,,,,,,,,0,0,0,0,1,,,,,,,,,,,,,,,,,,,,,,,,,,,,,,,,,,,,,,,,,,,,,,,,,,,,,,,,,,
,,,,,,,,,,,,,,,,,5c3388fa01439b0001a0adfe,38,2022-02-12_13h22.53.971,lexical_decision_task_DD_L6,2021.2.3,Linux armv8l,59.89458553,,,,,,,,,,0.9805,1,,,,,,,,,,,,,,,0,0.361816406,-0.314656576,1,0,0,0.9805,button_right_main,0.361816406,-0.314656576,1,0,0,,0,0,0,15,1,COLLAR,LB,m,m,./images/COLLARLB.png,,,,,,,,,,,,,,,,,,,,,,,,,,,,,,,,,
,,,,,,,,,,,,,,,,,5c3388fa01439b0001a0adfe,38,2022-02-12_13h22.53.971,lexical_decision_task_DD_L6,2021.2.3,Linux armv8l,59.89458553,,,,,,,,,,0.7102,1,,,,,,,,,,,,,,,0,0.350585938,-0.30211046,1,0,0,0.7102,button_right_main,0.350585938,-0.30211046,1,0,0,,0,1,1,49,1,BISHOP,C,m,m,./images/BISHOP.png,,,,,,,,,,,,,,,,,,,,,,,,,,,,,,,,,
,,,,,,,,,,,,,,,,,5c3388fa01439b0001a0adfe,38,2022-02-12_13h22.53.971,lexical_decision_task_DD_L6,2021.2.3,Linux armv8l,59.89458553,,,,,,,,,,0.6429,1,,,,,,,,,,,,,,,0,0.351806641,-0.332722982,1,0,0,0.6429,button_right_main,0.351806641,-0.332722982,1,0,0,,0,2,2,46,1,MUMMY,C,m,m,./images/MUMMY.png,,,,,,,,,,,,,,,,,,,,,,,,,,,,,,,,,
,,,,,,,,,,,,,,,,,5c3388fa01439b0001a0adfe,38,2022-02-12_13h22.53.971,lexical_decision_task_DD_L6,2021.2.3,Linux armv8l,59.89458553,,,,,,,,,,0.7321,1,,,,,,,,,,,,,,,0,0.279541016,-0.344767253,1,0,0,0.7321,button_right_main,0.279541016,-0.344767253,1,0,0,,0,3,3,76,1,MIDGET,C,m,m,./images/MIDGET.png,,,,,,,,,,,,,,,,,,,,,,,,,,,,,,,,,
,,,,,,,,,,,,,,,,,5c3388fa01439b0001a0adfe,38,2022-02-12_13h22.53.971,lexical_decision_task_DD_L6,2021.2.3,Linux armv8l,59.89458553,,,,,,,,,,0.5782,1,,,,,,,,,,,,,,,0,0.309326172,-0.382907444,1,0,0,0.5782,button_right_main,0.309326172,-0.382907444,1,0,0,,0,4,4,55,1,ALLEY,C,m,m,./images/ALLEY.png,,,,,,,,,,,,,,,,,,,,,,,,,,,,,,,,,
,,,,,,,,,,,,,,,,,5c3388fa01439b0001a0adfe,38,2022-02-12_13h22.53.971,lexical_decision_task_DD_L6,2021.2.3,Linux armv8l,59.89458553,,,,,,,,,,0.7455,1,,,,,,,,,,,,,,,0,-0.240234375,-0.35530599,1,0,0,0.7455,button_left_main,-0.240234375,-0.35530599,1,0,0,,0,5,5,150,1,NOOLS,C,z,z,./images/NOOLS.png,,,,,,,,,,,,,,,,,,,,,,,,,,,,,,,,,
,,,,,,,,,,,,,,,,,5c3388fa01439b0001a0adfe,38,2022-02-12_13h22.53.971,lexical_decision_task_DD_L6,2021.2.3,Linux armv8l,59.89458553,,,,,,,,,,1.381,1,,,,,,,,,,,,,,,0,-0.233398438,-0.364841037,1,0,0,1.381,button_left_main,-0.233398438,-0.364841037,1,0,0,,0,6,6,127,1,NINDY,HB,z,z,./images/NINDYHB.png,,,,,,,,,,,,,,,,,,,,,,,,,,,,,,,,,
,,,,,,,,,,,,,,,,,5c3388fa01439b0001a0adfe,38,2022-02-12_13h22.53.971,lexical_decision_task_DD_L6,2021.2.3,Linux armv8l,59.89458553,,,,,,,,,,0.6127,1,,,,,,,,,,,,,,,0,0.272216797,-0.319173177,1,0,0,0.6127,button_right_main,0.272216797,-0.319173177,1,0,0,,0,7,7,61,1,ARTIST,C,m,m,./images/ARTIST.png,,,,,,,,,,,,,,,,,,,,,,,,,,,,,,,,,
,,,,,,,,,,,,,,,,,5c3388fa01439b0001a0adfe,38,2022-02-12_13h22.53.971,lexical_decision_task_DD_L6,2021.2.3,Linux armv8l,59.89458553,,,,,,,,,,0.8974,1,,,,,,,,,,,,,,,0,0.316894531,-0.300604926,1,0,0,0.8974,button_right_main,0.316894531,-0.300604926,1,0,0,,0,8,8,68,1,VALLEY,HB,m,m,./images/VALLEYHB.png,,,,,,,,,,,,,,,,,,,,,,,,,,,,,,,,,
,,,,,,,,,,,,,,,,,5c3388fa01439b0001a0adfe,38,2022-02-12_13h22.53.971,lexical_decision_task_DD_L6,2021.2.3,Linux armv8l,59.89458553,,,,,,,,,,0.5809,1,,,,,,,,,,,,,,,0,0.274658203,-0.404486762,1,0,0,0.5809,button_left_main,-0.317871094,-0.364339193,1,0,0,,0,9,9,107,1,FASKS,LB,z,z,./images/FASKSLB.png,,,,,,,,,,,,,,,,,,,,,,,,,,,,,,,,,
,,,,,,,,,,,,,,,,,5c3388fa01439b0001a0adfe,38,2022-02-12_13h22.53.971,lexical_decision_task_DD_L6,2021.2.3,Linux armv8l,59.89458553,,,,,,,,,,0.8959,1,,,,,,,,,,,,,,,0,0.350830078,-0.297092014,1,0,0,0.8959,button_right_main,0.350830078,-0.297092014,1,0,0,,0,10,10,44,1,BASKET,HB,m,m,./images/BASKETHB.png,,,,,,,,,,,,,,,,,,,,,,,,,,,,,,,,,
,,,,,,,,,,,,,,,,,5c3388fa01439b0001a0adfe,38,2022-02-12_13h22.53.971,lexical_decision_task_DD_L6,2021.2.3,Linux armv8l,59.89458553,,,,,,,,,,0.7803,1,,,,,,,,,,,,,,,0,0.364257813,-0.344265408,1,0,0,0.7803,button_right_main,0.364257813,-0.344265408,1,0,0,,0,11,11,35,1,LLAMA,HB,m,m,./images/LLAMAHB.png,,,,,,,,,,,,,,,,,,,,,,,,,,,,,,,,,
,,,,,,,,,,,,,,,,,5c3388fa01439b0001a0adfe,38,2022-02-12_13h22.53.971,lexical_decision_task_DD_L6,2021.2.3,Linux armv8l,59.89458553,,,,,,,,,,0.9984,1,,,,,,,,,,,,,,,0,-0.247802734,-0.34777832,1,0,0,0.9984,button_left_main,-0.247802734,-0.34777832,1,0,0,,0,12,12,142,1,PLASK,HB,z,z,./images/PLASKHB.png,,,,,,,,,,,,,,,,,,,,,,,,,,,,,,,,,
,,,,,,,,,,,,,,,,,5c3388fa01439b0001a0adfe,38,2022-02-12_13h22.53.971,lexical_decision_task_DD_L6,2021.2.3,Linux armv8l,59.89458553,,,,,,,,,,0.9807,0,,,,,,,,,,,,,,,0,0.303955078,-0.321180556,1,0,0,0.9807,button_right_main,0.303955078,-0.321180556,1,0,0,,0,13,13,97,1,CHIDS,HB,z,z,./images/CHIDSHB.png,,,,,,,,,,,,,,,,,,,,,,,,,,,,,,,,,
,,,,,,,,,,,,,,,,,5c3388fa01439b0001a0adfe,38,2022-02-12_13h22.53.971,lexical_decision_task_DD_L6,2021.2.3,Linux armv8l,59.89458553,,,,,,,,,,0.7138,1,,,,,,,,,,,,,,,0,-0.220703125,-0.331217448,1,0,0,0.7138,button_left_main,-0.220703125,-0.331217448,1,0,0,,0,14,14,161,1,BLAPS,LB,z,z,./images/BLAPSLB.png,,,,,,,,,,,,,,,,,,,,,,,,,,,,,,,,,
,,,,,,,,,,,,,,,,,5c3388fa01439b0001a0adfe,38,2022-02-12_13h22.53.971,lexical_decision_task_DD_L6,2021.2.3,Linux armv8l,59.89458553,,,,,,,,,,1.0117,1,,,,,,,,,,,,,,,0,-0.260498047,-0.34125434,1,0,0,1.0117,button_left_main,-0.260498047,-0.34125434,1,0,0,,0,15,15,133,1,POWDY,HB,z,z,./images/POWDYHB.png,,,,,,,,,,,,,,,,,,,,,,,,,,,,,,,,,
,,,,,,,,,,,,,,,,,5c3388fa01439b0001a0adfe,38,2022-02-12_13h22.53.971,lexical_decision_task_DD_L6,2021.2.3,Linux armv8l,59.89458553,,,,,,,,,,0.6816,1,,,,,,,,,,,,,,,0,-0.325683594,-0.356811523,1,0,0,0.6816,button_left_main,-0.325683594,-0.356811523,1,0,0,,0,16,16,95,1,HANTY,LB,z,z,./images/HANTYLB.png,,,,,,,,,,,,,,,,,,,,,,,,,,,,,,,,,
,,,,,,,,,,,,,,,,,5c3388fa01439b0001a0adfe,38,2022-02-12_13h22.53.971,lexical_decision_task_DD_L6,2021.2.3,Linux armv8l,59.89458553,,,,,,,,,,0.7947,1,,,,,,,,,,,,,,,0,-0.259765625,-0.34125434,1,0,0,0.7947,button_left_main,-0.259765625,-0.34125434,1,0,0,,0,17,17,84,1,HAXES,C,z,z,./images/HAXES.png,,,,,,,,,,,,,,,,,,,,,,,,,,,,,,,,,
,,,,,,,,,,,,,,,,,5c3388fa01439b0001a0adfe,38,2022-02-12_13h22.53.971,lexical_decision_task_DD_L6,2021.2.3,Linux armv8l,59.89458553,,,,,,,,,,0.8484,1,,,,,,,,,,,,,,,0,-0.245117188,-0.346272786,1,0,0,0.8484,button_left_main,-0.245117188,-0.346272786,1,0,0,,0,18,18,122,1,BLOOT,LB,z,z,./images/BLOOTLB.png,,,,,,,,,,,,,,,,,,,,,,,,,,,,,,,,,
,,,,,,,,,,,,,,,,,5c3388fa01439b0001a0adfe,38,2022-02-12_13h22.53.971,lexical_decision_task_DD_L6,2021.2.3,Linux armv8l,59.89458553,,,,,,,,,,0.828,1,,,,,,,,,,,,,,,0,-0.237060547,-0.34125434,1,0,0,0.828,button_left_main,-0.237060547,-0.34125434,1,0,0,,0,19,19,118,1,BAVEL,HB,z,z,./images/BAVELHB.png,,,,,,,,,,,,,,,,,,,,,,,,,,,,,,,,,
,,,,,,,,,,,,,,,,,5c3388fa01439b0001a0adfe,38,2022-02-12_13h22.53.971,lexical_decision_task_DD_L6,2021.2.3,Linux armv8l,59.89458553,,,,,,,,,,0.7157,1,,,,,,,,,,,,,,,0,-0.246582031,-0.321180556,1,0,0,0.7157,button_left_main,-0.246582031,-0.321180556,1,0,0,,0,20,20,148,1,JOMS,HB,z,z,./images/JOMSHB.png,,,,,,,,,,,,,,,,,,,,,,,,,,,,,,,,,
,,,,,,,,,,,,,,,,,5c3388fa01439b0001a0adfe,38,2022-02-12_13h22.53.971,lexical_decision_task_DD_L6,2021.2.3,Linux armv8l,59.89458553,,,,,,,,,,0.8642,1,,,,,,,,,,,,,,,0,-0.206542969,-0.347276476,1,0,0,0.8642,button_left_main,-0.206542969,-0.347276476,1,0,0,,0,21,21,139,1,BLEAR,HB,z,z,./images/BLEARHB.png,,,,,,,,,,,,,,,,,,,,,,,,,,,,,,,,,
,,,,,,,,,,,,,,,,,5c3388fa01439b0001a0adfe,38,2022-02-12_13h22.53.971,lexical_decision_task_DD_L6,2021.2.3,Linux armv8l,59.89458553,,,,,,,,,,0.6993,1,,,,,,,,,,,,,,,0,0.413330078,-0.246907552,1,0,0,0.6993,button_right_main,0.413330078,-0.246907552,1,0,0,,0,22,22,75,1,HAMMER,LB,m,m,./images/HAMMERLB.png,,,,,,,,,,,,,,,,,,,,,,,,,,,,,,,,,
,,,,,,,,,,,,,,,,,5c3388fa01439b0001a0adfe,38,2022-02-12_13h22.53.971,lexical_decision_task_DD_L6,2021.2.3,Linux armv8l,59.89458553,,,,,,,,,,0.7276,1,,,,,,,,,,,,,,,0,-0.289550781,-0.385918511,1,0,0,0.7276,button_left_main,-0.289550781,-0.385918511,1,0,0,,0,23,23,129,1,PRANS,C,z,z,./images/PRANS.png,,,,,,,,,,,,,,,,,,,,,,,,,,,,,,,,,
,,,,,,,,,,,,,,,,,5c3388fa01439b0001a0adfe,38,2022-02-12_13h22.53.971,lexical_decision_task_DD_L6,2021.2.3,Linux armv8l,59.89458553,,,,,,,,,,1.095,1,,,,,,,,,,,,,,,0,-0.247314453,-0.338243273,1,0,0,1.095,button_left_main,-0.247314453,-0.338243273,1,0,0,,0,24,24,99,1,BACKY,C,z,z,./images/BACKY.png,,,,,,,,,,,,,,,,,,,,,,,,,,,,,,,,,
,,,,,,,,,,,,,,,,,5c3388fa01439b0001a0adfe,38,2022-02-12_13h22.53.971,lexical_decision_task_DD_L6,2021.2.3,Linux armv8l,59.89458553,,,,,,,,,,0.7976,1,,,,,,,,,,,,,,,0,0.328613281,-0.291069878,1,0,0,0.7976,button_right_main,0.328613281,-0.291069878,1,0,0,,0,25,25,79,1,RULER,C,m,m,./images/RULER.png,,,,,,,,,,,,,,,,,,,,,,,,,,,,,,,,,
,,,,,,,,,,,,,,,,,5c3388fa01439b0001a0adfe,38,2022-02-12_13h22.53.971,lexical_decision_task_DD_L6,2021.2.3,Linux armv8l,59.89458553,,,,,,,,,,0.7263,1,,,,,,,,,,,,,,,0,-0.290771484,-0.343261719,1,0,0,0.7263,button_left_main,-0.290771484,-0.343261719,1,0,0,,0,26,26,85,1,CHULK,HB,z,z,./images/CHULKHB.png,,,,,,,,,,,,,,,,,,,,,,,,,,,,,,,,,
,,,,,,,,,,,,,,,,,5c3388fa01439b0001a0adfe,38,2022-02-12_13h22.53.971,lexical_decision_task_DD_L6,2021.2.3,Linux armv8l,59.89458553,,,,,,,,,,0.7298,1,,,,,,,,,,,,,,,0,0.299316406,-0.368855794,1,0,0,0.7298,button_right_main,0.299316406,-0.368855794,1,0,0,,0,27,27,16,1,GRAPE,C,m,m,./images/GRAPE.png,,,,,,,,,,,,,,,,,,,,,,,,,,,,,,,,,
,,,,,,,,,,,,,,,,,5c3388fa01439b0001a0adfe,38,2022-02-12_13h22.53.971,lexical_decision_task_DD_L6,2021.2.3,Linux armv8l,59.89458553,,,,,,,,,,0.8161,1,,,,,,,,,,,,,,,0,-0.291015625,-0.330715603,1,0,0,0.8161,button_left_main,-0.291015625,-0.330715603,1,0,0,,0,28,28,130,1,CRILL,HB,z,z,./images/CRILLHB.png,,,,,,,,,,,,,,,,,,,,,,,,,,,,,,,,,
,,,,,,,,,,,,,,,,,5c3388fa01439b0001a0adfe,38,2022-02-12_13h22.53.971,lexical_decision_task_DD_L6,2021.2.3,Linux armv8l,59.89458553,,,,,,,,,,0.6446,1,,,,,,,,,,,,,,,0,0.32421875,-0.277018229,1,0,0,0.6446,button_right_main,0.32421875,-0.277018229,1,0,0,,0,29,29,69,1,ARROW,LB,m,m,./images/ARROWLB.png,,,,,,,,,,,,,,,,,,,,,,,,,,,,,,,,,
,,,,,,,,,,,,,,,,,5c3388fa01439b0001a0adfe,38,2022-02-12_13h22.53.971,lexical_decision_task_DD_L6,2021.2.3,Linux armv8l,59.89458553,,,,,,,,,,0.6741,1,,,,,,,,,,,,,,,0,0.306396484,-0.3543023,1,0,0,0.6741,button_right_main,0.306396484,-0.3543023,1,0,0,,0,30,30,4,1,BOXER,C,m,m,./images/BOXER.png,,,,,,,,,,,,,,,,,,,,,,,,,,,,,,,,,
,,,,,,,,,,,,,,,,,5c3388fa01439b0001a0adfe,38,2022-02-12_13h22.53.971,lexical_decision_task_DD_L6,2021.2.3,Linux armv8l,59.89458553,,,,,,,,,,0.6807,1,,,,,,,,,,,,,,,0,-0.245849609,-0.325697157,1,0,0,0.6807,button_left_main,-0.245849609,-0.325697157,1,0,0,,0,31,31,90,1,NEAST,C,z,z,./images/NEAST.png,,,,,,,,,,,,,,,,,,,,,,,,,,,,,,,,,
,,,,,,,,,,,,,,,,,5c3388fa01439b0001a0adfe,38,2022-02-12_13h22.53.971,lexical_decision_task_DD_L6,2021.2.3,Linux armv8l,59.89458553,,,,,,,,,,0.867,1,,,,,,,,,,,,,,,0,-0.239501953,-0.325195313,1,0,0,0.867,button_left_main,-0.239501953,-0.325195313,1,0,0,,0,32,32,119,1,PAFER,LB,z,z,./images/PAFERLB.png,,,,,,,,,,,,,,,,,,,,,,,,,,,,,,,,,
,,,,,,,,,,,,,,,,,5c3388fa01439b0001a0adfe,38,2022-02-12_13h22.53.971,lexical_decision_task_DD_L6,2021.2.3,Linux armv8l,59.89458553,,,,,,,,,,0.8616,1,,,,,,,,,,,,,,,0,0.306396484,-0.345770942,1,0,0,0.8616,button_right_main,0.306396484,-0.345770942,1,0,0,,0,33,33,47,1,LAGOON,HB,m,m,./images/LAGOONHB.png,,,,,,,,,,,,,,,,,,,,,,,,,,,,,,,,,
,,,,,,,,,,,,,,,,,5c3388fa01439b0001a0adfe,38,2022-02-12_13h22.53.971,lexical_decision_task_DD_L6,2021.2.3,Linux armv8l,59.89458553,,,,,,,,,,0.6813,1,,,,,,,,,,,,,,,0,-0.274169922,-0.329210069,1,0,0,0.6813,button_left_main,-0.274169922,-0.329210069,1,0,0,,0,34,34,164,1,SGREW,LB,z,z,./images/SGREWLB.png,,,,,,,,,,,,,,,,,,,,,,,,,,,,,,,,,
,,,,,,,,,,,,,,,,,5c3388fa01439b0001a0adfe,38,2022-02-12_13h22.53.971,lexical_decision_task_DD_L6,2021.2.3,Linux armv8l,59.89458553,,,,,,,,,,0.5761,1,,,,,,,,,,,,,,,0,-0.211425781,-0.34225803,1,0,0,0.5761,button_left_main,-0.211425781,-0.34225803,1,0,0,,0,35,35,146,1,MOOST,LB,z,z,./images/MOOSTLB.png,,,,,,,,,,,,,,,,,,,,,,,,,,,,,,,,,
,,,,,,,,,,,,,,,,,5c3388fa01439b0001a0adfe,38,2022-02-12_13h22.53.971,lexical_decision_task_DD_L6,2021.2.3,Linux armv8l,59.89458553,,,,,,,,,,0.9117,1,,,,,,,,,,,,,,,0,0.298339844,-0.274509006,1,0,0,0.9117,button_right_main,0.298339844,-0.274509006,1,0,0,,0,36,36,52,1,DESERT,C,m,m,./images/DESERT.png,,,,,,,,,,,,,,,,,,,,,,,,,,,,,,,,,
,,,,,,,,,,,,,,,,,5c3388fa01439b0001a0adfe,38,2022-02-12_13h22.53.971,lexical_decision_task_DD_L6,2021.2.3,Linux armv8l,59.89458553,,,,,,,,,,1.6149,1,,,,,,,,,,,,,,,0,0.272705078,-0.366346571,1,0,0,1.6149,button_right_main,0.272705078,-0.366346571,1,0,0,,0,37,37,14,1,FENCE,HB,m,m,./images/FENCEHB.png,,,,,,,,,,,,,,,,,,,,,,,,,,,,,,,,,
,,,,,,,,,,,,,,,,,5c3388fa01439b0001a0adfe,38,2022-02-12_13h22.53.971,lexical_decision_task_DD_L6,2021.2.3,Linux armv8l,59.89458553,,,,,,,,,,0.6148,1,,,,,,,,,,,,,,,0,0.336181641,-0.316663954,1,0,0,0.6148,button_right_main,0.336181641,-0.316663954,1,0,0,,0,38,38,21,1,DANCER,LB,m,m,./images/DANCERLB.png,,,,,,,,,,,,,,,,,,,,,,,,,,,,,,,,,
,,,,,,,,,,,,,,,,,5c3388fa01439b0001a0adfe,38,2022-02-12_13h22.53.971,lexical_decision_task_DD_L6,2021.2.3,Linux armv8l,59.89458553,,,,,,,,,,0.7324,1,,,,,,,,,,,,,,,0,-0.23828125,-0.330715603,1,0,0,0.7324,button_left_main,-0.23828125,-0.330715603,1,0,0,,0,39,39,132,1,SCIFF,C,z,z,./images/SCIFF.png,,,,,,,,,,,,,,,,,,,,,,,,,,,,,,,,,
,,,,,,,,,,,,,,,,,5c3388fa01439b0001a0adfe,38,2022-02-12_13h22.53.971,lexical_decision_task_DD_L6,2021.2.3,Linux armv8l,59.89458553,,,,,,,,,,0.6985,1,,,,,,,,,,,,,,,0,0.330322266,-0.306627062,1,0,0,0.6985,button_right_main,0.330322266,-0.306627062,1,0,0,,0,40,40,62,1,MAMMAL,HB,m,m,./images/MAMMALHB.png,,,,,,,,,,,,,,,,,,,,,,,,,,,,,,,,,
,,,,,,,,,,,,,,,,,5c3388fa01439b0001a0adfe,38,2022-02-12_13h22.53.971,lexical_decision_task_DD_L6,2021.2.3,Linux armv8l,59.89458553,,,,,,,,,,0.8271,1,,,,,,,,,,,,,,,0,0.310546875,-0.292575412,1,0,0,0.8271,button_right_main,0.082275391,-0.36735026,1,0,0,,0,41,41,18,1,PARCEL,LB,m,m,./images/PARCELLB.png,break_done_button,,,,,,,,,,,,,,,,,,,,,,,,,,,,,,,,
,,,,,,,,,,,,,,,,,5c3388fa01439b0001a0adfe,38,2022-02-12_13h22.53.971,lexical_decision_task_DD_L6,2021.2.3,Linux armv8l,59.89458553,,,,,,,,,,0.5622,1,,,,,,,,,,,,,,,0,0.3125,-0.300103082,1,0,0,0.5622,button_right_main,0.3125,-0.300103082,1,0,0,,0,42,42,54,1,CHERRY,LB,m,m,./images/CHERRYLB.png,,,,,,,,,,,,,,,,,,,,,,,,,,,,,,,,,
,,,,,,,,,,,,,,,,,5c3388fa01439b0001a0adfe,38,2022-02-12_13h22.53.971,lexical_decision_task_DD_L6,2021.2.3,Linux armv8l,59.89458553,,,,,,,,,,0.5858,1,,,,,,,,,,,,,,,0,0.322265625,-0.330715603,1,0,0,0.5858,button_right_main,0.322265625,-0.330715603,1,0,0,,0,43,43,30,1,SLOPE,LB,m,m,./images/SLOPELB.png,,,,,,,,,,,,,,,,,,,,,,,,,,,,,,,,,
,,,,,,,,,,,,,,,,,5c3388fa01439b0001a0adfe,38,2022-02-12_13h22.53.971,lexical_decision_task_DD_L6,2021.2.3,Linux armv8l,59.89458553,,,,,,,,,,0.8484,1,,,,,,,,,,,,,,,0,-0.239746094,-0.322184245,1,0,0,0.8484,button_left_main,-0.239746094,-0.322184245,1,0,0,,0,44,44,91,1,SHENS,HB,z,z,./images/SHENSHB.png,,,,,,,,,,,,,,,,,,,,,,,,,,,,,,,,,
,,,,,,,,,,,,,,,,,5c3388fa01439b0001a0adfe,38,2022-02-12_13h22.53.971,lexical_decision_task_DD_L6,2021.2.3,Linux armv8l,59.89458553,,,,,,,,,,0.7147,1,,,,,,,,,,,,,,,0,-0.237792969,-0.315660265,1,0,0,0.7147,button_left_main,-0.237792969,-0.315660265,1,0,0,,0,45,45,102,1,DULLE,C,z,z,./images/DULLE.png,,,,,,,,,,,,,,,,,,,,,,,,,,,,,,,,,
,,,,,,,,,,,,,,,,,5c3388fa01439b0001a0adfe,38,2022-02-12_13h22.53.971,lexical_decision_task_DD_L6,2021.2.3,Linux armv8l,59.89458553,,,,,,,,,,0.7117,1,,,,,,,,,,,,,,,0,-0.196289063,-0.336737739,1,0,0,0.7117,button_left_main,-0.258789063,-0.325697157,1,0,0,,0,46,46,152,1,FRAIN,LB,z,z,./images/FRAINLB.png,,,,,,,,,,,,,,,,,,,,,,,,,,,,,,,,,
,,,,,,,,,,,,,,,,,5c3388fa01439b0001a0adfe,38,2022-02-12_13h22.53.971,lexical_decision_task_DD_L6,2021.2.3,Linux armv8l,59.89458553,,,,,,,,,,0.6995,1,,,,,,,,,,,,,,,0,0.326416016,-0.366346571,1,0,0,0.6995,button_right_main,0.326416016,-0.366346571,1,0,0,,0,47,47,8,1,CLIFF,HB,m,m,./images/CLIFFHB.png,,,,,,,,,,,,,,,,,,,,,,,,,,,,,,,,,
,,,,,,,,,,,,,,,,,5c3388fa01439b0001a0adfe,38,2022-02-12_13h22.53.971,lexical_decision_task_DD_L6,2021.2.3,Linux armv8l,59.89458553,,,,,,,,,,0.6117,1,,,,,,,,,,,,,,,0,0.290283203,-0.330715603,1,0,0,0.6117,button_right_main,0.290283203,-0.330715603,1,0,0,,0,48,48,5,1,BAMBOO,HB,m,m,./images/BAMBOOHB.png,,,,,,,,,,,,,,,,,,,,,,,,,,,,,,,,,
,,,,,,,,,,,,,,,,,5c3388fa01439b0001a0adfe,38,2022-02-12_13h22.53.971,lexical_decision_task_DD_L6,2021.2.3,Linux armv8l,59.89458553,,,,,,,,,,0.7124,1,,,,,,,,,,,,,,,0,-0.284912109,-0.34225803,1,0,0,0.7124,button_left_main,-0.284912109,-0.34225803,1,0,0,,0,49,49,117,1,STEEG,C,z,z,./images/STEEG.png,,,,,,,,,,,,,,,,,,,,,,,,,,,,,,,,,
,,,,,,,,,,,,,,,,,5c3388fa01439b0001a0adfe,38,2022-02-12_13h22.53.971,lexical_decision_task_DD_L6,2021.2.3,Linux armv8l,59.89458553,,,,,,,,,,0.7084,1,,,,,,,,,,,,,,,0,0.345214844,-0.329711914,1,0,0,0.7084,button_right_main,0.345214844,-0.329711914,1,0,0,,0,50,50,9,1,DIVER,LB,m,m,./images/DIVERLB.png,,,,,,,,,,,,,,,,,,,,,,,,,,,,,,,,,
,,,,,,,,,,,,,,,,,5c3388fa01439b0001a0adfe,38,2022-02-12_13h22.53.971,lexical_decision_task_DD_L6,2021.2.3,Linux armv8l,59.89458553,,,,,,,,,,0.8648,1,,,,,,,,,,,,,,,0,-0.265625,-0.316663954,1,0,0,0.8648,button_left_main,-0.265625,-0.316663954,1,0,0,,0,51,51,167,1,ZONET,LB,z,z,./images/ZONETLB.png,,,,,,,,,,,,,,,,,,,,,,,,,,,,,,,,,
,,,,,,,,,,,,,,,,,5c3388fa01439b0001a0adfe,38,2022-02-12_13h22.53.971,lexical_decision_task_DD_L6,2021.2.3,Linux armv8l,59.89458553,,,,,,,,,,0.6634,1,,,,,,,,,,,,,,,0,-0.228515625,-0.318671332,1,0,0,0.6634,button_left_main,-0.228515625,-0.318671332,1,0,0,,0,52,52,96,1,KEAMS,C,z,z,./images/KEAMS.png,,,,,,,,,,,,,,,,,,,,,,,,,,,,,,,,,
,,,,,,,,,,,,,,,,,5c3388fa01439b0001a0adfe,38,2022-02-12_13h22.53.971,lexical_decision_task_DD_L6,2021.2.3,Linux armv8l,59.89458553,,,,,,,,,,0.6256,1,,,,,,,,,,,,,,,0,-0.242431641,-0.34878201,1,0,0,0.6256,button_left_main,-0.242431641,-0.34878201,1,0,0,,0,53,53,105,1,MOKER,C,z,z,./images/MOKER.png,,,,,,,,,,,,,,,,,,,,,,,,,,,,,,,,,
,,,,,,,,,,,,,,,,,5c3388fa01439b0001a0adfe,38,2022-02-12_13h22.53.971,lexical_decision_task_DD_L6,2021.2.3,Linux armv8l,59.89458553,,,,,,,,,,0.6491,1,,,,,,,,,,,,,,,0,0.294433594,-0.320678711,1,0,0,0.6491,button_right_main,0.294433594,-0.320678711,1,0,0,,0,54,54,39,1,CANDY,LB,m,m,./images/CANDYLB.png,,,,,,,,,,,,,,,,,,,,,,,,,,,,,,,,,
,,,,,,,,,,,,,,,,,5c3388fa01439b0001a0adfe,38,2022-02-12_13h22.53.971,lexical_decision_task_DD_L6,2021.2.3,Linux armv8l,59.89458553,,,,,,,,,,0.6326,1,,,,,,,,,,,,,,,0,-0.258789063,-0.315660265,1,0,0,0.6326,button_left_main,-0.258789063,-0.315660265,1,0,0,,0,55,55,116,1,BALGY,LB,z,z,./images/BALGYLB.png,,,,,,,,,,,,,,,,,,,,,,,,,,,,,,,,,
,,,,,,,,,,,,,,,,,5c3388fa01439b0001a0adfe,38,2022-02-12_13h22.53.971,lexical_decision_task_DD_L6,2021.2.3,Linux armv8l,59.89458553,,,,,,,,,,0.6282,1,,,,,,,,,,,,,,,0,0.249023438,-0.340250651,1,0,0,0.6282,button_right_main,0.249023438,-0.340250651,1,0,0,,0,56,56,36,1,BOILER,LB,m,m,./images/BOILERLB.png,,,,,,,,,,,,,,,,,,,,,,,,,,,,,,,,,
,,,,,,,,,,,,,,,,,5c3388fa01439b0001a0adfe,38,2022-02-12_13h22.53.971,lexical_decision_task_DD_L6,2021.2.3,Linux armv8l,59.89458553,,,,,,,,,,0.6784,1,,,,,,,,,,,,,,,0,-0.265869141,-0.332221137,1,0,0,0.6784,button_left_main,-0.265869141,-0.332221137,1,0,0,,0,57,57,113,1,LINEW,LB,z,z,./images/LINEWLB.png,,,,,,,,,,,,,,,,,,,,,,,,,,,,,,,,,
,,,,,,,,,,,,,,,,,5c3388fa01439b0001a0adfe,38,2022-02-12_13h22.53.971,lexical_decision_task_DD_L6,2021.2.3,Linux armv8l,59.89458553,,,,,,,,,,0.6947,1,,,,,,,,,,,,,,,0,0.264160156,-0.271999783,1,0,0,0.6947,button_right_main,0.264160156,-0.271999783,1,0,0,,0,58,58,37,1,TIGER,C,m,m,./images/TIGER.png,,,,,,,,,,,,,,,,,,,,,,,,,,,,,,,,,
,,,,,,,,,,,,,,,,,5c3388fa01439b0001a0adfe,38,2022-02-12_13h22.53.971,lexical_decision_task_DD_L6,2021.2.3,Linux armv8l,59.89458553,,,,,,,,,,0.8657,1,,,,,,,,,,,,,,,0,-0.288574219,-0.289564345,1,0,0,0.8657,button_left_main,-0.288574219,-0.289564345,1,0,0,,0,59,59,154,1,THINT,HB,z,z,./images/THINTHB.png,,,,,,,,,,,,,,,,,,,,,,,,,,,,,,,,,
,,,,,,,,,,,,,,,,,5c3388fa01439b0001a0adfe,38,2022-02-12_13h22.53.971,lexical_decision_task_DD_L6,2021.2.3,Linux armv8l,59.89458553,,,,,,,,,,0.6788,1,,,,,,,,,,,,,,,0,0.301025391,-0.358818902,1,0,0,0.6788,button_right_main,0.301025391,-0.358818902,1,0,0,,0,60,60,1,1,TOWEL,C,m,m,./images/TOWEL.png,,,,,,,,,,,,,,,,,,,,,,,,,,,,,,,,,
,,,,,,,,,,,,,,,,,5c3388fa01439b0001a0adfe,38,2022-02-12_13h22.53.971,lexical_decision_task_DD_L6,2021.2.3,Linux armv8l,59.89458553,,,,,,,,,,0.5278,1,,,,,,,,,,,,,,,0,0.308837891,-0.311143663,1,0,0,0.5278,button_right_main,0.308837891,-0.311143663,1,0,0,,0,61,61,42,1,CHAIN,LB,m,m,./images/CHAINLB.png,,,,,,,,,,,,,,,,,,,,,,,,,,,,,,,,,
,,,,,,,,,,,,,,,,,5c3388fa01439b0001a0adfe,38,2022-02-12_13h22.53.971,lexical_decision_task_DD_L6,2021.2.3,Linux armv8l,59.89458553,,,,,,,,,,0.7136,1,,,,,,,,,,,,,,,0,0.343994141,-0.358317057,1,0,0,0.7136,button_right_main,0.343994141,-0.358317057,1,0,0,,0,62,62,53,1,POSTER,HB,m,m,./images/POSTERHB.png,,,,,,,,,,,,,,,,,,,,,,,,,,,,,,,,,
,,,,,,,,,,,,,,,,,5c3388fa01439b0001a0adfe,38,2022-02-12_13h22.53.971,lexical_decision_task_DD_L6,2021.2.3,Linux armv8l,59.89458553,,,,,,,,,,0.517,1,,,,,,,,,,,,,,,0,0.286865234,-0.309638129,1,0,0,0.517,button_right_main,0.286865234,-0.309638129,1,0,0,,0,63,63,6,1,STAIN,LB,m,m,./images/STAINLB.png,,,,,,,,,,,,,,,,,,,,,,,,,,,,,,,,,
,,,,,,,,,,,,,,,,,5c3388fa01439b0001a0adfe,38,2022-02-12_13h22.53.971,lexical_decision_task_DD_L6,2021.2.3,Linux armv8l,59.89458553,,,,,,,,,,0.6428,1,,,,,,,,,,,,,,,0,-0.208984375,-0.267483181,1,0,0,0.6428,button_left_main,-0.208984375,-0.267483181,1,0,0,,0,64,64,162,1,LEICH,C,z,z,./images/LEICH.png,,,,,,,,,,,,,,,,,,,,,,,,,,,,,,,,,
,,,,,,,,,,,,,,,,,5c3388fa01439b0001a0adfe,38,2022-02-12_13h22.53.971,lexical_decision_task_DD_L6,2021.2.3,Linux armv8l,59.89458553,,,,,,,,,,0.5136,1,,,,,,,,,,,,,,,0,0.210693359,-0.353800456,1,0,0,0.5136,button_right_main,0.210693359,-0.353800456,1,0,0,,0,65,65,45,1,MONKEY,LB,m,m,./images/MONKEYLB.png,,,,,,,,,,,,,,,,,,,,,,,,,,,,,,,,,
,,,,,,,,,,,,,,,,,5c3388fa01439b0001a0adfe,38,2022-02-12_13h22.53.971,lexical_decision_task_DD_L6,2021.2.3,Linux armv8l,59.89458553,,,,,,,,,,0.5159,1,,,,,,,,,,,,,,,0,0.307861328,-0.320176866,1,0,0,0.5159,button_right_main,0.307861328,-0.320176866,1,0,0,,0,66,66,66,1,STATUE,LB,m,m,./images/STATUELB.png,,,,,,,,,,,,,,,,,,,,,,,,,,,,,,,,,
,,,,,,,,,,,,,,,,,5c3388fa01439b0001a0adfe,38,2022-02-12_13h22.53.971,lexical_decision_task_DD_L6,2021.2.3,Linux armv8l,59.89458553,,,,,,,,,,0.6823,1,,,,,,,,,,,,,,,0,-0.258544922,-0.308132595,1,0,0,0.6823,button_left_main,-0.258544922,-0.308132595,1,0,0,,0,67,67,155,1,CANGY,LB,z,z,./images/CANGYLB.png,,,,,,,,,,,,,,,,,,,,,,,,,,,,,,,,,
,,,,,,,,,,,,,,,,,5c3388fa01439b0001a0adfe,38,2022-02-12_13h22.53.971,lexical_decision_task_DD_L6,2021.2.3,Linux armv8l,59.89458553,,,,,,,,,,0.5765,1,,,,,,,,,,,,,,,0,0.317382813,-0.339748806,1,0,0,0.5765,button_right_main,0.317382813,-0.339748806,1,0,0,,0,68,68,23,1,CLOTH,HB,m,m,./images/CLOTHHB.png,,,,,,,,,,,,,,,,,,,,,,,,,,,,,,,,,
,,,,,,,,,,,,,,,,,5c3388fa01439b0001a0adfe,38,2022-02-12_13h22.53.971,lexical_decision_task_DD_L6,2021.2.3,Linux armv8l,59.89458553,,,,,,,,,,0.6986,1,,,,,,,,,,,,,,,0,-0.244384766,-0.30211046,1,0,0,0.6986,button_left_main,-0.244384766,-0.30211046,1,0,0,,0,69,69,158,1,EGECT,LB,z,z,./images/EGECTLB.png,,,,,,,,,,,,,,,,,,,,,,,,,,,,,,,,,
,,,,,,,,,,,,,,,,,5c3388fa01439b0001a0adfe,38,2022-02-12_13h22.53.971,lexical_decision_task_DD_L6,2021.2.3,Linux armv8l,59.89458553,,,,,,,,,,0.6473,1,,,,,,,,,,,,,,,0,0.264892578,-0.288058811,1,0,0,0.6473,button_right_main,0.264892578,-0.288058811,1,0,0,,0,70,70,56,1,HEATER,HB,m,m,./images/HEATERHB.png,,,,,,,,,,,,,,,,,,,,,,,,,,,,,,,,,
,,,,,,,,,,,,,,,,,5c3388fa01439b0001a0adfe,38,2022-02-12_13h22.53.971,lexical_decision_task_DD_L6,2021.2.3,Linux armv8l,59.89458553,,,,,,,,,,0.9316,1,,,,,,,,,,,,,,,0,0.391113281,-0.393948025,1,0,0,0.9316,button_right_main,0.391113281,-0.393948025,1,0,0,,0,71,71,50,1,PILOT,HB,m,m,./images/PILOTHB.png,,,,,,,,,,,,,,,,,,,,,,,,,,,,,,,,,
,,,,,,,,,,,,,,,,,5c3388fa01439b0001a0adfe,38,2022-02-12_13h22.53.971,lexical_decision_task_DD_L6,2021.2.3,Linux armv8l,59.89458553,,,,,,,,,,0.531,1,,,,,,,,,,,,,,,0,0.314208984,-0.290066189,1,0,0,0.531,button_right_main,0.314208984,-0.290066189,1,0,0,,0,72,72,24,1,FLESH,LB,m,m,./images/FLESHLB.png,,,,,,,,,,,,,,,,,,,,,,,,,,,,,,,,,
,,,,,,,,,,,,,,,,,5c3388fa01439b0001a0adfe,38,2022-02-12_13h22.53.971,lexical_decision_task_DD_L6,2021.2.3,Linux armv8l,59.89458553,,,,,,,,,,0.5431,1,,,,,,,,,,,,,,,0,0.302490234,-0.326700846,1,0,0,0.5431,button_right_main,0.302490234,-0.326700846,1,0,0,,0,73,73,59,1,BRUSH,HB,m,m,./images/BRUSHHB.png,,,,,,,,,,,,,,,,,,,,,,,,,,,,,,,,,
,,,,,,,,,,,,,,,,,5c3388fa01439b0001a0adfe,38,2022-02-12_13h22.53.971,lexical_decision_task_DD_L6,2021.2.3,Linux armv8l,59.89458553,,,,,,,,,,0.8789,1,,,,,,,,,,,,,,,0,-0.262451172,-0.30863444,1,0,0,0.8789,button_left_main,-0.262451172,-0.30863444,1,0,0,,0,74,74,145,1,LAMEL,HB,z,z,./images/LAMELHB.png,,,,,,,,,,,,,,,,,,,,,,,,,,,,,,,,,
,,,,,,,,,,,,,,,,,5c3388fa01439b0001a0adfe,38,2022-02-12_13h22.53.971,lexical_decision_task_DD_L6,2021.2.3,Linux armv8l,59.89458553,,,,,,,,,,0.7639,1,,,,,,,,,,,,,,,0,-0.297607422,-0.336737739,1,0,0,0.7639,button_left_main,-0.297607422,-0.336737739,1,0,0,,0,75,75,111,1,HOSSE,C,z,z,./images/HOSSE.png,,,,,,,,,,,,,,,,,,,,,,,,,,,,,,,,,
,,,,,,,,,,,,,,,,,5c3388fa01439b0001a0adfe,38,2022-02-12_13h22.53.971,lexical_decision_task_DD_L6,2021.2.3,Linux armv8l,59.89458553,,,,,,,,,,0.785,1,,,,,,,,,,,,,,,0,-0.254150391,-0.358818902,1,0,0,0.785,button_left_main,-0.254150391,-0.358818902,1,0,0,,0,76,76,165,1,TROWN,C,z,z,./images/TROWN.png,,,,,,,,,,,,,,,,,,,,,,,,,,,,,,,,,
,,,,,,,,,,,,,,,,,5c3388fa01439b0001a0adfe,38,2022-02-12_13h22.53.971,lexical_decision_task_DD_L6,2021.2.3,Linux armv8l,59.89458553,,,,,,,,,,0.6634,1,,,,,,,,,,,,,,,0,0.361572266,-0.311143663,1,0,0,0.6634,button_right_main,0.361572266,-0.311143663,1,0,0,,0,77,77,41,1,STREAM,HB,m,m,./images/STREAMHB.png,,,,,,,,,,,,,,,,,,,,,,,,,,,,,,,,,
,,,,,,,,,,,,,,,,,5c3388fa01439b0001a0adfe,38,2022-02-12_13h22.53.971,lexical_decision_task_DD_L6,2021.2.3,Linux armv8l,59.89458553,,,,,,,,,,0.7323,1,,,,,,,,,,,,,,,0,-0.323242188,-0.343261719,1,0,0,0.7323,button_left_main,-0.323242188,-0.343261719,1,0,0,,0,78,78,160,1,VEETS,HB,z,z,./images/VEETSHB.png,,,,,,,,,,,,,,,,,,,,,,,,,,,,,,,,,
,,,,,,,,,,,,,,,,,5c3388fa01439b0001a0adfe,38,2022-02-12_13h22.53.971,lexical_decision_task_DD_L6,2021.2.3,Linux armv8l,59.89458553,,,,,,,,,,0.7313,1,,,,,,,,,,,,,,,0,0.338134766,-0.326199002,1,0,0,0.7313,button_right_main,0.338134766,-0.326199002,1,0,0,,0,79,79,2,1,STOVE,HB,m,m,./images/STOVEHB.png,,,,,,,,,,,,,,,,,,,,,,,,,,,,,,,,,
,,,,,,,,,,,,,,,,,5c3388fa01439b0001a0adfe,38,2022-02-12_13h22.53.971,lexical_decision_task_DD_L6,2021.2.3,Linux armv8l,59.89458553,,,,,,,,,,0.5973,1,,,,,,,,,,,,,,,0,0.294677734,-0.291069878,1,0,0,0.5973,button_right_main,0.294677734,-0.291069878,1,0,0,,0,80,80,17,1,PARADE,HB,m,m,./images/PARADEHB.png,,,,,,,,,,,,,,,,,,,,,,,,,,,,,,,,,
,,,,,,,,,,,,,,,,,5c3388fa01439b0001a0adfe,38,2022-02-12_13h22.53.971,lexical_decision_task_DD_L6,2021.2.3,Linux armv8l,59.89458553,,,,,,,,,,0.6326,1,,,,,,,,,,,,,,,0,0.385986328,-0.362833659,1,0,0,0.6326,button_right_main,0.385986328,-0.362833659,1,0,0,,0,81,81,60,1,CURRY,LB,m,m,./images/CURRYLB.png,,,,,,,,,,,,,,,,,,,,,,,,,,,,,,,,,
,,,,,,,,,,,,,,,,,5c3388fa01439b0001a0adfe,38,2022-02-12_13h22.53.971,lexical_decision_task_DD_L6,2021.2.3,Linux armv8l,59.89458553,,,,,,,,,,0.5429,1,,,,,,,,,,,,,,,0,0.336181641,-0.294080946,1,0,0,0.5429,button_right_main,0.336181641,-0.294080946,1,0,0,,0,82,82,81,1,DRILL,LB,m,m,./images/DRILLLB.png,,,,,,,,,,,,,,,,,,,,,,,,,,,,,,,,,
,,,,,,,,,,,,,,,,,5c3388fa01439b0001a0adfe,38,2022-02-12_13h22.53.971,lexical_decision_task_DD_L6,2021.2.3,Linux armv8l,59.89458553,,,,,,,,,,0.6628,0,,,,,,,,,,,,,,,0,0.332763672,-0.338243273,1,0,0,0.6628,button_right_main,0.114501953,-0.402981228,1,0,0,,0,83,83,128,1,GRIFT,LB,z,z,./images/GRIFTLB.png,break_done_button,,,,,,,,,,,,,,,,,,,,,,,,,,,,,,,,
,,,,,,,,,,,,,,,,,5c3388fa01439b0001a0adfe,38,2022-02-12_13h22.53.971,lexical_decision_task_DD_L6,2021.2.3,Linux armv8l,59.89458553,,,,,,,,,,0.5821,1,,,,,,,,,,,,,,,0,0.361816406,-0.321180556,1,0,0,0.5821,button_right_main,0.361816406,-0.321180556,1,0,0,,0,84,84,7,1,WAGON,C,m,m,./images/WAGON.png,,,,,,,,,,,,,,,,,,,,,,,,,,,,,,,,,
,,,,,,,,,,,,,,,,,5c3388fa01439b0001a0adfe,38,2022-02-12_13h22.53.971,lexical_decision_task_DD_L6,2021.2.3,Linux armv8l,59.89458553,,,,,,,,,,0.6133,1,,,,,,,,,,,,,,,0,0.327392578,-0.330715603,1,0,0,0.6133,button_right_main,0.327392578,-0.330715603,1,0,0,,0,85,85,71,1,BUBBLE,HB,m,m,./images/BUBBLEHB.png,,,,,,,,,,,,,,,,,,,,,,,,,,,,,,,,,
,,,,,,,,,,,,,,,,,5c3388fa01439b0001a0adfe,38,2022-02-12_13h22.53.971,lexical_decision_task_DD_L6,2021.2.3,Linux armv8l,59.89458553,,,,,,,,,,0.5271,1,,,,,,,,,,,,,,,0,0.324462891,-0.318671332,1,0,0,0.5271,button_right_main,0.324462891,-0.318671332,1,0,0,,0,86,86,67,1,POKER,C,m,m,./images/POKER.png,,,,,,,,,,,,,,,,,,,,,,,,,,,,,,,,,
,,,,,,,,,,,,,,,,,5c3388fa01439b0001a0adfe,38,2022-02-12_13h22.53.971,lexical_decision_task_DD_L6,2021.2.3,Linux armv8l,59.89458553,,,,,,,,,,0.7005,1,,,,,,,,,,,,,,,0,-0.214355469,-0.262464735,1,0,0,0.7005,button_left_main,-0.214355469,-0.262464735,1,0,0,,0,87,87,153,1,CLUPS,C,z,z,./images/CLUPS.png,,,,,,,,,,,,,,,,,,,,,,,,,,,,,,,,,
,,,,,,,,,,,,,,,,,5c3388fa01439b0001a0adfe,38,2022-02-12_13h22.53.971,lexical_decision_task_DD_L6,2021.2.3,Linux armv8l,59.89458553,,,,,,,,,,0.7514,1,,,,,,,,,,,,,,,0,0.229736328,-0.294080946,1,0,0,0.7514,button_right_main,0.229736328,-0.294080946,1,0,0,,0,88,88,82,1,PEBBLE,C,m,m,./images/PEBBLE.png,,,,,,,,,,,,,,,,,,,,,,,,,,,,,,,,,
,,,,,,,,,,,,,,,,,5c3388fa01439b0001a0adfe,38,2022-02-12_13h22.53.971,lexical_decision_task_DD_L6,2021.2.3,Linux armv8l,59.89458553,,,,,,,,,,0.7281,1,,,,,,,,,,,,,,,0,-0.265380859,-0.321180556,1,0,0,0.7281,button_left_main,-0.265380859,-0.321180556,1,0,0,,0,89,89,131,1,NACES,LB,z,z,./images/NACESLB.png,,,,,,,,,,,,,,,,,,,,,,,,,,,,,,,,,
,,,,,,,,,,,,,,,,,5c3388fa01439b0001a0adfe,38,2022-02-12_13h22.53.971,lexical_decision_task_DD_L6,2021.2.3,Linux armv8l,59.89458553,,,,,,,,,,0.6953,1,,,,,,,,,,,,,,,0,-0.237548828,-0.323689779,1,0,0,0.6953,button_left_main,-0.237548828,-0.323689779,1,0,0,,0,90,90,135,1,JOODY,C,z,z,./images/JOODY.png,,,,,,,,,,,,,,,,,,,,,,,,,,,,,,,,,
,,,,,,,,,,,,,,,,,5c3388fa01439b0001a0adfe,38,2022-02-12_13h22.53.971,lexical_decision_task_DD_L6,2021.2.3,Linux armv8l,59.89458553,,,,,,,,,,0.6974,1,,,,,,,,,,,,,,,0,-0.232666016,-0.333224826,1,0,0,0.6974,button_left_main,-0.232666016,-0.333224826,1,0,0,,0,91,91,88,1,GLUSH,HB,z,z,./images/GLUSHHB.png,,,,,,,,,,,,,,,,,,,,,,,,,,,,,,,,,
,,,,,,,,,,,,,,,,,5c3388fa01439b0001a0adfe,38,2022-02-12_13h22.53.971,lexical_decision_task_DD_L6,2021.2.3,Linux armv8l,59.89458553,,,,,,,,,,0.6616,1,,,,,,,,,,,,,,,0,0.353759766,-0.309136285,1,0,0,0.6616,button_right_main,0.353759766,-0.309136285,1,0,0,,0,92,92,33,1,SAUNA,LB,m,m,./images/SAUNALB.png,,,,,,,,,,,,,,,,,,,,,,,,,,,,,,,,,
,,,,,,,,,,,,,,,,,5c3388fa01439b0001a0adfe,38,2022-02-12_13h22.53.971,lexical_decision_task_DD_L6,2021.2.3,Linux armv8l,59.89458553,,,,,,,,,,0.747,1,,,,,,,,,,,,,,,0,-0.231933594,-0.323187934,1,0,0,0.747,button_left_main,-0.231933594,-0.323187934,1,0,0,,0,93,93,138,1,PLICE,C,z,z,./images/PLICE.png,,,,,,,,,,,,,,,,,,,,,,,,,,,,,,,,,
,,,,,,,,,,,,,,,,,5c3388fa01439b0001a0adfe,38,2022-02-12_13h22.53.971,lexical_decision_task_DD_L6,2021.2.3,Linux armv8l,59.89458553,,,,,,,,,,0.6993,1,,,,,,,,,,,,,,,0,-0.238525391,-0.363335503,1,0,0,0.6993,button_left_main,-0.238525391,-0.363335503,1,0,0,,0,94,94,89,1,DRIEK,LB,z,z,./images/DRIEKLB.png,,,,,,,,,,,,,,,,,,,,,,,,,,,,,,,,,
,,,,,,,,,,,,,,,,,5c3388fa01439b0001a0adfe,38,2022-02-12_13h22.53.971,lexical_decision_task_DD_L6,2021.2.3,Linux armv8l,59.89458553,,,,,,,,,,0.7269,1,,,,,,,,,,,,,,,0,0.312011719,-0.293077257,1,0,0,0.7269,button_right_main,0.312011719,-0.293077257,1,0,0,,0,95,95,48,1,SHIELD,LB,m,m,./images/SHIELDLB.png,,,,,,,,,,,,,,,,,,,,,,,,,,,,,,,,,
,,,,,,,,,,,,,,,,,5c3388fa01439b0001a0adfe,38,2022-02-12_13h22.53.971,lexical_decision_task_DD_L6,2021.2.3,Linux armv8l,59.89458553,,,,,,,,,,0.6487,1,,,,,,,,,,,,,,,0,-0.248291016,-0.343763563,1,0,0,0.6487,button_left_main,-0.248291016,-0.343763563,1,0,0,,0,96,96,112,1,MYING,HB,z,z,./images/MYINGHB.png,,,,,,,,,,,,,,,,,,,,,,,,,,,,,,,,,
,,,,,,,,,,,,,,,,,5c3388fa01439b0001a0adfe,38,2022-02-12_13h22.53.971,lexical_decision_task_DD_L6,2021.2.3,Linux armv8l,59.89458553,,,,,,,,,,0.6779,1,,,,,,,,,,,,,,,0,0.323486328,-0.266981337,1,0,0,0.6779,button_right_main,0.323486328,-0.266981337,1,0,0,,0,97,97,28,1,CASINO,C,m,m,./images/CASINO.png,,,,,,,,,,,,,,,,,,,,,,,,,,,,,,,,,
,,,,,,,,,,,,,,,,,5c3388fa01439b0001a0adfe,38,2022-02-12_13h22.53.971,lexical_decision_task_DD_L6,2021.2.3,Linux armv8l,59.89458553,,,,,,,,,,0.7627,1,,,,,,,,,,,,,,,0,-0.249267578,-0.346272786,1,0,0,0.7627,button_left_main,-0.249267578,-0.346272786,1,0,0,,0,98,98,137,1,JOOST,LB,z,z,./images/JOOSTLB.png,,,,,,,,,,,,,,,,,,,,,,,,,,,,,,,,,
,,,,,,,,,,,,,,,,,5c3388fa01439b0001a0adfe,38,2022-02-12_13h22.53.971,lexical_decision_task_DD_L6,2021.2.3,Linux armv8l,59.89458553,,,,,,,,,,0.7955,1,,,,,,,,,,,,,,,0,-0.203613281,-0.317667643,1,0,0,0.7955,button_left_main,-0.203613281,-0.317667643,1,0,0,,0,99,99,147,1,ZOLES,C,z,z,./images/ZOLES.png,,,,,,,,,,,,,,,,,,,,,,,,,,,,,,,,,
,,,,,,,,,,,,,,,,,5c3388fa01439b0001a0adfe,38,2022-02-12_13h22.53.971,lexical_decision_task_DD_L6,2021.2.3,Linux armv8l,59.89458553,,,,,,,,,,0.6805,1,,,,,,,,,,,,,,,0,0.30859375,-0.290066189,1,0,0,0.6805,button_right_main,0.30859375,-0.290066189,1,0,0,,0,100,100,13,1,BUNNY,C,m,m,./images/BUNNY.png,,,,,,,,,,,,,,,,,,,,,,,,,,,,,,,,,
,,,,,,,,,,,,,,,,,5c3388fa01439b0001a0adfe,38,2022-02-12_13h22.53.971,lexical_decision_task_DD_L6,2021.2.3,Linux armv8l,59.89458553,,,,,,,,,,0.7822,1,,,,,,,,,,,,,,,0,-0.282226563,-0.299099392,1,0,0,0.7822,button_left_main,-0.282226563,-0.299099392,1,0,0,,0,101,101,121,1,CEERS,HB,z,z,./images/CEERSHB.png,,,,,,,,,,,,,,,,,,,,,,,,,,,,,,,,,
,,,,,,,,,,,,,,,,,5c3388fa01439b0001a0adfe,38,2022-02-12_13h22.53.971,lexical_decision_task_DD_L6,2021.2.3,Linux armv8l,59.89458553,,,,,,,,,,0.6832,1,,,,,,,,,,,,,,,0,-0.224365234,-0.333224826,1,0,0,0.6832,button_left_main,-0.224365234,-0.333224826,1,0,0,,0,102,102,126,1,GUELS,C,z,z,./images/GUELS.png,,,,,,,,,,,,,,,,,,,,,,,,,,,,,,,,,
,,,,,,,,,,,,,,,,,5c3388fa01439b0001a0adfe,38,2022-02-12_13h22.53.971,lexical_decision_task_DD_L6,2021.2.3,Linux armv8l,59.89458553,,,,,,,,,,0.5618,1,,,,,,,,,,,,,,,0,-0.250244141,-0.329711914,1,0,0,0.5618,button_left_main,-0.250244141,-0.329711914,1,0,0,,0,103,103,92,1,PAIMS,LB,z,z,./images/PAIMSLB.png,,,,,,,,,,,,,,,,,,,,,,,,,,,,,,,,,
,,,,,,,,,,,,,,,,,5c3388fa01439b0001a0adfe,38,2022-02-12_13h22.53.971,lexical_decision_task_DD_L6,2021.2.3,Linux armv8l,59.89458553,,,,,,,,,,0.632,1,,,,,,,,,,,,,,,0,-0.247070313,-0.359822591,1,0,0,0.632,button_left_main,-0.247070313,-0.359822591,1,0,0,,0,104,104,136,1,WERVE,HB,z,z,./images/WERVEHB.png,,,,,,,,,,,,,,,,,,,,,,,,,,,,,,,,,
,,,,,,,,,,,,,,,,,5c3388fa01439b0001a0adfe,38,2022-02-12_13h22.53.971,lexical_decision_task_DD_L6,2021.2.3,Linux armv8l,59.89458553,,,,,,,,,,0.6803,1,,,,,,,,,,,,,,,0,0.306884766,-0.30863444,1,0,0,0.6803,button_right_main,0.306884766,-0.30863444,1,0,0,,0,105,105,65,1,SPINE,HB,m,m,./images/SPINEHB.png,,,,,,,,,,,,,,,,,,,,,,,,,,,,,,,,,
,,,,,,,,,,,,,,,,,5c3388fa01439b0001a0adfe,38,2022-02-12_13h22.53.971,lexical_decision_task_DD_L6,2021.2.3,Linux armv8l,59.89458553,,,,,,,,,,0.7272,1,,,,,,,,,,,,,,,0,-0.169189453,-0.27601454,1,0,0,0.7272,button_left_main,-0.258544922,-0.312649197,1,0,0,,0,106,106,108,1,GRUET,C,z,z,./images/GRUET.png,,,,,,,,,,,,,,,,,,,,,,,,,,,,,,,,,
,,,,,,,,,,,,,,,,,5c3388fa01439b0001a0adfe,38,2022-02-12_13h22.53.971,lexical_decision_task_DD_L6,2021.2.3,Linux armv8l,59.89458553,,,,,,,,,,0.645,1,,,,,,,,,,,,,,,0,-0.258056641,-0.332722982,1,0,0,0.645,button_left_main,-0.258056641,-0.332722982,1,0,0,,0,107,107,144,1,NAIRY,C,z,z,./images/NAIRY.png,,,,,,,,,,,,,,,,,,,,,,,,,,,,,,,,,
,,,,,,,,,,,,,,,,,5c3388fa01439b0001a0adfe,38,2022-02-12_13h22.53.971,lexical_decision_task_DD_L6,2021.2.3,Linux armv8l,59.89458553,,,,,,,,,,0.7046,1,,,,,,,,,,,,,,,0,-0.289550781,-0.335232205,1,0,0,0.7046,button_left_main,-0.289550781,-0.335232205,1,0,0,,0,108,108,163,1,GAMBA,HB,z,z,./images/GAMBAHB.png,,,,,,,,,,,,,,,,,,,,,,,,,,,,,,,,,
,,,,,,,,,,,,,,,,,5c3388fa01439b0001a0adfe,38,2022-02-12_13h22.53.971,lexical_decision_task_DD_L6,2021.2.3,Linux armv8l,59.89458553,,,,,,,,,,0.7796,1,,,,,,,,,,,,,,,0,0.315917969,-0.379394531,1,0,0,0.7796,button_right_main,0.315917969,-0.379394531,1,0,0,,0,109,109,80,1,PLANET,HB,m,m,./images/PLANETHB.png,,,,,,,,,,,,,,,,,,,,,,,,,,,,,,,,,
,,,,,,,,,,,,,,,,,5c3388fa01439b0001a0adfe,38,2022-02-12_13h22.53.971,lexical_decision_task_DD_L6,2021.2.3,Linux armv8l,59.89458553,,,,,,,,,,0.6754,1,,,,,,,,,,,,,,,0,-0.278808594,-0.33473036,1,0,0,0.6754,button_left_main,-0.278808594,-0.33473036,1,0,0,,0,110,110,149,1,VEASE,LB,z,z,./images/VEASELB.png,,,,,,,,,,,,,,,,,,,,,,,,,,,,,,,,,
,,,,,,,,,,,,,,,,,5c3388fa01439b0001a0adfe,38,2022-02-12_13h22.53.971,lexical_decision_task_DD_L6,2021.2.3,Linux armv8l,59.89458553,,,,,,,,,,0.5646,1,,,,,,,,,,,,,,,0,0.3671875,-0.334228516,1,0,0,0.5646,button_right_main,0.3671875,-0.334228516,1,0,0,,0,111,111,40,1,SNAKE,C,m,m,./images/SNAKE.png,,,,,,,,,,,,,,,,,,,,,,,,,,,,,,,,,
,,,,,,,,,,,,,,,,,5c3388fa01439b0001a0adfe,38,2022-02-12_13h22.53.971,lexical_decision_task_DD_L6,2021.2.3,Linux armv8l,59.89458553,,,,,,,,,,0.547,1,,,,,,,,,,,,,,,0,0.331298828,-0.260457357,1,0,0,0.547,button_right_main,0.331298828,-0.260457357,1,0,0,,0,112,112,31,1,STEAK,C,m,m,./images/STEAK.png,,,,,,,,,,,,,,,,,,,,,,,,,,,,,,,,,
,,,,,,,,,,,,,,,,,5c3388fa01439b0001a0adfe,38,2022-02-12_13h22.53.971,lexical_decision_task_DD_L6,2021.2.3,Linux armv8l,59.89458553,,,,,,,,,,0.6672,1,,,,,,,,,,,,,,,0,-0.336181641,-0.356811523,1,0,0,0.6672,button_left_main,-0.336181641,-0.356811523,1,0,0,,0,113,113,123,1,SEDGE,C,z,z,./images/SEDGE.png,,,,,,,,,,,,,,,,,,,,,,,,,,,,,,,,,
,,,,,,,,,,,,,,,,,5c3388fa01439b0001a0adfe,38,2022-02-12_13h22.53.971,lexical_decision_task_DD_L6,2021.2.3,Linux armv8l,59.89458553,,,,,,,,,,1.2514,1,,,,,,,,,,,,,,,0,-0.316894531,-0.298095703,1,0,0,1.2514,button_left_main,-0.316894531,-0.298095703,1,0,0,,0,114,114,114,1,RIKES,C,z,z,./images/RIKES.png,,,,,,,,,,,,,,,,,,,,,,,,,,,,,,,,,
,,,,,,,,,,,,,,,,,5c3388fa01439b0001a0adfe,38,2022-02-12_13h22.53.971,lexical_decision_task_DD_L6,2021.2.3,Linux armv8l,59.89458553,,,,,,,,,,0.7787,1,,,,,,,,,,,,,,,0,-0.210693359,-0.332221137,1,0,0,0.7787,button_left_main,-0.210693359,-0.332221137,1,0,0,,0,115,115,87,1,TRING,C,z,z,./images/TRING.png,,,,,,,,,,,,,,,,,,,,,,,,,,,,,,,,,
,,,,,,,,,,,,,,,,,5c3388fa01439b0001a0adfe,38,2022-02-12_13h22.53.971,lexical_decision_task_DD_L6,2021.2.3,Linux armv8l,59.89458553,,,,,,,,,,0.6496,1,,,,,,,,,,,,,,,0,0.381835938,-0.341756185,1,0,0,0.6496,button_right_main,0.381835938,-0.341756185,1,0,0,,0,116,116,26,1,CLOUD,HB,m,m,./images/CLOUDHB.png,,,,,,,,,,,,,,,,,,,,,,,,,,,,,,,,,
,,,,,,,,,,,,,,,,,5c3388fa01439b0001a0adfe,38,2022-02-12_13h22.53.971,lexical_decision_task_DD_L6,2021.2.3,Linux armv8l,59.89458553,,,,,,,,,,0.6104,1,,,,,,,,,,,,,,,0,0.291748047,-0.349785699,1,0,0,0.6104,button_right_main,0.291748047,-0.349785699,1,0,0,,0,117,117,20,1,GRANNY,HB,m,m,./images/GRANNYHB.png,,,,,,,,,,,,,,,,,,,,,,,,,,,,,,,,,
,,,,,,,,,,,,,,,,,5c3388fa01439b0001a0adfe,38,2022-02-12_13h22.53.971,lexical_decision_task_DD_L6,2021.2.3,Linux armv8l,59.89458553,,,,,,,,,,1.1797,1,,,,,,,,,,,,,,,0,-0.222900391,-0.366346571,1,0,0,1.1797,button_left_main,-0.222900391,-0.366346571,1,0,0,,0,118,118,120,1,RINED,C,z,z,./images/RINED.png,,,,,,,,,,,,,,,,,,,,,,,,,,,,,,,,,
,,,,,,,,,,,,,,,,,5c3388fa01439b0001a0adfe,38,2022-02-12_13h22.53.971,lexical_decision_task_DD_L6,2021.2.3,Linux armv8l,59.89458553,,,,,,,,,,1.0144,1,,,,,,,,,,,,,,,0,0.285400391,-0.297593859,1,0,0,1.0144,button_right_main,0.285400391,-0.297593859,1,0,0,,0,119,119,10,1,GARDEN,C,m,m,./images/GARDEN.png,,,,,,,,,,,,,,,,,,,,,,,,,,,,,,,,,
,,,,,,,,,,,,,,,,,5c3388fa01439b0001a0adfe,38,2022-02-12_13h22.53.971,lexical_decision_task_DD_L6,2021.2.3,Linux armv8l,59.89458553,,,,,,,,,,0.8962,1,,,,,,,,,,,,,,,0,-0.243408203,-0.350287543,1,0,0,0.8962,button_left_main,-0.243408203,-0.350287543,1,0,0,,0,120,120,98,1,BAMPS,LB,z,z,./images/BAMPSLB.png,,,,,,,,,,,,,,,,,,,,,,,,,,,,,,,,,
,,,,,,,,,,,,,,,,,5c3388fa01439b0001a0adfe,38,2022-02-12_13h22.53.971,lexical_decision_task_DD_L6,2021.2.3,Linux armv8l,59.89458553,,,,,,,,,,1.2651,0,,,,,,,,,,,,,,,0,0.278076172,-0.333726671,1,0,0,1.2651,button_right_main,0.278076172,-0.333726671,1,0,0,,0,121,121,166,1,SHORY,HB,z,z,./images/SHORYHB.png,,,,,,,,,,,,,,,,,,,,,,,,,,,,,,,,,
,,,,,,,,,,,,,,,,,5c3388fa01439b0001a0adfe,38,2022-02-12_13h22.53.971,lexical_decision_task_DD_L6,2021.2.3,Linux armv8l,59.89458553,,,,,,,,,,0.63,1,,,,,,,,,,,,,,,0,0.328125,-0.338243273,1,0,0,0.63,button_right_main,0.328125,-0.338243273,1,0,0,,0,122,122,19,1,DONKEY,C,m,m,./images/DONKEY.png,,,,,,,,,,,,,,,,,,,,,,,,,,,,,,,,,
,,,,,,,,,,,,,,,,,5c3388fa01439b0001a0adfe,38,2022-02-12_13h22.53.971,lexical_decision_task_DD_L6,2021.2.3,Linux armv8l,59.89458553,,,,,,,,,,0.8502,1,,,,,,,,,,,,,,,0,-0.288818359,-0.328708225,1,0,0,0.8502,button_left_main,-0.288818359,-0.328708225,1,0,0,,0,123,123,115,1,MAWNS,HB,z,z,./images/MAWNSHB.png,,,,,,,,,,,,,,,,,,,,,,,,,,,,,,,,,
,,,,,,,,,,,,,,,,,5c3388fa01439b0001a0adfe,38,2022-02-12_13h22.53.971,lexical_decision_task_DD_L6,2021.2.3,Linux armv8l,59.89458553,,,,,,,,,,0.9641,1,,,,,,,,,,,,,,,0,-0.255615234,-0.337741428,1,0,0,0.9641,button_left_main,-0.255615234,-0.337741428,1,0,0,,0,124,124,156,1,HIXES,C,z,z,./images/HIXES.png,,,,,,,,,,,,,,,,,,,,,,,,,,,,,,,,,
,,,,,,,,,,,,,,,,,5c3388fa01439b0001a0adfe,38,2022-02-12_13h22.53.971,lexical_decision_task_DD_L6,2021.2.3,Linux armv8l,59.89458553,,,,,,,,,,0.9826,1,,,,,,,,,,,,,,,0,-0.244384766,-0.360324436,1,0,0,0.9826,button_left_main,0.030029297,-0.399468316,1,0,0,,0,125,125,100,1,DRIBS,HB,z,z,./images/DRIBSHB.png,break_done_button,,,,,,,,,,,,,,,,,,,,,,,,,,,,,,,,
,,,,,,,,,,,,,,,,,5c3388fa01439b0001a0adfe,38,2022-02-12_13h22.53.971,lexical_decision_task_DD_L6,2021.2.3,Linux armv8l,59.89458553,,,,,,,,,,1.0127,1,,,,,,,,,,,,,,,0,0.368164063,-0.338243273,1,0,0,1.0127,button_right_main,0.368164063,-0.338243273,1,0,0,,0,126,126,32,1,HOCKEY,HB,m,m,./images/HOCKEYHB.png,,,,,,,,,,,,,,,,,,,,,,,,,,,,,,,,,
,,,,,,,,,,,,,,,,,5c3388fa01439b0001a0adfe,38,2022-02-12_13h22.53.971,lexical_decision_task_DD_L6,2021.2.3,Linux armv8l,59.89458553,,,,,,,,,,0.9752,1,,,,,,,,,,,,,,,0,-0.3046875,-0.281534831,1,0,0,0.9752,button_left_main,-0.3046875,-0.281534831,1,0,0,,0,127,127,125,1,MOOKY,LB,z,z,./images/MOOKYLB.png,,,,,,,,,,,,,,,,,,,,,,,,,,,,,,,,,
,,,,,,,,,,,,,,,,,5c3388fa01439b0001a0adfe,38,2022-02-12_13h22.53.971,lexical_decision_task_DD_L6,2021.2.3,Linux armv8l,59.89458553,,,,,,,,,,0.7453,1,,,,,,,,,,,,,,,0,-0.207763672,-0.306627062,1,0,0,0.7453,button_left_main,-0.207763672,-0.306627062,1,0,0,,0,128,128,124,1,TUNCH,HB,z,z,./images/TUNCHHB.png,,,,,,,,,,,,,,,,,,,,,,,,,,,,,,,,,
,,,,,,,,,,,,,,,,,5c3388fa01439b0001a0adfe,38,2022-02-12_13h22.53.971,lexical_decision_task_DD_L6,2021.2.3,Linux armv8l,59.89458553,,,,,,,,,,1.1661,1,,,,,,,,,,,,,,,0,-0.239746094,-0.319173177,1,0,0,1.1661,button_left_main,-0.239746094,-0.319173177,1,0,0,,0,129,129,151,1,TINKY,HB,z,z,./images/TINKYHB.png,,,,,,,,,,,,,,,,,,,,,,,,,,,,,,,,,
,,,,,,,,,,,,,,,,,5c3388fa01439b0001a0adfe,38,2022-02-12_13h22.53.971,lexical_decision_task_DD_L6,2021.2.3,Linux armv8l,59.89458553,,,,,,,,,,0.6624,1,,,,,,,,,,,,,,,0,0.439453125,-0.383911133,1,0,0,0.6624,button_right_main,0.439453125,-0.383911133,1,0,0,,0,130,130,73,1,GLOVE,C,m,m,./images/GLOVE.png,,,,,,,,,,,,,,,,,,,,,,,,,,,,,,,,,
,,,,,,,,,,,,,,,,,5c3388fa01439b0001a0adfe,38,2022-02-12_13h22.53.971,lexical_decision_task_DD_L6,2021.2.3,Linux armv8l,59.89458553,,,,,,,,,,0.5821,1,,,,,,,,,,,,,,,0,0.305419922,-0.316663954,1,0,0,0.5821,button_right_main,0.305419922,-0.316663954,1,0,0,,0,131,131,64,1,BRIDE,C,m,m,./images/BRIDE.png,,,,,,,,,,,,,,,,,,,,,,,,,,,,,,,,,
,,,,,,,,,,,,,,,,,5c3388fa01439b0001a0adfe,38,2022-02-12_13h22.53.971,lexical_decision_task_DD_L6,2021.2.3,Linux armv8l,59.89458553,,,,,,,,,,0.7243,1,,,,,,,,,,,,,,,0,0.357910156,-0.322184245,1,0,0,0.7243,button_right_main,0.357910156,-0.322184245,1,0,0,,0,132,132,25,1,CHALK,C,m,m,./images/CHALK.png,,,,,,,,,,,,,,,,,,,,,,,,,,,,,,,,,
,,,,,,,,,,,,,,,,,5c3388fa01439b0001a0adfe,38,2022-02-12_13h22.53.971,lexical_decision_task_DD_L6,2021.2.3,Linux armv8l,59.89458553,,,,,,,,,,0.796,1,,,,,,,,,,,,,,,0,-0.32421875,-0.356811523,1,0,0,0.796,button_left_main,-0.32421875,-0.356811523,1,0,0,,0,133,133,141,1,PLEET,C,z,z,./images/PLEET.png,,,,,,,,,,,,,,,,,,,,,,,,,,,,,,,,,
,,,,,,,,,,,,,,,,,5c3388fa01439b0001a0adfe,38,2022-02-12_13h22.53.971,lexical_decision_task_DD_L6,2021.2.3,Linux armv8l,59.89458553,,,,,,,,,,0.7298,1,,,,,,,,,,,,,,,0,0.185058594,-0.263468424,1,0,0,0.7298,button_right_main,0.333984375,-0.308132595,1,0,0,,0,134,134,70,1,BANANA,C,m,m,./images/BANANA.png,,,,,,,,,,,,,,,,,,,,,,,,,,,,,,,,,
,,,,,,,,,,,,,,,,,5c3388fa01439b0001a0adfe,38,2022-02-12_13h22.53.971,lexical_decision_task_DD_L6,2021.2.3,Linux armv8l,59.89458553,,,,,,,,,,2.1834,1,,,,,,,,,,,,,,,0,0.360107422,-0.368855794,1,0,0,2.1834,button_right_main,0.360107422,-0.368855794,1,0,0,,0,135,135,74,1,JUMPER,HB,m,m,./images/JUMPERHB.png,,,,,,,,,,,,,,,,,,,,,,,,,,,,,,,,,
,,,,,,,,,,,,,,,,,5c3388fa01439b0001a0adfe,38,2022-02-12_13h22.53.971,lexical_decision_task_DD_L6,2021.2.3,Linux armv8l,59.89458553,,,,,,,,,,0.8111,1,,,,,,,,,,,,,,,0,-0.311767578,-0.339748806,1,0,0,0.8111,button_left_main,-0.311767578,-0.339748806,1,0,0,,0,136,136,143,1,MONGS,LB,z,z,./images/MONGSLB.png,,,,,,,,,,,,,,,,,,,,,,,,,,,,,,,,,
,,,,,,,,,,,,,,,,,5c3388fa01439b0001a0adfe,38,2022-02-12_13h22.53.971,lexical_decision_task_DD_L6,2021.2.3,Linux armv8l,59.89458553,,,,,,,,,,0.6279,1,,,,,,,,,,,,,,,0,-0.250732422,-0.334228516,1,0,0,0.6279,button_left_main,-0.250732422,-0.334228516,1,0,0,,0,137,137,134,1,TROSS,LB,z,z,./images/TROSSLB.png,,,,,,,,,,,,,,,,,,,,,,,,,,,,,,,,,
,,,,,,,,,,,,,,,,,5c3388fa01439b0001a0adfe,38,2022-02-12_13h22.53.971,lexical_decision_task_DD_L6,2021.2.3,Linux armv8l,59.89458553,,,,,,,,,,0.6781,1,,,,,,,,,,,,,,,0,0.341796875,-0.301106771,1,0,0,0.6781,button_right_main,0.341796875,-0.301106771,1,0,0,,0,138,138,63,1,BAKER,LB,m,m,./images/BAKERLB.png,,,,,,,,,,,,,,,,,,,,,,,,,,,,,,,,,
,,,,,,,,,,,,,,,,,5c3388fa01439b0001a0adfe,38,2022-02-12_13h22.53.971,lexical_decision_task_DD_L6,2021.2.3,Linux armv8l,59.89458553,,,,,,,,,,0.8431,1,,,,,,,,,,,,,,,0,-0.283447266,-0.297092014,1,0,0,0.8431,button_left_main,-0.283447266,-0.297092014,1,0,0,,0,139,139,106,1,CLUMS,HB,z,z,./images/CLUMSHB.png,,,,,,,,,,,,,,,,,,,,,,,,,,,,,,,,,
,,,,,,,,,,,,,,,,,5c3388fa01439b0001a0adfe,38,2022-02-12_13h22.53.971,lexical_decision_task_DD_L6,2021.2.3,Linux armv8l,59.89458553,,,,,,,,,,0.6803,1,,,,,,,,,,,,,,,0,0.319580078,-0.337741428,1,0,0,0.6803,button_right_main,0.319580078,-0.337741428,1,0,0,,0,140,140,27,1,BUTTER,LB,m,m,./images/BUTTERLB.png,,,,,,,,,,,,,,,,,,,,,,,,,,,,,,,,,
,,,,,,,,,,,,,,,,,5c3388fa01439b0001a0adfe,38,2022-02-12_13h22.53.971,lexical_decision_task_DD_L6,2021.2.3,Linux armv8l,59.89458553,,,,,,,,,,0.5604,1,,,,,,,,,,,,,,,0,0.285644531,-0.361328125,1,0,0,0.5604,button_right_main,0.285644531,-0.361328125,1,0,0,,0,141,141,78,1,BROOM,LB,m,m,./images/BROOMLB.png,,,,,,,,,,,,,,,,,,,,,,,,,,,,,,,,,
,,,,,,,,,,,,,,,,,5c3388fa01439b0001a0adfe,38,2022-02-12_13h22.53.971,lexical_decision_task_DD_L6,2021.2.3,Linux armv8l,59.89458553,,,,,,,,,,1.2425,0,,,,,,,,,,,,,,,0,0.386962891,-0.295084635,1,0,0,1.2425,button_right_main,0.386962891,-0.295084635,1,0,0,,0,142,142,110,1,CRUNK,LB,z,z,./images/CRUNKLB.png,,,,,,,,,,,,,,,,,,,,,,,,,,,,,,,,,
,,,,,,,,,,,,,,,,,5c3388fa01439b0001a0adfe,38,2022-02-12_13h22.53.971,lexical_decision_task_DD_L6,2021.2.3,Linux armv8l,59.89458553,,,,,,,,,,0.7296,0,,,,,,,,,,,,,,,0,0.301757813,-0.304619683,1,0,0,0.7296,button_right_main,0.301757813,-0.304619683,1,0,0,,0,143,143,109,1,BURGE,HB,z,z,./images/BURGEHB.png,,,,,,,,,,,,,,,,,,,,,,,,,,,,,,,,,
,,,,,,,,,,,,,,,,,5c3388fa01439b0001a0adfe,38,2022-02-12_13h22.53.971,lexical_decision_task_DD_L6,2021.2.3,Linux armv8l,59.89458553,,,,,,,,,,0.6837,1,,,,,,,,,,,,,,,0,0.294677734,-0.308132595,1,0,0,0.6837,button_right_main,0.294677734,-0.308132595,1,0,0,,0,144,144,3,1,CRATER,LB,m,m,./images/CRATERLB.png,,,,,,,,,,,,,,,,,,,,,,,,,,,,,,,,,
,,,,,,,,,,,,,,,,,5c3388fa01439b0001a0adfe,38,2022-02-12_13h22.53.971,lexical_decision_task_DD_L6,2021.2.3,Linux armv8l,59.89458553,,,,,,,,,,0.5322,1,,,,,,,,,,,,,,,0,0.277099609,-0.384914822,1,0,0,0.5322,button_right_main,0.277099609,-0.384914822,1,0,0,,0,145,145,57,1,FERRY,LB,m,m,./images/FERRYLB.png,,,,,,,,,,,,,,,,,,,,,,,,,,,,,,,,,
,,,,,,,,,,,,,,,,,5c3388fa01439b0001a0adfe,38,2022-02-12_13h22.53.971,lexical_decision_task_DD_L6,2021.2.3,Linux armv8l,59.89458553,,,,,,,,,,0.9977,1,,,,,,,,,,,,,,,0,0.395996094,-0.313652886,1,0,0,0.9977,button_right_main,0.395996094,-0.313652886,1,0,0,,0,146,146,83,1,WHISKY,HB,m,m,./images/WHISKYHB.png,,,,,,,,,,,,,,,,,,,,,,,,,,,,,,,,,
,,,,,,,,,,,,,,,,,5c3388fa01439b0001a0adfe,38,2022-02-12_13h22.53.971,lexical_decision_task_DD_L6,2021.2.3,Linux armv8l,59.89458553,,,,,,,,,,1.8496,1,,,,,,,,,,,,,,,0,0.284423828,-0.305121528,1,0,0,1.8496,button_right_main,0.284423828,-0.305121528,1,0,0,,0,147,147,77,1,WHEEL,HB,m,m,./images/WHEELHB.png,,,,,,,,,,,,,,,,,,,,,,,,,,,,,,,,,
,,,,,,,,,,,,,,,,,5c3388fa01439b0001a0adfe,38,2022-02-12_13h22.53.971,lexical_decision_task_DD_L6,2021.2.3,Linux armv8l,59.89458553,,,,,,,,,,0.6827,1,,,,,,,,,,,,,,,0,0.345214844,-0.318671332,1,0,0,0.6827,button_right_main,0.345214844,-0.318671332,1,0,0,,0,148,148,12,1,BLOKE,LB,m,m,./images/BLOKELB.png,,,,,,,,,,,,,,,,,,,,,,,,,,,,,,,,,
,,,,,,,,,,,,,,,,,5c3388fa01439b0001a0adfe,38,2022-02-12_13h22.53.971,lexical_decision_task_DD_L6,2021.2.3,Linux armv8l,59.89458553,,,,,,,,,,0.5769,1,,,,,,,,,,,,,,,0,0.302246094,-0.313151042,1,0,0,0.5769,button_right_main,0.302246094,-0.313151042,1,0,0,,0,149,149,11,1,MEDAL,HB,m,m,./images/MEDALHB.png,,,,,,,,,,,,,,,,,,,,,,,,,,,,,,,,,
,,,,,,,,,,,,,,,,,5c3388fa01439b0001a0adfe,38,2022-02-12_13h22.53.971,lexical_decision_task_DD_L6,2021.2.3,Linux armv8l,59.89458553,,,,,,,,,,0.5321,1,,,,,,,,,,,,,,,0,0.3125,-0.292073568,1,0,0,0.5321,button_right_main,0.3125,-0.292073568,1,0,0,,0,150,150,22,1,CLOWN,C,m,m,./images/CLOWN.png,,,,,,,,,,,,,,,,,,,,,,,,,,,,,,,,,
,,,,,,,,,,,,,,,,,5c3388fa01439b0001a0adfe,38,2022-02-12_13h22.53.971,lexical_decision_task_DD_L6,2021.2.3,Linux armv8l,59.89458553,,,,,,,,,,0.7005,1,,,,,,,,,,,,,,,0,-0.309326172,-0.2890625,1,0,0,0.7005,button_left_main,-0.309326172,-0.2890625,1,0,0,,0,151,151,101,1,GLEET,LB,z,z,./images/GLEETLB.png,,,,,,,,,,,,,,,,,,,,,,,,,,,,,,,,,
,,,,,,,,,,,,,,,,,5c3388fa01439b0001a0adfe,38,2022-02-12_13h22.53.971,lexical_decision_task_DD_L6,2021.2.3,Linux armv8l,59.89458553,,,,,,,,,,0.6456,1,,,,,,,,,,,,,,,0,0.350097656,-0.359320747,1,0,0,0.6456,button_right_main,0.350097656,-0.359320747,1,0,0,,0,152,152,0,1,WALNUT,LB,m,m,./images/WALNUTLB.png,,,,,,,,,,,,,,,,,,,,,,,,,,,,,,,,,
,,,,,,,,,,,,,,,,,5c3388fa01439b0001a0adfe,38,2022-02-12_13h22.53.971,lexical_decision_task_DD_L6,2021.2.3,Linux armv8l,59.89458553,,,,,,,,,,0.6455,1,,,,,,,,,,,,,,,0,-0.241210938,-0.308132595,1,0,0,0.6455,button_left_main,-0.241210938,-0.308132595,1,0,0,,0,153,153,86,1,AIFED,LB,z,z,./images/AIFEDLB.png,,,,,,,,,,,,,,,,,,,,,,,,,,,,,,,,,
,,,,,,,,,,,,,,,,,5c3388fa01439b0001a0adfe,38,2022-02-12_13h22.53.971,lexical_decision_task_DD_L6,2021.2.3,Linux armv8l,59.89458553,,,,,,,,,,0.6585,1,,,,,,,,,,,,,,,0,0.394287109,-0.38792589,1,0,0,0.6585,button_right_main,0.394287109,-0.38792589,1,0,0,,0,154,154,51,1,SAUCE,LB,m,m,./images/SAUCELB.png,,,,,,,,,,,,,,,,,,,,,,,,,,,,,,,,,
,,,,,,,,,,,,,,,,,5c3388fa01439b0001a0adfe,38,2022-02-12_13h22.53.971,lexical_decision_task_DD_L6,2021.2.3,Linux armv8l,59.89458553,,,,,,,,,,0.6971,1,,,,,,,,,,,,,,,0,-0.248779297,-0.315660265,1,0,0,0.6971,button_left_main,-0.248779297,-0.315660265,1,0,0,,0,155,155,93,1,SMONE,C,z,z,./images/SMONE.png,,,,,,,,,,,,,,,,,,,,,,,,,,,,,,,,,
,,,,,,,,,,,,,,,,,5c3388fa01439b0001a0adfe,38,2022-02-12_13h22.53.971,lexical_decision_task_DD_L6,2021.2.3,Linux armv8l,59.89458553,,,,,,,,,,0.8813,1,,,,,,,,,,,,,,,0,0.326904297,-0.344265408,1,0,0,0.8813,button_right_main,0.326904297,-0.344265408,1,0,0,,0,156,156,38,1,ENGINE,HB,m,m,./images/ENGINEHB.png,,,,,,,,,,,,,,,,,,,,,,,,,,,,,,,,,
,,,,,,,,,,,,,,,,,5c3388fa01439b0001a0adfe,38,2022-02-12_13h22.53.971,lexical_decision_task_DD_L6,2021.2.3,Linux armv8l,59.89458553,,,,,,,,,,0.764,1,,,,,,,,,,,,,,,0,-0.264892578,-0.326700846,1,0,0,0.764,button_left_main,-0.264892578,-0.326700846,1,0,0,,0,157,157,103,1,FLORT,HB,z,z,./images/FLORTHB.png,,,,,,,,,,,,,,,,,,,,,,,,,,,,,,,,,
,,,,,,,,,,,,,,,,,5c3388fa01439b0001a0adfe,38,2022-02-12_13h22.53.971,lexical_decision_task_DD_L6,2021.2.3,Linux armv8l,59.89458553,,,,,,,,,,0.7074,1,,,,,,,,,,,,,,,0,-0.212646484,-0.287055122,1,0,0,0.7074,button_left_main,-0.212646484,-0.287055122,1,0,0,,0,158,158,94,1,BLANS,HB,z,z,./images/BLANSHB.png,,,,,,,,,,,,,,,,,,,,,,,,,,,,,,,,,
,,,,,,,,,,,,,,,,,5c3388fa01439b0001a0adfe,38,2022-02-12_13h22.53.971,lexical_decision_task_DD_L6,2021.2.3,Linux armv8l,59.89458553,,,,,,,,,,0.714,1,,,,,,,,,,,,,,,0,0.205322266,-0.257948134,1,0,0,0.714,button_right_main,0.205322266,-0.257948134,1,0,0,,0,159,159,29,1,PISTOL,HB,m,m,./images/PISTOLHB.png,,,,,,,,,,,,,,,,,,,,,,,,,,,,,,,,,
,,,,,,,,,,,,,,,,,5c3388fa01439b0001a0adfe,38,2022-02-12_13h22.53.971,lexical_decision_task_DD_L6,2021.2.3,Linux armv8l,59.89458553,,,,,,,,,,0.8811,1,,,,,,,,,,,,,,,0,-0.280273438,-0.317165799,1,0,0,0.8811,button_left_main,-0.280273438,-0.317165799,1,0,0,,0,160,160,157,1,INLER,HB,z,z,./images/INLERHB.png,,,,,,,,,,,,,,,,,,,,,,,,,,,,,,,,,
,,,,,,,,,,,,,,,,,5c3388fa01439b0001a0adfe,38,2022-02-12_13h22.53.971,lexical_decision_task_DD_L6,2021.2.3,Linux armv8l,59.89458553,,,,,,,,,,0.6801,1,,,,,,,,,,,,,,,0,0.337402344,-0.287556966,1,0,0,0.6801,button_right_main,0.337402344,-0.287556966,1,0,0,,0,161,161,43,1,STOOL,C,m,m,./images/STOOL.png,,,,,,,,,,,,,,,,,,,,,,,,,,,,,,,,,
,,,,,,,,,,,,,,,,,5c3388fa01439b0001a0adfe,38,2022-02-12_13h22.53.971,lexical_decision_task_DD_L6,2021.2.3,Linux armv8l,59.89458553,,,,,,,,,,0.4648,1,,,,,,,,,,,,,,,0,0.297363281,-0.307128906,1,0,0,0.4648,button_right_main,0.297363281,-0.307128906,1,0,0,,0,162,162,72,1,FLASK,LB,m,m,./images/FLASKLB.png,,,,,,,,,,,,,,,,,,,,,,,,,,,,,,,,,
,,,,,,,,,,,,,,,,,5c3388fa01439b0001a0adfe,38,2022-02-12_13h22.53.971,lexical_decision_task_DD_L6,2021.2.3,Linux armv8l,59.89458553,,,,,,,,,,0.6132,0,,,,,,,,,,,,,,,0,0.290771484,-0.319173177,1,0,0,0.6132,button_right_main,0.290771484,-0.319173177,1,0,0,,0,163,163,159,1,CUDDY,C,z,z,./images/CUDDY.png,,,,,,,,,,,,,,,,,,,,,,,,,,,,,,,,,
,,,,,,,,,,,,,,,,,5c3388fa01439b0001a0adfe,38,2022-02-12_13h22.53.971,lexical_decision_task_DD_L6,2021.2.3,Linux armv8l,59.89458553,,,,,,,,,,0.6122,1,,,,,,,,,,,,,,,0,0.307861328,-0.274007161,1,0,0,0.6122,button_right_main,0.307861328,-0.274007161,1,0,0,,0,164,164,34,1,RAZOR,C,m,m,./images/RAZOR.png,,,,,,,,,,,,,,,,,,,,,,,,,,,,,,,,,
,,,,,,,,,,,,,,,,,5c3388fa01439b0001a0adfe,38,2022-02-12_13h22.53.971,lexical_decision_task_DD_L6,2021.2.3,Linux armv8l,59.89458553,,,,,,,,,,1.0632,1,,,,,,,,,,,,,,,0,-0.301513672,-0.324693468,1,0,0,1.0632,button_left_main,-0.301513672,-0.324693468,1,0,0,,0,165,165,104,1,GITTY,LB,z,z,./images/GITTYLB.png,,,,,,,,,,,,,,,,,,,,,,,,,,,,,,,,,
,,,,,,,,,,,,,,,,,5c3388fa01439b0001a0adfe,38,2022-02-12_13h22.53.971,lexical_decision_task_DD_L6,2021.2.3,Linux armv8l,59.89458553,,,,,,,,,,0.9132,0,,,,,,,,,,,,,,,0,0.3203125,-0.335232205,1,0,0,0.9132,button_right_main,0.3203125,-0.335232205,1,0,0,,0,166,166,140,1,DOVET,LB,z,z,./images/DOVETLB.png,,,,,,,,,,,,,,,,,,,,,,,,,,,,,,,,,
,,,,,,,,,,,,,,,,,5c3388fa01439b0001a0adfe,38,2022-02-12_13h22.53.971,lexical_decision_task_DD_L6,2021.2.3,Linux armv8l,59.89458553,,,,,,,,,,0.7487,1,,,,,,,,,,,,,,,0,0.315429688,-0.304117839,1,0,0,0.7487,button_right_main,0.315429688,-0.304117839,1,0,0,,0,167,167,58,1,CANOE,C,m,m,./images/CANOE.png,,,,,,,,,,,,,,,,,,,,,,,,,,,,,,,,,
,,,,,,,,,,,,,,,,,5c3388fa01439b0001a0adfe,38,2022-02-12_13h22.53.971,lexical_decision_task_DD_L6,2021.2.3,Linux armv8l,59.89458553,,,,,,,,,,,,,,,,,,,,,,,,,,,,,,,,,,,,,,,,,,,,,,How likely will it be that you will recognize the words presented very blurred on a scale of 0 (not likely) to 100 (most likely)?,,,,,0.020751953,-0.448649089,1,0,0,jol_adv,6,7.4639,0,0,0,2,1,,,,,,,,,,,,,,,,,,,
,,,,,,,,,,,,,,,,,5c3388fa01439b0001a0adfe,38,2022-02-12_13h22.53.971,lexical_decision_task_DD_L6,2021.2.3,Linux armv8l,59.89458553,,,,,,,,,,,,,,,,,,,,,,,,,,,,,,,,,,,,,,,,,,,,,,How likely will it be that you will recognize the words presented clearly on a scale of 0 (not likely) to 100 (most likely)?,,,,,,,,,,,5,1.8546,0,1,1,0,1,,,,,,,,,,,,,,,,,,,
,,,,,,,,,,,,,,,,,5c3388fa01439b0001a0adfe,38,2022-02-12_13h22.53.971,lexical_decision_task_DD_L6,2021.2.3,Linux armv8l,59.89458553,,,,,,,,,,,,,,,,,,,,,,,,,,,,,,,,,,,,,,,,,,,,,,How likely will it be that you will recognize the words presented slighly blurred on a scale of 0 (not likely) to 100 (most likely)?,,,,,,,,,,,5,1.8118,0,2,2,1,1,,,,,,,,,,,,,,,,,,,
,0.04296875,-0.371866862,1,0,0,instr_done_button,,,,,,1,test,"In the next phase you will be presented with the words from the the first phase. Your job is to decide whether you remember seeing the word or not. If you remember seeing the word press ""old"" or type ""m"". If you do not remember seeing the word press ""new"" or type ""z"". Please press the space bar or click on continue to begin. ",,,5c3388fa01439b0001a0adfe,38,2022-02-12_13h22.53.971,lexical_decision_task_DD_L6,2021.2.3,Linux armv8l,59.89458553,,,,,,,,,,,,,,,,,,,,,,,,,,,,,,,,,,,,,,,,,,,,,,,,,,,,,,,,,,,,,,,,0,0,0,0,1,,,,,,,,,,,,,,
,0.061279297,-0.415025499,1,0,0,instr_done_button,,,,,,1,test,"In the next phase you will be presented with the words from the the first phase. Your job is to decide whether you remember seeing the word or not. If you remember seeing the word press ""old"" or type ""m"". If you do not remember seeing the word press ""new"" or type ""z"". Please press the space bar or click on continue to begin. ",,,5c3388fa01439b0001a0adfe,38,2022-02-12_13h22.53.971,lexical_decision_task_DD_L6,2021.2.3,Linux armv8l,59.89458553,,,,,,,,,,,,,,,,,,,,,,,,,,,,,,,,,,,,,,,,,,,,,,,,,,,,,,,,,,,,,,,,1,0,1,0,1,,,,,,,,,,,,,,
,0.000488281,-0.430080838,1,0,0,instr_done_button,,,,,,1,test,"In the next phase you will be presented with the words from the the first phase. Your job is to decide whether you remember seeing the word or not. If you remember seeing the word press ""old"" or type ""m"". If you do not remember seeing the word press ""new"" or type ""z"". Please press the space bar or click on continue to begin. ",,,5c3388fa01439b0001a0adfe,38,2022-02-12_13h22.53.971,lexical_decision_task_DD_L6,2021.2.3,Linux armv8l,59.89458553,,,,,,,,,,,,,,,,,,,,,,,,,,,,,,,,,,,,,,,,,,,,,,,,,,,,,,,,,,,,,,,,2,0,2,0,1,,,,,,,,,,,,,,
,0.060058594,-0.406995985,1,0,0,instr_done_button,,,,,,1,test,"In the next phase you will be presented with the words from the the first phase. Your job is to decide whether you remember seeing the word or not. If you remember seeing the word press ""old"" or type ""m"". If you do not remember seeing the word press ""new"" or type ""z"". Please press the space bar or click on continue to begin. ",,,5c3388fa01439b0001a0adfe,38,2022-02-12_13h22.53.971,lexical_decision_task_DD_L6,2021.2.3,Linux armv8l,59.89458553,,,,,,,,,,,,,,,,,,,,,,,,,,,,,,,,,,,,,,,,,,,,,,,,,,,,,,,,,,,,,,,,3,0,3,0,1,,,,,,,,,,,,,,
,0.033935547,-0.399468316,1,0,0,instr_done_button,,,,,,1,test,"In the next phase you will be presented with the words from the the first phase. Your job is to decide whether you remember seeing the word or not. If you remember seeing the word press ""old"" or type ""m"". If you do not remember seeing the word press ""new"" or type ""z"". Please press the space bar or click on continue to begin. ",,,5c3388fa01439b0001a0adfe,38,2022-02-12_13h22.53.971,lexical_decision_task_DD_L6,2021.2.3,Linux armv8l,59.89458553,,,,,,,,,,,,,,,,,,,,,,,,,,,,,,,,,,,,,,,,,,,,,,,,,,,,,,,,,,,,,,,,4,0,4,0,1,,,,,,,,,,,,,,
,,,,,,,,,,,,,,,,,5c3388fa01439b0001a0adfe,38,2022-02-12_13h22.53.971,lexical_decision_task_DD_L6,2021.2.3,Linux armv8l,59.89458553,,,,,,,,,,2.2205,1,,,,,,,,,,,,,,,,,,,,,,,0.349121094,-0.345770942,1,0,0,,,,,,,BLOKE,LB,m,y,./images/BLOKELB.png,,,,,,,,,,,,,,,,,,,,,0,0.349121094,-0.345770942,1,0,0,2.2205,button_right_test,0,0,0,12,1
,,,,,,,,,,,,,,,,,5c3388fa01439b0001a0adfe,38,2022-02-12_13h22.53.971,lexical_decision_task_DD_L6,2021.2.3,Linux armv8l,59.89458553,,,,,,,,,,1.2803,1,,,,,,,,,,,,,,,,,,,,,,,0.347900391,-0.312147352,1,0,0,,,,,,,HEATER,HB,m,y,./images/HEATERHB.png,,,,,,,,,,,,,,,,,,,,,0,0.347900391,-0.312147352,1,0,0,1.2803,button_right_test,0,1,1,56,1
,,,,,,,,,,,,,,,,,5c3388fa01439b0001a0adfe,38,2022-02-12_13h22.53.971,lexical_decision_task_DD_L6,2021.2.3,Linux armv8l,59.89458553,,,,,,,,,,0.7134,1,,,,,,,,,,,,,,,,,,,,,,,0.356933594,-0.316162109,1,0,0,,,,,,,PARCEL,LB,m,y,./images/PARCELLB.png,,,,,,,,,,,,,,,,,,,,,0,0.356933594,-0.316162109,1,0,0,0.7134,button_right_test,0,2,2,18,1
,,,,,,,,,,,,,,,,,5c3388fa01439b0001a0adfe,38,2022-02-12_13h22.53.971,lexical_decision_task_DD_L6,2021.2.3,Linux armv8l,59.89458553,,,,,,,,,,0.9098,1,,,,,,,,,,,,,,,,,,,,,,,0.324462891,-0.306125217,1,0,0,,,,,,,BOXER,C,m,y,./images/BOXER.png,,,,,,,,,,,,,,,,,,,,,0,0.324462891,-0.306125217,1,0,0,0.9098,button_right_test,0,3,3,4,1
,,,,,,,,,,,,,,,,,5c3388fa01439b0001a0adfe,38,2022-02-12_13h22.53.971,lexical_decision_task_DD_L6,2021.2.3,Linux armv8l,59.89458553,,,,,,,,,,0.8108,1,,,,,,,,,,,,,,,,,,,,,,,0.340820313,-0.336235894,1,0,0,,,,,,,BAKER,LB,m,y,./images/BAKERLB.png,,,,,,,,,,,,,,,,,,,,,0,0.340820313,-0.336235894,1,0,0,0.8108,button_right_test,0,4,4,63,1
,,,,,,,,,,,,,,,,,5c3388fa01439b0001a0adfe,38,2022-02-12_13h22.53.971,lexical_decision_task_DD_L6,2021.2.3,Linux armv8l,59.89458553,,,,,,,,,,1.4061,1,,,,,,,,,,,,,,,,,,,,,,,0.315429688,-0.332722982,1,0,0,,,,,,,PISTOL,HB,m,y,./images/PISTOLHB.png,,,,,,,,,,,,,,,,,,,,,0,0.315429688,-0.332722982,1,0,0,1.4061,button_right_test,0,5,5,29,1
,,,,,,,,,,,,,,,,,5c3388fa01439b0001a0adfe,38,2022-02-12_13h22.53.971,lexical_decision_task_DD_L6,2021.2.3,Linux armv8l,59.89458553,,,,,,,,,,0.9131,1,,,,,,,,,,,,,,,,,,,,,,,-0.310546875,-0.319675022,1,0,0,,,,,,,PIMPLE,HB,z,y,./images/PIMPLEHB.png,,,,,,,,,,,,,,,,,,,,,0,-0.310546875,-0.319675022,1,0,0,0.9131,button_left_test,0,6,6,155,1
,,,,,,,,,,,,,,,,,5c3388fa01439b0001a0adfe,38,2022-02-12_13h22.53.971,lexical_decision_task_DD_L6,2021.2.3,Linux armv8l,59.89458553,,,,,,,,,,0.7616,1,,,,,,,,,,,,,,,,,,,,,,,-0.252685547,-0.307630751,1,0,0,,,,,,,BERRY,HB,z,y,./images/BERRYHB.png,,,,,,,,,,,,,,,,,,,,,0,-0.252685547,-0.307630751,1,0,0,0.7616,button_left_test,0,7,7,131,1
,,,,,,,,,,,,,,,,,5c3388fa01439b0001a0adfe,38,2022-02-12_13h22.53.971,lexical_decision_task_DD_L6,2021.2.3,Linux armv8l,59.89458553,,,,,,,,,,0.9111,1,,,,,,,,,,,,,,,,,,,,,,,-0.242919922,-0.366848416,1,0,0,,,,,,,POODLE,LB,z,y,./images/POODLELB.png,,,,,,,,,,,,,,,,,,,,,0,-0.242919922,-0.366848416,1,0,0,0.9111,button_left_test,0,8,8,165,1
,,,,,,,,,,,,,,,,,5c3388fa01439b0001a0adfe,38,2022-02-12_13h22.53.971,lexical_decision_task_DD_L6,2021.2.3,Linux armv8l,59.89458553,,,,,,,,,,1.0441,1,,,,,,,,,,,,,,,,,,,,,,,-0.271484375,-0.339748806,1,0,0,,,,,,,WALRUS,HB,z,y,./images/WALRUSHB.png,,,,,,,,,,,,,,,,,,,,,0,-0.271484375,-0.339748806,1,0,0,1.0441,button_left_test,0,9,9,107,1
,,,,,,,,,,,,,,,,,5c3388fa01439b0001a0adfe,38,2022-02-12_13h22.53.971,lexical_decision_task_DD_L6,2021.2.3,Linux armv8l,59.89458553,,,,,,,,,,0.6935,1,,,,,,,,,,,,,,,,,,,,,,,-0.250488281,-0.350789388,1,0,0,,,,,,,TORCH,HB,z,y,./images/TORCHHB.png,,,,,,,,,,,,,,,,,,,,,0,-0.250488281,-0.350789388,1,0,0,0.6935,button_left_test,0,10,10,152,1
,,,,,,,,,,,,,,,,,5c3388fa01439b0001a0adfe,38,2022-02-12_13h22.53.971,lexical_decision_task_DD_L6,2021.2.3,Linux armv8l,59.89458553,,,,,,,,,,0.808,1,,,,,,,,,,,,,,,,,,,,,,,0.351318359,-0.330213759,1,0,0,,,,,,,PARADE,HB,m,y,./images/PARADEHB.png,,,,,,,,,,,,,,,,,,,,,0,0.351318359,-0.330213759,1,0,0,0.808,button_right_test,0,11,11,17,1
,,,,,,,,,,,,,,,,,5c3388fa01439b0001a0adfe,38,2022-02-12_13h22.53.971,lexical_decision_task_DD_L6,2021.2.3,Linux armv8l,59.89458553,,,,,,,,,,0.963,1,,,,,,,,,,,,,,,,,,,,,,,-0.344238281,-0.317667643,1,0,0,,,,,,,FOLDER,LB,z,y,./images/FOLDERLB.png,,,,,,,,,,,,,,,,,,,,,0,-0.344238281,-0.317667643,1,0,0,0.963,button_left_test,0,12,12,126,1
,,,,,,,,,,,,,,,,,5c3388fa01439b0001a0adfe,38,2022-02-12_13h22.53.971,lexical_decision_task_DD_L6,2021.2.3,Linux armv8l,59.89458553,,,,,,,,,,0.7104,1,,,,,,,,,,,,,,,,,,,,,,,-0.253417969,-0.356309679,1,0,0,,,,,,,LIZARD,HB,z,y,./images/LIZARDHB.png,,,,,,,,,,,,,,,,,,,,,0,-0.253417969,-0.356309679,1,0,0,0.7104,button_left_test,0,13,13,128,1
,,,,,,,,,,,,,,,,,5c3388fa01439b0001a0adfe,38,2022-02-12_13h22.53.971,lexical_decision_task_DD_L6,2021.2.3,Linux armv8l,59.89458553,,,,,,,,,,0.7947,1,,,,,,,,,,,,,,,,,,,,,,,-0.2109375,-0.342759874,1,0,0,,,,,,,FARMER,HB,z,y,./images/FARMERHB.png,,,,,,,,,,,,,,,,,,,,,0,-0.2109375,-0.342759874,1,0,0,0.7947,button_left_test,0,14,14,149,1
,,,,,,,,,,,,,,,,,5c3388fa01439b0001a0adfe,38,2022-02-12_13h22.53.971,lexical_decision_task_DD_L6,2021.2.3,Linux armv8l,59.89458553,,,,,,,,,,1.0662,0,,,,,,,,,,,,,,,,,,,,,,,0.436767578,-0.324191623,1,0,0,,,,,,,PENCE,C,z,y,./images/PENCE.png,,,,,,,,,,,,,,,,,,,,,0,0.436767578,-0.324191623,1,0,0,1.0662,button_right_test,0,15,15,100,1
,,,,,,,,,,,,,,,,,5c3388fa01439b0001a0adfe,38,2022-02-12_13h22.53.971,lexical_decision_task_DD_L6,2021.2.3,Linux armv8l,59.89458553,,,,,,,,,,3.2647,0,,,,,,,,,,,,,,,,,,,,,,,0.322021484,-0.315660265,1,0,0,,,,,,,SCREW,LB,z,y,./images/SCREWLB.png,,,,,,,,,,,,,,,,,,,,,0,0.322021484,-0.315660265,1,0,0,3.2647,button_right_test,0,16,16,108,1
,,,,,,,,,,,,,,,,,5c3388fa01439b0001a0adfe,38,2022-02-12_13h22.53.971,lexical_decision_task_DD_L6,2021.2.3,Linux armv8l,59.89458553,,,,,,,,,,1.5412,1,,,,,,,,,,,,,,,,,,,,,,,-0.266357422,-0.339748806,1,0,0,,,,,,,LADDER,HB,z,y,./images/LADDERHB.png,,,,,,,,,,,,,,,,,,,,,0,-0.266357422,-0.339748806,1,0,0,1.5412,button_left_test,0,17,17,122,1
,,,,,,,,,,,,,,,,,5c3388fa01439b0001a0adfe,38,2022-02-12_13h22.53.971,lexical_decision_task_DD_L6,2021.2.3,Linux armv8l,59.89458553,,,,,,,,,,1.2165,1,,,,,,,,,,,,,,,,,,,,,,,-0.261962891,-0.345770942,1,0,0,,,,,,,MIRROR,LB,z,y,./images/MIRRORLB.png,,,,,,,,,,,,,,,,,,,,,0,-0.261962891,-0.345770942,1,0,0,1.2165,button_left_test,0,18,18,147,1
,,,,,,,,,,,,,,,,,5c3388fa01439b0001a0adfe,38,2022-02-12_13h22.53.971,lexical_decision_task_DD_L6,2021.2.3,Linux armv8l,59.89458553,,,,,,,,,,2.0272,1,,,,,,,,,,,,,,,,,,,,,,,0.305175781,-0.347276476,1,0,0,,,,,,,MAMMAL,HB,m,y,./images/MAMMALHB.png,,,,,,,,,,,,,,,,,,,,,0,0.305175781,-0.347276476,1,0,0,2.0272,button_right_test,0,19,19,62,1
,,,,,,,,,,,,,,,,,5c3388fa01439b0001a0adfe,38,2022-02-12_13h22.53.971,lexical_decision_task_DD_L6,2021.2.3,Linux armv8l,59.89458553,,,,,,,,,,0.7275,1,,,,,,,,,,,,,,,,,,,,,,,0.327392578,-0.29558648,1,0,0,,,,,,,GRANNY,HB,m,y,./images/GRANNYHB.png,,,,,,,,,,,,,,,,,,,,,0,0.327392578,-0.29558648,1,0,0,0.7275,button_right_test,0,20,20,20,1
,,,,,,,,,,,,,,,,,5c3388fa01439b0001a0adfe,38,2022-02-12_13h22.53.971,lexical_decision_task_DD_L6,2021.2.3,Linux armv8l,59.89458553,,,,,,,,,,0.8966,0,,,,,,,,,,,,,,,,,,,,,,,0.320068359,-0.279527452,1,0,0,,,,,,,WEASEL,HB,z,y,./images/WEASELHB.png,,,,,,,,,,,,,,,,,,,,,0,0.320068359,-0.279527452,1,0,0,0.8966,button_right_test,0,21,21,164,1
,,,,,,,,,,,,,,,,,5c3388fa01439b0001a0adfe,38,2022-02-12_13h22.53.971,lexical_decision_task_DD_L6,2021.2.3,Linux armv8l,59.89458553,,,,,,,,,,1.1806,1,,,,,,,,,,,,,,,,,,,,,,,-0.304443359,-0.294582791,1,0,0,,,,,,,NOOSE,LB,z,y,./images/NOOSELB.png,,,,,,,,,,,,,,,,,,,,,0,-0.304443359,-0.294582791,1,0,0,1.1806,button_left_test,0,22,22,156,1
,,,,,,,,,,,,,,,,,5c3388fa01439b0001a0adfe,38,2022-02-12_13h22.53.971,lexical_decision_task_DD_L6,2021.2.3,Linux armv8l,59.89458553,,,,,,,,,,1.0597,1,,,,,,,,,,,,,,,,,,,,,,,0.334960938,-0.332221137,1,0,0,,,,,,,CHAIN,LB,m,y,./images/CHAINLB.png,,,,,,,,,,,,,,,,,,,,,0,0.334960938,-0.332221137,1,0,0,1.0597,button_right_test,0,23,23,42,1
,,,,,,,,,,,,,,,,,5c3388fa01439b0001a0adfe,38,2022-02-12_13h22.53.971,lexical_decision_task_DD_L6,2021.2.3,Linux armv8l,59.89458553,,,,,,,,,,0.9779,1,,,,,,,,,,,,,,,,,,,,,,,-0.274169922,-0.314154731,1,0,0,,,,,,,TULIP,HB,z,y,./images/TULIPHB.png,,,,,,,,,,,,,,,,,,,,,0,-0.274169922,-0.314154731,1,0,0,0.9779,button_left_test,0,24,24,92,1
,,,,,,,,,,,,,,,,,5c3388fa01439b0001a0adfe,38,2022-02-12_13h22.53.971,lexical_decision_task_DD_L6,2021.2.3,Linux armv8l,59.89458553,,,,,,,,,,1.0418,1,,,,,,,,,,,,,,,,,,,,,,,0.399902344,-0.326199002,1,0,0,,,,,,,SAUNA,LB,m,y,./images/SAUNALB.png,,,,,,,,,,,,,,,,,,,,,0,0.399902344,-0.326199002,1,0,0,1.0418,button_right_test,0,25,25,33,1
,,,,,,,,,,,,,,,,,5c3388fa01439b0001a0adfe,38,2022-02-12_13h22.53.971,lexical_decision_task_DD_L6,2021.2.3,Linux armv8l,59.89458553,,,,,,,,,,0.6447,1,,,,,,,,,,,,,,,,,,,,,,,0.282714844,-0.279025608,1,0,0,,,,,,,DIVER,LB,m,y,./images/DIVERLB.png,,,,,,,,,,,,,,,,,,,,,0,0.282714844,-0.279025608,1,0,0,0.6447,button_right_test,0,26,26,9,1
,,,,,,,,,,,,,,,,,5c3388fa01439b0001a0adfe,38,2022-02-12_13h22.53.971,lexical_decision_task_DD_L6,2021.2.3,Linux armv8l,59.89458553,,,,,,,,,,0.5614,1,,,,,,,,,,,,,,,,,,,,,,,0.337890625,-0.314656576,1,0,0,,,,,,,FLASK,LB,m,y,./images/FLASKLB.png,,,,,,,,,,,,,,,,,,,,,0,0.337890625,-0.314656576,1,0,0,0.5614,button_right_test,0,27,27,72,1
,,,,,,,,,,,,,,,,,5c3388fa01439b0001a0adfe,38,2022-02-12_13h22.53.971,lexical_decision_task_DD_L6,2021.2.3,Linux armv8l,59.89458553,,,,,,,,,,0.6127,1,,,,,,,,,,,,,,,,,,,,,,,0.314453125,-0.306125217,1,0,0,,,,,,,POKER,C,m,y,./images/POKER.png,,,,,,,,,,,,,,,,,,,,,0,0.314453125,-0.306125217,1,0,0,0.6127,button_right_test,0,28,28,67,1
,,,,,,,,,,,,,,,,,5c3388fa01439b0001a0adfe,38,2022-02-12_13h22.53.971,lexical_decision_task_DD_L6,2021.2.3,Linux armv8l,59.89458553,,,,,,,,,,0.5858,1,,,,,,,,,,,,,,,,,,,,,,,0.325195313,-0.294080946,1,0,0,,,,,,,CASINO,C,m,y,./images/CASINO.png,,,,,,,,,,,,,,,,,,,,,0,0.325195313,-0.294080946,1,0,0,0.5858,button_right_test,0,29,29,28,1
,,,,,,,,,,,,,,,,,5c3388fa01439b0001a0adfe,38,2022-02-12_13h22.53.971,lexical_decision_task_DD_L6,2021.2.3,Linux armv8l,59.89458553,,,,,,,,,,0.861,1,,,,,,,,,,,,,,,,,,,,,,,-0.258544922,-0.359822591,1,0,0,,,,,,,URINE,C,z,y,./images/URINE.png,,,,,,,,,,,,,,,,,,,,,0,-0.258544922,-0.359822591,1,0,0,0.861,button_left_test,0,30,30,154,1
,,,,,,,,,,,,,,,,,5c3388fa01439b0001a0adfe,38,2022-02-12_13h22.53.971,lexical_decision_task_DD_L6,2021.2.3,Linux armv8l,59.89458553,,,,,,,,,,0.8104,1,,,,,,,,,,,,,,,,,,,,,,,0.414550781,-0.208265516,1,0,0,,,,,,,BUBBLE,HB,m,y,./images/BUBBLEHB.png,,,,,,,,,,,,,,,,,,,,,0,0.414550781,-0.208265516,1,0,0,0.8104,button_right_test,0,31,31,71,1
,,,,,,,,,,,,,,,,,5c3388fa01439b0001a0adfe,38,2022-02-12_13h22.53.971,lexical_decision_task_DD_L6,2021.2.3,Linux armv8l,59.89458553,,,,,,,,,,1.5933,1,,,,,,,,,,,,,,,,,,,,,,,-0.207275391,-0.307630751,1,0,0,,,,,,,BEARD,HB,z,y,./images/BEARDHB.png,,,,,,,,,,,,,,,,,,,,,0,-0.207275391,-0.307630751,1,0,0,1.5933,button_left_test,0,32,32,86,1
,,,,,,,,,,,,,,,,,5c3388fa01439b0001a0adfe,38,2022-02-12_13h22.53.971,lexical_decision_task_DD_L6,2021.2.3,Linux armv8l,59.89458553,,,,,,,,,,1.777,1,,,,,,,,,,,,,,,,,,,,,,,-0.241455078,-0.330715603,1,0,0,,,,,,,MOOSE,LB,z,y,./images/MOOSELB.png,,,,,,,,,,,,,,,,,,,,,0,-0.241455078,-0.330715603,1,0,0,1.777,button_left_test,0,33,33,141,1
,,,,,,,,,,,,,,,,,5c3388fa01439b0001a0adfe,38,2022-02-12_13h22.53.971,lexical_decision_task_DD_L6,2021.2.3,Linux armv8l,59.89458553,,,,,,,,,,1.0265,1,,,,,,,,,,,,,,,,,,,,,,,-0.294433594,-0.338745117,1,0,0,,,,,,,GREASE,LB,z,y,./images/GREASELB.png,,,,,,,,,,,,,,,,,,,,,0,-0.294433594,-0.338745117,1,0,0,1.0265,button_left_test,0,34,34,99,1
,,,,,,,,,,,,,,,,,5c3388fa01439b0001a0adfe,38,2022-02-12_13h22.53.971,lexical_decision_task_DD_L6,2021.2.3,Linux armv8l,59.89458553,,,,,,,,,,1.061,1,,,,,,,,,,,,,,,,,,,,,,,0.291015625,-0.3543023,1,0,0,,,,,,,TIGER,C,m,y,./images/TIGER.png,,,,,,,,,,,,,,,,,,,,,0,0.291015625,-0.3543023,1,0,0,1.061,button_right_test,0,35,35,37,1
,,,,,,,,,,,,,,,,,5c3388fa01439b0001a0adfe,38,2022-02-12_13h22.53.971,lexical_decision_task_DD_L6,2021.2.3,Linux armv8l,59.89458553,,,,,,,,,,1.4239,1,,,,,,,,,,,,,,,,,,,,,,,-0.310791016,-0.258951823,1,0,0,,,,,,,JUNGLE,HB,z,y,./images/JUNGLEHB.png,,,,,,,,,,,,,,,,,,,,,0,-0.310791016,-0.258951823,1,0,0,1.4239,button_left_test,0,36,36,167,1
,,,,,,,,,,,,,,,,,5c3388fa01439b0001a0adfe,38,2022-02-12_13h22.53.971,lexical_decision_task_DD_L6,2021.2.3,Linux armv8l,59.89458553,,,,,,,,,,0.8443,1,,,,,,,,,,,,,,,,,,,,,,,-0.224365234,-0.34777832,1,0,0,,,,,,,KITTEN,LB,z,y,./images/KITTENLB.png,,,,,,,,,,,,,,,,,,,,,0,-0.224365234,-0.34777832,1,0,0,0.8443,button_left_test,0,37,37,129,1
,,,,,,,,,,,,,,,,,5c3388fa01439b0001a0adfe,38,2022-02-12_13h22.53.971,lexical_decision_task_DD_L6,2021.2.3,Linux armv8l,59.89458553,,,,,,,,,,0.7439,1,,,,,,,,,,,,,,,,,,,,,,,-0.250244141,-0.352294922,1,0,0,,,,,,,SUNSET,C,z,y,./images/SUNSET.png,,,,,,,,,,,,,,,,,,,,,0,-0.250244141,-0.352294922,1,0,0,0.7439,button_left_test,0,38,38,166,1
,,,,,,,,,,,,,,,,,5c3388fa01439b0001a0adfe,38,2022-02-12_13h22.53.971,lexical_decision_task_DD_L6,2021.2.3,Linux armv8l,59.89458553,,,,,,,,,,1.1277,1,,,,,,,,,,,,,,,,,,,,,,,-0.222167969,-0.354804145,1,0,0,,,,,,,PACKET,HB,z,y,./images/PACKETHB.png,,,,,,,,,,,,,,,,,,,,,0,-0.222167969,-0.354804145,1,0,0,1.1277,button_left_test,0,39,39,140,1
,,,,,,,,,,,,,,,,,5c3388fa01439b0001a0adfe,38,2022-02-12_13h22.53.971,lexical_decision_task_DD_L6,2021.2.3,Linux armv8l,59.89458553,,,,,,,,,,0.6769,0,,,,,,,,,,,,,,,,,,,,,,,-0.213623047,-0.307128906,1,0,0,,,,,,,WHEEL,HB,m,y,./images/WHEELHB.png,,,,,,,,,,,,,,,,,,,,,0,-0.213623047,-0.307128906,1,0,0,0.6769,button_left_test,0,40,40,77,1
,,,,,,,,,,,,,,,,,5c3388fa01439b0001a0adfe,38,2022-02-12_13h22.53.971,lexical_decision_task_DD_L6,2021.2.3,Linux armv8l,59.89458553,,,,,,,,,,0.8804,0,,,,,,,,,,,,,,,,,,,,,,,0.105224609,-0.410508898,1,0,0,,,,,,,BRUSH,HB,m,y,./images/BRUSHHB.png,break_done_button,,,,,,,,,,,,,,,,,,,,0,-0.198242188,-0.342759874,1,0,0,0.8804,button_left_test,0,41,41,59,1
,,,,,,,,,,,,,,,,,5c3388fa01439b0001a0adfe,38,2022-02-12_13h22.53.971,lexical_decision_task_DD_L6,2021.2.3,Linux armv8l,59.89458553,,,,,,,,,,1.0265,0,,,,,,,,,,,,,,,,,,,,,,,0.378173828,-0.278021918,1,0,0,,,,,,,BONNET,HB,z,y,./images/BONNETHB.png,,,,,,,,,,,,,,,,,,,,,0,0.378173828,-0.278021918,1,0,0,1.0265,button_right_test,0,42,42,95,1
,,,,,,,,,,,,,,,,,5c3388fa01439b0001a0adfe,38,2022-02-12_13h22.53.971,lexical_decision_task_DD_L6,2021.2.3,Linux armv8l,59.89458553,,,,,,,,,,0.8788,1,,,,,,,,,,,,,,,,,,,,,,,-0.314208984,-0.337741428,1,0,0,,,,,,,MUSCLE,C,z,y,./images/MUSCLE.png,,,,,,,,,,,,,,,,,,,,,0,-0.314208984,-0.337741428,1,0,0,0.8788,button_left_test,0,43,43,88,1
,,,,,,,,,,,,,,,,,5c3388fa01439b0001a0adfe,38,2022-02-12_13h22.53.971,lexical_decision_task_DD_L6,2021.2.3,Linux armv8l,59.89458553,,,,,,,,,,1.0044,1,,,,,,,,,,,,,,,,,,,,,,,0.366699219,-0.253431532,1,0,0,,,,,,,FERRY,LB,m,y,./images/FERRYLB.png,,,,,,,,,,,,,,,,,,,,,0,0.366699219,-0.253431532,1,0,0,1.0044,button_right_test,0,44,44,57,1
,,,,,,,,,,,,,,,,,5c3388fa01439b0001a0adfe,38,2022-02-12_13h22.53.971,lexical_decision_task_DD_L6,2021.2.3,Linux armv8l,59.89458553,,,,,,,,,,1.2067,1,,,,,,,,,,,,,,,,,,,,,,,-0.280029297,-0.305623372,1,0,0,,,,,,,JAGUAR,LB,z,y,./images/JAGUARLB.png,,,,,,,,,,,,,,,,,,,,,0,-0.280029297,-0.305623372,1,0,0,1.2067,button_left_test,0,45,45,102,1
,,,,,,,,,,,,,,,,,5c3388fa01439b0001a0adfe,38,2022-02-12_13h22.53.971,lexical_decision_task_DD_L6,2021.2.3,Linux armv8l,59.89458553,,,,,,,,,,0.7579,1,,,,,,,,,,,,,,,,,,,,,,,-0.260253906,-0.366346571,1,0,0,,,,,,,TRIPOD,LB,z,y,./images/TRIPODLB.png,,,,,,,,,,,,,,,,,,,,,0,-0.260253906,-0.366346571,1,0,0,0.7579,button_left_test,0,46,46,138,1
,,,,,,,,,,,,,,,,,5c3388fa01439b0001a0adfe,38,2022-02-12_13h22.53.971,lexical_decision_task_DD_L6,2021.2.3,Linux armv8l,59.89458553,,,,,,,,,,0.9942,1,,,,,,,,,,,,,,,,,,,,,,,0.439941406,-0.34878201,1,0,0,,,,,,,JUMPER,HB,m,y,./images/JUMPERHB.png,,,,,,,,,,,,,,,,,,,,,0,0.439941406,-0.34878201,1,0,0,0.9942,button_right_test,0,47,47,74,1
,,,,,,,,,,,,,,,,,5c3388fa01439b0001a0adfe,38,2022-02-12_13h22.53.971,lexical_decision_task_DD_L6,2021.2.3,Linux armv8l,59.89458553,,,,,,,,,,1.3107,1,,,,,,,,,,,,,,,,,,,,,,,-0.252197266,-0.318671332,1,0,0,,,,,,,MALLET,HB,z,y,./images/MALLETHB.png,,,,,,,,,,,,,,,,,,,,,0,-0.252197266,-0.318671332,1,0,0,1.3107,button_left_test,0,48,48,134,1
,,,,,,,,,,,,,,,,,5c3388fa01439b0001a0adfe,38,2022-02-12_13h22.53.971,lexical_decision_task_DD_L6,2021.2.3,Linux armv8l,59.89458553,,,,,,,,,,0.8572,1,,,,,,,,,,,,,,,,,,,,,,,-0.280029297,-0.34125434,1,0,0,,,,,,,PEACH,HB,z,y,./images/PEACHHB.png,,,,,,,,,,,,,,,,,,,,,0,-0.280029297,-0.34125434,1,0,0,0.8572,button_left_test,0,49,49,119,1
,,,,,,,,,,,,,,,,,5c3388fa01439b0001a0adfe,38,2022-02-12_13h22.53.971,lexical_decision_task_DD_L6,2021.2.3,Linux armv8l,59.89458553,,,,,,,,,,0.9592,1,,,,,,,,,,,,,,,,,,,,,,,-0.286621094,-0.349283854,1,0,0,,,,,,,MOTOR,C,z,y,./images/MOTOR.png,,,,,,,,,,,,,,,,,,,,,0,-0.286621094,-0.349283854,1,0,0,0.9592,button_left_test,0,50,50,97,1
,,,,,,,,,,,,,,,,,5c3388fa01439b0001a0adfe,38,2022-02-12_13h22.53.971,lexical_decision_task_DD_L6,2021.2.3,Linux armv8l,59.89458553,,,,,,,,,,0.9381,1,,,,,,,,,,,,,,,,,,,,,,,0.358886719,-0.26949056,1,0,0,,,,,,,BASKET,HB,m,y,./images/BASKETHB.png,,,,,,,,,,,,,,,,,,,,,0,0.358886719,-0.26949056,1,0,0,0.9381,button_right_test,0,51,51,44,1
,,,,,,,,,,,,,,,,,5c3388fa01439b0001a0adfe,38,2022-02-12_13h22.53.971,lexical_decision_task_DD_L6,2021.2.3,Linux armv8l,59.89458553,,,,,,,,,,1.0771,1,,,,,,,,,,,,,,,,,,,,,,,0.363037109,-0.327202691,1,0,0,,,,,,,SPINE,HB,m,y,./images/SPINEHB.png,,,,,,,,,,,,,,,,,,,,,0,0.363037109,-0.327202691,1,0,0,1.0771,button_right_test,0,52,52,65,1
,,,,,,,,,,,,,,,,,5c3388fa01439b0001a0adfe,38,2022-02-12_13h22.53.971,lexical_decision_task_DD_L6,2021.2.3,Linux armv8l,59.89458553,,,,,,,,,,0.9412,1,,,,,,,,,,,,,,,,,,,,,,,-0.354003906,-0.391438802,1,0,0,,,,,,,BELLY,C,z,y,./images/BELLY.png,,,,,,,,,,,,,,,,,,,,,0,-0.354003906,-0.391438802,1,0,0,0.9412,button_left_test,0,53,53,94,1
,,,,,,,,,,,,,,,,,5c3388fa01439b0001a0adfe,38,2022-02-12_13h22.53.971,lexical_decision_task_DD_L6,2021.2.3,Linux armv8l,59.89458553,,,,,,,,,,0.9104,1,,,,,,,,,,,,,,,,,,,,,,,0.351074219,-0.318671332,1,0,0,,,,,,,CLIFF,HB,m,y,./images/CLIFFHB.png,,,,,,,,,,,,,,,,,,,,,0,0.351074219,-0.318671332,1,0,0,0.9104,button_right_test,0,54,54,8,1
,,,,,,,,,,,,,,,,,5c3388fa01439b0001a0adfe,38,2022-02-12_13h22.53.971,lexical_decision_task_DD_L6,2021.2.3,Linux armv8l,59.89458553,,,,,,,,,,1.0265,1,,,,,,,,,,,,,,,,,,,,,,,-0.295654297,-0.371365017,1,0,0,,,,,,,WRIST,C,z,y,./images/WRIST.png,,,,,,,,,,,,,,,,,,,,,0,-0.295654297,-0.371365017,1,0,0,1.0265,button_left_test,0,55,55,109,1
,,,,,,,,,,,,,,,,,5c3388fa01439b0001a0adfe,38,2022-02-12_13h22.53.971,lexical_decision_task_DD_L6,2021.2.3,Linux armv8l,59.89458553,,,,,,,,,,1.0761,1,,,,,,,,,,,,,,,,,,,,,,,-0.256591797,-0.347276476,1,0,0,,,,,,,KIDNEY,LB,z,y,./images/KIDNEYLB.png,,,,,,,,,,,,,,,,,,,,,0,-0.256591797,-0.347276476,1,0,0,1.0761,button_left_test,0,56,56,105,1
,,,,,,,,,,,,,,,,,5c3388fa01439b0001a0adfe,38,2022-02-12_13h22.53.971,lexical_decision_task_DD_L6,2021.2.3,Linux armv8l,59.89458553,,,,,,,,,,0.7437,1,,,,,,,,,,,,,,,,,,,,,,,-0.262939453,-0.358317057,1,0,0,,,,,,,COOKER,LB,z,y,./images/COOKERLB.png,,,,,,,,,,,,,,,,,,,,,0,-0.262939453,-0.358317057,1,0,0,0.7437,button_left_test,0,57,57,153,1
,,,,,,,,,,,,,,,,,5c3388fa01439b0001a0adfe,38,2022-02-12_13h22.53.971,lexical_decision_task_DD_L6,2021.2.3,Linux armv8l,59.89458553,,,,,,,,,,0.9821,1,,,,,,,,,,,,,,,,,,,,,,,0.363769531,-0.336737739,1,0,0,,,,,,,BUNNY,C,m,y,./images/BUNNY.png,,,,,,,,,,,,,,,,,,,,,0,0.363769531,-0.336737739,1,0,0,0.9821,button_right_test,0,58,58,13,1
,,,,,,,,,,,,,,,,,5c3388fa01439b0001a0adfe,38,2022-02-12_13h22.53.971,lexical_decision_task_DD_L6,2021.2.3,Linux armv8l,59.89458553,,,,,,,,,,1.2248,1,,,,,,,,,,,,,,,,,,,,,,,-0.239746094,-0.346272786,1,0,0,,,,,,,FALCON,C,z,y,./images/FALCON.png,,,,,,,,,,,,,,,,,,,,,0,-0.239746094,-0.346272786,1,0,0,1.2248,button_left_test,0,59,59,112,1
,,,,,,,,,,,,,,,,,5c3388fa01439b0001a0adfe,38,2022-02-12_13h22.53.971,lexical_decision_task_DD_L6,2021.2.3,Linux armv8l,59.89458553,,,,,,,,,,1.1247,0,,,,,,,,,,,,,,,,,,,,,,,-0.242675781,-0.340752496,1,0,0,,,,,,,WALNUT,LB,m,y,./images/WALNUTLB.png,,,,,,,,,,,,,,,,,,,,,0,-0.242675781,-0.340752496,1,0,0,1.1247,button_left_test,0,60,60,0,1
,,,,,,,,,,,,,,,,,5c3388fa01439b0001a0adfe,38,2022-02-12_13h22.53.971,lexical_decision_task_DD_L6,2021.2.3,Linux armv8l,59.89458553,,,,,,,,,,0.6909,0,,,,,,,,,,,,,,,,,,,,,,,-0.237060547,-0.352294922,1,0,0,,,,,,,ARTIST,C,m,y,./images/ARTIST.png,,,,,,,,,,,,,,,,,,,,,0,-0.237060547,-0.352294922,1,0,0,0.6909,button_left_test,0,61,61,61,1
,,,,,,,,,,,,,,,,,5c3388fa01439b0001a0adfe,38,2022-02-12_13h22.53.971,lexical_decision_task_DD_L6,2021.2.3,Linux armv8l,59.89458553,,,,,,,,,,1.4442,0,,,,,,,,,,,,,,,,,,,,,,,-0.218017578,-0.334228516,1,0,0,,,,,,,DESERT,C,m,y,./images/DESERT.png,,,,,,,,,,,,,,,,,,,,,0,-0.218017578,-0.334228516,1,0,0,1.4442,button_left_test,0,62,62,52,1
,,,,,,,,,,,,,,,,,5c3388fa01439b0001a0adfe,38,2022-02-12_13h22.53.971,lexical_decision_task_DD_L6,2021.2.3,Linux armv8l,59.89458553,,,,,,,,,,0.9404,0,,,,,,,,,,,,,,,,,,,,,,,-0.247802734,-0.371365017,1,0,0,,,,,,,ARROW,LB,m,y,./images/ARROWLB.png,,,,,,,,,,,,,,,,,,,,,0,-0.247802734,-0.371365017,1,0,0,0.9404,button_left_test,0,63,63,69,1
,,,,,,,,,,,,,,,,,5c3388fa01439b0001a0adfe,38,2022-02-12_13h22.53.971,lexical_decision_task_DD_L6,2021.2.3,Linux armv8l,59.89458553,,,,,,,,,,1.2795,1,,,,,,,,,,,,,,,,,,,,,,,0.350830078,-0.319675022,1,0,0,,,,,,,SAUCE,LB,m,y,./images/SAUCELB.png,,,,,,,,,,,,,,,,,,,,,0,0.350830078,-0.319675022,1,0,0,1.2795,button_right_test,0,64,64,51,1
,,,,,,,,,,,,,,,,,5c3388fa01439b0001a0adfe,38,2022-02-12_13h22.53.971,lexical_decision_task_DD_L6,2021.2.3,Linux armv8l,59.89458553,,,,,,,,,,1.0278,1,,,,,,,,,,,,,,,,,,,,,,,0.335449219,-0.361328125,1,0,0,,,,,,,CHERRY,LB,m,y,./images/CHERRYLB.png,,,,,,,,,,,,,,,,,,,,,0,0.335449219,-0.361328125,1,0,0,1.0278,button_right_test,0,65,65,54,1
,,,,,,,,,,,,,,,,,5c3388fa01439b0001a0adfe,38,2022-02-12_13h22.53.971,lexical_decision_task_DD_L6,2021.2.3,Linux armv8l,59.89458553,,,,,,,,,,1.5946,1,,,,,,,,,,,,,,,,,,,,,,,0.283203125,-0.372870551,1,0,0,,,,,,,DANCER,LB,m,y,./images/DANCERLB.png,,,,,,,,,,,,,,,,,,,,,0,0.283203125,-0.372870551,1,0,0,1.5946,button_right_test,0,66,66,21,1
,,,,,,,,,,,,,,,,,5c3388fa01439b0001a0adfe,38,2022-02-12_13h22.53.971,lexical_decision_task_DD_L6,2021.2.3,Linux armv8l,59.89458553,,,,,,,,,,1.0111,0,,,,,,,,,,,,,,,,,,,,,,,-0.300048828,-0.338745117,1,0,0,,,,,,,LAGOON,HB,m,y,./images/LAGOONHB.png,,,,,,,,,,,,,,,,,,,,,0,-0.300048828,-0.338745117,1,0,0,1.0111,button_left_test,0,67,67,47,1
,,,,,,,,,,,,,,,,,5c3388fa01439b0001a0adfe,38,2022-02-12_13h22.53.971,lexical_decision_task_DD_L6,2021.2.3,Linux armv8l,59.89458553,,,,,,,,,,1.2311,1,,,,,,,,,,,,,,,,,,,,,,,0.265380859,-0.303114149,1,0,0,,,,,,,MEDAL,HB,m,y,./images/MEDALHB.png,,,,,,,,,,,,,,,,,,,,,0,0.265380859,-0.303114149,1,0,0,1.2311,button_right_test,0,68,68,11,1
,,,,,,,,,,,,,,,,,5c3388fa01439b0001a0adfe,38,2022-02-12_13h22.53.971,lexical_decision_task_DD_L6,2021.2.3,Linux armv8l,59.89458553,,,,,,,,,,1.5801,0,,,,,,,,,,,,,,,,,,,,,,,-0.330566406,-0.382907444,1,0,0,,,,,,,STREAM,HB,m,y,./images/STREAMHB.png,,,,,,,,,,,,,,,,,,,,,0,-0.330566406,-0.382907444,1,0,0,1.5801,button_left_test,0,69,69,41,1
,,,,,,,,,,,,,,,,,5c3388fa01439b0001a0adfe,38,2022-02-12_13h22.53.971,lexical_decision_task_DD_L6,2021.2.3,Linux armv8l,59.89458553,,,,,,,,,,2.125,1,,,,,,,,,,,,,,,,,,,,,,,0.362060547,-0.326700846,1,0,0,,,,,,,FENCE,HB,m,y,./images/FENCEHB.png,,,,,,,,,,,,,,,,,,,,,0,0.362060547,-0.326700846,1,0,0,2.125,button_right_test,0,70,70,14,1
,,,,,,,,,,,,,,,,,5c3388fa01439b0001a0adfe,38,2022-02-12_13h22.53.971,lexical_decision_task_DD_L6,2021.2.3,Linux armv8l,59.89458553,,,,,,,,,,1.86,0,,,,,,,,,,,,,,,,,,,,,,,-0.267333984,-0.367852105,1,0,0,,,,,,,COLLAR,LB,m,y,./images/COLLARLB.png,,,,,,,,,,,,,,,,,,,,,0,-0.267333984,-0.367852105,1,0,0,1.86,button_left_test,0,71,71,15,1
,,,,,,,,,,,,,,,,,5c3388fa01439b0001a0adfe,38,2022-02-12_13h22.53.971,lexical_decision_task_DD_L6,2021.2.3,Linux armv8l,59.89458553,,,,,,,,,,1.1607,1,,,,,,,,,,,,,,,,,,,,,,,0.314941406,-0.329711914,1,0,0,,,,,,,LLAMA,HB,m,y,./images/LLAMAHB.png,,,,,,,,,,,,,,,,,,,,,0,0.314941406,-0.329711914,1,0,0,1.1607,button_right_test,0,72,72,35,1
,,,,,,,,,,,,,,,,,5c3388fa01439b0001a0adfe,38,2022-02-12_13h22.53.971,lexical_decision_task_DD_L6,2021.2.3,Linux armv8l,59.89458553,,,,,,,,,,1.1755,1,,,,,,,,,,,,,,,,,,,,,,,-0.370117188,-0.350287543,1,0,0,,,,,,,SKIING,HB,z,y,./images/SKIINGHB.png,,,,,,,,,,,,,,,,,,,,,0,-0.370117188,-0.350287543,1,0,0,1.1755,button_left_test,0,73,73,101,1
,,,,,,,,,,,,,,,,,5c3388fa01439b0001a0adfe,38,2022-02-12_13h22.53.971,lexical_decision_task_DD_L6,2021.2.3,Linux armv8l,59.89458553,,,,,,,,,,1.1631,1,,,,,,,,,,,,,,,,,,,,,,,0.327880859,-0.369357639,1,0,0,,,,,,,BUTTER,LB,m,y,./images/BUTTERLB.png,,,,,,,,,,,,,,,,,,,,,0,0.327880859,-0.369357639,1,0,0,1.1631,button_right_test,0,74,74,27,1
,,,,,,,,,,,,,,,,,5c3388fa01439b0001a0adfe,38,2022-02-12_13h22.53.971,lexical_decision_task_DD_L6,2021.2.3,Linux armv8l,59.89458553,,,,,,,,,,1.4627,1,,,,,,,,,,,,,,,,,,,,,,,0.237304688,-0.31515842,1,0,0,,,,,,,STATUE,LB,m,y,./images/STATUELB.png,,,,,,,,,,,,,,,,,,,,,0,0.237304688,-0.31515842,1,0,0,1.4627,button_right_test,0,75,75,66,1
,,,,,,,,,,,,,,,,,5c3388fa01439b0001a0adfe,38,2022-02-12_13h22.53.971,lexical_decision_task_DD_L6,2021.2.3,Linux armv8l,59.89458553,,,,,,,,,,0.9949,1,,,,,,,,,,,,,,,,,,,,,,,-0.413085938,-0.314154731,1,0,0,,,,,,,RHINO,LB,z,y,./images/RHINOLB.png,,,,,,,,,,,,,,,,,,,,,0,-0.413085938,-0.314154731,1,0,0,0.9949,button_left_test,0,76,76,93,1
,,,,,,,,,,,,,,,,,5c3388fa01439b0001a0adfe,38,2022-02-12_13h22.53.971,lexical_decision_task_DD_L6,2021.2.3,Linux armv8l,59.89458553,,,,,,,,,,1.4137,1,,,,,,,,,,,,,,,,,,,,,,,0.363769531,-0.327202691,1,0,0,,,,,,,PEBBLE,C,m,y,./images/PEBBLE.png,,,,,,,,,,,,,,,,,,,,,0,0.363769531,-0.327202691,1,0,0,1.4137,button_right_test,0,77,77,82,1
,,,,,,,,,,,,,,,,,5c3388fa01439b0001a0adfe,38,2022-02-12_13h22.53.971,lexical_decision_task_DD_L6,2021.2.3,Linux armv8l,59.89458553,,,,,,,,,,0.8922,1,,,,,,,,,,,,,,,,,,,,,,,0.323730469,-0.351291233,1,0,0,,,,,,,PILOT,HB,m,y,./images/PILOTHB.png,,,,,,,,,,,,,,,,,,,,,0,0.323730469,-0.351291233,1,0,0,0.8922,button_right_test,0,78,78,50,1
,,,,,,,,,,,,,,,,,5c3388fa01439b0001a0adfe,38,2022-02-12_13h22.53.971,lexical_decision_task_DD_L6,2021.2.3,Linux armv8l,59.89458553,,,,,,,,,,0.9109,0,,,,,,,,,,,,,,,,,,,,,,,0.29296875,-0.296088325,1,0,0,,,,,,,PLANK,C,z,y,./images/PLANK.png,,,,,,,,,,,,,,,,,,,,,0,0.29296875,-0.296088325,1,0,0,0.9109,button_right_test,0,79,79,85,1
,,,,,,,,,,,,,,,,,5c3388fa01439b0001a0adfe,38,2022-02-12_13h22.53.971,lexical_decision_task_DD_L6,2021.2.3,Linux armv8l,59.89458553,,,,,,,,,,0.9423,1,,,,,,,,,,,,,,,,,,,,,,,-0.374023438,-0.310139974,1,0,0,,,,,,,INFANT,C,z,y,./images/INFANT.png,,,,,,,,,,,,,,,,,,,,,0,-0.374023438,-0.310139974,1,0,0,0.9423,button_left_test,0,80,80,160,1
,,,,,,,,,,,,,,,,,5c3388fa01439b0001a0adfe,38,2022-02-12_13h22.53.971,lexical_decision_task_DD_L6,2021.2.3,Linux armv8l,59.89458553,,,,,,,,,,1.8115,1,,,,,,,,,,,,,,,,,,,,,,,-0.355224609,-0.31515842,1,0,0,,,,,,,SWEAT,LB,z,y,./images/SWEATLB.png,,,,,,,,,,,,,,,,,,,,,0,-0.355224609,-0.31515842,1,0,0,1.8115,button_left_test,0,81,81,150,1
,,,,,,,,,,,,,,,,,5c3388fa01439b0001a0adfe,38,2022-02-12_13h22.53.971,lexical_decision_task_DD_L6,2021.2.3,Linux armv8l,59.89458553,,,,,,,,,,1.238,1,,,,,,,,,,,,,,,,,,,,,,,-0.379638672,-0.257446289,1,0,0,,,,,,,MAGGOT,LB,z,y,./images/MAGGOTLB.png,,,,,,,,,,,,,,,,,,,,,0,-0.379638672,-0.257446289,1,0,0,1.238,button_left_test,0,82,82,117,1
,,,,,,,,,,,,,,,,,5c3388fa01439b0001a0adfe,38,2022-02-12_13h22.53.971,lexical_decision_task_DD_L6,2021.2.3,Linux armv8l,59.89458553,,,,,,,,,,1.2449,1,,,,,,,,,,,,,,,,,,,,,,,0.098388672,-0.388427734,1,0,0,,,,,,,BABOON,C,z,y,./images/BABOON.png,break_done_button,,,,,,,,,,,,,,,,,,,,0,-0.357666016,-0.30211046,1,0,0,1.2449,button_left_test,0,83,83,142,1
,,,,,,,,,,,,,,,,,5c3388fa01439b0001a0adfe,38,2022-02-12_13h22.53.971,lexical_decision_task_DD_L6,2021.2.3,Linux armv8l,59.89458553,,,,,,,,,,2.635,0,,,,,,,,,,,,,,,,,,,,,,,-0.245849609,-0.324693468,1,0,0,,,,,,,HAMMER,LB,m,y,./images/HAMMERLB.png,,,,,,,,,,,,,,,,,,,,,0,-0.245849609,-0.324693468,1,0,0,2.635,button_left_test,0,84,84,75,1
,,,,,,,,,,,,,,,,,5c3388fa01439b0001a0adfe,38,2022-02-12_13h22.53.971,lexical_decision_task_DD_L6,2021.2.3,Linux armv8l,59.89458553,,,,,,,,,,0.8281,1,,,,,,,,,,,,,,,,,,,,,,,-0.4375,-0.28253852,1,0,0,,,,,,,DOUGH,C,z,y,./images/DOUGH.png,,,,,,,,,,,,,,,,,,,,,0,-0.4375,-0.28253852,1,0,0,0.8281,button_left_test,0,85,85,103,1
,,,,,,,,,,,,,,,,,5c3388fa01439b0001a0adfe,38,2022-02-12_13h22.53.971,lexical_decision_task_DD_L6,2021.2.3,Linux armv8l,59.89458553,,,,,,,,,,1.5025,0,,,,,,,,,,,,,,,,,,,,,,,-0.369140625,-0.23687066,1,0,0,,,,,,,SLOPE,LB,m,y,./images/SLOPELB.png,,,,,,,,,,,,,,,,,,,,,0,-0.369140625,-0.23687066,1,0,0,1.5025,button_left_test,0,86,86,30,1
,,,,,,,,,,,,,,,,,5c3388fa01439b0001a0adfe,38,2022-02-12_13h22.53.971,lexical_decision_task_DD_L6,2021.2.3,Linux armv8l,59.89458553,,,,,,,,,,0.8428,1,,,,,,,,,,,,,,,,,,,,,,,-0.414550781,-0.330213759,1,0,0,,,,,,,PURSE,HB,z,y,./images/PURSEHB.png,,,,,,,,,,,,,,,,,,,,,0,-0.414550781,-0.330213759,1,0,0,0.8428,button_left_test,0,87,87,146,1
,,,,,,,,,,,,,,,,,5c3388fa01439b0001a0adfe,38,2022-02-12_13h22.53.971,lexical_decision_task_DD_L6,2021.2.3,Linux armv8l,59.89458553,,,,,,,,,,0.7149,1,,,,,,,,,,,,,,,,,,,,,,,-0.428710938,-0.2564426,1,0,0,,,,,,,SQUARE,LB,z,y,./images/SQUARELB.png,,,,,,,,,,,,,,,,,,,,,0,-0.428710938,-0.2564426,1,0,0,0.7149,button_left_test,0,88,88,90,1
,,,,,,,,,,,,,,,,,5c3388fa01439b0001a0adfe,38,2022-02-12_13h22.53.971,lexical_decision_task_DD_L6,2021.2.3,Linux armv8l,59.89458553,,,,,,,,,,0.7297,1,,,,,,,,,,,,,,,,,,,,,,,-0.408203125,-0.288560655,1,0,0,,,,,,,TWINS,LB,z,y,./images/TWINSLB.png,,,,,,,,,,,,,,,,,,,,,0,-0.408203125,-0.288560655,1,0,0,0.7297,button_left_test,0,89,89,144,1
