key_resp.keys,instr_done_touch.x,instr_done_touch.y,instr_done_touch.leftButton,instr_done_touch.midButton,instr_done_touch.rightButton,instr_done_touch.clicked_name,instruction_pages.thisRepN,instruction_pages.thisTrialN,instruction_pages.thisN,instruction_pages.thisIndex,instruction_pages.ran,pageN,phase,instruct_text,has_image,instruct_image,participant,age,date,expName,psychopyVersion,OS,frameRate,response.keys,response.corr,response.rt,touch_resp.x,touch_resp.y,touch_resp.leftButton,touch_resp.midButton,touch_resp.rightButton,touch_resp.time,touch_resp.clicked_name,rt,corr,practrials.thisRepN,practrials.thisTrialN,practrials.thisN,practrials.thisIndex,practrials.ran,TrialID,Target,corrAns,end_of_practice_trials_pages.thisRepN,end_of_practice_trials_pages.thisTrialN,end_of_practice_trials_pages.thisN,end_of_practice_trials_pages.thisIndex,end_of_practice_trials_pages.ran,key_resp_2.keys,key_resp_2.corr,key_resp_2.rt,targ_click.x,targ_click.y,targ_click.leftButton,targ_click.midButton,targ_click.rightButton,targ_click.time,targ_click.clicked_name,break_done_touch.x,break_done_touch.y,break_done_touch.leftButton,break_done_touch.midButton,break_done_touch.rightButton,break_done_keyboard.keys,maintrials.thisRepN,maintrials.thisTrialN,maintrials.thisN,maintrials.thisIndex,maintrials.ran,string,blur,study,lex,stim_path,break_done_touch.clicked_name,mouse_2.x,mouse_2.y,mouse_2.leftButton,mouse_2.midButton,mouse_2.rightButton,mouse_2.clicked_name,slider.response,slider.rt,trials.thisRepN,trials.thisTrialN,trials.thisN,trials.thisIndex,trials.ran,test_instructions.thisRepN,test_instructions.thisTrialN,test_instructions.thisN,test_instructions.thisIndex,test_instructions.ran,key_resp.rt,key_resp_3.keys,key_resp_3.corr,key_resp_3.rt,test_click.x,test_click.y,test_click.leftButton,test_click.midButton,test_click.rightButton,test_click.time,test_click.clicked_name,test_phase.thisRepN,test_phase.thisTrialN,test_phase.thisN,test_phase.thisIndex,test_phase.ran
,-0.006496112,-0.390604817,1,0,0,instr_done_button,0,0,0,0,1,1,instructions,"INSTRUCTIONS
At the start of each trial, look at the plus sign  (+) in the center of the screen.  This tells you that a trial is about to begin and where to look. Second, the plus sign will disappear and a string of letters will appear. Your task is to determine if the string of letters is a word or not. If the item is a word press the M key (on keyboard)  or touch the word button (phone/tablet).  If the item is not a word,  press the  Z key (on keyboard)  or touch the nonword button (on phone/tablet). 
Press the space bar or touch  continue.",0,,5c6f2e7632cb70000169b490,45,2022-02-12_18h07.37.482,lexical_decision_task_DD_L4,2021.2.3,Linux x86_64,59.99880002,,,,,,,,,,,,,,,,,,,,,,,,,,,,,,,,,,,,,,,,,,,,,,,,,,,,,,,,,,,,,,,,,,,,,,,,,,,,,,,,,,,,,,
,0.057521876,-0.406102118,1,0,0,instr_done_button,0,1,1,1,1,2,instructions,"If your device has a keyboard, press the 'Z' key for nonwords and the 'M' key for words.





Press the space bar or touch the button below to continue.",0,keyboard-example.gif,5c6f2e7632cb70000169b490,45,2022-02-12_18h07.37.482,lexical_decision_task_DD_L4,2021.2.3,Linux x86_64,59.99880002,,,,,,,,,,,,,,,,,,,,,,,,,,,,,,,,,,,,,,,,,,,,,,,,,,,,,,,,,,,,,,,,,,,,,,,,,,,,,,,,,,,,,,
,0.057521876,-0.406102118,1,0,0,instr_done_button,0,2,2,2,1,3,instructions,"If you are using a touchscreen only device, use the buttons on the screen. Do not use the mouse.





Press the space bar or touch the button below to continue.",0,touchscreen-example.gif,5c6f2e7632cb70000169b490,45,2022-02-12_18h07.37.482,lexical_decision_task_DD_L4,2021.2.3,Linux x86_64,59.99880002,,,,,,,,,,,,,,,,,,,,,,,,,,,,,,,,,,,,,,,,,,,,,,,,,,,,,,,,,,,,,,,,,,,,,,,,,,,,,,,,,,,,,,
,0.071124837,-0.409497413,1,0,0,instr_done_button,0,3,3,3,1,4,instructions,"It is very important that you respond as quickly and accurately as possible, as each letter string will only be on the screen for two seconds. If you do not respond within this time, the message 'Too slow!' will be displayed and the experiment will progress to the next letter string. The first 20 trials will be practice trials and you will receive feedback on your answers. 

Press the space bar or touch the button below to start the practice trials.",0,,5c6f2e7632cb70000169b490,45,2022-02-12_18h07.37.482,lexical_decision_task_DD_L4,2021.2.3,Linux x86_64,59.99880002,,,,,,,,,,,,,,,,,,,,,,,,,,,,,,,,,,,,,,,,,,,,,,,,,,,,,,,,,,,,,,,,,,,,,,,,,,,,,,,,,,,,,,
,,,,,,,,,,,,,,,,,5c6f2e7632cb70000169b490,45,2022-02-12_18h07.37.482,lexical_decision_task_DD_L4,2021.2.3,Linux x86_64,59.99880002,z,1,1.4428,,,,,,,,1.4428,1,0,0,0,13,1,1001,ROUPET,z,,,,,,,,,,,,,,,,,,,,,,,,,,,,,,,,,,,,,,,,,,,,,,,,,,,,,,,,,,,,,,,,,,
,,,,,,,,,,,,,,,,,5c6f2e7632cb70000169b490,45,2022-02-12_18h07.37.482,lexical_decision_task_DD_L4,2021.2.3,Linux x86_64,59.99880002,m,1,1.131,,,,,,,,1.131,1,0,1,1,5,1,1001,OBTAIN,m,,,,,,,,,,,,,,,,,,,,,,,,,,,,,,,,,,,,,,,,,,,,,,,,,,,,,,,,,,,,,,,,,,
,,,,,,,,,,,,,,,,,5c6f2e7632cb70000169b490,45,2022-02-12_18h07.37.482,lexical_decision_task_DD_L4,2021.2.3,Linux x86_64,59.99880002,m,1,0.633,,,,,,,,0.633,1,0,2,2,2,1,1001,ALMOND,m,,,,,,,,,,,,,,,,,,,,,,,,,,,,,,,,,,,,,,,,,,,,,,,,,,,,,,,,,,,,,,,,,,
,,,,,,,,,,,,,,,,,5c6f2e7632cb70000169b490,45,2022-02-12_18h07.37.482,lexical_decision_task_DD_L4,2021.2.3,Linux x86_64,59.99880002,m,1,1.4091,,,,,,,,1.4091,1,0,3,3,0,1,1001,UTOPIA,m,,,,,,,,,,,,,,,,,,,,,,,,,,,,,,,,,,,,,,,,,,,,,,,,,,,,,,,,,,,,,,,,,,
,,,,,,,,,,,,,,,,,5c6f2e7632cb70000169b490,45,2022-02-12_18h07.37.482,lexical_decision_task_DD_L4,2021.2.3,Linux x86_64,59.99880002,z,1,1.1754,,,,,,,,1.1754,1,0,4,4,11,1,1001,RASHET,z,,,,,,,,,,,,,,,,,,,,,,,,,,,,,,,,,,,,,,,,,,,,,,,,,,,,,,,,,,,,,,,,,,
,,,,,,,,,,,,,,,,,5c6f2e7632cb70000169b490,45,2022-02-12_18h07.37.482,lexical_decision_task_DD_L4,2021.2.3,Linux x86_64,59.99880002,z,1,1.1746,,,,,,,,1.1746,1,0,5,5,8,1,1001,ASLERT,z,,,,,,,,,,,,,,,,,,,,,,,,,,,,,,,,,,,,,,,,,,,,,,,,,,,,,,,,,,,,,,,,,,
,,,,,,,,,,,,,,,,,5c6f2e7632cb70000169b490,45,2022-02-12_18h07.37.482,lexical_decision_task_DD_L4,2021.2.3,Linux x86_64,59.99880002,z,1,1.1976,,,,,,,,1.1976,1,0,6,6,12,1,1001,SPRINY,z,,,,,,,,,,,,,,,,,,,,,,,,,,,,,,,,,,,,,,,,,,,,,,,,,,,,,,,,,,,,,,,,,,
,,,,,,,,,,,,,,,,,5c6f2e7632cb70000169b490,45,2022-02-12_18h07.37.482,lexical_decision_task_DD_L4,2021.2.3,Linux x86_64,59.99880002,z,1,1.0844,,,,,,,,1.0844,1,0,7,7,9,1,1001,FARINY,z,,,,,,,,,,,,,,,,,,,,,,,,,,,,,,,,,,,,,,,,,,,,,,,,,,,,,,,,,,,,,,,,,,
,,,,,,,,,,,,,,,,,5c6f2e7632cb70000169b490,45,2022-02-12_18h07.37.482,lexical_decision_task_DD_L4,2021.2.3,Linux x86_64,59.99880002,m,1,0.9736,,,,,,,,0.9736,1,0,8,8,3,1,1001,MATRIX,m,,,,,,,,,,,,,,,,,,,,,,,,,,,,,,,,,,,,,,,,,,,,,,,,,,,,,,,,,,,,,,,,,,
,,,,,,,,,,,,,,,,,5c6f2e7632cb70000169b490,45,2022-02-12_18h07.37.482,lexical_decision_task_DD_L4,2021.2.3,Linux x86_64,59.99880002,m,1,0.8196,,,,,,,,0.8196,1,0,9,9,1,1,1001,ADJUST,m,,,,,,,,,,,,,,,,,,,,,,,,,,,,,,,,,,,,,,,,,,,,,,,,,,,,,,,,,,,,,,,,,,
,,,,,,,,,,,,,,,,,5c6f2e7632cb70000169b490,45,2022-02-12_18h07.37.482,lexical_decision_task_DD_L4,2021.2.3,Linux x86_64,59.99880002,z,1,1.4286,,,,,,,,1.4286,1,0,10,10,10,1,1001,INLADE,z,,,,,,,,,,,,,,,,,,,,,,,,,,,,,,,,,,,,,,,,,,,,,,,,,,,,,,,,,,,,,,,,,,
,,,,,,,,,,,,,,,,,5c6f2e7632cb70000169b490,45,2022-02-12_18h07.37.482,lexical_decision_task_DD_L4,2021.2.3,Linux x86_64,59.99880002,m,1,0.8621,,,,,,,,0.8621,1,0,11,11,6,1,1001,ZOMBIE,m,,,,,,,,,,,,,,,,,,,,,,,,,,,,,,,,,,,,,,,,,,,,,,,,,,,,,,,,,,,,,,,,,,
,,,,,,,,,,,,,,,,,5c6f2e7632cb70000169b490,45,2022-02-12_18h07.37.482,lexical_decision_task_DD_L4,2021.2.3,Linux x86_64,59.99880002,z,1,0.9831,,,,,,,,0.9831,1,0,12,12,14,1,1001,THRALE,z,,,,,,,,,,,,,,,,,,,,,,,,,,,,,,,,,,,,,,,,,,,,,,,,,,,,,,,,,,,,,,,,,,
,,,,,,,,,,,,,,,,,5c6f2e7632cb70000169b490,45,2022-02-12_18h07.37.482,lexical_decision_task_DD_L4,2021.2.3,Linux x86_64,59.99880002,z,1,0.9277,,,,,,,,0.9277,1,0,13,13,15,1,1001,WHAISE,z,,,,,,,,,,,,,,,,,,,,,,,,,,,,,,,,,,,,,,,,,,,,,,,,,,,,,,,,,,,,,,,,,,
,,,,,,,,,,,,,,,,,5c6f2e7632cb70000169b490,45,2022-02-12_18h07.37.482,lexical_decision_task_DD_L4,2021.2.3,Linux x86_64,59.99880002,m,1,0.9921,,,,,,,,0.9921,1,0,14,14,4,1,1001,SQUEAK,m,,,,,,,,,,,,,,,,,,,,,,,,,,,,,,,,,,,,,,,,,,,,,,,,,,,,,,,,,,,,,,,,,,
,,,,,,,,,,,,,,,,,5c6f2e7632cb70000169b490,45,2022-02-12_18h07.37.482,lexical_decision_task_DD_L4,2021.2.3,Linux x86_64,59.99880002,m,1,0.6903,,,,,,,,0.6903,1,0,15,15,7,1,1001,VOLUME,m,,,,,,,,,,,,,,,,,,,,,,,,,,,,,,,,,,,,,,,,,,,,,,,,,,,,,,,,,,,,,,,,,,
,0.026847753,-0.408802866,1,0,0,instr_done_button,,,,,,1,end_of_practice,"You have completed the practice trials. During the experimental trials, you will not receive feedback. 
Before you begin, please ensure that you are in a comfortable and quiet location and will not be disturbed for about 15 minutes, as we cannot use your data if you do not complete all the trials. 
 When you are ready to start the experimental trials, please press space or touch the button below.",,,5c6f2e7632cb70000169b490,45,2022-02-12_18h07.37.482,lexical_decision_task_DD_L4,2021.2.3,Linux x86_64,59.99880002,,,,,,,,,,,,,,,,,,,,,0,0,0,0,1,,,,,,,,,,,,,,,,,,,,,,,,,,,,,,,,,,,,,,,,,,,,,,,,,,,,,,,,,,,,,
,,,,,,,,,,,,,,,,,5c6f2e7632cb70000169b490,45,2022-02-12_18h07.37.482,lexical_decision_task_DD_L4,2021.2.3,Linux x86_64,59.99880002,,,,,,,,,,,1.3521,1,,,,,,,,,,,,,,m,1,1.3521,,,,,,,,0.026847753,-0.408802866,0,0,0,,0,0,0,47,1,LAGOON,LB,old,m,./images/LAGOONLB.png,,,,,,,,,,,,,,,,,,,,,,,,,,,,,,,,,,,
,,,,,,,,,,,,,,,,,5c6f2e7632cb70000169b490,45,2022-02-12_18h07.37.482,lexical_decision_task_DD_L4,2021.2.3,Linux x86_64,59.99880002,,,,,,,,,,,1.0137,1,,,,,,,,,,,,,,z,1,1.0137,,,,,,,,0.026847753,-0.407950028,0,0,0,,0,1,1,102,1,DULLE,C,old,z,./images/DULLE.png,,,,,,,,,,,,,,,,,,,,,,,,,,,,,,,,,,,
,,,,,,,,,,,,,,,,,5c6f2e7632cb70000169b490,45,2022-02-12_18h07.37.482,lexical_decision_task_DD_L4,2021.2.3,Linux x86_64,59.99880002,,,,,,,,,,,0.7559,1,,,,,,,,,,,,,,m,1,0.7559,,,,,,,,0.026847753,-0.404633681,0,0,0,,0,2,2,42,1,CHAIN,C,old,m,./images/CHAIN.png,,,,,,,,,,,,,,,,,,,,,,,,,,,,,,,,,,,
,,,,,,,,,,,,,,,,,5c6f2e7632cb70000169b490,45,2022-02-12_18h07.37.482,lexical_decision_task_DD_L4,2021.2.3,Linux x86_64,59.99880002,,,,,,,,,,,1.9401,1,,,,,,,,,,,,,,z,1,1.9401,,,,,,,,0.028717606,-0.391419334,0,0,0,,0,3,3,163,1,GAMBA,HB,old,z,./images/GAMBAHB.png,,,,,,,,,,,,,,,,,,,,,,,,,,,,,,,,,,,
,,,,,,,,,,,,,,,,,5c6f2e7632cb70000169b490,45,2022-02-12_18h07.37.482,lexical_decision_task_DD_L4,2021.2.3,Linux x86_64,59.99880002,,,,,,,,,,,1.3835,1,,,,,,,,,,,,,,m,1,1.3835,,,,,,,,0.036599545,-0.371008373,0,0,0,,0,4,4,44,1,BASKET,LB,old,m,./images/BASKETLB.png,,,,,,,,,,,,,,,,,,,,,,,,,,,,,,,,,,,
,,,,,,,,,,,,,,,,,5c6f2e7632cb70000169b490,45,2022-02-12_18h07.37.482,lexical_decision_task_DD_L4,2021.2.3,Linux x86_64,59.99880002,,,,,,,,,,,1.2129,1,,,,,,,,,,,,,,z,1,1.2129,,,,,,,,0.034041745,-0.368452162,0,0,0,,0,5,5,84,1,HAXES,C,old,z,./images/HAXES.png,,,,,,,,,,,,,,,,,,,,,,,,,,,,,,,,,,,
,,,,,,,,,,,,,,,,,5c6f2e7632cb70000169b490,45,2022-02-12_18h07.37.482,lexical_decision_task_DD_L4,2021.2.3,Linux x86_64,59.99880002,,,,,,,,,,,1.2461,1,,,,,,,,,,,,,,m,1,1.2461,,,,,,,,0.034041745,-0.365951764,0,0,0,,0,6,6,43,1,STOOL,HB,old,m,./images/STOOLHB.png,,,,,,,,,,,,,,,,,,,,,,,,,,,,,,,,,,,
,,,,,,,,,,,,,,,,,5c6f2e7632cb70000169b490,45,2022-02-12_18h07.37.482,lexical_decision_task_DD_L4,2021.2.3,Linux x86_64,59.99880002,,,,,,,,,,,0.8043,1,,,,,,,,,,,,,,m,1,0.8043,,,,,,,,0.034041745,-0.365951764,0,0,0,,0,7,7,48,1,SHIELD,C,old,m,./images/SHIELD.png,,,,,,,,,,,,,,,,,,,,,,,,,,,,,,,,,,,
,,,,,,,,,,,,,,,,,5c6f2e7632cb70000169b490,45,2022-02-12_18h07.37.482,lexical_decision_task_DD_L4,2021.2.3,Linux x86_64,59.99880002,,,,,,,,,,,0.9302,1,,,,,,,,,,,,,,z,1,0.9302,,,,,,,,0.034041745,-0.365951764,0,0,0,,0,8,8,87,1,TRING,C,old,z,./images/TRING.png,,,,,,,,,,,,,,,,,,,,,,,,,,,,,,,,,,,
,,,,,,,,,,,,,,,,,5c6f2e7632cb70000169b490,45,2022-02-12_18h07.37.482,lexical_decision_task_DD_L4,2021.2.3,Linux x86_64,59.99880002,,,,,,,,,,,0.8897,1,,,,,,,,,,,,,,m,1,0.8897,,,,,,,,0.034041745,-0.364300229,0,0,0,,0,9,9,2,1,STOVE,LB,old,m,./images/STOVELB.png,,,,,,,,,,,,,,,,,,,,,,,,,,,,,,,,,,,
,,,,,,,,,,,,,,,,,5c6f2e7632cb70000169b490,45,2022-02-12_18h07.37.482,lexical_decision_task_DD_L4,2021.2.3,Linux x86_64,59.99880002,,,,,,,,,,,1.0255,1,,,,,,,,,,,,,,z,1,1.0255,,,,,,,,0.034041745,-0.364300229,0,0,0,,0,10,10,97,1,CHIDS,HB,old,z,./images/CHIDSHB.png,,,,,,,,,,,,,,,,,,,,,,,,,,,,,,,,,,,
,,,,,,,,,,,,,,,,,5c6f2e7632cb70000169b490,45,2022-02-12_18h07.37.482,lexical_decision_task_DD_L4,2021.2.3,Linux x86_64,59.99880002,,,,,,,,,,,1.1993,1,,,,,,,,,,,,,,z,1,1.1993,,,,,,,,0.034041745,-0.361838231,0,0,0,,0,11,11,116,1,BALGY,LB,old,z,./images/BALGYLB.png,,,,,,,,,,,,,,,,,,,,,,,,,,,,,,,,,,,
,,,,,,,,,,,,,,,,,5c6f2e7632cb70000169b490,45,2022-02-12_18h07.37.482,lexical_decision_task_DD_L4,2021.2.3,Linux x86_64,59.99880002,,,,,,,,,,,1.2887,1,,,,,,,,,,,,,,m,1,1.2887,,,,,,,,0.034866757,-0.357726845,0,0,0,,0,12,12,72,1,FLASK,C,old,m,./images/FLASK.png,,,,,,,,,,,,,,,,,,,,,,,,,,,,,,,,,,,
,,,,,,,,,,,,,,,,,5c6f2e7632cb70000169b490,45,2022-02-12_18h07.37.482,lexical_decision_task_DD_L4,2021.2.3,Linux x86_64,59.99880002,,,,,,,,,,,0.9632,1,,,,,,,,,,,,,,z,1,0.9632,,,,,,,,0.034866757,-0.357726845,0,0,0,,0,13,13,147,1,ZOLES,C,old,z,./images/ZOLES.png,,,,,,,,,,,,,,,,,,,,,,,,,,,,,,,,,,,
,,,,,,,,,,,,,,,,,5c6f2e7632cb70000169b490,45,2022-02-12_18h07.37.482,lexical_decision_task_DD_L4,2021.2.3,Linux x86_64,59.99880002,,,,,,,,,,,0.9888,1,,,,,,,,,,,,,,m,1,0.9888,,,,,,,,0.034866757,-0.356083738,0,0,0,,0,14,14,45,1,MONKEY,C,old,m,./images/MONKEY.png,,,,,,,,,,,,,,,,,,,,,,,,,,,,,,,,,,,
,,,,,,,,,,,,,,,,,5c6f2e7632cb70000169b490,45,2022-02-12_18h07.37.482,lexical_decision_task_DD_L4,2021.2.3,Linux x86_64,59.99880002,,,,,,,,,,,0.9299,1,,,,,,,,,,,,,,z,1,0.9299,,,,,,,,0.034866757,-0.356083738,0,0,0,,0,15,15,144,1,NAIRY,C,old,z,./images/NAIRY.png,,,,,,,,,,,,,,,,,,,,,,,,,,,,,,,,,,,
,,,,,,,,,,,,,,,,,5c6f2e7632cb70000169b490,45,2022-02-12_18h07.37.482,lexical_decision_task_DD_L4,2021.2.3,Linux x86_64,59.99880002,,,,,,,,,,,0.8068,1,,,,,,,,,,,,,,z,1,0.8068,,,,,,,,0.034866757,-0.355262065,0,0,0,,0,16,16,160,1,VEETS,HB,old,z,./images/VEETSHB.png,,,,,,,,,,,,,,,,,,,,,,,,,,,,,,,,,,,
,,,,,,,,,,,,,,,,,5c6f2e7632cb70000169b490,45,2022-02-12_18h07.37.482,lexical_decision_task_DD_L4,2021.2.3,Linux x86_64,59.99880002,,,,,,,,,,,1.2272,1,,,,,,,,,,,,,,m,1,1.2272,,,,,,,,0.034866757,-0.355262065,0,0,0,,0,17,17,16,1,GRAPE,HB,old,m,./images/GRAPEHB.png,,,,,,,,,,,,,,,,,,,,,,,,,,,,,,,,,,,
,,,,,,,,,,,,,,,,,5c6f2e7632cb70000169b490,45,2022-02-12_18h07.37.482,lexical_decision_task_DD_L4,2021.2.3,Linux x86_64,59.99880002,,,,,,,,,,,1.3706,1,,,,,,,,,,,,,,z,1,1.3706,,,,,,,,0.034866757,-0.355262065,0,0,0,,0,18,18,148,1,JOMS,HB,old,z,./images/JOMSHB.png,,,,,,,,,,,,,,,,,,,,,,,,,,,,,,,,,,,
,,,,,,,,,,,,,,,,,5c6f2e7632cb70000169b490,45,2022-02-12_18h07.37.482,lexical_decision_task_DD_L4,2021.2.3,Linux x86_64,59.99880002,,,,,,,,,,,1.1187,1,,,,,,,,,,,,,,m,1,1.1187,,,,,,,,0.034866757,-0.353618878,0,0,0,,0,19,19,40,1,SNAKE,HB,old,m,./images/SNAKEHB.png,,,,,,,,,,,,,,,,,,,,,,,,,,,,,,,,,,,
,,,,,,,,,,,,,,,,,5c6f2e7632cb70000169b490,45,2022-02-12_18h07.37.482,lexical_decision_task_DD_L4,2021.2.3,Linux x86_64,59.99880002,,,,,,,,,,,1.4434,1,,,,,,,,,,,,,,m,1,1.4434,,,,,,,,0.034866757,-0.353618878,0,0,0,,0,20,20,12,1,BLOKE,C,old,m,./images/BLOKE.png,,,,,,,,,,,,,,,,,,,,,,,,,,,,,,,,,,,
,,,,,,,,,,,,,,,,,5c6f2e7632cb70000169b490,45,2022-02-12_18h07.37.482,lexical_decision_task_DD_L4,2021.2.3,Linux x86_64,59.99880002,,,,,,,,,,,0.9478,1,,,,,,,,,,,,,,z,1,0.9478,,,,,,,,0.034866757,-0.353618878,0,0,0,,0,21,21,156,1,HIXES,C,old,z,./images/HIXES.png,,,,,,,,,,,,,,,,,,,,,,,,,,,,,,,,,,,
,,,,,,,,,,,,,,,,,5c6f2e7632cb70000169b490,45,2022-02-12_18h07.37.482,lexical_decision_task_DD_L4,2021.2.3,Linux x86_64,59.99880002,,,,,,,,,,,0.8571,1,,,,,,,,,,,,,,z,1,0.8571,,,,,,,,0.034866757,-0.351154495,0,0,0,,0,22,22,110,1,CRUNK,LB,old,z,./images/CRUNKLB.png,,,,,,,,,,,,,,,,,,,,,,,,,,,,,,,,,,,
,,,,,,,,,,,,,,,,,5c6f2e7632cb70000169b490,45,2022-02-12_18h07.37.482,lexical_decision_task_DD_L4,2021.2.3,Linux x86_64,59.99880002,,,,,,,,,,,0.5442,1,,,,,,,,,,,,,,z,1,0.5442,,,,,,,,0.034866757,-0.351154495,0,0,0,,0,23,23,162,1,LEICH,C,old,z,./images/LEICH.png,,,,,,,,,,,,,,,,,,,,,,,,,,,,,,,,,,,
,,,,,,,,,,,,,,,,,5c6f2e7632cb70000169b490,45,2022-02-12_18h07.37.482,lexical_decision_task_DD_L4,2021.2.3,Linux x86_64,59.99880002,,,,,,,,,,,1.1523,1,,,,,,,,,,,,,,m,1,1.1523,,,,,,,,0.034866757,-0.351154495,0,0,0,,0,24,24,64,1,BRIDE,HB,old,m,./images/BRIDEHB.png,,,,,,,,,,,,,,,,,,,,,,,,,,,,,,,,,,,
,,,,,,,,,,,,,,,,,5c6f2e7632cb70000169b490,45,2022-02-12_18h07.37.482,lexical_decision_task_DD_L4,2021.2.3,Linux x86_64,59.99880002,,,,,,,,,,,0.4745,1,,,,,,,,,,,,,,m,1,0.4745,,,,,,,,0.034866757,-0.350333299,0,0,0,,0,25,25,63,1,BAKER,C,old,m,./images/BAKER.png,,,,,,,,,,,,,,,,,,,,,,,,,,,,,,,,,,,
,,,,,,,,,,,,,,,,,5c6f2e7632cb70000169b490,45,2022-02-12_18h07.37.482,lexical_decision_task_DD_L4,2021.2.3,Linux x86_64,59.99880002,,,,,,,,,,,0.56,1,,,,,,,,,,,,,,m,1,0.56,,,,,,,,0.034866757,-0.350333299,0,0,0,,0,26,26,36,1,BOILER,C,old,m,./images/BOILER.png,,,,,,,,,,,,,,,,,,,,,,,,,,,,,,,,,,,
,,,,,,,,,,,,,,,,,5c6f2e7632cb70000169b490,45,2022-02-12_18h07.37.482,lexical_decision_task_DD_L4,2021.2.3,Linux x86_64,59.99880002,,,,,,,,,,,0.9047,1,,,,,,,,,,,,,,m,1,0.9047,,,,,,,,0.034866757,-0.350333299,0,0,0,,0,27,27,82,1,PEBBLE,HB,old,m,./images/PEBBLEHB.png,,,,,,,,,,,,,,,,,,,,,,,,,,,,,,,,,,,
,,,,,,,,,,,,,,,,,5c6f2e7632cb70000169b490,45,2022-02-12_18h07.37.482,lexical_decision_task_DD_L4,2021.2.3,Linux x86_64,59.99880002,,,,,,,,,,,1.0536,1,,,,,,,,,,,,,,z,1,1.0536,,,,,,,,0.034866757,-0.350333299,0,0,0,,0,28,28,158,1,EGECT,LB,old,z,./images/EGECTLB.png,,,,,,,,,,,,,,,,,,,,,,,,,,,,,,,,,,,
,,,,,,,,,,,,,,,,,5c6f2e7632cb70000169b490,45,2022-02-12_18h07.37.482,lexical_decision_task_DD_L4,2021.2.3,Linux x86_64,59.99880002,,,,,,,,,,,0.6701,1,,,,,,,,,,,,,,z,1,0.6701,,,,,,,,0.034866757,-0.348690907,0,0,0,,0,29,29,94,1,BLANS,HB,old,z,./images/BLANSHB.png,,,,,,,,,,,,,,,,,,,,,,,,,,,,,,,,,,,
,,,,,,,,,,,,,,,,,5c6f2e7632cb70000169b490,45,2022-02-12_18h07.37.482,lexical_decision_task_DD_L4,2021.2.3,Linux x86_64,59.99880002,,,,,,,,,,,0.5763,1,,,,,,,,,,,,,,z,1,0.5763,,,,,,,,0.034866757,-0.348690907,0,0,0,,0,30,30,165,1,TROWN,C,old,z,./images/TROWN.png,,,,,,,,,,,,,,,,,,,,,,,,,,,,,,,,,,,
,,,,,,,,,,,,,,,,,5c6f2e7632cb70000169b490,45,2022-02-12_18h07.37.482,lexical_decision_task_DD_L4,2021.2.3,Linux x86_64,59.99880002,,,,,,,,,,,0.9922,1,,,,,,,,,,,,,,m,1,0.9922,,,,,,,,0.152574138,-0.337420749,0,0,0,,0,31,31,53,1,POSTER,LB,old,m,./images/POSTERLB.png,,,,,,,,,,,,,,,,,,,,,,,,,,,,,,,,,,,
,,,,,,,,,,,,,,,,,5c6f2e7632cb70000169b490,45,2022-02-12_18h07.37.482,lexical_decision_task_DD_L4,2021.2.3,Linux x86_64,59.99880002,,,,,,,,,,,1.3258,1,,,,,,,,,,,,,,m,1,1.3258,,,,,,,,0.152574138,-0.337420749,0,0,0,,0,32,32,70,1,BANANA,HB,old,m,./images/BANANAHB.png,,,,,,,,,,,,,,,,,,,,,,,,,,,,,,,,,,,
,,,,,,,,,,,,,,,,,5c6f2e7632cb70000169b490,45,2022-02-12_18h07.37.482,lexical_decision_task_DD_L4,2021.2.3,Linux x86_64,59.99880002,,,,,,,,,,,0.6499,1,,,,,,,,,,,,,,m,1,0.6499,,,,,,,,0.152574138,-0.337420749,0,0,0,,0,33,33,56,1,HEATER,LB,old,m,./images/HEATERLB.png,,,,,,,,,,,,,,,,,,,,,,,,,,,,,,,,,,,
,,,,,,,,,,,,,,,,,5c6f2e7632cb70000169b490,45,2022-02-12_18h07.37.482,lexical_decision_task_DD_L4,2021.2.3,Linux x86_64,59.99880002,,,,,,,,,,,1.6261,1,,,,,,,,,,,,,,z,1,1.6261,,,,,,,,0.152574138,-0.337420749,0,0,0,,0,34,34,140,1,DOVET,LB,old,z,./images/DOVETLB.png,,,,,,,,,,,,,,,,,,,,,,,,,,,,,,,,,,,
,,,,,,,,,,,,,,,,,5c6f2e7632cb70000169b490,45,2022-02-12_18h07.37.482,lexical_decision_task_DD_L4,2021.2.3,Linux x86_64,59.99880002,,,,,,,,,,,0.6578,1,,,,,,,,,,,,,,z,1,0.6578,,,,,,,,0.152574138,-0.337420749,0,0,0,,0,35,35,145,1,LAMEL,HB,old,z,./images/LAMELHB.png,,,,,,,,,,,,,,,,,,,,,,,,,,,,,,,,,,,
,,,,,,,,,,,,,,,,,5c6f2e7632cb70000169b490,45,2022-02-12_18h07.37.482,lexical_decision_task_DD_L4,2021.2.3,Linux x86_64,59.99880002,,,,,,,,,,,0.9933,1,,,,,,,,,,,,,,m,1,0.9933,,,,,,,,0.152574138,-0.337420749,0,0,0,,0,36,36,19,1,DONKEY,HB,old,m,./images/DONKEYHB.png,,,,,,,,,,,,,,,,,,,,,,,,,,,,,,,,,,,
,,,,,,,,,,,,,,,,,5c6f2e7632cb70000169b490,45,2022-02-12_18h07.37.482,lexical_decision_task_DD_L4,2021.2.3,Linux x86_64,59.99880002,,,,,,,,,,,1.2388,1,,,,,,,,,,,,,,z,1,1.2388,,,,,,,,0.152574138,-0.337420749,0,0,0,,0,37,37,127,1,NINDY,HB,old,z,./images/NINDYHB.png,,,,,,,,,,,,,,,,,,,,,,,,,,,,,,,,,,,
,,,,,,,,,,,,,,,,,5c6f2e7632cb70000169b490,45,2022-02-12_18h07.37.482,lexical_decision_task_DD_L4,2021.2.3,Linux x86_64,59.99880002,,,,,,,,,,,0.68,1,,,,,,,,,,,,,,z,1,0.68,,,,,,,,0.152574138,-0.337420749,0,0,0,,0,38,38,117,1,STEEG,C,old,z,./images/STEEG.png,,,,,,,,,,,,,,,,,,,,,,,,,,,,,,,,,,,
,,,,,,,,,,,,,,,,,5c6f2e7632cb70000169b490,45,2022-02-12_18h07.37.482,lexical_decision_task_DD_L4,2021.2.3,Linux x86_64,59.99880002,,,,,,,,,,,1.0209,1,,,,,,,,,,,,,,m,1,1.0209,,,,,,,,0.152574138,-0.337420749,0,0,0,,0,39,39,67,1,POKER,HB,old,m,./images/POKERHB.png,,,,,,,,,,,,,,,,,,,,,,,,,,,,,,,,,,,
,,,,,,,,,,,,,,,,,5c6f2e7632cb70000169b490,45,2022-02-12_18h07.37.482,lexical_decision_task_DD_L4,2021.2.3,Linux x86_64,59.99880002,,,,,,,,,,,0.693,1,,,,,,,,,,,,,,m,1,0.693,,,,,,,,0.152574138,-0.337420749,0,0,0,,0,40,40,49,1,BISHOP,HB,old,m,./images/BISHOPHB.png,,,,,,,,,,,,,,,,,,,,,,,,,,,,,,,,,,,
,,,,,,,,,,,,,,,,,5c6f2e7632cb70000169b490,45,2022-02-12_18h07.37.482,lexical_decision_task_DD_L4,2021.2.3,Linux x86_64,59.99880002,,,,,,,,,,,0.5237,1,,,,,,,,,,,,,,m,1,0.5237,,,,,,,,-0.020754822,-0.392170328,1,0,0,,0,41,41,75,1,HAMMER,C,old,m,./images/HAMMER.png,break_done_button,,,,,,,,,,,,,,,,,,,,,,,,,,,,,,,,,,
,,,,,,,,,,,,,,,,,5c6f2e7632cb70000169b490,45,2022-02-12_18h07.37.482,lexical_decision_task_DD_L4,2021.2.3,Linux x86_64,59.99880002,,,,,,,,,,,1.3141,1,,,,,,,,,,,,,,m,1,1.3141,,,,,,,,-0.020754822,-0.392170328,0,0,0,,0,42,42,33,1,SAUNA,C,old,m,./images/SAUNA.png,,,,,,,,,,,,,,,,,,,,,,,,,,,,,,,,,,,
,,,,,,,,,,,,,,,,,5c6f2e7632cb70000169b490,45,2022-02-12_18h07.37.482,lexical_decision_task_DD_L4,2021.2.3,Linux x86_64,59.99880002,,,,,,,,,,,0.8201,1,,,,,,,,,,,,,,z,1,0.8201,,,,,,,,-0.020754822,-0.392170328,0,0,0,,0,43,43,103,1,FLORT,HB,old,z,./images/FLORTHB.png,,,,,,,,,,,,,,,,,,,,,,,,,,,,,,,,,,,
,,,,,,,,,,,,,,,,,5c6f2e7632cb70000169b490,45,2022-02-12_18h07.37.482,lexical_decision_task_DD_L4,2021.2.3,Linux x86_64,59.99880002,,,,,,,,,,,1.1952,1,,,,,,,,,,,,,,m,1,1.1952,,,,,,,,-0.021430684,-0.390818444,0,0,0,,0,44,44,59,1,BRUSH,LB,old,m,./images/BRUSHLB.png,,,,,,,,,,,,,,,,,,,,,,,,,,,,,,,,,,,
,,,,,,,,,,,,,,,,,5c6f2e7632cb70000169b490,45,2022-02-12_18h07.37.482,lexical_decision_task_DD_L4,2021.2.3,Linux x86_64,59.99880002,,,,,,,,,,,0.7239,1,,,,,,,,,,,,,,m,1,0.7239,,,,,,,,-0.023796324,-0.391156415,0,0,0,,0,45,45,66,1,STATUE,C,old,m,./images/STATUE.png,,,,,,,,,,,,,,,,,,,,,,,,,,,,,,,,,,,
,,,,,,,,,,,,,,,,,5c6f2e7632cb70000169b490,45,2022-02-12_18h07.37.482,lexical_decision_task_DD_L4,2021.2.3,Linux x86_64,59.99880002,,,,,,,,,,,0.8176,1,,,,,,,,,,,,,,z,1,0.8176,,,,,,,,0.061654251,-0.173643788,0,0,0,,0,46,46,133,1,POWDY,HB,old,z,./images/POWDYHB.png,,,,,,,,,,,,,,,,,,,,,,,,,,,,,,,,,,,
,,,,,,,,,,,,,,,,,5c6f2e7632cb70000169b490,45,2022-02-12_18h07.37.482,lexical_decision_task_DD_L4,2021.2.3,Linux x86_64,59.99880002,,,,,,,,,,,0.6393,1,,,,,,,,,,,,,,m,1,0.6393,,,,,,,,0.061654251,-0.173643788,0,0,0,,0,47,47,26,1,CLOUD,LB,old,m,./images/CLOUDLB.png,,,,,,,,,,,,,,,,,,,,,,,,,,,,,,,,,,,
,,,,,,,,,,,,,,,,,5c6f2e7632cb70000169b490,45,2022-02-12_18h07.37.482,lexical_decision_task_DD_L4,2021.2.3,Linux x86_64,59.99880002,,,,,,,,,,,0.5877,1,,,,,,,,,,,,,,m,1,0.5877,,,,,,,,0.061654251,-0.173643788,0,0,0,,0,48,48,23,1,CLOTH,LB,old,m,./images/CLOTHLB.png,,,,,,,,,,,,,,,,,,,,,,,,,,,,,,,,,,,
,,,,,,,,,,,,,,,,,5c6f2e7632cb70000169b490,45,2022-02-12_18h07.37.482,lexical_decision_task_DD_L4,2021.2.3,Linux x86_64,59.99880002,,,,,,,,,,,0.7513,1,,,,,,,,,,,,,,m,1,0.7513,,,,,,,,0.061654251,-0.173643788,0,0,0,,0,49,49,65,1,SPINE,LB,old,m,./images/SPINELB.png,,,,,,,,,,,,,,,,,,,,,,,,,,,,,,,,,,,
,,,,,,,,,,,,,,,,,5c6f2e7632cb70000169b490,45,2022-02-12_18h07.37.482,lexical_decision_task_DD_L4,2021.2.3,Linux x86_64,59.99880002,,,,,,,,,,,0.7511,1,,,,,,,,,,,,,,z,1,0.7511,,,,,,,,0.061654251,-0.173643788,0,0,0,,0,50,50,166,1,SHORY,HB,old,z,./images/SHORYHB.png,,,,,,,,,,,,,,,,,,,,,,,,,,,,,,,,,,,
,,,,,,,,,,,,,,,,,5c6f2e7632cb70000169b490,45,2022-02-12_18h07.37.482,lexical_decision_task_DD_L4,2021.2.3,Linux x86_64,59.99880002,,,,,,,,,,,0.9025,1,,,,,,,,,,,,,,z,1,0.9025,,,,,,,,0.111496133,-0.069968808,0,0,0,,0,51,51,124,1,TUNCH,HB,old,z,./images/TUNCHHB.png,,,,,,,,,,,,,,,,,,,,,,,,,,,,,,,,,,,
,,,,,,,,,,,,,,,,,5c6f2e7632cb70000169b490,45,2022-02-12_18h07.37.482,lexical_decision_task_DD_L4,2021.2.3,Linux x86_64,59.99880002,,,,,,,,,,,0.6389,1,,,,,,,,,,,,,,m,1,0.6389,,,,,,,,0.108623815,-0.075545094,0,0,0,,0,52,52,13,1,BUNNY,HB,old,m,./images/BUNNYHB.png,,,,,,,,,,,,,,,,,,,,,,,,,,,,,,,,,,,
,,,,,,,,,,,,,,,,,5c6f2e7632cb70000169b490,45,2022-02-12_18h07.37.482,lexical_decision_task_DD_L4,2021.2.3,Linux x86_64,59.99880002,,,,,,,,,,,0.804,1,,,,,,,,,,,,,,z,1,0.804,,,,,,,,0.108623815,-0.075545094,0,0,0,,0,53,53,100,1,DRIBS,HB,old,z,./images/DRIBSHB.png,,,,,,,,,,,,,,,,,,,,,,,,,,,,,,,,,,,
,,,,,,,,,,,,,,,,,5c6f2e7632cb70000169b490,45,2022-02-12_18h07.37.482,lexical_decision_task_DD_L4,2021.2.3,Linux x86_64,59.99880002,,,,,,,,,,,0.6259,1,,,,,,,,,,,,,,m,1,0.6259,,,,,,,,0.103892855,-0.088725293,0,0,0,,0,54,54,6,1,STAIN,C,old,m,./images/STAIN.png,,,,,,,,,,,,,,,,,,,,,,,,,,,,,,,,,,,
,,,,,,,,,,,,,,,,,5c6f2e7632cb70000169b490,45,2022-02-12_18h07.37.482,lexical_decision_task_DD_L4,2021.2.3,Linux x86_64,59.99880002,,,,,,,,,,,0.581,1,,,,,,,,,,,,,,m,1,0.581,,,,,,,,0.103892855,-0.088725293,0,0,0,,0,55,55,71,1,BUBBLE,LB,old,m,./images/BUBBLELB.png,,,,,,,,,,,,,,,,,,,,,,,,,,,,,,,,,,,
,,,,,,,,,,,,,,,,,5c6f2e7632cb70000169b490,45,2022-02-12_18h07.37.482,lexical_decision_task_DD_L4,2021.2.3,Linux x86_64,59.99880002,,,,,,,,,,,0.7789,1,,,,,,,,,,,,,,z,1,0.7789,,,,,,,,0.103892855,-0.088725293,0,0,0,,0,56,56,121,1,CEERS,HB,old,z,./images/CEERSHB.png,,,,,,,,,,,,,,,,,,,,,,,,,,,,,,,,,,,
,,,,,,,,,,,,,,,,,5c6f2e7632cb70000169b490,45,2022-02-12_18h07.37.482,lexical_decision_task_DD_L4,2021.2.3,Linux x86_64,59.99880002,,,,,,,,,,,0.7202,1,,,,,,,,,,,,,,m,1,0.7202,,,,,,,,0.099837757,-0.099032937,0,0,0,,0,57,57,38,1,ENGINE,LB,old,m,./images/ENGINELB.png,,,,,,,,,,,,,,,,,,,,,,,,,,,,,,,,,,,
,,,,,,,,,,,,,,,,,5c6f2e7632cb70000169b490,45,2022-02-12_18h07.37.482,lexical_decision_task_DD_L4,2021.2.3,Linux x86_64,59.99880002,,,,,,,,,,,0.7535,1,,,,,,,,,,,,,,m,1,0.7535,,,,,,,,0.099161895,-0.101398814,0,0,0,,0,58,58,55,1,ALLEY,HB,old,m,./images/ALLEYHB.png,,,,,,,,,,,,,,,,,,,,,,,,,,,,,,,,,,,
,,,,,,,,,,,,,,,,,5c6f2e7632cb70000169b490,45,2022-02-12_18h07.37.482,lexical_decision_task_DD_L4,2021.2.3,Linux x86_64,59.99880002,,,,,,,,,,,0.8241,1,,,,,,,,,,,,,,z,1,0.8241,,,,,,,,0.099161895,-0.101398814,0,0,0,,0,59,59,95,1,HANTY,LB,old,z,./images/HANTYLB.png,,,,,,,,,,,,,,,,,,,,,,,,,,,,,,,,,,,
,,,,,,,,,,,,,,,,,5c6f2e7632cb70000169b490,45,2022-02-12_18h07.37.482,lexical_decision_task_DD_L4,2021.2.3,Linux x86_64,59.99880002,,,,,,,,,,,1.0663,1,,,,,,,,,,,,,,z,1,1.0663,,,,,,,,0.099161895,-0.101398814,0,0,0,,0,60,60,112,1,MYING,HB,old,z,./images/MYINGHB.png,,,,,,,,,,,,,,,,,,,,,,,,,,,,,,,,,,,
,,,,,,,,,,,,,,,,,5c6f2e7632cb70000169b490,45,2022-02-12_18h07.37.482,lexical_decision_task_DD_L4,2021.2.3,Linux x86_64,59.99880002,,,,,,,,,,,0.6233,1,,,,,,,,,,,,,,m,1,0.6233,,,,,,,,0.095275743,-0.106975338,0,0,0,,0,61,61,22,1,CLOWN,HB,old,m,./images/CLOWNHB.png,,,,,,,,,,,,,,,,,,,,,,,,,,,,,,,,,,,
,,,,,,,,,,,,,,,,,5c6f2e7632cb70000169b490,45,2022-02-12_18h07.37.482,lexical_decision_task_DD_L4,2021.2.3,Linux x86_64,59.99880002,,,,,,,,,,,0.5208,1,,,,,,,,,,,,,,m,1,0.5208,,,,,,,,0.095275743,-0.106975338,0,0,0,,0,62,62,54,1,CHERRY,C,old,m,./images/CHERRY.png,,,,,,,,,,,,,,,,,,,,,,,,,,,,,,,,,,,
,,,,,,,,,,,,,,,,,5c6f2e7632cb70000169b490,45,2022-02-12_18h07.37.482,lexical_decision_task_DD_L4,2021.2.3,Linux x86_64,59.99880002,,,,,,,,,,,0.7094,1,,,,,,,,,,,,,,z,1,0.7094,,,,,,,,0.095275743,-0.106975338,0,0,0,,0,63,63,164,1,SGREW,LB,old,z,./images/SGREWLB.png,,,,,,,,,,,,,,,,,,,,,,,,,,,,,,,,,,,
,,,,,,,,,,,,,,,,,5c6f2e7632cb70000169b490,45,2022-02-12_18h07.37.482,lexical_decision_task_DD_L4,2021.2.3,Linux x86_64,59.99880002,,,,,,,,,,,0.4984,1,,,,,,,,,,,,,,m,1,0.4984,,,,,,,,0.094430855,-0.109509963,0,0,0,,0,64,64,39,1,CANDY,C,old,m,./images/CANDY.png,,,,,,,,,,,,,,,,,,,,,,,,,,,,,,,,,,,
,,,,,,,,,,,,,,,,,5c6f2e7632cb70000169b490,45,2022-02-12_18h07.37.482,lexical_decision_task_DD_L4,2021.2.3,Linux x86_64,59.99880002,,,,,,,,,,,0.7324,1,,,,,,,,,,,,,,z,1,0.7324,,,,,,,,0.094430855,-0.109509963,0,0,0,,0,65,65,139,1,BLEAR,HB,old,z,./images/BLEARHB.png,,,,,,,,,,,,,,,,,,,,,,,,,,,,,,,,,,,
,,,,,,,,,,,,,,,,,5c6f2e7632cb70000169b490,45,2022-02-12_18h07.37.482,lexical_decision_task_DD_L4,2021.2.3,Linux x86_64,59.99880002,,,,,,,,,,,0.7459,1,,,,,,,,,,,,,,m,1,0.7459,,,,,,,,0.094430855,-0.109509963,0,0,0,,0,66,66,17,1,PARADE,LB,old,m,./images/PARADELB.png,,,,,,,,,,,,,,,,,,,,,,,,,,,,,,,,,,,
,,,,,,,,,,,,,,,,,5c6f2e7632cb70000169b490,45,2022-02-12_18h07.37.482,lexical_decision_task_DD_L4,2021.2.3,Linux x86_64,59.99880002,,,,,,,,,,,0.8745,1,,,,,,,,,,,,,,m,1,0.8745,,,,,,,,0.094430855,-0.109509963,0,0,0,,0,67,67,9,1,DIVER,C,old,m,./images/DIVER.png,,,,,,,,,,,,,,,,,,,,,,,,,,,,,,,,,,,
,,,,,,,,,,,,,,,,,5c6f2e7632cb70000169b490,45,2022-02-12_18h07.37.482,lexical_decision_task_DD_L4,2021.2.3,Linux x86_64,59.99880002,,,,,,,,,,,0.5784,1,,,,,,,,,,,,,,m,1,0.5784,,,,,,,,0.094430855,-0.109340938,0,0,0,,0,68,68,77,1,WHEEL,LB,old,m,./images/WHEELLB.png,,,,,,,,,,,,,,,,,,,,,,,,,,,,,,,,,,,
,,,,,,,,,,,,,,,,,5c6f2e7632cb70000169b490,45,2022-02-12_18h07.37.482,lexical_decision_task_DD_L4,2021.2.3,Linux x86_64,59.99880002,,,,,,,,,,,1.3707,1,,,,,,,,,,,,,,z,1,1.3707,,,,,,,,0.094430855,-0.109171952,0,0,0,,0,69,69,114,1,RIKES,C,old,z,./images/RIKES.png,,,,,,,,,,,,,,,,,,,,,,,,,,,,,,,,,,,
,,,,,,,,,,,,,,,,,5c6f2e7632cb70000169b490,45,2022-02-12_18h07.37.482,lexical_decision_task_DD_L4,2021.2.3,Linux x86_64,59.99880002,,,,,,,,,,,0.9195,1,,,,,,,,,,,,,,m,1,0.9195,,,,,,,,0.094430855,-0.109171952,0,0,0,,0,70,70,4,1,BOXER,HB,old,m,./images/BOXERHB.png,,,,,,,,,,,,,,,,,,,,,,,,,,,,,,,,,,,
,,,,,,,,,,,,,,,,,5c6f2e7632cb70000169b490,45,2022-02-12_18h07.37.482,lexical_decision_task_DD_L4,2021.2.3,Linux x86_64,59.99880002,,,,,,,,,,,0.6052,1,,,,,,,,,,,,,,z,1,0.6052,,,,,,,,0.091220566,-0.112044826,0,0,0,,0,71,71,90,1,NEAST,C,old,z,./images/NEAST.png,,,,,,,,,,,,,,,,,,,,,,,,,,,,,,,,,,,
,,,,,,,,,,,,,,,,,5c6f2e7632cb70000169b490,45,2022-02-12_18h07.37.482,lexical_decision_task_DD_L4,2021.2.3,Linux x86_64,59.99880002,,,,,,,,,,,0.6605,1,,,,,,,,,,,,,,z,1,0.6605,,,,,,,,0.091220566,-0.112044826,0,0,0,,0,72,72,123,1,SEDGE,C,old,z,./images/SEDGE.png,,,,,,,,,,,,,,,,,,,,,,,,,,,,,,,,,,,
,,,,,,,,,,,,,,,,,5c6f2e7632cb70000169b490,45,2022-02-12_18h07.37.482,lexical_decision_task_DD_L4,2021.2.3,Linux x86_64,59.99880002,,,,,,,,,,,0.6084,1,,,,,,,,,,,,,,m,1,0.6084,,,,,,,,0.091220566,-0.112044826,0,0,0,,0,73,73,76,1,MIDGET,HB,old,m,./images/MIDGETHB.png,,,,,,,,,,,,,,,,,,,,,,,,,,,,,,,,,,,
,,,,,,,,,,,,,,,,,5c6f2e7632cb70000169b490,45,2022-02-12_18h07.37.482,lexical_decision_task_DD_L4,2021.2.3,Linux x86_64,59.99880002,,,,,,,,,,,0.6339,1,,,,,,,,,,,,,,z,1,0.6339,,,,,,,,0.091220566,-0.112044826,0,0,0,,0,74,74,118,1,BAVEL,HB,old,z,./images/BAVELHB.png,,,,,,,,,,,,,,,,,,,,,,,,,,,,,,,,,,,
,,,,,,,,,,,,,,,,,5c6f2e7632cb70000169b490,45,2022-02-12_18h07.37.482,lexical_decision_task_DD_L4,2021.2.3,Linux x86_64,59.99880002,,,,,,,,,,,0.8892,1,,,,,,,,,,,,,,z,1,0.8892,,,,,,,,0.091220566,-0.112044826,0,0,0,,0,75,75,126,1,GUELS,C,old,z,./images/GUELS.png,,,,,,,,,,,,,,,,,,,,,,,,,,,,,,,,,,,
,,,,,,,,,,,,,,,,,5c6f2e7632cb70000169b490,45,2022-02-12_18h07.37.482,lexical_decision_task_DD_L4,2021.2.3,Linux x86_64,59.99880002,,,,,,,,,,,0.6405,1,,,,,,,,,,,,,,z,1,0.6405,,,,,,,,0.091220566,-0.112044826,0,0,0,,0,76,76,155,1,CANGY,LB,old,z,./images/CANGYLB.png,,,,,,,,,,,,,,,,,,,,,,,,,,,,,,,,,,,
,,,,,,,,,,,,,,,,,5c6f2e7632cb70000169b490,45,2022-02-12_18h07.37.482,lexical_decision_task_DD_L4,2021.2.3,Linux x86_64,59.99880002,,,,,,,,,,,0.5264,1,,,,,,,,,,,,,,m,1,0.5264,,,,,,,,0.091220566,-0.112044826,0,0,0,,0,77,77,15,1,COLLAR,C,old,m,./images/COLLAR.png,,,,,,,,,,,,,,,,,,,,,,,,,,,,,,,,,,,
,,,,,,,,,,,,,,,,,5c6f2e7632cb70000169b490,45,2022-02-12_18h07.37.482,lexical_decision_task_DD_L4,2021.2.3,Linux x86_64,59.99880002,,,,,,,,,,,0.5405,1,,,,,,,,,,,,,,m,1,0.5405,,,,,,,,0.091220566,-0.112044826,0,0,0,,0,78,78,21,1,DANCER,C,old,m,./images/DANCER.png,,,,,,,,,,,,,,,,,,,,,,,,,,,,,,,,,,,
,,,,,,,,,,,,,,,,,5c6f2e7632cb70000169b490,45,2022-02-12_18h07.37.482,lexical_decision_task_DD_L4,2021.2.3,Linux x86_64,59.99880002,,,,,,,,,,,0.5947,1,,,,,,,,,,,,,,z,1,0.5947,,,,,,,,0.091220566,-0.112044826,0,0,0,,0,79,79,137,1,JOOST,LB,old,z,./images/JOOSTLB.png,,,,,,,,,,,,,,,,,,,,,,,,,,,,,,,,,,,
,,,,,,,,,,,,,,,,,5c6f2e7632cb70000169b490,45,2022-02-12_18h07.37.482,lexical_decision_task_DD_L4,2021.2.3,Linux x86_64,59.99880002,,,,,,,,,,,0.7112,1,,,,,,,,,,,,,,z,1,0.7112,,,,,,,,0.091220566,-0.112044826,0,0,0,,0,80,80,167,1,ZONET,LB,old,z,./images/ZONETLB.png,,,,,,,,,,,,,,,,,,,,,,,,,,,,,,,,,,,
,,,,,,,,,,,,,,,,,5c6f2e7632cb70000169b490,45,2022-02-12_18h07.37.482,lexical_decision_task_DD_L4,2021.2.3,Linux x86_64,59.99880002,,,,,,,,,,,0.9585,1,,,,,,,,,,,,,,z,1,0.9585,,,,,,,,0.091220566,-0.112044826,0,0,0,,0,81,81,138,1,PLICE,C,old,z,./images/PLICE.png,,,,,,,,,,,,,,,,,,,,,,,,,,,,,,,,,,,
,,,,,,,,,,,,,,,,,5c6f2e7632cb70000169b490,45,2022-02-12_18h07.37.482,lexical_decision_task_DD_L4,2021.2.3,Linux x86_64,59.99880002,,,,,,,,,,,0.6275,1,,,,,,,,,,,,,,z,1,0.6275,,,,,,,,0.091220566,-0.112044826,0,0,0,,0,82,82,107,1,FASKS,LB,old,z,./images/FASKSLB.png,,,,,,,,,,,,,,,,,,,,,,,,,,,,,,,,,,,
,,,,,,,,,,,,,,,,,5c6f2e7632cb70000169b490,45,2022-02-12_18h07.37.482,lexical_decision_task_DD_L4,2021.2.3,Linux x86_64,59.99880002,,,,,,,,,,,0.6022,1,,,,,,,,,,,,,,z,1,0.6022,,,,,,,,-0.008259111,-0.397702132,1,0,0,,0,83,83,161,1,BLAPS,LB,old,z,./images/BLAPSLB.png,break_done_button,,,,,,,,,,,,,,,,,,,,,,,,,,,,,,,,,,
,,,,,,,,,,,,,,,,,5c6f2e7632cb70000169b490,45,2022-02-12_18h07.37.482,lexical_decision_task_DD_L4,2021.2.3,Linux x86_64,59.99880002,,,,,,,,,,,1.2761,1,,,,,,,,,,,,,,m,1,1.2761,,,,,,,,-0.008259111,-0.397702132,0,0,0,,0,84,84,69,1,ARROW,C,old,m,./images/ARROW.png,,,,,,,,,,,,,,,,,,,,,,,,,,,,,,,,,,,
,,,,,,,,,,,,,,,,,5c6f2e7632cb70000169b490,45,2022-02-12_18h07.37.482,lexical_decision_task_DD_L4,2021.2.3,Linux x86_64,59.99880002,,,,,,,,,,,1.1595,1,,,,,,,,,,,,,,z,1,1.1595,,,,,,,,-0.008259111,-0.397702132,0,0,0,,0,85,85,146,1,MOOST,LB,old,z,./images/MOOSTLB.png,,,,,,,,,,,,,,,,,,,,,,,,,,,,,,,,,,,
,,,,,,,,,,,,,,,,,5c6f2e7632cb70000169b490,45,2022-02-12_18h07.37.482,lexical_decision_task_DD_L4,2021.2.3,Linux x86_64,59.99880002,,,,,,,,,,,0.7897,1,,,,,,,,,,,,,,z,1,0.7897,,,,,,,,-0.008259111,-0.397702132,0,0,0,,0,86,86,88,1,GLUSH,HB,old,z,./images/GLUSHHB.png,,,,,,,,,,,,,,,,,,,,,,,,,,,,,,,,,,,
,,,,,,,,,,,,,,,,,5c6f2e7632cb70000169b490,45,2022-02-12_18h07.37.482,lexical_decision_task_DD_L4,2021.2.3,Linux x86_64,59.99880002,,,,,,,,,,,0.6386,1,,,,,,,,,,,,,,m,1,0.6386,,,,,,,,-0.008259111,-0.397702132,0,0,0,,0,87,87,68,1,VALLEY,LB,old,m,./images/VALLEYLB.png,,,,,,,,,,,,,,,,,,,,,,,,,,,,,,,,,,,
,,,,,,,,,,,,,,,,,5c6f2e7632cb70000169b490,45,2022-02-12_18h07.37.482,lexical_decision_task_DD_L4,2021.2.3,Linux x86_64,59.99880002,,,,,,,,,,,0.6714,1,,,,,,,,,,,,,,z,1,0.6714,,,,,,,,-0.008259111,-0.397702132,0,0,0,,0,88,88,85,1,CHULK,HB,old,z,./images/CHULKHB.png,,,,,,,,,,,,,,,,,,,,,,,,,,,,,,,,,,,
,,,,,,,,,,,,,,,,,5c6f2e7632cb70000169b490,45,2022-02-12_18h07.37.482,lexical_decision_task_DD_L4,2021.2.3,Linux x86_64,59.99880002,,,,,,,,,,,0.8405,1,,,,,,,,,,,,,,m,1,0.8405,,,,,,,,-0.008259111,-0.397702132,0,0,0,,0,89,89,62,1,MAMMAL,LB,old,m,./images/MAMMALLB.png,,,,,,,,,,,,,,,,,,,,,,,,,,,,,,,,,,,
,,,,,,,,,,,,,,,,,5c6f2e7632cb70000169b490,45,2022-02-12_18h07.37.482,lexical_decision_task_DD_L4,2021.2.3,Linux x86_64,59.99880002,,,,,,,,,,,0.6228,1,,,,,,,,,,,,,,z,1,0.6228,,,,,,,,-0.008259111,-0.397702132,0,0,0,,0,90,90,136,1,WERVE,HB,old,z,./images/WERVEHB.png,,,,,,,,,,,,,,,,,,,,,,,,,,,,,,,,,,,
,,,,,,,,,,,,,,,,,5c6f2e7632cb70000169b490,45,2022-02-12_18h07.37.482,lexical_decision_task_DD_L4,2021.2.3,Linux x86_64,59.99880002,,,,,,,,,,,0.6682,1,,,,,,,,,,,,,,z,1,0.6682,,,,,,,,-0.008259111,-0.397702132,0,0,0,,0,91,91,128,1,GRIFT,LB,old,z,./images/GRIFTLB.png,,,,,,,,,,,,,,,,,,,,,,,,,,,,,,,,,,,
,,,,,,,,,,,,,,,,,5c6f2e7632cb70000169b490,45,2022-02-12_18h07.37.482,lexical_decision_task_DD_L4,2021.2.3,Linux x86_64,59.99880002,,,,,,,,,,,0.7614,1,,,,,,,,,,,,,,m,1,0.7614,,,,,,,,-0.008259111,-0.397702132,0,0,0,,0,92,92,3,1,CRATER,C,old,m,./images/CRATER.png,,,,,,,,,,,,,,,,,,,,,,,,,,,,,,,,,,,
,,,,,,,,,,,,,,,,,5c6f2e7632cb70000169b490,45,2022-02-12_18h07.37.482,lexical_decision_task_DD_L4,2021.2.3,Linux x86_64,59.99880002,,,,,,,,,,,0.7493,1,,,,,,,,,,,,,,z,1,0.7493,,,,,,,,-0.008428057,-0.396519352,0,0,0,,0,93,93,108,1,GRUET,C,old,z,./images/GRUET.png,,,,,,,,,,,,,,,,,,,,,,,,,,,,,,,,,,,
,,,,,,,,,,,,,,,,,5c6f2e7632cb70000169b490,45,2022-02-12_18h07.37.482,lexical_decision_task_DD_L4,2021.2.3,Linux x86_64,59.99880002,,,,,,,,,,,0.9398,1,,,,,,,,,,,,,,z,1,0.9398,,,,,,,,-0.008428057,-0.396519352,0,0,0,,0,94,94,89,1,DRIEK,LB,old,z,./images/DRIEKLB.png,,,,,,,,,,,,,,,,,,,,,,,,,,,,,,,,,,,
,,,,,,,,,,,,,,,,,5c6f2e7632cb70000169b490,45,2022-02-12_18h07.37.482,lexical_decision_task_DD_L4,2021.2.3,Linux x86_64,59.99880002,,,,,,,,,,,0.8074,1,,,,,,,,,,,,,,z,1,0.8074,,,,,,,,-0.008428057,-0.396519352,0,0,0,,0,95,95,96,1,KEAMS,C,old,z,./images/KEAMS.png,,,,,,,,,,,,,,,,,,,,,,,,,,,,,,,,,,,
,,,,,,,,,,,,,,,,,5c6f2e7632cb70000169b490,45,2022-02-12_18h07.37.482,lexical_decision_task_DD_L4,2021.2.3,Linux x86_64,59.99880002,,,,,,,,,,,0.8935,1,,,,,,,,,,,,,,z,1,0.8935,,,,,,,,-0.008428057,-0.396519352,0,0,0,,0,96,96,120,1,RINED,C,old,z,./images/RINED.png,,,,,,,,,,,,,,,,,,,,,,,,,,,,,,,,,,,
,,,,,,,,,,,,,,,,,5c6f2e7632cb70000169b490,45,2022-02-12_18h07.37.482,lexical_decision_task_DD_L4,2021.2.3,Linux x86_64,59.99880002,,,,,,,,,,,0.6376,1,,,,,,,,,,,,,,z,1,0.6376,,,,,,,,-0.008428057,-0.396519352,0,0,0,,0,97,97,98,1,BAMPS,LB,old,z,./images/BAMPSLB.png,,,,,,,,,,,,,,,,,,,,,,,,,,,,,,,,,,,
,,,,,,,,,,,,,,,,,5c6f2e7632cb70000169b490,45,2022-02-12_18h07.37.482,lexical_decision_task_DD_L4,2021.2.3,Linux x86_64,59.99880002,,,,,,,,,,,0.8125,1,,,,,,,,,,,,,,m,1,0.8125,,,,,,,,-0.008428057,-0.397870998,0,0,0,,0,98,98,34,1,RAZOR,HB,old,m,./images/RAZORHB.png,,,,,,,,,,,,,,,,,,,,,,,,,,,,,,,,,,,
,,,,,,,,,,,,,,,,,5c6f2e7632cb70000169b490,45,2022-02-12_18h07.37.482,lexical_decision_task_DD_L4,2021.2.3,Linux x86_64,59.99880002,,,,,,,,,,,0.6977,1,,,,,,,,,,,,,,z,1,0.6977,,,,,,,,-0.008428057,-0.393140038,0,0,0,,0,99,99,109,1,BURGE,HB,old,z,./images/BURGEHB.png,,,,,,,,,,,,,,,,,,,,,,,,,,,,,,,,,,,
,,,,,,,,,,,,,,,,,5c6f2e7632cb70000169b490,45,2022-02-12_18h07.37.482,lexical_decision_task_DD_L4,2021.2.3,Linux x86_64,59.99880002,,,,,,,,,,,0.6731,1,,,,,,,,,,,,,,m,1,0.6731,,,,,,,,-0.008428057,-0.393140038,0,0,0,,0,100,100,1,1,TOWEL,HB,old,m,./images/TOWELHB.png,,,,,,,,,,,,,,,,,,,,,,,,,,,,,,,,,,,
,,,,,,,,,,,,,,,,,5c6f2e7632cb70000169b490,45,2022-02-12_18h07.37.482,lexical_decision_task_DD_L4,2021.2.3,Linux x86_64,59.99880002,,,,,,,,,,,0.5757,0,,,,,,,,,,,,,,z,0,0.5757,,,,,,,,-0.008428057,-0.386550117,0,0,0,,0,101,101,37,1,TIGER,HB,old,m,./images/TIGERHB.png,,,,,,,,,,,,,,,,,,,,,,,,,,,,,,,,,,,
,,,,,,,,,,,,,,,,,5c6f2e7632cb70000169b490,45,2022-02-12_18h07.37.482,lexical_decision_task_DD_L4,2021.2.3,Linux x86_64,59.99880002,,,,,,,,,,,0.7574,1,,,,,,,,,,,,,,z,1,0.7574,,,,,,,,-0.008428057,-0.386550117,0,0,0,,0,102,102,125,1,MOOKY,LB,old,z,./images/MOOKYLB.png,,,,,,,,,,,,,,,,,,,,,,,,,,,,,,,,,,,
,,,,,,,,,,,,,,,,,5c6f2e7632cb70000169b490,45,2022-02-12_18h07.37.482,lexical_decision_task_DD_L4,2021.2.3,Linux x86_64,59.99880002,,,,,,,,,,,0.5004,1,,,,,,,,,,,,,,m,1,0.5004,,,,,,,,-0.008428057,-0.386550117,0,0,0,,0,103,103,5,1,BAMBOO,LB,old,m,./images/BAMBOOLB.png,,,,,,,,,,,,,,,,,,,,,,,,,,,,,,,,,,,
,,,,,,,,,,,,,,,,,5c6f2e7632cb70000169b490,45,2022-02-12_18h07.37.482,lexical_decision_task_DD_L4,2021.2.3,Linux x86_64,59.99880002,,,,,,,,,,,0.6197,1,,,,,,,,,,,,,,m,1,0.6197,,,,,,,,-0.008672134,-0.386250387,0,0,0,,0,104,104,61,1,ARTIST,HB,old,m,./images/ARTISTHB.png,,,,,,,,,,,,,,,,,,,,,,,,,,,,,,,,,,,
,,,,,,,,,,,,,,,,,5c6f2e7632cb70000169b490,45,2022-02-12_18h07.37.482,lexical_decision_task_DD_L4,2021.2.3,Linux x86_64,59.99880002,,,,,,,,,,,1.1321,1,,,,,,,,,,,,,,z,1,1.1321,,,,,,,,-0.008672134,-0.386250387,0,0,0,,0,105,105,130,1,CRILL,HB,old,z,./images/CRILLHB.png,,,,,,,,,,,,,,,,,,,,,,,,,,,,,,,,,,,
,,,,,,,,,,,,,,,,,5c6f2e7632cb70000169b490,45,2022-02-12_18h07.37.482,lexical_decision_task_DD_L4,2021.2.3,Linux x86_64,59.99880002,,,,,,,,,,,1.0211,1,,,,,,,,,,,,,,m,1,1.0211,,,,,,,,-0.009516943,-0.386250387,0,0,0,,0,106,106,73,1,GLOVE,HB,old,m,./images/GLOVEHB.png,,,,,,,,,,,,,,,,,,,,,,,,,,,,,,,,,,,
,,,,,,,,,,,,,,,,,5c6f2e7632cb70000169b490,45,2022-02-12_18h07.37.482,lexical_decision_task_DD_L4,2021.2.3,Linux x86_64,59.99880002,,,,,,,,,,,0.9363,1,,,,,,,,,,,,,,z,1,0.9363,,,,,,,,-0.009516943,-0.386250387,0,0,0,,0,107,107,111,1,HOSSE,C,old,z,./images/HOSSE.png,,,,,,,,,,,,,,,,,,,,,,,,,,,,,,,,,,,
,,,,,,,,,,,,,,,,,5c6f2e7632cb70000169b490,45,2022-02-12_18h07.37.482,lexical_decision_task_DD_L4,2021.2.3,Linux x86_64,59.99880002,,,,,,,,,,,0.5728,1,,,,,,,,,,,,,,m,1,0.5728,,,,,,,,-0.009516943,-0.386250387,0,0,0,,0,108,108,51,1,SAUCE,C,old,m,./images/SAUCE.png,,,,,,,,,,,,,,,,,,,,,,,,,,,,,,,,,,,
,,,,,,,,,,,,,,,,,5c6f2e7632cb70000169b490,45,2022-02-12_18h07.37.482,lexical_decision_task_DD_L4,2021.2.3,Linux x86_64,59.99880002,,,,,,,,,,,0.6185,1,,,,,,,,,,,,,,z,1,0.6185,,,,,,,,-0.009516943,-0.386250387,0,0,0,,0,109,109,92,1,PAIMS,LB,old,z,./images/PAIMSLB.png,,,,,,,,,,,,,,,,,,,,,,,,,,,,,,,,,,,
,,,,,,,,,,,,,,,,,5c6f2e7632cb70000169b490,45,2022-02-12_18h07.37.482,lexical_decision_task_DD_L4,2021.2.3,Linux x86_64,59.99880002,,,,,,,,,,,0.9837,1,,,,,,,,,,,,,,z,1,0.9837,,,,,,,,-0.009516943,-0.386250387,0,0,0,,0,110,110,152,1,FRAIN,LB,old,z,./images/FRAINLB.png,,,,,,,,,,,,,,,,,,,,,,,,,,,,,,,,,,,
,,,,,,,,,,,,,,,,,5c6f2e7632cb70000169b490,45,2022-02-12_18h07.37.482,lexical_decision_task_DD_L4,2021.2.3,Linux x86_64,59.99880002,,,,,,,,,,,1.4566,1,,,,,,,,,,,,,,z,1,1.4566,,,,,,,,-0.009516943,-0.386250387,0,0,0,,0,111,111,119,1,PAFER,LB,old,z,./images/PAFERLB.png,,,,,,,,,,,,,,,,,,,,,,,,,,,,,,,,,,,
,,,,,,,,,,,,,,,,,5c6f2e7632cb70000169b490,45,2022-02-12_18h07.37.482,lexical_decision_task_DD_L4,2021.2.3,Linux x86_64,59.99880002,,,,,,,,,,,0.6565,1,,,,,,,,,,,,,,m,1,0.6565,,,,,,,,-0.010530617,-0.387264141,0,0,0,,0,112,112,8,1,CLIFF,LB,old,m,./images/CLIFFLB.png,,,,,,,,,,,,,,,,,,,,,,,,,,,,,,,,,,,
,,,,,,,,,,,,,,,,,5c6f2e7632cb70000169b490,45,2022-02-12_18h07.37.482,lexical_decision_task_DD_L4,2021.2.3,Linux x86_64,59.99880002,,,,,,,,,,,0.6165,1,,,,,,,,,,,,,,z,1,0.6165,,,,,,,,-0.010530617,-0.387264141,0,0,0,,0,113,113,131,1,NACES,LB,old,z,./images/NACESLB.png,,,,,,,,,,,,,,,,,,,,,,,,,,,,,,,,,,,
,,,,,,,,,,,,,,,,,5c6f2e7632cb70000169b490,45,2022-02-12_18h07.37.482,lexical_decision_task_DD_L4,2021.2.3,Linux x86_64,59.99880002,,,,,,,,,,,0.7644,1,,,,,,,,,,,,,,m,1,0.7644,,,,,,,,-0.010530617,-0.387264141,0,0,0,,0,114,114,27,1,BUTTER,C,old,m,./images/BUTTER.png,,,,,,,,,,,,,,,,,,,,,,,,,,,,,,,,,,,
,,,,,,,,,,,,,,,,,5c6f2e7632cb70000169b490,45,2022-02-12_18h07.37.482,lexical_decision_task_DD_L4,2021.2.3,Linux x86_64,59.99880002,,,,,,,,,,,0.9548,1,,,,,,,,,,,,,,m,1,0.9548,,,,,,,,-0.010530617,-0.387264141,0,0,0,,0,115,115,25,1,CHALK,HB,old,m,./images/CHALKHB.png,,,,,,,,,,,,,,,,,,,,,,,,,,,,,,,,,,,
,,,,,,,,,,,,,,,,,5c6f2e7632cb70000169b490,45,2022-02-12_18h07.37.482,lexical_decision_task_DD_L4,2021.2.3,Linux x86_64,59.99880002,,,,,,,,,,,1.5379,1,,,,,,,,,,,,,,z,1,1.5379,,,,,,,,-0.010530617,-0.387264141,0,0,0,,0,116,116,157,1,INLER,HB,old,z,./images/INLERHB.png,,,,,,,,,,,,,,,,,,,,,,,,,,,,,,,,,,,
,,,,,,,,,,,,,,,,,5c6f2e7632cb70000169b490,45,2022-02-12_18h07.37.482,lexical_decision_task_DD_L4,2021.2.3,Linux x86_64,59.99880002,,,,,,,,,,,0.6148,1,,,,,,,,,,,,,,m,1,0.6148,,,,,,,,-0.010530617,-0.387264141,0,0,0,,0,117,117,57,1,FERRY,C,old,m,./images/FERRY.png,,,,,,,,,,,,,,,,,,,,,,,,,,,,,,,,,,,
,,,,,,,,,,,,,,,,,5c6f2e7632cb70000169b490,45,2022-02-12_18h07.37.482,lexical_decision_task_DD_L4,2021.2.3,Linux x86_64,59.99880002,,,,,,,,,,,0.6927,1,,,,,,,,,,,,,,z,1,0.6927,,,,,,,,-0.010530617,-0.387264141,0,0,0,,0,118,118,91,1,SHENS,HB,old,z,./images/SHENSHB.png,,,,,,,,,,,,,,,,,,,,,,,,,,,,,,,,,,,
,,,,,,,,,,,,,,,,,5c6f2e7632cb70000169b490,45,2022-02-12_18h07.37.482,lexical_decision_task_DD_L4,2021.2.3,Linux x86_64,59.99880002,,,,,,,,,,,0.6926,1,,,,,,,,,,,,,,z,1,0.6926,,,,,,,,-0.010530617,-0.387264141,0,0,0,,0,119,119,153,1,CLUPS,C,old,z,./images/CLUPS.png,,,,,,,,,,,,,,,,,,,,,,,,,,,,,,,,,,,
,,,,,,,,,,,,,,,,,5c6f2e7632cb70000169b490,45,2022-02-12_18h07.37.482,lexical_decision_task_DD_L4,2021.2.3,Linux x86_64,59.99880002,,,,,,,,,,,0.6181,1,,,,,,,,,,,,,,m,1,0.6181,,,,,,,,-0.010530617,-0.387264141,0,0,0,,0,120,120,35,1,LLAMA,LB,old,m,./images/LLAMALB.png,,,,,,,,,,,,,,,,,,,,,,,,,,,,,,,,,,,
,,,,,,,,,,,,,,,,,5c6f2e7632cb70000169b490,45,2022-02-12_18h07.37.482,lexical_decision_task_DD_L4,2021.2.3,Linux x86_64,59.99880002,,,,,,,,,,,1.0539,1,,,,,,,,,,,,,,m,1,1.0539,,,,,,,,-0.010530617,-0.387264141,0,0,0,,0,121,121,7,1,WAGON,HB,old,m,./images/WAGONHB.png,,,,,,,,,,,,,,,,,,,,,,,,,,,,,,,,,,,
,,,,,,,,,,,,,,,,,5c6f2e7632cb70000169b490,45,2022-02-12_18h07.37.482,lexical_decision_task_DD_L4,2021.2.3,Linux x86_64,59.99880002,,,,,,,,,,,0.7827,1,,,,,,,,,,,,,,z,1,0.7827,,,,,,,,-0.010530617,-0.387264141,0,0,0,,0,122,122,154,1,THINT,HB,old,z,./images/THINTHB.png,,,,,,,,,,,,,,,,,,,,,,,,,,,,,,,,,,,
,,,,,,,,,,,,,,,,,5c6f2e7632cb70000169b490,45,2022-02-12_18h07.37.482,lexical_decision_task_DD_L4,2021.2.3,Linux x86_64,59.99880002,,,,,,,,,,,0.6276,1,,,,,,,,,,,,,,z,1,0.6276,,,,,,,,-0.010530617,-0.387264141,0,0,0,,0,123,123,101,1,GLEET,LB,old,z,./images/GLEETLB.png,,,,,,,,,,,,,,,,,,,,,,,,,,,,,,,,,,,
,,,,,,,,,,,,,,,,,5c6f2e7632cb70000169b490,45,2022-02-12_18h07.37.482,lexical_decision_task_DD_L4,2021.2.3,Linux x86_64,59.99880002,,,,,,,,,,,0.6178,1,,,,,,,,,,,,,,m,1,0.6178,,,,,,,,-0.010530617,-0.387264141,0,0,0,,0,124,124,14,1,FENCE,LB,old,m,./images/FENCELB.png,,,,,,,,,,,,,,,,,,,,,,,,,,,,,,,,,,,
,,,,,,,,,,,,,,,,,5c6f2e7632cb70000169b490,45,2022-02-12_18h07.37.482,lexical_decision_task_DD_L4,2021.2.3,Linux x86_64,59.99880002,,,,,,,,,,,0.6277,1,,,,,,,,,,,,,,m,1,0.6277,,,,,,,,-0.076930542,-0.406145209,1,0,0,,0,125,125,60,1,CURRY,C,old,m,./images/CURRY.png,break_done_button,,,,,,,,,,,,,,,,,,,,,,,,,,,,,,,,,,
,,,,,,,,,,,,,,,,,5c6f2e7632cb70000169b490,45,2022-02-12_18h07.37.482,lexical_decision_task_DD_L4,2021.2.3,Linux x86_64,59.99880002,,,,,,,,,,,1.4579,1,,,,,,,,,,,,,,z,1,1.4579,,,,,,,,-0.076930542,-0.406145209,0,0,0,,0,126,126,132,1,SCIFF,C,old,z,./images/SCIFF.png,,,,,,,,,,,,,,,,,,,,,,,,,,,,,,,,,,,
,,,,,,,,,,,,,,,,,5c6f2e7632cb70000169b490,45,2022-02-12_18h07.37.482,lexical_decision_task_DD_L4,2021.2.3,Linux x86_64,59.99880002,,,,,,,,,,,0.83,1,,,,,,,,,,,,,,z,1,0.83,,,,,,,,-0.076930542,-0.406145209,0,0,0,,0,127,127,159,1,CUDDY,C,old,z,./images/CUDDY.png,,,,,,,,,,,,,,,,,,,,,,,,,,,,,,,,,,,
,,,,,,,,,,,,,,,,,5c6f2e7632cb70000169b490,45,2022-02-12_18h07.37.482,lexical_decision_task_DD_L4,2021.2.3,Linux x86_64,59.99880002,,,,,,,,,,,0.7367,1,,,,,,,,,,,,,,m,1,0.7367,,,,,,,,-0.076930542,-0.406145209,0,0,0,,0,128,128,46,1,MUMMY,HB,old,m,./images/MUMMYHB.png,,,,,,,,,,,,,,,,,,,,,,,,,,,,,,,,,,,
,,,,,,,,,,,,,,,,,5c6f2e7632cb70000169b490,45,2022-02-12_18h07.37.482,lexical_decision_task_DD_L4,2021.2.3,Linux x86_64,59.99880002,,,,,,,,,,,0.4568,1,,,,,,,,,,,,,,m,1,0.4568,,,,,,,,-0.076930542,-0.406145209,0,0,0,,0,129,129,78,1,BROOM,C,old,m,./images/BROOM.png,,,,,,,,,,,,,,,,,,,,,,,,,,,,,,,,,,,
,,,,,,,,,,,,,,,,,5c6f2e7632cb70000169b490,45,2022-02-12_18h07.37.482,lexical_decision_task_DD_L4,2021.2.3,Linux x86_64,59.99880002,,,,,,,,,,,0.5643,1,,,,,,,,,,,,,,z,1,0.5643,,,,,,,,-0.076930542,-0.406145209,0,0,0,,0,130,130,113,1,LINEW,LB,old,z,./images/LINEWLB.png,,,,,,,,,,,,,,,,,,,,,,,,,,,,,,,,,,,
,,,,,,,,,,,,,,,,,5c6f2e7632cb70000169b490,45,2022-02-12_18h07.37.482,lexical_decision_task_DD_L4,2021.2.3,Linux x86_64,59.99880002,,,,,,,,,,,0.6069,1,,,,,,,,,,,,,,z,1,0.6069,,,,,,,,-0.076930542,-0.406145209,0,0,0,,0,131,131,151,1,TINKY,HB,old,z,./images/TINKYHB.png,,,,,,,,,,,,,,,,,,,,,,,,,,,,,,,,,,,
,,,,,,,,,,,,,,,,,5c6f2e7632cb70000169b490,45,2022-02-12_18h07.37.482,lexical_decision_task_DD_L4,2021.2.3,Linux x86_64,59.99880002,,,,,,,,,,,0.7106,1,,,,,,,,,,,,,,z,1,0.7106,,,,,,,,-0.076930542,-0.406145209,0,0,0,,0,132,132,105,1,MOKER,C,old,z,./images/MOKER.png,,,,,,,,,,,,,,,,,,,,,,,,,,,,,,,,,,,
,,,,,,,,,,,,,,,,,5c6f2e7632cb70000169b490,45,2022-02-12_18h07.37.482,lexical_decision_task_DD_L4,2021.2.3,Linux x86_64,59.99880002,,,,,,,,,,,0.4597,1,,,,,,,,,,,,,,m,1,0.4597,,,,,,,,-0.076930542,-0.406145209,0,0,0,,0,133,133,83,1,WHISKY,LB,old,m,./images/WHISKYLB.png,,,,,,,,,,,,,,,,,,,,,,,,,,,,,,,,,,,
,,,,,,,,,,,,,,,,,5c6f2e7632cb70000169b490,45,2022-02-12_18h07.37.482,lexical_decision_task_DD_L4,2021.2.3,Linux x86_64,59.99880002,,,,,,,,,,,0.5768,1,,,,,,,,,,,,,,z,1,0.5768,,,,,,,,-0.076930542,-0.406145209,0,0,0,,0,134,134,141,1,PLEET,C,old,z,./images/PLEET.png,,,,,,,,,,,,,,,,,,,,,,,,,,,,,,,,,,,
,,,,,,,,,,,,,,,,,5c6f2e7632cb70000169b490,45,2022-02-12_18h07.37.482,lexical_decision_task_DD_L4,2021.2.3,Linux x86_64,59.99880002,,,,,,,,,,,0.5532,1,,,,,,,,,,,,,,m,1,0.5532,,,,,,,,-0.076930542,-0.406145209,0,0,0,,0,135,135,29,1,PISTOL,LB,old,m,./images/PISTOLLB.png,,,,,,,,,,,,,,,,,,,,,,,,,,,,,,,,,,,
,,,,,,,,,,,,,,,,,5c6f2e7632cb70000169b490,45,2022-02-12_18h07.37.482,lexical_decision_task_DD_L4,2021.2.3,Linux x86_64,59.99880002,,,,,,,,,,,0.5011,1,,,,,,,,,,,,,,z,1,0.5011,,,,,,,,-0.076930542,-0.406145209,0,0,0,,0,136,136,104,1,GITTY,LB,old,z,./images/GITTYLB.png,,,,,,,,,,,,,,,,,,,,,,,,,,,,,,,,,,,
,,,,,,,,,,,,,,,,,5c6f2e7632cb70000169b490,45,2022-02-12_18h07.37.482,lexical_decision_task_DD_L4,2021.2.3,Linux x86_64,59.99880002,,,,,,,,,,,0.7581,1,,,,,,,,,,,,,,m,1,0.7581,,,,,,,,-0.076930542,-0.406145209,0,0,0,,0,137,137,28,1,CASINO,HB,old,m,./images/CASINOHB.png,,,,,,,,,,,,,,,,,,,,,,,,,,,,,,,,,,,
,,,,,,,,,,,,,,,,,5c6f2e7632cb70000169b490,45,2022-02-12_18h07.37.482,lexical_decision_task_DD_L4,2021.2.3,Linux x86_64,59.99880002,,,,,,,,,,,0.7376,1,,,,,,,,,,,,,,m,1,0.7376,,,,,,,,-0.076930542,-0.406145209,0,0,0,,0,138,138,18,1,PARCEL,C,old,m,./images/PARCEL.png,,,,,,,,,,,,,,,,,,,,,,,,,,,,,,,,,,,
,,,,,,,,,,,,,,,,,5c6f2e7632cb70000169b490,45,2022-02-12_18h07.37.482,lexical_decision_task_DD_L4,2021.2.3,Linux x86_64,59.99880002,,,,,,,,,,,0.5652,1,,,,,,,,,,,,,,z,1,0.5652,,,,,,,,-0.076930542,-0.406145209,0,0,0,,0,139,139,143,1,MONGS,LB,old,z,./images/MONGSLB.png,,,,,,,,,,,,,,,,,,,,,,,,,,,,,,,,,,,
,,,,,,,,,,,,,,,,,5c6f2e7632cb70000169b490,45,2022-02-12_18h07.37.482,lexical_decision_task_DD_L4,2021.2.3,Linux x86_64,59.99880002,,,,,,,,,,,1.009,1,,,,,,,,,,,,,,z,1,1.009,,,,,,,,-0.076930542,-0.406145209,0,0,0,,0,140,140,142,1,PLASK,HB,old,z,./images/PLASKHB.png,,,,,,,,,,,,,,,,,,,,,,,,,,,,,,,,,,,
,,,,,,,,,,,,,,,,,5c6f2e7632cb70000169b490,45,2022-02-12_18h07.37.482,lexical_decision_task_DD_L4,2021.2.3,Linux x86_64,59.99880002,,,,,,,,,,,0.6206,1,,,,,,,,,,,,,,m,1,0.6206,,,,,,,,-0.076930542,-0.406145209,0,0,0,,0,141,141,30,1,SLOPE,C,old,m,./images/SLOPE.png,,,,,,,,,,,,,,,,,,,,,,,,,,,,,,,,,,,
,,,,,,,,,,,,,,,,,5c6f2e7632cb70000169b490,45,2022-02-12_18h07.37.482,lexical_decision_task_DD_L4,2021.2.3,Linux x86_64,59.99880002,,,,,,,,,,,0.5114,1,,,,,,,,,,,,,,m,1,0.5114,,,,,,,,-0.076930542,-0.406145209,0,0,0,,0,142,142,80,1,PLANET,LB,old,m,./images/PLANETLB.png,,,,,,,,,,,,,,,,,,,,,,,,,,,,,,,,,,,
,,,,,,,,,,,,,,,,,5c6f2e7632cb70000169b490,45,2022-02-12_18h07.37.482,lexical_decision_task_DD_L4,2021.2.3,Linux x86_64,59.99880002,,,,,,,,,,,0.4735,1,,,,,,,,,,,,,,m,1,0.4735,,,,,,,,-0.076930542,-0.406145209,0,0,0,,0,143,143,0,1,WALNUT,C,old,m,./images/WALNUT.png,,,,,,,,,,,,,,,,,,,,,,,,,,,,,,,,,,,
,,,,,,,,,,,,,,,,,5c6f2e7632cb70000169b490,45,2022-02-12_18h07.37.482,lexical_decision_task_DD_L4,2021.2.3,Linux x86_64,59.99880002,,,,,,,,,,,0.5687,1,,,,,,,,,,,,,,z,1,0.5687,,,,,,,,-0.076930542,-0.406145209,0,0,0,,0,144,144,150,1,NOOLS,C,old,z,./images/NOOLS.png,,,,,,,,,,,,,,,,,,,,,,,,,,,,,,,,,,,
,,,,,,,,,,,,,,,,,5c6f2e7632cb70000169b490,45,2022-02-12_18h07.37.482,lexical_decision_task_DD_L4,2021.2.3,Linux x86_64,59.99880002,,,,,,,,,,,0.4585,1,,,,,,,,,,,,,,m,1,0.4585,,,,,,,,-0.076930542,-0.406145209,0,0,0,,0,145,145,41,1,STREAM,LB,old,m,./images/STREAMLB.png,,,,,,,,,,,,,,,,,,,,,,,,,,,,,,,,,,,
,,,,,,,,,,,,,,,,,5c6f2e7632cb70000169b490,45,2022-02-12_18h07.37.482,lexical_decision_task_DD_L4,2021.2.3,Linux x86_64,59.99880002,,,,,,,,,,,0.6156,1,,,,,,,,,,,,,,m,1,0.6156,,,,,,,,-0.076930542,-0.406145209,0,0,0,,0,146,146,20,1,GRANNY,LB,old,m,./images/GRANNYLB.png,,,,,,,,,,,,,,,,,,,,,,,,,,,,,,,,,,,
,,,,,,,,,,,,,,,,,5c6f2e7632cb70000169b490,45,2022-02-12_18h07.37.482,lexical_decision_task_DD_L4,2021.2.3,Linux x86_64,59.99880002,,,,,,,,,,,0.674,1,,,,,,,,,,,,,,z,1,0.674,,,,,,,,-0.076930542,-0.406145209,0,0,0,,0,147,147,134,1,TROSS,LB,old,z,./images/TROSSLB.png,,,,,,,,,,,,,,,,,,,,,,,,,,,,,,,,,,,
,,,,,,,,,,,,,,,,,5c6f2e7632cb70000169b490,45,2022-02-12_18h07.37.482,lexical_decision_task_DD_L4,2021.2.3,Linux x86_64,59.99880002,,,,,,,,,,,0.5342,1,,,,,,,,,,,,,,m,1,0.5342,,,,,,,,-0.076930542,-0.406145209,0,0,0,,0,148,148,79,1,RULER,HB,old,m,./images/RULERHB.png,,,,,,,,,,,,,,,,,,,,,,,,,,,,,,,,,,,
,,,,,,,,,,,,,,,,,5c6f2e7632cb70000169b490,45,2022-02-12_18h07.37.482,lexical_decision_task_DD_L4,2021.2.3,Linux x86_64,59.99880002,,,,,,,,,,,0.4971,1,,,,,,,,,,,,,,m,1,0.4971,,,,,,,,-0.076930542,-0.406145209,0,0,0,,0,149,149,74,1,JUMPER,LB,old,m,./images/JUMPERLB.png,,,,,,,,,,,,,,,,,,,,,,,,,,,,,,,,,,,
,,,,,,,,,,,,,,,,,5c6f2e7632cb70000169b490,45,2022-02-12_18h07.37.482,lexical_decision_task_DD_L4,2021.2.3,Linux x86_64,59.99880002,,,,,,,,,,,1.0022,1,,,,,,,,,,,,,,z,1,1.0022,,,,,,,,-0.076930542,-0.406145209,0,0,0,,0,150,150,86,1,AIFED,LB,old,z,./images/AIFEDLB.png,,,,,,,,,,,,,,,,,,,,,,,,,,,,,,,,,,,
,,,,,,,,,,,,,,,,,5c6f2e7632cb70000169b490,45,2022-02-12_18h07.37.482,lexical_decision_task_DD_L4,2021.2.3,Linux x86_64,59.99880002,,,,,,,,,,,0.6521,1,,,,,,,,,,,,,,m,1,0.6521,,,,,,,,-0.076930542,-0.406145209,0,0,0,,0,151,151,58,1,CANOE,HB,old,m,./images/CANOEHB.png,,,,,,,,,,,,,,,,,,,,,,,,,,,,,,,,,,,
,,,,,,,,,,,,,,,,,5c6f2e7632cb70000169b490,45,2022-02-12_18h07.37.482,lexical_decision_task_DD_L4,2021.2.3,Linux x86_64,59.99880002,,,,,,,,,,,0.9534,1,,,,,,,,,,,,,,z,1,0.9534,,,,,,,,-0.076930542,-0.406145209,0,0,0,,0,152,152,106,1,CLUMS,HB,old,z,./images/CLUMSHB.png,,,,,,,,,,,,,,,,,,,,,,,,,,,,,,,,,,,
,,,,,,,,,,,,,,,,,5c6f2e7632cb70000169b490,45,2022-02-12_18h07.37.482,lexical_decision_task_DD_L4,2021.2.3,Linux x86_64,59.99880002,,,,,,,,,,,0.5586,1,,,,,,,,,,,,,,m,1,0.5586,,,,,,,,-0.076930542,-0.406145209,0,0,0,,0,153,153,52,1,DESERT,HB,old,m,./images/DESERTHB.png,,,,,,,,,,,,,,,,,,,,,,,,,,,,,,,,,,,
,,,,,,,,,,,,,,,,,5c6f2e7632cb70000169b490,45,2022-02-12_18h07.37.482,lexical_decision_task_DD_L4,2021.2.3,Linux x86_64,59.99880002,,,,,,,,,,,0.6374,1,,,,,,,,,,,,,,z,1,0.6374,,,,,,,,-0.076930542,-0.406145209,0,0,0,,0,154,154,93,1,SMONE,C,old,z,./images/SMONE.png,,,,,,,,,,,,,,,,,,,,,,,,,,,,,,,,,,,
,,,,,,,,,,,,,,,,,5c6f2e7632cb70000169b490,45,2022-02-12_18h07.37.482,lexical_decision_task_DD_L4,2021.2.3,Linux x86_64,59.99880002,,,,,,,,,,,0.5211,1,,,,,,,,,,,,,,z,1,0.5211,,,,,,,,-0.076930542,-0.406145209,0,0,0,,0,155,155,99,1,BACKY,C,old,z,./images/BACKY.png,,,,,,,,,,,,,,,,,,,,,,,,,,,,,,,,,,,
,,,,,,,,,,,,,,,,,5c6f2e7632cb70000169b490,45,2022-02-12_18h07.37.482,lexical_decision_task_DD_L4,2021.2.3,Linux x86_64,59.99880002,,,,,,,,,,,0.5665,1,,,,,,,,,,,,,,z,1,0.5665,,,,,,,,-0.076930542,-0.406145209,0,0,0,,0,156,156,135,1,JOODY,C,old,z,./images/JOODY.png,,,,,,,,,,,,,,,,,,,,,,,,,,,,,,,,,,,
,,,,,,,,,,,,,,,,,5c6f2e7632cb70000169b490,45,2022-02-12_18h07.37.482,lexical_decision_task_DD_L4,2021.2.3,Linux x86_64,59.99880002,,,,,,,,,,,0.5838,1,,,,,,,,,,,,,,z,1,0.5838,,,,,,,,-0.076930542,-0.406145209,0,0,0,,0,157,157,149,1,VEASE,LB,old,z,./images/VEASELB.png,,,,,,,,,,,,,,,,,,,,,,,,,,,,,,,,,,,
,,,,,,,,,,,,,,,,,5c6f2e7632cb70000169b490,45,2022-02-12_18h07.37.482,lexical_decision_task_DD_L4,2021.2.3,Linux x86_64,59.99880002,,,,,,,,,,,0.7417,1,,,,,,,,,,,,,,m,1,0.7417,,,,,,,,-0.076930542,-0.406145209,0,0,0,,0,158,158,24,1,FLESH,C,old,m,./images/FLESH.png,,,,,,,,,,,,,,,,,,,,,,,,,,,,,,,,,,,
,,,,,,,,,,,,,,,,,5c6f2e7632cb70000169b490,45,2022-02-12_18h07.37.482,lexical_decision_task_DD_L4,2021.2.3,Linux x86_64,59.99880002,,,,,,,,,,,0.5352,1,,,,,,,,,,,,,,m,1,0.5352,,,,,,,,-0.076930542,-0.406145209,0,0,0,,0,159,159,32,1,HOCKEY,LB,old,m,./images/HOCKEYLB.png,,,,,,,,,,,,,,,,,,,,,,,,,,,,,,,,,,,
,,,,,,,,,,,,,,,,,5c6f2e7632cb70000169b490,45,2022-02-12_18h07.37.482,lexical_decision_task_DD_L4,2021.2.3,Linux x86_64,59.99880002,,,,,,,,,,,0.5623,1,,,,,,,,,,,,,,z,1,0.5623,,,,,,,,-0.076930542,-0.406145209,0,0,0,,0,160,160,129,1,PRANS,C,old,z,./images/PRANS.png,,,,,,,,,,,,,,,,,,,,,,,,,,,,,,,,,,,
,,,,,,,,,,,,,,,,,5c6f2e7632cb70000169b490,45,2022-02-12_18h07.37.482,lexical_decision_task_DD_L4,2021.2.3,Linux x86_64,59.99880002,,,,,,,,,,,0.4559,1,,,,,,,,,,,,,,m,1,0.4559,,,,,,,,-0.076930542,-0.406145209,0,0,0,,0,161,161,81,1,DRILL,C,old,m,./images/DRILL.png,,,,,,,,,,,,,,,,,,,,,,,,,,,,,,,,,,,
,,,,,,,,,,,,,,,,,5c6f2e7632cb70000169b490,45,2022-02-12_18h07.37.482,lexical_decision_task_DD_L4,2021.2.3,Linux x86_64,59.99880002,,,,,,,,,,,0.6018,1,,,,,,,,,,,,,,m,1,0.6018,,,,,,,,-0.076930542,-0.406145209,0,0,0,,0,162,162,11,1,MEDAL,LB,old,m,./images/MEDALLB.png,,,,,,,,,,,,,,,,,,,,,,,,,,,,,,,,,,,
,,,,,,,,,,,,,,,,,5c6f2e7632cb70000169b490,45,2022-02-12_18h07.37.482,lexical_decision_task_DD_L4,2021.2.3,Linux x86_64,59.99880002,,,,,,,,,,,0.6715,1,,,,,,,,,,,,,,z,1,0.6715,,,,,,,,-0.076930542,-0.406145209,0,0,0,,0,163,163,122,1,BLOOT,LB,old,z,./images/BLOOTLB.png,,,,,,,,,,,,,,,,,,,,,,,,,,,,,,,,,,,
,,,,,,,,,,,,,,,,,5c6f2e7632cb70000169b490,45,2022-02-12_18h07.37.482,lexical_decision_task_DD_L4,2021.2.3,Linux x86_64,59.99880002,,,,,,,,,,,0.4497,1,,,,,,,,,,,,,,m,1,0.4497,,,,,,,,-0.076930542,-0.406145209,0,0,0,,0,164,164,50,1,PILOT,LB,old,m,./images/PILOTLB.png,,,,,,,,,,,,,,,,,,,,,,,,,,,,,,,,,,,
,,,,,,,,,,,,,,,,,5c6f2e7632cb70000169b490,45,2022-02-12_18h07.37.482,lexical_decision_task_DD_L4,2021.2.3,Linux x86_64,59.99880002,,,,,,,,,,,0.5882,1,,,,,,,,,,,,,,m,1,0.5882,,,,,,,,-0.076930542,-0.406145209,0,0,0,,0,165,165,31,1,STEAK,HB,old,m,./images/STEAKHB.png,,,,,,,,,,,,,,,,,,,,,,,,,,,,,,,,,,,
,,,,,,,,,,,,,,,,,5c6f2e7632cb70000169b490,45,2022-02-12_18h07.37.482,lexical_decision_task_DD_L4,2021.2.3,Linux x86_64,59.99880002,,,,,,,,,,,0.7195,1,,,,,,,,,,,,,,z,1,0.7195,,,,,,,,-0.076930542,-0.406145209,0,0,0,,0,166,166,115,1,MAWNS,HB,old,z,./images/MAWNSHB.png,,,,,,,,,,,,,,,,,,,,,,,,,,,,,,,,,,,
,,,,,,,,,,,,,,,,,5c6f2e7632cb70000169b490,45,2022-02-12_18h07.37.482,lexical_decision_task_DD_L4,2021.2.3,Linux x86_64,59.99880002,,,,,,,,,,,0.5063,1,,,,,,,,,,,,,,m,1,0.5063,,,,,,,,-0.076930542,-0.406145209,0,0,0,,0,167,167,10,1,GARDEN,HB,old,m,./images/GARDENHB.png,,,,,,,,,,,,,,,,,,,,,,,,,,,,,,,,,,,
,,,,,,,,,,,,,,,,,5c6f2e7632cb70000169b490,45,2022-02-12_18h07.37.482,lexical_decision_task_DD_L4,2021.2.3,Linux x86_64,59.99880002,,,,,,,,,,,,,,,,,,,,,,,,,,,,,,,,,,,,,,,,,,,,,,,,How likely will it be that you will recognize the words presented slighly blurred on a scale of 0 (not likely) to 100 (most likely)?,,,,,-0.017604717,-0.433285621,1,0,0,jol_adv,4,9.5216,0,0,0,1,1,,,,,,,,,,,,,,,,,,,,,
,,,,,,,,,,,,,,,,,5c6f2e7632cb70000169b490,45,2022-02-12_18h07.37.482,lexical_decision_task_DD_L4,2021.2.3,Linux x86_64,59.99880002,,,,,,,,,,,,,,,,,,,,,,,,,,,,,,,,,,,,,,,,,,,,,,,,How likely will it be that you will recognize the words presented very blurred on a scale of 0 (not likely) to 100 (most likely)?,,,,,,,,,,,2,5.6065,0,1,1,2,1,,,,,,,,,,,,,,,,,,,,,
,,,,,,,,,,,,,,,,,5c6f2e7632cb70000169b490,45,2022-02-12_18h07.37.482,lexical_decision_task_DD_L4,2021.2.3,Linux x86_64,59.99880002,,,,,,,,,,,,,,,,,,,,,,,,,,,,,,,,,,,,,,,,,,,,,,,,How likely will it be that you will recognize the words presented clearly on a scale of 0 (not likely) to 100 (most likely)?,,,,,,,,,,,6,5.1313,0,2,2,0,1,,,,,,,,,,,,,,,,,,,,,
,0.043438233,-0.393778295,1,0,0,instr_done_button,,,,,,1,test,"In the next phase you will be presented with the words from the the first phase. Your job is to decide whether you remember seeing the word or not. If you remember seeing the word press ""old"" or type ""m"". If you do not remember seeing the word press ""new"" or type ""z"". Please press the space bar or click on continue to begin. ",,,5c6f2e7632cb70000169b490,45,2022-02-12_18h07.37.482,lexical_decision_task_DD_L4,2021.2.3,Linux x86_64,59.99880002,,,,,,,,,,,,,,,,,,,,,,,,,,,,,,,,,,,,,,,,,,,,,,,,,,,,,,,,,,,,,,,,,,0,0,0,0,1,,,,,,,,,,,,,,,,
,0.010418506,-0.400783545,1,0,0,instr_done_button,,,,,,1,test,"In the next phase you will be presented with the words from the the first phase. Your job is to decide whether you remember seeing the word or not. If you remember seeing the word press ""old"" or type ""m"". If you do not remember seeing the word press ""new"" or type ""z"". Please press the space bar or click on continue to begin. ",,,5c6f2e7632cb70000169b490,45,2022-02-12_18h07.37.482,lexical_decision_task_DD_L4,2021.2.3,Linux x86_64,59.99880002,,,,,,,,,,,,,,,,,,,,,,,,,,,,,,,,,,,,,,,,,,,,,,,,,,,,,,,,,,,,,,,,,,1,0,1,0,1,,,,,,,,,,,,,,,,
,-0.037886247,-0.403931025,1,0,0,instr_done_button,,,,,,1,test,"In the next phase you will be presented with the words from the the first phase. Your job is to decide whether you remember seeing the word or not. If you remember seeing the word press ""old"" or type ""m"". If you do not remember seeing the word press ""new"" or type ""z"". Please press the space bar or click on continue to begin. ",,,5c6f2e7632cb70000169b490,45,2022-02-12_18h07.37.482,lexical_decision_task_DD_L4,2021.2.3,Linux x86_64,59.99880002,,,,,,,,,,,,,,,,,,,,,,,,,,,,,,,,,,,,,,,,,,,,,,,,,,,,,,,,,,,,,,,,,,2,0,2,0,1,,,,,,,,,,,,,,,,
space,-0.062897782,-0.271712827,0,0,0,,,,,,,1,test,"In the next phase you will be presented with the words from the the first phase. Your job is to decide whether you remember seeing the word or not. If you remember seeing the word press ""old"" or type ""m"". If you do not remember seeing the word press ""new"" or type ""z"". Please press the space bar or click on continue to begin. ",,,5c6f2e7632cb70000169b490,45,2022-02-12_18h07.37.482,lexical_decision_task_DD_L4,2021.2.3,Linux x86_64,59.99880002,,,,,,,,,,,,,,,,,,,,,,,,,,,,,,,,,,,,,,,,,,,,,,,,,,,,,,,,,,,,,,,,,,3,0,3,0,1,2.2613,,,,,,,,,,,,,,,
space,-0.062897782,-0.271712827,0,0,0,,,,,,,1,test,"In the next phase you will be presented with the words from the the first phase. Your job is to decide whether you remember seeing the word or not. If you remember seeing the word press ""old"" or type ""m"". If you do not remember seeing the word press ""new"" or type ""z"". Please press the space bar or click on continue to begin. ",,,5c6f2e7632cb70000169b490,45,2022-02-12_18h07.37.482,lexical_decision_task_DD_L4,2021.2.3,Linux x86_64,59.99880002,,,,,,,,,,,,,,,,,,,,,,,,,,,,,,,,,,,,,,,,,,,,,,,,,,,,,,,,,,,,,,,,,,4,0,4,0,1,11.885,,,,,,,,,,,,,,,
,,,,,,,,,,,,,,,,,5c6f2e7632cb70000169b490,45,2022-02-12_18h07.37.482,lexical_decision_task_DD_L4,2021.2.3,Linux x86_64,59.99880002,,,,,,,,,,,4.6989,1,,,,,,,,,,,,,,,,,,,,,,,,-0.062897782,-0.271712827,0,0,0,,,,,,,SAILOR,HB,z,y,./images/SAILORHB.png,,,,,,,,,,,,,,,,,,,,,z,1,4.6989,,,,,,,,0,0,0,151,1
,,,,,,,,,,,,,,,,,5c6f2e7632cb70000169b490,45,2022-02-12_18h07.37.482,lexical_decision_task_DD_L4,2021.2.3,Linux x86_64,59.99880002,,,,,,,,,,,2.0602,1,,,,,,,,,,,,,,,,,,,,,,,,-0.062897782,-0.271712827,0,0,0,,,,,,,BANANA,HB,m,y,./images/BANANAHB.png,,,,,,,,,,,,,,,,,,,,,m,1,2.0602,,,,,,,,0,1,1,70,1
,,,,,,,,,,,,,,,,,5c6f2e7632cb70000169b490,45,2022-02-12_18h07.37.482,lexical_decision_task_DD_L4,2021.2.3,Linux x86_64,59.99880002,,,,,,,,,,,1.0637,0,,,,,,,,,,,,,,,,,,,,,,,,-0.062897782,-0.271712827,0,0,0,,,,,,,CARPET,LB,z,y,./images/CARPETLB.png,,,,,,,,,,,,,,,,,,,,,m,0,1.0637,,,,,,,,0,2,2,137,1
,,,,,,,,,,,,,,,,,5c6f2e7632cb70000169b490,45,2022-02-12_18h07.37.482,lexical_decision_task_DD_L4,2021.2.3,Linux x86_64,59.99880002,,,,,,,,,,,0.7935,0,,,,,,,,,,,,,,,,,,,,,,,,-0.062897782,-0.271712827,0,0,0,,,,,,,SHORE,C,z,y,./images/SHORE.png,,,,,,,,,,,,,,,,,,,,,m,0,0.7935,,,,,,,,0,3,3,96,1
,,,,,,,,,,,,,,,,,5c6f2e7632cb70000169b490,45,2022-02-12_18h07.37.482,lexical_decision_task_DD_L4,2021.2.3,Linux x86_64,59.99880002,,,,,,,,,,,0.877,1,,,,,,,,,,,,,,,,,,,,,,,,-0.062897782,-0.271712827,0,0,0,,,,,,,SHIELD,C,m,y,./images/SHIELD.png,,,,,,,,,,,,,,,,,,,,,m,1,0.877,,,,,,,,0,4,4,48,1
,,,,,,,,,,,,,,,,,5c6f2e7632cb70000169b490,45,2022-02-12_18h07.37.482,lexical_decision_task_DD_L4,2021.2.3,Linux x86_64,59.99880002,,,,,,,,,,,1.1793,1,,,,,,,,,,,,,,,,,,,,,,,,-0.062897782,-0.271712827,0,0,0,,,,,,,FALCON,HB,z,y,./images/FALCONHB.png,,,,,,,,,,,,,,,,,,,,,z,1,1.1793,,,,,,,,0,5,5,112,1
,,,,,,,,,,,,,,,,,5c6f2e7632cb70000169b490,45,2022-02-12_18h07.37.482,lexical_decision_task_DD_L4,2021.2.3,Linux x86_64,59.99880002,,,,,,,,,,,1.0188,1,,,,,,,,,,,,,,,,,,,,,,,,-0.062897782,-0.271712827,0,0,0,,,,,,,CURRY,C,m,y,./images/CURRY.png,,,,,,,,,,,,,,,,,,,,,m,1,1.0188,,,,,,,,0,6,6,60,1
,,,,,,,,,,,,,,,,,5c6f2e7632cb70000169b490,45,2022-02-12_18h07.37.482,lexical_decision_task_DD_L4,2021.2.3,Linux x86_64,59.99880002,,,,,,,,,,,0.896,1,,,,,,,,,,,,,,,,,,,,,,,,-0.062897782,-0.271712827,0,0,0,,,,,,,DONKEY,HB,m,y,./images/DONKEYHB.png,,,,,,,,,,,,,,,,,,,,,m,1,0.896,,,,,,,,0,7,7,19,1
,,,,,,,,,,,,,,,,,5c6f2e7632cb70000169b490,45,2022-02-12_18h07.37.482,lexical_decision_task_DD_L4,2021.2.3,Linux x86_64,59.99880002,,,,,,,,,,,1.6397,1,,,,,,,,,,,,,,,,,,,,,,,,-0.062897782,-0.271712827,0,0,0,,,,,,,LITTER,C,z,y,./images/LITTER.png,,,,,,,,,,,,,,,,,,,,,z,1,1.6397,,,,,,,,0,8,8,162,1
,,,,,,,,,,,,,,,,,5c6f2e7632cb70000169b490,45,2022-02-12_18h07.37.482,lexical_decision_task_DD_L4,2021.2.3,Linux x86_64,59.99880002,,,,,,,,,,,1.3186,1,,,,,,,,,,,,,,,,,,,,,,,,-0.062897782,-0.271712827,0,0,0,,,,,,,WALNUT,C,m,y,./images/WALNUT.png,,,,,,,,,,,,,,,,,,,,,m,1,1.3186,,,,,,,,0,9,9,0,1
,,,,,,,,,,,,,,,,,5c6f2e7632cb70000169b490,45,2022-02-12_18h07.37.482,lexical_decision_task_DD_L4,2021.2.3,Linux x86_64,59.99880002,,,,,,,,,,,0.514,1,,,,,,,,,,,,,,,,,,,,,,,,-0.062897782,-0.271712827,0,0,0,,,,,,,BUNNY,HB,m,y,./images/BUNNYHB.png,,,,,,,,,,,,,,,,,,,,,m,1,0.514,,,,,,,,0,10,10,13,1
,,,,,,,,,,,,,,,,,5c6f2e7632cb70000169b490,45,2022-02-12_18h07.37.482,lexical_decision_task_DD_L4,2021.2.3,Linux x86_64,59.99880002,,,,,,,,,,,0.5414,1,,,,,,,,,,,,,,,,,,,,,,,,-0.062897782,-0.271712827,0,0,0,,,,,,,CASINO,HB,m,y,./images/CASINOHB.png,,,,,,,,,,,,,,,,,,,,,m,1,0.5414,,,,,,,,0,11,11,28,1
,,,,,,,,,,,,,,,,,5c6f2e7632cb70000169b490,45,2022-02-12_18h07.37.482,lexical_decision_task_DD_L4,2021.2.3,Linux x86_64,59.99880002,,,,,,,,,,,0.9326,1,,,,,,,,,,,,,,,,,,,,,,,,-0.062897782,-0.271712827,0,0,0,,,,,,,TWINS,C,z,y,./images/TWINS.png,,,,,,,,,,,,,,,,,,,,,z,1,0.9326,,,,,,,,0,12,12,144,1
,,,,,,,,,,,,,,,,,5c6f2e7632cb70000169b490,45,2022-02-12_18h07.37.482,lexical_decision_task_DD_L4,2021.2.3,Linux x86_64,59.99880002,,,,,,,,,,,0.9794,1,,,,,,,,,,,,,,,,,,,,,,,,-0.062897782,-0.271712827,0,0,0,,,,,,,BASKET,LB,m,y,./images/BASKETLB.png,,,,,,,,,,,,,,,,,,,,,m,1,0.9794,,,,,,,,0,13,13,44,1
,,,,,,,,,,,,,,,,,5c6f2e7632cb70000169b490,45,2022-02-12_18h07.37.482,lexical_decision_task_DD_L4,2021.2.3,Linux x86_64,59.99880002,,,,,,,,,,,1.1618,1,,,,,,,,,,,,,,,,,,,,,,,,-0.062897782,-0.271712827,0,0,0,,,,,,,CHAIN,C,m,y,./images/CHAIN.png,,,,,,,,,,,,,,,,,,,,,m,1,1.1618,,,,,,,,0,14,14,42,1
,,,,,,,,,,,,,,,,,5c6f2e7632cb70000169b490,45,2022-02-12_18h07.37.482,lexical_decision_task_DD_L4,2021.2.3,Linux x86_64,59.99880002,,,,,,,,,,,0.6806,1,,,,,,,,,,,,,,,,,,,,,,,,-0.062897782,-0.271712827,0,0,0,,,,,,,CRATER,C,m,y,./images/CRATER.png,,,,,,,,,,,,,,,,,,,,,m,1,0.6806,,,,,,,,0,15,15,3,1
,,,,,,,,,,,,,,,,,5c6f2e7632cb70000169b490,45,2022-02-12_18h07.37.482,lexical_decision_task_DD_L4,2021.2.3,Linux x86_64,59.99880002,,,,,,,,,,,0.6334,1,,,,,,,,,,,,,,,,,,,,,,,,-0.062897782,-0.271712827,0,0,0,,,,,,,BUTTER,C,m,y,./images/BUTTER.png,,,,,,,,,,,,,,,,,,,,,m,1,0.6334,,,,,,,,0,16,16,27,1
,,,,,,,,,,,,,,,,,5c6f2e7632cb70000169b490,45,2022-02-12_18h07.37.482,lexical_decision_task_DD_L4,2021.2.3,Linux x86_64,59.99880002,,,,,,,,,,,0.6687,1,,,,,,,,,,,,,,,,,,,,,,,,-0.062897782,-0.271712827,0,0,0,,,,,,,POSTER,LB,m,y,./images/POSTERLB.png,,,,,,,,,,,,,,,,,,,,,m,1,0.6687,,,,,,,,0,17,17,53,1
,,,,,,,,,,,,,,,,,5c6f2e7632cb70000169b490,45,2022-02-12_18h07.37.482,lexical_decision_task_DD_L4,2021.2.3,Linux x86_64,59.99880002,,,,,,,,,,,0.677,1,,,,,,,,,,,,,,,,,,,,,,,,-0.062897782,-0.271712827,0,0,0,,,,,,,GRANNY,LB,m,y,./images/GRANNYLB.png,,,,,,,,,,,,,,,,,,,,,m,1,0.677,,,,,,,,0,18,18,20,1
,,,,,,,,,,,,,,,,,5c6f2e7632cb70000169b490,45,2022-02-12_18h07.37.482,lexical_decision_task_DD_L4,2021.2.3,Linux x86_64,59.99880002,,,,,,,,,,,1.053,0,,,,,,,,,,,,,,,,,,,,,,,,-0.062897782,-0.271712827,0,0,0,,,,,,,CLOWN,HB,m,y,./images/CLOWNHB.png,,,,,,,,,,,,,,,,,,,,,z,0,1.053,,,,,,,,0,19,19,22,1
,,,,,,,,,,,,,,,,,5c6f2e7632cb70000169b490,45,2022-02-12_18h07.37.482,lexical_decision_task_DD_L4,2021.2.3,Linux x86_64,59.99880002,,,,,,,,,,,1.3279,1,,,,,,,,,,,,,,,,,,,,,,,,-0.062897782,-0.271712827,0,0,0,,,,,,,HAMMER,C,m,y,./images/HAMMER.png,,,,,,,,,,,,,,,,,,,,,m,1,1.3279,,,,,,,,0,20,20,75,1
,,,,,,,,,,,,,,,,,5c6f2e7632cb70000169b490,45,2022-02-12_18h07.37.482,lexical_decision_task_DD_L4,2021.2.3,Linux x86_64,59.99880002,,,,,,,,,,,1.0714,1,,,,,,,,,,,,,,,,,,,,,,,,-0.062897782,-0.271712827,0,0,0,,,,,,,TULIP,LB,z,y,./images/TULIPLB.png,,,,,,,,,,,,,,,,,,,,,z,1,1.0714,,,,,,,,0,21,21,92,1
,,,,,,,,,,,,,,,,,5c6f2e7632cb70000169b490,45,2022-02-12_18h07.37.482,lexical_decision_task_DD_L4,2021.2.3,Linux x86_64,59.99880002,,,,,,,,,,,1.0038,1,,,,,,,,,,,,,,,,,,,,,,,,-0.065945963,-0.27798028,0,0,0,,,,,,,DRILL,C,m,y,./images/DRILL.png,,,,,,,,,,,,,,,,,,,,,m,1,1.0038,,,,,,,,0,22,22,81,1
,,,,,,,,,,,,,,,,,5c6f2e7632cb70000169b490,45,2022-02-12_18h07.37.482,lexical_decision_task_DD_L4,2021.2.3,Linux x86_64,59.99880002,,,,,,,,,,,1.0686,1,,,,,,,,,,,,,,,,,,,,,,,,-0.065945963,-0.27798028,0,0,0,,,,,,,PICKLE,LB,z,y,./images/PICKLELB.png,,,,,,,,,,,,,,,,,,,,,z,1,1.0686,,,,,,,,0,23,23,98,1
,,,,,,,,,,,,,,,,,5c6f2e7632cb70000169b490,45,2022-02-12_18h07.37.482,lexical_decision_task_DD_L4,2021.2.3,Linux x86_64,59.99880002,,,,,,,,,,,1.4458,1,,,,,,,,,,,,,,,,,,,,,,,,-0.067973551,-0.279500872,0,0,0,,,,,,,GREASE,C,z,y,./images/GREASE.png,,,,,,,,,,,,,,,,,,,,,z,1,1.4458,,,,,,,,0,24,24,99,1
,,,,,,,,,,,,,,,,,5c6f2e7632cb70000169b490,45,2022-02-12_18h07.37.482,lexical_decision_task_DD_L4,2021.2.3,Linux x86_64,59.99880002,,,,,,,,,,,0.9639,0,,,,,,,,,,,,,,,,,,,,,,,,-0.07000114,-0.282711399,0,0,0,,,,,,,PURSE,LB,z,y,./images/PURSELB.png,,,,,,,,,,,,,,,,,,,,,m,0,0.9639,,,,,,,,0,25,25,146,1
,,,,,,,,,,,,,,,,,5c6f2e7632cb70000169b490,45,2022-02-12_18h07.37.482,lexical_decision_task_DD_L4,2021.2.3,Linux x86_64,59.99880002,,,,,,,,,,,0.8615,1,,,,,,,,,,,,,,,,,,,,,,,,-0.07000114,-0.282711399,0,0,0,,,,,,,SPORT,C,z,y,./images/SPORT.png,,,,,,,,,,,,,,,,,,,,,z,1,0.8615,,,,,,,,0,26,26,132,1
,,,,,,,,,,,,,,,,,5c6f2e7632cb70000169b490,45,2022-02-12_18h07.37.482,lexical_decision_task_DD_L4,2021.2.3,Linux x86_64,59.99880002,,,,,,,,,,,1.1632,1,,,,,,,,,,,,,,,,,,,,,,,,-0.07000114,-0.282711399,0,0,0,,,,,,,INFANT,HB,z,y,./images/INFANTHB.png,,,,,,,,,,,,,,,,,,,,,z,1,1.1632,,,,,,,,0,27,27,160,1
,,,,,,,,,,,,,,,,,5c6f2e7632cb70000169b490,45,2022-02-12_18h07.37.482,lexical_decision_task_DD_L4,2021.2.3,Linux x86_64,59.99880002,,,,,,,,,,,1.0969,1,,,,,,,,,,,,,,,,,,,,,,,,-0.07000114,-0.282711399,0,0,0,,,,,,,PARADE,LB,m,y,./images/PARADELB.png,,,,,,,,,,,,,,,,,,,,,m,1,1.0969,,,,,,,,0,28,28,17,1
,,,,,,,,,,,,,,,,,5c6f2e7632cb70000169b490,45,2022-02-12_18h07.37.482,lexical_decision_task_DD_L4,2021.2.3,Linux x86_64,59.99880002,,,,,,,,,,,0.9348,1,,,,,,,,,,,,,,,,,,,,,,,,-0.07000114,-0.282711399,0,0,0,,,,,,,HOCKEY,LB,m,y,./images/HOCKEYLB.png,,,,,,,,,,,,,,,,,,,,,m,1,0.9348,,,,,,,,0,29,29,32,1
,,,,,,,,,,,,,,,,,5c6f2e7632cb70000169b490,45,2022-02-12_18h07.37.482,lexical_decision_task_DD_L4,2021.2.3,Linux x86_64,59.99880002,,,,,,,,,,,0.8778,1,,,,,,,,,,,,,,,,,,,,,,,,-0.07000114,-0.282711399,0,0,0,,,,,,,CRUST,HB,z,y,./images/CRUSTHB.png,,,,,,,,,,,,,,,,,,,,,z,1,0.8778,,,,,,,,0,30,30,163,1
,,,,,,,,,,,,,,,,,5c6f2e7632cb70000169b490,45,2022-02-12_18h07.37.482,lexical_decision_task_DD_L4,2021.2.3,Linux x86_64,59.99880002,,,,,,,,,,,1.0604,0,,,,,,,,,,,,,,,,,,,,,,,,-0.066041844,-0.284892271,0,0,0,,,,,,,STAIN,C,m,y,./images/STAIN.png,,,,,,,,,,,,,,,,,,,,,z,0,1.0604,,,,,,,,0,31,31,6,1
,,,,,,,,,,,,,,,,,5c6f2e7632cb70000169b490,45,2022-02-12_18h07.37.482,lexical_decision_task_DD_L4,2021.2.3,Linux x86_64,59.99880002,,,,,,,,,,,1.1961,1,,,,,,,,,,,,,,,,,,,,,,,,-0.066041844,-0.284892271,0,0,0,,,,,,,ALLEY,HB,m,y,./images/ALLEYHB.png,,,,,,,,,,,,,,,,,,,,,m,1,1.1961,,,,,,,,0,32,32,55,1
,,,,,,,,,,,,,,,,,5c6f2e7632cb70000169b490,45,2022-02-12_18h07.37.482,lexical_decision_task_DD_L4,2021.2.3,Linux x86_64,59.99880002,,,,,,,,,,,0.9415,0,,,,,,,,,,,,,,,,,,,,,,,,-0.066041844,-0.284892271,0,0,0,,,,,,,BARREL,LB,z,y,./images/BARRELLB.png,,,,,,,,,,,,,,,,,,,,,m,0,0.9415,,,,,,,,0,33,33,116,1
,,,,,,,,,,,,,,,,,5c6f2e7632cb70000169b490,45,2022-02-12_18h07.37.482,lexical_decision_task_DD_L4,2021.2.3,Linux x86_64,59.99880002,,,,,,,,,,,1.0163,0,,,,,,,,,,,,,,,,,,,,,,,,-0.066041844,-0.284892271,0,0,0,,,,,,,JUNGLE,LB,z,y,./images/JUNGLELB.png,,,,,,,,,,,,,,,,,,,,,m,0,1.0163,,,,,,,,0,34,34,167,1
,,,,,,,,,,,,,,,,,5c6f2e7632cb70000169b490,45,2022-02-12_18h07.37.482,lexical_decision_task_DD_L4,2021.2.3,Linux x86_64,59.99880002,,,,,,,,,,,0.8033,1,,,,,,,,,,,,,,,,,,,,,,,,-0.066041844,-0.284892271,0,0,0,,,,,,,KITTEN,C,z,y,./images/KITTEN.png,,,,,,,,,,,,,,,,,,,,,z,1,0.8033,,,,,,,,0,35,35,129,1
,,,,,,,,,,,,,,,,,5c6f2e7632cb70000169b490,45,2022-02-12_18h07.37.482,lexical_decision_task_DD_L4,2021.2.3,Linux x86_64,59.99880002,,,,,,,,,,,1.1445,0,,,,,,,,,,,,,,,,,,,,,,,,-0.066041844,-0.284892271,0,0,0,,,,,,,COUCH,LB,z,y,./images/COUCHLB.png,,,,,,,,,,,,,,,,,,,,,m,0,1.1445,,,,,,,,0,36,36,161,1
,,,,,,,,,,,,,,,,,5c6f2e7632cb70000169b490,45,2022-02-12_18h07.37.482,lexical_decision_task_DD_L4,2021.2.3,Linux x86_64,59.99880002,,,,,,,,,,,0.9145,1,,,,,,,,,,,,,,,,,,,,,,,,-0.066041844,-0.284892271,0,0,0,,,,,,,TORCH,LB,z,y,./images/TORCHLB.png,,,,,,,,,,,,,,,,,,,,,z,1,0.9145,,,,,,,,0,37,37,152,1
,,,,,,,,,,,,,,,,,5c6f2e7632cb70000169b490,45,2022-02-12_18h07.37.482,lexical_decision_task_DD_L4,2021.2.3,Linux x86_64,59.99880002,,,,,,,,,,,1.5604,0,,,,,,,,,,,,,,,,,,,,,,,,-0.068069433,-0.2845543,0,0,0,,,,,,,JUMPER,LB,m,y,./images/JUMPERLB.png,,,,,,,,,,,,,,,,,,,,,z,0,1.5604,,,,,,,,0,38,38,74,1
,,,,,,,,,,,,,,,,,5c6f2e7632cb70000169b490,45,2022-02-12_18h07.37.482,lexical_decision_task_DD_L4,2021.2.3,Linux x86_64,59.99880002,,,,,,,,,,,1.2621,1,,,,,,,,,,,,,,,,,,,,,,,,-0.065178511,-0.287445301,0,0,0,,,,,,,JELLY,HB,z,y,./images/JELLYHB.png,,,,,,,,,,,,,,,,,,,,,z,1,1.2621,,,,,,,,0,39,39,148,1
,,,,,,,,,,,,,,,,,5c6f2e7632cb70000169b490,45,2022-02-12_18h07.37.482,lexical_decision_task_DD_L4,2021.2.3,Linux x86_64,59.99880002,,,,,,,,,,,1.1145,1,,,,,,,,,,,,,,,,,,,,,,,,-0.058348409,-0.295000161,0,0,0,,,,,,,PEACH,LB,z,y,./images/PEACHLB.png,,,,,,,,,,,,,,,,,,,,,z,1,1.1145,,,,,,,,0,40,40,119,1
,,,,,,,,,,,,,,,,,5c6f2e7632cb70000169b490,45,2022-02-12_18h07.37.482,lexical_decision_task_DD_L4,2021.2.3,Linux x86_64,59.99880002,,,,,,,,,,,0.9609,1,,,,,,,,,,,,,,,,,,,,,,,,-0.03104716,-0.398172,1,0,0,,,,,,,TIGER,HB,m,y,./images/TIGERHB.png,break_done_button,,,,,,,,,,,,,,,,,,,,m,1,0.9609,,,,,,,,0,41,41,37,1
,,,,,,,,,,,,,,,,,5c6f2e7632cb70000169b490,45,2022-02-12_18h07.37.482,lexical_decision_task_DD_L4,2021.2.3,Linux x86_64,59.99880002,,,,,,,,,,,1.1126,1,,,,,,,,,,,,,,,,,,,,,,,,-0.03104716,-0.398172,0,0,0,,,,,,,SUNSET,HB,z,y,./images/SUNSETHB.png,,,,,,,,,,,,,,,,,,,,,z,1,1.1126,,,,,,,,0,42,42,166,1
,,,,,,,,,,,,,,,,,5c6f2e7632cb70000169b490,45,2022-02-12_18h07.37.482,lexical_decision_task_DD_L4,2021.2.3,Linux x86_64,59.99880002,,,,,,,,,,,0.9996,1,,,,,,,,,,,,,,,,,,,,,,,,-0.03104716,-0.399016888,0,0,0,,,,,,,MAMMAL,LB,m,y,./images/MAMMALLB.png,,,,,,,,,,,,,,,,,,,,,m,1,0.9996,,,,,,,,0,43,43,62,1
,,,,,,,,,,,,,,,,,5c6f2e7632cb70000169b490,45,2022-02-12_18h07.37.482,lexical_decision_task_DD_L4,2021.2.3,Linux x86_64,59.99880002,,,,,,,,,,,0.9021,1,,,,,,,,,,,,,,,,,,,,,,,,-0.03104716,-0.401720578,0,0,0,,,,,,,CHALK,HB,m,y,./images/CHALKHB.png,,,,,,,,,,,,,,,,,,,,,m,1,0.9021,,,,,,,,0,44,44,25,1
,,,,,,,,,,,,,,,,,5c6f2e7632cb70000169b490,45,2022-02-12_18h07.37.482,lexical_decision_task_DD_L4,2021.2.3,Linux x86_64,59.99880002,,,,,,,,,,,0.9836,0,,,,,,,,,,,,,,,,,,,,,,,,-0.03104716,-0.401720578,0,0,0,,,,,,,BRUSH,LB,m,y,./images/BRUSHLB.png,,,,,,,,,,,,,,,,,,,,,z,0,0.9836,,,,,,,,0,45,45,59,1
,,,,,,,,,,,,,,,,,5c6f2e7632cb70000169b490,45,2022-02-12_18h07.37.482,lexical_decision_task_DD_L4,2021.2.3,Linux x86_64,59.99880002,,,,,,,,,,,0.9492,1,,,,,,,,,,,,,,,,,,,,,,,,-0.029864381,-0.403072303,0,0,0,,,,,,,BOILER,C,m,y,./images/BOILER.png,,,,,,,,,,,,,,,,,,,,,m,1,0.9492,,,,,,,,0,46,46,36,1
,,,,,,,,,,,,,,,,,5c6f2e7632cb70000169b490,45,2022-02-12_18h07.37.482,lexical_decision_task_DD_L4,2021.2.3,Linux x86_64,59.99880002,,,,,,,,,,,1.0418,1,,,,,,,,,,,,,,,,,,,,,,,,-0.029019334,-0.403748166,0,0,0,,,,,,,MOSQUE,HB,z,y,./images/MOSQUEHB.png,,,,,,,,,,,,,,,,,,,,,z,1,1.0418,,,,,,,,0,47,47,127,1
,,,,,,,,,,,,,,,,,5c6f2e7632cb70000169b490,45,2022-02-12_18h07.37.482,lexical_decision_task_DD_L4,2021.2.3,Linux x86_64,59.99880002,,,,,,,,,,,0.811,1,,,,,,,,,,,,,,,,,,,,,,,,-0.029019334,-0.403748166,0,0,0,,,,,,,BURIAL,LB,z,y,./images/BURIALLB.png,,,,,,,,,,,,,,,,,,,,,z,1,0.811,,,,,,,,0,48,48,143,1
,,,,,,,,,,,,,,,,,5c6f2e7632cb70000169b490,45,2022-02-12_18h07.37.482,lexical_decision_task_DD_L4,2021.2.3,Linux x86_64,59.99880002,,,,,,,,,,,0.7807,1,,,,,,,,,,,,,,,,,,,,,,,,-0.029019334,-0.403748166,0,0,0,,,,,,,BANNER,HB,z,y,./images/BANNERHB.png,,,,,,,,,,,,,,,,,,,,,z,1,0.7807,,,,,,,,0,49,49,136,1
,,,,,,,,,,,,,,,,,5c6f2e7632cb70000169b490,45,2022-02-12_18h07.37.482,lexical_decision_task_DD_L4,2021.2.3,Linux x86_64,59.99880002,,,,,,,,,,,0.9451,1,,,,,,,,,,,,,,,,,,,,,,,,-0.029019334,-0.403748166,0,0,0,,,,,,,CHERRY,C,m,y,./images/CHERRY.png,,,,,,,,,,,,,,,,,,,,,m,1,0.9451,,,,,,,,0,50,50,54,1
,,,,,,,,,,,,,,,,,5c6f2e7632cb70000169b490,45,2022-02-12_18h07.37.482,lexical_decision_task_DD_L4,2021.2.3,Linux x86_64,59.99880002,,,,,,,,,,,1.0044,1,,,,,,,,,,,,,,,,,,,,,,,,-0.026147175,-0.403748325,0,0,0,,,,,,,PENCE,HB,z,y,./images/PENCEHB.png,,,,,,,,,,,,,,,,,,,,,z,1,1.0044,,,,,,,,0,51,51,100,1
,,,,,,,,,,,,,,,,,5c6f2e7632cb70000169b490,45,2022-02-12_18h07.37.482,lexical_decision_task_DD_L4,2021.2.3,Linux x86_64,59.99880002,,,,,,,,,,,0.8388,0,,,,,,,,,,,,,,,,,,,,,,,,-0.026147175,-0.404086217,0,0,0,,,,,,,MOOSE,C,z,y,./images/MOOSE.png,,,,,,,,,,,,,,,,,,,,,m,0,0.8388,,,,,,,,0,52,52,141,1
,,,,,,,,,,,,,,,,,5c6f2e7632cb70000169b490,45,2022-02-12_18h07.37.482,lexical_decision_task_DD_L4,2021.2.3,Linux x86_64,59.99880002,,,,,,,,,,,0.9331,1,,,,,,,,,,,,,,,,,,,,,,,,-0.026147175,-0.404086217,0,0,0,,,,,,,LLAMA,LB,m,y,./images/LLAMALB.png,,,,,,,,,,,,,,,,,,,,,m,1,0.9331,,,,,,,,0,53,53,35,1
,,,,,,,,,,,,,,,,,5c6f2e7632cb70000169b490,45,2022-02-12_18h07.37.482,lexical_decision_task_DD_L4,2021.2.3,Linux x86_64,59.99880002,,,,,,,,,,,0.8237,1,,,,,,,,,,,,,,,,,,,,,,,,-0.026147175,-0.404086217,0,0,0,,,,,,,URINE,HB,z,y,./images/URINEHB.png,,,,,,,,,,,,,,,,,,,,,z,1,0.8237,,,,,,,,0,54,54,154,1
,,,,,,,,,,,,,,,,,5c6f2e7632cb70000169b490,45,2022-02-12_18h07.37.482,lexical_decision_task_DD_L4,2021.2.3,Linux x86_64,59.99880002,,,,,,,,,,,0.9168,1,,,,,,,,,,,,,,,,,,,,,,,,-0.026147175,-0.404086217,0,0,0,,,,,,,FOLDER,C,z,y,./images/FOLDER.png,,,,,,,,,,,,,,,,,,,,,z,1,0.9168,,,,,,,,0,55,55,126,1
,,,,,,,,,,,,,,,,,5c6f2e7632cb70000169b490,45,2022-02-12_18h07.37.482,lexical_decision_task_DD_L4,2021.2.3,Linux x86_64,59.99880002,,,,,,,,,,,0.8501,0,,,,,,,,,,,,,,,,,,,,,,,,-0.026147016,-0.405945018,0,0,0,,,,,,,CANDY,C,m,y,./images/CANDY.png,,,,,,,,,,,,,,,,,,,,,z,0,0.8501,,,,,,,,0,56,56,39,1
,,,,,,,,,,,,,,,,,5c6f2e7632cb70000169b490,45,2022-02-12_18h07.37.482,lexical_decision_task_DD_L4,2021.2.3,Linux x86_64,59.99880002,,,,,,,,,,,0.9942,0,,,,,,,,,,,,,,,,,,,,,,,,-0.0303709,-0.408141712,0,0,0,,,,,,,CEMENT,LB,z,y,./images/CEMENTLB.png,,,,,,,,,,,,,,,,,,,,,m,0,0.9942,,,,,,,,0,57,57,158,1
,,,,,,,,,,,,,,,,,5c6f2e7632cb70000169b490,45,2022-02-12_18h07.37.482,lexical_decision_task_DD_L4,2021.2.3,Linux x86_64,59.99880002,,,,,,,,,,,0.9123,1,,,,,,,,,,,,,,,,,,,,,,,,-0.0303709,-0.408141712,0,0,0,,,,,,,STOOL,HB,m,y,./images/STOOLHB.png,,,,,,,,,,,,,,,,,,,,,m,1,0.9123,,,,,,,,0,58,58,43,1
,,,,,,,,,,,,,,,,,5c6f2e7632cb70000169b490,45,2022-02-12_18h07.37.482,lexical_decision_task_DD_L4,2021.2.3,Linux x86_64,59.99880002,,,,,,,,,,,1.2608,0,,,,,,,,,,,,,,,,,,,,,,,,-0.0303709,-0.408141712,0,0,0,,,,,,,CLOUD,LB,m,y,./images/CLOUDLB.png,,,,,,,,,,,,,,,,,,,,,z,0,1.2608,,,,,,,,0,59,59,26,1
,,,,,,,,,,,,,,,,,5c6f2e7632cb70000169b490,45,2022-02-12_18h07.37.482,lexical_decision_task_DD_L4,2021.2.3,Linux x86_64,59.99880002,,,,,,,,,,,1.016,1,,,,,,,,,,,,,,,,,,,,,,,,-0.035777326,-0.409324492,0,0,0,,,,,,,MUSCLE,HB,z,y,./images/MUSCLEHB.png,,,,,,,,,,,,,,,,,,,,,z,1,1.016,,,,,,,,0,60,60,88,1
,,,,,,,,,,,,,,,,,5c6f2e7632cb70000169b490,45,2022-02-12_18h07.37.482,lexical_decision_task_DD_L4,2021.2.3,Linux x86_64,59.99880002,,,,,,,,,,,0.9764,1,,,,,,,,,,,,,,,,,,,,,,,,-0.037974019,-0.4101693,0,0,0,,,,,,,COLLAR,C,m,y,./images/COLLAR.png,,,,,,,,,,,,,,,,,,,,,m,1,0.9764,,,,,,,,0,61,61,15,1
,,,,,,,,,,,,,,,,,5c6f2e7632cb70000169b490,45,2022-02-12_18h07.37.482,lexical_decision_task_DD_L4,2021.2.3,Linux x86_64,59.99880002,,,,,,,,,,,0.8932,1,,,,,,,,,,,,,,,,,,,,,,,,-0.037974019,-0.4101693,0,0,0,,,,,,,PLANK,HB,z,y,./images/PLANKHB.png,,,,,,,,,,,,,,,,,,,,,z,1,0.8932,,,,,,,,0,62,62,85,1
,,,,,,,,,,,,,,,,,5c6f2e7632cb70000169b490,45,2022-02-12_18h07.37.482,lexical_decision_task_DD_L4,2021.2.3,Linux x86_64,59.99880002,,,,,,,,,,,0.8989,1,,,,,,,,,,,,,,,,,,,,,,,,-0.037974019,-0.4101693,0,0,0,,,,,,,PEBBLE,HB,m,y,./images/PEBBLEHB.png,,,,,,,,,,,,,,,,,,,,,m,1,0.8989,,,,,,,,0,63,63,82,1
,,,,,,,,,,,,,,,,,5c6f2e7632cb70000169b490,45,2022-02-12_18h07.37.482,lexical_decision_task_DD_L4,2021.2.3,Linux x86_64,59.99880002,,,,,,,,,,,0.7106,1,,,,,,,,,,,,,,,,,,,,,,,,-0.037974019,-0.4101693,0,0,0,,,,,,,RULER,HB,m,y,./images/RULERHB.png,,,,,,,,,,,,,,,,,,,,,m,1,0.7106,,,,,,,,0,64,64,79,1
,,,,,,,,,,,,,,,,,5c6f2e7632cb70000169b490,45,2022-02-12_18h07.37.482,lexical_decision_task_DD_L4,2021.2.3,Linux x86_64,59.99880002,,,,,,,,,,,0.8451,0,,,,,,,,,,,,,,,,,,,,,,,,-0.037974019,-0.4101693,0,0,0,,,,,,,MELON,HB,z,y,./images/MELONHB.png,,,,,,,,,,,,,,,,,,,,,m,0,0.8451,,,,,,,,0,65,65,106,1
,,,,,,,,,,,,,,,,,5c6f2e7632cb70000169b490,45,2022-02-12_18h07.37.482,lexical_decision_task_DD_L4,2021.2.3,Linux x86_64,59.99880002,,,,,,,,,,,0.6921,0,,,,,,,,,,,,,,,,,,,,,,,,-0.037974019,-0.4101693,0,0,0,,,,,,,PAINT,HB,z,y,./images/PAINTHB.png,,,,,,,,,,,,,,,,,,,,,m,0,0.6921,,,,,,,,0,66,66,91,1
,,,,,,,,,,,,,,,,,5c6f2e7632cb70000169b490,45,2022-02-12_18h07.37.482,lexical_decision_task_DD_L4,2021.2.3,Linux x86_64,59.99880002,,,,,,,,,,,0.917,1,,,,,,,,,,,,,,,,,,,,,,,,-0.037974019,-0.4101693,0,0,0,,,,,,,FINGER,C,z,y,./images/FINGER.png,,,,,,,,,,,,,,,,,,,,,z,1,0.917,,,,,,,,0,67,67,87,1
,,,,,,,,,,,,,,,,,5c6f2e7632cb70000169b490,45,2022-02-12_18h07.37.482,lexical_decision_task_DD_L4,2021.2.3,Linux x86_64,59.99880002,,,,,,,,,,,0.6146,1,,,,,,,,,,,,,,,,,,,,,,,,-0.034763969,-0.410507271,0,0,0,,,,,,,DOUGH,HB,z,y,./images/DOUGHHB.png,,,,,,,,,,,,,,,,,,,,,z,1,0.6146,,,,,,,,0,68,68,103,1
,,,,,,,,,,,,,,,,,5c6f2e7632cb70000169b490,45,2022-02-12_18h07.37.482,lexical_decision_task_DD_L4,2021.2.3,Linux x86_64,59.99880002,,,,,,,,,,,0.6417,1,,,,,,,,,,,,,,,,,,,,,,,,-0.034763969,-0.410507271,0,0,0,,,,,,,PASTA,LB,z,y,./images/PASTALB.png,,,,,,,,,,,,,,,,,,,,,z,1,0.6417,,,,,,,,0,69,69,89,1
,,,,,,,,,,,,,,,,,5c6f2e7632cb70000169b490,45,2022-02-12_18h07.37.482,lexical_decision_task_DD_L4,2021.2.3,Linux x86_64,59.99880002,,,,,,,,,,,1.1084,1,,,,,,,,,,,,,,,,,,,,,,,,-0.034763969,-0.412872831,0,0,0,,,,,,,FERRY,C,m,y,./images/FERRY.png,,,,,,,,,,,,,,,,,,,,,m,1,1.1084,,,,,,,,0,70,70,57,1
,,,,,,,,,,,,,,,,,5c6f2e7632cb70000169b490,45,2022-02-12_18h07.37.482,lexical_decision_task_DD_L4,2021.2.3,Linux x86_64,59.99880002,,,,,,,,,,,0.8304,1,,,,,,,,,,,,,,,,,,,,,,,,-0.033243138,-0.413548694,0,0,0,,,,,,,RAZOR,HB,m,y,./images/RAZORHB.png,,,,,,,,,,,,,,,,,,,,,m,1,0.8304,,,,,,,,0,71,71,34,1
,,,,,,,,,,,,,,,,,5c6f2e7632cb70000169b490,45,2022-02-12_18h07.37.482,lexical_decision_task_DD_L4,2021.2.3,Linux x86_64,59.99880002,,,,,,,,,,,0.9326,1,,,,,,,,,,,,,,,,,,,,,,,,-0.033243138,-0.413548694,0,0,0,,,,,,,MUFFIN,HB,z,y,./images/MUFFINHB.png,,,,,,,,,,,,,,,,,,,,,z,1,0.9326,,,,,,,,0,72,72,139,1
,,,,,,,,,,,,,,,,,5c6f2e7632cb70000169b490,45,2022-02-12_18h07.37.482,lexical_decision_task_DD_L4,2021.2.3,Linux x86_64,59.99880002,,,,,,,,,,,0.7458,1,,,,,,,,,,,,,,,,,,,,,,,,-0.033243138,-0.413548694,0,0,0,,,,,,,WALRUS,LB,z,y,./images/WALRUSLB.png,,,,,,,,,,,,,,,,,,,,,z,1,0.7458,,,,,,,,0,73,73,107,1
,,,,,,,,,,,,,,,,,5c6f2e7632cb70000169b490,45,2022-02-12_18h07.37.482,lexical_decision_task_DD_L4,2021.2.3,Linux x86_64,59.99880002,,,,,,,,,,,0.9297,1,,,,,,,,,,,,,,,,,,,,,,,,-0.033243138,-0.413548694,0,0,0,,,,,,,SPINE,LB,m,y,./images/SPINELB.png,,,,,,,,,,,,,,,,,,,,,m,1,0.9297,,,,,,,,0,74,74,65,1
,,,,,,,,,,,,,,,,,5c6f2e7632cb70000169b490,45,2022-02-12_18h07.37.482,lexical_decision_task_DD_L4,2021.2.3,Linux x86_64,59.99880002,,,,,,,,,,,0.9475,0,,,,,,,,,,,,,,,,,,,,,,,,-0.033243138,-0.413548694,0,0,0,,,,,,,CANDLE,HB,z,y,./images/CANDLEHB.png,,,,,,,,,,,,,,,,,,,,,m,0,0.9475,,,,,,,,0,75,75,145,1
,,,,,,,,,,,,,,,,,5c6f2e7632cb70000169b490,45,2022-02-12_18h07.37.482,lexical_decision_task_DD_L4,2021.2.3,Linux x86_64,59.99880002,,,,,,,,,,,1.0488,1,,,,,,,,,,,,,,,,,,,,,,,,-0.033243138,-0.413548694,0,0,0,,,,,,,MEDAL,LB,m,y,./images/MEDALLB.png,,,,,,,,,,,,,,,,,,,,,m,1,1.0488,,,,,,,,0,76,76,11,1
,,,,,,,,,,,,,,,,,5c6f2e7632cb70000169b490,45,2022-02-12_18h07.37.482,lexical_decision_task_DD_L4,2021.2.3,Linux x86_64,59.99880002,,,,,,,,,,,1.2112,0,,,,,,,,,,,,,,,,,,,,,,,,-0.033243138,-0.413548694,0,0,0,,,,,,,CLOTH,LB,m,y,./images/CLOTHLB.png,,,,,,,,,,,,,,,,,,,,,z,0,1.2112,,,,,,,,0,77,77,23,1
,,,,,,,,,,,,,,,,,5c6f2e7632cb70000169b490,45,2022-02-12_18h07.37.482,lexical_decision_task_DD_L4,2021.2.3,Linux x86_64,59.99880002,,,,,,,,,,,0.6827,1,,,,,,,,,,,,,,,,,,,,,,,,-0.033243138,-0.413548694,0,0,0,,,,,,,TOMATO,C,z,y,./images/TOMATO.png,,,,,,,,,,,,,,,,,,,,,z,1,0.6827,,,,,,,,0,78,78,84,1
,,,,,,,,,,,,,,,,,5c6f2e7632cb70000169b490,45,2022-02-12_18h07.37.482,lexical_decision_task_DD_L4,2021.2.3,Linux x86_64,59.99880002,,,,,,,,,,,0.5949,1,,,,,,,,,,,,,,,,,,,,,,,,-0.033243138,-0.413548694,0,0,0,,,,,,,CRUMB,LB,z,y,./images/CRUMBLB.png,,,,,,,,,,,,,,,,,,,,,z,1,0.5949,,,,,,,,0,79,79,113,1
,,,,,,,,,,,,,,,,,5c6f2e7632cb70000169b490,45,2022-02-12_18h07.37.482,lexical_decision_task_DD_L4,2021.2.3,Linux x86_64,59.99880002,,,,,,,,,,,0.7863,1,,,,,,,,,,,,,,,,,,,,,,,,-0.033243138,-0.413548694,0,0,0,,,,,,,FENCE,LB,m,y,./images/FENCELB.png,,,,,,,,,,,,,,,,,,,,,m,1,0.7863,,,,,,,,0,80,80,14,1
,,,,,,,,,,,,,,,,,5c6f2e7632cb70000169b490,45,2022-02-12_18h07.37.482,lexical_decision_task_DD_L4,2021.2.3,Linux x86_64,59.99880002,,,,,,,,,,,0.7259,1,,,,,,,,,,,,,,,,,,,,,,,,-0.033243138,-0.413548694,0,0,0,,,,,,,STOVE,LB,m,y,./images/STOVELB.png,,,,,,,,,,,,,,,,,,,,,m,1,0.7259,,,,,,,,0,81,81,2,1
,,,,,,,,,,,,,,,,,5c6f2e7632cb70000169b490,45,2022-02-12_18h07.37.482,lexical_decision_task_DD_L4,2021.2.3,Linux x86_64,59.99880002,,,,,,,,,,,1.0931,1,,,,,,,,,,,,,,,,,,,,,,,,-0.032060358,-0.414055611,0,0,0,,,,,,,SHELF,C,z,y,./images/SHELF.png,,,,,,,,,,,,,,,,,,,,,z,1,1.0931,,,,,,,,0,82,82,123,1
,,,,,,,,,,,,,,,,,5c6f2e7632cb70000169b490,45,2022-02-12_18h07.37.482,lexical_decision_task_DD_L4,2021.2.3,Linux x86_64,59.99880002,,,,,,,,,,,0.899,0,,,,,,,,,,,,,,,,,,,,,,,,-0.049218497,-0.392582,1,0,0,,,,,,,ATTIC,C,z,y,./images/ATTIC.png,break_done_button,,,,,,,,,,,,,,,,,,,,m,0,0.899,,,,,,,,0,83,83,111,1
,,,,,,,,,,,,,,,,,5c6f2e7632cb70000169b490,45,2022-02-12_18h07.37.482,lexical_decision_task_DD_L4,2021.2.3,Linux x86_64,59.99880002,,,,,,,,,,,1.0779,1,,,,,,,,,,,,,,,,,,,,,,,,-0.050907955,-0.392582,0,0,0,,,,,,,TRIPOD,C,z,y,./images/TRIPOD.png,,,,,,,,,,,,,,,,,,,,,z,1,1.0779,,,,,,,,0,84,84,138,1
,,,,,,,,,,,,,,,,,5c6f2e7632cb70000169b490,45,2022-02-12_18h07.37.482,lexical_decision_task_DD_L4,2021.2.3,Linux x86_64,59.99880002,,,,,,,,,,,0.9278,1,,,,,,,,,,,,,,,,,,,,,,,,-0.050907955,-0.392582,0,0,0,,,,,,,STATUE,C,m,y,./images/STATUE.png,,,,,,,,,,,,,,,,,,,,,m,1,0.9278,,,,,,,,0,85,85,66,1
,,,,,,,,,,,,,,,,,5c6f2e7632cb70000169b490,45,2022-02-12_18h07.37.482,lexical_decision_task_DD_L4,2021.2.3,Linux x86_64,59.99880002,,,,,,,,,,,0.9678,1,,,,,,,,,,,,,,,,,,,,,,,,-0.050907955,-0.392582,0,0,0,,,,,,,MOTOR,HB,z,y,./images/MOTORHB.png,,,,,,,,,,,,,,,,,,,,,z,1,0.9678,,,,,,,,0,86,86,97,1
,,,,,,,,,,,,,,,,,5c6f2e7632cb70000169b490,45,2022-02-12_18h07.37.482,lexical_decision_task_DD_L4,2021.2.3,Linux x86_64,59.99880002,,,,,,,,,,,0.8472,1,,,,,,,,,,,,,,,,,,,,,,,,-0.050907955,-0.392582,0,0,0,,,,,,,ARTIST,HB,m,y,./images/ARTISTHB.png,,,,,,,,,,,,,,,,,,,,,m,1,0.8472,,,,,,,,0,87,87,61,1
,,,,,,,,,,,,,,,,,5c6f2e7632cb70000169b490,45,2022-02-12_18h07.37.482,lexical_decision_task_DD_L4,2021.2.3,Linux x86_64,59.99880002,,,,,,,,,,,0.6438,1,,,,,,,,,,,,,,,,,,,,,,,,-0.050907955,-0.392582,0,0,0,,,,,,,ONION,C,z,y,./images/ONION.png,,,,,,,,,,,,,,,,,,,,,z,1,0.6438,,,,,,,,0,88,88,135,1
,,,,,,,,,,,,,,,,,5c6f2e7632cb70000169b490,45,2022-02-12_18h07.37.482,lexical_decision_task_DD_L4,2021.2.3,Linux x86_64,59.99880002,,,,,,,,,,,0.5773,0,,,,,,,,,,,,,,,,,,,,,,,,-0.050907955,-0.392582,0,0,0,,,,,,,GRAPE,HB,m,y,./images/GRAPEHB.png,,,,,,,,,,,,,,,,,,,,,z,0,0.5773,,,,,,,,0,89,89,16,1
,,,,,,,,,,,,,,,,,5c6f2e7632cb70000169b490,45,2022-02-12_18h07.37.482,lexical_decision_task_DD_L4,2021.2.3,Linux x86_64,59.99880002,,,,,,,,,,,0.8643,1,,,,,,,,,,,,,,,,,,,,,,,,-0.050907955,-0.392582,0,0,0,,,,,,,PILOT,LB,m,y,./images/PILOTLB.png,,,,,,,,,,,,,,,,,,,,,m,1,0.8643,,,,,,,,0,90,90,50,1
,,,,,,,,,,,,,,,,,5c6f2e7632cb70000169b490,45,2022-02-12_18h07.37.482,lexical_decision_task_DD_L4,2021.2.3,Linux x86_64,59.99880002,,,,,,,,,,,0.8767,0,,,,,,,,,,,,,,,,,,,,,,,,-0.050907955,-0.392582,0,0,0,,,,,,,LADDER,LB,z,y,./images/LADDERLB.png,,,,,,,,,,,,,,,,,,,,,m,0,0.8767,,,,,,,,0,91,91,122,1
,,,,,,,,,,,,,,,,,5c6f2e7632cb70000169b490,45,2022-02-12_18h07.37.482,lexical_decision_task_DD_L4,2021.2.3,Linux x86_64,59.99880002,,,,,,,,,,,0.7936,0,,,,,,,,,,,,,,,,,,,,,,,,-0.050907955,-0.392582,0,0,0,,,,,,,STEAK,HB,m,y,./images/STEAKHB.png,,,,,,,,,,,,,,,,,,,,,z,0,0.7936,,,,,,,,0,92,92,31,1
,,,,,,,,,,,,,,,,,5c6f2e7632cb70000169b490,45,2022-02-12_18h07.37.482,lexical_decision_task_DD_L4,2021.2.3,Linux x86_64,59.99880002,,,,,,,,,,,0.772,1,,,,,,,,,,,,,,,,,,,,,,,,-0.050907955,-0.392582,0,0,0,,,,,,,BELLY,HB,z,y,./images/BELLYHB.png,,,,,,,,,,,,,,,,,,,,,z,1,0.772,,,,,,,,0,93,93,94,1
,,,,,,,,,,,,,,,,,5c6f2e7632cb70000169b490,45,2022-02-12_18h07.37.482,lexical_decision_task_DD_L4,2021.2.3,Linux x86_64,59.99880002,,,,,,,,,,,0.9969,1,,,,,,,,,,,,,,,,,,,,,,,,-0.050907955,-0.392582,0,0,0,,,,,,,LAGOON,LB,m,y,./images/LAGOONLB.png,,,,,,,,,,,,,,,,,,,,,m,1,0.9969,,,,,,,,0,94,94,47,1
,,,,,,,,,,,,,,,,,5c6f2e7632cb70000169b490,45,2022-02-12_18h07.37.482,lexical_decision_task_DD_L4,2021.2.3,Linux x86_64,59.99880002,,,,,,,,,,,0.8454,0,,,,,,,,,,,,,,,,,,,,,,,,-0.050907955,-0.392582,0,0,0,,,,,,,STRING,LB,z,y,./images/STRINGLB.png,,,,,,,,,,,,,,,,,,,,,m,0,0.8454,,,,,,,,0,95,95,125,1
,,,,,,,,,,,,,,,,,5c6f2e7632cb70000169b490,45,2022-02-12_18h07.37.482,lexical_decision_task_DD_L4,2021.2.3,Linux x86_64,59.99880002,,,,,,,,,,,1.0958,0,,,,,,,,,,,,,,,,,,,,,,,,-0.050907955,-0.392582,0,0,0,,,,,,,FARMER,LB,z,y,./images/FARMERLB.png,,,,,,,,,,,,,,,,,,,,,m,0,1.0958,,,,,,,,0,96,96,149,1
,,,,,,,,,,,,,,,,,5c6f2e7632cb70000169b490,45,2022-02-12_18h07.37.482,lexical_decision_task_DD_L4,2021.2.3,Linux x86_64,59.99880002,,,,,,,,,,,0.7989,1,,,,,,,,,,,,,,,,,,,,,,,,-0.050907955,-0.392582,0,0,0,,,,,,,KIDNEY,C,z,y,./images/KIDNEY.png,,,,,,,,,,,,,,,,,,,,,z,1,0.7989,,,,,,,,0,97,97,105,1
,,,,,,,,,,,,,,,,,5c6f2e7632cb70000169b490,45,2022-02-12_18h07.37.482,lexical_decision_task_DD_L4,2021.2.3,Linux x86_64,59.99880002,,,,,,,,,,,0.585,0,,,,,,,,,,,,,,,,,,,,,,,,-0.050907955,-0.392582,0,0,0,,,,,,,SAUCE,C,m,y,./images/SAUCE.png,,,,,,,,,,,,,,,,,,,,,z,0,0.585,,,,,,,,0,98,98,51,1
,,,,,,,,,,,,,,,,,5c6f2e7632cb70000169b490,45,2022-02-12_18h07.37.482,lexical_decision_task_DD_L4,2021.2.3,Linux x86_64,59.99880002,,,,,,,,,,,0.8799,1,,,,,,,,,,,,,,,,,,,,,,,,-0.050907955,-0.392582,0,0,0,,,,,,,POKER,HB,m,y,./images/POKERHB.png,,,,,,,,,,,,,,,,,,,,,m,1,0.8799,,,,,,,,0,99,99,67,1
,,,,,,,,,,,,,,,,,5c6f2e7632cb70000169b490,45,2022-02-12_18h07.37.482,lexical_decision_task_DD_L4,2021.2.3,Linux x86_64,59.99880002,,,,,,,,,,,0.9083,1,,,,,,,,,,,,,,,,,,,,,,,,-0.050907955,-0.392582,0,0,0,,,,,,,DESERT,HB,m,y,./images/DESERTHB.png,,,,,,,,,,,,,,,,,,,,,m,1,0.9083,,,,,,,,0,100,100,52,1
,,,,,,,,,,,,,,,,,5c6f2e7632cb70000169b490,45,2022-02-12_18h07.37.482,lexical_decision_task_DD_L4,2021.2.3,Linux x86_64,59.99880002,,,,,,,,,,,0.6849,1,,,,,,,,,,,,,,,,,,,,,,,,-0.050907955,-0.392582,0,0,0,,,,,,,PISTOL,LB,m,y,./images/PISTOLLB.png,,,,,,,,,,,,,,,,,,,,,m,1,0.6849,,,,,,,,0,101,101,29,1
,,,,,,,,,,,,,,,,,5c6f2e7632cb70000169b490,45,2022-02-12_18h07.37.482,lexical_decision_task_DD_L4,2021.2.3,Linux x86_64,59.99880002,,,,,,,,,,,0.5937,1,,,,,,,,,,,,,,,,,,,,,,,,-0.050907955,-0.392582,0,0,0,,,,,,,FLASK,C,m,y,./images/FLASK.png,,,,,,,,,,,,,,,,,,,,,m,1,0.5937,,,,,,,,0,102,102,72,1
,,,,,,,,,,,,,,,,,5c6f2e7632cb70000169b490,45,2022-02-12_18h07.37.482,lexical_decision_task_DD_L4,2021.2.3,Linux x86_64,59.99880002,,,,,,,,,,,1.1154,1,,,,,,,,,,,,,,,,,,,,,,,,-0.050907955,-0.392582,0,0,0,,,,,,,BLOKE,C,m,y,./images/BLOKE.png,,,,,,,,,,,,,,,,,,,,,m,1,1.1154,,,,,,,,0,103,103,12,1
,,,,,,,,,,,,,,,,,5c6f2e7632cb70000169b490,45,2022-02-12_18h07.37.482,lexical_decision_task_DD_L4,2021.2.3,Linux x86_64,59.99880002,,,,,,,,,,,1.0456,1,,,,,,,,,,,,,,,,,,,,,,,,-0.050907955,-0.392582,0,0,0,,,,,,,SQUARE,C,z,y,./images/SQUARE.png,,,,,,,,,,,,,,,,,,,,,z,1,1.0456,,,,,,,,0,104,104,90,1
,,,,,,,,,,,,,,,,,5c6f2e7632cb70000169b490,45,2022-02-12_18h07.37.482,lexical_decision_task_DD_L4,2021.2.3,Linux x86_64,59.99880002,,,,,,,,,,,1.1672,1,,,,,,,,,,,,,,,,,,,,,,,,-0.050907955,-0.392582,0,0,0,,,,,,,SAUNA,C,m,y,./images/SAUNA.png,,,,,,,,,,,,,,,,,,,,,m,1,1.1672,,,,,,,,0,105,105,33,1
,,,,,,,,,,,,,,,,,5c6f2e7632cb70000169b490,45,2022-02-12_18h07.37.482,lexical_decision_task_DD_L4,2021.2.3,Linux x86_64,59.99880002,,,,,,,,,,,0.6817,1,,,,,,,,,,,,,,,,,,,,,,,,-0.050907955,-0.392582,0,0,0,,,,,,,SNAKE,HB,m,y,./images/SNAKEHB.png,,,,,,,,,,,,,,,,,,,,,m,1,0.6817,,,,,,,,0,106,106,40,1
,,,,,,,,,,,,,,,,,5c6f2e7632cb70000169b490,45,2022-02-12_18h07.37.482,lexical_decision_task_DD_L4,2021.2.3,Linux x86_64,59.99880002,,,,,,,,,,,1.0521,1,,,,,,,,,,,,,,,,,,,,,,,,-0.050907955,-0.392582,0,0,0,,,,,,,JAGUAR,C,z,y,./images/JAGUAR.png,,,,,,,,,,,,,,,,,,,,,z,1,1.0521,,,,,,,,0,107,107,102,1
,,,,,,,,,,,,,,,,,5c6f2e7632cb70000169b490,45,2022-02-12_18h07.37.482,lexical_decision_task_DD_L4,2021.2.3,Linux x86_64,59.99880002,,,,,,,,,,,1.0008,1,,,,,,,,,,,,,,,,,,,,,,,,-0.047656165,-0.39609337,0,0,0,,,,,,,BOXER,HB,m,y,./images/BOXERHB.png,,,,,,,,,,,,,,,,,,,,,m,1,1.0008,,,,,,,,0,108,108,4,1
,,,,,,,,,,,,,,,,,5c6f2e7632cb70000169b490,45,2022-02-12_18h07.37.482,lexical_decision_task_DD_L4,2021.2.3,Linux x86_64,59.99880002,,,,,,,,,,,1.1433,1,,,,,,,,,,,,,,,,,,,,,,,,-0.047656165,-0.394910828,0,0,0,,,,,,,WRIST,HB,z,y,./images/WRISTHB.png,,,,,,,,,,,,,,,,,,,,,z,1,1.1433,,,,,,,,0,109,109,109,1
,,,,,,,,,,,,,,,,,5c6f2e7632cb70000169b490,45,2022-02-12_18h07.37.482,lexical_decision_task_DD_L4,2021.2.3,Linux x86_64,59.99880002,,,,,,,,,,,1.533,1,,,,,,,,,,,,,,,,,,,,,,,,-0.050784486,-0.409247929,0,0,0,,,,,,,MALLET,LB,z,y,./images/MALLETLB.png,,,,,,,,,,,,,,,,,,,,,z,1,1.533,,,,,,,,0,110,110,134,1
,,,,,,,,,,,,,,,,,5c6f2e7632cb70000169b490,45,2022-02-12_18h07.37.482,lexical_decision_task_DD_L4,2021.2.3,Linux x86_64,59.99880002,,,,,,,,,,,1.4144,0,,,,,,,,,,,,,,,,,,,,,,,,-0.050784486,-0.409247929,0,0,0,,,,,,,SWING,HB,z,y,./images/SWINGHB.png,,,,,,,,,,,,,,,,,,,,,m,0,1.4144,,,,,,,,0,111,111,124,1
,,,,,,,,,,,,,,,,,5c6f2e7632cb70000169b490,45,2022-02-12_18h07.37.482,lexical_decision_task_DD_L4,2021.2.3,Linux x86_64,59.99880002,,,,,,,,,,,1.293,1,,,,,,,,,,,,,,,,,,,,,,,,-0.050784486,-0.409247929,0,0,0,,,,,,,PACKET,LB,z,y,./images/PACKETLB.png,,,,,,,,,,,,,,,,,,,,,z,1,1.293,,,,,,,,0,112,112,140,1
,,,,,,,,,,,,,,,,,5c6f2e7632cb70000169b490,45,2022-02-12_18h07.37.482,lexical_decision_task_DD_L4,2021.2.3,Linux x86_64,59.99880002,,,,,,,,,,,0.9459,1,,,,,,,,,,,,,,,,,,,,,,,,-0.050784486,-0.407896283,0,0,0,,,,,,,CANOE,HB,m,y,./images/CANOEHB.png,,,,,,,,,,,,,,,,,,,,,m,1,0.9459,,,,,,,,0,113,113,58,1
,,,,,,,,,,,,,,,,,5c6f2e7632cb70000169b490,45,2022-02-12_18h07.37.482,lexical_decision_task_DD_L4,2021.2.3,Linux x86_64,59.99880002,,,,,,,,,,,1.7171,0,,,,,,,,,,,,,,,,,,,,,,,,-0.050784486,-0.406713503,0,0,0,,,,,,,SWEAT,C,z,y,./images/SWEAT.png,,,,,,,,,,,,,,,,,,,,,m,0,1.7171,,,,,,,,0,114,114,150,1
,,,,,,,,,,,,,,,,,5c6f2e7632cb70000169b490,45,2022-02-12_18h07.37.482,lexical_decision_task_DD_L4,2021.2.3,Linux x86_64,59.99880002,,,,,,,,,,,1.2593,0,,,,,,,,,,,,,,,,,,,,,,,,-0.050784486,-0.406713503,0,0,0,,,,,,,BROOM,C,m,y,./images/BROOM.png,,,,,,,,,,,,,,,,,,,,,z,0,1.2593,,,,,,,,0,115,115,78,1
,,,,,,,,,,,,,,,,,5c6f2e7632cb70000169b490,45,2022-02-12_18h07.37.482,lexical_decision_task_DD_L4,2021.2.3,Linux x86_64,59.99880002,,,,,,,,,,,1.4663,1,,,,,,,,,,,,,,,,,,,,,,,,-0.050784486,-0.406713503,0,0,0,,,,,,,SCREW,C,z,y,./images/SCREW.png,,,,,,,,,,,,,,,,,,,,,z,1,1.4663,,,,,,,,0,116,116,108,1
,,,,,,,,,,,,,,,,,5c6f2e7632cb70000169b490,45,2022-02-12_18h07.37.482,lexical_decision_task_DD_L4,2021.2.3,Linux x86_64,59.99880002,,,,,,,,,,,1.2107,1,,,,,,,,,,,,,,,,,,,,,,,,-0.050784486,-0.406713503,0,0,0,,,,,,,WHISKY,LB,m,y,./images/WHISKYLB.png,,,,,,,,,,,,,,,,,,,,,m,1,1.2107,,,,,,,,0,117,117,83,1
,,,,,,,,,,,,,,,,,5c6f2e7632cb70000169b490,45,2022-02-12_18h07.37.482,lexical_decision_task_DD_L4,2021.2.3,Linux x86_64,59.99880002,,,,,,,,,,,0.8235,1,,,,,,,,,,,,,,,,,,,,,,,,-0.050784486,-0.406713503,0,0,0,,,,,,,CLIFF,LB,m,y,./images/CLIFFLB.png,,,,,,,,,,,,,,,,,,,,,m,1,0.8235,,,,,,,,0,118,118,8,1
,,,,,,,,,,,,,,,,,5c6f2e7632cb70000169b490,45,2022-02-12_18h07.37.482,lexical_decision_task_DD_L4,2021.2.3,Linux x86_64,59.99880002,,,,,,,,,,,0.9117,1,,,,,,,,,,,,,,,,,,,,,,,,-0.053150363,-0.412796666,0,0,0,,,,,,,BAKER,C,m,y,./images/BAKER.png,,,,,,,,,,,,,,,,,,,,,m,1,0.9117,,,,,,,,0,119,119,63,1
,,,,,,,,,,,,,,,,,5c6f2e7632cb70000169b490,45,2022-02-12_18h07.37.482,lexical_decision_task_DD_L4,2021.2.3,Linux x86_64,59.99880002,,,,,,,,,,,1.0395,1,,,,,,,,,,,,,,,,,,,,,,,,-0.053319309,-0.41262772,0,0,0,,,,,,,COOKER,C,z,y,./images/COOKER.png,,,,,,,,,,,,,,,,,,,,,z,1,1.0395,,,,,,,,0,120,120,153,1
,,,,,,,,,,,,,,,,,5c6f2e7632cb70000169b490,45,2022-02-12_18h07.37.482,lexical_decision_task_DD_L4,2021.2.3,Linux x86_64,59.99880002,,,,,,,,,,,1.2615,1,,,,,,,,,,,,,,,,,,,,,,,,-0.053319309,-0.41262772,0,0,0,,,,,,,QUILL,HB,z,y,./images/QUILLHB.png,,,,,,,,,,,,,,,,,,,,,z,1,1.2615,,,,,,,,0,121,121,115,1
,,,,,,,,,,,,,,,,,5c6f2e7632cb70000169b490,45,2022-02-12_18h07.37.482,lexical_decision_task_DD_L4,2021.2.3,Linux x86_64,59.99880002,,,,,,,,,,,1.2191,0,,,,,,,,,,,,,,,,,,,,,,,,-0.053319309,-0.41262772,0,0,0,,,,,,,PLANET,LB,m,y,./images/PLANETLB.png,,,,,,,,,,,,,,,,,,,,,z,0,1.2191,,,,,,,,0,122,122,80,1
