key_resp.keys,key_resp.rt,instr_done_touch.x,instr_done_touch.y,instr_done_touch.leftButton,instr_done_touch.midButton,instr_done_touch.rightButton,instruction_pages.thisRepN,instruction_pages.thisTrialN,instruction_pages.thisN,instruction_pages.thisIndex,instruction_pages.ran,pageN,phase,instruct_text,has_image,instruct_image,participant,age,date,expName,psychopyVersion,OS,frameRate,response.keys,response.corr,response.rt,touch_resp.x,touch_resp.y,touch_resp.leftButton,touch_resp.midButton,touch_resp.rightButton,touch_resp.time,touch_resp.clicked_name,rt,corr,practrials.thisRepN,practrials.thisTrialN,practrials.thisN,practrials.thisIndex,practrials.ran,TrialID,Target,corrAns,end_of_practice_trials_pages.thisRepN,end_of_practice_trials_pages.thisTrialN,end_of_practice_trials_pages.thisN,end_of_practice_trials_pages.thisIndex,end_of_practice_trials_pages.ran,key_resp_2.keys,key_resp_2.corr,key_resp_2.rt,targ_click.x,targ_click.y,targ_click.leftButton,targ_click.midButton,targ_click.rightButton,targ_click.time,targ_click.clicked_name,break_done_touch.x,break_done_touch.y,break_done_touch.leftButton,break_done_touch.midButton,break_done_touch.rightButton,break_done_keyboard.keys,maintrials.thisRepN,maintrials.thisTrialN,maintrials.thisN,maintrials.thisIndex,maintrials.ran,string,blur,study,lex,stim_path,break_done_keyboard.rt,mouse_2.x,mouse_2.y,mouse_2.leftButton,mouse_2.midButton,mouse_2.rightButton,mouse_2.clicked_name,slider.response,slider.rt,trials.thisRepN,trials.thisTrialN,trials.thisN,trials.thisIndex,trials.ran,instr_done_touch.clicked_name,test_instructions.thisRepN,test_instructions.thisTrialN,test_instructions.thisN,test_instructions.thisIndex,test_instructions.ran,key_resp_3.keys,key_resp_3.corr,key_resp_3.rt,test_click.x,test_click.y,test_click.leftButton,test_click.midButton,test_click.rightButton,test_click.time,test_click.clicked_name,test_phase.thisRepN,test_phase.thisTrialN,test_phase.thisN,test_phase.thisIndex,test_phase.ran
space,43.9331,0.268518536,-0.305555568,0,0,0,0,0,0,0,1,1,instructions,"INSTRUCTIONS
At the start of each trial, look at the plus sign  (+) in the center of the screen.  This tells you that a trial is about to begin and where to look. Second, the plus sign will disappear and a string of letters will appear. Your task is to determine if the string of letters is a word or not. If the item is a word press the M key (on keyboard)  or touch the word button (phone/tablet).  If the item is not a word,  press the  Z key (on keyboard)  or touch the nonword button (on phone/tablet). 
Press the space bar or touch  continue.",0,,5c7747a39e03960001742947,29,2022-02-12_12h46.21.917,lexical_decision_task_DD_L3,2021.2.3,Win32,59.95203837,,,,,,,,,,,,,,,,,,,,,,,,,,,,,,,,,,,,,,,,,,,,,,,,,,,,,,,,,,,,,,,,,,,,,,,,,,,,,,,,,,,,,,
space,5.1706,0.268518536,-0.305555568,0,0,0,0,1,1,1,1,2,instructions,"If your device has a keyboard, press the 'Z' key for nonwords and the 'M' key for words.





Press the space bar or touch the button below to continue.",0,keyboard-example.gif,5c7747a39e03960001742947,29,2022-02-12_12h46.21.917,lexical_decision_task_DD_L3,2021.2.3,Win32,59.95203837,,,,,,,,,,,,,,,,,,,,,,,,,,,,,,,,,,,,,,,,,,,,,,,,,,,,,,,,,,,,,,,,,,,,,,,,,,,,,,,,,,,,,,
space,4.7477,0.268518536,-0.305555568,0,0,0,0,2,2,2,1,3,instructions,"If you are using a touchscreen only device, use the buttons on the screen. Do not use the mouse.





Press the space bar or touch the button below to continue.",0,touchscreen-example.gif,5c7747a39e03960001742947,29,2022-02-12_12h46.21.917,lexical_decision_task_DD_L3,2021.2.3,Win32,59.95203837,,,,,,,,,,,,,,,,,,,,,,,,,,,,,,,,,,,,,,,,,,,,,,,,,,,,,,,,,,,,,,,,,,,,,,,,,,,,,,,,,,,,,,
space,12.8324,0.268518536,-0.305555568,0,0,0,0,3,3,3,1,4,instructions,"It is very important that you respond as quickly and accurately as possible, as each letter string will only be on the screen for two seconds. If you do not respond within this time, the message 'Too slow!' will be displayed and the experiment will progress to the next letter string. The first 20 trials will be practice trials and you will receive feedback on your answers. 

Press the space bar or touch the button below to start the practice trials.",0,,5c7747a39e03960001742947,29,2022-02-12_12h46.21.917,lexical_decision_task_DD_L3,2021.2.3,Win32,59.95203837,,,,,,,,,,,,,,,,,,,,,,,,,,,,,,,,,,,,,,,,,,,,,,,,,,,,,,,,,,,,,,,,,,,,,,,,,,,,,,,,,,,,,,
,,,,,,,,,,,,,,,,,5c7747a39e03960001742947,29,2022-02-12_12h46.21.917,lexical_decision_task_DD_L3,2021.2.3,Win32,59.95203837,m,1,0.9284,,,,,,,,0.9284,1,0,0,0,4,1,1001,SQUEAK,m,,,,,,,,,,,,,,,,,,,,,,,,,,,,,,,,,,,,,,,,,,,,,,,,,,,,,,,,,,,,,,,,,,
,,,,,,,,,,,,,,,,,5c7747a39e03960001742947,29,2022-02-12_12h46.21.917,lexical_decision_task_DD_L3,2021.2.3,Win32,59.95203837,m,1,0.6232,,,,,,,,0.6232,1,0,1,1,7,1,1001,VOLUME,m,,,,,,,,,,,,,,,,,,,,,,,,,,,,,,,,,,,,,,,,,,,,,,,,,,,,,,,,,,,,,,,,,,
,,,,,,,,,,,,,,,,,5c7747a39e03960001742947,29,2022-02-12_12h46.21.917,lexical_decision_task_DD_L3,2021.2.3,Win32,59.95203837,m,1,0.7766,,,,,,,,0.7766,1,0,2,2,2,1,1001,ALMOND,m,,,,,,,,,,,,,,,,,,,,,,,,,,,,,,,,,,,,,,,,,,,,,,,,,,,,,,,,,,,,,,,,,,
,,,,,,,,,,,,,,,,,5c7747a39e03960001742947,29,2022-02-12_12h46.21.917,lexical_decision_task_DD_L3,2021.2.3,Win32,59.95203837,z,1,0.8237,,,,,,,,0.8237,1,0,3,3,9,1,1001,FARINY,z,,,,,,,,,,,,,,,,,,,,,,,,,,,,,,,,,,,,,,,,,,,,,,,,,,,,,,,,,,,,,,,,,,
,,,,,,,,,,,,,,,,,5c7747a39e03960001742947,29,2022-02-12_12h46.21.917,lexical_decision_task_DD_L3,2021.2.3,Win32,59.95203837,m,1,0.679,,,,,,,,0.679,1,0,4,4,0,1,1001,UTOPIA,m,,,,,,,,,,,,,,,,,,,,,,,,,,,,,,,,,,,,,,,,,,,,,,,,,,,,,,,,,,,,,,,,,,
,,,,,,,,,,,,,,,,,5c7747a39e03960001742947,29,2022-02-12_12h46.21.917,lexical_decision_task_DD_L3,2021.2.3,Win32,59.95203837,z,1,0.6887,,,,,,,,0.6887,1,0,5,5,13,1,1001,ROUPET,z,,,,,,,,,,,,,,,,,,,,,,,,,,,,,,,,,,,,,,,,,,,,,,,,,,,,,,,,,,,,,,,,,,
,,,,,,,,,,,,,,,,,5c7747a39e03960001742947,29,2022-02-12_12h46.21.917,lexical_decision_task_DD_L3,2021.2.3,Win32,59.95203837,m,1,2.5906,,,,,,,,2.5906,1,0,6,6,5,1,1001,OBTAIN,m,,,,,,,,,,,,,,,,,,,,,,,,,,,,,,,,,,,,,,,,,,,,,,,,,,,,,,,,,,,,,,,,,,
,,,,,,,,,,,,,,,,,5c7747a39e03960001742947,29,2022-02-12_12h46.21.917,lexical_decision_task_DD_L3,2021.2.3,Win32,59.95203837,z,1,0.7656,,,,,,,,0.7656,1,0,7,7,10,1,1001,INLADE,z,,,,,,,,,,,,,,,,,,,,,,,,,,,,,,,,,,,,,,,,,,,,,,,,,,,,,,,,,,,,,,,,,,
,,,,,,,,,,,,,,,,,5c7747a39e03960001742947,29,2022-02-12_12h46.21.917,lexical_decision_task_DD_L3,2021.2.3,Win32,59.95203837,z,1,0.5798,,,,,,,,0.5798,1,0,8,8,15,1,1001,WHAISE,z,,,,,,,,,,,,,,,,,,,,,,,,,,,,,,,,,,,,,,,,,,,,,,,,,,,,,,,,,,,,,,,,,,
,,,,,,,,,,,,,,,,,5c7747a39e03960001742947,29,2022-02-12_12h46.21.917,lexical_decision_task_DD_L3,2021.2.3,Win32,59.95203837,m,1,0.5917,,,,,,,,0.5917,1,0,9,9,3,1,1001,MATRIX,m,,,,,,,,,,,,,,,,,,,,,,,,,,,,,,,,,,,,,,,,,,,,,,,,,,,,,,,,,,,,,,,,,,
,,,,,,,,,,,,,,,,,5c7747a39e03960001742947,29,2022-02-12_12h46.21.917,lexical_decision_task_DD_L3,2021.2.3,Win32,59.95203837,z,1,1.0054,,,,,,,,1.0054,1,0,10,10,11,1,1001,RASHET,z,,,,,,,,,,,,,,,,,,,,,,,,,,,,,,,,,,,,,,,,,,,,,,,,,,,,,,,,,,,,,,,,,,
,,,,,,,,,,,,,,,,,5c7747a39e03960001742947,29,2022-02-12_12h46.21.917,lexical_decision_task_DD_L3,2021.2.3,Win32,59.95203837,z,1,0.7431,,,,,,,,0.7431,1,0,11,11,14,1,1001,THRALE,z,,,,,,,,,,,,,,,,,,,,,,,,,,,,,,,,,,,,,,,,,,,,,,,,,,,,,,,,,,,,,,,,,,
,,,,,,,,,,,,,,,,,5c7747a39e03960001742947,29,2022-02-12_12h46.21.917,lexical_decision_task_DD_L3,2021.2.3,Win32,59.95203837,z,1,0.8028,,,,,,,,0.8028,1,0,12,12,12,1,1001,SPRINY,z,,,,,,,,,,,,,,,,,,,,,,,,,,,,,,,,,,,,,,,,,,,,,,,,,,,,,,,,,,,,,,,,,,
,,,,,,,,,,,,,,,,,5c7747a39e03960001742947,29,2022-02-12_12h46.21.917,lexical_decision_task_DD_L3,2021.2.3,Win32,59.95203837,z,1,0.8115,,,,,,,,0.8115,1,0,13,13,8,1,1001,ASLERT,z,,,,,,,,,,,,,,,,,,,,,,,,,,,,,,,,,,,,,,,,,,,,,,,,,,,,,,,,,,,,,,,,,,
,,,,,,,,,,,,,,,,,5c7747a39e03960001742947,29,2022-02-12_12h46.21.917,lexical_decision_task_DD_L3,2021.2.3,Win32,59.95203837,m,1,0.71,,,,,,,,0.71,1,0,14,14,1,1,1001,ADJUST,m,,,,,,,,,,,,,,,,,,,,,,,,,,,,,,,,,,,,,,,,,,,,,,,,,,,,,,,,,,,,,,,,,,
,,,,,,,,,,,,,,,,,5c7747a39e03960001742947,29,2022-02-12_12h46.21.917,lexical_decision_task_DD_L3,2021.2.3,Win32,59.95203837,m,1,0.8042,,,,,,,,0.8042,1,0,15,15,6,1,1001,ZOMBIE,m,,,,,,,,,,,,,,,,,,,,,,,,,,,,,,,,,,,,,,,,,,,,,,,,,,,,,,,,,,,,,,,,,,
space,10.8606,0.268518536,-0.305555568,0,0,0,,,,,,1,end_of_practice,"You have completed the practice trials. During the experimental trials, you will not receive feedback. 
Before you begin, please ensure that you are in a comfortable and quiet location and will not be disturbed for about 15 minutes, as we cannot use your data if you do not complete all the trials. 
 When you are ready to start the experimental trials, please press space or touch the button below.",,,5c7747a39e03960001742947,29,2022-02-12_12h46.21.917,lexical_decision_task_DD_L3,2021.2.3,Win32,59.95203837,,,,,,,,,,,,,,,,,,,,,0,0,0,0,1,,,,,,,,,,,,,,,,,,,,,,,,,,,,,,,,,,,,,,,,,,,,,,,,,,,,,,,,,,,,,
,,,,,,,,,,,,,,,,,5c7747a39e03960001742947,29,2022-02-12_12h46.21.917,lexical_decision_task_DD_L3,2021.2.3,Win32,59.95203837,,,,,,,,,,,0.5957,1,,,,,,,,,,,,,,z,1,0.5957,,,,,,,,0.268518536,-0.305555568,0,0,0,,0,0,0,105,1,MOKER,C,old,z,./images/MOKER.png,,,,,,,,,,,,,,,,,,,,,,,,,,,,,,,,,,,
,,,,,,,,,,,,,,,,,5c7747a39e03960001742947,29,2022-02-12_12h46.21.917,lexical_decision_task_DD_L3,2021.2.3,Win32,59.95203837,,,,,,,,,,,0.7253,1,,,,,,,,,,,,,,m,1,0.7253,,,,,,,,0.268518536,-0.305555568,0,0,0,,0,1,1,43,1,MOSQUE,C,old,m,./images/MOSQUE.png,,,,,,,,,,,,,,,,,,,,,,,,,,,,,,,,,,,
,,,,,,,,,,,,,,,,,5c7747a39e03960001742947,29,2022-02-12_12h46.21.917,lexical_decision_task_DD_L3,2021.2.3,Win32,59.95203837,,,,,,,,,,,0.7386,1,,,,,,,,,,,,,,z,1,0.7386,,,,,,,,0.268518536,-0.305555568,0,0,0,,0,2,2,102,1,DULLE,C,old,z,./images/DULLE.png,,,,,,,,,,,,,,,,,,,,,,,,,,,,,,,,,,,
,,,,,,,,,,,,,,,,,5c7747a39e03960001742947,29,2022-02-12_12h46.21.917,lexical_decision_task_DD_L3,2021.2.3,Win32,59.95203837,,,,,,,,,,,1.926,1,,,,,,,,,,,,,,m,1,1.926,,,,,,,,0.268518536,-0.305555568,0,0,0,,0,3,3,8,1,TULIP,HB,old,m,./images/TULIPHB.png,,,,,,,,,,,,,,,,,,,,,,,,,,,,,,,,,,,
,,,,,,,,,,,,,,,,,5c7747a39e03960001742947,29,2022-02-12_12h46.21.917,lexical_decision_task_DD_L3,2021.2.3,Win32,59.95203837,,,,,,,,,,,0.7874,1,,,,,,,,,,,,,,z,1,0.7874,,,,,,,,0.268518536,-0.305555568,0,0,0,,0,4,4,104,1,GITTY,LB,old,z,./images/GITTYLB.png,,,,,,,,,,,,,,,,,,,,,,,,,,,,,,,,,,,
,,,,,,,,,,,,,,,,,5c7747a39e03960001742947,29,2022-02-12_12h46.21.917,lexical_decision_task_DD_L3,2021.2.3,Win32,59.95203837,,,,,,,,,,,0.6782,1,,,,,,,,,,,,,,z,1,0.6782,,,,,,,,0.268518536,-0.305555568,0,0,0,,0,5,5,87,1,TRING,C,old,z,./images/TRING.png,,,,,,,,,,,,,,,,,,,,,,,,,,,,,,,,,,,
,,,,,,,,,,,,,,,,,5c7747a39e03960001742947,29,2022-02-12_12h46.21.917,lexical_decision_task_DD_L3,2021.2.3,Win32,59.95203837,,,,,,,,,,,0.6839,0,,,,,,,,,,,,,,z,0,0.6839,,,,,,,,0.268518536,-0.305555568,0,0,0,,0,6,6,45,1,KITTEN,LB,old,m,./images/KITTENLB.png,,,,,,,,,,,,,,,,,,,,,,,,,,,,,,,,,,,
,,,,,,,,,,,,,,,,,5c7747a39e03960001742947,29,2022-02-12_12h46.21.917,lexical_decision_task_DD_L3,2021.2.3,Win32,59.95203837,,,,,,,,,,,0.6495,1,,,,,,,,,,,,,,z,1,0.6495,,,,,,,,0.268518536,-0.305555568,0,0,0,,0,7,7,96,1,KEAMS,C,old,z,./images/KEAMS.png,,,,,,,,,,,,,,,,,,,,,,,,,,,,,,,,,,,
,,,,,,,,,,,,,,,,,5c7747a39e03960001742947,29,2022-02-12_12h46.21.917,lexical_decision_task_DD_L3,2021.2.3,Win32,59.95203837,,,,,,,,,,,0.5817,1,,,,,,,,,,,,,,z,1,0.5817,,,,,,,,0.268518536,-0.305555568,0,0,0,,0,8,8,141,1,PLEET,C,old,z,./images/PLEET.png,,,,,,,,,,,,,,,,,,,,,,,,,,,,,,,,,,,
,,,,,,,,,,,,,,,,,5c7747a39e03960001742947,29,2022-02-12_12h46.21.917,lexical_decision_task_DD_L3,2021.2.3,Win32,59.95203837,,,,,,,,,,,0.7581,1,,,,,,,,,,,,,,z,1,0.7581,,,,,,,,0.268518536,-0.305555568,0,0,0,,0,9,9,122,1,BLOOT,LB,old,z,./images/BLOOTLB.png,,,,,,,,,,,,,,,,,,,,,,,,,,,,,,,,,,,
,,,,,,,,,,,,,,,,,5c7747a39e03960001742947,29,2022-02-12_12h46.21.917,lexical_decision_task_DD_L3,2021.2.3,Win32,59.95203837,,,,,,,,,,,0.5959,1,,,,,,,,,,,,,,m,1,0.5959,,,,,,,,0.268518536,-0.305555568,0,0,0,,0,10,10,7,1,PAINT,C,old,m,./images/PAINT.png,,,,,,,,,,,,,,,,,,,,,,,,,,,,,,,,,,,
,,,,,,,,,,,,,,,,,5c7747a39e03960001742947,29,2022-02-12_12h46.21.917,lexical_decision_task_DD_L3,2021.2.3,Win32,59.95203837,,,,,,,,,,,0.6292,1,,,,,,,,,,,,,,m,1,0.6292,,,,,,,,0.268518536,-0.305555568,0,0,0,,0,11,11,30,1,STORM,LB,old,m,./images/STORMLB.png,,,,,,,,,,,,,,,,,,,,,,,,,,,,,,,,,,,
,,,,,,,,,,,,,,,,,5c7747a39e03960001742947,29,2022-02-12_12h46.21.917,lexical_decision_task_DD_L3,2021.2.3,Win32,59.95203837,,,,,,,,,,,1.059,1,,,,,,,,,,,,,,z,1,1.059,,,,,,,,0.268518536,-0.305555568,0,0,0,,0,12,12,136,1,WERVE,HB,old,z,./images/WERVEHB.png,,,,,,,,,,,,,,,,,,,,,,,,,,,,,,,,,,,
,,,,,,,,,,,,,,,,,5c7747a39e03960001742947,29,2022-02-12_12h46.21.917,lexical_decision_task_DD_L3,2021.2.3,Win32,59.95203837,,,,,,,,,,,0.6713,1,,,,,,,,,,,,,,m,1,0.6713,,,,,,,,0.268518536,-0.305555568,0,0,0,,0,13,13,82,1,SUNSET,C,old,m,./images/SUNSET.png,,,,,,,,,,,,,,,,,,,,,,,,,,,,,,,,,,,
,,,,,,,,,,,,,,,,,5c7747a39e03960001742947,29,2022-02-12_12h46.21.917,lexical_decision_task_DD_L3,2021.2.3,Win32,59.95203837,,,,,,,,,,,2.3375,1,,,,,,,,,,,,,,m,1,2.3375,,,,,,,,0.268518536,-0.305555568,0,0,0,,0,14,14,65,1,FARMER,HB,old,m,./images/FARMERHB.png,,,,,,,,,,,,,,,,,,,,,,,,,,,,,,,,,,,
,,,,,,,,,,,,,,,,,5c7747a39e03960001742947,29,2022-02-12_12h46.21.917,lexical_decision_task_DD_L3,2021.2.3,Win32,59.95203837,,,,,,,,,,,0.7089,1,,,,,,,,,,,,,,z,1,0.7089,,,,,,,,0.268518536,-0.305555568,0,0,0,,0,15,15,119,1,PAFER,LB,old,z,./images/PAFERLB.png,,,,,,,,,,,,,,,,,,,,,,,,,,,,,,,,,,,
,,,,,,,,,,,,,,,,,5c7747a39e03960001742947,29,2022-02-12_12h46.21.917,lexical_decision_task_DD_L3,2021.2.3,Win32,59.95203837,,,,,,,,,,,0.6974,1,,,,,,,,,,,,,,m,1,0.6974,,,,,,,,0.268518536,-0.305555568,0,0,0,,0,16,16,4,1,MUSCLE,C,old,m,./images/MUSCLE.png,,,,,,,,,,,,,,,,,,,,,,,,,,,,,,,,,,,
,,,,,,,,,,,,,,,,,5c7747a39e03960001742947,29,2022-02-12_12h46.21.917,lexical_decision_task_DD_L3,2021.2.3,Win32,59.95203837,,,,,,,,,,,0.6686,1,,,,,,,,,,,,,,m,1,0.6686,,,,,,,,0.268518536,-0.305555568,0,0,0,,0,17,17,48,1,SPORT,LB,old,m,./images/SPORTLB.png,,,,,,,,,,,,,,,,,,,,,,,,,,,,,,,,,,,
,,,,,,,,,,,,,,,,,5c7747a39e03960001742947,29,2022-02-12_12h46.21.917,lexical_decision_task_DD_L3,2021.2.3,Win32,59.95203837,,,,,,,,,,,0.7523,1,,,,,,,,,,,,,,z,1,0.7523,,,,,,,,0.268518536,-0.305555568,0,0,0,,0,18,18,120,1,RINED,C,old,z,./images/RINED.png,,,,,,,,,,,,,,,,,,,,,,,,,,,,,,,,,,,
,,,,,,,,,,,,,,,,,5c7747a39e03960001742947,29,2022-02-12_12h46.21.917,lexical_decision_task_DD_L3,2021.2.3,Win32,59.95203837,,,,,,,,,,,0.7436,1,,,,,,,,,,,,,,m,1,0.7436,,,,,,,,0.268518536,-0.305555568,0,0,0,,0,19,19,67,1,SAILOR,C,old,m,./images/SAILOR.png,,,,,,,,,,,,,,,,,,,,,,,,,,,,,,,,,,,
,,,,,,,,,,,,,,,,,5c7747a39e03960001742947,29,2022-02-12_12h46.21.917,lexical_decision_task_DD_L3,2021.2.3,Win32,59.95203837,,,,,,,,,,,1.001,1,,,,,,,,,,,,,,m,1,1.001,,,,,,,,0.268518536,-0.305555568,0,0,0,,0,20,20,74,1,CEMENT,HB,old,m,./images/CEMENTHB.png,,,,,,,,,,,,,,,,,,,,,,,,,,,,,,,,,,,
,,,,,,,,,,,,,,,,,5c7747a39e03960001742947,29,2022-02-12_12h46.21.917,lexical_decision_task_DD_L3,2021.2.3,Win32,59.95203837,,,,,,,,,,,0.8513,1,,,,,,,,,,,,,,z,1,0.8513,,,,,,,,0.268518536,-0.305555568,0,0,0,,0,21,21,158,1,EGECT,LB,old,z,./images/EGECTLB.png,,,,,,,,,,,,,,,,,,,,,,,,,,,,,,,,,,,
,,,,,,,,,,,,,,,,,5c7747a39e03960001742947,29,2022-02-12_12h46.21.917,lexical_decision_task_DD_L3,2021.2.3,Win32,59.95203837,,,,,,,,,,,0.7927,1,,,,,,,,,,,,,,m,1,0.7927,,,,,,,,0.268518536,-0.305555568,0,0,0,,0,22,22,58,1,BABOON,C,old,m,./images/BABOON.png,,,,,,,,,,,,,,,,,,,,,,,,,,,,,,,,,,,
,,,,,,,,,,,,,,,,,5c7747a39e03960001742947,29,2022-02-12_12h46.21.917,lexical_decision_task_DD_L3,2021.2.3,Win32,59.95203837,,,,,,,,,,,0.7526,1,,,,,,,,,,,,,,m,1,0.7526,,,,,,,,0.268518536,-0.305555568,0,0,0,,0,23,23,66,1,SWEAT,LB,old,m,./images/SWEATLB.png,,,,,,,,,,,,,,,,,,,,,,,,,,,,,,,,,,,
,,,,,,,,,,,,,,,,,5c7747a39e03960001742947,29,2022-02-12_12h46.21.917,lexical_decision_task_DD_L3,2021.2.3,Win32,59.95203837,,,,,,,,,,,0.717,1,,,,,,,,,,,,,,z,1,0.717,,,,,,,,0.268518536,-0.305555568,0,0,0,,0,24,24,149,1,VEASE,LB,old,z,./images/VEASELB.png,,,,,,,,,,,,,,,,,,,,,,,,,,,,,,,,,,,
,,,,,,,,,,,,,,,,,5c7747a39e03960001742947,29,2022-02-12_12h46.21.917,lexical_decision_task_DD_L3,2021.2.3,Win32,59.95203837,,,,,,,,,,,1.1337,1,,,,,,,,,,,,,,z,1,1.1337,,,,,,,,0.268518536,-0.305555568,0,0,0,,0,25,25,148,1,JOMS,HB,old,z,./images/JOMSHB.png,,,,,,,,,,,,,,,,,,,,,,,,,,,,,,,,,,,
,,,,,,,,,,,,,,,,,5c7747a39e03960001742947,29,2022-02-12_12h46.21.917,lexical_decision_task_DD_L3,2021.2.3,Win32,59.95203837,,,,,,,,,,,1.5159,1,,,,,,,,,,,,,,m,1,1.5159,,,,,,,,0.268518536,-0.305555568,0,0,0,,0,26,26,73,1,SNACK,C,old,m,./images/SNACK.png,,,,,,,,,,,,,,,,,,,,,,,,,,,,,,,,,,,
,,,,,,,,,,,,,,,,,5c7747a39e03960001742947,29,2022-02-12_12h46.21.917,lexical_decision_task_DD_L3,2021.2.3,Win32,59.95203837,,,,,,,,,,,0.8276,1,,,,,,,,,,,,,,m,1,0.8276,,,,,,,,0.268518536,-0.305555568,0,0,0,,0,27,27,22,1,MELON,C,old,m,./images/MELON.png,,,,,,,,,,,,,,,,,,,,,,,,,,,,,,,,,,,
,,,,,,,,,,,,,,,,,5c7747a39e03960001742947,29,2022-02-12_12h46.21.917,lexical_decision_task_DD_L3,2021.2.3,Win32,59.95203837,,,,,,,,,,,0.8837,1,,,,,,,,,,,,,,m,1,0.8837,,,,,,,,0.268518536,-0.305555568,0,0,0,,0,28,28,47,1,BERRY,HB,old,m,./images/BERRYHB.png,,,,,,,,,,,,,,,,,,,,,,,,,,,,,,,,,,,
,,,,,,,,,,,,,,,,,5c7747a39e03960001742947,29,2022-02-12_12h46.21.917,lexical_decision_task_DD_L3,2021.2.3,Win32,59.95203837,,,,,,,,,,,0.855,1,,,,,,,,,,,,,,m,1,0.855,,,,,,,,0.268518536,-0.305555568,0,0,0,,0,29,29,77,1,COUCH,HB,old,m,./images/COUCHHB.png,,,,,,,,,,,,,,,,,,,,,,,,,,,,,,,,,,,
,,,,,,,,,,,,,,,,,5c7747a39e03960001742947,29,2022-02-12_12h46.21.917,lexical_decision_task_DD_L3,2021.2.3,Win32,59.95203837,,,,,,,,,,,0.7861,1,,,,,,,,,,,,,,z,1,0.7861,,,,,,,,0.268518536,-0.305555568,0,0,0,,0,30,30,128,1,GRIFT,LB,old,z,./images/GRIFTLB.png,,,,,,,,,,,,,,,,,,,,,,,,,,,,,,,,,,,
,,,,,,,,,,,,,,,,,5c7747a39e03960001742947,29,2022-02-12_12h46.21.917,lexical_decision_task_DD_L3,2021.2.3,Win32,59.95203837,,,,,,,,,,,0.9451,1,,,,,,,,,,,,,,m,1,0.9451,,,,,,,,0.268518536,-0.305555568,0,0,0,,0,31,31,41,1,STRING,HB,old,m,./images/STRINGHB.png,,,,,,,,,,,,,,,,,,,,,,,,,,,,,,,,,,,
,,,,,,,,,,,,,,,,,5c7747a39e03960001742947,29,2022-02-12_12h46.21.917,lexical_decision_task_DD_L3,2021.2.3,Win32,59.95203837,,,,,,,,,,,0.5783,1,,,,,,,,,,,,,,m,1,0.5783,,,,,,,,0.268518536,-0.305555568,0,0,0,,0,32,32,49,1,DRUMS,C,old,m,./images/DRUMS.png,,,,,,,,,,,,,,,,,,,,,,,,,,,,,,,,,,,
,,,,,,,,,,,,,,,,,5c7747a39e03960001742947,29,2022-02-12_12h46.21.917,lexical_decision_task_DD_L3,2021.2.3,Win32,59.95203837,,,,,,,,,,,0.7601,1,,,,,,,,,,,,,,m,1,0.7601,,,,,,,,0.268518536,-0.305555568,0,0,0,,0,33,33,72,1,NOOSE,LB,old,m,./images/NOOSELB.png,,,,,,,,,,,,,,,,,,,,,,,,,,,,,,,,,,,
,,,,,,,,,,,,,,,,,5c7747a39e03960001742947,29,2022-02-12_12h46.21.917,lexical_decision_task_DD_L3,2021.2.3,Win32,59.95203837,,,,,,,,,,,1.7078,0,,,,,,,,,,,,,,m,0,1.7078,,,,,,,,0.268518536,-0.305555568,0,0,0,,0,34,34,100,1,DRIBS,HB,old,z,./images/DRIBSHB.png,,,,,,,,,,,,,,,,,,,,,,,,,,,,,,,,,,,
,,,,,,,,,,,,,,,,,5c7747a39e03960001742947,29,2022-02-12_12h46.21.917,lexical_decision_task_DD_L3,2021.2.3,Win32,59.95203837,,,,,,,,,,,1.1334,1,,,,,,,,,,,,,,m,1,1.1334,,,,,,,,0.268518536,-0.305555568,0,0,0,,0,35,35,29,1,CRUMB,HB,old,m,./images/CRUMBHB.png,,,,,,,,,,,,,,,,,,,,,,,,,,,,,,,,,,,
,,,,,,,,,,,,,,,,,5c7747a39e03960001742947,29,2022-02-12_12h46.21.917,lexical_decision_task_DD_L3,2021.2.3,Win32,59.95203837,,,,,,,,,,,0.8061,1,,,,,,,,,,,,,,m,1,0.8061,,,,,,,,0.268518536,-0.305555568,0,0,0,,0,36,36,25,1,WRIST,C,old,m,./images/WRIST.png,,,,,,,,,,,,,,,,,,,,,,,,,,,,,,,,,,,
,,,,,,,,,,,,,,,,,5c7747a39e03960001742947,29,2022-02-12_12h46.21.917,lexical_decision_task_DD_L3,2021.2.3,Win32,59.95203837,,,,,,,,,,,0.8388,1,,,,,,,,,,,,,,z,1,0.8388,,,,,,,,0.268518536,-0.305555568,0,0,0,,0,37,37,142,1,PLASK,HB,old,z,./images/PLASKHB.png,,,,,,,,,,,,,,,,,,,,,,,,,,,,,,,,,,,
,,,,,,,,,,,,,,,,,5c7747a39e03960001742947,29,2022-02-12_12h46.21.917,lexical_decision_task_DD_L3,2021.2.3,Win32,59.95203837,,,,,,,,,,,0.7552,1,,,,,,,,,,,,,,m,1,0.7552,,,,,,,,0.268518536,-0.305555568,0,0,0,,0,38,38,20,1,CRADLE,HB,old,m,./images/CRADLEHB.png,,,,,,,,,,,,,,,,,,,,,,,,,,,,,,,,,,,
,,,,,,,,,,,,,,,,,5c7747a39e03960001742947,29,2022-02-12_12h46.21.917,lexical_decision_task_DD_L3,2021.2.3,Win32,59.95203837,,,,,,,,,,,0.9838,1,,,,,,,,,,,,,,z,1,0.9838,,,,,,,,0.268518536,-0.305555568,0,0,0,,0,39,39,91,1,SHENS,HB,old,z,./images/SHENSHB.png,,,,,,,,,,,,,,,,,,,,,,,,,,,,,,,,,,,
,,,,,,,,,,,,,,,,,5c7747a39e03960001742947,29,2022-02-12_12h46.21.917,lexical_decision_task_DD_L3,2021.2.3,Win32,59.95203837,,,,,,,,,,,0.8339,1,,,,,,,,,,,,,,m,1,0.8339,,,,,,,,0.268518536,-0.305555568,0,0,0,,0,40,40,78,1,LITTER,LB,old,m,./images/LITTERLB.png,,,,,,,,,,,,,,,,,,,,,,,,,,,,,,,,,,,
,,,,,,,,,,,,,,,,,5c7747a39e03960001742947,29,2022-02-12_12h46.21.917,lexical_decision_task_DD_L3,2021.2.3,Win32,59.95203837,,,,,,,,,,,0.8172,1,,,,,,,,,,,,,,m,1,0.8172,,,,,,,,0.268518536,-0.305555568,0,0,0,space,0,41,41,44,1,LIZARD,HB,old,m,./images/LIZARDHB.png,4.0393,,,,,,,,,,,,,,,,,,,,,,,,,,,,,,,,,,
,,,,,,,,,,,,,,,,,5c7747a39e03960001742947,29,2022-02-12_12h46.21.917,lexical_decision_task_DD_L3,2021.2.3,Win32,59.95203837,,,,,,,,,,,0.6228,1,,,,,,,,,,,,,,m,1,0.6228,,,,,,,,0.268518536,-0.305555568,0,0,0,,0,42,42,50,1,MALLET,HB,old,m,./images/MALLETHB.png,,,,,,,,,,,,,,,,,,,,,,,,,,,,,,,,,,,
,,,,,,,,,,,,,,,,,5c7747a39e03960001742947,29,2022-02-12_12h46.21.917,lexical_decision_task_DD_L3,2021.2.3,Win32,59.95203837,,,,,,,,,,,0.614,1,,,,,,,,,,,,,,m,1,0.614,,,,,,,,0.268518536,-0.305555568,0,0,0,,0,43,43,34,1,CANYON,C,old,m,./images/CANYON.png,,,,,,,,,,,,,,,,,,,,,,,,,,,,,,,,,,,
,,,,,,,,,,,,,,,,,5c7747a39e03960001742947,29,2022-02-12_12h46.21.917,lexical_decision_task_DD_L3,2021.2.3,Win32,59.95203837,,,,,,,,,,,1.2767,1,,,,,,,,,,,,,,m,1,1.2767,,,,,,,,0.268518536,-0.305555568,0,0,0,,0,44,44,38,1,LADDER,HB,old,m,./images/LADDERHB.png,,,,,,,,,,,,,,,,,,,,,,,,,,,,,,,,,,,
,,,,,,,,,,,,,,,,,5c7747a39e03960001742947,29,2022-02-12_12h46.21.917,lexical_decision_task_DD_L3,2021.2.3,Win32,59.95203837,,,,,,,,,,,0.6338,1,,,,,,,,,,,,,,m,1,0.6338,,,,,,,,0.268518536,-0.305555568,0,0,0,,0,45,45,68,1,TORCH,HB,old,m,./images/TORCHHB.png,,,,,,,,,,,,,,,,,,,,,,,,,,,,,,,,,,,
,,,,,,,,,,,,,,,,,5c7747a39e03960001742947,29,2022-02-12_12h46.21.917,lexical_decision_task_DD_L3,2021.2.3,Win32,59.95203837,,,,,,,,,,,0.571,1,,,,,,,,,,,,,,m,1,0.571,,,,,,,,0.268518536,-0.305555568,0,0,0,,0,46,46,21,1,KIDNEY,LB,old,m,./images/KIDNEYLB.png,,,,,,,,,,,,,,,,,,,,,,,,,,,,,,,,,,,
,,,,,,,,,,,,,,,,,5c7747a39e03960001742947,29,2022-02-12_12h46.21.917,lexical_decision_task_DD_L3,2021.2.3,Win32,59.95203837,,,,,,,,,,,0.6936,1,,,,,,,,,,,,,,m,1,0.6936,,,,,,,,0.268518536,-0.305555568,0,0,0,,0,47,47,40,1,SWING,C,old,m,./images/SWING.png,,,,,,,,,,,,,,,,,,,,,,,,,,,,,,,,,,,
,,,,,,,,,,,,,,,,,5c7747a39e03960001742947,29,2022-02-12_12h46.21.917,lexical_decision_task_DD_L3,2021.2.3,Win32,59.95203837,,,,,,,,,,,0.6014,1,,,,,,,,,,,,,,m,1,0.6014,,,,,,,,0.268518536,-0.305555568,0,0,0,,0,48,48,5,1,PASTA,HB,old,m,./images/PASTAHB.png,,,,,,,,,,,,,,,,,,,,,,,,,,,,,,,,,,,
,,,,,,,,,,,,,,,,,5c7747a39e03960001742947,29,2022-02-12_12h46.21.917,lexical_decision_task_DD_L3,2021.2.3,Win32,59.95203837,,,,,,,,,,,0.6007,1,,,,,,,,,,,,,,m,1,0.6007,,,,,,,,0.268518536,-0.305555568,0,0,0,,0,49,49,33,1,MAGGOT,LB,old,m,./images/MAGGOTLB.png,,,,,,,,,,,,,,,,,,,,,,,,,,,,,,,,,,,
,,,,,,,,,,,,,,,,,5c7747a39e03960001742947,29,2022-02-12_12h46.21.917,lexical_decision_task_DD_L3,2021.2.3,Win32,59.95203837,,,,,,,,,,,0.8439,1,,,,,,,,,,,,,,z,1,0.8439,,,,,,,,0.268518536,-0.305555568,0,0,0,,0,50,50,165,1,TROWN,C,old,z,./images/TROWN.png,,,,,,,,,,,,,,,,,,,,,,,,,,,,,,,,,,,
,,,,,,,,,,,,,,,,,5c7747a39e03960001742947,29,2022-02-12_12h46.21.917,lexical_decision_task_DD_L3,2021.2.3,Win32,59.95203837,,,,,,,,,,,1.0511,1,,,,,,,,,,,,,,z,1,1.0511,,,,,,,,0.268518536,-0.305555568,0,0,0,,0,51,51,115,1,MAWNS,HB,old,z,./images/MAWNSHB.png,,,,,,,,,,,,,,,,,,,,,,,,,,,,,,,,,,,
,,,,,,,,,,,,,,,,,5c7747a39e03960001742947,29,2022-02-12_12h46.21.917,lexical_decision_task_DD_L3,2021.2.3,Win32,59.95203837,,,,,,,,,,,0.777,1,,,,,,,,,,,,,,z,1,0.777,,,,,,,,0.268518536,-0.305555568,0,0,0,,0,52,52,107,1,FASKS,LB,old,z,./images/FASKSLB.png,,,,,,,,,,,,,,,,,,,,,,,,,,,,,,,,,,,
,,,,,,,,,,,,,,,,,5c7747a39e03960001742947,29,2022-02-12_12h46.21.917,lexical_decision_task_DD_L3,2021.2.3,Win32,59.95203837,,,,,,,,,,,0.6346,1,,,,,,,,,,,,,,m,1,0.6346,,,,,,,,0.268518536,-0.305555568,0,0,0,,0,53,53,83,1,JUNGLE,HB,old,m,./images/JUNGLEHB.png,,,,,,,,,,,,,,,,,,,,,,,,,,,,,,,,,,,
,,,,,,,,,,,,,,,,,5c7747a39e03960001742947,29,2022-02-12_12h46.21.917,lexical_decision_task_DD_L3,2021.2.3,Win32,59.95203837,,,,,,,,,,,0.6531,1,,,,,,,,,,,,,,z,1,0.6531,,,,,,,,0.268518536,-0.305555568,0,0,0,,0,54,54,92,1,PAIMS,LB,old,z,./images/PAIMSLB.png,,,,,,,,,,,,,,,,,,,,,,,,,,,,,,,,,,,
,,,,,,,,,,,,,,,,,5c7747a39e03960001742947,29,2022-02-12_12h46.21.917,lexical_decision_task_DD_L3,2021.2.3,Win32,59.95203837,,,,,,,,,,,0.7673,1,,,,,,,,,,,,,,z,1,0.7673,,,,,,,,0.268518536,-0.305555568,0,0,0,,0,55,55,145,1,LAMEL,HB,old,z,./images/LAMELHB.png,,,,,,,,,,,,,,,,,,,,,,,,,,,,,,,,,,,
,,,,,,,,,,,,,,,,,5c7747a39e03960001742947,29,2022-02-12_12h46.21.917,lexical_decision_task_DD_L3,2021.2.3,Win32,59.95203837,,,,,,,,,,,0.5268,1,,,,,,,,,,,,,,m,1,0.5268,,,,,,,,0.268518536,-0.305555568,0,0,0,,0,56,56,6,1,SQUARE,LB,old,m,./images/SQUARELB.png,,,,,,,,,,,,,,,,,,,,,,,,,,,,,,,,,,,
,,,,,,,,,,,,,,,,,5c7747a39e03960001742947,29,2022-02-12_12h46.21.917,lexical_decision_task_DD_L3,2021.2.3,Win32,59.95203837,,,,,,,,,,,0.8265,1,,,,,,,,,,,,,,z,1,0.8265,,,,,,,,0.268518536,-0.305555568,0,0,0,,0,57,57,121,1,CEERS,HB,old,z,./images/CEERSHB.png,,,,,,,,,,,,,,,,,,,,,,,,,,,,,,,,,,,
,,,,,,,,,,,,,,,,,5c7747a39e03960001742947,29,2022-02-12_12h46.21.917,lexical_decision_task_DD_L3,2021.2.3,Win32,59.95203837,,,,,,,,,,,0.7012,1,,,,,,,,,,,,,,m,1,0.7012,,,,,,,,0.268518536,-0.305555568,0,0,0,,0,58,58,27,1,ATTIC,LB,old,m,./images/ATTICLB.png,,,,,,,,,,,,,,,,,,,,,,,,,,,,,,,,,,,
,,,,,,,,,,,,,,,,,5c7747a39e03960001742947,29,2022-02-12_12h46.21.917,lexical_decision_task_DD_L3,2021.2.3,Win32,59.95203837,,,,,,,,,,,1.0342,1,,,,,,,,,,,,,,z,1,1.0342,,,,,,,,0.268518536,-0.305555568,0,0,0,,0,59,59,157,1,INLER,HB,old,z,./images/INLERHB.png,,,,,,,,,,,,,,,,,,,,,,,,,,,,,,,,,,,
,,,,,,,,,,,,,,,,,5c7747a39e03960001742947,29,2022-02-12_12h46.21.917,lexical_decision_task_DD_L3,2021.2.3,Win32,59.95203837,,,,,,,,,,,0.7594,1,,,,,,,,,,,,,,z,1,0.7594,,,,,,,,0.268518536,-0.305555568,0,0,0,,0,60,60,164,1,SGREW,LB,old,z,./images/SGREWLB.png,,,,,,,,,,,,,,,,,,,,,,,,,,,,,,,,,,,
,,,,,,,,,,,,,,,,,5c7747a39e03960001742947,29,2022-02-12_12h46.21.917,lexical_decision_task_DD_L3,2021.2.3,Win32,59.95203837,,,,,,,,,,,0.736,1,,,,,,,,,,,,,,z,1,0.736,,,,,,,,0.268518536,-0.305555568,0,0,0,,0,61,61,143,1,MONGS,LB,old,z,./images/MONGSLB.png,,,,,,,,,,,,,,,,,,,,,,,,,,,,,,,,,,,
,,,,,,,,,,,,,,,,,5c7747a39e03960001742947,29,2022-02-12_12h46.21.917,lexical_decision_task_DD_L3,2021.2.3,Win32,59.95203837,,,,,,,,,,,0.6636,1,,,,,,,,,,,,,,z,1,0.6636,,,,,,,,0.268518536,-0.305555568,0,0,0,,0,62,62,150,1,NOOLS,C,old,z,./images/NOOLS.png,,,,,,,,,,,,,,,,,,,,,,,,,,,,,,,,,,,
,,,,,,,,,,,,,,,,,5c7747a39e03960001742947,29,2022-02-12_12h46.21.917,lexical_decision_task_DD_L3,2021.2.3,Win32,59.95203837,,,,,,,,,,,0.6246,1,,,,,,,,,,,,,,m,1,0.6246,,,,,,,,0.268518536,-0.305555568,0,0,0,,0,63,63,51,1,ONION,LB,old,m,./images/ONIONLB.png,,,,,,,,,,,,,,,,,,,,,,,,,,,,,,,,,,,
,,,,,,,,,,,,,,,,,5c7747a39e03960001742947,29,2022-02-12_12h46.21.917,lexical_decision_task_DD_L3,2021.2.3,Win32,59.95203837,,,,,,,,,,,0.8746,1,,,,,,,,,,,,,,m,1,0.8746,,,,,,,,0.268518536,-0.305555568,0,0,0,,0,64,64,2,1,BEARD,HB,old,m,./images/BEARDHB.png,,,,,,,,,,,,,,,,,,,,,,,,,,,,,,,,,,,
,,,,,,,,,,,,,,,,,5c7747a39e03960001742947,29,2022-02-12_12h46.21.917,lexical_decision_task_DD_L3,2021.2.3,Win32,59.95203837,,,,,,,,,,,1.5137,1,,,,,,,,,,,,,,m,1,1.5137,,,,,,,,0.268518536,-0.305555568,0,0,0,,0,65,65,16,1,PENCE,C,old,m,./images/PENCE.png,,,,,,,,,,,,,,,,,,,,,,,,,,,,,,,,,,,
,,,,,,,,,,,,,,,,,5c7747a39e03960001742947,29,2022-02-12_12h46.21.917,lexical_decision_task_DD_L3,2021.2.3,Win32,59.95203837,,,,,,,,,,,1.1179,1,,,,,,,,,,,,,,z,1,1.1179,,,,,,,,0.268518536,-0.305555568,0,0,0,,0,66,66,139,1,BLEAR,HB,old,z,./images/BLEARHB.png,,,,,,,,,,,,,,,,,,,,,,,,,,,,,,,,,,,
,,,,,,,,,,,,,,,,,5c7747a39e03960001742947,29,2022-02-12_12h46.21.917,lexical_decision_task_DD_L3,2021.2.3,Win32,59.95203837,,,,,,,,,,,0.8942,1,,,,,,,,,,,,,,z,1,0.8942,,,,,,,,0.268518536,-0.305555568,0,0,0,,0,67,67,130,1,CRILL,HB,old,z,./images/CRILLHB.png,,,,,,,,,,,,,,,,,,,,,,,,,,,,,,,,,,,
,,,,,,,,,,,,,,,,,5c7747a39e03960001742947,29,2022-02-12_12h46.21.917,lexical_decision_task_DD_L3,2021.2.3,Win32,59.95203837,,,,,,,,,,,1.0698,1,,,,,,,,,,,,,,z,1,1.0698,,,,,,,,0.268518536,-0.305555568,0,0,0,,0,68,68,94,1,BLANS,HB,old,z,./images/BLANSHB.png,,,,,,,,,,,,,,,,,,,,,,,,,,,,,,,,,,,
,,,,,,,,,,,,,,,,,5c7747a39e03960001742947,29,2022-02-12_12h46.21.917,lexical_decision_task_DD_L3,2021.2.3,Win32,59.95203837,,,,,,,,,,,1.2229,1,,,,,,,,,,,,,,z,1,1.2229,,,,,,,,0.268518536,-0.305555568,0,0,0,,0,69,69,112,1,MYING,HB,old,z,./images/MYINGHB.png,,,,,,,,,,,,,,,,,,,,,,,,,,,,,,,,,,,
,,,,,,,,,,,,,,,,,5c7747a39e03960001742947,29,2022-02-12_12h46.21.917,lexical_decision_task_DD_L3,2021.2.3,Win32,59.95203837,,,,,,,,,,,0.6758,1,,,,,,,,,,,,,,m,1,0.6758,,,,,,,,0.268518536,-0.305555568,0,0,0,,0,70,70,28,1,FALCON,C,old,m,./images/FALCON.png,,,,,,,,,,,,,,,,,,,,,,,,,,,,,,,,,,,
,,,,,,,,,,,,,,,,,5c7747a39e03960001742947,29,2022-02-12_12h46.21.917,lexical_decision_task_DD_L3,2021.2.3,Win32,59.95203837,,,,,,,,,,,0.7171,1,,,,,,,,,,,,,,m,1,0.7171,,,,,,,,0.268518536,-0.305555568,0,0,0,,0,71,71,80,1,WEASEL,HB,old,m,./images/WEASELHB.png,,,,,,,,,,,,,,,,,,,,,,,,,,,,,,,,,,,
,,,,,,,,,,,,,,,,,5c7747a39e03960001742947,29,2022-02-12_12h46.21.917,lexical_decision_task_DD_L3,2021.2.3,Win32,59.95203837,,,,,,,,,,,1.1879,1,,,,,,,,,,,,,,m,1,1.1879,,,,,,,,0.268518536,-0.305555568,0,0,0,,0,72,72,56,1,PACKET,HB,old,m,./images/PACKETHB.png,,,,,,,,,,,,,,,,,,,,,,,,,,,,,,,,,,,
,,,,,,,,,,,,,,,,,5c7747a39e03960001742947,29,2022-02-12_12h46.21.917,lexical_decision_task_DD_L3,2021.2.3,Win32,59.95203837,,,,,,,,,,,1.4379,0,,,,,,,,,,,,,,m,0,1.4379,,,,,,,,0.268518536,-0.305555568,0,0,0,,0,73,73,110,1,CRUNK,LB,old,z,./images/CRUNKLB.png,,,,,,,,,,,,,,,,,,,,,,,,,,,,,,,,,,,
,,,,,,,,,,,,,,,,,5c7747a39e03960001742947,29,2022-02-12_12h46.21.917,lexical_decision_task_DD_L3,2021.2.3,Win32,59.95203837,,,,,,,,,,,0.7672,1,,,,,,,,,,,,,,z,1,0.7672,,,,,,,,0.268518536,-0.305555568,0,0,0,,0,74,74,86,1,AIFED,LB,old,z,./images/AIFEDLB.png,,,,,,,,,,,,,,,,,,,,,,,,,,,,,,,,,,,
,,,,,,,,,,,,,,,,,5c7747a39e03960001742947,29,2022-02-12_12h46.21.917,lexical_decision_task_DD_L3,2021.2.3,Win32,59.95203837,,,,,,,,,,,0.6686,1,,,,,,,,,,,,,,m,1,0.6686,,,,,,,,0.268518536,-0.305555568,0,0,0,,0,75,75,55,1,MUFFIN,C,old,m,./images/MUFFIN.png,,,,,,,,,,,,,,,,,,,,,,,,,,,,,,,,,,,
,,,,,,,,,,,,,,,,,5c7747a39e03960001742947,29,2022-02-12_12h46.21.917,lexical_decision_task_DD_L3,2021.2.3,Win32,59.95203837,,,,,,,,,,,0.6006,1,,,,,,,,,,,,,,m,1,0.6006,,,,,,,,0.268518536,-0.305555568,0,0,0,,0,76,76,62,1,PURSE,HB,old,m,./images/PURSEHB.png,,,,,,,,,,,,,,,,,,,,,,,,,,,,,,,,,,,
,,,,,,,,,,,,,,,,,5c7747a39e03960001742947,29,2022-02-12_12h46.21.917,lexical_decision_task_DD_L3,2021.2.3,Win32,59.95203837,,,,,,,,,,,0.9172,1,,,,,,,,,,,,,,z,1,0.9172,,,,,,,,0.268518536,-0.305555568,0,0,0,,0,77,77,134,1,TROSS,LB,old,z,./images/TROSSLB.png,,,,,,,,,,,,,,,,,,,,,,,,,,,,,,,,,,,
,,,,,,,,,,,,,,,,,5c7747a39e03960001742947,29,2022-02-12_12h46.21.917,lexical_decision_task_DD_L3,2021.2.3,Win32,59.95203837,,,,,,,,,,,0.6103,1,,,,,,,,,,,,,,z,1,0.6103,,,,,,,,0.268518536,-0.305555568,0,0,0,,0,78,78,135,1,JOODY,C,old,z,./images/JOODY.png,,,,,,,,,,,,,,,,,,,,,,,,,,,,,,,,,,,
,,,,,,,,,,,,,,,,,5c7747a39e03960001742947,29,2022-02-12_12h46.21.917,lexical_decision_task_DD_L3,2021.2.3,Win32,59.95203837,,,,,,,,,,,0.6829,1,,,,,,,,,,,,,,z,1,0.6829,,,,,,,,0.268518536,-0.305555568,0,0,0,,0,79,79,153,1,CLUPS,C,old,z,./images/CLUPS.png,,,,,,,,,,,,,,,,,,,,,,,,,,,,,,,,,,,
,,,,,,,,,,,,,,,,,5c7747a39e03960001742947,29,2022-02-12_12h46.21.917,lexical_decision_task_DD_L3,2021.2.3,Win32,59.95203837,,,,,,,,,,,0.6363,1,,,,,,,,,,,,,,z,1,0.6363,,,,,,,,0.268518536,-0.305555568,0,0,0,,0,80,80,111,1,HOSSE,C,old,z,./images/HOSSE.png,,,,,,,,,,,,,,,,,,,,,,,,,,,,,,,,,,,
,,,,,,,,,,,,,,,,,5c7747a39e03960001742947,29,2022-02-12_12h46.21.917,lexical_decision_task_DD_L3,2021.2.3,Win32,59.95203837,,,,,,,,,,,0.8338,0,,,,,,,,,,,,,,z,0,0.8338,,,,,,,,0.268518536,-0.305555568,0,0,0,,0,81,81,11,1,BONNET,HB,old,m,./images/BONNETHB.png,,,,,,,,,,,,,,,,,,,,,,,,,,,,,,,,,,,
,,,,,,,,,,,,,,,,,5c7747a39e03960001742947,29,2022-02-12_12h46.21.917,lexical_decision_task_DD_L3,2021.2.3,Win32,59.95203837,,,,,,,,,,,0.8338,1,,,,,,,,,,,,,,z,1,0.8338,,,,,,,,0.268518536,-0.305555568,0,0,0,,0,82,82,146,1,MOOST,LB,old,z,./images/MOOSTLB.png,,,,,,,,,,,,,,,,,,,,,,,,,,,,,,,,,,,
,,,,,,,,,,,,,,,,,5c7747a39e03960001742947,29,2022-02-12_12h46.21.917,lexical_decision_task_DD_L3,2021.2.3,Win32,59.95203837,,,,,,,,,,,0.7027,1,,,,,,,,,,,,,,m,1,0.7027,,,,,,,,0.268518536,-0.305555568,0,0,0,space,0,83,83,76,1,INFANT,C,old,m,./images/INFANT.png,2.1202,,,,,,,,,,,,,,,,,,,,,,,,,,,,,,,,,,
,,,,,,,,,,,,,,,,,5c7747a39e03960001742947,29,2022-02-12_12h46.21.917,lexical_decision_task_DD_L3,2021.2.3,Win32,59.95203837,,,,,,,,,,,0.608,1,,,,,,,,,,,,,,m,1,0.608,,,,,,,,0.268518536,-0.305555568,0,0,0,,0,84,84,12,1,SHORE,LB,old,m,./images/SHORELB.png,,,,,,,,,,,,,,,,,,,,,,,,,,,,,,,,,,,
,,,,,,,,,,,,,,,,,5c7747a39e03960001742947,29,2022-02-12_12h46.21.917,lexical_decision_task_DD_L3,2021.2.3,Win32,59.95203837,,,,,,,,,,,0.4981,1,,,,,,,,,,,,,,m,1,0.4981,,,,,,,,0.268518536,-0.305555568,0,0,0,,0,85,85,52,1,BANNER,C,old,m,./images/BANNER.png,,,,,,,,,,,,,,,,,,,,,,,,,,,,,,,,,,,
,,,,,,,,,,,,,,,,,5c7747a39e03960001742947,29,2022-02-12_12h46.21.917,lexical_decision_task_DD_L3,2021.2.3,Win32,59.95203837,,,,,,,,,,,0.7553,1,,,,,,,,,,,,,,m,1,0.7553,,,,,,,,0.268518536,-0.305555568,0,0,0,,0,86,86,1,1,PLANK,C,old,m,./images/PLANK.png,,,,,,,,,,,,,,,,,,,,,,,,,,,,,,,,,,,
,,,,,,,,,,,,,,,,,5c7747a39e03960001742947,29,2022-02-12_12h46.21.917,lexical_decision_task_DD_L3,2021.2.3,Win32,59.95203837,,,,,,,,,,,0.6302,1,,,,,,,,,,,,,,z,1,0.6302,,,,,,,,0.268518536,-0.305555568,0,0,0,,0,87,87,93,1,SMONE,C,old,z,./images/SMONE.png,,,,,,,,,,,,,,,,,,,,,,,,,,,,,,,,,,,
,,,,,,,,,,,,,,,,,5c7747a39e03960001742947,29,2022-02-12_12h46.21.917,lexical_decision_task_DD_L3,2021.2.3,Win32,59.95203837,,,,,,,,,,,0.6528,1,,,,,,,,,,,,,,z,1,0.6528,,,,,,,,0.268518536,-0.305555568,0,0,0,,0,88,88,99,1,BACKY,C,old,z,./images/BACKY.png,,,,,,,,,,,,,,,,,,,,,,,,,,,,,,,,,,,
,,,,,,,,,,,,,,,,,5c7747a39e03960001742947,29,2022-02-12_12h46.21.917,lexical_decision_task_DD_L3,2021.2.3,Win32,59.95203837,,,,,,,,,,,0.5676,0,,,,,,,,,,,,,,z,0,0.5676,,,,,,,,0.268518536,-0.305555568,0,0,0,,0,89,89,75,1,GRAIN,LB,old,m,./images/GRAINLB.png,,,,,,,,,,,,,,,,,,,,,,,,,,,,,,,,,,,
,,,,,,,,,,,,,,,,,5c7747a39e03960001742947,29,2022-02-12_12h46.21.917,lexical_decision_task_DD_L3,2021.2.3,Win32,59.95203837,,,,,,,,,,,0.8186,1,,,,,,,,,,,,,,m,1,0.8186,,,,,,,,0.268518536,-0.305555568,0,0,0,,0,90,90,54,1,TRIPOD,LB,old,m,./images/TRIPODLB.png,,,,,,,,,,,,,,,,,,,,,,,,,,,,,,,,,,,
,,,,,,,,,,,,,,,,,5c7747a39e03960001742947,29,2022-02-12_12h46.21.917,lexical_decision_task_DD_L3,2021.2.3,Win32,59.95203837,,,,,,,,,,,0.9547,1,,,,,,,,,,,,,,z,1,0.9547,,,,,,,,0.268518536,-0.305555568,0,0,0,,0,91,91,118,1,BAVEL,HB,old,z,./images/BAVELHB.png,,,,,,,,,,,,,,,,,,,,,,,,,,,,,,,,,,,
,,,,,,,,,,,,,,,,,5c7747a39e03960001742947,29,2022-02-12_12h46.21.917,lexical_decision_task_DD_L3,2021.2.3,Win32,59.95203837,,,,,,,,,,,0.9744,1,,,,,,,,,,,,,,m,1,0.9744,,,,,,,,0.268518536,-0.305555568,0,0,0,,0,92,92,46,1,PEARL,C,old,m,./images/PEARL.png,,,,,,,,,,,,,,,,,,,,,,,,,,,,,,,,,,,
,,,,,,,,,,,,,,,,,5c7747a39e03960001742947,29,2022-02-12_12h46.21.917,lexical_decision_task_DD_L3,2021.2.3,Win32,59.95203837,,,,,,,,,,,0.6627,1,,,,,,,,,,,,,,z,1,0.6627,,,,,,,,0.268518536,-0.305555568,0,0,0,,0,93,93,114,1,RIKES,C,old,z,./images/RIKES.png,,,,,,,,,,,,,,,,,,,,,,,,,,,,,,,,,,,
,,,,,,,,,,,,,,,,,5c7747a39e03960001742947,29,2022-02-12_12h46.21.917,lexical_decision_task_DD_L3,2021.2.3,Win32,59.95203837,,,,,,,,,,,0.5814,1,,,,,,,,,,,,,,m,1,0.5814,,,,,,,,0.268518536,-0.305555568,0,0,0,,0,94,94,31,1,QUILL,C,old,m,./images/QUILL.png,,,,,,,,,,,,,,,,,,,,,,,,,,,,,,,,,,,
,,,,,,,,,,,,,,,,,5c7747a39e03960001742947,29,2022-02-12_12h46.21.917,lexical_decision_task_DD_L3,2021.2.3,Win32,59.95203837,,,,,,,,,,,0.6434,1,,,,,,,,,,,,,,m,1,0.6434,,,,,,,,0.268518536,-0.305555568,0,0,0,,0,95,95,13,1,MOTOR,C,old,m,./images/MOTOR.png,,,,,,,,,,,,,,,,,,,,,,,,,,,,,,,,,,,
,,,,,,,,,,,,,,,,,5c7747a39e03960001742947,29,2022-02-12_12h46.21.917,lexical_decision_task_DD_L3,2021.2.3,Win32,59.95203837,,,,,,,,,,,0.7073,1,,,,,,,,,,,,,,z,1,0.7073,,,,,,,,0.268518536,-0.305555568,0,0,0,,0,96,96,101,1,GLEET,LB,old,z,./images/GLEETLB.png,,,,,,,,,,,,,,,,,,,,,,,,,,,,,,,,,,,
,,,,,,,,,,,,,,,,,5c7747a39e03960001742947,29,2022-02-12_12h46.21.917,lexical_decision_task_DD_L3,2021.2.3,Win32,59.95203837,,,,,,,,,,,1.1272,1,,,,,,,,,,,,,,z,1,1.1272,,,,,,,,0.268518536,-0.305555568,0,0,0,,0,97,97,127,1,NINDY,HB,old,z,./images/NINDYHB.png,,,,,,,,,,,,,,,,,,,,,,,,,,,,,,,,,,,
,,,,,,,,,,,,,,,,,5c7747a39e03960001742947,29,2022-02-12_12h46.21.917,lexical_decision_task_DD_L3,2021.2.3,Win32,59.95203837,,,,,,,,,,,0.6235,1,,,,,,,,,,,,,,m,1,0.6235,,,,,,,,0.268518536,-0.305555568,0,0,0,,0,98,98,36,1,THROAT,LB,old,m,./images/THROATLB.png,,,,,,,,,,,,,,,,,,,,,,,,,,,,,,,,,,,
,,,,,,,,,,,,,,,,,5c7747a39e03960001742947,29,2022-02-12_12h46.21.917,lexical_decision_task_DD_L3,2021.2.3,Win32,59.95203837,,,,,,,,,,,1.0005,1,,,,,,,,,,,,,,z,1,1.0005,,,,,,,,0.268518536,-0.305555568,0,0,0,,0,99,99,98,1,BAMPS,LB,old,z,./images/BAMPSLB.png,,,,,,,,,,,,,,,,,,,,,,,,,,,,,,,,,,,
,,,,,,,,,,,,,,,,,5c7747a39e03960001742947,29,2022-02-12_12h46.21.917,lexical_decision_task_DD_L3,2021.2.3,Win32,59.95203837,,,,,,,,,,,0.6612,1,,,,,,,,,,,,,,m,1,0.6612,,,,,,,,0.268518536,-0.305555568,0,0,0,,0,100,100,53,1,CARPET,HB,old,m,./images/CARPETHB.png,,,,,,,,,,,,,,,,,,,,,,,,,,,,,,,,,,,
,,,,,,,,,,,,,,,,,5c7747a39e03960001742947,29,2022-02-12_12h46.21.917,lexical_decision_task_DD_L3,2021.2.3,Win32,59.95203837,,,,,,,,,,,0.7601,1,,,,,,,,,,,,,,z,1,0.7601,,,,,,,,0.268518536,-0.305555568,0,0,0,,0,101,101,116,1,BALGY,LB,old,z,./images/BALGYLB.png,,,,,,,,,,,,,,,,,,,,,,,,,,,,,,,,,,,
,,,,,,,,,,,,,,,,,5c7747a39e03960001742947,29,2022-02-12_12h46.21.917,lexical_decision_task_DD_L3,2021.2.3,Win32,59.95203837,,,,,,,,,,,0.6339,1,,,,,,,,,,,,,,z,1,0.6339,,,,,,,,0.268518536,-0.305555568,0,0,0,,0,102,102,125,1,MOOKY,LB,old,z,./images/MOOKYLB.png,,,,,,,,,,,,,,,,,,,,,,,,,,,,,,,,,,,
,,,,,,,,,,,,,,,,,5c7747a39e03960001742947,29,2022-02-12_12h46.21.917,lexical_decision_task_DD_L3,2021.2.3,Win32,59.95203837,,,,,,,,,,,0.791,1,,,,,,,,,,,,,,z,1,0.791,,,,,,,,0.268518536,-0.305555568,0,0,0,,0,103,103,103,1,FLORT,HB,old,z,./images/FLORTHB.png,,,,,,,,,,,,,,,,,,,,,,,,,,,,,,,,,,,
,,,,,,,,,,,,,,,,,5c7747a39e03960001742947,29,2022-02-12_12h46.21.917,lexical_decision_task_DD_L3,2021.2.3,Win32,59.95203837,,,,,,,,,,,1.0559,1,,,,,,,,,,,,,,z,1,1.0559,,,,,,,,0.268518536,-0.305555568,0,0,0,,0,104,104,113,1,LINEW,LB,old,z,./images/LINEWLB.png,,,,,,,,,,,,,,,,,,,,,,,,,,,,,,,,,,,
,,,,,,,,,,,,,,,,,5c7747a39e03960001742947,29,2022-02-12_12h46.21.917,lexical_decision_task_DD_L3,2021.2.3,Win32,59.95203837,,,,,,,,,,,0.8011,1,,,,,,,,,,,,,,z,1,0.8011,,,,,,,,0.268518536,-0.305555568,0,0,0,,0,105,105,137,1,JOOST,LB,old,z,./images/JOOSTLB.png,,,,,,,,,,,,,,,,,,,,,,,,,,,,,,,,,,,
,,,,,,,,,,,,,,,,,5c7747a39e03960001742947,29,2022-02-12_12h46.21.917,lexical_decision_task_DD_L3,2021.2.3,Win32,59.95203837,,,,,,,,,,,1.279,1,,,,,,,,,,,,,,z,1,1.279,,,,,,,,0.268518536,-0.305555568,0,0,0,,0,106,106,123,1,SEDGE,C,old,z,./images/SEDGE.png,,,,,,,,,,,,,,,,,,,,,,,,,,,,,,,,,,,
,,,,,,,,,,,,,,,,,5c7747a39e03960001742947,29,2022-02-12_12h46.21.917,lexical_decision_task_DD_L3,2021.2.3,Win32,59.95203837,,,,,,,,,,,1.3042,0,,,,,,,,,,,,,,m,0,1.3042,,,,,,,,0.268518536,-0.305555568,0,0,0,,0,107,107,159,1,CUDDY,C,old,z,./images/CUDDY.png,,,,,,,,,,,,,,,,,,,,,,,,,,,,,,,,,,,
,,,,,,,,,,,,,,,,,5c7747a39e03960001742947,29,2022-02-12_12h46.21.917,lexical_decision_task_DD_L3,2021.2.3,Win32,59.95203837,,,,,,,,,,,0.6503,1,,,,,,,,,,,,,,m,1,0.6503,,,,,,,,0.268518536,-0.305555568,0,0,0,,0,108,108,9,1,RHINO,LB,old,m,./images/RHINOLB.png,,,,,,,,,,,,,,,,,,,,,,,,,,,,,,,,,,,
,,,,,,,,,,,,,,,,,5c7747a39e03960001742947,29,2022-02-12_12h46.21.917,lexical_decision_task_DD_L3,2021.2.3,Win32,59.95203837,,,,,,,,,,,0.6263,1,,,,,,,,,,,,,,z,1,0.6263,,,,,,,,0.268518536,-0.305555568,0,0,0,,0,109,109,131,1,NACES,LB,old,z,./images/NACESLB.png,,,,,,,,,,,,,,,,,,,,,,,,,,,,,,,,,,,
,,,,,,,,,,,,,,,,,5c7747a39e03960001742947,29,2022-02-12_12h46.21.917,lexical_decision_task_DD_L3,2021.2.3,Win32,59.95203837,,,,,,,,,,,1.3601,1,,,,,,,,,,,,,,z,1,1.3601,,,,,,,,0.268518536,-0.305555568,0,0,0,,0,110,110,97,1,CHIDS,HB,old,z,./images/CHIDSHB.png,,,,,,,,,,,,,,,,,,,,,,,,,,,,,,,,,,,
,,,,,,,,,,,,,,,,,5c7747a39e03960001742947,29,2022-02-12_12h46.21.917,lexical_decision_task_DD_L3,2021.2.3,Win32,59.95203837,,,,,,,,,,,1.3037,1,,,,,,,,,,,,,,z,1,1.3037,,,,,,,,0.268518536,-0.305555568,0,0,0,,0,111,111,132,1,SCIFF,C,old,z,./images/SCIFF.png,,,,,,,,,,,,,,,,,,,,,,,,,,,,,,,,,,,
,,,,,,,,,,,,,,,,,5c7747a39e03960001742947,29,2022-02-12_12h46.21.917,lexical_decision_task_DD_L3,2021.2.3,Win32,59.95203837,,,,,,,,,,,1.3249,1,,,,,,,,,,,,,,z,1,1.3249,,,,,,,,0.268518536,-0.305555568,0,0,0,,0,112,112,166,1,SHORY,HB,old,z,./images/SHORYHB.png,,,,,,,,,,,,,,,,,,,,,,,,,,,,,,,,,,,
,,,,,,,,,,,,,,,,,5c7747a39e03960001742947,29,2022-02-12_12h46.21.917,lexical_decision_task_DD_L3,2021.2.3,Win32,59.95203837,,,,,,,,,,,0.8294,1,,,,,,,,,,,,,,z,1,0.8294,,,,,,,,0.268518536,-0.305555568,0,0,0,,0,113,113,108,1,GRUET,C,old,z,./images/GRUET.png,,,,,,,,,,,,,,,,,,,,,,,,,,,,,,,,,,,
,,,,,,,,,,,,,,,,,5c7747a39e03960001742947,29,2022-02-12_12h46.21.917,lexical_decision_task_DD_L3,2021.2.3,Win32,59.95203837,,,,,,,,,,,1.0669,1,,,,,,,,,,,,,,z,1,1.0669,,,,,,,,0.268518536,-0.305555568,0,0,0,,0,114,114,163,1,GAMBA,HB,old,z,./images/GAMBAHB.png,,,,,,,,,,,,,,,,,,,,,,,,,,,,,,,,,,,
,,,,,,,,,,,,,,,,,5c7747a39e03960001742947,29,2022-02-12_12h46.21.917,lexical_decision_task_DD_L3,2021.2.3,Win32,59.95203837,,,,,,,,,,,1.049,1,,,,,,,,,,,,,,m,1,1.049,,,,,,,,0.268518536,-0.305555568,0,0,0,,0,115,115,10,1,BELLY,C,old,m,./images/BELLY.png,,,,,,,,,,,,,,,,,,,,,,,,,,,,,,,,,,,
,,,,,,,,,,,,,,,,,5c7747a39e03960001742947,29,2022-02-12_12h46.21.917,lexical_decision_task_DD_L3,2021.2.3,Win32,59.95203837,,,,,,,,,,,0.6365,1,,,,,,,,,,,,,,z,1,0.6365,,,,,,,,0.268518536,-0.305555568,0,0,0,,0,116,116,117,1,STEEG,C,old,z,./images/STEEG.png,,,,,,,,,,,,,,,,,,,,,,,,,,,,,,,,,,,
,,,,,,,,,,,,,,,,,5c7747a39e03960001742947,29,2022-02-12_12h46.21.917,lexical_decision_task_DD_L3,2021.2.3,Win32,59.95203837,,,,,,,,,,,1.1706,1,,,,,,,,,,,,,,z,1,1.1706,,,,,,,,0.268518536,-0.305555568,0,0,0,,0,117,117,162,1,LEICH,C,old,z,./images/LEICH.png,,,,,,,,,,,,,,,,,,,,,,,,,,,,,,,,,,,
,,,,,,,,,,,,,,,,,5c7747a39e03960001742947,29,2022-02-12_12h46.21.917,lexical_decision_task_DD_L3,2021.2.3,Win32,59.95203837,,,,,,,,,,,0.7669,1,,,,,,,,,,,,,,z,1,0.7669,,,,,,,,0.268518536,-0.305555568,0,0,0,,0,118,118,95,1,HANTY,LB,old,z,./images/HANTYLB.png,,,,,,,,,,,,,,,,,,,,,,,,,,,,,,,,,,,
,,,,,,,,,,,,,,,,,5c7747a39e03960001742947,29,2022-02-12_12h46.21.917,lexical_decision_task_DD_L3,2021.2.3,Win32,59.95203837,,,,,,,,,,,0.6844,1,,,,,,,,,,,,,,m,1,0.6844,,,,,,,,0.268518536,-0.305555568,0,0,0,,0,119,119,70,1,URINE,C,old,m,./images/URINE.png,,,,,,,,,,,,,,,,,,,,,,,,,,,,,,,,,,,
,,,,,,,,,,,,,,,,,5c7747a39e03960001742947,29,2022-02-12_12h46.21.917,lexical_decision_task_DD_L3,2021.2.3,Win32,59.95203837,,,,,,,,,,,0.6673,1,,,,,,,,,,,,,,z,1,0.6673,,,,,,,,0.268518536,-0.305555568,0,0,0,,0,120,120,155,1,CANGY,LB,old,z,./images/CANGYLB.png,,,,,,,,,,,,,,,,,,,,,,,,,,,,,,,,,,,
,,,,,,,,,,,,,,,,,5c7747a39e03960001742947,29,2022-02-12_12h46.21.917,lexical_decision_task_DD_L3,2021.2.3,Win32,59.95203837,,,,,,,,,,,0.635,1,,,,,,,,,,,,,,m,1,0.635,,,,,,,,0.268518536,-0.305555568,0,0,0,,0,121,121,0,1,TOMATO,LB,old,m,./images/TOMATOLB.png,,,,,,,,,,,,,,,,,,,,,,,,,,,,,,,,,,,
,,,,,,,,,,,,,,,,,5c7747a39e03960001742947,29,2022-02-12_12h46.21.917,lexical_decision_task_DD_L3,2021.2.3,Win32,59.95203837,,,,,,,,,,,0.7345,1,,,,,,,,,,,,,,z,1,0.7345,,,,,,,,0.268518536,-0.305555568,0,0,0,,0,122,122,129,1,PRANS,C,old,z,./images/PRANS.png,,,,,,,,,,,,,,,,,,,,,,,,,,,,,,,,,,,
,,,,,,,,,,,,,,,,,5c7747a39e03960001742947,29,2022-02-12_12h46.21.917,lexical_decision_task_DD_L3,2021.2.3,Win32,59.95203837,,,,,,,,,,,0.6839,1,,,,,,,,,,,,,,m,1,0.6839,,,,,,,,0.268518536,-0.305555568,0,0,0,,0,123,123,18,1,JAGUAR,LB,old,m,./images/JAGUARLB.png,,,,,,,,,,,,,,,,,,,,,,,,,,,,,,,,,,,
,,,,,,,,,,,,,,,,,5c7747a39e03960001742947,29,2022-02-12_12h46.21.917,lexical_decision_task_DD_L3,2021.2.3,Win32,59.95203837,,,,,,,,,,,0.7768,1,,,,,,,,,,,,,,m,1,0.7768,,,,,,,,0.268518536,-0.305555568,0,0,0,,0,124,124,81,1,POODLE,LB,old,m,./images/POODLELB.png,,,,,,,,,,,,,,,,,,,,,,,,,,,,,,,,,,,
,,,,,,,,,,,,,,,,,5c7747a39e03960001742947,29,2022-02-12_12h46.21.917,lexical_decision_task_DD_L3,2021.2.3,Win32,59.95203837,,,,,,,,,,,1.054,1,,,,,,,,,,,,,,z,1,1.054,,,,,,,,0.268518536,-0.305555568,0,0,0,space,0,125,125,133,1,POWDY,HB,old,z,./images/POWDYHB.png,1.3407,,,,,,,,,,,,,,,,,,,,,,,,,,,,,,,,,,
,,,,,,,,,,,,,,,,,5c7747a39e03960001742947,29,2022-02-12_12h46.21.917,lexical_decision_task_DD_L3,2021.2.3,Win32,59.95203837,,,,,,,,,,,0.7438,1,,,,,,,,,,,,,,z,1,0.7438,,,,,,,,0.268518536,-0.305555568,0,0,0,,0,126,126,84,1,HAXES,C,old,z,./images/HAXES.png,,,,,,,,,,,,,,,,,,,,,,,,,,,,,,,,,,,
,,,,,,,,,,,,,,,,,5c7747a39e03960001742947,29,2022-02-12_12h46.21.917,lexical_decision_task_DD_L3,2021.2.3,Win32,59.95203837,,,,,,,,,,,0.5611,1,,,,,,,,,,,,,,m,1,0.5611,,,,,,,,0.268518536,-0.305555568,0,0,0,,0,127,127,61,1,CANDLE,C,old,m,./images/CANDLE.png,,,,,,,,,,,,,,,,,,,,,,,,,,,,,,,,,,,
,,,,,,,,,,,,,,,,,5c7747a39e03960001742947,29,2022-02-12_12h46.21.917,lexical_decision_task_DD_L3,2021.2.3,Win32,59.95203837,,,,,,,,,,,0.5989,1,,,,,,,,,,,,,,m,1,0.5989,,,,,,,,0.268518536,-0.305555568,0,0,0,,0,128,128,79,1,CRUST,C,old,m,./images/CRUST.png,,,,,,,,,,,,,,,,,,,,,,,,,,,,,,,,,,,
,,,,,,,,,,,,,,,,,5c7747a39e03960001742947,29,2022-02-12_12h46.21.917,lexical_decision_task_DD_L3,2021.2.3,Win32,59.95203837,,,,,,,,,,,0.5889,1,,,,,,,,,,,,,,m,1,0.5889,,,,,,,,0.268518536,-0.305555568,0,0,0,,0,129,129,19,1,DOUGH,C,old,m,./images/DOUGH.png,,,,,,,,,,,,,,,,,,,,,,,,,,,,,,,,,,,
,,,,,,,,,,,,,,,,,5c7747a39e03960001742947,29,2022-02-12_12h46.21.917,lexical_decision_task_DD_L3,2021.2.3,Win32,59.95203837,,,,,,,,,,,0.8027,1,,,,,,,,,,,,,,z,1,0.8027,,,,,,,,0.268518536,-0.305555568,0,0,0,,0,130,130,124,1,TUNCH,HB,old,z,./images/TUNCHHB.png,,,,,,,,,,,,,,,,,,,,,,,,,,,,,,,,,,,
,,,,,,,,,,,,,,,,,5c7747a39e03960001742947,29,2022-02-12_12h46.21.917,lexical_decision_task_DD_L3,2021.2.3,Win32,59.95203837,,,,,,,,,,,0.9338,1,,,,,,,,,,,,,,m,1,0.9338,,,,,,,,0.268518536,-0.305555568,0,0,0,,0,131,131,59,1,BURIAL,HB,old,m,./images/BURIALHB.png,,,,,,,,,,,,,,,,,,,,,,,,,,,,,,,,,,,
,,,,,,,,,,,,,,,,,5c7747a39e03960001742947,29,2022-02-12_12h46.21.917,lexical_decision_task_DD_L3,2021.2.3,Win32,59.95203837,,,,,,,,,,,0.9856,1,,,,,,,,,,,,,,z,1,0.9856,,,,,,,,0.268518536,-0.305555568,0,0,0,,0,132,132,152,1,FRAIN,LB,old,z,./images/FRAINLB.png,,,,,,,,,,,,,,,,,,,,,,,,,,,,,,,,,,,
,,,,,,,,,,,,,,,,,5c7747a39e03960001742947,29,2022-02-12_12h46.21.917,lexical_decision_task_DD_L3,2021.2.3,Win32,59.95203837,,,,,,,,,,,0.9672,1,,,,,,,,,,,,,,z,1,0.9672,,,,,,,,0.268518536,-0.305555568,0,0,0,,0,133,133,140,1,DOVET,LB,old,z,./images/DOVETLB.png,,,,,,,,,,,,,,,,,,,,,,,,,,,,,,,,,,,
,,,,,,,,,,,,,,,,,5c7747a39e03960001742947,29,2022-02-12_12h46.21.917,lexical_decision_task_DD_L3,2021.2.3,Win32,59.95203837,,,,,,,,,,,0.7524,1,,,,,,,,,,,,,,m,1,0.7524,,,,,,,,0.268518536,-0.305555568,0,0,0,,0,134,134,14,1,PICKLE,HB,old,m,./images/PICKLEHB.png,,,,,,,,,,,,,,,,,,,,,,,,,,,,,,,,,,,
,,,,,,,,,,,,,,,,,5c7747a39e03960001742947,29,2022-02-12_12h46.21.917,lexical_decision_task_DD_L3,2021.2.3,Win32,59.95203837,,,,,,,,,,,0.8356,1,,,,,,,,,,,,,,z,1,0.8356,,,,,,,,0.268518536,-0.305555568,0,0,0,,0,135,135,126,1,GUELS,C,old,z,./images/GUELS.png,,,,,,,,,,,,,,,,,,,,,,,,,,,,,,,,,,,
,,,,,,,,,,,,,,,,,5c7747a39e03960001742947,29,2022-02-12_12h46.21.917,lexical_decision_task_DD_L3,2021.2.3,Win32,59.95203837,,,,,,,,,,,0.7624,1,,,,,,,,,,,,,,z,1,0.7624,,,,,,,,0.268518536,-0.305555568,0,0,0,,0,136,136,138,1,PLICE,C,old,z,./images/PLICE.png,,,,,,,,,,,,,,,,,,,,,,,,,,,,,,,,,,,
,,,,,,,,,,,,,,,,,5c7747a39e03960001742947,29,2022-02-12_12h46.21.917,lexical_decision_task_DD_L3,2021.2.3,Win32,59.95203837,,,,,,,,,,,0.7007,1,,,,,,,,,,,,,,m,1,0.7007,,,,,,,,0.268518536,-0.305555568,0,0,0,,0,137,137,42,1,FOLDER,LB,old,m,./images/FOLDERLB.png,,,,,,,,,,,,,,,,,,,,,,,,,,,,,,,,,,,
,,,,,,,,,,,,,,,,,5c7747a39e03960001742947,29,2022-02-12_12h46.21.917,lexical_decision_task_DD_L3,2021.2.3,Win32,59.95203837,,,,,,,,,,,0.8535,1,,,,,,,,,,,,,,z,1,0.8535,,,,,,,,0.268518536,-0.305555568,0,0,0,,0,138,138,144,1,NAIRY,C,old,z,./images/NAIRY.png,,,,,,,,,,,,,,,,,,,,,,,,,,,,,,,,,,,
,,,,,,,,,,,,,,,,,5c7747a39e03960001742947,29,2022-02-12_12h46.21.917,lexical_decision_task_DD_L3,2021.2.3,Win32,59.95203837,,,,,,,,,,,0.8906,1,,,,,,,,,,,,,,m,1,0.8906,,,,,,,,0.268518536,-0.305555568,0,0,0,,0,139,139,71,1,PIMPLE,HB,old,m,./images/PIMPLEHB.png,,,,,,,,,,,,,,,,,,,,,,,,,,,,,,,,,,,
,,,,,,,,,,,,,,,,,5c7747a39e03960001742947,29,2022-02-12_12h46.21.917,lexical_decision_task_DD_L3,2021.2.3,Win32,59.95203837,,,,,,,,,,,1.0053,1,,,,,,,,,,,,,,z,1,1.0053,,,,,,,,0.268518536,-0.305555568,0,0,0,,0,140,140,167,1,ZONET,LB,old,z,./images/ZONETLB.png,,,,,,,,,,,,,,,,,,,,,,,,,,,,,,,,,,,
,,,,,,,,,,,,,,,,,5c7747a39e03960001742947,29,2022-02-12_12h46.21.917,lexical_decision_task_DD_L3,2021.2.3,Win32,59.95203837,,,,,,,,,,,0.8862,1,,,,,,,,,,,,,,m,1,0.8862,,,,,,,,0.268518536,-0.305555568,0,0,0,,0,141,141,60,1,TWINS,LB,old,m,./images/TWINSLB.png,,,,,,,,,,,,,,,,,,,,,,,,,,,,,,,,,,,
,,,,,,,,,,,,,,,,,5c7747a39e03960001742947,29,2022-02-12_12h46.21.917,lexical_decision_task_DD_L3,2021.2.3,Win32,59.95203837,,,,,,,,,,,0.8678,1,,,,,,,,,,,,,,z,1,0.8678,,,,,,,,0.268518536,-0.305555568,0,0,0,,0,142,142,161,1,BLAPS,LB,old,z,./images/BLAPSLB.png,,,,,,,,,,,,,,,,,,,,,,,,,,,,,,,,,,,
,,,,,,,,,,,,,,,,,5c7747a39e03960001742947,29,2022-02-12_12h46.21.917,lexical_decision_task_DD_L3,2021.2.3,Win32,59.95203837,,,,,,,,,,,1.2554,1,,,,,,,,,,,,,,z,1,1.2554,,,,,,,,0.268518536,-0.305555568,0,0,0,,0,143,143,89,1,DRIEK,LB,old,z,./images/DRIEKLB.png,,,,,,,,,,,,,,,,,,,,,,,,,,,,,,,,,,,
,,,,,,,,,,,,,,,,,5c7747a39e03960001742947,29,2022-02-12_12h46.21.917,lexical_decision_task_DD_L3,2021.2.3,Win32,59.95203837,,,,,,,,,,,0.7961,1,,,,,,,,,,,,,,m,1,0.7961,,,,,,,,0.268518536,-0.305555568,0,0,0,,0,144,144,39,1,SHELF,LB,old,m,./images/SHELFLB.png,,,,,,,,,,,,,,,,,,,,,,,,,,,,,,,,,,,
,,,,,,,,,,,,,,,,,5c7747a39e03960001742947,29,2022-02-12_12h46.21.917,lexical_decision_task_DD_L3,2021.2.3,Win32,59.95203837,,,,,,,,,,,0.9586,1,,,,,,,,,,,,,,m,1,0.9586,,,,,,,,0.268518536,-0.305555568,0,0,0,,0,145,145,3,1,FINGER,LB,old,m,./images/FINGERLB.png,,,,,,,,,,,,,,,,,,,,,,,,,,,,,,,,,,,
,,,,,,,,,,,,,,,,,5c7747a39e03960001742947,29,2022-02-12_12h46.21.917,lexical_decision_task_DD_L3,2021.2.3,Win32,59.95203837,,,,,,,,,,,2.531,1,,,,,,,,,,,,,,z,1,2.531,,,,,,,,0.268518536,-0.305555568,0,0,0,,0,146,146,156,1,HIXES,C,old,z,./images/HIXES.png,,,,,,,,,,,,,,,,,,,,,,,,,,,,,,,,,,,
,,,,,,,,,,,,,,,,,5c7747a39e03960001742947,29,2022-02-12_12h46.21.917,lexical_decision_task_DD_L3,2021.2.3,Win32,59.95203837,,,,,,,,,,,0.7748,1,,,,,,,,,,,,,,z,1,0.7748,,,,,,,,0.268518536,-0.305555568,0,0,0,,0,147,147,160,1,VEETS,HB,old,z,./images/VEETSHB.png,,,,,,,,,,,,,,,,,,,,,,,,,,,,,,,,,,,
,,,,,,,,,,,,,,,,,5c7747a39e03960001742947,29,2022-02-12_12h46.21.917,lexical_decision_task_DD_L3,2021.2.3,Win32,59.95203837,,,,,,,,,,,1.0058,1,,,,,,,,,,,,,,z,1,1.0058,,,,,,,,0.268518536,-0.305555568,0,0,0,,0,148,148,85,1,CHULK,HB,old,z,./images/CHULKHB.png,,,,,,,,,,,,,,,,,,,,,,,,,,,,,,,,,,,
,,,,,,,,,,,,,,,,,5c7747a39e03960001742947,29,2022-02-12_12h46.21.917,lexical_decision_task_DD_L3,2021.2.3,Win32,59.95203837,,,,,,,,,,,0.8749,0,,,,,,,,,,,,,,m,0,0.8749,,,,,,,,0.268518536,-0.305555568,0,0,0,,0,149,149,106,1,CLUMS,HB,old,z,./images/CLUMSHB.png,,,,,,,,,,,,,,,,,,,,,,,,,,,,,,,,,,,
,,,,,,,,,,,,,,,,,5c7747a39e03960001742947,29,2022-02-12_12h46.21.917,lexical_decision_task_DD_L3,2021.2.3,Win32,59.95203837,,,,,,,,,,,1.11,1,,,,,,,,,,,,,,m,1,1.11,,,,,,,,0.268518536,-0.305555568,0,0,0,,0,150,150,17,1,SKIING,HB,old,m,./images/SKIINGHB.png,,,,,,,,,,,,,,,,,,,,,,,,,,,,,,,,,,,
,,,,,,,,,,,,,,,,,5c7747a39e03960001742947,29,2022-02-12_12h46.21.917,lexical_decision_task_DD_L3,2021.2.3,Win32,59.95203837,,,,,,,,,,,0.6947,1,,,,,,,,,,,,,,m,1,0.6947,,,,,,,,0.268518536,-0.305555568,0,0,0,,0,151,151,37,1,BIRTH,C,old,m,./images/BIRTH.png,,,,,,,,,,,,,,,,,,,,,,,,,,,,,,,,,,,
,,,,,,,,,,,,,,,,,5c7747a39e03960001742947,29,2022-02-12_12h46.21.917,lexical_decision_task_DD_L3,2021.2.3,Win32,59.95203837,,,,,,,,,,,1.3004,1,,,,,,,,,,,,,,z,1,1.3004,,,,,,,,0.268518536,-0.305555568,0,0,0,,0,152,152,151,1,TINKY,HB,old,z,./images/TINKYHB.png,,,,,,,,,,,,,,,,,,,,,,,,,,,,,,,,,,,
,,,,,,,,,,,,,,,,,5c7747a39e03960001742947,29,2022-02-12_12h46.21.917,lexical_decision_task_DD_L3,2021.2.3,Win32,59.95203837,,,,,,,,,,,0.7068,1,,,,,,,,,,,,,,m,1,0.7068,,,,,,,,0.268518536,-0.305555568,0,0,0,,0,153,153,35,1,PEACH,HB,old,m,./images/PEACHHB.png,,,,,,,,,,,,,,,,,,,,,,,,,,,,,,,,,,,
,,,,,,,,,,,,,,,,,5c7747a39e03960001742947,29,2022-02-12_12h46.21.917,lexical_decision_task_DD_L3,2021.2.3,Win32,59.95203837,,,,,,,,,,,0.8601,1,,,,,,,,,,,,,,z,1,0.8601,,,,,,,,0.268518536,-0.305555568,0,0,0,,0,154,154,90,1,NEAST,C,old,z,./images/NEAST.png,,,,,,,,,,,,,,,,,,,,,,,,,,,,,,,,,,,
,,,,,,,,,,,,,,,,,5c7747a39e03960001742947,29,2022-02-12_12h46.21.917,lexical_decision_task_DD_L3,2021.2.3,Win32,59.95203837,,,,,,,,,,,1.2511,1,,,,,,,,,,,,,,z,1,1.2511,,,,,,,,0.268518536,-0.305555568,0,0,0,,0,155,155,154,1,THINT,HB,old,z,./images/THINTHB.png,,,,,,,,,,,,,,,,,,,,,,,,,,,,,,,,,,,
,,,,,,,,,,,,,,,,,5c7747a39e03960001742947,29,2022-02-12_12h46.21.917,lexical_decision_task_DD_L3,2021.2.3,Win32,59.95203837,,,,,,,,,,,0.8172,1,,,,,,,,,,,,,,m,1,0.8172,,,,,,,,0.268518536,-0.305555568,0,0,0,,0,156,156,26,1,SMOKER,HB,old,m,./images/SMOKERHB.png,,,,,,,,,,,,,,,,,,,,,,,,,,,,,,,,,,,
,,,,,,,,,,,,,,,,,5c7747a39e03960001742947,29,2022-02-12_12h46.21.917,lexical_decision_task_DD_L3,2021.2.3,Win32,59.95203837,,,,,,,,,,,0.6411,1,,,,,,,,,,,,,,m,1,0.6411,,,,,,,,0.268518536,-0.305555568,0,0,0,,0,157,157,64,1,JELLY,C,old,m,./images/JELLY.png,,,,,,,,,,,,,,,,,,,,,,,,,,,,,,,,,,,
,,,,,,,,,,,,,,,,,5c7747a39e03960001742947,29,2022-02-12_12h46.21.917,lexical_decision_task_DD_L3,2021.2.3,Win32,59.95203837,,,,,,,,,,,0.8704,1,,,,,,,,,,,,,,m,1,0.8704,,,,,,,,0.268518536,-0.305555568,0,0,0,,0,158,158,32,1,BARREL,HB,old,m,./images/BARRELHB.png,,,,,,,,,,,,,,,,,,,,,,,,,,,,,,,,,,,
,,,,,,,,,,,,,,,,,5c7747a39e03960001742947,29,2022-02-12_12h46.21.917,lexical_decision_task_DD_L3,2021.2.3,Win32,59.95203837,,,,,,,,,,,0.8708,1,,,,,,,,,,,,,,m,1,0.8708,,,,,,,,0.268518536,-0.305555568,0,0,0,,0,159,159,23,1,WALRUS,HB,old,m,./images/WALRUSHB.png,,,,,,,,,,,,,,,,,,,,,,,,,,,,,,,,,,,
,,,,,,,,,,,,,,,,,5c7747a39e03960001742947,29,2022-02-12_12h46.21.917,lexical_decision_task_DD_L3,2021.2.3,Win32,59.95203837,,,,,,,,,,,0.8171,1,,,,,,,,,,,,,,m,1,0.8171,,,,,,,,0.268518536,-0.305555568,0,0,0,,0,160,160,69,1,COOKER,LB,old,m,./images/COOKERLB.png,,,,,,,,,,,,,,,,,,,,,,,,,,,,,,,,,,,
,,,,,,,,,,,,,,,,,5c7747a39e03960001742947,29,2022-02-12_12h46.21.917,lexical_decision_task_DD_L3,2021.2.3,Win32,59.95203837,,,,,,,,,,,1.019,1,,,,,,,,,,,,,,z,1,1.019,,,,,,,,0.268518536,-0.305555568,0,0,0,,0,161,161,109,1,BURGE,HB,old,z,./images/BURGEHB.png,,,,,,,,,,,,,,,,,,,,,,,,,,,,,,,,,,,
,,,,,,,,,,,,,,,,,5c7747a39e03960001742947,29,2022-02-12_12h46.21.917,lexical_decision_task_DD_L3,2021.2.3,Win32,59.95203837,,,,,,,,,,,0.703,1,,,,,,,,,,,,,,z,1,0.703,,,,,,,,0.268518536,-0.305555568,0,0,0,,0,162,162,147,1,ZOLES,C,old,z,./images/ZOLES.png,,,,,,,,,,,,,,,,,,,,,,,,,,,,,,,,,,,
,,,,,,,,,,,,,,,,,5c7747a39e03960001742947,29,2022-02-12_12h46.21.917,lexical_decision_task_DD_L3,2021.2.3,Win32,59.95203837,,,,,,,,,,,0.8199,1,,,,,,,,,,,,,,z,1,0.8199,,,,,,,,0.268518536,-0.305555568,0,0,0,,0,163,163,88,1,GLUSH,HB,old,z,./images/GLUSHHB.png,,,,,,,,,,,,,,,,,,,,,,,,,,,,,,,,,,,
,,,,,,,,,,,,,,,,,5c7747a39e03960001742947,29,2022-02-12_12h46.21.917,lexical_decision_task_DD_L3,2021.2.3,Win32,59.95203837,,,,,,,,,,,0.6711,1,,,,,,,,,,,,,,m,1,0.6711,,,,,,,,0.268518536,-0.305555568,0,0,0,,0,164,164,15,1,GREASE,LB,old,m,./images/GREASELB.png,,,,,,,,,,,,,,,,,,,,,,,,,,,,,,,,,,,
,,,,,,,,,,,,,,,,,5c7747a39e03960001742947,29,2022-02-12_12h46.21.917,lexical_decision_task_DD_L3,2021.2.3,Win32,59.95203837,,,,,,,,,,,0.6842,1,,,,,,,,,,,,,,m,1,0.6842,,,,,,,,0.268518536,-0.305555568,0,0,0,,0,165,165,24,1,SCREW,LB,old,m,./images/SCREWLB.png,,,,,,,,,,,,,,,,,,,,,,,,,,,,,,,,,,,
,,,,,,,,,,,,,,,,,5c7747a39e03960001742947,29,2022-02-12_12h46.21.917,lexical_decision_task_DD_L3,2021.2.3,Win32,59.95203837,,,,,,,,,,,0.6067,1,,,,,,,,,,,,,,m,1,0.6067,,,,,,,,0.268518536,-0.305555568,0,0,0,,0,166,166,57,1,MOOSE,LB,old,m,./images/MOOSELB.png,,,,,,,,,,,,,,,,,,,,,,,,,,,,,,,,,,,
,,,,,,,,,,,,,,,,,5c7747a39e03960001742947,29,2022-02-12_12h46.21.917,lexical_decision_task_DD_L3,2021.2.3,Win32,59.95203837,,,,,,,,,,,0.7349,1,,,,,,,,,,,,,,m,1,0.7349,,,,,,,,0.268518536,-0.305555568,0,0,0,,0,167,167,63,1,MIRROR,LB,old,m,./images/MIRRORLB.png,,,,,,,,,,,,,,,,,,,,,,,,,,,,,,,,,,,
,,,,,,,,,,,,,,,,,5c7747a39e03960001742947,29,2022-02-12_12h46.21.917,lexical_decision_task_DD_L3,2021.2.3,Win32,59.95203837,,,,,,,,,,,,,,,,,,,,,,,,,,,,,,,,,,,,,,,,,,,,,,,,How likely will it be that you will recognize the words presented slighly blurred on a scale of 0 (not likely) to 100 (most likely)?,,,,,-0.003703691,-0.431481495,1,0,0,jol_adv,6,9.3843,0,0,0,1,1,,,,,,,,,,,,,,,,,,,,,
,,,,,,,,,,,,,,,,,5c7747a39e03960001742947,29,2022-02-12_12h46.21.917,lexical_decision_task_DD_L3,2021.2.3,Win32,59.95203837,,,,,,,,,,,,,,,,,,,,,,,,,,,,,,,,,,,,,,,,,,,,,,,,How likely will it be that you will recognize the words presented very blurred on a scale of 0 (not likely) to 100 (most likely)?,,,,,,,,,,,2,5.8099,0,1,1,2,1,,,,,,,,,,,,,,,,,,,,,
,,,,,,,,,,,,,,,,,5c7747a39e03960001742947,29,2022-02-12_12h46.21.917,lexical_decision_task_DD_L3,2021.2.3,Win32,59.95203837,,,,,,,,,,,,,,,,,,,,,,,,,,,,,,,,,,,,,,,,,,,,,,,,How likely will it be that you will recognize the words presented clearly on a scale of 0 (not likely) to 100 (most likely)?,,,,,,,,,,,6,4.8677,0,2,2,0,1,,,,,,,,,,,,,,,,,,,,,
,,0.083333348,-0.41666668,1,0,0,,,,,,1,test,"In the next phase you will be presented with the words from the the first phase. Your job is to decide whether you remember seeing the word or not. If you remember seeing the word press ""old"" or type ""m"". If you do not remember seeing the word press ""new"" or type ""z"". Please press the space bar or click on continue to begin. ",,,5c7747a39e03960001742947,29,2022-02-12_12h46.21.917,lexical_decision_task_DD_L3,2021.2.3,Win32,59.95203837,,,,,,,,,,,,,,,,,,,,,,,,,,,,,,,,,,,,,,,,,,,,,,,,,,,,,,,,,,,,,,,,,,instr_done_button,0,0,0,0,1,,,,,,,,,,,,,,,
space,2.5177,0.033333347,-0.390740811,0,0,0,,,,,,1,test,"In the next phase you will be presented with the words from the the first phase. Your job is to decide whether you remember seeing the word or not. If you remember seeing the word press ""old"" or type ""m"". If you do not remember seeing the word press ""new"" or type ""z"". Please press the space bar or click on continue to begin. ",,,5c7747a39e03960001742947,29,2022-02-12_12h46.21.917,lexical_decision_task_DD_L3,2021.2.3,Win32,59.95203837,,,,,,,,,,,,,,,,,,,,,,,,,,,,,,,,,,,,,,,,,,,,,,,,,,,,,,,,,,,,,,,,,,,1,0,1,0,1,,,,,,,,,,,,,,,
space,4.7578,0.033333347,-0.390740811,0,0,0,,,,,,1,test,"In the next phase you will be presented with the words from the the first phase. Your job is to decide whether you remember seeing the word or not. If you remember seeing the word press ""old"" or type ""m"". If you do not remember seeing the word press ""new"" or type ""z"". Please press the space bar or click on continue to begin. ",,,5c7747a39e03960001742947,29,2022-02-12_12h46.21.917,lexical_decision_task_DD_L3,2021.2.3,Win32,59.95203837,,,,,,,,,,,,,,,,,,,,,,,,,,,,,,,,,,,,,,,,,,,,,,,,,,,,,,,,,,,,,,,,,,,2,0,2,0,1,,,,,,,,,,,,,,,
space,1.9282,-0.013888876,-0.290740753,0,0,0,,,,,,1,test,"In the next phase you will be presented with the words from the the first phase. Your job is to decide whether you remember seeing the word or not. If you remember seeing the word press ""old"" or type ""m"". If you do not remember seeing the word press ""new"" or type ""z"". Please press the space bar or click on continue to begin. ",,,5c7747a39e03960001742947,29,2022-02-12_12h46.21.917,lexical_decision_task_DD_L3,2021.2.3,Win32,59.95203837,,,,,,,,,,,,,,,,,,,,,,,,,,,,,,,,,,,,,,,,,,,,,,,,,,,,,,,,,,,,,,,,,,,3,0,3,0,1,,,,,,,,,,,,,,,
,,-0.032407395,-0.399074087,1,0,0,,,,,,1,test,"In the next phase you will be presented with the words from the the first phase. Your job is to decide whether you remember seeing the word or not. If you remember seeing the word press ""old"" or type ""m"". If you do not remember seeing the word press ""new"" or type ""z"". Please press the space bar or click on continue to begin. ",,,5c7747a39e03960001742947,29,2022-02-12_12h46.21.917,lexical_decision_task_DD_L3,2021.2.3,Win32,59.95203837,,,,,,,,,,,,,,,,,,,,,,,,,,,,,,,,,,,,,,,,,,,,,,,,,,,,,,,,,,,,,,,,,,instr_done_button,4,0,4,0,1,,,,,,,,,,,,,,,
,,,,,,,,,,,,,,,,,5c7747a39e03960001742947,29,2022-02-12_12h46.21.917,lexical_decision_task_DD_L3,2021.2.3,Win32,59.95203837,,,,,,,,,,,1.5557,1,,,,,,,,,,,,,,,,,,,,,,,,0.143518534,-0.229629641,0,0,0,,,,,,,SMOKER,HB,m,m,./images/SMOKERHB.png,,,,,,,,,,,,,,,,,,,,,m,1,1.5557,,,,,,,,0,0,0,26,1
,,,,,,,,,,,,,,,,,5c7747a39e03960001742947,29,2022-02-12_12h46.21.917,lexical_decision_task_DD_L3,2021.2.3,Win32,59.95203837,,,,,,,,,,,1.5529,1,,,,,,,,,,,,,,,,,,,,,,,,0.143518534,-0.229629641,0,0,0,,,,,,,CHAIN,LB,z,m,./images/CHAINLB.png,,,,,,,,,,,,,,,,,,,,,z,1,1.5529,,,,,,,,0,1,1,126,1
,,,,,,,,,,,,,,,,,5c7747a39e03960001742947,29,2022-02-12_12h46.21.917,lexical_decision_task_DD_L3,2021.2.3,Win32,59.95203837,,,,,,,,,,,2.2097,0,,,,,,,,,,,,,,,,,,,,,,,,0.143518534,-0.229629641,0,0,0,,,,,,,CANYON,C,m,m,./images/CANYON.png,,,,,,,,,,,,,,,,,,,,,z,0,2.2097,,,,,,,,0,2,2,34,1
,,,,,,,,,,,,,,,,,5c7747a39e03960001742947,29,2022-02-12_12h46.21.917,lexical_decision_task_DD_L3,2021.2.3,Win32,59.95203837,,,,,,,,,,,0.7695,1,,,,,,,,,,,,,,,,,,,,,,,,0.143518534,-0.229629641,0,0,0,,,,,,,SHORE,LB,m,m,./images/SHORELB.png,,,,,,,,,,,,,,,,,,,,,m,1,0.7695,,,,,,,,0,3,3,12,1
,,,,,,,,,,,,,,,,,5c7747a39e03960001742947,29,2022-02-12_12h46.21.917,lexical_decision_task_DD_L3,2021.2.3,Win32,59.95203837,,,,,,,,,,,0.6673,1,,,,,,,,,,,,,,,,,,,,,,,,0.143518534,-0.229629641,0,0,0,,,,,,,TOMATO,LB,m,m,./images/TOMATOLB.png,,,,,,,,,,,,,,,,,,,,,m,1,0.6673,,,,,,,,0,4,4,0,1
,,,,,,,,,,,,,,,,,5c7747a39e03960001742947,29,2022-02-12_12h46.21.917,lexical_decision_task_DD_L3,2021.2.3,Win32,59.95203837,,,,,,,,,,,1.0375,1,,,,,,,,,,,,,,,,,,,,,,,,0.143518534,-0.229629641,0,0,0,,,,,,,CLIFF,HB,z,m,./images/CLIFFHB.png,,,,,,,,,,,,,,,,,,,,,z,1,1.0375,,,,,,,,0,5,5,92,1
,,,,,,,,,,,,,,,,,5c7747a39e03960001742947,29,2022-02-12_12h46.21.917,lexical_decision_task_DD_L3,2021.2.3,Win32,59.95203837,,,,,,,,,,,0.6757,1,,,,,,,,,,,,,,,,,,,,,,,,0.143518534,-0.229629641,0,0,0,,,,,,,FALCON,C,m,m,./images/FALCON.png,,,,,,,,,,,,,,,,,,,,,m,1,0.6757,,,,,,,,0,6,6,28,1
,,,,,,,,,,,,,,,,,5c7747a39e03960001742947,29,2022-02-12_12h46.21.917,lexical_decision_task_DD_L3,2021.2.3,Win32,59.95203837,,,,,,,,,,,0.6589,1,,,,,,,,,,,,,,,,,,,,,,,,0.143518534,-0.229629641,0,0,0,,,,,,,LLAMA,HB,z,m,./images/LLAMAHB.png,,,,,,,,,,,,,,,,,,,,,z,1,0.6589,,,,,,,,0,7,7,119,1
,,,,,,,,,,,,,,,,,5c7747a39e03960001742947,29,2022-02-12_12h46.21.917,lexical_decision_task_DD_L3,2021.2.3,Win32,59.95203837,,,,,,,,,,,0.7282,1,,,,,,,,,,,,,,,,,,,,,,,,0.143518534,-0.229629641,0,0,0,,,,,,,RAZOR,C,z,m,./images/RAZOR.png,,,,,,,,,,,,,,,,,,,,,z,1,0.7282,,,,,,,,0,8,8,118,1
,,,,,,,,,,,,,,,,,5c7747a39e03960001742947,29,2022-02-12_12h46.21.917,lexical_decision_task_DD_L3,2021.2.3,Win32,59.95203837,,,,,,,,,,,0.7173,1,,,,,,,,,,,,,,,,,,,,,,,,0.143518534,-0.229629641,0,0,0,,,,,,,LAGOON,HB,z,m,./images/LAGOONHB.png,,,,,,,,,,,,,,,,,,,,,z,1,0.7173,,,,,,,,0,9,9,131,1
,,,,,,,,,,,,,,,,,5c7747a39e03960001742947,29,2022-02-12_12h46.21.917,lexical_decision_task_DD_L3,2021.2.3,Win32,59.95203837,,,,,,,,,,,0.7918,1,,,,,,,,,,,,,,,,,,,,,,,,0.143518534,-0.229629641,0,0,0,,,,,,,TRIPOD,LB,m,m,./images/TRIPODLB.png,,,,,,,,,,,,,,,,,,,,,m,1,0.7918,,,,,,,,0,10,10,54,1
,,,,,,,,,,,,,,,,,5c7747a39e03960001742947,29,2022-02-12_12h46.21.917,lexical_decision_task_DD_L3,2021.2.3,Win32,59.95203837,,,,,,,,,,,0.9174,1,,,,,,,,,,,,,,,,,,,,,,,,0.143518534,-0.229629641,0,0,0,,,,,,,BOILER,LB,z,m,./images/BOILERLB.png,,,,,,,,,,,,,,,,,,,,,z,1,0.9174,,,,,,,,0,11,11,120,1
,,,,,,,,,,,,,,,,,5c7747a39e03960001742947,29,2022-02-12_12h46.21.917,lexical_decision_task_DD_L3,2021.2.3,Win32,59.95203837,,,,,,,,,,,0.8069,0,,,,,,,,,,,,,,,,,,,,,,,,0.143518534,-0.229629641,0,0,0,,,,,,,PASTA,HB,m,m,./images/PASTAHB.png,,,,,,,,,,,,,,,,,,,,,z,0,0.8069,,,,,,,,0,12,12,5,1
,,,,,,,,,,,,,,,,,5c7747a39e03960001742947,29,2022-02-12_12h46.21.917,lexical_decision_task_DD_L3,2021.2.3,Win32,59.95203837,,,,,,,,,,,0.9407,1,,,,,,,,,,,,,,,,,,,,,,,,0.143518534,-0.229629641,0,0,0,,,,,,,SPINE,HB,z,m,./images/SPINEHB.png,,,,,,,,,,,,,,,,,,,,,z,1,0.9407,,,,,,,,0,13,13,149,1
,,,,,,,,,,,,,,,,,5c7747a39e03960001742947,29,2022-02-12_12h46.21.917,lexical_decision_task_DD_L3,2021.2.3,Win32,59.95203837,,,,,,,,,,,0.6916,1,,,,,,,,,,,,,,,,,,,,,,,,0.143518534,-0.229629641,0,0,0,,,,,,,DOUGH,C,m,m,./images/DOUGH.png,,,,,,,,,,,,,,,,,,,,,m,1,0.6916,,,,,,,,0,14,14,19,1
,,,,,,,,,,,,,,,,,5c7747a39e03960001742947,29,2022-02-12_12h46.21.917,lexical_decision_task_DD_L3,2021.2.3,Win32,59.95203837,,,,,,,,,,,0.6839,1,,,,,,,,,,,,,,,,,,,,,,,,0.143518534,-0.229629641,0,0,0,,,,,,,BRIDE,C,z,m,./images/BRIDE.png,,,,,,,,,,,,,,,,,,,,,z,1,0.6839,,,,,,,,0,15,15,148,1
,,,,,,,,,,,,,,,,,5c7747a39e03960001742947,29,2022-02-12_12h46.21.917,lexical_decision_task_DD_L3,2021.2.3,Win32,59.95203837,,,,,,,,,,,0.8691,1,,,,,,,,,,,,,,,,,,,,,,,,0.143518534,-0.229629641,0,0,0,,,,,,,CHERRY,LB,z,m,./images/CHERRYLB.png,,,,,,,,,,,,,,,,,,,,,z,1,0.8691,,,,,,,,0,16,16,138,1
,,,,,,,,,,,,,,,,,5c7747a39e03960001742947,29,2022-02-12_12h46.21.917,lexical_decision_task_DD_L3,2021.2.3,Win32,59.95203837,,,,,,,,,,,0.7368,1,,,,,,,,,,,,,,,,,,,,,,,,0.143518534,-0.229629641,0,0,0,,,,,,,STORM,LB,m,m,./images/STORMLB.png,,,,,,,,,,,,,,,,,,,,,m,1,0.7368,,,,,,,,0,17,17,30,1
,,,,,,,,,,,,,,,,,5c7747a39e03960001742947,29,2022-02-12_12h46.21.917,lexical_decision_task_DD_L3,2021.2.3,Win32,59.95203837,,,,,,,,,,,0.6895,1,,,,,,,,,,,,,,,,,,,,,,,,0.143518534,-0.229629641,0,0,0,,,,,,,CRUST,C,m,m,./images/CRUST.png,,,,,,,,,,,,,,,,,,,,,m,1,0.6895,,,,,,,,0,18,18,79,1
,,,,,,,,,,,,,,,,,5c7747a39e03960001742947,29,2022-02-12_12h46.21.917,lexical_decision_task_DD_L3,2021.2.3,Win32,59.95203837,,,,,,,,,,,0.6589,1,,,,,,,,,,,,,,,,,,,,,,,,0.143518534,-0.229629641,0,0,0,,,,,,,DIVER,LB,z,m,./images/DIVERLB.png,,,,,,,,,,,,,,,,,,,,,z,1,0.6589,,,,,,,,0,19,19,93,1
,,,,,,,,,,,,,,,,,5c7747a39e03960001742947,29,2022-02-12_12h46.21.917,lexical_decision_task_DD_L3,2021.2.3,Win32,59.95203837,,,,,,,,,,,0.9505,1,,,,,,,,,,,,,,,,,,,,,,,,0.143518534,-0.229629641,0,0,0,,,,,,,BANANA,C,z,m,./images/BANANA.png,,,,,,,,,,,,,,,,,,,,,z,1,0.9505,,,,,,,,0,20,20,154,1
,,,,,,,,,,,,,,,,,5c7747a39e03960001742947,29,2022-02-12_12h46.21.917,lexical_decision_task_DD_L3,2021.2.3,Win32,59.95203837,,,,,,,,,,,0.9259,1,,,,,,,,,,,,,,,,,,,,,,,,0.143518534,-0.229629641,0,0,0,,,,,,,ENGINE,HB,z,m,./images/ENGINEHB.png,,,,,,,,,,,,,,,,,,,,,z,1,0.9259,,,,,,,,0,21,21,122,1
,,,,,,,,,,,,,,,,,5c7747a39e03960001742947,29,2022-02-12_12h46.21.917,lexical_decision_task_DD_L3,2021.2.3,Win32,59.95203837,,,,,,,,,,,1.2181,1,,,,,,,,,,,,,,,,,,,,,,,,0.143518534,-0.229629641,0,0,0,,,,,,,MALLET,HB,m,m,./images/MALLETHB.png,,,,,,,,,,,,,,,,,,,,,m,1,1.2181,,,,,,,,0,22,22,50,1
,,,,,,,,,,,,,,,,,5c7747a39e03960001742947,29,2022-02-12_12h46.21.917,lexical_decision_task_DD_L3,2021.2.3,Win32,59.95203837,,,,,,,,,,,0.6281,1,,,,,,,,,,,,,,,,,,,,,,,,0.143518534,-0.229629641,0,0,0,,,,,,,WALRUS,HB,m,m,./images/WALRUSHB.png,,,,,,,,,,,,,,,,,,,,,m,1,0.6281,,,,,,,,0,23,23,23,1
,,,,,,,,,,,,,,,,,5c7747a39e03960001742947,29,2022-02-12_12h46.21.917,lexical_decision_task_DD_L3,2021.2.3,Win32,59.95203837,,,,,,,,,,,0.6391,1,,,,,,,,,,,,,,,,,,,,,,,,0.143518534,-0.229629641,0,0,0,,,,,,,PLANET,HB,z,m,./images/PLANETHB.png,,,,,,,,,,,,,,,,,,,,,z,1,0.6391,,,,,,,,0,24,24,164,1
,,,,,,,,,,,,,,,,,5c7747a39e03960001742947,29,2022-02-12_12h46.21.917,lexical_decision_task_DD_L3,2021.2.3,Win32,59.95203837,,,,,,,,,,,0.9465,1,,,,,,,,,,,,,,,,,,,,,,,,0.143518534,-0.229629641,0,0,0,,,,,,,BRUSH,HB,z,m,./images/BRUSHHB.png,,,,,,,,,,,,,,,,,,,,,z,1,0.9465,,,,,,,,0,25,25,143,1
,,,,,,,,,,,,,,,,,5c7747a39e03960001742947,29,2022-02-12_12h46.21.917,lexical_decision_task_DD_L3,2021.2.3,Win32,59.95203837,,,,,,,,,,,0.677,1,,,,,,,,,,,,,,,,,,,,,,,,0.143518534,-0.229629641,0,0,0,,,,,,,WHISKY,HB,z,m,./images/WHISKYHB.png,,,,,,,,,,,,,,,,,,,,,z,1,0.677,,,,,,,,0,26,26,167,1
,,,,,,,,,,,,,,,,,5c7747a39e03960001742947,29,2022-02-12_12h46.21.917,lexical_decision_task_DD_L3,2021.2.3,Win32,59.95203837,,,,,,,,,,,1.0104,1,,,,,,,,,,,,,,,,,,,,,,,,0.143518534,-0.229629641,0,0,0,,,,,,,TWINS,LB,m,m,./images/TWINSLB.png,,,,,,,,,,,,,,,,,,,,,m,1,1.0104,,,,,,,,0,27,27,60,1
,,,,,,,,,,,,,,,,,5c7747a39e03960001742947,29,2022-02-12_12h46.21.917,lexical_decision_task_DD_L3,2021.2.3,Win32,59.95203837,,,,,,,,,,,0.7338,0,,,,,,,,,,,,,,,,,,,,,,,,0.143518534,-0.229629641,0,0,0,,,,,,,WRIST,C,m,m,./images/WRIST.png,,,,,,,,,,,,,,,,,,,,,z,0,0.7338,,,,,,,,0,28,28,25,1
,,,,,,,,,,,,,,,,,5c7747a39e03960001742947,29,2022-02-12_12h46.21.917,lexical_decision_task_DD_L3,2021.2.3,Win32,59.95203837,,,,,,,,,,,0.8386,1,,,,,,,,,,,,,,,,,,,,,,,,0.143518534,-0.229629641,0,0,0,,,,,,,CRATER,LB,z,m,./images/CRATERLB.png,,,,,,,,,,,,,,,,,,,,,z,1,0.8386,,,,,,,,0,29,29,87,1
,,,,,,,,,,,,,,,,,5c7747a39e03960001742947,29,2022-02-12_12h46.21.917,lexical_decision_task_DD_L3,2021.2.3,Win32,59.95203837,,,,,,,,,,,0.6765,1,,,,,,,,,,,,,,,,,,,,,,,,0.143518534,-0.229629641,0,0,0,,,,,,,MOOSE,LB,m,m,./images/MOOSELB.png,,,,,,,,,,,,,,,,,,,,,m,1,0.6765,,,,,,,,0,30,30,57,1
,,,,,,,,,,,,,,,,,5c7747a39e03960001742947,29,2022-02-12_12h46.21.917,lexical_decision_task_DD_L3,2021.2.3,Win32,59.95203837,,,,,,,,,,,0.9061,1,,,,,,,,,,,,,,,,,,,,,,,,0.143518534,-0.229629641,0,0,0,,,,,,,MUMMY,C,z,m,./images/MUMMY.png,,,,,,,,,,,,,,,,,,,,,z,1,0.9061,,,,,,,,0,31,31,130,1
,,,,,,,,,,,,,,,,,5c7747a39e03960001742947,29,2022-02-12_12h46.21.917,lexical_decision_task_DD_L3,2021.2.3,Win32,59.95203837,,,,,,,,,,,0.7201,1,,,,,,,,,,,,,,,,,,,,,,,,0.143518534,-0.229629641,0,0,0,,,,,,,CURRY,LB,z,m,./images/CURRYLB.png,,,,,,,,,,,,,,,,,,,,,z,1,0.7201,,,,,,,,0,32,32,144,1
,,,,,,,,,,,,,,,,,5c7747a39e03960001742947,29,2022-02-12_12h46.21.917,lexical_decision_task_DD_L3,2021.2.3,Win32,59.95203837,,,,,,,,,,,0.8193,1,,,,,,,,,,,,,,,,,,,,,,,,0.143518534,-0.229629641,0,0,0,,,,,,,JAGUAR,LB,m,m,./images/JAGUARLB.png,,,,,,,,,,,,,,,,,,,,,m,1,0.8193,,,,,,,,0,33,33,18,1
,,,,,,,,,,,,,,,,,5c7747a39e03960001742947,29,2022-02-12_12h46.21.917,lexical_decision_task_DD_L3,2021.2.3,Win32,59.95203837,,,,,,,,,,,0.6875,1,,,,,,,,,,,,,,,,,,,,,,,,0.143518534,-0.229629641,0,0,0,,,,,,,PURSE,HB,m,m,./images/PURSEHB.png,,,,,,,,,,,,,,,,,,,,,m,1,0.6875,,,,,,,,0,34,34,62,1
,,,,,,,,,,,,,,,,,5c7747a39e03960001742947,29,2022-02-12_12h46.21.917,lexical_decision_task_DD_L3,2021.2.3,Win32,59.95203837,,,,,,,,,,,0.6351,1,,,,,,,,,,,,,,,,,,,,,,,,0.143518534,-0.229629641,0,0,0,,,,,,,INFANT,C,m,m,./images/INFANT.png,,,,,,,,,,,,,,,,,,,,,m,1,0.6351,,,,,,,,0,35,35,76,1
,,,,,,,,,,,,,,,,,5c7747a39e03960001742947,29,2022-02-12_12h46.21.917,lexical_decision_task_DD_L3,2021.2.3,Win32,59.95203837,,,,,,,,,,,0.681,1,,,,,,,,,,,,,,,,,,,,,,,,0.143518534,-0.229629641,0,0,0,,,,,,,ARTIST,C,z,m,./images/ARTIST.png,,,,,,,,,,,,,,,,,,,,,z,1,0.681,,,,,,,,0,36,36,145,1
,,,,,,,,,,,,,,,,,5c7747a39e03960001742947,29,2022-02-12_12h46.21.917,lexical_decision_task_DD_L3,2021.2.3,Win32,59.95203837,,,,,,,,,,,0.74,0,,,,,,,,,,,,,,,,,,,,,,,,0.143518534,-0.229629641,0,0,0,,,,,,,COUCH,HB,m,m,./images/COUCHHB.png,,,,,,,,,,,,,,,,,,,,,z,0,0.74,,,,,,,,0,37,37,77,1
,,,,,,,,,,,,,,,,,5c7747a39e03960001742947,29,2022-02-12_12h46.21.917,lexical_decision_task_DD_L3,2021.2.3,Win32,59.95203837,,,,,,,,,,,0.7637,1,,,,,,,,,,,,,,,,,,,,,,,,0.143518534,-0.229629641,0,0,0,,,,,,,SAUCE,LB,z,m,./images/SAUCELB.png,,,,,,,,,,,,,,,,,,,,,z,1,0.7637,,,,,,,,0,38,38,135,1
,,,,,,,,,,,,,,,,,5c7747a39e03960001742947,29,2022-02-12_12h46.21.917,lexical_decision_task_DD_L3,2021.2.3,Win32,59.95203837,,,,,,,,,,,0.6816,0,,,,,,,,,,,,,,,,,,,,,,,,0.143518534,-0.229629641,0,0,0,,,,,,,SNACK,C,m,m,./images/SNACK.png,,,,,,,,,,,,,,,,,,,,,z,0,0.6816,,,,,,,,0,39,39,73,1
,,,,,,,,,,,,,,,,,5c7747a39e03960001742947,29,2022-02-12_12h46.21.917,lexical_decision_task_DD_L3,2021.2.3,Win32,59.95203837,,,,,,,,,,,0.6264,1,,,,,,,,,,,,,,,,,,,,,,,,0.143518534,-0.229629641,0,0,0,,,,,,,POSTER,HB,z,m,./images/POSTERHB.png,,,,,,,,,,,,,,,,,,,,,z,1,0.6264,,,,,,,,0,40,40,137,1
,,,,,,,,,,,,,,,,,5c7747a39e03960001742947,29,2022-02-12_12h46.21.917,lexical_decision_task_DD_L3,2021.2.3,Win32,59.95203837,,,,,,,,,,,0.5585,1,,,,,,,,,,,,,,,,,,,,,,,,0.143518534,-0.229629641,0,0,0,space,,,,,,KIDNEY,LB,m,m,./images/KIDNEYLB.png,1.7868,,,,,,,,,,,,,,,,,,,,m,1,0.5585,,,,,,,,0,41,41,21,1
,,,,,,,,,,,,,,,,,5c7747a39e03960001742947,29,2022-02-12_12h46.21.917,lexical_decision_task_DD_L3,2021.2.3,Win32,59.95203837,,,,,,,,,,,0.9457,1,,,,,,,,,,,,,,,,,,,,,,,,0.143518534,-0.229629641,0,0,0,,,,,,,GRANNY,HB,z,m,./images/GRANNYHB.png,,,,,,,,,,,,,,,,,,,,,z,1,0.9457,,,,,,,,0,42,42,104,1
,,,,,,,,,,,,,,,,,5c7747a39e03960001742947,29,2022-02-12_12h46.21.917,lexical_decision_task_DD_L3,2021.2.3,Win32,59.95203837,,,,,,,,,,,1.5644,1,,,,,,,,,,,,,,,,,,,,,,,,0.143518534,-0.229629641,0,0,0,,,,,,,MAMMAL,HB,z,m,./images/MAMMALHB.png,,,,,,,,,,,,,,,,,,,,,z,1,1.5644,,,,,,,,0,43,43,146,1
,,,,,,,,,,,,,,,,,5c7747a39e03960001742947,29,2022-02-12_12h46.21.917,lexical_decision_task_DD_L3,2021.2.3,Win32,59.95203837,,,,,,,,,,,0.6729,1,,,,,,,,,,,,,,,,,,,,,,,,0.143518534,-0.229629641,0,0,0,,,,,,,THROAT,LB,m,m,./images/THROATLB.png,,,,,,,,,,,,,,,,,,,,,m,1,0.6729,,,,,,,,0,44,44,36,1
,,,,,,,,,,,,,,,,,5c7747a39e03960001742947,29,2022-02-12_12h46.21.917,lexical_decision_task_DD_L3,2021.2.3,Win32,59.95203837,,,,,,,,,,,0.9614,1,,,,,,,,,,,,,,,,,,,,,,,,0.143518534,-0.229629641,0,0,0,,,,,,,RULER,C,z,m,./images/RULER.png,,,,,,,,,,,,,,,,,,,,,z,1,0.9614,,,,,,,,0,45,45,163,1
,,,,,,,,,,,,,,,,,5c7747a39e03960001742947,29,2022-02-12_12h46.21.917,lexical_decision_task_DD_L3,2021.2.3,Win32,59.95203837,,,,,,,,,,,0.6307,1,,,,,,,,,,,,,,,,,,,,,,,,0.143518534,-0.229629641,0,0,0,,,,,,,BURIAL,HB,m,m,./images/BURIALHB.png,,,,,,,,,,,,,,,,,,,,,m,1,0.6307,,,,,,,,0,46,46,59,1
,,,,,,,,,,,,,,,,,5c7747a39e03960001742947,29,2022-02-12_12h46.21.917,lexical_decision_task_DD_L3,2021.2.3,Win32,59.95203837,,,,,,,,,,,0.5311,1,,,,,,,,,,,,,,,,,,,,,,,,0.143518534,-0.229629641,0,0,0,,,,,,,PICKLE,HB,m,m,./images/PICKLEHB.png,,,,,,,,,,,,,,,,,,,,,m,1,0.5311,,,,,,,,0,47,47,14,1
,,,,,,,,,,,,,,,,,5c7747a39e03960001742947,29,2022-02-12_12h46.21.917,lexical_decision_task_DD_L3,2021.2.3,Win32,59.95203837,,,,,,,,,,,0.668,1,,,,,,,,,,,,,,,,,,,,,,,,0.143518534,-0.229629641,0,0,0,,,,,,,MONKEY,LB,z,m,./images/MONKEYLB.png,,,,,,,,,,,,,,,,,,,,,z,1,0.668,,,,,,,,0,48,48,129,1
,,,,,,,,,,,,,,,,,5c7747a39e03960001742947,29,2022-02-12_12h46.21.917,lexical_decision_task_DD_L3,2021.2.3,Win32,59.95203837,,,,,,,,,,,0.7629,1,,,,,,,,,,,,,,,,,,,,,,,,0.143518534,-0.229629641,0,0,0,,,,,,,CASINO,C,z,m,./images/CASINO.png,,,,,,,,,,,,,,,,,,,,,z,1,0.7629,,,,,,,,0,49,49,112,1
,,,,,,,,,,,,,,,,,5c7747a39e03960001742947,29,2022-02-12_12h46.21.917,lexical_decision_task_DD_L3,2021.2.3,Win32,59.95203837,,,,,,,,,,,1.351,0,,,,,,,,,,,,,,,,,,,,,,,,0.143518534,-0.229629641,0,0,0,,,,,,,FLASK,LB,z,m,./images/FLASKLB.png,,,,,,,,,,,,,,,,,,,,,m,0,1.351,,,,,,,,0,50,50,156,1
,,,,,,,,,,,,,,,,,5c7747a39e03960001742947,29,2022-02-12_12h46.21.917,lexical_decision_task_DD_L3,2021.2.3,Win32,59.95203837,,,,,,,,,,,1.3279,1,,,,,,,,,,,,,,,,,,,,,,,,0.143518534,-0.229629641,0,0,0,,,,,,,STREAM,HB,z,m,./images/STREAMHB.png,,,,,,,,,,,,,,,,,,,,,z,1,1.3279,,,,,,,,0,51,51,125,1
,,,,,,,,,,,,,,,,,5c7747a39e03960001742947,29,2022-02-12_12h46.21.917,lexical_decision_task_DD_L3,2021.2.3,Win32,59.95203837,,,,,,,,,,,0.699,1,,,,,,,,,,,,,,,,,,,,,,,,0.143518534,-0.229629641,0,0,0,,,,,,,MIRROR,LB,m,m,./images/MIRRORLB.png,,,,,,,,,,,,,,,,,,,,,m,1,0.699,,,,,,,,0,52,52,63,1
,,,,,,,,,,,,,,,,,5c7747a39e03960001742947,29,2022-02-12_12h46.21.917,lexical_decision_task_DD_L3,2021.2.3,Win32,59.95203837,,,,,,,,,,,0.6607,1,,,,,,,,,,,,,,,,,,,,,,,,0.143518534,-0.229629641,0,0,0,,,,,,,MOSQUE,C,m,m,./images/MOSQUE.png,,,,,,,,,,,,,,,,,,,,,m,1,0.6607,,,,,,,,0,53,53,43,1
,,,,,,,,,,,,,,,,,5c7747a39e03960001742947,29,2022-02-12_12h46.21.917,lexical_decision_task_DD_L3,2021.2.3,Win32,59.95203837,,,,,,,,,,,0.6811,1,,,,,,,,,,,,,,,,,,,,,,,,0.143518534,-0.229629641,0,0,0,,,,,,,MUSCLE,C,m,m,./images/MUSCLE.png,,,,,,,,,,,,,,,,,,,,,m,1,0.6811,,,,,,,,0,54,54,4,1
,,,,,,,,,,,,,,,,,5c7747a39e03960001742947,29,2022-02-12_12h46.21.917,lexical_decision_task_DD_L3,2021.2.3,Win32,59.95203837,,,,,,,,,,,0.6047,1,,,,,,,,,,,,,,,,,,,,,,,,0.143518534,-0.229629641,0,0,0,,,,,,,POODLE,LB,m,m,./images/POODLELB.png,,,,,,,,,,,,,,,,,,,,,m,1,0.6047,,,,,,,,0,55,55,81,1
,,,,,,,,,,,,,,,,,5c7747a39e03960001742947,29,2022-02-12_12h46.21.917,lexical_decision_task_DD_L3,2021.2.3,Win32,59.95203837,,,,,,,,,,,0.5483,1,,,,,,,,,,,,,,,,,,,,,,,,0.143518534,-0.229629641,0,0,0,,,,,,,BELLY,C,m,m,./images/BELLY.png,,,,,,,,,,,,,,,,,,,,,m,1,0.5483,,,,,,,,0,56,56,10,1
,,,,,,,,,,,,,,,,,5c7747a39e03960001742947,29,2022-02-12_12h46.21.917,lexical_decision_task_DD_L3,2021.2.3,Win32,59.95203837,,,,,,,,,,,0.8493,1,,,,,,,,,,,,,,,,,,,,,,,,0.143518534,-0.229629641,0,0,0,,,,,,,SLOPE,LB,z,m,./images/SLOPELB.png,,,,,,,,,,,,,,,,,,,,,z,1,0.8493,,,,,,,,0,57,57,114,1
,,,,,,,,,,,,,,,,,5c7747a39e03960001742947,29,2022-02-12_12h46.21.917,lexical_decision_task_DD_L3,2021.2.3,Win32,59.95203837,,,,,,,,,,,0.5123,1,,,,,,,,,,,,,,,,,,,,,,,,0.143518534,-0.229629641,0,0,0,,,,,,,JELLY,C,m,m,./images/JELLY.png,,,,,,,,,,,,,,,,,,,,,m,1,0.5123,,,,,,,,0,58,58,64,1
,,,,,,,,,,,,,,,,,5c7747a39e03960001742947,29,2022-02-12_12h46.21.917,lexical_decision_task_DD_L3,2021.2.3,Win32,59.95203837,,,,,,,,,,,0.8149,1,,,,,,,,,,,,,,,,,,,,,,,,0.143518534,-0.229629641,0,0,0,,,,,,,BAKER,LB,z,m,./images/BAKERLB.png,,,,,,,,,,,,,,,,,,,,,z,1,0.8149,,,,,,,,0,59,59,147,1
,,,,,,,,,,,,,,,,,5c7747a39e03960001742947,29,2022-02-12_12h46.21.917,lexical_decision_task_DD_L3,2021.2.3,Win32,59.95203837,,,,,,,,,,,0.6215,1,,,,,,,,,,,,,,,,,,,,,,,,0.143518534,-0.229629641,0,0,0,,,,,,,BEARD,HB,m,m,./images/BEARDHB.png,,,,,,,,,,,,,,,,,,,,,m,1,0.6215,,,,,,,,0,60,60,2,1
,,,,,,,,,,,,,,,,,5c7747a39e03960001742947,29,2022-02-12_12h46.21.917,lexical_decision_task_DD_L3,2021.2.3,Win32,59.95203837,,,,,,,,,,,0.7662,1,,,,,,,,,,,,,,,,,,,,,,,,0.143518534,-0.229629641,0,0,0,,,,,,,DRILL,LB,z,m,./images/DRILLLB.png,,,,,,,,,,,,,,,,,,,,,z,1,0.7662,,,,,,,,0,61,61,165,1
,,,,,,,,,,,,,,,,,5c7747a39e03960001742947,29,2022-02-12_12h46.21.917,lexical_decision_task_DD_L3,2021.2.3,Win32,59.95203837,,,,,,,,,,,0.9564,1,,,,,,,,,,,,,,,,,,,,,,,,0.143518534,-0.229629641,0,0,0,,,,,,,WHEEL,HB,z,m,./images/WHEELHB.png,,,,,,,,,,,,,,,,,,,,,z,1,0.9564,,,,,,,,0,62,62,161,1
,,,,,,,,,,,,,,,,,5c7747a39e03960001742947,29,2022-02-12_12h46.21.917,lexical_decision_task_DD_L3,2021.2.3,Win32,59.95203837,,,,,,,,,,,0.6708,1,,,,,,,,,,,,,,,,,,,,,,,,0.143518534,-0.229629641,0,0,0,,,,,,,MIDGET,C,z,m,./images/MIDGET.png,,,,,,,,,,,,,,,,,,,,,z,1,0.6708,,,,,,,,0,63,63,160,1
,,,,,,,,,,,,,,,,,5c7747a39e03960001742947,29,2022-02-12_12h46.21.917,lexical_decision_task_DD_L3,2021.2.3,Win32,59.95203837,,,,,,,,,,,0.6127,1,,,,,,,,,,,,,,,,,,,,,,,,0.143518534,-0.229629641,0,0,0,,,,,,,STAIN,LB,z,m,./images/STAINLB.png,,,,,,,,,,,,,,,,,,,,,z,1,0.6127,,,,,,,,0,64,64,90,1
,,,,,,,,,,,,,,,,,5c7747a39e03960001742947,29,2022-02-12_12h46.21.917,lexical_decision_task_DD_L3,2021.2.3,Win32,59.95203837,,,,,,,,,,,0.6781,1,,,,,,,,,,,,,,,,,,,,,,,,0.143518534,-0.229629641,0,0,0,,,,,,,BUBBLE,HB,z,m,./images/BUBBLEHB.png,,,,,,,,,,,,,,,,,,,,,z,1,0.6781,,,,,,,,0,65,65,155,1
,,,,,,,,,,,,,,,,,5c7747a39e03960001742947,29,2022-02-12_12h46.21.917,lexical_decision_task_DD_L3,2021.2.3,Win32,59.95203837,,,,,,,,,,,0.7372,1,,,,,,,,,,,,,,,,,,,,,,,,0.143518534,-0.229629641,0,0,0,,,,,,,QUILL,C,m,m,./images/QUILL.png,,,,,,,,,,,,,,,,,,,,,m,1,0.7372,,,,,,,,0,66,66,31,1
,,,,,,,,,,,,,,,,,5c7747a39e03960001742947,29,2022-02-12_12h46.21.917,lexical_decision_task_DD_L3,2021.2.3,Win32,59.95203837,,,,,,,,,,,0.596,1,,,,,,,,,,,,,,,,,,,,,,,,0.143518534,-0.229629641,0,0,0,,,,,,,URINE,C,m,m,./images/URINE.png,,,,,,,,,,,,,,,,,,,,,m,1,0.596,,,,,,,,0,67,67,70,1
,,,,,,,,,,,,,,,,,5c7747a39e03960001742947,29,2022-02-12_12h46.21.917,lexical_decision_task_DD_L3,2021.2.3,Win32,59.95203837,,,,,,,,,,,0.5701,1,,,,,,,,,,,,,,,,,,,,,,,,0.143518534,-0.229629641,0,0,0,,,,,,,COOKER,LB,m,m,./images/COOKERLB.png,,,,,,,,,,,,,,,,,,,,,m,1,0.5701,,,,,,,,0,68,68,69,1
,,,,,,,,,,,,,,,,,5c7747a39e03960001742947,29,2022-02-12_12h46.21.917,lexical_decision_task_DD_L3,2021.2.3,Win32,59.95203837,,,,,,,,,,,0.8345,1,,,,,,,,,,,,,,,,,,,,,,,,0.143518534,-0.229629641,0,0,0,,,,,,,TIGER,C,z,m,./images/TIGER.png,,,,,,,,,,,,,,,,,,,,,z,1,0.8345,,,,,,,,0,69,69,121,1
,,,,,,,,,,,,,,,,,5c7747a39e03960001742947,29,2022-02-12_12h46.21.917,lexical_decision_task_DD_L3,2021.2.3,Win32,59.95203837,,,,,,,,,,,0.8039,1,,,,,,,,,,,,,,,,,,,,,,,,0.143518534,-0.229629641,0,0,0,,,,,,,STOOL,C,z,m,./images/STOOL.png,,,,,,,,,,,,,,,,,,,,,z,1,0.8039,,,,,,,,0,70,70,127,1
,,,,,,,,,,,,,,,,,5c7747a39e03960001742947,29,2022-02-12_12h46.21.917,lexical_decision_task_DD_L3,2021.2.3,Win32,59.95203837,,,,,,,,,,,0.8789,0,,,,,,,,,,,,,,,,,,,,,,,,0.143518534,-0.229629641,0,0,0,,,,,,,JUMPER,HB,z,m,./images/JUMPERHB.png,,,,,,,,,,,,,,,,,,,,,m,0,0.8789,,,,,,,,0,71,71,158,1
,,,,,,,,,,,,,,,,,5c7747a39e03960001742947,29,2022-02-12_12h46.21.917,lexical_decision_task_DD_L3,2021.2.3,Win32,59.95203837,,,,,,,,,,,1.3282,1,,,,,,,,,,,,,,,,,,,,,,,,0.143518534,-0.229629641,0,0,0,,,,,,,GARDEN,C,z,m,./images/GARDEN.png,,,,,,,,,,,,,,,,,,,,,z,1,1.3282,,,,,,,,0,72,72,94,1
,,,,,,,,,,,,,,,,,5c7747a39e03960001742947,29,2022-02-12_12h46.21.917,lexical_decision_task_DD_L3,2021.2.3,Win32,59.95203837,,,,,,,,,,,0.9839,0,,,,,,,,,,,,,,,,,,,,,,,,0.143518534,-0.229629641,0,0,0,,,,,,,ARROW,LB,z,m,./images/ARROWLB.png,,,,,,,,,,,,,,,,,,,,,m,0,0.9839,,,,,,,,0,73,73,153,1
,,,,,,,,,,,,,,,,,5c7747a39e03960001742947,29,2022-02-12_12h46.21.917,lexical_decision_task_DD_L3,2021.2.3,Win32,59.95203837,,,,,,,,,,,0.6155,1,,,,,,,,,,,,,,,,,,,,,,,,0.143518534,-0.229629641,0,0,0,,,,,,,TORCH,HB,m,m,./images/TORCHHB.png,,,,,,,,,,,,,,,,,,,,,m,1,0.6155,,,,,,,,0,74,74,68,1
,,,,,,,,,,,,,,,,,5c7747a39e03960001742947,29,2022-02-12_12h46.21.917,lexical_decision_task_DD_L3,2021.2.3,Win32,59.95203837,,,,,,,,,,,0.899,1,,,,,,,,,,,,,,,,,,,,,,,,0.143518534,-0.229629641,0,0,0,,,,,,,SWING,C,m,m,./images/SWING.png,,,,,,,,,,,,,,,,,,,,,m,1,0.899,,,,,,,,0,75,75,40,1
,,,,,,,,,,,,,,,,,5c7747a39e03960001742947,29,2022-02-12_12h46.21.917,lexical_decision_task_DD_L3,2021.2.3,Win32,59.95203837,,,,,,,,,,,0.7162,1,,,,,,,,,,,,,,,,,,,,,,,,0.143518534,-0.229629641,0,0,0,,,,,,,TULIP,HB,m,m,./images/TULIPHB.png,,,,,,,,,,,,,,,,,,,,,m,1,0.7162,,,,,,,,0,76,76,8,1
,,,,,,,,,,,,,,,,,5c7747a39e03960001742947,29,2022-02-12_12h46.21.917,lexical_decision_task_DD_L3,2021.2.3,Win32,59.95203837,,,,,,,,,,,0.6498,1,,,,,,,,,,,,,,,,,,,,,,,,0.143518534,-0.229629641,0,0,0,,,,,,,SCREW,LB,m,m,./images/SCREWLB.png,,,,,,,,,,,,,,,,,,,,,m,1,0.6498,,,,,,,,0,77,77,24,1
,,,,,,,,,,,,,,,,,5c7747a39e03960001742947,29,2022-02-12_12h46.21.917,lexical_decision_task_DD_L3,2021.2.3,Win32,59.95203837,,,,,,,,,,,0.7653,1,,,,,,,,,,,,,,,,,,,,,,,,0.143518534,-0.229629641,0,0,0,,,,,,,BONNET,HB,m,m,./images/BONNETHB.png,,,,,,,,,,,,,,,,,,,,,m,1,0.7653,,,,,,,,0,78,78,11,1
,,,,,,,,,,,,,,,,,5c7747a39e03960001742947,29,2022-02-12_12h46.21.917,lexical_decision_task_DD_L3,2021.2.3,Win32,59.95203837,,,,,,,,,,,0.5795,1,,,,,,,,,,,,,,,,,,,,,,,,0.143518534,-0.229629641,0,0,0,,,,,,,FOLDER,LB,m,m,./images/FOLDERLB.png,,,,,,,,,,,,,,,,,,,,,m,1,0.5795,,,,,,,,0,79,79,42,1
,,,,,,,,,,,,,,,,,5c7747a39e03960001742947,29,2022-02-12_12h46.21.917,lexical_decision_task_DD_L3,2021.2.3,Win32,59.95203837,,,,,,,,,,,0.5824,1,,,,,,,,,,,,,,,,,,,,,,,,0.143518534,-0.229629641,0,0,0,,,,,,,KITTEN,LB,m,m,./images/KITTENLB.png,,,,,,,,,,,,,,,,,,,,,m,1,0.5824,,,,,,,,0,80,80,45,1
,,,,,,,,,,,,,,,,,5c7747a39e03960001742947,29,2022-02-12_12h46.21.917,lexical_decision_task_DD_L3,2021.2.3,Win32,59.95203837,,,,,,,,,,,0.8203,1,,,,,,,,,,,,,,,,,,,,,,,,0.143518534,-0.229629641,0,0,0,,,,,,,BASKET,HB,z,m,./images/BASKETHB.png,,,,,,,,,,,,,,,,,,,,,z,1,0.8203,,,,,,,,0,81,81,128,1
,,,,,,,,,,,,,,,,,5c7747a39e03960001742947,29,2022-02-12_12h46.21.917,lexical_decision_task_DD_L3,2021.2.3,Win32,59.95203837,,,,,,,,,,,1.0447,0,,,,,,,,,,,,,,,,,,,,,,,,0.143518534,-0.229629641,0,0,0,,,,,,,LIZARD,HB,m,m,./images/LIZARDHB.png,,,,,,,,,,,,,,,,,,,,,z,0,1.0447,,,,,,,,0,82,82,44,1
,,,,,,,,,,,,,,,,,5c7747a39e03960001742947,29,2022-02-12_12h46.21.917,lexical_decision_task_DD_L3,2021.2.3,Win32,59.95203837,,,,,,,,,,,0.65,1,,,,,,,,,,,,,,,,,,,,,,,,0.143518534,-0.229629641,0,0,0,space,,,,,,PEBBLE,C,z,m,./images/PEBBLE.png,1.8298,,,,,,,,,,,,,,,,,,,,z,1,0.65,,,,,,,,0,83,83,166,1
,,,,,,,,,,,,,,,,,5c7747a39e03960001742947,29,2022-02-12_12h46.21.917,lexical_decision_task_DD_L3,2021.2.3,Win32,59.95203837,,,,,,,,,,,0.6948,1,,,,,,,,,,,,,,,,,,,,,,,,0.143518534,-0.229629641,0,0,0,,,,,,,MAGGOT,LB,m,m,./images/MAGGOTLB.png,,,,,,,,,,,,,,,,,,,,,m,1,0.6948,,,,,,,,0,84,84,33,1
,,,,,,,,,,,,,,,,,5c7747a39e03960001742947,29,2022-02-12_12h46.21.917,lexical_decision_task_DD_L3,2021.2.3,Win32,59.95203837,,,,,,,,,,,0.5999,1,,,,,,,,,,,,,,,,,,,,,,,,0.143518534,-0.229629641,0,0,0,,,,,,,CRUMB,HB,m,m,./images/CRUMBHB.png,,,,,,,,,,,,,,,,,,,,,m,1,0.5999,,,,,,,,0,85,85,29,1
,,,,,,,,,,,,,,,,,5c7747a39e03960001742947,29,2022-02-12_12h46.21.917,lexical_decision_task_DD_L3,2021.2.3,Win32,59.95203837,,,,,,,,,,,1.0562,0,,,,,,,,,,,,,,,,,,,,,,,,0.143518534,-0.229629641,0,0,0,,,,,,,BANNER,C,m,m,./images/BANNER.png,,,,,,,,,,,,,,,,,,,,,z,0,1.0562,,,,,,,,0,86,86,52,1
,,,,,,,,,,,,,,,,,5c7747a39e03960001742947,29,2022-02-12_12h46.21.917,lexical_decision_task_DD_L3,2021.2.3,Win32,59.95203837,,,,,,,,,,,0.6615,1,,,,,,,,,,,,,,,,,,,,,,,,0.143518534,-0.229629641,0,0,0,,,,,,,VALLEY,HB,z,m,./images/VALLEYHB.png,,,,,,,,,,,,,,,,,,,,,z,1,0.6615,,,,,,,,0,87,87,152,1
,,,,,,,,,,,,,,,,,5c7747a39e03960001742947,29,2022-02-12_12h46.21.917,lexical_decision_task_DD_L3,2021.2.3,Win32,59.95203837,,,,,,,,,,,0.8648,1,,,,,,,,,,,,,,,,,,,,,,,,0.143518534,-0.229629641,0,0,0,,,,,,,SPORT,LB,m,m,./images/SPORTLB.png,,,,,,,,,,,,,,,,,,,,,m,1,0.8648,,,,,,,,0,88,88,48,1
,,,,,,,,,,,,,,,,,5c7747a39e03960001742947,29,2022-02-12_12h46.21.917,lexical_decision_task_DD_L3,2021.2.3,Win32,59.95203837,,,,,,,,,,,0.8073,1,,,,,,,,,,,,,,,,,,,,,,,,0.143518534,-0.229629641,0,0,0,,,,,,,DONKEY,C,z,m,./images/DONKEY.png,,,,,,,,,,,,,,,,,,,,,z,1,0.8073,,,,,,,,0,89,89,103,1
,,,,,,,,,,,,,,,,,5c7747a39e03960001742947,29,2022-02-12_12h46.21.917,lexical_decision_task_DD_L3,2021.2.3,Win32,59.95203837,,,,,,,,,,,0.6515,1,,,,,,,,,,,,,,,,,,,,,,,,0.143518534,-0.229629641,0,0,0,,,,,,,SNAKE,C,z,m,./images/SNAKE.png,,,,,,,,,,,,,,,,,,,,,z,1,0.6515,,,,,,,,0,90,90,124,1
,,,,,,,,,,,,,,,,,5c7747a39e03960001742947,29,2022-02-12_12h46.21.917,lexical_decision_task_DD_L3,2021.2.3,Win32,59.95203837,,,,,,,,,,,0.767,1,,,,,,,,,,,,,,,,,,,,,,,,0.143518534,-0.229629641,0,0,0,,,,,,,MEDAL,HB,z,m,./images/MEDALHB.png,,,,,,,,,,,,,,,,,,,,,z,1,0.767,,,,,,,,0,91,91,95,1
,,,,,,,,,,,,,,,,,5c7747a39e03960001742947,29,2022-02-12_12h46.21.917,lexical_decision_task_DD_L3,2021.2.3,Win32,59.95203837,,,,,,,,,,,0.7092,1,,,,,,,,,,,,,,,,,,,,,,,,0.143518534,-0.229629641,0,0,0,,,,,,,PARCEL,LB,z,m,./images/PARCELLB.png,,,,,,,,,,,,,,,,,,,,,z,1,0.7092,,,,,,,,0,92,92,102,1
,,,,,,,,,,,,,,,,,5c7747a39e03960001742947,29,2022-02-12_12h46.21.917,lexical_decision_task_DD_L3,2021.2.3,Win32,59.95203837,,,,,,,,,,,0.7621,0,,,,,,,,,,,,,,,,,,,,,,,,0.143518534,-0.229629641,0,0,0,,,,,,,SUNSET,C,m,m,./images/SUNSET.png,,,,,,,,,,,,,,,,,,,,,z,0,0.7621,,,,,,,,0,93,93,82,1
,,,,,,,,,,,,,,,,,5c7747a39e03960001742947,29,2022-02-12_12h46.21.917,lexical_decision_task_DD_L3,2021.2.3,Win32,59.95203837,,,,,,,,,,,1.2786,1,,,,,,,,,,,,,,,,,,,,,,,,0.143518534,-0.229629641,0,0,0,,,,,,,PARADE,HB,z,m,./images/PARADEHB.png,,,,,,,,,,,,,,,,,,,,,z,1,1.2786,,,,,,,,0,94,94,101,1
,,,,,,,,,,,,,,,,,5c7747a39e03960001742947,29,2022-02-12_12h46.21.917,lexical_decision_task_DD_L3,2021.2.3,Win32,59.95203837,,,,,,,,,,,0.6231,1,,,,,,,,,,,,,,,,,,,,,,,,0.143518534,-0.229629641,0,0,0,,,,,,,WEASEL,HB,m,m,./images/WEASELHB.png,,,,,,,,,,,,,,,,,,,,,m,1,0.6231,,,,,,,,0,95,95,80,1
,,,,,,,,,,,,,,,,,5c7747a39e03960001742947,29,2022-02-12_12h46.21.917,lexical_decision_task_DD_L3,2021.2.3,Win32,59.95203837,,,,,,,,,,,0.5398,1,,,,,,,,,,,,,,,,,,,,,,,,0.143518534,-0.229629641,0,0,0,,,,,,,SQUARE,LB,m,m,./images/SQUARELB.png,,,,,,,,,,,,,,,,,,,,,m,1,0.5398,,,,,,,,0,96,96,6,1
,,,,,,,,,,,,,,,,,5c7747a39e03960001742947,29,2022-02-12_12h46.21.917,lexical_decision_task_DD_L3,2021.2.3,Win32,59.95203837,,,,,,,,,,,0.6868,1,,,,,,,,,,,,,,,,,,,,,,,,0.143518534,-0.229629641,0,0,0,,,,,,,DANCER,LB,z,m,./images/DANCERLB.png,,,,,,,,,,,,,,,,,,,,,z,1,0.6868,,,,,,,,0,97,97,105,1
,,,,,,,,,,,,,,,,,5c7747a39e03960001742947,29,2022-02-12_12h46.21.917,lexical_decision_task_DD_L3,2021.2.3,Win32,59.95203837,,,,,,,,,,,0.6531,1,,,,,,,,,,,,,,,,,,,,,,,,0.143518534,-0.229629641,0,0,0,,,,,,,NOOSE,LB,m,m,./images/NOOSELB.png,,,,,,,,,,,,,,,,,,,,,m,1,0.6531,,,,,,,,0,98,98,72,1
,,,,,,,,,,,,,,,,,5c7747a39e03960001742947,29,2022-02-12_12h46.21.917,lexical_decision_task_DD_L3,2021.2.3,Win32,59.95203837,,,,,,,,,,,0.9344,1,,,,,,,,,,,,,,,,,,,,,,,,0.143518534,-0.229629641,0,0,0,,,,,,,BAMBOO,HB,z,m,./images/BAMBOOHB.png,,,,,,,,,,,,,,,,,,,,,z,1,0.9344,,,,,,,,0,99,99,89,1
,,,,,,,,,,,,,,,,,5c7747a39e03960001742947,29,2022-02-12_12h46.21.917,lexical_decision_task_DD_L3,2021.2.3,Win32,59.95203837,,,,,,,,,,,0.5908,1,,,,,,,,,,,,,,,,,,,,,,,,0.143518534,-0.229629641,0,0,0,,,,,,,DRUMS,C,m,m,./images/DRUMS.png,,,,,,,,,,,,,,,,,,,,,m,1,0.5908,,,,,,,,0,100,100,49,1
,,,,,,,,,,,,,,,,,5c7747a39e03960001742947,29,2022-02-12_12h46.21.917,lexical_decision_task_DD_L3,2021.2.3,Win32,59.95203837,,,,,,,,,,,0.6787,1,,,,,,,,,,,,,,,,,,,,,,,,0.143518534,-0.229629641,0,0,0,,,,,,,PENCE,C,m,m,./images/PENCE.png,,,,,,,,,,,,,,,,,,,,,m,1,0.6787,,,,,,,,0,101,101,16,1
,,,,,,,,,,,,,,,,,5c7747a39e03960001742947,29,2022-02-12_12h46.21.917,lexical_decision_task_DD_L3,2021.2.3,Win32,59.95203837,,,,,,,,,,,0.6336,0,,,,,,,,,,,,,,,,,,,,,,,,0.143518534,-0.229629641,0,0,0,,,,,,,MELON,C,m,m,./images/MELON.png,,,,,,,,,,,,,,,,,,,,,z,0,0.6336,,,,,,,,0,102,102,22,1
,,,,,,,,,,,,,,,,,5c7747a39e03960001742947,29,2022-02-12_12h46.21.917,lexical_decision_task_DD_L3,2021.2.3,Win32,59.95203837,,,,,,,,,,,1.0892,0,,,,,,,,,,,,,,,,,,,,,,,,0.143518534,-0.229629641,0,0,0,,,,,,,PILOT,HB,z,m,./images/PILOTHB.png,,,,,,,,,,,,,,,,,,,,,m,0,1.0892,,,,,,,,0,103,103,134,1
,,,,,,,,,,,,,,,,,5c7747a39e03960001742947,29,2022-02-12_12h46.21.917,lexical_decision_task_DD_L3,2021.2.3,Win32,59.95203837,,,,,,,,,,,0.7623,1,,,,,,,,,,,,,,,,,,,,,,,,0.143518534,-0.229629641,0,0,0,,,,,,,GLOVE,C,z,m,./images/GLOVE.png,,,,,,,,,,,,,,,,,,,,,z,1,0.7623,,,,,,,,0,104,104,157,1
,,,,,,,,,,,,,,,,,5c7747a39e03960001742947,29,2022-02-12_12h46.21.917,lexical_decision_task_DD_L3,2021.2.3,Win32,59.95203837,,,,,,,,,,,0.901,1,,,,,,,,,,,,,,,,,,,,,,,,0.143518534,-0.229629641,0,0,0,,,,,,,BROOM,LB,z,m,./images/BROOMLB.png,,,,,,,,,,,,,,,,,,,,,z,1,0.901,,,,,,,,0,105,105,162,1
,,,,,,,,,,,,,,,,,5c7747a39e03960001742947,29,2022-02-12_12h46.21.917,lexical_decision_task_DD_L3,2021.2.3,Win32,59.95203837,,,,,,,,,,,0.6716,1,,,,,,,,,,,,,,,,,,,,,,,,0.143518534,-0.229629641,0,0,0,,,,,,,CANDY,LB,z,m,./images/CANDYLB.png,,,,,,,,,,,,,,,,,,,,,z,1,0.6716,,,,,,,,0,106,106,123,1
,,,,,,,,,,,,,,,,,5c7747a39e03960001742947,29,2022-02-12_12h46.21.917,lexical_decision_task_DD_L3,2021.2.3,Win32,59.95203837,,,,,,,,,,,0.6226,1,,,,,,,,,,,,,,,,,,,,,,,,0.143518534,-0.229629641,0,0,0,,,,,,,CLOUD,HB,z,m,./images/CLOUDHB.png,,,,,,,,,,,,,,,,,,,,,z,1,0.6226,,,,,,,,0,107,107,110,1
,,,,,,,,,,,,,,,,,5c7747a39e03960001742947,29,2022-02-12_12h46.21.917,lexical_decision_task_DD_L3,2021.2.3,Win32,59.95203837,,,,,,,,,,,0.749,0,,,,,,,,,,,,,,,,,,,,,,,,0.143518534,-0.229629641,0,0,0,,,,,,,PEACH,HB,m,m,./images/PEACHHB.png,,,,,,,,,,,,,,,,,,,,,z,0,0.749,,,,,,,,0,108,108,35,1
,,,,,,,,,,,,,,,,,5c7747a39e03960001742947,29,2022-02-12_12h46.21.917,lexical_decision_task_DD_L3,2021.2.3,Win32,59.95203837,,,,,,,,,,,0.8384,1,,,,,,,,,,,,,,,,,,,,,,,,0.143518534,-0.229629641,0,0,0,,,,,,,PAINT,C,m,m,./images/PAINT.png,,,,,,,,,,,,,,,,,,,,,m,1,0.8384,,,,,,,,0,109,109,7,1
,,,,,,,,,,,,,,,,,5c7747a39e03960001742947,29,2022-02-12_12h46.21.917,lexical_decision_task_DD_L3,2021.2.3,Win32,59.95203837,,,,,,,,,,,0.8574,0,,,,,,,,,,,,,,,,,,,,,,,,0.143518534,-0.229629641,0,0,0,,,,,,,STRING,HB,m,m,./images/STRINGHB.png,,,,,,,,,,,,,,,,,,,,,z,0,0.8574,,,,,,,,0,110,110,41,1
,,,,,,,,,,,,,,,,,5c7747a39e03960001742947,29,2022-02-12_12h46.21.917,lexical_decision_task_DD_L3,2021.2.3,Win32,59.95203837,,,,,,,,,,,0.7121,1,,,,,,,,,,,,,,,,,,,,,,,,0.143518534,-0.229629641,0,0,0,,,,,,,FLESH,LB,z,m,./images/FLESHLB.png,,,,,,,,,,,,,,,,,,,,,z,1,0.7121,,,,,,,,0,111,111,108,1
,,,,,,,,,,,,,,,,,5c7747a39e03960001742947,29,2022-02-12_12h46.21.917,lexical_decision_task_DD_L3,2021.2.3,Win32,59.95203837,,,,,,,,,,,0.6289,1,,,,,,,,,,,,,,,,,,,,,,,,0.143518534,-0.229629641,0,0,0,,,,,,,HOCKEY,HB,z,m,./images/HOCKEYHB.png,,,,,,,,,,,,,,,,,,,,,z,1,0.6289,,,,,,,,0,112,112,116,1
,,,,,,,,,,,,,,,,,5c7747a39e03960001742947,29,2022-02-12_12h46.21.917,lexical_decision_task_DD_L3,2021.2.3,Win32,59.95203837,,,,,,,,,,,0.5393,1,,,,,,,,,,,,,,,,,,,,,,,,0.143518534,-0.229629641,0,0,0,,,,,,,BOXER,C,z,m,./images/BOXER.png,,,,,,,,,,,,,,,,,,,,,z,1,0.5393,,,,,,,,0,113,113,88,1
,,,,,,,,,,,,,,,,,5c7747a39e03960001742947,29,2022-02-12_12h46.21.917,lexical_decision_task_DD_L3,2021.2.3,Win32,59.95203837,,,,,,,,,,,0.6906,1,,,,,,,,,,,,,,,,,,,,,,,,0.143518534,-0.229629641,0,0,0,,,,,,,CANDLE,C,m,m,./images/CANDLE.png,,,,,,,,,,,,,,,,,,,,,m,1,0.6906,,,,,,,,0,114,114,61,1
,,,,,,,,,,,,,,,,,5c7747a39e03960001742947,29,2022-02-12_12h46.21.917,lexical_decision_task_DD_L3,2021.2.3,Win32,59.95203837,,,,,,,,,,,0.6622,1,,,,,,,,,,,,,,,,,,,,,,,,0.143518534,-0.229629641,0,0,0,,,,,,,CANOE,C,z,m,./images/CANOE.png,,,,,,,,,,,,,,,,,,,,,z,1,0.6622,,,,,,,,0,115,115,142,1
,,,,,,,,,,,,,,,,,5c7747a39e03960001742947,29,2022-02-12_12h46.21.917,lexical_decision_task_DD_L3,2021.2.3,Win32,59.95203837,,,,,,,,,,,0.6311,1,,,,,,,,,,,,,,,,,,,,,,,,0.143518534,-0.229629641,0,0,0,,,,,,,CLOTH,HB,z,m,./images/CLOTHHB.png,,,,,,,,,,,,,,,,,,,,,z,1,0.6311,,,,,,,,0,116,116,107,1
,,,,,,,,,,,,,,,,,5c7747a39e03960001742947,29,2022-02-12_12h46.21.917,lexical_decision_task_DD_L3,2021.2.3,Win32,59.95203837,,,,,,,,,,,0.6656,1,,,,,,,,,,,,,,,,,,,,,,,,0.143518534,-0.229629641,0,0,0,,,,,,,PEARL,C,m,m,./images/PEARL.png,,,,,,,,,,,,,,,,,,,,,m,1,0.6656,,,,,,,,0,117,117,46,1
,,,,,,,,,,,,,,,,,5c7747a39e03960001742947,29,2022-02-12_12h46.21.917,lexical_decision_task_DD_L3,2021.2.3,Win32,59.95203837,,,,,,,,,,,0.8531,1,,,,,,,,,,,,,,,,,,,,,,,,0.143518534,-0.229629641,0,0,0,,,,,,,LITTER,LB,m,m,./images/LITTERLB.png,,,,,,,,,,,,,,,,,,,,,m,1,0.8531,,,,,,,,0,118,118,78,1
,,,,,,,,,,,,,,,,,5c7747a39e03960001742947,29,2022-02-12_12h46.21.917,lexical_decision_task_DD_L3,2021.2.3,Win32,59.95203837,,,,,,,,,,,0.7075,1,,,,,,,,,,,,,,,,,,,,,,,,0.143518534,-0.229629641,0,0,0,,,,,,,ONION,LB,m,m,./images/ONIONLB.png,,,,,,,,,,,,,,,,,,,,,m,1,0.7075,,,,,,,,0,119,119,51,1
,,,,,,,,,,,,,,,,,5c7747a39e03960001742947,29,2022-02-12_12h46.21.917,lexical_decision_task_DD_L3,2021.2.3,Win32,59.95203837,,,,,,,,,,,0.7124,1,,,,,,,,,,,,,,,,,,,,,,,,0.143518534,-0.229629641,0,0,0,,,,,,,BUNNY,C,z,m,./images/BUNNY.png,,,,,,,,,,,,,,,,,,,,,z,1,0.7124,,,,,,,,0,120,120,97,1
,,,,,,,,,,,,,,,,,5c7747a39e03960001742947,29,2022-02-12_12h46.21.917,lexical_decision_task_DD_L3,2021.2.3,Win32,59.95203837,,,,,,,,,,,0.9285,1,,,,,,,,,,,,,,,,,,,,,,,,0.143518534,-0.229629641,0,0,0,,,,,,,BISHOP,C,z,m,./images/BISHOP.png,,,,,,,,,,,,,,,,,,,,,z,1,0.9285,,,,,,,,0,121,121,133,1
,,,,,,,,,,,,,,,,,5c7747a39e03960001742947,29,2022-02-12_12h46.21.917,lexical_decision_task_DD_L3,2021.2.3,Win32,59.95203837,,,,,,,,,,,0.8617,1,,,,,,,,,,,,,,,,,,,,,,,,0.143518534,-0.229629641,0,0,0,,,,,,,SAILOR,C,m,m,./images/SAILOR.png,,,,,,,,,,,,,,,,,,,,,m,1,0.8617,,,,,,,,0,122,122,67,1
,,,,,,,,,,,,,,,,,5c7747a39e03960001742947,29,2022-02-12_12h46.21.917,lexical_decision_task_DD_L3,2021.2.3,Win32,59.95203837,,,,,,,,,,,0.819,0,,,,,,,,,,,,,,,,,,,,,,,,0.143518534,-0.229629641,0,0,0,,,,,,,BERRY,HB,m,m,./images/BERRYHB.png,,,,,,,,,,,,,,,,,,,,,z,0,0.819,,,,,,,,0,123,123,47,1
,,,,,,,,,,,,,,,,,5c7747a39e03960001742947,29,2022-02-12_12h46.21.917,lexical_decision_task_DD_L3,2021.2.3,Win32,59.95203837,,,,,,,,,,,1.423,1,,,,,,,,,,,,,,,,,,,,,,,,0.143518534,-0.229629641,0,0,0,,,,,,,HEATER,HB,z,m,./images/HEATERHB.png,,,,,,,,,,,,,,,,,,,,,z,1,1.423,,,,,,,,0,124,124,140,1
,,,,,,,,,,,,,,,,,5c7747a39e03960001742947,29,2022-02-12_12h46.21.917,lexical_decision_task_DD_L3,2021.2.3,Win32,59.95203837,,,,,,,,,,,0.704,1,,,,,,,,,,,,,,,,,,,,,,,,0.143518534,-0.229629641,0,0,0,space,,,,,,FENCE,HB,z,m,./images/FENCEHB.png,0.9985,,,,,,,,,,,,,,,,,,,,z,1,0.704,,,,,,,,0,125,125,98,1
,,,,,,,,,,,,,,,,,5c7747a39e03960001742947,29,2022-02-12_12h46.21.917,lexical_decision_task_DD_L3,2021.2.3,Win32,59.95203837,,,,,,,,,,,0.7538,1,,,,,,,,,,,,,,,,,,,,,,,,0.143518534,-0.229629641,0,0,0,,,,,,,SHIELD,LB,z,m,./images/SHIELDLB.png,,,,,,,,,,,,,,,,,,,,,z,1,0.7538,,,,,,,,0,126,126,132,1
,,,,,,,,,,,,,,,,,5c7747a39e03960001742947,29,2022-02-12_12h46.21.917,lexical_decision_task_DD_L3,2021.2.3,Win32,59.95203837,,,,,,,,,,,0.6575,1,,,,,,,,,,,,,,,,,,,,,,,,0.143518534,-0.229629641,0,0,0,,,,,,,STATUE,LB,z,m,./images/STATUELB.png,,,,,,,,,,,,,,,,,,,,,z,1,0.6575,,,,,,,,0,127,127,150,1
,,,,,,,,,,,,,,,,,5c7747a39e03960001742947,29,2022-02-12_12h46.21.917,lexical_decision_task_DD_L3,2021.2.3,Win32,59.95203837,,,,,,,,,,,0.6541,1,,,,,,,,,,,,,,,,,,,,,,,,0.143518534,-0.229629641,0,0,0,,,,,,,STEAK,C,z,m,./images/STEAK.png,,,,,,,,,,,,,,,,,,,,,z,1,0.6541,,,,,,,,0,128,128,115,1
,,,,,,,,,,,,,,,,,5c7747a39e03960001742947,29,2022-02-12_12h46.21.917,lexical_decision_task_DD_L3,2021.2.3,Win32,59.95203837,,,,,,,,,,,0.5823,0,,,,,,,,,,,,,,,,,,,,,,,,0.143518534,-0.229629641,0,0,0,,,,,,,WALNUT,LB,z,m,./images/WALNUTLB.png,,,,,,,,,,,,,,,,,,,,,m,0,0.5823,,,,,,,,0,129,129,84,1
,,,,,,,,,,,,,,,,,5c7747a39e03960001742947,29,2022-02-12_12h46.21.917,lexical_decision_task_DD_L3,2021.2.3,Win32,59.95203837,,,,,,,,,,,0.6617,1,,,,,,,,,,,,,,,,,,,,,,,,0.143518534,-0.229629641,0,0,0,,,,,,,RHINO,LB,m,m,./images/RHINOLB.png,,,,,,,,,,,,,,,,,,,,,m,1,0.6617,,,,,,,,0,130,130,9,1
,,,,,,,,,,,,,,,,,5c7747a39e03960001742947,29,2022-02-12_12h46.21.917,lexical_decision_task_DD_L3,2021.2.3,Win32,59.95203837,,,,,,,,,,,0.6452,1,,,,,,,,,,,,,,,,,,,,,,,,0.143518534,-0.229629641,0,0,0,,,,,,,FINGER,LB,m,m,./images/FINGERLB.png,,,,,,,,,,,,,,,,,,,,,m,1,0.6452,,,,,,,,0,131,131,3,1
