key_resp.keys,instr_done_touch.x,instr_done_touch.y,instr_done_touch.leftButton,instr_done_touch.midButton,instr_done_touch.rightButton,instr_done_touch.clicked_name,instruction_pages.thisRepN,instruction_pages.thisTrialN,instruction_pages.thisN,instruction_pages.thisIndex,instruction_pages.ran,pageN,phase,instruct_text,has_image,instruct_image,participant,age,date,expName,psychopyVersion,OS,frameRate,key_resp.rt,response.keys,response.corr,response.rt,touch_resp.x,touch_resp.y,touch_resp.leftButton,touch_resp.midButton,touch_resp.rightButton,touch_resp.time,touch_resp.clicked_name,rt,corr,practrials.thisRepN,practrials.thisTrialN,practrials.thisN,practrials.thisIndex,practrials.ran,TrialID,Target,corrAns,end_of_practice_trials_pages.thisRepN,end_of_practice_trials_pages.thisTrialN,end_of_practice_trials_pages.thisN,end_of_practice_trials_pages.thisIndex,end_of_practice_trials_pages.ran,key_resp_2.keys,key_resp_2.corr,key_resp_2.rt,targ_click.x,targ_click.y,targ_click.leftButton,targ_click.midButton,targ_click.rightButton,targ_click.time,targ_click.clicked_name,break_done_touch.x,break_done_touch.y,break_done_touch.leftButton,break_done_touch.midButton,break_done_touch.rightButton,break_done_keyboard.keys,maintrials.thisRepN,maintrials.thisTrialN,maintrials.thisN,maintrials.thisIndex,maintrials.ran,string,blur,study,lex,stim_path,break_done_keyboard.rt,mouse_2.x,mouse_2.y,mouse_2.leftButton,mouse_2.midButton,mouse_2.rightButton,mouse_2.clicked_name,slider.response,slider.rt,trials.thisRepN,trials.thisTrialN,trials.thisN,trials.thisIndex,trials.ran,test_instructions.thisRepN,test_instructions.thisTrialN,test_instructions.thisN,test_instructions.thisIndex,test_instructions.ran,key_resp_3.keys,key_resp_3.corr,test_click.x,test_click.y,test_click.leftButton,test_click.midButton,test_click.rightButton,test_click.time,test_click.clicked_name,test_phase.thisRepN,test_phase.thisTrialN,test_phase.thisN,test_phase.thisIndex,test_phase.ran,break_done_touch.clicked_name
,-0.045572917,-0.4140625,1,0,0,instr_done_button,0,0,0,0,1,1,instructions,"INSTRUCTIONS
At the start of each trial, look at the plus sign  (+) in the center of the screen.  This tells you that a trial is about to begin and where to look. Second, the plus sign will disappear and a string of letters will appear. Your task is to determine if the string of letters is a word or not. If the item is a word press the M key (on keyboard)  or touch the word button (phone/tablet).  If the item is not a word,  press the  Z key (on keyboard)  or touch the nonword button (on phone/tablet). 
Press the space bar or touch  continue.",0,,5c8ec999bb6a3c00014acf5f,53,2022-02-12_14h57.06.875,lexical_decision_task_DD,2021.2.3,Win32,60.06366749,,,,,,,,,,,,,,,,,,,,,,,,,,,,,,,,,,,,,,,,,,,,,,,,,,,,,,,,,,,,,,,,,,,,,,,,,,,,,,,,,,,,,,
,0.016927083,-0.41015625,1,0,0,instr_done_button,0,1,1,1,1,2,instructions,"If your device has a keyboard, press the 'Z' key for nonwords and the 'M' key for words.





Press the space bar or touch the button below to continue.",0,keyboard-example.gif,5c8ec999bb6a3c00014acf5f,53,2022-02-12_14h57.06.875,lexical_decision_task_DD,2021.2.3,Win32,60.06366749,,,,,,,,,,,,,,,,,,,,,,,,,,,,,,,,,,,,,,,,,,,,,,,,,,,,,,,,,,,,,,,,,,,,,,,,,,,,,,,,,,,,,,
space,0.888020833,-0.39453125,0,0,0,,0,2,2,2,1,3,instructions,"If you are using a touchscreen only device, use the buttons on the screen. Do not use the mouse.





Press the space bar or touch the button below to continue.",0,touchscreen-example.gif,5c8ec999bb6a3c00014acf5f,53,2022-02-12_14h57.06.875,lexical_decision_task_DD,2021.2.3,Win32,60.06366749,2.0496,,,,,,,,,,,,,,,,,,,,,,,,,,,,,,,,,,,,,,,,,,,,,,,,,,,,,,,,,,,,,,,,,,,,,,,,,,,,,,,,,,,,,
space,0.888020833,-0.39453125,0,0,0,,0,3,3,3,1,4,instructions,"It is very important that you respond as quickly and accurately as possible, as each letter string will only be on the screen for two seconds. If you do not respond within this time, the message 'Too slow!' will be displayed and the experiment will progress to the next letter string. The first 20 trials will be practice trials and you will receive feedback on your answers. 

Press the space bar or touch the button below to start the practice trials.",0,,5c8ec999bb6a3c00014acf5f,53,2022-02-12_14h57.06.875,lexical_decision_task_DD,2021.2.3,Win32,60.06366749,15.3209,,,,,,,,,,,,,,,,,,,,,,,,,,,,,,,,,,,,,,,,,,,,,,,,,,,,,,,,,,,,,,,,,,,,,,,,,,,,,,,,,,,,,
,,,,,,,,,,,,,,,,,5c8ec999bb6a3c00014acf5f,53,2022-02-12_14h57.06.875,lexical_decision_task_DD,2021.2.3,Win32,60.06366749,,z,1,11.3697,,,,,,,,11.3697,1,0,0,0,8,1,1001,ASLERT,z,,,,,,,,,,,,,,,,,,,,,,,,,,,,,,,,,,,,,,,,,,,,,,,,,,,,,,,,,,,,,,,,,
,,,,,,,,,,,,,,,,,5c8ec999bb6a3c00014acf5f,53,2022-02-12_14h57.06.875,lexical_decision_task_DD,2021.2.3,Win32,60.06366749,,z,1,2.2825,,,,,,,,2.2825,1,0,1,1,13,1,1001,ROUPET,z,,,,,,,,,,,,,,,,,,,,,,,,,,,,,,,,,,,,,,,,,,,,,,,,,,,,,,,,,,,,,,,,,
,,,,,,,,,,,,,,,,,5c8ec999bb6a3c00014acf5f,53,2022-02-12_14h57.06.875,lexical_decision_task_DD,2021.2.3,Win32,60.06366749,,z,1,1.5483,,,,,,,,1.5483,1,0,2,2,15,1,1001,WHAISE,z,,,,,,,,,,,,,,,,,,,,,,,,,,,,,,,,,,,,,,,,,,,,,,,,,,,,,,,,,,,,,,,,,
,,,,,,,,,,,,,,,,,5c8ec999bb6a3c00014acf5f,53,2022-02-12_14h57.06.875,lexical_decision_task_DD,2021.2.3,Win32,60.06366749,,z,1,1.5835,,,,,,,,1.5835,1,0,3,3,14,1,1001,THRALE,z,,,,,,,,,,,,,,,,,,,,,,,,,,,,,,,,,,,,,,,,,,,,,,,,,,,,,,,,,,,,,,,,,
,,,,,,,,,,,,,,,,,5c8ec999bb6a3c00014acf5f,53,2022-02-12_14h57.06.875,lexical_decision_task_DD,2021.2.3,Win32,60.06366749,,m,1,0.716,,,,,,,,0.716,1,0,4,4,2,1,1001,ALMOND,m,,,,,,,,,,,,,,,,,,,,,,,,,,,,,,,,,,,,,,,,,,,,,,,,,,,,,,,,,,,,,,,,,
,,,,,,,,,,,,,,,,,5c8ec999bb6a3c00014acf5f,53,2022-02-12_14h57.06.875,lexical_decision_task_DD,2021.2.3,Win32,60.06366749,,m,1,0.6267,,,,,,,,0.6267,1,0,5,5,4,1,1001,SQUEAK,m,,,,,,,,,,,,,,,,,,,,,,,,,,,,,,,,,,,,,,,,,,,,,,,,,,,,,,,,,,,,,,,,,
,,,,,,,,,,,,,,,,,5c8ec999bb6a3c00014acf5f,53,2022-02-12_14h57.06.875,lexical_decision_task_DD,2021.2.3,Win32,60.06366749,,m,1,0.8204,,,,,,,,0.8204,1,0,6,6,0,1,1001,UTOPIA,m,,,,,,,,,,,,,,,,,,,,,,,,,,,,,,,,,,,,,,,,,,,,,,,,,,,,,,,,,,,,,,,,,
,,,,,,,,,,,,,,,,,5c8ec999bb6a3c00014acf5f,53,2022-02-12_14h57.06.875,lexical_decision_task_DD,2021.2.3,Win32,60.06366749,,m,1,0.9783,,,,,,,,0.9783,1,0,7,7,5,1,1001,OBTAIN,m,,,,,,,,,,,,,,,,,,,,,,,,,,,,,,,,,,,,,,,,,,,,,,,,,,,,,,,,,,,,,,,,,
,,,,,,,,,,,,,,,,,5c8ec999bb6a3c00014acf5f,53,2022-02-12_14h57.06.875,lexical_decision_task_DD,2021.2.3,Win32,60.06366749,,m,1,0.6074,,,,,,,,0.6074,1,0,8,8,7,1,1001,VOLUME,m,,,,,,,,,,,,,,,,,,,,,,,,,,,,,,,,,,,,,,,,,,,,,,,,,,,,,,,,,,,,,,,,,
,,,,,,,,,,,,,,,,,5c8ec999bb6a3c00014acf5f,53,2022-02-12_14h57.06.875,lexical_decision_task_DD,2021.2.3,Win32,60.06366749,,z,1,1.579,,,,,,,,1.579,1,0,9,9,9,1,1001,FARINY,z,,,,,,,,,,,,,,,,,,,,,,,,,,,,,,,,,,,,,,,,,,,,,,,,,,,,,,,,,,,,,,,,,
,,,,,,,,,,,,,,,,,5c8ec999bb6a3c00014acf5f,53,2022-02-12_14h57.06.875,lexical_decision_task_DD,2021.2.3,Win32,60.06366749,,m,0,1.0639,,,,,,,,1.0639,0,0,10,10,11,1,1001,RASHET,z,,,,,,,,,,,,,,,,,,,,,,,,,,,,,,,,,,,,,,,,,,,,,,,,,,,,,,,,,,,,,,,,,
,,,,,,,,,,,,,,,,,5c8ec999bb6a3c00014acf5f,53,2022-02-12_14h57.06.875,lexical_decision_task_DD,2021.2.3,Win32,60.06366749,,m,1,0.7842,,,,,,,,0.7842,1,0,11,11,3,1,1001,MATRIX,m,,,,,,,,,,,,,,,,,,,,,,,,,,,,,,,,,,,,,,,,,,,,,,,,,,,,,,,,,,,,,,,,,
,,,,,,,,,,,,,,,,,5c8ec999bb6a3c00014acf5f,53,2022-02-12_14h57.06.875,lexical_decision_task_DD,2021.2.3,Win32,60.06366749,,m,1,0.7059,,,,,,,,0.7059,1,0,12,12,6,1,1001,ZOMBIE,m,,,,,,,,,,,,,,,,,,,,,,,,,,,,,,,,,,,,,,,,,,,,,,,,,,,,,,,,,,,,,,,,,
,,,,,,,,,,,,,,,,,5c8ec999bb6a3c00014acf5f,53,2022-02-12_14h57.06.875,lexical_decision_task_DD,2021.2.3,Win32,60.06366749,,m,1,0.6305,,,,,,,,0.6305,1,0,13,13,1,1,1001,ADJUST,m,,,,,,,,,,,,,,,,,,,,,,,,,,,,,,,,,,,,,,,,,,,,,,,,,,,,,,,,,,,,,,,,,
,,,,,,,,,,,,,,,,,5c8ec999bb6a3c00014acf5f,53,2022-02-12_14h57.06.875,lexical_decision_task_DD,2021.2.3,Win32,60.06366749,,z,1,1.7502,,,,,,,,1.7502,1,0,14,14,10,1,1001,INLADE,z,,,,,,,,,,,,,,,,,,,,,,,,,,,,,,,,,,,,,,,,,,,,,,,,,,,,,,,,,,,,,,,,,
,,,,,,,,,,,,,,,,,5c8ec999bb6a3c00014acf5f,53,2022-02-12_14h57.06.875,lexical_decision_task_DD,2021.2.3,Win32,60.06366749,,z,1,1.3083,,,,,,,,1.3083,1,0,15,15,12,1,1001,SPRINY,z,,,,,,,,,,,,,,,,,,,,,,,,,,,,,,,,,,,,,,,,,,,,,,,,,,,,,,,,,,,,,,,,,
space,0.888020833,-0.313802083,0,0,0,,,,,,,1,end_of_practice,"You have completed the practice trials. During the experimental trials, you will not receive feedback. 
Before you begin, please ensure that you are in a comfortable and quiet location and will not be disturbed for about 15 minutes, as we cannot use your data if you do not complete all the trials. 
 When you are ready to start the experimental trials, please press space or touch the button below.",,,5c8ec999bb6a3c00014acf5f,53,2022-02-12_14h57.06.875,lexical_decision_task_DD,2021.2.3,Win32,60.06366749,19.53,,,,,,,,,,,,,,,,,,,,,0,0,0,0,1,,,,,,,,,,,,,,,,,,,,,,,,,,,,,,,,,,,,,,,,,,,,,,,,,,,,,,,,,,,,
,,,,,,,,,,,,,,,,,5c8ec999bb6a3c00014acf5f,53,2022-02-12_14h57.06.875,lexical_decision_task_DD,2021.2.3,Win32,60.06366749,,,,,,,,,,,,11.5832,1,,,,,,,,,,,,,,m,1,11.5832,,,,,,,,0.888020833,-0.313802083,0,0,0,,0,0,0,4,1,MUSCLE,HB,old,m,./images/MUSCLEHB.png,,,,,,,,,,,,,,,,,,,,,,,,,,,,,,,,,,
,,,,,,,,,,,,,,,,,5c8ec999bb6a3c00014acf5f,53,2022-02-12_14h57.06.875,lexical_decision_task_DD,2021.2.3,Win32,60.06366749,,,,,,,,,,,,0.8806,1,,,,,,,,,,,,,,m,1,0.8806,,,,,,,,0.888020833,-0.313802083,0,0,0,,0,1,1,54,1,TRIPOD,C,old,m,./images/TRIPOD.png,,,,,,,,,,,,,,,,,,,,,,,,,,,,,,,,,,
,,,,,,,,,,,,,,,,,5c8ec999bb6a3c00014acf5f,53,2022-02-12_14h57.06.875,lexical_decision_task_DD,2021.2.3,Win32,60.06366749,,,,,,,,,,,,1.7128,1,,,,,,,,,,,,,,z,1,1.7128,,,,,,,,0.888020833,-0.313802083,0,0,0,,0,2,2,161,1,BLAPS,LB,old,z,./images/BLAPSLB.png,,,,,,,,,,,,,,,,,,,,,,,,,,,,,,,,,,
,,,,,,,,,,,,,,,,,5c8ec999bb6a3c00014acf5f,53,2022-02-12_14h57.06.875,lexical_decision_task_DD,2021.2.3,Win32,60.06366749,,,,,,,,,,,,0.6814,1,,,,,,,,,,,,,,m,1,0.6814,,,,,,,,0.888020833,-0.313802083,0,0,0,,0,3,3,27,1,ATTIC,C,old,m,./images/ATTIC.png,,,,,,,,,,,,,,,,,,,,,,,,,,,,,,,,,,
,,,,,,,,,,,,,,,,,5c8ec999bb6a3c00014acf5f,53,2022-02-12_14h57.06.875,lexical_decision_task_DD,2021.2.3,Win32,60.06366749,,,,,,,,,,,,0.6352,1,,,,,,,,,,,,,,m,1,0.6352,,,,,,,,0.888020833,-0.313802083,0,0,0,,0,4,4,81,1,POODLE,C,old,m,./images/POODLE.png,,,,,,,,,,,,,,,,,,,,,,,,,,,,,,,,,,
,,,,,,,,,,,,,,,,,5c8ec999bb6a3c00014acf5f,53,2022-02-12_14h57.06.875,lexical_decision_task_DD,2021.2.3,Win32,60.06366749,,,,,,,,,,,,1.4182,1,,,,,,,,,,,,,,m,1,1.4182,,,,,,,,0.888020833,-0.313802083,0,0,0,,0,5,5,70,1,URINE,HB,old,m,./images/URINEHB.png,,,,,,,,,,,,,,,,,,,,,,,,,,,,,,,,,,
,,,,,,,,,,,,,,,,,5c8ec999bb6a3c00014acf5f,53,2022-02-12_14h57.06.875,lexical_decision_task_DD,2021.2.3,Win32,60.06366749,,,,,,,,,,,,0.6578,1,,,,,,,,,,,,,,m,1,0.6578,,,,,,,,0.888020833,-0.313802083,0,0,0,,0,6,6,9,1,RHINO,C,old,m,./images/RHINO.png,,,,,,,,,,,,,,,,,,,,,,,,,,,,,,,,,,
,,,,,,,,,,,,,,,,,5c8ec999bb6a3c00014acf5f,53,2022-02-12_14h57.06.875,lexical_decision_task_DD,2021.2.3,Win32,60.06366749,,,,,,,,,,,,0.7399,1,,,,,,,,,,,,,,m,1,0.7399,,,,,,,,0.888020833,-0.313802083,0,0,0,,0,7,7,78,1,LITTER,C,old,m,./images/LITTER.png,,,,,,,,,,,,,,,,,,,,,,,,,,,,,,,,,,
,,,,,,,,,,,,,,,,,5c8ec999bb6a3c00014acf5f,53,2022-02-12_14h57.06.875,lexical_decision_task_DD,2021.2.3,Win32,60.06366749,,,,,,,,,,,,1.0378,0,,,,,,,,,,,,,,m,0,1.0378,,,,,,,,0.888020833,-0.313802083,0,0,0,,0,8,8,128,1,GRIFT,LB,old,z,./images/GRIFTLB.png,,,,,,,,,,,,,,,,,,,,,,,,,,,,,,,,,,
,,,,,,,,,,,,,,,,,5c8ec999bb6a3c00014acf5f,53,2022-02-12_14h57.06.875,lexical_decision_task_DD,2021.2.3,Win32,60.06366749,,,,,,,,,,,,0.5747,1,,,,,,,,,,,,,,m,1,0.5747,,,,,,,,0.888020833,-0.313802083,0,0,0,,0,9,9,83,1,JUNGLE,LB,old,m,./images/JUNGLELB.png,,,,,,,,,,,,,,,,,,,,,,,,,,,,,,,,,,
,,,,,,,,,,,,,,,,,5c8ec999bb6a3c00014acf5f,53,2022-02-12_14h57.06.875,lexical_decision_task_DD,2021.2.3,Win32,60.06366749,,,,,,,,,,,,0.6241,1,,,,,,,,,,,,,,m,1,0.6241,,,,,,,,0.888020833,-0.313802083,0,0,0,,0,10,10,26,1,SMOKER,LB,old,m,./images/SMOKERLB.png,,,,,,,,,,,,,,,,,,,,,,,,,,,,,,,,,,
,,,,,,,,,,,,,,,,,5c8ec999bb6a3c00014acf5f,53,2022-02-12_14h57.06.875,lexical_decision_task_DD,2021.2.3,Win32,60.06366749,,,,,,,,,,,,0.6766,1,,,,,,,,,,,,,,m,1,0.6766,,,,,,,,0.888020833,-0.313802083,0,0,0,,0,11,11,17,1,SKIING,LB,old,m,./images/SKIINGLB.png,,,,,,,,,,,,,,,,,,,,,,,,,,,,,,,,,,
,,,,,,,,,,,,,,,,,5c8ec999bb6a3c00014acf5f,53,2022-02-12_14h57.06.875,lexical_decision_task_DD,2021.2.3,Win32,60.06366749,,,,,,,,,,,,0.5619,1,,,,,,,,,,,,,,m,1,0.5619,,,,,,,,0.888020833,-0.313802083,0,0,0,,0,12,12,36,1,THROAT,C,old,m,./images/THROAT.png,,,,,,,,,,,,,,,,,,,,,,,,,,,,,,,,,,
,,,,,,,,,,,,,,,,,5c8ec999bb6a3c00014acf5f,53,2022-02-12_14h57.06.875,lexical_decision_task_DD,2021.2.3,Win32,60.06366749,,,,,,,,,,,,0.655,1,,,,,,,,,,,,,,m,1,0.655,,,,,,,,0.888020833,-0.313802083,0,0,0,,0,13,13,14,1,PICKLE,LB,old,m,./images/PICKLELB.png,,,,,,,,,,,,,,,,,,,,,,,,,,,,,,,,,,
,,,,,,,,,,,,,,,,,5c8ec999bb6a3c00014acf5f,53,2022-02-12_14h57.06.875,lexical_decision_task_DD,2021.2.3,Win32,60.06366749,,,,,,,,,,,,0.6974,1,,,,,,,,,,,,,,m,1,0.6974,,,,,,,,0.888020833,-0.313802083,0,0,0,,0,14,14,33,1,MAGGOT,C,old,m,./images/MAGGOT.png,,,,,,,,,,,,,,,,,,,,,,,,,,,,,,,,,,
,,,,,,,,,,,,,,,,,5c8ec999bb6a3c00014acf5f,53,2022-02-12_14h57.06.875,lexical_decision_task_DD,2021.2.3,Win32,60.06366749,,,,,,,,,,,,0.6049,1,,,,,,,,,,,,,,m,1,0.6049,,,,,,,,0.888020833,-0.313802083,0,0,0,,0,15,15,47,1,BERRY,LB,old,m,./images/BERRYLB.png,,,,,,,,,,,,,,,,,,,,,,,,,,,,,,,,,,
,,,,,,,,,,,,,,,,,5c8ec999bb6a3c00014acf5f,53,2022-02-12_14h57.06.875,lexical_decision_task_DD,2021.2.3,Win32,60.06366749,,,,,,,,,,,,1.9547,1,,,,,,,,,,,,,,z,1,1.9547,,,,,,,,0.888020833,-0.313802083,0,0,0,,0,16,16,100,1,DRIBS,HB,old,z,./images/DRIBSHB.png,,,,,,,,,,,,,,,,,,,,,,,,,,,,,,,,,,
,,,,,,,,,,,,,,,,,5c8ec999bb6a3c00014acf5f,53,2022-02-12_14h57.06.875,lexical_decision_task_DD,2021.2.3,Win32,60.06366749,,,,,,,,,,,,1.1172,1,,,,,,,,,,,,,,m,1,1.1172,,,,,,,,0.888020833,-0.313802083,0,0,0,,0,17,17,72,1,NOOSE,C,old,m,./images/NOOSE.png,,,,,,,,,,,,,,,,,,,,,,,,,,,,,,,,,,
,,,,,,,,,,,,,,,,,5c8ec999bb6a3c00014acf5f,53,2022-02-12_14h57.06.875,lexical_decision_task_DD,2021.2.3,Win32,60.06366749,,,,,,,,,,,,0.9937,1,,,,,,,,,,,,,,z,1,0.9937,,,,,,,,0.888020833,-0.313802083,0,0,0,,0,18,18,122,1,BLOOT,LB,old,z,./images/BLOOTLB.png,,,,,,,,,,,,,,,,,,,,,,,,,,,,,,,,,,
,,,,,,,,,,,,,,,,,5c8ec999bb6a3c00014acf5f,53,2022-02-12_14h57.06.875,lexical_decision_task_DD,2021.2.3,Win32,60.06366749,,,,,,,,,,,,0.8778,1,,,,,,,,,,,,,,z,1,0.8778,,,,,,,,0.888020833,-0.313802083,0,0,0,,0,19,19,138,1,PLICE,C,old,z,./images/PLICE.png,,,,,,,,,,,,,,,,,,,,,,,,,,,,,,,,,,
,,,,,,,,,,,,,,,,,5c8ec999bb6a3c00014acf5f,53,2022-02-12_14h57.06.875,lexical_decision_task_DD,2021.2.3,Win32,60.06366749,,,,,,,,,,,,0.6689,1,,,,,,,,,,,,,,m,1,0.6689,,,,,,,,0.888020833,-0.313802083,0,0,0,,0,20,20,42,1,FOLDER,C,old,m,./images/FOLDER.png,,,,,,,,,,,,,,,,,,,,,,,,,,,,,,,,,,
,,,,,,,,,,,,,,,,,5c8ec999bb6a3c00014acf5f,53,2022-02-12_14h57.06.875,lexical_decision_task_DD,2021.2.3,Win32,60.06366749,,,,,,,,,,,,0.9538,1,,,,,,,,,,,,,,z,1,0.9538,,,,,,,,0.888020833,-0.313802083,0,0,0,,0,21,21,126,1,GUELS,C,old,z,./images/GUELS.png,,,,,,,,,,,,,,,,,,,,,,,,,,,,,,,,,,
,,,,,,,,,,,,,,,,,5c8ec999bb6a3c00014acf5f,53,2022-02-12_14h57.06.875,lexical_decision_task_DD,2021.2.3,Win32,60.06366749,,,,,,,,,,,,0.653,1,,,,,,,,,,,,,,m,1,0.653,,,,,,,,0.888020833,-0.313802083,0,0,0,,0,22,22,2,1,BEARD,LB,old,m,./images/BEARDLB.png,,,,,,,,,,,,,,,,,,,,,,,,,,,,,,,,,,
,,,,,,,,,,,,,,,,,5c8ec999bb6a3c00014acf5f,53,2022-02-12_14h57.06.875,lexical_decision_task_DD,2021.2.3,Win32,60.06366749,,,,,,,,,,,,0.8389,1,,,,,,,,,,,,,,z,1,0.8389,,,,,,,,0.888020833,-0.313802083,0,0,0,,0,23,23,143,1,MONGS,LB,old,z,./images/MONGSLB.png,,,,,,,,,,,,,,,,,,,,,,,,,,,,,,,,,,
,,,,,,,,,,,,,,,,,5c8ec999bb6a3c00014acf5f,53,2022-02-12_14h57.06.875,lexical_decision_task_DD,2021.2.3,Win32,60.06366749,,,,,,,,,,,,0.5754,1,,,,,,,,,,,,,,m,1,0.5754,,,,,,,,0.888020833,-0.313802083,0,0,0,,0,24,24,39,1,SHELF,C,old,m,./images/SHELF.png,,,,,,,,,,,,,,,,,,,,,,,,,,,,,,,,,,
,,,,,,,,,,,,,,,,,5c8ec999bb6a3c00014acf5f,53,2022-02-12_14h57.06.875,lexical_decision_task_DD,2021.2.3,Win32,60.06366749,,,,,,,,,,,,0.7217,1,,,,,,,,,,,,,,z,1,0.7217,,,,,,,,0.888020833,-0.313802083,0,0,0,,0,25,25,150,1,NOOLS,C,old,z,./images/NOOLS.png,,,,,,,,,,,,,,,,,,,,,,,,,,,,,,,,,,
,,,,,,,,,,,,,,,,,5c8ec999bb6a3c00014acf5f,53,2022-02-12_14h57.06.875,lexical_decision_task_DD,2021.2.3,Win32,60.06366749,,,,,,,,,,,,0.6163,1,,,,,,,,,,,,,,m,1,0.6163,,,,,,,,0.888020833,-0.313802083,0,0,0,,0,26,26,38,1,LADDER,LB,old,m,./images/LADDERLB.png,,,,,,,,,,,,,,,,,,,,,,,,,,,,,,,,,,
,,,,,,,,,,,,,,,,,5c8ec999bb6a3c00014acf5f,53,2022-02-12_14h57.06.875,lexical_decision_task_DD,2021.2.3,Win32,60.06366749,,,,,,,,,,,,2.0733,1,,,,,,,,,,,,,,z,1,2.0733,,,,,,,,0.888020833,-0.313802083,0,0,0,,0,27,27,95,1,HANTY,LB,old,z,./images/HANTYLB.png,,,,,,,,,,,,,,,,,,,,,,,,,,,,,,,,,,
,,,,,,,,,,,,,,,,,5c8ec999bb6a3c00014acf5f,53,2022-02-12_14h57.06.875,lexical_decision_task_DD,2021.2.3,Win32,60.06366749,,,,,,,,,,,,0.5906,1,,,,,,,,,,,,,,m,1,0.5906,,,,,,,,0.888020833,-0.313802083,0,0,0,,0,28,28,18,1,JAGUAR,C,old,m,./images/JAGUAR.png,,,,,,,,,,,,,,,,,,,,,,,,,,,,,,,,,,
,,,,,,,,,,,,,,,,,5c8ec999bb6a3c00014acf5f,53,2022-02-12_14h57.06.875,lexical_decision_task_DD,2021.2.3,Win32,60.06366749,,,,,,,,,,,,0.8489,1,,,,,,,,,,,,,,m,1,0.8489,,,,,,,,0.888020833,-0.313802083,0,0,0,,0,29,29,79,1,CRUST,HB,old,m,./images/CRUSTHB.png,,,,,,,,,,,,,,,,,,,,,,,,,,,,,,,,,,
,,,,,,,,,,,,,,,,,5c8ec999bb6a3c00014acf5f,53,2022-02-12_14h57.06.875,lexical_decision_task_DD,2021.2.3,Win32,60.06366749,,,,,,,,,,,,1.6096,1,,,,,,,,,,,,,,z,1,1.6096,,,,,,,,0.888020833,-0.313802083,0,0,0,,0,30,30,137,1,JOOST,LB,old,z,./images/JOOSTLB.png,,,,,,,,,,,,,,,,,,,,,,,,,,,,,,,,,,
,,,,,,,,,,,,,,,,,5c8ec999bb6a3c00014acf5f,53,2022-02-12_14h57.06.875,lexical_decision_task_DD,2021.2.3,Win32,60.06366749,,,,,,,,,,,,0.874,1,,,,,,,,,,,,,,m,1,0.874,,,,,,,,0.888020833,-0.313802083,0,0,0,,0,31,31,46,1,PEARL,HB,old,m,./images/PEARLHB.png,,,,,,,,,,,,,,,,,,,,,,,,,,,,,,,,,,
,,,,,,,,,,,,,,,,,5c8ec999bb6a3c00014acf5f,53,2022-02-12_14h57.06.875,lexical_decision_task_DD,2021.2.3,Win32,60.06366749,,,,,,,,,,,,1.3084,1,,,,,,,,,,,,,,z,1,1.3084,,,,,,,,0.888020833,-0.313802083,0,0,0,,0,32,32,92,1,PAIMS,LB,old,z,./images/PAIMSLB.png,,,,,,,,,,,,,,,,,,,,,,,,,,,,,,,,,,
,,,,,,,,,,,,,,,,,5c8ec999bb6a3c00014acf5f,53,2022-02-12_14h57.06.875,lexical_decision_task_DD,2021.2.3,Win32,60.06366749,,,,,,,,,,,,0.8638,1,,,,,,,,,,,,,,m,1,0.8638,,,,,,,,0.888020833,-0.313802083,0,0,0,,0,33,33,10,1,BELLY,HB,old,m,./images/BELLYHB.png,,,,,,,,,,,,,,,,,,,,,,,,,,,,,,,,,,
,,,,,,,,,,,,,,,,,5c8ec999bb6a3c00014acf5f,53,2022-02-12_14h57.06.875,lexical_decision_task_DD,2021.2.3,Win32,60.06366749,,,,,,,,,,,,1.5047,1,,,,,,,,,,,,,,z,1,1.5047,,,,,,,,0.888020833,-0.313802083,0,0,0,,0,34,34,91,1,SHENS,HB,old,z,./images/SHENSHB.png,,,,,,,,,,,,,,,,,,,,,,,,,,,,,,,,,,
,,,,,,,,,,,,,,,,,5c8ec999bb6a3c00014acf5f,53,2022-02-12_14h57.06.875,lexical_decision_task_DD,2021.2.3,Win32,60.06366749,,,,,,,,,,,,1.1778,1,,,,,,,,,,,,,,m,1,1.1778,,,,,,,,0.888020833,-0.313802083,0,0,0,,0,35,35,55,1,MUFFIN,HB,old,m,./images/MUFFINHB.png,,,,,,,,,,,,,,,,,,,,,,,,,,,,,,,,,,
,,,,,,,,,,,,,,,,,5c8ec999bb6a3c00014acf5f,53,2022-02-12_14h57.06.875,lexical_decision_task_DD,2021.2.3,Win32,60.06366749,,,,,,,,,,,,0.8698,1,,,,,,,,,,,,,,m,1,0.8698,,,,,,,,0.888020833,-0.313802083,0,0,0,,0,36,36,25,1,WRIST,HB,old,m,./images/WRISTHB.png,,,,,,,,,,,,,,,,,,,,,,,,,,,,,,,,,,
,,,,,,,,,,,,,,,,,5c8ec999bb6a3c00014acf5f,53,2022-02-12_14h57.06.875,lexical_decision_task_DD,2021.2.3,Win32,60.06366749,,,,,,,,,,,,1.0901,0,,,,,,,,,,,,,,z,0,1.0901,,,,,,,,0.888020833,-0.313802083,0,0,0,,0,37,37,69,1,COOKER,C,old,m,./images/COOKER.png,,,,,,,,,,,,,,,,,,,,,,,,,,,,,,,,,,
,,,,,,,,,,,,,,,,,5c8ec999bb6a3c00014acf5f,53,2022-02-12_14h57.06.875,lexical_decision_task_DD,2021.2.3,Win32,60.06366749,,,,,,,,,,,,0.7221,1,,,,,,,,,,,,,,m,1,0.7221,,,,,,,,0.888020833,-0.313802083,0,0,0,,0,38,38,24,1,SCREW,C,old,m,./images/SCREW.png,,,,,,,,,,,,,,,,,,,,,,,,,,,,,,,,,,
,,,,,,,,,,,,,,,,,5c8ec999bb6a3c00014acf5f,53,2022-02-12_14h57.06.875,lexical_decision_task_DD,2021.2.3,Win32,60.06366749,,,,,,,,,,,,1.2881,1,,,,,,,,,,,,,,z,1,1.2881,,,,,,,,0.888020833,-0.313802083,0,0,0,,0,39,39,106,1,CLUMS,HB,old,z,./images/CLUMSHB.png,,,,,,,,,,,,,,,,,,,,,,,,,,,,,,,,,,
,,,,,,,,,,,,,,,,,5c8ec999bb6a3c00014acf5f,53,2022-02-12_14h57.06.875,lexical_decision_task_DD,2021.2.3,Win32,60.06366749,,,,,,,,,,,,1.1493,1,,,,,,,,,,,,,,m,1,1.1493,,,,,,,,0.888020833,-0.313802083,0,0,0,,0,40,40,34,1,CANYON,HB,old,m,./images/CANYONHB.png,,,,,,,,,,,,,,,,,,,,,,,,,,,,,,,,,,
,,,,,,,,,,,,,,,,,5c8ec999bb6a3c00014acf5f,53,2022-02-12_14h57.06.875,lexical_decision_task_DD,2021.2.3,Win32,60.06366749,,,,,,,,,,,,0.5308,1,,,,,,,,,,,,,,m,1,0.5308,,,,,,,,0.888020833,-0.313802083,0,0,0,space,0,41,41,6,1,SQUARE,C,old,m,./images/SQUARE.png,10.9181,,,,,,,,,,,,,,,,,,,,,,,,,,,,,,,,,
,,,,,,,,,,,,,,,,,5c8ec999bb6a3c00014acf5f,53,2022-02-12_14h57.06.875,lexical_decision_task_DD,2021.2.3,Win32,60.06366749,,,,,,,,,,,,1.5081,1,,,,,,,,,,,,,,z,1,1.5081,,,,,,,,0.888020833,-0.313802083,0,0,0,,0,42,42,93,1,SMONE,C,old,z,./images/SMONE.png,,,,,,,,,,,,,,,,,,,,,,,,,,,,,,,,,,
,,,,,,,,,,,,,,,,,5c8ec999bb6a3c00014acf5f,53,2022-02-12_14h57.06.875,lexical_decision_task_DD,2021.2.3,Win32,60.06366749,,,,,,,,,,,,0.846,1,,,,,,,,,,,,,,m,1,0.846,,,,,,,,0.888020833,-0.313802083,0,0,0,,0,43,43,49,1,DRUMS,HB,old,m,./images/DRUMSHB.png,,,,,,,,,,,,,,,,,,,,,,,,,,,,,,,,,,
,,,,,,,,,,,,,,,,,5c8ec999bb6a3c00014acf5f,53,2022-02-12_14h57.06.875,lexical_decision_task_DD,2021.2.3,Win32,60.06366749,,,,,,,,,,,,0.7952,1,,,,,,,,,,,,,,z,1,0.7952,,,,,,,,0.888020833,-0.313802083,0,0,0,,0,44,44,120,1,RINED,C,old,z,./images/RINED.png,,,,,,,,,,,,,,,,,,,,,,,,,,,,,,,,,,
,,,,,,,,,,,,,,,,,5c8ec999bb6a3c00014acf5f,53,2022-02-12_14h57.06.875,lexical_decision_task_DD,2021.2.3,Win32,60.06366749,,,,,,,,,,,,1.126,1,,,,,,,,,,,,,,z,1,1.126,,,,,,,,0.888020833,-0.313802083,0,0,0,,0,45,45,160,1,VEETS,HB,old,z,./images/VEETSHB.png,,,,,,,,,,,,,,,,,,,,,,,,,,,,,,,,,,
,,,,,,,,,,,,,,,,,5c8ec999bb6a3c00014acf5f,53,2022-02-12_14h57.06.875,lexical_decision_task_DD,2021.2.3,Win32,60.06366749,,,,,,,,,,,,0.728,1,,,,,,,,,,,,,,z,1,0.728,,,,,,,,0.888020833,-0.313802083,0,0,0,,0,46,46,125,1,MOOKY,LB,old,z,./images/MOOKYLB.png,,,,,,,,,,,,,,,,,,,,,,,,,,,,,,,,,,
,,,,,,,,,,,,,,,,,5c8ec999bb6a3c00014acf5f,53,2022-02-12_14h57.06.875,lexical_decision_task_DD,2021.2.3,Win32,60.06366749,,,,,,,,,,,,1.6055,1,,,,,,,,,,,,,,z,1,1.6055,,,,,,,,0.888020833,-0.313802083,0,0,0,,0,47,47,97,1,CHIDS,HB,old,z,./images/CHIDSHB.png,,,,,,,,,,,,,,,,,,,,,,,,,,,,,,,,,,
,,,,,,,,,,,,,,,,,5c8ec999bb6a3c00014acf5f,53,2022-02-12_14h57.06.875,lexical_decision_task_DD,2021.2.3,Win32,60.06366749,,,,,,,,,,,,0.6143,1,,,,,,,,,,,,,,m,1,0.6143,,,,,,,,0.888020833,-0.313802083,0,0,0,,0,48,48,8,1,TULIP,LB,old,m,./images/TULIPLB.png,,,,,,,,,,,,,,,,,,,,,,,,,,,,,,,,,,
,,,,,,,,,,,,,,,,,5c8ec999bb6a3c00014acf5f,53,2022-02-12_14h57.06.875,lexical_decision_task_DD,2021.2.3,Win32,60.06366749,,,,,,,,,,,,0.9754,1,,,,,,,,,,,,,,z,1,0.9754,,,,,,,,0.888020833,-0.313802083,0,0,0,,0,49,49,144,1,NAIRY,C,old,z,./images/NAIRY.png,,,,,,,,,,,,,,,,,,,,,,,,,,,,,,,,,,
,,,,,,,,,,,,,,,,,5c8ec999bb6a3c00014acf5f,53,2022-02-12_14h57.06.875,lexical_decision_task_DD,2021.2.3,Win32,60.06366749,,,,,,,,,,,,0.8278,1,,,,,,,,,,,,,,z,1,0.8278,,,,,,,,0.888020833,-0.313802083,0,0,0,,0,50,50,146,1,MOOST,LB,old,z,./images/MOOSTLB.png,,,,,,,,,,,,,,,,,,,,,,,,,,,,,,,,,,
,,,,,,,,,,,,,,,,,5c8ec999bb6a3c00014acf5f,53,2022-02-12_14h57.06.875,lexical_decision_task_DD,2021.2.3,Win32,60.06366749,,,,,,,,,,,,2.1926,1,,,,,,,,,,,,,,z,1,2.1926,,,,,,,,0.888020833,-0.313802083,0,0,0,,0,51,51,151,1,TINKY,HB,old,z,./images/TINKYHB.png,,,,,,,,,,,,,,,,,,,,,,,,,,,,,,,,,,
,,,,,,,,,,,,,,,,,5c8ec999bb6a3c00014acf5f,53,2022-02-12_14h57.06.875,lexical_decision_task_DD,2021.2.3,Win32,60.06366749,,,,,,,,,,,,1.6862,0,,,,,,,,,,,,,,m,0,1.6862,,,,,,,,0.888020833,-0.313802083,0,0,0,,0,52,52,130,1,CRILL,HB,old,z,./images/CRILLHB.png,,,,,,,,,,,,,,,,,,,,,,,,,,,,,,,,,,
,,,,,,,,,,,,,,,,,5c8ec999bb6a3c00014acf5f,53,2022-02-12_14h57.06.875,lexical_decision_task_DD,2021.2.3,Win32,60.06366749,,,,,,,,,,,,2.3994,1,,,,,,,,,,,,,,z,1,2.3994,,,,,,,,0.888020833,-0.313802083,0,0,0,,0,53,53,166,1,SHORY,HB,old,z,./images/SHORYHB.png,,,,,,,,,,,,,,,,,,,,,,,,,,,,,,,,,,
,,,,,,,,,,,,,,,,,5c8ec999bb6a3c00014acf5f,53,2022-02-12_14h57.06.875,lexical_decision_task_DD,2021.2.3,Win32,60.06366749,,,,,,,,,,,,0.8228,1,,,,,,,,,,,,,,z,1,0.8228,,,,,,,,0.888020833,-0.313802083,0,0,0,,0,54,54,117,1,STEEG,C,old,z,./images/STEEG.png,,,,,,,,,,,,,,,,,,,,,,,,,,,,,,,,,,
,,,,,,,,,,,,,,,,,5c8ec999bb6a3c00014acf5f,53,2022-02-12_14h57.06.875,lexical_decision_task_DD,2021.2.3,Win32,60.06366749,,,,,,,,,,,,1.6631,1,,,,,,,,,,,,,,z,1,1.6631,,,,,,,,0.888020833,-0.313802083,0,0,0,,0,55,55,136,1,WERVE,HB,old,z,./images/WERVEHB.png,,,,,,,,,,,,,,,,,,,,,,,,,,,,,,,,,,
,,,,,,,,,,,,,,,,,5c8ec999bb6a3c00014acf5f,53,2022-02-12_14h57.06.875,lexical_decision_task_DD,2021.2.3,Win32,60.06366749,,,,,,,,,,,,1.9554,1,,,,,,,,,,,,,,z,1,1.9554,,,,,,,,0.888020833,-0.313802083,0,0,0,,0,56,56,101,1,GLEET,LB,old,z,./images/GLEETLB.png,,,,,,,,,,,,,,,,,,,,,,,,,,,,,,,,,,
,,,,,,,,,,,,,,,,,5c8ec999bb6a3c00014acf5f,53,2022-02-12_14h57.06.875,lexical_decision_task_DD,2021.2.3,Win32,60.06366749,,,,,,,,,,,,1.412,1,,,,,,,,,,,,,,z,1,1.412,,,,,,,,0.888020833,-0.313802083,0,0,0,,0,57,57,114,1,RIKES,C,old,z,./images/RIKES.png,,,,,,,,,,,,,,,,,,,,,,,,,,,,,,,,,,
,,,,,,,,,,,,,,,,,5c8ec999bb6a3c00014acf5f,53,2022-02-12_14h57.06.875,lexical_decision_task_DD,2021.2.3,Win32,60.06366749,,,,,,,,,,,,0.8927,1,,,,,,,,,,,,,,m,1,0.8927,,,,,,,,0.888020833,-0.313802083,0,0,0,,0,58,58,76,1,INFANT,HB,old,m,./images/INFANTHB.png,,,,,,,,,,,,,,,,,,,,,,,,,,,,,,,,,,
,,,,,,,,,,,,,,,,,5c8ec999bb6a3c00014acf5f,53,2022-02-12_14h57.06.875,lexical_decision_task_DD,2021.2.3,Win32,60.06366749,,,,,,,,,,,,0.5949,1,,,,,,,,,,,,,,m,1,0.5949,,,,,,,,0.888020833,-0.313802083,0,0,0,,0,59,59,41,1,STRING,LB,old,m,./images/STRINGLB.png,,,,,,,,,,,,,,,,,,,,,,,,,,,,,,,,,,
,,,,,,,,,,,,,,,,,5c8ec999bb6a3c00014acf5f,53,2022-02-12_14h57.06.875,lexical_decision_task_DD,2021.2.3,Win32,60.06366749,,,,,,,,,,,,0.573,1,,,,,,,,,,,,,,m,1,0.573,,,,,,,,0.888020833,-0.313802083,0,0,0,,0,60,60,65,1,FARMER,LB,old,m,./images/FARMERLB.png,,,,,,,,,,,,,,,,,,,,,,,,,,,,,,,,,,
,,,,,,,,,,,,,,,,,5c8ec999bb6a3c00014acf5f,53,2022-02-12_14h57.06.875,lexical_decision_task_DD,2021.2.3,Win32,60.06366749,,,,,,,,,,,,0.5583,1,,,,,,,,,,,,,,m,1,0.5583,,,,,,,,0.888020833,-0.313802083,0,0,0,,0,61,61,57,1,MOOSE,C,old,m,./images/MOOSE.png,,,,,,,,,,,,,,,,,,,,,,,,,,,,,,,,,,
,,,,,,,,,,,,,,,,,5c8ec999bb6a3c00014acf5f,53,2022-02-12_14h57.06.875,lexical_decision_task_DD,2021.2.3,Win32,60.06366749,,,,,,,,,,,,0.5945,1,,,,,,,,,,,,,,m,1,0.5945,,,,,,,,0.888020833,-0.313802083,0,0,0,,0,62,62,32,1,BARREL,LB,old,m,./images/BARRELLB.png,,,,,,,,,,,,,,,,,,,,,,,,,,,,,,,,,,
,,,,,,,,,,,,,,,,,5c8ec999bb6a3c00014acf5f,53,2022-02-12_14h57.06.875,lexical_decision_task_DD,2021.2.3,Win32,60.06366749,,,,,,,,,,,,1.4836,1,,,,,,,,,,,,,,z,1,1.4836,,,,,,,,0.888020833,-0.313802083,0,0,0,,0,63,63,158,1,EGECT,LB,old,z,./images/EGECTLB.png,,,,,,,,,,,,,,,,,,,,,,,,,,,,,,,,,,
,,,,,,,,,,,,,,,,,5c8ec999bb6a3c00014acf5f,53,2022-02-12_14h57.06.875,lexical_decision_task_DD,2021.2.3,Win32,60.06366749,,,,,,,,,,,,0.9894,1,,,,,,,,,,,,,,z,1,0.9894,,,,,,,,0.888020833,-0.313802083,0,0,0,,0,64,64,157,1,INLER,HB,old,z,./images/INLERHB.png,,,,,,,,,,,,,,,,,,,,,,,,,,,,,,,,,,
,,,,,,,,,,,,,,,,,5c8ec999bb6a3c00014acf5f,53,2022-02-12_14h57.06.875,lexical_decision_task_DD,2021.2.3,Win32,60.06366749,,,,,,,,,,,,1.6539,1,,,,,,,,,,,,,,m,1,1.6539,,,,,,,,0.888020833,-0.313802083,0,0,0,,0,65,65,43,1,MOSQUE,HB,old,m,./images/MOSQUEHB.png,,,,,,,,,,,,,,,,,,,,,,,,,,,,,,,,,,
,,,,,,,,,,,,,,,,,5c8ec999bb6a3c00014acf5f,53,2022-02-12_14h57.06.875,lexical_decision_task_DD,2021.2.3,Win32,60.06366749,,,,,,,,,,,,0.969,1,,,,,,,,,,,,,,z,1,0.969,,,,,,,,0.888020833,-0.313802083,0,0,0,,0,66,66,103,1,FLORT,HB,old,z,./images/FLORTHB.png,,,,,,,,,,,,,,,,,,,,,,,,,,,,,,,,,,
,,,,,,,,,,,,,,,,,5c8ec999bb6a3c00014acf5f,53,2022-02-12_14h57.06.875,lexical_decision_task_DD,2021.2.3,Win32,60.06366749,,,,,,,,,,,,0.809,1,,,,,,,,,,,,,,z,1,0.809,,,,,,,,0.888020833,-0.313802083,0,0,0,,0,67,67,111,1,HOSSE,C,old,z,./images/HOSSE.png,,,,,,,,,,,,,,,,,,,,,,,,,,,,,,,,,,
,,,,,,,,,,,,,,,,,5c8ec999bb6a3c00014acf5f,53,2022-02-12_14h57.06.875,lexical_decision_task_DD,2021.2.3,Win32,60.06366749,,,,,,,,,,,,0.8602,1,,,,,,,,,,,,,,z,1,0.8602,,,,,,,,0.888020833,-0.313802083,0,0,0,,0,68,68,90,1,NEAST,C,old,z,./images/NEAST.png,,,,,,,,,,,,,,,,,,,,,,,,,,,,,,,,,,
,,,,,,,,,,,,,,,,,5c8ec999bb6a3c00014acf5f,53,2022-02-12_14h57.06.875,lexical_decision_task_DD,2021.2.3,Win32,60.06366749,,,,,,,,,,,,1.3446,0,,,,,,,,,,,,,,m,0,1.3446,,,,,,,,0.888020833,-0.313802083,0,0,0,,0,69,69,129,1,PRANS,C,old,z,./images/PRANS.png,,,,,,,,,,,,,,,,,,,,,,,,,,,,,,,,,,
,,,,,,,,,,,,,,,,,5c8ec999bb6a3c00014acf5f,53,2022-02-12_14h57.06.875,lexical_decision_task_DD,2021.2.3,Win32,60.06366749,,,,,,,,,,,,2.5096,1,,,,,,,,,,,,,,z,1,2.5096,,,,,,,,0.888020833,-0.313802083,0,0,0,,0,70,70,115,1,MAWNS,HB,old,z,./images/MAWNSHB.png,,,,,,,,,,,,,,,,,,,,,,,,,,,,,,,,,,
,,,,,,,,,,,,,,,,,5c8ec999bb6a3c00014acf5f,53,2022-02-12_14h57.06.875,lexical_decision_task_DD,2021.2.3,Win32,60.06366749,,,,,,,,,,,,0.6137,1,,,,,,,,,,,,,,m,1,0.6137,,,,,,,,0.888020833,-0.313802083,0,0,0,,0,71,71,62,1,PURSE,LB,old,m,./images/PURSELB.png,,,,,,,,,,,,,,,,,,,,,,,,,,,,,,,,,,
,,,,,,,,,,,,,,,,,5c8ec999bb6a3c00014acf5f,53,2022-02-12_14h57.06.875,lexical_decision_task_DD,2021.2.3,Win32,60.06366749,,,,,,,,,,,,0.6401,1,,,,,,,,,,,,,,m,1,0.6401,,,,,,,,0.888020833,-0.313802083,0,0,0,,0,72,72,20,1,CRADLE,LB,old,m,./images/CRADLELB.png,,,,,,,,,,,,,,,,,,,,,,,,,,,,,,,,,,
,,,,,,,,,,,,,,,,,5c8ec999bb6a3c00014acf5f,53,2022-02-12_14h57.06.875,lexical_decision_task_DD,2021.2.3,Win32,60.06366749,,,,,,,,,,,,1.1182,1,,,,,,,,,,,,,,z,1,1.1182,,,,,,,,0.888020833,-0.313802083,0,0,0,,0,73,73,153,1,CLUPS,C,old,z,./images/CLUPS.png,,,,,,,,,,,,,,,,,,,,,,,,,,,,,,,,,,
,,,,,,,,,,,,,,,,,5c8ec999bb6a3c00014acf5f,53,2022-02-12_14h57.06.875,lexical_decision_task_DD,2021.2.3,Win32,60.06366749,,,,,,,,,,,,0.6263,1,,,,,,,,,,,,,,m,1,0.6263,,,,,,,,0.888020833,-0.313802083,0,0,0,,0,74,74,68,1,TORCH,LB,old,m,./images/TORCHLB.png,,,,,,,,,,,,,,,,,,,,,,,,,,,,,,,,,,
,,,,,,,,,,,,,,,,,5c8ec999bb6a3c00014acf5f,53,2022-02-12_14h57.06.875,lexical_decision_task_DD,2021.2.3,Win32,60.06366749,,,,,,,,,,,,1.2288,1,,,,,,,,,,,,,,z,1,1.2288,,,,,,,,0.888020833,-0.313802083,0,0,0,,0,75,75,139,1,BLEAR,HB,old,z,./images/BLEARHB.png,,,,,,,,,,,,,,,,,,,,,,,,,,,,,,,,,,
,,,,,,,,,,,,,,,,,5c8ec999bb6a3c00014acf5f,53,2022-02-12_14h57.06.875,lexical_decision_task_DD,2021.2.3,Win32,60.06366749,,,,,,,,,,,,1.7042,0,,,,,,,,,,,,,,m,0,1.7042,,,,,,,,0.888020833,-0.313802083,0,0,0,,0,76,76,152,1,FRAIN,LB,old,z,./images/FRAINLB.png,,,,,,,,,,,,,,,,,,,,,,,,,,,,,,,,,,
,,,,,,,,,,,,,,,,,5c8ec999bb6a3c00014acf5f,53,2022-02-12_14h57.06.875,lexical_decision_task_DD,2021.2.3,Win32,60.06366749,,,,,,,,,,,,0.8608,1,,,,,,,,,,,,,,z,1,0.8608,,,,,,,,0.888020833,-0.313802083,0,0,0,,0,77,77,98,1,BAMPS,LB,old,z,./images/BAMPSLB.png,,,,,,,,,,,,,,,,,,,,,,,,,,,,,,,,,,
,,,,,,,,,,,,,,,,,5c8ec999bb6a3c00014acf5f,53,2022-02-12_14h57.06.875,lexical_decision_task_DD,2021.2.3,Win32,60.06366749,,,,,,,,,,,,0.5778,1,,,,,,,,,,,,,,m,1,0.5778,,,,,,,,0.888020833,-0.313802083,0,0,0,,0,78,78,77,1,COUCH,LB,old,m,./images/COUCHLB.png,,,,,,,,,,,,,,,,,,,,,,,,,,,,,,,,,,
,,,,,,,,,,,,,,,,,5c8ec999bb6a3c00014acf5f,53,2022-02-12_14h57.06.875,lexical_decision_task_DD,2021.2.3,Win32,60.06366749,,,,,,,,,,,,0.604,1,,,,,,,,,,,,,,m,1,0.604,,,,,,,,0.888020833,-0.313802083,0,0,0,,0,79,79,12,1,SHORE,C,old,m,./images/SHORE.png,,,,,,,,,,,,,,,,,,,,,,,,,,,,,,,,,,
,,,,,,,,,,,,,,,,,5c8ec999bb6a3c00014acf5f,53,2022-02-12_14h57.06.875,lexical_decision_task_DD,2021.2.3,Win32,60.06366749,,,,,,,,,,,,0.9789,1,,,,,,,,,,,,,,z,1,0.9789,,,,,,,,0.888020833,-0.313802083,0,0,0,,0,80,80,108,1,GRUET,C,old,z,./images/GRUET.png,,,,,,,,,,,,,,,,,,,,,,,,,,,,,,,,,,
,,,,,,,,,,,,,,,,,5c8ec999bb6a3c00014acf5f,53,2022-02-12_14h57.06.875,lexical_decision_task_DD,2021.2.3,Win32,60.06366749,,,,,,,,,,,,0.5903,1,,,,,,,,,,,,,,m,1,0.5903,,,,,,,,0.888020833,-0.313802083,0,0,0,,0,81,81,48,1,SPORT,C,old,m,./images/SPORT.png,,,,,,,,,,,,,,,,,,,,,,,,,,,,,,,,,,
,,,,,,,,,,,,,,,,,5c8ec999bb6a3c00014acf5f,53,2022-02-12_14h57.06.875,lexical_decision_task_DD,2021.2.3,Win32,60.06366749,,,,,,,,,,,,0.7586,1,,,,,,,,,,,,,,z,1,0.7586,,,,,,,,0.888020833,-0.313802083,0,0,0,,0,82,82,84,1,HAXES,C,old,z,./images/HAXES.png,,,,,,,,,,,,,,,,,,,,,,,,,,,,,,,,,,
,,,,,,,,,,,,,,,,,5c8ec999bb6a3c00014acf5f,53,2022-02-12_14h57.06.875,lexical_decision_task_DD,2021.2.3,Win32,60.06366749,,,,,,,,,,,,0.5872,1,,,,,,,,,,,,,,m,1,0.5872,,,,,,,,0.888020833,-0.313802083,0,0,0,space,0,83,83,71,1,PIMPLE,LB,old,m,./images/PIMPLELB.png,2.6152,,,,,,,,,,,,,,,,,,,,,,,,,,,,,,,,,
,,,,,,,,,,,,,,,,,5c8ec999bb6a3c00014acf5f,53,2022-02-12_14h57.06.875,lexical_decision_task_DD,2021.2.3,Win32,60.06366749,,,,,,,,,,,,0.8057,1,,,,,,,,,,,,,,m,1,0.8057,,,,,,,,0.888020833,-0.313802083,0,0,0,,0,84,84,37,1,BIRTH,HB,old,m,./images/BIRTHHB.png,,,,,,,,,,,,,,,,,,,,,,,,,,,,,,,,,,
,,,,,,,,,,,,,,,,,5c8ec999bb6a3c00014acf5f,53,2022-02-12_14h57.06.875,lexical_decision_task_DD,2021.2.3,Win32,60.06366749,,,,,,,,,,,,0.6668,1,,,,,,,,,,,,,,z,1,0.6668,,,,,,,,0.888020833,-0.313802083,0,0,0,,0,85,85,141,1,PLEET,C,old,z,./images/PLEET.png,,,,,,,,,,,,,,,,,,,,,,,,,,,,,,,,,,
,,,,,,,,,,,,,,,,,5c8ec999bb6a3c00014acf5f,53,2022-02-12_14h57.06.875,lexical_decision_task_DD,2021.2.3,Win32,60.06366749,,,,,,,,,,,,0.9663,1,,,,,,,,,,,,,,m,1,0.9663,,,,,,,,0.888020833,-0.313802083,0,0,0,,0,86,86,52,1,BANNER,HB,old,m,./images/BANNERHB.png,,,,,,,,,,,,,,,,,,,,,,,,,,,,,,,,,,
,,,,,,,,,,,,,,,,,5c8ec999bb6a3c00014acf5f,53,2022-02-12_14h57.06.875,lexical_decision_task_DD,2021.2.3,Win32,60.06366749,,,,,,,,,,,,1.1782,1,,,,,,,,,,,,,,m,1,1.1782,,,,,,,,0.888020833,-0.313802083,0,0,0,,0,87,87,58,1,BABOON,HB,old,m,./images/BABOONHB.png,,,,,,,,,,,,,,,,,,,,,,,,,,,,,,,,,,
,,,,,,,,,,,,,,,,,5c8ec999bb6a3c00014acf5f,53,2022-02-12_14h57.06.875,lexical_decision_task_DD,2021.2.3,Win32,60.06366749,,,,,,,,,,,,0.5853,1,,,,,,,,,,,,,,m,1,0.5853,,,,,,,,0.888020833,-0.313802083,0,0,0,,0,88,88,30,1,STORM,C,old,m,./images/STORM.png,,,,,,,,,,,,,,,,,,,,,,,,,,,,,,,,,,
,,,,,,,,,,,,,,,,,5c8ec999bb6a3c00014acf5f,53,2022-02-12_14h57.06.875,lexical_decision_task_DD,2021.2.3,Win32,60.06366749,,,,,,,,,,,,0.8583,1,,,,,,,,,,,,,,m,1,0.8583,,,,,,,,0.888020833,-0.313802083,0,0,0,,0,89,89,50,1,MALLET,LB,old,m,./images/MALLETLB.png,,,,,,,,,,,,,,,,,,,,,,,,,,,,,,,,,,
,,,,,,,,,,,,,,,,,5c8ec999bb6a3c00014acf5f,53,2022-02-12_14h57.06.875,lexical_decision_task_DD,2021.2.3,Win32,60.06366749,,,,,,,,,,,,0.9402,1,,,,,,,,,,,,,,z,1,0.9402,,,,,,,,0.888020833,-0.313802083,0,0,0,,0,90,90,132,1,SCIFF,C,old,z,./images/SCIFF.png,,,,,,,,,,,,,,,,,,,,,,,,,,,,,,,,,,
,,,,,,,,,,,,,,,,,5c8ec999bb6a3c00014acf5f,53,2022-02-12_14h57.06.875,lexical_decision_task_DD,2021.2.3,Win32,60.06366749,,,,,,,,,,,,0.6926,1,,,,,,,,,,,,,,m,1,0.6926,,,,,,,,0.888020833,-0.313802083,0,0,0,,0,91,91,7,1,PAINT,HB,old,m,./images/PAINTHB.png,,,,,,,,,,,,,,,,,,,,,,,,,,,,,,,,,,
,,,,,,,,,,,,,,,,,5c8ec999bb6a3c00014acf5f,53,2022-02-12_14h57.06.875,lexical_decision_task_DD,2021.2.3,Win32,60.06366749,,,,,,,,,,,,0.6595,1,,,,,,,,,,,,,,m,1,0.6595,,,,,,,,0.888020833,-0.313802083,0,0,0,,0,92,92,75,1,GRAIN,C,old,m,./images/GRAIN.png,,,,,,,,,,,,,,,,,,,,,,,,,,,,,,,,,,
,,,,,,,,,,,,,,,,,5c8ec999bb6a3c00014acf5f,53,2022-02-12_14h57.06.875,lexical_decision_task_DD,2021.2.3,Win32,60.06366749,,,,,,,,,,,,0.6941,1,,,,,,,,,,,,,,z,1,0.6941,,,,,,,,0.888020833,-0.313802083,0,0,0,,0,93,93,147,1,ZOLES,C,old,z,./images/ZOLES.png,,,,,,,,,,,,,,,,,,,,,,,,,,,,,,,,,,
,,,,,,,,,,,,,,,,,5c8ec999bb6a3c00014acf5f,53,2022-02-12_14h57.06.875,lexical_decision_task_DD,2021.2.3,Win32,60.06366749,,,,,,,,,,,,1.5071,1,,,,,,,,,,,,,,z,1,1.5071,,,,,,,,0.888020833,-0.313802083,0,0,0,,0,94,94,159,1,CUDDY,C,old,z,./images/CUDDY.png,,,,,,,,,,,,,,,,,,,,,,,,,,,,,,,,,,
,,,,,,,,,,,,,,,,,5c8ec999bb6a3c00014acf5f,53,2022-02-12_14h57.06.875,lexical_decision_task_DD,2021.2.3,Win32,60.06366749,,,,,,,,,,,,0.5959,1,,,,,,,,,,,,,,m,1,0.5959,,,,,,,,0.888020833,-0.313802083,0,0,0,,0,95,95,74,1,CEMENT,LB,old,m,./images/CEMENTLB.png,,,,,,,,,,,,,,,,,,,,,,,,,,,,,,,,,,
,,,,,,,,,,,,,,,,,5c8ec999bb6a3c00014acf5f,53,2022-02-12_14h57.06.875,lexical_decision_task_DD,2021.2.3,Win32,60.06366749,,,,,,,,,,,,1.3001,1,,,,,,,,,,,,,,z,1,1.3001,,,,,,,,0.888020833,-0.313802083,0,0,0,,0,96,96,127,1,NINDY,HB,old,z,./images/NINDYHB.png,,,,,,,,,,,,,,,,,,,,,,,,,,,,,,,,,,
,,,,,,,,,,,,,,,,,5c8ec999bb6a3c00014acf5f,53,2022-02-12_14h57.06.875,lexical_decision_task_DD,2021.2.3,Win32,60.06366749,,,,,,,,,,,,1.7165,1,,,,,,,,,,,,,,z,1,1.7165,,,,,,,,0.888020833,-0.313802083,0,0,0,,0,97,97,162,1,LEICH,C,old,z,./images/LEICH.png,,,,,,,,,,,,,,,,,,,,,,,,,,,,,,,,,,
,,,,,,,,,,,,,,,,,5c8ec999bb6a3c00014acf5f,53,2022-02-12_14h57.06.875,lexical_decision_task_DD,2021.2.3,Win32,60.06366749,,,,,,,,,,,,0.5653,1,,,,,,,,,,,,,,m,1,0.5653,,,,,,,,0.888020833,-0.313802083,0,0,0,,0,98,98,53,1,CARPET,LB,old,m,./images/CARPETLB.png,,,,,,,,,,,,,,,,,,,,,,,,,,,,,,,,,,
,,,,,,,,,,,,,,,,,5c8ec999bb6a3c00014acf5f,53,2022-02-12_14h57.06.875,lexical_decision_task_DD,2021.2.3,Win32,60.06366749,,,,,,,,,,,,1.0921,1,,,,,,,,,,,,,,m,1,1.0921,,,,,,,,0.888020833,-0.313802083,0,0,0,,0,99,99,19,1,DOUGH,HB,old,m,./images/DOUGHHB.png,,,,,,,,,,,,,,,,,,,,,,,,,,,,,,,,,,
,,,,,,,,,,,,,,,,,5c8ec999bb6a3c00014acf5f,53,2022-02-12_14h57.06.875,lexical_decision_task_DD,2021.2.3,Win32,60.06366749,,,,,,,,,,,,1.9521,1,,,,,,,,,,,,,,z,1,1.9521,,,,,,,,0.888020833,-0.313802083,0,0,0,,0,100,100,110,1,CRUNK,LB,old,z,./images/CRUNKLB.png,,,,,,,,,,,,,,,,,,,,,,,,,,,,,,,,,,
,,,,,,,,,,,,,,,,,5c8ec999bb6a3c00014acf5f,53,2022-02-12_14h57.06.875,lexical_decision_task_DD,2021.2.3,Win32,60.06366749,,,,,,,,,,,,2.2455,1,,,,,,,,,,,,,,z,1,2.2455,,,,,,,,0.888020833,-0.313802083,0,0,0,,0,101,101,94,1,BLANS,HB,old,z,./images/BLANSHB.png,,,,,,,,,,,,,,,,,,,,,,,,,,,,,,,,,,
,,,,,,,,,,,,,,,,,5c8ec999bb6a3c00014acf5f,53,2022-02-12_14h57.06.875,lexical_decision_task_DD,2021.2.3,Win32,60.06366749,,,,,,,,,,,,1.7101,1,,,,,,,,,,,,,,z,1,1.7101,,,,,,,,0.888020833,-0.313802083,0,0,0,,0,102,102,109,1,BURGE,HB,old,z,./images/BURGEHB.png,,,,,,,,,,,,,,,,,,,,,,,,,,,,,,,,,,
,,,,,,,,,,,,,,,,,5c8ec999bb6a3c00014acf5f,53,2022-02-12_14h57.06.875,lexical_decision_task_DD,2021.2.3,Win32,60.06366749,,,,,,,,,,,,2.1874,1,,,,,,,,,,,,,,z,1,2.1874,,,,,,,,0.888020833,-0.313802083,0,0,0,,0,103,103,121,1,CEERS,HB,old,z,./images/CEERSHB.png,,,,,,,,,,,,,,,,,,,,,,,,,,,,,,,,,,
,,,,,,,,,,,,,,,,,5c8ec999bb6a3c00014acf5f,53,2022-02-12_14h57.06.875,lexical_decision_task_DD,2021.2.3,Win32,60.06366749,,,,,,,,,,,,0.6034,1,,,,,,,,,,,,,,m,1,0.6034,,,,,,,,0.888020833,-0.313802083,0,0,0,,0,104,104,29,1,CRUMB,LB,old,m,./images/CRUMBLB.png,,,,,,,,,,,,,,,,,,,,,,,,,,,,,,,,,,
,,,,,,,,,,,,,,,,,5c8ec999bb6a3c00014acf5f,53,2022-02-12_14h57.06.875,lexical_decision_task_DD,2021.2.3,Win32,60.06366749,,,,,,,,,,,,0.9328,1,,,,,,,,,,,,,,z,1,0.9328,,,,,,,,0.888020833,-0.313802083,0,0,0,,0,105,105,156,1,HIXES,C,old,z,./images/HIXES.png,,,,,,,,,,,,,,,,,,,,,,,,,,,,,,,,,,
,,,,,,,,,,,,,,,,,5c8ec999bb6a3c00014acf5f,53,2022-02-12_14h57.06.875,lexical_decision_task_DD,2021.2.3,Win32,60.06366749,,,,,,,,,,,,0.8861,1,,,,,,,,,,,,,,z,1,0.8861,,,,,,,,0.888020833,-0.313802083,0,0,0,,0,106,106,134,1,TROSS,LB,old,z,./images/TROSSLB.png,,,,,,,,,,,,,,,,,,,,,,,,,,,,,,,,,,
,,,,,,,,,,,,,,,,,5c8ec999bb6a3c00014acf5f,53,2022-02-12_14h57.06.875,lexical_decision_task_DD,2021.2.3,Win32,60.06366749,,,,,,,,,,,,0.7968,1,,,,,,,,,,,,,,m,1,0.7968,,,,,,,,0.888020833,-0.313802083,0,0,0,,0,107,107,28,1,FALCON,HB,old,m,./images/FALCONHB.png,,,,,,,,,,,,,,,,,,,,,,,,,,,,,,,,,,
,,,,,,,,,,,,,,,,,5c8ec999bb6a3c00014acf5f,53,2022-02-12_14h57.06.875,lexical_decision_task_DD,2021.2.3,Win32,60.06366749,,,,,,,,,,,,0.8634,1,,,,,,,,,,,,,,z,1,0.8634,,,,,,,,0.888020833,-0.313802083,0,0,0,,0,108,108,164,1,SGREW,LB,old,z,./images/SGREWLB.png,,,,,,,,,,,,,,,,,,,,,,,,,,,,,,,,,,
,,,,,,,,,,,,,,,,,5c8ec999bb6a3c00014acf5f,53,2022-02-12_14h57.06.875,lexical_decision_task_DD,2021.2.3,Win32,60.06366749,,,,,,,,,,,,0.9209,1,,,,,,,,,,,,,,z,1,0.9209,,,,,,,,0.888020833,-0.313802083,0,0,0,,0,109,109,87,1,TRING,C,old,z,./images/TRING.png,,,,,,,,,,,,,,,,,,,,,,,,,,,,,,,,,,
,,,,,,,,,,,,,,,,,5c8ec999bb6a3c00014acf5f,53,2022-02-12_14h57.06.875,lexical_decision_task_DD,2021.2.3,Win32,60.06366749,,,,,,,,,,,,0.9805,1,,,,,,,,,,,,,,z,1,0.9805,,,,,,,,0.888020833,-0.313802083,0,0,0,,0,110,110,133,1,POWDY,HB,old,z,./images/POWDYHB.png,,,,,,,,,,,,,,,,,,,,,,,,,,,,,,,,,,
,,,,,,,,,,,,,,,,,5c8ec999bb6a3c00014acf5f,53,2022-02-12_14h57.06.875,lexical_decision_task_DD,2021.2.3,Win32,60.06366749,,,,,,,,,,,,1.0409,1,,,,,,,,,,,,,,z,1,1.0409,,,,,,,,0.888020833,-0.313802083,0,0,0,,0,111,111,89,1,DRIEK,LB,old,z,./images/DRIEKLB.png,,,,,,,,,,,,,,,,,,,,,,,,,,,,,,,,,,
,,,,,,,,,,,,,,,,,5c8ec999bb6a3c00014acf5f,53,2022-02-12_14h57.06.875,lexical_decision_task_DD,2021.2.3,Win32,60.06366749,,,,,,,,,,,,0.7253,1,,,,,,,,,,,,,,z,1,0.7253,,,,,,,,0.888020833,-0.313802083,0,0,0,,0,112,112,149,1,VEASE,LB,old,z,./images/VEASELB.png,,,,,,,,,,,,,,,,,,,,,,,,,,,,,,,,,,
,,,,,,,,,,,,,,,,,5c8ec999bb6a3c00014acf5f,53,2022-02-12_14h57.06.875,lexical_decision_task_DD,2021.2.3,Win32,60.06366749,,,,,,,,,,,,0.9399,1,,,,,,,,,,,,,,z,1,0.9399,,,,,,,,0.888020833,-0.313802083,0,0,0,,0,113,113,99,1,BACKY,C,old,z,./images/BACKY.png,,,,,,,,,,,,,,,,,,,,,,,,,,,,,,,,,,
,,,,,,,,,,,,,,,,,5c8ec999bb6a3c00014acf5f,53,2022-02-12_14h57.06.875,lexical_decision_task_DD,2021.2.3,Win32,60.06366749,,,,,,,,,,,,1.2359,1,,,,,,,,,,,,,,m,1,1.2359,,,,,,,,0.888020833,-0.313802083,0,0,0,,0,114,114,31,1,QUILL,HB,old,m,./images/QUILLHB.png,,,,,,,,,,,,,,,,,,,,,,,,,,,,,,,,,,
,,,,,,,,,,,,,,,,,5c8ec999bb6a3c00014acf5f,53,2022-02-12_14h57.06.875,lexical_decision_task_DD,2021.2.3,Win32,60.06366749,,,,,,,,,,,,0.7083,1,,,,,,,,,,,,,,z,1,0.7083,,,,,,,,0.888020833,-0.313802083,0,0,0,,0,115,115,86,1,AIFED,LB,old,z,./images/AIFEDLB.png,,,,,,,,,,,,,,,,,,,,,,,,,,,,,,,,,,
,,,,,,,,,,,,,,,,,5c8ec999bb6a3c00014acf5f,53,2022-02-12_14h57.06.875,lexical_decision_task_DD,2021.2.3,Win32,60.06366749,,,,,,,,,,,,1.0098,1,,,,,,,,,,,,,,z,1,1.0098,,,,,,,,0.888020833,-0.313802083,0,0,0,,0,116,116,124,1,TUNCH,HB,old,z,./images/TUNCHHB.png,,,,,,,,,,,,,,,,,,,,,,,,,,,,,,,,,,
,,,,,,,,,,,,,,,,,5c8ec999bb6a3c00014acf5f,53,2022-02-12_14h57.06.875,lexical_decision_task_DD,2021.2.3,Win32,60.06366749,,,,,,,,,,,,0.5681,1,,,,,,,,,,,,,,m,1,0.5681,,,,,,,,0.888020833,-0.313802083,0,0,0,,0,117,117,80,1,WEASEL,LB,old,m,./images/WEASELLB.png,,,,,,,,,,,,,,,,,,,,,,,,,,,,,,,,,,
,,,,,,,,,,,,,,,,,5c8ec999bb6a3c00014acf5f,53,2022-02-12_14h57.06.875,lexical_decision_task_DD,2021.2.3,Win32,60.06366749,,,,,,,,,,,,0.5107,1,,,,,,,,,,,,,,m,1,0.5107,,,,,,,,0.888020833,-0.313802083,0,0,0,,0,118,118,35,1,PEACH,LB,old,m,./images/PEACHLB.png,,,,,,,,,,,,,,,,,,,,,,,,,,,,,,,,,,
,,,,,,,,,,,,,,,,,5c8ec999bb6a3c00014acf5f,53,2022-02-12_14h57.06.875,lexical_decision_task_DD,2021.2.3,Win32,60.06366749,,,,,,,,,,,,0.5874,1,,,,,,,,,,,,,,m,1,0.5874,,,,,,,,0.888020833,-0.313802083,0,0,0,,0,119,119,5,1,PASTA,LB,old,m,./images/PASTALB.png,,,,,,,,,,,,,,,,,,,,,,,,,,,,,,,,,,
,,,,,,,,,,,,,,,,,5c8ec999bb6a3c00014acf5f,53,2022-02-12_14h57.06.875,lexical_decision_task_DD,2021.2.3,Win32,60.06366749,,,,,,,,,,,,1.5169,1,,,,,,,,,,,,,,m,1,1.5169,,,,,,,,0.888020833,-0.313802083,0,0,0,,0,120,120,16,1,PENCE,HB,old,m,./images/PENCEHB.png,,,,,,,,,,,,,,,,,,,,,,,,,,,,,,,,,,
,,,,,,,,,,,,,,,,,5c8ec999bb6a3c00014acf5f,53,2022-02-12_14h57.06.875,lexical_decision_task_DD,2021.2.3,Win32,60.06366749,,,,,,,,,,,,0.6054,1,,,,,,,,,,,,,,m,1,0.6054,,,,,,,,0.888020833,-0.313802083,0,0,0,,0,121,121,64,1,JELLY,HB,old,m,./images/JELLYHB.png,,,,,,,,,,,,,,,,,,,,,,,,,,,,,,,,,,
,,,,,,,,,,,,,,,,,5c8ec999bb6a3c00014acf5f,53,2022-02-12_14h57.06.875,lexical_decision_task_DD,2021.2.3,Win32,60.06366749,,,,,,,,,,,,1.5577,1,,,,,,,,,,,,,,z,1,1.5577,,,,,,,,0.888020833,-0.313802083,0,0,0,,0,122,122,165,1,TROWN,C,old,z,./images/TROWN.png,,,,,,,,,,,,,,,,,,,,,,,,,,,,,,,,,,
,,,,,,,,,,,,,,,,,5c8ec999bb6a3c00014acf5f,53,2022-02-12_14h57.06.875,lexical_decision_task_DD,2021.2.3,Win32,60.06366749,,,,,,,,,,,,0.6268,1,,,,,,,,,,,,,,m,1,0.6268,,,,,,,,0.888020833,-0.313802083,0,0,0,,0,123,123,61,1,CANDLE,HB,old,m,./images/CANDLEHB.png,,,,,,,,,,,,,,,,,,,,,,,,,,,,,,,,,,
,,,,,,,,,,,,,,,,,5c8ec999bb6a3c00014acf5f,53,2022-02-12_14h57.06.875,lexical_decision_task_DD,2021.2.3,Win32,60.06366749,,,,,,,,,,,,0.6095,1,,,,,,,,,,,,,,m,1,0.6095,,,,,,,,0.888020833,-0.313802083,0,0,0,,0,124,124,59,1,BURIAL,LB,old,m,./images/BURIALLB.png,,,,,,,,,,,,,,,,,,,,,,,,,,,,,,,,,,
,,,,,,,,,,,,,,,,,5c8ec999bb6a3c00014acf5f,53,2022-02-12_14h57.06.875,lexical_decision_task_DD,2021.2.3,Win32,60.06366749,,,,,,,,,,,,0.5191,1,,,,,,,,,,,,,,m,1,0.5191,,,,,,,,0.888020833,-0.313802083,0,0,0,space,0,125,125,45,1,KITTEN,C,old,m,./images/KITTEN.png,1.2005,,,,,,,,,,,,,,,,,,,,,,,,,,,,,,,,,
,,,,,,,,,,,,,,,,,5c8ec999bb6a3c00014acf5f,53,2022-02-12_14h57.06.875,lexical_decision_task_DD,2021.2.3,Win32,60.06366749,,,,,,,,,,,,0.9386,1,,,,,,,,,,,,,,z,1,0.9386,,,,,,,,0.888020833,-0.313802083,0,0,0,,0,126,126,119,1,PAFER,LB,old,z,./images/PAFERLB.png,,,,,,,,,,,,,,,,,,,,,,,,,,,,,,,,,,
,,,,,,,,,,,,,,,,,5c8ec999bb6a3c00014acf5f,53,2022-02-12_14h57.06.875,lexical_decision_task_DD,2021.2.3,Win32,60.06366749,,,,,,,,,,,,0.5568,1,,,,,,,,,,,,,,m,1,0.5568,,,,,,,,0.888020833,-0.313802083,0,0,0,,0,127,127,60,1,TWINS,C,old,m,./images/TWINS.png,,,,,,,,,,,,,,,,,,,,,,,,,,,,,,,,,,
,,,,,,,,,,,,,,,,,5c8ec999bb6a3c00014acf5f,53,2022-02-12_14h57.06.875,lexical_decision_task_DD,2021.2.3,Win32,60.06366749,,,,,,,,,,,,0.6517,1,,,,,,,,,,,,,,z,1,0.6517,,,,,,,,0.888020833,-0.313802083,0,0,0,,0,128,128,105,1,MOKER,C,old,z,./images/MOKER.png,,,,,,,,,,,,,,,,,,,,,,,,,,,,,,,,,,
,,,,,,,,,,,,,,,,,5c8ec999bb6a3c00014acf5f,53,2022-02-12_14h57.06.875,lexical_decision_task_DD,2021.2.3,Win32,60.06366749,,,,,,,,,,,,0.926,1,,,,,,,,,,,,,,z,1,0.926,,,,,,,,0.888020833,-0.313802083,0,0,0,,0,129,129,116,1,BALGY,LB,old,z,./images/BALGYLB.png,,,,,,,,,,,,,,,,,,,,,,,,,,,,,,,,,,
,,,,,,,,,,,,,,,,,5c8ec999bb6a3c00014acf5f,53,2022-02-12_14h57.06.875,lexical_decision_task_DD,2021.2.3,Win32,60.06366749,,,,,,,,,,,,0.662,1,,,,,,,,,,,,,,m,1,0.662,,,,,,,,0.888020833,-0.313802083,0,0,0,,0,130,130,22,1,MELON,HB,old,m,./images/MELONHB.png,,,,,,,,,,,,,,,,,,,,,,,,,,,,,,,,,,
,,,,,,,,,,,,,,,,,5c8ec999bb6a3c00014acf5f,53,2022-02-12_14h57.06.875,lexical_decision_task_DD,2021.2.3,Win32,60.06366749,,,,,,,,,,,,0.6097,1,,,,,,,,,,,,,,z,1,0.6097,,,,,,,,0.888020833,-0.313802083,0,0,0,,0,131,131,131,1,NACES,LB,old,z,./images/NACESLB.png,,,,,,,,,,,,,,,,,,,,,,,,,,,,,,,,,,
,,,,,,,,,,,,,,,,,5c8ec999bb6a3c00014acf5f,53,2022-02-12_14h57.06.875,lexical_decision_task_DD,2021.2.3,Win32,60.06366749,,,,,,,,,,,,1.2366,1,,,,,,,,,,,,,,z,1,1.2366,,,,,,,,0.888020833,-0.313802083,0,0,0,,0,132,132,118,1,BAVEL,HB,old,z,./images/BAVELHB.png,,,,,,,,,,,,,,,,,,,,,,,,,,,,,,,,,,
,,,,,,,,,,,,,,,,,5c8ec999bb6a3c00014acf5f,53,2022-02-12_14h57.06.875,lexical_decision_task_DD,2021.2.3,Win32,60.06366749,,,,,,,,,,,,0.7077,1,,,,,,,,,,,,,,z,1,0.7077,,,,,,,,0.888020833,-0.313802083,0,0,0,,0,133,133,96,1,KEAMS,C,old,z,./images/KEAMS.png,,,,,,,,,,,,,,,,,,,,,,,,,,,,,,,,,,
,,,,,,,,,,,,,,,,,5c8ec999bb6a3c00014acf5f,53,2022-02-12_14h57.06.875,lexical_decision_task_DD,2021.2.3,Win32,60.06366749,,,,,,,,,,,,0.5286,1,,,,,,,,,,,,,,m,1,0.5286,,,,,,,,0.888020833,-0.313802083,0,0,0,,0,134,134,3,1,FINGER,C,old,m,./images/FINGER.png,,,,,,,,,,,,,,,,,,,,,,,,,,,,,,,,,,
,,,,,,,,,,,,,,,,,5c8ec999bb6a3c00014acf5f,53,2022-02-12_14h57.06.875,lexical_decision_task_DD,2021.2.3,Win32,60.06366749,,,,,,,,,,,,0.5412,1,,,,,,,,,,,,,,m,1,0.5412,,,,,,,,0.888020833,-0.313802083,0,0,0,,0,135,135,15,1,GREASE,C,old,m,./images/GREASE.png,,,,,,,,,,,,,,,,,,,,,,,,,,,,,,,,,,
,,,,,,,,,,,,,,,,,5c8ec999bb6a3c00014acf5f,53,2022-02-12_14h57.06.875,lexical_decision_task_DD,2021.2.3,Win32,60.06366749,,,,,,,,,,,,0.7318,1,,,,,,,,,,,,,,z,1,0.7318,,,,,,,,0.888020833,-0.313802083,0,0,0,,0,136,136,113,1,LINEW,LB,old,z,./images/LINEWLB.png,,,,,,,,,,,,,,,,,,,,,,,,,,,,,,,,,,
,,,,,,,,,,,,,,,,,5c8ec999bb6a3c00014acf5f,53,2022-02-12_14h57.06.875,lexical_decision_task_DD,2021.2.3,Win32,60.06366749,,,,,,,,,,,,0.5641,1,,,,,,,,,,,,,,m,1,0.5641,,,,,,,,0.888020833,-0.313802083,0,0,0,,0,137,137,21,1,KIDNEY,C,old,m,./images/KIDNEY.png,,,,,,,,,,,,,,,,,,,,,,,,,,,,,,,,,,
,,,,,,,,,,,,,,,,,5c8ec999bb6a3c00014acf5f,53,2022-02-12_14h57.06.875,lexical_decision_task_DD,2021.2.3,Win32,60.06366749,,,,,,,,,,,,1.2113,1,,,,,,,,,,,,,,z,1,1.2113,,,,,,,,0.888020833,-0.313802083,0,0,0,,0,138,138,163,1,GAMBA,HB,old,z,./images/GAMBAHB.png,,,,,,,,,,,,,,,,,,,,,,,,,,,,,,,,,,
,,,,,,,,,,,,,,,,,5c8ec999bb6a3c00014acf5f,53,2022-02-12_14h57.06.875,lexical_decision_task_DD,2021.2.3,Win32,60.06366749,,,,,,,,,,,,0.9981,1,,,,,,,,,,,,,,z,1,0.9981,,,,,,,,0.888020833,-0.313802083,0,0,0,,0,139,139,88,1,GLUSH,HB,old,z,./images/GLUSHHB.png,,,,,,,,,,,,,,,,,,,,,,,,,,,,,,,,,,
,,,,,,,,,,,,,,,,,5c8ec999bb6a3c00014acf5f,53,2022-02-12_14h57.06.875,lexical_decision_task_DD,2021.2.3,Win32,60.06366749,,,,,,,,,,,,0.7129,1,,,,,,,,,,,,,,m,1,0.7129,,,,,,,,0.888020833,-0.313802083,0,0,0,,0,140,140,82,1,SUNSET,HB,old,m,./images/SUNSETHB.png,,,,,,,,,,,,,,,,,,,,,,,,,,,,,,,,,,
,,,,,,,,,,,,,,,,,5c8ec999bb6a3c00014acf5f,53,2022-02-12_14h57.06.875,lexical_decision_task_DD,2021.2.3,Win32,60.06366749,,,,,,,,,,,,0.7543,1,,,,,,,,,,,,,,z,1,0.7543,,,,,,,,0.888020833,-0.313802083,0,0,0,,0,141,141,135,1,JOODY,C,old,z,./images/JOODY.png,,,,,,,,,,,,,,,,,,,,,,,,,,,,,,,,,,
,,,,,,,,,,,,,,,,,5c8ec999bb6a3c00014acf5f,53,2022-02-12_14h57.06.875,lexical_decision_task_DD,2021.2.3,Win32,60.06366749,,,,,,,,,,,,0.5586,1,,,,,,,,,,,,,,m,1,0.5586,,,,,,,,0.888020833,-0.313802083,0,0,0,,0,142,142,23,1,WALRUS,LB,old,m,./images/WALRUSLB.png,,,,,,,,,,,,,,,,,,,,,,,,,,,,,,,,,,
,,,,,,,,,,,,,,,,,5c8ec999bb6a3c00014acf5f,53,2022-02-12_14h57.06.875,lexical_decision_task_DD,2021.2.3,Win32,60.06366749,,,,,,,,,,,,0.701,1,,,,,,,,,,,,,,z,1,0.701,,,,,,,,0.888020833,-0.313802083,0,0,0,,0,143,143,167,1,ZONET,LB,old,z,./images/ZONETLB.png,,,,,,,,,,,,,,,,,,,,,,,,,,,,,,,,,,
,,,,,,,,,,,,,,,,,5c8ec999bb6a3c00014acf5f,53,2022-02-12_14h57.06.875,lexical_decision_task_DD,2021.2.3,Win32,60.06366749,,,,,,,,,,,,1.2545,1,,,,,,,,,,,,,,m,1,1.2545,,,,,,,,0.888020833,-0.313802083,0,0,0,,0,144,144,67,1,SAILOR,HB,old,m,./images/SAILORHB.png,,,,,,,,,,,,,,,,,,,,,,,,,,,,,,,,,,
,,,,,,,,,,,,,,,,,5c8ec999bb6a3c00014acf5f,53,2022-02-12_14h57.06.875,lexical_decision_task_DD,2021.2.3,Win32,60.06366749,,,,,,,,,,,,0.7394,1,,,,,,,,,,,,,,z,1,0.7394,,,,,,,,0.888020833,-0.313802083,0,0,0,,0,145,145,102,1,DULLE,C,old,z,./images/DULLE.png,,,,,,,,,,,,,,,,,,,,,,,,,,,,,,,,,,
,,,,,,,,,,,,,,,,,5c8ec999bb6a3c00014acf5f,53,2022-02-12_14h57.06.875,lexical_decision_task_DD,2021.2.3,Win32,60.06366749,,,,,,,,,,,,1.4407,1,,,,,,,,,,,,,,z,1,1.4407,,,,,,,,0.888020833,-0.313802083,0,0,0,,0,146,146,145,1,LAMEL,HB,old,z,./images/LAMELHB.png,,,,,,,,,,,,,,,,,,,,,,,,,,,,,,,,,,
,,,,,,,,,,,,,,,,,5c8ec999bb6a3c00014acf5f,53,2022-02-12_14h57.06.875,lexical_decision_task_DD,2021.2.3,Win32,60.06366749,,,,,,,,,,,,1.3793,1,,,,,,,,,,,,,,z,1,1.3793,,,,,,,,0.888020833,-0.313802083,0,0,0,,0,147,147,112,1,MYING,HB,old,z,./images/MYINGHB.png,,,,,,,,,,,,,,,,,,,,,,,,,,,,,,,,,,
,,,,,,,,,,,,,,,,,5c8ec999bb6a3c00014acf5f,53,2022-02-12_14h57.06.875,lexical_decision_task_DD,2021.2.3,Win32,60.06366749,,,,,,,,,,,,0.5973,1,,,,,,,,,,,,,,m,1,0.5973,,,,,,,,0.888020833,-0.313802083,0,0,0,,0,148,148,73,1,SNACK,HB,old,m,./images/SNACKHB.png,,,,,,,,,,,,,,,,,,,,,,,,,,,,,,,,,,
,,,,,,,,,,,,,,,,,5c8ec999bb6a3c00014acf5f,53,2022-02-12_14h57.06.875,lexical_decision_task_DD,2021.2.3,Win32,60.06366749,,,,,,,,,,,,0.7707,1,,,,,,,,,,,,,,z,1,0.7707,,,,,,,,0.888020833,-0.313802083,0,0,0,,0,149,149,107,1,FASKS,LB,old,z,./images/FASKSLB.png,,,,,,,,,,,,,,,,,,,,,,,,,,,,,,,,,,
,,,,,,,,,,,,,,,,,5c8ec999bb6a3c00014acf5f,53,2022-02-12_14h57.06.875,lexical_decision_task_DD,2021.2.3,Win32,60.06366749,,,,,,,,,,,,0.5796,1,,,,,,,,,,,,,,m,1,0.5796,,,,,,,,0.888020833,-0.313802083,0,0,0,,0,150,150,63,1,MIRROR,C,old,m,./images/MIRROR.png,,,,,,,,,,,,,,,,,,,,,,,,,,,,,,,,,,
,,,,,,,,,,,,,,,,,5c8ec999bb6a3c00014acf5f,53,2022-02-12_14h57.06.875,lexical_decision_task_DD,2021.2.3,Win32,60.06366749,,,,,,,,,,,,1.0524,1,,,,,,,,,,,,,,m,1,1.0524,,,,,,,,0.888020833,-0.313802083,0,0,0,,0,151,151,40,1,SWING,HB,old,m,./images/SWINGHB.png,,,,,,,,,,,,,,,,,,,,,,,,,,,,,,,,,,
,,,,,,,,,,,,,,,,,5c8ec999bb6a3c00014acf5f,53,2022-02-12_14h57.06.875,lexical_decision_task_DD,2021.2.3,Win32,60.06366749,,,,,,,,,,,,0.51,1,,,,,,,,,,,,,,m,1,0.51,,,,,,,,0.888020833,-0.313802083,0,0,0,,0,152,152,51,1,ONION,C,old,m,./images/ONION.png,,,,,,,,,,,,,,,,,,,,,,,,,,,,,,,,,,
,,,,,,,,,,,,,,,,,5c8ec999bb6a3c00014acf5f,53,2022-02-12_14h57.06.875,lexical_decision_task_DD,2021.2.3,Win32,60.06366749,,,,,,,,,,,,0.654,1,,,,,,,,,,,,,,m,1,0.654,,,,,,,,0.888020833,-0.313802083,0,0,0,,0,153,153,13,1,MOTOR,HB,old,m,./images/MOTORHB.png,,,,,,,,,,,,,,,,,,,,,,,,,,,,,,,,,,
,,,,,,,,,,,,,,,,,5c8ec999bb6a3c00014acf5f,53,2022-02-12_14h57.06.875,lexical_decision_task_DD,2021.2.3,Win32,60.06366749,,,,,,,,,,,,0.9146,1,,,,,,,,,,,,,,z,1,0.9146,,,,,,,,0.888020833,-0.313802083,0,0,0,,0,154,154,123,1,SEDGE,C,old,z,./images/SEDGE.png,,,,,,,,,,,,,,,,,,,,,,,,,,,,,,,,,,
,,,,,,,,,,,,,,,,,5c8ec999bb6a3c00014acf5f,53,2022-02-12_14h57.06.875,lexical_decision_task_DD,2021.2.3,Win32,60.06366749,,,,,,,,,,,,0.5249,1,,,,,,,,,,,,,,m,1,0.5249,,,,,,,,0.888020833,-0.313802083,0,0,0,,0,155,155,0,1,TOMATO,C,old,m,./images/TOMATO.png,,,,,,,,,,,,,,,,,,,,,,,,,,,,,,,,,,
,,,,,,,,,,,,,,,,,5c8ec999bb6a3c00014acf5f,53,2022-02-12_14h57.06.875,lexical_decision_task_DD,2021.2.3,Win32,60.06366749,,,,,,,,,,,,0.473,1,,,,,,,,,,,,,,m,1,0.473,,,,,,,,0.888020833,-0.313802083,0,0,0,,0,156,156,66,1,SWEAT,C,old,m,./images/SWEAT.png,,,,,,,,,,,,,,,,,,,,,,,,,,,,,,,,,,
,,,,,,,,,,,,,,,,,5c8ec999bb6a3c00014acf5f,53,2022-02-12_14h57.06.875,lexical_decision_task_DD,2021.2.3,Win32,60.06366749,,,,,,,,,,,,1.1919,1,,,,,,,,,,,,,,z,1,1.1919,,,,,,,,0.888020833,-0.313802083,0,0,0,,0,157,157,154,1,THINT,HB,old,z,./images/THINTHB.png,,,,,,,,,,,,,,,,,,,,,,,,,,,,,,,,,,
,,,,,,,,,,,,,,,,,5c8ec999bb6a3c00014acf5f,53,2022-02-12_14h57.06.875,lexical_decision_task_DD,2021.2.3,Win32,60.06366749,,,,,,,,,,,,1.6235,1,,,,,,,,,,,,,,z,1,1.6235,,,,,,,,0.888020833,-0.313802083,0,0,0,,0,158,158,148,1,JOMS,HB,old,z,./images/JOMSHB.png,,,,,,,,,,,,,,,,,,,,,,,,,,,,,,,,,,
,,,,,,,,,,,,,,,,,5c8ec999bb6a3c00014acf5f,53,2022-02-12_14h57.06.875,lexical_decision_task_DD,2021.2.3,Win32,60.06366749,,,,,,,,,,,,1.0328,1,,,,,,,,,,,,,,z,1,1.0328,,,,,,,,0.888020833,-0.313802083,0,0,0,,0,159,159,85,1,CHULK,HB,old,z,./images/CHULKHB.png,,,,,,,,,,,,,,,,,,,,,,,,,,,,,,,,,,
,,,,,,,,,,,,,,,,,5c8ec999bb6a3c00014acf5f,53,2022-02-12_14h57.06.875,lexical_decision_task_DD,2021.2.3,Win32,60.06366749,,,,,,,,,,,,0.6643,1,,,,,,,,,,,,,,z,1,0.6643,,,,,,,,0.888020833,-0.313802083,0,0,0,,0,160,160,104,1,GITTY,LB,old,z,./images/GITTYLB.png,,,,,,,,,,,,,,,,,,,,,,,,,,,,,,,,,,
,,,,,,,,,,,,,,,,,5c8ec999bb6a3c00014acf5f,53,2022-02-12_14h57.06.875,lexical_decision_task_DD,2021.2.3,Win32,60.06366749,,,,,,,,,,,,2.7419,1,,,,,,,,,,,,,,z,1,2.7419,,,,,,,,0.888020833,-0.313802083,0,0,0,,0,161,161,140,1,DOVET,LB,old,z,./images/DOVETLB.png,,,,,,,,,,,,,,,,,,,,,,,,,,,,,,,,,,
,,,,,,,,,,,,,,,,,5c8ec999bb6a3c00014acf5f,53,2022-02-12_14h57.06.875,lexical_decision_task_DD,2021.2.3,Win32,60.06366749,,,,,,,,,,,,2.463,1,,,,,,,,,,,,,,z,1,2.463,,,,,,,,0.888020833,-0.313802083,0,0,0,,0,162,162,142,1,PLASK,HB,old,z,./images/PLASKHB.png,,,,,,,,,,,,,,,,,,,,,,,,,,,,,,,,,,
,,,,,,,,,,,,,,,,,5c8ec999bb6a3c00014acf5f,53,2022-02-12_14h57.06.875,lexical_decision_task_DD,2021.2.3,Win32,60.06366749,,,,,,,,,,,,0.8542,1,,,,,,,,,,,,,,m,1,0.8542,,,,,,,,0.888020833,-0.313802083,0,0,0,,0,163,163,56,1,PACKET,LB,old,m,./images/PACKETLB.png,,,,,,,,,,,,,,,,,,,,,,,,,,,,,,,,,,
,,,,,,,,,,,,,,,,,5c8ec999bb6a3c00014acf5f,53,2022-02-12_14h57.06.875,lexical_decision_task_DD,2021.2.3,Win32,60.06366749,,,,,,,,,,,,1.0052,1,,,,,,,,,,,,,,z,1,1.0052,,,,,,,,0.888020833,-0.313802083,0,0,0,,0,164,164,155,1,CANGY,LB,old,z,./images/CANGYLB.png,,,,,,,,,,,,,,,,,,,,,,,,,,,,,,,,,,
,,,,,,,,,,,,,,,,,5c8ec999bb6a3c00014acf5f,53,2022-02-12_14h57.06.875,lexical_decision_task_DD,2021.2.3,Win32,60.06366749,,,,,,,,,,,,0.5214,1,,,,,,,,,,,,,,m,1,0.5214,,,,,,,,0.888020833,-0.313802083,0,0,0,,0,165,165,44,1,LIZARD,LB,old,m,./images/LIZARDLB.png,,,,,,,,,,,,,,,,,,,,,,,,,,,,,,,,,,
,,,,,,,,,,,,,,,,,5c8ec999bb6a3c00014acf5f,53,2022-02-12_14h57.06.875,lexical_decision_task_DD,2021.2.3,Win32,60.06366749,,,,,,,,,,,,0.5811,1,,,,,,,,,,,,,,m,1,0.5811,,,,,,,,0.888020833,-0.313802083,0,0,0,,0,166,166,11,1,BONNET,LB,old,m,./images/BONNETLB.png,,,,,,,,,,,,,,,,,,,,,,,,,,,,,,,,,,
,,,,,,,,,,,,,,,,,5c8ec999bb6a3c00014acf5f,53,2022-02-12_14h57.06.875,lexical_decision_task_DD,2021.2.3,Win32,60.06366749,,,,,,,,,,,,1.9097,1,,,,,,,,,,,,,,m,1,1.9097,,,,,,,,0.888020833,-0.313802083,0,0,0,,0,167,167,1,1,PLANK,HB,old,m,./images/PLANKHB.png,,,,,,,,,,,,,,,,,,,,,,,,,,,,,,,,,,
,,,,,,,,,,,,,,,,,5c8ec999bb6a3c00014acf5f,53,2022-02-12_14h57.06.875,lexical_decision_task_DD,2021.2.3,Win32,60.06366749,,,,,,,,,,,,,,,,,,,,,,,,,,,,,,,,,,,,,,,,,,,,,,,,,How likely will it be that you will recognize the words presented clearly on a scale of 0 (not likely) to 100 (most likely)?,,,,,0.0078125,-0.41015625,1,0,0,jol_adv,4,8.9333,0,0,0,0,1,,,,,,,,,,,,,,,,,,,,
,,,,,,,,,,,,,,,,,5c8ec999bb6a3c00014acf5f,53,2022-02-12_14h57.06.875,lexical_decision_task_DD,2021.2.3,Win32,60.06366749,,,,,,,,,,,,,,,,,,,,,,,,,,,,,,,,,,,,,,,,,,,,,,,,,How likely will it be that you will recognize the words presented slighly blurred on a scale of 0 (not likely) to 100 (most likely)?,,,,,,,,,,,4,14.479,0,1,1,1,1,,,,,,,,,,,,,,,,,,,,
,,,,,,,,,,,,,,,,,5c8ec999bb6a3c00014acf5f,53,2022-02-12_14h57.06.875,lexical_decision_task_DD,2021.2.3,Win32,60.06366749,,,,,,,,,,,,,,,,,,,,,,,,,,,,,,,,,,,,,,,,,,,,,,,,,How likely will it be that you will recognize the words presented very blurred on a scale of 0 (not likely) to 100 (most likely)?,,,,,,,,,,,4,10.6347,0,2,2,2,1,,,,,,,,,,,,,,,,,,,,
,-0.005208333,-0.403645833,1,0,0,instr_done_button,,,,,,1,test,"In the next phase you will be presented with the words from the the first phase. Your job is to decide whether you remember seeing the word or not. If you remember seeing the word press ""old"" or type ""m"". If you do not remember seeing the word press ""new"" or type ""z"". Please press the space bar or click on continue to begin. ",,,5c8ec999bb6a3c00014acf5f,53,2022-02-12_14h57.06.875,lexical_decision_task_DD,2021.2.3,Win32,60.06366749,,,,,,,,,,,,,,,,,,,,,,,,,,,,,,,,,,,,,,,,,,,,,,,,,,,,,,,,,,,,,,,,,,,0,0,0,0,1,,,,,,,,,,,,,,,
space,0.759114583,-0.171875,0,0,0,,,,,,,1,test,"In the next phase you will be presented with the words from the the first phase. Your job is to decide whether you remember seeing the word or not. If you remember seeing the word press ""old"" or type ""m"". If you do not remember seeing the word press ""new"" or type ""z"". Please press the space bar or click on continue to begin. ",,,5c8ec999bb6a3c00014acf5f,53,2022-02-12_14h57.06.875,lexical_decision_task_DD,2021.2.3,Win32,60.06366749,1.8917,,,,,,,,,,,,,,,,,,,,,,,,,,,,,,,,,,,,,,,,,,,,,,,,,,,,,,,,,,,,,,,,,,1,0,1,0,1,,,,,,,,,,,,,,,
space,0.759114583,-0.171875,0,0,0,,,,,,,1,test,"In the next phase you will be presented with the words from the the first phase. Your job is to decide whether you remember seeing the word or not. If you remember seeing the word press ""old"" or type ""m"". If you do not remember seeing the word press ""new"" or type ""z"". Please press the space bar or click on continue to begin. ",,,5c8ec999bb6a3c00014acf5f,53,2022-02-12_14h57.06.875,lexical_decision_task_DD,2021.2.3,Win32,60.06366749,2.9004,,,,,,,,,,,,,,,,,,,,,,,,,,,,,,,,,,,,,,,,,,,,,,,,,,,,,,,,,,,,,,,,,,2,0,2,0,1,,,,,,,,,,,,,,,
space,0.759114583,-0.171875,0,0,0,,,,,,,1,test,"In the next phase you will be presented with the words from the the first phase. Your job is to decide whether you remember seeing the word or not. If you remember seeing the word press ""old"" or type ""m"". If you do not remember seeing the word press ""new"" or type ""z"". Please press the space bar or click on continue to begin. ",,,5c8ec999bb6a3c00014acf5f,53,2022-02-12_14h57.06.875,lexical_decision_task_DD,2021.2.3,Win32,60.06366749,0.94,,,,,,,,,,,,,,,,,,,,,,,,,,,,,,,,,,,,,,,,,,,,,,,,,,,,,,,,,,,,,,,,,,3,0,3,0,1,,,,,,,,,,,,,,,
,-0.002604167,-0.401041667,1,0,0,instr_done_button,,,,,,1,test,"In the next phase you will be presented with the words from the the first phase. Your job is to decide whether you remember seeing the word or not. If you remember seeing the word press ""old"" or type ""m"". If you do not remember seeing the word press ""new"" or type ""z"". Please press the space bar or click on continue to begin. ",,,5c8ec999bb6a3c00014acf5f,53,2022-02-12_14h57.06.875,lexical_decision_task_DD,2021.2.3,Win32,60.06366749,,,,,,,,,,,,,,,,,,,,,,,,,,,,,,,,,,,,,,,,,,,,,,,,,,,,,,,,,,,,,,,,,,,4,0,4,0,1,,,,,,,,,,,,,,,
,,,,,,,,,,,,,,,,,5c8ec999bb6a3c00014acf5f,53,2022-02-12_14h57.06.875,lexical_decision_task_DD,2021.2.3,Win32,60.06366749,,,,,,,,,,,,3.5268,1,,,,,,,,,,,,,,,,,,,,,,,,-0.415364583,-0.309895833,1,0,0,,,,,,,SNAKE,HB,z,m,./images/SNAKEHB.png,,,,,,,,,,,,,,,,,,,,,0,-0.415364583,-0.309895833,1,0,0,3.5268,button_left_test,0,0,0,124,1,
,,,,,,,,,,,,,,,,,5c8ec999bb6a3c00014acf5f,53,2022-02-12_14h57.06.875,lexical_decision_task_DD,2021.2.3,Win32,60.06366749,,,,,,,,,,,,3.5118,0,,,,,,,,,,,,,,,,,,,,,,,,0.373697917,-0.303385417,1,0,0,,,,,,,SAUCE,C,z,m,./images/SAUCE.png,,,,,,,,,,,,,,,,,,,,,0,0.373697917,-0.303385417,1,0,0,3.5118,button_right_test,0,1,1,135,1,
,,,,,,,,,,,,,,,,,5c8ec999bb6a3c00014acf5f,53,2022-02-12_14h57.06.875,lexical_decision_task_DD,2021.2.3,Win32,60.06366749,,,,,,,,,,,,0.8323,1,,,,,,,,,,,,,,,,,,,,,,,,0.373697917,-0.303385417,1,0,0,,,,,,,ATTIC,C,m,m,./images/ATTIC.png,,,,,,,,,,,,,,,,,,,,,0,0.373697917,-0.303385417,1,0,0,0.8323,button_right_test,0,2,2,27,1,
,,,,,,,,,,,,,,,,,5c8ec999bb6a3c00014acf5f,53,2022-02-12_14h57.06.875,lexical_decision_task_DD,2021.2.3,Win32,60.06366749,,,,,,,,,,,,1.3631,1,,,,,,,,,,,,,,,,,,,,,,,,-0.380208333,-0.3203125,1,0,0,,,,,,,WALNUT,C,z,m,./images/WALNUT.png,,,,,,,,,,,,,,,,,,,,,0,-0.380208333,-0.3203125,1,0,0,1.3631,button_left_test,0,3,3,84,1,
,,,,,,,,,,,,,,,,,5c8ec999bb6a3c00014acf5f,53,2022-02-12_14h57.06.875,lexical_decision_task_DD,2021.2.3,Win32,60.06366749,,,,,,,,,,,,0.8778,1,,,,,,,,,,,,,,,,,,,,,,,,-0.380208333,-0.3203125,1,0,0,,,,,,,SLOPE,C,z,m,./images/SLOPE.png,,,,,,,,,,,,,,,,,,,,,0,-0.380208333,-0.3203125,1,0,0,0.8778,button_left_test,0,4,4,114,1,
,,,,,,,,,,,,,,,,,5c8ec999bb6a3c00014acf5f,53,2022-02-12_14h57.06.875,lexical_decision_task_DD,2021.2.3,Win32,60.06366749,,,,,,,,,,,,0.9457,1,,,,,,,,,,,,,,,,,,,,,,,,-0.380208333,-0.3203125,1,0,0,,,,,,,CRATER,C,z,m,./images/CRATER.png,,,,,,,,,,,,,,,,,,,,,0,-0.380208333,-0.3203125,1,0,0,0.9457,button_left_test,0,5,5,87,1,
,,,,,,,,,,,,,,,,,5c8ec999bb6a3c00014acf5f,53,2022-02-12_14h57.06.875,lexical_decision_task_DD,2021.2.3,Win32,60.06366749,,,,,,,,,,,,1.0984,1,,,,,,,,,,,,,,,,,,,,,,,,0.296875,-0.307291667,1,0,0,,,,,,,URINE,HB,m,m,./images/URINEHB.png,,,,,,,,,,,,,,,,,,,,,0,0.296875,-0.307291667,1,0,0,1.0984,button_right_test,0,6,6,70,1,
,,,,,,,,,,,,,,,,,5c8ec999bb6a3c00014acf5f,53,2022-02-12_14h57.06.875,lexical_decision_task_DD,2021.2.3,Win32,60.06366749,,,,,,,,,,,,1.0983,1,,,,,,,,,,,,,,,,,,,,,,,,-0.408854167,-0.29296875,1,0,0,,,,,,,DONKEY,HB,z,m,./images/DONKEYHB.png,,,,,,,,,,,,,,,,,,,,,0,-0.408854167,-0.29296875,1,0,0,1.0983,button_left_test,0,7,7,103,1,
,,,,,,,,,,,,,,,,,5c8ec999bb6a3c00014acf5f,53,2022-02-12_14h57.06.875,lexical_decision_task_DD,2021.2.3,Win32,60.06366749,,,,,,,,,,,,0.9133,1,,,,,,,,,,,,,,,,,,,,,,,,-0.408854167,-0.29296875,1,0,0,,,,,,,ALLEY,HB,z,m,./images/ALLEYHB.png,,,,,,,,,,,,,,,,,,,,,0,-0.408854167,-0.29296875,1,0,0,0.9133,button_left_test,0,8,8,139,1,
,,,,,,,,,,,,,,,,,5c8ec999bb6a3c00014acf5f,53,2022-02-12_14h57.06.875,lexical_decision_task_DD,2021.2.3,Win32,60.06366749,,,,,,,,,,,,0.6129,1,,,,,,,,,,,,,,,,,,,,,,,,-0.408854167,-0.29296875,1,0,0,,,,,,,CASINO,HB,z,m,./images/CASINOHB.png,,,,,,,,,,,,,,,,,,,,,0,-0.408854167,-0.29296875,1,0,0,0.6129,button_left_test,0,9,9,112,1,
,,,,,,,,,,,,,,,,,5c8ec999bb6a3c00014acf5f,53,2022-02-12_14h57.06.875,lexical_decision_task_DD,2021.2.3,Win32,60.06366749,,,,,,,,,,,,0.6794,1,,,,,,,,,,,,,,,,,,,,,,,,-0.408854167,-0.29296875,1,0,0,,,,,,,BUTTER,C,z,m,./images/BUTTER.png,,,,,,,,,,,,,,,,,,,,,0,-0.408854167,-0.29296875,1,0,0,0.6794,button_left_test,0,10,10,111,1,
,,,,,,,,,,,,,,,,,5c8ec999bb6a3c00014acf5f,53,2022-02-12_14h57.06.875,lexical_decision_task_DD,2021.2.3,Win32,60.06366749,,,,,,,,,,,,1.1972,1,,,,,,,,,,,,,,,,,,,,,,,,0.295572917,-0.30859375,1,0,0,,,,,,,JELLY,HB,m,m,./images/JELLYHB.png,,,,,,,,,,,,,,,,,,,,,0,0.295572917,-0.30859375,1,0,0,1.1972,button_right_test,0,11,11,64,1,
,,,,,,,,,,,,,,,,,5c8ec999bb6a3c00014acf5f,53,2022-02-12_14h57.06.875,lexical_decision_task_DD,2021.2.3,Win32,60.06366749,,,,,,,,,,,,1.0984,1,,,,,,,,,,,,,,,,,,,,,,,,-0.330729167,-0.3046875,1,0,0,,,,,,,WHISKY,LB,z,m,./images/WHISKYLB.png,,,,,,,,,,,,,,,,,,,,,0,-0.330729167,-0.3046875,1,0,0,1.0984,button_left_test,0,12,12,167,1,
,,,,,,,,,,,,,,,,,5c8ec999bb6a3c00014acf5f,53,2022-02-12_14h57.06.875,lexical_decision_task_DD,2021.2.3,Win32,60.06366749,,,,,,,,,,,,1.0465,1,,,,,,,,,,,,,,,,,,,,,,,,0.399739583,-0.333333333,1,0,0,,,,,,,SUNSET,HB,m,m,./images/SUNSETHB.png,,,,,,,,,,,,,,,,,,,,,0,0.399739583,-0.333333333,1,0,0,1.0465,button_right_test,0,13,13,82,1,
,,,,,,,,,,,,,,,,,5c8ec999bb6a3c00014acf5f,53,2022-02-12_14h57.06.875,lexical_decision_task_DD,2021.2.3,Win32,60.06366749,,,,,,,,,,,,0.996,1,,,,,,,,,,,,,,,,,,,,,,,,-0.356770833,-0.290364583,1,0,0,,,,,,,PLANET,LB,z,m,./images/PLANETLB.png,,,,,,,,,,,,,,,,,,,,,0,-0.356770833,-0.290364583,1,0,0,0.996,button_left_test,0,14,14,164,1,
,,,,,,,,,,,,,,,,,5c8ec999bb6a3c00014acf5f,53,2022-02-12_14h57.06.875,lexical_decision_task_DD,2021.2.3,Win32,60.06366749,,,,,,,,,,,,1.0304,1,,,,,,,,,,,,,,,,,,,,,,,,0.428385417,-0.321614583,1,0,0,,,,,,,PLANK,HB,m,m,./images/PLANKHB.png,,,,,,,,,,,,,,,,,,,,,0,0.428385417,-0.321614583,1,0,0,1.0304,button_right_test,0,15,15,1,1,
,,,,,,,,,,,,,,,,,5c8ec999bb6a3c00014acf5f,53,2022-02-12_14h57.06.875,lexical_decision_task_DD,2021.2.3,Win32,60.06366749,,,,,,,,,,,,0.9633,1,,,,,,,,,,,,,,,,,,,,,,,,-0.305989583,-0.31640625,1,0,0,,,,,,,SAUNA,C,z,m,./images/SAUNA.png,,,,,,,,,,,,,,,,,,,,,0,-0.305989583,-0.31640625,1,0,0,0.9633,button_left_test,0,16,16,117,1,
,,,,,,,,,,,,,,,,,5c8ec999bb6a3c00014acf5f,53,2022-02-12_14h57.06.875,lexical_decision_task_DD,2021.2.3,Win32,60.06366749,,,,,,,,,,,,0.963,1,,,,,,,,,,,,,,,,,,,,,,,,0.493489583,-0.309895833,1,0,0,,,,,,,SAILOR,HB,m,m,./images/SAILORHB.png,,,,,,,,,,,,,,,,,,,,,0,0.493489583,-0.309895833,1,0,0,0.963,button_right_test,0,17,17,67,1,
,,,,,,,,,,,,,,,,,5c8ec999bb6a3c00014acf5f,53,2022-02-12_14h57.06.875,lexical_decision_task_DD,2021.2.3,Win32,60.06366749,,,,,,,,,,,,0.7147,1,,,,,,,,,,,,,,,,,,,,,,,,0.454427083,-0.313802083,1,0,0,,,,,,,PEACH,LB,m,m,./images/PEACHLB.png,,,,,,,,,,,,,,,,,,,,,0,0.454427083,-0.313802083,1,0,0,0.7147,button_right_test,0,18,18,35,1,
,,,,,,,,,,,,,,,,,5c8ec999bb6a3c00014acf5f,53,2022-02-12_14h57.06.875,lexical_decision_task_DD,2021.2.3,Win32,60.06366749,,,,,,,,,,,,0.6955,1,,,,,,,,,,,,,,,,,,,,,,,,0.454427083,-0.313802083,1,0,0,,,,,,,PACKET,LB,m,m,./images/PACKETLB.png,,,,,,,,,,,,,,,,,,,,,0,0.454427083,-0.313802083,1,0,0,0.6955,button_right_test,0,19,19,56,1,
,,,,,,,,,,,,,,,,,5c8ec999bb6a3c00014acf5f,53,2022-02-12_14h57.06.875,lexical_decision_task_DD,2021.2.3,Win32,60.06366749,,,,,,,,,,,,0.9809,1,,,,,,,,,,,,,,,,,,,,,,,,0.454427083,-0.313802083,1,0,0,,,,,,,INFANT,HB,m,m,./images/INFANTHB.png,,,,,,,,,,,,,,,,,,,,,0,0.454427083,-0.313802083,1,0,0,0.9809,button_right_test,0,20,20,76,1,
,,,,,,,,,,,,,,,,,5c8ec999bb6a3c00014acf5f,53,2022-02-12_14h57.06.875,lexical_decision_task_DD,2021.2.3,Win32,60.06366749,,,,,,,,,,,,0.6788,1,,,,,,,,,,,,,,,,,,,,,,,,0.454427083,-0.313802083,1,0,0,,,,,,,GRAIN,C,m,m,./images/GRAIN.png,,,,,,,,,,,,,,,,,,,,,0,0.454427083,-0.313802083,1,0,0,0.6788,button_right_test,0,21,21,75,1,
,,,,,,,,,,,,,,,,,5c8ec999bb6a3c00014acf5f,53,2022-02-12_14h57.06.875,lexical_decision_task_DD,2021.2.3,Win32,60.06366749,,,,,,,,,,,,1.0467,1,,,,,,,,,,,,,,,,,,,,,,,,-0.2890625,-0.296875,1,0,0,,,,,,,MONKEY,C,z,m,./images/MONKEY.png,,,,,,,,,,,,,,,,,,,,,0,-0.2890625,-0.296875,1,0,0,1.0467,button_left_test,0,22,22,129,1,
,,,,,,,,,,,,,,,,,5c8ec999bb6a3c00014acf5f,53,2022-02-12_14h57.06.875,lexical_decision_task_DD,2021.2.3,Win32,60.06366749,,,,,,,,,,,,0.8156,1,,,,,,,,,,,,,,,,,,,,,,,,-0.2890625,-0.296875,1,0,0,,,,,,,STEAK,HB,z,m,./images/STEAKHB.png,,,,,,,,,,,,,,,,,,,,,0,-0.2890625,-0.296875,1,0,0,0.8156,button_left_test,0,23,23,115,1,
,,,,,,,,,,,,,,,,,5c8ec999bb6a3c00014acf5f,53,2022-02-12_14h57.06.875,lexical_decision_task_DD,2021.2.3,Win32,60.06366749,,,,,,,,,,,,1.0479,1,,,,,,,,,,,,,,,,,,,,,,,,0.381510417,-0.3046875,1,0,0,,,,,,,NOOSE,C,m,m,./images/NOOSE.png,,,,,,,,,,,,,,,,,,,,,0,0.381510417,-0.3046875,1,0,0,1.0479,button_right_test,0,24,24,72,1,
,,,,,,,,,,,,,,,,,5c8ec999bb6a3c00014acf5f,53,2022-02-12_14h57.06.875,lexical_decision_task_DD,2021.2.3,Win32,60.06366749,,,,,,,,,,,,1.0478,1,,,,,,,,,,,,,,,,,,,,,,,,-0.403645833,-0.29296875,1,0,0,,,,,,,HOCKEY,LB,z,m,./images/HOCKEYLB.png,,,,,,,,,,,,,,,,,,,,,0,-0.403645833,-0.29296875,1,0,0,1.0478,button_left_test,0,25,25,116,1,
,,,,,,,,,,,,,,,,,5c8ec999bb6a3c00014acf5f,53,2022-02-12_14h57.06.875,lexical_decision_task_DD,2021.2.3,Win32,60.06366749,,,,,,,,,,,,0.7965,1,,,,,,,,,,,,,,,,,,,,,,,,-0.381510417,-0.298177083,1,0,0,,,,,,,WHEEL,LB,z,m,./images/WHEELLB.png,,,,,,,,,,,,,,,,,,,,,0,-0.381510417,-0.298177083,1,0,0,0.7965,button_left_test,0,26,26,161,1,
,,,,,,,,,,,,,,,,,5c8ec999bb6a3c00014acf5f,53,2022-02-12_14h57.06.875,lexical_decision_task_DD,2021.2.3,Win32,60.06366749,,,,,,,,,,,,1.0965,1,,,,,,,,,,,,,,,,,,,,,,,,0.359375,-0.298177083,1,0,0,,,,,,,SWEAT,C,m,m,./images/SWEAT.png,,,,,,,,,,,,,,,,,,,,,0,0.359375,-0.298177083,1,0,0,1.0965,button_right_test,0,27,27,66,1,
,,,,,,,,,,,,,,,,,5c8ec999bb6a3c00014acf5f,53,2022-02-12_14h57.06.875,lexical_decision_task_DD,2021.2.3,Win32,60.06366749,,,,,,,,,,,,1.0289,0,,,,,,,,,,,,,,,,,,,,,,,,-0.3984375,-0.309895833,1,0,0,,,,,,,STORM,C,m,m,./images/STORM.png,,,,,,,,,,,,,,,,,,,,,0,-0.3984375,-0.309895833,1,0,0,1.0289,button_left_test,0,28,28,30,1,
,,,,,,,,,,,,,,,,,5c8ec999bb6a3c00014acf5f,53,2022-02-12_14h57.06.875,lexical_decision_task_DD,2021.2.3,Win32,60.06366749,,,,,,,,,,,,0.8958,1,,,,,,,,,,,,,,,,,,,,,,,,-0.3671875,-0.305989583,1,0,0,,,,,,,CLOUD,LB,z,m,./images/CLOUDLB.png,,,,,,,,,,,,,,,,,,,,,0,-0.3671875,-0.305989583,1,0,0,0.8958,button_left_test,0,29,29,110,1,
,,,,,,,,,,,,,,,,,5c8ec999bb6a3c00014acf5f,53,2022-02-12_14h57.06.875,lexical_decision_task_DD,2021.2.3,Win32,60.06366749,,,,,,,,,,,,1.213,1,,,,,,,,,,,,,,,,,,,,,,,,0.397135417,-0.305989583,1,0,0,,,,,,,COOKER,C,m,m,./images/COOKER.png,,,,,,,,,,,,,,,,,,,,,0,0.397135417,-0.305989583,1,0,0,1.213,button_right_test,0,30,30,69,1,
,,,,,,,,,,,,,,,,,5c8ec999bb6a3c00014acf5f,53,2022-02-12_14h57.06.875,lexical_decision_task_DD,2021.2.3,Win32,60.06366749,,,,,,,,,,,,0.9967,1,,,,,,,,,,,,,,,,,,,,,,,,0.397135417,-0.305989583,1,0,0,,,,,,,SCREW,C,m,m,./images/SCREW.png,,,,,,,,,,,,,,,,,,,,,0,0.397135417,-0.305989583,1,0,0,0.9967,button_right_test,0,31,31,24,1,
,,,,,,,,,,,,,,,,,5c8ec999bb6a3c00014acf5f,53,2022-02-12_14h57.06.875,lexical_decision_task_DD,2021.2.3,Win32,60.06366749,,,,,,,,,,,,1.362,1,,,,,,,,,,,,,,,,,,,,,,,,-0.34765625,-0.278645833,1,0,0,,,,,,,LLAMA,LB,z,m,./images/LLAMALB.png,,,,,,,,,,,,,,,,,,,,,0,-0.34765625,-0.278645833,1,0,0,1.362,button_left_test,0,32,32,119,1,
,,,,,,,,,,,,,,,,,5c8ec999bb6a3c00014acf5f,53,2022-02-12_14h57.06.875,lexical_decision_task_DD,2021.2.3,Win32,60.06366749,,,,,,,,,,,,0.7466,1,,,,,,,,,,,,,,,,,,,,,,,,-0.34765625,-0.278645833,1,0,0,,,,,,,TIGER,HB,z,m,./images/TIGERHB.png,,,,,,,,,,,,,,,,,,,,,0,-0.34765625,-0.278645833,1,0,0,0.7466,button_left_test,0,33,33,121,1,
,,,,,,,,,,,,,,,,,5c8ec999bb6a3c00014acf5f,53,2022-02-12_14h57.06.875,lexical_decision_task_DD,2021.2.3,Win32,60.06366749,,,,,,,,,,,,0.9132,0,,,,,,,,,,,,,,,,,,,,,,,,-0.34765625,-0.278645833,1,0,0,,,,,,,TOMATO,C,m,m,./images/TOMATO.png,,,,,,,,,,,,,,,,,,,,,0,-0.34765625,-0.278645833,1,0,0,0.9132,button_left_test,0,34,34,0,1,
,,,,,,,,,,,,,,,,,5c8ec999bb6a3c00014acf5f,53,2022-02-12_14h57.06.875,lexical_decision_task_DD,2021.2.3,Win32,60.06366749,,,,,,,,,,,,1.0317,1,,,,,,,,,,,,,,,,,,,,,,,,0.329427083,-0.3203125,1,0,0,,,,,,,SQUARE,C,m,m,./images/SQUARE.png,,,,,,,,,,,,,,,,,,,,,0,0.329427083,-0.3203125,1,0,0,1.0317,button_right_test,0,35,35,6,1,
,,,,,,,,,,,,,,,,,5c8ec999bb6a3c00014acf5f,53,2022-02-12_14h57.06.875,lexical_decision_task_DD,2021.2.3,Win32,60.06366749,,,,,,,,,,,,0.5973,1,,,,,,,,,,,,,,,,,,,,,,,,0.329427083,-0.3203125,1,0,0,,,,,,,BERRY,LB,m,m,./images/BERRYLB.png,,,,,,,,,,,,,,,,,,,,,0,0.329427083,-0.3203125,1,0,0,0.5973,button_right_test,0,36,36,47,1,
,,,,,,,,,,,,,,,,,5c8ec999bb6a3c00014acf5f,53,2022-02-12_14h57.06.875,lexical_decision_task_DD,2021.2.3,Win32,60.06366749,,,,,,,,,,,,0.6296,1,,,,,,,,,,,,,,,,,,,,,,,,0.329427083,-0.3203125,1,0,0,,,,,,,PEARL,HB,m,m,./images/PEARLHB.png,,,,,,,,,,,,,,,,,,,,,0,0.329427083,-0.3203125,1,0,0,0.6296,button_right_test,0,37,37,46,1,
,,,,,,,,,,,,,,,,,5c8ec999bb6a3c00014acf5f,53,2022-02-12_14h57.06.875,lexical_decision_task_DD,2021.2.3,Win32,60.06366749,,,,,,,,,,,,1.048,1,,,,,,,,,,,,,,,,,,,,,,,,-0.408854167,-0.29296875,1,0,0,,,,,,,BANANA,HB,z,m,./images/BANANAHB.png,,,,,,,,,,,,,,,,,,,,,0,-0.408854167,-0.29296875,1,0,0,1.048,button_left_test,0,38,38,154,1,
,,,,,,,,,,,,,,,,,5c8ec999bb6a3c00014acf5f,53,2022-02-12_14h57.06.875,lexical_decision_task_DD,2021.2.3,Win32,60.06366749,,,,,,,,,,,,1.0315,1,,,,,,,,,,,,,,,,,,,,,,,,0.30078125,-0.296875,1,0,0,,,,,,,BANNER,HB,m,m,./images/BANNERHB.png,,,,,,,,,,,,,,,,,,,,,0,0.30078125,-0.296875,1,0,0,1.0315,button_right_test,0,39,39,52,1,
,,,,,,,,,,,,,,,,,5c8ec999bb6a3c00014acf5f,53,2022-02-12_14h57.06.875,lexical_decision_task_DD,2021.2.3,Win32,60.06366749,,,,,,,,,,,,1.1466,1,,,,,,,,,,,,,,,,,,,,,,,,-0.32421875,-0.303385417,1,0,0,,,,,,,ENGINE,LB,z,m,./images/ENGINELB.png,,,,,,,,,,,,,,,,,,,,,0,-0.32421875,-0.303385417,1,0,0,1.1466,button_left_test,0,40,40,122,1,
,,,,,,,,,,,,,,,,,5c8ec999bb6a3c00014acf5f,53,2022-02-12_14h57.06.875,lexical_decision_task_DD,2021.2.3,Win32,60.06366749,,,,,,,,,,,,0.9849,1,,,,,,,,,,,,,,,,,,,,,,,,-0.009114583,-0.407552083,1,0,0,,,,,,,BONNET,LB,m,m,./images/BONNETLB.png,,,,,,,,,,,,,,,,,,,,,0,0.436197917,-0.30078125,1,0,0,0.9849,button_right_test,0,41,41,11,1,break_done_button
,,,,,,,,,,,,,,,,,5c8ec999bb6a3c00014acf5f,53,2022-02-12_14h57.06.875,lexical_decision_task_DD,2021.2.3,Win32,60.06366749,,,,,,,,,,,,0.8958,1,,,,,,,,,,,,,,,,,,,,,,,,-0.427083333,-0.328125,1,0,0,,,,,,,ARTIST,HB,z,m,./images/ARTISTHB.png,,,,,,,,,,,,,,,,,,,,,0,-0.427083333,-0.328125,1,0,0,0.8958,button_left_test,0,42,42,145,1,
,,,,,,,,,,,,,,,,,5c8ec999bb6a3c00014acf5f,53,2022-02-12_14h57.06.875,lexical_decision_task_DD,2021.2.3,Win32,60.06366749,,,,,,,,,,,,0.9182,1,,,,,,,,,,,,,,,,,,,,,,,,-0.34765625,-0.307291667,1,0,0,,,,,,,STREAM,LB,z,m,./images/STREAMLB.png,,,,,,,,,,,,,,,,,,,,,0,-0.34765625,-0.307291667,1,0,0,0.9182,button_left_test,0,43,43,125,1,
,,,,,,,,,,,,,,,,,5c8ec999bb6a3c00014acf5f,53,2022-02-12_14h57.06.875,lexical_decision_task_DD,2021.2.3,Win32,60.06366749,,,,,,,,,,,,0.9483,1,,,,,,,,,,,,,,,,,,,,,,,,0.4375,-0.30859375,1,0,0,,,,,,,BELLY,HB,m,m,./images/BELLYHB.png,,,,,,,,,,,,,,,,,,,,,0,0.4375,-0.30859375,1,0,0,0.9483,button_right_test,0,44,44,10,1,
,,,,,,,,,,,,,,,,,5c8ec999bb6a3c00014acf5f,53,2022-02-12_14h57.06.875,lexical_decision_task_DD,2021.2.3,Win32,60.06366749,,,,,,,,,,,,0.7123,1,,,,,,,,,,,,,,,,,,,,,,,,0.403645833,-0.337239583,1,0,0,,,,,,,SMOKER,LB,m,m,./images/SMOKERLB.png,,,,,,,,,,,,,,,,,,,,,0,0.403645833,-0.337239583,1,0,0,0.7123,button_right_test,0,45,45,26,1,
,,,,,,,,,,,,,,,,,5c8ec999bb6a3c00014acf5f,53,2022-02-12_14h57.06.875,lexical_decision_task_DD,2021.2.3,Win32,60.06366749,,,,,,,,,,,,0.6794,1,,,,,,,,,,,,,,,,,,,,,,,,0.403645833,-0.328125,1,0,0,,,,,,,STRING,LB,m,m,./images/STRINGLB.png,,,,,,,,,,,,,,,,,,,,,0,0.403645833,-0.328125,1,0,0,0.6794,button_right_test,0,46,46,41,1,
,,,,,,,,,,,,,,,,,5c8ec999bb6a3c00014acf5f,53,2022-02-12_14h57.06.875,lexical_decision_task_DD,2021.2.3,Win32,60.06366749,,,,,,,,,,,,1.1115,1,,,,,,,,,,,,,,,,,,,,,,,,-0.32421875,-0.30859375,1,0,0,,,,,,,RULER,HB,z,m,./images/RULERHB.png,,,,,,,,,,,,,,,,,,,,,0,-0.32421875,-0.30859375,1,0,0,1.1115,button_left_test,0,47,47,163,1,
,,,,,,,,,,,,,,,,,5c8ec999bb6a3c00014acf5f,53,2022-02-12_14h57.06.875,lexical_decision_task_DD,2021.2.3,Win32,60.06366749,,,,,,,,,,,,0.7296,1,,,,,,,,,,,,,,,,,,,,,,,,-0.32421875,-0.30859375,1,0,0,,,,,,,SPINE,LB,z,m,./images/SPINELB.png,,,,,,,,,,,,,,,,,,,,,0,-0.32421875,-0.30859375,1,0,0,0.7296,button_left_test,0,48,48,149,1,
,,,,,,,,,,,,,,,,,5c8ec999bb6a3c00014acf5f,53,2022-02-12_14h57.06.875,lexical_decision_task_DD,2021.2.3,Win32,60.06366749,,,,,,,,,,,,0.8348,1,,,,,,,,,,,,,,,,,,,,,,,,-0.32421875,-0.30859375,1,0,0,,,,,,,BISHOP,HB,z,m,./images/BISHOPHB.png,,,,,,,,,,,,,,,,,,,,,0,-0.32421875,-0.30859375,1,0,0,0.8348,button_left_test,0,49,49,133,1,
,,,,,,,,,,,,,,,,,5c8ec999bb6a3c00014acf5f,53,2022-02-12_14h57.06.875,lexical_decision_task_DD,2021.2.3,Win32,60.06366749,,,,,,,,,,,,0.9476,1,,,,,,,,,,,,,,,,,,,,,,,,0.385416667,-0.279947917,1,0,0,,,,,,,PICKLE,LB,m,m,./images/PICKLELB.png,,,,,,,,,,,,,,,,,,,,,0,0.385416667,-0.279947917,1,0,0,0.9476,button_right_test,0,50,50,14,1,
,,,,,,,,,,,,,,,,,5c8ec999bb6a3c00014acf5f,53,2022-02-12_14h57.06.875,lexical_decision_task_DD,2021.2.3,Win32,60.06366749,,,,,,,,,,,,0.9132,1,,,,,,,,,,,,,,,,,,,,,,,,0.352864583,-0.311197917,1,0,0,,,,,,,WALRUS,LB,m,m,./images/WALRUSLB.png,,,,,,,,,,,,,,,,,,,,,0,0.352864583,-0.311197917,1,0,0,0.9132,button_right_test,0,51,51,23,1,
,,,,,,,,,,,,,,,,,5c8ec999bb6a3c00014acf5f,53,2022-02-12_14h57.06.875,lexical_decision_task_DD,2021.2.3,Win32,60.06366749,,,,,,,,,,,,1.2016,1,,,,,,,,,,,,,,,,,,,,,,,,-0.412760417,-0.286458333,1,0,0,,,,,,,MEDAL,LB,z,m,./images/MEDALLB.png,,,,,,,,,,,,,,,,,,,,,0,-0.412760417,-0.286458333,1,0,0,1.2016,button_left_test,0,52,52,95,1,
,,,,,,,,,,,,,,,,,5c8ec999bb6a3c00014acf5f,53,2022-02-12_14h57.06.875,lexical_decision_task_DD,2021.2.3,Win32,60.06366749,,,,,,,,,,,,1.1528,1,,,,,,,,,,,,,,,,,,,,,,,,0.397135417,-0.33203125,1,0,0,,,,,,,SPORT,C,m,m,./images/SPORT.png,,,,,,,,,,,,,,,,,,,,,0,0.397135417,-0.33203125,1,0,0,1.1528,button_right_test,0,53,53,48,1,
,,,,,,,,,,,,,,,,,5c8ec999bb6a3c00014acf5f,53,2022-02-12_14h57.06.875,lexical_decision_task_DD,2021.2.3,Win32,60.06366749,,,,,,,,,,,,0.7513,1,,,,,,,,,,,,,,,,,,,,,,,,0.389322917,-0.321614583,1,0,0,,,,,,,FOLDER,C,m,m,./images/FOLDER.png,,,,,,,,,,,,,,,,,,,,,0,0.389322917,-0.321614583,1,0,0,0.7513,button_right_test,0,54,54,42,1,
,,,,,,,,,,,,,,,,,5c8ec999bb6a3c00014acf5f,53,2022-02-12_14h57.06.875,lexical_decision_task_DD,2021.2.3,Win32,60.06366749,,,,,,,,,,,,1.1349,1,,,,,,,,,,,,,,,,,,,,,,,,-0.325520833,-0.303385417,1,0,0,,,,,,,FERRY,C,z,m,./images/FERRY.png,,,,,,,,,,,,,,,,,,,,,0,-0.325520833,-0.303385417,1,0,0,1.1349,button_left_test,0,55,55,141,1,
,,,,,,,,,,,,,,,,,5c8ec999bb6a3c00014acf5f,53,2022-02-12_14h57.06.875,lexical_decision_task_DD,2021.2.3,Win32,60.06366749,,,,,,,,,,,,0.696,1,,,,,,,,,,,,,,,,,,,,,,,,-0.325520833,-0.303385417,1,0,0,,,,,,,STOVE,LB,z,m,./images/STOVELB.png,,,,,,,,,,,,,,,,,,,,,0,-0.325520833,-0.303385417,1,0,0,0.696,button_left_test,0,56,56,86,1,
,,,,,,,,,,,,,,,,,5c8ec999bb6a3c00014acf5f,53,2022-02-12_14h57.06.875,lexical_decision_task_DD,2021.2.3,Win32,60.06366749,,,,,,,,,,,,0.9647,1,,,,,,,,,,,,,,,,,,,,,,,,-0.325520833,-0.303385417,1,0,0,,,,,,,BUNNY,HB,z,m,./images/BUNNYHB.png,,,,,,,,,,,,,,,,,,,,,0,-0.325520833,-0.303385417,1,0,0,0.9647,button_left_test,0,57,57,97,1,
,,,,,,,,,,,,,,,,,5c8ec999bb6a3c00014acf5f,53,2022-02-12_14h57.06.875,lexical_decision_task_DD,2021.2.3,Win32,60.06366749,,,,,,,,,,,,0.7461,1,,,,,,,,,,,,,,,,,,,,,,,,-0.325520833,-0.303385417,1,0,0,,,,,,,STATUE,C,z,m,./images/STATUE.png,,,,,,,,,,,,,,,,,,,,,0,-0.325520833,-0.303385417,1,0,0,0.7461,button_left_test,0,58,58,150,1,
,,,,,,,,,,,,,,,,,5c8ec999bb6a3c00014acf5f,53,2022-02-12_14h57.06.875,lexical_decision_task_DD,2021.2.3,Win32,60.06366749,,,,,,,,,,,,0.7476,1,,,,,,,,,,,,,,,,,,,,,,,,-0.325520833,-0.303385417,1,0,0,,,,,,,CLOTH,LB,z,m,./images/CLOTHLB.png,,,,,,,,,,,,,,,,,,,,,0,-0.325520833,-0.303385417,1,0,0,0.7476,button_left_test,0,59,59,107,1,
,,,,,,,,,,,,,,,,,5c8ec999bb6a3c00014acf5f,53,2022-02-12_14h57.06.875,lexical_decision_task_DD,2021.2.3,Win32,60.06366749,,,,,,,,,,,,1.1145,1,,,,,,,,,,,,,,,,,,,,,,,,0.375,-0.325520833,1,0,0,,,,,,,DRUMS,HB,m,m,./images/DRUMSHB.png,,,,,,,,,,,,,,,,,,,,,0,0.375,-0.325520833,1,0,0,1.1145,button_right_test,0,60,60,49,1,
,,,,,,,,,,,,,,,,,5c8ec999bb6a3c00014acf5f,53,2022-02-12_14h57.06.875,lexical_decision_task_DD,2021.2.3,Win32,60.06366749,,,,,,,,,,,,1.4795,0,,,,,,,,,,,,,,,,,,,,,,,,-0.408854167,-0.30078125,1,0,0,,,,,,,CRUST,HB,m,m,./images/CRUSTHB.png,,,,,,,,,,,,,,,,,,,,,0,-0.408854167,-0.30078125,1,0,0,1.4795,button_left_test,0,61,61,79,1,
,,,,,,,,,,,,,,,,,5c8ec999bb6a3c00014acf5f,53,2022-02-12_14h57.06.875,lexical_decision_task_DD,2021.2.3,Win32,60.06366749,,,,,,,,,,,,0.6969,1,,,,,,,,,,,,,,,,,,,,,,,,-0.38671875,-0.303385417,1,0,0,,,,,,,MAMMAL,LB,z,m,./images/MAMMALLB.png,,,,,,,,,,,,,,,,,,,,,0,-0.38671875,-0.303385417,1,0,0,0.6969,button_left_test,0,62,62,146,1,
,,,,,,,,,,,,,,,,,5c8ec999bb6a3c00014acf5f,53,2022-02-12_14h57.06.875,lexical_decision_task_DD,2021.2.3,Win32,60.06366749,,,,,,,,,,,,1.0959,1,,,,,,,,,,,,,,,,,,,,,,,,0.365885417,-0.317708333,1,0,0,,,,,,,CRADLE,LB,m,m,./images/CRADLELB.png,,,,,,,,,,,,,,,,,,,,,0,0.365885417,-0.317708333,1,0,0,1.0959,button_right_test,0,63,63,20,1,
,,,,,,,,,,,,,,,,,5c8ec999bb6a3c00014acf5f,53,2022-02-12_14h57.06.875,lexical_decision_task_DD,2021.2.3,Win32,60.06366749,,,,,,,,,,,,1.4111,1,,,,,,,,,,,,,,,,,,,,,,,,-0.354166667,-0.291666667,1,0,0,,,,,,,WAGON,HB,z,m,./images/WAGONHB.png,,,,,,,,,,,,,,,,,,,,,0,-0.354166667,-0.291666667,1,0,0,1.4111,button_left_test,0,64,64,91,1,
,,,,,,,,,,,,,,,,,5c8ec999bb6a3c00014acf5f,53,2022-02-12_14h57.06.875,lexical_decision_task_DD,2021.2.3,Win32,60.06366749,,,,,,,,,,,,0.963,1,,,,,,,,,,,,,,,,,,,,,,,,0.401041667,-0.32421875,1,0,0,,,,,,,CANYON,HB,m,m,./images/CANYONHB.png,,,,,,,,,,,,,,,,,,,,,0,0.401041667,-0.32421875,1,0,0,0.963,button_right_test,0,65,65,34,1,
,,,,,,,,,,,,,,,,,5c8ec999bb6a3c00014acf5f,53,2022-02-12_14h57.06.875,lexical_decision_task_DD,2021.2.3,Win32,60.06366749,,,,,,,,,,,,0.9469,1,,,,,,,,,,,,,,,,,,,,,,,,-0.393229167,-0.30078125,1,0,0,,,,,,,RAZOR,HB,z,m,./images/RAZORHB.png,,,,,,,,,,,,,,,,,,,,,0,-0.393229167,-0.30078125,1,0,0,0.9469,button_left_test,0,66,66,118,1,
,,,,,,,,,,,,,,,,,5c8ec999bb6a3c00014acf5f,53,2022-02-12_14h57.06.875,lexical_decision_task_DD,2021.2.3,Win32,60.06366749,,,,,,,,,,,,0.9469,1,,,,,,,,,,,,,,,,,,,,,,,,0.380208333,-0.3203125,1,0,0,,,,,,,POODLE,C,m,m,./images/POODLE.png,,,,,,,,,,,,,,,,,,,,,0,0.380208333,-0.3203125,1,0,0,0.9469,button_right_test,0,67,67,81,1,
,,,,,,,,,,,,,,,,,5c8ec999bb6a3c00014acf5f,53,2022-02-12_14h57.06.875,lexical_decision_task_DD,2021.2.3,Win32,60.06366749,,,,,,,,,,,,0.6324,1,,,,,,,,,,,,,,,,,,,,,,,,0.37890625,-0.3203125,1,0,0,,,,,,,TWINS,C,m,m,./images/TWINS.png,,,,,,,,,,,,,,,,,,,,,0,0.37890625,-0.3203125,1,0,0,0.6324,button_right_test,0,68,68,60,1,
,,,,,,,,,,,,,,,,,5c8ec999bb6a3c00014acf5f,53,2022-02-12_14h57.06.875,lexical_decision_task_DD,2021.2.3,Win32,60.06366749,,,,,,,,,,,,0.9315,1,,,,,,,,,,,,,,,,,,,,,,,,-0.358072917,-0.30859375,1,0,0,,,,,,,GLOVE,HB,z,m,./images/GLOVEHB.png,,,,,,,,,,,,,,,,,,,,,0,-0.358072917,-0.30859375,1,0,0,0.9315,button_left_test,0,69,69,157,1,
,,,,,,,,,,,,,,,,,5c8ec999bb6a3c00014acf5f,53,2022-02-12_14h57.06.875,lexical_decision_task_DD,2021.2.3,Win32,60.06366749,,,,,,,,,,,,0.8973,1,,,,,,,,,,,,,,,,,,,,,,,,0.342447917,-0.305989583,1,0,0,,,,,,,SWING,HB,m,m,./images/SWINGHB.png,,,,,,,,,,,,,,,,,,,,,0,0.342447917,-0.305989583,1,0,0,0.8973,button_right_test,0,70,70,40,1,
,,,,,,,,,,,,,,,,,5c8ec999bb6a3c00014acf5f,53,2022-02-12_14h57.06.875,lexical_decision_task_DD,2021.2.3,Win32,60.06366749,,,,,,,,,,,,0.6796,1,,,,,,,,,,,,,,,,,,,,,,,,0.342447917,-0.305989583,1,0,0,,,,,,,MALLET,LB,m,m,./images/MALLETLB.png,,,,,,,,,,,,,,,,,,,,,0,0.342447917,-0.305989583,1,0,0,0.6796,button_right_test,0,71,71,50,1,
,,,,,,,,,,,,,,,,,5c8ec999bb6a3c00014acf5f,53,2022-02-12_14h57.06.875,lexical_decision_task_DD,2021.2.3,Win32,60.06366749,,,,,,,,,,,,1.1469,1,,,,,,,,,,,,,,,,,,,,,,,,-0.31640625,-0.294270833,1,0,0,,,,,,,PILOT,LB,z,m,./images/PILOTLB.png,,,,,,,,,,,,,,,,,,,,,0,-0.31640625,-0.294270833,1,0,0,1.1469,button_left_test,0,72,72,134,1,
,,,,,,,,,,,,,,,,,5c8ec999bb6a3c00014acf5f,53,2022-02-12_14h57.06.875,lexical_decision_task_DD,2021.2.3,Win32,60.06366749,,,,,,,,,,,,0.8134,1,,,,,,,,,,,,,,,,,,,,,,,,-0.319010417,-0.296875,1,0,0,,,,,,,STOOL,HB,z,m,./images/STOOLHB.png,,,,,,,,,,,,,,,,,,,,,0,-0.319010417,-0.296875,1,0,0,0.8134,button_left_test,0,73,73,127,1,
,,,,,,,,,,,,,,,,,5c8ec999bb6a3c00014acf5f,53,2022-02-12_14h57.06.875,lexical_decision_task_DD,2021.2.3,Win32,60.06366749,,,,,,,,,,,,0.6625,1,,,,,,,,,,,,,,,,,,,,,,,,-0.319010417,-0.296875,1,0,0,,,,,,,GARDEN,HB,z,m,./images/GARDENHB.png,,,,,,,,,,,,,,,,,,,,,0,-0.319010417,-0.296875,1,0,0,0.6625,button_left_test,0,74,74,94,1,
,,,,,,,,,,,,,,,,,5c8ec999bb6a3c00014acf5f,53,2022-02-12_14h57.06.875,lexical_decision_task_DD,2021.2.3,Win32,60.06366749,,,,,,,,,,,,1.1462,1,,,,,,,,,,,,,,,,,,,,,,,,0.407552083,-0.319010417,1,0,0,,,,,,,PENCE,HB,m,m,./images/PENCEHB.png,,,,,,,,,,,,,,,,,,,,,0,0.407552083,-0.319010417,1,0,0,1.1462,button_right_test,0,75,75,16,1,
,,,,,,,,,,,,,,,,,5c8ec999bb6a3c00014acf5f,53,2022-02-12_14h57.06.875,lexical_decision_task_DD,2021.2.3,Win32,60.06366749,,,,,,,,,,,,1.1642,0,,,,,,,,,,,,,,,,,,,,,,,,0.40625,-0.319010417,1,0,0,,,,,,,CHALK,HB,z,m,./images/CHALKHB.png,,,,,,,,,,,,,,,,,,,,,0,0.40625,-0.319010417,1,0,0,1.1642,button_right_test,0,76,76,109,1,
,,,,,,,,,,,,,,,,,5c8ec999bb6a3c00014acf5f,53,2022-02-12_14h57.06.875,lexical_decision_task_DD,2021.2.3,Win32,60.06366749,,,,,,,,,,,,1.2965,1,,,,,,,,,,,,,,,,,,,,,,,,-0.444010417,-0.279947917,1,0,0,,,,,,,FENCE,LB,z,m,./images/FENCELB.png,,,,,,,,,,,,,,,,,,,,,0,-0.444010417,-0.279947917,1,0,0,1.2965,button_left_test,0,77,77,98,1,
,,,,,,,,,,,,,,,,,5c8ec999bb6a3c00014acf5f,53,2022-02-12_14h57.06.875,lexical_decision_task_DD,2021.2.3,Win32,60.06366749,,,,,,,,,,,,0.9461,1,,,,,,,,,,,,,,,,,,,,,,,,0.38671875,-0.28515625,1,0,0,,,,,,,MIRROR,C,m,m,./images/MIRROR.png,,,,,,,,,,,,,,,,,,,,,0,0.38671875,-0.28515625,1,0,0,0.9461,button_right_test,0,78,78,63,1,
,,,,,,,,,,,,,,,,,5c8ec999bb6a3c00014acf5f,53,2022-02-12_14h57.06.875,lexical_decision_task_DD,2021.2.3,Win32,60.06366749,,,,,,,,,,,,1.2467,1,,,,,,,,,,,,,,,,,,,,,,,,-0.364583333,-0.28125,1,0,0,,,,,,,POKER,HB,z,m,./images/POKERHB.png,,,,,,,,,,,,,,,,,,,,,0,-0.364583333,-0.28125,1,0,0,1.2467,button_left_test,0,79,79,151,1,
,,,,,,,,,,,,,,,,,5c8ec999bb6a3c00014acf5f,53,2022-02-12_14h57.06.875,lexical_decision_task_DD,2021.2.3,Win32,60.06366749,,,,,,,,,,,,1.0131,1,,,,,,,,,,,,,,,,,,,,,,,,0.360677083,-0.27734375,1,0,0,,,,,,,RHINO,C,m,m,./images/RHINO.png,,,,,,,,,,,,,,,,,,,,,0,0.360677083,-0.27734375,1,0,0,1.0131,button_right_test,0,80,80,9,1,
,,,,,,,,,,,,,,,,,5c8ec999bb6a3c00014acf5f,53,2022-02-12_14h57.06.875,lexical_decision_task_DD,2021.2.3,Win32,60.06366749,,,,,,,,,,,,0.5795,1,,,,,,,,,,,,,,,,,,,,,,,,0.330729167,-0.309895833,1,0,0,,,,,,,PASTA,LB,m,m,./images/PASTALB.png,,,,,,,,,,,,,,,,,,,,,0,0.330729167,-0.309895833,1,0,0,0.5795,button_right_test,0,81,81,5,1,
,,,,,,,,,,,,,,,,,5c8ec999bb6a3c00014acf5f,53,2022-02-12_14h57.06.875,lexical_decision_task_DD,2021.2.3,Win32,60.06366749,,,,,,,,,,,,0.9954,1,,,,,,,,,,,,,,,,,,,,,,,,-0.390625,-0.309895833,1,0,0,,,,,,,CLOWN,HB,z,m,./images/CLOWNHB.png,,,,,,,,,,,,,,,,,,,,,0,-0.390625,-0.309895833,1,0,0,0.9954,button_left_test,0,82,82,106,1,
,,,,,,,,,,,,,,,,,5c8ec999bb6a3c00014acf5f,53,2022-02-12_14h57.06.875,lexical_decision_task_DD,2021.2.3,Win32,60.06366749,,,,,,,,,,,,0.9634,1,,,,,,,,,,,,,,,,,,,,,,,,-0.013020833,-0.408854167,1,0,0,,,,,,,FARMER,LB,m,m,./images/FARMERLB.png,,,,,,,,,,,,,,,,,,,,,0,0.3359375,-0.29296875,1,0,0,0.9634,button_right_test,0,83,83,65,1,break_done_button
,,,,,,,,,,,,,,,,,5c8ec999bb6a3c00014acf5f,53,2022-02-12_14h57.06.875,lexical_decision_task_DD,2021.2.3,Win32,60.06366749,,,,,,,,,,,,0.7786,1,,,,,,,,,,,,,,,,,,,,,,,,0.505208333,-0.302083333,1,0,0,,,,,,,MOOSE,C,m,m,./images/MOOSE.png,,,,,,,,,,,,,,,,,,,,,0,0.505208333,-0.302083333,1,0,0,0.7786,button_right_test,0,84,84,57,1,
,,,,,,,,,,,,,,,,,5c8ec999bb6a3c00014acf5f,53,2022-02-12_14h57.06.875,lexical_decision_task_DD,2021.2.3,Win32,60.06366749,,,,,,,,,,,,0.6316,1,,,,,,,,,,,,,,,,,,,,,,,,0.3359375,-0.307291667,1,0,0,,,,,,,BURIAL,LB,m,m,./images/BURIALLB.png,,,,,,,,,,,,,,,,,,,,,0,0.3359375,-0.307291667,1,0,0,0.6316,button_right_test,0,85,85,59,1,
,,,,,,,,,,,,,,,,,5c8ec999bb6a3c00014acf5f,53,2022-02-12_14h57.06.875,lexical_decision_task_DD,2021.2.3,Win32,60.06366749,,,,,,,,,,,,0.9967,0,,,,,,,,,,,,,,,,,,,,,,,,0.3359375,-0.307291667,1,0,0,,,,,,,POSTER,LB,z,m,./images/POSTERLB.png,,,,,,,,,,,,,,,,,,,,,0,0.3359375,-0.307291667,1,0,0,0.9967,button_right_test,0,86,86,137,1,
,,,,,,,,,,,,,,,,,5c8ec999bb6a3c00014acf5f,53,2022-02-12_14h57.06.875,lexical_decision_task_DD,2021.2.3,Win32,60.06366749,,,,,,,,,,,,0.6177,1,,,,,,,,,,,,,,,,,,,,,,,,0.3359375,-0.307291667,1,0,0,,,,,,,MELON,HB,m,m,./images/MELONHB.png,,,,,,,,,,,,,,,,,,,,,0,0.3359375,-0.307291667,1,0,0,0.6177,button_right_test,0,87,87,22,1,
,,,,,,,,,,,,,,,,,5c8ec999bb6a3c00014acf5f,53,2022-02-12_14h57.06.875,lexical_decision_task_DD,2021.2.3,Win32,60.06366749,,,,,,,,,,,,0.5987,1,,,,,,,,,,,,,,,,,,,,,,,,0.3359375,-0.307291667,1,0,0,,,,,,,QUILL,HB,m,m,./images/QUILLHB.png,,,,,,,,,,,,,,,,,,,,,0,0.3359375,-0.307291667,1,0,0,0.5987,button_right_test,0,88,88,31,1,
,,,,,,,,,,,,,,,,,5c8ec999bb6a3c00014acf5f,53,2022-02-12_14h57.06.875,lexical_decision_task_DD,2021.2.3,Win32,60.06366749,,,,,,,,,,,,1.1794,1,,,,,,,,,,,,,,,,,,,,,,,,-0.330729167,-0.296875,1,0,0,,,,,,,DRILL,C,z,m,./images/DRILL.png,,,,,,,,,,,,,,,,,,,,,0,-0.330729167,-0.296875,1,0,0,1.1794,button_left_test,0,89,89,165,1,
,,,,,,,,,,,,,,,,,5c8ec999bb6a3c00014acf5f,53,2022-02-12_14h57.06.875,lexical_decision_task_DD,2021.2.3,Win32,60.06366749,,,,,,,,,,,,0.9462,1,,,,,,,,,,,,,,,,,,,,,,,,0.298177083,-0.3125,1,0,0,,,,,,,SHELF,C,m,m,./images/SHELF.png,,,,,,,,,,,,,,,,,,,,,0,0.298177083,-0.3125,1,0,0,0.9462,button_right_test,0,90,90,39,1,
,,,,,,,,,,,,,,,,,5c8ec999bb6a3c00014acf5f,53,2022-02-12_14h57.06.875,lexical_decision_task_DD,2021.2.3,Win32,60.06366749,,,,,,,,,,,,0.6802,1,,,,,,,,,,,,,,,,,,,,,,,,0.298177083,-0.3125,1,0,0,,,,,,,JUNGLE,LB,m,m,./images/JUNGLELB.png,,,,,,,,,,,,,,,,,,,,,0,0.298177083,-0.3125,1,0,0,0.6802,button_right_test,0,91,91,83,1,
,,,,,,,,,,,,,,,,,5c8ec999bb6a3c00014acf5f,53,2022-02-12_14h57.06.875,lexical_decision_task_DD,2021.2.3,Win32,60.06366749,,,,,,,,,,,,0.5798,1,,,,,,,,,,,,,,,,,,,,,,,,0.298177083,-0.3125,1,0,0,,,,,,,CARPET,LB,m,m,./images/CARPETLB.png,,,,,,,,,,,,,,,,,,,,,0,0.298177083,-0.3125,1,0,0,0.5798,button_right_test,0,92,92,53,1,
,,,,,,,,,,,,,,,,,5c8ec999bb6a3c00014acf5f,53,2022-02-12_14h57.06.875,lexical_decision_task_DD,2021.2.3,Win32,60.06366749,,,,,,,,,,,,1.1299,1,,,,,,,,,,,,,,,,,,,,,,,,-0.397135417,-0.311197917,1,0,0,,,,,,,BRIDE,HB,z,m,./images/BRIDEHB.png,,,,,,,,,,,,,,,,,,,,,0,-0.397135417,-0.311197917,1,0,0,1.1299,button_left_test,0,93,93,148,1,
,,,,,,,,,,,,,,,,,5c8ec999bb6a3c00014acf5f,53,2022-02-12_14h57.06.875,lexical_decision_task_DD,2021.2.3,Win32,60.06366749,,,,,,,,,,,,0.9471,1,,,,,,,,,,,,,,,,,,,,,,,,-0.393229167,-0.311197917,1,0,0,,,,,,,BASKET,LB,z,m,./images/BASKETLB.png,,,,,,,,,,,,,,,,,,,,,0,-0.393229167,-0.311197917,1,0,0,0.9471,button_left_test,0,94,94,128,1,
,,,,,,,,,,,,,,,,,5c8ec999bb6a3c00014acf5f,53,2022-02-12_14h57.06.875,lexical_decision_task_DD,2021.2.3,Win32,60.06366749,,,,,,,,,,,,0.7129,1,,,,,,,,,,,,,,,,,,,,,,,,-0.393229167,-0.311197917,1,0,0,,,,,,,FLESH,C,z,m,./images/FLESH.png,,,,,,,,,,,,,,,,,,,,,0,-0.393229167,-0.311197917,1,0,0,0.7129,button_left_test,0,95,95,108,1,
,,,,,,,,,,,,,,,,,5c8ec999bb6a3c00014acf5f,53,2022-02-12_14h57.06.875,lexical_decision_task_DD,2021.2.3,Win32,60.06366749,,,,,,,,,,,,1.0307,1,,,,,,,,,,,,,,,,,,,,,,,,-0.393229167,-0.311197917,1,0,0,,,,,,,HAMMER,C,z,m,./images/HAMMER.png,,,,,,,,,,,,,,,,,,,,,0,-0.393229167,-0.311197917,1,0,0,1.0307,button_left_test,0,96,96,159,1,
,,,,,,,,,,,,,,,,,5c8ec999bb6a3c00014acf5f,53,2022-02-12_14h57.06.875,lexical_decision_task_DD,2021.2.3,Win32,60.06366749,,,,,,,,,,,,0.6962,1,,,,,,,,,,,,,,,,,,,,,,,,-0.393229167,-0.311197917,1,0,0,,,,,,,PEBBLE,HB,z,m,./images/PEBBLEHB.png,,,,,,,,,,,,,,,,,,,,,0,-0.393229167,-0.311197917,1,0,0,0.6962,button_left_test,0,97,97,166,1,
,,,,,,,,,,,,,,,,,5c8ec999bb6a3c00014acf5f,53,2022-02-12_14h57.06.875,lexical_decision_task_DD,2021.2.3,Win32,60.06366749,,,,,,,,,,,,1.1798,1,,,,,,,,,,,,,,,,,,,,,,,,0.421875,-0.317708333,1,0,0,,,,,,,BEARD,LB,m,m,./images/BEARDLB.png,,,,,,,,,,,,,,,,,,,,,0,0.421875,-0.317708333,1,0,0,1.1798,button_right_test,0,98,98,2,1,
,,,,,,,,,,,,,,,,,5c8ec999bb6a3c00014acf5f,53,2022-02-12_14h57.06.875,lexical_decision_task_DD,2021.2.3,Win32,60.06366749,,,,,,,,,,,,0.7646,1,,,,,,,,,,,,,,,,,,,,,,,,0.346354167,-0.328125,1,0,0,,,,,,,CRUMB,LB,m,m,./images/CRUMBLB.png,,,,,,,,,,,,,,,,,,,,,0,0.346354167,-0.328125,1,0,0,0.7646,button_right_test,0,99,99,29,1,
,,,,,,,,,,,,,,,,,5c8ec999bb6a3c00014acf5f,53,2022-02-12_14h57.06.875,lexical_decision_task_DD,2021.2.3,Win32,60.06366749,,,,,,,,,,,,0.6309,1,,,,,,,,,,,,,,,,,,,,,,,,0.346354167,-0.326822917,1,0,0,,,,,,,PIMPLE,LB,m,m,./images/PIMPLELB.png,,,,,,,,,,,,,,,,,,,,,0,0.346354167,-0.326822917,1,0,0,0.6309,button_right_test,0,100,100,71,1,
,,,,,,,,,,,,,,,,,5c8ec999bb6a3c00014acf5f,53,2022-02-12_14h57.06.875,lexical_decision_task_DD,2021.2.3,Win32,60.06366749,,,,,,,,,,,,0.8646,1,,,,,,,,,,,,,,,,,,,,,,,,0.346354167,-0.326822917,1,0,0,,,,,,,MOTOR,HB,m,m,./images/MOTORHB.png,,,,,,,,,,,,,,,,,,,,,0,0.346354167,-0.326822917,1,0,0,0.8646,button_right_test,0,101,101,13,1,
,,,,,,,,,,,,,,,,,5c8ec999bb6a3c00014acf5f,53,2022-02-12_14h57.06.875,lexical_decision_task_DD,2021.2.3,Win32,60.06366749,,,,,,,,,,,,1.0819,1,,,,,,,,,,,,,,,,,,,,,,,,-0.352864583,-0.32421875,1,0,0,,,,,,,BRUSH,LB,z,m,./images/BRUSHLB.png,,,,,,,,,,,,,,,,,,,,,0,-0.352864583,-0.32421875,1,0,0,1.0819,button_left_test,0,102,102,143,1,
,,,,,,,,,,,,,,,,,5c8ec999bb6a3c00014acf5f,53,2022-02-12_14h57.06.875,lexical_decision_task_DD,2021.2.3,Win32,60.06366749,,,,,,,,,,,,0.63,0,,,,,,,,,,,,,,,,,,,,,,,,-0.352864583,-0.32421875,1,0,0,,,,,,,KIDNEY,C,m,m,./images/KIDNEY.png,,,,,,,,,,,,,,,,,,,,,0,-0.352864583,-0.32421875,1,0,0,0.63,button_left_test,0,103,103,21,1,
,,,,,,,,,,,,,,,,,5c8ec999bb6a3c00014acf5f,53,2022-02-12_14h57.06.875,lexical_decision_task_DD,2021.2.3,Win32,60.06366749,,,,,,,,,,,,0.9987,1,,,,,,,,,,,,,,,,,,,,,,,,0.329427083,-0.333333333,1,0,0,,,,,,,SNACK,HB,m,m,./images/SNACKHB.png,,,,,,,,,,,,,,,,,,,,,0,0.329427083,-0.333333333,1,0,0,0.9987,button_right_test,0,104,104,73,1,
,,,,,,,,,,,,,,,,,5c8ec999bb6a3c00014acf5f,53,2022-02-12_14h57.06.875,lexical_decision_task_DD,2021.2.3,Win32,60.06366749,,,,,,,,,,,,0.6801,1,,,,,,,,,,,,,,,,,,,,,,,,0.330729167,-0.333333333,1,0,0,,,,,,,MUSCLE,HB,m,m,./images/MUSCLEHB.png,,,,,,,,,,,,,,,,,,,,,0,0.330729167,-0.333333333,1,0,0,0.6801,button_right_test,0,105,105,4,1,
,,,,,,,,,,,,,,,,,5c8ec999bb6a3c00014acf5f,53,2022-02-12_14h57.06.875,lexical_decision_task_DD,2021.2.3,Win32,60.06366749,,,,,,,,,,,,1.3302,0,,,,,,,,,,,,,,,,,,,,,,,,-0.295572917,-0.315104167,1,0,0,,,,,,,THROAT,C,m,m,./images/THROAT.png,,,,,,,,,,,,,,,,,,,,,0,-0.295572917,-0.315104167,1,0,0,1.3302,button_left_test,0,106,106,36,1,
,,,,,,,,,,,,,,,,,5c8ec999bb6a3c00014acf5f,53,2022-02-12_14h57.06.875,lexical_decision_task_DD,2021.2.3,Win32,60.06366749,,,,,,,,,,,,0.8458,1,,,,,,,,,,,,,,,,,,,,,,,,-0.295572917,-0.315104167,1,0,0,,,,,,,CHERRY,C,z,m,./images/CHERRY.png,,,,,,,,,,,,,,,,,,,,,0,-0.295572917,-0.315104167,1,0,0,0.8458,button_left_test,0,107,107,138,1,
,,,,,,,,,,,,,,,,,5c8ec999bb6a3c00014acf5f,53,2022-02-12_14h57.06.875,lexical_decision_task_DD,2021.2.3,Win32,60.06366749,,,,,,,,,,,,0.9797,1,,,,,,,,,,,,,,,,,,,,,,,,0.399739583,-0.303385417,1,0,0,,,,,,,DOUGH,HB,m,m,./images/DOUGHHB.png,,,,,,,,,,,,,,,,,,,,,0,0.399739583,-0.303385417,1,0,0,0.9797,button_right_test,0,108,108,19,1,
,,,,,,,,,,,,,,,,,5c8ec999bb6a3c00014acf5f,53,2022-02-12_14h57.06.875,lexical_decision_task_DD,2021.2.3,Win32,60.06366749,,,,,,,,,,,,0.912,1,,,,,,,,,,,,,,,,,,,,,,,,-0.38671875,-0.291666667,1,0,0,,,,,,,MUMMY,HB,z,m,./images/MUMMYHB.png,,,,,,,,,,,,,,,,,,,,,0,-0.38671875,-0.291666667,1,0,0,0.912,button_left_test,0,109,109,130,1,
,,,,,,,,,,,,,,,,,5c8ec999bb6a3c00014acf5f,53,2022-02-12_14h57.06.875,lexical_decision_task_DD,2021.2.3,Win32,60.06366749,,,,,,,,,,,,0.9346,1,,,,,,,,,,,,,,,,,,,,,,,,0.420572917,-0.30859375,1,0,0,,,,,,,GREASE,C,m,m,./images/GREASE.png,,,,,,,,,,,,,,,,,,,,,0,0.420572917,-0.30859375,1,0,0,0.9346,button_right_test,0,110,110,15,1,
,,,,,,,,,,,,,,,,,5c8ec999bb6a3c00014acf5f,53,2022-02-12_14h57.06.875,lexical_decision_task_DD,2021.2.3,Win32,60.06366749,,,,,,,,,,,,1.0797,1,,,,,,,,,,,,,,,,,,,,,,,,-0.330729167,-0.31640625,1,0,0,,,,,,,GRANNY,LB,z,m,./images/GRANNYLB.png,,,,,,,,,,,,,,,,,,,,,0,-0.330729167,-0.31640625,1,0,0,1.0797,button_left_test,0,111,111,104,1,
,,,,,,,,,,,,,,,,,5c8ec999bb6a3c00014acf5f,53,2022-02-12_14h57.06.875,lexical_decision_task_DD,2021.2.3,Win32,60.06366749,,,,,,,,,,,,1.3302,0,,,,,,,,,,,,,,,,,,,,,,,,0.30859375,-0.290364583,1,0,0,,,,,,,FLASK,C,z,m,./images/FLASK.png,,,,,,,,,,,,,,,,,,,,,0,0.30859375,-0.290364583,1,0,0,1.3302,button_right_test,0,112,112,156,1,
,,,,,,,,,,,,,,,,,5c8ec999bb6a3c00014acf5f,53,2022-02-12_14h57.06.875,lexical_decision_task_DD,2021.2.3,Win32,60.06366749,,,,,,,,,,,,0.9467,1,,,,,,,,,,,,,,,,,,,,,,,,-0.334635417,-0.30078125,1,0,0,,,,,,,PARADE,LB,z,m,./images/PARADELB.png,,,,,,,,,,,,,,,,,,,,,0,-0.334635417,-0.30078125,1,0,0,0.9467,button_left_test,0,113,113,101,1,
,,,,,,,,,,,,,,,,,5c8ec999bb6a3c00014acf5f,53,2022-02-12_14h57.06.875,lexical_decision_task_DD,2021.2.3,Win32,60.06366749,,,,,,,,,,,,0.7466,1,,,,,,,,,,,,,,,,,,,,,,,,-0.334635417,-0.299479167,1,0,0,,,,,,,SHIELD,C,z,m,./images/SHIELD.png,,,,,,,,,,,,,,,,,,,,,0,-0.334635417,-0.299479167,1,0,0,0.7466,button_left_test,0,114,114,132,1,
,,,,,,,,,,,,,,,,,5c8ec999bb6a3c00014acf5f,53,2022-02-12_14h57.06.875,lexical_decision_task_DD,2021.2.3,Win32,60.06366749,,,,,,,,,,,,1.0304,1,,,,,,,,,,,,,,,,,,,,,,,,0.322916667,-0.283854167,1,0,0,,,,,,,LITTER,C,m,m,./images/LITTER.png,,,,,,,,,,,,,,,,,,,,,0,0.322916667,-0.283854167,1,0,0,1.0304,button_right_test,0,115,115,78,1,
,,,,,,,,,,,,,,,,,5c8ec999bb6a3c00014acf5f,53,2022-02-12_14h57.06.875,lexical_decision_task_DD,2021.2.3,Win32,60.06366749,,,,,,,,,,,,1.08,1,,,,,,,,,,,,,,,,,,,,,,,,-0.328125,-0.282552083,1,0,0,,,,,,,DIVER,C,z,m,./images/DIVER.png,,,,,,,,,,,,,,,,,,,,,0,-0.328125,-0.282552083,1,0,0,1.08,button_left_test,0,116,116,93,1,
,,,,,,,,,,,,,,,,,5c8ec999bb6a3c00014acf5f,53,2022-02-12_14h57.06.875,lexical_decision_task_DD,2021.2.3,Win32,60.06366749,,,,,,,,,,,,1.1467,1,,,,,,,,,,,,,,,,,,,,,,,,0.3984375,-0.295572917,1,0,0,,,,,,,COUCH,LB,m,m,./images/COUCHLB.png,,,,,,,,,,,,,,,,,,,,,0,0.3984375,-0.295572917,1,0,0,1.1467,button_right_test,0,117,117,77,1,
,,,,,,,,,,,,,,,,,5c8ec999bb6a3c00014acf5f,53,2022-02-12_14h57.06.875,lexical_decision_task_DD,2021.2.3,Win32,60.06366749,,,,,,,,,,,,0.6298,1,,,,,,,,,,,,,,,,,,,,,,,,0.376302083,-0.302083333,1,0,0,,,,,,,PURSE,LB,m,m,./images/PURSELB.png,,,,,,,,,,,,,,,,,,,,,0,0.376302083,-0.302083333,1,0,0,0.6298,button_right_test,0,118,118,62,1,
