key_resp.keys,key_resp.rt,instr_done_touch.x,instr_done_touch.y,instr_done_touch.leftButton,instr_done_touch.midButton,instr_done_touch.rightButton,instruction_pages.thisRepN,instruction_pages.thisTrialN,instruction_pages.thisN,instruction_pages.thisIndex,instruction_pages.ran,pageN,phase,instruct_text,has_image,instruct_image,participant,age,date,expName,psychopyVersion,OS,frameRate,response.keys,response.corr,response.rt,touch_resp.x,touch_resp.y,touch_resp.leftButton,touch_resp.midButton,touch_resp.rightButton,touch_resp.time,touch_resp.clicked_name,rt,corr,practrials.thisRepN,practrials.thisTrialN,practrials.thisN,practrials.thisIndex,practrials.ran,TrialID,Target,corrAns,end_of_practice_trials_pages.thisRepN,end_of_practice_trials_pages.thisTrialN,end_of_practice_trials_pages.thisN,end_of_practice_trials_pages.thisIndex,end_of_practice_trials_pages.ran,key_resp_2.keys,key_resp_2.corr,key_resp_2.rt,targ_click.x,targ_click.y,targ_click.leftButton,targ_click.midButton,targ_click.rightButton,targ_click.time,targ_click.clicked_name,break_done_touch.x,break_done_touch.y,break_done_touch.leftButton,break_done_touch.midButton,break_done_touch.rightButton,break_done_keyboard.keys,maintrials.thisRepN,maintrials.thisTrialN,maintrials.thisN,maintrials.thisIndex,maintrials.ran,string,blur,study,lex,stim_path,break_done_keyboard.rt,mouse_2.x,mouse_2.y,mouse_2.leftButton,mouse_2.midButton,mouse_2.rightButton,mouse_2.clicked_name,slider.response,slider.rt,trials.thisRepN,trials.thisTrialN,trials.thisN,trials.thisIndex,trials.ran,instr_done_touch.clicked_name,test_instructions.thisRepN,test_instructions.thisTrialN,test_instructions.thisN,test_instructions.thisIndex,test_instructions.ran,key_resp_3.keys,key_resp_3.corr,key_resp_3.rt,test_click.x,test_click.y,test_click.leftButton,test_click.midButton,test_click.rightButton,test_click.time,test_click.clicked_name,test_phase.thisRepN,test_phase.thisTrialN,test_phase.thisN,test_phase.thisIndex,test_phase.ran
space,16.1451,0.206481481,-0.149074074,0,0,0,0,0,0,0,1,1,instructions,"INSTRUCTIONS
At the start of each trial, look at the plus sign  (+) in the center of the screen.  This tells you that a trial is about to begin and where to look. Second, the plus sign will disappear and a string of letters will appear. Your task is to determine if the string of letters is a word or not. If the item is a word press the M key (on keyboard)  or touch the word button (phone/tablet).  If the item is not a word,  press the  Z key (on keyboard)  or touch the nonword button (on phone/tablet). 
Press the space bar or touch  continue.",0,,5c919a87707ed900018591e3,39,2022-02-12_16h56.59.584,lexical_decision_task_DD,2021.2.3,Win32,60.63545962,,,,,,,,,,,,,,,,,,,,,,,,,,,,,,,,,,,,,,,,,,,,,,,,,,,,,,,,,,,,,,,,,,,,,,,,,,,,,,,,,,,,,,
space,6.3825,0.206481481,-0.149074074,0,0,0,0,1,1,1,1,2,instructions,"If your device has a keyboard, press the 'Z' key for nonwords and the 'M' key for words.





Press the space bar or touch the button below to continue.",0,keyboard-example.gif,5c919a87707ed900018591e3,39,2022-02-12_16h56.59.584,lexical_decision_task_DD,2021.2.3,Win32,60.63545962,,,,,,,,,,,,,,,,,,,,,,,,,,,,,,,,,,,,,,,,,,,,,,,,,,,,,,,,,,,,,,,,,,,,,,,,,,,,,,,,,,,,,,
space,3.0257,0.206481481,-0.149074074,0,0,0,0,2,2,2,1,3,instructions,"If you are using a touchscreen only device, use the buttons on the screen. Do not use the mouse.





Press the space bar or touch the button below to continue.",0,touchscreen-example.gif,5c919a87707ed900018591e3,39,2022-02-12_16h56.59.584,lexical_decision_task_DD,2021.2.3,Win32,60.63545962,,,,,,,,,,,,,,,,,,,,,,,,,,,,,,,,,,,,,,,,,,,,,,,,,,,,,,,,,,,,,,,,,,,,,,,,,,,,,,,,,,,,,,
space,5.9841,0.206481481,-0.149074074,0,0,0,0,3,3,3,1,4,instructions,"It is very important that you respond as quickly and accurately as possible, as each letter string will only be on the screen for two seconds. If you do not respond within this time, the message 'Too slow!' will be displayed and the experiment will progress to the next letter string. The first 20 trials will be practice trials and you will receive feedback on your answers. 

Press the space bar or touch the button below to start the practice trials.",0,,5c919a87707ed900018591e3,39,2022-02-12_16h56.59.584,lexical_decision_task_DD,2021.2.3,Win32,60.63545962,,,,,,,,,,,,,,,,,,,,,,,,,,,,,,,,,,,,,,,,,,,,,,,,,,,,,,,,,,,,,,,,,,,,,,,,,,,,,,,,,,,,,,
,,,,,,,,,,,,,,,,,5c919a87707ed900018591e3,39,2022-02-12_16h56.59.584,lexical_decision_task_DD,2021.2.3,Win32,60.63545962,z,0,0.5849,,,,,,,,0.5849,0,0,0,0,2,1,1001,ALMOND,m,,,,,,,,,,,,,,,,,,,,,,,,,,,,,,,,,,,,,,,,,,,,,,,,,,,,,,,,,,,,,,,,,,
,,,,,,,,,,,,,,,,,5c919a87707ed900018591e3,39,2022-02-12_16h56.59.584,lexical_decision_task_DD,2021.2.3,Win32,60.63545962,z,1,0.735,,,,,,,,0.735,1,0,1,1,12,1,1001,SPRINY,z,,,,,,,,,,,,,,,,,,,,,,,,,,,,,,,,,,,,,,,,,,,,,,,,,,,,,,,,,,,,,,,,,,
,,,,,,,,,,,,,,,,,5c919a87707ed900018591e3,39,2022-02-12_16h56.59.584,lexical_decision_task_DD,2021.2.3,Win32,60.63545962,m,1,0.5078,,,,,,,,0.5078,1,0,2,2,1,1,1001,ADJUST,m,,,,,,,,,,,,,,,,,,,,,,,,,,,,,,,,,,,,,,,,,,,,,,,,,,,,,,,,,,,,,,,,,,
,,,,,,,,,,,,,,,,,5c919a87707ed900018591e3,39,2022-02-12_16h56.59.584,lexical_decision_task_DD,2021.2.3,Win32,60.63545962,z,1,0.6987,,,,,,,,0.6987,1,0,3,3,15,1,1001,WHAISE,z,,,,,,,,,,,,,,,,,,,,,,,,,,,,,,,,,,,,,,,,,,,,,,,,,,,,,,,,,,,,,,,,,,
,,,,,,,,,,,,,,,,,5c919a87707ed900018591e3,39,2022-02-12_16h56.59.584,lexical_decision_task_DD,2021.2.3,Win32,60.63545962,z,1,0.792,,,,,,,,0.792,1,0,4,4,13,1,1001,ROUPET,z,,,,,,,,,,,,,,,,,,,,,,,,,,,,,,,,,,,,,,,,,,,,,,,,,,,,,,,,,,,,,,,,,,
,,,,,,,,,,,,,,,,,5c919a87707ed900018591e3,39,2022-02-12_16h56.59.584,lexical_decision_task_DD,2021.2.3,Win32,60.63545962,m,1,0.5033,,,,,,,,0.5033,1,0,5,5,3,1,1001,MATRIX,m,,,,,,,,,,,,,,,,,,,,,,,,,,,,,,,,,,,,,,,,,,,,,,,,,,,,,,,,,,,,,,,,,,
,,,,,,,,,,,,,,,,,5c919a87707ed900018591e3,39,2022-02-12_16h56.59.584,lexical_decision_task_DD,2021.2.3,Win32,60.63545962,m,1,0.655,,,,,,,,0.655,1,0,6,6,7,1,1001,VOLUME,m,,,,,,,,,,,,,,,,,,,,,,,,,,,,,,,,,,,,,,,,,,,,,,,,,,,,,,,,,,,,,,,,,,
,,,,,,,,,,,,,,,,,5c919a87707ed900018591e3,39,2022-02-12_16h56.59.584,lexical_decision_task_DD,2021.2.3,Win32,60.63545962,m,1,0.5447,,,,,,,,0.5447,1,0,7,7,6,1,1001,ZOMBIE,m,,,,,,,,,,,,,,,,,,,,,,,,,,,,,,,,,,,,,,,,,,,,,,,,,,,,,,,,,,,,,,,,,,
,,,,,,,,,,,,,,,,,5c919a87707ed900018591e3,39,2022-02-12_16h56.59.584,lexical_decision_task_DD,2021.2.3,Win32,60.63545962,m,0,0.6829,,,,,,,,0.6829,0,0,8,8,10,1,1001,INLADE,z,,,,,,,,,,,,,,,,,,,,,,,,,,,,,,,,,,,,,,,,,,,,,,,,,,,,,,,,,,,,,,,,,,
,,,,,,,,,,,,,,,,,5c919a87707ed900018591e3,39,2022-02-12_16h56.59.584,lexical_decision_task_DD,2021.2.3,Win32,60.63545962,m,1,0.6129,,,,,,,,0.6129,1,0,9,9,0,1,1001,UTOPIA,m,,,,,,,,,,,,,,,,,,,,,,,,,,,,,,,,,,,,,,,,,,,,,,,,,,,,,,,,,,,,,,,,,,
,,,,,,,,,,,,,,,,,5c919a87707ed900018591e3,39,2022-02-12_16h56.59.584,lexical_decision_task_DD,2021.2.3,Win32,60.63545962,m,1,0.538,,,,,,,,0.538,1,0,10,10,4,1,1001,SQUEAK,m,,,,,,,,,,,,,,,,,,,,,,,,,,,,,,,,,,,,,,,,,,,,,,,,,,,,,,,,,,,,,,,,,,
,,,,,,,,,,,,,,,,,5c919a87707ed900018591e3,39,2022-02-12_16h56.59.584,lexical_decision_task_DD,2021.2.3,Win32,60.63545962,z,1,0.9564,,,,,,,,0.9564,1,0,11,11,8,1,1001,ASLERT,z,,,,,,,,,,,,,,,,,,,,,,,,,,,,,,,,,,,,,,,,,,,,,,,,,,,,,,,,,,,,,,,,,,
,,,,,,,,,,,,,,,,,5c919a87707ed900018591e3,39,2022-02-12_16h56.59.584,lexical_decision_task_DD,2021.2.3,Win32,60.63545962,z,1,0.9565,,,,,,,,0.9565,1,0,12,12,9,1,1001,FARINY,z,,,,,,,,,,,,,,,,,,,,,,,,,,,,,,,,,,,,,,,,,,,,,,,,,,,,,,,,,,,,,,,,,,
,,,,,,,,,,,,,,,,,5c919a87707ed900018591e3,39,2022-02-12_16h56.59.584,lexical_decision_task_DD,2021.2.3,Win32,60.63545962,z,1,0.6398,,,,,,,,0.6398,1,0,13,13,14,1,1001,THRALE,z,,,,,,,,,,,,,,,,,,,,,,,,,,,,,,,,,,,,,,,,,,,,,,,,,,,,,,,,,,,,,,,,,,
,,,,,,,,,,,,,,,,,5c919a87707ed900018591e3,39,2022-02-12_16h56.59.584,lexical_decision_task_DD,2021.2.3,Win32,60.63545962,m,1,0.5516,,,,,,,,0.5516,1,0,14,14,5,1,1001,OBTAIN,m,,,,,,,,,,,,,,,,,,,,,,,,,,,,,,,,,,,,,,,,,,,,,,,,,,,,,,,,,,,,,,,,,,
,,,,,,,,,,,,,,,,,5c919a87707ed900018591e3,39,2022-02-12_16h56.59.584,lexical_decision_task_DD,2021.2.3,Win32,60.63545962,z,1,0.6632,,,,,,,,0.6632,1,0,15,15,11,1,1001,RASHET,z,,,,,,,,,,,,,,,,,,,,,,,,,,,,,,,,,,,,,,,,,,,,,,,,,,,,,,,,,,,,,,,,,,
space,4.9037,0.206481481,-0.149074074,0,0,0,,,,,,1,end_of_practice,"You have completed the practice trials. During the experimental trials, you will not receive feedback. 
Before you begin, please ensure that you are in a comfortable and quiet location and will not be disturbed for about 15 minutes, as we cannot use your data if you do not complete all the trials. 
 When you are ready to start the experimental trials, please press space or touch the button below.",,,5c919a87707ed900018591e3,39,2022-02-12_16h56.59.584,lexical_decision_task_DD,2021.2.3,Win32,60.63545962,,,,,,,,,,,,,,,,,,,,,0,0,0,0,1,,,,,,,,,,,,,,,,,,,,,,,,,,,,,,,,,,,,,,,,,,,,,,,,,,,,,,,,,,,,,
,,,,,,,,,,,,,,,,,5c919a87707ed900018591e3,39,2022-02-12_16h56.59.584,lexical_decision_task_DD,2021.2.3,Win32,60.63545962,,,,,,,,,,,1.257,0,,,,,,,,,,,,,,m,0,1.257,,,,,,,,0.206481481,-0.149074074,0,0,0,,0,0,0,109,1,BURGE,HB,old,z,./images/BURGEHB.png,,,,,,,,,,,,,,,,,,,,,,,,,,,,,,,,,,,
,,,,,,,,,,,,,,,,,5c919a87707ed900018591e3,39,2022-02-12_16h56.59.584,lexical_decision_task_DD,2021.2.3,Win32,60.63545962,,,,,,,,,,,0.7616,1,,,,,,,,,,,,,,z,1,0.7616,,,,,,,,0.206481481,-0.149074074,0,0,0,,0,1,1,162,1,LEICH,C,old,z,./images/LEICH.png,,,,,,,,,,,,,,,,,,,,,,,,,,,,,,,,,,,
,,,,,,,,,,,,,,,,,5c919a87707ed900018591e3,39,2022-02-12_16h56.59.584,lexical_decision_task_DD,2021.2.3,Win32,60.63545962,,,,,,,,,,,0.6541,1,,,,,,,,,,,,,,z,1,0.6541,,,,,,,,0.206481481,-0.149074074,0,0,0,,0,2,2,107,1,FASKS,LB,old,z,./images/FASKSLB.png,,,,,,,,,,,,,,,,,,,,,,,,,,,,,,,,,,,
,,,,,,,,,,,,,,,,,5c919a87707ed900018591e3,39,2022-02-12_16h56.59.584,lexical_decision_task_DD,2021.2.3,Win32,60.63545962,,,,,,,,,,,0.7016,1,,,,,,,,,,,,,,z,1,0.7016,,,,,,,,0.206481481,-0.149074074,0,0,0,,0,3,3,156,1,HIXES,C,old,z,./images/HIXES.png,,,,,,,,,,,,,,,,,,,,,,,,,,,,,,,,,,,
,,,,,,,,,,,,,,,,,5c919a87707ed900018591e3,39,2022-02-12_16h56.59.584,lexical_decision_task_DD,2021.2.3,Win32,60.63545962,,,,,,,,,,,0.6267,1,,,,,,,,,,,,,,m,1,0.6267,,,,,,,,0.206481481,-0.149074074,0,0,0,,0,4,4,21,1,KIDNEY,C,old,m,./images/KIDNEY.png,,,,,,,,,,,,,,,,,,,,,,,,,,,,,,,,,,,
,,,,,,,,,,,,,,,,,5c919a87707ed900018591e3,39,2022-02-12_16h56.59.584,lexical_decision_task_DD,2021.2.3,Win32,60.63545962,,,,,,,,,,,0.5964,1,,,,,,,,,,,,,,m,1,0.5964,,,,,,,,0.206481481,-0.149074074,0,0,0,,0,5,5,65,1,FARMER,LB,old,m,./images/FARMERLB.png,,,,,,,,,,,,,,,,,,,,,,,,,,,,,,,,,,,
,,,,,,,,,,,,,,,,,5c919a87707ed900018591e3,39,2022-02-12_16h56.59.584,lexical_decision_task_DD,2021.2.3,Win32,60.63545962,,,,,,,,,,,0.8347,1,,,,,,,,,,,,,,m,1,0.8347,,,,,,,,0.206481481,-0.149074074,0,0,0,,0,6,6,73,1,SNACK,HB,old,m,./images/SNACKHB.png,,,,,,,,,,,,,,,,,,,,,,,,,,,,,,,,,,,
,,,,,,,,,,,,,,,,,5c919a87707ed900018591e3,39,2022-02-12_16h56.59.584,lexical_decision_task_DD,2021.2.3,Win32,60.63545962,,,,,,,,,,,0.6324,1,,,,,,,,,,,,,,m,1,0.6324,,,,,,,,0.206481481,-0.149074074,0,0,0,,0,7,7,56,1,PACKET,LB,old,m,./images/PACKETLB.png,,,,,,,,,,,,,,,,,,,,,,,,,,,,,,,,,,,
,,,,,,,,,,,,,,,,,5c919a87707ed900018591e3,39,2022-02-12_16h56.59.584,lexical_decision_task_DD,2021.2.3,Win32,60.63545962,,,,,,,,,,,0.8286,1,,,,,,,,,,,,,,z,1,0.8286,,,,,,,,0.206481481,-0.149074074,0,0,0,,0,8,8,112,1,MYING,HB,old,z,./images/MYINGHB.png,,,,,,,,,,,,,,,,,,,,,,,,,,,,,,,,,,,
,,,,,,,,,,,,,,,,,5c919a87707ed900018591e3,39,2022-02-12_16h56.59.584,lexical_decision_task_DD,2021.2.3,Win32,60.63545962,,,,,,,,,,,1.0802,1,,,,,,,,,,,,,,z,1,1.0802,,,,,,,,0.206481481,-0.149074074,0,0,0,,0,9,9,145,1,LAMEL,HB,old,z,./images/LAMELHB.png,,,,,,,,,,,,,,,,,,,,,,,,,,,,,,,,,,,
,,,,,,,,,,,,,,,,,5c919a87707ed900018591e3,39,2022-02-12_16h56.59.584,lexical_decision_task_DD,2021.2.3,Win32,60.63545962,,,,,,,,,,,0.7854,1,,,,,,,,,,,,,,z,1,0.7854,,,,,,,,0.206481481,-0.149074074,0,0,0,,0,10,10,113,1,LINEW,LB,old,z,./images/LINEWLB.png,,,,,,,,,,,,,,,,,,,,,,,,,,,,,,,,,,,
,,,,,,,,,,,,,,,,,5c919a87707ed900018591e3,39,2022-02-12_16h56.59.584,lexical_decision_task_DD,2021.2.3,Win32,60.63545962,,,,,,,,,,,1.1507,1,,,,,,,,,,,,,,z,1,1.1507,,,,,,,,0.206481481,-0.149074074,0,0,0,,0,11,11,148,1,JOMS,HB,old,z,./images/JOMSHB.png,,,,,,,,,,,,,,,,,,,,,,,,,,,,,,,,,,,
,,,,,,,,,,,,,,,,,5c919a87707ed900018591e3,39,2022-02-12_16h56.59.584,lexical_decision_task_DD,2021.2.3,Win32,60.63545962,,,,,,,,,,,0.8746,0,,,,,,,,,,,,,,m,0,0.8746,,,,,,,,0.206481481,-0.149074074,0,0,0,,0,12,12,85,1,CHULK,HB,old,z,./images/CHULKHB.png,,,,,,,,,,,,,,,,,,,,,,,,,,,,,,,,,,,
,,,,,,,,,,,,,,,,,5c919a87707ed900018591e3,39,2022-02-12_16h56.59.584,lexical_decision_task_DD,2021.2.3,Win32,60.63545962,,,,,,,,,,,0.9264,1,,,,,,,,,,,,,,m,1,0.9264,,,,,,,,0.206481481,-0.149074074,0,0,0,,0,13,13,54,1,TRIPOD,C,old,m,./images/TRIPOD.png,,,,,,,,,,,,,,,,,,,,,,,,,,,,,,,,,,,
,,,,,,,,,,,,,,,,,5c919a87707ed900018591e3,39,2022-02-12_16h56.59.584,lexical_decision_task_DD,2021.2.3,Win32,60.63545962,,,,,,,,,,,0.585,1,,,,,,,,,,,,,,m,1,0.585,,,,,,,,0.206481481,-0.149074074,0,0,0,,0,14,14,63,1,MIRROR,C,old,m,./images/MIRROR.png,,,,,,,,,,,,,,,,,,,,,,,,,,,,,,,,,,,
,,,,,,,,,,,,,,,,,5c919a87707ed900018591e3,39,2022-02-12_16h56.59.584,lexical_decision_task_DD,2021.2.3,Win32,60.63545962,,,,,,,,,,,0.6615,1,,,,,,,,,,,,,,m,1,0.6615,,,,,,,,0.206481481,-0.149074074,0,0,0,,0,15,15,28,1,FALCON,HB,old,m,./images/FALCONHB.png,,,,,,,,,,,,,,,,,,,,,,,,,,,,,,,,,,,
,,,,,,,,,,,,,,,,,5c919a87707ed900018591e3,39,2022-02-12_16h56.59.584,lexical_decision_task_DD,2021.2.3,Win32,60.63545962,,,,,,,,,,,0.7323,1,,,,,,,,,,,,,,z,1,0.7323,,,,,,,,0.206481481,-0.149074074,0,0,0,,0,16,16,89,1,DRIEK,LB,old,z,./images/DRIEKLB.png,,,,,,,,,,,,,,,,,,,,,,,,,,,,,,,,,,,
,,,,,,,,,,,,,,,,,5c919a87707ed900018591e3,39,2022-02-12_16h56.59.584,lexical_decision_task_DD,2021.2.3,Win32,60.63545962,,,,,,,,,,,0.7441,1,,,,,,,,,,,,,,m,1,0.7441,,,,,,,,0.206481481,-0.149074074,0,0,0,,0,17,17,0,1,TOMATO,C,old,m,./images/TOMATO.png,,,,,,,,,,,,,,,,,,,,,,,,,,,,,,,,,,,
,,,,,,,,,,,,,,,,,5c919a87707ed900018591e3,39,2022-02-12_16h56.59.584,lexical_decision_task_DD,2021.2.3,Win32,60.63545962,,,,,,,,,,,0.6093,1,,,,,,,,,,,,,,m,1,0.6093,,,,,,,,0.206481481,-0.149074074,0,0,0,,0,18,18,23,1,WALRUS,LB,old,m,./images/WALRUSLB.png,,,,,,,,,,,,,,,,,,,,,,,,,,,,,,,,,,,
,,,,,,,,,,,,,,,,,5c919a87707ed900018591e3,39,2022-02-12_16h56.59.584,lexical_decision_task_DD,2021.2.3,Win32,60.63545962,,,,,,,,,,,0.5509,1,,,,,,,,,,,,,,m,1,0.5509,,,,,,,,0.206481481,-0.149074074,0,0,0,,0,19,19,5,1,PASTA,LB,old,m,./images/PASTALB.png,,,,,,,,,,,,,,,,,,,,,,,,,,,,,,,,,,,
,,,,,,,,,,,,,,,,,5c919a87707ed900018591e3,39,2022-02-12_16h56.59.584,lexical_decision_task_DD,2021.2.3,Win32,60.63545962,,,,,,,,,,,0.6677,1,,,,,,,,,,,,,,z,1,0.6677,,,,,,,,0.206481481,-0.149074074,0,0,0,,0,20,20,127,1,NINDY,HB,old,z,./images/NINDYHB.png,,,,,,,,,,,,,,,,,,,,,,,,,,,,,,,,,,,
,,,,,,,,,,,,,,,,,5c919a87707ed900018591e3,39,2022-02-12_16h56.59.584,lexical_decision_task_DD,2021.2.3,Win32,60.63545962,,,,,,,,,,,0.6529,1,,,,,,,,,,,,,,z,1,0.6529,,,,,,,,0.206481481,-0.149074074,0,0,0,,0,21,21,87,1,TRING,C,old,z,./images/TRING.png,,,,,,,,,,,,,,,,,,,,,,,,,,,,,,,,,,,
,,,,,,,,,,,,,,,,,5c919a87707ed900018591e3,39,2022-02-12_16h56.59.584,lexical_decision_task_DD,2021.2.3,Win32,60.63545962,,,,,,,,,,,0.7947,1,,,,,,,,,,,,,,z,1,0.7947,,,,,,,,0.206481481,-0.149074074,0,0,0,,0,22,22,160,1,VEETS,HB,old,z,./images/VEETSHB.png,,,,,,,,,,,,,,,,,,,,,,,,,,,,,,,,,,,
,,,,,,,,,,,,,,,,,5c919a87707ed900018591e3,39,2022-02-12_16h56.59.584,lexical_decision_task_DD,2021.2.3,Win32,60.63545962,,,,,,,,,,,0.6278,1,,,,,,,,,,,,,,m,1,0.6278,,,,,,,,0.206481481,-0.149074074,0,0,0,,0,23,23,53,1,CARPET,LB,old,m,./images/CARPETLB.png,,,,,,,,,,,,,,,,,,,,,,,,,,,,,,,,,,,
,,,,,,,,,,,,,,,,,5c919a87707ed900018591e3,39,2022-02-12_16h56.59.584,lexical_decision_task_DD,2021.2.3,Win32,60.63545962,,,,,,,,,,,0.6135,1,,,,,,,,,,,,,,z,1,0.6135,,,,,,,,0.206481481,-0.149074074,0,0,0,,0,24,24,152,1,FRAIN,LB,old,z,./images/FRAINLB.png,,,,,,,,,,,,,,,,,,,,,,,,,,,,,,,,,,,
,,,,,,,,,,,,,,,,,5c919a87707ed900018591e3,39,2022-02-12_16h56.59.584,lexical_decision_task_DD,2021.2.3,Win32,60.63545962,,,,,,,,,,,0.5946,1,,,,,,,,,,,,,,z,1,0.5946,,,,,,,,0.206481481,-0.149074074,0,0,0,,0,25,25,88,1,GLUSH,HB,old,z,./images/GLUSHHB.png,,,,,,,,,,,,,,,,,,,,,,,,,,,,,,,,,,,
,,,,,,,,,,,,,,,,,5c919a87707ed900018591e3,39,2022-02-12_16h56.59.584,lexical_decision_task_DD,2021.2.3,Win32,60.63545962,,,,,,,,,,,0.61,1,,,,,,,,,,,,,,z,1,0.61,,,,,,,,0.206481481,-0.149074074,0,0,0,,0,26,26,129,1,PRANS,C,old,z,./images/PRANS.png,,,,,,,,,,,,,,,,,,,,,,,,,,,,,,,,,,,
,,,,,,,,,,,,,,,,,5c919a87707ed900018591e3,39,2022-02-12_16h56.59.584,lexical_decision_task_DD,2021.2.3,Win32,60.63545962,,,,,,,,,,,0.8365,0,,,,,,,,,,,,,,z,0,0.8365,,,,,,,,0.206481481,-0.149074074,0,0,0,,0,27,27,31,1,QUILL,HB,old,m,./images/QUILLHB.png,,,,,,,,,,,,,,,,,,,,,,,,,,,,,,,,,,,
,,,,,,,,,,,,,,,,,5c919a87707ed900018591e3,39,2022-02-12_16h56.59.584,lexical_decision_task_DD,2021.2.3,Win32,60.63545962,,,,,,,,,,,0.5789,1,,,,,,,,,,,,,,m,1,0.5789,,,,,,,,0.206481481,-0.149074074,0,0,0,,0,28,28,14,1,PICKLE,LB,old,m,./images/PICKLELB.png,,,,,,,,,,,,,,,,,,,,,,,,,,,,,,,,,,,
,,,,,,,,,,,,,,,,,5c919a87707ed900018591e3,39,2022-02-12_16h56.59.584,lexical_decision_task_DD,2021.2.3,Win32,60.63545962,,,,,,,,,,,1.0282,1,,,,,,,,,,,,,,m,1,1.0282,,,,,,,,0.206481481,-0.149074074,0,0,0,,0,29,29,7,1,PAINT,HB,old,m,./images/PAINTHB.png,,,,,,,,,,,,,,,,,,,,,,,,,,,,,,,,,,,
,,,,,,,,,,,,,,,,,5c919a87707ed900018591e3,39,2022-02-12_16h56.59.584,lexical_decision_task_DD,2021.2.3,Win32,60.63545962,,,,,,,,,,,1.2156,1,,,,,,,,,,,,,,z,1,1.2156,,,,,,,,0.206481481,-0.149074074,0,0,0,,0,30,30,100,1,DRIBS,HB,old,z,./images/DRIBSHB.png,,,,,,,,,,,,,,,,,,,,,,,,,,,,,,,,,,,
,,,,,,,,,,,,,,,,,5c919a87707ed900018591e3,39,2022-02-12_16h56.59.584,lexical_decision_task_DD,2021.2.3,Win32,60.63545962,,,,,,,,,,,0.9737,1,,,,,,,,,,,,,,m,1,0.9737,,,,,,,,0.206481481,-0.149074074,0,0,0,,0,31,31,22,1,MELON,HB,old,m,./images/MELONHB.png,,,,,,,,,,,,,,,,,,,,,,,,,,,,,,,,,,,
,,,,,,,,,,,,,,,,,5c919a87707ed900018591e3,39,2022-02-12_16h56.59.584,lexical_decision_task_DD,2021.2.3,Win32,60.63545962,,,,,,,,,,,0.5372,1,,,,,,,,,,,,,,m,1,0.5372,,,,,,,,0.206481481,-0.149074074,0,0,0,,0,32,32,36,1,THROAT,C,old,m,./images/THROAT.png,,,,,,,,,,,,,,,,,,,,,,,,,,,,,,,,,,,
,,,,,,,,,,,,,,,,,5c919a87707ed900018591e3,39,2022-02-12_16h56.59.584,lexical_decision_task_DD,2021.2.3,Win32,60.63545962,,,,,,,,,,,0.5493,1,,,,,,,,,,,,,,m,1,0.5493,,,,,,,,0.206481481,-0.149074074,0,0,0,,0,33,33,33,1,MAGGOT,C,old,m,./images/MAGGOT.png,,,,,,,,,,,,,,,,,,,,,,,,,,,,,,,,,,,
,,,,,,,,,,,,,,,,,5c919a87707ed900018591e3,39,2022-02-12_16h56.59.584,lexical_decision_task_DD,2021.2.3,Win32,60.63545962,,,,,,,,,,,0.497,1,,,,,,,,,,,,,,m,1,0.497,,,,,,,,0.206481481,-0.149074074,0,0,0,,0,34,34,45,1,KITTEN,C,old,m,./images/KITTEN.png,,,,,,,,,,,,,,,,,,,,,,,,,,,,,,,,,,,
,,,,,,,,,,,,,,,,,5c919a87707ed900018591e3,39,2022-02-12_16h56.59.584,lexical_decision_task_DD,2021.2.3,Win32,60.63545962,,,,,,,,,,,0.6785,1,,,,,,,,,,,,,,m,1,0.6785,,,,,,,,0.206481481,-0.149074074,0,0,0,,0,35,35,24,1,SCREW,C,old,m,./images/SCREW.png,,,,,,,,,,,,,,,,,,,,,,,,,,,,,,,,,,,
,,,,,,,,,,,,,,,,,5c919a87707ed900018591e3,39,2022-02-12_16h56.59.584,lexical_decision_task_DD,2021.2.3,Win32,60.63545962,,,,,,,,,,,0.6372,1,,,,,,,,,,,,,,z,1,0.6372,,,,,,,,0.206481481,-0.149074074,0,0,0,,0,36,36,101,1,GLEET,LB,old,z,./images/GLEETLB.png,,,,,,,,,,,,,,,,,,,,,,,,,,,,,,,,,,,
,,,,,,,,,,,,,,,,,5c919a87707ed900018591e3,39,2022-02-12_16h56.59.584,lexical_decision_task_DD,2021.2.3,Win32,60.63545962,,,,,,,,,,,0.6011,1,,,,,,,,,,,,,,m,1,0.6011,,,,,,,,0.206481481,-0.149074074,0,0,0,,0,37,37,42,1,FOLDER,C,old,m,./images/FOLDER.png,,,,,,,,,,,,,,,,,,,,,,,,,,,,,,,,,,,
,,,,,,,,,,,,,,,,,5c919a87707ed900018591e3,39,2022-02-12_16h56.59.584,lexical_decision_task_DD,2021.2.3,Win32,60.63545962,,,,,,,,,,,0.6674,0,,,,,,,,,,,,,,z,0,0.6674,,,,,,,,0.206481481,-0.149074074,0,0,0,,0,38,38,58,1,BABOON,HB,old,m,./images/BABOONHB.png,,,,,,,,,,,,,,,,,,,,,,,,,,,,,,,,,,,
,,,,,,,,,,,,,,,,,5c919a87707ed900018591e3,39,2022-02-12_16h56.59.584,lexical_decision_task_DD,2021.2.3,Win32,60.63545962,,,,,,,,,,,0.5386,1,,,,,,,,,,,,,,m,1,0.5386,,,,,,,,0.206481481,-0.149074074,0,0,0,,0,39,39,26,1,SMOKER,LB,old,m,./images/SMOKERLB.png,,,,,,,,,,,,,,,,,,,,,,,,,,,,,,,,,,,
,,,,,,,,,,,,,,,,,5c919a87707ed900018591e3,39,2022-02-12_16h56.59.584,lexical_decision_task_DD,2021.2.3,Win32,60.63545962,,,,,,,,,,,0.5299,1,,,,,,,,,,,,,,m,1,0.5299,,,,,,,,0.206481481,-0.149074074,0,0,0,,0,40,40,71,1,PIMPLE,LB,old,m,./images/PIMPLELB.png,,,,,,,,,,,,,,,,,,,,,,,,,,,,,,,,,,,
,,,,,,,,,,,,,,,,,5c919a87707ed900018591e3,39,2022-02-12_16h56.59.584,lexical_decision_task_DD,2021.2.3,Win32,60.63545962,,,,,,,,,,,0.7109,1,,,,,,,,,,,,,,z,1,0.7109,,,,,,,,0.206481481,-0.149074074,0,0,0,space,0,41,41,161,1,BLAPS,LB,old,z,./images/BLAPSLB.png,30.8052,,,,,,,,,,,,,,,,,,,,,,,,,,,,,,,,,,
,,,,,,,,,,,,,,,,,5c919a87707ed900018591e3,39,2022-02-12_16h56.59.584,lexical_decision_task_DD,2021.2.3,Win32,60.63545962,,,,,,,,,,,0.8692,1,,,,,,,,,,,,,,z,1,0.8692,,,,,,,,0.206481481,-0.149074074,0,0,0,,0,42,42,157,1,INLER,HB,old,z,./images/INLERHB.png,,,,,,,,,,,,,,,,,,,,,,,,,,,,,,,,,,,
,,,,,,,,,,,,,,,,,5c919a87707ed900018591e3,39,2022-02-12_16h56.59.584,lexical_decision_task_DD,2021.2.3,Win32,60.63545962,,,,,,,,,,,0.9541,1,,,,,,,,,,,,,,m,1,0.9541,,,,,,,,0.206481481,-0.149074074,0,0,0,,0,43,43,67,1,SAILOR,HB,old,m,./images/SAILORHB.png,,,,,,,,,,,,,,,,,,,,,,,,,,,,,,,,,,,
,,,,,,,,,,,,,,,,,5c919a87707ed900018591e3,39,2022-02-12_16h56.59.584,lexical_decision_task_DD,2021.2.3,Win32,60.63545962,,,,,,,,,,,0.5183,1,,,,,,,,,,,,,,m,1,0.5183,,,,,,,,0.206481481,-0.149074074,0,0,0,,0,44,44,51,1,ONION,C,old,m,./images/ONION.png,,,,,,,,,,,,,,,,,,,,,,,,,,,,,,,,,,,
,,,,,,,,,,,,,,,,,5c919a87707ed900018591e3,39,2022-02-12_16h56.59.584,lexical_decision_task_DD,2021.2.3,Win32,60.63545962,,,,,,,,,,,0.7123,1,,,,,,,,,,,,,,m,1,0.7123,,,,,,,,0.206481481,-0.149074074,0,0,0,,0,45,45,10,1,BELLY,HB,old,m,./images/BELLYHB.png,,,,,,,,,,,,,,,,,,,,,,,,,,,,,,,,,,,
,,,,,,,,,,,,,,,,,5c919a87707ed900018591e3,39,2022-02-12_16h56.59.584,lexical_decision_task_DD,2021.2.3,Win32,60.63545962,,,,,,,,,,,0.5534,1,,,,,,,,,,,,,,m,1,0.5534,,,,,,,,0.206481481,-0.149074074,0,0,0,,0,46,46,4,1,MUSCLE,HB,old,m,./images/MUSCLEHB.png,,,,,,,,,,,,,,,,,,,,,,,,,,,,,,,,,,,
,,,,,,,,,,,,,,,,,5c919a87707ed900018591e3,39,2022-02-12_16h56.59.584,lexical_decision_task_DD,2021.2.3,Win32,60.63545962,,,,,,,,,,,0.5141,1,,,,,,,,,,,,,,m,1,0.5141,,,,,,,,0.206481481,-0.149074074,0,0,0,,0,47,47,57,1,MOOSE,C,old,m,./images/MOOSE.png,,,,,,,,,,,,,,,,,,,,,,,,,,,,,,,,,,,
,,,,,,,,,,,,,,,,,5c919a87707ed900018591e3,39,2022-02-12_16h56.59.584,lexical_decision_task_DD,2021.2.3,Win32,60.63545962,,,,,,,,,,,0.7463,0,,,,,,,,,,,,,,z,0,0.7463,,,,,,,,0.206481481,-0.149074074,0,0,0,,0,48,48,25,1,WRIST,HB,old,m,./images/WRISTHB.png,,,,,,,,,,,,,,,,,,,,,,,,,,,,,,,,,,,
,,,,,,,,,,,,,,,,,5c919a87707ed900018591e3,39,2022-02-12_16h56.59.584,lexical_decision_task_DD,2021.2.3,Win32,60.63545962,,,,,,,,,,,0.6612,1,,,,,,,,,,,,,,z,1,0.6612,,,,,,,,0.206481481,-0.149074074,0,0,0,,0,49,49,122,1,BLOOT,LB,old,z,./images/BLOOTLB.png,,,,,,,,,,,,,,,,,,,,,,,,,,,,,,,,,,,
,,,,,,,,,,,,,,,,,5c919a87707ed900018591e3,39,2022-02-12_16h56.59.584,lexical_decision_task_DD,2021.2.3,Win32,60.63545962,,,,,,,,,,,0.8289,1,,,,,,,,,,,,,,z,1,0.8289,,,,,,,,0.206481481,-0.149074074,0,0,0,,0,50,50,165,1,TROWN,C,old,z,./images/TROWN.png,,,,,,,,,,,,,,,,,,,,,,,,,,,,,,,,,,,
,,,,,,,,,,,,,,,,,5c919a87707ed900018591e3,39,2022-02-12_16h56.59.584,lexical_decision_task_DD,2021.2.3,Win32,60.63545962,,,,,,,,,,,0.5879,1,,,,,,,,,,,,,,z,1,0.5879,,,,,,,,0.206481481,-0.149074074,0,0,0,,0,51,51,141,1,PLEET,C,old,z,./images/PLEET.png,,,,,,,,,,,,,,,,,,,,,,,,,,,,,,,,,,,
,,,,,,,,,,,,,,,,,5c919a87707ed900018591e3,39,2022-02-12_16h56.59.584,lexical_decision_task_DD,2021.2.3,Win32,60.63545962,,,,,,,,,,,0.7116,1,,,,,,,,,,,,,,z,1,0.7116,,,,,,,,0.206481481,-0.149074074,0,0,0,,0,52,52,140,1,DOVET,LB,old,z,./images/DOVETLB.png,,,,,,,,,,,,,,,,,,,,,,,,,,,,,,,,,,,
,,,,,,,,,,,,,,,,,5c919a87707ed900018591e3,39,2022-02-12_16h56.59.584,lexical_decision_task_DD,2021.2.3,Win32,60.63545962,,,,,,,,,,,0.8867,1,,,,,,,,,,,,,,z,1,0.8867,,,,,,,,0.206481481,-0.149074074,0,0,0,,0,53,53,118,1,BAVEL,HB,old,z,./images/BAVELHB.png,,,,,,,,,,,,,,,,,,,,,,,,,,,,,,,,,,,
,,,,,,,,,,,,,,,,,5c919a87707ed900018591e3,39,2022-02-12_16h56.59.584,lexical_decision_task_DD,2021.2.3,Win32,60.63545962,,,,,,,,,,,0.6115,1,,,,,,,,,,,,,,z,1,0.6115,,,,,,,,0.206481481,-0.149074074,0,0,0,,0,54,54,84,1,HAXES,C,old,z,./images/HAXES.png,,,,,,,,,,,,,,,,,,,,,,,,,,,,,,,,,,,
,,,,,,,,,,,,,,,,,5c919a87707ed900018591e3,39,2022-02-12_16h56.59.584,lexical_decision_task_DD,2021.2.3,Win32,60.63545962,,,,,,,,,,,0.643,1,,,,,,,,,,,,,,z,1,0.643,,,,,,,,0.206481481,-0.149074074,0,0,0,,0,55,55,120,1,RINED,C,old,z,./images/RINED.png,,,,,,,,,,,,,,,,,,,,,,,,,,,,,,,,,,,
,,,,,,,,,,,,,,,,,5c919a87707ed900018591e3,39,2022-02-12_16h56.59.584,lexical_decision_task_DD,2021.2.3,Win32,60.63545962,,,,,,,,,,,0.9122,1,,,,,,,,,,,,,,z,1,0.9122,,,,,,,,0.206481481,-0.149074074,0,0,0,,0,56,56,133,1,POWDY,HB,old,z,./images/POWDYHB.png,,,,,,,,,,,,,,,,,,,,,,,,,,,,,,,,,,,
,,,,,,,,,,,,,,,,,5c919a87707ed900018591e3,39,2022-02-12_16h56.59.584,lexical_decision_task_DD,2021.2.3,Win32,60.63545962,,,,,,,,,,,0.5166,1,,,,,,,,,,,,,,z,1,0.5166,,,,,,,,0.206481481,-0.149074074,0,0,0,,0,57,57,132,1,SCIFF,C,old,z,./images/SCIFF.png,,,,,,,,,,,,,,,,,,,,,,,,,,,,,,,,,,,
,,,,,,,,,,,,,,,,,5c919a87707ed900018591e3,39,2022-02-12_16h56.59.584,lexical_decision_task_DD,2021.2.3,Win32,60.63545962,,,,,,,,,,,0.6177,1,,,,,,,,,,,,,,m,1,0.6177,,,,,,,,0.206481481,-0.149074074,0,0,0,,0,58,58,3,1,FINGER,C,old,m,./images/FINGER.png,,,,,,,,,,,,,,,,,,,,,,,,,,,,,,,,,,,
,,,,,,,,,,,,,,,,,5c919a87707ed900018591e3,39,2022-02-12_16h56.59.584,lexical_decision_task_DD,2021.2.3,Win32,60.63545962,,,,,,,,,,,0.6262,1,,,,,,,,,,,,,,z,1,0.6262,,,,,,,,0.206481481,-0.149074074,0,0,0,,0,59,59,126,1,GUELS,C,old,z,./images/GUELS.png,,,,,,,,,,,,,,,,,,,,,,,,,,,,,,,,,,,
,,,,,,,,,,,,,,,,,5c919a87707ed900018591e3,39,2022-02-12_16h56.59.584,lexical_decision_task_DD,2021.2.3,Win32,60.63545962,,,,,,,,,,,0.5305,1,,,,,,,,,,,,,,m,1,0.5305,,,,,,,,0.206481481,-0.149074074,0,0,0,,0,60,60,32,1,BARREL,LB,old,m,./images/BARRELLB.png,,,,,,,,,,,,,,,,,,,,,,,,,,,,,,,,,,,
,,,,,,,,,,,,,,,,,5c919a87707ed900018591e3,39,2022-02-12_16h56.59.584,lexical_decision_task_DD,2021.2.3,Win32,60.63545962,,,,,,,,,,,0.5335,1,,,,,,,,,,,,,,m,1,0.5335,,,,,,,,0.206481481,-0.149074074,0,0,0,,0,61,61,18,1,JAGUAR,C,old,m,./images/JAGUAR.png,,,,,,,,,,,,,,,,,,,,,,,,,,,,,,,,,,,
,,,,,,,,,,,,,,,,,5c919a87707ed900018591e3,39,2022-02-12_16h56.59.584,lexical_decision_task_DD,2021.2.3,Win32,60.63545962,,,,,,,,,,,0.6223,1,,,,,,,,,,,,,,z,1,0.6223,,,,,,,,0.206481481,-0.149074074,0,0,0,,0,62,62,96,1,KEAMS,C,old,z,./images/KEAMS.png,,,,,,,,,,,,,,,,,,,,,,,,,,,,,,,,,,,
,,,,,,,,,,,,,,,,,5c919a87707ed900018591e3,39,2022-02-12_16h56.59.584,lexical_decision_task_DD,2021.2.3,Win32,60.63545962,,,,,,,,,,,0.5351,1,,,,,,,,,,,,,,m,1,0.5351,,,,,,,,0.206481481,-0.149074074,0,0,0,,0,63,63,60,1,TWINS,C,old,m,./images/TWINS.png,,,,,,,,,,,,,,,,,,,,,,,,,,,,,,,,,,,
,,,,,,,,,,,,,,,,,5c919a87707ed900018591e3,39,2022-02-12_16h56.59.584,lexical_decision_task_DD,2021.2.3,Win32,60.63545962,,,,,,,,,,,0.6547,1,,,,,,,,,,,,,,z,1,0.6547,,,,,,,,0.206481481,-0.149074074,0,0,0,,0,64,64,93,1,SMONE,C,old,z,./images/SMONE.png,,,,,,,,,,,,,,,,,,,,,,,,,,,,,,,,,,,
,,,,,,,,,,,,,,,,,5c919a87707ed900018591e3,39,2022-02-12_16h56.59.584,lexical_decision_task_DD,2021.2.3,Win32,60.63545962,,,,,,,,,,,0.8779,1,,,,,,,,,,,,,,z,1,0.8779,,,,,,,,0.206481481,-0.149074074,0,0,0,,0,65,65,115,1,MAWNS,HB,old,z,./images/MAWNSHB.png,,,,,,,,,,,,,,,,,,,,,,,,,,,,,,,,,,,
,,,,,,,,,,,,,,,,,5c919a87707ed900018591e3,39,2022-02-12_16h56.59.584,lexical_decision_task_DD,2021.2.3,Win32,60.63545962,,,,,,,,,,,0.6021,1,,,,,,,,,,,,,,z,1,0.6021,,,,,,,,0.206481481,-0.149074074,0,0,0,,0,66,66,86,1,AIFED,LB,old,z,./images/AIFEDLB.png,,,,,,,,,,,,,,,,,,,,,,,,,,,,,,,,,,,
,,,,,,,,,,,,,,,,,5c919a87707ed900018591e3,39,2022-02-12_16h56.59.584,lexical_decision_task_DD,2021.2.3,Win32,60.63545962,,,,,,,,,,,0.5631,1,,,,,,,,,,,,,,m,1,0.5631,,,,,,,,0.206481481,-0.149074074,0,0,0,,0,67,67,15,1,GREASE,C,old,m,./images/GREASE.png,,,,,,,,,,,,,,,,,,,,,,,,,,,,,,,,,,,
,,,,,,,,,,,,,,,,,5c919a87707ed900018591e3,39,2022-02-12_16h56.59.584,lexical_decision_task_DD,2021.2.3,Win32,60.63545962,,,,,,,,,,,0.7785,1,,,,,,,,,,,,,,m,1,0.7785,,,,,,,,0.206481481,-0.149074074,0,0,0,,0,68,68,1,1,PLANK,HB,old,m,./images/PLANKHB.png,,,,,,,,,,,,,,,,,,,,,,,,,,,,,,,,,,,
,,,,,,,,,,,,,,,,,5c919a87707ed900018591e3,39,2022-02-12_16h56.59.584,lexical_decision_task_DD,2021.2.3,Win32,60.63545962,,,,,,,,,,,0.6109,1,,,,,,,,,,,,,,m,1,0.6109,,,,,,,,0.206481481,-0.149074074,0,0,0,,0,69,69,35,1,PEACH,LB,old,m,./images/PEACHLB.png,,,,,,,,,,,,,,,,,,,,,,,,,,,,,,,,,,,
,,,,,,,,,,,,,,,,,5c919a87707ed900018591e3,39,2022-02-12_16h56.59.584,lexical_decision_task_DD,2021.2.3,Win32,60.63545962,,,,,,,,,,,0.5536,1,,,,,,,,,,,,,,m,1,0.5536,,,,,,,,0.206481481,-0.149074074,0,0,0,,0,70,70,9,1,RHINO,C,old,m,./images/RHINO.png,,,,,,,,,,,,,,,,,,,,,,,,,,,,,,,,,,,
,,,,,,,,,,,,,,,,,5c919a87707ed900018591e3,39,2022-02-12_16h56.59.584,lexical_decision_task_DD,2021.2.3,Win32,60.63545962,,,,,,,,,,,0.5199,1,,,,,,,,,,,,,,m,1,0.5199,,,,,,,,0.206481481,-0.149074074,0,0,0,,0,71,71,2,1,BEARD,LB,old,m,./images/BEARDLB.png,,,,,,,,,,,,,,,,,,,,,,,,,,,,,,,,,,,
,,,,,,,,,,,,,,,,,5c919a87707ed900018591e3,39,2022-02-12_16h56.59.584,lexical_decision_task_DD,2021.2.3,Win32,60.63545962,,,,,,,,,,,0.768,0,,,,,,,,,,,,,,m,0,0.768,,,,,,,,0.206481481,-0.149074074,0,0,0,,0,72,72,142,1,PLASK,HB,old,z,./images/PLASKHB.png,,,,,,,,,,,,,,,,,,,,,,,,,,,,,,,,,,,
,,,,,,,,,,,,,,,,,5c919a87707ed900018591e3,39,2022-02-12_16h56.59.584,lexical_decision_task_DD,2021.2.3,Win32,60.63545962,,,,,,,,,,,0.5031,1,,,,,,,,,,,,,,m,1,0.5031,,,,,,,,0.206481481,-0.149074074,0,0,0,,0,73,73,47,1,BERRY,LB,old,m,./images/BERRYLB.png,,,,,,,,,,,,,,,,,,,,,,,,,,,,,,,,,,,
,,,,,,,,,,,,,,,,,5c919a87707ed900018591e3,39,2022-02-12_16h56.59.584,lexical_decision_task_DD,2021.2.3,Win32,60.63545962,,,,,,,,,,,0.4944,1,,,,,,,,,,,,,,m,1,0.4944,,,,,,,,0.206481481,-0.149074074,0,0,0,,0,74,74,38,1,LADDER,LB,old,m,./images/LADDERLB.png,,,,,,,,,,,,,,,,,,,,,,,,,,,,,,,,,,,
,,,,,,,,,,,,,,,,,5c919a87707ed900018591e3,39,2022-02-12_16h56.59.584,lexical_decision_task_DD,2021.2.3,Win32,60.63545962,,,,,,,,,,,0.6799,1,,,,,,,,,,,,,,m,1,0.6799,,,,,,,,0.206481481,-0.149074074,0,0,0,,0,75,75,37,1,BIRTH,HB,old,m,./images/BIRTHHB.png,,,,,,,,,,,,,,,,,,,,,,,,,,,,,,,,,,,
,,,,,,,,,,,,,,,,,5c919a87707ed900018591e3,39,2022-02-12_16h56.59.584,lexical_decision_task_DD,2021.2.3,Win32,60.63545962,,,,,,,,,,,0.4779,1,,,,,,,,,,,,,,m,1,0.4779,,,,,,,,0.206481481,-0.149074074,0,0,0,,0,76,76,75,1,GRAIN,C,old,m,./images/GRAIN.png,,,,,,,,,,,,,,,,,,,,,,,,,,,,,,,,,,,
,,,,,,,,,,,,,,,,,5c919a87707ed900018591e3,39,2022-02-12_16h56.59.584,lexical_decision_task_DD,2021.2.3,Win32,60.63545962,,,,,,,,,,,0.7275,1,,,,,,,,,,,,,,z,1,0.7275,,,,,,,,0.206481481,-0.149074074,0,0,0,,0,77,77,110,1,CRUNK,LB,old,z,./images/CRUNKLB.png,,,,,,,,,,,,,,,,,,,,,,,,,,,,,,,,,,,
,,,,,,,,,,,,,,,,,5c919a87707ed900018591e3,39,2022-02-12_16h56.59.584,lexical_decision_task_DD,2021.2.3,Win32,60.63545962,,,,,,,,,,,0.7381,1,,,,,,,,,,,,,,z,1,0.7381,,,,,,,,0.206481481,-0.149074074,0,0,0,,0,78,78,153,1,CLUPS,C,old,z,./images/CLUPS.png,,,,,,,,,,,,,,,,,,,,,,,,,,,,,,,,,,,
,,,,,,,,,,,,,,,,,5c919a87707ed900018591e3,39,2022-02-12_16h56.59.584,lexical_decision_task_DD,2021.2.3,Win32,60.63545962,,,,,,,,,,,0.771,1,,,,,,,,,,,,,,z,1,0.771,,,,,,,,0.206481481,-0.149074074,0,0,0,,0,79,79,117,1,STEEG,C,old,z,./images/STEEG.png,,,,,,,,,,,,,,,,,,,,,,,,,,,,,,,,,,,
,,,,,,,,,,,,,,,,,5c919a87707ed900018591e3,39,2022-02-12_16h56.59.584,lexical_decision_task_DD,2021.2.3,Win32,60.63545962,,,,,,,,,,,0.7206,1,,,,,,,,,,,,,,z,1,0.7206,,,,,,,,0.206481481,-0.149074074,0,0,0,,0,80,80,146,1,MOOST,LB,old,z,./images/MOOSTLB.png,,,,,,,,,,,,,,,,,,,,,,,,,,,,,,,,,,,
,,,,,,,,,,,,,,,,,5c919a87707ed900018591e3,39,2022-02-12_16h56.59.584,lexical_decision_task_DD,2021.2.3,Win32,60.63545962,,,,,,,,,,,0.6832,1,,,,,,,,,,,,,,m,1,0.6832,,,,,,,,0.206481481,-0.149074074,0,0,0,,0,81,81,55,1,MUFFIN,HB,old,m,./images/MUFFINHB.png,,,,,,,,,,,,,,,,,,,,,,,,,,,,,,,,,,,
,,,,,,,,,,,,,,,,,5c919a87707ed900018591e3,39,2022-02-12_16h56.59.584,lexical_decision_task_DD,2021.2.3,Win32,60.63545962,,,,,,,,,,,0.6838,1,,,,,,,,,,,,,,m,1,0.6838,,,,,,,,0.206481481,-0.149074074,0,0,0,,0,82,82,79,1,CRUST,HB,old,m,./images/CRUSTHB.png,,,,,,,,,,,,,,,,,,,,,,,,,,,,,,,,,,,
,,,,,,,,,,,,,,,,,5c919a87707ed900018591e3,39,2022-02-12_16h56.59.584,lexical_decision_task_DD,2021.2.3,Win32,60.63545962,,,,,,,,,,,0.6455,1,,,,,,,,,,,,,,z,1,0.6455,,,,,,,,0.206481481,-0.149074074,0,0,0,space,0,83,83,137,1,JOOST,LB,old,z,./images/JOOSTLB.png,19.1511,,,,,,,,,,,,,,,,,,,,,,,,,,,,,,,,,,
,,,,,,,,,,,,,,,,,5c919a87707ed900018591e3,39,2022-02-12_16h56.59.584,lexical_decision_task_DD,2021.2.3,Win32,60.63545962,,,,,,,,,,,0.554,1,,,,,,,,,,,,,,m,1,0.554,,,,,,,,0.206481481,-0.149074074,0,0,0,,0,84,84,80,1,WEASEL,LB,old,m,./images/WEASELLB.png,,,,,,,,,,,,,,,,,,,,,,,,,,,,,,,,,,,
,,,,,,,,,,,,,,,,,5c919a87707ed900018591e3,39,2022-02-12_16h56.59.584,lexical_decision_task_DD,2021.2.3,Win32,60.63545962,,,,,,,,,,,0.6367,1,,,,,,,,,,,,,,z,1,0.6367,,,,,,,,0.206481481,-0.149074074,0,0,0,,0,85,85,159,1,CUDDY,C,old,z,./images/CUDDY.png,,,,,,,,,,,,,,,,,,,,,,,,,,,,,,,,,,,
,,,,,,,,,,,,,,,,,5c919a87707ed900018591e3,39,2022-02-12_16h56.59.584,lexical_decision_task_DD,2021.2.3,Win32,60.63545962,,,,,,,,,,,1.1853,1,,,,,,,,,,,,,,m,1,1.1853,,,,,,,,0.206481481,-0.149074074,0,0,0,,0,86,86,43,1,MOSQUE,HB,old,m,./images/MOSQUEHB.png,,,,,,,,,,,,,,,,,,,,,,,,,,,,,,,,,,,
,,,,,,,,,,,,,,,,,5c919a87707ed900018591e3,39,2022-02-12_16h56.59.584,lexical_decision_task_DD,2021.2.3,Win32,60.63545962,,,,,,,,,,,0.6394,1,,,,,,,,,,,,,,z,1,0.6394,,,,,,,,0.206481481,-0.149074074,0,0,0,,0,87,87,104,1,GITTY,LB,old,z,./images/GITTYLB.png,,,,,,,,,,,,,,,,,,,,,,,,,,,,,,,,,,,
,,,,,,,,,,,,,,,,,5c919a87707ed900018591e3,39,2022-02-12_16h56.59.584,lexical_decision_task_DD,2021.2.3,Win32,60.63545962,,,,,,,,,,,0.587,1,,,,,,,,,,,,,,z,1,0.587,,,,,,,,0.206481481,-0.149074074,0,0,0,,0,88,88,155,1,CANGY,LB,old,z,./images/CANGYLB.png,,,,,,,,,,,,,,,,,,,,,,,,,,,,,,,,,,,
,,,,,,,,,,,,,,,,,5c919a87707ed900018591e3,39,2022-02-12_16h56.59.584,lexical_decision_task_DD,2021.2.3,Win32,60.63545962,,,,,,,,,,,0.6931,1,,,,,,,,,,,,,,m,1,0.6931,,,,,,,,0.206481481,-0.149074074,0,0,0,,0,89,89,12,1,SHORE,C,old,m,./images/SHORE.png,,,,,,,,,,,,,,,,,,,,,,,,,,,,,,,,,,,
,,,,,,,,,,,,,,,,,5c919a87707ed900018591e3,39,2022-02-12_16h56.59.584,lexical_decision_task_DD,2021.2.3,Win32,60.63545962,,,,,,,,,,,0.5758,1,,,,,,,,,,,,,,z,1,0.5758,,,,,,,,0.206481481,-0.149074074,0,0,0,,0,90,90,111,1,HOSSE,C,old,z,./images/HOSSE.png,,,,,,,,,,,,,,,,,,,,,,,,,,,,,,,,,,,
,,,,,,,,,,,,,,,,,5c919a87707ed900018591e3,39,2022-02-12_16h56.59.584,lexical_decision_task_DD,2021.2.3,Win32,60.63545962,,,,,,,,,,,0.744,1,,,,,,,,,,,,,,z,1,0.744,,,,,,,,0.206481481,-0.149074074,0,0,0,,0,91,91,139,1,BLEAR,HB,old,z,./images/BLEARHB.png,,,,,,,,,,,,,,,,,,,,,,,,,,,,,,,,,,,
,,,,,,,,,,,,,,,,,5c919a87707ed900018591e3,39,2022-02-12_16h56.59.584,lexical_decision_task_DD,2021.2.3,Win32,60.63545962,,,,,,,,,,,0.6636,1,,,,,,,,,,,,,,m,1,0.6636,,,,,,,,0.206481481,-0.149074074,0,0,0,,0,92,92,29,1,CRUMB,LB,old,m,./images/CRUMBLB.png,,,,,,,,,,,,,,,,,,,,,,,,,,,,,,,,,,,
,,,,,,,,,,,,,,,,,5c919a87707ed900018591e3,39,2022-02-12_16h56.59.584,lexical_decision_task_DD,2021.2.3,Win32,60.63545962,,,,,,,,,,,0.7452,1,,,,,,,,,,,,,,m,1,0.7452,,,,,,,,0.206481481,-0.149074074,0,0,0,,0,93,93,17,1,SKIING,LB,old,m,./images/SKIINGLB.png,,,,,,,,,,,,,,,,,,,,,,,,,,,,,,,,,,,
,,,,,,,,,,,,,,,,,5c919a87707ed900018591e3,39,2022-02-12_16h56.59.584,lexical_decision_task_DD,2021.2.3,Win32,60.63545962,,,,,,,,,,,0.8108,1,,,,,,,,,,,,,,z,1,0.8108,,,,,,,,0.206481481,-0.149074074,0,0,0,,0,94,94,106,1,CLUMS,HB,old,z,./images/CLUMSHB.png,,,,,,,,,,,,,,,,,,,,,,,,,,,,,,,,,,,
,,,,,,,,,,,,,,,,,5c919a87707ed900018591e3,39,2022-02-12_16h56.59.584,lexical_decision_task_DD,2021.2.3,Win32,60.63545962,,,,,,,,,,,0.6444,1,,,,,,,,,,,,,,m,1,0.6444,,,,,,,,0.206481481,-0.149074074,0,0,0,,0,95,95,74,1,CEMENT,LB,old,m,./images/CEMENTLB.png,,,,,,,,,,,,,,,,,,,,,,,,,,,,,,,,,,,
,,,,,,,,,,,,,,,,,5c919a87707ed900018591e3,39,2022-02-12_16h56.59.584,lexical_decision_task_DD,2021.2.3,Win32,60.63545962,,,,,,,,,,,0.7944,1,,,,,,,,,,,,,,z,1,0.7944,,,,,,,,0.206481481,-0.149074074,0,0,0,,0,96,96,91,1,SHENS,HB,old,z,./images/SHENSHB.png,,,,,,,,,,,,,,,,,,,,,,,,,,,,,,,,,,,
,,,,,,,,,,,,,,,,,5c919a87707ed900018591e3,39,2022-02-12_16h56.59.584,lexical_decision_task_DD,2021.2.3,Win32,60.63545962,,,,,,,,,,,0.6049,1,,,,,,,,,,,,,,m,1,0.6049,,,,,,,,0.206481481,-0.149074074,0,0,0,,0,97,97,44,1,LIZARD,LB,old,m,./images/LIZARDLB.png,,,,,,,,,,,,,,,,,,,,,,,,,,,,,,,,,,,
,,,,,,,,,,,,,,,,,5c919a87707ed900018591e3,39,2022-02-12_16h56.59.584,lexical_decision_task_DD,2021.2.3,Win32,60.63545962,,,,,,,,,,,0.7196,1,,,,,,,,,,,,,,m,1,0.7196,,,,,,,,0.206481481,-0.149074074,0,0,0,,0,98,98,52,1,BANNER,HB,old,m,./images/BANNERHB.png,,,,,,,,,,,,,,,,,,,,,,,,,,,,,,,,,,,
,,,,,,,,,,,,,,,,,5c919a87707ed900018591e3,39,2022-02-12_16h56.59.584,lexical_decision_task_DD,2021.2.3,Win32,60.63545962,,,,,,,,,,,0.599,1,,,,,,,,,,,,,,z,1,0.599,,,,,,,,0.206481481,-0.149074074,0,0,0,,0,99,99,114,1,RIKES,C,old,z,./images/RIKES.png,,,,,,,,,,,,,,,,,,,,,,,,,,,,,,,,,,,
,,,,,,,,,,,,,,,,,5c919a87707ed900018591e3,39,2022-02-12_16h56.59.584,lexical_decision_task_DD,2021.2.3,Win32,60.63545962,,,,,,,,,,,0.593,1,,,,,,,,,,,,,,m,1,0.593,,,,,,,,0.206481481,-0.149074074,0,0,0,,0,100,100,48,1,SPORT,C,old,m,./images/SPORT.png,,,,,,,,,,,,,,,,,,,,,,,,,,,,,,,,,,,
,,,,,,,,,,,,,,,,,5c919a87707ed900018591e3,39,2022-02-12_16h56.59.584,lexical_decision_task_DD,2021.2.3,Win32,60.63545962,,,,,,,,,,,0.6166,1,,,,,,,,,,,,,,m,1,0.6166,,,,,,,,0.206481481,-0.149074074,0,0,0,,0,101,101,49,1,DRUMS,HB,old,m,./images/DRUMSHB.png,,,,,,,,,,,,,,,,,,,,,,,,,,,,,,,,,,,
,,,,,,,,,,,,,,,,,5c919a87707ed900018591e3,39,2022-02-12_16h56.59.584,lexical_decision_task_DD,2021.2.3,Win32,60.63545962,,,,,,,,,,,0.6052,1,,,,,,,,,,,,,,m,1,0.6052,,,,,,,,0.206481481,-0.149074074,0,0,0,,0,102,102,11,1,BONNET,LB,old,m,./images/BONNETLB.png,,,,,,,,,,,,,,,,,,,,,,,,,,,,,,,,,,,
,,,,,,,,,,,,,,,,,5c919a87707ed900018591e3,39,2022-02-12_16h56.59.584,lexical_decision_task_DD,2021.2.3,Win32,60.63545962,,,,,,,,,,,0.5936,1,,,,,,,,,,,,,,z,1,0.5936,,,,,,,,0.206481481,-0.149074074,0,0,0,,0,103,103,108,1,GRUET,C,old,z,./images/GRUET.png,,,,,,,,,,,,,,,,,,,,,,,,,,,,,,,,,,,
,,,,,,,,,,,,,,,,,5c919a87707ed900018591e3,39,2022-02-12_16h56.59.584,lexical_decision_task_DD,2021.2.3,Win32,60.63545962,,,,,,,,,,,0.6296,1,,,,,,,,,,,,,,m,1,0.6296,,,,,,,,0.206481481,-0.149074074,0,0,0,,0,104,104,8,1,TULIP,LB,old,m,./images/TULIPLB.png,,,,,,,,,,,,,,,,,,,,,,,,,,,,,,,,,,,
,,,,,,,,,,,,,,,,,5c919a87707ed900018591e3,39,2022-02-12_16h56.59.584,lexical_decision_task_DD,2021.2.3,Win32,60.63545962,,,,,,,,,,,0.5102,1,,,,,,,,,,,,,,m,1,0.5102,,,,,,,,0.206481481,-0.149074074,0,0,0,,0,105,105,27,1,ATTIC,C,old,m,./images/ATTIC.png,,,,,,,,,,,,,,,,,,,,,,,,,,,,,,,,,,,
,,,,,,,,,,,,,,,,,5c919a87707ed900018591e3,39,2022-02-12_16h56.59.584,lexical_decision_task_DD,2021.2.3,Win32,60.63545962,,,,,,,,,,,0.5685,1,,,,,,,,,,,,,,z,1,0.5685,,,,,,,,0.206481481,-0.149074074,0,0,0,,0,106,106,135,1,JOODY,C,old,z,./images/JOODY.png,,,,,,,,,,,,,,,,,,,,,,,,,,,,,,,,,,,
,,,,,,,,,,,,,,,,,5c919a87707ed900018591e3,39,2022-02-12_16h56.59.584,lexical_decision_task_DD,2021.2.3,Win32,60.63545962,,,,,,,,,,,0.6507,1,,,,,,,,,,,,,,z,1,0.6507,,,,,,,,0.206481481,-0.149074074,0,0,0,,0,107,107,103,1,FLORT,HB,old,z,./images/FLORTHB.png,,,,,,,,,,,,,,,,,,,,,,,,,,,,,,,,,,,
,,,,,,,,,,,,,,,,,5c919a87707ed900018591e3,39,2022-02-12_16h56.59.584,lexical_decision_task_DD,2021.2.3,Win32,60.63545962,,,,,,,,,,,0.5614,1,,,,,,,,,,,,,,z,1,0.5614,,,,,,,,0.206481481,-0.149074074,0,0,0,,0,108,108,123,1,SEDGE,C,old,z,./images/SEDGE.png,,,,,,,,,,,,,,,,,,,,,,,,,,,,,,,,,,,
,,,,,,,,,,,,,,,,,5c919a87707ed900018591e3,39,2022-02-12_16h56.59.584,lexical_decision_task_DD,2021.2.3,Win32,60.63545962,,,,,,,,,,,0.6101,1,,,,,,,,,,,,,,m,1,0.6101,,,,,,,,0.206481481,-0.149074074,0,0,0,,0,109,109,6,1,SQUARE,C,old,m,./images/SQUARE.png,,,,,,,,,,,,,,,,,,,,,,,,,,,,,,,,,,,
,,,,,,,,,,,,,,,,,5c919a87707ed900018591e3,39,2022-02-12_16h56.59.584,lexical_decision_task_DD,2021.2.3,Win32,60.63545962,,,,,,,,,,,0.5859,1,,,,,,,,,,,,,,z,1,0.5859,,,,,,,,0.206481481,-0.149074074,0,0,0,,0,110,110,158,1,EGECT,LB,old,z,./images/EGECTLB.png,,,,,,,,,,,,,,,,,,,,,,,,,,,,,,,,,,,
,,,,,,,,,,,,,,,,,5c919a87707ed900018591e3,39,2022-02-12_16h56.59.584,lexical_decision_task_DD,2021.2.3,Win32,60.63545962,,,,,,,,,,,0.9951,1,,,,,,,,,,,,,,z,1,0.9951,,,,,,,,0.206481481,-0.149074074,0,0,0,,0,111,111,151,1,TINKY,HB,old,z,./images/TINKYHB.png,,,,,,,,,,,,,,,,,,,,,,,,,,,,,,,,,,,
,,,,,,,,,,,,,,,,,5c919a87707ed900018591e3,39,2022-02-12_16h56.59.584,lexical_decision_task_DD,2021.2.3,Win32,60.63545962,,,,,,,,,,,0.5424,1,,,,,,,,,,,,,,z,1,0.5424,,,,,,,,0.206481481,-0.149074074,0,0,0,,0,112,112,90,1,NEAST,C,old,z,./images/NEAST.png,,,,,,,,,,,,,,,,,,,,,,,,,,,,,,,,,,,
,,,,,,,,,,,,,,,,,5c919a87707ed900018591e3,39,2022-02-12_16h56.59.584,lexical_decision_task_DD,2021.2.3,Win32,60.63545962,,,,,,,,,,,0.5944,1,,,,,,,,,,,,,,m,1,0.5944,,,,,,,,0.206481481,-0.149074074,0,0,0,,0,113,113,20,1,CRADLE,LB,old,m,./images/CRADLELB.png,,,,,,,,,,,,,,,,,,,,,,,,,,,,,,,,,,,
,,,,,,,,,,,,,,,,,5c919a87707ed900018591e3,39,2022-02-12_16h56.59.584,lexical_decision_task_DD,2021.2.3,Win32,60.63545962,,,,,,,,,,,0.6101,1,,,,,,,,,,,,,,z,1,0.6101,,,,,,,,0.206481481,-0.149074074,0,0,0,,0,114,114,98,1,BAMPS,LB,old,z,./images/BAMPSLB.png,,,,,,,,,,,,,,,,,,,,,,,,,,,,,,,,,,,
,,,,,,,,,,,,,,,,,5c919a87707ed900018591e3,39,2022-02-12_16h56.59.584,lexical_decision_task_DD,2021.2.3,Win32,60.63545962,,,,,,,,,,,0.6789,1,,,,,,,,,,,,,,m,1,0.6789,,,,,,,,0.206481481,-0.149074074,0,0,0,,0,115,115,82,1,SUNSET,HB,old,m,./images/SUNSETHB.png,,,,,,,,,,,,,,,,,,,,,,,,,,,,,,,,,,,
,,,,,,,,,,,,,,,,,5c919a87707ed900018591e3,39,2022-02-12_16h56.59.584,lexical_decision_task_DD,2021.2.3,Win32,60.63545962,,,,,,,,,,,0.891,1,,,,,,,,,,,,,,z,1,0.891,,,,,,,,0.206481481,-0.149074074,0,0,0,,0,116,116,97,1,CHIDS,HB,old,z,./images/CHIDSHB.png,,,,,,,,,,,,,,,,,,,,,,,,,,,,,,,,,,,
,,,,,,,,,,,,,,,,,5c919a87707ed900018591e3,39,2022-02-12_16h56.59.584,lexical_decision_task_DD,2021.2.3,Win32,60.63545962,,,,,,,,,,,0.6021,1,,,,,,,,,,,,,,z,1,0.6021,,,,,,,,0.206481481,-0.149074074,0,0,0,,0,117,117,149,1,VEASE,LB,old,z,./images/VEASELB.png,,,,,,,,,,,,,,,,,,,,,,,,,,,,,,,,,,,
,,,,,,,,,,,,,,,,,5c919a87707ed900018591e3,39,2022-02-12_16h56.59.584,lexical_decision_task_DD,2021.2.3,Win32,60.63545962,,,,,,,,,,,0.5613,1,,,,,,,,,,,,,,z,1,0.5613,,,,,,,,0.206481481,-0.149074074,0,0,0,,0,118,118,125,1,MOOKY,LB,old,z,./images/MOOKYLB.png,,,,,,,,,,,,,,,,,,,,,,,,,,,,,,,,,,,
,,,,,,,,,,,,,,,,,5c919a87707ed900018591e3,39,2022-02-12_16h56.59.584,lexical_decision_task_DD,2021.2.3,Win32,60.63545962,,,,,,,,,,,0.4773,1,,,,,,,,,,,,,,z,1,0.4773,,,,,,,,0.206481481,-0.149074074,0,0,0,,0,119,119,147,1,ZOLES,C,old,z,./images/ZOLES.png,,,,,,,,,,,,,,,,,,,,,,,,,,,,,,,,,,,
,,,,,,,,,,,,,,,,,5c919a87707ed900018591e3,39,2022-02-12_16h56.59.584,lexical_decision_task_DD,2021.2.3,Win32,60.63545962,,,,,,,,,,,0.6782,1,,,,,,,,,,,,,,z,1,0.6782,,,,,,,,0.206481481,-0.149074074,0,0,0,,0,120,120,163,1,GAMBA,HB,old,z,./images/GAMBAHB.png,,,,,,,,,,,,,,,,,,,,,,,,,,,,,,,,,,,
,,,,,,,,,,,,,,,,,5c919a87707ed900018591e3,39,2022-02-12_16h56.59.584,lexical_decision_task_DD,2021.2.3,Win32,60.63545962,,,,,,,,,,,0.5767,1,,,,,,,,,,,,,,m,1,0.5767,,,,,,,,0.206481481,-0.149074074,0,0,0,,0,121,121,66,1,SWEAT,C,old,m,./images/SWEAT.png,,,,,,,,,,,,,,,,,,,,,,,,,,,,,,,,,,,
,,,,,,,,,,,,,,,,,5c919a87707ed900018591e3,39,2022-02-12_16h56.59.584,lexical_decision_task_DD,2021.2.3,Win32,60.63545962,,,,,,,,,,,0.6454,1,,,,,,,,,,,,,,z,1,0.6454,,,,,,,,0.206481481,-0.149074074,0,0,0,,0,122,122,136,1,WERVE,HB,old,z,./images/WERVEHB.png,,,,,,,,,,,,,,,,,,,,,,,,,,,,,,,,,,,
,,,,,,,,,,,,,,,,,5c919a87707ed900018591e3,39,2022-02-12_16h56.59.584,lexical_decision_task_DD,2021.2.3,Win32,60.63545962,,,,,,,,,,,0.496,1,,,,,,,,,,,,,,z,1,0.496,,,,,,,,0.206481481,-0.149074074,0,0,0,,0,123,123,105,1,MOKER,C,old,z,./images/MOKER.png,,,,,,,,,,,,,,,,,,,,,,,,,,,,,,,,,,,
,,,,,,,,,,,,,,,,,5c919a87707ed900018591e3,39,2022-02-12_16h56.59.584,lexical_decision_task_DD,2021.2.3,Win32,60.63545962,,,,,,,,,,,0.4772,1,,,,,,,,,,,,,,z,1,0.4772,,,,,,,,0.206481481,-0.149074074,0,0,0,,0,124,124,150,1,NOOLS,C,old,z,./images/NOOLS.png,,,,,,,,,,,,,,,,,,,,,,,,,,,,,,,,,,,
,,,,,,,,,,,,,,,,,5c919a87707ed900018591e3,39,2022-02-12_16h56.59.584,lexical_decision_task_DD,2021.2.3,Win32,60.63545962,,,,,,,,,,,0.6635,1,,,,,,,,,,,,,,m,1,0.6635,,,,,,,,0.206481481,-0.149074074,0,0,0,space,0,125,125,34,1,CANYON,HB,old,m,./images/CANYONHB.png,49.6593,,,,,,,,,,,,,,,,,,,,,,,,,,,,,,,,,,
,,,,,,,,,,,,,,,,,5c919a87707ed900018591e3,39,2022-02-12_16h56.59.584,lexical_decision_task_DD,2021.2.3,Win32,60.63545962,,,,,,,,,,,0.6148,1,,,,,,,,,,,,,,z,1,0.6148,,,,,,,,0.206481481,-0.151851852,0,0,0,,0,126,126,167,1,ZONET,LB,old,z,./images/ZONETLB.png,,,,,,,,,,,,,,,,,,,,,,,,,,,,,,,,,,,
,,,,,,,,,,,,,,,,,5c919a87707ed900018591e3,39,2022-02-12_16h56.59.584,lexical_decision_task_DD,2021.2.3,Win32,60.63545962,,,,,,,,,,,0.6706,1,,,,,,,,,,,,,,z,1,0.6706,,,,,,,,0.206481481,-0.151851852,0,0,0,,0,127,127,130,1,CRILL,HB,old,z,./images/CRILLHB.png,,,,,,,,,,,,,,,,,,,,,,,,,,,,,,,,,,,
,,,,,,,,,,,,,,,,,5c919a87707ed900018591e3,39,2022-02-12_16h56.59.584,lexical_decision_task_DD,2021.2.3,Win32,60.63545962,,,,,,,,,,,0.476,1,,,,,,,,,,,,,,m,1,0.476,,,,,,,,0.206481481,-0.151851852,0,0,0,,0,128,128,78,1,LITTER,C,old,m,./images/LITTER.png,,,,,,,,,,,,,,,,,,,,,,,,,,,,,,,,,,,
,,,,,,,,,,,,,,,,,5c919a87707ed900018591e3,39,2022-02-12_16h56.59.584,lexical_decision_task_DD,2021.2.3,Win32,60.63545962,,,,,,,,,,,0.5497,1,,,,,,,,,,,,,,m,1,0.5497,,,,,,,,0.206481481,-0.151851852,0,0,0,,0,129,129,77,1,COUCH,LB,old,m,./images/COUCHLB.png,,,,,,,,,,,,,,,,,,,,,,,,,,,,,,,,,,,
,,,,,,,,,,,,,,,,,5c919a87707ed900018591e3,39,2022-02-12_16h56.59.584,lexical_decision_task_DD,2021.2.3,Win32,60.63545962,,,,,,,,,,,0.7197,1,,,,,,,,,,,,,,z,1,0.7197,,,,,,,,0.206481481,-0.151851852,0,0,0,,0,130,130,143,1,MONGS,LB,old,z,./images/MONGSLB.png,,,,,,,,,,,,,,,,,,,,,,,,,,,,,,,,,,,
,,,,,,,,,,,,,,,,,5c919a87707ed900018591e3,39,2022-02-12_16h56.59.584,lexical_decision_task_DD,2021.2.3,Win32,60.63545962,,,,,,,,,,,0.593,1,,,,,,,,,,,,,,m,1,0.593,,,,,,,,0.206481481,-0.151851852,0,0,0,,0,131,131,62,1,PURSE,LB,old,m,./images/PURSELB.png,,,,,,,,,,,,,,,,,,,,,,,,,,,,,,,,,,,
,,,,,,,,,,,,,,,,,5c919a87707ed900018591e3,39,2022-02-12_16h56.59.584,lexical_decision_task_DD,2021.2.3,Win32,60.63545962,,,,,,,,,,,0.8659,1,,,,,,,,,,,,,,z,1,0.8659,,,,,,,,0.206481481,-0.151851852,0,0,0,,0,132,132,121,1,CEERS,HB,old,z,./images/CEERSHB.png,,,,,,,,,,,,,,,,,,,,,,,,,,,,,,,,,,,
,,,,,,,,,,,,,,,,,5c919a87707ed900018591e3,39,2022-02-12_16h56.59.584,lexical_decision_task_DD,2021.2.3,Win32,60.63545962,,,,,,,,,,,0.7495,1,,,,,,,,,,,,,,m,1,0.7495,,,,,,,,0.206481481,-0.151851852,0,0,0,,0,133,133,69,1,COOKER,C,old,m,./images/COOKER.png,,,,,,,,,,,,,,,,,,,,,,,,,,,,,,,,,,,
,,,,,,,,,,,,,,,,,5c919a87707ed900018591e3,39,2022-02-12_16h56.59.584,lexical_decision_task_DD,2021.2.3,Win32,60.63545962,,,,,,,,,,,0.6518,1,,,,,,,,,,,,,,z,1,0.6518,,,,,,,,0.206481481,-0.151851852,0,0,0,,0,134,134,95,1,HANTY,LB,old,z,./images/HANTYLB.png,,,,,,,,,,,,,,,,,,,,,,,,,,,,,,,,,,,
,,,,,,,,,,,,,,,,,5c919a87707ed900018591e3,39,2022-02-12_16h56.59.584,lexical_decision_task_DD,2021.2.3,Win32,60.63545962,,,,,,,,,,,1.0782,1,,,,,,,,,,,,,,z,1,1.0782,,,,,,,,0.206481481,-0.151851852,0,0,0,,0,135,135,94,1,BLANS,HB,old,z,./images/BLANSHB.png,,,,,,,,,,,,,,,,,,,,,,,,,,,,,,,,,,,
,,,,,,,,,,,,,,,,,5c919a87707ed900018591e3,39,2022-02-12_16h56.59.584,lexical_decision_task_DD,2021.2.3,Win32,60.63545962,,,,,,,,,,,0.8123,1,,,,,,,,,,,,,,m,1,0.8123,,,,,,,,0.206481481,-0.151851852,0,0,0,,0,136,136,13,1,MOTOR,HB,old,m,./images/MOTORHB.png,,,,,,,,,,,,,,,,,,,,,,,,,,,,,,,,,,,
,,,,,,,,,,,,,,,,,5c919a87707ed900018591e3,39,2022-02-12_16h56.59.584,lexical_decision_task_DD,2021.2.3,Win32,60.63545962,,,,,,,,,,,0.604,1,,,,,,,,,,,,,,m,1,0.604,,,,,,,,0.206481481,-0.151851852,0,0,0,,0,137,137,68,1,TORCH,LB,old,m,./images/TORCHLB.png,,,,,,,,,,,,,,,,,,,,,,,,,,,,,,,,,,,
,,,,,,,,,,,,,,,,,5c919a87707ed900018591e3,39,2022-02-12_16h56.59.584,lexical_decision_task_DD,2021.2.3,Win32,60.63545962,,,,,,,,,,,0.6953,1,,,,,,,,,,,,,,z,1,0.6953,,,,,,,,0.206481481,-0.151851852,0,0,0,,0,138,138,92,1,PAIMS,LB,old,z,./images/PAIMSLB.png,,,,,,,,,,,,,,,,,,,,,,,,,,,,,,,,,,,
,,,,,,,,,,,,,,,,,5c919a87707ed900018591e3,39,2022-02-12_16h56.59.584,lexical_decision_task_DD,2021.2.3,Win32,60.63545962,,,,,,,,,,,0.6472,1,,,,,,,,,,,,,,z,1,0.6472,,,,,,,,0.206481481,-0.151851852,0,0,0,,0,139,139,119,1,PAFER,LB,old,z,./images/PAFERLB.png,,,,,,,,,,,,,,,,,,,,,,,,,,,,,,,,,,,
,,,,,,,,,,,,,,,,,5c919a87707ed900018591e3,39,2022-02-12_16h56.59.584,lexical_decision_task_DD,2021.2.3,Win32,60.63545962,,,,,,,,,,,0.6102,1,,,,,,,,,,,,,,m,1,0.6102,,,,,,,,0.206481481,-0.151851852,0,0,0,,0,140,140,81,1,POODLE,C,old,m,./images/POODLE.png,,,,,,,,,,,,,,,,,,,,,,,,,,,,,,,,,,,
,,,,,,,,,,,,,,,,,5c919a87707ed900018591e3,39,2022-02-12_16h56.59.584,lexical_decision_task_DD,2021.2.3,Win32,60.63545962,,,,,,,,,,,0.6266,1,,,,,,,,,,,,,,z,1,0.6266,,,,,,,,0.206481481,-0.151851852,0,0,0,,0,141,141,144,1,NAIRY,C,old,z,./images/NAIRY.png,,,,,,,,,,,,,,,,,,,,,,,,,,,,,,,,,,,
,,,,,,,,,,,,,,,,,5c919a87707ed900018591e3,39,2022-02-12_16h56.59.584,lexical_decision_task_DD,2021.2.3,Win32,60.63545962,,,,,,,,,,,0.4647,1,,,,,,,,,,,,,,z,1,0.4647,,,,,,,,0.206481481,-0.151851852,0,0,0,,0,142,142,138,1,PLICE,C,old,z,./images/PLICE.png,,,,,,,,,,,,,,,,,,,,,,,,,,,,,,,,,,,
,,,,,,,,,,,,,,,,,5c919a87707ed900018591e3,39,2022-02-12_16h56.59.584,lexical_decision_task_DD,2021.2.3,Win32,60.63545962,,,,,,,,,,,0.56,1,,,,,,,,,,,,,,z,1,0.56,,,,,,,,0.206481481,-0.151851852,0,0,0,,0,143,143,102,1,DULLE,C,old,z,./images/DULLE.png,,,,,,,,,,,,,,,,,,,,,,,,,,,,,,,,,,,
,,,,,,,,,,,,,,,,,5c919a87707ed900018591e3,39,2022-02-12_16h56.59.584,lexical_decision_task_DD,2021.2.3,Win32,60.63545962,,,,,,,,,,,0.7125,1,,,,,,,,,,,,,,m,1,0.7125,,,,,,,,0.206481481,-0.151851852,0,0,0,,0,144,144,64,1,JELLY,HB,old,m,./images/JELLYHB.png,,,,,,,,,,,,,,,,,,,,,,,,,,,,,,,,,,,
,,,,,,,,,,,,,,,,,5c919a87707ed900018591e3,39,2022-02-12_16h56.59.584,lexical_decision_task_DD,2021.2.3,Win32,60.63545962,,,,,,,,,,,0.678,1,,,,,,,,,,,,,,m,1,0.678,,,,,,,,0.206481481,-0.151851852,0,0,0,,0,145,145,70,1,URINE,HB,old,m,./images/URINEHB.png,,,,,,,,,,,,,,,,,,,,,,,,,,,,,,,,,,,
,,,,,,,,,,,,,,,,,5c919a87707ed900018591e3,39,2022-02-12_16h56.59.584,lexical_decision_task_DD,2021.2.3,Win32,60.63545962,,,,,,,,,,,0.6023,1,,,,,,,,,,,,,,z,1,0.6023,,,,,,,,0.206481481,-0.151851852,0,0,0,,0,146,146,164,1,SGREW,LB,old,z,./images/SGREWLB.png,,,,,,,,,,,,,,,,,,,,,,,,,,,,,,,,,,,
,,,,,,,,,,,,,,,,,5c919a87707ed900018591e3,39,2022-02-12_16h56.59.584,lexical_decision_task_DD,2021.2.3,Win32,60.63545962,,,,,,,,,,,0.5992,1,,,,,,,,,,,,,,m,1,0.5992,,,,,,,,0.206481481,-0.151851852,0,0,0,,0,147,147,83,1,JUNGLE,LB,old,m,./images/JUNGLELB.png,,,,,,,,,,,,,,,,,,,,,,,,,,,,,,,,,,,
,,,,,,,,,,,,,,,,,5c919a87707ed900018591e3,39,2022-02-12_16h56.59.584,lexical_decision_task_DD,2021.2.3,Win32,60.63545962,,,,,,,,,,,0.7118,1,,,,,,,,,,,,,,m,1,0.7118,,,,,,,,0.206481481,-0.151851852,0,0,0,,0,148,148,72,1,NOOSE,C,old,m,./images/NOOSE.png,,,,,,,,,,,,,,,,,,,,,,,,,,,,,,,,,,,
,,,,,,,,,,,,,,,,,5c919a87707ed900018591e3,39,2022-02-12_16h56.59.584,lexical_decision_task_DD,2021.2.3,Win32,60.63545962,,,,,,,,,,,0.6607,1,,,,,,,,,,,,,,z,1,0.6607,,,,,,,,0.206481481,-0.151851852,0,0,0,,0,149,149,124,1,TUNCH,HB,old,z,./images/TUNCHHB.png,,,,,,,,,,,,,,,,,,,,,,,,,,,,,,,,,,,
,,,,,,,,,,,,,,,,,5c919a87707ed900018591e3,39,2022-02-12_16h56.59.584,lexical_decision_task_DD,2021.2.3,Win32,60.63545962,,,,,,,,,,,0.596,1,,,,,,,,,,,,,,z,1,0.596,,,,,,,,0.206481481,-0.151851852,0,0,0,,0,150,150,99,1,BACKY,C,old,z,./images/BACKY.png,,,,,,,,,,,,,,,,,,,,,,,,,,,,,,,,,,,
,,,,,,,,,,,,,,,,,5c919a87707ed900018591e3,39,2022-02-12_16h56.59.584,lexical_decision_task_DD,2021.2.3,Win32,60.63545962,,,,,,,,,,,0.5792,1,,,,,,,,,,,,,,m,1,0.5792,,,,,,,,0.206481481,-0.151851852,0,0,0,,0,151,151,61,1,CANDLE,HB,old,m,./images/CANDLEHB.png,,,,,,,,,,,,,,,,,,,,,,,,,,,,,,,,,,,
,,,,,,,,,,,,,,,,,5c919a87707ed900018591e3,39,2022-02-12_16h56.59.584,lexical_decision_task_DD,2021.2.3,Win32,60.63545962,,,,,,,,,,,0.5633,1,,,,,,,,,,,,,,z,1,0.5633,,,,,,,,0.206481481,-0.151851852,0,0,0,,0,152,152,131,1,NACES,LB,old,z,./images/NACESLB.png,,,,,,,,,,,,,,,,,,,,,,,,,,,,,,,,,,,
,,,,,,,,,,,,,,,,,5c919a87707ed900018591e3,39,2022-02-12_16h56.59.584,lexical_decision_task_DD,2021.2.3,Win32,60.63545962,,,,,,,,,,,0.8465,0,,,,,,,,,,,,,,m,0,0.8465,,,,,,,,0.206481481,-0.151851852,0,0,0,,0,153,153,166,1,SHORY,HB,old,z,./images/SHORYHB.png,,,,,,,,,,,,,,,,,,,,,,,,,,,,,,,,,,,
,,,,,,,,,,,,,,,,,5c919a87707ed900018591e3,39,2022-02-12_16h56.59.584,lexical_decision_task_DD,2021.2.3,Win32,60.63545962,,,,,,,,,,,0.5932,1,,,,,,,,,,,,,,m,1,0.5932,,,,,,,,0.206481481,-0.151851852,0,0,0,,0,154,154,30,1,STORM,C,old,m,./images/STORM.png,,,,,,,,,,,,,,,,,,,,,,,,,,,,,,,,,,,
,,,,,,,,,,,,,,,,,5c919a87707ed900018591e3,39,2022-02-12_16h56.59.584,lexical_decision_task_DD,2021.2.3,Win32,60.63545962,,,,,,,,,,,0.5466,1,,,,,,,,,,,,,,m,1,0.5466,,,,,,,,0.206481481,-0.151851852,0,0,0,,0,155,155,50,1,MALLET,LB,old,m,./images/MALLETLB.png,,,,,,,,,,,,,,,,,,,,,,,,,,,,,,,,,,,
,,,,,,,,,,,,,,,,,5c919a87707ed900018591e3,39,2022-02-12_16h56.59.584,lexical_decision_task_DD,2021.2.3,Win32,60.63545962,,,,,,,,,,,0.7313,1,,,,,,,,,,,,,,m,1,0.7313,,,,,,,,0.206481481,-0.151851852,0,0,0,,0,156,156,19,1,DOUGH,HB,old,m,./images/DOUGHHB.png,,,,,,,,,,,,,,,,,,,,,,,,,,,,,,,,,,,
,,,,,,,,,,,,,,,,,5c919a87707ed900018591e3,39,2022-02-12_16h56.59.584,lexical_decision_task_DD,2021.2.3,Win32,60.63545962,,,,,,,,,,,1.0057,1,,,,,,,,,,,,,,z,1,1.0057,,,,,,,,0.206481481,-0.151851852,0,0,0,,0,157,157,154,1,THINT,HB,old,z,./images/THINTHB.png,,,,,,,,,,,,,,,,,,,,,,,,,,,,,,,,,,,
,,,,,,,,,,,,,,,,,5c919a87707ed900018591e3,39,2022-02-12_16h56.59.584,lexical_decision_task_DD,2021.2.3,Win32,60.63545962,,,,,,,,,,,0.6448,1,,,,,,,,,,,,,,m,1,0.6448,,,,,,,,0.206481481,-0.151851852,0,0,0,,0,158,158,46,1,PEARL,HB,old,m,./images/PEARLHB.png,,,,,,,,,,,,,,,,,,,,,,,,,,,,,,,,,,,
,,,,,,,,,,,,,,,,,5c919a87707ed900018591e3,39,2022-02-12_16h56.59.584,lexical_decision_task_DD,2021.2.3,Win32,60.63545962,,,,,,,,,,,0.5097,1,,,,,,,,,,,,,,m,1,0.5097,,,,,,,,0.206481481,-0.151851852,0,0,0,,0,159,159,39,1,SHELF,C,old,m,./images/SHELF.png,,,,,,,,,,,,,,,,,,,,,,,,,,,,,,,,,,,
,,,,,,,,,,,,,,,,,5c919a87707ed900018591e3,39,2022-02-12_16h56.59.584,lexical_decision_task_DD,2021.2.3,Win32,60.63545962,,,,,,,,,,,0.6888,1,,,,,,,,,,,,,,m,1,0.6888,,,,,,,,0.206481481,-0.151851852,0,0,0,,0,160,160,16,1,PENCE,HB,old,m,./images/PENCEHB.png,,,,,,,,,,,,,,,,,,,,,,,,,,,,,,,,,,,
,,,,,,,,,,,,,,,,,5c919a87707ed900018591e3,39,2022-02-12_16h56.59.584,lexical_decision_task_DD,2021.2.3,Win32,60.63545962,,,,,,,,,,,0.6333,1,,,,,,,,,,,,,,z,1,0.6333,,,,,,,,0.206481481,-0.151851852,0,0,0,,0,161,161,116,1,BALGY,LB,old,z,./images/BALGYLB.png,,,,,,,,,,,,,,,,,,,,,,,,,,,,,,,,,,,
,,,,,,,,,,,,,,,,,5c919a87707ed900018591e3,39,2022-02-12_16h56.59.584,lexical_decision_task_DD,2021.2.3,Win32,60.63545962,,,,,,,,,,,0.5115,1,,,,,,,,,,,,,,m,1,0.5115,,,,,,,,0.206481481,-0.151851852,0,0,0,,0,162,162,41,1,STRING,LB,old,m,./images/STRINGLB.png,,,,,,,,,,,,,,,,,,,,,,,,,,,,,,,,,,,
,,,,,,,,,,,,,,,,,5c919a87707ed900018591e3,39,2022-02-12_16h56.59.584,lexical_decision_task_DD,2021.2.3,Win32,60.63545962,,,,,,,,,,,1.0107,0,,,,,,,,,,,,,,z,0,1.0107,,,,,,,,0.206481481,-0.151851852,0,0,0,,0,163,163,76,1,INFANT,HB,old,m,./images/INFANTHB.png,,,,,,,,,,,,,,,,,,,,,,,,,,,,,,,,,,,
,,,,,,,,,,,,,,,,,5c919a87707ed900018591e3,39,2022-02-12_16h56.59.584,lexical_decision_task_DD,2021.2.3,Win32,60.63545962,,,,,,,,,,,0.8549,0,,,,,,,,,,,,,,m,0,0.8549,,,,,,,,0.206481481,-0.151851852,0,0,0,,0,164,164,128,1,GRIFT,LB,old,z,./images/GRIFTLB.png,,,,,,,,,,,,,,,,,,,,,,,,,,,,,,,,,,,
,,,,,,,,,,,,,,,,,5c919a87707ed900018591e3,39,2022-02-12_16h56.59.584,lexical_decision_task_DD,2021.2.3,Win32,60.63545962,,,,,,,,,,,0.5204,1,,,,,,,,,,,,,,m,1,0.5204,,,,,,,,0.206481481,-0.151851852,0,0,0,,0,165,165,59,1,BURIAL,LB,old,m,./images/BURIALLB.png,,,,,,,,,,,,,,,,,,,,,,,,,,,,,,,,,,,
,,,,,,,,,,,,,,,,,5c919a87707ed900018591e3,39,2022-02-12_16h56.59.584,lexical_decision_task_DD,2021.2.3,Win32,60.63545962,,,,,,,,,,,0.769,1,,,,,,,,,,,,,,m,1,0.769,,,,,,,,0.206481481,-0.151851852,0,0,0,,0,166,166,40,1,SWING,HB,old,m,./images/SWINGHB.png,,,,,,,,,,,,,,,,,,,,,,,,,,,,,,,,,,,
,,,,,,,,,,,,,,,,,5c919a87707ed900018591e3,39,2022-02-12_16h56.59.584,lexical_decision_task_DD,2021.2.3,Win32,60.63545962,,,,,,,,,,,1.0975,1,,,,,,,,,,,,,,z,1,1.0975,,,,,,,,0.206481481,-0.151851852,0,0,0,,0,167,167,134,1,TROSS,LB,old,z,./images/TROSSLB.png,,,,,,,,,,,,,,,,,,,,,,,,,,,,,,,,,,,
,,,,,,,,,,,,,,,,,5c919a87707ed900018591e3,39,2022-02-12_16h56.59.584,lexical_decision_task_DD,2021.2.3,Win32,60.63545962,,,,,,,,,,,,,,,,,,,,,,,,,,,,,,,,,,,,,,,,,,,,,,,,How likely will it be that you will recognize the words presented clearly on a scale of 0 (not likely) to 100 (most likely)?,,,,,0.009259259,-0.397222222,1,0,0,jol_adv,2,4.1026,0,0,0,0,1,,,,,,,,,,,,,,,,,,,,,
,,,,,,,,,,,,,,,,,5c919a87707ed900018591e3,39,2022-02-12_16h56.59.584,lexical_decision_task_DD,2021.2.3,Win32,60.63545962,,,,,,,,,,,,,,,,,,,,,,,,,,,,,,,,,,,,,,,,,,,,,,,,How likely will it be that you will recognize the words presented very blurred on a scale of 0 (not likely) to 100 (most likely)?,,,,,,,,,,,2,1.0018,0,1,1,2,1,,,,,,,,,,,,,,,,,,,,,
,,,,,,,,,,,,,,,,,5c919a87707ed900018591e3,39,2022-02-12_16h56.59.584,lexical_decision_task_DD,2021.2.3,Win32,60.63545962,,,,,,,,,,,,,,,,,,,,,,,,,,,,,,,,,,,,,,,,,,,,,,,,How likely will it be that you will recognize the words presented slighly blurred on a scale of 0 (not likely) to 100 (most likely)?,,,,,,,,,,,3,7.8105,0,2,2,1,1,,,,,,,,,,,,,,,,,,,,,
,,-0.011111111,-0.364814815,1,0,0,,,,,,1,test,"In the next phase you will be presented with the words from the the first phase. Your job is to decide whether you remember seeing the word or not. If you remember seeing the word press ""old"" or type ""m"". If you do not remember seeing the word press ""new"" or type ""z"". Please press the space bar or click on continue to begin. ",,,5c919a87707ed900018591e3,39,2022-02-12_16h56.59.584,lexical_decision_task_DD,2021.2.3,Win32,60.63545962,,,,,,,,,,,,,,,,,,,,,,,,,,,,,,,,,,,,,,,,,,,,,,,,,,,,,,,,,,,,,,,,,,instr_done_button,0,0,0,0,1,,,,,,,,,,,,,,,
space,2.3753,-0.011111111,-0.385185185,0,0,0,,,,,,1,test,"In the next phase you will be presented with the words from the the first phase. Your job is to decide whether you remember seeing the word or not. If you remember seeing the word press ""old"" or type ""m"". If you do not remember seeing the word press ""new"" or type ""z"". Please press the space bar or click on continue to begin. ",,,5c919a87707ed900018591e3,39,2022-02-12_16h56.59.584,lexical_decision_task_DD,2021.2.3,Win32,60.63545962,,,,,,,,,,,,,,,,,,,,,,,,,,,,,,,,,,,,,,,,,,,,,,,,,,,,,,,,,,,,,,,,,,,1,0,1,0,1,,,,,,,,,,,,,,,
space,2.8071,-0.005555556,-0.350925926,0,0,0,,,,,,1,test,"In the next phase you will be presented with the words from the the first phase. Your job is to decide whether you remember seeing the word or not. If you remember seeing the word press ""old"" or type ""m"". If you do not remember seeing the word press ""new"" or type ""z"". Please press the space bar or click on continue to begin. ",,,5c919a87707ed900018591e3,39,2022-02-12_16h56.59.584,lexical_decision_task_DD,2021.2.3,Win32,60.63545962,,,,,,,,,,,,,,,,,,,,,,,,,,,,,,,,,,,,,,,,,,,,,,,,,,,,,,,,,,,,,,,,,,,2,0,2,0,1,,,,,,,,,,,,,,,
,,-0.005555556,-0.368518519,1,0,0,,,,,,1,test,"In the next phase you will be presented with the words from the the first phase. Your job is to decide whether you remember seeing the word or not. If you remember seeing the word press ""old"" or type ""m"". If you do not remember seeing the word press ""new"" or type ""z"". Please press the space bar or click on continue to begin. ",,,5c919a87707ed900018591e3,39,2022-02-12_16h56.59.584,lexical_decision_task_DD,2021.2.3,Win32,60.63545962,,,,,,,,,,,,,,,,,,,,,,,,,,,,,,,,,,,,,,,,,,,,,,,,,,,,,,,,,,,,,,,,,,instr_done_button,3,0,3,0,1,,,,,,,,,,,,,,,
space,8.4696,-0.193518519,-0.288888889,0,0,0,,,,,,1,test,"In the next phase you will be presented with the words from the the first phase. Your job is to decide whether you remember seeing the word or not. If you remember seeing the word press ""old"" or type ""m"". If you do not remember seeing the word press ""new"" or type ""z"". Please press the space bar or click on continue to begin. ",,,5c919a87707ed900018591e3,39,2022-02-12_16h56.59.584,lexical_decision_task_DD,2021.2.3,Win32,60.63545962,,,,,,,,,,,,,,,,,,,,,,,,,,,,,,,,,,,,,,,,,,,,,,,,,,,,,,,,,,,,,,,,,,,4,0,4,0,1,,,,,,,,,,,,,,,
,,,,,,,,,,,,,,,,,5c919a87707ed900018591e3,39,2022-02-12_16h56.59.584,lexical_decision_task_DD,2021.2.3,Win32,60.63545962,,,,,,,,,,,0.6505,1,,,,,,,,,,,,,,,,,,,,,,,,-0.193518519,-0.288888889,0,0,0,,,,,,,SUNSET,HB,m,m,./images/SUNSETHB.png,,,,,,,,,,,,,,,,,,,,,m,1,0.6505,,,,,,,,0,0,0,82,1
,,,,,,,,,,,,,,,,,5c919a87707ed900018591e3,39,2022-02-12_16h56.59.584,lexical_decision_task_DD,2021.2.3,Win32,60.63545962,,,,,,,,,,,0.5449,1,,,,,,,,,,,,,,,,,,,,,,,,-0.193518519,-0.288888889,0,0,0,,,,,,,SHELF,C,m,m,./images/SHELF.png,,,,,,,,,,,,,,,,,,,,,m,1,0.5449,,,,,,,,0,1,1,39,1
,,,,,,,,,,,,,,,,,5c919a87707ed900018591e3,39,2022-02-12_16h56.59.584,lexical_decision_task_DD,2021.2.3,Win32,60.63545962,,,,,,,,,,,1.2511,0,,,,,,,,,,,,,,,,,,,,,,,,-0.193518519,-0.288888889,0,0,0,,,,,,,SAUNA,C,z,m,./images/SAUNA.png,,,,,,,,,,,,,,,,,,,,,m,0,1.2511,,,,,,,,0,2,2,117,1
,,,,,,,,,,,,,,,,,5c919a87707ed900018591e3,39,2022-02-12_16h56.59.584,lexical_decision_task_DD,2021.2.3,Win32,60.63545962,,,,,,,,,,,0.6169,1,,,,,,,,,,,,,,,,,,,,,,,,-0.193518519,-0.288888889,0,0,0,,,,,,,ONION,C,m,m,./images/ONION.png,,,,,,,,,,,,,,,,,,,,,m,1,0.6169,,,,,,,,0,3,3,51,1
,,,,,,,,,,,,,,,,,5c919a87707ed900018591e3,39,2022-02-12_16h56.59.584,lexical_decision_task_DD,2021.2.3,Win32,60.63545962,,,,,,,,,,,0.4785,0,,,,,,,,,,,,,,,,,,,,,,,,-0.193518519,-0.288888889,0,0,0,,,,,,,BANANA,HB,z,m,./images/BANANAHB.png,,,,,,,,,,,,,,,,,,,,,m,0,0.4785,,,,,,,,0,4,4,154,1
,,,,,,,,,,,,,,,,,5c919a87707ed900018591e3,39,2022-02-12_16h56.59.584,lexical_decision_task_DD,2021.2.3,Win32,60.63545962,,,,,,,,,,,0.9514,0,,,,,,,,,,,,,,,,,,,,,,,,-0.193518519,-0.288888889,0,0,0,,,,,,,PACKET,LB,m,m,./images/PACKETLB.png,,,,,,,,,,,,,,,,,,,,,z,0,0.9514,,,,,,,,0,5,5,56,1
,,,,,,,,,,,,,,,,,5c919a87707ed900018591e3,39,2022-02-12_16h56.59.584,lexical_decision_task_DD,2021.2.3,Win32,60.63545962,,,,,,,,,,,0.6235,1,,,,,,,,,,,,,,,,,,,,,,,,-0.193518519,-0.288888889,0,0,0,,,,,,,PIMPLE,LB,m,m,./images/PIMPLELB.png,,,,,,,,,,,,,,,,,,,,,m,1,0.6235,,,,,,,,0,6,6,71,1
,,,,,,,,,,,,,,,,,5c919a87707ed900018591e3,39,2022-02-12_16h56.59.584,lexical_decision_task_DD,2021.2.3,Win32,60.63545962,,,,,,,,,,,1.0073,1,,,,,,,,,,,,,,,,,,,,,,,,-0.193518519,-0.288888889,0,0,0,,,,,,,JELLY,HB,m,m,./images/JELLYHB.png,,,,,,,,,,,,,,,,,,,,,m,1,1.0073,,,,,,,,0,7,7,64,1
,,,,,,,,,,,,,,,,,5c919a87707ed900018591e3,39,2022-02-12_16h56.59.584,lexical_decision_task_DD,2021.2.3,Win32,60.63545962,,,,,,,,,,,0.7013,1,,,,,,,,,,,,,,,,,,,,,,,,-0.193518519,-0.288888889,0,0,0,,,,,,,JAGUAR,C,m,m,./images/JAGUAR.png,,,,,,,,,,,,,,,,,,,,,m,1,0.7013,,,,,,,,0,8,8,18,1
,,,,,,,,,,,,,,,,,5c919a87707ed900018591e3,39,2022-02-12_16h56.59.584,lexical_decision_task_DD,2021.2.3,Win32,60.63545962,,,,,,,,,,,1.0622,0,,,,,,,,,,,,,,,,,,,,,,,,-0.193518519,-0.288888889,0,0,0,,,,,,,PEACH,LB,m,m,./images/PEACHLB.png,,,,,,,,,,,,,,,,,,,,,z,0,1.0622,,,,,,,,0,9,9,35,1
,,,,,,,,,,,,,,,,,5c919a87707ed900018591e3,39,2022-02-12_16h56.59.584,lexical_decision_task_DD,2021.2.3,Win32,60.63545962,,,,,,,,,,,0.9173,1,,,,,,,,,,,,,,,,,,,,,,,,-0.193518519,-0.288888889,0,0,0,,,,,,,KIDNEY,C,m,m,./images/KIDNEY.png,,,,,,,,,,,,,,,,,,,,,m,1,0.9173,,,,,,,,0,10,10,21,1
,,,,,,,,,,,,,,,,,5c919a87707ed900018591e3,39,2022-02-12_16h56.59.584,lexical_decision_task_DD,2021.2.3,Win32,60.63545962,,,,,,,,,,,0.7676,1,,,,,,,,,,,,,,,,,,,,,,,,-0.193518519,-0.288888889,0,0,0,,,,,,,LLAMA,LB,z,m,./images/LLAMALB.png,,,,,,,,,,,,,,,,,,,,,z,1,0.7676,,,,,,,,0,11,11,119,1
,,,,,,,,,,,,,,,,,5c919a87707ed900018591e3,39,2022-02-12_16h56.59.584,lexical_decision_task_DD,2021.2.3,Win32,60.63545962,,,,,,,,,,,0.8339,1,,,,,,,,,,,,,,,,,,,,,,,,-0.193518519,-0.288888889,0,0,0,,,,,,,CHALK,HB,z,m,./images/CHALKHB.png,,,,,,,,,,,,,,,,,,,,,z,1,0.8339,,,,,,,,0,12,12,109,1
,,,,,,,,,,,,,,,,,5c919a87707ed900018591e3,39,2022-02-12_16h56.59.584,lexical_decision_task_DD,2021.2.3,Win32,60.63545962,,,,,,,,,,,0.6072,1,,,,,,,,,,,,,,,,,,,,,,,,-0.193518519,-0.288888889,0,0,0,,,,,,,MAGGOT,C,m,m,./images/MAGGOT.png,,,,,,,,,,,,,,,,,,,,,m,1,0.6072,,,,,,,,0,13,13,33,1
,,,,,,,,,,,,,,,,,5c919a87707ed900018591e3,39,2022-02-12_16h56.59.584,lexical_decision_task_DD,2021.2.3,Win32,60.63545962,,,,,,,,,,,0.8006,0,,,,,,,,,,,,,,,,,,,,,,,,-0.193518519,-0.288888889,0,0,0,,,,,,,DRUMS,HB,m,m,./images/DRUMSHB.png,,,,,,,,,,,,,,,,,,,,,z,0,0.8006,,,,,,,,0,14,14,49,1
,,,,,,,,,,,,,,,,,5c919a87707ed900018591e3,39,2022-02-12_16h56.59.584,lexical_decision_task_DD,2021.2.3,Win32,60.63545962,,,,,,,,,,,0.6918,1,,,,,,,,,,,,,,,,,,,,,,,,-0.193518519,-0.288888889,0,0,0,,,,,,,MELON,HB,m,m,./images/MELONHB.png,,,,,,,,,,,,,,,,,,,,,m,1,0.6918,,,,,,,,0,15,15,22,1
,,,,,,,,,,,,,,,,,5c919a87707ed900018591e3,39,2022-02-12_16h56.59.584,lexical_decision_task_DD,2021.2.3,Win32,60.63545962,,,,,,,,,,,0.5719,1,,,,,,,,,,,,,,,,,,,,,,,,-0.193518519,-0.288888889,0,0,0,,,,,,,FOLDER,C,m,m,./images/FOLDER.png,,,,,,,,,,,,,,,,,,,,,m,1,0.5719,,,,,,,,0,16,16,42,1
,,,,,,,,,,,,,,,,,5c919a87707ed900018591e3,39,2022-02-12_16h56.59.584,lexical_decision_task_DD,2021.2.3,Win32,60.63545962,,,,,,,,,,,0.4794,1,,,,,,,,,,,,,,,,,,,,,,,,-0.193518519,-0.288888889,0,0,0,,,,,,,SQUARE,C,m,m,./images/SQUARE.png,,,,,,,,,,,,,,,,,,,,,m,1,0.4794,,,,,,,,0,17,17,6,1
,,,,,,,,,,,,,,,,,5c919a87707ed900018591e3,39,2022-02-12_16h56.59.584,lexical_decision_task_DD,2021.2.3,Win32,60.63545962,,,,,,,,,,,0.8338,1,,,,,,,,,,,,,,,,,,,,,,,,-0.193518519,-0.288888889,0,0,0,,,,,,,STATUE,C,z,m,./images/STATUE.png,,,,,,,,,,,,,,,,,,,,,z,1,0.8338,,,,,,,,0,18,18,150,1
,,,,,,,,,,,,,,,,,5c919a87707ed900018591e3,39,2022-02-12_16h56.59.584,lexical_decision_task_DD,2021.2.3,Win32,60.63545962,,,,,,,,,,,0.7899,1,,,,,,,,,,,,,,,,,,,,,,,,-0.193518519,-0.288888889,0,0,0,,,,,,,BUNNY,HB,z,m,./images/BUNNYHB.png,,,,,,,,,,,,,,,,,,,,,z,1,0.7899,,,,,,,,0,19,19,97,1
,,,,,,,,,,,,,,,,,5c919a87707ed900018591e3,39,2022-02-12_16h56.59.584,lexical_decision_task_DD,2021.2.3,Win32,60.63545962,,,,,,,,,,,0.6388,1,,,,,,,,,,,,,,,,,,,,,,,,-0.193518519,-0.288888889,0,0,0,,,,,,,TORCH,LB,m,m,./images/TORCHLB.png,,,,,,,,,,,,,,,,,,,,,m,1,0.6388,,,,,,,,0,20,20,68,1
,,,,,,,,,,,,,,,,,5c919a87707ed900018591e3,39,2022-02-12_16h56.59.584,lexical_decision_task_DD,2021.2.3,Win32,60.63545962,,,,,,,,,,,0.8507,1,,,,,,,,,,,,,,,,,,,,,,,,-0.193518519,-0.288888889,0,0,0,,,,,,,ARROW,C,z,m,./images/ARROW.png,,,,,,,,,,,,,,,,,,,,,z,1,0.8507,,,,,,,,0,21,21,153,1
,,,,,,,,,,,,,,,,,5c919a87707ed900018591e3,39,2022-02-12_16h56.59.584,lexical_decision_task_DD,2021.2.3,Win32,60.63545962,,,,,,,,,,,0.7191,0,,,,,,,,,,,,,,,,,,,,,,,,-0.193518519,-0.288888889,0,0,0,,,,,,,CEMENT,LB,m,m,./images/CEMENTLB.png,,,,,,,,,,,,,,,,,,,,,z,0,0.7191,,,,,,,,0,22,22,74,1
,,,,,,,,,,,,,,,,,5c919a87707ed900018591e3,39,2022-02-12_16h56.59.584,lexical_decision_task_DD,2021.2.3,Win32,60.63545962,,,,,,,,,,,0.7369,1,,,,,,,,,,,,,,,,,,,,,,,,-0.193518519,-0.288888889,0,0,0,,,,,,,KITTEN,C,m,m,./images/KITTEN.png,,,,,,,,,,,,,,,,,,,,,m,1,0.7369,,,,,,,,0,23,23,45,1
,,,,,,,,,,,,,,,,,5c919a87707ed900018591e3,39,2022-02-12_16h56.59.584,lexical_decision_task_DD,2021.2.3,Win32,60.63545962,,,,,,,,,,,0.5627,1,,,,,,,,,,,,,,,,,,,,,,,,-0.193518519,-0.288888889,0,0,0,,,,,,,DOUGH,HB,m,m,./images/DOUGHHB.png,,,,,,,,,,,,,,,,,,,,,m,1,0.5627,,,,,,,,0,24,24,19,1
,,,,,,,,,,,,,,,,,5c919a87707ed900018591e3,39,2022-02-12_16h56.59.584,lexical_decision_task_DD,2021.2.3,Win32,60.63545962,,,,,,,,,,,0.5728,1,,,,,,,,,,,,,,,,,,,,,,,,-0.193518519,-0.288888889,0,0,0,,,,,,,GRAIN,C,m,m,./images/GRAIN.png,,,,,,,,,,,,,,,,,,,,,m,1,0.5728,,,,,,,,0,25,25,75,1
,,,,,,,,,,,,,,,,,5c919a87707ed900018591e3,39,2022-02-12_16h56.59.584,lexical_decision_task_DD,2021.2.3,Win32,60.63545962,,,,,,,,,,,0.7698,1,,,,,,,,,,,,,,,,,,,,,,,,-0.193518519,-0.288888889,0,0,0,,,,,,,PASTA,LB,m,m,./images/PASTALB.png,,,,,,,,,,,,,,,,,,,,,m,1,0.7698,,,,,,,,0,26,26,5,1
,,,,,,,,,,,,,,,,,5c919a87707ed900018591e3,39,2022-02-12_16h56.59.584,lexical_decision_task_DD,2021.2.3,Win32,60.63545962,,,,,,,,,,,0.7509,1,,,,,,,,,,,,,,,,,,,,,,,,-0.193518519,-0.288888889,0,0,0,,,,,,,PARADE,LB,z,m,./images/PARADELB.png,,,,,,,,,,,,,,,,,,,,,z,1,0.7509,,,,,,,,0,27,27,101,1
,,,,,,,,,,,,,,,,,5c919a87707ed900018591e3,39,2022-02-12_16h56.59.584,lexical_decision_task_DD,2021.2.3,Win32,60.63545962,,,,,,,,,,,0.7344,1,,,,,,,,,,,,,,,,,,,,,,,,-0.193518519,-0.288888889,0,0,0,,,,,,,WAGON,HB,z,m,./images/WAGONHB.png,,,,,,,,,,,,,,,,,,,,,z,1,0.7344,,,,,,,,0,28,28,91,1
,,,,,,,,,,,,,,,,,5c919a87707ed900018591e3,39,2022-02-12_16h56.59.584,lexical_decision_task_DD,2021.2.3,Win32,60.63545962,,,,,,,,,,,0.7835,1,,,,,,,,,,,,,,,,,,,,,,,,-0.193518519,-0.288888889,0,0,0,,,,,,,PEBBLE,HB,z,m,./images/PEBBLEHB.png,,,,,,,,,,,,,,,,,,,,,z,1,0.7835,,,,,,,,0,29,29,166,1
,,,,,,,,,,,,,,,,,5c919a87707ed900018591e3,39,2022-02-12_16h56.59.584,lexical_decision_task_DD,2021.2.3,Win32,60.63545962,,,,,,,,,,,0.5171,1,,,,,,,,,,,,,,,,,,,,,,,,-0.193518519,-0.288888889,0,0,0,,,,,,,INFANT,HB,m,m,./images/INFANTHB.png,,,,,,,,,,,,,,,,,,,,,m,1,0.5171,,,,,,,,0,30,30,76,1
,,,,,,,,,,,,,,,,,5c919a87707ed900018591e3,39,2022-02-12_16h56.59.584,lexical_decision_task_DD,2021.2.3,Win32,60.63545962,,,,,,,,,,,1.1915,1,,,,,,,,,,,,,,,,,,,,,,,,-0.193518519,-0.288888889,0,0,0,,,,,,,CRUMB,LB,m,m,./images/CRUMBLB.png,,,,,,,,,,,,,,,,,,,,,m,1,1.1915,,,,,,,,0,31,31,29,1
,,,,,,,,,,,,,,,,,5c919a87707ed900018591e3,39,2022-02-12_16h56.59.584,lexical_decision_task_DD,2021.2.3,Win32,60.63545962,,,,,,,,,,,0.6133,1,,,,,,,,,,,,,,,,,,,,,,,,-0.193518519,-0.288888889,0,0,0,,,,,,,SNACK,HB,m,m,./images/SNACKHB.png,,,,,,,,,,,,,,,,,,,,,m,1,0.6133,,,,,,,,0,32,32,73,1
,,,,,,,,,,,,,,,,,5c919a87707ed900018591e3,39,2022-02-12_16h56.59.584,lexical_decision_task_DD,2021.2.3,Win32,60.63545962,,,,,,,,,,,0.6783,1,,,,,,,,,,,,,,,,,,,,,,,,-0.193518519,-0.288888889,0,0,0,,,,,,,WALRUS,LB,m,m,./images/WALRUSLB.png,,,,,,,,,,,,,,,,,,,,,m,1,0.6783,,,,,,,,0,33,33,23,1
,,,,,,,,,,,,,,,,,5c919a87707ed900018591e3,39,2022-02-12_16h56.59.584,lexical_decision_task_DD,2021.2.3,Win32,60.63545962,,,,,,,,,,,0.8344,1,,,,,,,,,,,,,,,,,,,,,,,,-0.193518519,-0.288888889,0,0,0,,,,,,,DRILL,C,z,m,./images/DRILL.png,,,,,,,,,,,,,,,,,,,,,z,1,0.8344,,,,,,,,0,34,34,165,1
,,,,,,,,,,,,,,,,,5c919a87707ed900018591e3,39,2022-02-12_16h56.59.584,lexical_decision_task_DD,2021.2.3,Win32,60.63545962,,,,,,,,,,,0.5917,1,,,,,,,,,,,,,,,,,,,,,,,,-0.193518519,-0.288888889,0,0,0,,,,,,,RHINO,C,m,m,./images/RHINO.png,,,,,,,,,,,,,,,,,,,,,m,1,0.5917,,,,,,,,0,35,35,9,1
,,,,,,,,,,,,,,,,,5c919a87707ed900018591e3,39,2022-02-12_16h56.59.584,lexical_decision_task_DD,2021.2.3,Win32,60.63545962,,,,,,,,,,,0.7626,1,,,,,,,,,,,,,,,,,,,,,,,,-0.193518519,-0.288888889,0,0,0,,,,,,,TIGER,HB,z,m,./images/TIGERHB.png,,,,,,,,,,,,,,,,,,,,,z,1,0.7626,,,,,,,,0,36,36,121,1
,,,,,,,,,,,,,,,,,5c919a87707ed900018591e3,39,2022-02-12_16h56.59.584,lexical_decision_task_DD,2021.2.3,Win32,60.63545962,,,,,,,,,,,0.8007,0,,,,,,,,,,,,,,,,,,,,,,,,-0.193518519,-0.288888889,0,0,0,,,,,,,WEASEL,LB,m,m,./images/WEASELLB.png,,,,,,,,,,,,,,,,,,,,,z,0,0.8007,,,,,,,,0,37,37,80,1
,,,,,,,,,,,,,,,,,5c919a87707ed900018591e3,39,2022-02-12_16h56.59.584,lexical_decision_task_DD,2021.2.3,Win32,60.63545962,,,,,,,,,,,0.9507,1,,,,,,,,,,,,,,,,,,,,,,,,-0.193518519,-0.288888889,0,0,0,,,,,,,STREAM,LB,z,m,./images/STREAMLB.png,,,,,,,,,,,,,,,,,,,,,z,1,0.9507,,,,,,,,0,38,38,125,1
,,,,,,,,,,,,,,,,,5c919a87707ed900018591e3,39,2022-02-12_16h56.59.584,lexical_decision_task_DD,2021.2.3,Win32,60.63545962,,,,,,,,,,,0.7218,1,,,,,,,,,,,,,,,,,,,,,,,,-0.193518519,-0.288888889,0,0,0,,,,,,,CANOE,HB,z,m,./images/CANOEHB.png,,,,,,,,,,,,,,,,,,,,,z,1,0.7218,,,,,,,,0,39,39,142,1
,,,,,,,,,,,,,,,,,5c919a87707ed900018591e3,39,2022-02-12_16h56.59.584,lexical_decision_task_DD,2021.2.3,Win32,60.63545962,,,,,,,,,,,1.3574,0,,,,,,,,,,,,,,,,,,,,,,,,-0.193518519,-0.288888889,0,0,0,,,,,,,PURSE,LB,m,m,./images/PURSELB.png,,,,,,,,,,,,,,,,,,,,,z,0,1.3574,,,,,,,,0,40,40,62,1
,,,,,,,,,,,,,,,,,5c919a87707ed900018591e3,39,2022-02-12_16h56.59.584,lexical_decision_task_DD,2021.2.3,Win32,60.63545962,,,,,,,,,,,0.5844,1,,,,,,,,,,,,,,,,,,,,,,,,-0.193518519,-0.288888889,0,0,0,space,,,,,,TULIP,LB,m,m,./images/TULIPLB.png,42.5116,,,,,,,,,,,,,,,,,,,,m,1,0.5844,,,,,,,,0,41,41,8,1
,,,,,,,,,,,,,,,,,5c919a87707ed900018591e3,39,2022-02-12_16h56.59.584,lexical_decision_task_DD,2021.2.3,Win32,60.63545962,,,,,,,,,,,0.4095,0,,,,,,,,,,,,,,,,,,,,,,,,-0.193518519,-0.288888889,0,0,0,,,,,,,FLASK,C,z,m,./images/FLASK.png,,,,,,,,,,,,,,,,,,,,,m,0,0.4095,,,,,,,,0,42,42,156,1
,,,,,,,,,,,,,,,,,5c919a87707ed900018591e3,39,2022-02-12_16h56.59.584,lexical_decision_task_DD,2021.2.3,Win32,60.63545962,,,,,,,,,,,0.724,1,,,,,,,,,,,,,,,,,,,,,,,,-0.191666667,-0.287962963,0,0,0,,,,,,,LIZARD,LB,m,m,./images/LIZARDLB.png,,,,,,,,,,,,,,,,,,,,,m,1,0.724,,,,,,,,0,43,43,44,1
,,,,,,,,,,,,,,,,,5c919a87707ed900018591e3,39,2022-02-12_16h56.59.584,lexical_decision_task_DD,2021.2.3,Win32,60.63545962,,,,,,,,,,,0.636,0,,,,,,,,,,,,,,,,,,,,,,,,-0.191666667,-0.287962963,0,0,0,,,,,,,FLESH,C,z,m,./images/FLESH.png,,,,,,,,,,,,,,,,,,,,,m,0,0.636,,,,,,,,0,44,44,108,1
,,,,,,,,,,,,,,,,,5c919a87707ed900018591e3,39,2022-02-12_16h56.59.584,lexical_decision_task_DD,2021.2.3,Win32,60.63545962,,,,,,,,,,,0.6421,1,,,,,,,,,,,,,,,,,,,,,,,,-0.191666667,-0.287962963,0,0,0,,,,,,,MALLET,LB,m,m,./images/MALLETLB.png,,,,,,,,,,,,,,,,,,,,,m,1,0.6421,,,,,,,,0,45,45,50,1
,,,,,,,,,,,,,,,,,5c919a87707ed900018591e3,39,2022-02-12_16h56.59.584,lexical_decision_task_DD,2021.2.3,Win32,60.63545962,,,,,,,,,,,0.6173,1,,,,,,,,,,,,,,,,,,,,,,,,-0.191666667,-0.287962963,0,0,0,,,,,,,CLOUD,LB,z,m,./images/CLOUDLB.png,,,,,,,,,,,,,,,,,,,,,z,1,0.6173,,,,,,,,0,46,46,110,1
,,,,,,,,,,,,,,,,,5c919a87707ed900018591e3,39,2022-02-12_16h56.59.584,lexical_decision_task_DD,2021.2.3,Win32,60.63545962,,,,,,,,,,,0.5844,1,,,,,,,,,,,,,,,,,,,,,,,,-0.191666667,-0.286111111,0,0,0,,,,,,,NOOSE,C,m,m,./images/NOOSE.png,,,,,,,,,,,,,,,,,,,,,m,1,0.5844,,,,,,,,0,47,47,72,1
,,,,,,,,,,,,,,,,,5c919a87707ed900018591e3,39,2022-02-12_16h56.59.584,lexical_decision_task_DD,2021.2.3,Win32,60.63545962,,,,,,,,,,,0.7734,0,,,,,,,,,,,,,,,,,,,,,,,,-0.191666667,-0.286111111,0,0,0,,,,,,,TRIPOD,C,m,m,./images/TRIPOD.png,,,,,,,,,,,,,,,,,,,,,z,0,0.7734,,,,,,,,0,48,48,54,1
,,,,,,,,,,,,,,,,,5c919a87707ed900018591e3,39,2022-02-12_16h56.59.584,lexical_decision_task_DD,2021.2.3,Win32,60.63545962,,,,,,,,,,,0.7553,1,,,,,,,,,,,,,,,,,,,,,,,,-0.191666667,-0.286111111,0,0,0,,,,,,,BUTTER,C,z,m,./images/BUTTER.png,,,,,,,,,,,,,,,,,,,,,z,1,0.7553,,,,,,,,0,49,49,111,1
,,,,,,,,,,,,,,,,,5c919a87707ed900018591e3,39,2022-02-12_16h56.59.584,lexical_decision_task_DD,2021.2.3,Win32,60.63545962,,,,,,,,,,,0.6203,1,,,,,,,,,,,,,,,,,,,,,,,,-0.191666667,-0.286111111,0,0,0,,,,,,,CURRY,C,z,m,./images/CURRY.png,,,,,,,,,,,,,,,,,,,,,z,1,0.6203,,,,,,,,0,50,50,144,1
,,,,,,,,,,,,,,,,,5c919a87707ed900018591e3,39,2022-02-12_16h56.59.584,lexical_decision_task_DD,2021.2.3,Win32,60.63545962,,,,,,,,,,,0.8125,0,,,,,,,,,,,,,,,,,,,,,,,,-0.191666667,-0.286111111,0,0,0,,,,,,,CANDLE,HB,m,m,./images/CANDLEHB.png,,,,,,,,,,,,,,,,,,,,,z,0,0.8125,,,,,,,,0,51,51,61,1
,,,,,,,,,,,,,,,,,5c919a87707ed900018591e3,39,2022-02-12_16h56.59.584,lexical_decision_task_DD,2021.2.3,Win32,60.63545962,,,,,,,,,,,0.6672,0,,,,,,,,,,,,,,,,,,,,,,,,-0.191666667,-0.286111111,0,0,0,,,,,,,WRIST,HB,m,m,./images/WRISTHB.png,,,,,,,,,,,,,,,,,,,,,z,0,0.6672,,,,,,,,0,52,52,25,1
,,,,,,,,,,,,,,,,,5c919a87707ed900018591e3,39,2022-02-12_16h56.59.584,lexical_decision_task_DD,2021.2.3,Win32,60.63545962,,,,,,,,,,,0.6696,1,,,,,,,,,,,,,,,,,,,,,,,,-0.191666667,-0.286111111,0,0,0,,,,,,,MUMMY,HB,z,m,./images/MUMMYHB.png,,,,,,,,,,,,,,,,,,,,,z,1,0.6696,,,,,,,,0,53,53,130,1
,,,,,,,,,,,,,,,,,5c919a87707ed900018591e3,39,2022-02-12_16h56.59.584,lexical_decision_task_DD,2021.2.3,Win32,60.63545962,,,,,,,,,,,0.7371,1,,,,,,,,,,,,,,,,,,,,,,,,-0.191666667,-0.286111111,0,0,0,,,,,,,BRIDE,HB,z,m,./images/BRIDEHB.png,,,,,,,,,,,,,,,,,,,,,z,1,0.7371,,,,,,,,0,54,54,148,1
,,,,,,,,,,,,,,,,,5c919a87707ed900018591e3,39,2022-02-12_16h56.59.584,lexical_decision_task_DD,2021.2.3,Win32,60.63545962,,,,,,,,,,,0.8004,0,,,,,,,,,,,,,,,,,,,,,,,,-0.191666667,-0.286111111,0,0,0,,,,,,,TOWEL,HB,z,m,./images/TOWELHB.png,,,,,,,,,,,,,,,,,,,,,m,0,0.8004,,,,,,,,0,55,55,85,1
,,,,,,,,,,,,,,,,,5c919a87707ed900018591e3,39,2022-02-12_16h56.59.584,lexical_decision_task_DD,2021.2.3,Win32,60.63545962,,,,,,,,,,,0.701,1,,,,,,,,,,,,,,,,,,,,,,,,-0.191666667,-0.286111111,0,0,0,,,,,,,URINE,HB,m,m,./images/URINEHB.png,,,,,,,,,,,,,,,,,,,,,m,1,0.701,,,,,,,,0,56,56,70,1
,,,,,,,,,,,,,,,,,5c919a87707ed900018591e3,39,2022-02-12_16h56.59.584,lexical_decision_task_DD,2021.2.3,Win32,60.63545962,,,,,,,,,,,0.6346,1,,,,,,,,,,,,,,,,,,,,,,,,-0.191666667,-0.286111111,0,0,0,,,,,,,LAGOON,LB,z,m,./images/LAGOONLB.png,,,,,,,,,,,,,,,,,,,,,z,1,0.6346,,,,,,,,0,57,57,131,1
,,,,,,,,,,,,,,,,,5c919a87707ed900018591e3,39,2022-02-12_16h56.59.584,lexical_decision_task_DD,2021.2.3,Win32,60.63545962,,,,,,,,,,,0.5344,0,,,,,,,,,,,,,,,,,,,,,,,,-0.191666667,-0.286111111,0,0,0,,,,,,,PLANK,HB,m,m,./images/PLANKHB.png,,,,,,,,,,,,,,,,,,,,,z,0,0.5344,,,,,,,,0,58,58,1,1
,,,,,,,,,,,,,,,,,5c919a87707ed900018591e3,39,2022-02-12_16h56.59.584,lexical_decision_task_DD,2021.2.3,Win32,60.63545962,,,,,,,,,,,0.8449,1,,,,,,,,,,,,,,,,,,,,,,,,-0.191666667,-0.286111111,0,0,0,,,,,,,SAUCE,C,z,m,./images/SAUCE.png,,,,,,,,,,,,,,,,,,,,,z,1,0.8449,,,,,,,,0,59,59,135,1
,,,,,,,,,,,,,,,,,5c919a87707ed900018591e3,39,2022-02-12_16h56.59.584,lexical_decision_task_DD,2021.2.3,Win32,60.63545962,,,,,,,,,,,0.685,1,,,,,,,,,,,,,,,,,,,,,,,,-0.191666667,-0.286111111,0,0,0,,,,,,,GLOVE,HB,z,m,./images/GLOVEHB.png,,,,,,,,,,,,,,,,,,,,,z,1,0.685,,,,,,,,0,60,60,157,1
,,,,,,,,,,,,,,,,,5c919a87707ed900018591e3,39,2022-02-12_16h56.59.584,lexical_decision_task_DD,2021.2.3,Win32,60.63545962,,,,,,,,,,,0.6341,1,,,,,,,,,,,,,,,,,,,,,,,,-0.191666667,-0.286111111,0,0,0,,,,,,,BLOKE,C,z,m,./images/BLOKE.png,,,,,,,,,,,,,,,,,,,,,z,1,0.6341,,,,,,,,0,61,61,96,1
,,,,,,,,,,,,,,,,,5c919a87707ed900018591e3,39,2022-02-12_16h56.59.584,lexical_decision_task_DD,2021.2.3,Win32,60.63545962,,,,,,,,,,,0.5508,0,,,,,,,,,,,,,,,,,,,,,,,,-0.191666667,-0.286111111,0,0,0,,,,,,,PICKLE,LB,m,m,./images/PICKLELB.png,,,,,,,,,,,,,,,,,,,,,z,0,0.5508,,,,,,,,0,62,62,14,1
,,,,,,,,,,,,,,,,,5c919a87707ed900018591e3,39,2022-02-12_16h56.59.584,lexical_decision_task_DD,2021.2.3,Win32,60.63545962,,,,,,,,,,,0.7845,1,,,,,,,,,,,,,,,,,,,,,,,,-0.191666667,-0.286111111,0,0,0,,,,,,,BASKET,LB,z,m,./images/BASKETLB.png,,,,,,,,,,,,,,,,,,,,,z,1,0.7845,,,,,,,,0,63,63,128,1
,,,,,,,,,,,,,,,,,5c919a87707ed900018591e3,39,2022-02-12_16h56.59.584,lexical_decision_task_DD,2021.2.3,Win32,60.63545962,,,,,,,,,,,0.6928,1,,,,,,,,,,,,,,,,,,,,,,,,-0.191666667,-0.286111111,0,0,0,,,,,,,HEATER,LB,z,m,./images/HEATERLB.png,,,,,,,,,,,,,,,,,,,,,z,1,0.6928,,,,,,,,0,64,64,140,1
,,,,,,,,,,,,,,,,,5c919a87707ed900018591e3,39,2022-02-12_16h56.59.584,lexical_decision_task_DD,2021.2.3,Win32,60.63545962,,,,,,,,,,,0.7793,1,,,,,,,,,,,,,,,,,,,,,,,,-0.191666667,-0.286111111,0,0,0,,,,,,,JUMPER,LB,z,m,./images/JUMPERLB.png,,,,,,,,,,,,,,,,,,,,,z,1,0.7793,,,,,,,,0,65,65,158,1
,,,,,,,,,,,,,,,,,5c919a87707ed900018591e3,39,2022-02-12_16h56.59.584,lexical_decision_task_DD,2021.2.3,Win32,60.63545962,,,,,,,,,,,0.6503,1,,,,,,,,,,,,,,,,,,,,,,,,-0.191666667,-0.286111111,0,0,0,,,,,,,LITTER,C,m,m,./images/LITTER.png,,,,,,,,,,,,,,,,,,,,,m,1,0.6503,,,,,,,,0,66,66,78,1
,,,,,,,,,,,,,,,,,5c919a87707ed900018591e3,39,2022-02-12_16h56.59.584,lexical_decision_task_DD,2021.2.3,Win32,60.63545962,,,,,,,,,,,0.7359,1,,,,,,,,,,,,,,,,,,,,,,,,-0.191666667,-0.286111111,0,0,0,,,,,,,GRANNY,LB,z,m,./images/GRANNYLB.png,,,,,,,,,,,,,,,,,,,,,z,1,0.7359,,,,,,,,0,67,67,104,1
,,,,,,,,,,,,,,,,,5c919a87707ed900018591e3,39,2022-02-12_16h56.59.584,lexical_decision_task_DD,2021.2.3,Win32,60.63545962,,,,,,,,,,,0.7275,1,,,,,,,,,,,,,,,,,,,,,,,,-0.191666667,-0.286111111,0,0,0,,,,,,,SWEAT,C,m,m,./images/SWEAT.png,,,,,,,,,,,,,,,,,,,,,m,1,0.7275,,,,,,,,0,68,68,66,1
,,,,,,,,,,,,,,,,,5c919a87707ed900018591e3,39,2022-02-12_16h56.59.584,lexical_decision_task_DD,2021.2.3,Win32,60.63545962,,,,,,,,,,,0.719,1,,,,,,,,,,,,,,,,,,,,,,,,-0.191666667,-0.286111111,0,0,0,,,,,,,MAMMAL,LB,z,m,./images/MAMMALLB.png,,,,,,,,,,,,,,,,,,,,,z,1,0.719,,,,,,,,0,69,69,146,1
,,,,,,,,,,,,,,,,,5c919a87707ed900018591e3,39,2022-02-12_16h56.59.584,lexical_decision_task_DD,2021.2.3,Win32,60.63545962,,,,,,,,,,,0.8519,1,,,,,,,,,,,,,,,,,,,,,,,,-0.191666667,-0.286111111,0,0,0,,,,,,,DESERT,HB,z,m,./images/DESERTHB.png,,,,,,,,,,,,,,,,,,,,,z,1,0.8519,,,,,,,,0,70,70,136,1
,,,,,,,,,,,,,,,,,5c919a87707ed900018591e3,39,2022-02-12_16h56.59.584,lexical_decision_task_DD,2021.2.3,Win32,60.63545962,,,,,,,,,,,0.7505,1,,,,,,,,,,,,,,,,,,,,,,,,-0.191666667,-0.286111111,0,0,0,,,,,,,SCREW,C,m,m,./images/SCREW.png,,,,,,,,,,,,,,,,,,,,,m,1,0.7505,,,,,,,,0,71,71,24,1
,,,,,,,,,,,,,,,,,5c919a87707ed900018591e3,39,2022-02-12_16h56.59.584,lexical_decision_task_DD,2021.2.3,Win32,60.63545962,,,,,,,,,,,0.7464,1,,,,,,,,,,,,,,,,,,,,,,,,-0.191666667,-0.286111111,0,0,0,,,,,,,PILOT,LB,z,m,./images/PILOTLB.png,,,,,,,,,,,,,,,,,,,,,z,1,0.7464,,,,,,,,0,72,72,134,1
,,,,,,,,,,,,,,,,,5c919a87707ed900018591e3,39,2022-02-12_16h56.59.584,lexical_decision_task_DD,2021.2.3,Win32,60.63545962,,,,,,,,,,,0.6842,0,,,,,,,,,,,,,,,,,,,,,,,,-0.191666667,-0.286111111,0,0,0,,,,,,,CARPET,LB,m,m,./images/CARPETLB.png,,,,,,,,,,,,,,,,,,,,,z,0,0.6842,,,,,,,,0,73,73,53,1
,,,,,,,,,,,,,,,,,5c919a87707ed900018591e3,39,2022-02-12_16h56.59.584,lexical_decision_task_DD,2021.2.3,Win32,60.63545962,,,,,,,,,,,0.6176,1,,,,,,,,,,,,,,,,,,,,,,,,-0.191666667,-0.286111111,0,0,0,,,,,,,DONKEY,HB,z,m,./images/DONKEYHB.png,,,,,,,,,,,,,,,,,,,,,z,1,0.6176,,,,,,,,0,74,74,103,1
,,,,,,,,,,,,,,,,,5c919a87707ed900018591e3,39,2022-02-12_16h56.59.584,lexical_decision_task_DD,2021.2.3,Win32,60.63545962,,,,,,,,,,,0.7506,0,,,,,,,,,,,,,,,,,,,,,,,,-0.191666667,-0.286111111,0,0,0,,,,,,,GARDEN,HB,z,m,./images/GARDENHB.png,,,,,,,,,,,,,,,,,,,,,m,0,0.7506,,,,,,,,0,75,75,94,1
,,,,,,,,,,,,,,,,,5c919a87707ed900018591e3,39,2022-02-12_16h56.59.584,lexical_decision_task_DD,2021.2.3,Win32,60.63545962,,,,,,,,,,,0.657,1,,,,,,,,,,,,,,,,,,,,,,,,-0.191666667,-0.286111111,0,0,0,,,,,,,BIRTH,HB,m,m,./images/BIRTHHB.png,,,,,,,,,,,,,,,,,,,,,m,1,0.657,,,,,,,,0,76,76,37,1
,,,,,,,,,,,,,,,,,5c919a87707ed900018591e3,39,2022-02-12_16h56.59.584,lexical_decision_task_DD,2021.2.3,Win32,60.63545962,,,,,,,,,,,0.8222,0,,,,,,,,,,,,,,,,,,,,,,,,-0.191666667,-0.286111111,0,0,0,,,,,,,VALLEY,LB,z,m,./images/VALLEYLB.png,,,,,,,,,,,,,,,,,,,,,m,0,0.8222,,,,,,,,0,77,77,152,1
,,,,,,,,,,,,,,,,,5c919a87707ed900018591e3,39,2022-02-12_16h56.59.584,lexical_decision_task_DD,2021.2.3,Win32,60.63545962,,,,,,,,,,,0.779,0,,,,,,,,,,,,,,,,,,,,,,,,-0.191666667,-0.286111111,0,0,0,,,,,,,MUSCLE,HB,m,m,./images/MUSCLEHB.png,,,,,,,,,,,,,,,,,,,,,z,0,0.779,,,,,,,,0,78,78,4,1
,,,,,,,,,,,,,,,,,5c919a87707ed900018591e3,39,2022-02-12_16h56.59.584,lexical_decision_task_DD,2021.2.3,Win32,60.63545962,,,,,,,,,,,0.6728,1,,,,,,,,,,,,,,,,,,,,,,,,-0.191666667,-0.286111111,0,0,0,,,,,,,MIDGET,HB,z,m,./images/MIDGETHB.png,,,,,,,,,,,,,,,,,,,,,z,1,0.6728,,,,,,,,0,79,79,160,1
,,,,,,,,,,,,,,,,,5c919a87707ed900018591e3,39,2022-02-12_16h56.59.584,lexical_decision_task_DD,2021.2.3,Win32,60.63545962,,,,,,,,,,,1.1682,0,,,,,,,,,,,,,,,,,,,,,,,,-0.191666667,-0.286111111,0,0,0,,,,,,,STOOL,HB,z,m,./images/STOOLHB.png,,,,,,,,,,,,,,,,,,,,,m,0,1.1682,,,,,,,,0,80,80,127,1
,,,,,,,,,,,,,,,,,5c919a87707ed900018591e3,39,2022-02-12_16h56.59.584,lexical_decision_task_DD,2021.2.3,Win32,60.63545962,,,,,,,,,,,0.8118,1,,,,,,,,,,,,,,,,,,,,,,,,-0.191666667,-0.286111111,0,0,0,,,,,,,BRUSH,LB,z,m,./images/BRUSHLB.png,,,,,,,,,,,,,,,,,,,,,z,1,0.8118,,,,,,,,0,81,81,143,1
,,,,,,,,,,,,,,,,,5c919a87707ed900018591e3,39,2022-02-12_16h56.59.584,lexical_decision_task_DD,2021.2.3,Win32,60.63545962,,,,,,,,,,,0.6517,1,,,,,,,,,,,,,,,,,,,,,,,,-0.191666667,-0.286111111,0,0,0,,,,,,,CRATER,C,z,m,./images/CRATER.png,,,,,,,,,,,,,,,,,,,,,z,1,0.6517,,,,,,,,0,82,82,87,1
,,,,,,,,,,,,,,,,,5c919a87707ed900018591e3,39,2022-02-12_16h56.59.584,lexical_decision_task_DD,2021.2.3,Win32,60.63545962,,,,,,,,,,,0.5854,0,,,,,,,,,,,,,,,,,,,,,,,,-0.191666667,-0.286111111,0,0,0,space,,,,,,BAMBOO,LB,z,m,./images/BAMBOOLB.png,103.4933,,,,,,,,,,,,,,,,,,,,m,0,0.5854,,,,,,,,0,83,83,89,1
,,,,,,,,,,,,,,,,,5c919a87707ed900018591e3,39,2022-02-12_16h56.59.584,lexical_decision_task_DD,2021.2.3,Win32,60.63545962,,,,,,,,,,,0.6107,1,,,,,,,,,,,,,,,,,,,,,,,,-0.191666667,-0.286111111,0,0,0,,,,,,,BEARD,LB,m,m,./images/BEARDLB.png,,,,,,,,,,,,,,,,,,,,,m,1,0.6107,,,,,,,,0,84,84,2,1
,,,,,,,,,,,,,,,,,5c919a87707ed900018591e3,39,2022-02-12_16h56.59.584,lexical_decision_task_DD,2021.2.3,Win32,60.63545962,,,,,,,,,,,0.6047,0,,,,,,,,,,,,,,,,,,,,,,,,-0.191666667,-0.286111111,0,0,0,,,,,,,SNAKE,HB,z,m,./images/SNAKEHB.png,,,,,,,,,,,,,,,,,,,,,m,0,0.6047,,,,,,,,0,85,85,124,1
,,,,,,,,,,,,,,,,,5c919a87707ed900018591e3,39,2022-02-12_16h56.59.584,lexical_decision_task_DD,2021.2.3,Win32,60.63545962,,,,,,,,,,,0.6744,1,,,,,,,,,,,,,,,,,,,,,,,,-0.191666667,-0.286111111,0,0,0,,,,,,,CRADLE,LB,m,m,./images/CRADLELB.png,,,,,,,,,,,,,,,,,,,,,m,1,0.6744,,,,,,,,0,86,86,20,1
,,,,,,,,,,,,,,,,,5c919a87707ed900018591e3,39,2022-02-12_16h56.59.584,lexical_decision_task_DD,2021.2.3,Win32,60.63545962,,,,,,,,,,,0.6373,1,,,,,,,,,,,,,,,,,,,,,,,,-0.191666667,-0.286111111,0,0,0,,,,,,,BONNET,LB,m,m,./images/BONNETLB.png,,,,,,,,,,,,,,,,,,,,,m,1,0.6373,,,,,,,,0,87,87,11,1
,,,,,,,,,,,,,,,,,5c919a87707ed900018591e3,39,2022-02-12_16h56.59.584,lexical_decision_task_DD,2021.2.3,Win32,60.63545962,,,,,,,,,,,0.5173,1,,,,,,,,,,,,,,,,,,,,,,,,-0.191666667,-0.286111111,0,0,0,,,,,,,JUNGLE,LB,m,m,./images/JUNGLELB.png,,,,,,,,,,,,,,,,,,,,,m,1,0.5173,,,,,,,,0,88,88,83,1
,,,,,,,,,,,,,,,,,5c919a87707ed900018591e3,39,2022-02-12_16h56.59.584,lexical_decision_task_DD,2021.2.3,Win32,60.63545962,,,,,,,,,,,0.5846,1,,,,,,,,,,,,,,,,,,,,,,,,-0.191666667,-0.286111111,0,0,0,,,,,,,BABOON,HB,m,m,./images/BABOONHB.png,,,,,,,,,,,,,,,,,,,,,m,1,0.5846,,,,,,,,0,89,89,58,1
,,,,,,,,,,,,,,,,,5c919a87707ed900018591e3,39,2022-02-12_16h56.59.584,lexical_decision_task_DD,2021.2.3,Win32,60.63545962,,,,,,,,,,,0.8007,0,,,,,,,,,,,,,,,,,,,,,,,,-0.191666667,-0.286111111,0,0,0,,,,,,,CANYON,HB,m,m,./images/CANYONHB.png,,,,,,,,,,,,,,,,,,,,,z,0,0.8007,,,,,,,,0,90,90,34,1
,,,,,,,,,,,,,,,,,5c919a87707ed900018591e3,39,2022-02-12_16h56.59.584,lexical_decision_task_DD,2021.2.3,Win32,60.63545962,,,,,,,,,,,0.6842,1,,,,,,,,,,,,,,,,,,,,,,,,-0.191666667,-0.286111111,0,0,0,,,,,,,SKIING,LB,m,m,./images/SKIINGLB.png,,,,,,,,,,,,,,,,,,,,,m,1,0.6842,,,,,,,,0,91,91,17,1
,,,,,,,,,,,,,,,,,5c919a87707ed900018591e3,39,2022-02-12_16h56.59.584,lexical_decision_task_DD,2021.2.3,Win32,60.63545962,,,,,,,,,,,0.6528,1,,,,,,,,,,,,,,,,,,,,,,,,-0.191666667,-0.286111111,0,0,0,,,,,,,FINGER,C,m,m,./images/FINGER.png,,,,,,,,,,,,,,,,,,,,,m,1,0.6528,,,,,,,,0,92,92,3,1
,,,,,,,,,,,,,,,,,5c919a87707ed900018591e3,39,2022-02-12_16h56.59.584,lexical_decision_task_DD,2021.2.3,Win32,60.63545962,,,,,,,,,,,0.6516,1,,,,,,,,,,,,,,,,,,,,,,,,-0.191666667,-0.286111111,0,0,0,,,,,,,PEARL,HB,m,m,./images/PEARLHB.png,,,,,,,,,,,,,,,,,,,,,m,1,0.6516,,,,,,,,0,93,93,46,1
,,,,,,,,,,,,,,,,,5c919a87707ed900018591e3,39,2022-02-12_16h56.59.584,lexical_decision_task_DD,2021.2.3,Win32,60.63545962,,,,,,,,,,,0.6766,1,,,,,,,,,,,,,,,,,,,,,,,,-0.191666667,-0.286111111,0,0,0,,,,,,,PISTOL,LB,z,m,./images/PISTOLLB.png,,,,,,,,,,,,,,,,,,,,,z,1,0.6766,,,,,,,,0,94,94,113,1
,,,,,,,,,,,,,,,,,5c919a87707ed900018591e3,39,2022-02-12_16h56.59.584,lexical_decision_task_DD,2021.2.3,Win32,60.63545962,,,,,,,,,,,0.7546,0,,,,,,,,,,,,,,,,,,,,,,,,-0.191666667,-0.286111111,0,0,0,,,,,,,BERRY,LB,m,m,./images/BERRYLB.png,,,,,,,,,,,,,,,,,,,,,z,0,0.7546,,,,,,,,0,95,95,47,1
,,,,,,,,,,,,,,,,,5c919a87707ed900018591e3,39,2022-02-12_16h56.59.584,lexical_decision_task_DD,2021.2.3,Win32,60.63545962,,,,,,,,,,,0.6389,1,,,,,,,,,,,,,,,,,,,,,,,,-0.191666667,-0.286111111,0,0,0,,,,,,,RULER,HB,z,m,./images/RULERHB.png,,,,,,,,,,,,,,,,,,,,,z,1,0.6389,,,,,,,,0,96,96,163,1
,,,,,,,,,,,,,,,,,5c919a87707ed900018591e3,39,2022-02-12_16h56.59.584,lexical_decision_task_DD,2021.2.3,Win32,60.63545962,,,,,,,,,,,0.76,1,,,,,,,,,,,,,,,,,,,,,,,,-0.191666667,-0.286111111,0,0,0,,,,,,,QUILL,HB,m,m,./images/QUILLHB.png,,,,,,,,,,,,,,,,,,,,,m,1,0.76,,,,,,,,0,97,97,31,1
,,,,,,,,,,,,,,,,,5c919a87707ed900018591e3,39,2022-02-12_16h56.59.584,lexical_decision_task_DD,2021.2.3,Win32,60.63545962,,,,,,,,,,,0.7789,0,,,,,,,,,,,,,,,,,,,,,,,,-0.191666667,-0.286111111,0,0,0,,,,,,,GREASE,C,m,m,./images/GREASE.png,,,,,,,,,,,,,,,,,,,,,z,0,0.7789,,,,,,,,0,98,98,15,1
,,,,,,,,,,,,,,,,,5c919a87707ed900018591e3,39,2022-02-12_16h56.59.584,lexical_decision_task_DD,2021.2.3,Win32,60.63545962,,,,,,,,,,,0.6119,1,,,,,,,,,,,,,,,,,,,,,,,,-0.191666667,-0.286111111,0,0,0,,,,,,,POODLE,C,m,m,./images/POODLE.png,,,,,,,,,,,,,,,,,,,,,m,1,0.6119,,,,,,,,0,99,99,81,1
,,,,,,,,,,,,,,,,,5c919a87707ed900018591e3,39,2022-02-12_16h56.59.584,lexical_decision_task_DD,2021.2.3,Win32,60.63545962,,,,,,,,,,,0.8846,1,,,,,,,,,,,,,,,,,,,,,,,,-0.191666667,-0.286111111,0,0,0,,,,,,,ATTIC,C,m,m,./images/ATTIC.png,,,,,,,,,,,,,,,,,,,,,m,1,0.8846,,,,,,,,0,100,100,27,1
,,,,,,,,,,,,,,,,,5c919a87707ed900018591e3,39,2022-02-12_16h56.59.584,lexical_decision_task_DD,2021.2.3,Win32,60.63545962,,,,,,,,,,,0.5717,1,,,,,,,,,,,,,,,,,,,,,,,,-0.191666667,-0.286111111,0,0,0,,,,,,,LADDER,LB,m,m,./images/LADDERLB.png,,,,,,,,,,,,,,,,,,,,,m,1,0.5717,,,,,,,,0,101,101,38,1
,,,,,,,,,,,,,,,,,5c919a87707ed900018591e3,39,2022-02-12_16h56.59.584,lexical_decision_task_DD,2021.2.3,Win32,60.63545962,,,,,,,,,,,0.7189,1,,,,,,,,,,,,,,,,,,,,,,,,-0.191666667,-0.286111111,0,0,0,,,,,,,GRAPE,HB,z,m,./images/GRAPEHB.png,,,,,,,,,,,,,,,,,,,,,z,1,0.7189,,,,,,,,0,102,102,100,1
,,,,,,,,,,,,,,,,,5c919a87707ed900018591e3,39,2022-02-12_16h56.59.584,lexical_decision_task_DD,2021.2.3,Win32,60.63545962,,,,,,,,,,,0.6222,1,,,,,,,,,,,,,,,,,,,,,,,,-0.191666667,-0.286111111,0,0,0,,,,,,,SPORT,C,m,m,./images/SPORT.png,,,,,,,,,,,,,,,,,,,,,m,1,0.6222,,,,,,,,0,103,103,48,1
,,,,,,,,,,,,,,,,,5c919a87707ed900018591e3,39,2022-02-12_16h56.59.584,lexical_decision_task_DD,2021.2.3,Win32,60.63545962,,,,,,,,,,,0.8505,0,,,,,,,,,,,,,,,,,,,,,,,,-0.191666667,-0.286111111,0,0,0,,,,,,,MUFFIN,HB,m,m,./images/MUFFINHB.png,,,,,,,,,,,,,,,,,,,,,z,0,0.8505,,,,,,,,0,104,104,55,1
,,,,,,,,,,,,,,,,,5c919a87707ed900018591e3,39,2022-02-12_16h56.59.584,lexical_decision_task_DD,2021.2.3,Win32,60.63545962,,,,,,,,,,,0.734,1,,,,,,,,,,,,,,,,,,,,,,,,-0.191666667,-0.286111111,0,0,0,,,,,,,SPINE,LB,z,m,./images/SPINELB.png,,,,,,,,,,,,,,,,,,,,,z,1,0.734,,,,,,,,0,105,105,149,1
,,,,,,,,,,,,,,,,,5c919a87707ed900018591e3,39,2022-02-12_16h56.59.584,lexical_decision_task_DD,2021.2.3,Win32,60.63545962,,,,,,,,,,,0.7507,1,,,,,,,,,,,,,,,,,,,,,,,,-0.191666667,-0.286111111,0,0,0,,,,,,,CHERRY,C,z,m,./images/CHERRY.png,,,,,,,,,,,,,,,,,,,,,z,1,0.7507,,,,,,,,0,106,106,138,1
,,,,,,,,,,,,,,,,,5c919a87707ed900018591e3,39,2022-02-12_16h56.59.584,lexical_decision_task_DD,2021.2.3,Win32,60.63545962,,,,,,,,,,,0.7754,1,,,,,,,,,,,,,,,,,,,,,,,,-0.191666667,-0.286111111,0,0,0,,,,,,,WHEEL,LB,z,m,./images/WHEELLB.png,,,,,,,,,,,,,,,,,,,,,z,1,0.7754,,,,,,,,0,107,107,161,1
,,,,,,,,,,,,,,,,,5c919a87707ed900018591e3,39,2022-02-12_16h56.59.584,lexical_decision_task_DD,2021.2.3,Win32,60.63545962,,,,,,,,,,,0.7877,1,,,,,,,,,,,,,,,,,,,,,,,,-0.191666667,-0.286111111,0,0,0,,,,,,,CLIFF,LB,z,m,./images/CLIFFLB.png,,,,,,,,,,,,,,,,,,,,,z,1,0.7877,,,,,,,,0,108,108,92,1
,,,,,,,,,,,,,,,,,5c919a87707ed900018591e3,39,2022-02-12_16h56.59.584,lexical_decision_task_DD,2021.2.3,Win32,60.63545962,,,,,,,,,,,0.6671,1,,,,,,,,,,,,,,,,,,,,,,,,-0.191666667,-0.286111111,0,0,0,,,,,,,BANNER,HB,m,m,./images/BANNERHB.png,,,,,,,,,,,,,,,,,,,,,m,1,0.6671,,,,,,,,0,109,109,52,1
,,,,,,,,,,,,,,,,,5c919a87707ed900018591e3,39,2022-02-12_16h56.59.584,lexical_decision_task_DD,2021.2.3,Win32,60.63545962,,,,,,,,,,,0.6504,1,,,,,,,,,,,,,,,,,,,,,,,,-0.191666667,-0.286111111,0,0,0,,,,,,,BURIAL,LB,m,m,./images/BURIALLB.png,,,,,,,,,,,,,,,,,,,,,m,1,0.6504,,,,,,,,0,110,110,59,1
,,,,,,,,,,,,,,,,,5c919a87707ed900018591e3,39,2022-02-12_16h56.59.584,lexical_decision_task_DD,2021.2.3,Win32,60.63545962,,,,,,,,,,,0.7259,1,,,,,,,,,,,,,,,,,,,,,,,,-0.191666667,-0.286111111,0,0,0,,,,,,,CLOTH,LB,z,m,./images/CLOTHLB.png,,,,,,,,,,,,,,,,,,,,,z,1,0.7259,,,,,,,,0,111,111,107,1
,,,,,,,,,,,,,,,,,5c919a87707ed900018591e3,39,2022-02-12_16h56.59.584,lexical_decision_task_DD,2021.2.3,Win32,60.63545962,,,,,,,,,,,0.5673,1,,,,,,,,,,,,,,,,,,,,,,,,-0.191666667,-0.286111111,0,0,0,,,,,,,FALCON,HB,m,m,./images/FALCONHB.png,,,,,,,,,,,,,,,,,,,,,m,1,0.5673,,,,,,,,0,112,112,28,1
,,,,,,,,,,,,,,,,,5c919a87707ed900018591e3,39,2022-02-12_16h56.59.584,lexical_decision_task_DD,2021.2.3,Win32,60.63545962,,,,,,,,,,,0.8765,1,,,,,,,,,,,,,,,,,,,,,,,,-0.191666667,-0.286111111,0,0,0,,,,,,,CHAIN,C,z,m,./images/CHAIN.png,,,,,,,,,,,,,,,,,,,,,z,1,0.8765,,,,,,,,0,113,113,126,1
,,,,,,,,,,,,,,,,,5c919a87707ed900018591e3,39,2022-02-12_16h56.59.584,lexical_decision_task_DD,2021.2.3,Win32,60.63545962,,,,,,,,,,,1.0783,1,,,,,,,,,,,,,,,,,,,,,,,,-0.191666667,-0.286111111,0,0,0,,,,,,,WALNUT,C,z,m,./images/WALNUT.png,,,,,,,,,,,,,,,,,,,,,z,1,1.0783,,,,,,,,0,114,114,84,1
,,,,,,,,,,,,,,,,,5c919a87707ed900018591e3,39,2022-02-12_16h56.59.584,lexical_decision_task_DD,2021.2.3,Win32,60.63545962,,,,,,,,,,,0.6839,1,,,,,,,,,,,,,,,,,,,,,,,,-0.191666667,-0.286111111,0,0,0,,,,,,,PARCEL,C,z,m,./images/PARCEL.png,,,,,,,,,,,,,,,,,,,,,z,1,0.6839,,,,,,,,0,115,115,102,1
,,,,,,,,,,,,,,,,,5c919a87707ed900018591e3,39,2022-02-12_16h56.59.584,lexical_decision_task_DD,2021.2.3,Win32,60.63545962,,,,,,,,,,,0.9272,0,,,,,,,,,,,,,,,,,,,,,,,,-0.191666667,-0.286111111,0,0,0,,,,,,,CRUST,HB,m,m,./images/CRUSTHB.png,,,,,,,,,,,,,,,,,,,,,z,0,0.9272,,,,,,,,0,116,116,79,1
,,,,,,,,,,,,,,,,,5c919a87707ed900018591e3,39,2022-02-12_16h56.59.584,lexical_decision_task_DD,2021.2.3,Win32,60.63545962,,,,,,,,,,,0.9742,1,,,,,,,,,,,,,,,,,,,,,,,,-0.191666667,-0.286111111,0,0,0,,,,,,,MEDAL,LB,z,m,./images/MEDALLB.png,,,,,,,,,,,,,,,,,,,,,z,1,0.9742,,,,,,,,0,117,117,95,1
,,,,,,,,,,,,,,,,,5c919a87707ed900018591e3,39,2022-02-12_16h56.59.584,lexical_decision_task_DD,2021.2.3,Win32,60.63545962,,,,,,,,,,,0.752,0,,,,,,,,,,,,,,,,,,,,,,,,-0.191666667,-0.286111111,0,0,0,,,,,,,STAIN,C,z,m,./images/STAIN.png,,,,,,,,,,,,,,,,,,,,,m,0,0.752,,,,,,,,0,118,118,90,1
,,,,,,,,,,,,,,,,,5c919a87707ed900018591e3,39,2022-02-12_16h56.59.584,lexical_decision_task_DD,2021.2.3,Win32,60.63545962,,,,,,,,,,,1.1837,0,,,,,,,,,,,,,,,,,,,,,,,,-0.191666667,-0.286111111,0,0,0,,,,,,,BROOM,C,z,m,./images/BROOM.png,,,,,,,,,,,,,,,,,,,,,m,0,1.1837,,,,,,,,0,119,119,162,1
,,,,,,,,,,,,,,,,,5c919a87707ed900018591e3,39,2022-02-12_16h56.59.584,lexical_decision_task_DD,2021.2.3,Win32,60.63545962,,,,,,,,,,,0.8268,0,,,,,,,,,,,,,,,,,,,,,,,,-0.191666667,-0.286111111,0,0,0,,,,,,,BOILER,C,z,m,./images/BOILER.png,,,,,,,,,,,,,,,,,,,,,m,0,0.8268,,,,,,,,0,120,120,120,1
,,,,,,,,,,,,,,,,,5c919a87707ed900018591e3,39,2022-02-12_16h56.59.584,lexical_decision_task_DD,2021.2.3,Win32,60.63545962,,,,,,,,,,,0.7095,1,,,,,,,,,,,,,,,,,,,,,,,,-0.191666667,-0.286111111,0,0,0,,,,,,,COOKER,C,m,m,./images/COOKER.png,,,,,,,,,,,,,,,,,,,,,m,1,0.7095,,,,,,,,0,121,121,69,1
,,,,,,,,,,,,,,,,,5c919a87707ed900018591e3,39,2022-02-12_16h56.59.584,lexical_decision_task_DD,2021.2.3,Win32,60.63545962,,,,,,,,,,,0.7093,1,,,,,,,,,,,,,,,,,,,,,,,,-0.191666667,-0.286111111,0,0,0,,,,,,,STRING,LB,m,m,./images/STRINGLB.png,,,,,,,,,,,,,,,,,,,,,m,1,0.7093,,,,,,,,0,122,122,41,1
,,,,,,,,,,,,,,,,,5c919a87707ed900018591e3,39,2022-02-12_16h56.59.584,lexical_decision_task_DD,2021.2.3,Win32,60.63545962,,,,,,,,,,,0.868,1,,,,,,,,,,,,,,,,,,,,,,,,-0.191666667,-0.286111111,0,0,0,,,,,,,FARMER,LB,m,m,./images/FARMERLB.png,,,,,,,,,,,,,,,,,,,,,m,1,0.868,,,,,,,,0,123,123,65,1
,,,,,,,,,,,,,,,,,5c919a87707ed900018591e3,39,2022-02-12_16h56.59.584,lexical_decision_task_DD,2021.2.3,Win32,60.63545962,,,,,,,,,,,0.7113,1,,,,,,,,,,,,,,,,,,,,,,,,-0.191666667,-0.286111111,0,0,0,,,,,,,SAILOR,HB,m,m,./images/SAILORHB.png,,,,,,,,,,,,,,,,,,,,,m,1,0.7113,,,,,,,,0,124,124,67,1
,,,,,,,,,,,,,,,,,5c919a87707ed900018591e3,39,2022-02-12_16h56.59.584,lexical_decision_task_DD,2021.2.3,Win32,60.63545962,,,,,,,,,,,0.8902,0,,,,,,,,,,,,,,,,,,,,,,,,-0.191666667,-0.286111111,0,0,0,space,,,,,,COLLAR,C,z,m,./images/COLLAR.png,31.7811,,,,,,,,,,,,,,,,,,,,m,0,0.8902,,,,,,,,0,125,125,99,1
,,,,,,,,,,,,,,,,,5c919a87707ed900018591e3,39,2022-02-12_16h56.59.584,lexical_decision_task_DD,2021.2.3,Win32,60.63545962,,,,,,,,,,,0.7516,0,,,,,,,,,,,,,,,,,,,,,,,,-0.191666667,-0.286111111,0,0,0,,,,,,,BOXER,HB,z,m,./images/BOXERHB.png,,,,,,,,,,,,,,,,,,,,,m,0,0.7516,,,,,,,,0,126,126,88,1
,,,,,,,,,,,,,,,,,5c919a87707ed900018591e3,39,2022-02-12_16h56.59.584,lexical_decision_task_DD,2021.2.3,Win32,60.63545962,,,,,,,,,,,0.5766,0,,,,,,,,,,,,,,,,,,,,,,,,-0.191666667,-0.286111111,0,0,0,,,,,,,STEAK,HB,z,m,./images/STEAKHB.png,,,,,,,,,,,,,,,,,,,,,m,0,0.5766,,,,,,,,0,127,127,115,1
,,,,,,,,,,,,,,,,,5c919a87707ed900018591e3,39,2022-02-12_16h56.59.584,lexical_decision_task_DD,2021.2.3,Win32,60.63545962,,,,,,,,,,,0.5593,1,,,,,,,,,,,,,,,,,,,,,,,,-0.191666667,-0.286111111,0,0,0,,,,,,,SHORE,C,m,m,./images/SHORE.png,,,,,,,,,,,,,,,,,,,,,m,1,0.5593,,,,,,,,0,128,128,12,1
,,,,,,,,,,,,,,,,,5c919a87707ed900018591e3,39,2022-02-12_16h56.59.584,lexical_decision_task_DD,2021.2.3,Win32,60.63545962,,,,,,,,,,,0.4832,0,,,,,,,,,,,,,,,,,,,,,,,,-0.191666667,-0.286111111,0,0,0,,,,,,,SLOPE,C,z,m,./images/SLOPE.png,,,,,,,,,,,,,,,,,,,,,m,0,0.4832,,,,,,,,0,129,129,114,1
,,,,,,,,,,,,,,,,,5c919a87707ed900018591e3,39,2022-02-12_16h56.59.584,lexical_decision_task_DD,2021.2.3,Win32,60.63545962,,,,,,,,,,,0.6057,0,,,,,,,,,,,,,,,,,,,,,,,,-0.191666667,-0.286111111,0,0,0,,,,,,,DANCER,C,z,m,./images/DANCER.png,,,,,,,,,,,,,,,,,,,,,m,0,0.6057,,,,,,,,0,130,130,105,1
,,,,,,,,,,,,,,,,,5c919a87707ed900018591e3,39,2022-02-12_16h56.59.584,lexical_decision_task_DD,2021.2.3,Win32,60.63545962,,,,,,,,,,,0.7106,1,,,,,,,,,,,,,,,,,,,,,,,,-0.191666667,-0.286111111,0,0,0,,,,,,,SWING,HB,m,m,./images/SWINGHB.png,,,,,,,,,,,,,,,,,,,,,m,1,0.7106,,,,,,,,0,131,131,40,1
,,,,,,,,,,,,,,,,,5c919a87707ed900018591e3,39,2022-02-12_16h56.59.584,lexical_decision_task_DD,2021.2.3,Win32,60.63545962,,,,,,,,,,,0.6345,0,,,,,,,,,,,,,,,,,,,,,,,,-0.191666667,-0.286111111,0,0,0,,,,,,,PENCE,HB,m,m,./images/PENCEHB.png,,,,,,,,,,,,,,,,,,,,,z,0,0.6345,,,,,,,,0,132,132,16,1
,,,,,,,,,,,,,,,,,5c919a87707ed900018591e3,39,2022-02-12_16h56.59.584,lexical_decision_task_DD,2021.2.3,Win32,60.63545962,,,,,,,,,,,1.5884,1,,,,,,,,,,,,,,,,,,,,,,,,-0.191666667,-0.286111111,0,0,0,,,,,,,STOVE,LB,z,m,./images/STOVELB.png,,,,,,,,,,,,,,,,,,,,,z,1,1.5884,,,,,,,,0,133,133,86,1
,,,,,,,,,,,,,,,,,5c919a87707ed900018591e3,39,2022-02-12_16h56.59.584,lexical_decision_task_DD,2021.2.3,Win32,60.63545962,,,,,,,,,,,0.5952,1,,,,,,,,,,,,,,,,,,,,,,,,-0.191666667,-0.286111111,0,0,0,,,,,,,COUCH,LB,m,m,./images/COUCHLB.png,,,,,,,,,,,,,,,,,,,,,m,1,0.5952,,,,,,,,0,134,134,77,1
