key_resp.keys,instr_done_touch.x,instr_done_touch.y,instr_done_touch.leftButton,instr_done_touch.midButton,instr_done_touch.rightButton,instr_done_touch.clicked_name,instruction_pages.thisRepN,instruction_pages.thisTrialN,instruction_pages.thisN,instruction_pages.thisIndex,instruction_pages.ran,pageN,phase,instruct_text,has_image,instruct_image,participant,age,date,expName,psychopyVersion,OS,frameRate,response.keys,response.corr,response.rt,touch_resp.x,touch_resp.y,touch_resp.leftButton,touch_resp.midButton,touch_resp.rightButton,touch_resp.time,touch_resp.clicked_name,rt,corr,practrials.thisRepN,practrials.thisTrialN,practrials.thisN,practrials.thisIndex,practrials.ran,TrialID,Target,corrAns,key_resp.rt,end_of_practice_trials_pages.thisRepN,end_of_practice_trials_pages.thisTrialN,end_of_practice_trials_pages.thisN,end_of_practice_trials_pages.thisIndex,end_of_practice_trials_pages.ran,key_resp_2.keys,key_resp_2.corr,key_resp_2.rt,targ_click.x,targ_click.y,targ_click.leftButton,targ_click.midButton,targ_click.rightButton,targ_click.time,targ_click.clicked_name,break_done_touch.x,break_done_touch.y,break_done_touch.leftButton,break_done_touch.midButton,break_done_touch.rightButton,break_done_keyboard.keys,maintrials.thisRepN,maintrials.thisTrialN,maintrials.thisN,maintrials.thisIndex,maintrials.ran,string,blur,study,lex,stim_path,break_done_keyboard.rt,mouse_2.x,mouse_2.y,mouse_2.leftButton,mouse_2.midButton,mouse_2.rightButton,mouse_2.clicked_name,slider.response,slider.rt,trials.thisRepN,trials.thisTrialN,trials.thisN,trials.thisIndex,trials.ran,test_instructions.thisRepN,test_instructions.thisTrialN,test_instructions.thisN,test_instructions.thisIndex,test_instructions.ran,key_resp_3.keys,key_resp_3.corr,key_resp_3.rt,test_click.x,test_click.y,test_click.leftButton,test_click.midButton,test_click.rightButton,test_click.time,test_click.clicked_name,test_phase.thisRepN,test_phase.thisTrialN,test_phase.thisN,test_phase.thisIndex,test_phase.ran,break_done_touch.clicked_name
,0.077122756,-0.416203216,1,0,0,instr_done_button,0,0,0,0,1,1,instructions,"INSTRUCTIONS
At the start of each trial, look at the plus sign  (+) in the center of the screen.  This tells you that a trial is about to begin and where to look. Second, the plus sign will disappear and a string of letters will appear. Your task is to determine if the string of letters is a word or not. If the item is a word press the M key (on keyboard)  or touch the word button (phone/tablet).  If the item is not a word,  press the  Z key (on keyboard)  or touch the nonword button (on phone/tablet). 
Press the space bar or touch  continue.",0,,5c91b7eabc1a950001fbfdca,20,2022-02-12_12h42.32.959,lexical_decision_task_DD_L6,2021.2.3,Win32,59.86948452,,,,,,,,,,,,,,,,,,,,,,,,,,,,,,,,,,,,,,,,,,,,,,,,,,,,,,,,,,,,,,,,,,,,,,,,,,,,,,,,,,,,,,,
,0.070448674,-0.406562875,1,0,0,instr_done_button,0,1,1,1,1,2,instructions,"If your device has a keyboard, press the 'Z' key for nonwords and the 'M' key for words.





Press the space bar or touch the button below to continue.",0,keyboard-example.gif,5c91b7eabc1a950001fbfdca,20,2022-02-12_12h42.32.959,lexical_decision_task_DD_L6,2021.2.3,Win32,59.86948452,,,,,,,,,,,,,,,,,,,,,,,,,,,,,,,,,,,,,,,,,,,,,,,,,,,,,,,,,,,,,,,,,,,,,,,,,,,,,,,,,,,,,,,
,0.070448674,-0.406562875,1,0,0,instr_done_button,0,2,2,2,1,3,instructions,"If you are using a touchscreen only device, use the buttons on the screen. Do not use the mouse.





Press the space bar or touch the button below to continue.",0,touchscreen-example.gif,5c91b7eabc1a950001fbfdca,20,2022-02-12_12h42.32.959,lexical_decision_task_DD_L6,2021.2.3,Win32,59.86948452,,,,,,,,,,,,,,,,,,,,,,,,,,,,,,,,,,,,,,,,,,,,,,,,,,,,,,,,,,,,,,,,,,,,,,,,,,,,,,,,,,,,,,,
,0.070448674,-0.406562875,1,0,0,instr_done_button,0,3,3,3,1,4,instructions,"It is very important that you respond as quickly and accurately as possible, as each letter string will only be on the screen for two seconds. If you do not respond within this time, the message 'Too slow!' will be displayed and the experiment will progress to the next letter string. The first 20 trials will be practice trials and you will receive feedback on your answers. 

Press the space bar or touch the button below to start the practice trials.",0,,5c91b7eabc1a950001fbfdca,20,2022-02-12_12h42.32.959,lexical_decision_task_DD_L6,2021.2.3,Win32,59.86948452,,,,,,,,,,,,,,,,,,,,,,,,,,,,,,,,,,,,,,,,,,,,,,,,,,,,,,,,,,,,,,,,,,,,,,,,,,,,,,,,,,,,,,,
,,,,,,,,,,,,,,,,,5c91b7eabc1a950001fbfdca,20,2022-02-12_12h42.32.959,lexical_decision_task_DD_L6,2021.2.3,Win32,59.86948452,m,1,1.5817,,,,,,,,1.5817,1,0,0,0,2,1,1001,ALMOND,m,,,,,,,,,,,,,,,,,,,,,,,,,,,,,,,,,,,,,,,,,,,,,,,,,,,,,,,,,,,,,,,,,,,
,,,,,,,,,,,,,,,,,5c91b7eabc1a950001fbfdca,20,2022-02-12_12h42.32.959,lexical_decision_task_DD_L6,2021.2.3,Win32,59.86948452,z,1,0.8117,,,,,,,,0.8117,1,0,1,1,9,1,1001,FARINY,z,,,,,,,,,,,,,,,,,,,,,,,,,,,,,,,,,,,,,,,,,,,,,,,,,,,,,,,,,,,,,,,,,,,
,,,,,,,,,,,,,,,,,5c91b7eabc1a950001fbfdca,20,2022-02-12_12h42.32.959,lexical_decision_task_DD_L6,2021.2.3,Win32,59.86948452,m,1,0.5505,,,,,,,,0.5505,1,0,2,2,6,1,1001,ZOMBIE,m,,,,,,,,,,,,,,,,,,,,,,,,,,,,,,,,,,,,,,,,,,,,,,,,,,,,,,,,,,,,,,,,,,,
,,,,,,,,,,,,,,,,,5c91b7eabc1a950001fbfdca,20,2022-02-12_12h42.32.959,lexical_decision_task_DD_L6,2021.2.3,Win32,59.86948452,m,1,0.8219,,,,,,,,0.8219,1,0,3,3,0,1,1001,UTOPIA,m,,,,,,,,,,,,,,,,,,,,,,,,,,,,,,,,,,,,,,,,,,,,,,,,,,,,,,,,,,,,,,,,,,,
,,,,,,,,,,,,,,,,,5c91b7eabc1a950001fbfdca,20,2022-02-12_12h42.32.959,lexical_decision_task_DD_L6,2021.2.3,Win32,59.86948452,m,1,0.5658,,,,,,,,0.5658,1,0,4,4,7,1,1001,VOLUME,m,,,,,,,,,,,,,,,,,,,,,,,,,,,,,,,,,,,,,,,,,,,,,,,,,,,,,,,,,,,,,,,,,,,
,,,,,,,,,,,,,,,,,5c91b7eabc1a950001fbfdca,20,2022-02-12_12h42.32.959,lexical_decision_task_DD_L6,2021.2.3,Win32,59.86948452,z,1,0.7419,,,,,,,,0.7419,1,0,5,5,13,1,1001,ROUPET,z,,,,,,,,,,,,,,,,,,,,,,,,,,,,,,,,,,,,,,,,,,,,,,,,,,,,,,,,,,,,,,,,,,,
,,,,,,,,,,,,,,,,,5c91b7eabc1a950001fbfdca,20,2022-02-12_12h42.32.959,lexical_decision_task_DD_L6,2021.2.3,Win32,59.86948452,z,1,0.719,,,,,,,,0.719,1,0,6,6,11,1,1001,RASHET,z,,,,,,,,,,,,,,,,,,,,,,,,,,,,,,,,,,,,,,,,,,,,,,,,,,,,,,,,,,,,,,,,,,,
,,,,,,,,,,,,,,,,,5c91b7eabc1a950001fbfdca,20,2022-02-12_12h42.32.959,lexical_decision_task_DD_L6,2021.2.3,Win32,59.86948452,z,1,0.8543,,,,,,,,0.8543,1,0,7,7,10,1,1001,INLADE,z,,,,,,,,,,,,,,,,,,,,,,,,,,,,,,,,,,,,,,,,,,,,,,,,,,,,,,,,,,,,,,,,,,,
,,,,,,,,,,,,,,,,,5c91b7eabc1a950001fbfdca,20,2022-02-12_12h42.32.959,lexical_decision_task_DD_L6,2021.2.3,Win32,59.86948452,m,1,0.607,,,,,,,,0.607,1,0,8,8,5,1,1001,OBTAIN,m,,,,,,,,,,,,,,,,,,,,,,,,,,,,,,,,,,,,,,,,,,,,,,,,,,,,,,,,,,,,,,,,,,,
,,,,,,,,,,,,,,,,,5c91b7eabc1a950001fbfdca,20,2022-02-12_12h42.32.959,lexical_decision_task_DD_L6,2021.2.3,Win32,59.86948452,z,1,0.6549,,,,,,,,0.6549,1,0,9,9,14,1,1001,THRALE,z,,,,,,,,,,,,,,,,,,,,,,,,,,,,,,,,,,,,,,,,,,,,,,,,,,,,,,,,,,,,,,,,,,,
,,,,,,,,,,,,,,,,,5c91b7eabc1a950001fbfdca,20,2022-02-12_12h42.32.959,lexical_decision_task_DD_L6,2021.2.3,Win32,59.86948452,z,1,0.6683,,,,,,,,0.6683,1,0,10,10,15,1,1001,WHAISE,z,,,,,,,,,,,,,,,,,,,,,,,,,,,,,,,,,,,,,,,,,,,,,,,,,,,,,,,,,,,,,,,,,,,
,,,,,,,,,,,,,,,,,5c91b7eabc1a950001fbfdca,20,2022-02-12_12h42.32.959,lexical_decision_task_DD_L6,2021.2.3,Win32,59.86948452,m,1,0.618,,,,,,,,0.618,1,0,11,11,1,1,1001,ADJUST,m,,,,,,,,,,,,,,,,,,,,,,,,,,,,,,,,,,,,,,,,,,,,,,,,,,,,,,,,,,,,,,,,,,,
,,,,,,,,,,,,,,,,,5c91b7eabc1a950001fbfdca,20,2022-02-12_12h42.32.959,lexical_decision_task_DD_L6,2021.2.3,Win32,59.86948452,z,1,0.7523,,,,,,,,0.7523,1,0,12,12,12,1,1001,SPRINY,z,,,,,,,,,,,,,,,,,,,,,,,,,,,,,,,,,,,,,,,,,,,,,,,,,,,,,,,,,,,,,,,,,,,
,,,,,,,,,,,,,,,,,5c91b7eabc1a950001fbfdca,20,2022-02-12_12h42.32.959,lexical_decision_task_DD_L6,2021.2.3,Win32,59.86948452,m,1,0.8698,,,,,,,,0.8698,1,0,13,13,4,1,1001,SQUEAK,m,,,,,,,,,,,,,,,,,,,,,,,,,,,,,,,,,,,,,,,,,,,,,,,,,,,,,,,,,,,,,,,,,,,
,,,,,,,,,,,,,,,,,5c91b7eabc1a950001fbfdca,20,2022-02-12_12h42.32.959,lexical_decision_task_DD_L6,2021.2.3,Win32,59.86948452,z,1,0.718,,,,,,,,0.718,1,0,14,14,8,1,1001,ASLERT,z,,,,,,,,,,,,,,,,,,,,,,,,,,,,,,,,,,,,,,,,,,,,,,,,,,,,,,,,,,,,,,,,,,,
,,,,,,,,,,,,,,,,,5c91b7eabc1a950001fbfdca,20,2022-02-12_12h42.32.959,lexical_decision_task_DD_L6,2021.2.3,Win32,59.86948452,m,1,0.6898,,,,,,,,0.6898,1,0,15,15,3,1,1001,MATRIX,m,,,,,,,,,,,,,,,,,,,,,,,,,,,,,,,,,,,,,,,,,,,,,,,,,,,,,,,,,,,,,,,,,,,
space,0.26770489,-0.238227682,0,0,0,,,,,,,1,end_of_practice,"You have completed the practice trials. During the experimental trials, you will not receive feedback. 
Before you begin, please ensure that you are in a comfortable and quiet location and will not be disturbed for about 15 minutes, as we cannot use your data if you do not complete all the trials. 
 When you are ready to start the experimental trials, please press space or touch the button below.",,,5c91b7eabc1a950001fbfdca,20,2022-02-12_12h42.32.959,lexical_decision_task_DD_L6,2021.2.3,Win32,59.86948452,,,,,,,,,,,,,,,,,,,,,689.1942,0,0,0,0,1,,,,,,,,,,,,,,,,,,,,,,,,,,,,,,,,,,,,,,,,,,,,,,,,,,,,,,,,,,,,,
,,,,,,,,,,,,,,,,,5c91b7eabc1a950001fbfdca,20,2022-02-12_12h42.32.959,lexical_decision_task_DD_L6,2021.2.3,Win32,59.86948452,,,,,,,,,,,1.1133,1,,,,,,,,,,,,,,,z,1,1.1133,,,,,,,,0.26770489,-0.238227682,0,0,0,,0,0,0,93,1,SMONE,C,z,z,./images/SMONE.png,,,,,,,,,,,,,,,,,,,,,,,,,,,,,,,,,,,
,,,,,,,,,,,,,,,,,5c91b7eabc1a950001fbfdca,20,2022-02-12_12h42.32.959,lexical_decision_task_DD_L6,2021.2.3,Win32,59.86948452,,,,,,,,,,,0.8213,1,,,,,,,,,,,,,,,m,1,0.8213,,,,,,,,0.26770489,-0.238227682,0,0,0,,0,1,1,81,1,DRILL,LB,m,m,./images/DRILLLB.png,,,,,,,,,,,,,,,,,,,,,,,,,,,,,,,,,,,
,,,,,,,,,,,,,,,,,5c91b7eabc1a950001fbfdca,20,2022-02-12_12h42.32.959,lexical_decision_task_DD_L6,2021.2.3,Win32,59.86948452,,,,,,,,,,,0.686,1,,,,,,,,,,,,,,,z,1,0.686,,,,,,,,0.26770489,-0.238227682,0,0,0,,0,2,2,117,1,STEEG,C,z,z,./images/STEEG.png,,,,,,,,,,,,,,,,,,,,,,,,,,,,,,,,,,,
,,,,,,,,,,,,,,,,,5c91b7eabc1a950001fbfdca,20,2022-02-12_12h42.32.959,lexical_decision_task_DD_L6,2021.2.3,Win32,59.86948452,,,,,,,,,,,0.6311,1,,,,,,,,,,,,,,,m,1,0.6311,,,,,,,,0.26770489,-0.238227682,0,0,0,,0,3,3,63,1,BAKER,LB,m,m,./images/BAKERLB.png,,,,,,,,,,,,,,,,,,,,,,,,,,,,,,,,,,,
,,,,,,,,,,,,,,,,,5c91b7eabc1a950001fbfdca,20,2022-02-12_12h42.32.959,lexical_decision_task_DD_L6,2021.2.3,Win32,59.86948452,,,,,,,,,,,0.6611,1,,,,,,,,,,,,,,,z,1,0.6611,,,,,,,,0.26770489,-0.238227682,0,0,0,,0,4,4,87,1,TRING,C,z,z,./images/TRING.png,,,,,,,,,,,,,,,,,,,,,,,,,,,,,,,,,,,
,,,,,,,,,,,,,,,,,5c91b7eabc1a950001fbfdca,20,2022-02-12_12h42.32.959,lexical_decision_task_DD_L6,2021.2.3,Win32,59.86948452,,,,,,,,,,,0.672,1,,,,,,,,,,,,,,,m,1,0.672,,,,,,,,0.26770489,-0.238227682,0,0,0,,0,5,5,17,1,PARADE,HB,m,m,./images/PARADEHB.png,,,,,,,,,,,,,,,,,,,,,,,,,,,,,,,,,,,
,,,,,,,,,,,,,,,,,5c91b7eabc1a950001fbfdca,20,2022-02-12_12h42.32.959,lexical_decision_task_DD_L6,2021.2.3,Win32,59.86948452,,,,,,,,,,,0.8329,1,,,,,,,,,,,,,,,z,1,0.8329,,,,,,,,0.26770489,-0.238227682,0,0,0,,0,6,6,122,1,BLOOT,LB,z,z,./images/BLOOTLB.png,,,,,,,,,,,,,,,,,,,,,,,,,,,,,,,,,,,
,,,,,,,,,,,,,,,,,5c91b7eabc1a950001fbfdca,20,2022-02-12_12h42.32.959,lexical_decision_task_DD_L6,2021.2.3,Win32,59.86948452,,,,,,,,,,,0.6149,1,,,,,,,,,,,,,,,m,1,0.6149,,,,,,,,0.26770489,-0.238227682,0,0,0,,0,7,7,3,1,CRATER,LB,m,m,./images/CRATERLB.png,,,,,,,,,,,,,,,,,,,,,,,,,,,,,,,,,,,
,,,,,,,,,,,,,,,,,5c91b7eabc1a950001fbfdca,20,2022-02-12_12h42.32.959,lexical_decision_task_DD_L6,2021.2.3,Win32,59.86948452,,,,,,,,,,,0.5895,1,,,,,,,,,,,,,,,z,1,0.5895,,,,,,,,0.26770489,-0.238227682,0,0,0,,0,8,8,132,1,SCIFF,C,z,z,./images/SCIFF.png,,,,,,,,,,,,,,,,,,,,,,,,,,,,,,,,,,,
,,,,,,,,,,,,,,,,,5c91b7eabc1a950001fbfdca,20,2022-02-12_12h42.32.959,lexical_decision_task_DD_L6,2021.2.3,Win32,59.86948452,,,,,,,,,,,1.1282,1,,,,,,,,,,,,,,,z,1,1.1282,,,,,,,,0.26770489,-0.238227682,0,0,0,,0,9,9,92,1,PAIMS,LB,z,z,./images/PAIMSLB.png,,,,,,,,,,,,,,,,,,,,,,,,,,,,,,,,,,,
,,,,,,,,,,,,,,,,,5c91b7eabc1a950001fbfdca,20,2022-02-12_12h42.32.959,lexical_decision_task_DD_L6,2021.2.3,Win32,59.86948452,,,,,,,,,,,0.8172,1,,,,,,,,,,,,,,,z,1,0.8172,,,,,,,,0.26770489,-0.238227682,0,0,0,,0,10,10,103,1,FLORT,HB,z,z,./images/FLORTHB.png,,,,,,,,,,,,,,,,,,,,,,,,,,,,,,,,,,,
,,,,,,,,,,,,,,,,,5c91b7eabc1a950001fbfdca,20,2022-02-12_12h42.32.959,lexical_decision_task_DD_L6,2021.2.3,Win32,59.86948452,,,,,,,,,,,0.6831,1,,,,,,,,,,,,,,,z,1,0.6831,,,,,,,,0.26770489,-0.238227682,0,0,0,,0,11,11,143,1,MONGS,LB,z,z,./images/MONGSLB.png,,,,,,,,,,,,,,,,,,,,,,,,,,,,,,,,,,,
,,,,,,,,,,,,,,,,,5c91b7eabc1a950001fbfdca,20,2022-02-12_12h42.32.959,lexical_decision_task_DD_L6,2021.2.3,Win32,59.86948452,,,,,,,,,,,0.5092,1,,,,,,,,,,,,,,,m,1,0.5092,,,,,,,,0.26770489,-0.238227682,0,0,0,,0,12,12,7,1,WAGON,C,m,m,./images/WAGON.png,,,,,,,,,,,,,,,,,,,,,,,,,,,,,,,,,,,
,,,,,,,,,,,,,,,,,5c91b7eabc1a950001fbfdca,20,2022-02-12_12h42.32.959,lexical_decision_task_DD_L6,2021.2.3,Win32,59.86948452,,,,,,,,,,,0.619,1,,,,,,,,,,,,,,,z,1,0.619,,,,,,,,0.26770489,-0.238227682,0,0,0,,0,13,13,131,1,NACES,LB,z,z,./images/NACESLB.png,,,,,,,,,,,,,,,,,,,,,,,,,,,,,,,,,,,
,,,,,,,,,,,,,,,,,5c91b7eabc1a950001fbfdca,20,2022-02-12_12h42.32.959,lexical_decision_task_DD_L6,2021.2.3,Win32,59.86948452,,,,,,,,,,,0.6162,1,,,,,,,,,,,,,,,z,1,0.6162,,,,,,,,0.26770489,-0.238227682,0,0,0,,0,14,14,113,1,LINEW,LB,z,z,./images/LINEWLB.png,,,,,,,,,,,,,,,,,,,,,,,,,,,,,,,,,,,
,,,,,,,,,,,,,,,,,5c91b7eabc1a950001fbfdca,20,2022-02-12_12h42.32.959,lexical_decision_task_DD_L6,2021.2.3,Win32,59.86948452,,,,,,,,,,,0.7527,1,,,,,,,,,,,,,,,m,1,0.7527,,,,,,,,0.26770489,-0.238227682,0,0,0,,0,15,15,29,1,PISTOL,HB,m,m,./images/PISTOLHB.png,,,,,,,,,,,,,,,,,,,,,,,,,,,,,,,,,,,
,,,,,,,,,,,,,,,,,5c91b7eabc1a950001fbfdca,20,2022-02-12_12h42.32.959,lexical_decision_task_DD_L6,2021.2.3,Win32,59.86948452,,,,,,,,,,,0.5253,1,,,,,,,,,,,,,,,m,1,0.5253,,,,,,,,0.26770489,-0.238227682,0,0,0,,0,16,16,60,1,CURRY,LB,m,m,./images/CURRYLB.png,,,,,,,,,,,,,,,,,,,,,,,,,,,,,,,,,,,
,,,,,,,,,,,,,,,,,5c91b7eabc1a950001fbfdca,20,2022-02-12_12h42.32.959,lexical_decision_task_DD_L6,2021.2.3,Win32,59.86948452,,,,,,,,,,,0.6198,1,,,,,,,,,,,,,,,m,1,0.6198,,,,,,,,0.26770489,-0.238227682,0,0,0,,0,17,17,30,1,SLOPE,LB,m,m,./images/SLOPELB.png,,,,,,,,,,,,,,,,,,,,,,,,,,,,,,,,,,,
,,,,,,,,,,,,,,,,,5c91b7eabc1a950001fbfdca,20,2022-02-12_12h42.32.959,lexical_decision_task_DD_L6,2021.2.3,Win32,59.86948452,,,,,,,,,,,0.6062,1,,,,,,,,,,,,,,,z,1,0.6062,,,,,,,,0.26770489,-0.238227682,0,0,0,,0,18,18,114,1,RIKES,C,z,z,./images/RIKES.png,,,,,,,,,,,,,,,,,,,,,,,,,,,,,,,,,,,
,,,,,,,,,,,,,,,,,5c91b7eabc1a950001fbfdca,20,2022-02-12_12h42.32.959,lexical_decision_task_DD_L6,2021.2.3,Win32,59.86948452,,,,,,,,,,,0.5409,1,,,,,,,,,,,,,,,z,1,0.5409,,,,,,,,0.26770489,-0.238227682,0,0,0,,0,19,19,129,1,PRANS,C,z,z,./images/PRANS.png,,,,,,,,,,,,,,,,,,,,,,,,,,,,,,,,,,,
,,,,,,,,,,,,,,,,,5c91b7eabc1a950001fbfdca,20,2022-02-12_12h42.32.959,lexical_decision_task_DD_L6,2021.2.3,Win32,59.86948452,,,,,,,,,,,0.5374,1,,,,,,,,,,,,,,,z,1,0.5374,,,,,,,,0.26770489,-0.238227682,0,0,0,,0,20,20,137,1,JOOST,LB,z,z,./images/JOOSTLB.png,,,,,,,,,,,,,,,,,,,,,,,,,,,,,,,,,,,
,,,,,,,,,,,,,,,,,5c91b7eabc1a950001fbfdca,20,2022-02-12_12h42.32.959,lexical_decision_task_DD_L6,2021.2.3,Win32,59.86948452,,,,,,,,,,,0.6155,1,,,,,,,,,,,,,,,m,1,0.6155,,,,,,,,0.26770489,-0.238227682,0,0,0,,0,21,21,13,1,BUNNY,C,m,m,./images/BUNNY.png,,,,,,,,,,,,,,,,,,,,,,,,,,,,,,,,,,,
,,,,,,,,,,,,,,,,,5c91b7eabc1a950001fbfdca,20,2022-02-12_12h42.32.959,lexical_decision_task_DD_L6,2021.2.3,Win32,59.86948452,,,,,,,,,,,0.6011,1,,,,,,,,,,,,,,,z,1,0.6011,,,,,,,,0.26770489,-0.238227682,0,0,0,,0,22,22,116,1,BALGY,LB,z,z,./images/BALGYLB.png,,,,,,,,,,,,,,,,,,,,,,,,,,,,,,,,,,,
,,,,,,,,,,,,,,,,,5c91b7eabc1a950001fbfdca,20,2022-02-12_12h42.32.959,lexical_decision_task_DD_L6,2021.2.3,Win32,59.86948452,,,,,,,,,,,0.6148,1,,,,,,,,,,,,,,,m,1,0.6148,,,,,,,,0.26770489,-0.238227682,0,0,0,,0,23,23,57,1,FERRY,LB,m,m,./images/FERRYLB.png,,,,,,,,,,,,,,,,,,,,,,,,,,,,,,,,,,,
,,,,,,,,,,,,,,,,,5c91b7eabc1a950001fbfdca,20,2022-02-12_12h42.32.959,lexical_decision_task_DD_L6,2021.2.3,Win32,59.86948452,,,,,,,,,,,0.5486,1,,,,,,,,,,,,,,,m,1,0.5486,,,,,,,,0.26770489,-0.238227682,0,0,0,,0,24,24,36,1,BOILER,LB,m,m,./images/BOILERLB.png,,,,,,,,,,,,,,,,,,,,,,,,,,,,,,,,,,,
,,,,,,,,,,,,,,,,,5c91b7eabc1a950001fbfdca,20,2022-02-12_12h42.32.959,lexical_decision_task_DD_L6,2021.2.3,Win32,59.86948452,,,,,,,,,,,0.9534,0,,,,,,,,,,,,,,,m,0,0.9534,,,,,,,,0.26770489,-0.238227682,0,0,0,,0,25,25,109,1,BURGE,HB,z,z,./images/BURGEHB.png,,,,,,,,,,,,,,,,,,,,,,,,,,,,,,,,,,,
,,,,,,,,,,,,,,,,,5c91b7eabc1a950001fbfdca,20,2022-02-12_12h42.32.959,lexical_decision_task_DD_L6,2021.2.3,Win32,59.86948452,,,,,,,,,,,0.6169,1,,,,,,,,,,,,,,,m,1,0.6169,,,,,,,,0.26770489,-0.238227682,0,0,0,,0,26,26,65,1,SPINE,HB,m,m,./images/SPINEHB.png,,,,,,,,,,,,,,,,,,,,,,,,,,,,,,,,,,,
,,,,,,,,,,,,,,,,,5c91b7eabc1a950001fbfdca,20,2022-02-12_12h42.32.959,lexical_decision_task_DD_L6,2021.2.3,Win32,59.86948452,,,,,,,,,,,0.6596,1,,,,,,,,,,,,,,,m,1,0.6596,,,,,,,,0.26770489,-0.238227682,0,0,0,,0,27,27,71,1,BUBBLE,HB,m,m,./images/BUBBLEHB.png,,,,,,,,,,,,,,,,,,,,,,,,,,,,,,,,,,,
,,,,,,,,,,,,,,,,,5c91b7eabc1a950001fbfdca,20,2022-02-12_12h42.32.959,lexical_decision_task_DD_L6,2021.2.3,Win32,59.86948452,,,,,,,,,,,0.4864,1,,,,,,,,,,,,,,,m,1,0.4864,,,,,,,,0.26770489,-0.238227682,0,0,0,,0,28,28,22,1,CLOWN,C,m,m,./images/CLOWN.png,,,,,,,,,,,,,,,,,,,,,,,,,,,,,,,,,,,
,,,,,,,,,,,,,,,,,5c91b7eabc1a950001fbfdca,20,2022-02-12_12h42.32.959,lexical_decision_task_DD_L6,2021.2.3,Win32,59.86948452,,,,,,,,,,,0.465,1,,,,,,,,,,,,,,,m,1,0.465,,,,,,,,0.26770489,-0.238227682,0,0,0,,0,29,29,78,1,BROOM,LB,m,m,./images/BROOMLB.png,,,,,,,,,,,,,,,,,,,,,,,,,,,,,,,,,,,
,,,,,,,,,,,,,,,,,5c91b7eabc1a950001fbfdca,20,2022-02-12_12h42.32.959,lexical_decision_task_DD_L6,2021.2.3,Win32,59.86948452,,,,,,,,,,,0.5944,1,,,,,,,,,,,,,,,z,1,0.5944,,,,,,,,0.26770489,-0.238227682,0,0,0,,0,30,30,147,1,ZOLES,C,z,z,./images/ZOLES.png,,,,,,,,,,,,,,,,,,,,,,,,,,,,,,,,,,,
,,,,,,,,,,,,,,,,,5c91b7eabc1a950001fbfdca,20,2022-02-12_12h42.32.959,lexical_decision_task_DD_L6,2021.2.3,Win32,59.86948452,,,,,,,,,,,0.6014,1,,,,,,,,,,,,,,,m,1,0.6014,,,,,,,,0.26770489,-0.238227682,0,0,0,,0,31,31,59,1,BRUSH,HB,m,m,./images/BRUSHHB.png,,,,,,,,,,,,,,,,,,,,,,,,,,,,,,,,,,,
,,,,,,,,,,,,,,,,,5c91b7eabc1a950001fbfdca,20,2022-02-12_12h42.32.959,lexical_decision_task_DD_L6,2021.2.3,Win32,59.86948452,,,,,,,,,,,0.7595,1,,,,,,,,,,,,,,,z,1,0.7595,,,,,,,,0.26770489,-0.238227682,0,0,0,,0,32,32,148,1,JOMS,HB,z,z,./images/JOMSHB.png,,,,,,,,,,,,,,,,,,,,,,,,,,,,,,,,,,,
,,,,,,,,,,,,,,,,,5c91b7eabc1a950001fbfdca,20,2022-02-12_12h42.32.959,lexical_decision_task_DD_L6,2021.2.3,Win32,59.86948452,,,,,,,,,,,0.6272,1,,,,,,,,,,,,,,,z,1,0.6272,,,,,,,,0.26770489,-0.238227682,0,0,0,,0,33,33,135,1,JOODY,C,z,z,./images/JOODY.png,,,,,,,,,,,,,,,,,,,,,,,,,,,,,,,,,,,
,,,,,,,,,,,,,,,,,5c91b7eabc1a950001fbfdca,20,2022-02-12_12h42.32.959,lexical_decision_task_DD_L6,2021.2.3,Win32,59.86948452,,,,,,,,,,,1.2365,1,,,,,,,,,,,,,,,z,1,1.2365,,,,,,,,0.26770489,-0.238227682,0,0,0,,0,34,34,121,1,CEERS,HB,z,z,./images/CEERSHB.png,,,,,,,,,,,,,,,,,,,,,,,,,,,,,,,,,,,
,,,,,,,,,,,,,,,,,5c91b7eabc1a950001fbfdca,20,2022-02-12_12h42.32.959,lexical_decision_task_DD_L6,2021.2.3,Win32,59.86948452,,,,,,,,,,,0.5492,1,,,,,,,,,,,,,,,z,1,0.5492,,,,,,,,0.26770489,-0.238227682,0,0,0,,0,35,35,95,1,HANTY,LB,z,z,./images/HANTYLB.png,,,,,,,,,,,,,,,,,,,,,,,,,,,,,,,,,,,
,,,,,,,,,,,,,,,,,5c91b7eabc1a950001fbfdca,20,2022-02-12_12h42.32.959,lexical_decision_task_DD_L6,2021.2.3,Win32,59.86948452,,,,,,,,,,,0.5981,1,,,,,,,,,,,,,,,m,1,0.5981,,,,,,,,0.26770489,-0.238227682,0,0,0,,0,36,36,25,1,CHALK,C,m,m,./images/CHALK.png,,,,,,,,,,,,,,,,,,,,,,,,,,,,,,,,,,,
,,,,,,,,,,,,,,,,,5c91b7eabc1a950001fbfdca,20,2022-02-12_12h42.32.959,lexical_decision_task_DD_L6,2021.2.3,Win32,59.86948452,,,,,,,,,,,0.5514,1,,,,,,,,,,,,,,,m,1,0.5514,,,,,,,,0.26770489,-0.238227682,0,0,0,,0,37,37,27,1,BUTTER,LB,m,m,./images/BUTTERLB.png,,,,,,,,,,,,,,,,,,,,,,,,,,,,,,,,,,,
,,,,,,,,,,,,,,,,,5c91b7eabc1a950001fbfdca,20,2022-02-12_12h42.32.959,lexical_decision_task_DD_L6,2021.2.3,Win32,59.86948452,,,,,,,,,,,0.8362,1,,,,,,,,,,,,,,,m,1,0.8362,,,,,,,,0.26770489,-0.238227682,0,0,0,,0,38,38,76,1,MIDGET,C,m,m,./images/MIDGET.png,,,,,,,,,,,,,,,,,,,,,,,,,,,,,,,,,,,
,,,,,,,,,,,,,,,,,5c91b7eabc1a950001fbfdca,20,2022-02-12_12h42.32.959,lexical_decision_task_DD_L6,2021.2.3,Win32,59.86948452,,,,,,,,,,,0.6444,1,,,,,,,,,,,,,,,m,1,0.6444,,,,,,,,0.26770489,-0.238227682,0,0,0,,0,39,39,39,1,CANDY,LB,m,m,./images/CANDYLB.png,,,,,,,,,,,,,,,,,,,,,,,,,,,,,,,,,,,
,,,,,,,,,,,,,,,,,5c91b7eabc1a950001fbfdca,20,2022-02-12_12h42.32.959,lexical_decision_task_DD_L6,2021.2.3,Win32,59.86948452,,,,,,,,,,,0.6237,1,,,,,,,,,,,,,,,m,1,0.6237,,,,,,,,0.26770489,-0.238227682,0,0,0,,0,40,40,61,1,ARTIST,C,m,m,./images/ARTIST.png,,,,,,,,,,,,,,,,,,,,,,,,,,,,,,,,,,,
,,,,,,,,,,,,,,,,,5c91b7eabc1a950001fbfdca,20,2022-02-12_12h42.32.959,lexical_decision_task_DD_L6,2021.2.3,Win32,59.86948452,,,,,,,,,,,0.9897,1,,,,,,,,,,,,,,,m,1,0.9897,,,,,,,,0.26770489,-0.238227682,0,0,0,space,0,41,41,16,1,GRAPE,C,m,m,./images/GRAPE.png,148.8436,,,,,,,,,,,,,,,,,,,,,,,,,,,,,,,,,,
,,,,,,,,,,,,,,,,,5c91b7eabc1a950001fbfdca,20,2022-02-12_12h42.32.959,lexical_decision_task_DD_L6,2021.2.3,Win32,59.86948452,,,,,,,,,,,1.075,1,,,,,,,,,,,,,,,z,1,1.075,,,,,,,,0.26770489,-0.238227682,0,0,0,,0,42,42,156,1,HIXES,C,z,z,./images/HIXES.png,,,,,,,,,,,,,,,,,,,,,,,,,,,,,,,,,,,
,,,,,,,,,,,,,,,,,5c91b7eabc1a950001fbfdca,20,2022-02-12_12h42.32.959,lexical_decision_task_DD_L6,2021.2.3,Win32,59.86948452,,,,,,,,,,,0.8375,1,,,,,,,,,,,,,,,z,1,0.8375,,,,,,,,0.26770489,-0.238227682,0,0,0,,0,43,43,160,1,VEETS,HB,z,z,./images/VEETSHB.png,,,,,,,,,,,,,,,,,,,,,,,,,,,,,,,,,,,
,,,,,,,,,,,,,,,,,5c91b7eabc1a950001fbfdca,20,2022-02-12_12h42.32.959,lexical_decision_task_DD_L6,2021.2.3,Win32,59.86948452,,,,,,,,,,,0.5391,1,,,,,,,,,,,,,,,m,1,0.5391,,,,,,,,0.26770489,-0.238227682,0,0,0,,0,44,44,69,1,ARROW,LB,m,m,./images/ARROWLB.png,,,,,,,,,,,,,,,,,,,,,,,,,,,,,,,,,,,
,,,,,,,,,,,,,,,,,5c91b7eabc1a950001fbfdca,20,2022-02-12_12h42.32.959,lexical_decision_task_DD_L6,2021.2.3,Win32,59.86948452,,,,,,,,,,,1.5067,1,,,,,,,,,,,,,,,z,1,1.5067,,,,,,,,0.26770489,-0.238227682,0,0,0,,0,45,45,151,1,TINKY,HB,z,z,./images/TINKYHB.png,,,,,,,,,,,,,,,,,,,,,,,,,,,,,,,,,,,
,,,,,,,,,,,,,,,,,5c91b7eabc1a950001fbfdca,20,2022-02-12_12h42.32.959,lexical_decision_task_DD_L6,2021.2.3,Win32,59.86948452,,,,,,,,,,,1.4468,1,,,,,,,,,,,,,,,m,1,1.4468,,,,,,,,0.26770489,-0.238227682,0,0,0,,0,46,46,58,1,CANOE,C,m,m,./images/CANOE.png,,,,,,,,,,,,,,,,,,,,,,,,,,,,,,,,,,,
,,,,,,,,,,,,,,,,,5c91b7eabc1a950001fbfdca,20,2022-02-12_12h42.32.959,lexical_decision_task_DD_L6,2021.2.3,Win32,59.86948452,,,,,,,,,,,2.4252,1,,,,,,,,,,,,,,,m,1,2.4252,,,,,,,,0.26770489,-0.238227682,0,0,0,,0,47,47,83,1,WHISKY,HB,m,m,./images/WHISKYHB.png,,,,,,,,,,,,,,,,,,,,,,,,,,,,,,,,,,,
,,,,,,,,,,,,,,,,,5c91b7eabc1a950001fbfdca,20,2022-02-12_12h42.32.959,lexical_decision_task_DD_L6,2021.2.3,Win32,59.86948452,,,,,,,,,,,0.748,1,,,,,,,,,,,,,,,m,1,0.748,,,,,,,,0.26770489,-0.238227682,0,0,0,,0,48,48,1,1,TOWEL,C,m,m,./images/TOWEL.png,,,,,,,,,,,,,,,,,,,,,,,,,,,,,,,,,,,
,,,,,,,,,,,,,,,,,5c91b7eabc1a950001fbfdca,20,2022-02-12_12h42.32.959,lexical_decision_task_DD_L6,2021.2.3,Win32,59.86948452,,,,,,,,,,,1.0283,1,,,,,,,,,,,,,,,z,1,1.0283,,,,,,,,0.26770489,-0.238227682,0,0,0,,0,49,49,120,1,RINED,C,z,z,./images/RINED.png,,,,,,,,,,,,,,,,,,,,,,,,,,,,,,,,,,,
,,,,,,,,,,,,,,,,,5c91b7eabc1a950001fbfdca,20,2022-02-12_12h42.32.959,lexical_decision_task_DD_L6,2021.2.3,Win32,59.86948452,,,,,,,,,,,0.6223,1,,,,,,,,,,,,,,,z,1,0.6223,,,,,,,,0.26770489,-0.238227682,0,0,0,,0,50,50,101,1,GLEET,LB,z,z,./images/GLEETLB.png,,,,,,,,,,,,,,,,,,,,,,,,,,,,,,,,,,,
,,,,,,,,,,,,,,,,,5c91b7eabc1a950001fbfdca,20,2022-02-12_12h42.32.959,lexical_decision_task_DD_L6,2021.2.3,Win32,59.86948452,,,,,,,,,,,0.9824,1,,,,,,,,,,,,,,,m,1,0.9824,,,,,,,,0.26770489,-0.238227682,0,0,0,,0,51,51,43,1,STOOL,C,m,m,./images/STOOL.png,,,,,,,,,,,,,,,,,,,,,,,,,,,,,,,,,,,
,,,,,,,,,,,,,,,,,5c91b7eabc1a950001fbfdca,20,2022-02-12_12h42.32.959,lexical_decision_task_DD_L6,2021.2.3,Win32,59.86948452,,,,,,,,,,,0.8676,1,,,,,,,,,,,,,,,m,1,0.8676,,,,,,,,0.26770489,-0.238227682,0,0,0,,0,52,52,21,1,DANCER,LB,m,m,./images/DANCERLB.png,,,,,,,,,,,,,,,,,,,,,,,,,,,,,,,,,,,
,,,,,,,,,,,,,,,,,5c91b7eabc1a950001fbfdca,20,2022-02-12_12h42.32.959,lexical_decision_task_DD_L6,2021.2.3,Win32,59.86948452,,,,,,,,,,,2.1551,1,,,,,,,,,,,,,,,z,1,2.1551,,,,,,,,0.26770489,-0.238227682,0,0,0,,0,53,53,138,1,PLICE,C,z,z,./images/PLICE.png,,,,,,,,,,,,,,,,,,,,,,,,,,,,,,,,,,,
,,,,,,,,,,,,,,,,,5c91b7eabc1a950001fbfdca,20,2022-02-12_12h42.32.959,lexical_decision_task_DD_L6,2021.2.3,Win32,59.86948452,,,,,,,,,,,0.9941,1,,,,,,,,,,,,,,,z,1,0.9941,,,,,,,,0.26770489,-0.238227682,0,0,0,,0,54,54,153,1,CLUPS,C,z,z,./images/CLUPS.png,,,,,,,,,,,,,,,,,,,,,,,,,,,,,,,,,,,
,,,,,,,,,,,,,,,,,5c91b7eabc1a950001fbfdca,20,2022-02-12_12h42.32.959,lexical_decision_task_DD_L6,2021.2.3,Win32,59.86948452,,,,,,,,,,,1.1476,1,,,,,,,,,,,,,,,m,1,1.1476,,,,,,,,0.26770489,-0.238227682,0,0,0,,0,55,55,70,1,BANANA,C,m,m,./images/BANANA.png,,,,,,,,,,,,,,,,,,,,,,,,,,,,,,,,,,,
,,,,,,,,,,,,,,,,,5c91b7eabc1a950001fbfdca,20,2022-02-12_12h42.32.959,lexical_decision_task_DD_L6,2021.2.3,Win32,59.86948452,,,,,,,,,,,1.2546,1,,,,,,,,,,,,,,,z,1,1.2546,,,,,,,,0.26770489,-0.238227682,0,0,0,,0,56,56,84,1,HAXES,C,z,z,./images/HAXES.png,,,,,,,,,,,,,,,,,,,,,,,,,,,,,,,,,,,
,,,,,,,,,,,,,,,,,5c91b7eabc1a950001fbfdca,20,2022-02-12_12h42.32.959,lexical_decision_task_DD_L6,2021.2.3,Win32,59.86948452,,,,,,,,,,,0.7371,1,,,,,,,,,,,,,,,m,1,0.7371,,,,,,,,0.26770489,-0.238227682,0,0,0,,0,57,57,50,1,PILOT,HB,m,m,./images/PILOTHB.png,,,,,,,,,,,,,,,,,,,,,,,,,,,,,,,,,,,
,,,,,,,,,,,,,,,,,5c91b7eabc1a950001fbfdca,20,2022-02-12_12h42.32.959,lexical_decision_task_DD_L6,2021.2.3,Win32,59.86948452,,,,,,,,,,,2.1468,1,,,,,,,,,,,,,,,m,1,2.1468,,,,,,,,0.26770489,-0.238227682,0,0,0,,0,58,58,12,1,BLOKE,LB,m,m,./images/BLOKELB.png,,,,,,,,,,,,,,,,,,,,,,,,,,,,,,,,,,,
,,,,,,,,,,,,,,,,,5c91b7eabc1a950001fbfdca,20,2022-02-12_12h42.32.959,lexical_decision_task_DD_L6,2021.2.3,Win32,59.86948452,,,,,,,,,,,1.2791,1,,,,,,,,,,,,,,,m,1,1.2791,,,,,,,,0.26770489,-0.238227682,0,0,0,,0,59,59,34,1,RAZOR,C,m,m,./images/RAZOR.png,,,,,,,,,,,,,,,,,,,,,,,,,,,,,,,,,,,
,,,,,,,,,,,,,,,,,5c91b7eabc1a950001fbfdca,20,2022-02-12_12h42.32.959,lexical_decision_task_DD_L6,2021.2.3,Win32,59.86948452,,,,,,,,,,,1.1522,1,,,,,,,,,,,,,,,z,1,1.1522,,,,,,,,0.26770489,-0.238227682,0,0,0,,0,60,60,115,1,MAWNS,HB,z,z,./images/MAWNSHB.png,,,,,,,,,,,,,,,,,,,,,,,,,,,,,,,,,,,
,,,,,,,,,,,,,,,,,5c91b7eabc1a950001fbfdca,20,2022-02-12_12h42.32.959,lexical_decision_task_DD_L6,2021.2.3,Win32,59.86948452,,,,,,,,,,,0.8451,1,,,,,,,,,,,,,,,m,1,0.8451,,,,,,,,0.26770489,-0.238227682,0,0,0,,0,61,61,82,1,PEBBLE,C,m,m,./images/PEBBLE.png,,,,,,,,,,,,,,,,,,,,,,,,,,,,,,,,,,,
,,,,,,,,,,,,,,,,,5c91b7eabc1a950001fbfdca,20,2022-02-12_12h42.32.959,lexical_decision_task_DD_L6,2021.2.3,Win32,59.86948452,,,,,,,,,,,2.4521,1,,,,,,,,,,,,,,,z,1,2.4521,,,,,,,,0.26770489,-0.238227682,0,0,0,,0,62,62,91,1,SHENS,HB,z,z,./images/SHENSHB.png,,,,,,,,,,,,,,,,,,,,,,,,,,,,,,,,,,,
,,,,,,,,,,,,,,,,,5c91b7eabc1a950001fbfdca,20,2022-02-12_12h42.32.959,lexical_decision_task_DD_L6,2021.2.3,Win32,59.86948452,,,,,,,,,,,3.0603,1,,,,,,,,,,,,,,,z,1,3.0603,,,,,,,,0.26770489,-0.238227682,0,0,0,,0,63,63,155,1,CANGY,LB,z,z,./images/CANGYLB.png,,,,,,,,,,,,,,,,,,,,,,,,,,,,,,,,,,,
,,,,,,,,,,,,,,,,,5c91b7eabc1a950001fbfdca,20,2022-02-12_12h42.32.959,lexical_decision_task_DD_L6,2021.2.3,Win32,59.86948452,,,,,,,,,,,1.6509,1,,,,,,,,,,,,,,,,0,,0.26770489,-0.238227682,1,0,0,1.6509,button_right_main,0.26770489,-0.238227682,1,0,0,,0,64,64,51,1,SAUCE,LB,m,m,./images/SAUCELB.png,,,,,,,,,,,,,,,,,,,,,,,,,,,,,,,,,,,
,,,,,,,,,,,,,,,,,5c91b7eabc1a950001fbfdca,20,2022-02-12_12h42.32.959,lexical_decision_task_DD_L6,2021.2.3,Win32,59.86948452,,,,,,,,,,,2.6131,1,,,,,,,,,,,,,,,z,1,2.6131,,,,,,,,0.26770489,-0.238227682,0,0,0,,0,65,65,164,1,SGREW,LB,z,z,./images/SGREWLB.png,,,,,,,,,,,,,,,,,,,,,,,,,,,,,,,,,,,
,,,,,,,,,,,,,,,,,5c91b7eabc1a950001fbfdca,20,2022-02-12_12h42.32.959,lexical_decision_task_DD_L6,2021.2.3,Win32,59.86948452,,,,,,,,,,,1.1417,1,,,,,,,,,,,,,,,z,1,1.1417,,,,,,,,0.26770489,-0.238227682,0,0,0,,0,66,66,133,1,POWDY,HB,z,z,./images/POWDYHB.png,,,,,,,,,,,,,,,,,,,,,,,,,,,,,,,,,,,
,,,,,,,,,,,,,,,,,5c91b7eabc1a950001fbfdca,20,2022-02-12_12h42.32.959,lexical_decision_task_DD_L6,2021.2.3,Win32,59.86948452,,,,,,,,,,,2.012,1,,,,,,,,,,,,,,,z,1,2.012,,,,,,,,0.26770489,-0.238227682,0,0,0,,0,67,67,165,1,TROWN,C,z,z,./images/TROWN.png,,,,,,,,,,,,,,,,,,,,,,,,,,,,,,,,,,,
,,,,,,,,,,,,,,,,,5c91b7eabc1a950001fbfdca,20,2022-02-12_12h42.32.959,lexical_decision_task_DD_L6,2021.2.3,Win32,59.86948452,,,,,,,,,,,0.6849,1,,,,,,,,,,,,,,,z,1,0.6849,,,,,,,,0.26770489,-0.238227682,0,0,0,,0,68,68,90,1,NEAST,C,z,z,./images/NEAST.png,,,,,,,,,,,,,,,,,,,,,,,,,,,,,,,,,,,
,,,,,,,,,,,,,,,,,5c91b7eabc1a950001fbfdca,20,2022-02-12_12h42.32.959,lexical_decision_task_DD_L6,2021.2.3,Win32,59.86948452,,,,,,,,,,,1.234,1,,,,,,,,,,,,,,,m,1,1.234,,,,,,,,0.26770489,-0.238227682,0,0,0,,0,69,69,49,1,BISHOP,C,m,m,./images/BISHOP.png,,,,,,,,,,,,,,,,,,,,,,,,,,,,,,,,,,,
,,,,,,,,,,,,,,,,,5c91b7eabc1a950001fbfdca,20,2022-02-12_12h42.32.959,lexical_decision_task_DD_L6,2021.2.3,Win32,59.86948452,,,,,,,,,,,0.8429,1,,,,,,,,,,,,,,,m,1,0.8429,,,,,,,,0.26770489,-0.238227682,0,0,0,,0,70,70,20,1,GRANNY,HB,m,m,./images/GRANNYHB.png,,,,,,,,,,,,,,,,,,,,,,,,,,,,,,,,,,,
,,,,,,,,,,,,,,,,,5c91b7eabc1a950001fbfdca,20,2022-02-12_12h42.32.959,lexical_decision_task_DD_L6,2021.2.3,Win32,59.86948452,,,,,,,,,,,0.5618,1,,,,,,,,,,,,,,,z,1,0.5618,,,,,,,,0.26770489,-0.238227682,0,0,0,,0,71,71,167,1,ZONET,LB,z,z,./images/ZONETLB.png,,,,,,,,,,,,,,,,,,,,,,,,,,,,,,,,,,,
,,,,,,,,,,,,,,,,,5c91b7eabc1a950001fbfdca,20,2022-02-12_12h42.32.959,lexical_decision_task_DD_L6,2021.2.3,Win32,59.86948452,,,,,,,,,,,0.8149,1,,,,,,,,,,,,,,,z,1,0.8149,,,,,,,,0.26770489,-0.238227682,0,0,0,,0,72,72,99,1,BACKY,C,z,z,./images/BACKY.png,,,,,,,,,,,,,,,,,,,,,,,,,,,,,,,,,,,
,,,,,,,,,,,,,,,,,5c91b7eabc1a950001fbfdca,20,2022-02-12_12h42.32.959,lexical_decision_task_DD_L6,2021.2.3,Win32,59.86948452,,,,,,,,,,,0.5796,1,,,,,,,,,,,,,,,m,1,0.5796,,,,,,,,0.26770489,-0.238227682,0,0,0,,0,73,73,73,1,GLOVE,C,m,m,./images/GLOVE.png,,,,,,,,,,,,,,,,,,,,,,,,,,,,,,,,,,,
,,,,,,,,,,,,,,,,,5c91b7eabc1a950001fbfdca,20,2022-02-12_12h42.32.959,lexical_decision_task_DD_L6,2021.2.3,Win32,59.86948452,,,,,,,,,,,1.1795,1,,,,,,,,,,,,,,,z,1,1.1795,,,,,,,,0.26770489,-0.238227682,0,0,0,,0,74,74,89,1,DRIEK,LB,z,z,./images/DRIEKLB.png,,,,,,,,,,,,,,,,,,,,,,,,,,,,,,,,,,,
,,,,,,,,,,,,,,,,,5c91b7eabc1a950001fbfdca,20,2022-02-12_12h42.32.959,lexical_decision_task_DD_L6,2021.2.3,Win32,59.86948452,,,,,,,,,,,2.1203,1,,,,,,,,,,,,,,,z,1,2.1203,,,,,,,,0.26770489,-0.238227682,0,0,0,,0,75,75,149,1,VEASE,LB,z,z,./images/VEASELB.png,,,,,,,,,,,,,,,,,,,,,,,,,,,,,,,,,,,
,,,,,,,,,,,,,,,,,5c91b7eabc1a950001fbfdca,20,2022-02-12_12h42.32.959,lexical_decision_task_DD_L6,2021.2.3,Win32,59.86948452,,,,,,,,,,,1.2336,1,,,,,,,,,,,,,,,m,1,1.2336,,,,,,,,0.26770489,-0.238227682,0,0,0,,0,76,76,56,1,HEATER,HB,m,m,./images/HEATERHB.png,,,,,,,,,,,,,,,,,,,,,,,,,,,,,,,,,,,
,,,,,,,,,,,,,,,,,5c91b7eabc1a950001fbfdca,20,2022-02-12_12h42.32.959,lexical_decision_task_DD_L6,2021.2.3,Win32,59.86948452,,,,,,,,,,,2.408,1,,,,,,,,,,,,,,,m,1,2.408,,,,,,,,0.26770489,-0.238227682,0,0,0,,0,77,77,41,1,STREAM,HB,m,m,./images/STREAMHB.png,,,,,,,,,,,,,,,,,,,,,,,,,,,,,,,,,,,
,,,,,,,,,,,,,,,,,5c91b7eabc1a950001fbfdca,20,2022-02-12_12h42.32.959,lexical_decision_task_DD_L6,2021.2.3,Win32,59.86948452,,,,,,,,,,,2.2965,1,,,,,,,,,,,,,,,m,1,2.2965,,,,,,,,0.26770489,-0.238227682,0,0,0,,0,78,78,24,1,FLESH,LB,m,m,./images/FLESHLB.png,,,,,,,,,,,,,,,,,,,,,,,,,,,,,,,,,,,
,,,,,,,,,,,,,,,,,5c91b7eabc1a950001fbfdca,20,2022-02-12_12h42.32.959,lexical_decision_task_DD_L6,2021.2.3,Win32,59.86948452,,,,,,,,,,,3.5246,1,,,,,,,,,,,,,,,z,1,3.5246,,,,,,,,0.26770489,-0.238227682,0,0,0,,0,79,79,110,1,CRUNK,LB,z,z,./images/CRUNKLB.png,,,,,,,,,,,,,,,,,,,,,,,,,,,,,,,,,,,
,,,,,,,,,,,,,,,,,5c91b7eabc1a950001fbfdca,20,2022-02-12_12h42.32.959,lexical_decision_task_DD_L6,2021.2.3,Win32,59.86948452,,,,,,,,,,,1.7322,1,,,,,,,,,,,,,,,m,1,1.7322,,,,,,,,0.26770489,-0.238227682,0,0,0,,0,80,80,2,1,STOVE,HB,m,m,./images/STOVEHB.png,,,,,,,,,,,,,,,,,,,,,,,,,,,,,,,,,,,
,,,,,,,,,,,,,,,,,5c91b7eabc1a950001fbfdca,20,2022-02-12_12h42.32.959,lexical_decision_task_DD_L6,2021.2.3,Win32,59.86948452,,,,,,,,,,,1.3527,1,,,,,,,,,,,,,,,m,1,1.3527,,,,,,,,0.26770489,-0.238227682,0,0,0,,0,81,81,9,1,DIVER,LB,m,m,./images/DIVERLB.png,,,,,,,,,,,,,,,,,,,,,,,,,,,,,,,,,,,
,,,,,,,,,,,,,,,,,5c91b7eabc1a950001fbfdca,20,2022-02-12_12h42.32.959,lexical_decision_task_DD_L6,2021.2.3,Win32,59.86948452,,,,,,,,,,,6.2848,1,,,,,,,,,,,,,,,z,1,6.2848,,,,,,,,0.26770489,-0.238227682,0,0,0,,0,82,82,128,1,GRIFT,LB,z,z,./images/GRIFTLB.png,,,,,,,,,,,,,,,,,,,,,,,,,,,,,,,,,,,
,,,,,,,,,,,,,,,,,5c91b7eabc1a950001fbfdca,20,2022-02-12_12h42.32.959,lexical_decision_task_DD_L6,2021.2.3,Win32,59.86948452,,,,,,,,,,,1.0595,1,,,,,,,,,,,,,,,z,1,1.0595,0.26770489,-0.238227682,1,0,0,1.0807,button_right_main,0.26770489,-0.238227682,0,0,0,space,0,83,83,97,1,CHIDS,HB,z,z,./images/CHIDSHB.png,44.169,,,,,,,,,,,,,,,,,,,,,,,,,,,,,,,,,,
,,,,,,,,,,,,,,,,,5c91b7eabc1a950001fbfdca,20,2022-02-12_12h42.32.959,lexical_decision_task_DD_L6,2021.2.3,Win32,59.86948452,,,,,,,,,,,0.5939,1,,,,,,,,,,,,,,,m,1,0.5939,,,,,,,,0.26770489,-0.238227682,0,0,0,,0,84,84,37,1,TIGER,C,m,m,./images/TIGER.png,,,,,,,,,,,,,,,,,,,,,,,,,,,,,,,,,,,
,,,,,,,,,,,,,,,,,5c91b7eabc1a950001fbfdca,20,2022-02-12_12h42.32.959,lexical_decision_task_DD_L6,2021.2.3,Win32,59.86948452,,,,,,,,,,,0.6497,1,,,,,,,,,,,,,,,z,1,0.6497,,,,,,,,0.26770489,-0.238227682,0,0,0,,0,85,85,146,1,MOOST,LB,z,z,./images/MOOSTLB.png,,,,,,,,,,,,,,,,,,,,,,,,,,,,,,,,,,,
,,,,,,,,,,,,,,,,,5c91b7eabc1a950001fbfdca,20,2022-02-12_12h42.32.959,lexical_decision_task_DD_L6,2021.2.3,Win32,59.86948452,,,,,,,,,,,0.6232,1,,,,,,,,,,,,,,,m,1,0.6232,,,,,,,,0.26770489,-0.238227682,0,0,0,,0,86,86,26,1,CLOUD,HB,m,m,./images/CLOUDHB.png,,,,,,,,,,,,,,,,,,,,,,,,,,,,,,,,,,,
,,,,,,,,,,,,,,,,,5c91b7eabc1a950001fbfdca,20,2022-02-12_12h42.32.959,lexical_decision_task_DD_L6,2021.2.3,Win32,59.86948452,,,,,,,,,,,0.7633,1,,,,,,,,,,,,,,,z,1,0.7633,,,,,,,,0.26770489,-0.238227682,0,0,0,,0,87,87,100,1,DRIBS,HB,z,z,./images/DRIBSHB.png,,,,,,,,,,,,,,,,,,,,,,,,,,,,,,,,,,,
,,,,,,,,,,,,,,,,,5c91b7eabc1a950001fbfdca,20,2022-02-12_12h42.32.959,lexical_decision_task_DD_L6,2021.2.3,Win32,59.86948452,,,,,,,,,,,0.6901,1,,,,,,,,,,,,,,,z,1,0.6901,,,,,,,,0.26770489,-0.238227682,0,0,0,,0,88,88,112,1,MYING,HB,z,z,./images/MYINGHB.png,,,,,,,,,,,,,,,,,,,,,,,,,,,,,,,,,,,
,,,,,,,,,,,,,,,,,5c91b7eabc1a950001fbfdca,20,2022-02-12_12h42.32.959,lexical_decision_task_DD_L6,2021.2.3,Win32,59.86948452,,,,,,,,,,,0.5663,1,,,,,,,,,,,,,,,m,1,0.5663,,,,,,,,0.26770489,-0.238227682,0,0,0,,0,89,89,33,1,SAUNA,LB,m,m,./images/SAUNALB.png,,,,,,,,,,,,,,,,,,,,,,,,,,,,,,,,,,,
,,,,,,,,,,,,,,,,,5c91b7eabc1a950001fbfdca,20,2022-02-12_12h42.32.959,lexical_decision_task_DD_L6,2021.2.3,Win32,59.86948452,,,,,,,,,,,0.5771,1,,,,,,,,,,,,,,,m,1,0.5771,,,,,,,,0.26770489,-0.238227682,0,0,0,,0,90,90,44,1,BASKET,HB,m,m,./images/BASKETHB.png,,,,,,,,,,,,,,,,,,,,,,,,,,,,,,,,,,,
,,,,,,,,,,,,,,,,,5c91b7eabc1a950001fbfdca,20,2022-02-12_12h42.32.959,lexical_decision_task_DD_L6,2021.2.3,Win32,59.86948452,,,,,,,,,,,0.5069,1,,,,,,,,,,,,,,,m,1,0.5069,,,,,,,,0.26770489,-0.238227682,0,0,0,,0,91,91,75,1,HAMMER,LB,m,m,./images/HAMMERLB.png,,,,,,,,,,,,,,,,,,,,,,,,,,,,,,,,,,,
,,,,,,,,,,,,,,,,,5c91b7eabc1a950001fbfdca,20,2022-02-12_12h42.32.959,lexical_decision_task_DD_L6,2021.2.3,Win32,59.86948452,,,,,,,,,,,0.5452,1,,,,,,,,,,,,,,,m,1,0.5452,,,,,,,,0.26770489,-0.238227682,0,0,0,,0,92,92,28,1,CASINO,C,m,m,./images/CASINO.png,,,,,,,,,,,,,,,,,,,,,,,,,,,,,,,,,,,
,,,,,,,,,,,,,,,,,5c91b7eabc1a950001fbfdca,20,2022-02-12_12h42.32.959,lexical_decision_task_DD_L6,2021.2.3,Win32,59.86948452,,,,,,,,,,,0.5769,1,,,,,,,,,,,,,,,z,1,0.5769,,,,,,,,0.26770489,-0.238227682,0,0,0,,0,93,93,152,1,FRAIN,LB,z,z,./images/FRAINLB.png,,,,,,,,,,,,,,,,,,,,,,,,,,,,,,,,,,,
,,,,,,,,,,,,,,,,,5c91b7eabc1a950001fbfdca,20,2022-02-12_12h42.32.959,lexical_decision_task_DD_L6,2021.2.3,Win32,59.86948452,,,,,,,,,,,0.8173,1,,,,,,,,,,,,,,,m,1,0.8173,,,,,,,,0.26770489,-0.238227682,0,0,0,,0,94,94,14,1,FENCE,HB,m,m,./images/FENCEHB.png,,,,,,,,,,,,,,,,,,,,,,,,,,,,,,,,,,,
,,,,,,,,,,,,,,,,,5c91b7eabc1a950001fbfdca,20,2022-02-12_12h42.32.959,lexical_decision_task_DD_L6,2021.2.3,Win32,59.86948452,,,,,,,,,,,1.5723,1,,,,,,,,,,,,,,,z,1,1.5723,,,,,,,,0.26770489,-0.238227682,0,0,0,,0,95,95,154,1,THINT,HB,z,z,./images/THINTHB.png,,,,,,,,,,,,,,,,,,,,,,,,,,,,,,,,,,,
,,,,,,,,,,,,,,,,,5c91b7eabc1a950001fbfdca,20,2022-02-12_12h42.32.959,lexical_decision_task_DD_L6,2021.2.3,Win32,59.86948452,,,,,,,,,,,0.5965,1,,,,,,,,,,,,,,,m,1,0.5965,,,,,,,,0.26770489,-0.238227682,0,0,0,,0,96,96,5,1,BAMBOO,HB,m,m,./images/BAMBOOHB.png,,,,,,,,,,,,,,,,,,,,,,,,,,,,,,,,,,,
,,,,,,,,,,,,,,,,,5c91b7eabc1a950001fbfdca,20,2022-02-12_12h42.32.959,lexical_decision_task_DD_L6,2021.2.3,Win32,59.86948452,,,,,,,,,,,0.5405,1,,,,,,,,,,,,,,,m,1,0.5405,,,,,,,,0.26770489,-0.238227682,0,0,0,,0,97,97,18,1,PARCEL,LB,m,m,./images/PARCELLB.png,,,,,,,,,,,,,,,,,,,,,,,,,,,,,,,,,,,
,,,,,,,,,,,,,,,,,5c91b7eabc1a950001fbfdca,20,2022-02-12_12h42.32.959,lexical_decision_task_DD_L6,2021.2.3,Win32,59.86948452,,,,,,,,,,,0.7118,1,,,,,,,,,,,,,,,z,1,0.7118,,,,,,,,0.26770489,-0.238227682,0,0,0,,0,98,98,102,1,DULLE,C,z,z,./images/DULLE.png,,,,,,,,,,,,,,,,,,,,,,,,,,,,,,,,,,,
,,,,,,,,,,,,,,,,,5c91b7eabc1a950001fbfdca,20,2022-02-12_12h42.32.959,lexical_decision_task_DD_L6,2021.2.3,Win32,59.86948452,,,,,,,,,,,0.623,0,,,,,,,,,,,,,,,m,0,0.623,,,,,,,,0.26770489,-0.238227682,0,0,0,,0,99,99,130,1,CRILL,HB,z,z,./images/CRILLHB.png,,,,,,,,,,,,,,,,,,,,,,,,,,,,,,,,,,,
,,,,,,,,,,,,,,,,,5c91b7eabc1a950001fbfdca,20,2022-02-12_12h42.32.959,lexical_decision_task_DD_L6,2021.2.3,Win32,59.86948452,,,,,,,,,,,0.7555,1,,,,,,,,,,,,,,,z,1,0.7555,,,,,,,,0.26770489,-0.238227682,0,0,0,,0,100,100,118,1,BAVEL,HB,z,z,./images/BAVELHB.png,,,,,,,,,,,,,,,,,,,,,,,,,,,,,,,,,,,
,,,,,,,,,,,,,,,,,5c91b7eabc1a950001fbfdca,20,2022-02-12_12h42.32.959,lexical_decision_task_DD_L6,2021.2.3,Win32,59.86948452,,,,,,,,,,,1.1559,1,,,,,,,,,,,,,,,z,1,1.1559,,,,,,,,0.26770489,-0.238227682,0,0,0,,0,101,101,145,1,LAMEL,HB,z,z,./images/LAMELHB.png,,,,,,,,,,,,,,,,,,,,,,,,,,,,,,,,,,,
,,,,,,,,,,,,,,,,,5c91b7eabc1a950001fbfdca,20,2022-02-12_12h42.32.959,lexical_decision_task_DD_L6,2021.2.3,Win32,59.86948452,,,,,,,,,,,0.7107,1,,,,,,,,,,,,,,,m,1,0.7107,,,,,,,,0.26770489,-0.238227682,0,0,0,,0,102,102,8,1,CLIFF,HB,m,m,./images/CLIFFHB.png,,,,,,,,,,,,,,,,,,,,,,,,,,,,,,,,,,,
,,,,,,,,,,,,,,,,,5c91b7eabc1a950001fbfdca,20,2022-02-12_12h42.32.959,lexical_decision_task_DD_L6,2021.2.3,Win32,59.86948452,,,,,,,,,,,0.6785,1,,,,,,,,,,,,,,,z,1,0.6785,,,,,,,,0.26770489,-0.238227682,0,0,0,,0,103,103,141,1,PLEET,C,z,z,./images/PLEET.png,,,,,,,,,,,,,,,,,,,,,,,,,,,,,,,,,,,
,,,,,,,,,,,,,,,,,5c91b7eabc1a950001fbfdca,20,2022-02-12_12h42.32.959,lexical_decision_task_DD_L6,2021.2.3,Win32,59.86948452,,,,,,,,,,,0.5586,1,,,,,,,,,,,,,,,m,1,0.5586,,,,,,,,0.26770489,-0.238227682,0,0,0,,0,104,104,42,1,CHAIN,LB,m,m,./images/CHAINLB.png,,,,,,,,,,,,,,,,,,,,,,,,,,,,,,,,,,,
,,,,,,,,,,,,,,,,,5c91b7eabc1a950001fbfdca,20,2022-02-12_12h42.32.959,lexical_decision_task_DD_L6,2021.2.3,Win32,59.86948452,,,,,,,,,,,0.6161,1,,,,,,,,,,,,,,,m,1,0.6161,,,,,,,,0.26770489,-0.238227682,0,0,0,,0,105,105,11,1,MEDAL,HB,m,m,./images/MEDALHB.png,,,,,,,,,,,,,,,,,,,,,,,,,,,,,,,,,,,
,,,,,,,,,,,,,,,,,5c91b7eabc1a950001fbfdca,20,2022-02-12_12h42.32.959,lexical_decision_task_DD_L6,2021.2.3,Win32,59.86948452,,,,,,,,,,,0.6142,1,,,,,,,,,,,,,,,z,1,0.6142,,,,,,,,0.26770489,-0.238227682,0,0,0,,0,106,106,111,1,HOSSE,C,z,z,./images/HOSSE.png,,,,,,,,,,,,,,,,,,,,,,,,,,,,,,,,,,,
,,,,,,,,,,,,,,,,,5c91b7eabc1a950001fbfdca,20,2022-02-12_12h42.32.959,lexical_decision_task_DD_L6,2021.2.3,Win32,59.86948452,,,,,,,,,,,0.6264,1,,,,,,,,,,,,,,,m,1,0.6264,,,,,,,,0.26770489,-0.238227682,0,0,0,,0,107,107,74,1,JUMPER,HB,m,m,./images/JUMPERHB.png,,,,,,,,,,,,,,,,,,,,,,,,,,,,,,,,,,,
,,,,,,,,,,,,,,,,,5c91b7eabc1a950001fbfdca,20,2022-02-12_12h42.32.959,lexical_decision_task_DD_L6,2021.2.3,Win32,59.86948452,,,,,,,,,,,1.5461,1,,,,,,,,,,,,,,,z,1,1.5461,,,,,,,,0.26770489,-0.238227682,0,0,0,,0,108,108,104,1,GITTY,LB,z,z,./images/GITTYLB.png,,,,,,,,,,,,,,,,,,,,,,,,,,,,,,,,,,,
,,,,,,,,,,,,,,,,,5c91b7eabc1a950001fbfdca,20,2022-02-12_12h42.32.959,lexical_decision_task_DD_L6,2021.2.3,Win32,59.86948452,,,,,,,,,,,0.6398,1,,,,,,,,,,,,,,,m,1,0.6398,,,,,,,,0.26770489,-0.238227682,0,0,0,,0,109,109,79,1,RULER,C,m,m,./images/RULER.png,,,,,,,,,,,,,,,,,,,,,,,,,,,,,,,,,,,
,,,,,,,,,,,,,,,,,5c91b7eabc1a950001fbfdca,20,2022-02-12_12h42.32.959,lexical_decision_task_DD_L6,2021.2.3,Win32,59.86948452,,,,,,,,,,,0.8219,1,,,,,,,,,,,,,,,z,1,0.8219,,,,,,,,0.26770489,-0.238227682,0,0,0,,0,110,110,163,1,GAMBA,HB,z,z,./images/GAMBAHB.png,,,,,,,,,,,,,,,,,,,,,,,,,,,,,,,,,,,
,,,,,,,,,,,,,,,,,5c91b7eabc1a950001fbfdca,20,2022-02-12_12h42.32.959,lexical_decision_task_DD_L6,2021.2.3,Win32,59.86948452,,,,,,,,,,,0.6932,1,,,,,,,,,,,,,,,z,1,0.6932,,,,,,,,0.26770489,-0.238227682,0,0,0,,0,111,111,161,1,BLAPS,LB,z,z,./images/BLAPSLB.png,,,,,,,,,,,,,,,,,,,,,,,,,,,,,,,,,,,
,,,,,,,,,,,,,,,,,5c91b7eabc1a950001fbfdca,20,2022-02-12_12h42.32.959,lexical_decision_task_DD_L6,2021.2.3,Win32,59.86948452,,,,,,,,,,,0.9186,1,,,,,,,,,,,,,,,m,1,0.9186,,,,,,,,0.26770489,-0.238227682,0,0,0,,0,112,112,32,1,HOCKEY,HB,m,m,./images/HOCKEYHB.png,,,,,,,,,,,,,,,,,,,,,,,,,,,,,,,,,,,
,,,,,,,,,,,,,,,,,5c91b7eabc1a950001fbfdca,20,2022-02-12_12h42.32.959,lexical_decision_task_DD_L6,2021.2.3,Win32,59.86948452,,,,,,,,,,,1.4388,1,,,,,,,,,,,,,,,m,1,1.4388,,,,,,,,0.26770489,-0.238227682,0,0,0,,0,113,113,38,1,ENGINE,HB,m,m,./images/ENGINEHB.png,,,,,,,,,,,,,,,,,,,,,,,,,,,,,,,,,,,
,,,,,,,,,,,,,,,,,5c91b7eabc1a950001fbfdca,20,2022-02-12_12h42.32.959,lexical_decision_task_DD_L6,2021.2.3,Win32,59.86948452,,,,,,,,,,,0.8555,1,,,,,,,,,,,,,,,m,1,0.8555,,,,,,,,0.26770489,-0.238227682,0,0,0,,0,114,114,46,1,MUMMY,C,m,m,./images/MUMMY.png,,,,,,,,,,,,,,,,,,,,,,,,,,,,,,,,,,,
,,,,,,,,,,,,,,,,,5c91b7eabc1a950001fbfdca,20,2022-02-12_12h42.32.959,lexical_decision_task_DD_L6,2021.2.3,Win32,59.86948452,,,,,,,,,,,0.9835,1,,,,,,,,,,,,,,,m,1,0.9835,,,,,,,,0.26770489,-0.238227682,0,0,0,,0,115,115,77,1,WHEEL,HB,m,m,./images/WHEELHB.png,,,,,,,,,,,,,,,,,,,,,,,,,,,,,,,,,,,
,,,,,,,,,,,,,,,,,5c91b7eabc1a950001fbfdca,20,2022-02-12_12h42.32.959,lexical_decision_task_DD_L6,2021.2.3,Win32,59.86948452,,,,,,,,,,,0.935,1,,,,,,,,,,,,,,,z,1,0.935,,,,,,,,0.26770489,-0.238227682,0,0,0,,0,116,116,144,1,NAIRY,C,z,z,./images/NAIRY.png,,,,,,,,,,,,,,,,,,,,,,,,,,,,,,,,,,,
,,,,,,,,,,,,,,,,,5c91b7eabc1a950001fbfdca,20,2022-02-12_12h42.32.959,lexical_decision_task_DD_L6,2021.2.3,Win32,59.86948452,,,,,,,,,,,0.7401,1,,,,,,,,,,,,,,,z,1,0.7401,,,,,,,,0.26770489,-0.238227682,0,0,0,,0,117,117,119,1,PAFER,LB,z,z,./images/PAFERLB.png,,,,,,,,,,,,,,,,,,,,,,,,,,,,,,,,,,,
,,,,,,,,,,,,,,,,,5c91b7eabc1a950001fbfdca,20,2022-02-12_12h42.32.959,lexical_decision_task_DD_L6,2021.2.3,Win32,59.86948452,,,,,,,,,,,0.9395,1,,,,,,,,,,,,,,,m,1,0.9395,,,,,,,,0.26770489,-0.238227682,0,0,0,,0,118,118,62,1,MAMMAL,HB,m,m,./images/MAMMALHB.png,,,,,,,,,,,,,,,,,,,,,,,,,,,,,,,,,,,
,,,,,,,,,,,,,,,,,5c91b7eabc1a950001fbfdca,20,2022-02-12_12h42.32.959,lexical_decision_task_DD_L6,2021.2.3,Win32,59.86948452,,,,,,,,,,,1.2408,1,,,,,,,,,,,,,,,z,1,1.2408,,,,,,,,0.26770489,-0.238227682,0,0,0,,0,119,119,166,1,SHORY,HB,z,z,./images/SHORYHB.png,,,,,,,,,,,,,,,,,,,,,,,,,,,,,,,,,,,
,,,,,,,,,,,,,,,,,5c91b7eabc1a950001fbfdca,20,2022-02-12_12h42.32.959,lexical_decision_task_DD_L6,2021.2.3,Win32,59.86948452,,,,,,,,,,,0.8527,1,,,,,,,,,,,,,,,z,1,0.8527,,,,,,,,0.26770489,-0.238227682,0,0,0,,0,120,120,123,1,SEDGE,C,z,z,./images/SEDGE.png,,,,,,,,,,,,,,,,,,,,,,,,,,,,,,,,,,,
,,,,,,,,,,,,,,,,,5c91b7eabc1a950001fbfdca,20,2022-02-12_12h42.32.959,lexical_decision_task_DD_L6,2021.2.3,Win32,59.86948452,,,,,,,,,,,0.6023,1,,,,,,,,,,,,,,,z,1,0.6023,,,,,,,,0.26770489,-0.238227682,0,0,0,,0,121,121,105,1,MOKER,C,z,z,./images/MOKER.png,,,,,,,,,,,,,,,,,,,,,,,,,,,,,,,,,,,
,,,,,,,,,,,,,,,,,5c91b7eabc1a950001fbfdca,20,2022-02-12_12h42.32.959,lexical_decision_task_DD_L6,2021.2.3,Win32,59.86948452,,,,,,,,,,,0.7399,1,,,,,,,,,,,,,,,z,1,0.7399,,,,,,,,0.26770489,-0.238227682,0,0,0,,0,122,122,96,1,KEAMS,C,z,z,./images/KEAMS.png,,,,,,,,,,,,,,,,,,,,,,,,,,,,,,,,,,,
,,,,,,,,,,,,,,,,,5c91b7eabc1a950001fbfdca,20,2022-02-12_12h42.32.959,lexical_decision_task_DD_L6,2021.2.3,Win32,59.86948452,,,,,,,,,,,0.8812,1,,,,,,,,,,,,,,,m,1,0.8812,,,,,,,,0.26770489,-0.238227682,0,0,0,,0,123,123,10,1,GARDEN,C,m,m,./images/GARDEN.png,,,,,,,,,,,,,,,,,,,,,,,,,,,,,,,,,,,
,,,,,,,,,,,,,,,,,5c91b7eabc1a950001fbfdca,20,2022-02-12_12h42.32.959,lexical_decision_task_DD_L6,2021.2.3,Win32,59.86948452,,,,,,,,,,,0.9039,1,,,,,,,,,,,,,,,z,1,0.9039,,,,,,,,0.26770489,-0.238227682,0,0,0,,0,124,124,139,1,BLEAR,HB,z,z,./images/BLEARHB.png,,,,,,,,,,,,,,,,,,,,,,,,,,,,,,,,,,,
,,,,,,,,,,,,,,,,,5c91b7eabc1a950001fbfdca,20,2022-02-12_12h42.32.959,lexical_decision_task_DD_L6,2021.2.3,Win32,59.86948452,,,,,,,,,,,0.5788,1,,,,,,,,,,,,,,,m,1,0.5788,,,,,,,,0.185391206,-0.068409361,0,0,0,space,0,125,125,64,1,BRIDE,C,m,m,./images/BRIDE.png,91.8457,,,,,,,,,,,,,,,,,,,,,,,,,,,,,,,,,,
,,,,,,,,,,,,,,,,,5c91b7eabc1a950001fbfdca,20,2022-02-12_12h42.32.959,lexical_decision_task_DD_L6,2021.2.3,Win32,59.86948452,,,,,,,,,,,0.8669,1,,,,,,,,,,,,,,,m,1,0.8669,,,,,,,,0.185391206,-0.068409361,0,0,0,,0,126,126,55,1,ALLEY,C,m,m,./images/ALLEY.png,,,,,,,,,,,,,,,,,,,,,,,,,,,,,,,,,,,
,,,,,,,,,,,,,,,,,5c91b7eabc1a950001fbfdca,20,2022-02-12_12h42.32.959,lexical_decision_task_DD_L6,2021.2.3,Win32,59.86948452,,,,,,,,,,,0.7038,1,,,,,,,,,,,,,,,z,1,0.7038,,,,,,,,0.185391206,-0.068409361,0,0,0,,0,127,127,134,1,TROSS,LB,z,z,./images/TROSSLB.png,,,,,,,,,,,,,,,,,,,,,,,,,,,,,,,,,,,
,,,,,,,,,,,,,,,,,5c91b7eabc1a950001fbfdca,20,2022-02-12_12h42.32.959,lexical_decision_task_DD_L6,2021.2.3,Win32,59.86948452,,,,,,,,,,,0.5258,1,,,,,,,,,,,,,,,m,1,0.5258,,,,,,,,0.185391206,-0.068409361,0,0,0,,0,128,128,54,1,CHERRY,LB,m,m,./images/CHERRYLB.png,,,,,,,,,,,,,,,,,,,,,,,,,,,,,,,,,,,
,,,,,,,,,,,,,,,,,5c91b7eabc1a950001fbfdca,20,2022-02-12_12h42.32.959,lexical_decision_task_DD_L6,2021.2.3,Win32,59.86948452,,,,,,,,,,,0.7294,1,,,,,,,,,,,,,,,z,1,0.7294,,,,,,,,0.185391206,-0.068409361,0,0,0,,0,129,129,126,1,GUELS,C,z,z,./images/GUELS.png,,,,,,,,,,,,,,,,,,,,,,,,,,,,,,,,,,,
,,,,,,,,,,,,,,,,,5c91b7eabc1a950001fbfdca,20,2022-02-12_12h42.32.959,lexical_decision_task_DD_L6,2021.2.3,Win32,59.86948452,,,,,,,,,,,0.684,1,,,,,,,,,,,,,,,m,1,0.684,,,,,,,,0.185391206,-0.068409361,0,0,0,,0,130,130,23,1,CLOTH,HB,m,m,./images/CLOTHHB.png,,,,,,,,,,,,,,,,,,,,,,,,,,,,,,,,,,,
,,,,,,,,,,,,,,,,,5c91b7eabc1a950001fbfdca,20,2022-02-12_12h42.32.959,lexical_decision_task_DD_L6,2021.2.3,Win32,59.86948452,,,,,,,,,,,0.5848,1,,,,,,,,,,,,,,,z,1,0.5848,,,,,,,,0.185391206,-0.068409361,0,0,0,,0,131,131,108,1,GRUET,C,z,z,./images/GRUET.png,,,,,,,,,,,,,,,,,,,,,,,,,,,,,,,,,,,
,,,,,,,,,,,,,,,,,5c91b7eabc1a950001fbfdca,20,2022-02-12_12h42.32.959,lexical_decision_task_DD_L6,2021.2.3,Win32,59.86948452,,,,,,,,,,,0.8796,1,,,,,,,,,,,,,,,m,1,0.8796,,,,,,,,0.185391206,-0.068409361,0,0,0,,0,132,132,47,1,LAGOON,HB,m,m,./images/LAGOONHB.png,,,,,,,,,,,,,,,,,,,,,,,,,,,,,,,,,,,
,,,,,,,,,,,,,,,,,5c91b7eabc1a950001fbfdca,20,2022-02-12_12h42.32.959,lexical_decision_task_DD_L6,2021.2.3,Win32,59.86948452,,,,,,,,,,,0.6035,1,,,,,,,,,,,,,,,m,1,0.6035,,,,,,,,0.185391206,-0.068409361,0,0,0,,0,133,133,15,1,COLLAR,LB,m,m,./images/COLLARLB.png,,,,,,,,,,,,,,,,,,,,,,,,,,,,,,,,,,,
,,,,,,,,,,,,,,,,,5c91b7eabc1a950001fbfdca,20,2022-02-12_12h42.32.959,lexical_decision_task_DD_L6,2021.2.3,Win32,59.86948452,,,,,,,,,,,0.5521,1,,,,,,,,,,,,,,,z,1,0.5521,,,,,,,,0.185391206,-0.068409361,0,0,0,,0,134,134,86,1,AIFED,LB,z,z,./images/AIFEDLB.png,,,,,,,,,,,,,,,,,,,,,,,,,,,,,,,,,,,
,,,,,,,,,,,,,,,,,5c91b7eabc1a950001fbfdca,20,2022-02-12_12h42.32.959,lexical_decision_task_DD_L6,2021.2.3,Win32,59.86948452,,,,,,,,,,,0.5678,1,,,,,,,,,,,,,,,m,1,0.5678,,,,,,,,0.185391206,-0.068409361,0,0,0,,0,135,135,6,1,STAIN,LB,m,m,./images/STAINLB.png,,,,,,,,,,,,,,,,,,,,,,,,,,,,,,,,,,,
,,,,,,,,,,,,,,,,,5c91b7eabc1a950001fbfdca,20,2022-02-12_12h42.32.959,lexical_decision_task_DD_L6,2021.2.3,Win32,59.86948452,,,,,,,,,,,1.6761,1,,,,,,,,,,,,,,,z,1,1.6761,,,,,,,,0.185391206,-0.068409361,0,0,0,,0,136,136,140,1,DOVET,LB,z,z,./images/DOVETLB.png,,,,,,,,,,,,,,,,,,,,,,,,,,,,,,,,,,,
,,,,,,,,,,,,,,,,,5c91b7eabc1a950001fbfdca,20,2022-02-12_12h42.32.959,lexical_decision_task_DD_L6,2021.2.3,Win32,59.86948452,,,,,,,,,,,1.2552,0,,,,,,,,,,,,,,,m,0,1.2552,,,,,,,,0.185391206,-0.068409361,0,0,0,,0,137,137,142,1,PLASK,HB,z,z,./images/PLASKHB.png,,,,,,,,,,,,,,,,,,,,,,,,,,,,,,,,,,,
,,,,,,,,,,,,,,,,,5c91b7eabc1a950001fbfdca,20,2022-02-12_12h42.32.959,lexical_decision_task_DD_L6,2021.2.3,Win32,59.86948452,,,,,,,,,,,0.6348,1,,,,,,,,,,,,,,,m,1,0.6348,,,,,,,,0.185391206,-0.068409361,0,0,0,,0,138,138,72,1,FLASK,LB,m,m,./images/FLASKLB.png,,,,,,,,,,,,,,,,,,,,,,,,,,,,,,,,,,,
,,,,,,,,,,,,,,,,,5c91b7eabc1a950001fbfdca,20,2022-02-12_12h42.32.959,lexical_decision_task_DD_L6,2021.2.3,Win32,59.86948452,,,,,,,,,,,0.7723,1,,,,,,,,,,,,,,,z,1,0.7723,,,,,,,,0.185391206,-0.068409361,0,0,0,,0,139,139,136,1,WERVE,HB,z,z,./images/WERVEHB.png,,,,,,,,,,,,,,,,,,,,,,,,,,,,,,,,,,,
,,,,,,,,,,,,,,,,,5c91b7eabc1a950001fbfdca,20,2022-02-12_12h42.32.959,lexical_decision_task_DD_L6,2021.2.3,Win32,59.86948452,,,,,,,,,,,0.8127,1,,,,,,,,,,,,,,,z,1,0.8127,,,,,,,,0.185391206,-0.068409361,0,0,0,,0,140,140,107,1,FASKS,LB,z,z,./images/FASKSLB.png,,,,,,,,,,,,,,,,,,,,,,,,,,,,,,,,,,,
,,,,,,,,,,,,,,,,,5c91b7eabc1a950001fbfdca,20,2022-02-12_12h42.32.959,lexical_decision_task_DD_L6,2021.2.3,Win32,59.86948452,,,,,,,,,,,0.5855,1,,,,,,,,,,,,,,,m,1,0.5855,,,,,,,,0.185391206,-0.068409361,0,0,0,,0,141,141,80,1,PLANET,HB,m,m,./images/PLANETHB.png,,,,,,,,,,,,,,,,,,,,,,,,,,,,,,,,,,,
,,,,,,,,,,,,,,,,,5c91b7eabc1a950001fbfdca,20,2022-02-12_12h42.32.959,lexical_decision_task_DD_L6,2021.2.3,Win32,59.86948452,,,,,,,,,,,0.476,1,,,,,,,,,,,,,,,m,1,0.476,,,,,,,,0.185391206,-0.068409361,0,0,0,,0,142,142,4,1,BOXER,C,m,m,./images/BOXER.png,,,,,,,,,,,,,,,,,,,,,,,,,,,,,,,,,,,
,,,,,,,,,,,,,,,,,5c91b7eabc1a950001fbfdca,20,2022-02-12_12h42.32.959,lexical_decision_task_DD_L6,2021.2.3,Win32,59.86948452,,,,,,,,,,,0.5747,1,,,,,,,,,,,,,,,m,1,0.5747,,,,,,,,0.185391206,-0.068409361,0,0,0,,0,143,143,66,1,STATUE,LB,m,m,./images/STATUELB.png,,,,,,,,,,,,,,,,,,,,,,,,,,,,,,,,,,,
,,,,,,,,,,,,,,,,,5c91b7eabc1a950001fbfdca,20,2022-02-12_12h42.32.959,lexical_decision_task_DD_L6,2021.2.3,Win32,59.86948452,,,,,,,,,,,0.7259,1,,,,,,,,,,,,,,,z,1,0.7259,,,,,,,,0.185391206,-0.068409361,0,0,0,,0,144,144,94,1,BLANS,HB,z,z,./images/BLANSHB.png,,,,,,,,,,,,,,,,,,,,,,,,,,,,,,,,,,,
,,,,,,,,,,,,,,,,,5c91b7eabc1a950001fbfdca,20,2022-02-12_12h42.32.959,lexical_decision_task_DD_L6,2021.2.3,Win32,59.86948452,,,,,,,,,,,0.9015,1,,,,,,,,,,,,,,,z,1,0.9015,,,,,,,,0.185391206,-0.068409361,0,0,0,,0,145,145,85,1,CHULK,HB,z,z,./images/CHULKHB.png,,,,,,,,,,,,,,,,,,,,,,,,,,,,,,,,,,,
,,,,,,,,,,,,,,,,,5c91b7eabc1a950001fbfdca,20,2022-02-12_12h42.32.959,lexical_decision_task_DD_L6,2021.2.3,Win32,59.86948452,,,,,,,,,,,0.8878,1,,,,,,,,,,,,,,,m,1,0.8878,,,,,,,,0.185391206,-0.068409361,0,0,0,,0,146,146,53,1,POSTER,HB,m,m,./images/POSTERHB.png,,,,,,,,,,,,,,,,,,,,,,,,,,,,,,,,,,,
,,,,,,,,,,,,,,,,,5c91b7eabc1a950001fbfdca,20,2022-02-12_12h42.32.959,lexical_decision_task_DD_L6,2021.2.3,Win32,59.86948452,,,,,,,,,,,0.6269,1,,,,,,,,,,,,,,,z,1,0.6269,,,,,,,,0.185391206,-0.068409361,0,0,0,,0,147,147,158,1,EGECT,LB,z,z,./images/EGECTLB.png,,,,,,,,,,,,,,,,,,,,,,,,,,,,,,,,,,,
,,,,,,,,,,,,,,,,,5c91b7eabc1a950001fbfdca,20,2022-02-12_12h42.32.959,lexical_decision_task_DD_L6,2021.2.3,Win32,59.86948452,,,,,,,,,,,0.5473,1,,,,,,,,,,,,,,,m,1,0.5473,,,,,,,,0.185391206,-0.068409361,0,0,0,,0,148,148,31,1,STEAK,C,m,m,./images/STEAK.png,,,,,,,,,,,,,,,,,,,,,,,,,,,,,,,,,,,
,,,,,,,,,,,,,,,,,5c91b7eabc1a950001fbfdca,20,2022-02-12_12h42.32.959,lexical_decision_task_DD_L6,2021.2.3,Win32,59.86948452,,,,,,,,,,,0.6996,1,,,,,,,,,,,,,,,m,1,0.6996,,,,,,,,0.185391206,-0.068409361,0,0,0,,0,149,149,68,1,VALLEY,HB,m,m,./images/VALLEYHB.png,,,,,,,,,,,,,,,,,,,,,,,,,,,,,,,,,,,
,,,,,,,,,,,,,,,,,5c91b7eabc1a950001fbfdca,20,2022-02-12_12h42.32.959,lexical_decision_task_DD_L6,2021.2.3,Win32,59.86948452,,,,,,,,,,,0.4925,1,,,,,,,,,,,,,,,m,1,0.4925,,,,,,,,0.185391206,-0.068409361,0,0,0,,0,150,150,48,1,SHIELD,LB,m,m,./images/SHIELDLB.png,,,,,,,,,,,,,,,,,,,,,,,,,,,,,,,,,,,
,,,,,,,,,,,,,,,,,5c91b7eabc1a950001fbfdca,20,2022-02-12_12h42.32.959,lexical_decision_task_DD_L6,2021.2.3,Win32,59.86948452,,,,,,,,,,,0.7662,1,,,,,,,,,,,,,,,m,1,0.7662,,,,,,,,0.185391206,-0.068409361,0,0,0,,0,151,151,35,1,LLAMA,HB,m,m,./images/LLAMAHB.png,,,,,,,,,,,,,,,,,,,,,,,,,,,,,,,,,,,
,,,,,,,,,,,,,,,,,5c91b7eabc1a950001fbfdca,20,2022-02-12_12h42.32.959,lexical_decision_task_DD_L6,2021.2.3,Win32,59.86948452,,,,,,,,,,,0.5165,1,,,,,,,,,,,,,,,m,1,0.5165,,,,,,,,0.185391206,-0.068409361,0,0,0,,0,152,152,19,1,DONKEY,C,m,m,./images/DONKEY.png,,,,,,,,,,,,,,,,,,,,,,,,,,,,,,,,,,,
,,,,,,,,,,,,,,,,,5c91b7eabc1a950001fbfdca,20,2022-02-12_12h42.32.959,lexical_decision_task_DD_L6,2021.2.3,Win32,59.86948452,,,,,,,,,,,0.4495,1,,,,,,,,,,,,,,,m,1,0.4495,,,,,,,,0.185391206,-0.068409361,0,0,0,,0,153,153,40,1,SNAKE,C,m,m,./images/SNAKE.png,,,,,,,,,,,,,,,,,,,,,,,,,,,,,,,,,,,
,,,,,,,,,,,,,,,,,5c91b7eabc1a950001fbfdca,20,2022-02-12_12h42.32.959,lexical_decision_task_DD_L6,2021.2.3,Win32,59.86948452,,,,,,,,,,,0.5975,1,,,,,,,,,,,,,,,z,1,0.5975,,,,,,,,0.185391206,-0.068409361,0,0,0,,0,154,154,162,1,LEICH,C,z,z,./images/LEICH.png,,,,,,,,,,,,,,,,,,,,,,,,,,,,,,,,,,,
,,,,,,,,,,,,,,,,,5c91b7eabc1a950001fbfdca,20,2022-02-12_12h42.32.959,lexical_decision_task_DD_L6,2021.2.3,Win32,59.86948452,,,,,,,,,,,0.7115,1,,,,,,,,,,,,,,,z,1,0.7115,,,,,,,,0.185391206,-0.068409361,0,0,0,,0,155,155,157,1,INLER,HB,z,z,./images/INLERHB.png,,,,,,,,,,,,,,,,,,,,,,,,,,,,,,,,,,,
,,,,,,,,,,,,,,,,,5c91b7eabc1a950001fbfdca,20,2022-02-12_12h42.32.959,lexical_decision_task_DD_L6,2021.2.3,Win32,59.86948452,,,,,,,,,,,0.559,1,,,,,,,,,,,,,,,z,1,0.559,,,,,,,,0.185391206,-0.068409361,0,0,0,,0,156,156,98,1,BAMPS,LB,z,z,./images/BAMPSLB.png,,,,,,,,,,,,,,,,,,,,,,,,,,,,,,,,,,,
,,,,,,,,,,,,,,,,,5c91b7eabc1a950001fbfdca,20,2022-02-12_12h42.32.959,lexical_decision_task_DD_L6,2021.2.3,Win32,59.86948452,,,,,,,,,,,0.6232,1,,,,,,,,,,,,,,,z,1,0.6232,,,,,,,,0.185391206,-0.068409361,0,0,0,,0,157,157,88,1,GLUSH,HB,z,z,./images/GLUSHHB.png,,,,,,,,,,,,,,,,,,,,,,,,,,,,,,,,,,,
,,,,,,,,,,,,,,,,,5c91b7eabc1a950001fbfdca,20,2022-02-12_12h42.32.959,lexical_decision_task_DD_L6,2021.2.3,Win32,59.86948452,,,,,,,,,,,0.599,1,,,,,,,,,,,,,,,z,1,0.599,,,,,,,,0.185391206,-0.068409361,0,0,0,,0,158,158,124,1,TUNCH,HB,z,z,./images/TUNCHHB.png,,,,,,,,,,,,,,,,,,,,,,,,,,,,,,,,,,,
,,,,,,,,,,,,,,,,,5c91b7eabc1a950001fbfdca,20,2022-02-12_12h42.32.959,lexical_decision_task_DD_L6,2021.2.3,Win32,59.86948452,,,,,,,,,,,0.7099,1,,,,,,,,,,,,,,,z,1,0.7099,,,,,,,,0.185391206,-0.068409361,0,0,0,,0,159,159,159,1,CUDDY,C,z,z,./images/CUDDY.png,,,,,,,,,,,,,,,,,,,,,,,,,,,,,,,,,,,
,,,,,,,,,,,,,,,,,5c91b7eabc1a950001fbfdca,20,2022-02-12_12h42.32.959,lexical_decision_task_DD_L6,2021.2.3,Win32,59.86948452,,,,,,,,,,,0.6426,1,,,,,,,,,,,,,,,m,1,0.6426,,,,,,,,0.185391206,-0.068409361,0,0,0,,0,160,160,45,1,MONKEY,LB,m,m,./images/MONKEYLB.png,,,,,,,,,,,,,,,,,,,,,,,,,,,,,,,,,,,
,,,,,,,,,,,,,,,,,5c91b7eabc1a950001fbfdca,20,2022-02-12_12h42.32.959,lexical_decision_task_DD_L6,2021.2.3,Win32,59.86948452,,,,,,,,,,,0.6898,1,,,,,,,,,,,,,,,z,1,0.6898,,,,,,,,0.185391206,-0.068409361,0,0,0,,0,161,161,106,1,CLUMS,HB,z,z,./images/CLUMSHB.png,,,,,,,,,,,,,,,,,,,,,,,,,,,,,,,,,,,
,,,,,,,,,,,,,,,,,5c91b7eabc1a950001fbfdca,20,2022-02-12_12h42.32.959,lexical_decision_task_DD_L6,2021.2.3,Win32,59.86948452,,,,,,,,,,,0.6733,0,,,,,,,,,,,,,,,m,0,0.6733,,,,,,,,0.185391206,-0.068409361,0,0,0,,0,162,162,127,1,NINDY,HB,z,z,./images/NINDYHB.png,,,,,,,,,,,,,,,,,,,,,,,,,,,,,,,,,,,
,,,,,,,,,,,,,,,,,5c91b7eabc1a950001fbfdca,20,2022-02-12_12h42.32.959,lexical_decision_task_DD_L6,2021.2.3,Win32,59.86948452,,,,,,,,,,,0.9986,1,,,,,,,,,,,,,,,m,1,0.9986,,,,,,,,0.185391206,-0.068409361,0,0,0,,0,163,163,52,1,DESERT,C,m,m,./images/DESERT.png,,,,,,,,,,,,,,,,,,,,,,,,,,,,,,,,,,,
,,,,,,,,,,,,,,,,,5c91b7eabc1a950001fbfdca,20,2022-02-12_12h42.32.959,lexical_decision_task_DD_L6,2021.2.3,Win32,59.86948452,,,,,,,,,,,0.6014,1,,,,,,,,,,,,,,,z,1,0.6014,,,,,,,,0.185391206,-0.068409361,0,0,0,,0,164,164,125,1,MOOKY,LB,z,z,./images/MOOKYLB.png,,,,,,,,,,,,,,,,,,,,,,,,,,,,,,,,,,,
,,,,,,,,,,,,,,,,,5c91b7eabc1a950001fbfdca,20,2022-02-12_12h42.32.959,lexical_decision_task_DD_L6,2021.2.3,Win32,59.86948452,,,,,,,,,,,0.7039,1,,,,,,,,,,,,,,,m,1,0.7039,,,,,,,,0.185391206,-0.068409361,0,0,0,,0,165,165,67,1,POKER,C,m,m,./images/POKER.png,,,,,,,,,,,,,,,,,,,,,,,,,,,,,,,,,,,
,,,,,,,,,,,,,,,,,5c91b7eabc1a950001fbfdca,20,2022-02-12_12h42.32.959,lexical_decision_task_DD_L6,2021.2.3,Win32,59.86948452,,,,,,,,,,,0.6776,1,,,,,,,,,,,,,,,z,1,0.6776,,,,,,,,0.185391206,-0.068409361,0,0,0,,0,166,166,150,1,NOOLS,C,z,z,./images/NOOLS.png,,,,,,,,,,,,,,,,,,,,,,,,,,,,,,,,,,,
,,,,,,,,,,,,,,,,,5c91b7eabc1a950001fbfdca,20,2022-02-12_12h42.32.959,lexical_decision_task_DD_L6,2021.2.3,Win32,59.86948452,,,,,,,,,,,0.7042,1,,,,,,,,,,,,,,,m,1,0.7042,,,,,,,,0.185391206,-0.068409361,0,0,0,,0,167,167,0,1,WALNUT,LB,m,m,./images/WALNUTLB.png,,,,,,,,,,,,,,,,,,,,,,,,,,,,,,,,,,,
,,,,,,,,,,,,,,,,,5c91b7eabc1a950001fbfdca,20,2022-02-12_12h42.32.959,lexical_decision_task_DD_L6,2021.2.3,Win32,59.86948452,,,,,,,,,,,,,,,,,,,,,,,,,,,,,,,,,,,,,,,,,,,,,,,,,How likely will it be that you will recognize the words presented slighly blurred on a scale of 0 (not likely) to 100 (most likely)?,,,,,-0.005932493,-0.433259205,1,0,0,jol_adv,6,6.6363,0,0,0,1,1,,,,,,,,,,,,,,,,,,,,,
,,,,,,,,,,,,,,,,,5c91b7eabc1a950001fbfdca,20,2022-02-12_12h42.32.959,lexical_decision_task_DD_L6,2021.2.3,Win32,59.86948452,,,,,,,,,,,,,,,,,,,,,,,,,,,,,,,,,,,,,,,,,,,,,,,,,How likely will it be that you will recognize the words presented very blurred on a scale of 0 (not likely) to 100 (most likely)?,,,,,,,,,,,6,0.2603,0,1,1,2,1,,,,,,,,,,,,,,,,,,,,,
,,,,,,,,,,,,,,,,,5c91b7eabc1a950001fbfdca,20,2022-02-12_12h42.32.959,lexical_decision_task_DD_L6,2021.2.3,Win32,59.86948452,,,,,,,,,,,,,,,,,,,,,,,,,,,,,,,,,,,,,,,,,,,,,,,,,How likely will it be that you will recognize the words presented clearly on a scale of 0 (not likely) to 100 (most likely)?,,,,,,,,,,,6,3.2497,0,2,2,0,1,,,,,,,,,,,,,,,,,,,,,
,0.131998546,-0.368743074,1,0,0,instr_done_button,,,,,,1,test,"In the next phase you will be presented with the words from the the first phase. Your job is to decide whether you remember seeing the word or not. If you remember seeing the word press ""old"" or type ""m"". If you do not remember seeing the word press ""new"" or type ""z"". Please press the space bar or click on continue to begin. ",,,5c91b7eabc1a950001fbfdca,20,2022-02-12_12h42.32.959,lexical_decision_task_DD_L6,2021.2.3,Win32,59.86948452,,,,,,,,,,,,,,,,,,,,,,,,,,,,,,,,,,,,,,,,,,,,,,,,,,,,,,,,,,,,,,,,,,,0,0,0,0,1,,,,,,,,,,,,,,,,
,0.126066028,-0.382091239,1,0,0,instr_done_button,,,,,,1,test,"In the next phase you will be presented with the words from the the first phase. Your job is to decide whether you remember seeing the word or not. If you remember seeing the word press ""old"" or type ""m"". If you do not remember seeing the word press ""new"" or type ""z"". Please press the space bar or click on continue to begin. ",,,5c91b7eabc1a950001fbfdca,20,2022-02-12_12h42.32.959,lexical_decision_task_DD_L6,2021.2.3,Win32,59.86948452,,,,,,,,,,,,,,,,,,,,,,,,,,,,,,,,,,,,,,,,,,,,,,,,,,,,,,,,,,,,,,,,,,,1,0,1,0,1,,,,,,,,,,,,,,,,
,0.071190238,-0.403596616,1,0,0,instr_done_button,,,,,,1,test,"In the next phase you will be presented with the words from the the first phase. Your job is to decide whether you remember seeing the word or not. If you remember seeing the word press ""old"" or type ""m"". If you do not remember seeing the word press ""new"" or type ""z"". Please press the space bar or click on continue to begin. ",,,5c91b7eabc1a950001fbfdca,20,2022-02-12_12h42.32.959,lexical_decision_task_DD_L6,2021.2.3,Win32,59.86948452,,,,,,,,,,,,,,,,,,,,,,,,,,,,,,,,,,,,,,,,,,,,,,,,,,,,,,,,,,,,,,,,,,,2,0,2,0,1,,,,,,,,,,,,,,,,
space,0.17352617,-0.224879517,0,0,0,,,,,,,1,test,"In the next phase you will be presented with the words from the the first phase. Your job is to decide whether you remember seeing the word or not. If you remember seeing the word press ""old"" or type ""m"". If you do not remember seeing the word press ""new"" or type ""z"". Please press the space bar or click on continue to begin. ",,,5c91b7eabc1a950001fbfdca,20,2022-02-12_12h42.32.959,lexical_decision_task_DD_L6,2021.2.3,Win32,59.86948452,,,,,,,,,,,,,,,,,,,,,0.8574,,,,,,,,,,,,,,,,,,,,,,,,,,,,,,,,,,,,,,,,,,,,,,3,0,3,0,1,,,,,,,,,,,,,,,,
,0.057100509,-0.402113486,1,0,0,instr_done_button,,,,,,1,test,"In the next phase you will be presented with the words from the the first phase. Your job is to decide whether you remember seeing the word or not. If you remember seeing the word press ""old"" or type ""m"". If you do not remember seeing the word press ""new"" or type ""z"". Please press the space bar or click on continue to begin. ",,,5c91b7eabc1a950001fbfdca,20,2022-02-12_12h42.32.959,lexical_decision_task_DD_L6,2021.2.3,Win32,59.86948452,,,,,,,,,,,,,,,,,,,,,,,,,,,,,,,,,,,,,,,,,,,,,,,,,,,,,,,,,,,,,,,,,,,4,0,4,0,1,,,,,,,,,,,,,,,,
,,,,,,,,,,,,,,,,,5c91b7eabc1a950001fbfdca,20,2022-02-12_12h42.32.959,lexical_decision_task_DD_L6,2021.2.3,Win32,59.86948452,,,,,,,,,,,2.7079,1,,,,,,,,,,,,,,,,,,,,,,,,,0.298109044,-0.080274396,0,0,0,,,,,,,SNACK,C,z,y,./images/SNACK.png,,,,,,,,,,,,,,,,,,,,z,1,2.7079,,,,,,,,0,0,0,157,1,
,,,,,,,,,,,,,,,,,5c91b7eabc1a950001fbfdca,20,2022-02-12_12h42.32.959,lexical_decision_task_DD_L6,2021.2.3,Win32,59.86948452,,,,,,,,,,,1.0275,1,,,,,,,,,,,,,,,,,,,,,,,,,0.298109044,-0.080274396,0,0,0,,,,,,,CARPET,HB,z,y,./images/CARPETHB.png,,,,,,,,,,,,,,,,,,,,z,1,1.0275,,,,,,,,0,1,1,137,1,
,,,,,,,,,,,,,,,,,5c91b7eabc1a950001fbfdca,20,2022-02-12_12h42.32.959,lexical_decision_task_DD_L6,2021.2.3,Win32,59.86948452,,,,,,,,,,,0.7967,1,,,,,,,,,,,,,,,,,,,,,,,,,0.298109044,-0.080274396,0,0,0,,,,,,,TOMATO,LB,z,y,./images/TOMATOLB.png,,,,,,,,,,,,,,,,,,,,z,1,0.7967,,,,,,,,0,2,2,84,1,
,,,,,,,,,,,,,,,,,5c91b7eabc1a950001fbfdca,20,2022-02-12_12h42.32.959,lexical_decision_task_DD_L6,2021.2.3,Win32,59.86948452,,,,,,,,,,,1.2329,0,,,,,,,,,,,,,,,,,,,,,,,,,0.298109044,-0.080274396,0,0,0,,,,,,,BERRY,HB,z,y,./images/BERRYHB.png,,,,,,,,,,,,,,,,,,,,m,0,1.2329,,,,,,,,0,3,3,131,1,
,,,,,,,,,,,,,,,,,5c91b7eabc1a950001fbfdca,20,2022-02-12_12h42.32.959,lexical_decision_task_DD_L6,2021.2.3,Win32,59.86948452,,,,,,,,,,,0.932,1,,,,,,,,,,,,,,,,,,,,,,,,,0.298109044,-0.080274396,0,0,0,,,,,,,CANDLE,C,z,y,./images/CANDLE.png,,,,,,,,,,,,,,,,,,,,z,1,0.932,,,,,,,,0,4,4,145,1,
,,,,,,,,,,,,,,,,,5c91b7eabc1a950001fbfdca,20,2022-02-12_12h42.32.959,lexical_decision_task_DD_L6,2021.2.3,Win32,59.86948452,,,,,,,,,,,0.6949,1,,,,,,,,,,,,,,,,,,,,,,,,,0.298109044,-0.080274396,0,0,0,,,,,,,MONKEY,LB,m,y,./images/MONKEYLB.png,,,,,,,,,,,,,,,,,,,,m,1,0.6949,,,,,,,,0,5,5,45,1,
,,,,,,,,,,,,,,,,,5c91b7eabc1a950001fbfdca,20,2022-02-12_12h42.32.959,lexical_decision_task_DD_L6,2021.2.3,Win32,59.86948452,,,,,,,,,,,0.7797,1,,,,,,,,,,,,,,,,,,,,,,,,,0.298109044,-0.080274396,0,0,0,,,,,,,SAILOR,C,z,y,./images/SAILOR.png,,,,,,,,,,,,,,,,,,,,z,1,0.7797,,,,,,,,0,6,6,151,1,
,,,,,,,,,,,,,,,,,5c91b7eabc1a950001fbfdca,20,2022-02-12_12h42.32.959,lexical_decision_task_DD_L6,2021.2.3,Win32,59.86948452,,,,,,,,,,,0.5618,1,,,,,,,,,,,,,,,,,,,,,,,,,0.298109044,-0.080274396,0,0,0,,,,,,,TWINS,LB,z,y,./images/TWINSLB.png,,,,,,,,,,,,,,,,,,,,z,1,0.5618,,,,,,,,0,7,7,144,1,
,,,,,,,,,,,,,,,,,5c91b7eabc1a950001fbfdca,20,2022-02-12_12h42.32.959,lexical_decision_task_DD_L6,2021.2.3,Win32,59.86948452,,,,,,,,,,,0.567,1,,,,,,,,,,,,,,,,,,,,,,,,,0.298109044,-0.080274396,0,0,0,,,,,,,URINE,C,z,y,./images/URINE.png,,,,,,,,,,,,,,,,,,,,z,1,0.567,,,,,,,,0,8,8,154,1,
,,,,,,,,,,,,,,,,,5c91b7eabc1a950001fbfdca,20,2022-02-12_12h42.32.959,lexical_decision_task_DD_L6,2021.2.3,Win32,59.86948452,,,,,,,,,,,0.6191,1,,,,,,,,,,,,,,,,,,,,,,,,,0.298109044,-0.080274396,0,0,0,,,,,,,TORCH,HB,z,y,./images/TORCHHB.png,,,,,,,,,,,,,,,,,,,,z,1,0.6191,,,,,,,,0,9,9,152,1,
,,,,,,,,,,,,,,,,,5c91b7eabc1a950001fbfdca,20,2022-02-12_12h42.32.959,lexical_decision_task_DD_L6,2021.2.3,Win32,59.86948452,,,,,,,,,,,0.7775,1,,,,,,,,,,,,,,,,,,,,,,,,,0.298109044,-0.080274396,0,0,0,,,,,,,STATUE,LB,m,y,./images/STATUELB.png,,,,,,,,,,,,,,,,,,,,m,1,0.7775,,,,,,,,0,10,10,66,1,
,,,,,,,,,,,,,,,,,5c91b7eabc1a950001fbfdca,20,2022-02-12_12h42.32.959,lexical_decision_task_DD_L6,2021.2.3,Win32,59.86948452,,,,,,,,,,,0.812,1,,,,,,,,,,,,,,,,,,,,,,,,,0.298109044,-0.080274396,0,0,0,,,,,,,POODLE,LB,z,y,./images/POODLELB.png,,,,,,,,,,,,,,,,,,,,z,1,0.812,,,,,,,,0,11,11,165,1,
,,,,,,,,,,,,,,,,,5c91b7eabc1a950001fbfdca,20,2022-02-12_12h42.32.959,lexical_decision_task_DD_L6,2021.2.3,Win32,59.86948452,,,,,,,,,,,1.0678,1,,,,,,,,,,,,,,,,,,,,,,,,,0.298109044,-0.080274396,0,0,0,,,,,,,CANDY,LB,m,y,./images/CANDYLB.png,,,,,,,,,,,,,,,,,,,,m,1,1.0678,,,,,,,,0,12,12,39,1,
,,,,,,,,,,,,,,,,,5c91b7eabc1a950001fbfdca,20,2022-02-12_12h42.32.959,lexical_decision_task_DD_L6,2021.2.3,Win32,59.86948452,,,,,,,,,,,0.631,0,,,,,,,,,,,,,,,,,,,,,,,,,0.298109044,-0.080274396,0,0,0,,,,,,,CLOUD,HB,m,y,./images/CLOUDHB.png,,,,,,,,,,,,,,,,,,,,z,0,0.631,,,,,,,,0,13,13,26,1,
,,,,,,,,,,,,,,,,,5c91b7eabc1a950001fbfdca,20,2022-02-12_12h42.32.959,lexical_decision_task_DD_L6,2021.2.3,Win32,59.86948452,,,,,,,,,,,0.662,1,,,,,,,,,,,,,,,,,,,,,,,,,0.298109044,-0.080274396,0,0,0,,,,,,,WHISKY,HB,m,y,./images/WHISKYHB.png,,,,,,,,,,,,,,,,,,,,m,1,0.662,,,,,,,,0,14,14,83,1,
,,,,,,,,,,,,,,,,,5c91b7eabc1a950001fbfdca,20,2022-02-12_12h42.32.959,lexical_decision_task_DD_L6,2021.2.3,Win32,59.86948452,,,,,,,,,,,0.7483,0,,,,,,,,,,,,,,,,,,,,,,,,,0.298109044,-0.080274396,0,0,0,,,,,,,BUNNY,C,m,y,./images/BUNNY.png,,,,,,,,,,,,,,,,,,,,z,0,0.7483,,,,,,,,0,15,15,13,1,
,,,,,,,,,,,,,,,,,5c91b7eabc1a950001fbfdca,20,2022-02-12_12h42.32.959,lexical_decision_task_DD_L6,2021.2.3,Win32,59.86948452,,,,,,,,,,,0.6976,1,,,,,,,,,,,,,,,,,,,,,,,,,0.298109044,-0.080274396,0,0,0,,,,,,,CLOWN,C,m,y,./images/CLOWN.png,,,,,,,,,,,,,,,,,,,,m,1,0.6976,,,,,,,,0,16,16,22,1,
,,,,,,,,,,,,,,,,,5c91b7eabc1a950001fbfdca,20,2022-02-12_12h42.32.959,lexical_decision_task_DD_L6,2021.2.3,Win32,59.86948452,,,,,,,,,,,0.7544,1,,,,,,,,,,,,,,,,,,,,,,,,,0.298109044,-0.080274396,0,0,0,,,,,,,SPINE,HB,m,y,./images/SPINEHB.png,,,,,,,,,,,,,,,,,,,,m,1,0.7544,,,,,,,,0,17,17,65,1,
,,,,,,,,,,,,,,,,,5c91b7eabc1a950001fbfdca,20,2022-02-12_12h42.32.959,lexical_decision_task_DD_L6,2021.2.3,Win32,59.86948452,,,,,,,,,,,0.6006,1,,,,,,,,,,,,,,,,,,,,,,,,,0.298109044,-0.080274396,0,0,0,,,,,,,WRIST,C,z,y,./images/WRIST.png,,,,,,,,,,,,,,,,,,,,z,1,0.6006,,,,,,,,0,18,18,109,1,
,,,,,,,,,,,,,,,,,5c91b7eabc1a950001fbfdca,20,2022-02-12_12h42.32.959,lexical_decision_task_DD_L6,2021.2.3,Win32,59.86948452,,,,,,,,,,,0.7463,1,,,,,,,,,,,,,,,,,,,,,,,,,0.298109044,-0.080274396,0,0,0,,,,,,,PICKLE,HB,z,y,./images/PICKLEHB.png,,,,,,,,,,,,,,,,,,,,z,1,0.7463,,,,,,,,0,19,19,98,1,
,,,,,,,,,,,,,,,,,5c91b7eabc1a950001fbfdca,20,2022-02-12_12h42.32.959,lexical_decision_task_DD_L6,2021.2.3,Win32,59.86948452,,,,,,,,,,,0.6951,1,,,,,,,,,,,,,,,,,,,,,,,,,0.298109044,-0.080274396,0,0,0,,,,,,,TIGER,C,m,y,./images/TIGER.png,,,,,,,,,,,,,,,,,,,,m,1,0.6951,,,,,,,,0,20,20,37,1,
,,,,,,,,,,,,,,,,,5c91b7eabc1a950001fbfdca,20,2022-02-12_12h42.32.959,lexical_decision_task_DD_L6,2021.2.3,Win32,59.86948452,,,,,,,,,,,1.0368,1,,,,,,,,,,,,,,,,,,,,,,,,,0.298109044,-0.080274396,0,0,0,,,,,,,BUTTER,LB,m,y,./images/BUTTERLB.png,,,,,,,,,,,,,,,,,,,,m,1,1.0368,,,,,,,,0,21,21,27,1,
,,,,,,,,,,,,,,,,,5c91b7eabc1a950001fbfdca,20,2022-02-12_12h42.32.959,lexical_decision_task_DD_L6,2021.2.3,Win32,59.86948452,,,,,,,,,,,0.6241,0,,,,,,,,,,,,,,,,,,,,,,,,,0.298109044,-0.080274396,0,0,0,,,,,,,COLLAR,LB,m,y,./images/COLLARLB.png,,,,,,,,,,,,,,,,,,,,z,0,0.6241,,,,,,,,0,22,22,15,1,
,,,,,,,,,,,,,,,,,5c91b7eabc1a950001fbfdca,20,2022-02-12_12h42.32.959,lexical_decision_task_DD_L6,2021.2.3,Win32,59.86948452,,,,,,,,,,,0.6366,1,,,,,,,,,,,,,,,,,,,,,,,,,0.298109044,-0.080274396,0,0,0,,,,,,,HAMMER,LB,m,y,./images/HAMMERLB.png,,,,,,,,,,,,,,,,,,,,m,1,0.6366,,,,,,,,0,23,23,75,1,
,,,,,,,,,,,,,,,,,5c91b7eabc1a950001fbfdca,20,2022-02-12_12h42.32.959,lexical_decision_task_DD_L6,2021.2.3,Win32,59.86948452,,,,,,,,,,,0.6722,1,,,,,,,,,,,,,,,,,,,,,,,,,0.298109044,-0.080274396,0,0,0,,,,,,,PAINT,C,z,y,./images/PAINT.png,,,,,,,,,,,,,,,,,,,,z,1,0.6722,,,,,,,,0,24,24,91,1,
,,,,,,,,,,,,,,,,,5c91b7eabc1a950001fbfdca,20,2022-02-12_12h42.32.959,lexical_decision_task_DD_L6,2021.2.3,Win32,59.86948452,,,,,,,,,,,0.7346,1,,,,,,,,,,,,,,,,,,,,,,,,,0.298109044,-0.080274396,0,0,0,,,,,,,FLESH,LB,m,y,./images/FLESHLB.png,,,,,,,,,,,,,,,,,,,,m,1,0.7346,,,,,,,,0,25,25,24,1,
,,,,,,,,,,,,,,,,,5c91b7eabc1a950001fbfdca,20,2022-02-12_12h42.32.959,lexical_decision_task_DD_L6,2021.2.3,Win32,59.86948452,,,,,,,,,,,0.684,0,,,,,,,,,,,,,,,,,,,,,,,,,0.298109044,-0.080274396,0,0,0,,,,,,,LADDER,HB,z,y,./images/LADDERHB.png,,,,,,,,,,,,,,,,,,,,m,0,0.684,,,,,,,,0,26,26,122,1,
,,,,,,,,,,,,,,,,,5c91b7eabc1a950001fbfdca,20,2022-02-12_12h42.32.959,lexical_decision_task_DD_L6,2021.2.3,Win32,59.86948452,,,,,,,,,,,0.6275,1,,,,,,,,,,,,,,,,,,,,,,,,,0.298109044,-0.080274396,0,0,0,,,,,,,RAZOR,C,m,y,./images/RAZOR.png,,,,,,,,,,,,,,,,,,,,m,1,0.6275,,,,,,,,0,27,27,34,1,
,,,,,,,,,,,,,,,,,5c91b7eabc1a950001fbfdca,20,2022-02-12_12h42.32.959,lexical_decision_task_DD_L6,2021.2.3,Win32,59.86948452,,,,,,,,,,,0.7348,1,,,,,,,,,,,,,,,,,,,,,,,,,0.298109044,-0.080274396,0,0,0,,,,,,,PEACH,HB,z,y,./images/PEACHHB.png,,,,,,,,,,,,,,,,,,,,z,1,0.7348,,,,,,,,0,28,28,119,1,
,,,,,,,,,,,,,,,,,5c91b7eabc1a950001fbfdca,20,2022-02-12_12h42.32.959,lexical_decision_task_DD_L6,2021.2.3,Win32,59.86948452,,,,,,,,,,,1.102,1,,,,,,,,,,,,,,,,,,,,,,,,,0.298109044,-0.080274396,0,0,0,,,,,,,BIRTH,C,z,y,./images/BIRTH.png,,,,,,,,,,,,,,,,,,,,z,1,1.102,,,,,,,,0,29,29,121,1,
,,,,,,,,,,,,,,,,,5c91b7eabc1a950001fbfdca,20,2022-02-12_12h42.32.959,lexical_decision_task_DD_L6,2021.2.3,Win32,59.86948452,,,,,,,,,,,0.7269,1,,,,,,,,,,,,,,,,,,,,,,,,,0.298109044,-0.080274396,0,0,0,,,,,,,BASKET,HB,m,y,./images/BASKETHB.png,,,,,,,,,,,,,,,,,,,,m,1,0.7269,,,,,,,,0,30,30,44,1,
,,,,,,,,,,,,,,,,,5c91b7eabc1a950001fbfdca,20,2022-02-12_12h42.32.959,lexical_decision_task_DD_L6,2021.2.3,Win32,59.86948452,,,,,,,,,,,1.4241,0,,,,,,,,,,,,,,,,,,,,,,,,,0.298109044,-0.080274396,0,0,0,,,,,,,GRAPE,C,m,y,./images/GRAPE.png,,,,,,,,,,,,,,,,,,,,z,0,1.4241,,,,,,,,0,31,31,16,1,
,,,,,,,,,,,,,,,,,5c91b7eabc1a950001fbfdca,20,2022-02-12_12h42.32.959,lexical_decision_task_DD_L6,2021.2.3,Win32,59.86948452,,,,,,,,,,,0.8677,0,,,,,,,,,,,,,,,,,,,,,,,,,0.298109044,-0.080274396,0,0,0,,,,,,,LAGOON,HB,m,y,./images/LAGOONHB.png,,,,,,,,,,,,,,,,,,,,z,0,0.8677,,,,,,,,0,32,32,47,1,
,,,,,,,,,,,,,,,,,5c91b7eabc1a950001fbfdca,20,2022-02-12_12h42.32.959,lexical_decision_task_DD_L6,2021.2.3,Win32,59.86948452,,,,,,,,,,,0.786,1,,,,,,,,,,,,,,,,,,,,,,,,,0.298109044,-0.080274396,0,0,0,,,,,,,PARCEL,LB,m,y,./images/PARCELLB.png,,,,,,,,,,,,,,,,,,,,m,1,0.786,,,,,,,,0,33,33,18,1,
,,,,,,,,,,,,,,,,,5c91b7eabc1a950001fbfdca,20,2022-02-12_12h42.32.959,lexical_decision_task_DD_L6,2021.2.3,Win32,59.86948452,,,,,,,,,,,0.5706,1,,,,,,,,,,,,,,,,,,,,,,,,,0.298109044,-0.080274396,0,0,0,,,,,,,VALLEY,HB,m,y,./images/VALLEYHB.png,,,,,,,,,,,,,,,,,,,,m,1,0.5706,,,,,,,,0,34,34,68,1,
,,,,,,,,,,,,,,,,,5c91b7eabc1a950001fbfdca,20,2022-02-12_12h42.32.959,lexical_decision_task_DD_L6,2021.2.3,Win32,59.86948452,,,,,,,,,,,0.6552,0,,,,,,,,,,,,,,,,,,,,,,,,,0.298109044,-0.080274396,0,0,0,,,,,,,PURSE,HB,z,y,./images/PURSEHB.png,,,,,,,,,,,,,,,,,,,,m,0,0.6552,,,,,,,,0,35,35,146,1,
,,,,,,,,,,,,,,,,,5c91b7eabc1a950001fbfdca,20,2022-02-12_12h42.32.959,lexical_decision_task_DD_L6,2021.2.3,Win32,59.86948452,,,,,,,,,,,0.534,1,,,,,,,,,,,,,,,,,,,,,,,,,0.298109044,-0.080274396,0,0,0,,,,,,,SHIELD,LB,m,y,./images/SHIELDLB.png,,,,,,,,,,,,,,,,,,,,m,1,0.534,,,,,,,,0,36,36,48,1,
,,,,,,,,,,,,,,,,,5c91b7eabc1a950001fbfdca,20,2022-02-12_12h42.32.959,lexical_decision_task_DD_L6,2021.2.3,Win32,59.86948452,,,,,,,,,,,0.5363,1,,,,,,,,,,,,,,,,,,,,,,,,,0.298109044,-0.080274396,0,0,0,,,,,,,HOCKEY,HB,m,y,./images/HOCKEYHB.png,,,,,,,,,,,,,,,,,,,,m,1,0.5363,,,,,,,,0,37,37,32,1,
,,,,,,,,,,,,,,,,,5c91b7eabc1a950001fbfdca,20,2022-02-12_12h42.32.959,lexical_decision_task_DD_L6,2021.2.3,Win32,59.86948452,,,,,,,,,,,0.7845,0,,,,,,,,,,,,,,,,,,,,,,,,,0.298109044,-0.080274396,0,0,0,,,,,,,CLIFF,HB,m,y,./images/CLIFFHB.png,,,,,,,,,,,,,,,,,,,,z,0,0.7845,,,,,,,,0,38,38,8,1,
,,,,,,,,,,,,,,,,,5c91b7eabc1a950001fbfdca,20,2022-02-12_12h42.32.959,lexical_decision_task_DD_L6,2021.2.3,Win32,59.86948452,,,,,,,,,,,0.8878,1,,,,,,,,,,,,,,,,,,,,,,,,,0.298109044,-0.080274396,0,0,0,,,,,,,PLANK,C,z,y,./images/PLANK.png,,,,,,,,,,,,,,,,,,,,z,1,0.8878,,,,,,,,0,39,39,85,1,
,,,,,,,,,,,,,,,,,5c91b7eabc1a950001fbfdca,20,2022-02-12_12h42.32.959,lexical_decision_task_DD_L6,2021.2.3,Win32,59.86948452,,,,,,,,,,,0.6129,1,,,,,,,,,,,,,,,,,,,,,,,,,0.298109044,-0.080274396,0,0,0,,,,,,,POSTER,HB,m,y,./images/POSTERHB.png,,,,,,,,,,,,,,,,,,,,m,1,0.6129,,,,,,,,0,40,40,53,1,
,,,,,,,,,,,,,,,,,5c91b7eabc1a950001fbfdca,20,2022-02-12_12h42.32.959,lexical_decision_task_DD_L6,2021.2.3,Win32,59.86948452,,,,,,,,,,,0.7112,1,,,,,,,,,,,,,,,,,,,,,,,,,0.355209528,0.257137553,0,0,0,space,,,,,,WEASEL,HB,z,y,./images/WEASELHB.png,393.984,,,,,,,,,,,,,,,,,,,z,1,0.7112,,,,,,,,0,41,41,164,1,
,,,,,,,,,,,,,,,,,5c91b7eabc1a950001fbfdca,20,2022-02-12_12h42.32.959,lexical_decision_task_DD_L6,2021.2.3,Win32,59.86948452,,,,,,,,,,,0.9561,0,,,,,,,,,,,,,,,,,,,,,,,,,0.355209528,0.257137553,0,0,0,,,,,,,KIDNEY,LB,z,y,./images/KIDNEYLB.png,,,,,,,,,,,,,,,,,,,,m,0,0.9561,,,,,,,,0,42,42,105,1,
,,,,,,,,,,,,,,,,,5c91b7eabc1a950001fbfdca,20,2022-02-12_12h42.32.959,lexical_decision_task_DD_L6,2021.2.3,Win32,59.86948452,,,,,,,,,,,0.5846,1,,,,,,,,,,,,,,,,,,,,,,,,,0.355209528,0.257137553,0,0,0,,,,,,,JUMPER,HB,m,y,./images/JUMPERHB.png,,,,,,,,,,,,,,,,,,,,m,1,0.5846,,,,,,,,0,43,43,74,1,
,,,,,,,,,,,,,,,,,5c91b7eabc1a950001fbfdca,20,2022-02-12_12h42.32.959,lexical_decision_task_DD_L6,2021.2.3,Win32,59.86948452,,,,,,,,,,,0.6016,1,,,,,,,,,,,,,,,,,,,,,,,,,0.355209528,0.257137553,0,0,0,,,,,,,MIDGET,C,m,y,./images/MIDGET.png,,,,,,,,,,,,,,,,,,,,m,1,0.6016,,,,,,,,0,44,44,76,1,
,,,,,,,,,,,,,,,,,5c91b7eabc1a950001fbfdca,20,2022-02-12_12h42.32.959,lexical_decision_task_DD_L6,2021.2.3,Win32,59.86948452,,,,,,,,,,,0.6917,1,,,,,,,,,,,,,,,,,,,,,,,,,0.355209528,0.257137553,0,0,0,,,,,,,TULIP,HB,z,y,./images/TULIPHB.png,,,,,,,,,,,,,,,,,,,,z,1,0.6917,,,,,,,,0,45,45,92,1,
,,,,,,,,,,,,,,,,,5c91b7eabc1a950001fbfdca,20,2022-02-12_12h42.32.959,lexical_decision_task_DD_L6,2021.2.3,Win32,59.86948452,,,,,,,,,,,0.7341,1,,,,,,,,,,,,,,,,,,,,,,,,,0.355209528,0.257137553,0,0,0,,,,,,,CHAIN,LB,m,y,./images/CHAINLB.png,,,,,,,,,,,,,,,,,,,,m,1,0.7341,,,,,,,,0,46,46,42,1,
,,,,,,,,,,,,,,,,,5c91b7eabc1a950001fbfdca,20,2022-02-12_12h42.32.959,lexical_decision_task_DD_L6,2021.2.3,Win32,59.86948452,,,,,,,,,,,0.6685,0,,,,,,,,,,,,,,,,,,,,,,,,,0.355209528,0.257137553,0,0,0,,,,,,,PACKET,HB,z,y,./images/PACKETHB.png,,,,,,,,,,,,,,,,,,,,m,0,0.6685,,,,,,,,0,47,47,140,1,
,,,,,,,,,,,,,,,,,5c91b7eabc1a950001fbfdca,20,2022-02-12_12h42.32.959,lexical_decision_task_DD_L6,2021.2.3,Win32,59.86948452,,,,,,,,,,,0.5534,1,,,,,,,,,,,,,,,,,,,,,,,,,0.355209528,0.257137553,0,0,0,,,,,,,RHINO,LB,z,y,./images/RHINOLB.png,,,,,,,,,,,,,,,,,,,,z,1,0.5534,,,,,,,,0,48,48,93,1,
,,,,,,,,,,,,,,,,,5c91b7eabc1a950001fbfdca,20,2022-02-12_12h42.32.959,lexical_decision_task_DD_L6,2021.2.3,Win32,59.86948452,,,,,,,,,,,0.64,1,,,,,,,,,,,,,,,,,,,,,,,,,0.355209528,0.257137553,0,0,0,,,,,,,CHERRY,LB,m,y,./images/CHERRYLB.png,,,,,,,,,,,,,,,,,,,,m,1,0.64,,,,,,,,0,49,49,54,1,
,,,,,,,,,,,,,,,,,5c91b7eabc1a950001fbfdca,20,2022-02-12_12h42.32.959,lexical_decision_task_DD_L6,2021.2.3,Win32,59.86948452,,,,,,,,,,,0.6083,1,,,,,,,,,,,,,,,,,,,,,,,,,0.355209528,0.257137553,0,0,0,,,,,,,STREAM,HB,m,y,./images/STREAMHB.png,,,,,,,,,,,,,,,,,,,,m,1,0.6083,,,,,,,,0,50,50,41,1,
,,,,,,,,,,,,,,,,,5c91b7eabc1a950001fbfdca,20,2022-02-12_12h42.32.959,lexical_decision_task_DD_L6,2021.2.3,Win32,59.86948452,,,,,,,,,,,1.0526,1,,,,,,,,,,,,,,,,,,,,,,,,,0.355209528,0.257137553,0,0,0,,,,,,,MOSQUE,C,z,y,./images/MOSQUE.png,,,,,,,,,,,,,,,,,,,,z,1,1.0526,,,,,,,,0,51,51,127,1,
,,,,,,,,,,,,,,,,,5c91b7eabc1a950001fbfdca,20,2022-02-12_12h42.32.959,lexical_decision_task_DD_L6,2021.2.3,Win32,59.86948452,,,,,,,,,,,0.6852,0,,,,,,,,,,,,,,,,,,,,,,,,,0.355209528,0.257137553,0,0,0,,,,,,,CLOTH,HB,m,y,./images/CLOTHHB.png,,,,,,,,,,,,,,,,,,,,z,0,0.6852,,,,,,,,0,52,52,23,1,
,,,,,,,,,,,,,,,,,5c91b7eabc1a950001fbfdca,20,2022-02-12_12h42.32.959,lexical_decision_task_DD_L6,2021.2.3,Win32,59.86948452,,,,,,,,,,,0.818,1,,,,,,,,,,,,,,,,,,,,,,,,,0.355209528,0.257137553,0,0,0,,,,,,,GRAIN,LB,z,y,./images/GRAINLB.png,,,,,,,,,,,,,,,,,,,,z,1,0.818,,,,,,,,0,53,53,159,1,
,,,,,,,,,,,,,,,,,5c91b7eabc1a950001fbfdca,20,2022-02-12_12h42.32.959,lexical_decision_task_DD_L6,2021.2.3,Win32,59.86948452,,,,,,,,,,,0.6532,0,,,,,,,,,,,,,,,,,,,,,,,,,0.355209528,0.257137553,0,0,0,,,,,,,BARREL,HB,z,y,./images/BARRELHB.png,,,,,,,,,,,,,,,,,,,,m,0,0.6532,,,,,,,,0,54,54,116,1,
,,,,,,,,,,,,,,,,,5c91b7eabc1a950001fbfdca,20,2022-02-12_12h42.32.959,lexical_decision_task_DD_L6,2021.2.3,Win32,59.86948452,,,,,,,,,,,0.835,1,,,,,,,,,,,,,,,,,,,,,,,,,0.355209528,0.257137553,0,0,0,,,,,,,SUNSET,C,z,y,./images/SUNSET.png,,,,,,,,,,,,,,,,,,,,z,1,0.835,,,,,,,,0,55,55,166,1,
,,,,,,,,,,,,,,,,,5c91b7eabc1a950001fbfdca,20,2022-02-12_12h42.32.959,lexical_decision_task_DD_L6,2021.2.3,Win32,59.86948452,,,,,,,,,,,0.9173,1,,,,,,,,,,,,,,,,,,,,,,,,,0.355209528,0.257137553,0,0,0,,,,,,,STORM,LB,z,y,./images/STORMLB.png,,,,,,,,,,,,,,,,,,,,z,1,0.9173,,,,,,,,0,56,56,114,1,
,,,,,,,,,,,,,,,,,5c91b7eabc1a950001fbfdca,20,2022-02-12_12h42.32.959,lexical_decision_task_DD_L6,2021.2.3,Win32,59.86948452,,,,,,,,,,,0.6726,1,,,,,,,,,,,,,,,,,,,,,,,,,0.355209528,0.257137553,0,0,0,,,,,,,WHEEL,HB,m,y,./images/WHEELHB.png,,,,,,,,,,,,,,,,,,,,m,1,0.6726,,,,,,,,0,57,57,77,1,
,,,,,,,,,,,,,,,,,5c91b7eabc1a950001fbfdca,20,2022-02-12_12h42.32.959,lexical_decision_task_DD_L6,2021.2.3,Win32,59.86948452,,,,,,,,,,,0.6259,1,,,,,,,,,,,,,,,,,,,,,,,,,0.355209528,0.257137553,0,0,0,,,,,,,QUILL,C,z,y,./images/QUILL.png,,,,,,,,,,,,,,,,,,,,z,1,0.6259,,,,,,,,0,58,58,115,1,
,,,,,,,,,,,,,,,,,5c91b7eabc1a950001fbfdca,20,2022-02-12_12h42.32.959,lexical_decision_task_DD_L6,2021.2.3,Win32,59.86948452,,,,,,,,,,,0.7235,1,,,,,,,,,,,,,,,,,,,,,,,,,0.355209528,0.257137553,0,0,0,,,,,,,STRING,HB,z,y,./images/STRINGHB.png,,,,,,,,,,,,,,,,,,,,z,1,0.7235,,,,,,,,0,59,59,125,1,
,,,,,,,,,,,,,,,,,5c91b7eabc1a950001fbfdca,20,2022-02-12_12h42.32.959,lexical_decision_task_DD_L6,2021.2.3,Win32,59.86948452,,,,,,,,,,,0.6904,0,,,,,,,,,,,,,,,,,,,,,,,,,0.355209528,0.257137553,0,0,0,,,,,,,BANNER,C,z,y,./images/BANNER.png,,,,,,,,,,,,,,,,,,,,m,0,0.6904,,,,,,,,0,60,60,136,1,
,,,,,,,,,,,,,,,,,5c91b7eabc1a950001fbfdca,20,2022-02-12_12h42.32.959,lexical_decision_task_DD_L6,2021.2.3,Win32,59.86948452,,,,,,,,,,,0.6532,0,,,,,,,,,,,,,,,,,,,,,,,,,0.355209528,0.257137553,0,0,0,,,,,,,SHORE,LB,z,y,./images/SHORELB.png,,,,,,,,,,,,,,,,,,,,m,0,0.6532,,,,,,,,0,61,61,96,1,
,,,,,,,,,,,,,,,,,5c91b7eabc1a950001fbfdca,20,2022-02-12_12h42.32.959,lexical_decision_task_DD_L6,2021.2.3,Win32,59.86948452,,,,,,,,,,,0.7915,1,,,,,,,,,,,,,,,,,,,,,,,,,0.355209528,0.257137553,0,0,0,,,,,,,MOTOR,C,z,y,./images/MOTOR.png,,,,,,,,,,,,,,,,,,,,z,1,0.7915,,,,,,,,0,62,62,97,1,
,,,,,,,,,,,,,,,,,5c91b7eabc1a950001fbfdca,20,2022-02-12_12h42.32.959,lexical_decision_task_DD_L6,2021.2.3,Win32,59.86948452,,,,,,,,,,,1.288,1,,,,,,,,,,,,,,,,,,,,,,,,,0.355209528,0.257137553,0,0,0,,,,,,,FALCON,C,z,y,./images/FALCON.png,,,,,,,,,,,,,,,,,,,,z,1,1.288,,,,,,,,0,63,63,112,1,
,,,,,,,,,,,,,,,,,5c91b7eabc1a950001fbfdca,20,2022-02-12_12h42.32.959,lexical_decision_task_DD_L6,2021.2.3,Win32,59.86948452,,,,,,,,,,,0.5535,1,,,,,,,,,,,,,,,,,,,,,,,,,0.355209528,0.257137553,0,0,0,,,,,,,TOWEL,C,m,y,./images/TOWEL.png,,,,,,,,,,,,,,,,,,,,m,1,0.5535,,,,,,,,0,64,64,1,1,
,,,,,,,,,,,,,,,,,5c91b7eabc1a950001fbfdca,20,2022-02-12_12h42.32.959,lexical_decision_task_DD_L6,2021.2.3,Win32,59.86948452,,,,,,,,,,,0.6045,1,,,,,,,,,,,,,,,,,,,,,,,,,0.355209528,0.257137553,0,0,0,,,,,,,ALLEY,C,m,y,./images/ALLEY.png,,,,,,,,,,,,,,,,,,,,m,1,0.6045,,,,,,,,0,65,65,55,1,
,,,,,,,,,,,,,,,,,5c91b7eabc1a950001fbfdca,20,2022-02-12_12h42.32.959,lexical_decision_task_DD_L6,2021.2.3,Win32,59.86948452,,,,,,,,,,,0.7429,1,,,,,,,,,,,,,,,,,,,,,,,,,0.355209528,0.257137553,0,0,0,,,,,,,ENGINE,HB,m,y,./images/ENGINEHB.png,,,,,,,,,,,,,,,,,,,,m,1,0.7429,,,,,,,,0,66,66,38,1,
,,,,,,,,,,,,,,,,,5c91b7eabc1a950001fbfdca,20,2022-02-12_12h42.32.959,lexical_decision_task_DD_L6,2021.2.3,Win32,59.86948452,,,,,,,,,,,0.7341,1,,,,,,,,,,,,,,,,,,,,,,,,,0.355209528,0.257137553,0,0,0,,,,,,,MUFFIN,C,z,y,./images/MUFFIN.png,,,,,,,,,,,,,,,,,,,,z,1,0.7341,,,,,,,,0,67,67,139,1,
,,,,,,,,,,,,,,,,,5c91b7eabc1a950001fbfdca,20,2022-02-12_12h42.32.959,lexical_decision_task_DD_L6,2021.2.3,Win32,59.86948452,,,,,,,,,,,0.5891,1,,,,,,,,,,,,,,,,,,,,,,,,,0.355209528,0.257137553,0,0,0,,,,,,,MELON,C,z,y,./images/MELON.png,,,,,,,,,,,,,,,,,,,,z,1,0.5891,,,,,,,,0,68,68,106,1,
,,,,,,,,,,,,,,,,,5c91b7eabc1a950001fbfdca,20,2022-02-12_12h42.32.959,lexical_decision_task_DD_L6,2021.2.3,Win32,59.86948452,,,,,,,,,,,1.1078,1,,,,,,,,,,,,,,,,,,,,,,,,,0.355209528,0.257137553,0,0,0,,,,,,,JAGUAR,LB,z,y,./images/JAGUARLB.png,,,,,,,,,,,,,,,,,,,,z,1,1.1078,,,,,,,,0,69,69,102,1,
,,,,,,,,,,,,,,,,,5c91b7eabc1a950001fbfdca,20,2022-02-12_12h42.32.959,lexical_decision_task_DD_L6,2021.2.3,Win32,59.86948452,,,,,,,,,,,0.8895,1,,,,,,,,,,,,,,,,,,,,,,,,,0.355209528,0.257137553,0,0,0,,,,,,,PEBBLE,C,m,y,./images/PEBBLE.png,,,,,,,,,,,,,,,,,,,,m,1,0.8895,,,,,,,,0,70,70,82,1,
,,,,,,,,,,,,,,,,,5c91b7eabc1a950001fbfdca,20,2022-02-12_12h42.32.959,lexical_decision_task_DD_L6,2021.2.3,Win32,59.86948452,,,,,,,,,,,0.8418,1,,,,,,,,,,,,,,,,,,,,,,,,,0.355209528,0.257137553,0,0,0,,,,,,,STEAK,C,m,y,./images/STEAK.png,,,,,,,,,,,,,,,,,,,,m,1,0.8418,,,,,,,,0,71,71,31,1,
,,,,,,,,,,,,,,,,,5c91b7eabc1a950001fbfdca,20,2022-02-12_12h42.32.959,lexical_decision_task_DD_L6,2021.2.3,Win32,59.86948452,,,,,,,,,,,0.6847,1,,,,,,,,,,,,,,,,,,,,,,,,,0.355209528,0.257137553,0,0,0,,,,,,,KITTEN,LB,z,y,./images/KITTENLB.png,,,,,,,,,,,,,,,,,,,,z,1,0.6847,,,,,,,,0,72,72,129,1,
,,,,,,,,,,,,,,,,,5c91b7eabc1a950001fbfdca,20,2022-02-12_12h42.32.959,lexical_decision_task_DD_L6,2021.2.3,Win32,59.86948452,,,,,,,,,,,0.6602,1,,,,,,,,,,,,,,,,,,,,,,,,,0.355209528,0.257137553,0,0,0,,,,,,,PARADE,HB,m,y,./images/PARADEHB.png,,,,,,,,,,,,,,,,,,,,m,1,0.6602,,,,,,,,0,73,73,17,1,
,,,,,,,,,,,,,,,,,5c91b7eabc1a950001fbfdca,20,2022-02-12_12h42.32.959,lexical_decision_task_DD_L6,2021.2.3,Win32,59.86948452,,,,,,,,,,,1.6343,1,,,,,,,,,,,,,,,,,,,,,,,,,0.355209528,0.257137553,0,0,0,,,,,,,MOOSE,LB,z,y,./images/MOOSELB.png,,,,,,,,,,,,,,,,,,,,z,1,1.6343,,,,,,,,0,74,74,141,1,
,,,,,,,,,,,,,,,,,5c91b7eabc1a950001fbfdca,20,2022-02-12_12h42.32.959,lexical_decision_task_DD_L6,2021.2.3,Win32,59.86948452,,,,,,,,,,,0.6723,1,,,,,,,,,,,,,,,,,,,,,,,,,0.355209528,0.257137553,0,0,0,,,,,,,COOKER,LB,z,y,./images/COOKERLB.png,,,,,,,,,,,,,,,,,,,,z,1,0.6723,,,,,,,,0,75,75,153,1,
,,,,,,,,,,,,,,,,,5c91b7eabc1a950001fbfdca,20,2022-02-12_12h42.32.959,lexical_decision_task_DD_L6,2021.2.3,Win32,59.86948452,,,,,,,,,,,7.1839,1,,,,,,,,,,,,,,,,,,,,,,,,,0.355209528,0.257137553,0,0,0,,,,,,,DONKEY,C,m,y,./images/DONKEY.png,,,,,,,,,,,,,,,,,,,,m,1,7.1839,,,,,,,,0,76,76,19,1,
,,,,,,,,,,,,,,,,,5c91b7eabc1a950001fbfdca,20,2022-02-12_12h42.32.959,lexical_decision_task_DD_L6,2021.2.3,Win32,59.86948452,,,,,,,,,,,1.8844,1,,,,,,,,,,,,,,,,,,,,,,,,,0.355209528,0.257137553,0,0,0,,,,,,,DANCER,LB,m,y,./images/DANCERLB.png,,,,,,,,,,,,,,,,,,,,m,1,1.8844,,,,,,,,0,77,77,21,1,
,,,,,,,,,,,,,,,,,5c91b7eabc1a950001fbfdca,20,2022-02-12_12h42.32.959,lexical_decision_task_DD_L6,2021.2.3,Win32,59.86948452,,,,,,,,,,,2.8842,0,,,,,,,,,,,,,,,,,,,,,,,,,0.355209528,0.257137553,0,0,0,,,,,,,SCREW,LB,z,y,./images/SCREWLB.png,,,,,,,,,,,,,,,,,,,,m,0,2.8842,,,,,,,,0,78,78,108,1,
,,,,,,,,,,,,,,,,,5c91b7eabc1a950001fbfdca,20,2022-02-12_12h42.32.959,lexical_decision_task_DD_L6,2021.2.3,Win32,59.86948452,,,,,,,,,,,3.8181,0,,,,,,,,,,,,,,,,,,,,,,,,,0.355209528,0.257137553,0,0,0,,,,,,,CEMENT,HB,z,y,./images/CEMENTHB.png,,,,,,,,,,,,,,,,,,,,m,0,3.8181,,,,,,,,0,79,79,158,1,
,,,,,,,,,,,,,,,,,5c91b7eabc1a950001fbfdca,20,2022-02-12_12h42.32.959,lexical_decision_task_DD_L6,2021.2.3,Win32,59.86948452,,,,,,,,,,,2.6202,1,,,,,,,,,,,,,,,,,,,,,,,,,0.355209528,0.257137553,0,0,0,,,,,,,NOOSE,LB,z,y,./images/NOOSELB.png,,,,,,,,,,,,,,,,,,,,z,1,2.6202,,,,,,,,0,80,80,156,1,
,,,,,,,,,,,,,,,,,5c91b7eabc1a950001fbfdca,20,2022-02-12_12h42.32.959,lexical_decision_task_DD_L6,2021.2.3,Win32,59.86948452,,,,,,,,,,,2.4285,1,,,,,,,,,,,,,,,,,,,,,,,,,0.355209528,0.257137553,0,0,0,,,,,,,SWING,C,z,y,./images/SWING.png,,,,,,,,,,,,,,,,,,,,z,1,2.4285,,,,,,,,0,81,81,124,1,
,,,,,,,,,,,,,,,,,5c91b7eabc1a950001fbfdca,20,2022-02-12_12h42.32.959,lexical_decision_task_DD_L6,2021.2.3,Win32,59.86948452,,,,,,,,,,,1.8932,1,,,,,,,,,,,,,,,,,,,,,,,,,0.355209528,0.257137553,0,0,0,,,,,,,CHALK,C,m,y,./images/CHALK.png,,,,,,,,,,,,,,,,,,,,m,1,1.8932,,,,,,,,0,82,82,25,1,
,,,,,,,,,,,,,,,,,5c91b7eabc1a950001fbfdca,20,2022-02-12_12h42.32.959,lexical_decision_task_DD_L6,2021.2.3,Win32,59.86948452,,,,,,,,,,,1.5054,1,,,,,,,,,,,,,,,,,,,,,,,,,0.355209528,0.257137553,0,0,0,space,,,,,,SAUNA,LB,m,y,./images/SAUNALB.png,29.2392,,,,,,,,,,,,,,,,,,,m,1,1.5054,,,,,,,,0,83,83,33,1,
,,,,,,,,,,,,,,,,,5c91b7eabc1a950001fbfdca,20,2022-02-12_12h42.32.959,lexical_decision_task_DD_L6,2021.2.3,Win32,59.86948452,,,,,,,,,,,2.7447,1,,,,,,,,,,,,,,,,,,,,,,,,,0.364108304,0.273451954,0,0,0,,,,,,,INFANT,C,z,y,./images/INFANT.png,,,,,,,,,,,,,,,,,,,,z,1,2.7447,,,,,,,,0,84,84,160,1,
,,,,,,,,,,,,,,,,,5c91b7eabc1a950001fbfdca,20,2022-02-12_12h42.32.959,lexical_decision_task_DD_L6,2021.2.3,Win32,59.86948452,,,,,,,,,,,1.5185,1,,,,,,,,,,,,,,,,,,,,,,,,,0.364108304,0.273451954,0,0,0,,,,,,,DRILL,LB,m,y,./images/DRILLLB.png,,,,,,,,,,,,,,,,,,,,m,1,1.5185,,,,,,,,0,85,85,81,1,
,,,,,,,,,,,,,,,,,5c91b7eabc1a950001fbfdca,20,2022-02-12_12h42.32.959,lexical_decision_task_DD_L6,2021.2.3,Win32,59.86948452,,,,,,,,,,,1.1236,1,,,,,,,,,,,,,,,,,,,,,,,,,0.364108304,0.273451954,0,0,0,,,,,,,BUBBLE,HB,m,y,./images/BUBBLEHB.png,,,,,,,,,,,,,,,,,,,,m,1,1.1236,,,,,,,,0,86,86,71,1,
,,,,,,,,,,,,,,,,,5c91b7eabc1a950001fbfdca,20,2022-02-12_12h42.32.959,lexical_decision_task_DD_L6,2021.2.3,Win32,59.86948452,,,,,,,,,,,2.7413,1,,,,,,,,,,,,,,,,,,,,,,,,,0.364108304,0.273451954,0,0,0,,,,,,,BEARD,HB,z,y,./images/BEARDHB.png,,,,,,,,,,,,,,,,,,,,z,1,2.7413,,,,,,,,0,87,87,86,1,
,,,,,,,,,,,,,,,,,5c91b7eabc1a950001fbfdca,20,2022-02-12_12h42.32.959,lexical_decision_task_DD_L6,2021.2.3,Win32,59.86948452,,,,,,,,,,,1.5843,1,,,,,,,,,,,,,,,,,,,,,,,,,0.364108304,0.273451954,0,0,0,,,,,,,CRUMB,HB,z,y,./images/CRUMBHB.png,,,,,,,,,,,,,,,,,,,,z,1,1.5843,,,,,,,,0,88,88,113,1,
,,,,,,,,,,,,,,,,,5c91b7eabc1a950001fbfdca,20,2022-02-12_12h42.32.959,lexical_decision_task_DD_L6,2021.2.3,Win32,59.86948452,,,,,,,,,,,2.1019,0,,,,,,,,,,,,,,,,,,,,,,,,,0.364108304,0.273451954,0,0,0,,,,,,,JUNGLE,HB,z,y,./images/JUNGLEHB.png,,,,,,,,,,,,,,,,,,,,m,0,2.1019,,,,,,,,0,89,89,167,1,
,,,,,,,,,,,,,,,,,5c91b7eabc1a950001fbfdca,20,2022-02-12_12h42.32.959,lexical_decision_task_DD_L6,2021.2.3,Win32,59.86948452,,,,,,,,,,,3.3056,1,,,,,,,,,,,,,,,,,,,,,,,,,0.364108304,0.273451954,0,0,0,,,,,,,PEARL,C,z,y,./images/PEARL.png,,,,,,,,,,,,,,,,,,,,z,1,3.3056,,,,,,,,0,90,90,130,1,
,,,,,,,,,,,,,,,,,5c91b7eabc1a950001fbfdca,20,2022-02-12_12h42.32.959,lexical_decision_task_DD_L6,2021.2.3,Win32,59.86948452,,,,,,,,,,,1.2412,1,,,,,,,,,,,,,,,,,,,,,,,,,0.364108304,0.273451954,0,0,0,,,,,,,BOILER,LB,m,y,./images/BOILERLB.png,,,,,,,,,,,,,,,,,,,,m,1,1.2412,,,,,,,,0,91,91,36,1,
,,,,,,,,,,,,,,,,,5c91b7eabc1a950001fbfdca,20,2022-02-12_12h42.32.959,lexical_decision_task_DD_L6,2021.2.3,Win32,59.86948452,,,,,,,,,,,1.2219,0,,,,,,,,,,,,,,,,,,,,,,,,,0.364108304,0.273451954,0,0,0,,,,,,,BAMBOO,HB,m,y,./images/BAMBOOHB.png,,,,,,,,,,,,,,,,,,,,z,0,1.2219,,,,,,,,0,92,92,5,1,
,,,,,,,,,,,,,,,,,5c91b7eabc1a950001fbfdca,20,2022-02-12_12h42.32.959,lexical_decision_task_DD_L6,2021.2.3,Win32,59.86948452,,,,,,,,,,,1.1546,1,,,,,,,,,,,,,,,,,,,,,,,,,0.364108304,0.273451954,0,0,0,,,,,,,MEDAL,HB,m,y,./images/MEDALHB.png,,,,,,,,,,,,,,,,,,,,m,1,1.1546,,,,,,,,0,93,93,11,1,
,,,,,,,,,,,,,,,,,5c91b7eabc1a950001fbfdca,20,2022-02-12_12h42.32.959,lexical_decision_task_DD_L6,2021.2.3,Win32,59.86948452,,,,,,,,,,,1.0164,0,,,,,,,,,,,,,,,,,,,,,,,,,0.364108304,0.273451954,0,0,0,,,,,,,CANYON,C,z,y,./images/CANYON.png,,,,,,,,,,,,,,,,,,,,m,0,1.0164,,,,,,,,0,94,94,118,1,
,,,,,,,,,,,,,,,,,5c91b7eabc1a950001fbfdca,20,2022-02-12_12h42.32.959,lexical_decision_task_DD_L6,2021.2.3,Win32,59.86948452,,,,,,,,,,,1.1854,1,,,,,,,,,,,,,,,,,,,,,,,,,0.364108304,0.273451954,0,0,0,,,,,,,ATTIC,LB,z,y,./images/ATTICLB.png,,,,,,,,,,,,,,,,,,,,z,1,1.1854,,,,,,,,0,95,95,111,1,
,,,,,,,,,,,,,,,,,5c91b7eabc1a950001fbfdca,20,2022-02-12_12h42.32.959,lexical_decision_task_DD_L6,2021.2.3,Win32,59.86948452,,,,,,,,,,,1.151,1,,,,,,,,,,,,,,,,,,,,,,,,,0.364108304,0.273451954,0,0,0,,,,,,,CRATER,LB,m,y,./images/CRATERLB.png,,,,,,,,,,,,,,,,,,,,m,1,1.151,,,,,,,,0,96,96,3,1,
,,,,,,,,,,,,,,,,,5c91b7eabc1a950001fbfdca,20,2022-02-12_12h42.32.959,lexical_decision_task_DD_L6,2021.2.3,Win32,59.86948452,,,,,,,,,,,1.7014,0,,,,,,,,,,,,,,,,,,,,,,,,,0.364108304,0.273451954,0,0,0,,,,,,,PILOT,HB,m,y,./images/PILOTHB.png,,,,,,,,,,,,,,,,,,,,z,0,1.7014,,,,,,,,0,97,97,50,1,
,,,,,,,,,,,,,,,,,5c91b7eabc1a950001fbfdca,20,2022-02-12_12h42.32.959,lexical_decision_task_DD_L6,2021.2.3,Win32,59.86948452,,,,,,,,,,,1.5088,1,,,,,,,,,,,,,,,,,,,,,,,,,0.364108304,0.273451954,0,0,0,,,,,,,BELLY,C,z,y,./images/BELLY.png,,,,,,,,,,,,,,,,,,,,z,1,1.5088,,,,,,,,0,98,98,94,1,
,,,,,,,,,,,,,,,,,5c91b7eabc1a950001fbfdca,20,2022-02-12_12h42.32.959,lexical_decision_task_DD_L6,2021.2.3,Win32,59.86948452,,,,,,,,,,,1.6096,0,,,,,,,,,,,,,,,,,,,,,,,,,0.364108304,0.273451954,0,0,0,,,,,,,LITTER,LB,z,y,./images/LITTERLB.png,,,,,,,,,,,,,,,,,,,,m,0,1.6096,,,,,,,,0,99,99,162,1,
,,,,,,,,,,,,,,,,,5c91b7eabc1a950001fbfdca,20,2022-02-12_12h42.32.959,lexical_decision_task_DD_L6,2021.2.3,Win32,59.86948452,,,,,,,,,,,1.4173,1,,,,,,,,,,,,,,,,,,,,,,,,,0.364108304,0.273451954,0,0,0,,,,,,,PASTA,HB,z,y,./images/PASTAHB.png,,,,,,,,,,,,,,,,,,,,z,1,1.4173,,,,,,,,0,100,100,89,1,
,,,,,,,,,,,,,,,,,5c91b7eabc1a950001fbfdca,20,2022-02-12_12h42.32.959,lexical_decision_task_DD_L6,2021.2.3,Win32,59.86948452,,,,,,,,,,,1.2186,1,,,,,,,,,,,,,,,,,,,,,,,,,0.364108304,0.273451954,0,0,0,,,,,,,WAGON,C,m,y,./images/WAGON.png,,,,,,,,,,,,,,,,,,,,m,1,1.2186,,,,,,,,0,101,101,7,1,
,,,,,,,,,,,,,,,,,5c91b7eabc1a950001fbfdca,20,2022-02-12_12h42.32.959,lexical_decision_task_DD_L6,2021.2.3,Win32,59.86948452,,,,,,,,,,,1.4019,1,,,,,,,,,,,,,,,,,,,,,,,,,0.364108304,0.273451954,0,0,0,,,,,,,CANOE,C,m,y,./images/CANOE.png,,,,,,,,,,,,,,,,,,,,m,1,1.4019,,,,,,,,0,102,102,58,1,
,,,,,,,,,,,,,,,,,5c91b7eabc1a950001fbfdca,20,2022-02-12_12h42.32.959,lexical_decision_task_DD_L6,2021.2.3,Win32,59.86948452,,,,,,,,,,,1.1077,1,,,,,,,,,,,,,,,,,,,,,,,,,0.364108304,0.273451954,0,0,0,,,,,,,FERRY,LB,m,y,./images/FERRYLB.png,,,,,,,,,,,,,,,,,,,,m,1,1.1077,,,,,,,,0,103,103,57,1,
,,,,,,,,,,,,,,,,,5c91b7eabc1a950001fbfdca,20,2022-02-12_12h42.32.959,lexical_decision_task_DD_L6,2021.2.3,Win32,59.86948452,,,,,,,,,,,1.9226,0,,,,,,,,,,,,,,,,,,,,,,,,,0.364108304,0.273451954,0,0,0,,,,,,,SWEAT,LB,z,y,./images/SWEATLB.png,,,,,,,,,,,,,,,,,,,,m,0,1.9226,,,,,,,,0,104,104,150,1,
,,,,,,,,,,,,,,,,,5c91b7eabc1a950001fbfdca,20,2022-02-12_12h42.32.959,lexical_decision_task_DD_L6,2021.2.3,Win32,59.86948452,,,,,,,,,,,2.6199,1,,,,,,,,,,,,,,,,,,,,,,,,,0.364108304,0.273451954,0,0,0,,,,,,,BURIAL,HB,z,y,./images/BURIALHB.png,,,,,,,,,,,,,,,,,,,,z,1,2.6199,,,,,,,,0,105,105,143,1,
,,,,,,,,,,,,,,,,,5c91b7eabc1a950001fbfdca,20,2022-02-12_12h42.32.959,lexical_decision_task_DD_L6,2021.2.3,Win32,59.86948452,,,,,,,,,,,3.1009,1,,,,,,,,,,,,,,,,,,,,,,,,,0.364108304,0.273451954,0,0,0,,,,,,,MALLET,HB,z,y,./images/MALLETHB.png,,,,,,,,,,,,,,,,,,,,z,1,3.1009,,,,,,,,0,106,106,134,1,
,,,,,,,,,,,,,,,,,5c91b7eabc1a950001fbfdca,20,2022-02-12_12h42.32.959,lexical_decision_task_DD_L6,2021.2.3,Win32,59.86948452,,,,,,,,,,,1.135,1,,,,,,,,,,,,,,,,,,,,,,,,,0.364108304,0.273451954,0,0,0,,,,,,,STAIN,LB,m,y,./images/STAINLB.png,,,,,,,,,,,,,,,,,,,,m,1,1.135,,,,,,,,0,107,107,6,1,
,,,,,,,,,,,,,,,,,5c91b7eabc1a950001fbfdca,20,2022-02-12_12h42.32.959,lexical_decision_task_DD_L6,2021.2.3,Win32,59.86948452,,,,,,,,,,,2.8246,1,,,,,,,,,,,,,,,,,,,,,,,,,0.364108304,0.273451954,0,0,0,,,,,,,PISTOL,HB,m,y,./images/PISTOLHB.png,,,,,,,,,,,,,,,,,,,,m,1,2.8246,,,,,,,,0,108,108,29,1,
,,,,,,,,,,,,,,,,,5c91b7eabc1a950001fbfdca,20,2022-02-12_12h42.32.959,lexical_decision_task_DD_L6,2021.2.3,Win32,59.86948452,,,,,,,,,,,1.3338,0,,,,,,,,,,,,,,,,,,,,,,,,,0.364108304,0.273451954,0,0,0,,,,,,,FOLDER,LB,z,y,./images/FOLDERLB.png,,,,,,,,,,,,,,,,,,,,m,0,1.3338,,,,,,,,0,109,109,126,1,
,,,,,,,,,,,,,,,,,5c91b7eabc1a950001fbfdca,20,2022-02-12_12h42.32.959,lexical_decision_task_DD_L6,2021.2.3,Win32,59.86948452,,,,,,,,,,,0.6734,1,,,,,,,,,,,,,,,,,,,,,,,,,0.364108304,0.273451954,0,0,0,,,,,,,DESERT,C,m,y,./images/DESERT.png,,,,,,,,,,,,,,,,,,,,m,1,0.6734,,,,,,,,0,110,110,52,1,
,,,,,,,,,,,,,,,,,5c91b7eabc1a950001fbfdca,20,2022-02-12_12h42.32.959,lexical_decision_task_DD_L6,2021.2.3,Win32,59.86948452,,,,,,,,,,,0.5771,1,,,,,,,,,,,,,,,,,,,,,,,,,0.364108304,0.273451954,0,0,0,,,,,,,SNAKE,C,m,y,./images/SNAKE.png,,,,,,,,,,,,,,,,,,,,m,1,0.5771,,,,,,,,0,111,111,40,1,
,,,,,,,,,,,,,,,,,5c91b7eabc1a950001fbfdca,20,2022-02-12_12h42.32.959,lexical_decision_task_DD_L6,2021.2.3,Win32,59.86948452,,,,,,,,,,,0.6015,1,,,,,,,,,,,,,,,,,,,,,,,,,0.364108304,0.273451954,0,0,0,,,,,,,BROOM,LB,m,y,./images/BROOMLB.png,,,,,,,,,,,,,,,,,,,,m,1,0.6015,,,,,,,,0,112,112,78,1,
,,,,,,,,,,,,,,,,,5c91b7eabc1a950001fbfdca,20,2022-02-12_12h42.32.959,lexical_decision_task_DD_L6,2021.2.3,Win32,59.86948452,,,,,,,,,,,0.6367,1,,,,,,,,,,,,,,,,,,,,,,,,,0.364108304,0.273451954,0,0,0,,,,,,,BANANA,C,m,y,./images/BANANA.png,,,,,,,,,,,,,,,,,,,,m,1,0.6367,,,,,,,,0,113,113,70,1,
,,,,,,,,,,,,,,,,,5c91b7eabc1a950001fbfdca,20,2022-02-12_12h42.32.959,lexical_decision_task_DD_L6,2021.2.3,Win32,59.86948452,,,,,,,,,,,0.6672,1,,,,,,,,,,,,,,,,,,,,,,,,,0.364108304,0.273451954,0,0,0,,,,,,,GLOVE,C,m,y,./images/GLOVE.png,,,,,,,,,,,,,,,,,,,,m,1,0.6672,,,,,,,,0,114,114,73,1,
,,,,,,,,,,,,,,,,,5c91b7eabc1a950001fbfdca,20,2022-02-12_12h42.32.959,lexical_decision_task_DD_L6,2021.2.3,Win32,59.86948452,,,,,,,,,,,0.5338,1,,,,,,,,,,,,,,,,,,,,,,,,,0.364108304,0.273451954,0,0,0,,,,,,,FLASK,LB,m,y,./images/FLASKLB.png,,,,,,,,,,,,,,,,,,,,m,1,0.5338,,,,,,,,0,115,115,72,1,
,,,,,,,,,,,,,,,,,5c91b7eabc1a950001fbfdca,20,2022-02-12_12h42.32.959,lexical_decision_task_DD_L6,2021.2.3,Win32,59.86948452,,,,,,,,,,,1.2452,1,,,,,,,,,,,,,,,,,,,,,,,,,0.364108304,0.273451954,0,0,0,,,,,,,TRIPOD,LB,z,y,./images/TRIPODLB.png,,,,,,,,,,,,,,,,,,,,z,1,1.2452,,,,,,,,0,116,116,138,1,
,,,,,,,,,,,,,,,,,5c91b7eabc1a950001fbfdca,20,2022-02-12_12h42.32.959,lexical_decision_task_DD_L6,2021.2.3,Win32,59.86948452,,,,,,,,,,,0.7699,0,,,,,,,,,,,,,,,,,,,,,,,,,0.364108304,0.273451954,0,0,0,,,,,,,SPORT,LB,z,y,./images/SPORTLB.png,,,,,,,,,,,,,,,,,,,,m,0,0.7699,,,,,,,,0,117,117,132,1,
,,,,,,,,,,,,,,,,,5c91b7eabc1a950001fbfdca,20,2022-02-12_12h42.32.959,lexical_decision_task_DD_L6,2021.2.3,Win32,59.86948452,,,,,,,,,,,0.5608,1,,,,,,,,,,,,,,,,,,,,,,,,,0.364108304,0.273451954,0,0,0,,,,,,,GRANNY,HB,m,y,./images/GRANNYHB.png,,,,,,,,,,,,,,,,,,,,m,1,0.5608,,,,,,,,0,118,118,20,1,
,,,,,,,,,,,,,,,,,5c91b7eabc1a950001fbfdca,20,2022-02-12_12h42.32.959,lexical_decision_task_DD_L6,2021.2.3,Win32,59.86948452,,,,,,,,,,,0.6161,1,,,,,,,,,,,,,,,,,,,,,,,,,0.364108304,0.273451954,0,0,0,,,,,,,SLOPE,LB,m,y,./images/SLOPELB.png,,,,,,,,,,,,,,,,,,,,m,1,0.6161,,,,,,,,0,119,119,30,1,
,,,,,,,,,,,,,,,,,5c91b7eabc1a950001fbfdca,20,2022-02-12_12h42.32.959,lexical_decision_task_DD_L6,2021.2.3,Win32,59.86948452,,,,,,,,,,,0.7012,1,,,,,,,,,,,,,,,,,,,,,,,,,0.364108304,0.273451954,0,0,0,,,,,,,LLAMA,HB,m,y,./images/LLAMAHB.png,,,,,,,,,,,,,,,,,,,,m,1,0.7012,,,,,,,,0,120,120,35,1,
,,,,,,,,,,,,,,,,,5c91b7eabc1a950001fbfdca,20,2022-02-12_12h42.32.959,lexical_decision_task_DD_L6,2021.2.3,Win32,59.86948452,,,,,,,,,,,0.7348,1,,,,,,,,,,,,,,,,,,,,,,,,,0.364108304,0.273451954,0,0,0,,,,,,,THROAT,LB,z,y,./images/THROATLB.png,,,,,,,,,,,,,,,,,,,,z,1,0.7348,,,,,,,,0,121,121,120,1,
,,,,,,,,,,,,,,,,,5c91b7eabc1a950001fbfdca,20,2022-02-12_12h42.32.959,lexical_decision_task_DD_L6,2021.2.3,Win32,59.86948452,,,,,,,,,,,0.7273,0,,,,,,,,,,,,,,,,,,,,,,,,,0.364108304,0.273451954,0,0,0,,,,,,,FARMER,HB,z,y,./images/FARMERHB.png,,,,,,,,,,,,,,,,,,,,m,0,0.7273,,,,,,,,0,122,122,149,1,
,,,,,,,,,,,,,,,,,5c91b7eabc1a950001fbfdca,20,2022-02-12_12h42.32.959,lexical_decision_task_DD_L6,2021.2.3,Win32,59.86948452,,,,,,,,,,,0.5346,1,,,,,,,,,,,,,,,,,,,,,,,,,0.364108304,0.273451954,0,0,0,,,,,,,WALNUT,LB,m,y,./images/WALNUTLB.png,,,,,,,,,,,,,,,,,,,,m,1,0.5346,,,,,,,,0,123,123,0,1,
,,,,,,,,,,,,,,,,,5c91b7eabc1a950001fbfdca,20,2022-02-12_12h42.32.959,lexical_decision_task_DD_L6,2021.2.3,Win32,59.86948452,,,,,,,,,,,0.6061,1,,,,,,,,,,,,,,,,,,,,,,,,,0.364108304,0.273451954,0,0,0,,,,,,,SKIING,HB,z,y,./images/SKIINGHB.png,,,,,,,,,,,,,,,,,,,,z,1,0.6061,,,,,,,,0,124,124,101,1,
,,,,,,,,,,,,,,,,,5c91b7eabc1a950001fbfdca,20,2022-02-12_12h42.32.959,lexical_decision_task_DD_L6,2021.2.3,Win32,59.86948452,,,,,,,,,,,0.7851,1,,,,,,,,,,,,,,,,,,,,,,,,,0.092695615,-0.356878038,1,0,0,,,,,,,BLOKE,LB,m,y,./images/BLOKELB.png,,,,,,,,,,,,,,,,,,,,m,1,0.7851,,,,,,,,0,125,125,12,1,break_done_button
,,,,,,,,,,,,,,,,,5c91b7eabc1a950001fbfdca,20,2022-02-12_12h42.32.959,lexical_decision_task_DD_L6,2021.2.3,Win32,59.86948452,,,,,,,,,,,2.8506,1,,,,,,,,,,,,,,,,,,,,,,,,,0.106785345,0.086577667,0,0,0,,,,,,,BRUSH,HB,m,y,./images/BRUSHHB.png,,,,,,,,,,,,,,,,,,,,m,1,2.8506,,,,,,,,0,126,126,59,1,
,,,,,,,,,,,,,,,,,5c91b7eabc1a950001fbfdca,20,2022-02-12_12h42.32.959,lexical_decision_task_DD_L6,2021.2.3,Win32,59.86948452,,,,,,,,,,,1.2677,1,,,,,,,,,,,,,,,,,,,,,,,,,0.106785345,0.086577667,0,0,0,,,,,,,DIVER,LB,m,y,./images/DIVERLB.png,,,,,,,,,,,,,,,,,,,,m,1,1.2677,,,,,,,,0,127,127,9,1,
,,,,,,,,,,,,,,,,,5c91b7eabc1a950001fbfdca,20,2022-02-12_12h42.32.959,lexical_decision_task_DD_L6,2021.2.3,Win32,59.86948452,,,,,,,,,,,1.6187,1,,,,,,,,,,,,,,,,,,,,,,,,,0.106785345,0.086577667,0,0,0,,,,,,,POKER,C,m,y,./images/POKER.png,,,,,,,,,,,,,,,,,,,,m,1,1.6187,,,,,,,,0,128,128,67,1,
,,,,,,,,,,,,,,,,,5c91b7eabc1a950001fbfdca,20,2022-02-12_12h42.32.959,lexical_decision_task_DD_L6,2021.2.3,Win32,59.86948452,,,,,,,,,,,1.5397,1,,,,,,,,,,,,,,,,,,,,,,,,,0.106785345,0.086577667,0,0,0,,,,,,,SQUARE,LB,z,y,./images/SQUARELB.png,,,,,,,,,,,,,,,,,,,,z,1,1.5397,,,,,,,,0,129,129,90,1,
,,,,,,,,,,,,,,,,,5c91b7eabc1a950001fbfdca,20,2022-02-12_12h42.32.959,lexical_decision_task_DD_L6,2021.2.3,Win32,59.86948452,,,,,,,,,,,0.6266,0,,,,,,,,,,,,,,,,,,,,,,,,,0.106785345,0.086577667,0,0,0,,,,,,,BISHOP,C,m,y,./images/BISHOP.png,,,,,,,,,,,,,,,,,,,,z,0,0.6266,,,,,,,,0,130,130,49,1,
,,,,,,,,,,,,,,,,,5c91b7eabc1a950001fbfdca,20,2022-02-12_12h42.32.959,lexical_decision_task_DD_L6,2021.2.3,Win32,59.86948452,,,,,,,,,,,0.6348,1,,,,,,,,,,,,,,,,,,,,,,,,,0.106785345,0.086577667,0,0,0,,,,,,,LIZARD,HB,z,y,./images/LIZARDHB.png,,,,,,,,,,,,,,,,,,,,z,1,0.6348,,,,,,,,0,131,131,128,1,
