key_resp.keys,instr_done_touch.x,instr_done_touch.y,instr_done_touch.leftButton,instr_done_touch.midButton,instr_done_touch.rightButton,instr_done_touch.clicked_name,instruction_pages.thisRepN,instruction_pages.thisTrialN,instruction_pages.thisN,instruction_pages.thisIndex,instruction_pages.ran,pageN,phase,instruct_text,has_image,instruct_image,participant,age,date,expName,psychopyVersion,OS,frameRate,response.keys,response.corr,touch_resp.x,touch_resp.y,touch_resp.leftButton,touch_resp.midButton,touch_resp.rightButton,touch_resp.time,touch_resp.clicked_name,rt,corr,practrials.thisRepN,practrials.thisTrialN,practrials.thisN,practrials.thisIndex,practrials.ran,TrialID,Target,corrAns,end_of_practice_trials_pages.thisRepN,end_of_practice_trials_pages.thisTrialN,end_of_practice_trials_pages.thisN,end_of_practice_trials_pages.thisIndex,end_of_practice_trials_pages.ran,key_resp_2.keys,key_resp_2.corr,targ_click.x,targ_click.y,targ_click.leftButton,targ_click.midButton,targ_click.rightButton,targ_click.time,targ_click.clicked_name,break_done_touch.x,break_done_touch.y,break_done_touch.leftButton,break_done_touch.midButton,break_done_touch.rightButton,break_done_keyboard.keys,maintrials.thisRepN,maintrials.thisTrialN,maintrials.thisN,maintrials.thisIndex,maintrials.ran,string,blur,study,lex,stim_path,break_done_touch.clicked_name,mouse_2.x,mouse_2.y,mouse_2.leftButton,mouse_2.midButton,mouse_2.rightButton,mouse_2.clicked_name,slider.response,slider.rt,trials.thisRepN,trials.thisTrialN,trials.thisN,trials.thisIndex,trials.ran,test_instructions.thisRepN,test_instructions.thisTrialN,test_instructions.thisN,test_instructions.thisIndex,test_instructions.ran,key_resp_3.keys,key_resp_3.corr,test_click.x,test_click.y,test_click.leftButton,test_click.midButton,test_click.rightButton,test_click.time,test_click.clicked_name,test_phase.thisRepN,test_phase.thisTrialN,test_phase.thisN,test_phase.thisIndex,test_phase.ran
,0.054081633,-0.360714286,1,0,0,instr_done_button,0,0,0,0,1,1,instructions,"INSTRUCTIONS
At the start of each trial, look at the plus sign  (+) in the center of the screen.  This tells you that a trial is about to begin and where to look. Second, the plus sign will disappear and a string of letters will appear. Your task is to determine if the string of letters is a word or not. If the item is a word press the M key (on keyboard)  or touch the word button (phone/tablet).  If the item is not a word,  press the  Z key (on keyboard)  or touch the nonword button (on phone/tablet). 
Press the space bar or touch  continue.",0,,5c9bfbfa325c3d001ad360a8,26,2022-02-12_13h16.43.021,lexical_decision_task_DD_L6,2021.2.3,iPhone,58.82352941,,,,,,,,,,,,,,,,,,,,,,,,,,,,,,,,,,,,,,,,,,,,,,,,,,,,,,,,,,,,,,,,,,,,,,,,,,,,,,,,,,
,0.104081633,-0.431122449,1,0,0,instr_done_button,0,1,1,1,1,2,instructions,"If your device has a keyboard, press the 'Z' key for nonwords and the 'M' key for words.





Press the space bar or touch the button below to continue.",0,keyboard-example.gif,5c9bfbfa325c3d001ad360a8,26,2022-02-12_13h16.43.021,lexical_decision_task_DD_L6,2021.2.3,iPhone,58.82352941,,,,,,,,,,,,,,,,,,,,,,,,,,,,,,,,,,,,,,,,,,,,,,,,,,,,,,,,,,,,,,,,,,,,,,,,,,,,,,,,,,
,0.063265306,-0.385204082,1,0,0,instr_done_button,0,2,2,2,1,3,instructions,"If you are using a touchscreen only device, use the buttons on the screen. Do not use the mouse.





Press the space bar or touch the button below to continue.",0,touchscreen-example.gif,5c9bfbfa325c3d001ad360a8,26,2022-02-12_13h16.43.021,lexical_decision_task_DD_L6,2021.2.3,iPhone,58.82352941,,,,,,,,,,,,,,,,,,,,,,,,,,,,,,,,,,,,,,,,,,,,,,,,,,,,,,,,,,,,,,,,,,,,,,,,,,,,,,,,,,
,0.019387755,-0.410714286,1,0,0,instr_done_button,0,3,3,3,1,4,instructions,"It is very important that you respond as quickly and accurately as possible, as each letter string will only be on the screen for two seconds. If you do not respond within this time, the message 'Too slow!' will be displayed and the experiment will progress to the next letter string. The first 20 trials will be practice trials and you will receive feedback on your answers. 

Press the space bar or touch the button below to start the practice trials.",0,,5c9bfbfa325c3d001ad360a8,26,2022-02-12_13h16.43.021,lexical_decision_task_DD_L6,2021.2.3,iPhone,58.82352941,,,,,,,,,,,,,,,,,,,,,,,,,,,,,,,,,,,,,,,,,,,,,,,,,,,,,,,,,,,,,,,,,,,,,,,,,,,,,,,,,,
,,,,,,,,,,,,,,,,,5c9bfbfa325c3d001ad360a8,26,2022-02-12_13h16.43.021,lexical_decision_task_DD_L6,2021.2.3,iPhone,58.82352941,,0,0.267346939,-0.343367347,1,0,0,1.355,button_right,1.355,1,0,0,0,4,1,1001,SQUEAK,m,,,,,,,,,,,,,,,,,,,,,,,,,,,,,,,,,,,,,,,,,,,,,,,,,,,,,,,,,,,,,,,
,,,,,,,,,,,,,,,,,5c9bfbfa325c3d001ad360a8,26,2022-02-12_13h16.43.021,lexical_decision_task_DD_L6,2021.2.3,iPhone,58.82352941,,0,-0.276530612,-0.323979592,1,0,0,1.168,button_left,1.168,1,0,1,1,13,1,1001,ROUPET,z,,,,,,,,,,,,,,,,,,,,,,,,,,,,,,,,,,,,,,,,,,,,,,,,,,,,,,,,,,,,,,,
,,,,,,,,,,,,,,,,,5c9bfbfa325c3d001ad360a8,26,2022-02-12_13h16.43.021,lexical_decision_task_DD_L6,2021.2.3,iPhone,58.82352941,,0,-0.262244898,-0.335204082,1,0,0,0.959,button_left,0.959,1,0,2,2,12,1,1001,SPRINY,z,,,,,,,,,,,,,,,,,,,,,,,,,,,,,,,,,,,,,,,,,,,,,,,,,,,,,,,,,,,,,,,
,,,,,,,,,,,,,,,,,5c9bfbfa325c3d001ad360a8,26,2022-02-12_13h16.43.021,lexical_decision_task_DD_L6,2021.2.3,iPhone,58.82352941,,0,-0.275510204,-0.338265306,1,0,0,0.997,button_left,0.997,1,0,3,3,10,1,1001,INLADE,z,,,,,,,,,,,,,,,,,,,,,,,,,,,,,,,,,,,,,,,,,,,,,,,,,,,,,,,,,,,,,,,
,,,,,,,,,,,,,,,,,5c9bfbfa325c3d001ad360a8,26,2022-02-12_13h16.43.021,lexical_decision_task_DD_L6,2021.2.3,iPhone,58.82352941,,0,0.228571429,-0.321938776,1,0,0,0.778,button_right,0.778,1,0,4,4,3,1,1001,MATRIX,m,,,,,,,,,,,,,,,,,,,,,,,,,,,,,,,,,,,,,,,,,,,,,,,,,,,,,,,,,,,,,,,
,,,,,,,,,,,,,,,,,5c9bfbfa325c3d001ad360a8,26,2022-02-12_13h16.43.021,lexical_decision_task_DD_L6,2021.2.3,iPhone,58.82352941,,0,-0.264285714,-0.350510204,1,0,0,0.941,button_left,0.941,1,0,5,5,8,1,1001,ASLERT,z,,,,,,,,,,,,,,,,,,,,,,,,,,,,,,,,,,,,,,,,,,,,,,,,,,,,,,,,,,,,,,,
,,,,,,,,,,,,,,,,,5c9bfbfa325c3d001ad360a8,26,2022-02-12_13h16.43.021,lexical_decision_task_DD_L6,2021.2.3,iPhone,58.82352941,,0,0.251020408,-0.331122449,1,0,0,1.125,button_right,1.125,1,0,6,6,0,1,1001,UTOPIA,m,,,,,,,,,,,,,,,,,,,,,,,,,,,,,,,,,,,,,,,,,,,,,,,,,,,,,,,,,,,,,,,
,,,,,,,,,,,,,,,,,5c9bfbfa325c3d001ad360a8,26,2022-02-12_13h16.43.021,lexical_decision_task_DD_L6,2021.2.3,iPhone,58.82352941,,0,0.274489796,-0.370918367,1,0,0,0.813,button_right,0.813,1,0,7,7,6,1,1001,ZOMBIE,m,,,,,,,,,,,,,,,,,,,,,,,,,,,,,,,,,,,,,,,,,,,,,,,,,,,,,,,,,,,,,,,
,,,,,,,,,,,,,,,,,5c9bfbfa325c3d001ad360a8,26,2022-02-12_13h16.43.021,lexical_decision_task_DD_L6,2021.2.3,iPhone,58.82352941,,0,-0.287755102,-0.33622449,1,0,0,0.926,button_left,0.926,1,0,8,8,15,1,1001,WHAISE,z,,,,,,,,,,,,,,,,,,,,,,,,,,,,,,,,,,,,,,,,,,,,,,,,,,,,,,,,,,,,,,,
,,,,,,,,,,,,,,,,,5c9bfbfa325c3d001ad360a8,26,2022-02-12_13h16.43.021,lexical_decision_task_DD_L6,2021.2.3,iPhone,58.82352941,,0,-0.274489796,-0.349489796,1,0,0,0.791,button_left,0.791,1,0,9,9,14,1,1001,THRALE,z,,,,,,,,,,,,,,,,,,,,,,,,,,,,,,,,,,,,,,,,,,,,,,,,,,,,,,,,,,,,,,,
,,,,,,,,,,,,,,,,,5c9bfbfa325c3d001ad360a8,26,2022-02-12_13h16.43.021,lexical_decision_task_DD_L6,2021.2.3,iPhone,58.82352941,,0,0.262244898,-0.335204082,1,0,0,0.961,button_right,0.961,1,0,10,10,7,1,1001,VOLUME,m,,,,,,,,,,,,,,,,,,,,,,,,,,,,,,,,,,,,,,,,,,,,,,,,,,,,,,,,,,,,,,,
,,,,,,,,,,,,,,,,,5c9bfbfa325c3d001ad360a8,26,2022-02-12_13h16.43.021,lexical_decision_task_DD_L6,2021.2.3,iPhone,58.82352941,,0,-0.297959184,-0.349489796,1,0,0,0.928,button_left,0.928,1,0,11,11,9,1,1001,FARINY,z,,,,,,,,,,,,,,,,,,,,,,,,,,,,,,,,,,,,,,,,,,,,,,,,,,,,,,,,,,,,,,,
,,,,,,,,,,,,,,,,,5c9bfbfa325c3d001ad360a8,26,2022-02-12_13h16.43.021,lexical_decision_task_DD_L6,2021.2.3,iPhone,58.82352941,,0,0.218367347,-0.330102041,1,0,0,0.693,button_right,0.693,1,0,12,12,5,1,1001,OBTAIN,m,,,,,,,,,,,,,,,,,,,,,,,,,,,,,,,,,,,,,,,,,,,,,,,,,,,,,,,,,,,,,,,
,,,,,,,,,,,,,,,,,5c9bfbfa325c3d001ad360a8,26,2022-02-12_13h16.43.021,lexical_decision_task_DD_L6,2021.2.3,iPhone,58.82352941,,0,-0.280612245,-0.353571429,1,0,0,0.826,button_left,0.826,1,0,13,13,11,1,1001,RASHET,z,,,,,,,,,,,,,,,,,,,,,,,,,,,,,,,,,,,,,,,,,,,,,,,,,,,,,,,,,,,,,,,
,,,,,,,,,,,,,,,,,5c9bfbfa325c3d001ad360a8,26,2022-02-12_13h16.43.021,lexical_decision_task_DD_L6,2021.2.3,iPhone,58.82352941,,0,0.235714286,-0.305612245,1,0,0,0.709,button_right,0.709,1,0,14,14,1,1,1001,ADJUST,m,,,,,,,,,,,,,,,,,,,,,,,,,,,,,,,,,,,,,,,,,,,,,,,,,,,,,,,,,,,,,,,
,,,,,,,,,,,,,,,,,5c9bfbfa325c3d001ad360a8,26,2022-02-12_13h16.43.021,lexical_decision_task_DD_L6,2021.2.3,iPhone,58.82352941,,0,0.224489796,-0.362755102,1,0,0,0.561,button_right,0.561,1,0,15,15,2,1,1001,ALMOND,m,,,,,,,,,,,,,,,,,,,,,,,,,,,,,,,,,,,,,,,,,,,,,,,,,,,,,,,,,,,,,,,
,0.005102041,-0.410714286,1,0,0,instr_done_button,,,,,,1,end_of_practice,"You have completed the practice trials. During the experimental trials, you will not receive feedback. 
Before you begin, please ensure that you are in a comfortable and quiet location and will not be disturbed for about 15 minutes, as we cannot use your data if you do not complete all the trials. 
 When you are ready to start the experimental trials, please press space or touch the button below.",,,5c9bfbfa325c3d001ad360a8,26,2022-02-12_13h16.43.021,lexical_decision_task_DD_L6,2021.2.3,iPhone,58.82352941,,,,,,,,,,,,,,,,,,,,0,0,0,0,1,,,,,,,,,,,,,,,,,,,,,,,,,,,,,,,,,,,,,,,,,,,,,,,,,,,,,,,,,,
,,,,,,,,,,,,,,,,,5c9bfbfa325c3d001ad360a8,26,2022-02-12_13h16.43.021,lexical_decision_task_DD_L6,2021.2.3,iPhone,58.82352941,,,,,,,,,,2.036,1,,,,,,,,,,,,,,,0,-0.260204082,-0.343367347,1,0,0,2.036,button_left_main,-0.260204082,-0.343367347,1,0,0,,0,0,0,154,1,THINT,HB,z,z,./images/THINTHB.png,,,,,,,,,,,,,,,,,,,,,,,,,,,,,,,,,
,,,,,,,,,,,,,,,,,5c9bfbfa325c3d001ad360a8,26,2022-02-12_13h16.43.021,lexical_decision_task_DD_L6,2021.2.3,iPhone,58.82352941,,,,,,,,,,1.677,0,,,,,,,,,,,,,,,0,0.283673469,-0.342346939,1,0,0,1.677,button_right_main,0.283673469,-0.342346939,1,0,0,,0,1,1,142,1,PLASK,HB,z,z,./images/PLASKHB.png,,,,,,,,,,,,,,,,,,,,,,,,,,,,,,,,,
,,,,,,,,,,,,,,,,,5c9bfbfa325c3d001ad360a8,26,2022-02-12_13h16.43.021,lexical_decision_task_DD_L6,2021.2.3,iPhone,58.82352941,,,,,,,,,,1.559,1,,,,,,,,,,,,,,,0,0.275510204,-0.293367347,1,0,0,1.559,button_right_main,0.275510204,-0.293367347,1,0,0,,0,2,2,62,1,MAMMAL,HB,m,m,./images/MAMMALHB.png,,,,,,,,,,,,,,,,,,,,,,,,,,,,,,,,,
,,,,,,,,,,,,,,,,,5c9bfbfa325c3d001ad360a8,26,2022-02-12_13h16.43.021,lexical_decision_task_DD_L6,2021.2.3,iPhone,58.82352941,,,,,,,,,,0.976,1,,,,,,,,,,,,,,,0,-0.281632653,-0.34744898,1,0,0,0.976,button_left_main,-0.281632653,-0.34744898,1,0,0,,0,3,3,167,1,ZONET,LB,z,z,./images/ZONETLB.png,,,,,,,,,,,,,,,,,,,,,,,,,,,,,,,,,
,,,,,,,,,,,,,,,,,5c9bfbfa325c3d001ad360a8,26,2022-02-12_13h16.43.021,lexical_decision_task_DD_L6,2021.2.3,iPhone,58.82352941,,,,,,,,,,1.873,1,,,,,,,,,,,,,,,0,-0.26122449,-0.375,1,0,0,1.873,button_left_main,-0.26122449,-0.375,1,0,0,,0,4,4,163,1,GAMBA,HB,z,z,./images/GAMBAHB.png,,,,,,,,,,,,,,,,,,,,,,,,,,,,,,,,,
,,,,,,,,,,,,,,,,,5c9bfbfa325c3d001ad360a8,26,2022-02-12_13h16.43.021,lexical_decision_task_DD_L6,2021.2.3,iPhone,58.82352941,,,,,,,,,,0.946,1,,,,,,,,,,,,,,,0,0.28877551,-0.349489796,1,0,0,0.946,button_right_main,0.28877551,-0.349489796,1,0,0,,0,5,5,10,1,GARDEN,C,m,m,./images/GARDEN.png,,,,,,,,,,,,,,,,,,,,,,,,,,,,,,,,,
,,,,,,,,,,,,,,,,,5c9bfbfa325c3d001ad360a8,26,2022-02-12_13h16.43.021,lexical_decision_task_DD_L6,2021.2.3,iPhone,58.82352941,,,,,,,,,,1.026,1,,,,,,,,,,,,,,,0,0.310204082,-0.330102041,1,0,0,1.026,button_right_main,0.310204082,-0.330102041,1,0,0,,0,6,6,13,1,BUNNY,C,m,m,./images/BUNNY.png,,,,,,,,,,,,,,,,,,,,,,,,,,,,,,,,,
,,,,,,,,,,,,,,,,,5c9bfbfa325c3d001ad360a8,26,2022-02-12_13h16.43.021,lexical_decision_task_DD_L6,2021.2.3,iPhone,58.82352941,,,,,,,,,,1.043,1,,,,,,,,,,,,,,,0,-0.292857143,-0.353571429,1,0,0,1.043,button_left_main,-0.292857143,-0.353571429,1,0,0,,0,7,7,164,1,SGREW,LB,z,z,./images/SGREWLB.png,,,,,,,,,,,,,,,,,,,,,,,,,,,,,,,,,
,,,,,,,,,,,,,,,,,5c9bfbfa325c3d001ad360a8,26,2022-02-12_13h16.43.021,lexical_decision_task_DD_L6,2021.2.3,iPhone,58.82352941,,,,,,,,,,1.475,1,,,,,,,,,,,,,,,0,0.260204082,-0.333163265,1,0,0,1.475,button_right_main,0.260204082,-0.333163265,1,0,0,,0,8,8,58,1,CANOE,C,m,m,./images/CANOE.png,,,,,,,,,,,,,,,,,,,,,,,,,,,,,,,,,
,,,,,,,,,,,,,,,,,5c9bfbfa325c3d001ad360a8,26,2022-02-12_13h16.43.021,lexical_decision_task_DD_L6,2021.2.3,iPhone,58.82352941,,,,,,,,,,1.325,1,,,,,,,,,,,,,,,0,0.270408163,-0.326020408,1,0,0,1.325,button_right_main,0.270408163,-0.326020408,1,0,0,,0,9,9,77,1,WHEEL,HB,m,m,./images/WHEELHB.png,,,,,,,,,,,,,,,,,,,,,,,,,,,,,,,,,
,,,,,,,,,,,,,,,,,5c9bfbfa325c3d001ad360a8,26,2022-02-12_13h16.43.021,lexical_decision_task_DD_L6,2021.2.3,iPhone,58.82352941,,,,,,,,,,1.043,1,,,,,,,,,,,,,,,0,-0.298979592,-0.33622449,1,0,0,1.043,button_left_main,-0.298979592,-0.33622449,1,0,0,,0,10,10,125,1,MOOKY,LB,z,z,./images/MOOKYLB.png,,,,,,,,,,,,,,,,,,,,,,,,,,,,,,,,,
,,,,,,,,,,,,,,,,,5c9bfbfa325c3d001ad360a8,26,2022-02-12_13h16.43.021,lexical_decision_task_DD_L6,2021.2.3,iPhone,58.82352941,,,,,,,,,,1.226,1,,,,,,,,,,,,,,,0,0.257142857,-0.318877551,1,0,0,1.226,button_right_main,0.257142857,-0.318877551,1,0,0,,0,11,11,52,1,DESERT,C,m,m,./images/DESERT.png,,,,,,,,,,,,,,,,,,,,,,,,,,,,,,,,,
,,,,,,,,,,,,,,,,,5c9bfbfa325c3d001ad360a8,26,2022-02-12_13h16.43.021,lexical_decision_task_DD_L6,2021.2.3,iPhone,58.82352941,,,,,,,,,,0.8,1,,,,,,,,,,,,,,,0,0.252040816,-0.315816327,1,0,0,0.8,button_right_main,0.252040816,-0.315816327,1,0,0,,0,12,12,55,1,ALLEY,C,m,m,./images/ALLEY.png,,,,,,,,,,,,,,,,,,,,,,,,,,,,,,,,,
,,,,,,,,,,,,,,,,,5c9bfbfa325c3d001ad360a8,26,2022-02-12_13h16.43.021,lexical_decision_task_DD_L6,2021.2.3,iPhone,58.82352941,,,,,,,,,,0.896,1,,,,,,,,,,,,,,,0,-0.283673469,-0.372959184,1,0,0,0.896,button_left_main,-0.283673469,-0.372959184,1,0,0,,0,13,13,99,1,BACKY,C,z,z,./images/BACKY.png,,,,,,,,,,,,,,,,,,,,,,,,,,,,,,,,,
,,,,,,,,,,,,,,,,,5c9bfbfa325c3d001ad360a8,26,2022-02-12_13h16.43.021,lexical_decision_task_DD_L6,2021.2.3,iPhone,58.82352941,,,,,,,,,,0.633,1,,,,,,,,,,,,,,,0,0.252040816,-0.30255102,1,0,0,0.633,button_right_main,0.252040816,-0.30255102,1,0,0,,0,14,14,1,1,TOWEL,C,m,m,./images/TOWEL.png,,,,,,,,,,,,,,,,,,,,,,,,,,,,,,,,,
,,,,,,,,,,,,,,,,,5c9bfbfa325c3d001ad360a8,26,2022-02-12_13h16.43.021,lexical_decision_task_DD_L6,2021.2.3,iPhone,58.82352941,,,,,,,,,,1.544,1,,,,,,,,,,,,,,,0,-0.275510204,-0.373979592,1,0,0,1.544,button_left_main,-0.275510204,-0.373979592,1,0,0,,0,15,15,100,1,DRIBS,HB,z,z,./images/DRIBSHB.png,,,,,,,,,,,,,,,,,,,,,,,,,,,,,,,,,
,,,,,,,,,,,,,,,,,5c9bfbfa325c3d001ad360a8,26,2022-02-12_13h16.43.021,lexical_decision_task_DD_L6,2021.2.3,iPhone,58.82352941,,,,,,,,,,0.964,1,,,,,,,,,,,,,,,0,0.23877551,-0.338265306,1,0,0,0.964,button_right_main,0.23877551,-0.338265306,1,0,0,,0,16,16,38,1,ENGINE,HB,m,m,./images/ENGINEHB.png,,,,,,,,,,,,,,,,,,,,,,,,,,,,,,,,,
,,,,,,,,,,,,,,,,,5c9bfbfa325c3d001ad360a8,26,2022-02-12_13h16.43.021,lexical_decision_task_DD_L6,2021.2.3,iPhone,58.82352941,,,,,,,,,,1.046,1,,,,,,,,,,,,,,,0,-0.274489796,-0.343367347,1,0,0,1.046,button_left_main,-0.274489796,-0.343367347,1,0,0,,0,17,17,119,1,PAFER,LB,z,z,./images/PAFERLB.png,,,,,,,,,,,,,,,,,,,,,,,,,,,,,,,,,
,,,,,,,,,,,,,,,,,5c9bfbfa325c3d001ad360a8,26,2022-02-12_13h16.43.021,lexical_decision_task_DD_L6,2021.2.3,iPhone,58.82352941,,,,,,,,,,0.928,1,,,,,,,,,,,,,,,0,-0.280612245,-0.33622449,1,0,0,0.928,button_left_main,-0.280612245,-0.33622449,1,0,0,,0,18,18,147,1,ZOLES,C,z,z,./images/ZOLES.png,,,,,,,,,,,,,,,,,,,,,,,,,,,,,,,,,
,,,,,,,,,,,,,,,,,5c9bfbfa325c3d001ad360a8,26,2022-02-12_13h16.43.021,lexical_decision_task_DD_L6,2021.2.3,iPhone,58.82352941,,,,,,,,,,1.343,1,,,,,,,,,,,,,,,0,-0.292857143,-0.365816327,1,0,0,1.343,button_left_main,-0.292857143,-0.365816327,1,0,0,,0,19,19,91,1,SHENS,HB,z,z,./images/SHENSHB.png,,,,,,,,,,,,,,,,,,,,,,,,,,,,,,,,,
,,,,,,,,,,,,,,,,,5c9bfbfa325c3d001ad360a8,26,2022-02-12_13h16.43.021,lexical_decision_task_DD_L6,2021.2.3,iPhone,58.82352941,,,,,,,,,,0.778,1,,,,,,,,,,,,,,,0,-0.282653061,-0.342346939,1,0,0,0.778,button_left_main,-0.282653061,-0.342346939,1,0,0,,0,20,20,89,1,DRIEK,LB,z,z,./images/DRIEKLB.png,,,,,,,,,,,,,,,,,,,,,,,,,,,,,,,,,
,,,,,,,,,,,,,,,,,5c9bfbfa325c3d001ad360a8,26,2022-02-12_13h16.43.021,lexical_decision_task_DD_L6,2021.2.3,iPhone,58.82352941,,,,,,,,,,0.911,1,,,,,,,,,,,,,,,0,-0.275510204,-0.370918367,1,0,0,0.911,button_left_main,-0.275510204,-0.370918367,1,0,0,,0,21,21,140,1,DOVET,LB,z,z,./images/DOVETLB.png,,,,,,,,,,,,,,,,,,,,,,,,,,,,,,,,,
,,,,,,,,,,,,,,,,,5c9bfbfa325c3d001ad360a8,26,2022-02-12_13h16.43.021,lexical_decision_task_DD_L6,2021.2.3,iPhone,58.82352941,,,,,,,,,,1.591,1,,,,,,,,,,,,,,,0,-0.273469388,-0.362755102,1,0,0,1.591,button_left_main,-0.273469388,-0.362755102,1,0,0,,0,22,22,127,1,NINDY,HB,z,z,./images/NINDYHB.png,,,,,,,,,,,,,,,,,,,,,,,,,,,,,,,,,
,,,,,,,,,,,,,,,,,5c9bfbfa325c3d001ad360a8,26,2022-02-12_13h16.43.021,lexical_decision_task_DD_L6,2021.2.3,iPhone,58.82352941,,,,,,,,,,1.507,1,,,,,,,,,,,,,,,0,-0.320408163,-0.36377551,1,0,0,1.507,button_left_main,-0.320408163,-0.36377551,1,0,0,,0,23,23,145,1,LAMEL,HB,z,z,./images/LAMELHB.png,,,,,,,,,,,,,,,,,,,,,,,,,,,,,,,,,
,,,,,,,,,,,,,,,,,5c9bfbfa325c3d001ad360a8,26,2022-02-12_13h16.43.021,lexical_decision_task_DD_L6,2021.2.3,iPhone,58.82352941,,,,,,,,,,0.897,1,,,,,,,,,,,,,,,0,0.23877551,-0.330102041,1,0,0,0.897,button_right_main,0.23877551,-0.330102041,1,0,0,,0,24,24,6,1,STAIN,LB,m,m,./images/STAINLB.png,,,,,,,,,,,,,,,,,,,,,,,,,,,,,,,,,
,,,,,,,,,,,,,,,,,5c9bfbfa325c3d001ad360a8,26,2022-02-12_13h16.43.021,lexical_decision_task_DD_L6,2021.2.3,iPhone,58.82352941,,,,,,,,,,1.147,1,,,,,,,,,,,,,,,0,-0.308163265,-0.400510204,1,0,0,1.147,button_left_main,-0.335714286,-0.355612245,1,0,0,,0,25,25,136,1,WERVE,HB,z,z,./images/WERVEHB.png,,,,,,,,,,,,,,,,,,,,,,,,,,,,,,,,,
,,,,,,,,,,,,,,,,,5c9bfbfa325c3d001ad360a8,26,2022-02-12_13h16.43.021,lexical_decision_task_DD_L6,2021.2.3,iPhone,58.82352941,,,,,,,,,,1.366,1,,,,,,,,,,,,,,,0,0.280612245,-0.305612245,1,0,0,1.366,button_right_main,0.280612245,-0.305612245,1,0,0,,0,26,26,59,1,BRUSH,HB,m,m,./images/BRUSHHB.png,,,,,,,,,,,,,,,,,,,,,,,,,,,,,,,,,
,,,,,,,,,,,,,,,,,5c9bfbfa325c3d001ad360a8,26,2022-02-12_13h16.43.021,lexical_decision_task_DD_L6,2021.2.3,iPhone,58.82352941,,,,,,,,,,0.999,1,,,,,,,,,,,,,,,0,0.254081633,-0.333163265,1,0,0,0.999,button_right_main,0.254081633,-0.333163265,1,0,0,,0,27,27,74,1,JUMPER,HB,m,m,./images/JUMPERHB.png,,,,,,,,,,,,,,,,,,,,,,,,,,,,,,,,,
,,,,,,,,,,,,,,,,,5c9bfbfa325c3d001ad360a8,26,2022-02-12_13h16.43.021,lexical_decision_task_DD_L6,2021.2.3,iPhone,58.82352941,,,,,,,,,,1.26,1,,,,,,,,,,,,,,,0,-0.317346939,-0.378061224,1,0,0,1.26,button_left_main,-0.317346939,-0.378061224,1,0,0,,0,28,28,94,1,BLANS,HB,z,z,./images/BLANSHB.png,,,,,,,,,,,,,,,,,,,,,,,,,,,,,,,,,
,,,,,,,,,,,,,,,,,5c9bfbfa325c3d001ad360a8,26,2022-02-12_13h16.43.021,lexical_decision_task_DD_L6,2021.2.3,iPhone,58.82352941,,,,,,,,,,0.881,1,,,,,,,,,,,,,,,0,0.247959184,-0.343367347,1,0,0,0.881,button_right_main,0.247959184,-0.343367347,1,0,0,,0,29,29,20,1,GRANNY,HB,m,m,./images/GRANNYHB.png,,,,,,,,,,,,,,,,,,,,,,,,,,,,,,,,,
,,,,,,,,,,,,,,,,,5c9bfbfa325c3d001ad360a8,26,2022-02-12_13h16.43.021,lexical_decision_task_DD_L6,2021.2.3,iPhone,58.82352941,,,,,,,,,,0.998,1,,,,,,,,,,,,,,,0,0.242857143,-0.334183673,1,0,0,0.998,button_right_main,0.242857143,-0.334183673,1,0,0,,0,30,30,16,1,GRAPE,C,m,m,./images/GRAPE.png,,,,,,,,,,,,,,,,,,,,,,,,,,,,,,,,,
,,,,,,,,,,,,,,,,,5c9bfbfa325c3d001ad360a8,26,2022-02-12_13h16.43.021,lexical_decision_task_DD_L6,2021.2.3,iPhone,58.82352941,,,,,,,,,,1.03,1,,,,,,,,,,,,,,,0,-0.309183673,-0.368877551,1,0,0,1.03,button_left_main,-0.309183673,-0.368877551,1,0,0,,0,31,31,103,1,FLORT,HB,z,z,./images/FLORTHB.png,,,,,,,,,,,,,,,,,,,,,,,,,,,,,,,,,
,,,,,,,,,,,,,,,,,5c9bfbfa325c3d001ad360a8,26,2022-02-12_13h16.43.021,lexical_decision_task_DD_L6,2021.2.3,iPhone,58.82352941,,,,,,,,,,1.361,1,,,,,,,,,,,,,,,0,-0.309183673,-0.357653061,1,0,0,1.361,button_left_main,-0.309183673,-0.357653061,1,0,0,,0,32,32,106,1,CLUMS,HB,z,z,./images/CLUMSHB.png,,,,,,,,,,,,,,,,,,,,,,,,,,,,,,,,,
,,,,,,,,,,,,,,,,,5c9bfbfa325c3d001ad360a8,26,2022-02-12_13h16.43.021,lexical_decision_task_DD_L6,2021.2.3,iPhone,58.82352941,,,,,,,,,,0.98,1,,,,,,,,,,,,,,,0,0.243877551,-0.353571429,1,0,0,0.98,button_right_main,0.243877551,-0.353571429,1,0,0,,0,33,33,82,1,PEBBLE,C,m,m,./images/PEBBLE.png,,,,,,,,,,,,,,,,,,,,,,,,,,,,,,,,,
,,,,,,,,,,,,,,,,,5c9bfbfa325c3d001ad360a8,26,2022-02-12_13h16.43.021,lexical_decision_task_DD_L6,2021.2.3,iPhone,58.82352941,,,,,,,,,,0.778,1,,,,,,,,,,,,,,,0,-0.301020408,-0.31377551,1,0,0,0.778,button_left_main,-0.301020408,-0.31377551,1,0,0,,0,34,34,150,1,NOOLS,C,z,z,./images/NOOLS.png,,,,,,,,,,,,,,,,,,,,,,,,,,,,,,,,,
,,,,,,,,,,,,,,,,,5c9bfbfa325c3d001ad360a8,26,2022-02-12_13h16.43.021,lexical_decision_task_DD_L6,2021.2.3,iPhone,58.82352941,,,,,,,,,,1.28,1,,,,,,,,,,,,,,,0,0.302040816,-0.354591837,1,0,0,1.28,button_right_main,0.302040816,-0.354591837,1,0,0,,0,35,35,53,1,POSTER,HB,m,m,./images/POSTERHB.png,,,,,,,,,,,,,,,,,,,,,,,,,,,,,,,,,
,,,,,,,,,,,,,,,,,5c9bfbfa325c3d001ad360a8,26,2022-02-12_13h16.43.021,lexical_decision_task_DD_L6,2021.2.3,iPhone,58.82352941,,,,,,,,,,0.763,1,,,,,,,,,,,,,,,0,0.215306122,-0.354591837,1,0,0,0.763,button_right_main,0.215306122,-0.354591837,1,0,0,,0,36,36,25,1,CHALK,C,m,m,./images/CHALK.png,,,,,,,,,,,,,,,,,,,,,,,,,,,,,,,,,
,,,,,,,,,,,,,,,,,5c9bfbfa325c3d001ad360a8,26,2022-02-12_13h16.43.021,lexical_decision_task_DD_L6,2021.2.3,iPhone,58.82352941,,,,,,,,,,0.879,1,,,,,,,,,,,,,,,0,0.231632653,-0.356632653,1,0,0,0.879,button_right_main,0.231632653,-0.356632653,1,0,0,,0,37,37,30,1,SLOPE,LB,m,m,./images/SLOPELB.png,,,,,,,,,,,,,,,,,,,,,,,,,,,,,,,,,
,,,,,,,,,,,,,,,,,5c9bfbfa325c3d001ad360a8,26,2022-02-12_13h16.43.021,lexical_decision_task_DD_L6,2021.2.3,iPhone,58.82352941,,,,,,,,,,1.011,1,,,,,,,,,,,,,,,0,0.26122449,-0.323979592,1,0,0,1.011,button_right_main,0.26122449,-0.323979592,1,0,0,,0,38,38,71,1,BUBBLE,HB,m,m,./images/BUBBLEHB.png,,,,,,,,,,,,,,,,,,,,,,,,,,,,,,,,,
,,,,,,,,,,,,,,,,,5c9bfbfa325c3d001ad360a8,26,2022-02-12_13h16.43.021,lexical_decision_task_DD_L6,2021.2.3,iPhone,58.82352941,,,,,,,,,,0.811,1,,,,,,,,,,,,,,,0,-0.292857143,-0.343367347,1,0,0,0.811,button_left_main,-0.292857143,-0.343367347,1,0,0,,0,39,39,102,1,DULLE,C,z,z,./images/DULLE.png,,,,,,,,,,,,,,,,,,,,,,,,,,,,,,,,,
,,,,,,,,,,,,,,,,,5c9bfbfa325c3d001ad360a8,26,2022-02-12_13h16.43.021,lexical_decision_task_DD_L6,2021.2.3,iPhone,58.82352941,,,,,,,,,,0.915,1,,,,,,,,,,,,,,,0,0.234693878,-0.379081633,1,0,0,0.915,button_right_main,0.234693878,-0.379081633,1,0,0,,0,40,40,61,1,ARTIST,C,m,m,./images/ARTIST.png,,,,,,,,,,,,,,,,,,,,,,,,,,,,,,,,,
,,,,,,,,,,,,,,,,,5c9bfbfa325c3d001ad360a8,26,2022-02-12_13h16.43.021,lexical_decision_task_DD_L6,2021.2.3,iPhone,58.82352941,,,,,,,,,,0.861,1,,,,,,,,,,,,,,,0,0.244897959,-0.36377551,1,0,0,0.861,button_right_main,0.058163265,-0.408673469,1,0,0,,0,41,41,60,1,CURRY,LB,m,m,./images/CURRYLB.png,break_done_button,,,,,,,,,,,,,,,,,,,,,,,,,,,,,,,,
,,,,,,,,,,,,,,,,,5c9bfbfa325c3d001ad360a8,26,2022-02-12_13h16.43.021,lexical_decision_task_DD_L6,2021.2.3,iPhone,58.82352941,,,,,,,,,,0.929,1,,,,,,,,,,,,,,,0,-0.286734694,-0.356632653,1,0,0,0.929,button_left_main,-0.286734694,-0.356632653,1,0,0,,0,42,42,117,1,STEEG,C,z,z,./images/STEEG.png,,,,,,,,,,,,,,,,,,,,,,,,,,,,,,,,,
,,,,,,,,,,,,,,,,,5c9bfbfa325c3d001ad360a8,26,2022-02-12_13h16.43.021,lexical_decision_task_DD_L6,2021.2.3,iPhone,58.82352941,,,,,,,,,,0.927,1,,,,,,,,,,,,,,,0,-0.283673469,-0.344387755,1,0,0,0.927,button_left_main,-0.283673469,-0.344387755,1,0,0,,0,43,43,101,1,GLEET,LB,z,z,./images/GLEETLB.png,,,,,,,,,,,,,,,,,,,,,,,,,,,,,,,,,
,,,,,,,,,,,,,,,,,5c9bfbfa325c3d001ad360a8,26,2022-02-12_13h16.43.021,lexical_decision_task_DD_L6,2021.2.3,iPhone,58.82352941,,,,,,,,,,0.645,1,,,,,,,,,,,,,,,0,-0.3,-0.357653061,1,0,0,0.645,button_left_main,-0.3,-0.357653061,1,0,0,,0,44,44,162,1,LEICH,C,z,z,./images/LEICH.png,,,,,,,,,,,,,,,,,,,,,,,,,,,,,,,,,
,,,,,,,,,,,,,,,,,5c9bfbfa325c3d001ad360a8,26,2022-02-12_13h16.43.021,lexical_decision_task_DD_L6,2021.2.3,iPhone,58.82352941,,,,,,,,,,0.797,1,,,,,,,,,,,,,,,0,-0.269387755,-0.36377551,1,0,0,0.797,button_left_main,-0.269387755,-0.36377551,1,0,0,,0,45,45,105,1,MOKER,C,z,z,./images/MOKER.png,,,,,,,,,,,,,,,,,,,,,,,,,,,,,,,,,
,,,,,,,,,,,,,,,,,5c9bfbfa325c3d001ad360a8,26,2022-02-12_13h16.43.021,lexical_decision_task_DD_L6,2021.2.3,iPhone,58.82352941,,,,,,,,,,0.781,1,,,,,,,,,,,,,,,0,0.291836735,-0.322959184,1,0,0,0.781,button_right_main,0.291836735,-0.322959184,1,0,0,,0,46,46,9,1,DIVER,LB,m,m,./images/DIVERLB.png,,,,,,,,,,,,,,,,,,,,,,,,,,,,,,,,,
,,,,,,,,,,,,,,,,,5c9bfbfa325c3d001ad360a8,26,2022-02-12_13h16.43.021,lexical_decision_task_DD_L6,2021.2.3,iPhone,58.82352941,,,,,,,,,,1.061,1,,,,,,,,,,,,,,,0,-0.320408163,-0.36377551,1,0,0,1.061,button_left_main,-0.320408163,-0.36377551,1,0,0,,0,47,47,97,1,CHIDS,HB,z,z,./images/CHIDSHB.png,,,,,,,,,,,,,,,,,,,,,,,,,,,,,,,,,
,,,,,,,,,,,,,,,,,5c9bfbfa325c3d001ad360a8,26,2022-02-12_13h16.43.021,lexical_decision_task_DD_L6,2021.2.3,iPhone,58.82352941,,,,,,,,,,0.781,1,,,,,,,,,,,,,,,0,0.23877551,-0.367857143,1,0,0,0.781,button_right_main,0.23877551,-0.367857143,1,0,0,,0,48,48,2,1,STOVE,HB,m,m,./images/STOVEHB.png,,,,,,,,,,,,,,,,,,,,,,,,,,,,,,,,,
,,,,,,,,,,,,,,,,,5c9bfbfa325c3d001ad360a8,26,2022-02-12_13h16.43.021,lexical_decision_task_DD_L6,2021.2.3,iPhone,58.82352941,,,,,,,,,,0.779,1,,,,,,,,,,,,,,,0,-0.286734694,-0.359693878,1,0,0,0.779,button_left_main,-0.286734694,-0.359693878,1,0,0,,0,49,49,135,1,JOODY,C,z,z,./images/JOODY.png,,,,,,,,,,,,,,,,,,,,,,,,,,,,,,,,,
,,,,,,,,,,,,,,,,,5c9bfbfa325c3d001ad360a8,26,2022-02-12_13h16.43.021,lexical_decision_task_DD_L6,2021.2.3,iPhone,58.82352941,,,,,,,,,,0.798,1,,,,,,,,,,,,,,,0,0.255102041,-0.36377551,1,0,0,0.798,button_right_main,0.255102041,-0.36377551,1,0,0,,0,50,50,47,1,LAGOON,HB,m,m,./images/LAGOONHB.png,,,,,,,,,,,,,,,,,,,,,,,,,,,,,,,,,
,,,,,,,,,,,,,,,,,5c9bfbfa325c3d001ad360a8,26,2022-02-12_13h16.43.021,lexical_decision_task_DD_L6,2021.2.3,iPhone,58.82352941,,,,,,,,,,1.159,1,,,,,,,,,,,,,,,0,-0.335714286,-0.356632653,1,0,0,1.159,button_left_main,-0.335714286,-0.356632653,1,0,0,,0,51,51,115,1,MAWNS,HB,z,z,./images/MAWNSHB.png,,,,,,,,,,,,,,,,,,,,,,,,,,,,,,,,,
,,,,,,,,,,,,,,,,,5c9bfbfa325c3d001ad360a8,26,2022-02-12_13h16.43.021,lexical_decision_task_DD_L6,2021.2.3,iPhone,58.82352941,,,,,,,,,,0.845,1,,,,,,,,,,,,,,,0,0.256122449,-0.369897959,1,0,0,0.845,button_right_main,0.256122449,-0.369897959,1,0,0,,0,52,52,73,1,GLOVE,C,m,m,./images/GLOVE.png,,,,,,,,,,,,,,,,,,,,,,,,,,,,,,,,,
,,,,,,,,,,,,,,,,,5c9bfbfa325c3d001ad360a8,26,2022-02-12_13h16.43.021,lexical_decision_task_DD_L6,2021.2.3,iPhone,58.82352941,,,,,,,,,,0.795,1,,,,,,,,,,,,,,,0,0.23877551,-0.358673469,1,0,0,0.795,button_right_main,0.23877551,-0.358673469,1,0,0,,0,53,53,40,1,SNAKE,C,m,m,./images/SNAKE.png,,,,,,,,,,,,,,,,,,,,,,,,,,,,,,,,,
,,,,,,,,,,,,,,,,,5c9bfbfa325c3d001ad360a8,26,2022-02-12_13h16.43.021,lexical_decision_task_DD_L6,2021.2.3,iPhone,58.82352941,,,,,,,,,,0.746,1,,,,,,,,,,,,,,,0,-0.315306122,-0.35255102,1,0,0,0.746,button_left_main,-0.315306122,-0.35255102,1,0,0,,0,54,54,122,1,BLOOT,LB,z,z,./images/BLOOTLB.png,,,,,,,,,,,,,,,,,,,,,,,,,,,,,,,,,
,,,,,,,,,,,,,,,,,5c9bfbfa325c3d001ad360a8,26,2022-02-12_13h16.43.021,lexical_decision_task_DD_L6,2021.2.3,iPhone,58.82352941,,,,,,,,,,0.597,1,,,,,,,,,,,,,,,0,0.228571429,-0.33622449,1,0,0,0.597,button_right_main,0.228571429,-0.33622449,1,0,0,,0,55,55,67,1,POKER,C,m,m,./images/POKER.png,,,,,,,,,,,,,,,,,,,,,,,,,,,,,,,,,
,,,,,,,,,,,,,,,,,5c9bfbfa325c3d001ad360a8,26,2022-02-12_13h16.43.021,lexical_decision_task_DD_L6,2021.2.3,iPhone,58.82352941,,,,,,,,,,1.06,1,,,,,,,,,,,,,,,0,0.270408163,-0.349489796,1,0,0,1.06,button_right_main,0.270408163,-0.349489796,1,0,0,,0,56,56,32,1,HOCKEY,HB,m,m,./images/HOCKEYHB.png,,,,,,,,,,,,,,,,,,,,,,,,,,,,,,,,,
,,,,,,,,,,,,,,,,,5c9bfbfa325c3d001ad360a8,26,2022-02-12_13h16.43.021,lexical_decision_task_DD_L6,2021.2.3,iPhone,58.82352941,,,,,,,,,,1.112,1,,,,,,,,,,,,,,,0,0.296938776,-0.367857143,1,0,0,1.112,button_right_main,0.296938776,-0.367857143,1,0,0,,0,57,57,50,1,PILOT,HB,m,m,./images/PILOTHB.png,,,,,,,,,,,,,,,,,,,,,,,,,,,,,,,,,
,,,,,,,,,,,,,,,,,5c9bfbfa325c3d001ad360a8,26,2022-02-12_13h16.43.021,lexical_decision_task_DD_L6,2021.2.3,iPhone,58.82352941,,,,,,,,,,0.65,1,,,,,,,,,,,,,,,0,0.242857143,-0.345408163,1,0,0,0.65,button_right_main,0.242857143,-0.345408163,1,0,0,,0,58,58,48,1,SHIELD,LB,m,m,./images/SHIELDLB.png,,,,,,,,,,,,,,,,,,,,,,,,,,,,,,,,,
,,,,,,,,,,,,,,,,,5c9bfbfa325c3d001ad360a8,26,2022-02-12_13h16.43.021,lexical_decision_task_DD_L6,2021.2.3,iPhone,58.82352941,,,,,,,,,,0.814,1,,,,,,,,,,,,,,,0,0.242857143,-0.341326531,1,0,0,0.814,button_right_main,0.242857143,-0.341326531,1,0,0,,0,59,59,12,1,BLOKE,LB,m,m,./images/BLOKELB.png,,,,,,,,,,,,,,,,,,,,,,,,,,,,,,,,,
,,,,,,,,,,,,,,,,,5c9bfbfa325c3d001ad360a8,26,2022-02-12_13h16.43.021,lexical_decision_task_DD_L6,2021.2.3,iPhone,58.82352941,,,,,,,,,,0.598,1,,,,,,,,,,,,,,,0,0.233673469,-0.356632653,1,0,0,0.598,button_right_main,0.233673469,-0.356632653,1,0,0,,0,60,60,66,1,STATUE,LB,m,m,./images/STATUELB.png,,,,,,,,,,,,,,,,,,,,,,,,,,,,,,,,,
,,,,,,,,,,,,,,,,,5c9bfbfa325c3d001ad360a8,26,2022-02-12_13h16.43.021,lexical_decision_task_DD_L6,2021.2.3,iPhone,58.82352941,,,,,,,,,,0.676,1,,,,,,,,,,,,,,,0,0.225510204,-0.355612245,1,0,0,0.676,button_right_main,0.225510204,-0.355612245,1,0,0,,0,61,61,4,1,BOXER,C,m,m,./images/BOXER.png,,,,,,,,,,,,,,,,,,,,,,,,,,,,,,,,,
,,,,,,,,,,,,,,,,,5c9bfbfa325c3d001ad360a8,26,2022-02-12_13h16.43.021,lexical_decision_task_DD_L6,2021.2.3,iPhone,58.82352941,,,,,,,,,,1.26,1,,,,,,,,,,,,,,,0,-0.302040816,-0.378061224,1,0,0,1.26,button_left_main,-0.302040816,-0.378061224,1,0,0,,0,62,62,112,1,MYING,HB,z,z,./images/MYINGHB.png,,,,,,,,,,,,,,,,,,,,,,,,,,,,,,,,,
,,,,,,,,,,,,,,,,,5c9bfbfa325c3d001ad360a8,26,2022-02-12_13h16.43.021,lexical_decision_task_DD_L6,2021.2.3,iPhone,58.82352941,,,,,,,,,,1.243,1,,,,,,,,,,,,,,,0,-0.308163265,-0.358673469,1,0,0,1.243,button_left_main,-0.308163265,-0.358673469,1,0,0,,0,63,63,121,1,CEERS,HB,z,z,./images/CEERSHB.png,,,,,,,,,,,,,,,,,,,,,,,,,,,,,,,,,
,,,,,,,,,,,,,,,,,5c9bfbfa325c3d001ad360a8,26,2022-02-12_13h16.43.021,lexical_decision_task_DD_L6,2021.2.3,iPhone,58.82352941,,,,,,,,,,1.244,1,,,,,,,,,,,,,,,0,-0.32755102,-0.367857143,1,0,0,1.244,button_left_main,-0.32755102,-0.367857143,1,0,0,,0,64,64,87,1,TRING,C,z,z,./images/TRING.png,,,,,,,,,,,,,,,,,,,,,,,,,,,,,,,,,
,,,,,,,,,,,,,,,,,5c9bfbfa325c3d001ad360a8,26,2022-02-12_13h16.43.021,lexical_decision_task_DD_L6,2021.2.3,iPhone,58.82352941,,,,,,,,,,0.962,1,,,,,,,,,,,,,,,0,0.290816327,-0.323979592,1,0,0,0.962,button_right_main,0.290816327,-0.323979592,1,0,0,,0,65,65,37,1,TIGER,C,m,m,./images/TIGER.png,,,,,,,,,,,,,,,,,,,,,,,,,,,,,,,,,
,,,,,,,,,,,,,,,,,5c9bfbfa325c3d001ad360a8,26,2022-02-12_13h16.43.021,lexical_decision_task_DD_L6,2021.2.3,iPhone,58.82352941,,,,,,,,,,0.796,1,,,,,,,,,,,,,,,0,-0.281632653,-0.33622449,1,0,0,0.796,button_left_main,-0.281632653,-0.33622449,1,0,0,,0,66,66,144,1,NAIRY,C,z,z,./images/NAIRY.png,,,,,,,,,,,,,,,,,,,,,,,,,,,,,,,,,
,,,,,,,,,,,,,,,,,5c9bfbfa325c3d001ad360a8,26,2022-02-12_13h16.43.021,lexical_decision_task_DD_L6,2021.2.3,iPhone,58.82352941,,,,,,,,,,0.695,1,,,,,,,,,,,,,,,0,0.215306122,-0.354591837,1,0,0,0.695,button_right_main,0.215306122,-0.354591837,1,0,0,,0,67,67,36,1,BOILER,LB,m,m,./images/BOILERLB.png,,,,,,,,,,,,,,,,,,,,,,,,,,,,,,,,,
,,,,,,,,,,,,,,,,,5c9bfbfa325c3d001ad360a8,26,2022-02-12_13h16.43.021,lexical_decision_task_DD_L6,2021.2.3,iPhone,58.82352941,,,,,,,,,,0.583,1,,,,,,,,,,,,,,,0,0.22244898,-0.337244898,1,0,0,0.583,button_right_main,0.22244898,-0.337244898,1,0,0,,0,68,68,54,1,CHERRY,LB,m,m,./images/CHERRYLB.png,,,,,,,,,,,,,,,,,,,,,,,,,,,,,,,,,
,,,,,,,,,,,,,,,,,5c9bfbfa325c3d001ad360a8,26,2022-02-12_13h16.43.021,lexical_decision_task_DD_L6,2021.2.3,iPhone,58.82352941,,,,,,,,,,0.663,1,,,,,,,,,,,,,,,0,0.216326531,-0.345408163,1,0,0,0.663,button_right_main,0.216326531,-0.345408163,1,0,0,,0,69,69,23,1,CLOTH,HB,m,m,./images/CLOTHHB.png,,,,,,,,,,,,,,,,,,,,,,,,,,,,,,,,,
,,,,,,,,,,,,,,,,,5c9bfbfa325c3d001ad360a8,26,2022-02-12_13h16.43.021,lexical_decision_task_DD_L6,2021.2.3,iPhone,58.82352941,,,,,,,,,,1.276,0,,,,,,,,,,,,,,,0,0.26122449,-0.344387755,1,0,0,1.276,button_right_main,0.26122449,-0.344387755,1,0,0,,0,70,70,128,1,GRIFT,LB,z,z,./images/GRIFTLB.png,,,,,,,,,,,,,,,,,,,,,,,,,,,,,,,,,
,,,,,,,,,,,,,,,,,5c9bfbfa325c3d001ad360a8,26,2022-02-12_13h16.43.021,lexical_decision_task_DD_L6,2021.2.3,iPhone,58.82352941,,,,,,,,,,0.696,1,,,,,,,,,,,,,,,0,0.244897959,-0.341326531,1,0,0,0.696,button_right_main,0.244897959,-0.341326531,1,0,0,,0,71,71,8,1,CLIFF,HB,m,m,./images/CLIFFHB.png,,,,,,,,,,,,,,,,,,,,,,,,,,,,,,,,,
,,,,,,,,,,,,,,,,,5c9bfbfa325c3d001ad360a8,26,2022-02-12_13h16.43.021,lexical_decision_task_DD_L6,2021.2.3,iPhone,58.82352941,,,,,,,,,,0.682,1,,,,,,,,,,,,,,,0,0.234693878,-0.348469388,1,0,0,0.682,button_right_main,0.234693878,-0.348469388,1,0,0,,0,72,72,57,1,FERRY,LB,m,m,./images/FERRYLB.png,,,,,,,,,,,,,,,,,,,,,,,,,,,,,,,,,
,,,,,,,,,,,,,,,,,5c9bfbfa325c3d001ad360a8,26,2022-02-12_13h16.43.021,lexical_decision_task_DD_L6,2021.2.3,iPhone,58.82352941,,,,,,,,,,0.747,1,,,,,,,,,,,,,,,0,0.253061224,-0.327040816,1,0,0,0.747,button_right_main,0.253061224,-0.327040816,1,0,0,,0,73,73,28,1,CASINO,C,m,m,./images/CASINO.png,,,,,,,,,,,,,,,,,,,,,,,,,,,,,,,,,
,,,,,,,,,,,,,,,,,5c9bfbfa325c3d001ad360a8,26,2022-02-12_13h16.43.021,lexical_decision_task_DD_L6,2021.2.3,iPhone,58.82352941,,,,,,,,,,0.994,1,,,,,,,,,,,,,,,0,-0.281632653,-0.357653061,1,0,0,0.994,button_left_main,-0.281632653,-0.357653061,1,0,0,,0,74,74,152,1,FRAIN,LB,z,z,./images/FRAINLB.png,,,,,,,,,,,,,,,,,,,,,,,,,,,,,,,,,
,,,,,,,,,,,,,,,,,5c9bfbfa325c3d001ad360a8,26,2022-02-12_13h16.43.021,lexical_decision_task_DD_L6,2021.2.3,iPhone,58.82352941,,,,,,,,,,1.639,1,,,,,,,,,,,,,,,0,0.269387755,-0.33622449,1,0,0,1.639,button_right_main,0.269387755,-0.33622449,1,0,0,,0,75,75,65,1,SPINE,HB,m,m,./images/SPINEHB.png,,,,,,,,,,,,,,,,,,,,,,,,,,,,,,,,,
,,,,,,,,,,,,,,,,,5c9bfbfa325c3d001ad360a8,26,2022-02-12_13h16.43.021,lexical_decision_task_DD_L6,2021.2.3,iPhone,58.82352941,,,,,,,,,,0.664,1,,,,,,,,,,,,,,,0,0.247959184,-0.34744898,1,0,0,0.664,button_right_main,0.247959184,-0.34744898,1,0,0,,0,76,76,26,1,CLOUD,HB,m,m,./images/CLOUDHB.png,,,,,,,,,,,,,,,,,,,,,,,,,,,,,,,,,
,,,,,,,,,,,,,,,,,5c9bfbfa325c3d001ad360a8,26,2022-02-12_13h16.43.021,lexical_decision_task_DD_L6,2021.2.3,iPhone,58.82352941,,,,,,,,,,0.663,1,,,,,,,,,,,,,,,0,0.23877551,-0.353571429,1,0,0,0.663,button_right_main,0.23877551,-0.353571429,1,0,0,,0,77,77,80,1,PLANET,HB,m,m,./images/PLANETHB.png,,,,,,,,,,,,,,,,,,,,,,,,,,,,,,,,,
,,,,,,,,,,,,,,,,,5c9bfbfa325c3d001ad360a8,26,2022-02-12_13h16.43.021,lexical_decision_task_DD_L6,2021.2.3,iPhone,58.82352941,,,,,,,,,,0.961,0,,,,,,,,,,,,,,,0,0.239795918,-0.348469388,1,0,0,0.961,button_right_main,0.239795918,-0.348469388,1,0,0,,0,78,78,110,1,CRUNK,LB,z,z,./images/CRUNKLB.png,,,,,,,,,,,,,,,,,,,,,,,,,,,,,,,,,
,,,,,,,,,,,,,,,,,5c9bfbfa325c3d001ad360a8,26,2022-02-12_13h16.43.021,lexical_decision_task_DD_L6,2021.2.3,iPhone,58.82352941,,,,,,,,,,0.762,1,,,,,,,,,,,,,,,0,-0.316326531,-0.349489796,1,0,0,0.762,button_left_main,-0.316326531,-0.349489796,1,0,0,,0,79,79,126,1,GUELS,C,z,z,./images/GUELS.png,,,,,,,,,,,,,,,,,,,,,,,,,,,,,,,,,
,,,,,,,,,,,,,,,,,5c9bfbfa325c3d001ad360a8,26,2022-02-12_13h16.43.021,lexical_decision_task_DD_L6,2021.2.3,iPhone,58.82352941,,,,,,,,,,1.231,1,,,,,,,,,,,,,,,0,-0.328571429,-0.366836735,1,0,0,1.231,button_left_main,-0.328571429,-0.366836735,1,0,0,,0,80,80,157,1,INLER,HB,z,z,./images/INLERHB.png,,,,,,,,,,,,,,,,,,,,,,,,,,,,,,,,,
,,,,,,,,,,,,,,,,,5c9bfbfa325c3d001ad360a8,26,2022-02-12_13h16.43.021,lexical_decision_task_DD_L6,2021.2.3,iPhone,58.82352941,,,,,,,,,,1.126,1,,,,,,,,,,,,,,,0,0.216326531,-0.354591837,1,0,0,1.126,button_right_main,0.216326531,-0.354591837,1,0,0,,0,81,81,39,1,CANDY,LB,m,m,./images/CANDYLB.png,,,,,,,,,,,,,,,,,,,,,,,,,,,,,,,,,
,,,,,,,,,,,,,,,,,5c9bfbfa325c3d001ad360a8,26,2022-02-12_13h16.43.021,lexical_decision_task_DD_L6,2021.2.3,iPhone,58.82352941,,,,,,,,,,0.881,1,,,,,,,,,,,,,,,0,0.239795918,-0.351530612,1,0,0,0.881,button_right_main,0.239795918,-0.351530612,1,0,0,,0,82,82,18,1,PARCEL,LB,m,m,./images/PARCELLB.png,,,,,,,,,,,,,,,,,,,,,,,,,,,,,,,,,
,,,,,,,,,,,,,,,,,5c9bfbfa325c3d001ad360a8,26,2022-02-12_13h16.43.021,lexical_decision_task_DD_L6,2021.2.3,iPhone,58.82352941,,,,,,,,,,1.128,1,,,,,,,,,,,,,,,0,0.244897959,-0.343367347,1,0,0,1.128,button_right_main,0.040816327,-0.405612245,1,0,0,,0,83,83,11,1,MEDAL,HB,m,m,./images/MEDALHB.png,break_done_button,,,,,,,,,,,,,,,,,,,,,,,,,,,,,,,,
,,,,,,,,,,,,,,,,,5c9bfbfa325c3d001ad360a8,26,2022-02-12_13h16.43.021,lexical_decision_task_DD_L6,2021.2.3,iPhone,58.82352941,,,,,,,,,,1.012,1,,,,,,,,,,,,,,,0,-0.293877551,-0.340306122,1,0,0,1.012,button_left_main,-0.293877551,-0.340306122,1,0,0,,0,84,84,104,1,GITTY,LB,z,z,./images/GITTYLB.png,,,,,,,,,,,,,,,,,,,,,,,,,,,,,,,,,
,,,,,,,,,,,,,,,,,5c9bfbfa325c3d001ad360a8,26,2022-02-12_13h16.43.021,lexical_decision_task_DD_L6,2021.2.3,iPhone,58.82352941,,,,,,,,,,0.779,1,,,,,,,,,,,,,,,0,0.194897959,-0.361734694,1,0,0,0.779,button_right_main,0.27755102,-0.322959184,1,0,0,,0,85,85,21,1,DANCER,LB,m,m,./images/DANCERLB.png,,,,,,,,,,,,,,,,,,,,,,,,,,,,,,,,,
,,,,,,,,,,,,,,,,,5c9bfbfa325c3d001ad360a8,26,2022-02-12_13h16.43.021,lexical_decision_task_DD_L6,2021.2.3,iPhone,58.82352941,,,,,,,,,,0.847,1,,,,,,,,,,,,,,,0,-0.314285714,-0.331122449,1,0,0,0.847,button_left_main,-0.314285714,-0.331122449,1,0,0,,0,86,86,141,1,PLEET,C,z,z,./images/PLEET.png,,,,,,,,,,,,,,,,,,,,,,,,,,,,,,,,,
,,,,,,,,,,,,,,,,,5c9bfbfa325c3d001ad360a8,26,2022-02-12_13h16.43.021,lexical_decision_task_DD_L6,2021.2.3,iPhone,58.82352941,,,,,,,,,,0.963,1,,,,,,,,,,,,,,,0,-0.331632653,-0.360714286,1,0,0,0.963,button_left_main,-0.331632653,-0.360714286,1,0,0,,0,87,87,151,1,TINKY,HB,z,z,./images/TINKYHB.png,,,,,,,,,,,,,,,,,,,,,,,,,,,,,,,,,
,,,,,,,,,,,,,,,,,5c9bfbfa325c3d001ad360a8,26,2022-02-12_13h16.43.021,lexical_decision_task_DD_L6,2021.2.3,iPhone,58.82352941,,,,,,,,,,0.845,1,,,,,,,,,,,,,,,0,0.273469388,-0.306632653,1,0,0,0.845,button_right_main,0.273469388,-0.306632653,1,0,0,,0,88,88,5,1,BAMBOO,HB,m,m,./images/BAMBOOHB.png,,,,,,,,,,,,,,,,,,,,,,,,,,,,,,,,,
,,,,,,,,,,,,,,,,,5c9bfbfa325c3d001ad360a8,26,2022-02-12_13h16.43.021,lexical_decision_task_DD_L6,2021.2.3,iPhone,58.82352941,,,,,,,,,,0.694,1,,,,,,,,,,,,,,,0,-0.339795918,-0.354591837,1,0,0,0.694,button_left_main,-0.339795918,-0.354591837,1,0,0,,0,89,89,153,1,CLUPS,C,z,z,./images/CLUPS.png,,,,,,,,,,,,,,,,,,,,,,,,,,,,,,,,,
,,,,,,,,,,,,,,,,,5c9bfbfa325c3d001ad360a8,26,2022-02-12_13h16.43.021,lexical_decision_task_DD_L6,2021.2.3,iPhone,58.82352941,,,,,,,,,,0.73,1,,,,,,,,,,,,,,,0,-0.315306122,-0.34744898,1,0,0,0.73,button_left_main,-0.315306122,-0.34744898,1,0,0,,0,90,90,129,1,PRANS,C,z,z,./images/PRANS.png,,,,,,,,,,,,,,,,,,,,,,,,,,,,,,,,,
,,,,,,,,,,,,,,,,,5c9bfbfa325c3d001ad360a8,26,2022-02-12_13h16.43.021,lexical_decision_task_DD_L6,2021.2.3,iPhone,58.82352941,,,,,,,,,,0.994,1,,,,,,,,,,,,,,,0,0.309183673,-0.308673469,1,0,0,0.994,button_right_main,0.309183673,-0.308673469,1,0,0,,0,91,91,35,1,LLAMA,HB,m,m,./images/LLAMAHB.png,,,,,,,,,,,,,,,,,,,,,,,,,,,,,,,,,
,,,,,,,,,,,,,,,,,5c9bfbfa325c3d001ad360a8,26,2022-02-12_13h16.43.021,lexical_decision_task_DD_L6,2021.2.3,iPhone,58.82352941,,,,,,,,,,0.597,1,,,,,,,,,,,,,,,0,0.216326531,-0.344387755,1,0,0,0.597,button_right_main,0.216326531,-0.344387755,1,0,0,,0,92,92,7,1,WAGON,C,m,m,./images/WAGON.png,,,,,,,,,,,,,,,,,,,,,,,,,,,,,,,,,
,,,,,,,,,,,,,,,,,5c9bfbfa325c3d001ad360a8,26,2022-02-12_13h16.43.021,lexical_decision_task_DD_L6,2021.2.3,iPhone,58.82352941,,,,,,,,,,0.548,1,,,,,,,,,,,,,,,0,0.236734694,-0.330102041,1,0,0,0.548,button_right_main,0.236734694,-0.330102041,1,0,0,,0,93,93,42,1,CHAIN,LB,m,m,./images/CHAINLB.png,,,,,,,,,,,,,,,,,,,,,,,,,,,,,,,,,
,,,,,,,,,,,,,,,,,5c9bfbfa325c3d001ad360a8,26,2022-02-12_13h16.43.021,lexical_decision_task_DD_L6,2021.2.3,iPhone,58.82352941,,,,,,,,,,0.53,1,,,,,,,,,,,,,,,0,0.259183673,-0.326020408,1,0,0,0.53,button_right_main,0.259183673,-0.326020408,1,0,0,,0,94,94,69,1,ARROW,LB,m,m,./images/ARROWLB.png,,,,,,,,,,,,,,,,,,,,,,,,,,,,,,,,,
,,,,,,,,,,,,,,,,,5c9bfbfa325c3d001ad360a8,26,2022-02-12_13h16.43.021,lexical_decision_task_DD_L6,2021.2.3,iPhone,58.82352941,,,,,,,,,,0.679,1,,,,,,,,,,,,,,,0,-0.326530612,-0.371938776,1,0,0,0.679,button_left_main,-0.326530612,-0.371938776,1,0,0,,0,95,95,111,1,HOSSE,C,z,z,./images/HOSSE.png,,,,,,,,,,,,,,,,,,,,,,,,,,,,,,,,,
,,,,,,,,,,,,,,,,,5c9bfbfa325c3d001ad360a8,26,2022-02-12_13h16.43.021,lexical_decision_task_DD_L6,2021.2.3,iPhone,58.82352941,,,,,,,,,,0.747,1,,,,,,,,,,,,,,,0,-0.293877551,-0.332142857,1,0,0,0.747,button_left_main,-0.293877551,-0.332142857,1,0,0,,0,96,96,90,1,NEAST,C,z,z,./images/NEAST.png,,,,,,,,,,,,,,,,,,,,,,,,,,,,,,,,,
,,,,,,,,,,,,,,,,,5c9bfbfa325c3d001ad360a8,26,2022-02-12_13h16.43.021,lexical_decision_task_DD_L6,2021.2.3,iPhone,58.82352941,,,,,,,,,,0.964,1,,,,,,,,,,,,,,,0,0.225510204,-0.325,1,0,0,0.964,button_right_main,0.225510204,-0.325,1,0,0,,0,97,97,43,1,STOOL,C,m,m,./images/STOOL.png,,,,,,,,,,,,,,,,,,,,,,,,,,,,,,,,,
,,,,,,,,,,,,,,,,,5c9bfbfa325c3d001ad360a8,26,2022-02-12_13h16.43.021,lexical_decision_task_DD_L6,2021.2.3,iPhone,58.82352941,,,,,,,,,,0.745,1,,,,,,,,,,,,,,,0,-0.280612245,-0.323979592,1,0,0,0.745,button_left_main,-0.280612245,-0.323979592,1,0,0,,0,98,98,84,1,HAXES,C,z,z,./images/HAXES.png,,,,,,,,,,,,,,,,,,,,,,,,,,,,,,,,,
,,,,,,,,,,,,,,,,,5c9bfbfa325c3d001ad360a8,26,2022-02-12_13h16.43.021,lexical_decision_task_DD_L6,2021.2.3,iPhone,58.82352941,,,,,,,,,,0.746,1,,,,,,,,,,,,,,,0,-0.308163265,-0.357653061,1,0,0,0.746,button_left_main,-0.308163265,-0.357653061,1,0,0,,0,99,99,132,1,SCIFF,C,z,z,./images/SCIFF.png,,,,,,,,,,,,,,,,,,,,,,,,,,,,,,,,,
,,,,,,,,,,,,,,,,,5c9bfbfa325c3d001ad360a8,26,2022-02-12_13h16.43.021,lexical_decision_task_DD_L6,2021.2.3,iPhone,58.82352941,,,,,,,,,,0.664,1,,,,,,,,,,,,,,,0,0.309183673,-0.322959184,1,0,0,0.664,button_right_main,0.309183673,-0.322959184,1,0,0,,0,100,100,22,1,CLOWN,C,m,m,./images/CLOWN.png,,,,,,,,,,,,,,,,,,,,,,,,,,,,,,,,,
,,,,,,,,,,,,,,,,,5c9bfbfa325c3d001ad360a8,26,2022-02-12_13h16.43.021,lexical_decision_task_DD_L6,2021.2.3,iPhone,58.82352941,,,,,,,,,,0.683,1,,,,,,,,,,,,,,,0,0.293877551,-0.338265306,1,0,0,0.683,button_right_main,0.293877551,-0.338265306,1,0,0,,0,101,101,44,1,BASKET,HB,m,m,./images/BASKETHB.png,,,,,,,,,,,,,,,,,,,,,,,,,,,,,,,,,
,,,,,,,,,,,,,,,,,5c9bfbfa325c3d001ad360a8,26,2022-02-12_13h16.43.021,lexical_decision_task_DD_L6,2021.2.3,iPhone,58.82352941,,,,,,,,,,0.715,1,,,,,,,,,,,,,,,0,-0.318367347,-0.349489796,1,0,0,0.715,button_left_main,-0.318367347,-0.349489796,1,0,0,,0,102,102,138,1,PLICE,C,z,z,./images/PLICE.png,,,,,,,,,,,,,,,,,,,,,,,,,,,,,,,,,
,,,,,,,,,,,,,,,,,5c9bfbfa325c3d001ad360a8,26,2022-02-12_13h16.43.021,lexical_decision_task_DD_L6,2021.2.3,iPhone,58.82352941,,,,,,,,,,0.744,1,,,,,,,,,,,,,,,0,0.251020408,-0.342346939,1,0,0,0.744,button_right_main,0.251020408,-0.342346939,1,0,0,,0,103,103,19,1,DONKEY,C,m,m,./images/DONKEY.png,,,,,,,,,,,,,,,,,,,,,,,,,,,,,,,,,
,,,,,,,,,,,,,,,,,5c9bfbfa325c3d001ad360a8,26,2022-02-12_13h16.43.021,lexical_decision_task_DD_L6,2021.2.3,iPhone,58.82352941,,,,,,,,,,0.863,1,,,,,,,,,,,,,,,0,0.316326531,-0.315816327,1,0,0,0.863,button_right_main,0.316326531,-0.315816327,1,0,0,,0,104,104,17,1,PARADE,HB,m,m,./images/PARADEHB.png,,,,,,,,,,,,,,,,,,,,,,,,,,,,,,,,,
,,,,,,,,,,,,,,,,,5c9bfbfa325c3d001ad360a8,26,2022-02-12_13h16.43.021,lexical_decision_task_DD_L6,2021.2.3,iPhone,58.82352941,,,,,,,,,,0.829,1,,,,,,,,,,,,,,,0,0.269387755,-0.317857143,1,0,0,0.829,button_right_main,0.269387755,-0.317857143,1,0,0,,0,105,105,15,1,COLLAR,LB,m,m,./images/COLLARLB.png,,,,,,,,,,,,,,,,,,,,,,,,,,,,,,,,,
,,,,,,,,,,,,,,,,,5c9bfbfa325c3d001ad360a8,26,2022-02-12_13h16.43.021,lexical_decision_task_DD_L6,2021.2.3,iPhone,58.82352941,,,,,,,,,,0.71,1,,,,,,,,,,,,,,,0,-0.293877551,-0.361734694,1,0,0,0.71,button_left_main,-0.293877551,-0.361734694,1,0,0,,0,106,106,116,1,BALGY,LB,z,z,./images/BALGYLB.png,,,,,,,,,,,,,,,,,,,,,,,,,,,,,,,,,
,,,,,,,,,,,,,,,,,5c9bfbfa325c3d001ad360a8,26,2022-02-12_13h16.43.021,lexical_decision_task_DD_L6,2021.2.3,iPhone,58.82352941,,,,,,,,,,0.927,1,,,,,,,,,,,,,,,0,-0.294897959,-0.360714286,1,0,0,0.927,button_left_main,-0.294897959,-0.360714286,1,0,0,,0,107,107,161,1,BLAPS,LB,z,z,./images/BLAPSLB.png,,,,,,,,,,,,,,,,,,,,,,,,,,,,,,,,,
,,,,,,,,,,,,,,,,,5c9bfbfa325c3d001ad360a8,26,2022-02-12_13h16.43.021,lexical_decision_task_DD_L6,2021.2.3,iPhone,58.82352941,,,,,,,,,,1.326,1,,,,,,,,,,,,,,,0,-0.31122449,-0.357653061,1,0,0,1.326,button_left_main,-0.31122449,-0.357653061,1,0,0,,0,108,108,159,1,CUDDY,C,z,z,./images/CUDDY.png,,,,,,,,,,,,,,,,,,,,,,,,,,,,,,,,,
,,,,,,,,,,,,,,,,,5c9bfbfa325c3d001ad360a8,26,2022-02-12_13h16.43.021,lexical_decision_task_DD_L6,2021.2.3,iPhone,58.82352941,,,,,,,,,,1.512,1,,,,,,,,,,,,,,,0,-0.269387755,-0.319897959,1,0,0,1.512,button_left_main,-0.269387755,-0.319897959,1,0,0,,0,109,109,133,1,POWDY,HB,z,z,./images/POWDYHB.png,,,,,,,,,,,,,,,,,,,,,,,,,,,,,,,,,
,,,,,,,,,,,,,,,,,5c9bfbfa325c3d001ad360a8,26,2022-02-12_13h16.43.021,lexical_decision_task_DD_L6,2021.2.3,iPhone,58.82352941,,,,,,,,,,1.329,1,,,,,,,,,,,,,,,0,-0.256122449,-0.317857143,1,0,0,1.329,button_left_main,-0.256122449,-0.317857143,1,0,0,,0,110,110,113,1,LINEW,LB,z,z,./images/LINEWLB.png,,,,,,,,,,,,,,,,,,,,,,,,,,,,,,,,,
,,,,,,,,,,,,,,,,,5c9bfbfa325c3d001ad360a8,26,2022-02-12_13h16.43.021,lexical_decision_task_DD_L6,2021.2.3,iPhone,58.82352941,,,,,,,,,,1.425,1,,,,,,,,,,,,,,,0,-0.275510204,-0.35255102,1,0,0,1.425,button_left_main,-0.275510204,-0.35255102,1,0,0,,0,111,111,109,1,BURGE,HB,z,z,./images/BURGEHB.png,,,,,,,,,,,,,,,,,,,,,,,,,,,,,,,,,
,,,,,,,,,,,,,,,,,5c9bfbfa325c3d001ad360a8,26,2022-02-12_13h16.43.021,lexical_decision_task_DD_L6,2021.2.3,iPhone,58.82352941,,,,,,,,,,1.245,1,,,,,,,,,,,,,,,0,-0.295918367,-0.330102041,1,0,0,1.245,button_left_main,-0.295918367,-0.330102041,1,0,0,,0,112,112,139,1,BLEAR,HB,z,z,./images/BLEARHB.png,,,,,,,,,,,,,,,,,,,,,,,,,,,,,,,,,
,,,,,,,,,,,,,,,,,5c9bfbfa325c3d001ad360a8,26,2022-02-12_13h16.43.021,lexical_decision_task_DD_L6,2021.2.3,iPhone,58.82352941,,,,,,,,,,0.85,1,,,,,,,,,,,,,,,0,-0.286734694,-0.333163265,1,0,0,0.85,button_left_main,-0.286734694,-0.333163265,1,0,0,,0,113,113,114,1,RIKES,C,z,z,./images/RIKES.png,,,,,,,,,,,,,,,,,,,,,,,,,,,,,,,,,
,,,,,,,,,,,,,,,,,5c9bfbfa325c3d001ad360a8,26,2022-02-12_13h16.43.021,lexical_decision_task_DD_L6,2021.2.3,iPhone,58.82352941,,,,,,,,,,1.193,1,,,,,,,,,,,,,,,0,-0.275510204,-0.369897959,1,0,0,1.193,button_left_main,-0.275510204,-0.369897959,1,0,0,,0,114,114,108,1,GRUET,C,z,z,./images/GRUET.png,,,,,,,,,,,,,,,,,,,,,,,,,,,,,,,,,
,,,,,,,,,,,,,,,,,5c9bfbfa325c3d001ad360a8,26,2022-02-12_13h16.43.021,lexical_decision_task_DD_L6,2021.2.3,iPhone,58.82352941,,,,,,,,,,0.88,1,,,,,,,,,,,,,,,0,-0.245918367,-0.331122449,1,0,0,0.88,button_left_main,-0.245918367,-0.331122449,1,0,0,,0,115,115,158,1,EGECT,LB,z,z,./images/EGECTLB.png,,,,,,,,,,,,,,,,,,,,,,,,,,,,,,,,,
,,,,,,,,,,,,,,,,,5c9bfbfa325c3d001ad360a8,26,2022-02-12_13h16.43.021,lexical_decision_task_DD_L6,2021.2.3,iPhone,58.82352941,,,,,,,,,,0.795,1,,,,,,,,,,,,,,,0,0.26122449,-0.30255102,1,0,0,0.795,button_right_main,0.26122449,-0.30255102,1,0,0,,0,116,116,0,1,WALNUT,LB,m,m,./images/WALNUTLB.png,,,,,,,,,,,,,,,,,,,,,,,,,,,,,,,,,
,,,,,,,,,,,,,,,,,5c9bfbfa325c3d001ad360a8,26,2022-02-12_13h16.43.021,lexical_decision_task_DD_L6,2021.2.3,iPhone,58.82352941,,,,,,,,,,1.678,1,,,,,,,,,,,,,,,0,-0.286734694,-0.357653061,1,0,0,1.678,button_left_main,-0.286734694,-0.357653061,1,0,0,,0,117,117,165,1,TROWN,C,z,z,./images/TROWN.png,,,,,,,,,,,,,,,,,,,,,,,,,,,,,,,,,
,,,,,,,,,,,,,,,,,5c9bfbfa325c3d001ad360a8,26,2022-02-12_13h16.43.021,lexical_decision_task_DD_L6,2021.2.3,iPhone,58.82352941,,,,,,,,,,0.962,1,,,,,,,,,,,,,,,0,-0.291836735,-0.392346939,1,0,0,0.962,button_left_main,-0.291836735,-0.392346939,1,0,0,,0,118,118,160,1,VEETS,HB,z,z,./images/VEETSHB.png,,,,,,,,,,,,,,,,,,,,,,,,,,,,,,,,,
,,,,,,,,,,,,,,,,,5c9bfbfa325c3d001ad360a8,26,2022-02-12_13h16.43.021,lexical_decision_task_DD_L6,2021.2.3,iPhone,58.82352941,,,,,,,,,,1.727,1,,,,,,,,,,,,,,,0,0.328571429,-0.326020408,1,0,0,1.727,button_right_main,0.328571429,-0.326020408,1,0,0,,0,119,119,14,1,FENCE,HB,m,m,./images/FENCEHB.png,,,,,,,,,,,,,,,,,,,,,,,,,,,,,,,,,
,,,,,,,,,,,,,,,,,5c9bfbfa325c3d001ad360a8,26,2022-02-12_13h16.43.021,lexical_decision_task_DD_L6,2021.2.3,iPhone,58.82352941,,,,,,,,,,0.945,1,,,,,,,,,,,,,,,0,-0.318367347,-0.369897959,1,0,0,0.945,button_left_main,-0.318367347,-0.369897959,1,0,0,,0,120,120,143,1,MONGS,LB,z,z,./images/MONGSLB.png,,,,,,,,,,,,,,,,,,,,,,,,,,,,,,,,,
,,,,,,,,,,,,,,,,,5c9bfbfa325c3d001ad360a8,26,2022-02-12_13h16.43.021,lexical_decision_task_DD_L6,2021.2.3,iPhone,58.82352941,,,,,,,,,,0.763,1,,,,,,,,,,,,,,,0,0.27244898,-0.315816327,1,0,0,0.763,button_right_main,0.27244898,-0.315816327,1,0,0,,0,121,121,64,1,BRIDE,C,m,m,./images/BRIDE.png,,,,,,,,,,,,,,,,,,,,,,,,,,,,,,,,,
,,,,,,,,,,,,,,,,,5c9bfbfa325c3d001ad360a8,26,2022-02-12_13h16.43.021,lexical_decision_task_DD_L6,2021.2.3,iPhone,58.82352941,,,,,,,,,,1.312,1,,,,,,,,,,,,,,,0,-0.252040816,-0.329081633,1,0,0,1.312,button_left_main,-0.252040816,-0.329081633,1,0,0,,0,122,122,134,1,TROSS,LB,z,z,./images/TROSSLB.png,,,,,,,,,,,,,,,,,,,,,,,,,,,,,,,,,
,,,,,,,,,,,,,,,,,5c9bfbfa325c3d001ad360a8,26,2022-02-12_13h16.43.021,lexical_decision_task_DD_L6,2021.2.3,iPhone,58.82352941,,,,,,,,,,0.977,1,,,,,,,,,,,,,,,0,0.297959184,-0.280102041,1,0,0,0.977,button_right_main,0.297959184,-0.280102041,1,0,0,,0,123,123,56,1,HEATER,HB,m,m,./images/HEATERHB.png,,,,,,,,,,,,,,,,,,,,,,,,,,,,,,,,,
,,,,,,,,,,,,,,,,,5c9bfbfa325c3d001ad360a8,26,2022-02-12_13h16.43.021,lexical_decision_task_DD_L6,2021.2.3,iPhone,58.82352941,,,,,,,,,,0.595,1,,,,,,,,,,,,,,,0,0.284693878,-0.287244898,1,0,0,0.595,button_right_main,0.284693878,-0.287244898,1,0,0,,0,124,124,31,1,STEAK,C,m,m,./images/STEAK.png,,,,,,,,,,,,,,,,,,,,,,,,,,,,,,,,,
,,,,,,,,,,,,,,,,,5c9bfbfa325c3d001ad360a8,26,2022-02-12_13h16.43.021,lexical_decision_task_DD_L6,2021.2.3,iPhone,58.82352941,,,,,,,,,,1.078,1,,,,,,,,,,,,,,,0,-0.296938776,-0.385204082,1,0,0,1.078,button_left_main,0.066326531,-0.384183673,1,0,0,,0,125,125,124,1,TUNCH,HB,z,z,./images/TUNCHHB.png,break_done_button,,,,,,,,,,,,,,,,,,,,,,,,,,,,,,,,
,,,,,,,,,,,,,,,,,5c9bfbfa325c3d001ad360a8,26,2022-02-12_13h16.43.021,lexical_decision_task_DD_L6,2021.2.3,iPhone,58.82352941,,,,,,,,,,0.81,1,,,,,,,,,,,,,,,0,0.290816327,-0.330102041,1,0,0,0.81,button_right_main,0.290816327,-0.330102041,1,0,0,,0,126,126,51,1,SAUCE,LB,m,m,./images/SAUCELB.png,,,,,,,,,,,,,,,,,,,,,,,,,,,,,,,,,
,,,,,,,,,,,,,,,,,5c9bfbfa325c3d001ad360a8,26,2022-02-12_13h16.43.021,lexical_decision_task_DD_L6,2021.2.3,iPhone,58.82352941,,,,,,,,,,0.795,1,,,,,,,,,,,,,,,0,-0.292857143,-0.33622449,1,0,0,0.795,button_left_main,-0.292857143,-0.33622449,1,0,0,,0,127,127,95,1,HANTY,LB,z,z,./images/HANTYLB.png,,,,,,,,,,,,,,,,,,,,,,,,,,,,,,,,,
,,,,,,,,,,,,,,,,,5c9bfbfa325c3d001ad360a8,26,2022-02-12_13h16.43.021,lexical_decision_task_DD_L6,2021.2.3,iPhone,58.82352941,,,,,,,,,,0.646,1,,,,,,,,,,,,,,,0,0.255102041,-0.349489796,1,0,0,0.646,button_right_main,0.255102041,-0.349489796,1,0,0,,0,128,128,45,1,MONKEY,LB,m,m,./images/MONKEYLB.png,,,,,,,,,,,,,,,,,,,,,,,,,,,,,,,,,
,,,,,,,,,,,,,,,,,5c9bfbfa325c3d001ad360a8,26,2022-02-12_13h16.43.021,lexical_decision_task_DD_L6,2021.2.3,iPhone,58.82352941,,,,,,,,,,1.828,1,,,,,,,,,,,,,,,0,-0.309183673,-0.348469388,1,0,0,1.828,button_left_main,-0.309183673,-0.348469388,1,0,0,,0,129,129,166,1,SHORY,HB,z,z,./images/SHORYHB.png,,,,,,,,,,,,,,,,,,,,,,,,,,,,,,,,,
,,,,,,,,,,,,,,,,,5c9bfbfa325c3d001ad360a8,26,2022-02-12_13h16.43.021,lexical_decision_task_DD_L6,2021.2.3,iPhone,58.82352941,,,,,,,,,,1.044,1,,,,,,,,,,,,,,,0,-0.291836735,-0.305612245,1,0,0,1.044,button_left_main,-0.291836735,-0.305612245,1,0,0,,0,130,130,156,1,HIXES,C,z,z,./images/HIXES.png,,,,,,,,,,,,,,,,,,,,,,,,,,,,,,,,,
,,,,,,,,,,,,,,,,,5c9bfbfa325c3d001ad360a8,26,2022-02-12_13h16.43.021,lexical_decision_task_DD_L6,2021.2.3,iPhone,58.82352941,,,,,,,,,,0.797,1,,,,,,,,,,,,,,,0,-0.301020408,-0.33622449,1,0,0,0.797,button_left_main,-0.301020408,-0.33622449,1,0,0,,0,131,131,98,1,BAMPS,LB,z,z,./images/BAMPSLB.png,,,,,,,,,,,,,,,,,,,,,,,,,,,,,,,,,
,,,,,,,,,,,,,,,,,5c9bfbfa325c3d001ad360a8,26,2022-02-12_13h16.43.021,lexical_decision_task_DD_L6,2021.2.3,iPhone,58.82352941,,,,,,,,,,0.894,1,,,,,,,,,,,,,,,0,-0.310204082,-0.33622449,1,0,0,0.894,button_left_main,-0.310204082,-0.33622449,1,0,0,,0,132,132,148,1,JOMS,HB,z,z,./images/JOMSHB.png,,,,,,,,,,,,,,,,,,,,,,,,,,,,,,,,,
,,,,,,,,,,,,,,,,,5c9bfbfa325c3d001ad360a8,26,2022-02-12_13h16.43.021,lexical_decision_task_DD_L6,2021.2.3,iPhone,58.82352941,,,,,,,,,,0.731,1,,,,,,,,,,,,,,,0,-0.278571429,-0.320918367,1,0,0,0.731,button_left_main,-0.278571429,-0.320918367,1,0,0,,0,133,133,96,1,KEAMS,C,z,z,./images/KEAMS.png,,,,,,,,,,,,,,,,,,,,,,,,,,,,,,,,,
,,,,,,,,,,,,,,,,,5c9bfbfa325c3d001ad360a8,26,2022-02-12_13h16.43.021,lexical_decision_task_DD_L6,2021.2.3,iPhone,58.82352941,,,,,,,,,,0.745,1,,,,,,,,,,,,,,,0,0.310204082,-0.282142857,1,0,0,0.745,button_right_main,0.310204082,-0.282142857,1,0,0,,0,134,134,76,1,MIDGET,C,m,m,./images/MIDGET.png,,,,,,,,,,,,,,,,,,,,,,,,,,,,,,,,,
,,,,,,,,,,,,,,,,,5c9bfbfa325c3d001ad360a8,26,2022-02-12_13h16.43.021,lexical_decision_task_DD_L6,2021.2.3,iPhone,58.82352941,,,,,,,,,,0.564,1,,,,,,,,,,,,,,,0,0.265306122,-0.323979592,1,0,0,0.564,button_right_main,0.265306122,-0.323979592,1,0,0,,0,135,135,78,1,BROOM,LB,m,m,./images/BROOMLB.png,,,,,,,,,,,,,,,,,,,,,,,,,,,,,,,,,
,,,,,,,,,,,,,,,,,5c9bfbfa325c3d001ad360a8,26,2022-02-12_13h16.43.021,lexical_decision_task_DD_L6,2021.2.3,iPhone,58.82352941,,,,,,,,,,0.698,1,,,,,,,,,,,,,,,0,0.263265306,-0.31377551,1,0,0,0.698,button_right_main,0.263265306,-0.31377551,1,0,0,,0,136,136,29,1,PISTOL,HB,m,m,./images/PISTOLHB.png,,,,,,,,,,,,,,,,,,,,,,,,,,,,,,,,,
,,,,,,,,,,,,,,,,,5c9bfbfa325c3d001ad360a8,26,2022-02-12_13h16.43.021,lexical_decision_task_DD_L6,2021.2.3,iPhone,58.82352941,,,,,,,,,,0.613,1,,,,,,,,,,,,,,,0,0.242857143,-0.322959184,1,0,0,0.613,button_right_main,0.242857143,-0.322959184,1,0,0,,0,137,137,24,1,FLESH,LB,m,m,./images/FLESHLB.png,,,,,,,,,,,,,,,,,,,,,,,,,,,,,,,,,
,,,,,,,,,,,,,,,,,5c9bfbfa325c3d001ad360a8,26,2022-02-12_13h16.43.021,lexical_decision_task_DD_L6,2021.2.3,iPhone,58.82352941,,,,,,,,,,0.911,1,,,,,,,,,,,,,,,0,-0.310204082,-0.334183673,1,0,0,0.911,button_left_main,-0.310204082,-0.334183673,1,0,0,,0,138,138,107,1,FASKS,LB,z,z,./images/FASKSLB.png,,,,,,,,,,,,,,,,,,,,,,,,,,,,,,,,,
,,,,,,,,,,,,,,,,,5c9bfbfa325c3d001ad360a8,26,2022-02-12_13h16.43.021,lexical_decision_task_DD_L6,2021.2.3,iPhone,58.82352941,,,,,,,,,,0.781,1,,,,,,,,,,,,,,,0,-0.301020408,-0.368877551,1,0,0,0.781,button_left_main,-0.301020408,-0.368877551,1,0,0,,0,139,139,93,1,SMONE,C,z,z,./images/SMONE.png,,,,,,,,,,,,,,,,,,,,,,,,,,,,,,,,,
,,,,,,,,,,,,,,,,,5c9bfbfa325c3d001ad360a8,26,2022-02-12_13h16.43.021,lexical_decision_task_DD_L6,2021.2.3,iPhone,58.82352941,,,,,,,,,,0.748,1,,,,,,,,,,,,,,,0,-0.306122449,-0.345408163,1,0,0,0.748,button_left_main,-0.306122449,-0.345408163,1,0,0,,0,140,140,146,1,MOOST,LB,z,z,./images/MOOSTLB.png,,,,,,,,,,,,,,,,,,,,,,,,,,,,,,,,,
,,,,,,,,,,,,,,,,,5c9bfbfa325c3d001ad360a8,26,2022-02-12_13h16.43.021,lexical_decision_task_DD_L6,2021.2.3,iPhone,58.82352941,,,,,,,,,,0.761,1,,,,,,,,,,,,,,,0,-0.32755102,-0.357653061,1,0,0,0.761,button_left_main,-0.32755102,-0.357653061,1,0,0,,0,141,141,120,1,RINED,C,z,z,./images/RINED.png,,,,,,,,,,,,,,,,,,,,,,,,,,,,,,,,,
,,,,,,,,,,,,,,,,,5c9bfbfa325c3d001ad360a8,26,2022-02-12_13h16.43.021,lexical_decision_task_DD_L6,2021.2.3,iPhone,58.82352941,,,,,,,,,,0.612,1,,,,,,,,,,,,,,,0,0.293877551,-0.295408163,1,0,0,0.612,button_right_main,0.293877551,-0.295408163,1,0,0,,0,142,142,72,1,FLASK,LB,m,m,./images/FLASKLB.png,,,,,,,,,,,,,,,,,,,,,,,,,,,,,,,,,
,,,,,,,,,,,,,,,,,5c9bfbfa325c3d001ad360a8,26,2022-02-12_13h16.43.021,lexical_decision_task_DD_L6,2021.2.3,iPhone,58.82352941,,,,,,,,,,0.749,1,,,,,,,,,,,,,,,0,-0.291836735,-0.330102041,1,0,0,0.749,button_left_main,-0.291836735,-0.330102041,1,0,0,,0,143,143,131,1,NACES,LB,z,z,./images/NACESLB.png,,,,,,,,,,,,,,,,,,,,,,,,,,,,,,,,,
,,,,,,,,,,,,,,,,,5c9bfbfa325c3d001ad360a8,26,2022-02-12_13h16.43.021,lexical_decision_task_DD_L6,2021.2.3,iPhone,58.82352941,,,,,,,,,,0.845,1,,,,,,,,,,,,,,,0,-0.31122449,-0.370918367,1,0,0,0.845,button_left_main,-0.31122449,-0.370918367,1,0,0,,0,144,144,85,1,CHULK,HB,z,z,./images/CHULKHB.png,,,,,,,,,,,,,,,,,,,,,,,,,,,,,,,,,
,,,,,,,,,,,,,,,,,5c9bfbfa325c3d001ad360a8,26,2022-02-12_13h16.43.021,lexical_decision_task_DD_L6,2021.2.3,iPhone,58.82352941,,,,,,,,,,0.896,1,,,,,,,,,,,,,,,0,-0.268367347,-0.384183673,1,0,0,0.896,button_left_main,-0.268367347,-0.384183673,1,0,0,,0,145,145,118,1,BAVEL,HB,z,z,./images/BAVELHB.png,,,,,,,,,,,,,,,,,,,,,,,,,,,,,,,,,
,,,,,,,,,,,,,,,,,5c9bfbfa325c3d001ad360a8,26,2022-02-12_13h16.43.021,lexical_decision_task_DD_L6,2021.2.3,iPhone,58.82352941,,,,,,,,,,0.679,1,,,,,,,,,,,,,,,0,0.284693878,-0.339285714,1,0,0,0.679,button_right_main,0.284693878,-0.339285714,1,0,0,,0,146,146,33,1,SAUNA,LB,m,m,./images/SAUNALB.png,,,,,,,,,,,,,,,,,,,,,,,,,,,,,,,,,
,,,,,,,,,,,,,,,,,5c9bfbfa325c3d001ad360a8,26,2022-02-12_13h16.43.021,lexical_decision_task_DD_L6,2021.2.3,iPhone,58.82352941,,,,,,,,,,1.396,1,,,,,,,,,,,,,,,0,-0.310204082,-0.365816327,1,0,0,1.396,button_left_main,-0.310204082,-0.365816327,1,0,0,,0,147,147,149,1,VEASE,LB,z,z,./images/VEASELB.png,,,,,,,,,,,,,,,,,,,,,,,,,,,,,,,,,
,,,,,,,,,,,,,,,,,5c9bfbfa325c3d001ad360a8,26,2022-02-12_13h16.43.021,lexical_decision_task_DD_L6,2021.2.3,iPhone,58.82352941,,,,,,,,,,0.779,1,,,,,,,,,,,,,,,0,-0.289795918,-0.339285714,1,0,0,0.779,button_left_main,-0.289795918,-0.339285714,1,0,0,,0,148,148,92,1,PAIMS,LB,z,z,./images/PAIMSLB.png,,,,,,,,,,,,,,,,,,,,,,,,,,,,,,,,,
,,,,,,,,,,,,,,,,,5c9bfbfa325c3d001ad360a8,26,2022-02-12_13h16.43.021,lexical_decision_task_DD_L6,2021.2.3,iPhone,58.82352941,,,,,,,,,,0.663,1,,,,,,,,,,,,,,,0,0.258163265,-0.290306122,1,0,0,0.663,button_right_main,0.258163265,-0.290306122,1,0,0,,0,149,149,75,1,HAMMER,LB,m,m,./images/HAMMERLB.png,,,,,,,,,,,,,,,,,,,,,,,,,,,,,,,,,
,,,,,,,,,,,,,,,,,5c9bfbfa325c3d001ad360a8,26,2022-02-12_13h16.43.021,lexical_decision_task_DD_L6,2021.2.3,iPhone,58.82352941,,,,,,,,,,0.566,1,,,,,,,,,,,,,,,0,0.262244898,-0.317857143,1,0,0,0.566,button_right_main,0.262244898,-0.317857143,1,0,0,,0,150,150,63,1,BAKER,LB,m,m,./images/BAKERLB.png,,,,,,,,,,,,,,,,,,,,,,,,,,,,,,,,,
,,,,,,,,,,,,,,,,,5c9bfbfa325c3d001ad360a8,26,2022-02-12_13h16.43.021,lexical_decision_task_DD_L6,2021.2.3,iPhone,58.82352941,,,,,,,,,,0.783,1,,,,,,,,,,,,,,,0,0.314285714,-0.28622449,1,0,0,0.783,button_right_main,0.314285714,-0.28622449,1,0,0,,0,151,151,41,1,STREAM,HB,m,m,./images/STREAMHB.png,,,,,,,,,,,,,,,,,,,,,,,,,,,,,,,,,
,,,,,,,,,,,,,,,,,5c9bfbfa325c3d001ad360a8,26,2022-02-12_13h16.43.021,lexical_decision_task_DD_L6,2021.2.3,iPhone,58.82352941,,,,,,,,,,0.811,1,,,,,,,,,,,,,,,0,0.236734694,-0.299489796,1,0,0,0.811,button_right_main,0.236734694,-0.299489796,1,0,0,,0,152,152,83,1,WHISKY,HB,m,m,./images/WHISKYHB.png,,,,,,,,,,,,,,,,,,,,,,,,,,,,,,,,,
,,,,,,,,,,,,,,,,,5c9bfbfa325c3d001ad360a8,26,2022-02-12_13h16.43.021,lexical_decision_task_DD_L6,2021.2.3,iPhone,58.82352941,,,,,,,,,,0.563,1,,,,,,,,,,,,,,,0,0.240816327,-0.318877551,1,0,0,0.563,button_right_main,0.240816327,-0.318877551,1,0,0,,0,153,153,81,1,DRILL,LB,m,m,./images/DRILLLB.png,,,,,,,,,,,,,,,,,,,,,,,,,,,,,,,,,
,,,,,,,,,,,,,,,,,5c9bfbfa325c3d001ad360a8,26,2022-02-12_13h16.43.021,lexical_decision_task_DD_L6,2021.2.3,iPhone,58.82352941,,,,,,,,,,0.666,1,,,,,,,,,,,,,,,0,0.217346939,-0.316836735,1,0,0,0.666,button_right_main,0.217346939,-0.316836735,1,0,0,,0,154,154,49,1,BISHOP,C,m,m,./images/BISHOP.png,,,,,,,,,,,,,,,,,,,,,,,,,,,,,,,,,
,,,,,,,,,,,,,,,,,5c9bfbfa325c3d001ad360a8,26,2022-02-12_13h16.43.021,lexical_decision_task_DD_L6,2021.2.3,iPhone,58.82352941,,,,,,,,,,0.597,1,,,,,,,,,,,,,,,0,0.235714286,-0.322959184,1,0,0,0.597,button_right_main,0.235714286,-0.322959184,1,0,0,,0,155,155,79,1,RULER,C,m,m,./images/RULER.png,,,,,,,,,,,,,,,,,,,,,,,,,,,,,,,,,
,,,,,,,,,,,,,,,,,5c9bfbfa325c3d001ad360a8,26,2022-02-12_13h16.43.021,lexical_decision_task_DD_L6,2021.2.3,iPhone,58.82352941,,,,,,,,,,0.679,1,,,,,,,,,,,,,,,0,0.247959184,-0.325,1,0,0,0.679,button_right_main,0.247959184,-0.325,1,0,0,,0,156,156,68,1,VALLEY,HB,m,m,./images/VALLEYHB.png,,,,,,,,,,,,,,,,,,,,,,,,,,,,,,,,,
,,,,,,,,,,,,,,,,,5c9bfbfa325c3d001ad360a8,26,2022-02-12_13h16.43.021,lexical_decision_task_DD_L6,2021.2.3,iPhone,58.82352941,,,,,,,,,,1.094,1,,,,,,,,,,,,,,,0,-0.321428571,-0.339285714,1,0,0,1.094,button_left_main,-0.321428571,-0.339285714,1,0,0,,0,157,157,130,1,CRILL,HB,z,z,./images/CRILLHB.png,,,,,,,,,,,,,,,,,,,,,,,,,,,,,,,,,
,,,,,,,,,,,,,,,,,5c9bfbfa325c3d001ad360a8,26,2022-02-12_13h16.43.021,lexical_decision_task_DD_L6,2021.2.3,iPhone,58.82352941,,,,,,,,,,0.564,1,,,,,,,,,,,,,,,0,0.281632653,-0.30255102,1,0,0,0.564,button_right_main,0.281632653,-0.30255102,1,0,0,,0,158,158,70,1,BANANA,C,m,m,./images/BANANA.png,,,,,,,,,,,,,,,,,,,,,,,,,,,,,,,,,
,,,,,,,,,,,,,,,,,5c9bfbfa325c3d001ad360a8,26,2022-02-12_13h16.43.021,lexical_decision_task_DD_L6,2021.2.3,iPhone,58.82352941,,,,,,,,,,0.779,1,,,,,,,,,,,,,,,0,-0.324489796,-0.345408163,1,0,0,0.779,button_left_main,-0.324489796,-0.345408163,1,0,0,,0,159,159,155,1,CANGY,LB,z,z,./images/CANGYLB.png,,,,,,,,,,,,,,,,,,,,,,,,,,,,,,,,,
,,,,,,,,,,,,,,,,,5c9bfbfa325c3d001ad360a8,26,2022-02-12_13h16.43.021,lexical_decision_task_DD_L6,2021.2.3,iPhone,58.82352941,,,,,,,,,,1.113,1,,,,,,,,,,,,,,,0,-0.318367347,-0.353571429,1,0,0,1.113,button_left_main,-0.318367347,-0.353571429,1,0,0,,0,160,160,137,1,JOOST,LB,z,z,./images/JOOSTLB.png,,,,,,,,,,,,,,,,,,,,,,,,,,,,,,,,,
,,,,,,,,,,,,,,,,,5c9bfbfa325c3d001ad360a8,26,2022-02-12_13h16.43.021,lexical_decision_task_DD_L6,2021.2.3,iPhone,58.82352941,,,,,,,,,,0.612,1,,,,,,,,,,,,,,,0,0.27755102,-0.328061224,1,0,0,0.612,button_right_main,0.27755102,-0.328061224,1,0,0,,0,161,161,27,1,BUTTER,LB,m,m,./images/BUTTERLB.png,,,,,,,,,,,,,,,,,,,,,,,,,,,,,,,,,
,,,,,,,,,,,,,,,,,5c9bfbfa325c3d001ad360a8,26,2022-02-12_13h16.43.021,lexical_decision_task_DD_L6,2021.2.3,iPhone,58.82352941,,,,,,,,,,0.898,1,,,,,,,,,,,,,,,0,-0.296938776,-0.360714286,1,0,0,0.898,button_left_main,-0.296938776,-0.360714286,1,0,0,,0,162,162,88,1,GLUSH,HB,z,z,./images/GLUSHHB.png,,,,,,,,,,,,,,,,,,,,,,,,,,,,,,,,,
,,,,,,,,,,,,,,,,,5c9bfbfa325c3d001ad360a8,26,2022-02-12_13h16.43.021,lexical_decision_task_DD_L6,2021.2.3,iPhone,58.82352941,,,,,,,,,,0.666,1,,,,,,,,,,,,,,,0,0.309183673,-0.303571429,1,0,0,0.666,button_right_main,0.309183673,-0.303571429,1,0,0,,0,163,163,34,1,RAZOR,C,m,m,./images/RAZOR.png,,,,,,,,,,,,,,,,,,,,,,,,,,,,,,,,,
,,,,,,,,,,,,,,,,,5c9bfbfa325c3d001ad360a8,26,2022-02-12_13h16.43.021,lexical_decision_task_DD_L6,2021.2.3,iPhone,58.82352941,,,,,,,,,,0.794,1,,,,,,,,,,,,,,,0,0.271428571,-0.322959184,1,0,0,0.794,button_right_main,0.271428571,-0.322959184,1,0,0,,0,164,164,46,1,MUMMY,C,m,m,./images/MUMMY.png,,,,,,,,,,,,,,,,,,,,,,,,,,,,,,,,,
,,,,,,,,,,,,,,,,,5c9bfbfa325c3d001ad360a8,26,2022-02-12_13h16.43.021,lexical_decision_task_DD_L6,2021.2.3,iPhone,58.82352941,,,,,,,,,,0.614,1,,,,,,,,,,,,,,,0,0.257142857,-0.308673469,1,0,0,0.614,button_right_main,0.257142857,-0.308673469,1,0,0,,0,165,165,3,1,CRATER,LB,m,m,./images/CRATERLB.png,,,,,,,,,,,,,,,,,,,,,,,,,,,,,,,,,
,,,,,,,,,,,,,,,,,5c9bfbfa325c3d001ad360a8,26,2022-02-12_13h16.43.021,lexical_decision_task_DD_L6,2021.2.3,iPhone,58.82352941,,,,,,,,,,0.783,1,,,,,,,,,,,,,,,0,-0.32244898,-0.354591837,1,0,0,0.783,button_left_main,-0.32244898,-0.354591837,1,0,0,,0,166,166,86,1,AIFED,LB,z,z,./images/AIFEDLB.png,,,,,,,,,,,,,,,,,,,,,,,,,,,,,,,,,
,,,,,,,,,,,,,,,,,5c9bfbfa325c3d001ad360a8,26,2022-02-12_13h16.43.021,lexical_decision_task_DD_L6,2021.2.3,iPhone,58.82352941,,,,,,,,,,1.392,1,,,,,,,,,,,,,,,0,-0.298979592,-0.343367347,1,0,0,1.392,button_left_main,-0.298979592,-0.343367347,1,0,0,,0,167,167,123,1,SEDGE,C,z,z,./images/SEDGE.png,,,,,,,,,,,,,,,,,,,,,,,,,,,,,,,,,
,,,,,,,,,,,,,,,,,5c9bfbfa325c3d001ad360a8,26,2022-02-12_13h16.43.021,lexical_decision_task_DD_L6,2021.2.3,iPhone,58.82352941,,,,,,,,,,,,,,,,,,,,,,,,,,,,,,,,,,,,,,,,,,,,,,How likely will it be that you will recognize the words presented very blurred on a scale of 0 (not likely) to 100 (most likely)?,,,,,0.001020408,-0.415816327,1,0,0,jol_adv,3,6.072,0,0,0,2,1,,,,,,,,,,,,,,,,,,,
,,,,,,,,,,,,,,,,,5c9bfbfa325c3d001ad360a8,26,2022-02-12_13h16.43.021,lexical_decision_task_DD_L6,2021.2.3,iPhone,58.82352941,,,,,,,,,,,,,,,,,,,,,,,,,,,,,,,,,,,,,,,,,,,,,,How likely will it be that you will recognize the words presented slighly blurred on a scale of 0 (not likely) to 100 (most likely)?,,,,,,,,,,,3,20.404,0,1,1,1,1,,,,,,,,,,,,,,,,,,,
,,,,,,,,,,,,,,,,,5c9bfbfa325c3d001ad360a8,26,2022-02-12_13h16.43.021,lexical_decision_task_DD_L6,2021.2.3,iPhone,58.82352941,,,,,,,,,,,,,,,,,,,,,,,,,,,,,,,,,,,,,,,,,,,,,,How likely will it be that you will recognize the words presented clearly on a scale of 0 (not likely) to 100 (most likely)?,,,,,,,,,,,5,10.234,0,2,2,0,1,,,,,,,,,,,,,,,,,,,
,-0.008163265,-0.400510204,1,0,0,instr_done_button,,,,,,1,test,"In the next phase you will be presented with the words from the the first phase. Your job is to decide whether you remember seeing the word or not. If you remember seeing the word press ""old"" or type ""m"". If you do not remember seeing the word press ""new"" or type ""z"". Please press the space bar or click on continue to begin. ",,,5c9bfbfa325c3d001ad360a8,26,2022-02-12_13h16.43.021,lexical_decision_task_DD_L6,2021.2.3,iPhone,58.82352941,,,,,,,,,,,,,,,,,,,,,,,,,,,,,,,,,,,,,,,,,,,,,,,,,,,,,,,,,,,,,,,,0,0,0,0,1,,,,,,,,,,,,,,
,0.040816327,-0.357653061,1,0,0,instr_done_button,,,,,,1,test,"In the next phase you will be presented with the words from the the first phase. Your job is to decide whether you remember seeing the word or not. If you remember seeing the word press ""old"" or type ""m"". If you do not remember seeing the word press ""new"" or type ""z"". Please press the space bar or click on continue to begin. ",,,5c9bfbfa325c3d001ad360a8,26,2022-02-12_13h16.43.021,lexical_decision_task_DD_L6,2021.2.3,iPhone,58.82352941,,,,,,,,,,,,,,,,,,,,,,,,,,,,,,,,,,,,,,,,,,,,,,,,,,,,,,,,,,,,,,,,1,0,1,0,1,,,,,,,,,,,,,,
,0.023469388,-0.403571429,1,0,0,instr_done_button,,,,,,1,test,"In the next phase you will be presented with the words from the the first phase. Your job is to decide whether you remember seeing the word or not. If you remember seeing the word press ""old"" or type ""m"". If you do not remember seeing the word press ""new"" or type ""z"". Please press the space bar or click on continue to begin. ",,,5c9bfbfa325c3d001ad360a8,26,2022-02-12_13h16.43.021,lexical_decision_task_DD_L6,2021.2.3,iPhone,58.82352941,,,,,,,,,,,,,,,,,,,,,,,,,,,,,,,,,,,,,,,,,,,,,,,,,,,,,,,,,,,,,,,,2,0,2,0,1,,,,,,,,,,,,,,
,0.045918367,-0.39744898,1,0,0,instr_done_button,,,,,,1,test,"In the next phase you will be presented with the words from the the first phase. Your job is to decide whether you remember seeing the word or not. If you remember seeing the word press ""old"" or type ""m"". If you do not remember seeing the word press ""new"" or type ""z"". Please press the space bar or click on continue to begin. ",,,5c9bfbfa325c3d001ad360a8,26,2022-02-12_13h16.43.021,lexical_decision_task_DD_L6,2021.2.3,iPhone,58.82352941,,,,,,,,,,,,,,,,,,,,,,,,,,,,,,,,,,,,,,,,,,,,,,,,,,,,,,,,,,,,,,,,3,0,3,0,1,,,,,,,,,,,,,,
,-0.033673469,-0.350510204,1,0,0,instr_done_button,,,,,,1,test,"In the next phase you will be presented with the words from the the first phase. Your job is to decide whether you remember seeing the word or not. If you remember seeing the word press ""old"" or type ""m"". If you do not remember seeing the word press ""new"" or type ""z"". Please press the space bar or click on continue to begin. ",,,5c9bfbfa325c3d001ad360a8,26,2022-02-12_13h16.43.021,lexical_decision_task_DD_L6,2021.2.3,iPhone,58.82352941,,,,,,,,,,,,,,,,,,,,,,,,,,,,,,,,,,,,,,,,,,,,,,,,,,,,,,,,,,,,,,,,4,0,4,0,1,,,,,,,,,,,,,,
,,,,,,,,,,,,,,,,,5c9bfbfa325c3d001ad360a8,26,2022-02-12_13h16.43.021,lexical_decision_task_DD_L6,2021.2.3,iPhone,58.82352941,,,,,,,,,,1.441,1,,,,,,,,,,,,,,,,,,,,,,,-0.251020408,-0.342346939,1,0,0,,,,,,,MIRROR,LB,z,y,./images/MIRRORLB.png,,,,,,,,,,,,,,,,,,,,,0,-0.251020408,-0.342346939,1,0,0,1.441,button_left_test,0,0,0,147,1
,,,,,,,,,,,,,,,,,5c9bfbfa325c3d001ad360a8,26,2022-02-12_13h16.43.021,lexical_decision_task_DD_L6,2021.2.3,iPhone,58.82352941,,,,,,,,,,1.61,1,,,,,,,,,,,,,,,,,,,,,,,0.265306122,-0.350510204,1,0,0,,,,,,,CLIFF,HB,m,y,./images/CLIFFHB.png,,,,,,,,,,,,,,,,,,,,,0,0.265306122,-0.350510204,1,0,0,1.61,button_right_test,0,1,1,8,1
,,,,,,,,,,,,,,,,,5c9bfbfa325c3d001ad360a8,26,2022-02-12_13h16.43.021,lexical_decision_task_DD_L6,2021.2.3,iPhone,58.82352941,,,,,,,,,,2.321,1,,,,,,,,,,,,,,,,,,,,,,,-0.244897959,-0.34744898,1,0,0,,,,,,,CRADLE,HB,z,y,./images/CRADLEHB.png,,,,,,,,,,,,,,,,,,,,,0,-0.244897959,-0.34744898,1,0,0,2.321,button_left_test,0,2,2,104,1
,,,,,,,,,,,,,,,,,5c9bfbfa325c3d001ad360a8,26,2022-02-12_13h16.43.021,lexical_decision_task_DD_L6,2021.2.3,iPhone,58.82352941,,,,,,,,,,1.191,1,,,,,,,,,,,,,,,,,,,,,,,-0.253061224,-0.340306122,1,0,0,,,,,,,BEARD,HB,z,y,./images/BEARDHB.png,,,,,,,,,,,,,,,,,,,,,0,-0.253061224,-0.340306122,1,0,0,1.191,button_left_test,0,3,3,86,1
,,,,,,,,,,,,,,,,,5c9bfbfa325c3d001ad360a8,26,2022-02-12_13h16.43.021,lexical_decision_task_DD_L6,2021.2.3,iPhone,58.82352941,,,,,,,,,,1.174,1,,,,,,,,,,,,,,,,,,,,,,,0.25,-0.322959184,1,0,0,,,,,,,FLASK,LB,m,y,./images/FLASKLB.png,,,,,,,,,,,,,,,,,,,,,0,0.25,-0.322959184,1,0,0,1.174,button_right_test,0,4,4,72,1
,,,,,,,,,,,,,,,,,5c9bfbfa325c3d001ad360a8,26,2022-02-12_13h16.43.021,lexical_decision_task_DD_L6,2021.2.3,iPhone,58.82352941,,,,,,,,,,1.158,1,,,,,,,,,,,,,,,,,,,,,,,-0.254081633,-0.360714286,1,0,0,,,,,,,DRUMS,C,z,y,./images/DRUMS.png,,,,,,,,,,,,,,,,,,,,,0,-0.254081633,-0.360714286,1,0,0,1.158,button_left_test,0,5,5,133,1
,,,,,,,,,,,,,,,,,5c9bfbfa325c3d001ad360a8,26,2022-02-12_13h16.43.021,lexical_decision_task_DD_L6,2021.2.3,iPhone,58.82352941,,,,,,,,,,1.19,1,,,,,,,,,,,,,,,,,,,,,,,0.23877551,-0.325,1,0,0,,,,,,,CLOUD,HB,m,y,./images/CLOUDHB.png,,,,,,,,,,,,,,,,,,,,,0,0.23877551,-0.325,1,0,0,1.19,button_right_test,0,6,6,26,1
,,,,,,,,,,,,,,,,,5c9bfbfa325c3d001ad360a8,26,2022-02-12_13h16.43.021,lexical_decision_task_DD_L6,2021.2.3,iPhone,58.82352941,,,,,,,,,,0.929,1,,,,,,,,,,,,,,,,,,,,,,,0.246938776,-0.331122449,1,0,0,,,,,,,BUNNY,C,m,y,./images/BUNNY.png,,,,,,,,,,,,,,,,,,,,,0,0.246938776,-0.331122449,1,0,0,0.929,button_right_test,0,7,7,13,1
,,,,,,,,,,,,,,,,,5c9bfbfa325c3d001ad360a8,26,2022-02-12_13h16.43.021,lexical_decision_task_DD_L6,2021.2.3,iPhone,58.82352941,,,,,,,,,,0.811,1,,,,,,,,,,,,,,,,,,,,,,,0.253061224,-0.342346939,1,0,0,,,,,,,POKER,C,m,y,./images/POKER.png,,,,,,,,,,,,,,,,,,,,,0,0.253061224,-0.342346939,1,0,0,0.811,button_right_test,0,8,8,67,1
,,,,,,,,,,,,,,,,,5c9bfbfa325c3d001ad360a8,26,2022-02-12_13h16.43.021,lexical_decision_task_DD_L6,2021.2.3,iPhone,58.82352941,,,,,,,,,,0.726,1,,,,,,,,,,,,,,,,,,,,,,,0.244897959,-0.33622449,1,0,0,,,,,,,BRUSH,HB,m,y,./images/BRUSHHB.png,,,,,,,,,,,,,,,,,,,,,0,0.244897959,-0.33622449,1,0,0,0.726,button_right_test,0,9,9,59,1
,,,,,,,,,,,,,,,,,5c9bfbfa325c3d001ad360a8,26,2022-02-12_13h16.43.021,lexical_decision_task_DD_L6,2021.2.3,iPhone,58.82352941,,,,,,,,,,0.744,1,,,,,,,,,,,,,,,,,,,,,,,0.243877551,-0.328061224,1,0,0,,,,,,,DANCER,LB,m,y,./images/DANCERLB.png,,,,,,,,,,,,,,,,,,,,,0,0.243877551,-0.328061224,1,0,0,0.744,button_right_test,0,10,10,21,1
,,,,,,,,,,,,,,,,,5c9bfbfa325c3d001ad360a8,26,2022-02-12_13h16.43.021,lexical_decision_task_DD_L6,2021.2.3,iPhone,58.82352941,,,,,,,,,,0.777,1,,,,,,,,,,,,,,,,,,,,,,,0.242857143,-0.326020408,1,0,0,,,,,,,HEATER,HB,m,y,./images/HEATERHB.png,,,,,,,,,,,,,,,,,,,,,0,0.242857143,-0.326020408,1,0,0,0.777,button_right_test,0,11,11,56,1
,,,,,,,,,,,,,,,,,5c9bfbfa325c3d001ad360a8,26,2022-02-12_13h16.43.021,lexical_decision_task_DD_L6,2021.2.3,iPhone,58.82352941,,,,,,,,,,0.893,1,,,,,,,,,,,,,,,,,,,,,,,-0.313265306,-0.344387755,1,0,0,,,,,,,THROAT,LB,z,y,./images/THROATLB.png,,,,,,,,,,,,,,,,,,,,,0,-0.313265306,-0.344387755,1,0,0,0.893,button_left_test,0,12,12,120,1
,,,,,,,,,,,,,,,,,5c9bfbfa325c3d001ad360a8,26,2022-02-12_13h16.43.021,lexical_decision_task_DD_L6,2021.2.3,iPhone,58.82352941,,,,,,,,,,1.107,1,,,,,,,,,,,,,,,,,,,,,,,-0.279591837,-0.356632653,1,0,0,,,,,,,JAGUAR,LB,z,y,./images/JAGUARLB.png,,,,,,,,,,,,,,,,,,,,,0,-0.279591837,-0.356632653,1,0,0,1.107,button_left_test,0,13,13,102,1
,,,,,,,,,,,,,,,,,5c9bfbfa325c3d001ad360a8,26,2022-02-12_13h16.43.021,lexical_decision_task_DD_L6,2021.2.3,iPhone,58.82352941,,,,,,,,,,2.171,1,,,,,,,,,,,,,,,,,,,,,,,-0.252040816,-0.350510204,1,0,0,,,,,,,BANNER,C,z,y,./images/BANNER.png,,,,,,,,,,,,,,,,,,,,,0,-0.252040816,-0.350510204,1,0,0,2.171,button_left_test,0,14,14,136,1
,,,,,,,,,,,,,,,,,5c9bfbfa325c3d001ad360a8,26,2022-02-12_13h16.43.021,lexical_decision_task_DD_L6,2021.2.3,iPhone,58.82352941,,,,,,,,,,1.03,1,,,,,,,,,,,,,,,,,,,,,,,0.286734694,-0.325,1,0,0,,,,,,,HOCKEY,HB,m,y,./images/HOCKEYHB.png,,,,,,,,,,,,,,,,,,,,,0,0.286734694,-0.325,1,0,0,1.03,button_right_test,0,15,15,32,1
,,,,,,,,,,,,,,,,,5c9bfbfa325c3d001ad360a8,26,2022-02-12_13h16.43.021,lexical_decision_task_DD_L6,2021.2.3,iPhone,58.82352941,,,,,,,,,,0.876,1,,,,,,,,,,,,,,,,,,,,,,,0.352040816,-0.357653061,1,0,0,,,,,,,JUMPER,HB,m,y,./images/JUMPERHB.png,,,,,,,,,,,,,,,,,,,,,0,0.352040816,-0.357653061,1,0,0,0.876,button_right_test,0,16,16,74,1
,,,,,,,,,,,,,,,,,5c9bfbfa325c3d001ad360a8,26,2022-02-12_13h16.43.021,lexical_decision_task_DD_L6,2021.2.3,iPhone,58.82352941,,,,,,,,,,1.26,1,,,,,,,,,,,,,,,,,,,,,,,0.38877551,-0.295408163,1,0,0,,,,,,,BAMBOO,HB,m,y,./images/BAMBOOHB.png,,,,,,,,,,,,,,,,,,,,,0,0.38877551,-0.295408163,1,0,0,1.26,button_right_test,0,17,17,5,1
,,,,,,,,,,,,,,,,,5c9bfbfa325c3d001ad360a8,26,2022-02-12_13h16.43.021,lexical_decision_task_DD_L6,2021.2.3,iPhone,58.82352941,,,,,,,,,,0.795,1,,,,,,,,,,,,,,,,,,,,,,,0.382653061,-0.308673469,1,0,0,,,,,,,SHIELD,LB,m,y,./images/SHIELDLB.png,,,,,,,,,,,,,,,,,,,,,0,0.382653061,-0.308673469,1,0,0,0.795,button_right_test,0,18,18,48,1
,,,,,,,,,,,,,,,,,5c9bfbfa325c3d001ad360a8,26,2022-02-12_13h16.43.021,lexical_decision_task_DD_L6,2021.2.3,iPhone,58.82352941,,,,,,,,,,0.726,1,,,,,,,,,,,,,,,,,,,,,,,0.318367347,-0.351530612,1,0,0,,,,,,,STEAK,C,m,y,./images/STEAK.png,,,,,,,,,,,,,,,,,,,,,0,0.318367347,-0.351530612,1,0,0,0.726,button_right_test,0,19,19,31,1
,,,,,,,,,,,,,,,,,5c9bfbfa325c3d001ad360a8,26,2022-02-12_13h16.43.021,lexical_decision_task_DD_L6,2021.2.3,iPhone,58.82352941,,,,,,,,,,1.577,1,,,,,,,,,,,,,,,,,,,,,,,-0.278571429,-0.334183673,1,0,0,,,,,,,INFANT,C,z,y,./images/INFANT.png,,,,,,,,,,,,,,,,,,,,,0,-0.278571429,-0.334183673,1,0,0,1.577,button_left_test,0,20,20,160,1
,,,,,,,,,,,,,,,,,5c9bfbfa325c3d001ad360a8,26,2022-02-12_13h16.43.021,lexical_decision_task_DD_L6,2021.2.3,iPhone,58.82352941,,,,,,,,,,1.242,0,,,,,,,,,,,,,,,,,,,,,,,0.260204082,-0.335204082,1,0,0,,,,,,,SCREW,LB,z,y,./images/SCREWLB.png,,,,,,,,,,,,,,,,,,,,,0,0.260204082,-0.335204082,1,0,0,1.242,button_right_test,0,21,21,108,1
,,,,,,,,,,,,,,,,,5c9bfbfa325c3d001ad360a8,26,2022-02-12_13h16.43.021,lexical_decision_task_DD_L6,2021.2.3,iPhone,58.82352941,,,,,,,,,,2.419,1,,,,,,,,,,,,,,,,,,,,,,,0.285714286,-0.343367347,1,0,0,,,,,,,LAGOON,HB,m,y,./images/LAGOONHB.png,,,,,,,,,,,,,,,,,,,,,0,0.285714286,-0.343367347,1,0,0,2.419,button_right_test,0,22,22,47,1
,,,,,,,,,,,,,,,,,5c9bfbfa325c3d001ad360a8,26,2022-02-12_13h16.43.021,lexical_decision_task_DD_L6,2021.2.3,iPhone,58.82352941,,,,,,,,,,0.913,1,,,,,,,,,,,,,,,,,,,,,,,0.26122449,-0.357653061,1,0,0,,,,,,,PISTOL,HB,m,y,./images/PISTOLHB.png,,,,,,,,,,,,,,,,,,,,,0,0.26122449,-0.357653061,1,0,0,0.913,button_right_test,0,23,23,29,1
,,,,,,,,,,,,,,,,,5c9bfbfa325c3d001ad360a8,26,2022-02-12_13h16.43.021,lexical_decision_task_DD_L6,2021.2.3,iPhone,58.82352941,,,,,,,,,,2.472,1,,,,,,,,,,,,,,,,,,,,,,,-0.263265306,-0.344387755,1,0,0,,,,,,,FARMER,HB,z,y,./images/FARMERHB.png,,,,,,,,,,,,,,,,,,,,,0,-0.263265306,-0.344387755,1,0,0,2.472,button_left_test,0,24,24,149,1
,,,,,,,,,,,,,,,,,5c9bfbfa325c3d001ad360a8,26,2022-02-12_13h16.43.021,lexical_decision_task_DD_L6,2021.2.3,iPhone,58.82352941,,,,,,,,,,1.74,0,,,,,,,,,,,,,,,,,,,,,,,-0.257142857,-0.320918367,1,0,0,,,,,,,PARADE,HB,m,y,./images/PARADEHB.png,,,,,,,,,,,,,,,,,,,,,0,-0.257142857,-0.320918367,1,0,0,1.74,button_left_test,0,25,25,17,1
,,,,,,,,,,,,,,,,,5c9bfbfa325c3d001ad360a8,26,2022-02-12_13h16.43.021,lexical_decision_task_DD_L6,2021.2.3,iPhone,58.82352941,,,,,,,,,,0.879,1,,,,,,,,,,,,,,,,,,,,,,,-0.276530612,-0.350510204,1,0,0,,,,,,,KIDNEY,LB,z,y,./images/KIDNEYLB.png,,,,,,,,,,,,,,,,,,,,,0,-0.276530612,-0.350510204,1,0,0,0.879,button_left_test,0,26,26,105,1
,,,,,,,,,,,,,,,,,5c9bfbfa325c3d001ad360a8,26,2022-02-12_13h16.43.021,lexical_decision_task_DD_L6,2021.2.3,iPhone,58.82352941,,,,,,,,,,0.928,1,,,,,,,,,,,,,,,,,,,,,,,-0.293877551,-0.358673469,1,0,0,,,,,,,JELLY,C,z,y,./images/JELLY.png,,,,,,,,,,,,,,,,,,,,,0,-0.293877551,-0.358673469,1,0,0,0.928,button_left_test,0,27,27,148,1
,,,,,,,,,,,,,,,,,5c9bfbfa325c3d001ad360a8,26,2022-02-12_13h16.43.021,lexical_decision_task_DD_L6,2021.2.3,iPhone,58.82352941,,,,,,,,,,0.911,0,,,,,,,,,,,,,,,,,,,,,,,0.267346939,-0.343367347,1,0,0,,,,,,,BARREL,HB,z,y,./images/BARRELHB.png,,,,,,,,,,,,,,,,,,,,,0,0.267346939,-0.343367347,1,0,0,0.911,button_right_test,0,28,28,116,1
,,,,,,,,,,,,,,,,,5c9bfbfa325c3d001ad360a8,26,2022-02-12_13h16.43.021,lexical_decision_task_DD_L6,2021.2.3,iPhone,58.82352941,,,,,,,,,,0.644,1,,,,,,,,,,,,,,,,,,,,,,,0.253061224,-0.387244898,1,0,0,,,,,,,ARROW,LB,m,y,./images/ARROWLB.png,,,,,,,,,,,,,,,,,,,,,0,0.253061224,-0.387244898,1,0,0,0.644,button_right_test,0,29,29,69,1
,,,,,,,,,,,,,,,,,5c9bfbfa325c3d001ad360a8,26,2022-02-12_13h16.43.021,lexical_decision_task_DD_L6,2021.2.3,iPhone,58.82352941,,,,,,,,,,0.913,1,,,,,,,,,,,,,,,,,,,,,,,-0.278571429,-0.355612245,1,0,0,,,,,,,GREASE,LB,z,y,./images/GREASELB.png,,,,,,,,,,,,,,,,,,,,,0,-0.278571429,-0.355612245,1,0,0,0.913,button_left_test,0,30,30,99,1
,,,,,,,,,,,,,,,,,5c9bfbfa325c3d001ad360a8,26,2022-02-12_13h16.43.021,lexical_decision_task_DD_L6,2021.2.3,iPhone,58.82352941,,,,,,,,,,0.827,1,,,,,,,,,,,,,,,,,,,,,,,0.268367347,-0.361734694,1,0,0,,,,,,,SAUCE,LB,m,y,./images/SAUCELB.png,,,,,,,,,,,,,,,,,,,,,0,0.268367347,-0.361734694,1,0,0,0.827,button_right_test,0,31,31,51,1
,,,,,,,,,,,,,,,,,5c9bfbfa325c3d001ad360a8,26,2022-02-12_13h16.43.021,lexical_decision_task_DD_L6,2021.2.3,iPhone,58.82352941,,,,,,,,,,0.959,1,,,,,,,,,,,,,,,,,,,,,,,-0.301020408,-0.372959184,1,0,0,,,,,,,WALRUS,HB,z,y,./images/WALRUSHB.png,,,,,,,,,,,,,,,,,,,,,0,-0.301020408,-0.372959184,1,0,0,0.959,button_left_test,0,32,32,107,1
,,,,,,,,,,,,,,,,,5c9bfbfa325c3d001ad360a8,26,2022-02-12_13h16.43.021,lexical_decision_task_DD_L6,2021.2.3,iPhone,58.82352941,,,,,,,,,,0.775,1,,,,,,,,,,,,,,,,,,,,,,,0.237755102,-0.340306122,1,0,0,,,,,,,POSTER,HB,m,y,./images/POSTERHB.png,,,,,,,,,,,,,,,,,,,,,0,0.237755102,-0.340306122,1,0,0,0.775,button_right_test,0,33,33,53,1
,,,,,,,,,,,,,,,,,5c9bfbfa325c3d001ad360a8,26,2022-02-12_13h16.43.021,lexical_decision_task_DD_L6,2021.2.3,iPhone,58.82352941,,,,,,,,,,0.746,1,,,,,,,,,,,,,,,,,,,,,,,0.264285714,-0.348469388,1,0,0,,,,,,,MAMMAL,HB,m,y,./images/MAMMALHB.png,,,,,,,,,,,,,,,,,,,,,0,0.264285714,-0.348469388,1,0,0,0.746,button_right_test,0,34,34,62,1
,,,,,,,,,,,,,,,,,5c9bfbfa325c3d001ad360a8,26,2022-02-12_13h16.43.021,lexical_decision_task_DD_L6,2021.2.3,iPhone,58.82352941,,,,,,,,,,1.093,1,,,,,,,,,,,,,,,,,,,,,,,-0.282653061,-0.355612245,1,0,0,,,,,,,ATTIC,LB,z,y,./images/ATTICLB.png,,,,,,,,,,,,,,,,,,,,,0,-0.282653061,-0.355612245,1,0,0,1.093,button_left_test,0,35,35,111,1
,,,,,,,,,,,,,,,,,5c9bfbfa325c3d001ad360a8,26,2022-02-12_13h16.43.021,lexical_decision_task_DD_L6,2021.2.3,iPhone,58.82352941,,,,,,,,,,1.025,1,,,,,,,,,,,,,,,,,,,,,,,0.232653061,-0.333163265,1,0,0,,,,,,,PEBBLE,C,m,y,./images/PEBBLE.png,,,,,,,,,,,,,,,,,,,,,0,0.232653061,-0.333163265,1,0,0,1.025,button_right_test,0,36,36,82,1
,,,,,,,,,,,,,,,,,5c9bfbfa325c3d001ad360a8,26,2022-02-12_13h16.43.021,lexical_decision_task_DD_L6,2021.2.3,iPhone,58.82352941,,,,,,,,,,0.844,1,,,,,,,,,,,,,,,,,,,,,,,-0.290816327,-0.345408163,1,0,0,,,,,,,PASTA,HB,z,y,./images/PASTAHB.png,,,,,,,,,,,,,,,,,,,,,0,-0.290816327,-0.345408163,1,0,0,0.844,button_left_test,0,37,37,89,1
,,,,,,,,,,,,,,,,,5c9bfbfa325c3d001ad360a8,26,2022-02-12_13h16.43.021,lexical_decision_task_DD_L6,2021.2.3,iPhone,58.82352941,,,,,,,,,,0.698,1,,,,,,,,,,,,,,,,,,,,,,,0.257142857,-0.334183673,1,0,0,,,,,,,FLESH,LB,m,y,./images/FLESHLB.png,,,,,,,,,,,,,,,,,,,,,0,0.257142857,-0.334183673,1,0,0,0.698,button_right_test,0,38,38,24,1
,,,,,,,,,,,,,,,,,5c9bfbfa325c3d001ad360a8,26,2022-02-12_13h16.43.021,lexical_decision_task_DD_L6,2021.2.3,iPhone,58.82352941,,,,,,,,,,0.794,1,,,,,,,,,,,,,,,,,,,,,,,-0.3,-0.360714286,1,0,0,,,,,,,TRIPOD,LB,z,y,./images/TRIPODLB.png,,,,,,,,,,,,,,,,,,,,,0,-0.3,-0.360714286,1,0,0,0.794,button_left_test,0,39,39,138,1
,,,,,,,,,,,,,,,,,5c9bfbfa325c3d001ad360a8,26,2022-02-12_13h16.43.021,lexical_decision_task_DD_L6,2021.2.3,iPhone,58.82352941,,,,,,,,,,2.055,1,,,,,,,,,,,,,,,,,,,,,,,0.247959184,-0.335204082,1,0,0,,,,,,,RULER,C,m,y,./images/RULER.png,,,,,,,,,,,,,,,,,,,,,0,0.247959184,-0.335204082,1,0,0,2.055,button_right_test,0,40,40,79,1
,,,,,,,,,,,,,,,,,5c9bfbfa325c3d001ad360a8,26,2022-02-12_13h16.43.021,lexical_decision_task_DD_L6,2021.2.3,iPhone,58.82352941,,,,,,,,,,1.742,0,,,,,,,,,,,,,,,,,,,,,,,0.024489796,-0.389285714,1,0,0,,,,,,,STATUE,LB,m,y,./images/STATUELB.png,break_done_button,,,,,,,,,,,,,,,,,,,,0,-0.276530612,-0.327040816,1,0,0,1.742,button_left_test,0,41,41,66,1
,,,,,,,,,,,,,,,,,5c9bfbfa325c3d001ad360a8,26,2022-02-12_13h16.43.021,lexical_decision_task_DD_L6,2021.2.3,iPhone,58.82352941,,,,,,,,,,1.191,0,,,,,,,,,,,,,,,,,,,,,,,0.245918367,-0.370918367,1,0,0,,,,,,,STORM,LB,z,y,./images/STORMLB.png,,,,,,,,,,,,,,,,,,,,,0,0.245918367,-0.370918367,1,0,0,1.191,button_right_test,0,42,42,114,1
,,,,,,,,,,,,,,,,,5c9bfbfa325c3d001ad360a8,26,2022-02-12_13h16.43.021,lexical_decision_task_DD_L6,2021.2.3,iPhone,58.82352941,,,,,,,,,,0.879,1,,,,,,,,,,,,,,,,,,,,,,,0.231632653,-0.36377551,1,0,0,,,,,,,CANDY,LB,m,y,./images/CANDYLB.png,,,,,,,,,,,,,,,,,,,,,0,0.231632653,-0.36377551,1,0,0,0.879,button_right_test,0,43,43,39,1
,,,,,,,,,,,,,,,,,5c9bfbfa325c3d001ad360a8,26,2022-02-12_13h16.43.021,lexical_decision_task_DD_L6,2021.2.3,iPhone,58.82352941,,,,,,,,,,0.912,1,,,,,,,,,,,,,,,,,,,,,,,-0.270408163,-0.354591837,1,0,0,,,,,,,PENCE,C,z,y,./images/PENCE.png,,,,,,,,,,,,,,,,,,,,,0,-0.270408163,-0.354591837,1,0,0,0.912,button_left_test,0,44,44,100,1
,,,,,,,,,,,,,,,,,5c9bfbfa325c3d001ad360a8,26,2022-02-12_13h16.43.021,lexical_decision_task_DD_L6,2021.2.3,iPhone,58.82352941,,,,,,,,,,0.794,1,,,,,,,,,,,,,,,,,,,,,,,0.25,-0.342346939,1,0,0,,,,,,,BANANA,C,m,y,./images/BANANA.png,,,,,,,,,,,,,,,,,,,,,0,0.25,-0.342346939,1,0,0,0.794,button_right_test,0,45,45,70,1
,,,,,,,,,,,,,,,,,5c9bfbfa325c3d001ad360a8,26,2022-02-12_13h16.43.021,lexical_decision_task_DD_L6,2021.2.3,iPhone,58.82352941,,,,,,,,,,0.914,0,,,,,,,,,,,,,,,,,,,,,,,0.232653061,-0.333163265,1,0,0,,,,,,,CANYON,C,z,y,./images/CANYON.png,,,,,,,,,,,,,,,,,,,,,0,0.232653061,-0.333163265,1,0,0,0.914,button_right_test,0,46,46,118,1
,,,,,,,,,,,,,,,,,5c9bfbfa325c3d001ad360a8,26,2022-02-12_13h16.43.021,lexical_decision_task_DD_L6,2021.2.3,iPhone,58.82352941,,,,,,,,,,0.63,1,,,,,,,,,,,,,,,,,,,,,,,0.242857143,-0.33622449,1,0,0,,,,,,,BUTTER,LB,m,y,./images/BUTTERLB.png,,,,,,,,,,,,,,,,,,,,,0,0.242857143,-0.33622449,1,0,0,0.63,button_right_test,0,47,47,27,1
,,,,,,,,,,,,,,,,,5c9bfbfa325c3d001ad360a8,26,2022-02-12_13h16.43.021,lexical_decision_task_DD_L6,2021.2.3,iPhone,58.82352941,,,,,,,,,,0.93,1,,,,,,,,,,,,,,,,,,,,,,,0.226530612,-0.343367347,1,0,0,,,,,,,CRATER,LB,m,y,./images/CRATERLB.png,,,,,,,,,,,,,,,,,,,,,0,0.226530612,-0.343367347,1,0,0,0.93,button_right_test,0,48,48,3,1
,,,,,,,,,,,,,,,,,5c9bfbfa325c3d001ad360a8,26,2022-02-12_13h16.43.021,lexical_decision_task_DD_L6,2021.2.3,iPhone,58.82352941,,,,,,,,,,0.894,1,,,,,,,,,,,,,,,,,,,,,,,-0.290816327,-0.319897959,1,0,0,,,,,,,SUNSET,C,z,y,./images/SUNSET.png,,,,,,,,,,,,,,,,,,,,,0,-0.290816327,-0.319897959,1,0,0,0.894,button_left_test,0,49,49,166,1
,,,,,,,,,,,,,,,,,5c9bfbfa325c3d001ad360a8,26,2022-02-12_13h16.43.021,lexical_decision_task_DD_L6,2021.2.3,iPhone,58.82352941,,,,,,,,,,0.676,1,,,,,,,,,,,,,,,,,,,,,,,0.270408163,-0.322959184,1,0,0,,,,,,,WHISKY,HB,m,y,./images/WHISKYHB.png,,,,,,,,,,,,,,,,,,,,,0,0.270408163,-0.322959184,1,0,0,0.676,button_right_test,0,50,50,83,1
,,,,,,,,,,,,,,,,,5c9bfbfa325c3d001ad360a8,26,2022-02-12_13h16.43.021,lexical_decision_task_DD_L6,2021.2.3,iPhone,58.82352941,,,,,,,,,,0.693,1,,,,,,,,,,,,,,,,,,,,,,,0.262244898,-0.341326531,1,0,0,,,,,,,CLOTH,HB,m,y,./images/CLOTHHB.png,,,,,,,,,,,,,,,,,,,,,0,0.262244898,-0.341326531,1,0,0,0.693,button_right_test,0,51,51,23,1
,,,,,,,,,,,,,,,,,5c9bfbfa325c3d001ad360a8,26,2022-02-12_13h16.43.021,lexical_decision_task_DD_L6,2021.2.3,iPhone,58.82352941,,,,,,,,,,0.843,1,,,,,,,,,,,,,,,,,,,,,,,0.244897959,-0.322959184,1,0,0,,,,,,,WAGON,C,m,y,./images/WAGON.png,,,,,,,,,,,,,,,,,,,,,0,0.244897959,-0.322959184,1,0,0,0.843,button_right_test,0,52,52,7,1
,,,,,,,,,,,,,,,,,5c9bfbfa325c3d001ad360a8,26,2022-02-12_13h16.43.021,lexical_decision_task_DD_L6,2021.2.3,iPhone,58.82352941,,,,,,,,,,0.904,0,,,,,,,,,,,,,,,,,,,,,,,-0.298979592,-0.346428571,1,0,0,,,,,,,ENGINE,HB,m,y,./images/ENGINEHB.png,,,,,,,,,,,,,,,,,,,,,0,-0.298979592,-0.346428571,1,0,0,0.904,button_left_test,0,53,53,38,1
,,,,,,,,,,,,,,,,,5c9bfbfa325c3d001ad360a8,26,2022-02-12_13h16.43.021,lexical_decision_task_DD_L6,2021.2.3,iPhone,58.82352941,,,,,,,,,,0.825,1,,,,,,,,,,,,,,,,,,,,,,,0.295918367,-0.311734694,1,0,0,,,,,,,CHALK,C,m,y,./images/CHALK.png,,,,,,,,,,,,,,,,,,,,,0,0.295918367,-0.311734694,1,0,0,0.825,button_right_test,0,54,54,25,1
,,,,,,,,,,,,,,,,,5c9bfbfa325c3d001ad360a8,26,2022-02-12_13h16.43.021,lexical_decision_task_DD_L6,2021.2.3,iPhone,58.82352941,,,,,,,,,,1.144,1,,,,,,,,,,,,,,,,,,,,,,,-0.266326531,-0.340306122,1,0,0,,,,,,,LADDER,HB,z,y,./images/LADDERHB.png,,,,,,,,,,,,,,,,,,,,,0,-0.266326531,-0.340306122,1,0,0,1.144,button_left_test,0,55,55,122,1
,,,,,,,,,,,,,,,,,5c9bfbfa325c3d001ad360a8,26,2022-02-12_13h16.43.021,lexical_decision_task_DD_L6,2021.2.3,iPhone,58.82352941,,,,,,,,,,0.662,1,,,,,,,,,,,,,,,,,,,,,,,0.23877551,-0.323979592,1,0,0,,,,,,,HAMMER,LB,m,y,./images/HAMMERLB.png,,,,,,,,,,,,,,,,,,,,,0,0.23877551,-0.323979592,1,0,0,0.662,button_right_test,0,56,56,75,1
,,,,,,,,,,,,,,,,,5c9bfbfa325c3d001ad360a8,26,2022-02-12_13h16.43.021,lexical_decision_task_DD_L6,2021.2.3,iPhone,58.82352941,,,,,,,,,,0.977,1,,,,,,,,,,,,,,,,,,,,,,,0.262244898,-0.35255102,1,0,0,,,,,,,GARDEN,C,m,y,./images/GARDEN.png,,,,,,,,,,,,,,,,,,,,,0,0.262244898,-0.35255102,1,0,0,0.977,button_right_test,0,57,57,10,1
,,,,,,,,,,,,,,,,,5c9bfbfa325c3d001ad360a8,26,2022-02-12_13h16.43.021,lexical_decision_task_DD_L6,2021.2.3,iPhone,58.82352941,,,,,,,,,,0.864,0,,,,,,,,,,,,,,,,,,,,,,,0.22755102,-0.365816327,1,0,0,,,,,,,MOOSE,LB,z,y,./images/MOOSELB.png,,,,,,,,,,,,,,,,,,,,,0,0.22755102,-0.365816327,1,0,0,0.864,button_right_test,0,58,58,141,1
,,,,,,,,,,,,,,,,,5c9bfbfa325c3d001ad360a8,26,2022-02-12_13h16.43.021,lexical_decision_task_DD_L6,2021.2.3,iPhone,58.82352941,,,,,,,,,,0.911,1,,,,,,,,,,,,,,,,,,,,,,,-0.28877551,-0.338265306,1,0,0,,,,,,,SKIING,HB,z,y,./images/SKIINGHB.png,,,,,,,,,,,,,,,,,,,,,0,-0.28877551,-0.338265306,1,0,0,0.911,button_left_test,0,59,59,101,1
,,,,,,,,,,,,,,,,,5c9bfbfa325c3d001ad360a8,26,2022-02-12_13h16.43.021,lexical_decision_task_DD_L6,2021.2.3,iPhone,58.82352941,,,,,,,,,,0.794,1,,,,,,,,,,,,,,,,,,,,,,,0.208163265,-0.342346939,1,0,0,,,,,,,SNAKE,C,m,y,./images/SNAKE.png,,,,,,,,,,,,,,,,,,,,,0,0.208163265,-0.342346939,1,0,0,0.794,button_right_test,0,60,60,40,1
,,,,,,,,,,,,,,,,,5c9bfbfa325c3d001ad360a8,26,2022-02-12_13h16.43.021,lexical_decision_task_DD_L6,2021.2.3,iPhone,58.82352941,,,,,,,,,,0.746,1,,,,,,,,,,,,,,,,,,,,,,,0.202040816,-0.340306122,1,0,0,,,,,,,MUMMY,C,m,y,./images/MUMMY.png,,,,,,,,,,,,,,,,,,,,,0,0.202040816,-0.340306122,1,0,0,0.746,button_right_test,0,61,61,46,1
,,,,,,,,,,,,,,,,,5c9bfbfa325c3d001ad360a8,26,2022-02-12_13h16.43.021,lexical_decision_task_DD_L6,2021.2.3,iPhone,58.82352941,,,,,,,,,,0.762,1,,,,,,,,,,,,,,,,,,,,,,,0.22244898,-0.344387755,1,0,0,,,,,,,WHEEL,HB,m,y,./images/WHEELHB.png,,,,,,,,,,,,,,,,,,,,,0,0.22244898,-0.344387755,1,0,0,0.762,button_right_test,0,62,62,77,1
,,,,,,,,,,,,,,,,,5c9bfbfa325c3d001ad360a8,26,2022-02-12_13h16.43.021,lexical_decision_task_DD_L6,2021.2.3,iPhone,58.82352941,,,,,,,,,,1.075,1,,,,,,,,,,,,,,,,,,,,,,,-0.316326531,-0.357653061,1,0,0,,,,,,,GRAIN,LB,z,y,./images/GRAINLB.png,,,,,,,,,,,,,,,,,,,,,0,-0.316326531,-0.357653061,1,0,0,1.075,button_left_test,0,63,63,159,1
,,,,,,,,,,,,,,,,,5c9bfbfa325c3d001ad360a8,26,2022-02-12_13h16.43.021,lexical_decision_task_DD_L6,2021.2.3,iPhone,58.82352941,,,,,,,,,,0.744,1,,,,,,,,,,,,,,,,,,,,,,,0.241836735,-0.322959184,1,0,0,,,,,,,TOWEL,C,m,y,./images/TOWEL.png,,,,,,,,,,,,,,,,,,,,,0,0.241836735,-0.322959184,1,0,0,0.744,button_right_test,0,64,64,1,1
,,,,,,,,,,,,,,,,,5c9bfbfa325c3d001ad360a8,26,2022-02-12_13h16.43.021,lexical_decision_task_DD_L6,2021.2.3,iPhone,58.82352941,,,,,,,,,,0.93,1,,,,,,,,,,,,,,,,,,,,,,,-0.269387755,-0.342346939,1,0,0,,,,,,,FOLDER,LB,z,y,./images/FOLDERLB.png,,,,,,,,,,,,,,,,,,,,,0,-0.269387755,-0.342346939,1,0,0,0.93,button_left_test,0,65,65,126,1
,,,,,,,,,,,,,,,,,5c9bfbfa325c3d001ad360a8,26,2022-02-12_13h16.43.021,lexical_decision_task_DD_L6,2021.2.3,iPhone,58.82352941,,,,,,,,,,1.058,0,,,,,,,,,,,,,,,,,,,,,,,-0.292857143,-0.341326531,1,0,0,,,,,,,COLLAR,LB,m,y,./images/COLLARLB.png,,,,,,,,,,,,,,,,,,,,,0,-0.292857143,-0.341326531,1,0,0,1.058,button_left_test,0,66,66,15,1
,,,,,,,,,,,,,,,,,5c9bfbfa325c3d001ad360a8,26,2022-02-12_13h16.43.021,lexical_decision_task_DD_L6,2021.2.3,iPhone,58.82352941,,,,,,,,,,0.964,1,,,,,,,,,,,,,,,,,,,,,,,-0.301020408,-0.355612245,1,0,0,,,,,,,MALLET,HB,z,y,./images/MALLETHB.png,,,,,,,,,,,,,,,,,,,,,0,-0.301020408,-0.355612245,1,0,0,0.964,button_left_test,0,67,67,134,1
,,,,,,,,,,,,,,,,,5c9bfbfa325c3d001ad360a8,26,2022-02-12_13h16.43.021,lexical_decision_task_DD_L6,2021.2.3,iPhone,58.82352941,,,,,,,,,,1.609,0,,,,,,,,,,,,,,,,,,,,,,,-0.293877551,-0.358673469,1,0,0,,,,,,,TIGER,C,m,y,./images/TIGER.png,,,,,,,,,,,,,,,,,,,,,0,-0.293877551,-0.358673469,1,0,0,1.609,button_left_test,0,68,68,37,1
,,,,,,,,,,,,,,,,,5c9bfbfa325c3d001ad360a8,26,2022-02-12_13h16.43.021,lexical_decision_task_DD_L6,2021.2.3,iPhone,58.82352941,,,,,,,,,,0.845,1,,,,,,,,,,,,,,,,,,,,,,,0.256122449,-0.329081633,1,0,0,,,,,,,CHAIN,LB,m,y,./images/CHAINLB.png,,,,,,,,,,,,,,,,,,,,,0,0.256122449,-0.329081633,1,0,0,0.845,button_right_test,0,69,69,42,1
,,,,,,,,,,,,,,,,,5c9bfbfa325c3d001ad360a8,26,2022-02-12_13h16.43.021,lexical_decision_task_DD_L6,2021.2.3,iPhone,58.82352941,,,,,,,,,,0.863,1,,,,,,,,,,,,,,,,,,,,,,,-0.291836735,-0.345408163,1,0,0,,,,,,,PLANK,C,z,y,./images/PLANK.png,,,,,,,,,,,,,,,,,,,,,0,-0.291836735,-0.345408163,1,0,0,0.863,button_left_test,0,70,70,85,1
,,,,,,,,,,,,,,,,,5c9bfbfa325c3d001ad360a8,26,2022-02-12_13h16.43.021,lexical_decision_task_DD_L6,2021.2.3,iPhone,58.82352941,,,,,,,,,,0.846,1,,,,,,,,,,,,,,,,,,,,,,,-0.296938776,-0.356632653,1,0,0,,,,,,,COOKER,LB,z,y,./images/COOKERLB.png,,,,,,,,,,,,,,,,,,,,,0,-0.296938776,-0.356632653,1,0,0,0.846,button_left_test,0,71,71,153,1
,,,,,,,,,,,,,,,,,5c9bfbfa325c3d001ad360a8,26,2022-02-12_13h16.43.021,lexical_decision_task_DD_L6,2021.2.3,iPhone,58.82352941,,,,,,,,,,0.945,1,,,,,,,,,,,,,,,,,,,,,,,-0.268367347,-0.353571429,1,0,0,,,,,,,NOOSE,LB,z,y,./images/NOOSELB.png,,,,,,,,,,,,,,,,,,,,,0,-0.268367347,-0.353571429,1,0,0,0.945,button_left_test,0,72,72,156,1
,,,,,,,,,,,,,,,,,5c9bfbfa325c3d001ad360a8,26,2022-02-12_13h16.43.021,lexical_decision_task_DD_L6,2021.2.3,iPhone,58.82352941,,,,,,,,,,0.91,1,,,,,,,,,,,,,,,,,,,,,,,-0.265306122,-0.33622449,1,0,0,,,,,,,PEACH,HB,z,y,./images/PEACHHB.png,,,,,,,,,,,,,,,,,,,,,0,-0.265306122,-0.33622449,1,0,0,0.91,button_left_test,0,73,73,119,1
,,,,,,,,,,,,,,,,,5c9bfbfa325c3d001ad360a8,26,2022-02-12_13h16.43.021,lexical_decision_task_DD_L6,2021.2.3,iPhone,58.82352941,,,,,,,,,,1.092,0,,,,,,,,,,,,,,,,,,,,,,,-0.280612245,-0.367857143,1,0,0,,,,,,,CURRY,LB,m,y,./images/CURRYLB.png,,,,,,,,,,,,,,,,,,,,,0,-0.280612245,-0.367857143,1,0,0,1.092,button_left_test,0,74,74,60,1
,,,,,,,,,,,,,,,,,5c9bfbfa325c3d001ad360a8,26,2022-02-12_13h16.43.021,lexical_decision_task_DD_L6,2021.2.3,iPhone,58.82352941,,,,,,,,,,0.764,1,,,,,,,,,,,,,,,,,,,,,,,0.275510204,-0.333163265,1,0,0,,,,,,,BAKER,LB,m,y,./images/BAKERLB.png,,,,,,,,,,,,,,,,,,,,,0,0.275510204,-0.333163265,1,0,0,0.764,button_right_test,0,75,75,63,1
,,,,,,,,,,,,,,,,,5c9bfbfa325c3d001ad360a8,26,2022-02-12_13h16.43.021,lexical_decision_task_DD_L6,2021.2.3,iPhone,58.82352941,,,,,,,,,,1.76,0,,,,,,,,,,,,,,,,,,,,,,,-0.230612245,-0.337244898,1,0,0,,,,,,,ARTIST,C,m,y,./images/ARTIST.png,,,,,,,,,,,,,,,,,,,,,0,-0.230612245,-0.337244898,1,0,0,1.76,button_left_test,0,76,76,61,1
,,,,,,,,,,,,,,,,,5c9bfbfa325c3d001ad360a8,26,2022-02-12_13h16.43.021,lexical_decision_task_DD_L6,2021.2.3,iPhone,58.82352941,,,,,,,,,,0.792,0,,,,,,,,,,,,,,,,,,,,,,,0.260204082,-0.358673469,1,0,0,,,,,,,SMOKER,HB,z,y,./images/SMOKERHB.png,,,,,,,,,,,,,,,,,,,,,0,0.260204082,-0.358673469,1,0,0,0.792,button_right_test,0,77,77,110,1
,,,,,,,,,,,,,,,,,5c9bfbfa325c3d001ad360a8,26,2022-02-12_13h16.43.021,lexical_decision_task_DD_L6,2021.2.3,iPhone,58.82352941,,,,,,,,,,1.077,1,,,,,,,,,,,,,,,,,,,,,,,-0.273469388,-0.34744898,1,0,0,,,,,,,CANDLE,C,z,y,./images/CANDLE.png,,,,,,,,,,,,,,,,,,,,,0,-0.273469388,-0.34744898,1,0,0,1.077,button_left_test,0,78,78,145,1
,,,,,,,,,,,,,,,,,5c9bfbfa325c3d001ad360a8,26,2022-02-12_13h16.43.021,lexical_decision_task_DD_L6,2021.2.3,iPhone,58.82352941,,,,,,,,,,0.993,1,,,,,,,,,,,,,,,,,,,,,,,-0.31122449,-0.380102041,1,0,0,,,,,,,COUCH,HB,z,y,./images/COUCHHB.png,,,,,,,,,,,,,,,,,,,,,0,-0.31122449,-0.380102041,1,0,0,0.993,button_left_test,0,79,79,161,1
,,,,,,,,,,,,,,,,,5c9bfbfa325c3d001ad360a8,26,2022-02-12_13h16.43.021,lexical_decision_task_DD_L6,2021.2.3,iPhone,58.82352941,,,,,,,,,,0.992,0,,,,,,,,,,,,,,,,,,,,,,,0.303061224,-0.39744898,1,0,0,,,,,,,CARPET,HB,z,y,./images/CARPETHB.png,,,,,,,,,,,,,,,,,,,,,0,0.303061224,-0.39744898,1,0,0,0.992,button_right_test,0,80,80,137,1
,,,,,,,,,,,,,,,,,5c9bfbfa325c3d001ad360a8,26,2022-02-12_13h16.43.021,lexical_decision_task_DD_L6,2021.2.3,iPhone,58.82352941,,,,,,,,,,1.008,0,,,,,,,,,,,,,,,,,,,,,,,-0.269387755,-0.383163265,1,0,0,,,,,,,FERRY,LB,m,y,./images/FERRYLB.png,,,,,,,,,,,,,,,,,,,,,0,-0.269387755,-0.383163265,1,0,0,1.008,button_left_test,0,81,81,57,1
,,,,,,,,,,,,,,,,,5c9bfbfa325c3d001ad360a8,26,2022-02-12_13h16.43.021,lexical_decision_task_DD_L6,2021.2.3,iPhone,58.82352941,,,,,,,,,,0.861,1,,,,,,,,,,,,,,,,,,,,,,,-0.284693878,-0.35255102,1,0,0,,,,,,,LITTER,LB,z,y,./images/LITTERLB.png,,,,,,,,,,,,,,,,,,,,,0,-0.284693878,-0.35255102,1,0,0,0.861,button_left_test,0,82,82,162,1
,,,,,,,,,,,,,,,,,5c9bfbfa325c3d001ad360a8,26,2022-02-12_13h16.43.021,lexical_decision_task_DD_L6,2021.2.3,iPhone,58.82352941,,,,,,,,,,0.947,1,,,,,,,,,,,,,,,,,,,,,,,0.033673469,-0.405612245,1,0,0,,,,,,,MOSQUE,C,z,y,./images/MOSQUE.png,break_done_button,,,,,,,,,,,,,,,,,,,,0,-0.271428571,-0.35255102,1,0,0,0.947,button_left_test,0,83,83,127,1
,,,,,,,,,,,,,,,,,5c9bfbfa325c3d001ad360a8,26,2022-02-12_13h16.43.021,lexical_decision_task_DD_L6,2021.2.3,iPhone,58.82352941,,,,,,,,,,1.01,1,,,,,,,,,,,,,,,,,,,,,,,0.294897959,-0.373979592,1,0,0,,,,,,,DIVER,LB,m,y,./images/DIVERLB.png,,,,,,,,,,,,,,,,,,,,,0,0.294897959,-0.373979592,1,0,0,1.01,button_right_test,0,84,84,9,1
,,,,,,,,,,,,,,,,,5c9bfbfa325c3d001ad360a8,26,2022-02-12_13h16.43.021,lexical_decision_task_DD_L6,2021.2.3,iPhone,58.82352941,,,,,,,,,,0.727,1,,,,,,,,,,,,,,,,,,,,,,,0.256122449,-0.354591837,1,0,0,,,,,,,VALLEY,HB,m,y,./images/VALLEYHB.png,,,,,,,,,,,,,,,,,,,,,0,0.256122449,-0.354591837,1,0,0,0.727,button_right_test,0,85,85,68,1
,,,,,,,,,,,,,,,,,5c9bfbfa325c3d001ad360a8,26,2022-02-12_13h16.43.021,lexical_decision_task_DD_L6,2021.2.3,iPhone,58.82352941,,,,,,,,,,0.862,1,,,,,,,,,,,,,,,,,,,,,,,0.242857143,-0.357653061,1,0,0,,,,,,,BLOKE,LB,m,y,./images/BLOKELB.png,,,,,,,,,,,,,,,,,,,,,0,0.242857143,-0.357653061,1,0,0,0.862,button_right_test,0,86,86,12,1
,,,,,,,,,,,,,,,,,5c9bfbfa325c3d001ad360a8,26,2022-02-12_13h16.43.021,lexical_decision_task_DD_L6,2021.2.3,iPhone,58.82352941,,,,,,,,,,0.808,1,,,,,,,,,,,,,,,,,,,,,,,-0.274489796,-0.353571429,1,0,0,,,,,,,FALCON,C,z,y,./images/FALCON.png,,,,,,,,,,,,,,,,,,,,,0,-0.274489796,-0.353571429,1,0,0,0.808,button_left_test,0,87,87,112,1
,,,,,,,,,,,,,,,,,5c9bfbfa325c3d001ad360a8,26,2022-02-12_13h16.43.021,lexical_decision_task_DD_L6,2021.2.3,iPhone,58.82352941,,,,,,,,,,0.876,1,,,,,,,,,,,,,,,,,,,,,,,-0.269387755,-0.356632653,1,0,0,,,,,,,SWEAT,LB,z,y,./images/SWEATLB.png,,,,,,,,,,,,,,,,,,,,,0,-0.269387755,-0.356632653,1,0,0,0.876,button_left_test,0,88,88,150,1
,,,,,,,,,,,,,,,,,5c9bfbfa325c3d001ad360a8,26,2022-02-12_13h16.43.021,lexical_decision_task_DD_L6,2021.2.3,iPhone,58.82352941,,,,,,,,,,0.744,1,,,,,,,,,,,,,,,,,,,,,,,0.239795918,-0.333163265,1,0,0,,,,,,,STREAM,HB,m,y,./images/STREAMHB.png,,,,,,,,,,,,,,,,,,,,,0,0.239795918,-0.333163265,1,0,0,0.744,button_right_test,0,89,89,41,1
,,,,,,,,,,,,,,,,,5c9bfbfa325c3d001ad360a8,26,2022-02-12_13h16.43.021,lexical_decision_task_DD_L6,2021.2.3,iPhone,58.82352941,,,,,,,,,,0.797,1,,,,,,,,,,,,,,,,,,,,,,,-0.301020408,-0.368877551,1,0,0,,,,,,,SAILOR,C,z,y,./images/SAILOR.png,,,,,,,,,,,,,,,,,,,,,0,-0.301020408,-0.368877551,1,0,0,0.797,button_left_test,0,90,90,151,1
,,,,,,,,,,,,,,,,,5c9bfbfa325c3d001ad360a8,26,2022-02-12_13h16.43.021,lexical_decision_task_DD_L6,2021.2.3,iPhone,58.82352941,,,,,,,,,,0.827,1,,,,,,,,,,,,,,,,,,,,,,,0.283673469,-0.322959184,1,0,0,,,,,,,SPINE,HB,m,y,./images/SPINEHB.png,,,,,,,,,,,,,,,,,,,,,0,0.283673469,-0.322959184,1,0,0,0.827,button_right_test,0,91,91,65,1
,,,,,,,,,,,,,,,,,5c9bfbfa325c3d001ad360a8,26,2022-02-12_13h16.43.021,lexical_decision_task_DD_L6,2021.2.3,iPhone,58.82352941,,,,,,,,,,0.726,1,,,,,,,,,,,,,,,,,,,,,,,0.263265306,-0.344387755,1,0,0,,,,,,,BOXER,C,m,y,./images/BOXER.png,,,,,,,,,,,,,,,,,,,,,0,0.263265306,-0.344387755,1,0,0,0.726,button_right_test,0,92,92,4,1
,,,,,,,,,,,,,,,,,5c9bfbfa325c3d001ad360a8,26,2022-02-12_13h16.43.021,lexical_decision_task_DD_L6,2021.2.3,iPhone,58.82352941,,,,,,,,,,0.648,1,,,,,,,,,,,,,,,,,,,,,,,0.27755102,-0.344387755,1,0,0,,,,,,,RAZOR,C,m,y,./images/RAZOR.png,,,,,,,,,,,,,,,,,,,,,0,0.27755102,-0.344387755,1,0,0,0.648,button_right_test,0,93,93,34,1
,,,,,,,,,,,,,,,,,5c9bfbfa325c3d001ad360a8,26,2022-02-12_13h16.43.021,lexical_decision_task_DD_L6,2021.2.3,iPhone,58.82352941,,,,,,,,,,2.933,1,,,,,,,,,,,,,,,,,,,,,,,0.256122449,-0.299489796,1,0,0,,,,,,,BUBBLE,HB,m,y,./images/BUBBLEHB.png,,,,,,,,,,,,,,,,,,,,,0,0.256122449,-0.299489796,1,0,0,2.933,button_right_test,0,94,94,71,1
,,,,,,,,,,,,,,,,,5c9bfbfa325c3d001ad360a8,26,2022-02-12_13h16.43.021,lexical_decision_task_DD_L6,2021.2.3,iPhone,58.82352941,,,,,,,,,,0.875,1,,,,,,,,,,,,,,,,,,,,,,,0.275510204,-0.326020408,1,0,0,,,,,,,DONKEY,C,m,y,./images/DONKEY.png,,,,,,,,,,,,,,,,,,,,,0,0.275510204,-0.326020408,1,0,0,0.875,button_right_test,0,95,95,19,1
,,,,,,,,,,,,,,,,,5c9bfbfa325c3d001ad360a8,26,2022-02-12_13h16.43.021,lexical_decision_task_DD_L6,2021.2.3,iPhone,58.82352941,,,,,,,,,,0.827,1,,,,,,,,,,,,,,,,,,,,,,,0.23877551,-0.30255102,1,0,0,,,,,,,BRIDE,C,m,y,./images/BRIDE.png,,,,,,,,,,,,,,,,,,,,,0,0.23877551,-0.30255102,1,0,0,0.827,button_right_test,0,96,96,64,1
,,,,,,,,,,,,,,,,,5c9bfbfa325c3d001ad360a8,26,2022-02-12_13h16.43.021,lexical_decision_task_DD_L6,2021.2.3,iPhone,58.82352941,,,,,,,,,,1.062,0,,,,,,,,,,,,,,,,,,,,,,,-0.273469388,-0.321938776,1,0,0,,,,,,,BISHOP,C,m,y,./images/BISHOP.png,,,,,,,,,,,,,,,,,,,,,0,-0.273469388,-0.321938776,1,0,0,1.062,button_left_test,0,97,97,49,1
