key_resp.keys,instr_done_touch.x,instr_done_touch.y,instr_done_touch.leftButton,instr_done_touch.midButton,instr_done_touch.rightButton,instr_done_touch.clicked_name,instruction_pages.thisRepN,instruction_pages.thisTrialN,instruction_pages.thisN,instruction_pages.thisIndex,instruction_pages.ran,pageN,phase,instruct_text,has_image,instruct_image,participant,age,date,expName,psychopyVersion,OS,frameRate,response.keys,response.corr,touch_resp.x,touch_resp.y,touch_resp.leftButton,touch_resp.midButton,touch_resp.rightButton,touch_resp.time,touch_resp.clicked_name,rt,corr,practrials.thisRepN,practrials.thisTrialN,practrials.thisN,practrials.thisIndex,practrials.ran,TrialID,Target,corrAns,end_of_practice_trials_pages.thisRepN,end_of_practice_trials_pages.thisTrialN,end_of_practice_trials_pages.thisN,end_of_practice_trials_pages.thisIndex,end_of_practice_trials_pages.ran,key_resp_2.keys,key_resp_2.corr,targ_click.x,targ_click.y,targ_click.leftButton,targ_click.midButton,targ_click.rightButton,targ_click.time,targ_click.clicked_name,break_done_touch.x,break_done_touch.y,break_done_touch.leftButton,break_done_touch.midButton,break_done_touch.rightButton,break_done_keyboard.keys,maintrials.thisRepN,maintrials.thisTrialN,maintrials.thisN,maintrials.thisIndex,maintrials.ran,string,blur,study,lex,stim_path,break_done_touch.clicked_name,mouse_2.x,mouse_2.y,mouse_2.leftButton,mouse_2.midButton,mouse_2.rightButton,mouse_2.clicked_name,slider.response,slider.rt,trials.thisRepN,trials.thisTrialN,trials.thisN,trials.thisIndex,trials.ran,test_instructions.thisRepN,test_instructions.thisTrialN,test_instructions.thisN,test_instructions.thisIndex,test_instructions.ran,key_resp_3.keys,key_resp_3.corr,test_click.x,test_click.y,test_click.leftButton,test_click.midButton,test_click.rightButton,test_click.time,test_click.clicked_name,test_phase.thisRepN,test_phase.thisTrialN,test_phase.thisN,test_phase.thisIndex,test_phase.ran
,0.028571429,-0.38877551,1,0,0,instr_done_button,0,0,0,0,1,1,instructions,"INSTRUCTIONS
At the start of each trial, look at the plus sign  (+) in the center of the screen.  This tells you that a trial is about to begin and where to look. Second, the plus sign will disappear and a string of letters will appear. Your task is to determine if the string of letters is a word or not. If the item is a word press the M key (on keyboard)  or touch the word button (phone/tablet).  If the item is not a word,  press the  Z key (on keyboard)  or touch the nonword button (on phone/tablet). 
Press the space bar or touch  continue.",0,,5cadf2fa7e99a900171c4705,42,2022-02-12_16h48.40.333,lexical_decision_task_DD_L2,2021.2.3,iPhone,62.5,,,,,,,,,,,,,,,,,,,,,,,,,,,,,,,,,,,,,,,,,,,,,,,,,,,,,,,,,,,,,,,,,,,,,,,,,,,,,,,,,,
,0.02244898,-0.397959184,1,0,0,instr_done_button,0,1,1,1,1,2,instructions,"If your device has a keyboard, press the 'Z' key for nonwords and the 'M' key for words.





Press the space bar or touch the button below to continue.",0,keyboard-example.gif,5cadf2fa7e99a900171c4705,42,2022-02-12_16h48.40.333,lexical_decision_task_DD_L2,2021.2.3,iPhone,62.5,,,,,,,,,,,,,,,,,,,,,,,,,,,,,,,,,,,,,,,,,,,,,,,,,,,,,,,,,,,,,,,,,,,,,,,,,,,,,,,,,,
,0.074489796,-0.407142857,1,0,0,instr_done_button,0,2,2,2,1,3,instructions,"If you are using a touchscreen only device, use the buttons on the screen. Do not use the mouse.





Press the space bar or touch the button below to continue.",0,touchscreen-example.gif,5cadf2fa7e99a900171c4705,42,2022-02-12_16h48.40.333,lexical_decision_task_DD_L2,2021.2.3,iPhone,62.5,,,,,,,,,,,,,,,,,,,,,,,,,,,,,,,,,,,,,,,,,,,,,,,,,,,,,,,,,,,,,,,,,,,,,,,,,,,,,,,,,,
,0.042857143,-0.42244898,1,0,0,instr_done_button,0,3,3,3,1,4,instructions,"It is very important that you respond as quickly and accurately as possible, as each letter string will only be on the screen for two seconds. If you do not respond within this time, the message 'Too slow!' will be displayed and the experiment will progress to the next letter string. The first 20 trials will be practice trials and you will receive feedback on your answers. 

Press the space bar or touch the button below to start the practice trials.",0,,5cadf2fa7e99a900171c4705,42,2022-02-12_16h48.40.333,lexical_decision_task_DD_L2,2021.2.3,iPhone,62.5,,,,,,,,,,,,,,,,,,,,,,,,,,,,,,,,,,,,,,,,,,,,,,,,,,,,,,,,,,,,,,,,,,,,,,,,,,,,,,,,,,
,,,,,,,,,,,,,,,,,5cadf2fa7e99a900171c4705,42,2022-02-12_16h48.40.333,lexical_decision_task_DD_L2,2021.2.3,iPhone,62.5,,0,-0.345918367,-0.331632653,1,0,0,1.281,button_left,1.281,1,0,0,0,13,1,1001,ROUPET,z,,,,,,,,,,,,,,,,,,,,,,,,,,,,,,,,,,,,,,,,,,,,,,,,,,,,,,,,,,,,,,,
,,,,,,,,,,,,,,,,,5cadf2fa7e99a900171c4705,42,2022-02-12_16h48.40.333,lexical_decision_task_DD_L2,2021.2.3,iPhone,62.5,,0,0.379591837,-0.285714286,1,0,0,0.653,button_right,0.653,1,0,1,1,7,1,1001,VOLUME,m,,,,,,,,,,,,,,,,,,,,,,,,,,,,,,,,,,,,,,,,,,,,,,,,,,,,,,,,,,,,,,,
,,,,,,,,,,,,,,,,,5cadf2fa7e99a900171c4705,42,2022-02-12_16h48.40.333,lexical_decision_task_DD_L2,2021.2.3,iPhone,62.5,,0,-0.390816327,-0.293877551,1,0,0,0.913,button_left,0.913,1,0,2,2,10,1,1001,INLADE,z,,,,,,,,,,,,,,,,,,,,,,,,,,,,,,,,,,,,,,,,,,,,,,,,,,,,,,,,,,,,,,,
,,,,,,,,,,,,,,,,,5cadf2fa7e99a900171c4705,42,2022-02-12_16h48.40.333,lexical_decision_task_DD_L2,2021.2.3,iPhone,62.5,,0,0.371428571,-0.305102041,1,0,0,0.798,button_right,0.798,1,0,3,3,0,1,1001,UTOPIA,m,,,,,,,,,,,,,,,,,,,,,,,,,,,,,,,,,,,,,,,,,,,,,,,,,,,,,,,,,,,,,,,
,,,,,,,,,,,,,,,,,5cadf2fa7e99a900171c4705,42,2022-02-12_16h48.40.333,lexical_decision_task_DD_L2,2021.2.3,iPhone,62.5,,0,0.357142857,-0.297959184,1,0,0,1.425,button_right,1.425,0,0,4,4,14,1,1001,THRALE,z,,,,,,,,,,,,,,,,,,,,,,,,,,,,,,,,,,,,,,,,,,,,,,,,,,,,,,,,,,,,,,,
,,,,,,,,,,,,,,,,,5cadf2fa7e99a900171c4705,42,2022-02-12_16h48.40.333,lexical_decision_task_DD_L2,2021.2.3,iPhone,62.5,,0,-0.352040816,-0.31122449,1,0,0,0.855,button_left,0.855,1,0,5,5,11,1,1001,RASHET,z,,,,,,,,,,,,,,,,,,,,,,,,,,,,,,,,,,,,,,,,,,,,,,,,,,,,,,,,,,,,,,,
,,,,,,,,,,,,,,,,,5cadf2fa7e99a900171c4705,42,2022-02-12_16h48.40.333,lexical_decision_task_DD_L2,2021.2.3,iPhone,62.5,,0,0.373469388,-0.303061224,1,0,0,0.8,button_right,0.8,1,0,6,6,5,1,1001,OBTAIN,m,,,,,,,,,,,,,,,,,,,,,,,,,,,,,,,,,,,,,,,,,,,,,,,,,,,,,,,,,,,,,,,
,,,,,,,,,,,,,,,,,5cadf2fa7e99a900171c4705,42,2022-02-12_16h48.40.333,lexical_decision_task_DD_L2,2021.2.3,iPhone,62.5,,0,0.37755102,-0.292857143,1,0,0,0.638,button_right,0.638,1,0,7,7,2,1,1001,ALMOND,m,,,,,,,,,,,,,,,,,,,,,,,,,,,,,,,,,,,,,,,,,,,,,,,,,,,,,,,,,,,,,,,
,,,,,,,,,,,,,,,,,5cadf2fa7e99a900171c4705,42,2022-02-12_16h48.40.333,lexical_decision_task_DD_L2,2021.2.3,iPhone,62.5,,0,0.382653061,-0.298979592,1,0,0,0.663,button_right,0.663,1,0,8,8,4,1,1001,SQUEAK,m,,,,,,,,,,,,,,,,,,,,,,,,,,,,,,,,,,,,,,,,,,,,,,,,,,,,,,,,,,,,,,,
,,,,,,,,,,,,,,,,,5cadf2fa7e99a900171c4705,42,2022-02-12_16h48.40.333,lexical_decision_task_DD_L2,2021.2.3,iPhone,62.5,,0,0.385714286,-0.293877551,1,0,0,0.673,button_right,0.673,1,0,9,9,1,1,1001,ADJUST,m,,,,,,,,,,,,,,,,,,,,,,,,,,,,,,,,,,,,,,,,,,,,,,,,,,,,,,,,,,,,,,,
,,,,,,,,,,,,,,,,,5cadf2fa7e99a900171c4705,42,2022-02-12_16h48.40.333,lexical_decision_task_DD_L2,2021.2.3,iPhone,62.5,,0,0.401020408,-0.294897959,1,0,0,0.693,button_right,0.693,1,0,10,10,3,1,1001,MATRIX,m,,,,,,,,,,,,,,,,,,,,,,,,,,,,,,,,,,,,,,,,,,,,,,,,,,,,,,,,,,,,,,,
,,,,,,,,,,,,,,,,,5cadf2fa7e99a900171c4705,42,2022-02-12_16h48.40.333,lexical_decision_task_DD_L2,2021.2.3,iPhone,62.5,,0,-0.371428571,-0.313265306,1,0,0,0.582,button_left,0.582,1,0,11,11,12,1,1001,SPRINY,z,,,,,,,,,,,,,,,,,,,,,,,,,,,,,,,,,,,,,,,,,,,,,,,,,,,,,,,,,,,,,,,
,,,,,,,,,,,,,,,,,5cadf2fa7e99a900171c4705,42,2022-02-12_16h48.40.333,lexical_decision_task_DD_L2,2021.2.3,iPhone,62.5,,0,-0.373469388,-0.293877551,1,0,0,0.655,button_left,0.655,1,0,12,12,9,1,1001,FARINY,z,,,,,,,,,,,,,,,,,,,,,,,,,,,,,,,,,,,,,,,,,,,,,,,,,,,,,,,,,,,,,,,
,,,,,,,,,,,,,,,,,5cadf2fa7e99a900171c4705,42,2022-02-12_16h48.40.333,lexical_decision_task_DD_L2,2021.2.3,iPhone,62.5,,0,-0.370408163,-0.325510204,1,0,0,0.804,button_left,0.804,1,0,13,13,15,1,1001,WHAISE,z,,,,,,,,,,,,,,,,,,,,,,,,,,,,,,,,,,,,,,,,,,,,,,,,,,,,,,,,,,,,,,,
,,,,,,,,,,,,,,,,,5cadf2fa7e99a900171c4705,42,2022-02-12_16h48.40.333,lexical_decision_task_DD_L2,2021.2.3,iPhone,62.5,,0,-0.393877551,-0.307142857,1,0,0,0.822,button_left,0.822,1,0,14,14,8,1,1001,ASLERT,z,,,,,,,,,,,,,,,,,,,,,,,,,,,,,,,,,,,,,,,,,,,,,,,,,,,,,,,,,,,,,,,
,,,,,,,,,,,,,,,,,5cadf2fa7e99a900171c4705,42,2022-02-12_16h48.40.333,lexical_decision_task_DD_L2,2021.2.3,iPhone,62.5,,0,0.382653061,-0.3,1,0,0,0.765,button_right,0.765,1,0,15,15,6,1,1001,ZOMBIE,m,,,,,,,,,,,,,,,,,,,,,,,,,,,,,,,,,,,,,,,,,,,,,,,,,,,,,,,,,,,,,,,
,0.028571429,-0.397959184,1,0,0,instr_done_button,,,,,,1,end_of_practice,"You have completed the practice trials. During the experimental trials, you will not receive feedback. 
Before you begin, please ensure that you are in a comfortable and quiet location and will not be disturbed for about 15 minutes, as we cannot use your data if you do not complete all the trials. 
 When you are ready to start the experimental trials, please press space or touch the button below.",,,5cadf2fa7e99a900171c4705,42,2022-02-12_16h48.40.333,lexical_decision_task_DD_L2,2021.2.3,iPhone,62.5,,,,,,,,,,,,,,,,,,,,0,0,0,0,1,,,,,,,,,,,,,,,,,,,,,,,,,,,,,,,,,,,,,,,,,,,,,,,,,,,,,,,,,,
,,,,,,,,,,,,,,,,,5cadf2fa7e99a900171c4705,42,2022-02-12_16h48.40.333,lexical_decision_task_DD_L2,2021.2.3,iPhone,62.5,,,,,,,,,,1.958,1,,,,,,,,,,,,,,,0,-0.369387755,-0.332653061,1,0,0,1.958,button_left_main,-0.369387755,-0.332653061,1,0,0,,0,0,0,88,1,GLUSH,HB,old,z,./images/GLUSHHB.png,,,,,,,,,,,,,,,,,,,,,,,,,,,,,,,,,
,,,,,,,,,,,,,,,,,5cadf2fa7e99a900171c4705,42,2022-02-12_16h48.40.333,lexical_decision_task_DD_L2,2021.2.3,iPhone,62.5,,,,,,,,,,0.889,1,,,,,,,,,,,,,,,0,-0.391836735,-0.297959184,1,0,0,0.889,button_left_main,-0.391836735,-0.297959184,1,0,0,,0,1,1,165,1,TROWN,C,old,z,./images/TROWN.png,,,,,,,,,,,,,,,,,,,,,,,,,,,,,,,,,
,,,,,,,,,,,,,,,,,5cadf2fa7e99a900171c4705,42,2022-02-12_16h48.40.333,lexical_decision_task_DD_L2,2021.2.3,iPhone,62.5,,,,,,,,,,0.945,1,,,,,,,,,,,,,,,0,-0.374489796,-0.319387755,1,0,0,0.945,button_left_main,-0.374489796,-0.319387755,1,0,0,,0,2,2,109,1,BURGE,HB,old,z,./images/BURGEHB.png,,,,,,,,,,,,,,,,,,,,,,,,,,,,,,,,,
,,,,,,,,,,,,,,,,,5cadf2fa7e99a900171c4705,42,2022-02-12_16h48.40.333,lexical_decision_task_DD_L2,2021.2.3,iPhone,62.5,,,,,,,,,,1.015,1,,,,,,,,,,,,,,,0,-0.373469388,-0.319387755,1,0,0,1.015,button_left_main,-0.373469388,-0.319387755,1,0,0,,0,3,3,127,1,NINDY,HB,old,z,./images/NINDYHB.png,,,,,,,,,,,,,,,,,,,,,,,,,,,,,,,,,
,,,,,,,,,,,,,,,,,5cadf2fa7e99a900171c4705,42,2022-02-12_16h48.40.333,lexical_decision_task_DD_L2,2021.2.3,iPhone,62.5,,,,,,,,,,0.701,1,,,,,,,,,,,,,,,0,0.371428571,-0.275510204,1,0,0,0.701,button_right_main,0.371428571,-0.275510204,1,0,0,,0,4,4,24,1,SCREW,HB,old,m,./images/SCREWHB.png,,,,,,,,,,,,,,,,,,,,,,,,,,,,,,,,,
,,,,,,,,,,,,,,,,,5cadf2fa7e99a900171c4705,42,2022-02-12_16h48.40.333,lexical_decision_task_DD_L2,2021.2.3,iPhone,62.5,,,,,,,,,,0.821,1,,,,,,,,,,,,,,,0,-0.367346939,-0.314285714,1,0,0,0.821,button_left_main,-0.367346939,-0.314285714,1,0,0,,0,5,5,92,1,PAIMS,LB,old,z,./images/PAIMSLB.png,,,,,,,,,,,,,,,,,,,,,,,,,,,,,,,,,
,,,,,,,,,,,,,,,,,5cadf2fa7e99a900171c4705,42,2022-02-12_16h48.40.333,lexical_decision_task_DD_L2,2021.2.3,iPhone,62.5,,,,,,,,,,0.854,1,,,,,,,,,,,,,,,0,-0.366326531,-0.310204082,1,0,0,0.854,button_left_main,-0.366326531,-0.310204082,1,0,0,,0,6,6,84,1,HAXES,C,old,z,./images/HAXES.png,,,,,,,,,,,,,,,,,,,,,,,,,,,,,,,,,
,,,,,,,,,,,,,,,,,5cadf2fa7e99a900171c4705,42,2022-02-12_16h48.40.333,lexical_decision_task_DD_L2,2021.2.3,iPhone,62.5,,,,,,,,,,0.789,1,,,,,,,,,,,,,,,0,0.370408163,-0.284693878,1,0,0,0.789,button_right_main,0.370408163,-0.284693878,1,0,0,,0,7,7,20,1,CRADLE,C,old,m,./images/CRADLE.png,,,,,,,,,,,,,,,,,,,,,,,,,,,,,,,,,
,,,,,,,,,,,,,,,,,5cadf2fa7e99a900171c4705,42,2022-02-12_16h48.40.333,lexical_decision_task_DD_L2,2021.2.3,iPhone,62.5,,,,,,,,,,0.681,1,,,,,,,,,,,,,,,0,0.387755102,-0.294897959,1,0,0,0.681,button_right_main,0.387755102,-0.294897959,1,0,0,,0,8,8,10,1,BELLY,LB,old,m,./images/BELLYLB.png,,,,,,,,,,,,,,,,,,,,,,,,,,,,,,,,,
,,,,,,,,,,,,,,,,,5cadf2fa7e99a900171c4705,42,2022-02-12_16h48.40.333,lexical_decision_task_DD_L2,2021.2.3,iPhone,62.5,,,,,,,,,,0.684,1,,,,,,,,,,,,,,,0,0.374489796,-0.292857143,1,0,0,0.684,button_right_main,0.374489796,-0.292857143,1,0,0,,0,9,9,52,1,BANNER,LB,old,m,./images/BANNERLB.png,,,,,,,,,,,,,,,,,,,,,,,,,,,,,,,,,
,,,,,,,,,,,,,,,,,5cadf2fa7e99a900171c4705,42,2022-02-12_16h48.40.333,lexical_decision_task_DD_L2,2021.2.3,iPhone,62.5,,,,,,,,,,0.593,1,,,,,,,,,,,,,,,0,0.385714286,-0.289795918,1,0,0,0.593,button_right_main,0.385714286,-0.289795918,1,0,0,,0,10,10,5,1,PASTA,C,old,m,./images/PASTA.png,,,,,,,,,,,,,,,,,,,,,,,,,,,,,,,,,
,,,,,,,,,,,,,,,,,5cadf2fa7e99a900171c4705,42,2022-02-12_16h48.40.333,lexical_decision_task_DD_L2,2021.2.3,iPhone,62.5,,,,,,,,,,0.735,1,,,,,,,,,,,,,,,0,-0.359183673,-0.333673469,1,0,0,0.735,button_left_main,-0.359183673,-0.333673469,1,0,0,,0,11,11,160,1,VEETS,HB,old,z,./images/VEETSHB.png,,,,,,,,,,,,,,,,,,,,,,,,,,,,,,,,,
,,,,,,,,,,,,,,,,,5cadf2fa7e99a900171c4705,42,2022-02-12_16h48.40.333,lexical_decision_task_DD_L2,2021.2.3,iPhone,62.5,,,,,,,,,,0.698,1,,,,,,,,,,,,,,,0,-0.359183673,-0.291836735,1,0,0,0.698,button_left_main,-0.359183673,-0.291836735,1,0,0,,0,12,12,137,1,JOOST,LB,old,z,./images/JOOSTLB.png,,,,,,,,,,,,,,,,,,,,,,,,,,,,,,,,,
,,,,,,,,,,,,,,,,,5cadf2fa7e99a900171c4705,42,2022-02-12_16h48.40.333,lexical_decision_task_DD_L2,2021.2.3,iPhone,62.5,,,,,,,,,,0.64,1,,,,,,,,,,,,,,,0,0.382653061,-0.281632653,1,0,0,0.64,button_right_main,0.382653061,-0.281632653,1,0,0,,0,13,13,4,1,MUSCLE,LB,old,m,./images/MUSCLELB.png,,,,,,,,,,,,,,,,,,,,,,,,,,,,,,,,,
,,,,,,,,,,,,,,,,,5cadf2fa7e99a900171c4705,42,2022-02-12_16h48.40.333,lexical_decision_task_DD_L2,2021.2.3,iPhone,62.5,,,,,,,,,,0.634,1,,,,,,,,,,,,,,,0,-0.36122449,-0.342857143,1,0,0,0.634,button_left_main,-0.36122449,-0.342857143,1,0,0,,0,14,14,131,1,NACES,LB,old,z,./images/NACESLB.png,,,,,,,,,,,,,,,,,,,,,,,,,,,,,,,,,
,,,,,,,,,,,,,,,,,5cadf2fa7e99a900171c4705,42,2022-02-12_16h48.40.333,lexical_decision_task_DD_L2,2021.2.3,iPhone,62.5,,,,,,,,,,0.983,1,,,,,,,,,,,,,,,0,-0.363265306,-0.291836735,1,0,0,0.983,button_left_main,-0.363265306,-0.291836735,1,0,0,,0,15,15,151,1,TINKY,HB,old,z,./images/TINKYHB.png,,,,,,,,,,,,,,,,,,,,,,,,,,,,,,,,,
,,,,,,,,,,,,,,,,,5cadf2fa7e99a900171c4705,42,2022-02-12_16h48.40.333,lexical_decision_task_DD_L2,2021.2.3,iPhone,62.5,,,,,,,,,,1.049,1,,,,,,,,,,,,,,,0,-0.363265306,-0.316326531,1,0,0,1.049,button_left_main,-0.363265306,-0.316326531,1,0,0,,0,16,16,154,1,THINT,HB,old,z,./images/THINTHB.png,,,,,,,,,,,,,,,,,,,,,,,,,,,,,,,,,
,,,,,,,,,,,,,,,,,5cadf2fa7e99a900171c4705,42,2022-02-12_16h48.40.333,lexical_decision_task_DD_L2,2021.2.3,iPhone,62.5,,,,,,,,,,0.738,1,,,,,,,,,,,,,,,0,0.383673469,-0.290816327,1,0,0,0.738,button_right_main,0.383673469,-0.290816327,1,0,0,,0,17,17,27,1,ATTIC,HB,old,m,./images/ATTICHB.png,,,,,,,,,,,,,,,,,,,,,,,,,,,,,,,,,
,,,,,,,,,,,,,,,,,5cadf2fa7e99a900171c4705,42,2022-02-12_16h48.40.333,lexical_decision_task_DD_L2,2021.2.3,iPhone,62.5,,,,,,,,,,0.716,1,,,,,,,,,,,,,,,0,0.396938776,-0.290816327,1,0,0,0.716,button_right_main,0.396938776,-0.290816327,1,0,0,,0,18,18,37,1,BIRTH,LB,old,m,./images/BIRTHLB.png,,,,,,,,,,,,,,,,,,,,,,,,,,,,,,,,,
,,,,,,,,,,,,,,,,,5cadf2fa7e99a900171c4705,42,2022-02-12_16h48.40.333,lexical_decision_task_DD_L2,2021.2.3,iPhone,62.5,,,,,,,,,,0.656,1,,,,,,,,,,,,,,,0,-0.370408163,-0.314285714,1,0,0,0.656,button_left_main,-0.370408163,-0.314285714,1,0,0,,0,19,19,93,1,SMONE,C,old,z,./images/SMONE.png,,,,,,,,,,,,,,,,,,,,,,,,,,,,,,,,,
,,,,,,,,,,,,,,,,,5cadf2fa7e99a900171c4705,42,2022-02-12_16h48.40.333,lexical_decision_task_DD_L2,2021.2.3,iPhone,62.5,,,,,,,,,,1.089,1,,,,,,,,,,,,,,,0,-0.353061224,-0.31122449,1,0,0,1.089,button_left_main,-0.353061224,-0.31122449,1,0,0,,0,20,20,110,1,CRUNK,LB,old,z,./images/CRUNKLB.png,,,,,,,,,,,,,,,,,,,,,,,,,,,,,,,,,
,,,,,,,,,,,,,,,,,5cadf2fa7e99a900171c4705,42,2022-02-12_16h48.40.333,lexical_decision_task_DD_L2,2021.2.3,iPhone,62.5,,,,,,,,,,0.626,1,,,,,,,,,,,,,,,0,0.390816327,-0.285714286,1,0,0,0.626,button_right_main,0.390816327,-0.285714286,1,0,0,,0,21,21,8,1,TULIP,C,old,m,./images/TULIP.png,,,,,,,,,,,,,,,,,,,,,,,,,,,,,,,,,
,,,,,,,,,,,,,,,,,5cadf2fa7e99a900171c4705,42,2022-02-12_16h48.40.333,lexical_decision_task_DD_L2,2021.2.3,iPhone,62.5,,,,,,,,,,0.598,1,,,,,,,,,,,,,,,0,-0.355102041,-0.333673469,1,0,0,0.598,button_left_main,-0.355102041,-0.333673469,1,0,0,,0,22,22,102,1,DULLE,C,old,z,./images/DULLE.png,,,,,,,,,,,,,,,,,,,,,,,,,,,,,,,,,
,,,,,,,,,,,,,,,,,5cadf2fa7e99a900171c4705,42,2022-02-12_16h48.40.333,lexical_decision_task_DD_L2,2021.2.3,iPhone,62.5,,,,,,,,,,0.652,1,,,,,,,,,,,,,,,0,-0.347959184,-0.323469388,1,0,0,0.652,button_left_main,-0.347959184,-0.323469388,1,0,0,,0,23,23,153,1,CLUPS,C,old,z,./images/CLUPS.png,,,,,,,,,,,,,,,,,,,,,,,,,,,,,,,,,
,,,,,,,,,,,,,,,,,5cadf2fa7e99a900171c4705,42,2022-02-12_16h48.40.333,lexical_decision_task_DD_L2,2021.2.3,iPhone,62.5,,,,,,,,,,0.749,1,,,,,,,,,,,,,,,0,-0.353061224,-0.319387755,1,0,0,0.749,button_left_main,-0.353061224,-0.319387755,1,0,0,,0,24,24,89,1,DRIEK,LB,old,z,./images/DRIEKLB.png,,,,,,,,,,,,,,,,,,,,,,,,,,,,,,,,,
,,,,,,,,,,,,,,,,,5cadf2fa7e99a900171c4705,42,2022-02-12_16h48.40.333,lexical_decision_task_DD_L2,2021.2.3,iPhone,62.5,,,,,,,,,,0.816,1,,,,,,,,,,,,,,,0,0.412244898,-0.292857143,1,0,0,0.816,button_right_main,0.412244898,-0.292857143,1,0,0,,0,25,25,6,1,SQUARE,HB,old,m,./images/SQUAREHB.png,,,,,,,,,,,,,,,,,,,,,,,,,,,,,,,,,
,,,,,,,,,,,,,,,,,5cadf2fa7e99a900171c4705,42,2022-02-12_16h48.40.333,lexical_decision_task_DD_L2,2021.2.3,iPhone,62.5,,,,,,,,,,0.658,1,,,,,,,,,,,,,,,0,0.398979592,-0.278571429,1,0,0,0.658,button_right_main,0.398979592,-0.278571429,1,0,0,,0,26,26,53,1,CARPET,C,old,m,./images/CARPET.png,,,,,,,,,,,,,,,,,,,,,,,,,,,,,,,,,
,,,,,,,,,,,,,,,,,5cadf2fa7e99a900171c4705,42,2022-02-12_16h48.40.333,lexical_decision_task_DD_L2,2021.2.3,iPhone,62.5,,,,,,,,,,0.632,1,,,,,,,,,,,,,,,0,0.4,-0.287755102,1,0,0,0.632,button_right_main,0.4,-0.287755102,1,0,0,,0,27,27,39,1,SHELF,HB,old,m,./images/SHELFHB.png,,,,,,,,,,,,,,,,,,,,,,,,,,,,,,,,,
,,,,,,,,,,,,,,,,,5cadf2fa7e99a900171c4705,42,2022-02-12_16h48.40.333,lexical_decision_task_DD_L2,2021.2.3,iPhone,62.5,,,,,,,,,,0.67,1,,,,,,,,,,,,,,,0,-0.37755102,-0.285714286,1,0,0,0.67,button_left_main,-0.37755102,-0.285714286,1,0,0,,0,28,28,86,1,AIFED,LB,old,z,./images/AIFEDLB.png,,,,,,,,,,,,,,,,,,,,,,,,,,,,,,,,,
,,,,,,,,,,,,,,,,,5cadf2fa7e99a900171c4705,42,2022-02-12_16h48.40.333,lexical_decision_task_DD_L2,2021.2.3,iPhone,62.5,,,,,,,,,,0.665,1,,,,,,,,,,,,,,,0,0.383673469,-0.284693878,1,0,0,0.665,button_right_main,0.383673469,-0.284693878,1,0,0,,0,29,29,60,1,TWINS,HB,old,m,./images/TWINSHB.png,,,,,,,,,,,,,,,,,,,,,,,,,,,,,,,,,
,,,,,,,,,,,,,,,,,5cadf2fa7e99a900171c4705,42,2022-02-12_16h48.40.333,lexical_decision_task_DD_L2,2021.2.3,iPhone,62.5,,,,,,,,,,0.598,1,,,,,,,,,,,,,,,0,-0.366326531,-0.333673469,1,0,0,0.598,button_left_main,-0.366326531,-0.333673469,1,0,0,,0,30,30,129,1,PRANS,C,old,z,./images/PRANS.png,,,,,,,,,,,,,,,,,,,,,,,,,,,,,,,,,
,,,,,,,,,,,,,,,,,5cadf2fa7e99a900171c4705,42,2022-02-12_16h48.40.333,lexical_decision_task_DD_L2,2021.2.3,iPhone,62.5,,,,,,,,,,0.719,1,,,,,,,,,,,,,,,0,0.383673469,-0.265306122,1,0,0,0.719,button_right_main,0.383673469,-0.265306122,1,0,0,,0,31,31,47,1,BERRY,C,old,m,./images/BERRY.png,,,,,,,,,,,,,,,,,,,,,,,,,,,,,,,,,
,,,,,,,,,,,,,,,,,5cadf2fa7e99a900171c4705,42,2022-02-12_16h48.40.333,lexical_decision_task_DD_L2,2021.2.3,iPhone,62.5,,,,,,,,,,0.716,1,,,,,,,,,,,,,,,0,-0.371428571,-0.316326531,1,0,0,0.716,button_left_main,-0.371428571,-0.316326531,1,0,0,,0,32,32,164,1,SGREW,LB,old,z,./images/SGREWLB.png,,,,,,,,,,,,,,,,,,,,,,,,,,,,,,,,,
,,,,,,,,,,,,,,,,,5cadf2fa7e99a900171c4705,42,2022-02-12_16h48.40.333,lexical_decision_task_DD_L2,2021.2.3,iPhone,62.5,,,,,,,,,,0.687,1,,,,,,,,,,,,,,,0,0.395918367,-0.293877551,1,0,0,0.687,button_right_main,0.395918367,-0.293877551,1,0,0,,0,33,33,12,1,SHORE,HB,old,m,./images/SHOREHB.png,,,,,,,,,,,,,,,,,,,,,,,,,,,,,,,,,
,,,,,,,,,,,,,,,,,5cadf2fa7e99a900171c4705,42,2022-02-12_16h48.40.333,lexical_decision_task_DD_L2,2021.2.3,iPhone,62.5,,,,,,,,,,0.575,1,,,,,,,,,,,,,,,0,0.389795918,-0.267346939,1,0,0,0.575,button_right_main,0.389795918,-0.267346939,1,0,0,,0,34,34,22,1,MELON,LB,old,m,./images/MELONLB.png,,,,,,,,,,,,,,,,,,,,,,,,,,,,,,,,,
,,,,,,,,,,,,,,,,,5cadf2fa7e99a900171c4705,42,2022-02-12_16h48.40.333,lexical_decision_task_DD_L2,2021.2.3,iPhone,62.5,,,,,,,,,,0.569,1,,,,,,,,,,,,,,,0,-0.367346939,-0.325510204,1,0,0,0.569,button_left_main,-0.367346939,-0.325510204,1,0,0,,0,35,35,147,1,ZOLES,C,old,z,./images/ZOLES.png,,,,,,,,,,,,,,,,,,,,,,,,,,,,,,,,,
,,,,,,,,,,,,,,,,,5cadf2fa7e99a900171c4705,42,2022-02-12_16h48.40.333,lexical_decision_task_DD_L2,2021.2.3,iPhone,62.5,,,,,,,,,,0.914,1,,,,,,,,,,,,,,,0,-0.36122449,-0.319387755,1,0,0,0.914,button_left_main,-0.36122449,-0.319387755,1,0,0,,0,36,36,148,1,JOMS,HB,old,z,./images/JOMSHB.png,,,,,,,,,,,,,,,,,,,,,,,,,,,,,,,,,
,,,,,,,,,,,,,,,,,5cadf2fa7e99a900171c4705,42,2022-02-12_16h48.40.333,lexical_decision_task_DD_L2,2021.2.3,iPhone,62.5,,,,,,,,,,0.681,1,,,,,,,,,,,,,,,0,-0.354081633,-0.340816327,1,0,0,0.681,button_left_main,-0.354081633,-0.340816327,1,0,0,,0,37,37,145,1,LAMEL,HB,old,z,./images/LAMELHB.png,,,,,,,,,,,,,,,,,,,,,,,,,,,,,,,,,
,,,,,,,,,,,,,,,,,5cadf2fa7e99a900171c4705,42,2022-02-12_16h48.40.333,lexical_decision_task_DD_L2,2021.2.3,iPhone,62.5,,,,,,,,,,0.751,1,,,,,,,,,,,,,,,0,-0.357142857,-0.343877551,1,0,0,0.751,button_left_main,-0.357142857,-0.343877551,1,0,0,,0,38,38,90,1,NEAST,C,old,z,./images/NEAST.png,,,,,,,,,,,,,,,,,,,,,,,,,,,,,,,,,
,,,,,,,,,,,,,,,,,5cadf2fa7e99a900171c4705,42,2022-02-12_16h48.40.333,lexical_decision_task_DD_L2,2021.2.3,iPhone,62.5,,,,,,,,,,0.718,1,,,,,,,,,,,,,,,0,-0.35,-0.342857143,1,0,0,0.718,button_left_main,-0.35,-0.342857143,1,0,0,,0,39,39,119,1,PAFER,LB,old,z,./images/PAFERLB.png,,,,,,,,,,,,,,,,,,,,,,,,,,,,,,,,,
,,,,,,,,,,,,,,,,,5cadf2fa7e99a900171c4705,42,2022-02-12_16h48.40.333,lexical_decision_task_DD_L2,2021.2.3,iPhone,62.5,,,,,,,,,,0.636,1,,,,,,,,,,,,,,,0,0.382653061,-0.291836735,1,0,0,0.636,button_right_main,0.382653061,-0.291836735,1,0,0,,0,40,40,81,1,POODLE,HB,old,m,./images/POODLEHB.png,,,,,,,,,,,,,,,,,,,,,,,,,,,,,,,,,
,,,,,,,,,,,,,,,,,5cadf2fa7e99a900171c4705,42,2022-02-12_16h48.40.333,lexical_decision_task_DD_L2,2021.2.3,iPhone,62.5,,,,,,,,,,0.695,1,,,,,,,,,,,,,,,0,-0.358163265,-0.316326531,1,0,0,0.695,button_left_main,0.070408163,-0.392857143,1,0,0,,0,41,41,106,1,CLUMS,HB,old,z,./images/CLUMSHB.png,break_done_button,,,,,,,,,,,,,,,,,,,,,,,,,,,,,,,,
,,,,,,,,,,,,,,,,,5cadf2fa7e99a900171c4705,42,2022-02-12_16h48.40.333,lexical_decision_task_DD_L2,2021.2.3,iPhone,62.5,,,,,,,,,,0.675,1,,,,,,,,,,,,,,,0,-0.364285714,-0.3,1,0,0,0.675,button_left_main,-0.364285714,-0.3,1,0,0,,0,42,42,157,1,INLER,HB,old,z,./images/INLERHB.png,,,,,,,,,,,,,,,,,,,,,,,,,,,,,,,,,
,,,,,,,,,,,,,,,,,5cadf2fa7e99a900171c4705,42,2022-02-12_16h48.40.333,lexical_decision_task_DD_L2,2021.2.3,iPhone,62.5,,,,,,,,,,0.572,1,,,,,,,,,,,,,,,0,0.366326531,-0.267346939,1,0,0,0.572,button_right_main,0.366326531,-0.267346939,1,0,0,,0,43,43,66,1,SWEAT,HB,old,m,./images/SWEATHB.png,,,,,,,,,,,,,,,,,,,,,,,,,,,,,,,,,
,,,,,,,,,,,,,,,,,5cadf2fa7e99a900171c4705,42,2022-02-12_16h48.40.333,lexical_decision_task_DD_L2,2021.2.3,iPhone,62.5,,,,,,,,,,0.734,1,,,,,,,,,,,,,,,0,-0.367346939,-0.336734694,1,0,0,0.734,button_left_main,-0.367346939,-0.336734694,1,0,0,,0,44,44,112,1,MYING,HB,old,z,./images/MYINGHB.png,,,,,,,,,,,,,,,,,,,,,,,,,,,,,,,,,
,,,,,,,,,,,,,,,,,5cadf2fa7e99a900171c4705,42,2022-02-12_16h48.40.333,lexical_decision_task_DD_L2,2021.2.3,iPhone,62.5,,,,,,,,,,0.825,1,,,,,,,,,,,,,,,0,0.374489796,-0.289795918,1,0,0,0.825,button_right_main,0.374489796,-0.289795918,1,0,0,,0,45,45,57,1,MOOSE,HB,old,m,./images/MOOSEHB.png,,,,,,,,,,,,,,,,,,,,,,,,,,,,,,,,,
,,,,,,,,,,,,,,,,,5cadf2fa7e99a900171c4705,42,2022-02-12_16h48.40.333,lexical_decision_task_DD_L2,2021.2.3,iPhone,62.5,,,,,,,,,,0.766,1,,,,,,,,,,,,,,,0,0.384693878,-0.275510204,1,0,0,0.766,button_right_main,0.384693878,-0.275510204,1,0,0,,0,46,46,59,1,BURIAL,C,old,m,./images/BURIAL.png,,,,,,,,,,,,,,,,,,,,,,,,,,,,,,,,,
,,,,,,,,,,,,,,,,,5cadf2fa7e99a900171c4705,42,2022-02-12_16h48.40.333,lexical_decision_task_DD_L2,2021.2.3,iPhone,62.5,,,,,,,,,,0.704,0,,,,,,,,,,,,,,,0,-0.382653061,-0.279591837,1,0,0,0.704,button_left_main,-0.382653061,-0.279591837,1,0,0,,0,47,47,16,1,PENCE,LB,old,m,./images/PENCELB.png,,,,,,,,,,,,,,,,,,,,,,,,,,,,,,,,,
,,,,,,,,,,,,,,,,,5cadf2fa7e99a900171c4705,42,2022-02-12_16h48.40.333,lexical_decision_task_DD_L2,2021.2.3,iPhone,62.5,,,,,,,,,,0.819,1,,,,,,,,,,,,,,,0,0.373469388,-0.292857143,1,0,0,0.819,button_right_main,0.373469388,-0.292857143,1,0,0,,0,48,48,13,1,MOTOR,LB,old,m,./images/MOTORLB.png,,,,,,,,,,,,,,,,,,,,,,,,,,,,,,,,,
,,,,,,,,,,,,,,,,,5cadf2fa7e99a900171c4705,42,2022-02-12_16h48.40.333,lexical_decision_task_DD_L2,2021.2.3,iPhone,62.5,,,,,,,,,,0.645,1,,,,,,,,,,,,,,,0,-0.351020408,-0.337755102,1,0,0,0.645,button_left_main,-0.351020408,-0.337755102,1,0,0,,0,49,49,162,1,LEICH,C,old,z,./images/LEICH.png,,,,,,,,,,,,,,,,,,,,,,,,,,,,,,,,,
,,,,,,,,,,,,,,,,,5cadf2fa7e99a900171c4705,42,2022-02-12_16h48.40.333,lexical_decision_task_DD_L2,2021.2.3,iPhone,62.5,,,,,,,,,,0.687,1,,,,,,,,,,,,,,,0,0.374489796,-0.281632653,1,0,0,0.687,button_right_main,0.374489796,-0.281632653,1,0,0,,0,50,50,44,1,LIZARD,C,old,m,./images/LIZARD.png,,,,,,,,,,,,,,,,,,,,,,,,,,,,,,,,,
,,,,,,,,,,,,,,,,,5cadf2fa7e99a900171c4705,42,2022-02-12_16h48.40.333,lexical_decision_task_DD_L2,2021.2.3,iPhone,62.5,,,,,,,,,,0.683,1,,,,,,,,,,,,,,,0,-0.369387755,-0.321428571,1,0,0,0.683,button_left_main,-0.369387755,-0.321428571,1,0,0,,0,51,51,107,1,FASKS,LB,old,z,./images/FASKSLB.png,,,,,,,,,,,,,,,,,,,,,,,,,,,,,,,,,
,,,,,,,,,,,,,,,,,5cadf2fa7e99a900171c4705,42,2022-02-12_16h48.40.333,lexical_decision_task_DD_L2,2021.2.3,iPhone,62.5,,,,,,,,,,0.898,1,,,,,,,,,,,,,,,0,-0.353061224,-0.33877551,1,0,0,0.898,button_left_main,-0.353061224,-0.33877551,1,0,0,,0,52,52,142,1,PLASK,HB,old,z,./images/PLASKHB.png,,,,,,,,,,,,,,,,,,,,,,,,,,,,,,,,,
,,,,,,,,,,,,,,,,,5cadf2fa7e99a900171c4705,42,2022-02-12_16h48.40.333,lexical_decision_task_DD_L2,2021.2.3,iPhone,62.5,,,,,,,,,,1.136,1,,,,,,,,,,,,,,,0,0.353061224,-0.279591837,1,0,0,1.136,button_right_main,0.353061224,-0.279591837,1,0,0,,0,53,53,74,1,CEMENT,C,old,m,./images/CEMENT.png,,,,,,,,,,,,,,,,,,,,,,,,,,,,,,,,,
,,,,,,,,,,,,,,,,,5cadf2fa7e99a900171c4705,42,2022-02-12_16h48.40.333,lexical_decision_task_DD_L2,2021.2.3,iPhone,62.5,,,,,,,,,,0.765,1,,,,,,,,,,,,,,,0,0.380612245,-0.292857143,1,0,0,0.765,button_right_main,0.380612245,-0.292857143,1,0,0,,0,54,54,40,1,SWING,LB,old,m,./images/SWINGLB.png,,,,,,,,,,,,,,,,,,,,,,,,,,,,,,,,,
,,,,,,,,,,,,,,,,,5cadf2fa7e99a900171c4705,42,2022-02-12_16h48.40.333,lexical_decision_task_DD_L2,2021.2.3,iPhone,62.5,,,,,,,,,,0.689,1,,,,,,,,,,,,,,,0,-0.393877551,-0.305102041,1,0,0,0.689,button_left_main,-0.393877551,-0.305102041,1,0,0,,0,55,55,135,1,JOODY,C,old,z,./images/JOODY.png,,,,,,,,,,,,,,,,,,,,,,,,,,,,,,,,,
,,,,,,,,,,,,,,,,,5cadf2fa7e99a900171c4705,42,2022-02-12_16h48.40.333,lexical_decision_task_DD_L2,2021.2.3,iPhone,62.5,,,,,,,,,,0.753,1,,,,,,,,,,,,,,,0,-0.359183673,-0.314285714,1,0,0,0.753,button_left_main,-0.359183673,-0.314285714,1,0,0,,0,56,56,118,1,BAVEL,HB,old,z,./images/BAVELHB.png,,,,,,,,,,,,,,,,,,,,,,,,,,,,,,,,,
,,,,,,,,,,,,,,,,,5cadf2fa7e99a900171c4705,42,2022-02-12_16h48.40.333,lexical_decision_task_DD_L2,2021.2.3,iPhone,62.5,,,,,,,,,,0.766,1,,,,,,,,,,,,,,,0,-0.35,-0.373469388,1,0,0,0.766,button_left_main,-0.35,-0.373469388,1,0,0,,0,57,57,114,1,RIKES,C,old,z,./images/RIKES.png,,,,,,,,,,,,,,,,,,,,,,,,,,,,,,,,,
,,,,,,,,,,,,,,,,,5cadf2fa7e99a900171c4705,42,2022-02-12_16h48.40.333,lexical_decision_task_DD_L2,2021.2.3,iPhone,62.5,,,,,,,,,,0.788,1,,,,,,,,,,,,,,,0,0.395918367,-0.285714286,1,0,0,0.788,button_right_main,0.395918367,-0.285714286,1,0,0,,0,58,58,82,1,SUNSET,LB,old,m,./images/SUNSETLB.png,,,,,,,,,,,,,,,,,,,,,,,,,,,,,,,,,
,,,,,,,,,,,,,,,,,5cadf2fa7e99a900171c4705,42,2022-02-12_16h48.40.333,lexical_decision_task_DD_L2,2021.2.3,iPhone,62.5,,,,,,,,,,0.742,1,,,,,,,,,,,,,,,0,0.390816327,-0.285714286,1,0,0,0.742,button_right_main,0.390816327,-0.285714286,1,0,0,,0,59,59,76,1,INFANT,LB,old,m,./images/INFANTLB.png,,,,,,,,,,,,,,,,,,,,,,,,,,,,,,,,,
,,,,,,,,,,,,,,,,,5cadf2fa7e99a900171c4705,42,2022-02-12_16h48.40.333,lexical_decision_task_DD_L2,2021.2.3,iPhone,62.5,,,,,,,,,,0.768,1,,,,,,,,,,,,,,,0,0.393877551,-0.278571429,1,0,0,0.768,button_right_main,0.393877551,-0.278571429,1,0,0,,0,60,60,58,1,BABOON,LB,old,m,./images/BABOONLB.png,,,,,,,,,,,,,,,,,,,,,,,,,,,,,,,,,
,,,,,,,,,,,,,,,,,5cadf2fa7e99a900171c4705,42,2022-02-12_16h48.40.333,lexical_decision_task_DD_L2,2021.2.3,iPhone,62.5,,,,,,,,,,1.157,1,,,,,,,,,,,,,,,0,-0.379591837,-0.319387755,1,0,0,1.157,button_left_main,-0.379591837,-0.319387755,1,0,0,,0,61,61,104,1,GITTY,LB,old,z,./images/GITTYLB.png,,,,,,,,,,,,,,,,,,,,,,,,,,,,,,,,,
,,,,,,,,,,,,,,,,,5cadf2fa7e99a900171c4705,42,2022-02-12_16h48.40.333,lexical_decision_task_DD_L2,2021.2.3,iPhone,62.5,,,,,,,,,,0.789,1,,,,,,,,,,,,,,,0,-0.369387755,-0.304081633,1,0,0,0.789,button_left_main,-0.369387755,-0.304081633,1,0,0,,0,62,62,124,1,TUNCH,HB,old,z,./images/TUNCHHB.png,,,,,,,,,,,,,,,,,,,,,,,,,,,,,,,,,
,,,,,,,,,,,,,,,,,5cadf2fa7e99a900171c4705,42,2022-02-12_16h48.40.333,lexical_decision_task_DD_L2,2021.2.3,iPhone,62.5,,,,,,,,,,0.583,1,,,,,,,,,,,,,,,0,-0.352040816,-0.32755102,1,0,0,0.583,button_left_main,-0.352040816,-0.32755102,1,0,0,,0,63,63,133,1,POWDY,HB,old,z,./images/POWDYHB.png,,,,,,,,,,,,,,,,,,,,,,,,,,,,,,,,,
,,,,,,,,,,,,,,,,,5cadf2fa7e99a900171c4705,42,2022-02-12_16h48.40.333,lexical_decision_task_DD_L2,2021.2.3,iPhone,62.5,,,,,,,,,,0.749,1,,,,,,,,,,,,,,,0,0.376530612,-0.285714286,1,0,0,0.749,button_right_main,0.376530612,-0.285714286,1,0,0,,0,64,64,3,1,FINGER,HB,old,m,./images/FINGERHB.png,,,,,,,,,,,,,,,,,,,,,,,,,,,,,,,,,
,,,,,,,,,,,,,,,,,5cadf2fa7e99a900171c4705,42,2022-02-12_16h48.40.333,lexical_decision_task_DD_L2,2021.2.3,iPhone,62.5,,,,,,,,,,0.768,1,,,,,,,,,,,,,,,0,-0.384693878,-0.291836735,1,0,0,0.768,button_left_main,-0.384693878,-0.291836735,1,0,0,,0,65,65,121,1,CEERS,HB,old,z,./images/CEERSHB.png,,,,,,,,,,,,,,,,,,,,,,,,,,,,,,,,,
,,,,,,,,,,,,,,,,,5cadf2fa7e99a900171c4705,42,2022-02-12_16h48.40.333,lexical_decision_task_DD_L2,2021.2.3,iPhone,62.5,,,,,,,,,,0.751,1,,,,,,,,,,,,,,,0,-0.360204082,-0.319387755,1,0,0,0.751,button_left_main,-0.360204082,-0.319387755,1,0,0,,0,66,66,117,1,STEEG,C,old,z,./images/STEEG.png,,,,,,,,,,,,,,,,,,,,,,,,,,,,,,,,,
,,,,,,,,,,,,,,,,,5cadf2fa7e99a900171c4705,42,2022-02-12_16h48.40.333,lexical_decision_task_DD_L2,2021.2.3,iPhone,62.5,,,,,,,,,,0.626,1,,,,,,,,,,,,,,,0,-0.371428571,-0.310204082,1,0,0,0.626,button_left_main,-0.371428571,-0.310204082,1,0,0,,0,67,67,111,1,HOSSE,C,old,z,./images/HOSSE.png,,,,,,,,,,,,,,,,,,,,,,,,,,,,,,,,,
,,,,,,,,,,,,,,,,,5cadf2fa7e99a900171c4705,42,2022-02-12_16h48.40.333,lexical_decision_task_DD_L2,2021.2.3,iPhone,62.5,,,,,,,,,,0.791,1,,,,,,,,,,,,,,,0,-0.360204082,-0.314285714,1,0,0,0.791,button_left_main,-0.360204082,-0.314285714,1,0,0,,0,68,68,100,1,DRIBS,HB,old,z,./images/DRIBSHB.png,,,,,,,,,,,,,,,,,,,,,,,,,,,,,,,,,
,,,,,,,,,,,,,,,,,5cadf2fa7e99a900171c4705,42,2022-02-12_16h48.40.333,lexical_decision_task_DD_L2,2021.2.3,iPhone,62.5,,,,,,,,,,0.651,1,,,,,,,,,,,,,,,0,0.389795918,-0.275510204,1,0,0,0.651,button_right_main,0.389795918,-0.275510204,1,0,0,,0,69,69,54,1,TRIPOD,HB,old,m,./images/TRIPODHB.png,,,,,,,,,,,,,,,,,,,,,,,,,,,,,,,,,
,,,,,,,,,,,,,,,,,5cadf2fa7e99a900171c4705,42,2022-02-12_16h48.40.333,lexical_decision_task_DD_L2,2021.2.3,iPhone,62.5,,,,,,,,,,0.526,1,,,,,,,,,,,,,,,0,0.384693878,-0.292857143,1,0,0,0.526,button_right_main,0.384693878,-0.292857143,1,0,0,,0,70,70,41,1,STRING,C,old,m,./images/STRING.png,,,,,,,,,,,,,,,,,,,,,,,,,,,,,,,,,
,,,,,,,,,,,,,,,,,5cadf2fa7e99a900171c4705,42,2022-02-12_16h48.40.333,lexical_decision_task_DD_L2,2021.2.3,iPhone,62.5,,,,,,,,,,0.644,1,,,,,,,,,,,,,,,0,-0.367346939,-0.331632653,1,0,0,0.644,button_left_main,-0.367346939,-0.331632653,1,0,0,,0,71,71,87,1,TRING,C,old,z,./images/TRING.png,,,,,,,,,,,,,,,,,,,,,,,,,,,,,,,,,
,,,,,,,,,,,,,,,,,5cadf2fa7e99a900171c4705,42,2022-02-12_16h48.40.333,lexical_decision_task_DD_L2,2021.2.3,iPhone,62.5,,,,,,,,,,1.134,1,,,,,,,,,,,,,,,0,-0.366326531,-0.320408163,1,0,0,1.134,button_left_main,-0.366326531,-0.320408163,1,0,0,,0,72,72,95,1,HANTY,LB,old,z,./images/HANTYLB.png,,,,,,,,,,,,,,,,,,,,,,,,,,,,,,,,,
,,,,,,,,,,,,,,,,,5cadf2fa7e99a900171c4705,42,2022-02-12_16h48.40.333,lexical_decision_task_DD_L2,2021.2.3,iPhone,62.5,,,,,,,,,,0.638,1,,,,,,,,,,,,,,,0,0.395918367,-0.290816327,1,0,0,0.638,button_right_main,0.395918367,-0.290816327,1,0,0,,0,73,73,26,1,SMOKER,C,old,m,./images/SMOKER.png,,,,,,,,,,,,,,,,,,,,,,,,,,,,,,,,,
,,,,,,,,,,,,,,,,,5cadf2fa7e99a900171c4705,42,2022-02-12_16h48.40.333,lexical_decision_task_DD_L2,2021.2.3,iPhone,62.5,,,,,,,,,,0.821,1,,,,,,,,,,,,,,,0,0.395918367,-0.271428571,1,0,0,0.821,button_right_main,0.395918367,-0.271428571,1,0,0,,0,74,74,2,1,BEARD,C,old,m,./images/BEARD.png,,,,,,,,,,,,,,,,,,,,,,,,,,,,,,,,,
,,,,,,,,,,,,,,,,,5cadf2fa7e99a900171c4705,42,2022-02-12_16h48.40.333,lexical_decision_task_DD_L2,2021.2.3,iPhone,62.5,,,,,,,,,,0.756,1,,,,,,,,,,,,,,,0,-0.357142857,-0.339795918,1,0,0,0.756,button_left_main,-0.357142857,-0.339795918,1,0,0,,0,75,75,144,1,NAIRY,C,old,z,./images/NAIRY.png,,,,,,,,,,,,,,,,,,,,,,,,,,,,,,,,,
,,,,,,,,,,,,,,,,,5cadf2fa7e99a900171c4705,42,2022-02-12_16h48.40.333,lexical_decision_task_DD_L2,2021.2.3,iPhone,62.5,,,,,,,,,,1.267,1,,,,,,,,,,,,,,,0,-0.353061224,-0.281632653,1,0,0,1.267,button_left_main,-0.353061224,-0.281632653,1,0,0,,0,76,76,152,1,FRAIN,LB,old,z,./images/FRAINLB.png,,,,,,,,,,,,,,,,,,,,,,,,,,,,,,,,,
,,,,,,,,,,,,,,,,,5cadf2fa7e99a900171c4705,42,2022-02-12_16h48.40.333,lexical_decision_task_DD_L2,2021.2.3,iPhone,62.5,,,,,,,,,,0.636,1,,,,,,,,,,,,,,,0,0.391836735,-0.308163265,1,0,0,0.636,button_right_main,0.391836735,-0.308163265,1,0,0,,0,77,77,49,1,DRUMS,LB,old,m,./images/DRUMSLB.png,,,,,,,,,,,,,,,,,,,,,,,,,,,,,,,,,
,,,,,,,,,,,,,,,,,5cadf2fa7e99a900171c4705,42,2022-02-12_16h48.40.333,lexical_decision_task_DD_L2,2021.2.3,iPhone,62.5,,,,,,,,,,0.656,1,,,,,,,,,,,,,,,0,0.390816327,-0.257142857,1,0,0,0.656,button_right_main,0.390816327,-0.257142857,1,0,0,,0,78,78,77,1,COUCH,C,old,m,./images/COUCH.png,,,,,,,,,,,,,,,,,,,,,,,,,,,,,,,,,
,,,,,,,,,,,,,,,,,5cadf2fa7e99a900171c4705,42,2022-02-12_16h48.40.333,lexical_decision_task_DD_L2,2021.2.3,iPhone,62.5,,,,,,,,,,0.678,1,,,,,,,,,,,,,,,0,-0.373469388,-0.336734694,1,0,0,0.678,button_left_main,-0.373469388,-0.336734694,1,0,0,,0,79,79,130,1,CRILL,HB,old,z,./images/CRILLHB.png,,,,,,,,,,,,,,,,,,,,,,,,,,,,,,,,,
,,,,,,,,,,,,,,,,,5cadf2fa7e99a900171c4705,42,2022-02-12_16h48.40.333,lexical_decision_task_DD_L2,2021.2.3,iPhone,62.5,,,,,,,,,,0.614,1,,,,,,,,,,,,,,,0,0.398979592,-0.285714286,1,0,0,0.614,button_right_main,0.398979592,-0.285714286,1,0,0,,0,80,80,46,1,PEARL,LB,old,m,./images/PEARLLB.png,,,,,,,,,,,,,,,,,,,,,,,,,,,,,,,,,
,,,,,,,,,,,,,,,,,5cadf2fa7e99a900171c4705,42,2022-02-12_16h48.40.333,lexical_decision_task_DD_L2,2021.2.3,iPhone,62.5,,,,,,,,,,0.59,1,,,,,,,,,,,,,,,0,0.379591837,-0.264285714,1,0,0,0.59,button_right_main,0.379591837,-0.264285714,1,0,0,,0,81,81,83,1,JUNGLE,C,old,m,./images/JUNGLE.png,,,,,,,,,,,,,,,,,,,,,,,,,,,,,,,,,
,,,,,,,,,,,,,,,,,5cadf2fa7e99a900171c4705,42,2022-02-12_16h48.40.333,lexical_decision_task_DD_L2,2021.2.3,iPhone,62.5,,,,,,,,,,0.724,1,,,,,,,,,,,,,,,0,0.390816327,-0.294897959,1,0,0,0.724,button_right_main,0.390816327,-0.294897959,1,0,0,,0,82,82,50,1,MALLET,C,old,m,./images/MALLET.png,,,,,,,,,,,,,,,,,,,,,,,,,,,,,,,,,
,,,,,,,,,,,,,,,,,5cadf2fa7e99a900171c4705,42,2022-02-12_16h48.40.333,lexical_decision_task_DD_L2,2021.2.3,iPhone,62.5,,,,,,,,,,0.653,1,,,,,,,,,,,,,,,0,0.387755102,-0.286734694,1,0,0,0.653,button_right_main,0.092857143,-0.4,1,0,0,,0,83,83,68,1,TORCH,C,old,m,./images/TORCH.png,break_done_button,,,,,,,,,,,,,,,,,,,,,,,,,,,,,,,,
,,,,,,,,,,,,,,,,,5cadf2fa7e99a900171c4705,42,2022-02-12_16h48.40.333,lexical_decision_task_DD_L2,2021.2.3,iPhone,62.5,,,,,,,,,,0.654,1,,,,,,,,,,,,,,,0,-0.357142857,-0.320408163,1,0,0,0.654,button_left_main,-0.357142857,-0.320408163,1,0,0,,0,84,84,158,1,EGECT,LB,old,z,./images/EGECTLB.png,,,,,,,,,,,,,,,,,,,,,,,,,,,,,,,,,
,,,,,,,,,,,,,,,,,5cadf2fa7e99a900171c4705,42,2022-02-12_16h48.40.333,lexical_decision_task_DD_L2,2021.2.3,iPhone,62.5,,,,,,,,,,0.524,1,,,,,,,,,,,,,,,0,0.36122449,-0.286734694,1,0,0,0.524,button_right_main,0.36122449,-0.286734694,1,0,0,,0,85,85,67,1,SAILOR,LB,old,m,./images/SAILORLB.png,,,,,,,,,,,,,,,,,,,,,,,,,,,,,,,,,
,,,,,,,,,,,,,,,,,5cadf2fa7e99a900171c4705,42,2022-02-12_16h48.40.333,lexical_decision_task_DD_L2,2021.2.3,iPhone,62.5,,,,,,,,,,0.935,1,,,,,,,,,,,,,,,0,-0.364285714,-0.303061224,1,0,0,0.935,button_left_main,-0.364285714,-0.303061224,1,0,0,,0,86,86,91,1,SHENS,HB,old,z,./images/SHENSHB.png,,,,,,,,,,,,,,,,,,,,,,,,,,,,,,,,,
,,,,,,,,,,,,,,,,,5cadf2fa7e99a900171c4705,42,2022-02-12_16h48.40.333,lexical_decision_task_DD_L2,2021.2.3,iPhone,62.5,,,,,,,,,,0.7,0,,,,,,,,,,,,,,,0,0.386734694,-0.278571429,1,0,0,0.7,button_right_main,0.386734694,-0.278571429,1,0,0,,0,87,87,166,1,SHORY,HB,old,z,./images/SHORYHB.png,,,,,,,,,,,,,,,,,,,,,,,,,,,,,,,,,
,,,,,,,,,,,,,,,,,5cadf2fa7e99a900171c4705,42,2022-02-12_16h48.40.333,lexical_decision_task_DD_L2,2021.2.3,iPhone,62.5,,,,,,,,,,1.06,1,,,,,,,,,,,,,,,0,0.359183673,-0.271428571,1,0,0,1.06,button_right_main,0.359183673,-0.271428571,1,0,0,,0,88,88,56,1,PACKET,C,old,m,./images/PACKET.png,,,,,,,,,,,,,,,,,,,,,,,,,,,,,,,,,
,,,,,,,,,,,,,,,,,5cadf2fa7e99a900171c4705,42,2022-02-12_16h48.40.333,lexical_decision_task_DD_L2,2021.2.3,iPhone,62.5,,,,,,,,,,0.77,1,,,,,,,,,,,,,,,0,-0.364285714,-0.32755102,1,0,0,0.77,button_left_main,-0.364285714,-0.32755102,1,0,0,,0,89,89,146,1,MOOST,LB,old,z,./images/MOOSTLB.png,,,,,,,,,,,,,,,,,,,,,,,,,,,,,,,,,
,,,,,,,,,,,,,,,,,5cadf2fa7e99a900171c4705,42,2022-02-12_16h48.40.333,lexical_decision_task_DD_L2,2021.2.3,iPhone,62.5,,,,,,,,,,0.837,1,,,,,,,,,,,,,,,0,0.398979592,-0.286734694,1,0,0,0.837,button_right_main,0.398979592,-0.286734694,1,0,0,,0,90,90,72,1,NOOSE,HB,old,m,./images/NOOSEHB.png,,,,,,,,,,,,,,,,,,,,,,,,,,,,,,,,,
,,,,,,,,,,,,,,,,,5cadf2fa7e99a900171c4705,42,2022-02-12_16h48.40.333,lexical_decision_task_DD_L2,2021.2.3,iPhone,62.5,,,,,,,,,,0.726,1,,,,,,,,,,,,,,,0,0.396938776,-0.280612245,1,0,0,0.726,button_right_main,0.396938776,-0.280612245,1,0,0,,0,91,91,15,1,GREASE,HB,old,m,./images/GREASEHB.png,,,,,,,,,,,,,,,,,,,,,,,,,,,,,,,,,
,,,,,,,,,,,,,,,,,5cadf2fa7e99a900171c4705,42,2022-02-12_16h48.40.333,lexical_decision_task_DD_L2,2021.2.3,iPhone,62.5,,,,,,,,,,0.618,1,,,,,,,,,,,,,,,0,0.396938776,-0.285714286,1,0,0,0.618,button_right_main,0.396938776,-0.285714286,1,0,0,,0,92,92,80,1,WEASEL,C,old,m,./images/WEASEL.png,,,,,,,,,,,,,,,,,,,,,,,,,,,,,,,,,
,,,,,,,,,,,,,,,,,5cadf2fa7e99a900171c4705,42,2022-02-12_16h48.40.333,lexical_decision_task_DD_L2,2021.2.3,iPhone,62.5,,,,,,,,,,0.603,1,,,,,,,,,,,,,,,0,0.386734694,-0.286734694,1,0,0,0.603,button_right_main,0.386734694,-0.286734694,1,0,0,,0,93,93,51,1,ONION,HB,old,m,./images/ONIONHB.png,,,,,,,,,,,,,,,,,,,,,,,,,,,,,,,,,
,,,,,,,,,,,,,,,,,5cadf2fa7e99a900171c4705,42,2022-02-12_16h48.40.333,lexical_decision_task_DD_L2,2021.2.3,iPhone,62.5,,,,,,,,,,0.734,1,,,,,,,,,,,,,,,0,0.380612245,-0.27244898,1,0,0,0.734,button_right_main,0.380612245,-0.27244898,1,0,0,,0,94,94,17,1,SKIING,C,old,m,./images/SKIING.png,,,,,,,,,,,,,,,,,,,,,,,,,,,,,,,,,
,,,,,,,,,,,,,,,,,5cadf2fa7e99a900171c4705,42,2022-02-12_16h48.40.333,lexical_decision_task_DD_L2,2021.2.3,iPhone,62.5,,,,,,,,,,0.69,1,,,,,,,,,,,,,,,0,0.395918367,-0.298979592,1,0,0,0.69,button_right_main,0.395918367,-0.298979592,1,0,0,,0,95,95,19,1,DOUGH,LB,old,m,./images/DOUGHLB.png,,,,,,,,,,,,,,,,,,,,,,,,,,,,,,,,,
,,,,,,,,,,,,,,,,,5cadf2fa7e99a900171c4705,42,2022-02-12_16h48.40.333,lexical_decision_task_DD_L2,2021.2.3,iPhone,62.5,,,,,,,,,,0.713,1,,,,,,,,,,,,,,,0,-0.380612245,-0.293877551,1,0,0,0.713,button_left_main,-0.380612245,-0.293877551,1,0,0,,0,96,96,161,1,BLAPS,LB,old,z,./images/BLAPSLB.png,,,,,,,,,,,,,,,,,,,,,,,,,,,,,,,,,
,,,,,,,,,,,,,,,,,5cadf2fa7e99a900171c4705,42,2022-02-12_16h48.40.333,lexical_decision_task_DD_L2,2021.2.3,iPhone,62.5,,,,,,,,,,0.894,1,,,,,,,,,,,,,,,0,0.373469388,-0.271428571,1,0,0,0.894,button_right_main,0.373469388,-0.271428571,1,0,0,,0,97,97,71,1,PIMPLE,C,old,m,./images/PIMPLE.png,,,,,,,,,,,,,,,,,,,,,,,,,,,,,,,,,
,,,,,,,,,,,,,,,,,5cadf2fa7e99a900171c4705,42,2022-02-12_16h48.40.333,lexical_decision_task_DD_L2,2021.2.3,iPhone,62.5,,,,,,,,,,0.762,1,,,,,,,,,,,,,,,0,0.373469388,-0.281632653,1,0,0,0.762,button_right_main,0.373469388,-0.281632653,1,0,0,,0,98,98,62,1,PURSE,C,old,m,./images/PURSE.png,,,,,,,,,,,,,,,,,,,,,,,,,,,,,,,,,
,,,,,,,,,,,,,,,,,5cadf2fa7e99a900171c4705,42,2022-02-12_16h48.40.333,lexical_decision_task_DD_L2,2021.2.3,iPhone,62.5,,,,,,,,,,0.736,1,,,,,,,,,,,,,,,0,-0.378571429,-0.317346939,1,0,0,0.736,button_left_main,-0.378571429,-0.317346939,1,0,0,,0,99,99,138,1,PLICE,C,old,z,./images/PLICE.png,,,,,,,,,,,,,,,,,,,,,,,,,,,,,,,,,
,,,,,,,,,,,,,,,,,5cadf2fa7e99a900171c4705,42,2022-02-12_16h48.40.333,lexical_decision_task_DD_L2,2021.2.3,iPhone,62.5,,,,,,,,,,0.715,1,,,,,,,,,,,,,,,0,-0.371428571,-0.294897959,1,0,0,0.715,button_left_main,-0.371428571,-0.294897959,1,0,0,,0,100,100,105,1,MOKER,C,old,z,./images/MOKER.png,,,,,,,,,,,,,,,,,,,,,,,,,,,,,,,,,
,,,,,,,,,,,,,,,,,5cadf2fa7e99a900171c4705,42,2022-02-12_16h48.40.333,lexical_decision_task_DD_L2,2021.2.3,iPhone,62.5,,,,,,,,,,0.615,1,,,,,,,,,,,,,,,0,-0.358163265,-0.285714286,1,0,0,0.615,button_left_main,-0.358163265,-0.285714286,1,0,0,,0,101,101,108,1,GRUET,C,old,z,./images/GRUET.png,,,,,,,,,,,,,,,,,,,,,,,,,,,,,,,,,
,,,,,,,,,,,,,,,,,5cadf2fa7e99a900171c4705,42,2022-02-12_16h48.40.333,lexical_decision_task_DD_L2,2021.2.3,iPhone,62.5,,,,,,,,,,0.738,1,,,,,,,,,,,,,,,0,-0.354081633,-0.316326531,1,0,0,0.738,button_left_main,-0.354081633,-0.316326531,1,0,0,,0,102,102,159,1,CUDDY,C,old,z,./images/CUDDY.png,,,,,,,,,,,,,,,,,,,,,,,,,,,,,,,,,
,,,,,,,,,,,,,,,,,5cadf2fa7e99a900171c4705,42,2022-02-12_16h48.40.333,lexical_decision_task_DD_L2,2021.2.3,iPhone,62.5,,,,,,,,,,0.873,1,,,,,,,,,,,,,,,0,-0.353061224,-0.306122449,1,0,0,0.873,button_left_main,-0.353061224,-0.306122449,1,0,0,,0,103,103,163,1,GAMBA,HB,old,z,./images/GAMBAHB.png,,,,,,,,,,,,,,,,,,,,,,,,,,,,,,,,,
,,,,,,,,,,,,,,,,,5cadf2fa7e99a900171c4705,42,2022-02-12_16h48.40.333,lexical_decision_task_DD_L2,2021.2.3,iPhone,62.5,,,,,,,,,,0.703,1,,,,,,,,,,,,,,,0,0.391836735,-0.286734694,1,0,0,0.703,button_right_main,0.391836735,-0.286734694,1,0,0,,0,104,104,7,1,PAINT,LB,old,m,./images/PAINTLB.png,,,,,,,,,,,,,,,,,,,,,,,,,,,,,,,,,
,,,,,,,,,,,,,,,,,5cadf2fa7e99a900171c4705,42,2022-02-12_16h48.40.333,lexical_decision_task_DD_L2,2021.2.3,iPhone,62.5,,,,,,,,,,0.667,1,,,,,,,,,,,,,,,0,0.379591837,-0.289795918,1,0,0,0.667,button_right_main,0.379591837,-0.289795918,1,0,0,,0,105,105,64,1,JELLY,LB,old,m,./images/JELLYLB.png,,,,,,,,,,,,,,,,,,,,,,,,,,,,,,,,,
,,,,,,,,,,,,,,,,,5cadf2fa7e99a900171c4705,42,2022-02-12_16h48.40.333,lexical_decision_task_DD_L2,2021.2.3,iPhone,62.5,,,,,,,,,,0.785,1,,,,,,,,,,,,,,,0,-0.364285714,-0.32755102,1,0,0,0.785,button_left_main,-0.364285714,-0.32755102,1,0,0,,0,106,106,140,1,DOVET,LB,old,z,./images/DOVETLB.png,,,,,,,,,,,,,,,,,,,,,,,,,,,,,,,,,
,,,,,,,,,,,,,,,,,5cadf2fa7e99a900171c4705,42,2022-02-12_16h48.40.333,lexical_decision_task_DD_L2,2021.2.3,iPhone,62.5,,,,,,,,,,0.684,1,,,,,,,,,,,,,,,0,-0.359183673,-0.310204082,1,0,0,0.684,button_left_main,-0.359183673,-0.310204082,1,0,0,,0,107,107,101,1,GLEET,LB,old,z,./images/GLEETLB.png,,,,,,,,,,,,,,,,,,,,,,,,,,,,,,,,,
,,,,,,,,,,,,,,,,,5cadf2fa7e99a900171c4705,42,2022-02-12_16h48.40.333,lexical_decision_task_DD_L2,2021.2.3,iPhone,62.5,,,,,,,,,,0.913,1,,,,,,,,,,,,,,,0,-0.353061224,-0.290816327,1,0,0,0.913,button_left_main,-0.353061224,-0.290816327,1,0,0,,0,108,108,99,1,BACKY,C,old,z,./images/BACKY.png,,,,,,,,,,,,,,,,,,,,,,,,,,,,,,,,,
,,,,,,,,,,,,,,,,,5cadf2fa7e99a900171c4705,42,2022-02-12_16h48.40.333,lexical_decision_task_DD_L2,2021.2.3,iPhone,62.5,,,,,,,,,,0.633,1,,,,,,,,,,,,,,,0,0.390816327,-0.291836735,1,0,0,0.633,button_right_main,0.390816327,-0.291836735,1,0,0,,0,109,109,32,1,BARREL,C,old,m,./images/BARREL.png,,,,,,,,,,,,,,,,,,,,,,,,,,,,,,,,,
,,,,,,,,,,,,,,,,,5cadf2fa7e99a900171c4705,42,2022-02-12_16h48.40.333,lexical_decision_task_DD_L2,2021.2.3,iPhone,62.5,,,,,,,,,,0.634,1,,,,,,,,,,,,,,,0,-0.370408163,-0.290816327,1,0,0,0.634,button_left_main,-0.370408163,-0.290816327,1,0,0,,0,110,110,122,1,BLOOT,LB,old,z,./images/BLOOTLB.png,,,,,,,,,,,,,,,,,,,,,,,,,,,,,,,,,
,,,,,,,,,,,,,,,,,5cadf2fa7e99a900171c4705,42,2022-02-12_16h48.40.333,lexical_decision_task_DD_L2,2021.2.3,iPhone,62.5,,,,,,,,,,0.651,1,,,,,,,,,,,,,,,0,-0.364285714,-0.3,1,0,0,0.651,button_left_main,-0.364285714,-0.3,1,0,0,,0,111,111,143,1,MONGS,LB,old,z,./images/MONGSLB.png,,,,,,,,,,,,,,,,,,,,,,,,,,,,,,,,,
,,,,,,,,,,,,,,,,,5cadf2fa7e99a900171c4705,42,2022-02-12_16h48.40.333,lexical_decision_task_DD_L2,2021.2.3,iPhone,62.5,,,,,,,,,,0.615,1,,,,,,,,,,,,,,,0,0.414285714,-0.270408163,1,0,0,0.615,button_right_main,0.414285714,-0.270408163,1,0,0,,0,112,112,29,1,CRUMB,C,old,m,./images/CRUMB.png,,,,,,,,,,,,,,,,,,,,,,,,,,,,,,,,,
,,,,,,,,,,,,,,,,,5cadf2fa7e99a900171c4705,42,2022-02-12_16h48.40.333,lexical_decision_task_DD_L2,2021.2.3,iPhone,62.5,,,,,,,,,,0.937,1,,,,,,,,,,,,,,,0,-0.365306122,-0.307142857,1,0,0,0.937,button_left_main,-0.365306122,-0.307142857,1,0,0,,0,113,113,97,1,CHIDS,HB,old,z,./images/CHIDSHB.png,,,,,,,,,,,,,,,,,,,,,,,,,,,,,,,,,
,,,,,,,,,,,,,,,,,5cadf2fa7e99a900171c4705,42,2022-02-12_16h48.40.333,lexical_decision_task_DD_L2,2021.2.3,iPhone,62.5,,,,,,,,,,0.617,1,,,,,,,,,,,,,,,0,0.407142857,-0.287755102,1,0,0,0.617,button_right_main,0.407142857,-0.287755102,1,0,0,,0,114,114,70,1,URINE,LB,old,m,./images/URINELB.png,,,,,,,,,,,,,,,,,,,,,,,,,,,,,,,,,
,,,,,,,,,,,,,,,,,5cadf2fa7e99a900171c4705,42,2022-02-12_16h48.40.333,lexical_decision_task_DD_L2,2021.2.3,iPhone,62.5,,,,,,,,,,0.866,0,,,,,,,,,,,,,,,0,-0.357142857,-0.297959184,1,0,0,0.866,button_left_main,-0.357142857,-0.297959184,1,0,0,,0,115,115,11,1,BONNET,C,old,m,./images/BONNET.png,,,,,,,,,,,,,,,,,,,,,,,,,,,,,,,,,
,,,,,,,,,,,,,,,,,5cadf2fa7e99a900171c4705,42,2022-02-12_16h48.40.333,lexical_decision_task_DD_L2,2021.2.3,iPhone,62.5,,,,,,,,,,0.754,1,,,,,,,,,,,,,,,0,0.387755102,-0.284693878,1,0,0,0.754,button_right_main,0.387755102,-0.284693878,1,0,0,,0,116,116,42,1,FOLDER,HB,old,m,./images/FOLDERHB.png,,,,,,,,,,,,,,,,,,,,,,,,,,,,,,,,,
,,,,,,,,,,,,,,,,,5cadf2fa7e99a900171c4705,42,2022-02-12_16h48.40.333,lexical_decision_task_DD_L2,2021.2.3,iPhone,62.5,,,,,,,,,,0.743,1,,,,,,,,,,,,,,,0,-0.359183673,-0.3,1,0,0,0.743,button_left_main,-0.359183673,-0.3,1,0,0,,0,117,117,115,1,MAWNS,HB,old,z,./images/MAWNSHB.png,,,,,,,,,,,,,,,,,,,,,,,,,,,,,,,,,
,,,,,,,,,,,,,,,,,5cadf2fa7e99a900171c4705,42,2022-02-12_16h48.40.333,lexical_decision_task_DD_L2,2021.2.3,iPhone,62.5,,,,,,,,,,0.805,1,,,,,,,,,,,,,,,0,0.416326531,-0.279591837,1,0,0,0.805,button_right_main,0.416326531,-0.279591837,1,0,0,,0,118,118,43,1,MOSQUE,LB,old,m,./images/MOSQUELB.png,,,,,,,,,,,,,,,,,,,,,,,,,,,,,,,,,
,,,,,,,,,,,,,,,,,5cadf2fa7e99a900171c4705,42,2022-02-12_16h48.40.333,lexical_decision_task_DD_L2,2021.2.3,iPhone,62.5,,,,,,,,,,0.907,1,,,,,,,,,,,,,,,0,-0.365306122,-0.301020408,1,0,0,0.907,button_left_main,-0.365306122,-0.301020408,1,0,0,,0,119,119,85,1,CHULK,HB,old,z,./images/CHULKHB.png,,,,,,,,,,,,,,,,,,,,,,,,,,,,,,,,,
,,,,,,,,,,,,,,,,,5cadf2fa7e99a900171c4705,42,2022-02-12_16h48.40.333,lexical_decision_task_DD_L2,2021.2.3,iPhone,62.5,,,,,,,,,,0.953,1,,,,,,,,,,,,,,,0,-0.358163265,-0.290816327,1,0,0,0.953,button_left_main,-0.358163265,-0.290816327,1,0,0,,0,120,120,155,1,CANGY,LB,old,z,./images/CANGYLB.png,,,,,,,,,,,,,,,,,,,,,,,,,,,,,,,,,
,,,,,,,,,,,,,,,,,5cadf2fa7e99a900171c4705,42,2022-02-12_16h48.40.333,lexical_decision_task_DD_L2,2021.2.3,iPhone,62.5,,,,,,,,,,0.754,1,,,,,,,,,,,,,,,0,-0.36122449,-0.293877551,1,0,0,0.754,button_left_main,-0.36122449,-0.293877551,1,0,0,,0,121,121,149,1,VEASE,LB,old,z,./images/VEASELB.png,,,,,,,,,,,,,,,,,,,,,,,,,,,,,,,,,
,,,,,,,,,,,,,,,,,5cadf2fa7e99a900171c4705,42,2022-02-12_16h48.40.333,lexical_decision_task_DD_L2,2021.2.3,iPhone,62.5,,,,,,,,,,0.834,1,,,,,,,,,,,,,,,0,0.4,-0.278571429,1,0,0,0.834,button_right_main,0.4,-0.278571429,1,0,0,,0,122,122,48,1,SPORT,HB,old,m,./images/SPORTHB.png,,,,,,,,,,,,,,,,,,,,,,,,,,,,,,,,,
,,,,,,,,,,,,,,,,,5cadf2fa7e99a900171c4705,42,2022-02-12_16h48.40.333,lexical_decision_task_DD_L2,2021.2.3,iPhone,62.5,,,,,,,,,,0.651,1,,,,,,,,,,,,,,,0,-0.378571429,-0.310204082,1,0,0,0.651,button_left_main,-0.378571429,-0.310204082,1,0,0,,0,123,123,139,1,BLEAR,HB,old,z,./images/BLEARHB.png,,,,,,,,,,,,,,,,,,,,,,,,,,,,,,,,,
,,,,,,,,,,,,,,,,,5cadf2fa7e99a900171c4705,42,2022-02-12_16h48.40.333,lexical_decision_task_DD_L2,2021.2.3,iPhone,62.5,,,,,,,,,,0.903,1,,,,,,,,,,,,,,,0,0.363265306,-0.270408163,1,0,0,0.903,button_right_main,0.363265306,-0.270408163,1,0,0,,0,124,124,38,1,LADDER,C,old,m,./images/LADDER.png,,,,,,,,,,,,,,,,,,,,,,,,,,,,,,,,,
,,,,,,,,,,,,,,,,,5cadf2fa7e99a900171c4705,42,2022-02-12_16h48.40.333,lexical_decision_task_DD_L2,2021.2.3,iPhone,62.5,,,,,,,,,,1.016,1,,,,,,,,,,,,,,,0,0.364285714,-0.268367347,1,0,0,1.016,button_right_main,0.03877551,-0.389795918,1,0,0,,0,125,125,30,1,STORM,HB,old,m,./images/STORMHB.png,break_done_button,,,,,,,,,,,,,,,,,,,,,,,,,,,,,,,,
,,,,,,,,,,,,,,,,,5cadf2fa7e99a900171c4705,42,2022-02-12_16h48.40.333,lexical_decision_task_DD_L2,2021.2.3,iPhone,62.5,,,,,,,,,,0.641,1,,,,,,,,,,,,,,,0,0.360204082,-0.283673469,1,0,0,0.641,button_right_main,0.360204082,-0.283673469,1,0,0,,0,126,126,0,1,TOMATO,HB,old,m,./images/TOMATOHB.png,,,,,,,,,,,,,,,,,,,,,,,,,,,,,,,,,
,,,,,,,,,,,,,,,,,5cadf2fa7e99a900171c4705,42,2022-02-12_16h48.40.333,lexical_decision_task_DD_L2,2021.2.3,iPhone,62.5,,,,,,,,,,0.607,1,,,,,,,,,,,,,,,0,-0.401020408,-0.340816327,1,0,0,0.607,button_left_main,-0.401020408,-0.340816327,1,0,0,,0,127,127,116,1,BALGY,LB,old,z,./images/BALGYLB.png,,,,,,,,,,,,,,,,,,,,,,,,,,,,,,,,,
,,,,,,,,,,,,,,,,,5cadf2fa7e99a900171c4705,42,2022-02-12_16h48.40.333,lexical_decision_task_DD_L2,2021.2.3,iPhone,62.5,,,,,,,,,,0.641,1,,,,,,,,,,,,,,,0,0.413265306,-0.296938776,1,0,0,0.641,button_right_main,0.413265306,-0.296938776,1,0,0,,0,128,128,63,1,MIRROR,HB,old,m,./images/MIRRORHB.png,,,,,,,,,,,,,,,,,,,,,,,,,,,,,,,,,
,,,,,,,,,,,,,,,,,5cadf2fa7e99a900171c4705,42,2022-02-12_16h48.40.333,lexical_decision_task_DD_L2,2021.2.3,iPhone,62.5,,,,,,,,,,0.665,1,,,,,,,,,,,,,,,0,-0.395918367,-0.317346939,1,0,0,0.665,button_left_main,-0.395918367,-0.317346939,1,0,0,,0,129,129,98,1,BAMPS,LB,old,z,./images/BAMPSLB.png,,,,,,,,,,,,,,,,,,,,,,,,,,,,,,,,,
,,,,,,,,,,,,,,,,,5cadf2fa7e99a900171c4705,42,2022-02-12_16h48.40.333,lexical_decision_task_DD_L2,2021.2.3,iPhone,62.5,,,,,,,,,,0.605,1,,,,,,,,,,,,,,,0,-0.401020408,-0.292857143,1,0,0,0.605,button_left_main,-0.401020408,-0.292857143,1,0,0,,0,130,130,120,1,RINED,C,old,z,./images/RINED.png,,,,,,,,,,,,,,,,,,,,,,,,,,,,,,,,,
,,,,,,,,,,,,,,,,,5cadf2fa7e99a900171c4705,42,2022-02-12_16h48.40.333,lexical_decision_task_DD_L2,2021.2.3,iPhone,62.5,,,,,,,,,,0.498,1,,,,,,,,,,,,,,,0,-0.403061224,-0.304081633,1,0,0,0.498,button_left_main,-0.403061224,-0.304081633,1,0,0,,0,131,131,167,1,ZONET,LB,old,z,./images/ZONETLB.png,,,,,,,,,,,,,,,,,,,,,,,,,,,,,,,,,
,,,,,,,,,,,,,,,,,5cadf2fa7e99a900171c4705,42,2022-02-12_16h48.40.333,lexical_decision_task_DD_L2,2021.2.3,iPhone,62.5,,,,,,,,,,0.517,1,,,,,,,,,,,,,,,0,-0.387755102,-0.324489796,1,0,0,0.517,button_left_main,-0.387755102,-0.324489796,1,0,0,,0,132,132,96,1,KEAMS,C,old,z,./images/KEAMS.png,,,,,,,,,,,,,,,,,,,,,,,,,,,,,,,,,
,,,,,,,,,,,,,,,,,5cadf2fa7e99a900171c4705,42,2022-02-12_16h48.40.333,lexical_decision_task_DD_L2,2021.2.3,iPhone,62.5,,,,,,,,,,0.646,1,,,,,,,,,,,,,,,0,0.378571429,-0.284693878,1,0,0,0.646,button_right_main,0.378571429,-0.284693878,1,0,0,,0,133,133,73,1,SNACK,LB,old,m,./images/SNACKLB.png,,,,,,,,,,,,,,,,,,,,,,,,,,,,,,,,,
,,,,,,,,,,,,,,,,,5cadf2fa7e99a900171c4705,42,2022-02-12_16h48.40.333,lexical_decision_task_DD_L2,2021.2.3,iPhone,62.5,,,,,,,,,,0.815,1,,,,,,,,,,,,,,,0,0.396938776,-0.265306122,1,0,0,0.815,button_right_main,0.396938776,-0.265306122,1,0,0,,0,134,134,28,1,FALCON,LB,old,m,./images/FALCONLB.png,,,,,,,,,,,,,,,,,,,,,,,,,,,,,,,,,
,,,,,,,,,,,,,,,,,5cadf2fa7e99a900171c4705,42,2022-02-12_16h48.40.333,lexical_decision_task_DD_L2,2021.2.3,iPhone,62.5,,,,,,,,,,0.658,1,,,,,,,,,,,,,,,0,-0.396938776,-0.320408163,1,0,0,0.658,button_left_main,-0.396938776,-0.320408163,1,0,0,,0,135,135,134,1,TROSS,LB,old,z,./images/TROSSLB.png,,,,,,,,,,,,,,,,,,,,,,,,,,,,,,,,,
,,,,,,,,,,,,,,,,,5cadf2fa7e99a900171c4705,42,2022-02-12_16h48.40.333,lexical_decision_task_DD_L2,2021.2.3,iPhone,62.5,,,,,,,,,,0.689,1,,,,,,,,,,,,,,,0,-0.396938776,-0.317346939,1,0,0,0.689,button_left_main,-0.396938776,-0.317346939,1,0,0,,0,136,136,103,1,FLORT,HB,old,z,./images/FLORTHB.png,,,,,,,,,,,,,,,,,,,,,,,,,,,,,,,,,
,,,,,,,,,,,,,,,,,5cadf2fa7e99a900171c4705,42,2022-02-12_16h48.40.333,lexical_decision_task_DD_L2,2021.2.3,iPhone,62.5,,,,,,,,,,0.64,1,,,,,,,,,,,,,,,0,0.391836735,-0.27244898,1,0,0,0.64,button_right_main,0.391836735,-0.27244898,1,0,0,,0,137,137,61,1,CANDLE,LB,old,m,./images/CANDLELB.png,,,,,,,,,,,,,,,,,,,,,,,,,,,,,,,,,
,,,,,,,,,,,,,,,,,5cadf2fa7e99a900171c4705,42,2022-02-12_16h48.40.333,lexical_decision_task_DD_L2,2021.2.3,iPhone,62.5,,,,,,,,,,0.547,1,,,,,,,,,,,,,,,0,0.392857143,-0.267346939,1,0,0,0.547,button_right_main,0.392857143,-0.267346939,1,0,0,,0,138,138,35,1,PEACH,C,old,m,./images/PEACH.png,,,,,,,,,,,,,,,,,,,,,,,,,,,,,,,,,
,,,,,,,,,,,,,,,,,5cadf2fa7e99a900171c4705,42,2022-02-12_16h48.40.333,lexical_decision_task_DD_L2,2021.2.3,iPhone,62.5,,,,,,,,,,0.604,1,,,,,,,,,,,,,,,0,-0.416326531,-0.303061224,1,0,0,0.604,button_left_main,-0.416326531,-0.303061224,1,0,0,,0,139,139,94,1,BLANS,HB,old,z,./images/BLANSHB.png,,,,,,,,,,,,,,,,,,,,,,,,,,,,,,,,,
,,,,,,,,,,,,,,,,,5cadf2fa7e99a900171c4705,42,2022-02-12_16h48.40.333,lexical_decision_task_DD_L2,2021.2.3,iPhone,62.5,,,,,,,,,,0.54,1,,,,,,,,,,,,,,,0,-0.390816327,-0.321428571,1,0,0,0.54,button_left_main,-0.390816327,-0.321428571,1,0,0,,0,140,140,132,1,SCIFF,C,old,z,./images/SCIFF.png,,,,,,,,,,,,,,,,,,,,,,,,,,,,,,,,,
,,,,,,,,,,,,,,,,,5cadf2fa7e99a900171c4705,42,2022-02-12_16h48.40.333,lexical_decision_task_DD_L2,2021.2.3,iPhone,62.5,,,,,,,,,,0.634,1,,,,,,,,,,,,,,,0,0.41122449,-0.275510204,1,0,0,0.634,button_right_main,0.41122449,-0.275510204,1,0,0,,0,141,141,25,1,WRIST,LB,old,m,./images/WRISTLB.png,,,,,,,,,,,,,,,,,,,,,,,,,,,,,,,,,
,,,,,,,,,,,,,,,,,5cadf2fa7e99a900171c4705,42,2022-02-12_16h48.40.333,lexical_decision_task_DD_L2,2021.2.3,iPhone,62.5,,,,,,,,,,0.594,1,,,,,,,,,,,,,,,0,-0.410204082,-0.294897959,1,0,0,0.594,button_left_main,-0.410204082,-0.294897959,1,0,0,,0,142,142,150,1,NOOLS,C,old,z,./images/NOOLS.png,,,,,,,,,,,,,,,,,,,,,,,,,,,,,,,,,
,,,,,,,,,,,,,,,,,5cadf2fa7e99a900171c4705,42,2022-02-12_16h48.40.333,lexical_decision_task_DD_L2,2021.2.3,iPhone,62.5,,,,,,,,,,0.552,1,,,,,,,,,,,,,,,0,0.386734694,-0.287755102,1,0,0,0.552,button_right_main,0.386734694,-0.287755102,1,0,0,,0,143,143,36,1,THROAT,HB,old,m,./images/THROATHB.png,,,,,,,,,,,,,,,,,,,,,,,,,,,,,,,,,
,,,,,,,,,,,,,,,,,5cadf2fa7e99a900171c4705,42,2022-02-12_16h48.40.333,lexical_decision_task_DD_L2,2021.2.3,iPhone,62.5,,,,,,,,,,0.595,1,,,,,,,,,,,,,,,0,0.383673469,-0.273469388,1,0,0,0.595,button_right_main,0.383673469,-0.273469388,1,0,0,,0,144,144,34,1,CANYON,LB,old,m,./images/CANYONLB.png,,,,,,,,,,,,,,,,,,,,,,,,,,,,,,,,,
,,,,,,,,,,,,,,,,,5cadf2fa7e99a900171c4705,42,2022-02-12_16h48.40.333,lexical_decision_task_DD_L2,2021.2.3,iPhone,62.5,,,,,,,,,,0.523,1,,,,,,,,,,,,,,,0,-0.401020408,-0.319387755,1,0,0,0.523,button_left_main,-0.401020408,-0.319387755,1,0,0,,0,145,145,156,1,HIXES,C,old,z,./images/HIXES.png,,,,,,,,,,,,,,,,,,,,,,,,,,,,,,,,,
,,,,,,,,,,,,,,,,,5cadf2fa7e99a900171c4705,42,2022-02-12_16h48.40.333,lexical_decision_task_DD_L2,2021.2.3,iPhone,62.5,,,,,,,,,,0.751,1,,,,,,,,,,,,,,,0,0.445918367,-0.304081633,1,0,0,0.751,button_right_main,0.445918367,-0.304081633,1,0,0,,0,146,146,21,1,KIDNEY,HB,old,m,./images/KIDNEYHB.png,,,,,,,,,,,,,,,,,,,,,,,,,,,,,,,,,
,,,,,,,,,,,,,,,,,5cadf2fa7e99a900171c4705,42,2022-02-12_16h48.40.333,lexical_decision_task_DD_L2,2021.2.3,iPhone,62.5,,,,,,,,,,0.659,1,,,,,,,,,,,,,,,0,0.412244898,-0.266326531,1,0,0,0.659,button_right_main,0.412244898,-0.266326531,1,0,0,,0,147,147,78,1,LITTER,HB,old,m,./images/LITTERHB.png,,,,,,,,,,,,,,,,,,,,,,,,,,,,,,,,,
,,,,,,,,,,,,,,,,,5cadf2fa7e99a900171c4705,42,2022-02-12_16h48.40.333,lexical_decision_task_DD_L2,2021.2.3,iPhone,62.5,,,,,,,,,,0.57,1,,,,,,,,,,,,,,,0,-0.405102041,-0.314285714,1,0,0,0.57,button_left_main,-0.405102041,-0.314285714,1,0,0,,0,148,148,123,1,SEDGE,C,old,z,./images/SEDGE.png,,,,,,,,,,,,,,,,,,,,,,,,,,,,,,,,,
,,,,,,,,,,,,,,,,,5cadf2fa7e99a900171c4705,42,2022-02-12_16h48.40.333,lexical_decision_task_DD_L2,2021.2.3,iPhone,62.5,,,,,,,,,,0.67,1,,,,,,,,,,,,,,,0,0.384693878,-0.283673469,1,0,0,0.67,button_right_main,0.384693878,-0.283673469,1,0,0,,0,149,149,18,1,JAGUAR,HB,old,m,./images/JAGUARHB.png,,,,,,,,,,,,,,,,,,,,,,,,,,,,,,,,,
,,,,,,,,,,,,,,,,,5cadf2fa7e99a900171c4705,42,2022-02-12_16h48.40.333,lexical_decision_task_DD_L2,2021.2.3,iPhone,62.5,,,,,,,,,,0.499,1,,,,,,,,,,,,,,,0,0.385714286,-0.287755102,1,0,0,0.499,button_right_main,0.385714286,-0.287755102,1,0,0,,0,150,150,45,1,KITTEN,HB,old,m,./images/KITTENHB.png,,,,,,,,,,,,,,,,,,,,,,,,,,,,,,,,,
,,,,,,,,,,,,,,,,,5cadf2fa7e99a900171c4705,42,2022-02-12_16h48.40.333,lexical_decision_task_DD_L2,2021.2.3,iPhone,62.5,,,,,,,,,,0.801,0,,,,,,,,,,,,,,,0,0.401020408,-0.273469388,1,0,0,0.801,button_right_main,0.401020408,-0.273469388,1,0,0,,0,151,151,128,1,GRIFT,LB,old,z,./images/GRIFTLB.png,,,,,,,,,,,,,,,,,,,,,,,,,,,,,,,,,
,,,,,,,,,,,,,,,,,5cadf2fa7e99a900171c4705,42,2022-02-12_16h48.40.333,lexical_decision_task_DD_L2,2021.2.3,iPhone,62.5,,,,,,,,,,0.636,1,,,,,,,,,,,,,,,0,-0.401020408,-0.318367347,1,0,0,0.636,button_left_main,-0.401020408,-0.318367347,1,0,0,,0,152,152,141,1,PLEET,C,old,z,./images/PLEET.png,,,,,,,,,,,,,,,,,,,,,,,,,,,,,,,,,
,,,,,,,,,,,,,,,,,5cadf2fa7e99a900171c4705,42,2022-02-12_16h48.40.333,lexical_decision_task_DD_L2,2021.2.3,iPhone,62.5,,,,,,,,,,0.623,0,,,,,,,,,,,,,,,0,-0.397959184,-0.293877551,1,0,0,0.623,button_left_main,-0.397959184,-0.293877551,1,0,0,,0,153,153,33,1,MAGGOT,HB,old,m,./images/MAGGOTHB.png,,,,,,,,,,,,,,,,,,,,,,,,,,,,,,,,,
,,,,,,,,,,,,,,,,,5cadf2fa7e99a900171c4705,42,2022-02-12_16h48.40.333,lexical_decision_task_DD_L2,2021.2.3,iPhone,62.5,,,,,,,,,,0.564,1,,,,,,,,,,,,,,,0,0.412244898,-0.297959184,1,0,0,0.564,button_right_main,0.412244898,-0.297959184,1,0,0,,0,154,154,65,1,FARMER,C,old,m,./images/FARMER.png,,,,,,,,,,,,,,,,,,,,,,,,,,,,,,,,,
,,,,,,,,,,,,,,,,,5cadf2fa7e99a900171c4705,42,2022-02-12_16h48.40.333,lexical_decision_task_DD_L2,2021.2.3,iPhone,62.5,,,,,,,,,,0.623,1,,,,,,,,,,,,,,,0,0.4,-0.27755102,1,0,0,0.623,button_right_main,0.4,-0.27755102,1,0,0,,0,155,155,9,1,RHINO,HB,old,m,./images/RHINOHB.png,,,,,,,,,,,,,,,,,,,,,,,,,,,,,,,,,
,,,,,,,,,,,,,,,,,5cadf2fa7e99a900171c4705,42,2022-02-12_16h48.40.333,lexical_decision_task_DD_L2,2021.2.3,iPhone,62.5,,,,,,,,,,0.566,1,,,,,,,,,,,,,,,0,0.376530612,-0.281632653,1,0,0,0.566,button_right_main,0.376530612,-0.281632653,1,0,0,,0,156,156,79,1,CRUST,LB,old,m,./images/CRUSTLB.png,,,,,,,,,,,,,,,,,,,,,,,,,,,,,,,,,
,,,,,,,,,,,,,,,,,5cadf2fa7e99a900171c4705,42,2022-02-12_16h48.40.333,lexical_decision_task_DD_L2,2021.2.3,iPhone,62.5,,,,,,,,,,0.952,1,,,,,,,,,,,,,,,0,0.383673469,-0.270408163,1,0,0,0.952,button_right_main,0.383673469,-0.270408163,1,0,0,,0,157,157,69,1,COOKER,HB,old,m,./images/COOKERHB.png,,,,,,,,,,,,,,,,,,,,,,,,,,,,,,,,,
,,,,,,,,,,,,,,,,,5cadf2fa7e99a900171c4705,42,2022-02-12_16h48.40.333,lexical_decision_task_DD_L2,2021.2.3,iPhone,62.5,,,,,,,,,,0.528,1,,,,,,,,,,,,,,,0,-0.386734694,-0.337755102,1,0,0,0.528,button_left_main,-0.386734694,-0.337755102,1,0,0,,0,158,158,136,1,WERVE,HB,old,z,./images/WERVEHB.png,,,,,,,,,,,,,,,,,,,,,,,,,,,,,,,,,
,,,,,,,,,,,,,,,,,5cadf2fa7e99a900171c4705,42,2022-02-12_16h48.40.333,lexical_decision_task_DD_L2,2021.2.3,iPhone,62.5,,,,,,,,,,0.822,1,,,,,,,,,,,,,,,0,-0.392857143,-0.333673469,1,0,0,0.822,button_left_main,-0.392857143,-0.333673469,1,0,0,,0,159,159,126,1,GUELS,C,old,z,./images/GUELS.png,,,,,,,,,,,,,,,,,,,,,,,,,,,,,,,,,
,,,,,,,,,,,,,,,,,5cadf2fa7e99a900171c4705,42,2022-02-12_16h48.40.333,lexical_decision_task_DD_L2,2021.2.3,iPhone,62.5,,,,,,,,,,0.774,1,,,,,,,,,,,,,,,0,-0.370408163,-0.354081633,1,0,0,0.774,button_left_main,-0.370408163,-0.354081633,1,0,0,,0,160,160,125,1,MOOKY,LB,old,z,./images/MOOKYLB.png,,,,,,,,,,,,,,,,,,,,,,,,,,,,,,,,,
,,,,,,,,,,,,,,,,,5cadf2fa7e99a900171c4705,42,2022-02-12_16h48.40.333,lexical_decision_task_DD_L2,2021.2.3,iPhone,62.5,,,,,,,,,,0.503,1,,,,,,,,,,,,,,,0,-0.369387755,-0.326530612,1,0,0,0.503,button_left_main,-0.369387755,-0.326530612,1,0,0,,0,161,161,113,1,LINEW,LB,old,z,./images/LINEWLB.png,,,,,,,,,,,,,,,,,,,,,,,,,,,,,,,,,
,,,,,,,,,,,,,,,,,5cadf2fa7e99a900171c4705,42,2022-02-12_16h48.40.333,lexical_decision_task_DD_L2,2021.2.3,iPhone,62.5,,,,,,,,,,0.55,1,,,,,,,,,,,,,,,0,0.369387755,-0.27244898,1,0,0,0.55,button_right_main,0.369387755,-0.27244898,1,0,0,,0,162,162,55,1,MUFFIN,LB,old,m,./images/MUFFINLB.png,,,,,,,,,,,,,,,,,,,,,,,,,,,,,,,,,
,,,,,,,,,,,,,,,,,5cadf2fa7e99a900171c4705,42,2022-02-12_16h48.40.333,lexical_decision_task_DD_L2,2021.2.3,iPhone,62.5,,,,,,,,,,0.587,1,,,,,,,,,,,,,,,0,0.373469388,-0.330612245,1,0,0,0.587,button_right_main,0.373469388,-0.330612245,1,0,0,,0,163,163,14,1,PICKLE,C,old,m,./images/PICKLE.png,,,,,,,,,,,,,,,,,,,,,,,,,,,,,,,,,
,,,,,,,,,,,,,,,,,5cadf2fa7e99a900171c4705,42,2022-02-12_16h48.40.333,lexical_decision_task_DD_L2,2021.2.3,iPhone,62.5,,,,,,,,,,0.687,1,,,,,,,,,,,,,,,0,0.382653061,-0.270408163,1,0,0,0.687,button_right_main,0.382653061,-0.270408163,1,0,0,,0,164,164,75,1,GRAIN,HB,old,m,./images/GRAINHB.png,,,,,,,,,,,,,,,,,,,,,,,,,,,,,,,,,
,,,,,,,,,,,,,,,,,5cadf2fa7e99a900171c4705,42,2022-02-12_16h48.40.333,lexical_decision_task_DD_L2,2021.2.3,iPhone,62.5,,,,,,,,,,0.718,1,,,,,,,,,,,,,,,0,0.390816327,-0.278571429,1,0,0,0.718,button_right_main,0.390816327,-0.278571429,1,0,0,,0,165,165,1,1,PLANK,LB,old,m,./images/PLANKLB.png,,,,,,,,,,,,,,,,,,,,,,,,,,,,,,,,,
,,,,,,,,,,,,,,,,,5cadf2fa7e99a900171c4705,42,2022-02-12_16h48.40.333,lexical_decision_task_DD_L2,2021.2.3,iPhone,62.5,,,,,,,,,,0.514,1,,,,,,,,,,,,,,,0,0.398979592,-0.3,1,0,0,0.514,button_right_main,0.398979592,-0.3,1,0,0,,0,166,166,23,1,WALRUS,C,old,m,./images/WALRUS.png,,,,,,,,,,,,,,,,,,,,,,,,,,,,,,,,,
,,,,,,,,,,,,,,,,,5cadf2fa7e99a900171c4705,42,2022-02-12_16h48.40.333,lexical_decision_task_DD_L2,2021.2.3,iPhone,62.5,,,,,,,,,,1.199,1,,,,,,,,,,,,,,,0,0.366326531,-0.278571429,1,0,0,1.199,button_right_main,0.366326531,-0.278571429,1,0,0,,0,167,167,31,1,QUILL,LB,old,m,./images/QUILLLB.png,,,,,,,,,,,,,,,,,,,,,,,,,,,,,,,,,
,,,,,,,,,,,,,,,,,5cadf2fa7e99a900171c4705,42,2022-02-12_16h48.40.333,lexical_decision_task_DD_L2,2021.2.3,iPhone,62.5,,,,,,,,,,,,,,,,,,,,,,,,,,,,,,,,,,,,,,,,,,,,,,How likely will it be that you will recognize the words presented very blurred on a scale of 0 (not likely) to 100 (most likely)?,,,,,0.020408163,-0.439795918,1,0,0,jol_adv,3,6.026,0,0,0,2,1,,,,,,,,,,,,,,,,,,,
,,,,,,,,,,,,,,,,,5cadf2fa7e99a900171c4705,42,2022-02-12_16h48.40.333,lexical_decision_task_DD_L2,2021.2.3,iPhone,62.5,,,,,,,,,,,,,,,,,,,,,,,,,,,,,,,,,,,,,,,,,,,,,,How likely will it be that you will recognize the words presented slighly blurred on a scale of 0 (not likely) to 100 (most likely)?,,,,,,,,,,,4,3.869,0,1,1,1,1,,,,,,,,,,,,,,,,,,,
,,,,,,,,,,,,,,,,,5cadf2fa7e99a900171c4705,42,2022-02-12_16h48.40.333,lexical_decision_task_DD_L2,2021.2.3,iPhone,62.5,,,,,,,,,,,,,,,,,,,,,,,,,,,,,,,,,,,,,,,,,,,,,,How likely will it be that you will recognize the words presented clearly on a scale of 0 (not likely) to 100 (most likely)?,,,,,,,,,,,6,2.812,0,2,2,0,1,,,,,,,,,,,,,,,,,,,
,0.063265306,-0.390816327,1,0,0,instr_done_button,,,,,,1,test,"In the next phase you will be presented with the words from the the first phase. Your job is to decide whether you remember seeing the word or not. If you remember seeing the word press ""old"" or type ""m"". If you do not remember seeing the word press ""new"" or type ""z"". Please press the space bar or click on continue to begin. ",,,5cadf2fa7e99a900171c4705,42,2022-02-12_16h48.40.333,lexical_decision_task_DD_L2,2021.2.3,iPhone,62.5,,,,,,,,,,,,,,,,,,,,,,,,,,,,,,,,,,,,,,,,,,,,,,,,,,,,,,,,,,,,,,,,0,0,0,0,1,,,,,,,,,,,,,,
,-0.023469388,-0.389795918,1,0,0,instr_done_button,,,,,,1,test,"In the next phase you will be presented with the words from the the first phase. Your job is to decide whether you remember seeing the word or not. If you remember seeing the word press ""old"" or type ""m"". If you do not remember seeing the word press ""new"" or type ""z"". Please press the space bar or click on continue to begin. ",,,5cadf2fa7e99a900171c4705,42,2022-02-12_16h48.40.333,lexical_decision_task_DD_L2,2021.2.3,iPhone,62.5,,,,,,,,,,,,,,,,,,,,,,,,,,,,,,,,,,,,,,,,,,,,,,,,,,,,,,,,,,,,,,,,1,0,1,0,1,,,,,,,,,,,,,,
,0.015306122,-0.43877551,1,0,0,instr_done_button,,,,,,1,test,"In the next phase you will be presented with the words from the the first phase. Your job is to decide whether you remember seeing the word or not. If you remember seeing the word press ""old"" or type ""m"". If you do not remember seeing the word press ""new"" or type ""z"". Please press the space bar or click on continue to begin. ",,,5cadf2fa7e99a900171c4705,42,2022-02-12_16h48.40.333,lexical_decision_task_DD_L2,2021.2.3,iPhone,62.5,,,,,,,,,,,,,,,,,,,,,,,,,,,,,,,,,,,,,,,,,,,,,,,,,,,,,,,,,,,,,,,,2,0,2,0,1,,,,,,,,,,,,,,
,-0.002040816,-0.384693878,1,0,0,instr_done_button,,,,,,1,test,"In the next phase you will be presented with the words from the the first phase. Your job is to decide whether you remember seeing the word or not. If you remember seeing the word press ""old"" or type ""m"". If you do not remember seeing the word press ""new"" or type ""z"". Please press the space bar or click on continue to begin. ",,,5cadf2fa7e99a900171c4705,42,2022-02-12_16h48.40.333,lexical_decision_task_DD_L2,2021.2.3,iPhone,62.5,,,,,,,,,,,,,,,,,,,,,,,,,,,,,,,,,,,,,,,,,,,,,,,,,,,,,,,,,,,,,,,,3,0,3,0,1,,,,,,,,,,,,,,
,-0.002040816,-0.393877551,1,0,0,instr_done_button,,,,,,1,test,"In the next phase you will be presented with the words from the the first phase. Your job is to decide whether you remember seeing the word or not. If you remember seeing the word press ""old"" or type ""m"". If you do not remember seeing the word press ""new"" or type ""z"". Please press the space bar or click on continue to begin. ",,,5cadf2fa7e99a900171c4705,42,2022-02-12_16h48.40.333,lexical_decision_task_DD_L2,2021.2.3,iPhone,62.5,,,,,,,,,,,,,,,,,,,,,,,,,,,,,,,,,,,,,,,,,,,,,,,,,,,,,,,,,,,,,,,,4,0,4,0,1,,,,,,,,,,,,,,
,,,,,,,,,,,,,,,,,5cadf2fa7e99a900171c4705,42,2022-02-12_16h48.40.333,lexical_decision_task_DD_L2,2021.2.3,iPhone,62.5,,,,,,,,,,1.446,1,,,,,,,,,,,,,,,,,,,,,,,0.353061224,-0.260204082,1,0,0,,,,,,,TRIPOD,HB,m,y,./images/TRIPODHB.png,,,,,,,,,,,,,,,,,,,,,0,0.353061224,-0.260204082,1,0,0,1.446,button_right_test,0,0,0,54,1
,,,,,,,,,,,,,,,,,5cadf2fa7e99a900171c4705,42,2022-02-12_16h48.40.333,lexical_decision_task_DD_L2,2021.2.3,iPhone,62.5,,,,,,,,,,0.772,1,,,,,,,,,,,,,,,,,,,,,,,0.360204082,-0.296938776,1,0,0,,,,,,,SMOKER,C,m,y,./images/SMOKER.png,,,,,,,,,,,,,,,,,,,,,0,0.360204082,-0.296938776,1,0,0,0.772,button_right_test,0,1,1,26,1
,,,,,,,,,,,,,,,,,5cadf2fa7e99a900171c4705,42,2022-02-12_16h48.40.333,lexical_decision_task_DD_L2,2021.2.3,iPhone,62.5,,,,,,,,,,0.874,0,,,,,,,,,,,,,,,,,,,,,,,0.364285714,-0.293877551,1,0,0,,,,,,,CLOTH,C,z,y,./images/CLOTH.png,,,,,,,,,,,,,,,,,,,,,0,0.364285714,-0.293877551,1,0,0,0.874,button_right_test,0,2,2,107,1
,,,,,,,,,,,,,,,,,5cadf2fa7e99a900171c4705,42,2022-02-12_16h48.40.333,lexical_decision_task_DD_L2,2021.2.3,iPhone,62.5,,,,,,,,,,0.959,0,,,,,,,,,,,,,,,,,,,,,,,-0.354081633,-0.307142857,1,0,0,,,,,,,SQUARE,HB,m,y,./images/SQUAREHB.png,,,,,,,,,,,,,,,,,,,,,0,-0.354081633,-0.307142857,1,0,0,0.959,button_left_test,0,3,3,6,1
,,,,,,,,,,,,,,,,,5cadf2fa7e99a900171c4705,42,2022-02-12_16h48.40.333,lexical_decision_task_DD_L2,2021.2.3,iPhone,62.5,,,,,,,,,,0.906,0,,,,,,,,,,,,,,,,,,,,,,,0.370408163,-0.27755102,1,0,0,,,,,,,PILOT,C,z,y,./images/PILOT.png,,,,,,,,,,,,,,,,,,,,,0,0.370408163,-0.27755102,1,0,0,0.906,button_right_test,0,4,4,134,1
,,,,,,,,,,,,,,,,,5cadf2fa7e99a900171c4705,42,2022-02-12_16h48.40.333,lexical_decision_task_DD_L2,2021.2.3,iPhone,62.5,,,,,,,,,,1.076,1,,,,,,,,,,,,,,,,,,,,,,,-0.352040816,-0.267346939,1,0,0,,,,,,,FENCE,C,z,y,./images/FENCE.png,,,,,,,,,,,,,,,,,,,,,0,-0.352040816,-0.267346939,1,0,0,1.076,button_left_test,0,5,5,98,1
,,,,,,,,,,,,,,,,,5cadf2fa7e99a900171c4705,42,2022-02-12_16h48.40.333,lexical_decision_task_DD_L2,2021.2.3,iPhone,62.5,,,,,,,,,,0.899,1,,,,,,,,,,,,,,,,,,,,,,,0.366326531,-0.289795918,1,0,0,,,,,,,ATTIC,HB,m,y,./images/ATTICHB.png,,,,,,,,,,,,,,,,,,,,,0,0.366326531,-0.289795918,1,0,0,0.899,button_right_test,0,6,6,27,1
,,,,,,,,,,,,,,,,,5cadf2fa7e99a900171c4705,42,2022-02-12_16h48.40.333,lexical_decision_task_DD_L2,2021.2.3,iPhone,62.5,,,,,,,,,,0.733,1,,,,,,,,,,,,,,,,,,,,,,,0.359183673,-0.293877551,1,0,0,,,,,,,SNACK,LB,m,y,./images/SNACKLB.png,,,,,,,,,,,,,,,,,,,,,0,0.359183673,-0.293877551,1,0,0,0.733,button_right_test,0,7,7,73,1
,,,,,,,,,,,,,,,,,5cadf2fa7e99a900171c4705,42,2022-02-12_16h48.40.333,lexical_decision_task_DD_L2,2021.2.3,iPhone,62.5,,,,,,,,,,0.725,0,,,,,,,,,,,,,,,,,,,,,,,0.37755102,-0.252040816,1,0,0,,,,,,,POSTER,C,z,y,./images/POSTER.png,,,,,,,,,,,,,,,,,,,,,0,0.37755102,-0.252040816,1,0,0,0.725,button_right_test,0,8,8,137,1
,,,,,,,,,,,,,,,,,5cadf2fa7e99a900171c4705,42,2022-02-12_16h48.40.333,lexical_decision_task_DD_L2,2021.2.3,iPhone,62.5,,,,,,,,,,0.737,0,,,,,,,,,,,,,,,,,,,,,,,-0.332653061,-0.283673469,1,0,0,,,,,,,WRIST,LB,m,y,./images/WRISTLB.png,,,,,,,,,,,,,,,,,,,,,0,-0.332653061,-0.283673469,1,0,0,0.737,button_left_test,0,9,9,25,1
,,,,,,,,,,,,,,,,,5cadf2fa7e99a900171c4705,42,2022-02-12_16h48.40.333,lexical_decision_task_DD_L2,2021.2.3,iPhone,62.5,,,,,,,,,,0.749,1,,,,,,,,,,,,,,,,,,,,,,,0.359183673,-0.306122449,1,0,0,,,,,,,MOSQUE,LB,m,y,./images/MOSQUELB.png,,,,,,,,,,,,,,,,,,,,,0,0.359183673,-0.306122449,1,0,0,0.749,button_right_test,0,10,10,43,1
,,,,,,,,,,,,,,,,,5cadf2fa7e99a900171c4705,42,2022-02-12_16h48.40.333,lexical_decision_task_DD_L2,2021.2.3,iPhone,62.5,,,,,,,,,,0.9,1,,,,,,,,,,,,,,,,,,,,,,,-0.302040816,-0.275510204,1,0,0,,,,,,,VALLEY,C,z,y,./images/VALLEY.png,,,,,,,,,,,,,,,,,,,,,0,-0.302040816,-0.275510204,1,0,0,0.9,button_left_test,0,11,11,152,1
,,,,,,,,,,,,,,,,,5cadf2fa7e99a900171c4705,42,2022-02-12_16h48.40.333,lexical_decision_task_DD_L2,2021.2.3,iPhone,62.5,,,,,,,,,,1.244,0,,,,,,,,,,,,,,,,,,,,,,,-0.294897959,-0.270408163,1,0,0,,,,,,,DRUMS,LB,m,y,./images/DRUMSLB.png,,,,,,,,,,,,,,,,,,,,,0,-0.294897959,-0.270408163,1,0,0,1.244,button_left_test,0,12,12,49,1
,,,,,,,,,,,,,,,,,5cadf2fa7e99a900171c4705,42,2022-02-12_16h48.40.333,lexical_decision_task_DD_L2,2021.2.3,iPhone,62.5,,,,,,,,,,0.77,0,,,,,,,,,,,,,,,,,,,,,,,0.369387755,-0.289795918,1,0,0,,,,,,,FLASK,HB,z,y,./images/FLASKHB.png,,,,,,,,,,,,,,,,,,,,,0,0.369387755,-0.289795918,1,0,0,0.77,button_right_test,0,13,13,156,1
,,,,,,,,,,,,,,,,,5cadf2fa7e99a900171c4705,42,2022-02-12_16h48.40.333,lexical_decision_task_DD_L2,2021.2.3,iPhone,62.5,,,,,,,,,,0.8,0,,,,,,,,,,,,,,,,,,,,,,,0.364285714,-0.285714286,1,0,0,,,,,,,CLIFF,C,z,y,./images/CLIFF.png,,,,,,,,,,,,,,,,,,,,,0,0.364285714,-0.285714286,1,0,0,0.8,button_right_test,0,14,14,92,1
,,,,,,,,,,,,,,,,,5cadf2fa7e99a900171c4705,42,2022-02-12_16h48.40.333,lexical_decision_task_DD_L2,2021.2.3,iPhone,62.5,,,,,,,,,,0.871,1,,,,,,,,,,,,,,,,,,,,,,,-0.280612245,-0.301020408,1,0,0,,,,,,,CASINO,LB,z,y,./images/CASINOLB.png,,,,,,,,,,,,,,,,,,,,,0,-0.280612245,-0.301020408,1,0,0,0.871,button_left_test,0,15,15,112,1
,,,,,,,,,,,,,,,,,5cadf2fa7e99a900171c4705,42,2022-02-12_16h48.40.333,lexical_decision_task_DD_L2,2021.2.3,iPhone,62.5,,,,,,,,,,0.906,1,,,,,,,,,,,,,,,,,,,,,,,-0.31122449,-0.255102041,1,0,0,,,,,,,BAMBOO,C,z,y,./images/BAMBOO.png,,,,,,,,,,,,,,,,,,,,,0,-0.31122449,-0.255102041,1,0,0,0.906,button_left_test,0,16,16,89,1
,,,,,,,,,,,,,,,,,5cadf2fa7e99a900171c4705,42,2022-02-12_16h48.40.333,lexical_decision_task_DD_L2,2021.2.3,iPhone,62.5,,,,,,,,,,1.221,0,,,,,,,,,,,,,,,,,,,,,,,-0.297959184,-0.270408163,1,0,0,,,,,,,JAGUAR,HB,m,y,./images/JAGUARHB.png,,,,,,,,,,,,,,,,,,,,,0,-0.297959184,-0.270408163,1,0,0,1.221,button_left_test,0,17,17,18,1
,,,,,,,,,,,,,,,,,5cadf2fa7e99a900171c4705,42,2022-02-12_16h48.40.333,lexical_decision_task_DD_L2,2021.2.3,iPhone,62.5,,,,,,,,,,0.803,1,,,,,,,,,,,,,,,,,,,,,,,-0.313265306,-0.289795918,1,0,0,,,,,,,SLOPE,HB,z,y,./images/SLOPEHB.png,,,,,,,,,,,,,,,,,,,,,0,-0.313265306,-0.289795918,1,0,0,0.803,button_left_test,0,18,18,114,1
,,,,,,,,,,,,,,,,,5cadf2fa7e99a900171c4705,42,2022-02-12_16h48.40.333,lexical_decision_task_DD_L2,2021.2.3,iPhone,62.5,,,,,,,,,,0.882,0,,,,,,,,,,,,,,,,,,,,,,,-0.307142857,-0.279591837,1,0,0,,,,,,,KIDNEY,HB,m,y,./images/KIDNEYHB.png,,,,,,,,,,,,,,,,,,,,,0,-0.307142857,-0.279591837,1,0,0,0.882,button_left_test,0,19,19,21,1
,,,,,,,,,,,,,,,,,5cadf2fa7e99a900171c4705,42,2022-02-12_16h48.40.333,lexical_decision_task_DD_L2,2021.2.3,iPhone,62.5,,,,,,,,,,1.247,1,,,,,,,,,,,,,,,,,,,,,,,0.390816327,-0.268367347,1,0,0,,,,,,,CRADLE,C,m,y,./images/CRADLE.png,,,,,,,,,,,,,,,,,,,,,0,0.390816327,-0.268367347,1,0,0,1.247,button_right_test,0,20,20,20,1
,,,,,,,,,,,,,,,,,5cadf2fa7e99a900171c4705,42,2022-02-12_16h48.40.333,lexical_decision_task_DD_L2,2021.2.3,iPhone,62.5,,,,,,,,,,1.315,1,,,,,,,,,,,,,,,,,,,,,,,-0.318367347,-0.26122449,1,0,0,,,,,,,MUMMY,LB,z,y,./images/MUMMYLB.png,,,,,,,,,,,,,,,,,,,,,0,-0.318367347,-0.26122449,1,0,0,1.315,button_left_test,0,21,21,130,1
,,,,,,,,,,,,,,,,,5cadf2fa7e99a900171c4705,42,2022-02-12_16h48.40.333,lexical_decision_task_DD_L2,2021.2.3,iPhone,62.5,,,,,,,,,,0.983,1,,,,,,,,,,,,,,,,,,,,,,,-0.345918367,-0.275510204,1,0,0,,,,,,,LLAMA,C,z,y,./images/LLAMA.png,,,,,,,,,,,,,,,,,,,,,0,-0.345918367,-0.275510204,1,0,0,0.983,button_left_test,0,22,22,119,1
,,,,,,,,,,,,,,,,,5cadf2fa7e99a900171c4705,42,2022-02-12_16h48.40.333,lexical_decision_task_DD_L2,2021.2.3,iPhone,62.5,,,,,,,,,,0.684,0,,,,,,,,,,,,,,,,,,,,,,,0.383673469,-0.284693878,1,0,0,,,,,,,DIVER,HB,z,y,./images/DIVERHB.png,,,,,,,,,,,,,,,,,,,,,0,0.383673469,-0.284693878,1,0,0,0.684,button_right_test,0,23,23,93,1
,,,,,,,,,,,,,,,,,5cadf2fa7e99a900171c4705,42,2022-02-12_16h48.40.333,lexical_decision_task_DD_L2,2021.2.3,iPhone,62.5,,,,,,,,,,1.251,0,,,,,,,,,,,,,,,,,,,,,,,0.366326531,-0.294897959,1,0,0,,,,,,,PARCEL,HB,z,y,./images/PARCELHB.png,,,,,,,,,,,,,,,,,,,,,0,0.366326531,-0.294897959,1,0,0,1.251,button_right_test,0,24,24,102,1
,,,,,,,,,,,,,,,,,5cadf2fa7e99a900171c4705,42,2022-02-12_16h48.40.333,lexical_decision_task_DD_L2,2021.2.3,iPhone,62.5,,,,,,,,,,1.119,1,,,,,,,,,,,,,,,,,,,,,,,0.353061224,-0.320408163,1,0,0,,,,,,,THROAT,HB,m,y,./images/THROATHB.png,,,,,,,,,,,,,,,,,,,,,0,0.353061224,-0.320408163,1,0,0,1.119,button_right_test,0,25,25,36,1
,,,,,,,,,,,,,,,,,5cadf2fa7e99a900171c4705,42,2022-02-12_16h48.40.333,lexical_decision_task_DD_L2,2021.2.3,iPhone,62.5,,,,,,,,,,0.751,1,,,,,,,,,,,,,,,,,,,,,,,0.365306122,-0.285714286,1,0,0,,,,,,,GREASE,HB,m,y,./images/GREASEHB.png,,,,,,,,,,,,,,,,,,,,,0,0.365306122,-0.285714286,1,0,0,0.751,button_right_test,0,26,26,15,1
,,,,,,,,,,,,,,,,,5cadf2fa7e99a900171c4705,42,2022-02-12_16h48.40.333,lexical_decision_task_DD_L2,2021.2.3,iPhone,62.5,,,,,,,,,,0.873,1,,,,,,,,,,,,,,,,,,,,,,,-0.379591837,-0.284693878,1,0,0,,,,,,,GRAPE,LB,z,y,./images/GRAPELB.png,,,,,,,,,,,,,,,,,,,,,0,-0.379591837,-0.284693878,1,0,0,0.873,button_left_test,0,27,27,100,1
,,,,,,,,,,,,,,,,,5cadf2fa7e99a900171c4705,42,2022-02-12_16h48.40.333,lexical_decision_task_DD_L2,2021.2.3,iPhone,62.5,,,,,,,,,,0.877,1,,,,,,,,,,,,,,,,,,,,,,,0.385714286,-0.267346939,1,0,0,,,,,,,SWEAT,HB,m,y,./images/SWEATHB.png,,,,,,,,,,,,,,,,,,,,,0,0.385714286,-0.267346939,1,0,0,0.877,button_right_test,0,28,28,66,1
,,,,,,,,,,,,,,,,,5cadf2fa7e99a900171c4705,42,2022-02-12_16h48.40.333,lexical_decision_task_DD_L2,2021.2.3,iPhone,62.5,,,,,,,,,,0.735,1,,,,,,,,,,,,,,,,,,,,,,,-0.357142857,-0.294897959,1,0,0,,,,,,,BANANA,LB,z,y,./images/BANANALB.png,,,,,,,,,,,,,,,,,,,,,0,-0.357142857,-0.294897959,1,0,0,0.735,button_left_test,0,29,29,154,1
,,,,,,,,,,,,,,,,,5cadf2fa7e99a900171c4705,42,2022-02-12_16h48.40.333,lexical_decision_task_DD_L2,2021.2.3,iPhone,62.5,,,,,,,,,,0.972,1,,,,,,,,,,,,,,,,,,,,,,,-0.353061224,-0.308163265,1,0,0,,,,,,,COLLAR,HB,z,y,./images/COLLARHB.png,,,,,,,,,,,,,,,,,,,,,0,-0.353061224,-0.308163265,1,0,0,0.972,button_left_test,0,30,30,99,1
,,,,,,,,,,,,,,,,,5cadf2fa7e99a900171c4705,42,2022-02-12_16h48.40.333,lexical_decision_task_DD_L2,2021.2.3,iPhone,62.5,,,,,,,,,,0.933,1,,,,,,,,,,,,,,,,,,,,,,,0.389795918,-0.279591837,1,0,0,,,,,,,PASTA,C,m,y,./images/PASTA.png,,,,,,,,,,,,,,,,,,,,,0,0.389795918,-0.279591837,1,0,0,0.933,button_right_test,0,31,31,5,1
,,,,,,,,,,,,,,,,,5cadf2fa7e99a900171c4705,42,2022-02-12_16h48.40.333,lexical_decision_task_DD_L2,2021.2.3,iPhone,62.5,,,,,,,,,,1.155,0,,,,,,,,,,,,,,,,,,,,,,,0.393877551,-0.271428571,1,0,0,,,,,,,BOXER,LB,z,y,./images/BOXERLB.png,,,,,,,,,,,,,,,,,,,,,0,0.393877551,-0.271428571,1,0,0,1.155,button_right_test,0,32,32,88,1
,,,,,,,,,,,,,,,,,5cadf2fa7e99a900171c4705,42,2022-02-12_16h48.40.333,lexical_decision_task_DD_L2,2021.2.3,iPhone,62.5,,,,,,,,,,1.202,1,,,,,,,,,,,,,,,,,,,,,,,0.380612245,-0.271428571,1,0,0,,,,,,,GRAIN,HB,m,y,./images/GRAINHB.png,,,,,,,,,,,,,,,,,,,,,0,0.380612245,-0.271428571,1,0,0,1.202,button_right_test,0,33,33,75,1
,,,,,,,,,,,,,,,,,5cadf2fa7e99a900171c4705,42,2022-02-12_16h48.40.333,lexical_decision_task_DD_L2,2021.2.3,iPhone,62.5,,,,,,,,,,0.755,0,,,,,,,,,,,,,,,,,,,,,,,0.363265306,-0.312244898,1,0,0,,,,,,,BASKET,C,z,y,./images/BASKET.png,,,,,,,,,,,,,,,,,,,,,0,0.363265306,-0.312244898,1,0,0,0.755,button_right_test,0,34,34,128,1
,,,,,,,,,,,,,,,,,5cadf2fa7e99a900171c4705,42,2022-02-12_16h48.40.333,lexical_decision_task_DD_L2,2021.2.3,iPhone,62.5,,,,,,,,,,0.733,1,,,,,,,,,,,,,,,,,,,,,,,0.346938776,-0.317346939,1,0,0,,,,,,,QUILL,LB,m,y,./images/QUILLLB.png,,,,,,,,,,,,,,,,,,,,,0,0.346938776,-0.317346939,1,0,0,0.733,button_right_test,0,35,35,31,1
,,,,,,,,,,,,,,,,,5cadf2fa7e99a900171c4705,42,2022-02-12_16h48.40.333,lexical_decision_task_DD_L2,2021.2.3,iPhone,62.5,,,,,,,,,,0.716,1,,,,,,,,,,,,,,,,,,,,,,,0.351020408,-0.298979592,1,0,0,,,,,,,BONNET,C,m,y,./images/BONNET.png,,,,,,,,,,,,,,,,,,,,,0,0.351020408,-0.298979592,1,0,0,0.716,button_right_test,0,36,36,11,1
,,,,,,,,,,,,,,,,,5cadf2fa7e99a900171c4705,42,2022-02-12_16h48.40.333,lexical_decision_task_DD_L2,2021.2.3,iPhone,62.5,,,,,,,,,,0.922,0,,,,,,,,,,,,,,,,,,,,,,,-0.37244898,-0.291836735,1,0,0,,,,,,,CANDLE,LB,m,y,./images/CANDLELB.png,,,,,,,,,,,,,,,,,,,,,0,-0.37244898,-0.291836735,1,0,0,0.922,button_left_test,0,37,37,61,1
,,,,,,,,,,,,,,,,,5cadf2fa7e99a900171c4705,42,2022-02-12_16h48.40.333,lexical_decision_task_DD_L2,2021.2.3,iPhone,62.5,,,,,,,,,,0.805,1,,,,,,,,,,,,,,,,,,,,,,,0.37755102,-0.279591837,1,0,0,,,,,,,PURSE,C,m,y,./images/PURSE.png,,,,,,,,,,,,,,,,,,,,,0,0.37755102,-0.279591837,1,0,0,0.805,button_right_test,0,38,38,62,1
,,,,,,,,,,,,,,,,,5cadf2fa7e99a900171c4705,42,2022-02-12_16h48.40.333,lexical_decision_task_DD_L2,2021.2.3,iPhone,62.5,,,,,,,,,,2.735,0,,,,,,,,,,,,,,,,,,,,,,,0.357142857,-0.275510204,1,0,0,,,,,,,WHISKY,C,z,y,./images/WHISKY.png,,,,,,,,,,,,,,,,,,,,,0,0.357142857,-0.275510204,1,0,0,2.735,button_right_test,0,39,39,167,1
,,,,,,,,,,,,,,,,,5cadf2fa7e99a900171c4705,42,2022-02-12_16h48.40.333,lexical_decision_task_DD_L2,2021.2.3,iPhone,62.5,,,,,,,,,,0.832,1,,,,,,,,,,,,,,,,,,,,,,,0.359183673,-0.296938776,1,0,0,,,,,,,RHINO,HB,m,y,./images/RHINOHB.png,,,,,,,,,,,,,,,,,,,,,0,0.359183673,-0.296938776,1,0,0,0.832,button_right_test,0,40,40,9,1
,,,,,,,,,,,,,,,,,5cadf2fa7e99a900171c4705,42,2022-02-12_16h48.40.333,lexical_decision_task_DD_L2,2021.2.3,iPhone,62.5,,,,,,,,,,0.699,0,,,,,,,,,,,,,,,,,,,,,,,0.057142857,-0.4,1,0,0,,,,,,,TOMATO,HB,m,y,./images/TOMATOHB.png,break_done_button,,,,,,,,,,,,,,,,,,,,0,-0.366326531,-0.296938776,1,0,0,0.699,button_left_test,0,41,41,0,1
,,,,,,,,,,,,,,,,,5cadf2fa7e99a900171c4705,42,2022-02-12_16h48.40.333,lexical_decision_task_DD_L2,2021.2.3,iPhone,62.5,,,,,,,,,,1.051,1,,,,,,,,,,,,,,,,,,,,,,,0.337755102,-0.292857143,1,0,0,,,,,,,BABOON,LB,m,y,./images/BABOONLB.png,,,,,,,,,,,,,,,,,,,,,0,0.337755102,-0.292857143,1,0,0,1.051,button_right_test,0,42,42,58,1
,,,,,,,,,,,,,,,,,5cadf2fa7e99a900171c4705,42,2022-02-12_16h48.40.333,lexical_decision_task_DD_L2,2021.2.3,iPhone,62.5,,,,,,,,,,1.931,1,,,,,,,,,,,,,,,,,,,,,,,-0.365306122,-0.313265306,1,0,0,,,,,,,CLOUD,C,z,y,./images/CLOUD.png,,,,,,,,,,,,,,,,,,,,,0,-0.365306122,-0.313265306,1,0,0,1.931,button_left_test,0,43,43,110,1
,,,,,,,,,,,,,,,,,5cadf2fa7e99a900171c4705,42,2022-02-12_16h48.40.333,lexical_decision_task_DD_L2,2021.2.3,iPhone,62.5,,,,,,,,,,0.74,1,,,,,,,,,,,,,,,,,,,,,,,0.331632653,-0.284693878,1,0,0,,,,,,,SWING,LB,m,y,./images/SWINGLB.png,,,,,,,,,,,,,,,,,,,,,0,0.331632653,-0.284693878,1,0,0,0.74,button_right_test,0,44,44,40,1
,,,,,,,,,,,,,,,,,5cadf2fa7e99a900171c4705,42,2022-02-12_16h48.40.333,lexical_decision_task_DD_L2,2021.2.3,iPhone,62.5,,,,,,,,,,1.859,0,,,,,,,,,,,,,,,,,,,,,,,-0.359183673,-0.3,1,0,0,,,,,,,LADDER,C,m,y,./images/LADDER.png,,,,,,,,,,,,,,,,,,,,,0,-0.359183673,-0.3,1,0,0,1.859,button_left_test,0,45,45,38,1
,,,,,,,,,,,,,,,,,5cadf2fa7e99a900171c4705,42,2022-02-12_16h48.40.333,lexical_decision_task_DD_L2,2021.2.3,iPhone,62.5,,,,,,,,,,1.464,1,,,,,,,,,,,,,,,,,,,,,,,0.337755102,-0.287755102,1,0,0,,,,,,,PACKET,C,m,y,./images/PACKET.png,,,,,,,,,,,,,,,,,,,,,0,0.337755102,-0.287755102,1,0,0,1.464,button_right_test,0,46,46,56,1
,,,,,,,,,,,,,,,,,5cadf2fa7e99a900171c4705,42,2022-02-12_16h48.40.333,lexical_decision_task_DD_L2,2021.2.3,iPhone,62.5,,,,,,,,,,0.878,1,,,,,,,,,,,,,,,,,,,,,,,-0.333673469,-0.306122449,1,0,0,,,,,,,BLOKE,HB,z,y,./images/BLOKEHB.png,,,,,,,,,,,,,,,,,,,,,0,-0.333673469,-0.306122449,1,0,0,0.878,button_left_test,0,47,47,96,1
,,,,,,,,,,,,,,,,,5cadf2fa7e99a900171c4705,42,2022-02-12_16h48.40.333,lexical_decision_task_DD_L2,2021.2.3,iPhone,62.5,,,,,,,,,,1.057,0,,,,,,,,,,,,,,,,,,,,,,,0.371428571,-0.286734694,1,0,0,,,,,,,RAZOR,LB,z,y,./images/RAZORLB.png,,,,,,,,,,,,,,,,,,,,,0,0.371428571,-0.286734694,1,0,0,1.057,button_right_test,0,48,48,118,1
,,,,,,,,,,,,,,,,,5cadf2fa7e99a900171c4705,42,2022-02-12_16h48.40.333,lexical_decision_task_DD_L2,2021.2.3,iPhone,62.5,,,,,,,,,,0.632,0,,,,,,,,,,,,,,,,,,,,,,,0.358163265,-0.291836735,1,0,0,,,,,,,DRILL,HB,z,y,./images/DRILLHB.png,,,,,,,,,,,,,,,,,,,,,0,0.358163265,-0.291836735,1,0,0,0.632,button_right_test,0,49,49,165,1
,,,,,,,,,,,,,,,,,5cadf2fa7e99a900171c4705,42,2022-02-12_16h48.40.333,lexical_decision_task_DD_L2,2021.2.3,iPhone,62.5,,,,,,,,,,1.102,1,,,,,,,,,,,,,,,,,,,,,,,0.364285714,-0.287755102,1,0,0,,,,,,,COOKER,HB,m,y,./images/COOKERHB.png,,,,,,,,,,,,,,,,,,,,,0,0.364285714,-0.287755102,1,0,0,1.102,button_right_test,0,50,50,69,1
,,,,,,,,,,,,,,,,,5cadf2fa7e99a900171c4705,42,2022-02-12_16h48.40.333,lexical_decision_task_DD_L2,2021.2.3,iPhone,62.5,,,,,,,,,,0.885,0,,,,,,,,,,,,,,,,,,,,,,,0.354081633,-0.303061224,1,0,0,,,,,,,STREAM,C,z,y,./images/STREAM.png,,,,,,,,,,,,,,,,,,,,,0,0.354081633,-0.303061224,1,0,0,0.885,button_right_test,0,51,51,125,1
,,,,,,,,,,,,,,,,,5cadf2fa7e99a900171c4705,42,2022-02-12_16h48.40.333,lexical_decision_task_DD_L2,2021.2.3,iPhone,62.5,,,,,,,,,,1.267,1,,,,,,,,,,,,,,,,,,,,,,,-0.353061224,-0.313265306,1,0,0,,,,,,,WALNUT,HB,z,y,./images/WALNUTHB.png,,,,,,,,,,,,,,,,,,,,,0,-0.353061224,-0.313265306,1,0,0,1.267,button_left_test,0,52,52,84,1
,,,,,,,,,,,,,,,,,5cadf2fa7e99a900171c4705,42,2022-02-12_16h48.40.333,lexical_decision_task_DD_L2,2021.2.3,iPhone,62.5,,,,,,,,,,0.939,0,,,,,,,,,,,,,,,,,,,,,,,0.364285714,-0.290816327,1,0,0,,,,,,,BRUSH,C,z,y,./images/BRUSH.png,,,,,,,,,,,,,,,,,,,,,0,0.364285714,-0.290816327,1,0,0,0.939,button_right_test,0,53,53,143,1
,,,,,,,,,,,,,,,,,5cadf2fa7e99a900171c4705,42,2022-02-12_16h48.40.333,lexical_decision_task_DD_L2,2021.2.3,iPhone,62.5,,,,,,,,,,0.955,1,,,,,,,,,,,,,,,,,,,,,,,0.359183673,-0.278571429,1,0,0,,,,,,,STORM,HB,m,y,./images/STORMHB.png,,,,,,,,,,,,,,,,,,,,,0,0.359183673,-0.278571429,1,0,0,0.955,button_right_test,0,54,54,30,1
,,,,,,,,,,,,,,,,,5cadf2fa7e99a900171c4705,42,2022-02-12_16h48.40.333,lexical_decision_task_DD_L2,2021.2.3,iPhone,62.5,,,,,,,,,,1.418,0,,,,,,,,,,,,,,,,,,,,,,,0.324489796,-0.284693878,1,0,0,,,,,,,SHIELD,HB,z,y,./images/SHIELDHB.png,,,,,,,,,,,,,,,,,,,,,0,0.324489796,-0.284693878,1,0,0,1.418,button_right_test,0,55,55,132,1
,,,,,,,,,,,,,,,,,5cadf2fa7e99a900171c4705,42,2022-02-12_16h48.40.333,lexical_decision_task_DD_L2,2021.2.3,iPhone,62.5,,,,,,,,,,0.836,0,,,,,,,,,,,,,,,,,,,,,,,0.354081633,-0.267346939,1,0,0,,,,,,,FERRY,HB,z,y,./images/FERRYHB.png,,,,,,,,,,,,,,,,,,,,,0,0.354081633,-0.267346939,1,0,0,0.836,button_right_test,0,56,56,141,1
,,,,,,,,,,,,,,,,,5cadf2fa7e99a900171c4705,42,2022-02-12_16h48.40.333,lexical_decision_task_DD_L2,2021.2.3,iPhone,62.5,,,,,,,,,,0.669,1,,,,,,,,,,,,,,,,,,,,,,,-0.364285714,-0.316326531,1,0,0,,,,,,,BUTTER,HB,z,y,./images/BUTTERHB.png,,,,,,,,,,,,,,,,,,,,,0,-0.364285714,-0.316326531,1,0,0,0.669,button_left_test,0,57,57,111,1
,,,,,,,,,,,,,,,,,5cadf2fa7e99a900171c4705,42,2022-02-12_16h48.40.333,lexical_decision_task_DD_L2,2021.2.3,iPhone,62.5,,,,,,,,,,0.96,0,,,,,,,,,,,,,,,,,,,,,,,0.347959184,-0.281632653,1,0,0,,,,,,,BROOM,HB,z,y,./images/BROOMHB.png,,,,,,,,,,,,,,,,,,,,,0,0.347959184,-0.281632653,1,0,0,0.96,button_right_test,0,58,58,162,1
,,,,,,,,,,,,,,,,,5cadf2fa7e99a900171c4705,42,2022-02-12_16h48.40.333,lexical_decision_task_DD_L2,2021.2.3,iPhone,62.5,,,,,,,,,,0.718,1,,,,,,,,,,,,,,,,,,,,,,,0.341836735,-0.305102041,1,0,0,,,,,,,PICKLE,C,m,y,./images/PICKLE.png,,,,,,,,,,,,,,,,,,,,,0,0.341836735,-0.305102041,1,0,0,0.718,button_right_test,0,59,59,14,1
,,,,,,,,,,,,,,,,,5cadf2fa7e99a900171c4705,42,2022-02-12_16h48.40.333,lexical_decision_task_DD_L2,2021.2.3,iPhone,62.5,,,,,,,,,,0.631,1,,,,,,,,,,,,,,,,,,,,,,,0.337755102,-0.308163265,1,0,0,,,,,,,SHORE,HB,m,y,./images/SHOREHB.png,,,,,,,,,,,,,,,,,,,,,0,0.337755102,-0.308163265,1,0,0,0.631,button_right_test,0,60,60,12,1
,,,,,,,,,,,,,,,,,5cadf2fa7e99a900171c4705,42,2022-02-12_16h48.40.333,lexical_decision_task_DD_L2,2021.2.3,iPhone,62.5,,,,,,,,,,1.068,1,,,,,,,,,,,,,,,,,,,,,,,0.347959184,-0.279591837,1,0,0,,,,,,,FALCON,LB,m,y,./images/FALCONLB.png,,,,,,,,,,,,,,,,,,,,,0,0.347959184,-0.279591837,1,0,0,1.068,button_right_test,0,61,61,28,1
,,,,,,,,,,,,,,,,,5cadf2fa7e99a900171c4705,42,2022-02-12_16h48.40.333,lexical_decision_task_DD_L2,2021.2.3,iPhone,62.5,,,,,,,,,,0.626,1,,,,,,,,,,,,,,,,,,,,,,,0.33877551,-0.27755102,1,0,0,,,,,,,MOOSE,HB,m,y,./images/MOOSEHB.png,,,,,,,,,,,,,,,,,,,,,0,0.33877551,-0.27755102,1,0,0,0.626,button_right_test,0,62,62,57,1
,,,,,,,,,,,,,,,,,5cadf2fa7e99a900171c4705,42,2022-02-12_16h48.40.333,lexical_decision_task_DD_L2,2021.2.3,iPhone,62.5,,,,,,,,,,0.682,1,,,,,,,,,,,,,,,,,,,,,,,-0.359183673,-0.304081633,1,0,0,,,,,,,POKER,LB,z,y,./images/POKERLB.png,,,,,,,,,,,,,,,,,,,,,0,-0.359183673,-0.304081633,1,0,0,0.682,button_left_test,0,63,63,151,1
,,,,,,,,,,,,,,,,,5cadf2fa7e99a900171c4705,42,2022-02-12_16h48.40.333,lexical_decision_task_DD_L2,2021.2.3,iPhone,62.5,,,,,,,,,,0.767,1,,,,,,,,,,,,,,,,,,,,,,,0.345918367,-0.27244898,1,0,0,,,,,,,COUCH,C,m,y,./images/COUCH.png,,,,,,,,,,,,,,,,,,,,,0,0.345918367,-0.27244898,1,0,0,0.767,button_right_test,0,64,64,77,1
,,,,,,,,,,,,,,,,,5cadf2fa7e99a900171c4705,42,2022-02-12_16h48.40.333,lexical_decision_task_DD_L2,2021.2.3,iPhone,62.5,,,,,,,,,,1.157,1,,,,,,,,,,,,,,,,,,,,,,,-0.354081633,-0.296938776,1,0,0,,,,,,,PLANET,C,z,y,./images/PLANET.png,,,,,,,,,,,,,,,,,,,,,0,-0.354081633,-0.296938776,1,0,0,1.157,button_left_test,0,65,65,164,1
,,,,,,,,,,,,,,,,,5cadf2fa7e99a900171c4705,42,2022-02-12_16h48.40.333,lexical_decision_task_DD_L2,2021.2.3,iPhone,62.5,,,,,,,,,,1.083,1,,,,,,,,,,,,,,,,,,,,,,,-0.345918367,-0.306122449,1,0,0,,,,,,,BOILER,HB,z,y,./images/BOILERHB.png,,,,,,,,,,,,,,,,,,,,,0,-0.345918367,-0.306122449,1,0,0,1.083,button_left_test,0,66,66,120,1
,,,,,,,,,,,,,,,,,5cadf2fa7e99a900171c4705,42,2022-02-12_16h48.40.333,lexical_decision_task_DD_L2,2021.2.3,iPhone,62.5,,,,,,,,,,0.809,1,,,,,,,,,,,,,,,,,,,,,,,0.36122449,-0.287755102,1,0,0,,,,,,,POODLE,HB,m,y,./images/POODLEHB.png,,,,,,,,,,,,,,,,,,,,,0,0.36122449,-0.287755102,1,0,0,0.809,button_right_test,0,67,67,81,1
,,,,,,,,,,,,,,,,,5cadf2fa7e99a900171c4705,42,2022-02-12_16h48.40.333,lexical_decision_task_DD_L2,2021.2.3,iPhone,62.5,,,,,,,,,,1.145,1,,,,,,,,,,,,,,,,,,,,,,,-0.334693878,-0.330612245,1,0,0,,,,,,,BAKER,HB,z,y,./images/BAKERHB.png,,,,,,,,,,,,,,,,,,,,,0,-0.334693878,-0.330612245,1,0,0,1.145,button_left_test,0,68,68,147,1
,,,,,,,,,,,,,,,,,5cadf2fa7e99a900171c4705,42,2022-02-12_16h48.40.333,lexical_decision_task_DD_L2,2021.2.3,iPhone,62.5,,,,,,,,,,0.892,1,,,,,,,,,,,,,,,,,,,,,,,-0.336734694,-0.321428571,1,0,0,,,,,,,GLOVE,LB,z,y,./images/GLOVELB.png,,,,,,,,,,,,,,,,,,,,,0,-0.336734694,-0.321428571,1,0,0,0.892,button_left_test,0,69,69,157,1
,,,,,,,,,,,,,,,,,5cadf2fa7e99a900171c4705,42,2022-02-12_16h48.40.333,lexical_decision_task_DD_L2,2021.2.3,iPhone,62.5,,,,,,,,,,0.649,1,,,,,,,,,,,,,,,,,,,,,,,0.358163265,-0.280612245,1,0,0,,,,,,,SAILOR,LB,m,y,./images/SAILORLB.png,,,,,,,,,,,,,,,,,,,,,0,0.358163265,-0.280612245,1,0,0,0.649,button_right_test,0,70,70,67,1
,,,,,,,,,,,,,,,,,5cadf2fa7e99a900171c4705,42,2022-02-12_16h48.40.333,lexical_decision_task_DD_L2,2021.2.3,iPhone,62.5,,,,,,,,,,0.887,1,,,,,,,,,,,,,,,,,,,,,,,0.364285714,-0.264285714,1,0,0,,,,,,,BERRY,C,m,y,./images/BERRY.png,,,,,,,,,,,,,,,,,,,,,0,0.364285714,-0.264285714,1,0,0,0.887,button_right_test,0,71,71,47,1
,,,,,,,,,,,,,,,,,5cadf2fa7e99a900171c4705,42,2022-02-12_16h48.40.333,lexical_decision_task_DD_L2,2021.2.3,iPhone,62.5,,,,,,,,,,0.765,1,,,,,,,,,,,,,,,,,,,,,,,0.358163265,-0.290816327,1,0,0,,,,,,,BARREL,C,m,y,./images/BARREL.png,,,,,,,,,,,,,,,,,,,,,0,0.358163265,-0.290816327,1,0,0,0.765,button_right_test,0,72,72,32,1
,,,,,,,,,,,,,,,,,5cadf2fa7e99a900171c4705,42,2022-02-12_16h48.40.333,lexical_decision_task_DD_L2,2021.2.3,iPhone,62.5,,,,,,,,,,0.774,0,,,,,,,,,,,,,,,,,,,,,,,0.351020408,-0.303061224,1,0,0,,,,,,,STATUE,HB,z,y,./images/STATUEHB.png,,,,,,,,,,,,,,,,,,,,,0,0.351020408,-0.303061224,1,0,0,0.774,button_right_test,0,73,73,150,1
,,,,,,,,,,,,,,,,,5cadf2fa7e99a900171c4705,42,2022-02-12_16h48.40.333,lexical_decision_task_DD_L2,2021.2.3,iPhone,62.5,,,,,,,,,,0.868,1,,,,,,,,,,,,,,,,,,,,,,,0.358163265,-0.278571429,1,0,0,,,,,,,MUFFIN,LB,m,y,./images/MUFFINLB.png,,,,,,,,,,,,,,,,,,,,,0,0.358163265,-0.278571429,1,0,0,0.868,button_right_test,0,74,74,55,1
,,,,,,,,,,,,,,,,,5cadf2fa7e99a900171c4705,42,2022-02-12_16h48.40.333,lexical_decision_task_DD_L2,2021.2.3,iPhone,62.5,,,,,,,,,,0.788,1,,,,,,,,,,,,,,,,,,,,,,,-0.357142857,-0.281632653,1,0,0,,,,,,,CHAIN,HB,z,y,./images/CHAINHB.png,,,,,,,,,,,,,,,,,,,,,0,-0.357142857,-0.281632653,1,0,0,0.788,button_left_test,0,75,75,126,1
,,,,,,,,,,,,,,,,,5cadf2fa7e99a900171c4705,42,2022-02-12_16h48.40.333,lexical_decision_task_DD_L2,2021.2.3,iPhone,62.5,,,,,,,,,,1.096,0,,,,,,,,,,,,,,,,,,,,,,,0.344897959,-0.279591837,1,0,0,,,,,,,BUBBLE,C,z,y,./images/BUBBLE.png,,,,,,,,,,,,,,,,,,,,,0,0.344897959,-0.279591837,1,0,0,1.096,button_right_test,0,76,76,155,1
,,,,,,,,,,,,,,,,,5cadf2fa7e99a900171c4705,42,2022-02-12_16h48.40.333,lexical_decision_task_DD_L2,2021.2.3,iPhone,62.5,,,,,,,,,,0.79,0,,,,,,,,,,,,,,,,,,,,,,,0.344897959,-0.260204082,1,0,0,,,,,,,MEDAL,C,z,y,./images/MEDAL.png,,,,,,,,,,,,,,,,,,,,,0,0.344897959,-0.260204082,1,0,0,0.79,button_right_test,0,77,77,95,1
,,,,,,,,,,,,,,,,,5cadf2fa7e99a900171c4705,42,2022-02-12_16h48.40.333,lexical_decision_task_DD_L2,2021.2.3,iPhone,62.5,,,,,,,,,,0.721,1,,,,,,,,,,,,,,,,,,,,,,,0.345918367,-0.275510204,1,0,0,,,,,,,PAINT,LB,m,y,./images/PAINTLB.png,,,,,,,,,,,,,,,,,,,,,0,0.345918367,-0.275510204,1,0,0,0.721,button_right_test,0,78,78,7,1
,,,,,,,,,,,,,,,,,5cadf2fa7e99a900171c4705,42,2022-02-12_16h48.40.333,lexical_decision_task_DD_L2,2021.2.3,iPhone,62.5,,,,,,,,,,0.927,0,,,,,,,,,,,,,,,,,,,,,,,-0.328571429,-0.290816327,1,0,0,,,,,,,LIZARD,C,m,y,./images/LIZARD.png,,,,,,,,,,,,,,,,,,,,,0,-0.328571429,-0.290816327,1,0,0,0.927,button_left_test,0,79,79,44,1
,,,,,,,,,,,,,,,,,5cadf2fa7e99a900171c4705,42,2022-02-12_16h48.40.333,lexical_decision_task_DD_L2,2021.2.3,iPhone,62.5,,,,,,,,,,1.203,0,,,,,,,,,,,,,,,,,,,,,,,0.357142857,-0.257142857,1,0,0,,,,,,,ARTIST,LB,z,y,./images/ARTISTLB.png,,,,,,,,,,,,,,,,,,,,,0,0.357142857,-0.257142857,1,0,0,1.203,button_right_test,0,80,80,145,1
,,,,,,,,,,,,,,,,,5cadf2fa7e99a900171c4705,42,2022-02-12_16h48.40.333,lexical_decision_task_DD_L2,2021.2.3,iPhone,62.5,,,,,,,,,,0.98,1,,,,,,,,,,,,,,,,,,,,,,,0.331632653,-0.301020408,1,0,0,,,,,,,SHELF,HB,m,y,./images/SHELFHB.png,,,,,,,,,,,,,,,,,,,,,0,0.331632653,-0.301020408,1,0,0,0.98,button_right_test,0,81,81,39,1
,,,,,,,,,,,,,,,,,5cadf2fa7e99a900171c4705,42,2022-02-12_16h48.40.333,lexical_decision_task_DD_L2,2021.2.3,iPhone,62.5,,,,,,,,,,0.814,1,,,,,,,,,,,,,,,,,,,,,,,0.333673469,-0.294897959,1,0,0,,,,,,,JELLY,LB,m,y,./images/JELLYLB.png,,,,,,,,,,,,,,,,,,,,,0,0.333673469,-0.294897959,1,0,0,0.814,button_right_test,0,82,82,64,1
,,,,,,,,,,,,,,,,,5cadf2fa7e99a900171c4705,42,2022-02-12_16h48.40.333,lexical_decision_task_DD_L2,2021.2.3,iPhone,62.5,,,,,,,,,,0.901,1,,,,,,,,,,,,,,,,,,,,,,,0.004081633,-0.390816327,1,0,0,,,,,,,WHEEL,C,z,y,./images/WHEEL.png,break_done_button,,,,,,,,,,,,,,,,,,,,0,-0.340816327,-0.290816327,1,0,0,0.901,button_left_test,0,83,83,161,1
,,,,,,,,,,,,,,,,,5cadf2fa7e99a900171c4705,42,2022-02-12_16h48.40.333,lexical_decision_task_DD_L2,2021.2.3,iPhone,62.5,,,,,,,,,,1.963,0,,,,,,,,,,,,,,,,,,,,,,,0.336734694,-0.264285714,1,0,0,,,,,,,DANCER,HB,z,y,./images/DANCERHB.png,,,,,,,,,,,,,,,,,,,,,0,0.336734694,-0.264285714,1,0,0,1.963,button_right_test,0,84,84,105,1
,,,,,,,,,,,,,,,,,5cadf2fa7e99a900171c4705,42,2022-02-12_16h48.40.333,lexical_decision_task_DD_L2,2021.2.3,iPhone,62.5,,,,,,,,,,0.621,0,,,,,,,,,,,,,,,,,,,,,,,0.330612245,-0.293877551,1,0,0,,,,,,,BISHOP,LB,z,y,./images/BISHOPLB.png,,,,,,,,,,,,,,,,,,,,,0,0.330612245,-0.293877551,1,0,0,0.621,button_right_test,0,85,85,133,1
,,,,,,,,,,,,,,,,,5cadf2fa7e99a900171c4705,42,2022-02-12_16h48.40.333,lexical_decision_task_DD_L2,2021.2.3,iPhone,62.5,,,,,,,,,,1.117,1,,,,,,,,,,,,,,,,,,,,,,,0.355102041,-0.265306122,1,0,0,,,,,,,PENCE,LB,m,y,./images/PENCELB.png,,,,,,,,,,,,,,,,,,,,,0,0.355102041,-0.265306122,1,0,0,1.117,button_right_test,0,86,86,16,1
,,,,,,,,,,,,,,,,,5cadf2fa7e99a900171c4705,42,2022-02-12_16h48.40.333,lexical_decision_task_DD_L2,2021.2.3,iPhone,62.5,,,,,,,,,,1.725,0,,,,,,,,,,,,,,,,,,,,,,,-0.371428571,-0.27755102,1,0,0,,,,,,,SPORT,HB,m,y,./images/SPORTHB.png,,,,,,,,,,,,,,,,,,,,,0,-0.371428571,-0.27755102,1,0,0,1.725,button_left_test,0,87,87,48,1
,,,,,,,,,,,,,,,,,5cadf2fa7e99a900171c4705,42,2022-02-12_16h48.40.333,lexical_decision_task_DD_L2,2021.2.3,iPhone,62.5,,,,,,,,,,1.09,1,,,,,,,,,,,,,,,,,,,,,,,-0.331632653,-0.316326531,1,0,0,,,,,,,SAUNA,HB,z,y,./images/SAUNAHB.png,,,,,,,,,,,,,,,,,,,,,0,-0.331632653,-0.316326531,1,0,0,1.09,button_left_test,0,88,88,117,1
,,,,,,,,,,,,,,,,,5cadf2fa7e99a900171c4705,42,2022-02-12_16h48.40.333,lexical_decision_task_DD_L2,2021.2.3,iPhone,62.5,,,,,,,,,,0.969,1,,,,,,,,,,,,,,,,,,,,,,,0.358163265,-0.27755102,1,0,0,,,,,,,CEMENT,C,m,y,./images/CEMENT.png,,,,,,,,,,,,,,,,,,,,,0,0.358163265,-0.27755102,1,0,0,0.969,button_right_test,0,89,89,74,1
,,,,,,,,,,,,,,,,,5cadf2fa7e99a900171c4705,42,2022-02-12_16h48.40.333,lexical_decision_task_DD_L2,2021.2.3,iPhone,62.5,,,,,,,,,,0.684,1,,,,,,,,,,,,,,,,,,,,,,,0.36122449,-0.297959184,1,0,0,,,,,,,MIRROR,HB,m,y,./images/MIRRORHB.png,,,,,,,,,,,,,,,,,,,,,0,0.36122449,-0.297959184,1,0,0,0.684,button_right_test,0,90,90,63,1
,,,,,,,,,,,,,,,,,5cadf2fa7e99a900171c4705,42,2022-02-12_16h48.40.333,lexical_decision_task_DD_L2,2021.2.3,iPhone,62.5,,,,,,,,,,0.883,0,,,,,,,,,,,,,,,,,,,,,,,0.332653061,-0.251020408,1,0,0,,,,,,,CHALK,LB,z,y,./images/CHALKLB.png,,,,,,,,,,,,,,,,,,,,,0,0.332653061,-0.251020408,1,0,0,0.883,button_right_test,0,91,91,109,1
,,,,,,,,,,,,,,,,,5cadf2fa7e99a900171c4705,42,2022-02-12_16h48.40.333,lexical_decision_task_DD_L2,2021.2.3,iPhone,62.5,,,,,,,,,,0.93,1,,,,,,,,,,,,,,,,,,,,,,,0.351020408,-0.258163265,1,0,0,,,,,,,ONION,HB,m,y,./images/ONIONHB.png,,,,,,,,,,,,,,,,,,,,,0,0.351020408,-0.258163265,1,0,0,0.93,button_right_test,0,92,92,51,1
,,,,,,,,,,,,,,,,,5cadf2fa7e99a900171c4705,42,2022-02-12_16h48.40.333,lexical_decision_task_DD_L2,2021.2.3,iPhone,62.5,,,,,,,,,,1.605,1,,,,,,,,,,,,,,,,,,,,,,,-0.354081633,-0.307142857,1,0,0,,,,,,,HAMMER,HB,z,y,./images/HAMMERHB.png,,,,,,,,,,,,,,,,,,,,,0,-0.354081633,-0.307142857,1,0,0,1.605,button_left_test,0,93,93,159,1
,,,,,,,,,,,,,,,,,5cadf2fa7e99a900171c4705,42,2022-02-12_16h48.40.333,lexical_decision_task_DD_L2,2021.2.3,iPhone,62.5,,,,,,,,,,0.583,0,,,,,,,,,,,,,,,,,,,,,,,0.351020408,-0.27244898,1,0,0,,,,,,,PISTOL,C,z,y,./images/PISTOL.png,,,,,,,,,,,,,,,,,,,,,0,0.351020408,-0.27244898,1,0,0,0.583,button_right_test,0,94,94,113,1
,,,,,,,,,,,,,,,,,5cadf2fa7e99a900171c4705,42,2022-02-12_16h48.40.333,lexical_decision_task_DD_L2,2021.2.3,iPhone,62.5,,,,,,,,,,0.941,0,,,,,,,,,,,,,,,,,,,,,,,0.353061224,-0.27755102,1,0,0,,,,,,,STEAK,LB,z,y,./images/STEAKLB.png,,,,,,,,,,,,,,,,,,,,,0,0.353061224,-0.27755102,1,0,0,0.941,button_right_test,0,95,95,115,1
,,,,,,,,,,,,,,,,,5cadf2fa7e99a900171c4705,42,2022-02-12_16h48.40.333,lexical_decision_task_DD_L2,2021.2.3,iPhone,62.5,,,,,,,,,,0.948,1,,,,,,,,,,,,,,,,,,,,,,,0.351020408,-0.267346939,1,0,0,,,,,,,MAGGOT,HB,m,y,./images/MAGGOTHB.png,,,,,,,,,,,,,,,,,,,,,0,0.351020408,-0.267346939,1,0,0,0.948,button_right_test,0,96,96,33,1
,,,,,,,,,,,,,,,,,5cadf2fa7e99a900171c4705,42,2022-02-12_16h48.40.333,lexical_decision_task_DD_L2,2021.2.3,iPhone,62.5,,,,,,,,,,1.036,0,,,,,,,,,,,,,,,,,,,,,,,-0.379591837,-0.314285714,1,0,0,,,,,,,TWINS,HB,m,y,./images/TWINSHB.png,,,,,,,,,,,,,,,,,,,,,0,-0.379591837,-0.314285714,1,0,0,1.036,button_left_test,0,97,97,60,1
,,,,,,,,,,,,,,,,,5cadf2fa7e99a900171c4705,42,2022-02-12_16h48.40.333,lexical_decision_task_DD_L2,2021.2.3,iPhone,62.5,,,,,,,,,,0.755,1,,,,,,,,,,,,,,,,,,,,,,,0.344897959,-0.279591837,1,0,0,,,,,,,STRING,C,m,y,./images/STRING.png,,,,,,,,,,,,,,,,,,,,,0,0.344897959,-0.279591837,1,0,0,0.755,button_right_test,0,98,98,41,1
,,,,,,,,,,,,,,,,,5cadf2fa7e99a900171c4705,42,2022-02-12_16h48.40.333,lexical_decision_task_DD_L2,2021.2.3,iPhone,62.5,,,,,,,,,,1.51,0,,,,,,,,,,,,,,,,,,,,,,,-0.378571429,-0.297959184,1,0,0,,,,,,,CANYON,LB,m,y,./images/CANYONLB.png,,,,,,,,,,,,,,,,,,,,,0,-0.378571429,-0.297959184,1,0,0,1.51,button_left_test,0,99,99,34,1
,,,,,,,,,,,,,,,,,5cadf2fa7e99a900171c4705,42,2022-02-12_16h48.40.333,lexical_decision_task_DD_L2,2021.2.3,iPhone,62.5,,,,,,,,,,0.983,0,,,,,,,,,,,,,,,,,,,,,,,-0.380612245,-0.296938776,1,0,0,,,,,,,PIMPLE,C,m,y,./images/PIMPLE.png,,,,,,,,,,,,,,,,,,,,,0,-0.380612245,-0.296938776,1,0,0,0.983,button_left_test,0,100,100,71,1
,,,,,,,,,,,,,,,,,5cadf2fa7e99a900171c4705,42,2022-02-12_16h48.40.333,lexical_decision_task_DD_L2,2021.2.3,iPhone,62.5,,,,,,,,,,0.73,1,,,,,,,,,,,,,,,,,,,,,,,0.347959184,-0.268367347,1,0,0,,,,,,,PLANK,LB,m,y,./images/PLANKLB.png,,,,,,,,,,,,,,,,,,,,,0,0.347959184,-0.268367347,1,0,0,0.73,button_right_test,0,101,101,1,1
,,,,,,,,,,,,,,,,,5cadf2fa7e99a900171c4705,42,2022-02-12_16h48.40.333,lexical_decision_task_DD_L2,2021.2.3,iPhone,62.5,,,,,,,,,,0.974,1,,,,,,,,,,,,,,,,,,,,,,,-0.37755102,-0.306122449,1,0,0,,,,,,,DONKEY,LB,z,y,./images/DONKEYLB.png,,,,,,,,,,,,,,,,,,,,,0,-0.37755102,-0.306122449,1,0,0,0.974,button_left_test,0,102,102,103,1
