key_resp.keys,key_resp.rt,instr_done_touch.x,instr_done_touch.y,instr_done_touch.leftButton,instr_done_touch.midButton,instr_done_touch.rightButton,instruction_pages.thisRepN,instruction_pages.thisTrialN,instruction_pages.thisN,instruction_pages.thisIndex,instruction_pages.ran,pageN,phase,instruct_text,has_image,instruct_image,participant,age,date,expName,psychopyVersion,OS,frameRate,response.keys,response.corr,response.rt,touch_resp.x,touch_resp.y,touch_resp.leftButton,touch_resp.midButton,touch_resp.rightButton,touch_resp.time,touch_resp.clicked_name,rt,corr,practrials.thisRepN,practrials.thisTrialN,practrials.thisN,practrials.thisIndex,practrials.ran,TrialID,Target,corrAns,end_of_practice_trials_pages.thisRepN,end_of_practice_trials_pages.thisTrialN,end_of_practice_trials_pages.thisN,end_of_practice_trials_pages.thisIndex,end_of_practice_trials_pages.ran,key_resp_2.keys,key_resp_2.corr,key_resp_2.rt,targ_click.x,targ_click.y,targ_click.leftButton,targ_click.midButton,targ_click.rightButton,targ_click.time,targ_click.clicked_name,break_done_touch.x,break_done_touch.y,break_done_touch.leftButton,break_done_touch.midButton,break_done_touch.rightButton,break_done_keyboard.keys,maintrials.thisRepN,maintrials.thisTrialN,maintrials.thisN,maintrials.thisIndex,maintrials.ran,string,blur,study,lex,stim_path,break_done_keyboard.rt,mouse_2.x,mouse_2.y,mouse_2.leftButton,mouse_2.midButton,mouse_2.rightButton,mouse_2.clicked_name,slider.response,slider.rt,trials.thisRepN,trials.thisTrialN,trials.thisN,trials.thisIndex,trials.ran,test_instructions.thisRepN,test_instructions.thisTrialN,test_instructions.thisN,test_instructions.thisIndex,test_instructions.ran,instr_done_touch.clicked_name,key_resp_3.keys,key_resp_3.corr,key_resp_3.rt,test_click.x,test_click.y,test_click.leftButton,test_click.midButton,test_click.rightButton,test_click.time,test_click.clicked_name,test_phase.thisRepN,test_phase.thisTrialN,test_phase.thisN,test_phase.thisIndex,test_phase.ran
space,20.898,-0.02,-0.0175,0,0,0,0,0,0,0,1,1,instructions,"INSTRUCTIONS
At the start of each trial, look at the plus sign  (+) in the center of the screen.  This tells you that a trial is about to begin and where to look. Second, the plus sign will disappear and a string of letters will appear. Your task is to determine if the string of letters is a word or not. If the item is a word press the M key (on keyboard)  or touch the word button (phone/tablet).  If the item is not a word,  press the  Z key (on keyboard)  or touch the nonword button (on phone/tablet). 
Press the space bar or touch  continue.",0,,5cc0de4dbb24d500170593f6,24,2022-02-12_16h08.36.911,lexical_decision_task_DD_L3,2021.2.3,MacIntel,58.82352941,,,,,,,,,,,,,,,,,,,,,,,,,,,,,,,,,,,,,,,,,,,,,,,,,,,,,,,,,,,,,,,,,,,,,,,,,,,,,,,,,,,,,,
space,6.147,-0.02,-0.0175,0,0,0,0,1,1,1,1,2,instructions,"If your device has a keyboard, press the 'Z' key for nonwords and the 'M' key for words.





Press the space bar or touch the button below to continue.",0,keyboard-example.gif,5cc0de4dbb24d500170593f6,24,2022-02-12_16h08.36.911,lexical_decision_task_DD_L3,2021.2.3,MacIntel,58.82352941,,,,,,,,,,,,,,,,,,,,,,,,,,,,,,,,,,,,,,,,,,,,,,,,,,,,,,,,,,,,,,,,,,,,,,,,,,,,,,,,,,,,,,
space,2.013,-0.02,-0.0175,0,0,0,0,2,2,2,1,3,instructions,"If you are using a touchscreen only device, use the buttons on the screen. Do not use the mouse.





Press the space bar or touch the button below to continue.",0,touchscreen-example.gif,5cc0de4dbb24d500170593f6,24,2022-02-12_16h08.36.911,lexical_decision_task_DD_L3,2021.2.3,MacIntel,58.82352941,,,,,,,,,,,,,,,,,,,,,,,,,,,,,,,,,,,,,,,,,,,,,,,,,,,,,,,,,,,,,,,,,,,,,,,,,,,,,,,,,,,,,,
space,8.15,0.74,0.03625,0,0,0,0,3,3,3,1,4,instructions,"It is very important that you respond as quickly and accurately as possible, as each letter string will only be on the screen for two seconds. If you do not respond within this time, the message 'Too slow!' will be displayed and the experiment will progress to the next letter string. The first 20 trials will be practice trials and you will receive feedback on your answers. 

Press the space bar or touch the button below to start the practice trials.",0,,5cc0de4dbb24d500170593f6,24,2022-02-12_16h08.36.911,lexical_decision_task_DD_L3,2021.2.3,MacIntel,58.82352941,,,,,,,,,,,,,,,,,,,,,,,,,,,,,,,,,,,,,,,,,,,,,,,,,,,,,,,,,,,,,,,,,,,,,,,,,,,,,,,,,,,,,,
,,,,,,,,,,,,,,,,,5cc0de4dbb24d500170593f6,24,2022-02-12_16h08.36.911,lexical_decision_task_DD_L3,2021.2.3,MacIntel,58.82352941,m,1,0.706,,,,,,,,0.706,1,0,0,0,7,1,1001,VOLUME,m,,,,,,,,,,,,,,,,,,,,,,,,,,,,,,,,,,,,,,,,,,,,,,,,,,,,,,,,,,,,,,,,,,
,,,,,,,,,,,,,,,,,5cc0de4dbb24d500170593f6,24,2022-02-12_16h08.36.911,lexical_decision_task_DD_L3,2021.2.3,MacIntel,58.82352941,z,1,0.715,,,,,,,,0.715,1,0,1,1,12,1,1001,SPRINY,z,,,,,,,,,,,,,,,,,,,,,,,,,,,,,,,,,,,,,,,,,,,,,,,,,,,,,,,,,,,,,,,,,,
,,,,,,,,,,,,,,,,,5cc0de4dbb24d500170593f6,24,2022-02-12_16h08.36.911,lexical_decision_task_DD_L3,2021.2.3,MacIntel,58.82352941,z,1,0.584,,,,,,,,0.584,1,0,2,2,15,1,1001,WHAISE,z,,,,,,,,,,,,,,,,,,,,,,,,,,,,,,,,,,,,,,,,,,,,,,,,,,,,,,,,,,,,,,,,,,
,,,,,,,,,,,,,,,,,5cc0de4dbb24d500170593f6,24,2022-02-12_16h08.36.911,lexical_decision_task_DD_L3,2021.2.3,MacIntel,58.82352941,z,1,0.543,,,,,,,,0.543,1,0,3,3,14,1,1001,THRALE,z,,,,,,,,,,,,,,,,,,,,,,,,,,,,,,,,,,,,,,,,,,,,,,,,,,,,,,,,,,,,,,,,,,
,,,,,,,,,,,,,,,,,5cc0de4dbb24d500170593f6,24,2022-02-12_16h08.36.911,lexical_decision_task_DD_L3,2021.2.3,MacIntel,58.82352941,m,1,0.534,,,,,,,,0.534,1,0,4,4,6,1,1001,ZOMBIE,m,,,,,,,,,,,,,,,,,,,,,,,,,,,,,,,,,,,,,,,,,,,,,,,,,,,,,,,,,,,,,,,,,,
,,,,,,,,,,,,,,,,,5cc0de4dbb24d500170593f6,24,2022-02-12_16h08.36.911,lexical_decision_task_DD_L3,2021.2.3,MacIntel,58.82352941,m,1,0.566,,,,,,,,0.566,1,0,5,5,5,1,1001,OBTAIN,m,,,,,,,,,,,,,,,,,,,,,,,,,,,,,,,,,,,,,,,,,,,,,,,,,,,,,,,,,,,,,,,,,,
,,,,,,,,,,,,,,,,,5cc0de4dbb24d500170593f6,24,2022-02-12_16h08.36.911,lexical_decision_task_DD_L3,2021.2.3,MacIntel,58.82352941,m,1,0.417,,,,,,,,0.417,1,0,6,6,2,1,1001,ALMOND,m,,,,,,,,,,,,,,,,,,,,,,,,,,,,,,,,,,,,,,,,,,,,,,,,,,,,,,,,,,,,,,,,,,
,,,,,,,,,,,,,,,,,5cc0de4dbb24d500170593f6,24,2022-02-12_16h08.36.911,lexical_decision_task_DD_L3,2021.2.3,MacIntel,58.82352941,z,1,0.436,,,,,,,,0.436,1,0,7,7,13,1,1001,ROUPET,z,,,,,,,,,,,,,,,,,,,,,,,,,,,,,,,,,,,,,,,,,,,,,,,,,,,,,,,,,,,,,,,,,,
,,,,,,,,,,,,,,,,,5cc0de4dbb24d500170593f6,24,2022-02-12_16h08.36.911,lexical_decision_task_DD_L3,2021.2.3,MacIntel,58.82352941,z,1,0.58,,,,,,,,0.58,1,0,8,8,10,1,1001,INLADE,z,,,,,,,,,,,,,,,,,,,,,,,,,,,,,,,,,,,,,,,,,,,,,,,,,,,,,,,,,,,,,,,,,,
,,,,,,,,,,,,,,,,,5cc0de4dbb24d500170593f6,24,2022-02-12_16h08.36.911,lexical_decision_task_DD_L3,2021.2.3,MacIntel,58.82352941,z,1,0.565,,,,,,,,0.565,1,0,9,9,8,1,1001,ASLERT,z,,,,,,,,,,,,,,,,,,,,,,,,,,,,,,,,,,,,,,,,,,,,,,,,,,,,,,,,,,,,,,,,,,
,,,,,,,,,,,,,,,,,5cc0de4dbb24d500170593f6,24,2022-02-12_16h08.36.911,lexical_decision_task_DD_L3,2021.2.3,MacIntel,58.82352941,z,1,0.565,,,,,,,,0.565,1,0,10,10,11,1,1001,RASHET,z,,,,,,,,,,,,,,,,,,,,,,,,,,,,,,,,,,,,,,,,,,,,,,,,,,,,,,,,,,,,,,,,,,
,,,,,,,,,,,,,,,,,5cc0de4dbb24d500170593f6,24,2022-02-12_16h08.36.911,lexical_decision_task_DD_L3,2021.2.3,MacIntel,58.82352941,m,1,0.534,,,,,,,,0.534,1,0,11,11,4,1,1001,SQUEAK,m,,,,,,,,,,,,,,,,,,,,,,,,,,,,,,,,,,,,,,,,,,,,,,,,,,,,,,,,,,,,,,,,,,
,,,,,,,,,,,,,,,,,5cc0de4dbb24d500170593f6,24,2022-02-12_16h08.36.911,lexical_decision_task_DD_L3,2021.2.3,MacIntel,58.82352941,z,1,0.533,,,,,,,,0.533,1,0,12,12,9,1,1001,FARINY,z,,,,,,,,,,,,,,,,,,,,,,,,,,,,,,,,,,,,,,,,,,,,,,,,,,,,,,,,,,,,,,,,,,
,,,,,,,,,,,,,,,,,5cc0de4dbb24d500170593f6,24,2022-02-12_16h08.36.911,lexical_decision_task_DD_L3,2021.2.3,MacIntel,58.82352941,m,1,0.529,,,,,,,,0.529,1,0,13,13,0,1,1001,UTOPIA,m,,,,,,,,,,,,,,,,,,,,,,,,,,,,,,,,,,,,,,,,,,,,,,,,,,,,,,,,,,,,,,,,,,
,,,,,,,,,,,,,,,,,5cc0de4dbb24d500170593f6,24,2022-02-12_16h08.36.911,lexical_decision_task_DD_L3,2021.2.3,MacIntel,58.82352941,m,1,0.679,,,,,,,,0.679,1,0,14,14,3,1,1001,MATRIX,m,,,,,,,,,,,,,,,,,,,,,,,,,,,,,,,,,,,,,,,,,,,,,,,,,,,,,,,,,,,,,,,,,,
,,,,,,,,,,,,,,,,,5cc0de4dbb24d500170593f6,24,2022-02-12_16h08.36.911,lexical_decision_task_DD_L3,2021.2.3,MacIntel,58.82352941,m,1,0.531,,,,,,,,0.531,1,0,15,15,1,1,1001,ADJUST,m,,,,,,,,,,,,,,,,,,,,,,,,,,,,,,,,,,,,,,,,,,,,,,,,,,,,,,,,,,,,,,,,,,
space,6.557,0.74,0.03625,0,0,0,,,,,,1,end_of_practice,"You have completed the practice trials. During the experimental trials, you will not receive feedback. 
Before you begin, please ensure that you are in a comfortable and quiet location and will not be disturbed for about 15 minutes, as we cannot use your data if you do not complete all the trials. 
 When you are ready to start the experimental trials, please press space or touch the button below.",,,5cc0de4dbb24d500170593f6,24,2022-02-12_16h08.36.911,lexical_decision_task_DD_L3,2021.2.3,MacIntel,58.82352941,,,,,,,,,,,,,,,,,,,,,0,0,0,0,1,,,,,,,,,,,,,,,,,,,,,,,,,,,,,,,,,,,,,,,,,,,,,,,,,,,,,,,,,,,,,
,,,,,,,,,,,,,,,,,5cc0de4dbb24d500170593f6,24,2022-02-12_16h08.36.911,lexical_decision_task_DD_L3,2021.2.3,MacIntel,58.82352941,,,,,,,,,,,2.095,1,,,,,,,,,,,,,,m,1,2.095,,,,,,,,0.74,0.03625,0,0,0,,0,0,0,44,1,LIZARD,HB,old,m,./images/LIZARDHB.png,,,,,,,,,,,,,,,,,,,,,,,,,,,,,,,,,,,
,,,,,,,,,,,,,,,,,5cc0de4dbb24d500170593f6,24,2022-02-12_16h08.36.911,lexical_decision_task_DD_L3,2021.2.3,MacIntel,58.82352941,,,,,,,,,,,0.771,1,,,,,,,,,,,,,,z,1,0.771,,,,,,,,0.74,0.03625,0,0,0,,0,1,1,120,1,RINED,C,old,z,./images/RINED.png,,,,,,,,,,,,,,,,,,,,,,,,,,,,,,,,,,,
,,,,,,,,,,,,,,,,,5cc0de4dbb24d500170593f6,24,2022-02-12_16h08.36.911,lexical_decision_task_DD_L3,2021.2.3,MacIntel,58.82352941,,,,,,,,,,,1.382,1,,,,,,,,,,,,,,m,1,1.382,,,,,,,,0.74,0.03625,0,0,0,,0,2,2,11,1,BONNET,HB,old,m,./images/BONNETHB.png,,,,,,,,,,,,,,,,,,,,,,,,,,,,,,,,,,,
,,,,,,,,,,,,,,,,,5cc0de4dbb24d500170593f6,24,2022-02-12_16h08.36.911,lexical_decision_task_DD_L3,2021.2.3,MacIntel,58.82352941,,,,,,,,,,,1.329,1,,,,,,,,,,,,,,z,1,1.329,,,,,,,,0.74,0.03625,0,0,0,,0,3,3,163,1,GAMBA,HB,old,z,./images/GAMBAHB.png,,,,,,,,,,,,,,,,,,,,,,,,,,,,,,,,,,,
,,,,,,,,,,,,,,,,,5cc0de4dbb24d500170593f6,24,2022-02-12_16h08.36.911,lexical_decision_task_DD_L3,2021.2.3,MacIntel,58.82352941,,,,,,,,,,,0.673,1,,,,,,,,,,,,,,m,1,0.673,,,,,,,,0.74,0.03625,0,0,0,,0,4,4,3,1,FINGER,LB,old,m,./images/FINGERLB.png,,,,,,,,,,,,,,,,,,,,,,,,,,,,,,,,,,,
,,,,,,,,,,,,,,,,,5cc0de4dbb24d500170593f6,24,2022-02-12_16h08.36.911,lexical_decision_task_DD_L3,2021.2.3,MacIntel,58.82352941,,,,,,,,,,,0.592,1,,,,,,,,,,,,,,z,1,0.592,,,,,,,,0.74,0.03625,0,0,0,,0,5,5,147,1,ZOLES,C,old,z,./images/ZOLES.png,,,,,,,,,,,,,,,,,,,,,,,,,,,,,,,,,,,
,,,,,,,,,,,,,,,,,5cc0de4dbb24d500170593f6,24,2022-02-12_16h08.36.911,lexical_decision_task_DD_L3,2021.2.3,MacIntel,58.82352941,,,,,,,,,,,1.151,1,,,,,,,,,,,,,,z,1,1.151,,,,,,,,0.74,0.03625,0,0,0,,0,6,6,112,1,MYING,HB,old,z,./images/MYINGHB.png,,,,,,,,,,,,,,,,,,,,,,,,,,,,,,,,,,,
,,,,,,,,,,,,,,,,,5cc0de4dbb24d500170593f6,24,2022-02-12_16h08.36.911,lexical_decision_task_DD_L3,2021.2.3,MacIntel,58.82352941,,,,,,,,,,,0.565,1,,,,,,,,,,,,,,m,1,0.565,,,,,,,,0.74,0.03625,0,0,0,,0,7,7,12,1,SHORE,LB,old,m,./images/SHORELB.png,,,,,,,,,,,,,,,,,,,,,,,,,,,,,,,,,,,
,,,,,,,,,,,,,,,,,5cc0de4dbb24d500170593f6,24,2022-02-12_16h08.36.911,lexical_decision_task_DD_L3,2021.2.3,MacIntel,58.82352941,,,,,,,,,,,0.751,1,,,,,,,,,,,,,,z,1,0.751,,,,,,,,0.74,0.03625,0,0,0,,0,8,8,149,1,VEASE,LB,old,z,./images/VEASELB.png,,,,,,,,,,,,,,,,,,,,,,,,,,,,,,,,,,,
,,,,,,,,,,,,,,,,,5cc0de4dbb24d500170593f6,24,2022-02-12_16h08.36.911,lexical_decision_task_DD_L3,2021.2.3,MacIntel,58.82352941,,,,,,,,,,,0.502,1,,,,,,,,,,,,,,m,1,0.502,,,,,,,,0.74,0.03625,0,0,0,,0,9,9,67,1,SAILOR,C,old,m,./images/SAILOR.png,,,,,,,,,,,,,,,,,,,,,,,,,,,,,,,,,,,
,,,,,,,,,,,,,,,,,5cc0de4dbb24d500170593f6,24,2022-02-12_16h08.36.911,lexical_decision_task_DD_L3,2021.2.3,MacIntel,58.82352941,,,,,,,,,,,0.979,0,,,,,,,,,,,,,,m,0,0.979,,,,,,,,0.74,0.03625,0,0,0,,0,10,10,100,1,DRIBS,HB,old,z,./images/DRIBSHB.png,,,,,,,,,,,,,,,,,,,,,,,,,,,,,,,,,,,
,,,,,,,,,,,,,,,,,5cc0de4dbb24d500170593f6,24,2022-02-12_16h08.36.911,lexical_decision_task_DD_L3,2021.2.3,MacIntel,58.82352941,,,,,,,,,,,0.736,1,,,,,,,,,,,,,,z,1,0.736,,,,,,,,0.74,0.03625,0,0,0,,0,11,11,103,1,FLORT,HB,old,z,./images/FLORTHB.png,,,,,,,,,,,,,,,,,,,,,,,,,,,,,,,,,,,
,,,,,,,,,,,,,,,,,5cc0de4dbb24d500170593f6,24,2022-02-12_16h08.36.911,lexical_decision_task_DD_L3,2021.2.3,MacIntel,58.82352941,,,,,,,,,,,1.212,1,,,,,,,,,,,,,,z,1,1.212,,,,,,,,0.74,0.03625,0,0,0,,0,12,12,160,1,VEETS,HB,old,z,./images/VEETSHB.png,,,,,,,,,,,,,,,,,,,,,,,,,,,,,,,,,,,
,,,,,,,,,,,,,,,,,5cc0de4dbb24d500170593f6,24,2022-02-12_16h08.36.911,lexical_decision_task_DD_L3,2021.2.3,MacIntel,58.82352941,,,,,,,,,,,0.72,1,,,,,,,,,,,,,,m,1,0.72,,,,,,,,0.74,0.03625,0,0,0,,0,13,13,74,1,CEMENT,HB,old,m,./images/CEMENTHB.png,,,,,,,,,,,,,,,,,,,,,,,,,,,,,,,,,,,
,,,,,,,,,,,,,,,,,5cc0de4dbb24d500170593f6,24,2022-02-12_16h08.36.911,lexical_decision_task_DD_L3,2021.2.3,MacIntel,58.82352941,,,,,,,,,,,0.77,1,,,,,,,,,,,,,,z,1,0.77,,,,,,,,0.74,0.03625,0,0,0,,0,14,14,145,1,LAMEL,HB,old,z,./images/LAMELHB.png,,,,,,,,,,,,,,,,,,,,,,,,,,,,,,,,,,,
,,,,,,,,,,,,,,,,,5cc0de4dbb24d500170593f6,24,2022-02-12_16h08.36.911,lexical_decision_task_DD_L3,2021.2.3,MacIntel,58.82352941,,,,,,,,,,,0.687,1,,,,,,,,,,,,,,m,1,0.687,,,,,,,,0.74,0.03625,0,0,0,,0,15,15,29,1,CRUMB,HB,old,m,./images/CRUMBHB.png,,,,,,,,,,,,,,,,,,,,,,,,,,,,,,,,,,,
,,,,,,,,,,,,,,,,,5cc0de4dbb24d500170593f6,24,2022-02-12_16h08.36.911,lexical_decision_task_DD_L3,2021.2.3,MacIntel,58.82352941,,,,,,,,,,,0.888,1,,,,,,,,,,,,,,z,1,0.888,,,,,,,,0.74,0.03625,0,0,0,,0,16,16,133,1,POWDY,HB,old,z,./images/POWDYHB.png,,,,,,,,,,,,,,,,,,,,,,,,,,,,,,,,,,,
,,,,,,,,,,,,,,,,,5cc0de4dbb24d500170593f6,24,2022-02-12_16h08.36.911,lexical_decision_task_DD_L3,2021.2.3,MacIntel,58.82352941,,,,,,,,,,,0.715,1,,,,,,,,,,,,,,z,1,0.715,,,,,,,,0.74,0.03625,0,0,0,,0,17,17,159,1,CUDDY,C,old,z,./images/CUDDY.png,,,,,,,,,,,,,,,,,,,,,,,,,,,,,,,,,,,
,,,,,,,,,,,,,,,,,5cc0de4dbb24d500170593f6,24,2022-02-12_16h08.36.911,lexical_decision_task_DD_L3,2021.2.3,MacIntel,58.82352941,,,,,,,,,,,0.646,1,,,,,,,,,,,,,,m,1,0.646,,,,,,,,0.74,0.03625,0,0,0,,0,18,18,43,1,MOSQUE,C,old,m,./images/MOSQUE.png,,,,,,,,,,,,,,,,,,,,,,,,,,,,,,,,,,,
,,,,,,,,,,,,,,,,,5cc0de4dbb24d500170593f6,24,2022-02-12_16h08.36.911,lexical_decision_task_DD_L3,2021.2.3,MacIntel,58.82352941,,,,,,,,,,,0.638,1,,,,,,,,,,,,,,z,1,0.638,,,,,,,,0.74,0.03625,0,0,0,,0,19,19,131,1,NACES,LB,old,z,./images/NACESLB.png,,,,,,,,,,,,,,,,,,,,,,,,,,,,,,,,,,,
,,,,,,,,,,,,,,,,,5cc0de4dbb24d500170593f6,24,2022-02-12_16h08.36.911,lexical_decision_task_DD_L3,2021.2.3,MacIntel,58.82352941,,,,,,,,,,,0.769,1,,,,,,,,,,,,,,m,1,0.769,,,,,,,,0.74,0.03625,0,0,0,,0,20,20,53,1,CARPET,HB,old,m,./images/CARPETHB.png,,,,,,,,,,,,,,,,,,,,,,,,,,,,,,,,,,,
,,,,,,,,,,,,,,,,,5cc0de4dbb24d500170593f6,24,2022-02-12_16h08.36.911,lexical_decision_task_DD_L3,2021.2.3,MacIntel,58.82352941,,,,,,,,,,,0.564,1,,,,,,,,,,,,,,m,1,0.564,,,,,,,,0.74,0.03625,0,0,0,,0,21,21,10,1,BELLY,C,old,m,./images/BELLY.png,,,,,,,,,,,,,,,,,,,,,,,,,,,,,,,,,,,
,,,,,,,,,,,,,,,,,5cc0de4dbb24d500170593f6,24,2022-02-12_16h08.36.911,lexical_decision_task_DD_L3,2021.2.3,MacIntel,58.82352941,,,,,,,,,,,0.62,1,,,,,,,,,,,,,,z,1,0.62,,,,,,,,0.74,0.03625,0,0,0,,0,22,22,152,1,FRAIN,LB,old,z,./images/FRAINLB.png,,,,,,,,,,,,,,,,,,,,,,,,,,,,,,,,,,,
,,,,,,,,,,,,,,,,,5cc0de4dbb24d500170593f6,24,2022-02-12_16h08.36.911,lexical_decision_task_DD_L3,2021.2.3,MacIntel,58.82352941,,,,,,,,,,,0.545,1,,,,,,,,,,,,,,z,1,0.545,,,,,,,,0.74,0.03625,0,0,0,,0,23,23,122,1,BLOOT,LB,old,z,./images/BLOOTLB.png,,,,,,,,,,,,,,,,,,,,,,,,,,,,,,,,,,,
,,,,,,,,,,,,,,,,,5cc0de4dbb24d500170593f6,24,2022-02-12_16h08.36.911,lexical_decision_task_DD_L3,2021.2.3,MacIntel,58.82352941,,,,,,,,,,,0.603,1,,,,,,,,,,,,,,z,1,0.603,,,,,,,,0.74,0.03625,0,0,0,,0,24,24,138,1,PLICE,C,old,z,./images/PLICE.png,,,,,,,,,,,,,,,,,,,,,,,,,,,,,,,,,,,
,,,,,,,,,,,,,,,,,5cc0de4dbb24d500170593f6,24,2022-02-12_16h08.36.911,lexical_decision_task_DD_L3,2021.2.3,MacIntel,58.82352941,,,,,,,,,,,0.684,1,,,,,,,,,,,,,,z,1,0.684,,,,,,,,0.74,0.03625,0,0,0,,0,25,25,104,1,GITTY,LB,old,z,./images/GITTYLB.png,,,,,,,,,,,,,,,,,,,,,,,,,,,,,,,,,,,
,,,,,,,,,,,,,,,,,5cc0de4dbb24d500170593f6,24,2022-02-12_16h08.36.911,lexical_decision_task_DD_L3,2021.2.3,MacIntel,58.82352941,,,,,,,,,,,0.57,1,,,,,,,,,,,,,,m,1,0.57,,,,,,,,0.74,0.03625,0,0,0,,0,26,26,58,1,BABOON,C,old,m,./images/BABOON.png,,,,,,,,,,,,,,,,,,,,,,,,,,,,,,,,,,,
,,,,,,,,,,,,,,,,,5cc0de4dbb24d500170593f6,24,2022-02-12_16h08.36.911,lexical_decision_task_DD_L3,2021.2.3,MacIntel,58.82352941,,,,,,,,,,,0.514,1,,,,,,,,,,,,,,z,1,0.514,,,,,,,,0.74,0.03625,0,0,0,,0,27,27,117,1,STEEG,C,old,z,./images/STEEG.png,,,,,,,,,,,,,,,,,,,,,,,,,,,,,,,,,,,
,,,,,,,,,,,,,,,,,5cc0de4dbb24d500170593f6,24,2022-02-12_16h08.36.911,lexical_decision_task_DD_L3,2021.2.3,MacIntel,58.82352941,,,,,,,,,,,0.452,1,,,,,,,,,,,,,,z,1,0.452,,,,,,,,0.74,0.03625,0,0,0,,0,28,28,108,1,GRUET,C,old,z,./images/GRUET.png,,,,,,,,,,,,,,,,,,,,,,,,,,,,,,,,,,,
,,,,,,,,,,,,,,,,,5cc0de4dbb24d500170593f6,24,2022-02-12_16h08.36.911,lexical_decision_task_DD_L3,2021.2.3,MacIntel,58.82352941,,,,,,,,,,,0.653,1,,,,,,,,,,,,,,z,1,0.653,,,,,,,,0.74,0.03625,0,0,0,,0,29,29,127,1,NINDY,HB,old,z,./images/NINDYHB.png,,,,,,,,,,,,,,,,,,,,,,,,,,,,,,,,,,,
,,,,,,,,,,,,,,,,,5cc0de4dbb24d500170593f6,24,2022-02-12_16h08.36.911,lexical_decision_task_DD_L3,2021.2.3,MacIntel,58.82352941,,,,,,,,,,,0.598,1,,,,,,,,,,,,,,z,1,0.598,,,,,,,,0.74,0.03625,0,0,0,,0,30,30,119,1,PAFER,LB,old,z,./images/PAFERLB.png,,,,,,,,,,,,,,,,,,,,,,,,,,,,,,,,,,,
,,,,,,,,,,,,,,,,,5cc0de4dbb24d500170593f6,24,2022-02-12_16h08.36.911,lexical_decision_task_DD_L3,2021.2.3,MacIntel,58.82352941,,,,,,,,,,,0.989,1,,,,,,,,,,,,,,m,1,0.989,,,,,,,,0.74,0.03625,0,0,0,,0,31,31,71,1,PIMPLE,HB,old,m,./images/PIMPLEHB.png,,,,,,,,,,,,,,,,,,,,,,,,,,,,,,,,,,,
,,,,,,,,,,,,,,,,,5cc0de4dbb24d500170593f6,24,2022-02-12_16h08.36.911,lexical_decision_task_DD_L3,2021.2.3,MacIntel,58.82352941,,,,,,,,,,,0.591,1,,,,,,,,,,,,,,m,1,0.591,,,,,,,,0.74,0.03625,0,0,0,,0,32,32,1,1,PLANK,C,old,m,./images/PLANK.png,,,,,,,,,,,,,,,,,,,,,,,,,,,,,,,,,,,
,,,,,,,,,,,,,,,,,5cc0de4dbb24d500170593f6,24,2022-02-12_16h08.36.911,lexical_decision_task_DD_L3,2021.2.3,MacIntel,58.82352941,,,,,,,,,,,0.52,1,,,,,,,,,,,,,,m,1,0.52,,,,,,,,0.74,0.03625,0,0,0,,0,33,33,40,1,SWING,C,old,m,./images/SWING.png,,,,,,,,,,,,,,,,,,,,,,,,,,,,,,,,,,,
,,,,,,,,,,,,,,,,,5cc0de4dbb24d500170593f6,24,2022-02-12_16h08.36.911,lexical_decision_task_DD_L3,2021.2.3,MacIntel,58.82352941,,,,,,,,,,,0.596,1,,,,,,,,,,,,,,m,1,0.596,,,,,,,,0.74,0.03625,0,0,0,,0,34,34,83,1,JUNGLE,HB,old,m,./images/JUNGLEHB.png,,,,,,,,,,,,,,,,,,,,,,,,,,,,,,,,,,,
,,,,,,,,,,,,,,,,,5cc0de4dbb24d500170593f6,24,2022-02-12_16h08.36.911,lexical_decision_task_DD_L3,2021.2.3,MacIntel,58.82352941,,,,,,,,,,,0.754,1,,,,,,,,,,,,,,z,1,0.754,,,,,,,,0.74,0.03625,0,0,0,,0,35,35,94,1,BLANS,HB,old,z,./images/BLANSHB.png,,,,,,,,,,,,,,,,,,,,,,,,,,,,,,,,,,,
,,,,,,,,,,,,,,,,,5cc0de4dbb24d500170593f6,24,2022-02-12_16h08.36.911,lexical_decision_task_DD_L3,2021.2.3,MacIntel,58.82352941,,,,,,,,,,,0.486,1,,,,,,,,,,,,,,z,1,0.486,,,,,,,,0.74,0.03625,0,0,0,,0,36,36,150,1,NOOLS,C,old,z,./images/NOOLS.png,,,,,,,,,,,,,,,,,,,,,,,,,,,,,,,,,,,
,,,,,,,,,,,,,,,,,5cc0de4dbb24d500170593f6,24,2022-02-12_16h08.36.911,lexical_decision_task_DD_L3,2021.2.3,MacIntel,58.82352941,,,,,,,,,,,0.493,1,,,,,,,,,,,,,,m,1,0.493,,,,,,,,0.74,0.03625,0,0,0,,0,37,37,78,1,LITTER,LB,old,m,./images/LITTERLB.png,,,,,,,,,,,,,,,,,,,,,,,,,,,,,,,,,,,
,,,,,,,,,,,,,,,,,5cc0de4dbb24d500170593f6,24,2022-02-12_16h08.36.911,lexical_decision_task_DD_L3,2021.2.3,MacIntel,58.82352941,,,,,,,,,,,0.465,1,,,,,,,,,,,,,,z,1,0.465,,,,,,,,0.74,0.03625,0,0,0,,0,38,38,132,1,SCIFF,C,old,z,./images/SCIFF.png,,,,,,,,,,,,,,,,,,,,,,,,,,,,,,,,,,,
,,,,,,,,,,,,,,,,,5cc0de4dbb24d500170593f6,24,2022-02-12_16h08.36.911,lexical_decision_task_DD_L3,2021.2.3,MacIntel,58.82352941,,,,,,,,,,,0.52,1,,,,,,,,,,,,,,m,1,0.52,,,,,,,,0.74,0.03625,0,0,0,,0,39,39,15,1,GREASE,LB,old,m,./images/GREASELB.png,,,,,,,,,,,,,,,,,,,,,,,,,,,,,,,,,,,
,,,,,,,,,,,,,,,,,5cc0de4dbb24d500170593f6,24,2022-02-12_16h08.36.911,lexical_decision_task_DD_L3,2021.2.3,MacIntel,58.82352941,,,,,,,,,,,0.622,1,,,,,,,,,,,,,,m,1,0.622,,,,,,,,0.74,0.03625,0,0,0,,0,40,40,9,1,RHINO,LB,old,m,./images/RHINOLB.png,,,,,,,,,,,,,,,,,,,,,,,,,,,,,,,,,,,
,,,,,,,,,,,,,,,,,5cc0de4dbb24d500170593f6,24,2022-02-12_16h08.36.911,lexical_decision_task_DD_L3,2021.2.3,MacIntel,58.82352941,,,,,,,,,,,0.531,1,,,,,,,,,,,,,,m,1,0.531,,,,,,,,0.74,0.03625,0,0,0,space,0,41,41,54,1,TRIPOD,LB,old,m,./images/TRIPODLB.png,3.996,,,,,,,,,,,,,,,,,,,,,,,,,,,,,,,,,,
,,,,,,,,,,,,,,,,,5cc0de4dbb24d500170593f6,24,2022-02-12_16h08.36.911,lexical_decision_task_DD_L3,2021.2.3,MacIntel,58.82352941,,,,,,,,,,,0.566,1,,,,,,,,,,,,,,m,1,0.566,,,,,,,,0.74,0.03625,0,0,0,,0,42,42,28,1,FALCON,C,old,m,./images/FALCON.png,,,,,,,,,,,,,,,,,,,,,,,,,,,,,,,,,,,
,,,,,,,,,,,,,,,,,5cc0de4dbb24d500170593f6,24,2022-02-12_16h08.36.911,lexical_decision_task_DD_L3,2021.2.3,MacIntel,58.82352941,,,,,,,,,,,0.566,1,,,,,,,,,,,,,,m,1,0.566,,,,,,,,0.74,0.03625,0,0,0,,0,43,43,21,1,KIDNEY,LB,old,m,./images/KIDNEYLB.png,,,,,,,,,,,,,,,,,,,,,,,,,,,,,,,,,,,
,,,,,,,,,,,,,,,,,5cc0de4dbb24d500170593f6,24,2022-02-12_16h08.36.911,lexical_decision_task_DD_L3,2021.2.3,MacIntel,58.82352941,,,,,,,,,,,0.978,1,,,,,,,,,,,,,,m,1,0.978,,,,,,,,0.74,0.03625,0,0,0,,0,44,44,23,1,WALRUS,HB,old,m,./images/WALRUSHB.png,,,,,,,,,,,,,,,,,,,,,,,,,,,,,,,,,,,
,,,,,,,,,,,,,,,,,5cc0de4dbb24d500170593f6,24,2022-02-12_16h08.36.911,lexical_decision_task_DD_L3,2021.2.3,MacIntel,58.82352941,,,,,,,,,,,0.553,1,,,,,,,,,,,,,,m,1,0.553,,,,,,,,0.74,0.03625,0,0,0,,0,45,45,42,1,FOLDER,LB,old,m,./images/FOLDERLB.png,,,,,,,,,,,,,,,,,,,,,,,,,,,,,,,,,,,
,,,,,,,,,,,,,,,,,5cc0de4dbb24d500170593f6,24,2022-02-12_16h08.36.911,lexical_decision_task_DD_L3,2021.2.3,MacIntel,58.82352941,,,,,,,,,,,0.975,1,,,,,,,,,,,,,,m,1,0.975,,,,,,,,0.74,0.03625,0,0,0,,0,46,46,50,1,MALLET,HB,old,m,./images/MALLETHB.png,,,,,,,,,,,,,,,,,,,,,,,,,,,,,,,,,,,
,,,,,,,,,,,,,,,,,5cc0de4dbb24d500170593f6,24,2022-02-12_16h08.36.911,lexical_decision_task_DD_L3,2021.2.3,MacIntel,58.82352941,,,,,,,,,,,0.545,1,,,,,,,,,,,,,,z,1,0.545,,,,,,,,0.74,0.03625,0,0,0,,0,47,47,155,1,CANGY,LB,old,z,./images/CANGYLB.png,,,,,,,,,,,,,,,,,,,,,,,,,,,,,,,,,,,
,,,,,,,,,,,,,,,,,5cc0de4dbb24d500170593f6,24,2022-02-12_16h08.36.911,lexical_decision_task_DD_L3,2021.2.3,MacIntel,58.82352941,,,,,,,,,,,0.497,1,,,,,,,,,,,,,,m,1,0.497,,,,,,,,0.74,0.03625,0,0,0,,0,48,48,64,1,JELLY,C,old,m,./images/JELLY.png,,,,,,,,,,,,,,,,,,,,,,,,,,,,,,,,,,,
,,,,,,,,,,,,,,,,,5cc0de4dbb24d500170593f6,24,2022-02-12_16h08.36.911,lexical_decision_task_DD_L3,2021.2.3,MacIntel,58.82352941,,,,,,,,,,,0.539,1,,,,,,,,,,,,,,z,1,0.539,,,,,,,,0.74,0.03625,0,0,0,,0,49,49,95,1,HANTY,LB,old,z,./images/HANTYLB.png,,,,,,,,,,,,,,,,,,,,,,,,,,,,,,,,,,,
,,,,,,,,,,,,,,,,,5cc0de4dbb24d500170593f6,24,2022-02-12_16h08.36.911,lexical_decision_task_DD_L3,2021.2.3,MacIntel,58.82352941,,,,,,,,,,,0.496,1,,,,,,,,,,,,,,m,1,0.496,,,,,,,,0.74,0.03625,0,0,0,,0,50,50,30,1,STORM,LB,old,m,./images/STORMLB.png,,,,,,,,,,,,,,,,,,,,,,,,,,,,,,,,,,,
,,,,,,,,,,,,,,,,,5cc0de4dbb24d500170593f6,24,2022-02-12_16h08.36.911,lexical_decision_task_DD_L3,2021.2.3,MacIntel,58.82352941,,,,,,,,,,,0.533,1,,,,,,,,,,,,,,m,1,0.533,,,,,,,,0.74,0.03625,0,0,0,,0,51,51,57,1,MOOSE,LB,old,m,./images/MOOSELB.png,,,,,,,,,,,,,,,,,,,,,,,,,,,,,,,,,,,
,,,,,,,,,,,,,,,,,5cc0de4dbb24d500170593f6,24,2022-02-12_16h08.36.911,lexical_decision_task_DD_L3,2021.2.3,MacIntel,58.82352941,,,,,,,,,,,0.687,1,,,,,,,,,,,,,,z,1,0.687,,,,,,,,0.74,0.03625,0,0,0,,0,52,52,124,1,TUNCH,HB,old,z,./images/TUNCHHB.png,,,,,,,,,,,,,,,,,,,,,,,,,,,,,,,,,,,
,,,,,,,,,,,,,,,,,5cc0de4dbb24d500170593f6,24,2022-02-12_16h08.36.911,lexical_decision_task_DD_L3,2021.2.3,MacIntel,58.82352941,,,,,,,,,,,0.442,1,,,,,,,,,,,,,,m,1,0.442,,,,,,,,0.74,0.03625,0,0,0,,0,53,53,55,1,MUFFIN,C,old,m,./images/MUFFIN.png,,,,,,,,,,,,,,,,,,,,,,,,,,,,,,,,,,,
,,,,,,,,,,,,,,,,,5cc0de4dbb24d500170593f6,24,2022-02-12_16h08.36.911,lexical_decision_task_DD_L3,2021.2.3,MacIntel,58.82352941,,,,,,,,,,,0.518,1,,,,,,,,,,,,,,m,1,0.518,,,,,,,,0.74,0.03625,0,0,0,,0,54,54,82,1,SUNSET,C,old,m,./images/SUNSET.png,,,,,,,,,,,,,,,,,,,,,,,,,,,,,,,,,,,
,,,,,,,,,,,,,,,,,5cc0de4dbb24d500170593f6,24,2022-02-12_16h08.36.911,lexical_decision_task_DD_L3,2021.2.3,MacIntel,58.82352941,,,,,,,,,,,0.554,1,,,,,,,,,,,,,,z,1,0.554,,,,,,,,0.74,0.03625,0,0,0,,0,55,55,167,1,ZONET,LB,old,z,./images/ZONETLB.png,,,,,,,,,,,,,,,,,,,,,,,,,,,,,,,,,,,
,,,,,,,,,,,,,,,,,5cc0de4dbb24d500170593f6,24,2022-02-12_16h08.36.911,lexical_decision_task_DD_L3,2021.2.3,MacIntel,58.82352941,,,,,,,,,,,0.587,1,,,,,,,,,,,,,,m,1,0.587,,,,,,,,0.74,0.03625,0,0,0,,0,56,56,39,1,SHELF,LB,old,m,./images/SHELFLB.png,,,,,,,,,,,,,,,,,,,,,,,,,,,,,,,,,,,
,,,,,,,,,,,,,,,,,5cc0de4dbb24d500170593f6,24,2022-02-12_16h08.36.911,lexical_decision_task_DD_L3,2021.2.3,MacIntel,58.82352941,,,,,,,,,,,0.601,1,,,,,,,,,,,,,,z,1,0.601,,,,,,,,0.74,0.03625,0,0,0,,0,57,57,146,1,MOOST,LB,old,z,./images/MOOSTLB.png,,,,,,,,,,,,,,,,,,,,,,,,,,,,,,,,,,,
,,,,,,,,,,,,,,,,,5cc0de4dbb24d500170593f6,24,2022-02-12_16h08.36.911,lexical_decision_task_DD_L3,2021.2.3,MacIntel,58.82352941,,,,,,,,,,,0.57,0,,,,,,,,,,,,,,m,0,0.57,,,,,,,,0.74,0.03625,0,0,0,,0,58,58,134,1,TROSS,LB,old,z,./images/TROSSLB.png,,,,,,,,,,,,,,,,,,,,,,,,,,,,,,,,,,,
,,,,,,,,,,,,,,,,,5cc0de4dbb24d500170593f6,24,2022-02-12_16h08.36.911,lexical_decision_task_DD_L3,2021.2.3,MacIntel,58.82352941,,,,,,,,,,,0.536,1,,,,,,,,,,,,,,m,1,0.536,,,,,,,,0.74,0.03625,0,0,0,,0,59,59,27,1,ATTIC,LB,old,m,./images/ATTICLB.png,,,,,,,,,,,,,,,,,,,,,,,,,,,,,,,,,,,
,,,,,,,,,,,,,,,,,5cc0de4dbb24d500170593f6,24,2022-02-12_16h08.36.911,lexical_decision_task_DD_L3,2021.2.3,MacIntel,58.82352941,,,,,,,,,,,0.752,1,,,,,,,,,,,,,,m,1,0.752,,,,,,,,0.74,0.03625,0,0,0,,0,60,60,22,1,MELON,C,old,m,./images/MELON.png,,,,,,,,,,,,,,,,,,,,,,,,,,,,,,,,,,,
,,,,,,,,,,,,,,,,,5cc0de4dbb24d500170593f6,24,2022-02-12_16h08.36.911,lexical_decision_task_DD_L3,2021.2.3,MacIntel,58.82352941,,,,,,,,,,,0.604,1,,,,,,,,,,,,,,z,1,0.604,,,,,,,,0.74,0.03625,0,0,0,,0,61,61,105,1,MOKER,C,old,z,./images/MOKER.png,,,,,,,,,,,,,,,,,,,,,,,,,,,,,,,,,,,
,,,,,,,,,,,,,,,,,5cc0de4dbb24d500170593f6,24,2022-02-12_16h08.36.911,lexical_decision_task_DD_L3,2021.2.3,MacIntel,58.82352941,,,,,,,,,,,0.774,1,,,,,,,,,,,,,,m,1,0.774,,,,,,,,0.74,0.03625,0,0,0,,0,62,62,35,1,PEACH,HB,old,m,./images/PEACHHB.png,,,,,,,,,,,,,,,,,,,,,,,,,,,,,,,,,,,
,,,,,,,,,,,,,,,,,5cc0de4dbb24d500170593f6,24,2022-02-12_16h08.36.911,lexical_decision_task_DD_L3,2021.2.3,MacIntel,58.82352941,,,,,,,,,,,0.922,1,,,,,,,,,,,,,,m,1,0.922,,,,,,,,0.74,0.03625,0,0,0,,0,63,63,41,1,STRING,HB,old,m,./images/STRINGHB.png,,,,,,,,,,,,,,,,,,,,,,,,,,,,,,,,,,,
,,,,,,,,,,,,,,,,,5cc0de4dbb24d500170593f6,24,2022-02-12_16h08.36.911,lexical_decision_task_DD_L3,2021.2.3,MacIntel,58.82352941,,,,,,,,,,,0.439,0,,,,,,,,,,,,,,z,0,0.439,,,,,,,,0.74,0.03625,0,0,0,,0,64,64,13,1,MOTOR,C,old,m,./images/MOTOR.png,,,,,,,,,,,,,,,,,,,,,,,,,,,,,,,,,,,
,,,,,,,,,,,,,,,,,5cc0de4dbb24d500170593f6,24,2022-02-12_16h08.36.911,lexical_decision_task_DD_L3,2021.2.3,MacIntel,58.82352941,,,,,,,,,,,0.702,1,,,,,,,,,,,,,,z,1,0.702,,,,,,,,0.74,0.03625,0,0,0,,0,65,65,126,1,GUELS,C,old,z,./images/GUELS.png,,,,,,,,,,,,,,,,,,,,,,,,,,,,,,,,,,,
,,,,,,,,,,,,,,,,,5cc0de4dbb24d500170593f6,24,2022-02-12_16h08.36.911,lexical_decision_task_DD_L3,2021.2.3,MacIntel,58.82352941,,,,,,,,,,,0.869,1,,,,,,,,,,,,,,m,1,0.869,,,,,,,,0.74,0.03625,0,0,0,,0,66,66,59,1,BURIAL,HB,old,m,./images/BURIALHB.png,,,,,,,,,,,,,,,,,,,,,,,,,,,,,,,,,,,
,,,,,,,,,,,,,,,,,5cc0de4dbb24d500170593f6,24,2022-02-12_16h08.36.911,lexical_decision_task_DD_L3,2021.2.3,MacIntel,58.82352941,,,,,,,,,,,0.979,1,,,,,,,,,,,,,,z,1,0.979,,,,,,,,0.74,0.03625,0,0,0,,0,67,67,106,1,CLUMS,HB,old,z,./images/CLUMSHB.png,,,,,,,,,,,,,,,,,,,,,,,,,,,,,,,,,,,
,,,,,,,,,,,,,,,,,5cc0de4dbb24d500170593f6,24,2022-02-12_16h08.36.911,lexical_decision_task_DD_L3,2021.2.3,MacIntel,58.82352941,,,,,,,,,,,0.596,1,,,,,,,,,,,,,,m,1,0.596,,,,,,,,0.74,0.03625,0,0,0,,0,68,68,0,1,TOMATO,LB,old,m,./images/TOMATOLB.png,,,,,,,,,,,,,,,,,,,,,,,,,,,,,,,,,,,
,,,,,,,,,,,,,,,,,5cc0de4dbb24d500170593f6,24,2022-02-12_16h08.36.911,lexical_decision_task_DD_L3,2021.2.3,MacIntel,58.82352941,,,,,,,,,,,0.571,1,,,,,,,,,,,,,,m,1,0.571,,,,,,,,0.74,0.03625,0,0,0,,0,69,69,45,1,KITTEN,LB,old,m,./images/KITTENLB.png,,,,,,,,,,,,,,,,,,,,,,,,,,,,,,,,,,,
,,,,,,,,,,,,,,,,,5cc0de4dbb24d500170593f6,24,2022-02-12_16h08.36.911,lexical_decision_task_DD_L3,2021.2.3,MacIntel,58.82352941,,,,,,,,,,,0.633,1,,,,,,,,,,,,,,z,1,0.633,,,,,,,,0.74,0.03625,0,0,0,,0,70,70,156,1,HIXES,C,old,z,./images/HIXES.png,,,,,,,,,,,,,,,,,,,,,,,,,,,,,,,,,,,
,,,,,,,,,,,,,,,,,5cc0de4dbb24d500170593f6,24,2022-02-12_16h08.36.911,lexical_decision_task_DD_L3,2021.2.3,MacIntel,58.82352941,,,,,,,,,,,0.716,1,,,,,,,,,,,,,,m,1,0.716,,,,,,,,0.74,0.03625,0,0,0,,0,71,71,32,1,BARREL,HB,old,m,./images/BARRELHB.png,,,,,,,,,,,,,,,,,,,,,,,,,,,,,,,,,,,
,,,,,,,,,,,,,,,,,5cc0de4dbb24d500170593f6,24,2022-02-12_16h08.36.911,lexical_decision_task_DD_L3,2021.2.3,MacIntel,58.82352941,,,,,,,,,,,0.698,1,,,,,,,,,,,,,,m,1,0.698,,,,,,,,0.74,0.03625,0,0,0,,0,72,72,47,1,BERRY,HB,old,m,./images/BERRYHB.png,,,,,,,,,,,,,,,,,,,,,,,,,,,,,,,,,,,
,,,,,,,,,,,,,,,,,5cc0de4dbb24d500170593f6,24,2022-02-12_16h08.36.911,lexical_decision_task_DD_L3,2021.2.3,MacIntel,58.82352941,,,,,,,,,,,0.616,1,,,,,,,,,,,,,,m,1,0.616,,,,,,,,0.74,0.03625,0,0,0,,0,73,73,46,1,PEARL,C,old,m,./images/PEARL.png,,,,,,,,,,,,,,,,,,,,,,,,,,,,,,,,,,,
,,,,,,,,,,,,,,,,,5cc0de4dbb24d500170593f6,24,2022-02-12_16h08.36.911,lexical_decision_task_DD_L3,2021.2.3,MacIntel,58.82352941,,,,,,,,,,,0.637,1,,,,,,,,,,,,,,z,1,0.637,,,,,,,,0.74,0.03625,0,0,0,,0,74,74,164,1,SGREW,LB,old,z,./images/SGREWLB.png,,,,,,,,,,,,,,,,,,,,,,,,,,,,,,,,,,,
,,,,,,,,,,,,,,,,,5cc0de4dbb24d500170593f6,24,2022-02-12_16h08.36.911,lexical_decision_task_DD_L3,2021.2.3,MacIntel,58.82352941,,,,,,,,,,,0.671,1,,,,,,,,,,,,,,m,1,0.671,,,,,,,,0.74,0.03625,0,0,0,,0,75,75,25,1,WRIST,C,old,m,./images/WRIST.png,,,,,,,,,,,,,,,,,,,,,,,,,,,,,,,,,,,
,,,,,,,,,,,,,,,,,5cc0de4dbb24d500170593f6,24,2022-02-12_16h08.36.911,lexical_decision_task_DD_L3,2021.2.3,MacIntel,58.82352941,,,,,,,,,,,0.597,1,,,,,,,,,,,,,,z,1,0.597,,,,,,,,0.74,0.03625,0,0,0,,0,76,76,102,1,DULLE,C,old,z,./images/DULLE.png,,,,,,,,,,,,,,,,,,,,,,,,,,,,,,,,,,,
,,,,,,,,,,,,,,,,,5cc0de4dbb24d500170593f6,24,2022-02-12_16h08.36.911,lexical_decision_task_DD_L3,2021.2.3,MacIntel,58.82352941,,,,,,,,,,,0.988,1,,,,,,,,,,,,,,z,1,0.988,,,,,,,,0.74,0.03625,0,0,0,,0,77,77,109,1,BURGE,HB,old,z,./images/BURGEHB.png,,,,,,,,,,,,,,,,,,,,,,,,,,,,,,,,,,,
,,,,,,,,,,,,,,,,,5cc0de4dbb24d500170593f6,24,2022-02-12_16h08.36.911,lexical_decision_task_DD_L3,2021.2.3,MacIntel,58.82352941,,,,,,,,,,,0.592,1,,,,,,,,,,,,,,z,1,0.592,,,,,,,,0.74,0.03625,0,0,0,,0,78,78,86,1,AIFED,LB,old,z,./images/AIFEDLB.png,,,,,,,,,,,,,,,,,,,,,,,,,,,,,,,,,,,
,,,,,,,,,,,,,,,,,5cc0de4dbb24d500170593f6,24,2022-02-12_16h08.36.911,lexical_decision_task_DD_L3,2021.2.3,MacIntel,58.82352941,,,,,,,,,,,0.582,1,,,,,,,,,,,,,,m,1,0.582,,,,,,,,0.74,0.03625,0,0,0,,0,79,79,34,1,CANYON,C,old,m,./images/CANYON.png,,,,,,,,,,,,,,,,,,,,,,,,,,,,,,,,,,,
,,,,,,,,,,,,,,,,,5cc0de4dbb24d500170593f6,24,2022-02-12_16h08.36.911,lexical_decision_task_DD_L3,2021.2.3,MacIntel,58.82352941,,,,,,,,,,,0.537,1,,,,,,,,,,,,,,z,1,0.537,,,,,,,,0.74,0.03625,0,0,0,,0,80,80,135,1,JOODY,C,old,z,./images/JOODY.png,,,,,,,,,,,,,,,,,,,,,,,,,,,,,,,,,,,
,,,,,,,,,,,,,,,,,5cc0de4dbb24d500170593f6,24,2022-02-12_16h08.36.911,lexical_decision_task_DD_L3,2021.2.3,MacIntel,58.82352941,,,,,,,,,,,0.586,1,,,,,,,,,,,,,,z,1,0.586,,,,,,,,0.74,0.03625,0,0,0,,0,81,81,89,1,DRIEK,LB,old,z,./images/DRIEKLB.png,,,,,,,,,,,,,,,,,,,,,,,,,,,,,,,,,,,
,,,,,,,,,,,,,,,,,5cc0de4dbb24d500170593f6,24,2022-02-12_16h08.36.911,lexical_decision_task_DD_L3,2021.2.3,MacIntel,58.82352941,,,,,,,,,,,0.579,1,,,,,,,,,,,,,,z,1,0.579,,,,,,,,0.74,0.03625,0,0,0,,0,82,82,123,1,SEDGE,C,old,z,./images/SEDGE.png,,,,,,,,,,,,,,,,,,,,,,,,,,,,,,,,,,,
,,,,,,,,,,,,,,,,,5cc0de4dbb24d500170593f6,24,2022-02-12_16h08.36.911,lexical_decision_task_DD_L3,2021.2.3,MacIntel,58.82352941,,,,,,,,,,,0.546,1,,,,,,,,,,,,,,m,1,0.546,,,,,,,,0.74,0.03625,0,0,0,space,0,83,83,60,1,TWINS,LB,old,m,./images/TWINSLB.png,1.77,,,,,,,,,,,,,,,,,,,,,,,,,,,,,,,,,,
,,,,,,,,,,,,,,,,,5cc0de4dbb24d500170593f6,24,2022-02-12_16h08.36.911,lexical_decision_task_DD_L3,2021.2.3,MacIntel,58.82352941,,,,,,,,,,,0.59,1,,,,,,,,,,,,,,z,1,0.59,,,,,,,,0.74,0.03625,0,0,0,,0,84,84,129,1,PRANS,C,old,z,./images/PRANS.png,,,,,,,,,,,,,,,,,,,,,,,,,,,,,,,,,,,
,,,,,,,,,,,,,,,,,5cc0de4dbb24d500170593f6,24,2022-02-12_16h08.36.911,lexical_decision_task_DD_L3,2021.2.3,MacIntel,58.82352941,,,,,,,,,,,0.555,1,,,,,,,,,,,,,,m,1,0.555,,,,,,,,0.74,0.03625,0,0,0,,0,85,85,5,1,PASTA,HB,old,m,./images/PASTAHB.png,,,,,,,,,,,,,,,,,,,,,,,,,,,,,,,,,,,
,,,,,,,,,,,,,,,,,5cc0de4dbb24d500170593f6,24,2022-02-12_16h08.36.911,lexical_decision_task_DD_L3,2021.2.3,MacIntel,58.82352941,,,,,,,,,,,0.63,0,,,,,,,,,,,,,,z,0,0.63,,,,,,,,0.74,0.03625,0,0,0,,0,86,86,16,1,PENCE,C,old,m,./images/PENCE.png,,,,,,,,,,,,,,,,,,,,,,,,,,,,,,,,,,,
,,,,,,,,,,,,,,,,,5cc0de4dbb24d500170593f6,24,2022-02-12_16h08.36.911,lexical_decision_task_DD_L3,2021.2.3,MacIntel,58.82352941,,,,,,,,,,,0.665,1,,,,,,,,,,,,,,m,1,0.665,,,,,,,,0.74,0.03625,0,0,0,,0,87,87,38,1,LADDER,HB,old,m,./images/LADDERHB.png,,,,,,,,,,,,,,,,,,,,,,,,,,,,,,,,,,,
,,,,,,,,,,,,,,,,,5cc0de4dbb24d500170593f6,24,2022-02-12_16h08.36.911,lexical_decision_task_DD_L3,2021.2.3,MacIntel,58.82352941,,,,,,,,,,,0.663,1,,,,,,,,,,,,,,z,1,0.663,,,,,,,,0.74,0.03625,0,0,0,,0,88,88,87,1,TRING,C,old,z,./images/TRING.png,,,,,,,,,,,,,,,,,,,,,,,,,,,,,,,,,,,
,,,,,,,,,,,,,,,,,5cc0de4dbb24d500170593f6,24,2022-02-12_16h08.36.911,lexical_decision_task_DD_L3,2021.2.3,MacIntel,58.82352941,,,,,,,,,,,0.558,1,,,,,,,,,,,,,,m,1,0.558,,,,,,,,0.74,0.03625,0,0,0,,0,89,89,61,1,CANDLE,C,old,m,./images/CANDLE.png,,,,,,,,,,,,,,,,,,,,,,,,,,,,,,,,,,,
,,,,,,,,,,,,,,,,,5cc0de4dbb24d500170593f6,24,2022-02-12_16h08.36.911,lexical_decision_task_DD_L3,2021.2.3,MacIntel,58.82352941,,,,,,,,,,,0.534,1,,,,,,,,,,,,,,m,1,0.534,,,,,,,,0.74,0.03625,0,0,0,,0,90,90,63,1,MIRROR,LB,old,m,./images/MIRRORLB.png,,,,,,,,,,,,,,,,,,,,,,,,,,,,,,,,,,,
,,,,,,,,,,,,,,,,,5cc0de4dbb24d500170593f6,24,2022-02-12_16h08.36.911,lexical_decision_task_DD_L3,2021.2.3,MacIntel,58.82352941,,,,,,,,,,,0.561,1,,,,,,,,,,,,,,m,1,0.561,,,,,,,,0.74,0.03625,0,0,0,,0,91,91,48,1,SPORT,LB,old,m,./images/SPORTLB.png,,,,,,,,,,,,,,,,,,,,,,,,,,,,,,,,,,,
,,,,,,,,,,,,,,,,,5cc0de4dbb24d500170593f6,24,2022-02-12_16h08.36.911,lexical_decision_task_DD_L3,2021.2.3,MacIntel,58.82352941,,,,,,,,,,,0.602,1,,,,,,,,,,,,,,z,1,0.602,,,,,,,,0.74,0.03625,0,0,0,,0,92,92,98,1,BAMPS,LB,old,z,./images/BAMPSLB.png,,,,,,,,,,,,,,,,,,,,,,,,,,,,,,,,,,,
,,,,,,,,,,,,,,,,,5cc0de4dbb24d500170593f6,24,2022-02-12_16h08.36.911,lexical_decision_task_DD_L3,2021.2.3,MacIntel,58.82352941,,,,,,,,,,,0.466,1,,,,,,,,,,,,,,m,1,0.466,,,,,,,,0.74,0.03625,0,0,0,,0,93,93,7,1,PAINT,C,old,m,./images/PAINT.png,,,,,,,,,,,,,,,,,,,,,,,,,,,,,,,,,,,
,,,,,,,,,,,,,,,,,5cc0de4dbb24d500170593f6,24,2022-02-12_16h08.36.911,lexical_decision_task_DD_L3,2021.2.3,MacIntel,58.82352941,,,,,,,,,,,1.699,1,,,,,,,,,,,,,,z,1,1.699,,,,,,,,0.74,0.03625,0,0,0,,0,94,94,166,1,SHORY,HB,old,z,./images/SHORYHB.png,,,,,,,,,,,,,,,,,,,,,,,,,,,,,,,,,,,
,,,,,,,,,,,,,,,,,5cc0de4dbb24d500170593f6,24,2022-02-12_16h08.36.911,lexical_decision_task_DD_L3,2021.2.3,MacIntel,58.82352941,,,,,,,,,,,0.667,1,,,,,,,,,,,,,,z,1,0.667,,,,,,,,0.74,0.03625,0,0,0,,0,95,95,93,1,SMONE,C,old,z,./images/SMONE.png,,,,,,,,,,,,,,,,,,,,,,,,,,,,,,,,,,,
,,,,,,,,,,,,,,,,,5cc0de4dbb24d500170593f6,24,2022-02-12_16h08.36.911,lexical_decision_task_DD_L3,2021.2.3,MacIntel,58.82352941,,,,,,,,,,,0.947,1,,,,,,,,,,,,,,z,1,0.947,,,,,,,,0.74,0.03625,0,0,0,,0,96,96,97,1,CHIDS,HB,old,z,./images/CHIDSHB.png,,,,,,,,,,,,,,,,,,,,,,,,,,,,,,,,,,,
,,,,,,,,,,,,,,,,,5cc0de4dbb24d500170593f6,24,2022-02-12_16h08.36.911,lexical_decision_task_DD_L3,2021.2.3,MacIntel,58.82352941,,,,,,,,,,,0.612,1,,,,,,,,,,,,,,m,1,0.612,,,,,,,,0.74,0.03625,0,0,0,,0,97,97,66,1,SWEAT,LB,old,m,./images/SWEATLB.png,,,,,,,,,,,,,,,,,,,,,,,,,,,,,,,,,,,
,,,,,,,,,,,,,,,,,5cc0de4dbb24d500170593f6,24,2022-02-12_16h08.36.911,lexical_decision_task_DD_L3,2021.2.3,MacIntel,58.82352941,,,,,,,,,,,0.493,1,,,,,,,,,,,,,,m,1,0.493,,,,,,,,0.74,0.03625,0,0,0,,0,98,98,69,1,COOKER,LB,old,m,./images/COOKERLB.png,,,,,,,,,,,,,,,,,,,,,,,,,,,,,,,,,,,
,,,,,,,,,,,,,,,,,5cc0de4dbb24d500170593f6,24,2022-02-12_16h08.36.911,lexical_decision_task_DD_L3,2021.2.3,MacIntel,58.82352941,,,,,,,,,,,0.613,1,,,,,,,,,,,,,,m,1,0.613,,,,,,,,0.74,0.03625,0,0,0,,0,99,99,79,1,CRUST,C,old,m,./images/CRUST.png,,,,,,,,,,,,,,,,,,,,,,,,,,,,,,,,,,,
,,,,,,,,,,,,,,,,,5cc0de4dbb24d500170593f6,24,2022-02-12_16h08.36.911,lexical_decision_task_DD_L3,2021.2.3,MacIntel,58.82352941,,,,,,,,,,,0.562,1,,,,,,,,,,,,,,z,1,0.562,,,,,,,,0.74,0.03625,0,0,0,,0,100,100,101,1,GLEET,LB,old,z,./images/GLEETLB.png,,,,,,,,,,,,,,,,,,,,,,,,,,,,,,,,,,,
,,,,,,,,,,,,,,,,,5cc0de4dbb24d500170593f6,24,2022-02-12_16h08.36.911,lexical_decision_task_DD_L3,2021.2.3,MacIntel,58.82352941,,,,,,,,,,,0.573,1,,,,,,,,,,,,,,z,1,0.573,,,,,,,,0.74,0.03625,0,0,0,,0,101,101,111,1,HOSSE,C,old,z,./images/HOSSE.png,,,,,,,,,,,,,,,,,,,,,,,,,,,,,,,,,,,
,,,,,,,,,,,,,,,,,5cc0de4dbb24d500170593f6,24,2022-02-12_16h08.36.911,lexical_decision_task_DD_L3,2021.2.3,MacIntel,58.82352941,,,,,,,,,,,0.59,1,,,,,,,,,,,,,,z,1,0.59,,,,,,,,0.74,0.03625,0,0,0,,0,102,102,90,1,NEAST,C,old,z,./images/NEAST.png,,,,,,,,,,,,,,,,,,,,,,,,,,,,,,,,,,,
,,,,,,,,,,,,,,,,,5cc0de4dbb24d500170593f6,24,2022-02-12_16h08.36.911,lexical_decision_task_DD_L3,2021.2.3,MacIntel,58.82352941,,,,,,,,,,,0.862,1,,,,,,,,,,,,,,z,1,0.862,,,,,,,,0.74,0.03625,0,0,0,,0,103,103,142,1,PLASK,HB,old,z,./images/PLASKHB.png,,,,,,,,,,,,,,,,,,,,,,,,,,,,,,,,,,,
,,,,,,,,,,,,,,,,,5cc0de4dbb24d500170593f6,24,2022-02-12_16h08.36.911,lexical_decision_task_DD_L3,2021.2.3,MacIntel,58.82352941,,,,,,,,,,,0.586,1,,,,,,,,,,,,,,z,1,0.586,,,,,,,,0.74,0.03625,0,0,0,,0,104,104,125,1,MOOKY,LB,old,z,./images/MOOKYLB.png,,,,,,,,,,,,,,,,,,,,,,,,,,,,,,,,,,,
,,,,,,,,,,,,,,,,,5cc0de4dbb24d500170593f6,24,2022-02-12_16h08.36.911,lexical_decision_task_DD_L3,2021.2.3,MacIntel,58.82352941,,,,,,,,,,,0.528,1,,,,,,,,,,,,,,z,1,0.528,,,,,,,,0.74,0.03625,0,0,0,,0,105,105,162,1,LEICH,C,old,z,./images/LEICH.png,,,,,,,,,,,,,,,,,,,,,,,,,,,,,,,,,,,
,,,,,,,,,,,,,,,,,5cc0de4dbb24d500170593f6,24,2022-02-12_16h08.36.911,lexical_decision_task_DD_L3,2021.2.3,MacIntel,58.82352941,,,,,,,,,,,0.584,1,,,,,,,,,,,,,,m,1,0.584,,,,,,,,0.74,0.03625,0,0,0,,0,106,106,4,1,MUSCLE,C,old,m,./images/MUSCLE.png,,,,,,,,,,,,,,,,,,,,,,,,,,,,,,,,,,,
,,,,,,,,,,,,,,,,,5cc0de4dbb24d500170593f6,24,2022-02-12_16h08.36.911,lexical_decision_task_DD_L3,2021.2.3,MacIntel,58.82352941,,,,,,,,,,,0.567,1,,,,,,,,,,,,,,z,1,0.567,,,,,,,,0.74,0.03625,0,0,0,,0,107,107,144,1,NAIRY,C,old,z,./images/NAIRY.png,,,,,,,,,,,,,,,,,,,,,,,,,,,,,,,,,,,
,,,,,,,,,,,,,,,,,5cc0de4dbb24d500170593f6,24,2022-02-12_16h08.36.911,lexical_decision_task_DD_L3,2021.2.3,MacIntel,58.82352941,,,,,,,,,,,0.97,1,,,,,,,,,,,,,,z,1,0.97,,,,,,,,0.74,0.03625,0,0,0,,0,108,108,121,1,CEERS,HB,old,z,./images/CEERSHB.png,,,,,,,,,,,,,,,,,,,,,,,,,,,,,,,,,,,
,,,,,,,,,,,,,,,,,5cc0de4dbb24d500170593f6,24,2022-02-12_16h08.36.911,lexical_decision_task_DD_L3,2021.2.3,MacIntel,58.82352941,,,,,,,,,,,0.61,1,,,,,,,,,,,,,,m,1,0.61,,,,,,,,0.74,0.03625,0,0,0,,0,109,109,62,1,PURSE,HB,old,m,./images/PURSEHB.png,,,,,,,,,,,,,,,,,,,,,,,,,,,,,,,,,,,
,,,,,,,,,,,,,,,,,5cc0de4dbb24d500170593f6,24,2022-02-12_16h08.36.911,lexical_decision_task_DD_L3,2021.2.3,MacIntel,58.82352941,,,,,,,,,,,0.715,1,,,,,,,,,,,,,,z,1,0.715,,,,,,,,0.74,0.03625,0,0,0,,0,110,110,137,1,JOOST,LB,old,z,./images/JOOSTLB.png,,,,,,,,,,,,,,,,,,,,,,,,,,,,,,,,,,,
,,,,,,,,,,,,,,,,,5cc0de4dbb24d500170593f6,24,2022-02-12_16h08.36.911,lexical_decision_task_DD_L3,2021.2.3,MacIntel,58.82352941,,,,,,,,,,,0.615,1,,,,,,,,,,,,,,m,1,0.615,,,,,,,,0.74,0.03625,0,0,0,,0,111,111,19,1,DOUGH,C,old,m,./images/DOUGH.png,,,,,,,,,,,,,,,,,,,,,,,,,,,,,,,,,,,
,,,,,,,,,,,,,,,,,5cc0de4dbb24d500170593f6,24,2022-02-12_16h08.36.911,lexical_decision_task_DD_L3,2021.2.3,MacIntel,58.82352941,,,,,,,,,,,0.595,1,,,,,,,,,,,,,,m,1,0.595,,,,,,,,0.74,0.03625,0,0,0,,0,112,112,75,1,GRAIN,LB,old,m,./images/GRAINLB.png,,,,,,,,,,,,,,,,,,,,,,,,,,,,,,,,,,,
,,,,,,,,,,,,,,,,,5cc0de4dbb24d500170593f6,24,2022-02-12_16h08.36.911,lexical_decision_task_DD_L3,2021.2.3,MacIntel,58.82352941,,,,,,,,,,,0.637,1,,,,,,,,,,,,,,z,1,0.637,,,,,,,,0.74,0.03625,0,0,0,,0,113,113,165,1,TROWN,C,old,z,./images/TROWN.png,,,,,,,,,,,,,,,,,,,,,,,,,,,,,,,,,,,
,,,,,,,,,,,,,,,,,5cc0de4dbb24d500170593f6,24,2022-02-12_16h08.36.911,lexical_decision_task_DD_L3,2021.2.3,MacIntel,58.82352941,,,,,,,,,,,1.138,1,,,,,,,,,,,,,,m,1,1.138,,,,,,,,0.74,0.03625,0,0,0,,0,114,114,56,1,PACKET,HB,old,m,./images/PACKETHB.png,,,,,,,,,,,,,,,,,,,,,,,,,,,,,,,,,,,
,,,,,,,,,,,,,,,,,5cc0de4dbb24d500170593f6,24,2022-02-12_16h08.36.911,lexical_decision_task_DD_L3,2021.2.3,MacIntel,58.82352941,,,,,,,,,,,0.668,1,,,,,,,,,,,,,,m,1,0.668,,,,,,,,0.74,0.03625,0,0,0,,0,115,115,80,1,WEASEL,HB,old,m,./images/WEASELHB.png,,,,,,,,,,,,,,,,,,,,,,,,,,,,,,,,,,,
,,,,,,,,,,,,,,,,,5cc0de4dbb24d500170593f6,24,2022-02-12_16h08.36.911,lexical_decision_task_DD_L3,2021.2.3,MacIntel,58.82352941,,,,,,,,,,,0.56,1,,,,,,,,,,,,,,z,1,0.56,,,,,,,,0.74,0.03625,0,0,0,,0,116,116,107,1,FASKS,LB,old,z,./images/FASKSLB.png,,,,,,,,,,,,,,,,,,,,,,,,,,,,,,,,,,,
,,,,,,,,,,,,,,,,,5cc0de4dbb24d500170593f6,24,2022-02-12_16h08.36.911,lexical_decision_task_DD_L3,2021.2.3,MacIntel,58.82352941,,,,,,,,,,,0.762,1,,,,,,,,,,,,,,m,1,0.762,,,,,,,,0.74,0.03625,0,0,0,,0,117,117,26,1,SMOKER,HB,old,m,./images/SMOKERHB.png,,,,,,,,,,,,,,,,,,,,,,,,,,,,,,,,,,,
,,,,,,,,,,,,,,,,,5cc0de4dbb24d500170593f6,24,2022-02-12_16h08.36.911,lexical_decision_task_DD_L3,2021.2.3,MacIntel,58.82352941,,,,,,,,,,,0.546,1,,,,,,,,,,,,,,m,1,0.546,,,,,,,,0.74,0.03625,0,0,0,,0,118,118,76,1,INFANT,C,old,m,./images/INFANT.png,,,,,,,,,,,,,,,,,,,,,,,,,,,,,,,,,,,
,,,,,,,,,,,,,,,,,5cc0de4dbb24d500170593f6,24,2022-02-12_16h08.36.911,lexical_decision_task_DD_L3,2021.2.3,MacIntel,58.82352941,,,,,,,,,,,0.619,1,,,,,,,,,,,,,,z,1,0.619,,,,,,,,0.74,0.03625,0,0,0,,0,119,119,116,1,BALGY,LB,old,z,./images/BALGYLB.png,,,,,,,,,,,,,,,,,,,,,,,,,,,,,,,,,,,
,,,,,,,,,,,,,,,,,5cc0de4dbb24d500170593f6,24,2022-02-12_16h08.36.911,lexical_decision_task_DD_L3,2021.2.3,MacIntel,58.82352941,,,,,,,,,,,0.534,1,,,,,,,,,,,,,,m,1,0.534,,,,,,,,0.74,0.03625,0,0,0,,0,120,120,37,1,BIRTH,C,old,m,./images/BIRTH.png,,,,,,,,,,,,,,,,,,,,,,,,,,,,,,,,,,,
,,,,,,,,,,,,,,,,,5cc0de4dbb24d500170593f6,24,2022-02-12_16h08.36.911,lexical_decision_task_DD_L3,2021.2.3,MacIntel,58.82352941,,,,,,,,,,,0.681,1,,,,,,,,,,,,,,z,1,0.681,,,,,,,,0.74,0.03625,0,0,0,,0,121,121,84,1,HAXES,C,old,z,./images/HAXES.png,,,,,,,,,,,,,,,,,,,,,,,,,,,,,,,,,,,
,,,,,,,,,,,,,,,,,5cc0de4dbb24d500170593f6,24,2022-02-12_16h08.36.911,lexical_decision_task_DD_L3,2021.2.3,MacIntel,58.82352941,,,,,,,,,,,0.996,1,,,,,,,,,,,,,,z,1,0.996,,,,,,,,0.74,0.03625,0,0,0,,0,122,122,85,1,CHULK,HB,old,z,./images/CHULKHB.png,,,,,,,,,,,,,,,,,,,,,,,,,,,,,,,,,,,
,,,,,,,,,,,,,,,,,5cc0de4dbb24d500170593f6,24,2022-02-12_16h08.36.911,lexical_decision_task_DD_L3,2021.2.3,MacIntel,58.82352941,,,,,,,,,,,1.46,1,,,,,,,,,,,,,,z,1,1.46,,,,,,,,0.74,0.03625,0,0,0,,0,123,123,118,1,BAVEL,HB,old,z,./images/BAVELHB.png,,,,,,,,,,,,,,,,,,,,,,,,,,,,,,,,,,,
,,,,,,,,,,,,,,,,,5cc0de4dbb24d500170593f6,24,2022-02-12_16h08.36.911,lexical_decision_task_DD_L3,2021.2.3,MacIntel,58.82352941,,,,,,,,,,,0.839,1,,,,,,,,,,,,,,z,1,0.839,,,,,,,,0.74,0.03625,0,0,0,,0,124,124,151,1,TINKY,HB,old,z,./images/TINKYHB.png,,,,,,,,,,,,,,,,,,,,,,,,,,,,,,,,,,,
,,,,,,,,,,,,,,,,,5cc0de4dbb24d500170593f6,24,2022-02-12_16h08.36.911,lexical_decision_task_DD_L3,2021.2.3,MacIntel,58.82352941,,,,,,,,,,,0.566,1,,,,,,,,,,,,,,z,1,0.566,,,,,,,,0.74,0.03625,0,0,0,space,0,125,125,143,1,MONGS,LB,old,z,./images/MONGSLB.png,1.052,,,,,,,,,,,,,,,,,,,,,,,,,,,,,,,,,,
,,,,,,,,,,,,,,,,,5cc0de4dbb24d500170593f6,24,2022-02-12_16h08.36.911,lexical_decision_task_DD_L3,2021.2.3,MacIntel,58.82352941,,,,,,,,,,,0.821,1,,,,,,,,,,,,,,z,1,0.821,,,,,,,,0.74,0.03625,0,0,0,,0,126,126,136,1,WERVE,HB,old,z,./images/WERVEHB.png,,,,,,,,,,,,,,,,,,,,,,,,,,,,,,,,,,,
,,,,,,,,,,,,,,,,,5cc0de4dbb24d500170593f6,24,2022-02-12_16h08.36.911,lexical_decision_task_DD_L3,2021.2.3,MacIntel,58.82352941,,,,,,,,,,,0.607,1,,,,,,,,,,,,,,z,1,0.607,,,,,,,,0.74,0.03625,0,0,0,,0,127,127,114,1,RIKES,C,old,z,./images/RIKES.png,,,,,,,,,,,,,,,,,,,,,,,,,,,,,,,,,,,
,,,,,,,,,,,,,,,,,5cc0de4dbb24d500170593f6,24,2022-02-12_16h08.36.911,lexical_decision_task_DD_L3,2021.2.3,MacIntel,58.82352941,,,,,,,,,,,0.605,1,,,,,,,,,,,,,,z,1,0.605,,,,,,,,0.74,0.03625,0,0,0,,0,128,128,92,1,PAIMS,LB,old,z,./images/PAIMSLB.png,,,,,,,,,,,,,,,,,,,,,,,,,,,,,,,,,,,
,,,,,,,,,,,,,,,,,5cc0de4dbb24d500170593f6,24,2022-02-12_16h08.36.911,lexical_decision_task_DD_L3,2021.2.3,MacIntel,58.82352941,,,,,,,,,,,0.921,1,,,,,,,,,,,,,,z,1,0.921,,,,,,,,0.74,0.03625,0,0,0,,0,129,129,88,1,GLUSH,HB,old,z,./images/GLUSHHB.png,,,,,,,,,,,,,,,,,,,,,,,,,,,,,,,,,,,
,,,,,,,,,,,,,,,,,5cc0de4dbb24d500170593f6,24,2022-02-12_16h08.36.911,lexical_decision_task_DD_L3,2021.2.3,MacIntel,58.82352941,,,,,,,,,,,0.883,1,,,,,,,,,,,,,,z,1,0.883,,,,,,,,0.74,0.03625,0,0,0,,0,130,130,115,1,MAWNS,HB,old,z,./images/MAWNSHB.png,,,,,,,,,,,,,,,,,,,,,,,,,,,,,,,,,,,
,,,,,,,,,,,,,,,,,5cc0de4dbb24d500170593f6,24,2022-02-12_16h08.36.911,lexical_decision_task_DD_L3,2021.2.3,MacIntel,58.82352941,,,,,,,,,,,0.604,1,,,,,,,,,,,,,,m,1,0.604,,,,,,,,0.74,0.03625,0,0,0,,0,131,131,18,1,JAGUAR,LB,old,m,./images/JAGUARLB.png,,,,,,,,,,,,,,,,,,,,,,,,,,,,,,,,,,,
,,,,,,,,,,,,,,,,,5cc0de4dbb24d500170593f6,24,2022-02-12_16h08.36.911,lexical_decision_task_DD_L3,2021.2.3,MacIntel,58.82352941,,,,,,,,,,,0.611,1,,,,,,,,,,,,,,m,1,0.611,,,,,,,,0.74,0.03625,0,0,0,,0,132,132,24,1,SCREW,LB,old,m,./images/SCREWLB.png,,,,,,,,,,,,,,,,,,,,,,,,,,,,,,,,,,,
,,,,,,,,,,,,,,,,,5cc0de4dbb24d500170593f6,24,2022-02-12_16h08.36.911,lexical_decision_task_DD_L3,2021.2.3,MacIntel,58.82352941,,,,,,,,,,,1.079,1,,,,,,,,,,,,,,z,1,1.079,,,,,,,,0.74,0.03625,0,0,0,,0,133,133,148,1,JOMS,HB,old,z,./images/JOMSHB.png,,,,,,,,,,,,,,,,,,,,,,,,,,,,,,,,,,,
,,,,,,,,,,,,,,,,,5cc0de4dbb24d500170593f6,24,2022-02-12_16h08.36.911,lexical_decision_task_DD_L3,2021.2.3,MacIntel,58.82352941,,,,,,,,,,,0.582,1,,,,,,,,,,,,,,z,1,0.582,,,,,,,,0.74,0.03625,0,0,0,,0,134,134,153,1,CLUPS,C,old,z,./images/CLUPS.png,,,,,,,,,,,,,,,,,,,,,,,,,,,,,,,,,,,
,,,,,,,,,,,,,,,,,5cc0de4dbb24d500170593f6,24,2022-02-12_16h08.36.911,lexical_decision_task_DD_L3,2021.2.3,MacIntel,58.82352941,,,,,,,,,,,0.916,0,,,,,,,,,,,,,,m,0,0.916,,,,,,,,0.74,0.03625,0,0,0,,0,135,135,128,1,GRIFT,LB,old,z,./images/GRIFTLB.png,,,,,,,,,,,,,,,,,,,,,,,,,,,,,,,,,,,
,,,,,,,,,,,,,,,,,5cc0de4dbb24d500170593f6,24,2022-02-12_16h08.36.911,lexical_decision_task_DD_L3,2021.2.3,MacIntel,58.82352941,,,,,,,,,,,1.269,1,,,,,,,,,,,,,,z,1,1.269,,,,,,,,0.74,0.03625,0,0,0,,0,136,136,157,1,INLER,HB,old,z,./images/INLERHB.png,,,,,,,,,,,,,,,,,,,,,,,,,,,,,,,,,,,
,,,,,,,,,,,,,,,,,5cc0de4dbb24d500170593f6,24,2022-02-12_16h08.36.911,lexical_decision_task_DD_L3,2021.2.3,MacIntel,58.82352941,,,,,,,,,,,0.862,1,,,,,,,,,,,,,,m,1,0.862,,,,,,,,0.74,0.03625,0,0,0,,0,137,137,65,1,FARMER,HB,old,m,./images/FARMERHB.png,,,,,,,,,,,,,,,,,,,,,,,,,,,,,,,,,,,
,,,,,,,,,,,,,,,,,5cc0de4dbb24d500170593f6,24,2022-02-12_16h08.36.911,lexical_decision_task_DD_L3,2021.2.3,MacIntel,58.82352941,,,,,,,,,,,0.708,1,,,,,,,,,,,,,,z,1,0.708,,,,,,,,0.74,0.03625,0,0,0,,0,138,138,140,1,DOVET,LB,old,z,./images/DOVETLB.png,,,,,,,,,,,,,,,,,,,,,,,,,,,,,,,,,,,
,,,,,,,,,,,,,,,,,5cc0de4dbb24d500170593f6,24,2022-02-12_16h08.36.911,lexical_decision_task_DD_L3,2021.2.3,MacIntel,58.82352941,,,,,,,,,,,0.846,1,,,,,,,,,,,,,,m,1,0.846,,,,,,,,0.74,0.03625,0,0,0,,0,139,139,2,1,BEARD,HB,old,m,./images/BEARDHB.png,,,,,,,,,,,,,,,,,,,,,,,,,,,,,,,,,,,
,,,,,,,,,,,,,,,,,5cc0de4dbb24d500170593f6,24,2022-02-12_16h08.36.911,lexical_decision_task_DD_L3,2021.2.3,MacIntel,58.82352941,,,,,,,,,,,0.537,1,,,,,,,,,,,,,,m,1,0.537,,,,,,,,0.74,0.03625,0,0,0,,0,140,140,31,1,QUILL,C,old,m,./images/QUILL.png,,,,,,,,,,,,,,,,,,,,,,,,,,,,,,,,,,,
,,,,,,,,,,,,,,,,,5cc0de4dbb24d500170593f6,24,2022-02-12_16h08.36.911,lexical_decision_task_DD_L3,2021.2.3,MacIntel,58.82352941,,,,,,,,,,,0.533,1,,,,,,,,,,,,,,z,1,0.533,,,,,,,,0.74,0.03625,0,0,0,,0,141,141,96,1,KEAMS,C,old,z,./images/KEAMS.png,,,,,,,,,,,,,,,,,,,,,,,,,,,,,,,,,,,
,,,,,,,,,,,,,,,,,5cc0de4dbb24d500170593f6,24,2022-02-12_16h08.36.911,lexical_decision_task_DD_L3,2021.2.3,MacIntel,58.82352941,,,,,,,,,,,0.596,1,,,,,,,,,,,,,,m,1,0.596,,,,,,,,0.74,0.03625,0,0,0,,0,142,142,68,1,TORCH,HB,old,m,./images/TORCHHB.png,,,,,,,,,,,,,,,,,,,,,,,,,,,,,,,,,,,
,,,,,,,,,,,,,,,,,5cc0de4dbb24d500170593f6,24,2022-02-12_16h08.36.911,lexical_decision_task_DD_L3,2021.2.3,MacIntel,58.82352941,,,,,,,,,,,0.684,1,,,,,,,,,,,,,,z,1,0.684,,,,,,,,0.74,0.03625,0,0,0,,0,143,143,113,1,LINEW,LB,old,z,./images/LINEWLB.png,,,,,,,,,,,,,,,,,,,,,,,,,,,,,,,,,,,
,,,,,,,,,,,,,,,,,5cc0de4dbb24d500170593f6,24,2022-02-12_16h08.36.911,lexical_decision_task_DD_L3,2021.2.3,MacIntel,58.82352941,,,,,,,,,,,0.952,1,,,,,,,,,,,,,,z,1,0.952,,,,,,,,0.74,0.03625,0,0,0,,0,144,144,91,1,SHENS,HB,old,z,./images/SHENSHB.png,,,,,,,,,,,,,,,,,,,,,,,,,,,,,,,,,,,
,,,,,,,,,,,,,,,,,5cc0de4dbb24d500170593f6,24,2022-02-12_16h08.36.911,lexical_decision_task_DD_L3,2021.2.3,MacIntel,58.82352941,,,,,,,,,,,2.38,1,,,,,,,,,,,,,,z,1,2.38,,,,,,,,0.74,0.03625,0,0,0,,0,145,145,139,1,BLEAR,HB,old,z,./images/BLEARHB.png,,,,,,,,,,,,,,,,,,,,,,,,,,,,,,,,,,,
,,,,,,,,,,,,,,,,,5cc0de4dbb24d500170593f6,24,2022-02-12_16h08.36.911,lexical_decision_task_DD_L3,2021.2.3,MacIntel,58.82352941,,,,,,,,,,,0.57,1,,,,,,,,,,,,,,m,1,0.57,,,,,,,,0.74,0.03625,0,0,0,,0,146,146,73,1,SNACK,C,old,m,./images/SNACK.png,,,,,,,,,,,,,,,,,,,,,,,,,,,,,,,,,,,
,,,,,,,,,,,,,,,,,5cc0de4dbb24d500170593f6,24,2022-02-12_16h08.36.911,lexical_decision_task_DD_L3,2021.2.3,MacIntel,58.82352941,,,,,,,,,,,0.666,1,,,,,,,,,,,,,,z,1,0.666,,,,,,,,0.74,0.03625,0,0,0,,0,147,147,161,1,BLAPS,LB,old,z,./images/BLAPSLB.png,,,,,,,,,,,,,,,,,,,,,,,,,,,,,,,,,,,
,,,,,,,,,,,,,,,,,5cc0de4dbb24d500170593f6,24,2022-02-12_16h08.36.911,lexical_decision_task_DD_L3,2021.2.3,MacIntel,58.82352941,,,,,,,,,,,0.612,1,,,,,,,,,,,,,,m,1,0.612,,,,,,,,0.74,0.03625,0,0,0,,0,148,148,52,1,BANNER,C,old,m,./images/BANNER.png,,,,,,,,,,,,,,,,,,,,,,,,,,,,,,,,,,,
,,,,,,,,,,,,,,,,,5cc0de4dbb24d500170593f6,24,2022-02-12_16h08.36.911,lexical_decision_task_DD_L3,2021.2.3,MacIntel,58.82352941,,,,,,,,,,,0.559,1,,,,,,,,,,,,,,m,1,0.559,,,,,,,,0.74,0.03625,0,0,0,,0,149,149,49,1,DRUMS,C,old,m,./images/DRUMS.png,,,,,,,,,,,,,,,,,,,,,,,,,,,,,,,,,,,
,,,,,,,,,,,,,,,,,5cc0de4dbb24d500170593f6,24,2022-02-12_16h08.36.911,lexical_decision_task_DD_L3,2021.2.3,MacIntel,58.82352941,,,,,,,,,,,0.583,1,,,,,,,,,,,,,,m,1,0.583,,,,,,,,0.74,0.03625,0,0,0,,0,150,150,51,1,ONION,LB,old,m,./images/ONIONLB.png,,,,,,,,,,,,,,,,,,,,,,,,,,,,,,,,,,,
,,,,,,,,,,,,,,,,,5cc0de4dbb24d500170593f6,24,2022-02-12_16h08.36.911,lexical_decision_task_DD_L3,2021.2.3,MacIntel,58.82352941,,,,,,,,,,,0.496,1,,,,,,,,,,,,,,m,1,0.496,,,,,,,,0.74,0.03625,0,0,0,,0,151,151,70,1,URINE,C,old,m,./images/URINE.png,,,,,,,,,,,,,,,,,,,,,,,,,,,,,,,,,,,
,,,,,,,,,,,,,,,,,5cc0de4dbb24d500170593f6,24,2022-02-12_16h08.36.911,lexical_decision_task_DD_L3,2021.2.3,MacIntel,58.82352941,,,,,,,,,,,0.671,1,,,,,,,,,,,,,,z,1,0.671,,,,,,,,0.74,0.03625,0,0,0,,0,152,152,141,1,PLEET,C,old,z,./images/PLEET.png,,,,,,,,,,,,,,,,,,,,,,,,,,,,,,,,,,,
,,,,,,,,,,,,,,,,,5cc0de4dbb24d500170593f6,24,2022-02-12_16h08.36.911,lexical_decision_task_DD_L3,2021.2.3,MacIntel,58.82352941,,,,,,,,,,,0.661,1,,,,,,,,,,,,,,m,1,0.661,,,,,,,,0.74,0.03625,0,0,0,,0,153,153,14,1,PICKLE,HB,old,m,./images/PICKLEHB.png,,,,,,,,,,,,,,,,,,,,,,,,,,,,,,,,,,,
,,,,,,,,,,,,,,,,,5cc0de4dbb24d500170593f6,24,2022-02-12_16h08.36.911,lexical_decision_task_DD_L3,2021.2.3,MacIntel,58.82352941,,,,,,,,,,,0.763,1,,,,,,,,,,,,,,m,1,0.763,,,,,,,,0.74,0.03625,0,0,0,,0,154,154,72,1,NOOSE,LB,old,m,./images/NOOSELB.png,,,,,,,,,,,,,,,,,,,,,,,,,,,,,,,,,,,
,,,,,,,,,,,,,,,,,5cc0de4dbb24d500170593f6,24,2022-02-12_16h08.36.911,lexical_decision_task_DD_L3,2021.2.3,MacIntel,58.82352941,,,,,,,,,,,1.805,1,,,,,,,,,,,,,,m,1,1.805,,,,,,,,0.74,0.03625,0,0,0,,0,155,155,17,1,SKIING,HB,old,m,./images/SKIINGHB.png,,,,,,,,,,,,,,,,,,,,,,,,,,,,,,,,,,,
,,,,,,,,,,,,,,,,,5cc0de4dbb24d500170593f6,24,2022-02-12_16h08.36.911,lexical_decision_task_DD_L3,2021.2.3,MacIntel,58.82352941,,,,,,,,,,,0.59,1,,,,,,,,,,,,,,m,1,0.59,,,,,,,,0.74,0.03625,0,0,0,,0,156,156,36,1,THROAT,LB,old,m,./images/THROATLB.png,,,,,,,,,,,,,,,,,,,,,,,,,,,,,,,,,,,
,,,,,,,,,,,,,,,,,5cc0de4dbb24d500170593f6,24,2022-02-12_16h08.36.911,lexical_decision_task_DD_L3,2021.2.3,MacIntel,58.82352941,,,,,,,,,,,0.561,1,,,,,,,,,,,,,,m,1,0.561,,,,,,,,0.74,0.03625,0,0,0,,0,157,157,81,1,POODLE,LB,old,m,./images/POODLELB.png,,,,,,,,,,,,,,,,,,,,,,,,,,,,,,,,,,,
,,,,,,,,,,,,,,,,,5cc0de4dbb24d500170593f6,24,2022-02-12_16h08.36.911,lexical_decision_task_DD_L3,2021.2.3,MacIntel,58.82352941,,,,,,,,,,,0.725,1,,,,,,,,,,,,,,m,1,0.725,,,,,,,,0.74,0.03625,0,0,0,,0,158,158,20,1,CRADLE,HB,old,m,./images/CRADLEHB.png,,,,,,,,,,,,,,,,,,,,,,,,,,,,,,,,,,,
,,,,,,,,,,,,,,,,,5cc0de4dbb24d500170593f6,24,2022-02-12_16h08.36.911,lexical_decision_task_DD_L3,2021.2.3,MacIntel,58.82352941,,,,,,,,,,,0.676,1,,,,,,,,,,,,,,z,1,0.676,,,,,,,,0.74,0.03625,0,0,0,,0,159,159,110,1,CRUNK,LB,old,z,./images/CRUNKLB.png,,,,,,,,,,,,,,,,,,,,,,,,,,,,,,,,,,,
,,,,,,,,,,,,,,,,,5cc0de4dbb24d500170593f6,24,2022-02-12_16h08.36.911,lexical_decision_task_DD_L3,2021.2.3,MacIntel,58.82352941,,,,,,,,,,,0.638,1,,,,,,,,,,,,,,z,1,0.638,,,,,,,,0.74,0.03625,0,0,0,,0,160,160,158,1,EGECT,LB,old,z,./images/EGECTLB.png,,,,,,,,,,,,,,,,,,,,,,,,,,,,,,,,,,,
,,,,,,,,,,,,,,,,,5cc0de4dbb24d500170593f6,24,2022-02-12_16h08.36.911,lexical_decision_task_DD_L3,2021.2.3,MacIntel,58.82352941,,,,,,,,,,,0.587,1,,,,,,,,,,,,,,m,1,0.587,,,,,,,,0.74,0.03625,0,0,0,,0,161,161,33,1,MAGGOT,LB,old,m,./images/MAGGOTLB.png,,,,,,,,,,,,,,,,,,,,,,,,,,,,,,,,,,,
,,,,,,,,,,,,,,,,,5cc0de4dbb24d500170593f6,24,2022-02-12_16h08.36.911,lexical_decision_task_DD_L3,2021.2.3,MacIntel,58.82352941,,,,,,,,,,,1.152,1,,,,,,,,,,,,,,z,1,1.152,,,,,,,,0.74,0.03625,0,0,0,,0,162,162,130,1,CRILL,HB,old,z,./images/CRILLHB.png,,,,,,,,,,,,,,,,,,,,,,,,,,,,,,,,,,,
,,,,,,,,,,,,,,,,,5cc0de4dbb24d500170593f6,24,2022-02-12_16h08.36.911,lexical_decision_task_DD_L3,2021.2.3,MacIntel,58.82352941,,,,,,,,,,,0.914,1,,,,,,,,,,,,,,m,1,0.914,,,,,,,,0.74,0.03625,0,0,0,,0,163,163,8,1,TULIP,HB,old,m,./images/TULIPHB.png,,,,,,,,,,,,,,,,,,,,,,,,,,,,,,,,,,,
,,,,,,,,,,,,,,,,,5cc0de4dbb24d500170593f6,24,2022-02-12_16h08.36.911,lexical_decision_task_DD_L3,2021.2.3,MacIntel,58.82352941,,,,,,,,,,,0.547,1,,,,,,,,,,,,,,m,1,0.547,,,,,,,,0.74,0.03625,0,0,0,,0,164,164,6,1,SQUARE,LB,old,m,./images/SQUARELB.png,,,,,,,,,,,,,,,,,,,,,,,,,,,,,,,,,,,
,,,,,,,,,,,,,,,,,5cc0de4dbb24d500170593f6,24,2022-02-12_16h08.36.911,lexical_decision_task_DD_L3,2021.2.3,MacIntel,58.82352941,,,,,,,,,,,1.195,1,,,,,,,,,,,,,,z,1,1.195,,,,,,,,0.74,0.03625,0,0,0,,0,165,165,154,1,THINT,HB,old,z,./images/THINTHB.png,,,,,,,,,,,,,,,,,,,,,,,,,,,,,,,,,,,
,,,,,,,,,,,,,,,,,5cc0de4dbb24d500170593f6,24,2022-02-12_16h08.36.911,lexical_decision_task_DD_L3,2021.2.3,MacIntel,58.82352941,,,,,,,,,,,0.645,1,,,,,,,,,,,,,,z,1,0.645,,,,,,,,0.74,0.03625,0,0,0,,0,166,166,99,1,BACKY,C,old,z,./images/BACKY.png,,,,,,,,,,,,,,,,,,,,,,,,,,,,,,,,,,,
,,,,,,,,,,,,,,,,,5cc0de4dbb24d500170593f6,24,2022-02-12_16h08.36.911,lexical_decision_task_DD_L3,2021.2.3,MacIntel,58.82352941,,,,,,,,,,,0.608,1,,,,,,,,,,,,,,m,1,0.608,,,,,,,,0.74,0.03625,0,0,0,,0,167,167,77,1,COUCH,HB,old,m,./images/COUCHHB.png,,,,,,,,,,,,,,,,,,,,,,,,,,,,,,,,,,,
,,,,,,,,,,,,,,,,,5cc0de4dbb24d500170593f6,24,2022-02-12_16h08.36.911,lexical_decision_task_DD_L3,2021.2.3,MacIntel,58.82352941,,,,,,,,,,,,,,,,,,,,,,,,,,,,,,,,,,,,,,,,,,,,,,,,How likely will it be that you will recognize the words presented clearly on a scale of 0 (not likely) to 100 (most likely)?,,,,,0.00375,-0.415,1,0,0,jol_adv,6,8.03,0,0,0,0,1,,,,,,,,,,,,,,,,,,,,,
,,,,,,,,,,,,,,,,,5cc0de4dbb24d500170593f6,24,2022-02-12_16h08.36.911,lexical_decision_task_DD_L3,2021.2.3,MacIntel,58.82352941,,,,,,,,,,,,,,,,,,,,,,,,,,,,,,,,,,,,,,,,,,,,,,,,How likely will it be that you will recognize the words presented very blurred on a scale of 0 (not likely) to 100 (most likely)?,,,,,,,,,,,6,5.257,0,1,1,2,1,,,,,,,,,,,,,,,,,,,,,
,,,,,,,,,,,,,,,,,5cc0de4dbb24d500170593f6,24,2022-02-12_16h08.36.911,lexical_decision_task_DD_L3,2021.2.3,MacIntel,58.82352941,,,,,,,,,,,,,,,,,,,,,,,,,,,,,,,,,,,,,,,,,,,,,,,,How likely will it be that you will recognize the words presented slighly blurred on a scale of 0 (not likely) to 100 (most likely)?,,,,,,,,,,,6,4.507,0,2,2,1,1,,,,,,,,,,,,,,,,,,,,,
space,13.711,0.5275,-0.30375,0,0,0,,,,,,1,test,"In the next phase you will be presented with the words from the the first phase. Your job is to decide whether you remember seeing the word or not. If you remember seeing the word press ""old"" or type ""m"". If you do not remember seeing the word press ""new"" or type ""z"". Please press the space bar or click on continue to begin. ",,,5cc0de4dbb24d500170593f6,24,2022-02-12_16h08.36.911,lexical_decision_task_DD_L3,2021.2.3,MacIntel,58.82352941,,,,,,,,,,,,,,,,,,,,,,,,,,,,,,,,,,,,,,,,,,,,,,,,,,,,,,,,,,,,,,,,,,0,0,0,0,1,,,,,,,,,,,,,,,,
,,0.11625,-0.39,1,0,0,,,,,,1,test,"In the next phase you will be presented with the words from the the first phase. Your job is to decide whether you remember seeing the word or not. If you remember seeing the word press ""old"" or type ""m"". If you do not remember seeing the word press ""new"" or type ""z"". Please press the space bar or click on continue to begin. ",,,5cc0de4dbb24d500170593f6,24,2022-02-12_16h08.36.911,lexical_decision_task_DD_L3,2021.2.3,MacIntel,58.82352941,,,,,,,,,,,,,,,,,,,,,,,,,,,,,,,,,,,,,,,,,,,,,,,,,,,,,,,,,,,,,,,,,,1,0,1,0,1,instr_done_button,,,,,,,,,,,,,,,
space,1.887,0.64,-0.1425,0,0,0,,,,,,1,test,"In the next phase you will be presented with the words from the the first phase. Your job is to decide whether you remember seeing the word or not. If you remember seeing the word press ""old"" or type ""m"". If you do not remember seeing the word press ""new"" or type ""z"". Please press the space bar or click on continue to begin. ",,,5cc0de4dbb24d500170593f6,24,2022-02-12_16h08.36.911,lexical_decision_task_DD_L3,2021.2.3,MacIntel,58.82352941,,,,,,,,,,,,,,,,,,,,,,,,,,,,,,,,,,,,,,,,,,,,,,,,,,,,,,,,,,,,,,,,,,2,0,2,0,1,,,,,,,,,,,,,,,,
,,0.025,-0.395,1,0,0,,,,,,1,test,"In the next phase you will be presented with the words from the the first phase. Your job is to decide whether you remember seeing the word or not. If you remember seeing the word press ""old"" or type ""m"". If you do not remember seeing the word press ""new"" or type ""z"". Please press the space bar or click on continue to begin. ",,,5cc0de4dbb24d500170593f6,24,2022-02-12_16h08.36.911,lexical_decision_task_DD_L3,2021.2.3,MacIntel,58.82352941,,,,,,,,,,,,,,,,,,,,,,,,,,,,,,,,,,,,,,,,,,,,,,,,,,,,,,,,,,,,,,,,,,3,0,3,0,1,instr_done_button,,,,,,,,,,,,,,,
,,-0.01375,-0.4,1,0,0,,,,,,1,test,"In the next phase you will be presented with the words from the the first phase. Your job is to decide whether you remember seeing the word or not. If you remember seeing the word press ""old"" or type ""m"". If you do not remember seeing the word press ""new"" or type ""z"". Please press the space bar or click on continue to begin. ",,,5cc0de4dbb24d500170593f6,24,2022-02-12_16h08.36.911,lexical_decision_task_DD_L3,2021.2.3,MacIntel,58.82352941,,,,,,,,,,,,,,,,,,,,,,,,,,,,,,,,,,,,,,,,,,,,,,,,,,,,,,,,,,,,,,,,,,4,0,4,0,1,instr_done_button,,,,,,,,,,,,,,,
,,,,,,,,,,,,,,,,,5cc0de4dbb24d500170593f6,24,2022-02-12_16h08.36.911,lexical_decision_task_DD_L3,2021.2.3,MacIntel,58.82352941,,,,,,,,,,,1.614,1,,,,,,,,,,,,,,,,,,,,,,,,0.68125,0.18875,0,0,0,,,,,,,SNAKE,C,z,m,./images/SNAKE.png,,,,,,,,,,,,,,,,,,,,,z,1,1.614,,,,,,,,0,0,0,124,1
,,,,,,,,,,,,,,,,,5cc0de4dbb24d500170593f6,24,2022-02-12_16h08.36.911,lexical_decision_task_DD_L3,2021.2.3,MacIntel,58.82352941,,,,,,,,,,,0.838,1,,,,,,,,,,,,,,,,,,,,,,,,0.68125,0.18875,0,0,0,,,,,,,CURRY,LB,z,m,./images/CURRYLB.png,,,,,,,,,,,,,,,,,,,,,z,1,0.838,,,,,,,,0,1,1,144,1
,,,,,,,,,,,,,,,,,5cc0de4dbb24d500170593f6,24,2022-02-12_16h08.36.911,lexical_decision_task_DD_L3,2021.2.3,MacIntel,58.82352941,,,,,,,,,,,0.73,1,,,,,,,,,,,,,,,,,,,,,,,,0.68125,0.18875,0,0,0,,,,,,,JAGUAR,LB,m,m,./images/JAGUARLB.png,,,,,,,,,,,,,,,,,,,,,m,1,0.73,,,,,,,,0,2,2,18,1
,,,,,,,,,,,,,,,,,5cc0de4dbb24d500170593f6,24,2022-02-12_16h08.36.911,lexical_decision_task_DD_L3,2021.2.3,MacIntel,58.82352941,,,,,,,,,,,0.652,1,,,,,,,,,,,,,,,,,,,,,,,,0.68125,0.18875,0,0,0,,,,,,,MIRROR,LB,m,m,./images/MIRRORLB.png,,,,,,,,,,,,,,,,,,,,,m,1,0.652,,,,,,,,0,3,3,63,1
,,,,,,,,,,,,,,,,,5cc0de4dbb24d500170593f6,24,2022-02-12_16h08.36.911,lexical_decision_task_DD_L3,2021.2.3,MacIntel,58.82352941,,,,,,,,,,,0.831,1,,,,,,,,,,,,,,,,,,,,,,,,0.68125,0.18875,0,0,0,,,,,,,CRUST,C,m,m,./images/CRUST.png,,,,,,,,,,,,,,,,,,,,,m,1,0.831,,,,,,,,0,4,4,79,1
,,,,,,,,,,,,,,,,,5cc0de4dbb24d500170593f6,24,2022-02-12_16h08.36.911,lexical_decision_task_DD_L3,2021.2.3,MacIntel,58.82352941,,,,,,,,,,,0.702,1,,,,,,,,,,,,,,,,,,,,,,,,0.68125,0.18875,0,0,0,,,,,,,ARTIST,C,z,m,./images/ARTIST.png,,,,,,,,,,,,,,,,,,,,,z,1,0.702,,,,,,,,0,5,5,145,1
,,,,,,,,,,,,,,,,,5cc0de4dbb24d500170593f6,24,2022-02-12_16h08.36.911,lexical_decision_task_DD_L3,2021.2.3,MacIntel,58.82352941,,,,,,,,,,,1.37,0,,,,,,,,,,,,,,,,,,,,,,,,0.68125,0.18875,0,0,0,,,,,,,DRUMS,C,m,m,./images/DRUMS.png,,,,,,,,,,,,,,,,,,,,,z,0,1.37,,,,,,,,0,6,6,49,1
,,,,,,,,,,,,,,,,,5cc0de4dbb24d500170593f6,24,2022-02-12_16h08.36.911,lexical_decision_task_DD_L3,2021.2.3,MacIntel,58.82352941,,,,,,,,,,,0.885,1,,,,,,,,,,,,,,,,,,,,,,,,0.68125,0.18875,0,0,0,,,,,,,STREAM,HB,z,m,./images/STREAMHB.png,,,,,,,,,,,,,,,,,,,,,z,1,0.885,,,,,,,,0,7,7,125,1
,,,,,,,,,,,,,,,,,5cc0de4dbb24d500170593f6,24,2022-02-12_16h08.36.911,lexical_decision_task_DD_L3,2021.2.3,MacIntel,58.82352941,,,,,,,,,,,1.047,1,,,,,,,,,,,,,,,,,,,,,,,,0.68125,0.18875,0,0,0,,,,,,,BUTTER,LB,z,m,./images/BUTTERLB.png,,,,,,,,,,,,,,,,,,,,,z,1,1.047,,,,,,,,0,8,8,111,1
,,,,,,,,,,,,,,,,,5cc0de4dbb24d500170593f6,24,2022-02-12_16h08.36.911,lexical_decision_task_DD_L3,2021.2.3,MacIntel,58.82352941,,,,,,,,,,,0.867,0,,,,,,,,,,,,,,,,,,,,,,,,0.68125,0.18875,0,0,0,,,,,,,GRAIN,LB,m,m,./images/GRAINLB.png,,,,,,,,,,,,,,,,,,,,,z,0,0.867,,,,,,,,0,9,9,75,1
,,,,,,,,,,,,,,,,,5cc0de4dbb24d500170593f6,24,2022-02-12_16h08.36.911,lexical_decision_task_DD_L3,2021.2.3,MacIntel,58.82352941,,,,,,,,,,,0.911,1,,,,,,,,,,,,,,,,,,,,,,,,0.68125,0.18875,0,0,0,,,,,,,HAMMER,LB,z,m,./images/HAMMERLB.png,,,,,,,,,,,,,,,,,,,,,z,1,0.911,,,,,,,,0,10,10,159,1
,,,,,,,,,,,,,,,,,5cc0de4dbb24d500170593f6,24,2022-02-12_16h08.36.911,lexical_decision_task_DD_L3,2021.2.3,MacIntel,58.82352941,,,,,,,,,,,0.866,1,,,,,,,,,,,,,,,,,,,,,,,,0.68125,0.18875,0,0,0,,,,,,,BASKET,HB,z,m,./images/BASKETHB.png,,,,,,,,,,,,,,,,,,,,,z,1,0.866,,,,,,,,0,11,11,128,1
,,,,,,,,,,,,,,,,,5cc0de4dbb24d500170593f6,24,2022-02-12_16h08.36.911,lexical_decision_task_DD_L3,2021.2.3,MacIntel,58.82352941,,,,,,,,,,,0.978,1,,,,,,,,,,,,,,,,,,,,,,,,0.68125,0.18875,0,0,0,,,,,,,TIGER,C,z,m,./images/TIGER.png,,,,,,,,,,,,,,,,,,,,,z,1,0.978,,,,,,,,0,12,12,121,1
,,,,,,,,,,,,,,,,,5cc0de4dbb24d500170593f6,24,2022-02-12_16h08.36.911,lexical_decision_task_DD_L3,2021.2.3,MacIntel,58.82352941,,,,,,,,,,,1.088,1,,,,,,,,,,,,,,,,,,,,,,,,0.68125,0.18875,0,0,0,,,,,,,WHEEL,HB,z,m,./images/WHEELHB.png,,,,,,,,,,,,,,,,,,,,,z,1,1.088,,,,,,,,0,13,13,161,1
,,,,,,,,,,,,,,,,,5cc0de4dbb24d500170593f6,24,2022-02-12_16h08.36.911,lexical_decision_task_DD_L3,2021.2.3,MacIntel,58.82352941,,,,,,,,,,,1.324,0,,,,,,,,,,,,,,,,,,,,,,,,0.68125,0.18875,0,0,0,,,,,,,BURIAL,HB,m,m,./images/BURIALHB.png,,,,,,,,,,,,,,,,,,,,,z,0,1.324,,,,,,,,0,14,14,59,1
,,,,,,,,,,,,,,,,,5cc0de4dbb24d500170593f6,24,2022-02-12_16h08.36.911,lexical_decision_task_DD_L3,2021.2.3,MacIntel,58.82352941,,,,,,,,,,,0.608,1,,,,,,,,,,,,,,,,,,,,,,,,0.68125,0.18875,0,0,0,,,,,,,MOOSE,LB,m,m,./images/MOOSELB.png,,,,,,,,,,,,,,,,,,,,,m,1,0.608,,,,,,,,0,15,15,57,1
,,,,,,,,,,,,,,,,,5cc0de4dbb24d500170593f6,24,2022-02-12_16h08.36.911,lexical_decision_task_DD_L3,2021.2.3,MacIntel,58.82352941,,,,,,,,,,,1.494,0,,,,,,,,,,,,,,,,,,,,,,,,0.68125,0.18875,0,0,0,,,,,,,MUFFIN,C,m,m,./images/MUFFIN.png,,,,,,,,,,,,,,,,,,,,,z,0,1.494,,,,,,,,0,16,16,55,1
,,,,,,,,,,,,,,,,,5cc0de4dbb24d500170593f6,24,2022-02-12_16h08.36.911,lexical_decision_task_DD_L3,2021.2.3,MacIntel,58.82352941,,,,,,,,,,,0.718,1,,,,,,,,,,,,,,,,,,,,,,,,0.68125,0.18875,0,0,0,,,,,,,CASINO,C,z,m,./images/CASINO.png,,,,,,,,,,,,,,,,,,,,,z,1,0.718,,,,,,,,0,17,17,112,1
,,,,,,,,,,,,,,,,,5cc0de4dbb24d500170593f6,24,2022-02-12_16h08.36.911,lexical_decision_task_DD_L3,2021.2.3,MacIntel,58.82352941,,,,,,,,,,,1.248,1,,,,,,,,,,,,,,,,,,,,,,,,0.68125,0.18875,0,0,0,,,,,,,DANCER,LB,z,m,./images/DANCERLB.png,,,,,,,,,,,,,,,,,,,,,z,1,1.248,,,,,,,,0,18,18,105,1
,,,,,,,,,,,,,,,,,5cc0de4dbb24d500170593f6,24,2022-02-12_16h08.36.911,lexical_decision_task_DD_L3,2021.2.3,MacIntel,58.82352941,,,,,,,,,,,1.161,1,,,,,,,,,,,,,,,,,,,,,,,,0.68125,0.18875,0,0,0,,,,,,,PENCE,C,m,m,./images/PENCE.png,,,,,,,,,,,,,,,,,,,,,m,1,1.161,,,,,,,,0,19,19,16,1
,,,,,,,,,,,,,,,,,5cc0de4dbb24d500170593f6,24,2022-02-12_16h08.36.911,lexical_decision_task_DD_L3,2021.2.3,MacIntel,58.82352941,,,,,,,,,,,1.894,0,,,,,,,,,,,,,,,,,,,,,,,,0.68125,0.18875,0,0,0,,,,,,,BROOM,LB,z,m,./images/BROOMLB.png,,,,,,,,,,,,,,,,,,,,,m,0,1.894,,,,,,,,0,20,20,162,1
,,,,,,,,,,,,,,,,,5cc0de4dbb24d500170593f6,24,2022-02-12_16h08.36.911,lexical_decision_task_DD_L3,2021.2.3,MacIntel,58.82352941,,,,,,,,,,,0.769,0,,,,,,,,,,,,,,,,,,,,,,,,0.68125,0.18875,0,0,0,,,,,,,STOOL,C,z,m,./images/STOOL.png,,,,,,,,,,,,,,,,,,,,,m,0,0.769,,,,,,,,0,21,21,127,1
,,,,,,,,,,,,,,,,,5cc0de4dbb24d500170593f6,24,2022-02-12_16h08.36.911,lexical_decision_task_DD_L3,2021.2.3,MacIntel,58.82352941,,,,,,,,,,,1.053,1,,,,,,,,,,,,,,,,,,,,,,,,0.68125,0.18875,0,0,0,,,,,,,SHELF,LB,m,m,./images/SHELFLB.png,,,,,,,,,,,,,,,,,,,,,m,1,1.053,,,,,,,,0,22,22,39,1
,,,,,,,,,,,,,,,,,5cc0de4dbb24d500170593f6,24,2022-02-12_16h08.36.911,lexical_decision_task_DD_L3,2021.2.3,MacIntel,58.82352941,,,,,,,,,,,0.762,1,,,,,,,,,,,,,,,,,,,,,,,,0.68125,0.18875,0,0,0,,,,,,,SLOPE,LB,z,m,./images/SLOPELB.png,,,,,,,,,,,,,,,,,,,,,z,1,0.762,,,,,,,,0,23,23,114,1
,,,,,,,,,,,,,,,,,5cc0de4dbb24d500170593f6,24,2022-02-12_16h08.36.911,lexical_decision_task_DD_L3,2021.2.3,MacIntel,58.82352941,,,,,,,,,,,0.802,1,,,,,,,,,,,,,,,,,,,,,,,,0.68125,0.18875,0,0,0,,,,,,,MALLET,HB,m,m,./images/MALLETHB.png,,,,,,,,,,,,,,,,,,,,,m,1,0.802,,,,,,,,0,24,24,50,1
,,,,,,,,,,,,,,,,,5cc0de4dbb24d500170593f6,24,2022-02-12_16h08.36.911,lexical_decision_task_DD_L3,2021.2.3,MacIntel,58.82352941,,,,,,,,,,,0.982,0,,,,,,,,,,,,,,,,,,,,,,,,0.68125,0.18875,0,0,0,,,,,,,DESERT,C,z,m,./images/DESERT.png,,,,,,,,,,,,,,,,,,,,,m,0,0.982,,,,,,,,0,25,25,136,1
,,,,,,,,,,,,,,,,,5cc0de4dbb24d500170593f6,24,2022-02-12_16h08.36.911,lexical_decision_task_DD_L3,2021.2.3,MacIntel,58.82352941,,,,,,,,,,,0.782,1,,,,,,,,,,,,,,,,,,,,,,,,0.68125,0.18875,0,0,0,,,,,,,NOOSE,LB,m,m,./images/NOOSELB.png,,,,,,,,,,,,,,,,,,,,,m,1,0.782,,,,,,,,0,26,26,72,1
,,,,,,,,,,,,,,,,,5cc0de4dbb24d500170593f6,24,2022-02-12_16h08.36.911,lexical_decision_task_DD_L3,2021.2.3,MacIntel,58.82352941,,,,,,,,,,,0.814,1,,,,,,,,,,,,,,,,,,,,,,,,0.68125,0.18875,0,0,0,,,,,,,CEMENT,HB,m,m,./images/CEMENTHB.png,,,,,,,,,,,,,,,,,,,,,m,1,0.814,,,,,,,,0,27,27,74,1
,,,,,,,,,,,,,,,,,5cc0de4dbb24d500170593f6,24,2022-02-12_16h08.36.911,lexical_decision_task_DD_L3,2021.2.3,MacIntel,58.82352941,,,,,,,,,,,1.155,0,,,,,,,,,,,,,,,,,,,,,,,,0.68125,0.18875,0,0,0,,,,,,,PILOT,HB,z,m,./images/PILOTHB.png,,,,,,,,,,,,,,,,,,,,,m,0,1.155,,,,,,,,0,28,28,134,1
,,,,,,,,,,,,,,,,,5cc0de4dbb24d500170593f6,24,2022-02-12_16h08.36.911,lexical_decision_task_DD_L3,2021.2.3,MacIntel,58.82352941,,,,,,,,,,,1.067,0,,,,,,,,,,,,,,,,,,,,,,,,0.68125,0.18875,0,0,0,,,,,,,GRAPE,C,z,m,./images/GRAPE.png,,,,,,,,,,,,,,,,,,,,,m,0,1.067,,,,,,,,0,29,29,100,1
,,,,,,,,,,,,,,,,,5cc0de4dbb24d500170593f6,24,2022-02-12_16h08.36.911,lexical_decision_task_DD_L3,2021.2.3,MacIntel,58.82352941,,,,,,,,,,,0.831,0,,,,,,,,,,,,,,,,,,,,,,,,0.68125,0.18875,0,0,0,,,,,,,BERRY,HB,m,m,./images/BERRYHB.png,,,,,,,,,,,,,,,,,,,,,z,0,0.831,,,,,,,,0,30,30,47,1
,,,,,,,,,,,,,,,,,5cc0de4dbb24d500170593f6,24,2022-02-12_16h08.36.911,lexical_decision_task_DD_L3,2021.2.3,MacIntel,58.82352941,,,,,,,,,,,0.816,1,,,,,,,,,,,,,,,,,,,,,,,,0.68125,0.18875,0,0,0,,,,,,,COOKER,LB,m,m,./images/COOKERLB.png,,,,,,,,,,,,,,,,,,,,,m,1,0.816,,,,,,,,0,31,31,69,1
,,,,,,,,,,,,,,,,,5cc0de4dbb24d500170593f6,24,2022-02-12_16h08.36.911,lexical_decision_task_DD_L3,2021.2.3,MacIntel,58.82352941,,,,,,,,,,,0.749,1,,,,,,,,,,,,,,,,,,,,,,,,0.68125,0.18875,0,0,0,,,,,,,THROAT,LB,m,m,./images/THROATLB.png,,,,,,,,,,,,,,,,,,,,,m,1,0.749,,,,,,,,0,32,32,36,1
,,,,,,,,,,,,,,,,,5cc0de4dbb24d500170593f6,24,2022-02-12_16h08.36.911,lexical_decision_task_DD_L3,2021.2.3,MacIntel,58.82352941,,,,,,,,,,,0.915,1,,,,,,,,,,,,,,,,,,,,,,,,0.68125,0.18875,0,0,0,,,,,,,LADDER,HB,m,m,./images/LADDERHB.png,,,,,,,,,,,,,,,,,,,,,m,1,0.915,,,,,,,,0,33,33,38,1
,,,,,,,,,,,,,,,,,5cc0de4dbb24d500170593f6,24,2022-02-12_16h08.36.911,lexical_decision_task_DD_L3,2021.2.3,MacIntel,58.82352941,,,,,,,,,,,0.847,0,,,,,,,,,,,,,,,,,,,,,,,,0.68125,0.18875,0,0,0,,,,,,,FINGER,LB,m,m,./images/FINGERLB.png,,,,,,,,,,,,,,,,,,,,,z,0,0.847,,,,,,,,0,34,34,3,1
,,,,,,,,,,,,,,,,,5cc0de4dbb24d500170593f6,24,2022-02-12_16h08.36.911,lexical_decision_task_DD_L3,2021.2.3,MacIntel,58.82352941,,,,,,,,,,,0.647,1,,,,,,,,,,,,,,,,,,,,,,,,0.68125,0.18875,0,0,0,,,,,,,CANYON,C,m,m,./images/CANYON.png,,,,,,,,,,,,,,,,,,,,,m,1,0.647,,,,,,,,0,35,35,34,1
,,,,,,,,,,,,,,,,,5cc0de4dbb24d500170593f6,24,2022-02-12_16h08.36.911,lexical_decision_task_DD_L3,2021.2.3,MacIntel,58.82352941,,,,,,,,,,,0.65,1,,,,,,,,,,,,,,,,,,,,,,,,0.68125,0.18875,0,0,0,,,,,,,CANDLE,C,m,m,./images/CANDLE.png,,,,,,,,,,,,,,,,,,,,,m,1,0.65,,,,,,,,0,36,36,61,1
,,,,,,,,,,,,,,,,,5cc0de4dbb24d500170593f6,24,2022-02-12_16h08.36.911,lexical_decision_task_DD_L3,2021.2.3,MacIntel,58.82352941,,,,,,,,,,,0.627,1,,,,,,,,,,,,,,,,,,,,,,,,0.68125,0.18875,0,0,0,,,,,,,KITTEN,LB,m,m,./images/KITTENLB.png,,,,,,,,,,,,,,,,,,,,,m,1,0.627,,,,,,,,0,37,37,45,1
,,,,,,,,,,,,,,,,,5cc0de4dbb24d500170593f6,24,2022-02-12_16h08.36.911,lexical_decision_task_DD_L3,2021.2.3,MacIntel,58.82352941,,,,,,,,,,,1.504,0,,,,,,,,,,,,,,,,,,,,,,,,0.68125,0.18875,0,0,0,,,,,,,DRILL,LB,z,m,./images/DRILLLB.png,,,,,,,,,,,,,,,,,,,,,m,0,1.504,,,,,,,,0,38,38,165,1
,,,,,,,,,,,,,,,,,5cc0de4dbb24d500170593f6,24,2022-02-12_16h08.36.911,lexical_decision_task_DD_L3,2021.2.3,MacIntel,58.82352941,,,,,,,,,,,0.765,1,,,,,,,,,,,,,,,,,,,,,,,,0.68125,0.18875,0,0,0,,,,,,,SQUARE,LB,m,m,./images/SQUARELB.png,,,,,,,,,,,,,,,,,,,,,m,1,0.765,,,,,,,,0,39,39,6,1
,,,,,,,,,,,,,,,,,5cc0de4dbb24d500170593f6,24,2022-02-12_16h08.36.911,lexical_decision_task_DD_L3,2021.2.3,MacIntel,58.82352941,,,,,,,,,,,1.382,1,,,,,,,,,,,,,,,,,,,,,,,,0.68125,0.18875,0,0,0,,,,,,,STOVE,HB,z,m,./images/STOVEHB.png,,,,,,,,,,,,,,,,,,,,,z,1,1.382,,,,,,,,0,40,40,86,1
,,,,,,,,,,,,,,,,,5cc0de4dbb24d500170593f6,24,2022-02-12_16h08.36.911,lexical_decision_task_DD_L3,2021.2.3,MacIntel,58.82352941,,,,,,,,,,,0.87,1,,,,,,,,,,,,,,,,,,,,,,,,0.68125,0.18875,0,0,0,space,,,,,,MONKEY,LB,z,m,./images/MONKEYLB.png,1.657,,,,,,,,,,,,,,,,,,,,z,1,0.87,,,,,,,,0,41,41,129,1
,,,,,,,,,,,,,,,,,5cc0de4dbb24d500170593f6,24,2022-02-12_16h08.36.911,lexical_decision_task_DD_L3,2021.2.3,MacIntel,58.82352941,,,,,,,,,,,0.914,0,,,,,,,,,,,,,,,,,,,,,,,,0.68125,0.18875,0,0,0,,,,,,,WAGON,C,z,m,./images/WAGON.png,,,,,,,,,,,,,,,,,,,,,m,0,0.914,,,,,,,,0,42,42,91,1
,,,,,,,,,,,,,,,,,5cc0de4dbb24d500170593f6,24,2022-02-12_16h08.36.911,lexical_decision_task_DD_L3,2021.2.3,MacIntel,58.82352941,,,,,,,,,,,1.213,1,,,,,,,,,,,,,,,,,,,,,,,,0.68125,0.18875,0,0,0,,,,,,,ATTIC,LB,m,m,./images/ATTICLB.png,,,,,,,,,,,,,,,,,,,,,m,1,1.213,,,,,,,,0,43,43,27,1
,,,,,,,,,,,,,,,,,5cc0de4dbb24d500170593f6,24,2022-02-12_16h08.36.911,lexical_decision_task_DD_L3,2021.2.3,MacIntel,58.82352941,,,,,,,,,,,1.341,0,,,,,,,,,,,,,,,,,,,,,,,,0.68125,0.18875,0,0,0,,,,,,,CLOWN,C,z,m,./images/CLOWN.png,,,,,,,,,,,,,,,,,,,,,m,0,1.341,,,,,,,,0,44,44,106,1
,,,,,,,,,,,,,,,,,5cc0de4dbb24d500170593f6,24,2022-02-12_16h08.36.911,lexical_decision_task_DD_L3,2021.2.3,MacIntel,58.82352941,,,,,,,,,,,0.771,1,,,,,,,,,,,,,,,,,,,,,,,,0.68125,0.18875,0,0,0,,,,,,,CRADLE,HB,m,m,./images/CRADLEHB.png,,,,,,,,,,,,,,,,,,,,,m,1,0.771,,,,,,,,0,45,45,20,1
,,,,,,,,,,,,,,,,,5cc0de4dbb24d500170593f6,24,2022-02-12_16h08.36.911,lexical_decision_task_DD_L3,2021.2.3,MacIntel,58.82352941,,,,,,,,,,,1.034,1,,,,,,,,,,,,,,,,,,,,,,,,0.68125,0.18875,0,0,0,,,,,,,GRANNY,HB,z,m,./images/GRANNYHB.png,,,,,,,,,,,,,,,,,,,,,z,1,1.034,,,,,,,,0,46,46,104,1
,,,,,,,,,,,,,,,,,5cc0de4dbb24d500170593f6,24,2022-02-12_16h08.36.911,lexical_decision_task_DD_L3,2021.2.3,MacIntel,58.82352941,,,,,,,,,,,0.828,1,,,,,,,,,,,,,,,,,,,,,,,,0.68125,0.18875,0,0,0,,,,,,,STEAK,C,z,m,./images/STEAK.png,,,,,,,,,,,,,,,,,,,,,z,1,0.828,,,,,,,,0,47,47,115,1
,,,,,,,,,,,,,,,,,5cc0de4dbb24d500170593f6,24,2022-02-12_16h08.36.911,lexical_decision_task_DD_L3,2021.2.3,MacIntel,58.82352941,,,,,,,,,,,2.146,1,,,,,,,,,,,,,,,,,,,,,,,,0.68125,0.18875,0,0,0,,,,,,,ENGINE,HB,z,m,./images/ENGINEHB.png,,,,,,,,,,,,,,,,,,,,,z,1,2.146,,,,,,,,0,48,48,122,1
,,,,,,,,,,,,,,,,,5cc0de4dbb24d500170593f6,24,2022-02-12_16h08.36.911,lexical_decision_task_DD_L3,2021.2.3,MacIntel,58.82352941,,,,,,,,,,,0.681,1,,,,,,,,,,,,,,,,,,,,,,,,0.68125,0.18875,0,0,0,,,,,,,STRING,HB,m,m,./images/STRINGHB.png,,,,,,,,,,,,,,,,,,,,,m,1,0.681,,,,,,,,0,49,49,41,1
,,,,,,,,,,,,,,,,,5cc0de4dbb24d500170593f6,24,2022-02-12_16h08.36.911,lexical_decision_task_DD_L3,2021.2.3,MacIntel,58.82352941,,,,,,,,,,,0.661,1,,,,,,,,,,,,,,,,,,,,,,,,0.68125,0.18875,0,0,0,,,,,,,MOTOR,C,m,m,./images/MOTOR.png,,,,,,,,,,,,,,,,,,,,,m,1,0.661,,,,,,,,0,50,50,13,1
,,,,,,,,,,,,,,,,,5cc0de4dbb24d500170593f6,24,2022-02-12_16h08.36.911,lexical_decision_task_DD_L3,2021.2.3,MacIntel,58.82352941,,,,,,,,,,,1.595,0,,,,,,,,,,,,,,,,,,,,,,,,0.68125,0.18875,0,0,0,,,,,,,WALNUT,LB,z,m,./images/WALNUTLB.png,,,,,,,,,,,,,,,,,,,,,m,0,1.595,,,,,,,,0,51,51,84,1
,,,,,,,,,,,,,,,,,5cc0de4dbb24d500170593f6,24,2022-02-12_16h08.36.911,lexical_decision_task_DD_L3,2021.2.3,MacIntel,58.82352941,,,,,,,,,,,0.781,1,,,,,,,,,,,,,,,,,,,,,,,,0.68125,0.18875,0,0,0,,,,,,,CLOTH,HB,z,m,./images/CLOTHHB.png,,,,,,,,,,,,,,,,,,,,,z,1,0.781,,,,,,,,0,52,52,107,1
,,,,,,,,,,,,,,,,,5cc0de4dbb24d500170593f6,24,2022-02-12_16h08.36.911,lexical_decision_task_DD_L3,2021.2.3,MacIntel,58.82352941,,,,,,,,,,,0.653,1,,,,,,,,,,,,,,,,,,,,,,,,0.68125,0.18875,0,0,0,,,,,,,ONION,LB,m,m,./images/ONIONLB.png,,,,,,,,,,,,,,,,,,,,,m,1,0.653,,,,,,,,0,53,53,51,1
,,,,,,,,,,,,,,,,,5cc0de4dbb24d500170593f6,24,2022-02-12_16h08.36.911,lexical_decision_task_DD_L3,2021.2.3,MacIntel,58.82352941,,,,,,,,,,,0.663,1,,,,,,,,,,,,,,,,,,,,,,,,0.68125,0.18875,0,0,0,,,,,,,DOUGH,C,m,m,./images/DOUGH.png,,,,,,,,,,,,,,,,,,,,,m,1,0.663,,,,,,,,0,54,54,19,1
,,,,,,,,,,,,,,,,,5cc0de4dbb24d500170593f6,24,2022-02-12_16h08.36.911,lexical_decision_task_DD_L3,2021.2.3,MacIntel,58.82352941,,,,,,,,,,,0.835,1,,,,,,,,,,,,,,,,,,,,,,,,0.68125,0.18875,0,0,0,,,,,,,BUNNY,C,z,m,./images/BUNNY.png,,,,,,,,,,,,,,,,,,,,,z,1,0.835,,,,,,,,0,55,55,97,1
,,,,,,,,,,,,,,,,,5cc0de4dbb24d500170593f6,24,2022-02-12_16h08.36.911,lexical_decision_task_DD_L3,2021.2.3,MacIntel,58.82352941,,,,,,,,,,,1.353,0,,,,,,,,,,,,,,,,,,,,,,,,0.68125,0.18875,0,0,0,,,,,,,GLOVE,C,z,m,./images/GLOVE.png,,,,,,,,,,,,,,,,,,,,,m,0,1.353,,,,,,,,0,56,56,157,1
,,,,,,,,,,,,,,,,,5cc0de4dbb24d500170593f6,24,2022-02-12_16h08.36.911,lexical_decision_task_DD_L3,2021.2.3,MacIntel,58.82352941,,,,,,,,,,,0.824,1,,,,,,,,,,,,,,,,,,,,,,,,0.68125,0.18875,0,0,0,,,,,,,LLAMA,HB,z,m,./images/LLAMAHB.png,,,,,,,,,,,,,,,,,,,,,z,1,0.824,,,,,,,,0,57,57,119,1
,,,,,,,,,,,,,,,,,5cc0de4dbb24d500170593f6,24,2022-02-12_16h08.36.911,lexical_decision_task_DD_L3,2021.2.3,MacIntel,58.82352941,,,,,,,,,,,0.713,1,,,,,,,,,,,,,,,,,,,,,,,,0.68125,0.18875,0,0,0,,,,,,,MOSQUE,C,m,m,./images/MOSQUE.png,,,,,,,,,,,,,,,,,,,,,m,1,0.713,,,,,,,,0,58,58,43,1
,,,,,,,,,,,,,,,,,5cc0de4dbb24d500170593f6,24,2022-02-12_16h08.36.911,lexical_decision_task_DD_L3,2021.2.3,MacIntel,58.82352941,,,,,,,,,,,0.962,1,,,,,,,,,,,,,,,,,,,,,,,,0.68125,0.18875,0,0,0,,,,,,,LAGOON,HB,z,m,./images/LAGOONHB.png,,,,,,,,,,,,,,,,,,,,,z,1,0.962,,,,,,,,0,59,59,131,1
,,,,,,,,,,,,,,,,,5cc0de4dbb24d500170593f6,24,2022-02-12_16h08.36.911,lexical_decision_task_DD_L3,2021.2.3,MacIntel,58.82352941,,,,,,,,,,,1.624,1,,,,,,,,,,,,,,,,,,,,,,,,0.68125,0.18875,0,0,0,,,,,,,FLASK,LB,z,m,./images/FLASKLB.png,,,,,,,,,,,,,,,,,,,,,z,1,1.624,,,,,,,,0,60,60,156,1
,,,,,,,,,,,,,,,,,5cc0de4dbb24d500170593f6,24,2022-02-12_16h08.36.911,lexical_decision_task_DD_L3,2021.2.3,MacIntel,58.82352941,,,,,,,,,,,0.789,1,,,,,,,,,,,,,,,,,,,,,,,,0.68125,0.18875,0,0,0,,,,,,,TORCH,HB,m,m,./images/TORCHHB.png,,,,,,,,,,,,,,,,,,,,,m,1,0.789,,,,,,,,0,61,61,68,1
,,,,,,,,,,,,,,,,,5cc0de4dbb24d500170593f6,24,2022-02-12_16h08.36.911,lexical_decision_task_DD_L3,2021.2.3,MacIntel,58.82352941,,,,,,,,,,,0.637,1,,,,,,,,,,,,,,,,,,,,,,,,0.68125,0.18875,0,0,0,,,,,,,WEASEL,HB,m,m,./images/WEASELHB.png,,,,,,,,,,,,,,,,,,,,,m,1,0.637,,,,,,,,0,62,62,80,1
,,,,,,,,,,,,,,,,,5cc0de4dbb24d500170593f6,24,2022-02-12_16h08.36.911,lexical_decision_task_DD_L3,2021.2.3,MacIntel,58.82352941,,,,,,,,,,,0.697,1,,,,,,,,,,,,,,,,,,,,,,,,0.68125,0.18875,0,0,0,,,,,,,RULER,C,z,m,./images/RULER.png,,,,,,,,,,,,,,,,,,,,,z,1,0.697,,,,,,,,0,63,63,163,1
,,,,,,,,,,,,,,,,,5cc0de4dbb24d500170593f6,24,2022-02-12_16h08.36.911,lexical_decision_task_DD_L3,2021.2.3,MacIntel,58.82352941,,,,,,,,,,,1.137,1,,,,,,,,,,,,,,,,,,,,,,,,0.68125,0.18875,0,0,0,,,,,,,RHINO,LB,m,m,./images/RHINOLB.png,,,,,,,,,,,,,,,,,,,,,m,1,1.137,,,,,,,,0,64,64,9,1
,,,,,,,,,,,,,,,,,5cc0de4dbb24d500170593f6,24,2022-02-12_16h08.36.911,lexical_decision_task_DD_L3,2021.2.3,MacIntel,58.82352941,,,,,,,,,,,0.895,1,,,,,,,,,,,,,,,,,,,,,,,,0.68125,0.18875,0,0,0,,,,,,,BARREL,HB,m,m,./images/BARRELHB.png,,,,,,,,,,,,,,,,,,,,,m,1,0.895,,,,,,,,0,65,65,32,1
,,,,,,,,,,,,,,,,,5cc0de4dbb24d500170593f6,24,2022-02-12_16h08.36.911,lexical_decision_task_DD_L3,2021.2.3,MacIntel,58.82352941,,,,,,,,,,,0.728,1,,,,,,,,,,,,,,,,,,,,,,,,0.68125,0.18875,0,0,0,,,,,,,PEBBLE,C,z,m,./images/PEBBLE.png,,,,,,,,,,,,,,,,,,,,,z,1,0.728,,,,,,,,0,66,66,166,1
,,,,,,,,,,,,,,,,,5cc0de4dbb24d500170593f6,24,2022-02-12_16h08.36.911,lexical_decision_task_DD_L3,2021.2.3,MacIntel,58.82352941,,,,,,,,,,,0.784,1,,,,,,,,,,,,,,,,,,,,,,,,0.68125,0.18875,0,0,0,,,,,,,CANOE,C,z,m,./images/CANOE.png,,,,,,,,,,,,,,,,,,,,,z,1,0.784,,,,,,,,0,67,67,142,1
,,,,,,,,,,,,,,,,,5cc0de4dbb24d500170593f6,24,2022-02-12_16h08.36.911,lexical_decision_task_DD_L3,2021.2.3,MacIntel,58.82352941,,,,,,,,,,,0.92,1,,,,,,,,,,,,,,,,,,,,,,,,0.68125,0.18875,0,0,0,,,,,,,PACKET,HB,m,m,./images/PACKETHB.png,,,,,,,,,,,,,,,,,,,,,m,1,0.92,,,,,,,,0,68,68,56,1
,,,,,,,,,,,,,,,,,5cc0de4dbb24d500170593f6,24,2022-02-12_16h08.36.911,lexical_decision_task_DD_L3,2021.2.3,MacIntel,58.82352941,,,,,,,,,,,0.715,1,,,,,,,,,,,,,,,,,,,,,,,,0.68125,0.18875,0,0,0,,,,,,,FERRY,LB,z,m,./images/FERRYLB.png,,,,,,,,,,,,,,,,,,,,,z,1,0.715,,,,,,,,0,69,69,141,1
,,,,,,,,,,,,,,,,,5cc0de4dbb24d500170593f6,24,2022-02-12_16h08.36.911,lexical_decision_task_DD_L3,2021.2.3,MacIntel,58.82352941,,,,,,,,,,,1.192,0,,,,,,,,,,,,,,,,,,,,,,,,0.68125,0.18875,0,0,0,,,,,,,PIMPLE,HB,m,m,./images/PIMPLEHB.png,,,,,,,,,,,,,,,,,,,,,z,0,1.192,,,,,,,,0,70,70,71,1
,,,,,,,,,,,,,,,,,5cc0de4dbb24d500170593f6,24,2022-02-12_16h08.36.911,lexical_decision_task_DD_L3,2021.2.3,MacIntel,58.82352941,,,,,,,,,,,0.736,1,,,,,,,,,,,,,,,,,,,,,,,,0.68125,0.18875,0,0,0,,,,,,,SPORT,LB,m,m,./images/SPORTLB.png,,,,,,,,,,,,,,,,,,,,,m,1,0.736,,,,,,,,0,71,71,48,1
,,,,,,,,,,,,,,,,,5cc0de4dbb24d500170593f6,24,2022-02-12_16h08.36.911,lexical_decision_task_DD_L3,2021.2.3,MacIntel,58.82352941,,,,,,,,,,,0.728,0,,,,,,,,,,,,,,,,,,,,,,,,0.68125,0.18875,0,0,0,,,,,,,PAINT,C,m,m,./images/PAINT.png,,,,,,,,,,,,,,,,,,,,,z,0,0.728,,,,,,,,0,72,72,7,1
,,,,,,,,,,,,,,,,,5cc0de4dbb24d500170593f6,24,2022-02-12_16h08.36.911,lexical_decision_task_DD_L3,2021.2.3,MacIntel,58.82352941,,,,,,,,,,,0.89,1,,,,,,,,,,,,,,,,,,,,,,,,0.68125,0.18875,0,0,0,,,,,,,JUNGLE,HB,m,m,./images/JUNGLEHB.png,,,,,,,,,,,,,,,,,,,,,m,1,0.89,,,,,,,,0,73,73,83,1
,,,,,,,,,,,,,,,,,5cc0de4dbb24d500170593f6,24,2022-02-12_16h08.36.911,lexical_decision_task_DD_L3,2021.2.3,MacIntel,58.82352941,,,,,,,,,,,0.701,1,,,,,,,,,,,,,,,,,,,,,,,,0.68125,0.18875,0,0,0,,,,,,,WALRUS,HB,m,m,./images/WALRUSHB.png,,,,,,,,,,,,,,,,,,,,,m,1,0.701,,,,,,,,0,74,74,23,1
,,,,,,,,,,,,,,,,,5cc0de4dbb24d500170593f6,24,2022-02-12_16h08.36.911,lexical_decision_task_DD_L3,2021.2.3,MacIntel,58.82352941,,,,,,,,,,,1.533,1,,,,,,,,,,,,,,,,,,,,,,,,0.68125,0.18875,0,0,0,,,,,,,CLIFF,HB,z,m,./images/CLIFFHB.png,,,,,,,,,,,,,,,,,,,,,z,1,1.533,,,,,,,,0,75,75,92,1
,,,,,,,,,,,,,,,,,5cc0de4dbb24d500170593f6,24,2022-02-12_16h08.36.911,lexical_decision_task_DD_L3,2021.2.3,MacIntel,58.82352941,,,,,,,,,,,1.117,1,,,,,,,,,,,,,,,,,,,,,,,,0.68125,0.18875,0,0,0,,,,,,,BABOON,C,m,m,./images/BABOON.png,,,,,,,,,,,,,,,,,,,,,m,1,1.117,,,,,,,,0,76,76,58,1
,,,,,,,,,,,,,,,,,5cc0de4dbb24d500170593f6,24,2022-02-12_16h08.36.911,lexical_decision_task_DD_L3,2021.2.3,MacIntel,58.82352941,,,,,,,,,,,1.145,0,,,,,,,,,,,,,,,,,,,,,,,,0.68125,0.18875,0,0,0,,,,,,,BANNER,C,m,m,./images/BANNER.png,,,,,,,,,,,,,,,,,,,,,z,0,1.145,,,,,,,,0,77,77,52,1
,,,,,,,,,,,,,,,,,5cc0de4dbb24d500170593f6,24,2022-02-12_16h08.36.911,lexical_decision_task_DD_L3,2021.2.3,MacIntel,58.82352941,,,,,,,,,,,0.619,1,,,,,,,,,,,,,,,,,,,,,,,,0.68125,0.18875,0,0,0,,,,,,,MAGGOT,LB,m,m,./images/MAGGOTLB.png,,,,,,,,,,,,,,,,,,,,,m,1,0.619,,,,,,,,0,78,78,33,1
,,,,,,,,,,,,,,,,,5cc0de4dbb24d500170593f6,24,2022-02-12_16h08.36.911,lexical_decision_task_DD_L3,2021.2.3,MacIntel,58.82352941,,,,,,,,,,,0.696,0,,,,,,,,,,,,,,,,,,,,,,,,0.68125,0.18875,0,0,0,,,,,,,POKER,C,z,m,./images/POKER.png,,,,,,,,,,,,,,,,,,,,,m,0,0.696,,,,,,,,0,79,79,151,1
,,,,,,,,,,,,,,,,,5cc0de4dbb24d500170593f6,24,2022-02-12_16h08.36.911,lexical_decision_task_DD_L3,2021.2.3,MacIntel,58.82352941,,,,,,,,,,,0.783,1,,,,,,,,,,,,,,,,,,,,,,,,0.68125,0.18875,0,0,0,,,,,,,SPINE,HB,z,m,./images/SPINEHB.png,,,,,,,,,,,,,,,,,,,,,z,1,0.783,,,,,,,,0,80,80,149,1
,,,,,,,,,,,,,,,,,5cc0de4dbb24d500170593f6,24,2022-02-12_16h08.36.911,lexical_decision_task_DD_L3,2021.2.3,MacIntel,58.82352941,,,,,,,,,,,1.28,1,,,,,,,,,,,,,,,,,,,,,,,,0.68125,0.18875,0,0,0,,,,,,,FLESH,LB,z,m,./images/FLESHLB.png,,,,,,,,,,,,,,,,,,,,,z,1,1.28,,,,,,,,0,81,81,108,1
,,,,,,,,,,,,,,,,,5cc0de4dbb24d500170593f6,24,2022-02-12_16h08.36.911,lexical_decision_task_DD_L3,2021.2.3,MacIntel,58.82352941,,,,,,,,,,,0.797,1,,,,,,,,,,,,,,,,,,,,,,,,0.68125,0.18875,0,0,0,,,,,,,BRUSH,HB,z,m,./images/BRUSHHB.png,,,,,,,,,,,,,,,,,,,,,z,1,0.797,,,,,,,,0,82,82,143,1
,,,,,,,,,,,,,,,,,5cc0de4dbb24d500170593f6,24,2022-02-12_16h08.36.911,lexical_decision_task_DD_L3,2021.2.3,MacIntel,58.82352941,,,,,,,,,,,0.628,1,,,,,,,,,,,,,,,,,,,,,,,,0.68125,0.18875,0,0,0,space,,,,,,SMOKER,HB,m,m,./images/SMOKERHB.png,13.073,,,,,,,,,,,,,,,,,,,,m,1,0.628,,,,,,,,0,83,83,26,1
,,,,,,,,,,,,,,,,,5cc0de4dbb24d500170593f6,24,2022-02-12_16h08.36.911,lexical_decision_task_DD_L3,2021.2.3,MacIntel,58.82352941,,,,,,,,,,,0.819,1,,,,,,,,,,,,,,,,,,,,,,,,0.68125,0.18875,0,0,0,,,,,,,LITTER,LB,m,m,./images/LITTERLB.png,,,,,,,,,,,,,,,,,,,,,m,1,0.819,,,,,,,,0,84,84,78,1
,,,,,,,,,,,,,,,,,5cc0de4dbb24d500170593f6,24,2022-02-12_16h08.36.911,lexical_decision_task_DD_L3,2021.2.3,MacIntel,58.82352941,,,,,,,,,,,0.857,1,,,,,,,,,,,,,,,,,,,,,,,,0.68125,0.18875,0,0,0,,,,,,,SAUCE,LB,z,m,./images/SAUCELB.png,,,,,,,,,,,,,,,,,,,,,z,1,0.857,,,,,,,,0,85,85,135,1
,,,,,,,,,,,,,,,,,5cc0de4dbb24d500170593f6,24,2022-02-12_16h08.36.911,lexical_decision_task_DD_L3,2021.2.3,MacIntel,58.82352941,,,,,,,,,,,0.628,1,,,,,,,,,,,,,,,,,,,,,,,,0.68125,0.18875,0,0,0,,,,,,,TULIP,HB,m,m,./images/TULIPHB.png,,,,,,,,,,,,,,,,,,,,,m,1,0.628,,,,,,,,0,86,86,8,1
,,,,,,,,,,,,,,,,,5cc0de4dbb24d500170593f6,24,2022-02-12_16h08.36.911,lexical_decision_task_DD_L3,2021.2.3,MacIntel,58.82352941,,,,,,,,,,,0.728,0,,,,,,,,,,,,,,,,,,,,,,,,0.68125,0.18875,0,0,0,,,,,,,BAKER,LB,z,m,./images/BAKERLB.png,,,,,,,,,,,,,,,,,,,,,m,0,0.728,,,,,,,,0,87,87,147,1
,,,,,,,,,,,,,,,,,5cc0de4dbb24d500170593f6,24,2022-02-12_16h08.36.911,lexical_decision_task_DD_L3,2021.2.3,MacIntel,58.82352941,,,,,,,,,,,0.632,0,,,,,,,,,,,,,,,,,,,,,,,,0.68125,0.18875,0,0,0,,,,,,,SUNSET,C,m,m,./images/SUNSET.png,,,,,,,,,,,,,,,,,,,,,z,0,0.632,,,,,,,,0,88,88,82,1
,,,,,,,,,,,,,,,,,5cc0de4dbb24d500170593f6,24,2022-02-12_16h08.36.911,lexical_decision_task_DD_L3,2021.2.3,MacIntel,58.82352941,,,,,,,,,,,0.735,1,,,,,,,,,,,,,,,,,,,,,,,,0.68125,0.18875,0,0,0,,,,,,,BEARD,HB,m,m,./images/BEARDHB.png,,,,,,,,,,,,,,,,,,,,,m,1,0.735,,,,,,,,0,89,89,2,1
,,,,,,,,,,,,,,,,,5cc0de4dbb24d500170593f6,24,2022-02-12_16h08.36.911,lexical_decision_task_DD_L3,2021.2.3,MacIntel,58.82352941,,,,,,,,,,,0.644,1,,,,,,,,,,,,,,,,,,,,,,,,0.68125,0.18875,0,0,0,,,,,,,VALLEY,HB,z,m,./images/VALLEYHB.png,,,,,,,,,,,,,,,,,,,,,z,1,0.644,,,,,,,,0,90,90,152,1
,,,,,,,,,,,,,,,,,5cc0de4dbb24d500170593f6,24,2022-02-12_16h08.36.911,lexical_decision_task_DD_L3,2021.2.3,MacIntel,58.82352941,,,,,,,,,,,0.863,1,,,,,,,,,,,,,,,,,,,,,,,,0.68125,0.18875,0,0,0,,,,,,,TRIPOD,LB,m,m,./images/TRIPODLB.png,,,,,,,,,,,,,,,,,,,,,m,1,0.863,,,,,,,,0,91,91,54,1
,,,,,,,,,,,,,,,,,5cc0de4dbb24d500170593f6,24,2022-02-12_16h08.36.911,lexical_decision_task_DD_L3,2021.2.3,MacIntel,58.82352941,,,,,,,,,,,0.862,1,,,,,,,,,,,,,,,,,,,,,,,,0.68125,0.18875,0,0,0,,,,,,,PURSE,HB,m,m,./images/PURSEHB.png,,,,,,,,,,,,,,,,,,,,,m,1,0.862,,,,,,,,0,92,92,62,1
,,,,,,,,,,,,,,,,,5cc0de4dbb24d500170593f6,24,2022-02-12_16h08.36.911,lexical_decision_task_DD_L3,2021.2.3,MacIntel,58.82352941,,,,,,,,,,,1.543,0,,,,,,,,,,,,,,,,,,,,,,,,0.68125,0.18875,0,0,0,,,,,,,SHORE,LB,m,m,./images/SHORELB.png,,,,,,,,,,,,,,,,,,,,,z,0,1.543,,,,,,,,0,93,93,12,1
,,,,,,,,,,,,,,,,,5cc0de4dbb24d500170593f6,24,2022-02-12_16h08.36.911,lexical_decision_task_DD_L3,2021.2.3,MacIntel,58.82352941,,,,,,,,,,,0.836,1,,,,,,,,,,,,,,,,,,,,,,,,0.68125,0.18875,0,0,0,,,,,,,CARPET,HB,m,m,./images/CARPETHB.png,,,,,,,,,,,,,,,,,,,,,m,1,0.836,,,,,,,,0,94,94,53,1
,,,,,,,,,,,,,,,,,5cc0de4dbb24d500170593f6,24,2022-02-12_16h08.36.911,lexical_decision_task_DD_L3,2021.2.3,MacIntel,58.82352941,,,,,,,,,,,0.999,0,,,,,,,,,,,,,,,,,,,,,,,,0.68125,0.18875,0,0,0,,,,,,,SHIELD,LB,z,m,./images/SHIELDLB.png,,,,,,,,,,,,,,,,,,,,,m,0,0.999,,,,,,,,0,95,95,132,1
,,,,,,,,,,,,,,,,,5cc0de4dbb24d500170593f6,24,2022-02-12_16h08.36.911,lexical_decision_task_DD_L3,2021.2.3,MacIntel,58.82352941,,,,,,,,,,,1.477,0,,,,,,,,,,,,,,,,,,,,,,,,0.68125,0.18875,0,0,0,,,,,,,ALLEY,C,z,m,./images/ALLEY.png,,,,,,,,,,,,,,,,,,,,,m,0,1.477,,,,,,,,0,96,96,139,1
,,,,,,,,,,,,,,,,,5cc0de4dbb24d500170593f6,24,2022-02-12_16h08.36.911,lexical_decision_task_DD_L3,2021.2.3,MacIntel,58.82352941,,,,,,,,,,,1.114,0,,,,,,,,,,,,,,,,,,,,,,,,0.68125,0.18875,0,0,0,,,,,,,SWING,C,m,m,./images/SWING.png,,,,,,,,,,,,,,,,,,,,,z,0,1.114,,,,,,,,0,97,97,40,1
,,,,,,,,,,,,,,,,,5cc0de4dbb24d500170593f6,24,2022-02-12_16h08.36.911,lexical_decision_task_DD_L3,2021.2.3,MacIntel,58.82352941,,,,,,,,,,,0.855,0,,,,,,,,,,,,,,,,,,,,,,,,0.68125,0.18875,0,0,0,,,,,,,MUMMY,C,z,m,./images/MUMMY.png,,,,,,,,,,,,,,,,,,,,,m,0,0.855,,,,,,,,0,98,98,130,1
,,,,,,,,,,,,,,,,,5cc0de4dbb24d500170593f6,24,2022-02-12_16h08.36.911,lexical_decision_task_DD_L3,2021.2.3,MacIntel,58.82352941,,,,,,,,,,,0.847,1,,,,,,,,,,,,,,,,,,,,,,,,0.68125,0.18875,0,0,0,,,,,,,PISTOL,HB,z,m,./images/PISTOLHB.png,,,,,,,,,,,,,,,,,,,,,z,1,0.847,,,,,,,,0,99,99,113,1
,,,,,,,,,,,,,,,,,5cc0de4dbb24d500170593f6,24,2022-02-12_16h08.36.911,lexical_decision_task_DD_L3,2021.2.3,MacIntel,58.82352941,,,,,,,,,,,0.831,0,,,,,,,,,,,,,,,,,,,,,,,,0.68125,0.18875,0,0,0,,,,,,,PARCEL,LB,z,m,./images/PARCELLB.png,,,,,,,,,,,,,,,,,,,,,m,0,0.831,,,,,,,,0,100,100,102,1
,,,,,,,,,,,,,,,,,5cc0de4dbb24d500170593f6,24,2022-02-12_16h08.36.911,lexical_decision_task_DD_L3,2021.2.3,MacIntel,58.82352941,,,,,,,,,,,0.843,1,,,,,,,,,,,,,,,,,,,,,,,,0.68125,0.18875,0,0,0,,,,,,,GARDEN,C,z,m,./images/GARDEN.png,,,,,,,,,,,,,,,,,,,,,z,1,0.843,,,,,,,,0,101,101,94,1
,,,,,,,,,,,,,,,,,5cc0de4dbb24d500170593f6,24,2022-02-12_16h08.36.911,lexical_decision_task_DD_L3,2021.2.3,MacIntel,58.82352941,,,,,,,,,,,0.72,1,,,,,,,,,,,,,,,,,,,,,,,,0.68125,0.18875,0,0,0,,,,,,,FALCON,C,m,m,./images/FALCON.png,,,,,,,,,,,,,,,,,,,,,m,1,0.72,,,,,,,,0,102,102,28,1
,,,,,,,,,,,,,,,,,5cc0de4dbb24d500170593f6,24,2022-02-12_16h08.36.911,lexical_decision_task_DD_L3,2021.2.3,MacIntel,58.82352941,,,,,,,,,,,0.755,1,,,,,,,,,,,,,,,,,,,,,,,,0.68125,0.18875,0,0,0,,,,,,,LIZARD,HB,m,m,./images/LIZARDHB.png,,,,,,,,,,,,,,,,,,,,,m,1,0.755,,,,,,,,0,103,103,44,1
,,,,,,,,,,,,,,,,,5cc0de4dbb24d500170593f6,24,2022-02-12_16h08.36.911,lexical_decision_task_DD_L3,2021.2.3,MacIntel,58.82352941,,,,,,,,,,,0.751,1,,,,,,,,,,,,,,,,,,,,,,,,0.68125,0.18875,0,0,0,,,,,,,CANDY,LB,z,m,./images/CANDYLB.png,,,,,,,,,,,,,,,,,,,,,z,1,0.751,,,,,,,,0,104,104,123,1
,,,,,,,,,,,,,,,,,5cc0de4dbb24d500170593f6,24,2022-02-12_16h08.36.911,lexical_decision_task_DD_L3,2021.2.3,MacIntel,58.82352941,,,,,,,,,,,0.901,0,,,,,,,,,,,,,,,,,,,,,,,,0.68125,0.18875,0,0,0,,,,,,,COLLAR,LB,z,m,./images/COLLARLB.png,,,,,,,,,,,,,,,,,,,,,m,0,0.901,,,,,,,,0,105,105,99,1
,,,,,,,,,,,,,,,,,5cc0de4dbb24d500170593f6,24,2022-02-12_16h08.36.911,lexical_decision_task_DD_L3,2021.2.3,MacIntel,58.82352941,,,,,,,,,,,0.684,0,,,,,,,,,,,,,,,,,,,,,,,,0.68125,0.18875,0,0,0,,,,,,,BIRTH,C,m,m,./images/BIRTH.png,,,,,,,,,,,,,,,,,,,,,z,0,0.684,,,,,,,,0,106,106,37,1
,,,,,,,,,,,,,,,,,5cc0de4dbb24d500170593f6,24,2022-02-12_16h08.36.911,lexical_decision_task_DD_L3,2021.2.3,MacIntel,58.82352941,,,,,,,,,,,0.633,1,,,,,,,,,,,,,,,,,,,,,,,,0.68125,0.18875,0,0,0,,,,,,,KIDNEY,LB,m,m,./images/KIDNEYLB.png,,,,,,,,,,,,,,,,,,,,,m,1,0.633,,,,,,,,0,107,107,21,1
,,,,,,,,,,,,,,,,,5cc0de4dbb24d500170593f6,24,2022-02-12_16h08.36.911,lexical_decision_task_DD_L3,2021.2.3,MacIntel,58.82352941,,,,,,,,,,,0.726,1,,,,,,,,,,,,,,,,,,,,,,,,0.68125,0.18875,0,0,0,,,,,,,MEDAL,HB,z,m,./images/MEDALHB.png,,,,,,,,,,,,,,,,,,,,,z,1,0.726,,,,,,,,0,108,108,95,1
,,,,,,,,,,,,,,,,,5cc0de4dbb24d500170593f6,24,2022-02-12_16h08.36.911,lexical_decision_task_DD_L3,2021.2.3,MacIntel,58.82352941,,,,,,,,,,,0.862,0,,,,,,,,,,,,,,,,,,,,,,,,0.68125,0.18875,0,0,0,,,,,,,BELLY,C,m,m,./images/BELLY.png,,,,,,,,,,,,,,,,,,,,,z,0,0.862,,,,,,,,0,109,109,10,1
,,,,,,,,,,,,,,,,,5cc0de4dbb24d500170593f6,24,2022-02-12_16h08.36.911,lexical_decision_task_DD_L3,2021.2.3,MacIntel,58.82352941,,,,,,,,,,,1.135,0,,,,,,,,,,,,,,,,,,,,,,,,0.68125,0.18875,0,0,0,,,,,,,FARMER,HB,m,m,./images/FARMERHB.png,,,,,,,,,,,,,,,,,,,,,z,0,1.135,,,,,,,,0,110,110,65,1
,,,,,,,,,,,,,,,,,5cc0de4dbb24d500170593f6,24,2022-02-12_16h08.36.911,lexical_decision_task_DD_L3,2021.2.3,MacIntel,58.82352941,,,,,,,,,,,0.77,0,,,,,,,,,,,,,,,,,,,,,,,,0.68125,0.18875,0,0,0,,,,,,,TWINS,LB,m,m,./images/TWINSLB.png,,,,,,,,,,,,,,,,,,,,,z,0,0.77,,,,,,,,0,111,111,60,1
,,,,,,,,,,,,,,,,,5cc0de4dbb24d500170593f6,24,2022-02-12_16h08.36.911,lexical_decision_task_DD_L3,2021.2.3,MacIntel,58.82352941,,,,,,,,,,,0.668,1,,,,,,,,,,,,,,,,,,,,,,,,0.68125,0.18875,0,0,0,,,,,,,SKIING,HB,m,m,./images/SKIINGHB.png,,,,,,,,,,,,,,,,,,,,,m,1,0.668,,,,,,,,0,112,112,17,1
,,,,,,,,,,,,,,,,,5cc0de4dbb24d500170593f6,24,2022-02-12_16h08.36.911,lexical_decision_task_DD_L3,2021.2.3,MacIntel,58.82352941,,,,,,,,,,,0.928,1,,,,,,,,,,,,,,,,,,,,,,,,0.68125,0.18875,0,0,0,,,,,,,CRUMB,HB,m,m,./images/CRUMBHB.png,,,,,,,,,,,,,,,,,,,,,m,1,0.928,,,,,,,,0,113,113,29,1
,,,,,,,,,,,,,,,,,5cc0de4dbb24d500170593f6,24,2022-02-12_16h08.36.911,lexical_decision_task_DD_L3,2021.2.3,MacIntel,58.82352941,,,,,,,,,,,0.67,1,,,,,,,,,,,,,,,,,,,,,,,,0.68125,0.18875,0,0,0,,,,,,,DONKEY,C,z,m,./images/DONKEY.png,,,,,,,,,,,,,,,,,,,,,z,1,0.67,,,,,,,,0,114,114,103,1
,,,,,,,,,,,,,,,,,5cc0de4dbb24d500170593f6,24,2022-02-12_16h08.36.911,lexical_decision_task_DD_L3,2021.2.3,MacIntel,58.82352941,,,,,,,,,,,0.717,1,,,,,,,,,,,,,,,,,,,,,,,,0.68125,0.18875,0,0,0,,,,,,,CLOUD,HB,z,m,./images/CLOUDHB.png,,,,,,,,,,,,,,,,,,,,,z,1,0.717,,,,,,,,0,115,115,110,1
,,,,,,,,,,,,,,,,,5cc0de4dbb24d500170593f6,24,2022-02-12_16h08.36.911,lexical_decision_task_DD_L3,2021.2.3,MacIntel,58.82352941,,,,,,,,,,,0.96,1,,,,,,,,,,,,,,,,,,,,,,,,0.68125,0.18875,0,0,0,,,,,,,CRATER,LB,z,m,./images/CRATERLB.png,,,,,,,,,,,,,,,,,,,,,z,1,0.96,,,,,,,,0,116,116,87,1
,,,,,,,,,,,,,,,,,5cc0de4dbb24d500170593f6,24,2022-02-12_16h08.36.911,lexical_decision_task_DD_L3,2021.2.3,MacIntel,58.82352941,,,,,,,,,,,0.632,1,,,,,,,,,,,,,,,,,,,,,,,,0.68125,0.18875,0,0,0,,,,,,,SAILOR,C,m,m,./images/SAILOR.png,,,,,,,,,,,,,,,,,,,,,m,1,0.632,,,,,,,,0,117,117,67,1
,,,,,,,,,,,,,,,,,5cc0de4dbb24d500170593f6,24,2022-02-12_16h08.36.911,lexical_decision_task_DD_L3,2021.2.3,MacIntel,58.82352941,,,,,,,,,,,0.996,1,,,,,,,,,,,,,,,,,,,,,,,,0.68125,0.18875,0,0,0,,,,,,,ARROW,LB,z,m,./images/ARROWLB.png,,,,,,,,,,,,,,,,,,,,,z,1,0.996,,,,,,,,0,118,118,153,1
,,,,,,,,,,,,,,,,,5cc0de4dbb24d500170593f6,24,2022-02-12_16h08.36.911,lexical_decision_task_DD_L3,2021.2.3,MacIntel,58.82352941,,,,,,,,,,,0.699,1,,,,,,,,,,,,,,,,,,,,,,,,0.68125,0.18875,0,0,0,,,,,,,GREASE,LB,m,m,./images/GREASELB.png,,,,,,,,,,,,,,,,,,,,,m,1,0.699,,,,,,,,0,119,119,15,1
,,,,,,,,,,,,,,,,,5cc0de4dbb24d500170593f6,24,2022-02-12_16h08.36.911,lexical_decision_task_DD_L3,2021.2.3,MacIntel,58.82352941,,,,,,,,,,,0.598,1,,,,,,,,,,,,,,,,,,,,,,,,0.68125,0.18875,0,0,0,,,,,,,PEARL,C,m,m,./images/PEARL.png,,,,,,,,,,,,,,,,,,,,,m,1,0.598,,,,,,,,0,120,120,46,1
,,,,,,,,,,,,,,,,,5cc0de4dbb24d500170593f6,24,2022-02-12_16h08.36.911,lexical_decision_task_DD_L3,2021.2.3,MacIntel,58.82352941,,,,,,,,,,,0.794,0,,,,,,,,,,,,,,,,,,,,,,,,0.68125,0.18875,0,0,0,,,,,,,PLANK,C,m,m,./images/PLANK.png,,,,,,,,,,,,,,,,,,,,,z,0,0.794,,,,,,,,0,121,121,1,1
,,,,,,,,,,,,,,,,,5cc0de4dbb24d500170593f6,24,2022-02-12_16h08.36.911,lexical_decision_task_DD_L3,2021.2.3,MacIntel,58.82352941,,,,,,,,,,,0.699,1,,,,,,,,,,,,,,,,,,,,,,,,0.68125,0.18875,0,0,0,,,,,,,BUBBLE,HB,z,m,./images/BUBBLEHB.png,,,,,,,,,,,,,,,,,,,,,z,1,0.699,,,,,,,,0,122,122,155,1
,,,,,,,,,,,,,,,,,5cc0de4dbb24d500170593f6,24,2022-02-12_16h08.36.911,lexical_decision_task_DD_L3,2021.2.3,MacIntel,58.82352941,,,,,,,,,,,0.833,1,,,,,,,,,,,,,,,,,,,,,,,,0.68125,0.18875,0,0,0,,,,,,,CHAIN,LB,z,m,./images/CHAINLB.png,,,,,,,,,,,,,,,,,,,,,z,1,0.833,,,,,,,,0,123,123,126,1
,,,,,,,,,,,,,,,,,5cc0de4dbb24d500170593f6,24,2022-02-12_16h08.36.911,lexical_decision_task_DD_L3,2021.2.3,MacIntel,58.82352941,,,,,,,,,,,0.827,0,,,,,,,,,,,,,,,,,,,,,,,,0.68125,0.18875,0,0,0,,,,,,,TOMATO,LB,m,m,./images/TOMATOLB.png,,,,,,,,,,,,,,,,,,,,,z,0,0.827,,,,,,,,0,124,124,0,1
,,,,,,,,,,,,,,,,,5cc0de4dbb24d500170593f6,24,2022-02-12_16h08.36.911,lexical_decision_task_DD_L3,2021.2.3,MacIntel,58.82352941,,,,,,,,,,,1.012,1,,,,,,,,,,,,,,,,,,,,,,,,0.68125,0.18875,0,0,0,space,,,,,,JUMPER,HB,z,m,./images/JUMPERHB.png,0.871,,,,,,,,,,,,,,,,,,,,z,1,1.012,,,,,,,,0,125,125,158,1
,,,,,,,,,,,,,,,,,5cc0de4dbb24d500170593f6,24,2022-02-12_16h08.36.911,lexical_decision_task_DD_L3,2021.2.3,MacIntel,58.82352941,,,,,,,,,,,0.947,1,,,,,,,,,,,,,,,,,,,,,,,,0.68125,0.18875,0,0,0,,,,,,,DIVER,LB,z,m,./images/DIVERLB.png,,,,,,,,,,,,,,,,,,,,,z,1,0.947,,,,,,,,0,126,126,93,1
,,,,,,,,,,,,,,,,,5cc0de4dbb24d500170593f6,24,2022-02-12_16h08.36.911,lexical_decision_task_DD_L3,2021.2.3,MacIntel,58.82352941,,,,,,,,,,,0.651,1,,,,,,,,,,,,,,,,,,,,,,,,0.68125,0.18875,0,0,0,,,,,,,COUCH,HB,m,m,./images/COUCHHB.png,,,,,,,,,,,,,,,,,,,,,m,1,0.651,,,,,,,,0,127,127,77,1
,,,,,,,,,,,,,,,,,5cc0de4dbb24d500170593f6,24,2022-02-12_16h08.36.911,lexical_decision_task_DD_L3,2021.2.3,MacIntel,58.82352941,,,,,,,,,,,0.709,1,,,,,,,,,,,,,,,,,,,,,,,,0.68125,0.18875,0,0,0,,,,,,,MELON,C,m,m,./images/MELON.png,,,,,,,,,,,,,,,,,,,,,m,1,0.709,,,,,,,,0,128,128,22,1
,,,,,,,,,,,,,,,,,5cc0de4dbb24d500170593f6,24,2022-02-12_16h08.36.911,lexical_decision_task_DD_L3,2021.2.3,MacIntel,58.82352941,,,,,,,,,,,0.928,1,,,,,,,,,,,,,,,,,,,,,,,,0.68125,0.18875,0,0,0,,,,,,,SAUNA,LB,z,m,./images/SAUNALB.png,,,,,,,,,,,,,,,,,,,,,z,1,0.928,,,,,,,,0,129,129,117,1
,,,,,,,,,,,,,,,,,5cc0de4dbb24d500170593f6,24,2022-02-12_16h08.36.911,lexical_decision_task_DD_L3,2021.2.3,MacIntel,58.82352941,,,,,,,,,,,0.962,1,,,,,,,,,,,,,,,,,,,,,,,,0.68125,0.18875,0,0,0,,,,,,,BAMBOO,HB,z,m,./images/BAMBOOHB.png,,,,,,,,,,,,,,,,,,,,,z,1,0.962,,,,,,,,0,130,130,89,1
,,,,,,,,,,,,,,,,,5cc0de4dbb24d500170593f6,24,2022-02-12_16h08.36.911,lexical_decision_task_DD_L3,2021.2.3,MacIntel,58.82352941,,,,,,,,,,,1.299,1,,,,,,,,,,,,,,,,,,,,,,,,0.68125,0.18875,0,0,0,,,,,,,CHALK,C,z,m,./images/CHALK.png,,,,,,,,,,,,,,,,,,,,,z,1,1.299,,,,,,,,0,131,131,109,1
,,,,,,,,,,,,,,,,,5cc0de4dbb24d500170593f6,24,2022-02-12_16h08.36.911,lexical_decision_task_DD_L3,2021.2.3,MacIntel,58.82352941,,,,,,,,,,,0.639,1,,,,,,,,,,,,,,,,,,,,,,,,0.68125,0.18875,0,0,0,,,,,,,SCREW,LB,m,m,./images/SCREWLB.png,,,,,,,,,,,,,,,,,,,,,m,1,0.639,,,,,,,,0,132,132,24,1
,,,,,,,,,,,,,,,,,5cc0de4dbb24d500170593f6,24,2022-02-12_16h08.36.911,lexical_decision_task_DD_L3,2021.2.3,MacIntel,58.82352941,,,,,,,,,,,0.704,0,,,,,,,,,,,,,,,,,,,,,,,,0.68125,0.18875,0,0,0,,,,,,,POSTER,HB,z,m,./images/POSTERHB.png,,,,,,,,,,,,,,,,,,,,,m,0,0.704,,,,,,,,0,133,133,137,1
,,,,,,,,,,,,,,,,,5cc0de4dbb24d500170593f6,24,2022-02-12_16h08.36.911,lexical_decision_task_DD_L3,2021.2.3,MacIntel,58.82352941,,,,,,,,,,,0.735,1,,,,,,,,,,,,,,,,,,,,,,,,0.68125,0.18875,0,0,0,,,,,,,BOXER,C,z,m,./images/BOXER.png,,,,,,,,,,,,,,,,,,,,,z,1,0.735,,,,,,,,0,134,134,88,1
,,,,,,,,,,,,,,,,,5cc0de4dbb24d500170593f6,24,2022-02-12_16h08.36.911,lexical_decision_task_DD_L3,2021.2.3,MacIntel,58.82352941,,,,,,,,,,,0.751,1,,,,,,,,,,,,,,,,,,,,,,,,0.68125,0.18875,0,0,0,,,,,,,INFANT,C,m,m,./images/INFANT.png,,,,,,,,,,,,,,,,,,,,,m,1,0.751,,,,,,,,0,135,135,76,1
,,,,,,,,,,,,,,,,,5cc0de4dbb24d500170593f6,24,2022-02-12_16h08.36.911,lexical_decision_task_DD_L3,2021.2.3,MacIntel,58.82352941,,,,,,,,,,,0.678,1,,,,,,,,,,,,,,,,,,,,,,,,0.68125,0.18875,0,0,0,,,,,,,MAMMAL,HB,z,m,./images/MAMMALHB.png,,,,,,,,,,,,,,,,,,,,,z,1,0.678,,,,,,,,0,136,136,146,1
,,,,,,,,,,,,,,,,,5cc0de4dbb24d500170593f6,24,2022-02-12_16h08.36.911,lexical_decision_task_DD_L3,2021.2.3,MacIntel,58.82352941,,,,,,,,,,,0.77,1,,,,,,,,,,,,,,,,,,,,,,,,0.68125,0.18875,0,0,0,,,,,,,BISHOP,C,z,m,./images/BISHOP.png,,,,,,,,,,,,,,,,,,,,,z,1,0.77,,,,,,,,0,137,137,133,1
,,,,,,,,,,,,,,,,,5cc0de4dbb24d500170593f6,24,2022-02-12_16h08.36.911,lexical_decision_task_DD_L3,2021.2.3,MacIntel,58.82352941,,,,,,,,,,,0.804,0,,,,,,,,,,,,,,,,,,,,,,,,0.68125,0.18875,0,0,0,,,,,,,PICKLE,HB,m,m,./images/PICKLEHB.png,,,,,,,,,,,,,,,,,,,,,z,0,0.804,,,,,,,,0,138,138,14,1
,,,,,,,,,,,,,,,,,5cc0de4dbb24d500170593f6,24,2022-02-12_16h08.36.911,lexical_decision_task_DD_L3,2021.2.3,MacIntel,58.82352941,,,,,,,,,,,0.805,1,,,,,,,,,,,,,,,,,,,,,,,,0.68125,0.18875,0,0,0,,,,,,,PLANET,HB,z,m,./images/PLANETHB.png,,,,,,,,,,,,,,,,,,,,,z,1,0.805,,,,,,,,0,139,139,164,1
,,,,,,,,,,,,,,,,,5cc0de4dbb24d500170593f6,24,2022-02-12_16h08.36.911,lexical_decision_task_DD_L3,2021.2.3,MacIntel,58.82352941,,,,,,,,,,,0.768,1,,,,,,,,,,,,,,,,,,,,,,,,0.68125,0.18875,0,0,0,,,,,,,QUILL,C,m,m,./images/QUILL.png,,,,,,,,,,,,,,,,,,,,,m,1,0.768,,,,,,,,0,140,140,31,1
,,,,,,,,,,,,,,,,,5cc0de4dbb24d500170593f6,24,2022-02-12_16h08.36.911,lexical_decision_task_DD_L3,2021.2.3,MacIntel,58.82352941,,,,,,,,,,,0.665,1,,,,,,,,,,,,,,,,,,,,,,,,0.68125,0.18875,0,0,0,,,,,,,URINE,C,m,m,./images/URINE.png,,,,,,,,,,,,,,,,,,,,,m,1,0.665,,,,,,,,0,141,141,70,1
