key_resp.keys,instr_done_touch.x,instr_done_touch.y,instr_done_touch.leftButton,instr_done_touch.midButton,instr_done_touch.rightButton,instr_done_touch.clicked_name,instruction_pages.thisRepN,instruction_pages.thisTrialN,instruction_pages.thisN,instruction_pages.thisIndex,instruction_pages.ran,pageN,phase,instruct_text,has_image,instruct_image,participant,age,date,expName,psychopyVersion,OS,frameRate,response.keys,response.corr,touch_resp.x,touch_resp.y,touch_resp.leftButton,touch_resp.midButton,touch_resp.rightButton,touch_resp.time,touch_resp.clicked_name,rt,corr,practrials.thisRepN,practrials.thisTrialN,practrials.thisN,practrials.thisIndex,practrials.ran,TrialID,Target,corrAns,end_of_practice_trials_pages.thisRepN,end_of_practice_trials_pages.thisTrialN,end_of_practice_trials_pages.thisN,end_of_practice_trials_pages.thisIndex,end_of_practice_trials_pages.ran,key_resp_2.keys,key_resp_2.corr,targ_click.x,targ_click.y,targ_click.leftButton,targ_click.midButton,targ_click.rightButton,targ_click.time,targ_click.clicked_name,break_done_touch.x,break_done_touch.y,break_done_touch.leftButton,break_done_touch.midButton,break_done_touch.rightButton,break_done_keyboard.keys,maintrials.thisRepN,maintrials.thisTrialN,maintrials.thisN,maintrials.thisIndex,maintrials.ran,string,blur,study,lex,stim_path,break_done_touch.clicked_name,mouse_2.x,mouse_2.y,mouse_2.leftButton,mouse_2.midButton,mouse_2.rightButton,mouse_2.clicked_name,slider.response,slider.rt,trials.thisRepN,trials.thisTrialN,trials.thisN,trials.thisIndex,trials.ran,test_instructions.thisRepN,test_instructions.thisTrialN,test_instructions.thisN,test_instructions.thisIndex,test_instructions.ran,key_resp.rt,key_resp_3.keys,key_resp_3.corr,test_click.x,test_click.y,test_click.leftButton,test_click.midButton,test_click.rightButton,test_click.time,test_click.clicked_name,test_phase.thisRepN,test_phase.thisTrialN,test_phase.thisN,test_phase.thisIndex,test_phase.ran
,0.06640625,-0.401041667,1,0,0,instr_done_button,0,0,0,0,1,1,instructions,"INSTRUCTIONS
At the start of each trial, look at the plus sign  (+) in the center of the screen.  This tells you that a trial is about to begin and where to look. Second, the plus sign will disappear and a string of letters will appear. Your task is to determine if the string of letters is a word or not. If the item is a word press the M key (on keyboard)  or touch the word button (phone/tablet).  If the item is not a word,  press the  Z key (on keyboard)  or touch the nonword button (on phone/tablet). 
Press the space bar or touch  continue.",0,,5cc8039e3ef93000171c96b8,35,2022-02-12_14h55.17.455,lexical_decision_task_DD_L6,2021.2.3,Win32,60.73120369,,,,,,,,,,,,,,,,,,,,,,,,,,,,,,,,,,,,,,,,,,,,,,,,,,,,,,,,,,,,,,,,,,,,,,,,,,,,,,,,,,,
,0.009114583,-0.3984375,1,0,0,instr_done_button,0,1,1,1,1,2,instructions,"If your device has a keyboard, press the 'Z' key for nonwords and the 'M' key for words.





Press the space bar or touch the button below to continue.",0,keyboard-example.gif,5cc8039e3ef93000171c96b8,35,2022-02-12_14h55.17.455,lexical_decision_task_DD_L6,2021.2.3,Win32,60.73120369,,,,,,,,,,,,,,,,,,,,,,,,,,,,,,,,,,,,,,,,,,,,,,,,,,,,,,,,,,,,,,,,,,,,,,,,,,,,,,,,,,,
,0.0546875,-0.3828125,1,0,0,instr_done_button,0,2,2,2,1,3,instructions,"If you are using a touchscreen only device, use the buttons on the screen. Do not use the mouse.





Press the space bar or touch the button below to continue.",0,touchscreen-example.gif,5cc8039e3ef93000171c96b8,35,2022-02-12_14h55.17.455,lexical_decision_task_DD_L6,2021.2.3,Win32,60.73120369,,,,,,,,,,,,,,,,,,,,,,,,,,,,,,,,,,,,,,,,,,,,,,,,,,,,,,,,,,,,,,,,,,,,,,,,,,,,,,,,,,,
,0.044270833,-0.3984375,1,0,0,instr_done_button,0,3,3,3,1,4,instructions,"It is very important that you respond as quickly and accurately as possible, as each letter string will only be on the screen for two seconds. If you do not respond within this time, the message 'Too slow!' will be displayed and the experiment will progress to the next letter string. The first 20 trials will be practice trials and you will receive feedback on your answers. 

Press the space bar or touch the button below to start the practice trials.",0,,5cc8039e3ef93000171c96b8,35,2022-02-12_14h55.17.455,lexical_decision_task_DD_L6,2021.2.3,Win32,60.73120369,,,,,,,,,,,,,,,,,,,,,,,,,,,,,,,,,,,,,,,,,,,,,,,,,,,,,,,,,,,,,,,,,,,,,,,,,,,,,,,,,,,
,,,,,,,,,,,,,,,,,5cc8039e3ef93000171c96b8,35,2022-02-12_14h55.17.455,lexical_decision_task_DD_L6,2021.2.3,Win32,60.73120369,,0,0.368489583,-0.319010417,1,0,0,1.1515,button_right,1.1515,1,0,0,0,1,1,1001,ADJUST,m,,,,,,,,,,,,,,,,,,,,,,,,,,,,,,,,,,,,,,,,,,,,,,,,,,,,,,,,,,,,,,,,
,,,,,,,,,,,,,,,,,5cc8039e3ef93000171c96b8,35,2022-02-12_14h55.17.455,lexical_decision_task_DD_L6,2021.2.3,Win32,60.73120369,,0,-0.3671875,-0.317708333,1,0,0,0.7985,button_left,0.7985,1,0,1,1,14,1,1001,THRALE,z,,,,,,,,,,,,,,,,,,,,,,,,,,,,,,,,,,,,,,,,,,,,,,,,,,,,,,,,,,,,,,,,
,,,,,,,,,,,,,,,,,5cc8039e3ef93000171c96b8,35,2022-02-12_14h55.17.455,lexical_decision_task_DD_L6,2021.2.3,Win32,60.73120369,,0,0.419270833,-0.287760417,1,0,0,0.5175,button_right,0.5175,1,0,2,2,7,1,1001,VOLUME,m,,,,,,,,,,,,,,,,,,,,,,,,,,,,,,,,,,,,,,,,,,,,,,,,,,,,,,,,,,,,,,,,
,,,,,,,,,,,,,,,,,5cc8039e3ef93000171c96b8,35,2022-02-12_14h55.17.455,lexical_decision_task_DD_L6,2021.2.3,Win32,60.73120369,,0,0.272135417,-0.298177083,1,0,0,0.612900001,button_right,0.612900001,1,0,3,3,2,1,1001,ALMOND,m,,,,,,,,,,,,,,,,,,,,,,,,,,,,,,,,,,,,,,,,,,,,,,,,,,,,,,,,,,,,,,,,
,,,,,,,,,,,,,,,,,5cc8039e3ef93000171c96b8,35,2022-02-12_14h55.17.455,lexical_decision_task_DD_L6,2021.2.3,Win32,60.73120369,,0,0.30078125,-0.29296875,1,0,0,1.078799999,button_right,1.078799999,0,0,4,4,10,1,1001,INLADE,z,,,,,,,,,,,,,,,,,,,,,,,,,,,,,,,,,,,,,,,,,,,,,,,,,,,,,,,,,,,,,,,,
,,,,,,,,,,,,,,,,,5cc8039e3ef93000171c96b8,35,2022-02-12_14h55.17.455,lexical_decision_task_DD_L6,2021.2.3,Win32,60.73120369,,0,-0.360677083,-0.259114583,1,0,0,0.8979,button_left,0.8979,1,0,5,5,8,1,1001,ASLERT,z,,,,,,,,,,,,,,,,,,,,,,,,,,,,,,,,,,,,,,,,,,,,,,,,,,,,,,,,,,,,,,,,
,,,,,,,,,,,,,,,,,5cc8039e3ef93000171c96b8,35,2022-02-12_14h55.17.455,lexical_decision_task_DD_L6,2021.2.3,Win32,60.73120369,,0,-0.36328125,-0.295572917,1,0,0,0.863099999,button_left,0.863099999,1,0,6,6,12,1,1001,SPRINY,z,,,,,,,,,,,,,,,,,,,,,,,,,,,,,,,,,,,,,,,,,,,,,,,,,,,,,,,,,,,,,,,,
,,,,,,,,,,,,,,,,,5cc8039e3ef93000171c96b8,35,2022-02-12_14h55.17.455,lexical_decision_task_DD_L6,2021.2.3,Win32,60.73120369,,0,0.28515625,-0.283854167,1,0,0,0.616,button_right,0.616,1,0,7,7,5,1,1001,OBTAIN,m,,,,,,,,,,,,,,,,,,,,,,,,,,,,,,,,,,,,,,,,,,,,,,,,,,,,,,,,,,,,,,,,
,,,,,,,,,,,,,,,,,5cc8039e3ef93000171c96b8,35,2022-02-12_14h55.17.455,lexical_decision_task_DD_L6,2021.2.3,Win32,60.73120369,,0,0.286458333,-0.278645833,1,0,0,0.6835,button_right,0.6835,1,0,8,8,0,1,1001,UTOPIA,m,,,,,,,,,,,,,,,,,,,,,,,,,,,,,,,,,,,,,,,,,,,,,,,,,,,,,,,,,,,,,,,,
,,,,,,,,,,,,,,,,,5cc8039e3ef93000171c96b8,35,2022-02-12_14h55.17.455,lexical_decision_task_DD_L6,2021.2.3,Win32,60.73120369,,0,-0.391927083,-0.305989583,1,0,0,0.682900001,button_left,0.682900001,1,0,9,9,15,1,1001,WHAISE,z,,,,,,,,,,,,,,,,,,,,,,,,,,,,,,,,,,,,,,,,,,,,,,,,,,,,,,,,,,,,,,,,
,,,,,,,,,,,,,,,,,5cc8039e3ef93000171c96b8,35,2022-02-12_14h55.17.455,lexical_decision_task_DD_L6,2021.2.3,Win32,60.73120369,,0,-0.322916667,-0.29296875,1,0,0,0.6957,button_left,0.6957,1,0,10,10,11,1,1001,RASHET,z,,,,,,,,,,,,,,,,,,,,,,,,,,,,,,,,,,,,,,,,,,,,,,,,,,,,,,,,,,,,,,,,
,,,,,,,,,,,,,,,,,5cc8039e3ef93000171c96b8,35,2022-02-12_14h55.17.455,lexical_decision_task_DD_L6,2021.2.3,Win32,60.73120369,,0,0.360677083,-0.298177083,1,0,0,0.611599999,button_right,0.611599999,1,0,11,11,4,1,1001,SQUEAK,m,,,,,,,,,,,,,,,,,,,,,,,,,,,,,,,,,,,,,,,,,,,,,,,,,,,,,,,,,,,,,,,,
,,,,,,,,,,,,,,,,,5cc8039e3ef93000171c96b8,35,2022-02-12_14h55.17.455,lexical_decision_task_DD_L6,2021.2.3,Win32,60.73120369,,0,0.268229167,-0.291666667,1,0,0,0.577,button_right,0.577,1,0,12,12,3,1,1001,MATRIX,m,,,,,,,,,,,,,,,,,,,,,,,,,,,,,,,,,,,,,,,,,,,,,,,,,,,,,,,,,,,,,,,,
,,,,,,,,,,,,,,,,,5cc8039e3ef93000171c96b8,35,2022-02-12_14h55.17.455,lexical_decision_task_DD_L6,2021.2.3,Win32,60.73120369,,0,-0.296875,-0.298177083,1,0,0,0.829599999,button_left,0.829599999,1,0,13,13,9,1,1001,FARINY,z,,,,,,,,,,,,,,,,,,,,,,,,,,,,,,,,,,,,,,,,,,,,,,,,,,,,,,,,,,,,,,,,
,,,,,,,,,,,,,,,,,5cc8039e3ef93000171c96b8,35,2022-02-12_14h55.17.455,lexical_decision_task_DD_L6,2021.2.3,Win32,60.73120369,,0,-0.256510417,-0.309895833,1,0,0,0.6506,button_left,0.6506,1,0,14,14,13,1,1001,ROUPET,z,,,,,,,,,,,,,,,,,,,,,,,,,,,,,,,,,,,,,,,,,,,,,,,,,,,,,,,,,,,,,,,,
,,,,,,,,,,,,,,,,,5cc8039e3ef93000171c96b8,35,2022-02-12_14h55.17.455,lexical_decision_task_DD_L6,2021.2.3,Win32,60.73120369,,0,0.311197917,-0.309895833,1,0,0,0.5306,button_right,0.5306,1,0,15,15,6,1,1001,ZOMBIE,m,,,,,,,,,,,,,,,,,,,,,,,,,,,,,,,,,,,,,,,,,,,,,,,,,,,,,,,,,,,,,,,,
,0.028645833,-0.40234375,1,0,0,instr_done_button,,,,,,1,end_of_practice,"You have completed the practice trials. During the experimental trials, you will not receive feedback. 
Before you begin, please ensure that you are in a comfortable and quiet location and will not be disturbed for about 15 minutes, as we cannot use your data if you do not complete all the trials. 
 When you are ready to start the experimental trials, please press space or touch the button below.",,,5cc8039e3ef93000171c96b8,35,2022-02-12_14h55.17.455,lexical_decision_task_DD_L6,2021.2.3,Win32,60.73120369,,,,,,,,,,,,,,,,,,,,0,0,0,0,1,,,,,,,,,,,,,,,,,,,,,,,,,,,,,,,,,,,,,,,,,,,,,,,,,,,,,,,,,,,
,,,,,,,,,,,,,,,,,5cc8039e3ef93000171c96b8,35,2022-02-12_14h55.17.455,lexical_decision_task_DD_L6,2021.2.3,Win32,60.73120369,,,,,,,,,,0.767,1,,,,,,,,,,,,,,,0,0.328125,-0.303385417,1,0,0,0.767,button_right_main,0.328125,-0.303385417,1,0,0,,0,0,0,35,1,LLAMA,HB,m,m,./images/LLAMAHB.png,,,,,,,,,,,,,,,,,,,,,,,,,,,,,,,,,,
,,,,,,,,,,,,,,,,,5cc8039e3ef93000171c96b8,35,2022-02-12_14h55.17.455,lexical_decision_task_DD_L6,2021.2.3,Win32,60.73120369,,,,,,,,,,0.7175,1,,,,,,,,,,,,,,,0,-0.338541667,-0.3203125,1,0,0,0.7175,button_left_main,-0.338541667,-0.3203125,1,0,0,,0,1,1,96,1,KEAMS,C,z,z,./images/KEAMS.png,,,,,,,,,,,,,,,,,,,,,,,,,,,,,,,,,,
,,,,,,,,,,,,,,,,,5cc8039e3ef93000171c96b8,35,2022-02-12_14h55.17.455,lexical_decision_task_DD_L6,2021.2.3,Win32,60.73120369,,,,,,,,,,0.9622,1,,,,,,,,,,,,,,,0,-0.384114583,-0.2890625,1,0,0,0.9622,button_left_main,-0.384114583,-0.2890625,1,0,0,,0,2,2,137,1,JOOST,LB,z,z,./images/JOOSTLB.png,,,,,,,,,,,,,,,,,,,,,,,,,,,,,,,,,,
,,,,,,,,,,,,,,,,,5cc8039e3ef93000171c96b8,35,2022-02-12_14h55.17.455,lexical_decision_task_DD_L6,2021.2.3,Win32,60.73120369,,,,,,,,,,0.7334,1,,,,,,,,,,,,,,,0,-0.389322917,-0.303385417,1,0,0,0.7334,button_left_main,-0.389322917,-0.303385417,1,0,0,,0,3,3,122,1,BLOOT,LB,z,z,./images/BLOOTLB.png,,,,,,,,,,,,,,,,,,,,,,,,,,,,,,,,,,
,,,,,,,,,,,,,,,,,5cc8039e3ef93000171c96b8,35,2022-02-12_14h55.17.455,lexical_decision_task_DD_L6,2021.2.3,Win32,60.73120369,,,,,,,,,,0.5487,1,,,,,,,,,,,,,,,0,0.34375,-0.325520833,1,0,0,0.5487,button_right_main,0.34375,-0.325520833,1,0,0,,0,4,4,7,1,WAGON,C,m,m,./images/WAGON.png,,,,,,,,,,,,,,,,,,,,,,,,,,,,,,,,,,
,,,,,,,,,,,,,,,,,5cc8039e3ef93000171c96b8,35,2022-02-12_14h55.17.455,lexical_decision_task_DD_L6,2021.2.3,Win32,60.73120369,,,,,,,,,,0.6632,1,,,,,,,,,,,,,,,0,-0.390625,-0.30078125,1,0,0,0.6632,button_left_main,-0.390625,-0.30078125,1,0,0,,0,5,5,90,1,NEAST,C,z,z,./images/NEAST.png,,,,,,,,,,,,,,,,,,,,,,,,,,,,,,,,,,
,,,,,,,,,,,,,,,,,5cc8039e3ef93000171c96b8,35,2022-02-12_14h55.17.455,lexical_decision_task_DD_L6,2021.2.3,Win32,60.73120369,,,,,,,,,,0.549,1,,,,,,,,,,,,,,,0,0.34765625,-0.328125,1,0,0,0.549,button_right_main,0.34765625,-0.328125,1,0,0,,0,6,6,34,1,RAZOR,C,m,m,./images/RAZOR.png,,,,,,,,,,,,,,,,,,,,,,,,,,,,,,,,,,
,,,,,,,,,,,,,,,,,5cc8039e3ef93000171c96b8,35,2022-02-12_14h55.17.455,lexical_decision_task_DD_L6,2021.2.3,Win32,60.73120369,,,,,,,,,,0.8162,1,,,,,,,,,,,,,,,0,0.213541667,-0.325520833,1,0,0,0.8162,button_right_main,0.213541667,-0.325520833,1,0,0,,0,7,7,47,1,LAGOON,HB,m,m,./images/LAGOONHB.png,,,,,,,,,,,,,,,,,,,,,,,,,,,,,,,,,,
,,,,,,,,,,,,,,,,,5cc8039e3ef93000171c96b8,35,2022-02-12_14h55.17.455,lexical_decision_task_DD_L6,2021.2.3,Win32,60.73120369,,,,,,,,,,1.1672,0,,,,,,,,,,,,,,,0,0.098958333,-0.28125,1,0,0,1.1672,button_right_main,0.34375,-0.303385417,1,0,0,,0,8,8,130,1,CRILL,HB,z,z,./images/CRILLHB.png,,,,,,,,,,,,,,,,,,,,,,,,,,,,,,,,,,
,,,,,,,,,,,,,,,,,5cc8039e3ef93000171c96b8,35,2022-02-12_14h55.17.455,lexical_decision_task_DD_L6,2021.2.3,Win32,60.73120369,,,,,,,,,,0.563799999,1,,,,,,,,,,,,,,,0,0.295572917,-0.31640625,1,0,0,0.563799999,button_right_main,0.295572917,-0.31640625,1,0,0,,0,9,9,21,1,DANCER,LB,m,m,./images/DANCERLB.png,,,,,,,,,,,,,,,,,,,,,,,,,,,,,,,,,,
,,,,,,,,,,,,,,,,,5cc8039e3ef93000171c96b8,35,2022-02-12_14h55.17.455,lexical_decision_task_DD_L6,2021.2.3,Win32,60.73120369,,,,,,,,,,1.1687,1,,,,,,,,,,,,,,,0,-0.291666667,-0.299479167,1,0,0,1.1687,button_left_main,-0.291666667,-0.299479167,1,0,0,,0,10,10,164,1,SGREW,LB,z,z,./images/SGREWLB.png,,,,,,,,,,,,,,,,,,,,,,,,,,,,,,,,,,
,,,,,,,,,,,,,,,,,5cc8039e3ef93000171c96b8,35,2022-02-12_14h55.17.455,lexical_decision_task_DD_L6,2021.2.3,Win32,60.73120369,,,,,,,,,,0.614599999,1,,,,,,,,,,,,,,,0,0.381510417,-0.272135417,1,0,0,0.614599999,button_right_main,0.381510417,-0.272135417,1,0,0,,0,11,11,48,1,SHIELD,LB,m,m,./images/SHIELDLB.png,,,,,,,,,,,,,,,,,,,,,,,,,,,,,,,,,,
,,,,,,,,,,,,,,,,,5cc8039e3ef93000171c96b8,35,2022-02-12_14h55.17.455,lexical_decision_task_DD_L6,2021.2.3,Win32,60.73120369,,,,,,,,,,1.005799999,1,,,,,,,,,,,,,,,0,-0.313802083,-0.307291667,1,0,0,1.005799999,button_left_main,-0.313802083,-0.307291667,1,0,0,,0,12,12,139,1,BLEAR,HB,z,z,./images/BLEARHB.png,,,,,,,,,,,,,,,,,,,,,,,,,,,,,,,,,,
,,,,,,,,,,,,,,,,,5cc8039e3ef93000171c96b8,35,2022-02-12_14h55.17.455,lexical_decision_task_DD_L6,2021.2.3,Win32,60.73120369,,,,,,,,,,0.598799999,1,,,,,,,,,,,,,,,0,0.240885417,-0.30078125,1,0,0,0.598799999,button_right_main,0.240885417,-0.30078125,1,0,0,,0,13,13,76,1,MIDGET,C,m,m,./images/MIDGET.png,,,,,,,,,,,,,,,,,,,,,,,,,,,,,,,,,,
,,,,,,,,,,,,,,,,,5cc8039e3ef93000171c96b8,35,2022-02-12_14h55.17.455,lexical_decision_task_DD_L6,2021.2.3,Win32,60.73120369,,,,,,,,,,0.6635,0,,,,,,,,,,,,,,,0,0.298177083,-0.290364583,1,0,0,0.6635,button_right_main,0.298177083,-0.290364583,1,0,0,,0,14,14,100,1,DRIBS,HB,z,z,./images/DRIBSHB.png,,,,,,,,,,,,,,,,,,,,,,,,,,,,,,,,,,
,,,,,,,,,,,,,,,,,5cc8039e3ef93000171c96b8,35,2022-02-12_14h55.17.455,lexical_decision_task_DD_L6,2021.2.3,Win32,60.73120369,,,,,,,,,,0.7633,1,,,,,,,,,,,,,,,0,-0.309895833,-0.290364583,1,0,0,0.7633,button_left_main,-0.309895833,-0.290364583,1,0,0,,0,15,15,152,1,FRAIN,LB,z,z,./images/FRAINLB.png,,,,,,,,,,,,,,,,,,,,,,,,,,,,,,,,,,
,,,,,,,,,,,,,,,,,5cc8039e3ef93000171c96b8,35,2022-02-12_14h55.17.455,lexical_decision_task_DD_L6,2021.2.3,Win32,60.73120369,,,,,,,,,,0.7025,1,,,,,,,,,,,,,,,0,-0.29296875,-0.266927083,1,0,0,0.7025,button_left_main,-0.29296875,-0.266927083,1,0,0,,0,16,16,159,1,CUDDY,C,z,z,./images/CUDDY.png,,,,,,,,,,,,,,,,,,,,,,,,,,,,,,,,,,
,,,,,,,,,,,,,,,,,5cc8039e3ef93000171c96b8,35,2022-02-12_14h55.17.455,lexical_decision_task_DD_L6,2021.2.3,Win32,60.73120369,,,,,,,,,,0.6344,1,,,,,,,,,,,,,,,0,0.21484375,-0.265625,1,0,0,0.6344,button_right_main,0.21484375,-0.265625,1,0,0,,0,17,17,54,1,CHERRY,LB,m,m,./images/CHERRYLB.png,,,,,,,,,,,,,,,,,,,,,,,,,,,,,,,,,,
,,,,,,,,,,,,,,,,,5cc8039e3ef93000171c96b8,35,2022-02-12_14h55.17.455,lexical_decision_task_DD_L6,2021.2.3,Win32,60.73120369,,,,,,,,,,0.6152,1,,,,,,,,,,,,,,,0,-0.272135417,-0.266927083,1,0,0,0.6152,button_left_main,-0.272135417,-0.266927083,1,0,0,,0,18,18,93,1,SMONE,C,z,z,./images/SMONE.png,,,,,,,,,,,,,,,,,,,,,,,,,,,,,,,,,,
,,,,,,,,,,,,,,,,,5cc8039e3ef93000171c96b8,35,2022-02-12_14h55.17.455,lexical_decision_task_DD_L6,2021.2.3,Win32,60.73120369,,,,,,,,,,0.5995,1,,,,,,,,,,,,,,,0,0.4375,-0.294270833,1,0,0,0.5995,button_right_main,0.4375,-0.294270833,1,0,0,,0,19,19,25,1,CHALK,C,m,m,./images/CHALK.png,,,,,,,,,,,,,,,,,,,,,,,,,,,,,,,,,,
,,,,,,,,,,,,,,,,,5cc8039e3ef93000171c96b8,35,2022-02-12_14h55.17.455,lexical_decision_task_DD_L6,2021.2.3,Win32,60.73120369,,,,,,,,,,0.649900001,1,,,,,,,,,,,,,,,0,-0.31640625,-0.28515625,1,0,0,0.649900001,button_left_main,-0.31640625,-0.28515625,1,0,0,,0,20,20,165,1,TROWN,C,z,z,./images/TROWN.png,,,,,,,,,,,,,,,,,,,,,,,,,,,,,,,,,,
,,,,,,,,,,,,,,,,,5cc8039e3ef93000171c96b8,35,2022-02-12_14h55.17.455,lexical_decision_task_DD_L6,2021.2.3,Win32,60.73120369,,,,,,,,,,0.8168,1,,,,,,,,,,,,,,,0,0.341145833,-0.270833333,1,0,0,0.8168,button_right_main,0.341145833,-0.270833333,1,0,0,,0,21,21,82,1,PEBBLE,C,m,m,./images/PEBBLE.png,,,,,,,,,,,,,,,,,,,,,,,,,,,,,,,,,,
,,,,,,,,,,,,,,,,,5cc8039e3ef93000171c96b8,35,2022-02-12_14h55.17.455,lexical_decision_task_DD_L6,2021.2.3,Win32,60.73120369,,,,,,,,,,0.649599999,1,,,,,,,,,,,,,,,0,0.274739583,-0.279947917,1,0,0,0.649599999,button_right_main,0.274739583,-0.279947917,1,0,0,,0,22,22,81,1,DRILL,LB,m,m,./images/DRILLLB.png,,,,,,,,,,,,,,,,,,,,,,,,,,,,,,,,,,
,,,,,,,,,,,,,,,,,5cc8039e3ef93000171c96b8,35,2022-02-12_14h55.17.455,lexical_decision_task_DD_L6,2021.2.3,Win32,60.73120369,,,,,,,,,,0.5903,1,,,,,,,,,,,,,,,0,0.360677083,-0.276041667,1,0,0,0.5903,button_right_main,0.360677083,-0.276041667,1,0,0,,0,23,23,70,1,BANANA,C,m,m,./images/BANANA.png,,,,,,,,,,,,,,,,,,,,,,,,,,,,,,,,,,
,,,,,,,,,,,,,,,,,5cc8039e3ef93000171c96b8,35,2022-02-12_14h55.17.455,lexical_decision_task_DD_L6,2021.2.3,Win32,60.73120369,,,,,,,,,,0.6852,1,,,,,,,,,,,,,,,0,0.24609375,-0.272135417,1,0,0,0.6852,button_right_main,0.24609375,-0.272135417,1,0,0,,0,24,24,55,1,ALLEY,C,m,m,./images/ALLEY.png,,,,,,,,,,,,,,,,,,,,,,,,,,,,,,,,,,
,,,,,,,,,,,,,,,,,5cc8039e3ef93000171c96b8,35,2022-02-12_14h55.17.455,lexical_decision_task_DD_L6,2021.2.3,Win32,60.73120369,,,,,,,,,,0.7753,1,,,,,,,,,,,,,,,0,-0.282552083,-0.27734375,1,0,0,0.7753,button_left_main,-0.282552083,-0.27734375,1,0,0,,0,25,25,118,1,BAVEL,HB,z,z,./images/BAVELHB.png,,,,,,,,,,,,,,,,,,,,,,,,,,,,,,,,,,
,,,,,,,,,,,,,,,,,5cc8039e3ef93000171c96b8,35,2022-02-12_14h55.17.455,lexical_decision_task_DD_L6,2021.2.3,Win32,60.73120369,,,,,,,,,,0.704599999,1,,,,,,,,,,,,,,,0,-0.28125,-0.272135417,1,0,0,0.704599999,button_left_main,-0.28125,-0.272135417,1,0,0,,0,26,26,105,1,MOKER,C,z,z,./images/MOKER.png,,,,,,,,,,,,,,,,,,,,,,,,,,,,,,,,,,
,,,,,,,,,,,,,,,,,5cc8039e3ef93000171c96b8,35,2022-02-12_14h55.17.455,lexical_decision_task_DD_L6,2021.2.3,Win32,60.73120369,,,,,,,,,,0.6653,1,,,,,,,,,,,,,,,0,-0.33984375,-0.252604167,1,0,0,0.6653,button_left_main,-0.33984375,-0.252604167,1,0,0,,0,27,27,95,1,HANTY,LB,z,z,./images/HANTYLB.png,,,,,,,,,,,,,,,,,,,,,,,,,,,,,,,,,,
,,,,,,,,,,,,,,,,,5cc8039e3ef93000171c96b8,35,2022-02-12_14h55.17.455,lexical_decision_task_DD_L6,2021.2.3,Win32,60.73120369,,,,,,,,,,0.798400001,1,,,,,,,,,,,,,,,0,-0.28125,-0.26953125,1,0,0,0.798400001,button_left_main,-0.28125,-0.26953125,1,0,0,,0,28,28,85,1,CHULK,HB,z,z,./images/CHULKHB.png,,,,,,,,,,,,,,,,,,,,,,,,,,,,,,,,,,
,,,,,,,,,,,,,,,,,5cc8039e3ef93000171c96b8,35,2022-02-12_14h55.17.455,lexical_decision_task_DD_L6,2021.2.3,Win32,60.73120369,,,,,,,,,,0.5674,1,,,,,,,,,,,,,,,0,0.217447917,-0.283854167,1,0,0,0.5674,button_right_main,0.217447917,-0.283854167,1,0,0,,0,29,29,73,1,GLOVE,C,m,m,./images/GLOVE.png,,,,,,,,,,,,,,,,,,,,,,,,,,,,,,,,,,
,,,,,,,,,,,,,,,,,5cc8039e3ef93000171c96b8,35,2022-02-12_14h55.17.455,lexical_decision_task_DD_L6,2021.2.3,Win32,60.73120369,,,,,,,,,,1.0319,0,,,,,,,,,,,,,,,0,-0.333333333,-0.2890625,1,0,0,1.0319,button_left_main,-0.333333333,-0.2890625,1,0,0,,0,30,30,56,1,HEATER,HB,m,m,./images/HEATERHB.png,,,,,,,,,,,,,,,,,,,,,,,,,,,,,,,,,,
,,,,,,,,,,,,,,,,,5cc8039e3ef93000171c96b8,35,2022-02-12_14h55.17.455,lexical_decision_task_DD_L6,2021.2.3,Win32,60.73120369,,,,,,,,,,0.568599999,1,,,,,,,,,,,,,,,0,0.325520833,-0.251302083,1,0,0,0.568599999,button_right_main,0.325520833,-0.251302083,1,0,0,,0,31,31,75,1,HAMMER,LB,m,m,./images/HAMMERLB.png,,,,,,,,,,,,,,,,,,,,,,,,,,,,,,,,,,
,,,,,,,,,,,,,,,,,5cc8039e3ef93000171c96b8,35,2022-02-12_14h55.17.455,lexical_decision_task_DD_L6,2021.2.3,Win32,60.73120369,,,,,,,,,,0.5823,1,,,,,,,,,,,,,,,0,-0.265625,-0.2265625,1,0,0,0.5823,button_left_main,-0.265625,-0.2265625,1,0,0,,0,32,32,135,1,JOODY,C,z,z,./images/JOODY.png,,,,,,,,,,,,,,,,,,,,,,,,,,,,,,,,,,
,,,,,,,,,,,,,,,,,5cc8039e3ef93000171c96b8,35,2022-02-12_14h55.17.455,lexical_decision_task_DD_L6,2021.2.3,Win32,60.73120369,,,,,,,,,,0.715,1,,,,,,,,,,,,,,,0,-0.28515625,-0.26171875,1,0,0,0.715,button_left_main,-0.28515625,-0.26171875,1,0,0,,0,33,33,151,1,TINKY,HB,z,z,./images/TINKYHB.png,,,,,,,,,,,,,,,,,,,,,,,,,,,,,,,,,,
,,,,,,,,,,,,,,,,,5cc8039e3ef93000171c96b8,35,2022-02-12_14h55.17.455,lexical_decision_task_DD_L6,2021.2.3,Win32,60.73120369,,,,,,,,,,0.4849,1,,,,,,,,,,,,,,,0,0.2109375,-0.256510417,1,0,0,0.4849,button_right_main,0.2109375,-0.256510417,1,0,0,,0,34,34,40,1,SNAKE,C,m,m,./images/SNAKE.png,,,,,,,,,,,,,,,,,,,,,,,,,,,,,,,,,,
,,,,,,,,,,,,,,,,,5cc8039e3ef93000171c96b8,35,2022-02-12_14h55.17.455,lexical_decision_task_DD_L6,2021.2.3,Win32,60.73120369,,,,,,,,,,0.783599999,1,,,,,,,,,,,,,,,0,-0.240885417,-0.2734375,1,0,0,0.783599999,button_left_main,-0.240885417,-0.2734375,1,0,0,,0,35,35,161,1,BLAPS,LB,z,z,./images/BLAPSLB.png,,,,,,,,,,,,,,,,,,,,,,,,,,,,,,,,,,
,,,,,,,,,,,,,,,,,5cc8039e3ef93000171c96b8,35,2022-02-12_14h55.17.455,lexical_decision_task_DD_L6,2021.2.3,Win32,60.73120369,,,,,,,,,,0.6421,1,,,,,,,,,,,,,,,0,-0.322916667,-0.274739583,1,0,0,0.6421,button_left_main,-0.322916667,-0.274739583,1,0,0,,0,36,36,147,1,ZOLES,C,z,z,./images/ZOLES.png,,,,,,,,,,,,,,,,,,,,,,,,,,,,,,,,,,
,,,,,,,,,,,,,,,,,5cc8039e3ef93000171c96b8,35,2022-02-12_14h55.17.455,lexical_decision_task_DD_L6,2021.2.3,Win32,60.73120369,,,,,,,,,,0.7196,1,,,,,,,,,,,,,,,0,-0.1953125,-0.223958333,1,0,0,0.7196,button_left_main,-0.41015625,-0.296875,1,0,0,,0,37,37,101,1,GLEET,LB,z,z,./images/GLEETLB.png,,,,,,,,,,,,,,,,,,,,,,,,,,,,,,,,,,
,,,,,,,,,,,,,,,,,5cc8039e3ef93000171c96b8,35,2022-02-12_14h55.17.455,lexical_decision_task_DD_L6,2021.2.3,Win32,60.73120369,,,,,,,,,,0.759900001,1,,,,,,,,,,,,,,,0,-0.32421875,-0.2578125,1,0,0,0.759900001,button_left_main,-0.32421875,-0.2578125,1,0,0,,0,38,38,110,1,CRUNK,LB,z,z,./images/CRUNKLB.png,,,,,,,,,,,,,,,,,,,,,,,,,,,,,,,,,,
,,,,,,,,,,,,,,,,,5cc8039e3ef93000171c96b8,35,2022-02-12_14h55.17.455,lexical_decision_task_DD_L6,2021.2.3,Win32,60.73120369,,,,,,,,,,0.743599999,1,,,,,,,,,,,,,,,0,0.247395833,-0.23828125,1,0,0,0.743599999,button_right_main,0.247395833,-0.23828125,1,0,0,,0,39,39,42,1,CHAIN,LB,m,m,./images/CHAINLB.png,,,,,,,,,,,,,,,,,,,,,,,,,,,,,,,,,,
,,,,,,,,,,,,,,,,,5cc8039e3ef93000171c96b8,35,2022-02-12_14h55.17.455,lexical_decision_task_DD_L6,2021.2.3,Win32,60.73120369,,,,,,,,,,0.6188,1,,,,,,,,,,,,,,,0,0.223958333,-0.248697917,1,0,0,0.6188,button_right_main,0.223958333,-0.248697917,1,0,0,,0,40,40,37,1,TIGER,C,m,m,./images/TIGER.png,,,,,,,,,,,,,,,,,,,,,,,,,,,,,,,,,,
,,,,,,,,,,,,,,,,,5cc8039e3ef93000171c96b8,35,2022-02-12_14h55.17.455,lexical_decision_task_DD_L6,2021.2.3,Win32,60.73120369,,,,,,,,,,0.7318,1,,,,,,,,,,,,,,,0,-0.283854167,-0.266927083,1,0,0,0.7318,button_left_main,0.01953125,-0.377604167,1,0,0,,0,41,41,140,1,DOVET,LB,z,z,./images/DOVETLB.png,break_done_button,,,,,,,,,,,,,,,,,,,,,,,,,,,,,,,,,
,,,,,,,,,,,,,,,,,5cc8039e3ef93000171c96b8,35,2022-02-12_14h55.17.455,lexical_decision_task_DD_L6,2021.2.3,Win32,60.73120369,,,,,,,,,,0.6295,1,,,,,,,,,,,,,,,0,0.26171875,-0.248697917,1,0,0,0.6295,button_right_main,0.26171875,-0.248697917,1,0,0,,0,42,42,18,1,PARCEL,LB,m,m,./images/PARCELLB.png,,,,,,,,,,,,,,,,,,,,,,,,,,,,,,,,,,
,,,,,,,,,,,,,,,,,5cc8039e3ef93000171c96b8,35,2022-02-12_14h55.17.455,lexical_decision_task_DD_L6,2021.2.3,Win32,60.73120369,,,,,,,,,,0.595,1,,,,,,,,,,,,,,,0,-0.29296875,-0.299479167,1,0,0,0.595,button_left_main,-0.29296875,-0.299479167,1,0,0,,0,43,43,116,1,BALGY,LB,z,z,./images/BALGYLB.png,,,,,,,,,,,,,,,,,,,,,,,,,,,,,,,,,,
,,,,,,,,,,,,,,,,,5cc8039e3ef93000171c96b8,35,2022-02-12_14h55.17.455,lexical_decision_task_DD_L6,2021.2.3,Win32,60.73120369,,,,,,,,,,0.6828,1,,,,,,,,,,,,,,,0,-0.23828125,-0.294270833,1,0,0,0.6828,button_left_main,-0.23828125,-0.294270833,1,0,0,,0,44,44,150,1,NOOLS,C,z,z,./images/NOOLS.png,,,,,,,,,,,,,,,,,,,,,,,,,,,,,,,,,,
,,,,,,,,,,,,,,,,,5cc8039e3ef93000171c96b8,35,2022-02-12_14h55.17.455,lexical_decision_task_DD_L6,2021.2.3,Win32,60.73120369,,,,,,,,,,0.7476,0,,,,,,,,,,,,,,,0,-0.25,-0.299479167,1,0,0,0.7476,button_left_main,-0.25,-0.299479167,1,0,0,,0,45,45,20,1,GRANNY,HB,m,m,./images/GRANNYHB.png,,,,,,,,,,,,,,,,,,,,,,,,,,,,,,,,,,
,,,,,,,,,,,,,,,,,5cc8039e3ef93000171c96b8,35,2022-02-12_14h55.17.455,lexical_decision_task_DD_L6,2021.2.3,Win32,60.73120369,,,,,,,,,,0.5817,1,,,,,,,,,,,,,,,0,0.360677083,-0.30078125,1,0,0,0.5817,button_right_main,0.360677083,-0.30078125,1,0,0,,0,46,46,45,1,MONKEY,LB,m,m,./images/MONKEYLB.png,,,,,,,,,,,,,,,,,,,,,,,,,,,,,,,,,,
,,,,,,,,,,,,,,,,,5cc8039e3ef93000171c96b8,35,2022-02-12_14h55.17.455,lexical_decision_task_DD_L6,2021.2.3,Win32,60.73120369,,,,,,,,,,0.7814,1,,,,,,,,,,,,,,,0,-0.346354167,-0.30078125,1,0,0,0.7814,button_left_main,-0.346354167,-0.30078125,1,0,0,,0,47,47,91,1,SHENS,HB,z,z,./images/SHENSHB.png,,,,,,,,,,,,,,,,,,,,,,,,,,,,,,,,,,
,,,,,,,,,,,,,,,,,5cc8039e3ef93000171c96b8,35,2022-02-12_14h55.17.455,lexical_decision_task_DD_L6,2021.2.3,Win32,60.73120369,,,,,,,,,,0.5972,1,,,,,,,,,,,,,,,0,-0.205729167,-0.3046875,1,0,0,0.5972,button_left_main,-0.205729167,-0.3046875,1,0,0,,0,48,48,108,1,GRUET,C,z,z,./images/GRUET.png,,,,,,,,,,,,,,,,,,,,,,,,,,,,,,,,,,
,,,,,,,,,,,,,,,,,5cc8039e3ef93000171c96b8,35,2022-02-12_14h55.17.455,lexical_decision_task_DD_L6,2021.2.3,Win32,60.73120369,,,,,,,,,,0.6167,1,,,,,,,,,,,,,,,0,-0.290364583,-0.3046875,1,0,0,0.6167,button_left_main,-0.290364583,-0.3046875,1,0,0,,0,49,49,167,1,ZONET,LB,z,z,./images/ZONETLB.png,,,,,,,,,,,,,,,,,,,,,,,,,,,,,,,,,,
,,,,,,,,,,,,,,,,,5cc8039e3ef93000171c96b8,35,2022-02-12_14h55.17.455,lexical_decision_task_DD_L6,2021.2.3,Win32,60.73120369,,,,,,,,,,0.984099999,1,,,,,,,,,,,,,,,0,-0.298177083,-0.295572917,1,0,0,0.984099999,button_left_main,-0.298177083,-0.295572917,1,0,0,,0,50,50,112,1,MYING,HB,z,z,./images/MYINGHB.png,,,,,,,,,,,,,,,,,,,,,,,,,,,,,,,,,,
,,,,,,,,,,,,,,,,,5cc8039e3ef93000171c96b8,35,2022-02-12_14h55.17.455,lexical_decision_task_DD_L6,2021.2.3,Win32,60.73120369,,,,,,,,,,0.6672,1,,,,,,,,,,,,,,,0,-0.40625,-0.286458333,1,0,0,0.6672,button_left_main,-0.40625,-0.286458333,1,0,0,,0,51,51,120,1,RINED,C,z,z,./images/RINED.png,,,,,,,,,,,,,,,,,,,,,,,,,,,,,,,,,,
,,,,,,,,,,,,,,,,,5cc8039e3ef93000171c96b8,35,2022-02-12_14h55.17.455,lexical_decision_task_DD_L6,2021.2.3,Win32,60.73120369,,,,,,,,,,0.57,1,,,,,,,,,,,,,,,0,0.326822917,-0.23046875,1,0,0,0.57,button_right_main,0.326822917,-0.23046875,1,0,0,,0,52,52,10,1,GARDEN,C,m,m,./images/GARDEN.png,,,,,,,,,,,,,,,,,,,,,,,,,,,,,,,,,,
,,,,,,,,,,,,,,,,,5cc8039e3ef93000171c96b8,35,2022-02-12_14h55.17.455,lexical_decision_task_DD_L6,2021.2.3,Win32,60.73120369,,,,,,,,,,0.5821,1,,,,,,,,,,,,,,,0,0.208333333,-0.233072917,1,0,0,0.5821,button_right_main,0.208333333,-0.233072917,1,0,0,,0,53,53,28,1,CASINO,C,m,m,./images/CASINO.png,,,,,,,,,,,,,,,,,,,,,,,,,,,,,,,,,,
,,,,,,,,,,,,,,,,,5cc8039e3ef93000171c96b8,35,2022-02-12_14h55.17.455,lexical_decision_task_DD_L6,2021.2.3,Win32,60.73120369,,,,,,,,,,0.5302,1,,,,,,,,,,,,,,,0,0.31640625,-0.260416667,1,0,0,0.5302,button_right_main,0.31640625,-0.260416667,1,0,0,,0,54,54,22,1,CLOWN,C,m,m,./images/CLOWN.png,,,,,,,,,,,,,,,,,,,,,,,,,,,,,,,,,,
,,,,,,,,,,,,,,,,,5cc8039e3ef93000171c96b8,35,2022-02-12_14h55.17.455,lexical_decision_task_DD_L6,2021.2.3,Win32,60.73120369,,,,,,,,,,0.596,1,,,,,,,,,,,,,,,0,0.334635417,-0.274739583,1,0,0,0.596,button_right_main,0.334635417,-0.274739583,1,0,0,,0,55,55,60,1,CURRY,LB,m,m,./images/CURRYLB.png,,,,,,,,,,,,,,,,,,,,,,,,,,,,,,,,,,
,,,,,,,,,,,,,,,,,5cc8039e3ef93000171c96b8,35,2022-02-12_14h55.17.455,lexical_decision_task_DD_L6,2021.2.3,Win32,60.73120369,,,,,,,,,,0.587,1,,,,,,,,,,,,,,,0,-0.203125,-0.278645833,1,0,0,0.587,button_left_main,-0.203125,-0.278645833,1,0,0,,0,56,56,144,1,NAIRY,C,z,z,./images/NAIRY.png,,,,,,,,,,,,,,,,,,,,,,,,,,,,,,,,,,
,,,,,,,,,,,,,,,,,5cc8039e3ef93000171c96b8,35,2022-02-12_14h55.17.455,lexical_decision_task_DD_L6,2021.2.3,Win32,60.73120369,,,,,,,,,,0.7332,1,,,,,,,,,,,,,,,0,-0.252604167,-0.278645833,1,0,0,0.7332,button_left_main,-0.252604167,-0.278645833,1,0,0,,0,57,57,121,1,CEERS,HB,z,z,./images/CEERSHB.png,,,,,,,,,,,,,,,,,,,,,,,,,,,,,,,,,,
,,,,,,,,,,,,,,,,,5cc8039e3ef93000171c96b8,35,2022-02-12_14h55.17.455,lexical_decision_task_DD_L6,2021.2.3,Win32,60.73120369,,,,,,,,,,0.6866,1,,,,,,,,,,,,,,,0,-0.30859375,-0.256510417,1,0,0,0.6866,button_left_main,-0.30859375,-0.256510417,1,0,0,,0,58,58,89,1,DRIEK,LB,z,z,./images/DRIEKLB.png,,,,,,,,,,,,,,,,,,,,,,,,,,,,,,,,,,
,,,,,,,,,,,,,,,,,5cc8039e3ef93000171c96b8,35,2022-02-12_14h55.17.455,lexical_decision_task_DD_L6,2021.2.3,Win32,60.73120369,,,,,,,,,,0.5975,1,,,,,,,,,,,,,,,0,0.354166667,-0.287760417,1,0,0,0.5975,button_right_main,0.354166667,-0.287760417,1,0,0,,0,59,59,27,1,BUTTER,LB,m,m,./images/BUTTERLB.png,,,,,,,,,,,,,,,,,,,,,,,,,,,,,,,,,,
,,,,,,,,,,,,,,,,,5cc8039e3ef93000171c96b8,35,2022-02-12_14h55.17.455,lexical_decision_task_DD_L6,2021.2.3,Win32,60.73120369,,,,,,,,,,1.0029,1,,,,,,,,,,,,,,,0,0.287760417,-0.27734375,1,0,0,1.0029,button_right_main,0.287760417,-0.27734375,1,0,0,,0,60,60,32,1,HOCKEY,HB,m,m,./images/HOCKEYHB.png,,,,,,,,,,,,,,,,,,,,,,,,,,,,,,,,,,
,,,,,,,,,,,,,,,,,5cc8039e3ef93000171c96b8,35,2022-02-12_14h55.17.455,lexical_decision_task_DD_L6,2021.2.3,Win32,60.73120369,,,,,,,,,,0.7674,1,,,,,,,,,,,,,,,0,0.282552083,-0.30078125,1,0,0,0.7674,button_right_main,0.282552083,-0.30078125,1,0,0,,0,61,61,68,1,VALLEY,HB,m,m,./images/VALLEYHB.png,,,,,,,,,,,,,,,,,,,,,,,,,,,,,,,,,,
,,,,,,,,,,,,,,,,,5cc8039e3ef93000171c96b8,35,2022-02-12_14h55.17.455,lexical_decision_task_DD_L6,2021.2.3,Win32,60.73120369,,,,,,,,,,0.821799999,1,,,,,,,,,,,,,,,0,0.328125,-0.307291667,1,0,0,0.821799999,button_right_main,0.328125,-0.307291667,1,0,0,,0,62,62,62,1,MAMMAL,HB,m,m,./images/MAMMALHB.png,,,,,,,,,,,,,,,,,,,,,,,,,,,,,,,,,,
,,,,,,,,,,,,,,,,,5cc8039e3ef93000171c96b8,35,2022-02-12_14h55.17.455,lexical_decision_task_DD_L6,2021.2.3,Win32,60.73120369,,,,,,,,,,0.5972,1,,,,,,,,,,,,,,,0,0.220052083,-0.290364583,1,0,0,0.5972,button_right_main,0.220052083,-0.290364583,1,0,0,,0,63,63,58,1,CANOE,C,m,m,./images/CANOE.png,,,,,,,,,,,,,,,,,,,,,,,,,,,,,,,,,,
,,,,,,,,,,,,,,,,,5cc8039e3ef93000171c96b8,35,2022-02-12_14h55.17.455,lexical_decision_task_DD_L6,2021.2.3,Win32,60.73120369,,,,,,,,,,0.881700001,1,,,,,,,,,,,,,,,0,-0.391927083,-0.279947917,1,0,0,0.881700001,button_left_main,-0.391927083,-0.279947917,1,0,0,,0,64,64,107,1,FASKS,LB,z,z,./images/FASKSLB.png,,,,,,,,,,,,,,,,,,,,,,,,,,,,,,,,,,
,,,,,,,,,,,,,,,,,5cc8039e3ef93000171c96b8,35,2022-02-12_14h55.17.455,lexical_decision_task_DD_L6,2021.2.3,Win32,60.73120369,,,,,,,,,,0.730799999,1,,,,,,,,,,,,,,,0,-0.354166667,-0.28515625,1,0,0,0.730799999,button_left_main,-0.354166667,-0.28515625,1,0,0,,0,65,65,148,1,JOMS,HB,z,z,./images/JOMSHB.png,,,,,,,,,,,,,,,,,,,,,,,,,,,,,,,,,,
,,,,,,,,,,,,,,,,,5cc8039e3ef93000171c96b8,35,2022-02-12_14h55.17.455,lexical_decision_task_DD_L6,2021.2.3,Win32,60.73120369,,,,,,,,,,0.732,1,,,,,,,,,,,,,,,0,0.268229167,-0.313802083,1,0,0,0.732,button_right_main,0.268229167,-0.313802083,1,0,0,,0,66,66,31,1,STEAK,C,m,m,./images/STEAK.png,,,,,,,,,,,,,,,,,,,,,,,,,,,,,,,,,,
,,,,,,,,,,,,,,,,,5cc8039e3ef93000171c96b8,35,2022-02-12_14h55.17.455,lexical_decision_task_DD_L6,2021.2.3,Win32,60.73120369,,,,,,,,,,0.6009,1,,,,,,,,,,,,,,,0,0.376302083,-0.317708333,1,0,0,0.6009,button_right_main,0.376302083,-0.317708333,1,0,0,,0,67,67,13,1,BUNNY,C,m,m,./images/BUNNY.png,,,,,,,,,,,,,,,,,,,,,,,,,,,,,,,,,,
,,,,,,,,,,,,,,,,,5cc8039e3ef93000171c96b8,35,2022-02-12_14h55.17.455,lexical_decision_task_DD_L6,2021.2.3,Win32,60.73120369,,,,,,,,,,0.8003,1,,,,,,,,,,,,,,,0,-0.276041667,-0.294270833,1,0,0,0.8003,button_left_main,-0.276041667,-0.294270833,1,0,0,,0,68,68,153,1,CLUPS,C,z,z,./images/CLUPS.png,,,,,,,,,,,,,,,,,,,,,,,,,,,,,,,,,,
,,,,,,,,,,,,,,,,,5cc8039e3ef93000171c96b8,35,2022-02-12_14h55.17.455,lexical_decision_task_DD_L6,2021.2.3,Win32,60.73120369,,,,,,,,,,0.643,1,,,,,,,,,,,,,,,0,-0.28125,-0.298177083,1,0,0,0.643,button_left_main,-0.28125,-0.298177083,1,0,0,,0,69,69,129,1,PRANS,C,z,z,./images/PRANS.png,,,,,,,,,,,,,,,,,,,,,,,,,,,,,,,,,,
,,,,,,,,,,,,,,,,,5cc8039e3ef93000171c96b8,35,2022-02-12_14h55.17.455,lexical_decision_task_DD_L6,2021.2.3,Win32,60.73120369,,,,,,,,,,0.6326,1,,,,,,,,,,,,,,,0,-0.34765625,-0.282552083,1,0,0,0.6326,button_left_main,-0.34765625,-0.282552083,1,0,0,,0,70,70,119,1,PAFER,LB,z,z,./images/PAFERLB.png,,,,,,,,,,,,,,,,,,,,,,,,,,,,,,,,,,
,,,,,,,,,,,,,,,,,5cc8039e3ef93000171c96b8,35,2022-02-12_14h55.17.455,lexical_decision_task_DD_L6,2021.2.3,Win32,60.73120369,,,,,,,,,,0.7497,1,,,,,,,,,,,,,,,0,0.360677083,-0.28125,1,0,0,0.7497,button_right_main,0.360677083,-0.28125,1,0,0,,0,71,71,80,1,PLANET,HB,m,m,./images/PLANETHB.png,,,,,,,,,,,,,,,,,,,,,,,,,,,,,,,,,,
,,,,,,,,,,,,,,,,,5cc8039e3ef93000171c96b8,35,2022-02-12_14h55.17.455,lexical_decision_task_DD_L6,2021.2.3,Win32,60.73120369,,,,,,,,,,0.5819,1,,,,,,,,,,,,,,,0,0.235677083,-0.278645833,1,0,0,0.5819,button_right_main,0.235677083,-0.278645833,1,0,0,,0,72,72,66,1,STATUE,LB,m,m,./images/STATUELB.png,,,,,,,,,,,,,,,,,,,,,,,,,,,,,,,,,,
,,,,,,,,,,,,,,,,,5cc8039e3ef93000171c96b8,35,2022-02-12_14h55.17.455,lexical_decision_task_DD_L6,2021.2.3,Win32,60.73120369,,,,,,,,,,0.702,1,,,,,,,,,,,,,,,0,0.212239583,-0.274739583,1,0,0,0.702,button_right_main,0.212239583,-0.274739583,1,0,0,,0,73,73,24,1,FLESH,LB,m,m,./images/FLESHLB.png,,,,,,,,,,,,,,,,,,,,,,,,,,,,,,,,,,
,,,,,,,,,,,,,,,,,5cc8039e3ef93000171c96b8,35,2022-02-12_14h55.17.455,lexical_decision_task_DD_L6,2021.2.3,Win32,60.73120369,,,,,,,,,,0.5046,1,,,,,,,,,,,,,,,0,-0.313802083,-0.272135417,1,0,0,0.5046,button_left_main,-0.313802083,-0.272135417,1,0,0,,0,74,74,156,1,HIXES,C,z,z,./images/HIXES.png,,,,,,,,,,,,,,,,,,,,,,,,,,,,,,,,,,
,,,,,,,,,,,,,,,,,5cc8039e3ef93000171c96b8,35,2022-02-12_14h55.17.455,lexical_decision_task_DD_L6,2021.2.3,Win32,60.73120369,,,,,,,,,,0.6172,1,,,,,,,,,,,,,,,0,0.427083333,-0.274739583,1,0,0,0.6172,button_right_main,0.427083333,-0.274739583,1,0,0,,0,75,75,9,1,DIVER,LB,m,m,./images/DIVERLB.png,,,,,,,,,,,,,,,,,,,,,,,,,,,,,,,,,,
,,,,,,,,,,,,,,,,,5cc8039e3ef93000171c96b8,35,2022-02-12_14h55.17.455,lexical_decision_task_DD_L6,2021.2.3,Win32,60.73120369,,,,,,,,,,0.704799999,1,,,,,,,,,,,,,,,0,0.313802083,-0.274739583,1,0,0,0.704799999,button_right_main,0.313802083,-0.274739583,1,0,0,,0,76,76,83,1,WHISKY,HB,m,m,./images/WHISKYHB.png,,,,,,,,,,,,,,,,,,,,,,,,,,,,,,,,,,
,,,,,,,,,,,,,,,,,5cc8039e3ef93000171c96b8,35,2022-02-12_14h55.17.455,lexical_decision_task_DD_L6,2021.2.3,Win32,60.73120369,,,,,,,,,,0.6751,1,,,,,,,,,,,,,,,0,0.282552083,-0.287760417,1,0,0,0.6751,button_right_main,0.282552083,-0.287760417,1,0,0,,0,77,77,71,1,BUBBLE,HB,m,m,./images/BUBBLEHB.png,,,,,,,,,,,,,,,,,,,,,,,,,,,,,,,,,,
,,,,,,,,,,,,,,,,,5cc8039e3ef93000171c96b8,35,2022-02-12_14h55.17.455,lexical_decision_task_DD_L6,2021.2.3,Win32,60.73120369,,,,,,,,,,0.667,1,,,,,,,,,,,,,,,0,0.279947917,-0.2890625,1,0,0,0.667,button_right_main,0.279947917,-0.2890625,1,0,0,,0,78,78,57,1,FERRY,LB,m,m,./images/FERRYLB.png,,,,,,,,,,,,,,,,,,,,,,,,,,,,,,,,,,
,,,,,,,,,,,,,,,,,5cc8039e3ef93000171c96b8,35,2022-02-12_14h55.17.455,lexical_decision_task_DD_L6,2021.2.3,Win32,60.73120369,,,,,,,,,,0.5814,1,,,,,,,,,,,,,,,0,0.154947917,-0.287760417,1,0,0,0.5814,button_right_main,0.307291667,-0.29296875,1,0,0,,0,79,79,63,1,BAKER,LB,m,m,./images/BAKERLB.png,,,,,,,,,,,,,,,,,,,,,,,,,,,,,,,,,,
,,,,,,,,,,,,,,,,,5cc8039e3ef93000171c96b8,35,2022-02-12_14h55.17.455,lexical_decision_task_DD_L6,2021.2.3,Win32,60.73120369,,,,,,,,,,0.6331,1,,,,,,,,,,,,,,,0,-0.251302083,-0.291666667,1,0,0,0.6331,button_left_main,-0.251302083,-0.291666667,1,0,0,,0,80,80,143,1,MONGS,LB,z,z,./images/MONGSLB.png,,,,,,,,,,,,,,,,,,,,,,,,,,,,,,,,,,
,,,,,,,,,,,,,,,,,5cc8039e3ef93000171c96b8,35,2022-02-12_14h55.17.455,lexical_decision_task_DD_L6,2021.2.3,Win32,60.73120369,,,,,,,,,,0.6825,1,,,,,,,,,,,,,,,0,-0.19921875,-0.291666667,1,0,0,0.6825,button_left_main,-0.388020833,-0.290364583,1,0,0,,0,81,81,131,1,NACES,LB,z,z,./images/NACESLB.png,,,,,,,,,,,,,,,,,,,,,,,,,,,,,,,,,,
,,,,,,,,,,,,,,,,,5cc8039e3ef93000171c96b8,35,2022-02-12_14h55.17.455,lexical_decision_task_DD_L6,2021.2.3,Win32,60.73120369,,,,,,,,,,0.683900001,1,,,,,,,,,,,,,,,0,-0.205729167,-0.268229167,1,0,0,0.683900001,button_left_main,-0.205729167,-0.268229167,1,0,0,,0,82,82,133,1,POWDY,HB,z,z,./images/POWDYHB.png,,,,,,,,,,,,,,,,,,,,,,,,,,,,,,,,,,
,,,,,,,,,,,,,,,,,5cc8039e3ef93000171c96b8,35,2022-02-12_14h55.17.455,lexical_decision_task_DD_L6,2021.2.3,Win32,60.73120369,,,,,,,,,,1.3995,0,,,,,,,,,,,,,,,0,0.247395833,-0.2578125,1,0,0,1.3995,button_right_main,0.02734375,-0.391927083,1,0,0,,0,83,83,123,1,SEDGE,C,z,z,./images/SEDGE.png,break_done_button,,,,,,,,,,,,,,,,,,,,,,,,,,,,,,,,,
,,,,,,,,,,,,,,,,,5cc8039e3ef93000171c96b8,35,2022-02-12_14h55.17.455,lexical_decision_task_DD_L6,2021.2.3,Win32,60.73120369,,,,,,,,,,0.7867,1,,,,,,,,,,,,,,,0,-0.302083333,-0.268229167,1,0,0,0.7867,button_left_main,-0.302083333,-0.268229167,1,0,0,,0,84,84,160,1,VEETS,HB,z,z,./images/VEETSHB.png,,,,,,,,,,,,,,,,,,,,,,,,,,,,,,,,,,
,,,,,,,,,,,,,,,,,5cc8039e3ef93000171c96b8,35,2022-02-12_14h55.17.455,lexical_decision_task_DD_L6,2021.2.3,Win32,60.73120369,,,,,,,,,,0.614,1,,,,,,,,,,,,,,,0,-0.309895833,-0.268229167,1,0,0,0.614,button_left_main,-0.309895833,-0.268229167,1,0,0,,0,85,85,111,1,HOSSE,C,z,z,./images/HOSSE.png,,,,,,,,,,,,,,,,,,,,,,,,,,,,,,,,,,
,,,,,,,,,,,,,,,,,5cc8039e3ef93000171c96b8,35,2022-02-12_14h55.17.455,lexical_decision_task_DD_L6,2021.2.3,Win32,60.73120369,,,,,,,,,,0.7629,1,,,,,,,,,,,,,,,0,-0.248697917,-0.27734375,1,0,0,0.7629,button_left_main,-0.248697917,-0.27734375,1,0,0,,0,86,86,155,1,CANGY,LB,z,z,./images/CANGYLB.png,,,,,,,,,,,,,,,,,,,,,,,,,,,,,,,,,,
,,,,,,,,,,,,,,,,,5cc8039e3ef93000171c96b8,35,2022-02-12_14h55.17.455,lexical_decision_task_DD_L6,2021.2.3,Win32,60.73120369,,,,,,,,,,0.6649,1,,,,,,,,,,,,,,,0,0.311197917,-0.272135417,1,0,0,0.6649,button_right_main,0.311197917,-0.272135417,1,0,0,,0,87,87,65,1,SPINE,HB,m,m,./images/SPINEHB.png,,,,,,,,,,,,,,,,,,,,,,,,,,,,,,,,,,
,,,,,,,,,,,,,,,,,5cc8039e3ef93000171c96b8,35,2022-02-12_14h55.17.455,lexical_decision_task_DD_L6,2021.2.3,Win32,60.73120369,,,,,,,,,,0.614599999,1,,,,,,,,,,,,,,,0,-0.27734375,-0.2890625,1,0,0,0.614599999,button_left_main,-0.27734375,-0.2890625,1,0,0,,0,88,88,117,1,STEEG,C,z,z,./images/STEEG.png,,,,,,,,,,,,,,,,,,,,,,,,,,,,,,,,,,
,,,,,,,,,,,,,,,,,5cc8039e3ef93000171c96b8,35,2022-02-12_14h55.17.455,lexical_decision_task_DD_L6,2021.2.3,Win32,60.73120369,,,,,,,,,,0.5636,1,,,,,,,,,,,,,,,0,0.282552083,-0.286458333,1,0,0,0.5636,button_right_main,0.282552083,-0.286458333,1,0,0,,0,89,89,1,1,TOWEL,C,m,m,./images/TOWEL.png,,,,,,,,,,,,,,,,,,,,,,,,,,,,,,,,,,
,,,,,,,,,,,,,,,,,5cc8039e3ef93000171c96b8,35,2022-02-12_14h55.17.455,lexical_decision_task_DD_L6,2021.2.3,Win32,60.73120369,,,,,,,,,,0.7051,1,,,,,,,,,,,,,,,0,0.180989583,-0.286458333,1,0,0,0.7051,button_right_main,0.337239583,-0.299479167,1,0,0,,0,90,90,74,1,JUMPER,HB,m,m,./images/JUMPERHB.png,,,,,,,,,,,,,,,,,,,,,,,,,,,,,,,,,,
,,,,,,,,,,,,,,,,,5cc8039e3ef93000171c96b8,35,2022-02-12_14h55.17.455,lexical_decision_task_DD_L6,2021.2.3,Win32,60.73120369,,,,,,,,,,0.8662,1,,,,,,,,,,,,,,,0,-0.330729167,-0.2890625,1,0,0,0.8662,button_left_main,-0.330729167,-0.2890625,1,0,0,,0,91,91,134,1,TROSS,LB,z,z,./images/TROSSLB.png,,,,,,,,,,,,,,,,,,,,,,,,,,,,,,,,,,
,,,,,,,,,,,,,,,,,5cc8039e3ef93000171c96b8,35,2022-02-12_14h55.17.455,lexical_decision_task_DD_L6,2021.2.3,Win32,60.73120369,,,,,,,,,,0.8861,1,,,,,,,,,,,,,,,0,0.177083333,-0.319010417,1,0,0,0.8861,button_right_main,0.446614583,-0.31640625,1,0,0,,0,92,92,72,1,FLASK,LB,m,m,./images/FLASKLB.png,,,,,,,,,,,,,,,,,,,,,,,,,,,,,,,,,,
,,,,,,,,,,,,,,,,,5cc8039e3ef93000171c96b8,35,2022-02-12_14h55.17.455,lexical_decision_task_DD_L6,2021.2.3,Win32,60.73120369,,,,,,,,,,0.9667,1,,,,,,,,,,,,,,,0,-0.1875,-0.27734375,1,0,0,0.9667,button_left_main,-0.263020833,-0.276041667,1,0,0,,0,93,93,104,1,GITTY,LB,z,z,./images/GITTYLB.png,,,,,,,,,,,,,,,,,,,,,,,,,,,,,,,,,,
,,,,,,,,,,,,,,,,,5cc8039e3ef93000171c96b8,35,2022-02-12_14h55.17.455,lexical_decision_task_DD_L6,2021.2.3,Win32,60.73120369,,,,,,,,,,0.9532,1,,,,,,,,,,,,,,,0,-0.34375,-0.272135417,1,0,0,0.9532,button_left_main,-0.34375,-0.272135417,1,0,0,,0,94,94,88,1,GLUSH,HB,z,z,./images/GLUSHHB.png,,,,,,,,,,,,,,,,,,,,,,,,,,,,,,,,,,
,,,,,,,,,,,,,,,,,5cc8039e3ef93000171c96b8,35,2022-02-12_14h55.17.455,lexical_decision_task_DD_L6,2021.2.3,Win32,60.73120369,,,,,,,,,,0.5248,1,,,,,,,,,,,,,,,0,0.342447917,-0.287760417,1,0,0,0.5248,button_right_main,0.342447917,-0.287760417,1,0,0,,0,95,95,19,1,DONKEY,C,m,m,./images/DONKEY.png,,,,,,,,,,,,,,,,,,,,,,,,,,,,,,,,,,
,,,,,,,,,,,,,,,,,5cc8039e3ef93000171c96b8,35,2022-02-12_14h55.17.455,lexical_decision_task_DD_L6,2021.2.3,Win32,60.73120369,,,,,,,,,,0.7657,1,,,,,,,,,,,,,,,0,0.235677083,-0.268229167,1,0,0,0.7657,button_right_main,0.235677083,-0.268229167,1,0,0,,0,96,96,50,1,PILOT,HB,m,m,./images/PILOTHB.png,,,,,,,,,,,,,,,,,,,,,,,,,,,,,,,,,,
,,,,,,,,,,,,,,,,,5cc8039e3ef93000171c96b8,35,2022-02-12_14h55.17.455,lexical_decision_task_DD_L6,2021.2.3,Win32,60.73120369,,,,,,,,,,0.8668,1,,,,,,,,,,,,,,,0,0.350260417,-0.283854167,1,0,0,0.8668,button_right_main,0.350260417,-0.283854167,1,0,0,,0,97,97,53,1,POSTER,HB,m,m,./images/POSTERHB.png,,,,,,,,,,,,,,,,,,,,,,,,,,,,,,,,,,
,,,,,,,,,,,,,,,,,5cc8039e3ef93000171c96b8,35,2022-02-12_14h55.17.455,lexical_decision_task_DD_L6,2021.2.3,Win32,60.73120369,,,,,,,,,,0.5823,1,,,,,,,,,,,,,,,0,-0.270833333,-0.274739583,1,0,0,0.5823,button_left_main,-0.270833333,-0.274739583,1,0,0,,0,98,98,138,1,PLICE,C,z,z,./images/PLICE.png,,,,,,,,,,,,,,,,,,,,,,,,,,,,,,,,,,
,,,,,,,,,,,,,,,,,5cc8039e3ef93000171c96b8,35,2022-02-12_14h55.17.455,lexical_decision_task_DD_L6,2021.2.3,Win32,60.73120369,,,,,,,,,,0.764900001,1,,,,,,,,,,,,,,,0,-0.239583333,-0.268229167,1,0,0,0.764900001,button_left_main,-0.239583333,-0.268229167,1,0,0,,0,99,99,145,1,LAMEL,HB,z,z,./images/LAMELHB.png,,,,,,,,,,,,,,,,,,,,,,,,,,,,,,,,,,
,,,,,,,,,,,,,,,,,5cc8039e3ef93000171c96b8,35,2022-02-12_14h55.17.455,lexical_decision_task_DD_L6,2021.2.3,Win32,60.73120369,,,,,,,,,,0.565099999,1,,,,,,,,,,,,,,,0,0.376302083,-0.265625,1,0,0,0.565099999,button_right_main,0.376302083,-0.265625,1,0,0,,0,100,100,64,1,BRIDE,C,m,m,./images/BRIDE.png,,,,,,,,,,,,,,,,,,,,,,,,,,,,,,,,,,
,,,,,,,,,,,,,,,,,5cc8039e3ef93000171c96b8,35,2022-02-12_14h55.17.455,lexical_decision_task_DD_L6,2021.2.3,Win32,60.73120369,,,,,,,,,,0.5313,1,,,,,,,,,,,,,,,0,0.223958333,-0.243489583,1,0,0,0.5313,button_right_main,0.223958333,-0.243489583,1,0,0,,0,101,101,46,1,MUMMY,C,m,m,./images/MUMMY.png,,,,,,,,,,,,,,,,,,,,,,,,,,,,,,,,,,
,,,,,,,,,,,,,,,,,5cc8039e3ef93000171c96b8,35,2022-02-12_14h55.17.455,lexical_decision_task_DD_L6,2021.2.3,Win32,60.73120369,,,,,,,,,,0.5809,1,,,,,,,,,,,,,,,0,0.26953125,-0.23828125,1,0,0,0.5809,button_right_main,0.26953125,-0.23828125,1,0,0,,0,102,102,0,1,WALNUT,LB,m,m,./images/WALNUTLB.png,,,,,,,,,,,,,,,,,,,,,,,,,,,,,,,,,,
,,,,,,,,,,,,,,,,,5cc8039e3ef93000171c96b8,35,2022-02-12_14h55.17.455,lexical_decision_task_DD_L6,2021.2.3,Win32,60.73120369,,,,,,,,,,0.7638,1,,,,,,,,,,,,,,,0,-0.217447917,-0.25390625,1,0,0,0.7638,button_left_main,-0.217447917,-0.25390625,1,0,0,,0,103,103,86,1,AIFED,LB,z,z,./images/AIFEDLB.png,,,,,,,,,,,,,,,,,,,,,,,,,,,,,,,,,,
,,,,,,,,,,,,,,,,,5cc8039e3ef93000171c96b8,35,2022-02-12_14h55.17.455,lexical_decision_task_DD_L6,2021.2.3,Win32,60.73120369,,,,,,,,,,0.697,1,,,,,,,,,,,,,,,0,-0.296875,-0.270833333,1,0,0,0.697,button_left_main,-0.296875,-0.270833333,1,0,0,,0,104,104,109,1,BURGE,HB,z,z,./images/BURGEHB.png,,,,,,,,,,,,,,,,,,,,,,,,,,,,,,,,,,
,,,,,,,,,,,,,,,,,5cc8039e3ef93000171c96b8,35,2022-02-12_14h55.17.455,lexical_decision_task_DD_L6,2021.2.3,Win32,60.73120369,,,,,,,,,,0.6146,1,,,,,,,,,,,,,,,0,-0.26171875,-0.266927083,1,0,0,0.6146,button_left_main,-0.26171875,-0.266927083,1,0,0,,0,105,105,132,1,SCIFF,C,z,z,./images/SCIFF.png,,,,,,,,,,,,,,,,,,,,,,,,,,,,,,,,,,
,,,,,,,,,,,,,,,,,5cc8039e3ef93000171c96b8,35,2022-02-12_14h55.17.455,lexical_decision_task_DD_L6,2021.2.3,Win32,60.73120369,,,,,,,,,,0.6335,1,,,,,,,,,,,,,,,0,-0.278645833,-0.272135417,1,0,0,0.6335,button_left_main,-0.278645833,-0.272135417,1,0,0,,0,106,106,92,1,PAIMS,LB,z,z,./images/PAIMSLB.png,,,,,,,,,,,,,,,,,,,,,,,,,,,,,,,,,,
,,,,,,,,,,,,,,,,,5cc8039e3ef93000171c96b8,35,2022-02-12_14h55.17.455,lexical_decision_task_DD_L6,2021.2.3,Win32,60.73120369,,,,,,,,,,0.8007,1,,,,,,,,,,,,,,,0,0.39453125,-0.235677083,1,0,0,0.8007,button_right_main,0.39453125,-0.235677083,1,0,0,,0,107,107,5,1,BAMBOO,HB,m,m,./images/BAMBOOHB.png,,,,,,,,,,,,,,,,,,,,,,,,,,,,,,,,,,
,,,,,,,,,,,,,,,,,5cc8039e3ef93000171c96b8,35,2022-02-12_14h55.17.455,lexical_decision_task_DD_L6,2021.2.3,Win32,60.73120369,,,,,,,,,,0.6666,1,,,,,,,,,,,,,,,0,0.274739583,-0.2421875,1,0,0,0.6666,button_right_main,0.274739583,-0.2421875,1,0,0,,0,108,108,17,1,PARADE,HB,m,m,./images/PARADEHB.png,,,,,,,,,,,,,,,,,,,,,,,,,,,,,,,,,,
,,,,,,,,,,,,,,,,,5cc8039e3ef93000171c96b8,35,2022-02-12_14h55.17.455,lexical_decision_task_DD_L6,2021.2.3,Win32,60.73120369,,,,,,,,,,0.6802,1,,,,,,,,,,,,,,,0,-0.305989583,-0.302083333,1,0,0,0.6802,button_left_main,-0.305989583,-0.302083333,1,0,0,,0,109,109,113,1,LINEW,LB,z,z,./images/LINEWLB.png,,,,,,,,,,,,,,,,,,,,,,,,,,,,,,,,,,
,,,,,,,,,,,,,,,,,5cc8039e3ef93000171c96b8,35,2022-02-12_14h55.17.455,lexical_decision_task_DD_L6,2021.2.3,Win32,60.73120369,,,,,,,,,,0.6604,1,,,,,,,,,,,,,,,0,0.299479167,-0.264322917,1,0,0,0.6604,button_right_main,0.299479167,-0.264322917,1,0,0,,0,110,110,26,1,CLOUD,HB,m,m,./images/CLOUDHB.png,,,,,,,,,,,,,,,,,,,,,,,,,,,,,,,,,,
,,,,,,,,,,,,,,,,,5cc8039e3ef93000171c96b8,35,2022-02-12_14h55.17.455,lexical_decision_task_DD_L6,2021.2.3,Win32,60.73120369,,,,,,,,,,0.9235,1,,,,,,,,,,,,,,,0,0.369791667,-0.25,1,0,0,0.9235,button_right_main,0.369791667,-0.25,1,0,0,,0,111,111,30,1,SLOPE,LB,m,m,./images/SLOPELB.png,,,,,,,,,,,,,,,,,,,,,,,,,,,,,,,,,,
,,,,,,,,,,,,,,,,,5cc8039e3ef93000171c96b8,35,2022-02-12_14h55.17.455,lexical_decision_task_DD_L6,2021.2.3,Win32,60.73120369,,,,,,,,,,0.73,1,,,,,,,,,,,,,,,0,0.32421875,-0.27734375,1,0,0,0.73,button_right_main,0.32421875,-0.27734375,1,0,0,,0,112,112,77,1,WHEEL,HB,m,m,./images/WHEELHB.png,,,,,,,,,,,,,,,,,,,,,,,,,,,,,,,,,,
,,,,,,,,,,,,,,,,,5cc8039e3ef93000171c96b8,35,2022-02-12_14h55.17.455,lexical_decision_task_DD_L6,2021.2.3,Win32,60.73120369,,,,,,,,,,0.6142,1,,,,,,,,,,,,,,,0,-0.278645833,-0.28125,1,0,0,0.6142,button_left_main,-0.278645833,-0.28125,1,0,0,,0,113,113,141,1,PLEET,C,z,z,./images/PLEET.png,,,,,,,,,,,,,,,,,,,,,,,,,,,,,,,,,,
,,,,,,,,,,,,,,,,,5cc8039e3ef93000171c96b8,35,2022-02-12_14h55.17.455,lexical_decision_task_DD_L6,2021.2.3,Win32,60.73120369,,,,,,,,,,0.6362,1,,,,,,,,,,,,,,,0,0.287760417,-0.259114583,1,0,0,0.6362,button_right_main,0.287760417,-0.259114583,1,0,0,,0,114,114,8,1,CLIFF,HB,m,m,./images/CLIFFHB.png,,,,,,,,,,,,,,,,,,,,,,,,,,,,,,,,,,
,,,,,,,,,,,,,,,,,5cc8039e3ef93000171c96b8,35,2022-02-12_14h55.17.455,lexical_decision_task_DD_L6,2021.2.3,Win32,60.73120369,,,,,,,,,,0.5486,1,,,,,,,,,,,,,,,0,0.3515625,-0.252604167,1,0,0,0.5486,button_right_main,0.3515625,-0.252604167,1,0,0,,0,115,115,61,1,ARTIST,C,m,m,./images/ARTIST.png,,,,,,,,,,,,,,,,,,,,,,,,,,,,,,,,,,
,,,,,,,,,,,,,,,,,5cc8039e3ef93000171c96b8,35,2022-02-12_14h55.17.455,lexical_decision_task_DD_L6,2021.2.3,Win32,60.73120369,,,,,,,,,,0.819200001,0,,,,,,,,,,,,,,,0,0.2890625,-0.256510417,1,0,0,0.819200001,button_right_main,0.2890625,-0.256510417,1,0,0,,0,116,116,128,1,GRIFT,LB,z,z,./images/GRIFTLB.png,,,,,,,,,,,,,,,,,,,,,,,,,,,,,,,,,,
,,,,,,,,,,,,,,,,,5cc8039e3ef93000171c96b8,35,2022-02-12_14h55.17.455,lexical_decision_task_DD_L6,2021.2.3,Win32,60.73120369,,,,,,,,,,0.8718,1,,,,,,,,,,,,,,,0,-0.305989583,-0.251302083,1,0,0,0.8718,button_left_main,-0.305989583,-0.251302083,1,0,0,,0,117,117,99,1,BACKY,C,z,z,./images/BACKY.png,,,,,,,,,,,,,,,,,,,,,,,,,,,,,,,,,,
,,,,,,,,,,,,,,,,,5cc8039e3ef93000171c96b8,35,2022-02-12_14h55.17.455,lexical_decision_task_DD_L6,2021.2.3,Win32,60.73120369,,,,,,,,,,0.6183,1,,,,,,,,,,,,,,,0,-0.291666667,-0.252604167,1,0,0,0.6183,button_left_main,-0.291666667,-0.252604167,1,0,0,,0,118,118,98,1,BAMPS,LB,z,z,./images/BAMPSLB.png,,,,,,,,,,,,,,,,,,,,,,,,,,,,,,,,,,
,,,,,,,,,,,,,,,,,5cc8039e3ef93000171c96b8,35,2022-02-12_14h55.17.455,lexical_decision_task_DD_L6,2021.2.3,Win32,60.73120369,,,,,,,,,,0.6365,1,,,,,,,,,,,,,,,0,0.24609375,-0.227864583,1,0,0,0.6365,button_right_main,0.24609375,-0.227864583,1,0,0,,0,119,119,41,1,STREAM,HB,m,m,./images/STREAMHB.png,,,,,,,,,,,,,,,,,,,,,,,,,,,,,,,,,,
,,,,,,,,,,,,,,,,,5cc8039e3ef93000171c96b8,35,2022-02-12_14h55.17.455,lexical_decision_task_DD_L6,2021.2.3,Win32,60.73120369,,,,,,,,,,0.8638,1,,,,,,,,,,,,,,,0,-0.248697917,-0.259114583,1,0,0,0.8638,button_left_main,-0.248697917,-0.259114583,1,0,0,,0,120,120,103,1,FLORT,HB,z,z,./images/FLORTHB.png,,,,,,,,,,,,,,,,,,,,,,,,,,,,,,,,,,
,,,,,,,,,,,,,,,,,5cc8039e3ef93000171c96b8,35,2022-02-12_14h55.17.455,lexical_decision_task_DD_L6,2021.2.3,Win32,60.73120369,,,,,,,,,,0.6464,1,,,,,,,,,,,,,,,0,0.2890625,-0.268229167,1,0,0,0.6464,button_right_main,0.2890625,-0.268229167,1,0,0,,0,121,121,33,1,SAUNA,LB,m,m,./images/SAUNALB.png,,,,,,,,,,,,,,,,,,,,,,,,,,,,,,,,,,
,,,,,,,,,,,,,,,,,5cc8039e3ef93000171c96b8,35,2022-02-12_14h55.17.455,lexical_decision_task_DD_L6,2021.2.3,Win32,60.73120369,,,,,,,,,,0.8338,1,,,,,,,,,,,,,,,0,0.315104167,-0.243489583,1,0,0,0.8338,button_right_main,0.315104167,-0.243489583,1,0,0,,0,122,122,44,1,BASKET,HB,m,m,./images/BASKETHB.png,,,,,,,,,,,,,,,,,,,,,,,,,,,,,,,,,,
,,,,,,,,,,,,,,,,,5cc8039e3ef93000171c96b8,35,2022-02-12_14h55.17.455,lexical_decision_task_DD_L6,2021.2.3,Win32,60.73120369,,,,,,,,,,0.831400001,1,,,,,,,,,,,,,,,0,0.315104167,-0.244791667,1,0,0,0.831400001,button_right_main,0.315104167,-0.244791667,1,0,0,,0,123,123,38,1,ENGINE,HB,m,m,./images/ENGINEHB.png,,,,,,,,,,,,,,,,,,,,,,,,,,,,,,,,,,
,,,,,,,,,,,,,,,,,5cc8039e3ef93000171c96b8,35,2022-02-12_14h55.17.455,lexical_decision_task_DD_L6,2021.2.3,Win32,60.73120369,,,,,,,,,,0.683299999,1,,,,,,,,,,,,,,,0,-0.220052083,-0.260416667,1,0,0,0.683299999,button_left_main,-0.220052083,-0.260416667,1,0,0,,0,124,124,97,1,CHIDS,HB,z,z,./images/CHIDSHB.png,,,,,,,,,,,,,,,,,,,,,,,,,,,,,,,,,,
,,,,,,,,,,,,,,,,,5cc8039e3ef93000171c96b8,35,2022-02-12_14h55.17.455,lexical_decision_task_DD_L6,2021.2.3,Win32,60.73120369,,,,,,,,,,0.8295,1,,,,,,,,,,,,,,,0,-0.252604167,-0.268229167,1,0,0,0.8295,button_left_main,0.03125,-0.411458333,1,0,0,,0,125,125,166,1,SHORY,HB,z,z,./images/SHORYHB.png,break_done_button,,,,,,,,,,,,,,,,,,,,,,,,,,,,,,,,,
,,,,,,,,,,,,,,,,,5cc8039e3ef93000171c96b8,35,2022-02-12_14h55.17.455,lexical_decision_task_DD_L6,2021.2.3,Win32,60.73120369,,,,,,,,,,0.6329,1,,,,,,,,,,,,,,,0,-0.276041667,-0.235677083,1,0,0,0.6329,button_left_main,-0.276041667,-0.235677083,1,0,0,,0,126,126,84,1,HAXES,C,z,z,./images/HAXES.png,,,,,,,,,,,,,,,,,,,,,,,,,,,,,,,,,,
,,,,,,,,,,,,,,,,,5cc8039e3ef93000171c96b8,35,2022-02-12_14h55.17.455,lexical_decision_task_DD_L6,2021.2.3,Win32,60.73120369,,,,,,,,,,0.5332,1,,,,,,,,,,,,,,,0,0.399739583,-0.217447917,1,0,0,0.5332,button_right_main,0.399739583,-0.217447917,1,0,0,,0,127,127,16,1,GRAPE,C,m,m,./images/GRAPE.png,,,,,,,,,,,,,,,,,,,,,,,,,,,,,,,,,,
,,,,,,,,,,,,,,,,,5cc8039e3ef93000171c96b8,35,2022-02-12_14h55.17.455,lexical_decision_task_DD_L6,2021.2.3,Win32,60.73120369,,,,,,,,,,0.801200001,1,,,,,,,,,,,,,,,0,0.397135417,-0.259114583,1,0,0,0.801200001,button_right_main,0.397135417,-0.259114583,1,0,0,,0,128,128,11,1,MEDAL,HB,m,m,./images/MEDALHB.png,,,,,,,,,,,,,,,,,,,,,,,,,,,,,,,,,,
,,,,,,,,,,,,,,,,,5cc8039e3ef93000171c96b8,35,2022-02-12_14h55.17.455,lexical_decision_task_DD_L6,2021.2.3,Win32,60.73120369,,,,,,,,,,0.730599999,1,,,,,,,,,,,,,,,0,-0.180989583,-0.239583333,1,0,0,0.730599999,button_left_main,-0.2734375,-0.272135417,1,0,0,,0,129,129,127,1,NINDY,HB,z,z,./images/NINDYHB.png,,,,,,,,,,,,,,,,,,,,,,,,,,,,,,,,,,
,,,,,,,,,,,,,,,,,5cc8039e3ef93000171c96b8,35,2022-02-12_14h55.17.455,lexical_decision_task_DD_L6,2021.2.3,Win32,60.73120369,,,,,,,,,,0.564,1,,,,,,,,,,,,,,,0,0.33203125,-0.260416667,1,0,0,0.564,button_right_main,0.33203125,-0.260416667,1,0,0,,0,130,130,69,1,ARROW,LB,m,m,./images/ARROWLB.png,,,,,,,,,,,,,,,,,,,,,,,,,,,,,,,,,,
,,,,,,,,,,,,,,,,,5cc8039e3ef93000171c96b8,35,2022-02-12_14h55.17.455,lexical_decision_task_DD_L6,2021.2.3,Win32,60.73120369,,,,,,,,,,0.5327,1,,,,,,,,,,,,,,,0,0.180989583,-0.256510417,1,0,0,0.5327,button_right_main,0.287760417,-0.2578125,1,0,0,,0,131,131,78,1,BROOM,LB,m,m,./images/BROOMLB.png,,,,,,,,,,,,,,,,,,,,,,,,,,,,,,,,,,
,,,,,,,,,,,,,,,,,5cc8039e3ef93000171c96b8,35,2022-02-12_14h55.17.455,lexical_decision_task_DD_L6,2021.2.3,Win32,60.73120369,,,,,,,,,,0.6251,1,,,,,,,,,,,,,,,0,0.221354167,-0.259114583,1,0,0,0.6251,button_right_main,0.221354167,-0.259114583,1,0,0,,0,132,132,49,1,BISHOP,C,m,m,./images/BISHOP.png,,,,,,,,,,,,,,,,,,,,,,,,,,,,,,,,,,
,,,,,,,,,,,,,,,,,5cc8039e3ef93000171c96b8,35,2022-02-12_14h55.17.455,lexical_decision_task_DD_L6,2021.2.3,Win32,60.73120369,,,,,,,,,,0.534099999,1,,,,,,,,,,,,,,,0,0.265625,-0.259114583,1,0,0,0.534099999,button_right_main,0.265625,-0.259114583,1,0,0,,0,133,133,51,1,SAUCE,LB,m,m,./images/SAUCELB.png,,,,,,,,,,,,,,,,,,,,,,,,,,,,,,,,,,
,,,,,,,,,,,,,,,,,5cc8039e3ef93000171c96b8,35,2022-02-12_14h55.17.455,lexical_decision_task_DD_L6,2021.2.3,Win32,60.73120369,,,,,,,,,,0.67,1,,,,,,,,,,,,,,,0,0.279947917,-0.274739583,1,0,0,0.67,button_right_main,0.279947917,-0.274739583,1,0,0,,0,134,134,4,1,BOXER,C,m,m,./images/BOXER.png,,,,,,,,,,,,,,,,,,,,,,,,,,,,,,,,,,
,,,,,,,,,,,,,,,,,5cc8039e3ef93000171c96b8,35,2022-02-12_14h55.17.455,lexical_decision_task_DD_L6,2021.2.3,Win32,60.73120369,,,,,,,,,,0.7273,1,,,,,,,,,,,,,,,0,-0.23046875,-0.264322917,1,0,0,0.7273,button_left_main,-0.23046875,-0.264322917,1,0,0,,0,135,135,115,1,MAWNS,HB,z,z,./images/MAWNSHB.png,,,,,,,,,,,,,,,,,,,,,,,,,,,,,,,,,,
,,,,,,,,,,,,,,,,,5cc8039e3ef93000171c96b8,35,2022-02-12_14h55.17.455,lexical_decision_task_DD_L6,2021.2.3,Win32,60.73120369,,,,,,,,,,0.7985,1,,,,,,,,,,,,,,,0,-0.30859375,-0.27734375,1,0,0,0.7985,button_left_main,-0.30859375,-0.27734375,1,0,0,,0,136,136,146,1,MOOST,LB,z,z,./images/MOOSTLB.png,,,,,,,,,,,,,,,,,,,,,,,,,,,,,,,,,,
,,,,,,,,,,,,,,,,,5cc8039e3ef93000171c96b8,35,2022-02-12_14h55.17.455,lexical_decision_task_DD_L6,2021.2.3,Win32,60.73120369,,,,,,,,,,0.713099999,1,,,,,,,,,,,,,,,0,-0.38671875,-0.2734375,1,0,0,0.713099999,button_left_main,-0.38671875,-0.2734375,1,0,0,,0,137,137,157,1,INLER,HB,z,z,./images/INLERHB.png,,,,,,,,,,,,,,,,,,,,,,,,,,,,,,,,,,
,,,,,,,,,,,,,,,,,5cc8039e3ef93000171c96b8,35,2022-02-12_14h55.17.455,lexical_decision_task_DD_L6,2021.2.3,Win32,60.73120369,,,,,,,,,,0.750400001,1,,,,,,,,,,,,,,,0,-0.25,-0.236979167,1,0,0,0.750400001,button_left_main,-0.25,-0.236979167,1,0,0,,0,138,138,149,1,VEASE,LB,z,z,./images/VEASELB.png,,,,,,,,,,,,,,,,,,,,,,,,,,,,,,,,,,
,,,,,,,,,,,,,,,,,5cc8039e3ef93000171c96b8,35,2022-02-12_14h55.17.455,lexical_decision_task_DD_L6,2021.2.3,Win32,60.73120369,,,,,,,,,,0.735599999,1,,,,,,,,,,,,,,,0,-0.333333333,-0.236979167,1,0,0,0.735599999,button_left_main,-0.333333333,-0.236979167,1,0,0,,0,139,139,158,1,EGECT,LB,z,z,./images/EGECTLB.png,,,,,,,,,,,,,,,,,,,,,,,,,,,,,,,,,,
,,,,,,,,,,,,,,,,,5cc8039e3ef93000171c96b8,35,2022-02-12_14h55.17.455,lexical_decision_task_DD_L6,2021.2.3,Win32,60.73120369,,,,,,,,,,0.7766,1,,,,,,,,,,,,,,,0,-0.298177083,-0.235677083,1,0,0,0.7766,button_left_main,-0.298177083,-0.235677083,1,0,0,,0,140,140,136,1,WERVE,HB,z,z,./images/WERVEHB.png,,,,,,,,,,,,,,,,,,,,,,,,,,,,,,,,,,
,,,,,,,,,,,,,,,,,5cc8039e3ef93000171c96b8,35,2022-02-12_14h55.17.455,lexical_decision_task_DD_L6,2021.2.3,Win32,60.73120369,,,,,,,,,,0.6226,1,,,,,,,,,,,,,,,0,-0.231770833,-0.23828125,1,0,0,0.6226,button_left_main,-0.231770833,-0.23828125,1,0,0,,0,141,141,114,1,RIKES,C,z,z,./images/RIKES.png,,,,,,,,,,,,,,,,,,,,,,,,,,,,,,,,,,
,,,,,,,,,,,,,,,,,5cc8039e3ef93000171c96b8,35,2022-02-12_14h55.17.455,lexical_decision_task_DD_L6,2021.2.3,Win32,60.73120369,,,,,,,,,,0.7505,1,,,,,,,,,,,,,,,0,-0.299479167,-0.272135417,1,0,0,0.7505,button_left_main,-0.299479167,-0.272135417,1,0,0,,0,142,142,94,1,BLANS,HB,z,z,./images/BLANSHB.png,,,,,,,,,,,,,,,,,,,,,,,,,,,,,,,,,,
,,,,,,,,,,,,,,,,,5cc8039e3ef93000171c96b8,35,2022-02-12_14h55.17.455,lexical_decision_task_DD_L6,2021.2.3,Win32,60.73120369,,,,,,,,,,0.5008,1,,,,,,,,,,,,,,,0,0.291666667,-0.239583333,1,0,0,0.5008,button_right_main,0.291666667,-0.239583333,1,0,0,,0,143,143,52,1,DESERT,C,m,m,./images/DESERT.png,,,,,,,,,,,,,,,,,,,,,,,,,,,,,,,,,,
,,,,,,,,,,,,,,,,,5cc8039e3ef93000171c96b8,35,2022-02-12_14h55.17.455,lexical_decision_task_DD_L6,2021.2.3,Win32,60.73120369,,,,,,,,,,0.850700001,0,,,,,,,,,,,,,,,0,0.278645833,-0.260416667,1,0,0,0.850700001,button_right_main,0.278645833,-0.260416667,1,0,0,,0,144,144,154,1,THINT,HB,z,z,./images/THINTHB.png,,,,,,,,,,,,,,,,,,,,,,,,,,,,,,,,,,
,,,,,,,,,,,,,,,,,5cc8039e3ef93000171c96b8,35,2022-02-12_14h55.17.455,lexical_decision_task_DD_L6,2021.2.3,Win32,60.73120369,,,,,,,,,,0.618,1,,,,,,,,,,,,,,,0,-0.225260417,-0.265625,1,0,0,0.618,button_left_main,-0.225260417,-0.265625,1,0,0,,0,145,145,102,1,DULLE,C,z,z,./images/DULLE.png,,,,,,,,,,,,,,,,,,,,,,,,,,,,,,,,,,
,,,,,,,,,,,,,,,,,5cc8039e3ef93000171c96b8,35,2022-02-12_14h55.17.455,lexical_decision_task_DD_L6,2021.2.3,Win32,60.73120369,,,,,,,,,,0.7597,1,,,,,,,,,,,,,,,0,0.361979167,-0.2578125,1,0,0,0.7597,button_right_main,0.361979167,-0.2578125,1,0,0,,0,146,146,36,1,BOILER,LB,m,m,./images/BOILERLB.png,,,,,,,,,,,,,,,,,,,,,,,,,,,,,,,,,,
,,,,,,,,,,,,,,,,,5cc8039e3ef93000171c96b8,35,2022-02-12_14h55.17.455,lexical_decision_task_DD_L6,2021.2.3,Win32,60.73120369,,,,,,,,,,0.767599999,1,,,,,,,,,,,,,,,0,-0.282552083,-0.276041667,1,0,0,0.767599999,button_left_main,-0.282552083,-0.276041667,1,0,0,,0,147,147,163,1,GAMBA,HB,z,z,./images/GAMBAHB.png,,,,,,,,,,,,,,,,,,,,,,,,,,,,,,,,,,
,,,,,,,,,,,,,,,,,5cc8039e3ef93000171c96b8,35,2022-02-12_14h55.17.455,lexical_decision_task_DD_L6,2021.2.3,Win32,60.73120369,,,,,,,,,,0.7199,1,,,,,,,,,,,,,,,0,-0.294270833,-0.272135417,1,0,0,0.7199,button_left_main,-0.294270833,-0.272135417,1,0,0,,0,148,148,106,1,CLUMS,HB,z,z,./images/CLUMSHB.png,,,,,,,,,,,,,,,,,,,,,,,,,,,,,,,,,,
,,,,,,,,,,,,,,,,,5cc8039e3ef93000171c96b8,35,2022-02-12_14h55.17.455,lexical_decision_task_DD_L6,2021.2.3,Win32,60.73120369,,,,,,,,,,0.7158,1,,,,,,,,,,,,,,,0,-0.256510417,-0.290364583,1,0,0,0.7158,button_left_main,-0.256510417,-0.290364583,1,0,0,,0,149,149,142,1,PLASK,HB,z,z,./images/PLASKHB.png,,,,,,,,,,,,,,,,,,,,,,,,,,,,,,,,,,
,,,,,,,,,,,,,,,,,5cc8039e3ef93000171c96b8,35,2022-02-12_14h55.17.455,lexical_decision_task_DD_L6,2021.2.3,Win32,60.73120369,,,,,,,,,,0.5991,1,,,,,,,,,,,,,,,0,0.234375,-0.216145833,1,0,0,0.5991,button_right_main,0.234375,-0.216145833,1,0,0,,0,150,150,39,1,CANDY,LB,m,m,./images/CANDYLB.png,,,,,,,,,,,,,,,,,,,,,,,,,,,,,,,,,,
,,,,,,,,,,,,,,,,,5cc8039e3ef93000171c96b8,35,2022-02-12_14h55.17.455,lexical_decision_task_DD_L6,2021.2.3,Win32,60.73120369,,,,,,,,,,0.7008,1,,,,,,,,,,,,,,,0,0.23046875,-0.2421875,1,0,0,0.7008,button_right_main,0.23046875,-0.2421875,1,0,0,,0,151,151,15,1,COLLAR,LB,m,m,./images/COLLARLB.png,,,,,,,,,,,,,,,,,,,,,,,,,,,,,,,,,,
,,,,,,,,,,,,,,,,,5cc8039e3ef93000171c96b8,35,2022-02-12_14h55.17.455,lexical_decision_task_DD_L6,2021.2.3,Win32,60.73120369,,,,,,,,,,0.5975,1,,,,,,,,,,,,,,,0,0.178385417,-0.21484375,1,0,0,0.5975,button_right_main,0.247395833,-0.220052083,1,0,0,,0,152,152,79,1,RULER,C,m,m,./images/RULER.png,,,,,,,,,,,,,,,,,,,,,,,,,,,,,,,,,,
,,,,,,,,,,,,,,,,,5cc8039e3ef93000171c96b8,35,2022-02-12_14h55.17.455,lexical_decision_task_DD_L6,2021.2.3,Win32,60.73120369,,,,,,,,,,0.702400001,1,,,,,,,,,,,,,,,0,0.283854167,-0.234375,1,0,0,0.702400001,button_right_main,0.283854167,-0.234375,1,0,0,,0,153,153,43,1,STOOL,C,m,m,./images/STOOL.png,,,,,,,,,,,,,,,,,,,,,,,,,,,,,,,,,,
,,,,,,,,,,,,,,,,,5cc8039e3ef93000171c96b8,35,2022-02-12_14h55.17.455,lexical_decision_task_DD_L6,2021.2.3,Win32,60.73120369,,,,,,,,,,0.6675,1,,,,,,,,,,,,,,,0,0.423177083,-0.252604167,1,0,0,0.6675,button_right_main,0.423177083,-0.252604167,1,0,0,,0,154,154,2,1,STOVE,HB,m,m,./images/STOVEHB.png,,,,,,,,,,,,,,,,,,,,,,,,,,,,,,,,,,
,,,,,,,,,,,,,,,,,5cc8039e3ef93000171c96b8,35,2022-02-12_14h55.17.455,lexical_decision_task_DD_L6,2021.2.3,Win32,60.73120369,,,,,,,,,,1.2122,0,,,,,,,,,,,,,,,0,-0.23828125,-0.247395833,1,0,0,1.2122,button_left_main,-0.23828125,-0.247395833,1,0,0,,0,155,155,6,1,STAIN,LB,m,m,./images/STAINLB.png,,,,,,,,,,,,,,,,,,,,,,,,,,,,,,,,,,
,,,,,,,,,,,,,,,,,5cc8039e3ef93000171c96b8,35,2022-02-12_14h55.17.455,lexical_decision_task_DD_L6,2021.2.3,Win32,60.73120369,,,,,,,,,,1.202900001,1,,,,,,,,,,,,,,,0,0.369791667,-0.28125,1,0,0,1.202900001,button_right_main,0.369791667,-0.28125,1,0,0,,0,156,156,59,1,BRUSH,HB,m,m,./images/BRUSHHB.png,,,,,,,,,,,,,,,,,,,,,,,,,,,,,,,,,,
,,,,,,,,,,,,,,,,,5cc8039e3ef93000171c96b8,35,2022-02-12_14h55.17.455,lexical_decision_task_DD_L6,2021.2.3,Win32,60.73120369,,,,,,,,,,0.9,1,,,,,,,,,,,,,,,0,-0.263020833,-0.263020833,1,0,0,0.9,button_left_main,-0.263020833,-0.263020833,1,0,0,,0,157,157,126,1,GUELS,C,z,z,./images/GUELS.png,,,,,,,,,,,,,,,,,,,,,,,,,,,,,,,,,,
,,,,,,,,,,,,,,,,,5cc8039e3ef93000171c96b8,35,2022-02-12_14h55.17.455,lexical_decision_task_DD_L6,2021.2.3,Win32,60.73120369,,,,,,,,,,0.6828,1,,,,,,,,,,,,,,,0,0.401041667,-0.27734375,1,0,0,0.6828,button_right_main,0.401041667,-0.27734375,1,0,0,,0,158,158,29,1,PISTOL,HB,m,m,./images/PISTOLHB.png,,,,,,,,,,,,,,,,,,,,,,,,,,,,,,,,,,
,,,,,,,,,,,,,,,,,5cc8039e3ef93000171c96b8,35,2022-02-12_14h55.17.455,lexical_decision_task_DD_L6,2021.2.3,Win32,60.73120369,,,,,,,,,,0.732400001,1,,,,,,,,,,,,,,,0,0.234375,-0.259114583,1,0,0,0.732400001,button_right_main,0.234375,-0.259114583,1,0,0,,0,159,159,23,1,CLOTH,HB,m,m,./images/CLOTHHB.png,,,,,,,,,,,,,,,,,,,,,,,,,,,,,,,,,,
,,,,,,,,,,,,,,,,,5cc8039e3ef93000171c96b8,35,2022-02-12_14h55.17.455,lexical_decision_task_DD_L6,2021.2.3,Win32,60.73120369,,,,,,,,,,0.7315,1,,,,,,,,,,,,,,,0,0.243489583,-0.248697917,1,0,0,0.7315,button_right_main,0.243489583,-0.248697917,1,0,0,,0,160,160,3,1,CRATER,LB,m,m,./images/CRATERLB.png,,,,,,,,,,,,,,,,,,,,,,,,,,,,,,,,,,
,,,,,,,,,,,,,,,,,5cc8039e3ef93000171c96b8,35,2022-02-12_14h55.17.455,lexical_decision_task_DD_L6,2021.2.3,Win32,60.73120369,,,,,,,,,,0.6814,1,,,,,,,,,,,,,,,0,-0.30859375,-0.239583333,1,0,0,0.6814,button_left_main,-0.30859375,-0.239583333,1,0,0,,0,161,161,124,1,TUNCH,HB,z,z,./images/TUNCHHB.png,,,,,,,,,,,,,,,,,,,,,,,,,,,,,,,,,,
,,,,,,,,,,,,,,,,,5cc8039e3ef93000171c96b8,35,2022-02-12_14h55.17.455,lexical_decision_task_DD_L6,2021.2.3,Win32,60.73120369,,,,,,,,,,0.5658,1,,,,,,,,,,,,,,,0,-0.30078125,-0.27734375,1,0,0,0.5658,button_left_main,-0.30078125,-0.27734375,1,0,0,,0,162,162,162,1,LEICH,C,z,z,./images/LEICH.png,,,,,,,,,,,,,,,,,,,,,,,,,,,,,,,,,,
,,,,,,,,,,,,,,,,,5cc8039e3ef93000171c96b8,35,2022-02-12_14h55.17.455,lexical_decision_task_DD_L6,2021.2.3,Win32,60.73120369,,,,,,,,,,0.517599999,1,,,,,,,,,,,,,,,0,0.399739583,-0.296875,1,0,0,0.517599999,button_right_main,0.399739583,-0.296875,1,0,0,,0,163,163,67,1,POKER,C,m,m,./images/POKER.png,,,,,,,,,,,,,,,,,,,,,,,,,,,,,,,,,,
,,,,,,,,,,,,,,,,,5cc8039e3ef93000171c96b8,35,2022-02-12_14h55.17.455,lexical_decision_task_DD_L6,2021.2.3,Win32,60.73120369,,,,,,,,,,0.601099999,1,,,,,,,,,,,,,,,0,-0.311197917,-0.265625,1,0,0,0.601099999,button_left_main,-0.311197917,-0.265625,1,0,0,,0,164,164,87,1,TRING,C,z,z,./images/TRING.png,,,,,,,,,,,,,,,,,,,,,,,,,,,,,,,,,,
,,,,,,,,,,,,,,,,,5cc8039e3ef93000171c96b8,35,2022-02-12_14h55.17.455,lexical_decision_task_DD_L6,2021.2.3,Win32,60.73120369,,,,,,,,,,0.680599999,1,,,,,,,,,,,,,,,0,0.26953125,-0.26171875,1,0,0,0.680599999,button_right_main,0.26953125,-0.26171875,1,0,0,,0,165,165,14,1,FENCE,HB,m,m,./images/FENCEHB.png,,,,,,,,,,,,,,,,,,,,,,,,,,,,,,,,,,
,,,,,,,,,,,,,,,,,5cc8039e3ef93000171c96b8,35,2022-02-12_14h55.17.455,lexical_decision_task_DD_L6,2021.2.3,Win32,60.73120369,,,,,,,,,,0.679900001,1,,,,,,,,,,,,,,,0,-0.286458333,-0.279947917,1,0,0,0.679900001,button_left_main,-0.286458333,-0.279947917,1,0,0,,0,166,166,125,1,MOOKY,LB,z,z,./images/MOOKYLB.png,,,,,,,,,,,,,,,,,,,,,,,,,,,,,,,,,,
,,,,,,,,,,,,,,,,,5cc8039e3ef93000171c96b8,35,2022-02-12_14h55.17.455,lexical_decision_task_DD_L6,2021.2.3,Win32,60.73120369,,,,,,,,,,0.8861,1,,,,,,,,,,,,,,,0,0.27734375,-0.239583333,1,0,0,0.8861,button_right_main,0.27734375,-0.239583333,1,0,0,,0,167,167,12,1,BLOKE,LB,m,m,./images/BLOKELB.png,,,,,,,,,,,,,,,,,,,,,,,,,,,,,,,,,,
,,,,,,,,,,,,,,,,,5cc8039e3ef93000171c96b8,35,2022-02-12_14h55.17.455,lexical_decision_task_DD_L6,2021.2.3,Win32,60.73120369,,,,,,,,,,,,,,,,,,,,,,,,,,,,,,,,,,,,,,,,,,,,,,How likely will it be that you will recognize the words presented very blurred on a scale of 0 (not likely) to 100 (most likely)?,,,,,0.014322917,-0.4375,1,0,0,jol_adv,3,5.4749,0,0,0,2,1,,,,,,,,,,,,,,,,,,,,
,,,,,,,,,,,,,,,,,5cc8039e3ef93000171c96b8,35,2022-02-12_14h55.17.455,lexical_decision_task_DD_L6,2021.2.3,Win32,60.73120369,,,,,,,,,,,,,,,,,,,,,,,,,,,,,,,,,,,,,,,,,,,,,,How likely will it be that you will recognize the words presented clearly on a scale of 0 (not likely) to 100 (most likely)?,,,,,,,,,,,6,5.047299999,0,1,1,0,1,,,,,,,,,,,,,,,,,,,,
,,,,,,,,,,,,,,,,,5cc8039e3ef93000171c96b8,35,2022-02-12_14h55.17.455,lexical_decision_task_DD_L6,2021.2.3,Win32,60.73120369,,,,,,,,,,,,,,,,,,,,,,,,,,,,,,,,,,,,,,,,,,,,,,How likely will it be that you will recognize the words presented slighly blurred on a scale of 0 (not likely) to 100 (most likely)?,,,,,,,,,,,5,4.2085,0,2,2,1,1,,,,,,,,,,,,,,,,,,,,
,0.00390625,-0.397135417,1,0,0,instr_done_button,,,,,,1,test,"In the next phase you will be presented with the words from the the first phase. Your job is to decide whether you remember seeing the word or not. If you remember seeing the word press ""old"" or type ""m"". If you do not remember seeing the word press ""new"" or type ""z"". Please press the space bar or click on continue to begin. ",,,5cc8039e3ef93000171c96b8,35,2022-02-12_14h55.17.455,lexical_decision_task_DD_L6,2021.2.3,Win32,60.73120369,,,,,,,,,,,,,,,,,,,,,,,,,,,,,,,,,,,,,,,,,,,,,,,,,,,,,,,,,,,,,,,,0,0,0,0,1,,,,,,,,,,,,,,,
,-0.010416667,-0.397135417,1,0,0,instr_done_button,,,,,,1,test,"In the next phase you will be presented with the words from the the first phase. Your job is to decide whether you remember seeing the word or not. If you remember seeing the word press ""old"" or type ""m"". If you do not remember seeing the word press ""new"" or type ""z"". Please press the space bar or click on continue to begin. ",,,5cc8039e3ef93000171c96b8,35,2022-02-12_14h55.17.455,lexical_decision_task_DD_L6,2021.2.3,Win32,60.73120369,,,,,,,,,,,,,,,,,,,,,,,,,,,,,,,,,,,,,,,,,,,,,,,,,,,,,,,,,,,,,,,,1,0,1,0,1,,,,,,,,,,,,,,,
space,0.052083333,-0.30078125,0,0,0,,,,,,,1,test,"In the next phase you will be presented with the words from the the first phase. Your job is to decide whether you remember seeing the word or not. If you remember seeing the word press ""old"" or type ""m"". If you do not remember seeing the word press ""new"" or type ""z"". Please press the space bar or click on continue to begin. ",,,5cc8039e3ef93000171c96b8,35,2022-02-12_14h55.17.455,lexical_decision_task_DD_L6,2021.2.3,Win32,60.73120369,,,,,,,,,,,,,,,,,,,,,,,,,,,,,,,,,,,,,,,,,,,,,,,,,,,,,,,,,,,,,,,,2,0,2,0,1,1.3224,,,,,,,,,,,,,,
,0.013020833,-0.40625,1,0,0,instr_done_button,,,,,,1,test,"In the next phase you will be presented with the words from the the first phase. Your job is to decide whether you remember seeing the word or not. If you remember seeing the word press ""old"" or type ""m"". If you do not remember seeing the word press ""new"" or type ""z"". Please press the space bar or click on continue to begin. ",,,5cc8039e3ef93000171c96b8,35,2022-02-12_14h55.17.455,lexical_decision_task_DD_L6,2021.2.3,Win32,60.73120369,,,,,,,,,,,,,,,,,,,,,,,,,,,,,,,,,,,,,,,,,,,,,,,,,,,,,,,,,,,,,,,,3,0,3,0,1,,,,,,,,,,,,,,,
,0.106770833,-0.432291667,1,0,0,instr_done_button,,,,,,1,test,"In the next phase you will be presented with the words from the the first phase. Your job is to decide whether you remember seeing the word or not. If you remember seeing the word press ""old"" or type ""m"". If you do not remember seeing the word press ""new"" or type ""z"". Please press the space bar or click on continue to begin. ",,,5cc8039e3ef93000171c96b8,35,2022-02-12_14h55.17.455,lexical_decision_task_DD_L6,2021.2.3,Win32,60.73120369,,,,,,,,,,,,,,,,,,,,,,,,,,,,,,,,,,,,,,,,,,,,,,,,,,,,,,,,,,,,,,,,4,0,4,0,1,,,,,,,,,,,,,,,
,,,,,,,,,,,,,,,,,5cc8039e3ef93000171c96b8,35,2022-02-12_14h55.17.455,lexical_decision_task_DD_L6,2021.2.3,Win32,60.73120369,,,,,,,,,,1.540099999,0,,,,,,,,,,,,,,,,,,,,,,,0.348958333,-0.303385417,1,0,0,,,,,,,FALCON,C,z,y,./images/FALCON.png,,,,,,,,,,,,,,,,,,,,,,0,0.348958333,-0.303385417,1,0,0,1.540099999,button_right_test,0,0,0,112,1
,,,,,,,,,,,,,,,,,5cc8039e3ef93000171c96b8,35,2022-02-12_14h55.17.455,lexical_decision_task_DD_L6,2021.2.3,Win32,60.73120369,,,,,,,,,,0.6675,1,,,,,,,,,,,,,,,,,,,,,,,0.3359375,-0.328125,1,0,0,,,,,,,SLOPE,LB,m,y,./images/SLOPELB.png,,,,,,,,,,,,,,,,,,,,,,0,0.3359375,-0.328125,1,0,0,0.6675,button_right_test,0,1,1,30,1
,,,,,,,,,,,,,,,,,5cc8039e3ef93000171c96b8,35,2022-02-12_14h55.17.455,lexical_decision_task_DD_L6,2021.2.3,Win32,60.73120369,,,,,,,,,,0.863,1,,,,,,,,,,,,,,,,,,,,,,,-0.40234375,-0.31640625,1,0,0,,,,,,,MALLET,HB,z,y,./images/MALLETHB.png,,,,,,,,,,,,,,,,,,,,,,0,-0.40234375,-0.31640625,1,0,0,0.863,button_left_test,0,2,2,134,1
,,,,,,,,,,,,,,,,,5cc8039e3ef93000171c96b8,35,2022-02-12_14h55.17.455,lexical_decision_task_DD_L6,2021.2.3,Win32,60.73120369,,,,,,,,,,0.7948,1,,,,,,,,,,,,,,,,,,,,,,,-0.290364583,-0.3359375,1,0,0,,,,,,,WRIST,C,z,y,./images/WRIST.png,,,,,,,,,,,,,,,,,,,,,,0,-0.290364583,-0.3359375,1,0,0,0.7948,button_left_test,0,3,3,109,1
,,,,,,,,,,,,,,,,,5cc8039e3ef93000171c96b8,35,2022-02-12_14h55.17.455,lexical_decision_task_DD_L6,2021.2.3,Win32,60.73120369,,,,,,,,,,0.696,1,,,,,,,,,,,,,,,,,,,,,,,0.40234375,-0.309895833,1,0,0,,,,,,,DONKEY,C,m,y,./images/DONKEY.png,,,,,,,,,,,,,,,,,,,,,,0,0.40234375,-0.309895833,1,0,0,0.696,button_right_test,0,4,4,19,1
,,,,,,,,,,,,,,,,,5cc8039e3ef93000171c96b8,35,2022-02-12_14h55.17.455,lexical_decision_task_DD_L6,2021.2.3,Win32,60.73120369,,,,,,,,,,0.7,1,,,,,,,,,,,,,,,,,,,,,,,0.356770833,-0.311197917,1,0,0,,,,,,,ALLEY,C,m,y,./images/ALLEY.png,,,,,,,,,,,,,,,,,,,,,,0,0.356770833,-0.311197917,1,0,0,0.7,button_right_test,0,5,5,55,1
,,,,,,,,,,,,,,,,,5cc8039e3ef93000171c96b8,35,2022-02-12_14h55.17.455,lexical_decision_task_DD_L6,2021.2.3,Win32,60.73120369,,,,,,,,,,0.6804,1,,,,,,,,,,,,,,,,,,,,,,,0.243489583,-0.309895833,1,0,0,,,,,,,ENGINE,HB,m,y,./images/ENGINEHB.png,,,,,,,,,,,,,,,,,,,,,,0,0.243489583,-0.309895833,1,0,0,0.6804,button_right_test,0,6,6,38,1
,,,,,,,,,,,,,,,,,5cc8039e3ef93000171c96b8,35,2022-02-12_14h55.17.455,lexical_decision_task_DD_L6,2021.2.3,Win32,60.73120369,,,,,,,,,,0.8811,1,,,,,,,,,,,,,,,,,,,,,,,-0.342447917,-0.279947917,1,0,0,,,,,,,CRUMB,HB,z,y,./images/CRUMBHB.png,,,,,,,,,,,,,,,,,,,,,,0,-0.342447917,-0.279947917,1,0,0,0.8811,button_left_test,0,7,7,113,1
,,,,,,,,,,,,,,,,,5cc8039e3ef93000171c96b8,35,2022-02-12_14h55.17.455,lexical_decision_task_DD_L6,2021.2.3,Win32,60.73120369,,,,,,,,,,0.6805,1,,,,,,,,,,,,,,,,,,,,,,,0.34765625,-0.302083333,1,0,0,,,,,,,GARDEN,C,m,y,./images/GARDEN.png,,,,,,,,,,,,,,,,,,,,,,0,0.34765625,-0.302083333,1,0,0,0.6805,button_right_test,0,8,8,10,1
,,,,,,,,,,,,,,,,,5cc8039e3ef93000171c96b8,35,2022-02-12_14h55.17.455,lexical_decision_task_DD_L6,2021.2.3,Win32,60.73120369,,,,,,,,,,0.6815,1,,,,,,,,,,,,,,,,,,,,,,,0.385416667,-0.28125,1,0,0,,,,,,,STEAK,C,m,y,./images/STEAK.png,,,,,,,,,,,,,,,,,,,,,,0,0.385416667,-0.28125,1,0,0,0.6815,button_right_test,0,9,9,31,1
,,,,,,,,,,,,,,,,,5cc8039e3ef93000171c96b8,35,2022-02-12_14h55.17.455,lexical_decision_task_DD_L6,2021.2.3,Win32,60.73120369,,,,,,,,,,0.712599999,1,,,,,,,,,,,,,,,,,,,,,,,-0.263020833,-0.274739583,1,0,0,,,,,,,PEARL,C,z,y,./images/PEARL.png,,,,,,,,,,,,,,,,,,,,,,0,-0.263020833,-0.274739583,1,0,0,0.712599999,button_left_test,0,10,10,130,1
,,,,,,,,,,,,,,,,,5cc8039e3ef93000171c96b8,35,2022-02-12_14h55.17.455,lexical_decision_task_DD_L6,2021.2.3,Win32,60.73120369,,,,,,,,,,1.0105,1,,,,,,,,,,,,,,,,,,,,,,,0.412760417,-0.282552083,1,0,0,,,,,,,PEBBLE,C,m,y,./images/PEBBLE.png,,,,,,,,,,,,,,,,,,,,,,0,0.412760417,-0.282552083,1,0,0,1.0105,button_right_test,0,11,11,82,1
,,,,,,,,,,,,,,,,,5cc8039e3ef93000171c96b8,35,2022-02-12_14h55.17.455,lexical_decision_task_DD_L6,2021.2.3,Win32,60.73120369,,,,,,,,,,0.757599999,1,,,,,,,,,,,,,,,,,,,,,,,0.296875,-0.260416667,1,0,0,,,,,,,LLAMA,HB,m,y,./images/LLAMAHB.png,,,,,,,,,,,,,,,,,,,,,,0,0.296875,-0.260416667,1,0,0,0.757599999,button_right_test,0,12,12,35,1
,,,,,,,,,,,,,,,,,5cc8039e3ef93000171c96b8,35,2022-02-12_14h55.17.455,lexical_decision_task_DD_L6,2021.2.3,Win32,60.73120369,,,,,,,,,,0.6491,1,,,,,,,,,,,,,,,,,,,,,,,0.39453125,-0.333333333,1,0,0,,,,,,,RAZOR,C,m,y,./images/RAZOR.png,,,,,,,,,,,,,,,,,,,,,,0,0.39453125,-0.333333333,1,0,0,0.6491,button_right_test,0,13,13,34,1
,,,,,,,,,,,,,,,,,5cc8039e3ef93000171c96b8,35,2022-02-12_14h55.17.455,lexical_decision_task_DD_L6,2021.2.3,Win32,60.73120369,,,,,,,,,,0.5923,1,,,,,,,,,,,,,,,,,,,,,,,-0.21484375,-0.265625,1,0,0,,,,,,,CEMENT,HB,z,y,./images/CEMENTHB.png,,,,,,,,,,,,,,,,,,,,,,0,-0.21484375,-0.265625,1,0,0,0.5923,button_left_test,0,14,14,158,1
,,,,,,,,,,,,,,,,,5cc8039e3ef93000171c96b8,35,2022-02-12_14h55.17.455,lexical_decision_task_DD_L6,2021.2.3,Win32,60.73120369,,,,,,,,,,0.638299999,1,,,,,,,,,,,,,,,,,,,,,,,0.34375,-0.291666667,1,0,0,,,,,,,BRUSH,HB,m,y,./images/BRUSHHB.png,,,,,,,,,,,,,,,,,,,,,,0,0.34375,-0.291666667,1,0,0,0.638299999,button_right_test,0,15,15,59,1
,,,,,,,,,,,,,,,,,5cc8039e3ef93000171c96b8,35,2022-02-12_14h55.17.455,lexical_decision_task_DD_L6,2021.2.3,Win32,60.73120369,,,,,,,,,,0.6302,1,,,,,,,,,,,,,,,,,,,,,,,0.256510417,-0.279947917,1,0,0,,,,,,,TOWEL,C,m,y,./images/TOWEL.png,,,,,,,,,,,,,,,,,,,,,,0,0.256510417,-0.279947917,1,0,0,0.6302,button_right_test,0,16,16,1,1
,,,,,,,,,,,,,,,,,5cc8039e3ef93000171c96b8,35,2022-02-12_14h55.17.455,lexical_decision_task_DD_L6,2021.2.3,Win32,60.73120369,,,,,,,,,,0.8285,0,,,,,,,,,,,,,,,,,,,,,,,0.325520833,-0.279947917,1,0,0,,,,,,,NOOSE,LB,z,y,./images/NOOSELB.png,,,,,,,,,,,,,,,,,,,,,,0,0.325520833,-0.279947917,1,0,0,0.8285,button_right_test,0,17,17,156,1
,,,,,,,,,,,,,,,,,5cc8039e3ef93000171c96b8,35,2022-02-12_14h55.17.455,lexical_decision_task_DD_L6,2021.2.3,Win32,60.73120369,,,,,,,,,,0.7131,1,,,,,,,,,,,,,,,,,,,,,,,-0.221354167,-0.286458333,1,0,0,,,,,,,THROAT,LB,z,y,./images/THROATLB.png,,,,,,,,,,,,,,,,,,,,,,0,-0.221354167,-0.286458333,1,0,0,0.7131,button_left_test,0,18,18,120,1
,,,,,,,,,,,,,,,,,5cc8039e3ef93000171c96b8,35,2022-02-12_14h55.17.455,lexical_decision_task_DD_L6,2021.2.3,Win32,60.73120369,,,,,,,,,,0.6787,1,,,,,,,,,,,,,,,,,,,,,,,-0.247395833,-0.287760417,1,0,0,,,,,,,CRADLE,HB,z,y,./images/CRADLEHB.png,,,,,,,,,,,,,,,,,,,,,,0,-0.247395833,-0.287760417,1,0,0,0.6787,button_left_test,0,19,19,104,1
,,,,,,,,,,,,,,,,,5cc8039e3ef93000171c96b8,35,2022-02-12_14h55.17.455,lexical_decision_task_DD_L6,2021.2.3,Win32,60.73120369,,,,,,,,,,0.5475,1,,,,,,,,,,,,,,,,,,,,,,,-0.2578125,-0.2890625,1,0,0,,,,,,,BANNER,C,z,y,./images/BANNER.png,,,,,,,,,,,,,,,,,,,,,,0,-0.2578125,-0.2890625,1,0,0,0.5475,button_left_test,0,20,20,136,1
,,,,,,,,,,,,,,,,,5cc8039e3ef93000171c96b8,35,2022-02-12_14h55.17.455,lexical_decision_task_DD_L6,2021.2.3,Win32,60.73120369,,,,,,,,,,0.9104,0,,,,,,,,,,,,,,,,,,,,,,,0.26953125,-0.27734375,1,0,0,,,,,,,JELLY,C,z,y,./images/JELLY.png,,,,,,,,,,,,,,,,,,,,,,0,0.26953125,-0.27734375,1,0,0,0.9104,button_right_test,0,21,21,148,1
,,,,,,,,,,,,,,,,,5cc8039e3ef93000171c96b8,35,2022-02-12_14h55.17.455,lexical_decision_task_DD_L6,2021.2.3,Win32,60.73120369,,,,,,,,,,0.848599999,1,,,,,,,,,,,,,,,,,,,,,,,0.329427083,-0.294270833,1,0,0,,,,,,,BLOKE,LB,m,y,./images/BLOKELB.png,,,,,,,,,,,,,,,,,,,,,,0,0.329427083,-0.294270833,1,0,0,0.848599999,button_right_test,0,22,22,12,1
,,,,,,,,,,,,,,,,,5cc8039e3ef93000171c96b8,35,2022-02-12_14h55.17.455,lexical_decision_task_DD_L6,2021.2.3,Win32,60.73120369,,,,,,,,,,0.6785,1,,,,,,,,,,,,,,,,,,,,,,,-0.21875,-0.247395833,1,0,0,,,,,,,STORM,LB,z,y,./images/STORMLB.png,,,,,,,,,,,,,,,,,,,,,,0,-0.21875,-0.247395833,1,0,0,0.6785,button_left_test,0,23,23,114,1
,,,,,,,,,,,,,,,,,5cc8039e3ef93000171c96b8,35,2022-02-12_14h55.17.455,lexical_decision_task_DD_L6,2021.2.3,Win32,60.73120369,,,,,,,,,,0.9292,1,,,,,,,,,,,,,,,,,,,,,,,-0.376302083,-0.25,1,0,0,,,,,,,STRING,HB,z,y,./images/STRINGHB.png,,,,,,,,,,,,,,,,,,,,,,0,-0.376302083,-0.25,1,0,0,0.9292,button_left_test,0,24,24,125,1
,,,,,,,,,,,,,,,,,5cc8039e3ef93000171c96b8,35,2022-02-12_14h55.17.455,lexical_decision_task_DD_L6,2021.2.3,Win32,60.73120369,,,,,,,,,,0.6319,1,,,,,,,,,,,,,,,,,,,,,,,0.359375,-0.272135417,1,0,0,,,,,,,ARROW,LB,m,y,./images/ARROWLB.png,,,,,,,,,,,,,,,,,,,,,,0,0.359375,-0.272135417,1,0,0,0.6319,button_right_test,0,25,25,69,1
,,,,,,,,,,,,,,,,,5cc8039e3ef93000171c96b8,35,2022-02-12_14h55.17.455,lexical_decision_task_DD_L6,2021.2.3,Win32,60.73120369,,,,,,,,,,0.8135,0,,,,,,,,,,,,,,,,,,,,,,,0.35546875,-0.282552083,1,0,0,,,,,,,MAGGOT,LB,z,y,./images/MAGGOTLB.png,,,,,,,,,,,,,,,,,,,,,,0,0.35546875,-0.282552083,1,0,0,0.8135,button_right_test,0,26,26,117,1
,,,,,,,,,,,,,,,,,5cc8039e3ef93000171c96b8,35,2022-02-12_14h55.17.455,lexical_decision_task_DD_L6,2021.2.3,Win32,60.73120369,,,,,,,,,,0.6103,1,,,,,,,,,,,,,,,,,,,,,,,0.231770833,-0.268229167,1,0,0,,,,,,,SAUNA,LB,m,y,./images/SAUNALB.png,,,,,,,,,,,,,,,,,,,,,,0,0.231770833,-0.268229167,1,0,0,0.6103,button_right_test,0,27,27,33,1
,,,,,,,,,,,,,,,,,5cc8039e3ef93000171c96b8,35,2022-02-12_14h55.17.455,lexical_decision_task_DD_L6,2021.2.3,Win32,60.73120369,,,,,,,,,,0.8808,1,,,,,,,,,,,,,,,,,,,,,,,-0.2421875,-0.270833333,1,0,0,,,,,,,DOUGH,C,z,y,./images/DOUGH.png,,,,,,,,,,,,,,,,,,,,,,0,-0.2421875,-0.270833333,1,0,0,0.8808,button_left_test,0,28,28,103,1
,,,,,,,,,,,,,,,,,5cc8039e3ef93000171c96b8,35,2022-02-12_14h55.17.455,lexical_decision_task_DD_L6,2021.2.3,Win32,60.73120369,,,,,,,,,,0.7131,1,,,,,,,,,,,,,,,,,,,,,,,-0.231770833,-0.303385417,1,0,0,,,,,,,WALRUS,HB,z,y,./images/WALRUSHB.png,,,,,,,,,,,,,,,,,,,,,,0,-0.231770833,-0.303385417,1,0,0,0.7131,button_left_test,0,29,29,107,1
,,,,,,,,,,,,,,,,,5cc8039e3ef93000171c96b8,35,2022-02-12_14h55.17.455,lexical_decision_task_DD_L6,2021.2.3,Win32,60.73120369,,,,,,,,,,0.6512,0,,,,,,,,,,,,,,,,,,,,,,,-0.231770833,-0.303385417,1,0,0,,,,,,,PLANET,HB,m,y,./images/PLANETHB.png,,,,,,,,,,,,,,,,,,,,,,0,-0.231770833,-0.303385417,1,0,0,0.6512,button_left_test,0,30,30,80,1
,,,,,,,,,,,,,,,,,5cc8039e3ef93000171c96b8,35,2022-02-12_14h55.17.455,lexical_decision_task_DD_L6,2021.2.3,Win32,60.73120369,,,,,,,,,,0.629599999,1,,,,,,,,,,,,,,,,,,,,,,,0.352864583,-0.291666667,1,0,0,,,,,,,DRILL,LB,m,y,./images/DRILLLB.png,,,,,,,,,,,,,,,,,,,,,,0,0.352864583,-0.291666667,1,0,0,0.629599999,button_right_test,0,31,31,81,1
,,,,,,,,,,,,,,,,,5cc8039e3ef93000171c96b8,35,2022-02-12_14h55.17.455,lexical_decision_task_DD_L6,2021.2.3,Win32,60.73120369,,,,,,,,,,0.6655,1,,,,,,,,,,,,,,,,,,,,,,,-0.244791667,-0.291666667,1,0,0,,,,,,,BURIAL,HB,z,y,./images/BURIALHB.png,,,,,,,,,,,,,,,,,,,,,,0,-0.244791667,-0.291666667,1,0,0,0.6655,button_left_test,0,32,32,143,1
,,,,,,,,,,,,,,,,,5cc8039e3ef93000171c96b8,35,2022-02-12_14h55.17.455,lexical_decision_task_DD_L6,2021.2.3,Win32,60.73120369,,,,,,,,,,0.6491,1,,,,,,,,,,,,,,,,,,,,,,,-0.263020833,-0.263020833,1,0,0,,,,,,,SNACK,C,z,y,./images/SNACK.png,,,,,,,,,,,,,,,,,,,,,,0,-0.263020833,-0.263020833,1,0,0,0.6491,button_left_test,0,33,33,157,1
,,,,,,,,,,,,,,,,,5cc8039e3ef93000171c96b8,35,2022-02-12_14h55.17.455,lexical_decision_task_DD_L6,2021.2.3,Win32,60.73120369,,,,,,,,,,1.0434,1,,,,,,,,,,,,,,,,,,,,,,,0.234375,-0.266927083,1,0,0,,,,,,,ARTIST,C,m,y,./images/ARTIST.png,,,,,,,,,,,,,,,,,,,,,,0,0.234375,-0.266927083,1,0,0,1.0434,button_right_test,0,34,34,61,1
,,,,,,,,,,,,,,,,,5cc8039e3ef93000171c96b8,35,2022-02-12_14h55.17.455,lexical_decision_task_DD_L6,2021.2.3,Win32,60.73120369,,,,,,,,,,0.647599999,1,,,,,,,,,,,,,,,,,,,,,,,-0.352864583,-0.255208333,1,0,0,,,,,,,TWINS,LB,z,y,./images/TWINSLB.png,,,,,,,,,,,,,,,,,,,,,,0,-0.352864583,-0.255208333,1,0,0,0.647599999,button_left_test,0,35,35,144,1
,,,,,,,,,,,,,,,,,5cc8039e3ef93000171c96b8,35,2022-02-12_14h55.17.455,lexical_decision_task_DD_L6,2021.2.3,Win32,60.73120369,,,,,,,,,,0.6796,1,,,,,,,,,,,,,,,,,,,,,,,-0.235677083,-0.2421875,1,0,0,,,,,,,SKIING,HB,z,y,./images/SKIINGHB.png,,,,,,,,,,,,,,,,,,,,,,0,-0.235677083,-0.2421875,1,0,0,0.6796,button_left_test,0,36,36,101,1
,,,,,,,,,,,,,,,,,5cc8039e3ef93000171c96b8,35,2022-02-12_14h55.17.455,lexical_decision_task_DD_L6,2021.2.3,Win32,60.73120369,,,,,,,,,,0.830299999,0,,,,,,,,,,,,,,,,,,,,,,,0.346354167,-0.27734375,1,0,0,,,,,,,SWING,C,z,y,./images/SWING.png,,,,,,,,,,,,,,,,,,,,,,0,0.346354167,-0.27734375,1,0,0,0.830299999,button_right_test,0,37,37,124,1
,,,,,,,,,,,,,,,,,5cc8039e3ef93000171c96b8,35,2022-02-12_14h55.17.455,lexical_decision_task_DD_L6,2021.2.3,Win32,60.73120369,,,,,,,,,,0.6499,1,,,,,,,,,,,,,,,,,,,,,,,-0.248697917,-0.2578125,1,0,0,,,,,,,COOKER,LB,z,y,./images/COOKERLB.png,,,,,,,,,,,,,,,,,,,,,,0,-0.182291667,-0.26171875,1,0,0,0.6499,button_left_test,0,38,38,153,1
,,,,,,,,,,,,,,,,,5cc8039e3ef93000171c96b8,35,2022-02-12_14h55.17.455,lexical_decision_task_DD_L6,2021.2.3,Win32,60.73120369,,,,,,,,,,0.6473,1,,,,,,,,,,,,,,,,,,,,,,,0.47265625,-0.266927083,1,0,0,,,,,,,BAKER,LB,m,y,./images/BAKERLB.png,,,,,,,,,,,,,,,,,,,,,,0,0.47265625,-0.266927083,1,0,0,0.6473,button_right_test,0,39,39,63,1
,,,,,,,,,,,,,,,,,5cc8039e3ef93000171c96b8,35,2022-02-12_14h55.17.455,lexical_decision_task_DD_L6,2021.2.3,Win32,60.73120369,,,,,,,,,,0.6333,1,,,,,,,,,,,,,,,,,,,,,,,0.365885417,-0.279947917,1,0,0,,,,,,,WALNUT,LB,m,y,./images/WALNUTLB.png,,,,,,,,,,,,,,,,,,,,,,0,0.365885417,-0.279947917,1,0,0,0.6333,button_right_test,0,40,40,0,1
,,,,,,,,,,,,,,,,,5cc8039e3ef93000171c96b8,35,2022-02-12_14h55.17.455,lexical_decision_task_DD_L6,2021.2.3,Win32,60.73120369,,,,,,,,,,0.7288,1,,,,,,,,,,,,,,,,,,,,,,,0.057291667,-0.389322917,1,0,0,,,,,,,BOILER,LB,m,y,./images/BOILERLB.png,break_done_button,,,,,,,,,,,,,,,,,,,,,0,0.248697917,-0.263020833,1,0,0,0.7288,button_right_test,0,41,41,36,1
,,,,,,,,,,,,,,,,,5cc8039e3ef93000171c96b8,35,2022-02-12_14h55.17.455,lexical_decision_task_DD_L6,2021.2.3,Win32,60.73120369,,,,,,,,,,0.5933,1,,,,,,,,,,,,,,,,,,,,,,,0.46484375,-0.303385417,1,0,0,,,,,,,HOCKEY,HB,m,y,./images/HOCKEYHB.png,,,,,,,,,,,,,,,,,,,,,,0,0.46484375,-0.303385417,1,0,0,0.5933,button_right_test,0,42,42,32,1
,,,,,,,,,,,,,,,,,5cc8039e3ef93000171c96b8,35,2022-02-12_14h55.17.455,lexical_decision_task_DD_L6,2021.2.3,Win32,60.73120369,,,,,,,,,,0.6001,1,,,,,,,,,,,,,,,,,,,,,,,0.3125,-0.255208333,1,0,0,,,,,,,CRATER,LB,m,y,./images/CRATERLB.png,,,,,,,,,,,,,,,,,,,,,,0,0.3125,-0.255208333,1,0,0,0.6001,button_right_test,0,43,43,3,1
,,,,,,,,,,,,,,,,,5cc8039e3ef93000171c96b8,35,2022-02-12_14h55.17.455,lexical_decision_task_DD_L6,2021.2.3,Win32,60.73120369,,,,,,,,,,0.616400001,1,,,,,,,,,,,,,,,,,,,,,,,0.369791667,-0.298177083,1,0,0,,,,,,,MEDAL,HB,m,y,./images/MEDALHB.png,,,,,,,,,,,,,,,,,,,,,,0,0.369791667,-0.298177083,1,0,0,0.616400001,button_right_test,0,44,44,11,1
,,,,,,,,,,,,,,,,,5cc8039e3ef93000171c96b8,35,2022-02-12_14h55.17.455,lexical_decision_task_DD_L6,2021.2.3,Win32,60.73120369,,,,,,,,,,0.695299999,1,,,,,,,,,,,,,,,,,,,,,,,-0.274739583,-0.276041667,1,0,0,,,,,,,GREASE,LB,z,y,./images/GREASELB.png,,,,,,,,,,,,,,,,,,,,,,0,-0.274739583,-0.276041667,1,0,0,0.695299999,button_left_test,0,45,45,99,1
,,,,,,,,,,,,,,,,,5cc8039e3ef93000171c96b8,35,2022-02-12_14h55.17.455,lexical_decision_task_DD_L6,2021.2.3,Win32,60.73120369,,,,,,,,,,0.782,1,,,,,,,,,,,,,,,,,,,,,,,-0.28125,-0.272135417,1,0,0,,,,,,,BONNET,HB,z,y,./images/BONNETHB.png,,,,,,,,,,,,,,,,,,,,,,0,-0.28125,-0.272135417,1,0,0,0.782,button_left_test,0,46,46,95,1
,,,,,,,,,,,,,,,,,5cc8039e3ef93000171c96b8,35,2022-02-12_14h55.17.455,lexical_decision_task_DD_L6,2021.2.3,Win32,60.73120369,,,,,,,,,,0.7653,1,,,,,,,,,,,,,,,,,,,,,,,0.315104167,-0.315104167,1,0,0,,,,,,,CANDY,LB,m,y,./images/CANDYLB.png,,,,,,,,,,,,,,,,,,,,,,0,0.315104167,-0.315104167,1,0,0,0.7653,button_right_test,0,47,47,39,1
,,,,,,,,,,,,,,,,,5cc8039e3ef93000171c96b8,35,2022-02-12_14h55.17.455,lexical_decision_task_DD_L6,2021.2.3,Win32,60.73120369,,,,,,,,,,0.6125,1,,,,,,,,,,,,,,,,,,,,,,,0.227864583,-0.286458333,1,0,0,,,,,,,STREAM,HB,m,y,./images/STREAMHB.png,,,,,,,,,,,,,,,,,,,,,,0,0.227864583,-0.286458333,1,0,0,0.6125,button_right_test,0,48,48,41,1
,,,,,,,,,,,,,,,,,5cc8039e3ef93000171c96b8,35,2022-02-12_14h55.17.455,lexical_decision_task_DD_L6,2021.2.3,Win32,60.73120369,,,,,,,,,,0.7787,0,,,,,,,,,,,,,,,,,,,,,,,0.24609375,-0.28125,1,0,0,,,,,,,BERRY,HB,z,y,./images/BERRYHB.png,,,,,,,,,,,,,,,,,,,,,,0,0.24609375,-0.28125,1,0,0,0.7787,button_right_test,0,49,49,131,1
,,,,,,,,,,,,,,,,,5cc8039e3ef93000171c96b8,35,2022-02-12_14h55.17.455,lexical_decision_task_DD_L6,2021.2.3,Win32,60.73120369,,,,,,,,,,0.631,1,,,,,,,,,,,,,,,,,,,,,,,-0.251302083,-0.264322917,1,0,0,,,,,,,TULIP,HB,z,y,./images/TULIPHB.png,,,,,,,,,,,,,,,,,,,,,,0,-0.251302083,-0.264322917,1,0,0,0.631,button_left_test,0,50,50,92,1
,,,,,,,,,,,,,,,,,5cc8039e3ef93000171c96b8,35,2022-02-12_14h55.17.455,lexical_decision_task_DD_L6,2021.2.3,Win32,60.73120369,,,,,,,,,,0.763400001,1,,,,,,,,,,,,,,,,,,,,,,,-0.298177083,-0.26171875,1,0,0,,,,,,,FOLDER,LB,z,y,./images/FOLDERLB.png,,,,,,,,,,,,,,,,,,,,,,0,-0.298177083,-0.26171875,1,0,0,0.763400001,button_left_test,0,51,51,126,1
,,,,,,,,,,,,,,,,,5cc8039e3ef93000171c96b8,35,2022-02-12_14h55.17.455,lexical_decision_task_DD_L6,2021.2.3,Win32,60.73120369,,,,,,,,,,0.6795,1,,,,,,,,,,,,,,,,,,,,,,,0.354166667,-0.272135417,1,0,0,,,,,,,PARADE,HB,m,y,./images/PARADEHB.png,,,,,,,,,,,,,,,,,,,,,,0,0.354166667,-0.272135417,1,0,0,0.6795,button_right_test,0,52,52,17,1
,,,,,,,,,,,,,,,,,5cc8039e3ef93000171c96b8,35,2022-02-12_14h55.17.455,lexical_decision_task_DD_L6,2021.2.3,Win32,60.73120369,,,,,,,,,,0.82,1,,,,,,,,,,,,,,,,,,,,,,,0.3359375,-0.28125,1,0,0,,,,,,,CLIFF,HB,m,y,./images/CLIFFHB.png,,,,,,,,,,,,,,,,,,,,,,0,0.3359375,-0.28125,1,0,0,0.82,button_right_test,0,53,53,8,1
,,,,,,,,,,,,,,,,,5cc8039e3ef93000171c96b8,35,2022-02-12_14h55.17.455,lexical_decision_task_DD_L6,2021.2.3,Win32,60.73120369,,,,,,,,,,0.7026,1,,,,,,,,,,,,,,,,,,,,,,,-0.2890625,-0.287760417,1,0,0,,,,,,,POODLE,LB,z,y,./images/POODLELB.png,,,,,,,,,,,,,,,,,,,,,,0,-0.2890625,-0.287760417,1,0,0,0.7026,button_left_test,0,54,54,165,1
,,,,,,,,,,,,,,,,,5cc8039e3ef93000171c96b8,35,2022-02-12_14h55.17.455,lexical_decision_task_DD_L6,2021.2.3,Win32,60.73120369,,,,,,,,,,0.9084,0,,,,,,,,,,,,,,,,,,,,,,,-0.265625,-0.298177083,1,0,0,,,,,,,WHEEL,HB,m,y,./images/WHEELHB.png,,,,,,,,,,,,,,,,,,,,,,0,-0.265625,-0.298177083,1,0,0,0.9084,button_left_test,0,55,55,77,1
,,,,,,,,,,,,,,,,,5cc8039e3ef93000171c96b8,35,2022-02-12_14h55.17.455,lexical_decision_task_DD_L6,2021.2.3,Win32,60.73120369,,,,,,,,,,0.5994,1,,,,,,,,,,,,,,,,,,,,,,,0.338541667,-0.28125,1,0,0,,,,,,,CANOE,C,m,y,./images/CANOE.png,,,,,,,,,,,,,,,,,,,,,,0,0.338541667,-0.28125,1,0,0,0.5994,button_right_test,0,56,56,58,1
,,,,,,,,,,,,,,,,,5cc8039e3ef93000171c96b8,35,2022-02-12_14h55.17.455,lexical_decision_task_DD_L6,2021.2.3,Win32,60.73120369,,,,,,,,,,0.647,1,,,,,,,,,,,,,,,,,,,,,,,-0.447916667,-0.236979167,1,0,0,,,,,,,SMOKER,HB,z,y,./images/SMOKERHB.png,,,,,,,,,,,,,,,,,,,,,,0,-0.447916667,-0.236979167,1,0,0,0.647,button_left_test,0,57,57,110,1
,,,,,,,,,,,,,,,,,5cc8039e3ef93000171c96b8,35,2022-02-12_14h55.17.455,lexical_decision_task_DD_L6,2021.2.3,Win32,60.73120369,,,,,,,,,,0.6449,1,,,,,,,,,,,,,,,,,,,,,,,0.263020833,-0.23046875,1,0,0,,,,,,,VALLEY,HB,m,y,./images/VALLEYHB.png,,,,,,,,,,,,,,,,,,,,,,0,0.263020833,-0.23046875,1,0,0,0.6449,button_right_test,0,58,58,68,1
,,,,,,,,,,,,,,,,,5cc8039e3ef93000171c96b8,35,2022-02-12_14h55.17.455,lexical_decision_task_DD_L6,2021.2.3,Win32,60.73120369,,,,,,,,,,0.651400001,1,,,,,,,,,,,,,,,,,,,,,,,-0.212239583,-0.272135417,1,0,0,,,,,,,COUCH,HB,z,y,./images/COUCHHB.png,,,,,,,,,,,,,,,,,,,,,,0,0.192708333,-0.266927083,1,0,0,0.651400001,button_left_test,0,59,59,161,1
,,,,,,,,,,,,,,,,,5cc8039e3ef93000171c96b8,35,2022-02-12_14h55.17.455,lexical_decision_task_DD_L6,2021.2.3,Win32,60.73120369,,,,,,,,,,0.7635,1,,,,,,,,,,,,,,,,,,,,,,,-0.270833333,-0.28515625,1,0,0,,,,,,,LIZARD,HB,z,y,./images/LIZARDHB.png,,,,,,,,,,,,,,,,,,,,,,0,-0.270833333,-0.28515625,1,0,0,0.7635,button_left_test,0,60,60,128,1
,,,,,,,,,,,,,,,,,5cc8039e3ef93000171c96b8,35,2022-02-12_14h55.17.455,lexical_decision_task_DD_L6,2021.2.3,Win32,60.73120369,,,,,,,,,,1.0042,1,,,,,,,,,,,,,,,,,,,,,,,-0.225260417,-0.279947917,1,0,0,,,,,,,ONION,LB,z,y,./images/ONIONLB.png,,,,,,,,,,,,,,,,,,,,,,0,-0.225260417,-0.279947917,1,0,0,1.0042,button_left_test,0,61,61,135,1
,,,,,,,,,,,,,,,,,5cc8039e3ef93000171c96b8,35,2022-02-12_14h55.17.455,lexical_decision_task_DD_L6,2021.2.3,Win32,60.73120369,,,,,,,,,,0.7832,0,,,,,,,,,,,,,,,,,,,,,,,-0.309895833,-0.282552083,1,0,0,,,,,,,CLOWN,C,m,y,./images/CLOWN.png,,,,,,,,,,,,,,,,,,,,,,0,-0.309895833,-0.282552083,1,0,0,0.7832,button_left_test,0,62,62,22,1
,,,,,,,,,,,,,,,,,5cc8039e3ef93000171c96b8,35,2022-02-12_14h55.17.455,lexical_decision_task_DD_L6,2021.2.3,Win32,60.73120369,,,,,,,,,,0.9117,0,,,,,,,,,,,,,,,,,,,,,,,0.263020833,-0.295572917,1,0,0,,,,,,,BELLY,C,z,y,./images/BELLY.png,,,,,,,,,,,,,,,,,,,,,,0,0.263020833,-0.295572917,1,0,0,0.9117,button_right_test,0,63,63,94,1
,,,,,,,,,,,,,,,,,5cc8039e3ef93000171c96b8,35,2022-02-12_14h55.17.455,lexical_decision_task_DD_L6,2021.2.3,Win32,60.73120369,,,,,,,,,,0.5986,1,,,,,,,,,,,,,,,,,,,,,,,-0.298177083,-0.27734375,1,0,0,,,,,,,MOSQUE,C,z,y,./images/MOSQUE.png,,,,,,,,,,,,,,,,,,,,,,0,-0.298177083,-0.27734375,1,0,0,0.5986,button_left_test,0,64,64,127,1
,,,,,,,,,,,,,,,,,5cc8039e3ef93000171c96b8,35,2022-02-12_14h55.17.455,lexical_decision_task_DD_L6,2021.2.3,Win32,60.73120369,,,,,,,,,,0.631400001,1,,,,,,,,,,,,,,,,,,,,,,,0.376302083,-0.279947917,1,0,0,,,,,,,JUMPER,HB,m,y,./images/JUMPERHB.png,,,,,,,,,,,,,,,,,,,,,,0,0.376302083,-0.279947917,1,0,0,0.631400001,button_right_test,0,65,65,74,1
,,,,,,,,,,,,,,,,,5cc8039e3ef93000171c96b8,35,2022-02-12_14h55.17.455,lexical_decision_task_DD_L6,2021.2.3,Win32,60.73120369,,,,,,,,,,0.685900001,1,,,,,,,,,,,,,,,,,,,,,,,0.32421875,-0.272135417,1,0,0,,,,,,,STAIN,LB,m,y,./images/STAINLB.png,,,,,,,,,,,,,,,,,,,,,,0,0.32421875,-0.272135417,1,0,0,0.685900001,button_right_test,0,66,66,6,1
,,,,,,,,,,,,,,,,,5cc8039e3ef93000171c96b8,35,2022-02-12_14h55.17.455,lexical_decision_task_DD_L6,2021.2.3,Win32,60.73120369,,,,,,,,,,0.7993,1,,,,,,,,,,,,,,,,,,,,,,,-0.342447917,-0.286458333,1,0,0,,,,,,,CARPET,HB,z,y,./images/CARPETHB.png,,,,,,,,,,,,,,,,,,,,,,0,-0.342447917,-0.286458333,1,0,0,0.7993,button_left_test,0,67,67,137,1
,,,,,,,,,,,,,,,,,5cc8039e3ef93000171c96b8,35,2022-02-12_14h55.17.455,lexical_decision_task_DD_L6,2021.2.3,Win32,60.73120369,,,,,,,,,,0.819099999,1,,,,,,,,,,,,,,,,,,,,,,,0.295572917,-0.294270833,1,0,0,,,,,,,BROOM,LB,m,y,./images/BROOMLB.png,,,,,,,,,,,,,,,,,,,,,,0,0.295572917,-0.294270833,1,0,0,0.819099999,button_right_test,0,68,68,78,1
,,,,,,,,,,,,,,,,,5cc8039e3ef93000171c96b8,35,2022-02-12_14h55.17.455,lexical_decision_task_DD_L6,2021.2.3,Win32,60.73120369,,,,,,,,,,0.701,1,,,,,,,,,,,,,,,,,,,,,,,-0.270833333,-0.28515625,1,0,0,,,,,,,MOTOR,C,z,y,./images/MOTOR.png,,,,,,,,,,,,,,,,,,,,,,0,-0.270833333,-0.28515625,1,0,0,0.701,button_left_test,0,69,69,97,1
,,,,,,,,,,,,,,,,,5cc8039e3ef93000171c96b8,35,2022-02-12_14h55.17.455,lexical_decision_task_DD_L6,2021.2.3,Win32,60.73120369,,,,,,,,,,0.6636,1,,,,,,,,,,,,,,,,,,,,,,,0.3671875,-0.2890625,1,0,0,,,,,,,MIDGET,C,m,y,./images/MIDGET.png,,,,,,,,,,,,,,,,,,,,,,0,0.3671875,-0.2890625,1,0,0,0.6636,button_right_test,0,70,70,76,1
,,,,,,,,,,,,,,,,,5cc8039e3ef93000171c96b8,35,2022-02-12_14h55.17.455,lexical_decision_task_DD_L6,2021.2.3,Win32,60.73120369,,,,,,,,,,0.684099999,0,,,,,,,,,,,,,,,,,,,,,,,-0.3828125,-0.321614583,1,0,0,,,,,,,HAMMER,LB,m,y,./images/HAMMERLB.png,,,,,,,,,,,,,,,,,,,,,,0,-0.3828125,-0.321614583,1,0,0,0.684099999,button_left_test,0,71,71,75,1
,,,,,,,,,,,,,,,,,5cc8039e3ef93000171c96b8,35,2022-02-12_14h55.17.455,lexical_decision_task_DD_L6,2021.2.3,Win32,60.73120369,,,,,,,,,,1.0314,1,,,,,,,,,,,,,,,,,,,,,,,0.35546875,-0.3046875,1,0,0,,,,,,,SHIELD,LB,m,y,./images/SHIELDLB.png,,,,,,,,,,,,,,,,,,,,,,0,0.35546875,-0.3046875,1,0,0,1.0314,button_right_test,0,72,72,48,1
,,,,,,,,,,,,,,,,,5cc8039e3ef93000171c96b8,35,2022-02-12_14h55.17.455,lexical_decision_task_DD_L6,2021.2.3,Win32,60.73120369,,,,,,,,,,1.2018,0,,,,,,,,,,,,,,,,,,,,,,,0.393229167,-0.279947917,1,0,0,,,,,,,MOOSE,LB,z,y,./images/MOOSELB.png,,,,,,,,,,,,,,,,,,,,,,0,0.393229167,-0.279947917,1,0,0,1.2018,button_right_test,0,73,73,141,1
,,,,,,,,,,,,,,,,,5cc8039e3ef93000171c96b8,35,2022-02-12_14h55.17.455,lexical_decision_task_DD_L6,2021.2.3,Win32,60.73120369,,,,,,,,,,0.8155,1,,,,,,,,,,,,,,,,,,,,,,,0.260416667,-0.270833333,1,0,0,,,,,,,CASINO,C,m,y,./images/CASINO.png,,,,,,,,,,,,,,,,,,,,,,0,0.260416667,-0.270833333,1,0,0,0.8155,button_right_test,0,74,74,28,1
,,,,,,,,,,,,,,,,,5cc8039e3ef93000171c96b8,35,2022-02-12_14h55.17.455,lexical_decision_task_DD_L6,2021.2.3,Win32,60.73120369,,,,,,,,,,0.6494,0,,,,,,,,,,,,,,,,,,,,,,,-0.328125,-0.266927083,1,0,0,,,,,,,RULER,C,m,y,./images/RULER.png,,,,,,,,,,,,,,,,,,,,,,0,-0.328125,-0.266927083,1,0,0,0.6494,button_left_test,0,75,75,79,1
,,,,,,,,,,,,,,,,,5cc8039e3ef93000171c96b8,35,2022-02-12_14h55.17.455,lexical_decision_task_DD_L6,2021.2.3,Win32,60.73120369,,,,,,,,,,0.6651,0,,,,,,,,,,,,,,,,,,,,,,,-0.227864583,-0.302083333,1,0,0,,,,,,,POSTER,HB,m,y,./images/POSTERHB.png,,,,,,,,,,,,,,,,,,,,,,0,-0.227864583,-0.302083333,1,0,0,0.6651,button_left_test,0,76,76,53,1
,,,,,,,,,,,,,,,,,5cc8039e3ef93000171c96b8,35,2022-02-12_14h55.17.455,lexical_decision_task_DD_L6,2021.2.3,Win32,60.73120369,,,,,,,,,,0.7568,1,,,,,,,,,,,,,,,,,,,,,,,-0.274739583,-0.305989583,1,0,0,,,,,,,PENCE,C,z,y,./images/PENCE.png,,,,,,,,,,,,,,,,,,,,,,0,-0.274739583,-0.305989583,1,0,0,0.7568,button_left_test,0,77,77,100,1
,,,,,,,,,,,,,,,,,5cc8039e3ef93000171c96b8,35,2022-02-12_14h55.17.455,lexical_decision_task_DD_L6,2021.2.3,Win32,60.73120369,,,,,,,,,,0.7793,1,,,,,,,,,,,,,,,,,,,,,,,-0.252604167,-0.302083333,1,0,0,,,,,,,TOMATO,LB,z,y,./images/TOMATOLB.png,,,,,,,,,,,,,,,,,,,,,,0,-0.252604167,-0.302083333,1,0,0,0.7793,button_left_test,0,78,78,84,1
,,,,,,,,,,,,,,,,,5cc8039e3ef93000171c96b8,35,2022-02-12_14h55.17.455,lexical_decision_task_DD_L6,2021.2.3,Win32,60.73120369,,,,,,,,,,0.598799999,1,,,,,,,,,,,,,,,,,,,,,,,-0.286458333,-0.28515625,1,0,0,,,,,,,PIMPLE,HB,z,y,./images/PIMPLEHB.png,,,,,,,,,,,,,,,,,,,,,,0,-0.286458333,-0.28515625,1,0,0,0.598799999,button_left_test,0,79,79,155,1
,,,,,,,,,,,,,,,,,5cc8039e3ef93000171c96b8,35,2022-02-12_14h55.17.455,lexical_decision_task_DD_L6,2021.2.3,Win32,60.73120369,,,,,,,,,,0.5269,1,,,,,,,,,,,,,,,,,,,,,,,-0.233072917,-0.290364583,1,0,0,,,,,,,LITTER,LB,z,y,./images/LITTERLB.png,,,,,,,,,,,,,,,,,,,,,,0,-0.233072917,-0.290364583,1,0,0,0.5269,button_left_test,0,80,80,162,1
,,,,,,,,,,,,,,,,,5cc8039e3ef93000171c96b8,35,2022-02-12_14h55.17.455,lexical_decision_task_DD_L6,2021.2.3,Win32,60.73120369,,,,,,,,,,0.8703,1,,,,,,,,,,,,,,,,,,,,,,,0.368489583,-0.30078125,1,0,0,,,,,,,FERRY,LB,m,y,./images/FERRYLB.png,,,,,,,,,,,,,,,,,,,,,,0,0.368489583,-0.30078125,1,0,0,0.8703,button_right_test,0,81,81,57,1
,,,,,,,,,,,,,,,,,5cc8039e3ef93000171c96b8,35,2022-02-12_14h55.17.455,lexical_decision_task_DD_L6,2021.2.3,Win32,60.73120369,,,,,,,,,,0.7728,0,,,,,,,,,,,,,,,,,,,,,,,0.266927083,-0.247395833,1,0,0,,,,,,,PEACH,HB,z,y,./images/PEACHHB.png,,,,,,,,,,,,,,,,,,,,,,0,0.266927083,-0.247395833,1,0,0,0.7728,button_right_test,0,82,82,119,1
,,,,,,,,,,,,,,,,,5cc8039e3ef93000171c96b8,35,2022-02-12_14h55.17.455,lexical_decision_task_DD_L6,2021.2.3,Win32,60.73120369,,,,,,,,,,0.7278,0,,,,,,,,,,,,,,,,,,,,,,,-0.075520833,-0.37890625,1,0,0,,,,,,,TIGER,C,m,y,./images/TIGER.png,break_done_button,,,,,,,,,,,,,,,,,,,,,0,-0.283854167,-0.283854167,1,0,0,0.7278,button_left_test,0,83,83,37,1
,,,,,,,,,,,,,,,,,5cc8039e3ef93000171c96b8,35,2022-02-12_14h55.17.455,lexical_decision_task_DD_L6,2021.2.3,Win32,60.73120369,,,,,,,,,,0.6968,1,,,,,,,,,,,,,,,,,,,,,,,0.23828125,-0.279947917,1,0,0,,,,,,,CHERRY,LB,m,y,./images/CHERRYLB.png,,,,,,,,,,,,,,,,,,,,,,0,0.23828125,-0.279947917,1,0,0,0.6968,button_right_test,0,84,84,54,1
,,,,,,,,,,,,,,,,,5cc8039e3ef93000171c96b8,35,2022-02-12_14h55.17.455,lexical_decision_task_DD_L6,2021.2.3,Win32,60.73120369,,,,,,,,,,0.573400001,1,,,,,,,,,,,,,,,,,,,,,,,-0.352864583,-0.278645833,1,0,0,,,,,,,URINE,C,z,y,./images/URINE.png,,,,,,,,,,,,,,,,,,,,,,0,-0.352864583,-0.278645833,1,0,0,0.573400001,button_left_test,0,85,85,154,1
,,,,,,,,,,,,,,,,,5cc8039e3ef93000171c96b8,35,2022-02-12_14h55.17.455,lexical_decision_task_DD_L6,2021.2.3,Win32,60.73120369,,,,,,,,,,0.6968,1,,,,,,,,,,,,,,,,,,,,,,,0.240885417,-0.291666667,1,0,0,,,,,,,STOVE,HB,m,y,./images/STOVEHB.png,,,,,,,,,,,,,,,,,,,,,,0,0.240885417,-0.291666667,1,0,0,0.6968,button_right_test,0,86,86,2,1
,,,,,,,,,,,,,,,,,5cc8039e3ef93000171c96b8,35,2022-02-12_14h55.17.455,lexical_decision_task_DD_L6,2021.2.3,Win32,60.73120369,,,,,,,,,,0.647099999,1,,,,,,,,,,,,,,,,,,,,,,,0.279947917,-0.270833333,1,0,0,,,,,,,GLOVE,C,m,y,./images/GLOVE.png,,,,,,,,,,,,,,,,,,,,,,0,0.279947917,-0.270833333,1,0,0,0.647099999,button_right_test,0,87,87,73,1
,,,,,,,,,,,,,,,,,5cc8039e3ef93000171c96b8,35,2022-02-12_14h55.17.455,lexical_decision_task_DD_L6,2021.2.3,Win32,60.73120369,,,,,,,,,,0.7767,1,,,,,,,,,,,,,,,,,,,,,,,-0.270833333,-0.25390625,1,0,0,,,,,,,FINGER,LB,z,y,./images/FINGERLB.png,,,,,,,,,,,,,,,,,,,,,,0,-0.270833333,-0.25390625,1,0,0,0.7767,button_left_test,0,88,88,87,1
,,,,,,,,,,,,,,,,,5cc8039e3ef93000171c96b8,35,2022-02-12_14h55.17.455,lexical_decision_task_DD_L6,2021.2.3,Win32,60.73120369,,,,,,,,,,0.6966,1,,,,,,,,,,,,,,,,,,,,,,,-0.205729167,-0.2734375,1,0,0,,,,,,,PAINT,C,z,y,./images/PAINT.png,,,,,,,,,,,,,,,,,,,,,,0,-0.205729167,-0.2734375,1,0,0,0.6966,button_left_test,0,89,89,91,1
,,,,,,,,,,,,,,,,,5cc8039e3ef93000171c96b8,35,2022-02-12_14h55.17.455,lexical_decision_task_DD_L6,2021.2.3,Win32,60.73120369,,,,,,,,,,0.6524,1,,,,,,,,,,,,,,,,,,,,,,,0.307291667,-0.263020833,1,0,0,,,,,,,GRAPE,C,m,y,./images/GRAPE.png,,,,,,,,,,,,,,,,,,,,,,0,0.307291667,-0.263020833,1,0,0,0.6524,button_right_test,0,90,90,16,1
,,,,,,,,,,,,,,,,,5cc8039e3ef93000171c96b8,35,2022-02-12_14h55.17.455,lexical_decision_task_DD_L6,2021.2.3,Win32,60.73120369,,,,,,,,,,0.7135,0,,,,,,,,,,,,,,,,,,,,,,,0.260416667,-0.2421875,1,0,0,,,,,,,SWEAT,LB,z,y,./images/SWEATLB.png,,,,,,,,,,,,,,,,,,,,,,0,0.260416667,-0.2421875,1,0,0,0.7135,button_right_test,0,91,91,150,1
,,,,,,,,,,,,,,,,,5cc8039e3ef93000171c96b8,35,2022-02-12_14h55.17.455,lexical_decision_task_DD_L6,2021.2.3,Win32,60.73120369,,,,,,,,,,0.6309,0,,,,,,,,,,,,,,,,,,,,,,,-0.239583333,-0.239583333,1,0,0,,,,,,,SNAKE,C,m,y,./images/SNAKE.png,,,,,,,,,,,,,,,,,,,,,,0,-0.239583333,-0.239583333,1,0,0,0.6309,button_left_test,0,92,92,40,1
,,,,,,,,,,,,,,,,,5cc8039e3ef93000171c96b8,35,2022-02-12_14h55.17.455,lexical_decision_task_DD_L6,2021.2.3,Win32,60.73120369,,,,,,,,,,0.814400001,1,,,,,,,,,,,,,,,,,,,,,,,0.276041667,-0.272135417,1,0,0,,,,,,,BISHOP,C,m,y,./images/BISHOP.png,,,,,,,,,,,,,,,,,,,,,,0,0.276041667,-0.272135417,1,0,0,0.814400001,button_right_test,0,93,93,49,1
,,,,,,,,,,,,,,,,,5cc8039e3ef93000171c96b8,35,2022-02-12_14h55.17.455,lexical_decision_task_DD_L6,2021.2.3,Win32,60.73120369,,,,,,,,,,0.7619,0,,,,,,,,,,,,,,,,,,,,,,,0.295572917,-0.259114583,1,0,0,,,,,,,LADDER,HB,z,y,./images/LADDERHB.png,,,,,,,,,,,,,,,,,,,,,,0,0.295572917,-0.259114583,1,0,0,0.7619,button_right_test,0,94,94,122,1
