key_resp.keys,key_resp.rt,instr_done_touch.x,instr_done_touch.y,instr_done_touch.leftButton,instr_done_touch.midButton,instr_done_touch.rightButton,instruction_pages.thisRepN,instruction_pages.thisTrialN,instruction_pages.thisN,instruction_pages.thisIndex,instruction_pages.ran,pageN,phase,instruct_text,has_image,instruct_image,participant,age,date,expName,psychopyVersion,OS,frameRate,response.keys,response.corr,response.rt,touch_resp.x,touch_resp.y,touch_resp.leftButton,touch_resp.midButton,touch_resp.rightButton,touch_resp.time,touch_resp.clicked_name,rt,corr,practrials.thisRepN,practrials.thisTrialN,practrials.thisN,practrials.thisIndex,practrials.ran,TrialID,Target,corrAns,end_of_practice_trials_pages.thisRepN,end_of_practice_trials_pages.thisTrialN,end_of_practice_trials_pages.thisN,end_of_practice_trials_pages.thisIndex,end_of_practice_trials_pages.ran,key_resp_2.keys,key_resp_2.corr,key_resp_2.rt,targ_click.x,targ_click.y,targ_click.leftButton,targ_click.midButton,targ_click.rightButton,targ_click.time,targ_click.clicked_name,break_done_touch.x,break_done_touch.y,break_done_touch.leftButton,break_done_touch.midButton,break_done_touch.rightButton,break_done_keyboard.keys,maintrials.thisRepN,maintrials.thisTrialN,maintrials.thisN,maintrials.thisIndex,maintrials.ran,string,blur,study,lex,stim_path,break_done_keyboard.rt,mouse_2.x,mouse_2.y,mouse_2.leftButton,mouse_2.midButton,mouse_2.rightButton,mouse_2.clicked_name,slider.response,slider.rt,trials.thisRepN,trials.thisTrialN,trials.thisN,trials.thisIndex,trials.ran,test_instructions.thisRepN,test_instructions.thisTrialN,test_instructions.thisN,test_instructions.thisIndex,test_instructions.ran,instr_done_touch.clicked_name,key_resp_3.keys,key_resp_3.corr,key_resp_3.rt,test_click.x,test_click.y,test_click.leftButton,test_click.midButton,test_click.rightButton,test_click.time,test_click.clicked_name,test_phase.thisRepN,test_phase.thisTrialN,test_phase.thisN,test_phase.thisIndex,test_phase.ran
space,82.4081,-0.030108507,-0.211853299,0,0,0,0,0,0,0,1,1,instructions,"INSTRUCTIONS
At the start of each trial, look at the plus sign  (+) in the center of the screen.  This tells you that a trial is about to begin and where to look. Second, the plus sign will disappear and a string of letters will appear. Your task is to determine if the string of letters is a word or not. If the item is a word press the M key (on keyboard)  or touch the word button (phone/tablet).  If the item is not a word,  press the  Z key (on keyboard)  or touch the nonword button (on phone/tablet). 
Press the space bar or touch  continue.",0,,5cfe0c0b09897800014ff31b,23,2022-02-12_16h17.40.535,lexical_decision_task_DD_L3,2021.2.3,MacIntel,60.0024001,,,,,,,,,,,,,,,,,,,,,,,,,,,,,,,,,,,,,,,,,,,,,,,,,,,,,,,,,,,,,,,,,,,,,,,,,,,,,,,,,,,,,,
space,6.6799,-0.025238715,-0.229743924,0,0,0,0,1,1,1,1,2,instructions,"If your device has a keyboard, press the 'Z' key for nonwords and the 'M' key for words.





Press the space bar or touch the button below to continue.",0,keyboard-example.gif,5cfe0c0b09897800014ff31b,23,2022-02-12_16h17.40.535,lexical_decision_task_DD_L3,2021.2.3,MacIntel,60.0024001,,,,,,,,,,,,,,,,,,,,,,,,,,,,,,,,,,,,,,,,,,,,,,,,,,,,,,,,,,,,,,,,,,,,,,,,,,,,,,,,,,,,,,
space,9.2438,-0.027274306,-0.233467882,0,0,0,0,2,2,2,1,3,instructions,"If you are using a touchscreen only device, use the buttons on the screen. Do not use the mouse.





Press the space bar or touch the button below to continue.",0,touchscreen-example.gif,5cfe0c0b09897800014ff31b,23,2022-02-12_16h17.40.535,lexical_decision_task_DD_L3,2021.2.3,MacIntel,60.0024001,,,,,,,,,,,,,,,,,,,,,,,,,,,,,,,,,,,,,,,,,,,,,,,,,,,,,,,,,,,,,,,,,,,,,,,,,,,,,,,,,,,,,,
space,17.924,-0.027274306,-0.233467882,0,0,0,0,3,3,3,1,4,instructions,"It is very important that you respond as quickly and accurately as possible, as each letter string will only be on the screen for two seconds. If you do not respond within this time, the message 'Too slow!' will be displayed and the experiment will progress to the next letter string. The first 20 trials will be practice trials and you will receive feedback on your answers. 

Press the space bar or touch the button below to start the practice trials.",0,,5cfe0c0b09897800014ff31b,23,2022-02-12_16h17.40.535,lexical_decision_task_DD_L3,2021.2.3,MacIntel,60.0024001,,,,,,,,,,,,,,,,,,,,,,,,,,,,,,,,,,,,,,,,,,,,,,,,,,,,,,,,,,,,,,,,,,,,,,,,,,,,,,,,,,,,,,
,,,,,,,,,,,,,,,,,5cfe0c0b09897800014ff31b,23,2022-02-12_16h17.40.535,lexical_decision_task_DD_L3,2021.2.3,MacIntel,60.0024001,z,1,1.0182,,,,,,,,1.0182,1,0,0,0,15,1,1001,WHAISE,z,,,,,,,,,,,,,,,,,,,,,,,,,,,,,,,,,,,,,,,,,,,,,,,,,,,,,,,,,,,,,,,,,,
,,,,,,,,,,,,,,,,,5cfe0c0b09897800014ff31b,23,2022-02-12_16h17.40.535,lexical_decision_task_DD_L3,2021.2.3,MacIntel,60.0024001,m,1,0.6377,,,,,,,,0.6377,1,0,1,1,6,1,1001,ZOMBIE,m,,,,,,,,,,,,,,,,,,,,,,,,,,,,,,,,,,,,,,,,,,,,,,,,,,,,,,,,,,,,,,,,,,
,,,,,,,,,,,,,,,,,5cfe0c0b09897800014ff31b,23,2022-02-12_16h17.40.535,lexical_decision_task_DD_L3,2021.2.3,MacIntel,60.0024001,m,1,0.6666,,,,,,,,0.6666,1,0,2,2,7,1,1001,VOLUME,m,,,,,,,,,,,,,,,,,,,,,,,,,,,,,,,,,,,,,,,,,,,,,,,,,,,,,,,,,,,,,,,,,,
,,,,,,,,,,,,,,,,,5cfe0c0b09897800014ff31b,23,2022-02-12_16h17.40.535,lexical_decision_task_DD_L3,2021.2.3,MacIntel,60.0024001,m,1,0.7133,,,,,,,,0.7133,1,0,3,3,5,1,1001,OBTAIN,m,,,,,,,,,,,,,,,,,,,,,,,,,,,,,,,,,,,,,,,,,,,,,,,,,,,,,,,,,,,,,,,,,,
,,,,,,,,,,,,,,,,,5cfe0c0b09897800014ff31b,23,2022-02-12_16h17.40.535,lexical_decision_task_DD_L3,2021.2.3,MacIntel,60.0024001,m,1,0.7046,,,,,,,,0.7046,1,0,4,4,0,1,1001,UTOPIA,m,,,,,,,,,,,,,,,,,,,,,,,,,,,,,,,,,,,,,,,,,,,,,,,,,,,,,,,,,,,,,,,,,,
,,,,,,,,,,,,,,,,,5cfe0c0b09897800014ff31b,23,2022-02-12_16h17.40.535,lexical_decision_task_DD_L3,2021.2.3,MacIntel,60.0024001,m,1,0.6368,,,,,,,,0.6368,1,0,5,5,3,1,1001,MATRIX,m,,,,,,,,,,,,,,,,,,,,,,,,,,,,,,,,,,,,,,,,,,,,,,,,,,,,,,,,,,,,,,,,,,
,,,,,,,,,,,,,,,,,5cfe0c0b09897800014ff31b,23,2022-02-12_16h17.40.535,lexical_decision_task_DD_L3,2021.2.3,MacIntel,60.0024001,z,1,0.7575,,,,,,,,0.7575,1,0,6,6,11,1,1001,RASHET,z,,,,,,,,,,,,,,,,,,,,,,,,,,,,,,,,,,,,,,,,,,,,,,,,,,,,,,,,,,,,,,,,,,
,,,,,,,,,,,,,,,,,5cfe0c0b09897800014ff31b,23,2022-02-12_16h17.40.535,lexical_decision_task_DD_L3,2021.2.3,MacIntel,60.0024001,m,0,1.1315,,,,,,,,1.1315,0,0,7,7,14,1,1001,THRALE,z,,,,,,,,,,,,,,,,,,,,,,,,,,,,,,,,,,,,,,,,,,,,,,,,,,,,,,,,,,,,,,,,,,
,,,,,,,,,,,,,,,,,5cfe0c0b09897800014ff31b,23,2022-02-12_16h17.40.535,lexical_decision_task_DD_L3,2021.2.3,MacIntel,60.0024001,m,1,0.6296,,,,,,,,0.6296,1,0,8,8,2,1,1001,ALMOND,m,,,,,,,,,,,,,,,,,,,,,,,,,,,,,,,,,,,,,,,,,,,,,,,,,,,,,,,,,,,,,,,,,,
,,,,,,,,,,,,,,,,,5cfe0c0b09897800014ff31b,23,2022-02-12_16h17.40.535,lexical_decision_task_DD_L3,2021.2.3,MacIntel,60.0024001,m,1,0.5631,,,,,,,,0.5631,1,0,9,9,1,1,1001,ADJUST,m,,,,,,,,,,,,,,,,,,,,,,,,,,,,,,,,,,,,,,,,,,,,,,,,,,,,,,,,,,,,,,,,,,
,,,,,,,,,,,,,,,,,5cfe0c0b09897800014ff31b,23,2022-02-12_16h17.40.535,lexical_decision_task_DD_L3,2021.2.3,MacIntel,60.0024001,z,1,0.982,,,,,,,,0.982,1,0,10,10,8,1,1001,ASLERT,z,,,,,,,,,,,,,,,,,,,,,,,,,,,,,,,,,,,,,,,,,,,,,,,,,,,,,,,,,,,,,,,,,,
,,,,,,,,,,,,,,,,,5cfe0c0b09897800014ff31b,23,2022-02-12_16h17.40.535,lexical_decision_task_DD_L3,2021.2.3,MacIntel,60.0024001,z,1,0.7299,,,,,,,,0.7299,1,0,11,11,13,1,1001,ROUPET,z,,,,,,,,,,,,,,,,,,,,,,,,,,,,,,,,,,,,,,,,,,,,,,,,,,,,,,,,,,,,,,,,,,
,,,,,,,,,,,,,,,,,5cfe0c0b09897800014ff31b,23,2022-02-12_16h17.40.535,lexical_decision_task_DD_L3,2021.2.3,MacIntel,60.0024001,z,1,0.8572,,,,,,,,0.8572,1,0,12,12,10,1,1001,INLADE,z,,,,,,,,,,,,,,,,,,,,,,,,,,,,,,,,,,,,,,,,,,,,,,,,,,,,,,,,,,,,,,,,,,
,,,,,,,,,,,,,,,,,5cfe0c0b09897800014ff31b,23,2022-02-12_16h17.40.535,lexical_decision_task_DD_L3,2021.2.3,MacIntel,60.0024001,m,0,1.145,,,,,,,,1.145,0,0,13,13,9,1,1001,FARINY,z,,,,,,,,,,,,,,,,,,,,,,,,,,,,,,,,,,,,,,,,,,,,,,,,,,,,,,,,,,,,,,,,,,
,,,,,,,,,,,,,,,,,5cfe0c0b09897800014ff31b,23,2022-02-12_16h17.40.535,lexical_decision_task_DD_L3,2021.2.3,MacIntel,60.0024001,z,1,0.8765,,,,,,,,0.8765,1,0,14,14,12,1,1001,SPRINY,z,,,,,,,,,,,,,,,,,,,,,,,,,,,,,,,,,,,,,,,,,,,,,,,,,,,,,,,,,,,,,,,,,,
,,,,,,,,,,,,,,,,,5cfe0c0b09897800014ff31b,23,2022-02-12_16h17.40.535,lexical_decision_task_DD_L3,2021.2.3,MacIntel,60.0024001,z,0,0.5793,,,,,,,,0.5793,0,0,15,15,4,1,1001,SQUEAK,m,,,,,,,,,,,,,,,,,,,,,,,,,,,,,,,,,,,,,,,,,,,,,,,,,,,,,,,,,,,,,,,,,,
space,12.5311,0.069518229,-0.392092014,0,0,0,,,,,,1,end_of_practice,"You have completed the practice trials. During the experimental trials, you will not receive feedback. 
Before you begin, please ensure that you are in a comfortable and quiet location and will not be disturbed for about 15 minutes, as we cannot use your data if you do not complete all the trials. 
 When you are ready to start the experimental trials, please press space or touch the button below.",,,5cfe0c0b09897800014ff31b,23,2022-02-12_16h17.40.535,lexical_decision_task_DD_L3,2021.2.3,MacIntel,60.0024001,,,,,,,,,,,,,,,,,,,,,0,0,0,0,1,,,,,,,,,,,,,,,,,,,,,,,,,,,,,,,,,,,,,,,,,,,,,,,,,,,,,,,,,,,,,
,,,,,,,,,,,,,,,,,5cfe0c0b09897800014ff31b,23,2022-02-12_16h17.40.535,lexical_decision_task_DD_L3,2021.2.3,MacIntel,60.0024001,,,,,,,,,,,0.5,1,,,,,,,,,,,,,,m,1,0.5,,,,,,,,0.069518229,-0.392092014,0,0,0,,0,0,0,4,1,MUSCLE,C,old,m,./images/MUSCLE.png,,,,,,,,,,,,,,,,,,,,,,,,,,,,,,,,,,,
,,,,,,,,,,,,,,,,,5cfe0c0b09897800014ff31b,23,2022-02-12_16h17.40.535,lexical_decision_task_DD_L3,2021.2.3,MacIntel,60.0024001,,,,,,,,,,,0.9773,1,,,,,,,,,,,,,,z,1,0.9773,,,,,,,,0.069518229,-0.392092014,0,0,0,,0,1,1,85,1,CHULK,HB,old,z,./images/CHULKHB.png,,,,,,,,,,,,,,,,,,,,,,,,,,,,,,,,,,,
,,,,,,,,,,,,,,,,,5cfe0c0b09897800014ff31b,23,2022-02-12_16h17.40.535,lexical_decision_task_DD_L3,2021.2.3,MacIntel,60.0024001,,,,,,,,,,,0.4931,0,,,,,,,,,,,,,,m,0,0.4931,,,,,,,,0.069518229,-0.392092014,0,0,0,,0,2,2,161,1,BLAPS,LB,old,z,./images/BLAPSLB.png,,,,,,,,,,,,,,,,,,,,,,,,,,,,,,,,,,,
,,,,,,,,,,,,,,,,,5cfe0c0b09897800014ff31b,23,2022-02-12_16h17.40.535,lexical_decision_task_DD_L3,2021.2.3,MacIntel,60.0024001,,,,,,,,,,,0.7058,1,,,,,,,,,,,,,,m,1,0.7058,,,,,,,,0.069518229,-0.392092014,0,0,0,,0,3,3,79,1,CRUST,C,old,m,./images/CRUST.png,,,,,,,,,,,,,,,,,,,,,,,,,,,,,,,,,,,
,,,,,,,,,,,,,,,,,5cfe0c0b09897800014ff31b,23,2022-02-12_16h17.40.535,lexical_decision_task_DD_L3,2021.2.3,MacIntel,60.0024001,,,,,,,,,,,0.6686,1,,,,,,,,,,,,,,z,1,0.6686,,,,,,,,0.069518229,-0.392092014,0,0,0,,0,4,4,105,1,MOKER,C,old,z,./images/MOKER.png,,,,,,,,,,,,,,,,,,,,,,,,,,,,,,,,,,,
,,,,,,,,,,,,,,,,,5cfe0c0b09897800014ff31b,23,2022-02-12_16h17.40.535,lexical_decision_task_DD_L3,2021.2.3,MacIntel,60.0024001,,,,,,,,,,,0.6463,0,,,,,,,,,,,,,,z,0,0.6463,,,,,,,,0.069518229,-0.392092014,0,0,0,,0,5,5,41,1,STRING,HB,old,m,./images/STRINGHB.png,,,,,,,,,,,,,,,,,,,,,,,,,,,,,,,,,,,
,,,,,,,,,,,,,,,,,5cfe0c0b09897800014ff31b,23,2022-02-12_16h17.40.535,lexical_decision_task_DD_L3,2021.2.3,MacIntel,60.0024001,,,,,,,,,,,0.9066,0,,,,,,,,,,,,,,z,0,0.9066,,,,,,,,0.069518229,-0.392092014,0,0,0,,0,6,6,80,1,WEASEL,HB,old,m,./images/WEASELHB.png,,,,,,,,,,,,,,,,,,,,,,,,,,,,,,,,,,,
,,,,,,,,,,,,,,,,,5cfe0c0b09897800014ff31b,23,2022-02-12_16h17.40.535,lexical_decision_task_DD_L3,2021.2.3,MacIntel,60.0024001,,,,,,,,,,,1.2769,1,,,,,,,,,,,,,,m,1,1.2769,,,,,,,,0.069518229,-0.392092014,0,0,0,,0,7,7,59,1,BURIAL,HB,old,m,./images/BURIALHB.png,,,,,,,,,,,,,,,,,,,,,,,,,,,,,,,,,,,
,,,,,,,,,,,,,,,,,5cfe0c0b09897800014ff31b,23,2022-02-12_16h17.40.535,lexical_decision_task_DD_L3,2021.2.3,MacIntel,60.0024001,,,,,,,,,,,0.4935,1,,,,,,,,,,,,,,m,1,0.4935,,,,,,,,0.069518229,-0.392092014,0,0,0,,0,8,8,11,1,BONNET,HB,old,m,./images/BONNETHB.png,,,,,,,,,,,,,,,,,,,,,,,,,,,,,,,,,,,
,,,,,,,,,,,,,,,,,5cfe0c0b09897800014ff31b,23,2022-02-12_16h17.40.535,lexical_decision_task_DD_L3,2021.2.3,MacIntel,60.0024001,,,,,,,,,,,0.8073,1,,,,,,,,,,,,,,m,1,0.8073,,,,,,,,0.069518229,-0.392092014,0,0,0,,0,9,9,26,1,SMOKER,HB,old,m,./images/SMOKERHB.png,,,,,,,,,,,,,,,,,,,,,,,,,,,,,,,,,,,
,,,,,,,,,,,,,,,,,5cfe0c0b09897800014ff31b,23,2022-02-12_16h17.40.535,lexical_decision_task_DD_L3,2021.2.3,MacIntel,60.0024001,,,,,,,,,,,0.5685,1,,,,,,,,,,,,,,m,1,0.5685,,,,,,,,0.069518229,-0.392092014,0,0,0,,0,10,10,31,1,QUILL,C,old,m,./images/QUILL.png,,,,,,,,,,,,,,,,,,,,,,,,,,,,,,,,,,,
,,,,,,,,,,,,,,,,,5cfe0c0b09897800014ff31b,23,2022-02-12_16h17.40.535,lexical_decision_task_DD_L3,2021.2.3,MacIntel,60.0024001,,,,,,,,,,,0.8181,1,,,,,,,,,,,,,,z,1,0.8181,,,,,,,,0.069518229,-0.392092014,0,0,0,,0,11,11,160,1,VEETS,HB,old,z,./images/VEETSHB.png,,,,,,,,,,,,,,,,,,,,,,,,,,,,,,,,,,,
,,,,,,,,,,,,,,,,,5cfe0c0b09897800014ff31b,23,2022-02-12_16h17.40.535,lexical_decision_task_DD_L3,2021.2.3,MacIntel,60.0024001,,,,,,,,,,,1.4263,1,,,,,,,,,,,,,,z,1,1.4263,,,,,,,,0.069518229,-0.392092014,0,0,0,,0,12,12,154,1,THINT,HB,old,z,./images/THINTHB.png,,,,,,,,,,,,,,,,,,,,,,,,,,,,,,,,,,,
,,,,,,,,,,,,,,,,,5cfe0c0b09897800014ff31b,23,2022-02-12_16h17.40.535,lexical_decision_task_DD_L3,2021.2.3,MacIntel,60.0024001,,,,,,,,,,,0.8215,1,,,,,,,,,,,,,,z,1,0.8215,,,,,,,,0.069518229,-0.392092014,0,0,0,,0,13,13,137,1,JOOST,LB,old,z,./images/JOOSTLB.png,,,,,,,,,,,,,,,,,,,,,,,,,,,,,,,,,,,
,,,,,,,,,,,,,,,,,5cfe0c0b09897800014ff31b,23,2022-02-12_16h17.40.535,lexical_decision_task_DD_L3,2021.2.3,MacIntel,60.0024001,,,,,,,,,,,0.6837,1,,,,,,,,,,,,,,m,1,0.6837,,,,,,,,0.069518229,-0.392092014,0,0,0,,0,14,14,66,1,SWEAT,LB,old,m,./images/SWEATLB.png,,,,,,,,,,,,,,,,,,,,,,,,,,,,,,,,,,,
,,,,,,,,,,,,,,,,,5cfe0c0b09897800014ff31b,23,2022-02-12_16h17.40.535,lexical_decision_task_DD_L3,2021.2.3,MacIntel,60.0024001,,,,,,,,,,,0.5567,1,,,,,,,,,,,,,,m,1,0.5567,,,,,,,,0.069518229,-0.392092014,0,0,0,,0,15,15,10,1,BELLY,C,old,m,./images/BELLY.png,,,,,,,,,,,,,,,,,,,,,,,,,,,,,,,,,,,
,,,,,,,,,,,,,,,,,5cfe0c0b09897800014ff31b,23,2022-02-12_16h17.40.535,lexical_decision_task_DD_L3,2021.2.3,MacIntel,60.0024001,,,,,,,,,,,0.9442,1,,,,,,,,,,,,,,m,1,0.9442,,,,,,,,0.069518229,-0.392092014,0,0,0,,0,16,16,15,1,GREASE,LB,old,m,./images/GREASELB.png,,,,,,,,,,,,,,,,,,,,,,,,,,,,,,,,,,,
,,,,,,,,,,,,,,,,,5cfe0c0b09897800014ff31b,23,2022-02-12_16h17.40.535,lexical_decision_task_DD_L3,2021.2.3,MacIntel,60.0024001,,,,,,,,,,,0.8279,1,,,,,,,,,,,,,,m,1,0.8279,,,,,,,,0.069518229,-0.392092014,0,0,0,,0,17,17,83,1,JUNGLE,HB,old,m,./images/JUNGLEHB.png,,,,,,,,,,,,,,,,,,,,,,,,,,,,,,,,,,,
,,,,,,,,,,,,,,,,,5cfe0c0b09897800014ff31b,23,2022-02-12_16h17.40.535,lexical_decision_task_DD_L3,2021.2.3,MacIntel,60.0024001,,,,,,,,,,,0.6454,1,,,,,,,,,,,,,,z,1,0.6454,,,,,,,,0.069518229,-0.392092014,0,0,0,,0,18,18,159,1,CUDDY,C,old,z,./images/CUDDY.png,,,,,,,,,,,,,,,,,,,,,,,,,,,,,,,,,,,
,,,,,,,,,,,,,,,,,5cfe0c0b09897800014ff31b,23,2022-02-12_16h17.40.535,lexical_decision_task_DD_L3,2021.2.3,MacIntel,60.0024001,,,,,,,,,,,0.9145,0,,,,,,,,,,,,,,z,0,0.9145,,,,,,,,0.069518229,-0.392092014,0,0,0,,0,19,19,12,1,SHORE,LB,old,m,./images/SHORELB.png,,,,,,,,,,,,,,,,,,,,,,,,,,,,,,,,,,,
,,,,,,,,,,,,,,,,,5cfe0c0b09897800014ff31b,23,2022-02-12_16h17.40.535,lexical_decision_task_DD_L3,2021.2.3,MacIntel,60.0024001,,,,,,,,,,,1.0458,1,,,,,,,,,,,,,,z,1,1.0458,,,,,,,,0.069518229,-0.392092014,0,0,0,,0,20,20,99,1,BACKY,C,old,z,./images/BACKY.png,,,,,,,,,,,,,,,,,,,,,,,,,,,,,,,,,,,
,,,,,,,,,,,,,,,,,5cfe0c0b09897800014ff31b,23,2022-02-12_16h17.40.535,lexical_decision_task_DD_L3,2021.2.3,MacIntel,60.0024001,,,,,,,,,,,0.8387,1,,,,,,,,,,,,,,m,1,0.8387,,,,,,,,0.069518229,-0.392092014,0,0,0,,0,21,21,52,1,BANNER,C,old,m,./images/BANNER.png,,,,,,,,,,,,,,,,,,,,,,,,,,,,,,,,,,,
,,,,,,,,,,,,,,,,,5cfe0c0b09897800014ff31b,23,2022-02-12_16h17.40.535,lexical_decision_task_DD_L3,2021.2.3,MacIntel,60.0024001,,,,,,,,,,,0.9752,0,,,,,,,,,,,,,,z,0,0.9752,,,,,,,,0.069518229,-0.392092014,0,0,0,,0,22,22,16,1,PENCE,C,old,m,./images/PENCE.png,,,,,,,,,,,,,,,,,,,,,,,,,,,,,,,,,,,
,,,,,,,,,,,,,,,,,5cfe0c0b09897800014ff31b,23,2022-02-12_16h17.40.535,lexical_decision_task_DD_L3,2021.2.3,MacIntel,60.0024001,,,,,,,,,,,0.6737,1,,,,,,,,,,,,,,z,1,0.6737,,,,,,,,0.069518229,-0.392092014,0,0,0,,0,23,23,144,1,NAIRY,C,old,z,./images/NAIRY.png,,,,,,,,,,,,,,,,,,,,,,,,,,,,,,,,,,,
,,,,,,,,,,,,,,,,,5cfe0c0b09897800014ff31b,23,2022-02-12_16h17.40.535,lexical_decision_task_DD_L3,2021.2.3,MacIntel,60.0024001,,,,,,,,,,,0.7795,1,,,,,,,,,,,,,,m,1,0.7795,,,,,,,,0.069518229,-0.392092014,0,0,0,,0,24,24,33,1,MAGGOT,LB,old,m,./images/MAGGOTLB.png,,,,,,,,,,,,,,,,,,,,,,,,,,,,,,,,,,,
,,,,,,,,,,,,,,,,,5cfe0c0b09897800014ff31b,23,2022-02-12_16h17.40.535,lexical_decision_task_DD_L3,2021.2.3,MacIntel,60.0024001,,,,,,,,,,,1.0519,1,,,,,,,,,,,,,,z,1,1.0519,,,,,,,,0.069518229,-0.392092014,0,0,0,,0,25,25,92,1,PAIMS,LB,old,z,./images/PAIMSLB.png,,,,,,,,,,,,,,,,,,,,,,,,,,,,,,,,,,,
,,,,,,,,,,,,,,,,,5cfe0c0b09897800014ff31b,23,2022-02-12_16h17.40.535,lexical_decision_task_DD_L3,2021.2.3,MacIntel,60.0024001,,,,,,,,,,,1.4156,0,,,,,,,,,,,,,,m,0,1.4156,,,,,,,,0.069518229,-0.392092014,0,0,0,,0,26,26,142,1,PLASK,HB,old,z,./images/PLASKHB.png,,,,,,,,,,,,,,,,,,,,,,,,,,,,,,,,,,,
,,,,,,,,,,,,,,,,,5cfe0c0b09897800014ff31b,23,2022-02-12_16h17.40.535,lexical_decision_task_DD_L3,2021.2.3,MacIntel,60.0024001,,,,,,,,,,,0.9411,1,,,,,,,,,,,,,,m,1,0.9411,,,,,,,,0.069518229,-0.392092014,0,0,0,,0,27,27,42,1,FOLDER,LB,old,m,./images/FOLDERLB.png,,,,,,,,,,,,,,,,,,,,,,,,,,,,,,,,,,,
,,,,,,,,,,,,,,,,,5cfe0c0b09897800014ff31b,23,2022-02-12_16h17.40.535,lexical_decision_task_DD_L3,2021.2.3,MacIntel,60.0024001,,,,,,,,,,,1.0301,0,,,,,,,,,,,,,,z,0,1.0301,,,,,,,,0.069518229,-0.392092014,0,0,0,,0,28,28,65,1,FARMER,HB,old,m,./images/FARMERHB.png,,,,,,,,,,,,,,,,,,,,,,,,,,,,,,,,,,,
,,,,,,,,,,,,,,,,,5cfe0c0b09897800014ff31b,23,2022-02-12_16h17.40.535,lexical_decision_task_DD_L3,2021.2.3,MacIntel,60.0024001,,,,,,,,,,,0.6396,1,,,,,,,,,,,,,,m,1,0.6396,,,,,,,,0.069518229,-0.392092014,0,0,0,,0,29,29,61,1,CANDLE,C,old,m,./images/CANDLE.png,,,,,,,,,,,,,,,,,,,,,,,,,,,,,,,,,,,
,,,,,,,,,,,,,,,,,5cfe0c0b09897800014ff31b,23,2022-02-12_16h17.40.535,lexical_decision_task_DD_L3,2021.2.3,MacIntel,60.0024001,,,,,,,,,,,1.4376,1,,,,,,,,,,,,,,z,1,1.4376,,,,,,,,0.069518229,-0.392092014,0,0,0,,0,30,30,106,1,CLUMS,HB,old,z,./images/CLUMSHB.png,,,,,,,,,,,,,,,,,,,,,,,,,,,,,,,,,,,
,,,,,,,,,,,,,,,,,5cfe0c0b09897800014ff31b,23,2022-02-12_16h17.40.535,lexical_decision_task_DD_L3,2021.2.3,MacIntel,60.0024001,,,,,,,,,,,0.7936,1,,,,,,,,,,,,,,z,1,0.7936,,,,,,,,0.069518229,-0.392092014,0,0,0,,0,31,31,93,1,SMONE,C,old,z,./images/SMONE.png,,,,,,,,,,,,,,,,,,,,,,,,,,,,,,,,,,,
,,,,,,,,,,,,,,,,,5cfe0c0b09897800014ff31b,23,2022-02-12_16h17.40.535,lexical_decision_task_DD_L3,2021.2.3,MacIntel,60.0024001,,,,,,,,,,,1.916,1,,,,,,,,,,,,,,z,1,1.916,,,,,,,,0.069518229,-0.392092014,0,0,0,,0,32,32,163,1,GAMBA,HB,old,z,./images/GAMBAHB.png,,,,,,,,,,,,,,,,,,,,,,,,,,,,,,,,,,,
,,,,,,,,,,,,,,,,,5cfe0c0b09897800014ff31b,23,2022-02-12_16h17.40.535,lexical_decision_task_DD_L3,2021.2.3,MacIntel,60.0024001,,,,,,,,,,,1.5159,1,,,,,,,,,,,,,,m,1,1.5159,,,,,,,,0.069518229,-0.392092014,0,0,0,,0,33,33,9,1,RHINO,LB,old,m,./images/RHINOLB.png,,,,,,,,,,,,,,,,,,,,,,,,,,,,,,,,,,,
,,,,,,,,,,,,,,,,,5cfe0c0b09897800014ff31b,23,2022-02-12_16h17.40.535,lexical_decision_task_DD_L3,2021.2.3,MacIntel,60.0024001,,,,,,,,,,,1.462,1,,,,,,,,,,,,,,z,1,1.462,,,,,,,,0.069518229,-0.392092014,0,0,0,,0,34,34,164,1,SGREW,LB,old,z,./images/SGREWLB.png,,,,,,,,,,,,,,,,,,,,,,,,,,,,,,,,,,,
,,,,,,,,,,,,,,,,,5cfe0c0b09897800014ff31b,23,2022-02-12_16h17.40.535,lexical_decision_task_DD_L3,2021.2.3,MacIntel,60.0024001,,,,,,,,,,,0.7697,1,,,,,,,,,,,,,,z,1,0.7697,,,,,,,,0.069518229,-0.392092014,0,0,0,,0,35,35,138,1,PLICE,C,old,z,./images/PLICE.png,,,,,,,,,,,,,,,,,,,,,,,,,,,,,,,,,,,
,,,,,,,,,,,,,,,,,5cfe0c0b09897800014ff31b,23,2022-02-12_16h17.40.535,lexical_decision_task_DD_L3,2021.2.3,MacIntel,60.0024001,,,,,,,,,,,1.5363,0,,,,,,,,,,,,,,z,0,1.5363,,,,,,,,0.069518229,-0.392092014,0,0,0,,0,36,36,17,1,SKIING,HB,old,m,./images/SKIINGHB.png,,,,,,,,,,,,,,,,,,,,,,,,,,,,,,,,,,,
,,,,,,,,,,,,,,,,,5cfe0c0b09897800014ff31b,23,2022-02-12_16h17.40.535,lexical_decision_task_DD_L3,2021.2.3,MacIntel,60.0024001,,,,,,,,,,,0.8192,1,,,,,,,,,,,,,,z,1,0.8192,,,,,,,,0.069518229,-0.392092014,0,0,0,,0,37,37,153,1,CLUPS,C,old,z,./images/CLUPS.png,,,,,,,,,,,,,,,,,,,,,,,,,,,,,,,,,,,
,,,,,,,,,,,,,,,,,5cfe0c0b09897800014ff31b,23,2022-02-12_16h17.40.535,lexical_decision_task_DD_L3,2021.2.3,MacIntel,60.0024001,,,,,,,,,,,1.1124,1,,,,,,,,,,,,,,m,1,1.1124,,,,,,,,0.069518229,-0.392092014,0,0,0,,0,38,38,55,1,MUFFIN,C,old,m,./images/MUFFIN.png,,,,,,,,,,,,,,,,,,,,,,,,,,,,,,,,,,,
,,,,,,,,,,,,,,,,,5cfe0c0b09897800014ff31b,23,2022-02-12_16h17.40.535,lexical_decision_task_DD_L3,2021.2.3,MacIntel,60.0024001,,,,,,,,,,,1.0932,1,,,,,,,,,,,,,,z,1,1.0932,,,,,,,,0.069518229,-0.392092014,0,0,0,,0,39,39,156,1,HIXES,C,old,z,./images/HIXES.png,,,,,,,,,,,,,,,,,,,,,,,,,,,,,,,,,,,
,,,,,,,,,,,,,,,,,5cfe0c0b09897800014ff31b,23,2022-02-12_16h17.40.535,lexical_decision_task_DD_L3,2021.2.3,MacIntel,60.0024001,,,,,,,,,,,1.3624,1,,,,,,,,,,,,,,z,1,1.3624,,,,,,,,0.069518229,-0.392092014,0,0,0,,0,40,40,112,1,MYING,HB,old,z,./images/MYINGHB.png,,,,,,,,,,,,,,,,,,,,,,,,,,,,,,,,,,,
,,,,,,,,,,,,,,,,,5cfe0c0b09897800014ff31b,23,2022-02-12_16h17.40.535,lexical_decision_task_DD_L3,2021.2.3,MacIntel,60.0024001,,,,,,,,,,,1.2233,1,,,,,,,,,,,,,,z,1,1.2233,,,,,,,,0.069518229,-0.392092014,0,0,0,space,0,41,41,145,1,LAMEL,HB,old,z,./images/LAMELHB.png,8.1237,,,,,,,,,,,,,,,,,,,,,,,,,,,,,,,,,,
,,,,,,,,,,,,,,,,,5cfe0c0b09897800014ff31b,23,2022-02-12_16h17.40.535,lexical_decision_task_DD_L3,2021.2.3,MacIntel,60.0024001,,,,,,,,,,,0.5668,1,,,,,,,,,,,,,,m,1,0.5668,,,,,,,,0.069518229,-0.392092014,0,0,0,,0,42,42,39,1,SHELF,LB,old,m,./images/SHELFLB.png,,,,,,,,,,,,,,,,,,,,,,,,,,,,,,,,,,,
,,,,,,,,,,,,,,,,,5cfe0c0b09897800014ff31b,23,2022-02-12_16h17.40.535,lexical_decision_task_DD_L3,2021.2.3,MacIntel,60.0024001,,,,,,,,,,,0.7918,1,,,,,,,,,,,,,,m,1,0.7918,,,,,,,,0.069518229,-0.392092014,0,0,0,,0,43,43,54,1,TRIPOD,LB,old,m,./images/TRIPODLB.png,,,,,,,,,,,,,,,,,,,,,,,,,,,,,,,,,,,
,,,,,,,,,,,,,,,,,5cfe0c0b09897800014ff31b,23,2022-02-12_16h17.40.535,lexical_decision_task_DD_L3,2021.2.3,MacIntel,60.0024001,,,,,,,,,,,0.6786,1,,,,,,,,,,,,,,z,1,0.6786,,,,,,,,0.069518229,-0.392092014,0,0,0,,0,44,44,96,1,KEAMS,C,old,z,./images/KEAMS.png,,,,,,,,,,,,,,,,,,,,,,,,,,,,,,,,,,,
,,,,,,,,,,,,,,,,,5cfe0c0b09897800014ff31b,23,2022-02-12_16h17.40.535,lexical_decision_task_DD_L3,2021.2.3,MacIntel,60.0024001,,,,,,,,,,,0.9796,1,,,,,,,,,,,,,,z,1,0.9796,,,,,,,,0.069518229,-0.392092014,0,0,0,,0,45,45,108,1,GRUET,C,old,z,./images/GRUET.png,,,,,,,,,,,,,,,,,,,,,,,,,,,,,,,,,,,
,,,,,,,,,,,,,,,,,5cfe0c0b09897800014ff31b,23,2022-02-12_16h17.40.535,lexical_decision_task_DD_L3,2021.2.3,MacIntel,60.0024001,,,,,,,,,,,1.3592,1,,,,,,,,,,,,,,m,1,1.3592,,,,,,,,0.069518229,-0.392092014,0,0,0,,0,46,46,5,1,PASTA,HB,old,m,./images/PASTAHB.png,,,,,,,,,,,,,,,,,,,,,,,,,,,,,,,,,,,
,,,,,,,,,,,,,,,,,5cfe0c0b09897800014ff31b,23,2022-02-12_16h17.40.535,lexical_decision_task_DD_L3,2021.2.3,MacIntel,60.0024001,,,,,,,,,,,0.6684,1,,,,,,,,,,,,,,z,1,0.6684,,,,,,,,0.069518229,-0.392092014,0,0,0,,0,47,47,132,1,SCIFF,C,old,z,./images/SCIFF.png,,,,,,,,,,,,,,,,,,,,,,,,,,,,,,,,,,,
,,,,,,,,,,,,,,,,,5cfe0c0b09897800014ff31b,23,2022-02-12_16h17.40.535,lexical_decision_task_DD_L3,2021.2.3,MacIntel,60.0024001,,,,,,,,,,,0.9337,1,,,,,,,,,,,,,,m,1,0.9337,,,,,,,,0.069518229,-0.392092014,0,0,0,,0,48,48,56,1,PACKET,HB,old,m,./images/PACKETHB.png,,,,,,,,,,,,,,,,,,,,,,,,,,,,,,,,,,,
,,,,,,,,,,,,,,,,,5cfe0c0b09897800014ff31b,23,2022-02-12_16h17.40.535,lexical_decision_task_DD_L3,2021.2.3,MacIntel,60.0024001,,,,,,,,,,,1.1748,1,,,,,,,,,,,,,,m,1,1.1748,,,,,,,,0.069518229,-0.392092014,0,0,0,,0,49,49,51,1,ONION,LB,old,m,./images/ONIONLB.png,,,,,,,,,,,,,,,,,,,,,,,,,,,,,,,,,,,
,,,,,,,,,,,,,,,,,5cfe0c0b09897800014ff31b,23,2022-02-12_16h17.40.535,lexical_decision_task_DD_L3,2021.2.3,MacIntel,60.0024001,,,,,,,,,,,0.7399,1,,,,,,,,,,,,,,z,1,0.7399,,,,,,,,0.069518229,-0.392092014,0,0,0,,0,50,50,126,1,GUELS,C,old,z,./images/GUELS.png,,,,,,,,,,,,,,,,,,,,,,,,,,,,,,,,,,,
,,,,,,,,,,,,,,,,,5cfe0c0b09897800014ff31b,23,2022-02-12_16h17.40.535,lexical_decision_task_DD_L3,2021.2.3,MacIntel,60.0024001,,,,,,,,,,,0.9255,1,,,,,,,,,,,,,,z,1,0.9255,,,,,,,,0.069518229,-0.392092014,0,0,0,,0,51,51,125,1,MOOKY,LB,old,z,./images/MOOKYLB.png,,,,,,,,,,,,,,,,,,,,,,,,,,,,,,,,,,,
,,,,,,,,,,,,,,,,,5cfe0c0b09897800014ff31b,23,2022-02-12_16h17.40.535,lexical_decision_task_DD_L3,2021.2.3,MacIntel,60.0024001,,,,,,,,,,,0.9075,1,,,,,,,,,,,,,,z,1,0.9075,,,,,,,,0.069518229,-0.392092014,0,0,0,,0,52,52,131,1,NACES,LB,old,z,./images/NACESLB.png,,,,,,,,,,,,,,,,,,,,,,,,,,,,,,,,,,,
,,,,,,,,,,,,,,,,,5cfe0c0b09897800014ff31b,23,2022-02-12_16h17.40.535,lexical_decision_task_DD_L3,2021.2.3,MacIntel,60.0024001,,,,,,,,,,,0.5623,1,,,,,,,,,,,,,,m,1,0.5623,,,,,,,,0.069518229,-0.392092014,0,0,0,,0,53,53,70,1,URINE,C,old,m,./images/URINE.png,,,,,,,,,,,,,,,,,,,,,,,,,,,,,,,,,,,
,,,,,,,,,,,,,,,,,5cfe0c0b09897800014ff31b,23,2022-02-12_16h17.40.535,lexical_decision_task_DD_L3,2021.2.3,MacIntel,60.0024001,,,,,,,,,,,1.2434,1,,,,,,,,,,,,,,z,1,1.2434,,,,,,,,0.069518229,-0.392092014,0,0,0,,0,54,54,118,1,BAVEL,HB,old,z,./images/BAVELHB.png,,,,,,,,,,,,,,,,,,,,,,,,,,,,,,,,,,,
,,,,,,,,,,,,,,,,,5cfe0c0b09897800014ff31b,23,2022-02-12_16h17.40.535,lexical_decision_task_DD_L3,2021.2.3,MacIntel,60.0024001,,,,,,,,,,,0.8702,1,,,,,,,,,,,,,,z,1,0.8702,,,,,,,,0.069518229,-0.392092014,0,0,0,,0,55,55,155,1,CANGY,LB,old,z,./images/CANGYLB.png,,,,,,,,,,,,,,,,,,,,,,,,,,,,,,,,,,,
,,,,,,,,,,,,,,,,,5cfe0c0b09897800014ff31b,23,2022-02-12_16h17.40.535,lexical_decision_task_DD_L3,2021.2.3,MacIntel,60.0024001,,,,,,,,,,,1.1236,1,,,,,,,,,,,,,,m,1,1.1236,,,,,,,,0.069518229,-0.392092014,0,0,0,,0,56,56,74,1,CEMENT,HB,old,m,./images/CEMENTHB.png,,,,,,,,,,,,,,,,,,,,,,,,,,,,,,,,,,,
,,,,,,,,,,,,,,,,,5cfe0c0b09897800014ff31b,23,2022-02-12_16h17.40.535,lexical_decision_task_DD_L3,2021.2.3,MacIntel,60.0024001,,,,,,,,,,,0.9066,1,,,,,,,,,,,,,,z,1,0.9066,,,,,,,,0.069518229,-0.392092014,0,0,0,,0,57,57,165,1,TROWN,C,old,z,./images/TROWN.png,,,,,,,,,,,,,,,,,,,,,,,,,,,,,,,,,,,
,,,,,,,,,,,,,,,,,5cfe0c0b09897800014ff31b,23,2022-02-12_16h17.40.535,lexical_decision_task_DD_L3,2021.2.3,MacIntel,60.0024001,,,,,,,,,,,1.9583,1,,,,,,,,,,,,,,z,1,1.9583,,,,,,,,0.069518229,-0.392092014,0,0,0,,0,58,58,95,1,HANTY,LB,old,z,./images/HANTYLB.png,,,,,,,,,,,,,,,,,,,,,,,,,,,,,,,,,,,
,,,,,,,,,,,,,,,,,5cfe0c0b09897800014ff31b,23,2022-02-12_16h17.40.535,lexical_decision_task_DD_L3,2021.2.3,MacIntel,60.0024001,,,,,,,,,,,1.3118,1,,,,,,,,,,,,,,m,1,1.3118,,,,,,,,0.069518229,-0.392092014,0,0,0,,0,59,59,20,1,CRADLE,HB,old,m,./images/CRADLEHB.png,,,,,,,,,,,,,,,,,,,,,,,,,,,,,,,,,,,
,,,,,,,,,,,,,,,,,5cfe0c0b09897800014ff31b,23,2022-02-12_16h17.40.535,lexical_decision_task_DD_L3,2021.2.3,MacIntel,60.0024001,,,,,,,,,,,1.791,1,,,,,,,,,,,,,,z,1,1.791,,,,,,,,0.069518229,-0.392092014,0,0,0,,0,60,60,140,1,DOVET,LB,old,z,./images/DOVETLB.png,,,,,,,,,,,,,,,,,,,,,,,,,,,,,,,,,,,
,,,,,,,,,,,,,,,,,5cfe0c0b09897800014ff31b,23,2022-02-12_16h17.40.535,lexical_decision_task_DD_L3,2021.2.3,MacIntel,60.0024001,,,,,,,,,,,1.1074,1,,,,,,,,,,,,,,z,1,1.1074,,,,,,,,0.069518229,-0.392092014,0,0,0,,0,61,61,167,1,ZONET,LB,old,z,./images/ZONETLB.png,,,,,,,,,,,,,,,,,,,,,,,,,,,,,,,,,,,
,,,,,,,,,,,,,,,,,5cfe0c0b09897800014ff31b,23,2022-02-12_16h17.40.535,lexical_decision_task_DD_L3,2021.2.3,MacIntel,60.0024001,,,,,,,,,,,0.8973,1,,,,,,,,,,,,,,m,1,0.8973,,,,,,,,0.069518229,-0.392092014,0,0,0,,0,62,62,75,1,GRAIN,LB,old,m,./images/GRAINLB.png,,,,,,,,,,,,,,,,,,,,,,,,,,,,,,,,,,,
,,,,,,,,,,,,,,,,,5cfe0c0b09897800014ff31b,23,2022-02-12_16h17.40.535,lexical_decision_task_DD_L3,2021.2.3,MacIntel,60.0024001,,,,,,,,,,,1.1759,1,,,,,,,,,,,,,,m,1,1.1759,,,,,,,,0.069518229,-0.392092014,0,0,0,,0,63,63,77,1,COUCH,HB,old,m,./images/COUCHHB.png,,,,,,,,,,,,,,,,,,,,,,,,,,,,,,,,,,,
,,,,,,,,,,,,,,,,,5cfe0c0b09897800014ff31b,23,2022-02-12_16h17.40.535,lexical_decision_task_DD_L3,2021.2.3,MacIntel,60.0024001,,,,,,,,,,,0.7008,1,,,,,,,,,,,,,,z,1,0.7008,,,,,,,,0.069518229,-0.392092014,0,0,0,,0,64,64,117,1,STEEG,C,old,z,./images/STEEG.png,,,,,,,,,,,,,,,,,,,,,,,,,,,,,,,,,,,
,,,,,,,,,,,,,,,,,5cfe0c0b09897800014ff31b,23,2022-02-12_16h17.40.535,lexical_decision_task_DD_L3,2021.2.3,MacIntel,60.0024001,,,,,,,,,,,0.7939,1,,,,,,,,,,,,,,m,1,0.7939,,,,,,,,0.069518229,-0.392092014,0,0,0,,0,65,65,57,1,MOOSE,LB,old,m,./images/MOOSELB.png,,,,,,,,,,,,,,,,,,,,,,,,,,,,,,,,,,,
,,,,,,,,,,,,,,,,,5cfe0c0b09897800014ff31b,23,2022-02-12_16h17.40.535,lexical_decision_task_DD_L3,2021.2.3,MacIntel,60.0024001,,,,,,,,,,,0.7551,1,,,,,,,,,,,,,,m,1,0.7551,,,,,,,,0.069518229,-0.392092014,0,0,0,,0,66,66,28,1,FALCON,C,old,m,./images/FALCON.png,,,,,,,,,,,,,,,,,,,,,,,,,,,,,,,,,,,
,,,,,,,,,,,,,,,,,5cfe0c0b09897800014ff31b,23,2022-02-12_16h17.40.535,lexical_decision_task_DD_L3,2021.2.3,MacIntel,60.0024001,,,,,,,,,,,0.9288,1,,,,,,,,,,,,,,m,1,0.9288,,,,,,,,0.069518229,-0.392092014,0,0,0,,0,67,67,35,1,PEACH,HB,old,m,./images/PEACHHB.png,,,,,,,,,,,,,,,,,,,,,,,,,,,,,,,,,,,
,,,,,,,,,,,,,,,,,5cfe0c0b09897800014ff31b,23,2022-02-12_16h17.40.535,lexical_decision_task_DD_L3,2021.2.3,MacIntel,60.0024001,,,,,,,,,,,0.6454,1,,,,,,,,,,,,,,m,1,0.6454,,,,,,,,0.069518229,-0.392092014,0,0,0,,0,68,68,73,1,SNACK,C,old,m,./images/SNACK.png,,,,,,,,,,,,,,,,,,,,,,,,,,,,,,,,,,,
,,,,,,,,,,,,,,,,,5cfe0c0b09897800014ff31b,23,2022-02-12_16h17.40.535,lexical_decision_task_DD_L3,2021.2.3,MacIntel,60.0024001,,,,,,,,,,,0.9435,1,,,,,,,,,,,,,,z,1,0.9435,,,,,,,,0.069518229,-0.392092014,0,0,0,,0,69,69,122,1,BLOOT,LB,old,z,./images/BLOOTLB.png,,,,,,,,,,,,,,,,,,,,,,,,,,,,,,,,,,,
,,,,,,,,,,,,,,,,,5cfe0c0b09897800014ff31b,23,2022-02-12_16h17.40.535,lexical_decision_task_DD_L3,2021.2.3,MacIntel,60.0024001,,,,,,,,,,,1.7357,1,,,,,,,,,,,,,,m,1,1.7357,,,,,,,,0.069518229,-0.392092014,0,0,0,,0,70,70,2,1,BEARD,HB,old,m,./images/BEARDHB.png,,,,,,,,,,,,,,,,,,,,,,,,,,,,,,,,,,,
,,,,,,,,,,,,,,,,,5cfe0c0b09897800014ff31b,23,2022-02-12_16h17.40.535,lexical_decision_task_DD_L3,2021.2.3,MacIntel,60.0024001,,,,,,,,,,,0.8753,1,,,,,,,,,,,,,,m,1,0.8753,,,,,,,,0.069518229,-0.392092014,0,0,0,,0,71,71,32,1,BARREL,HB,old,m,./images/BARRELHB.png,,,,,,,,,,,,,,,,,,,,,,,,,,,,,,,,,,,
,,,,,,,,,,,,,,,,,5cfe0c0b09897800014ff31b,23,2022-02-12_16h17.40.535,lexical_decision_task_DD_L3,2021.2.3,MacIntel,60.0024001,,,,,,,,,,,0.6549,1,,,,,,,,,,,,,,m,1,0.6549,,,,,,,,0.069518229,-0.392092014,0,0,0,,0,72,72,34,1,CANYON,C,old,m,./images/CANYON.png,,,,,,,,,,,,,,,,,,,,,,,,,,,,,,,,,,,
,,,,,,,,,,,,,,,,,5cfe0c0b09897800014ff31b,23,2022-02-12_16h17.40.535,lexical_decision_task_DD_L3,2021.2.3,MacIntel,60.0024001,,,,,,,,,,,0.7264,1,,,,,,,,,,,,,,z,1,0.7264,,,,,,,,0.069518229,-0.392092014,0,0,0,,0,73,73,113,1,LINEW,LB,old,z,./images/LINEWLB.png,,,,,,,,,,,,,,,,,,,,,,,,,,,,,,,,,,,
,,,,,,,,,,,,,,,,,5cfe0c0b09897800014ff31b,23,2022-02-12_16h17.40.535,lexical_decision_task_DD_L3,2021.2.3,MacIntel,60.0024001,,,,,,,,,,,0.8596,1,,,,,,,,,,,,,,m,1,0.8596,,,,,,,,0.069518229,-0.392092014,0,0,0,,0,74,74,68,1,TORCH,HB,old,m,./images/TORCHHB.png,,,,,,,,,,,,,,,,,,,,,,,,,,,,,,,,,,,
,,,,,,,,,,,,,,,,,5cfe0c0b09897800014ff31b,23,2022-02-12_16h17.40.535,lexical_decision_task_DD_L3,2021.2.3,MacIntel,60.0024001,,,,,,,,,,,2.1273,1,,,,,,,,,,,,,,z,1,2.1273,,,,,,,,0.069518229,-0.392092014,0,0,0,,0,75,75,88,1,GLUSH,HB,old,z,./images/GLUSHHB.png,,,,,,,,,,,,,,,,,,,,,,,,,,,,,,,,,,,
,,,,,,,,,,,,,,,,,5cfe0c0b09897800014ff31b,23,2022-02-12_16h17.40.535,lexical_decision_task_DD_L3,2021.2.3,MacIntel,60.0024001,,,,,,,,,,,1.4424,1,,,,,,,,,,,,,,m,1,1.4424,,,,,,,,0.069518229,-0.392092014,0,0,0,,0,76,76,47,1,BERRY,HB,old,m,./images/BERRYHB.png,,,,,,,,,,,,,,,,,,,,,,,,,,,,,,,,,,,
,,,,,,,,,,,,,,,,,5cfe0c0b09897800014ff31b,23,2022-02-12_16h17.40.535,lexical_decision_task_DD_L3,2021.2.3,MacIntel,60.0024001,,,,,,,,,,,5.1818,1,,,,,,,,,,,,,,z,1,5.1818,,,,,,,,0.069518229,-0.392092014,0,0,0,,0,77,77,130,1,CRILL,HB,old,z,./images/CRILLHB.png,,,,,,,,,,,,,,,,,,,,,,,,,,,,,,,,,,,
,,,,,,,,,,,,,,,,,5cfe0c0b09897800014ff31b,23,2022-02-12_16h17.40.535,lexical_decision_task_DD_L3,2021.2.3,MacIntel,60.0024001,,,,,,,,,,,1.2941,1,,,,,,,,,,,,,,m,1,1.2941,,,,,,,,0.069518229,-0.392092014,0,0,0,,0,78,78,8,1,TULIP,HB,old,m,./images/TULIPHB.png,,,,,,,,,,,,,,,,,,,,,,,,,,,,,,,,,,,
,,,,,,,,,,,,,,,,,5cfe0c0b09897800014ff31b,23,2022-02-12_16h17.40.535,lexical_decision_task_DD_L3,2021.2.3,MacIntel,60.0024001,,,,,,,,,,,2.0105,1,,,,,,,,,,,,,,m,1,2.0105,,,,,,,,0.069518229,-0.392092014,0,0,0,,0,79,79,63,1,MIRROR,LB,old,m,./images/MIRRORLB.png,,,,,,,,,,,,,,,,,,,,,,,,,,,,,,,,,,,
,,,,,,,,,,,,,,,,,5cfe0c0b09897800014ff31b,23,2022-02-12_16h17.40.535,lexical_decision_task_DD_L3,2021.2.3,MacIntel,60.0024001,,,,,,,,,,,1.3531,1,,,,,,,,,,,,,,z,1,1.3531,,,,,,,,0.069518229,-0.392092014,0,0,0,,0,80,80,129,1,PRANS,C,old,z,./images/PRANS.png,,,,,,,,,,,,,,,,,,,,,,,,,,,,,,,,,,,
,,,,,,,,,,,,,,,,,5cfe0c0b09897800014ff31b,23,2022-02-12_16h17.40.535,lexical_decision_task_DD_L3,2021.2.3,MacIntel,60.0024001,,,,,,,,,,,0.857,1,,,,,,,,,,,,,,m,1,0.857,,,,,,,,0.069518229,-0.392092014,0,0,0,,0,81,81,45,1,KITTEN,LB,old,m,./images/KITTENLB.png,,,,,,,,,,,,,,,,,,,,,,,,,,,,,,,,,,,
,,,,,,,,,,,,,,,,,5cfe0c0b09897800014ff31b,23,2022-02-12_16h17.40.535,lexical_decision_task_DD_L3,2021.2.3,MacIntel,60.0024001,,,,,,,,,,,0.7576,1,,,,,,,,,,,,,,z,1,0.7576,,,,,,,,0.069518229,-0.392092014,0,0,0,,0,82,82,86,1,AIFED,LB,old,z,./images/AIFEDLB.png,,,,,,,,,,,,,,,,,,,,,,,,,,,,,,,,,,,
,,,,,,,,,,,,,,,,,5cfe0c0b09897800014ff31b,23,2022-02-12_16h17.40.535,lexical_decision_task_DD_L3,2021.2.3,MacIntel,60.0024001,,,,,,,,,,,3.5145,1,,,,,,,,,,,,,,z,1,3.5145,,,,,,,,0.069518229,-0.392092014,0,0,0,space,0,83,83,91,1,SHENS,HB,old,z,./images/SHENSHB.png,19.741,,,,,,,,,,,,,,,,,,,,,,,,,,,,,,,,,,
,,,,,,,,,,,,,,,,,5cfe0c0b09897800014ff31b,23,2022-02-12_16h17.40.535,lexical_decision_task_DD_L3,2021.2.3,MacIntel,60.0024001,,,,,,,,,,,0.765,1,,,,,,,,,,,,,,z,1,0.765,,,,,,,,0.069518229,-0.392092014,0,0,0,,0,84,84,149,1,VEASE,LB,old,z,./images/VEASELB.png,,,,,,,,,,,,,,,,,,,,,,,,,,,,,,,,,,,
,,,,,,,,,,,,,,,,,5cfe0c0b09897800014ff31b,23,2022-02-12_16h17.40.535,lexical_decision_task_DD_L3,2021.2.3,MacIntel,60.0024001,,,,,,,,,,,1.3583,1,,,,,,,,,,,,,,m,1,1.3583,,,,,,,,0.069518229,-0.392092014,0,0,0,,0,85,85,72,1,NOOSE,LB,old,m,./images/NOOSELB.png,,,,,,,,,,,,,,,,,,,,,,,,,,,,,,,,,,,
,,,,,,,,,,,,,,,,,5cfe0c0b09897800014ff31b,23,2022-02-12_16h17.40.535,lexical_decision_task_DD_L3,2021.2.3,MacIntel,60.0024001,,,,,,,,,,,1.0076,1,,,,,,,,,,,,,,z,1,1.0076,,,,,,,,0.069518229,-0.392092014,0,0,0,,0,86,86,152,1,FRAIN,LB,old,z,./images/FRAINLB.png,,,,,,,,,,,,,,,,,,,,,,,,,,,,,,,,,,,
,,,,,,,,,,,,,,,,,5cfe0c0b09897800014ff31b,23,2022-02-12_16h17.40.535,lexical_decision_task_DD_L3,2021.2.3,MacIntel,60.0024001,,,,,,,,,,,0.7514,1,,,,,,,,,,,,,,z,1,0.7514,,,,,,,,0.069518229,-0.392092014,0,0,0,,0,87,87,135,1,JOODY,C,old,z,./images/JOODY.png,,,,,,,,,,,,,,,,,,,,,,,,,,,,,,,,,,,
,,,,,,,,,,,,,,,,,5cfe0c0b09897800014ff31b,23,2022-02-12_16h17.40.535,lexical_decision_task_DD_L3,2021.2.3,MacIntel,60.0024001,,,,,,,,,,,0.8133,1,,,,,,,,,,,,,,z,1,0.8133,,,,,,,,0.069518229,-0.392092014,0,0,0,,0,88,88,114,1,RIKES,C,old,z,./images/RIKES.png,,,,,,,,,,,,,,,,,,,,,,,,,,,,,,,,,,,
,,,,,,,,,,,,,,,,,5cfe0c0b09897800014ff31b,23,2022-02-12_16h17.40.535,lexical_decision_task_DD_L3,2021.2.3,MacIntel,60.0024001,,,,,,,,,,,1.2748,1,,,,,,,,,,,,,,m,1,1.2748,,,,,,,,0.069518229,-0.392092014,0,0,0,,0,89,89,38,1,LADDER,HB,old,m,./images/LADDERHB.png,,,,,,,,,,,,,,,,,,,,,,,,,,,,,,,,,,,
,,,,,,,,,,,,,,,,,5cfe0c0b09897800014ff31b,23,2022-02-12_16h17.40.535,lexical_decision_task_DD_L3,2021.2.3,MacIntel,60.0024001,,,,,,,,,,,0.6356,1,,,,,,,,,,,,,,m,1,0.6356,,,,,,,,0.069518229,-0.392092014,0,0,0,,0,90,90,3,1,FINGER,LB,old,m,./images/FINGERLB.png,,,,,,,,,,,,,,,,,,,,,,,,,,,,,,,,,,,
,,,,,,,,,,,,,,,,,5cfe0c0b09897800014ff31b,23,2022-02-12_16h17.40.535,lexical_decision_task_DD_L3,2021.2.3,MacIntel,60.0024001,,,,,,,,,,,0.6703,1,,,,,,,,,,,,,,m,1,0.6703,,,,,,,,0.069518229,-0.392092014,0,0,0,,0,91,91,37,1,BIRTH,C,old,m,./images/BIRTH.png,,,,,,,,,,,,,,,,,,,,,,,,,,,,,,,,,,,
,,,,,,,,,,,,,,,,,5cfe0c0b09897800014ff31b,23,2022-02-12_16h17.40.535,lexical_decision_task_DD_L3,2021.2.3,MacIntel,60.0024001,,,,,,,,,,,0.6293,1,,,,,,,,,,,,,,m,1,0.6293,,,,,,,,0.069518229,-0.392092014,0,0,0,,0,92,92,82,1,SUNSET,C,old,m,./images/SUNSET.png,,,,,,,,,,,,,,,,,,,,,,,,,,,,,,,,,,,
,,,,,,,,,,,,,,,,,5cfe0c0b09897800014ff31b,23,2022-02-12_16h17.40.535,lexical_decision_task_DD_L3,2021.2.3,MacIntel,60.0024001,,,,,,,,,,,0.898,1,,,,,,,,,,,,,,m,1,0.898,,,,,,,,0.069518229,-0.392092014,0,0,0,,0,93,93,53,1,CARPET,HB,old,m,./images/CARPETHB.png,,,,,,,,,,,,,,,,,,,,,,,,,,,,,,,,,,,
,,,,,,,,,,,,,,,,,5cfe0c0b09897800014ff31b,23,2022-02-12_16h17.40.535,lexical_decision_task_DD_L3,2021.2.3,MacIntel,60.0024001,,,,,,,,,,,0.6146,1,,,,,,,,,,,,,,m,1,0.6146,,,,,,,,0.069518229,-0.392092014,0,0,0,,0,94,94,48,1,SPORT,LB,old,m,./images/SPORTLB.png,,,,,,,,,,,,,,,,,,,,,,,,,,,,,,,,,,,
,,,,,,,,,,,,,,,,,5cfe0c0b09897800014ff31b,23,2022-02-12_16h17.40.535,lexical_decision_task_DD_L3,2021.2.3,MacIntel,60.0024001,,,,,,,,,,,0.7238,1,,,,,,,,,,,,,,m,1,0.7238,,,,,,,,0.069518229,-0.392092014,0,0,0,,0,95,95,30,1,STORM,LB,old,m,./images/STORMLB.png,,,,,,,,,,,,,,,,,,,,,,,,,,,,,,,,,,,
,,,,,,,,,,,,,,,,,5cfe0c0b09897800014ff31b,23,2022-02-12_16h17.40.535,lexical_decision_task_DD_L3,2021.2.3,MacIntel,60.0024001,,,,,,,,,,,2.283,0,,,,,,,,,,,,,,m,0,2.283,,,,,,,,0.069518229,-0.392092014,0,0,0,,0,96,96,166,1,SHORY,HB,old,z,./images/SHORYHB.png,,,,,,,,,,,,,,,,,,,,,,,,,,,,,,,,,,,
,,,,,,,,,,,,,,,,,5cfe0c0b09897800014ff31b,23,2022-02-12_16h17.40.535,lexical_decision_task_DD_L3,2021.2.3,MacIntel,60.0024001,,,,,,,,,,,0.6292,1,,,,,,,,,,,,,,m,1,0.6292,,,,,,,,0.069518229,-0.392092014,0,0,0,,0,97,97,0,1,TOMATO,LB,old,m,./images/TOMATOLB.png,,,,,,,,,,,,,,,,,,,,,,,,,,,,,,,,,,,
,,,,,,,,,,,,,,,,,5cfe0c0b09897800014ff31b,23,2022-02-12_16h17.40.535,lexical_decision_task_DD_L3,2021.2.3,MacIntel,60.0024001,,,,,,,,,,,2.3939,1,,,,,,,,,,,,,,z,1,2.3939,,,,,,,,0.069518229,-0.392092014,0,0,0,,0,98,98,94,1,BLANS,HB,old,z,./images/BLANSHB.png,,,,,,,,,,,,,,,,,,,,,,,,,,,,,,,,,,,
,,,,,,,,,,,,,,,,,5cfe0c0b09897800014ff31b,23,2022-02-12_16h17.40.535,lexical_decision_task_DD_L3,2021.2.3,MacIntel,60.0024001,,,,,,,,,,,1.233,1,,,,,,,,,,,,,,z,1,1.233,,,,,,,,0.069518229,-0.392092014,0,0,0,,0,99,99,103,1,FLORT,HB,old,z,./images/FLORTHB.png,,,,,,,,,,,,,,,,,,,,,,,,,,,,,,,,,,,
,,,,,,,,,,,,,,,,,5cfe0c0b09897800014ff31b,23,2022-02-12_16h17.40.535,lexical_decision_task_DD_L3,2021.2.3,MacIntel,60.0024001,,,,,,,,,,,1.2066,1,,,,,,,,,,,,,,z,1,1.2066,,,,,,,,0.069518229,-0.392092014,0,0,0,,0,100,100,128,1,GRIFT,LB,old,z,./images/GRIFTLB.png,,,,,,,,,,,,,,,,,,,,,,,,,,,,,,,,,,,
,,,,,,,,,,,,,,,,,5cfe0c0b09897800014ff31b,23,2022-02-12_16h17.40.535,lexical_decision_task_DD_L3,2021.2.3,MacIntel,60.0024001,,,,,,,,,,,0.9977,1,,,,,,,,,,,,,,m,1,0.9977,,,,,,,,0.069518229,-0.392092014,0,0,0,,0,101,101,78,1,LITTER,LB,old,m,./images/LITTERLB.png,,,,,,,,,,,,,,,,,,,,,,,,,,,,,,,,,,,
,,,,,,,,,,,,,,,,,5cfe0c0b09897800014ff31b,23,2022-02-12_16h17.40.535,lexical_decision_task_DD_L3,2021.2.3,MacIntel,60.0024001,,,,,,,,,,,1.0527,1,,,,,,,,,,,,,,z,1,1.0527,,,,,,,,0.069518229,-0.392092014,0,0,0,,0,102,102,124,1,TUNCH,HB,old,z,./images/TUNCHHB.png,,,,,,,,,,,,,,,,,,,,,,,,,,,,,,,,,,,
,,,,,,,,,,,,,,,,,5cfe0c0b09897800014ff31b,23,2022-02-12_16h17.40.535,lexical_decision_task_DD_L3,2021.2.3,MacIntel,60.0024001,,,,,,,,,,,2.2505,1,,,,,,,,,,,,,,z,1,2.2505,,,,,,,,0.069518229,-0.392092014,0,0,0,,0,103,103,127,1,NINDY,HB,old,z,./images/NINDYHB.png,,,,,,,,,,,,,,,,,,,,,,,,,,,,,,,,,,,
,,,,,,,,,,,,,,,,,5cfe0c0b09897800014ff31b,23,2022-02-12_16h17.40.535,lexical_decision_task_DD_L3,2021.2.3,MacIntel,60.0024001,,,,,,,,,,,0.9073,0,,,,,,,,,,,,,,m,0,0.9073,,,,,,,,0.069518229,-0.392092014,0,0,0,,0,104,104,151,1,TINKY,HB,old,z,./images/TINKYHB.png,,,,,,,,,,,,,,,,,,,,,,,,,,,,,,,,,,,
,,,,,,,,,,,,,,,,,5cfe0c0b09897800014ff31b,23,2022-02-12_16h17.40.535,lexical_decision_task_DD_L3,2021.2.3,MacIntel,60.0024001,,,,,,,,,,,0.7743,1,,,,,,,,,,,,,,m,1,0.7743,,,,,,,,0.069518229,-0.392092014,0,0,0,,0,105,105,23,1,WALRUS,HB,old,m,./images/WALRUSHB.png,,,,,,,,,,,,,,,,,,,,,,,,,,,,,,,,,,,
,,,,,,,,,,,,,,,,,5cfe0c0b09897800014ff31b,23,2022-02-12_16h17.40.535,lexical_decision_task_DD_L3,2021.2.3,MacIntel,60.0024001,,,,,,,,,,,0.605,1,,,,,,,,,,,,,,m,1,0.605,,,,,,,,0.069518229,-0.392092014,0,0,0,,0,106,106,25,1,WRIST,C,old,m,./images/WRIST.png,,,,,,,,,,,,,,,,,,,,,,,,,,,,,,,,,,,
,,,,,,,,,,,,,,,,,5cfe0c0b09897800014ff31b,23,2022-02-12_16h17.40.535,lexical_decision_task_DD_L3,2021.2.3,MacIntel,60.0024001,,,,,,,,,,,0.648,1,,,,,,,,,,,,,,m,1,0.648,,,,,,,,0.069518229,-0.392092014,0,0,0,,0,107,107,60,1,TWINS,LB,old,m,./images/TWINSLB.png,,,,,,,,,,,,,,,,,,,,,,,,,,,,,,,,,,,
,,,,,,,,,,,,,,,,,5cfe0c0b09897800014ff31b,23,2022-02-12_16h17.40.535,lexical_decision_task_DD_L3,2021.2.3,MacIntel,60.0024001,,,,,,,,,,,0.6508,1,,,,,,,,,,,,,,m,1,0.6508,,,,,,,,0.069518229,-0.392092014,0,0,0,,0,108,108,46,1,PEARL,C,old,m,./images/PEARL.png,,,,,,,,,,,,,,,,,,,,,,,,,,,,,,,,,,,
,,,,,,,,,,,,,,,,,5cfe0c0b09897800014ff31b,23,2022-02-12_16h17.40.535,lexical_decision_task_DD_L3,2021.2.3,MacIntel,60.0024001,,,,,,,,,,,0.6795,1,,,,,,,,,,,,,,m,1,0.6795,,,,,,,,0.069518229,-0.392092014,0,0,0,,0,109,109,13,1,MOTOR,C,old,m,./images/MOTOR.png,,,,,,,,,,,,,,,,,,,,,,,,,,,,,,,,,,,
,,,,,,,,,,,,,,,,,5cfe0c0b09897800014ff31b,23,2022-02-12_16h17.40.535,lexical_decision_task_DD_L3,2021.2.3,MacIntel,60.0024001,,,,,,,,,,,0.7433,1,,,,,,,,,,,,,,z,1,0.7433,,,,,,,,0.069518229,-0.392092014,0,0,0,,0,110,110,101,1,GLEET,LB,old,z,./images/GLEETLB.png,,,,,,,,,,,,,,,,,,,,,,,,,,,,,,,,,,,
,,,,,,,,,,,,,,,,,5cfe0c0b09897800014ff31b,23,2022-02-12_16h17.40.535,lexical_decision_task_DD_L3,2021.2.3,MacIntel,60.0024001,,,,,,,,,,,0.8208,1,,,,,,,,,,,,,,z,1,0.8208,,,,,,,,0.069518229,-0.392092014,0,0,0,,0,111,111,116,1,BALGY,LB,old,z,./images/BALGYLB.png,,,,,,,,,,,,,,,,,,,,,,,,,,,,,,,,,,,
,,,,,,,,,,,,,,,,,5cfe0c0b09897800014ff31b,23,2022-02-12_16h17.40.535,lexical_decision_task_DD_L3,2021.2.3,MacIntel,60.0024001,,,,,,,,,,,1.2705,1,,,,,,,,,,,,,,m,1,1.2705,,,,,,,,0.069518229,-0.392092014,0,0,0,,0,112,112,43,1,MOSQUE,C,old,m,./images/MOSQUE.png,,,,,,,,,,,,,,,,,,,,,,,,,,,,,,,,,,,
,,,,,,,,,,,,,,,,,5cfe0c0b09897800014ff31b,23,2022-02-12_16h17.40.535,lexical_decision_task_DD_L3,2021.2.3,MacIntel,60.0024001,,,,,,,,,,,0.7644,1,,,,,,,,,,,,,,m,1,0.7644,,,,,,,,0.069518229,-0.392092014,0,0,0,,0,113,113,18,1,JAGUAR,LB,old,m,./images/JAGUARLB.png,,,,,,,,,,,,,,,,,,,,,,,,,,,,,,,,,,,
,,,,,,,,,,,,,,,,,5cfe0c0b09897800014ff31b,23,2022-02-12_16h17.40.535,lexical_decision_task_DD_L3,2021.2.3,MacIntel,60.0024001,,,,,,,,,,,0.8143,1,,,,,,,,,,,,,,z,1,0.8143,,,,,,,,0.069518229,-0.392092014,0,0,0,,0,114,114,143,1,MONGS,LB,old,z,./images/MONGSLB.png,,,,,,,,,,,,,,,,,,,,,,,,,,,,,,,,,,,
,,,,,,,,,,,,,,,,,5cfe0c0b09897800014ff31b,23,2022-02-12_16h17.40.535,lexical_decision_task_DD_L3,2021.2.3,MacIntel,60.0024001,,,,,,,,,,,0.6933,1,,,,,,,,,,,,,,m,1,0.6933,,,,,,,,0.069518229,-0.392092014,0,0,0,,0,115,115,81,1,POODLE,LB,old,m,./images/POODLELB.png,,,,,,,,,,,,,,,,,,,,,,,,,,,,,,,,,,,
,,,,,,,,,,,,,,,,,5cfe0c0b09897800014ff31b,23,2022-02-12_16h17.40.535,lexical_decision_task_DD_L3,2021.2.3,MacIntel,60.0024001,,,,,,,,,,,0.8371,1,,,,,,,,,,,,,,z,1,0.8371,,,,,,,,0.069518229,-0.392092014,0,0,0,,0,116,116,120,1,RINED,C,old,z,./images/RINED.png,,,,,,,,,,,,,,,,,,,,,,,,,,,,,,,,,,,
,,,,,,,,,,,,,,,,,5cfe0c0b09897800014ff31b,23,2022-02-12_16h17.40.535,lexical_decision_task_DD_L3,2021.2.3,MacIntel,60.0024001,,,,,,,,,,,1.2829,1,,,,,,,,,,,,,,z,1,1.2829,,,,,,,,0.069518229,-0.392092014,0,0,0,,0,117,117,107,1,FASKS,LB,old,z,./images/FASKSLB.png,,,,,,,,,,,,,,,,,,,,,,,,,,,,,,,,,,,
,,,,,,,,,,,,,,,,,5cfe0c0b09897800014ff31b,23,2022-02-12_16h17.40.535,lexical_decision_task_DD_L3,2021.2.3,MacIntel,60.0024001,,,,,,,,,,,2.3771,1,,,,,,,,,,,,,,z,1,2.3771,,,,,,,,0.069518229,-0.392092014,0,0,0,,0,118,118,100,1,DRIBS,HB,old,z,./images/DRIBSHB.png,,,,,,,,,,,,,,,,,,,,,,,,,,,,,,,,,,,
,,,,,,,,,,,,,,,,,5cfe0c0b09897800014ff31b,23,2022-02-12_16h17.40.535,lexical_decision_task_DD_L3,2021.2.3,MacIntel,60.0024001,,,,,,,,,,,1.1648,1,,,,,,,,,,,,,,z,1,1.1648,,,,,,,,0.069518229,-0.392092014,0,0,0,,0,119,119,119,1,PAFER,LB,old,z,./images/PAFERLB.png,,,,,,,,,,,,,,,,,,,,,,,,,,,,,,,,,,,
,,,,,,,,,,,,,,,,,5cfe0c0b09897800014ff31b,23,2022-02-12_16h17.40.535,lexical_decision_task_DD_L3,2021.2.3,MacIntel,60.0024001,,,,,,,,,,,0.706,1,,,,,,,,,,,,,,m,1,0.706,,,,,,,,0.069518229,-0.392092014,0,0,0,,0,120,120,67,1,SAILOR,C,old,m,./images/SAILOR.png,,,,,,,,,,,,,,,,,,,,,,,,,,,,,,,,,,,
,,,,,,,,,,,,,,,,,5cfe0c0b09897800014ff31b,23,2022-02-12_16h17.40.535,lexical_decision_task_DD_L3,2021.2.3,MacIntel,60.0024001,,,,,,,,,,,1.1744,0,,,,,,,,,,,,,,m,0,1.1744,,,,,,,,0.069518229,-0.392092014,0,0,0,,0,121,121,110,1,CRUNK,LB,old,z,./images/CRUNKLB.png,,,,,,,,,,,,,,,,,,,,,,,,,,,,,,,,,,,
,,,,,,,,,,,,,,,,,5cfe0c0b09897800014ff31b,23,2022-02-12_16h17.40.535,lexical_decision_task_DD_L3,2021.2.3,MacIntel,60.0024001,,,,,,,,,,,1.2944,1,,,,,,,,,,,,,,z,1,1.2944,,,,,,,,0.069518229,-0.392092014,0,0,0,,0,122,122,133,1,POWDY,HB,old,z,./images/POWDYHB.png,,,,,,,,,,,,,,,,,,,,,,,,,,,,,,,,,,,
,,,,,,,,,,,,,,,,,5cfe0c0b09897800014ff31b,23,2022-02-12_16h17.40.535,lexical_decision_task_DD_L3,2021.2.3,MacIntel,60.0024001,,,,,,,,,,,0.7396,1,,,,,,,,,,,,,,z,1,0.7396,,,,,,,,0.069518229,-0.392092014,0,0,0,,0,123,123,84,1,HAXES,C,old,z,./images/HAXES.png,,,,,,,,,,,,,,,,,,,,,,,,,,,,,,,,,,,
,,,,,,,,,,,,,,,,,5cfe0c0b09897800014ff31b,23,2022-02-12_16h17.40.535,lexical_decision_task_DD_L3,2021.2.3,MacIntel,60.0024001,,,,,,,,,,,0.6009,1,,,,,,,,,,,,,,m,1,0.6009,,,,,,,,0.069518229,-0.392092014,0,0,0,,0,124,124,40,1,SWING,C,old,m,./images/SWING.png,,,,,,,,,,,,,,,,,,,,,,,,,,,,,,,,,,,
,,,,,,,,,,,,,,,,,5cfe0c0b09897800014ff31b,23,2022-02-12_16h17.40.535,lexical_decision_task_DD_L3,2021.2.3,MacIntel,60.0024001,,,,,,,,,,,0.7881,1,,,,,,,,,,,,,,z,1,0.7881,,,,,,,,0.069518229,-0.392092014,0,0,0,space,0,125,125,102,1,DULLE,C,old,z,./images/DULLE.png,1.316,,,,,,,,,,,,,,,,,,,,,,,,,,,,,,,,,,
,,,,,,,,,,,,,,,,,5cfe0c0b09897800014ff31b,23,2022-02-12_16h17.40.535,lexical_decision_task_DD_L3,2021.2.3,MacIntel,60.0024001,,,,,,,,,,,1.6254,1,,,,,,,,,,,,,,z,1,1.6254,,,,,,,,0.069518229,-0.392092014,0,0,0,,0,126,126,109,1,BURGE,HB,old,z,./images/BURGEHB.png,,,,,,,,,,,,,,,,,,,,,,,,,,,,,,,,,,,
,,,,,,,,,,,,,,,,,5cfe0c0b09897800014ff31b,23,2022-02-12_16h17.40.535,lexical_decision_task_DD_L3,2021.2.3,MacIntel,60.0024001,,,,,,,,,,,1.1946,1,,,,,,,,,,,,,,z,1,1.1946,,,,,,,,0.069518229,-0.392092014,0,0,0,,0,127,127,139,1,BLEAR,HB,old,z,./images/BLEARHB.png,,,,,,,,,,,,,,,,,,,,,,,,,,,,,,,,,,,
,,,,,,,,,,,,,,,,,5cfe0c0b09897800014ff31b,23,2022-02-12_16h17.40.535,lexical_decision_task_DD_L3,2021.2.3,MacIntel,60.0024001,,,,,,,,,,,1.4095,1,,,,,,,,,,,,,,m,1,1.4095,,,,,,,,0.069518229,-0.392092014,0,0,0,,0,128,128,71,1,PIMPLE,HB,old,m,./images/PIMPLEHB.png,,,,,,,,,,,,,,,,,,,,,,,,,,,,,,,,,,,
,,,,,,,,,,,,,,,,,5cfe0c0b09897800014ff31b,23,2022-02-12_16h17.40.535,lexical_decision_task_DD_L3,2021.2.3,MacIntel,60.0024001,,,,,,,,,,,0.7976,1,,,,,,,,,,,,,,z,1,0.7976,,,,,,,,0.069518229,-0.392092014,0,0,0,,0,129,129,89,1,DRIEK,LB,old,z,./images/DRIEKLB.png,,,,,,,,,,,,,,,,,,,,,,,,,,,,,,,,,,,
,,,,,,,,,,,,,,,,,5cfe0c0b09897800014ff31b,23,2022-02-12_16h17.40.535,lexical_decision_task_DD_L3,2021.2.3,MacIntel,60.0024001,,,,,,,,,,,1.8631,0,,,,,,,,,,,,,,m,0,1.8631,,,,,,,,0.069518229,-0.392092014,0,0,0,,0,130,130,104,1,GITTY,LB,old,z,./images/GITTYLB.png,,,,,,,,,,,,,,,,,,,,,,,,,,,,,,,,,,,
,,,,,,,,,,,,,,,,,5cfe0c0b09897800014ff31b,23,2022-02-12_16h17.40.535,lexical_decision_task_DD_L3,2021.2.3,MacIntel,60.0024001,,,,,,,,,,,0.9583,1,,,,,,,,,,,,,,z,1,0.9583,,,,,,,,0.069518229,-0.392092014,0,0,0,,0,131,131,146,1,MOOST,LB,old,z,./images/MOOSTLB.png,,,,,,,,,,,,,,,,,,,,,,,,,,,,,,,,,,,
,,,,,,,,,,,,,,,,,5cfe0c0b09897800014ff31b,23,2022-02-12_16h17.40.535,lexical_decision_task_DD_L3,2021.2.3,MacIntel,60.0024001,,,,,,,,,,,0.6925,1,,,,,,,,,,,,,,m,1,0.6925,,,,,,,,0.069518229,-0.392092014,0,0,0,,0,132,132,22,1,MELON,C,old,m,./images/MELON.png,,,,,,,,,,,,,,,,,,,,,,,,,,,,,,,,,,,
,,,,,,,,,,,,,,,,,5cfe0c0b09897800014ff31b,23,2022-02-12_16h17.40.535,lexical_decision_task_DD_L3,2021.2.3,MacIntel,60.0024001,,,,,,,,,,,0.828,1,,,,,,,,,,,,,,z,1,0.828,,,,,,,,0.069518229,-0.392092014,0,0,0,,0,133,133,150,1,NOOLS,C,old,z,./images/NOOLS.png,,,,,,,,,,,,,,,,,,,,,,,,,,,,,,,,,,,
,,,,,,,,,,,,,,,,,5cfe0c0b09897800014ff31b,23,2022-02-12_16h17.40.535,lexical_decision_task_DD_L3,2021.2.3,MacIntel,60.0024001,,,,,,,,,,,1.1272,1,,,,,,,,,,,,,,z,1,1.1272,,,,,,,,0.069518229,-0.392092014,0,0,0,,0,134,134,111,1,HOSSE,C,old,z,./images/HOSSE.png,,,,,,,,,,,,,,,,,,,,,,,,,,,,,,,,,,,
,,,,,,,,,,,,,,,,,5cfe0c0b09897800014ff31b,23,2022-02-12_16h17.40.535,lexical_decision_task_DD_L3,2021.2.3,MacIntel,60.0024001,,,,,,,,,,,2.8431,1,,,,,,,,,,,,,,z,1,2.8431,,,,,,,,0.069518229,-0.392092014,0,0,0,,0,135,135,157,1,INLER,HB,old,z,./images/INLERHB.png,,,,,,,,,,,,,,,,,,,,,,,,,,,,,,,,,,,
,,,,,,,,,,,,,,,,,5cfe0c0b09897800014ff31b,23,2022-02-12_16h17.40.535,lexical_decision_task_DD_L3,2021.2.3,MacIntel,60.0024001,,,,,,,,,,,0.7561,1,,,,,,,,,,,,,,z,1,0.7561,,,,,,,,0.069518229,-0.392092014,0,0,0,,0,136,136,147,1,ZOLES,C,old,z,./images/ZOLES.png,,,,,,,,,,,,,,,,,,,,,,,,,,,,,,,,,,,
,,,,,,,,,,,,,,,,,5cfe0c0b09897800014ff31b,23,2022-02-12_16h17.40.535,lexical_decision_task_DD_L3,2021.2.3,MacIntel,60.0024001,,,,,,,,,,,1.5116,1,,,,,,,,,,,,,,m,1,1.5116,,,,,,,,0.069518229,-0.392092014,0,0,0,,0,137,137,50,1,MALLET,HB,old,m,./images/MALLETHB.png,,,,,,,,,,,,,,,,,,,,,,,,,,,,,,,,,,,
,,,,,,,,,,,,,,,,,5cfe0c0b09897800014ff31b,23,2022-02-12_16h17.40.535,lexical_decision_task_DD_L3,2021.2.3,MacIntel,60.0024001,,,,,,,,,,,0.6863,1,,,,,,,,,,,,,,m,1,0.6863,,,,,,,,0.069518229,-0.392092014,0,0,0,,0,138,138,24,1,SCREW,LB,old,m,./images/SCREWLB.png,,,,,,,,,,,,,,,,,,,,,,,,,,,,,,,,,,,
,,,,,,,,,,,,,,,,,5cfe0c0b09897800014ff31b,23,2022-02-12_16h17.40.535,lexical_decision_task_DD_L3,2021.2.3,MacIntel,60.0024001,,,,,,,,,,,1.5276,1,,,,,,,,,,,,,,m,1,1.5276,,,,,,,,0.069518229,-0.392092014,0,0,0,,0,139,139,62,1,PURSE,HB,old,m,./images/PURSEHB.png,,,,,,,,,,,,,,,,,,,,,,,,,,,,,,,,,,,
,,,,,,,,,,,,,,,,,5cfe0c0b09897800014ff31b,23,2022-02-12_16h17.40.535,lexical_decision_task_DD_L3,2021.2.3,MacIntel,60.0024001,,,,,,,,,,,1.2445,1,,,,,,,,,,,,,,m,1,1.2445,,,,,,,,0.069518229,-0.392092014,0,0,0,,0,140,140,29,1,CRUMB,HB,old,m,./images/CRUMBHB.png,,,,,,,,,,,,,,,,,,,,,,,,,,,,,,,,,,,
,,,,,,,,,,,,,,,,,5cfe0c0b09897800014ff31b,23,2022-02-12_16h17.40.535,lexical_decision_task_DD_L3,2021.2.3,MacIntel,60.0024001,,,,,,,,,,,0.5686,1,,,,,,,,,,,,,,m,1,0.5686,,,,,,,,0.069518229,-0.392092014,0,0,0,,0,141,141,64,1,JELLY,C,old,m,./images/JELLY.png,,,,,,,,,,,,,,,,,,,,,,,,,,,,,,,,,,,
,,,,,,,,,,,,,,,,,5cfe0c0b09897800014ff31b,23,2022-02-12_16h17.40.535,lexical_decision_task_DD_L3,2021.2.3,MacIntel,60.0024001,,,,,,,,,,,3.1438,1,,,,,,,,,,,,,,z,1,3.1438,,,,,,,,0.069518229,-0.392092014,0,0,0,,0,142,142,115,1,MAWNS,HB,old,z,./images/MAWNSHB.png,,,,,,,,,,,,,,,,,,,,,,,,,,,,,,,,,,,
,,,,,,,,,,,,,,,,,5cfe0c0b09897800014ff31b,23,2022-02-12_16h17.40.535,lexical_decision_task_DD_L3,2021.2.3,MacIntel,60.0024001,,,,,,,,,,,0.9274,1,,,,,,,,,,,,,,m,1,0.9274,,,,,,,,0.069518229,-0.392092014,0,0,0,,0,143,143,14,1,PICKLE,HB,old,m,./images/PICKLEHB.png,,,,,,,,,,,,,,,,,,,,,,,,,,,,,,,,,,,
,,,,,,,,,,,,,,,,,5cfe0c0b09897800014ff31b,23,2022-02-12_16h17.40.535,lexical_decision_task_DD_L3,2021.2.3,MacIntel,60.0024001,,,,,,,,,,,0.6118,1,,,,,,,,,,,,,,m,1,0.6118,,,,,,,,0.069518229,-0.392092014,0,0,0,,0,144,144,69,1,COOKER,LB,old,m,./images/COOKERLB.png,,,,,,,,,,,,,,,,,,,,,,,,,,,,,,,,,,,
,,,,,,,,,,,,,,,,,5cfe0c0b09897800014ff31b,23,2022-02-12_16h17.40.535,lexical_decision_task_DD_L3,2021.2.3,MacIntel,60.0024001,,,,,,,,,,,0.6228,1,,,,,,,,,,,,,,m,1,0.6228,,,,,,,,0.069518229,-0.392092014,0,0,0,,0,145,145,1,1,PLANK,C,old,m,./images/PLANK.png,,,,,,,,,,,,,,,,,,,,,,,,,,,,,,,,,,,
,,,,,,,,,,,,,,,,,5cfe0c0b09897800014ff31b,23,2022-02-12_16h17.40.535,lexical_decision_task_DD_L3,2021.2.3,MacIntel,60.0024001,,,,,,,,,,,1.0994,1,,,,,,,,,,,,,,m,1,1.0994,,,,,,,,0.069518229,-0.392092014,0,0,0,,0,146,146,27,1,ATTIC,LB,old,m,./images/ATTICLB.png,,,,,,,,,,,,,,,,,,,,,,,,,,,,,,,,,,,
,,,,,,,,,,,,,,,,,5cfe0c0b09897800014ff31b,23,2022-02-12_16h17.40.535,lexical_decision_task_DD_L3,2021.2.3,MacIntel,60.0024001,,,,,,,,,,,0.8116,1,,,,,,,,,,,,,,z,1,0.8116,,,,,,,,0.069518229,-0.392092014,0,0,0,,0,147,147,123,1,SEDGE,C,old,z,./images/SEDGE.png,,,,,,,,,,,,,,,,,,,,,,,,,,,,,,,,,,,
,,,,,,,,,,,,,,,,,5cfe0c0b09897800014ff31b,23,2022-02-12_16h17.40.535,lexical_decision_task_DD_L3,2021.2.3,MacIntel,60.0024001,,,,,,,,,,,1.2948,1,,,,,,,,,,,,,,z,1,1.2948,,,,,,,,0.069518229,-0.392092014,0,0,0,,0,148,148,134,1,TROSS,LB,old,z,./images/TROSSLB.png,,,,,,,,,,,,,,,,,,,,,,,,,,,,,,,,,,,
,,,,,,,,,,,,,,,,,5cfe0c0b09897800014ff31b,23,2022-02-12_16h17.40.535,lexical_decision_task_DD_L3,2021.2.3,MacIntel,60.0024001,,,,,,,,,,,1.2951,1,,,,,,,,,,,,,,z,1,1.2951,,,,,,,,0.069518229,-0.392092014,0,0,0,,0,149,149,98,1,BAMPS,LB,old,z,./images/BAMPSLB.png,,,,,,,,,,,,,,,,,,,,,,,,,,,,,,,,,,,
,,,,,,,,,,,,,,,,,5cfe0c0b09897800014ff31b,23,2022-02-12_16h17.40.535,lexical_decision_task_DD_L3,2021.2.3,MacIntel,60.0024001,,,,,,,,,,,0.8079,1,,,,,,,,,,,,,,m,1,0.8079,,,,,,,,0.069518229,-0.392092014,0,0,0,,0,150,150,49,1,DRUMS,C,old,m,./images/DRUMS.png,,,,,,,,,,,,,,,,,,,,,,,,,,,,,,,,,,,
,,,,,,,,,,,,,,,,,5cfe0c0b09897800014ff31b,23,2022-02-12_16h17.40.535,lexical_decision_task_DD_L3,2021.2.3,MacIntel,60.0024001,,,,,,,,,,,1.0589,1,,,,,,,,,,,,,,m,1,1.0589,,,,,,,,0.069518229,-0.392092014,0,0,0,,0,151,151,58,1,BABOON,C,old,m,./images/BABOON.png,,,,,,,,,,,,,,,,,,,,,,,,,,,,,,,,,,,
,,,,,,,,,,,,,,,,,5cfe0c0b09897800014ff31b,23,2022-02-12_16h17.40.535,lexical_decision_task_DD_L3,2021.2.3,MacIntel,60.0024001,,,,,,,,,,,0.5455,1,,,,,,,,,,,,,,m,1,0.5455,,,,,,,,0.069518229,-0.392092014,0,0,0,,0,152,152,7,1,PAINT,C,old,m,./images/PAINT.png,,,,,,,,,,,,,,,,,,,,,,,,,,,,,,,,,,,
,,,,,,,,,,,,,,,,,5cfe0c0b09897800014ff31b,23,2022-02-12_16h17.40.535,lexical_decision_task_DD_L3,2021.2.3,MacIntel,60.0024001,,,,,,,,,,,0.8959,1,,,,,,,,,,,,,,z,1,0.8959,,,,,,,,0.069518229,-0.392092014,0,0,0,,0,153,153,90,1,NEAST,C,old,z,./images/NEAST.png,,,,,,,,,,,,,,,,,,,,,,,,,,,,,,,,,,,
,,,,,,,,,,,,,,,,,5cfe0c0b09897800014ff31b,23,2022-02-12_16h17.40.535,lexical_decision_task_DD_L3,2021.2.3,MacIntel,60.0024001,,,,,,,,,,,0.9309,1,,,,,,,,,,,,,,m,1,0.9309,,,,,,,,0.069518229,-0.392092014,0,0,0,,0,154,154,44,1,LIZARD,HB,old,m,./images/LIZARDHB.png,,,,,,,,,,,,,,,,,,,,,,,,,,,,,,,,,,,
,,,,,,,,,,,,,,,,,5cfe0c0b09897800014ff31b,23,2022-02-12_16h17.40.535,lexical_decision_task_DD_L3,2021.2.3,MacIntel,60.0024001,,,,,,,,,,,1.1037,0,,,,,,,,,,,,,,m,0,1.1037,,,,,,,,0.069518229,-0.392092014,0,0,0,,0,155,155,141,1,PLEET,C,old,z,./images/PLEET.png,,,,,,,,,,,,,,,,,,,,,,,,,,,,,,,,,,,
,,,,,,,,,,,,,,,,,5cfe0c0b09897800014ff31b,23,2022-02-12_16h17.40.535,lexical_decision_task_DD_L3,2021.2.3,MacIntel,60.0024001,,,,,,,,,,,0.614,1,,,,,,,,,,,,,,m,1,0.614,,,,,,,,0.069518229,-0.392092014,0,0,0,,0,156,156,36,1,THROAT,LB,old,m,./images/THROATLB.png,,,,,,,,,,,,,,,,,,,,,,,,,,,,,,,,,,,
,,,,,,,,,,,,,,,,,5cfe0c0b09897800014ff31b,23,2022-02-12_16h17.40.535,lexical_decision_task_DD_L3,2021.2.3,MacIntel,60.0024001,,,,,,,,,,,0.7692,1,,,,,,,,,,,,,,z,1,0.7692,,,,,,,,0.069518229,-0.392092014,0,0,0,,0,157,157,87,1,TRING,C,old,z,./images/TRING.png,,,,,,,,,,,,,,,,,,,,,,,,,,,,,,,,,,,
,,,,,,,,,,,,,,,,,5cfe0c0b09897800014ff31b,23,2022-02-12_16h17.40.535,lexical_decision_task_DD_L3,2021.2.3,MacIntel,60.0024001,,,,,,,,,,,1.7691,1,,,,,,,,,,,,,,z,1,1.7691,,,,,,,,0.069518229,-0.392092014,0,0,0,,0,158,158,136,1,WERVE,HB,old,z,./images/WERVEHB.png,,,,,,,,,,,,,,,,,,,,,,,,,,,,,,,,,,,
,,,,,,,,,,,,,,,,,5cfe0c0b09897800014ff31b,23,2022-02-12_16h17.40.535,lexical_decision_task_DD_L3,2021.2.3,MacIntel,60.0024001,,,,,,,,,,,0.5251,1,,,,,,,,,,,,,,m,1,0.5251,,,,,,,,0.069518229,-0.392092014,0,0,0,,0,159,159,76,1,INFANT,C,old,m,./images/INFANT.png,,,,,,,,,,,,,,,,,,,,,,,,,,,,,,,,,,,
,,,,,,,,,,,,,,,,,5cfe0c0b09897800014ff31b,23,2022-02-12_16h17.40.535,lexical_decision_task_DD_L3,2021.2.3,MacIntel,60.0024001,,,,,,,,,,,1.816,1,,,,,,,,,,,,,,z,1,1.816,,,,,,,,0.069518229,-0.392092014,0,0,0,,0,160,160,97,1,CHIDS,HB,old,z,./images/CHIDSHB.png,,,,,,,,,,,,,,,,,,,,,,,,,,,,,,,,,,,
,,,,,,,,,,,,,,,,,5cfe0c0b09897800014ff31b,23,2022-02-12_16h17.40.535,lexical_decision_task_DD_L3,2021.2.3,MacIntel,60.0024001,,,,,,,,,,,1.1327,1,,,,,,,,,,,,,,z,1,1.1327,,,,,,,,0.069518229,-0.392092014,0,0,0,,0,161,161,148,1,JOMS,HB,old,z,./images/JOMSHB.png,,,,,,,,,,,,,,,,,,,,,,,,,,,,,,,,,,,
,,,,,,,,,,,,,,,,,5cfe0c0b09897800014ff31b,23,2022-02-12_16h17.40.535,lexical_decision_task_DD_L3,2021.2.3,MacIntel,60.0024001,,,,,,,,,,,1.0422,1,,,,,,,,,,,,,,z,1,1.0422,,,,,,,,0.069518229,-0.392092014,0,0,0,,0,162,162,158,1,EGECT,LB,old,z,./images/EGECTLB.png,,,,,,,,,,,,,,,,,,,,,,,,,,,,,,,,,,,
,,,,,,,,,,,,,,,,,5cfe0c0b09897800014ff31b,23,2022-02-12_16h17.40.535,lexical_decision_task_DD_L3,2021.2.3,MacIntel,60.0024001,,,,,,,,,,,0.6644,1,,,,,,,,,,,,,,m,1,0.6644,,,,,,,,0.069518229,-0.392092014,0,0,0,,0,163,163,6,1,SQUARE,LB,old,m,./images/SQUARELB.png,,,,,,,,,,,,,,,,,,,,,,,,,,,,,,,,,,,
,,,,,,,,,,,,,,,,,5cfe0c0b09897800014ff31b,23,2022-02-12_16h17.40.535,lexical_decision_task_DD_L3,2021.2.3,MacIntel,60.0024001,,,,,,,,,,,0.8394,0,,,,,,,,,,,,,,m,0,0.8394,,,,,,,,0.069518229,-0.392092014,0,0,0,,0,164,164,162,1,LEICH,C,old,z,./images/LEICH.png,,,,,,,,,,,,,,,,,,,,,,,,,,,,,,,,,,,
,,,,,,,,,,,,,,,,,5cfe0c0b09897800014ff31b,23,2022-02-12_16h17.40.535,lexical_decision_task_DD_L3,2021.2.3,MacIntel,60.0024001,,,,,,,,,,,0.615,1,,,,,,,,,,,,,,m,1,0.615,,,,,,,,0.069518229,-0.392092014,0,0,0,,0,165,165,21,1,KIDNEY,LB,old,m,./images/KIDNEYLB.png,,,,,,,,,,,,,,,,,,,,,,,,,,,,,,,,,,,
,,,,,,,,,,,,,,,,,5cfe0c0b09897800014ff31b,23,2022-02-12_16h17.40.535,lexical_decision_task_DD_L3,2021.2.3,MacIntel,60.0024001,,,,,,,,,,,0.7862,1,,,,,,,,,,,,,,m,1,0.7862,,,,,,,,0.069518229,-0.392092014,0,0,0,,0,166,166,19,1,DOUGH,C,old,m,./images/DOUGH.png,,,,,,,,,,,,,,,,,,,,,,,,,,,,,,,,,,,
,,,,,,,,,,,,,,,,,5cfe0c0b09897800014ff31b,23,2022-02-12_16h17.40.535,lexical_decision_task_DD_L3,2021.2.3,MacIntel,60.0024001,,,,,,,,,,,2.1256,1,,,,,,,,,,,,,,z,1,2.1256,,,,,,,,0.069518229,-0.392092014,0,0,0,,0,167,167,121,1,CEERS,HB,old,z,./images/CEERSHB.png,,,,,,,,,,,,,,,,,,,,,,,,,,,,,,,,,,,
,,,,,,,,,,,,,,,,,5cfe0c0b09897800014ff31b,23,2022-02-12_16h17.40.535,lexical_decision_task_DD_L3,2021.2.3,MacIntel,60.0024001,,,,,,,,,,,,,,,,,,,,,,,,,,,,,,,,,,,,,,,,,,,,,,,,How likely will it be that you will recognize the words presented very blurred on a scale of 0 (not likely) to 100 (most likely)?,,,,,-0.006032986,-0.434939236,1,0,0,jol_adv,4,11.8922,0,0,0,2,1,,,,,,,,,,,,,,,,,,,,,
,,,,,,,,,,,,,,,,,5cfe0c0b09897800014ff31b,23,2022-02-12_16h17.40.535,lexical_decision_task_DD_L3,2021.2.3,MacIntel,60.0024001,,,,,,,,,,,,,,,,,,,,,,,,,,,,,,,,,,,,,,,,,,,,,,,,How likely will it be that you will recognize the words presented clearly on a scale of 0 (not likely) to 100 (most likely)?,,,,,,,,,,,6,9.6188,0,1,1,0,1,,,,,,,,,,,,,,,,,,,,,
,,,,,,,,,,,,,,,,,5cfe0c0b09897800014ff31b,23,2022-02-12_16h17.40.535,lexical_decision_task_DD_L3,2021.2.3,MacIntel,60.0024001,,,,,,,,,,,,,,,,,,,,,,,,,,,,,,,,,,,,,,,,,,,,,,,,How likely will it be that you will recognize the words presented slighly blurred on a scale of 0 (not likely) to 100 (most likely)?,,,,,,,,,,,5,13.5474,0,2,2,1,1,,,,,,,,,,,,,,,,,,,,,
space,50.2478,0.296102431,-0.333732639,0,0,0,,,,,,1,test,"In the next phase you will be presented with the words from the the first phase. Your job is to decide whether you remember seeing the word or not. If you remember seeing the word press ""old"" or type ""m"". If you do not remember seeing the word press ""new"" or type ""z"". Please press the space bar or click on continue to begin. ",,,5cfe0c0b09897800014ff31b,23,2022-02-12_16h17.40.535,lexical_decision_task_DD_L3,2021.2.3,MacIntel,60.0024001,,,,,,,,,,,,,,,,,,,,,,,,,,,,,,,,,,,,,,,,,,,,,,,,,,,,,,,,,,,,,,,,,,0,0,0,0,1,,,,,,,,,,,,,,,,
,,0.120542535,-0.388780382,1,0,0,,,,,,1,test,"In the next phase you will be presented with the words from the the first phase. Your job is to decide whether you remember seeing the word or not. If you remember seeing the word press ""old"" or type ""m"". If you do not remember seeing the word press ""new"" or type ""z"". Please press the space bar or click on continue to begin. ",,,5cfe0c0b09897800014ff31b,23,2022-02-12_16h17.40.535,lexical_decision_task_DD_L3,2021.2.3,MacIntel,60.0024001,,,,,,,,,,,,,,,,,,,,,,,,,,,,,,,,,,,,,,,,,,,,,,,,,,,,,,,,,,,,,,,,,,1,0,1,0,1,instr_done_button,,,,,,,,,,,,,,,
,,-0.003103299,-0.385633681,1,0,0,,,,,,1,test,"In the next phase you will be presented with the words from the the first phase. Your job is to decide whether you remember seeing the word or not. If you remember seeing the word press ""old"" or type ""m"". If you do not remember seeing the word press ""new"" or type ""z"". Please press the space bar or click on continue to begin. ",,,5cfe0c0b09897800014ff31b,23,2022-02-12_16h17.40.535,lexical_decision_task_DD_L3,2021.2.3,MacIntel,60.0024001,,,,,,,,,,,,,,,,,,,,,,,,,,,,,,,,,,,,,,,,,,,,,,,,,,,,,,,,,,,,,,,,,,2,0,2,0,1,instr_done_button,,,,,,,,,,,,,,,
space,2.1516,0.069570312,-0.288355035,0,0,0,,,,,,1,test,"In the next phase you will be presented with the words from the the first phase. Your job is to decide whether you remember seeing the word or not. If you remember seeing the word press ""old"" or type ""m"". If you do not remember seeing the word press ""new"" or type ""z"". Please press the space bar or click on continue to begin. ",,,5cfe0c0b09897800014ff31b,23,2022-02-12_16h17.40.535,lexical_decision_task_DD_L3,2021.2.3,MacIntel,60.0024001,,,,,,,,,,,,,,,,,,,,,,,,,,,,,,,,,,,,,,,,,,,,,,,,,,,,,,,,,,,,,,,,,,3,0,3,0,1,,,,,,,,,,,,,,,,
space,0.6916,0.069570312,-0.288355035,0,0,0,,,,,,1,test,"In the next phase you will be presented with the words from the the first phase. Your job is to decide whether you remember seeing the word or not. If you remember seeing the word press ""old"" or type ""m"". If you do not remember seeing the word press ""new"" or type ""z"". Please press the space bar or click on continue to begin. ",,,5cfe0c0b09897800014ff31b,23,2022-02-12_16h17.40.535,lexical_decision_task_DD_L3,2021.2.3,MacIntel,60.0024001,,,,,,,,,,,,,,,,,,,,,,,,,,,,,,,,,,,,,,,,,,,,,,,,,,,,,,,,,,,,,,,,,,4,0,4,0,1,,,,,,,,,,,,,,,,
,,,,,,,,,,,,,,,,,5cfe0c0b09897800014ff31b,23,2022-02-12_16h17.40.535,lexical_decision_task_DD_L3,2021.2.3,MacIntel,60.0024001,,,,,,,,,,,2.0135,1,,,,,,,,,,,,,,,,,,,,,,,,0.069570312,-0.288355035,0,0,0,,,,,,,MOSQUE,C,m,m,./images/MOSQUE.png,,,,,,,,,,,,,,,,,,,,,m,1,2.0135,,,,,,,,0,0,0,43,1
,,,,,,,,,,,,,,,,,5cfe0c0b09897800014ff31b,23,2022-02-12_16h17.40.535,lexical_decision_task_DD_L3,2021.2.3,MacIntel,60.0024001,,,,,,,,,,,1.033,1,,,,,,,,,,,,,,,,,,,,,,,,0.069570312,-0.288355035,0,0,0,,,,,,,MALLET,HB,m,m,./images/MALLETHB.png,,,,,,,,,,,,,,,,,,,,,m,1,1.033,,,,,,,,0,1,1,50,1
,,,,,,,,,,,,,,,,,5cfe0c0b09897800014ff31b,23,2022-02-12_16h17.40.535,lexical_decision_task_DD_L3,2021.2.3,MacIntel,60.0024001,,,,,,,,,,,1.4554,1,,,,,,,,,,,,,,,,,,,,,,,,0.069570312,-0.288355035,0,0,0,,,,,,,TIGER,C,z,m,./images/TIGER.png,,,,,,,,,,,,,,,,,,,,,z,1,1.4554,,,,,,,,0,2,2,121,1
,,,,,,,,,,,,,,,,,5cfe0c0b09897800014ff31b,23,2022-02-12_16h17.40.535,lexical_decision_task_DD_L3,2021.2.3,MacIntel,60.0024001,,,,,,,,,,,0.789,1,,,,,,,,,,,,,,,,,,,,,,,,0.069570312,-0.288355035,0,0,0,,,,,,,ATTIC,LB,m,m,./images/ATTICLB.png,,,,,,,,,,,,,,,,,,,,,m,1,0.789,,,,,,,,0,3,3,27,1
,,,,,,,,,,,,,,,,,5cfe0c0b09897800014ff31b,23,2022-02-12_16h17.40.535,lexical_decision_task_DD_L3,2021.2.3,MacIntel,60.0024001,,,,,,,,,,,0.9139,0,,,,,,,,,,,,,,,,,,,,,,,,0.069570312,-0.288355035,0,0,0,,,,,,,GRAIN,LB,m,m,./images/GRAINLB.png,,,,,,,,,,,,,,,,,,,,,z,0,0.9139,,,,,,,,0,4,4,75,1
,,,,,,,,,,,,,,,,,5cfe0c0b09897800014ff31b,23,2022-02-12_16h17.40.535,lexical_decision_task_DD_L3,2021.2.3,MacIntel,60.0024001,,,,,,,,,,,0.9299,1,,,,,,,,,,,,,,,,,,,,,,,,0.069570312,-0.288355035,0,0,0,,,,,,,WAGON,C,z,m,./images/WAGON.png,,,,,,,,,,,,,,,,,,,,,z,1,0.9299,,,,,,,,0,5,5,91,1
,,,,,,,,,,,,,,,,,5cfe0c0b09897800014ff31b,23,2022-02-12_16h17.40.535,lexical_decision_task_DD_L3,2021.2.3,MacIntel,60.0024001,,,,,,,,,,,0.8562,1,,,,,,,,,,,,,,,,,,,,,,,,0.069570312,-0.288355035,0,0,0,,,,,,,KIDNEY,LB,m,m,./images/KIDNEYLB.png,,,,,,,,,,,,,,,,,,,,,m,1,0.8562,,,,,,,,0,6,6,21,1
,,,,,,,,,,,,,,,,,5cfe0c0b09897800014ff31b,23,2022-02-12_16h17.40.535,lexical_decision_task_DD_L3,2021.2.3,MacIntel,60.0024001,,,,,,,,,,,0.9736,1,,,,,,,,,,,,,,,,,,,,,,,,0.069570312,-0.288355035,0,0,0,,,,,,,CRATER,LB,z,m,./images/CRATERLB.png,,,,,,,,,,,,,,,,,,,,,z,1,0.9736,,,,,,,,0,7,7,87,1
,,,,,,,,,,,,,,,,,5cfe0c0b09897800014ff31b,23,2022-02-12_16h17.40.535,lexical_decision_task_DD_L3,2021.2.3,MacIntel,60.0024001,,,,,,,,,,,1.1402,1,,,,,,,,,,,,,,,,,,,,,,,,0.069570312,-0.288355035,0,0,0,,,,,,,JUMPER,HB,z,m,./images/JUMPERHB.png,,,,,,,,,,,,,,,,,,,,,z,1,1.1402,,,,,,,,0,8,8,158,1
,,,,,,,,,,,,,,,,,5cfe0c0b09897800014ff31b,23,2022-02-12_16h17.40.535,lexical_decision_task_DD_L3,2021.2.3,MacIntel,60.0024001,,,,,,,,,,,1.0477,0,,,,,,,,,,,,,,,,,,,,,,,,0.069570312,-0.288355035,0,0,0,,,,,,,INFANT,C,m,m,./images/INFANT.png,,,,,,,,,,,,,,,,,,,,,z,0,1.0477,,,,,,,,0,9,9,76,1
,,,,,,,,,,,,,,,,,5cfe0c0b09897800014ff31b,23,2022-02-12_16h17.40.535,lexical_decision_task_DD_L3,2021.2.3,MacIntel,60.0024001,,,,,,,,,,,0.7218,1,,,,,,,,,,,,,,,,,,,,,,,,0.069570312,-0.288355035,0,0,0,,,,,,,DRUMS,C,m,m,./images/DRUMS.png,,,,,,,,,,,,,,,,,,,,,m,1,0.7218,,,,,,,,0,10,10,49,1
,,,,,,,,,,,,,,,,,5cfe0c0b09897800014ff31b,23,2022-02-12_16h17.40.535,lexical_decision_task_DD_L3,2021.2.3,MacIntel,60.0024001,,,,,,,,,,,1.7026,0,,,,,,,,,,,,,,,,,,,,,,,,0.069570312,-0.288355035,0,0,0,,,,,,,STREAM,HB,z,m,./images/STREAMHB.png,,,,,,,,,,,,,,,,,,,,,m,0,1.7026,,,,,,,,0,11,11,125,1
,,,,,,,,,,,,,,,,,5cfe0c0b09897800014ff31b,23,2022-02-12_16h17.40.535,lexical_decision_task_DD_L3,2021.2.3,MacIntel,60.0024001,,,,,,,,,,,1.7093,1,,,,,,,,,,,,,,,,,,,,,,,,0.069570312,-0.288355035,0,0,0,,,,,,,CURRY,LB,z,m,./images/CURRYLB.png,,,,,,,,,,,,,,,,,,,,,z,1,1.7093,,,,,,,,0,12,12,144,1
,,,,,,,,,,,,,,,,,5cfe0c0b09897800014ff31b,23,2022-02-12_16h17.40.535,lexical_decision_task_DD_L3,2021.2.3,MacIntel,60.0024001,,,,,,,,,,,1.823,0,,,,,,,,,,,,,,,,,,,,,,,,0.069570312,-0.288355035,0,0,0,,,,,,,STRING,HB,m,m,./images/STRINGHB.png,,,,,,,,,,,,,,,,,,,,,z,0,1.823,,,,,,,,0,13,13,41,1
,,,,,,,,,,,,,,,,,5cfe0c0b09897800014ff31b,23,2022-02-12_16h17.40.535,lexical_decision_task_DD_L3,2021.2.3,MacIntel,60.0024001,,,,,,,,,,,1.7805,0,,,,,,,,,,,,,,,,,,,,,,,,0.069570312,-0.288355035,0,0,0,,,,,,,MIDGET,C,z,m,./images/MIDGET.png,,,,,,,,,,,,,,,,,,,,,m,0,1.7805,,,,,,,,0,14,14,160,1
,,,,,,,,,,,,,,,,,5cfe0c0b09897800014ff31b,23,2022-02-12_16h17.40.535,lexical_decision_task_DD_L3,2021.2.3,MacIntel,60.0024001,,,,,,,,,,,1.0304,1,,,,,,,,,,,,,,,,,,,,,,,,0.069570312,-0.288355035,0,0,0,,,,,,,URINE,C,m,m,./images/URINE.png,,,,,,,,,,,,,,,,,,,,,m,1,1.0304,,,,,,,,0,15,15,70,1
,,,,,,,,,,,,,,,,,5cfe0c0b09897800014ff31b,23,2022-02-12_16h17.40.535,lexical_decision_task_DD_L3,2021.2.3,MacIntel,60.0024001,,,,,,,,,,,0.7328,0,,,,,,,,,,,,,,,,,,,,,,,,0.069570312,-0.288355035,0,0,0,,,,,,,BASKET,HB,z,m,./images/BASKETHB.png,,,,,,,,,,,,,,,,,,,,,m,0,0.7328,,,,,,,,0,16,16,128,1
,,,,,,,,,,,,,,,,,5cfe0c0b09897800014ff31b,23,2022-02-12_16h17.40.535,lexical_decision_task_DD_L3,2021.2.3,MacIntel,60.0024001,,,,,,,,,,,0.7333,1,,,,,,,,,,,,,,,,,,,,,,,,0.069570312,-0.288355035,0,0,0,,,,,,,PARCEL,LB,z,m,./images/PARCELLB.png,,,,,,,,,,,,,,,,,,,,,z,1,0.7333,,,,,,,,0,17,17,102,1
,,,,,,,,,,,,,,,,,5cfe0c0b09897800014ff31b,23,2022-02-12_16h17.40.535,lexical_decision_task_DD_L3,2021.2.3,MacIntel,60.0024001,,,,,,,,,,,1.3498,1,,,,,,,,,,,,,,,,,,,,,,,,0.069570312,-0.288355035,0,0,0,,,,,,,CANOE,C,z,m,./images/CANOE.png,,,,,,,,,,,,,,,,,,,,,z,1,1.3498,,,,,,,,0,18,18,142,1
,,,,,,,,,,,,,,,,,5cfe0c0b09897800014ff31b,23,2022-02-12_16h17.40.535,lexical_decision_task_DD_L3,2021.2.3,MacIntel,60.0024001,,,,,,,,,,,1.0984,0,,,,,,,,,,,,,,,,,,,,,,,,0.069570312,-0.288355035,0,0,0,,,,,,,GARDEN,C,z,m,./images/GARDEN.png,,,,,,,,,,,,,,,,,,,,,m,0,1.0984,,,,,,,,0,19,19,94,1
,,,,,,,,,,,,,,,,,5cfe0c0b09897800014ff31b,23,2022-02-12_16h17.40.535,lexical_decision_task_DD_L3,2021.2.3,MacIntel,60.0024001,,,,,,,,,,,1.2241,0,,,,,,,,,,,,,,,,,,,,,,,,0.069570312,-0.288355035,0,0,0,,,,,,,MAMMAL,HB,z,m,./images/MAMMALHB.png,,,,,,,,,,,,,,,,,,,,,m,0,1.2241,,,,,,,,0,20,20,146,1
,,,,,,,,,,,,,,,,,5cfe0c0b09897800014ff31b,23,2022-02-12_16h17.40.535,lexical_decision_task_DD_L3,2021.2.3,MacIntel,60.0024001,,,,,,,,,,,1.053,1,,,,,,,,,,,,,,,,,,,,,,,,0.069570312,-0.288355035,0,0,0,,,,,,,ONION,LB,m,m,./images/ONIONLB.png,,,,,,,,,,,,,,,,,,,,,m,1,1.053,,,,,,,,0,21,21,51,1
,,,,,,,,,,,,,,,,,5cfe0c0b09897800014ff31b,23,2022-02-12_16h17.40.535,lexical_decision_task_DD_L3,2021.2.3,MacIntel,60.0024001,,,,,,,,,,,0.8079,0,,,,,,,,,,,,,,,,,,,,,,,,0.069570312,-0.288355035,0,0,0,,,,,,,STOOL,C,z,m,./images/STOOL.png,,,,,,,,,,,,,,,,,,,,,m,0,0.8079,,,,,,,,0,22,22,127,1
,,,,,,,,,,,,,,,,,5cfe0c0b09897800014ff31b,23,2022-02-12_16h17.40.535,lexical_decision_task_DD_L3,2021.2.3,MacIntel,60.0024001,,,,,,,,,,,0.8802,1,,,,,,,,,,,,,,,,,,,,,,,,0.069570312,-0.288355035,0,0,0,,,,,,,CLOWN,C,z,m,./images/CLOWN.png,,,,,,,,,,,,,,,,,,,,,z,1,0.8802,,,,,,,,0,23,23,106,1
,,,,,,,,,,,,,,,,,5cfe0c0b09897800014ff31b,23,2022-02-12_16h17.40.535,lexical_decision_task_DD_L3,2021.2.3,MacIntel,60.0024001,,,,,,,,,,,1.398,0,,,,,,,,,,,,,,,,,,,,,,,,0.069570312,-0.288355035,0,0,0,,,,,,,DOUGH,C,m,m,./images/DOUGH.png,,,,,,,,,,,,,,,,,,,,,z,0,1.398,,,,,,,,0,24,24,19,1
,,,,,,,,,,,,,,,,,5cfe0c0b09897800014ff31b,23,2022-02-12_16h17.40.535,lexical_decision_task_DD_L3,2021.2.3,MacIntel,60.0024001,,,,,,,,,,,0.7561,1,,,,,,,,,,,,,,,,,,,,,,,,0.069570312,-0.288355035,0,0,0,,,,,,,JAGUAR,LB,m,m,./images/JAGUARLB.png,,,,,,,,,,,,,,,,,,,,,m,1,0.7561,,,,,,,,0,25,25,18,1
,,,,,,,,,,,,,,,,,5cfe0c0b09897800014ff31b,23,2022-02-12_16h17.40.535,lexical_decision_task_DD_L3,2021.2.3,MacIntel,60.0024001,,,,,,,,,,,0.7291,0,,,,,,,,,,,,,,,,,,,,,,,,0.069570312,-0.288355035,0,0,0,,,,,,,KITTEN,LB,m,m,./images/KITTENLB.png,,,,,,,,,,,,,,,,,,,,,z,0,0.7291,,,,,,,,0,26,26,45,1
,,,,,,,,,,,,,,,,,5cfe0c0b09897800014ff31b,23,2022-02-12_16h17.40.535,lexical_decision_task_DD_L3,2021.2.3,MacIntel,60.0024001,,,,,,,,,,,0.8154,1,,,,,,,,,,,,,,,,,,,,,,,,0.069570312,-0.288355035,0,0,0,,,,,,,MOTOR,C,m,m,./images/MOTOR.png,,,,,,,,,,,,,,,,,,,,,m,1,0.8154,,,,,,,,0,27,27,13,1
,,,,,,,,,,,,,,,,,5cfe0c0b09897800014ff31b,23,2022-02-12_16h17.40.535,lexical_decision_task_DD_L3,2021.2.3,MacIntel,60.0024001,,,,,,,,,,,0.9305,0,,,,,,,,,,,,,,,,,,,,,,,,0.069570312,-0.288355035,0,0,0,,,,,,,BIRTH,C,m,m,./images/BIRTH.png,,,,,,,,,,,,,,,,,,,,,z,0,0.9305,,,,,,,,0,28,28,37,1
,,,,,,,,,,,,,,,,,5cfe0c0b09897800014ff31b,23,2022-02-12_16h17.40.535,lexical_decision_task_DD_L3,2021.2.3,MacIntel,60.0024001,,,,,,,,,,,1.0467,0,,,,,,,,,,,,,,,,,,,,,,,,0.069570312,-0.288355035,0,0,0,,,,,,,LIZARD,HB,m,m,./images/LIZARDHB.png,,,,,,,,,,,,,,,,,,,,,z,0,1.0467,,,,,,,,0,29,29,44,1
,,,,,,,,,,,,,,,,,5cfe0c0b09897800014ff31b,23,2022-02-12_16h17.40.535,lexical_decision_task_DD_L3,2021.2.3,MacIntel,60.0024001,,,,,,,,,,,0.63,1,,,,,,,,,,,,,,,,,,,,,,,,0.069570312,-0.288355035,0,0,0,,,,,,,BARREL,HB,m,m,./images/BARRELHB.png,,,,,,,,,,,,,,,,,,,,,m,1,0.63,,,,,,,,0,30,30,32,1
,,,,,,,,,,,,,,,,,5cfe0c0b09897800014ff31b,23,2022-02-12_16h17.40.535,lexical_decision_task_DD_L3,2021.2.3,MacIntel,60.0024001,,,,,,,,,,,0.7309,0,,,,,,,,,,,,,,,,,,,,,,,,0.069570312,-0.288355035,0,0,0,,,,,,,BOILER,LB,z,m,./images/BOILERLB.png,,,,,,,,,,,,,,,,,,,,,m,0,0.7309,,,,,,,,0,31,31,120,1
,,,,,,,,,,,,,,,,,5cfe0c0b09897800014ff31b,23,2022-02-12_16h17.40.535,lexical_decision_task_DD_L3,2021.2.3,MacIntel,60.0024001,,,,,,,,,,,0.6813,1,,,,,,,,,,,,,,,,,,,,,,,,0.069570312,-0.288355035,0,0,0,,,,,,,LITTER,LB,m,m,./images/LITTERLB.png,,,,,,,,,,,,,,,,,,,,,m,1,0.6813,,,,,,,,0,32,32,78,1
,,,,,,,,,,,,,,,,,5cfe0c0b09897800014ff31b,23,2022-02-12_16h17.40.535,lexical_decision_task_DD_L3,2021.2.3,MacIntel,60.0024001,,,,,,,,,,,1.1711,1,,,,,,,,,,,,,,,,,,,,,,,,0.069570312,-0.288355035,0,0,0,,,,,,,DIVER,LB,z,m,./images/DIVERLB.png,,,,,,,,,,,,,,,,,,,,,z,1,1.1711,,,,,,,,0,33,33,93,1
,,,,,,,,,,,,,,,,,5cfe0c0b09897800014ff31b,23,2022-02-12_16h17.40.535,lexical_decision_task_DD_L3,2021.2.3,MacIntel,60.0024001,,,,,,,,,,,0.8083,1,,,,,,,,,,,,,,,,,,,,,,,,0.069570312,-0.288355035,0,0,0,,,,,,,LAGOON,HB,z,m,./images/LAGOONHB.png,,,,,,,,,,,,,,,,,,,,,z,1,0.8083,,,,,,,,0,34,34,131,1
,,,,,,,,,,,,,,,,,5cfe0c0b09897800014ff31b,23,2022-02-12_16h17.40.535,lexical_decision_task_DD_L3,2021.2.3,MacIntel,60.0024001,,,,,,,,,,,1.9508,0,,,,,,,,,,,,,,,,,,,,,,,,0.069570312,-0.288355035,0,0,0,,,,,,,HEATER,HB,z,m,./images/HEATERHB.png,,,,,,,,,,,,,,,,,,,,,m,0,1.9508,,,,,,,,0,35,35,140,1
,,,,,,,,,,,,,,,,,5cfe0c0b09897800014ff31b,23,2022-02-12_16h17.40.535,lexical_decision_task_DD_L3,2021.2.3,MacIntel,60.0024001,,,,,,,,,,,0.672,1,,,,,,,,,,,,,,,,,,,,,,,,0.069570312,-0.288355035,0,0,0,,,,,,,SLOPE,LB,z,m,./images/SLOPELB.png,,,,,,,,,,,,,,,,,,,,,z,1,0.672,,,,,,,,0,36,36,114,1
,,,,,,,,,,,,,,,,,5cfe0c0b09897800014ff31b,23,2022-02-12_16h17.40.535,lexical_decision_task_DD_L3,2021.2.3,MacIntel,60.0024001,,,,,,,,,,,0.9405,1,,,,,,,,,,,,,,,,,,,,,,,,0.069570312,-0.288355035,0,0,0,,,,,,,WALRUS,HB,m,m,./images/WALRUSHB.png,,,,,,,,,,,,,,,,,,,,,m,1,0.9405,,,,,,,,0,37,37,23,1
,,,,,,,,,,,,,,,,,5cfe0c0b09897800014ff31b,23,2022-02-12_16h17.40.535,lexical_decision_task_DD_L3,2021.2.3,MacIntel,60.0024001,,,,,,,,,,,0.7301,0,,,,,,,,,,,,,,,,,,,,,,,,0.069570312,-0.288355035,0,0,0,,,,,,,MUMMY,C,z,m,./images/MUMMY.png,,,,,,,,,,,,,,,,,,,,,m,0,0.7301,,,,,,,,0,38,38,130,1
,,,,,,,,,,,,,,,,,5cfe0c0b09897800014ff31b,23,2022-02-12_16h17.40.535,lexical_decision_task_DD_L3,2021.2.3,MacIntel,60.0024001,,,,,,,,,,,1.2706,0,,,,,,,,,,,,,,,,,,,,,,,,0.069570312,-0.288355035,0,0,0,,,,,,,STATUE,LB,z,m,./images/STATUELB.png,,,,,,,,,,,,,,,,,,,,,m,0,1.2706,,,,,,,,0,39,39,150,1
,,,,,,,,,,,,,,,,,5cfe0c0b09897800014ff31b,23,2022-02-12_16h17.40.535,lexical_decision_task_DD_L3,2021.2.3,MacIntel,60.0024001,,,,,,,,,,,0.8302,0,,,,,,,,,,,,,,,,,,,,,,,,0.069570312,-0.288355035,0,0,0,,,,,,,MUFFIN,C,m,m,./images/MUFFIN.png,,,,,,,,,,,,,,,,,,,,,z,0,0.8302,,,,,,,,0,40,40,55,1
,,,,,,,,,,,,,,,,,5cfe0c0b09897800014ff31b,23,2022-02-12_16h17.40.535,lexical_decision_task_DD_L3,2021.2.3,MacIntel,60.0024001,,,,,,,,,,,0.8522,1,,,,,,,,,,,,,,,,,,,,,,,,0.069570312,-0.288355035,0,0,0,space,,,,,,BUNNY,C,z,m,./images/BUNNY.png,2.355,,,,,,,,,,,,,,,,,,,,z,1,0.8522,,,,,,,,0,41,41,97,1
,,,,,,,,,,,,,,,,,5cfe0c0b09897800014ff31b,23,2022-02-12_16h17.40.535,lexical_decision_task_DD_L3,2021.2.3,MacIntel,60.0024001,,,,,,,,,,,0.9172,0,,,,,,,,,,,,,,,,,,,,,,,,0.069570312,-0.288355035,0,0,0,,,,,,,SNACK,C,m,m,./images/SNACK.png,,,,,,,,,,,,,,,,,,,,,z,0,0.9172,,,,,,,,0,42,42,73,1
,,,,,,,,,,,,,,,,,5cfe0c0b09897800014ff31b,23,2022-02-12_16h17.40.535,lexical_decision_task_DD_L3,2021.2.3,MacIntel,60.0024001,,,,,,,,,,,0.8004,1,,,,,,,,,,,,,,,,,,,,,,,,0.069570312,-0.288355035,0,0,0,,,,,,,BERRY,HB,m,m,./images/BERRYHB.png,,,,,,,,,,,,,,,,,,,,,m,1,0.8004,,,,,,,,0,43,43,47,1
,,,,,,,,,,,,,,,,,5cfe0c0b09897800014ff31b,23,2022-02-12_16h17.40.535,lexical_decision_task_DD_L3,2021.2.3,MacIntel,60.0024001,,,,,,,,,,,0.8525,1,,,,,,,,,,,,,,,,,,,,,,,,0.069570312,-0.288355035,0,0,0,,,,,,,JUNGLE,HB,m,m,./images/JUNGLEHB.png,,,,,,,,,,,,,,,,,,,,,m,1,0.8525,,,,,,,,0,44,44,83,1
,,,,,,,,,,,,,,,,,5cfe0c0b09897800014ff31b,23,2022-02-12_16h17.40.535,lexical_decision_task_DD_L3,2021.2.3,MacIntel,60.0024001,,,,,,,,,,,0.9519,1,,,,,,,,,,,,,,,,,,,,,,,,0.069570312,-0.288355035,0,0,0,,,,,,,BUTTER,LB,z,m,./images/BUTTERLB.png,,,,,,,,,,,,,,,,,,,,,z,1,0.9519,,,,,,,,0,45,45,111,1
,,,,,,,,,,,,,,,,,5cfe0c0b09897800014ff31b,23,2022-02-12_16h17.40.535,lexical_decision_task_DD_L3,2021.2.3,MacIntel,60.0024001,,,,,,,,,,,1.1131,1,,,,,,,,,,,,,,,,,,,,,,,,0.069570312,-0.288355035,0,0,0,,,,,,,SHIELD,LB,z,m,./images/SHIELDLB.png,,,,,,,,,,,,,,,,,,,,,z,1,1.1131,,,,,,,,0,46,46,132,1
,,,,,,,,,,,,,,,,,5cfe0c0b09897800014ff31b,23,2022-02-12_16h17.40.535,lexical_decision_task_DD_L3,2021.2.3,MacIntel,60.0024001,,,,,,,,,,,0.9975,0,,,,,,,,,,,,,,,,,,,,,,,,0.069570312,-0.288355035,0,0,0,,,,,,,THROAT,LB,m,m,./images/THROATLB.png,,,,,,,,,,,,,,,,,,,,,z,0,0.9975,,,,,,,,0,47,47,36,1
,,,,,,,,,,,,,,,,,5cfe0c0b09897800014ff31b,23,2022-02-12_16h17.40.535,lexical_decision_task_DD_L3,2021.2.3,MacIntel,60.0024001,,,,,,,,,,,0.983,1,,,,,,,,,,,,,,,,,,,,,,,,0.069570312,-0.288355035,0,0,0,,,,,,,CRUMB,HB,m,m,./images/CRUMBHB.png,,,,,,,,,,,,,,,,,,,,,m,1,0.983,,,,,,,,0,48,48,29,1
,,,,,,,,,,,,,,,,,5cfe0c0b09897800014ff31b,23,2022-02-12_16h17.40.535,lexical_decision_task_DD_L3,2021.2.3,MacIntel,60.0024001,,,,,,,,,,,0.8528,0,,,,,,,,,,,,,,,,,,,,,,,,0.069570312,-0.288355035,0,0,0,,,,,,,STOVE,HB,z,m,./images/STOVEHB.png,,,,,,,,,,,,,,,,,,,,,m,0,0.8528,,,,,,,,0,49,49,86,1
,,,,,,,,,,,,,,,,,5cfe0c0b09897800014ff31b,23,2022-02-12_16h17.40.535,lexical_decision_task_DD_L3,2021.2.3,MacIntel,60.0024001,,,,,,,,,,,1.15,0,,,,,,,,,,,,,,,,,,,,,,,,0.069570312,-0.288355035,0,0,0,,,,,,,TORCH,HB,m,m,./images/TORCHHB.png,,,,,,,,,,,,,,,,,,,,,z,0,1.15,,,,,,,,0,50,50,68,1
,,,,,,,,,,,,,,,,,5cfe0c0b09897800014ff31b,23,2022-02-12_16h17.40.535,lexical_decision_task_DD_L3,2021.2.3,MacIntel,60.0024001,,,,,,,,,,,0.8202,0,,,,,,,,,,,,,,,,,,,,,,,,0.069570312,-0.288355035,0,0,0,,,,,,,BROOM,LB,z,m,./images/BROOMLB.png,,,,,,,,,,,,,,,,,,,,,m,0,0.8202,,,,,,,,0,51,51,162,1
,,,,,,,,,,,,,,,,,5cfe0c0b09897800014ff31b,23,2022-02-12_16h17.40.535,lexical_decision_task_DD_L3,2021.2.3,MacIntel,60.0024001,,,,,,,,,,,0.8408,1,,,,,,,,,,,,,,,,,,,,,,,,0.069570312,-0.288355035,0,0,0,,,,,,,CARPET,HB,m,m,./images/CARPETHB.png,,,,,,,,,,,,,,,,,,,,,m,1,0.8408,,,,,,,,0,52,52,53,1
,,,,,,,,,,,,,,,,,5cfe0c0b09897800014ff31b,23,2022-02-12_16h17.40.535,lexical_decision_task_DD_L3,2021.2.3,MacIntel,60.0024001,,,,,,,,,,,1.1998,1,,,,,,,,,,,,,,,,,,,,,,,,0.069570312,-0.288355035,0,0,0,,,,,,,HAMMER,LB,z,m,./images/HAMMERLB.png,,,,,,,,,,,,,,,,,,,,,z,1,1.1998,,,,,,,,0,53,53,159,1
,,,,,,,,,,,,,,,,,5cfe0c0b09897800014ff31b,23,2022-02-12_16h17.40.535,lexical_decision_task_DD_L3,2021.2.3,MacIntel,60.0024001,,,,,,,,,,,0.8037,1,,,,,,,,,,,,,,,,,,,,,,,,0.069570312,-0.288355035,0,0,0,,,,,,,SAUNA,LB,z,m,./images/SAUNALB.png,,,,,,,,,,,,,,,,,,,,,z,1,0.8037,,,,,,,,0,54,54,117,1
,,,,,,,,,,,,,,,,,5cfe0c0b09897800014ff31b,23,2022-02-12_16h17.40.535,lexical_decision_task_DD_L3,2021.2.3,MacIntel,60.0024001,,,,,,,,,,,1.3162,0,,,,,,,,,,,,,,,,,,,,,,,,0.069570312,-0.288355035,0,0,0,,,,,,,BELLY,C,m,m,./images/BELLY.png,,,,,,,,,,,,,,,,,,,,,z,0,1.3162,,,,,,,,0,55,55,10,1
,,,,,,,,,,,,,,,,,5cfe0c0b09897800014ff31b,23,2022-02-12_16h17.40.535,lexical_decision_task_DD_L3,2021.2.3,MacIntel,60.0024001,,,,,,,,,,,0.7904,0,,,,,,,,,,,,,,,,,,,,,,,,0.069570312,-0.288355035,0,0,0,,,,,,,PILOT,HB,z,m,./images/PILOTHB.png,,,,,,,,,,,,,,,,,,,,,m,0,0.7904,,,,,,,,0,56,56,134,1
,,,,,,,,,,,,,,,,,5cfe0c0b09897800014ff31b,23,2022-02-12_16h17.40.535,lexical_decision_task_DD_L3,2021.2.3,MacIntel,60.0024001,,,,,,,,,,,0.7783,1,,,,,,,,,,,,,,,,,,,,,,,,0.069570312,-0.288355035,0,0,0,,,,,,,LLAMA,HB,z,m,./images/LLAMAHB.png,,,,,,,,,,,,,,,,,,,,,z,1,0.7783,,,,,,,,0,57,57,119,1
,,,,,,,,,,,,,,,,,5cfe0c0b09897800014ff31b,23,2022-02-12_16h17.40.535,lexical_decision_task_DD_L3,2021.2.3,MacIntel,60.0024001,,,,,,,,,,,0.7858,1,,,,,,,,,,,,,,,,,,,,,,,,0.069570312,-0.288355035,0,0,0,,,,,,,CRUST,C,m,m,./images/CRUST.png,,,,,,,,,,,,,,,,,,,,,m,1,0.7858,,,,,,,,0,58,58,79,1
,,,,,,,,,,,,,,,,,5cfe0c0b09897800014ff31b,23,2022-02-12_16h17.40.535,lexical_decision_task_DD_L3,2021.2.3,MacIntel,60.0024001,,,,,,,,,,,0.9496,0,,,,,,,,,,,,,,,,,,,,,,,,0.069570312,-0.288355035,0,0,0,,,,,,,TRIPOD,LB,m,m,./images/TRIPODLB.png,,,,,,,,,,,,,,,,,,,,,z,0,0.9496,,,,,,,,0,59,59,54,1
,,,,,,,,,,,,,,,,,5cfe0c0b09897800014ff31b,23,2022-02-12_16h17.40.535,lexical_decision_task_DD_L3,2021.2.3,MacIntel,60.0024001,,,,,,,,,,,0.633,0,,,,,,,,,,,,,,,,,,,,,,,,0.069570312,-0.288355035,0,0,0,,,,,,,POKER,C,z,m,./images/POKER.png,,,,,,,,,,,,,,,,,,,,,m,0,0.633,,,,,,,,0,60,60,151,1
,,,,,,,,,,,,,,,,,5cfe0c0b09897800014ff31b,23,2022-02-12_16h17.40.535,lexical_decision_task_DD_L3,2021.2.3,MacIntel,60.0024001,,,,,,,,,,,0.9788,1,,,,,,,,,,,,,,,,,,,,,,,,0.069570312,-0.288355035,0,0,0,,,,,,,PENCE,C,m,m,./images/PENCE.png,,,,,,,,,,,,,,,,,,,,,m,1,0.9788,,,,,,,,0,61,61,16,1
,,,,,,,,,,,,,,,,,5cfe0c0b09897800014ff31b,23,2022-02-12_16h17.40.535,lexical_decision_task_DD_L3,2021.2.3,MacIntel,60.0024001,,,,,,,,,,,0.7481,1,,,,,,,,,,,,,,,,,,,,,,,,0.069570312,-0.288355035,0,0,0,,,,,,,TOMATO,LB,m,m,./images/TOMATOLB.png,,,,,,,,,,,,,,,,,,,,,m,1,0.7481,,,,,,,,0,62,62,0,1
,,,,,,,,,,,,,,,,,5cfe0c0b09897800014ff31b,23,2022-02-12_16h17.40.535,lexical_decision_task_DD_L3,2021.2.3,MacIntel,60.0024001,,,,,,,,,,,0.9892,1,,,,,,,,,,,,,,,,,,,,,,,,0.069570312,-0.288355035,0,0,0,,,,,,,PEACH,HB,m,m,./images/PEACHHB.png,,,,,,,,,,,,,,,,,,,,,m,1,0.9892,,,,,,,,0,63,63,35,1
,,,,,,,,,,,,,,,,,5cfe0c0b09897800014ff31b,23,2022-02-12_16h17.40.535,lexical_decision_task_DD_L3,2021.2.3,MacIntel,60.0024001,,,,,,,,,,,0.8115,1,,,,,,,,,,,,,,,,,,,,,,,,0.069570312,-0.288355035,0,0,0,,,,,,,MIRROR,LB,m,m,./images/MIRRORLB.png,,,,,,,,,,,,,,,,,,,,,m,1,0.8115,,,,,,,,0,64,64,63,1
,,,,,,,,,,,,,,,,,5cfe0c0b09897800014ff31b,23,2022-02-12_16h17.40.535,lexical_decision_task_DD_L3,2021.2.3,MacIntel,60.0024001,,,,,,,,,,,0.881,1,,,,,,,,,,,,,,,,,,,,,,,,0.069570312,-0.288355035,0,0,0,,,,,,,CLOUD,HB,z,m,./images/CLOUDHB.png,,,,,,,,,,,,,,,,,,,,,z,1,0.881,,,,,,,,0,65,65,110,1
,,,,,,,,,,,,,,,,,5cfe0c0b09897800014ff31b,23,2022-02-12_16h17.40.535,lexical_decision_task_DD_L3,2021.2.3,MacIntel,60.0024001,,,,,,,,,,,0.8295,1,,,,,,,,,,,,,,,,,,,,,,,,0.069570312,-0.288355035,0,0,0,,,,,,,BAMBOO,HB,z,m,./images/BAMBOOHB.png,,,,,,,,,,,,,,,,,,,,,z,1,0.8295,,,,,,,,0,66,66,89,1
,,,,,,,,,,,,,,,,,5cfe0c0b09897800014ff31b,23,2022-02-12_16h17.40.535,lexical_decision_task_DD_L3,2021.2.3,MacIntel,60.0024001,,,,,,,,,,,1.8312,1,,,,,,,,,,,,,,,,,,,,,,,,0.069570312,-0.288355035,0,0,0,,,,,,,ARROW,LB,z,m,./images/ARROWLB.png,,,,,,,,,,,,,,,,,,,,,z,1,1.8312,,,,,,,,0,67,67,153,1
,,,,,,,,,,,,,,,,,5cfe0c0b09897800014ff31b,23,2022-02-12_16h17.40.535,lexical_decision_task_DD_L3,2021.2.3,MacIntel,60.0024001,,,,,,,,,,,0.9302,0,,,,,,,,,,,,,,,,,,,,,,,,0.069570312,-0.288355035,0,0,0,,,,,,,QUILL,C,m,m,./images/QUILL.png,,,,,,,,,,,,,,,,,,,,,z,0,0.9302,,,,,,,,0,68,68,31,1
,,,,,,,,,,,,,,,,,5cfe0c0b09897800014ff31b,23,2022-02-12_16h17.40.535,lexical_decision_task_DD_L3,2021.2.3,MacIntel,60.0024001,,,,,,,,,,,0.7822,1,,,,,,,,,,,,,,,,,,,,,,,,0.069570312,-0.288355035,0,0,0,,,,,,,SAILOR,C,m,m,./images/SAILOR.png,,,,,,,,,,,,,,,,,,,,,m,1,0.7822,,,,,,,,0,69,69,67,1
,,,,,,,,,,,,,,,,,5cfe0c0b09897800014ff31b,23,2022-02-12_16h17.40.535,lexical_decision_task_DD_L3,2021.2.3,MacIntel,60.0024001,,,,,,,,,,,0.839,1,,,,,,,,,,,,,,,,,,,,,,,,0.069570312,-0.288355035,0,0,0,,,,,,,ALLEY,C,z,m,./images/ALLEY.png,,,,,,,,,,,,,,,,,,,,,z,1,0.839,,,,,,,,0,70,70,139,1
,,,,,,,,,,,,,,,,,5cfe0c0b09897800014ff31b,23,2022-02-12_16h17.40.535,lexical_decision_task_DD_L3,2021.2.3,MacIntel,60.0024001,,,,,,,,,,,1.0185,1,,,,,,,,,,,,,,,,,,,,,,,,0.069570312,-0.288355035,0,0,0,,,,,,,CANDLE,C,m,m,./images/CANDLE.png,,,,,,,,,,,,,,,,,,,,,m,1,1.0185,,,,,,,,0,71,71,61,1
,,,,,,,,,,,,,,,,,5cfe0c0b09897800014ff31b,23,2022-02-12_16h17.40.535,lexical_decision_task_DD_L3,2021.2.3,MacIntel,60.0024001,,,,,,,,,,,1.4039,1,,,,,,,,,,,,,,,,,,,,,,,,0.069570312,-0.288355035,0,0,0,,,,,,,FLASK,LB,z,m,./images/FLASKLB.png,,,,,,,,,,,,,,,,,,,,,z,1,1.4039,,,,,,,,0,72,72,156,1
,,,,,,,,,,,,,,,,,5cfe0c0b09897800014ff31b,23,2022-02-12_16h17.40.535,lexical_decision_task_DD_L3,2021.2.3,MacIntel,60.0024001,,,,,,,,,,,0.7068,1,,,,,,,,,,,,,,,,,,,,,,,,0.069570312,-0.288355035,0,0,0,,,,,,,BABOON,C,m,m,./images/BABOON.png,,,,,,,,,,,,,,,,,,,,,m,1,0.7068,,,,,,,,0,73,73,58,1
,,,,,,,,,,,,,,,,,5cfe0c0b09897800014ff31b,23,2022-02-12_16h17.40.535,lexical_decision_task_DD_L3,2021.2.3,MacIntel,60.0024001,,,,,,,,,,,0.9991,1,,,,,,,,,,,,,,,,,,,,,,,,0.069570312,-0.288355035,0,0,0,,,,,,,SUNSET,C,m,m,./images/SUNSET.png,,,,,,,,,,,,,,,,,,,,,m,1,0.9991,,,,,,,,0,74,74,82,1
,,,,,,,,,,,,,,,,,5cfe0c0b09897800014ff31b,23,2022-02-12_16h17.40.535,lexical_decision_task_DD_L3,2021.2.3,MacIntel,60.0024001,,,,,,,,,,,0.8985,1,,,,,,,,,,,,,,,,,,,,,,,,0.069570312,-0.288355035,0,0,0,,,,,,,CEMENT,HB,m,m,./images/CEMENTHB.png,,,,,,,,,,,,,,,,,,,,,m,1,0.8985,,,,,,,,0,75,75,74,1
,,,,,,,,,,,,,,,,,5cfe0c0b09897800014ff31b,23,2022-02-12_16h17.40.535,lexical_decision_task_DD_L3,2021.2.3,MacIntel,60.0024001,,,,,,,,,,,2.0797,0,,,,,,,,,,,,,,,,,,,,,,,,0.069570312,-0.288355035,0,0,0,,,,,,,TOWEL,C,z,m,./images/TOWEL.png,,,,,,,,,,,,,,,,,,,,,m,0,2.0797,,,,,,,,0,76,76,85,1
,,,,,,,,,,,,,,,,,5cfe0c0b09897800014ff31b,23,2022-02-12_16h17.40.535,lexical_decision_task_DD_L3,2021.2.3,MacIntel,60.0024001,,,,,,,,,,,0.8075,1,,,,,,,,,,,,,,,,,,,,,,,,0.069570312,-0.288355035,0,0,0,,,,,,,MOOSE,LB,m,m,./images/MOOSELB.png,,,,,,,,,,,,,,,,,,,,,m,1,0.8075,,,,,,,,0,77,77,57,1
,,,,,,,,,,,,,,,,,5cfe0c0b09897800014ff31b,23,2022-02-12_16h17.40.535,lexical_decision_task_DD_L3,2021.2.3,MacIntel,60.0024001,,,,,,,,,,,1.8792,0,,,,,,,,,,,,,,,,,,,,,,,,0.069570312,-0.288355035,0,0,0,,,,,,,SWEAT,LB,m,m,./images/SWEATLB.png,,,,,,,,,,,,,,,,,,,,,z,0,1.8792,,,,,,,,0,78,78,66,1
,,,,,,,,,,,,,,,,,5cfe0c0b09897800014ff31b,23,2022-02-12_16h17.40.535,lexical_decision_task_DD_L3,2021.2.3,MacIntel,60.0024001,,,,,,,,,,,0.7645,1,,,,,,,,,,,,,,,,,,,,,,,,0.069570312,-0.288355035,0,0,0,,,,,,,BOXER,C,z,m,./images/BOXER.png,,,,,,,,,,,,,,,,,,,,,z,1,0.7645,,,,,,,,0,79,79,88,1
,,,,,,,,,,,,,,,,,5cfe0c0b09897800014ff31b,23,2022-02-12_16h17.40.535,lexical_decision_task_DD_L3,2021.2.3,MacIntel,60.0024001,,,,,,,,,,,1.0619,1,,,,,,,,,,,,,,,,,,,,,,,,0.069570312,-0.288355035,0,0,0,,,,,,,FALCON,C,m,m,./images/FALCON.png,,,,,,,,,,,,,,,,,,,,,m,1,1.0619,,,,,,,,0,80,80,28,1
,,,,,,,,,,,,,,,,,5cfe0c0b09897800014ff31b,23,2022-02-12_16h17.40.535,lexical_decision_task_DD_L3,2021.2.3,MacIntel,60.0024001,,,,,,,,,,,1.0231,1,,,,,,,,,,,,,,,,,,,,,,,,0.069570312,-0.288355035,0,0,0,,,,,,,BUBBLE,HB,z,m,./images/BUBBLEHB.png,,,,,,,,,,,,,,,,,,,,,z,1,1.0231,,,,,,,,0,81,81,155,1
,,,,,,,,,,,,,,,,,5cfe0c0b09897800014ff31b,23,2022-02-12_16h17.40.535,lexical_decision_task_DD_L3,2021.2.3,MacIntel,60.0024001,,,,,,,,,,,0.8967,0,,,,,,,,,,,,,,,,,,,,,,,,0.069570312,-0.288355035,0,0,0,,,,,,,PICKLE,HB,m,m,./images/PICKLEHB.png,,,,,,,,,,,,,,,,,,,,,z,0,0.8967,,,,,,,,0,82,82,14,1
,,,,,,,,,,,,,,,,,5cfe0c0b09897800014ff31b,23,2022-02-12_16h17.40.535,lexical_decision_task_DD_L3,2021.2.3,MacIntel,60.0024001,,,,,,,,,,,1.0181,0,,,,,,,,,,,,,,,,,,,,,,,,0.069570312,-0.288355035,0,0,0,space,,,,,,JELLY,C,m,m,./images/JELLY.png,1.7484,,,,,,,,,,,,,,,,,,,,z,0,1.0181,,,,,,,,0,83,83,64,1
,,,,,,,,,,,,,,,,,5cfe0c0b09897800014ff31b,23,2022-02-12_16h17.40.535,lexical_decision_task_DD_L3,2021.2.3,MacIntel,60.0024001,,,,,,,,,,,1.2185,1,,,,,,,,,,,,,,,,,,,,,,,,0.069570312,-0.288355035,0,0,0,,,,,,,SKIING,HB,m,m,./images/SKIINGHB.png,,,,,,,,,,,,,,,,,,,,,m,1,1.2185,,,,,,,,0,84,84,17,1
,,,,,,,,,,,,,,,,,5cfe0c0b09897800014ff31b,23,2022-02-12_16h17.40.535,lexical_decision_task_DD_L3,2021.2.3,MacIntel,60.0024001,,,,,,,,,,,0.5865,1,,,,,,,,,,,,,,,,,,,,,,,,0.069570312,-0.288355035,0,0,0,,,,,,,PURSE,HB,m,m,./images/PURSEHB.png,,,,,,,,,,,,,,,,,,,,,m,1,0.5865,,,,,,,,0,85,85,62,1
,,,,,,,,,,,,,,,,,5cfe0c0b09897800014ff31b,23,2022-02-12_16h17.40.535,lexical_decision_task_DD_L3,2021.2.3,MacIntel,60.0024001,,,,,,,,,,,0.8834,1,,,,,,,,,,,,,,,,,,,,,,,,0.069570312,-0.288355035,0,0,0,,,,,,,CHALK,C,z,m,./images/CHALK.png,,,,,,,,,,,,,,,,,,,,,z,1,0.8834,,,,,,,,0,86,86,109,1
,,,,,,,,,,,,,,,,,5cfe0c0b09897800014ff31b,23,2022-02-12_16h17.40.535,lexical_decision_task_DD_L3,2021.2.3,MacIntel,60.0024001,,,,,,,,,,,0.7358,1,,,,,,,,,,,,,,,,,,,,,,,,0.069570312,-0.288355035,0,0,0,,,,,,,PAINT,C,m,m,./images/PAINT.png,,,,,,,,,,,,,,,,,,,,,m,1,0.7358,,,,,,,,0,87,87,7,1
,,,,,,,,,,,,,,,,,5cfe0c0b09897800014ff31b,23,2022-02-12_16h17.40.535,lexical_decision_task_DD_L3,2021.2.3,MacIntel,60.0024001,,,,,,,,,,,1.0433,0,,,,,,,,,,,,,,,,,,,,,,,,0.069570312,-0.288355035,0,0,0,,,,,,,BANNER,C,m,m,./images/BANNER.png,,,,,,,,,,,,,,,,,,,,,z,0,1.0433,,,,,,,,0,88,88,52,1
,,,,,,,,,,,,,,,,,5cfe0c0b09897800014ff31b,23,2022-02-12_16h17.40.535,lexical_decision_task_DD_L3,2021.2.3,MacIntel,60.0024001,,,,,,,,,,,1.0856,1,,,,,,,,,,,,,,,,,,,,,,,,0.069570312,-0.288355035,0,0,0,,,,,,,BISHOP,C,z,m,./images/BISHOP.png,,,,,,,,,,,,,,,,,,,,,z,1,1.0856,,,,,,,,0,89,89,133,1
,,,,,,,,,,,,,,,,,5cfe0c0b09897800014ff31b,23,2022-02-12_16h17.40.535,lexical_decision_task_DD_L3,2021.2.3,MacIntel,60.0024001,,,,,,,,,,,0.7796,1,,,,,,,,,,,,,,,,,,,,,,,,0.069570312,-0.288355035,0,0,0,,,,,,,PIMPLE,HB,m,m,./images/PIMPLEHB.png,,,,,,,,,,,,,,,,,,,,,m,1,0.7796,,,,,,,,0,90,90,71,1
,,,,,,,,,,,,,,,,,5cfe0c0b09897800014ff31b,23,2022-02-12_16h17.40.535,lexical_decision_task_DD_L3,2021.2.3,MacIntel,60.0024001,,,,,,,,,,,0.8331,0,,,,,,,,,,,,,,,,,,,,,,,,0.069570312,-0.288355035,0,0,0,,,,,,,MONKEY,LB,z,m,./images/MONKEYLB.png,,,,,,,,,,,,,,,,,,,,,m,0,0.8331,,,,,,,,0,91,91,129,1
,,,,,,,,,,,,,,,,,5cfe0c0b09897800014ff31b,23,2022-02-12_16h17.40.535,lexical_decision_task_DD_L3,2021.2.3,MacIntel,60.0024001,,,,,,,,,,,1.4365,0,,,,,,,,,,,,,,,,,,,,,,,,0.069570312,-0.288355035,0,0,0,,,,,,,FENCE,HB,z,m,./images/FENCEHB.png,,,,,,,,,,,,,,,,,,,,,m,0,1.4365,,,,,,,,0,92,92,98,1
,,,,,,,,,,,,,,,,,5cfe0c0b09897800014ff31b,23,2022-02-12_16h17.40.535,lexical_decision_task_DD_L3,2021.2.3,MacIntel,60.0024001,,,,,,,,,,,1.6366,1,,,,,,,,,,,,,,,,,,,,,,,,0.069570312,-0.288355035,0,0,0,,,,,,,BRUSH,HB,z,m,./images/BRUSHHB.png,,,,,,,,,,,,,,,,,,,,,z,1,1.6366,,,,,,,,0,93,93,143,1
,,,,,,,,,,,,,,,,,5cfe0c0b09897800014ff31b,23,2022-02-12_16h17.40.535,lexical_decision_task_DD_L3,2021.2.3,MacIntel,60.0024001,,,,,,,,,,,0.954,1,,,,,,,,,,,,,,,,,,,,,,,,0.069570312,-0.288355035,0,0,0,,,,,,,CASINO,C,z,m,./images/CASINO.png,,,,,,,,,,,,,,,,,,,,,z,1,0.954,,,,,,,,0,94,94,112,1
,,,,,,,,,,,,,,,,,5cfe0c0b09897800014ff31b,23,2022-02-12_16h17.40.535,lexical_decision_task_DD_L3,2021.2.3,MacIntel,60.0024001,,,,,,,,,,,0.782,0,,,,,,,,,,,,,,,,,,,,,,,,0.069570312,-0.288355035,0,0,0,,,,,,,PEBBLE,C,z,m,./images/PEBBLE.png,,,,,,,,,,,,,,,,,,,,,m,0,0.782,,,,,,,,0,95,95,166,1
,,,,,,,,,,,,,,,,,5cfe0c0b09897800014ff31b,23,2022-02-12_16h17.40.535,lexical_decision_task_DD_L3,2021.2.3,MacIntel,60.0024001,,,,,,,,,,,0.8229,1,,,,,,,,,,,,,,,,,,,,,,,,0.069570312,-0.288355035,0,0,0,,,,,,,SPORT,LB,m,m,./images/SPORTLB.png,,,,,,,,,,,,,,,,,,,,,m,1,0.8229,,,,,,,,0,96,96,48,1
,,,,,,,,,,,,,,,,,5cfe0c0b09897800014ff31b,23,2022-02-12_16h17.40.535,lexical_decision_task_DD_L3,2021.2.3,MacIntel,60.0024001,,,,,,,,,,,1.0519,1,,,,,,,,,,,,,,,,,,,,,,,,0.069570312,-0.288355035,0,0,0,,,,,,,POSTER,HB,z,m,./images/POSTERHB.png,,,,,,,,,,,,,,,,,,,,,z,1,1.0519,,,,,,,,0,97,97,137,1
,,,,,,,,,,,,,,,,,5cfe0c0b09897800014ff31b,23,2022-02-12_16h17.40.535,lexical_decision_task_DD_L3,2021.2.3,MacIntel,60.0024001,,,,,,,,,,,1.0478,0,,,,,,,,,,,,,,,,,,,,,,,,0.069570312,-0.288355035,0,0,0,,,,,,,SHELF,LB,m,m,./images/SHELFLB.png,,,,,,,,,,,,,,,,,,,,,z,0,1.0478,,,,,,,,0,98,98,39,1
,,,,,,,,,,,,,,,,,5cfe0c0b09897800014ff31b,23,2022-02-12_16h17.40.535,lexical_decision_task_DD_L3,2021.2.3,MacIntel,60.0024001,,,,,,,,,,,1.1644,1,,,,,,,,,,,,,,,,,,,,,,,,0.069570312,-0.288355035,0,0,0,,,,,,,GRAPE,C,z,m,./images/GRAPE.png,,,,,,,,,,,,,,,,,,,,,z,1,1.1644,,,,,,,,0,99,99,100,1
,,,,,,,,,,,,,,,,,5cfe0c0b09897800014ff31b,23,2022-02-12_16h17.40.535,lexical_decision_task_DD_L3,2021.2.3,MacIntel,60.0024001,,,,,,,,,,,0.7313,0,,,,,,,,,,,,,,,,,,,,,,,,0.069570312,-0.288355035,0,0,0,,,,,,,STEAK,C,z,m,./images/STEAK.png,,,,,,,,,,,,,,,,,,,,,m,0,0.7313,,,,,,,,0,100,100,115,1
,,,,,,,,,,,,,,,,,5cfe0c0b09897800014ff31b,23,2022-02-12_16h17.40.535,lexical_decision_task_DD_L3,2021.2.3,MacIntel,60.0024001,,,,,,,,,,,0.7351,1,,,,,,,,,,,,,,,,,,,,,,,,0.069570312,-0.288355035,0,0,0,,,,,,,WRIST,C,m,m,./images/WRIST.png,,,,,,,,,,,,,,,,,,,,,m,1,0.7351,,,,,,,,0,101,101,25,1
,,,,,,,,,,,,,,,,,5cfe0c0b09897800014ff31b,23,2022-02-12_16h17.40.535,lexical_decision_task_DD_L3,2021.2.3,MacIntel,60.0024001,,,,,,,,,,,1.2301,0,,,,,,,,,,,,,,,,,,,,,,,,0.069570312,-0.288355035,0,0,0,,,,,,,GRANNY,HB,z,m,./images/GRANNYHB.png,,,,,,,,,,,,,,,,,,,,,m,0,1.2301,,,,,,,,0,102,102,104,1
,,,,,,,,,,,,,,,,,5cfe0c0b09897800014ff31b,23,2022-02-12_16h17.40.535,lexical_decision_task_DD_L3,2021.2.3,MacIntel,60.0024001,,,,,,,,,,,1.2177,0,,,,,,,,,,,,,,,,,,,,,,,,0.069570312,-0.288355035,0,0,0,,,,,,,SMOKER,HB,m,m,./images/SMOKERHB.png,,,,,,,,,,,,,,,,,,,,,z,0,1.2177,,,,,,,,0,103,103,26,1
,,,,,,,,,,,,,,,,,5cfe0c0b09897800014ff31b,23,2022-02-12_16h17.40.535,lexical_decision_task_DD_L3,2021.2.3,MacIntel,60.0024001,,,,,,,,,,,1.6023,1,,,,,,,,,,,,,,,,,,,,,,,,0.069570312,-0.288355035,0,0,0,,,,,,,BRIDE,C,z,m,./images/BRIDE.png,,,,,,,,,,,,,,,,,,,,,z,1,1.6023,,,,,,,,0,104,104,148,1
,,,,,,,,,,,,,,,,,5cfe0c0b09897800014ff31b,23,2022-02-12_16h17.40.535,lexical_decision_task_DD_L3,2021.2.3,MacIntel,60.0024001,,,,,,,,,,,0.9201,1,,,,,,,,,,,,,,,,,,,,,,,,0.069570312,-0.288355035,0,0,0,,,,,,,WHISKY,HB,z,m,./images/WHISKYHB.png,,,,,,,,,,,,,,,,,,,,,z,1,0.9201,,,,,,,,0,105,105,167,1
,,,,,,,,,,,,,,,,,5cfe0c0b09897800014ff31b,23,2022-02-12_16h17.40.535,lexical_decision_task_DD_L3,2021.2.3,MacIntel,60.0024001,,,,,,,,,,,0.8975,0,,,,,,,,,,,,,,,,,,,,,,,,0.069570312,-0.288355035,0,0,0,,,,,,,GLOVE,C,z,m,./images/GLOVE.png,,,,,,,,,,,,,,,,,,,,,m,0,0.8975,,,,,,,,0,106,106,157,1
,,,,,,,,,,,,,,,,,5cfe0c0b09897800014ff31b,23,2022-02-12_16h17.40.535,lexical_decision_task_DD_L3,2021.2.3,MacIntel,60.0024001,,,,,,,,,,,1.5527,1,,,,,,,,,,,,,,,,,,,,,,,,0.069570312,-0.288355035,0,0,0,,,,,,,RAZOR,C,z,m,./images/RAZOR.png,,,,,,,,,,,,,,,,,,,,,z,1,1.5527,,,,,,,,0,107,107,118,1
,,,,,,,,,,,,,,,,,5cfe0c0b09897800014ff31b,23,2022-02-12_16h17.40.535,lexical_decision_task_DD_L3,2021.2.3,MacIntel,60.0024001,,,,,,,,,,,1.0401,0,,,,,,,,,,,,,,,,,,,,,,,,0.069570312,-0.288355035,0,0,0,,,,,,,DONKEY,C,z,m,./images/DONKEY.png,,,,,,,,,,,,,,,,,,,,,m,0,1.0401,,,,,,,,0,108,108,103,1
,,,,,,,,,,,,,,,,,5cfe0c0b09897800014ff31b,23,2022-02-12_16h17.40.535,lexical_decision_task_DD_L3,2021.2.3,MacIntel,60.0024001,,,,,,,,,,,1.5329,1,,,,,,,,,,,,,,,,,,,,,,,,0.069570312,-0.288355035,0,0,0,,,,,,,COUCH,HB,m,m,./images/COUCHHB.png,,,,,,,,,,,,,,,,,,,,,m,1,1.5329,,,,,,,,0,109,109,77,1
,,,,,,,,,,,,,,,,,5cfe0c0b09897800014ff31b,23,2022-02-12_16h17.40.535,lexical_decision_task_DD_L3,2021.2.3,MacIntel,60.0024001,,,,,,,,,,,2.7327,1,,,,,,,,,,,,,,,,,,,,,,,,0.069570312,-0.288355035,0,0,0,,,,,,,PARADE,HB,z,m,./images/PARADEHB.png,,,,,,,,,,,,,,,,,,,,,z,1,2.7327,,,,,,,,0,110,110,101,1
,,,,,,,,,,,,,,,,,5cfe0c0b09897800014ff31b,23,2022-02-12_16h17.40.535,lexical_decision_task_DD_L3,2021.2.3,MacIntel,60.0024001,,,,,,,,,,,0.6652,1,,,,,,,,,,,,,,,,,,,,,,,,0.069570312,-0.288355035,0,0,0,,,,,,,BONNET,HB,m,m,./images/BONNETHB.png,,,,,,,,,,,,,,,,,,,,,m,1,0.6652,,,,,,,,0,111,111,11,1
,,,,,,,,,,,,,,,,,5cfe0c0b09897800014ff31b,23,2022-02-12_16h17.40.535,lexical_decision_task_DD_L3,2021.2.3,MacIntel,60.0024001,,,,,,,,,,,0.8247,1,,,,,,,,,,,,,,,,,,,,,,,,0.069570312,-0.288355035,0,0,0,,,,,,,PLANK,C,m,m,./images/PLANK.png,,,,,,,,,,,,,,,,,,,,,m,1,0.8247,,,,,,,,0,112,112,1,1
,,,,,,,,,,,,,,,,,5cfe0c0b09897800014ff31b,23,2022-02-12_16h17.40.535,lexical_decision_task_DD_L3,2021.2.3,MacIntel,60.0024001,,,,,,,,,,,1.1536,0,,,,,,,,,,,,,,,,,,,,,,,,0.069570312,-0.288355035,0,0,0,,,,,,,RULER,C,z,m,./images/RULER.png,,,,,,,,,,,,,,,,,,,,,m,0,1.1536,,,,,,,,0,113,113,163,1
,,,,,,,,,,,,,,,,,5cfe0c0b09897800014ff31b,23,2022-02-12_16h17.40.535,lexical_decision_task_DD_L3,2021.2.3,MacIntel,60.0024001,,,,,,,,,,,0.8802,0,,,,,,,,,,,,,,,,,,,,,,,,0.069570312,-0.288355035,0,0,0,,,,,,,FINGER,LB,m,m,./images/FINGERLB.png,,,,,,,,,,,,,,,,,,,,,z,0,0.8802,,,,,,,,0,114,114,3,1
,,,,,,,,,,,,,,,,,5cfe0c0b09897800014ff31b,23,2022-02-12_16h17.40.535,lexical_decision_task_DD_L3,2021.2.3,MacIntel,60.0024001,,,,,,,,,,,0.8561,1,,,,,,,,,,,,,,,,,,,,,,,,0.069570312,-0.288355035,0,0,0,,,,,,,MAGGOT,LB,m,m,./images/MAGGOTLB.png,,,,,,,,,,,,,,,,,,,,,m,1,0.8561,,,,,,,,0,115,115,33,1
,,,,,,,,,,,,,,,,,5cfe0c0b09897800014ff31b,23,2022-02-12_16h17.40.535,lexical_decision_task_DD_L3,2021.2.3,MacIntel,60.0024001,,,,,,,,,,,0.6454,1,,,,,,,,,,,,,,,,,,,,,,,,0.069570312,-0.288355035,0,0,0,,,,,,,CANYON,C,m,m,./images/CANYON.png,,,,,,,,,,,,,,,,,,,,,m,1,0.6454,,,,,,,,0,116,116,34,1
,,,,,,,,,,,,,,,,,5cfe0c0b09897800014ff31b,23,2022-02-12_16h17.40.535,lexical_decision_task_DD_L3,2021.2.3,MacIntel,60.0024001,,,,,,,,,,,0.9471,0,,,,,,,,,,,,,,,,,,,,,,,,0.069570312,-0.288355035,0,0,0,,,,,,,CHAIN,LB,z,m,./images/CHAINLB.png,,,,,,,,,,,,,,,,,,,,,m,0,0.9471,,,,,,,,0,117,117,126,1
,,,,,,,,,,,,,,,,,5cfe0c0b09897800014ff31b,23,2022-02-12_16h17.40.535,lexical_decision_task_DD_L3,2021.2.3,MacIntel,60.0024001,,,,,,,,,,,1.94,0,,,,,,,,,,,,,,,,,,,,,,,,0.069570312,-0.288355035,0,0,0,,,,,,,PASTA,HB,m,m,./images/PASTAHB.png,,,,,,,,,,,,,,,,,,,,,z,0,1.94,,,,,,,,0,118,118,5,1
,,,,,,,,,,,,,,,,,5cfe0c0b09897800014ff31b,23,2022-02-12_16h17.40.535,lexical_decision_task_DD_L3,2021.2.3,MacIntel,60.0024001,,,,,,,,,,,0.9162,1,,,,,,,,,,,,,,,,,,,,,,,,0.069570312,-0.288355035,0,0,0,,,,,,,SHORE,LB,m,m,./images/SHORELB.png,,,,,,,,,,,,,,,,,,,,,m,1,0.9162,,,,,,,,0,119,119,12,1
,,,,,,,,,,,,,,,,,5cfe0c0b09897800014ff31b,23,2022-02-12_16h17.40.535,lexical_decision_task_DD_L3,2021.2.3,MacIntel,60.0024001,,,,,,,,,,,0.8181,1,,,,,,,,,,,,,,,,,,,,,,,,0.069570312,-0.288355035,0,0,0,,,,,,,FLESH,LB,z,m,./images/FLESHLB.png,,,,,,,,,,,,,,,,,,,,,z,1,0.8181,,,,,,,,0,120,120,108,1
,,,,,,,,,,,,,,,,,5cfe0c0b09897800014ff31b,23,2022-02-12_16h17.40.535,lexical_decision_task_DD_L3,2021.2.3,MacIntel,60.0024001,,,,,,,,,,,1.0169,0,,,,,,,,,,,,,,,,,,,,,,,,0.069570312,-0.288355035,0,0,0,,,,,,,CANDY,LB,z,m,./images/CANDYLB.png,,,,,,,,,,,,,,,,,,,,,m,0,1.0169,,,,,,,,0,121,121,123,1
,,,,,,,,,,,,,,,,,5cfe0c0b09897800014ff31b,23,2022-02-12_16h17.40.535,lexical_decision_task_DD_L3,2021.2.3,MacIntel,60.0024001,,,,,,,,,,,0.8824,0,,,,,,,,,,,,,,,,,,,,,,,,0.069570312,-0.288355035,0,0,0,,,,,,,HOCKEY,HB,z,m,./images/HOCKEYHB.png,,,,,,,,,,,,,,,,,,,,,m,0,0.8824,,,,,,,,0,122,122,116,1
,,,,,,,,,,,,,,,,,5cfe0c0b09897800014ff31b,23,2022-02-12_16h17.40.535,lexical_decision_task_DD_L3,2021.2.3,MacIntel,60.0024001,,,,,,,,,,,0.7671,1,,,,,,,,,,,,,,,,,,,,,,,,0.069570312,-0.288355035,0,0,0,,,,,,,MUSCLE,C,m,m,./images/MUSCLE.png,,,,,,,,,,,,,,,,,,,,,m,1,0.7671,,,,,,,,0,123,123,4,1
,,,,,,,,,,,,,,,,,5cfe0c0b09897800014ff31b,23,2022-02-12_16h17.40.535,lexical_decision_task_DD_L3,2021.2.3,MacIntel,60.0024001,,,,,,,,,,,0.831,1,,,,,,,,,,,,,,,,,,,,,,,,0.069570312,-0.288355035,0,0,0,,,,,,,BEARD,HB,m,m,./images/BEARDHB.png,,,,,,,,,,,,,,,,,,,,,m,1,0.831,,,,,,,,0,124,124,2,1
,,,,,,,,,,,,,,,,,5cfe0c0b09897800014ff31b,23,2022-02-12_16h17.40.535,lexical_decision_task_DD_L3,2021.2.3,MacIntel,60.0024001,,,,,,,,,,,1.6633,1,,,,,,,,,,,,,,,,,,,,,,,,0.069570312,-0.288355035,0,0,0,space,,,,,,SNAKE,C,z,m,./images/SNAKE.png,2.6002,,,,,,,,,,,,,,,,,,,,z,1,1.6633,,,,,,,,0,125,125,124,1
,,,,,,,,,,,,,,,,,5cfe0c0b09897800014ff31b,23,2022-02-12_16h17.40.535,lexical_decision_task_DD_L3,2021.2.3,MacIntel,60.0024001,,,,,,,,,,,0.6333,1,,,,,,,,,,,,,,,,,,,,,,,,0.069570312,-0.288355035,0,0,0,,,,,,,RHINO,LB,m,m,./images/RHINOLB.png,,,,,,,,,,,,,,,,,,,,,m,1,0.6333,,,,,,,,0,126,126,9,1
,,,,,,,,,,,,,,,,,5cfe0c0b09897800014ff31b,23,2022-02-12_16h17.40.535,lexical_decision_task_DD_L3,2021.2.3,MacIntel,60.0024001,,,,,,,,,,,0.7992,1,,,,,,,,,,,,,,,,,,,,,,,,0.069570312,-0.288355035,0,0,0,,,,,,,BURIAL,HB,m,m,./images/BURIALHB.png,,,,,,,,,,,,,,,,,,,,,m,1,0.7992,,,,,,,,0,127,127,59,1
,,,,,,,,,,,,,,,,,5cfe0c0b09897800014ff31b,23,2022-02-12_16h17.40.535,lexical_decision_task_DD_L3,2021.2.3,MacIntel,60.0024001,,,,,,,,,,,1.0223,0,,,,,,,,,,,,,,,,,,,,,,,,0.069570312,-0.288355035,0,0,0,,,,,,,FERRY,LB,z,m,./images/FERRYLB.png,,,,,,,,,,,,,,,,,,,,,m,0,1.0223,,,,,,,,0,128,128,141,1
,,,,,,,,,,,,,,,,,5cfe0c0b09897800014ff31b,23,2022-02-12_16h17.40.535,lexical_decision_task_DD_L3,2021.2.3,MacIntel,60.0024001,,,,,,,,,,,0.7854,1,,,,,,,,,,,,,,,,,,,,,,,,0.069570312,-0.288355035,0,0,0,,,,,,,DANCER,LB,z,m,./images/DANCERLB.png,,,,,,,,,,,,,,,,,,,,,z,1,0.7854,,,,,,,,0,129,129,105,1
