key_resp.keys,key_resp.rt,instr_done_touch.x,instr_done_touch.y,instr_done_touch.leftButton,instr_done_touch.midButton,instr_done_touch.rightButton,instruction_pages.thisRepN,instruction_pages.thisTrialN,instruction_pages.thisN,instruction_pages.thisIndex,instruction_pages.ran,pageN,phase,instruct_text,has_image,instruct_image,participant,age,date,expName,psychopyVersion,OS,frameRate,instr_done_touch.clicked_name,response.keys,response.corr,response.rt,touch_resp.x,touch_resp.y,touch_resp.leftButton,touch_resp.midButton,touch_resp.rightButton,touch_resp.time,touch_resp.clicked_name,rt,corr,practrials.thisRepN,practrials.thisTrialN,practrials.thisN,practrials.thisIndex,practrials.ran,TrialID,Target,corrAns,end_of_practice_trials_pages.thisRepN,end_of_practice_trials_pages.thisTrialN,end_of_practice_trials_pages.thisN,end_of_practice_trials_pages.thisIndex,end_of_practice_trials_pages.ran,key_resp_2.keys,key_resp_2.corr,key_resp_2.rt,targ_click.x,targ_click.y,targ_click.leftButton,targ_click.midButton,targ_click.rightButton,targ_click.time,targ_click.clicked_name,break_done_touch.x,break_done_touch.y,break_done_touch.leftButton,break_done_touch.midButton,break_done_touch.rightButton,break_done_keyboard.keys,maintrials.thisRepN,maintrials.thisTrialN,maintrials.thisN,maintrials.thisIndex,maintrials.ran,string,blur,study,lex,stim_path,break_done_keyboard.rt,mouse_2.x,mouse_2.y,mouse_2.leftButton,mouse_2.midButton,mouse_2.rightButton,mouse_2.clicked_name,slider.response,slider.rt,trials.thisRepN,trials.thisTrialN,trials.thisN,trials.thisIndex,trials.ran,test_instructions.thisRepN,test_instructions.thisTrialN,test_instructions.thisN,test_instructions.thisIndex,test_instructions.ran,key_resp_3.keys,key_resp_3.corr,key_resp_3.rt,test_click.x,test_click.y,test_click.leftButton,test_click.midButton,test_click.rightButton,test_click.time,test_click.clicked_name,test_phase.thisRepN,test_phase.thisTrialN,test_phase.thisN,test_phase.thisIndex,test_phase.ran,break_done_touch.clicked_name
space,37.3365,-0.059259247,-0.225925937,0,0,0,0,0,0,0,1,1,instructions,"INSTRUCTIONS
At the start of each trial, look at the plus sign  (+) in the center of the screen.  This tells you that a trial is about to begin and where to look. Second, the plus sign will disappear and a string of letters will appear. Your task is to determine if the string of letters is a word or not. If the item is a word press the M key (on keyboard)  or touch the word button (phone/tablet).  If the item is not a word,  press the  Z key (on keyboard)  or touch the nonword button (on phone/tablet). 
Press the space bar or touch  continue.",0,,5d0dd940312297000137d2a7,64,2022-02-12_17h54.10.811,lexical_decision_task_DD_L4,2021.2.3,Win32,59.3824228,,,,,,,,,,,,,,,,,,,,,,,,,,,,,,,,,,,,,,,,,,,,,,,,,,,,,,,,,,,,,,,,,,,,,,,,,,,,,,,,,,,,,,,
,,-0.098148136,-0.413888959,1,0,0,0,1,1,1,1,2,instructions,"If your device has a keyboard, press the 'Z' key for nonwords and the 'M' key for words.





Press the space bar or touch the button below to continue.",0,keyboard-example.gif,5d0dd940312297000137d2a7,64,2022-02-12_17h54.10.811,lexical_decision_task_DD_L4,2021.2.3,Win32,59.3824228,instr_done_button,,,,,,,,,,,,,,,,,,,,,,,,,,,,,,,,,,,,,,,,,,,,,,,,,,,,,,,,,,,,,,,,,,,,,,,,,,,,,,,,,,,,,,
,,-0.098148136,-0.413888959,1,0,0,0,2,2,2,1,3,instructions,"If you are using a touchscreen only device, use the buttons on the screen. Do not use the mouse.





Press the space bar or touch the button below to continue.",0,touchscreen-example.gif,5d0dd940312297000137d2a7,64,2022-02-12_17h54.10.811,lexical_decision_task_DD_L4,2021.2.3,Win32,59.3824228,instr_done_button,,,,,,,,,,,,,,,,,,,,,,,,,,,,,,,,,,,,,,,,,,,,,,,,,,,,,,,,,,,,,,,,,,,,,,,,,,,,,,,,,,,,,,
space,20.3527,-0.694444442,-0.089814824,0,0,0,0,3,3,3,1,4,instructions,"It is very important that you respond as quickly and accurately as possible, as each letter string will only be on the screen for two seconds. If you do not respond within this time, the message 'Too slow!' will be displayed and the experiment will progress to the next letter string. The first 20 trials will be practice trials and you will receive feedback on your answers. 

Press the space bar or touch the button below to start the practice trials.",0,,5d0dd940312297000137d2a7,64,2022-02-12_17h54.10.811,lexical_decision_task_DD_L4,2021.2.3,Win32,59.3824228,,,,,,,,,,,,,,,,,,,,,,,,,,,,,,,,,,,,,,,,,,,,,,,,,,,,,,,,,,,,,,,,,,,,,,,,,,,,,,,,,,,,,,,
,,,,,,,,,,,,,,,,,5d0dd940312297000137d2a7,64,2022-02-12_17h54.10.811,lexical_decision_task_DD_L4,2021.2.3,Win32,59.3824228,,z,0,2.26,,,,,,,,2.26,0,0,0,0,3,1,1001,MATRIX,m,,,,,,,,,,,,,,,,,,,,,,,,,,,,,,,,,,,,,,,,,,,,,,,,,,,,,,,,,,,,,,,,,,
,,,,,,,,,,,,,,,,,5d0dd940312297000137d2a7,64,2022-02-12_17h54.10.811,lexical_decision_task_DD_L4,2021.2.3,Win32,59.3824228,,z,1,1.3674,,,,,,,,1.3674,1,0,1,1,10,1,1001,INLADE,z,,,,,,,,,,,,,,,,,,,,,,,,,,,,,,,,,,,,,,,,,,,,,,,,,,,,,,,,,,,,,,,,,,
,,,,,,,,,,,,,,,,,5d0dd940312297000137d2a7,64,2022-02-12_17h54.10.811,lexical_decision_task_DD_L4,2021.2.3,Win32,59.3824228,,m,1,0.7473,,,,,,,,0.7473,1,0,2,2,2,1,1001,ALMOND,m,,,,,,,,,,,,,,,,,,,,,,,,,,,,,,,,,,,,,,,,,,,,,,,,,,,,,,,,,,,,,,,,,,
,,,,,,,,,,,,,,,,,5d0dd940312297000137d2a7,64,2022-02-12_17h54.10.811,lexical_decision_task_DD_L4,2021.2.3,Win32,59.3824228,,z,1,0.9643,,,,,,,,0.9643,1,0,3,3,11,1,1001,RASHET,z,,,,,,,,,,,,,,,,,,,,,,,,,,,,,,,,,,,,,,,,,,,,,,,,,,,,,,,,,,,,,,,,,,
,,,,,,,,,,,,,,,,,5d0dd940312297000137d2a7,64,2022-02-12_17h54.10.811,lexical_decision_task_DD_L4,2021.2.3,Win32,59.3824228,,m,1,0.7981,,,,,,,,0.7981,1,0,4,4,0,1,1001,UTOPIA,m,,,,,,,,,,,,,,,,,,,,,,,,,,,,,,,,,,,,,,,,,,,,,,,,,,,,,,,,,,,,,,,,,,
,,,,,,,,,,,,,,,,,5d0dd940312297000137d2a7,64,2022-02-12_17h54.10.811,lexical_decision_task_DD_L4,2021.2.3,Win32,59.3824228,,z,1,1.3219,,,,,,,,1.3219,1,0,5,5,8,1,1001,ASLERT,z,,,,,,,,,,,,,,,,,,,,,,,,,,,,,,,,,,,,,,,,,,,,,,,,,,,,,,,,,,,,,,,,,,
,,,,,,,,,,,,,,,,,5d0dd940312297000137d2a7,64,2022-02-12_17h54.10.811,lexical_decision_task_DD_L4,2021.2.3,Win32,59.3824228,,z,1,1.3997,,,,,,,,1.3997,1,0,6,6,14,1,1001,THRALE,z,,,,,,,,,,,,,,,,,,,,,,,,,,,,,,,,,,,,,,,,,,,,,,,,,,,,,,,,,,,,,,,,,,
,,,,,,,,,,,,,,,,,5d0dd940312297000137d2a7,64,2022-02-12_17h54.10.811,lexical_decision_task_DD_L4,2021.2.3,Win32,59.3824228,,m,1,0.7546,,,,,,,,0.7546,1,0,7,7,7,1,1001,VOLUME,m,,,,,,,,,,,,,,,,,,,,,,,,,,,,,,,,,,,,,,,,,,,,,,,,,,,,,,,,,,,,,,,,,,
,,,,,,,,,,,,,,,,,5d0dd940312297000137d2a7,64,2022-02-12_17h54.10.811,lexical_decision_task_DD_L4,2021.2.3,Win32,59.3824228,,m,1,0.9178,,,,,,,,0.9178,1,0,8,8,4,1,1001,SQUEAK,m,,,,,,,,,,,,,,,,,,,,,,,,,,,,,,,,,,,,,,,,,,,,,,,,,,,,,,,,,,,,,,,,,,
,,,,,,,,,,,,,,,,,5d0dd940312297000137d2a7,64,2022-02-12_17h54.10.811,lexical_decision_task_DD_L4,2021.2.3,Win32,59.3824228,,z,1,1.035,,,,,,,,1.035,1,0,9,9,9,1,1001,FARINY,z,,,,,,,,,,,,,,,,,,,,,,,,,,,,,,,,,,,,,,,,,,,,,,,,,,,,,,,,,,,,,,,,,,
,,,,,,,,,,,,,,,,,5d0dd940312297000137d2a7,64,2022-02-12_17h54.10.811,lexical_decision_task_DD_L4,2021.2.3,Win32,59.3824228,,z,1,1.0865,,,,,,,,1.0865,1,0,10,10,12,1,1001,SPRINY,z,,,,,,,,,,,,,,,,,,,,,,,,,,,,,,,,,,,,,,,,,,,,,,,,,,,,,,,,,,,,,,,,,,
,,,,,,,,,,,,,,,,,5d0dd940312297000137d2a7,64,2022-02-12_17h54.10.811,lexical_decision_task_DD_L4,2021.2.3,Win32,59.3824228,,m,1,0.7161,,,,,,,,0.7161,1,0,11,11,1,1,1001,ADJUST,m,,,,,,,,,,,,,,,,,,,,,,,,,,,,,,,,,,,,,,,,,,,,,,,,,,,,,,,,,,,,,,,,,,
,,,,,,,,,,,,,,,,,5d0dd940312297000137d2a7,64,2022-02-12_17h54.10.811,lexical_decision_task_DD_L4,2021.2.3,Win32,59.3824228,,m,1,0.8093,,,,,,,,0.8093,1,0,12,12,5,1,1001,OBTAIN,m,,,,,,,,,,,,,,,,,,,,,,,,,,,,,,,,,,,,,,,,,,,,,,,,,,,,,,,,,,,,,,,,,,
,,,,,,,,,,,,,,,,,5d0dd940312297000137d2a7,64,2022-02-12_17h54.10.811,lexical_decision_task_DD_L4,2021.2.3,Win32,59.3824228,,z,1,0.8387,,,,,,,,0.8387,1,0,13,13,15,1,1001,WHAISE,z,,,,,,,,,,,,,,,,,,,,,,,,,,,,,,,,,,,,,,,,,,,,,,,,,,,,,,,,,,,,,,,,,,
,,,,,,,,,,,,,,,,,5d0dd940312297000137d2a7,64,2022-02-12_17h54.10.811,lexical_decision_task_DD_L4,2021.2.3,Win32,59.3824228,,m,1,0.9382,,,,,,,,0.9382,1,0,14,14,6,1,1001,ZOMBIE,m,,,,,,,,,,,,,,,,,,,,,,,,,,,,,,,,,,,,,,,,,,,,,,,,,,,,,,,,,,,,,,,,,,
,,,,,,,,,,,,,,,,,5d0dd940312297000137d2a7,64,2022-02-12_17h54.10.811,lexical_decision_task_DD_L4,2021.2.3,Win32,59.3824228,,z,1,1.1939,,,,,,,,1.1939,1,0,15,15,13,1,1001,ROUPET,z,,,,,,,,,,,,,,,,,,,,,,,,,,,,,,,,,,,,,,,,,,,,,,,,,,,,,,,,,,,,,,,,,,
space,92.8498,-0.710185168,-0.028703712,0,0,0,,,,,,1,end_of_practice,"You have completed the practice trials. During the experimental trials, you will not receive feedback. 
Before you begin, please ensure that you are in a comfortable and quiet location and will not be disturbed for about 15 minutes, as we cannot use your data if you do not complete all the trials. 
 When you are ready to start the experimental trials, please press space or touch the button below.",,,5d0dd940312297000137d2a7,64,2022-02-12_17h54.10.811,lexical_decision_task_DD_L4,2021.2.3,Win32,59.3824228,,,,,,,,,,,,,,,,,,,,,,0,0,0,0,1,,,,,,,,,,,,,,,,,,,,,,,,,,,,,,,,,,,,,,,,,,,,,,,,,,,,,,,,,,,,,
,,,,,,,,,,,,,,,,,5d0dd940312297000137d2a7,64,2022-02-12_17h54.10.811,lexical_decision_task_DD_L4,2021.2.3,Win32,59.3824228,,,,,,,,,,,,1.4674,1,,,,,,,,,,,,,,m,1,1.4674,,,,,,,,-0.710185168,-0.028703712,0,0,0,,0,0,0,62,1,MAMMAL,LB,old,m,./images/MAMMALLB.png,,,,,,,,,,,,,,,,,,,,,,,,,,,,,,,,,,,
,,,,,,,,,,,,,,,,,5d0dd940312297000137d2a7,64,2022-02-12_17h54.10.811,lexical_decision_task_DD_L4,2021.2.3,Win32,59.3824228,,,,,,,,,,,,0.988,1,,,,,,,,,,,,,,z,1,0.988,,,,,,,,-0.710185168,-0.028703712,0,0,0,,0,1,1,92,1,PAIMS,LB,old,z,./images/PAIMSLB.png,,,,,,,,,,,,,,,,,,,,,,,,,,,,,,,,,,,
,,,,,,,,,,,,,,,,,5d0dd940312297000137d2a7,64,2022-02-12_17h54.10.811,lexical_decision_task_DD_L4,2021.2.3,Win32,59.3824228,,,,,,,,,,,,0.8011,1,,,,,,,,,,,,,,m,1,0.8011,,,,,,,,-0.710185168,-0.028703712,0,0,0,,0,2,2,75,1,HAMMER,C,old,m,./images/HAMMER.png,,,,,,,,,,,,,,,,,,,,,,,,,,,,,,,,,,,
,,,,,,,,,,,,,,,,,5d0dd940312297000137d2a7,64,2022-02-12_17h54.10.811,lexical_decision_task_DD_L4,2021.2.3,Win32,59.3824228,,,,,,,,,,,,1.107,1,,,,,,,,,,,,,,m,1,1.107,,,,,,,,-0.710185168,-0.028703712,0,0,0,,0,3,3,20,1,GRANNY,LB,old,m,./images/GRANNYLB.png,,,,,,,,,,,,,,,,,,,,,,,,,,,,,,,,,,,
,,,,,,,,,,,,,,,,,5d0dd940312297000137d2a7,64,2022-02-12_17h54.10.811,lexical_decision_task_DD_L4,2021.2.3,Win32,59.3824228,,,,,,,,,,,,1.0647,1,,,,,,,,,,,,,,z,1,1.0647,,,,,,,,-0.710185168,-0.028703712,0,0,0,,0,4,4,150,1,NOOLS,C,old,z,./images/NOOLS.png,,,,,,,,,,,,,,,,,,,,,,,,,,,,,,,,,,,
,,,,,,,,,,,,,,,,,5d0dd940312297000137d2a7,64,2022-02-12_17h54.10.811,lexical_decision_task_DD_L4,2021.2.3,Win32,59.3824228,,,,,,,,,,,,1.0242,1,,,,,,,,,,,,,,z,1,1.0242,,,,,,,,-0.710185168,-0.028703712,0,0,0,,0,5,5,147,1,ZOLES,C,old,z,./images/ZOLES.png,,,,,,,,,,,,,,,,,,,,,,,,,,,,,,,,,,,
,,,,,,,,,,,,,,,,,5d0dd940312297000137d2a7,64,2022-02-12_17h54.10.811,lexical_decision_task_DD_L4,2021.2.3,Win32,59.3824228,,,,,,,,,,,,0.5832,1,,,,,,,,,,,,,,m,1,0.5832,,,,,,,,-0.710185168,-0.028703712,0,0,0,,0,6,6,5,1,BAMBOO,LB,old,m,./images/BAMBOOLB.png,,,,,,,,,,,,,,,,,,,,,,,,,,,,,,,,,,,
,,,,,,,,,,,,,,,,,5d0dd940312297000137d2a7,64,2022-02-12_17h54.10.811,lexical_decision_task_DD_L4,2021.2.3,Win32,59.3824228,,,,,,,,,,,,0.7142,1,,,,,,,,,,,,,,m,1,0.7142,,,,,,,,-0.710185168,-0.028703712,0,0,0,,0,7,7,63,1,BAKER,C,old,m,./images/BAKER.png,,,,,,,,,,,,,,,,,,,,,,,,,,,,,,,,,,,
,,,,,,,,,,,,,,,,,5d0dd940312297000137d2a7,64,2022-02-12_17h54.10.811,lexical_decision_task_DD_L4,2021.2.3,Win32,59.3824228,,,,,,,,,,,,0.9729,1,,,,,,,,,,,,,,z,1,0.9729,,,,,,,,-0.710185168,-0.028703712,0,0,0,,0,8,8,117,1,STEEG,C,old,z,./images/STEEG.png,,,,,,,,,,,,,,,,,,,,,,,,,,,,,,,,,,,
,,,,,,,,,,,,,,,,,5d0dd940312297000137d2a7,64,2022-02-12_17h54.10.811,lexical_decision_task_DD_L4,2021.2.3,Win32,59.3824228,,,,,,,,,,,,0.7594,1,,,,,,,,,,,,,,m,1,0.7594,,,,,,,,-0.710185168,-0.028703712,0,0,0,,0,9,9,77,1,WHEEL,LB,old,m,./images/WHEELLB.png,,,,,,,,,,,,,,,,,,,,,,,,,,,,,,,,,,,
,,,,,,,,,,,,,,,,,5d0dd940312297000137d2a7,64,2022-02-12_17h54.10.811,lexical_decision_task_DD_L4,2021.2.3,Win32,59.3824228,,,,,,,,,,,,0.6956,1,,,,,,,,,,,,,,m,1,0.6956,,,,,,,,-0.710185168,-0.028703712,0,0,0,,0,10,10,17,1,PARADE,LB,old,m,./images/PARADELB.png,,,,,,,,,,,,,,,,,,,,,,,,,,,,,,,,,,,
,,,,,,,,,,,,,,,,,5d0dd940312297000137d2a7,64,2022-02-12_17h54.10.811,lexical_decision_task_DD_L4,2021.2.3,Win32,59.3824228,,,,,,,,,,,,0.6131,1,,,,,,,,,,,,,,m,1,0.6131,,,,,,,,-0.710185168,-0.028703712,0,0,0,,0,11,11,50,1,PILOT,LB,old,m,./images/PILOTLB.png,,,,,,,,,,,,,,,,,,,,,,,,,,,,,,,,,,,
,,,,,,,,,,,,,,,,,5d0dd940312297000137d2a7,64,2022-02-12_17h54.10.811,lexical_decision_task_DD_L4,2021.2.3,Win32,59.3824228,,,,,,,,,,,,0.5722,1,,,,,,,,,,,,,,m,1,0.5722,,,,,,,,-0.710185168,-0.028703712,0,0,0,,0,12,12,59,1,BRUSH,LB,old,m,./images/BRUSHLB.png,,,,,,,,,,,,,,,,,,,,,,,,,,,,,,,,,,,
,,,,,,,,,,,,,,,,,5d0dd940312297000137d2a7,64,2022-02-12_17h54.10.811,lexical_decision_task_DD_L4,2021.2.3,Win32,59.3824228,,,,,,,,,,,,1.205,1,,,,,,,,,,,,,,z,1,1.205,,,,,,,,-0.710185168,-0.028703712,0,0,0,,0,13,13,113,1,LINEW,LB,old,z,./images/LINEWLB.png,,,,,,,,,,,,,,,,,,,,,,,,,,,,,,,,,,,
,,,,,,,,,,,,,,,,,5d0dd940312297000137d2a7,64,2022-02-12_17h54.10.811,lexical_decision_task_DD_L4,2021.2.3,Win32,59.3824228,,,,,,,,,,,,0.7739,1,,,,,,,,,,,,,,m,1,0.7739,,,,,,,,-0.710185168,-0.028703712,0,0,0,,0,14,14,73,1,GLOVE,HB,old,m,./images/GLOVEHB.png,,,,,,,,,,,,,,,,,,,,,,,,,,,,,,,,,,,
,,,,,,,,,,,,,,,,,5d0dd940312297000137d2a7,64,2022-02-12_17h54.10.811,lexical_decision_task_DD_L4,2021.2.3,Win32,59.3824228,,,,,,,,,,,,0.8397,1,,,,,,,,,,,,,,z,1,0.8397,,,,,,,,-0.710185168,-0.028703712,0,0,0,,0,15,15,152,1,FRAIN,LB,old,z,./images/FRAINLB.png,,,,,,,,,,,,,,,,,,,,,,,,,,,,,,,,,,,
,,,,,,,,,,,,,,,,,5d0dd940312297000137d2a7,64,2022-02-12_17h54.10.811,lexical_decision_task_DD_L4,2021.2.3,Win32,59.3824228,,,,,,,,,,,,0.7886,1,,,,,,,,,,,,,,m,1,0.7886,,,,,,,,-0.710185168,-0.028703712,0,0,0,,0,16,16,2,1,STOVE,LB,old,m,./images/STOVELB.png,,,,,,,,,,,,,,,,,,,,,,,,,,,,,,,,,,,
,,,,,,,,,,,,,,,,,5d0dd940312297000137d2a7,64,2022-02-12_17h54.10.811,lexical_decision_task_DD_L4,2021.2.3,Win32,59.3824228,,,,,,,,,,,,1.1331,1,,,,,,,,,,,,,,z,1,1.1331,,,,,,,,-0.710185168,-0.028703712,0,0,0,,0,17,17,161,1,BLAPS,LB,old,z,./images/BLAPSLB.png,,,,,,,,,,,,,,,,,,,,,,,,,,,,,,,,,,,
,,,,,,,,,,,,,,,,,5d0dd940312297000137d2a7,64,2022-02-12_17h54.10.811,lexical_decision_task_DD_L4,2021.2.3,Win32,59.3824228,,,,,,,,,,,,0.6942,0,,,,,,,,,,,,,,m,0,0.6942,,,,,,,,-0.710185168,-0.028703712,0,0,0,,0,18,18,132,1,SCIFF,C,old,z,./images/SCIFF.png,,,,,,,,,,,,,,,,,,,,,,,,,,,,,,,,,,,
,,,,,,,,,,,,,,,,,5d0dd940312297000137d2a7,64,2022-02-12_17h54.10.811,lexical_decision_task_DD_L4,2021.2.3,Win32,59.3824228,,,,,,,,,,,,0.9994,1,,,,,,,,,,,,,,m,1,0.9994,,,,,,,,-0.710185168,-0.028703712,0,0,0,,0,19,19,10,1,GARDEN,HB,old,m,./images/GARDENHB.png,,,,,,,,,,,,,,,,,,,,,,,,,,,,,,,,,,,
,,,,,,,,,,,,,,,,,5d0dd940312297000137d2a7,64,2022-02-12_17h54.10.811,lexical_decision_task_DD_L4,2021.2.3,Win32,59.3824228,,,,,,,,,,,,1.0065,1,,,,,,,,,,,,,,z,1,1.0065,,,,,,,,-0.710185168,-0.028703712,0,0,0,,0,20,20,105,1,MOKER,C,old,z,./images/MOKER.png,,,,,,,,,,,,,,,,,,,,,,,,,,,,,,,,,,,
,,,,,,,,,,,,,,,,,5d0dd940312297000137d2a7,64,2022-02-12_17h54.10.811,lexical_decision_task_DD_L4,2021.2.3,Win32,59.3824228,,,,,,,,,,,,1.6074,1,,,,,,,,,,,,,,z,1,1.6074,,,,,,,,-0.710185168,-0.028703712,0,0,0,,0,21,21,151,1,TINKY,HB,old,z,./images/TINKYHB.png,,,,,,,,,,,,,,,,,,,,,,,,,,,,,,,,,,,
,,,,,,,,,,,,,,,,,5d0dd940312297000137d2a7,64,2022-02-12_17h54.10.811,lexical_decision_task_DD_L4,2021.2.3,Win32,59.3824228,,,,,,,,,,,,0.9776,1,,,,,,,,,,,,,,z,1,0.9776,,,,,,,,-0.710185168,-0.028703712,0,0,0,,0,22,22,167,1,ZONET,LB,old,z,./images/ZONETLB.png,,,,,,,,,,,,,,,,,,,,,,,,,,,,,,,,,,,
,,,,,,,,,,,,,,,,,5d0dd940312297000137d2a7,64,2022-02-12_17h54.10.811,lexical_decision_task_DD_L4,2021.2.3,Win32,59.3824228,,,,,,,,,,,,0.8969,1,,,,,,,,,,,,,,m,1,0.8969,,,,,,,,-0.710185168,-0.028703712,0,0,0,,0,23,23,60,1,CURRY,C,old,m,./images/CURRY.png,,,,,,,,,,,,,,,,,,,,,,,,,,,,,,,,,,,
,,,,,,,,,,,,,,,,,5d0dd940312297000137d2a7,64,2022-02-12_17h54.10.811,lexical_decision_task_DD_L4,2021.2.3,Win32,59.3824228,,,,,,,,,,,,0.9802,1,,,,,,,,,,,,,,m,1,0.9802,,,,,,,,-0.710185168,-0.028703712,0,0,0,,0,24,24,65,1,SPINE,LB,old,m,./images/SPINELB.png,,,,,,,,,,,,,,,,,,,,,,,,,,,,,,,,,,,
,,,,,,,,,,,,,,,,,5d0dd940312297000137d2a7,64,2022-02-12_17h54.10.811,lexical_decision_task_DD_L4,2021.2.3,Win32,59.3824228,,,,,,,,,,,,0.8165,1,,,,,,,,,,,,,,m,1,0.8165,,,,,,,,-0.710185168,-0.028703712,0,0,0,,0,25,25,79,1,RULER,HB,old,m,./images/RULERHB.png,,,,,,,,,,,,,,,,,,,,,,,,,,,,,,,,,,,
,,,,,,,,,,,,,,,,,5d0dd940312297000137d2a7,64,2022-02-12_17h54.10.811,lexical_decision_task_DD_L4,2021.2.3,Win32,59.3824228,,,,,,,,,,,,1.192,1,,,,,,,,,,,,,,z,1,1.192,,,,,,,,-0.710185168,-0.028703712,0,0,0,,0,26,26,156,1,HIXES,C,old,z,./images/HIXES.png,,,,,,,,,,,,,,,,,,,,,,,,,,,,,,,,,,,
,,,,,,,,,,,,,,,,,5d0dd940312297000137d2a7,64,2022-02-12_17h54.10.811,lexical_decision_task_DD_L4,2021.2.3,Win32,59.3824228,,,,,,,,,,,,0.7204,1,,,,,,,,,,,,,,z,1,0.7204,,,,,,,,-0.710185168,-0.028703712,0,0,0,,0,27,27,162,1,LEICH,C,old,z,./images/LEICH.png,,,,,,,,,,,,,,,,,,,,,,,,,,,,,,,,,,,
,,,,,,,,,,,,,,,,,5d0dd940312297000137d2a7,64,2022-02-12_17h54.10.811,lexical_decision_task_DD_L4,2021.2.3,Win32,59.3824228,,,,,,,,,,,,0.8529,1,,,,,,,,,,,,,,z,1,0.8529,,,,,,,,-0.710185168,-0.028703712,0,0,0,,0,28,28,95,1,HANTY,LB,old,z,./images/HANTYLB.png,,,,,,,,,,,,,,,,,,,,,,,,,,,,,,,,,,,
,,,,,,,,,,,,,,,,,5d0dd940312297000137d2a7,64,2022-02-12_17h54.10.811,lexical_decision_task_DD_L4,2021.2.3,Win32,59.3824228,,,,,,,,,,,,0.7685,1,,,,,,,,,,,,,,z,1,0.7685,,,,,,,,-0.710185168,-0.028703712,0,0,0,,0,29,29,149,1,VEASE,LB,old,z,./images/VEASELB.png,,,,,,,,,,,,,,,,,,,,,,,,,,,,,,,,,,,
,,,,,,,,,,,,,,,,,5d0dd940312297000137d2a7,64,2022-02-12_17h54.10.811,lexical_decision_task_DD_L4,2021.2.3,Win32,59.3824228,,,,,,,,,,,,0.8485,1,,,,,,,,,,,,,,m,1,0.8485,,,,,,,,-0.710185168,-0.028703712,0,0,0,,0,30,30,61,1,ARTIST,HB,old,m,./images/ARTISTHB.png,,,,,,,,,,,,,,,,,,,,,,,,,,,,,,,,,,,
,,,,,,,,,,,,,,,,,5d0dd940312297000137d2a7,64,2022-02-12_17h54.10.811,lexical_decision_task_DD_L4,2021.2.3,Win32,59.3824228,,,,,,,,,,,,1.2798,1,,,,,,,,,,,,,,z,1,1.2798,,,,,,,,-0.710185168,-0.028703712,0,0,0,,0,31,31,127,1,NINDY,HB,old,z,./images/NINDYHB.png,,,,,,,,,,,,,,,,,,,,,,,,,,,,,,,,,,,
,,,,,,,,,,,,,,,,,5d0dd940312297000137d2a7,64,2022-02-12_17h54.10.811,lexical_decision_task_DD_L4,2021.2.3,Win32,59.3824228,,,,,,,,,,,,0.7709,1,,,,,,,,,,,,,,m,1,0.7709,,,,,,,,-0.710185168,-0.028703712,0,0,0,,0,32,32,51,1,SAUCE,C,old,m,./images/SAUCE.png,,,,,,,,,,,,,,,,,,,,,,,,,,,,,,,,,,,
,,,,,,,,,,,,,,,,,5d0dd940312297000137d2a7,64,2022-02-12_17h54.10.811,lexical_decision_task_DD_L4,2021.2.3,Win32,59.3824228,,,,,,,,,,,,0.8226,1,,,,,,,,,,,,,,z,1,0.8226,,,,,,,,-0.710185168,-0.028703712,0,0,0,,0,33,33,131,1,NACES,LB,old,z,./images/NACESLB.png,,,,,,,,,,,,,,,,,,,,,,,,,,,,,,,,,,,
,,,,,,,,,,,,,,,,,5d0dd940312297000137d2a7,64,2022-02-12_17h54.10.811,lexical_decision_task_DD_L4,2021.2.3,Win32,59.3824228,,,,,,,,,,,,1.0997,1,,,,,,,,,,,,,,z,1,1.0997,,,,,,,,-0.710185168,-0.028703712,0,0,0,,0,34,34,143,1,MONGS,LB,old,z,./images/MONGSLB.png,,,,,,,,,,,,,,,,,,,,,,,,,,,,,,,,,,,
,,,,,,,,,,,,,,,,,5d0dd940312297000137d2a7,64,2022-02-12_17h54.10.811,lexical_decision_task_DD_L4,2021.2.3,Win32,59.3824228,,,,,,,,,,,,1.0397,1,,,,,,,,,,,,,,m,1,1.0397,,,,,,,,-0.710185168,-0.028703712,0,0,0,,0,35,35,56,1,HEATER,LB,old,m,./images/HEATERLB.png,,,,,,,,,,,,,,,,,,,,,,,,,,,,,,,,,,,
,,,,,,,,,,,,,,,,,5d0dd940312297000137d2a7,64,2022-02-12_17h54.10.811,lexical_decision_task_DD_L4,2021.2.3,Win32,59.3824228,,,,,,,,,,,,0.984,1,,,,,,,,,,,,,,m,1,0.984,,,,,,,,-0.710185168,-0.028703712,0,0,0,,0,36,36,58,1,CANOE,HB,old,m,./images/CANOEHB.png,,,,,,,,,,,,,,,,,,,,,,,,,,,,,,,,,,,
,,,,,,,,,,,,,,,,,5d0dd940312297000137d2a7,64,2022-02-12_17h54.10.811,lexical_decision_task_DD_L4,2021.2.3,Win32,59.3824228,,,,,,,,,,,,1.1129,1,,,,,,,,,,,,,,z,1,1.1129,,,,,,,,-0.710185168,-0.028703712,0,0,0,,0,37,37,100,1,DRIBS,HB,old,z,./images/DRIBSHB.png,,,,,,,,,,,,,,,,,,,,,,,,,,,,,,,,,,,
,,,,,,,,,,,,,,,,,5d0dd940312297000137d2a7,64,2022-02-12_17h54.10.811,lexical_decision_task_DD_L4,2021.2.3,Win32,59.3824228,,,,,,,,,,,,1.1749,1,,,,,,,,,,,,,,z,1,1.1749,,,,,,,,-0.710185168,-0.028703712,0,0,0,,0,38,38,153,1,CLUPS,C,old,z,./images/CLUPS.png,,,,,,,,,,,,,,,,,,,,,,,,,,,,,,,,,,,
,,,,,,,,,,,,,,,,,5d0dd940312297000137d2a7,64,2022-02-12_17h54.10.811,lexical_decision_task_DD_L4,2021.2.3,Win32,59.3824228,,,,,,,,,,,,1.1066,1,,,,,,,,,,,,,,z,1,1.1066,,,,,,,,-0.710185168,-0.028703712,0,0,0,,0,39,39,91,1,SHENS,HB,old,z,./images/SHENSHB.png,,,,,,,,,,,,,,,,,,,,,,,,,,,,,,,,,,,
,,,,,,,,,,,,,,,,,5d0dd940312297000137d2a7,64,2022-02-12_17h54.10.811,lexical_decision_task_DD_L4,2021.2.3,Win32,59.3824228,,,,,,,,,,,,1.6895,1,,,,,,,,,,,,,,z,1,1.6895,,,,,,,,-0.710185168,-0.028703712,0,0,0,,0,40,40,166,1,SHORY,HB,old,z,./images/SHORYHB.png,,,,,,,,,,,,,,,,,,,,,,,,,,,,,,,,,,,
,,,,,,,,,,,,,,,,,5d0dd940312297000137d2a7,64,2022-02-12_17h54.10.811,lexical_decision_task_DD_L4,2021.2.3,Win32,59.3824228,,,,,,,,,,,,0.7244,1,,,,,,,,,,,,,,m,1,0.7244,,,,,,,,-0.710185168,-0.028703712,0,0,0,space,0,41,41,57,1,FERRY,C,old,m,./images/FERRY.png,18.9397,,,,,,,,,,,,,,,,,,,,,,,,,,,,,,,,,,
,,,,,,,,,,,,,,,,,5d0dd940312297000137d2a7,64,2022-02-12_17h54.10.811,lexical_decision_task_DD_L4,2021.2.3,Win32,59.3824228,,,,,,,,,,,,1.0667,1,,,,,,,,,,,,,,z,1,1.0667,,,,,,,,-0.710185168,-0.028703712,0,0,0,,0,42,42,102,1,DULLE,C,old,z,./images/DULLE.png,,,,,,,,,,,,,,,,,,,,,,,,,,,,,,,,,,,
,,,,,,,,,,,,,,,,,5d0dd940312297000137d2a7,64,2022-02-12_17h54.10.811,lexical_decision_task_DD_L4,2021.2.3,Win32,59.3824228,,,,,,,,,,,,0.7465,1,,,,,,,,,,,,,,m,1,0.7465,,,,,,,,-0.710185168,-0.028703712,0,0,0,,0,43,43,0,1,WALNUT,C,old,m,./images/WALNUT.png,,,,,,,,,,,,,,,,,,,,,,,,,,,,,,,,,,,
,,,,,,,,,,,,,,,,,5d0dd940312297000137d2a7,64,2022-02-12_17h54.10.811,lexical_decision_task_DD_L4,2021.2.3,Win32,59.3824228,,,,,,,,,,,,0.7402,1,,,,,,,,,,,,,,m,1,0.7402,,,,,,,,-0.710185168,-0.028703712,0,0,0,,0,44,44,21,1,DANCER,C,old,m,./images/DANCER.png,,,,,,,,,,,,,,,,,,,,,,,,,,,,,,,,,,,
,,,,,,,,,,,,,,,,,5d0dd940312297000137d2a7,64,2022-02-12_17h54.10.811,lexical_decision_task_DD_L4,2021.2.3,Win32,59.3824228,,,,,,,,,,,,0.6698,1,,,,,,,,,,,,,,z,1,0.6698,,,,,,,,-0.710185168,-0.028703712,0,0,0,,0,45,45,124,1,TUNCH,HB,old,z,./images/TUNCHHB.png,,,,,,,,,,,,,,,,,,,,,,,,,,,,,,,,,,,
,,,,,,,,,,,,,,,,,5d0dd940312297000137d2a7,64,2022-02-12_17h54.10.811,lexical_decision_task_DD_L4,2021.2.3,Win32,59.3824228,,,,,,,,,,,,0.7929,1,,,,,,,,,,,,,,m,1,0.7929,,,,,,,,-0.710185168,-0.028703712,0,0,0,,0,46,46,31,1,STEAK,HB,old,m,./images/STEAKHB.png,,,,,,,,,,,,,,,,,,,,,,,,,,,,,,,,,,,
,,,,,,,,,,,,,,,,,5d0dd940312297000137d2a7,64,2022-02-12_17h54.10.811,lexical_decision_task_DD_L4,2021.2.3,Win32,59.3824228,,,,,,,,,,,,1.1232,1,,,,,,,,,,,,,,z,1,1.1232,,,,,,,,-0.710185168,-0.028703712,0,0,0,,0,47,47,138,1,PLICE,C,old,z,./images/PLICE.png,,,,,,,,,,,,,,,,,,,,,,,,,,,,,,,,,,,
,,,,,,,,,,,,,,,,,5d0dd940312297000137d2a7,64,2022-02-12_17h54.10.811,lexical_decision_task_DD_L4,2021.2.3,Win32,59.3824228,,,,,,,,,,,,0.792,1,,,,,,,,,,,,,,m,1,0.792,,,,,,,,-0.710185168,-0.028703712,0,0,0,,0,48,48,29,1,PISTOL,LB,old,m,./images/PISTOLLB.png,,,,,,,,,,,,,,,,,,,,,,,,,,,,,,,,,,,
,,,,,,,,,,,,,,,,,5d0dd940312297000137d2a7,64,2022-02-12_17h54.10.811,lexical_decision_task_DD_L4,2021.2.3,Win32,59.3824228,,,,,,,,,,,,0.7424,1,,,,,,,,,,,,,,m,1,0.7424,,,,,,,,-0.710185168,-0.028703712,0,0,0,,0,49,49,48,1,SHIELD,C,old,m,./images/SHIELD.png,,,,,,,,,,,,,,,,,,,,,,,,,,,,,,,,,,,
,,,,,,,,,,,,,,,,,5d0dd940312297000137d2a7,64,2022-02-12_17h54.10.811,lexical_decision_task_DD_L4,2021.2.3,Win32,59.3824228,,,,,,,,,,,,0.621,1,,,,,,,,,,,,,,m,1,0.621,,,,,,,,-0.710185168,-0.028703712,0,0,0,,0,50,50,66,1,STATUE,C,old,m,./images/STATUE.png,,,,,,,,,,,,,,,,,,,,,,,,,,,,,,,,,,,
,,,,,,,,,,,,,,,,,5d0dd940312297000137d2a7,64,2022-02-12_17h54.10.811,lexical_decision_task_DD_L4,2021.2.3,Win32,59.3824228,,,,,,,,,,,,0.829,1,,,,,,,,,,,,,,z,1,0.829,,,,,,,,-0.710185168,-0.028703712,0,0,0,,0,51,51,93,1,SMONE,C,old,z,./images/SMONE.png,,,,,,,,,,,,,,,,,,,,,,,,,,,,,,,,,,,
,,,,,,,,,,,,,,,,,5d0dd940312297000137d2a7,64,2022-02-12_17h54.10.811,lexical_decision_task_DD_L4,2021.2.3,Win32,59.3824228,,,,,,,,,,,,1.18,1,,,,,,,,,,,,,,z,1,1.18,,,,,,,,-0.710185168,-0.028703712,0,0,0,,0,52,52,121,1,CEERS,HB,old,z,./images/CEERSHB.png,,,,,,,,,,,,,,,,,,,,,,,,,,,,,,,,,,,
,,,,,,,,,,,,,,,,,5d0dd940312297000137d2a7,64,2022-02-12_17h54.10.811,lexical_decision_task_DD_L4,2021.2.3,Win32,59.3824228,,,,,,,,,,,,1.0226,1,,,,,,,,,,,,,,m,1,1.0226,,,,,,,,-0.710185168,-0.028703712,0,0,0,,0,53,53,35,1,LLAMA,LB,old,m,./images/LLAMALB.png,,,,,,,,,,,,,,,,,,,,,,,,,,,,,,,,,,,
,,,,,,,,,,,,,,,,,5d0dd940312297000137d2a7,64,2022-02-12_17h54.10.811,lexical_decision_task_DD_L4,2021.2.3,Win32,59.3824228,,,,,,,,,,,,0.817,1,,,,,,,,,,,,,,m,1,0.817,,,,,,,,-0.710185168,-0.028703712,0,0,0,,0,54,54,43,1,STOOL,HB,old,m,./images/STOOLHB.png,,,,,,,,,,,,,,,,,,,,,,,,,,,,,,,,,,,
,,,,,,,,,,,,,,,,,5d0dd940312297000137d2a7,64,2022-02-12_17h54.10.811,lexical_decision_task_DD_L4,2021.2.3,Win32,59.3824228,,,,,,,,,,,,0.8299,1,,,,,,,,,,,,,,z,1,0.8299,,,,,,,,-0.710185168,-0.028703712,0,0,0,,0,55,55,145,1,LAMEL,HB,old,z,./images/LAMELHB.png,,,,,,,,,,,,,,,,,,,,,,,,,,,,,,,,,,,
,,,,,,,,,,,,,,,,,5d0dd940312297000137d2a7,64,2022-02-12_17h54.10.811,lexical_decision_task_DD_L4,2021.2.3,Win32,59.3824228,,,,,,,,,,,,0.9217,1,,,,,,,,,,,,,,m,1,0.9217,,,,,,,,-0.710185168,-0.028703712,0,0,0,,0,56,56,46,1,MUMMY,HB,old,m,./images/MUMMYHB.png,,,,,,,,,,,,,,,,,,,,,,,,,,,,,,,,,,,
,,,,,,,,,,,,,,,,,5d0dd940312297000137d2a7,64,2022-02-12_17h54.10.811,lexical_decision_task_DD_L4,2021.2.3,Win32,59.3824228,,,,,,,,,,,,0.7998,1,,,,,,,,,,,,,,m,1,0.7998,,,,,,,,-0.710185168,-0.028703712,0,0,0,,0,57,57,74,1,JUMPER,LB,old,m,./images/JUMPERLB.png,,,,,,,,,,,,,,,,,,,,,,,,,,,,,,,,,,,
,,,,,,,,,,,,,,,,,5d0dd940312297000137d2a7,64,2022-02-12_17h54.10.811,lexical_decision_task_DD_L4,2021.2.3,Win32,59.3824228,,,,,,,,,,,,0.7363,1,,,,,,,,,,,,,,m,1,0.7363,,,,,,,,-0.710185168,-0.028703712,0,0,0,,0,58,58,3,1,CRATER,C,old,m,./images/CRATER.png,,,,,,,,,,,,,,,,,,,,,,,,,,,,,,,,,,,
,,,,,,,,,,,,,,,,,5d0dd940312297000137d2a7,64,2022-02-12_17h54.10.811,lexical_decision_task_DD_L4,2021.2.3,Win32,59.3824228,,,,,,,,,,,,0.8624,1,,,,,,,,,,,,,,z,1,0.8624,,,,,,,,-0.710185168,-0.028703712,0,0,0,,0,59,59,165,1,TROWN,C,old,z,./images/TROWN.png,,,,,,,,,,,,,,,,,,,,,,,,,,,,,,,,,,,
,,,,,,,,,,,,,,,,,5d0dd940312297000137d2a7,64,2022-02-12_17h54.10.811,lexical_decision_task_DD_L4,2021.2.3,Win32,59.3824228,,,,,,,,,,,,0.8702,1,,,,,,,,,,,,,,z,1,0.8702,,,,,,,,-0.710185168,-0.028703712,0,0,0,,0,60,60,104,1,GITTY,LB,old,z,./images/GITTYLB.png,,,,,,,,,,,,,,,,,,,,,,,,,,,,,,,,,,,
,,,,,,,,,,,,,,,,,5d0dd940312297000137d2a7,64,2022-02-12_17h54.10.811,lexical_decision_task_DD_L4,2021.2.3,Win32,59.3824228,,,,,,,,,,,,0.7094,1,,,,,,,,,,,,,,m,1,0.7094,,,,,,,,-0.710185168,-0.028703712,0,0,0,,0,61,61,24,1,FLESH,C,old,m,./images/FLESH.png,,,,,,,,,,,,,,,,,,,,,,,,,,,,,,,,,,,
,,,,,,,,,,,,,,,,,5d0dd940312297000137d2a7,64,2022-02-12_17h54.10.811,lexical_decision_task_DD_L4,2021.2.3,Win32,59.3824228,,,,,,,,,,,,0.693,1,,,,,,,,,,,,,,m,1,0.693,,,,,,,,-0.710185168,-0.028703712,0,0,0,,0,62,62,71,1,BUBBLE,LB,old,m,./images/BUBBLELB.png,,,,,,,,,,,,,,,,,,,,,,,,,,,,,,,,,,,
,,,,,,,,,,,,,,,,,5d0dd940312297000137d2a7,64,2022-02-12_17h54.10.811,lexical_decision_task_DD_L4,2021.2.3,Win32,59.3824228,,,,,,,,,,,,0.6752,1,,,,,,,,,,,,,,m,1,0.6752,,,,,,,,-0.710185168,-0.028703712,0,0,0,,0,63,63,23,1,CLOTH,LB,old,m,./images/CLOTHLB.png,,,,,,,,,,,,,,,,,,,,,,,,,,,,,,,,,,,
,,,,,,,,,,,,,,,,,5d0dd940312297000137d2a7,64,2022-02-12_17h54.10.811,lexical_decision_task_DD_L4,2021.2.3,Win32,59.3824228,,,,,,,,,,,,0.7014,1,,,,,,,,,,,,,,m,1,0.7014,,,,,,,,-0.710185168,-0.028703712,0,0,0,,0,64,64,33,1,SAUNA,C,old,m,./images/SAUNA.png,,,,,,,,,,,,,,,,,,,,,,,,,,,,,,,,,,,
,,,,,,,,,,,,,,,,,5d0dd940312297000137d2a7,64,2022-02-12_17h54.10.811,lexical_decision_task_DD_L4,2021.2.3,Win32,59.3824228,,,,,,,,,,,,1.0086,1,,,,,,,,,,,,,,z,1,1.0086,,,,,,,,-0.710185168,-0.028703712,0,0,0,,0,65,65,114,1,RIKES,C,old,z,./images/RIKES.png,,,,,,,,,,,,,,,,,,,,,,,,,,,,,,,,,,,
,,,,,,,,,,,,,,,,,5d0dd940312297000137d2a7,64,2022-02-12_17h54.10.811,lexical_decision_task_DD_L4,2021.2.3,Win32,59.3824228,,,,,,,,,,,,0.5844,1,,,,,,,,,,,,,,z,1,0.5844,,,,,,,,-0.710185168,-0.028703712,0,0,0,,0,66,66,140,1,DOVET,LB,old,z,./images/DOVETLB.png,,,,,,,,,,,,,,,,,,,,,,,,,,,,,,,,,,,
,,,,,,,,,,,,,,,,,5d0dd940312297000137d2a7,64,2022-02-12_17h54.10.811,lexical_decision_task_DD_L4,2021.2.3,Win32,59.3824228,,,,,,,,,,,,0.8417,1,,,,,,,,,,,,,,z,1,0.8417,,,,,,,,-0.710185168,-0.028703712,0,0,0,,0,67,67,94,1,BLANS,HB,old,z,./images/BLANSHB.png,,,,,,,,,,,,,,,,,,,,,,,,,,,,,,,,,,,
,,,,,,,,,,,,,,,,,5d0dd940312297000137d2a7,64,2022-02-12_17h54.10.811,lexical_decision_task_DD_L4,2021.2.3,Win32,59.3824228,,,,,,,,,,,,0.8773,1,,,,,,,,,,,,,,z,1,0.8773,,,,,,,,-0.710185168,-0.028703712,0,0,0,,0,68,68,142,1,PLASK,HB,old,z,./images/PLASKHB.png,,,,,,,,,,,,,,,,,,,,,,,,,,,,,,,,,,,
,,,,,,,,,,,,,,,,,5d0dd940312297000137d2a7,64,2022-02-12_17h54.10.811,lexical_decision_task_DD_L4,2021.2.3,Win32,59.3824228,,,,,,,,,,,,0.8013,1,,,,,,,,,,,,,,z,1,0.8013,,,,,,,,-0.710185168,-0.028703712,0,0,0,,0,69,69,90,1,NEAST,C,old,z,./images/NEAST.png,,,,,,,,,,,,,,,,,,,,,,,,,,,,,,,,,,,
,,,,,,,,,,,,,,,,,5d0dd940312297000137d2a7,64,2022-02-12_17h54.10.811,lexical_decision_task_DD_L4,2021.2.3,Win32,59.3824228,,,,,,,,,,,,0.8314,1,,,,,,,,,,,,,,m,1,0.8314,,,,,,,,-0.710185168,-0.028703712,0,0,0,,0,70,70,76,1,MIDGET,HB,old,m,./images/MIDGETHB.png,,,,,,,,,,,,,,,,,,,,,,,,,,,,,,,,,,,
,,,,,,,,,,,,,,,,,5d0dd940312297000137d2a7,64,2022-02-12_17h54.10.811,lexical_decision_task_DD_L4,2021.2.3,Win32,59.3824228,,,,,,,,,,,,0.9171,1,,,,,,,,,,,,,,m,1,0.9171,,,,,,,,-0.710185168,-0.028703712,0,0,0,,0,71,71,82,1,PEBBLE,HB,old,m,./images/PEBBLEHB.png,,,,,,,,,,,,,,,,,,,,,,,,,,,,,,,,,,,
,,,,,,,,,,,,,,,,,5d0dd940312297000137d2a7,64,2022-02-12_17h54.10.811,lexical_decision_task_DD_L4,2021.2.3,Win32,59.3824228,,,,,,,,,,,,0.9792,1,,,,,,,,,,,,,,m,1,0.9792,,,,,,,,-0.710185168,-0.028703712,0,0,0,,0,72,72,49,1,BISHOP,HB,old,m,./images/BISHOPHB.png,,,,,,,,,,,,,,,,,,,,,,,,,,,,,,,,,,,
,,,,,,,,,,,,,,,,,5d0dd940312297000137d2a7,64,2022-02-12_17h54.10.811,lexical_decision_task_DD_L4,2021.2.3,Win32,59.3824228,,,,,,,,,,,,0.9563,1,,,,,,,,,,,,,,z,1,0.9563,,,,,,,,-0.710185168,-0.028703712,0,0,0,,0,73,73,134,1,TROSS,LB,old,z,./images/TROSSLB.png,,,,,,,,,,,,,,,,,,,,,,,,,,,,,,,,,,,
,,,,,,,,,,,,,,,,,5d0dd940312297000137d2a7,64,2022-02-12_17h54.10.811,lexical_decision_task_DD_L4,2021.2.3,Win32,59.3824228,,,,,,,,,,,,0.8305,1,,,,,,,,,,,,,,m,1,0.8305,,,,,,,,-0.710185168,-0.028703712,0,0,0,,0,74,74,40,1,SNAKE,HB,old,m,./images/SNAKEHB.png,,,,,,,,,,,,,,,,,,,,,,,,,,,,,,,,,,,
,,,,,,,,,,,,,,,,,5d0dd940312297000137d2a7,64,2022-02-12_17h54.10.811,lexical_decision_task_DD_L4,2021.2.3,Win32,59.3824228,,,,,,,,,,,,0.8683,1,,,,,,,,,,,,,,z,1,0.8683,,,,,,,,-0.710185168,-0.028703712,0,0,0,,0,75,75,110,1,CRUNK,LB,old,z,./images/CRUNKLB.png,,,,,,,,,,,,,,,,,,,,,,,,,,,,,,,,,,,
,,,,,,,,,,,,,,,,,5d0dd940312297000137d2a7,64,2022-02-12_17h54.10.811,lexical_decision_task_DD_L4,2021.2.3,Win32,59.3824228,,,,,,,,,,,,0.8757,1,,,,,,,,,,,,,,z,1,0.8757,,,,,,,,-0.710185168,-0.028703712,0,0,0,,0,76,76,84,1,HAXES,C,old,z,./images/HAXES.png,,,,,,,,,,,,,,,,,,,,,,,,,,,,,,,,,,,
,,,,,,,,,,,,,,,,,5d0dd940312297000137d2a7,64,2022-02-12_17h54.10.811,lexical_decision_task_DD_L4,2021.2.3,Win32,59.3824228,,,,,,,,,,,,0.818,1,,,,,,,,,,,,,,m,1,0.818,,,,,,,,-0.710185168,-0.028703712,0,0,0,,0,77,77,32,1,HOCKEY,LB,old,m,./images/HOCKEYLB.png,,,,,,,,,,,,,,,,,,,,,,,,,,,,,,,,,,,
,,,,,,,,,,,,,,,,,5d0dd940312297000137d2a7,64,2022-02-12_17h54.10.811,lexical_decision_task_DD_L4,2021.2.3,Win32,59.3824228,,,,,,,,,,,,0.591,1,,,,,,,,,,,,,,m,1,0.591,,,,,,,,-0.710185168,-0.028703712,0,0,0,,0,78,78,69,1,ARROW,C,old,m,./images/ARROW.png,,,,,,,,,,,,,,,,,,,,,,,,,,,,,,,,,,,
,,,,,,,,,,,,,,,,,5d0dd940312297000137d2a7,64,2022-02-12_17h54.10.811,lexical_decision_task_DD_L4,2021.2.3,Win32,59.3824228,,,,,,,,,,,,0.5366,1,,,,,,,,,,,,,,m,1,0.5366,,,,,,,,-0.710185168,-0.028703712,0,0,0,,0,79,79,39,1,CANDY,C,old,m,./images/CANDY.png,,,,,,,,,,,,,,,,,,,,,,,,,,,,,,,,,,,
,,,,,,,,,,,,,,,,,5d0dd940312297000137d2a7,64,2022-02-12_17h54.10.811,lexical_decision_task_DD_L4,2021.2.3,Win32,59.3824228,,,,,,,,,,,,0.7572,1,,,,,,,,,,,,,,m,1,0.7572,,,,,,,,-0.710185168,-0.028703712,0,0,0,,0,80,80,55,1,ALLEY,HB,old,m,./images/ALLEYHB.png,,,,,,,,,,,,,,,,,,,,,,,,,,,,,,,,,,,
,,,,,,,,,,,,,,,,,5d0dd940312297000137d2a7,64,2022-02-12_17h54.10.811,lexical_decision_task_DD_L4,2021.2.3,Win32,59.3824228,,,,,,,,,,,,0.9332,1,,,,,,,,,,,,,,z,1,0.9332,,,,,,,,-0.710185168,-0.028703712,0,0,0,,0,81,81,130,1,CRILL,HB,old,z,./images/CRILLHB.png,,,,,,,,,,,,,,,,,,,,,,,,,,,,,,,,,,,
,,,,,,,,,,,,,,,,,5d0dd940312297000137d2a7,64,2022-02-12_17h54.10.811,lexical_decision_task_DD_L4,2021.2.3,Win32,59.3824228,,,,,,,,,,,,0.5946,1,,,,,,,,,,,,,,z,1,0.5946,,,,,,,,-0.710185168,-0.028703712,0,0,0,,0,82,82,101,1,GLEET,LB,old,z,./images/GLEETLB.png,,,,,,,,,,,,,,,,,,,,,,,,,,,,,,,,,,,
,,,,,,,,,,,,,,,,,5d0dd940312297000137d2a7,64,2022-02-12_17h54.10.811,lexical_decision_task_DD_L4,2021.2.3,Win32,59.3824228,,,,,,,,,,,,0.801,1,,,,,,,,,,,,,,m,1,0.801,,,,,,,,-0.710185168,-0.028703712,0,0,0,space,0,83,83,7,1,WAGON,HB,old,m,./images/WAGONHB.png,48.0098,,,,,,,,,,,,,,,,,,,,,,,,,,,,,,,,,,
,,,,,,,,,,,,,,,,,5d0dd940312297000137d2a7,64,2022-02-12_17h54.10.811,lexical_decision_task_DD_L4,2021.2.3,Win32,59.3824228,,,,,,,,,,,,0.7349,1,,,,,,,,,,,,,,m,1,0.7349,,,,,,,,-0.710185168,-0.028703712,0,0,0,,0,84,84,4,1,BOXER,HB,old,m,./images/BOXERHB.png,,,,,,,,,,,,,,,,,,,,,,,,,,,,,,,,,,,
,,,,,,,,,,,,,,,,,5d0dd940312297000137d2a7,64,2022-02-12_17h54.10.811,lexical_decision_task_DD_L4,2021.2.3,Win32,59.3824228,,,,,,,,,,,,1.3501,1,,,,,,,,,,,,,,z,1,1.3501,,,,,,,,-0.710185168,-0.028703712,0,0,0,,0,85,85,157,1,INLER,HB,old,z,./images/INLERHB.png,,,,,,,,,,,,,,,,,,,,,,,,,,,,,,,,,,,
,,,,,,,,,,,,,,,,,5d0dd940312297000137d2a7,64,2022-02-12_17h54.10.811,lexical_decision_task_DD_L4,2021.2.3,Win32,59.3824228,,,,,,,,,,,,0.9191,1,,,,,,,,,,,,,,z,1,0.9191,,,,,,,,-0.710185168,-0.028703712,0,0,0,,0,86,86,97,1,CHIDS,HB,old,z,./images/CHIDSHB.png,,,,,,,,,,,,,,,,,,,,,,,,,,,,,,,,,,,
,,,,,,,,,,,,,,,,,5d0dd940312297000137d2a7,64,2022-02-12_17h54.10.811,lexical_decision_task_DD_L4,2021.2.3,Win32,59.3824228,,,,,,,,,,,,1.2087,1,,,,,,,,,,,,,,z,1,1.2087,,,,,,,,-0.710185168,-0.028703712,0,0,0,,0,87,87,107,1,FASKS,LB,old,z,./images/FASKSLB.png,,,,,,,,,,,,,,,,,,,,,,,,,,,,,,,,,,,
,,,,,,,,,,,,,,,,,5d0dd940312297000137d2a7,64,2022-02-12_17h54.10.811,lexical_decision_task_DD_L4,2021.2.3,Win32,59.3824228,,,,,,,,,,,,1.2312,1,,,,,,,,,,,,,,z,1,1.2312,,,,,,,,-0.710185168,-0.028703712,0,0,0,,0,88,88,115,1,MAWNS,HB,old,z,./images/MAWNSHB.png,,,,,,,,,,,,,,,,,,,,,,,,,,,,,,,,,,,
,,,,,,,,,,,,,,,,,5d0dd940312297000137d2a7,64,2022-02-12_17h54.10.811,lexical_decision_task_DD_L4,2021.2.3,Win32,59.3824228,,,,,,,,,,,,0.8145,1,,,,,,,,,,,,,,m,1,0.8145,,,,,,,,-0.710185168,-0.028703712,0,0,0,,0,89,89,67,1,POKER,HB,old,m,./images/POKERHB.png,,,,,,,,,,,,,,,,,,,,,,,,,,,,,,,,,,,
,,,,,,,,,,,,,,,,,5d0dd940312297000137d2a7,64,2022-02-12_17h54.10.811,lexical_decision_task_DD_L4,2021.2.3,Win32,59.3824228,,,,,,,,,,,,0.7692,1,,,,,,,,,,,,,,m,1,0.7692,,,,,,,,-0.710185168,-0.028703712,0,0,0,,0,90,90,70,1,BANANA,HB,old,m,./images/BANANAHB.png,,,,,,,,,,,,,,,,,,,,,,,,,,,,,,,,,,,
,,,,,,,,,,,,,,,,,5d0dd940312297000137d2a7,64,2022-02-12_17h54.10.811,lexical_decision_task_DD_L4,2021.2.3,Win32,59.3824228,,,,,,,,,,,,0.7299,1,,,,,,,,,,,,,,m,1,0.7299,,,,,,,,-0.710185168,-0.028703712,0,0,0,,0,91,91,1,1,TOWEL,HB,old,m,./images/TOWELHB.png,,,,,,,,,,,,,,,,,,,,,,,,,,,,,,,,,,,
,,,,,,,,,,,,,,,,,5d0dd940312297000137d2a7,64,2022-02-12_17h54.10.811,lexical_decision_task_DD_L4,2021.2.3,Win32,59.3824228,,,,,,,,,,,,0.9044,1,,,,,,,,,,,,,,z,1,0.9044,,,,,,,,-0.710185168,-0.028703712,0,0,0,,0,92,92,123,1,SEDGE,C,old,z,./images/SEDGE.png,,,,,,,,,,,,,,,,,,,,,,,,,,,,,,,,,,,
,,,,,,,,,,,,,,,,,5d0dd940312297000137d2a7,64,2022-02-12_17h54.10.811,lexical_decision_task_DD_L4,2021.2.3,Win32,59.3824228,,,,,,,,,,,,1.3175,1,,,,,,,,,,,,,,z,1,1.3175,,,,,,,,-0.710185168,-0.028703712,0,0,0,,0,93,93,109,1,BURGE,HB,old,z,./images/BURGEHB.png,,,,,,,,,,,,,,,,,,,,,,,,,,,,,,,,,,,
,,,,,,,,,,,,,,,,,5d0dd940312297000137d2a7,64,2022-02-12_17h54.10.811,lexical_decision_task_DD_L4,2021.2.3,Win32,59.3824228,,,,,,,,,,,,0.9003,1,,,,,,,,,,,,,,z,1,0.9003,,,,,,,,-0.710185168,-0.028703712,0,0,0,,0,94,94,163,1,GAMBA,HB,old,z,./images/GAMBAHB.png,,,,,,,,,,,,,,,,,,,,,,,,,,,,,,,,,,,
,,,,,,,,,,,,,,,,,5d0dd940312297000137d2a7,64,2022-02-12_17h54.10.811,lexical_decision_task_DD_L4,2021.2.3,Win32,59.3824228,,,,,,,,,,,,0.6856,1,,,,,,,,,,,,,,z,1,0.6856,,,,,,,,-0.710185168,-0.028703712,0,0,0,,0,95,95,146,1,MOOST,LB,old,z,./images/MOOSTLB.png,,,,,,,,,,,,,,,,,,,,,,,,,,,,,,,,,,,
,,,,,,,,,,,,,,,,,5d0dd940312297000137d2a7,64,2022-02-12_17h54.10.811,lexical_decision_task_DD_L4,2021.2.3,Win32,59.3824228,,,,,,,,,,,,0.6368,1,,,,,,,,,,,,,,m,1,0.6368,,,,,,,,-0.710185168,-0.028703712,0,0,0,,0,96,96,54,1,CHERRY,C,old,m,./images/CHERRY.png,,,,,,,,,,,,,,,,,,,,,,,,,,,,,,,,,,,
,,,,,,,,,,,,,,,,,5d0dd940312297000137d2a7,64,2022-02-12_17h54.10.811,lexical_decision_task_DD_L4,2021.2.3,Win32,59.3824228,,,,,,,,,,,,0.6834,1,,,,,,,,,,,,,,z,1,0.6834,,,,,,,,-0.710185168,-0.028703712,0,0,0,,0,97,97,141,1,PLEET,C,old,z,./images/PLEET.png,,,,,,,,,,,,,,,,,,,,,,,,,,,,,,,,,,,
,,,,,,,,,,,,,,,,,5d0dd940312297000137d2a7,64,2022-02-12_17h54.10.811,lexical_decision_task_DD_L4,2021.2.3,Win32,59.3824228,,,,,,,,,,,,1.0351,1,,,,,,,,,,,,,,m,1,1.0351,,,,,,,,-0.710185168,-0.028703712,0,0,0,,0,98,98,26,1,CLOUD,LB,old,m,./images/CLOUDLB.png,,,,,,,,,,,,,,,,,,,,,,,,,,,,,,,,,,,
,,,,,,,,,,,,,,,,,5d0dd940312297000137d2a7,64,2022-02-12_17h54.10.811,lexical_decision_task_DD_L4,2021.2.3,Win32,59.3824228,,,,,,,,,,,,0.9694,1,,,,,,,,,,,,,,m,1,0.9694,,,,,,,,-0.710185168,-0.028703712,0,0,0,,0,99,99,16,1,GRAPE,HB,old,m,./images/GRAPEHB.png,,,,,,,,,,,,,,,,,,,,,,,,,,,,,,,,,,,
,,,,,,,,,,,,,,,,,5d0dd940312297000137d2a7,64,2022-02-12_17h54.10.811,lexical_decision_task_DD_L4,2021.2.3,Win32,59.3824228,,,,,,,,,,,,1.6002,1,,,,,,,,,,,,,,z,1,1.6002,,,,,,,,-0.710185168,-0.028703712,0,0,0,,0,100,100,99,1,BACKY,C,old,z,./images/BACKY.png,,,,,,,,,,,,,,,,,,,,,,,,,,,,,,,,,,,
,,,,,,,,,,,,,,,,,5d0dd940312297000137d2a7,64,2022-02-12_17h54.10.811,lexical_decision_task_DD_L4,2021.2.3,Win32,59.3824228,,,,,,,,,,,,0.8268,1,,,,,,,,,,,,,,m,1,0.8268,,,,,,,,-0.710185168,-0.028703712,0,0,0,,0,101,101,9,1,DIVER,C,old,m,./images/DIVER.png,,,,,,,,,,,,,,,,,,,,,,,,,,,,,,,,,,,
,,,,,,,,,,,,,,,,,5d0dd940312297000137d2a7,64,2022-02-12_17h54.10.811,lexical_decision_task_DD_L4,2021.2.3,Win32,59.3824228,,,,,,,,,,,,0.5768,1,,,,,,,,,,,,,,m,1,0.5768,,,,,,,,-0.710185168,-0.028703712,0,0,0,,0,102,102,30,1,SLOPE,C,old,m,./images/SLOPE.png,,,,,,,,,,,,,,,,,,,,,,,,,,,,,,,,,,,
,,,,,,,,,,,,,,,,,5d0dd940312297000137d2a7,64,2022-02-12_17h54.10.811,lexical_decision_task_DD_L4,2021.2.3,Win32,59.3824228,,,,,,,,,,,,0.6993,1,,,,,,,,,,,,,,m,1,0.6993,,,,,,,,-0.710185168,-0.028703712,0,0,0,,0,103,103,22,1,CLOWN,HB,old,m,./images/CLOWNHB.png,,,,,,,,,,,,,,,,,,,,,,,,,,,,,,,,,,,
,,,,,,,,,,,,,,,,,5d0dd940312297000137d2a7,64,2022-02-12_17h54.10.811,lexical_decision_task_DD_L4,2021.2.3,Win32,59.3824228,,,,,,,,,,,,1.2751,1,,,,,,,,,,,,,,z,1,1.2751,,,,,,,,-0.710185168,-0.028703712,0,0,0,,0,104,104,133,1,POWDY,HB,old,z,./images/POWDYHB.png,,,,,,,,,,,,,,,,,,,,,,,,,,,,,,,,,,,
,,,,,,,,,,,,,,,,,5d0dd940312297000137d2a7,64,2022-02-12_17h54.10.811,lexical_decision_task_DD_L4,2021.2.3,Win32,59.3824228,,,,,,,,,,,,0.6782,1,,,,,,,,,,,,,,m,1,0.6782,,,,,,,,-0.710185168,-0.028703712,0,0,0,,0,105,105,18,1,PARCEL,C,old,m,./images/PARCEL.png,,,,,,,,,,,,,,,,,,,,,,,,,,,,,,,,,,,
,,,,,,,,,,,,,,,,,5d0dd940312297000137d2a7,64,2022-02-12_17h54.10.811,lexical_decision_task_DD_L4,2021.2.3,Win32,59.3824228,,,,,,,,,,,,0.853,1,,,,,,,,,,,,,,m,1,0.853,,,,,,,,-0.710185168,-0.028703712,0,0,0,,0,106,106,64,1,BRIDE,HB,old,m,./images/BRIDEHB.png,,,,,,,,,,,,,,,,,,,,,,,,,,,,,,,,,,,
,,,,,,,,,,,,,,,,,5d0dd940312297000137d2a7,64,2022-02-12_17h54.10.811,lexical_decision_task_DD_L4,2021.2.3,Win32,59.3824228,,,,,,,,,,,,1.6952,0,,,,,,,,,,,,,,m,0,1.6952,,,,,,,,-0.710185168,-0.028703712,0,0,0,,0,107,107,159,1,CUDDY,C,old,z,./images/CUDDY.png,,,,,,,,,,,,,,,,,,,,,,,,,,,,,,,,,,,
,,,,,,,,,,,,,,,,,5d0dd940312297000137d2a7,64,2022-02-12_17h54.10.811,lexical_decision_task_DD_L4,2021.2.3,Win32,59.3824228,,,,,,,,,,,,1.0319,1,,,,,,,,,,,,,,z,1,1.0319,,,,,,,,-0.710185168,-0.028703712,0,0,0,,0,108,108,112,1,MYING,HB,old,z,./images/MYINGHB.png,,,,,,,,,,,,,,,,,,,,,,,,,,,,,,,,,,,
,,,,,,,,,,,,,,,,,5d0dd940312297000137d2a7,64,2022-02-12_17h54.10.811,lexical_decision_task_DD_L4,2021.2.3,Win32,59.3824228,,,,,,,,,,,,0.7371,1,,,,,,,,,,,,,,z,1,0.7371,,,,,,,,-0.710185168,-0.028703712,0,0,0,,0,109,109,129,1,PRANS,C,old,z,./images/PRANS.png,,,,,,,,,,,,,,,,,,,,,,,,,,,,,,,,,,,
,,,,,,,,,,,,,,,,,5d0dd940312297000137d2a7,64,2022-02-12_17h54.10.811,lexical_decision_task_DD_L4,2021.2.3,Win32,59.3824228,,,,,,,,,,,,0.6721,1,,,,,,,,,,,,,,m,1,0.6721,,,,,,,,-0.710185168,-0.028703712,0,0,0,,0,110,110,14,1,FENCE,LB,old,m,./images/FENCELB.png,,,,,,,,,,,,,,,,,,,,,,,,,,,,,,,,,,,
,,,,,,,,,,,,,,,,,5d0dd940312297000137d2a7,64,2022-02-12_17h54.10.811,lexical_decision_task_DD_L4,2021.2.3,Win32,59.3824228,,,,,,,,,,,,0.7035,1,,,,,,,,,,,,,,m,1,0.7035,,,,,,,,-0.710185168,-0.028703712,0,0,0,,0,111,111,11,1,MEDAL,LB,old,m,./images/MEDALLB.png,,,,,,,,,,,,,,,,,,,,,,,,,,,,,,,,,,,
,,,,,,,,,,,,,,,,,5d0dd940312297000137d2a7,64,2022-02-12_17h54.10.811,lexical_decision_task_DD_L4,2021.2.3,Win32,59.3824228,,,,,,,,,,,,0.9538,1,,,,,,,,,,,,,,m,1,0.9538,,,,,,,,-0.710185168,-0.028703712,0,0,0,,0,112,112,52,1,DESERT,HB,old,m,./images/DESERTHB.png,,,,,,,,,,,,,,,,,,,,,,,,,,,,,,,,,,,
,,,,,,,,,,,,,,,,,5d0dd940312297000137d2a7,64,2022-02-12_17h54.10.811,lexical_decision_task_DD_L4,2021.2.3,Win32,59.3824228,,,,,,,,,,,,1.0072,1,,,,,,,,,,,,,,z,1,1.0072,,,,,,,,-0.710185168,-0.028703712,0,0,0,,0,113,113,88,1,GLUSH,HB,old,z,./images/GLUSHHB.png,,,,,,,,,,,,,,,,,,,,,,,,,,,,,,,,,,,
,,,,,,,,,,,,,,,,,5d0dd940312297000137d2a7,64,2022-02-12_17h54.10.811,lexical_decision_task_DD_L4,2021.2.3,Win32,59.3824228,,,,,,,,,,,,0.6699,1,,,,,,,,,,,,,,z,1,0.6699,,,,,,,,-0.710185168,-0.028703712,0,0,0,,0,114,114,116,1,BALGY,LB,old,z,./images/BALGYLB.png,,,,,,,,,,,,,,,,,,,,,,,,,,,,,,,,,,,
,,,,,,,,,,,,,,,,,5d0dd940312297000137d2a7,64,2022-02-12_17h54.10.811,lexical_decision_task_DD_L4,2021.2.3,Win32,59.3824228,,,,,,,,,,,,0.7649,1,,,,,,,,,,,,,,m,1,0.7649,,,,,,,,-0.710185168,-0.028703712,0,0,0,,0,115,115,37,1,TIGER,HB,old,m,./images/TIGERHB.png,,,,,,,,,,,,,,,,,,,,,,,,,,,,,,,,,,,
,,,,,,,,,,,,,,,,,5d0dd940312297000137d2a7,64,2022-02-12_17h54.10.811,lexical_decision_task_DD_L4,2021.2.3,Win32,59.3824228,,,,,,,,,,,,0.7813,1,,,,,,,,,,,,,,z,1,0.7813,,,,,,,,-0.710185168,-0.028703712,0,0,0,,0,116,116,148,1,JOMS,HB,old,z,./images/JOMSHB.png,,,,,,,,,,,,,,,,,,,,,,,,,,,,,,,,,,,
,,,,,,,,,,,,,,,,,5d0dd940312297000137d2a7,64,2022-02-12_17h54.10.811,lexical_decision_task_DD_L4,2021.2.3,Win32,59.3824228,,,,,,,,,,,,0.7156,1,,,,,,,,,,,,,,z,1,0.7156,,,,,,,,-0.710185168,-0.028703712,0,0,0,,0,117,117,160,1,VEETS,HB,old,z,./images/VEETSHB.png,,,,,,,,,,,,,,,,,,,,,,,,,,,,,,,,,,,
,,,,,,,,,,,,,,,,,5d0dd940312297000137d2a7,64,2022-02-12_17h54.10.811,lexical_decision_task_DD_L4,2021.2.3,Win32,59.3824228,,,,,,,,,,,,0.7165,1,,,,,,,,,,,,,,z,1,0.7165,,,,,,,,-0.710185168,-0.028703712,0,0,0,,0,118,118,96,1,KEAMS,C,old,z,./images/KEAMS.png,,,,,,,,,,,,,,,,,,,,,,,,,,,,,,,,,,,
,,,,,,,,,,,,,,,,,5d0dd940312297000137d2a7,64,2022-02-12_17h54.10.811,lexical_decision_task_DD_L4,2021.2.3,Win32,59.3824228,,,,,,,,,,,,0.6619,1,,,,,,,,,,,,,,z,1,0.6619,,,,,,,,-0.710185168,-0.028703712,0,0,0,,0,119,119,135,1,JOODY,C,old,z,./images/JOODY.png,,,,,,,,,,,,,,,,,,,,,,,,,,,,,,,,,,,
,,,,,,,,,,,,,,,,,5d0dd940312297000137d2a7,64,2022-02-12_17h54.10.811,lexical_decision_task_DD_L4,2021.2.3,Win32,59.3824228,,,,,,,,,,,,0.6621,1,,,,,,,,,,,,,,m,1,0.6621,,,,,,,,-0.710185168,-0.028703712,0,0,0,,0,120,120,42,1,CHAIN,C,old,m,./images/CHAIN.png,,,,,,,,,,,,,,,,,,,,,,,,,,,,,,,,,,,
,,,,,,,,,,,,,,,,,5d0dd940312297000137d2a7,64,2022-02-12_17h54.10.811,lexical_decision_task_DD_L4,2021.2.3,Win32,59.3824228,,,,,,,,,,,,0.619,1,,,,,,,,,,,,,,z,1,0.619,,,,,,,,-0.710185168,-0.028703712,0,0,0,,0,121,121,89,1,DRIEK,LB,old,z,./images/DRIEKLB.png,,,,,,,,,,,,,,,,,,,,,,,,,,,,,,,,,,,
,,,,,,,,,,,,,,,,,5d0dd940312297000137d2a7,64,2022-02-12_17h54.10.811,lexical_decision_task_DD_L4,2021.2.3,Win32,59.3824228,,,,,,,,,,,,1.0335,0,,,,,,,,,,,,,,m,0,1.0335,,,,,,,,-0.710185168,-0.028703712,0,0,0,,0,122,122,128,1,GRIFT,LB,old,z,./images/GRIFTLB.png,,,,,,,,,,,,,,,,,,,,,,,,,,,,,,,,,,,
,,,,,,,,,,,,,,,,,5d0dd940312297000137d2a7,64,2022-02-12_17h54.10.811,lexical_decision_task_DD_L4,2021.2.3,Win32,59.3824228,,,,,,,,,,,,1,1,,,,,,,,,,,,,,z,1,1,,,,,,,,-0.710185168,-0.028703712,0,0,0,,0,123,123,136,1,WERVE,HB,old,z,./images/WERVEHB.png,,,,,,,,,,,,,,,,,,,,,,,,,,,,,,,,,,,
,,,,,,,,,,,,,,,,,5d0dd940312297000137d2a7,64,2022-02-12_17h54.10.811,lexical_decision_task_DD_L4,2021.2.3,Win32,59.3824228,,,,,,,,,,,,0.9162,1,,,,,,,,,,,,,,z,1,0.9162,,,,,,,,-0.710185168,-0.028703712,0,0,0,,0,124,124,120,1,RINED,C,old,z,./images/RINED.png,,,,,,,,,,,,,,,,,,,,,,,,,,,,,,,,,,,
,,,,,,,,,,,,,,,,,5d0dd940312297000137d2a7,64,2022-02-12_17h54.10.811,lexical_decision_task_DD_L4,2021.2.3,Win32,59.3824228,,,,,,,,,,,,0.7433,1,,,,,,,,,,,,,,m,1,0.7433,,,,,,,,-0.710185168,-0.028703712,0,0,0,space,0,125,125,41,1,STREAM,LB,old,m,./images/STREAMLB.png,19.4991,,,,,,,,,,,,,,,,,,,,,,,,,,,,,,,,,,
,,,,,,,,,,,,,,,,,5d0dd940312297000137d2a7,64,2022-02-12_17h54.10.811,lexical_decision_task_DD_L4,2021.2.3,Win32,59.3824228,,,,,,,,,,,,0.7486,1,,,,,,,,,,,,,,m,1,0.7486,,,,,,,,-0.710185168,-0.028703712,0,0,0,,0,126,126,36,1,BOILER,C,old,m,./images/BOILER.png,,,,,,,,,,,,,,,,,,,,,,,,,,,,,,,,,,,
,,,,,,,,,,,,,,,,,5d0dd940312297000137d2a7,64,2022-02-12_17h54.10.811,lexical_decision_task_DD_L4,2021.2.3,Win32,59.3824228,,,,,,,,,,,,0.8876,1,,,,,,,,,,,,,,z,1,0.8876,,,,,,,,-0.710185168,-0.028703712,0,0,0,,0,127,127,87,1,TRING,C,old,z,./images/TRING.png,,,,,,,,,,,,,,,,,,,,,,,,,,,,,,,,,,,
,,,,,,,,,,,,,,,,,5d0dd940312297000137d2a7,64,2022-02-12_17h54.10.811,lexical_decision_task_DD_L4,2021.2.3,Win32,59.3824228,,,,,,,,,,,,1.3689,1,,,,,,,,,,,,,,z,1,1.3689,,,,,,,,-0.710185168,-0.028703712,0,0,0,,0,128,128,118,1,BAVEL,HB,old,z,./images/BAVELHB.png,,,,,,,,,,,,,,,,,,,,,,,,,,,,,,,,,,,
,,,,,,,,,,,,,,,,,5d0dd940312297000137d2a7,64,2022-02-12_17h54.10.811,lexical_decision_task_DD_L4,2021.2.3,Win32,59.3824228,,,,,,,,,,,,0.846,1,,,,,,,,,,,,,,m,1,0.846,,,,,,,,-0.710185168,-0.028703712,0,0,0,,0,129,129,47,1,LAGOON,LB,old,m,./images/LAGOONLB.png,,,,,,,,,,,,,,,,,,,,,,,,,,,,,,,,,,,
,,,,,,,,,,,,,,,,,5d0dd940312297000137d2a7,64,2022-02-12_17h54.10.811,lexical_decision_task_DD_L4,2021.2.3,Win32,59.3824228,,,,,,,,,,,,0.7952,1,,,,,,,,,,,,,,z,1,0.7952,,,,,,,,-0.710185168,-0.028703712,0,0,0,,0,130,130,103,1,FLORT,HB,old,z,./images/FLORTHB.png,,,,,,,,,,,,,,,,,,,,,,,,,,,,,,,,,,,
,,,,,,,,,,,,,,,,,5d0dd940312297000137d2a7,64,2022-02-12_17h54.10.811,lexical_decision_task_DD_L4,2021.2.3,Win32,59.3824228,,,,,,,,,,,,0.8297,1,,,,,,,,,,,,,,m,1,0.8297,,,,,,,,-0.710185168,-0.028703712,0,0,0,,0,131,131,27,1,BUTTER,C,old,m,./images/BUTTER.png,,,,,,,,,,,,,,,,,,,,,,,,,,,,,,,,,,,
,,,,,,,,,,,,,,,,,5d0dd940312297000137d2a7,64,2022-02-12_17h54.10.811,lexical_decision_task_DD_L4,2021.2.3,Win32,59.3824228,,,,,,,,,,,,0.6034,1,,,,,,,,,,,,,,z,1,0.6034,,,,,,,,-0.710185168,-0.028703712,0,0,0,,0,132,132,111,1,HOSSE,C,old,z,./images/HOSSE.png,,,,,,,,,,,,,,,,,,,,,,,,,,,,,,,,,,,
,,,,,,,,,,,,,,,,,5d0dd940312297000137d2a7,64,2022-02-12_17h54.10.811,lexical_decision_task_DD_L4,2021.2.3,Win32,59.3824228,,,,,,,,,,,,0.6477,1,,,,,,,,,,,,,,z,1,0.6477,,,,,,,,-0.710185168,-0.028703712,0,0,0,,0,133,133,125,1,MOOKY,LB,old,z,./images/MOOKYLB.png,,,,,,,,,,,,,,,,,,,,,,,,,,,,,,,,,,,
,,,,,,,,,,,,,,,,,5d0dd940312297000137d2a7,64,2022-02-12_17h54.10.811,lexical_decision_task_DD_L4,2021.2.3,Win32,59.3824228,,,,,,,,,,,,0.6514,1,,,,,,,,,,,,,,z,1,0.6514,,,,,,,,-0.710185168,-0.028703712,0,0,0,,0,134,134,137,1,JOOST,LB,old,z,./images/JOOSTLB.png,,,,,,,,,,,,,,,,,,,,,,,,,,,,,,,,,,,
,,,,,,,,,,,,,,,,,5d0dd940312297000137d2a7,64,2022-02-12_17h54.10.811,lexical_decision_task_DD_L4,2021.2.3,Win32,59.3824228,,,,,,,,,,,,0.7171,1,,,,,,,,,,,,,,m,1,0.7171,,,,,,,,-0.710185168,-0.028703712,0,0,0,,0,135,135,68,1,VALLEY,LB,old,m,./images/VALLEYLB.png,,,,,,,,,,,,,,,,,,,,,,,,,,,,,,,,,,,
,,,,,,,,,,,,,,,,,5d0dd940312297000137d2a7,64,2022-02-12_17h54.10.811,lexical_decision_task_DD_L4,2021.2.3,Win32,59.3824228,,,,,,,,,,,,1.2971,1,,,,,,,,,,,,,,z,1,1.2971,,,,,,,,-0.710185168,-0.028703712,0,0,0,,0,136,136,106,1,CLUMS,HB,old,z,./images/CLUMSHB.png,,,,,,,,,,,,,,,,,,,,,,,,,,,,,,,,,,,
,,,,,,,,,,,,,,,,,5d0dd940312297000137d2a7,64,2022-02-12_17h54.10.811,lexical_decision_task_DD_L4,2021.2.3,Win32,59.3824228,,,,,,,,,,,,0.767,1,,,,,,,,,,,,,,m,1,0.767,,,,,,,,-0.710185168,-0.028703712,0,0,0,,0,137,137,28,1,CASINO,HB,old,m,./images/CASINOHB.png,,,,,,,,,,,,,,,,,,,,,,,,,,,,,,,,,,,
,,,,,,,,,,,,,,,,,5d0dd940312297000137d2a7,64,2022-02-12_17h54.10.811,lexical_decision_task_DD_L4,2021.2.3,Win32,59.3824228,,,,,,,,,,,,0.8006,1,,,,,,,,,,,,,,m,1,0.8006,,,,,,,,-0.710185168,-0.028703712,0,0,0,,0,138,138,34,1,RAZOR,HB,old,m,./images/RAZORHB.png,,,,,,,,,,,,,,,,,,,,,,,,,,,,,,,,,,,
,,,,,,,,,,,,,,,,,5d0dd940312297000137d2a7,64,2022-02-12_17h54.10.811,lexical_decision_task_DD_L4,2021.2.3,Win32,59.3824228,,,,,,,,,,,,0.8228,1,,,,,,,,,,,,,,m,1,0.8228,,,,,,,,-0.710185168,-0.028703712,0,0,0,,0,139,139,25,1,CHALK,HB,old,m,./images/CHALKHB.png,,,,,,,,,,,,,,,,,,,,,,,,,,,,,,,,,,,
,,,,,,,,,,,,,,,,,5d0dd940312297000137d2a7,64,2022-02-12_17h54.10.811,lexical_decision_task_DD_L4,2021.2.3,Win32,59.3824228,,,,,,,,,,,,0.9299,1,,,,,,,,,,,,,,z,1,0.9299,,,,,,,,-0.710185168,-0.028703712,0,0,0,,0,140,140,108,1,GRUET,C,old,z,./images/GRUET.png,,,,,,,,,,,,,,,,,,,,,,,,,,,,,,,,,,,
,,,,,,,,,,,,,,,,,5d0dd940312297000137d2a7,64,2022-02-12_17h54.10.811,lexical_decision_task_DD_L4,2021.2.3,Win32,59.3824228,,,,,,,,,,,,0.8251,1,,,,,,,,,,,,,,z,1,0.8251,,,,,,,,-0.710185168,-0.028703712,0,0,0,,0,141,141,119,1,PAFER,LB,old,z,./images/PAFERLB.png,,,,,,,,,,,,,,,,,,,,,,,,,,,,,,,,,,,
,,,,,,,,,,,,,,,,,5d0dd940312297000137d2a7,64,2022-02-12_17h54.10.811,lexical_decision_task_DD_L4,2021.2.3,Win32,59.3824228,,,,,,,,,,,,0.803,1,,,,,,,,,,,,,,m,1,0.803,,,,,,,,-0.710185168,-0.028703712,0,0,0,,0,142,142,13,1,BUNNY,HB,old,m,./images/BUNNYHB.png,,,,,,,,,,,,,,,,,,,,,,,,,,,,,,,,,,,
,,,,,,,,,,,,,,,,,5d0dd940312297000137d2a7,64,2022-02-12_17h54.10.811,lexical_decision_task_DD_L4,2021.2.3,Win32,59.3824228,,,,,,,,,,,,0.8786,1,,,,,,,,,,,,,,m,1,0.8786,,,,,,,,-0.710185168,-0.028703712,0,0,0,,0,143,143,6,1,STAIN,C,old,m,./images/STAIN.png,,,,,,,,,,,,,,,,,,,,,,,,,,,,,,,,,,,
,,,,,,,,,,,,,,,,,5d0dd940312297000137d2a7,64,2022-02-12_17h54.10.811,lexical_decision_task_DD_L4,2021.2.3,Win32,59.3824228,,,,,,,,,,,,0.5771,1,,,,,,,,,,,,,,m,1,0.5771,,,,,,,,-0.710185168,-0.028703712,0,0,0,,0,144,144,45,1,MONKEY,C,old,m,./images/MONKEY.png,,,,,,,,,,,,,,,,,,,,,,,,,,,,,,,,,,,
,,,,,,,,,,,,,,,,,5d0dd940312297000137d2a7,64,2022-02-12_17h54.10.811,lexical_decision_task_DD_L4,2021.2.3,Win32,59.3824228,,,,,,,,,,,,0.9016,1,,,,,,,,,,,,,,z,1,0.9016,,,,,,,,-0.710185168,-0.028703712,0,0,0,,0,145,145,86,1,AIFED,LB,old,z,./images/AIFEDLB.png,,,,,,,,,,,,,,,,,,,,,,,,,,,,,,,,,,,
,,,,,,,,,,,,,,,,,5d0dd940312297000137d2a7,64,2022-02-12_17h54.10.811,lexical_decision_task_DD_L4,2021.2.3,Win32,59.3824228,,,,,,,,,,,,0.7008,1,,,,,,,,,,,,,,z,1,0.7008,,,,,,,,-0.710185168,-0.028703712,0,0,0,,0,146,146,158,1,EGECT,LB,old,z,./images/EGECTLB.png,,,,,,,,,,,,,,,,,,,,,,,,,,,,,,,,,,,
,,,,,,,,,,,,,,,,,5d0dd940312297000137d2a7,64,2022-02-12_17h54.10.811,lexical_decision_task_DD_L4,2021.2.3,Win32,59.3824228,,,,,,,,,,,,0.8513,1,,,,,,,,,,,,,,z,1,0.8513,,,,,,,,-0.710185168,-0.028703712,0,0,0,,0,147,147,164,1,SGREW,LB,old,z,./images/SGREWLB.png,,,,,,,,,,,,,,,,,,,,,,,,,,,,,,,,,,,
,,,,,,,,,,,,,,,,,5d0dd940312297000137d2a7,64,2022-02-12_17h54.10.811,lexical_decision_task_DD_L4,2021.2.3,Win32,59.3824228,,,,,,,,,,,,0.9671,1,,,,,,,,,,,,,,z,1,0.9671,,,,,,,,-0.710185168,-0.028703712,0,0,0,,0,148,148,85,1,CHULK,HB,old,z,./images/CHULKHB.png,,,,,,,,,,,,,,,,,,,,,,,,,,,,,,,,,,,
,,,,,,,,,,,,,,,,,5d0dd940312297000137d2a7,64,2022-02-12_17h54.10.811,lexical_decision_task_DD_L4,2021.2.3,Win32,59.3824228,,,,,,,,,,,,0.798,1,,,,,,,,,,,,,,m,1,0.798,,,,,,,,-0.710185168,-0.028703712,0,0,0,,0,149,149,8,1,CLIFF,LB,old,m,./images/CLIFFLB.png,,,,,,,,,,,,,,,,,,,,,,,,,,,,,,,,,,,
,,,,,,,,,,,,,,,,,5d0dd940312297000137d2a7,64,2022-02-12_17h54.10.811,lexical_decision_task_DD_L4,2021.2.3,Win32,59.3824228,,,,,,,,,,,,0.7523,1,,,,,,,,,,,,,,m,1,0.7523,,,,,,,,-0.710185168,-0.028703712,0,0,0,,0,150,150,53,1,POSTER,LB,old,m,./images/POSTERLB.png,,,,,,,,,,,,,,,,,,,,,,,,,,,,,,,,,,,
,,,,,,,,,,,,,,,,,5d0dd940312297000137d2a7,64,2022-02-12_17h54.10.811,lexical_decision_task_DD_L4,2021.2.3,Win32,59.3824228,,,,,,,,,,,,0.9703,1,,,,,,,,,,,,,,z,1,0.9703,,,,,,,,-0.710185168,-0.028703712,0,0,0,,0,151,151,122,1,BLOOT,LB,old,z,./images/BLOOTLB.png,,,,,,,,,,,,,,,,,,,,,,,,,,,,,,,,,,,
,,,,,,,,,,,,,,,,,5d0dd940312297000137d2a7,64,2022-02-12_17h54.10.811,lexical_decision_task_DD_L4,2021.2.3,Win32,59.3824228,,,,,,,,,,,,0.765,1,,,,,,,,,,,,,,z,1,0.765,,,,,,,,-0.710185168,-0.028703712,0,0,0,,0,152,152,98,1,BAMPS,LB,old,z,./images/BAMPSLB.png,,,,,,,,,,,,,,,,,,,,,,,,,,,,,,,,,,,
,,,,,,,,,,,,,,,,,5d0dd940312297000137d2a7,64,2022-02-12_17h54.10.811,lexical_decision_task_DD_L4,2021.2.3,Win32,59.3824228,,,,,,,,,,,,0.9654,1,,,,,,,,,,,,,,m,1,0.9654,,,,,,,,-0.710185168,-0.028703712,0,0,0,,0,153,153,72,1,FLASK,C,old,m,./images/FLASK.png,,,,,,,,,,,,,,,,,,,,,,,,,,,,,,,,,,,
,,,,,,,,,,,,,,,,,5d0dd940312297000137d2a7,64,2022-02-12_17h54.10.811,lexical_decision_task_DD_L4,2021.2.3,Win32,59.3824228,,,,,,,,,,,,0.6686,1,,,,,,,,,,,,,,m,1,0.6686,,,,,,,,-0.710185168,-0.028703712,0,0,0,,0,154,154,15,1,COLLAR,C,old,m,./images/COLLAR.png,,,,,,,,,,,,,,,,,,,,,,,,,,,,,,,,,,,
,,,,,,,,,,,,,,,,,5d0dd940312297000137d2a7,64,2022-02-12_17h54.10.811,lexical_decision_task_DD_L4,2021.2.3,Win32,59.3824228,,,,,,,,,,,,0.6202,1,,,,,,,,,,,,,,m,1,0.6202,,,,,,,,-0.710185168,-0.028703712,0,0,0,,0,155,155,80,1,PLANET,LB,old,m,./images/PLANETLB.png,,,,,,,,,,,,,,,,,,,,,,,,,,,,,,,,,,,
,,,,,,,,,,,,,,,,,5d0dd940312297000137d2a7,64,2022-02-12_17h54.10.811,lexical_decision_task_DD_L4,2021.2.3,Win32,59.3824228,,,,,,,,,,,,0.7201,1,,,,,,,,,,,,,,m,1,0.7201,,,,,,,,-0.710185168,-0.028703712,0,0,0,,0,156,156,19,1,DONKEY,HB,old,m,./images/DONKEYHB.png,,,,,,,,,,,,,,,,,,,,,,,,,,,,,,,,,,,
,,,,,,,,,,,,,,,,,5d0dd940312297000137d2a7,64,2022-02-12_17h54.10.811,lexical_decision_task_DD_L4,2021.2.3,Win32,59.3824228,,,,,,,,,,,,0.7801,1,,,,,,,,,,,,,,z,1,0.7801,,,,,,,,-0.710185168,-0.028703712,0,0,0,,0,157,157,154,1,THINT,HB,old,z,./images/THINTHB.png,,,,,,,,,,,,,,,,,,,,,,,,,,,,,,,,,,,
,,,,,,,,,,,,,,,,,5d0dd940312297000137d2a7,64,2022-02-12_17h54.10.811,lexical_decision_task_DD_L4,2021.2.3,Win32,59.3824228,,,,,,,,,,,,0.8342,1,,,,,,,,,,,,,,m,1,0.8342,,,,,,,,-0.710185168,-0.028703712,0,0,0,,0,158,158,38,1,ENGINE,LB,old,m,./images/ENGINELB.png,,,,,,,,,,,,,,,,,,,,,,,,,,,,,,,,,,,
,,,,,,,,,,,,,,,,,5d0dd940312297000137d2a7,64,2022-02-12_17h54.10.811,lexical_decision_task_DD_L4,2021.2.3,Win32,59.3824228,,,,,,,,,,,,0.7587,1,,,,,,,,,,,,,,m,1,0.7587,,,,,,,,-0.710185168,-0.028703712,0,0,0,,0,159,159,81,1,DRILL,C,old,m,./images/DRILL.png,,,,,,,,,,,,,,,,,,,,,,,,,,,,,,,,,,,
,,,,,,,,,,,,,,,,,5d0dd940312297000137d2a7,64,2022-02-12_17h54.10.811,lexical_decision_task_DD_L4,2021.2.3,Win32,59.3824228,,,,,,,,,,,,0.7025,1,,,,,,,,,,,,,,m,1,0.7025,,,,,,,,-0.710185168,-0.028703712,0,0,0,,0,160,160,78,1,BROOM,C,old,m,./images/BROOM.png,,,,,,,,,,,,,,,,,,,,,,,,,,,,,,,,,,,
,,,,,,,,,,,,,,,,,5d0dd940312297000137d2a7,64,2022-02-12_17h54.10.811,lexical_decision_task_DD_L4,2021.2.3,Win32,59.3824228,,,,,,,,,,,,0.6385,1,,,,,,,,,,,,,,m,1,0.6385,,,,,,,,-0.710185168,-0.028703712,0,0,0,,0,161,161,83,1,WHISKY,LB,old,m,./images/WHISKYLB.png,,,,,,,,,,,,,,,,,,,,,,,,,,,,,,,,,,,
,,,,,,,,,,,,,,,,,5d0dd940312297000137d2a7,64,2022-02-12_17h54.10.811,lexical_decision_task_DD_L4,2021.2.3,Win32,59.3824228,,,,,,,,,,,,0.8976,1,,,,,,,,,,,,,,m,1,0.8976,,,,,,,,-0.710185168,-0.028703712,0,0,0,,0,162,162,12,1,BLOKE,C,old,m,./images/BLOKE.png,,,,,,,,,,,,,,,,,,,,,,,,,,,,,,,,,,,
,,,,,,,,,,,,,,,,,5d0dd940312297000137d2a7,64,2022-02-12_17h54.10.811,lexical_decision_task_DD_L4,2021.2.3,Win32,59.3824228,,,,,,,,,,,,0.8665,1,,,,,,,,,,,,,,z,1,0.8665,,,,,,,,-0.710185168,-0.028703712,0,0,0,,0,163,163,155,1,CANGY,LB,old,z,./images/CANGYLB.png,,,,,,,,,,,,,,,,,,,,,,,,,,,,,,,,,,,
,,,,,,,,,,,,,,,,,5d0dd940312297000137d2a7,64,2022-02-12_17h54.10.811,lexical_decision_task_DD_L4,2021.2.3,Win32,59.3824228,,,,,,,,,,,,1.6886,1,,,,,,,,,,,,,,z,1,1.6886,,,,,,,,-0.710185168,-0.028703712,0,0,0,,0,164,164,139,1,BLEAR,HB,old,z,./images/BLEARHB.png,,,,,,,,,,,,,,,,,,,,,,,,,,,,,,,,,,,
,,,,,,,,,,,,,,,,,5d0dd940312297000137d2a7,64,2022-02-12_17h54.10.811,lexical_decision_task_DD_L4,2021.2.3,Win32,59.3824228,,,,,,,,,,,,1.2295,1,,,,,,,,,,,,,,z,1,1.2295,,,,,,,,-0.710185168,-0.028703712,0,0,0,,0,165,165,144,1,NAIRY,C,old,z,./images/NAIRY.png,,,,,,,,,,,,,,,,,,,,,,,,,,,,,,,,,,,
,,,,,,,,,,,,,,,,,5d0dd940312297000137d2a7,64,2022-02-12_17h54.10.811,lexical_decision_task_DD_L4,2021.2.3,Win32,59.3824228,,,,,,,,,,,,0.7132,1,,,,,,,,,,,,,,m,1,0.7132,,,,,,,,-0.710185168,-0.028703712,0,0,0,,0,166,166,44,1,BASKET,LB,old,m,./images/BASKETLB.png,,,,,,,,,,,,,,,,,,,,,,,,,,,,,,,,,,,
,,,,,,,,,,,,,,,,,5d0dd940312297000137d2a7,64,2022-02-12_17h54.10.811,lexical_decision_task_DD_L4,2021.2.3,Win32,59.3824228,,,,,,,,,,,,0.8289,1,,,,,,,,,,,,,,z,1,0.8289,,,,,,,,-0.710185168,-0.028703712,0,0,0,,0,167,167,126,1,GUELS,C,old,z,./images/GUELS.png,,,,,,,,,,,,,,,,,,,,,,,,,,,,,,,,,,,
,,,,,,,,,,,,,,,,,5d0dd940312297000137d2a7,64,2022-02-12_17h54.10.811,lexical_decision_task_DD_L4,2021.2.3,Win32,59.3824228,,,,,,,,,,,,,,,,,,,,,,,,,,,,,,,,,,,,,,,,,,,,,,,,,How likely will it be that you will recognize the words presented clearly on a scale of 0 (not likely) to 100 (most likely)?,,,,,0.01203705,-0.418518589,1,0,0,jol_adv,1,12.035,0,0,0,0,1,,,,,,,,,,,,,,,,,,,,,
,,,,,,,,,,,,,,,,,5d0dd940312297000137d2a7,64,2022-02-12_17h54.10.811,lexical_decision_task_DD_L4,2021.2.3,Win32,59.3824228,,,,,,,,,,,,,,,,,,,,,,,,,,,,,,,,,,,,,,,,,,,,,,,,,How likely will it be that you will recognize the words presented very blurred on a scale of 0 (not likely) to 100 (most likely)?,,,,,,,,,,,1,6.0615,0,1,1,2,1,,,,,,,,,,,,,,,,,,,,,
,,,,,,,,,,,,,,,,,5d0dd940312297000137d2a7,64,2022-02-12_17h54.10.811,lexical_decision_task_DD_L4,2021.2.3,Win32,59.3824228,,,,,,,,,,,,,,,,,,,,,,,,,,,,,,,,,,,,,,,,,,,,,,,,,How likely will it be that you will recognize the words presented slighly blurred on a scale of 0 (not likely) to 100 (most likely)?,,,,,,,,,,,1,4.0799,0,2,2,1,1,,,,,,,,,,,,,,,,,,,,,
space,17.9387,-0.493518513,-0.198148159,0,0,0,,,,,,1,test,"In the next phase you will be presented with the words from the the first phase. Your job is to decide whether you remember seeing the word or not. If you remember seeing the word press ""old"" or type ""m"". If you do not remember seeing the word press ""new"" or type ""z"". Please press the space bar or click on continue to begin. ",,,5d0dd940312297000137d2a7,64,2022-02-12_17h54.10.811,lexical_decision_task_DD_L4,2021.2.3,Win32,59.3824228,,,,,,,,,,,,,,,,,,,,,,,,,,,,,,,,,,,,,,,,,,,,,,,,,,,,,,,,,,,,,,,,,,,0,0,0,0,1,,,,,,,,,,,,,,,,
space,6.7348,-0.493518513,-0.198148159,0,0,0,,,,,,1,test,"In the next phase you will be presented with the words from the the first phase. Your job is to decide whether you remember seeing the word or not. If you remember seeing the word press ""old"" or type ""m"". If you do not remember seeing the word press ""new"" or type ""z"". Please press the space bar or click on continue to begin. ",,,5d0dd940312297000137d2a7,64,2022-02-12_17h54.10.811,lexical_decision_task_DD_L4,2021.2.3,Win32,59.3824228,,,,,,,,,,,,,,,,,,,,,,,,,,,,,,,,,,,,,,,,,,,,,,,,,,,,,,,,,,,,,,,,,,,1,0,1,0,1,,,,,,,,,,,,,,,,
,,0.041666681,-0.425000014,1,0,0,,,,,,1,test,"In the next phase you will be presented with the words from the the first phase. Your job is to decide whether you remember seeing the word or not. If you remember seeing the word press ""old"" or type ""m"". If you do not remember seeing the word press ""new"" or type ""z"". Please press the space bar or click on continue to begin. ",,,5d0dd940312297000137d2a7,64,2022-02-12_17h54.10.811,lexical_decision_task_DD_L4,2021.2.3,Win32,59.3824228,instr_done_button,,,,,,,,,,,,,,,,,,,,,,,,,,,,,,,,,,,,,,,,,,,,,,,,,,,,,,,,,,,,,,,,,,2,0,2,0,1,,,,,,,,,,,,,,,,
,,0.035185199,-0.408333347,1,0,0,,,,,,1,test,"In the next phase you will be presented with the words from the the first phase. Your job is to decide whether you remember seeing the word or not. If you remember seeing the word press ""old"" or type ""m"". If you do not remember seeing the word press ""new"" or type ""z"". Please press the space bar or click on continue to begin. ",,,5d0dd940312297000137d2a7,64,2022-02-12_17h54.10.811,lexical_decision_task_DD_L4,2021.2.3,Win32,59.3824228,instr_done_button,,,,,,,,,,,,,,,,,,,,,,,,,,,,,,,,,,,,,,,,,,,,,,,,,,,,,,,,,,,,,,,,,,3,0,3,0,1,,,,,,,,,,,,,,,,
,,-0.052777765,-0.386111181,1,0,0,,,,,,1,test,"In the next phase you will be presented with the words from the the first phase. Your job is to decide whether you remember seeing the word or not. If you remember seeing the word press ""old"" or type ""m"". If you do not remember seeing the word press ""new"" or type ""z"". Please press the space bar or click on continue to begin. ",,,5d0dd940312297000137d2a7,64,2022-02-12_17h54.10.811,lexical_decision_task_DD_L4,2021.2.3,Win32,59.3824228,instr_done_button,,,,,,,,,,,,,,,,,,,,,,,,,,,,,,,,,,,,,,,,,,,,,,,,,,,,,,,,,,,,,,,,,,4,0,4,0,1,,,,,,,,,,,,,,,,
,,,,,,,,,,,,,,,,,5d0dd940312297000137d2a7,64,2022-02-12_17h54.10.811,lexical_decision_task_DD_L4,2021.2.3,Win32,59.3824228,,,,,,,,,,,,1.9661,1,,,,,,,,,,,,,,,,,,,,,,,,-0.120370359,-0.291666678,0,0,0,,,,,,,URINE,HB,z,y,./images/URINEHB.png,,,,,,,,,,,,,,,,,,,,z,1,1.9661,,,,,,,,0,0,0,154,1,
,,,,,,,,,,,,,,,,,5d0dd940312297000137d2a7,64,2022-02-12_17h54.10.811,lexical_decision_task_DD_L4,2021.2.3,Win32,59.3824228,,,,,,,,,,,,2.0254,1,,,,,,,,,,,,,,,,,,,,,,,,-0.120370359,-0.291666678,0,0,0,,,,,,,BABOON,HB,z,y,./images/BABOONHB.png,,,,,,,,,,,,,,,,,,,,z,1,2.0254,,,,,,,,0,1,1,142,1,
,,,,,,,,,,,,,,,,,5d0dd940312297000137d2a7,64,2022-02-12_17h54.10.811,lexical_decision_task_DD_L4,2021.2.3,Win32,59.3824228,,,,,,,,,,,,1.1337,1,,,,,,,,,,,,,,,,,,,,,,,,-0.120370359,-0.291666678,0,0,0,,,,,,,STATUE,C,m,y,./images/STATUE.png,,,,,,,,,,,,,,,,,,,,m,1,1.1337,,,,,,,,0,2,2,66,1,
,,,,,,,,,,,,,,,,,5d0dd940312297000137d2a7,64,2022-02-12_17h54.10.811,lexical_decision_task_DD_L4,2021.2.3,Win32,59.3824228,,,,,,,,,,,,1.2517,1,,,,,,,,,,,,,,,,,,,,,,,,-0.120370359,-0.291666678,0,0,0,,,,,,,BIRTH,HB,z,y,./images/BIRTHHB.png,,,,,,,,,,,,,,,,,,,,z,1,1.2517,,,,,,,,0,3,3,121,1,
,,,,,,,,,,,,,,,,,5d0dd940312297000137d2a7,64,2022-02-12_17h54.10.811,lexical_decision_task_DD_L4,2021.2.3,Win32,59.3824228,,,,,,,,,,,,1.5544,1,,,,,,,,,,,,,,,,,,,,,,,,-0.120370359,-0.291666678,0,0,0,,,,,,,GRANNY,LB,m,y,./images/GRANNYLB.png,,,,,,,,,,,,,,,,,,,,m,1,1.5544,,,,,,,,0,4,4,20,1,
,,,,,,,,,,,,,,,,,5d0dd940312297000137d2a7,64,2022-02-12_17h54.10.811,lexical_decision_task_DD_L4,2021.2.3,Win32,59.3824228,,,,,,,,,,,,0.8834,1,,,,,,,,,,,,,,,,,,,,,,,,-0.120370359,-0.291666678,0,0,0,,,,,,,CLOUD,LB,m,y,./images/CLOUDLB.png,,,,,,,,,,,,,,,,,,,,m,1,0.8834,,,,,,,,0,5,5,26,1,
,,,,,,,,,,,,,,,,,5d0dd940312297000137d2a7,64,2022-02-12_17h54.10.811,lexical_decision_task_DD_L4,2021.2.3,Win32,59.3824228,,,,,,,,,,,,0.9189,1,,,,,,,,,,,,,,,,,,,,,,,,-0.120370359,-0.291666678,0,0,0,,,,,,,MEDAL,LB,m,y,./images/MEDALLB.png,,,,,,,,,,,,,,,,,,,,m,1,0.9189,,,,,,,,0,6,6,11,1,
,,,,,,,,,,,,,,,,,5d0dd940312297000137d2a7,64,2022-02-12_17h54.10.811,lexical_decision_task_DD_L4,2021.2.3,Win32,59.3824228,,,,,,,,,,,,0.7745,1,,,,,,,,,,,,,,,,,,,,,,,,-0.120370359,-0.291666678,0,0,0,,,,,,,TRIPOD,C,z,y,./images/TRIPOD.png,,,,,,,,,,,,,,,,,,,,z,1,0.7745,,,,,,,,0,7,7,138,1,
,,,,,,,,,,,,,,,,,5d0dd940312297000137d2a7,64,2022-02-12_17h54.10.811,lexical_decision_task_DD_L4,2021.2.3,Win32,59.3824228,,,,,,,,,,,,0.9208,1,,,,,,,,,,,,,,,,,,,,,,,,-0.120370359,-0.291666678,0,0,0,,,,,,,SNACK,HB,z,y,./images/SNACKHB.png,,,,,,,,,,,,,,,,,,,,z,1,0.9208,,,,,,,,0,8,8,157,1,
,,,,,,,,,,,,,,,,,5d0dd940312297000137d2a7,64,2022-02-12_17h54.10.811,lexical_decision_task_DD_L4,2021.2.3,Win32,59.3824228,,,,,,,,,,,,0.9354,1,,,,,,,,,,,,,,,,,,,,,,,,-0.120370359,-0.291666678,0,0,0,,,,,,,DONKEY,HB,m,y,./images/DONKEYHB.png,,,,,,,,,,,,,,,,,,,,m,1,0.9354,,,,,,,,0,9,9,19,1,
,,,,,,,,,,,,,,,,,5d0dd940312297000137d2a7,64,2022-02-12_17h54.10.811,lexical_decision_task_DD_L4,2021.2.3,Win32,59.3824228,,,,,,,,,,,,0.7674,1,,,,,,,,,,,,,,,,,,,,,,,,-0.120370359,-0.291666678,0,0,0,,,,,,,FENCE,LB,m,y,./images/FENCELB.png,,,,,,,,,,,,,,,,,,,,m,1,0.7674,,,,,,,,0,10,10,14,1,
,,,,,,,,,,,,,,,,,5d0dd940312297000137d2a7,64,2022-02-12_17h54.10.811,lexical_decision_task_DD_L4,2021.2.3,Win32,59.3824228,,,,,,,,,,,,0.9521,1,,,,,,,,,,,,,,,,,,,,,,,,-0.120370359,-0.291666678,0,0,0,,,,,,,FOLDER,C,z,y,./images/FOLDER.png,,,,,,,,,,,,,,,,,,,,z,1,0.9521,,,,,,,,0,11,11,126,1,
,,,,,,,,,,,,,,,,,5d0dd940312297000137d2a7,64,2022-02-12_17h54.10.811,lexical_decision_task_DD_L4,2021.2.3,Win32,59.3824228,,,,,,,,,,,,1.6534,1,,,,,,,,,,,,,,,,,,,,,,,,-0.120370359,-0.291666678,0,0,0,,,,,,,PENCE,HB,z,y,./images/PENCEHB.png,,,,,,,,,,,,,,,,,,,,z,1,1.6534,,,,,,,,0,12,12,100,1,
,,,,,,,,,,,,,,,,,5d0dd940312297000137d2a7,64,2022-02-12_17h54.10.811,lexical_decision_task_DD_L4,2021.2.3,Win32,59.3824228,,,,,,,,,,,,1.5535,0,,,,,,,,,,,,,,,,,,,,,,,,-0.120370359,-0.291666678,0,0,0,,,,,,,STOVE,LB,m,y,./images/STOVELB.png,,,,,,,,,,,,,,,,,,,,z,0,1.5535,,,,,,,,0,13,13,2,1,
,,,,,,,,,,,,,,,,,5d0dd940312297000137d2a7,64,2022-02-12_17h54.10.811,lexical_decision_task_DD_L4,2021.2.3,Win32,59.3824228,,,,,,,,,,,,0.7321,1,,,,,,,,,,,,,,,,,,,,,,,,-0.120370359,-0.291666678,0,0,0,,,,,,,TORCH,LB,z,y,./images/TORCHLB.png,,,,,,,,,,,,,,,,,,,,z,1,0.7321,,,,,,,,0,14,14,152,1,
,,,,,,,,,,,,,,,,,5d0dd940312297000137d2a7,64,2022-02-12_17h54.10.811,lexical_decision_task_DD_L4,2021.2.3,Win32,59.3824228,,,,,,,,,,,,1.013,1,,,,,,,,,,,,,,,,,,,,,,,,-0.120370359,-0.291666678,0,0,0,,,,,,,STORM,C,z,y,./images/STORM.png,,,,,,,,,,,,,,,,,,,,z,1,1.013,,,,,,,,0,15,15,114,1,
,,,,,,,,,,,,,,,,,5d0dd940312297000137d2a7,64,2022-02-12_17h54.10.811,lexical_decision_task_DD_L4,2021.2.3,Win32,59.3824228,,,,,,,,,,,,0.7641,1,,,,,,,,,,,,,,,,,,,,,,,,-0.120370359,-0.291666678,0,0,0,,,,,,,ALLEY,HB,m,y,./images/ALLEYHB.png,,,,,,,,,,,,,,,,,,,,m,1,0.7641,,,,,,,,0,16,16,55,1,
,,,,,,,,,,,,,,,,,5d0dd940312297000137d2a7,64,2022-02-12_17h54.10.811,lexical_decision_task_DD_L4,2021.2.3,Win32,59.3824228,,,,,,,,,,,,0.6954,1,,,,,,,,,,,,,,,,,,,,,,,,-0.120370359,-0.291666678,0,0,0,,,,,,,BROOM,C,m,y,./images/BROOM.png,,,,,,,,,,,,,,,,,,,,m,1,0.6954,,,,,,,,0,17,17,78,1,
,,,,,,,,,,,,,,,,,5d0dd940312297000137d2a7,64,2022-02-12_17h54.10.811,lexical_decision_task_DD_L4,2021.2.3,Win32,59.3824228,,,,,,,,,,,,0.8583,1,,,,,,,,,,,,,,,,,,,,,,,,-0.120370359,-0.291666678,0,0,0,,,,,,,ARROW,C,m,y,./images/ARROW.png,,,,,,,,,,,,,,,,,,,,m,1,0.8583,,,,,,,,0,18,18,69,1,
,,,,,,,,,,,,,,,,,5d0dd940312297000137d2a7,64,2022-02-12_17h54.10.811,lexical_decision_task_DD_L4,2021.2.3,Win32,59.3824228,,,,,,,,,,,,0.7603,1,,,,,,,,,,,,,,,,,,,,,,,,-0.120370359,-0.291666678,0,0,0,,,,,,,JELLY,HB,z,y,./images/JELLYHB.png,,,,,,,,,,,,,,,,,,,,z,1,0.7603,,,,,,,,0,19,19,148,1,
,,,,,,,,,,,,,,,,,5d0dd940312297000137d2a7,64,2022-02-12_17h54.10.811,lexical_decision_task_DD_L4,2021.2.3,Win32,59.3824228,,,,,,,,,,,,0.8803,1,,,,,,,,,,,,,,,,,,,,,,,,-0.120370359,-0.291666678,0,0,0,,,,,,,PICKLE,LB,z,y,./images/PICKLELB.png,,,,,,,,,,,,,,,,,,,,z,1,0.8803,,,,,,,,0,20,20,98,1,
,,,,,,,,,,,,,,,,,5d0dd940312297000137d2a7,64,2022-02-12_17h54.10.811,lexical_decision_task_DD_L4,2021.2.3,Win32,59.3824228,,,,,,,,,,,,1.2332,0,,,,,,,,,,,,,,,,,,,,,,,,-0.120370359,-0.291666678,0,0,0,,,,,,,POSTER,LB,m,y,./images/POSTERLB.png,,,,,,,,,,,,,,,,,,,,z,0,1.2332,,,,,,,,0,21,21,53,1,
,,,,,,,,,,,,,,,,,5d0dd940312297000137d2a7,64,2022-02-12_17h54.10.811,lexical_decision_task_DD_L4,2021.2.3,Win32,59.3824228,,,,,,,,,,,,0.8699,0,,,,,,,,,,,,,,,,,,,,,,,,-0.120370359,-0.291666678,0,0,0,,,,,,,CLOTH,LB,m,y,./images/CLOTHLB.png,,,,,,,,,,,,,,,,,,,,z,0,0.8699,,,,,,,,0,22,22,23,1,
,,,,,,,,,,,,,,,,,5d0dd940312297000137d2a7,64,2022-02-12_17h54.10.811,lexical_decision_task_DD_L4,2021.2.3,Win32,59.3824228,,,,,,,,,,,,0.9327,1,,,,,,,,,,,,,,,,,,,,,,,,-0.120370359,-0.291666678,0,0,0,,,,,,,WALRUS,LB,z,y,./images/WALRUSLB.png,,,,,,,,,,,,,,,,,,,,z,1,0.9327,,,,,,,,0,23,23,107,1,
,,,,,,,,,,,,,,,,,5d0dd940312297000137d2a7,64,2022-02-12_17h54.10.811,lexical_decision_task_DD_L4,2021.2.3,Win32,59.3824228,,,,,,,,,,,,0.7248,1,,,,,,,,,,,,,,,,,,,,,,,,-0.120370359,-0.291666678,0,0,0,,,,,,,BAKER,C,m,y,./images/BAKER.png,,,,,,,,,,,,,,,,,,,,m,1,0.7248,,,,,,,,0,24,24,63,1,
,,,,,,,,,,,,,,,,,5d0dd940312297000137d2a7,64,2022-02-12_17h54.10.811,lexical_decision_task_DD_L4,2021.2.3,Win32,59.3824228,,,,,,,,,,,,1.3418,0,,,,,,,,,,,,,,,,,,,,,,,,-0.120370359,-0.291666678,0,0,0,,,,,,,FINGER,C,z,y,./images/FINGER.png,,,,,,,,,,,,,,,,,,,,m,0,1.3418,,,,,,,,0,25,25,87,1,
,,,,,,,,,,,,,,,,,5d0dd940312297000137d2a7,64,2022-02-12_17h54.10.811,lexical_decision_task_DD_L4,2021.2.3,Win32,59.3824228,,,,,,,,,,,,0.8756,1,,,,,,,,,,,,,,,,,,,,,,,,-0.120370359,-0.291666678,0,0,0,,,,,,,RULER,HB,m,y,./images/RULERHB.png,,,,,,,,,,,,,,,,,,,,m,1,0.8756,,,,,,,,0,26,26,79,1,
,,,,,,,,,,,,,,,,,5d0dd940312297000137d2a7,64,2022-02-12_17h54.10.811,lexical_decision_task_DD_L4,2021.2.3,Win32,59.3824228,,,,,,,,,,,,0.7109,1,,,,,,,,,,,,,,,,,,,,,,,,-0.120370359,-0.291666678,0,0,0,,,,,,,LAGOON,LB,m,y,./images/LAGOONLB.png,,,,,,,,,,,,,,,,,,,,m,1,0.7109,,,,,,,,0,27,27,47,1,
,,,,,,,,,,,,,,,,,5d0dd940312297000137d2a7,64,2022-02-12_17h54.10.811,lexical_decision_task_DD_L4,2021.2.3,Win32,59.3824228,,,,,,,,,,,,0.7804,1,,,,,,,,,,,,,,,,,,,,,,,,-0.120370359,-0.291666678,0,0,0,,,,,,,MIDGET,HB,m,y,./images/MIDGETHB.png,,,,,,,,,,,,,,,,,,,,m,1,0.7804,,,,,,,,0,28,28,76,1,
,,,,,,,,,,,,,,,,,5d0dd940312297000137d2a7,64,2022-02-12_17h54.10.811,lexical_decision_task_DD_L4,2021.2.3,Win32,59.3824228,,,,,,,,,,,,1.082,1,,,,,,,,,,,,,,,,,,,,,,,,-0.120370359,-0.291666678,0,0,0,,,,,,,DESERT,HB,m,y,./images/DESERTHB.png,,,,,,,,,,,,,,,,,,,,m,1,1.082,,,,,,,,0,29,29,52,1,
,,,,,,,,,,,,,,,,,5d0dd940312297000137d2a7,64,2022-02-12_17h54.10.811,lexical_decision_task_DD_L4,2021.2.3,Win32,59.3824228,,,,,,,,,,,,0.9608,1,,,,,,,,,,,,,,,,,,,,,,,,-0.120370359,-0.291666678,0,0,0,,,,,,,WALNUT,C,m,y,./images/WALNUT.png,,,,,,,,,,,,,,,,,,,,m,1,0.9608,,,,,,,,0,30,30,0,1,
,,,,,,,,,,,,,,,,,5d0dd940312297000137d2a7,64,2022-02-12_17h54.10.811,lexical_decision_task_DD_L4,2021.2.3,Win32,59.3824228,,,,,,,,,,,,0.8213,1,,,,,,,,,,,,,,,,,,,,,,,,-0.120370359,-0.291666678,0,0,0,,,,,,,SAILOR,HB,z,y,./images/SAILORHB.png,,,,,,,,,,,,,,,,,,,,z,1,0.8213,,,,,,,,0,31,31,151,1,
,,,,,,,,,,,,,,,,,5d0dd940312297000137d2a7,64,2022-02-12_17h54.10.811,lexical_decision_task_DD_L4,2021.2.3,Win32,59.3824228,,,,,,,,,,,,1.3817,1,,,,,,,,,,,,,,,,,,,,,,,,-0.120370359,-0.291666678,0,0,0,,,,,,,CRATER,C,m,y,./images/CRATER.png,,,,,,,,,,,,,,,,,,,,m,1,1.3817,,,,,,,,0,32,32,3,1,
,,,,,,,,,,,,,,,,,5d0dd940312297000137d2a7,64,2022-02-12_17h54.10.811,lexical_decision_task_DD_L4,2021.2.3,Win32,59.3824228,,,,,,,,,,,,1.3599,1,,,,,,,,,,,,,,,,,,,,,,,,-0.120370359,-0.291666678,0,0,0,,,,,,,SUNSET,HB,z,y,./images/SUNSETHB.png,,,,,,,,,,,,,,,,,,,,z,1,1.3599,,,,,,,,0,33,33,166,1,
,,,,,,,,,,,,,,,,,5d0dd940312297000137d2a7,64,2022-02-12_17h54.10.811,lexical_decision_task_DD_L4,2021.2.3,Win32,59.3824228,,,,,,,,,,,,1.1177,1,,,,,,,,,,,,,,,,,,,,,,,,-0.120370359,-0.291666678,0,0,0,,,,,,,CANDY,C,m,y,./images/CANDY.png,,,,,,,,,,,,,,,,,,,,m,1,1.1177,,,,,,,,0,34,34,39,1,
,,,,,,,,,,,,,,,,,5d0dd940312297000137d2a7,64,2022-02-12_17h54.10.811,lexical_decision_task_DD_L4,2021.2.3,Win32,59.3824228,,,,,,,,,,,,0.8641,1,,,,,,,,,,,,,,,,,,,,,,,,-0.120370359,-0.291666678,0,0,0,,,,,,,PURSE,LB,z,y,./images/PURSELB.png,,,,,,,,,,,,,,,,,,,,z,1,0.8641,,,,,,,,0,35,35,146,1,
,,,,,,,,,,,,,,,,,5d0dd940312297000137d2a7,64,2022-02-12_17h54.10.811,lexical_decision_task_DD_L4,2021.2.3,Win32,59.3824228,,,,,,,,,,,,1.1725,1,,,,,,,,,,,,,,,,,,,,,,,,-0.120370359,-0.291666678,0,0,0,,,,,,,SHELF,C,z,y,./images/SHELF.png,,,,,,,,,,,,,,,,,,,,z,1,1.1725,,,,,,,,0,36,36,123,1,
,,,,,,,,,,,,,,,,,5d0dd940312297000137d2a7,64,2022-02-12_17h54.10.811,lexical_decision_task_DD_L4,2021.2.3,Win32,59.3824228,,,,,,,,,,,,0.8522,1,,,,,,,,,,,,,,,,,,,,,,,,-0.120370359,-0.291666678,0,0,0,,,,,,,DRUMS,HB,z,y,./images/DRUMSHB.png,,,,,,,,,,,,,,,,,,,,z,1,0.8522,,,,,,,,0,37,37,133,1,
,,,,,,,,,,,,,,,,,5d0dd940312297000137d2a7,64,2022-02-12_17h54.10.811,lexical_decision_task_DD_L4,2021.2.3,Win32,59.3824228,,,,,,,,,,,,0.8841,1,,,,,,,,,,,,,,,,,,,,,,,,-0.120370359,-0.291666678,0,0,0,,,,,,,WHISKY,LB,m,y,./images/WHISKYLB.png,,,,,,,,,,,,,,,,,,,,m,1,0.8841,,,,,,,,0,38,38,83,1,
,,,,,,,,,,,,,,,,,5d0dd940312297000137d2a7,64,2022-02-12_17h54.10.811,lexical_decision_task_DD_L4,2021.2.3,Win32,59.3824228,,,,,,,,,,,,0.85,0,,,,,,,,,,,,,,,,,,,,,,,,-0.120370359,-0.291666678,0,0,0,,,,,,,VALLEY,LB,m,y,./images/VALLEYLB.png,,,,,,,,,,,,,,,,,,,,z,0,0.85,,,,,,,,0,39,39,68,1,
,,,,,,,,,,,,,,,,,5d0dd940312297000137d2a7,64,2022-02-12_17h54.10.811,lexical_decision_task_DD_L4,2021.2.3,Win32,59.3824228,,,,,,,,,,,,1.0654,1,,,,,,,,,,,,,,,,,,,,,,,,-0.120370359,-0.291666678,0,0,0,,,,,,,MOTOR,HB,z,y,./images/MOTORHB.png,,,,,,,,,,,,,,,,,,,,z,1,1.0654,,,,,,,,0,40,40,97,1,
,,,,,,,,,,,,,,,,,5d0dd940312297000137d2a7,64,2022-02-12_17h54.10.811,lexical_decision_task_DD_L4,2021.2.3,Win32,59.3824228,,,,,,,,,,,,0.6818,1,,,,,,,,,,,,,,,,,,,,,,,,-0.120370359,-0.291666678,0,0,0,space,,,,,,JUMPER,LB,m,y,./images/JUMPERLB.png,23.3963,,,,,,,,,,,,,,,,,,,m,1,0.6818,,,,,,,,0,41,41,74,1,
,,,,,,,,,,,,,,,,,5d0dd940312297000137d2a7,64,2022-02-12_17h54.10.811,lexical_decision_task_DD_L4,2021.2.3,Win32,59.3824228,,,,,,,,,,,,1.0698,1,,,,,,,,,,,,,,,,,,,,,,,,-0.120370359,-0.291666678,0,0,0,,,,,,,FLESH,C,m,y,./images/FLESH.png,,,,,,,,,,,,,,,,,,,,m,1,1.0698,,,,,,,,0,42,42,24,1,
,,,,,,,,,,,,,,,,,5d0dd940312297000137d2a7,64,2022-02-12_17h54.10.811,lexical_decision_task_DD_L4,2021.2.3,Win32,59.3824228,,,,,,,,,,,,0.9156,0,,,,,,,,,,,,,,,,,,,,,,,,-0.120370359,-0.291666678,0,0,0,,,,,,,MUSCLE,HB,z,y,./images/MUSCLEHB.png,,,,,,,,,,,,,,,,,,,,m,0,0.9156,,,,,,,,0,43,43,88,1,
,,,,,,,,,,,,,,,,,5d0dd940312297000137d2a7,64,2022-02-12_17h54.10.811,lexical_decision_task_DD_L4,2021.2.3,Win32,59.3824228,,,,,,,,,,,,0.7154,0,,,,,,,,,,,,,,,,,,,,,,,,-0.120370359,-0.291666678,0,0,0,,,,,,,GRAPE,HB,m,y,./images/GRAPEHB.png,,,,,,,,,,,,,,,,,,,,z,0,0.7154,,,,,,,,0,44,44,16,1,
,,,,,,,,,,,,,,,,,5d0dd940312297000137d2a7,64,2022-02-12_17h54.10.811,lexical_decision_task_DD_L4,2021.2.3,Win32,59.3824228,,,,,,,,,,,,0.8888,0,,,,,,,,,,,,,,,,,,,,,,,,-0.120370359,-0.291666678,0,0,0,,,,,,,CANYON,HB,z,y,./images/CANYONHB.png,,,,,,,,,,,,,,,,,,,,m,0,0.8888,,,,,,,,0,45,45,118,1,
,,,,,,,,,,,,,,,,,5d0dd940312297000137d2a7,64,2022-02-12_17h54.10.811,lexical_decision_task_DD_L4,2021.2.3,Win32,59.3824228,,,,,,,,,,,,0.8814,1,,,,,,,,,,,,,,,,,,,,,,,,-0.120370359,-0.291666678,0,0,0,,,,,,,COUCH,LB,z,y,./images/COUCHLB.png,,,,,,,,,,,,,,,,,,,,z,1,0.8814,,,,,,,,0,46,46,161,1,
,,,,,,,,,,,,,,,,,5d0dd940312297000137d2a7,64,2022-02-12_17h54.10.811,lexical_decision_task_DD_L4,2021.2.3,Win32,59.3824228,,,,,,,,,,,,0.7141,1,,,,,,,,,,,,,,,,,,,,,,,,-0.120370359,-0.291666678,0,0,0,,,,,,,ENGINE,LB,m,y,./images/ENGINELB.png,,,,,,,,,,,,,,,,,,,,m,1,0.7141,,,,,,,,0,47,47,38,1,
,,,,,,,,,,,,,,,,,5d0dd940312297000137d2a7,64,2022-02-12_17h54.10.811,lexical_decision_task_DD_L4,2021.2.3,Win32,59.3824228,,,,,,,,,,,,0.8282,1,,,,,,,,,,,,,,,,,,,,,,,,-0.120370359,-0.291666678,0,0,0,,,,,,,SLOPE,C,m,y,./images/SLOPE.png,,,,,,,,,,,,,,,,,,,,m,1,0.8282,,,,,,,,0,48,48,30,1,
,,,,,,,,,,,,,,,,,5d0dd940312297000137d2a7,64,2022-02-12_17h54.10.811,lexical_decision_task_DD_L4,2021.2.3,Win32,59.3824228,,,,,,,,,,,,0.7495,1,,,,,,,,,,,,,,,,,,,,,,,,-0.120370359,-0.291666678,0,0,0,,,,,,,QUILL,HB,z,y,./images/QUILLHB.png,,,,,,,,,,,,,,,,,,,,z,1,0.7495,,,,,,,,0,49,49,115,1,
,,,,,,,,,,,,,,,,,5d0dd940312297000137d2a7,64,2022-02-12_17h54.10.811,lexical_decision_task_DD_L4,2021.2.3,Win32,59.3824228,,,,,,,,,,,,0.7266,1,,,,,,,,,,,,,,,,,,,,,,,,-0.120370359,-0.291666678,0,0,0,,,,,,,GLOVE,HB,m,y,./images/GLOVEHB.png,,,,,,,,,,,,,,,,,,,,m,1,0.7266,,,,,,,,0,50,50,73,1,
,,,,,,,,,,,,,,,,,5d0dd940312297000137d2a7,64,2022-02-12_17h54.10.811,lexical_decision_task_DD_L4,2021.2.3,Win32,59.3824228,,,,,,,,,,,,0.8544,1,,,,,,,,,,,,,,,,,,,,,,,,-0.120370359,-0.291666678,0,0,0,,,,,,,PACKET,LB,z,y,./images/PACKETLB.png,,,,,,,,,,,,,,,,,,,,z,1,0.8544,,,,,,,,0,51,51,140,1,
,,,,,,,,,,,,,,,,,5d0dd940312297000137d2a7,64,2022-02-12_17h54.10.811,lexical_decision_task_DD_L4,2021.2.3,Win32,59.3824228,,,,,,,,,,,,0.783,1,,,,,,,,,,,,,,,,,,,,,,,,-0.120370359,-0.291666678,0,0,0,,,,,,,BANANA,HB,m,y,./images/BANANAHB.png,,,,,,,,,,,,,,,,,,,,m,1,0.783,,,,,,,,0,52,52,70,1,
,,,,,,,,,,,,,,,,,5d0dd940312297000137d2a7,64,2022-02-12_17h54.10.811,lexical_decision_task_DD_L4,2021.2.3,Win32,59.3824228,,,,,,,,,,,,0.6351,1,,,,,,,,,,,,,,,,,,,,,,,,-0.120370359,-0.291666678,0,0,0,,,,,,,BISHOP,HB,m,y,./images/BISHOPHB.png,,,,,,,,,,,,,,,,,,,,m,1,0.6351,,,,,,,,0,53,53,49,1,
,,,,,,,,,,,,,,,,,5d0dd940312297000137d2a7,64,2022-02-12_17h54.10.811,lexical_decision_task_DD_L4,2021.2.3,Win32,59.3824228,,,,,,,,,,,,0.7866,1,,,,,,,,,,,,,,,,,,,,,,,,-0.120370359,-0.291666678,0,0,0,,,,,,,WHEEL,LB,m,y,./images/WHEELLB.png,,,,,,,,,,,,,,,,,,,,m,1,0.7866,,,,,,,,0,54,54,77,1,
,,,,,,,,,,,,,,,,,5d0dd940312297000137d2a7,64,2022-02-12_17h54.10.811,lexical_decision_task_DD_L4,2021.2.3,Win32,59.3824228,,,,,,,,,,,,0.6839,1,,,,,,,,,,,,,,,,,,,,,,,,-0.120370359,-0.291666678,0,0,0,,,,,,,PARCEL,C,m,y,./images/PARCEL.png,,,,,,,,,,,,,,,,,,,,m,1,0.6839,,,,,,,,0,55,55,18,1,
,,,,,,,,,,,,,,,,,5d0dd940312297000137d2a7,64,2022-02-12_17h54.10.811,lexical_decision_task_DD_L4,2021.2.3,Win32,59.3824228,,,,,,,,,,,,0.6525,1,,,,,,,,,,,,,,,,,,,,,,,,-0.120370359,-0.291666678,0,0,0,,,,,,,MONKEY,C,m,y,./images/MONKEY.png,,,,,,,,,,,,,,,,,,,,m,1,0.6525,,,,,,,,0,56,56,45,1,
,,,,,,,,,,,,,,,,,5d0dd940312297000137d2a7,64,2022-02-12_17h54.10.811,lexical_decision_task_DD_L4,2021.2.3,Win32,59.3824228,,,,,,,,,,,,0.9815,1,,,,,,,,,,,,,,,,,,,,,,,,-0.120370359,-0.291666678,0,0,0,,,,,,,BERRY,LB,z,y,./images/BERRYLB.png,,,,,,,,,,,,,,,,,,,,z,1,0.9815,,,,,,,,0,57,57,131,1,
,,,,,,,,,,,,,,,,,5d0dd940312297000137d2a7,64,2022-02-12_17h54.10.811,lexical_decision_task_DD_L4,2021.2.3,Win32,59.3824228,,,,,,,,,,,,0.8324,1,,,,,,,,,,,,,,,,,,,,,,,,-0.120370359,-0.291666678,0,0,0,,,,,,,THROAT,C,z,y,./images/THROAT.png,,,,,,,,,,,,,,,,,,,,z,1,0.8324,,,,,,,,0,58,58,120,1,
,,,,,,,,,,,,,,,,,5d0dd940312297000137d2a7,64,2022-02-12_17h54.10.811,lexical_decision_task_DD_L4,2021.2.3,Win32,59.3824228,,,,,,,,,,,,0.8315,1,,,,,,,,,,,,,,,,,,,,,,,,-0.120370359,-0.291666678,0,0,0,,,,,,,STAIN,C,m,y,./images/STAIN.png,,,,,,,,,,,,,,,,,,,,m,1,0.8315,,,,,,,,0,59,59,6,1,
,,,,,,,,,,,,,,,,,5d0dd940312297000137d2a7,64,2022-02-12_17h54.10.811,lexical_decision_task_DD_L4,2021.2.3,Win32,59.3824228,,,,,,,,,,,,0.8651,1,,,,,,,,,,,,,,,,,,,,,,,,-0.120370359,-0.291666678,0,0,0,,,,,,,CLIFF,LB,m,y,./images/CLIFFLB.png,,,,,,,,,,,,,,,,,,,,m,1,0.8651,,,,,,,,0,60,60,8,1,
,,,,,,,,,,,,,,,,,5d0dd940312297000137d2a7,64,2022-02-12_17h54.10.811,lexical_decision_task_DD_L4,2021.2.3,Win32,59.3824228,,,,,,,,,,,,0.6851,1,,,,,,,,,,,,,,,,,,,,,,,,-0.120370359,-0.291666678,0,0,0,,,,,,,BASKET,LB,m,y,./images/BASKETLB.png,,,,,,,,,,,,,,,,,,,,m,1,0.6851,,,,,,,,0,61,61,44,1,
,,,,,,,,,,,,,,,,,5d0dd940312297000137d2a7,64,2022-02-12_17h54.10.811,lexical_decision_task_DD_L4,2021.2.3,Win32,59.3824228,,,,,,,,,,,,0.8072,1,,,,,,,,,,,,,,,,,,,,,,,,-0.120370359,-0.291666678,0,0,0,,,,,,,PEACH,LB,z,y,./images/PEACHLB.png,,,,,,,,,,,,,,,,,,,,z,1,0.8072,,,,,,,,0,62,62,119,1,
,,,,,,,,,,,,,,,,,5d0dd940312297000137d2a7,64,2022-02-12_17h54.10.811,lexical_decision_task_DD_L4,2021.2.3,Win32,59.3824228,,,,,,,,,,,,0.7184,1,,,,,,,,,,,,,,,,,,,,,,,,-0.120370359,-0.291666678,0,0,0,,,,,,,PEBBLE,HB,m,y,./images/PEBBLEHB.png,,,,,,,,,,,,,,,,,,,,m,1,0.7184,,,,,,,,0,63,63,82,1,
,,,,,,,,,,,,,,,,,5d0dd940312297000137d2a7,64,2022-02-12_17h54.10.811,lexical_decision_task_DD_L4,2021.2.3,Win32,59.3824228,,,,,,,,,,,,0.5876,1,,,,,,,,,,,,,,,,,,,,,,,,-0.120370359,-0.291666678,0,0,0,,,,,,,PILOT,LB,m,y,./images/PILOTLB.png,,,,,,,,,,,,,,,,,,,,m,1,0.5876,,,,,,,,0,64,64,50,1,
,,,,,,,,,,,,,,,,,5d0dd940312297000137d2a7,64,2022-02-12_17h54.10.811,lexical_decision_task_DD_L4,2021.2.3,Win32,59.3824228,,,,,,,,,,,,0.7637,0,,,,,,,,,,,,,,,,,,,,,,,,-0.120370359,-0.291666678,0,0,0,,,,,,,FARMER,LB,z,y,./images/FARMERLB.png,,,,,,,,,,,,,,,,,,,,m,0,0.7637,,,,,,,,0,65,65,149,1,
,,,,,,,,,,,,,,,,,5d0dd940312297000137d2a7,64,2022-02-12_17h54.10.811,lexical_decision_task_DD_L4,2021.2.3,Win32,59.3824228,,,,,,,,,,,,1.0804,1,,,,,,,,,,,,,,,,,,,,,,,,-0.120370359,-0.291666678,0,0,0,,,,,,,TWINS,C,z,y,./images/TWINS.png,,,,,,,,,,,,,,,,,,,,z,1,1.0804,,,,,,,,0,66,66,144,1,
,,,,,,,,,,,,,,,,,5d0dd940312297000137d2a7,64,2022-02-12_17h54.10.811,lexical_decision_task_DD_L4,2021.2.3,Win32,59.3824228,,,,,,,,,,,,1.1004,1,,,,,,,,,,,,,,,,,,,,,,,,-0.120370359,-0.291666678,0,0,0,,,,,,,CANDLE,HB,z,y,./images/CANDLEHB.png,,,,,,,,,,,,,,,,,,,,z,1,1.1004,,,,,,,,0,67,67,145,1,
,,,,,,,,,,,,,,,,,5d0dd940312297000137d2a7,64,2022-02-12_17h54.10.811,lexical_decision_task_DD_L4,2021.2.3,Win32,59.3824228,,,,,,,,,,,,0.8801,1,,,,,,,,,,,,,,,,,,,,,,,,-0.120370359,-0.291666678,0,0,0,,,,,,,TOMATO,C,z,y,./images/TOMATO.png,,,,,,,,,,,,,,,,,,,,z,1,0.8801,,,,,,,,0,68,68,84,1,
,,,,,,,,,,,,,,,,,5d0dd940312297000137d2a7,64,2022-02-12_17h54.10.811,lexical_decision_task_DD_L4,2021.2.3,Win32,59.3824228,,,,,,,,,,,,0.9653,0,,,,,,,,,,,,,,,,,,,,,,,,-0.120370359,-0.291666678,0,0,0,,,,,,,RHINO,C,z,y,./images/RHINO.png,,,,,,,,,,,,,,,,,,,,m,0,0.9653,,,,,,,,0,69,69,93,1,
,,,,,,,,,,,,,,,,,5d0dd940312297000137d2a7,64,2022-02-12_17h54.10.811,lexical_decision_task_DD_L4,2021.2.3,Win32,59.3824228,,,,,,,,,,,,0.7821,1,,,,,,,,,,,,,,,,,,,,,,,,-0.120370359,-0.291666678,0,0,0,,,,,,,CHAIN,C,m,y,./images/CHAIN.png,,,,,,,,,,,,,,,,,,,,m,1,0.7821,,,,,,,,0,70,70,42,1,
,,,,,,,,,,,,,,,,,5d0dd940312297000137d2a7,64,2022-02-12_17h54.10.811,lexical_decision_task_DD_L4,2021.2.3,Win32,59.3824228,,,,,,,,,,,,0.7972,1,,,,,,,,,,,,,,,,,,,,,,,,-0.120370359,-0.291666678,0,0,0,,,,,,,CHALK,HB,m,y,./images/CHALKHB.png,,,,,,,,,,,,,,,,,,,,m,1,0.7972,,,,,,,,0,71,71,25,1,
,,,,,,,,,,,,,,,,,5d0dd940312297000137d2a7,64,2022-02-12_17h54.10.811,lexical_decision_task_DD_L4,2021.2.3,Win32,59.3824228,,,,,,,,,,,,0.8394,0,,,,,,,,,,,,,,,,,,,,,,,,-0.120370359,-0.291666678,0,0,0,,,,,,,CARPET,LB,z,y,./images/CARPETLB.png,,,,,,,,,,,,,,,,,,,,m,0,0.8394,,,,,,,,0,72,72,137,1,
,,,,,,,,,,,,,,,,,5d0dd940312297000137d2a7,64,2022-02-12_17h54.10.811,lexical_decision_task_DD_L4,2021.2.3,Win32,59.3824228,,,,,,,,,,,,0.8799,1,,,,,,,,,,,,,,,,,,,,,,,,-0.120370359,-0.291666678,0,0,0,,,,,,,BUTTER,C,m,y,./images/BUTTER.png,,,,,,,,,,,,,,,,,,,,m,1,0.8799,,,,,,,,0,73,73,27,1,
,,,,,,,,,,,,,,,,,5d0dd940312297000137d2a7,64,2022-02-12_17h54.10.811,lexical_decision_task_DD_L4,2021.2.3,Win32,59.3824228,,,,,,,,,,,,1.0744,1,,,,,,,,,,,,,,,,,,,,,,,,-0.120370359,-0.291666678,0,0,0,,,,,,,INFANT,HB,z,y,./images/INFANTHB.png,,,,,,,,,,,,,,,,,,,,z,1,1.0744,,,,,,,,0,74,74,160,1,
,,,,,,,,,,,,,,,,,5d0dd940312297000137d2a7,64,2022-02-12_17h54.10.811,lexical_decision_task_DD_L4,2021.2.3,Win32,59.3824228,,,,,,,,,,,,0.7028,1,,,,,,,,,,,,,,,,,,,,,,,,-0.120370359,-0.291666678,0,0,0,,,,,,,BUNNY,HB,m,y,./images/BUNNYHB.png,,,,,,,,,,,,,,,,,,,,m,1,0.7028,,,,,,,,0,75,75,13,1,
,,,,,,,,,,,,,,,,,5d0dd940312297000137d2a7,64,2022-02-12_17h54.10.811,lexical_decision_task_DD_L4,2021.2.3,Win32,59.3824228,,,,,,,,,,,,1.1178,0,,,,,,,,,,,,,,,,,,,,,,,,-0.120370359,-0.291666678,0,0,0,,,,,,,PAINT,HB,z,y,./images/PAINTHB.png,,,,,,,,,,,,,,,,,,,,m,0,1.1178,,,,,,,,0,76,76,91,1,
,,,,,,,,,,,,,,,,,5d0dd940312297000137d2a7,64,2022-02-12_17h54.10.811,lexical_decision_task_DD_L4,2021.2.3,Win32,59.3824228,,,,,,,,,,,,0.9896,1,,,,,,,,,,,,,,,,,,,,,,,,-0.120370359,-0.291666678,0,0,0,,,,,,,KITTEN,C,z,y,./images/KITTEN.png,,,,,,,,,,,,,,,,,,,,z,1,0.9896,,,,,,,,0,77,77,129,1,
,,,,,,,,,,,,,,,,,5d0dd940312297000137d2a7,64,2022-02-12_17h54.10.811,lexical_decision_task_DD_L4,2021.2.3,Win32,59.3824228,,,,,,,,,,,,0.8146,0,,,,,,,,,,,,,,,,,,,,,,,,-0.120370359,-0.291666678,0,0,0,,,,,,,WEASEL,LB,z,y,./images/WEASELLB.png,,,,,,,,,,,,,,,,,,,,m,0,0.8146,,,,,,,,0,78,78,164,1,
,,,,,,,,,,,,,,,,,5d0dd940312297000137d2a7,64,2022-02-12_17h54.10.811,lexical_decision_task_DD_L4,2021.2.3,Win32,59.3824228,,,,,,,,,,,,1.2774,1,,,,,,,,,,,,,,,,,,,,,,,,-0.120370359,-0.291666678,0,0,0,,,,,,,SWING,HB,z,y,./images/SWINGHB.png,,,,,,,,,,,,,,,,,,,,z,1,1.2774,,,,,,,,0,79,79,124,1,
,,,,,,,,,,,,,,,,,5d0dd940312297000137d2a7,64,2022-02-12_17h54.10.811,lexical_decision_task_DD_L4,2021.2.3,Win32,59.3824228,,,,,,,,,,,,1.3011,0,,,,,,,,,,,,,,,,,,,,,,,,-0.120370359,-0.291666678,0,0,0,,,,,,,MIRROR,C,z,y,./images/MIRROR.png,,,,,,,,,,,,,,,,,,,,m,0,1.3011,,,,,,,,0,80,80,147,1,
,,,,,,,,,,,,,,,,,5d0dd940312297000137d2a7,64,2022-02-12_17h54.10.811,lexical_decision_task_DD_L4,2021.2.3,Win32,59.3824228,,,,,,,,,,,,1.0049,1,,,,,,,,,,,,,,,,,,,,,,,,-0.120370359,-0.291666678,0,0,0,,,,,,,POODLE,C,z,y,./images/POODLE.png,,,,,,,,,,,,,,,,,,,,z,1,1.0049,,,,,,,,0,81,81,165,1,
,,,,,,,,,,,,,,,,,5d0dd940312297000137d2a7,64,2022-02-12_17h54.10.811,lexical_decision_task_DD_L4,2021.2.3,Win32,59.3824228,,,,,,,,,,,,1.0101,1,,,,,,,,,,,,,,,,,,,,,,,,-0.120370359,-0.291666678,0,0,0,,,,,,,BONNET,LB,z,y,./images/BONNETLB.png,,,,,,,,,,,,,,,,,,,,z,1,1.0101,,,,,,,,0,82,82,95,1,
,,,,,,,,,,,,,,,,,5d0dd940312297000137d2a7,64,2022-02-12_17h54.10.811,lexical_decision_task_DD_L4,2021.2.3,Win32,59.3824228,,,,,,,,,,,,1.0652,1,,,,,,,,,,,,,,,,,,,,,,,,-0.052777765,-0.42129631,1,0,0,,,,,,,TULIP,LB,z,y,./images/TULIPLB.png,,,,,,,,,,,,,,,,,,,,z,1,1.0652,,,,,,,,0,83,83,92,1,break_done_button
,,,,,,,,,,,,,,,,,5d0dd940312297000137d2a7,64,2022-02-12_17h54.10.811,lexical_decision_task_DD_L4,2021.2.3,Win32,59.3824228,,,,,,,,,,,,1.8839,1,,,,,,,,,,,,,,,,,,,,,,,,-0.240740731,-0.149074084,0,0,0,,,,,,,MUFFIN,HB,z,y,./images/MUFFINHB.png,,,,,,,,,,,,,,,,,,,,z,1,1.8839,,,,,,,,0,84,84,139,1,
,,,,,,,,,,,,,,,,,5d0dd940312297000137d2a7,64,2022-02-12_17h54.10.811,lexical_decision_task_DD_L4,2021.2.3,Win32,59.3824228,,,,,,,,,,,,1.5271,0,,,,,,,,,,,,,,,,,,,,,,,,-0.240740731,-0.149074084,0,0,0,,,,,,,PARADE,LB,m,y,./images/PARADELB.png,,,,,,,,,,,,,,,,,,,,z,0,1.5271,,,,,,,,0,85,85,17,1,
,,,,,,,,,,,,,,,,,5d0dd940312297000137d2a7,64,2022-02-12_17h54.10.811,lexical_decision_task_DD_L4,2021.2.3,Win32,59.3824228,,,,,,,,,,,,0.8496,1,,,,,,,,,,,,,,,,,,,,,,,,-0.240740731,-0.149074084,0,0,0,,,,,,,ARTIST,HB,m,y,./images/ARTISTHB.png,,,,,,,,,,,,,,,,,,,,m,1,0.8496,,,,,,,,0,86,86,61,1,
,,,,,,,,,,,,,,,,,5d0dd940312297000137d2a7,64,2022-02-12_17h54.10.811,lexical_decision_task_DD_L4,2021.2.3,Win32,59.3824228,,,,,,,,,,,,1.1018,1,,,,,,,,,,,,,,,,,,,,,,,,-0.240740731,-0.149074084,0,0,0,,,,,,,HEATER,LB,m,y,./images/HEATERLB.png,,,,,,,,,,,,,,,,,,,,m,1,1.1018,,,,,,,,0,87,87,56,1,
,,,,,,,,,,,,,,,,,5d0dd940312297000137d2a7,64,2022-02-12_17h54.10.811,lexical_decision_task_DD_L4,2021.2.3,Win32,59.3824228,,,,,,,,,,,,0.8597,0,,,,,,,,,,,,,,,,,,,,,,,,-0.240740731,-0.149074084,0,0,0,,,,,,,LADDER,LB,z,y,./images/LADDERLB.png,,,,,,,,,,,,,,,,,,,,m,0,0.8597,,,,,,,,0,88,88,122,1,
,,,,,,,,,,,,,,,,,5d0dd940312297000137d2a7,64,2022-02-12_17h54.10.811,lexical_decision_task_DD_L4,2021.2.3,Win32,59.3824228,,,,,,,,,,,,0.8851,1,,,,,,,,,,,,,,,,,,,,,,,,-0.240740731,-0.149074084,0,0,0,,,,,,,FLASK,C,m,y,./images/FLASK.png,,,,,,,,,,,,,,,,,,,,m,1,0.8851,,,,,,,,0,89,89,72,1,
,,,,,,,,,,,,,,,,,5d0dd940312297000137d2a7,64,2022-02-12_17h54.10.811,lexical_decision_task_DD_L4,2021.2.3,Win32,59.3824228,,,,,,,,,,,,0.62,0,,,,,,,,,,,,,,,,,,,,,,,,-0.240740731,-0.149074084,0,0,0,,,,,,,LITTER,C,z,y,./images/LITTER.png,,,,,,,,,,,,,,,,,,,,m,0,0.62,,,,,,,,0,90,90,162,1,
,,,,,,,,,,,,,,,,,5d0dd940312297000137d2a7,64,2022-02-12_17h54.10.811,lexical_decision_task_DD_L4,2021.2.3,Win32,59.3824228,,,,,,,,,,,,0.7309,1,,,,,,,,,,,,,,,,,,,,,,,,-0.240740731,-0.149074084,0,0,0,,,,,,,BLOKE,C,m,y,./images/BLOKE.png,,,,,,,,,,,,,,,,,,,,m,1,0.7309,,,,,,,,0,91,91,12,1,
,,,,,,,,,,,,,,,,,5d0dd940312297000137d2a7,64,2022-02-12_17h54.10.811,lexical_decision_task_DD_L4,2021.2.3,Win32,59.3824228,,,,,,,,,,,,0.6851,1,,,,,,,,,,,,,,,,,,,,,,,,-0.240740731,-0.149074084,0,0,0,,,,,,,DIVER,C,m,y,./images/DIVER.png,,,,,,,,,,,,,,,,,,,,m,1,0.6851,,,,,,,,0,92,92,9,1,
,,,,,,,,,,,,,,,,,5d0dd940312297000137d2a7,64,2022-02-12_17h54.10.811,lexical_decision_task_DD_L4,2021.2.3,Win32,59.3824228,,,,,,,,,,,,0.617,1,,,,,,,,,,,,,,,,,,,,,,,,-0.240740731,-0.149074084,0,0,0,,,,,,,BUBBLE,LB,m,y,./images/BUBBLELB.png,,,,,,,,,,,,,,,,,,,,m,1,0.617,,,,,,,,0,93,93,71,1,
,,,,,,,,,,,,,,,,,5d0dd940312297000137d2a7,64,2022-02-12_17h54.10.811,lexical_decision_task_DD_L4,2021.2.3,Win32,59.3824228,,,,,,,,,,,,0.657,1,,,,,,,,,,,,,,,,,,,,,,,,-0.240740731,-0.149074084,0,0,0,,,,,,,FERRY,C,m,y,./images/FERRY.png,,,,,,,,,,,,,,,,,,,,m,1,0.657,,,,,,,,0,94,94,57,1,
,,,,,,,,,,,,,,,,,5d0dd940312297000137d2a7,64,2022-02-12_17h54.10.811,lexical_decision_task_DD_L4,2021.2.3,Win32,59.3824228,,,,,,,,,,,,0.6152,1,,,,,,,,,,,,,,,,,,,,,,,,-0.240740731,-0.149074084,0,0,0,,,,,,,PISTOL,LB,m,y,./images/PISTOLLB.png,,,,,,,,,,,,,,,,,,,,m,1,0.6152,,,,,,,,0,95,95,29,1,
,,,,,,,,,,,,,,,,,5d0dd940312297000137d2a7,64,2022-02-12_17h54.10.811,lexical_decision_task_DD_L4,2021.2.3,Win32,59.3824228,,,,,,,,,,,,0.6556,1,,,,,,,,,,,,,,,,,,,,,,,,-0.240740731,-0.149074084,0,0,0,,,,,,,LLAMA,LB,m,y,./images/LLAMALB.png,,,,,,,,,,,,,,,,,,,,m,1,0.6556,,,,,,,,0,96,96,35,1,
,,,,,,,,,,,,,,,,,5d0dd940312297000137d2a7,64,2022-02-12_17h54.10.811,lexical_decision_task_DD_L4,2021.2.3,Win32,59.3824228,,,,,,,,,,,,0.6186,1,,,,,,,,,,,,,,,,,,,,,,,,-0.240740731,-0.149074084,0,0,0,,,,,,,POKER,HB,m,y,./images/POKERHB.png,,,,,,,,,,,,,,,,,,,,m,1,0.6186,,,,,,,,0,97,97,67,1,
,,,,,,,,,,,,,,,,,5d0dd940312297000137d2a7,64,2022-02-12_17h54.10.811,lexical_decision_task_DD_L4,2021.2.3,Win32,59.3824228,,,,,,,,,,,,0.6493,1,,,,,,,,,,,,,,,,,,,,,,,,-0.240740731,-0.149074084,0,0,0,,,,,,,STOOL,HB,m,y,./images/STOOLHB.png,,,,,,,,,,,,,,,,,,,,m,1,0.6493,,,,,,,,0,98,98,43,1,
,,,,,,,,,,,,,,,,,5d0dd940312297000137d2a7,64,2022-02-12_17h54.10.811,lexical_decision_task_DD_L4,2021.2.3,Win32,59.3824228,,,,,,,,,,,,0.6478,1,,,,,,,,,,,,,,,,,,,,,,,,-0.240740731,-0.149074084,0,0,0,,,,,,,SPINE,LB,m,y,./images/SPINELB.png,,,,,,,,,,,,,,,,,,,,m,1,0.6478,,,,,,,,0,99,99,65,1,
,,,,,,,,,,,,,,,,,5d0dd940312297000137d2a7,64,2022-02-12_17h54.10.811,lexical_decision_task_DD_L4,2021.2.3,Win32,59.3824228,,,,,,,,,,,,1.2815,1,,,,,,,,,,,,,,,,,,,,,,,,-0.240740731,-0.149074084,0,0,0,,,,,,,TIGER,HB,m,y,./images/TIGERHB.png,,,,,,,,,,,,,,,,,,,,m,1,1.2815,,,,,,,,0,100,100,37,1,
,,,,,,,,,,,,,,,,,5d0dd940312297000137d2a7,64,2022-02-12_17h54.10.811,lexical_decision_task_DD_L4,2021.2.3,Win32,59.3824228,,,,,,,,,,,,0.6194,1,,,,,,,,,,,,,,,,,,,,,,,,-0.240740731,-0.149074084,0,0,0,,,,,,,BRIDE,HB,m,y,./images/BRIDEHB.png,,,,,,,,,,,,,,,,,,,,m,1,0.6194,,,,,,,,0,101,101,64,1,
,,,,,,,,,,,,,,,,,5d0dd940312297000137d2a7,64,2022-02-12_17h54.10.811,lexical_decision_task_DD_L4,2021.2.3,Win32,59.3824228,,,,,,,,,,,,0.7349,0,,,,,,,,,,,,,,,,,,,,,,,,-0.240740731,-0.149074084,0,0,0,,,,,,,SPORT,C,z,y,./images/SPORT.png,,,,,,,,,,,,,,,,,,,,m,0,0.7349,,,,,,,,0,102,102,132,1,
,,,,,,,,,,,,,,,,,5d0dd940312297000137d2a7,64,2022-02-12_17h54.10.811,lexical_decision_task_DD_L4,2021.2.3,Win32,59.3824228,,,,,,,,,,,,0.7849,0,,,,,,,,,,,,,,,,,,,,,,,,-0.240740731,-0.149074084,0,0,0,,,,,,,SCREW,C,z,y,./images/SCREW.png,,,,,,,,,,,,,,,,,,,,m,0,0.7849,,,,,,,,0,103,103,108,1,
,,,,,,,,,,,,,,,,,5d0dd940312297000137d2a7,64,2022-02-12_17h54.10.811,lexical_decision_task_DD_L4,2021.2.3,Win32,59.3824228,,,,,,,,,,,,0.8844,1,,,,,,,,,,,,,,,,,,,,,,,,-0.240740731,-0.149074084,0,0,0,,,,,,,STREAM,LB,m,y,./images/STREAMLB.png,,,,,,,,,,,,,,,,,,,,m,1,0.8844,,,,,,,,0,104,104,41,1,
,,,,,,,,,,,,,,,,,5d0dd940312297000137d2a7,64,2022-02-12_17h54.10.811,lexical_decision_task_DD_L4,2021.2.3,Win32,59.3824228,,,,,,,,,,,,0.7209,1,,,,,,,,,,,,,,,,,,,,,,,,-0.240740731,-0.149074084,0,0,0,,,,,,,CURRY,C,m,y,./images/CURRY.png,,,,,,,,,,,,,,,,,,,,m,1,0.7209,,,,,,,,0,105,105,60,1,
,,,,,,,,,,,,,,,,,5d0dd940312297000137d2a7,64,2022-02-12_17h54.10.811,lexical_decision_task_DD_L4,2021.2.3,Win32,59.3824228,,,,,,,,,,,,1.069,1,,,,,,,,,,,,,,,,,,,,,,,,-0.240740731,-0.149074084,0,0,0,,,,,,,CRADLE,LB,z,y,./images/CRADLELB.png,,,,,,,,,,,,,,,,,,,,z,1,1.069,,,,,,,,0,106,106,104,1,
,,,,,,,,,,,,,,,,,5d0dd940312297000137d2a7,64,2022-02-12_17h54.10.811,lexical_decision_task_DD_L4,2021.2.3,Win32,59.3824228,,,,,,,,,,,,1.109,1,,,,,,,,,,,,,,,,,,,,,,,,-0.240740731,-0.149074084,0,0,0,,,,,,,JUNGLE,LB,z,y,./images/JUNGLELB.png,,,,,,,,,,,,,,,,,,,,z,1,1.109,,,,,,,,0,107,107,167,1,
,,,,,,,,,,,,,,,,,5d0dd940312297000137d2a7,64,2022-02-12_17h54.10.811,lexical_decision_task_DD_L4,2021.2.3,Win32,59.3824228,,,,,,,,,,,,0.887,1,,,,,,,,,,,,,,,,,,,,,,,,-0.240740731,-0.149074084,0,0,0,,,,,,,SNAKE,HB,m,y,./images/SNAKEHB.png,,,,,,,,,,,,,,,,,,,,m,1,0.887,,,,,,,,0,108,108,40,1,
,,,,,,,,,,,,,,,,,5d0dd940312297000137d2a7,64,2022-02-12_17h54.10.811,lexical_decision_task_DD_L4,2021.2.3,Win32,59.3824228,,,,,,,,,,,,0.6219,1,,,,,,,,,,,,,,,,,,,,,,,,-0.240740731,-0.149074084,0,0,0,,,,,,,CHERRY,C,m,y,./images/CHERRY.png,,,,,,,,,,,,,,,,,,,,m,1,0.6219,,,,,,,,0,109,109,54,1,
,,,,,,,,,,,,,,,,,5d0dd940312297000137d2a7,64,2022-02-12_17h54.10.811,lexical_decision_task_DD_L4,2021.2.3,Win32,59.3824228,,,,,,,,,,,,0.6917,0,,,,,,,,,,,,,,,,,,,,,,,,-0.240740731,-0.149074084,0,0,0,,,,,,,PEARL,HB,z,y,./images/PEARLHB.png,,,,,,,,,,,,,,,,,,,,m,0,0.6917,,,,,,,,0,110,110,130,1,
,,,,,,,,,,,,,,,,,5d0dd940312297000137d2a7,64,2022-02-12_17h54.10.811,lexical_decision_task_DD_L4,2021.2.3,Win32,59.3824228,,,,,,,,,,,,0.8359,1,,,,,,,,,,,,,,,,,,,,,,,,-0.240740731,-0.149074084,0,0,0,,,,,,,NOOSE,C,z,y,./images/NOOSE.png,,,,,,,,,,,,,,,,,,,,z,1,0.8359,,,,,,,,0,111,111,156,1,
,,,,,,,,,,,,,,,,,5d0dd940312297000137d2a7,64,2022-02-12_17h54.10.811,lexical_decision_task_DD_L4,2021.2.3,Win32,59.3824228,,,,,,,,,,,,0.8864,1,,,,,,,,,,,,,,,,,,,,,,,,-0.240740731,-0.149074084,0,0,0,,,,,,,GREASE,C,z,y,./images/GREASE.png,,,,,,,,,,,,,,,,,,,,z,1,0.8864,,,,,,,,0,112,112,99,1,
,,,,,,,,,,,,,,,,,5d0dd940312297000137d2a7,64,2022-02-12_17h54.10.811,lexical_decision_task_DD_L4,2021.2.3,Win32,59.3824228,,,,,,,,,,,,0.8551,1,,,,,,,,,,,,,,,,,,,,,,,,-0.240740731,-0.149074084,0,0,0,,,,,,,BELLY,HB,z,y,./images/BELLYHB.png,,,,,,,,,,,,,,,,,,,,z,1,0.8551,,,,,,,,0,113,113,94,1,
,,,,,,,,,,,,,,,,,5d0dd940312297000137d2a7,64,2022-02-12_17h54.10.811,lexical_decision_task_DD_L4,2021.2.3,Win32,59.3824228,,,,,,,,,,,,0.8195,1,,,,,,,,,,,,,,,,,,,,,,,,-0.240740731,-0.149074084,0,0,0,,,,,,,DOUGH,HB,z,y,./images/DOUGHHB.png,,,,,,,,,,,,,,,,,,,,z,1,0.8195,,,,,,,,0,114,114,103,1,
,,,,,,,,,,,,,,,,,5d0dd940312297000137d2a7,64,2022-02-12_17h54.10.811,lexical_decision_task_DD_L4,2021.2.3,Win32,59.3824228,,,,,,,,,,,,0.7355,0,,,,,,,,,,,,,,,,,,,,,,,,-0.240740731,-0.149074084,0,0,0,,,,,,,COLLAR,C,m,y,./images/COLLAR.png,,,,,,,,,,,,,,,,,,,,z,0,0.7355,,,,,,,,0,115,115,15,1,
,,,,,,,,,,,,,,,,,5d0dd940312297000137d2a7,64,2022-02-12_17h54.10.811,lexical_decision_task_DD_L4,2021.2.3,Win32,59.3824228,,,,,,,,,,,,0.9484,1,,,,,,,,,,,,,,,,,,,,,,,,-0.240740731,-0.149074084,0,0,0,,,,,,,GRAIN,C,z,y,./images/GRAIN.png,,,,,,,,,,,,,,,,,,,,z,1,0.9484,,,,,,,,0,116,116,159,1,
,,,,,,,,,,,,,,,,,5d0dd940312297000137d2a7,64,2022-02-12_17h54.10.811,lexical_decision_task_DD_L4,2021.2.3,Win32,59.3824228,,,,,,,,,,,,0.8516,1,,,,,,,,,,,,,,,,,,,,,,,,-0.240740731,-0.149074084,0,0,0,,,,,,,BOILER,C,m,y,./images/BOILER.png,,,,,,,,,,,,,,,,,,,,m,1,0.8516,,,,,,,,0,117,117,36,1,
,,,,,,,,,,,,,,,,,5d0dd940312297000137d2a7,64,2022-02-12_17h54.10.811,lexical_decision_task_DD_L4,2021.2.3,Win32,59.3824228,,,,,,,,,,,,0.7178,1,,,,,,,,,,,,,,,,,,,,,,,,-0.240740731,-0.149074084,0,0,0,,,,,,,DANCER,C,m,y,./images/DANCER.png,,,,,,,,,,,,,,,,,,,,m,1,0.7178,,,,,,,,0,118,118,21,1,
,,,,,,,,,,,,,,,,,5d0dd940312297000137d2a7,64,2022-02-12_17h54.10.811,lexical_decision_task_DD_L4,2021.2.3,Win32,59.3824228,,,,,,,,,,,,0.9254,1,,,,,,,,,,,,,,,,,,,,,,,,-0.240740731,-0.149074084,0,0,0,,,,,,,BURIAL,LB,z,y,./images/BURIALLB.png,,,,,,,,,,,,,,,,,,,,z,1,0.9254,,,,,,,,0,119,119,143,1,
,,,,,,,,,,,,,,,,,5d0dd940312297000137d2a7,64,2022-02-12_17h54.10.811,lexical_decision_task_DD_L4,2021.2.3,Win32,59.3824228,,,,,,,,,,,,0.9684,1,,,,,,,,,,,,,,,,,,,,,,,,-0.240740731,-0.149074084,0,0,0,,,,,,,FALCON,HB,z,y,./images/FALCONHB.png,,,,,,,,,,,,,,,,,,,,z,1,0.9684,,,,,,,,0,120,120,112,1,
,,,,,,,,,,,,,,,,,5d0dd940312297000137d2a7,64,2022-02-12_17h54.10.811,lexical_decision_task_DD_L4,2021.2.3,Win32,59.3824228,,,,,,,,,,,,1.0363,0,,,,,,,,,,,,,,,,,,,,,,,,-0.240740731,-0.149074084,0,0,0,,,,,,,BANNER,HB,z,y,./images/BANNERHB.png,,,,,,,,,,,,,,,,,,,,m,0,1.0363,,,,,,,,0,121,121,136,1,
,,,,,,,,,,,,,,,,,5d0dd940312297000137d2a7,64,2022-02-12_17h54.10.811,lexical_decision_task_DD_L4,2021.2.3,Win32,59.3824228,,,,,,,,,,,,0.7873,1,,,,,,,,,,,,,,,,,,,,,,,,-0.240740731,-0.149074084,0,0,0,,,,,,,BOXER,HB,m,y,./images/BOXERHB.png,,,,,,,,,,,,,,,,,,,,m,1,0.7873,,,,,,,,0,122,122,4,1,
,,,,,,,,,,,,,,,,,5d0dd940312297000137d2a7,64,2022-02-12_17h54.10.811,lexical_decision_task_DD_L4,2021.2.3,Win32,59.3824228,,,,,,,,,,,,0.726,1,,,,,,,,,,,,,,,,,,,,,,,,-0.240740731,-0.149074084,0,0,0,,,,,,,SAUNA,C,m,y,./images/SAUNA.png,,,,,,,,,,,,,,,,,,,,m,1,0.726,,,,,,,,0,123,123,33,1,
,,,,,,,,,,,,,,,,,5d0dd940312297000137d2a7,64,2022-02-12_17h54.10.811,lexical_decision_task_DD_L4,2021.2.3,Win32,59.3824228,,,,,,,,,,,,0.715,1,,,,,,,,,,,,,,,,,,,,,,,,-0.240740731,-0.149074084,0,0,0,,,,,,,WAGON,HB,m,y,./images/WAGONHB.png,,,,,,,,,,,,,,,,,,,,m,1,0.715,,,,,,,,0,124,124,7,1,
,,,,,,,,,,,,,,,,,5d0dd940312297000137d2a7,64,2022-02-12_17h54.10.811,lexical_decision_task_DD_L4,2021.2.3,Win32,59.3824228,,,,,,,,,,,,0.663,0,,,,,,,,,,,,,,,,,,,,,,,,-0.029629617,-0.42129631,1,0,0,,,,,,,JAGUAR,C,z,y,./images/JAGUAR.png,,,,,,,,,,,,,,,,,,,,m,0,0.663,,,,,,,,0,125,125,102,1,break_done_button
,,,,,,,,,,,,,,,,,5d0dd940312297000137d2a7,64,2022-02-12_17h54.10.811,lexical_decision_task_DD_L4,2021.2.3,Win32,59.3824228,,,,,,,,,,,,1.43,1,,,,,,,,,,,,,,,,,,,,,,,,-0.033333321,-0.418518589,0,0,0,,,,,,,CASINO,HB,m,y,./images/CASINOHB.png,,,,,,,,,,,,,,,,,,,,m,1,1.43,,,,,,,,0,126,126,28,1,
,,,,,,,,,,,,,,,,,5d0dd940312297000137d2a7,64,2022-02-12_17h54.10.811,lexical_decision_task_DD_L4,2021.2.3,Win32,59.3824228,,,,,,,,,,,,1.143,0,,,,,,,,,,,,,,,,,,,,,,,,-0.033333321,-0.418518589,0,0,0,,,,,,,SMOKER,LB,z,y,./images/SMOKERLB.png,,,,,,,,,,,,,,,,,,,,m,0,1.143,,,,,,,,0,127,127,110,1,
,,,,,,,,,,,,,,,,,5d0dd940312297000137d2a7,64,2022-02-12_17h54.10.811,lexical_decision_task_DD_L4,2021.2.3,Win32,59.3824228,,,,,,,,,,,,0.8096,1,,,,,,,,,,,,,,,,,,,,,,,,-0.033333321,-0.418518589,0,0,0,,,,,,,RAZOR,HB,m,y,./images/RAZORHB.png,,,,,,,,,,,,,,,,,,,,m,1,0.8096,,,,,,,,0,128,128,34,1,
,,,,,,,,,,,,,,,,,5d0dd940312297000137d2a7,64,2022-02-12_17h54.10.811,lexical_decision_task_DD_L4,2021.2.3,Win32,59.3824228,,,,,,,,,,,,0.6828,0,,,,,,,,,,,,,,,,,,,,,,,,-0.033333321,-0.418518589,0,0,0,,,,,,,MELON,HB,z,y,./images/MELONHB.png,,,,,,,,,,,,,,,,,,,,m,0,0.6828,,,,,,,,0,129,129,106,1,
,,,,,,,,,,,,,,,,,5d0dd940312297000137d2a7,64,2022-02-12_17h54.10.811,lexical_decision_task_DD_L4,2021.2.3,Win32,59.3824228,,,,,,,,,,,,1.1458,0,,,,,,,,,,,,,,,,,,,,,,,,-0.033333321,-0.418518589,0,0,0,,,,,,,ATTIC,C,z,y,./images/ATTIC.png,,,,,,,,,,,,,,,,,,,,m,0,1.1458,,,,,,,,0,130,130,111,1,
