key_resp.keys,instr_done_touch.x,instr_done_touch.y,instr_done_touch.leftButton,instr_done_touch.midButton,instr_done_touch.rightButton,instr_done_touch.clicked_name,instruction_pages.thisRepN,instruction_pages.thisTrialN,instruction_pages.thisN,instruction_pages.thisIndex,instruction_pages.ran,pageN,phase,instruct_text,has_image,instruct_image,participant,age,date,expName,psychopyVersion,OS,frameRate,response.keys,response.corr,response.rt,touch_resp.x,touch_resp.y,touch_resp.leftButton,touch_resp.midButton,touch_resp.rightButton,touch_resp.time,touch_resp.clicked_name,rt,corr,practrials.thisRepN,practrials.thisTrialN,practrials.thisN,practrials.thisIndex,practrials.ran,TrialID,Target,corrAns,end_of_practice_trials_pages.thisRepN,end_of_practice_trials_pages.thisTrialN,end_of_practice_trials_pages.thisN,end_of_practice_trials_pages.thisIndex,end_of_practice_trials_pages.ran,key_resp_2.keys,key_resp_2.corr,key_resp_2.rt,targ_click.x,targ_click.y,targ_click.leftButton,targ_click.midButton,targ_click.rightButton,targ_click.time,targ_click.clicked_name,break_done_touch.x,break_done_touch.y,break_done_touch.leftButton,break_done_touch.midButton,break_done_touch.rightButton,break_done_keyboard.keys,maintrials.thisRepN,maintrials.thisTrialN,maintrials.thisN,maintrials.thisIndex,maintrials.ran,string,blur,study,lex,stim_path,break_done_touch.clicked_name,break_done_keyboard.rt,mouse_2.x,mouse_2.y,mouse_2.leftButton,mouse_2.midButton,mouse_2.rightButton,mouse_2.clicked_name,slider.response,slider.rt,trials.thisRepN,trials.thisTrialN,trials.thisN,trials.thisIndex,trials.ran,test_instructions.thisRepN,test_instructions.thisTrialN,test_instructions.thisN,test_instructions.thisIndex,test_instructions.ran,key_resp.rt,key_resp_3.keys,key_resp_3.corr,key_resp_3.rt,test_click.x,test_click.y,test_click.leftButton,test_click.midButton,test_click.rightButton,test_click.time,test_click.clicked_name,test_phase.thisRepN,test_phase.thisTrialN,test_phase.thisN,test_phase.thisIndex,test_phase.ran
,0.024739583,-0.421875,1,0,0,instr_done_button,0,0,0,0,1,1,instructions,"INSTRUCTIONS
At the start of each trial, look at the plus sign  (+) in the center of the screen.  This tells you that a trial is about to begin and where to look. Second, the plus sign will disappear and a string of letters will appear. Your task is to determine if the string of letters is a word or not. If the item is a word press the M key (on keyboard)  or touch the word button (phone/tablet).  If the item is not a word,  press the  Z key (on keyboard)  or touch the nonword button (on phone/tablet). 
Press the space bar or touch  continue.",0,,5d0e88a255f0c70015345bdd,59,2022-02-12_13h44.02.915,lexical_decision_task_DD_L2,2021.2.3,Win32,60.60973392,,,,,,,,,,,,,,,,,,,,,,,,,,,,,,,,,,,,,,,,,,,,,,,,,,,,,,,,,,,,,,,,,,,,,,,,,,,,,,,,,,,,,,,
,0.0078125,-0.390625,1,0,0,instr_done_button,0,1,1,1,1,2,instructions,"If your device has a keyboard, press the 'Z' key for nonwords and the 'M' key for words.





Press the space bar or touch the button below to continue.",0,keyboard-example.gif,5d0e88a255f0c70015345bdd,59,2022-02-12_13h44.02.915,lexical_decision_task_DD_L2,2021.2.3,Win32,60.60973392,,,,,,,,,,,,,,,,,,,,,,,,,,,,,,,,,,,,,,,,,,,,,,,,,,,,,,,,,,,,,,,,,,,,,,,,,,,,,,,,,,,,,,,
,-0.014322917,-0.39453125,1,0,0,instr_done_button,0,2,2,2,1,3,instructions,"If you are using a touchscreen only device, use the buttons on the screen. Do not use the mouse.





Press the space bar or touch the button below to continue.",0,touchscreen-example.gif,5d0e88a255f0c70015345bdd,59,2022-02-12_13h44.02.915,lexical_decision_task_DD_L2,2021.2.3,Win32,60.60973392,,,,,,,,,,,,,,,,,,,,,,,,,,,,,,,,,,,,,,,,,,,,,,,,,,,,,,,,,,,,,,,,,,,,,,,,,,,,,,,,,,,,,,,
,-0.015625,-0.391927083,1,0,0,instr_done_button,0,3,3,3,1,4,instructions,"It is very important that you respond as quickly and accurately as possible, as each letter string will only be on the screen for two seconds. If you do not respond within this time, the message 'Too slow!' will be displayed and the experiment will progress to the next letter string. The first 20 trials will be practice trials and you will receive feedback on your answers. 

Press the space bar or touch the button below to start the practice trials.",0,,5d0e88a255f0c70015345bdd,59,2022-02-12_13h44.02.915,lexical_decision_task_DD_L2,2021.2.3,Win32,60.60973392,,,,,,,,,,,,,,,,,,,,,,,,,,,,,,,,,,,,,,,,,,,,,,,,,,,,,,,,,,,,,,,,,,,,,,,,,,,,,,,,,,,,,,,
,,,,,,,,,,,,,,,,,5d0e88a255f0c70015345bdd,59,2022-02-12_13h44.02.915,lexical_decision_task_DD_L2,2021.2.3,Win32,60.60973392,m,1,2.1907,,,,,,,,2.1907,1,0,0,0,0,1,1001,UTOPIA,m,,,,,,,,,,,,,,,,,,,,,,,,,,,,,,,,,,,,,,,,,,,,,,,,,,,,,,,,,,,,,,,,,,,
,,,,,,,,,,,,,,,,,5d0e88a255f0c70015345bdd,59,2022-02-12_13h44.02.915,lexical_decision_task_DD_L2,2021.2.3,Win32,60.60973392,m,1,1.1862,,,,,,,,1.1862,1,0,1,1,2,1,1001,ALMOND,m,,,,,,,,,,,,,,,,,,,,,,,,,,,,,,,,,,,,,,,,,,,,,,,,,,,,,,,,,,,,,,,,,,,
,,,,,,,,,,,,,,,,,5d0e88a255f0c70015345bdd,59,2022-02-12_13h44.02.915,lexical_decision_task_DD_L2,2021.2.3,Win32,60.60973392,z,1,2.5285,,,,,,,,2.5285,1,0,2,2,8,1,1001,ASLERT,z,,,,,,,,,,,,,,,,,,,,,,,,,,,,,,,,,,,,,,,,,,,,,,,,,,,,,,,,,,,,,,,,,,,
,,,,,,,,,,,,,,,,,5d0e88a255f0c70015345bdd,59,2022-02-12_13h44.02.915,lexical_decision_task_DD_L2,2021.2.3,Win32,60.60973392,m,1,1.43,,,,,,,,1.43,1,0,3,3,6,1,1001,ZOMBIE,m,,,,,,,,,,,,,,,,,,,,,,,,,,,,,,,,,,,,,,,,,,,,,,,,,,,,,,,,,,,,,,,,,,,
,,,,,,,,,,,,,,,,,5d0e88a255f0c70015345bdd,59,2022-02-12_13h44.02.915,lexical_decision_task_DD_L2,2021.2.3,Win32,60.60973392,z,1,0.9846,,,,,,,,0.9846,1,0,4,4,14,1,1001,THRALE,z,,,,,,,,,,,,,,,,,,,,,,,,,,,,,,,,,,,,,,,,,,,,,,,,,,,,,,,,,,,,,,,,,,,
,,,,,,,,,,,,,,,,,5d0e88a255f0c70015345bdd,59,2022-02-12_13h44.02.915,lexical_decision_task_DD_L2,2021.2.3,Win32,60.60973392,m,1,0.7151,,,,,,,,0.7151,1,0,5,5,3,1,1001,MATRIX,m,,,,,,,,,,,,,,,,,,,,,,,,,,,,,,,,,,,,,,,,,,,,,,,,,,,,,,,,,,,,,,,,,,,
,,,,,,,,,,,,,,,,,5d0e88a255f0c70015345bdd,59,2022-02-12_13h44.02.915,lexical_decision_task_DD_L2,2021.2.3,Win32,60.60973392,m,1,0.6559,,,,,,,,0.6559,1,0,6,6,1,1,1001,ADJUST,m,,,,,,,,,,,,,,,,,,,,,,,,,,,,,,,,,,,,,,,,,,,,,,,,,,,,,,,,,,,,,,,,,,,
,,,,,,,,,,,,,,,,,5d0e88a255f0c70015345bdd,59,2022-02-12_13h44.02.915,lexical_decision_task_DD_L2,2021.2.3,Win32,60.60973392,m,1,0.5311,,,,,,,,0.5311,1,0,7,7,5,1,1001,OBTAIN,m,,,,,,,,,,,,,,,,,,,,,,,,,,,,,,,,,,,,,,,,,,,,,,,,,,,,,,,,,,,,,,,,,,,
,,,,,,,,,,,,,,,,,5d0e88a255f0c70015345bdd,59,2022-02-12_13h44.02.915,lexical_decision_task_DD_L2,2021.2.3,Win32,60.60973392,m,1,0.6159,,,,,,,,0.6159,1,0,8,8,7,1,1001,VOLUME,m,,,,,,,,,,,,,,,,,,,,,,,,,,,,,,,,,,,,,,,,,,,,,,,,,,,,,,,,,,,,,,,,,,,
,,,,,,,,,,,,,,,,,5d0e88a255f0c70015345bdd,59,2022-02-12_13h44.02.915,lexical_decision_task_DD_L2,2021.2.3,Win32,60.60973392,z,1,0.7222,,,,,,,,0.7222,1,0,9,9,12,1,1001,SPRINY,z,,,,,,,,,,,,,,,,,,,,,,,,,,,,,,,,,,,,,,,,,,,,,,,,,,,,,,,,,,,,,,,,,,,
,,,,,,,,,,,,,,,,,5d0e88a255f0c70015345bdd,59,2022-02-12_13h44.02.915,lexical_decision_task_DD_L2,2021.2.3,Win32,60.60973392,z,1,0.8237,,,,,,,,0.8237,1,0,10,10,11,1,1001,RASHET,z,,,,,,,,,,,,,,,,,,,,,,,,,,,,,,,,,,,,,,,,,,,,,,,,,,,,,,,,,,,,,,,,,,,
,,,,,,,,,,,,,,,,,5d0e88a255f0c70015345bdd,59,2022-02-12_13h44.02.915,lexical_decision_task_DD_L2,2021.2.3,Win32,60.60973392,z,1,0.7205,,,,,,,,0.7205,1,0,11,11,15,1,1001,WHAISE,z,,,,,,,,,,,,,,,,,,,,,,,,,,,,,,,,,,,,,,,,,,,,,,,,,,,,,,,,,,,,,,,,,,,
,,,,,,,,,,,,,,,,,5d0e88a255f0c70015345bdd,59,2022-02-12_13h44.02.915,lexical_decision_task_DD_L2,2021.2.3,Win32,60.60973392,z,1,0.9661,,,,,,,,0.9661,1,0,12,12,10,1,1001,INLADE,z,,,,,,,,,,,,,,,,,,,,,,,,,,,,,,,,,,,,,,,,,,,,,,,,,,,,,,,,,,,,,,,,,,,
,,,,,,,,,,,,,,,,,5d0e88a255f0c70015345bdd,59,2022-02-12_13h44.02.915,lexical_decision_task_DD_L2,2021.2.3,Win32,60.60973392,z,1,0.7851,,,,,,,,0.7851,1,0,13,13,9,1,1001,FARINY,z,,,,,,,,,,,,,,,,,,,,,,,,,,,,,,,,,,,,,,,,,,,,,,,,,,,,,,,,,,,,,,,,,,,
,,,,,,,,,,,,,,,,,5d0e88a255f0c70015345bdd,59,2022-02-12_13h44.02.915,lexical_decision_task_DD_L2,2021.2.3,Win32,60.60973392,z,1,0.8147,,,,,,,,0.8147,1,0,14,14,13,1,1001,ROUPET,z,,,,,,,,,,,,,,,,,,,,,,,,,,,,,,,,,,,,,,,,,,,,,,,,,,,,,,,,,,,,,,,,,,,
,,,,,,,,,,,,,,,,,5d0e88a255f0c70015345bdd,59,2022-02-12_13h44.02.915,lexical_decision_task_DD_L2,2021.2.3,Win32,60.60973392,z,0,0.5987,,,,,,,,0.5987,0,0,15,15,4,1,1001,SQUEAK,m,,,,,,,,,,,,,,,,,,,,,,,,,,,,,,,,,,,,,,,,,,,,,,,,,,,,,,,,,,,,,,,,,,,
,0.036458333,-0.3984375,1,0,0,instr_done_button,,,,,,1,end_of_practice,"You have completed the practice trials. During the experimental trials, you will not receive feedback. 
Before you begin, please ensure that you are in a comfortable and quiet location and will not be disturbed for about 15 minutes, as we cannot use your data if you do not complete all the trials. 
 When you are ready to start the experimental trials, please press space or touch the button below.",,,5d0e88a255f0c70015345bdd,59,2022-02-12_13h44.02.915,lexical_decision_task_DD_L2,2021.2.3,Win32,60.60973392,,,,,,,,,,,,,,,,,,,,,0,0,0,0,1,,,,,,,,,,,,,,,,,,,,,,,,,,,,,,,,,,,,,,,,,,,,,,,,,,,,,,,,,,,,,,
,,,,,,,,,,,,,,,,,5d0e88a255f0c70015345bdd,59,2022-02-12_13h44.02.915,lexical_decision_task_DD_L2,2021.2.3,Win32,60.60973392,,,,,,,,,,,0.9913,1,,,,,,,,,,,,,,z,1,0.9913,,,,,,,,0.041666667,-0.40625,0,0,0,,0,0,0,84,1,HAXES,C,old,z,./images/HAXES.png,,,,,,,,,,,,,,,,,,,,,,,,,,,,,,,,,,,,
,,,,,,,,,,,,,,,,,5d0e88a255f0c70015345bdd,59,2022-02-12_13h44.02.915,lexical_decision_task_DD_L2,2021.2.3,Win32,60.60973392,,,,,,,,,,,0.7448,1,,,,,,,,,,,,,,m,1,0.7448,,,,,,,,0.041666667,-0.40625,0,0,0,,0,1,1,26,1,SMOKER,C,old,m,./images/SMOKER.png,,,,,,,,,,,,,,,,,,,,,,,,,,,,,,,,,,,,
,,,,,,,,,,,,,,,,,5d0e88a255f0c70015345bdd,59,2022-02-12_13h44.02.915,lexical_decision_task_DD_L2,2021.2.3,Win32,60.60973392,,,,,,,,,,,2.0978,1,,,,,,,,,,,,,,z,1,2.0978,,,,,,,,0.041666667,-0.40625,0,0,0,,0,2,2,130,1,CRILL,HB,old,z,./images/CRILLHB.png,,,,,,,,,,,,,,,,,,,,,,,,,,,,,,,,,,,,
,,,,,,,,,,,,,,,,,5d0e88a255f0c70015345bdd,59,2022-02-12_13h44.02.915,lexical_decision_task_DD_L2,2021.2.3,Win32,60.60973392,,,,,,,,,,,2.7363,1,,,,,,,,,,,,,,z,1,2.7363,,,,,,,,0.041666667,-0.40625,0,0,0,,0,3,3,100,1,DRIBS,HB,old,z,./images/DRIBSHB.png,,,,,,,,,,,,,,,,,,,,,,,,,,,,,,,,,,,,
,,,,,,,,,,,,,,,,,5d0e88a255f0c70015345bdd,59,2022-02-12_13h44.02.915,lexical_decision_task_DD_L2,2021.2.3,Win32,60.60973392,,,,,,,,,,,1.899,1,,,,,,,,,,,,,,z,1,1.899,,,,,,,,0.041666667,-0.40625,0,0,0,,0,4,4,88,1,GLUSH,HB,old,z,./images/GLUSHHB.png,,,,,,,,,,,,,,,,,,,,,,,,,,,,,,,,,,,,
,,,,,,,,,,,,,,,,,5d0e88a255f0c70015345bdd,59,2022-02-12_13h44.02.915,lexical_decision_task_DD_L2,2021.2.3,Win32,60.60973392,,,,,,,,,,,0.6768,1,,,,,,,,,,,,,,m,1,0.6768,,,,,,,,0.041666667,-0.40625,0,0,0,,0,5,5,46,1,PEARL,LB,old,m,./images/PEARLLB.png,,,,,,,,,,,,,,,,,,,,,,,,,,,,,,,,,,,,
,,,,,,,,,,,,,,,,,5d0e88a255f0c70015345bdd,59,2022-02-12_13h44.02.915,lexical_decision_task_DD_L2,2021.2.3,Win32,60.60973392,,,,,,,,,,,0.6037,1,,,,,,,,,,,,,,m,1,0.6037,,,,,,,,0.041666667,-0.40625,0,0,0,,0,6,6,19,1,DOUGH,LB,old,m,./images/DOUGHLB.png,,,,,,,,,,,,,,,,,,,,,,,,,,,,,,,,,,,,
,,,,,,,,,,,,,,,,,5d0e88a255f0c70015345bdd,59,2022-02-12_13h44.02.915,lexical_decision_task_DD_L2,2021.2.3,Win32,60.60973392,,,,,,,,,,,0.6365,1,,,,,,,,,,,,,,m,1,0.6365,,,,,,,,0.041666667,-0.40625,0,0,0,,0,7,7,60,1,TWINS,HB,old,m,./images/TWINSHB.png,,,,,,,,,,,,,,,,,,,,,,,,,,,,,,,,,,,,
,,,,,,,,,,,,,,,,,5d0e88a255f0c70015345bdd,59,2022-02-12_13h44.02.915,lexical_decision_task_DD_L2,2021.2.3,Win32,60.60973392,,,,,,,,,,,1.1429,1,,,,,,,,,,,,,,z,1,1.1429,0.041666667,-0.40625,1,0,0,0.6146,,0.041666667,-0.40625,0,0,0,,0,8,8,103,1,FLORT,HB,old,z,./images/FLORTHB.png,,,,,,,,,,,,,,,,,,,,,,,,,,,,,,,,,,,,
,,,,,,,,,,,,,,,,,5d0e88a255f0c70015345bdd,59,2022-02-12_13h44.02.915,lexical_decision_task_DD_L2,2021.2.3,Win32,60.60973392,,,,,,,,,,,0.7113,1,,,,,,,,,,,,,,m,1,0.7113,0.041666667,-0.40625,1,0,0,0.7141,,0.041666667,-0.40625,1,0,0,,0,9,9,37,1,BIRTH,LB,old,m,./images/BIRTHLB.png,,,,,,,,,,,,,,,,,,,,,,,,,,,,,,,,,,,,
,,,,,,,,,,,,,,,,,5d0e88a255f0c70015345bdd,59,2022-02-12_13h44.02.915,lexical_decision_task_DD_L2,2021.2.3,Win32,60.60973392,,,,,,,,,,,0.5408,1,,,,,,,,,,,,,,m,1,0.5408,,,,,,,,0.041666667,-0.40625,0,0,0,,0,10,10,34,1,CANYON,LB,old,m,./images/CANYONLB.png,,,,,,,,,,,,,,,,,,,,,,,,,,,,,,,,,,,,
,,,,,,,,,,,,,,,,,5d0e88a255f0c70015345bdd,59,2022-02-12_13h44.02.915,lexical_decision_task_DD_L2,2021.2.3,Win32,60.60973392,,,,,,,,,,,0.6949,1,,,,,,,,,,,,,,z,1,0.6949,,,,,,,,0.041666667,-0.40625,0,0,0,,0,11,11,161,1,BLAPS,LB,old,z,./images/BLAPSLB.png,,,,,,,,,,,,,,,,,,,,,,,,,,,,,,,,,,,,
,,,,,,,,,,,,,,,,,5d0e88a255f0c70015345bdd,59,2022-02-12_13h44.02.915,lexical_decision_task_DD_L2,2021.2.3,Win32,60.60973392,,,,,,,,,,,0.6402,1,,,,,,,,,,,,,,m,1,0.6402,,,,,,,,0.041666667,-0.40625,0,0,0,,0,12,12,17,1,SKIING,C,old,m,./images/SKIING.png,,,,,,,,,,,,,,,,,,,,,,,,,,,,,,,,,,,,
,,,,,,,,,,,,,,,,,5d0e88a255f0c70015345bdd,59,2022-02-12_13h44.02.915,lexical_decision_task_DD_L2,2021.2.3,Win32,60.60973392,,,,,,,,,,,0.6442,1,,,,,,,,,,,,,,m,1,0.6442,,,,,,,,0.041666667,-0.40625,0,0,0,,0,13,13,4,1,MUSCLE,LB,old,m,./images/MUSCLELB.png,,,,,,,,,,,,,,,,,,,,,,,,,,,,,,,,,,,,
,,,,,,,,,,,,,,,,,5d0e88a255f0c70015345bdd,59,2022-02-12_13h44.02.915,lexical_decision_task_DD_L2,2021.2.3,Win32,60.60973392,,,,,,,,,,,0.029,0,,,,,,,,,,,,,,m,0,0.029,,,,,,,,0.041666667,-0.40625,0,0,0,,0,14,14,148,1,JOMS,HB,old,z,./images/JOMSHB.png,,,,,,,,,,,,,,,,,,,,,,,,,,,,,,,,,,,,
,,,,,,,,,,,,,,,,,5d0e88a255f0c70015345bdd,59,2022-02-12_13h44.02.915,lexical_decision_task_DD_L2,2021.2.3,Win32,60.60973392,,,,,,,,,,,0.4947,0,,,,,,,,,,,,,,z,0,0.4947,,,,,,,,0.041666667,-0.40625,0,0,0,,0,15,15,25,1,WRIST,LB,old,m,./images/WRISTLB.png,,,,,,,,,,,,,,,,,,,,,,,,,,,,,,,,,,,,
,,,,,,,,,,,,,,,,,5d0e88a255f0c70015345bdd,59,2022-02-12_13h44.02.915,lexical_decision_task_DD_L2,2021.2.3,Win32,60.60973392,,,,,,,,,,,2.0263,1,,,,,,,,,,,,,,z,1,2.0263,,,,,,,,0.041666667,-0.40625,0,0,0,,0,16,16,118,1,BAVEL,HB,old,z,./images/BAVELHB.png,,,,,,,,,,,,,,,,,,,,,,,,,,,,,,,,,,,,
,,,,,,,,,,,,,,,,,5d0e88a255f0c70015345bdd,59,2022-02-12_13h44.02.915,lexical_decision_task_DD_L2,2021.2.3,Win32,60.60973392,,,,,,,,,,,0.4964,1,,,,,,,,,,,,,,m,1,0.4964,0.041666667,-0.40625,1,0,0,0.2817,,0.041666667,-0.40625,0,0,0,,0,17,17,28,1,FALCON,LB,old,m,./images/FALCONLB.png,,,,,,,,,,,,,,,,,,,,,,,,,,,,,,,,,,,,
,,,,,,,,,,,,,,,,,5d0e88a255f0c70015345bdd,59,2022-02-12_13h44.02.915,lexical_decision_task_DD_L2,2021.2.3,Win32,60.60973392,,,,,,,,,,,1.2188,1,,,,,,,,,,,,,,z,1,1.2188,,,,,,,,0.041666667,-0.40625,0,0,0,,0,18,18,145,1,LAMEL,HB,old,z,./images/LAMELHB.png,,,,,,,,,,,,,,,,,,,,,,,,,,,,,,,,,,,,
,,,,,,,,,,,,,,,,,5d0e88a255f0c70015345bdd,59,2022-02-12_13h44.02.915,lexical_decision_task_DD_L2,2021.2.3,Win32,60.60973392,,,,,,,,,,,0.5952,1,,,,,,,,,,,,,,m,1,0.5952,,,,,,,,0.041666667,-0.40625,0,0,0,,0,19,19,75,1,GRAIN,HB,old,m,./images/GRAINHB.png,,,,,,,,,,,,,,,,,,,,,,,,,,,,,,,,,,,,
,,,,,,,,,,,,,,,,,5d0e88a255f0c70015345bdd,59,2022-02-12_13h44.02.915,lexical_decision_task_DD_L2,2021.2.3,Win32,60.60973392,,,,,,,,,,,0.5943,1,,,,,,,,,,,,,,m,1,0.5943,,,,,,,,0.041666667,-0.40625,0,0,0,,0,20,20,73,1,SNACK,LB,old,m,./images/SNACKLB.png,,,,,,,,,,,,,,,,,,,,,,,,,,,,,,,,,,,,
,,,,,,,,,,,,,,,,,5d0e88a255f0c70015345bdd,59,2022-02-12_13h44.02.915,lexical_decision_task_DD_L2,2021.2.3,Win32,60.60973392,,,,,,,,,,,0.7218,1,,,,,,,,,,,,,,z,1,0.7218,,,,,,,,0.041666667,-0.40625,0,0,0,,0,21,21,141,1,PLEET,C,old,z,./images/PLEET.png,,,,,,,,,,,,,,,,,,,,,,,,,,,,,,,,,,,,
,,,,,,,,,,,,,,,,,5d0e88a255f0c70015345bdd,59,2022-02-12_13h44.02.915,lexical_decision_task_DD_L2,2021.2.3,Win32,60.60973392,,,,,,,,,,,1.0843,1,,,,,,,,,,,,,,z,1,1.0843,,,,,,,,0.041666667,-0.40625,0,0,0,,0,22,22,85,1,CHULK,HB,old,z,./images/CHULKHB.png,,,,,,,,,,,,,,,,,,,,,,,,,,,,,,,,,,,,
,,,,,,,,,,,,,,,,,5d0e88a255f0c70015345bdd,59,2022-02-12_13h44.02.915,lexical_decision_task_DD_L2,2021.2.3,Win32,60.60973392,,,,,,,,,,,0.781,1,,,,,,,,,,,,,,m,1,0.781,,,,,,,,0.041666667,-0.40625,0,0,0,,0,23,23,62,1,PURSE,C,old,m,./images/PURSE.png,,,,,,,,,,,,,,,,,,,,,,,,,,,,,,,,,,,,
,,,,,,,,,,,,,,,,,5d0e88a255f0c70015345bdd,59,2022-02-12_13h44.02.915,lexical_decision_task_DD_L2,2021.2.3,Win32,60.60973392,,,,,,,,,,,0.4819,1,,,,,,,,,,,,,,m,1,0.4819,0.041666667,-0.40625,1,0,0,0.2481,,0.041666667,-0.40625,0,0,0,,0,24,24,35,1,PEACH,C,old,m,./images/PEACH.png,,,,,,,,,,,,,,,,,,,,,,,,,,,,,,,,,,,,
,,,,,,,,,,,,,,,,,5d0e88a255f0c70015345bdd,59,2022-02-12_13h44.02.915,lexical_decision_task_DD_L2,2021.2.3,Win32,60.60973392,,,,,,,,,,,0.5046,1,,,,,,,,,,,,,,m,1,0.5046,,,,,,,,0.041666667,-0.40625,0,0,0,,0,25,25,64,1,JELLY,LB,old,m,./images/JELLYLB.png,,,,,,,,,,,,,,,,,,,,,,,,,,,,,,,,,,,,
,,,,,,,,,,,,,,,,,5d0e88a255f0c70015345bdd,59,2022-02-12_13h44.02.915,lexical_decision_task_DD_L2,2021.2.3,Win32,60.60973392,,,,,,,,,,,0.7374,1,,,,,,,,,,,,,,z,1,0.7374,,,,,,,,0.041666667,-0.40625,0,0,0,,0,26,26,89,1,DRIEK,LB,old,z,./images/DRIEKLB.png,,,,,,,,,,,,,,,,,,,,,,,,,,,,,,,,,,,,
,,,,,,,,,,,,,,,,,5d0e88a255f0c70015345bdd,59,2022-02-12_13h44.02.915,lexical_decision_task_DD_L2,2021.2.3,Win32,60.60973392,,,,,,,,,,,0.8866,1,,,,,,,,,,,,,,z,1,0.8866,0.041666667,-0.40625,1,0,0,0.6826,,0.041666667,-0.40625,1,0,0,,0,27,27,158,1,EGECT,LB,old,z,./images/EGECTLB.png,,,,,,,,,,,,,,,,,,,,,,,,,,,,,,,,,,,,
,,,,,,,,,,,,,,,,,5d0e88a255f0c70015345bdd,59,2022-02-12_13h44.02.915,lexical_decision_task_DD_L2,2021.2.3,Win32,60.60973392,,,,,,,,,,,1.6956,1,,,,,,,,,,,,,,z,1,1.6956,,,,,,,,0.041666667,-0.40625,0,0,0,,0,28,28,166,1,SHORY,HB,old,z,./images/SHORYHB.png,,,,,,,,,,,,,,,,,,,,,,,,,,,,,,,,,,,,
,,,,,,,,,,,,,,,,,5d0e88a255f0c70015345bdd,59,2022-02-12_13h44.02.915,lexical_decision_task_DD_L2,2021.2.3,Win32,60.60973392,,,,,,,,,,,1.1108,1,,,,,,,,,,,,,,m,1,1.1108,,,,,,,,0.041666667,-0.40625,0,0,0,,0,29,29,57,1,MOOSE,HB,old,m,./images/MOOSEHB.png,,,,,,,,,,,,,,,,,,,,,,,,,,,,,,,,,,,,
,,,,,,,,,,,,,,,,,5d0e88a255f0c70015345bdd,59,2022-02-12_13h44.02.915,lexical_decision_task_DD_L2,2021.2.3,Win32,60.60973392,,,,,,,,,,,0.7578,1,,,,,,,,,,,,,,z,1,0.7578,0.041666667,-0.40625,1,0,0,0.4293,,0.041666667,-0.40625,0,0,0,,0,30,30,162,1,LEICH,C,old,z,./images/LEICH.png,,,,,,,,,,,,,,,,,,,,,,,,,,,,,,,,,,,,
,,,,,,,,,,,,,,,,,5d0e88a255f0c70015345bdd,59,2022-02-12_13h44.02.915,lexical_decision_task_DD_L2,2021.2.3,Win32,60.60973392,,,,,,,,,,,0.7105,1,,,,,,,,,,,,,,m,1,0.7105,,,,,,,,0.041666667,-0.40625,0,0,0,,0,31,31,3,1,FINGER,HB,old,m,./images/FINGERHB.png,,,,,,,,,,,,,,,,,,,,,,,,,,,,,,,,,,,,
,,,,,,,,,,,,,,,,,5d0e88a255f0c70015345bdd,59,2022-02-12_13h44.02.915,lexical_decision_task_DD_L2,2021.2.3,Win32,60.60973392,,,,,,,,,,,0.7795,1,,,,,,,,,,,,,,z,1,0.7795,,,,,,,,0.041666667,-0.40625,0,0,0,,0,32,32,87,1,TRING,C,old,z,./images/TRING.png,,,,,,,,,,,,,,,,,,,,,,,,,,,,,,,,,,,,
,,,,,,,,,,,,,,,,,5d0e88a255f0c70015345bdd,59,2022-02-12_13h44.02.915,lexical_decision_task_DD_L2,2021.2.3,Win32,60.60973392,,,,,,,,,,,1.0764,1,,,,,,,,,,,,,,z,1,1.0764,,,,,,,,0.041666667,-0.40625,0,0,0,,0,33,33,159,1,CUDDY,C,old,z,./images/CUDDY.png,,,,,,,,,,,,,,,,,,,,,,,,,,,,,,,,,,,,
,,,,,,,,,,,,,,,,,5d0e88a255f0c70015345bdd,59,2022-02-12_13h44.02.915,lexical_decision_task_DD_L2,2021.2.3,Win32,60.60973392,,,,,,,,,,,0.803,1,,,,,,,,,,,,,,z,1,0.803,,,,,,,,0.041666667,-0.40625,0,0,0,,0,34,34,114,1,RIKES,C,old,z,./images/RIKES.png,,,,,,,,,,,,,,,,,,,,,,,,,,,,,,,,,,,,
,,,,,,,,,,,,,,,,,5d0e88a255f0c70015345bdd,59,2022-02-12_13h44.02.915,lexical_decision_task_DD_L2,2021.2.3,Win32,60.60973392,,,,,,,,,,,1.0163,1,,,,,,,,,,,,,,z,1,1.0163,,,,,,,,0.041666667,-0.40625,0,0,0,,0,35,35,113,1,LINEW,LB,old,z,./images/LINEWLB.png,,,,,,,,,,,,,,,,,,,,,,,,,,,,,,,,,,,,
,,,,,,,,,,,,,,,,,5d0e88a255f0c70015345bdd,59,2022-02-12_13h44.02.915,lexical_decision_task_DD_L2,2021.2.3,Win32,60.60973392,,,,,,,,,,,0.6773,1,,,,,,,,,,,,,,m,1,0.6773,,,,,,,,0.041666667,-0.40625,0,0,0,,0,36,36,39,1,SHELF,HB,old,m,./images/SHELFHB.png,,,,,,,,,,,,,,,,,,,,,,,,,,,,,,,,,,,,
,,,,,,,,,,,,,,,,,5d0e88a255f0c70015345bdd,59,2022-02-12_13h44.02.915,lexical_decision_task_DD_L2,2021.2.3,Win32,60.60973392,,,,,,,,,,,0.6273,1,,,,,,,,,,,,,,m,1,0.6273,0.041666667,-0.40625,1,0,0,0.3545,,0.041666667,-0.40625,0,0,0,,0,37,37,74,1,CEMENT,C,old,m,./images/CEMENT.png,,,,,,,,,,,,,,,,,,,,,,,,,,,,,,,,,,,,
,,,,,,,,,,,,,,,,,5d0e88a255f0c70015345bdd,59,2022-02-12_13h44.02.915,lexical_decision_task_DD_L2,2021.2.3,Win32,60.60973392,,,,,,,,,,,0.6318,1,,,,,,,,,,,,,,m,1,0.6318,,,,,,,,0.041666667,-0.40625,0,0,0,,0,38,38,24,1,SCREW,HB,old,m,./images/SCREWHB.png,,,,,,,,,,,,,,,,,,,,,,,,,,,,,,,,,,,,
,,,,,,,,,,,,,,,,,5d0e88a255f0c70015345bdd,59,2022-02-12_13h44.02.915,lexical_decision_task_DD_L2,2021.2.3,Win32,60.60973392,,,,,,,,,,,0.6088,1,,,,,,,,,,,,,,m,1,0.6088,,,,,,,,0.041666667,-0.40625,0,0,0,,0,39,39,5,1,PASTA,C,old,m,./images/PASTA.png,,,,,,,,,,,,,,,,,,,,,,,,,,,,,,,,,,,,
,,,,,,,,,,,,,,,,,5d0e88a255f0c70015345bdd,59,2022-02-12_13h44.02.915,lexical_decision_task_DD_L2,2021.2.3,Win32,60.60973392,,,,,,,,,,,0.6213,1,,,,,,,,,,,,,,m,1,0.6213,,,,,,,,0.041666667,-0.40625,0,0,0,,0,40,40,27,1,ATTIC,HB,old,m,./images/ATTICHB.png,,,,,,,,,,,,,,,,,,,,,,,,,,,,,,,,,,,,
,,,,,,,,,,,,,,,,,5d0e88a255f0c70015345bdd,59,2022-02-12_13h44.02.915,lexical_decision_task_DD_L2,2021.2.3,Win32,60.60973392,,,,,,,,,,,0.4572,1,,,,,,,,,,,,,,m,1,0.4572,0.041666667,-0.40625,1,0,0,0.3809,,0.033854167,-0.411458333,1,0,0,,0,41,41,14,1,PICKLE,C,old,m,./images/PICKLE.png,break_done_button,,,,,,,,,,,,,,,,,,,,,,,,,,,,,,,,,,,
,,,,,,,,,,,,,,,,,5d0e88a255f0c70015345bdd,59,2022-02-12_13h44.02.915,lexical_decision_task_DD_L2,2021.2.3,Win32,60.60973392,,,,,,,,,,,1.9936,1,,,,,,,,,,,,,,m,1,1.9936,,,,,,,,0.033854167,-0.411458333,0,0,0,,0,42,42,56,1,PACKET,C,old,m,./images/PACKET.png,,,,,,,,,,,,,,,,,,,,,,,,,,,,,,,,,,,,
,,,,,,,,,,,,,,,,,5d0e88a255f0c70015345bdd,59,2022-02-12_13h44.02.915,lexical_decision_task_DD_L2,2021.2.3,Win32,60.60973392,,,,,,,,,,,0.7171,1,,,,,,,,,,,,,,z,1,0.7171,,,,,,,,0.033854167,-0.411458333,0,0,0,,0,43,43,155,1,CANGY,LB,old,z,./images/CANGYLB.png,,,,,,,,,,,,,,,,,,,,,,,,,,,,,,,,,,,,
,,,,,,,,,,,,,,,,,5d0e88a255f0c70015345bdd,59,2022-02-12_13h44.02.915,lexical_decision_task_DD_L2,2021.2.3,Win32,60.60973392,,,,,,,,,,,0.6995,0,,,,,,,,,,,,,,m,0,0.6995,,,,,,,,0.033854167,-0.411458333,0,0,0,,0,44,44,104,1,GITTY,LB,old,z,./images/GITTYLB.png,,,,,,,,,,,,,,,,,,,,,,,,,,,,,,,,,,,,
,,,,,,,,,,,,,,,,,5d0e88a255f0c70015345bdd,59,2022-02-12_13h44.02.915,lexical_decision_task_DD_L2,2021.2.3,Win32,60.60973392,,,,,,,,,,,0.9764,1,,,,,,,,,,,,,,z,1,0.9764,,,,,,,,0.033854167,-0.411458333,0,0,0,,0,45,45,131,1,NACES,LB,old,z,./images/NACESLB.png,,,,,,,,,,,,,,,,,,,,,,,,,,,,,,,,,,,,
,,,,,,,,,,,,,,,,,5d0e88a255f0c70015345bdd,59,2022-02-12_13h44.02.915,lexical_decision_task_DD_L2,2021.2.3,Win32,60.60973392,,,,,,,,,,,0.8075,1,,,,,,,,,,,,,,z,1,0.8075,,,,,,,,0.033854167,-0.411458333,0,0,0,,0,46,46,123,1,SEDGE,C,old,z,./images/SEDGE.png,,,,,,,,,,,,,,,,,,,,,,,,,,,,,,,,,,,,
,,,,,,,,,,,,,,,,,5d0e88a255f0c70015345bdd,59,2022-02-12_13h44.02.915,lexical_decision_task_DD_L2,2021.2.3,Win32,60.60973392,,,,,,,,,,,0.667,1,,,,,,,,,,,,,,m,1,0.667,,,,,,,,0.033854167,-0.411458333,0,0,0,,0,47,47,10,1,BELLY,LB,old,m,./images/BELLYLB.png,,,,,,,,,,,,,,,,,,,,,,,,,,,,,,,,,,,,
,,,,,,,,,,,,,,,,,5d0e88a255f0c70015345bdd,59,2022-02-12_13h44.02.915,lexical_decision_task_DD_L2,2021.2.3,Win32,60.60973392,,,,,,,,,,,1.8149,1,,,,,,,,,,,,,,z,1,1.8149,,,,,,,,0.033854167,-0.411458333,0,0,0,,0,48,48,157,1,INLER,HB,old,z,./images/INLERHB.png,,,,,,,,,,,,,,,,,,,,,,,,,,,,,,,,,,,,
,,,,,,,,,,,,,,,,,5d0e88a255f0c70015345bdd,59,2022-02-12_13h44.02.915,lexical_decision_task_DD_L2,2021.2.3,Win32,60.60973392,,,,,,,,,,,0.8333,1,,,,,,,,,,,,,,m,1,0.8333,,,,,,,,0.033854167,-0.411458333,0,0,0,,0,49,49,42,1,FOLDER,HB,old,m,./images/FOLDERHB.png,,,,,,,,,,,,,,,,,,,,,,,,,,,,,,,,,,,,
,,,,,,,,,,,,,,,,,5d0e88a255f0c70015345bdd,59,2022-02-12_13h44.02.915,lexical_decision_task_DD_L2,2021.2.3,Win32,60.60973392,,,,,,,,,,,0.858,1,,,,,,,,,,,,,,z,1,0.858,,,,,,,,0.033854167,-0.411458333,0,0,0,,0,50,50,134,1,TROSS,LB,old,z,./images/TROSSLB.png,,,,,,,,,,,,,,,,,,,,,,,,,,,,,,,,,,,,
,,,,,,,,,,,,,,,,,5d0e88a255f0c70015345bdd,59,2022-02-12_13h44.02.915,lexical_decision_task_DD_L2,2021.2.3,Win32,60.60973392,,,,,,,,,,,0.6665,1,,,,,,,,,,,,,,m,1,0.6665,,,,,,,,0.033854167,-0.411458333,0,0,0,,0,51,51,76,1,INFANT,LB,old,m,./images/INFANTLB.png,,,,,,,,,,,,,,,,,,,,,,,,,,,,,,,,,,,,
,,,,,,,,,,,,,,,,,5d0e88a255f0c70015345bdd,59,2022-02-12_13h44.02.915,lexical_decision_task_DD_L2,2021.2.3,Win32,60.60973392,,,,,,,,,,,0.7949,1,,,,,,,,,,,,,,z,1,0.7949,,,,,,,,0.033854167,-0.411458333,0,0,0,,0,52,52,143,1,MONGS,LB,old,z,./images/MONGSLB.png,,,,,,,,,,,,,,,,,,,,,,,,,,,,,,,,,,,,
,,,,,,,,,,,,,,,,,5d0e88a255f0c70015345bdd,59,2022-02-12_13h44.02.915,lexical_decision_task_DD_L2,2021.2.3,Win32,60.60973392,,,,,,,,,,,0.9499,1,,,,,,,,,,,,,,z,1,0.9499,,,,,,,,0.033854167,-0.411458333,0,0,0,,0,53,53,149,1,VEASE,LB,old,z,./images/VEASELB.png,,,,,,,,,,,,,,,,,,,,,,,,,,,,,,,,,,,,
,,,,,,,,,,,,,,,,,5d0e88a255f0c70015345bdd,59,2022-02-12_13h44.02.915,lexical_decision_task_DD_L2,2021.2.3,Win32,60.60973392,,,,,,,,,,,0.7246,1,,,,,,,,,,,,,,z,1,0.7246,,,,,,,,0.033854167,-0.411458333,0,0,0,,0,54,54,132,1,SCIFF,C,old,z,./images/SCIFF.png,,,,,,,,,,,,,,,,,,,,,,,,,,,,,,,,,,,,
,,,,,,,,,,,,,,,,,5d0e88a255f0c70015345bdd,59,2022-02-12_13h44.02.915,lexical_decision_task_DD_L2,2021.2.3,Win32,60.60973392,,,,,,,,,,,2.529,0,,,,,,,,,,,,,,m,0,2.529,,,,,,,,0.033854167,-0.411458333,0,0,0,,0,55,55,109,1,BURGE,HB,old,z,./images/BURGEHB.png,,,,,,,,,,,,,,,,,,,,,,,,,,,,,,,,,,,,
,,,,,,,,,,,,,,,,,5d0e88a255f0c70015345bdd,59,2022-02-12_13h44.02.915,lexical_decision_task_DD_L2,2021.2.3,Win32,60.60973392,,,,,,,,,,,0.6614,1,,,,,,,,,,,,,,m,1,0.6614,,,,,,,,0.033854167,-0.411458333,0,0,0,,0,56,56,32,1,BARREL,C,old,m,./images/BARREL.png,,,,,,,,,,,,,,,,,,,,,,,,,,,,,,,,,,,,
,,,,,,,,,,,,,,,,,5d0e88a255f0c70015345bdd,59,2022-02-12_13h44.02.915,lexical_decision_task_DD_L2,2021.2.3,Win32,60.60973392,,,,,,,,,,,0.6875,1,,,,,,,,,,,,,,m,1,0.6875,,,,,,,,0.033854167,-0.411458333,0,0,0,,0,57,57,40,1,SWING,LB,old,m,./images/SWINGLB.png,,,,,,,,,,,,,,,,,,,,,,,,,,,,,,,,,,,,
,,,,,,,,,,,,,,,,,5d0e88a255f0c70015345bdd,59,2022-02-12_13h44.02.915,lexical_decision_task_DD_L2,2021.2.3,Win32,60.60973392,,,,,,,,,,,0.7218,1,,,,,,,,,,,,,,z,1,0.7218,,,,,,,,0.033854167,-0.411458333,0,0,0,,0,58,58,129,1,PRANS,C,old,z,./images/PRANS.png,,,,,,,,,,,,,,,,,,,,,,,,,,,,,,,,,,,,
,,,,,,,,,,,,,,,,,5d0e88a255f0c70015345bdd,59,2022-02-12_13h44.02.915,lexical_decision_task_DD_L2,2021.2.3,Win32,60.60973392,,,,,,,,,,,0.5441,1,,,,,,,,,,,,,,m,1,0.5441,,,,,,,,0.033854167,-0.411458333,0,0,0,,0,59,59,79,1,CRUST,LB,old,m,./images/CRUSTLB.png,,,,,,,,,,,,,,,,,,,,,,,,,,,,,,,,,,,,
,,,,,,,,,,,,,,,,,5d0e88a255f0c70015345bdd,59,2022-02-12_13h44.02.915,lexical_decision_task_DD_L2,2021.2.3,Win32,60.60973392,,,,,,,,,,,1.2098,0,,,,,,,,,,,,,,m,0,1.2098,,,,,,,,0.037760417,-0.4140625,0,0,0,,0,60,60,142,1,PLASK,HB,old,z,./images/PLASKHB.png,,,,,,,,,,,,,,,,,,,,,,,,,,,,,,,,,,,,
,,,,,,,,,,,,,,,,,5d0e88a255f0c70015345bdd,59,2022-02-12_13h44.02.915,lexical_decision_task_DD_L2,2021.2.3,Win32,60.60973392,,,,,,,,,,,0.5976,1,,,,,,,,,,,,,,m,1,0.5976,,,,,,,,0.037760417,-0.4140625,0,0,0,,0,61,61,70,1,URINE,LB,old,m,./images/URINELB.png,,,,,,,,,,,,,,,,,,,,,,,,,,,,,,,,,,,,
,,,,,,,,,,,,,,,,,5d0e88a255f0c70015345bdd,59,2022-02-12_13h44.02.915,lexical_decision_task_DD_L2,2021.2.3,Win32,60.60973392,,,,,,,,,,,0.5626,1,,,,,,,,,,,,,,m,1,0.5626,,,,,,,,0.037760417,-0.4140625,0,0,0,,0,62,62,2,1,BEARD,C,old,m,./images/BEARD.png,,,,,,,,,,,,,,,,,,,,,,,,,,,,,,,,,,,,
,,,,,,,,,,,,,,,,,5d0e88a255f0c70015345bdd,59,2022-02-12_13h44.02.915,lexical_decision_task_DD_L2,2021.2.3,Win32,60.60973392,,,,,,,,,,,0.7335,1,,,,,,,,,,,,,,m,1,0.7335,,,,,,,,0.037760417,-0.4140625,0,0,0,,0,63,63,63,1,MIRROR,HB,old,m,./images/MIRRORHB.png,,,,,,,,,,,,,,,,,,,,,,,,,,,,,,,,,,,,
,,,,,,,,,,,,,,,,,5d0e88a255f0c70015345bdd,59,2022-02-12_13h44.02.915,lexical_decision_task_DD_L2,2021.2.3,Win32,60.60973392,,,,,,,,,,,1.2003,1,,,,,,,,,,,,,,m,1,1.2003,,,,,,,,0.037760417,-0.4140625,0,0,0,,0,64,64,9,1,RHINO,HB,old,m,./images/RHINOHB.png,,,,,,,,,,,,,,,,,,,,,,,,,,,,,,,,,,,,
,,,,,,,,,,,,,,,,,5d0e88a255f0c70015345bdd,59,2022-02-12_13h44.02.915,lexical_decision_task_DD_L2,2021.2.3,Win32,60.60973392,,,,,,,,,,,0.8166,1,,,,,,,,,,,,,,z,1,0.8166,,,,,,,,0.037760417,-0.4140625,0,0,0,,0,65,65,151,1,TINKY,HB,old,z,./images/TINKYHB.png,,,,,,,,,,,,,,,,,,,,,,,,,,,,,,,,,,,,
,,,,,,,,,,,,,,,,,5d0e88a255f0c70015345bdd,59,2022-02-12_13h44.02.915,lexical_decision_task_DD_L2,2021.2.3,Win32,60.60973392,,,,,,,,,,,0.8108,1,,,,,,,,,,,,,,m,1,0.8108,,,,,,,,0.037760417,-0.4140625,0,0,0,,0,66,66,45,1,KITTEN,HB,old,m,./images/KITTENHB.png,,,,,,,,,,,,,,,,,,,,,,,,,,,,,,,,,,,,
,,,,,,,,,,,,,,,,,5d0e88a255f0c70015345bdd,59,2022-02-12_13h44.02.915,lexical_decision_task_DD_L2,2021.2.3,Win32,60.60973392,,,,,,,,,,,0.5337,1,,,,,,,,,,,,,,m,1,0.5337,,,,,,,,0.037760417,-0.4140625,0,0,0,,0,67,67,83,1,JUNGLE,C,old,m,./images/JUNGLE.png,,,,,,,,,,,,,,,,,,,,,,,,,,,,,,,,,,,,
,,,,,,,,,,,,,,,,,5d0e88a255f0c70015345bdd,59,2022-02-12_13h44.02.915,lexical_decision_task_DD_L2,2021.2.3,Win32,60.60973392,,,,,,,,,,,0.8641,1,,,,,,,,,,,,,,z,1,0.8641,,,,,,,,0.037760417,-0.4140625,0,0,0,,0,68,68,165,1,TROWN,C,old,z,./images/TROWN.png,,,,,,,,,,,,,,,,,,,,,,,,,,,,,,,,,,,,
,,,,,,,,,,,,,,,,,5d0e88a255f0c70015345bdd,59,2022-02-12_13h44.02.915,lexical_decision_task_DD_L2,2021.2.3,Win32,60.60973392,,,,,,,,,,,0.5645,1,,,,,,,,,,,,,,z,1,0.5645,,,,,,,,0.037760417,-0.4140625,0,0,0,,0,69,69,120,1,RINED,C,old,z,./images/RINED.png,,,,,,,,,,,,,,,,,,,,,,,,,,,,,,,,,,,,
,,,,,,,,,,,,,,,,,5d0e88a255f0c70015345bdd,59,2022-02-12_13h44.02.915,lexical_decision_task_DD_L2,2021.2.3,Win32,60.60973392,,,,,,,,,,,0.6241,1,,,,,,,,,,,,,,m,1,0.6241,,,,,,,,0.037760417,-0.4140625,0,0,0,,0,70,70,71,1,PIMPLE,C,old,m,./images/PIMPLE.png,,,,,,,,,,,,,,,,,,,,,,,,,,,,,,,,,,,,
,,,,,,,,,,,,,,,,,5d0e88a255f0c70015345bdd,59,2022-02-12_13h44.02.915,lexical_decision_task_DD_L2,2021.2.3,Win32,60.60973392,,,,,,,,,,,0.6674,1,,,,,,,,,,,,,,m,1,0.6674,,,,,,,,0.037760417,-0.4140625,0,0,0,,0,71,71,12,1,SHORE,HB,old,m,./images/SHOREHB.png,,,,,,,,,,,,,,,,,,,,,,,,,,,,,,,,,,,,
,,,,,,,,,,,,,,,,,5d0e88a255f0c70015345bdd,59,2022-02-12_13h44.02.915,lexical_decision_task_DD_L2,2021.2.3,Win32,60.60973392,,,,,,,,,,,0.7579,1,,,,,,,,,,,,,,z,1,0.7579,,,,,,,,0.037760417,-0.4140625,0,0,0,,0,72,72,144,1,NAIRY,C,old,z,./images/NAIRY.png,,,,,,,,,,,,,,,,,,,,,,,,,,,,,,,,,,,,
,,,,,,,,,,,,,,,,,5d0e88a255f0c70015345bdd,59,2022-02-12_13h44.02.915,lexical_decision_task_DD_L2,2021.2.3,Win32,60.60973392,,,,,,,,,,,0.9482,1,,,,,,,,,,,,,,z,1,0.9482,,,,,,,,0.037760417,-0.4140625,0,0,0,,0,73,73,167,1,ZONET,LB,old,z,./images/ZONETLB.png,,,,,,,,,,,,,,,,,,,,,,,,,,,,,,,,,,,,
,,,,,,,,,,,,,,,,,5d0e88a255f0c70015345bdd,59,2022-02-12_13h44.02.915,lexical_decision_task_DD_L2,2021.2.3,Win32,60.60973392,,,,,,,,,,,0.6625,1,,,,,,,,,,,,,,m,1,0.6625,,,,,,,,0.037760417,-0.4140625,0,0,0,,0,74,74,11,1,BONNET,C,old,m,./images/BONNET.png,,,,,,,,,,,,,,,,,,,,,,,,,,,,,,,,,,,,
,,,,,,,,,,,,,,,,,5d0e88a255f0c70015345bdd,59,2022-02-12_13h44.02.915,lexical_decision_task_DD_L2,2021.2.3,Win32,60.60973392,,,,,,,,,,,0.7002,1,,,,,,,,,,,,,,z,1,0.7002,,,,,,,,0.037760417,-0.4140625,0,0,0,,0,75,75,101,1,GLEET,LB,old,z,./images/GLEETLB.png,,,,,,,,,,,,,,,,,,,,,,,,,,,,,,,,,,,,
,,,,,,,,,,,,,,,,,5d0e88a255f0c70015345bdd,59,2022-02-12_13h44.02.915,lexical_decision_task_DD_L2,2021.2.3,Win32,60.60973392,,,,,,,,,,,0.5507,1,,,,,,,,,,,,,,m,1,0.5507,,,,,,,,0.037760417,-0.4140625,0,0,0,,0,76,76,7,1,PAINT,LB,old,m,./images/PAINTLB.png,,,,,,,,,,,,,,,,,,,,,,,,,,,,,,,,,,,,
,,,,,,,,,,,,,,,,,5d0e88a255f0c70015345bdd,59,2022-02-12_13h44.02.915,lexical_decision_task_DD_L2,2021.2.3,Win32,60.60973392,,,,,,,,,,,0.6765,1,,,,,,,,,,,,,,m,1,0.6765,,,,,,,,0.037760417,-0.4140625,0,0,0,,0,77,77,67,1,SAILOR,LB,old,m,./images/SAILORLB.png,,,,,,,,,,,,,,,,,,,,,,,,,,,,,,,,,,,,
,,,,,,,,,,,,,,,,,5d0e88a255f0c70015345bdd,59,2022-02-12_13h44.02.915,lexical_decision_task_DD_L2,2021.2.3,Win32,60.60973392,,,,,,,,,,,0.6962,1,,,,,,,,,,,,,,z,1,0.6962,,,,,,,,0.037760417,-0.4140625,0,0,0,,0,78,78,105,1,MOKER,C,old,z,./images/MOKER.png,,,,,,,,,,,,,,,,,,,,,,,,,,,,,,,,,,,,
,,,,,,,,,,,,,,,,,5d0e88a255f0c70015345bdd,59,2022-02-12_13h44.02.915,lexical_decision_task_DD_L2,2021.2.3,Win32,60.60973392,,,,,,,,,,,0.6581,1,,,,,,,,,,,,,,z,1,0.6581,,,,,,,,0.037760417,-0.4140625,0,0,0,,0,79,79,108,1,GRUET,C,old,z,./images/GRUET.png,,,,,,,,,,,,,,,,,,,,,,,,,,,,,,,,,,,,
,,,,,,,,,,,,,,,,,5d0e88a255f0c70015345bdd,59,2022-02-12_13h44.02.915,lexical_decision_task_DD_L2,2021.2.3,Win32,60.60973392,,,,,,,,,,,0.6787,1,,,,,,,,,,,,,,m,1,0.6787,,,,,,,,0.037760417,-0.4140625,0,0,0,,0,80,80,8,1,TULIP,C,old,m,./images/TULIP.png,,,,,,,,,,,,,,,,,,,,,,,,,,,,,,,,,,,,
,,,,,,,,,,,,,,,,,5d0e88a255f0c70015345bdd,59,2022-02-12_13h44.02.915,lexical_decision_task_DD_L2,2021.2.3,Win32,60.60973392,,,,,,,,,,,0.9936,1,,,,,,,,,,,,,,m,1,0.9936,,,,,,,,0.037760417,-0.4140625,0,0,0,,0,81,81,54,1,TRIPOD,HB,old,m,./images/TRIPODHB.png,,,,,,,,,,,,,,,,,,,,,,,,,,,,,,,,,,,,
,,,,,,,,,,,,,,,,,5d0e88a255f0c70015345bdd,59,2022-02-12_13h44.02.915,lexical_decision_task_DD_L2,2021.2.3,Win32,60.60973392,,,,,,,,,,,0.5812,1,,,,,,,,,,,,,,m,1,0.5812,,,,,,,,0.037760417,-0.4140625,0,0,0,,0,82,82,49,1,DRUMS,LB,old,m,./images/DRUMSLB.png,,,,,,,,,,,,,,,,,,,,,,,,,,,,,,,,,,,,
,,,,,,,,,,,,,,,,,5d0e88a255f0c70015345bdd,59,2022-02-12_13h44.02.915,lexical_decision_task_DD_L2,2021.2.3,Win32,60.60973392,,,,,,,,,,,1.6444,1,,,,,,,,,,,,,,z,1,1.6444,,,,,,,,0.037760417,-0.415364583,0,0,0,space,0,83,83,127,1,NINDY,HB,old,z,./images/NINDYHB.png,,15.2964,,,,,,,,,,,,,,,,,,,,,,,,,,,,,,,,,,
,,,,,,,,,,,,,,,,,5d0e88a255f0c70015345bdd,59,2022-02-12_13h44.02.915,lexical_decision_task_DD_L2,2021.2.3,Win32,60.60973392,,,,,,,,,,,1.4268,1,,,,,,,,,,,,,,z,1,1.4268,,,,,,,,0.037760417,-0.415364583,0,0,0,,0,84,84,125,1,MOOKY,LB,old,z,./images/MOOKYLB.png,,,,,,,,,,,,,,,,,,,,,,,,,,,,,,,,,,,,
,,,,,,,,,,,,,,,,,5d0e88a255f0c70015345bdd,59,2022-02-12_13h44.02.915,lexical_decision_task_DD_L2,2021.2.3,Win32,60.60973392,,,,,,,,,,,2.1665,1,,,,,,,,,,,,,,z,1,2.1665,,,,,,,,0.037760417,-0.415364583,0,0,0,,0,85,85,97,1,CHIDS,HB,old,z,./images/CHIDSHB.png,,,,,,,,,,,,,,,,,,,,,,,,,,,,,,,,,,,,
,,,,,,,,,,,,,,,,,5d0e88a255f0c70015345bdd,59,2022-02-12_13h44.02.915,lexical_decision_task_DD_L2,2021.2.3,Win32,60.60973392,,,,,,,,,,,0.7658,1,,,,,,,,,,,,,,m,1,0.7658,,,,,,,,0.037760417,-0.415364583,0,0,0,,0,86,86,80,1,WEASEL,C,old,m,./images/WEASEL.png,,,,,,,,,,,,,,,,,,,,,,,,,,,,,,,,,,,,
,,,,,,,,,,,,,,,,,5d0e88a255f0c70015345bdd,59,2022-02-12_13h44.02.915,lexical_decision_task_DD_L2,2021.2.3,Win32,60.60973392,,,,,,,,,,,0.5374,1,,,,,,,,,,,,,,m,1,0.5374,,,,,,,,0.037760417,-0.415364583,0,0,0,,0,87,87,38,1,LADDER,C,old,m,./images/LADDER.png,,,,,,,,,,,,,,,,,,,,,,,,,,,,,,,,,,,,
,,,,,,,,,,,,,,,,,5d0e88a255f0c70015345bdd,59,2022-02-12_13h44.02.915,lexical_decision_task_DD_L2,2021.2.3,Win32,60.60973392,,,,,,,,,,,0.7419,1,,,,,,,,,,,,,,z,1,0.7419,,,,,,,,0.037760417,-0.415364583,0,0,0,,0,88,88,138,1,PLICE,C,old,z,./images/PLICE.png,,,,,,,,,,,,,,,,,,,,,,,,,,,,,,,,,,,,
,,,,,,,,,,,,,,,,,5d0e88a255f0c70015345bdd,59,2022-02-12_13h44.02.915,lexical_decision_task_DD_L2,2021.2.3,Win32,60.60973392,,,,,,,,,,,0.7725,1,,,,,,,,,,,,,,z,1,0.7725,,,,,,,,0.037760417,-0.415364583,0,0,0,,0,89,89,90,1,NEAST,C,old,z,./images/NEAST.png,,,,,,,,,,,,,,,,,,,,,,,,,,,,,,,,,,,,
,,,,,,,,,,,,,,,,,5d0e88a255f0c70015345bdd,59,2022-02-12_13h44.02.915,lexical_decision_task_DD_L2,2021.2.3,Win32,60.60973392,,,,,,,,,,,0.6301,1,,,,,,,,,,,,,,m,1,0.6301,,,,,,,,0.037760417,-0.415364583,0,0,0,,0,90,90,18,1,JAGUAR,HB,old,m,./images/JAGUARHB.png,,,,,,,,,,,,,,,,,,,,,,,,,,,,,,,,,,,,
,,,,,,,,,,,,,,,,,5d0e88a255f0c70015345bdd,59,2022-02-12_13h44.02.915,lexical_decision_task_DD_L2,2021.2.3,Win32,60.60973392,,,,,,,,,,,0.9443,1,,,,,,,,,,,,,,m,1,0.9443,,,,,,,,0.037760417,-0.415364583,0,0,0,,0,91,91,81,1,POODLE,HB,old,m,./images/POODLEHB.png,,,,,,,,,,,,,,,,,,,,,,,,,,,,,,,,,,,,
,,,,,,,,,,,,,,,,,5d0e88a255f0c70015345bdd,59,2022-02-12_13h44.02.915,lexical_decision_task_DD_L2,2021.2.3,Win32,60.60973392,,,,,,,,,,,1.6648,0,,,,,,,,,,,,,,z,0,1.6648,,,,,,,,0.037760417,-0.415364583,0,0,0,,0,92,92,33,1,MAGGOT,HB,old,m,./images/MAGGOTHB.png,,,,,,,,,,,,,,,,,,,,,,,,,,,,,,,,,,,,
,,,,,,,,,,,,,,,,,5d0e88a255f0c70015345bdd,59,2022-02-12_13h44.02.915,lexical_decision_task_DD_L2,2021.2.3,Win32,60.60973392,,,,,,,,,,,1.1376,1,,,,,,,,,,,,,,z,1,1.1376,,,,,,,,0.037760417,-0.415364583,0,0,0,,0,93,93,124,1,TUNCH,HB,old,z,./images/TUNCHHB.png,,,,,,,,,,,,,,,,,,,,,,,,,,,,,,,,,,,,
,,,,,,,,,,,,,,,,,5d0e88a255f0c70015345bdd,59,2022-02-12_13h44.02.915,lexical_decision_task_DD_L2,2021.2.3,Win32,60.60973392,,,,,,,,,,,1.0932,1,,,,,,,,,,,,,,z,1,1.0932,,,,,,,,0.037760417,-0.415364583,0,0,0,,0,94,94,164,1,SGREW,LB,old,z,./images/SGREWLB.png,,,,,,,,,,,,,,,,,,,,,,,,,,,,,,,,,,,,
,,,,,,,,,,,,,,,,,5d0e88a255f0c70015345bdd,59,2022-02-12_13h44.02.915,lexical_decision_task_DD_L2,2021.2.3,Win32,60.60973392,,,,,,,,,,,0.727,1,,,,,,,,,,,,,,m,1,0.727,,,,,,,,0.037760417,-0.415364583,0,0,0,,0,95,95,21,1,KIDNEY,HB,old,m,./images/KIDNEYHB.png,,,,,,,,,,,,,,,,,,,,,,,,,,,,,,,,,,,,
,,,,,,,,,,,,,,,,,5d0e88a255f0c70015345bdd,59,2022-02-12_13h44.02.915,lexical_decision_task_DD_L2,2021.2.3,Win32,60.60973392,,,,,,,,,,,1.6948,1,,,,,,,,,,,,,,z,1,1.6948,,,,,,,,0.037760417,-0.415364583,0,0,0,,0,96,96,136,1,WERVE,HB,old,z,./images/WERVEHB.png,,,,,,,,,,,,,,,,,,,,,,,,,,,,,,,,,,,,
,,,,,,,,,,,,,,,,,5d0e88a255f0c70015345bdd,59,2022-02-12_13h44.02.915,lexical_decision_task_DD_L2,2021.2.3,Win32,60.60973392,,,,,,,,,,,0.6332,1,,,,,,,,,,,,,,m,1,0.6332,,,,,,,,0.037760417,-0.415364583,0,0,0,,0,97,97,65,1,FARMER,C,old,m,./images/FARMER.png,,,,,,,,,,,,,,,,,,,,,,,,,,,,,,,,,,,,
,,,,,,,,,,,,,,,,,5d0e88a255f0c70015345bdd,59,2022-02-12_13h44.02.915,lexical_decision_task_DD_L2,2021.2.3,Win32,60.60973392,,,,,,,,,,,0.768,1,,,,,,,,,,,,,,z,1,0.768,,,,,,,,0.037760417,-0.415364583,0,0,0,,0,98,98,107,1,FASKS,LB,old,z,./images/FASKSLB.png,,,,,,,,,,,,,,,,,,,,,,,,,,,,,,,,,,,,
,,,,,,,,,,,,,,,,,5d0e88a255f0c70015345bdd,59,2022-02-12_13h44.02.915,lexical_decision_task_DD_L2,2021.2.3,Win32,60.60973392,,,,,,,,,,,0.7892,1,,,,,,,,,,,,,,m,1,0.7892,,,,,,,,0.037760417,-0.415364583,0,0,0,,0,99,99,15,1,GREASE,HB,old,m,./images/GREASEHB.png,,,,,,,,,,,,,,,,,,,,,,,,,,,,,,,,,,,,
,,,,,,,,,,,,,,,,,5d0e88a255f0c70015345bdd,59,2022-02-12_13h44.02.915,lexical_decision_task_DD_L2,2021.2.3,Win32,60.60973392,,,,,,,,,,,0.5782,1,,,,,,,,,,,,,,m,1,0.5782,,,,,,,,0.037760417,-0.415364583,0,0,0,,0,100,100,13,1,MOTOR,LB,old,m,./images/MOTORLB.png,,,,,,,,,,,,,,,,,,,,,,,,,,,,,,,,,,,,
,,,,,,,,,,,,,,,,,5d0e88a255f0c70015345bdd,59,2022-02-12_13h44.02.915,lexical_decision_task_DD_L2,2021.2.3,Win32,60.60973392,,,,,,,,,,,0.778,1,,,,,,,,,,,,,,z,1,0.778,,,,,,,,0.037760417,-0.415364583,0,0,0,,0,101,101,160,1,VEETS,HB,old,z,./images/VEETSHB.png,,,,,,,,,,,,,,,,,,,,,,,,,,,,,,,,,,,,
,,,,,,,,,,,,,,,,,5d0e88a255f0c70015345bdd,59,2022-02-12_13h44.02.915,lexical_decision_task_DD_L2,2021.2.3,Win32,60.60973392,,,,,,,,,,,0.9504,1,,,,,,,,,,,,,,z,1,0.9504,,,,,,,,0.037760417,-0.415364583,0,0,0,,0,102,102,91,1,SHENS,HB,old,z,./images/SHENSHB.png,,,,,,,,,,,,,,,,,,,,,,,,,,,,,,,,,,,,
,,,,,,,,,,,,,,,,,5d0e88a255f0c70015345bdd,59,2022-02-12_13h44.02.915,lexical_decision_task_DD_L2,2021.2.3,Win32,60.60973392,,,,,,,,,,,0.9825,1,,,,,,,,,,,,,,z,1,0.9825,,,,,,,,0.037760417,-0.415364583,0,0,0,,0,103,103,156,1,HIXES,C,old,z,./images/HIXES.png,,,,,,,,,,,,,,,,,,,,,,,,,,,,,,,,,,,,
,,,,,,,,,,,,,,,,,5d0e88a255f0c70015345bdd,59,2022-02-12_13h44.02.915,lexical_decision_task_DD_L2,2021.2.3,Win32,60.60973392,,,,,,,,,,,0.7596,1,,,,,,,,,,,,,,m,1,0.7596,,,,,,,,0.037760417,-0.415364583,0,0,0,,0,104,104,78,1,LITTER,HB,old,m,./images/LITTERHB.png,,,,,,,,,,,,,,,,,,,,,,,,,,,,,,,,,,,,
,,,,,,,,,,,,,,,,,5d0e88a255f0c70015345bdd,59,2022-02-12_13h44.02.915,lexical_decision_task_DD_L2,2021.2.3,Win32,60.60973392,,,,,,,,,,,0.6647,1,,,,,,,,,,,,,,m,1,0.6647,,,,,,,,0.037760417,-0.415364583,0,0,0,,0,105,105,29,1,CRUMB,C,old,m,./images/CRUMB.png,,,,,,,,,,,,,,,,,,,,,,,,,,,,,,,,,,,,
,,,,,,,,,,,,,,,,,5d0e88a255f0c70015345bdd,59,2022-02-12_13h44.02.915,lexical_decision_task_DD_L2,2021.2.3,Win32,60.60973392,,,,,,,,,,,0.5666,1,,,,,,,,,,,,,,m,1,0.5666,,,,,,,,0.037760417,-0.415364583,0,0,0,,0,106,106,16,1,PENCE,LB,old,m,./images/PENCELB.png,,,,,,,,,,,,,,,,,,,,,,,,,,,,,,,,,,,,
,,,,,,,,,,,,,,,,,5d0e88a255f0c70015345bdd,59,2022-02-12_13h44.02.915,lexical_decision_task_DD_L2,2021.2.3,Win32,60.60973392,,,,,,,,,,,1.1319,1,,,,,,,,,,,,,,z,1,1.1319,,,,,,,,0.037760417,-0.415364583,0,0,0,,0,107,107,121,1,CEERS,HB,old,z,./images/CEERSHB.png,,,,,,,,,,,,,,,,,,,,,,,,,,,,,,,,,,,,
,,,,,,,,,,,,,,,,,5d0e88a255f0c70015345bdd,59,2022-02-12_13h44.02.915,lexical_decision_task_DD_L2,2021.2.3,Win32,60.60973392,,,,,,,,,,,0.7113,1,,,,,,,,,,,,,,m,1,0.7113,,,,,,,,0.037760417,-0.415364583,0,0,0,,0,108,108,61,1,CANDLE,LB,old,m,./images/CANDLELB.png,,,,,,,,,,,,,,,,,,,,,,,,,,,,,,,,,,,,
,,,,,,,,,,,,,,,,,5d0e88a255f0c70015345bdd,59,2022-02-12_13h44.02.915,lexical_decision_task_DD_L2,2021.2.3,Win32,60.60973392,,,,,,,,,,,0.766,1,,,,,,,,,,,,,,z,1,0.766,,,,,,,,0.037760417,-0.415364583,0,0,0,,0,109,109,96,1,KEAMS,C,old,z,./images/KEAMS.png,,,,,,,,,,,,,,,,,,,,,,,,,,,,,,,,,,,,
,,,,,,,,,,,,,,,,,5d0e88a255f0c70015345bdd,59,2022-02-12_13h44.02.915,lexical_decision_task_DD_L2,2021.2.3,Win32,60.60973392,,,,,,,,,,,1.0165,1,,,,,,,,,,,,,,m,1,1.0165,,,,,,,,0.037760417,-0.415364583,0,0,0,,0,110,110,58,1,BABOON,LB,old,m,./images/BABOONLB.png,,,,,,,,,,,,,,,,,,,,,,,,,,,,,,,,,,,,
,,,,,,,,,,,,,,,,,5d0e88a255f0c70015345bdd,59,2022-02-12_13h44.02.915,lexical_decision_task_DD_L2,2021.2.3,Win32,60.60973392,,,,,,,,,,,0.7708,1,,,,,,,,,,,,,,m,1,0.7708,,,,,,,,0.037760417,-0.415364583,0,0,0,,0,111,111,48,1,SPORT,HB,old,m,./images/SPORTHB.png,,,,,,,,,,,,,,,,,,,,,,,,,,,,,,,,,,,,
,,,,,,,,,,,,,,,,,5d0e88a255f0c70015345bdd,59,2022-02-12_13h44.02.915,lexical_decision_task_DD_L2,2021.2.3,Win32,60.60973392,,,,,,,,,,,0.751,1,,,,,,,,,,,,,,z,1,0.751,,,,,,,,0.037760417,-0.415364583,0,0,0,,0,112,112,152,1,FRAIN,LB,old,z,./images/FRAINLB.png,,,,,,,,,,,,,,,,,,,,,,,,,,,,,,,,,,,,
,,,,,,,,,,,,,,,,,5d0e88a255f0c70015345bdd,59,2022-02-12_13h44.02.915,lexical_decision_task_DD_L2,2021.2.3,Win32,60.60973392,,,,,,,,,,,0.9617,1,,,,,,,,,,,,,,z,1,0.9617,,,,,,,,0.037760417,-0.415364583,0,0,0,,0,113,113,92,1,PAIMS,LB,old,z,./images/PAIMSLB.png,,,,,,,,,,,,,,,,,,,,,,,,,,,,,,,,,,,,
,,,,,,,,,,,,,,,,,5d0e88a255f0c70015345bdd,59,2022-02-12_13h44.02.915,lexical_decision_task_DD_L2,2021.2.3,Win32,60.60973392,,,,,,,,,,,0.645,1,,,,,,,,,,,,,,m,1,0.645,,,,,,,,0.037760417,-0.415364583,0,0,0,,0,114,114,20,1,CRADLE,C,old,m,./images/CRADLE.png,,,,,,,,,,,,,,,,,,,,,,,,,,,,,,,,,,,,
,,,,,,,,,,,,,,,,,5d0e88a255f0c70015345bdd,59,2022-02-12_13h44.02.915,lexical_decision_task_DD_L2,2021.2.3,Win32,60.60973392,,,,,,,,,,,0.8659,1,,,,,,,,,,,,,,z,1,0.8659,,,,,,,,0.037760417,-0.415364583,0,0,0,,0,115,115,119,1,PAFER,LB,old,z,./images/PAFERLB.png,,,,,,,,,,,,,,,,,,,,,,,,,,,,,,,,,,,,
,,,,,,,,,,,,,,,,,5d0e88a255f0c70015345bdd,59,2022-02-12_13h44.02.915,lexical_decision_task_DD_L2,2021.2.3,Win32,60.60973392,,,,,,,,,,,0.7406,1,,,,,,,,,,,,,,z,1,0.7406,,,,,,,,0.037760417,-0.415364583,0,0,0,,0,116,116,147,1,ZOLES,C,old,z,./images/ZOLES.png,,,,,,,,,,,,,,,,,,,,,,,,,,,,,,,,,,,,
,,,,,,,,,,,,,,,,,5d0e88a255f0c70015345bdd,59,2022-02-12_13h44.02.915,lexical_decision_task_DD_L2,2021.2.3,Win32,60.60973392,,,,,,,,,,,0.8833,1,,,,,,,,,,,,,,m,1,0.8833,,,,,,,,0.037760417,-0.415364583,0,0,0,,0,117,117,82,1,SUNSET,LB,old,m,./images/SUNSETLB.png,,,,,,,,,,,,,,,,,,,,,,,,,,,,,,,,,,,,
,,,,,,,,,,,,,,,,,5d0e88a255f0c70015345bdd,59,2022-02-12_13h44.02.915,lexical_decision_task_DD_L2,2021.2.3,Win32,60.60973392,,,,,,,,,,,0.792,1,,,,,,,,,,,,,,z,1,0.792,,,,,,,,0.037760417,-0.415364583,0,0,0,,0,118,118,93,1,SMONE,C,old,z,./images/SMONE.png,,,,,,,,,,,,,,,,,,,,,,,,,,,,,,,,,,,,
,,,,,,,,,,,,,,,,,5d0e88a255f0c70015345bdd,59,2022-02-12_13h44.02.915,lexical_decision_task_DD_L2,2021.2.3,Win32,60.60973392,,,,,,,,,,,1.5156,1,,,,,,,,,,,,,,z,1,1.5156,,,,,,,,0.037760417,-0.415364583,0,0,0,,0,119,119,139,1,BLEAR,HB,old,z,./images/BLEARHB.png,,,,,,,,,,,,,,,,,,,,,,,,,,,,,,,,,,,,
,,,,,,,,,,,,,,,,,5d0e88a255f0c70015345bdd,59,2022-02-12_13h44.02.915,lexical_decision_task_DD_L2,2021.2.3,Win32,60.60973392,,,,,,,,,,,0.9996,1,,,,,,,,,,,,,,z,1,0.9996,,,,,,,,0.037760417,-0.415364583,0,0,0,,0,120,120,94,1,BLANS,HB,old,z,./images/BLANSHB.png,,,,,,,,,,,,,,,,,,,,,,,,,,,,,,,,,,,,
,,,,,,,,,,,,,,,,,5d0e88a255f0c70015345bdd,59,2022-02-12_13h44.02.915,lexical_decision_task_DD_L2,2021.2.3,Win32,60.60973392,,,,,,,,,,,0.7798,1,,,,,,,,,,,,,,z,1,0.7798,,,,,,,,0.037760417,-0.415364583,0,0,0,,0,121,121,122,1,BLOOT,LB,old,z,./images/BLOOTLB.png,,,,,,,,,,,,,,,,,,,,,,,,,,,,,,,,,,,,
,,,,,,,,,,,,,,,,,5d0e88a255f0c70015345bdd,59,2022-02-12_13h44.02.915,lexical_decision_task_DD_L2,2021.2.3,Win32,60.60973392,,,,,,,,,,,0.7126,1,,,,,,,,,,,,,,m,1,0.7126,,,,,,,,0.037760417,-0.415364583,0,0,0,,0,122,122,22,1,MELON,LB,old,m,./images/MELONLB.png,,,,,,,,,,,,,,,,,,,,,,,,,,,,,,,,,,,,
,,,,,,,,,,,,,,,,,5d0e88a255f0c70015345bdd,59,2022-02-12_13h44.02.915,lexical_decision_task_DD_L2,2021.2.3,Win32,60.60973392,,,,,,,,,,,1.8479,1,,,,,,,,,,,,,,z,1,1.8479,,,,,,,,0.037760417,-0.415364583,0,0,0,,0,123,123,154,1,THINT,HB,old,z,./images/THINTHB.png,,,,,,,,,,,,,,,,,,,,,,,,,,,,,,,,,,,,
,,,,,,,,,,,,,,,,,5d0e88a255f0c70015345bdd,59,2022-02-12_13h44.02.915,lexical_decision_task_DD_L2,2021.2.3,Win32,60.60973392,,,,,,,,,,,0.8678,1,,,,,,,,,,,,,,z,1,0.8678,,,,,,,,0.037760417,-0.415364583,0,0,0,,0,124,124,99,1,BACKY,C,old,z,./images/BACKY.png,,,,,,,,,,,,,,,,,,,,,,,,,,,,,,,,,,,,
,,,,,,,,,,,,,,,,,5d0e88a255f0c70015345bdd,59,2022-02-12_13h44.02.915,lexical_decision_task_DD_L2,2021.2.3,Win32,60.60973392,,,,,,,,,,,0.7116,1,,,,,,,,,,,,,,m,1,0.7116,,,,,,,,0.037760417,-0.416666667,0,0,0,space,0,125,125,52,1,BANNER,LB,old,m,./images/BANNERLB.png,,16.8226,,,,,,,,,,,,,,,,,,,,,,,,,,,,,,,,,,
,,,,,,,,,,,,,,,,,5d0e88a255f0c70015345bdd,59,2022-02-12_13h44.02.915,lexical_decision_task_DD_L2,2021.2.3,Win32,60.60973392,,,,,,,,,,,0.7775,1,,,,,,,,,,,,,,z,1,0.7775,,,,,,,,0.037760417,-0.416666667,0,0,0,,0,126,126,137,1,JOOST,LB,old,z,./images/JOOSTLB.png,,,,,,,,,,,,,,,,,,,,,,,,,,,,,,,,,,,,
,,,,,,,,,,,,,,,,,5d0e88a255f0c70015345bdd,59,2022-02-12_13h44.02.915,lexical_decision_task_DD_L2,2021.2.3,Win32,60.60973392,,,,,,,,,,,0.5142,1,,,,,,,,,,,,,,m,1,0.5142,,,,,,,,0.037760417,-0.416666667,0,0,0,,0,127,127,1,1,PLANK,LB,old,m,./images/PLANKLB.png,,,,,,,,,,,,,,,,,,,,,,,,,,,,,,,,,,,,
,,,,,,,,,,,,,,,,,5d0e88a255f0c70015345bdd,59,2022-02-12_13h44.02.915,lexical_decision_task_DD_L2,2021.2.3,Win32,60.60973392,,,,,,,,,,,0.8288,1,,,,,,,,,,,,,,z,1,0.8288,,,,,,,,0.037760417,-0.416666667,0,0,0,,0,128,128,128,1,GRIFT,LB,old,z,./images/GRIFTLB.png,,,,,,,,,,,,,,,,,,,,,,,,,,,,,,,,,,,,
,,,,,,,,,,,,,,,,,5d0e88a255f0c70015345bdd,59,2022-02-12_13h44.02.915,lexical_decision_task_DD_L2,2021.2.3,Win32,60.60973392,,,,,,,,,,,1.4447,1,,,,,,,,,,,,,,z,1,1.4447,,,,,,,,0.037760417,-0.416666667,0,0,0,,0,129,129,106,1,CLUMS,HB,old,z,./images/CLUMSHB.png,,,,,,,,,,,,,,,,,,,,,,,,,,,,,,,,,,,,
,,,,,,,,,,,,,,,,,5d0e88a255f0c70015345bdd,59,2022-02-12_13h44.02.915,lexical_decision_task_DD_L2,2021.2.3,Win32,60.60973392,,,,,,,,,,,0.749,1,,,,,,,,,,,,,,z,1,0.749,,,,,,,,0.037760417,-0.416666667,0,0,0,,0,130,130,116,1,BALGY,LB,old,z,./images/BALGYLB.png,,,,,,,,,,,,,,,,,,,,,,,,,,,,,,,,,,,,
,,,,,,,,,,,,,,,,,5d0e88a255f0c70015345bdd,59,2022-02-12_13h44.02.915,lexical_decision_task_DD_L2,2021.2.3,Win32,60.60973392,,,,,,,,,,,0.632,1,,,,,,,,,,,,,,z,1,0.632,,,,,,,,0.037760417,-0.416666667,0,0,0,,0,131,131,126,1,GUELS,C,old,z,./images/GUELS.png,,,,,,,,,,,,,,,,,,,,,,,,,,,,,,,,,,,,
,,,,,,,,,,,,,,,,,5d0e88a255f0c70015345bdd,59,2022-02-12_13h44.02.915,lexical_decision_task_DD_L2,2021.2.3,Win32,60.60973392,,,,,,,,,,,0.6984,1,,,,,,,,,,,,,,z,1,0.6984,,,,,,,,0.037760417,-0.416666667,0,0,0,,0,132,132,150,1,NOOLS,C,old,z,./images/NOOLS.png,,,,,,,,,,,,,,,,,,,,,,,,,,,,,,,,,,,,
,,,,,,,,,,,,,,,,,5d0e88a255f0c70015345bdd,59,2022-02-12_13h44.02.915,lexical_decision_task_DD_L2,2021.2.3,Win32,60.60973392,,,,,,,,,,,0.662,1,,,,,,,,,,,,,,m,1,0.662,,,,,,,,0.037760417,-0.416666667,0,0,0,,0,133,133,30,1,STORM,HB,old,m,./images/STORMHB.png,,,,,,,,,,,,,,,,,,,,,,,,,,,,,,,,,,,,
,,,,,,,,,,,,,,,,,5d0e88a255f0c70015345bdd,59,2022-02-12_13h44.02.915,lexical_decision_task_DD_L2,2021.2.3,Win32,60.60973392,,,,,,,,,,,1.2162,1,,,,,,,,,,,,,,z,1,1.2162,,,,,,,,0.037760417,-0.416666667,0,0,0,,0,134,134,163,1,GAMBA,HB,old,z,./images/GAMBAHB.png,,,,,,,,,,,,,,,,,,,,,,,,,,,,,,,,,,,,
,,,,,,,,,,,,,,,,,5d0e88a255f0c70015345bdd,59,2022-02-12_13h44.02.915,lexical_decision_task_DD_L2,2021.2.3,Win32,60.60973392,,,,,,,,,,,0.5822,1,,,,,,,,,,,,,,m,1,0.5822,,,,,,,,0.037760417,-0.416666667,0,0,0,,0,135,135,77,1,COUCH,C,old,m,./images/COUCH.png,,,,,,,,,,,,,,,,,,,,,,,,,,,,,,,,,,,,
,,,,,,,,,,,,,,,,,5d0e88a255f0c70015345bdd,59,2022-02-12_13h44.02.915,lexical_decision_task_DD_L2,2021.2.3,Win32,60.60973392,,,,,,,,,,,0.6561,1,,,,,,,,,,,,,,z,1,0.6561,,,,,,,,0.037760417,-0.416666667,0,0,0,,0,136,136,153,1,CLUPS,C,old,z,./images/CLUPS.png,,,,,,,,,,,,,,,,,,,,,,,,,,,,,,,,,,,,
,,,,,,,,,,,,,,,,,5d0e88a255f0c70015345bdd,59,2022-02-12_13h44.02.915,lexical_decision_task_DD_L2,2021.2.3,Win32,60.60973392,,,,,,,,,,,0.6715,1,,,,,,,,,,,,,,m,1,0.6715,,,,,,,,0.037760417,-0.416666667,0,0,0,,0,137,137,51,1,ONION,HB,old,m,./images/ONIONHB.png,,,,,,,,,,,,,,,,,,,,,,,,,,,,,,,,,,,,
,,,,,,,,,,,,,,,,,5d0e88a255f0c70015345bdd,59,2022-02-12_13h44.02.915,lexical_decision_task_DD_L2,2021.2.3,Win32,60.60973392,,,,,,,,,,,0.8268,1,,,,,,,,,,,,,,z,1,0.8268,,,,,,,,0.037760417,-0.416666667,0,0,0,,0,138,138,86,1,AIFED,LB,old,z,./images/AIFEDLB.png,,,,,,,,,,,,,,,,,,,,,,,,,,,,,,,,,,,,
,,,,,,,,,,,,,,,,,5d0e88a255f0c70015345bdd,59,2022-02-12_13h44.02.915,lexical_decision_task_DD_L2,2021.2.3,Win32,60.60973392,,,,,,,,,,,0.7508,1,,,,,,,,,,,,,,m,1,0.7508,,,,,,,,0.037760417,-0.416666667,0,0,0,,0,139,139,6,1,SQUARE,HB,old,m,./images/SQUAREHB.png,,,,,,,,,,,,,,,,,,,,,,,,,,,,,,,,,,,,
,,,,,,,,,,,,,,,,,5d0e88a255f0c70015345bdd,59,2022-02-12_13h44.02.915,lexical_decision_task_DD_L2,2021.2.3,Win32,60.60973392,,,,,,,,,,,0.6184,1,,,,,,,,,,,,,,m,1,0.6184,,,,,,,,0.037760417,-0.416666667,0,0,0,,0,140,140,55,1,MUFFIN,LB,old,m,./images/MUFFINLB.png,,,,,,,,,,,,,,,,,,,,,,,,,,,,,,,,,,,,
,,,,,,,,,,,,,,,,,5d0e88a255f0c70015345bdd,59,2022-02-12_13h44.02.915,lexical_decision_task_DD_L2,2021.2.3,Win32,60.60973392,,,,,,,,,,,0.8414,1,,,,,,,,,,,,,,m,1,0.8414,,,,,,,,0.037760417,-0.416666667,0,0,0,,0,141,141,23,1,WALRUS,C,old,m,./images/WALRUS.png,,,,,,,,,,,,,,,,,,,,,,,,,,,,,,,,,,,,
,,,,,,,,,,,,,,,,,5d0e88a255f0c70015345bdd,59,2022-02-12_13h44.02.915,lexical_decision_task_DD_L2,2021.2.3,Win32,60.60973392,,,,,,,,,,,0.6377,1,,,,,,,,,,,,,,z,1,0.6377,,,,,,,,0.037760417,-0.416666667,0,0,0,,0,142,142,135,1,JOODY,C,old,z,./images/JOODY.png,,,,,,,,,,,,,,,,,,,,,,,,,,,,,,,,,,,,
,,,,,,,,,,,,,,,,,5d0e88a255f0c70015345bdd,59,2022-02-12_13h44.02.915,lexical_decision_task_DD_L2,2021.2.3,Win32,60.60973392,,,,,,,,,,,0.7518,1,,,,,,,,,,,,,,m,1,0.7518,,,,,,,,0.037760417,-0.416666667,0,0,0,,0,143,143,68,1,TORCH,C,old,m,./images/TORCH.png,,,,,,,,,,,,,,,,,,,,,,,,,,,,,,,,,,,,
,,,,,,,,,,,,,,,,,5d0e88a255f0c70015345bdd,59,2022-02-12_13h44.02.915,lexical_decision_task_DD_L2,2021.2.3,Win32,60.60973392,,,,,,,,,,,0.6368,1,,,,,,,,,,,,,,m,1,0.6368,,,,,,,,0.037760417,-0.416666667,0,0,0,,0,144,144,53,1,CARPET,C,old,m,./images/CARPET.png,,,,,,,,,,,,,,,,,,,,,,,,,,,,,,,,,,,,
,,,,,,,,,,,,,,,,,5d0e88a255f0c70015345bdd,59,2022-02-12_13h44.02.915,lexical_decision_task_DD_L2,2021.2.3,Win32,60.60973392,,,,,,,,,,,0.7067,0,,,,,,,,,,,,,,m,0,0.7067,,,,,,,,0.037760417,-0.416666667,0,0,0,,0,145,145,110,1,CRUNK,LB,old,z,./images/CRUNKLB.png,,,,,,,,,,,,,,,,,,,,,,,,,,,,,,,,,,,,
,,,,,,,,,,,,,,,,,5d0e88a255f0c70015345bdd,59,2022-02-12_13h44.02.915,lexical_decision_task_DD_L2,2021.2.3,Win32,60.60973392,,,,,,,,,,,1.2261,1,,,,,,,,,,,,,,z,1,1.2261,,,,,,,,0.037760417,-0.416666667,0,0,0,,0,146,146,133,1,POWDY,HB,old,z,./images/POWDYHB.png,,,,,,,,,,,,,,,,,,,,,,,,,,,,,,,,,,,,
,,,,,,,,,,,,,,,,,5d0e88a255f0c70015345bdd,59,2022-02-12_13h44.02.915,lexical_decision_task_DD_L2,2021.2.3,Win32,60.60973392,,,,,,,,,,,0.6336,1,,,,,,,,,,,,,,z,1,0.6336,,,,,,,,0.037760417,-0.416666667,0,0,0,,0,147,147,117,1,STEEG,C,old,z,./images/STEEG.png,,,,,,,,,,,,,,,,,,,,,,,,,,,,,,,,,,,,
,,,,,,,,,,,,,,,,,5d0e88a255f0c70015345bdd,59,2022-02-12_13h44.02.915,lexical_decision_task_DD_L2,2021.2.3,Win32,60.60973392,,,,,,,,,,,0.7945,1,,,,,,,,,,,,,,z,1,0.7945,,,,,,,,0.037760417,-0.416666667,0,0,0,,0,148,148,98,1,BAMPS,LB,old,z,./images/BAMPSLB.png,,,,,,,,,,,,,,,,,,,,,,,,,,,,,,,,,,,,
,,,,,,,,,,,,,,,,,5d0e88a255f0c70015345bdd,59,2022-02-12_13h44.02.915,lexical_decision_task_DD_L2,2021.2.3,Win32,60.60973392,,,,,,,,,,,0.8355,1,,,,,,,,,,,,,,m,1,0.8355,,,,,,,,0.037760417,-0.416666667,0,0,0,,0,149,149,43,1,MOSQUE,LB,old,m,./images/MOSQUELB.png,,,,,,,,,,,,,,,,,,,,,,,,,,,,,,,,,,,,
,,,,,,,,,,,,,,,,,5d0e88a255f0c70015345bdd,59,2022-02-12_13h44.02.915,lexical_decision_task_DD_L2,2021.2.3,Win32,60.60973392,,,,,,,,,,,0.6226,1,,,,,,,,,,,,,,m,1,0.6226,,,,,,,,0.037760417,-0.416666667,0,0,0,,0,150,150,31,1,QUILL,LB,old,m,./images/QUILLLB.png,,,,,,,,,,,,,,,,,,,,,,,,,,,,,,,,,,,,
,,,,,,,,,,,,,,,,,5d0e88a255f0c70015345bdd,59,2022-02-12_13h44.02.915,lexical_decision_task_DD_L2,2021.2.3,Win32,60.60973392,,,,,,,,,,,0.8181,1,,,,,,,,,,,,,,m,1,0.8181,,,,,,,,0.037760417,-0.416666667,0,0,0,,0,151,151,0,1,TOMATO,HB,old,m,./images/TOMATOHB.png,,,,,,,,,,,,,,,,,,,,,,,,,,,,,,,,,,,,
,,,,,,,,,,,,,,,,,5d0e88a255f0c70015345bdd,59,2022-02-12_13h44.02.915,lexical_decision_task_DD_L2,2021.2.3,Win32,60.60973392,,,,,,,,,,,0.8139,1,,,,,,,,,,,,,,z,1,0.8139,,,,,,,,0.037760417,-0.416666667,0,0,0,,0,152,152,95,1,HANTY,LB,old,z,./images/HANTYLB.png,,,,,,,,,,,,,,,,,,,,,,,,,,,,,,,,,,,,
,,,,,,,,,,,,,,,,,5d0e88a255f0c70015345bdd,59,2022-02-12_13h44.02.915,lexical_decision_task_DD_L2,2021.2.3,Win32,60.60973392,,,,,,,,,,,0.6778,1,,,,,,,,,,,,,,m,1,0.6778,,,,,,,,0.037760417,-0.416666667,0,0,0,,0,153,153,36,1,THROAT,HB,old,m,./images/THROATHB.png,,,,,,,,,,,,,,,,,,,,,,,,,,,,,,,,,,,,
,,,,,,,,,,,,,,,,,5d0e88a255f0c70015345bdd,59,2022-02-12_13h44.02.915,lexical_decision_task_DD_L2,2021.2.3,Win32,60.60973392,,,,,,,,,,,0.5883,1,,,,,,,,,,,,,,m,1,0.5883,,,,,,,,0.037760417,-0.416666667,0,0,0,,0,154,154,72,1,NOOSE,HB,old,m,./images/NOOSEHB.png,,,,,,,,,,,,,,,,,,,,,,,,,,,,,,,,,,,,
,,,,,,,,,,,,,,,,,5d0e88a255f0c70015345bdd,59,2022-02-12_13h44.02.915,lexical_decision_task_DD_L2,2021.2.3,Win32,60.60973392,,,,,,,,,,,0.5461,1,,,,,,,,,,,,,,m,1,0.5461,,,,,,,,0.037760417,-0.416666667,0,0,0,,0,155,155,44,1,LIZARD,C,old,m,./images/LIZARD.png,,,,,,,,,,,,,,,,,,,,,,,,,,,,,,,,,,,,
,,,,,,,,,,,,,,,,,5d0e88a255f0c70015345bdd,59,2022-02-12_13h44.02.915,lexical_decision_task_DD_L2,2021.2.3,Win32,60.60973392,,,,,,,,,,,0.5091,1,,,,,,,,,,,,,,m,1,0.5091,,,,,,,,0.037760417,-0.416666667,0,0,0,,0,156,156,41,1,STRING,C,old,m,./images/STRING.png,,,,,,,,,,,,,,,,,,,,,,,,,,,,,,,,,,,,
,,,,,,,,,,,,,,,,,5d0e88a255f0c70015345bdd,59,2022-02-12_13h44.02.915,lexical_decision_task_DD_L2,2021.2.3,Win32,60.60973392,,,,,,,,,,,0.717,1,,,,,,,,,,,,,,m,1,0.717,,,,,,,,0.037760417,-0.416666667,0,0,0,,0,157,157,66,1,SWEAT,HB,old,m,./images/SWEATHB.png,,,,,,,,,,,,,,,,,,,,,,,,,,,,,,,,,,,,
,,,,,,,,,,,,,,,,,5d0e88a255f0c70015345bdd,59,2022-02-12_13h44.02.915,lexical_decision_task_DD_L2,2021.2.3,Win32,60.60973392,,,,,,,,,,,1.2361,0,,,,,,,,,,,,,,m,0,1.2361,,,,,,,,0.037760417,-0.416666667,0,0,0,,0,158,158,140,1,DOVET,LB,old,z,./images/DOVETLB.png,,,,,,,,,,,,,,,,,,,,,,,,,,,,,,,,,,,,
,,,,,,,,,,,,,,,,,5d0e88a255f0c70015345bdd,59,2022-02-12_13h44.02.915,lexical_decision_task_DD_L2,2021.2.3,Win32,60.60973392,,,,,,,,,,,0.7246,1,,,,,,,,,,,,,,m,1,0.7246,,,,,,,,0.037760417,-0.416666667,0,0,0,,0,159,159,50,1,MALLET,C,old,m,./images/MALLET.png,,,,,,,,,,,,,,,,,,,,,,,,,,,,,,,,,,,,
,,,,,,,,,,,,,,,,,5d0e88a255f0c70015345bdd,59,2022-02-12_13h44.02.915,lexical_decision_task_DD_L2,2021.2.3,Win32,60.60973392,,,,,,,,,,,0.7286,1,,,,,,,,,,,,,,z,1,0.7286,,,,,,,,0.037760417,-0.416666667,0,0,0,,0,160,160,111,1,HOSSE,C,old,z,./images/HOSSE.png,,,,,,,,,,,,,,,,,,,,,,,,,,,,,,,,,,,,
,,,,,,,,,,,,,,,,,5d0e88a255f0c70015345bdd,59,2022-02-12_13h44.02.915,lexical_decision_task_DD_L2,2021.2.3,Win32,60.60973392,,,,,,,,,,,0.6136,1,,,,,,,,,,,,,,m,1,0.6136,,,,,,,,0.037760417,-0.416666667,0,0,0,,0,161,161,47,1,BERRY,C,old,m,./images/BERRY.png,,,,,,,,,,,,,,,,,,,,,,,,,,,,,,,,,,,,
,,,,,,,,,,,,,,,,,5d0e88a255f0c70015345bdd,59,2022-02-12_13h44.02.915,lexical_decision_task_DD_L2,2021.2.3,Win32,60.60973392,,,,,,,,,,,0.9826,1,,,,,,,,,,,,,,z,1,0.9826,,,,,,,,0.037760417,-0.416666667,0,0,0,,0,162,162,146,1,MOOST,LB,old,z,./images/MOOSTLB.png,,,,,,,,,,,,,,,,,,,,,,,,,,,,,,,,,,,,
,,,,,,,,,,,,,,,,,5d0e88a255f0c70015345bdd,59,2022-02-12_13h44.02.915,lexical_decision_task_DD_L2,2021.2.3,Win32,60.60973392,,,,,,,,,,,0.8159,1,,,,,,,,,,,,,,z,1,0.8159,,,,,,,,0.037760417,-0.416666667,0,0,0,,0,163,163,115,1,MAWNS,HB,old,z,./images/MAWNSHB.png,,,,,,,,,,,,,,,,,,,,,,,,,,,,,,,,,,,,
,,,,,,,,,,,,,,,,,5d0e88a255f0c70015345bdd,59,2022-02-12_13h44.02.915,lexical_decision_task_DD_L2,2021.2.3,Win32,60.60973392,,,,,,,,,,,1.1984,1,,,,,,,,,,,,,,z,1,1.1984,,,,,,,,0.037760417,-0.416666667,0,0,0,,0,164,164,102,1,DULLE,C,old,z,./images/DULLE.png,,,,,,,,,,,,,,,,,,,,,,,,,,,,,,,,,,,,
,,,,,,,,,,,,,,,,,5d0e88a255f0c70015345bdd,59,2022-02-12_13h44.02.915,lexical_decision_task_DD_L2,2021.2.3,Win32,60.60973392,,,,,,,,,,,1.2177,1,,,,,,,,,,,,,,z,1,1.2177,,,,,,,,0.037760417,-0.416666667,0,0,0,,0,165,165,112,1,MYING,HB,old,z,./images/MYINGHB.png,,,,,,,,,,,,,,,,,,,,,,,,,,,,,,,,,,,,
,,,,,,,,,,,,,,,,,5d0e88a255f0c70015345bdd,59,2022-02-12_13h44.02.915,lexical_decision_task_DD_L2,2021.2.3,Win32,60.60973392,,,,,,,,,,,0.7747,1,,,,,,,,,,,,,,m,1,0.7747,,,,,,,,0.037760417,-0.416666667,0,0,0,,0,166,166,59,1,BURIAL,C,old,m,./images/BURIAL.png,,,,,,,,,,,,,,,,,,,,,,,,,,,,,,,,,,,,
,,,,,,,,,,,,,,,,,5d0e88a255f0c70015345bdd,59,2022-02-12_13h44.02.915,lexical_decision_task_DD_L2,2021.2.3,Win32,60.60973392,,,,,,,,,,,1.2158,1,,,,,,,,,,,,,,m,1,1.2158,,,,,,,,0.037760417,-0.416666667,0,0,0,,0,167,167,69,1,COOKER,HB,old,m,./images/COOKERHB.png,,,,,,,,,,,,,,,,,,,,,,,,,,,,,,,,,,,,
,,,,,,,,,,,,,,,,,5d0e88a255f0c70015345bdd,59,2022-02-12_13h44.02.915,lexical_decision_task_DD_L2,2021.2.3,Win32,60.60973392,,,,,,,,,,,,,,,,,,,,,,,,,,,,,,,,,,,,,,,,,,,,,,,,How likely will it be that you will recognize the words presented clearly on a scale of 0 (not likely) to 100 (most likely)?,,,,,,-0.002604167,-0.41796875,1,0,0,jol_adv,6,11.6432,0,0,0,0,1,,,,,,,,,,,,,,,,,,,,,
,,,,,,,,,,,,,,,,,5d0e88a255f0c70015345bdd,59,2022-02-12_13h44.02.915,lexical_decision_task_DD_L2,2021.2.3,Win32,60.60973392,,,,,,,,,,,,,,,,,,,,,,,,,,,,,,,,,,,,,,,,,,,,,,,,How likely will it be that you will recognize the words presented very blurred on a scale of 0 (not likely) to 100 (most likely)?,,,,,,,,,,,,2,7.3652,0,1,1,2,1,,,,,,,,,,,,,,,,,,,,,
,,,,,,,,,,,,,,,,,5d0e88a255f0c70015345bdd,59,2022-02-12_13h44.02.915,lexical_decision_task_DD_L2,2021.2.3,Win32,60.60973392,,,,,,,,,,,,,,,,,,,,,,,,,,,,,,,,,,,,,,,,,,,,,,,,How likely will it be that you will recognize the words presented slighly blurred on a scale of 0 (not likely) to 100 (most likely)?,,,,,,,,,,,,5,5.9308,0,2,2,1,1,,,,,,,,,,,,,,,,,,,,,
,0.028645833,-0.415364583,1,0,0,instr_done_button,,,,,,1,test,"In the next phase you will be presented with the words from the the first phase. Your job is to decide whether you remember seeing the word or not. If you remember seeing the word press ""old"" or type ""m"". If you do not remember seeing the word press ""new"" or type ""z"". Please press the space bar or click on continue to begin. ",,,5d0e88a255f0c70015345bdd,59,2022-02-12_13h44.02.915,lexical_decision_task_DD_L2,2021.2.3,Win32,60.60973392,,,,,,,,,,,,,,,,,,,,,,,,,,,,,,,,,,,,,,,,,,,,,,,,,,,,,,,,,,,,,,,,,,,0,0,0,0,1,,,,,,,,,,,,,,,,
space,0.015625,-0.424479167,0,0,0,,,,,,,1,test,"In the next phase you will be presented with the words from the the first phase. Your job is to decide whether you remember seeing the word or not. If you remember seeing the word press ""old"" or type ""m"". If you do not remember seeing the word press ""new"" or type ""z"". Please press the space bar or click on continue to begin. ",,,5d0e88a255f0c70015345bdd,59,2022-02-12_13h44.02.915,lexical_decision_task_DD_L2,2021.2.3,Win32,60.60973392,,,,,,,,,,,,,,,,,,,,,,,,,,,,,,,,,,,,,,,,,,,,,,,,,,,,,,,,,,,,,,,,,,,1,0,1,0,1,3.2768,,,,,,,,,,,,,,,
space,0.015625,-0.424479167,0,0,0,,,,,,,1,test,"In the next phase you will be presented with the words from the the first phase. Your job is to decide whether you remember seeing the word or not. If you remember seeing the word press ""old"" or type ""m"". If you do not remember seeing the word press ""new"" or type ""z"". Please press the space bar or click on continue to begin. ",,,5d0e88a255f0c70015345bdd,59,2022-02-12_13h44.02.915,lexical_decision_task_DD_L2,2021.2.3,Win32,60.60973392,,,,,,,,,,,,,,,,,,,,,,,,,,,,,,,,,,,,,,,,,,,,,,,,,,,,,,,,,,,,,,,,,,,2,0,2,0,1,7.9352,,,,,,,,,,,,,,,
,0.020833333,-0.403645833,1,0,0,instr_done_button,,,,,,1,test,"In the next phase you will be presented with the words from the the first phase. Your job is to decide whether you remember seeing the word or not. If you remember seeing the word press ""old"" or type ""m"". If you do not remember seeing the word press ""new"" or type ""z"". Please press the space bar or click on continue to begin. ",,,5d0e88a255f0c70015345bdd,59,2022-02-12_13h44.02.915,lexical_decision_task_DD_L2,2021.2.3,Win32,60.60973392,,,,,,,,,,,,,,,,,,,,,,,,,,,,,,,,,,,,,,,,,,,,,,,,,,,,,,,,,,,,,,,,,,,3,0,3,0,1,,,,,,,,,,,,,,,,
,0.0078125,-0.41015625,1,0,0,instr_done_button,,,,,,1,test,"In the next phase you will be presented with the words from the the first phase. Your job is to decide whether you remember seeing the word or not. If you remember seeing the word press ""old"" or type ""m"". If you do not remember seeing the word press ""new"" or type ""z"". Please press the space bar or click on continue to begin. ",,,5d0e88a255f0c70015345bdd,59,2022-02-12_13h44.02.915,lexical_decision_task_DD_L2,2021.2.3,Win32,60.60973392,,,,,,,,,,,,,,,,,,,,,,,,,,,,,,,,,,,,,,,,,,,,,,,,,,,,,,,,,,,,,,,,,,,4,0,4,0,1,,,,,,,,,,,,,,,,
,,,,,,,,,,,,,,,,,5d0e88a255f0c70015345bdd,59,2022-02-12_13h44.02.915,lexical_decision_task_DD_L2,2021.2.3,Win32,60.60973392,,,,,,,,,,,2.1974,0,,,,,,,,,,,,,,,,,,,,,,,,-0.00390625,-0.408854167,0,0,0,,,,,,,LITTER,HB,m,y,./images/LITTERHB.png,,,,,,,,,,,,,,,,,,,,,,z,0,2.1974,,,,,,,,0,0,0,78,1
,,,,,,,,,,,,,,,,,5d0e88a255f0c70015345bdd,59,2022-02-12_13h44.02.915,lexical_decision_task_DD_L2,2021.2.3,Win32,60.60973392,,,,,,,,,,,0.6836,1,,,,,,,,,,,,,,,,,,,,,,,,-0.0078125,-0.412760417,0,0,0,,,,,,,MELON,LB,m,y,./images/MELONLB.png,,,,,,,,,,,,,,,,,,,,,,m,1,0.6836,,,,,,,,0,1,1,22,1
,,,,,,,,,,,,,,,,,5d0e88a255f0c70015345bdd,59,2022-02-12_13h44.02.915,lexical_decision_task_DD_L2,2021.2.3,Win32,60.60973392,,,,,,,,,,,1.083,1,,,,,,,,,,,,,,,,,,,,,,,,-0.026041667,-0.3671875,0,0,0,,,,,,,ALLEY,LB,z,y,./images/ALLEYLB.png,,,,,,,,,,,,,,,,,,,,,,z,1,1.083,,,,,,,,0,2,2,139,1
,,,,,,,,,,,,,,,,,5d0e88a255f0c70015345bdd,59,2022-02-12_13h44.02.915,lexical_decision_task_DD_L2,2021.2.3,Win32,60.60973392,,,,,,,,,,,0.6331,1,,,,,,,,,,,,,,,,,,,,,,,,-0.026041667,-0.3671875,0,0,0,,,,,,,THROAT,HB,m,y,./images/THROATHB.png,,,,,,,,,,,,,,,,,,,,,,m,1,0.6331,,,,,,,,0,3,3,36,1
,,,,,,,,,,,,,,,,,5d0e88a255f0c70015345bdd,59,2022-02-12_13h44.02.915,lexical_decision_task_DD_L2,2021.2.3,Win32,60.60973392,,,,,,,,,,,1.0165,1,,,,,,,,,,,,,,,,,,,,,,,,-0.026041667,-0.3671875,0,0,0,,,,,,,STAIN,HB,z,y,./images/STAINHB.png,,,,,,,,,,,,,,,,,,,,,,z,1,1.0165,,,,,,,,0,4,4,90,1
,,,,,,,,,,,,,,,,,5d0e88a255f0c70015345bdd,59,2022-02-12_13h44.02.915,lexical_decision_task_DD_L2,2021.2.3,Win32,60.60973392,,,,,,,,,,,0.6002,1,,,,,,,,,,,,,,,,,,,,,,,,-0.026041667,-0.3671875,0,0,0,,,,,,,MUFFIN,LB,m,y,./images/MUFFINLB.png,,,,,,,,,,,,,,,,,,,,,,m,1,0.6002,,,,,,,,0,5,5,55,1
,,,,,,,,,,,,,,,,,5d0e88a255f0c70015345bdd,59,2022-02-12_13h44.02.915,lexical_decision_task_DD_L2,2021.2.3,Win32,60.60973392,,,,,,,,,,,0.5839,1,,,,,,,,,,,,,,,,,,,,,,,,-0.026041667,-0.3671875,0,0,0,,,,,,,COUCH,C,m,y,./images/COUCH.png,,,,,,,,,,,,,,,,,,,,,,m,1,0.5839,,,,,,,,0,6,6,77,1
,,,,,,,,,,,,,,,,,5d0e88a255f0c70015345bdd,59,2022-02-12_13h44.02.915,lexical_decision_task_DD_L2,2021.2.3,Win32,60.60973392,,,,,,,,,,,1.1493,1,,,,,,,,,,,,,,,,,,,,,,,,-0.026041667,-0.3671875,0,0,0,,,,,,,JELLY,LB,m,y,./images/JELLYLB.png,,,,,,,,,,,,,,,,,,,,,,m,1,1.1493,,,,,,,,0,7,7,64,1
,,,,,,,,,,,,,,,,,5d0e88a255f0c70015345bdd,59,2022-02-12_13h44.02.915,lexical_decision_task_DD_L2,2021.2.3,Win32,60.60973392,,,,,,,,,,,0.6337,1,,,,,,,,,,,,,,,,,,,,,,,,-0.026041667,-0.3671875,0,0,0,,,,,,,STORM,HB,m,y,./images/STORMHB.png,,,,,,,,,,,,,,,,,,,,,,m,1,0.6337,,,,,,,,0,8,8,30,1
,,,,,,,,,,,,,,,,,5d0e88a255f0c70015345bdd,59,2022-02-12_13h44.02.915,lexical_decision_task_DD_L2,2021.2.3,Win32,60.60973392,,,,,,,,,,,0.6503,1,,,,,,,,,,,,,,,,,,,,,,,,-0.026041667,-0.3671875,0,0,0,,,,,,,STATUE,HB,z,y,./images/STATUEHB.png,,,,,,,,,,,,,,,,,,,,,,z,1,0.6503,,,,,,,,0,9,9,150,1
,,,,,,,,,,,,,,,,,5d0e88a255f0c70015345bdd,59,2022-02-12_13h44.02.915,lexical_decision_task_DD_L2,2021.2.3,Win32,60.60973392,,,,,,,,,,,0.9166,1,,,,,,,,,,,,,,,,,,,,,,,,-0.026041667,-0.3671875,0,0,0,,,,,,,DESERT,LB,z,y,./images/DESERTLB.png,,,,,,,,,,,,,,,,,,,,,,z,1,0.9166,,,,,,,,0,10,10,136,1
,,,,,,,,,,,,,,,,,5d0e88a255f0c70015345bdd,59,2022-02-12_13h44.02.915,lexical_decision_task_DD_L2,2021.2.3,Win32,60.60973392,,,,,,,,,,,0.7168,1,,,,,,,,,,,,,,,,,,,,,,,,-0.026041667,-0.3671875,0,0,0,,,,,,,GARDEN,LB,z,y,./images/GARDENLB.png,,,,,,,,,,,,,,,,,,,,,,z,1,0.7168,,,,,,,,0,11,11,94,1
,,,,,,,,,,,,,,,,,5d0e88a255f0c70015345bdd,59,2022-02-12_13h44.02.915,lexical_decision_task_DD_L2,2021.2.3,Win32,60.60973392,,,,,,,,,,,1.2832,0,,,,,,,,,,,,,,,,,,,,,,,,-0.026041667,-0.3671875,0,0,0,,,,,,,JUNGLE,C,m,y,./images/JUNGLE.png,,,,,,,,,,,,,,,,,,,,,,z,0,1.2832,,,,,,,,0,12,12,83,1
,,,,,,,,,,,,,,,,,5d0e88a255f0c70015345bdd,59,2022-02-12_13h44.02.915,lexical_decision_task_DD_L2,2021.2.3,Win32,60.60973392,,,,,,,,,,,0.6163,1,,,,,,,,,,,,,,,,,,,,,,,,-0.026041667,-0.3671875,0,0,0,,,,,,,URINE,LB,m,y,./images/URINELB.png,,,,,,,,,,,,,,,,,,,,,,m,1,0.6163,,,,,,,,0,13,13,70,1
,,,,,,,,,,,,,,,,,5d0e88a255f0c70015345bdd,59,2022-02-12_13h44.02.915,lexical_decision_task_DD_L2,2021.2.3,Win32,60.60973392,,,,,,,,,,,0.9841,1,,,,,,,,,,,,,,,,,,,,,,,,-0.026041667,-0.3671875,0,0,0,,,,,,,PLANET,C,z,y,./images/PLANET.png,,,,,,,,,,,,,,,,,,,,,,z,1,0.9841,,,,,,,,0,14,14,164,1
,,,,,,,,,,,,,,,,,5d0e88a255f0c70015345bdd,59,2022-02-12_13h44.02.915,lexical_decision_task_DD_L2,2021.2.3,Win32,60.60973392,,,,,,,,,,,0.768,1,,,,,,,,,,,,,,,,,,,,,,,,-0.026041667,-0.3671875,0,0,0,,,,,,,LIZARD,C,m,y,./images/LIZARD.png,,,,,,,,,,,,,,,,,,,,,,m,1,0.768,,,,,,,,0,15,15,44,1
,,,,,,,,,,,,,,,,,5d0e88a255f0c70015345bdd,59,2022-02-12_13h44.02.915,lexical_decision_task_DD_L2,2021.2.3,Win32,60.60973392,,,,,,,,,,,0.7494,1,,,,,,,,,,,,,,,,,,,,,,,,-0.026041667,-0.3671875,0,0,0,,,,,,,PACKET,C,m,y,./images/PACKET.png,,,,,,,,,,,,,,,,,,,,,,m,1,0.7494,,,,,,,,0,16,16,56,1
,,,,,,,,,,,,,,,,,5d0e88a255f0c70015345bdd,59,2022-02-12_13h44.02.915,lexical_decision_task_DD_L2,2021.2.3,Win32,60.60973392,,,,,,,,,,,0.7333,1,,,,,,,,,,,,,,,,,,,,,,,,-0.026041667,-0.3671875,0,0,0,,,,,,,PIMPLE,C,m,y,./images/PIMPLE.png,,,,,,,,,,,,,,,,,,,,,,m,1,0.7333,,,,,,,,0,17,17,71,1
,,,,,,,,,,,,,,,,,5d0e88a255f0c70015345bdd,59,2022-02-12_13h44.02.915,lexical_decision_task_DD_L2,2021.2.3,Win32,60.60973392,,,,,,,,,,,0.8164,1,,,,,,,,,,,,,,,,,,,,,,,,-0.026041667,-0.3671875,0,0,0,,,,,,,GRANNY,C,z,y,./images/GRANNY.png,,,,,,,,,,,,,,,,,,,,,,z,1,0.8164,,,,,,,,0,18,18,104,1
,,,,,,,,,,,,,,,,,5d0e88a255f0c70015345bdd,59,2022-02-12_13h44.02.915,lexical_decision_task_DD_L2,2021.2.3,Win32,60.60973392,,,,,,,,,,,0.8335,1,,,,,,,,,,,,,,,,,,,,,,,,-0.026041667,-0.3671875,0,0,0,,,,,,,SAUNA,HB,z,y,./images/SAUNAHB.png,,,,,,,,,,,,,,,,,,,,,,z,1,0.8335,,,,,,,,0,19,19,117,1
,,,,,,,,,,,,,,,,,5d0e88a255f0c70015345bdd,59,2022-02-12_13h44.02.915,lexical_decision_task_DD_L2,2021.2.3,Win32,60.60973392,,,,,,,,,,,0.7837,1,,,,,,,,,,,,,,,,,,,,,,,,-0.026041667,-0.3671875,0,0,0,,,,,,,BERRY,C,m,y,./images/BERRY.png,,,,,,,,,,,,,,,,,,,,,,m,1,0.7837,,,,,,,,0,20,20,47,1
,,,,,,,,,,,,,,,,,5d0e88a255f0c70015345bdd,59,2022-02-12_13h44.02.915,lexical_decision_task_DD_L2,2021.2.3,Win32,60.60973392,,,,,,,,,,,0.8995,1,,,,,,,,,,,,,,,,,,,,,,,,-0.026041667,-0.3671875,0,0,0,,,,,,,BUTTER,HB,z,y,./images/BUTTERHB.png,,,,,,,,,,,,,,,,,,,,,,z,1,0.8995,,,,,,,,0,21,21,111,1
,,,,,,,,,,,,,,,,,5d0e88a255f0c70015345bdd,59,2022-02-12_13h44.02.915,lexical_decision_task_DD_L2,2021.2.3,Win32,60.60973392,,,,,,,,,,,0.9172,1,,,,,,,,,,,,,,,,,,,,,,,,-0.026041667,-0.3671875,0,0,0,,,,,,,DOUGH,LB,m,y,./images/DOUGHLB.png,,,,,,,,,,,,,,,,,,,,,,m,1,0.9172,,,,,,,,0,22,22,19,1
,,,,,,,,,,,,,,,,,5d0e88a255f0c70015345bdd,59,2022-02-12_13h44.02.915,lexical_decision_task_DD_L2,2021.2.3,Win32,60.60973392,,,,,,,,,,,0.7672,1,,,,,,,,,,,,,,,,,,,,,,,,-0.026041667,-0.3671875,0,0,0,,,,,,,GRAPE,LB,z,y,./images/GRAPELB.png,,,,,,,,,,,,,,,,,,,,,,z,1,0.7672,,,,,,,,0,23,23,100,1
,,,,,,,,,,,,,,,,,5d0e88a255f0c70015345bdd,59,2022-02-12_13h44.02.915,lexical_decision_task_DD_L2,2021.2.3,Win32,60.60973392,,,,,,,,,,,0.8174,1,,,,,,,,,,,,,,,,,,,,,,,,-0.026041667,-0.3671875,0,0,0,,,,,,,FERRY,HB,z,y,./images/FERRYHB.png,,,,,,,,,,,,,,,,,,,,,,z,1,0.8174,,,,,,,,0,24,24,141,1
,,,,,,,,,,,,,,,,,5d0e88a255f0c70015345bdd,59,2022-02-12_13h44.02.915,lexical_decision_task_DD_L2,2021.2.3,Win32,60.60973392,,,,,,,,,,,0.65,0,,,,,,,,,,,,,,,,,,,,,,,,-0.026041667,-0.3671875,0,0,0,,,,,,,STREAM,C,z,y,./images/STREAM.png,,,,,,,,,,,,,,,,,,,,,,m,0,0.65,,,,,,,,0,25,25,125,1
,,,,,,,,,,,,,,,,,5d0e88a255f0c70015345bdd,59,2022-02-12_13h44.02.915,lexical_decision_task_DD_L2,2021.2.3,Win32,60.60973392,,,,,,,,,,,0.8001,1,,,,,,,,,,,,,,,,,,,,,,,,-0.026041667,-0.3671875,0,0,0,,,,,,,DANCER,HB,z,y,./images/DANCERHB.png,,,,,,,,,,,,,,,,,,,,,,z,1,0.8001,,,,,,,,0,26,26,105,1
,,,,,,,,,,,,,,,,,5d0e88a255f0c70015345bdd,59,2022-02-12_13h44.02.915,lexical_decision_task_DD_L2,2021.2.3,Win32,60.60973392,,,,,,,,,,,0.7012,1,,,,,,,,,,,,,,,,,,,,,,,,-0.026041667,-0.3671875,0,0,0,,,,,,,BANANA,LB,z,y,./images/BANANALB.png,,,,,,,,,,,,,,,,,,,,,,z,1,0.7012,,,,,,,,0,27,27,154,1
,,,,,,,,,,,,,,,,,5d0e88a255f0c70015345bdd,59,2022-02-12_13h44.02.915,lexical_decision_task_DD_L2,2021.2.3,Win32,60.60973392,,,,,,,,,,,1.3331,1,,,,,,,,,,,,,,,,,,,,,,,,-0.026041667,-0.3671875,0,0,0,,,,,,,HAMMER,HB,z,y,./images/HAMMERHB.png,,,,,,,,,,,,,,,,,,,,,,z,1,1.3331,,,,,,,,0,28,28,159,1
,,,,,,,,,,,,,,,,,5d0e88a255f0c70015345bdd,59,2022-02-12_13h44.02.915,lexical_decision_task_DD_L2,2021.2.3,Win32,60.60973392,,,,,,,,,,,0.9826,1,,,,,,,,,,,,,,,,,,,,,,,,-0.026041667,-0.3671875,0,0,0,,,,,,,BRUSH,C,z,y,./images/BRUSH.png,,,,,,,,,,,,,,,,,,,,,,z,1,0.9826,,,,,,,,0,29,29,143,1
,,,,,,,,,,,,,,,,,5d0e88a255f0c70015345bdd,59,2022-02-12_13h44.02.915,lexical_decision_task_DD_L2,2021.2.3,Win32,60.60973392,,,,,,,,,,,0.9671,1,,,,,,,,,,,,,,,,,,,,,,,,-0.026041667,-0.3671875,0,0,0,,,,,,,MEDAL,C,z,y,./images/MEDAL.png,,,,,,,,,,,,,,,,,,,,,,z,1,0.9671,,,,,,,,0,30,30,95,1
,,,,,,,,,,,,,,,,,5d0e88a255f0c70015345bdd,59,2022-02-12_13h44.02.915,lexical_decision_task_DD_L2,2021.2.3,Win32,60.60973392,,,,,,,,,,,0.6495,1,,,,,,,,,,,,,,,,,,,,,,,,-0.026041667,-0.3671875,0,0,0,,,,,,,ATTIC,HB,m,y,./images/ATTICHB.png,,,,,,,,,,,,,,,,,,,,,,m,1,0.6495,,,,,,,,0,31,31,27,1
,,,,,,,,,,,,,,,,,5d0e88a255f0c70015345bdd,59,2022-02-12_13h44.02.915,lexical_decision_task_DD_L2,2021.2.3,Win32,60.60973392,,,,,,,,,,,0.6701,1,,,,,,,,,,,,,,,,,,,,,,,,-0.026041667,-0.3671875,0,0,0,,,,,,,INFANT,LB,m,y,./images/INFANTLB.png,,,,,,,,,,,,,,,,,,,,,,m,1,0.6701,,,,,,,,0,32,32,76,1
,,,,,,,,,,,,,,,,,5d0e88a255f0c70015345bdd,59,2022-02-12_13h44.02.915,lexical_decision_task_DD_L2,2021.2.3,Win32,60.60973392,,,,,,,,,,,0.7505,1,,,,,,,,,,,,,,,,,,,,,,,,-0.026041667,-0.3671875,0,0,0,,,,,,,TOWEL,LB,z,y,./images/TOWELLB.png,,,,,,,,,,,,,,,,,,,,,,z,1,0.7505,,,,,,,,0,33,33,85,1
,,,,,,,,,,,,,,,,,5d0e88a255f0c70015345bdd,59,2022-02-12_13h44.02.915,lexical_decision_task_DD_L2,2021.2.3,Win32,60.60973392,,,,,,,,,,,1.0664,1,,,,,,,,,,,,,,,,,,,,,,,,-0.026041667,-0.3671875,0,0,0,,,,,,,CLOUD,C,z,y,./images/CLOUD.png,,,,,,,,,,,,,,,,,,,,,,z,1,1.0664,,,,,,,,0,34,34,110,1
,,,,,,,,,,,,,,,,,5d0e88a255f0c70015345bdd,59,2022-02-12_13h44.02.915,lexical_decision_task_DD_L2,2021.2.3,Win32,60.60973392,,,,,,,,,,,0.9339,1,,,,,,,,,,,,,,,,,,,,,,,,-0.026041667,-0.3671875,0,0,0,,,,,,,MONKEY,HB,z,y,./images/MONKEYHB.png,,,,,,,,,,,,,,,,,,,,,,z,1,0.9339,,,,,,,,0,35,35,129,1
,,,,,,,,,,,,,,,,,5d0e88a255f0c70015345bdd,59,2022-02-12_13h44.02.915,lexical_decision_task_DD_L2,2021.2.3,Win32,60.60973392,,,,,,,,,,,0.8166,1,,,,,,,,,,,,,,,,,,,,,,,,-0.026041667,-0.3671875,0,0,0,,,,,,,MUMMY,LB,z,y,./images/MUMMYLB.png,,,,,,,,,,,,,,,,,,,,,,z,1,0.8166,,,,,,,,0,36,36,130,1
,,,,,,,,,,,,,,,,,5d0e88a255f0c70015345bdd,59,2022-02-12_13h44.02.915,lexical_decision_task_DD_L2,2021.2.3,Win32,60.60973392,,,,,,,,,,,0.6508,1,,,,,,,,,,,,,,,,,,,,,,,,-0.026041667,-0.3671875,0,0,0,,,,,,,CANDLE,LB,m,y,./images/CANDLELB.png,,,,,,,,,,,,,,,,,,,,,,m,1,0.6508,,,,,,,,0,37,37,61,1
,,,,,,,,,,,,,,,,,5d0e88a255f0c70015345bdd,59,2022-02-12_13h44.02.915,lexical_decision_task_DD_L2,2021.2.3,Win32,60.60973392,,,,,,,,,,,0.6503,1,,,,,,,,,,,,,,,,,,,,,,,,-0.026041667,-0.3671875,0,0,0,,,,,,,BURIAL,C,m,y,./images/BURIAL.png,,,,,,,,,,,,,,,,,,,,,,m,1,0.6503,,,,,,,,0,38,38,59,1
,,,,,,,,,,,,,,,,,5d0e88a255f0c70015345bdd,59,2022-02-12_13h44.02.915,lexical_decision_task_DD_L2,2021.2.3,Win32,60.60973392,,,,,,,,,,,0.8497,1,,,,,,,,,,,,,,,,,,,,,,,,-0.026041667,-0.3671875,0,0,0,,,,,,,CHALK,LB,z,y,./images/CHALKLB.png,,,,,,,,,,,,,,,,,,,,,,z,1,0.8497,,,,,,,,0,39,39,109,1
,,,,,,,,,,,,,,,,,5d0e88a255f0c70015345bdd,59,2022-02-12_13h44.02.915,lexical_decision_task_DD_L2,2021.2.3,Win32,60.60973392,,,,,,,,,,,1.016,1,,,,,,,,,,,,,,,,,,,,,,,,-0.026041667,-0.3671875,0,0,0,,,,,,,SPORT,HB,m,y,./images/SPORTHB.png,,,,,,,,,,,,,,,,,,,,,,m,1,1.016,,,,,,,,0,40,40,48,1
,,,,,,,,,,,,,,,,,5d0e88a255f0c70015345bdd,59,2022-02-12_13h44.02.915,lexical_decision_task_DD_L2,2021.2.3,Win32,60.60973392,,,,,,,,,,,1.2654,1,,,,,,,,,,,,,,,,,,,,,,,,-0.028645833,-0.3671875,0,0,0,space,,,,,,SHELF,HB,m,y,./images/SHELFHB.png,,14.4437,,,,,,,,,,,,,,,,,,,,m,1,1.2654,,,,,,,,0,41,41,39,1
,,,,,,,,,,,,,,,,,5d0e88a255f0c70015345bdd,59,2022-02-12_13h44.02.915,lexical_decision_task_DD_L2,2021.2.3,Win32,60.60973392,,,,,,,,,,,0.6493,1,,,,,,,,,,,,,,,,,,,,,,,,-0.028645833,-0.3671875,0,0,0,,,,,,,BELLY,LB,m,y,./images/BELLYLB.png,,,,,,,,,,,,,,,,,,,,,,m,1,0.6493,,,,,,,,0,42,42,10,1
,,,,,,,,,,,,,,,,,5d0e88a255f0c70015345bdd,59,2022-02-12_13h44.02.915,lexical_decision_task_DD_L2,2021.2.3,Win32,60.60973392,,,,,,,,,,,0.8158,1,,,,,,,,,,,,,,,,,,,,,,,,-0.028645833,-0.3671875,0,0,0,,,,,,,SWING,LB,m,y,./images/SWINGLB.png,,,,,,,,,,,,,,,,,,,,,,m,1,0.8158,,,,,,,,0,43,43,40,1
,,,,,,,,,,,,,,,,,5d0e88a255f0c70015345bdd,59,2022-02-12_13h44.02.915,lexical_decision_task_DD_L2,2021.2.3,Win32,60.60973392,,,,,,,,,,,0.6498,1,,,,,,,,,,,,,,,,,,,,,,,,-0.028645833,-0.3671875,0,0,0,,,,,,,MOSQUE,LB,m,y,./images/MOSQUELB.png,,,,,,,,,,,,,,,,,,,,,,m,1,0.6498,,,,,,,,0,44,44,43,1
,,,,,,,,,,,,,,,,,5d0e88a255f0c70015345bdd,59,2022-02-12_13h44.02.915,lexical_decision_task_DD_L2,2021.2.3,Win32,60.60973392,,,,,,,,,,,1.0365,1,,,,,,,,,,,,,,,,,,,,,,,,-0.028645833,-0.3671875,0,0,0,,,,,,,GLOVE,LB,z,y,./images/GLOVELB.png,,,,,,,,,,,,,,,,,,,,,,z,1,1.0365,,,,,,,,0,45,45,157,1
,,,,,,,,,,,,,,,,,5d0e88a255f0c70015345bdd,59,2022-02-12_13h44.02.915,lexical_decision_task_DD_L2,2021.2.3,Win32,60.60973392,,,,,,,,,,,0.6197,1,,,,,,,,,,,,,,,,,,,,,,,,-0.028645833,-0.3671875,0,0,0,,,,,,,PEARL,LB,m,y,./images/PEARLLB.png,,,,,,,,,,,,,,,,,,,,,,m,1,0.6197,,,,,,,,0,46,46,46,1
,,,,,,,,,,,,,,,,,5d0e88a255f0c70015345bdd,59,2022-02-12_13h44.02.915,lexical_decision_task_DD_L2,2021.2.3,Win32,60.60973392,,,,,,,,,,,0.8379,1,,,,,,,,,,,,,,,,,,,,,,,,-0.028645833,-0.3671875,0,0,0,,,,,,,STEAK,LB,z,y,./images/STEAKLB.png,,,,,,,,,,,,,,,,,,,,,,z,1,0.8379,,,,,,,,0,47,47,115,1
,,,,,,,,,,,,,,,,,5d0e88a255f0c70015345bdd,59,2022-02-12_13h44.02.915,lexical_decision_task_DD_L2,2021.2.3,Win32,60.60973392,,,,,,,,,,,1.2821,1,,,,,,,,,,,,,,,,,,,,,,,,-0.028645833,-0.3671875,0,0,0,,,,,,,BUBBLE,C,z,y,./images/BUBBLE.png,,,,,,,,,,,,,,,,,,,,,,z,1,1.2821,,,,,,,,0,48,48,155,1
,,,,,,,,,,,,,,,,,5d0e88a255f0c70015345bdd,59,2022-02-12_13h44.02.915,lexical_decision_task_DD_L2,2021.2.3,Win32,60.60973392,,,,,,,,,,,1.0992,0,,,,,,,,,,,,,,,,,,,,,,,,-0.028645833,-0.3671875,0,0,0,,,,,,,PURSE,C,m,y,./images/PURSE.png,,,,,,,,,,,,,,,,,,,,,,z,0,1.0992,,,,,,,,0,49,49,62,1
,,,,,,,,,,,,,,,,,5d0e88a255f0c70015345bdd,59,2022-02-12_13h44.02.915,lexical_decision_task_DD_L2,2021.2.3,Win32,60.60973392,,,,,,,,,,,0.7067,1,,,,,,,,,,,,,,,,,,,,,,,,-0.028645833,-0.3671875,0,0,0,,,,,,,CRUST,LB,m,y,./images/CRUSTLB.png,,,,,,,,,,,,,,,,,,,,,,m,1,0.7067,,,,,,,,0,50,50,79,1
,,,,,,,,,,,,,,,,,5d0e88a255f0c70015345bdd,59,2022-02-12_13h44.02.915,lexical_decision_task_DD_L2,2021.2.3,Win32,60.60973392,,,,,,,,,,,1.0157,1,,,,,,,,,,,,,,,,,,,,,,,,-0.028645833,-0.3671875,0,0,0,,,,,,,CLOTH,C,z,y,./images/CLOTH.png,,,,,,,,,,,,,,,,,,,,,,z,1,1.0157,,,,,,,,0,51,51,107,1
,,,,,,,,,,,,,,,,,5d0e88a255f0c70015345bdd,59,2022-02-12_13h44.02.915,lexical_decision_task_DD_L2,2021.2.3,Win32,60.60973392,,,,,,,,,,,0.835,1,,,,,,,,,,,,,,,,,,,,,,,,-0.028645833,-0.3671875,0,0,0,,,,,,,SKIING,C,m,y,./images/SKIING.png,,,,,,,,,,,,,,,,,,,,,,m,1,0.835,,,,,,,,0,52,52,17,1
,,,,,,,,,,,,,,,,,5d0e88a255f0c70015345bdd,59,2022-02-12_13h44.02.915,lexical_decision_task_DD_L2,2021.2.3,Win32,60.60973392,,,,,,,,,,,0.9324,1,,,,,,,,,,,,,,,,,,,,,,,,-0.028645833,-0.3671875,0,0,0,,,,,,,DRILL,HB,z,y,./images/DRILLHB.png,,,,,,,,,,,,,,,,,,,,,,z,1,0.9324,,,,,,,,0,53,53,165,1
,,,,,,,,,,,,,,,,,5d0e88a255f0c70015345bdd,59,2022-02-12_13h44.02.915,lexical_decision_task_DD_L2,2021.2.3,Win32,60.60973392,,,,,,,,,,,0.904,1,,,,,,,,,,,,,,,,,,,,,,,,-0.028645833,-0.3671875,0,0,0,,,,,,,ARTIST,LB,z,y,./images/ARTISTLB.png,,,,,,,,,,,,,,,,,,,,,,z,1,0.904,,,,,,,,0,54,54,145,1
,,,,,,,,,,,,,,,,,5d0e88a255f0c70015345bdd,59,2022-02-12_13h44.02.915,lexical_decision_task_DD_L2,2021.2.3,Win32,60.60973392,,,,,,,,,,,0.6379,1,,,,,,,,,,,,,,,,,,,,,,,,-0.028645833,-0.3671875,0,0,0,,,,,,,JAGUAR,HB,m,y,./images/JAGUARHB.png,,,,,,,,,,,,,,,,,,,,,,m,1,0.6379,,,,,,,,0,55,55,18,1
,,,,,,,,,,,,,,,,,5d0e88a255f0c70015345bdd,59,2022-02-12_13h44.02.915,lexical_decision_task_DD_L2,2021.2.3,Win32,60.60973392,,,,,,,,,,,1.0054,1,,,,,,,,,,,,,,,,,,,,,,,,-0.028645833,-0.3671875,0,0,0,,,,,,,MAMMAL,C,z,y,./images/MAMMAL.png,,,,,,,,,,,,,,,,,,,,,,z,1,1.0054,,,,,,,,0,56,56,146,1
,,,,,,,,,,,,,,,,,5d0e88a255f0c70015345bdd,59,2022-02-12_13h44.02.915,lexical_decision_task_DD_L2,2021.2.3,Win32,60.60973392,,,,,,,,,,,0.6828,0,,,,,,,,,,,,,,,,,,,,,,,,-0.028645833,-0.3671875,0,0,0,,,,,,,FLASK,HB,z,y,./images/FLASKHB.png,,,,,,,,,,,,,,,,,,,,,,m,0,0.6828,,,,,,,,0,57,57,156,1
,,,,,,,,,,,,,,,,,5d0e88a255f0c70015345bdd,59,2022-02-12_13h44.02.915,lexical_decision_task_DD_L2,2021.2.3,Win32,60.60973392,,,,,,,,,,,0.8162,1,,,,,,,,,,,,,,,,,,,,,,,,-0.028645833,-0.3671875,0,0,0,,,,,,,WHEEL,C,z,y,./images/WHEEL.png,,,,,,,,,,,,,,,,,,,,,,z,1,0.8162,,,,,,,,0,58,58,161,1
,,,,,,,,,,,,,,,,,5d0e88a255f0c70015345bdd,59,2022-02-12_13h44.02.915,lexical_decision_task_DD_L2,2021.2.3,Win32,60.60973392,,,,,,,,,,,0.6589,1,,,,,,,,,,,,,,,,,,,,,,,,-0.028645833,-0.3671875,0,0,0,,,,,,,ONION,HB,m,y,./images/ONIONHB.png,,,,,,,,,,,,,,,,,,,,,,m,1,0.6589,,,,,,,,0,59,59,51,1
,,,,,,,,,,,,,,,,,5d0e88a255f0c70015345bdd,59,2022-02-12_13h44.02.915,lexical_decision_task_DD_L2,2021.2.3,Win32,60.60973392,,,,,,,,,,,0.9724,1,,,,,,,,,,,,,,,,,,,,,,,,-0.028645833,-0.3671875,0,0,0,,,,,,,BOXER,LB,z,y,./images/BOXERLB.png,,,,,,,,,,,,,,,,,,,,,,z,1,0.9724,,,,,,,,0,60,60,88,1
,,,,,,,,,,,,,,,,,5d0e88a255f0c70015345bdd,59,2022-02-12_13h44.02.915,lexical_decision_task_DD_L2,2021.2.3,Win32,60.60973392,,,,,,,,,,,0.9494,1,,,,,,,,,,,,,,,,,,,,,,,,-0.028645833,-0.3671875,0,0,0,,,,,,,STOOL,LB,z,y,./images/STOOLLB.png,,,,,,,,,,,,,,,,,,,,,,z,1,0.9494,,,,,,,,0,61,61,127,1
,,,,,,,,,,,,,,,,,5d0e88a255f0c70015345bdd,59,2022-02-12_13h44.02.915,lexical_decision_task_DD_L2,2021.2.3,Win32,60.60973392,,,,,,,,,,,0.8739,0,,,,,,,,,,,,,,,,,,,,,,,,-0.028645833,-0.3671875,0,0,0,,,,,,,MAGGOT,HB,m,y,./images/MAGGOTHB.png,,,,,,,,,,,,,,,,,,,,,,z,0,0.8739,,,,,,,,0,62,62,33,1
,,,,,,,,,,,,,,,,,5d0e88a255f0c70015345bdd,59,2022-02-12_13h44.02.915,lexical_decision_task_DD_L2,2021.2.3,Win32,60.60973392,,,,,,,,,,,0.9659,1,,,,,,,,,,,,,,,,,,,,,,,,-0.028645833,-0.3671875,0,0,0,,,,,,,CANOE,LB,z,y,./images/CANOELB.png,,,,,,,,,,,,,,,,,,,,,,z,1,0.9659,,,,,,,,0,63,63,142,1
,,,,,,,,,,,,,,,,,5d0e88a255f0c70015345bdd,59,2022-02-12_13h44.02.915,lexical_decision_task_DD_L2,2021.2.3,Win32,60.60973392,,,,,,,,,,,0.703,1,,,,,,,,,,,,,,,,,,,,,,,,-0.028645833,-0.3671875,0,0,0,,,,,,,DONKEY,LB,z,y,./images/DONKEYLB.png,,,,,,,,,,,,,,,,,,,,,,z,1,0.703,,,,,,,,0,64,64,103,1
,,,,,,,,,,,,,,,,,5d0e88a255f0c70015345bdd,59,2022-02-12_13h44.02.915,lexical_decision_task_DD_L2,2021.2.3,Win32,60.60973392,,,,,,,,,,,1.9541,0,,,,,,,,,,,,,,,,,,,,,,,,-0.028645833,-0.3671875,0,0,0,,,,,,,TORCH,C,m,y,./images/TORCH.png,,,,,,,,,,,,,,,,,,,,,,z,0,1.9541,,,,,,,,0,65,65,68,1
,,,,,,,,,,,,,,,,,5d0e88a255f0c70015345bdd,59,2022-02-12_13h44.02.915,lexical_decision_task_DD_L2,2021.2.3,Win32,60.60973392,,,,,,,,,,,0.9497,1,,,,,,,,,,,,,,,,,,,,,,,,-0.028645833,-0.3671875,0,0,0,,,,,,,CHERRY,HB,z,y,./images/CHERRYHB.png,,,,,,,,,,,,,,,,,,,,,,z,1,0.9497,,,,,,,,0,66,66,138,1
,,,,,,,,,,,,,,,,,5d0e88a255f0c70015345bdd,59,2022-02-12_13h44.02.915,lexical_decision_task_DD_L2,2021.2.3,Win32,60.60973392,,,,,,,,,,,1.6473,0,,,,,,,,,,,,,,,,,,,,,,,,-0.028645833,-0.3671875,0,0,0,,,,,,,BIRTH,LB,m,y,./images/BIRTHLB.png,,,,,,,,,,,,,,,,,,,,,,z,0,1.6473,,,,,,,,0,67,67,37,1
,,,,,,,,,,,,,,,,,5d0e88a255f0c70015345bdd,59,2022-02-12_13h44.02.915,lexical_decision_task_DD_L2,2021.2.3,Win32,60.60973392,,,,,,,,,,,0.8048,1,,,,,,,,,,,,,,,,,,,,,,,,-0.028645833,-0.3671875,0,0,0,,,,,,,MUSCLE,LB,m,y,./images/MUSCLELB.png,,,,,,,,,,,,,,,,,,,,,,m,1,0.8048,,,,,,,,0,68,68,4,1
,,,,,,,,,,,,,,,,,5d0e88a255f0c70015345bdd,59,2022-02-12_13h44.02.915,lexical_decision_task_DD_L2,2021.2.3,Win32,60.60973392,,,,,,,,,,,0.6855,1,,,,,,,,,,,,,,,,,,,,,,,,-0.028645833,-0.3671875,0,0,0,,,,,,,PICKLE,C,m,y,./images/PICKLE.png,,,,,,,,,,,,,,,,,,,,,,m,1,0.6855,,,,,,,,0,69,69,14,1
,,,,,,,,,,,,,,,,,5d0e88a255f0c70015345bdd,59,2022-02-12_13h44.02.915,lexical_decision_task_DD_L2,2021.2.3,Win32,60.60973392,,,,,,,,,,,0.6833,1,,,,,,,,,,,,,,,,,,,,,,,,-0.028645833,-0.3671875,0,0,0,,,,,,,WRIST,LB,m,y,./images/WRISTLB.png,,,,,,,,,,,,,,,,,,,,,,m,1,0.6833,,,,,,,,0,70,70,25,1
,,,,,,,,,,,,,,,,,5d0e88a255f0c70015345bdd,59,2022-02-12_13h44.02.915,lexical_decision_task_DD_L2,2021.2.3,Win32,60.60973392,,,,,,,,,,,1.2156,1,,,,,,,,,,,,,,,,,,,,,,,,-0.028645833,-0.3671875,0,0,0,,,,,,,SCREW,HB,m,y,./images/SCREWHB.png,,,,,,,,,,,,,,,,,,,,,,m,1,1.2156,,,,,,,,0,71,71,24,1
,,,,,,,,,,,,,,,,,5d0e88a255f0c70015345bdd,59,2022-02-12_13h44.02.915,lexical_decision_task_DD_L2,2021.2.3,Win32,60.60973392,,,,,,,,,,,1.9642,0,,,,,,,,,,,,,,,,,,,,,,,,-0.028645833,-0.3671875,0,0,0,,,,,,,SMOKER,C,m,y,./images/SMOKER.png,,,,,,,,,,,,,,,,,,,,,,z,0,1.9642,,,,,,,,0,72,72,26,1
,,,,,,,,,,,,,,,,,5d0e88a255f0c70015345bdd,59,2022-02-12_13h44.02.915,lexical_decision_task_DD_L2,2021.2.3,Win32,60.60973392,,,,,,,,,,,0.8677,1,,,,,,,,,,,,,,,,,,,,,,,,-0.028645833,-0.3671875,0,0,0,,,,,,,BLOKE,HB,z,y,./images/BLOKEHB.png,,,,,,,,,,,,,,,,,,,,,,z,1,0.8677,,,,,,,,0,73,73,96,1
,,,,,,,,,,,,,,,,,5d0e88a255f0c70015345bdd,59,2022-02-12_13h44.02.915,lexical_decision_task_DD_L2,2021.2.3,Win32,60.60973392,,,,,,,,,,,1.4781,0,,,,,,,,,,,,,,,,,,,,,,,,-0.028645833,-0.3671875,0,0,0,,,,,,,RAZOR,LB,z,y,./images/RAZORLB.png,,,,,,,,,,,,,,,,,,,,,,m,0,1.4781,,,,,,,,0,74,74,118,1
,,,,,,,,,,,,,,,,,5d0e88a255f0c70015345bdd,59,2022-02-12_13h44.02.915,lexical_decision_task_DD_L2,2021.2.3,Win32,60.60973392,,,,,,,,,,,0.8374,1,,,,,,,,,,,,,,,,,,,,,,,,-0.028645833,-0.3671875,0,0,0,,,,,,,SUNSET,LB,m,y,./images/SUNSETLB.png,,,,,,,,,,,,,,,,,,,,,,m,1,0.8374,,,,,,,,0,75,75,82,1
,,,,,,,,,,,,,,,,,5d0e88a255f0c70015345bdd,59,2022-02-12_13h44.02.915,lexical_decision_task_DD_L2,2021.2.3,Win32,60.60973392,,,,,,,,,,,0.7851,1,,,,,,,,,,,,,,,,,,,,,,,,-0.028645833,-0.3671875,0,0,0,,,,,,,PISTOL,C,z,y,./images/PISTOL.png,,,,,,,,,,,,,,,,,,,,,,z,1,0.7851,,,,,,,,0,76,76,113,1
,,,,,,,,,,,,,,,,,5d0e88a255f0c70015345bdd,59,2022-02-12_13h44.02.915,lexical_decision_task_DD_L2,2021.2.3,Win32,60.60973392,,,,,,,,,,,0.7899,1,,,,,,,,,,,,,,,,,,,,,,,,-0.028645833,-0.3671875,0,0,0,,,,,,,PARADE,C,z,y,./images/PARADE.png,,,,,,,,,,,,,,,,,,,,,,z,1,0.7899,,,,,,,,0,77,77,101,1
,,,,,,,,,,,,,,,,,5d0e88a255f0c70015345bdd,59,2022-02-12_13h44.02.915,lexical_decision_task_DD_L2,2021.2.3,Win32,60.60973392,,,,,,,,,,,0.8323,1,,,,,,,,,,,,,,,,,,,,,,,,-0.028645833,-0.3671875,0,0,0,,,,,,,SAILOR,LB,m,y,./images/SAILORLB.png,,,,,,,,,,,,,,,,,,,,,,m,1,0.8323,,,,,,,,0,78,78,67,1
,,,,,,,,,,,,,,,,,5d0e88a255f0c70015345bdd,59,2022-02-12_13h44.02.915,lexical_decision_task_DD_L2,2021.2.3,Win32,60.60973392,,,,,,,,,,,1.2021,1,,,,,,,,,,,,,,,,,,,,,,,,-0.028645833,-0.3671875,0,0,0,,,,,,,COLLAR,HB,z,y,./images/COLLARHB.png,,,,,,,,,,,,,,,,,,,,,,z,1,1.2021,,,,,,,,0,79,79,99,1
,,,,,,,,,,,,,,,,,5d0e88a255f0c70015345bdd,59,2022-02-12_13h44.02.915,lexical_decision_task_DD_L2,2021.2.3,Win32,60.60973392,,,,,,,,,,,0.9183,0,,,,,,,,,,,,,,,,,,,,,,,,-0.028645833,-0.3671875,0,0,0,,,,,,,CANDY,HB,z,y,./images/CANDYHB.png,,,,,,,,,,,,,,,,,,,,,,m,0,0.9183,,,,,,,,0,80,80,123,1
,,,,,,,,,,,,,,,,,5d0e88a255f0c70015345bdd,59,2022-02-12_13h44.02.915,lexical_decision_task_DD_L2,2021.2.3,Win32,60.60973392,,,,,,,,,,,0.8662,1,,,,,,,,,,,,,,,,,,,,,,,,-0.028645833,-0.3671875,0,0,0,,,,,,,DRUMS,LB,m,y,./images/DRUMSLB.png,,,,,,,,,,,,,,,,,,,,,,m,1,0.8662,,,,,,,,0,81,81,49,1
,,,,,,,,,,,,,,,,,5d0e88a255f0c70015345bdd,59,2022-02-12_13h44.02.915,lexical_decision_task_DD_L2,2021.2.3,Win32,60.60973392,,,,,,,,,,,1.4024,0,,,,,,,,,,,,,,,,,,,,,,,,-0.028645833,-0.3671875,0,0,0,,,,,,,WEASEL,C,m,y,./images/WEASEL.png,,,,,,,,,,,,,,,,,,,,,,z,0,1.4024,,,,,,,,0,82,82,80,1
,,,,,,,,,,,,,,,,,5d0e88a255f0c70015345bdd,59,2022-02-12_13h44.02.915,lexical_decision_task_DD_L2,2021.2.3,Win32,60.60973392,,,,,,,,,,,0.6846,1,,,,,,,,,,,,,,,,,,,,,,,,-0.028645833,-0.3671875,0,0,0,space,,,,,,TULIP,C,m,y,./images/TULIP.png,,9.7347,,,,,,,,,,,,,,,,,,,,m,1,0.6846,,,,,,,,0,83,83,8,1
,,,,,,,,,,,,,,,,,5d0e88a255f0c70015345bdd,59,2022-02-12_13h44.02.915,lexical_decision_task_DD_L2,2021.2.3,Win32,60.60973392,,,,,,,,,,,1.08,1,,,,,,,,,,,,,,,,,,,,,,,,-0.028645833,-0.3671875,0,0,0,,,,,,,PEBBLE,LB,z,y,./images/PEBBLELB.png,,,,,,,,,,,,,,,,,,,,,,z,1,1.08,,,,,,,,0,84,84,166,1
,,,,,,,,,,,,,,,,,5d0e88a255f0c70015345bdd,59,2022-02-12_13h44.02.915,lexical_decision_task_DD_L2,2021.2.3,Win32,60.60973392,,,,,,,,,,,0.683,1,,,,,,,,,,,,,,,,,,,,,,,,-0.028645833,-0.3671875,0,0,0,,,,,,,CRADLE,C,m,y,./images/CRADLE.png,,,,,,,,,,,,,,,,,,,,,,m,1,0.683,,,,,,,,0,85,85,20,1
,,,,,,,,,,,,,,,,,5d0e88a255f0c70015345bdd,59,2022-02-12_13h44.02.915,lexical_decision_task_DD_L2,2021.2.3,Win32,60.60973392,,,,,,,,,,,1.0202,1,,,,,,,,,,,,,,,,,,,,,,,,-0.028645833,-0.3671875,0,0,0,,,,,,,SAUCE,HB,z,y,./images/SAUCEHB.png,,,,,,,,,,,,,,,,,,,,,,z,1,1.0202,,,,,,,,0,86,86,135,1
,,,,,,,,,,,,,,,,,5d0e88a255f0c70015345bdd,59,2022-02-12_13h44.02.915,lexical_decision_task_DD_L2,2021.2.3,Win32,60.60973392,,,,,,,,,,,0.8202,1,,,,,,,,,,,,,,,,,,,,,,,,-0.028645833,-0.3671875,0,0,0,,,,,,,CRATER,HB,z,y,./images/CRATERHB.png,,,,,,,,,,,,,,,,,,,,,,z,1,0.8202,,,,,,,,0,87,87,87,1
,,,,,,,,,,,,,,,,,5d0e88a255f0c70015345bdd,59,2022-02-12_13h44.02.915,lexical_decision_task_DD_L2,2021.2.3,Win32,60.60973392,,,,,,,,,,,1.1156,0,,,,,,,,,,,,,,,,,,,,,,,,-0.028645833,-0.3671875,0,0,0,,,,,,,PEACH,C,m,y,./images/PEACH.png,,,,,,,,,,,,,,,,,,,,,,z,0,1.1156,,,,,,,,0,88,88,35,1
,,,,,,,,,,,,,,,,,5d0e88a255f0c70015345bdd,59,2022-02-12_13h44.02.915,lexical_decision_task_DD_L2,2021.2.3,Win32,60.60973392,,,,,,,,,,,0.707,1,,,,,,,,,,,,,,,,,,,,,,,,-0.028645833,-0.3671875,0,0,0,,,,,,,FLESH,HB,z,y,./images/FLESHHB.png,,,,,,,,,,,,,,,,,,,,,,z,1,0.707,,,,,,,,0,89,89,108,1
,,,,,,,,,,,,,,,,,5d0e88a255f0c70015345bdd,59,2022-02-12_13h44.02.915,lexical_decision_task_DD_L2,2021.2.3,Win32,60.60973392,,,,,,,,,,,1.3393,1,,,,,,,,,,,,,,,,,,,,,,,,-0.028645833,-0.3671875,0,0,0,,,,,,,GREASE,HB,m,y,./images/GREASEHB.png,,,,,,,,,,,,,,,,,,,,,,m,1,1.3393,,,,,,,,0,90,90,15,1
,,,,,,,,,,,,,,,,,5d0e88a255f0c70015345bdd,59,2022-02-12_13h44.02.915,lexical_decision_task_DD_L2,2021.2.3,Win32,60.60973392,,,,,,,,,,,0.833,1,,,,,,,,,,,,,,,,,,,,,,,,-0.028645833,-0.3671875,0,0,0,,,,,,,FENCE,C,z,y,./images/FENCE.png,,,,,,,,,,,,,,,,,,,,,,z,1,0.833,,,,,,,,0,91,91,98,1
,,,,,,,,,,,,,,,,,5d0e88a255f0c70015345bdd,59,2022-02-12_13h44.02.915,lexical_decision_task_DD_L2,2021.2.3,Win32,60.60973392,,,,,,,,,,,0.7269,1,,,,,,,,,,,,,,,,,,,,,,,,-0.028645833,-0.3671875,0,0,0,,,,,,,RHINO,HB,m,y,./images/RHINOHB.png,,,,,,,,,,,,,,,,,,,,,,m,1,0.7269,,,,,,,,0,92,92,9,1
,,,,,,,,,,,,,,,,,5d0e88a255f0c70015345bdd,59,2022-02-12_13h44.02.915,lexical_decision_task_DD_L2,2021.2.3,Win32,60.60973392,,,,,,,,,,,0.8432,1,,,,,,,,,,,,,,,,,,,,,,,,-0.028645833,-0.3671875,0,0,0,,,,,,,TIGER,LB,z,y,./images/TIGERLB.png,,,,,,,,,,,,,,,,,,,,,,z,1,0.8432,,,,,,,,0,93,93,121,1
,,,,,,,,,,,,,,,,,5d0e88a255f0c70015345bdd,59,2022-02-12_13h44.02.915,lexical_decision_task_DD_L2,2021.2.3,Win32,60.60973392,,,,,,,,,,,0.8344,1,,,,,,,,,,,,,,,,,,,,,,,,-0.028645833,-0.3671875,0,0,0,,,,,,,RULER,LB,z,y,./images/RULERLB.png,,,,,,,,,,,,,,,,,,,,,,z,1,0.8344,,,,,,,,0,94,94,163,1
,,,,,,,,,,,,,,,,,5d0e88a255f0c70015345bdd,59,2022-02-12_13h44.02.915,lexical_decision_task_DD_L2,2021.2.3,Win32,60.60973392,,,,,,,,,,,0.7354,1,,,,,,,,,,,,,,,,,,,,,,,,-0.028645833,-0.3671875,0,0,0,,,,,,,CHAIN,HB,z,y,./images/CHAINHB.png,,,,,,,,,,,,,,,,,,,,,,z,1,0.7354,,,,,,,,0,95,95,126,1
,,,,,,,,,,,,,,,,,5d0e88a255f0c70015345bdd,59,2022-02-12_13h44.02.915,lexical_decision_task_DD_L2,2021.2.3,Win32,60.60973392,,,,,,,,,,,0.9979,1,,,,,,,,,,,,,,,,,,,,,,,,-0.028645833,-0.3671875,0,0,0,,,,,,,SPINE,C,z,y,./images/SPINE.png,,,,,,,,,,,,,,,,,,,,,,z,1,0.9979,,,,,,,,0,96,96,149,1
,,,,,,,,,,,,,,,,,5d0e88a255f0c70015345bdd,59,2022-02-12_13h44.02.915,lexical_decision_task_DD_L2,2021.2.3,Win32,60.60973392,,,,,,,,,,,0.7508,1,,,,,,,,,,,,,,,,,,,,,,,,-0.028645833,-0.3671875,0,0,0,,,,,,,FINGER,HB,m,y,./images/FINGERHB.png,,,,,,,,,,,,,,,,,,,,,,m,1,0.7508,,,,,,,,0,97,97,3,1
,,,,,,,,,,,,,,,,,5d0e88a255f0c70015345bdd,59,2022-02-12_13h44.02.915,lexical_decision_task_DD_L2,2021.2.3,Win32,60.60973392,,,,,,,,,,,0.7665,1,,,,,,,,,,,,,,,,,,,,,,,,-0.028645833,-0.3671875,0,0,0,,,,,,,SNAKE,LB,z,y,./images/SNAKELB.png,,,,,,,,,,,,,,,,,,,,,,z,1,0.7665,,,,,,,,0,98,98,124,1
,,,,,,,,,,,,,,,,,5d0e88a255f0c70015345bdd,59,2022-02-12_13h44.02.915,lexical_decision_task_DD_L2,2021.2.3,Win32,60.60973392,,,,,,,,,,,0.7834,1,,,,,,,,,,,,,,,,,,,,,,,,-0.028645833,-0.3671875,0,0,0,,,,,,,CANYON,LB,m,y,./images/CANYONLB.png,,,,,,,,,,,,,,,,,,,,,,m,1,0.7834,,,,,,,,0,99,99,34,1
,,,,,,,,,,,,,,,,,5d0e88a255f0c70015345bdd,59,2022-02-12_13h44.02.915,lexical_decision_task_DD_L2,2021.2.3,Win32,60.60973392,,,,,,,,,,,0.9001,0,,,,,,,,,,,,,,,,,,,,,,,,-0.028645833,-0.3671875,0,0,0,,,,,,,NOOSE,HB,m,y,./images/NOOSEHB.png,,,,,,,,,,,,,,,,,,,,,,z,0,0.9001,,,,,,,,0,100,100,72,1
,,,,,,,,,,,,,,,,,5d0e88a255f0c70015345bdd,59,2022-02-12_13h44.02.915,lexical_decision_task_DD_L2,2021.2.3,Win32,60.60973392,,,,,,,,,,,0.7496,1,,,,,,,,,,,,,,,,,,,,,,,,-0.028645833,-0.3671875,0,0,0,,,,,,,COOKER,HB,m,y,./images/COOKERHB.png,,,,,,,,,,,,,,,,,,,,,,m,1,0.7496,,,,,,,,0,101,101,69,1
,,,,,,,,,,,,,,,,,5d0e88a255f0c70015345bdd,59,2022-02-12_13h44.02.915,lexical_decision_task_DD_L2,2021.2.3,Win32,60.60973392,,,,,,,,,,,0.7843,1,,,,,,,,,,,,,,,,,,,,,,,,-0.028645833,-0.3671875,0,0,0,,,,,,,PENCE,LB,m,y,./images/PENCELB.png,,,,,,,,,,,,,,,,,,,,,,m,1,0.7843,,,,,,,,0,102,102,16,1
,,,,,,,,,,,,,,,,,5d0e88a255f0c70015345bdd,59,2022-02-12_13h44.02.915,lexical_decision_task_DD_L2,2021.2.3,Win32,60.60973392,,,,,,,,,,,0.6865,1,,,,,,,,,,,,,,,,,,,,,,,,-0.028645833,-0.3671875,0,0,0,,,,,,,SWEAT,HB,m,y,./images/SWEATHB.png,,,,,,,,,,,,,,,,,,,,,,m,1,0.6865,,,,,,,,0,103,103,66,1
,,,,,,,,,,,,,,,,,5d0e88a255f0c70015345bdd,59,2022-02-12_13h44.02.915,lexical_decision_task_DD_L2,2021.2.3,Win32,60.60973392,,,,,,,,,,,0.6995,1,,,,,,,,,,,,,,,,,,,,,,,,-0.028645833,-0.3671875,0,0,0,,,,,,,MIRROR,HB,m,y,./images/MIRRORHB.png,,,,,,,,,,,,,,,,,,,,,,m,1,0.6995,,,,,,,,0,104,104,63,1
,,,,,,,,,,,,,,,,,5d0e88a255f0c70015345bdd,59,2022-02-12_13h44.02.915,lexical_decision_task_DD_L2,2021.2.3,Win32,60.60973392,,,,,,,,,,,0.75,1,,,,,,,,,,,,,,,,,,,,,,,,-0.028645833,-0.3671875,0,0,0,,,,,,,TOMATO,HB,m,y,./images/TOMATOHB.png,,,,,,,,,,,,,,,,,,,,,,m,1,0.75,,,,,,,,0,105,105,0,1
,,,,,,,,,,,,,,,,,5d0e88a255f0c70015345bdd,59,2022-02-12_13h44.02.915,lexical_decision_task_DD_L2,2021.2.3,Win32,60.60973392,,,,,,,,,,,0.966,1,,,,,,,,,,,,,,,,,,,,,,,,-0.028645833,-0.3671875,0,0,0,,,,,,,CASINO,LB,z,y,./images/CASINOLB.png,,,,,,,,,,,,,,,,,,,,,,z,1,0.966,,,,,,,,0,106,106,112,1
,,,,,,,,,,,,,,,,,5d0e88a255f0c70015345bdd,59,2022-02-12_13h44.02.915,lexical_decision_task_DD_L2,2021.2.3,Win32,60.60973392,,,,,,,,,,,1.2658,1,,,,,,,,,,,,,,,,,,,,,,,,-0.028645833,-0.3671875,0,0,0,,,,,,,TWINS,HB,m,y,./images/TWINSHB.png,,,,,,,,,,,,,,,,,,,,,,m,1,1.2658,,,,,,,,0,107,107,60,1
,,,,,,,,,,,,,,,,,5d0e88a255f0c70015345bdd,59,2022-02-12_13h44.02.915,lexical_decision_task_DD_L2,2021.2.3,Win32,60.60973392,,,,,,,,,,,0.717,1,,,,,,,,,,,,,,,,,,,,,,,,-0.028645833,-0.3671875,0,0,0,,,,,,,BARREL,C,m,y,./images/BARREL.png,,,,,,,,,,,,,,,,,,,,,,m,1,0.717,,,,,,,,0,108,108,32,1
,,,,,,,,,,,,,,,,,5d0e88a255f0c70015345bdd,59,2022-02-12_13h44.02.915,lexical_decision_task_DD_L2,2021.2.3,Win32,60.60973392,,,,,,,,,,,1.2497,1,,,,,,,,,,,,,,,,,,,,,,,,-0.028645833,-0.3671875,0,0,0,,,,,,,LAGOON,C,z,y,./images/LAGOON.png,,,,,,,,,,,,,,,,,,,,,,z,1,1.2497,,,,,,,,0,109,109,131,1
,,,,,,,,,,,,,,,,,5d0e88a255f0c70015345bdd,59,2022-02-12_13h44.02.915,lexical_decision_task_DD_L2,2021.2.3,Win32,60.60973392,,,,,,,,,,,1.7142,0,,,,,,,,,,,,,,,,,,,,,,,,-0.028645833,-0.3671875,0,0,0,,,,,,,POODLE,HB,m,y,./images/POODLEHB.png,,,,,,,,,,,,,,,,,,,,,,z,0,1.7142,,,,,,,,0,110,110,81,1
,,,,,,,,,,,,,,,,,5d0e88a255f0c70015345bdd,59,2022-02-12_13h44.02.915,lexical_decision_task_DD_L2,2021.2.3,Win32,60.60973392,,,,,,,,,,,1.0054,1,,,,,,,,,,,,,,,,,,,,,,,,-0.028645833,-0.3671875,0,0,0,,,,,,,SLOPE,HB,z,y,./images/SLOPEHB.png,,,,,,,,,,,,,,,,,,,,,,z,1,1.0054,,,,,,,,0,111,111,114,1
,,,,,,,,,,,,,,,,,5d0e88a255f0c70015345bdd,59,2022-02-12_13h44.02.915,lexical_decision_task_DD_L2,2021.2.3,Win32,60.60973392,,,,,,,,,,,1.1591,1,,,,,,,,,,,,,,,,,,,,,,,,-0.028645833,-0.3671875,0,0,0,,,,,,,ARROW,HB,z,y,./images/ARROWHB.png,,,,,,,,,,,,,,,,,,,,,,z,1,1.1591,,,,,,,,0,112,112,153,1
,,,,,,,,,,,,,,,,,5d0e88a255f0c70015345bdd,59,2022-02-12_13h44.02.915,lexical_decision_task_DD_L2,2021.2.3,Win32,60.60973392,,,,,,,,,,,0.9493,1,,,,,,,,,,,,,,,,,,,,,,,,-0.028645833,-0.3671875,0,0,0,,,,,,,FOLDER,HB,m,y,./images/FOLDERHB.png,,,,,,,,,,,,,,,,,,,,,,m,1,0.9493,,,,,,,,0,113,113,42,1
,,,,,,,,,,,,,,,,,5d0e88a255f0c70015345bdd,59,2022-02-12_13h44.02.915,lexical_decision_task_DD_L2,2021.2.3,Win32,60.60973392,,,,,,,,,,,0.6832,1,,,,,,,,,,,,,,,,,,,,,,,,-0.028645833,-0.3671875,0,0,0,,,,,,,QUILL,LB,m,y,./images/QUILLLB.png,,,,,,,,,,,,,,,,,,,,,,m,1,0.6832,,,,,,,,0,114,114,31,1
,,,,,,,,,,,,,,,,,5d0e88a255f0c70015345bdd,59,2022-02-12_13h44.02.915,lexical_decision_task_DD_L2,2021.2.3,Win32,60.60973392,,,,,,,,,,,1.0183,1,,,,,,,,,,,,,,,,,,,,,,,,-0.028645833,-0.3671875,0,0,0,,,,,,,BASKET,C,z,y,./images/BASKET.png,,,,,,,,,,,,,,,,,,,,,,z,1,1.0183,,,,,,,,0,115,115,128,1
,,,,,,,,,,,,,,,,,5d0e88a255f0c70015345bdd,59,2022-02-12_13h44.02.915,lexical_decision_task_DD_L2,2021.2.3,Win32,60.60973392,,,,,,,,,,,1.5984,1,,,,,,,,,,,,,,,,,,,,,,,,-0.028645833,-0.3671875,0,0,0,,,,,,,LLAMA,C,z,y,./images/LLAMA.png,,,,,,,,,,,,,,,,,,,,,,z,1,1.5984,,,,,,,,0,116,116,119,1
,,,,,,,,,,,,,,,,,5d0e88a255f0c70015345bdd,59,2022-02-12_13h44.02.915,lexical_decision_task_DD_L2,2021.2.3,Win32,60.60973392,,,,,,,,,,,0.6661,1,,,,,,,,,,,,,,,,,,,,,,,,-0.028645833,-0.3671875,0,0,0,,,,,,,SQUARE,HB,m,y,./images/SQUAREHB.png,,,,,,,,,,,,,,,,,,,,,,m,1,0.6661,,,,,,,,0,117,117,6,1
,,,,,,,,,,,,,,,,,5d0e88a255f0c70015345bdd,59,2022-02-12_13h44.02.915,lexical_decision_task_DD_L2,2021.2.3,Win32,60.60973392,,,,,,,,,,,0.7238,1,,,,,,,,,,,,,,,,,,,,,,,,-0.028645833,-0.3671875,0,0,0,,,,,,,WHISKY,C,z,y,./images/WHISKY.png,,,,,,,,,,,,,,,,,,,,,,z,1,0.7238,,,,,,,,0,118,118,167,1
,,,,,,,,,,,,,,,,,5d0e88a255f0c70015345bdd,59,2022-02-12_13h44.02.915,lexical_decision_task_DD_L2,2021.2.3,Win32,60.60973392,,,,,,,,,,,0.7437,0,,,,,,,,,,,,,,,,,,,,,,,,-0.028645833,-0.3671875,0,0,0,,,,,,,SHIELD,HB,z,y,./images/SHIELDHB.png,,,,,,,,,,,,,,,,,,,,,,m,0,0.7437,,,,,,,,0,119,119,132,1
,,,,,,,,,,,,,,,,,5d0e88a255f0c70015345bdd,59,2022-02-12_13h44.02.915,lexical_decision_task_DD_L2,2021.2.3,Win32,60.60973392,,,,,,,,,,,0.7996,0,,,,,,,,,,,,,,,,,,,,,,,,-0.028645833,-0.3671875,0,0,0,,,,,,,CLOWN,LB,z,y,./images/CLOWNLB.png,,,,,,,,,,,,,,,,,,,,,,m,0,0.7996,,,,,,,,0,120,120,106,1
,,,,,,,,,,,,,,,,,5d0e88a255f0c70015345bdd,59,2022-02-12_13h44.02.915,lexical_decision_task_DD_L2,2021.2.3,Win32,60.60973392,,,,,,,,,,,0.7384,1,,,,,,,,,,,,,,,,,,,,,,,,-0.028645833,-0.3671875,0,0,0,,,,,,,VALLEY,C,z,y,./images/VALLEY.png,,,,,,,,,,,,,,,,,,,,,,z,1,0.7384,,,,,,,,0,121,121,152,1
,,,,,,,,,,,,,,,,,5d0e88a255f0c70015345bdd,59,2022-02-12_13h44.02.915,lexical_decision_task_DD_L2,2021.2.3,Win32,60.60973392,,,,,,,,,,,0.7667,1,,,,,,,,,,,,,,,,,,,,,,,,-0.028645833,-0.3671875,0,0,0,,,,,,,WALRUS,C,m,y,./images/WALRUS.png,,,,,,,,,,,,,,,,,,,,,,m,1,0.7667,,,,,,,,0,122,122,23,1
,,,,,,,,,,,,,,,,,5d0e88a255f0c70015345bdd,59,2022-02-12_13h44.02.915,lexical_decision_task_DD_L2,2021.2.3,Win32,60.60973392,,,,,,,,,,,0.7377,1,,,,,,,,,,,,,,,,,,,,,,,,-0.028645833,-0.3671875,0,0,0,,,,,,,CARPET,C,m,y,./images/CARPET.png,,,,,,,,,,,,,,,,,,,,,,m,1,0.7377,,,,,,,,0,123,123,53,1
,,,,,,,,,,,,,,,,,5d0e88a255f0c70015345bdd,59,2022-02-12_13h44.02.915,lexical_decision_task_DD_L2,2021.2.3,Win32,60.60973392,,,,,,,,,,,0.8008,1,,,,,,,,,,,,,,,,,,,,,,,,-0.028645833,-0.3671875,0,0,0,,,,,,,SHORE,HB,m,y,./images/SHOREHB.png,,,,,,,,,,,,,,,,,,,,,,m,1,0.8008,,,,,,,,0,124,124,12,1
,,,,,,,,,,,,,,,,,5d0e88a255f0c70015345bdd,59,2022-02-12_13h44.02.915,lexical_decision_task_DD_L2,2021.2.3,Win32,60.60973392,,,,,,,,,,,0.7324,1,,,,,,,,,,,,,,,,,,,,,,,,-0.028645833,-0.3671875,0,0,0,space,,,,,,CEMENT,C,m,y,./images/CEMENT.png,,9.3992,,,,,,,,,,,,,,,,,,,,m,1,0.7324,,,,,,,,0,125,125,74,1
,,,,,,,,,,,,,,,,,5d0e88a255f0c70015345bdd,59,2022-02-12_13h44.02.915,lexical_decision_task_DD_L2,2021.2.3,Win32,60.60973392,,,,,,,,,,,1.3179,1,,,,,,,,,,,,,,,,,,,,,,,,-0.028645833,-0.3671875,0,0,0,,,,,,,MOOSE,HB,m,y,./images/MOOSEHB.png,,,,,,,,,,,,,,,,,,,,,,m,1,1.3179,,,,,,,,0,126,126,57,1
,,,,,,,,,,,,,,,,,5d0e88a255f0c70015345bdd,59,2022-02-12_13h44.02.915,lexical_decision_task_DD_L2,2021.2.3,Win32,60.60973392,,,,,,,,,,,0.8162,1,,,,,,,,,,,,,,,,,,,,,,,,-0.028645833,-0.3671875,0,0,0,,,,,,,MIDGET,LB,z,y,./images/MIDGETLB.png,,,,,,,,,,,,,,,,,,,,,,z,1,0.8162,,,,,,,,0,127,127,160,1
,,,,,,,,,,,,,,,,,5d0e88a255f0c70015345bdd,59,2022-02-12_13h44.02.915,lexical_decision_task_DD_L2,2021.2.3,Win32,60.60973392,,,,,,,,,,,0.904,1,,,,,,,,,,,,,,,,,,,,,,,,-0.028645833,-0.3671875,0,0,0,,,,,,,HOCKEY,C,z,y,./images/HOCKEY.png,,,,,,,,,,,,,,,,,,,,,,z,1,0.904,,,,,,,,0,128,128,116,1
,,,,,,,,,,,,,,,,,5d0e88a255f0c70015345bdd,59,2022-02-12_13h44.02.915,lexical_decision_task_DD_L2,2021.2.3,Win32,60.60973392,,,,,,,,,,,0.8359,1,,,,,,,,,,,,,,,,,,,,,,,,-0.028645833,-0.3671875,0,0,0,,,,,,,SNACK,LB,m,y,./images/SNACKLB.png,,,,,,,,,,,,,,,,,,,,,,m,1,0.8359,,,,,,,,0,129,129,73,1
,,,,,,,,,,,,,,,,,5d0e88a255f0c70015345bdd,59,2022-02-12_13h44.02.915,lexical_decision_task_DD_L2,2021.2.3,Win32,60.60973392,,,,,,,,,,,0.8981,1,,,,,,,,,,,,,,,,,,,,,,,,-0.028645833,-0.3671875,0,0,0,,,,,,,BAKER,HB,z,y,./images/BAKERHB.png,,,,,,,,,,,,,,,,,,,,,,z,1,0.8981,,,,,,,,0,130,130,147,1
