key_resp.keys,key_resp.rt,instr_done_touch.x,instr_done_touch.y,instr_done_touch.leftButton,instr_done_touch.midButton,instr_done_touch.rightButton,instruction_pages.thisRepN,instruction_pages.thisTrialN,instruction_pages.thisN,instruction_pages.thisIndex,instruction_pages.ran,pageN,phase,instruct_text,has_image,instruct_image,participant,age,date,expName,psychopyVersion,OS,frameRate,response.keys,response.corr,response.rt,touch_resp.x,touch_resp.y,touch_resp.leftButton,touch_resp.midButton,touch_resp.rightButton,touch_resp.time,touch_resp.clicked_name,rt,corr,practrials.thisRepN,practrials.thisTrialN,practrials.thisN,practrials.thisIndex,practrials.ran,TrialID,Target,corrAns,end_of_practice_trials_pages.thisRepN,end_of_practice_trials_pages.thisTrialN,end_of_practice_trials_pages.thisN,end_of_practice_trials_pages.thisIndex,end_of_practice_trials_pages.ran,key_resp_2.keys,key_resp_2.corr,key_resp_2.rt,targ_click.x,targ_click.y,targ_click.leftButton,targ_click.midButton,targ_click.rightButton,targ_click.time,targ_click.clicked_name,break_done_touch.x,break_done_touch.y,break_done_touch.leftButton,break_done_touch.midButton,break_done_touch.rightButton,break_done_keyboard.keys,maintrials.thisRepN,maintrials.thisTrialN,maintrials.thisN,maintrials.thisIndex,maintrials.ran,string,blur,study,lex,stim_path,break_done_keyboard.rt,mouse_2.x,mouse_2.y,mouse_2.leftButton,mouse_2.midButton,mouse_2.rightButton,mouse_2.clicked_name,slider.response,slider.rt,trials.thisRepN,trials.thisTrialN,trials.thisN,trials.thisIndex,trials.ran,instr_done_touch.clicked_name,test_instructions.thisRepN,test_instructions.thisTrialN,test_instructions.thisN,test_instructions.thisIndex,test_instructions.ran,key_resp_3.keys,key_resp_3.corr,key_resp_3.rt,test_click.x,test_click.y,test_click.leftButton,test_click.midButton,test_click.rightButton,test_click.time,test_click.clicked_name,test_phase.thisRepN,test_phase.thisTrialN,test_phase.thisN,test_phase.thisIndex,test_phase.ran
space,18.261,0.33984375,0.020833333,0,0,0,0,0,0,0,1,1,instructions,"INSTRUCTIONS
At the start of each trial, look at the plus sign  (+) in the center of the screen.  This tells you that a trial is about to begin and where to look. Second, the plus sign will disappear and a string of letters will appear. Your task is to determine if the string of letters is a word or not. If the item is a word press the M key (on keyboard)  or touch the word button (phone/tablet).  If the item is not a word,  press the  Z key (on keyboard)  or touch the nonword button (on phone/tablet). 
Press the space bar or touch  continue.",0,,5d268981c22768000166c7c7,20,2022-02-12_17h47.47.322,lexical_decision_task_DD_L4,2021.2.3,Win32,60.13952369,,,,,,,,,,,,,,,,,,,,,,,,,,,,,,,,,,,,,,,,,,,,,,,,,,,,,,,,,,,,,,,,,,,,,,,,,,,,,,,,,,,,,,
space,5.1624,0.33984375,0.020833333,0,0,0,0,1,1,1,1,2,instructions,"If your device has a keyboard, press the 'Z' key for nonwords and the 'M' key for words.





Press the space bar or touch the button below to continue.",0,keyboard-example.gif,5d268981c22768000166c7c7,20,2022-02-12_17h47.47.322,lexical_decision_task_DD_L4,2021.2.3,Win32,60.13952369,,,,,,,,,,,,,,,,,,,,,,,,,,,,,,,,,,,,,,,,,,,,,,,,,,,,,,,,,,,,,,,,,,,,,,,,,,,,,,,,,,,,,,
space,2.1909,0.33984375,0.020833333,0,0,0,0,2,2,2,1,3,instructions,"If you are using a touchscreen only device, use the buttons on the screen. Do not use the mouse.





Press the space bar or touch the button below to continue.",0,touchscreen-example.gif,5d268981c22768000166c7c7,20,2022-02-12_17h47.47.322,lexical_decision_task_DD_L4,2021.2.3,Win32,60.13952369,,,,,,,,,,,,,,,,,,,,,,,,,,,,,,,,,,,,,,,,,,,,,,,,,,,,,,,,,,,,,,,,,,,,,,,,,,,,,,,,,,,,,,
space,7.5876,0.33984375,0.020833333,0,0,0,0,3,3,3,1,4,instructions,"It is very important that you respond as quickly and accurately as possible, as each letter string will only be on the screen for two seconds. If you do not respond within this time, the message 'Too slow!' will be displayed and the experiment will progress to the next letter string. The first 20 trials will be practice trials and you will receive feedback on your answers. 

Press the space bar or touch the button below to start the practice trials.",0,,5d268981c22768000166c7c7,20,2022-02-12_17h47.47.322,lexical_decision_task_DD_L4,2021.2.3,Win32,60.13952369,,,,,,,,,,,,,,,,,,,,,,,,,,,,,,,,,,,,,,,,,,,,,,,,,,,,,,,,,,,,,,,,,,,,,,,,,,,,,,,,,,,,,,
,,,,,,,,,,,,,,,,,5d268981c22768000166c7c7,20,2022-02-12_17h47.47.322,lexical_decision_task_DD_L4,2021.2.3,Win32,60.13952369,m,0,0.4663,,,,,,,,0.4663,0,0,0,0,14,1,1001,THRALE,z,,,,,,,,,,,,,,,,,,,,,,,,,,,,,,,,,,,,,,,,,,,,,,,,,,,,,,,,,,,,,,,,,,
,,,,,,,,,,,,,,,,,5d268981c22768000166c7c7,20,2022-02-12_17h47.47.322,lexical_decision_task_DD_L4,2021.2.3,Win32,60.13952369,m,0,0.5813,,,,,,,,0.5813,0,0,1,1,12,1,1001,SPRINY,z,,,,,,,,,,,,,,,,,,,,,,,,,,,,,,,,,,,,,,,,,,,,,,,,,,,,,,,,,,,,,,,,,,
,,,,,,,,,,,,,,,,,5d268981c22768000166c7c7,20,2022-02-12_17h47.47.322,lexical_decision_task_DD_L4,2021.2.3,Win32,60.13952369,m,1,0.5881,,,,,,,,0.5881,1,0,2,2,3,1,1001,MATRIX,m,,,,,,,,,,,,,,,,,,,,,,,,,,,,,,,,,,,,,,,,,,,,,,,,,,,,,,,,,,,,,,,,,,
,,,,,,,,,,,,,,,,,5d268981c22768000166c7c7,20,2022-02-12_17h47.47.322,lexical_decision_task_DD_L4,2021.2.3,Win32,60.13952369,m,1,0.637,,,,,,,,0.637,1,0,3,3,5,1,1001,OBTAIN,m,,,,,,,,,,,,,,,,,,,,,,,,,,,,,,,,,,,,,,,,,,,,,,,,,,,,,,,,,,,,,,,,,,
,,,,,,,,,,,,,,,,,5d268981c22768000166c7c7,20,2022-02-12_17h47.47.322,lexical_decision_task_DD_L4,2021.2.3,Win32,60.13952369,z,1,0.6871,,,,,,,,0.6871,1,0,4,4,15,1,1001,WHAISE,z,,,,,,,,,,,,,,,,,,,,,,,,,,,,,,,,,,,,,,,,,,,,,,,,,,,,,,,,,,,,,,,,,,
,,,,,,,,,,,,,,,,,5d268981c22768000166c7c7,20,2022-02-12_17h47.47.322,lexical_decision_task_DD_L4,2021.2.3,Win32,60.13952369,m,1,0.6683,,,,,,,,0.6683,1,0,5,5,0,1,1001,UTOPIA,m,,,,,,,,,,,,,,,,,,,,,,,,,,,,,,,,,,,,,,,,,,,,,,,,,,,,,,,,,,,,,,,,,,
,,,,,,,,,,,,,,,,,5d268981c22768000166c7c7,20,2022-02-12_17h47.47.322,lexical_decision_task_DD_L4,2021.2.3,Win32,60.13952369,m,1,0.5875,,,,,,,,0.5875,1,0,6,6,1,1,1001,ADJUST,m,,,,,,,,,,,,,,,,,,,,,,,,,,,,,,,,,,,,,,,,,,,,,,,,,,,,,,,,,,,,,,,,,,
,,,,,,,,,,,,,,,,,5d268981c22768000166c7c7,20,2022-02-12_17h47.47.322,lexical_decision_task_DD_L4,2021.2.3,Win32,60.13952369,z,1,0.6041,,,,,,,,0.6041,1,0,7,7,11,1,1001,RASHET,z,,,,,,,,,,,,,,,,,,,,,,,,,,,,,,,,,,,,,,,,,,,,,,,,,,,,,,,,,,,,,,,,,,
,,,,,,,,,,,,,,,,,5d268981c22768000166c7c7,20,2022-02-12_17h47.47.322,lexical_decision_task_DD_L4,2021.2.3,Win32,60.13952369,m,1,0.5878,,,,,,,,0.5878,1,0,8,8,2,1,1001,ALMOND,m,,,,,,,,,,,,,,,,,,,,,,,,,,,,,,,,,,,,,,,,,,,,,,,,,,,,,,,,,,,,,,,,,,
,,,,,,,,,,,,,,,,,5d268981c22768000166c7c7,20,2022-02-12_17h47.47.322,lexical_decision_task_DD_L4,2021.2.3,Win32,60.13952369,z,1,0.6377,,,,,,,,0.6377,1,0,9,9,9,1,1001,FARINY,z,,,,,,,,,,,,,,,,,,,,,,,,,,,,,,,,,,,,,,,,,,,,,,,,,,,,,,,,,,,,,,,,,,
,,,,,,,,,,,,,,,,,5d268981c22768000166c7c7,20,2022-02-12_17h47.47.322,lexical_decision_task_DD_L4,2021.2.3,Win32,60.13952369,m,1,0.6338,,,,,,,,0.6338,1,0,10,10,7,1,1001,VOLUME,m,,,,,,,,,,,,,,,,,,,,,,,,,,,,,,,,,,,,,,,,,,,,,,,,,,,,,,,,,,,,,,,,,,
,,,,,,,,,,,,,,,,,5d268981c22768000166c7c7,20,2022-02-12_17h47.47.322,lexical_decision_task_DD_L4,2021.2.3,Win32,60.13952369,z,1,0.6533,,,,,,,,0.6533,1,0,11,11,8,1,1001,ASLERT,z,,,,,,,,,,,,,,,,,,,,,,,,,,,,,,,,,,,,,,,,,,,,,,,,,,,,,,,,,,,,,,,,,,
,,,,,,,,,,,,,,,,,5d268981c22768000166c7c7,20,2022-02-12_17h47.47.322,lexical_decision_task_DD_L4,2021.2.3,Win32,60.13952369,z,1,0.5386,,,,,,,,0.5386,1,0,12,12,13,1,1001,ROUPET,z,,,,,,,,,,,,,,,,,,,,,,,,,,,,,,,,,,,,,,,,,,,,,,,,,,,,,,,,,,,,,,,,,,
,,,,,,,,,,,,,,,,,5d268981c22768000166c7c7,20,2022-02-12_17h47.47.322,lexical_decision_task_DD_L4,2021.2.3,Win32,60.13952369,z,1,0.6376,,,,,,,,0.6376,1,0,13,13,10,1,1001,INLADE,z,,,,,,,,,,,,,,,,,,,,,,,,,,,,,,,,,,,,,,,,,,,,,,,,,,,,,,,,,,,,,,,,,,
,,,,,,,,,,,,,,,,,5d268981c22768000166c7c7,20,2022-02-12_17h47.47.322,lexical_decision_task_DD_L4,2021.2.3,Win32,60.13952369,m,1,0.4874,,,,,,,,0.4874,1,0,14,14,6,1,1001,ZOMBIE,m,,,,,,,,,,,,,,,,,,,,,,,,,,,,,,,,,,,,,,,,,,,,,,,,,,,,,,,,,,,,,,,,,,
,,,,,,,,,,,,,,,,,5d268981c22768000166c7c7,20,2022-02-12_17h47.47.322,lexical_decision_task_DD_L4,2021.2.3,Win32,60.13952369,m,1,0.5377,,,,,,,,0.5377,1,0,15,15,4,1,1001,SQUEAK,m,,,,,,,,,,,,,,,,,,,,,,,,,,,,,,,,,,,,,,,,,,,,,,,,,,,,,,,,,,,,,,,,,,
space,8.7225,0.33984375,0.020833333,0,0,0,,,,,,1,end_of_practice,"You have completed the practice trials. During the experimental trials, you will not receive feedback. 
Before you begin, please ensure that you are in a comfortable and quiet location and will not be disturbed for about 15 minutes, as we cannot use your data if you do not complete all the trials. 
 When you are ready to start the experimental trials, please press space or touch the button below.",,,5d268981c22768000166c7c7,20,2022-02-12_17h47.47.322,lexical_decision_task_DD_L4,2021.2.3,Win32,60.13952369,,,,,,,,,,,,,,,,,,,,,0,0,0,0,1,,,,,,,,,,,,,,,,,,,,,,,,,,,,,,,,,,,,,,,,,,,,,,,,,,,,,,,,,,,,,
,,,,,,,,,,,,,,,,,5d268981c22768000166c7c7,20,2022-02-12_17h47.47.322,lexical_decision_task_DD_L4,2021.2.3,Win32,60.13952369,,,,,,,,,,,1.1464,1,,,,,,,,,,,,,,z,1,1.1464,,,,,,,,0.33984375,0.020833333,0,0,0,,0,0,0,133,1,POWDY,HB,old,z,./images/POWDYHB.png,,,,,,,,,,,,,,,,,,,,,,,,,,,,,,,,,,,
,,,,,,,,,,,,,,,,,5d268981c22768000166c7c7,20,2022-02-12_17h47.47.322,lexical_decision_task_DD_L4,2021.2.3,Win32,60.13952369,,,,,,,,,,,0.6474,1,,,,,,,,,,,,,,m,1,0.6474,,,,,,,,0.33984375,0.020833333,0,0,0,,0,1,1,1,1,TOWEL,HB,old,m,./images/TOWELHB.png,,,,,,,,,,,,,,,,,,,,,,,,,,,,,,,,,,,
,,,,,,,,,,,,,,,,,5d268981c22768000166c7c7,20,2022-02-12_17h47.47.322,lexical_decision_task_DD_L4,2021.2.3,Win32,60.13952369,,,,,,,,,,,0.5604,1,,,,,,,,,,,,,,z,1,0.5604,,,,,,,,0.33984375,0.020833333,0,0,0,,0,2,2,126,1,GUELS,C,old,z,./images/GUELS.png,,,,,,,,,,,,,,,,,,,,,,,,,,,,,,,,,,,
,,,,,,,,,,,,,,,,,5d268981c22768000166c7c7,20,2022-02-12_17h47.47.322,lexical_decision_task_DD_L4,2021.2.3,Win32,60.13952369,,,,,,,,,,,0.7859,1,,,,,,,,,,,,,,m,1,0.7859,,,,,,,,0.33984375,0.020833333,0,0,0,,0,3,3,47,1,LAGOON,LB,old,m,./images/LAGOONLB.png,,,,,,,,,,,,,,,,,,,,,,,,,,,,,,,,,,,
,,,,,,,,,,,,,,,,,5d268981c22768000166c7c7,20,2022-02-12_17h47.47.322,lexical_decision_task_DD_L4,2021.2.3,Win32,60.13952369,,,,,,,,,,,0.7966,1,,,,,,,,,,,,,,z,1,0.7966,,,,,,,,0.33984375,0.020833333,0,0,0,,0,4,4,139,1,BLEAR,HB,old,z,./images/BLEARHB.png,,,,,,,,,,,,,,,,,,,,,,,,,,,,,,,,,,,
,,,,,,,,,,,,,,,,,5d268981c22768000166c7c7,20,2022-02-12_17h47.47.322,lexical_decision_task_DD_L4,2021.2.3,Win32,60.13952369,,,,,,,,,,,0.8793,1,,,,,,,,,,,,,,z,1,0.8793,,,,,,,,0.33984375,0.020833333,0,0,0,,0,5,5,146,1,MOOST,LB,old,z,./images/MOOSTLB.png,,,,,,,,,,,,,,,,,,,,,,,,,,,,,,,,,,,
,,,,,,,,,,,,,,,,,5d268981c22768000166c7c7,20,2022-02-12_17h47.47.322,lexical_decision_task_DD_L4,2021.2.3,Win32,60.13952369,,,,,,,,,,,0.6512,1,,,,,,,,,,,,,,m,1,0.6512,,,,,,,,0.33984375,0.020833333,0,0,0,,0,6,6,17,1,PARADE,LB,old,m,./images/PARADELB.png,,,,,,,,,,,,,,,,,,,,,,,,,,,,,,,,,,,
,,,,,,,,,,,,,,,,,5d268981c22768000166c7c7,20,2022-02-12_17h47.47.322,lexical_decision_task_DD_L4,2021.2.3,Win32,60.13952369,,,,,,,,,,,0.5253,1,,,,,,,,,,,,,,z,1,0.5253,,,,,,,,0.33984375,0.020833333,0,0,0,,0,7,7,90,1,NEAST,C,old,z,./images/NEAST.png,,,,,,,,,,,,,,,,,,,,,,,,,,,,,,,,,,,
,,,,,,,,,,,,,,,,,5d268981c22768000166c7c7,20,2022-02-12_17h47.47.322,lexical_decision_task_DD_L4,2021.2.3,Win32,60.13952369,,,,,,,,,,,0.6184,1,,,,,,,,,,,,,,m,1,0.6184,,,,,,,,0.33984375,0.020833333,0,0,0,,0,8,8,12,1,BLOKE,C,old,m,./images/BLOKE.png,,,,,,,,,,,,,,,,,,,,,,,,,,,,,,,,,,,
,,,,,,,,,,,,,,,,,5d268981c22768000166c7c7,20,2022-02-12_17h47.47.322,lexical_decision_task_DD_L4,2021.2.3,Win32,60.13952369,,,,,,,,,,,0.9898,1,,,,,,,,,,,,,,z,1,0.9898,,,,,,,,0.33984375,0.020833333,0,0,0,,0,9,9,152,1,FRAIN,LB,old,z,./images/FRAINLB.png,,,,,,,,,,,,,,,,,,,,,,,,,,,,,,,,,,,
,,,,,,,,,,,,,,,,,5d268981c22768000166c7c7,20,2022-02-12_17h47.47.322,lexical_decision_task_DD_L4,2021.2.3,Win32,60.13952369,,,,,,,,,,,0.8111,1,,,,,,,,,,,,,,z,1,0.8111,,,,,,,,0.33984375,0.020833333,0,0,0,,0,10,10,99,1,BACKY,C,old,z,./images/BACKY.png,,,,,,,,,,,,,,,,,,,,,,,,,,,,,,,,,,,
,,,,,,,,,,,,,,,,,5d268981c22768000166c7c7,20,2022-02-12_17h47.47.322,lexical_decision_task_DD_L4,2021.2.3,Win32,60.13952369,,,,,,,,,,,0.5686,1,,,,,,,,,,,,,,m,1,0.5686,,,,,,,,0.33984375,0.020833333,0,0,0,,0,11,11,23,1,CLOTH,LB,old,m,./images/CLOTHLB.png,,,,,,,,,,,,,,,,,,,,,,,,,,,,,,,,,,,
,,,,,,,,,,,,,,,,,5d268981c22768000166c7c7,20,2022-02-12_17h47.47.322,lexical_decision_task_DD_L4,2021.2.3,Win32,60.13952369,,,,,,,,,,,0.5348,1,,,,,,,,,,,,,,z,1,0.5348,,,,,,,,0.33984375,0.020833333,0,0,0,,0,12,12,138,1,PLICE,C,old,z,./images/PLICE.png,,,,,,,,,,,,,,,,,,,,,,,,,,,,,,,,,,,
,,,,,,,,,,,,,,,,,5d268981c22768000166c7c7,20,2022-02-12_17h47.47.322,lexical_decision_task_DD_L4,2021.2.3,Win32,60.13952369,,,,,,,,,,,0.5416,1,,,,,,,,,,,,,,m,1,0.5416,,,,,,,,0.33984375,0.020833333,0,0,0,,0,13,13,45,1,MONKEY,C,old,m,./images/MONKEY.png,,,,,,,,,,,,,,,,,,,,,,,,,,,,,,,,,,,
,,,,,,,,,,,,,,,,,5d268981c22768000166c7c7,20,2022-02-12_17h47.47.322,lexical_decision_task_DD_L4,2021.2.3,Win32,60.13952369,,,,,,,,,,,0.5422,1,,,,,,,,,,,,,,m,1,0.5422,,,,,,,,0.33984375,0.020833333,0,0,0,,0,14,14,54,1,CHERRY,C,old,m,./images/CHERRY.png,,,,,,,,,,,,,,,,,,,,,,,,,,,,,,,,,,,
,,,,,,,,,,,,,,,,,5d268981c22768000166c7c7,20,2022-02-12_17h47.47.322,lexical_decision_task_DD_L4,2021.2.3,Win32,60.13952369,,,,,,,,,,,0.8138,1,,,,,,,,,,,,,,m,1,0.8138,,,,,,,,0.33984375,0.020833333,0,0,0,,0,15,15,31,1,STEAK,HB,old,m,./images/STEAKHB.png,,,,,,,,,,,,,,,,,,,,,,,,,,,,,,,,,,,
,,,,,,,,,,,,,,,,,5d268981c22768000166c7c7,20,2022-02-12_17h47.47.322,lexical_decision_task_DD_L4,2021.2.3,Win32,60.13952369,,,,,,,,,,,0.6663,1,,,,,,,,,,,,,,z,1,0.6663,,,,,,,,0.33984375,0.020833333,0,0,0,,0,16,16,107,1,FASKS,LB,old,z,./images/FASKSLB.png,,,,,,,,,,,,,,,,,,,,,,,,,,,,,,,,,,,
,,,,,,,,,,,,,,,,,5d268981c22768000166c7c7,20,2022-02-12_17h47.47.322,lexical_decision_task_DD_L4,2021.2.3,Win32,60.13952369,,,,,,,,,,,0.7872,1,,,,,,,,,,,,,,m,1,0.7872,,,,,,,,0.33984375,0.020833333,0,0,0,,0,17,17,63,1,BAKER,C,old,m,./images/BAKER.png,,,,,,,,,,,,,,,,,,,,,,,,,,,,,,,,,,,
,,,,,,,,,,,,,,,,,5d268981c22768000166c7c7,20,2022-02-12_17h47.47.322,lexical_decision_task_DD_L4,2021.2.3,Win32,60.13952369,,,,,,,,,,,0.5566,1,,,,,,,,,,,,,,z,1,0.5566,,,,,,,,0.33984375,0.020833333,0,0,0,,0,18,18,94,1,BLANS,HB,old,z,./images/BLANSHB.png,,,,,,,,,,,,,,,,,,,,,,,,,,,,,,,,,,,
,,,,,,,,,,,,,,,,,5d268981c22768000166c7c7,20,2022-02-12_17h47.47.322,lexical_decision_task_DD_L4,2021.2.3,Win32,60.13952369,,,,,,,,,,,0.6691,1,,,,,,,,,,,,,,z,1,0.6691,,,,,,,,0.33984375,0.020833333,0,0,0,,0,19,19,93,1,SMONE,C,old,z,./images/SMONE.png,,,,,,,,,,,,,,,,,,,,,,,,,,,,,,,,,,,
,,,,,,,,,,,,,,,,,5d268981c22768000166c7c7,20,2022-02-12_17h47.47.322,lexical_decision_task_DD_L4,2021.2.3,Win32,60.13952369,,,,,,,,,,,0.6371,1,,,,,,,,,,,,,,m,1,0.6371,,,,,,,,0.33984375,0.020833333,0,0,0,,0,20,20,25,1,CHALK,HB,old,m,./images/CHALKHB.png,,,,,,,,,,,,,,,,,,,,,,,,,,,,,,,,,,,
,,,,,,,,,,,,,,,,,5d268981c22768000166c7c7,20,2022-02-12_17h47.47.322,lexical_decision_task_DD_L4,2021.2.3,Win32,60.13952369,,,,,,,,,,,0.482,1,,,,,,,,,,,,,,m,1,0.482,,,,,,,,0.33984375,0.020833333,0,0,0,,0,21,21,51,1,SAUCE,C,old,m,./images/SAUCE.png,,,,,,,,,,,,,,,,,,,,,,,,,,,,,,,,,,,
,,,,,,,,,,,,,,,,,5d268981c22768000166c7c7,20,2022-02-12_17h47.47.322,lexical_decision_task_DD_L4,2021.2.3,Win32,60.13952369,,,,,,,,,,,0.4481,0,,,,,,,,,,,,,,z,0,0.4481,,,,,,,,0.33984375,0.020833333,0,0,0,,0,22,22,53,1,POSTER,LB,old,m,./images/POSTERLB.png,,,,,,,,,,,,,,,,,,,,,,,,,,,,,,,,,,,
,,,,,,,,,,,,,,,,,5d268981c22768000166c7c7,20,2022-02-12_17h47.47.322,lexical_decision_task_DD_L4,2021.2.3,Win32,60.13952369,,,,,,,,,,,0.5801,1,,,,,,,,,,,,,,z,1,0.5801,,,,,,,,0.33984375,0.020833333,0,0,0,,0,23,23,153,1,CLUPS,C,old,z,./images/CLUPS.png,,,,,,,,,,,,,,,,,,,,,,,,,,,,,,,,,,,
,,,,,,,,,,,,,,,,,5d268981c22768000166c7c7,20,2022-02-12_17h47.47.322,lexical_decision_task_DD_L4,2021.2.3,Win32,60.13952369,,,,,,,,,,,0.4851,1,,,,,,,,,,,,,,z,1,0.4851,,,,,,,,0.33984375,0.020833333,0,0,0,,0,24,24,102,1,DULLE,C,old,z,./images/DULLE.png,,,,,,,,,,,,,,,,,,,,,,,,,,,,,,,,,,,
,,,,,,,,,,,,,,,,,5d268981c22768000166c7c7,20,2022-02-12_17h47.47.322,lexical_decision_task_DD_L4,2021.2.3,Win32,60.13952369,,,,,,,,,,,0.4727,1,,,,,,,,,,,,,,z,1,0.4727,,,,,,,,0.33984375,0.020833333,0,0,0,,0,25,25,114,1,RIKES,C,old,z,./images/RIKES.png,,,,,,,,,,,,,,,,,,,,,,,,,,,,,,,,,,,
,,,,,,,,,,,,,,,,,5d268981c22768000166c7c7,20,2022-02-12_17h47.47.322,lexical_decision_task_DD_L4,2021.2.3,Win32,60.13952369,,,,,,,,,,,0.5526,1,,,,,,,,,,,,,,m,1,0.5526,,,,,,,,0.33984375,0.020833333,0,0,0,,0,26,26,56,1,HEATER,LB,old,m,./images/HEATERLB.png,,,,,,,,,,,,,,,,,,,,,,,,,,,,,,,,,,,
,,,,,,,,,,,,,,,,,5d268981c22768000166c7c7,20,2022-02-12_17h47.47.322,lexical_decision_task_DD_L4,2021.2.3,Win32,60.13952369,,,,,,,,,,,0.7428,1,,,,,,,,,,,,,,m,1,0.7428,,,,,,,,0.33984375,0.020833333,0,0,0,,0,27,27,34,1,RAZOR,HB,old,m,./images/RAZORHB.png,,,,,,,,,,,,,,,,,,,,,,,,,,,,,,,,,,,
,,,,,,,,,,,,,,,,,5d268981c22768000166c7c7,20,2022-02-12_17h47.47.322,lexical_decision_task_DD_L4,2021.2.3,Win32,60.13952369,,,,,,,,,,,0.5,1,,,,,,,,,,,,,,m,1,0.5,,,,,,,,0.33984375,0.020833333,0,0,0,,0,28,28,80,1,PLANET,LB,old,m,./images/PLANETLB.png,,,,,,,,,,,,,,,,,,,,,,,,,,,,,,,,,,,
,,,,,,,,,,,,,,,,,5d268981c22768000166c7c7,20,2022-02-12_17h47.47.322,lexical_decision_task_DD_L4,2021.2.3,Win32,60.13952369,,,,,,,,,,,0.5808,1,,,,,,,,,,,,,,z,1,0.5808,,,,,,,,0.33984375,0.020833333,0,0,0,,0,29,29,158,1,EGECT,LB,old,z,./images/EGECTLB.png,,,,,,,,,,,,,,,,,,,,,,,,,,,,,,,,,,,
,,,,,,,,,,,,,,,,,5d268981c22768000166c7c7,20,2022-02-12_17h47.47.322,lexical_decision_task_DD_L4,2021.2.3,Win32,60.13952369,,,,,,,,,,,0.8005,1,,,,,,,,,,,,,,z,1,0.8005,,,,,,,,0.33984375,0.020833333,0,0,0,,0,30,30,157,1,INLER,HB,old,z,./images/INLERHB.png,,,,,,,,,,,,,,,,,,,,,,,,,,,,,,,,,,,
,,,,,,,,,,,,,,,,,5d268981c22768000166c7c7,20,2022-02-12_17h47.47.322,lexical_decision_task_DD_L4,2021.2.3,Win32,60.13952369,,,,,,,,,,,0.7634,1,,,,,,,,,,,,,,m,1,0.7634,,,,,,,,0.33984375,0.020833333,0,0,0,,0,31,31,55,1,ALLEY,HB,old,m,./images/ALLEYHB.png,,,,,,,,,,,,,,,,,,,,,,,,,,,,,,,,,,,
,,,,,,,,,,,,,,,,,5d268981c22768000166c7c7,20,2022-02-12_17h47.47.322,lexical_decision_task_DD_L4,2021.2.3,Win32,60.13952369,,,,,,,,,,,0.6807,1,,,,,,,,,,,,,,m,1,0.6807,,,,,,,,0.33984375,0.020833333,0,0,0,,0,32,32,5,1,BAMBOO,LB,old,m,./images/BAMBOOLB.png,,,,,,,,,,,,,,,,,,,,,,,,,,,,,,,,,,,
,,,,,,,,,,,,,,,,,5d268981c22768000166c7c7,20,2022-02-12_17h47.47.322,lexical_decision_task_DD_L4,2021.2.3,Win32,60.13952369,,,,,,,,,,,0.58,1,,,,,,,,,,,,,,z,1,0.58,,,,,,,,0.33984375,0.020833333,0,0,0,,0,33,33,137,1,JOOST,LB,old,z,./images/JOOSTLB.png,,,,,,,,,,,,,,,,,,,,,,,,,,,,,,,,,,,
,,,,,,,,,,,,,,,,,5d268981c22768000166c7c7,20,2022-02-12_17h47.47.322,lexical_decision_task_DD_L4,2021.2.3,Win32,60.13952369,,,,,,,,,,,0.7366,1,,,,,,,,,,,,,,m,1,0.7366,,,,,,,,0.33984375,0.020833333,0,0,0,,0,34,34,40,1,SNAKE,HB,old,m,./images/SNAKEHB.png,,,,,,,,,,,,,,,,,,,,,,,,,,,,,,,,,,,
,,,,,,,,,,,,,,,,,5d268981c22768000166c7c7,20,2022-02-12_17h47.47.322,lexical_decision_task_DD_L4,2021.2.3,Win32,60.13952369,,,,,,,,,,,0.5591,1,,,,,,,,,,,,,,z,1,0.5591,,,,,,,,0.33984375,0.020833333,0,0,0,,0,35,35,84,1,HAXES,C,old,z,./images/HAXES.png,,,,,,,,,,,,,,,,,,,,,,,,,,,,,,,,,,,
,,,,,,,,,,,,,,,,,5d268981c22768000166c7c7,20,2022-02-12_17h47.47.322,lexical_decision_task_DD_L4,2021.2.3,Win32,60.13952369,,,,,,,,,,,0.5144,1,,,,,,,,,,,,,,z,1,0.5144,,,,,,,,0.33984375,0.020833333,0,0,0,,0,36,36,162,1,LEICH,C,old,z,./images/LEICH.png,,,,,,,,,,,,,,,,,,,,,,,,,,,,,,,,,,,
,,,,,,,,,,,,,,,,,5d268981c22768000166c7c7,20,2022-02-12_17h47.47.322,lexical_decision_task_DD_L4,2021.2.3,Win32,60.13952369,,,,,,,,,,,0.8481,1,,,,,,,,,,,,,,m,1,0.8481,,,,,,,,0.33984375,0.020833333,0,0,0,,0,37,37,8,1,CLIFF,LB,old,m,./images/CLIFFLB.png,,,,,,,,,,,,,,,,,,,,,,,,,,,,,,,,,,,
,,,,,,,,,,,,,,,,,5d268981c22768000166c7c7,20,2022-02-12_17h47.47.322,lexical_decision_task_DD_L4,2021.2.3,Win32,60.13952369,,,,,,,,,,,0.5976,1,,,,,,,,,,,,,,z,1,0.5976,,,,,,,,0.33984375,0.020833333,0,0,0,,0,38,38,86,1,AIFED,LB,old,z,./images/AIFEDLB.png,,,,,,,,,,,,,,,,,,,,,,,,,,,,,,,,,,,
,,,,,,,,,,,,,,,,,5d268981c22768000166c7c7,20,2022-02-12_17h47.47.322,lexical_decision_task_DD_L4,2021.2.3,Win32,60.13952369,,,,,,,,,,,0.4885,1,,,,,,,,,,,,,,m,1,0.4885,,,,,,,,0.33984375,0.020833333,0,0,0,,0,39,39,75,1,HAMMER,C,old,m,./images/HAMMER.png,,,,,,,,,,,,,,,,,,,,,,,,,,,,,,,,,,,
,,,,,,,,,,,,,,,,,5d268981c22768000166c7c7,20,2022-02-12_17h47.47.322,lexical_decision_task_DD_L4,2021.2.3,Win32,60.13952369,,,,,,,,,,,0.7352,1,,,,,,,,,,,,,,z,1,0.7352,,,,,,,,0.33984375,0.020833333,0,0,0,,0,40,40,110,1,CRUNK,LB,old,z,./images/CRUNKLB.png,,,,,,,,,,,,,,,,,,,,,,,,,,,,,,,,,,,
,,,,,,,,,,,,,,,,,5d268981c22768000166c7c7,20,2022-02-12_17h47.47.322,lexical_decision_task_DD_L4,2021.2.3,Win32,60.13952369,,,,,,,,,,,0.7152,1,,,,,,,,,,,,,,z,1,0.7152,,,,,,,,0.33984375,0.020833333,0,0,0,space,0,41,41,88,1,GLUSH,HB,old,z,./images/GLUSHHB.png,3.4371,,,,,,,,,,,,,,,,,,,,,,,,,,,,,,,,,,
,,,,,,,,,,,,,,,,,5d268981c22768000166c7c7,20,2022-02-12_17h47.47.322,lexical_decision_task_DD_L4,2021.2.3,Win32,60.13952369,,,,,,,,,,,0.6202,1,,,,,,,,,,,,,,z,1,0.6202,,,,,,,,0.33984375,0.020833333,0,0,0,,0,42,42,103,1,FLORT,HB,old,z,./images/FLORTHB.png,,,,,,,,,,,,,,,,,,,,,,,,,,,,,,,,,,,
,,,,,,,,,,,,,,,,,5d268981c22768000166c7c7,20,2022-02-12_17h47.47.322,lexical_decision_task_DD_L4,2021.2.3,Win32,60.13952369,,,,,,,,,,,0.9196,0,,,,,,,,,,,,,,z,0,0.9196,,,,,,,,0.33984375,0.020833333,0,0,0,,0,43,43,67,1,POKER,HB,old,m,./images/POKERHB.png,,,,,,,,,,,,,,,,,,,,,,,,,,,,,,,,,,,
,,,,,,,,,,,,,,,,,5d268981c22768000166c7c7,20,2022-02-12_17h47.47.322,lexical_decision_task_DD_L4,2021.2.3,Win32,60.13952369,,,,,,,,,,,0.5167,0,,,,,,,,,,,,,,z,0,0.5167,,,,,,,,0.33984375,0.020833333,0,0,0,,0,44,44,71,1,BUBBLE,LB,old,m,./images/BUBBLELB.png,,,,,,,,,,,,,,,,,,,,,,,,,,,,,,,,,,,
,,,,,,,,,,,,,,,,,5d268981c22768000166c7c7,20,2022-02-12_17h47.47.322,lexical_decision_task_DD_L4,2021.2.3,Win32,60.13952369,,,,,,,,,,,0.4981,1,,,,,,,,,,,,,,m,1,0.4981,,,,,,,,0.33984375,0.020833333,0,0,0,,0,45,45,77,1,WHEEL,LB,old,m,./images/WHEELLB.png,,,,,,,,,,,,,,,,,,,,,,,,,,,,,,,,,,,
,,,,,,,,,,,,,,,,,5d268981c22768000166c7c7,20,2022-02-12_17h47.47.322,lexical_decision_task_DD_L4,2021.2.3,Win32,60.13952369,,,,,,,,,,,0.6794,1,,,,,,,,,,,,,,z,1,0.6794,,,,,,,,0.33984375,0.020833333,0,0,0,,0,46,46,150,1,NOOLS,C,old,z,./images/NOOLS.png,,,,,,,,,,,,,,,,,,,,,,,,,,,,,,,,,,,
,,,,,,,,,,,,,,,,,5d268981c22768000166c7c7,20,2022-02-12_17h47.47.322,lexical_decision_task_DD_L4,2021.2.3,Win32,60.13952369,,,,,,,,,,,0.597,1,,,,,,,,,,,,,,z,1,0.597,,,,,,,,0.33984375,0.020833333,0,0,0,,0,47,47,118,1,BAVEL,HB,old,z,./images/BAVELHB.png,,,,,,,,,,,,,,,,,,,,,,,,,,,,,,,,,,,
,,,,,,,,,,,,,,,,,5d268981c22768000166c7c7,20,2022-02-12_17h47.47.322,lexical_decision_task_DD_L4,2021.2.3,Win32,60.13952369,,,,,,,,,,,0.619,1,,,,,,,,,,,,,,z,1,0.619,,,,,,,,0.33984375,0.020833333,0,0,0,,0,48,48,109,1,BURGE,HB,old,z,./images/BURGEHB.png,,,,,,,,,,,,,,,,,,,,,,,,,,,,,,,,,,,
,,,,,,,,,,,,,,,,,5d268981c22768000166c7c7,20,2022-02-12_17h47.47.322,lexical_decision_task_DD_L4,2021.2.3,Win32,60.13952369,,,,,,,,,,,0.6933,1,,,,,,,,,,,,,,z,1,0.6933,,,,,,,,0.33984375,0.020833333,0,0,0,,0,49,49,116,1,BALGY,LB,old,z,./images/BALGYLB.png,,,,,,,,,,,,,,,,,,,,,,,,,,,,,,,,,,,
,,,,,,,,,,,,,,,,,5d268981c22768000166c7c7,20,2022-02-12_17h47.47.322,lexical_decision_task_DD_L4,2021.2.3,Win32,60.13952369,,,,,,,,,,,0.7246,1,,,,,,,,,,,,,,z,1,0.7246,,,,,,,,0.33984375,0.020833333,0,0,0,,0,50,50,160,1,VEETS,HB,old,z,./images/VEETSHB.png,,,,,,,,,,,,,,,,,,,,,,,,,,,,,,,,,,,
,,,,,,,,,,,,,,,,,5d268981c22768000166c7c7,20,2022-02-12_17h47.47.322,lexical_decision_task_DD_L4,2021.2.3,Win32,60.13952369,,,,,,,,,,,0.4731,1,,,,,,,,,,,,,,m,1,0.4731,,,,,,,,0.33984375,0.020833333,0,0,0,,0,51,51,44,1,BASKET,LB,old,m,./images/BASKETLB.png,,,,,,,,,,,,,,,,,,,,,,,,,,,,,,,,,,,
,,,,,,,,,,,,,,,,,5d268981c22768000166c7c7,20,2022-02-12_17h47.47.322,lexical_decision_task_DD_L4,2021.2.3,Win32,60.13952369,,,,,,,,,,,0.5804,1,,,,,,,,,,,,,,m,1,0.5804,,,,,,,,0.33984375,0.020833333,0,0,0,,0,52,52,78,1,BROOM,C,old,m,./images/BROOM.png,,,,,,,,,,,,,,,,,,,,,,,,,,,,,,,,,,,
,,,,,,,,,,,,,,,,,5d268981c22768000166c7c7,20,2022-02-12_17h47.47.322,lexical_decision_task_DD_L4,2021.2.3,Win32,60.13952369,,,,,,,,,,,0.6234,1,,,,,,,,,,,,,,m,1,0.6234,,,,,,,,0.33984375,0.020833333,0,0,0,,0,53,53,57,1,FERRY,C,old,m,./images/FERRY.png,,,,,,,,,,,,,,,,,,,,,,,,,,,,,,,,,,,
,,,,,,,,,,,,,,,,,5d268981c22768000166c7c7,20,2022-02-12_17h47.47.322,lexical_decision_task_DD_L4,2021.2.3,Win32,60.13952369,,,,,,,,,,,0.8531,1,,,,,,,,,,,,,,m,1,0.8531,,,,,,,,0.33984375,0.020833333,0,0,0,,0,54,54,49,1,BISHOP,HB,old,m,./images/BISHOPHB.png,,,,,,,,,,,,,,,,,,,,,,,,,,,,,,,,,,,
,,,,,,,,,,,,,,,,,5d268981c22768000166c7c7,20,2022-02-12_17h47.47.322,lexical_decision_task_DD_L4,2021.2.3,Win32,60.13952369,,,,,,,,,,,0.5564,1,,,,,,,,,,,,,,m,1,0.5564,,,,,,,,0.33984375,0.020833333,0,0,0,,0,55,55,68,1,VALLEY,LB,old,m,./images/VALLEYLB.png,,,,,,,,,,,,,,,,,,,,,,,,,,,,,,,,,,,
,,,,,,,,,,,,,,,,,5d268981c22768000166c7c7,20,2022-02-12_17h47.47.322,lexical_decision_task_DD_L4,2021.2.3,Win32,60.13952369,,,,,,,,,,,0.4973,1,,,,,,,,,,,,,,z,1,0.4973,,,,,,,,0.33984375,0.020833333,0,0,0,,0,56,56,135,1,JOODY,C,old,z,./images/JOODY.png,,,,,,,,,,,,,,,,,,,,,,,,,,,,,,,,,,,
,,,,,,,,,,,,,,,,,5d268981c22768000166c7c7,20,2022-02-12_17h47.47.322,lexical_decision_task_DD_L4,2021.2.3,Win32,60.13952369,,,,,,,,,,,0.4662,0,,,,,,,,,,,,,,z,0,0.4662,,,,,,,,0.33984375,0.020833333,0,0,0,,0,57,57,30,1,SLOPE,C,old,m,./images/SLOPE.png,,,,,,,,,,,,,,,,,,,,,,,,,,,,,,,,,,,
,,,,,,,,,,,,,,,,,5d268981c22768000166c7c7,20,2022-02-12_17h47.47.322,lexical_decision_task_DD_L4,2021.2.3,Win32,60.13952369,,,,,,,,,,,0.5315,1,,,,,,,,,,,,,,z,1,0.5315,,,,,,,,0.33984375,0.020833333,0,0,0,,0,58,58,117,1,STEEG,C,old,z,./images/STEEG.png,,,,,,,,,,,,,,,,,,,,,,,,,,,,,,,,,,,
,,,,,,,,,,,,,,,,,5d268981c22768000166c7c7,20,2022-02-12_17h47.47.322,lexical_decision_task_DD_L4,2021.2.3,Win32,60.13952369,,,,,,,,,,,0.9119,1,,,,,,,,,,,,,,z,1,0.9119,,,,,,,,0.33984375,0.020833333,0,0,0,,0,59,59,96,1,KEAMS,C,old,z,./images/KEAMS.png,,,,,,,,,,,,,,,,,,,,,,,,,,,,,,,,,,,
,,,,,,,,,,,,,,,,,5d268981c22768000166c7c7,20,2022-02-12_17h47.47.322,lexical_decision_task_DD_L4,2021.2.3,Win32,60.13952369,,,,,,,,,,,0.9205,1,,,,,,,,,,,,,,m,1,0.9205,,,,,,,,0.33984375,0.020833333,0,0,0,,0,60,60,4,1,BOXER,HB,old,m,./images/BOXERHB.png,,,,,,,,,,,,,,,,,,,,,,,,,,,,,,,,,,,
,,,,,,,,,,,,,,,,,5d268981c22768000166c7c7,20,2022-02-12_17h47.47.322,lexical_decision_task_DD_L4,2021.2.3,Win32,60.13952369,,,,,,,,,,,0.6592,1,,,,,,,,,,,,,,m,1,0.6592,,,,,,,,0.33984375,0.020833333,0,0,0,,0,61,61,74,1,JUMPER,LB,old,m,./images/JUMPERLB.png,,,,,,,,,,,,,,,,,,,,,,,,,,,,,,,,,,,
,,,,,,,,,,,,,,,,,5d268981c22768000166c7c7,20,2022-02-12_17h47.47.322,lexical_decision_task_DD_L4,2021.2.3,Win32,60.13952369,,,,,,,,,,,0.6914,1,,,,,,,,,,,,,,m,1,0.6914,,,,,,,,0.33984375,0.020833333,0,0,0,,0,62,62,35,1,LLAMA,LB,old,m,./images/LLAMALB.png,,,,,,,,,,,,,,,,,,,,,,,,,,,,,,,,,,,
,,,,,,,,,,,,,,,,,5d268981c22768000166c7c7,20,2022-02-12_17h47.47.322,lexical_decision_task_DD_L4,2021.2.3,Win32,60.13952369,,,,,,,,,,,0.4359,1,,,,,,,,,,,,,,m,1,0.4359,,,,,,,,0.33984375,0.020833333,0,0,0,,0,63,63,29,1,PISTOL,LB,old,m,./images/PISTOLLB.png,,,,,,,,,,,,,,,,,,,,,,,,,,,,,,,,,,,
,,,,,,,,,,,,,,,,,5d268981c22768000166c7c7,20,2022-02-12_17h47.47.322,lexical_decision_task_DD_L4,2021.2.3,Win32,60.13952369,,,,,,,,,,,0.7775,1,,,,,,,,,,,,,,m,1,0.7775,,,,,,,,0.33984375,0.020833333,0,0,0,,0,64,64,33,1,SAUNA,C,old,m,./images/SAUNA.png,,,,,,,,,,,,,,,,,,,,,,,,,,,,,,,,,,,
,,,,,,,,,,,,,,,,,5d268981c22768000166c7c7,20,2022-02-12_17h47.47.322,lexical_decision_task_DD_L4,2021.2.3,Win32,60.13952369,,,,,,,,,,,0.3478,0,,,,,,,,,,,,,,z,0,0.3478,,,,,,,,0.33984375,0.020833333,0,0,0,,0,65,65,69,1,ARROW,C,old,m,./images/ARROW.png,,,,,,,,,,,,,,,,,,,,,,,,,,,,,,,,,,,
,,,,,,,,,,,,,,,,,5d268981c22768000166c7c7,20,2022-02-12_17h47.47.322,lexical_decision_task_DD_L4,2021.2.3,Win32,60.13952369,,,,,,,,,,,0.6571,1,,,,,,,,,,,,,,z,1,0.6571,,,,,,,,0.33984375,0.020833333,0,0,0,,0,66,66,89,1,DRIEK,LB,old,z,./images/DRIEKLB.png,,,,,,,,,,,,,,,,,,,,,,,,,,,,,,,,,,,
,,,,,,,,,,,,,,,,,5d268981c22768000166c7c7,20,2022-02-12_17h47.47.322,lexical_decision_task_DD_L4,2021.2.3,Win32,60.13952369,,,,,,,,,,,0.488,1,,,,,,,,,,,,,,m,1,0.488,,,,,,,,0.33984375,0.020833333,0,0,0,,0,67,67,2,1,STOVE,LB,old,m,./images/STOVELB.png,,,,,,,,,,,,,,,,,,,,,,,,,,,,,,,,,,,
,,,,,,,,,,,,,,,,,5d268981c22768000166c7c7,20,2022-02-12_17h47.47.322,lexical_decision_task_DD_L4,2021.2.3,Win32,60.13952369,,,,,,,,,,,0.6546,1,,,,,,,,,,,,,,m,1,0.6546,,,,,,,,0.33984375,0.020833333,0,0,0,,0,68,68,26,1,CLOUD,LB,old,m,./images/CLOUDLB.png,,,,,,,,,,,,,,,,,,,,,,,,,,,,,,,,,,,
,,,,,,,,,,,,,,,,,5d268981c22768000166c7c7,20,2022-02-12_17h47.47.322,lexical_decision_task_DD_L4,2021.2.3,Win32,60.13952369,,,,,,,,,,,0.7629,1,,,,,,,,,,,,,,m,1,0.7629,,,,,,,,0.33984375,0.020833333,0,0,0,,0,69,69,60,1,CURRY,C,old,m,./images/CURRY.png,,,,,,,,,,,,,,,,,,,,,,,,,,,,,,,,,,,
,,,,,,,,,,,,,,,,,5d268981c22768000166c7c7,20,2022-02-12_17h47.47.322,lexical_decision_task_DD_L4,2021.2.3,Win32,60.13952369,,,,,,,,,,,0.6848,1,,,,,,,,,,,,,,m,1,0.6848,,,,,,,,0.33984375,0.020833333,0,0,0,,0,70,70,61,1,ARTIST,HB,old,m,./images/ARTISTHB.png,,,,,,,,,,,,,,,,,,,,,,,,,,,,,,,,,,,
,,,,,,,,,,,,,,,,,5d268981c22768000166c7c7,20,2022-02-12_17h47.47.322,lexical_decision_task_DD_L4,2021.2.3,Win32,60.13952369,,,,,,,,,,,0.9964,1,,,,,,,,,,,,,,z,1,0.9964,,,,,,,,0.33984375,0.020833333,0,0,0,,0,71,71,121,1,CEERS,HB,old,z,./images/CEERSHB.png,,,,,,,,,,,,,,,,,,,,,,,,,,,,,,,,,,,
,,,,,,,,,,,,,,,,,5d268981c22768000166c7c7,20,2022-02-12_17h47.47.322,lexical_decision_task_DD_L4,2021.2.3,Win32,60.13952369,,,,,,,,,,,0.6137,1,,,,,,,,,,,,,,m,1,0.6137,,,,,,,,0.33984375,0.020833333,0,0,0,,0,72,72,65,1,SPINE,LB,old,m,./images/SPINELB.png,,,,,,,,,,,,,,,,,,,,,,,,,,,,,,,,,,,
,,,,,,,,,,,,,,,,,5d268981c22768000166c7c7,20,2022-02-12_17h47.47.322,lexical_decision_task_DD_L4,2021.2.3,Win32,60.13952369,,,,,,,,,,,0.571,1,,,,,,,,,,,,,,z,1,0.571,,,,,,,,0.33984375,0.020833333,0,0,0,,0,73,73,111,1,HOSSE,C,old,z,./images/HOSSE.png,,,,,,,,,,,,,,,,,,,,,,,,,,,,,,,,,,,
,,,,,,,,,,,,,,,,,5d268981c22768000166c7c7,20,2022-02-12_17h47.47.322,lexical_decision_task_DD_L4,2021.2.3,Win32,60.13952369,,,,,,,,,,,0.695,1,,,,,,,,,,,,,,z,1,0.695,,,,,,,,0.33984375,0.020833333,0,0,0,,0,74,74,87,1,TRING,C,old,z,./images/TRING.png,,,,,,,,,,,,,,,,,,,,,,,,,,,,,,,,,,,
,,,,,,,,,,,,,,,,,5d268981c22768000166c7c7,20,2022-02-12_17h47.47.322,lexical_decision_task_DD_L4,2021.2.3,Win32,60.13952369,,,,,,,,,,,0.5791,1,,,,,,,,,,,,,,m,1,0.5791,,,,,,,,0.33984375,0.020833333,0,0,0,,0,75,75,43,1,STOOL,HB,old,m,./images/STOOLHB.png,,,,,,,,,,,,,,,,,,,,,,,,,,,,,,,,,,,
,,,,,,,,,,,,,,,,,5d268981c22768000166c7c7,20,2022-02-12_17h47.47.322,lexical_decision_task_DD_L4,2021.2.3,Win32,60.13952369,,,,,,,,,,,0.8341,1,,,,,,,,,,,,,,z,1,0.8341,,,,,,,,0.33984375,0.020833333,0,0,0,,0,76,76,136,1,WERVE,HB,old,z,./images/WERVEHB.png,,,,,,,,,,,,,,,,,,,,,,,,,,,,,,,,,,,
,,,,,,,,,,,,,,,,,5d268981c22768000166c7c7,20,2022-02-12_17h47.47.322,lexical_decision_task_DD_L4,2021.2.3,Win32,60.13952369,,,,,,,,,,,0.6249,1,,,,,,,,,,,,,,z,1,0.6249,,,,,,,,0.33984375,0.020833333,0,0,0,,0,77,77,165,1,TROWN,C,old,z,./images/TROWN.png,,,,,,,,,,,,,,,,,,,,,,,,,,,,,,,,,,,
,,,,,,,,,,,,,,,,,5d268981c22768000166c7c7,20,2022-02-12_17h47.47.322,lexical_decision_task_DD_L4,2021.2.3,Win32,60.13952369,,,,,,,,,,,0.6474,1,,,,,,,,,,,,,,m,1,0.6474,,,,,,,,0.33984375,0.020833333,0,0,0,,0,78,78,81,1,DRILL,C,old,m,./images/DRILL.png,,,,,,,,,,,,,,,,,,,,,,,,,,,,,,,,,,,
,,,,,,,,,,,,,,,,,5d268981c22768000166c7c7,20,2022-02-12_17h47.47.322,lexical_decision_task_DD_L4,2021.2.3,Win32,60.13952369,,,,,,,,,,,0.6646,1,,,,,,,,,,,,,,z,1,0.6646,,,,,,,,0.33984375,0.020833333,0,0,0,,0,79,79,154,1,THINT,HB,old,z,./images/THINTHB.png,,,,,,,,,,,,,,,,,,,,,,,,,,,,,,,,,,,
,,,,,,,,,,,,,,,,,5d268981c22768000166c7c7,20,2022-02-12_17h47.47.322,lexical_decision_task_DD_L4,2021.2.3,Win32,60.13952369,,,,,,,,,,,0.6319,1,,,,,,,,,,,,,,z,1,0.6319,,,,,,,,0.33984375,0.020833333,0,0,0,,0,80,80,98,1,BAMPS,LB,old,z,./images/BAMPSLB.png,,,,,,,,,,,,,,,,,,,,,,,,,,,,,,,,,,,
,,,,,,,,,,,,,,,,,5d268981c22768000166c7c7,20,2022-02-12_17h47.47.322,lexical_decision_task_DD_L4,2021.2.3,Win32,60.13952369,,,,,,,,,,,0.5273,1,,,,,,,,,,,,,,z,1,0.5273,,,,,,,,0.33984375,0.020833333,0,0,0,,0,81,81,120,1,RINED,C,old,z,./images/RINED.png,,,,,,,,,,,,,,,,,,,,,,,,,,,,,,,,,,,
,,,,,,,,,,,,,,,,,5d268981c22768000166c7c7,20,2022-02-12_17h47.47.322,lexical_decision_task_DD_L4,2021.2.3,Win32,60.13952369,,,,,,,,,,,1.3222,1,,,,,,,,,,,,,,m,1,1.3222,,,,,,,,0.33984375,0.020833333,0,0,0,,0,82,82,52,1,DESERT,HB,old,m,./images/DESERTHB.png,,,,,,,,,,,,,,,,,,,,,,,,,,,,,,,,,,,
,,,,,,,,,,,,,,,,,5d268981c22768000166c7c7,20,2022-02-12_17h47.47.322,lexical_decision_task_DD_L4,2021.2.3,Win32,60.13952369,,,,,,,,,,,0.5081,1,,,,,,,,,,,,,,m,1,0.5081,,,,,,,,0.33984375,0.020833333,0,0,0,space,0,83,83,14,1,FENCE,LB,old,m,./images/FENCELB.png,1.8522,,,,,,,,,,,,,,,,,,,,,,,,,,,,,,,,,,
,,,,,,,,,,,,,,,,,5d268981c22768000166c7c7,20,2022-02-12_17h47.47.322,lexical_decision_task_DD_L4,2021.2.3,Win32,60.13952369,,,,,,,,,,,0.6382,1,,,,,,,,,,,,,,z,1,0.6382,,,,,,,,0.33984375,0.020833333,0,0,0,,0,84,84,112,1,MYING,HB,old,z,./images/MYINGHB.png,,,,,,,,,,,,,,,,,,,,,,,,,,,,,,,,,,,
,,,,,,,,,,,,,,,,,5d268981c22768000166c7c7,20,2022-02-12_17h47.47.322,lexical_decision_task_DD_L4,2021.2.3,Win32,60.13952369,,,,,,,,,,,0.6359,1,,,,,,,,,,,,,,m,1,0.6359,,,,,,,,0.33984375,0.020833333,0,0,0,,0,85,85,38,1,ENGINE,LB,old,m,./images/ENGINELB.png,,,,,,,,,,,,,,,,,,,,,,,,,,,,,,,,,,,
,,,,,,,,,,,,,,,,,5d268981c22768000166c7c7,20,2022-02-12_17h47.47.322,lexical_decision_task_DD_L4,2021.2.3,Win32,60.13952369,,,,,,,,,,,0.9144,1,,,,,,,,,,,,,,z,1,0.9144,,,,,,,,0.33984375,0.020833333,0,0,0,,0,86,86,140,1,DOVET,LB,old,z,./images/DOVETLB.png,,,,,,,,,,,,,,,,,,,,,,,,,,,,,,,,,,,
,,,,,,,,,,,,,,,,,5d268981c22768000166c7c7,20,2022-02-12_17h47.47.322,lexical_decision_task_DD_L4,2021.2.3,Win32,60.13952369,,,,,,,,,,,0.8837,1,,,,,,,,,,,,,,m,1,0.8837,,,,,,,,0.33984375,0.020833333,0,0,0,,0,87,87,76,1,MIDGET,HB,old,m,./images/MIDGETHB.png,,,,,,,,,,,,,,,,,,,,,,,,,,,,,,,,,,,
,,,,,,,,,,,,,,,,,5d268981c22768000166c7c7,20,2022-02-12_17h47.47.322,lexical_decision_task_DD_L4,2021.2.3,Win32,60.13952369,,,,,,,,,,,0.5468,1,,,,,,,,,,,,,,m,1,0.5468,,,,,,,,0.33984375,0.020833333,0,0,0,,0,88,88,59,1,BRUSH,LB,old,m,./images/BRUSHLB.png,,,,,,,,,,,,,,,,,,,,,,,,,,,,,,,,,,,
,,,,,,,,,,,,,,,,,5d268981c22768000166c7c7,20,2022-02-12_17h47.47.322,lexical_decision_task_DD_L4,2021.2.3,Win32,60.13952369,,,,,,,,,,,0.6639,1,,,,,,,,,,,,,,z,1,0.6639,,,,,,,,0.33984375,0.020833333,0,0,0,,0,89,89,92,1,PAIMS,LB,old,z,./images/PAIMSLB.png,,,,,,,,,,,,,,,,,,,,,,,,,,,,,,,,,,,
,,,,,,,,,,,,,,,,,5d268981c22768000166c7c7,20,2022-02-12_17h47.47.322,lexical_decision_task_DD_L4,2021.2.3,Win32,60.13952369,,,,,,,,,,,0.8963,1,,,,,,,,,,,,,,m,1,0.8963,,,,,,,,0.33984375,0.020833333,0,0,0,,0,90,90,73,1,GLOVE,HB,old,m,./images/GLOVEHB.png,,,,,,,,,,,,,,,,,,,,,,,,,,,,,,,,,,,
,,,,,,,,,,,,,,,,,5d268981c22768000166c7c7,20,2022-02-12_17h47.47.322,lexical_decision_task_DD_L4,2021.2.3,Win32,60.13952369,,,,,,,,,,,0.5806,1,,,,,,,,,,,,,,z,1,0.5806,,,,,,,,0.33984375,0.020833333,0,0,0,,0,91,91,148,1,JOMS,HB,old,z,./images/JOMSHB.png,,,,,,,,,,,,,,,,,,,,,,,,,,,,,,,,,,,
,,,,,,,,,,,,,,,,,5d268981c22768000166c7c7,20,2022-02-12_17h47.47.322,lexical_decision_task_DD_L4,2021.2.3,Win32,60.13952369,,,,,,,,,,,0.6028,1,,,,,,,,,,,,,,m,1,0.6028,,,,,,,,0.33984375,0.020833333,0,0,0,,0,92,92,48,1,SHIELD,C,old,m,./images/SHIELD.png,,,,,,,,,,,,,,,,,,,,,,,,,,,,,,,,,,,
,,,,,,,,,,,,,,,,,5d268981c22768000166c7c7,20,2022-02-12_17h47.47.322,lexical_decision_task_DD_L4,2021.2.3,Win32,60.13952369,,,,,,,,,,,0.5824,1,,,,,,,,,,,,,,m,1,0.5824,,,,,,,,0.33984375,0.020833333,0,0,0,,0,93,93,27,1,BUTTER,C,old,m,./images/BUTTER.png,,,,,,,,,,,,,,,,,,,,,,,,,,,,,,,,,,,
,,,,,,,,,,,,,,,,,5d268981c22768000166c7c7,20,2022-02-12_17h47.47.322,lexical_decision_task_DD_L4,2021.2.3,Win32,60.13952369,,,,,,,,,,,0.6118,1,,,,,,,,,,,,,,z,1,0.6118,,,,,,,,0.33984375,0.020833333,0,0,0,,0,94,94,130,1,CRILL,HB,old,z,./images/CRILLHB.png,,,,,,,,,,,,,,,,,,,,,,,,,,,,,,,,,,,
,,,,,,,,,,,,,,,,,5d268981c22768000166c7c7,20,2022-02-12_17h47.47.322,lexical_decision_task_DD_L4,2021.2.3,Win32,60.13952369,,,,,,,,,,,0.8417,1,,,,,,,,,,,,,,m,1,0.8417,,,,,,,,0.33984375,0.020833333,0,0,0,,0,95,95,24,1,FLESH,C,old,m,./images/FLESH.png,,,,,,,,,,,,,,,,,,,,,,,,,,,,,,,,,,,
,,,,,,,,,,,,,,,,,5d268981c22768000166c7c7,20,2022-02-12_17h47.47.322,lexical_decision_task_DD_L4,2021.2.3,Win32,60.13952369,,,,,,,,,,,0.6893,0,,,,,,,,,,,,,,z,0,0.6893,,,,,,,,0.33984375,0.020833333,0,0,0,,0,96,96,79,1,RULER,HB,old,m,./images/RULERHB.png,,,,,,,,,,,,,,,,,,,,,,,,,,,,,,,,,,,
,,,,,,,,,,,,,,,,,5d268981c22768000166c7c7,20,2022-02-12_17h47.47.322,lexical_decision_task_DD_L4,2021.2.3,Win32,60.13952369,,,,,,,,,,,0.6213,1,,,,,,,,,,,,,,z,1,0.6213,,,,,,,,0.33984375,0.020833333,0,0,0,,0,97,97,161,1,BLAPS,LB,old,z,./images/BLAPSLB.png,,,,,,,,,,,,,,,,,,,,,,,,,,,,,,,,,,,
,,,,,,,,,,,,,,,,,5d268981c22768000166c7c7,20,2022-02-12_17h47.47.322,lexical_decision_task_DD_L4,2021.2.3,Win32,60.13952369,,,,,,,,,,,0.4966,1,,,,,,,,,,,,,,z,1,0.4966,,,,,,,,0.33984375,0.020833333,0,0,0,,0,98,98,108,1,GRUET,C,old,z,./images/GRUET.png,,,,,,,,,,,,,,,,,,,,,,,,,,,,,,,,,,,
,,,,,,,,,,,,,,,,,5d268981c22768000166c7c7,20,2022-02-12_17h47.47.322,lexical_decision_task_DD_L4,2021.2.3,Win32,60.13952369,,,,,,,,,,,0.6132,1,,,,,,,,,,,,,,z,1,0.6132,,,,,,,,0.33984375,0.020833333,0,0,0,,0,99,99,128,1,GRIFT,LB,old,z,./images/GRIFTLB.png,,,,,,,,,,,,,,,,,,,,,,,,,,,,,,,,,,,
,,,,,,,,,,,,,,,,,5d268981c22768000166c7c7,20,2022-02-12_17h47.47.322,lexical_decision_task_DD_L4,2021.2.3,Win32,60.13952369,,,,,,,,,,,0.7464,1,,,,,,,,,,,,,,z,1,0.7464,,,,,,,,0.33984375,0.020833333,0,0,0,,0,100,100,125,1,MOOKY,LB,old,z,./images/MOOKYLB.png,,,,,,,,,,,,,,,,,,,,,,,,,,,,,,,,,,,
,,,,,,,,,,,,,,,,,5d268981c22768000166c7c7,20,2022-02-12_17h47.47.322,lexical_decision_task_DD_L4,2021.2.3,Win32,60.13952369,,,,,,,,,,,0.5631,1,,,,,,,,,,,,,,m,1,0.5631,,,,,,,,0.33984375,0.020833333,0,0,0,,0,101,101,41,1,STREAM,LB,old,m,./images/STREAMLB.png,,,,,,,,,,,,,,,,,,,,,,,,,,,,,,,,,,,
,,,,,,,,,,,,,,,,,5d268981c22768000166c7c7,20,2022-02-12_17h47.47.322,lexical_decision_task_DD_L4,2021.2.3,Win32,60.13952369,,,,,,,,,,,0.7343,1,,,,,,,,,,,,,,z,1,0.7343,,,,,,,,0.33984375,0.020833333,0,0,0,,0,102,102,105,1,MOKER,C,old,z,./images/MOKER.png,,,,,,,,,,,,,,,,,,,,,,,,,,,,,,,,,,,
,,,,,,,,,,,,,,,,,5d268981c22768000166c7c7,20,2022-02-12_17h47.47.322,lexical_decision_task_DD_L4,2021.2.3,Win32,60.13952369,,,,,,,,,,,0.6026,1,,,,,,,,,,,,,,m,1,0.6026,,,,,,,,0.33984375,0.020833333,0,0,0,,0,103,103,36,1,BOILER,C,old,m,./images/BOILER.png,,,,,,,,,,,,,,,,,,,,,,,,,,,,,,,,,,,
,,,,,,,,,,,,,,,,,5d268981c22768000166c7c7,20,2022-02-12_17h47.47.322,lexical_decision_task_DD_L4,2021.2.3,Win32,60.13952369,,,,,,,,,,,0.5124,1,,,,,,,,,,,,,,m,1,0.5124,,,,,,,,0.33984375,0.020833333,0,0,0,,0,104,104,39,1,CANDY,C,old,m,./images/CANDY.png,,,,,,,,,,,,,,,,,,,,,,,,,,,,,,,,,,,
,,,,,,,,,,,,,,,,,5d268981c22768000166c7c7,20,2022-02-12_17h47.47.322,lexical_decision_task_DD_L4,2021.2.3,Win32,60.13952369,,,,,,,,,,,0.5176,1,,,,,,,,,,,,,,m,1,0.5176,,,,,,,,0.33984375,0.020833333,0,0,0,,0,105,105,32,1,HOCKEY,LB,old,m,./images/HOCKEYLB.png,,,,,,,,,,,,,,,,,,,,,,,,,,,,,,,,,,,
,,,,,,,,,,,,,,,,,5d268981c22768000166c7c7,20,2022-02-12_17h47.47.322,lexical_decision_task_DD_L4,2021.2.3,Win32,60.13952369,,,,,,,,,,,0.6487,1,,,,,,,,,,,,,,z,1,0.6487,,,,,,,,0.33984375,0.020833333,0,0,0,,0,106,106,100,1,DRIBS,HB,old,z,./images/DRIBSHB.png,,,,,,,,,,,,,,,,,,,,,,,,,,,,,,,,,,,
,,,,,,,,,,,,,,,,,5d268981c22768000166c7c7,20,2022-02-12_17h47.47.322,lexical_decision_task_DD_L4,2021.2.3,Win32,60.13952369,,,,,,,,,,,0.6237,1,,,,,,,,,,,,,,z,1,0.6237,,,,,,,,0.33984375,0.020833333,0,0,0,,0,107,107,141,1,PLEET,C,old,z,./images/PLEET.png,,,,,,,,,,,,,,,,,,,,,,,,,,,,,,,,,,,
,,,,,,,,,,,,,,,,,5d268981c22768000166c7c7,20,2022-02-12_17h47.47.322,lexical_decision_task_DD_L4,2021.2.3,Win32,60.13952369,,,,,,,,,,,0.7156,1,,,,,,,,,,,,,,m,1,0.7156,,,,,,,,0.33984375,0.020833333,0,0,0,,0,108,108,21,1,DANCER,C,old,m,./images/DANCER.png,,,,,,,,,,,,,,,,,,,,,,,,,,,,,,,,,,,
,,,,,,,,,,,,,,,,,5d268981c22768000166c7c7,20,2022-02-12_17h47.47.322,lexical_decision_task_DD_L4,2021.2.3,Win32,60.13952369,,,,,,,,,,,0.7143,1,,,,,,,,,,,,,,z,1,0.7143,,,,,,,,0.33984375,0.020833333,0,0,0,,0,109,109,143,1,MONGS,LB,old,z,./images/MONGSLB.png,,,,,,,,,,,,,,,,,,,,,,,,,,,,,,,,,,,
,,,,,,,,,,,,,,,,,5d268981c22768000166c7c7,20,2022-02-12_17h47.47.322,lexical_decision_task_DD_L4,2021.2.3,Win32,60.13952369,,,,,,,,,,,0.4822,0,,,,,,,,,,,,,,z,0,0.4822,,,,,,,,0.33984375,0.020833333,0,0,0,,0,110,110,18,1,PARCEL,C,old,m,./images/PARCEL.png,,,,,,,,,,,,,,,,,,,,,,,,,,,,,,,,,,,
,,,,,,,,,,,,,,,,,5d268981c22768000166c7c7,20,2022-02-12_17h47.47.322,lexical_decision_task_DD_L4,2021.2.3,Win32,60.13952369,,,,,,,,,,,0.696,1,,,,,,,,,,,,,,m,1,0.696,,,,,,,,0.33984375,0.020833333,0,0,0,,0,111,111,11,1,MEDAL,LB,old,m,./images/MEDALLB.png,,,,,,,,,,,,,,,,,,,,,,,,,,,,,,,,,,,
,,,,,,,,,,,,,,,,,5d268981c22768000166c7c7,20,2022-02-12_17h47.47.322,lexical_decision_task_DD_L4,2021.2.3,Win32,60.13952369,,,,,,,,,,,0.6979,1,,,,,,,,,,,,,,z,1,0.6979,,,,,,,,0.33984375,0.020833333,0,0,0,,0,112,112,124,1,TUNCH,HB,old,z,./images/TUNCHHB.png,,,,,,,,,,,,,,,,,,,,,,,,,,,,,,,,,,,
,,,,,,,,,,,,,,,,,5d268981c22768000166c7c7,20,2022-02-12_17h47.47.322,lexical_decision_task_DD_L4,2021.2.3,Win32,60.13952369,,,,,,,,,,,0.9155,0,,,,,,,,,,,,,,z,0,0.9155,,,,,,,,0.33984375,0.020833333,0,0,0,,0,113,113,58,1,CANOE,HB,old,m,./images/CANOEHB.png,,,,,,,,,,,,,,,,,,,,,,,,,,,,,,,,,,,
,,,,,,,,,,,,,,,,,5d268981c22768000166c7c7,20,2022-02-12_17h47.47.322,lexical_decision_task_DD_L4,2021.2.3,Win32,60.13952369,,,,,,,,,,,0.767,1,,,,,,,,,,,,,,z,1,0.767,,,,,,,,0.33984375,0.020833333,0,0,0,,0,114,114,134,1,TROSS,LB,old,z,./images/TROSSLB.png,,,,,,,,,,,,,,,,,,,,,,,,,,,,,,,,,,,
,,,,,,,,,,,,,,,,,5d268981c22768000166c7c7,20,2022-02-12_17h47.47.322,lexical_decision_task_DD_L4,2021.2.3,Win32,60.13952369,,,,,,,,,,,0.6622,1,,,,,,,,,,,,,,m,1,0.6622,,,,,,,,0.33984375,0.020833333,0,0,0,,0,115,115,3,1,CRATER,C,old,m,./images/CRATER.png,,,,,,,,,,,,,,,,,,,,,,,,,,,,,,,,,,,
,,,,,,,,,,,,,,,,,5d268981c22768000166c7c7,20,2022-02-12_17h47.47.322,lexical_decision_task_DD_L4,2021.2.3,Win32,60.13952369,,,,,,,,,,,0.6578,1,,,,,,,,,,,,,,z,1,0.6578,,,,,,,,0.33984375,0.020833333,0,0,0,,0,116,116,147,1,ZOLES,C,old,z,./images/ZOLES.png,,,,,,,,,,,,,,,,,,,,,,,,,,,,,,,,,,,
,,,,,,,,,,,,,,,,,5d268981c22768000166c7c7,20,2022-02-12_17h47.47.322,lexical_decision_task_DD_L4,2021.2.3,Win32,60.13952369,,,,,,,,,,,0.6905,1,,,,,,,,,,,,,,z,1,0.6905,,,,,,,,0.33984375,0.020833333,0,0,0,,0,117,117,151,1,TINKY,HB,old,z,./images/TINKYHB.png,,,,,,,,,,,,,,,,,,,,,,,,,,,,,,,,,,,
,,,,,,,,,,,,,,,,,5d268981c22768000166c7c7,20,2022-02-12_17h47.47.322,lexical_decision_task_DD_L4,2021.2.3,Win32,60.13952369,,,,,,,,,,,0.4948,1,,,,,,,,,,,,,,z,1,0.4948,,,,,,,,0.33984375,0.020833333,0,0,0,,0,118,118,156,1,HIXES,C,old,z,./images/HIXES.png,,,,,,,,,,,,,,,,,,,,,,,,,,,,,,,,,,,
,,,,,,,,,,,,,,,,,5d268981c22768000166c7c7,20,2022-02-12_17h47.47.322,lexical_decision_task_DD_L4,2021.2.3,Win32,60.13952369,,,,,,,,,,,0.6207,1,,,,,,,,,,,,,,m,1,0.6207,,,,,,,,0.33984375,0.020833333,0,0,0,,0,119,119,22,1,CLOWN,HB,old,m,./images/CLOWNHB.png,,,,,,,,,,,,,,,,,,,,,,,,,,,,,,,,,,,
,,,,,,,,,,,,,,,,,5d268981c22768000166c7c7,20,2022-02-12_17h47.47.322,lexical_decision_task_DD_L4,2021.2.3,Win32,60.13952369,,,,,,,,,,,0.6139,1,,,,,,,,,,,,,,m,1,0.6139,,,,,,,,0.33984375,0.020833333,0,0,0,,0,120,120,66,1,STATUE,C,old,m,./images/STATUE.png,,,,,,,,,,,,,,,,,,,,,,,,,,,,,,,,,,,
,,,,,,,,,,,,,,,,,5d268981c22768000166c7c7,20,2022-02-12_17h47.47.322,lexical_decision_task_DD_L4,2021.2.3,Win32,60.13952369,,,,,,,,,,,0.6126,1,,,,,,,,,,,,,,z,1,0.6126,,,,,,,,0.33984375,0.020833333,0,0,0,,0,121,121,95,1,HANTY,LB,old,z,./images/HANTYLB.png,,,,,,,,,,,,,,,,,,,,,,,,,,,,,,,,,,,
,,,,,,,,,,,,,,,,,5d268981c22768000166c7c7,20,2022-02-12_17h47.47.322,lexical_decision_task_DD_L4,2021.2.3,Win32,60.13952369,,,,,,,,,,,0.8973,1,,,,,,,,,,,,,,m,1,0.8973,,,,,,,,0.33984375,0.020833333,0,0,0,,0,122,122,37,1,TIGER,HB,old,m,./images/TIGERHB.png,,,,,,,,,,,,,,,,,,,,,,,,,,,,,,,,,,,
,,,,,,,,,,,,,,,,,5d268981c22768000166c7c7,20,2022-02-12_17h47.47.322,lexical_decision_task_DD_L4,2021.2.3,Win32,60.13952369,,,,,,,,,,,0.6203,1,,,,,,,,,,,,,,m,1,0.6203,,,,,,,,0.33984375,0.020833333,0,0,0,,0,123,123,50,1,PILOT,LB,old,m,./images/PILOTLB.png,,,,,,,,,,,,,,,,,,,,,,,,,,,,,,,,,,,
,,,,,,,,,,,,,,,,,5d268981c22768000166c7c7,20,2022-02-12_17h47.47.322,lexical_decision_task_DD_L4,2021.2.3,Win32,60.13952369,,,,,,,,,,,0.6948,1,,,,,,,,,,,,,,z,1,0.6948,,,,,,,,0.33984375,0.020833333,0,0,0,,0,124,124,155,1,CANGY,LB,old,z,./images/CANGYLB.png,,,,,,,,,,,,,,,,,,,,,,,,,,,,,,,,,,,
,,,,,,,,,,,,,,,,,5d268981c22768000166c7c7,20,2022-02-12_17h47.47.322,lexical_decision_task_DD_L4,2021.2.3,Win32,60.13952369,,,,,,,,,,,0.8033,1,,,,,,,,,,,,,,z,1,0.8033,,,,,,,,0.33984375,0.020833333,0,0,0,space,0,125,125,115,1,MAWNS,HB,old,z,./images/MAWNSHB.png,1.0535,,,,,,,,,,,,,,,,,,,,,,,,,,,,,,,,,,
,,,,,,,,,,,,,,,,,5d268981c22768000166c7c7,20,2022-02-12_17h47.47.322,lexical_decision_task_DD_L4,2021.2.3,Win32,60.13952369,,,,,,,,,,,0.7339,1,,,,,,,,,,,,,,z,1,0.7339,,,,,,,,0.33984375,0.020833333,0,0,0,,0,126,126,106,1,CLUMS,HB,old,z,./images/CLUMSHB.png,,,,,,,,,,,,,,,,,,,,,,,,,,,,,,,,,,,
,,,,,,,,,,,,,,,,,5d268981c22768000166c7c7,20,2022-02-12_17h47.47.322,lexical_decision_task_DD_L4,2021.2.3,Win32,60.13952369,,,,,,,,,,,0.5162,1,,,,,,,,,,,,,,z,1,0.5162,,,,,,,,0.33984375,0.020833333,0,0,0,,0,127,127,144,1,NAIRY,C,old,z,./images/NAIRY.png,,,,,,,,,,,,,,,,,,,,,,,,,,,,,,,,,,,
,,,,,,,,,,,,,,,,,5d268981c22768000166c7c7,20,2022-02-12_17h47.47.322,lexical_decision_task_DD_L4,2021.2.3,Win32,60.13952369,,,,,,,,,,,0.9199,1,,,,,,,,,,,,,,z,1,0.9199,,,,,,,,0.33984375,0.020833333,0,0,0,,0,128,128,91,1,SHENS,HB,old,z,./images/SHENSHB.png,,,,,,,,,,,,,,,,,,,,,,,,,,,,,,,,,,,
,,,,,,,,,,,,,,,,,5d268981c22768000166c7c7,20,2022-02-12_17h47.47.322,lexical_decision_task_DD_L4,2021.2.3,Win32,60.13952369,,,,,,,,,,,0.6808,1,,,,,,,,,,,,,,m,1,0.6808,,,,,,,,0.33984375,0.020833333,0,0,0,,0,129,129,7,1,WAGON,HB,old,m,./images/WAGONHB.png,,,,,,,,,,,,,,,,,,,,,,,,,,,,,,,,,,,
,,,,,,,,,,,,,,,,,5d268981c22768000166c7c7,20,2022-02-12_17h47.47.322,lexical_decision_task_DD_L4,2021.2.3,Win32,60.13952369,,,,,,,,,,,0.5847,1,,,,,,,,,,,,,,z,1,0.5847,,,,,,,,0.33984375,0.020833333,0,0,0,,0,130,130,159,1,CUDDY,C,old,z,./images/CUDDY.png,,,,,,,,,,,,,,,,,,,,,,,,,,,,,,,,,,,
,,,,,,,,,,,,,,,,,5d268981c22768000166c7c7,20,2022-02-12_17h47.47.322,lexical_decision_task_DD_L4,2021.2.3,Win32,60.13952369,,,,,,,,,,,0.8176,1,,,,,,,,,,,,,,m,1,0.8176,,,,,,,,0.33984375,0.020833333,0,0,0,,0,131,131,62,1,MAMMAL,LB,old,m,./images/MAMMALLB.png,,,,,,,,,,,,,,,,,,,,,,,,,,,,,,,,,,,
,,,,,,,,,,,,,,,,,5d268981c22768000166c7c7,20,2022-02-12_17h47.47.322,lexical_decision_task_DD_L4,2021.2.3,Win32,60.13952369,,,,,,,,,,,0.68,1,,,,,,,,,,,,,,z,1,0.68,,,,,,,,0.33984375,0.020833333,0,0,0,,0,132,132,167,1,ZONET,LB,old,z,./images/ZONETLB.png,,,,,,,,,,,,,,,,,,,,,,,,,,,,,,,,,,,
,,,,,,,,,,,,,,,,,5d268981c22768000166c7c7,20,2022-02-12_17h47.47.322,lexical_decision_task_DD_L4,2021.2.3,Win32,60.13952369,,,,,,,,,,,0.6577,0,,,,,,,,,,,,,,z,0,0.6577,,,,,,,,0.33984375,0.020833333,0,0,0,,0,133,133,16,1,GRAPE,HB,old,m,./images/GRAPEHB.png,,,,,,,,,,,,,,,,,,,,,,,,,,,,,,,,,,,
,,,,,,,,,,,,,,,,,5d268981c22768000166c7c7,20,2022-02-12_17h47.47.322,lexical_decision_task_DD_L4,2021.2.3,Win32,60.13952369,,,,,,,,,,,0.6636,1,,,,,,,,,,,,,,m,1,0.6636,,,,,,,,0.33984375,0.020833333,0,0,0,,0,134,134,9,1,DIVER,C,old,m,./images/DIVER.png,,,,,,,,,,,,,,,,,,,,,,,,,,,,,,,,,,,
,,,,,,,,,,,,,,,,,5d268981c22768000166c7c7,20,2022-02-12_17h47.47.322,lexical_decision_task_DD_L4,2021.2.3,Win32,60.13952369,,,,,,,,,,,0.5856,1,,,,,,,,,,,,,,z,1,0.5856,,,,,,,,0.33984375,0.020833333,0,0,0,,0,135,135,104,1,GITTY,LB,old,z,./images/GITTYLB.png,,,,,,,,,,,,,,,,,,,,,,,,,,,,,,,,,,,
,,,,,,,,,,,,,,,,,5d268981c22768000166c7c7,20,2022-02-12_17h47.47.322,lexical_decision_task_DD_L4,2021.2.3,Win32,60.13952369,,,,,,,,,,,0.6408,1,,,,,,,,,,,,,,m,1,0.6408,,,,,,,,0.33984375,0.020833333,0,0,0,,0,136,136,13,1,BUNNY,HB,old,m,./images/BUNNYHB.png,,,,,,,,,,,,,,,,,,,,,,,,,,,,,,,,,,,
,,,,,,,,,,,,,,,,,5d268981c22768000166c7c7,20,2022-02-12_17h47.47.322,lexical_decision_task_DD_L4,2021.2.3,Win32,60.13952369,,,,,,,,,,,0.614,1,,,,,,,,,,,,,,m,1,0.614,,,,,,,,0.33984375,0.020833333,0,0,0,,0,137,137,0,1,WALNUT,C,old,m,./images/WALNUT.png,,,,,,,,,,,,,,,,,,,,,,,,,,,,,,,,,,,
,,,,,,,,,,,,,,,,,5d268981c22768000166c7c7,20,2022-02-12_17h47.47.322,lexical_decision_task_DD_L4,2021.2.3,Win32,60.13952369,,,,,,,,,,,0.614,1,,,,,,,,,,,,,,z,1,0.614,,,,,,,,0.33984375,0.020833333,0,0,0,,0,138,138,163,1,GAMBA,HB,old,z,./images/GAMBAHB.png,,,,,,,,,,,,,,,,,,,,,,,,,,,,,,,,,,,
,,,,,,,,,,,,,,,,,5d268981c22768000166c7c7,20,2022-02-12_17h47.47.322,lexical_decision_task_DD_L4,2021.2.3,Win32,60.13952369,,,,,,,,,,,0.668,1,,,,,,,,,,,,,,z,1,0.668,,,,,,,,0.33984375,0.020833333,0,0,0,,0,139,139,123,1,SEDGE,C,old,z,./images/SEDGE.png,,,,,,,,,,,,,,,,,,,,,,,,,,,,,,,,,,,
,,,,,,,,,,,,,,,,,5d268981c22768000166c7c7,20,2022-02-12_17h47.47.322,lexical_decision_task_DD_L4,2021.2.3,Win32,60.13952369,,,,,,,,,,,0.5303,1,,,,,,,,,,,,,,z,1,0.5303,,,,,,,,0.33984375,0.020833333,0,0,0,,0,140,140,122,1,BLOOT,LB,old,z,./images/BLOOTLB.png,,,,,,,,,,,,,,,,,,,,,,,,,,,,,,,,,,,
,,,,,,,,,,,,,,,,,5d268981c22768000166c7c7,20,2022-02-12_17h47.47.322,lexical_decision_task_DD_L4,2021.2.3,Win32,60.13952369,,,,,,,,,,,0.7476,1,,,,,,,,,,,,,,z,1,0.7476,,,,,,,,0.33984375,0.020833333,0,0,0,,0,141,141,164,1,SGREW,LB,old,z,./images/SGREWLB.png,,,,,,,,,,,,,,,,,,,,,,,,,,,,,,,,,,,
,,,,,,,,,,,,,,,,,5d268981c22768000166c7c7,20,2022-02-12_17h47.47.322,lexical_decision_task_DD_L4,2021.2.3,Win32,60.13952369,,,,,,,,,,,0.6945,1,,,,,,,,,,,,,,m,1,0.6945,,,,,,,,0.33984375,0.020833333,0,0,0,,0,142,142,83,1,WHISKY,LB,old,m,./images/WHISKYLB.png,,,,,,,,,,,,,,,,,,,,,,,,,,,,,,,,,,,
,,,,,,,,,,,,,,,,,5d268981c22768000166c7c7,20,2022-02-12_17h47.47.322,lexical_decision_task_DD_L4,2021.2.3,Win32,60.13952369,,,,,,,,,,,0.8352,1,,,,,,,,,,,,,,z,1,0.8352,,,,,,,,0.33984375,0.020833333,0,0,0,,0,143,143,145,1,LAMEL,HB,old,z,./images/LAMELHB.png,,,,,,,,,,,,,,,,,,,,,,,,,,,,,,,,,,,
,,,,,,,,,,,,,,,,,5d268981c22768000166c7c7,20,2022-02-12_17h47.47.322,lexical_decision_task_DD_L4,2021.2.3,Win32,60.13952369,,,,,,,,,,,0.797,1,,,,,,,,,,,,,,m,1,0.797,,,,,,,,0.33984375,0.020833333,0,0,0,,0,144,144,46,1,MUMMY,HB,old,m,./images/MUMMYHB.png,,,,,,,,,,,,,,,,,,,,,,,,,,,,,,,,,,,
,,,,,,,,,,,,,,,,,5d268981c22768000166c7c7,20,2022-02-12_17h47.47.322,lexical_decision_task_DD_L4,2021.2.3,Win32,60.13952369,,,,,,,,,,,0.6637,1,,,,,,,,,,,,,,z,1,0.6637,,,,,,,,0.33984375,0.020833333,0,0,0,,0,145,145,97,1,CHIDS,HB,old,z,./images/CHIDSHB.png,,,,,,,,,,,,,,,,,,,,,,,,,,,,,,,,,,,
,,,,,,,,,,,,,,,,,5d268981c22768000166c7c7,20,2022-02-12_17h47.47.322,lexical_decision_task_DD_L4,2021.2.3,Win32,60.13952369,,,,,,,,,,,0.6327,1,,,,,,,,,,,,,,z,1,0.6327,,,,,,,,0.33984375,0.020833333,0,0,0,,0,146,146,149,1,VEASE,LB,old,z,./images/VEASELB.png,,,,,,,,,,,,,,,,,,,,,,,,,,,,,,,,,,,
,,,,,,,,,,,,,,,,,5d268981c22768000166c7c7,20,2022-02-12_17h47.47.322,lexical_decision_task_DD_L4,2021.2.3,Win32,60.13952369,,,,,,,,,,,0.7057,1,,,,,,,,,,,,,,m,1,0.7057,,,,,,,,0.33984375,0.020833333,0,0,0,,0,147,147,19,1,DONKEY,HB,old,m,./images/DONKEYHB.png,,,,,,,,,,,,,,,,,,,,,,,,,,,,,,,,,,,
,,,,,,,,,,,,,,,,,5d268981c22768000166c7c7,20,2022-02-12_17h47.47.322,lexical_decision_task_DD_L4,2021.2.3,Win32,60.13952369,,,,,,,,,,,0.5432,1,,,,,,,,,,,,,,z,1,0.5432,,,,,,,,0.33984375,0.020833333,0,0,0,,0,148,148,113,1,LINEW,LB,old,z,./images/LINEWLB.png,,,,,,,,,,,,,,,,,,,,,,,,,,,,,,,,,,,
,,,,,,,,,,,,,,,,,5d268981c22768000166c7c7,20,2022-02-12_17h47.47.322,lexical_decision_task_DD_L4,2021.2.3,Win32,60.13952369,,,,,,,,,,,0.6364,1,,,,,,,,,,,,,,z,1,0.6364,,,,,,,,0.33984375,0.020833333,0,0,0,,0,149,149,85,1,CHULK,HB,old,z,./images/CHULKHB.png,,,,,,,,,,,,,,,,,,,,,,,,,,,,,,,,,,,
,,,,,,,,,,,,,,,,,5d268981c22768000166c7c7,20,2022-02-12_17h47.47.322,lexical_decision_task_DD_L4,2021.2.3,Win32,60.13952369,,,,,,,,,,,0.6235,1,,,,,,,,,,,,,,z,1,0.6235,,,,,,,,0.33984375,0.020833333,0,0,0,,0,150,150,101,1,GLEET,LB,old,z,./images/GLEETLB.png,,,,,,,,,,,,,,,,,,,,,,,,,,,,,,,,,,,
,,,,,,,,,,,,,,,,,5d268981c22768000166c7c7,20,2022-02-12_17h47.47.322,lexical_decision_task_DD_L4,2021.2.3,Win32,60.13952369,,,,,,,,,,,0.721,1,,,,,,,,,,,,,,m,1,0.721,,,,,,,,0.33984375,0.020833333,0,0,0,,0,151,151,10,1,GARDEN,HB,old,m,./images/GARDENHB.png,,,,,,,,,,,,,,,,,,,,,,,,,,,,,,,,,,,
,,,,,,,,,,,,,,,,,5d268981c22768000166c7c7,20,2022-02-12_17h47.47.322,lexical_decision_task_DD_L4,2021.2.3,Win32,60.13952369,,,,,,,,,,,0.7955,1,,,,,,,,,,,,,,m,1,0.7955,,,,,,,,0.33984375,0.020833333,0,0,0,,0,152,152,82,1,PEBBLE,HB,old,m,./images/PEBBLEHB.png,,,,,,,,,,,,,,,,,,,,,,,,,,,,,,,,,,,
,,,,,,,,,,,,,,,,,5d268981c22768000166c7c7,20,2022-02-12_17h47.47.322,lexical_decision_task_DD_L4,2021.2.3,Win32,60.13952369,,,,,,,,,,,0.8049,1,,,,,,,,,,,,,,m,1,0.8049,,,,,,,,0.33984375,0.020833333,0,0,0,,0,153,153,20,1,GRANNY,LB,old,m,./images/GRANNYLB.png,,,,,,,,,,,,,,,,,,,,,,,,,,,,,,,,,,,
,,,,,,,,,,,,,,,,,5d268981c22768000166c7c7,20,2022-02-12_17h47.47.322,lexical_decision_task_DD_L4,2021.2.3,Win32,60.13952369,,,,,,,,,,,0.8347,1,,,,,,,,,,,,,,z,1,0.8347,,,,,,,,0.33984375,0.020833333,0,0,0,,0,154,154,127,1,NINDY,HB,old,z,./images/NINDYHB.png,,,,,,,,,,,,,,,,,,,,,,,,,,,,,,,,,,,
,,,,,,,,,,,,,,,,,5d268981c22768000166c7c7,20,2022-02-12_17h47.47.322,lexical_decision_task_DD_L4,2021.2.3,Win32,60.13952369,,,,,,,,,,,0.5179,1,,,,,,,,,,,,,,z,1,0.5179,,,,,,,,0.33984375,0.020833333,0,0,0,,0,155,155,132,1,SCIFF,C,old,z,./images/SCIFF.png,,,,,,,,,,,,,,,,,,,,,,,,,,,,,,,,,,,
,,,,,,,,,,,,,,,,,5d268981c22768000166c7c7,20,2022-02-12_17h47.47.322,lexical_decision_task_DD_L4,2021.2.3,Win32,60.13952369,,,,,,,,,,,0.6756,1,,,,,,,,,,,,,,m,1,0.6756,,,,,,,,0.33984375,0.020833333,0,0,0,,0,156,156,6,1,STAIN,C,old,m,./images/STAIN.png,,,,,,,,,,,,,,,,,,,,,,,,,,,,,,,,,,,
,,,,,,,,,,,,,,,,,5d268981c22768000166c7c7,20,2022-02-12_17h47.47.322,lexical_decision_task_DD_L4,2021.2.3,Win32,60.13952369,,,,,,,,,,,0.6664,1,,,,,,,,,,,,,,m,1,0.6664,,,,,,,,0.33984375,0.020833333,0,0,0,,0,157,157,42,1,CHAIN,C,old,m,./images/CHAIN.png,,,,,,,,,,,,,,,,,,,,,,,,,,,,,,,,,,,
,,,,,,,,,,,,,,,,,5d268981c22768000166c7c7,20,2022-02-12_17h47.47.322,lexical_decision_task_DD_L4,2021.2.3,Win32,60.13952369,,,,,,,,,,,0.7732,1,,,,,,,,,,,,,,z,1,0.7732,,,,,,,,0.33984375,0.020833333,0,0,0,,0,158,158,142,1,PLASK,HB,old,z,./images/PLASKHB.png,,,,,,,,,,,,,,,,,,,,,,,,,,,,,,,,,,,
,,,,,,,,,,,,,,,,,5d268981c22768000166c7c7,20,2022-02-12_17h47.47.322,lexical_decision_task_DD_L4,2021.2.3,Win32,60.13952369,,,,,,,,,,,0.5996,1,,,,,,,,,,,,,,z,1,0.5996,,,,,,,,0.33984375,0.020833333,0,0,0,,0,159,159,131,1,NACES,LB,old,z,./images/NACESLB.png,,,,,,,,,,,,,,,,,,,,,,,,,,,,,,,,,,,
,,,,,,,,,,,,,,,,,5d268981c22768000166c7c7,20,2022-02-12_17h47.47.322,lexical_decision_task_DD_L4,2021.2.3,Win32,60.13952369,,,,,,,,,,,0.6123,1,,,,,,,,,,,,,,m,1,0.6123,,,,,,,,0.33984375,0.020833333,0,0,0,,0,160,160,70,1,BANANA,HB,old,m,./images/BANANAHB.png,,,,,,,,,,,,,,,,,,,,,,,,,,,,,,,,,,,
,,,,,,,,,,,,,,,,,5d268981c22768000166c7c7,20,2022-02-12_17h47.47.322,lexical_decision_task_DD_L4,2021.2.3,Win32,60.13952369,,,,,,,,,,,0.7335,1,,,,,,,,,,,,,,z,1,0.7335,,,,,,,,0.33984375,0.020833333,0,0,0,,0,161,161,166,1,SHORY,HB,old,z,./images/SHORYHB.png,,,,,,,,,,,,,,,,,,,,,,,,,,,,,,,,,,,
,,,,,,,,,,,,,,,,,5d268981c22768000166c7c7,20,2022-02-12_17h47.47.322,lexical_decision_task_DD_L4,2021.2.3,Win32,60.13952369,,,,,,,,,,,0.5486,1,,,,,,,,,,,,,,m,1,0.5486,,,,,,,,0.33984375,0.020833333,0,0,0,,0,162,162,15,1,COLLAR,C,old,m,./images/COLLAR.png,,,,,,,,,,,,,,,,,,,,,,,,,,,,,,,,,,,
,,,,,,,,,,,,,,,,,5d268981c22768000166c7c7,20,2022-02-12_17h47.47.322,lexical_decision_task_DD_L4,2021.2.3,Win32,60.13952369,,,,,,,,,,,0.6283,0,,,,,,,,,,,,,,z,0,0.6283,,,,,,,,0.33984375,0.020833333,0,0,0,,0,163,163,64,1,BRIDE,HB,old,m,./images/BRIDEHB.png,,,,,,,,,,,,,,,,,,,,,,,,,,,,,,,,,,,
,,,,,,,,,,,,,,,,,5d268981c22768000166c7c7,20,2022-02-12_17h47.47.322,lexical_decision_task_DD_L4,2021.2.3,Win32,60.13952369,,,,,,,,,,,0.6587,1,,,,,,,,,,,,,,z,1,0.6587,,,,,,,,0.33984375,0.020833333,0,0,0,,0,164,164,129,1,PRANS,C,old,z,./images/PRANS.png,,,,,,,,,,,,,,,,,,,,,,,,,,,,,,,,,,,
,,,,,,,,,,,,,,,,,5d268981c22768000166c7c7,20,2022-02-12_17h47.47.322,lexical_decision_task_DD_L4,2021.2.3,Win32,60.13952369,,,,,,,,,,,0.7701,1,,,,,,,,,,,,,,m,1,0.7701,,,,,,,,0.33984375,0.020833333,0,0,0,,0,165,165,72,1,FLASK,C,old,m,./images/FLASK.png,,,,,,,,,,,,,,,,,,,,,,,,,,,,,,,,,,,
,,,,,,,,,,,,,,,,,5d268981c22768000166c7c7,20,2022-02-12_17h47.47.322,lexical_decision_task_DD_L4,2021.2.3,Win32,60.13952369,,,,,,,,,,,0.573,1,,,,,,,,,,,,,,z,1,0.573,,,,,,,,0.33984375,0.020833333,0,0,0,,0,166,166,119,1,PAFER,LB,old,z,./images/PAFERLB.png,,,,,,,,,,,,,,,,,,,,,,,,,,,,,,,,,,,
,,,,,,,,,,,,,,,,,5d268981c22768000166c7c7,20,2022-02-12_17h47.47.322,lexical_decision_task_DD_L4,2021.2.3,Win32,60.13952369,,,,,,,,,,,1.5027,1,,,,,,,,,,,,,,m,1,1.5027,,,,,,,,0.33984375,0.020833333,0,0,0,,0,167,167,28,1,CASINO,HB,old,m,./images/CASINOHB.png,,,,,,,,,,,,,,,,,,,,,,,,,,,,,,,,,,,
,,,,,,,,,,,,,,,,,5d268981c22768000166c7c7,20,2022-02-12_17h47.47.322,lexical_decision_task_DD_L4,2021.2.3,Win32,60.13952369,,,,,,,,,,,,,,,,,,,,,,,,,,,,,,,,,,,,,,,,,,,,,,,,How likely will it be that you will recognize the words presented very blurred on a scale of 0 (not likely) to 100 (most likely)?,,,,,-0.0078125,-0.427083333,1,0,0,jol_adv,4,6.6604,0,0,0,2,1,,,,,,,,,,,,,,,,,,,,,
,,,,,,,,,,,,,,,,,5d268981c22768000166c7c7,20,2022-02-12_17h47.47.322,lexical_decision_task_DD_L4,2021.2.3,Win32,60.13952369,,,,,,,,,,,,,,,,,,,,,,,,,,,,,,,,,,,,,,,,,,,,,,,,How likely will it be that you will recognize the words presented slighly blurred on a scale of 0 (not likely) to 100 (most likely)?,,,,,,,,,,,5,4.9035,0,1,1,1,1,,,,,,,,,,,,,,,,,,,,,
,,,,,,,,,,,,,,,,,5d268981c22768000166c7c7,20,2022-02-12_17h47.47.322,lexical_decision_task_DD_L4,2021.2.3,Win32,60.13952369,,,,,,,,,,,,,,,,,,,,,,,,,,,,,,,,,,,,,,,,,,,,,,,,How likely will it be that you will recognize the words presented clearly on a scale of 0 (not likely) to 100 (most likely)?,,,,,,,,,,,6,3.7811,0,2,2,0,1,,,,,,,,,,,,,,,,,,,,,
,,0.08984375,-0.381510417,1,0,0,,,,,,1,test,"In the next phase you will be presented with the words from the the first phase. Your job is to decide whether you remember seeing the word or not. If you remember seeing the word press ""old"" or type ""m"". If you do not remember seeing the word press ""new"" or type ""z"". Please press the space bar or click on continue to begin. ",,,5d268981c22768000166c7c7,20,2022-02-12_17h47.47.322,lexical_decision_task_DD_L4,2021.2.3,Win32,60.13952369,,,,,,,,,,,,,,,,,,,,,,,,,,,,,,,,,,,,,,,,,,,,,,,,,,,,,,,,,,,,,,,,,,instr_done_button,0,0,0,0,1,,,,,,,,,,,,,,,
space,2.911,0.131510417,-0.313802083,0,0,0,,,,,,1,test,"In the next phase you will be presented with the words from the the first phase. Your job is to decide whether you remember seeing the word or not. If you remember seeing the word press ""old"" or type ""m"". If you do not remember seeing the word press ""new"" or type ""z"". Please press the space bar or click on continue to begin. ",,,5d268981c22768000166c7c7,20,2022-02-12_17h47.47.322,lexical_decision_task_DD_L4,2021.2.3,Win32,60.13952369,,,,,,,,,,,,,,,,,,,,,,,,,,,,,,,,,,,,,,,,,,,,,,,,,,,,,,,,,,,,,,,,,,,1,0,1,0,1,,,,,,,,,,,,,,,
,,0.08203125,-0.372395833,1,0,0,,,,,,1,test,"In the next phase you will be presented with the words from the the first phase. Your job is to decide whether you remember seeing the word or not. If you remember seeing the word press ""old"" or type ""m"". If you do not remember seeing the word press ""new"" or type ""z"". Please press the space bar or click on continue to begin. ",,,5d268981c22768000166c7c7,20,2022-02-12_17h47.47.322,lexical_decision_task_DD_L4,2021.2.3,Win32,60.13952369,,,,,,,,,,,,,,,,,,,,,,,,,,,,,,,,,,,,,,,,,,,,,,,,,,,,,,,,,,,,,,,,,,instr_done_button,2,0,2,0,1,,,,,,,,,,,,,,,
,,0.01953125,-0.385416667,1,0,0,,,,,,1,test,"In the next phase you will be presented with the words from the the first phase. Your job is to decide whether you remember seeing the word or not. If you remember seeing the word press ""old"" or type ""m"". If you do not remember seeing the word press ""new"" or type ""z"". Please press the space bar or click on continue to begin. ",,,5d268981c22768000166c7c7,20,2022-02-12_17h47.47.322,lexical_decision_task_DD_L4,2021.2.3,Win32,60.13952369,,,,,,,,,,,,,,,,,,,,,,,,,,,,,,,,,,,,,,,,,,,,,,,,,,,,,,,,,,,,,,,,,,instr_done_button,3,0,3,0,1,,,,,,,,,,,,,,,
,,0.018229167,-0.391927083,1,0,0,,,,,,1,test,"In the next phase you will be presented with the words from the the first phase. Your job is to decide whether you remember seeing the word or not. If you remember seeing the word press ""old"" or type ""m"". If you do not remember seeing the word press ""new"" or type ""z"". Please press the space bar or click on continue to begin. ",,,5d268981c22768000166c7c7,20,2022-02-12_17h47.47.322,lexical_decision_task_DD_L4,2021.2.3,Win32,60.13952369,,,,,,,,,,,,,,,,,,,,,,,,,,,,,,,,,,,,,,,,,,,,,,,,,,,,,,,,,,,,,,,,,,instr_done_button,4,0,4,0,1,,,,,,,,,,,,,,,
,,,,,,,,,,,,,,,,,5d268981c22768000166c7c7,20,2022-02-12_17h47.47.322,lexical_decision_task_DD_L4,2021.2.3,Win32,60.13952369,,,,,,,,,,,2.0004,1,,,,,,,,,,,,,,,,,,,,,,,,0.071614583,-0.28515625,0,0,0,,,,,,,COUCH,LB,z,y,./images/COUCHLB.png,,,,,,,,,,,,,,,,,,,,,z,1,2.0004,,,,,,,,0,0,0,161,1
,,,,,,,,,,,,,,,,,5d268981c22768000166c7c7,20,2022-02-12_17h47.47.322,lexical_decision_task_DD_L4,2021.2.3,Win32,60.13952369,,,,,,,,,,,0.6386,1,,,,,,,,,,,,,,,,,,,,,,,,0.071614583,-0.28515625,0,0,0,,,,,,,TOMATO,C,z,y,./images/TOMATO.png,,,,,,,,,,,,,,,,,,,,,z,1,0.6386,,,,,,,,0,1,1,84,1
,,,,,,,,,,,,,,,,,5d268981c22768000166c7c7,20,2022-02-12_17h47.47.322,lexical_decision_task_DD_L4,2021.2.3,Win32,60.13952369,,,,,,,,,,,0.5995,1,,,,,,,,,,,,,,,,,,,,,,,,0.071614583,-0.28515625,0,0,0,,,,,,,TORCH,LB,z,y,./images/TORCHLB.png,,,,,,,,,,,,,,,,,,,,,z,1,0.5995,,,,,,,,0,2,2,152,1
,,,,,,,,,,,,,,,,,5d268981c22768000166c7c7,20,2022-02-12_17h47.47.322,lexical_decision_task_DD_L4,2021.2.3,Win32,60.13952369,,,,,,,,,,,0.8332,1,,,,,,,,,,,,,,,,,,,,,,,,0.071614583,-0.28515625,0,0,0,,,,,,,CRADLE,LB,z,y,./images/CRADLELB.png,,,,,,,,,,,,,,,,,,,,,z,1,0.8332,,,,,,,,0,3,3,104,1
,,,,,,,,,,,,,,,,,5d268981c22768000166c7c7,20,2022-02-12_17h47.47.322,lexical_decision_task_DD_L4,2021.2.3,Win32,60.13952369,,,,,,,,,,,0.5486,1,,,,,,,,,,,,,,,,,,,,,,,,0.071614583,-0.28515625,0,0,0,,,,,,,BOXER,HB,m,y,./images/BOXERHB.png,,,,,,,,,,,,,,,,,,,,,m,1,0.5486,,,,,,,,0,4,4,4,1
,,,,,,,,,,,,,,,,,5d268981c22768000166c7c7,20,2022-02-12_17h47.47.322,lexical_decision_task_DD_L4,2021.2.3,Win32,60.13952369,,,,,,,,,,,0.6066,1,,,,,,,,,,,,,,,,,,,,,,,,0.071614583,-0.28515625,0,0,0,,,,,,,BROOM,C,m,y,./images/BROOM.png,,,,,,,,,,,,,,,,,,,,,m,1,0.6066,,,,,,,,0,5,5,78,1
,,,,,,,,,,,,,,,,,5d268981c22768000166c7c7,20,2022-02-12_17h47.47.322,lexical_decision_task_DD_L4,2021.2.3,Win32,60.13952369,,,,,,,,,,,0.6337,1,,,,,,,,,,,,,,,,,,,,,,,,0.071614583,-0.28515625,0,0,0,,,,,,,BAMBOO,LB,m,y,./images/BAMBOOLB.png,,,,,,,,,,,,,,,,,,,,,m,1,0.6337,,,,,,,,0,6,6,5,1
,,,,,,,,,,,,,,,,,5d268981c22768000166c7c7,20,2022-02-12_17h47.47.322,lexical_decision_task_DD_L4,2021.2.3,Win32,60.13952369,,,,,,,,,,,0.5188,1,,,,,,,,,,,,,,,,,,,,,,,,0.071614583,-0.28515625,0,0,0,,,,,,,STATUE,C,m,y,./images/STATUE.png,,,,,,,,,,,,,,,,,,,,,m,1,0.5188,,,,,,,,0,7,7,66,1
,,,,,,,,,,,,,,,,,5d268981c22768000166c7c7,20,2022-02-12_17h47.47.322,lexical_decision_task_DD_L4,2021.2.3,Win32,60.13952369,,,,,,,,,,,0.6174,1,,,,,,,,,,,,,,,,,,,,,,,,0.071614583,-0.28515625,0,0,0,,,,,,,CEMENT,LB,z,y,./images/CEMENTLB.png,,,,,,,,,,,,,,,,,,,,,z,1,0.6174,,,,,,,,0,8,8,158,1
,,,,,,,,,,,,,,,,,5d268981c22768000166c7c7,20,2022-02-12_17h47.47.322,lexical_decision_task_DD_L4,2021.2.3,Win32,60.13952369,,,,,,,,,,,0.9222,1,,,,,,,,,,,,,,,,,,,,,,,,0.071614583,-0.28515625,0,0,0,,,,,,,BUTTER,C,m,y,./images/BUTTER.png,,,,,,,,,,,,,,,,,,,,,m,1,0.9222,,,,,,,,0,9,9,27,1
,,,,,,,,,,,,,,,,,5d268981c22768000166c7c7,20,2022-02-12_17h47.47.322,lexical_decision_task_DD_L4,2021.2.3,Win32,60.13952369,,,,,,,,,,,0.695,1,,,,,,,,,,,,,,,,,,,,,,,,0.071614583,-0.28515625,0,0,0,,,,,,,URINE,HB,z,y,./images/URINEHB.png,,,,,,,,,,,,,,,,,,,,,z,1,0.695,,,,,,,,0,10,10,154,1
,,,,,,,,,,,,,,,,,5d268981c22768000166c7c7,20,2022-02-12_17h47.47.322,lexical_decision_task_DD_L4,2021.2.3,Win32,60.13952369,,,,,,,,,,,0.8333,1,,,,,,,,,,,,,,,,,,,,,,,,0.071614583,-0.28515625,0,0,0,,,,,,,FENCE,LB,m,y,./images/FENCELB.png,,,,,,,,,,,,,,,,,,,,,m,1,0.8333,,,,,,,,0,11,11,14,1
,,,,,,,,,,,,,,,,,5d268981c22768000166c7c7,20,2022-02-12_17h47.47.322,lexical_decision_task_DD_L4,2021.2.3,Win32,60.13952369,,,,,,,,,,,1.0175,1,,,,,,,,,,,,,,,,,,,,,,,,0.071614583,-0.28515625,0,0,0,,,,,,,GRANNY,LB,m,y,./images/GRANNYLB.png,,,,,,,,,,,,,,,,,,,,,m,1,1.0175,,,,,,,,0,12,12,20,1
,,,,,,,,,,,,,,,,,5d268981c22768000166c7c7,20,2022-02-12_17h47.47.322,lexical_decision_task_DD_L4,2021.2.3,Win32,60.13952369,,,,,,,,,,,0.6664,0,,,,,,,,,,,,,,,,,,,,,,,,0.071614583,-0.28515625,0,0,0,,,,,,,BRIDE,HB,m,y,./images/BRIDEHB.png,,,,,,,,,,,,,,,,,,,,,z,0,0.6664,,,,,,,,0,13,13,64,1
,,,,,,,,,,,,,,,,,5d268981c22768000166c7c7,20,2022-02-12_17h47.47.322,lexical_decision_task_DD_L4,2021.2.3,Win32,60.13952369,,,,,,,,,,,0.6007,1,,,,,,,,,,,,,,,,,,,,,,,,0.071614583,-0.28515625,0,0,0,,,,,,,PILOT,LB,m,y,./images/PILOTLB.png,,,,,,,,,,,,,,,,,,,,,m,1,0.6007,,,,,,,,0,14,14,50,1
,,,,,,,,,,,,,,,,,5d268981c22768000166c7c7,20,2022-02-12_17h47.47.322,lexical_decision_task_DD_L4,2021.2.3,Win32,60.13952369,,,,,,,,,,,0.6855,1,,,,,,,,,,,,,,,,,,,,,,,,0.071614583,-0.28515625,0,0,0,,,,,,,CANYON,HB,z,y,./images/CANYONHB.png,,,,,,,,,,,,,,,,,,,,,z,1,0.6855,,,,,,,,0,15,15,118,1
,,,,,,,,,,,,,,,,,5d268981c22768000166c7c7,20,2022-02-12_17h47.47.322,lexical_decision_task_DD_L4,2021.2.3,Win32,60.13952369,,,,,,,,,,,0.5732,1,,,,,,,,,,,,,,,,,,,,,,,,0.071614583,-0.28515625,0,0,0,,,,,,,GLOVE,HB,m,y,./images/GLOVEHB.png,,,,,,,,,,,,,,,,,,,,,m,1,0.5732,,,,,,,,0,16,16,73,1
,,,,,,,,,,,,,,,,,5d268981c22768000166c7c7,20,2022-02-12_17h47.47.322,lexical_decision_task_DD_L4,2021.2.3,Win32,60.13952369,,,,,,,,,,,0.9026,1,,,,,,,,,,,,,,,,,,,,,,,,0.071614583,-0.28515625,0,0,0,,,,,,,CHALK,HB,m,y,./images/CHALKHB.png,,,,,,,,,,,,,,,,,,,,,m,1,0.9026,,,,,,,,0,17,17,25,1
,,,,,,,,,,,,,,,,,5d268981c22768000166c7c7,20,2022-02-12_17h47.47.322,lexical_decision_task_DD_L4,2021.2.3,Win32,60.13952369,,,,,,,,,,,0.7154,1,,,,,,,,,,,,,,,,,,,,,,,,0.071614583,-0.28515625,0,0,0,,,,,,,MUSCLE,HB,z,y,./images/MUSCLEHB.png,,,,,,,,,,,,,,,,,,,,,z,1,0.7154,,,,,,,,0,18,18,88,1
,,,,,,,,,,,,,,,,,5d268981c22768000166c7c7,20,2022-02-12_17h47.47.322,lexical_decision_task_DD_L4,2021.2.3,Win32,60.13952369,,,,,,,,,,,0.6037,1,,,,,,,,,,,,,,,,,,,,,,,,0.071614583,-0.28515625,0,0,0,,,,,,,SHELF,C,z,y,./images/SHELF.png,,,,,,,,,,,,,,,,,,,,,z,1,0.6037,,,,,,,,0,19,19,123,1
,,,,,,,,,,,,,,,,,5d268981c22768000166c7c7,20,2022-02-12_17h47.47.322,lexical_decision_task_DD_L4,2021.2.3,Win32,60.13952369,,,,,,,,,,,0.6322,1,,,,,,,,,,,,,,,,,,,,,,,,0.071614583,-0.28515625,0,0,0,,,,,,,BIRTH,HB,z,y,./images/BIRTHHB.png,,,,,,,,,,,,,,,,,,,,,z,1,0.6322,,,,,,,,0,20,20,121,1
,,,,,,,,,,,,,,,,,5d268981c22768000166c7c7,20,2022-02-12_17h47.47.322,lexical_decision_task_DD_L4,2021.2.3,Win32,60.13952369,,,,,,,,,,,0.8317,1,,,,,,,,,,,,,,,,,,,,,,,,0.071614583,-0.28515625,0,0,0,,,,,,,FARMER,LB,z,y,./images/FARMERLB.png,,,,,,,,,,,,,,,,,,,,,z,1,0.8317,,,,,,,,0,21,21,149,1
,,,,,,,,,,,,,,,,,5d268981c22768000166c7c7,20,2022-02-12_17h47.47.322,lexical_decision_task_DD_L4,2021.2.3,Win32,60.13952369,,,,,,,,,,,0.5802,1,,,,,,,,,,,,,,,,,,,,,,,,0.071614583,-0.28515625,0,0,0,,,,,,,DANCER,C,m,y,./images/DANCER.png,,,,,,,,,,,,,,,,,,,,,m,1,0.5802,,,,,,,,0,22,22,21,1
,,,,,,,,,,,,,,,,,5d268981c22768000166c7c7,20,2022-02-12_17h47.47.322,lexical_decision_task_DD_L4,2021.2.3,Win32,60.13952369,,,,,,,,,,,0.5811,1,,,,,,,,,,,,,,,,,,,,,,,,0.071614583,-0.28515625,0,0,0,,,,,,,FLASK,C,m,y,./images/FLASK.png,,,,,,,,,,,,,,,,,,,,,m,1,0.5811,,,,,,,,0,23,23,72,1
,,,,,,,,,,,,,,,,,5d268981c22768000166c7c7,20,2022-02-12_17h47.47.322,lexical_decision_task_DD_L4,2021.2.3,Win32,60.13952369,,,,,,,,,,,0.5853,1,,,,,,,,,,,,,,,,,,,,,,,,0.071614583,-0.28515625,0,0,0,,,,,,,TOWEL,HB,m,y,./images/TOWELHB.png,,,,,,,,,,,,,,,,,,,,,m,1,0.5853,,,,,,,,0,24,24,1,1
,,,,,,,,,,,,,,,,,5d268981c22768000166c7c7,20,2022-02-12_17h47.47.322,lexical_decision_task_DD_L4,2021.2.3,Win32,60.13952369,,,,,,,,,,,0.6151,1,,,,,,,,,,,,,,,,,,,,,,,,0.071614583,-0.28515625,0,0,0,,,,,,,CANDY,C,m,y,./images/CANDY.png,,,,,,,,,,,,,,,,,,,,,m,1,0.6151,,,,,,,,0,25,25,39,1
,,,,,,,,,,,,,,,,,5d268981c22768000166c7c7,20,2022-02-12_17h47.47.322,lexical_decision_task_DD_L4,2021.2.3,Win32,60.13952369,,,,,,,,,,,0.6821,1,,,,,,,,,,,,,,,,,,,,,,,,0.071614583,-0.28515625,0,0,0,,,,,,,BANNER,HB,z,y,./images/BANNERHB.png,,,,,,,,,,,,,,,,,,,,,z,1,0.6821,,,,,,,,0,26,26,136,1
,,,,,,,,,,,,,,,,,5d268981c22768000166c7c7,20,2022-02-12_17h47.47.322,lexical_decision_task_DD_L4,2021.2.3,Win32,60.13952369,,,,,,,,,,,0.8151,1,,,,,,,,,,,,,,,,,,,,,,,,0.071614583,-0.28515625,0,0,0,,,,,,,WALNUT,C,m,y,./images/WALNUT.png,,,,,,,,,,,,,,,,,,,,,m,1,0.8151,,,,,,,,0,27,27,0,1
,,,,,,,,,,,,,,,,,5d268981c22768000166c7c7,20,2022-02-12_17h47.47.322,lexical_decision_task_DD_L4,2021.2.3,Win32,60.13952369,,,,,,,,,,,0.6727,1,,,,,,,,,,,,,,,,,,,,,,,,0.071614583,-0.28515625,0,0,0,,,,,,,SPORT,C,z,y,./images/SPORT.png,,,,,,,,,,,,,,,,,,,,,z,1,0.6727,,,,,,,,0,28,28,132,1
,,,,,,,,,,,,,,,,,5d268981c22768000166c7c7,20,2022-02-12_17h47.47.322,lexical_decision_task_DD_L4,2021.2.3,Win32,60.13952369,,,,,,,,,,,0.5125,1,,,,,,,,,,,,,,,,,,,,,,,,0.071614583,-0.28515625,0,0,0,,,,,,,SWEAT,C,z,y,./images/SWEAT.png,,,,,,,,,,,,,,,,,,,,,z,1,0.5125,,,,,,,,0,29,29,150,1
,,,,,,,,,,,,,,,,,5d268981c22768000166c7c7,20,2022-02-12_17h47.47.322,lexical_decision_task_DD_L4,2021.2.3,Win32,60.13952369,,,,,,,,,,,0.5706,1,,,,,,,,,,,,,,,,,,,,,,,,0.071614583,-0.28515625,0,0,0,,,,,,,PLANET,LB,m,y,./images/PLANETLB.png,,,,,,,,,,,,,,,,,,,,,m,1,0.5706,,,,,,,,0,30,30,80,1
,,,,,,,,,,,,,,,,,5d268981c22768000166c7c7,20,2022-02-12_17h47.47.322,lexical_decision_task_DD_L4,2021.2.3,Win32,60.13952369,,,,,,,,,,,0.7523,1,,,,,,,,,,,,,,,,,,,,,,,,0.071614583,-0.28515625,0,0,0,,,,,,,DRUMS,HB,z,y,./images/DRUMSHB.png,,,,,,,,,,,,,,,,,,,,,z,1,0.7523,,,,,,,,0,31,31,133,1
,,,,,,,,,,,,,,,,,5d268981c22768000166c7c7,20,2022-02-12_17h47.47.322,lexical_decision_task_DD_L4,2021.2.3,Win32,60.13952369,,,,,,,,,,,0.5661,1,,,,,,,,,,,,,,,,,,,,,,,,0.071614583,-0.28515625,0,0,0,,,,,,,BANANA,HB,m,y,./images/BANANAHB.png,,,,,,,,,,,,,,,,,,,,,m,1,0.5661,,,,,,,,0,32,32,70,1
,,,,,,,,,,,,,,,,,5d268981c22768000166c7c7,20,2022-02-12_17h47.47.322,lexical_decision_task_DD_L4,2021.2.3,Win32,60.13952369,,,,,,,,,,,0.5148,1,,,,,,,,,,,,,,,,,,,,,,,,0.071614583,-0.28515625,0,0,0,,,,,,,QUILL,HB,z,y,./images/QUILLHB.png,,,,,,,,,,,,,,,,,,,,,z,1,0.5148,,,,,,,,0,33,33,115,1
,,,,,,,,,,,,,,,,,5d268981c22768000166c7c7,20,2022-02-12_17h47.47.322,lexical_decision_task_DD_L4,2021.2.3,Win32,60.13952369,,,,,,,,,,,0.6043,0,,,,,,,,,,,,,,,,,,,,,,,,0.071614583,-0.28515625,0,0,0,,,,,,,BABOON,HB,z,y,./images/BABOONHB.png,,,,,,,,,,,,,,,,,,,,,m,0,0.6043,,,,,,,,0,34,34,142,1
,,,,,,,,,,,,,,,,,5d268981c22768000166c7c7,20,2022-02-12_17h47.47.322,lexical_decision_task_DD_L4,2021.2.3,Win32,60.13952369,,,,,,,,,,,1.8325,1,,,,,,,,,,,,,,,,,,,,,,,,0.071614583,-0.28515625,0,0,0,,,,,,,BERRY,LB,z,y,./images/BERRYLB.png,,,,,,,,,,,,,,,,,,,,,z,1,1.8325,,,,,,,,0,35,35,131,1
,,,,,,,,,,,,,,,,,5d268981c22768000166c7c7,20,2022-02-12_17h47.47.322,lexical_decision_task_DD_L4,2021.2.3,Win32,60.13952369,,,,,,,,,,,0.566,1,,,,,,,,,,,,,,,,,,,,,,,,0.071614583,-0.28515625,0,0,0,,,,,,,KITTEN,C,z,y,./images/KITTEN.png,,,,,,,,,,,,,,,,,,,,,z,1,0.566,,,,,,,,0,36,36,129,1
,,,,,,,,,,,,,,,,,5d268981c22768000166c7c7,20,2022-02-12_17h47.47.322,lexical_decision_task_DD_L4,2021.2.3,Win32,60.13952369,,,,,,,,,,,0.6676,1,,,,,,,,,,,,,,,,,,,,,,,,0.071614583,-0.28515625,0,0,0,,,,,,,HOCKEY,LB,m,y,./images/HOCKEYLB.png,,,,,,,,,,,,,,,,,,,,,m,1,0.6676,,,,,,,,0,37,37,32,1
,,,,,,,,,,,,,,,,,5d268981c22768000166c7c7,20,2022-02-12_17h47.47.322,lexical_decision_task_DD_L4,2021.2.3,Win32,60.13952369,,,,,,,,,,,0.5166,1,,,,,,,,,,,,,,,,,,,,,,,,0.071614583,-0.28515625,0,0,0,,,,,,,LITTER,C,z,y,./images/LITTER.png,,,,,,,,,,,,,,,,,,,,,z,1,0.5166,,,,,,,,0,38,38,162,1
,,,,,,,,,,,,,,,,,5d268981c22768000166c7c7,20,2022-02-12_17h47.47.322,lexical_decision_task_DD_L4,2021.2.3,Win32,60.13952369,,,,,,,,,,,0.7177,1,,,,,,,,,,,,,,,,,,,,,,,,0.071614583,-0.28515625,0,0,0,,,,,,,KIDNEY,C,z,y,./images/KIDNEY.png,,,,,,,,,,,,,,,,,,,,,z,1,0.7177,,,,,,,,0,39,39,105,1
,,,,,,,,,,,,,,,,,5d268981c22768000166c7c7,20,2022-02-12_17h47.47.322,lexical_decision_task_DD_L4,2021.2.3,Win32,60.13952369,,,,,,,,,,,0.4917,0,,,,,,,,,,,,,,,,,,,,,,,,0.071614583,-0.28515625,0,0,0,,,,,,,ARTIST,HB,m,y,./images/ARTISTHB.png,,,,,,,,,,,,,,,,,,,,,z,0,0.4917,,,,,,,,0,40,40,61,1
,,,,,,,,,,,,,,,,,5d268981c22768000166c7c7,20,2022-02-12_17h47.47.322,lexical_decision_task_DD_L4,2021.2.3,Win32,60.13952369,,,,,,,,,,,0.5879,1,,,,,,,,,,,,,,,,,,,,,,,,0.071614583,-0.28515625,0,0,0,space,,,,,,CASINO,HB,m,y,./images/CASINOHB.png,1.9196,,,,,,,,,,,,,,,,,,,,m,1,0.5879,,,,,,,,0,41,41,28,1
,,,,,,,,,,,,,,,,,5d268981c22768000166c7c7,20,2022-02-12_17h47.47.322,lexical_decision_task_DD_L4,2021.2.3,Win32,60.13952369,,,,,,,,,,,0.7163,1,,,,,,,,,,,,,,,,,,,,,,,,0.071614583,-0.28515625,0,0,0,,,,,,,PARCEL,C,m,y,./images/PARCEL.png,,,,,,,,,,,,,,,,,,,,,m,1,0.7163,,,,,,,,0,42,42,18,1
,,,,,,,,,,,,,,,,,5d268981c22768000166c7c7,20,2022-02-12_17h47.47.322,lexical_decision_task_DD_L4,2021.2.3,Win32,60.13952369,,,,,,,,,,,0.6223,1,,,,,,,,,,,,,,,,,,,,,,,,0.071614583,-0.28515625,0,0,0,,,,,,,DONKEY,HB,m,y,./images/DONKEYHB.png,,,,,,,,,,,,,,,,,,,,,m,1,0.6223,,,,,,,,0,43,43,19,1
,,,,,,,,,,,,,,,,,5d268981c22768000166c7c7,20,2022-02-12_17h47.47.322,lexical_decision_task_DD_L4,2021.2.3,Win32,60.13952369,,,,,,,,,,,0.6854,1,,,,,,,,,,,,,,,,,,,,,,,,0.071614583,-0.28515625,0,0,0,,,,,,,PICKLE,LB,z,y,./images/PICKLELB.png,,,,,,,,,,,,,,,,,,,,,z,1,0.6854,,,,,,,,0,44,44,98,1
,,,,,,,,,,,,,,,,,5d268981c22768000166c7c7,20,2022-02-12_17h47.47.322,lexical_decision_task_DD_L4,2021.2.3,Win32,60.13952369,,,,,,,,,,,0.6595,1,,,,,,,,,,,,,,,,,,,,,,,,0.071614583,-0.28515625,0,0,0,,,,,,,BLOKE,C,m,y,./images/BLOKE.png,,,,,,,,,,,,,,,,,,,,,m,1,0.6595,,,,,,,,0,45,45,12,1
,,,,,,,,,,,,,,,,,5d268981c22768000166c7c7,20,2022-02-12_17h47.47.322,lexical_decision_task_DD_L4,2021.2.3,Win32,60.13952369,,,,,,,,,,,0.6664,1,,,,,,,,,,,,,,,,,,,,,,,,0.071614583,-0.28515625,0,0,0,,,,,,,PENCE,HB,z,y,./images/PENCEHB.png,,,,,,,,,,,,,,,,,,,,,z,1,0.6664,,,,,,,,0,46,46,100,1
,,,,,,,,,,,,,,,,,5d268981c22768000166c7c7,20,2022-02-12_17h47.47.322,lexical_decision_task_DD_L4,2021.2.3,Win32,60.13952369,,,,,,,,,,,0.7826,1,,,,,,,,,,,,,,,,,,,,,,,,0.071614583,-0.28515625,0,0,0,,,,,,,COLLAR,C,m,y,./images/COLLAR.png,,,,,,,,,,,,,,,,,,,,,m,1,0.7826,,,,,,,,0,47,47,15,1
,,,,,,,,,,,,,,,,,5d268981c22768000166c7c7,20,2022-02-12_17h47.47.322,lexical_decision_task_DD_L4,2021.2.3,Win32,60.13952369,,,,,,,,,,,0.7095,1,,,,,,,,,,,,,,,,,,,,,,,,0.071614583,-0.28515625,0,0,0,,,,,,,CRATER,C,m,y,./images/CRATER.png,,,,,,,,,,,,,,,,,,,,,m,1,0.7095,,,,,,,,0,48,48,3,1
,,,,,,,,,,,,,,,,,5d268981c22768000166c7c7,20,2022-02-12_17h47.47.322,lexical_decision_task_DD_L4,2021.2.3,Win32,60.13952369,,,,,,,,,,,0.6695,1,,,,,,,,,,,,,,,,,,,,,,,,0.071614583,-0.28515625,0,0,0,,,,,,,DRILL,C,m,y,./images/DRILL.png,,,,,,,,,,,,,,,,,,,,,m,1,0.6695,,,,,,,,0,49,49,81,1
,,,,,,,,,,,,,,,,,5d268981c22768000166c7c7,20,2022-02-12_17h47.47.322,lexical_decision_task_DD_L4,2021.2.3,Win32,60.13952369,,,,,,,,,,,0.7527,1,,,,,,,,,,,,,,,,,,,,,,,,0.071614583,-0.28515625,0,0,0,,,,,,,STORM,C,z,y,./images/STORM.png,,,,,,,,,,,,,,,,,,,,,z,1,0.7527,,,,,,,,0,50,50,114,1
,,,,,,,,,,,,,,,,,5d268981c22768000166c7c7,20,2022-02-12_17h47.47.322,lexical_decision_task_DD_L4,2021.2.3,Win32,60.13952369,,,,,,,,,,,0.6648,1,,,,,,,,,,,,,,,,,,,,,,,,0.071614583,-0.28515625,0,0,0,,,,,,,BURIAL,LB,z,y,./images/BURIALLB.png,,,,,,,,,,,,,,,,,,,,,z,1,0.6648,,,,,,,,0,51,51,143,1
,,,,,,,,,,,,,,,,,5d268981c22768000166c7c7,20,2022-02-12_17h47.47.322,lexical_decision_task_DD_L4,2021.2.3,Win32,60.13952369,,,,,,,,,,,0.6142,1,,,,,,,,,,,,,,,,,,,,,,,,0.071614583,-0.28515625,0,0,0,,,,,,,WEASEL,LB,z,y,./images/WEASELLB.png,,,,,,,,,,,,,,,,,,,,,z,1,0.6142,,,,,,,,0,52,52,164,1
,,,,,,,,,,,,,,,,,5d268981c22768000166c7c7,20,2022-02-12_17h47.47.322,lexical_decision_task_DD_L4,2021.2.3,Win32,60.13952369,,,,,,,,,,,0.5374,1,,,,,,,,,,,,,,,,,,,,,,,,0.071614583,-0.28515625,0,0,0,,,,,,,POSTER,LB,m,y,./images/POSTERLB.png,,,,,,,,,,,,,,,,,,,,,m,1,0.5374,,,,,,,,0,53,53,53,1
,,,,,,,,,,,,,,,,,5d268981c22768000166c7c7,20,2022-02-12_17h47.47.322,lexical_decision_task_DD_L4,2021.2.3,Win32,60.13952369,,,,,,,,,,,0.7711,1,,,,,,,,,,,,,,,,,,,,,,,,0.071614583,-0.28515625,0,0,0,,,,,,,BRUSH,LB,m,y,./images/BRUSHLB.png,,,,,,,,,,,,,,,,,,,,,m,1,0.7711,,,,,,,,0,54,54,59,1
,,,,,,,,,,,,,,,,,5d268981c22768000166c7c7,20,2022-02-12_17h47.47.322,lexical_decision_task_DD_L4,2021.2.3,Win32,60.13952369,,,,,,,,,,,0.6362,1,,,,,,,,,,,,,,,,,,,,,,,,0.071614583,-0.28515625,0,0,0,,,,,,,BONNET,LB,z,y,./images/BONNETLB.png,,,,,,,,,,,,,,,,,,,,,z,1,0.6362,,,,,,,,0,55,55,95,1
,,,,,,,,,,,,,,,,,5d268981c22768000166c7c7,20,2022-02-12_17h47.47.322,lexical_decision_task_DD_L4,2021.2.3,Win32,60.13952369,,,,,,,,,,,0.6577,1,,,,,,,,,,,,,,,,,,,,,,,,0.071614583,-0.28515625,0,0,0,,,,,,,MONKEY,C,m,y,./images/MONKEY.png,,,,,,,,,,,,,,,,,,,,,m,1,0.6577,,,,,,,,0,56,56,45,1
,,,,,,,,,,,,,,,,,5d268981c22768000166c7c7,20,2022-02-12_17h47.47.322,lexical_decision_task_DD_L4,2021.2.3,Win32,60.13952369,,,,,,,,,,,0.5659,1,,,,,,,,,,,,,,,,,,,,,,,,0.071614583,-0.28515625,0,0,0,,,,,,,MUMMY,HB,m,y,./images/MUMMYHB.png,,,,,,,,,,,,,,,,,,,,,m,1,0.5659,,,,,,,,0,57,57,46,1
,,,,,,,,,,,,,,,,,5d268981c22768000166c7c7,20,2022-02-12_17h47.47.322,lexical_decision_task_DD_L4,2021.2.3,Win32,60.13952369,,,,,,,,,,,0.6255,1,,,,,,,,,,,,,,,,,,,,,,,,0.071614583,-0.28515625,0,0,0,,,,,,,PASTA,LB,z,y,./images/PASTALB.png,,,,,,,,,,,,,,,,,,,,,z,1,0.6255,,,,,,,,0,58,58,89,1
,,,,,,,,,,,,,,,,,5d268981c22768000166c7c7,20,2022-02-12_17h47.47.322,lexical_decision_task_DD_L4,2021.2.3,Win32,60.13952369,,,,,,,,,,,0.4,1,,,,,,,,,,,,,,,,,,,,,,,,0.071614583,-0.28515625,0,0,0,,,,,,,MOSQUE,HB,z,y,./images/MOSQUEHB.png,,,,,,,,,,,,,,,,,,,,,z,1,0.4,,,,,,,,0,59,59,127,1
,,,,,,,,,,,,,,,,,5d268981c22768000166c7c7,20,2022-02-12_17h47.47.322,lexical_decision_task_DD_L4,2021.2.3,Win32,60.13952369,,,,,,,,,,,0.5984,1,,,,,,,,,,,,,,,,,,,,,,,,0.071614583,-0.28515625,0,0,0,,,,,,,CARPET,LB,z,y,./images/CARPETLB.png,,,,,,,,,,,,,,,,,,,,,z,1,0.5984,,,,,,,,0,60,60,137,1
,,,,,,,,,,,,,,,,,5d268981c22768000166c7c7,20,2022-02-12_17h47.47.322,lexical_decision_task_DD_L4,2021.2.3,Win32,60.13952369,,,,,,,,,,,0.4821,1,,,,,,,,,,,,,,,,,,,,,,,,0.071614583,-0.28515625,0,0,0,,,,,,,JUNGLE,LB,z,y,./images/JUNGLELB.png,,,,,,,,,,,,,,,,,,,,,z,1,0.4821,,,,,,,,0,61,61,167,1
,,,,,,,,,,,,,,,,,5d268981c22768000166c7c7,20,2022-02-12_17h47.47.322,lexical_decision_task_DD_L4,2021.2.3,Win32,60.13952369,,,,,,,,,,,0.4807,1,,,,,,,,,,,,,,,,,,,,,,,,0.071614583,-0.28515625,0,0,0,,,,,,,JAGUAR,C,z,y,./images/JAGUAR.png,,,,,,,,,,,,,,,,,,,,,z,1,0.4807,,,,,,,,0,62,62,102,1
,,,,,,,,,,,,,,,,,5d268981c22768000166c7c7,20,2022-02-12_17h47.47.322,lexical_decision_task_DD_L4,2021.2.3,Win32,60.13952369,,,,,,,,,,,0.5008,1,,,,,,,,,,,,,,,,,,,,,,,,0.071614583,-0.28515625,0,0,0,,,,,,,GRAIN,C,z,y,./images/GRAIN.png,,,,,,,,,,,,,,,,,,,,,z,1,0.5008,,,,,,,,0,63,63,159,1
,,,,,,,,,,,,,,,,,5d268981c22768000166c7c7,20,2022-02-12_17h47.47.322,lexical_decision_task_DD_L4,2021.2.3,Win32,60.13952369,,,,,,,,,,,0.6031,1,,,,,,,,,,,,,,,,,,,,,,,,0.071614583,-0.28515625,0,0,0,,,,,,,SPINE,LB,m,y,./images/SPINELB.png,,,,,,,,,,,,,,,,,,,,,m,1,0.6031,,,,,,,,0,64,64,65,1
,,,,,,,,,,,,,,,,,5d268981c22768000166c7c7,20,2022-02-12_17h47.47.322,lexical_decision_task_DD_L4,2021.2.3,Win32,60.13952369,,,,,,,,,,,0.6192,1,,,,,,,,,,,,,,,,,,,,,,,,0.071614583,-0.28515625,0,0,0,,,,,,,ENGINE,LB,m,y,./images/ENGINELB.png,,,,,,,,,,,,,,,,,,,,,m,1,0.6192,,,,,,,,0,65,65,38,1
,,,,,,,,,,,,,,,,,5d268981c22768000166c7c7,20,2022-02-12_17h47.47.322,lexical_decision_task_DD_L4,2021.2.3,Win32,60.13952369,,,,,,,,,,,0.6498,1,,,,,,,,,,,,,,,,,,,,,,,,0.071614583,-0.28515625,0,0,0,,,,,,,STOVE,LB,m,y,./images/STOVELB.png,,,,,,,,,,,,,,,,,,,,,m,1,0.6498,,,,,,,,0,66,66,2,1
,,,,,,,,,,,,,,,,,5d268981c22768000166c7c7,20,2022-02-12_17h47.47.322,lexical_decision_task_DD_L4,2021.2.3,Win32,60.13952369,,,,,,,,,,,0.7153,0,,,,,,,,,,,,,,,,,,,,,,,,0.071614583,-0.28515625,0,0,0,,,,,,,HEATER,LB,m,y,./images/HEATERLB.png,,,,,,,,,,,,,,,,,,,,,z,0,0.7153,,,,,,,,0,67,67,56,1
,,,,,,,,,,,,,,,,,5d268981c22768000166c7c7,20,2022-02-12_17h47.47.322,lexical_decision_task_DD_L4,2021.2.3,Win32,60.13952369,,,,,,,,,,,0.719,1,,,,,,,,,,,,,,,,,,,,,,,,0.071614583,-0.28515625,0,0,0,,,,,,,MIDGET,HB,m,y,./images/MIDGETHB.png,,,,,,,,,,,,,,,,,,,,,m,1,0.719,,,,,,,,0,68,68,76,1
,,,,,,,,,,,,,,,,,5d268981c22768000166c7c7,20,2022-02-12_17h47.47.322,lexical_decision_task_DD_L4,2021.2.3,Win32,60.13952369,,,,,,,,,,,0.5331,1,,,,,,,,,,,,,,,,,,,,,,,,0.071614583,-0.28515625,0,0,0,,,,,,,JELLY,HB,z,y,./images/JELLYHB.png,,,,,,,,,,,,,,,,,,,,,z,1,0.5331,,,,,,,,0,69,69,148,1
,,,,,,,,,,,,,,,,,5d268981c22768000166c7c7,20,2022-02-12_17h47.47.322,lexical_decision_task_DD_L4,2021.2.3,Win32,60.13952369,,,,,,,,,,,0.3593,0,,,,,,,,,,,,,,,,,,,,,,,,0.071614583,-0.28515625,0,0,0,,,,,,,ARROW,C,m,y,./images/ARROW.png,,,,,,,,,,,,,,,,,,,,,z,0,0.3593,,,,,,,,0,70,70,69,1
,,,,,,,,,,,,,,,,,5d268981c22768000166c7c7,20,2022-02-12_17h47.47.322,lexical_decision_task_DD_L4,2021.2.3,Win32,60.13952369,,,,,,,,,,,0.7662,1,,,,,,,,,,,,,,,,,,,,,,,,0.071614583,-0.28515625,0,0,0,,,,,,,WRIST,HB,z,y,./images/WRISTHB.png,,,,,,,,,,,,,,,,,,,,,z,1,0.7662,,,,,,,,0,71,71,109,1
,,,,,,,,,,,,,,,,,5d268981c22768000166c7c7,20,2022-02-12_17h47.47.322,lexical_decision_task_DD_L4,2021.2.3,Win32,60.13952369,,,,,,,,,,,0.5181,1,,,,,,,,,,,,,,,,,,,,,,,,0.071614583,-0.28515625,0,0,0,,,,,,,SWING,HB,z,y,./images/SWINGHB.png,,,,,,,,,,,,,,,,,,,,,z,1,0.5181,,,,,,,,0,72,72,124,1
,,,,,,,,,,,,,,,,,5d268981c22768000166c7c7,20,2022-02-12_17h47.47.322,lexical_decision_task_DD_L4,2021.2.3,Win32,60.13952369,,,,,,,,,,,0.6197,0,,,,,,,,,,,,,,,,,,,,,,,,0.071614583,-0.28515625,0,0,0,,,,,,,SCREW,C,z,y,./images/SCREW.png,,,,,,,,,,,,,,,,,,,,,m,0,0.6197,,,,,,,,0,73,73,108,1
,,,,,,,,,,,,,,,,,5d268981c22768000166c7c7,20,2022-02-12_17h47.47.322,lexical_decision_task_DD_L4,2021.2.3,Win32,60.13952369,,,,,,,,,,,0.5427,1,,,,,,,,,,,,,,,,,,,,,,,,0.071614583,-0.28515625,0,0,0,,,,,,,TULIP,LB,z,y,./images/TULIPLB.png,,,,,,,,,,,,,,,,,,,,,z,1,0.5427,,,,,,,,0,74,74,92,1
,,,,,,,,,,,,,,,,,5d268981c22768000166c7c7,20,2022-02-12_17h47.47.322,lexical_decision_task_DD_L4,2021.2.3,Win32,60.13952369,,,,,,,,,,,0.6182,1,,,,,,,,,,,,,,,,,,,,,,,,0.071614583,-0.28515625,0,0,0,,,,,,,TWINS,C,z,y,./images/TWINS.png,,,,,,,,,,,,,,,,,,,,,z,1,0.6182,,,,,,,,0,75,75,144,1
,,,,,,,,,,,,,,,,,5d268981c22768000166c7c7,20,2022-02-12_17h47.47.322,lexical_decision_task_DD_L4,2021.2.3,Win32,60.13952369,,,,,,,,,,,0.4601,1,,,,,,,,,,,,,,,,,,,,,,,,0.071614583,-0.28515625,0,0,0,,,,,,,SHORE,C,z,y,./images/SHORE.png,,,,,,,,,,,,,,,,,,,,,z,1,0.4601,,,,,,,,0,76,76,96,1
,,,,,,,,,,,,,,,,,5d268981c22768000166c7c7,20,2022-02-12_17h47.47.322,lexical_decision_task_DD_L4,2021.2.3,Win32,60.13952369,,,,,,,,,,,0.7031,1,,,,,,,,,,,,,,,,,,,,,,,,0.071614583,-0.28515625,0,0,0,,,,,,,BELLY,HB,z,y,./images/BELLYHB.png,,,,,,,,,,,,,,,,,,,,,z,1,0.7031,,,,,,,,0,77,77,94,1
,,,,,,,,,,,,,,,,,5d268981c22768000166c7c7,20,2022-02-12_17h47.47.322,lexical_decision_task_DD_L4,2021.2.3,Win32,60.13952369,,,,,,,,,,,0.4822,0,,,,,,,,,,,,,,,,,,,,,,,,0.071614583,-0.28515625,0,0,0,,,,,,,SAUNA,C,m,y,./images/SAUNA.png,,,,,,,,,,,,,,,,,,,,,z,0,0.4822,,,,,,,,0,78,78,33,1
,,,,,,,,,,,,,,,,,5d268981c22768000166c7c7,20,2022-02-12_17h47.47.322,lexical_decision_task_DD_L4,2021.2.3,Win32,60.13952369,,,,,,,,,,,0.4982,1,,,,,,,,,,,,,,,,,,,,,,,,0.071614583,-0.28515625,0,0,0,,,,,,,LIZARD,LB,z,y,./images/LIZARDLB.png,,,,,,,,,,,,,,,,,,,,,z,1,0.4982,,,,,,,,0,79,79,128,1
,,,,,,,,,,,,,,,,,5d268981c22768000166c7c7,20,2022-02-12_17h47.47.322,lexical_decision_task_DD_L4,2021.2.3,Win32,60.13952369,,,,,,,,,,,0.6812,1,,,,,,,,,,,,,,,,,,,,,,,,0.071614583,-0.28515625,0,0,0,,,,,,,TIGER,HB,m,y,./images/TIGERHB.png,,,,,,,,,,,,,,,,,,,,,m,1,0.6812,,,,,,,,0,80,80,37,1
,,,,,,,,,,,,,,,,,5d268981c22768000166c7c7,20,2022-02-12_17h47.47.322,lexical_decision_task_DD_L4,2021.2.3,Win32,60.13952369,,,,,,,,,,,0.6706,1,,,,,,,,,,,,,,,,,,,,,,,,0.071614583,-0.28515625,0,0,0,,,,,,,WHISKY,LB,m,y,./images/WHISKYLB.png,,,,,,,,,,,,,,,,,,,,,m,1,0.6706,,,,,,,,0,81,81,83,1
,,,,,,,,,,,,,,,,,5d268981c22768000166c7c7,20,2022-02-12_17h47.47.322,lexical_decision_task_DD_L4,2021.2.3,Win32,60.13952369,,,,,,,,,,,0.5845,1,,,,,,,,,,,,,,,,,,,,,,,,0.071614583,-0.28515625,0,0,0,,,,,,,POKER,HB,m,y,./images/POKERHB.png,,,,,,,,,,,,,,,,,,,,,m,1,0.5845,,,,,,,,0,82,82,67,1
,,,,,,,,,,,,,,,,,5d268981c22768000166c7c7,20,2022-02-12_17h47.47.322,lexical_decision_task_DD_L4,2021.2.3,Win32,60.13952369,,,,,,,,,,,0.647,1,,,,,,,,,,,,,,,,,,,,,,,,0.071614583,-0.28515625,0,0,0,space,,,,,,COOKER,C,z,y,./images/COOKER.png,3.8346,,,,,,,,,,,,,,,,,,,,z,1,0.647,,,,,,,,0,83,83,153,1
,,,,,,,,,,,,,,,,,5d268981c22768000166c7c7,20,2022-02-12_17h47.47.322,lexical_decision_task_DD_L4,2021.2.3,Win32,60.13952369,,,,,,,,,,,0.6647,1,,,,,,,,,,,,,,,,,,,,,,,,0.071614583,-0.28515625,0,0,0,,,,,,,BISHOP,HB,m,y,./images/BISHOPHB.png,,,,,,,,,,,,,,,,,,,,,m,1,0.6647,,,,,,,,0,84,84,49,1
,,,,,,,,,,,,,,,,,5d268981c22768000166c7c7,20,2022-02-12_17h47.47.322,lexical_decision_task_DD_L4,2021.2.3,Win32,60.13952369,,,,,,,,,,,1.0855,1,,,,,,,,,,,,,,,,,,,,,,,,0.071614583,-0.28515625,0,0,0,,,,,,,PEBBLE,HB,m,y,./images/PEBBLEHB.png,,,,,,,,,,,,,,,,,,,,,m,1,1.0855,,,,,,,,0,85,85,82,1
,,,,,,,,,,,,,,,,,5d268981c22768000166c7c7,20,2022-02-12_17h47.47.322,lexical_decision_task_DD_L4,2021.2.3,Win32,60.13952369,,,,,,,,,,,0.6984,1,,,,,,,,,,,,,,,,,,,,,,,,0.071614583,-0.28515625,0,0,0,,,,,,,WAGON,HB,m,y,./images/WAGONHB.png,,,,,,,,,,,,,,,,,,,,,m,1,0.6984,,,,,,,,0,86,86,7,1
,,,,,,,,,,,,,,,,,5d268981c22768000166c7c7,20,2022-02-12_17h47.47.322,lexical_decision_task_DD_L4,2021.2.3,Win32,60.13952369,,,,,,,,,,,0.6665,1,,,,,,,,,,,,,,,,,,,,,,,,0.071614583,-0.28515625,0,0,0,,,,,,,SNAKE,HB,m,y,./images/SNAKEHB.png,,,,,,,,,,,,,,,,,,,,,m,1,0.6665,,,,,,,,0,87,87,40,1
,,,,,,,,,,,,,,,,,5d268981c22768000166c7c7,20,2022-02-12_17h47.47.322,lexical_decision_task_DD_L4,2021.2.3,Win32,60.13952369,,,,,,,,,,,0.7531,1,,,,,,,,,,,,,,,,,,,,,,,,0.071614583,-0.28515625,0,0,0,,,,,,,GRAPE,HB,m,y,./images/GRAPEHB.png,,,,,,,,,,,,,,,,,,,,,m,1,0.7531,,,,,,,,0,88,88,16,1
,,,,,,,,,,,,,,,,,5d268981c22768000166c7c7,20,2022-02-12_17h47.47.322,lexical_decision_task_DD_L4,2021.2.3,Win32,60.13952369,,,,,,,,,,,0.6205,1,,,,,,,,,,,,,,,,,,,,,,,,0.071614583,-0.28515625,0,0,0,,,,,,,DIVER,C,m,y,./images/DIVER.png,,,,,,,,,,,,,,,,,,,,,m,1,0.6205,,,,,,,,0,89,89,9,1
,,,,,,,,,,,,,,,,,5d268981c22768000166c7c7,20,2022-02-12_17h47.47.322,lexical_decision_task_DD_L4,2021.2.3,Win32,60.13952369,,,,,,,,,,,0.6711,1,,,,,,,,,,,,,,,,,,,,,,,,0.071614583,-0.28515625,0,0,0,,,,,,,CLOUD,LB,m,y,./images/CLOUDLB.png,,,,,,,,,,,,,,,,,,,,,m,1,0.6711,,,,,,,,0,90,90,26,1
,,,,,,,,,,,,,,,,,5d268981c22768000166c7c7,20,2022-02-12_17h47.47.322,lexical_decision_task_DD_L4,2021.2.3,Win32,60.13952369,,,,,,,,,,,0.6977,1,,,,,,,,,,,,,,,,,,,,,,,,0.071614583,-0.28515625,0,0,0,,,,,,,STAIN,C,m,y,./images/STAIN.png,,,,,,,,,,,,,,,,,,,,,m,1,0.6977,,,,,,,,0,91,91,6,1
,,,,,,,,,,,,,,,,,5d268981c22768000166c7c7,20,2022-02-12_17h47.47.322,lexical_decision_task_DD_L4,2021.2.3,Win32,60.13952369,,,,,,,,,,,0.6579,1,,,,,,,,,,,,,,,,,,,,,,,,0.071614583,-0.28515625,0,0,0,,,,,,,GARDEN,HB,m,y,./images/GARDENHB.png,,,,,,,,,,,,,,,,,,,,,m,1,0.6579,,,,,,,,0,92,92,10,1
,,,,,,,,,,,,,,,,,5d268981c22768000166c7c7,20,2022-02-12_17h47.47.322,lexical_decision_task_DD_L4,2021.2.3,Win32,60.13952369,,,,,,,,,,,0.6122,1,,,,,,,,,,,,,,,,,,,,,,,,0.071614583,-0.28515625,0,0,0,,,,,,,ATTIC,C,z,y,./images/ATTIC.png,,,,,,,,,,,,,,,,,,,,,z,1,0.6122,,,,,,,,0,93,93,111,1
,,,,,,,,,,,,,,,,,5d268981c22768000166c7c7,20,2022-02-12_17h47.47.322,lexical_decision_task_DD_L4,2021.2.3,Win32,60.13952369,,,,,,,,,,,0.8236,1,,,,,,,,,,,,,,,,,,,,,,,,0.071614583,-0.28515625,0,0,0,,,,,,,SMOKER,LB,z,y,./images/SMOKERLB.png,,,,,,,,,,,,,,,,,,,,,z,1,0.8236,,,,,,,,0,94,94,110,1
,,,,,,,,,,,,,,,,,5d268981c22768000166c7c7,20,2022-02-12_17h47.47.322,lexical_decision_task_DD_L4,2021.2.3,Win32,60.13952369,,,,,,,,,,,0.5683,0,,,,,,,,,,,,,,,,,,,,,,,,0.071614583,-0.28515625,0,0,0,,,,,,,JUMPER,LB,m,y,./images/JUMPERLB.png,,,,,,,,,,,,,,,,,,,,,z,0,0.5683,,,,,,,,0,95,95,74,1
,,,,,,,,,,,,,,,,,5d268981c22768000166c7c7,20,2022-02-12_17h47.47.322,lexical_decision_task_DD_L4,2021.2.3,Win32,60.13952369,,,,,,,,,,,0.5199,1,,,,,,,,,,,,,,,,,,,,,,,,0.071614583,-0.28515625,0,0,0,,,,,,,MELON,HB,z,y,./images/MELONHB.png,,,,,,,,,,,,,,,,,,,,,z,1,0.5199,,,,,,,,0,96,96,106,1
,,,,,,,,,,,,,,,,,5d268981c22768000166c7c7,20,2022-02-12_17h47.47.322,lexical_decision_task_DD_L4,2021.2.3,Win32,60.13952369,,,,,,,,,,,0.4646,0,,,,,,,,,,,,,,,,,,,,,,,,0.071614583,-0.28515625,0,0,0,,,,,,,STOOL,HB,m,y,./images/STOOLHB.png,,,,,,,,,,,,,,,,,,,,,z,0,0.4646,,,,,,,,0,97,97,43,1
,,,,,,,,,,,,,,,,,5d268981c22768000166c7c7,20,2022-02-12_17h47.47.322,lexical_decision_task_DD_L4,2021.2.3,Win32,60.13952369,,,,,,,,,,,0.6836,1,,,,,,,,,,,,,,,,,,,,,,,,0.071614583,-0.28515625,0,0,0,,,,,,,FINGER,C,z,y,./images/FINGER.png,,,,,,,,,,,,,,,,,,,,,z,1,0.6836,,,,,,,,0,98,98,87,1
,,,,,,,,,,,,,,,,,5d268981c22768000166c7c7,20,2022-02-12_17h47.47.322,lexical_decision_task_DD_L4,2021.2.3,Win32,60.13952369,,,,,,,,,,,0.534,0,,,,,,,,,,,,,,,,,,,,,,,,0.071614583,-0.28515625,0,0,0,,,,,,,CLOTH,LB,m,y,./images/CLOTHLB.png,,,,,,,,,,,,,,,,,,,,,z,0,0.534,,,,,,,,0,99,99,23,1
,,,,,,,,,,,,,,,,,5d268981c22768000166c7c7,20,2022-02-12_17h47.47.322,lexical_decision_task_DD_L4,2021.2.3,Win32,60.13952369,,,,,,,,,,,0.664,1,,,,,,,,,,,,,,,,,,,,,,,,0.071614583,-0.28515625,0,0,0,,,,,,,BUNNY,HB,m,y,./images/BUNNYHB.png,,,,,,,,,,,,,,,,,,,,,m,1,0.664,,,,,,,,0,100,100,13,1
,,,,,,,,,,,,,,,,,5d268981c22768000166c7c7,20,2022-02-12_17h47.47.322,lexical_decision_task_DD_L4,2021.2.3,Win32,60.13952369,,,,,,,,,,,0.663,1,,,,,,,,,,,,,,,,,,,,,,,,0.071614583,-0.28515625,0,0,0,,,,,,,DOUGH,HB,z,y,./images/DOUGHHB.png,,,,,,,,,,,,,,,,,,,,,z,1,0.663,,,,,,,,0,101,101,103,1
,,,,,,,,,,,,,,,,,5d268981c22768000166c7c7,20,2022-02-12_17h47.47.322,lexical_decision_task_DD_L4,2021.2.3,Win32,60.13952369,,,,,,,,,,,0.6816,1,,,,,,,,,,,,,,,,,,,,,,,,0.071614583,-0.28515625,0,0,0,,,,,,,BASKET,LB,m,y,./images/BASKETLB.png,,,,,,,,,,,,,,,,,,,,,m,1,0.6816,,,,,,,,0,102,102,44,1
,,,,,,,,,,,,,,,,,5d268981c22768000166c7c7,20,2022-02-12_17h47.47.322,lexical_decision_task_DD_L4,2021.2.3,Win32,60.13952369,,,,,,,,,,,0.7305,1,,,,,,,,,,,,,,,,,,,,,,,,0.071614583,-0.28515625,0,0,0,,,,,,,CURRY,C,m,y,./images/CURRY.png,,,,,,,,,,,,,,,,,,,,,m,1,0.7305,,,,,,,,0,103,103,60,1
,,,,,,,,,,,,,,,,,5d268981c22768000166c7c7,20,2022-02-12_17h47.47.322,lexical_decision_task_DD_L4,2021.2.3,Win32,60.13952369,,,,,,,,,,,0.8495,1,,,,,,,,,,,,,,,,,,,,,,,,0.071614583,-0.28515625,0,0,0,,,,,,,RULER,HB,m,y,./images/RULERHB.png,,,,,,,,,,,,,,,,,,,,,m,1,0.8495,,,,,,,,0,104,104,79,1
,,,,,,,,,,,,,,,,,5d268981c22768000166c7c7,20,2022-02-12_17h47.47.322,lexical_decision_task_DD_L4,2021.2.3,Win32,60.13952369,,,,,,,,,,,0.7387,1,,,,,,,,,,,,,,,,,,,,,,,,0.071614583,-0.28515625,0,0,0,,,,,,,FOLDER,C,z,y,./images/FOLDER.png,,,,,,,,,,,,,,,,,,,,,z,1,0.7387,,,,,,,,0,105,105,126,1
,,,,,,,,,,,,,,,,,5d268981c22768000166c7c7,20,2022-02-12_17h47.47.322,lexical_decision_task_DD_L4,2021.2.3,Win32,60.13952369,,,,,,,,,,,1.2708,1,,,,,,,,,,,,,,,,,,,,,,,,0.071614583,-0.28515625,0,0,0,,,,,,,WHEEL,LB,m,y,./images/WHEELLB.png,,,,,,,,,,,,,,,,,,,,,m,1,1.2708,,,,,,,,0,106,106,77,1
,,,,,,,,,,,,,,,,,5d268981c22768000166c7c7,20,2022-02-12_17h47.47.322,lexical_decision_task_DD_L4,2021.2.3,Win32,60.13952369,,,,,,,,,,,0.6875,1,,,,,,,,,,,,,,,,,,,,,,,,0.071614583,-0.28515625,0,0,0,,,,,,,ONION,C,z,y,./images/ONION.png,,,,,,,,,,,,,,,,,,,,,z,1,0.6875,,,,,,,,0,107,107,135,1
,,,,,,,,,,,,,,,,,5d268981c22768000166c7c7,20,2022-02-12_17h47.47.322,lexical_decision_task_DD_L4,2021.2.3,Win32,60.13952369,,,,,,,,,,,0.5656,1,,,,,,,,,,,,,,,,,,,,,,,,0.071614583,-0.28515625,0,0,0,,,,,,,FALCON,HB,z,y,./images/FALCONHB.png,,,,,,,,,,,,,,,,,,,,,z,1,0.5656,,,,,,,,0,108,108,112,1
,,,,,,,,,,,,,,,,,5d268981c22768000166c7c7,20,2022-02-12_17h47.47.322,lexical_decision_task_DD_L4,2021.2.3,Win32,60.13952369,,,,,,,,,,,0.6016,1,,,,,,,,,,,,,,,,,,,,,,,,0.071614583,-0.28515625,0,0,0,,,,,,,CHERRY,C,m,y,./images/CHERRY.png,,,,,,,,,,,,,,,,,,,,,m,1,0.6016,,,,,,,,0,109,109,54,1
,,,,,,,,,,,,,,,,,5d268981c22768000166c7c7,20,2022-02-12_17h47.47.322,lexical_decision_task_DD_L4,2021.2.3,Win32,60.13952369,,,,,,,,,,,0.6415,0,,,,,,,,,,,,,,,,,,,,,,,,0.071614583,-0.28515625,0,0,0,,,,,,,CLIFF,LB,m,y,./images/CLIFFLB.png,,,,,,,,,,,,,,,,,,,,,z,0,0.6415,,,,,,,,0,110,110,8,1
,,,,,,,,,,,,,,,,,5d268981c22768000166c7c7,20,2022-02-12_17h47.47.322,lexical_decision_task_DD_L4,2021.2.3,Win32,60.13952369,,,,,,,,,,,0.675,1,,,,,,,,,,,,,,,,,,,,,,,,0.071614583,-0.28515625,0,0,0,,,,,,,CLOWN,HB,m,y,./images/CLOWNHB.png,,,,,,,,,,,,,,,,,,,,,m,1,0.675,,,,,,,,0,111,111,22,1
,,,,,,,,,,,,,,,,,5d268981c22768000166c7c7,20,2022-02-12_17h47.47.322,lexical_decision_task_DD_L4,2021.2.3,Win32,60.13952369,,,,,,,,,,,0.5496,0,,,,,,,,,,,,,,,,,,,,,,,,0.071614583,-0.28515625,0,0,0,,,,,,,CANOE,HB,m,y,./images/CANOEHB.png,,,,,,,,,,,,,,,,,,,,,z,0,0.5496,,,,,,,,0,112,112,58,1
,,,,,,,,,,,,,,,,,5d268981c22768000166c7c7,20,2022-02-12_17h47.47.322,lexical_decision_task_DD_L4,2021.2.3,Win32,60.13952369,,,,,,,,,,,0.6038,1,,,,,,,,,,,,,,,,,,,,,,,,0.071614583,-0.28515625,0,0,0,,,,,,,POODLE,C,z,y,./images/POODLE.png,,,,,,,,,,,,,,,,,,,,,z,1,0.6038,,,,,,,,0,113,113,165,1
,,,,,,,,,,,,,,,,,5d268981c22768000166c7c7,20,2022-02-12_17h47.47.322,lexical_decision_task_DD_L4,2021.2.3,Win32,60.13952369,,,,,,,,,,,0.6996,0,,,,,,,,,,,,,,,,,,,,,,,,0.071614583,-0.28515625,0,0,0,,,,,,,STREAM,LB,m,y,./images/STREAMLB.png,,,,,,,,,,,,,,,,,,,,,z,0,0.6996,,,,,,,,0,114,114,41,1
,,,,,,,,,,,,,,,,,5d268981c22768000166c7c7,20,2022-02-12_17h47.47.322,lexical_decision_task_DD_L4,2021.2.3,Win32,60.13952369,,,,,,,,,,,0.7325,1,,,,,,,,,,,,,,,,,,,,,,,,0.071614583,-0.28515625,0,0,0,,,,,,,SHIELD,C,m,y,./images/SHIELD.png,,,,,,,,,,,,,,,,,,,,,m,1,0.7325,,,,,,,,0,115,115,48,1
,,,,,,,,,,,,,,,,,5d268981c22768000166c7c7,20,2022-02-12_17h47.47.322,lexical_decision_task_DD_L4,2021.2.3,Win32,60.13952369,,,,,,,,,,,0.901,0,,,,,,,,,,,,,,,,,,,,,,,,0.071614583,-0.28515625,0,0,0,,,,,,,DESERT,HB,m,y,./images/DESERTHB.png,,,,,,,,,,,,,,,,,,,,,z,0,0.901,,,,,,,,0,116,116,52,1
,,,,,,,,,,,,,,,,,5d268981c22768000166c7c7,20,2022-02-12_17h47.47.322,lexical_decision_task_DD_L4,2021.2.3,Win32,60.13952369,,,,,,,,,,,0.6507,1,,,,,,,,,,,,,,,,,,,,,,,,0.071614583,-0.28515625,0,0,0,,,,,,,CHAIN,C,m,y,./images/CHAIN.png,,,,,,,,,,,,,,,,,,,,,m,1,0.6507,,,,,,,,0,117,117,42,1
,,,,,,,,,,,,,,,,,5d268981c22768000166c7c7,20,2022-02-12_17h47.47.322,lexical_decision_task_DD_L4,2021.2.3,Win32,60.13952369,,,,,,,,,,,0.9188,1,,,,,,,,,,,,,,,,,,,,,,,,0.071614583,-0.28515625,0,0,0,,,,,,,BARREL,LB,z,y,./images/BARRELLB.png,,,,,,,,,,,,,,,,,,,,,z,1,0.9188,,,,,,,,0,118,118,116,1
,,,,,,,,,,,,,,,,,5d268981c22768000166c7c7,20,2022-02-12_17h47.47.322,lexical_decision_task_DD_L4,2021.2.3,Win32,60.13952369,,,,,,,,,,,0.5813,1,,,,,,,,,,,,,,,,,,,,,,,,0.071614583,-0.28515625,0,0,0,,,,,,,INFANT,HB,z,y,./images/INFANTHB.png,,,,,,,,,,,,,,,,,,,,,z,1,0.5813,,,,,,,,0,119,119,160,1
,,,,,,,,,,,,,,,,,5d268981c22768000166c7c7,20,2022-02-12_17h47.47.322,lexical_decision_task_DD_L4,2021.2.3,Win32,60.13952369,,,,,,,,,,,0.635,1,,,,,,,,,,,,,,,,,,,,,,,,0.071614583,-0.28515625,0,0,0,,,,,,,BOILER,C,m,y,./images/BOILER.png,,,,,,,,,,,,,,,,,,,,,m,1,0.635,,,,,,,,0,120,120,36,1
,,,,,,,,,,,,,,,,,5d268981c22768000166c7c7,20,2022-02-12_17h47.47.322,lexical_decision_task_DD_L4,2021.2.3,Win32,60.13952369,,,,,,,,,,,0.7351,1,,,,,,,,,,,,,,,,,,,,,,,,0.071614583,-0.28515625,0,0,0,,,,,,,MOOSE,C,z,y,./images/MOOSE.png,,,,,,,,,,,,,,,,,,,,,z,1,0.7351,,,,,,,,0,121,121,141,1
,,,,,,,,,,,,,,,,,5d268981c22768000166c7c7,20,2022-02-12_17h47.47.322,lexical_decision_task_DD_L4,2021.2.3,Win32,60.13952369,,,,,,,,,,,0.5838,1,,,,,,,,,,,,,,,,,,,,,,,,0.071614583,-0.28515625,0,0,0,,,,,,,BUBBLE,LB,m,y,./images/BUBBLELB.png,,,,,,,,,,,,,,,,,,,,,m,1,0.5838,,,,,,,,0,122,122,71,1
,,,,,,,,,,,,,,,,,5d268981c22768000166c7c7,20,2022-02-12_17h47.47.322,lexical_decision_task_DD_L4,2021.2.3,Win32,60.13952369,,,,,,,,,,,0.8848,1,,,,,,,,,,,,,,,,,,,,,,,,0.071614583,-0.28515625,0,0,0,,,,,,,MOTOR,HB,z,y,./images/MOTORHB.png,,,,,,,,,,,,,,,,,,,,,z,1,0.8848,,,,,,,,0,123,123,97,1
,,,,,,,,,,,,,,,,,5d268981c22768000166c7c7,20,2022-02-12_17h47.47.322,lexical_decision_task_DD_L4,2021.2.3,Win32,60.13952369,,,,,,,,,,,0.8168,1,,,,,,,,,,,,,,,,,,,,,,,,0.071614583,-0.28515625,0,0,0,,,,,,,PACKET,LB,z,y,./images/PACKETLB.png,,,,,,,,,,,,,,,,,,,,,z,1,0.8168,,,,,,,,0,124,124,140,1
,,,,,,,,,,,,,,,,,5d268981c22768000166c7c7,20,2022-02-12_17h47.47.322,lexical_decision_task_DD_L4,2021.2.3,Win32,60.13952369,,,,,,,,,,,0.6707,1,,,,,,,,,,,,,,,,,,,,,,,,0.071614583,-0.28515625,0,0,0,space,,,,,,GREASE,C,z,y,./images/GREASE.png,1.8922,,,,,,,,,,,,,,,,,,,,z,1,0.6707,,,,,,,,0,125,125,99,1
,,,,,,,,,,,,,,,,,5d268981c22768000166c7c7,20,2022-02-12_17h47.47.322,lexical_decision_task_DD_L4,2021.2.3,Win32,60.13952369,,,,,,,,,,,0.5389,0,,,,,,,,,,,,,,,,,,,,,,,,0.071614583,-0.28515625,0,0,0,,,,,,,RAZOR,HB,m,y,./images/RAZORHB.png,,,,,,,,,,,,,,,,,,,,,z,0,0.5389,,,,,,,,0,126,126,34,1
,,,,,,,,,,,,,,,,,5d268981c22768000166c7c7,20,2022-02-12_17h47.47.322,lexical_decision_task_DD_L4,2021.2.3,Win32,60.13952369,,,,,,,,,,,1.0042,1,,,,,,,,,,,,,,,,,,,,,,,,0.071614583,-0.28515625,0,0,0,,,,,,,MAMMAL,LB,m,y,./images/MAMMALLB.png,,,,,,,,,,,,,,,,,,,,,m,1,1.0042,,,,,,,,0,127,127,62,1
,,,,,,,,,,,,,,,,,5d268981c22768000166c7c7,20,2022-02-12_17h47.47.322,lexical_decision_task_DD_L4,2021.2.3,Win32,60.13952369,,,,,,,,,,,0.5703,1,,,,,,,,,,,,,,,,,,,,,,,,0.071614583,-0.28515625,0,0,0,,,,,,,SKIING,LB,z,y,./images/SKIINGLB.png,,,,,,,,,,,,,,,,,,,,,z,1,0.5703,,,,,,,,0,128,128,101,1
,,,,,,,,,,,,,,,,,5d268981c22768000166c7c7,20,2022-02-12_17h47.47.322,lexical_decision_task_DD_L4,2021.2.3,Win32,60.13952369,,,,,,,,,,,0.6554,1,,,,,,,,,,,,,,,,,,,,,,,,0.071614583,-0.28515625,0,0,0,,,,,,,SUNSET,HB,z,y,./images/SUNSETHB.png,,,,,,,,,,,,,,,,,,,,,z,1,0.6554,,,,,,,,0,129,129,166,1
,,,,,,,,,,,,,,,,,5d268981c22768000166c7c7,20,2022-02-12_17h47.47.322,lexical_decision_task_DD_L4,2021.2.3,Win32,60.13952369,,,,,,,,,,,0.8433,1,,,,,,,,,,,,,,,,,,,,,,,,0.071614583,-0.28515625,0,0,0,,,,,,,SQUARE,C,z,y,./images/SQUARE.png,,,,,,,,,,,,,,,,,,,,,z,1,0.8433,,,,,,,,0,130,130,90,1
,,,,,,,,,,,,,,,,,5d268981c22768000166c7c7,20,2022-02-12_17h47.47.322,lexical_decision_task_DD_L4,2021.2.3,Win32,60.13952369,,,,,,,,,,,0.5841,1,,,,,,,,,,,,,,,,,,,,,,,,0.071614583,-0.28515625,0,0,0,,,,,,,BAKER,C,m,y,./images/BAKER.png,,,,,,,,,,,,,,,,,,,,,m,1,0.5841,,,,,,,,0,131,131,63,1
,,,,,,,,,,,,,,,,,5d268981c22768000166c7c7,20,2022-02-12_17h47.47.322,lexical_decision_task_DD_L4,2021.2.3,Win32,60.13952369,,,,,,,,,,,0.8053,1,,,,,,,,,,,,,,,,,,,,,,,,0.071614583,-0.28515625,0,0,0,,,,,,,LADDER,LB,z,y,./images/LADDERLB.png,,,,,,,,,,,,,,,,,,,,,z,1,0.8053,,,,,,,,0,132,132,122,1
