key_resp.keys,instr_done_touch.x,instr_done_touch.y,instr_done_touch.leftButton,instr_done_touch.midButton,instr_done_touch.rightButton,instr_done_touch.clicked_name,instruction_pages.thisRepN,instruction_pages.thisTrialN,instruction_pages.thisN,instruction_pages.thisIndex,instruction_pages.ran,pageN,phase,instruct_text,has_image,instruct_image,participant,age,date,expName,psychopyVersion,OS,frameRate,response.keys,response.corr,touch_resp.x,touch_resp.y,touch_resp.leftButton,touch_resp.midButton,touch_resp.rightButton,touch_resp.time,touch_resp.clicked_name,rt,corr,practrials.thisRepN,practrials.thisTrialN,practrials.thisN,practrials.thisIndex,practrials.ran,TrialID,Target,corrAns,response.rt,key_resp.rt,end_of_practice_trials_pages.thisRepN,end_of_practice_trials_pages.thisTrialN,end_of_practice_trials_pages.thisN,end_of_practice_trials_pages.thisIndex,end_of_practice_trials_pages.ran,key_resp_2.keys,key_resp_2.corr,key_resp_2.rt,targ_click.x,targ_click.y,targ_click.leftButton,targ_click.midButton,targ_click.rightButton,targ_click.time,targ_click.clicked_name,break_done_touch.x,break_done_touch.y,break_done_touch.leftButton,break_done_touch.midButton,break_done_touch.rightButton,break_done_keyboard.keys,maintrials.thisRepN,maintrials.thisTrialN,maintrials.thisN,maintrials.thisIndex,maintrials.ran,string,blur,study,lex,stim_path,break_done_keyboard.rt,mouse_2.x,mouse_2.y,mouse_2.leftButton,mouse_2.midButton,mouse_2.rightButton,mouse_2.clicked_name,slider.response,slider.rt,trials.thisRepN,trials.thisTrialN,trials.thisN,trials.thisIndex,trials.ran,test_instructions.thisRepN,test_instructions.thisTrialN,test_instructions.thisN,test_instructions.thisIndex,test_instructions.ran,key_resp_3.keys,key_resp_3.corr,key_resp_3.rt,test_click.x,test_click.y,test_click.leftButton,test_click.midButton,test_click.rightButton,test_click.time,test_click.clicked_name,test_phase.thisRepN,test_phase.thisTrialN,test_phase.thisN,test_phase.thisIndex,test_phase.ran
,0.047222236,-0.393518532,1,0,0,instr_done_button,0,0,0,0,1,1,instructions,"INSTRUCTIONS
At the start of each trial, look at the plus sign  (+) in the center of the screen.  This tells you that a trial is about to begin and where to look. Second, the plus sign will disappear and a string of letters will appear. Your task is to determine if the string of letters is a word or not. If the item is a word press the M key (on keyboard)  or touch the word button (phone/tablet).  If the item is not a word,  press the  Z key (on keyboard)  or touch the nonword button (on phone/tablet). 
Press the space bar or touch  continue.",0,,5d946449f5241f0018fe2af2,42,2022-02-12_18h02.39.321,lexical_decision_task_DD_L6,2021.2.3,Win32,59.17159763,,,,,,,,,,,,,,,,,,,,,,,,,,,,,,,,,,,,,,,,,,,,,,,,,,,,,,,,,,,,,,,,,,,,,,,,,,,,,,,,,,,,,,
,0.047222236,-0.393518532,1,0,0,instr_done_button,0,1,1,1,1,2,instructions,"If your device has a keyboard, press the 'Z' key for nonwords and the 'M' key for words.





Press the space bar or touch the button below to continue.",0,keyboard-example.gif,5d946449f5241f0018fe2af2,42,2022-02-12_18h02.39.321,lexical_decision_task_DD_L6,2021.2.3,Win32,59.17159763,,,,,,,,,,,,,,,,,,,,,,,,,,,,,,,,,,,,,,,,,,,,,,,,,,,,,,,,,,,,,,,,,,,,,,,,,,,,,,,,,,,,,,
,0.047222236,-0.390740811,1,0,0,instr_done_button,0,2,2,2,1,3,instructions,"If you are using a touchscreen only device, use the buttons on the screen. Do not use the mouse.





Press the space bar or touch the button below to continue.",0,touchscreen-example.gif,5d946449f5241f0018fe2af2,42,2022-02-12_18h02.39.321,lexical_decision_task_DD_L6,2021.2.3,Win32,59.17159763,,,,,,,,,,,,,,,,,,,,,,,,,,,,,,,,,,,,,,,,,,,,,,,,,,,,,,,,,,,,,,,,,,,,,,,,,,,,,,,,,,,,,,
,0.047222236,-0.390740811,1,0,0,instr_done_button,0,3,3,3,1,4,instructions,"It is very important that you respond as quickly and accurately as possible, as each letter string will only be on the screen for two seconds. If you do not respond within this time, the message 'Too slow!' will be displayed and the experiment will progress to the next letter string. The first 20 trials will be practice trials and you will receive feedback on your answers. 

Press the space bar or touch the button below to start the practice trials.",0,,5d946449f5241f0018fe2af2,42,2022-02-12_18h02.39.321,lexical_decision_task_DD_L6,2021.2.3,Win32,59.17159763,,,,,,,,,,,,,,,,,,,,,,,,,,,,,,,,,,,,,,,,,,,,,,,,,,,,,,,,,,,,,,,,,,,,,,,,,,,,,,,,,,,,,,
,,,,,,,,,,,,,,,,,5d946449f5241f0018fe2af2,42,2022-02-12_18h02.39.321,lexical_decision_task_DD_L6,2021.2.3,Win32,59.17159763,,0,-0.322222214,-0.275925937,1,0,0,1.9198,button_left,1.9198,1,0,0,0,13,1,1001,ROUPET,z,,,,,,,,,,,,,,,,,,,,,,,,,,,,,,,,,,,,,,,,,,,,,,,,,,,,,,,,,,,,,,,,,,,
,,,,,,,,,,,,,,,,,5d946449f5241f0018fe2af2,42,2022-02-12_18h02.39.321,lexical_decision_task_DD_L6,2021.2.3,Win32,59.17159763,,0,-0.322222214,-0.275925937,1,0,0,1.3447,button_left,1.3447,1,0,1,1,8,1,1001,ASLERT,z,,,,,,,,,,,,,,,,,,,,,,,,,,,,,,,,,,,,,,,,,,,,,,,,,,,,,,,,,,,,,,,,,,,
,,,,,,,,,,,,,,,,,5d946449f5241f0018fe2af2,42,2022-02-12_18h02.39.321,lexical_decision_task_DD_L6,2021.2.3,Win32,59.17159763,,0,0.362037056,-0.304629642,1,0,0,1.5318,button_right,1.5318,1,0,2,2,5,1,1001,OBTAIN,m,,,,,,,,,,,,,,,,,,,,,,,,,,,,,,,,,,,,,,,,,,,,,,,,,,,,,,,,,,,,,,,,,,,
,,,,,,,,,,,,,,,,,5d946449f5241f0018fe2af2,42,2022-02-12_18h02.39.321,lexical_decision_task_DD_L6,2021.2.3,Win32,59.17159763,z,1,,,,,,,,1.1597,1,0,3,3,10,1,1001,INLADE,z,1.1597,,,,,,,,,,,,,,,,,,,,,,,,,,,,,,,,,,,,,,,,,,,,,,,,,,,,,,,,,,,,,,,,,,
,,,,,,,,,,,,,,,,,5d946449f5241f0018fe2af2,42,2022-02-12_18h02.39.321,lexical_decision_task_DD_L6,2021.2.3,Win32,59.17159763,m,1,,,,,,,,1.162,1,0,4,4,1,1,1001,ADJUST,m,1.162,,,,,,,,,,,,,,,,,,,,,,,,,,,,,,,,,,,,,,,,,,,,,,,,,,,,,,,,,,,,,,,,,,
,,,,,,,,,,,,,,,,,5d946449f5241f0018fe2af2,42,2022-02-12_18h02.39.321,lexical_decision_task_DD_L6,2021.2.3,Win32,59.17159763,z,1,,,,,,,,1.5796,1,0,5,5,12,1,1001,SPRINY,z,1.5796,,,,,,,,,,,,,,,,,,,,,,,,,,,,,,,,,,,,,,,,,,,,,,,,,,,,,,,,,,,,,,,,,,
,,,,,,,,,,,,,,,,,5d946449f5241f0018fe2af2,42,2022-02-12_18h02.39.321,lexical_decision_task_DD_L6,2021.2.3,Win32,59.17159763,m,1,,,,,,,,1.1725,1,0,6,6,3,1,1001,MATRIX,m,1.1725,,,,,,,,,,,,,,,,,,,,,,,,,,,,,,,,,,,,,,,,,,,,,,,,,,,,,,,,,,,,,,,,,,
,,,,,,,,,,,,,,,,,5d946449f5241f0018fe2af2,42,2022-02-12_18h02.39.321,lexical_decision_task_DD_L6,2021.2.3,Win32,59.17159763,m,1,,,,,,,,0.5266,1,0,7,7,4,1,1001,SQUEAK,m,0.5266,,,,,,,,,,,,,,,,,,,,,,,,,,,,,,,,,,,,,,,,,,,,,,,,,,,,,,,,,,,,,,,,,,
,,,,,,,,,,,,,,,,,5d946449f5241f0018fe2af2,42,2022-02-12_18h02.39.321,lexical_decision_task_DD_L6,2021.2.3,Win32,59.17159763,z,1,,,,,,,,0.7237,1,0,8,8,14,1,1001,THRALE,z,0.7237,,,,,,,,,,,,,,,,,,,,,,,,,,,,,,,,,,,,,,,,,,,,,,,,,,,,,,,,,,,,,,,,,,
,,,,,,,,,,,,,,,,,5d946449f5241f0018fe2af2,42,2022-02-12_18h02.39.321,lexical_decision_task_DD_L6,2021.2.3,Win32,59.17159763,z,1,,,,,,,,0.8932,1,0,9,9,11,1,1001,RASHET,z,0.8932,,,,,,,,,,,,,,,,,,,,,,,,,,,,,,,,,,,,,,,,,,,,,,,,,,,,,,,,,,,,,,,,,,
,,,,,,,,,,,,,,,,,5d946449f5241f0018fe2af2,42,2022-02-12_18h02.39.321,lexical_decision_task_DD_L6,2021.2.3,Win32,59.17159763,m,1,,,,,,,,0.6616,1,0,10,10,6,1,1001,ZOMBIE,m,0.6616,,,,,,,,,,,,,,,,,,,,,,,,,,,,,,,,,,,,,,,,,,,,,,,,,,,,,,,,,,,,,,,,,,
,,,,,,,,,,,,,,,,,5d946449f5241f0018fe2af2,42,2022-02-12_18h02.39.321,lexical_decision_task_DD_L6,2021.2.3,Win32,59.17159763,z,1,,,,,,,,0.7123,1,0,11,11,15,1,1001,WHAISE,z,0.7123,,,,,,,,,,,,,,,,,,,,,,,,,,,,,,,,,,,,,,,,,,,,,,,,,,,,,,,,,,,,,,,,,,
,,,,,,,,,,,,,,,,,5d946449f5241f0018fe2af2,42,2022-02-12_18h02.39.321,lexical_decision_task_DD_L6,2021.2.3,Win32,59.17159763,z,1,,,,,,,,0.5947,1,0,12,12,9,1,1001,FARINY,z,0.5947,,,,,,,,,,,,,,,,,,,,,,,,,,,,,,,,,,,,,,,,,,,,,,,,,,,,,,,,,,,,,,,,,,
,,,,,,,,,,,,,,,,,5d946449f5241f0018fe2af2,42,2022-02-12_18h02.39.321,lexical_decision_task_DD_L6,2021.2.3,Win32,59.17159763,m,1,,,,,,,,0.5992,1,0,13,13,0,1,1001,UTOPIA,m,0.5992,,,,,,,,,,,,,,,,,,,,,,,,,,,,,,,,,,,,,,,,,,,,,,,,,,,,,,,,,,,,,,,,,,
,,,,,,,,,,,,,,,,,5d946449f5241f0018fe2af2,42,2022-02-12_18h02.39.321,lexical_decision_task_DD_L6,2021.2.3,Win32,59.17159763,m,1,,,,,,,,0.6102,1,0,14,14,7,1,1001,VOLUME,m,0.6102,,,,,,,,,,,,,,,,,,,,,,,,,,,,,,,,,,,,,,,,,,,,,,,,,,,,,,,,,,,,,,,,,,
,,,,,,,,,,,,,,,,,5d946449f5241f0018fe2af2,42,2022-02-12_18h02.39.321,lexical_decision_task_DD_L6,2021.2.3,Win32,59.17159763,m,1,,,,,,,,0.5657,1,0,15,15,2,1,1001,ALMOND,m,0.5657,,,,,,,,,,,,,,,,,,,,,,,,,,,,,,,,,,,,,,,,,,,,,,,,,,,,,,,,,,,,,,,,,,
space,0.306481499,-0.319444457,0,0,0,,,,,,,1,end_of_practice,"You have completed the practice trials. During the experimental trials, you will not receive feedback. 
Before you begin, please ensure that you are in a comfortable and quiet location and will not be disturbed for about 15 minutes, as we cannot use your data if you do not complete all the trials. 
 When you are ready to start the experimental trials, please press space or touch the button below.",,,5d946449f5241f0018fe2af2,42,2022-02-12_18h02.39.321,lexical_decision_task_DD_L6,2021.2.3,Win32,59.17159763,,,,,,,,,,,,,,,,,,,,,28.4922,0,0,0,0,1,,,,,,,,,,,,,,,,,,,,,,,,,,,,,,,,,,,,,,,,,,,,,,,,,,,,,,,,,,,,
,,,,,,,,,,,,,,,,,5d946449f5241f0018fe2af2,42,2022-02-12_18h02.39.321,lexical_decision_task_DD_L6,2021.2.3,Win32,59.17159763,,,,,,,,,,1.0295,1,,,,,,,,,,,,,,,,m,1,1.0295,,,,,,,,0.306481499,-0.319444457,0,0,0,,0,0,0,53,1,POSTER,HB,m,m,./images/POSTERHB.png,,,,,,,,,,,,,,,,,,,,,,,,,,,,,,,,,,
,,,,,,,,,,,,,,,,,5d946449f5241f0018fe2af2,42,2022-02-12_18h02.39.321,lexical_decision_task_DD_L6,2021.2.3,Win32,59.17159763,,,,,,,,,,0.6119,1,,,,,,,,,,,,,,,,m,1,0.6119,,,,,,,,0.306481499,-0.319444457,0,0,0,,0,1,1,36,1,BOILER,LB,m,m,./images/BOILERLB.png,,,,,,,,,,,,,,,,,,,,,,,,,,,,,,,,,,
,,,,,,,,,,,,,,,,,5d946449f5241f0018fe2af2,42,2022-02-12_18h02.39.321,lexical_decision_task_DD_L6,2021.2.3,Win32,59.17159763,,,,,,,,,,0.5752,1,,,,,,,,,,,,,,,,m,1,0.5752,,,,,,,,0.306481499,-0.319444457,0,0,0,,0,2,2,73,1,GLOVE,C,m,m,./images/GLOVE.png,,,,,,,,,,,,,,,,,,,,,,,,,,,,,,,,,,
,,,,,,,,,,,,,,,,,5d946449f5241f0018fe2af2,42,2022-02-12_18h02.39.321,lexical_decision_task_DD_L6,2021.2.3,Win32,59.17159763,,,,,,,,,,1.0861,1,,,,,,,,,,,,,,,,z,1,1.0861,,,,,,,,0.306481499,-0.319444457,0,0,0,,0,3,3,154,1,THINT,HB,z,z,./images/THINTHB.png,,,,,,,,,,,,,,,,,,,,,,,,,,,,,,,,,,
,,,,,,,,,,,,,,,,,5d946449f5241f0018fe2af2,42,2022-02-12_18h02.39.321,lexical_decision_task_DD_L6,2021.2.3,Win32,59.17159763,,,,,,,,,,0.7343,0,,,,,,,,,,,,,,,,m,0,0.7343,,,,,,,,0.306481499,-0.319444457,0,0,0,,0,4,4,142,1,PLASK,HB,z,z,./images/PLASKHB.png,,,,,,,,,,,,,,,,,,,,,,,,,,,,,,,,,,
,,,,,,,,,,,,,,,,,5d946449f5241f0018fe2af2,42,2022-02-12_18h02.39.321,lexical_decision_task_DD_L6,2021.2.3,Win32,59.17159763,,,,,,,,,,0.9551,1,,,,,,,,,,,,,,,,z,1,0.9551,,,,,,,,0.306481499,-0.319444457,0,0,0,,0,5,5,115,1,MAWNS,HB,z,z,./images/MAWNSHB.png,,,,,,,,,,,,,,,,,,,,,,,,,,,,,,,,,,
,,,,,,,,,,,,,,,,,5d946449f5241f0018fe2af2,42,2022-02-12_18h02.39.321,lexical_decision_task_DD_L6,2021.2.3,Win32,59.17159763,,,,,,,,,,0.8899,0,,,,,,,,,,,,,,,,m,0,0.8899,,,,,,,,0.306481499,-0.319444457,0,0,0,,0,6,6,100,1,DRIBS,HB,z,z,./images/DRIBSHB.png,,,,,,,,,,,,,,,,,,,,,,,,,,,,,,,,,,
,,,,,,,,,,,,,,,,,5d946449f5241f0018fe2af2,42,2022-02-12_18h02.39.321,lexical_decision_task_DD_L6,2021.2.3,Win32,59.17159763,,,,,,,,,,0.9664,1,,,,,,,,,,,,,,,,z,1,0.9664,,,,,,,,0.306481499,-0.319444457,0,0,0,,0,7,7,118,1,BAVEL,HB,z,z,./images/BAVELHB.png,,,,,,,,,,,,,,,,,,,,,,,,,,,,,,,,,,
,,,,,,,,,,,,,,,,,5d946449f5241f0018fe2af2,42,2022-02-12_18h02.39.321,lexical_decision_task_DD_L6,2021.2.3,Win32,59.17159763,,,,,,,,,,0.5145,1,,,,,,,,,,,,,,,,m,1,0.5145,,,,,,,,0.306481499,-0.319444457,0,0,0,,0,8,8,37,1,TIGER,C,m,m,./images/TIGER.png,,,,,,,,,,,,,,,,,,,,,,,,,,,,,,,,,,
,,,,,,,,,,,,,,,,,5d946449f5241f0018fe2af2,42,2022-02-12_18h02.39.321,lexical_decision_task_DD_L6,2021.2.3,Win32,59.17159763,,,,,,,,,,0.5776,1,,,,,,,,,,,,,,,,m,1,0.5776,,,,,,,,0.306481499,-0.319444457,0,0,0,,0,9,9,28,1,CASINO,C,m,m,./images/CASINO.png,,,,,,,,,,,,,,,,,,,,,,,,,,,,,,,,,,
,,,,,,,,,,,,,,,,,5d946449f5241f0018fe2af2,42,2022-02-12_18h02.39.321,lexical_decision_task_DD_L6,2021.2.3,Win32,59.17159763,,,,,,,,,,0.8007,1,,,,,,,,,,,,,,,,z,1,0.8007,,,,,,,,0.306481499,-0.319444457,0,0,0,,0,10,10,124,1,TUNCH,HB,z,z,./images/TUNCHHB.png,,,,,,,,,,,,,,,,,,,,,,,,,,,,,,,,,,
,,,,,,,,,,,,,,,,,5d946449f5241f0018fe2af2,42,2022-02-12_18h02.39.321,lexical_decision_task_DD_L6,2021.2.3,Win32,59.17159763,,,,,,,,,,0.7488,1,,,,,,,,,,,,,,,,z,1,0.7488,,,,,,,,0.306481499,-0.319444457,0,0,0,,0,11,11,107,1,FASKS,LB,z,z,./images/FASKSLB.png,,,,,,,,,,,,,,,,,,,,,,,,,,,,,,,,,,
,,,,,,,,,,,,,,,,,5d946449f5241f0018fe2af2,42,2022-02-12_18h02.39.321,lexical_decision_task_DD_L6,2021.2.3,Win32,59.17159763,,,,,,,,,,0.6992,1,,,,,,,,,,,,,,,,z,1,0.6992,,,,,,,,0.306481499,-0.319444457,0,0,0,,0,12,12,92,1,PAIMS,LB,z,z,./images/PAIMSLB.png,,,,,,,,,,,,,,,,,,,,,,,,,,,,,,,,,,
,,,,,,,,,,,,,,,,,5d946449f5241f0018fe2af2,42,2022-02-12_18h02.39.321,lexical_decision_task_DD_L6,2021.2.3,Win32,59.17159763,,,,,,,,,,0.5087,1,,,,,,,,,,,,,,,,m,1,0.5087,,,,,,,,0.306481499,-0.319444457,0,0,0,,0,13,13,4,1,BOXER,C,m,m,./images/BOXER.png,,,,,,,,,,,,,,,,,,,,,,,,,,,,,,,,,,
,,,,,,,,,,,,,,,,,5d946449f5241f0018fe2af2,42,2022-02-12_18h02.39.321,lexical_decision_task_DD_L6,2021.2.3,Win32,59.17159763,,,,,,,,,,0.6562,1,,,,,,,,,,,,,,,,m,1,0.6562,,,,,,,,0.306481499,-0.319444457,0,0,0,,0,14,14,45,1,MONKEY,LB,m,m,./images/MONKEYLB.png,,,,,,,,,,,,,,,,,,,,,,,,,,,,,,,,,,
,,,,,,,,,,,,,,,,,5d946449f5241f0018fe2af2,42,2022-02-12_18h02.39.321,lexical_decision_task_DD_L6,2021.2.3,Win32,59.17159763,,,,,,,,,,0.6054,1,,,,,,,,,,,,,,,,z,1,0.6054,,,,,,,,0.306481499,-0.319444457,0,0,0,,0,15,15,108,1,GRUET,C,z,z,./images/GRUET.png,,,,,,,,,,,,,,,,,,,,,,,,,,,,,,,,,,
,,,,,,,,,,,,,,,,,5d946449f5241f0018fe2af2,42,2022-02-12_18h02.39.321,lexical_decision_task_DD_L6,2021.2.3,Win32,59.17159763,,,,,,,,,,0.847,0,,,,,,,,,,,,,,,,z,0,0.847,,,,,,,,0.306481499,-0.319444457,0,0,0,,0,16,16,38,1,ENGINE,HB,m,m,./images/ENGINEHB.png,,,,,,,,,,,,,,,,,,,,,,,,,,,,,,,,,,
,,,,,,,,,,,,,,,,,5d946449f5241f0018fe2af2,42,2022-02-12_18h02.39.321,lexical_decision_task_DD_L6,2021.2.3,Win32,59.17159763,,,,,,,,,,0.4726,1,,,,,,,,,,,,,,,,m,1,0.4726,,,,,,,,0.306481499,-0.319444457,0,0,0,,0,17,17,13,1,BUNNY,C,m,m,./images/BUNNY.png,,,,,,,,,,,,,,,,,,,,,,,,,,,,,,,,,,
,,,,,,,,,,,,,,,,,5d946449f5241f0018fe2af2,42,2022-02-12_18h02.39.321,lexical_decision_task_DD_L6,2021.2.3,Win32,59.17159763,,,,,,,,,,0.5763,1,,,,,,,,,,,,,,,,m,1,0.5763,,,,,,,,0.306481499,-0.319444457,0,0,0,,0,18,18,30,1,SLOPE,LB,m,m,./images/SLOPELB.png,,,,,,,,,,,,,,,,,,,,,,,,,,,,,,,,,,
,,,,,,,,,,,,,,,,,5d946449f5241f0018fe2af2,42,2022-02-12_18h02.39.321,lexical_decision_task_DD_L6,2021.2.3,Win32,59.17159763,,,,,,,,,,0.5487,1,,,,,,,,,,,,,,,,m,1,0.5487,,,,,,,,0.306481499,-0.319444457,0,0,0,,0,19,19,27,1,BUTTER,LB,m,m,./images/BUTTERLB.png,,,,,,,,,,,,,,,,,,,,,,,,,,,,,,,,,,
,,,,,,,,,,,,,,,,,5d946449f5241f0018fe2af2,42,2022-02-12_18h02.39.321,lexical_decision_task_DD_L6,2021.2.3,Win32,59.17159763,,,,,,,,,,0.6871,1,,,,,,,,,,,,,,,,z,1,0.6871,,,,,,,,0.306481499,-0.319444457,0,0,0,,0,20,20,109,1,BURGE,HB,z,z,./images/BURGEHB.png,,,,,,,,,,,,,,,,,,,,,,,,,,,,,,,,,,
,,,,,,,,,,,,,,,,,5d946449f5241f0018fe2af2,42,2022-02-12_18h02.39.321,lexical_decision_task_DD_L6,2021.2.3,Win32,59.17159763,,,,,,,,,,0.5576,1,,,,,,,,,,,,,,,,m,1,0.5576,,,,,,,,0.306481499,-0.319444457,0,0,0,,0,21,21,75,1,HAMMER,LB,m,m,./images/HAMMERLB.png,,,,,,,,,,,,,,,,,,,,,,,,,,,,,,,,,,
,,,,,,,,,,,,,,,,,5d946449f5241f0018fe2af2,42,2022-02-12_18h02.39.321,lexical_decision_task_DD_L6,2021.2.3,Win32,59.17159763,,,,,,,,,,0.6505,1,,,,,,,,,,,,,,,,z,1,0.6505,,,,,,,,0.306481499,-0.319444457,0,0,0,,0,22,22,157,1,INLER,HB,z,z,./images/INLERHB.png,,,,,,,,,,,,,,,,,,,,,,,,,,,,,,,,,,
,,,,,,,,,,,,,,,,,5d946449f5241f0018fe2af2,42,2022-02-12_18h02.39.321,lexical_decision_task_DD_L6,2021.2.3,Win32,59.17159763,,,,,,,,,,0.6918,1,,,,,,,,,,,,,,,,z,1,0.6918,,,,,,,,0.306481499,-0.319444457,0,0,0,,0,23,23,90,1,NEAST,C,z,z,./images/NEAST.png,,,,,,,,,,,,,,,,,,,,,,,,,,,,,,,,,,
,,,,,,,,,,,,,,,,,5d946449f5241f0018fe2af2,42,2022-02-12_18h02.39.321,lexical_decision_task_DD_L6,2021.2.3,Win32,59.17159763,,,,,,,,,,0.6866,1,,,,,,,,,,,,,,,,m,1,0.6866,,,,,,,,0.306481499,-0.319444457,0,0,0,,0,24,24,19,1,DONKEY,C,m,m,./images/DONKEY.png,,,,,,,,,,,,,,,,,,,,,,,,,,,,,,,,,,
,,,,,,,,,,,,,,,,,5d946449f5241f0018fe2af2,42,2022-02-12_18h02.39.321,lexical_decision_task_DD_L6,2021.2.3,Win32,59.17159763,,,,,,,,,,0.5886,1,,,,,,,,,,,,,,,,m,1,0.5886,,,,,,,,0.306481499,-0.319444457,0,0,0,,0,25,25,55,1,ALLEY,C,m,m,./images/ALLEY.png,,,,,,,,,,,,,,,,,,,,,,,,,,,,,,,,,,
,,,,,,,,,,,,,,,,,5d946449f5241f0018fe2af2,42,2022-02-12_18h02.39.321,lexical_decision_task_DD_L6,2021.2.3,Win32,59.17159763,,,,,,,,,,0.5804,1,,,,,,,,,,,,,,,,m,1,0.5804,,,,,,,,0.306481499,-0.319444457,0,0,0,,0,26,26,69,1,ARROW,LB,m,m,./images/ARROWLB.png,,,,,,,,,,,,,,,,,,,,,,,,,,,,,,,,,,
,,,,,,,,,,,,,,,,,5d946449f5241f0018fe2af2,42,2022-02-12_18h02.39.321,lexical_decision_task_DD_L6,2021.2.3,Win32,59.17159763,,,,,,,,,,0.6319,1,,,,,,,,,,,,,,,,z,1,0.6319,,,,,,,,0.306481499,-0.319444457,0,0,0,,0,27,27,93,1,SMONE,C,z,z,./images/SMONE.png,,,,,,,,,,,,,,,,,,,,,,,,,,,,,,,,,,
,,,,,,,,,,,,,,,,,5d946449f5241f0018fe2af2,42,2022-02-12_18h02.39.321,lexical_decision_task_DD_L6,2021.2.3,Win32,59.17159763,,,,,,,,,,0.6351,1,,,,,,,,,,,,,,,,z,1,0.6351,,,,,,,,0.306481499,-0.319444457,0,0,0,,0,28,28,141,1,PLEET,C,z,z,./images/PLEET.png,,,,,,,,,,,,,,,,,,,,,,,,,,,,,,,,,,
,,,,,,,,,,,,,,,,,5d946449f5241f0018fe2af2,42,2022-02-12_18h02.39.321,lexical_decision_task_DD_L6,2021.2.3,Win32,59.17159763,,,,,,,,,,0.6664,1,,,,,,,,,,,,,,,,m,1,0.6664,,,,,,,,0.306481499,-0.319444457,0,0,0,,0,29,29,42,1,CHAIN,LB,m,m,./images/CHAINLB.png,,,,,,,,,,,,,,,,,,,,,,,,,,,,,,,,,,
,,,,,,,,,,,,,,,,,5d946449f5241f0018fe2af2,42,2022-02-12_18h02.39.321,lexical_decision_task_DD_L6,2021.2.3,Win32,59.17159763,,,,,,,,,,0.6001,1,,,,,,,,,,,,,,,,m,1,0.6001,,,,,,,,0.306481499,-0.319444457,0,0,0,,0,30,30,10,1,GARDEN,C,m,m,./images/GARDEN.png,,,,,,,,,,,,,,,,,,,,,,,,,,,,,,,,,,
,,,,,,,,,,,,,,,,,5d946449f5241f0018fe2af2,42,2022-02-12_18h02.39.321,lexical_decision_task_DD_L6,2021.2.3,Win32,59.17159763,,,,,,,,,,0.798,1,,,,,,,,,,,,,,,,m,1,0.798,,,,,,,,0.306481499,-0.319444457,0,0,0,,0,31,31,14,1,FENCE,HB,m,m,./images/FENCEHB.png,,,,,,,,,,,,,,,,,,,,,,,,,,,,,,,,,,
,,,,,,,,,,,,,,,,,5d946449f5241f0018fe2af2,42,2022-02-12_18h02.39.321,lexical_decision_task_DD_L6,2021.2.3,Win32,59.17159763,,,,,,,,,,0.7278,1,,,,,,,,,,,,,,,,z,1,0.7278,,,,,,,,0.306481499,-0.319444457,0,0,0,,0,32,32,119,1,PAFER,LB,z,z,./images/PAFERLB.png,,,,,,,,,,,,,,,,,,,,,,,,,,,,,,,,,,
,,,,,,,,,,,,,,,,,5d946449f5241f0018fe2af2,42,2022-02-12_18h02.39.321,lexical_decision_task_DD_L6,2021.2.3,Win32,59.17159763,,,,,,,,,,0.6322,1,,,,,,,,,,,,,,,,z,1,0.6322,,,,,,,,0.306481499,-0.319444457,0,0,0,,0,33,33,132,1,SCIFF,C,z,z,./images/SCIFF.png,,,,,,,,,,,,,,,,,,,,,,,,,,,,,,,,,,
,,,,,,,,,,,,,,,,,5d946449f5241f0018fe2af2,42,2022-02-12_18h02.39.321,lexical_decision_task_DD_L6,2021.2.3,Win32,59.17159763,,,,,,,,,,0.9489,1,,,,,,,,,,,,,,,,z,1,0.9489,,,,,,,,0.306481499,-0.319444457,0,0,0,,0,34,34,128,1,GRIFT,LB,z,z,./images/GRIFTLB.png,,,,,,,,,,,,,,,,,,,,,,,,,,,,,,,,,,
,,,,,,,,,,,,,,,,,5d946449f5241f0018fe2af2,42,2022-02-12_18h02.39.321,lexical_decision_task_DD_L6,2021.2.3,Win32,59.17159763,,,,,,,,,,0.8991,1,,,,,,,,,,,,,,,,z,1,0.8991,,,,,,,,0.306481499,-0.319444457,0,0,0,,0,35,35,139,1,BLEAR,HB,z,z,./images/BLEARHB.png,,,,,,,,,,,,,,,,,,,,,,,,,,,,,,,,,,
,,,,,,,,,,,,,,,,,5d946449f5241f0018fe2af2,42,2022-02-12_18h02.39.321,lexical_decision_task_DD_L6,2021.2.3,Win32,59.17159763,,,,,,,,,,0.661,1,,,,,,,,,,,,,,,,z,1,0.661,,,,,,,,0.306481499,-0.319444457,0,0,0,,0,36,36,126,1,GUELS,C,z,z,./images/GUELS.png,,,,,,,,,,,,,,,,,,,,,,,,,,,,,,,,,,
,,,,,,,,,,,,,,,,,5d946449f5241f0018fe2af2,42,2022-02-12_18h02.39.321,lexical_decision_task_DD_L6,2021.2.3,Win32,59.17159763,,,,,,,,,,0.5993,1,,,,,,,,,,,,,,,,m,1,0.5993,,,,,,,,0.306481499,-0.319444457,0,0,0,,0,37,37,57,1,FERRY,LB,m,m,./images/FERRYLB.png,,,,,,,,,,,,,,,,,,,,,,,,,,,,,,,,,,
,,,,,,,,,,,,,,,,,5d946449f5241f0018fe2af2,42,2022-02-12_18h02.39.321,lexical_decision_task_DD_L6,2021.2.3,Win32,59.17159763,,,,,,,,,,0.7043,1,,,,,,,,,,,,,,,,z,1,0.7043,,,,,,,,0.306481499,-0.319444457,0,0,0,,0,38,38,117,1,STEEG,C,z,z,./images/STEEG.png,,,,,,,,,,,,,,,,,,,,,,,,,,,,,,,,,,
,,,,,,,,,,,,,,,,,5d946449f5241f0018fe2af2,42,2022-02-12_18h02.39.321,lexical_decision_task_DD_L6,2021.2.3,Win32,59.17159763,,,,,,,,,,0.6713,1,,,,,,,,,,,,,,,,z,1,0.6713,,,,,,,,0.306481499,-0.319444457,0,0,0,,0,39,39,167,1,ZONET,LB,z,z,./images/ZONETLB.png,,,,,,,,,,,,,,,,,,,,,,,,,,,,,,,,,,
,,,,,,,,,,,,,,,,,5d946449f5241f0018fe2af2,42,2022-02-12_18h02.39.321,lexical_decision_task_DD_L6,2021.2.3,Win32,59.17159763,,,,,,,,,,0.5857,1,,,,,,,,,,,,,,,,z,1,0.5857,,,,,,,,0.306481499,-0.319444457,0,0,0,,0,40,40,161,1,BLAPS,LB,z,z,./images/BLAPSLB.png,,,,,,,,,,,,,,,,,,,,,,,,,,,,,,,,,,
,,,,,,,,,,,,,,,,,5d946449f5241f0018fe2af2,42,2022-02-12_18h02.39.321,lexical_decision_task_DD_L6,2021.2.3,Win32,59.17159763,,,,,,,,,,0.581,1,,,,,,,,,,,,,,,,z,1,0.581,,,,,,,,0.306481499,-0.319444457,0,0,0,space,0,41,41,147,1,ZOLES,C,z,z,./images/ZOLES.png,15.4597,,,,,,,,,,,,,,,,,,,,,,,,,,,,,,,,,
,,,,,,,,,,,,,,,,,5d946449f5241f0018fe2af2,42,2022-02-12_18h02.39.321,lexical_decision_task_DD_L6,2021.2.3,Win32,59.17159763,,,,,,,,,,1.2333,1,,,,,,,,,,,,,,,,m,1,1.2333,,,,,,,,0.306481499,-0.319444457,0,0,0,,0,42,42,41,1,STREAM,HB,m,m,./images/STREAMHB.png,,,,,,,,,,,,,,,,,,,,,,,,,,,,,,,,,,
,,,,,,,,,,,,,,,,,5d946449f5241f0018fe2af2,42,2022-02-12_18h02.39.321,lexical_decision_task_DD_L6,2021.2.3,Win32,59.17159763,,,,,,,,,,0.6308,1,,,,,,,,,,,,,,,,m,1,0.6308,,,,,,,,0.306481499,-0.319444457,0,0,0,,0,43,43,12,1,BLOKE,LB,m,m,./images/BLOKELB.png,,,,,,,,,,,,,,,,,,,,,,,,,,,,,,,,,,
,,,,,,,,,,,,,,,,,5d946449f5241f0018fe2af2,42,2022-02-12_18h02.39.321,lexical_decision_task_DD_L6,2021.2.3,Win32,59.17159763,,,,,,,,,,0.6556,1,,,,,,,,,,,,,,,,z,1,0.6556,,,,,,,,0.306481499,-0.319444457,0,0,0,,0,44,44,86,1,AIFED,LB,z,z,./images/AIFEDLB.png,,,,,,,,,,,,,,,,,,,,,,,,,,,,,,,,,,
,,,,,,,,,,,,,,,,,5d946449f5241f0018fe2af2,42,2022-02-12_18h02.39.321,lexical_decision_task_DD_L6,2021.2.3,Win32,59.17159763,,,,,,,,,,0.8076,1,,,,,,,,,,,,,,,,z,1,0.8076,,,,,,,,0.306481499,-0.319444457,0,0,0,,0,45,45,121,1,CEERS,HB,z,z,./images/CEERSHB.png,,,,,,,,,,,,,,,,,,,,,,,,,,,,,,,,,,
,,,,,,,,,,,,,,,,,5d946449f5241f0018fe2af2,42,2022-02-12_18h02.39.321,lexical_decision_task_DD_L6,2021.2.3,Win32,59.17159763,,,,,,,,,,0.4928,1,,,,,,,,,,,,,,,,m,1,0.4928,,,,,,,,0.306481499,-0.319444457,0,0,0,,0,46,46,40,1,SNAKE,C,m,m,./images/SNAKE.png,,,,,,,,,,,,,,,,,,,,,,,,,,,,,,,,,,
,,,,,,,,,,,,,,,,,5d946449f5241f0018fe2af2,42,2022-02-12_18h02.39.321,lexical_decision_task_DD_L6,2021.2.3,Win32,59.17159763,,,,,,,,,,0.5648,1,,,,,,,,,,,,,,,,z,1,0.5648,,,,,,,,0.306481499,-0.319444457,0,0,0,,0,47,47,165,1,TROWN,C,z,z,./images/TROWN.png,,,,,,,,,,,,,,,,,,,,,,,,,,,,,,,,,,
,,,,,,,,,,,,,,,,,5d946449f5241f0018fe2af2,42,2022-02-12_18h02.39.321,lexical_decision_task_DD_L6,2021.2.3,Win32,59.17159763,,,,,,,,,,0.5994,1,,,,,,,,,,,,,,,,z,1,0.5994,,,,,,,,0.306481499,-0.319444457,0,0,0,,0,48,48,138,1,PLICE,C,z,z,./images/PLICE.png,,,,,,,,,,,,,,,,,,,,,,,,,,,,,,,,,,
,,,,,,,,,,,,,,,,,5d946449f5241f0018fe2af2,42,2022-02-12_18h02.39.321,lexical_decision_task_DD_L6,2021.2.3,Win32,59.17159763,,,,,,,,,,0.634,1,,,,,,,,,,,,,,,,z,1,0.634,,,,,,,,0.306481499,-0.319444457,0,0,0,,0,49,49,98,1,BAMPS,LB,z,z,./images/BAMPSLB.png,,,,,,,,,,,,,,,,,,,,,,,,,,,,,,,,,,
,,,,,,,,,,,,,,,,,5d946449f5241f0018fe2af2,42,2022-02-12_18h02.39.321,lexical_decision_task_DD_L6,2021.2.3,Win32,59.17159763,,,,,,,,,,0.7892,1,,,,,,,,,,,,,,,,z,1,0.7892,,,,,,,,0.306481499,-0.319444457,0,0,0,,0,50,50,104,1,GITTY,LB,z,z,./images/GITTYLB.png,,,,,,,,,,,,,,,,,,,,,,,,,,,,,,,,,,
,,,,,,,,,,,,,,,,,5d946449f5241f0018fe2af2,42,2022-02-12_18h02.39.321,lexical_decision_task_DD_L6,2021.2.3,Win32,59.17159763,,,,,,,,,,0.9669,1,,,,,,,,,,,,,,,,z,1,0.9669,,,,,,,,0.306481499,-0.319444457,0,0,0,,0,51,51,133,1,POWDY,HB,z,z,./images/POWDYHB.png,,,,,,,,,,,,,,,,,,,,,,,,,,,,,,,,,,
,,,,,,,,,,,,,,,,,5d946449f5241f0018fe2af2,42,2022-02-12_18h02.39.321,lexical_decision_task_DD_L6,2021.2.3,Win32,59.17159763,,,,,,,,,,0.5124,1,,,,,,,,,,,,,,,,m,1,0.5124,,,,,,,,0.306481499,-0.319444457,0,0,0,,0,52,52,52,1,DESERT,C,m,m,./images/DESERT.png,,,,,,,,,,,,,,,,,,,,,,,,,,,,,,,,,,
,,,,,,,,,,,,,,,,,5d946449f5241f0018fe2af2,42,2022-02-12_18h02.39.321,lexical_decision_task_DD_L6,2021.2.3,Win32,59.17159763,,,,,,,,,,0.6481,1,,,,,,,,,,,,,,,,m,1,0.6481,,,,,,,,0.306481499,-0.319444457,0,0,0,,0,53,53,34,1,RAZOR,C,m,m,./images/RAZOR.png,,,,,,,,,,,,,,,,,,,,,,,,,,,,,,,,,,
,,,,,,,,,,,,,,,,,5d946449f5241f0018fe2af2,42,2022-02-12_18h02.39.321,lexical_decision_task_DD_L6,2021.2.3,Win32,59.17159763,,,,,,,,,,0.5295,1,,,,,,,,,,,,,,,,z,1,0.5295,,,,,,,,0.306481499,-0.319444457,0,0,0,,0,54,54,135,1,JOODY,C,z,z,./images/JOODY.png,,,,,,,,,,,,,,,,,,,,,,,,,,,,,,,,,,
,,,,,,,,,,,,,,,,,5d946449f5241f0018fe2af2,42,2022-02-12_18h02.39.321,lexical_decision_task_DD_L6,2021.2.3,Win32,59.17159763,,,,,,,,,,0.7598,1,,,,,,,,,,,,,,,,z,1,0.7598,,,,,,,,0.306481499,-0.319444457,0,0,0,,0,55,55,145,1,LAMEL,HB,z,z,./images/LAMELHB.png,,,,,,,,,,,,,,,,,,,,,,,,,,,,,,,,,,
,,,,,,,,,,,,,,,,,5d946449f5241f0018fe2af2,42,2022-02-12_18h02.39.321,lexical_decision_task_DD_L6,2021.2.3,Win32,59.17159763,,,,,,,,,,1.3483,1,,,,,,,,,,,,,,,,m,1,1.3483,,,,,,,,0.306481499,-0.319444457,0,0,0,,0,56,56,20,1,GRANNY,HB,m,m,./images/GRANNYHB.png,,,,,,,,,,,,,,,,,,,,,,,,,,,,,,,,,,
,,,,,,,,,,,,,,,,,5d946449f5241f0018fe2af2,42,2022-02-12_18h02.39.321,lexical_decision_task_DD_L6,2021.2.3,Win32,59.17159763,,,,,,,,,,0.567,1,,,,,,,,,,,,,,,,m,1,0.567,,,,,,,,0.306481499,-0.319444457,0,0,0,,0,57,57,67,1,POKER,C,m,m,./images/POKER.png,,,,,,,,,,,,,,,,,,,,,,,,,,,,,,,,,,
,,,,,,,,,,,,,,,,,5d946449f5241f0018fe2af2,42,2022-02-12_18h02.39.321,lexical_decision_task_DD_L6,2021.2.3,Win32,59.17159763,,,,,,,,,,1.0544,1,,,,,,,,,,,,,,,,m,1,1.0544,,,,,,,,0.306481499,-0.319444457,0,0,0,,0,58,58,8,1,CLIFF,HB,m,m,./images/CLIFFHB.png,,,,,,,,,,,,,,,,,,,,,,,,,,,,,,,,,,
,,,,,,,,,,,,,,,,,5d946449f5241f0018fe2af2,42,2022-02-12_18h02.39.321,lexical_decision_task_DD_L6,2021.2.3,Win32,59.17159763,,,,,,,,,,0.9966,1,,,,,,,,,,,,,,,,m,1,0.9966,,,,,,,,0.306481499,-0.319444457,0,0,0,,0,59,59,71,1,BUBBLE,HB,m,m,./images/BUBBLEHB.png,,,,,,,,,,,,,,,,,,,,,,,,,,,,,,,,,,
,,,,,,,,,,,,,,,,,5d946449f5241f0018fe2af2,42,2022-02-12_18h02.39.321,lexical_decision_task_DD_L6,2021.2.3,Win32,59.17159763,,,,,,,,,,0.6378,1,,,,,,,,,,,,,,,,z,1,0.6378,,,,,,,,0.306481499,-0.319444457,0,0,0,,0,60,60,123,1,SEDGE,C,z,z,./images/SEDGE.png,,,,,,,,,,,,,,,,,,,,,,,,,,,,,,,,,,
,,,,,,,,,,,,,,,,,5d946449f5241f0018fe2af2,42,2022-02-12_18h02.39.321,lexical_decision_task_DD_L6,2021.2.3,Win32,59.17159763,,,,,,,,,,0.7716,1,,,,,,,,,,,,,,,,m,1,0.7716,,,,,,,,0.306481499,-0.319444457,0,0,0,,0,61,61,32,1,HOCKEY,HB,m,m,./images/HOCKEYHB.png,,,,,,,,,,,,,,,,,,,,,,,,,,,,,,,,,,
,,,,,,,,,,,,,,,,,5d946449f5241f0018fe2af2,42,2022-02-12_18h02.39.321,lexical_decision_task_DD_L6,2021.2.3,Win32,59.17159763,,,,,,,,,,0.9339,1,,,,,,,,,,,,,,,,m,1,0.9339,,,,,,,,0.306481499,-0.319444457,0,0,0,,0,62,62,50,1,PILOT,HB,m,m,./images/PILOTHB.png,,,,,,,,,,,,,,,,,,,,,,,,,,,,,,,,,,
,,,,,,,,,,,,,,,,,5d946449f5241f0018fe2af2,42,2022-02-12_18h02.39.321,lexical_decision_task_DD_L6,2021.2.3,Win32,59.17159763,,,,,,,,,,0.8341,1,,,,,,,,,,,,,,,,z,1,0.8341,,,,,,,,0.306481499,-0.319444457,0,0,0,,0,63,63,160,1,VEETS,HB,z,z,./images/VEETSHB.png,,,,,,,,,,,,,,,,,,,,,,,,,,,,,,,,,,
,,,,,,,,,,,,,,,,,5d946449f5241f0018fe2af2,42,2022-02-12_18h02.39.321,lexical_decision_task_DD_L6,2021.2.3,Win32,59.17159763,,,,,,,,,,0.7682,1,,,,,,,,,,,,,,,,z,1,0.7682,,,,,,,,0.306481499,-0.319444457,0,0,0,,0,64,64,125,1,MOOKY,LB,z,z,./images/MOOKYLB.png,,,,,,,,,,,,,,,,,,,,,,,,,,,,,,,,,,
,,,,,,,,,,,,,,,,,5d946449f5241f0018fe2af2,42,2022-02-12_18h02.39.321,lexical_decision_task_DD_L6,2021.2.3,Win32,59.17159763,,,,,,,,,,0.6212,1,,,,,,,,,,,,,,,,m,1,0.6212,,,,,,,,0.306481499,-0.319444457,0,0,0,,0,65,65,23,1,CLOTH,HB,m,m,./images/CLOTHHB.png,,,,,,,,,,,,,,,,,,,,,,,,,,,,,,,,,,
,,,,,,,,,,,,,,,,,5d946449f5241f0018fe2af2,42,2022-02-12_18h02.39.321,lexical_decision_task_DD_L6,2021.2.3,Win32,59.17159763,,,,,,,,,,0.5755,1,,,,,,,,,,,,,,,,m,1,0.5755,,,,,,,,0.306481499,-0.319444457,0,0,0,,0,66,66,76,1,MIDGET,C,m,m,./images/MIDGET.png,,,,,,,,,,,,,,,,,,,,,,,,,,,,,,,,,,
,,,,,,,,,,,,,,,,,5d946449f5241f0018fe2af2,42,2022-02-12_18h02.39.321,lexical_decision_task_DD_L6,2021.2.3,Win32,59.17159763,,,,,,,,,,0.8292,1,,,,,,,,,,,,,,,,m,1,0.8292,,,,,,,,0.306481499,-0.319444457,0,0,0,,0,67,67,2,1,STOVE,HB,m,m,./images/STOVEHB.png,,,,,,,,,,,,,,,,,,,,,,,,,,,,,,,,,,
,,,,,,,,,,,,,,,,,5d946449f5241f0018fe2af2,42,2022-02-12_18h02.39.321,lexical_decision_task_DD_L6,2021.2.3,Win32,59.17159763,,,,,,,,,,0.7733,1,,,,,,,,,,,,,,,,m,1,0.7733,,,,,,,,0.306481499,-0.319444457,0,0,0,,0,68,68,11,1,MEDAL,HB,m,m,./images/MEDALHB.png,,,,,,,,,,,,,,,,,,,,,,,,,,,,,,,,,,
,,,,,,,,,,,,,,,,,5d946449f5241f0018fe2af2,42,2022-02-12_18h02.39.321,lexical_decision_task_DD_L6,2021.2.3,Win32,59.17159763,,,,,,,,,,0.5122,1,,,,,,,,,,,,,,,,m,1,0.5122,,,,,,,,0.306481499,-0.319444457,0,0,0,,0,69,69,72,1,FLASK,LB,m,m,./images/FLASKLB.png,,,,,,,,,,,,,,,,,,,,,,,,,,,,,,,,,,
,,,,,,,,,,,,,,,,,5d946449f5241f0018fe2af2,42,2022-02-12_18h02.39.321,lexical_decision_task_DD_L6,2021.2.3,Win32,59.17159763,,,,,,,,,,1.0522,1,,,,,,,,,,,,,,,,z,1,1.0522,,,,,,,,0.306481499,-0.319444457,0,0,0,,0,70,70,106,1,CLUMS,HB,z,z,./images/CLUMSHB.png,,,,,,,,,,,,,,,,,,,,,,,,,,,,,,,,,,
,,,,,,,,,,,,,,,,,5d946449f5241f0018fe2af2,42,2022-02-12_18h02.39.321,lexical_decision_task_DD_L6,2021.2.3,Win32,59.17159763,,,,,,,,,,0.9115,1,,,,,,,,,,,,,,,,m,1,0.9115,,,,,,,,0.306481499,-0.319444457,0,0,0,,0,71,71,68,1,VALLEY,HB,m,m,./images/VALLEYHB.png,,,,,,,,,,,,,,,,,,,,,,,,,,,,,,,,,,
,,,,,,,,,,,,,,,,,5d946449f5241f0018fe2af2,42,2022-02-12_18h02.39.321,lexical_decision_task_DD_L6,2021.2.3,Win32,59.17159763,,,,,,,,,,0.5998,1,,,,,,,,,,,,,,,,z,1,0.5998,,,,,,,,0.306481499,-0.319444457,0,0,0,,0,72,72,150,1,NOOLS,C,z,z,./images/NOOLS.png,,,,,,,,,,,,,,,,,,,,,,,,,,,,,,,,,,
,,,,,,,,,,,,,,,,,5d946449f5241f0018fe2af2,42,2022-02-12_18h02.39.321,lexical_decision_task_DD_L6,2021.2.3,Win32,59.17159763,,,,,,,,,,1.1477,1,,,,,,,,,,,,,,,,z,1,1.1477,,,,,,,,0.306481499,-0.319444457,0,0,0,,0,73,73,148,1,JOMS,HB,z,z,./images/JOMSHB.png,,,,,,,,,,,,,,,,,,,,,,,,,,,,,,,,,,
,,,,,,,,,,,,,,,,,5d946449f5241f0018fe2af2,42,2022-02-12_18h02.39.321,lexical_decision_task_DD_L6,2021.2.3,Win32,59.17159763,,,,,,,,,,0.5004,1,,,,,,,,,,,,,,,,m,1,0.5004,,,,,,,,0.306481499,-0.319444457,0,0,0,,0,74,74,49,1,BISHOP,C,m,m,./images/BISHOP.png,,,,,,,,,,,,,,,,,,,,,,,,,,,,,,,,,,
,,,,,,,,,,,,,,,,,5d946449f5241f0018fe2af2,42,2022-02-12_18h02.39.321,lexical_decision_task_DD_L6,2021.2.3,Win32,59.17159763,,,,,,,,,,0.544,1,,,,,,,,,,,,,,,,m,1,0.544,,,,,,,,0.306481499,-0.319444457,0,0,0,,0,75,75,61,1,ARTIST,C,m,m,./images/ARTIST.png,,,,,,,,,,,,,,,,,,,,,,,,,,,,,,,,,,
,,,,,,,,,,,,,,,,,5d946449f5241f0018fe2af2,42,2022-02-12_18h02.39.321,lexical_decision_task_DD_L6,2021.2.3,Win32,59.17159763,,,,,,,,,,0.6243,1,,,,,,,,,,,,,,,,z,1,0.6243,,,,,,,,0.306481499,-0.319444457,0,0,0,,0,76,76,143,1,MONGS,LB,z,z,./images/MONGSLB.png,,,,,,,,,,,,,,,,,,,,,,,,,,,,,,,,,,
,,,,,,,,,,,,,,,,,5d946449f5241f0018fe2af2,42,2022-02-12_18h02.39.321,lexical_decision_task_DD_L6,2021.2.3,Win32,59.17159763,,,,,,,,,,0.5512,1,,,,,,,,,,,,,,,,z,1,0.5512,,,,,,,,0.306481499,-0.319444457,0,0,0,,0,77,77,84,1,HAXES,C,z,z,./images/HAXES.png,,,,,,,,,,,,,,,,,,,,,,,,,,,,,,,,,,
,,,,,,,,,,,,,,,,,5d946449f5241f0018fe2af2,42,2022-02-12_18h02.39.321,lexical_decision_task_DD_L6,2021.2.3,Win32,59.17159763,,,,,,,,,,0.5789,1,,,,,,,,,,,,,,,,z,1,0.5789,,,,,,,,0.306481499,-0.319444457,0,0,0,,0,78,78,102,1,DULLE,C,z,z,./images/DULLE.png,,,,,,,,,,,,,,,,,,,,,,,,,,,,,,,,,,
,,,,,,,,,,,,,,,,,5d946449f5241f0018fe2af2,42,2022-02-12_18h02.39.321,lexical_decision_task_DD_L6,2021.2.3,Win32,59.17159763,,,,,,,,,,1.1902,1,,,,,,,,,,,,,,,,z,1,1.1902,,,,,,,,0.306481499,-0.319444457,0,0,0,,0,79,79,164,1,SGREW,LB,z,z,./images/SGREWLB.png,,,,,,,,,,,,,,,,,,,,,,,,,,,,,,,,,,
,,,,,,,,,,,,,,,,,5d946449f5241f0018fe2af2,42,2022-02-12_18h02.39.321,lexical_decision_task_DD_L6,2021.2.3,Win32,59.17159763,,,,,,,,,,1.238,0,,,,,,,,,,,,,,,,m,0,1.238,,,,,,,,0.306481499,-0.319444457,0,0,0,,0,80,80,120,1,RINED,C,z,z,./images/RINED.png,,,,,,,,,,,,,,,,,,,,,,,,,,,,,,,,,,
,,,,,,,,,,,,,,,,,5d946449f5241f0018fe2af2,42,2022-02-12_18h02.39.321,lexical_decision_task_DD_L6,2021.2.3,Win32,59.17159763,,,,,,,,,,1.2008,1,,,,,,,,,,,,,,,,z,1,1.2008,,,,,,,,0.306481499,-0.319444457,0,0,0,,0,81,81,103,1,FLORT,HB,z,z,./images/FLORTHB.png,,,,,,,,,,,,,,,,,,,,,,,,,,,,,,,,,,
,,,,,,,,,,,,,,,,,5d946449f5241f0018fe2af2,42,2022-02-12_18h02.39.321,lexical_decision_task_DD_L6,2021.2.3,Win32,59.17159763,,,,,,,,,,0.6721,1,,,,,,,,,,,,,,,,z,1,0.6721,,,,,,,,0.306481499,-0.319444457,0,0,0,,0,82,82,122,1,BLOOT,LB,z,z,./images/BLOOTLB.png,,,,,,,,,,,,,,,,,,,,,,,,,,,,,,,,,,
,,,,,,,,,,,,,,,,,5d946449f5241f0018fe2af2,42,2022-02-12_18h02.39.321,lexical_decision_task_DD_L6,2021.2.3,Win32,59.17159763,,,,,,,,,,0.6273,1,,,,,,,,,,,,,,,,z,1,0.6273,,,,,,,,0.306481499,-0.319444457,0,0,0,space,0,83,83,137,1,JOOST,LB,z,z,./images/JOOSTLB.png,2.9817,,,,,,,,,,,,,,,,,,,,,,,,,,,,,,,,,
,,,,,,,,,,,,,,,,,5d946449f5241f0018fe2af2,42,2022-02-12_18h02.39.321,lexical_decision_task_DD_L6,2021.2.3,Win32,59.17159763,,,,,,,,,,0.8513,1,,,,,,,,,,,,,,,,m,1,0.8513,,,,,,,,0.306481499,-0.319444457,0,0,0,,0,84,84,56,1,HEATER,HB,m,m,./images/HEATERHB.png,,,,,,,,,,,,,,,,,,,,,,,,,,,,,,,,,,
,,,,,,,,,,,,,,,,,5d946449f5241f0018fe2af2,42,2022-02-12_18h02.39.321,lexical_decision_task_DD_L6,2021.2.3,Win32,59.17159763,,,,,,,,,,0.5176,1,,,,,,,,,,,,,,,,m,1,0.5176,,,,,,,,0.306481499,-0.319444457,0,0,0,,0,85,85,66,1,STATUE,LB,m,m,./images/STATUELB.png,,,,,,,,,,,,,,,,,,,,,,,,,,,,,,,,,,
,,,,,,,,,,,,,,,,,5d946449f5241f0018fe2af2,42,2022-02-12_18h02.39.321,lexical_decision_task_DD_L6,2021.2.3,Win32,59.17159763,,,,,,,,,,0.5371,1,,,,,,,,,,,,,,,,z,1,0.5371,,,,,,,,0.306481499,-0.319444457,0,0,0,,0,86,86,144,1,NAIRY,C,z,z,./images/NAIRY.png,,,,,,,,,,,,,,,,,,,,,,,,,,,,,,,,,,
,,,,,,,,,,,,,,,,,5d946449f5241f0018fe2af2,42,2022-02-12_18h02.39.321,lexical_decision_task_DD_L6,2021.2.3,Win32,59.17159763,,,,,,,,,,0.6275,1,,,,,,,,,,,,,,,,m,1,0.6275,,,,,,,,0.306481499,-0.319444457,0,0,0,,0,87,87,31,1,STEAK,C,m,m,./images/STEAK.png,,,,,,,,,,,,,,,,,,,,,,,,,,,,,,,,,,
,,,,,,,,,,,,,,,,,5d946449f5241f0018fe2af2,42,2022-02-12_18h02.39.321,lexical_decision_task_DD_L6,2021.2.3,Win32,59.17159763,,,,,,,,,,0.6545,1,,,,,,,,,,,,,,,,z,1,0.6545,,,,,,,,0.306481499,-0.319444457,0,0,0,,0,88,88,158,1,EGECT,LB,z,z,./images/EGECTLB.png,,,,,,,,,,,,,,,,,,,,,,,,,,,,,,,,,,
,,,,,,,,,,,,,,,,,5d946449f5241f0018fe2af2,42,2022-02-12_18h02.39.321,lexical_decision_task_DD_L6,2021.2.3,Win32,59.17159763,,,,,,,,,,0.5864,1,,,,,,,,,,,,,,,,z,1,0.5864,,,,,,,,0.306481499,-0.319444457,0,0,0,,0,89,89,156,1,HIXES,C,z,z,./images/HIXES.png,,,,,,,,,,,,,,,,,,,,,,,,,,,,,,,,,,
,,,,,,,,,,,,,,,,,5d946449f5241f0018fe2af2,42,2022-02-12_18h02.39.321,lexical_decision_task_DD_L6,2021.2.3,Win32,59.17159763,,,,,,,,,,1.1663,1,,,,,,,,,,,,,,,,z,1,1.1663,,,,,,,,0.306481499,-0.319444457,0,0,0,,0,90,90,85,1,CHULK,HB,z,z,./images/CHULKHB.png,,,,,,,,,,,,,,,,,,,,,,,,,,,,,,,,,,
,,,,,,,,,,,,,,,,,5d946449f5241f0018fe2af2,42,2022-02-12_18h02.39.321,lexical_decision_task_DD_L6,2021.2.3,Win32,59.17159763,,,,,,,,,,1.2235,1,,,,,,,,,,,,,,,,m,1,1.2235,,,,,,,,0.306481499,-0.319444457,0,0,0,,0,91,91,44,1,BASKET,HB,m,m,./images/BASKETHB.png,,,,,,,,,,,,,,,,,,,,,,,,,,,,,,,,,,
,,,,,,,,,,,,,,,,,5d946449f5241f0018fe2af2,42,2022-02-12_18h02.39.321,lexical_decision_task_DD_L6,2021.2.3,Win32,59.17159763,,,,,,,,,,0.6687,1,,,,,,,,,,,,,,,,z,1,0.6687,,,,,,,,0.306481499,-0.319444457,0,0,0,,0,92,92,116,1,BALGY,LB,z,z,./images/BALGYLB.png,,,,,,,,,,,,,,,,,,,,,,,,,,,,,,,,,,
,,,,,,,,,,,,,,,,,5d946449f5241f0018fe2af2,42,2022-02-12_18h02.39.321,lexical_decision_task_DD_L6,2021.2.3,Win32,59.17159763,,,,,,,,,,0.7301,1,,,,,,,,,,,,,,,,m,1,0.7301,,,,,,,,0.306481499,-0.319444457,0,0,0,,0,93,93,35,1,LLAMA,HB,m,m,./images/LLAMAHB.png,,,,,,,,,,,,,,,,,,,,,,,,,,,,,,,,,,
,,,,,,,,,,,,,,,,,5d946449f5241f0018fe2af2,42,2022-02-12_18h02.39.321,lexical_decision_task_DD_L6,2021.2.3,Win32,59.17159763,,,,,,,,,,0.7003,1,,,,,,,,,,,,,,,,z,1,0.7003,,,,,,,,0.306481499,-0.319444457,0,0,0,,0,94,94,152,1,FRAIN,LB,z,z,./images/FRAINLB.png,,,,,,,,,,,,,,,,,,,,,,,,,,,,,,,,,,
,,,,,,,,,,,,,,,,,5d946449f5241f0018fe2af2,42,2022-02-12_18h02.39.321,lexical_decision_task_DD_L6,2021.2.3,Win32,59.17159763,,,,,,,,,,0.5864,1,,,,,,,,,,,,,,,,m,1,0.5864,,,,,,,,0.306481499,-0.319444457,0,0,0,,0,95,95,43,1,STOOL,C,m,m,./images/STOOL.png,,,,,,,,,,,,,,,,,,,,,,,,,,,,,,,,,,
,,,,,,,,,,,,,,,,,5d946449f5241f0018fe2af2,42,2022-02-12_18h02.39.321,lexical_decision_task_DD_L6,2021.2.3,Win32,59.17159763,,,,,,,,,,0.6064,1,,,,,,,,,,,,,,,,m,1,0.6064,,,,,,,,0.306481499,-0.319444457,0,0,0,,0,96,96,18,1,PARCEL,LB,m,m,./images/PARCELLB.png,,,,,,,,,,,,,,,,,,,,,,,,,,,,,,,,,,
,,,,,,,,,,,,,,,,,5d946449f5241f0018fe2af2,42,2022-02-12_18h02.39.321,lexical_decision_task_DD_L6,2021.2.3,Win32,59.17159763,,,,,,,,,,1.3034,1,,,,,,,,,,,,,,,,z,1,1.3034,,,,,,,,0.306481499,-0.319444457,0,0,0,,0,97,97,97,1,CHIDS,HB,z,z,./images/CHIDSHB.png,,,,,,,,,,,,,,,,,,,,,,,,,,,,,,,,,,
,,,,,,,,,,,,,,,,,5d946449f5241f0018fe2af2,42,2022-02-12_18h02.39.321,lexical_decision_task_DD_L6,2021.2.3,Win32,59.17159763,,,,,,,,,,0.7327,1,,,,,,,,,,,,,,,,m,1,0.7327,,,,,,,,0.306481499,-0.319444457,0,0,0,,0,98,98,21,1,DANCER,LB,m,m,./images/DANCERLB.png,,,,,,,,,,,,,,,,,,,,,,,,,,,,,,,,,,
,,,,,,,,,,,,,,,,,5d946449f5241f0018fe2af2,42,2022-02-12_18h02.39.321,lexical_decision_task_DD_L6,2021.2.3,Win32,59.17159763,,,,,,,,,,0.8326,1,,,,,,,,,,,,,,,,m,1,0.8326,,,,,,,,0.306481499,-0.319444457,0,0,0,,0,99,99,62,1,MAMMAL,HB,m,m,./images/MAMMALHB.png,,,,,,,,,,,,,,,,,,,,,,,,,,,,,,,,,,
,,,,,,,,,,,,,,,,,5d946449f5241f0018fe2af2,42,2022-02-12_18h02.39.321,lexical_decision_task_DD_L6,2021.2.3,Win32,59.17159763,,,,,,,,,,0.586,1,,,,,,,,,,,,,,,,m,1,0.586,,,,,,,,0.306481499,-0.319444457,0,0,0,,0,100,100,58,1,CANOE,C,m,m,./images/CANOE.png,,,,,,,,,,,,,,,,,,,,,,,,,,,,,,,,,,
,,,,,,,,,,,,,,,,,5d946449f5241f0018fe2af2,42,2022-02-12_18h02.39.321,lexical_decision_task_DD_L6,2021.2.3,Win32,59.17159763,,,,,,,,,,0.7304,1,,,,,,,,,,,,,,,,m,1,0.7304,,,,,,,,0.306481499,-0.319444457,0,0,0,,0,101,101,29,1,PISTOL,HB,m,m,./images/PISTOLHB.png,,,,,,,,,,,,,,,,,,,,,,,,,,,,,,,,,,
,,,,,,,,,,,,,,,,,5d946449f5241f0018fe2af2,42,2022-02-12_18h02.39.321,lexical_decision_task_DD_L6,2021.2.3,Win32,59.17159763,,,,,,,,,,0.5555,1,,,,,,,,,,,,,,,,m,1,0.5555,,,,,,,,0.306481499,-0.319444457,0,0,0,,0,102,102,63,1,BAKER,LB,m,m,./images/BAKERLB.png,,,,,,,,,,,,,,,,,,,,,,,,,,,,,,,,,,
,,,,,,,,,,,,,,,,,5d946449f5241f0018fe2af2,42,2022-02-12_18h02.39.321,lexical_decision_task_DD_L6,2021.2.3,Win32,59.17159763,,,,,,,,,,0.5316,1,,,,,,,,,,,,,,,,m,1,0.5316,,,,,,,,0.306481499,-0.319444457,0,0,0,,0,103,103,48,1,SHIELD,LB,m,m,./images/SHIELDLB.png,,,,,,,,,,,,,,,,,,,,,,,,,,,,,,,,,,
,,,,,,,,,,,,,,,,,5d946449f5241f0018fe2af2,42,2022-02-12_18h02.39.321,lexical_decision_task_DD_L6,2021.2.3,Win32,59.17159763,,,,,,,,,,0.8952,1,,,,,,,,,,,,,,,,m,1,0.8952,,,,,,,,0.306481499,-0.319444457,0,0,0,,0,104,104,17,1,PARADE,HB,m,m,./images/PARADEHB.png,,,,,,,,,,,,,,,,,,,,,,,,,,,,,,,,,,
,,,,,,,,,,,,,,,,,5d946449f5241f0018fe2af2,42,2022-02-12_18h02.39.321,lexical_decision_task_DD_L6,2021.2.3,Win32,59.17159763,,,,,,,,,,0.5465,1,,,,,,,,,,,,,,,,m,1,0.5465,,,,,,,,0.306481499,-0.319444457,0,0,0,,0,105,105,51,1,SAUCE,LB,m,m,./images/SAUCELB.png,,,,,,,,,,,,,,,,,,,,,,,,,,,,,,,,,,
,,,,,,,,,,,,,,,,,5d946449f5241f0018fe2af2,42,2022-02-12_18h02.39.321,lexical_decision_task_DD_L6,2021.2.3,Win32,59.17159763,,,,,,,,,,0.8462,1,,,,,,,,,,,,,,,,z,1,0.8462,,,,,,,,0.306481499,-0.319444457,0,0,0,,0,106,106,94,1,BLANS,HB,z,z,./images/BLANSHB.png,,,,,,,,,,,,,,,,,,,,,,,,,,,,,,,,,,
,,,,,,,,,,,,,,,,,5d946449f5241f0018fe2af2,42,2022-02-12_18h02.39.321,lexical_decision_task_DD_L6,2021.2.3,Win32,59.17159763,,,,,,,,,,0.9241,1,,,,,,,,,,,,,,,,z,1,0.9241,,,,,,,,0.306481499,-0.319444457,0,0,0,,0,107,107,130,1,CRILL,HB,z,z,./images/CRILLHB.png,,,,,,,,,,,,,,,,,,,,,,,,,,,,,,,,,,
,,,,,,,,,,,,,,,,,5d946449f5241f0018fe2af2,42,2022-02-12_18h02.39.321,lexical_decision_task_DD_L6,2021.2.3,Win32,59.17159763,,,,,,,,,,1.2309,1,,,,,,,,,,,,,,,,z,1,1.2309,,,,,,,,0.306481499,-0.319444457,0,0,0,,0,108,108,127,1,NINDY,HB,z,z,./images/NINDYHB.png,,,,,,,,,,,,,,,,,,,,,,,,,,,,,,,,,,
,,,,,,,,,,,,,,,,,5d946449f5241f0018fe2af2,42,2022-02-12_18h02.39.321,lexical_decision_task_DD_L6,2021.2.3,Win32,59.17159763,,,,,,,,,,0.5242,1,,,,,,,,,,,,,,,,m,1,0.5242,,,,,,,,0.306481499,-0.319444457,0,0,0,,0,109,109,82,1,PEBBLE,C,m,m,./images/PEBBLE.png,,,,,,,,,,,,,,,,,,,,,,,,,,,,,,,,,,
,,,,,,,,,,,,,,,,,5d946449f5241f0018fe2af2,42,2022-02-12_18h02.39.321,lexical_decision_task_DD_L6,2021.2.3,Win32,59.17159763,,,,,,,,,,0.5455,1,,,,,,,,,,,,,,,,z,1,0.5455,,,,,,,,0.306481499,-0.319444457,0,0,0,,0,110,110,87,1,TRING,C,z,z,./images/TRING.png,,,,,,,,,,,,,,,,,,,,,,,,,,,,,,,,,,
,,,,,,,,,,,,,,,,,5d946449f5241f0018fe2af2,42,2022-02-12_18h02.39.321,lexical_decision_task_DD_L6,2021.2.3,Win32,59.17159763,,,,,,,,,,0.634,1,,,,,,,,,,,,,,,,z,1,0.634,,,,,,,,0.306481499,-0.319444457,0,0,0,,0,111,111,111,1,HOSSE,C,z,z,./images/HOSSE.png,,,,,,,,,,,,,,,,,,,,,,,,,,,,,,,,,,
,,,,,,,,,,,,,,,,,5d946449f5241f0018fe2af2,42,2022-02-12_18h02.39.321,lexical_decision_task_DD_L6,2021.2.3,Win32,59.17159763,,,,,,,,,,0.6475,1,,,,,,,,,,,,,,,,m,1,0.6475,,,,,,,,0.306481499,-0.319444457,0,0,0,,0,112,112,77,1,WHEEL,HB,m,m,./images/WHEELHB.png,,,,,,,,,,,,,,,,,,,,,,,,,,,,,,,,,,
,,,,,,,,,,,,,,,,,5d946449f5241f0018fe2af2,42,2022-02-12_18h02.39.321,lexical_decision_task_DD_L6,2021.2.3,Win32,59.17159763,,,,,,,,,,0.5258,0,,,,,,,,,,,,,,,,m,0,0.5258,,,,,,,,0.306481499,-0.319444457,0,0,0,,0,113,113,110,1,CRUNK,LB,z,z,./images/CRUNKLB.png,,,,,,,,,,,,,,,,,,,,,,,,,,,,,,,,,,
,,,,,,,,,,,,,,,,,5d946449f5241f0018fe2af2,42,2022-02-12_18h02.39.321,lexical_decision_task_DD_L6,2021.2.3,Win32,59.17159763,,,,,,,,,,0.6571,1,,,,,,,,,,,,,,,,m,1,0.6571,,,,,,,,0.306481499,-0.319444457,0,0,0,,0,114,114,6,1,STAIN,LB,m,m,./images/STAINLB.png,,,,,,,,,,,,,,,,,,,,,,,,,,,,,,,,,,
,,,,,,,,,,,,,,,,,5d946449f5241f0018fe2af2,42,2022-02-12_18h02.39.321,lexical_decision_task_DD_L6,2021.2.3,Win32,59.17159763,,,,,,,,,,0.5802,1,,,,,,,,,,,,,,,,m,1,0.5802,,,,,,,,0.306481499,-0.319444457,0,0,0,,0,115,115,15,1,COLLAR,LB,m,m,./images/COLLARLB.png,,,,,,,,,,,,,,,,,,,,,,,,,,,,,,,,,,
,,,,,,,,,,,,,,,,,5d946449f5241f0018fe2af2,42,2022-02-12_18h02.39.321,lexical_decision_task_DD_L6,2021.2.3,Win32,59.17159763,,,,,,,,,,0.6333,1,,,,,,,,,,,,,,,,m,1,0.6333,,,,,,,,0.306481499,-0.319444457,0,0,0,,0,116,116,9,1,DIVER,LB,m,m,./images/DIVERLB.png,,,,,,,,,,,,,,,,,,,,,,,,,,,,,,,,,,
,,,,,,,,,,,,,,,,,5d946449f5241f0018fe2af2,42,2022-02-12_18h02.39.321,lexical_decision_task_DD_L6,2021.2.3,Win32,59.17159763,,,,,,,,,,0.6157,1,,,,,,,,,,,,,,,,m,1,0.6157,,,,,,,,0.306481499,-0.319444457,0,0,0,,0,117,117,22,1,CLOWN,C,m,m,./images/CLOWN.png,,,,,,,,,,,,,,,,,,,,,,,,,,,,,,,,,,
,,,,,,,,,,,,,,,,,5d946449f5241f0018fe2af2,42,2022-02-12_18h02.39.321,lexical_decision_task_DD_L6,2021.2.3,Win32,59.17159763,,,,,,,,,,0.6037,1,,,,,,,,,,,,,,,,z,1,0.6037,,,,,,,,0.306481499,-0.319444457,0,0,0,,0,118,118,105,1,MOKER,C,z,z,./images/MOKER.png,,,,,,,,,,,,,,,,,,,,,,,,,,,,,,,,,,
,,,,,,,,,,,,,,,,,5d946449f5241f0018fe2af2,42,2022-02-12_18h02.39.321,lexical_decision_task_DD_L6,2021.2.3,Win32,59.17159763,,,,,,,,,,0.6658,1,,,,,,,,,,,,,,,,m,1,0.6658,,,,,,,,0.306481499,-0.319444457,0,0,0,,0,119,119,60,1,CURRY,LB,m,m,./images/CURRYLB.png,,,,,,,,,,,,,,,,,,,,,,,,,,,,,,,,,,
,,,,,,,,,,,,,,,,,5d946449f5241f0018fe2af2,42,2022-02-12_18h02.39.321,lexical_decision_task_DD_L6,2021.2.3,Win32,59.17159763,,,,,,,,,,0.6605,1,,,,,,,,,,,,,,,,z,1,0.6605,,,,,,,,0.306481499,-0.319444457,0,0,0,,0,120,120,131,1,NACES,LB,z,z,./images/NACESLB.png,,,,,,,,,,,,,,,,,,,,,,,,,,,,,,,,,,
,,,,,,,,,,,,,,,,,5d946449f5241f0018fe2af2,42,2022-02-12_18h02.39.321,lexical_decision_task_DD_L6,2021.2.3,Win32,59.17159763,,,,,,,,,,0.6844,1,,,,,,,,,,,,,,,,m,1,0.6844,,,,,,,,0.306481499,-0.319444457,0,0,0,,0,121,121,33,1,SAUNA,LB,m,m,./images/SAUNALB.png,,,,,,,,,,,,,,,,,,,,,,,,,,,,,,,,,,
,,,,,,,,,,,,,,,,,5d946449f5241f0018fe2af2,42,2022-02-12_18h02.39.321,lexical_decision_task_DD_L6,2021.2.3,Win32,59.17159763,,,,,,,,,,0.5875,1,,,,,,,,,,,,,,,,m,1,0.5875,,,,,,,,0.306481499,-0.319444457,0,0,0,,0,122,122,81,1,DRILL,LB,m,m,./images/DRILLLB.png,,,,,,,,,,,,,,,,,,,,,,,,,,,,,,,,,,
,,,,,,,,,,,,,,,,,5d946449f5241f0018fe2af2,42,2022-02-12_18h02.39.321,lexical_decision_task_DD_L6,2021.2.3,Win32,59.17159763,,,,,,,,,,0.5981,1,,,,,,,,,,,,,,,,m,1,0.5981,,,,,,,,0.306481499,-0.319444457,0,0,0,,0,123,123,16,1,GRAPE,C,m,m,./images/GRAPE.png,,,,,,,,,,,,,,,,,,,,,,,,,,,,,,,,,,
,,,,,,,,,,,,,,,,,5d946449f5241f0018fe2af2,42,2022-02-12_18h02.39.321,lexical_decision_task_DD_L6,2021.2.3,Win32,59.17159763,,,,,,,,,,0.843,1,,,,,,,,,,,,,,,,z,1,0.843,,,,,,,,0.306481499,-0.319444457,0,0,0,,0,124,124,91,1,SHENS,HB,z,z,./images/SHENSHB.png,,,,,,,,,,,,,,,,,,,,,,,,,,,,,,,,,,
,,,,,,,,,,,,,,,,,5d946449f5241f0018fe2af2,42,2022-02-12_18h02.39.321,lexical_decision_task_DD_L6,2021.2.3,Win32,59.17159763,,,,,,,,,,0.8128,1,,,,,,,,,,,,,,,,z,1,0.8128,,,,,,,,0.306481499,-0.319444457,0,0,0,space,0,125,125,113,1,LINEW,LB,z,z,./images/LINEWLB.png,1.2344,,,,,,,,,,,,,,,,,,,,,,,,,,,,,,,,,
,,,,,,,,,,,,,,,,,5d946449f5241f0018fe2af2,42,2022-02-12_18h02.39.321,lexical_decision_task_DD_L6,2021.2.3,Win32,59.17159763,,,,,,,,,,0.9229,1,,,,,,,,,,,,,,,,m,1,0.9229,,,,,,,,0.306481499,-0.319444457,0,0,0,,0,126,126,59,1,BRUSH,HB,m,m,./images/BRUSHHB.png,,,,,,,,,,,,,,,,,,,,,,,,,,,,,,,,,,
,,,,,,,,,,,,,,,,,5d946449f5241f0018fe2af2,42,2022-02-12_18h02.39.321,lexical_decision_task_DD_L6,2021.2.3,Win32,59.17159763,,,,,,,,,,0.5838,1,,,,,,,,,,,,,,,,m,1,0.5838,,,,,,,,0.306481499,-0.319444457,0,0,0,,0,127,127,79,1,RULER,C,m,m,./images/RULER.png,,,,,,,,,,,,,,,,,,,,,,,,,,,,,,,,,,
,,,,,,,,,,,,,,,,,5d946449f5241f0018fe2af2,42,2022-02-12_18h02.39.321,lexical_decision_task_DD_L6,2021.2.3,Win32,59.17159763,,,,,,,,,,0.5942,1,,,,,,,,,,,,,,,,z,1,0.5942,,,,,,,,0.306481499,-0.319444457,0,0,0,,0,128,128,134,1,TROSS,LB,z,z,./images/TROSSLB.png,,,,,,,,,,,,,,,,,,,,,,,,,,,,,,,,,,
,,,,,,,,,,,,,,,,,5d946449f5241f0018fe2af2,42,2022-02-12_18h02.39.321,lexical_decision_task_DD_L6,2021.2.3,Win32,59.17159763,,,,,,,,,,0.7037,1,,,,,,,,,,,,,,,,z,1,0.7037,,,,,,,,0.306481499,-0.319444457,0,0,0,,0,129,129,155,1,CANGY,LB,z,z,./images/CANGYLB.png,,,,,,,,,,,,,,,,,,,,,,,,,,,,,,,,,,
,,,,,,,,,,,,,,,,,5d946449f5241f0018fe2af2,42,2022-02-12_18h02.39.321,lexical_decision_task_DD_L6,2021.2.3,Win32,59.17159763,,,,,,,,,,0.5789,1,,,,,,,,,,,,,,,,m,1,0.5789,,,,,,,,0.306481499,-0.319444457,0,0,0,,0,130,130,64,1,BRIDE,C,m,m,./images/BRIDE.png,,,,,,,,,,,,,,,,,,,,,,,,,,,,,,,,,,
,,,,,,,,,,,,,,,,,5d946449f5241f0018fe2af2,42,2022-02-12_18h02.39.321,lexical_decision_task_DD_L6,2021.2.3,Win32,59.17159763,,,,,,,,,,0.8578,1,,,,,,,,,,,,,,,,z,1,0.8578,,,,,,,,0.306481499,-0.319444457,0,0,0,,0,131,131,136,1,WERVE,HB,z,z,./images/WERVEHB.png,,,,,,,,,,,,,,,,,,,,,,,,,,,,,,,,,,
,,,,,,,,,,,,,,,,,5d946449f5241f0018fe2af2,42,2022-02-12_18h02.39.321,lexical_decision_task_DD_L6,2021.2.3,Win32,59.17159763,,,,,,,,,,0.7013,1,,,,,,,,,,,,,,,,m,1,0.7013,,,,,,,,0.306481499,-0.319444457,0,0,0,,0,132,132,47,1,LAGOON,HB,m,m,./images/LAGOONHB.png,,,,,,,,,,,,,,,,,,,,,,,,,,,,,,,,,,
,,,,,,,,,,,,,,,,,5d946449f5241f0018fe2af2,42,2022-02-12_18h02.39.321,lexical_decision_task_DD_L6,2021.2.3,Win32,59.17159763,,,,,,,,,,0.636,1,,,,,,,,,,,,,,,,m,1,0.636,,,,,,,,0.306481499,-0.319444457,0,0,0,,0,133,133,3,1,CRATER,LB,m,m,./images/CRATERLB.png,,,,,,,,,,,,,,,,,,,,,,,,,,,,,,,,,,
,,,,,,,,,,,,,,,,,5d946449f5241f0018fe2af2,42,2022-02-12_18h02.39.321,lexical_decision_task_DD_L6,2021.2.3,Win32,59.17159763,,,,,,,,,,0.7952,1,,,,,,,,,,,,,,,,z,1,0.7952,,,,,,,,0.306481499,-0.319444457,0,0,0,,0,134,134,159,1,CUDDY,C,z,z,./images/CUDDY.png,,,,,,,,,,,,,,,,,,,,,,,,,,,,,,,,,,
,,,,,,,,,,,,,,,,,5d946449f5241f0018fe2af2,42,2022-02-12_18h02.39.321,lexical_decision_task_DD_L6,2021.2.3,Win32,59.17159763,,,,,,,,,,0.925,1,,,,,,,,,,,,,,,,z,1,0.925,,,,,,,,0.306481499,-0.319444457,0,0,0,,0,135,135,140,1,DOVET,LB,z,z,./images/DOVETLB.png,,,,,,,,,,,,,,,,,,,,,,,,,,,,,,,,,,
,,,,,,,,,,,,,,,,,5d946449f5241f0018fe2af2,42,2022-02-12_18h02.39.321,lexical_decision_task_DD_L6,2021.2.3,Win32,59.17159763,,,,,,,,,,0.6543,1,,,,,,,,,,,,,,,,z,1,0.6543,,,,,,,,0.306481499,-0.319444457,0,0,0,,0,136,136,149,1,VEASE,LB,z,z,./images/VEASELB.png,,,,,,,,,,,,,,,,,,,,,,,,,,,,,,,,,,
,,,,,,,,,,,,,,,,,5d946449f5241f0018fe2af2,42,2022-02-12_18h02.39.321,lexical_decision_task_DD_L6,2021.2.3,Win32,59.17159763,,,,,,,,,,0.6141,1,,,,,,,,,,,,,,,,m,1,0.6141,,,,,,,,0.306481499,-0.319444457,0,0,0,,0,137,137,25,1,CHALK,C,m,m,./images/CHALK.png,,,,,,,,,,,,,,,,,,,,,,,,,,,,,,,,,,
,,,,,,,,,,,,,,,,,5d946449f5241f0018fe2af2,42,2022-02-12_18h02.39.321,lexical_decision_task_DD_L6,2021.2.3,Win32,59.17159763,,,,,,,,,,0.7816,0,,,,,,,,,,,,,,,,z,0,0.7816,,,,,,,,0.306481499,-0.319444457,0,0,0,,0,138,138,26,1,CLOUD,HB,m,m,./images/CLOUDHB.png,,,,,,,,,,,,,,,,,,,,,,,,,,,,,,,,,,
,,,,,,,,,,,,,,,,,5d946449f5241f0018fe2af2,42,2022-02-12_18h02.39.321,lexical_decision_task_DD_L6,2021.2.3,Win32,59.17159763,,,,,,,,,,0.6389,1,,,,,,,,,,,,,,,,z,1,0.6389,,,,,,,,0.306481499,-0.319444457,0,0,0,,0,139,139,162,1,LEICH,C,z,z,./images/LEICH.png,,,,,,,,,,,,,,,,,,,,,,,,,,,,,,,,,,
,,,,,,,,,,,,,,,,,5d946449f5241f0018fe2af2,42,2022-02-12_18h02.39.321,lexical_decision_task_DD_L6,2021.2.3,Win32,59.17159763,,,,,,,,,,0.5841,1,,,,,,,,,,,,,,,,m,1,0.5841,,,,,,,,0.306481499,-0.319444457,0,0,0,,0,140,140,46,1,MUMMY,C,m,m,./images/MUMMY.png,,,,,,,,,,,,,,,,,,,,,,,,,,,,,,,,,,
,,,,,,,,,,,,,,,,,5d946449f5241f0018fe2af2,42,2022-02-12_18h02.39.321,lexical_decision_task_DD_L6,2021.2.3,Win32,59.17159763,,,,,,,,,,1.5724,1,,,,,,,,,,,,,,,,m,1,1.5724,,,,,,,,0.306481499,-0.319444457,0,0,0,,0,141,141,74,1,JUMPER,HB,m,m,./images/JUMPERHB.png,,,,,,,,,,,,,,,,,,,,,,,,,,,,,,,,,,
,,,,,,,,,,,,,,,,,5d946449f5241f0018fe2af2,42,2022-02-12_18h02.39.321,lexical_decision_task_DD_L6,2021.2.3,Win32,59.17159763,,,,,,,,,,1.1618,1,,,,,,,,,,,,,,,,z,1,1.1618,,,,,,,,0.306481499,-0.319444457,0,0,0,,0,142,142,163,1,GAMBA,HB,z,z,./images/GAMBAHB.png,,,,,,,,,,,,,,,,,,,,,,,,,,,,,,,,,,
,,,,,,,,,,,,,,,,,5d946449f5241f0018fe2af2,42,2022-02-12_18h02.39.321,lexical_decision_task_DD_L6,2021.2.3,Win32,59.17159763,,,,,,,,,,0.5125,1,,,,,,,,,,,,,,,,m,1,0.5125,,,,,,,,0.306481499,-0.319444457,0,0,0,,0,143,143,39,1,CANDY,LB,m,m,./images/CANDYLB.png,,,,,,,,,,,,,,,,,,,,,,,,,,,,,,,,,,
,,,,,,,,,,,,,,,,,5d946449f5241f0018fe2af2,42,2022-02-12_18h02.39.321,lexical_decision_task_DD_L6,2021.2.3,Win32,59.17159763,,,,,,,,,,0.5469,1,,,,,,,,,,,,,,,,z,1,0.5469,,,,,,,,0.306481499,-0.319444457,0,0,0,,0,144,144,95,1,HANTY,LB,z,z,./images/HANTYLB.png,,,,,,,,,,,,,,,,,,,,,,,,,,,,,,,,,,
,,,,,,,,,,,,,,,,,5d946449f5241f0018fe2af2,42,2022-02-12_18h02.39.321,lexical_decision_task_DD_L6,2021.2.3,Win32,59.17159763,,,,,,,,,,0.6151,1,,,,,,,,,,,,,,,,z,1,0.6151,,,,,,,,0.306481499,-0.319444457,0,0,0,,0,145,145,146,1,MOOST,LB,z,z,./images/MOOSTLB.png,,,,,,,,,,,,,,,,,,,,,,,,,,,,,,,,,,
,,,,,,,,,,,,,,,,,5d946449f5241f0018fe2af2,42,2022-02-12_18h02.39.321,lexical_decision_task_DD_L6,2021.2.3,Win32,59.17159763,,,,,,,,,,1.3361,1,,,,,,,,,,,,,,,,z,1,1.3361,,,,,,,,0.306481499,-0.319444457,0,0,0,,0,146,146,166,1,SHORY,HB,z,z,./images/SHORYHB.png,,,,,,,,,,,,,,,,,,,,,,,,,,,,,,,,,,
,,,,,,,,,,,,,,,,,5d946449f5241f0018fe2af2,42,2022-02-12_18h02.39.321,lexical_decision_task_DD_L6,2021.2.3,Win32,59.17159763,,,,,,,,,,0.6086,1,,,,,,,,,,,,,,,,z,1,0.6086,,,,,,,,0.306481499,-0.319444457,0,0,0,,0,147,147,96,1,KEAMS,C,z,z,./images/KEAMS.png,,,,,,,,,,,,,,,,,,,,,,,,,,,,,,,,,,
,,,,,,,,,,,,,,,,,5d946449f5241f0018fe2af2,42,2022-02-12_18h02.39.321,lexical_decision_task_DD_L6,2021.2.3,Win32,59.17159763,,,,,,,,,,0.5375,1,,,,,,,,,,,,,,,,m,1,0.5375,,,,,,,,0.306481499,-0.319444457,0,0,0,,0,148,148,78,1,BROOM,LB,m,m,./images/BROOMLB.png,,,,,,,,,,,,,,,,,,,,,,,,,,,,,,,,,,
,,,,,,,,,,,,,,,,,5d946449f5241f0018fe2af2,42,2022-02-12_18h02.39.321,lexical_decision_task_DD_L6,2021.2.3,Win32,59.17159763,,,,,,,,,,0.5913,1,,,,,,,,,,,,,,,,m,1,0.5913,,,,,,,,0.306481499,-0.319444457,0,0,0,,0,149,149,24,1,FLESH,LB,m,m,./images/FLESHLB.png,,,,,,,,,,,,,,,,,,,,,,,,,,,,,,,,,,
,,,,,,,,,,,,,,,,,5d946449f5241f0018fe2af2,42,2022-02-12_18h02.39.321,lexical_decision_task_DD_L6,2021.2.3,Win32,59.17159763,,,,,,,,,,0.8986,1,,,,,,,,,,,,,,,,z,1,0.8986,,,,,,,,0.306481499,-0.319444457,0,0,0,,0,150,150,151,1,TINKY,HB,z,z,./images/TINKYHB.png,,,,,,,,,,,,,,,,,,,,,,,,,,,,,,,,,,
,,,,,,,,,,,,,,,,,5d946449f5241f0018fe2af2,42,2022-02-12_18h02.39.321,lexical_decision_task_DD_L6,2021.2.3,Win32,59.17159763,,,,,,,,,,0.4866,1,,,,,,,,,,,,,,,,m,1,0.4866,,,,,,,,0.306481499,-0.319444457,0,0,0,,0,151,151,70,1,BANANA,C,m,m,./images/BANANA.png,,,,,,,,,,,,,,,,,,,,,,,,,,,,,,,,,,
,,,,,,,,,,,,,,,,,5d946449f5241f0018fe2af2,42,2022-02-12_18h02.39.321,lexical_decision_task_DD_L6,2021.2.3,Win32,59.17159763,,,,,,,,,,0.916,1,,,,,,,,,,,,,,,,m,1,0.916,,,,,,,,0.306481499,-0.319444457,0,0,0,,0,152,152,83,1,WHISKY,HB,m,m,./images/WHISKYHB.png,,,,,,,,,,,,,,,,,,,,,,,,,,,,,,,,,,
,,,,,,,,,,,,,,,,,5d946449f5241f0018fe2af2,42,2022-02-12_18h02.39.321,lexical_decision_task_DD_L6,2021.2.3,Win32,59.17159763,,,,,,,,,,0.7473,1,,,,,,,,,,,,,,,,z,1,0.7473,,,,,,,,0.306481499,-0.319444457,0,0,0,,0,153,153,153,1,CLUPS,C,z,z,./images/CLUPS.png,,,,,,,,,,,,,,,,,,,,,,,,,,,,,,,,,,
,,,,,,,,,,,,,,,,,5d946449f5241f0018fe2af2,42,2022-02-12_18h02.39.321,lexical_decision_task_DD_L6,2021.2.3,Win32,59.17159763,,,,,,,,,,0.5211,1,,,,,,,,,,,,,,,,m,1,0.5211,,,,,,,,0.306481499,-0.319444457,0,0,0,,0,154,154,7,1,WAGON,C,m,m,./images/WAGON.png,,,,,,,,,,,,,,,,,,,,,,,,,,,,,,,,,,
,,,,,,,,,,,,,,,,,5d946449f5241f0018fe2af2,42,2022-02-12_18h02.39.321,lexical_decision_task_DD_L6,2021.2.3,Win32,59.17159763,,,,,,,,,,0.8378,1,,,,,,,,,,,,,,,,z,1,0.8378,,,,,,,,0.306481499,-0.319444457,0,0,0,,0,155,155,88,1,GLUSH,HB,z,z,./images/GLUSHHB.png,,,,,,,,,,,,,,,,,,,,,,,,,,,,,,,,,,
,,,,,,,,,,,,,,,,,5d946449f5241f0018fe2af2,42,2022-02-12_18h02.39.321,lexical_decision_task_DD_L6,2021.2.3,Win32,59.17159763,,,,,,,,,,0.6792,1,,,,,,,,,,,,,,,,z,1,0.6792,,,,,,,,0.306481499,-0.319444457,0,0,0,,0,156,156,114,1,RIKES,C,z,z,./images/RIKES.png,,,,,,,,,,,,,,,,,,,,,,,,,,,,,,,,,,
,,,,,,,,,,,,,,,,,5d946449f5241f0018fe2af2,42,2022-02-12_18h02.39.321,lexical_decision_task_DD_L6,2021.2.3,Win32,59.17159763,,,,,,,,,,0.5932,1,,,,,,,,,,,,,,,,z,1,0.5932,,,,,,,,0.306481499,-0.319444457,0,0,0,,0,157,157,99,1,BACKY,C,z,z,./images/BACKY.png,,,,,,,,,,,,,,,,,,,,,,,,,,,,,,,,,,
,,,,,,,,,,,,,,,,,5d946449f5241f0018fe2af2,42,2022-02-12_18h02.39.321,lexical_decision_task_DD_L6,2021.2.3,Win32,59.17159763,,,,,,,,,,0.5816,1,,,,,,,,,,,,,,,,m,1,0.5816,,,,,,,,0.306481499,-0.319444457,0,0,0,,0,158,158,0,1,WALNUT,LB,m,m,./images/WALNUTLB.png,,,,,,,,,,,,,,,,,,,,,,,,,,,,,,,,,,
,,,,,,,,,,,,,,,,,5d946449f5241f0018fe2af2,42,2022-02-12_18h02.39.321,lexical_decision_task_DD_L6,2021.2.3,Win32,59.17159763,,,,,,,,,,0.9033,1,,,,,,,,,,,,,,,,m,1,0.9033,,,,,,,,0.306481499,-0.319444457,0,0,0,,0,159,159,5,1,BAMBOO,HB,m,m,./images/BAMBOOHB.png,,,,,,,,,,,,,,,,,,,,,,,,,,,,,,,,,,
,,,,,,,,,,,,,,,,,5d946449f5241f0018fe2af2,42,2022-02-12_18h02.39.321,lexical_decision_task_DD_L6,2021.2.3,Win32,59.17159763,,,,,,,,,,0.5133,1,,,,,,,,,,,,,,,,m,1,0.5133,,,,,,,,0.306481499,-0.319444457,0,0,0,,0,160,160,54,1,CHERRY,LB,m,m,./images/CHERRYLB.png,,,,,,,,,,,,,,,,,,,,,,,,,,,,,,,,,,
,,,,,,,,,,,,,,,,,5d946449f5241f0018fe2af2,42,2022-02-12_18h02.39.321,lexical_decision_task_DD_L6,2021.2.3,Win32,59.17159763,,,,,,,,,,0.5657,1,,,,,,,,,,,,,,,,z,1,0.5657,,,,,,,,0.306481499,-0.319444457,0,0,0,,0,161,161,129,1,PRANS,C,z,z,./images/PRANS.png,,,,,,,,,,,,,,,,,,,,,,,,,,,,,,,,,,
,,,,,,,,,,,,,,,,,5d946449f5241f0018fe2af2,42,2022-02-12_18h02.39.321,lexical_decision_task_DD_L6,2021.2.3,Win32,59.17159763,,,,,,,,,,0.6324,1,,,,,,,,,,,,,,,,m,1,0.6324,,,,,,,,0.306481499,-0.319444457,0,0,0,,0,162,162,1,1,TOWEL,C,m,m,./images/TOWEL.png,,,,,,,,,,,,,,,,,,,,,,,,,,,,,,,,,,
,,,,,,,,,,,,,,,,,5d946449f5241f0018fe2af2,42,2022-02-12_18h02.39.321,lexical_decision_task_DD_L6,2021.2.3,Win32,59.17159763,,,,,,,,,,0.8505,1,,,,,,,,,,,,,,,,z,1,0.8505,,,,,,,,0.306481499,-0.319444457,0,0,0,,0,163,163,112,1,MYING,HB,z,z,./images/MYINGHB.png,,,,,,,,,,,,,,,,,,,,,,,,,,,,,,,,,,
,,,,,,,,,,,,,,,,,5d946449f5241f0018fe2af2,42,2022-02-12_18h02.39.321,lexical_decision_task_DD_L6,2021.2.3,Win32,59.17159763,,,,,,,,,,1.1118,1,,,,,,,,,,,,,,,,m,1,1.1118,,,,,,,,0.306481499,-0.319444457,0,0,0,,0,164,164,80,1,PLANET,HB,m,m,./images/PLANETHB.png,,,,,,,,,,,,,,,,,,,,,,,,,,,,,,,,,,
,,,,,,,,,,,,,,,,,5d946449f5241f0018fe2af2,42,2022-02-12_18h02.39.321,lexical_decision_task_DD_L6,2021.2.3,Win32,59.17159763,,,,,,,,,,0.9574,1,,,,,,,,,,,,,,,,m,1,0.9574,,,,,,,,0.306481499,-0.319444457,0,0,0,,0,165,165,65,1,SPINE,HB,m,m,./images/SPINEHB.png,,,,,,,,,,,,,,,,,,,,,,,,,,,,,,,,,,
,,,,,,,,,,,,,,,,,5d946449f5241f0018fe2af2,42,2022-02-12_18h02.39.321,lexical_decision_task_DD_L6,2021.2.3,Win32,59.17159763,,,,,,,,,,0.7958,1,,,,,,,,,,,,,,,,z,1,0.7958,,,,,,,,0.306481499,-0.319444457,0,0,0,,0,166,166,89,1,DRIEK,LB,z,z,./images/DRIEKLB.png,,,,,,,,,,,,,,,,,,,,,,,,,,,,,,,,,,
,,,,,,,,,,,,,,,,,5d946449f5241f0018fe2af2,42,2022-02-12_18h02.39.321,lexical_decision_task_DD_L6,2021.2.3,Win32,59.17159763,,,,,,,,,,1.3141,1,,,,,,,,,,,,,,,,z,1,1.3141,,,,,,,,0.306481499,-0.319444457,0,0,0,,0,167,167,101,1,GLEET,LB,z,z,./images/GLEETLB.png,,,,,,,,,,,,,,,,,,,,,,,,,,,,,,,,,,
,,,,,,,,,,,,,,,,,5d946449f5241f0018fe2af2,42,2022-02-12_18h02.39.321,lexical_decision_task_DD_L6,2021.2.3,Win32,59.17159763,,,,,,,,,,,,,,,,,,,,,,,,,,,,,,,,,,,,,,,,,,,,,,,,,How likely will it be that you will recognize the words presented very blurred on a scale of 0 (not likely) to 100 (most likely)?,,,,,0.01203705,-0.4046297,1,0,0,jol_adv,5,8.2576,0,0,0,2,1,,,,,,,,,,,,,,,,,,,,
,,,,,,,,,,,,,,,,,5d946449f5241f0018fe2af2,42,2022-02-12_18h02.39.321,lexical_decision_task_DD_L6,2021.2.3,Win32,59.17159763,,,,,,,,,,,,,,,,,,,,,,,,,,,,,,,,,,,,,,,,,,,,,,,,,How likely will it be that you will recognize the words presented clearly on a scale of 0 (not likely) to 100 (most likely)?,,,,,,,,,,,5,0.9104,0,1,1,0,1,,,,,,,,,,,,,,,,,,,,
,,,,,,,,,,,,,,,,,5d946449f5241f0018fe2af2,42,2022-02-12_18h02.39.321,lexical_decision_task_DD_L6,2021.2.3,Win32,59.17159763,,,,,,,,,,,,,,,,,,,,,,,,,,,,,,,,,,,,,,,,,,,,,,,,,How likely will it be that you will recognize the words presented slighly blurred on a scale of 0 (not likely) to 100 (most likely)?,,,,,,,,,,,5,0.6351,0,2,2,1,1,,,,,,,,,,,,,,,,,,,,
space,0.193518535,-0.299074086,0,0,0,,,,,,,1,test,"In the next phase you will be presented with the words from the the first phase. Your job is to decide whether you remember seeing the word or not. If you remember seeing the word press ""old"" or type ""m"". If you do not remember seeing the word press ""new"" or type ""z"". Please press the space bar or click on continue to begin. ",,,5d946449f5241f0018fe2af2,42,2022-02-12_18h02.39.321,lexical_decision_task_DD_L6,2021.2.3,Win32,59.17159763,,,,,,,,,,,,,,,,,,,,,116.8222,,,,,,,,,,,,,,,,,,,,,,,,,,,,,,,,,,,,,,,,,,,,,,0,0,0,0,1,,,,,,,,,,,,,,,
,0.138888904,-0.394444458,1,0,0,instr_done_button,,,,,,1,test,"In the next phase you will be presented with the words from the the first phase. Your job is to decide whether you remember seeing the word or not. If you remember seeing the word press ""old"" or type ""m"". If you do not remember seeing the word press ""new"" or type ""z"". Please press the space bar or click on continue to begin. ",,,5d946449f5241f0018fe2af2,42,2022-02-12_18h02.39.321,lexical_decision_task_DD_L6,2021.2.3,Win32,59.17159763,,,,,,,,,,,,,,,,,,,,,,,,,,,,,,,,,,,,,,,,,,,,,,,,,,,,,,,,,,,,,,,,,,,1,0,1,0,1,,,,,,,,,,,,,,,
,0.050000014,-0.385185198,1,0,0,instr_done_button,,,,,,1,test,"In the next phase you will be presented with the words from the the first phase. Your job is to decide whether you remember seeing the word or not. If you remember seeing the word press ""old"" or type ""m"". If you do not remember seeing the word press ""new"" or type ""z"". Please press the space bar or click on continue to begin. ",,,5d946449f5241f0018fe2af2,42,2022-02-12_18h02.39.321,lexical_decision_task_DD_L6,2021.2.3,Win32,59.17159763,,,,,,,,,,,,,,,,,,,,,,,,,,,,,,,,,,,,,,,,,,,,,,,,,,,,,,,,,,,,,,,,,,,2,0,2,0,1,,,,,,,,,,,,,,,
space,0.011111181,-0.378703717,0,0,0,,,,,,,1,test,"In the next phase you will be presented with the words from the the first phase. Your job is to decide whether you remember seeing the word or not. If you remember seeing the word press ""old"" or type ""m"". If you do not remember seeing the word press ""new"" or type ""z"". Please press the space bar or click on continue to begin. ",,,5d946449f5241f0018fe2af2,42,2022-02-12_18h02.39.321,lexical_decision_task_DD_L6,2021.2.3,Win32,59.17159763,,,,,,,,,,,,,,,,,,,,,3.3296,,,,,,,,,,,,,,,,,,,,,,,,,,,,,,,,,,,,,,,,,,,,,,3,0,3,0,1,,,,,,,,,,,,,,,
space,0.067592607,-0.265740809,0,0,0,,,,,,,1,test,"In the next phase you will be presented with the words from the the first phase. Your job is to decide whether you remember seeing the word or not. If you remember seeing the word press ""old"" or type ""m"". If you do not remember seeing the word press ""new"" or type ""z"". Please press the space bar or click on continue to begin. ",,,5d946449f5241f0018fe2af2,42,2022-02-12_18h02.39.321,lexical_decision_task_DD_L6,2021.2.3,Win32,59.17159763,,,,,,,,,,,,,,,,,,,,,2.566,,,,,,,,,,,,,,,,,,,,,,,,,,,,,,,,,,,,,,,,,,,,,,4,0,4,0,1,,,,,,,,,,,,,,,
,,,,,,,,,,,,,,,,,5d946449f5241f0018fe2af2,42,2022-02-12_18h02.39.321,lexical_decision_task_DD_L6,2021.2.3,Win32,59.17159763,,,,,,,,,,2.8693,1,,,,,,,,,,,,,,,,,,,,,,,,,,0.066666681,-0.266666678,0,0,0,,,,,,,GLOVE,C,m,y,./images/GLOVE.png,,,,,,,,,,,,,,,,,,,,m,1,2.8693,,,,,,,,0,0,0,73,1
,,,,,,,,,,,,,,,,,5d946449f5241f0018fe2af2,42,2022-02-12_18h02.39.321,lexical_decision_task_DD_L6,2021.2.3,Win32,59.17159763,,,,,,,,,,1.9021,0,,,,,,,,,,,,,,,,,,,,,,,,,,0.066666681,-0.266666678,0,0,0,,,,,,,POODLE,LB,z,y,./images/POODLELB.png,,,,,,,,,,,,,,,,,,,,m,0,1.9021,,,,,,,,0,1,1,165,1
,,,,,,,,,,,,,,,,,5d946449f5241f0018fe2af2,42,2022-02-12_18h02.39.321,lexical_decision_task_DD_L6,2021.2.3,Win32,59.17159763,,,,,,,,,,1.2497,1,,,,,,,,,,,,,,,,,,,,,,,,,,0.066666681,-0.266666678,0,0,0,,,,,,,STRING,HB,z,y,./images/STRINGHB.png,,,,,,,,,,,,,,,,,,,,z,1,1.2497,,,,,,,,0,2,2,125,1
,,,,,,,,,,,,,,,,,5d946449f5241f0018fe2af2,42,2022-02-12_18h02.39.321,lexical_decision_task_DD_L6,2021.2.3,Win32,59.17159763,,,,,,,,,,1.1466,0,,,,,,,,,,,,,,,,,,,,,,,,,,0.066666681,-0.266666678,0,0,0,,,,,,,STAIN,LB,m,y,./images/STAINLB.png,,,,,,,,,,,,,,,,,,,,z,0,1.1466,,,,,,,,0,3,3,6,1
,,,,,,,,,,,,,,,,,5d946449f5241f0018fe2af2,42,2022-02-12_18h02.39.321,lexical_decision_task_DD_L6,2021.2.3,Win32,59.17159763,,,,,,,,,,0.8175,0,,,,,,,,,,,,,,,,,,,,,,,,,,0.066666681,-0.266666678,0,0,0,,,,,,,JUNGLE,HB,z,y,./images/JUNGLEHB.png,,,,,,,,,,,,,,,,,,,,m,0,0.8175,,,,,,,,0,4,4,167,1
,,,,,,,,,,,,,,,,,5d946449f5241f0018fe2af2,42,2022-02-12_18h02.39.321,lexical_decision_task_DD_L6,2021.2.3,Win32,59.17159763,,,,,,,,,,0.9659,1,,,,,,,,,,,,,,,,,,,,,,,,,,0.066666681,-0.266666678,0,0,0,,,,,,,FARMER,HB,z,y,./images/FARMERHB.png,,,,,,,,,,,,,,,,,,,,z,1,0.9659,,,,,,,,0,5,5,149,1
,,,,,,,,,,,,,,,,,5d946449f5241f0018fe2af2,42,2022-02-12_18h02.39.321,lexical_decision_task_DD_L6,2021.2.3,Win32,59.17159763,,,,,,,,,,0.8052,0,,,,,,,,,,,,,,,,,,,,,,,,,,0.066666681,-0.266666678,0,0,0,,,,,,,JAGUAR,LB,z,y,./images/JAGUARLB.png,,,,,,,,,,,,,,,,,,,,m,0,0.8052,,,,,,,,0,6,6,102,1
,,,,,,,,,,,,,,,,,5d946449f5241f0018fe2af2,42,2022-02-12_18h02.39.321,lexical_decision_task_DD_L6,2021.2.3,Win32,59.17159763,,,,,,,,,,0.8695,1,,,,,,,,,,,,,,,,,,,,,,,,,,0.066666681,-0.266666678,0,0,0,,,,,,,BROOM,LB,m,y,./images/BROOMLB.png,,,,,,,,,,,,,,,,,,,,m,1,0.8695,,,,,,,,0,7,7,78,1
,,,,,,,,,,,,,,,,,5d946449f5241f0018fe2af2,42,2022-02-12_18h02.39.321,lexical_decision_task_DD_L6,2021.2.3,Win32,59.17159763,,,,,,,,,,0.7252,1,,,,,,,,,,,,,,,,,,,,,,,,,,0.066666681,-0.266666678,0,0,0,,,,,,,FENCE,HB,m,y,./images/FENCEHB.png,,,,,,,,,,,,,,,,,,,,m,1,0.7252,,,,,,,,0,8,8,14,1
,,,,,,,,,,,,,,,,,5d946449f5241f0018fe2af2,42,2022-02-12_18h02.39.321,lexical_decision_task_DD_L6,2021.2.3,Win32,59.17159763,,,,,,,,,,0.71,0,,,,,,,,,,,,,,,,,,,,,,,,,,0.066666681,-0.266666678,0,0,0,,,,,,,BABOON,C,z,y,./images/BABOON.png,,,,,,,,,,,,,,,,,,,,m,0,0.71,,,,,,,,0,9,9,142,1
,,,,,,,,,,,,,,,,,5d946449f5241f0018fe2af2,42,2022-02-12_18h02.39.321,lexical_decision_task_DD_L6,2021.2.3,Win32,59.17159763,,,,,,,,,,0.9949,1,,,,,,,,,,,,,,,,,,,,,,,,,,0.066666681,-0.266666678,0,0,0,,,,,,,COOKER,LB,z,y,./images/COOKERLB.png,,,,,,,,,,,,,,,,,,,,z,1,0.9949,,,,,,,,0,10,10,153,1
,,,,,,,,,,,,,,,,,5d946449f5241f0018fe2af2,42,2022-02-12_18h02.39.321,lexical_decision_task_DD_L6,2021.2.3,Win32,59.17159763,,,,,,,,,,1.024,1,,,,,,,,,,,,,,,,,,,,,,,,,,0.066666681,-0.266666678,0,0,0,,,,,,,TORCH,HB,z,y,./images/TORCHHB.png,,,,,,,,,,,,,,,,,,,,z,1,1.024,,,,,,,,0,11,11,152,1
,,,,,,,,,,,,,,,,,5d946449f5241f0018fe2af2,42,2022-02-12_18h02.39.321,lexical_decision_task_DD_L6,2021.2.3,Win32,59.17159763,,,,,,,,,,0.8083,1,,,,,,,,,,,,,,,,,,,,,,,,,,0.066666681,-0.266666678,0,0,0,,,,,,,INFANT,C,z,y,./images/INFANT.png,,,,,,,,,,,,,,,,,,,,z,1,0.8083,,,,,,,,0,12,12,160,1
,,,,,,,,,,,,,,,,,5d946449f5241f0018fe2af2,42,2022-02-12_18h02.39.321,lexical_decision_task_DD_L6,2021.2.3,Win32,59.17159763,,,,,,,,,,0.5797,1,,,,,,,,,,,,,,,,,,,,,,,,,,0.066666681,-0.266666678,0,0,0,,,,,,,MAMMAL,HB,m,y,./images/MAMMALHB.png,,,,,,,,,,,,,,,,,,,,m,1,0.5797,,,,,,,,0,13,13,62,1
,,,,,,,,,,,,,,,,,5d946449f5241f0018fe2af2,42,2022-02-12_18h02.39.321,lexical_decision_task_DD_L6,2021.2.3,Win32,59.17159763,,,,,,,,,,1.0843,1,,,,,,,,,,,,,,,,,,,,,,,,,,0.066666681,-0.266666678,0,0,0,,,,,,,MIRROR,LB,z,y,./images/MIRRORLB.png,,,,,,,,,,,,,,,,,,,,z,1,1.0843,,,,,,,,0,14,14,147,1
,,,,,,,,,,,,,,,,,5d946449f5241f0018fe2af2,42,2022-02-12_18h02.39.321,lexical_decision_task_DD_L6,2021.2.3,Win32,59.17159763,,,,,,,,,,0.5908,0,,,,,,,,,,,,,,,,,,,,,,,,,,0.066666681,-0.266666678,0,0,0,,,,,,,CANDLE,C,z,y,./images/CANDLE.png,,,,,,,,,,,,,,,,,,,,m,0,0.5908,,,,,,,,0,15,15,145,1
,,,,,,,,,,,,,,,,,5d946449f5241f0018fe2af2,42,2022-02-12_18h02.39.321,lexical_decision_task_DD_L6,2021.2.3,Win32,59.17159763,,,,,,,,,,0.617,1,,,,,,,,,,,,,,,,,,,,,,,,,,0.066666681,-0.266666678,0,0,0,,,,,,,WHEEL,HB,m,y,./images/WHEELHB.png,,,,,,,,,,,,,,,,,,,,m,1,0.617,,,,,,,,0,16,16,77,1
,,,,,,,,,,,,,,,,,5d946449f5241f0018fe2af2,42,2022-02-12_18h02.39.321,lexical_decision_task_DD_L6,2021.2.3,Win32,59.17159763,,,,,,,,,,0.6456,1,,,,,,,,,,,,,,,,,,,,,,,,,,0.066666681,-0.266666678,0,0,0,,,,,,,STORM,LB,z,y,./images/STORMLB.png,,,,,,,,,,,,,,,,,,,,z,1,0.6456,,,,,,,,0,17,17,114,1
,,,,,,,,,,,,,,,,,5d946449f5241f0018fe2af2,42,2022-02-12_18h02.39.321,lexical_decision_task_DD_L6,2021.2.3,Win32,59.17159763,,,,,,,,,,0.5822,1,,,,,,,,,,,,,,,,,,,,,,,,,,0.066666681,-0.266666678,0,0,0,,,,,,,BAMBOO,HB,m,y,./images/BAMBOOHB.png,,,,,,,,,,,,,,,,,,,,m,1,0.5822,,,,,,,,0,18,18,5,1
,,,,,,,,,,,,,,,,,5d946449f5241f0018fe2af2,42,2022-02-12_18h02.39.321,lexical_decision_task_DD_L6,2021.2.3,Win32,59.17159763,,,,,,,,,,0.8595,1,,,,,,,,,,,,,,,,,,,,,,,,,,0.066666681,-0.266666678,0,0,0,,,,,,,MUSCLE,C,z,y,./images/MUSCLE.png,,,,,,,,,,,,,,,,,,,,z,1,0.8595,,,,,,,,0,19,19,88,1
,,,,,,,,,,,,,,,,,5d946449f5241f0018fe2af2,42,2022-02-12_18h02.39.321,lexical_decision_task_DD_L6,2021.2.3,Win32,59.17159763,,,,,,,,,,0.6664,1,,,,,,,,,,,,,,,,,,,,,,,,,,0.066666681,-0.266666678,0,0,0,,,,,,,URINE,C,z,y,./images/URINE.png,,,,,,,,,,,,,,,,,,,,z,1,0.6664,,,,,,,,0,20,20,154,1
,,,,,,,,,,,,,,,,,5d946449f5241f0018fe2af2,42,2022-02-12_18h02.39.321,lexical_decision_task_DD_L6,2021.2.3,Win32,59.17159763,,,,,,,,,,0.6654,1,,,,,,,,,,,,,,,,,,,,,,,,,,0.066666681,-0.266666678,0,0,0,,,,,,,BLOKE,LB,m,y,./images/BLOKELB.png,,,,,,,,,,,,,,,,,,,,m,1,0.6654,,,,,,,,0,21,21,12,1
,,,,,,,,,,,,,,,,,5d946449f5241f0018fe2af2,42,2022-02-12_18h02.39.321,lexical_decision_task_DD_L6,2021.2.3,Win32,59.17159763,,,,,,,,,,0.6005,1,,,,,,,,,,,,,,,,,,,,,,,,,,0.066666681,-0.266666678,0,0,0,,,,,,,FLESH,LB,m,y,./images/FLESHLB.png,,,,,,,,,,,,,,,,,,,,m,1,0.6005,,,,,,,,0,22,22,24,1
,,,,,,,,,,,,,,,,,5d946449f5241f0018fe2af2,42,2022-02-12_18h02.39.321,lexical_decision_task_DD_L6,2021.2.3,Win32,59.17159763,,,,,,,,,,0.6968,1,,,,,,,,,,,,,,,,,,,,,,,,,,0.066666681,-0.266666678,0,0,0,,,,,,,CLOWN,C,m,y,./images/CLOWN.png,,,,,,,,,,,,,,,,,,,,m,1,0.6968,,,,,,,,0,23,23,22,1
,,,,,,,,,,,,,,,,,5d946449f5241f0018fe2af2,42,2022-02-12_18h02.39.321,lexical_decision_task_DD_L6,2021.2.3,Win32,59.17159763,,,,,,,,,,0.7502,1,,,,,,,,,,,,,,,,,,,,,,,,,,0.066666681,-0.266666678,0,0,0,,,,,,,STOOL,C,m,y,./images/STOOL.png,,,,,,,,,,,,,,,,,,,,m,1,0.7502,,,,,,,,0,24,24,43,1
,,,,,,,,,,,,,,,,,5d946449f5241f0018fe2af2,42,2022-02-12_18h02.39.321,lexical_decision_task_DD_L6,2021.2.3,Win32,59.17159763,,,,,,,,,,0.6749,1,,,,,,,,,,,,,,,,,,,,,,,,,,0.066666681,-0.266666678,0,0,0,,,,,,,POKER,C,m,y,./images/POKER.png,,,,,,,,,,,,,,,,,,,,m,1,0.6749,,,,,,,,0,25,25,67,1
,,,,,,,,,,,,,,,,,5d946449f5241f0018fe2af2,42,2022-02-12_18h02.39.321,lexical_decision_task_DD_L6,2021.2.3,Win32,59.17159763,,,,,,,,,,1.0727,1,,,,,,,,,,,,,,,,,,,,,,,,,,0.066666681,-0.266666678,0,0,0,,,,,,,DRILL,LB,m,y,./images/DRILLLB.png,,,,,,,,,,,,,,,,,,,,m,1,1.0727,,,,,,,,0,26,26,81,1
,,,,,,,,,,,,,,,,,5d946449f5241f0018fe2af2,42,2022-02-12_18h02.39.321,lexical_decision_task_DD_L6,2021.2.3,Win32,59.17159763,,,,,,,,,,0.8101,1,,,,,,,,,,,,,,,,,,,,,,,,,,0.066666681,-0.266666678,0,0,0,,,,,,,LADDER,HB,z,y,./images/LADDERHB.png,,,,,,,,,,,,,,,,,,,,z,1,0.8101,,,,,,,,0,27,27,122,1
,,,,,,,,,,,,,,,,,5d946449f5241f0018fe2af2,42,2022-02-12_18h02.39.321,lexical_decision_task_DD_L6,2021.2.3,Win32,59.17159763,,,,,,,,,,0.6456,1,,,,,,,,,,,,,,,,,,,,,,,,,,0.066666681,-0.266666678,0,0,0,,,,,,,BISHOP,C,m,y,./images/BISHOP.png,,,,,,,,,,,,,,,,,,,,m,1,0.6456,,,,,,,,0,28,28,49,1
,,,,,,,,,,,,,,,,,5d946449f5241f0018fe2af2,42,2022-02-12_18h02.39.321,lexical_decision_task_DD_L6,2021.2.3,Win32,59.17159763,,,,,,,,,,0.976,1,,,,,,,,,,,,,,,,,,,,,,,,,,0.066666681,-0.266666678,0,0,0,,,,,,,SAUNA,LB,m,y,./images/SAUNALB.png,,,,,,,,,,,,,,,,,,,,m,1,0.976,,,,,,,,0,29,29,33,1
,,,,,,,,,,,,,,,,,5d946449f5241f0018fe2af2,42,2022-02-12_18h02.39.321,lexical_decision_task_DD_L6,2021.2.3,Win32,59.17159763,,,,,,,,,,0.7069,0,,,,,,,,,,,,,,,,,,,,,,,,,,0.066666681,-0.266666678,0,0,0,,,,,,,SWING,C,z,y,./images/SWING.png,,,,,,,,,,,,,,,,,,,,m,0,0.7069,,,,,,,,0,30,30,124,1
,,,,,,,,,,,,,,,,,5d946449f5241f0018fe2af2,42,2022-02-12_18h02.39.321,lexical_decision_task_DD_L6,2021.2.3,Win32,59.17159763,,,,,,,,,,0.6981,0,,,,,,,,,,,,,,,,,,,,,,,,,,0.066666681,-0.266666678,0,0,0,,,,,,,CASINO,C,m,y,./images/CASINO.png,,,,,,,,,,,,,,,,,,,,z,0,0.6981,,,,,,,,0,31,31,28,1
,,,,,,,,,,,,,,,,,5d946449f5241f0018fe2af2,42,2022-02-12_18h02.39.321,lexical_decision_task_DD_L6,2021.2.3,Win32,59.17159763,,,,,,,,,,0.8015,1,,,,,,,,,,,,,,,,,,,,,,,,,,0.066666681,-0.266666678,0,0,0,,,,,,,PEACH,HB,z,y,./images/PEACHHB.png,,,,,,,,,,,,,,,,,,,,z,1,0.8015,,,,,,,,0,32,32,119,1
,,,,,,,,,,,,,,,,,5d946449f5241f0018fe2af2,42,2022-02-12_18h02.39.321,lexical_decision_task_DD_L6,2021.2.3,Win32,59.17159763,,,,,,,,,,0.887,0,,,,,,,,,,,,,,,,,,,,,,,,,,0.066666681,-0.266666678,0,0,0,,,,,,,DRUMS,C,z,y,./images/DRUMS.png,,,,,,,,,,,,,,,,,,,,m,0,0.887,,,,,,,,0,33,33,133,1
,,,,,,,,,,,,,,,,,5d946449f5241f0018fe2af2,42,2022-02-12_18h02.39.321,lexical_decision_task_DD_L6,2021.2.3,Win32,59.17159763,,,,,,,,,,0.7582,1,,,,,,,,,,,,,,,,,,,,,,,,,,0.066666681,-0.266666678,0,0,0,,,,,,,PILOT,HB,m,y,./images/PILOTHB.png,,,,,,,,,,,,,,,,,,,,m,1,0.7582,,,,,,,,0,34,34,50,1
,,,,,,,,,,,,,,,,,5d946449f5241f0018fe2af2,42,2022-02-12_18h02.39.321,lexical_decision_task_DD_L6,2021.2.3,Win32,59.17159763,,,,,,,,,,0.6862,1,,,,,,,,,,,,,,,,,,,,,,,,,,0.066666681,-0.266666678,0,0,0,,,,,,,SPORT,LB,z,y,./images/SPORTLB.png,,,,,,,,,,,,,,,,,,,,z,1,0.6862,,,,,,,,0,35,35,132,1
,,,,,,,,,,,,,,,,,5d946449f5241f0018fe2af2,42,2022-02-12_18h02.39.321,lexical_decision_task_DD_L6,2021.2.3,Win32,59.17159763,,,,,,,,,,0.7059,1,,,,,,,,,,,,,,,,,,,,,,,,,,0.066666681,-0.266666678,0,0,0,,,,,,,ARTIST,C,m,y,./images/ARTIST.png,,,,,,,,,,,,,,,,,,,,m,1,0.7059,,,,,,,,0,36,36,61,1
,,,,,,,,,,,,,,,,,5d946449f5241f0018fe2af2,42,2022-02-12_18h02.39.321,lexical_decision_task_DD_L6,2021.2.3,Win32,59.17159763,,,,,,,,,,0.8442,1,,,,,,,,,,,,,,,,,,,,,,,,,,0.066666681,-0.266666678,0,0,0,,,,,,,SUNSET,C,z,y,./images/SUNSET.png,,,,,,,,,,,,,,,,,,,,z,1,0.8442,,,,,,,,0,37,37,166,1
,,,,,,,,,,,,,,,,,5d946449f5241f0018fe2af2,42,2022-02-12_18h02.39.321,lexical_decision_task_DD_L6,2021.2.3,Win32,59.17159763,,,,,,,,,,0.5506,1,,,,,,,,,,,,,,,,,,,,,,,,,,0.066666681,-0.266666678,0,0,0,,,,,,,DANCER,LB,m,y,./images/DANCERLB.png,,,,,,,,,,,,,,,,,,,,m,1,0.5506,,,,,,,,0,38,38,21,1
,,,,,,,,,,,,,,,,,5d946449f5241f0018fe2af2,42,2022-02-12_18h02.39.321,lexical_decision_task_DD_L6,2021.2.3,Win32,59.17159763,,,,,,,,,,0.5936,1,,,,,,,,,,,,,,,,,,,,,,,,,,0.066666681,-0.266666678,0,0,0,,,,,,,MUMMY,C,m,y,./images/MUMMY.png,,,,,,,,,,,,,,,,,,,,m,1,0.5936,,,,,,,,0,39,39,46,1
,,,,,,,,,,,,,,,,,5d946449f5241f0018fe2af2,42,2022-02-12_18h02.39.321,lexical_decision_task_DD_L6,2021.2.3,Win32,59.17159763,,,,,,,,,,0.6677,1,,,,,,,,,,,,,,,,,,,,,,,,,,0.066666681,-0.266666678,0,0,0,,,,,,,MOTOR,C,z,y,./images/MOTOR.png,,,,,,,,,,,,,,,,,,,,z,1,0.6677,,,,,,,,0,40,40,97,1
,,,,,,,,,,,,,,,,,5d946449f5241f0018fe2af2,42,2022-02-12_18h02.39.321,lexical_decision_task_DD_L6,2021.2.3,Win32,59.17159763,,,,,,,,,,0.8918,1,,,,,,,,,,,,,,,,,,,,,,,,,,0.066666681,-0.266666678,0,0,0,space,,,,,,GRAIN,LB,z,y,./images/GRAINLB.png,1.3787,,,,,,,,,,,,,,,,,,,z,1,0.8918,,,,,,,,0,41,41,159,1
,,,,,,,,,,,,,,,,,5d946449f5241f0018fe2af2,42,2022-02-12_18h02.39.321,lexical_decision_task_DD_L6,2021.2.3,Win32,59.17159763,,,,,,,,,,0.7749,1,,,,,,,,,,,,,,,,,,,,,,,,,,0.066666681,-0.266666678,0,0,0,,,,,,,BERRY,HB,z,y,./images/BERRYHB.png,,,,,,,,,,,,,,,,,,,,z,1,0.7749,,,,,,,,0,42,42,131,1
,,,,,,,,,,,,,,,,,5d946449f5241f0018fe2af2,42,2022-02-12_18h02.39.321,lexical_decision_task_DD_L6,2021.2.3,Win32,59.17159763,,,,,,,,,,0.7681,0,,,,,,,,,,,,,,,,,,,,,,,,,,0.066666681,-0.266666678,0,0,0,,,,,,,MELON,C,z,y,./images/MELON.png,,,,,,,,,,,,,,,,,,,,m,0,0.7681,,,,,,,,0,43,43,106,1
,,,,,,,,,,,,,,,,,5d946449f5241f0018fe2af2,42,2022-02-12_18h02.39.321,lexical_decision_task_DD_L6,2021.2.3,Win32,59.17159763,,,,,,,,,,0.6332,0,,,,,,,,,,,,,,,,,,,,,,,,,,0.066666681,-0.266666678,0,0,0,,,,,,,SHELF,LB,z,y,./images/SHELFLB.png,,,,,,,,,,,,,,,,,,,,m,0,0.6332,,,,,,,,0,44,44,123,1
,,,,,,,,,,,,,,,,,5d946449f5241f0018fe2af2,42,2022-02-12_18h02.39.321,lexical_decision_task_DD_L6,2021.2.3,Win32,59.17159763,,,,,,,,,,0.6053,1,,,,,,,,,,,,,,,,,,,,,,,,,,0.066666681,-0.266666678,0,0,0,,,,,,,CRUST,C,z,y,./images/CRUST.png,,,,,,,,,,,,,,,,,,,,z,1,0.6053,,,,,,,,0,45,45,163,1
,,,,,,,,,,,,,,,,,5d946449f5241f0018fe2af2,42,2022-02-12_18h02.39.321,lexical_decision_task_DD_L6,2021.2.3,Win32,59.17159763,,,,,,,,,,0.5505,0,,,,,,,,,,,,,,,,,,,,,,,,,,0.066666681,-0.266666678,0,0,0,,,,,,,FOLDER,LB,z,y,./images/FOLDERLB.png,,,,,,,,,,,,,,,,,,,,m,0,0.5505,,,,,,,,0,46,46,126,1
,,,,,,,,,,,,,,,,,5d946449f5241f0018fe2af2,42,2022-02-12_18h02.39.321,lexical_decision_task_DD_L6,2021.2.3,Win32,59.17159763,,,,,,,,,,0.6006,1,,,,,,,,,,,,,,,,,,,,,,,,,,0.066666681,-0.266666678,0,0,0,,,,,,,KIDNEY,LB,z,y,./images/KIDNEYLB.png,,,,,,,,,,,,,,,,,,,,z,1,0.6006,,,,,,,,0,47,47,105,1
,,,,,,,,,,,,,,,,,5d946449f5241f0018fe2af2,42,2022-02-12_18h02.39.321,lexical_decision_task_DD_L6,2021.2.3,Win32,59.17159763,,,,,,,,,,0.5176,1,,,,,,,,,,,,,,,,,,,,,,,,,,0.066666681,-0.266666678,0,0,0,,,,,,,GRAPE,C,m,y,./images/GRAPE.png,,,,,,,,,,,,,,,,,,,,m,1,0.5176,,,,,,,,0,48,48,16,1
,,,,,,,,,,,,,,,,,5d946449f5241f0018fe2af2,42,2022-02-12_18h02.39.321,lexical_decision_task_DD_L6,2021.2.3,Win32,59.17159763,,,,,,,,,,0.7598,1,,,,,,,,,,,,,,,,,,,,,,,,,,0.066666681,-0.266666678,0,0,0,,,,,,,CLIFF,HB,m,y,./images/CLIFFHB.png,,,,,,,,,,,,,,,,,,,,m,1,0.7598,,,,,,,,0,49,49,8,1
,,,,,,,,,,,,,,,,,5d946449f5241f0018fe2af2,42,2022-02-12_18h02.39.321,lexical_decision_task_DD_L6,2021.2.3,Win32,59.17159763,,,,,,,,,,0.7901,1,,,,,,,,,,,,,,,,,,,,,,,,,,0.066666681,-0.266666678,0,0,0,,,,,,,MOOSE,LB,z,y,./images/MOOSELB.png,,,,,,,,,,,,,,,,,,,,z,1,0.7901,,,,,,,,0,50,50,141,1
,,,,,,,,,,,,,,,,,5d946449f5241f0018fe2af2,42,2022-02-12_18h02.39.321,lexical_decision_task_DD_L6,2021.2.3,Win32,59.17159763,,,,,,,,,,0.9676,1,,,,,,,,,,,,,,,,,,,,,,,,,,0.066666681,-0.266666678,0,0,0,,,,,,,PEARL,C,z,y,./images/PEARL.png,,,,,,,,,,,,,,,,,,,,z,1,0.9676,,,,,,,,0,51,51,130,1
,,,,,,,,,,,,,,,,,5d946449f5241f0018fe2af2,42,2022-02-12_18h02.39.321,lexical_decision_task_DD_L6,2021.2.3,Win32,59.17159763,,,,,,,,,,0.5799,1,,,,,,,,,,,,,,,,,,,,,,,,,,0.066666681,-0.266666678,0,0,0,,,,,,,DONKEY,C,m,y,./images/DONKEY.png,,,,,,,,,,,,,,,,,,,,m,1,0.5799,,,,,,,,0,52,52,19,1
,,,,,,,,,,,,,,,,,5d946449f5241f0018fe2af2,42,2022-02-12_18h02.39.321,lexical_decision_task_DD_L6,2021.2.3,Win32,59.17159763,,,,,,,,,,0.59,1,,,,,,,,,,,,,,,,,,,,,,,,,,0.066666681,-0.266666678,0,0,0,,,,,,,KITTEN,LB,z,y,./images/KITTENLB.png,,,,,,,,,,,,,,,,,,,,z,1,0.59,,,,,,,,0,53,53,129,1
,,,,,,,,,,,,,,,,,5d946449f5241f0018fe2af2,42,2022-02-12_18h02.39.321,lexical_decision_task_DD_L6,2021.2.3,Win32,59.17159763,,,,,,,,,,0.972,0,,,,,,,,,,,,,,,,,,,,,,,,,,0.066666681,-0.266666678,0,0,0,,,,,,,PICKLE,HB,z,y,./images/PICKLEHB.png,,,,,,,,,,,,,,,,,,,,m,0,0.972,,,,,,,,0,54,54,98,1
,,,,,,,,,,,,,,,,,5d946449f5241f0018fe2af2,42,2022-02-12_18h02.39.321,lexical_decision_task_DD_L6,2021.2.3,Win32,59.17159763,,,,,,,,,,0.6386,1,,,,,,,,,,,,,,,,,,,,,,,,,,0.066666681,-0.266666678,0,0,0,,,,,,,TRIPOD,LB,z,y,./images/TRIPODLB.png,,,,,,,,,,,,,,,,,,,,z,1,0.6386,,,,,,,,0,55,55,138,1
,,,,,,,,,,,,,,,,,5d946449f5241f0018fe2af2,42,2022-02-12_18h02.39.321,lexical_decision_task_DD_L6,2021.2.3,Win32,59.17159763,,,,,,,,,,0.5747,1,,,,,,,,,,,,,,,,,,,,,,,,,,0.066666681,-0.266666678,0,0,0,,,,,,,GARDEN,C,m,y,./images/GARDEN.png,,,,,,,,,,,,,,,,,,,,m,1,0.5747,,,,,,,,0,56,56,10,1
,,,,,,,,,,,,,,,,,5d946449f5241f0018fe2af2,42,2022-02-12_18h02.39.321,lexical_decision_task_DD_L6,2021.2.3,Win32,59.17159763,,,,,,,,,,0.6682,1,,,,,,,,,,,,,,,,,,,,,,,,,,0.066666681,-0.266666678,0,0,0,,,,,,,PLANK,C,z,y,./images/PLANK.png,,,,,,,,,,,,,,,,,,,,z,1,0.6682,,,,,,,,0,57,57,85,1
,,,,,,,,,,,,,,,,,5d946449f5241f0018fe2af2,42,2022-02-12_18h02.39.321,lexical_decision_task_DD_L6,2021.2.3,Win32,59.17159763,,,,,,,,,,0.774,1,,,,,,,,,,,,,,,,,,,,,,,,,,0.066666681,-0.266666678,0,0,0,,,,,,,PISTOL,HB,m,y,./images/PISTOLHB.png,,,,,,,,,,,,,,,,,,,,m,1,0.774,,,,,,,,0,58,58,29,1
,,,,,,,,,,,,,,,,,5d946449f5241f0018fe2af2,42,2022-02-12_18h02.39.321,lexical_decision_task_DD_L6,2021.2.3,Win32,59.17159763,,,,,,,,,,1.3079,1,,,,,,,,,,,,,,,,,,,,,,,,,,0.066666681,-0.266666678,0,0,0,,,,,,,FINGER,LB,z,y,./images/FINGERLB.png,,,,,,,,,,,,,,,,,,,,z,1,1.3079,,,,,,,,0,59,59,87,1
,,,,,,,,,,,,,,,,,5d946449f5241f0018fe2af2,42,2022-02-12_18h02.39.321,lexical_decision_task_DD_L6,2021.2.3,Win32,59.17159763,,,,,,,,,,0.7843,1,,,,,,,,,,,,,,,,,,,,,,,,,,0.066666681,-0.266666678,0,0,0,,,,,,,QUILL,C,z,y,./images/QUILL.png,,,,,,,,,,,,,,,,,,,,z,1,0.7843,,,,,,,,0,60,60,115,1
,,,,,,,,,,,,,,,,,5d946449f5241f0018fe2af2,42,2022-02-12_18h02.39.321,lexical_decision_task_DD_L6,2021.2.3,Win32,59.17159763,,,,,,,,,,1.5028,1,,,,,,,,,,,,,,,,,,,,,,,,,,0.066666681,-0.266666678,0,0,0,,,,,,,PENCE,C,z,y,./images/PENCE.png,,,,,,,,,,,,,,,,,,,,z,1,1.5028,,,,,,,,0,61,61,100,1
,,,,,,,,,,,,,,,,,5d946449f5241f0018fe2af2,42,2022-02-12_18h02.39.321,lexical_decision_task_DD_L6,2021.2.3,Win32,59.17159763,,,,,,,,,,0.7528,1,,,,,,,,,,,,,,,,,,,,,,,,,,0.066666681,-0.266666678,0,0,0,,,,,,,PEBBLE,C,m,y,./images/PEBBLE.png,,,,,,,,,,,,,,,,,,,,m,1,0.7528,,,,,,,,0,62,62,82,1
,,,,,,,,,,,,,,,,,5d946449f5241f0018fe2af2,42,2022-02-12_18h02.39.321,lexical_decision_task_DD_L6,2021.2.3,Win32,59.17159763,,,,,,,,,,0.5846,1,,,,,,,,,,,,,,,,,,,,,,,,,,0.066666681,-0.266666678,0,0,0,,,,,,,SPINE,HB,m,y,./images/SPINEHB.png,,,,,,,,,,,,,,,,,,,,m,1,0.5846,,,,,,,,0,63,63,65,1
,,,,,,,,,,,,,,,,,5d946449f5241f0018fe2af2,42,2022-02-12_18h02.39.321,lexical_decision_task_DD_L6,2021.2.3,Win32,59.17159763,,,,,,,,,,0.6134,1,,,,,,,,,,,,,,,,,,,,,,,,,,0.066666681,-0.266666678,0,0,0,,,,,,,BAKER,LB,m,y,./images/BAKERLB.png,,,,,,,,,,,,,,,,,,,,m,1,0.6134,,,,,,,,0,64,64,63,1
,,,,,,,,,,,,,,,,,5d946449f5241f0018fe2af2,42,2022-02-12_18h02.39.321,lexical_decision_task_DD_L6,2021.2.3,Win32,59.17159763,,,,,,,,,,0.6128,1,,,,,,,,,,,,,,,,,,,,,,,,,,0.066666681,-0.266666678,0,0,0,,,,,,,PARCEL,LB,m,y,./images/PARCELLB.png,,,,,,,,,,,,,,,,,,,,m,1,0.6128,,,,,,,,0,65,65,18,1
,,,,,,,,,,,,,,,,,5d946449f5241f0018fe2af2,42,2022-02-12_18h02.39.321,lexical_decision_task_DD_L6,2021.2.3,Win32,59.17159763,,,,,,,,,,0.8775,0,,,,,,,,,,,,,,,,,,,,,,,,,,0.066666681,-0.266666678,0,0,0,,,,,,,STREAM,HB,m,y,./images/STREAMHB.png,,,,,,,,,,,,,,,,,,,,z,0,0.8775,,,,,,,,0,66,66,41,1
,,,,,,,,,,,,,,,,,5d946449f5241f0018fe2af2,42,2022-02-12_18h02.39.321,lexical_decision_task_DD_L6,2021.2.3,Win32,59.17159763,,,,,,,,,,0.5734,1,,,,,,,,,,,,,,,,,,,,,,,,,,0.066666681,-0.266666678,0,0,0,,,,,,,STOVE,HB,m,y,./images/STOVEHB.png,,,,,,,,,,,,,,,,,,,,m,1,0.5734,,,,,,,,0,67,67,2,1
,,,,,,,,,,,,,,,,,5d946449f5241f0018fe2af2,42,2022-02-12_18h02.39.321,lexical_decision_task_DD_L6,2021.2.3,Win32,59.17159763,,,,,,,,,,0.7138,1,,,,,,,,,,,,,,,,,,,,,,,,,,0.066666681,-0.266666678,0,0,0,,,,,,,MOSQUE,C,z,y,./images/MOSQUE.png,,,,,,,,,,,,,,,,,,,,z,1,0.7138,,,,,,,,0,68,68,127,1
,,,,,,,,,,,,,,,,,5d946449f5241f0018fe2af2,42,2022-02-12_18h02.39.321,lexical_decision_task_DD_L6,2021.2.3,Win32,59.17159763,,,,,,,,,,0.5843,1,,,,,,,,,,,,,,,,,,,,,,,,,,0.066666681,-0.266666678,0,0,0,,,,,,,TIGER,C,m,y,./images/TIGER.png,,,,,,,,,,,,,,,,,,,,m,1,0.5843,,,,,,,,0,69,69,37,1
,,,,,,,,,,,,,,,,,5d946449f5241f0018fe2af2,42,2022-02-12_18h02.39.321,lexical_decision_task_DD_L6,2021.2.3,Win32,59.17159763,,,,,,,,,,0.5715,1,,,,,,,,,,,,,,,,,,,,,,,,,,0.066666681,-0.266666678,0,0,0,,,,,,,BANANA,C,m,y,./images/BANANA.png,,,,,,,,,,,,,,,,,,,,m,1,0.5715,,,,,,,,0,70,70,70,1
,,,,,,,,,,,,,,,,,5d946449f5241f0018fe2af2,42,2022-02-12_18h02.39.321,lexical_decision_task_DD_L6,2021.2.3,Win32,59.17159763,,,,,,,,,,0.5686,1,,,,,,,,,,,,,,,,,,,,,,,,,,0.066666681,-0.266666678,0,0,0,,,,,,,BOXER,C,m,y,./images/BOXER.png,,,,,,,,,,,,,,,,,,,,m,1,0.5686,,,,,,,,0,71,71,4,1
,,,,,,,,,,,,,,,,,5d946449f5241f0018fe2af2,42,2022-02-12_18h02.39.321,lexical_decision_task_DD_L6,2021.2.3,Win32,59.17159763,,,,,,,,,,0.9844,1,,,,,,,,,,,,,,,,,,,,,,,,,,0.066666681,-0.266666678,0,0,0,,,,,,,CLOTH,HB,m,y,./images/CLOTHHB.png,,,,,,,,,,,,,,,,,,,,m,1,0.9844,,,,,,,,0,72,72,23,1
,,,,,,,,,,,,,,,,,5d946449f5241f0018fe2af2,42,2022-02-12_18h02.39.321,lexical_decision_task_DD_L6,2021.2.3,Win32,59.17159763,,,,,,,,,,0.6062,0,,,,,,,,,,,,,,,,,,,,,,,,,,0.066666681,-0.266666678,0,0,0,,,,,,,PURSE,HB,z,y,./images/PURSEHB.png,,,,,,,,,,,,,,,,,,,,m,0,0.6062,,,,,,,,0,73,73,146,1
,,,,,,,,,,,,,,,,,5d946449f5241f0018fe2af2,42,2022-02-12_18h02.39.321,lexical_decision_task_DD_L6,2021.2.3,Win32,59.17159763,,,,,,,,,,0.7258,1,,,,,,,,,,,,,,,,,,,,,,,,,,0.066666681,-0.266666678,0,0,0,,,,,,,MIDGET,C,m,y,./images/MIDGET.png,,,,,,,,,,,,,,,,,,,,m,1,0.7258,,,,,,,,0,74,74,76,1
,,,,,,,,,,,,,,,,,5d946449f5241f0018fe2af2,42,2022-02-12_18h02.39.321,lexical_decision_task_DD_L6,2021.2.3,Win32,59.17159763,,,,,,,,,,0.8406,1,,,,,,,,,,,,,,,,,,,,,,,,,,0.066666681,-0.266666678,0,0,0,,,,,,,PACKET,HB,z,y,./images/PACKETHB.png,,,,,,,,,,,,,,,,,,,,z,1,0.8406,,,,,,,,0,75,75,140,1
,,,,,,,,,,,,,,,,,5d946449f5241f0018fe2af2,42,2022-02-12_18h02.39.321,lexical_decision_task_DD_L6,2021.2.3,Win32,59.17159763,,,,,,,,,,0.6497,1,,,,,,,,,,,,,,,,,,,,,,,,,,0.066666681,-0.266666678,0,0,0,,,,,,,MEDAL,HB,m,y,./images/MEDALHB.png,,,,,,,,,,,,,,,,,,,,m,1,0.6497,,,,,,,,0,76,76,11,1
,,,,,,,,,,,,,,,,,5d946449f5241f0018fe2af2,42,2022-02-12_18h02.39.321,lexical_decision_task_DD_L6,2021.2.3,Win32,59.17159763,,,,,,,,,,0.7003,1,,,,,,,,,,,,,,,,,,,,,,,,,,0.066666681,-0.266666678,0,0,0,,,,,,,CANOE,C,m,y,./images/CANOE.png,,,,,,,,,,,,,,,,,,,,m,1,0.7003,,,,,,,,0,77,77,58,1
,,,,,,,,,,,,,,,,,5d946449f5241f0018fe2af2,42,2022-02-12_18h02.39.321,lexical_decision_task_DD_L6,2021.2.3,Win32,59.17159763,,,,,,,,,,0.6234,1,,,,,,,,,,,,,,,,,,,,,,,,,,0.066666681,-0.266666678,0,0,0,,,,,,,SHIELD,LB,m,y,./images/SHIELDLB.png,,,,,,,,,,,,,,,,,,,,m,1,0.6234,,,,,,,,0,78,78,48,1
,,,,,,,,,,,,,,,,,5d946449f5241f0018fe2af2,42,2022-02-12_18h02.39.321,lexical_decision_task_DD_L6,2021.2.3,Win32,59.17159763,,,,,,,,,,0.7839,1,,,,,,,,,,,,,,,,,,,,,,,,,,0.066666681,-0.266666678,0,0,0,,,,,,,BIRTH,C,z,y,./images/BIRTH.png,,,,,,,,,,,,,,,,,,,,z,1,0.7839,,,,,,,,0,79,79,121,1
,,,,,,,,,,,,,,,,,5d946449f5241f0018fe2af2,42,2022-02-12_18h02.39.321,lexical_decision_task_DD_L6,2021.2.3,Win32,59.17159763,,,,,,,,,,0.6437,1,,,,,,,,,,,,,,,,,,,,,,,,,,0.066666681,-0.266666678,0,0,0,,,,,,,SNAKE,C,m,y,./images/SNAKE.png,,,,,,,,,,,,,,,,,,,,m,1,0.6437,,,,,,,,0,80,80,40,1
,,,,,,,,,,,,,,,,,5d946449f5241f0018fe2af2,42,2022-02-12_18h02.39.321,lexical_decision_task_DD_L6,2021.2.3,Win32,59.17159763,,,,,,,,,,0.8235,1,,,,,,,,,,,,,,,,,,,,,,,,,,0.066666681,-0.266666678,0,0,0,,,,,,,BEARD,HB,z,y,./images/BEARDHB.png,,,,,,,,,,,,,,,,,,,,z,1,0.8235,,,,,,,,0,81,81,86,1
,,,,,,,,,,,,,,,,,5d946449f5241f0018fe2af2,42,2022-02-12_18h02.39.321,lexical_decision_task_DD_L6,2021.2.3,Win32,59.17159763,,,,,,,,,,0.7916,1,,,,,,,,,,,,,,,,,,,,,,,,,,0.066666681,-0.266666678,0,0,0,,,,,,,MAGGOT,LB,z,y,./images/MAGGOTLB.png,,,,,,,,,,,,,,,,,,,,z,1,0.7916,,,,,,,,0,82,82,117,1
,,,,,,,,,,,,,,,,,5d946449f5241f0018fe2af2,42,2022-02-12_18h02.39.321,lexical_decision_task_DD_L6,2021.2.3,Win32,59.17159763,,,,,,,,,,0.7422,0,,,,,,,,,,,,,,,,,,,,,,,,,,0.066666681,-0.266666678,0,0,0,space,,,,,,SQUARE,LB,z,y,./images/SQUARELB.png,15.7258,,,,,,,,,,,,,,,,,,,m,0,0.7422,,,,,,,,0,83,83,90,1
,,,,,,,,,,,,,,,,,5d946449f5241f0018fe2af2,42,2022-02-12_18h02.39.321,lexical_decision_task_DD_L6,2021.2.3,Win32,59.17159763,,,,,,,,,,0.8751,1,,,,,,,,,,,,,,,,,,,,,,,,,,0.066666681,-0.266666678,0,0,0,,,,,,,SAUCE,LB,m,y,./images/SAUCELB.png,,,,,,,,,,,,,,,,,,,,m,1,0.8751,,,,,,,,0,84,84,51,1
,,,,,,,,,,,,,,,,,5d946449f5241f0018fe2af2,42,2022-02-12_18h02.39.321,lexical_decision_task_DD_L6,2021.2.3,Win32,59.17159763,,,,,,,,,,1.0669,0,,,,,,,,,,,,,,,,,,,,,,,,,,0.066666681,-0.266666678,0,0,0,,,,,,,DOUGH,C,z,y,./images/DOUGH.png,,,,,,,,,,,,,,,,,,,,m,0,1.0669,,,,,,,,0,85,85,103,1
,,,,,,,,,,,,,,,,,5d946449f5241f0018fe2af2,42,2022-02-12_18h02.39.321,lexical_decision_task_DD_L6,2021.2.3,Win32,59.17159763,,,,,,,,,,0.6518,0,,,,,,,,,,,,,,,,,,,,,,,,,,0.066666681,-0.266666678,0,0,0,,,,,,,WEASEL,HB,z,y,./images/WEASELHB.png,,,,,,,,,,,,,,,,,,,,m,0,0.6518,,,,,,,,0,86,86,164,1
,,,,,,,,,,,,,,,,,5d946449f5241f0018fe2af2,42,2022-02-12_18h02.39.321,lexical_decision_task_DD_L6,2021.2.3,Win32,59.17159763,,,,,,,,,,0.6542,1,,,,,,,,,,,,,,,,,,,,,,,,,,0.066666681,-0.266666678,0,0,0,,,,,,,BRUSH,HB,m,y,./images/BRUSHHB.png,,,,,,,,,,,,,,,,,,,,m,1,0.6542,,,,,,,,0,87,87,59,1
,,,,,,,,,,,,,,,,,5d946449f5241f0018fe2af2,42,2022-02-12_18h02.39.321,lexical_decision_task_DD_L6,2021.2.3,Win32,59.17159763,,,,,,,,,,0.8009,1,,,,,,,,,,,,,,,,,,,,,,,,,,0.066666681,-0.266666678,0,0,0,,,,,,,PAINT,C,z,y,./images/PAINT.png,,,,,,,,,,,,,,,,,,,,z,1,0.8009,,,,,,,,0,88,88,91,1
,,,,,,,,,,,,,,,,,5d946449f5241f0018fe2af2,42,2022-02-12_18h02.39.321,lexical_decision_task_DD_L6,2021.2.3,Win32,59.17159763,,,,,,,,,,0.6003,1,,,,,,,,,,,,,,,,,,,,,,,,,,0.066666681,-0.266666678,0,0,0,,,,,,,STEAK,C,m,y,./images/STEAK.png,,,,,,,,,,,,,,,,,,,,m,1,0.6003,,,,,,,,0,89,89,31,1
,,,,,,,,,,,,,,,,,5d946449f5241f0018fe2af2,42,2022-02-12_18h02.39.321,lexical_decision_task_DD_L6,2021.2.3,Win32,59.17159763,,,,,,,,,,0.6863,1,,,,,,,,,,,,,,,,,,,,,,,,,,0.066666681,-0.266666678,0,0,0,,,,,,,PIMPLE,HB,z,y,./images/PIMPLEHB.png,,,,,,,,,,,,,,,,,,,,z,1,0.6863,,,,,,,,0,90,90,155,1
,,,,,,,,,,,,,,,,,5d946449f5241f0018fe2af2,42,2022-02-12_18h02.39.321,lexical_decision_task_DD_L6,2021.2.3,Win32,59.17159763,,,,,,,,,,0.9019,1,,,,,,,,,,,,,,,,,,,,,,,,,,0.066666681,-0.266666678,0,0,0,,,,,,,ATTIC,LB,z,y,./images/ATTICLB.png,,,,,,,,,,,,,,,,,,,,z,1,0.9019,,,,,,,,0,91,91,111,1
,,,,,,,,,,,,,,,,,5d946449f5241f0018fe2af2,42,2022-02-12_18h02.39.321,lexical_decision_task_DD_L6,2021.2.3,Win32,59.17159763,,,,,,,,,,0.6852,1,,,,,,,,,,,,,,,,,,,,,,,,,,0.066666681,-0.266666678,0,0,0,,,,,,,CHAIN,LB,m,y,./images/CHAINLB.png,,,,,,,,,,,,,,,,,,,,m,1,0.6852,,,,,,,,0,92,92,42,1
,,,,,,,,,,,,,,,,,5d946449f5241f0018fe2af2,42,2022-02-12_18h02.39.321,lexical_decision_task_DD_L6,2021.2.3,Win32,59.17159763,,,,,,,,,,0.6356,0,,,,,,,,,,,,,,,,,,,,,,,,,,0.066666681,-0.266666678,0,0,0,,,,,,,CANYON,C,z,y,./images/CANYON.png,,,,,,,,,,,,,,,,,,,,m,0,0.6356,,,,,,,,0,93,93,118,1
,,,,,,,,,,,,,,,,,5d946449f5241f0018fe2af2,42,2022-02-12_18h02.39.321,lexical_decision_task_DD_L6,2021.2.3,Win32,59.17159763,,,,,,,,,,0.645,1,,,,,,,,,,,,,,,,,,,,,,,,,,0.066666681,-0.266666678,0,0,0,,,,,,,BOILER,LB,m,y,./images/BOILERLB.png,,,,,,,,,,,,,,,,,,,,m,1,0.645,,,,,,,,0,94,94,36,1
,,,,,,,,,,,,,,,,,5d946449f5241f0018fe2af2,42,2022-02-12_18h02.39.321,lexical_decision_task_DD_L6,2021.2.3,Win32,59.17159763,,,,,,,,,,0.8854,0,,,,,,,,,,,,,,,,,,,,,,,,,,0.066666681,-0.266666678,0,0,0,,,,,,,SLOPE,LB,m,y,./images/SLOPELB.png,,,,,,,,,,,,,,,,,,,,z,0,0.8854,,,,,,,,0,95,95,30,1
,,,,,,,,,,,,,,,,,5d946449f5241f0018fe2af2,42,2022-02-12_18h02.39.321,lexical_decision_task_DD_L6,2021.2.3,Win32,59.17159763,,,,,,,,,,0.7599,1,,,,,,,,,,,,,,,,,,,,,,,,,,0.066666681,-0.266666678,0,0,0,,,,,,,JELLY,C,z,y,./images/JELLY.png,,,,,,,,,,,,,,,,,,,,z,1,0.7599,,,,,,,,0,96,96,148,1
,,,,,,,,,,,,,,,,,5d946449f5241f0018fe2af2,42,2022-02-12_18h02.39.321,lexical_decision_task_DD_L6,2021.2.3,Win32,59.17159763,,,,,,,,,,0.6167,0,,,,,,,,,,,,,,,,,,,,,,,,,,0.066666681,-0.266666678,0,0,0,,,,,,,SCREW,LB,z,y,./images/SCREWLB.png,,,,,,,,,,,,,,,,,,,,m,0,0.6167,,,,,,,,0,97,97,108,1
,,,,,,,,,,,,,,,,,5d946449f5241f0018fe2af2,42,2022-02-12_18h02.39.321,lexical_decision_task_DD_L6,2021.2.3,Win32,59.17159763,,,,,,,,,,0.6326,1,,,,,,,,,,,,,,,,,,,,,,,,,,0.066666681,-0.266666678,0,0,0,,,,,,,DIVER,LB,m,y,./images/DIVERLB.png,,,,,,,,,,,,,,,,,,,,m,1,0.6326,,,,,,,,0,98,98,9,1
,,,,,,,,,,,,,,,,,5d946449f5241f0018fe2af2,42,2022-02-12_18h02.39.321,lexical_decision_task_DD_L6,2021.2.3,Win32,59.17159763,,,,,,,,,,0.6875,1,,,,,,,,,,,,,,,,,,,,,,,,,,0.066666681,-0.266666678,0,0,0,,,,,,,HAMMER,LB,m,y,./images/HAMMERLB.png,,,,,,,,,,,,,,,,,,,,m,1,0.6875,,,,,,,,0,99,99,75,1
,,,,,,,,,,,,,,,,,5d946449f5241f0018fe2af2,42,2022-02-12_18h02.39.321,lexical_decision_task_DD_L6,2021.2.3,Win32,59.17159763,,,,,,,,,,0.5688,0,,,,,,,,,,,,,,,,,,,,,,,,,,0.066666681,-0.266666678,0,0,0,,,,,,,BARREL,HB,z,y,./images/BARRELHB.png,,,,,,,,,,,,,,,,,,,,m,0,0.5688,,,,,,,,0,100,100,116,1
,,,,,,,,,,,,,,,,,5d946449f5241f0018fe2af2,42,2022-02-12_18h02.39.321,lexical_decision_task_DD_L6,2021.2.3,Win32,59.17159763,,,,,,,,,,0.81,0,,,,,,,,,,,,,,,,,,,,,,,,,,0.066666681,-0.266666678,0,0,0,,,,,,,SHORE,LB,z,y,./images/SHORELB.png,,,,,,,,,,,,,,,,,,,,m,0,0.81,,,,,,,,0,101,101,96,1
,,,,,,,,,,,,,,,,,5d946449f5241f0018fe2af2,42,2022-02-12_18h02.39.321,lexical_decision_task_DD_L6,2021.2.3,Win32,59.17159763,,,,,,,,,,0.7533,1,,,,,,,,,,,,,,,,,,,,,,,,,,0.066666681,-0.266666678,0,0,0,,,,,,,TULIP,HB,z,y,./images/TULIPHB.png,,,,,,,,,,,,,,,,,,,,z,1,0.7533,,,,,,,,0,102,102,92,1
,,,,,,,,,,,,,,,,,5d946449f5241f0018fe2af2,42,2022-02-12_18h02.39.321,lexical_decision_task_DD_L6,2021.2.3,Win32,59.17159763,,,,,,,,,,0.9065,1,,,,,,,,,,,,,,,,,,,,,,,,,,0.066666681,-0.266666678,0,0,0,,,,,,,LITTER,LB,z,y,./images/LITTERLB.png,,,,,,,,,,,,,,,,,,,,z,1,0.9065,,,,,,,,0,103,103,162,1
,,,,,,,,,,,,,,,,,5d946449f5241f0018fe2af2,42,2022-02-12_18h02.39.321,lexical_decision_task_DD_L6,2021.2.3,Win32,59.17159763,,,,,,,,,,0.5883,0,,,,,,,,,,,,,,,,,,,,,,,,,,0.066666681,-0.266666678,0,0,0,,,,,,,CRUMB,HB,z,y,./images/CRUMBHB.png,,,,,,,,,,,,,,,,,,,,m,0,0.5883,,,,,,,,0,104,104,113,1
,,,,,,,,,,,,,,,,,5d946449f5241f0018fe2af2,42,2022-02-12_18h02.39.321,lexical_decision_task_DD_L6,2021.2.3,Win32,59.17159763,,,,,,,,,,0.5847,1,,,,,,,,,,,,,,,,,,,,,,,,,,0.066666681,-0.266666678,0,0,0,,,,,,,BUBBLE,HB,m,y,./images/BUBBLEHB.png,,,,,,,,,,,,,,,,,,,,m,1,0.5847,,,,,,,,0,105,105,71,1
,,,,,,,,,,,,,,,,,5d946449f5241f0018fe2af2,42,2022-02-12_18h02.39.321,lexical_decision_task_DD_L6,2021.2.3,Win32,59.17159763,,,,,,,,,,0.778,1,,,,,,,,,,,,,,,,,,,,,,,,,,0.066666681,-0.266666678,0,0,0,,,,,,,FALCON,C,z,y,./images/FALCON.png,,,,,,,,,,,,,,,,,,,,z,1,0.778,,,,,,,,0,106,106,112,1
,,,,,,,,,,,,,,,,,5d946449f5241f0018fe2af2,42,2022-02-12_18h02.39.321,lexical_decision_task_DD_L6,2021.2.3,Win32,59.17159763,,,,,,,,,,0.8227,1,,,,,,,,,,,,,,,,,,,,,,,,,,0.066666681,-0.266666678,0,0,0,,,,,,,HEATER,HB,m,y,./images/HEATERHB.png,,,,,,,,,,,,,,,,,,,,m,1,0.8227,,,,,,,,0,107,107,56,1
,,,,,,,,,,,,,,,,,5d946449f5241f0018fe2af2,42,2022-02-12_18h02.39.321,lexical_decision_task_DD_L6,2021.2.3,Win32,59.17159763,,,,,,,,,,0.7223,1,,,,,,,,,,,,,,,,,,,,,,,,,,0.066666681,-0.266666678,0,0,0,,,,,,,TOMATO,LB,z,y,./images/TOMATOLB.png,,,,,,,,,,,,,,,,,,,,z,1,0.7223,,,,,,,,0,108,108,84,1
,,,,,,,,,,,,,,,,,5d946449f5241f0018fe2af2,42,2022-02-12_18h02.39.321,lexical_decision_task_DD_L6,2021.2.3,Win32,59.17159763,,,,,,,,,,1.0367,0,,,,,,,,,,,,,,,,,,,,,,,,,,0.066666681,-0.266666678,0,0,0,,,,,,,CANDY,LB,m,y,./images/CANDYLB.png,,,,,,,,,,,,,,,,,,,,z,0,1.0367,,,,,,,,0,109,109,39,1
,,,,,,,,,,,,,,,,,5d946449f5241f0018fe2af2,42,2022-02-12_18h02.39.321,lexical_decision_task_DD_L6,2021.2.3,Win32,59.17159763,,,,,,,,,,0.803,1,,,,,,,,,,,,,,,,,,,,,,,,,,0.066666681,-0.266666678,0,0,0,,,,,,,CLOUD,HB,m,y,./images/CLOUDHB.png,,,,,,,,,,,,,,,,,,,,m,1,0.803,,,,,,,,0,110,110,26,1
,,,,,,,,,,,,,,,,,5d946449f5241f0018fe2af2,42,2022-02-12_18h02.39.321,lexical_decision_task_DD_L6,2021.2.3,Win32,59.17159763,,,,,,,,,,0.623,1,,,,,,,,,,,,,,,,,,,,,,,,,,0.066666681,-0.266666678,0,0,0,,,,,,,LAGOON,HB,m,y,./images/LAGOONHB.png,,,,,,,,,,,,,,,,,,,,m,1,0.623,,,,,,,,0,111,111,47,1
,,,,,,,,,,,,,,,,,5d946449f5241f0018fe2af2,42,2022-02-12_18h02.39.321,lexical_decision_task_DD_L6,2021.2.3,Win32,59.17159763,,,,,,,,,,0.8015,0,,,,,,,,,,,,,,,,,,,,,,,,,,0.066666681,-0.266666678,0,0,0,,,,,,,ENGINE,HB,m,y,./images/ENGINEHB.png,,,,,,,,,,,,,,,,,,,,z,0,0.8015,,,,,,,,0,112,112,38,1
,,,,,,,,,,,,,,,,,5d946449f5241f0018fe2af2,42,2022-02-12_18h02.39.321,lexical_decision_task_DD_L6,2021.2.3,Win32,59.17159763,,,,,,,,,,0.6634,1,,,,,,,,,,,,,,,,,,,,,,,,,,0.066666681,-0.266666678,0,0,0,,,,,,,BASKET,HB,m,y,./images/BASKETHB.png,,,,,,,,,,,,,,,,,,,,m,1,0.6634,,,,,,,,0,113,113,44,1
,,,,,,,,,,,,,,,,,5d946449f5241f0018fe2af2,42,2022-02-12_18h02.39.321,lexical_decision_task_DD_L6,2021.2.3,Win32,59.17159763,,,,,,,,,,0.8275,1,,,,,,,,,,,,,,,,,,,,,,,,,,0.066666681,-0.266666678,0,0,0,,,,,,,ONION,LB,z,y,./images/ONIONLB.png,,,,,,,,,,,,,,,,,,,,z,1,0.8275,,,,,,,,0,114,114,135,1
,,,,,,,,,,,,,,,,,5d946449f5241f0018fe2af2,42,2022-02-12_18h02.39.321,lexical_decision_task_DD_L6,2021.2.3,Win32,59.17159763,,,,,,,,,,0.8885,1,,,,,,,,,,,,,,,,,,,,,,,,,,0.066666681,-0.266666678,0,0,0,,,,,,,WALRUS,HB,z,y,./images/WALRUSHB.png,,,,,,,,,,,,,,,,,,,,z,1,0.8885,,,,,,,,0,115,115,107,1
,,,,,,,,,,,,,,,,,5d946449f5241f0018fe2af2,42,2022-02-12_18h02.39.321,lexical_decision_task_DD_L6,2021.2.3,Win32,59.17159763,,,,,,,,,,0.5514,1,,,,,,,,,,,,,,,,,,,,,,,,,,0.066666681,-0.266666678,0,0,0,,,,,,,MONKEY,LB,m,y,./images/MONKEYLB.png,,,,,,,,,,,,,,,,,,,,m,1,0.5514,,,,,,,,0,116,116,45,1
,,,,,,,,,,,,,,,,,5d946449f5241f0018fe2af2,42,2022-02-12_18h02.39.321,lexical_decision_task_DD_L6,2021.2.3,Win32,59.17159763,,,,,,,,,,0.6251,1,,,,,,,,,,,,,,,,,,,,,,,,,,0.066666681,-0.266666678,0,0,0,,,,,,,JUMPER,HB,m,y,./images/JUMPERHB.png,,,,,,,,,,,,,,,,,,,,m,1,0.6251,,,,,,,,0,117,117,74,1
,,,,,,,,,,,,,,,,,5d946449f5241f0018fe2af2,42,2022-02-12_18h02.39.321,lexical_decision_task_DD_L6,2021.2.3,Win32,59.17159763,,,,,,,,,,0.6337,1,,,,,,,,,,,,,,,,,,,,,,,,,,0.066666681,-0.266666678,0,0,0,,,,,,,PLANET,HB,m,y,./images/PLANETHB.png,,,,,,,,,,,,,,,,,,,,m,1,0.6337,,,,,,,,0,118,118,80,1
,,,,,,,,,,,,,,,,,5d946449f5241f0018fe2af2,42,2022-02-12_18h02.39.321,lexical_decision_task_DD_L6,2021.2.3,Win32,59.17159763,,,,,,,,,,1.0505,0,,,,,,,,,,,,,,,,,,,,,,,,,,0.066666681,-0.266666678,0,0,0,,,,,,,CEMENT,HB,z,y,./images/CEMENTHB.png,,,,,,,,,,,,,,,,,,,,m,0,1.0505,,,,,,,,0,119,119,158,1
,,,,,,,,,,,,,,,,,5d946449f5241f0018fe2af2,42,2022-02-12_18h02.39.321,lexical_decision_task_DD_L6,2021.2.3,Win32,59.17159763,,,,,,,,,,1,1,,,,,,,,,,,,,,,,,,,,,,,,,,0.066666681,-0.266666678,0,0,0,,,,,,,CRADLE,HB,z,y,./images/CRADLEHB.png,,,,,,,,,,,,,,,,,,,,z,1,1,,,,,,,,0,120,120,104,1
,,,,,,,,,,,,,,,,,5d946449f5241f0018fe2af2,42,2022-02-12_18h02.39.321,lexical_decision_task_DD_L6,2021.2.3,Win32,59.17159763,,,,,,,,,,0.9208,1,,,,,,,,,,,,,,,,,,,,,,,,,,0.066666681,-0.266666678,0,0,0,,,,,,,NOOSE,LB,z,y,./images/NOOSELB.png,,,,,,,,,,,,,,,,,,,,z,1,0.9208,,,,,,,,0,121,121,156,1
,,,,,,,,,,,,,,,,,5d946449f5241f0018fe2af2,42,2022-02-12_18h02.39.321,lexical_decision_task_DD_L6,2021.2.3,Win32,59.17159763,,,,,,,,,,0.6789,1,,,,,,,,,,,,,,,,,,,,,,,,,,0.066666681,-0.266666678,0,0,0,,,,,,,FLASK,LB,m,y,./images/FLASKLB.png,,,,,,,,,,,,,,,,,,,,m,1,0.6789,,,,,,,,0,122,122,72,1
,,,,,,,,,,,,,,,,,5d946449f5241f0018fe2af2,42,2022-02-12_18h02.39.321,lexical_decision_task_DD_L6,2021.2.3,Win32,59.17159763,,,,,,,,,,0.6091,0,,,,,,,,,,,,,,,,,,,,,,,,,,0.066666681,-0.266666678,0,0,0,,,,,,,COUCH,HB,z,y,./images/COUCHHB.png,,,,,,,,,,,,,,,,,,,,m,0,0.6091,,,,,,,,0,123,123,161,1
,,,,,,,,,,,,,,,,,5d946449f5241f0018fe2af2,42,2022-02-12_18h02.39.321,lexical_decision_task_DD_L6,2021.2.3,Win32,59.17159763,,,,,,,,,,0.7885,0,,,,,,,,,,,,,,,,,,,,,,,,,,0.066666681,-0.266666678,0,0,0,,,,,,,SAILOR,C,z,y,./images/SAILOR.png,,,,,,,,,,,,,,,,,,,,m,0,0.7885,,,,,,,,0,124,124,151,1
,,,,,,,,,,,,,,,,,5d946449f5241f0018fe2af2,42,2022-02-12_18h02.39.321,lexical_decision_task_DD_L6,2021.2.3,Win32,59.17159763,,,,,,,,,,0.7458,1,,,,,,,,,,,,,,,,,,,,,,,,,,0.066666681,-0.266666678,0,0,0,space,,,,,,RAZOR,C,m,y,./images/RAZOR.png,1.189,,,,,,,,,,,,,,,,,,,m,1,0.7458,,,,,,,,0,125,125,34,1
,,,,,,,,,,,,,,,,,5d946449f5241f0018fe2af2,42,2022-02-12_18h02.39.321,lexical_decision_task_DD_L6,2021.2.3,Win32,59.17159763,,,,,,,,,,0.6403,1,,,,,,,,,,,,,,,,,,,,,,,,,,0.066666681,-0.266666678,0,0,0,,,,,,,DESERT,C,m,y,./images/DESERT.png,,,,,,,,,,,,,,,,,,,,m,1,0.6403,,,,,,,,0,126,126,52,1
,,,,,,,,,,,,,,,,,5d946449f5241f0018fe2af2,42,2022-02-12_18h02.39.321,lexical_decision_task_DD_L6,2021.2.3,Win32,59.17159763,,,,,,,,,,0.8212,1,,,,,,,,,,,,,,,,,,,,,,,,,,0.066666681,-0.266666678,0,0,0,,,,,,,WRIST,C,z,y,./images/WRIST.png,,,,,,,,,,,,,,,,,,,,z,1,0.8212,,,,,,,,0,127,127,109,1
,,,,,,,,,,,,,,,,,5d946449f5241f0018fe2af2,42,2022-02-12_18h02.39.321,lexical_decision_task_DD_L6,2021.2.3,Win32,59.17159763,,,,,,,,,,0.6007,0,,,,,,,,,,,,,,,,,,,,,,,,,,0.066666681,-0.266666678,0,0,0,,,,,,,GREASE,LB,z,y,./images/GREASELB.png,,,,,,,,,,,,,,,,,,,,m,0,0.6007,,,,,,,,0,128,128,99,1
,,,,,,,,,,,,,,,,,5d946449f5241f0018fe2af2,42,2022-02-12_18h02.39.321,lexical_decision_task_DD_L6,2021.2.3,Win32,59.17159763,,,,,,,,,,0.6693,1,,,,,,,,,,,,,,,,,,,,,,,,,,0.066666681,-0.266666678,0,0,0,,,,,,,ARROW,LB,m,y,./images/ARROWLB.png,,,,,,,,,,,,,,,,,,,,m,1,0.6693,,,,,,,,0,129,129,69,1
,,,,,,,,,,,,,,,,,5d946449f5241f0018fe2af2,42,2022-02-12_18h02.39.321,lexical_decision_task_DD_L6,2021.2.3,Win32,59.17159763,,,,,,,,,,0.7336,1,,,,,,,,,,,,,,,,,,,,,,,,,,0.066666681,-0.266666678,0,0,0,,,,,,,TWINS,LB,z,y,./images/TWINSLB.png,,,,,,,,,,,,,,,,,,,,z,1,0.7336,,,,,,,,0,130,130,144,1
,,,,,,,,,,,,,,,,,5d946449f5241f0018fe2af2,42,2022-02-12_18h02.39.321,lexical_decision_task_DD_L6,2021.2.3,Win32,59.17159763,,,,,,,,,,0.6196,0,,,,,,,,,,,,,,,,,,,,,,,,,,0.066666681,-0.266666678,0,0,0,,,,,,,SWEAT,LB,z,y,./images/SWEATLB.png,,,,,,,,,,,,,,,,,,,,m,0,0.6196,,,,,,,,0,131,131,150,1
