key_resp.keys,instr_done_touch.x,instr_done_touch.y,instr_done_touch.leftButton,instr_done_touch.midButton,instr_done_touch.rightButton,instr_done_touch.clicked_name,instruction_pages.thisRepN,instruction_pages.thisTrialN,instruction_pages.thisN,instruction_pages.thisIndex,instruction_pages.ran,pageN,phase,instruct_text,has_image,instruct_image,participant,age,date,expName,psychopyVersion,OS,frameRate,response.keys,response.corr,touch_resp.x,touch_resp.y,touch_resp.leftButton,touch_resp.midButton,touch_resp.rightButton,touch_resp.time,touch_resp.clicked_name,rt,corr,practrials.thisRepN,practrials.thisTrialN,practrials.thisN,practrials.thisIndex,practrials.ran,TrialID,Target,corrAns,end_of_practice_trials_pages.thisRepN,end_of_practice_trials_pages.thisTrialN,end_of_practice_trials_pages.thisN,end_of_practice_trials_pages.thisIndex,end_of_practice_trials_pages.ran,key_resp_2.keys,key_resp_2.corr,targ_click.x,targ_click.y,targ_click.leftButton,targ_click.midButton,targ_click.rightButton,targ_click.time,targ_click.clicked_name,break_done_touch.x,break_done_touch.y,break_done_touch.leftButton,break_done_touch.midButton,break_done_touch.rightButton,break_done_keyboard.keys,maintrials.thisRepN,maintrials.thisTrialN,maintrials.thisN,maintrials.thisIndex,maintrials.ran,string,blur,study,lex,stim_path,break_done_touch.clicked_name,mouse_2.x,mouse_2.y,mouse_2.leftButton,mouse_2.midButton,mouse_2.rightButton,mouse_2.clicked_name,slider.response,slider.rt,trials.thisRepN,trials.thisTrialN,trials.thisN,trials.thisIndex,trials.ran,test_instructions.thisRepN,test_instructions.thisTrialN,test_instructions.thisN,test_instructions.thisIndex,test_instructions.ran,key_resp_3.keys,key_resp_3.corr,test_click.x,test_click.y,test_click.leftButton,test_click.midButton,test_click.rightButton,test_click.time,test_click.clicked_name,test_phase.thisRepN,test_phase.thisTrialN,test_phase.thisN,test_phase.thisIndex,test_phase.ran
,-0.125510204,-0.407142857,1,0,0,instr_done_button,0,0,0,0,1,1,instructions,"INSTRUCTIONS
At the start of each trial, look at the plus sign  (+) in the center of the screen.  This tells you that a trial is about to begin and where to look. Second, the plus sign will disappear and a string of letters will appear. Your task is to determine if the string of letters is a word or not. If the item is a word press the M key (on keyboard)  or touch the word button (phone/tablet).  If the item is not a word,  press the  Z key (on keyboard)  or touch the nonword button (on phone/tablet). 
Press the space bar or touch  continue.",0,,5d951d9419479d00155e7140,27,2022-02-12_13h38.20.320,lexical_decision_task_DD,2021.2.3,iPhone,58.82352941,,,,,,,,,,,,,,,,,,,,,,,,,,,,,,,,,,,,,,,,,,,,,,,,,,,,,,,,,,,,,,,,,,,,,,,,,,,,,,,,,,
,0.073469388,-0.393877551,1,0,0,instr_done_button,0,1,1,1,1,2,instructions,"If your device has a keyboard, press the 'Z' key for nonwords and the 'M' key for words.





Press the space bar or touch the button below to continue.",0,keyboard-example.gif,5d951d9419479d00155e7140,27,2022-02-12_13h38.20.320,lexical_decision_task_DD,2021.2.3,iPhone,58.82352941,,,,,,,,,,,,,,,,,,,,,,,,,,,,,,,,,,,,,,,,,,,,,,,,,,,,,,,,,,,,,,,,,,,,,,,,,,,,,,,,,,
,0.107142857,-0.38877551,1,0,0,instr_done_button,0,2,2,2,1,3,instructions,"If you are using a touchscreen only device, use the buttons on the screen. Do not use the mouse.





Press the space bar or touch the button below to continue.",0,touchscreen-example.gif,5d951d9419479d00155e7140,27,2022-02-12_13h38.20.320,lexical_decision_task_DD,2021.2.3,iPhone,58.82352941,,,,,,,,,,,,,,,,,,,,,,,,,,,,,,,,,,,,,,,,,,,,,,,,,,,,,,,,,,,,,,,,,,,,,,,,,,,,,,,,,,
,0.132653061,-0.439795918,1,0,0,instr_done_button,0,3,3,3,1,4,instructions,"It is very important that you respond as quickly and accurately as possible, as each letter string will only be on the screen for two seconds. If you do not respond within this time, the message 'Too slow!' will be displayed and the experiment will progress to the next letter string. The first 20 trials will be practice trials and you will receive feedback on your answers. 

Press the space bar or touch the button below to start the practice trials.",0,,5d951d9419479d00155e7140,27,2022-02-12_13h38.20.320,lexical_decision_task_DD,2021.2.3,iPhone,58.82352941,,,,,,,,,,,,,,,,,,,,,,,,,,,,,,,,,,,,,,,,,,,,,,,,,,,,,,,,,,,,,,,,,,,,,,,,,,,,,,,,,,
,,,,,,,,,,,,,,,,,5d951d9419479d00155e7140,27,2022-02-12_13h38.20.320,lexical_decision_task_DD,2021.2.3,iPhone,58.82352941,,0,0.340816327,-0.305102041,1,0,0,1.535,button_right,1.535,1,0,0,0,0,1,1001,UTOPIA,m,,,,,,,,,,,,,,,,,,,,,,,,,,,,,,,,,,,,,,,,,,,,,,,,,,,,,,,,,,,,,,,
,,,,,,,,,,,,,,,,,5d951d9419479d00155e7140,27,2022-02-12_13h38.20.320,lexical_decision_task_DD,2021.2.3,iPhone,58.82352941,,0,0.37244898,-0.32755102,1,0,0,0.652,button_right,0.652,1,0,1,1,6,1,1001,ZOMBIE,m,,,,,,,,,,,,,,,,,,,,,,,,,,,,,,,,,,,,,,,,,,,,,,,,,,,,,,,,,,,,,,,
,,,,,,,,,,,,,,,,,5d951d9419479d00155e7140,27,2022-02-12_13h38.20.320,lexical_decision_task_DD,2021.2.3,iPhone,58.82352941,,0,-0.379591837,-0.317346939,1,0,0,0.938,button_left,0.938,1,0,2,2,11,1,1001,RASHET,z,,,,,,,,,,,,,,,,,,,,,,,,,,,,,,,,,,,,,,,,,,,,,,,,,,,,,,,,,,,,,,,
,,,,,,,,,,,,,,,,,5d951d9419479d00155e7140,27,2022-02-12_13h38.20.320,lexical_decision_task_DD,2021.2.3,iPhone,58.82352941,,0,-0.416326531,-0.286734694,1,0,0,0.707,button_left,0.707,1,0,3,3,12,1,1001,SPRINY,z,,,,,,,,,,,,,,,,,,,,,,,,,,,,,,,,,,,,,,,,,,,,,,,,,,,,,,,,,,,,,,,
,,,,,,,,,,,,,,,,,5d951d9419479d00155e7140,27,2022-02-12_13h38.20.320,lexical_decision_task_DD,2021.2.3,iPhone,58.82352941,,0,0.428571429,-0.248979592,1,0,0,0.704,button_right,0.704,1,0,4,4,5,1,1001,OBTAIN,m,,,,,,,,,,,,,,,,,,,,,,,,,,,,,,,,,,,,,,,,,,,,,,,,,,,,,,,,,,,,,,,
,,,,,,,,,,,,,,,,,5d951d9419479d00155e7140,27,2022-02-12_13h38.20.320,lexical_decision_task_DD,2021.2.3,iPhone,58.82352941,,0,0.416326531,-0.275510204,1,0,0,0.601,button_right,0.601,1,0,5,5,2,1,1001,ALMOND,m,,,,,,,,,,,,,,,,,,,,,,,,,,,,,,,,,,,,,,,,,,,,,,,,,,,,,,,,,,,,,,,
,,,,,,,,,,,,,,,,,5d951d9419479d00155e7140,27,2022-02-12_13h38.20.320,lexical_decision_task_DD,2021.2.3,iPhone,58.82352941,,0,-0.389795918,-0.306122449,1,0,0,0.917,button_left,0.917,1,0,6,6,10,1,1001,INLADE,z,,,,,,,,,,,,,,,,,,,,,,,,,,,,,,,,,,,,,,,,,,,,,,,,,,,,,,,,,,,,,,,
,,,,,,,,,,,,,,,,,5d951d9419479d00155e7140,27,2022-02-12_13h38.20.320,lexical_decision_task_DD,2021.2.3,iPhone,58.82352941,,0,-0.392857143,-0.317346939,1,0,0,0.739,button_left,0.739,1,0,7,7,15,1,1001,WHAISE,z,,,,,,,,,,,,,,,,,,,,,,,,,,,,,,,,,,,,,,,,,,,,,,,,,,,,,,,,,,,,,,,
,,,,,,,,,,,,,,,,,5d951d9419479d00155e7140,27,2022-02-12_13h38.20.320,lexical_decision_task_DD,2021.2.3,iPhone,58.82352941,,0,-0.371428571,-0.315306122,1,0,0,0.559,button_left,0.559,1,0,8,8,9,1,1001,FARINY,z,,,,,,,,,,,,,,,,,,,,,,,,,,,,,,,,,,,,,,,,,,,,,,,,,,,,,,,,,,,,,,,
,,,,,,,,,,,,,,,,,5d951d9419479d00155e7140,27,2022-02-12_13h38.20.320,lexical_decision_task_DD,2021.2.3,iPhone,58.82352941,,0,-0.403061224,-0.274489796,1,0,0,0.578,button_left,0.578,1,0,9,9,14,1,1001,THRALE,z,,,,,,,,,,,,,,,,,,,,,,,,,,,,,,,,,,,,,,,,,,,,,,,,,,,,,,,,,,,,,,,
,,,,,,,,,,,,,,,,,5d951d9419479d00155e7140,27,2022-02-12_13h38.20.320,lexical_decision_task_DD,2021.2.3,iPhone,58.82352941,,0,-0.425510204,-0.278571429,1,0,0,0.622,button_left,0.622,1,0,10,10,13,1,1001,ROUPET,z,,,,,,,,,,,,,,,,,,,,,,,,,,,,,,,,,,,,,,,,,,,,,,,,,,,,,,,,,,,,,,,
,,,,,,,,,,,,,,,,,5d951d9419479d00155e7140,27,2022-02-12_13h38.20.320,lexical_decision_task_DD,2021.2.3,iPhone,58.82352941,,0,0.384693878,-0.253061224,1,0,0,0.578,button_right,0.578,1,0,11,11,3,1,1001,MATRIX,m,,,,,,,,,,,,,,,,,,,,,,,,,,,,,,,,,,,,,,,,,,,,,,,,,,,,,,,,,,,,,,,
,,,,,,,,,,,,,,,,,5d951d9419479d00155e7140,27,2022-02-12_13h38.20.320,lexical_decision_task_DD,2021.2.3,iPhone,58.82352941,,0,0.384693878,-0.270408163,1,0,0,0.567,button_right,0.567,1,0,12,12,7,1,1001,VOLUME,m,,,,,,,,,,,,,,,,,,,,,,,,,,,,,,,,,,,,,,,,,,,,,,,,,,,,,,,,,,,,,,,
,,,,,,,,,,,,,,,,,5d951d9419479d00155e7140,27,2022-02-12_13h38.20.320,lexical_decision_task_DD,2021.2.3,iPhone,58.82352941,,0,0.389795918,-0.297959184,1,0,0,0.552,button_right,0.552,1,0,13,13,4,1,1001,SQUEAK,m,,,,,,,,,,,,,,,,,,,,,,,,,,,,,,,,,,,,,,,,,,,,,,,,,,,,,,,,,,,,,,,
,,,,,,,,,,,,,,,,,5d951d9419479d00155e7140,27,2022-02-12_13h38.20.320,lexical_decision_task_DD,2021.2.3,iPhone,58.82352941,,0,-0.405102041,-0.298979592,1,0,0,0.667,button_left,0.667,1,0,14,14,8,1,1001,ASLERT,z,,,,,,,,,,,,,,,,,,,,,,,,,,,,,,,,,,,,,,,,,,,,,,,,,,,,,,,,,,,,,,,
,,,,,,,,,,,,,,,,,5d951d9419479d00155e7140,27,2022-02-12_13h38.20.320,lexical_decision_task_DD,2021.2.3,iPhone,58.82352941,,0,0.362244898,-0.333673469,1,0,0,0.658,button_right,0.658,1,0,15,15,1,1,1001,ADJUST,m,,,,,,,,,,,,,,,,,,,,,,,,,,,,,,,,,,,,,,,,,,,,,,,,,,,,,,,,,,,,,,,
,-0.103061224,-0.390816327,1,0,0,instr_done_button,,,,,,1,end_of_practice,"You have completed the practice trials. During the experimental trials, you will not receive feedback. 
Before you begin, please ensure that you are in a comfortable and quiet location and will not be disturbed for about 15 minutes, as we cannot use your data if you do not complete all the trials. 
 When you are ready to start the experimental trials, please press space or touch the button below.",,,5d951d9419479d00155e7140,27,2022-02-12_13h38.20.320,lexical_decision_task_DD,2021.2.3,iPhone,58.82352941,,,,,,,,,,,,,,,,,,,,0,0,0,0,1,,,,,,,,,,,,,,,,,,,,,,,,,,,,,,,,,,,,,,,,,,,,,,,,,,,,,,,,,,
,,,,,,,,,,,,,,,,,5d951d9419479d00155e7140,27,2022-02-12_13h38.20.320,lexical_decision_task_DD,2021.2.3,iPhone,58.82352941,,,,,,,,,,1.21,0,,,,,,,,,,,,,,,0,0.320408163,-0.260204082,1,0,0,1.21,button_right_main,0.320408163,-0.260204082,1,0,0,,0,0,0,154,1,THINT,HB,old,z,./images/THINTHB.png,,,,,,,,,,,,,,,,,,,,,,,,,,,,,,,,,
,,,,,,,,,,,,,,,,,5d951d9419479d00155e7140,27,2022-02-12_13h38.20.320,lexical_decision_task_DD,2021.2.3,iPhone,58.82352941,,,,,,,,,,0.884,1,,,,,,,,,,,,,,,0,-0.335714286,-0.314285714,1,0,0,0.884,button_left_main,-0.335714286,-0.314285714,1,0,0,,0,1,1,122,1,BLOOT,LB,old,z,./images/BLOOTLB.png,,,,,,,,,,,,,,,,,,,,,,,,,,,,,,,,,
,,,,,,,,,,,,,,,,,5d951d9419479d00155e7140,27,2022-02-12_13h38.20.320,lexical_decision_task_DD,2021.2.3,iPhone,58.82352941,,,,,,,,,,1.42,1,,,,,,,,,,,,,,,0,0.318367347,-0.292857143,1,0,0,1.42,button_right_main,0.318367347,-0.292857143,1,0,0,,0,2,2,61,1,CANDLE,HB,old,m,./images/CANDLEHB.png,,,,,,,,,,,,,,,,,,,,,,,,,,,,,,,,,
,,,,,,,,,,,,,,,,,5d951d9419479d00155e7140,27,2022-02-12_13h38.20.320,lexical_decision_task_DD,2021.2.3,iPhone,58.82352941,,,,,,,,,,0.871,1,,,,,,,,,,,,,,,0,0.295918367,-0.35,1,0,0,0.871,button_right_main,0.295918367,-0.35,1,0,0,,0,3,3,83,1,JUNGLE,LB,old,m,./images/JUNGLELB.png,,,,,,,,,,,,,,,,,,,,,,,,,,,,,,,,,
,,,,,,,,,,,,,,,,,5d951d9419479d00155e7140,27,2022-02-12_13h38.20.320,lexical_decision_task_DD,2021.2.3,iPhone,58.82352941,,,,,,,,,,0.642,1,,,,,,,,,,,,,,,0,-0.382653061,-0.262244898,1,0,0,0.642,button_left_main,-0.382653061,-0.262244898,1,0,0,,0,4,4,134,1,TROSS,LB,old,z,./images/TROSSLB.png,,,,,,,,,,,,,,,,,,,,,,,,,,,,,,,,,
,,,,,,,,,,,,,,,,,5d951d9419479d00155e7140,27,2022-02-12_13h38.20.320,lexical_decision_task_DD,2021.2.3,iPhone,58.82352941,,,,,,,,,,0.831,1,,,,,,,,,,,,,,,0,0.396938776,-0.32244898,1,0,0,0.831,button_right_main,0.396938776,-0.32244898,1,0,0,,0,5,5,52,1,BANNER,HB,old,m,./images/BANNERHB.png,,,,,,,,,,,,,,,,,,,,,,,,,,,,,,,,,
,,,,,,,,,,,,,,,,,5d951d9419479d00155e7140,27,2022-02-12_13h38.20.320,lexical_decision_task_DD,2021.2.3,iPhone,58.82352941,,,,,,,,,,0.671,1,,,,,,,,,,,,,,,0,-0.416326531,-0.271428571,1,0,0,0.671,button_left_main,-0.416326531,-0.271428571,1,0,0,,0,6,6,125,1,MOOKY,LB,old,z,./images/MOOKYLB.png,,,,,,,,,,,,,,,,,,,,,,,,,,,,,,,,,
,,,,,,,,,,,,,,,,,5d951d9419479d00155e7140,27,2022-02-12_13h38.20.320,lexical_decision_task_DD,2021.2.3,iPhone,58.82352941,,,,,,,,,,0.722,1,,,,,,,,,,,,,,,0,0.35,-0.336734694,1,0,0,0.722,button_right_main,0.35,-0.336734694,1,0,0,,0,7,7,77,1,COUCH,LB,old,m,./images/COUCHLB.png,,,,,,,,,,,,,,,,,,,,,,,,,,,,,,,,,
,,,,,,,,,,,,,,,,,5d951d9419479d00155e7140,27,2022-02-12_13h38.20.320,lexical_decision_task_DD,2021.2.3,iPhone,58.82352941,,,,,,,,,,0.518,1,,,,,,,,,,,,,,,0,0.33877551,-0.325510204,1,0,0,0.518,button_right_main,0.33877551,-0.325510204,1,0,0,,0,8,8,71,1,PIMPLE,LB,old,m,./images/PIMPLELB.png,,,,,,,,,,,,,,,,,,,,,,,,,,,,,,,,,
,,,,,,,,,,,,,,,,,5d951d9419479d00155e7140,27,2022-02-12_13h38.20.320,lexical_decision_task_DD,2021.2.3,iPhone,58.82352941,,,,,,,,,,0.588,1,,,,,,,,,,,,,,,0,-0.37755102,-0.28877551,1,0,0,0.588,button_left_main,-0.37755102,-0.28877551,1,0,0,,0,9,9,93,1,SMONE,C,old,z,./images/SMONE.png,,,,,,,,,,,,,,,,,,,,,,,,,,,,,,,,,
,,,,,,,,,,,,,,,,,5d951d9419479d00155e7140,27,2022-02-12_13h38.20.320,lexical_decision_task_DD,2021.2.3,iPhone,58.82352941,,,,,,,,,,0.726,1,,,,,,,,,,,,,,,0,-0.393877551,-0.285714286,1,0,0,0.726,button_left_main,-0.393877551,-0.285714286,1,0,0,,0,10,10,107,1,FASKS,LB,old,z,./images/FASKSLB.png,,,,,,,,,,,,,,,,,,,,,,,,,,,,,,,,,
,,,,,,,,,,,,,,,,,5d951d9419479d00155e7140,27,2022-02-12_13h38.20.320,lexical_decision_task_DD,2021.2.3,iPhone,58.82352941,,,,,,,,,,0.598,1,,,,,,,,,,,,,,,0,-0.376530612,-0.309183673,1,0,0,0.598,button_left_main,-0.376530612,-0.309183673,1,0,0,,0,11,11,117,1,STEEG,C,old,z,./images/STEEG.png,,,,,,,,,,,,,,,,,,,,,,,,,,,,,,,,,
,,,,,,,,,,,,,,,,,5d951d9419479d00155e7140,27,2022-02-12_13h38.20.320,lexical_decision_task_DD,2021.2.3,iPhone,58.82352941,,,,,,,,,,1.123,1,,,,,,,,,,,,,,,0,0.366326531,-0.303061224,1,0,0,1.123,button_right_main,0.366326531,-0.303061224,1,0,0,,0,12,12,4,1,MUSCLE,HB,old,m,./images/MUSCLEHB.png,,,,,,,,,,,,,,,,,,,,,,,,,,,,,,,,,
,,,,,,,,,,,,,,,,,5d951d9419479d00155e7140,27,2022-02-12_13h38.20.320,lexical_decision_task_DD,2021.2.3,iPhone,58.82352941,,,,,,,,,,0.485,1,,,,,,,,,,,,,,,0,0.371428571,-0.301020408,1,0,0,0.485,button_right_main,0.371428571,-0.301020408,1,0,0,,0,13,13,56,1,PACKET,LB,old,m,./images/PACKETLB.png,,,,,,,,,,,,,,,,,,,,,,,,,,,,,,,,,
,,,,,,,,,,,,,,,,,5d951d9419479d00155e7140,27,2022-02-12_13h38.20.320,lexical_decision_task_DD,2021.2.3,iPhone,58.82352941,,,,,,,,,,0.772,1,,,,,,,,,,,,,,,0,0.37244898,-0.296938776,1,0,0,0.772,button_right_main,0.37244898,-0.296938776,1,0,0,,0,14,14,69,1,COOKER,C,old,m,./images/COOKER.png,,,,,,,,,,,,,,,,,,,,,,,,,,,,,,,,,
,,,,,,,,,,,,,,,,,5d951d9419479d00155e7140,27,2022-02-12_13h38.20.320,lexical_decision_task_DD,2021.2.3,iPhone,58.82352941,,,,,,,,,,0.692,1,,,,,,,,,,,,,,,0,-0.389795918,-0.286734694,1,0,0,0.692,button_left_main,-0.389795918,-0.286734694,1,0,0,,0,15,15,103,1,FLORT,HB,old,z,./images/FLORTHB.png,,,,,,,,,,,,,,,,,,,,,,,,,,,,,,,,,
,,,,,,,,,,,,,,,,,5d951d9419479d00155e7140,27,2022-02-12_13h38.20.320,lexical_decision_task_DD,2021.2.3,iPhone,58.82352941,,,,,,,,,,0.524,1,,,,,,,,,,,,,,,0,0.36122449,-0.310204082,1,0,0,0.524,button_right_main,0.36122449,-0.310204082,1,0,0,,0,16,16,38,1,LADDER,LB,old,m,./images/LADDERLB.png,,,,,,,,,,,,,,,,,,,,,,,,,,,,,,,,,
,,,,,,,,,,,,,,,,,5d951d9419479d00155e7140,27,2022-02-12_13h38.20.320,lexical_decision_task_DD,2021.2.3,iPhone,58.82352941,,,,,,,,,,1.244,1,,,,,,,,,,,,,,,0,-0.376530612,-0.305102041,1,0,0,1.244,button_left_main,-0.376530612,-0.305102041,1,0,0,,0,17,17,136,1,WERVE,HB,old,z,./images/WERVEHB.png,,,,,,,,,,,,,,,,,,,,,,,,,,,,,,,,,
,,,,,,,,,,,,,,,,,5d951d9419479d00155e7140,27,2022-02-12_13h38.20.320,lexical_decision_task_DD,2021.2.3,iPhone,58.82352941,,,,,,,,,,0.721,0,,,,,,,,,,,,,,,0,-0.374489796,-0.289795918,1,0,0,0.721,button_left_main,-0.374489796,-0.289795918,1,0,0,,0,18,18,23,1,WALRUS,LB,old,m,./images/WALRUSLB.png,,,,,,,,,,,,,,,,,,,,,,,,,,,,,,,,,
,,,,,,,,,,,,,,,,,5d951d9419479d00155e7140,27,2022-02-12_13h38.20.320,lexical_decision_task_DD,2021.2.3,iPhone,58.82352941,,,,,,,,,,0.671,1,,,,,,,,,,,,,,,0,0.346938776,-0.248979592,1,0,0,0.671,button_right_main,0.346938776,-0.248979592,1,0,0,,0,19,19,22,1,MELON,HB,old,m,./images/MELONHB.png,,,,,,,,,,,,,,,,,,,,,,,,,,,,,,,,,
,,,,,,,,,,,,,,,,,5d951d9419479d00155e7140,27,2022-02-12_13h38.20.320,lexical_decision_task_DD,2021.2.3,iPhone,58.82352941,,,,,,,,,,0.554,1,,,,,,,,,,,,,,,0,0.38877551,-0.304081633,1,0,0,0.554,button_right_main,0.38877551,-0.304081633,1,0,0,,0,20,20,17,1,SKIING,LB,old,m,./images/SKIINGLB.png,,,,,,,,,,,,,,,,,,,,,,,,,,,,,,,,,
,,,,,,,,,,,,,,,,,5d951d9419479d00155e7140,27,2022-02-12_13h38.20.320,lexical_decision_task_DD,2021.2.3,iPhone,58.82352941,,,,,,,,,,1.366,1,,,,,,,,,,,,,,,0,0.344897959,-0.282653061,1,0,0,1.366,button_right_main,0.344897959,-0.282653061,1,0,0,,0,21,21,19,1,DOUGH,HB,old,m,./images/DOUGHHB.png,,,,,,,,,,,,,,,,,,,,,,,,,,,,,,,,,
,,,,,,,,,,,,,,,,,5d951d9419479d00155e7140,27,2022-02-12_13h38.20.320,lexical_decision_task_DD,2021.2.3,iPhone,58.82352941,,,,,,,,,,0.566,1,,,,,,,,,,,,,,,0,0.363265306,-0.279591837,1,0,0,0.566,button_right_main,0.363265306,-0.279591837,1,0,0,,0,22,22,53,1,CARPET,LB,old,m,./images/CARPETLB.png,,,,,,,,,,,,,,,,,,,,,,,,,,,,,,,,,
,,,,,,,,,,,,,,,,,5d951d9419479d00155e7140,27,2022-02-12_13h38.20.320,lexical_decision_task_DD,2021.2.3,iPhone,58.82352941,,,,,,,,,,0.635,1,,,,,,,,,,,,,,,0,0.363265306,-0.267346939,1,0,0,0.635,button_right_main,0.363265306,-0.267346939,1,0,0,,0,23,23,80,1,WEASEL,LB,old,m,./images/WEASELLB.png,,,,,,,,,,,,,,,,,,,,,,,,,,,,,,,,,
,,,,,,,,,,,,,,,,,5d951d9419479d00155e7140,27,2022-02-12_13h38.20.320,lexical_decision_task_DD,2021.2.3,iPhone,58.82352941,,,,,,,,,,0.771,0,,,,,,,,,,,,,,,0,-0.389795918,-0.270408163,1,0,0,0.771,button_left_main,-0.389795918,-0.270408163,1,0,0,,0,24,24,31,1,QUILL,HB,old,m,./images/QUILLHB.png,,,,,,,,,,,,,,,,,,,,,,,,,,,,,,,,,
,,,,,,,,,,,,,,,,,5d951d9419479d00155e7140,27,2022-02-12_13h38.20.320,lexical_decision_task_DD,2021.2.3,iPhone,58.82352941,,,,,,,,,,0.543,1,,,,,,,,,,,,,,,0,0.357142857,-0.269387755,1,0,0,0.543,button_right_main,0.357142857,-0.269387755,1,0,0,,0,25,25,14,1,PICKLE,LB,old,m,./images/PICKLELB.png,,,,,,,,,,,,,,,,,,,,,,,,,,,,,,,,,
,,,,,,,,,,,,,,,,,5d951d9419479d00155e7140,27,2022-02-12_13h38.20.320,lexical_decision_task_DD,2021.2.3,iPhone,58.82352941,,,,,,,,,,0.62,1,,,,,,,,,,,,,,,0,0.366326531,-0.25,1,0,0,0.62,button_right_main,0.366326531,-0.25,1,0,0,,0,26,26,10,1,BELLY,HB,old,m,./images/BELLYHB.png,,,,,,,,,,,,,,,,,,,,,,,,,,,,,,,,,
,,,,,,,,,,,,,,,,,5d951d9419479d00155e7140,27,2022-02-12_13h38.20.320,lexical_decision_task_DD,2021.2.3,iPhone,58.82352941,,,,,,,,,,0.518,1,,,,,,,,,,,,,,,0,0.346938776,-0.283673469,1,0,0,0.518,button_right_main,0.346938776,-0.283673469,1,0,0,,0,27,27,2,1,BEARD,LB,old,m,./images/BEARDLB.png,,,,,,,,,,,,,,,,,,,,,,,,,,,,,,,,,
,,,,,,,,,,,,,,,,,5d951d9419479d00155e7140,27,2022-02-12_13h38.20.320,lexical_decision_task_DD,2021.2.3,iPhone,58.82352941,,,,,,,,,,0.651,1,,,,,,,,,,,,,,,0,0.351020408,-0.262244898,1,0,0,0.651,button_right_main,0.351020408,-0.262244898,1,0,0,,0,28,28,55,1,MUFFIN,HB,old,m,./images/MUFFINHB.png,,,,,,,,,,,,,,,,,,,,,,,,,,,,,,,,,
,,,,,,,,,,,,,,,,,5d951d9419479d00155e7140,27,2022-02-12_13h38.20.320,lexical_decision_task_DD,2021.2.3,iPhone,58.82352941,,,,,,,,,,0.473,1,,,,,,,,,,,,,,,0,0.346938776,-0.271428571,1,0,0,0.473,button_right_main,0.346938776,-0.271428571,1,0,0,,0,29,29,60,1,TWINS,C,old,m,./images/TWINS.png,,,,,,,,,,,,,,,,,,,,,,,,,,,,,,,,,
,,,,,,,,,,,,,,,,,5d951d9419479d00155e7140,27,2022-02-12_13h38.20.320,lexical_decision_task_DD,2021.2.3,iPhone,58.82352941,,,,,,,,,,0.486,1,,,,,,,,,,,,,,,0,0.348979592,-0.27755102,1,0,0,0.486,button_right_main,0.348979592,-0.27755102,1,0,0,,0,30,30,26,1,SMOKER,LB,old,m,./images/SMOKERLB.png,,,,,,,,,,,,,,,,,,,,,,,,,,,,,,,,,
,,,,,,,,,,,,,,,,,5d951d9419479d00155e7140,27,2022-02-12_13h38.20.320,lexical_decision_task_DD,2021.2.3,iPhone,58.82352941,,,,,,,,,,0.557,1,,,,,,,,,,,,,,,0,0.339795918,-0.282653061,1,0,0,0.557,button_right_main,0.339795918,-0.282653061,1,0,0,,0,31,31,45,1,KITTEN,C,old,m,./images/KITTEN.png,,,,,,,,,,,,,,,,,,,,,,,,,,,,,,,,,
,,,,,,,,,,,,,,,,,5d951d9419479d00155e7140,27,2022-02-12_13h38.20.320,lexical_decision_task_DD,2021.2.3,iPhone,58.82352941,,,,,,,,,,0.751,1,,,,,,,,,,,,,,,0,0.389795918,-0.182653061,1,0,0,0.751,button_right_main,0.337755102,-0.225510204,1,0,0,,0,32,32,32,1,BARREL,LB,old,m,./images/BARRELLB.png,,,,,,,,,,,,,,,,,,,,,,,,,,,,,,,,,
,,,,,,,,,,,,,,,,,5d951d9419479d00155e7140,27,2022-02-12_13h38.20.320,lexical_decision_task_DD,2021.2.3,iPhone,58.82352941,,,,,,,,,,0.652,1,,,,,,,,,,,,,,,0,-0.384693878,-0.270408163,1,0,0,0.652,button_left_main,-0.384693878,-0.270408163,1,0,0,,0,33,33,116,1,BALGY,LB,old,z,./images/BALGYLB.png,,,,,,,,,,,,,,,,,,,,,,,,,,,,,,,,,
,,,,,,,,,,,,,,,,,5d951d9419479d00155e7140,27,2022-02-12_13h38.20.320,lexical_decision_task_DD,2021.2.3,iPhone,58.82352941,,,,,,,,,,0.65,1,,,,,,,,,,,,,,,0,0.359183673,-0.255102041,1,0,0,0.65,button_right_main,0.359183673,-0.255102041,1,0,0,,0,34,34,46,1,PEARL,HB,old,m,./images/PEARLHB.png,,,,,,,,,,,,,,,,,,,,,,,,,,,,,,,,,
,,,,,,,,,,,,,,,,,5d951d9419479d00155e7140,27,2022-02-12_13h38.20.320,lexical_decision_task_DD,2021.2.3,iPhone,58.82352941,,,,,,,,,,1.187,1,,,,,,,,,,,,,,,0,-0.389795918,-0.27244898,1,0,0,1.187,button_left_main,-0.389795918,-0.27244898,1,0,0,,0,35,35,148,1,JOMS,HB,old,z,./images/JOMSHB.png,,,,,,,,,,,,,,,,,,,,,,,,,,,,,,,,,
,,,,,,,,,,,,,,,,,5d951d9419479d00155e7140,27,2022-02-12_13h38.20.320,lexical_decision_task_DD,2021.2.3,iPhone,58.82352941,,,,,,,,,,0.579,1,,,,,,,,,,,,,,,0,0.363265306,-0.258163265,1,0,0,0.579,button_right_main,0.363265306,-0.258163265,1,0,0,,0,36,36,3,1,FINGER,C,old,m,./images/FINGER.png,,,,,,,,,,,,,,,,,,,,,,,,,,,,,,,,,
,,,,,,,,,,,,,,,,,5d951d9419479d00155e7140,27,2022-02-12_13h38.20.320,lexical_decision_task_DD,2021.2.3,iPhone,58.82352941,,,,,,,,,,0.725,1,,,,,,,,,,,,,,,0,-0.385714286,-0.286734694,1,0,0,0.725,button_left_main,-0.385714286,-0.286734694,1,0,0,,0,37,37,151,1,TINKY,HB,old,z,./images/TINKYHB.png,,,,,,,,,,,,,,,,,,,,,,,,,,,,,,,,,
,,,,,,,,,,,,,,,,,5d951d9419479d00155e7140,27,2022-02-12_13h38.20.320,lexical_decision_task_DD,2021.2.3,iPhone,58.82352941,,,,,,,,,,0.502,1,,,,,,,,,,,,,,,0,0.352040816,-0.258163265,1,0,0,0.502,button_right_main,0.352040816,-0.258163265,1,0,0,,0,38,38,9,1,RHINO,C,old,m,./images/RHINO.png,,,,,,,,,,,,,,,,,,,,,,,,,,,,,,,,,
,,,,,,,,,,,,,,,,,5d951d9419479d00155e7140,27,2022-02-12_13h38.20.320,lexical_decision_task_DD,2021.2.3,iPhone,58.82352941,,,,,,,,,,0.662,1,,,,,,,,,,,,,,,0,-0.386734694,-0.283673469,1,0,0,0.662,button_left_main,-0.386734694,-0.283673469,1,0,0,,0,39,39,105,1,MOKER,C,old,z,./images/MOKER.png,,,,,,,,,,,,,,,,,,,,,,,,,,,,,,,,,
,,,,,,,,,,,,,,,,,5d951d9419479d00155e7140,27,2022-02-12_13h38.20.320,lexical_decision_task_DD,2021.2.3,iPhone,58.82352941,,,,,,,,,,3.458,1,,,,,,,,,,,,,,,0,0.368367347,-0.253061224,1,0,0,3.458,button_right_main,0.368367347,-0.253061224,1,0,0,,0,40,40,51,1,ONION,C,old,m,./images/ONION.png,,,,,,,,,,,,,,,,,,,,,,,,,,,,,,,,,
,,,,,,,,,,,,,,,,,5d951d9419479d00155e7140,27,2022-02-12_13h38.20.320,lexical_decision_task_DD,2021.2.3,iPhone,58.82352941,,,,,,,,,,0.621,1,,,,,,,,,,,,,,,0,-0.382653061,-0.284693878,1,0,0,0.621,button_left_main,-0.051020408,-0.416326531,1,0,0,,0,41,41,161,1,BLAPS,LB,old,z,./images/BLAPSLB.png,break_done_button,,,,,,,,,,,,,,,,,,,,,,,,,,,,,,,,
,,,,,,,,,,,,,,,,,5d951d9419479d00155e7140,27,2022-02-12_13h38.20.320,lexical_decision_task_DD,2021.2.3,iPhone,58.82352941,,,,,,,,,,0.573,1,,,,,,,,,,,,,,,0,0.429591837,-0.298979592,1,0,0,0.573,button_right_main,0.429591837,-0.298979592,1,0,0,,0,42,42,29,1,CRUMB,LB,old,m,./images/CRUMBLB.png,,,,,,,,,,,,,,,,,,,,,,,,,,,,,,,,,
,,,,,,,,,,,,,,,,,5d951d9419479d00155e7140,27,2022-02-12_13h38.20.320,lexical_decision_task_DD,2021.2.3,iPhone,58.82352941,,,,,,,,,,0.565,1,,,,,,,,,,,,,,,0,-0.410204082,-0.280612245,1,0,0,0.565,button_left_main,-0.410204082,-0.280612245,1,0,0,,0,43,43,149,1,VEASE,LB,old,z,./images/VEASELB.png,,,,,,,,,,,,,,,,,,,,,,,,,,,,,,,,,
,,,,,,,,,,,,,,,,,5d951d9419479d00155e7140,27,2022-02-12_13h38.20.320,lexical_decision_task_DD,2021.2.3,iPhone,58.82352941,,,,,,,,,,0.482,1,,,,,,,,,,,,,,,0,0.345918367,-0.337755102,1,0,0,0.482,button_right_main,0.345918367,-0.337755102,1,0,0,,0,44,44,33,1,MAGGOT,C,old,m,./images/MAGGOT.png,,,,,,,,,,,,,,,,,,,,,,,,,,,,,,,,,
,,,,,,,,,,,,,,,,,5d951d9419479d00155e7140,27,2022-02-12_13h38.20.320,lexical_decision_task_DD,2021.2.3,iPhone,58.82352941,,,,,,,,,,0.79,1,,,,,,,,,,,,,,,0,-0.352040816,-0.329591837,1,0,0,0.79,button_left_main,-0.352040816,-0.329591837,1,0,0,,0,45,45,121,1,CEERS,HB,old,z,./images/CEERSHB.png,,,,,,,,,,,,,,,,,,,,,,,,,,,,,,,,,
,,,,,,,,,,,,,,,,,5d951d9419479d00155e7140,27,2022-02-12_13h38.20.320,lexical_decision_task_DD,2021.2.3,iPhone,58.82352941,,,,,,,,,,0.474,1,,,,,,,,,,,,,,,0,0.37244898,-0.313265306,1,0,0,0.474,button_right_main,0.37244898,-0.313265306,1,0,0,,0,46,46,0,1,TOMATO,C,old,m,./images/TOMATO.png,,,,,,,,,,,,,,,,,,,,,,,,,,,,,,,,,
,,,,,,,,,,,,,,,,,5d951d9419479d00155e7140,27,2022-02-12_13h38.20.320,lexical_decision_task_DD,2021.2.3,iPhone,58.82352941,,,,,,,,,,0.484,1,,,,,,,,,,,,,,,0,0.374489796,-0.302040816,1,0,0,0.484,button_right_main,0.374489796,-0.302040816,1,0,0,,0,47,47,75,1,GRAIN,C,old,m,./images/GRAIN.png,,,,,,,,,,,,,,,,,,,,,,,,,,,,,,,,,
,,,,,,,,,,,,,,,,,5d951d9419479d00155e7140,27,2022-02-12_13h38.20.320,lexical_decision_task_DD,2021.2.3,iPhone,58.82352941,,,,,,,,,,0.489,1,,,,,,,,,,,,,,,0,0.37755102,-0.306122449,1,0,0,0.489,button_right_main,0.37755102,-0.306122449,1,0,0,,0,48,48,41,1,STRING,LB,old,m,./images/STRINGLB.png,,,,,,,,,,,,,,,,,,,,,,,,,,,,,,,,,
,,,,,,,,,,,,,,,,,5d951d9419479d00155e7140,27,2022-02-12_13h38.20.320,lexical_decision_task_DD,2021.2.3,iPhone,58.82352941,,,,,,,,,,0.635,1,,,,,,,,,,,,,,,0,0.382653061,-0.303061224,1,0,0,0.635,button_right_main,0.382653061,-0.303061224,1,0,0,,0,49,49,82,1,SUNSET,HB,old,m,./images/SUNSETHB.png,,,,,,,,,,,,,,,,,,,,,,,,,,,,,,,,,
,,,,,,,,,,,,,,,,,5d951d9419479d00155e7140,27,2022-02-12_13h38.20.320,lexical_decision_task_DD,2021.2.3,iPhone,58.82352941,,,,,,,,,,0.477,1,,,,,,,,,,,,,,,0,0.38877551,-0.313265306,1,0,0,0.477,button_right_main,0.38877551,-0.313265306,1,0,0,,0,50,50,20,1,CRADLE,LB,old,m,./images/CRADLELB.png,,,,,,,,,,,,,,,,,,,,,,,,,,,,,,,,,
,,,,,,,,,,,,,,,,,5d951d9419479d00155e7140,27,2022-02-12_13h38.20.320,lexical_decision_task_DD,2021.2.3,iPhone,58.82352941,,,,,,,,,,0.578,1,,,,,,,,,,,,,,,0,0.381632653,-0.3,1,0,0,0.578,button_right_main,0.381632653,-0.3,1,0,0,,0,51,51,62,1,PURSE,LB,old,m,./images/PURSELB.png,,,,,,,,,,,,,,,,,,,,,,,,,,,,,,,,,
,,,,,,,,,,,,,,,,,5d951d9419479d00155e7140,27,2022-02-12_13h38.20.320,lexical_decision_task_DD,2021.2.3,iPhone,58.82352941,,,,,,,,,,0.421,1,,,,,,,,,,,,,,,0,0.384693878,-0.285714286,1,0,0,0.421,button_right_main,0.384693878,-0.285714286,1,0,0,,0,52,52,6,1,SQUARE,C,old,m,./images/SQUARE.png,,,,,,,,,,,,,,,,,,,,,,,,,,,,,,,,,
,,,,,,,,,,,,,,,,,5d951d9419479d00155e7140,27,2022-02-12_13h38.20.320,lexical_decision_task_DD,2021.2.3,iPhone,58.82352941,,,,,,,,,,0.491,1,,,,,,,,,,,,,,,0,0.369387755,-0.303061224,1,0,0,0.491,button_right_main,0.369387755,-0.303061224,1,0,0,,0,53,53,13,1,MOTOR,HB,old,m,./images/MOTORHB.png,,,,,,,,,,,,,,,,,,,,,,,,,,,,,,,,,
,,,,,,,,,,,,,,,,,5d951d9419479d00155e7140,27,2022-02-12_13h38.20.320,lexical_decision_task_DD,2021.2.3,iPhone,58.82352941,,,,,,,,,,0.428,0,,,,,,,,,,,,,,,0,0.373469388,-0.296938776,1,0,0,0.428,button_right_main,0.373469388,-0.296938776,1,0,0,,0,54,54,90,1,NEAST,C,old,z,./images/NEAST.png,,,,,,,,,,,,,,,,,,,,,,,,,,,,,,,,,
,,,,,,,,,,,,,,,,,5d951d9419479d00155e7140,27,2022-02-12_13h38.20.320,lexical_decision_task_DD,2021.2.3,iPhone,58.82352941,,,,,,,,,,0.637,1,,,,,,,,,,,,,,,0,-0.385714286,-0.27755102,1,0,0,0.637,button_left_main,-0.385714286,-0.27755102,1,0,0,,0,55,55,95,1,HANTY,LB,old,z,./images/HANTYLB.png,,,,,,,,,,,,,,,,,,,,,,,,,,,,,,,,,
,,,,,,,,,,,,,,,,,5d951d9419479d00155e7140,27,2022-02-12_13h38.20.320,lexical_decision_task_DD,2021.2.3,iPhone,58.82352941,,,,,,,,,,0.77,1,,,,,,,,,,,,,,,0,-0.347959184,-0.28877551,1,0,0,0.77,button_left_main,-0.347959184,-0.28877551,1,0,0,,0,56,56,118,1,BAVEL,HB,old,z,./images/BAVELHB.png,,,,,,,,,,,,,,,,,,,,,,,,,,,,,,,,,
,,,,,,,,,,,,,,,,,5d951d9419479d00155e7140,27,2022-02-12_13h38.20.320,lexical_decision_task_DD,2021.2.3,iPhone,58.82352941,,,,,,,,,,0.657,1,,,,,,,,,,,,,,,0,-0.332653061,-0.319387755,1,0,0,0.657,button_left_main,-0.332653061,-0.319387755,1,0,0,,0,57,57,100,1,DRIBS,HB,old,z,./images/DRIBSHB.png,,,,,,,,,,,,,,,,,,,,,,,,,,,,,,,,,
,,,,,,,,,,,,,,,,,5d951d9419479d00155e7140,27,2022-02-12_13h38.20.320,lexical_decision_task_DD,2021.2.3,iPhone,58.82352941,,,,,,,,,,1.028,1,,,,,,,,,,,,,,,0,-0.303061224,-0.302040816,1,0,0,1.028,button_left_main,-0.303061224,-0.302040816,1,0,0,,0,58,58,87,1,TRING,C,old,z,./images/TRING.png,,,,,,,,,,,,,,,,,,,,,,,,,,,,,,,,,
,,,,,,,,,,,,,,,,,5d951d9419479d00155e7140,27,2022-02-12_13h38.20.320,lexical_decision_task_DD,2021.2.3,iPhone,58.82352941,,,,,,,,,,0.821,1,,,,,,,,,,,,,,,0,-0.286734694,-0.325510204,1,0,0,0.821,button_left_main,-0.286734694,-0.325510204,1,0,0,,0,59,59,133,1,POWDY,HB,old,z,./images/POWDYHB.png,,,,,,,,,,,,,,,,,,,,,,,,,,,,,,,,,
,,,,,,,,,,,,,,,,,5d951d9419479d00155e7140,27,2022-02-12_13h38.20.320,lexical_decision_task_DD,2021.2.3,iPhone,58.82352941,,,,,,,,,,0.81,1,,,,,,,,,,,,,,,0,-0.313265306,-0.340816327,1,0,0,0.81,button_left_main,-0.313265306,-0.340816327,1,0,0,,0,60,60,127,1,NINDY,HB,old,z,./images/NINDYHB.png,,,,,,,,,,,,,,,,,,,,,,,,,,,,,,,,,
,,,,,,,,,,,,,,,,,5d951d9419479d00155e7140,27,2022-02-12_13h38.20.320,lexical_decision_task_DD,2021.2.3,iPhone,58.82352941,,,,,,,,,,0.542,1,,,,,,,,,,,,,,,0,-0.321428571,-0.313265306,1,0,0,0.542,button_left_main,-0.321428571,-0.313265306,1,0,0,,0,61,61,108,1,GRUET,C,old,z,./images/GRUET.png,,,,,,,,,,,,,,,,,,,,,,,,,,,,,,,,,
,,,,,,,,,,,,,,,,,5d951d9419479d00155e7140,27,2022-02-12_13h38.20.320,lexical_decision_task_DD,2021.2.3,iPhone,58.82352941,,,,,,,,,,0.596,1,,,,,,,,,,,,,,,0,0.364285714,-0.301020408,1,0,0,0.596,button_right_main,0.364285714,-0.301020408,1,0,0,,0,62,62,37,1,BIRTH,HB,old,m,./images/BIRTHHB.png,,,,,,,,,,,,,,,,,,,,,,,,,,,,,,,,,
,,,,,,,,,,,,,,,,,5d951d9419479d00155e7140,27,2022-02-12_13h38.20.320,lexical_decision_task_DD,2021.2.3,iPhone,58.82352941,,,,,,,,,,0.487,1,,,,,,,,,,,,,,,0,0.366326531,-0.296938776,1,0,0,0.487,button_right_main,0.366326531,-0.296938776,1,0,0,,0,63,63,5,1,PASTA,LB,old,m,./images/PASTALB.png,,,,,,,,,,,,,,,,,,,,,,,,,,,,,,,,,
,,,,,,,,,,,,,,,,,5d951d9419479d00155e7140,27,2022-02-12_13h38.20.320,lexical_decision_task_DD,2021.2.3,iPhone,58.82352941,,,,,,,,,,0.84,1,,,,,,,,,,,,,,,0,-0.353061224,-0.293877551,1,0,0,0.84,button_left_main,-0.353061224,-0.293877551,1,0,0,,0,64,64,88,1,GLUSH,HB,old,z,./images/GLUSHHB.png,,,,,,,,,,,,,,,,,,,,,,,,,,,,,,,,,
,,,,,,,,,,,,,,,,,5d951d9419479d00155e7140,27,2022-02-12_13h38.20.320,lexical_decision_task_DD,2021.2.3,iPhone,58.82352941,,,,,,,,,,0.643,1,,,,,,,,,,,,,,,0,-0.286734694,-0.321428571,1,0,0,0.643,button_left_main,-0.286734694,-0.321428571,1,0,0,,0,65,65,97,1,CHIDS,HB,old,z,./images/CHIDSHB.png,,,,,,,,,,,,,,,,,,,,,,,,,,,,,,,,,
,,,,,,,,,,,,,,,,,5d951d9419479d00155e7140,27,2022-02-12_13h38.20.320,lexical_decision_task_DD,2021.2.3,iPhone,58.82352941,,,,,,,,,,0.605,1,,,,,,,,,,,,,,,0,-0.309183673,-0.310204082,1,0,0,0.605,button_left_main,-0.309183673,-0.310204082,1,0,0,,0,66,66,156,1,HIXES,C,old,z,./images/HIXES.png,,,,,,,,,,,,,,,,,,,,,,,,,,,,,,,,,
,,,,,,,,,,,,,,,,,5d951d9419479d00155e7140,27,2022-02-12_13h38.20.320,lexical_decision_task_DD,2021.2.3,iPhone,58.82352941,,,,,,,,,,0.636,1,,,,,,,,,,,,,,,0,0.373469388,-0.292857143,1,0,0,0.636,button_right_main,0.373469388,-0.292857143,1,0,0,,0,67,67,27,1,ATTIC,C,old,m,./images/ATTIC.png,,,,,,,,,,,,,,,,,,,,,,,,,,,,,,,,,
,,,,,,,,,,,,,,,,,5d951d9419479d00155e7140,27,2022-02-12_13h38.20.320,lexical_decision_task_DD,2021.2.3,iPhone,58.82352941,,,,,,,,,,0.535,1,,,,,,,,,,,,,,,0,-0.35,-0.292857143,1,0,0,0.535,button_left_main,-0.35,-0.292857143,1,0,0,,0,68,68,135,1,JOODY,C,old,z,./images/JOODY.png,,,,,,,,,,,,,,,,,,,,,,,,,,,,,,,,,
,,,,,,,,,,,,,,,,,5d951d9419479d00155e7140,27,2022-02-12_13h38.20.320,lexical_decision_task_DD,2021.2.3,iPhone,58.82352941,,,,,,,,,,0.552,1,,,,,,,,,,,,,,,0,-0.298979592,-0.32755102,1,0,0,0.552,button_left_main,-0.298979592,-0.32755102,1,0,0,,0,69,69,84,1,HAXES,C,old,z,./images/HAXES.png,,,,,,,,,,,,,,,,,,,,,,,,,,,,,,,,,
,,,,,,,,,,,,,,,,,5d951d9419479d00155e7140,27,2022-02-12_13h38.20.320,lexical_decision_task_DD,2021.2.3,iPhone,58.82352941,,,,,,,,,,0.6,1,,,,,,,,,,,,,,,0,-0.262244898,-0.33877551,1,0,0,0.6,button_left_main,-0.262244898,-0.33877551,1,0,0,,0,70,70,111,1,HOSSE,C,old,z,./images/HOSSE.png,,,,,,,,,,,,,,,,,,,,,,,,,,,,,,,,,
,,,,,,,,,,,,,,,,,5d951d9419479d00155e7140,27,2022-02-12_13h38.20.320,lexical_decision_task_DD,2021.2.3,iPhone,58.82352941,,,,,,,,,,0.604,1,,,,,,,,,,,,,,,0,0.376530612,-0.298979592,1,0,0,0.604,button_right_main,0.376530612,-0.298979592,1,0,0,,0,71,71,65,1,FARMER,LB,old,m,./images/FARMERLB.png,,,,,,,,,,,,,,,,,,,,,,,,,,,,,,,,,
,,,,,,,,,,,,,,,,,5d951d9419479d00155e7140,27,2022-02-12_13h38.20.320,lexical_decision_task_DD,2021.2.3,iPhone,58.82352941,,,,,,,,,,0.592,1,,,,,,,,,,,,,,,0,-0.297959184,-0.332653061,1,0,0,0.592,button_left_main,-0.297959184,-0.332653061,1,0,0,,0,72,72,147,1,ZOLES,C,old,z,./images/ZOLES.png,,,,,,,,,,,,,,,,,,,,,,,,,,,,,,,,,
,,,,,,,,,,,,,,,,,5d951d9419479d00155e7140,27,2022-02-12_13h38.20.320,lexical_decision_task_DD,2021.2.3,iPhone,58.82352941,,,,,,,,,,0.684,1,,,,,,,,,,,,,,,0,-0.321428571,-0.298979592,1,0,0,0.684,button_left_main,-0.321428571,-0.298979592,1,0,0,,0,73,73,128,1,GRIFT,LB,old,z,./images/GRIFTLB.png,,,,,,,,,,,,,,,,,,,,,,,,,,,,,,,,,
,,,,,,,,,,,,,,,,,5d951d9419479d00155e7140,27,2022-02-12_13h38.20.320,lexical_decision_task_DD,2021.2.3,iPhone,58.82352941,,,,,,,,,,0.775,1,,,,,,,,,,,,,,,0,0.38877551,-0.285714286,1,0,0,0.775,button_right_main,0.38877551,-0.285714286,1,0,0,,0,74,74,76,1,INFANT,HB,old,m,./images/INFANTHB.png,,,,,,,,,,,,,,,,,,,,,,,,,,,,,,,,,
,,,,,,,,,,,,,,,,,5d951d9419479d00155e7140,27,2022-02-12_13h38.20.320,lexical_decision_task_DD,2021.2.3,iPhone,58.82352941,,,,,,,,,,0.553,1,,,,,,,,,,,,,,,0,0.378571429,-0.294897959,1,0,0,0.553,button_right_main,0.378571429,-0.294897959,1,0,0,,0,75,75,48,1,SPORT,C,old,m,./images/SPORT.png,,,,,,,,,,,,,,,,,,,,,,,,,,,,,,,,,
,,,,,,,,,,,,,,,,,5d951d9419479d00155e7140,27,2022-02-12_13h38.20.320,lexical_decision_task_DD,2021.2.3,iPhone,58.82352941,,,,,,,,,,0.522,1,,,,,,,,,,,,,,,0,-0.312244898,-0.310204082,1,0,0,0.522,button_left_main,-0.312244898,-0.310204082,1,0,0,,0,76,76,89,1,DRIEK,LB,old,z,./images/DRIEKLB.png,,,,,,,,,,,,,,,,,,,,,,,,,,,,,,,,,
,,,,,,,,,,,,,,,,,5d951d9419479d00155e7140,27,2022-02-12_13h38.20.320,lexical_decision_task_DD,2021.2.3,iPhone,58.82352941,,,,,,,,,,0.678,1,,,,,,,,,,,,,,,0,-0.314285714,-0.286734694,1,0,0,0.678,button_left_main,-0.314285714,-0.286734694,1,0,0,,0,77,77,142,1,PLASK,HB,old,z,./images/PLASKHB.png,,,,,,,,,,,,,,,,,,,,,,,,,,,,,,,,,
,,,,,,,,,,,,,,,,,5d951d9419479d00155e7140,27,2022-02-12_13h38.20.320,lexical_decision_task_DD,2021.2.3,iPhone,58.82352941,,,,,,,,,,0.786,1,,,,,,,,,,,,,,,0,-0.292857143,-0.297959184,1,0,0,0.786,button_left_main,-0.292857143,-0.297959184,1,0,0,,0,78,78,163,1,GAMBA,HB,old,z,./images/GAMBAHB.png,,,,,,,,,,,,,,,,,,,,,,,,,,,,,,,,,
,,,,,,,,,,,,,,,,,5d951d9419479d00155e7140,27,2022-02-12_13h38.20.320,lexical_decision_task_DD,2021.2.3,iPhone,58.82352941,,,,,,,,,,0.758,1,,,,,,,,,,,,,,,0,0.362244898,-0.304081633,1,0,0,0.758,button_right_main,0.362244898,-0.304081633,1,0,0,,0,79,79,1,1,PLANK,HB,old,m,./images/PLANKHB.png,,,,,,,,,,,,,,,,,,,,,,,,,,,,,,,,,
,,,,,,,,,,,,,,,,,5d951d9419479d00155e7140,27,2022-02-12_13h38.20.320,lexical_decision_task_DD,2021.2.3,iPhone,58.82352941,,,,,,,,,,0.792,1,,,,,,,,,,,,,,,0,0.363265306,-0.295918367,1,0,0,0.792,button_right_main,0.363265306,-0.295918367,1,0,0,,0,80,80,70,1,URINE,HB,old,m,./images/URINEHB.png,,,,,,,,,,,,,,,,,,,,,,,,,,,,,,,,,
,,,,,,,,,,,,,,,,,5d951d9419479d00155e7140,27,2022-02-12_13h38.20.320,lexical_decision_task_DD,2021.2.3,iPhone,58.82352941,,,,,,,,,,0.909,1,,,,,,,,,,,,,,,0,-0.271428571,-0.313265306,1,0,0,0.909,button_left_main,-0.271428571,-0.313265306,1,0,0,,0,81,81,109,1,BURGE,HB,old,z,./images/BURGEHB.png,,,,,,,,,,,,,,,,,,,,,,,,,,,,,,,,,
,,,,,,,,,,,,,,,,,5d951d9419479d00155e7140,27,2022-02-12_13h38.20.320,lexical_decision_task_DD,2021.2.3,iPhone,58.82352941,,,,,,,,,,0.469,1,,,,,,,,,,,,,,,0,0.363265306,-0.297959184,1,0,0,0.469,button_right_main,0.363265306,-0.297959184,1,0,0,,0,82,82,47,1,BERRY,LB,old,m,./images/BERRYLB.png,,,,,,,,,,,,,,,,,,,,,,,,,,,,,,,,,
,,,,,,,,,,,,,,,,,5d951d9419479d00155e7140,27,2022-02-12_13h38.20.320,lexical_decision_task_DD,2021.2.3,iPhone,58.82352941,,,,,,,,,,1.127,1,,,,,,,,,,,,,,,0,-0.27244898,-0.312244898,1,0,0,1.127,button_left_main,0.103061224,-0.439795918,1,0,0,,0,83,83,157,1,INLER,HB,old,z,./images/INLERHB.png,break_done_button,,,,,,,,,,,,,,,,,,,,,,,,,,,,,,,,
,,,,,,,,,,,,,,,,,5d951d9419479d00155e7140,27,2022-02-12_13h38.20.320,lexical_decision_task_DD,2021.2.3,iPhone,58.82352941,,,,,,,,,,0.537,1,,,,,,,,,,,,,,,0,0.357142857,-0.320408163,1,0,0,0.537,button_right_main,0.357142857,-0.320408163,1,0,0,,0,84,84,57,1,MOOSE,C,old,m,./images/MOOSE.png,,,,,,,,,,,,,,,,,,,,,,,,,,,,,,,,,
,,,,,,,,,,,,,,,,,5d951d9419479d00155e7140,27,2022-02-12_13h38.20.320,lexical_decision_task_DD,2021.2.3,iPhone,58.82352941,,,,,,,,,,0.631,1,,,,,,,,,,,,,,,0,-0.359183673,-0.310204082,1,0,0,0.631,button_left_main,-0.359183673,-0.310204082,1,0,0,,0,85,85,129,1,PRANS,C,old,z,./images/PRANS.png,,,,,,,,,,,,,,,,,,,,,,,,,,,,,,,,,
,,,,,,,,,,,,,,,,,5d951d9419479d00155e7140,27,2022-02-12_13h38.20.320,lexical_decision_task_DD,2021.2.3,iPhone,58.82352941,,,,,,,,,,0.57,1,,,,,,,,,,,,,,,0,-0.354081633,-0.332653061,1,0,0,0.57,button_left_main,-0.354081633,-0.332653061,1,0,0,,0,86,86,113,1,LINEW,LB,old,z,./images/LINEWLB.png,,,,,,,,,,,,,,,,,,,,,,,,,,,,,,,,,
,,,,,,,,,,,,,,,,,5d951d9419479d00155e7140,27,2022-02-12_13h38.20.320,lexical_decision_task_DD,2021.2.3,iPhone,58.82352941,,,,,,,,,,0.619,0,,,,,,,,,,,,,,,0,-0.358163265,-0.310204082,1,0,0,0.619,button_left_main,-0.358163265,-0.310204082,1,0,0,,0,87,87,72,1,NOOSE,C,old,m,./images/NOOSE.png,,,,,,,,,,,,,,,,,,,,,,,,,,,,,,,,,
,,,,,,,,,,,,,,,,,5d951d9419479d00155e7140,27,2022-02-12_13h38.20.320,lexical_decision_task_DD,2021.2.3,iPhone,58.82352941,,,,,,,,,,0.504,1,,,,,,,,,,,,,,,0,-0.345918367,-0.304081633,1,0,0,0.504,button_left_main,-0.345918367,-0.304081633,1,0,0,,0,88,88,101,1,GLEET,LB,old,z,./images/GLEETLB.png,,,,,,,,,,,,,,,,,,,,,,,,,,,,,,,,,
,,,,,,,,,,,,,,,,,5d951d9419479d00155e7140,27,2022-02-12_13h38.20.320,lexical_decision_task_DD,2021.2.3,iPhone,58.82352941,,,,,,,,,,0.702,1,,,,,,,,,,,,,,,0,0.370408163,-0.286734694,1,0,0,0.702,button_right_main,0.370408163,-0.286734694,1,0,0,,0,89,89,50,1,MALLET,LB,old,m,./images/MALLETLB.png,,,,,,,,,,,,,,,,,,,,,,,,,,,,,,,,,
,,,,,,,,,,,,,,,,,5d951d9419479d00155e7140,27,2022-02-12_13h38.20.320,lexical_decision_task_DD,2021.2.3,iPhone,58.82352941,,,,,,,,,,0.568,1,,,,,,,,,,,,,,,0,0.376530612,-0.307142857,1,0,0,0.568,button_right_main,0.376530612,-0.307142857,1,0,0,,0,90,90,30,1,STORM,C,old,m,./images/STORM.png,,,,,,,,,,,,,,,,,,,,,,,,,,,,,,,,,
,,,,,,,,,,,,,,,,,5d951d9419479d00155e7140,27,2022-02-12_13h38.20.320,lexical_decision_task_DD,2021.2.3,iPhone,58.82352941,,,,,,,,,,0.516,1,,,,,,,,,,,,,,,0,0.371428571,-0.309183673,1,0,0,0.516,button_right_main,0.371428571,-0.309183673,1,0,0,,0,91,91,39,1,SHELF,C,old,m,./images/SHELF.png,,,,,,,,,,,,,,,,,,,,,,,,,,,,,,,,,
,,,,,,,,,,,,,,,,,5d951d9419479d00155e7140,27,2022-02-12_13h38.20.320,lexical_decision_task_DD,2021.2.3,iPhone,58.82352941,,,,,,,,,,0.478,1,,,,,,,,,,,,,,,0,-0.35,-0.317346939,1,0,0,0.478,button_left_main,-0.35,-0.317346939,1,0,0,,0,92,92,104,1,GITTY,LB,old,z,./images/GITTYLB.png,,,,,,,,,,,,,,,,,,,,,,,,,,,,,,,,,
,,,,,,,,,,,,,,,,,5d951d9419479d00155e7140,27,2022-02-12_13h38.20.320,lexical_decision_task_DD,2021.2.3,iPhone,58.82352941,,,,,,,,,,0.7,1,,,,,,,,,,,,,,,0,0.384693878,-0.301020408,1,0,0,0.7,button_right_main,0.384693878,-0.301020408,1,0,0,,0,93,93,73,1,SNACK,HB,old,m,./images/SNACKHB.png,,,,,,,,,,,,,,,,,,,,,,,,,,,,,,,,,
,,,,,,,,,,,,,,,,,5d951d9419479d00155e7140,27,2022-02-12_13h38.20.320,lexical_decision_task_DD,2021.2.3,iPhone,58.82352941,,,,,,,,,,0.6,1,,,,,,,,,,,,,,,0,-0.344897959,-0.321428571,1,0,0,0.6,button_left_main,-0.344897959,-0.321428571,1,0,0,,0,94,94,85,1,CHULK,HB,old,z,./images/CHULKHB.png,,,,,,,,,,,,,,,,,,,,,,,,,,,,,,,,,
,,,,,,,,,,,,,,,,,5d951d9419479d00155e7140,27,2022-02-12_13h38.20.320,lexical_decision_task_DD,2021.2.3,iPhone,58.82352941,,,,,,,,,,0.604,1,,,,,,,,,,,,,,,0,-0.339795918,-0.303061224,1,0,0,0.604,button_left_main,-0.339795918,-0.303061224,1,0,0,,0,95,95,155,1,CANGY,LB,old,z,./images/CANGYLB.png,,,,,,,,,,,,,,,,,,,,,,,,,,,,,,,,,
,,,,,,,,,,,,,,,,,5d951d9419479d00155e7140,27,2022-02-12_13h38.20.320,lexical_decision_task_DD,2021.2.3,iPhone,58.82352941,,,,,,,,,,0.531,1,,,,,,,,,,,,,,,0,0.378571429,-0.291836735,1,0,0,0.531,button_right_main,0.378571429,-0.291836735,1,0,0,,0,96,96,63,1,MIRROR,C,old,m,./images/MIRROR.png,,,,,,,,,,,,,,,,,,,,,,,,,,,,,,,,,
,,,,,,,,,,,,,,,,,5d951d9419479d00155e7140,27,2022-02-12_13h38.20.320,lexical_decision_task_DD,2021.2.3,iPhone,58.82352941,,,,,,,,,,1.338,1,,,,,,,,,,,,,,,0,-0.336734694,-0.304081633,1,0,0,1.338,button_left_main,-0.336734694,-0.304081633,1,0,0,,0,97,97,106,1,CLUMS,HB,old,z,./images/CLUMSHB.png,,,,,,,,,,,,,,,,,,,,,,,,,,,,,,,,,
,,,,,,,,,,,,,,,,,5d951d9419479d00155e7140,27,2022-02-12_13h38.20.320,lexical_decision_task_DD,2021.2.3,iPhone,58.82352941,,,,,,,,,,0.697,1,,,,,,,,,,,,,,,0,0.384693878,-0.301020408,1,0,0,0.697,button_right_main,0.384693878,-0.301020408,1,0,0,,0,98,98,15,1,GREASE,C,old,m,./images/GREASE.png,,,,,,,,,,,,,,,,,,,,,,,,,,,,,,,,,
,,,,,,,,,,,,,,,,,5d951d9419479d00155e7140,27,2022-02-12_13h38.20.320,lexical_decision_task_DD,2021.2.3,iPhone,58.82352941,,,,,,,,,,0.711,1,,,,,,,,,,,,,,,0,-0.355102041,-0.312244898,1,0,0,0.711,button_left_main,-0.355102041,-0.312244898,1,0,0,,0,99,99,145,1,LAMEL,HB,old,z,./images/LAMELHB.png,,,,,,,,,,,,,,,,,,,,,,,,,,,,,,,,,
,,,,,,,,,,,,,,,,,5d951d9419479d00155e7140,27,2022-02-12_13h38.20.320,lexical_decision_task_DD,2021.2.3,iPhone,58.82352941,,,,,,,,,,0.636,1,,,,,,,,,,,,,,,0,-0.366326531,-0.315306122,1,0,0,0.636,button_left_main,-0.366326531,-0.315306122,1,0,0,,0,100,100,138,1,PLICE,C,old,z,./images/PLICE.png,,,,,,,,,,,,,,,,,,,,,,,,,,,,,,,,,
,,,,,,,,,,,,,,,,,5d951d9419479d00155e7140,27,2022-02-12_13h38.20.320,lexical_decision_task_DD,2021.2.3,iPhone,58.82352941,,,,,,,,,,0.622,1,,,,,,,,,,,,,,,0,-0.348979592,-0.326530612,1,0,0,0.622,button_left_main,-0.348979592,-0.326530612,1,0,0,,0,101,101,165,1,TROWN,C,old,z,./images/TROWN.png,,,,,,,,,,,,,,,,,,,,,,,,,,,,,,,,,
,,,,,,,,,,,,,,,,,5d951d9419479d00155e7140,27,2022-02-12_13h38.20.320,lexical_decision_task_DD,2021.2.3,iPhone,58.82352941,,,,,,,,,,0.527,1,,,,,,,,,,,,,,,0,0.382653061,-0.306122449,1,0,0,0.527,button_right_main,0.382653061,-0.306122449,1,0,0,,0,102,102,35,1,PEACH,LB,old,m,./images/PEACHLB.png,,,,,,,,,,,,,,,,,,,,,,,,,,,,,,,,,
,,,,,,,,,,,,,,,,,5d951d9419479d00155e7140,27,2022-02-12_13h38.20.320,lexical_decision_task_DD,2021.2.3,iPhone,58.82352941,,,,,,,,,,0.538,1,,,,,,,,,,,,,,,0,-0.353061224,-0.314285714,1,0,0,0.538,button_left_main,-0.353061224,-0.314285714,1,0,0,,0,103,103,150,1,NOOLS,C,old,z,./images/NOOLS.png,,,,,,,,,,,,,,,,,,,,,,,,,,,,,,,,,
,,,,,,,,,,,,,,,,,5d951d9419479d00155e7140,27,2022-02-12_13h38.20.320,lexical_decision_task_DD,2021.2.3,iPhone,58.82352941,,,,,,,,,,0.703,1,,,,,,,,,,,,,,,0,-0.323469388,-0.314285714,1,0,0,0.703,button_left_main,-0.323469388,-0.314285714,1,0,0,,0,104,104,94,1,BLANS,HB,old,z,./images/BLANSHB.png,,,,,,,,,,,,,,,,,,,,,,,,,,,,,,,,,
,,,,,,,,,,,,,,,,,5d951d9419479d00155e7140,27,2022-02-12_13h38.20.320,lexical_decision_task_DD,2021.2.3,iPhone,58.82352941,,,,,,,,,,0.763,1,,,,,,,,,,,,,,,0,0.383673469,-0.298979592,1,0,0,0.763,button_right_main,0.383673469,-0.298979592,1,0,0,,0,105,105,49,1,DRUMS,HB,old,m,./images/DRUMSHB.png,,,,,,,,,,,,,,,,,,,,,,,,,,,,,,,,,
,,,,,,,,,,,,,,,,,5d951d9419479d00155e7140,27,2022-02-12_13h38.20.320,lexical_decision_task_DD,2021.2.3,iPhone,58.82352941,,,,,,,,,,0.598,1,,,,,,,,,,,,,,,0,0.38877551,-0.294897959,1,0,0,0.598,button_right_main,0.38877551,-0.294897959,1,0,0,,0,106,106,81,1,POODLE,C,old,m,./images/POODLE.png,,,,,,,,,,,,,,,,,,,,,,,,,,,,,,,,,
,,,,,,,,,,,,,,,,,5d951d9419479d00155e7140,27,2022-02-12_13h38.20.320,lexical_decision_task_DD,2021.2.3,iPhone,58.82352941,,,,,,,,,,0.536,1,,,,,,,,,,,,,,,0,-0.331632653,-0.314285714,1,0,0,0.536,button_left_main,-0.331632653,-0.314285714,1,0,0,,0,107,107,86,1,AIFED,LB,old,z,./images/AIFEDLB.png,,,,,,,,,,,,,,,,,,,,,,,,,,,,,,,,,
,,,,,,,,,,,,,,,,,5d951d9419479d00155e7140,27,2022-02-12_13h38.20.320,lexical_decision_task_DD,2021.2.3,iPhone,58.82352941,,,,,,,,,,1.277,1,,,,,,,,,,,,,,,0,-0.306122449,-0.32244898,1,0,0,1.277,button_left_main,-0.306122449,-0.32244898,1,0,0,,0,108,108,166,1,SHORY,HB,old,z,./images/SHORYHB.png,,,,,,,,,,,,,,,,,,,,,,,,,,,,,,,,,
,,,,,,,,,,,,,,,,,5d951d9419479d00155e7140,27,2022-02-12_13h38.20.320,lexical_decision_task_DD,2021.2.3,iPhone,58.82352941,,,,,,,,,,0.578,0,,,,,,,,,,,,,,,0,0.389795918,-0.293877551,1,0,0,0.578,button_right_main,0.389795918,-0.293877551,1,0,0,,0,109,109,123,1,SEDGE,C,old,z,./images/SEDGE.png,,,,,,,,,,,,,,,,,,,,,,,,,,,,,,,,,
,,,,,,,,,,,,,,,,,5d951d9419479d00155e7140,27,2022-02-12_13h38.20.320,lexical_decision_task_DD,2021.2.3,iPhone,58.82352941,,,,,,,,,,0.647,1,,,,,,,,,,,,,,,0,-0.294897959,-0.328571429,1,0,0,0.647,button_left_main,-0.294897959,-0.328571429,1,0,0,,0,110,110,158,1,EGECT,LB,old,z,./images/EGECTLB.png,,,,,,,,,,,,,,,,,,,,,,,,,,,,,,,,,
,,,,,,,,,,,,,,,,,5d951d9419479d00155e7140,27,2022-02-12_13h38.20.320,lexical_decision_task_DD,2021.2.3,iPhone,58.82352941,,,,,,,,,,1.226,1,,,,,,,,,,,,,,,0,-0.341836735,-0.309183673,1,0,0,1.226,button_left_main,-0.341836735,-0.309183673,1,0,0,,0,111,111,110,1,CRUNK,LB,old,z,./images/CRUNKLB.png,,,,,,,,,,,,,,,,,,,,,,,,,,,,,,,,,
,,,,,,,,,,,,,,,,,5d951d9419479d00155e7140,27,2022-02-12_13h38.20.320,lexical_decision_task_DD,2021.2.3,iPhone,58.82352941,,,,,,,,,,0.741,1,,,,,,,,,,,,,,,0,-0.336734694,-0.297959184,1,0,0,0.741,button_left_main,-0.336734694,-0.297959184,1,0,0,,0,112,112,143,1,MONGS,LB,old,z,./images/MONGSLB.png,,,,,,,,,,,,,,,,,,,,,,,,,,,,,,,,,
,,,,,,,,,,,,,,,,,5d951d9419479d00155e7140,27,2022-02-12_13h38.20.320,lexical_decision_task_DD,2021.2.3,iPhone,58.82352941,,,,,,,,,,0.654,1,,,,,,,,,,,,,,,0,-0.336734694,-0.316326531,1,0,0,0.654,button_left_main,-0.336734694,-0.316326531,1,0,0,,0,113,113,167,1,ZONET,LB,old,z,./images/ZONETLB.png,,,,,,,,,,,,,,,,,,,,,,,,,,,,,,,,,
,,,,,,,,,,,,,,,,,5d951d9419479d00155e7140,27,2022-02-12_13h38.20.320,lexical_decision_task_DD,2021.2.3,iPhone,58.82352941,,,,,,,,,,1.388,0,,,,,,,,,,,,,,,0,-0.326530612,-0.284693878,1,0,0,1.388,button_left_main,-0.326530612,-0.284693878,1,0,0,,0,114,114,16,1,PENCE,HB,old,m,./images/PENCEHB.png,,,,,,,,,,,,,,,,,,,,,,,,,,,,,,,,,
,,,,,,,,,,,,,,,,,5d951d9419479d00155e7140,27,2022-02-12_13h38.20.320,lexical_decision_task_DD,2021.2.3,iPhone,58.82352941,,,,,,,,,,0.595,1,,,,,,,,,,,,,,,0,-0.320408163,-0.31122449,1,0,0,0.595,button_left_main,-0.320408163,-0.31122449,1,0,0,,0,115,115,99,1,BACKY,C,old,z,./images/BACKY.png,,,,,,,,,,,,,,,,,,,,,,,,,,,,,,,,,
,,,,,,,,,,,,,,,,,5d951d9419479d00155e7140,27,2022-02-12_13h38.20.320,lexical_decision_task_DD,2021.2.3,iPhone,58.82352941,,,,,,,,,,0.63,1,,,,,,,,,,,,,,,0,-0.343877551,-0.290816327,1,0,0,0.63,button_left_main,-0.343877551,-0.290816327,1,0,0,,0,116,116,140,1,DOVET,LB,old,z,./images/DOVETLB.png,,,,,,,,,,,,,,,,,,,,,,,,,,,,,,,,,
,,,,,,,,,,,,,,,,,5d951d9419479d00155e7140,27,2022-02-12_13h38.20.320,lexical_decision_task_DD,2021.2.3,iPhone,58.82352941,,,,,,,,,,0.623,1,,,,,,,,,,,,,,,0,0.37244898,-0.303061224,1,0,0,0.623,button_right_main,0.37244898,-0.303061224,1,0,0,,0,117,117,21,1,KIDNEY,C,old,m,./images/KIDNEY.png,,,,,,,,,,,,,,,,,,,,,,,,,,,,,,,,,
,,,,,,,,,,,,,,,,,5d951d9419479d00155e7140,27,2022-02-12_13h38.20.320,lexical_decision_task_DD,2021.2.3,iPhone,58.82352941,,,,,,,,,,0.642,1,,,,,,,,,,,,,,,0,-0.340816327,-0.294897959,1,0,0,0.642,button_left_main,-0.340816327,-0.294897959,1,0,0,,0,118,118,115,1,MAWNS,HB,old,z,./images/MAWNSHB.png,,,,,,,,,,,,,,,,,,,,,,,,,,,,,,,,,
,,,,,,,,,,,,,,,,,5d951d9419479d00155e7140,27,2022-02-12_13h38.20.320,lexical_decision_task_DD,2021.2.3,iPhone,58.82352941,,,,,,,,,,0.654,1,,,,,,,,,,,,,,,0,0.378571429,-0.298979592,1,0,0,0.654,button_right_main,0.378571429,-0.298979592,1,0,0,,0,119,119,28,1,FALCON,HB,old,m,./images/FALCONHB.png,,,,,,,,,,,,,,,,,,,,,,,,,,,,,,,,,
,,,,,,,,,,,,,,,,,5d951d9419479d00155e7140,27,2022-02-12_13h38.20.320,lexical_decision_task_DD,2021.2.3,iPhone,58.82352941,,,,,,,,,,0.502,1,,,,,,,,,,,,,,,0,-0.328571429,-0.307142857,1,0,0,0.502,button_left_main,-0.328571429,-0.307142857,1,0,0,,0,120,120,132,1,SCIFF,C,old,z,./images/SCIFF.png,,,,,,,,,,,,,,,,,,,,,,,,,,,,,,,,,
,,,,,,,,,,,,,,,,,5d951d9419479d00155e7140,27,2022-02-12_13h38.20.320,lexical_decision_task_DD,2021.2.3,iPhone,58.82352941,,,,,,,,,,0.768,1,,,,,,,,,,,,,,,0,-0.332653061,-0.319387755,1,0,0,0.768,button_left_main,-0.332653061,-0.319387755,1,0,0,,0,121,121,139,1,BLEAR,HB,old,z,./images/BLEARHB.png,,,,,,,,,,,,,,,,,,,,,,,,,,,,,,,,,
,,,,,,,,,,,,,,,,,5d951d9419479d00155e7140,27,2022-02-12_13h38.20.320,lexical_decision_task_DD,2021.2.3,iPhone,58.82352941,,,,,,,,,,0.733,1,,,,,,,,,,,,,,,0,-0.343877551,-0.316326531,1,0,0,0.733,button_left_main,-0.343877551,-0.316326531,1,0,0,,0,122,122,130,1,CRILL,HB,old,z,./images/CRILLHB.png,,,,,,,,,,,,,,,,,,,,,,,,,,,,,,,,,
,,,,,,,,,,,,,,,,,5d951d9419479d00155e7140,27,2022-02-12_13h38.20.320,lexical_decision_task_DD,2021.2.3,iPhone,58.82352941,,,,,,,,,,0.633,1,,,,,,,,,,,,,,,0,-0.309183673,-0.326530612,1,0,0,0.633,button_left_main,-0.309183673,-0.326530612,1,0,0,,0,123,123,114,1,RIKES,C,old,z,./images/RIKES.png,,,,,,,,,,,,,,,,,,,,,,,,,,,,,,,,,
,,,,,,,,,,,,,,,,,5d951d9419479d00155e7140,27,2022-02-12_13h38.20.320,lexical_decision_task_DD,2021.2.3,iPhone,58.82352941,,,,,,,,,,0.786,1,,,,,,,,,,,,,,,0,0.380612245,-0.3,1,0,0,0.786,button_right_main,0.380612245,-0.3,1,0,0,,0,124,124,54,1,TRIPOD,C,old,m,./images/TRIPOD.png,,,,,,,,,,,,,,,,,,,,,,,,,,,,,,,,,
,,,,,,,,,,,,,,,,,5d951d9419479d00155e7140,27,2022-02-12_13h38.20.320,lexical_decision_task_DD,2021.2.3,iPhone,58.82352941,,,,,,,,,,0.636,1,,,,,,,,,,,,,,,0,0.366326531,-0.306122449,1,0,0,0.636,button_right_main,0.129591837,-0.397959184,1,0,0,,0,125,125,66,1,SWEAT,C,old,m,./images/SWEAT.png,break_done_button,,,,,,,,,,,,,,,,,,,,,,,,,,,,,,,,
,,,,,,,,,,,,,,,,,5d951d9419479d00155e7140,27,2022-02-12_13h38.20.320,lexical_decision_task_DD,2021.2.3,iPhone,58.82352941,,,,,,,,,,0.634,1,,,,,,,,,,,,,,,0,0.404081633,-0.318367347,1,0,0,0.634,button_right_main,0.404081633,-0.318367347,1,0,0,,0,126,126,59,1,BURIAL,LB,old,m,./images/BURIALLB.png,,,,,,,,,,,,,,,,,,,,,,,,,,,,,,,,,
,,,,,,,,,,,,,,,,,5d951d9419479d00155e7140,27,2022-02-12_13h38.20.320,lexical_decision_task_DD,2021.2.3,iPhone,58.82352941,,,,,,,,,,0.54,1,,,,,,,,,,,,,,,0,0.375510204,-0.307142857,1,0,0,0.54,button_right_main,0.375510204,-0.307142857,1,0,0,,0,127,127,44,1,LIZARD,LB,old,m,./images/LIZARDLB.png,,,,,,,,,,,,,,,,,,,,,,,,,,,,,,,,,
,,,,,,,,,,,,,,,,,5d951d9419479d00155e7140,27,2022-02-12_13h38.20.320,lexical_decision_task_DD,2021.2.3,iPhone,58.82352941,,,,,,,,,,0.621,1,,,,,,,,,,,,,,,0,0.367346939,-0.3,1,0,0,0.621,button_right_main,0.367346939,-0.3,1,0,0,,0,128,128,34,1,CANYON,HB,old,m,./images/CANYONHB.png,,,,,,,,,,,,,,,,,,,,,,,,,,,,,,,,,
,,,,,,,,,,,,,,,,,5d951d9419479d00155e7140,27,2022-02-12_13h38.20.320,lexical_decision_task_DD,2021.2.3,iPhone,58.82352941,,,,,,,,,,0.548,1,,,,,,,,,,,,,,,0,-0.35,-0.325510204,1,0,0,0.548,button_left_main,-0.35,-0.325510204,1,0,0,,0,129,129,126,1,GUELS,C,old,z,./images/GUELS.png,,,,,,,,,,,,,,,,,,,,,,,,,,,,,,,,,
,,,,,,,,,,,,,,,,,5d951d9419479d00155e7140,27,2022-02-12_13h38.20.320,lexical_decision_task_DD,2021.2.3,iPhone,58.82352941,,,,,,,,,,0.57,1,,,,,,,,,,,,,,,0,0.37755102,-0.294897959,1,0,0,0.57,button_right_main,0.37755102,-0.294897959,1,0,0,,0,130,130,64,1,JELLY,HB,old,m,./images/JELLYHB.png,,,,,,,,,,,,,,,,,,,,,,,,,,,,,,,,,
,,,,,,,,,,,,,,,,,5d951d9419479d00155e7140,27,2022-02-12_13h38.20.320,lexical_decision_task_DD,2021.2.3,iPhone,58.82352941,,,,,,,,,,0.586,1,,,,,,,,,,,,,,,0,0.385714286,-0.292857143,1,0,0,0.586,button_right_main,0.385714286,-0.292857143,1,0,0,,0,131,131,8,1,TULIP,LB,old,m,./images/TULIPLB.png,,,,,,,,,,,,,,,,,,,,,,,,,,,,,,,,,
,,,,,,,,,,,,,,,,,5d951d9419479d00155e7140,27,2022-02-12_13h38.20.320,lexical_decision_task_DD,2021.2.3,iPhone,58.82352941,,,,,,,,,,0.688,1,,,,,,,,,,,,,,,0,-0.35,-0.32244898,1,0,0,0.688,button_left_main,-0.35,-0.32244898,1,0,0,,0,132,132,146,1,MOOST,LB,old,z,./images/MOOSTLB.png,,,,,,,,,,,,,,,,,,,,,,,,,,,,,,,,,
,,,,,,,,,,,,,,,,,5d951d9419479d00155e7140,27,2022-02-12_13h38.20.320,lexical_decision_task_DD,2021.2.3,iPhone,58.82352941,,,,,,,,,,0.465,1,,,,,,,,,,,,,,,0,0.385714286,-0.305102041,1,0,0,0.465,button_right_main,0.385714286,-0.305102041,1,0,0,,0,133,133,78,1,LITTER,C,old,m,./images/LITTER.png,,,,,,,,,,,,,,,,,,,,,,,,,,,,,,,,,
,,,,,,,,,,,,,,,,,5d951d9419479d00155e7140,27,2022-02-12_13h38.20.320,lexical_decision_task_DD,2021.2.3,iPhone,58.82352941,,,,,,,,,,0.553,1,,,,,,,,,,,,,,,0,0.373469388,-0.302040816,1,0,0,0.553,button_right_main,0.373469388,-0.302040816,1,0,0,,0,134,134,12,1,SHORE,C,old,m,./images/SHORE.png,,,,,,,,,,,,,,,,,,,,,,,,,,,,,,,,,
,,,,,,,,,,,,,,,,,5d951d9419479d00155e7140,27,2022-02-12_13h38.20.320,lexical_decision_task_DD,2021.2.3,iPhone,58.82352941,,,,,,,,,,0.58,0,,,,,,,,,,,,,,,0,-0.351020408,-0.32244898,1,0,0,0.58,button_left_main,-0.351020408,-0.32244898,1,0,0,,0,135,135,43,1,MOSQUE,HB,old,m,./images/MOSQUEHB.png,,,,,,,,,,,,,,,,,,,,,,,,,,,,,,,,,
,,,,,,,,,,,,,,,,,5d951d9419479d00155e7140,27,2022-02-12_13h38.20.320,lexical_decision_task_DD,2021.2.3,iPhone,58.82352941,,,,,,,,,,0.471,1,,,,,,,,,,,,,,,0,0.379591837,-0.301020408,1,0,0,0.471,button_right_main,0.379591837,-0.301020408,1,0,0,,0,136,136,42,1,FOLDER,C,old,m,./images/FOLDER.png,,,,,,,,,,,,,,,,,,,,,,,,,,,,,,,,,
,,,,,,,,,,,,,,,,,5d951d9419479d00155e7140,27,2022-02-12_13h38.20.320,lexical_decision_task_DD,2021.2.3,iPhone,58.82352941,,,,,,,,,,0.546,1,,,,,,,,,,,,,,,0,0.366326531,-0.298979592,1,0,0,0.546,button_right_main,0.366326531,-0.298979592,1,0,0,,0,137,137,68,1,TORCH,LB,old,m,./images/TORCHLB.png,,,,,,,,,,,,,,,,,,,,,,,,,,,,,,,,,
,,,,,,,,,,,,,,,,,5d951d9419479d00155e7140,27,2022-02-12_13h38.20.320,lexical_decision_task_DD,2021.2.3,iPhone,58.82352941,,,,,,,,,,0.751,1,,,,,,,,,,,,,,,0,-0.321428571,-0.303061224,1,0,0,0.751,button_left_main,-0.321428571,-0.303061224,1,0,0,,0,138,138,124,1,TUNCH,HB,old,z,./images/TUNCHHB.png,,,,,,,,,,,,,,,,,,,,,,,,,,,,,,,,,
,,,,,,,,,,,,,,,,,5d951d9419479d00155e7140,27,2022-02-12_13h38.20.320,lexical_decision_task_DD,2021.2.3,iPhone,58.82352941,,,,,,,,,,0.529,0,,,,,,,,,,,,,,,0,0.38877551,-0.305102041,1,0,0,0.529,button_right_main,0.38877551,-0.305102041,1,0,0,,0,139,139,159,1,CUDDY,C,old,z,./images/CUDDY.png,,,,,,,,,,,,,,,,,,,,,,,,,,,,,,,,,
,,,,,,,,,,,,,,,,,5d951d9419479d00155e7140,27,2022-02-12_13h38.20.320,lexical_decision_task_DD,2021.2.3,iPhone,58.82352941,,,,,,,,,,0.64,1,,,,,,,,,,,,,,,0,-0.331632653,-0.307142857,1,0,0,0.64,button_left_main,-0.331632653,-0.307142857,1,0,0,,0,140,140,137,1,JOOST,LB,old,z,./images/JOOSTLB.png,,,,,,,,,,,,,,,,,,,,,,,,,,,,,,,,,
,,,,,,,,,,,,,,,,,5d951d9419479d00155e7140,27,2022-02-12_13h38.20.320,lexical_decision_task_DD,2021.2.3,iPhone,58.82352941,,,,,,,,,,0.457,1,,,,,,,,,,,,,,,0,0.370408163,-0.301020408,1,0,0,0.457,button_right_main,0.370408163,-0.301020408,1,0,0,,0,141,141,36,1,THROAT,C,old,m,./images/THROAT.png,,,,,,,,,,,,,,,,,,,,,,,,,,,,,,,,,
,,,,,,,,,,,,,,,,,5d951d9419479d00155e7140,27,2022-02-12_13h38.20.320,lexical_decision_task_DD,2021.2.3,iPhone,58.82352941,,,,,,,,,,1.719,1,,,,,,,,,,,,,,,0,0.37755102,-0.31122449,1,0,0,1.719,button_right_main,0.37755102,-0.31122449,1,0,0,,0,142,142,67,1,SAILOR,HB,old,m,./images/SAILORHB.png,,,,,,,,,,,,,,,,,,,,,,,,,,,,,,,,,
,,,,,,,,,,,,,,,,,5d951d9419479d00155e7140,27,2022-02-12_13h38.20.320,lexical_decision_task_DD,2021.2.3,iPhone,58.82352941,,,,,,,,,,0.635,1,,,,,,,,,,,,,,,0,-0.321428571,-0.332653061,1,0,0,0.635,button_left_main,-0.321428571,-0.332653061,1,0,0,,0,143,143,141,1,PLEET,C,old,z,./images/PLEET.png,,,,,,,,,,,,,,,,,,,,,,,,,,,,,,,,,
,,,,,,,,,,,,,,,,,5d951d9419479d00155e7140,27,2022-02-12_13h38.20.320,lexical_decision_task_DD,2021.2.3,iPhone,58.82352941,,,,,,,,,,0.668,1,,,,,,,,,,,,,,,0,-0.302040816,-0.329591837,1,0,0,0.668,button_left_main,-0.302040816,-0.329591837,1,0,0,,0,144,144,98,1,BAMPS,LB,old,z,./images/BAMPSLB.png,,,,,,,,,,,,,,,,,,,,,,,,,,,,,,,,,
,,,,,,,,,,,,,,,,,5d951d9419479d00155e7140,27,2022-02-12_13h38.20.320,lexical_decision_task_DD,2021.2.3,iPhone,58.82352941,,,,,,,,,,0.617,1,,,,,,,,,,,,,,,0,-0.328571429,-0.325510204,1,0,0,0.617,button_left_main,-0.328571429,-0.325510204,1,0,0,,0,145,145,119,1,PAFER,LB,old,z,./images/PAFERLB.png,,,,,,,,,,,,,,,,,,,,,,,,,,,,,,,,,
,,,,,,,,,,,,,,,,,5d951d9419479d00155e7140,27,2022-02-12_13h38.20.320,lexical_decision_task_DD,2021.2.3,iPhone,58.82352941,,,,,,,,,,0.565,1,,,,,,,,,,,,,,,0,0.378571429,-0.313265306,1,0,0,0.565,button_right_main,0.378571429,-0.313265306,1,0,0,,0,146,146,18,1,JAGUAR,C,old,m,./images/JAGUAR.png,,,,,,,,,,,,,,,,,,,,,,,,,,,,,,,,,
,,,,,,,,,,,,,,,,,5d951d9419479d00155e7140,27,2022-02-12_13h38.20.320,lexical_decision_task_DD,2021.2.3,iPhone,58.82352941,,,,,,,,,,0.76,1,,,,,,,,,,,,,,,0,0.375510204,-0.302040816,1,0,0,0.76,button_right_main,0.375510204,-0.302040816,1,0,0,,0,147,147,40,1,SWING,HB,old,m,./images/SWINGHB.png,,,,,,,,,,,,,,,,,,,,,,,,,,,,,,,,,
,,,,,,,,,,,,,,,,,5d951d9419479d00155e7140,27,2022-02-12_13h38.20.320,lexical_decision_task_DD,2021.2.3,iPhone,58.82352941,,,,,,,,,,0.835,1,,,,,,,,,,,,,,,0,-0.326530612,-0.35,1,0,0,0.835,button_left_main,-0.326530612,-0.35,1,0,0,,0,148,148,91,1,SHENS,HB,old,z,./images/SHENSHB.png,,,,,,,,,,,,,,,,,,,,,,,,,,,,,,,,,
,,,,,,,,,,,,,,,,,5d951d9419479d00155e7140,27,2022-02-12_13h38.20.320,lexical_decision_task_DD,2021.2.3,iPhone,58.82352941,,,,,,,,,,0.697,1,,,,,,,,,,,,,,,0,-0.339795918,-0.305102041,1,0,0,0.697,button_left_main,-0.339795918,-0.305102041,1,0,0,,0,149,149,162,1,LEICH,C,old,z,./images/LEICH.png,,,,,,,,,,,,,,,,,,,,,,,,,,,,,,,,,
,,,,,,,,,,,,,,,,,5d951d9419479d00155e7140,27,2022-02-12_13h38.20.320,lexical_decision_task_DD,2021.2.3,iPhone,58.82352941,,,,,,,,,,0.621,1,,,,,,,,,,,,,,,0,0.393877551,-0.290816327,1,0,0,0.621,button_right_main,0.393877551,-0.290816327,1,0,0,,0,150,150,24,1,SCREW,C,old,m,./images/SCREW.png,,,,,,,,,,,,,,,,,,,,,,,,,,,,,,,,,
,,,,,,,,,,,,,,,,,5d951d9419479d00155e7140,27,2022-02-12_13h38.20.320,lexical_decision_task_DD,2021.2.3,iPhone,58.82352941,,,,,,,,,,0.647,1,,,,,,,,,,,,,,,0,-0.336734694,-0.302040816,1,0,0,0.647,button_left_main,-0.336734694,-0.302040816,1,0,0,,0,151,151,152,1,FRAIN,LB,old,z,./images/FRAINLB.png,,,,,,,,,,,,,,,,,,,,,,,,,,,,,,,,,
,,,,,,,,,,,,,,,,,5d951d9419479d00155e7140,27,2022-02-12_13h38.20.320,lexical_decision_task_DD,2021.2.3,iPhone,58.82352941,,,,,,,,,,0.767,1,,,,,,,,,,,,,,,0,-0.326530612,-0.32244898,1,0,0,0.767,button_left_main,-0.326530612,-0.32244898,1,0,0,,0,152,152,92,1,PAIMS,LB,old,z,./images/PAIMSLB.png,,,,,,,,,,,,,,,,,,,,,,,,,,,,,,,,,
,,,,,,,,,,,,,,,,,5d951d9419479d00155e7140,27,2022-02-12_13h38.20.320,lexical_decision_task_DD,2021.2.3,iPhone,58.82352941,,,,,,,,,,0.566,1,,,,,,,,,,,,,,,0,-0.301020408,-0.325510204,1,0,0,0.566,button_left_main,-0.301020408,-0.325510204,1,0,0,,0,153,153,102,1,DULLE,C,old,z,./images/DULLE.png,,,,,,,,,,,,,,,,,,,,,,,,,,,,,,,,,
,,,,,,,,,,,,,,,,,5d951d9419479d00155e7140,27,2022-02-12_13h38.20.320,lexical_decision_task_DD,2021.2.3,iPhone,58.82352941,,,,,,,,,,0.623,1,,,,,,,,,,,,,,,0,0.363265306,-0.309183673,1,0,0,0.623,button_right_main,0.363265306,-0.309183673,1,0,0,,0,154,154,79,1,CRUST,HB,old,m,./images/CRUSTHB.png,,,,,,,,,,,,,,,,,,,,,,,,,,,,,,,,,
,,,,,,,,,,,,,,,,,5d951d9419479d00155e7140,27,2022-02-12_13h38.20.320,lexical_decision_task_DD,2021.2.3,iPhone,58.82352941,,,,,,,,,,0.612,1,,,,,,,,,,,,,,,0,0.359183673,-0.316326531,1,0,0,0.612,button_right_main,0.359183673,-0.316326531,1,0,0,,0,155,155,74,1,CEMENT,LB,old,m,./images/CEMENTLB.png,,,,,,,,,,,,,,,,,,,,,,,,,,,,,,,,,
,,,,,,,,,,,,,,,,,5d951d9419479d00155e7140,27,2022-02-12_13h38.20.320,lexical_decision_task_DD,2021.2.3,iPhone,58.82352941,,,,,,,,,,0.768,1,,,,,,,,,,,,,,,0,-0.325510204,-0.329591837,1,0,0,0.768,button_left_main,-0.325510204,-0.329591837,1,0,0,,0,156,156,153,1,CLUPS,C,old,z,./images/CLUPS.png,,,,,,,,,,,,,,,,,,,,,,,,,,,,,,,,,
,,,,,,,,,,,,,,,,,5d951d9419479d00155e7140,27,2022-02-12_13h38.20.320,lexical_decision_task_DD,2021.2.3,iPhone,58.82352941,,,,,,,,,,0.618,1,,,,,,,,,,,,,,,0,-0.343877551,-0.314285714,1,0,0,0.618,button_left_main,-0.343877551,-0.314285714,1,0,0,,0,157,157,131,1,NACES,LB,old,z,./images/NACESLB.png,,,,,,,,,,,,,,,,,,,,,,,,,,,,,,,,,
,,,,,,,,,,,,,,,,,5d951d9419479d00155e7140,27,2022-02-12_13h38.20.320,lexical_decision_task_DD,2021.2.3,iPhone,58.82352941,,,,,,,,,,0.64,1,,,,,,,,,,,,,,,0,-0.332653061,-0.307142857,1,0,0,0.64,button_left_main,-0.332653061,-0.307142857,1,0,0,,0,158,158,160,1,VEETS,HB,old,z,./images/VEETSHB.png,,,,,,,,,,,,,,,,,,,,,,,,,,,,,,,,,
,,,,,,,,,,,,,,,,,5d951d9419479d00155e7140,27,2022-02-12_13h38.20.320,lexical_decision_task_DD,2021.2.3,iPhone,58.82352941,,,,,,,,,,0.711,1,,,,,,,,,,,,,,,0,0.359183673,-0.312244898,1,0,0,0.711,button_right_main,0.359183673,-0.312244898,1,0,0,,0,159,159,58,1,BABOON,HB,old,m,./images/BABOONHB.png,,,,,,,,,,,,,,,,,,,,,,,,,,,,,,,,,
,,,,,,,,,,,,,,,,,5d951d9419479d00155e7140,27,2022-02-12_13h38.20.320,lexical_decision_task_DD,2021.2.3,iPhone,58.82352941,,,,,,,,,,0.61,1,,,,,,,,,,,,,,,0,-0.33877551,-0.297959184,1,0,0,0.61,button_left_main,-0.33877551,-0.297959184,1,0,0,,0,160,160,164,1,SGREW,LB,old,z,./images/SGREWLB.png,,,,,,,,,,,,,,,,,,,,,,,,,,,,,,,,,
,,,,,,,,,,,,,,,,,5d951d9419479d00155e7140,27,2022-02-12_13h38.20.320,lexical_decision_task_DD,2021.2.3,iPhone,58.82352941,,,,,,,,,,0.553,1,,,,,,,,,,,,,,,0,-0.336734694,-0.314285714,1,0,0,0.553,button_left_main,-0.336734694,-0.314285714,1,0,0,,0,161,161,96,1,KEAMS,C,old,z,./images/KEAMS.png,,,,,,,,,,,,,,,,,,,,,,,,,,,,,,,,,
,,,,,,,,,,,,,,,,,5d951d9419479d00155e7140,27,2022-02-12_13h38.20.320,lexical_decision_task_DD,2021.2.3,iPhone,58.82352941,,,,,,,,,,0.6,1,,,,,,,,,,,,,,,0,0.362244898,-0.309183673,1,0,0,0.6,button_right_main,0.362244898,-0.309183673,1,0,0,,0,162,162,25,1,WRIST,HB,old,m,./images/WRISTHB.png,,,,,,,,,,,,,,,,,,,,,,,,,,,,,,,,,
,,,,,,,,,,,,,,,,,5d951d9419479d00155e7140,27,2022-02-12_13h38.20.320,lexical_decision_task_DD,2021.2.3,iPhone,58.82352941,,,,,,,,,,0.606,1,,,,,,,,,,,,,,,0,-0.339795918,-0.315306122,1,0,0,0.606,button_left_main,-0.339795918,-0.315306122,1,0,0,,0,163,163,112,1,MYING,HB,old,z,./images/MYINGHB.png,,,,,,,,,,,,,,,,,,,,,,,,,,,,,,,,,
,,,,,,,,,,,,,,,,,5d951d9419479d00155e7140,27,2022-02-12_13h38.20.320,lexical_decision_task_DD,2021.2.3,iPhone,58.82352941,,,,,,,,,,0.68,1,,,,,,,,,,,,,,,0,0.365306122,-0.307142857,1,0,0,0.68,button_right_main,0.365306122,-0.307142857,1,0,0,,0,164,164,11,1,BONNET,LB,old,m,./images/BONNETLB.png,,,,,,,,,,,,,,,,,,,,,,,,,,,,,,,,,
,,,,,,,,,,,,,,,,,5d951d9419479d00155e7140,27,2022-02-12_13h38.20.320,lexical_decision_task_DD,2021.2.3,iPhone,58.82352941,,,,,,,,,,0.608,1,,,,,,,,,,,,,,,0,-0.326530612,-0.319387755,1,0,0,0.608,button_left_main,-0.326530612,-0.319387755,1,0,0,,0,165,165,120,1,RINED,C,old,z,./images/RINED.png,,,,,,,,,,,,,,,,,,,,,,,,,,,,,,,,,
,,,,,,,,,,,,,,,,,5d951d9419479d00155e7140,27,2022-02-12_13h38.20.320,lexical_decision_task_DD,2021.2.3,iPhone,58.82352941,,,,,,,,,,1.02,1,,,,,,,,,,,,,,,0,0.364285714,-0.329591837,1,0,0,1.02,button_right_main,0.364285714,-0.329591837,1,0,0,,0,166,166,7,1,PAINT,HB,old,m,./images/PAINTHB.png,,,,,,,,,,,,,,,,,,,,,,,,,,,,,,,,,
,,,,,,,,,,,,,,,,,5d951d9419479d00155e7140,27,2022-02-12_13h38.20.320,lexical_decision_task_DD,2021.2.3,iPhone,58.82352941,,,,,,,,,,0.812,1,,,,,,,,,,,,,,,0,-0.345918367,-0.297959184,1,0,0,0.812,button_left_main,-0.345918367,-0.297959184,1,0,0,,0,167,167,144,1,NAIRY,C,old,z,./images/NAIRY.png,,,,,,,,,,,,,,,,,,,,,,,,,,,,,,,,,
,,,,,,,,,,,,,,,,,5d951d9419479d00155e7140,27,2022-02-12_13h38.20.320,lexical_decision_task_DD,2021.2.3,iPhone,58.82352941,,,,,,,,,,,,,,,,,,,,,,,,,,,,,,,,,,,,,,,,,,,,,,How likely will it be that you will recognize the words presented slighly blurred on a scale of 0 (not likely) to 100 (most likely)?,,,,,0.002040816,-0.415306122,1,0,0,jol_adv,3,3.47,0,0,0,1,1,,,,,,,,,,,,,,,,,,,
,,,,,,,,,,,,,,,,,5d951d9419479d00155e7140,27,2022-02-12_13h38.20.320,lexical_decision_task_DD,2021.2.3,iPhone,58.82352941,,,,,,,,,,,,,,,,,,,,,,,,,,,,,,,,,,,,,,,,,,,,,,How likely will it be that you will recognize the words presented very blurred on a scale of 0 (not likely) to 100 (most likely)?,,,,,,,,,,,3,0.273,0,1,1,2,1,,,,,,,,,,,,,,,,,,,
,,,,,,,,,,,,,,,,,5d951d9419479d00155e7140,27,2022-02-12_13h38.20.320,lexical_decision_task_DD,2021.2.3,iPhone,58.82352941,,,,,,,,,,,,,,,,,,,,,,,,,,,,,,,,,,,,,,,,,,,,,,How likely will it be that you will recognize the words presented clearly on a scale of 0 (not likely) to 100 (most likely)?,,,,,,,,,,,3,3.1,0,2,2,0,1,,,,,,,,,,,,,,,,,,,
,0.125510204,-0.429591837,1,0,0,instr_done_button,,,,,,1,test,"In the next phase you will be presented with the words from the the first phase. Your job is to decide whether you remember seeing the word or not. If you remember seeing the word press ""old"" or type ""m"". If you do not remember seeing the word press ""new"" or type ""z"". Please press the space bar or click on continue to begin. ",,,5d951d9419479d00155e7140,27,2022-02-12_13h38.20.320,lexical_decision_task_DD,2021.2.3,iPhone,58.82352941,,,,,,,,,,,,,,,,,,,,,,,,,,,,,,,,,,,,,,,,,,,,,,,,,,,,,,,,,,,,,,,,0,0,0,0,1,,,,,,,,,,,,,,
,-0.048979592,-0.41122449,1,0,0,instr_done_button,,,,,,1,test,"In the next phase you will be presented with the words from the the first phase. Your job is to decide whether you remember seeing the word or not. If you remember seeing the word press ""old"" or type ""m"". If you do not remember seeing the word press ""new"" or type ""z"". Please press the space bar or click on continue to begin. ",,,5d951d9419479d00155e7140,27,2022-02-12_13h38.20.320,lexical_decision_task_DD,2021.2.3,iPhone,58.82352941,,,,,,,,,,,,,,,,,,,,,,,,,,,,,,,,,,,,,,,,,,,,,,,,,,,,,,,,,,,,,,,,1,0,1,0,1,,,,,,,,,,,,,,
,0.091836735,-0.433673469,1,0,0,instr_done_button,,,,,,1,test,"In the next phase you will be presented with the words from the the first phase. Your job is to decide whether you remember seeing the word or not. If you remember seeing the word press ""old"" or type ""m"". If you do not remember seeing the word press ""new"" or type ""z"". Please press the space bar or click on continue to begin. ",,,5d951d9419479d00155e7140,27,2022-02-12_13h38.20.320,lexical_decision_task_DD,2021.2.3,iPhone,58.82352941,,,,,,,,,,,,,,,,,,,,,,,,,,,,,,,,,,,,,,,,,,,,,,,,,,,,,,,,,,,,,,,,2,0,2,0,1,,,,,,,,,,,,,,
,0.043877551,-0.386734694,1,0,0,instr_done_button,,,,,,1,test,"In the next phase you will be presented with the words from the the first phase. Your job is to decide whether you remember seeing the word or not. If you remember seeing the word press ""old"" or type ""m"". If you do not remember seeing the word press ""new"" or type ""z"". Please press the space bar or click on continue to begin. ",,,5d951d9419479d00155e7140,27,2022-02-12_13h38.20.320,lexical_decision_task_DD,2021.2.3,iPhone,58.82352941,,,,,,,,,,,,,,,,,,,,,,,,,,,,,,,,,,,,,,,,,,,,,,,,,,,,,,,,,,,,,,,,3,0,3,0,1,,,,,,,,,,,,,,
,0.042857143,-0.432653061,1,0,0,instr_done_button,,,,,,1,test,"In the next phase you will be presented with the words from the the first phase. Your job is to decide whether you remember seeing the word or not. If you remember seeing the word press ""old"" or type ""m"". If you do not remember seeing the word press ""new"" or type ""z"". Please press the space bar or click on continue to begin. ",,,5d951d9419479d00155e7140,27,2022-02-12_13h38.20.320,lexical_decision_task_DD,2021.2.3,iPhone,58.82352941,,,,,,,,,,,,,,,,,,,,,,,,,,,,,,,,,,,,,,,,,,,,,,,,,,,,,,,,,,,,,,,,4,0,4,0,1,,,,,,,,,,,,,,
,,,,,,,,,,,,,,,,,5d951d9419479d00155e7140,27,2022-02-12_13h38.20.320,lexical_decision_task_DD,2021.2.3,iPhone,58.82352941,,,,,,,,,,2.333,1,,,,,,,,,,,,,,,,,,,,,,,-0.345918367,-0.307142857,1,0,0,,,,,,,STATUE,C,z,m,./images/STATUE.png,,,,,,,,,,,,,,,,,,,,,0,-0.345918367,-0.307142857,1,0,0,2.333,button_left_test,0,0,0,150,1
,,,,,,,,,,,,,,,,,5d951d9419479d00155e7140,27,2022-02-12_13h38.20.320,lexical_decision_task_DD,2021.2.3,iPhone,58.82352941,,,,,,,,,,0.972,1,,,,,,,,,,,,,,,,,,,,,,,-0.356122449,-0.32755102,1,0,0,,,,,,,POSTER,LB,z,m,./images/POSTERLB.png,,,,,,,,,,,,,,,,,,,,,0,-0.356122449,-0.32755102,1,0,0,0.972,button_left_test,0,1,1,137,1
,,,,,,,,,,,,,,,,,5d951d9419479d00155e7140,27,2022-02-12_13h38.20.320,lexical_decision_task_DD,2021.2.3,iPhone,58.82352941,,,,,,,,,,0.823,0,,,,,,,,,,,,,,,,,,,,,,,-0.369387755,-0.315306122,1,0,0,,,,,,,TOMATO,C,m,m,./images/TOMATO.png,,,,,,,,,,,,,,,,,,,,,0,-0.369387755,-0.315306122,1,0,0,0.823,button_left_test,0,2,2,0,1
,,,,,,,,,,,,,,,,,5d951d9419479d00155e7140,27,2022-02-12_13h38.20.320,lexical_decision_task_DD,2021.2.3,iPhone,58.82352941,,,,,,,,,,1.143,0,,,,,,,,,,,,,,,,,,,,,,,0.394897959,-0.317346939,1,0,0,,,,,,,FENCE,LB,z,m,./images/FENCELB.png,,,,,,,,,,,,,,,,,,,,,0,0.394897959,-0.317346939,1,0,0,1.143,button_right_test,0,3,3,98,1
,,,,,,,,,,,,,,,,,5d951d9419479d00155e7140,27,2022-02-12_13h38.20.320,lexical_decision_task_DD,2021.2.3,iPhone,58.82352941,,,,,,,,,,1.101,1,,,,,,,,,,,,,,,,,,,,,,,0.394897959,-0.316326531,1,0,0,,,,,,,CRADLE,LB,m,m,./images/CRADLELB.png,,,,,,,,,,,,,,,,,,,,,0,0.394897959,-0.316326531,1,0,0,1.101,button_right_test,0,4,4,20,1
,,,,,,,,,,,,,,,,,5d951d9419479d00155e7140,27,2022-02-12_13h38.20.320,lexical_decision_task_DD,2021.2.3,iPhone,58.82352941,,,,,,,,,,0.938,1,,,,,,,,,,,,,,,,,,,,,,,-0.378571429,-0.317346939,1,0,0,,,,,,,TOWEL,HB,z,m,./images/TOWELHB.png,,,,,,,,,,,,,,,,,,,,,0,-0.378571429,-0.317346939,1,0,0,0.938,button_left_test,0,5,5,85,1
,,,,,,,,,,,,,,,,,5d951d9419479d00155e7140,27,2022-02-12_13h38.20.320,lexical_decision_task_DD,2021.2.3,iPhone,58.82352941,,,,,,,,,,0.856,0,,,,,,,,,,,,,,,,,,,,,,,0.395918367,-0.315306122,1,0,0,,,,,,,PEBBLE,HB,z,m,./images/PEBBLEHB.png,,,,,,,,,,,,,,,,,,,,,0,0.395918367,-0.315306122,1,0,0,0.856,button_right_test,0,6,6,166,1
,,,,,,,,,,,,,,,,,5d951d9419479d00155e7140,27,2022-02-12_13h38.20.320,lexical_decision_task_DD,2021.2.3,iPhone,58.82352941,,,,,,,,,,0.838,0,,,,,,,,,,,,,,,,,,,,,,,-0.364285714,-0.324489796,1,0,0,,,,,,,GRAIN,C,m,m,./images/GRAIN.png,,,,,,,,,,,,,,,,,,,,,0,-0.364285714,-0.324489796,1,0,0,0.838,button_left_test,0,7,7,75,1
,,,,,,,,,,,,,,,,,5d951d9419479d00155e7140,27,2022-02-12_13h38.20.320,lexical_decision_task_DD,2021.2.3,iPhone,58.82352941,,,,,,,,,,0.974,1,,,,,,,,,,,,,,,,,,,,,,,-0.364285714,-0.326530612,1,0,0,,,,,,,BUTTER,C,z,m,./images/BUTTER.png,,,,,,,,,,,,,,,,,,,,,0,-0.364285714,-0.326530612,1,0,0,0.974,button_left_test,0,8,8,111,1
,,,,,,,,,,,,,,,,,5d951d9419479d00155e7140,27,2022-02-12_13h38.20.320,lexical_decision_task_DD,2021.2.3,iPhone,58.82352941,,,,,,,,,,0.79,1,,,,,,,,,,,,,,,,,,,,,,,-0.376530612,-0.328571429,1,0,0,,,,,,,STREAM,LB,z,m,./images/STREAMLB.png,,,,,,,,,,,,,,,,,,,,,0,-0.376530612,-0.328571429,1,0,0,0.79,button_left_test,0,9,9,125,1
,,,,,,,,,,,,,,,,,5d951d9419479d00155e7140,27,2022-02-12_13h38.20.320,lexical_decision_task_DD,2021.2.3,iPhone,58.82352941,,,,,,,,,,0.926,0,,,,,,,,,,,,,,,,,,,,,,,0.393877551,-0.329591837,1,0,0,,,,,,,POKER,HB,z,m,./images/POKERHB.png,,,,,,,,,,,,,,,,,,,,,0,0.393877551,-0.329591837,1,0,0,0.926,button_right_test,0,10,10,151,1
,,,,,,,,,,,,,,,,,5d951d9419479d00155e7140,27,2022-02-12_13h38.20.320,lexical_decision_task_DD,2021.2.3,iPhone,58.82352941,,,,,,,,,,0.991,0,,,,,,,,,,,,,,,,,,,,,,,-0.367346939,-0.313265306,1,0,0,,,,,,,PLANK,HB,m,m,./images/PLANKHB.png,,,,,,,,,,,,,,,,,,,,,0,-0.367346939,-0.313265306,1,0,0,0.991,button_left_test,0,11,11,1,1
,,,,,,,,,,,,,,,,,5d951d9419479d00155e7140,27,2022-02-12_13h38.20.320,lexical_decision_task_DD,2021.2.3,iPhone,58.82352941,,,,,,,,,,1.651,1,,,,,,,,,,,,,,,,,,,,,,,-0.37244898,-0.312244898,1,0,0,,,,,,,DRILL,C,z,m,./images/DRILL.png,,,,,,,,,,,,,,,,,,,,,0,-0.37244898,-0.312244898,1,0,0,1.651,button_left_test,0,12,12,165,1
,,,,,,,,,,,,,,,,,5d951d9419479d00155e7140,27,2022-02-12_13h38.20.320,lexical_decision_task_DD,2021.2.3,iPhone,58.82352941,,,,,,,,,,0.978,1,,,,,,,,,,,,,,,,,,,,,,,0.385714286,-0.329591837,1,0,0,,,,,,,NOOSE,C,m,m,./images/NOOSE.png,,,,,,,,,,,,,,,,,,,,,0,0.385714286,-0.329591837,1,0,0,0.978,button_right_test,0,13,13,72,1
,,,,,,,,,,,,,,,,,5d951d9419479d00155e7140,27,2022-02-12_13h38.20.320,lexical_decision_task_DD,2021.2.3,iPhone,58.82352941,,,,,,,,,,1.046,1,,,,,,,,,,,,,,,,,,,,,,,-0.363265306,-0.310204082,1,0,0,,,,,,,CLIFF,LB,z,m,./images/CLIFFLB.png,,,,,,,,,,,,,,,,,,,,,0,-0.363265306,-0.310204082,1,0,0,1.046,button_left_test,0,14,14,92,1
,,,,,,,,,,,,,,,,,5d951d9419479d00155e7140,27,2022-02-12_13h38.20.320,lexical_decision_task_DD,2021.2.3,iPhone,58.82352941,,,,,,,,,,1.119,0,,,,,,,,,,,,,,,,,,,,,,,0.386734694,-0.329591837,1,0,0,,,,,,,WALNUT,C,z,m,./images/WALNUT.png,,,,,,,,,,,,,,,,,,,,,0,0.386734694,-0.329591837,1,0,0,1.119,button_right_test,0,15,15,84,1
,,,,,,,,,,,,,,,,,5d951d9419479d00155e7140,27,2022-02-12_13h38.20.320,lexical_decision_task_DD,2021.2.3,iPhone,58.82352941,,,,,,,,,,1.222,0,,,,,,,,,,,,,,,,,,,,,,,0.384693878,-0.329591837,1,0,0,,,,,,,DESERT,HB,z,m,./images/DESERTHB.png,,,,,,,,,,,,,,,,,,,,,0,0.384693878,-0.329591837,1,0,0,1.222,button_right_test,0,16,16,136,1
,,,,,,,,,,,,,,,,,5d951d9419479d00155e7140,27,2022-02-12_13h38.20.320,lexical_decision_task_DD,2021.2.3,iPhone,58.82352941,,,,,,,,,,0.727,1,,,,,,,,,,,,,,,,,,,,,,,-0.354081633,-0.352040816,1,0,0,,,,,,,STEAK,HB,z,m,./images/STEAKHB.png,,,,,,,,,,,,,,,,,,,,,0,-0.354081633,-0.352040816,1,0,0,0.727,button_left_test,0,17,17,115,1
,,,,,,,,,,,,,,,,,5d951d9419479d00155e7140,27,2022-02-12_13h38.20.320,lexical_decision_task_DD,2021.2.3,iPhone,58.82352941,,,,,,,,,,1.14,0,,,,,,,,,,,,,,,,,,,,,,,0.37755102,-0.326530612,1,0,0,,,,,,,ARROW,C,z,m,./images/ARROW.png,,,,,,,,,,,,,,,,,,,,,0,0.37755102,-0.326530612,1,0,0,1.14,button_right_test,0,18,18,153,1
,,,,,,,,,,,,,,,,,5d951d9419479d00155e7140,27,2022-02-12_13h38.20.320,lexical_decision_task_DD,2021.2.3,iPhone,58.82352941,,,,,,,,,,0.959,1,,,,,,,,,,,,,,,,,,,,,,,0.373469388,-0.302040816,1,0,0,,,,,,,COOKER,C,m,m,./images/COOKER.png,,,,,,,,,,,,,,,,,,,,,0,0.373469388,-0.302040816,1,0,0,0.959,button_right_test,0,19,19,69,1
,,,,,,,,,,,,,,,,,5d951d9419479d00155e7140,27,2022-02-12_13h38.20.320,lexical_decision_task_DD,2021.2.3,iPhone,58.82352941,,,,,,,,,,1.037,0,,,,,,,,,,,,,,,,,,,,,,,0.364285714,-0.330612245,1,0,0,,,,,,,STAIN,C,z,m,./images/STAIN.png,,,,,,,,,,,,,,,,,,,,,0,0.364285714,-0.330612245,1,0,0,1.037,button_right_test,0,20,20,90,1
,,,,,,,,,,,,,,,,,5d951d9419479d00155e7140,27,2022-02-12_13h38.20.320,lexical_decision_task_DD,2021.2.3,iPhone,58.82352941,,,,,,,,,,0.742,0,,,,,,,,,,,,,,,,,,,,,,,0.381632653,-0.32755102,1,0,0,,,,,,,MONKEY,C,z,m,./images/MONKEY.png,,,,,,,,,,,,,,,,,,,,,0,0.381632653,-0.32755102,1,0,0,0.742,button_right_test,0,21,21,129,1
,,,,,,,,,,,,,,,,,5d951d9419479d00155e7140,27,2022-02-12_13h38.20.320,lexical_decision_task_DD,2021.2.3,iPhone,58.82352941,,,,,,,,,,0.495,1,,,,,,,,,,,,,,,,,,,,,,,0.384693878,-0.321428571,1,0,0,,,,,,,BANNER,HB,m,m,./images/BANNERHB.png,,,,,,,,,,,,,,,,,,,,,0,0.384693878,-0.321428571,1,0,0,0.495,button_right_test,0,22,22,52,1
,,,,,,,,,,,,,,,,,5d951d9419479d00155e7140,27,2022-02-12_13h38.20.320,lexical_decision_task_DD,2021.2.3,iPhone,58.82352941,,,,,,,,,,1.536,1,,,,,,,,,,,,,,,,,,,,,,,0.376530612,-0.294897959,1,0,0,,,,,,,MOTOR,HB,m,m,./images/MOTORHB.png,,,,,,,,,,,,,,,,,,,,,0,0.376530612,-0.294897959,1,0,0,1.536,button_right_test,0,23,23,13,1
,,,,,,,,,,,,,,,,,5d951d9419479d00155e7140,27,2022-02-12_13h38.20.320,lexical_decision_task_DD,2021.2.3,iPhone,58.82352941,,,,,,,,,,0.753,1,,,,,,,,,,,,,,,,,,,,,,,0.381632653,-0.308163265,1,0,0,,,,,,,SQUARE,C,m,m,./images/SQUARE.png,,,,,,,,,,,,,,,,,,,,,0,0.381632653,-0.308163265,1,0,0,0.753,button_right_test,0,24,24,6,1
,,,,,,,,,,,,,,,,,5d951d9419479d00155e7140,27,2022-02-12_13h38.20.320,lexical_decision_task_DD,2021.2.3,iPhone,58.82352941,,,,,,,,,,1.283,1,,,,,,,,,,,,,,,,,,,,,,,-0.340816327,-0.295918367,1,0,0,,,,,,,BAMBOO,LB,z,m,./images/BAMBOOLB.png,,,,,,,,,,,,,,,,,,,,,0,-0.340816327,-0.295918367,1,0,0,1.283,button_left_test,0,25,25,89,1
,,,,,,,,,,,,,,,,,5d951d9419479d00155e7140,27,2022-02-12_13h38.20.320,lexical_decision_task_DD,2021.2.3,iPhone,58.82352941,,,,,,,,,,0.785,0,,,,,,,,,,,,,,,,,,,,,,,0.369387755,-0.319387755,1,0,0,,,,,,,FLESH,C,z,m,./images/FLESH.png,,,,,,,,,,,,,,,,,,,,,0,0.369387755,-0.319387755,1,0,0,0.785,button_right_test,0,26,26,108,1
,,,,,,,,,,,,,,,,,5d951d9419479d00155e7140,27,2022-02-12_13h38.20.320,lexical_decision_task_DD,2021.2.3,iPhone,58.82352941,,,,,,,,,,0.624,1,,,,,,,,,,,,,,,,,,,,,,,0.37244898,-0.310204082,1,0,0,,,,,,,WRIST,HB,m,m,./images/WRISTHB.png,,,,,,,,,,,,,,,,,,,,,0,0.37244898,-0.310204082,1,0,0,0.624,button_right_test,0,27,27,25,1
,,,,,,,,,,,,,,,,,5d951d9419479d00155e7140,27,2022-02-12_13h38.20.320,lexical_decision_task_DD,2021.2.3,iPhone,58.82352941,,,,,,,,,,1.132,1,,,,,,,,,,,,,,,,,,,,,,,-0.335714286,-0.302040816,1,0,0,,,,,,,BUNNY,HB,z,m,./images/BUNNYHB.png,,,,,,,,,,,,,,,,,,,,,0,-0.335714286,-0.302040816,1,0,0,1.132,button_left_test,0,28,28,97,1
,,,,,,,,,,,,,,,,,5d951d9419479d00155e7140,27,2022-02-12_13h38.20.320,lexical_decision_task_DD,2021.2.3,iPhone,58.82352941,,,,,,,,,,2.737,0,,,,,,,,,,,,,,,,,,,,,,,0.33877551,-0.328571429,1,0,0,,,,,,,VALLEY,LB,z,m,./images/VALLEYLB.png,,,,,,,,,,,,,,,,,,,,,0,0.33877551,-0.328571429,1,0,0,2.737,button_right_test,0,29,29,152,1
,,,,,,,,,,,,,,,,,5d951d9419479d00155e7140,27,2022-02-12_13h38.20.320,lexical_decision_task_DD,2021.2.3,iPhone,58.82352941,,,,,,,,,,0.609,1,,,,,,,,,,,,,,,,,,,,,,,0.365306122,-0.310204082,1,0,0,,,,,,,FALCON,HB,m,m,./images/FALCONHB.png,,,,,,,,,,,,,,,,,,,,,0,0.365306122,-0.310204082,1,0,0,0.609,button_right_test,0,30,30,28,1
,,,,,,,,,,,,,,,,,5d951d9419479d00155e7140,27,2022-02-12_13h38.20.320,lexical_decision_task_DD,2021.2.3,iPhone,58.82352941,,,,,,,,,,0.795,1,,,,,,,,,,,,,,,,,,,,,,,0.354081633,-0.310204082,1,0,0,,,,,,,COUCH,LB,m,m,./images/COUCHLB.png,,,,,,,,,,,,,,,,,,,,,0,0.354081633,-0.310204082,1,0,0,0.795,button_right_test,0,31,31,77,1
,,,,,,,,,,,,,,,,,5d951d9419479d00155e7140,27,2022-02-12_13h38.20.320,lexical_decision_task_DD,2021.2.3,iPhone,58.82352941,,,,,,,,,,0.786,1,,,,,,,,,,,,,,,,,,,,,,,-0.303061224,-0.329591837,1,0,0,,,,,,,DIVER,C,z,m,./images/DIVER.png,,,,,,,,,,,,,,,,,,,,,0,-0.303061224,-0.329591837,1,0,0,0.786,button_left_test,0,32,32,93,1
,,,,,,,,,,,,,,,,,5d951d9419479d00155e7140,27,2022-02-12_13h38.20.320,lexical_decision_task_DD,2021.2.3,iPhone,58.82352941,,,,,,,,,,0.827,0,,,,,,,,,,,,,,,,,,,,,,,0.342857143,-0.325510204,1,0,0,,,,,,,BROOM,C,z,m,./images/BROOM.png,,,,,,,,,,,,,,,,,,,,,0,0.342857143,-0.325510204,1,0,0,0.827,button_right_test,0,33,33,162,1
,,,,,,,,,,,,,,,,,5d951d9419479d00155e7140,27,2022-02-12_13h38.20.320,lexical_decision_task_DD,2021.2.3,iPhone,58.82352941,,,,,,,,,,0.699,1,,,,,,,,,,,,,,,,,,,,,,,-0.305102041,-0.32755102,1,0,0,,,,,,,DANCER,C,z,m,./images/DANCER.png,,,,,,,,,,,,,,,,,,,,,0,-0.305102041,-0.32755102,1,0,0,0.699,button_left_test,0,34,34,105,1
,,,,,,,,,,,,,,,,,5d951d9419479d00155e7140,27,2022-02-12_13h38.20.320,lexical_decision_task_DD,2021.2.3,iPhone,58.82352941,,,,,,,,,,1.129,1,,,,,,,,,,,,,,,,,,,,,,,0.355102041,-0.307142857,1,0,0,,,,,,,PASTA,LB,m,m,./images/PASTALB.png,,,,,,,,,,,,,,,,,,,,,0,0.355102041,-0.307142857,1,0,0,1.129,button_right_test,0,35,35,5,1
,,,,,,,,,,,,,,,,,5d951d9419479d00155e7140,27,2022-02-12_13h38.20.320,lexical_decision_task_DD,2021.2.3,iPhone,58.82352941,,,,,,,,,,1.969,1,,,,,,,,,,,,,,,,,,,,,,,0.369387755,-0.285714286,1,0,0,,,,,,,MALLET,LB,m,m,./images/MALLETLB.png,,,,,,,,,,,,,,,,,,,,,0,0.369387755,-0.285714286,1,0,0,1.969,button_right_test,0,36,36,50,1
,,,,,,,,,,,,,,,,,5d951d9419479d00155e7140,27,2022-02-12_13h38.20.320,lexical_decision_task_DD,2021.2.3,iPhone,58.82352941,,,,,,,,,,0.758,0,,,,,,,,,,,,,,,,,,,,,,,0.357142857,-0.309183673,1,0,0,,,,,,,PISTOL,LB,z,m,./images/PISTOLLB.png,,,,,,,,,,,,,,,,,,,,,0,0.357142857,-0.309183673,1,0,0,0.758,button_right_test,0,37,37,113,1
,,,,,,,,,,,,,,,,,5d951d9419479d00155e7140,27,2022-02-12_13h38.20.320,lexical_decision_task_DD,2021.2.3,iPhone,58.82352941,,,,,,,,,,1.119,0,,,,,,,,,,,,,,,,,,,,,,,0.370408163,-0.320408163,1,0,0,,,,,,,SAUNA,C,z,m,./images/SAUNA.png,,,,,,,,,,,,,,,,,,,,,0,0.370408163,-0.320408163,1,0,0,1.119,button_right_test,0,38,38,117,1
,,,,,,,,,,,,,,,,,5d951d9419479d00155e7140,27,2022-02-12_13h38.20.320,lexical_decision_task_DD,2021.2.3,iPhone,58.82352941,,,,,,,,,,1.45,1,,,,,,,,,,,,,,,,,,,,,,,0.362244898,-0.314285714,1,0,0,,,,,,,MOSQUE,HB,m,m,./images/MOSQUEHB.png,,,,,,,,,,,,,,,,,,,,,0,0.362244898,-0.314285714,1,0,0,1.45,button_right_test,0,39,39,43,1
,,,,,,,,,,,,,,,,,5d951d9419479d00155e7140,27,2022-02-12_13h38.20.320,lexical_decision_task_DD,2021.2.3,iPhone,58.82352941,,,,,,,,,,1.458,1,,,,,,,,,,,,,,,,,,,,,,,-0.332653061,-0.302040816,1,0,0,,,,,,,CHERRY,C,z,m,./images/CHERRY.png,,,,,,,,,,,,,,,,,,,,,0,-0.332653061,-0.302040816,1,0,0,1.458,button_left_test,0,40,40,138,1
,,,,,,,,,,,,,,,,,5d951d9419479d00155e7140,27,2022-02-12_13h38.20.320,lexical_decision_task_DD,2021.2.3,iPhone,58.82352941,,,,,,,,,,0.871,0,,,,,,,,,,,,,,,,,,,,,,,0.12244898,-0.394897959,1,0,0,,,,,,,GARDEN,HB,z,m,./images/GARDENHB.png,break_done_button,,,,,,,,,,,,,,,,,,,,0,0.347959184,-0.313265306,1,0,0,0.871,button_right_test,0,41,41,94,1
,,,,,,,,,,,,,,,,,5d951d9419479d00155e7140,27,2022-02-12_13h38.20.320,lexical_decision_task_DD,2021.2.3,iPhone,58.82352941,,,,,,,,,,1.284,1,,,,,,,,,,,,,,,,,,,,,,,0.393877551,-0.313265306,1,0,0,,,,,,,LIZARD,LB,m,m,./images/LIZARDLB.png,,,,,,,,,,,,,,,,,,,,,0,0.393877551,-0.313265306,1,0,0,1.284,button_right_test,0,42,42,44,1
,,,,,,,,,,,,,,,,,5d951d9419479d00155e7140,27,2022-02-12_13h38.20.320,lexical_decision_task_DD,2021.2.3,iPhone,58.82352941,,,,,,,,,,0.634,1,,,,,,,,,,,,,,,,,,,,,,,0.392857143,-0.305102041,1,0,0,,,,,,,SHELF,C,m,m,./images/SHELF.png,,,,,,,,,,,,,,,,,,,,,0,0.392857143,-0.305102041,1,0,0,0.634,button_right_test,0,43,43,39,1
,,,,,,,,,,,,,,,,,5d951d9419479d00155e7140,27,2022-02-12_13h38.20.320,lexical_decision_task_DD,2021.2.3,iPhone,58.82352941,,,,,,,,,,0.907,1,,,,,,,,,,,,,,,,,,,,,,,-0.324489796,-0.306122449,1,0,0,,,,,,,MAMMAL,LB,z,m,./images/MAMMALLB.png,,,,,,,,,,,,,,,,,,,,,0,-0.324489796,-0.306122449,1,0,0,0.907,button_left_test,0,44,44,146,1
,,,,,,,,,,,,,,,,,5d951d9419479d00155e7140,27,2022-02-12_13h38.20.320,lexical_decision_task_DD,2021.2.3,iPhone,58.82352941,,,,,,,,,,0.753,0,,,,,,,,,,,,,,,,,,,,,,,0.404081633,-0.296938776,1,0,0,,,,,,,LAGOON,LB,z,m,./images/LAGOONLB.png,,,,,,,,,,,,,,,,,,,,,0,0.404081633,-0.296938776,1,0,0,0.753,button_right_test,0,45,45,131,1
,,,,,,,,,,,,,,,,,5d951d9419479d00155e7140,27,2022-02-12_13h38.20.320,lexical_decision_task_DD,2021.2.3,iPhone,58.82352941,,,,,,,,,,1.037,1,,,,,,,,,,,,,,,,,,,,,,,0.369387755,-0.310204082,1,0,0,,,,,,,FINGER,C,m,m,./images/FINGER.png,,,,,,,,,,,,,,,,,,,,,0,0.369387755,-0.310204082,1,0,0,1.037,button_right_test,0,46,46,3,1
,,,,,,,,,,,,,,,,,5d951d9419479d00155e7140,27,2022-02-12_13h38.20.320,lexical_decision_task_DD,2021.2.3,iPhone,58.82352941,,,,,,,,,,0.68,1,,,,,,,,,,,,,,,,,,,,,,,0.392857143,-0.281632653,1,0,0,,,,,,,TULIP,LB,m,m,./images/TULIPLB.png,,,,,,,,,,,,,,,,,,,,,0,0.392857143,-0.281632653,1,0,0,0.68,button_right_test,0,47,47,8,1
,,,,,,,,,,,,,,,,,5d951d9419479d00155e7140,27,2022-02-12_13h38.20.320,lexical_decision_task_DD,2021.2.3,iPhone,58.82352941,,,,,,,,,,0.585,1,,,,,,,,,,,,,,,,,,,,,,,0.395918367,-0.304081633,1,0,0,,,,,,,SCREW,C,m,m,./images/SCREW.png,,,,,,,,,,,,,,,,,,,,,0,0.395918367,-0.304081633,1,0,0,0.585,button_right_test,0,48,48,24,1
,,,,,,,,,,,,,,,,,5d951d9419479d00155e7140,27,2022-02-12_13h38.20.320,lexical_decision_task_DD,2021.2.3,iPhone,58.82352941,,,,,,,,,,0.78,0,,,,,,,,,,,,,,,,,,,,,,,-0.355102041,-0.318367347,1,0,0,,,,,,,TWINS,C,m,m,./images/TWINS.png,,,,,,,,,,,,,,,,,,,,,0,-0.355102041,-0.318367347,1,0,0,0.78,button_left_test,0,49,49,60,1
,,,,,,,,,,,,,,,,,5d951d9419479d00155e7140,27,2022-02-12_13h38.20.320,lexical_decision_task_DD,2021.2.3,iPhone,58.82352941,,,,,,,,,,0.735,1,,,,,,,,,,,,,,,,,,,,,,,0.398979592,-0.3,1,0,0,,,,,,,CRUMB,LB,m,m,./images/CRUMBLB.png,,,,,,,,,,,,,,,,,,,,,0,0.398979592,-0.3,1,0,0,0.735,button_right_test,0,50,50,29,1
,,,,,,,,,,,,,,,,,5d951d9419479d00155e7140,27,2022-02-12_13h38.20.320,lexical_decision_task_DD,2021.2.3,iPhone,58.82352941,,,,,,,,,,0.739,0,,,,,,,,,,,,,,,,,,,,,,,-0.324489796,-0.316326531,1,0,0,,,,,,,JELLY,HB,m,m,./images/JELLYHB.png,,,,,,,,,,,,,,,,,,,,,0,-0.324489796,-0.316326531,1,0,0,0.739,button_left_test,0,51,51,64,1
,,,,,,,,,,,,,,,,,5d951d9419479d00155e7140,27,2022-02-12_13h38.20.320,lexical_decision_task_DD,2021.2.3,iPhone,58.82352941,,,,,,,,,,1.201,1,,,,,,,,,,,,,,,,,,,,,,,-0.32244898,-0.308163265,1,0,0,,,,,,,SHIELD,C,z,m,./images/SHIELD.png,,,,,,,,,,,,,,,,,,,,,0,-0.32244898,-0.308163265,1,0,0,1.201,button_left_test,0,52,52,132,1
,,,,,,,,,,,,,,,,,5d951d9419479d00155e7140,27,2022-02-12_13h38.20.320,lexical_decision_task_DD,2021.2.3,iPhone,58.82352941,,,,,,,,,,0.965,0,,,,,,,,,,,,,,,,,,,,,,,0.362244898,-0.302040816,1,0,0,,,,,,,PARCEL,C,z,m,./images/PARCEL.png,,,,,,,,,,,,,,,,,,,,,0,0.362244898,-0.302040816,1,0,0,0.965,button_right_test,0,53,53,102,1
,,,,,,,,,,,,,,,,,5d951d9419479d00155e7140,27,2022-02-12_13h38.20.320,lexical_decision_task_DD,2021.2.3,iPhone,58.82352941,,,,,,,,,,0.568,1,,,,,,,,,,,,,,,,,,,,,,,0.366326531,-0.294897959,1,0,0,,,,,,,PAINT,HB,m,m,./images/PAINTHB.png,,,,,,,,,,,,,,,,,,,,,0,0.366326531,-0.294897959,1,0,0,0.568,button_right_test,0,54,54,7,1
,,,,,,,,,,,,,,,,,5d951d9419479d00155e7140,27,2022-02-12_13h38.20.320,lexical_decision_task_DD,2021.2.3,iPhone,58.82352941,,,,,,,,,,0.968,1,,,,,,,,,,,,,,,,,,,,,,,0.363265306,-0.309183673,1,0,0,,,,,,,RHINO,C,m,m,./images/RHINO.png,,,,,,,,,,,,,,,,,,,,,0,0.363265306,-0.309183673,1,0,0,0.968,button_right_test,0,55,55,9,1
,,,,,,,,,,,,,,,,,5d951d9419479d00155e7140,27,2022-02-12_13h38.20.320,lexical_decision_task_DD,2021.2.3,iPhone,58.82352941,,,,,,,,,,0.529,0,,,,,,,,,,,,,,,,,,,,,,,0.369387755,-0.302040816,1,0,0,,,,,,,SLOPE,C,z,m,./images/SLOPE.png,,,,,,,,,,,,,,,,,,,,,0,0.369387755,-0.302040816,1,0,0,0.529,button_right_test,0,56,56,114,1
,,,,,,,,,,,,,,,,,5d951d9419479d00155e7140,27,2022-02-12_13h38.20.320,lexical_decision_task_DD,2021.2.3,iPhone,58.82352941,,,,,,,,,,1.152,0,,,,,,,,,,,,,,,,,,,,,,,-0.325510204,-0.31122449,1,0,0,,,,,,,INFANT,HB,m,m,./images/INFANTHB.png,,,,,,,,,,,,,,,,,,,,,0,-0.325510204,-0.31122449,1,0,0,1.152,button_left_test,0,57,57,76,1
,,,,,,,,,,,,,,,,,5d951d9419479d00155e7140,27,2022-02-12_13h38.20.320,lexical_decision_task_DD,2021.2.3,iPhone,58.82352941,,,,,,,,,,0.677,0,,,,,,,,,,,,,,,,,,,,,,,0.373469388,-0.308163265,1,0,0,,,,,,,HAMMER,C,z,m,./images/HAMMER.png,,,,,,,,,,,,,,,,,,,,,0,0.373469388,-0.308163265,1,0,0,0.677,button_right_test,0,58,58,159,1
,,,,,,,,,,,,,,,,,5d951d9419479d00155e7140,27,2022-02-12_13h38.20.320,lexical_decision_task_DD,2021.2.3,iPhone,58.82352941,,,,,,,,,,0.708,1,,,,,,,,,,,,,,,,,,,,,,,0.339795918,-0.324489796,1,0,0,,,,,,,BIRTH,HB,m,m,./images/BIRTHHB.png,,,,,,,,,,,,,,,,,,,,,0,0.339795918,-0.324489796,1,0,0,0.708,button_right_test,0,59,59,37,1
,,,,,,,,,,,,,,,,,5d951d9419479d00155e7140,27,2022-02-12_13h38.20.320,lexical_decision_task_DD,2021.2.3,iPhone,58.82352941,,,,,,,,,,0.646,1,,,,,,,,,,,,,,,,,,,,,,,0.335714286,-0.317346939,1,0,0,,,,,,,SAILOR,HB,m,m,./images/SAILORHB.png,,,,,,,,,,,,,,,,,,,,,0,0.335714286,-0.317346939,1,0,0,0.646,button_right_test,0,60,60,67,1
,,,,,,,,,,,,,,,,,5d951d9419479d00155e7140,27,2022-02-12_13h38.20.320,lexical_decision_task_DD,2021.2.3,iPhone,58.82352941,,,,,,,,,,1.156,1,,,,,,,,,,,,,,,,,,,,,,,0.353061224,-0.318367347,1,0,0,,,,,,,TRIPOD,C,m,m,./images/TRIPOD.png,,,,,,,,,,,,,,,,,,,,,0,0.353061224,-0.318367347,1,0,0,1.156,button_right_test,0,61,61,54,1
,,,,,,,,,,,,,,,,,5d951d9419479d00155e7140,27,2022-02-12_13h38.20.320,lexical_decision_task_DD,2021.2.3,iPhone,58.82352941,,,,,,,,,,0.675,1,,,,,,,,,,,,,,,,,,,,,,,-0.329591837,-0.316326531,1,0,0,,,,,,,FLASK,C,z,m,./images/FLASK.png,,,,,,,,,,,,,,,,,,,,,0,-0.329591837,-0.316326531,1,0,0,0.675,button_left_test,0,62,62,156,1
,,,,,,,,,,,,,,,,,5d951d9419479d00155e7140,27,2022-02-12_13h38.20.320,lexical_decision_task_DD,2021.2.3,iPhone,58.82352941,,,,,,,,,,0.871,1,,,,,,,,,,,,,,,,,,,,,,,0.346938776,-0.317346939,1,0,0,,,,,,,TORCH,LB,m,m,./images/TORCHLB.png,,,,,,,,,,,,,,,,,,,,,0,0.346938776,-0.317346939,1,0,0,0.871,button_right_test,0,63,63,68,1
,,,,,,,,,,,,,,,,,5d951d9419479d00155e7140,27,2022-02-12_13h38.20.320,lexical_decision_task_DD,2021.2.3,iPhone,58.82352941,,,,,,,,,,2.032,1,,,,,,,,,,,,,,,,,,,,,,,0.346938776,-0.321428571,1,0,0,,,,,,,PENCE,HB,m,m,./images/PENCEHB.png,,,,,,,,,,,,,,,,,,,,,0,0.346938776,-0.321428571,1,0,0,2.032,button_right_test,0,64,64,16,1
,,,,,,,,,,,,,,,,,5d951d9419479d00155e7140,27,2022-02-12_13h38.20.320,lexical_decision_task_DD,2021.2.3,iPhone,58.82352941,,,,,,,,,,1.447,0,,,,,,,,,,,,,,,,,,,,,,,-0.325510204,-0.302040816,1,0,0,,,,,,,MAGGOT,C,m,m,./images/MAGGOT.png,,,,,,,,,,,,,,,,,,,,,0,-0.325510204,-0.302040816,1,0,0,1.447,button_left_test,0,65,65,33,1
,,,,,,,,,,,,,,,,,5d951d9419479d00155e7140,27,2022-02-12_13h38.20.320,lexical_decision_task_DD,2021.2.3,iPhone,58.82352941,,,,,,,,,,0.667,0,,,,,,,,,,,,,,,,,,,,,,,0.325510204,-0.323469388,1,0,0,,,,,,,MUMMY,HB,z,m,./images/MUMMYHB.png,,,,,,,,,,,,,,,,,,,,,0,0.325510204,-0.323469388,1,0,0,0.667,button_right_test,0,66,66,130,1
,,,,,,,,,,,,,,,,,5d951d9419479d00155e7140,27,2022-02-12_13h38.20.320,lexical_decision_task_DD,2021.2.3,iPhone,58.82352941,,,,,,,,,,0.852,0,,,,,,,,,,,,,,,,,,,,,,,-0.337755102,-0.296938776,1,0,0,,,,,,,KIDNEY,C,m,m,./images/KIDNEY.png,,,,,,,,,,,,,,,,,,,,,0,-0.337755102,-0.296938776,1,0,0,0.852,button_left_test,0,67,67,21,1
,,,,,,,,,,,,,,,,,5d951d9419479d00155e7140,27,2022-02-12_13h38.20.320,lexical_decision_task_DD,2021.2.3,iPhone,58.82352941,,,,,,,,,,0.859,1,,,,,,,,,,,,,,,,,,,,,,,0.334693878,-0.324489796,1,0,0,,,,,,,JUNGLE,LB,m,m,./images/JUNGLELB.png,,,,,,,,,,,,,,,,,,,,,0,0.334693878,-0.324489796,1,0,0,0.859,button_right_test,0,68,68,83,1
,,,,,,,,,,,,,,,,,5d951d9419479d00155e7140,27,2022-02-12_13h38.20.320,lexical_decision_task_DD,2021.2.3,iPhone,58.82352941,,,,,,,,,,0.72,1,,,,,,,,,,,,,,,,,,,,,,,0.355102041,-0.306122449,1,0,0,,,,,,,MIRROR,C,m,m,./images/MIRROR.png,,,,,,,,,,,,,,,,,,,,,0,0.355102041,-0.306122449,1,0,0,0.72,button_right_test,0,69,69,63,1
,,,,,,,,,,,,,,,,,5d951d9419479d00155e7140,27,2022-02-12_13h38.20.320,lexical_decision_task_DD,2021.2.3,iPhone,58.82352941,,,,,,,,,,1.079,1,,,,,,,,,,,,,,,,,,,,,,,0.335714286,-0.328571429,1,0,0,,,,,,,STORM,C,m,m,./images/STORM.png,,,,,,,,,,,,,,,,,,,,,0,0.335714286,-0.328571429,1,0,0,1.079,button_right_test,0,70,70,30,1
,,,,,,,,,,,,,,,,,5d951d9419479d00155e7140,27,2022-02-12_13h38.20.320,lexical_decision_task_DD,2021.2.3,iPhone,58.82352941,,,,,,,,,,0.799,1,,,,,,,,,,,,,,,,,,,,,,,0.346938776,-0.31122449,1,0,0,,,,,,,PIMPLE,LB,m,m,./images/PIMPLELB.png,,,,,,,,,,,,,,,,,,,,,0,0.346938776,-0.31122449,1,0,0,0.799,button_right_test,0,71,71,71,1
,,,,,,,,,,,,,,,,,5d951d9419479d00155e7140,27,2022-02-12_13h38.20.320,lexical_decision_task_DD,2021.2.3,iPhone,58.82352941,,,,,,,,,,0.669,1,,,,,,,,,,,,,,,,,,,,,,,0.342857143,-0.318367347,1,0,0,,,,,,,THROAT,C,m,m,./images/THROAT.png,,,,,,,,,,,,,,,,,,,,,0,0.342857143,-0.318367347,1,0,0,0.669,button_right_test,0,72,72,36,1
,,,,,,,,,,,,,,,,,5d951d9419479d00155e7140,27,2022-02-12_13h38.20.320,lexical_decision_task_DD,2021.2.3,iPhone,58.82352941,,,,,,,,,,0.63,1,,,,,,,,,,,,,,,,,,,,,,,0.32755102,-0.323469388,1,0,0,,,,,,,CRUST,HB,m,m,./images/CRUSTHB.png,,,,,,,,,,,,,,,,,,,,,0,0.32755102,-0.323469388,1,0,0,0.63,button_right_test,0,73,73,79,1
,,,,,,,,,,,,,,,,,5d951d9419479d00155e7140,27,2022-02-12_13h38.20.320,lexical_decision_task_DD,2021.2.3,iPhone,58.82352941,,,,,,,,,,0.693,0,,,,,,,,,,,,,,,,,,,,,,,0.339795918,-0.320408163,1,0,0,,,,,,,SNAKE,HB,z,m,./images/SNAKEHB.png,,,,,,,,,,,,,,,,,,,,,0,0.339795918,-0.320408163,1,0,0,0.693,button_right_test,0,74,74,124,1
,,,,,,,,,,,,,,,,,5d951d9419479d00155e7140,27,2022-02-12_13h38.20.320,lexical_decision_task_DD,2021.2.3,iPhone,58.82352941,,,,,,,,,,0.688,1,,,,,,,,,,,,,,,,,,,,,,,0.346938776,-0.314285714,1,0,0,,,,,,,CEMENT,LB,m,m,./images/CEMENTLB.png,,,,,,,,,,,,,,,,,,,,,0,0.346938776,-0.314285714,1,0,0,0.688,button_right_test,0,75,75,74,1
,,,,,,,,,,,,,,,,,5d951d9419479d00155e7140,27,2022-02-12_13h38.20.320,lexical_decision_task_DD,2021.2.3,iPhone,58.82352941,,,,,,,,,,0.933,1,,,,,,,,,,,,,,,,,,,,,,,-0.362244898,-0.301020408,1,0,0,,,,,,,STOVE,LB,z,m,./images/STOVELB.png,,,,,,,,,,,,,,,,,,,,,0,-0.362244898,-0.301020408,1,0,0,0.933,button_left_test,0,76,76,86,1
,,,,,,,,,,,,,,,,,5d951d9419479d00155e7140,27,2022-02-12_13h38.20.320,lexical_decision_task_DD,2021.2.3,iPhone,58.82352941,,,,,,,,,,1.021,1,,,,,,,,,,,,,,,,,,,,,,,-0.354081633,-0.319387755,1,0,0,,,,,,,CLOWN,HB,z,m,./images/CLOWNHB.png,,,,,,,,,,,,,,,,,,,,,0,-0.354081633,-0.319387755,1,0,0,1.021,button_left_test,0,77,77,106,1
,,,,,,,,,,,,,,,,,5d951d9419479d00155e7140,27,2022-02-12_13h38.20.320,lexical_decision_task_DD,2021.2.3,iPhone,58.82352941,,,,,,,,,,0.893,1,,,,,,,,,,,,,,,,,,,,,,,0.366326531,-0.3,1,0,0,,,,,,,CARPET,LB,m,m,./images/CARPETLB.png,,,,,,,,,,,,,,,,,,,,,0,0.366326531,-0.3,1,0,0,0.893,button_right_test,0,78,78,53,1
,,,,,,,,,,,,,,,,,5d951d9419479d00155e7140,27,2022-02-12_13h38.20.320,lexical_decision_task_DD,2021.2.3,iPhone,58.82352941,,,,,,,,,,1.04,1,,,,,,,,,,,,,,,,,,,,,,,0.359183673,-0.323469388,1,0,0,,,,,,,BABOON,HB,m,m,./images/BABOONHB.png,,,,,,,,,,,,,,,,,,,,,0,0.359183673,-0.323469388,1,0,0,1.04,button_right_test,0,79,79,58,1
,,,,,,,,,,,,,,,,,5d951d9419479d00155e7140,27,2022-02-12_13h38.20.320,lexical_decision_task_DD,2021.2.3,iPhone,58.82352941,,,,,,,,,,0.67,0,,,,,,,,,,,,,,,,,,,,,,,0.371428571,-0.294897959,1,0,0,,,,,,,ARTIST,HB,z,m,./images/ARTISTHB.png,,,,,,,,,,,,,,,,,,,,,0,0.371428571,-0.294897959,1,0,0,0.67,button_right_test,0,80,80,145,1
,,,,,,,,,,,,,,,,,5d951d9419479d00155e7140,27,2022-02-12_13h38.20.320,lexical_decision_task_DD,2021.2.3,iPhone,58.82352941,,,,,,,,,,0.65,1,,,,,,,,,,,,,,,,,,,,,,,0.353061224,-0.319387755,1,0,0,,,,,,,KITTEN,C,m,m,./images/KITTEN.png,,,,,,,,,,,,,,,,,,,,,0,0.353061224,-0.319387755,1,0,0,0.65,button_right_test,0,81,81,45,1
,,,,,,,,,,,,,,,,,5d951d9419479d00155e7140,27,2022-02-12_13h38.20.320,lexical_decision_task_DD,2021.2.3,iPhone,58.82352941,,,,,,,,,,0.884,1,,,,,,,,,,,,,,,,,,,,,,,0.364285714,-0.289795918,1,0,0,,,,,,,ONION,C,m,m,./images/ONION.png,,,,,,,,,,,,,,,,,,,,,0,0.364285714,-0.289795918,1,0,0,0.884,button_right_test,0,82,82,51,1
,,,,,,,,,,,,,,,,,5d951d9419479d00155e7140,27,2022-02-12_13h38.20.320,lexical_decision_task_DD,2021.2.3,iPhone,58.82352941,,,,,,,,,,0.747,1,,,,,,,,,,,,,,,,,,,,,,,0.105102041,-0.394897959,1,0,0,,,,,,,ATTIC,C,m,m,./images/ATTIC.png,break_done_button,,,,,,,,,,,,,,,,,,,,0,0.352040816,-0.314285714,1,0,0,0.747,button_right_test,0,83,83,27,1
,,,,,,,,,,,,,,,,,5d951d9419479d00155e7140,27,2022-02-12_13h38.20.320,lexical_decision_task_DD,2021.2.3,iPhone,58.82352941,,,,,,,,,,1.193,1,,,,,,,,,,,,,,,,,,,,,,,0.37244898,-0.319387755,1,0,0,,,,,,,SNACK,HB,m,m,./images/SNACKHB.png,,,,,,,,,,,,,,,,,,,,,0,0.37244898,-0.319387755,1,0,0,1.193,button_right_test,0,84,84,73,1
,,,,,,,,,,,,,,,,,5d951d9419479d00155e7140,27,2022-02-12_13h38.20.320,lexical_decision_task_DD,2021.2.3,iPhone,58.82352941,,,,,,,,,,0.71,1,,,,,,,,,,,,,,,,,,,,,,,0.36122449,-0.340816327,1,0,0,,,,,,,BURIAL,LB,m,m,./images/BURIALLB.png,,,,,,,,,,,,,,,,,,,,,0,0.36122449,-0.340816327,1,0,0,0.71,button_right_test,0,85,85,59,1
,,,,,,,,,,,,,,,,,5d951d9419479d00155e7140,27,2022-02-12_13h38.20.320,lexical_decision_task_DD,2021.2.3,iPhone,58.82352941,,,,,,,,,,0.719,0,,,,,,,,,,,,,,,,,,,,,,,0.37244898,-0.33877551,1,0,0,,,,,,,RAZOR,HB,z,m,./images/RAZORHB.png,,,,,,,,,,,,,,,,,,,,,0,0.37244898,-0.33877551,1,0,0,0.719,button_right_test,0,86,86,118,1
,,,,,,,,,,,,,,,,,5d951d9419479d00155e7140,27,2022-02-12_13h38.20.320,lexical_decision_task_DD,2021.2.3,iPhone,58.82352941,,,,,,,,,,0.551,1,,,,,,,,,,,,,,,,,,,,,,,0.368367347,-0.334693878,1,0,0,,,,,,,DOUGH,HB,m,m,./images/DOUGHHB.png,,,,,,,,,,,,,,,,,,,,,0,0.368367347,-0.334693878,1,0,0,0.551,button_right_test,0,87,87,19,1
,,,,,,,,,,,,,,,,,5d951d9419479d00155e7140,27,2022-02-12_13h38.20.320,lexical_decision_task_DD,2021.2.3,iPhone,58.82352941,,,,,,,,,,0.861,1,,,,,,,,,,,,,,,,,,,,,,,-0.36122449,-0.302040816,1,0,0,,,,,,,WHEEL,LB,z,m,./images/WHEELLB.png,,,,,,,,,,,,,,,,,,,,,0,-0.36122449,-0.302040816,1,0,0,0.861,button_left_test,0,88,88,161,1
,,,,,,,,,,,,,,,,,5d951d9419479d00155e7140,27,2022-02-12_13h38.20.320,lexical_decision_task_DD,2021.2.3,iPhone,58.82352941,,,,,,,,,,0.57,1,,,,,,,,,,,,,,,,,,,,,,,0.368367347,-0.353061224,1,0,0,,,,,,,WALRUS,LB,m,m,./images/WALRUSLB.png,,,,,,,,,,,,,,,,,,,,,0,0.368367347,-0.353061224,1,0,0,0.57,button_right_test,0,89,89,23,1
,,,,,,,,,,,,,,,,,5d951d9419479d00155e7140,27,2022-02-12_13h38.20.320,lexical_decision_task_DD,2021.2.3,iPhone,58.82352941,,,,,,,,,,0.498,1,,,,,,,,,,,,,,,,,,,,,,,0.366326531,-0.352040816,1,0,0,,,,,,,JAGUAR,C,m,m,./images/JAGUAR.png,,,,,,,,,,,,,,,,,,,,,0,0.366326531,-0.352040816,1,0,0,0.498,button_right_test,0,90,90,18,1
,,,,,,,,,,,,,,,,,5d951d9419479d00155e7140,27,2022-02-12_13h38.20.320,lexical_decision_task_DD,2021.2.3,iPhone,58.82352941,,,,,,,,,,0.62,1,,,,,,,,,,,,,,,,,,,,,,,0.396938776,-0.309183673,1,0,0,,,,,,,GREASE,C,m,m,./images/GREASE.png,,,,,,,,,,,,,,,,,,,,,0,0.396938776,-0.309183673,1,0,0,0.62,button_right_test,0,91,91,15,1
,,,,,,,,,,,,,,,,,5d951d9419479d00155e7140,27,2022-02-12_13h38.20.320,lexical_decision_task_DD,2021.2.3,iPhone,58.82352941,,,,,,,,,,0.982,1,,,,,,,,,,,,,,,,,,,,,,,-0.32244898,-0.303061224,1,0,0,,,,,,,CHAIN,C,z,m,./images/CHAIN.png,,,,,,,,,,,,,,,,,,,,,0,-0.32244898,-0.303061224,1,0,0,0.982,button_left_test,0,92,92,126,1
,,,,,,,,,,,,,,,,,5d951d9419479d00155e7140,27,2022-02-12_13h38.20.320,lexical_decision_task_DD,2021.2.3,iPhone,58.82352941,,,,,,,,,,0.897,1,,,,,,,,,,,,,,,,,,,,,,,-0.318367347,-0.281632653,1,0,0,,,,,,,BUBBLE,LB,z,m,./images/BUBBLELB.png,,,,,,,,,,,,,,,,,,,,,0,-0.318367347,-0.281632653,1,0,0,0.897,button_left_test,0,93,93,155,1
,,,,,,,,,,,,,,,,,5d951d9419479d00155e7140,27,2022-02-12_13h38.20.320,lexical_decision_task_DD,2021.2.3,iPhone,58.82352941,,,,,,,,,,0.851,1,,,,,,,,,,,,,,,,,,,,,,,0.370408163,-0.325510204,1,0,0,,,,,,,CANYON,HB,m,m,./images/CANYONHB.png,,,,,,,,,,,,,,,,,,,,,0,0.370408163,-0.325510204,1,0,0,0.851,button_right_test,0,94,94,34,1
,,,,,,,,,,,,,,,,,5d951d9419479d00155e7140,27,2022-02-12_13h38.20.320,lexical_decision_task_DD,2021.2.3,iPhone,58.82352941,,,,,,,,,,1.65,0,,,,,,,,,,,,,,,,,,,,,,,0.360204082,-0.331632653,1,0,0,,,,,,,STOOL,HB,z,m,./images/STOOLHB.png,,,,,,,,,,,,,,,,,,,,,0,0.360204082,-0.331632653,1,0,0,1.65,button_right_test,0,95,95,127,1
,,,,,,,,,,,,,,,,,5d951d9419479d00155e7140,27,2022-02-12_13h38.20.320,lexical_decision_task_DD,2021.2.3,iPhone,58.82352941,,,,,,,,,,0.621,0,,,,,,,,,,,,,,,,,,,,,,,0.357142857,-0.352040816,1,0,0,,,,,,,CANDY,C,z,m,./images/CANDY.png,,,,,,,,,,,,,,,,,,,,,0,0.357142857,-0.352040816,1,0,0,0.621,button_right_test,0,96,96,123,1
,,,,,,,,,,,,,,,,,5d951d9419479d00155e7140,27,2022-02-12_13h38.20.320,lexical_decision_task_DD,2021.2.3,iPhone,58.82352941,,,,,,,,,,0.74,1,,,,,,,,,,,,,,,,,,,,,,,0.365306122,-0.335714286,1,0,0,,,,,,,LADDER,LB,m,m,./images/LADDERLB.png,,,,,,,,,,,,,,,,,,,,,0,0.365306122,-0.335714286,1,0,0,0.74,button_right_test,0,97,97,38,1
,,,,,,,,,,,,,,,,,5d951d9419479d00155e7140,27,2022-02-12_13h38.20.320,lexical_decision_task_DD,2021.2.3,iPhone,58.82352941,,,,,,,,,,0.679,1,,,,,,,,,,,,,,,,,,,,,,,-0.347959184,-0.286734694,1,0,0,,,,,,,JUMPER,LB,z,m,./images/JUMPERLB.png,,,,,,,,,,,,,,,,,,,,,0,-0.347959184,-0.286734694,1,0,0,0.679,button_left_test,0,98,98,158,1
,,,,,,,,,,,,,,,,,5d951d9419479d00155e7140,27,2022-02-12_13h38.20.320,lexical_decision_task_DD,2021.2.3,iPhone,58.82352941,,,,,,,,,,1.291,1,,,,,,,,,,,,,,,,,,,,,,,-0.346938776,-0.310204082,1,0,0,,,,,,,CANOE,HB,z,m,./images/CANOEHB.png,,,,,,,,,,,,,,,,,,,,,0,-0.346938776,-0.310204082,1,0,0,1.291,button_left_test,0,99,99,142,1
