key_resp.keys,instr_done_touch.x,instr_done_touch.y,instr_done_touch.leftButton,instr_done_touch.midButton,instr_done_touch.rightButton,instr_done_touch.clicked_name,instruction_pages.thisRepN,instruction_pages.thisTrialN,instruction_pages.thisN,instruction_pages.thisIndex,instruction_pages.ran,pageN,phase,instruct_text,has_image,instruct_image,participant,age,date,expName,psychopyVersion,OS,frameRate,response.keys,response.corr,touch_resp.x,touch_resp.y,touch_resp.leftButton,touch_resp.midButton,touch_resp.rightButton,touch_resp.time,touch_resp.clicked_name,rt,corr,practrials.thisRepN,practrials.thisTrialN,practrials.thisN,practrials.thisIndex,practrials.ran,TrialID,Target,corrAns,end_of_practice_trials_pages.thisRepN,end_of_practice_trials_pages.thisTrialN,end_of_practice_trials_pages.thisN,end_of_practice_trials_pages.thisIndex,end_of_practice_trials_pages.ran,key_resp_2.keys,key_resp_2.corr,targ_click.x,targ_click.y,targ_click.leftButton,targ_click.midButton,targ_click.rightButton,targ_click.time,targ_click.clicked_name,break_done_touch.x,break_done_touch.y,break_done_touch.leftButton,break_done_touch.midButton,break_done_touch.rightButton,break_done_keyboard.keys,maintrials.thisRepN,maintrials.thisTrialN,maintrials.thisN,maintrials.thisIndex,maintrials.ran,string,blur,study,lex,stim_path,break_done_touch.clicked_name,mouse_2.x,mouse_2.y,mouse_2.leftButton,mouse_2.midButton,mouse_2.rightButton,mouse_2.clicked_name,slider.response,slider.rt,trials.thisRepN,trials.thisTrialN,trials.thisN,trials.thisIndex,trials.ran,test_instructions.thisRepN,test_instructions.thisTrialN,test_instructions.thisN,test_instructions.thisIndex,test_instructions.ran,key_resp_3.keys,key_resp_3.corr,test_click.x,test_click.y,test_click.leftButton,test_click.midButton,test_click.rightButton,test_click.time,test_click.clicked_name,test_phase.thisRepN,test_phase.thisTrialN,test_phase.thisN,test_phase.thisIndex,test_phase.ran
,0.073884686,-0.403774076,1,0,0,instr_done_button,0,0,0,0,1,1,instructions,"INSTRUCTIONS
At the start of each trial, look at the plus sign  (+) in the center of the screen.  This tells you that a trial is about to begin and where to look. Second, the plus sign will disappear and a string of letters will appear. Your task is to determine if the string of letters is a word or not. If the item is a word press the M key (on keyboard)  or touch the word button (phone/tablet).  If the item is not a word,  press the  Z key (on keyboard)  or touch the nonword button (on phone/tablet). 
Press the space bar or touch  continue.",0,,5d9e9204340c7700150ab74c,51,2022-02-12_12h16.46.601,lexical_decision_task_DD_L2,2021.2.3,Linux armv8l,120.3224642,,,,,,,,,,,,,,,,,,,,,,,,,,,,,,,,,,,,,,,,,,,,,,,,,,,,,,,,,,,,,,,,,,,,,,,,,,,,,,,,,,
,0.021331787,-0.410112918,1,0,0,instr_done_button,0,1,1,1,1,2,instructions,"If your device has a keyboard, press the 'Z' key for nonwords and the 'M' key for words.





Press the space bar or touch the button below to continue.",0,keyboard-example.gif,5d9e9204340c7700150ab74c,51,2022-02-12_12h16.46.601,lexical_decision_task_DD_L2,2021.2.3,Linux armv8l,120.3224642,,,,,,,,,,,,,,,,,,,,,,,,,,,,,,,,,,,,,,,,,,,,,,,,,,,,,,,,,,,,,,,,,,,,,,,,,,,,,,,,,,
,0.034334572,-0.381588093,1,0,0,instr_done_button,0,2,2,2,1,3,instructions,"If you are using a touchscreen only device, use the buttons on the screen. Do not use the mouse.





Press the space bar or touch the button below to continue.",0,touchscreen-example.gif,5d9e9204340c7700150ab74c,51,2022-02-12_12h16.46.601,lexical_decision_task_DD_L2,2021.2.3,Linux armv8l,120.3224642,,,,,,,,,,,,,,,,,,,,,,,,,,,,,,,,,,,,,,,,,,,,,,,,,,,,,,,,,,,,,,,,,,,,,,,,,,,,,,,,,,
,0.069550449,-0.419377373,1,0,0,instr_done_button,0,3,3,3,1,4,instructions,"It is very important that you respond as quickly and accurately as possible, as each letter string will only be on the screen for two seconds. If you do not respond within this time, the message 'Too slow!' will be displayed and the experiment will progress to the next letter string. The first 20 trials will be practice trials and you will receive feedback on your answers. 

Press the space bar or touch the button below to start the practice trials.",0,,5d9e9204340c7700150ab74c,51,2022-02-12_12h16.46.601,lexical_decision_task_DD_L2,2021.2.3,Linux armv8l,120.3224642,,,,,,,,,,,,,,,,,,,,,,,,,,,,,,,,,,,,,,,,,,,,,,,,,,,,,,,,,,,,,,,,,,,,,,,,,,,,,,,,,,
,,,,,,,,,,,,,,,,,5d9e9204340c7700150ab74c,51,2022-02-12_12h16.46.601,lexical_decision_task_DD_L2,2021.2.3,Linux armv8l,120.3224642,,0,0.384867696,-0.334046669,1,0,0,2.1005,button_right,2.1005,1,0,0,0,2,1,1001,ALMOND,m,,,,,,,,,,,,,,,,,,,,,,,,,,,,,,,,,,,,,,,,,,,,,,,,,,,,,,,,,,,,,,,
,,,,,,,,,,,,,,,,,5d9e9204340c7700150ab74c,51,2022-02-12_12h16.46.601,lexical_decision_task_DD_L2,2021.2.3,Linux armv8l,120.3224642,,0,0.437420595,-0.308447458,1,0,0,5.672,button_right,5.672,0,0,1,1,8,1,1001,ASLERT,z,,,,,,,,,,,,,,,,,,,,,,,,,,,,,,,,,,,,,,,,,,,,,,,,,,,,,,,,,,,,,,,
,,,,,,,,,,,,,,,,,5d9e9204340c7700150ab74c,51,2022-02-12_12h16.46.601,lexical_decision_task_DD_L2,2021.2.3,Linux armv8l,120.3224642,,0,0.441213071,-0.325269829,1,0,0,1.8046,button_right,1.8046,1,0,2,2,5,1,1001,OBTAIN,m,,,,,,,,,,,,,,,,,,,,,,,,,,,,,,,,,,,,,,,,,,,,,,,,,,,,,,,,,,,,,,,
,,,,,,,,,,,,,,,,,5d9e9204340c7700150ab74c,51,2022-02-12_12h16.46.601,lexical_decision_task_DD_L2,2021.2.3,Linux armv8l,120.3224642,,0,0.466676879,-0.305521845,1,0,0,1.8212,button_right,1.8212,1,0,3,3,0,1,1001,UTOPIA,m,,,,,,,,,,,,,,,,,,,,,,,,,,,,,,,,,,,,,,,,,,,,,,,,,,,,,,,,,,,,,,,
,,,,,,,,,,,,,,,,,5d9e9204340c7700150ab74c,51,2022-02-12_12h16.46.601,lexical_decision_task_DD_L2,2021.2.3,Linux armv8l,120.3224642,,0,-0.492819555,-0.324050903,1,0,0,1.2538,button_left,1.2538,1,0,4,4,13,1,1001,ROUPET,z,,,,,,,,,,,,,,,,,,,,,,,,,,,,,,,,,,,,,,,,,,,,,,,,,,,,,,,,,,,,,,,
,,,,,,,,,,,,,,,,,5d9e9204340c7700150ab74c,51,2022-02-12_12h16.46.601,lexical_decision_task_DD_L2,2021.2.3,Linux armv8l,120.3224642,,0,-0.543747096,-0.329414442,1,0,0,2.3242,button_left,2.3242,1,0,5,5,9,1,1001,FARINY,z,,,,,,,,,,,,,,,,,,,,,,,,,,,,,,,,,,,,,,,,,,,,,,,,,,,,,,,,,,,,,,,
,,,,,,,,,,,,,,,,,5d9e9204340c7700150ab74c,51,2022-02-12_12h16.46.601,lexical_decision_task_DD_L2,2021.2.3,Linux armv8l,120.3224642,,0,-0.529660753,-0.329414442,1,0,0,2.9423,button_left,2.9423,1,0,6,6,11,1,1001,RASHET,z,,,,,,,,,,,,,,,,,,,,,,,,,,,,,,,,,,,,,,,,,,,,,,,,,,,,,,,,,,,,,,,
,,,,,,,,,,,,,,,,,5d9e9204340c7700150ab74c,51,2022-02-12_12h16.46.601,lexical_decision_task_DD_L2,2021.2.3,Linux armv8l,120.3224642,,0,-0.553499166,-0.3147863,1,0,0,1.8411,button_left,1.8411,1,0,7,7,14,1,1001,THRALE,z,,,,,,,,,,,,,,,,,,,,,,,,,,,,,,,,,,,,,,,,,,,,,,,,,,,,,,,,,,,,,,,
,,,,,,,,,,,,,,,,,5d9e9204340c7700150ab74c,51,2022-02-12_12h16.46.601,lexical_decision_task_DD_L2,2021.2.3,Linux armv8l,120.3224642,,0,0.5203133,-0.298451692,1,0,0,1.5487,button_right,1.5487,1,0,8,8,7,1,1001,VOLUME,m,,,,,,,,,,,,,,,,,,,,,,,,,,,,,,,,,,,,,,,,,,,,,,,,,,,,,,,,,,,,,,,
,,,,,,,,,,,,,,,,,5d9e9204340c7700150ab74c,51,2022-02-12_12h16.46.601,lexical_decision_task_DD_L2,2021.2.3,Linux armv8l,120.3224642,,0,0.523022105,-0.299426773,1,0,0,0.9952,button_right,0.9952,1,0,9,9,6,1,1001,ZOMBIE,m,,,,,,,,,,,,,,,,,,,,,,,,,,,,,,,,,,,,,,,,,,,,,,,,,,,,,,,,,,,,,,,
,,,,,,,,,,,,,,,,,5d9e9204340c7700150ab74c,51,2022-02-12_12h16.46.601,lexical_decision_task_DD_L2,2021.2.3,Linux armv8l,120.3224642,,0,-0.56596019,-0.295038464,1,0,0,1.4517,button_left,1.4517,1,0,10,10,10,1,1001,INLADE,z,,,,,,,,,,,,,,,,,,,,,,,,,,,,,,,,,,,,,,,,,,,,,,,,,,,,,,,,,,,,,,,
,,,,,,,,,,,,,,,,,5d9e9204340c7700150ab74c,51,2022-02-12_12h16.46.601,lexical_decision_task_DD_L2,2021.2.3,Linux armv8l,120.3224642,,0,-0.566501951,-0.321612756,1,0,0,1.1453,button_left,1.1453,1,0,11,11,15,1,1001,WHAISE,z,,,,,,,,,,,,,,,,,,,,,,,,,,,,,,,,,,,,,,,,,,,,,,,,,,,,,,,,,,,,,,,
,,,,,,,,,,,,,,,,,5d9e9204340c7700150ab74c,51,2022-02-12_12h16.46.601,lexical_decision_task_DD_L2,2021.2.3,Linux armv8l,120.3224642,,0,0.523564015,-0.306740844,1,0,0,0.9355,button_right,0.9355,1,0,12,12,3,1,1001,MATRIX,m,,,,,,,,,,,,,,,,,,,,,,,,,,,,,,,,,,,,,,,,,,,,,,,,,,,,,,,,,,,,,,,
,,,,,,,,,,,,,,,,,5d9e9204340c7700150ab74c,51,2022-02-12_12h16.46.601,lexical_decision_task_DD_L2,2021.2.3,Linux armv8l,120.3224642,,0,0.514895393,-0.289674703,1,0,0,1.431,button_right,1.431,1,0,13,13,4,1,1001,SQUEAK,m,,,,,,,,,,,,,,,,,,,,,,,,,,,,,,,,,,,,,,,,,,,,,,,,,,,,,,,,,,,,,,,
,,,,,,,,,,,,,,,,,5d9e9204340c7700150ab74c,51,2022-02-12_12h16.46.601,lexical_decision_task_DD_L2,2021.2.3,Linux armv8l,120.3224642,,0,0.517062585,-0.306740844,1,0,0,0.8189,button_right,0.8189,1,0,14,14,1,1,1001,ADJUST,m,,,,,,,,,,,,,,,,,,,,,,,,,,,,,,,,,,,,,,,,,,,,,,,,,,,,,,,,,,,,,,,
,,,,,,,,,,,,,,,,,5d9e9204340c7700150ab74c,51,2022-02-12_12h16.46.601,lexical_decision_task_DD_L2,2021.2.3,Linux armv8l,120.3224642,,0,-0.508531256,-0.310154072,1,0,0,2.4597,button_left,2.4597,1,0,15,15,12,1,1001,SPRINY,z,,,,,,,,,,,,,,,,,,,,,,,,,,,,,,,,,,,,,,,,,,,,,,,,,,,,,,,,,,,,,,,
,0.003994766,-0.402311232,1,0,0,instr_done_button,,,,,,1,end_of_practice,"You have completed the practice trials. During the experimental trials, you will not receive feedback. 
Before you begin, please ensure that you are in a comfortable and quiet location and will not be disturbed for about 15 minutes, as we cannot use your data if you do not complete all the trials. 
 When you are ready to start the experimental trials, please press space or touch the button below.",,,5d9e9204340c7700150ab74c,51,2022-02-12_12h16.46.601,lexical_decision_task_DD_L2,2021.2.3,Linux armv8l,120.3224642,,,,,,,,,,,,,,,,,,,,0,0,0,0,1,,,,,,,,,,,,,,,,,,,,,,,,,,,,,,,,,,,,,,,,,,,,,,,,,,,,,,,,,,
,,,,,,,,,,,,,,,,,5d9e9204340c7700150ab74c,51,2022-02-12_12h16.46.601,lexical_decision_task_DD_L2,2021.2.3,Linux armv8l,120.3224642,,,,,,,,,,1.8994,1,,,,,,,,,,,,,,,0,0.481846782,-0.315761529,1,0,0,1.8994,button_right_main,0.481846782,-0.315761529,1,0,0,,0,0,0,29,1,CRUMB,C,old,m,./images/CRUMB.png,,,,,,,,,,,,,,,,,,,,,,,,,,,,,,,,,
,,,,,,,,,,,,,,,,,5d9e9204340c7700150ab74c,51,2022-02-12_12h16.46.601,lexical_decision_task_DD_L2,2021.2.3,Linux armv8l,120.3224642,,,,,,,,,,1.2271,1,,,,,,,,,,,,,,,0,-0.408301566,-0.320393757,1,0,0,1.2271,button_left_main,-0.408301566,-0.320393757,1,0,0,,0,1,1,155,1,CANGY,LB,old,z,./images/CANGYLB.png,,,,,,,,,,,,,,,,,,,,,,,,,,,,,,,,,
,,,,,,,,,,,,,,,,,5d9e9204340c7700150ab74c,51,2022-02-12_12h16.46.601,lexical_decision_task_DD_L2,2021.2.3,Linux armv8l,120.3224642,,,,,,,,,,0.9081,1,,,,,,,,,,,,,,,0,0.479679589,-0.295038464,1,0,0,0.9081,button_right_main,0.479679589,-0.295038464,1,0,0,,0,2,2,0,1,TOMATO,HB,old,m,./images/TOMATOHB.png,,,,,,,,,,,,,,,,,,,,,,,,,,,,,,,,,
,,,,,,,,,,,,,,,,,5d9e9204340c7700150ab74c,51,2022-02-12_12h16.46.601,lexical_decision_task_DD_L2,2021.2.3,Linux armv8l,120.3224642,,,,,,,,,,0.9142,1,,,,,,,,,,,,,,,0,0.490515255,-0.291381317,1,0,0,0.9142,button_right_main,0.490515255,-0.291381317,1,0,0,,0,3,3,60,1,TWINS,HB,old,m,./images/TWINSHB.png,,,,,,,,,,,,,,,,,,,,,,,,,,,,,,,,,
,,,,,,,,,,,,,,,,,5d9e9204340c7700150ab74c,51,2022-02-12_12h16.46.601,lexical_decision_task_DD_L2,2021.2.3,Linux armv8l,120.3224642,,,,,,,,,,1.0656,1,,,,,,,,,,,,,,,0,-0.519366885,-0.298695388,1,0,0,1.0656,button_left_main,-0.519366885,-0.298695388,1,0,0,,0,4,4,127,1,NINDY,HB,old,z,./images/NINDYHB.png,,,,,,,,,,,,,,,,,,,,,,,,,,,,,,,,,
,,,,,,,,,,,,,,,,,5d9e9204340c7700150ab74c,51,2022-02-12_12h16.46.601,lexical_decision_task_DD_L2,2021.2.3,Linux armv8l,120.3224642,,,,,,,,,,1.1869,1,,,,,,,,,,,,,,,0,-0.531827908,-0.291137547,1,0,0,1.1869,button_left_main,-0.531827908,-0.291137547,1,0,0,,0,5,5,128,1,GRIFT,LB,old,z,./images/GRIFTLB.png,,,,,,,,,,,,,,,,,,,,,,,,,,,,,,,,,
,,,,,,,,,,,,,,,,,5d9e9204340c7700150ab74c,51,2022-02-12_12h16.46.601,lexical_decision_task_DD_L2,2021.2.3,Linux armv8l,120.3224642,,,,,,,,,,0.9087,1,,,,,,,,,,,,,,,0,-0.520450481,-0.303327616,1,0,0,0.9087,button_left_main,-0.520450481,-0.303327616,1,0,0,,0,6,6,105,1,MOKER,C,old,z,./images/MOKER.png,,,,,,,,,,,,,,,,,,,,,,,,,,,,,,,,,
,,,,,,,,,,,,,,,,,5d9e9204340c7700150ab74c,51,2022-02-12_12h16.46.601,lexical_decision_task_DD_L2,2021.2.3,Linux armv8l,120.3224642,,,,,,,,,,0.8062,1,,,,,,,,,,,,,,,0,0.509477634,-0.29381939,1,0,0,0.8062,button_right_main,0.509477634,-0.29381939,1,0,0,,0,7,7,36,1,THROAT,HB,old,m,./images/THROATHB.png,,,,,,,,,,,,,,,,,,,,,,,,,,,,,,,,,
,,,,,,,,,,,,,,,,,5d9e9204340c7700150ab74c,51,2022-02-12_12h16.46.601,lexical_decision_task_DD_L2,2021.2.3,Linux armv8l,120.3224642,,,,,,,,,,1.0893,1,,,,,,,,,,,,,,,0,-0.517741564,-0.298695388,1,0,0,1.0893,button_left_main,-0.517741564,-0.298695388,1,0,0,,0,8,8,98,1,BAMPS,LB,old,z,./images/BAMPSLB.png,,,,,,,,,,,,,,,,,,,,,,,,,,,,,,,,,
,,,,,,,,,,,,,,,,,5d9e9204340c7700150ab74c,51,2022-02-12_12h16.46.601,lexical_decision_task_DD_L2,2021.2.3,Linux armv8l,120.3224642,,,,,,,,,,2.448,1,,,,,,,,,,,,,,,0,-0.519366885,-0.302840001,1,0,0,2.448,button_left_main,-0.519366885,-0.302840001,1,0,0,,0,9,9,142,1,PLASK,HB,old,z,./images/PLASKHB.png,,,,,,,,,,,,,,,,,,,,,,,,,,,,,,,,,
,,,,,,,,,,,,,,,,,5d9e9204340c7700150ab74c,51,2022-02-12_12h16.46.601,lexical_decision_task_DD_L2,2021.2.3,Linux armv8l,120.3224642,,,,,,,,,,3.0275,1,,,,,,,,,,,,,,,0,-0.511240172,-0.292112776,1,0,0,3.0275,button_left_main,-0.511240172,-0.292112776,1,0,0,,0,10,10,85,1,CHULK,HB,old,z,./images/CHULKHB.png,,,,,,,,,,,,,,,,,,,,,,,,,,,,,,,,,
,,,,,,,,,,,,,,,,,5d9e9204340c7700150ab74c,51,2022-02-12_12h16.46.601,lexical_decision_task_DD_L2,2021.2.3,Linux armv8l,120.3224642,,,,,,,,,,2.1101,1,,,,,,,,,,,,,,,0,-0.520450481,-0.308691377,1,0,0,2.1101,button_left_main,-0.520450481,-0.308691377,1,0,0,,0,11,11,165,1,TROWN,C,old,z,./images/TROWN.png,,,,,,,,,,,,,,,,,,,,,,,,,,,,,,,,,
,,,,,,,,,,,,,,,,,5d9e9204340c7700150ab74c,51,2022-02-12_12h16.46.601,lexical_decision_task_DD_L2,2021.2.3,Linux armv8l,120.3224642,,,,,,,,,,1.2954,1,,,,,,,,,,,,,,,0,-0.511240172,-0.316980529,1,0,0,1.2954,button_left_main,-0.511240172,-0.316980529,1,0,0,,0,12,12,153,1,CLUPS,C,old,z,./images/CLUPS.png,,,,,,,,,,,,,,,,,,,,,,,,,,,,,,,,,
,,,,,,,,,,,,,,,,,5d9e9204340c7700150ab74c,51,2022-02-12_12h16.46.601,lexical_decision_task_DD_L2,2021.2.3,Linux armv8l,120.3224642,,,,,,,,,,1.1393,1,,,,,,,,,,,,,,,0,0.511644678,-0.30479046,1,0,0,1.1393,button_right_main,0.511644678,-0.30479046,1,0,0,,0,13,13,56,1,PACKET,C,old,m,./images/PACKET.png,,,,,,,,,,,,,,,,,,,,,,,,,,,,,,,,,
,,,,,,,,,,,,,,,,,5d9e9204340c7700150ab74c,51,2022-02-12_12h16.46.601,lexical_decision_task_DD_L2,2021.2.3,Linux armv8l,120.3224642,,,,,,,,,,0.9262,1,,,,,,,,,,,,,,,0,0.510019395,-0.296988774,1,0,0,0.9262,button_right_main,0.510019395,-0.296988774,1,0,0,,0,14,14,45,1,KITTEN,HB,old,m,./images/KITTENHB.png,,,,,,,,,,,,,,,,,,,,,,,,,,,,,,,,,
,,,,,,,,,,,,,,,,,5d9e9204340c7700150ab74c,51,2022-02-12_12h16.46.601,lexical_decision_task_DD_L2,2021.2.3,Linux armv8l,120.3224642,,,,,,,,,,0.882,1,,,,,,,,,,,,,,,0,0.510561156,-0.298207774,1,0,0,0.882,button_right_main,0.510561156,-0.298207774,1,0,0,,0,15,15,34,1,CANYON,LB,old,m,./images/CANYONLB.png,,,,,,,,,,,,,,,,,,,,,,,,,,,,,,,,,
,,,,,,,,,,,,,,,,,5d9e9204340c7700150ab74c,51,2022-02-12_12h16.46.601,lexical_decision_task_DD_L2,2021.2.3,Linux armv8l,120.3224642,,,,,,,,,,0.8779,1,,,,,,,,,,,,,,,0,0.502434444,-0.312592145,1,0,0,0.8779,button_right_main,0.502434444,-0.312592145,1,0,0,,0,16,16,48,1,SPORT,HB,old,m,./images/SPORTHB.png,,,,,,,,,,,,,,,,,,,,,,,,,,,,,,,,,
,,,,,,,,,,,,,,,,,5d9e9204340c7700150ab74c,51,2022-02-12_12h16.46.601,lexical_decision_task_DD_L2,2021.2.3,Linux armv8l,120.3224642,,,,,,,,,,1.0049,1,,,,,,,,,,,,,,,0,-0.502029863,-0.320393757,1,0,0,1.0049,button_left_main,-0.502029863,-0.320393757,1,0,0,,0,17,17,89,1,DRIEK,LB,old,z,./images/DRIEKLB.png,,,,,,,,,,,,,,,,,,,,,,,,,,,,,,,,,
,,,,,,,,,,,,,,,,,5d9e9204340c7700150ab74c,51,2022-02-12_12h16.46.601,lexical_decision_task_DD_L2,2021.2.3,Linux armv8l,120.3224642,,,,,,,,,,2.3291,1,,,,,,,,,,,,,,,0,-0.502571661,-0.315517833,1,0,0,2.3291,button_left_main,-0.502571661,-0.315517833,1,0,0,,0,18,18,97,1,CHIDS,HB,old,z,./images/CHIDSHB.png,,,,,,,,,,,,,,,,,,,,,,,,,,,,,,,,,
,,,,,,,,,,,,,,,,,5d9e9204340c7700150ab74c,51,2022-02-12_12h16.46.601,lexical_decision_task_DD_L2,2021.2.3,Linux armv8l,120.3224642,,,,,,,,,,0.9283,1,,,,,,,,,,,,,,,0,0.500267251,-0.304059075,1,0,0,0.9283,button_right_main,0.500267251,-0.304059075,1,0,0,,0,19,19,76,1,INFANT,LB,old,m,./images/INFANTLB.png,,,,,,,,,,,,,,,,,,,,,,,,,,,,,,,,,
,,,,,,,,,,,,,,,,,5d9e9204340c7700150ab74c,51,2022-02-12_12h16.46.601,lexical_decision_task_DD_L2,2021.2.3,Linux armv8l,120.3224642,,,,,,,,,,1.0171,1,,,,,,,,,,,,,,,0,-0.517199766,-0.302108617,1,0,0,1.0171,button_left_main,-0.517199766,-0.302108617,1,0,0,,0,20,20,110,1,CRUNK,LB,old,z,./images/CRUNKLB.png,,,,,,,,,,,,,,,,,,,,,,,,,,,,,,,,,
,,,,,,,,,,,,,,,,,5d9e9204340c7700150ab74c,51,2022-02-12_12h16.46.601,lexical_decision_task_DD_L2,2021.2.3,Linux armv8l,120.3224642,,,,,,,,,,0.8038,1,,,,,,,,,,,,,,,0,0.51327011,-0.302596231,1,0,0,0.8038,button_right_main,0.51327011,-0.302596231,1,0,0,,0,21,21,52,1,BANNER,LB,old,m,./images/BANNERLB.png,,,,,,,,,,,,,,,,,,,,,,,,,,,,,,,,,
,,,,,,,,,,,,,,,,,5d9e9204340c7700150ab74c,51,2022-02-12_12h16.46.601,lexical_decision_task_DD_L2,2021.2.3,Linux armv8l,120.3224642,,,,,,,,,,0.9617,1,,,,,,,,,,,,,,,0,0.507852202,-0.309178917,1,0,0,0.9617,button_right_main,0.507852202,-0.309178917,1,0,0,,0,22,22,2,1,BEARD,C,old,m,./images/BEARD.png,,,,,,,,,,,,,,,,,,,,,,,,,,,,,,,,,
,,,,,,,,,,,,,,,,,5d9e9204340c7700150ab74c,51,2022-02-12_12h16.46.601,lexical_decision_task_DD_L2,2021.2.3,Linux armv8l,120.3224642,,,,,,,,,,1.0531,1,,,,,,,,,,,,,,,0,-0.515032648,-0.299183003,1,0,0,1.0531,button_left_main,-0.515032648,-0.299183003,1,0,0,,0,23,23,114,1,RIKES,C,old,z,./images/RIKES.png,,,,,,,,,,,,,,,,,,,,,,,,,,,,,,,,,
,,,,,,,,,,,,,,,,,5d9e9204340c7700150ab74c,51,2022-02-12_12h16.46.601,lexical_decision_task_DD_L2,2021.2.3,Linux armv8l,120.3224642,,,,,,,,,,1.0173,1,,,,,,,,,,,,,,,0,-0.517199766,-0.296988774,1,0,0,1.0173,button_left_main,-0.517199766,-0.296988774,1,0,0,,0,24,24,150,1,NOOLS,C,old,z,./images/NOOLS.png,,,,,,,,,,,,,,,,,,,,,,,,,,,,,,,,,
,,,,,,,,,,,,,,,,,5d9e9204340c7700150ab74c,51,2022-02-12_12h16.46.601,lexical_decision_task_DD_L2,2021.2.3,Linux armv8l,120.3224642,,,,,,,,,,0.8559,1,,,,,,,,,,,,,,,0,0.513811871,-0.300402002,1,0,0,0.8559,button_right_main,0.513811871,-0.300402002,1,0,0,,0,25,25,77,1,COUCH,C,old,m,./images/COUCH.png,,,,,,,,,,,,,,,,,,,,,,,,,,,,,,,,,
,,,,,,,,,,,,,,,,,5d9e9204340c7700150ab74c,51,2022-02-12_12h16.46.601,lexical_decision_task_DD_L2,2021.2.3,Linux armv8l,120.3224642,,,,,,,,,,1.097,1,,,,,,,,,,,,,,,0,-0.513949089,-0.307959844,1,0,0,1.097,button_left_main,-0.513949089,-0.307959844,1,0,0,,0,26,26,138,1,PLICE,C,old,z,./images/PLICE.png,,,,,,,,,,,,,,,,,,,,,,,,,,,,,,,,,
,,,,,,,,,,,,,,,,,5d9e9204340c7700150ab74c,51,2022-02-12_12h16.46.601,lexical_decision_task_DD_L2,2021.2.3,Linux armv8l,120.3224642,,,,,,,,,,0.9365,1,,,,,,,,,,,,,,,0,-0.519908683,-0.310641687,1,0,0,0.9365,button_left_main,-0.519908683,-0.310641687,1,0,0,,0,27,27,95,1,HANTY,LB,old,z,./images/HANTYLB.png,,,,,,,,,,,,,,,,,,,,,,,,,,,,,,,,,
,,,,,,,,,,,,,,,,,5d9e9204340c7700150ab74c,51,2022-02-12_12h16.46.601,lexical_decision_task_DD_L2,2021.2.3,Linux armv8l,120.3224642,,,,,,,,,,0.8446,0,,,,,,,,,,,,,,,0,-0.517741564,-0.309666458,1,0,0,0.8446,button_left_main,-0.517741564,-0.309666458,1,0,0,,0,28,28,70,1,URINE,LB,old,m,./images/URINELB.png,,,,,,,,,,,,,,,,,,,,,,,,,,,,,,,,,
,,,,,,,,,,,,,,,,,5d9e9204340c7700150ab74c,51,2022-02-12_12h16.46.601,lexical_decision_task_DD_L2,2021.2.3,Linux armv8l,120.3224642,,,,,,,,,,1.096,1,,,,,,,,,,,,,,,0,0.514895393,-0.28528632,1,0,0,1.096,button_right_main,0.514895393,-0.28528632,1,0,0,,0,29,29,74,1,CEMENT,C,old,m,./images/CEMENT.png,,,,,,,,,,,,,,,,,,,,,,,,,,,,,,,,,
,,,,,,,,,,,,,,,,,5d9e9204340c7700150ab74c,51,2022-02-12_12h16.46.601,lexical_decision_task_DD_L2,2021.2.3,Linux armv8l,120.3224642,,,,,,,,,,1.1221,1,,,,,,,,,,,,,,,0,-0.499320947,-0.3242946,1,0,0,1.1221,button_left_main,-0.499320947,-0.3242946,1,0,0,,0,30,30,141,1,PLEET,C,old,z,./images/PLEET.png,,,,,,,,,,,,,,,,,,,,,,,,,,,,,,,,,
,,,,,,,,,,,,,,,,,5d9e9204340c7700150ab74c,51,2022-02-12_12h16.46.601,lexical_decision_task_DD_L2,2021.2.3,Linux armv8l,120.3224642,,,,,,,,,,1.5372,1,,,,,,,,,,,,,,,0,-0.489568877,-0.309910302,1,0,0,1.5372,button_left_main,-0.489568877,-0.309910302,1,0,0,,0,31,31,108,1,GRUET,C,old,z,./images/GRUET.png,,,,,,,,,,,,,,,,,,,,,,,,,,,,,,,,,
,,,,,,,,,,,,,,,,,5d9e9204340c7700150ab74c,51,2022-02-12_12h16.46.601,lexical_decision_task_DD_L2,2021.2.3,Linux armv8l,120.3224642,,,,,,,,,,1.0441,1,,,,,,,,,,,,,,,0,-0.498237388,-0.318443372,1,0,0,1.0441,button_left_main,-0.498237388,-0.318443372,1,0,0,,0,32,32,147,1,ZOLES,C,old,z,./images/ZOLES.png,,,,,,,,,,,,,,,,,,,,,,,,,,,,,,,,,
,,,,,,,,,,,,,,,,,5d9e9204340c7700150ab74c,51,2022-02-12_12h16.46.601,lexical_decision_task_DD_L2,2021.2.3,Linux armv8l,120.3224642,,,,,,,,,,0.9544,1,,,,,,,,,,,,,,,0,0.512186587,-0.281873092,1,0,0,0.9544,button_right_main,0.512186587,-0.281873092,1,0,0,,0,33,33,58,1,BABOON,LB,old,m,./images/BABOONLB.png,,,,,,,,,,,,,,,,,,,,,,,,,,,,,,,,,
,,,,,,,,,,,,,,,,,5d9e9204340c7700150ab74c,51,2022-02-12_12h16.46.601,lexical_decision_task_DD_L2,2021.2.3,Linux armv8l,120.3224642,,,,,,,,,,1.0386,1,,,,,,,,,,,,,,,0,0.508935873,-0.279678937,1,0,0,1.0386,button_right_main,0.508935873,-0.279678937,1,0,0,,0,34,34,55,1,MUFFIN,LB,old,m,./images/MUFFINLB.png,,,,,,,,,,,,,,,,,,,,,,,,,,,,,,,,,
,,,,,,,,,,,,,,,,,5d9e9204340c7700150ab74c,51,2022-02-12_12h16.46.601,lexical_decision_task_DD_L2,2021.2.3,Linux armv8l,120.3224642,,,,,,,,,,0.819,1,,,,,,,,,,,,,,,0,0.498100207,-0.291381317,1,0,0,0.819,button_right_main,0.498100207,-0.291381317,1,0,0,,0,35,35,53,1,CARPET,C,old,m,./images/CARPET.png,,,,,,,,,,,,,,,,,,,,,,,,,,,,,,,,,
,,,,,,,,,,,,,,,,,5d9e9204340c7700150ab74c,51,2022-02-12_12h16.46.601,lexical_decision_task_DD_L2,2021.2.3,Linux armv8l,120.3224642,,,,,,,,,,1.1254,1,,,,,,,,,,,,,,,0,0.495391253,-0.278703634,1,0,0,1.1254,button_right_main,0.495391253,-0.278703634,1,0,0,,0,36,36,61,1,CANDLE,LB,old,m,./images/CANDLELB.png,,,,,,,,,,,,,,,,,,,,,,,,,,,,,,,,,
,,,,,,,,,,,,,,,,,5d9e9204340c7700150ab74c,51,2022-02-12_12h16.46.601,lexical_decision_task_DD_L2,2021.2.3,Linux armv8l,120.3224642,,,,,,,,,,0.8652,1,,,,,,,,,,,,,,,0,0.493224209,-0.283823476,1,0,0,0.8652,button_right_main,0.493224209,-0.283823476,1,0,0,,0,37,37,46,1,PEARL,LB,old,m,./images/PEARLLB.png,,,,,,,,,,,,,,,,,,,,,,,,,,,,,,,,,
,,,,,,,,,,,,,,,,,5d9e9204340c7700150ab74c,51,2022-02-12_12h16.46.601,lexical_decision_task_DD_L2,2021.2.3,Linux armv8l,120.3224642,,,,,,,,,,0.8946,1,,,,,,,,,,,,,,,0,0.497558446,-0.284311091,1,0,0,0.8946,button_right_main,0.497558446,-0.284311091,1,0,0,,0,38,38,4,1,MUSCLE,LB,old,m,./images/MUSCLELB.png,,,,,,,,,,,,,,,,,,,,,,,,,,,,,,,,,
,,,,,,,,,,,,,,,,,5d9e9204340c7700150ab74c,51,2022-02-12_12h16.46.601,lexical_decision_task_DD_L2,2021.2.3,Linux armv8l,120.3224642,,,,,,,,,,1.1713,1,,,,,,,,,,,,,,,0,-0.489027079,-0.333559055,1,0,0,1.1713,button_left_main,-0.489027079,-0.333559055,1,0,0,,0,39,39,158,1,EGECT,LB,old,z,./images/EGECTLB.png,,,,,,,,,,,,,,,,,,,,,,,,,,,,,,,,,
,,,,,,,,,,,,,,,,,5d9e9204340c7700150ab74c,51,2022-02-12_12h16.46.601,lexical_decision_task_DD_L2,2021.2.3,Linux armv8l,120.3224642,,,,,,,,,,1.8689,0,,,,,,,,,,,,,,,0,0.510019395,-0.274071406,1,0,0,1.8689,button_right_main,0.510019395,-0.274071406,1,0,0,,0,40,40,162,1,LEICH,C,old,z,./images/LEICH.png,,,,,,,,,,,,,,,,,,,,,,,,,,,,,,,,,
,,,,,,,,,,,,,,,,,5d9e9204340c7700150ab74c,51,2022-02-12_12h16.46.601,lexical_decision_task_DD_L2,2021.2.3,Linux armv8l,120.3224642,,,,,,,,,,0.9554,1,,,,,,,,,,,,,,,0,0.489973494,-0.296257389,1,0,0,0.9554,button_right_main,0.061965498,-0.420840217,1,0,0,,0,41,41,66,1,SWEAT,HB,old,m,./images/SWEATHB.png,break_done_button,,,,,,,,,,,,,,,,,,,,,,,,,,,,,,,,
,,,,,,,,,,,,,,,,,5d9e9204340c7700150ab74c,51,2022-02-12_12h16.46.601,lexical_decision_task_DD_L2,2021.2.3,Linux armv8l,120.3224642,,,,,,,,,,1.5605,1,,,,,,,,,,,,,,,0,0.521938583,-0.309910302,1,0,0,1.5605,button_right_main,0.521938583,-0.309910302,1,0,0,,0,42,42,71,1,PIMPLE,C,old,m,./images/PIMPLE.png,,,,,,,,,,,,,,,,,,,,,,,,,,,,,,,,,
,,,,,,,,,,,,,,,,,5d9e9204340c7700150ab74c,51,2022-02-12_12h16.46.601,lexical_decision_task_DD_L2,2021.2.3,Linux armv8l,120.3224642,,,,,,,,,,1.843,1,,,,,,,,,,,,,,,0,0.469927445,-0.269926793,1,0,0,1.843,button_right_main,0.469927445,-0.269926793,1,0,0,,0,43,43,20,1,CRADLE,C,old,m,./images/CRADLE.png,,,,,,,,,,,,,,,,,,,,,,,,,,,,,,,,,
,,,,,,,,,,,,,,,,,5d9e9204340c7700150ab74c,51,2022-02-12_12h16.46.601,lexical_decision_task_DD_L2,2021.2.3,Linux armv8l,120.3224642,,,,,,,,,,1.293,0,,,,,,,,,,,,,,,0,-0.430514586,-0.270658178,1,0,0,1.293,button_left_main,-0.430514586,-0.270658178,1,0,0,,0,44,44,33,1,MAGGOT,HB,old,m,./images/MAGGOTHB.png,,,,,,,,,,,,,,,,,,,,,,,,,,,,,,,,,
,,,,,,,,,,,,,,,,,5d9e9204340c7700150ab74c,51,2022-02-12_12h16.46.601,lexical_decision_task_DD_L2,2021.2.3,Linux armv8l,120.3224642,,,,,,,,,,3.7999,0,,,,,,,,,,,,,,,0,-0.507989458,-0.271389563,1,0,0,3.7999,button_left_main,-0.507989458,-0.271389563,1,0,0,,0,45,45,78,1,LITTER,HB,old,m,./images/LITTERHB.png,,,,,,,,,,,,,,,,,,,,,,,,,,,,,,,,,
,,,,,,,,,,,,,,,,,5d9e9204340c7700150ab74c,51,2022-02-12_12h16.46.601,lexical_decision_task_DD_L2,2021.2.3,Linux armv8l,120.3224642,,,,,,,,,,2.1448,1,,,,,,,,,,,,,,,0,-0.525868277,-0.297476389,1,0,0,2.1448,button_left_main,-0.525868277,-0.297476389,1,0,0,,0,46,46,123,1,SEDGE,C,old,z,./images/SEDGE.png,,,,,,,,,,,,,,,,,,,,,,,,,,,,,,,,,
,,,,,,,,,,,,,,,,,5d9e9204340c7700150ab74c,51,2022-02-12_12h16.46.601,lexical_decision_task_DD_L2,2021.2.3,Linux armv8l,120.3224642,,,,,,,,,,0.9688,1,,,,,,,,,,,,,,,0,0.513811871,-0.294550775,1,0,0,0.9688,button_right_main,0.513811871,-0.294550775,1,0,0,,0,47,47,15,1,GREASE,HB,old,m,./images/GREASEHB.png,,,,,,,,,,,,,,,,,,,,,,,,,,,,,,,,,
,,,,,,,,,,,,,,,,,5d9e9204340c7700150ab74c,51,2022-02-12_12h16.46.601,lexical_decision_task_DD_L2,2021.2.3,Linux armv8l,120.3224642,,,,,,,,,,0.98,1,,,,,,,,,,,,,,,0,-0.529118992,-0.297964003,1,0,0,0.98,button_left_main,-0.529118992,-0.297964003,1,0,0,,0,48,48,122,1,BLOOT,LB,old,z,./images/BLOOTLB.png,,,,,,,,,,,,,,,,,,,,,,,,,,,,,,,,,
,,,,,,,,,,,,,,,,,5d9e9204340c7700150ab74c,51,2022-02-12_12h16.46.601,lexical_decision_task_DD_L2,2021.2.3,Linux armv8l,120.3224642,,,,,,,,,,0.8784,1,,,,,,,,,,,,,,,0,0.542526393,-0.26870772,1,0,0,0.8784,button_right_main,0.542526393,-0.26870772,1,0,0,,0,49,49,35,1,PEACH,C,old,m,./images/PEACH.png,,,,,,,,,,,,,,,,,,,,,,,,,,,,,,,,,
,,,,,,,,,,,,,,,,,5d9e9204340c7700150ab74c,51,2022-02-12_12h16.46.601,lexical_decision_task_DD_L2,2021.2.3,Linux armv8l,120.3224642,,,,,,,,,,2.2925,1,,,,,,,,,,,,,,,0,-0.502029863,-0.278703634,1,0,0,2.2925,button_left_main,-0.502029863,-0.278703634,1,0,0,,0,50,50,109,1,BURGE,HB,old,z,./images/BURGEHB.png,,,,,,,,,,,,,,,,,,,,,,,,,,,,,,,,,
,,,,,,,,,,,,,,,,,5d9e9204340c7700150ab74c,51,2022-02-12_12h16.46.601,lexical_decision_task_DD_L2,2021.2.3,Linux armv8l,120.3224642,,,,,,,,,,3.0093,1,,,,,,,,,,,,,,,0,-0.490110675,-0.294306931,1,0,0,3.0093,button_left_main,-0.490110675,-0.294306931,1,0,0,,0,51,51,166,1,SHORY,HB,old,z,./images/SHORYHB.png,,,,,,,,,,,,,,,,,,,,,,,,,,,,,,,,,
,,,,,,,,,,,,,,,,,5d9e9204340c7700150ab74c,51,2022-02-12_12h16.46.601,lexical_decision_task_DD_L2,2021.2.3,Linux armv8l,120.3224642,,,,,,,,,,2.4014,1,,,,,,,,,,,,,,,0,-0.516658005,-0.30479046,1,0,0,2.4014,button_left_main,-0.516658005,-0.30479046,1,0,0,,0,52,52,154,1,THINT,HB,old,z,./images/THINTHB.png,,,,,,,,,,,,,,,,,,,,,,,,,,,,,,,,,
,,,,,,,,,,,,,,,,,5d9e9204340c7700150ab74c,51,2022-02-12_12h16.46.601,lexical_decision_task_DD_L2,2021.2.3,Linux armv8l,120.3224642,,,,,,,,,,1.4793,1,,,,,,,,,,,,,,,0,-0.525868277,-0.318931061,1,0,0,1.4793,button_left_main,-0.525868277,-0.318931061,1,0,0,,0,53,53,125,1,MOOKY,LB,old,z,./images/MOOKYLB.png,,,,,,,,,,,,,,,,,,,,,,,,,,,,,,,,,
,,,,,,,,,,,,,,,,,5d9e9204340c7700150ab74c,51,2022-02-12_12h16.46.601,lexical_decision_task_DD_L2,2021.2.3,Linux armv8l,120.3224642,,,,,,,,,,1.2254,1,,,,,,,,,,,,,,,0,-0.538329263,-0.320637675,1,0,0,1.2254,button_left_main,-0.538329263,-0.320637675,1,0,0,,0,54,54,167,1,ZONET,LB,old,z,./images/ZONETLB.png,,,,,,,,,,,,,,,,,,,,,,,,,,,,,,,,,
,,,,,,,,,,,,,,,,,5d9e9204340c7700150ab74c,51,2022-02-12_12h16.46.601,lexical_decision_task_DD_L2,2021.2.3,Linux armv8l,120.3224642,,,,,,,,,,0.9773,1,,,,,,,,,,,,,,,0,-0.544830656,-0.328439213,1,0,0,0.9773,button_left_main,-0.544830656,-0.328439213,1,0,0,,0,55,55,152,1,FRAIN,LB,old,z,./images/FRAINLB.png,,,,,,,,,,,,,,,,,,,,,,,,,,,,,,,,,
,,,,,,,,,,,,,,,,,5d9e9204340c7700150ab74c,51,2022-02-12_12h16.46.601,lexical_decision_task_DD_L2,2021.2.3,Linux armv8l,120.3224642,,,,,,,,,,5.7149,1,,,,,,,,,,,,,,,0,-0.504196982,-0.300889617,1,0,0,5.7149,button_left_main,-0.504196982,-0.300889617,1,0,0,,0,56,56,151,1,TINKY,HB,old,z,./images/TINKYHB.png,,,,,,,,,,,,,,,,,,,,,,,,,,,,,,,,,
,,,,,,,,,,,,,,,,,5d9e9204340c7700150ab74c,51,2022-02-12_12h16.46.601,lexical_decision_task_DD_L2,2021.2.3,Linux armv8l,120.3224642,,,,,,,,,,1.1617,1,,,,,,,,,,,,,,,0,0.534941442,-0.277484635,1,0,0,1.1617,button_right_main,0.534941442,-0.277484635,1,0,0,,0,57,57,62,1,PURSE,C,old,m,./images/PURSE.png,,,,,,,,,,,,,,,,,,,,,,,,,,,,,,,,,
,,,,,,,,,,,,,,,,,5d9e9204340c7700150ab74c,51,2022-02-12_12h16.46.601,lexical_decision_task_DD_L2,2021.2.3,Linux armv8l,120.3224642,,,,,,,,,,2.4868,1,,,,,,,,,,,,,,,0,0.522480344,-0.272608563,1,0,0,2.4868,button_right_main,0.522480344,-0.272608563,1,0,0,,0,58,58,72,1,NOOSE,HB,old,m,./images/NOOSEHB.png,,,,,,,,,,,,,,,,,,,,,,,,,,,,,,,,,
,,,,,,,,,,,,,,,,,5d9e9204340c7700150ab74c,51,2022-02-12_12h16.46.601,lexical_decision_task_DD_L2,2021.2.3,Linux armv8l,120.3224642,,,,,,,,,,1.0198,1,,,,,,,,,,,,,,,0,0.526814581,-0.261881264,1,0,0,1.0198,button_right_main,0.526814581,-0.261881264,1,0,0,,0,59,59,40,1,SWING,LB,old,m,./images/SWINGLB.png,,,,,,,,,,,,,,,,,,,,,,,,,,,,,,,,,
,,,,,,,,,,,,,,,,,5d9e9204340c7700150ab74c,51,2022-02-12_12h16.46.601,lexical_decision_task_DD_L2,2021.2.3,Linux armv8l,120.3224642,,,,,,,,,,2.6127,1,,,,,,,,,,,,,,,0,0.512728349,-0.254323422,1,0,0,2.6127,button_right_main,0.512728349,-0.254323422,1,0,0,,0,60,60,9,1,RHINO,HB,old,m,./images/RHINOHB.png,,,,,,,,,,,,,,,,,,,,,,,,,,,,,,,,,
,,,,,,,,,,,,,,,,,5d9e9204340c7700150ab74c,51,2022-02-12_12h16.46.601,lexical_decision_task_DD_L2,2021.2.3,Linux armv8l,120.3224642,,,,,,,,,,0.9831,1,,,,,,,,,,,,,,,0,-0.497153828,-0.287724319,1,0,0,0.9831,button_left_main,-0.497153828,-0.287724319,1,0,0,,0,61,61,102,1,DULLE,C,old,z,./images/DULLE.png,,,,,,,,,,,,,,,,,,,,,,,,,,,,,,,,,
,,,,,,,,,,,,,,,,,5d9e9204340c7700150ab74c,51,2022-02-12_12h16.46.601,lexical_decision_task_DD_L2,2021.2.3,Linux armv8l,120.3224642,,,,,,,,,,1.4191,1,,,,,,,,,,,,,,,0,0.551736628,-0.258468035,1,0,0,1.4191,button_right_main,0.551736628,-0.258468035,1,0,0,,0,62,62,21,1,KIDNEY,HB,old,m,./images/KIDNEYHB.png,,,,,,,,,,,,,,,,,,,,,,,,,,,,,,,,,
,,,,,,,,,,,,,,,,,5d9e9204340c7700150ab74c,51,2022-02-12_12h16.46.601,lexical_decision_task_DD_L2,2021.2.3,Linux armv8l,120.3224642,,,,,,,,,,1.1845,1,,,,,,,,,,,,,,,0,-0.517741564,-0.296745078,1,0,0,1.1845,button_left_main,-0.517741564,-0.296745078,1,0,0,,0,63,63,119,1,PAFER,LB,old,z,./images/PAFERLB.png,,,,,,,,,,,,,,,,,,,,,,,,,,,,,,,,,
,,,,,,,,,,,,,,,,,5d9e9204340c7700150ab74c,51,2022-02-12_12h16.46.601,lexical_decision_task_DD_L2,2021.2.3,Linux armv8l,120.3224642,,,,,,,,,,0.9784,1,,,,,,,,,,,,,,,0,0.544151677,-0.272120948,1,0,0,0.9784,button_right_main,0.544151677,-0.272120948,1,0,0,,0,64,64,79,1,CRUST,LB,old,m,./images/CRUSTLB.png,,,,,,,,,,,,,,,,,,,,,,,,,,,,,,,,,
,,,,,,,,,,,,,,,,,5d9e9204340c7700150ab74c,51,2022-02-12_12h16.46.601,lexical_decision_task_DD_L2,2021.2.3,Linux armv8l,120.3224642,,,,,,,,,,2.1983,1,,,,,,,,,,,,,,,0,-0.519366885,-0.319418602,1,0,0,2.1983,button_left_main,-0.519366885,-0.319418602,1,0,0,,0,65,65,133,1,POWDY,HB,old,z,./images/POWDYHB.png,,,,,,,,,,,,,,,,,,,,,,,,,,,,,,,,,
,,,,,,,,,,,,,,,,,5d9e9204340c7700150ab74c,51,2022-02-12_12h16.46.601,lexical_decision_task_DD_L2,2021.2.3,Linux armv8l,120.3224642,,,,,,,,,,2.2816,1,,,,,,,,,,,,,,,0,-0.513407291,-0.31332353,1,0,0,2.2816,button_left_main,-0.513407291,-0.31332353,1,0,0,,0,66,66,91,1,SHENS,HB,old,z,./images/SHENSHB.png,,,,,,,,,,,,,,,,,,,,,,,,,,,,,,,,,
,,,,,,,,,,,,,,,,,5d9e9204340c7700150ab74c,51,2022-02-12_12h16.46.601,lexical_decision_task_DD_L2,2021.2.3,Linux armv8l,120.3224642,,,,,,,,,,1.0509,1,,,,,,,,,,,,,,,0,0.544151677,-0.272120948,1,0,0,1.0509,button_right_main,0.544151677,-0.272120948,1,0,0,,0,67,67,82,1,SUNSET,LB,old,m,./images/SUNSETLB.png,,,,,,,,,,,,,,,,,,,,,,,,,,,,,,,,,
,,,,,,,,,,,,,,,,,5d9e9204340c7700150ab74c,51,2022-02-12_12h16.46.601,lexical_decision_task_DD_L2,2021.2.3,Linux armv8l,120.3224642,,,,,,,,,,3.6305,1,,,,,,,,,,,,,,,0,-0.498237388,-0.329658286,1,0,0,3.6305,button_left_main,-0.498237388,-0.329658286,1,0,0,,0,68,68,90,1,NEAST,C,old,z,./images/NEAST.png,,,,,,,,,,,,,,,,,,,,,,,,,,,,,,,,,
,,,,,,,,,,,,,,,,,5d9e9204340c7700150ab74c,51,2022-02-12_12h16.46.601,lexical_decision_task_DD_L2,2021.2.3,Linux armv8l,120.3224642,,,,,,,,,,2.0698,1,,,,,,,,,,,,,,,0,-0.502029863,-0.337947512,1,0,0,2.0698,button_left_main,-0.502029863,-0.337947512,1,0,0,,0,69,69,100,1,DRIBS,HB,old,z,./images/DRIBSHB.png,,,,,,,,,,,,,,,,,,,,,,,,,,,,,,,,,
,,,,,,,,,,,,,,,,,5d9e9204340c7700150ab74c,51,2022-02-12_12h16.46.601,lexical_decision_task_DD_L2,2021.2.3,Linux armv8l,120.3224642,,,,,,,,,,1.2044,1,,,,,,,,,,,,,,,0,0.570157246,-0.282604477,1,0,0,1.2044,button_right_main,0.570157246,-0.282604477,1,0,0,,0,70,70,8,1,TULIP,C,old,m,./images/TULIP.png,,,,,,,,,,,,,,,,,,,,,,,,,,,,,,,,,
,,,,,,,,,,,,,,,,,5d9e9204340c7700150ab74c,51,2022-02-12_12h16.46.601,lexical_decision_task_DD_L2,2021.2.3,Linux armv8l,120.3224642,,,,,,,,,,0.9797,1,,,,,,,,,,,,,,,0,0.555529104,-0.27699702,1,0,0,0.9797,button_right_main,0.555529104,-0.27699702,1,0,0,,0,71,71,75,1,GRAIN,HB,old,m,./images/GRAINHB.png,,,,,,,,,,,,,,,,,,,,,,,,,,,,,,,,,
,,,,,,,,,,,,,,,,,5d9e9204340c7700150ab74c,51,2022-02-12_12h16.46.601,lexical_decision_task_DD_L2,2021.2.3,Linux armv8l,120.3224642,,,,,,,,,,1.6582,1,,,,,,,,,,,,,,,0,0.544693438,-0.265538336,1,0,0,1.6582,button_right_main,0.544693438,-0.265538336,1,0,0,,0,72,72,69,1,COOKER,HB,old,m,./images/COOKERHB.png,,,,,,,,,,,,,,,,,,,,,,,,,,,,,,,,,
,,,,,,,,,,,,,,,,,5d9e9204340c7700150ab74c,51,2022-02-12_12h16.46.601,lexical_decision_task_DD_L2,2021.2.3,Linux armv8l,120.3224642,,,,,,,,,,1.402,1,,,,,,,,,,,,,,,0,-0.465730463,-0.315761529,1,0,0,1.402,button_left_main,-0.465730463,-0.315761529,1,0,0,,0,73,73,137,1,JOOST,LB,old,z,./images/JOOSTLB.png,,,,,,,,,,,,,,,,,,,,,,,,,,,,,,,,,
,,,,,,,,,,,,,,,,,5d9e9204340c7700150ab74c,51,2022-02-12_12h16.46.601,lexical_decision_task_DD_L2,2021.2.3,Linux armv8l,120.3224642,,,,,,,,,,2.5977,1,,,,,,,,,,,,,,,0,-0.480900366,-0.315761529,1,0,0,2.5977,button_left_main,-0.480900366,-0.315761529,1,0,0,,0,74,74,112,1,MYING,HB,old,z,./images/MYINGHB.png,,,,,,,,,,,,,,,,,,,,,,,,,,,,,,,,,
,,,,,,,,,,,,,,,,,5d9e9204340c7700150ab74c,51,2022-02-12_12h16.46.601,lexical_decision_task_DD_L2,2021.2.3,Linux armv8l,120.3224642,,,,,,,,,,1.1422,1,,,,,,,,,,,,,,,0,0.582076434,-0.270170564,1,0,0,1.1422,button_right_main,0.582076434,-0.270170564,1,0,0,,0,75,75,44,1,LIZARD,C,old,m,./images/LIZARD.png,,,,,,,,,,,,,,,,,,,,,,,,,,,,,,,,,
,,,,,,,,,,,,,,,,,5d9e9204340c7700150ab74c,51,2022-02-12_12h16.46.601,lexical_decision_task_DD_L2,2021.2.3,Linux armv8l,120.3224642,,,,,,,,,,2.0436,1,,,,,,,,,,,,,,,0,-0.479816807,-0.331852441,1,0,0,2.0436,button_left_main,-0.479816807,-0.331852441,1,0,0,,0,76,76,159,1,CUDDY,C,old,z,./images/CUDDY.png,,,,,,,,,,,,,,,,,,,,,,,,,,,,,,,,,
,,,,,,,,,,,,,,,,,5d9e9204340c7700150ab74c,51,2022-02-12_12h16.46.601,lexical_decision_task_DD_L2,2021.2.3,Linux armv8l,120.3224642,,,,,,,,,,2.2984,1,,,,,,,,,,,,,,,0,-0.511240172,-0.309178917,1,0,0,2.2984,button_left_main,-0.511240172,-0.309178917,1,0,0,,0,77,77,139,1,BLEAR,HB,old,z,./images/BLEARHB.png,,,,,,,,,,,,,,,,,,,,,,,,,,,,,,,,,
,,,,,,,,,,,,,,,,,5d9e9204340c7700150ab74c,51,2022-02-12_12h16.46.601,lexical_decision_task_DD_L2,2021.2.3,Linux armv8l,120.3224642,,,,,,,,,,1.224,1,,,,,,,,,,,,,,,0,-0.506905898,-0.318931061,1,0,0,1.224,button_left_main,-0.506905898,-0.318931061,1,0,0,,0,78,78,96,1,KEAMS,C,old,z,./images/KEAMS.png,,,,,,,,,,,,,,,,,,,,,,,,,,,,,,,,,
,,,,,,,,,,,,,,,,,5d9e9204340c7700150ab74c,51,2022-02-12_12h16.46.601,lexical_decision_task_DD_L2,2021.2.3,Linux armv8l,120.3224642,,,,,,,,,,1.0558,1,,,,,,,,,,,,,,,0,0.57936748,-0.264563107,1,0,0,1.0558,button_right_main,0.57936748,-0.264563107,1,0,0,,0,79,79,30,1,STORM,HB,old,m,./images/STORMHB.png,,,,,,,,,,,,,,,,,,,,,,,,,,,,,,,,,
,,,,,,,,,,,,,,,,,5d9e9204340c7700150ab74c,51,2022-02-12_12h16.46.601,lexical_decision_task_DD_L2,2021.2.3,Linux armv8l,120.3224642,,,,,,,,,,1.4842,1,,,,,,,,,,,,,,,0,-0.474398974,-0.267001106,1,0,0,1.4842,button_left_main,-0.474398974,-0.267001106,1,0,0,,0,80,80,129,1,PRANS,C,old,z,./images/PRANS.png,,,,,,,,,,,,,,,,,,,,,,,,,,,,,,,,,
,,,,,,,,,,,,,,,,,5d9e9204340c7700150ab74c,51,2022-02-12_12h16.46.601,lexical_decision_task_DD_L2,2021.2.3,Linux armv8l,120.3224642,,,,,,,,,,1.1253,1,,,,,,,,,,,,,,,0,0.578283958,-0.285773861,1,0,0,1.1253,button_right_main,0.578283958,-0.285773861,1,0,0,,0,81,81,28,1,FALCON,LB,old,m,./images/FALCONLB.png,,,,,,,,,,,,,,,,,,,,,,,,,,,,,,,,,
,,,,,,,,,,,,,,,,,5d9e9204340c7700150ab74c,51,2022-02-12_12h16.46.601,lexical_decision_task_DD_L2,2021.2.3,Linux armv8l,120.3224642,,,,,,,,,,0.9343,1,,,,,,,,,,,,,,,0,0.565823009,-0.285773861,1,0,0,0.9343,button_right_main,0.565823009,-0.285773861,1,0,0,,0,82,82,5,1,PASTA,C,old,m,./images/PASTA.png,,,,,,,,,,,,,,,,,,,,,,,,,,,,,,,,,
,,,,,,,,,,,,,,,,,5d9e9204340c7700150ab74c,51,2022-02-12_12h16.46.601,lexical_decision_task_DD_L2,2021.2.3,Linux armv8l,120.3224642,,,,,,,,,,1.3713,1,,,,,,,,,,,,,,,0,0.565823009,-0.264563107,1,0,0,1.3713,button_right_main,0.018622908,-0.377931095,1,0,0,,0,83,83,50,1,MALLET,C,old,m,./images/MALLET.png,break_done_button,,,,,,,,,,,,,,,,,,,,,,,,,,,,,,,,
,,,,,,,,,,,,,,,,,5d9e9204340c7700150ab74c,51,2022-02-12_12h16.46.601,lexical_decision_task_DD_L2,2021.2.3,Linux armv8l,120.3224642,,,,,,,,,,1.7042,1,,,,,,,,,,,,,,,0,0.488889824,-0.315761529,1,0,0,1.7042,button_right_main,0.488889824,-0.315761529,1,0,0,,0,84,84,23,1,WALRUS,C,old,m,./images/WALRUS.png,,,,,,,,,,,,,,,,,,,,,,,,,,,,,,,,,
,,,,,,,,,,,,,,,,,5d9e9204340c7700150ab74c,51,2022-02-12_12h16.46.601,lexical_decision_task_DD_L2,2021.2.3,Linux armv8l,120.3224642,,,,,,,,,,1.7211,1,,,,,,,,,,,,,,,0,0.462342494,-0.309910302,1,0,0,1.7211,button_right_main,0.462342494,-0.309910302,1,0,0,,0,85,85,41,1,STRING,C,old,m,./images/STRING.png,,,,,,,,,,,,,,,,,,,,,,,,,,,,,,,,,
,,,,,,,,,,,,,,,,,5d9e9204340c7700150ab74c,51,2022-02-12_12h16.46.601,lexical_decision_task_DD_L2,2021.2.3,Linux armv8l,120.3224642,,,,,,,,,,2.4385,1,,,,,,,,,,,,,,,0,-0.441892013,-0.232625054,1,0,0,2.4385,button_left_main,-0.441892013,-0.232625054,1,0,0,,0,86,86,148,1,JOMS,HB,old,z,./images/JOMSHB.png,,,,,,,,,,,,,,,,,,,,,,,,,,,,,,,,,
,,,,,,,,,,,,,,,,,5d9e9204340c7700150ab74c,51,2022-02-12_12h16.46.601,lexical_decision_task_DD_L2,2021.2.3,Linux armv8l,120.3224642,,,,,,,,,,2.1727,1,,,,,,,,,,,,,,,0,0.472094638,-0.31454253,1,0,0,2.1727,button_right_main,0.472094638,-0.31454253,1,0,0,,0,87,87,38,1,LADDER,C,old,m,./images/LADDER.png,,,,,,,,,,,,,,,,,,,,,,,,,,,,,,,,,
,,,,,,,,,,,,,,,,,5d9e9204340c7700150ab74c,51,2022-02-12_12h16.46.601,lexical_decision_task_DD_L2,2021.2.3,Linux armv8l,120.3224642,,,,,,,,,,1.0889,1,,,,,,,,,,,,,,,0,0.531148966,-0.322344289,1,0,0,1.0889,button_right_main,0.531148966,-0.322344289,1,0,0,,0,88,88,37,1,BIRTH,LB,old,m,./images/BIRTHLB.png,,,,,,,,,,,,,,,,,,,,,,,,,,,,,,,,,
,,,,,,,,,,,,,,,,,5d9e9204340c7700150ab74c,51,2022-02-12_12h16.46.601,lexical_decision_task_DD_L2,2021.2.3,Linux armv8l,120.3224642,,,,,,,,,,1.8401,1,,,,,,,,,,,,,,,0,-0.4700647,-0.238476281,1,0,0,1.8401,button_left_main,-0.4700647,-0.238476281,1,0,0,,0,89,89,136,1,WERVE,HB,old,z,./images/WERVEHB.png,,,,,,,,,,,,,,,,,,,,,,,,,,,,,,,,,
,,,,,,,,,,,,,,,,,5d9e9204340c7700150ab74c,51,2022-02-12_12h16.46.601,lexical_decision_task_DD_L2,2021.2.3,Linux armv8l,120.3224642,,,,,,,,,,2.6856,1,,,,,,,,,,,,,,,0,-0.447851644,-0.258468035,1,0,0,2.6856,button_left_main,-0.447851644,-0.258468035,1,0,0,,0,90,90,157,1,INLER,HB,old,z,./images/INLERHB.png,,,,,,,,,,,,,,,,,,,,,,,,,,,,,,,,,
,,,,,,,,,,,,,,,,,5d9e9204340c7700150ab74c,51,2022-02-12_12h16.46.601,lexical_decision_task_DD_L2,2021.2.3,Linux armv8l,120.3224642,,,,,,,,,,0.9387,1,,,,,,,,,,,,,,,0,0.501892682,-0.312104605,1,0,0,0.9387,button_right_main,0.501892682,-0.312104605,1,0,0,,0,91,91,13,1,MOTOR,LB,old,m,./images/MOTORLB.png,,,,,,,,,,,,,,,,,,,,,,,,,,,,,,,,,
,,,,,,,,,,,,,,,,,5d9e9204340c7700150ab74c,51,2022-02-12_12h16.46.601,lexical_decision_task_DD_L2,2021.2.3,Linux armv8l,120.3224642,,,,,,,,,,0.8559,1,,,,,,,,,,,,,,,0,0.506226919,-0.31332353,1,0,0,0.8559,button_right_main,0.506226919,-0.31332353,1,0,0,,0,92,92,65,1,FARMER,C,old,m,./images/FARMER.png,,,,,,,,,,,,,,,,,,,,,,,,,,,,,,,,,
,,,,,,,,,,,,,,,,,5d9e9204340c7700150ab74c,51,2022-02-12_12h16.46.601,lexical_decision_task_DD_L2,2021.2.3,Linux armv8l,120.3224642,,,,,,,,,,2.7428,1,,,,,,,,,,,,,,,0,0.510019395,-0.321612756,1,0,0,2.7428,button_right_main,0.510019395,-0.321612756,1,0,0,,0,93,93,59,1,BURIAL,C,old,m,./images/BURIAL.png,,,,,,,,,,,,,,,,,,,,,,,,,,,,,,,,,
,,,,,,,,,,,,,,,,,5d9e9204340c7700150ab74c,51,2022-02-12_12h16.46.601,lexical_decision_task_DD_L2,2021.2.3,Linux armv8l,120.3224642,,,,,,,,,,1.1479,1,,,,,,,,,,,,,,,0,0.539275679,-0.310885531,1,0,0,1.1479,button_right_main,0.539275679,-0.310885531,1,0,0,,0,94,94,10,1,BELLY,LB,old,m,./images/BELLYLB.png,,,,,,,,,,,,,,,,,,,,,,,,,,,,,,,,,
,,,,,,,,,,,,,,,,,5d9e9204340c7700150ab74c,51,2022-02-12_12h16.46.601,lexical_decision_task_DD_L2,2021.2.3,Linux armv8l,120.3224642,,,,,,,,,,1.4218,1,,,,,,,,,,,,,,,0,-0.387171995,-0.274802791,1,0,0,1.4218,button_left_main,-0.387171995,-0.274802791,1,0,0,,0,95,95,99,1,BACKY,C,old,z,./images/BACKY.png,,,,,,,,,,,,,,,,,,,,,,,,,,,,,,,,,
,,,,,,,,,,,,,,,,,5d9e9204340c7700150ab74c,51,2022-02-12_12h16.46.601,lexical_decision_task_DD_L2,2021.2.3,Linux armv8l,120.3224642,,,,,,,,,,2.2939,1,,,,,,,,,,,,,,,0,-0.422929634,-0.251885423,1,0,0,2.2939,button_left_main,-0.422929634,-0.251885423,1,0,0,,0,96,96,118,1,BAVEL,HB,old,z,./images/BAVELHB.png,,,,,,,,,,,,,,,,,,,,,,,,,,,,,,,,,
,,,,,,,,,,,,,,,,,5d9e9204340c7700150ab74c,51,2022-02-12_12h16.46.601,lexical_decision_task_DD_L2,2021.2.3,Linux armv8l,120.3224642,,,,,,,,,,1.1194,1,,,,,,,,,,,,,,,0,0.537650247,-0.311129301,1,0,0,1.1194,button_right_main,0.537650247,-0.311129301,1,0,0,,0,97,97,32,1,BARREL,C,old,m,./images/BARREL.png,,,,,,,,,,,,,,,,,,,,,,,,,,,,,,,,,
,,,,,,,,,,,,,,,,,5d9e9204340c7700150ab74c,51,2022-02-12_12h16.46.601,lexical_decision_task_DD_L2,2021.2.3,Linux armv8l,120.3224642,,,,,,,,,,0.8087,1,,,,,,,,,,,,,,,0,0.535483203,-0.321612756,1,0,0,0.8087,button_right_main,0.535483203,-0.321612756,1,0,0,,0,98,98,68,1,TORCH,C,old,m,./images/TORCH.png,,,,,,,,,,,,,,,,,,,,,,,,,,,,,,,,,
,,,,,,,,,,,,,,,,,5d9e9204340c7700150ab74c,51,2022-02-12_12h16.46.601,lexical_decision_task_DD_L2,2021.2.3,Linux armv8l,120.3224642,,,,,,,,,,1.2312,1,,,,,,,,,,,,,,,0,-0.450018762,-0.250666498,1,0,0,1.2312,button_left_main,-0.450018762,-0.250666498,1,0,0,,0,99,99,115,1,MAWNS,HB,old,z,./images/MAWNSHB.png,,,,,,,,,,,,,,,,,,,,,,,,,,,,,,,,,
,,,,,,,,,,,,,,,,,5d9e9204340c7700150ab74c,51,2022-02-12_12h16.46.601,lexical_decision_task_DD_L2,2021.2.3,Linux armv8l,120.3224642,,,,,,,,,,1.4629,1,,,,,,,,,,,,,,,0,0.530607057,-0.313079686,1,0,0,1.4629,button_right_main,0.530607057,-0.313079686,1,0,0,,0,100,100,67,1,SAILOR,LB,old,m,./images/SAILORLB.png,,,,,,,,,,,,,,,,,,,,,,,,,,,,,,,,,
,,,,,,,,,,,,,,,,,5d9e9204340c7700150ab74c,51,2022-02-12_12h16.46.601,lexical_decision_task_DD_L2,2021.2.3,Linux armv8l,120.3224642,,,,,,,,,,2.1646,1,,,,,,,,,,,,,,,0,-0.430514586,-0.249447424,1,0,0,2.1646,button_left_main,-0.430514586,-0.249447424,1,0,0,,0,101,101,134,1,TROSS,LB,old,z,./images/TROSSLB.png,,,,,,,,,,,,,,,,,,,,,,,,,,,,,,,,,
,,,,,,,,,,,,,,,,,5d9e9204340c7700150ab74c,51,2022-02-12_12h16.46.601,lexical_decision_task_DD_L2,2021.2.3,Linux armv8l,120.3224642,,,,,,,,,,1.039,1,,,,,,,,,,,,,,,0,0.541442723,-0.306497074,1,0,0,1.039,button_right_main,0.541442723,-0.306497074,1,0,0,,0,102,102,39,1,SHELF,HB,old,m,./images/SHELFHB.png,,,,,,,,,,,,,,,,,,,,,,,,,,,,,,,,,
,,,,,,,,,,,,,,,,,5d9e9204340c7700150ab74c,51,2022-02-12_12h16.46.601,lexical_decision_task_DD_L2,2021.2.3,Linux armv8l,120.3224642,,,,,,,,,,1.1623,1,,,,,,,,,,,,,,,0,-0.433223539,-0.262125108,1,0,0,1.1623,button_left_main,-0.433223539,-0.262125108,1,0,0,,0,103,103,156,1,HIXES,C,old,z,./images/HIXES.png,,,,,,,,,,,,,,,,,,,,,,,,,,,,,,,,,
,,,,,,,,,,,,,,,,,5d9e9204340c7700150ab74c,51,2022-02-12_12h16.46.601,lexical_decision_task_DD_L2,2021.2.3,Linux armv8l,120.3224642,,,,,,,,,,1.3963,1,,,,,,,,,,,,,,,0,0.53981744,-0.304059075,1,0,0,1.3963,button_right_main,0.53981744,-0.304059075,1,0,0,,0,104,104,51,1,ONION,HB,old,m,./images/ONIONHB.png,,,,,,,,,,,,,,,,,,,,,,,,,,,,,,,,,
,,,,,,,,,,,,,,,,,5d9e9204340c7700150ab74c,51,2022-02-12_12h16.46.601,lexical_decision_task_DD_L2,2021.2.3,Linux armv8l,120.3224642,,,,,,,,,,0.9309,1,,,,,,,,,,,,,,,0,0.558779818,-0.292112776,1,0,0,0.9309,button_right_main,0.558779818,-0.292112776,1,0,0,,0,105,105,81,1,POODLE,HB,old,m,./images/POODLEHB.png,,,,,,,,,,,,,,,,,,,,,,,,,,,,,,,,,
,,,,,,,,,,,,,,,,,5d9e9204340c7700150ab74c,51,2022-02-12_12h16.46.601,lexical_decision_task_DD_L2,2021.2.3,Linux armv8l,120.3224642,,,,,,,,,,1.077,1,,,,,,,,,,,,,,,0,-0.411010446,-0.276509405,1,0,0,1.077,button_left_main,-0.411010446,-0.276509405,1,0,0,,0,106,106,113,1,LINEW,LB,old,z,./images/LINEWLB.png,,,,,,,,,,,,,,,,,,,,,,,,,,,,,,,,,
,,,,,,,,,,,,,,,,,5d9e9204340c7700150ab74c,51,2022-02-12_12h16.46.601,lexical_decision_task_DD_L2,2021.2.3,Linux armv8l,120.3224642,,,,,,,,,,1.0216,1,,,,,,,,,,,,,,,0,0.541984484,-0.310154072,1,0,0,1.0216,button_right_main,0.541984484,-0.310154072,1,0,0,,0,107,107,27,1,ATTIC,HB,old,m,./images/ATTICHB.png,,,,,,,,,,,,,,,,,,,,,,,,,,,,,,,,,
,,,,,,,,,,,,,,,,,5d9e9204340c7700150ab74c,51,2022-02-12_12h16.46.601,lexical_decision_task_DD_L2,2021.2.3,Linux armv8l,120.3224642,,,,,,,,,,0.8356,1,,,,,,,,,,,,,,,0,0.549569435,-0.310885531,1,0,0,0.8356,button_right_main,0.549569435,-0.310885531,1,0,0,,0,108,108,12,1,SHORE,HB,old,m,./images/SHOREHB.png,,,,,,,,,,,,,,,,,,,,,,,,,,,,,,,,,
,,,,,,,,,,,,,,,,,5d9e9204340c7700150ab74c,51,2022-02-12_12h16.46.601,lexical_decision_task_DD_L2,2021.2.3,Linux armv8l,120.3224642,,,,,,,,,,1.1454,1,,,,,,,,,,,,,,,0,0.537650247,-0.309910302,1,0,0,1.1454,button_right_main,0.537650247,-0.309910302,1,0,0,,0,109,109,63,1,MIRROR,HB,old,m,./images/MIRRORHB.png,,,,,,,,,,,,,,,,,,,,,,,,,,,,,,,,,
,,,,,,,,,,,,,,,,,5d9e9204340c7700150ab74c,51,2022-02-12_12h16.46.601,lexical_decision_task_DD_L2,2021.2.3,Linux armv8l,120.3224642,,,,,,,,,,1.3284,0,,,,,,,,,,,,,,,0,-0.422929634,-0.292356547,1,0,0,1.3284,button_left_main,-0.422929634,-0.292356547,1,0,0,,0,110,110,16,1,PENCE,LB,old,m,./images/PENCELB.png,,,,,,,,,,,,,,,,,,,,,,,,,,,,,,,,,
,,,,,,,,,,,,,,,,,5d9e9204340c7700150ab74c,51,2022-02-12_12h16.46.601,lexical_decision_task_DD_L2,2021.2.3,Linux armv8l,120.3224642,,,,,,,,,,1.2145,1,,,,,,,,,,,,,,,0,-0.445142727,-0.265782106,1,0,0,1.2145,button_left_main,-0.445142727,-0.265782106,1,0,0,,0,111,111,93,1,SMONE,C,old,z,./images/SMONE.png,,,,,,,,,,,,,,,,,,,,,,,,,,,,,,,,,
,,,,,,,,,,,,,,,,,5d9e9204340c7700150ab74c,51,2022-02-12_12h16.46.601,lexical_decision_task_DD_L2,2021.2.3,Linux armv8l,120.3224642,,,,,,,,,,0.8868,1,,,,,,,,,,,,,,,0,-0.435390658,-0.253104423,1,0,0,0.8868,button_left_main,-0.435390658,-0.253104423,1,0,0,,0,112,112,107,1,FASKS,LB,old,z,./images/FASKSLB.png,,,,,,,,,,,,,,,,,,,,,,,,,,,,,,,,,
,,,,,,,,,,,,,,,,,5d9e9204340c7700150ab74c,51,2022-02-12_12h16.46.601,lexical_decision_task_DD_L2,2021.2.3,Linux armv8l,120.3224642,,,,,,,,,,1.1835,1,,,,,,,,,,,,,,,0,0.515979063,-0.322587985,1,0,0,1.1835,button_right_main,0.515979063,-0.322587985,1,0,0,,0,113,113,49,1,DRUMS,LB,old,m,./images/DRUMSLB.png,,,,,,,,,,,,,,,,,,,,,,,,,,,,,,,,,
,,,,,,,,,,,,,,,,,5d9e9204340c7700150ab74c,51,2022-02-12_12h16.46.601,lexical_decision_task_DD_L2,2021.2.3,Linux armv8l,120.3224642,,,,,,,,,,0.994,1,,,,,,,,,,,,,,,0,-0.427805706,-0.258468035,1,0,0,0.994,button_left_main,-0.427805706,-0.258468035,1,0,0,,0,114,114,87,1,TRING,C,old,z,./images/TRING.png,,,,,,,,,,,,,,,,,,,,,,,,,,,,,,,,,
,,,,,,,,,,,,,,,,,5d9e9204340c7700150ab74c,51,2022-02-12_12h16.46.601,lexical_decision_task_DD_L2,2021.2.3,Linux armv8l,120.3224642,,,,,,,,,,1.6174,1,,,,,,,,,,,,,,,0,-0.431598182,-0.240182895,1,0,0,1.6174,button_left_main,-0.431598182,-0.240182895,1,0,0,,0,115,115,160,1,VEETS,HB,old,z,./images/VEETSHB.png,,,,,,,,,,,,,,,,,,,,,,,,,,,,,,,,,
,,,,,,,,,,,,,,,,,5d9e9204340c7700150ab74c,51,2022-02-12_12h16.46.601,lexical_decision_task_DD_L2,2021.2.3,Linux armv8l,120.3224642,,,,,,,,,,5.6055,0,,,,,,,,,,,,,,,0,0.546318869,-0.314298759,1,0,0,5.6055,button_right_main,0.546318869,-0.314298759,1,0,0,,0,116,116,126,1,GUELS,C,old,z,./images/GUELS.png,,,,,,,,,,,,,,,,,,,,,,,,,,,,,,,,,
,,,,,,,,,,,,,,,,,5d9e9204340c7700150ab74c,51,2022-02-12_12h16.46.601,lexical_decision_task_DD_L2,2021.2.3,Linux armv8l,120.3224642,,,,,,,,,,0.7769,1,,,,,,,,,,,,,,,0,-0.459229071,-0.238720199,1,0,0,0.7769,button_left_main,-0.459229071,-0.238720199,1,0,0,,0,117,117,86,1,AIFED,LB,old,z,./images/AIFEDLB.png,,,,,,,,,,,,,,,,,,,,,,,,,,,,,,,,,
,,,,,,,,,,,,,,,,,5d9e9204340c7700150ab74c,51,2022-02-12_12h16.46.601,lexical_decision_task_DD_L2,2021.2.3,Linux armv8l,120.3224642,,,,,,,,,,1.7856,1,,,,,,,,,,,,,,,0,0.550653106,-0.31332353,1,0,0,1.7856,button_right_main,0.550653106,-0.31332353,1,0,0,,0,118,118,22,1,MELON,LB,old,m,./images/MELONLB.png,,,,,,,,,,,,,,,,,,,,,,,,,,,,,,,,,
,,,,,,,,,,,,,,,,,5d9e9204340c7700150ab74c,51,2022-02-12_12h16.46.601,lexical_decision_task_DD_L2,2021.2.3,Linux armv8l,120.3224642,,,,,,,,,,1.7169,1,,,,,,,,,,,,,,,0,0.575575005,-0.303815231,1,0,0,1.7169,button_right_main,0.575575005,-0.303815231,1,0,0,,0,119,119,54,1,TRIPOD,HB,old,m,./images/TRIPODHB.png,,,,,,,,,,,,,,,,,,,,,,,,,,,,,,,,,
,,,,,,,,,,,,,,,,,5d9e9204340c7700150ab74c,51,2022-02-12_12h16.46.601,lexical_decision_task_DD_L2,2021.2.3,Linux armv8l,120.3224642,,,,,,,,,,1.1055,1,,,,,,,,,,,,,,,0,-0.444600966,-0.243108509,1,0,0,1.1055,button_left_main,-0.444600966,-0.243108509,1,0,0,,0,120,120,131,1,NACES,LB,old,z,./images/NACESLB.png,,,,,,,,,,,,,,,,,,,,,,,,,,,,,,,,,
,,,,,,,,,,,,,,,,,5d9e9204340c7700150ab74c,51,2022-02-12_12h16.46.601,lexical_decision_task_DD_L2,2021.2.3,Linux armv8l,120.3224642,,,,,,,,,,0.8536,1,,,,,,,,,,,,,,,0,0.555529104,-0.318443372,1,0,0,0.8536,button_right_main,0.555529104,-0.318443372,1,0,0,,0,121,121,73,1,SNACK,LB,old,m,./images/SNACKLB.png,,,,,,,,,,,,,,,,,,,,,,,,,,,,,,,,,
,,,,,,,,,,,,,,,,,5d9e9204340c7700150ab74c,51,2022-02-12_12h16.46.601,lexical_decision_task_DD_L2,2021.2.3,Linux armv8l,120.3224642,,,,,,,,,,0.9814,1,,,,,,,,,,,,,,,0,-0.458145512,-0.264806951,1,0,0,0.9814,button_left_main,-0.458145512,-0.264806951,1,0,0,,0,122,122,146,1,MOOST,LB,old,z,./images/MOOSTLB.png,,,,,,,,,,,,,,,,,,,,,,,,,,,,,,,,,
,,,,,,,,,,,,,,,,,5d9e9204340c7700150ab74c,51,2022-02-12_12h16.46.601,lexical_decision_task_DD_L2,2021.2.3,Linux armv8l,120.3224642,,,,,,,,,,1.3216,1,,,,,,,,,,,,,,,0,0.577742197,-0.296988774,1,0,0,1.3216,button_right_main,0.577742197,-0.296988774,1,0,0,,0,123,123,11,1,BONNET,C,old,m,./images/BONNET.png,,,,,,,,,,,,,,,,,,,,,,,,,,,,,,,,,
,,,,,,,,,,,,,,,,,5d9e9204340c7700150ab74c,51,2022-02-12_12h16.46.601,lexical_decision_task_DD_L2,2021.2.3,Linux armv8l,120.3224642,,,,,,,,,,0.8513,1,,,,,,,,,,,,,,,0,0.545235199,-0.309910302,1,0,0,0.8513,button_right_main,0.545235199,-0.309910302,1,0,0,,0,124,124,83,1,JUNGLE,C,old,m,./images/JUNGLE.png,,,,,,,,,,,,,,,,,,,,,,,,,,,,,,,,,
,,,,,,,,,,,,,,,,,5d9e9204340c7700150ab74c,51,2022-02-12_12h16.46.601,lexical_decision_task_DD_L2,2021.2.3,Linux armv8l,120.3224642,,,,,,,,,,0.8926,1,,,,,,,,,,,,,,,0,0.565823009,-0.307716073,1,0,0,0.8926,button_right_main,0.05329695,-0.394997236,1,0,0,,0,125,125,18,1,JAGUAR,HB,old,m,./images/JAGUARHB.png,break_done_button,,,,,,,,,,,,,,,,,,,,,,,,,,,,,,,,
,,,,,,,,,,,,,,,,,5d9e9204340c7700150ab74c,51,2022-02-12_12h16.46.601,lexical_decision_task_DD_L2,2021.2.3,Linux armv8l,120.3224642,,,,,,,,,,3.0037,0,,,,,,,,,,,,,,,0,0.49376597,-0.309178917,1,0,0,3.0037,button_right_main,0.49376597,-0.309178917,1,0,0,,0,126,126,104,1,GITTY,LB,old,z,./images/GITTYLB.png,,,,,,,,,,,,,,,,,,,,,,,,,,,,,,,,,
,,,,,,,,,,,,,,,,,5d9e9204340c7700150ab74c,51,2022-02-12_12h16.46.601,lexical_decision_task_DD_L2,2021.2.3,Linux armv8l,120.3224642,,,,,,,,,,4.0196,1,,,,,,,,,,,,,,,0,-0.405050852,-0.30186492,1,0,0,4.0196,button_left_main,-0.405050852,-0.30186492,1,0,0,,0,127,127,84,1,HAXES,C,old,z,./images/HAXES.png,,,,,,,,,,,,,,,,,,,,,,,,,,,,,,,,,
,,,,,,,,,,,,,,,,,5d9e9204340c7700150ab74c,51,2022-02-12_12h16.46.601,lexical_decision_task_DD_L2,2021.2.3,Linux armv8l,120.3224642,,,,,,,,,,0.918,1,,,,,,,,,,,,,,,0,0.527898251,-0.303083846,1,0,0,0.918,button_right_main,0.527898251,-0.303083846,1,0,0,,0,128,128,64,1,JELLY,LB,old,m,./images/JELLYLB.png,,,,,,,,,,,,,,,,,,,,,,,,,,,,,,,,,
,,,,,,,,,,,,,,,,,5d9e9204340c7700150ab74c,51,2022-02-12_12h16.46.601,lexical_decision_task_DD_L2,2021.2.3,Linux armv8l,120.3224642,,,,,,,,,,0.9952,1,,,,,,,,,,,,,,,0,-0.48794352,-0.3242946,1,0,0,0.9952,button_left_main,-0.48794352,-0.3242946,1,0,0,,0,129,129,132,1,SCIFF,C,old,z,./images/SCIFF.png,,,,,,,,,,,,,,,,,,,,,,,,,,,,,,,,,
,,,,,,,,,,,,,,,,,5d9e9204340c7700150ab74c,51,2022-02-12_12h16.46.601,lexical_decision_task_DD_L2,2021.2.3,Linux armv8l,120.3224642,,,,,,,,,,1.4709,1,,,,,,,,,,,,,,,0,-0.501488102,-0.31332353,1,0,0,1.4709,button_left_main,-0.501488102,-0.31332353,1,0,0,,0,130,130,143,1,MONGS,LB,old,z,./images/MONGSLB.png,,,,,,,,,,,,,,,,,,,,,,,,,,,,,,,,,
,,,,,,,,,,,,,,,,,5d9e9204340c7700150ab74c,51,2022-02-12_12h16.46.601,lexical_decision_task_DD_L2,2021.2.3,Linux armv8l,120.3224642,,,,,,,,,,2.186,1,,,,,,,,,,,,,,,0,-0.487401759,-0.299670618,1,0,0,2.186,button_left_main,-0.487401759,-0.299670618,1,0,0,,0,131,131,106,1,CLUMS,HB,old,z,./images/CLUMSHB.png,,,,,,,,,,,,,,,,,,,,,,,,,,,,,,,,,
,,,,,,,,,,,,,,,,,5d9e9204340c7700150ab74c,51,2022-02-12_12h16.46.601,lexical_decision_task_DD_L2,2021.2.3,Linux armv8l,120.3224642,,,,,,,,,,0.9354,1,,,,,,,,,,,,,,,0,0.570699007,-0.295038464,1,0,0,0.9354,button_right_main,0.570699007,-0.295038464,1,0,0,,0,132,132,57,1,MOOSE,HB,old,m,./images/MOOSEHB.png,,,,,,,,,,,,,,,,,,,,,,,,,,,,,,,,,
,,,,,,,,,,,,,,,,,5d9e9204340c7700150ab74c,51,2022-02-12_12h16.46.601,lexical_decision_task_DD_L2,2021.2.3,Linux armv8l,120.3224642,,,,,,,,,,1.0898,0,,,,,,,,,,,,,,,0,0.547402391,-0.302840001,1,0,0,1.0898,button_right_main,0.547402391,-0.302840001,1,0,0,,0,133,133,164,1,SGREW,LB,old,z,./images/SGREWLB.png,,,,,,,,,,,,,,,,,,,,,,,,,,,,,,,,,
,,,,,,,,,,,,,,,,,5d9e9204340c7700150ab74c,51,2022-02-12_12h16.46.601,lexical_decision_task_DD_L2,2021.2.3,Linux armv8l,120.3224642,,,,,,,,,,1.2583,1,,,,,,,,,,,,,,,0,-0.459770869,-0.27724079,1,0,0,1.2583,button_left_main,-0.459770869,-0.27724079,1,0,0,,0,134,134,140,1,DOVET,LB,old,z,./images/DOVETLB.png,,,,,,,,,,,,,,,,,,,,,,,,,,,,,,,,,
,,,,,,,,,,,,,,,,,5d9e9204340c7700150ab74c,51,2022-02-12_12h16.46.601,lexical_decision_task_DD_L2,2021.2.3,Linux armv8l,120.3224642,,,,,,,,,,0.8407,1,,,,,,,,,,,,,,,0,0.567448292,-0.31332353,1,0,0,0.8407,button_right_main,0.567448292,-0.31332353,1,0,0,,0,135,135,26,1,SMOKER,C,old,m,./images/SMOKER.png,,,,,,,,,,,,,,,,,,,,,,,,,,,,,,,,,
,,,,,,,,,,,,,,,,,5d9e9204340c7700150ab74c,51,2022-02-12_12h16.46.601,lexical_decision_task_DD_L2,2021.2.3,Linux armv8l,120.3224642,,,,,,,,,,0.7854,1,,,,,,,,,,,,,,,0,0.545235199,-0.308691377,1,0,0,0.7854,button_right_main,0.545235199,-0.308691377,1,0,0,,0,136,136,7,1,PAINT,LB,old,m,./images/PAINTLB.png,,,,,,,,,,,,,,,,,,,,,,,,,,,,,,,,,
,,,,,,,,,,,,,,,,,5d9e9204340c7700150ab74c,51,2022-02-12_12h16.46.601,lexical_decision_task_DD_L2,2021.2.3,Linux armv8l,120.3224642,,,,,,,,,,1.4225,1,,,,,,,,,,,,,,,0,-0.497695627,-0.316492914,1,0,0,1.4225,button_left_main,-0.497695627,-0.316492914,1,0,0,,0,137,137,103,1,FLORT,HB,old,z,./images/FLORTHB.png,,,,,,,,,,,,,,,,,,,,,,,,,,,,,,,,,
,,,,,,,,,,,,,,,,,5d9e9204340c7700150ab74c,51,2022-02-12_12h16.46.601,lexical_decision_task_DD_L2,2021.2.3,Linux armv8l,120.3224642,,,,,,,,,,1.4427,1,,,,,,,,,,,,,,,0,-0.505280578,-0.302596231,1,0,0,1.4427,button_left_main,-0.505280578,-0.302596231,1,0,0,,0,138,138,111,1,HOSSE,C,old,z,./images/HOSSE.png,,,,,,,,,,,,,,,,,,,,,,,,,,,,,,,,,
,,,,,,,,,,,,,,,,,5d9e9204340c7700150ab74c,51,2022-02-12_12h16.46.601,lexical_decision_task_DD_L2,2021.2.3,Linux armv8l,120.3224642,,,,,,,,,,1.0175,1,,,,,,,,,,,,,,,0,0.52735649,-0.310154072,1,0,0,1.0175,button_right_main,0.52735649,-0.310154072,1,0,0,,0,139,139,6,1,SQUARE,HB,old,m,./images/SQUAREHB.png,,,,,,,,,,,,,,,,,,,,,,,,,,,,,,,,,
,,,,,,,,,,,,,,,,,5d9e9204340c7700150ab74c,51,2022-02-12_12h16.46.601,lexical_decision_task_DD_L2,2021.2.3,Linux armv8l,120.3224642,,,,,,,,,,1.0432,1,,,,,,,,,,,,,,,0,0.548485913,-0.307959844,1,0,0,1.0432,button_right_main,0.548485913,-0.307959844,1,0,0,,0,140,140,1,1,PLANK,LB,old,m,./images/PLANKLB.png,,,,,,,,,,,,,,,,,,,,,,,,,,,,,,,,,
,,,,,,,,,,,,,,,,,5d9e9204340c7700150ab74c,51,2022-02-12_12h16.46.601,lexical_decision_task_DD_L2,2021.2.3,Linux armv8l,120.3224642,,,,,,,,,,1.8978,0,,,,,,,,,,,,,,,0,-0.480358568,-0.296013545,1,0,0,1.8978,button_left_main,-0.480358568,-0.296013545,1,0,0,,0,141,141,43,1,MOSQUE,LB,old,m,./images/MOSQUELB.png,,,,,,,,,,,,,,,,,,,,,,,,,,,,,,,,,
,,,,,,,,,,,,,,,,,5d9e9204340c7700150ab74c,51,2022-02-12_12h16.46.601,lexical_decision_task_DD_L2,2021.2.3,Linux armv8l,120.3224642,,,,,,,,,,1.3063,1,,,,,,,,,,,,,,,0,-0.510698374,-0.310641687,1,0,0,1.3063,button_left_main,-0.510698374,-0.310641687,1,0,0,,0,142,142,145,1,LAMEL,HB,old,z,./images/LAMELHB.png,,,,,,,,,,,,,,,,,,,,,,,,,,,,,,,,,
,,,,,,,,,,,,,,,,,5d9e9204340c7700150ab74c,51,2022-02-12_12h16.46.601,lexical_decision_task_DD_L2,2021.2.3,Linux armv8l,120.3224642,,,,,,,,,,1.8718,1,,,,,,,,,,,,,,,0,-0.510698374,-0.311129301,1,0,0,1.8718,button_left_main,-0.510698374,-0.311129301,1,0,0,,0,143,143,121,1,CEERS,HB,old,z,./images/CEERSHB.png,,,,,,,,,,,,,,,,,,,,,,,,,,,,,,,,,
,,,,,,,,,,,,,,,,,5d9e9204340c7700150ab74c,51,2022-02-12_12h16.46.601,lexical_decision_task_DD_L2,2021.2.3,Linux armv8l,120.3224642,,,,,,,,,,2.1871,1,,,,,,,,,,,,,,,0,-0.517741564,-0.300645847,1,0,0,2.1871,button_left_main,-0.517741564,-0.300645847,1,0,0,,0,144,144,88,1,GLUSH,HB,old,z,./images/GLUSHHB.png,,,,,,,,,,,,,,,,,,,,,,,,,,,,,,,,,
,,,,,,,,,,,,,,,,,5d9e9204340c7700150ab74c,51,2022-02-12_12h16.46.601,lexical_decision_task_DD_L2,2021.2.3,Linux armv8l,120.3224642,,,,,,,,,,1.0596,1,,,,,,,,,,,,,,,0,-0.518825124,-0.312592145,1,0,0,1.0596,button_left_main,-0.518825124,-0.312592145,1,0,0,,0,145,145,149,1,VEASE,LB,old,z,./images/VEASELB.png,,,,,,,,,,,,,,,,,,,,,,,,,,,,,,,,,
,,,,,,,,,,,,,,,,,5d9e9204340c7700150ab74c,51,2022-02-12_12h16.46.601,lexical_decision_task_DD_L2,2021.2.3,Linux armv8l,120.3224642,,,,,,,,,,0.887,1,,,,,,,,,,,,,,,0,-0.530744312,-0.297964003,1,0,0,0.887,button_left_main,-0.530744312,-0.297964003,1,0,0,,0,146,146,161,1,BLAPS,LB,old,z,./images/BLAPSLB.png,,,,,,,,,,,,,,,,,,,,,,,,,,,,,,,,,
,,,,,,,,,,,,,,,,,5d9e9204340c7700150ab74c,51,2022-02-12_12h16.46.601,lexical_decision_task_DD_L2,2021.2.3,Linux armv8l,120.3224642,,,,,,,,,,0.9311,1,,,,,,,,,,,,,,,0,-0.512865529,-0.324782214,1,0,0,0.9311,button_left_main,-0.512865529,-0.324782214,1,0,0,,0,147,147,101,1,GLEET,LB,old,z,./images/GLEETLB.png,,,,,,,,,,,,,,,,,,,,,,,,,,,,,,,,,
,,,,,,,,,,,,,,,,,5d9e9204340c7700150ab74c,51,2022-02-12_12h16.46.601,lexical_decision_task_DD_L2,2021.2.3,Linux armv8l,120.3224642,,,,,,,,,,1.1672,1,,,,,,,,,,,,,,,0,0.536566725,-0.297476389,1,0,0,1.1672,button_right_main,0.536566725,-0.297476389,1,0,0,,0,148,148,42,1,FOLDER,HB,old,m,./images/FOLDERHB.png,,,,,,,,,,,,,,,,,,,,,,,,,,,,,,,,,
,,,,,,,,,,,,,,,,,5d9e9204340c7700150ab74c,51,2022-02-12_12h16.46.601,lexical_decision_task_DD_L2,2021.2.3,Linux armv8l,120.3224642,,,,,,,,,,1.0721,1,,,,,,,,,,,,,,,0,-0.524784718,-0.284311091,1,0,0,1.0721,button_left_main,-0.524784718,-0.284311091,1,0,0,,0,149,149,92,1,PAIMS,LB,old,z,./images/PAIMSLB.png,,,,,,,,,,,,,,,,,,,,,,,,,,,,,,,,,
,,,,,,,,,,,,,,,,,5d9e9204340c7700150ab74c,51,2022-02-12_12h16.46.601,lexical_decision_task_DD_L2,2021.2.3,Linux armv8l,120.3224642,,,,,,,,,,1.7157,1,,,,,,,,,,,,,,,0,-0.491194234,-0.302596231,1,0,0,1.7157,button_left_main,-0.491194234,-0.302596231,1,0,0,,0,150,150,130,1,CRILL,HB,old,z,./images/CRILLHB.png,,,,,,,,,,,,,,,,,,,,,,,,,,,,,,,,,
,,,,,,,,,,,,,,,,,5d9e9204340c7700150ab74c,51,2022-02-12_12h16.46.601,lexical_decision_task_DD_L2,2021.2.3,Linux armv8l,120.3224642,,,,,,,,,,0.8636,1,,,,,,,,,,,,,,,0,0.544693438,-0.299426773,1,0,0,0.8636,button_right_main,0.544693438,-0.299426773,1,0,0,,0,151,151,14,1,PICKLE,C,old,m,./images/PICKLE.png,,,,,,,,,,,,,,,,,,,,,,,,,,,,,,,,,
,,,,,,,,,,,,,,,,,5d9e9204340c7700150ab74c,51,2022-02-12_12h16.46.601,lexical_decision_task_DD_L2,2021.2.3,Linux armv8l,120.3224642,,,,,,,,,,1.6418,1,,,,,,,,,,,,,,,0,-0.496070269,-0.30503423,1,0,0,1.6418,button_left_main,-0.496070269,-0.30503423,1,0,0,,0,152,152,94,1,BLANS,HB,old,z,./images/BLANSHB.png,,,,,,,,,,,,,,,,,,,,,,,,,,,,,,,,,
,,,,,,,,,,,,,,,,,5d9e9204340c7700150ab74c,51,2022-02-12_12h16.46.601,lexical_decision_task_DD_L2,2021.2.3,Linux armv8l,120.3224642,,,,,,,,,,0.8874,1,,,,,,,,,,,,,,,0,0.541442723,-0.30503423,1,0,0,0.8874,button_right_main,0.541442723,-0.30503423,1,0,0,,0,153,153,3,1,FINGER,HB,old,m,./images/FINGERHB.png,,,,,,,,,,,,,,,,,,,,,,,,,,,,,,,,,
,,,,,,,,,,,,,,,,,5d9e9204340c7700150ab74c,51,2022-02-12_12h16.46.601,lexical_decision_task_DD_L2,2021.2.3,Linux armv8l,120.3224642,,,,,,,,,,1.162,1,,,,,,,,,,,,,,,0,0.543068154,-0.292844161,1,0,0,1.162,button_right_main,0.543068154,-0.292844161,1,0,0,,0,154,154,80,1,WEASEL,C,old,m,./images/WEASEL.png,,,,,,,,,,,,,,,,,,,,,,,,,,,,,,,,,
,,,,,,,,,,,,,,,,,5d9e9204340c7700150ab74c,51,2022-02-12_12h16.46.601,lexical_decision_task_DD_L2,2021.2.3,Linux armv8l,120.3224642,,,,,,,,,,1.5619,1,,,,,,,,,,,,,,,0,-0.491735995,-0.310885531,1,0,0,1.5619,button_left_main,-0.491735995,-0.310885531,1,0,0,,0,155,155,163,1,GAMBA,HB,old,z,./images/GAMBAHB.png,,,,,,,,,,,,,,,,,,,,,,,,,,,,,,,,,
,,,,,,,,,,,,,,,,,5d9e9204340c7700150ab74c,51,2022-02-12_12h16.46.601,lexical_decision_task_DD_L2,2021.2.3,Linux armv8l,120.3224642,,,,,,,,,,1.7311,1,,,,,,,,,,,,,,,0,-0.487401759,-0.304059075,1,0,0,1.7311,button_left_main,-0.487401759,-0.304059075,1,0,0,,0,156,156,120,1,RINED,C,old,z,./images/RINED.png,,,,,,,,,,,,,,,,,,,,,,,,,,,,,,,,,
,,,,,,,,,,,,,,,,,5d9e9204340c7700150ab74c,51,2022-02-12_12h16.46.601,lexical_decision_task_DD_L2,2021.2.3,Linux armv8l,120.3224642,,,,,,,,,,0.8903,1,,,,,,,,,,,,,,,0,0.531690727,-0.298451692,1,0,0,0.8903,button_right_main,0.531690727,-0.298451692,1,0,0,,0,157,157,25,1,WRIST,LB,old,m,./images/WRISTLB.png,,,,,,,,,,,,,,,,,,,,,,,,,,,,,,,,,
,,,,,,,,,,,,,,,,,5d9e9204340c7700150ab74c,51,2022-02-12_12h16.46.601,lexical_decision_task_DD_L2,2021.2.3,Linux armv8l,120.3224642,,,,,,,,,,1.3883,1,,,,,,,,,,,,,,,0,0.52735649,-0.287724319,1,0,0,1.3883,button_right_main,0.52735649,-0.287724319,1,0,0,,0,158,158,31,1,QUILL,LB,old,m,./images/QUILLLB.png,,,,,,,,,,,,,,,,,,,,,,,,,,,,,,,,,
,,,,,,,,,,,,,,,,,5d9e9204340c7700150ab74c,51,2022-02-12_12h16.46.601,lexical_decision_task_DD_L2,2021.2.3,Linux armv8l,120.3224642,,,,,,,,,,0.8251,1,,,,,,,,,,,,,,,0,0.532232488,-0.297964003,1,0,0,0.8251,button_right_main,0.532232488,-0.297964003,1,0,0,,0,159,159,19,1,DOUGH,LB,old,m,./images/DOUGHLB.png,,,,,,,,,,,,,,,,,,,,,,,,,,,,,,,,,
,,,,,,,,,,,,,,,,,5d9e9204340c7700150ab74c,51,2022-02-12_12h16.46.601,lexical_decision_task_DD_L2,2021.2.3,Linux armv8l,120.3224642,,,,,,,,,,1.9946,1,,,,,,,,,,,,,,,0,0.515979063,-0.301377232,1,0,0,1.9946,button_right_main,0.515979063,-0.301377232,1,0,0,,0,160,160,17,1,SKIING,C,old,m,./images/SKIING.png,,,,,,,,,,,,,,,,,,,,,,,,,,,,,,,,,
,,,,,,,,,,,,,,,,,5d9e9204340c7700150ab74c,51,2022-02-12_12h16.46.601,lexical_decision_task_DD_L2,2021.2.3,Linux armv8l,120.3224642,,,,,,,,,,1.5595,1,,,,,,,,,,,,,,,0,-0.489027079,-0.312104605,1,0,0,1.5595,button_left_main,-0.489027079,-0.312104605,1,0,0,,0,161,161,135,1,JOODY,C,old,z,./images/JOODY.png,,,,,,,,,,,,,,,,,,,,,,,,,,,,,,,,,
,,,,,,,,,,,,,,,,,5d9e9204340c7700150ab74c,51,2022-02-12_12h16.46.601,lexical_decision_task_DD_L2,2021.2.3,Linux armv8l,120.3224642,,,,,,,,,,1.0005,1,,,,,,,,,,,,,,,0,-0.512865529,-0.315517833,1,0,0,1.0005,button_left_main,-0.512865529,-0.315517833,1,0,0,,0,162,162,116,1,BALGY,LB,old,z,./images/BALGYLB.png,,,,,,,,,,,,,,,,,,,,,,,,,,,,,,,,,
,,,,,,,,,,,,,,,,,5d9e9204340c7700150ab74c,51,2022-02-12_12h16.46.601,lexical_decision_task_DD_L2,2021.2.3,Linux armv8l,120.3224642,,,,,,,,,,1.2133,1,,,,,,,,,,,,,,,0,0.528981774,-0.300645847,1,0,0,1.2133,button_right_main,0.528981774,-0.300645847,1,0,0,,0,163,163,47,1,BERRY,C,old,m,./images/BERRY.png,,,,,,,,,,,,,,,,,,,,,,,,,,,,,,,,,
,,,,,,,,,,,,,,,,,5d9e9204340c7700150ab74c,51,2022-02-12_12h16.46.601,lexical_decision_task_DD_L2,2021.2.3,Linux armv8l,120.3224642,,,,,,,,,,1.5993,1,,,,,,,,,,,,,,,0,-0.499862745,-0.312104605,1,0,0,1.5993,button_left_main,-0.499862745,-0.312104605,1,0,0,,0,164,164,117,1,STEEG,C,old,z,./images/STEEG.png,,,,,,,,,,,,,,,,,,,,,,,,,,,,,,,,,
,,,,,,,,,,,,,,,,,5d9e9204340c7700150ab74c,51,2022-02-12_12h16.46.601,lexical_decision_task_DD_L2,2021.2.3,Linux armv8l,120.3224642,,,,,,,,,,1.5249,1,,,,,,,,,,,,,,,0,-0.522617599,-0.328195442,1,0,0,1.5249,button_left_main,-0.522617599,-0.328195442,1,0,0,,0,165,165,144,1,NAIRY,C,old,z,./images/NAIRY.png,,,,,,,,,,,,,,,,,,,,,,,,,,,,,,,,,
,,,,,,,,,,,,,,,,,5d9e9204340c7700150ab74c,51,2022-02-12_12h16.46.601,lexical_decision_task_DD_L2,2021.2.3,Linux armv8l,120.3224642,,,,,,,,,,1.3527,1,,,,,,,,,,,,,,,0,-0.524242957,-0.317955758,1,0,0,1.3527,button_left_main,-0.524242957,-0.317955758,1,0,0,,0,166,166,124,1,TUNCH,HB,old,z,./images/TUNCHHB.png,,,,,,,,,,,,,,,,,,,,,,,,,,,,,,,,,
,,,,,,,,,,,,,,,,,5d9e9204340c7700150ab74c,51,2022-02-12_12h16.46.601,lexical_decision_task_DD_L2,2021.2.3,Linux armv8l,120.3224642,,,,,,,,,,0.8892,1,,,,,,,,,,,,,,,0,0.538192008,-0.294550775,1,0,0,0.8892,button_right_main,0.538192008,-0.294550775,1,0,0,,0,167,167,24,1,SCREW,HB,old,m,./images/SCREWHB.png,,,,,,,,,,,,,,,,,,,,,,,,,,,,,,,,,
,,,,,,,,,,,,,,,,,5d9e9204340c7700150ab74c,51,2022-02-12_12h16.46.601,lexical_decision_task_DD_L2,2021.2.3,Linux armv8l,120.3224642,,,,,,,,,,,,,,,,,,,,,,,,,,,,,,,,,,,,,,,,,,,,,,How likely will it be that you will recognize the words presented clearly on a scale of 0 (not likely) to 100 (most likely)?,,,,,0.010496121,-0.426447748,1,0,0,jol_adv,4,14.303,0,0,0,0,1,,,,,,,,,,,,,,,,,,,
,,,,,,,,,,,,,,,,,5d9e9204340c7700150ab74c,51,2022-02-12_12h16.46.601,lexical_decision_task_DD_L2,2021.2.3,Linux armv8l,120.3224642,,,,,,,,,,,,,,,,,,,,,,,,,,,,,,,,,,,,,,,,,,,,,,How likely will it be that you will recognize the words presented very blurred on a scale of 0 (not likely) to 100 (most likely)?,,,,,,,,,,,4,11.127,0,1,1,2,1,,,,,,,,,,,,,,,,,,,
,,,,,,,,,,,,,,,,,5d9e9204340c7700150ab74c,51,2022-02-12_12h16.46.601,lexical_decision_task_DD_L2,2021.2.3,Linux armv8l,120.3224642,,,,,,,,,,,,,,,,,,,,,,,,,,,,,,,,,,,,,,,,,,,,,,How likely will it be that you will recognize the words presented slighly blurred on a scale of 0 (not likely) to 100 (most likely)?,,,,,,,,,,,4,8.7116,0,2,2,1,1,,,,,,,,,,,,,,,,,,,
,0.077677162,-0.398410464,1,0,0,instr_done_button,,,,,,1,test,"In the next phase you will be presented with the words from the the first phase. Your job is to decide whether you remember seeing the word or not. If you remember seeing the word press ""old"" or type ""m"". If you do not remember seeing the word press ""new"" or type ""z"". Please press the space bar or click on continue to begin. ",,,5d9e9204340c7700150ab74c,51,2022-02-12_12h16.46.601,lexical_decision_task_DD_L2,2021.2.3,Linux armv8l,120.3224642,,,,,,,,,,,,,,,,,,,,,,,,,,,,,,,,,,,,,,,,,,,,,,,,,,,,,,,,,,,,,,,,0,0,0,0,1,,,,,,,,,,,,,,
,0.054380546,-0.400117078,1,0,0,instr_done_button,,,,,,1,test,"In the next phase you will be presented with the words from the the first phase. Your job is to decide whether you remember seeing the word or not. If you remember seeing the word press ""old"" or type ""m"". If you do not remember seeing the word press ""new"" or type ""z"". Please press the space bar or click on continue to begin. ",,,5d9e9204340c7700150ab74c,51,2022-02-12_12h16.46.601,lexical_decision_task_DD_L2,2021.2.3,Linux armv8l,120.3224642,,,,,,,,,,,,,,,,,,,,,,,,,,,,,,,,,,,,,,,,,,,,,,,,,,,,,,,,,,,,,,,,1,0,1,0,1,,,,,,,,,,,,,,
,0.043003119,-0.371836097,1,0,0,instr_done_button,,,,,,1,test,"In the next phase you will be presented with the words from the the first phase. Your job is to decide whether you remember seeing the word or not. If you remember seeing the word press ""old"" or type ""m"". If you do not remember seeing the word press ""new"" or type ""z"". Please press the space bar or click on continue to begin. ",,,5d9e9204340c7700150ab74c,51,2022-02-12_12h16.46.601,lexical_decision_task_DD_L2,2021.2.3,Linux armv8l,120.3224642,,,,,,,,,,,,,,,,,,,,,,,,,,,,,,,,,,,,,,,,,,,,,,,,,,,,,,,,,,,,,,,,2,0,2,0,1,,,,,,,,,,,,,,
,0.025124263,-0.41523276,1,0,0,instr_done_button,,,,,,1,test,"In the next phase you will be presented with the words from the the first phase. Your job is to decide whether you remember seeing the word or not. If you remember seeing the word press ""old"" or type ""m"". If you do not remember seeing the word press ""new"" or type ""z"". Please press the space bar or click on continue to begin. ",,,5d9e9204340c7700150ab74c,51,2022-02-12_12h16.46.601,lexical_decision_task_DD_L2,2021.2.3,Linux armv8l,120.3224642,,,,,,,,,,,,,,,,,,,,,,,,,,,,,,,,,,,,,,,,,,,,,,,,,,,,,,,,,,,,,,,,3,0,3,0,1,,,,,,,,,,,,,,
,0.016455789,-0.386707936,1,0,0,instr_done_button,,,,,,1,test,"In the next phase you will be presented with the words from the the first phase. Your job is to decide whether you remember seeing the word or not. If you remember seeing the word press ""old"" or type ""m"". If you do not remember seeing the word press ""new"" or type ""z"". Please press the space bar or click on continue to begin. ",,,5d9e9204340c7700150ab74c,51,2022-02-12_12h16.46.601,lexical_decision_task_DD_L2,2021.2.3,Linux armv8l,120.3224642,,,,,,,,,,,,,,,,,,,,,,,,,,,,,,,,,,,,,,,,,,,,,,,,,,,,,,,,,,,,,,,,4,0,4,0,1,,,,,,,,,,,,,,
,,,,,,,,,,,,,,,,,5d9e9204340c7700150ab74c,51,2022-02-12_12h16.46.601,lexical_decision_task_DD_L2,2021.2.3,Linux armv8l,120.3224642,,,,,,,,,,2.3823,1,,,,,,,,,,,,,,,,,,,,,,,-0.441892013,-0.270658178,1,0,0,,,,,,,STOVE,C,z,y,./images/STOVE.png,,,,,,,,,,,,,,,,,,,,,0,-0.441892013,-0.270658178,1,0,0,2.3823,button_left_test,0,0,0,86,1
,,,,,,,,,,,,,,,,,5d9e9204340c7700150ab74c,51,2022-02-12_12h16.46.601,lexical_decision_task_DD_L2,2021.2.3,Linux armv8l,120.3224642,,,,,,,,,,2.2567,1,,,,,,,,,,,,,,,,,,,,,,,0.519771539,-0.300889617,1,0,0,,,,,,,MUFFIN,LB,m,y,./images/MUFFINLB.png,,,,,,,,,,,,,,,,,,,,,0,0.519771539,-0.300889617,1,0,0,2.2567,button_right_test,0,1,1,55,1
,,,,,,,,,,,,,,,,,5d9e9204340c7700150ab74c,51,2022-02-12_12h16.46.601,lexical_decision_task_DD_L2,2021.2.3,Linux armv8l,120.3224642,,,,,,,,,,1.2531,1,,,,,,,,,,,,,,,,,,,,,,,-0.480900366,-0.303083846,1,0,0,,,,,,,WHISKY,C,z,y,./images/WHISKY.png,,,,,,,,,,,,,,,,,,,,,0,-0.480900366,-0.303083846,1,0,0,1.2531,button_left_test,0,2,2,167,1
,,,,,,,,,,,,,,,,,5d9e9204340c7700150ab74c,51,2022-02-12_12h16.46.601,lexical_decision_task_DD_L2,2021.2.3,Linux armv8l,120.3224642,,,,,,,,,,2.6041,0,,,,,,,,,,,,,,,,,,,,,,,-0.490652436,-0.310641687,1,0,0,,,,,,,TORCH,C,m,y,./images/TORCH.png,,,,,,,,,,,,,,,,,,,,,0,-0.490652436,-0.310641687,1,0,0,2.6041,button_left_test,0,3,3,68,1
,,,,,,,,,,,,,,,,,5d9e9204340c7700150ab74c,51,2022-02-12_12h16.46.601,lexical_decision_task_DD_L2,2021.2.3,Linux armv8l,120.3224642,,,,,,,,,,1.3349,1,,,,,,,,,,,,,,,,,,,,,,,-0.498779186,-0.308691377,1,0,0,,,,,,,WAGON,LB,z,y,./images/WAGONLB.png,,,,,,,,,,,,,,,,,,,,,0,-0.498779186,-0.308691377,1,0,0,1.3349,button_left_test,0,4,4,91,1
,,,,,,,,,,,,,,,,,5d9e9204340c7700150ab74c,51,2022-02-12_12h16.46.601,lexical_decision_task_DD_L2,2021.2.3,Linux armv8l,120.3224642,,,,,,,,,,1.4473,1,,,,,,,,,,,,,,,,,,,,,,,-0.495528471,-0.313811219,1,0,0,,,,,,,STOOL,LB,z,y,./images/STOOLLB.png,,,,,,,,,,,,,,,,,,,,,0,-0.495528471,-0.313811219,1,0,0,1.4473,button_left_test,0,5,5,127,1
,,,,,,,,,,,,,,,,,5d9e9204340c7700150ab74c,51,2022-02-12_12h16.46.601,lexical_decision_task_DD_L2,2021.2.3,Linux armv8l,120.3224642,,,,,,,,,,1.4497,1,,,,,,,,,,,,,,,,,,,,,,,-0.498237388,-0.319174757,1,0,0,,,,,,,MONKEY,HB,z,y,./images/MONKEYHB.png,,,,,,,,,,,,,,,,,,,,,0,-0.498237388,-0.319174757,1,0,0,1.4497,button_left_test,0,6,6,129,1
,,,,,,,,,,,,,,,,,5d9e9204340c7700150ab74c,51,2022-02-12_12h16.46.601,lexical_decision_task_DD_L2,2021.2.3,Linux armv8l,120.3224642,,,,,,,,,,1.3302,1,,,,,,,,,,,,,,,,,,,,,,,-0.509073054,-0.310885531,1,0,0,,,,,,,WHEEL,C,z,y,./images/WHEEL.png,,,,,,,,,,,,,,,,,,,,,0,-0.509073054,-0.310885531,1,0,0,1.3302,button_left_test,0,7,7,161,1
,,,,,,,,,,,,,,,,,5d9e9204340c7700150ab74c,51,2022-02-12_12h16.46.601,lexical_decision_task_DD_L2,2021.2.3,Linux armv8l,120.3224642,,,,,,,,,,1.0717,1,,,,,,,,,,,,,,,,,,,,,,,-0.502571661,-0.316980529,1,0,0,,,,,,,DONKEY,LB,z,y,./images/DONKEYLB.png,,,,,,,,,,,,,,,,,,,,,0,-0.502571661,-0.316980529,1,0,0,1.0717,button_left_test,0,8,8,103,1
,,,,,,,,,,,,,,,,,5d9e9204340c7700150ab74c,51,2022-02-12_12h16.46.601,lexical_decision_task_DD_L2,2021.2.3,Linux armv8l,120.3224642,,,,,,,,,,3.05,1,,,,,,,,,,,,,,,,,,,,,,,0.508394112,-0.287724319,1,0,0,,,,,,,MAGGOT,HB,m,y,./images/MAGGOTHB.png,,,,,,,,,,,,,,,,,,,,,0,0.508394112,-0.287724319,1,0,0,3.05,button_right_test,0,9,9,33,1
,,,,,,,,,,,,,,,,,5d9e9204340c7700150ab74c,51,2022-02-12_12h16.46.601,lexical_decision_task_DD_L2,2021.2.3,Linux armv8l,120.3224642,,,,,,,,,,1.505,0,,,,,,,,,,,,,,,,,,,,,,,0.498100207,-0.291625236,1,0,0,,,,,,,CHERRY,HB,z,y,./images/CHERRYHB.png,,,,,,,,,,,,,,,,,,,,,0,0.498100207,-0.291625236,1,0,0,1.505,button_right_test,0,10,10,138,1
,,,,,,,,,,,,,,,,,5d9e9204340c7700150ab74c,51,2022-02-12_12h16.46.601,lexical_decision_task_DD_L2,2021.2.3,Linux armv8l,120.3224642,,,,,,,,,,1.6107,1,,,,,,,,,,,,,,,,,,,,,,,-0.499320947,-0.308447458,1,0,0,,,,,,,POKER,LB,z,y,./images/POKERLB.png,,,,,,,,,,,,,,,,,,,,,0,-0.499320947,-0.308447458,1,0,0,1.6107,button_left_test,0,11,11,151,1
,,,,,,,,,,,,,,,,,5d9e9204340c7700150ab74c,51,2022-02-12_12h16.46.601,lexical_decision_task_DD_L2,2021.2.3,Linux armv8l,120.3224642,,,,,,,,,,1.2581,1,,,,,,,,,,,,,,,,,,,,,,,0.490515255,-0.297476389,1,0,0,,,,,,,MIRROR,HB,m,y,./images/MIRRORHB.png,,,,,,,,,,,,,,,,,,,,,0,0.490515255,-0.297476389,1,0,0,1.2581,button_right_test,0,12,12,63,1
,,,,,,,,,,,,,,,,,5d9e9204340c7700150ab74c,51,2022-02-12_12h16.46.601,lexical_decision_task_DD_L2,2021.2.3,Linux armv8l,120.3224642,,,,,,,,,,1.5016,1,,,,,,,,,,,,,,,,,,,,,,,0.493224209,-0.294306931,1,0,0,,,,,,,RHINO,HB,m,y,./images/RHINOHB.png,,,,,,,,,,,,,,,,,,,,,0,0.493224209,-0.294306931,1,0,0,1.5016,button_right_test,0,13,13,9,1
,,,,,,,,,,,,,,,,,5d9e9204340c7700150ab74c,51,2022-02-12_12h16.46.601,lexical_decision_task_DD_L2,2021.2.3,Linux armv8l,120.3224642,,,,,,,,,,1.2111,1,,,,,,,,,,,,,,,,,,,,,,,-0.493903151,-0.323806985,1,0,0,,,,,,,SLOPE,HB,z,y,./images/SLOPEHB.png,,,,,,,,,,,,,,,,,,,,,0,-0.493903151,-0.323806985,1,0,0,1.2111,button_left_test,0,14,14,114,1
,,,,,,,,,,,,,,,,,5d9e9204340c7700150ab74c,51,2022-02-12_12h16.46.601,lexical_decision_task_DD_L2,2021.2.3,Linux armv8l,120.3224642,,,,,,,,,,1.2046,0,,,,,,,,,,,,,,,,,,,,,,,-0.494444912,-0.329902056,1,0,0,,,,,,,BANNER,LB,m,y,./images/BANNERLB.png,,,,,,,,,,,,,,,,,,,,,0,-0.494444912,-0.329902056,1,0,0,1.2046,button_left_test,0,15,15,52,1
,,,,,,,,,,,,,,,,,5d9e9204340c7700150ab74c,51,2022-02-12_12h16.46.601,lexical_decision_task_DD_L2,2021.2.3,Linux armv8l,120.3224642,,,,,,,,,,1.8129,0,,,,,,,,,,,,,,,,,,,,,,,-0.517199766,-0.307472303,1,0,0,,,,,,,COUCH,C,m,y,./images/COUCH.png,,,,,,,,,,,,,,,,,,,,,0,-0.517199766,-0.307472303,1,0,0,1.8129,button_left_test,0,16,16,77,1
,,,,,,,,,,,,,,,,,5d9e9204340c7700150ab74c,51,2022-02-12_12h16.46.601,lexical_decision_task_DD_L2,2021.2.3,Linux armv8l,120.3224642,,,,,,,,,,1.2853,1,,,,,,,,,,,,,,,,,,,,,,,0.485097348,-0.300645847,1,0,0,,,,,,,LIZARD,C,m,y,./images/LIZARD.png,,,,,,,,,,,,,,,,,,,,,0,0.485097348,-0.300645847,1,0,0,1.2853,button_right_test,0,17,17,44,1
,,,,,,,,,,,,,,,,,5d9e9204340c7700150ab74c,51,2022-02-12_12h16.46.601,lexical_decision_task_DD_L2,2021.2.3,Linux armv8l,120.3224642,,,,,,,,,,1.721,0,,,,,,,,,,,,,,,,,,,,,,,-0.507447696,-0.318443372,1,0,0,,,,,,,GREASE,HB,m,y,./images/GREASEHB.png,,,,,,,,,,,,,,,,,,,,,0,-0.507447696,-0.318443372,1,0,0,1.721,button_left_test,0,18,18,15,1
,,,,,,,,,,,,,,,,,5d9e9204340c7700150ab74c,51,2022-02-12_12h16.46.601,lexical_decision_task_DD_L2,2021.2.3,Linux armv8l,120.3224642,,,,,,,,,,1.0651,1,,,,,,,,,,,,,,,,,,,,,,,-0.516116207,-0.324782214,1,0,0,,,,,,,STEAK,LB,z,y,./images/STEAKLB.png,,,,,,,,,,,,,,,,,,,,,0,-0.516116207,-0.324782214,1,0,0,1.0651,button_left_test,0,19,19,115,1
,,,,,,,,,,,,,,,,,5d9e9204340c7700150ab74c,51,2022-02-12_12h16.46.601,lexical_decision_task_DD_L2,2021.2.3,Linux armv8l,120.3224642,,,,,,,,,,2.383,0,,,,,,,,,,,,,,,,,,,,,,,0.485639257,-0.296745078,1,0,0,,,,,,,CURRY,HB,z,y,./images/CURRYHB.png,,,,,,,,,,,,,,,,,,,,,0,0.485639257,-0.296745078,1,0,0,2.383,button_right_test,0,20,20,144,1
,,,,,,,,,,,,,,,,,5d9e9204340c7700150ab74c,51,2022-02-12_12h16.46.601,lexical_decision_task_DD_L2,2021.2.3,Linux armv8l,120.3224642,,,,,,,,,,0.963,1,,,,,,,,,,,,,,,,,,,,,,,0.485639257,-0.295526005,1,0,0,,,,,,,QUILL,LB,m,y,./images/QUILLLB.png,,,,,,,,,,,,,,,,,,,,,0,0.485639257,-0.295526005,1,0,0,0.963,button_right_test,0,21,21,31,1
,,,,,,,,,,,,,,,,,5d9e9204340c7700150ab74c,51,2022-02-12_12h16.46.601,lexical_decision_task_DD_L2,2021.2.3,Linux armv8l,120.3224642,,,,,,,,,,1.2677,1,,,,,,,,,,,,,,,,,,,,,,,-0.511240172,-0.31454253,1,0,0,,,,,,,BROOM,HB,z,y,./images/BROOMHB.png,,,,,,,,,,,,,,,,,,,,,0,-0.511240172,-0.31454253,1,0,0,1.2677,button_left_test,0,22,22,162,1
,,,,,,,,,,,,,,,,,5d9e9204340c7700150ab74c,51,2022-02-12_12h16.46.601,lexical_decision_task_DD_L2,2021.2.3,Linux armv8l,120.3224642,,,,,,,,,,1.0309,1,,,,,,,,,,,,,,,,,,,,,,,0.491598777,-0.300645847,1,0,0,,,,,,,PEACH,C,m,y,./images/PEACH.png,,,,,,,,,,,,,,,,,,,,,0,0.491598777,-0.300645847,1,0,0,1.0309,button_right_test,0,23,23,35,1
,,,,,,,,,,,,,,,,,5d9e9204340c7700150ab74c,51,2022-02-12_12h16.46.601,lexical_decision_task_DD_L2,2021.2.3,Linux armv8l,120.3224642,,,,,,,,,,2.3355,1,,,,,,,,,,,,,,,,,,,,,,,0.470469354,-0.300889617,1,0,0,,,,,,,PLANK,LB,m,y,./images/PLANKLB.png,,,,,,,,,,,,,,,,,,,,,0,0.470469354,-0.300889617,1,0,0,2.3355,button_right_test,0,24,24,1,1
,,,,,,,,,,,,,,,,,5d9e9204340c7700150ab74c,51,2022-02-12_12h16.46.601,lexical_decision_task_DD_L2,2021.2.3,Linux armv8l,120.3224642,,,,,,,,,,0.8852,0,,,,,,,,,,,,,,,,,,,,,,,-0.524784718,-0.309666458,1,0,0,,,,,,,MUSCLE,LB,m,y,./images/MUSCLELB.png,,,,,,,,,,,,,,,,,,,,,0,-0.524784718,-0.309666458,1,0,0,0.8852,button_left_test,0,25,25,4,1
,,,,,,,,,,,,,,,,,5d9e9204340c7700150ab74c,51,2022-02-12_12h16.46.601,lexical_decision_task_DD_L2,2021.2.3,Linux armv8l,120.3224642,,,,,,,,,,1.3356,0,,,,,,,,,,,,,,,,,,,,,,,-0.519366885,-0.325269829,1,0,0,,,,,,,URINE,LB,m,y,./images/URINELB.png,,,,,,,,,,,,,,,,,,,,,0,-0.519366885,-0.325269829,1,0,0,1.3356,button_left_test,0,26,26,70,1
,,,,,,,,,,,,,,,,,5d9e9204340c7700150ab74c,51,2022-02-12_12h16.46.601,lexical_decision_task_DD_L2,2021.2.3,Linux armv8l,120.3224642,,,,,,,,,,2.3902,1,,,,,,,,,,,,,,,,,,,,,,,-0.522617599,-0.319418602,1,0,0,,,,,,,PARCEL,HB,z,y,./images/PARCELHB.png,,,,,,,,,,,,,,,,,,,,,0,-0.522617599,-0.319418602,1,0,0,2.3902,button_left_test,0,27,27,102,1
,,,,,,,,,,,,,,,,,5d9e9204340c7700150ab74c,51,2022-02-12_12h16.46.601,lexical_decision_task_DD_L2,2021.2.3,Linux armv8l,120.3224642,,,,,,,,,,1.3823,1,,,,,,,,,,,,,,,,,,,,,,,-0.502571661,-0.345749198,1,0,0,,,,,,,CLOUD,C,z,y,./images/CLOUD.png,,,,,,,,,,,,,,,,,,,,,0,-0.502571661,-0.345749198,1,0,0,1.3823,button_left_test,0,28,28,110,1
,,,,,,,,,,,,,,,,,5d9e9204340c7700150ab74c,51,2022-02-12_12h16.46.601,lexical_decision_task_DD_L2,2021.2.3,Linux armv8l,120.3224642,,,,,,,,,,1.0878,1,,,,,,,,,,,,,,,,,,,,,,,-0.511240172,-0.334534284,1,0,0,,,,,,,SAUNA,HB,z,y,./images/SAUNAHB.png,,,,,,,,,,,,,,,,,,,,,0,-0.511240172,-0.334534284,1,0,0,1.0878,button_left_test,0,29,29,117,1
,,,,,,,,,,,,,,,,,5d9e9204340c7700150ab74c,51,2022-02-12_12h16.46.601,lexical_decision_task_DD_L2,2021.2.3,Linux armv8l,120.3224642,,,,,,,,,,1.3195,1,,,,,,,,,,,,,,,,,,,,,,,-0.512323731,-0.345749198,1,0,0,,,,,,,SHIELD,HB,z,y,./images/SHIELDHB.png,,,,,,,,,,,,,,,,,,,,,0,-0.512323731,-0.345749198,1,0,0,1.3195,button_left_test,0,30,30,132,1
,,,,,,,,,,,,,,,,,5d9e9204340c7700150ab74c,51,2022-02-12_12h16.46.601,lexical_decision_task_DD_L2,2021.2.3,Linux armv8l,120.3224642,,,,,,,,,,1.281,1,,,,,,,,,,,,,,,,,,,,,,,-0.515574409,-0.338678897,1,0,0,,,,,,,PEBBLE,LB,z,y,./images/PEBBLELB.png,,,,,,,,,,,,,,,,,,,,,0,-0.515574409,-0.338678897,1,0,0,1.281,button_left_test,0,31,31,166,1
,,,,,,,,,,,,,,,,,5d9e9204340c7700150ab74c,51,2022-02-12_12h16.46.601,lexical_decision_task_DD_L2,2021.2.3,Linux armv8l,120.3224642,,,,,,,,,,1.3183,1,,,,,,,,,,,,,,,,,,,,,,,-0.516116207,-0.35111281,1,0,0,,,,,,,PILOT,C,z,y,./images/PILOT.png,,,,,,,,,,,,,,,,,,,,,0,-0.516116207,-0.35111281,1,0,0,1.3183,button_left_test,0,32,32,134,1
,,,,,,,,,,,,,,,,,5d9e9204340c7700150ab74c,51,2022-02-12_12h16.46.601,lexical_decision_task_DD_L2,2021.2.3,Linux armv8l,120.3224642,,,,,,,,,,1.5652,1,,,,,,,,,,,,,,,,,,,,,,,-0.511781933,-0.342823658,1,0,0,,,,,,,BANANA,LB,z,y,./images/BANANALB.png,,,,,,,,,,,,,,,,,,,,,0,-0.511781933,-0.342823658,1,0,0,1.5652,button_left_test,0,33,33,154,1
,,,,,,,,,,,,,,,,,5d9e9204340c7700150ab74c,51,2022-02-12_12h16.46.601,lexical_decision_task_DD_L2,2021.2.3,Linux armv8l,120.3224642,,,,,,,,,,1.9667,0,,,,,,,,,,,,,,,,,,,,,,,-0.522075801,-0.334046669,1,0,0,,,,,,,ATTIC,HB,m,y,./images/ATTICHB.png,,,,,,,,,,,,,,,,,,,,,0,-0.522075801,-0.334046669,1,0,0,1.9667,button_left_test,0,34,34,27,1
,,,,,,,,,,,,,,,,,5d9e9204340c7700150ab74c,51,2022-02-12_12h16.46.601,lexical_decision_task_DD_L2,2021.2.3,Linux armv8l,120.3224642,,,,,,,,,,1.2042,0,,,,,,,,,,,,,,,,,,,,,,,-0.52153404,-0.346480583,1,0,0,,,,,,,WALRUS,C,m,y,./images/WALRUS.png,,,,,,,,,,,,,,,,,,,,,0,-0.52153404,-0.346480583,1,0,0,1.2042,button_left_test,0,35,35,23,1
,,,,,,,,,,,,,,,,,5d9e9204340c7700150ab74c,51,2022-02-12_12h16.46.601,lexical_decision_task_DD_L2,2021.2.3,Linux armv8l,120.3224642,,,,,,,,,,2.5208,1,,,,,,,,,,,,,,,,,,,,,,,-0.510156613,-0.342823658,1,0,0,,,,,,,FERRY,HB,z,y,./images/FERRYHB.png,,,,,,,,,,,,,,,,,,,,,0,-0.510156613,-0.342823658,1,0,0,2.5208,button_left_test,0,36,36,141,1
,,,,,,,,,,,,,,,,,5d9e9204340c7700150ab74c,51,2022-02-12_12h16.46.601,lexical_decision_task_DD_L2,2021.2.3,Linux armv8l,120.3224642,,,,,,,,,,2.3542,1,,,,,,,,,,,,,,,,,,,,,,,-0.526410075,-0.339166512,1,0,0,,,,,,,ALLEY,LB,z,y,./images/ALLEYLB.png,,,,,,,,,,,,,,,,,,,,,0,-0.526410075,-0.339166512,1,0,0,2.3542,button_left_test,0,37,37,139,1
,,,,,,,,,,,,,,,,,5d9e9204340c7700150ab74c,51,2022-02-12_12h16.46.601,lexical_decision_task_DD_L2,2021.2.3,Linux armv8l,120.3224642,,,,,,,,,,1.5824,0,,,,,,,,,,,,,,,,,,,,,,,-0.519908683,-0.347455812,1,0,0,,,,,,,JAGUAR,HB,m,y,./images/JAGUARHB.png,,,,,,,,,,,,,,,,,,,,,0,-0.519908683,-0.347455812,1,0,0,1.5824,button_left_test,0,38,38,18,1
,,,,,,,,,,,,,,,,,5d9e9204340c7700150ab74c,51,2022-02-12_12h16.46.601,lexical_decision_task_DD_L2,2021.2.3,Linux armv8l,120.3224642,,,,,,,,,,1.2824,1,,,,,,,,,,,,,,,,,,,,,,,-0.52315936,-0.34257974,1,0,0,,,,,,,STAIN,HB,z,y,./images/STAINHB.png,,,,,,,,,,,,,,,,,,,,,0,-0.52315936,-0.34257974,1,0,0,1.2824,button_left_test,0,39,39,90,1
,,,,,,,,,,,,,,,,,5d9e9204340c7700150ab74c,51,2022-02-12_12h16.46.601,lexical_decision_task_DD_L2,2021.2.3,Linux armv8l,120.3224642,,,,,,,,,,1.308,0,,,,,,,,,,,,,,,,,,,,,,,-0.523701159,-0.352088039,1,0,0,,,,,,,INFANT,LB,m,y,./images/INFANTLB.png,,,,,,,,,,,,,,,,,,,,,0,-0.523701159,-0.352088039,1,0,0,1.308,button_left_test,0,40,40,76,1
,,,,,,,,,,,,,,,,,5d9e9204340c7700150ab74c,51,2022-02-12_12h16.46.601,lexical_decision_task_DD_L2,2021.2.3,Linux armv8l,120.3224642,,,,,,,,,,2.5356,1,,,,,,,,,,,,,,,,,,,,,,,0.057631187,-0.414745146,1,0,0,,,,,,,PACKET,C,m,y,./images/PACKET.png,break_done_button,,,,,,,,,,,,,,,,,,,,0,0.463967925,-0.298451692,1,0,0,2.5356,button_right_test,0,41,41,56,1
,,,,,,,,,,,,,,,,,5d9e9204340c7700150ab74c,51,2022-02-12_12h16.46.601,lexical_decision_task_DD_L2,2021.2.3,Linux armv8l,120.3224642,,,,,,,,,,2.1155,0,,,,,,,,,,,,,,,,,,,,,,,-0.479275009,-0.296013545,1,0,0,,,,,,,FARMER,C,m,y,./images/FARMER.png,,,,,,,,,,,,,,,,,,,,,0,-0.479275009,-0.296013545,1,0,0,2.1155,button_left_test,0,42,42,65,1
,,,,,,,,,,,,,,,,,5d9e9204340c7700150ab74c,51,2022-02-12_12h16.46.601,lexical_decision_task_DD_L2,2021.2.3,Linux armv8l,120.3224642,,,,,,,,,,1.1626,1,,,,,,,,,,,,,,,,,,,,,,,-0.489027079,-0.281629248,1,0,0,,,,,,,SNAKE,LB,z,y,./images/SNAKELB.png,,,,,,,,,,,,,,,,,,,,,0,-0.489027079,-0.281629248,1,0,0,1.1626,button_left_test,0,43,43,124,1
,,,,,,,,,,,,,,,,,5d9e9204340c7700150ab74c,51,2022-02-12_12h16.46.601,lexical_decision_task_DD_L2,2021.2.3,Linux armv8l,120.3224642,,,,,,,,,,2.9644,1,,,,,,,,,,,,,,,,,,,,,,,-0.448935203,-0.288943318,1,0,0,,,,,,,DESERT,LB,z,y,./images/DESERTLB.png,,,,,,,,,,,,,,,,,,,,,0,-0.448935203,-0.288943318,1,0,0,2.9644,button_left_test,0,44,44,136,1
,,,,,,,,,,,,,,,,,5d9e9204340c7700150ab74c,51,2022-02-12_12h16.46.601,lexical_decision_task_DD_L2,2021.2.3,Linux armv8l,120.3224642,,,,,,,,,,2.0087,1,,,,,,,,,,,,,,,,,,,,,,,-0.444600966,-0.305521845,1,0,0,,,,,,,CANOE,LB,z,y,./images/CANOELB.png,,,,,,,,,,,,,,,,,,,,,0,-0.444600966,-0.305521845,1,0,0,2.0087,button_left_test,0,45,45,142,1
,,,,,,,,,,,,,,,,,5d9e9204340c7700150ab74c,51,2022-02-12_12h16.46.601,lexical_decision_task_DD_L2,2021.2.3,Linux armv8l,120.3224642,,,,,,,,,,1.3685,0,,,,,,,,,,,,,,,,,,,,,,,0.462884403,-0.309666458,1,0,0,,,,,,,DRILL,HB,z,y,./images/DRILLHB.png,,,,,,,,,,,,,,,,,,,,,0,0.462884403,-0.309666458,1,0,0,1.3685,button_right_test,0,46,46,165,1
,,,,,,,,,,,,,,,,,5d9e9204340c7700150ab74c,51,2022-02-12_12h16.46.601,lexical_decision_task_DD_L2,2021.2.3,Linux armv8l,120.3224642,,,,,,,,,,1.1594,0,,,,,,,,,,,,,,,,,,,,,,,0.50676868,-0.319174757,1,0,0,,,,,,,MUMMY,LB,z,y,./images/MUMMYLB.png,,,,,,,,,,,,,,,,,,,,,0,0.50676868,-0.319174757,1,0,0,1.1594,button_right_test,0,47,47,130,1
,,,,,,,,,,,,,,,,,5d9e9204340c7700150ab74c,51,2022-02-12_12h16.46.601,lexical_decision_task_DD_L2,2021.2.3,Linux armv8l,120.3224642,,,,,,,,,,1.1317,1,,,,,,,,,,,,,,,,,,,,,,,0.502434444,-0.312592145,1,0,0,,,,,,,SMOKER,C,m,y,./images/SMOKER.png,,,,,,,,,,,,,,,,,,,,,0,0.502434444,-0.312592145,1,0,0,1.1317,button_right_test,0,48,48,26,1
,,,,,,,,,,,,,,,,,5d9e9204340c7700150ab74c,51,2022-02-12_12h16.46.601,lexical_decision_task_DD_L2,2021.2.3,Linux armv8l,120.3224642,,,,,,,,,,1.7934,1,,,,,,,,,,,,,,,,,,,,,,,-0.452185844,-0.299183003,1,0,0,,,,,,,POSTER,C,z,y,./images/POSTER.png,,,,,,,,,,,,,,,,,,,,,0,-0.452185844,-0.299183003,1,0,0,1.7934,button_left_test,0,49,49,137,1
,,,,,,,,,,,,,,,,,5d9e9204340c7700150ab74c,51,2022-02-12_12h16.46.601,lexical_decision_task_DD_L2,2021.2.3,Linux armv8l,120.3224642,,,,,,,,,,1.445,1,,,,,,,,,,,,,,,,,,,,,,,-0.4700647,-0.297476389,1,0,0,,,,,,,BUNNY,LB,z,y,./images/BUNNYLB.png,,,,,,,,,,,,,,,,,,,,,0,-0.4700647,-0.297476389,1,0,0,1.445,button_left_test,0,50,50,97,1
,,,,,,,,,,,,,,,,,5d9e9204340c7700150ab74c,51,2022-02-12_12h16.46.601,lexical_decision_task_DD_L2,2021.2.3,Linux armv8l,120.3224642,,,,,,,,,,1.3768,0,,,,,,,,,,,,,,,,,,,,,,,-0.474398974,-0.300645847,1,0,0,,,,,,,BELLY,LB,m,y,./images/BELLYLB.png,,,,,,,,,,,,,,,,,,,,,0,-0.474398974,-0.300645847,1,0,0,1.3768,button_left_test,0,51,51,10,1
,,,,,,,,,,,,,,,,,5d9e9204340c7700150ab74c,51,2022-02-12_12h16.46.601,lexical_decision_task_DD_L2,2021.2.3,Linux armv8l,120.3224642,,,,,,,,,,1.4723,1,,,,,,,,,,,,,,,,,,,,,,,-0.4700647,-0.3147863,1,0,0,,,,,,,GARDEN,LB,z,y,./images/GARDENLB.png,,,,,,,,,,,,,,,,,,,,,0,-0.4700647,-0.3147863,1,0,0,1.4723,button_left_test,0,52,52,94,1
,,,,,,,,,,,,,,,,,5d9e9204340c7700150ab74c,51,2022-02-12_12h16.46.601,lexical_decision_task_DD_L2,2021.2.3,Linux armv8l,120.3224642,,,,,,,,,,1.4526,1,,,,,,,,,,,,,,,,,,,,,,,-0.473315415,-0.308691377,1,0,0,,,,,,,HOCKEY,C,z,y,./images/HOCKEY.png,,,,,,,,,,,,,,,,,,,,,0,-0.473315415,-0.308691377,1,0,0,1.4526,button_left_test,0,53,53,116,1
,,,,,,,,,,,,,,,,,5d9e9204340c7700150ab74c,51,2022-02-12_12h16.46.601,lexical_decision_task_DD_L2,2021.2.3,Linux armv8l,120.3224642,,,,,,,,,,1.0545,1,,,,,,,,,,,,,,,,,,,,,,,0.495391253,-0.300402002,1,0,0,,,,,,,TRIPOD,HB,m,y,./images/TRIPODHB.png,,,,,,,,,,,,,,,,,,,,,0,0.495391253,-0.300402002,1,0,0,1.0545,button_right_test,0,54,54,54,1
,,,,,,,,,,,,,,,,,5d9e9204340c7700150ab74c,51,2022-02-12_12h16.46.601,lexical_decision_task_DD_L2,2021.2.3,Linux armv8l,120.3224642,,,,,,,,,,1.5378,1,,,,,,,,,,,,,,,,,,,,,,,-0.482525724,-0.312592145,1,0,0,,,,,,,LAGOON,C,z,y,./images/LAGOON.png,,,,,,,,,,,,,,,,,,,,,0,-0.482525724,-0.312592145,1,0,0,1.5378,button_left_test,0,55,55,131,1
,,,,,,,,,,,,,,,,,5d9e9204340c7700150ab74c,51,2022-02-12_12h16.46.601,lexical_decision_task_DD_L2,2021.2.3,Linux armv8l,120.3224642,,,,,,,,,,1.6876,0,,,,,,,,,,,,,,,,,,,,,,,-0.48685996,-0.316980529,1,0,0,,,,,,,PASTA,C,m,y,./images/PASTA.png,,,,,,,,,,,,,,,,,,,,,0,-0.48685996,-0.316980529,1,0,0,1.6876,button_left_test,0,56,56,5,1
,,,,,,,,,,,,,,,,,5d9e9204340c7700150ab74c,51,2022-02-12_12h16.46.601,lexical_decision_task_DD_L2,2021.2.3,Linux armv8l,120.3224642,,,,,,,,,,1.178,1,,,,,,,,,,,,,,,,,,,,,,,-0.47819145,-0.312592145,1,0,0,,,,,,,RULER,LB,z,y,./images/RULERLB.png,,,,,,,,,,,,,,,,,,,,,0,-0.47819145,-0.312592145,1,0,0,1.178,button_left_test,0,57,57,163,1
,,,,,,,,,,,,,,,,,5d9e9204340c7700150ab74c,51,2022-02-12_12h16.46.601,lexical_decision_task_DD_L2,2021.2.3,Linux armv8l,120.3224642,,,,,,,,,,2.3335,1,,,,,,,,,,,,,,,,,,,,,,,-0.448935203,-0.300889617,1,0,0,,,,,,,ARTIST,LB,z,y,./images/ARTISTLB.png,,,,,,,,,,,,,,,,,,,,,0,-0.448935203,-0.300889617,1,0,0,2.3335,button_left_test,0,58,58,145,1
,,,,,,,,,,,,,,,,,5d9e9204340c7700150ab74c,51,2022-02-12_12h16.46.601,lexical_decision_task_DD_L2,2021.2.3,Linux armv8l,120.3224642,,,,,,,,,,1.7453,1,,,,,,,,,,,,,,,,,,,,,,,-0.461937988,-0.321612756,1,0,0,,,,,,,DIVER,HB,z,y,./images/DIVERHB.png,,,,,,,,,,,,,,,,,,,,,0,-0.461937988,-0.321612756,1,0,0,1.7453,button_left_test,0,59,59,93,1
,,,,,,,,,,,,,,,,,5d9e9204340c7700150ab74c,51,2022-02-12_12h16.46.601,lexical_decision_task_DD_L2,2021.2.3,Linux armv8l,120.3224642,,,,,,,,,,1.2459,0,,,,,,,,,,,,,,,,,,,,,,,-0.475482533,-0.320393757,1,0,0,,,,,,,PICKLE,C,m,y,./images/PICKLE.png,,,,,,,,,,,,,,,,,,,,,0,-0.475482533,-0.320393757,1,0,0,1.2459,button_left_test,0,60,60,14,1
,,,,,,,,,,,,,,,,,5d9e9204340c7700150ab74c,51,2022-02-12_12h16.46.601,lexical_decision_task_DD_L2,2021.2.3,Linux armv8l,120.3224642,,,,,,,,,,1.8322,0,,,,,,,,,,,,,,,,,,,,,,,0.487806302,-0.303083846,1,0,0,,,,,,,MIDGET,LB,z,y,./images/MIDGETLB.png,,,,,,,,,,,,,,,,,,,,,0,0.487806302,-0.303083846,1,0,0,1.8322,button_right_test,0,61,61,160,1
,,,,,,,,,,,,,,,,,5d9e9204340c7700150ab74c,51,2022-02-12_12h16.46.601,lexical_decision_task_DD_L2,2021.2.3,Linux armv8l,120.3224642,,,,,,,,,,1.1907,1,,,,,,,,,,,,,,,,,,,,,,,-0.497153828,-0.324050903,1,0,0,,,,,,,BRIDE,LB,z,y,./images/BRIDELB.png,,,,,,,,,,,,,,,,,,,,,0,-0.497153828,-0.324050903,1,0,0,1.1907,button_left_test,0,62,62,148,1
,,,,,,,,,,,,,,,,,5d9e9204340c7700150ab74c,51,2022-02-12_12h16.46.601,lexical_decision_task_DD_L2,2021.2.3,Linux armv8l,120.3224642,,,,,,,,,,1.6377,1,,,,,,,,,,,,,,,,,,,,,,,0.484555587,-0.29333185,1,0,0,,,,,,,JELLY,LB,m,y,./images/JELLYLB.png,,,,,,,,,,,,,,,,,,,,,0,0.484555587,-0.29333185,1,0,0,1.6377,button_right_test,0,63,63,64,1
,,,,,,,,,,,,,,,,,5d9e9204340c7700150ab74c,51,2022-02-12_12h16.46.601,lexical_decision_task_DD_L2,2021.2.3,Linux armv8l,120.3224642,,,,,,,,,,1.387,1,,,,,,,,,,,,,,,,,,,,,,,-0.499862745,-0.321612756,1,0,0,,,,,,,LLAMA,C,z,y,./images/LLAMA.png,,,,,,,,,,,,,,,,,,,,,0,-0.499862745,-0.321612756,1,0,0,1.387,button_left_test,0,64,64,119,1
,,,,,,,,,,,,,,,,,5d9e9204340c7700150ab74c,51,2022-02-12_12h16.46.601,lexical_decision_task_DD_L2,2021.2.3,Linux armv8l,120.3224642,,,,,,,,,,1.8259,0,,,,,,,,,,,,,,,,,,,,,,,-0.49498671,-0.3230756,1,0,0,,,,,,,PIMPLE,C,m,y,./images/PIMPLE.png,,,,,,,,,,,,,,,,,,,,,0,-0.49498671,-0.3230756,1,0,0,1.8259,button_left_test,0,65,65,71,1
,,,,,,,,,,,,,,,,,5d9e9204340c7700150ab74c,51,2022-02-12_12h16.46.601,lexical_decision_task_DD_L2,2021.2.3,Linux armv8l,120.3224642,,,,,,,,,,2.8697,0,,,,,,,,,,,,,,,,,,,,,,,-0.499862745,-0.328926827,1,0,0,,,,,,,SNACK,LB,m,y,./images/SNACKLB.png,,,,,,,,,,,,,,,,,,,,,0,-0.499862745,-0.328926827,1,0,0,2.8697,button_left_test,0,66,66,73,1
,,,,,,,,,,,,,,,,,5d9e9204340c7700150ab74c,51,2022-02-12_12h16.46.601,lexical_decision_task_DD_L2,2021.2.3,Linux armv8l,120.3224642,,,,,,,,,,1.244,1,,,,,,,,,,,,,,,,,,,,,,,-0.516658005,-0.317224447,1,0,0,,,,,,,BISHOP,LB,z,y,./images/BISHOPLB.png,,,,,,,,,,,,,,,,,,,,,0,-0.516658005,-0.317224447,1,0,0,1.244,button_left_test,0,67,67,133,1
,,,,,,,,,,,,,,,,,5d9e9204340c7700150ab74c,51,2022-02-12_12h16.46.601,lexical_decision_task_DD_L2,2021.2.3,Linux armv8l,120.3224642,,,,,,,,,,1.9119,1,,,,,,,,,,,,,,,,,,,,,,,0.469927445,-0.296988774,1,0,0,,,,,,,PAINT,LB,m,y,./images/PAINTLB.png,,,,,,,,,,,,,,,,,,,,,0,0.469927445,-0.296988774,1,0,0,1.9119,button_right_test,0,68,68,7,1
,,,,,,,,,,,,,,,,,5d9e9204340c7700150ab74c,51,2022-02-12_12h16.46.601,lexical_decision_task_DD_L2,2021.2.3,Linux armv8l,120.3224642,,,,,,,,,,1.9059,0,,,,,,,,,,,,,,,,,,,,,,,-0.509614815,-0.317224447,1,0,0,,,,,,,CRUST,LB,m,y,./images/CRUSTLB.png,,,,,,,,,,,,,,,,,,,,,0,-0.509614815,-0.317224447,1,0,0,1.9059,button_left_test,0,69,69,79,1
,,,,,,,,,,,,,,,,,5d9e9204340c7700150ab74c,51,2022-02-12_12h16.46.601,lexical_decision_task_DD_L2,2021.2.3,Linux armv8l,120.3224642,,,,,,,,,,2.0307,1,,,,,,,,,,,,,,,,,,,,,,,-0.507989458,-0.321368986,1,0,0,,,,,,,BASKET,C,z,y,./images/BASKET.png,,,,,,,,,,,,,,,,,,,,,0,-0.507989458,-0.321368986,1,0,0,2.0307,button_left_test,0,70,70,128,1
,,,,,,,,,,,,,,,,,5d9e9204340c7700150ab74c,51,2022-02-12_12h16.46.601,lexical_decision_task_DD_L2,2021.2.3,Linux armv8l,120.3224642,,,,,,,,,,4.1375,0,,,,,,,,,,,,,,,,,,,,,,,-0.526951836,-0.330633441,1,0,0,,,,,,,SQUARE,HB,m,y,./images/SQUAREHB.png,,,,,,,,,,,,,,,,,,,,,0,-0.526951836,-0.330633441,1,0,0,4.1375,button_left_test,0,71,71,6,1
,,,,,,,,,,,,,,,,,5d9e9204340c7700150ab74c,51,2022-02-12_12h16.46.601,lexical_decision_task_DD_L2,2021.2.3,Linux armv8l,120.3224642,,,,,,,,,,1.4943,1,,,,,,,,,,,,,,,,,,,,,,,-0.531827908,-0.324050903,1,0,0,,,,,,,PLANET,C,z,y,./images/PLANET.png,,,,,,,,,,,,,,,,,,,,,0,-0.531827908,-0.324050903,1,0,0,1.4943,button_left_test,0,72,72,164,1
,,,,,,,,,,,,,,,,,5d9e9204340c7700150ab74c,51,2022-02-12_12h16.46.601,lexical_decision_task_DD_L2,2021.2.3,Linux armv8l,120.3224642,,,,,,,,,,1.0102,1,,,,,,,,,,,,,,,,,,,,,,,-0.526410075,-0.324050903,1,0,0,,,,,,,SAUCE,HB,z,y,./images/SAUCEHB.png,,,,,,,,,,,,,,,,,,,,,0,-0.526410075,-0.324050903,1,0,0,1.0102,button_left_test,0,73,73,135,1
,,,,,,,,,,,,,,,,,5d9e9204340c7700150ab74c,51,2022-02-12_12h16.46.601,lexical_decision_task_DD_L2,2021.2.3,Linux armv8l,120.3224642,,,,,,,,,,1.038,1,,,,,,,,,,,,,,,,,,,,,,,-0.526951836,-0.330633441,1,0,0,,,,,,,STREAM,C,z,y,./images/STREAM.png,,,,,,,,,,,,,,,,,,,,,0,-0.526951836,-0.330633441,1,0,0,1.038,button_left_test,0,74,74,125,1
,,,,,,,,,,,,,,,,,5d9e9204340c7700150ab74c,51,2022-02-12_12h16.46.601,lexical_decision_task_DD_L2,2021.2.3,Linux armv8l,120.3224642,,,,,,,,,,1.4406,1,,,,,,,,,,,,,,,,,,,,,,,-0.51449085,-0.333559055,1,0,0,,,,,,,GLOVE,LB,z,y,./images/GLOVELB.png,,,,,,,,,,,,,,,,,,,,,0,-0.51449085,-0.333559055,1,0,0,1.4406,button_left_test,0,75,75,157,1
,,,,,,,,,,,,,,,,,5d9e9204340c7700150ab74c,51,2022-02-12_12h16.46.601,lexical_decision_task_DD_L2,2021.2.3,Linux armv8l,120.3224642,,,,,,,,,,1.2984,1,,,,,,,,,,,,,,,,,,,,,,,0.423875975,-0.261637493,1,0,0,,,,,,,CANYON,LB,m,y,./images/CANYONLB.png,,,,,,,,,,,,,,,,,,,,,0,0.423875975,-0.261637493,1,0,0,1.2984,button_right_test,0,76,76,34,1
,,,,,,,,,,,,,,,,,5d9e9204340c7700150ab74c,51,2022-02-12_12h16.46.601,lexical_decision_task_DD_L2,2021.2.3,Linux armv8l,120.3224642,,,,,,,,,,2.0886,1,,,,,,,,,,,,,,,,,,,,,,,-0.524784718,-0.324782214,1,0,0,,,,,,,FENCE,C,z,y,./images/FENCE.png,,,,,,,,,,,,,,,,,,,,,0,-0.524784718,-0.324782214,1,0,0,2.0886,button_left_test,0,77,77,98,1
,,,,,,,,,,,,,,,,,5d9e9204340c7700150ab74c,51,2022-02-12_12h16.46.601,lexical_decision_task_DD_L2,2021.2.3,Linux armv8l,120.3224642,,,,,,,,,,4.0705,1,,,,,,,,,,,,,,,,,,,,,,,0.441754832,-0.263100337,1,0,0,,,,,,,CEMENT,C,m,y,./images/CEMENT.png,,,,,,,,,,,,,,,,,,,,,0,0.441754832,-0.263100337,1,0,0,4.0705,button_right_test,0,78,78,74,1
,,,,,,,,,,,,,,,,,5d9e9204340c7700150ab74c,51,2022-02-12_12h16.46.601,lexical_decision_task_DD_L2,2021.2.3,Linux armv8l,120.3224642,,,,,,,,,,4.3539,0,,,,,,,,,,,,,,,,,,,,,,,-0.503655221,-0.324050903,1,0,0,,,,,,,MOSQUE,LB,m,y,./images/MOSQUELB.png,,,,,,,,,,,,,,,,,,,,,0,-0.503655221,-0.324050903,1,0,0,4.3539,button_left_test,0,79,79,43,1
,,,,,,,,,,,,,,,,,5d9e9204340c7700150ab74c,51,2022-02-12_12h16.46.601,lexical_decision_task_DD_L2,2021.2.3,Linux armv8l,120.3224642,,,,,,,,,,2.0739,1,,,,,,,,,,,,,,,,,,,,,,,0.443380115,-0.283335862,1,0,0,,,,,,,PEARL,LB,m,y,./images/PEARLLB.png,,,,,,,,,,,,,,,,,,,,,0,0.443380115,-0.283335862,1,0,0,2.0739,button_right_test,0,80,80,46,1
,,,,,,,,,,,,,,,,,5d9e9204340c7700150ab74c,51,2022-02-12_12h16.46.601,lexical_decision_task_DD_L2,2021.2.3,Linux armv8l,120.3224642,,,,,,,,,,5.8864,0,,,,,,,,,,,,,,,,,,,,,,,-0.511240172,-0.327220213,1,0,0,,,,,,,JUNGLE,C,m,y,./images/JUNGLE.png,,,,,,,,,,,,,,,,,,,,,0,-0.511240172,-0.327220213,1,0,0,5.8864,button_left_test,0,81,81,83,1
,,,,,,,,,,,,,,,,,5d9e9204340c7700150ab74c,51,2022-02-12_12h16.46.601,lexical_decision_task_DD_L2,2021.2.3,Linux armv8l,120.3224642,,,,,,,,,,1.0536,0,,,,,,,,,,,,,,,,,,,,,,,-0.507989458,-0.341117044,1,0,0,,,,,,,WRIST,LB,m,y,./images/WRISTLB.png,,,,,,,,,,,,,,,,,,,,,0,-0.507989458,-0.341117044,1,0,0,1.0536,button_left_test,0,82,82,25,1
,,,,,,,,,,,,,,,,,5d9e9204340c7700150ab74c,51,2022-02-12_12h16.46.601,lexical_decision_task_DD_L2,2021.2.3,Linux armv8l,120.3224642,,,,,,,,,,1.1533,1,,,,,,,,,,,,,,,,,,,,,,,0.112892966,-0.356232652,1,0,0,,,,,,,CRATER,HB,z,y,./images/CRATERHB.png,break_done_button,,,,,,,,,,,,,,,,,,,,0,-0.511781933,-0.338922741,1,0,0,1.1533,button_left_test,0,83,83,87,1
,,,,,,,,,,,,,,,,,5d9e9204340c7700150ab74c,51,2022-02-12_12h16.46.601,lexical_decision_task_DD_L2,2021.2.3,Linux armv8l,120.3224642,,,,,,,,,,2.8856,1,,,,,,,,,,,,,,,,,,,,,,,-0.454894797,-0.252860653,1,0,0,,,,,,,SPINE,C,z,y,./images/SPINE.png,,,,,,,,,,,,,,,,,,,,,0,-0.454894797,-0.252860653,1,0,0,2.8856,button_left_test,0,84,84,149,1
,,,,,,,,,,,,,,,,,5d9e9204340c7700150ab74c,51,2022-02-12_12h16.46.601,lexical_decision_task_DD_L2,2021.2.3,Linux armv8l,120.3224642,,,,,,,,,,1.338,1,,,,,,,,,,,,,,,,,,,,,,,-0.484692842,-0.281141633,1,0,0,,,,,,,CLOWN,LB,z,y,./images/CLOWNLB.png,,,,,,,,,,,,,,,,,,,,,0,-0.484692842,-0.281141633,1,0,0,1.338,button_left_test,0,85,85,106,1
,,,,,,,,,,,,,,,,,5d9e9204340c7700150ab74c,51,2022-02-12_12h16.46.601,lexical_decision_task_DD_L2,2021.2.3,Linux armv8l,120.3224642,,,,,,,,,,1.4688,1,,,,,,,,,,,,,,,,,,,,,,,-0.471690058,-0.280654018,1,0,0,,,,,,,TIGER,LB,z,y,./images/TIGERLB.png,,,,,,,,,,,,,,,,,,,,,0,-0.471690058,-0.280654018,1,0,0,1.4688,button_left_test,0,86,86,121,1
,,,,,,,,,,,,,,,,,5d9e9204340c7700150ab74c,51,2022-02-12_12h16.46.601,lexical_decision_task_DD_L2,2021.2.3,Linux armv8l,120.3224642,,,,,,,,,,1.2464,1,,,,,,,,,,,,,,,,,,,,,,,-0.46139619,-0.281629248,1,0,0,,,,,,,PISTOL,C,z,y,./images/PISTOL.png,,,,,,,,,,,,,,,,,,,,,0,-0.46139619,-0.281629248,1,0,0,1.2464,button_left_test,0,87,87,113,1
,,,,,,,,,,,,,,,,,5d9e9204340c7700150ab74c,51,2022-02-12_12h16.46.601,lexical_decision_task_DD_L2,2021.2.3,Linux armv8l,120.3224642,,,,,,,,,,1.7557,1,,,,,,,,,,,,,,,,,,,,,,,-0.459229071,-0.296745078,1,0,0,,,,,,,CHAIN,HB,z,y,./images/CHAINHB.png,,,,,,,,,,,,,,,,,,,,,0,-0.459229071,-0.296745078,1,0,0,1.7557,button_left_test,0,88,88,126,1
