key_resp.keys,instr_done_touch.x,instr_done_touch.y,instr_done_touch.leftButton,instr_done_touch.midButton,instr_done_touch.rightButton,instr_done_touch.clicked_name,instruction_pages.thisRepN,instruction_pages.thisTrialN,instruction_pages.thisN,instruction_pages.thisIndex,instruction_pages.ran,pageN,phase,instruct_text,has_image,instruct_image,participant,age,date,expName,psychopyVersion,OS,frameRate,response.keys,response.corr,response.rt,touch_resp.x,touch_resp.y,touch_resp.leftButton,touch_resp.midButton,touch_resp.rightButton,touch_resp.time,touch_resp.clicked_name,rt,corr,practrials.thisRepN,practrials.thisTrialN,practrials.thisN,practrials.thisIndex,practrials.ran,TrialID,Target,corrAns,end_of_practice_trials_pages.thisRepN,end_of_practice_trials_pages.thisTrialN,end_of_practice_trials_pages.thisN,end_of_practice_trials_pages.thisIndex,end_of_practice_trials_pages.ran,key_resp_2.keys,key_resp_2.corr,key_resp_2.rt,targ_click.x,targ_click.y,targ_click.leftButton,targ_click.midButton,targ_click.rightButton,targ_click.time,targ_click.clicked_name,break_done_touch.x,break_done_touch.y,break_done_touch.leftButton,break_done_touch.midButton,break_done_touch.rightButton,break_done_keyboard.keys,maintrials.thisRepN,maintrials.thisTrialN,maintrials.thisN,maintrials.thisIndex,maintrials.ran,string,blur,study,lex,stim_path,break_done_touch.clicked_name,mouse_2.x,mouse_2.y,mouse_2.leftButton,mouse_2.midButton,mouse_2.rightButton,mouse_2.clicked_name,slider.response,slider.rt,trials.thisRepN,trials.thisTrialN,trials.thisN,trials.thisIndex,trials.ran,test_instructions.thisRepN,test_instructions.thisTrialN,test_instructions.thisN,test_instructions.thisIndex,test_instructions.ran,key_resp.rt,key_resp_3.keys,key_resp_3.corr,key_resp_3.rt,test_click.x,test_click.y,test_click.leftButton,test_click.midButton,test_click.rightButton,test_click.time,test_click.clicked_name,test_phase.thisRepN,test_phase.thisTrialN,test_phase.thisN,test_phase.thisIndex,test_phase.ran,break_done_keyboard.rt
,0.051111111,-0.388888889,1,0,0,instr_done_button,0,0,0,0,1,1,instructions,"INSTRUCTIONS
At the start of each trial, look at the plus sign  (+) in the center of the screen.  This tells you that a trial is about to begin and where to look. Second, the plus sign will disappear and a string of letters will appear. Your task is to determine if the string of letters is a word or not. If the item is a word press the M key (on keyboard)  or touch the word button (phone/tablet).  If the item is not a word,  press the  Z key (on keyboard)  or touch the nonword button (on phone/tablet). 
Press the space bar or touch  continue.",0,,5da4d35c84ea7900178a366c,33,2022-02-12_12h46.19.295,lexical_decision_task_DD_L5,2021.2.3,Win32,59.79788315,,,,,,,,,,,,,,,,,,,,,,,,,,,,,,,,,,,,,,,,,,,,,,,,,,,,,,,,,,,,,,,,,,,,,,,,,,,,,,,,,,,,,,,
,0.037777778,-0.375555556,1,0,0,instr_done_button,0,1,1,1,1,2,instructions,"If your device has a keyboard, press the 'Z' key for nonwords and the 'M' key for words.





Press the space bar or touch the button below to continue.",0,keyboard-example.gif,5da4d35c84ea7900178a366c,33,2022-02-12_12h46.19.295,lexical_decision_task_DD_L5,2021.2.3,Win32,59.79788315,,,,,,,,,,,,,,,,,,,,,,,,,,,,,,,,,,,,,,,,,,,,,,,,,,,,,,,,,,,,,,,,,,,,,,,,,,,,,,,,,,,,,,,
,0.037777778,-0.375555556,1,0,0,instr_done_button,0,2,2,2,1,3,instructions,"If you are using a touchscreen only device, use the buttons on the screen. Do not use the mouse.





Press the space bar or touch the button below to continue.",0,touchscreen-example.gif,5da4d35c84ea7900178a366c,33,2022-02-12_12h46.19.295,lexical_decision_task_DD_L5,2021.2.3,Win32,59.79788315,,,,,,,,,,,,,,,,,,,,,,,,,,,,,,,,,,,,,,,,,,,,,,,,,,,,,,,,,,,,,,,,,,,,,,,,,,,,,,,,,,,,,,,
,0.131111111,-0.36,1,0,0,instr_done_button,0,3,3,3,1,4,instructions,"It is very important that you respond as quickly and accurately as possible, as each letter string will only be on the screen for two seconds. If you do not respond within this time, the message 'Too slow!' will be displayed and the experiment will progress to the next letter string. The first 20 trials will be practice trials and you will receive feedback on your answers. 

Press the space bar or touch the button below to start the practice trials.",0,,5da4d35c84ea7900178a366c,33,2022-02-12_12h46.19.295,lexical_decision_task_DD_L5,2021.2.3,Win32,59.79788315,,,,,,,,,,,,,,,,,,,,,,,,,,,,,,,,,,,,,,,,,,,,,,,,,,,,,,,,,,,,,,,,,,,,,,,,,,,,,,,,,,,,,,,
,,,,,,,,,,,,,,,,,5da4d35c84ea7900178a366c,33,2022-02-12_12h46.19.295,lexical_decision_task_DD_L5,2021.2.3,Win32,59.79788315,z,1,1.648,,,,,,,,1.648,1,0,0,0,12,1,1001,SPRINY,z,,,,,,,,,,,,,,,,,,,,,,,,,,,,,,,,,,,,,,,,,,,,,,,,,,,,,,,,,,,,,,,,,,,
,,,,,,,,,,,,,,,,,5da4d35c84ea7900178a366c,33,2022-02-12_12h46.19.295,lexical_decision_task_DD_L5,2021.2.3,Win32,59.79788315,m,1,0.7008,,,,,,,,0.7008,1,0,1,1,5,1,1001,OBTAIN,m,,,,,,,,,,,,,,,,,,,,,,,,,,,,,,,,,,,,,,,,,,,,,,,,,,,,,,,,,,,,,,,,,,,
,,,,,,,,,,,,,,,,,5da4d35c84ea7900178a366c,33,2022-02-12_12h46.19.295,lexical_decision_task_DD_L5,2021.2.3,Win32,59.79788315,z,1,0.7101,,,,,,,,0.7101,1,0,2,2,14,1,1001,THRALE,z,,,,,,,,,,,,,,,,,,,,,,,,,,,,,,,,,,,,,,,,,,,,,,,,,,,,,,,,,,,,,,,,,,,
,,,,,,,,,,,,,,,,,5da4d35c84ea7900178a366c,33,2022-02-12_12h46.19.295,lexical_decision_task_DD_L5,2021.2.3,Win32,59.79788315,m,1,0.7058,,,,,,,,0.7058,1,0,3,3,0,1,1001,UTOPIA,m,,,,,,,,,,,,,,,,,,,,,,,,,,,,,,,,,,,,,,,,,,,,,,,,,,,,,,,,,,,,,,,,,,,
,,,,,,,,,,,,,,,,,5da4d35c84ea7900178a366c,33,2022-02-12_12h46.19.295,lexical_decision_task_DD_L5,2021.2.3,Win32,59.79788315,m,1,0.6315,,,,,,,,0.6315,1,0,4,4,7,1,1001,VOLUME,m,,,,,,,,,,,,,,,,,,,,,,,,,,,,,,,,,,,,,,,,,,,,,,,,,,,,,,,,,,,,,,,,,,,
,,,,,,,,,,,,,,,,,5da4d35c84ea7900178a366c,33,2022-02-12_12h46.19.295,lexical_decision_task_DD_L5,2021.2.3,Win32,59.79788315,z,1,0.805,,,,,,,,0.805,1,0,5,5,10,1,1001,INLADE,z,,,,,,,,,,,,,,,,,,,,,,,,,,,,,,,,,,,,,,,,,,,,,,,,,,,,,,,,,,,,,,,,,,,
,,,,,,,,,,,,,,,,,5da4d35c84ea7900178a366c,33,2022-02-12_12h46.19.295,lexical_decision_task_DD_L5,2021.2.3,Win32,59.79788315,z,1,0.8374,,,,,,,,0.8374,1,0,6,6,8,1,1001,ASLERT,z,,,,,,,,,,,,,,,,,,,,,,,,,,,,,,,,,,,,,,,,,,,,,,,,,,,,,,,,,,,,,,,,,,,
,,,,,,,,,,,,,,,,,5da4d35c84ea7900178a366c,33,2022-02-12_12h46.19.295,lexical_decision_task_DD_L5,2021.2.3,Win32,59.79788315,z,1,0.6779,,,,,,,,0.6779,1,0,7,7,9,1,1001,FARINY,z,,,,,,,,,,,,,,,,,,,,,,,,,,,,,,,,,,,,,,,,,,,,,,,,,,,,,,,,,,,,,,,,,,,
,,,,,,,,,,,,,,,,,5da4d35c84ea7900178a366c,33,2022-02-12_12h46.19.295,lexical_decision_task_DD_L5,2021.2.3,Win32,59.79788315,m,1,0.5293,,,,,,,,0.5293,1,0,8,8,3,1,1001,MATRIX,m,,,,,,,,,,,,,,,,,,,,,,,,,,,,,,,,,,,,,,,,,,,,,,,,,,,,,,,,,,,,,,,,,,,
,,,,,,,,,,,,,,,,,5da4d35c84ea7900178a366c,33,2022-02-12_12h46.19.295,lexical_decision_task_DD_L5,2021.2.3,Win32,59.79788315,m,1,0.555,,,,,,,,0.555,1,0,9,9,4,1,1001,SQUEAK,m,,,,,,,,,,,,,,,,,,,,,,,,,,,,,,,,,,,,,,,,,,,,,,,,,,,,,,,,,,,,,,,,,,,
,,,,,,,,,,,,,,,,,5da4d35c84ea7900178a366c,33,2022-02-12_12h46.19.295,lexical_decision_task_DD_L5,2021.2.3,Win32,59.79788315,m,1,0.6117,,,,,,,,0.6117,1,0,10,10,1,1,1001,ADJUST,m,,,,,,,,,,,,,,,,,,,,,,,,,,,,,,,,,,,,,,,,,,,,,,,,,,,,,,,,,,,,,,,,,,,
,,,,,,,,,,,,,,,,,5da4d35c84ea7900178a366c,33,2022-02-12_12h46.19.295,lexical_decision_task_DD_L5,2021.2.3,Win32,59.79788315,z,0,0.8947,,,,,,,,0.8947,0,0,11,11,2,1,1001,ALMOND,m,,,,,,,,,,,,,,,,,,,,,,,,,,,,,,,,,,,,,,,,,,,,,,,,,,,,,,,,,,,,,,,,,,,
,,,,,,,,,,,,,,,,,5da4d35c84ea7900178a366c,33,2022-02-12_12h46.19.295,lexical_decision_task_DD_L5,2021.2.3,Win32,59.79788315,z,1,0.7777,,,,,,,,0.7777,1,0,12,12,15,1,1001,WHAISE,z,,,,,,,,,,,,,,,,,,,,,,,,,,,,,,,,,,,,,,,,,,,,,,,,,,,,,,,,,,,,,,,,,,,
,,,,,,,,,,,,,,,,,5da4d35c84ea7900178a366c,33,2022-02-12_12h46.19.295,lexical_decision_task_DD_L5,2021.2.3,Win32,59.79788315,z,1,0.7772,,,,,,,,0.7772,1,0,13,13,11,1,1001,RASHET,z,,,,,,,,,,,,,,,,,,,,,,,,,,,,,,,,,,,,,,,,,,,,,,,,,,,,,,,,,,,,,,,,,,,
,,,,,,,,,,,,,,,,,5da4d35c84ea7900178a366c,33,2022-02-12_12h46.19.295,lexical_decision_task_DD_L5,2021.2.3,Win32,59.79788315,m,0,0.8007,,,,,,,,0.8007,0,0,14,14,13,1,1001,ROUPET,z,,,,,,,,,,,,,,,,,,,,,,,,,,,,,,,,,,,,,,,,,,,,,,,,,,,,,,,,,,,,,,,,,,,
,,,,,,,,,,,,,,,,,5da4d35c84ea7900178a366c,33,2022-02-12_12h46.19.295,lexical_decision_task_DD_L5,2021.2.3,Win32,59.79788315,m,1,0.6908,,,,,,,,0.6908,1,0,15,15,6,1,1001,ZOMBIE,m,,,,,,,,,,,,,,,,,,,,,,,,,,,,,,,,,,,,,,,,,,,,,,,,,,,,,,,,,,,,,,,,,,,
,0.06,-0.407777778,1,0,0,instr_done_button,,,,,,1,end_of_practice,"You have completed the practice trials. During the experimental trials, you will not receive feedback. 
Before you begin, please ensure that you are in a comfortable and quiet location and will not be disturbed for about 15 minutes, as we cannot use your data if you do not complete all the trials. 
 When you are ready to start the experimental trials, please press space or touch the button below.",,,5da4d35c84ea7900178a366c,33,2022-02-12_12h46.19.295,lexical_decision_task_DD_L5,2021.2.3,Win32,59.79788315,,,,,,,,,,,,,,,,,,,,,0,0,0,0,1,,,,,,,,,,,,,,,,,,,,,,,,,,,,,,,,,,,,,,,,,,,,,,,,,,,,,,,,,,,,,,
,,,,,,,,,,,,,,,,,5da4d35c84ea7900178a366c,33,2022-02-12_12h46.19.295,lexical_decision_task_DD_L5,2021.2.3,Win32,59.79788315,,,,,,,,,,,1.3922,1,,,,,,,,,,,,,,m,1,1.3922,,,,,,,,0.433333333,-0.046666667,0,0,0,,0,0,0,9,1,DIVER,HB,old,m,./images/DIVERHB.png,,,,,,,,,,,,,,,,,,,,,,,,,,,,,,,,,,,,
,,,,,,,,,,,,,,,,,5da4d35c84ea7900178a366c,33,2022-02-12_12h46.19.295,lexical_decision_task_DD_L5,2021.2.3,Win32,59.79788315,,,,,,,,,,,0.7307,1,,,,,,,,,,,,,,m,1,0.7307,,,,,,,,0.433333333,-0.046666667,0,0,0,,0,1,1,60,1,CURRY,HB,old,m,./images/CURRYHB.png,,,,,,,,,,,,,,,,,,,,,,,,,,,,,,,,,,,,
,,,,,,,,,,,,,,,,,5da4d35c84ea7900178a366c,33,2022-02-12_12h46.19.295,lexical_decision_task_DD_L5,2021.2.3,Win32,59.79788315,,,,,,,,,,,0.8648,1,,,,,,,,,,,,,,z,1,0.8648,,,,,,,,0.433333333,-0.046666667,0,0,0,,0,2,2,123,1,SEDGE,C,old,z,./images/SEDGE.png,,,,,,,,,,,,,,,,,,,,,,,,,,,,,,,,,,,,
,,,,,,,,,,,,,,,,,5da4d35c84ea7900178a366c,33,2022-02-12_12h46.19.295,lexical_decision_task_DD_L5,2021.2.3,Win32,59.79788315,,,,,,,,,,,0.704,1,,,,,,,,,,,,,,m,1,0.704,,,,,,,,0.433333333,-0.046666667,0,0,0,,0,3,3,69,1,ARROW,HB,old,m,./images/ARROWHB.png,,,,,,,,,,,,,,,,,,,,,,,,,,,,,,,,,,,,
,,,,,,,,,,,,,,,,,5da4d35c84ea7900178a366c,33,2022-02-12_12h46.19.295,lexical_decision_task_DD_L5,2021.2.3,Win32,59.79788315,,,,,,,,,,,0.7568,1,,,,,,,,,,,,,,m,1,0.7568,,,,,,,,0.433333333,-0.046666667,0,0,0,,0,4,4,21,1,DANCER,HB,old,m,./images/DANCERHB.png,,,,,,,,,,,,,,,,,,,,,,,,,,,,,,,,,,,,
,,,,,,,,,,,,,,,,,5da4d35c84ea7900178a366c,33,2022-02-12_12h46.19.295,lexical_decision_task_DD_L5,2021.2.3,Win32,59.79788315,,,,,,,,,,,0.7378,1,,,,,,,,,,,,,,m,1,0.7378,,,,,,,,0.433333333,-0.046666667,0,0,0,,0,5,5,45,1,MONKEY,HB,old,m,./images/MONKEYHB.png,,,,,,,,,,,,,,,,,,,,,,,,,,,,,,,,,,,,
,,,,,,,,,,,,,,,,,5da4d35c84ea7900178a366c,33,2022-02-12_12h46.19.295,lexical_decision_task_DD_L5,2021.2.3,Win32,59.79788315,,,,,,,,,,,0.6335,1,,,,,,,,,,,,,,m,1,0.6335,,,,,,,,0.433333333,-0.046666667,0,0,0,,0,6,6,81,1,DRILL,HB,old,m,./images/DRILLHB.png,,,,,,,,,,,,,,,,,,,,,,,,,,,,,,,,,,,,
,,,,,,,,,,,,,,,,,5da4d35c84ea7900178a366c,33,2022-02-12_12h46.19.295,lexical_decision_task_DD_L5,2021.2.3,Win32,59.79788315,,,,,,,,,,,0.9256,1,,,,,,,,,,,,,,z,1,0.9256,,,,,,,,0.433333333,-0.046666667,0,0,0,,0,7,7,94,1,BLANS,HB,old,z,./images/BLANSHB.png,,,,,,,,,,,,,,,,,,,,,,,,,,,,,,,,,,,,
,,,,,,,,,,,,,,,,,5da4d35c84ea7900178a366c,33,2022-02-12_12h46.19.295,lexical_decision_task_DD_L5,2021.2.3,Win32,59.79788315,,,,,,,,,,,0.7672,1,,,,,,,,,,,,,,z,1,0.7672,,,,,,,,0.433333333,-0.046666667,0,0,0,,0,8,8,93,1,SMONE,C,old,z,./images/SMONE.png,,,,,,,,,,,,,,,,,,,,,,,,,,,,,,,,,,,,
,,,,,,,,,,,,,,,,,5da4d35c84ea7900178a366c,33,2022-02-12_12h46.19.295,lexical_decision_task_DD_L5,2021.2.3,Win32,59.79788315,,,,,,,,,,,0.5669,1,,,,,,,,,,,,,,m,1,0.5669,,,,,,,,0.433333333,-0.046666667,0,0,0,,0,9,9,23,1,CLOTH,C,old,m,./images/CLOTH.png,,,,,,,,,,,,,,,,,,,,,,,,,,,,,,,,,,,,
,,,,,,,,,,,,,,,,,5da4d35c84ea7900178a366c,33,2022-02-12_12h46.19.295,lexical_decision_task_DD_L5,2021.2.3,Win32,59.79788315,,,,,,,,,,,0.6572,1,,,,,,,,,,,,,,m,1,0.6572,,,,,,,,0.433333333,-0.046666667,0,0,0,,0,10,10,62,1,MAMMAL,C,old,m,./images/MAMMAL.png,,,,,,,,,,,,,,,,,,,,,,,,,,,,,,,,,,,,
,,,,,,,,,,,,,,,,,5da4d35c84ea7900178a366c,33,2022-02-12_12h46.19.295,lexical_decision_task_DD_L5,2021.2.3,Win32,59.79788315,,,,,,,,,,,0.613,0,,,,,,,,,,,,,,m,0,0.613,,,,,,,,0.433333333,-0.046666667,0,0,0,,0,11,11,106,1,CLUMS,HB,old,z,./images/CLUMSHB.png,,,,,,,,,,,,,,,,,,,,,,,,,,,,,,,,,,,,
,,,,,,,,,,,,,,,,,5da4d35c84ea7900178a366c,33,2022-02-12_12h46.19.295,lexical_decision_task_DD_L5,2021.2.3,Win32,59.79788315,,,,,,,,,,,0.5418,1,,,,,,,,,,,,,,m,1,0.5418,,,,,,,,0.433333333,-0.046666667,0,0,0,,0,12,12,14,1,FENCE,C,old,m,./images/FENCE.png,,,,,,,,,,,,,,,,,,,,,,,,,,,,,,,,,,,,
,,,,,,,,,,,,,,,,,5da4d35c84ea7900178a366c,33,2022-02-12_12h46.19.295,lexical_decision_task_DD_L5,2021.2.3,Win32,59.79788315,,,,,,,,,,,0.8297,1,,,,,,,,,,,,,,z,1,0.8297,,,,,,,,0.433333333,-0.046666667,0,0,0,,0,13,13,146,1,MOOST,LB,old,z,./images/MOOSTLB.png,,,,,,,,,,,,,,,,,,,,,,,,,,,,,,,,,,,,
,,,,,,,,,,,,,,,,,5da4d35c84ea7900178a366c,33,2022-02-12_12h46.19.295,lexical_decision_task_DD_L5,2021.2.3,Win32,59.79788315,,,,,,,,,,,0.5568,1,,,,,,,,,,,,,,m,1,0.5568,,,,,,,,0.433333333,-0.046666667,0,0,0,,0,14,14,13,1,BUNNY,LB,old,m,./images/BUNNYLB.png,,,,,,,,,,,,,,,,,,,,,,,,,,,,,,,,,,,,
,,,,,,,,,,,,,,,,,5da4d35c84ea7900178a366c,33,2022-02-12_12h46.19.295,lexical_decision_task_DD_L5,2021.2.3,Win32,59.79788315,,,,,,,,,,,0.4868,1,,,,,,,,,,,,,,m,1,0.4868,,,,,,,,0.433333333,-0.046666667,0,0,0,,0,15,15,40,1,SNAKE,LB,old,m,./images/SNAKELB.png,,,,,,,,,,,,,,,,,,,,,,,,,,,,,,,,,,,,
,,,,,,,,,,,,,,,,,5da4d35c84ea7900178a366c,33,2022-02-12_12h46.19.295,lexical_decision_task_DD_L5,2021.2.3,Win32,59.79788315,,,,,,,,,,,0.4841,1,,,,,,,,,,,,,,m,1,0.4841,,,,,,,,0.433333333,-0.046666667,0,0,0,,0,16,16,77,1,WHEEL,C,old,m,./images/WHEEL.png,,,,,,,,,,,,,,,,,,,,,,,,,,,,,,,,,,,,
,,,,,,,,,,,,,,,,,5da4d35c84ea7900178a366c,33,2022-02-12_12h46.19.295,lexical_decision_task_DD_L5,2021.2.3,Win32,59.79788315,,,,,,,,,,,0.7032,1,,,,,,,,,,,,,,z,1,0.7032,,,,,,,,0.433333333,-0.046666667,0,0,0,,0,17,17,110,1,CRUNK,LB,old,z,./images/CRUNKLB.png,,,,,,,,,,,,,,,,,,,,,,,,,,,,,,,,,,,,
,,,,,,,,,,,,,,,,,5da4d35c84ea7900178a366c,33,2022-02-12_12h46.19.295,lexical_decision_task_DD_L5,2021.2.3,Win32,59.79788315,,,,,,,,,,,0.939,1,,,,,,,,,,,,,,z,1,0.939,,,,,,,,0.433333333,-0.046666667,0,0,0,,0,18,18,96,1,KEAMS,C,old,z,./images/KEAMS.png,,,,,,,,,,,,,,,,,,,,,,,,,,,,,,,,,,,,
,,,,,,,,,,,,,,,,,5da4d35c84ea7900178a366c,33,2022-02-12_12h46.19.295,lexical_decision_task_DD_L5,2021.2.3,Win32,59.79788315,,,,,,,,,,,1.003,1,,,,,,,,,,,,,,z,1,1.003,,,,,,,,0.433333333,-0.046666667,0,0,0,,0,19,19,158,1,EGECT,LB,old,z,./images/EGECTLB.png,,,,,,,,,,,,,,,,,,,,,,,,,,,,,,,,,,,,
,,,,,,,,,,,,,,,,,5da4d35c84ea7900178a366c,33,2022-02-12_12h46.19.295,lexical_decision_task_DD_L5,2021.2.3,Win32,59.79788315,,,,,,,,,,,0.8126,1,,,,,,,,,,,,,,z,1,0.8126,,,,,,,,0.433333333,-0.046666667,0,0,0,,0,20,20,105,1,MOKER,C,old,z,./images/MOKER.png,,,,,,,,,,,,,,,,,,,,,,,,,,,,,,,,,,,,
,,,,,,,,,,,,,,,,,5da4d35c84ea7900178a366c,33,2022-02-12_12h46.19.295,lexical_decision_task_DD_L5,2021.2.3,Win32,59.79788315,,,,,,,,,,,0.4969,1,,,,,,,,,,,,,,m,1,0.4969,,,,,,,,0.433333333,-0.046666667,0,0,0,,0,21,21,31,1,STEAK,LB,old,m,./images/STEAKLB.png,,,,,,,,,,,,,,,,,,,,,,,,,,,,,,,,,,,,
,,,,,,,,,,,,,,,,,5da4d35c84ea7900178a366c,33,2022-02-12_12h46.19.295,lexical_decision_task_DD_L5,2021.2.3,Win32,59.79788315,,,,,,,,,,,0.9184,1,,,,,,,,,,,,,,z,1,0.9184,,,,,,,,0.433333333,-0.046666667,0,0,0,,0,22,22,159,1,CUDDY,C,old,z,./images/CUDDY.png,,,,,,,,,,,,,,,,,,,,,,,,,,,,,,,,,,,,
,,,,,,,,,,,,,,,,,5da4d35c84ea7900178a366c,33,2022-02-12_12h46.19.295,lexical_decision_task_DD_L5,2021.2.3,Win32,59.79788315,,,,,,,,,,,0.6728,1,,,,,,,,,,,,,,m,1,0.6728,,,,,,,,0.433333333,-0.046666667,0,0,0,,0,23,23,10,1,GARDEN,LB,old,m,./images/GARDENLB.png,,,,,,,,,,,,,,,,,,,,,,,,,,,,,,,,,,,,
,,,,,,,,,,,,,,,,,5da4d35c84ea7900178a366c,33,2022-02-12_12h46.19.295,lexical_decision_task_DD_L5,2021.2.3,Win32,59.79788315,,,,,,,,,,,0.7018,1,,,,,,,,,,,,,,z,1,0.7018,,,,,,,,0.433333333,-0.046666667,0,0,0,,0,24,24,135,1,JOODY,C,old,z,./images/JOODY.png,,,,,,,,,,,,,,,,,,,,,,,,,,,,,,,,,,,,
,,,,,,,,,,,,,,,,,5da4d35c84ea7900178a366c,33,2022-02-12_12h46.19.295,lexical_decision_task_DD_L5,2021.2.3,Win32,59.79788315,,,,,,,,,,,0.7462,1,,,,,,,,,,,,,,m,1,0.7462,,,,,,,,0.433333333,-0.046666667,0,0,0,,0,25,25,48,1,SHIELD,HB,old,m,./images/SHIELDHB.png,,,,,,,,,,,,,,,,,,,,,,,,,,,,,,,,,,,,
,,,,,,,,,,,,,,,,,5da4d35c84ea7900178a366c,33,2022-02-12_12h46.19.295,lexical_decision_task_DD_L5,2021.2.3,Win32,59.79788315,,,,,,,,,,,0.7005,1,,,,,,,,,,,,,,m,1,0.7005,,,,,,,,0.433333333,-0.046666667,0,0,0,,0,26,26,19,1,DONKEY,LB,old,m,./images/DONKEYLB.png,,,,,,,,,,,,,,,,,,,,,,,,,,,,,,,,,,,,
,,,,,,,,,,,,,,,,,5da4d35c84ea7900178a366c,33,2022-02-12_12h46.19.295,lexical_decision_task_DD_L5,2021.2.3,Win32,59.79788315,,,,,,,,,,,0.7872,1,,,,,,,,,,,,,,z,1,0.7872,,,,,,,,0.433333333,-0.046666667,0,0,0,,0,27,27,155,1,CANGY,LB,old,z,./images/CANGYLB.png,,,,,,,,,,,,,,,,,,,,,,,,,,,,,,,,,,,,
,,,,,,,,,,,,,,,,,5da4d35c84ea7900178a366c,33,2022-02-12_12h46.19.295,lexical_decision_task_DD_L5,2021.2.3,Win32,59.79788315,,,,,,,,,,,0.6232,1,,,,,,,,,,,,,,m,1,0.6232,,,,,,,,0.433333333,-0.046666667,0,0,0,,0,28,28,15,1,COLLAR,HB,old,m,./images/COLLARHB.png,,,,,,,,,,,,,,,,,,,,,,,,,,,,,,,,,,,,
,,,,,,,,,,,,,,,,,5da4d35c84ea7900178a366c,33,2022-02-12_12h46.19.295,lexical_decision_task_DD_L5,2021.2.3,Win32,59.79788315,,,,,,,,,,,0.7504,1,,,,,,,,,,,,,,z,1,0.7504,,,,,,,,0.433333333,-0.046666667,0,0,0,,0,29,29,108,1,GRUET,C,old,z,./images/GRUET.png,,,,,,,,,,,,,,,,,,,,,,,,,,,,,,,,,,,,
,,,,,,,,,,,,,,,,,5da4d35c84ea7900178a366c,33,2022-02-12_12h46.19.295,lexical_decision_task_DD_L5,2021.2.3,Win32,59.79788315,,,,,,,,,,,0.912,1,,,,,,,,,,,,,,z,1,0.912,,,,,,,,0.433333333,-0.046666667,0,0,0,,0,30,30,91,1,SHENS,HB,old,z,./images/SHENSHB.png,,,,,,,,,,,,,,,,,,,,,,,,,,,,,,,,,,,,
,,,,,,,,,,,,,,,,,5da4d35c84ea7900178a366c,33,2022-02-12_12h46.19.295,lexical_decision_task_DD_L5,2021.2.3,Win32,59.79788315,,,,,,,,,,,0.8003,1,,,,,,,,,,,,,,m,1,0.8003,,,,,,,,0.433333333,-0.046666667,0,0,0,,0,31,31,58,1,CANOE,LB,old,m,./images/CANOELB.png,,,,,,,,,,,,,,,,,,,,,,,,,,,,,,,,,,,,
,,,,,,,,,,,,,,,,,5da4d35c84ea7900178a366c,33,2022-02-12_12h46.19.295,lexical_decision_task_DD_L5,2021.2.3,Win32,59.79788315,,,,,,,,,,,0.562,1,,,,,,,,,,,,,,m,1,0.562,,,,,,,,0.433333333,-0.046666667,0,0,0,,0,32,32,46,1,MUMMY,LB,old,m,./images/MUMMYLB.png,,,,,,,,,,,,,,,,,,,,,,,,,,,,,,,,,,,,
,,,,,,,,,,,,,,,,,5da4d35c84ea7900178a366c,33,2022-02-12_12h46.19.295,lexical_decision_task_DD_L5,2021.2.3,Win32,59.79788315,,,,,,,,,,,0.5802,1,,,,,,,,,,,,,,z,1,0.5802,,,,,,,,0.433333333,-0.046666667,0,0,0,,0,33,33,114,1,RIKES,C,old,z,./images/RIKES.png,,,,,,,,,,,,,,,,,,,,,,,,,,,,,,,,,,,,
,,,,,,,,,,,,,,,,,5da4d35c84ea7900178a366c,33,2022-02-12_12h46.19.295,lexical_decision_task_DD_L5,2021.2.3,Win32,59.79788315,,,,,,,,,,,0.8435,1,,,,,,,,,,,,,,z,1,0.8435,,,,,,,,0.433333333,-0.046666667,0,0,0,,0,34,34,152,1,FRAIN,LB,old,z,./images/FRAINLB.png,,,,,,,,,,,,,,,,,,,,,,,,,,,,,,,,,,,,
,,,,,,,,,,,,,,,,,5da4d35c84ea7900178a366c,33,2022-02-12_12h46.19.295,lexical_decision_task_DD_L5,2021.2.3,Win32,59.79788315,,,,,,,,,,,0.8464,0,,,,,,,,,,,,,,m,0,0.8464,,,,,,,,0.433333333,-0.046666667,0,0,0,,0,35,35,100,1,DRIBS,HB,old,z,./images/DRIBSHB.png,,,,,,,,,,,,,,,,,,,,,,,,,,,,,,,,,,,,
,,,,,,,,,,,,,,,,,5da4d35c84ea7900178a366c,33,2022-02-12_12h46.19.295,lexical_decision_task_DD_L5,2021.2.3,Win32,59.79788315,,,,,,,,,,,0.8119,1,,,,,,,,,,,,,,m,1,0.8119,,,,,,,,0.433333333,-0.046666667,0,0,0,,0,36,36,79,1,RULER,LB,old,m,./images/RULERLB.png,,,,,,,,,,,,,,,,,,,,,,,,,,,,,,,,,,,,
,,,,,,,,,,,,,,,,,5da4d35c84ea7900178a366c,33,2022-02-12_12h46.19.295,lexical_decision_task_DD_L5,2021.2.3,Win32,59.79788315,,,,,,,,,,,0.7636,1,,,,,,,,,,,,,,m,1,0.7636,,,,,,,,0.433333333,-0.046666667,0,0,0,,0,37,37,71,1,BUBBLE,C,old,m,./images/BUBBLE.png,,,,,,,,,,,,,,,,,,,,,,,,,,,,,,,,,,,,
,,,,,,,,,,,,,,,,,5da4d35c84ea7900178a366c,33,2022-02-12_12h46.19.295,lexical_decision_task_DD_L5,2021.2.3,Win32,59.79788315,,,,,,,,,,,0.88,1,,,,,,,,,,,,,,z,1,0.88,,,,,,,,0.433333333,-0.046666667,0,0,0,,0,38,38,166,1,SHORY,HB,old,z,./images/SHORYHB.png,,,,,,,,,,,,,,,,,,,,,,,,,,,,,,,,,,,,
,,,,,,,,,,,,,,,,,5da4d35c84ea7900178a366c,33,2022-02-12_12h46.19.295,lexical_decision_task_DD_L5,2021.2.3,Win32,59.79788315,,,,,,,,,,,0.8205,1,,,,,,,,,,,,,,m,1,0.8205,,,,,,,,0.433333333,-0.046666667,0,0,0,,0,39,39,78,1,BROOM,HB,old,m,./images/BROOMHB.png,,,,,,,,,,,,,,,,,,,,,,,,,,,,,,,,,,,,
,,,,,,,,,,,,,,,,,5da4d35c84ea7900178a366c,33,2022-02-12_12h46.19.295,lexical_decision_task_DD_L5,2021.2.3,Win32,59.79788315,,,,,,,,,,,0.7356,1,,,,,,,,,,,,,,z,1,0.7356,,,,,,,,0.433333333,-0.046666667,0,0,0,,0,40,40,86,1,AIFED,LB,old,z,./images/AIFEDLB.png,,,,,,,,,,,,,,,,,,,,,,,,,,,,,,,,,,,,
,,,,,,,,,,,,,,,,,5da4d35c84ea7900178a366c,33,2022-02-12_12h46.19.295,lexical_decision_task_DD_L5,2021.2.3,Win32,59.79788315,,,,,,,,,,,0.649,1,,,,,,,,,,,,,,m,1,0.649,,,,,,,,0.123333333,-0.374444444,1,0,0,,0,41,41,41,1,STREAM,C,old,m,./images/STREAM.png,break_done_button,,,,,,,,,,,,,,,,,,,,,,,,,,,,,,,,,,,
,,,,,,,,,,,,,,,,,5da4d35c84ea7900178a366c,33,2022-02-12_12h46.19.295,lexical_decision_task_DD_L5,2021.2.3,Win32,59.79788315,,,,,,,,,,,1.1538,1,,,,,,,,,,,,,,z,1,1.1538,,,,,,,,0.123333333,-0.374444444,0,0,0,,0,42,42,85,1,CHULK,HB,old,z,./images/CHULKHB.png,,,,,,,,,,,,,,,,,,,,,,,,,,,,,,,,,,,,
,,,,,,,,,,,,,,,,,5da4d35c84ea7900178a366c,33,2022-02-12_12h46.19.295,lexical_decision_task_DD_L5,2021.2.3,Win32,59.79788315,,,,,,,,,,,0.6022,1,,,,,,,,,,,,,,m,1,0.6022,,,,,,,,0.123333333,-0.374444444,0,0,0,,0,43,43,54,1,CHERRY,HB,old,m,./images/CHERRYHB.png,,,,,,,,,,,,,,,,,,,,,,,,,,,,,,,,,,,,
,,,,,,,,,,,,,,,,,5da4d35c84ea7900178a366c,33,2022-02-12_12h46.19.295,lexical_decision_task_DD_L5,2021.2.3,Win32,59.79788315,,,,,,,,,,,0.5858,1,,,,,,,,,,,,,,z,1,0.5858,,,,,,,,0.123333333,-0.374444444,0,0,0,,0,44,44,98,1,BAMPS,LB,old,z,./images/BAMPSLB.png,,,,,,,,,,,,,,,,,,,,,,,,,,,,,,,,,,,,
,,,,,,,,,,,,,,,,,5da4d35c84ea7900178a366c,33,2022-02-12_12h46.19.295,lexical_decision_task_DD_L5,2021.2.3,Win32,59.79788315,,,,,,,,,,,0.4435,1,,,,,,,,,,,,,,m,1,0.4435,,,,,,,,0.123333333,-0.374444444,0,0,0,,0,45,45,26,1,CLOUD,C,old,m,./images/CLOUD.png,,,,,,,,,,,,,,,,,,,,,,,,,,,,,,,,,,,,
,,,,,,,,,,,,,,,,,5da4d35c84ea7900178a366c,33,2022-02-12_12h46.19.295,lexical_decision_task_DD_L5,2021.2.3,Win32,59.79788315,,,,,,,,,,,0.5835,1,,,,,,,,,,,,,,z,1,0.5835,,,,,,,,0.123333333,-0.374444444,0,0,0,,0,46,46,116,1,BALGY,LB,old,z,./images/BALGYLB.png,,,,,,,,,,,,,,,,,,,,,,,,,,,,,,,,,,,,
,,,,,,,,,,,,,,,,,5da4d35c84ea7900178a366c,33,2022-02-12_12h46.19.295,lexical_decision_task_DD_L5,2021.2.3,Win32,59.79788315,,,,,,,,,,,0.5588,1,,,,,,,,,,,,,,m,1,0.5588,,,,,,,,0.123333333,-0.374444444,0,0,0,,0,47,47,65,1,SPINE,C,old,m,./images/SPINE.png,,,,,,,,,,,,,,,,,,,,,,,,,,,,,,,,,,,,
,,,,,,,,,,,,,,,,,5da4d35c84ea7900178a366c,33,2022-02-12_12h46.19.295,lexical_decision_task_DD_L5,2021.2.3,Win32,59.79788315,,,,,,,,,,,0.5701,1,,,,,,,,,,,,,,z,1,0.5701,,,,,,,,0.123333333,-0.374444444,0,0,0,,0,48,48,120,1,RINED,C,old,z,./images/RINED.png,,,,,,,,,,,,,,,,,,,,,,,,,,,,,,,,,,,,
,,,,,,,,,,,,,,,,,5da4d35c84ea7900178a366c,33,2022-02-12_12h46.19.295,lexical_decision_task_DD_L5,2021.2.3,Win32,59.79788315,,,,,,,,,,,0.5977,1,,,,,,,,,,,,,,m,1,0.5977,,,,,,,,0.123333333,-0.374444444,0,0,0,,0,49,49,43,1,STOOL,LB,old,m,./images/STOOLLB.png,,,,,,,,,,,,,,,,,,,,,,,,,,,,,,,,,,,,
,,,,,,,,,,,,,,,,,5da4d35c84ea7900178a366c,33,2022-02-12_12h46.19.295,lexical_decision_task_DD_L5,2021.2.3,Win32,59.79788315,,,,,,,,,,,1.1092,1,,,,,,,,,,,,,,z,1,1.1092,,,,,,,,0.123333333,-0.374444444,0,0,0,,0,50,50,138,1,PLICE,C,old,z,./images/PLICE.png,,,,,,,,,,,,,,,,,,,,,,,,,,,,,,,,,,,,
,,,,,,,,,,,,,,,,,5da4d35c84ea7900178a366c,33,2022-02-12_12h46.19.295,lexical_decision_task_DD_L5,2021.2.3,Win32,59.79788315,,,,,,,,,,,0.8121,1,,,,,,,,,,,,,,z,1,0.8121,,,,,,,,0.123333333,-0.374444444,0,0,0,,0,51,51,127,1,NINDY,HB,old,z,./images/NINDYHB.png,,,,,,,,,,,,,,,,,,,,,,,,,,,,,,,,,,,,
,,,,,,,,,,,,,,,,,5da4d35c84ea7900178a366c,33,2022-02-12_12h46.19.295,lexical_decision_task_DD_L5,2021.2.3,Win32,59.79788315,,,,,,,,,,,0.5388,1,,,,,,,,,,,,,,m,1,0.5388,,,,,,,,0.123333333,-0.374444444,0,0,0,,0,52,52,61,1,ARTIST,LB,old,m,./images/ARTISTLB.png,,,,,,,,,,,,,,,,,,,,,,,,,,,,,,,,,,,,
,,,,,,,,,,,,,,,,,5da4d35c84ea7900178a366c,33,2022-02-12_12h46.19.295,lexical_decision_task_DD_L5,2021.2.3,Win32,59.79788315,,,,,,,,,,,0.6676,1,,,,,,,,,,,,,,m,1,0.6676,,,,,,,,0.123333333,-0.374444444,0,0,0,,0,53,53,74,1,JUMPER,C,old,m,./images/JUMPER.png,,,,,,,,,,,,,,,,,,,,,,,,,,,,,,,,,,,,
,,,,,,,,,,,,,,,,,5da4d35c84ea7900178a366c,33,2022-02-12_12h46.19.295,lexical_decision_task_DD_L5,2021.2.3,Win32,59.79788315,,,,,,,,,,,0.8103,1,,,,,,,,,,,,,,z,1,0.8103,,,,,,,,0.123333333,-0.374444444,0,0,0,,0,54,54,165,1,TROWN,C,old,z,./images/TROWN.png,,,,,,,,,,,,,,,,,,,,,,,,,,,,,,,,,,,,
,,,,,,,,,,,,,,,,,5da4d35c84ea7900178a366c,33,2022-02-12_12h46.19.295,lexical_decision_task_DD_L5,2021.2.3,Win32,59.79788315,,,,,,,,,,,0.6723,1,,,,,,,,,,,,,,z,1,0.6723,,,,,,,,0.123333333,-0.374444444,0,0,0,,0,55,55,107,1,FASKS,LB,old,z,./images/FASKSLB.png,,,,,,,,,,,,,,,,,,,,,,,,,,,,,,,,,,,,
,,,,,,,,,,,,,,,,,5da4d35c84ea7900178a366c,33,2022-02-12_12h46.19.295,lexical_decision_task_DD_L5,2021.2.3,Win32,59.79788315,,,,,,,,,,,0.4851,1,,,,,,,,,,,,,,m,1,0.4851,,,,,,,,0.123333333,-0.374444444,0,0,0,,0,56,56,70,1,BANANA,LB,old,m,./images/BANANALB.png,,,,,,,,,,,,,,,,,,,,,,,,,,,,,,,,,,,,
,,,,,,,,,,,,,,,,,5da4d35c84ea7900178a366c,33,2022-02-12_12h46.19.295,lexical_decision_task_DD_L5,2021.2.3,Win32,59.79788315,,,,,,,,,,,0.6096,1,,,,,,,,,,,,,,m,1,0.6096,,,,,,,,0.123333333,-0.374444444,0,0,0,,0,57,57,73,1,GLOVE,LB,old,m,./images/GLOVELB.png,,,,,,,,,,,,,,,,,,,,,,,,,,,,,,,,,,,,
,,,,,,,,,,,,,,,,,5da4d35c84ea7900178a366c,33,2022-02-12_12h46.19.295,lexical_decision_task_DD_L5,2021.2.3,Win32,59.79788315,,,,,,,,,,,0.5634,1,,,,,,,,,,,,,,m,1,0.5634,,,,,,,,0.123333333,-0.374444444,0,0,0,,0,58,58,53,1,POSTER,C,old,m,./images/POSTER.png,,,,,,,,,,,,,,,,,,,,,,,,,,,,,,,,,,,,
,,,,,,,,,,,,,,,,,5da4d35c84ea7900178a366c,33,2022-02-12_12h46.19.295,lexical_decision_task_DD_L5,2021.2.3,Win32,59.79788315,,,,,,,,,,,0.5712,1,,,,,,,,,,,,,,m,1,0.5712,,,,,,,,0.123333333,-0.374444444,0,0,0,,0,59,59,17,1,PARADE,C,old,m,./images/PARADE.png,,,,,,,,,,,,,,,,,,,,,,,,,,,,,,,,,,,,
,,,,,,,,,,,,,,,,,5da4d35c84ea7900178a366c,33,2022-02-12_12h46.19.295,lexical_decision_task_DD_L5,2021.2.3,Win32,59.79788315,,,,,,,,,,,0.4943,1,,,,,,,,,,,,,,m,1,0.4943,,,,,,,,0.123333333,-0.374444444,0,0,0,,0,60,60,67,1,POKER,LB,old,m,./images/POKERLB.png,,,,,,,,,,,,,,,,,,,,,,,,,,,,,,,,,,,,
,,,,,,,,,,,,,,,,,5da4d35c84ea7900178a366c,33,2022-02-12_12h46.19.295,lexical_decision_task_DD_L5,2021.2.3,Win32,59.79788315,,,,,,,,,,,0.7395,1,,,,,,,,,,,,,,z,1,0.7395,,,,,,,,0.123333333,-0.374444444,0,0,0,,0,61,61,101,1,GLEET,LB,old,z,./images/GLEETLB.png,,,,,,,,,,,,,,,,,,,,,,,,,,,,,,,,,,,,
,,,,,,,,,,,,,,,,,5da4d35c84ea7900178a366c,33,2022-02-12_12h46.19.295,lexical_decision_task_DD_L5,2021.2.3,Win32,59.79788315,,,,,,,,,,,0.6505,1,,,,,,,,,,,,,,m,1,0.6505,,,,,,,,0.123333333,-0.374444444,0,0,0,,0,62,62,75,1,HAMMER,HB,old,m,./images/HAMMERHB.png,,,,,,,,,,,,,,,,,,,,,,,,,,,,,,,,,,,,
,,,,,,,,,,,,,,,,,5da4d35c84ea7900178a366c,33,2022-02-12_12h46.19.295,lexical_decision_task_DD_L5,2021.2.3,Win32,59.79788315,,,,,,,,,,,0.7953,0,,,,,,,,,,,,,,m,0,0.7953,,,,,,,,0.123333333,-0.374444444,0,0,0,,0,63,63,142,1,PLASK,HB,old,z,./images/PLASKHB.png,,,,,,,,,,,,,,,,,,,,,,,,,,,,,,,,,,,,
,,,,,,,,,,,,,,,,,5da4d35c84ea7900178a366c,33,2022-02-12_12h46.19.295,lexical_decision_task_DD_L5,2021.2.3,Win32,59.79788315,,,,,,,,,,,0.9745,1,,,,,,,,,,,,,,z,1,0.9745,,,,,,,,0.123333333,-0.374444444,0,0,0,,0,64,64,149,1,VEASE,LB,old,z,./images/VEASELB.png,,,,,,,,,,,,,,,,,,,,,,,,,,,,,,,,,,,,
,,,,,,,,,,,,,,,,,5da4d35c84ea7900178a366c,33,2022-02-12_12h46.19.295,lexical_decision_task_DD_L5,2021.2.3,Win32,59.79788315,,,,,,,,,,,0.9137,1,,,,,,,,,,,,,,z,1,0.9137,,,,,,,,0.123333333,-0.374444444,0,0,0,,0,65,65,113,1,LINEW,LB,old,z,./images/LINEWLB.png,,,,,,,,,,,,,,,,,,,,,,,,,,,,,,,,,,,,
,,,,,,,,,,,,,,,,,5da4d35c84ea7900178a366c,33,2022-02-12_12h46.19.295,lexical_decision_task_DD_L5,2021.2.3,Win32,59.79788315,,,,,,,,,,,0.4909,1,,,,,,,,,,,,,,m,1,0.4909,,,,,,,,0.123333333,-0.374444444,0,0,0,,0,66,66,37,1,TIGER,LB,old,m,./images/TIGERLB.png,,,,,,,,,,,,,,,,,,,,,,,,,,,,,,,,,,,,
,,,,,,,,,,,,,,,,,5da4d35c84ea7900178a366c,33,2022-02-12_12h46.19.295,lexical_decision_task_DD_L5,2021.2.3,Win32,59.79788315,,,,,,,,,,,0.7172,1,,,,,,,,,,,,,,z,1,0.7172,,,,,,,,0.123333333,-0.374444444,0,0,0,,0,67,67,137,1,JOOST,LB,old,z,./images/JOOSTLB.png,,,,,,,,,,,,,,,,,,,,,,,,,,,,,,,,,,,,
,,,,,,,,,,,,,,,,,5da4d35c84ea7900178a366c,33,2022-02-12_12h46.19.295,lexical_decision_task_DD_L5,2021.2.3,Win32,59.79788315,,,,,,,,,,,1.19,1,,,,,,,,,,,,,,z,1,1.19,,,,,,,,0.123333333,-0.374444444,0,0,0,,0,68,68,136,1,WERVE,HB,old,z,./images/WERVEHB.png,,,,,,,,,,,,,,,,,,,,,,,,,,,,,,,,,,,,
,,,,,,,,,,,,,,,,,5da4d35c84ea7900178a366c,33,2022-02-12_12h46.19.295,lexical_decision_task_DD_L5,2021.2.3,Win32,59.79788315,,,,,,,,,,,0.8326,1,,,,,,,,,,,,,,z,1,0.8326,,,,,,,,0.123333333,-0.374444444,0,0,0,,0,69,69,126,1,GUELS,C,old,z,./images/GUELS.png,,,,,,,,,,,,,,,,,,,,,,,,,,,,,,,,,,,,
,,,,,,,,,,,,,,,,,5da4d35c84ea7900178a366c,33,2022-02-12_12h46.19.295,lexical_decision_task_DD_L5,2021.2.3,Win32,59.79788315,,,,,,,,,,,0.5899,1,,,,,,,,,,,,,,m,1,0.5899,,,,,,,,0.123333333,-0.374444444,0,0,0,,0,70,70,76,1,MIDGET,LB,old,m,./images/MIDGETLB.png,,,,,,,,,,,,,,,,,,,,,,,,,,,,,,,,,,,,
,,,,,,,,,,,,,,,,,5da4d35c84ea7900178a366c,33,2022-02-12_12h46.19.295,lexical_decision_task_DD_L5,2021.2.3,Win32,59.79788315,,,,,,,,,,,0.6266,0,,,,,,,,,,,,,,z,0,0.6266,,,,,,,,0.123333333,-0.374444444,0,0,0,,0,71,71,22,1,CLOWN,LB,old,m,./images/CLOWNLB.png,,,,,,,,,,,,,,,,,,,,,,,,,,,,,,,,,,,,
,,,,,,,,,,,,,,,,,5da4d35c84ea7900178a366c,33,2022-02-12_12h46.19.295,lexical_decision_task_DD_L5,2021.2.3,Win32,59.79788315,,,,,,,,,,,0.7292,1,,,,,,,,,,,,,,m,1,0.7292,,,,,,,,0.123333333,-0.374444444,0,0,0,,0,72,72,2,1,STOVE,C,old,m,./images/STOVE.png,,,,,,,,,,,,,,,,,,,,,,,,,,,,,,,,,,,,
,,,,,,,,,,,,,,,,,5da4d35c84ea7900178a366c,33,2022-02-12_12h46.19.295,lexical_decision_task_DD_L5,2021.2.3,Win32,59.79788315,,,,,,,,,,,0.9507,1,,,,,,,,,,,,,,z,1,0.9507,,,,,,,,0.123333333,-0.374444444,0,0,0,,0,73,73,164,1,SGREW,LB,old,z,./images/SGREWLB.png,,,,,,,,,,,,,,,,,,,,,,,,,,,,,,,,,,,,
,,,,,,,,,,,,,,,,,5da4d35c84ea7900178a366c,33,2022-02-12_12h46.19.295,lexical_decision_task_DD_L5,2021.2.3,Win32,59.79788315,,,,,,,,,,,0.6881,1,,,,,,,,,,,,,,m,1,0.6881,,,,,,,,0.123333333,-0.374444444,0,0,0,,0,74,74,4,1,BOXER,LB,old,m,./images/BOXERLB.png,,,,,,,,,,,,,,,,,,,,,,,,,,,,,,,,,,,,
,,,,,,,,,,,,,,,,,5da4d35c84ea7900178a366c,33,2022-02-12_12h46.19.295,lexical_decision_task_DD_L5,2021.2.3,Win32,59.79788315,,,,,,,,,,,0.7837,1,,,,,,,,,,,,,,m,1,0.7837,,,,,,,,0.123333333,-0.374444444,0,0,0,,0,75,75,47,1,LAGOON,C,old,m,./images/LAGOON.png,,,,,,,,,,,,,,,,,,,,,,,,,,,,,,,,,,,,
,,,,,,,,,,,,,,,,,5da4d35c84ea7900178a366c,33,2022-02-12_12h46.19.295,lexical_decision_task_DD_L5,2021.2.3,Win32,59.79788315,,,,,,,,,,,0.884,1,,,,,,,,,,,,,,z,1,0.884,,,,,,,,0.123333333,-0.374444444,0,0,0,,0,76,76,130,1,CRILL,HB,old,z,./images/CRILLHB.png,,,,,,,,,,,,,,,,,,,,,,,,,,,,,,,,,,,,
,,,,,,,,,,,,,,,,,5da4d35c84ea7900178a366c,33,2022-02-12_12h46.19.295,lexical_decision_task_DD_L5,2021.2.3,Win32,59.79788315,,,,,,,,,,,0.8346,1,,,,,,,,,,,,,,m,1,0.8346,,,,,,,,0.123333333,-0.374444444,0,0,0,,0,77,77,39,1,CANDY,HB,old,m,./images/CANDYHB.png,,,,,,,,,,,,,,,,,,,,,,,,,,,,,,,,,,,,
,,,,,,,,,,,,,,,,,5da4d35c84ea7900178a366c,33,2022-02-12_12h46.19.295,lexical_decision_task_DD_L5,2021.2.3,Win32,59.79788315,,,,,,,,,,,0.9198,1,,,,,,,,,,,,,,m,1,0.9198,,,,,,,,0.123333333,-0.374444444,0,0,0,,0,78,78,18,1,PARCEL,HB,old,m,./images/PARCELHB.png,,,,,,,,,,,,,,,,,,,,,,,,,,,,,,,,,,,,
,,,,,,,,,,,,,,,,,5da4d35c84ea7900178a366c,33,2022-02-12_12h46.19.295,lexical_decision_task_DD_L5,2021.2.3,Win32,59.79788315,,,,,,,,,,,0.6152,1,,,,,,,,,,,,,,z,1,0.6152,,,,,,,,0.123333333,-0.374444444,0,0,0,,0,79,79,129,1,PRANS,C,old,z,./images/PRANS.png,,,,,,,,,,,,,,,,,,,,,,,,,,,,,,,,,,,,
,,,,,,,,,,,,,,,,,5da4d35c84ea7900178a366c,33,2022-02-12_12h46.19.295,lexical_decision_task_DD_L5,2021.2.3,Win32,59.79788315,,,,,,,,,,,0.9414,1,,,,,,,,,,,,,,z,1,0.9414,,,,,,,,0.123333333,-0.374444444,0,0,0,,0,80,80,157,1,INLER,HB,old,z,./images/INLERHB.png,,,,,,,,,,,,,,,,,,,,,,,,,,,,,,,,,,,,
,,,,,,,,,,,,,,,,,5da4d35c84ea7900178a366c,33,2022-02-12_12h46.19.295,lexical_decision_task_DD_L5,2021.2.3,Win32,59.79788315,,,,,,,,,,,0.6929,1,,,,,,,,,,,,,,m,1,0.6929,,,,,,,,0.123333333,-0.374444444,0,0,0,,0,81,81,24,1,FLESH,HB,old,m,./images/FLESHHB.png,,,,,,,,,,,,,,,,,,,,,,,,,,,,,,,,,,,,
,,,,,,,,,,,,,,,,,5da4d35c84ea7900178a366c,33,2022-02-12_12h46.19.295,lexical_decision_task_DD_L5,2021.2.3,Win32,59.79788315,,,,,,,,,,,0.71,1,,,,,,,,,,,,,,m,1,0.71,,,,,,,,0.123333333,-0.374444444,0,0,0,,0,82,82,42,1,CHAIN,HB,old,m,./images/CHAINHB.png,,,,,,,,,,,,,,,,,,,,,,,,,,,,,,,,,,,,
,,,,,,,,,,,,,,,,,5da4d35c84ea7900178a366c,33,2022-02-12_12h46.19.295,lexical_decision_task_DD_L5,2021.2.3,Win32,59.79788315,,,,,,,,,,,0.7356,1,,,,,,,,,,,,,,m,1,0.7356,,,,,,,,0.046666667,-0.384444444,1,0,0,,0,83,83,35,1,LLAMA,C,old,m,./images/LLAMA.png,break_done_button,,,,,,,,,,,,,,,,,,,,,,,,,,,,,,,,,,,
,,,,,,,,,,,,,,,,,5da4d35c84ea7900178a366c,33,2022-02-12_12h46.19.295,lexical_decision_task_DD_L5,2021.2.3,Win32,59.79788315,,,,,,,,,,,0.7241,1,,,,,,,,,,,,,,z,1,0.7241,,,,,,,,0.887777778,-0.037777778,0,0,0,,0,84,84,161,1,BLAPS,LB,old,z,./images/BLAPSLB.png,,,,,,,,,,,,,,,,,,,,,,,,,,,,,,,,,,,,
,,,,,,,,,,,,,,,,,5da4d35c84ea7900178a366c,33,2022-02-12_12h46.19.295,lexical_decision_task_DD_L5,2021.2.3,Win32,59.79788315,,,,,,,,,,,0.8836,0,,,,,,,,,,,,,,m,0,0.8836,,,,,,,,0.887777778,-0.037777778,0,0,0,,0,85,85,140,1,DOVET,LB,old,z,./images/DOVETLB.png,,,,,,,,,,,,,,,,,,,,,,,,,,,,,,,,,,,,
,,,,,,,,,,,,,,,,,5da4d35c84ea7900178a366c,33,2022-02-12_12h46.19.295,lexical_decision_task_DD_L5,2021.2.3,Win32,59.79788315,,,,,,,,,,,1.0336,1,,,,,,,,,,,,,,z,1,1.0336,,,,,,,,0.887777778,-0.037777778,0,0,0,,0,86,86,109,1,BURGE,HB,old,z,./images/BURGEHB.png,,,,,,,,,,,,,,,,,,,,,,,,,,,,,,,,,,,,
,,,,,,,,,,,,,,,,,5da4d35c84ea7900178a366c,33,2022-02-12_12h46.19.295,lexical_decision_task_DD_L5,2021.2.3,Win32,59.79788315,,,,,,,,,,,0.99,1,,,,,,,,,,,,,,z,1,0.99,,,,,,,,0.887777778,-0.037777778,0,0,0,,0,87,87,163,1,GAMBA,HB,old,z,./images/GAMBAHB.png,,,,,,,,,,,,,,,,,,,,,,,,,,,,,,,,,,,,
,,,,,,,,,,,,,,,,,5da4d35c84ea7900178a366c,33,2022-02-12_12h46.19.295,lexical_decision_task_DD_L5,2021.2.3,Win32,59.79788315,,,,,,,,,,,0.5751,1,,,,,,,,,,,,,,m,1,0.5751,,,,,,,,0.887777778,-0.037777778,0,0,0,,0,88,88,80,1,PLANET,C,old,m,./images/PLANET.png,,,,,,,,,,,,,,,,,,,,,,,,,,,,,,,,,,,,
,,,,,,,,,,,,,,,,,5da4d35c84ea7900178a366c,33,2022-02-12_12h46.19.295,lexical_decision_task_DD_L5,2021.2.3,Win32,59.79788315,,,,,,,,,,,0.6434,1,,,,,,,,,,,,,,z,1,0.6434,,,,,,,,0.887777778,-0.037777778,0,0,0,,0,89,89,134,1,TROSS,LB,old,z,./images/TROSSLB.png,,,,,,,,,,,,,,,,,,,,,,,,,,,,,,,,,,,,
,,,,,,,,,,,,,,,,,5da4d35c84ea7900178a366c,33,2022-02-12_12h46.19.295,lexical_decision_task_DD_L5,2021.2.3,Win32,59.79788315,,,,,,,,,,,0.8603,1,,,,,,,,,,,,,,m,1,0.8603,,,,,,,,0.887777778,-0.037777778,0,0,0,,0,90,90,55,1,ALLEY,LB,old,m,./images/ALLEYLB.png,,,,,,,,,,,,,,,,,,,,,,,,,,,,,,,,,,,,
,,,,,,,,,,,,,,,,,5da4d35c84ea7900178a366c,33,2022-02-12_12h46.19.295,lexical_decision_task_DD_L5,2021.2.3,Win32,59.79788315,,,,,,,,,,,0.8006,1,,,,,,,,,,,,,,m,1,0.8006,,,,,,,,0.887777778,-0.037777778,0,0,0,,0,91,91,34,1,RAZOR,LB,old,m,./images/RAZORLB.png,,,,,,,,,,,,,,,,,,,,,,,,,,,,,,,,,,,,
,,,,,,,,,,,,,,,,,5da4d35c84ea7900178a366c,33,2022-02-12_12h46.19.295,lexical_decision_task_DD_L5,2021.2.3,Win32,59.79788315,,,,,,,,,,,0.9057,1,,,,,,,,,,,,,,m,1,0.9057,,,,,,,,0.887777778,-0.037777778,0,0,0,,0,92,92,72,1,FLASK,HB,old,m,./images/FLASKHB.png,,,,,,,,,,,,,,,,,,,,,,,,,,,,,,,,,,,,
,,,,,,,,,,,,,,,,,5da4d35c84ea7900178a366c,33,2022-02-12_12h46.19.295,lexical_decision_task_DD_L5,2021.2.3,Win32,59.79788315,,,,,,,,,,,0.8692,1,,,,,,,,,,,,,,m,1,0.8692,,,,,,,,0.887777778,-0.037777778,0,0,0,,0,93,93,25,1,CHALK,LB,old,m,./images/CHALKLB.png,,,,,,,,,,,,,,,,,,,,,,,,,,,,,,,,,,,,
,,,,,,,,,,,,,,,,,5da4d35c84ea7900178a366c,33,2022-02-12_12h46.19.295,lexical_decision_task_DD_L5,2021.2.3,Win32,59.79788315,,,,,,,,,,,0.8355,1,,,,,,,,,,,,,,z,1,0.8355,,,,,,,,0.887777778,-0.037777778,0,0,0,,0,94,94,115,1,MAWNS,HB,old,z,./images/MAWNSHB.png,,,,,,,,,,,,,,,,,,,,,,,,,,,,,,,,,,,,
,,,,,,,,,,,,,,,,,5da4d35c84ea7900178a366c,33,2022-02-12_12h46.19.295,lexical_decision_task_DD_L5,2021.2.3,Win32,59.79788315,,,,,,,,,,,0.6645,1,,,,,,,,,,,,,,m,1,0.6645,,,,,,,,0.887777778,-0.037777778,0,0,0,,0,95,95,83,1,WHISKY,C,old,m,./images/WHISKY.png,,,,,,,,,,,,,,,,,,,,,,,,,,,,,,,,,,,,
,,,,,,,,,,,,,,,,,5da4d35c84ea7900178a366c,33,2022-02-12_12h46.19.295,lexical_decision_task_DD_L5,2021.2.3,Win32,59.79788315,,,,,,,,,,,1.0137,0,,,,,,,,,,,,,,m,0,1.0137,,,,,,,,0.887777778,-0.037777778,0,0,0,,0,96,96,156,1,HIXES,C,old,z,./images/HIXES.png,,,,,,,,,,,,,,,,,,,,,,,,,,,,,,,,,,,,
,,,,,,,,,,,,,,,,,5da4d35c84ea7900178a366c,33,2022-02-12_12h46.19.295,lexical_decision_task_DD_L5,2021.2.3,Win32,59.79788315,,,,,,,,,,,0.8178,1,,,,,,,,,,,,,,z,1,0.8178,,,,,,,,0.887777778,-0.037777778,0,0,0,,0,97,97,131,1,NACES,LB,old,z,./images/NACESLB.png,,,,,,,,,,,,,,,,,,,,,,,,,,,,,,,,,,,,
,,,,,,,,,,,,,,,,,5da4d35c84ea7900178a366c,33,2022-02-12_12h46.19.295,lexical_decision_task_DD_L5,2021.2.3,Win32,59.79788315,,,,,,,,,,,0.7377,1,,,,,,,,,,,,,,z,1,0.7377,,,,,,,,0.887777778,-0.037777778,0,0,0,,0,98,98,150,1,NOOLS,C,old,z,./images/NOOLS.png,,,,,,,,,,,,,,,,,,,,,,,,,,,,,,,,,,,,
,,,,,,,,,,,,,,,,,5da4d35c84ea7900178a366c,33,2022-02-12_12h46.19.295,lexical_decision_task_DD_L5,2021.2.3,Win32,59.79788315,,,,,,,,,,,0.7704,1,,,,,,,,,,,,,,z,1,0.7704,,,,,,,,0.887777778,-0.037777778,0,0,0,,0,99,99,99,1,BACKY,C,old,z,./images/BACKY.png,,,,,,,,,,,,,,,,,,,,,,,,,,,,,,,,,,,,
,,,,,,,,,,,,,,,,,5da4d35c84ea7900178a366c,33,2022-02-12_12h46.19.295,lexical_decision_task_DD_L5,2021.2.3,Win32,59.79788315,,,,,,,,,,,0.6148,1,,,,,,,,,,,,,,m,1,0.6148,,,,,,,,0.887777778,-0.037777778,0,0,0,,0,100,100,82,1,PEBBLE,LB,old,m,./images/PEBBLELB.png,,,,,,,,,,,,,,,,,,,,,,,,,,,,,,,,,,,,
,,,,,,,,,,,,,,,,,5da4d35c84ea7900178a366c,33,2022-02-12_12h46.19.295,lexical_decision_task_DD_L5,2021.2.3,Win32,59.79788315,,,,,,,,,,,0.9565,1,,,,,,,,,,,,,,z,1,0.9565,,,,,,,,0.887777778,-0.037777778,0,0,0,,0,101,101,95,1,HANTY,LB,old,z,./images/HANTYLB.png,,,,,,,,,,,,,,,,,,,,,,,,,,,,,,,,,,,,
,,,,,,,,,,,,,,,,,5da4d35c84ea7900178a366c,33,2022-02-12_12h46.19.295,lexical_decision_task_DD_L5,2021.2.3,Win32,59.79788315,,,,,,,,,,,0.812,1,,,,,,,,,,,,,,m,1,0.812,,,,,,,,0.887777778,-0.037777778,0,0,0,,0,102,102,57,1,FERRY,HB,old,m,./images/FERRYHB.png,,,,,,,,,,,,,,,,,,,,,,,,,,,,,,,,,,,,
,,,,,,,,,,,,,,,,,5da4d35c84ea7900178a366c,33,2022-02-12_12h46.19.295,lexical_decision_task_DD_L5,2021.2.3,Win32,59.79788315,,,,,,,,,,,0.7169,1,,,,,,,,,,,,,,m,1,0.7169,,,,,,,,0.887777778,-0.037777778,0,0,0,,0,103,103,20,1,GRANNY,C,old,m,./images/GRANNY.png,,,,,,,,,,,,,,,,,,,,,,,,,,,,,,,,,,,,
,,,,,,,,,,,,,,,,,5da4d35c84ea7900178a366c,33,2022-02-12_12h46.19.295,lexical_decision_task_DD_L5,2021.2.3,Win32,59.79788315,,,,,,,,,,,0.6125,1,,,,,,,,,,,,,,m,1,0.6125,,,,,,,,0.887777778,-0.037777778,0,0,0,,0,104,104,44,1,BASKET,C,old,m,./images/BASKET.png,,,,,,,,,,,,,,,,,,,,,,,,,,,,,,,,,,,,
,,,,,,,,,,,,,,,,,5da4d35c84ea7900178a366c,33,2022-02-12_12h46.19.295,lexical_decision_task_DD_L5,2021.2.3,Win32,59.79788315,,,,,,,,,,,0.6765,1,,,,,,,,,,,,,,z,1,0.6765,,,,,,,,0.887777778,-0.037777778,0,0,0,,0,105,105,143,1,MONGS,LB,old,z,./images/MONGSLB.png,,,,,,,,,,,,,,,,,,,,,,,,,,,,,,,,,,,,
,,,,,,,,,,,,,,,,,5da4d35c84ea7900178a366c,33,2022-02-12_12h46.19.295,lexical_decision_task_DD_L5,2021.2.3,Win32,59.79788315,,,,,,,,,,,0.6437,1,,,,,,,,,,,,,,z,1,0.6437,,,,,,,,0.887777778,-0.037777778,0,0,0,,0,106,106,90,1,NEAST,C,old,z,./images/NEAST.png,,,,,,,,,,,,,,,,,,,,,,,,,,,,,,,,,,,,
,,,,,,,,,,,,,,,,,5da4d35c84ea7900178a366c,33,2022-02-12_12h46.19.295,lexical_decision_task_DD_L5,2021.2.3,Win32,59.79788315,,,,,,,,,,,0.6917,1,,,,,,,,,,,,,,z,1,0.6917,,,,,,,,0.887777778,-0.037777778,0,0,0,,0,107,107,111,1,HOSSE,C,old,z,./images/HOSSE.png,,,,,,,,,,,,,,,,,,,,,,,,,,,,,,,,,,,,
,,,,,,,,,,,,,,,,,5da4d35c84ea7900178a366c,33,2022-02-12_12h46.19.295,lexical_decision_task_DD_L5,2021.2.3,Win32,59.79788315,,,,,,,,,,,0.7493,1,,,,,,,,,,,,,,m,1,0.7493,,,,,,,,0.887777778,-0.037777778,0,0,0,,0,108,108,51,1,SAUCE,HB,old,m,./images/SAUCEHB.png,,,,,,,,,,,,,,,,,,,,,,,,,,,,,,,,,,,,
,,,,,,,,,,,,,,,,,5da4d35c84ea7900178a366c,33,2022-02-12_12h46.19.295,lexical_decision_task_DD_L5,2021.2.3,Win32,59.79788315,,,,,,,,,,,1.0589,1,,,,,,,,,,,,,,z,1,1.0589,,,,,,,,0.887777778,-0.037777778,0,0,0,,0,109,109,145,1,LAMEL,HB,old,z,./images/LAMELHB.png,,,,,,,,,,,,,,,,,,,,,,,,,,,,,,,,,,,,
,,,,,,,,,,,,,,,,,5da4d35c84ea7900178a366c,33,2022-02-12_12h46.19.295,lexical_decision_task_DD_L5,2021.2.3,Win32,59.79788315,,,,,,,,,,,0.7129,1,,,,,,,,,,,,,,z,1,0.7129,,,,,,,,0.887777778,-0.037777778,0,0,0,,0,110,110,92,1,PAIMS,LB,old,z,./images/PAIMSLB.png,,,,,,,,,,,,,,,,,,,,,,,,,,,,,,,,,,,,
,,,,,,,,,,,,,,,,,5da4d35c84ea7900178a366c,33,2022-02-12_12h46.19.295,lexical_decision_task_DD_L5,2021.2.3,Win32,59.79788315,,,,,,,,,,,0.6655,1,,,,,,,,,,,,,,m,1,0.6655,,,,,,,,0.887777778,-0.037777778,0,0,0,,0,111,111,16,1,GRAPE,LB,old,m,./images/GRAPELB.png,,,,,,,,,,,,,,,,,,,,,,,,,,,,,,,,,,,,
,,,,,,,,,,,,,,,,,5da4d35c84ea7900178a366c,33,2022-02-12_12h46.19.295,lexical_decision_task_DD_L5,2021.2.3,Win32,59.79788315,,,,,,,,,,,0.7074,1,,,,,,,,,,,,,,m,1,0.7074,,,,,,,,0.887777778,-0.037777778,0,0,0,,0,112,112,27,1,BUTTER,HB,old,m,./images/BUTTERHB.png,,,,,,,,,,,,,,,,,,,,,,,,,,,,,,,,,,,,
,,,,,,,,,,,,,,,,,5da4d35c84ea7900178a366c,33,2022-02-12_12h46.19.295,lexical_decision_task_DD_L5,2021.2.3,Win32,59.79788315,,,,,,,,,,,0.7251,1,,,,,,,,,,,,,,m,1,0.7251,,,,,,,,0.887777778,-0.037777778,0,0,0,,0,113,113,66,1,STATUE,HB,old,m,./images/STATUEHB.png,,,,,,,,,,,,,,,,,,,,,,,,,,,,,,,,,,,,
,,,,,,,,,,,,,,,,,5da4d35c84ea7900178a366c,33,2022-02-12_12h46.19.295,lexical_decision_task_DD_L5,2021.2.3,Win32,59.79788315,,,,,,,,,,,0.6975,1,,,,,,,,,,,,,,z,1,0.6975,,,,,,,,0.887777778,-0.037777778,0,0,0,,0,114,114,87,1,TRING,C,old,z,./images/TRING.png,,,,,,,,,,,,,,,,,,,,,,,,,,,,,,,,,,,,
,,,,,,,,,,,,,,,,,5da4d35c84ea7900178a366c,33,2022-02-12_12h46.19.295,lexical_decision_task_DD_L5,2021.2.3,Win32,59.79788315,,,,,,,,,,,0.8481,1,,,,,,,,,,,,,,z,1,0.8481,,,,,,,,0.887777778,-0.037777778,0,0,0,,0,115,115,133,1,POWDY,HB,old,z,./images/POWDYHB.png,,,,,,,,,,,,,,,,,,,,,,,,,,,,,,,,,,,,
,,,,,,,,,,,,,,,,,5da4d35c84ea7900178a366c,33,2022-02-12_12h46.19.295,lexical_decision_task_DD_L5,2021.2.3,Win32,59.79788315,,,,,,,,,,,0.6818,1,,,,,,,,,,,,,,m,1,0.6818,,,,,,,,0.887777778,-0.037777778,0,0,0,,0,116,116,59,1,BRUSH,C,old,m,./images/BRUSH.png,,,,,,,,,,,,,,,,,,,,,,,,,,,,,,,,,,,,
,,,,,,,,,,,,,,,,,5da4d35c84ea7900178a366c,33,2022-02-12_12h46.19.295,lexical_decision_task_DD_L5,2021.2.3,Win32,59.79788315,,,,,,,,,,,1.0133,1,,,,,,,,,,,,,,z,1,1.0133,,,,,,,,0.887777778,-0.037777778,0,0,0,,0,117,117,112,1,MYING,HB,old,z,./images/MYINGHB.png,,,,,,,,,,,,,,,,,,,,,,,,,,,,,,,,,,,,
,,,,,,,,,,,,,,,,,5da4d35c84ea7900178a366c,33,2022-02-12_12h46.19.295,lexical_decision_task_DD_L5,2021.2.3,Win32,59.79788315,,,,,,,,,,,0.6651,1,,,,,,,,,,,,,,z,1,0.6651,,,,,,,,0.887777778,-0.037777778,0,0,0,,0,118,118,162,1,LEICH,C,old,z,./images/LEICH.png,,,,,,,,,,,,,,,,,,,,,,,,,,,,,,,,,,,,
,,,,,,,,,,,,,,,,,5da4d35c84ea7900178a366c,33,2022-02-12_12h46.19.295,lexical_decision_task_DD_L5,2021.2.3,Win32,59.79788315,,,,,,,,,,,0.6856,1,,,,,,,,,,,,,,m,1,0.6856,,,,,,,,0.887777778,-0.037777778,0,0,0,,0,119,119,56,1,HEATER,C,old,m,./images/HEATER.png,,,,,,,,,,,,,,,,,,,,,,,,,,,,,,,,,,,,
,,,,,,,,,,,,,,,,,5da4d35c84ea7900178a366c,33,2022-02-12_12h46.19.295,lexical_decision_task_DD_L5,2021.2.3,Win32,59.79788315,,,,,,,,,,,0.7812,1,,,,,,,,,,,,,,m,1,0.7812,,,,,,,,0.887777778,-0.037777778,0,0,0,,0,120,120,12,1,BLOKE,HB,old,m,./images/BLOKEHB.png,,,,,,,,,,,,,,,,,,,,,,,,,,,,,,,,,,,,
,,,,,,,,,,,,,,,,,5da4d35c84ea7900178a366c,33,2022-02-12_12h46.19.295,lexical_decision_task_DD_L5,2021.2.3,Win32,59.79788315,,,,,,,,,,,0.6136,1,,,,,,,,,,,,,,m,1,0.6136,,,,,,,,0.887777778,-0.037777778,0,0,0,,0,121,121,38,1,ENGINE,C,old,m,./images/ENGINE.png,,,,,,,,,,,,,,,,,,,,,,,,,,,,,,,,,,,,
,,,,,,,,,,,,,,,,,5da4d35c84ea7900178a366c,33,2022-02-12_12h46.19.295,lexical_decision_task_DD_L5,2021.2.3,Win32,59.79788315,,,,,,,,,,,0.7171,1,,,,,,,,,,,,,,m,1,0.7171,,,,,,,,0.887777778,-0.037777778,0,0,0,,0,122,122,1,1,TOWEL,LB,old,m,./images/TOWELLB.png,,,,,,,,,,,,,,,,,,,,,,,,,,,,,,,,,,,,
,,,,,,,,,,,,,,,,,5da4d35c84ea7900178a366c,33,2022-02-12_12h46.19.295,lexical_decision_task_DD_L5,2021.2.3,Win32,59.79788315,,,,,,,,,,,0.634,1,,,,,,,,,,,,,,m,1,0.634,,,,,,,,0.887777778,-0.037777778,0,0,0,,0,123,123,32,1,HOCKEY,C,old,m,./images/HOCKEY.png,,,,,,,,,,,,,,,,,,,,,,,,,,,,,,,,,,,,
,,,,,,,,,,,,,,,,,5da4d35c84ea7900178a366c,33,2022-02-12_12h46.19.295,lexical_decision_task_DD_L5,2021.2.3,Win32,59.79788315,,,,,,,,,,,0.9724,1,,,,,,,,,,,,,,z,1,0.9724,,,,,,,,0.887777778,-0.037777778,0,0,0,,0,124,124,118,1,BAVEL,HB,old,z,./images/BAVELHB.png,,,,,,,,,,,,,,,,,,,,,,,,,,,,,,,,,,,,
,,,,,,,,,,,,,,,,,5da4d35c84ea7900178a366c,33,2022-02-12_12h46.19.295,lexical_decision_task_DD_L5,2021.2.3,Win32,59.79788315,,,,,,,,,,,0.5845,1,,,,,,,,,,,,,,m,1,0.5845,,,,,,,,0.004444444,-0.398888889,1,0,0,,0,125,125,5,1,BAMBOO,C,old,m,./images/BAMBOO.png,break_done_button,,,,,,,,,,,,,,,,,,,,,,,,,,,,,,,,,,,
,,,,,,,,,,,,,,,,,5da4d35c84ea7900178a366c,33,2022-02-12_12h46.19.295,lexical_decision_task_DD_L5,2021.2.3,Win32,59.79788315,,,,,,,,,,,0.689,1,,,,,,,,,,,,,,z,1,0.689,,,,,,,,0.674444444,0.002222222,0,0,0,,0,126,126,144,1,NAIRY,C,old,z,./images/NAIRY.png,,,,,,,,,,,,,,,,,,,,,,,,,,,,,,,,,,,,
,,,,,,,,,,,,,,,,,5da4d35c84ea7900178a366c,33,2022-02-12_12h46.19.295,lexical_decision_task_DD_L5,2021.2.3,Win32,59.79788315,,,,,,,,,,,0.5583,1,,,,,,,,,,,,,,m,1,0.5583,,,,,,,,0.674444444,0.002222222,0,0,0,,0,127,127,64,1,BRIDE,LB,old,m,./images/BRIDELB.png,,,,,,,,,,,,,,,,,,,,,,,,,,,,,,,,,,,,
,,,,,,,,,,,,,,,,,5da4d35c84ea7900178a366c,33,2022-02-12_12h46.19.295,lexical_decision_task_DD_L5,2021.2.3,Win32,59.79788315,,,,,,,,,,,0.6548,1,,,,,,,,,,,,,,z,1,0.6548,,,,,,,,0.674444444,0.002222222,0,0,0,,0,128,128,160,1,VEETS,HB,old,z,./images/VEETSHB.png,,,,,,,,,,,,,,,,,,,,,,,,,,,,,,,,,,,,
,,,,,,,,,,,,,,,,,5da4d35c84ea7900178a366c,33,2022-02-12_12h46.19.295,lexical_decision_task_DD_L5,2021.2.3,Win32,59.79788315,,,,,,,,,,,0.7264,1,,,,,,,,,,,,,,z,1,0.7264,,,,,,,,0.674444444,0.002222222,0,0,0,,0,129,129,167,1,ZONET,LB,old,z,./images/ZONETLB.png,,,,,,,,,,,,,,,,,,,,,,,,,,,,,,,,,,,,
,,,,,,,,,,,,,,,,,5da4d35c84ea7900178a366c,33,2022-02-12_12h46.19.295,lexical_decision_task_DD_L5,2021.2.3,Win32,59.79788315,,,,,,,,,,,0.7526,1,,,,,,,,,,,,,,z,1,0.7526,,,,,,,,0.674444444,0.002222222,0,0,0,,0,130,130,132,1,SCIFF,C,old,z,./images/SCIFF.png,,,,,,,,,,,,,,,,,,,,,,,,,,,,,,,,,,,,
,,,,,,,,,,,,,,,,,5da4d35c84ea7900178a366c,33,2022-02-12_12h46.19.295,lexical_decision_task_DD_L5,2021.2.3,Win32,59.79788315,,,,,,,,,,,0.9919,1,,,,,,,,,,,,,,z,1,0.9919,,,,,,,,0.674444444,0.002222222,0,0,0,,0,131,131,88,1,GLUSH,HB,old,z,./images/GLUSHHB.png,,,,,,,,,,,,,,,,,,,,,,,,,,,,,,,,,,,,
,,,,,,,,,,,,,,,,,5da4d35c84ea7900178a366c,33,2022-02-12_12h46.19.295,lexical_decision_task_DD_L5,2021.2.3,Win32,59.79788315,,,,,,,,,,,0.5338,1,,,,,,,,,,,,,,m,1,0.5338,,,,,,,,0.674444444,0.002222222,0,0,0,,0,132,132,49,1,BISHOP,LB,old,m,./images/BISHOPLB.png,,,,,,,,,,,,,,,,,,,,,,,,,,,,,,,,,,,,
,,,,,,,,,,,,,,,,,5da4d35c84ea7900178a366c,33,2022-02-12_12h46.19.295,lexical_decision_task_DD_L5,2021.2.3,Win32,59.79788315,,,,,,,,,,,0.7144,1,,,,,,,,,,,,,,z,1,0.7144,,,,,,,,0.674444444,0.002222222,0,0,0,,0,133,133,104,1,GITTY,LB,old,z,./images/GITTYLB.png,,,,,,,,,,,,,,,,,,,,,,,,,,,,,,,,,,,,
,,,,,,,,,,,,,,,,,5da4d35c84ea7900178a366c,33,2022-02-12_12h46.19.295,lexical_decision_task_DD_L5,2021.2.3,Win32,59.79788315,,,,,,,,,,,0.6682,1,,,,,,,,,,,,,,z,1,0.6682,,,,,,,,0.674444444,0.002222222,0,0,0,,0,134,134,84,1,HAXES,C,old,z,./images/HAXES.png,,,,,,,,,,,,,,,,,,,,,,,,,,,,,,,,,,,,
,,,,,,,,,,,,,,,,,5da4d35c84ea7900178a366c,33,2022-02-12_12h46.19.295,lexical_decision_task_DD_L5,2021.2.3,Win32,59.79788315,,,,,,,,,,,0.6905,1,,,,,,,,,,,,,,m,1,0.6905,,,,,,,,0.674444444,0.002222222,0,0,0,,0,135,135,36,1,BOILER,HB,old,m,./images/BOILERHB.png,,,,,,,,,,,,,,,,,,,,,,,,,,,,,,,,,,,,
,,,,,,,,,,,,,,,,,5da4d35c84ea7900178a366c,33,2022-02-12_12h46.19.295,lexical_decision_task_DD_L5,2021.2.3,Win32,59.79788315,,,,,,,,,,,0.6272,1,,,,,,,,,,,,,,z,1,0.6272,,,,,,,,0.674444444,0.002222222,0,0,0,,0,136,136,147,1,ZOLES,C,old,z,./images/ZOLES.png,,,,,,,,,,,,,,,,,,,,,,,,,,,,,,,,,,,,
,,,,,,,,,,,,,,,,,5da4d35c84ea7900178a366c,33,2022-02-12_12h46.19.295,lexical_decision_task_DD_L5,2021.2.3,Win32,59.79788315,,,,,,,,,,,0.5739,1,,,,,,,,,,,,,,z,1,0.5739,,,,,,,,0.674444444,0.002222222,0,0,0,,0,137,137,153,1,CLUPS,C,old,z,./images/CLUPS.png,,,,,,,,,,,,,,,,,,,,,,,,,,,,,,,,,,,,
,,,,,,,,,,,,,,,,,5da4d35c84ea7900178a366c,33,2022-02-12_12h46.19.295,lexical_decision_task_DD_L5,2021.2.3,Win32,59.79788315,,,,,,,,,,,0.4922,1,,,,,,,,,,,,,,m,1,0.4922,,,,,,,,0.674444444,0.002222222,0,0,0,,0,138,138,29,1,PISTOL,C,old,m,./images/PISTOL.png,,,,,,,,,,,,,,,,,,,,,,,,,,,,,,,,,,,,
,,,,,,,,,,,,,,,,,5da4d35c84ea7900178a366c,33,2022-02-12_12h46.19.295,lexical_decision_task_DD_L5,2021.2.3,Win32,59.79788315,,,,,,,,,,,0.6875,1,,,,,,,,,,,,,,m,1,0.6875,,,,,,,,0.674444444,0.002222222,0,0,0,,0,139,139,0,1,WALNUT,HB,old,m,./images/WALNUTHB.png,,,,,,,,,,,,,,,,,,,,,,,,,,,,,,,,,,,,
,,,,,,,,,,,,,,,,,5da4d35c84ea7900178a366c,33,2022-02-12_12h46.19.295,lexical_decision_task_DD_L5,2021.2.3,Win32,59.79788315,,,,,,,,,,,0.4954,1,,,,,,,,,,,,,,m,1,0.4954,,,,,,,,0.674444444,0.002222222,0,0,0,,0,140,140,50,1,PILOT,C,old,m,./images/PILOT.png,,,,,,,,,,,,,,,,,,,,,,,,,,,,,,,,,,,,
,,,,,,,,,,,,,,,,,5da4d35c84ea7900178a366c,33,2022-02-12_12h46.19.295,lexical_decision_task_DD_L5,2021.2.3,Win32,59.79788315,,,,,,,,,,,0.6423,1,,,,,,,,,,,,,,z,1,0.6423,,,,,,,,0.674444444,0.002222222,0,0,0,,0,141,141,148,1,JOMS,HB,old,z,./images/JOMSHB.png,,,,,,,,,,,,,,,,,,,,,,,,,,,,,,,,,,,,
,,,,,,,,,,,,,,,,,5da4d35c84ea7900178a366c,33,2022-02-12_12h46.19.295,lexical_decision_task_DD_L5,2021.2.3,Win32,59.79788315,,,,,,,,,,,1.1313,1,,,,,,,,,,,,,,z,1,1.1313,,,,,,,,0.674444444,0.002222222,0,0,0,,0,142,142,121,1,CEERS,HB,old,z,./images/CEERSHB.png,,,,,,,,,,,,,,,,,,,,,,,,,,,,,,,,,,,,
,,,,,,,,,,,,,,,,,5da4d35c84ea7900178a366c,33,2022-02-12_12h46.19.295,lexical_decision_task_DD_L5,2021.2.3,Win32,59.79788315,,,,,,,,,,,0.6813,1,,,,,,,,,,,,,,z,1,0.6813,,,,,,,,0.674444444,0.002222222,0,0,0,,0,143,143,89,1,DRIEK,LB,old,z,./images/DRIEKLB.png,,,,,,,,,,,,,,,,,,,,,,,,,,,,,,,,,,,,
,,,,,,,,,,,,,,,,,5da4d35c84ea7900178a366c,33,2022-02-12_12h46.19.295,lexical_decision_task_DD_L5,2021.2.3,Win32,59.79788315,,,,,,,,,,,0.6784,1,,,,,,,,,,,,,,m,1,0.6784,,,,,,,,0.674444444,0.002222222,0,0,0,,0,144,144,30,1,SLOPE,HB,old,m,./images/SLOPEHB.png,,,,,,,,,,,,,,,,,,,,,,,,,,,,,,,,,,,,
,,,,,,,,,,,,,,,,,5da4d35c84ea7900178a366c,33,2022-02-12_12h46.19.295,lexical_decision_task_DD_L5,2021.2.3,Win32,59.79788315,,,,,,,,,,,0.7049,1,,,,,,,,,,,,,,z,1,0.7049,,,,,,,,0.674444444,0.002222222,0,0,0,,0,145,145,139,1,BLEAR,HB,old,z,./images/BLEARHB.png,,,,,,,,,,,,,,,,,,,,,,,,,,,,,,,,,,,,
,,,,,,,,,,,,,,,,,5da4d35c84ea7900178a366c,33,2022-02-12_12h46.19.295,lexical_decision_task_DD_L5,2021.2.3,Win32,59.79788315,,,,,,,,,,,0.8623,1,,,,,,,,,,,,,,z,1,0.8623,,,,,,,,0.674444444,0.002222222,0,0,0,,0,146,146,154,1,THINT,HB,old,z,./images/THINTHB.png,,,,,,,,,,,,,,,,,,,,,,,,,,,,,,,,,,,,
,,,,,,,,,,,,,,,,,5da4d35c84ea7900178a366c,33,2022-02-12_12h46.19.295,lexical_decision_task_DD_L5,2021.2.3,Win32,59.79788315,,,,,,,,,,,0.422,1,,,,,,,,,,,,,,m,1,0.422,,,,,,,,0.674444444,0.002222222,0,0,0,,0,147,147,7,1,WAGON,LB,old,m,./images/WAGONLB.png,,,,,,,,,,,,,,,,,,,,,,,,,,,,,,,,,,,,
,,,,,,,,,,,,,,,,,5da4d35c84ea7900178a366c,33,2022-02-12_12h46.19.295,lexical_decision_task_DD_L5,2021.2.3,Win32,59.79788315,,,,,,,,,,,0.5748,1,,,,,,,,,,,,,,z,1,0.5748,,,,,,,,0.674444444,0.002222222,0,0,0,,0,148,148,119,1,PAFER,LB,old,z,./images/PAFERLB.png,,,,,,,,,,,,,,,,,,,,,,,,,,,,,,,,,,,,
,,,,,,,,,,,,,,,,,5da4d35c84ea7900178a366c,33,2022-02-12_12h46.19.295,lexical_decision_task_DD_L5,2021.2.3,Win32,59.79788315,,,,,,,,,,,0.8064,1,,,,,,,,,,,,,,z,1,0.8064,,,,,,,,0.674444444,0.002222222,0,0,0,,0,149,149,97,1,CHIDS,HB,old,z,./images/CHIDSHB.png,,,,,,,,,,,,,,,,,,,,,,,,,,,,,,,,,,,,
,,,,,,,,,,,,,,,,,5da4d35c84ea7900178a366c,33,2022-02-12_12h46.19.295,lexical_decision_task_DD_L5,2021.2.3,Win32,59.79788315,,,,,,,,,,,0.7405,1,,,,,,,,,,,,,,z,1,0.7405,,,,,,,,0.674444444,0.002222222,0,0,0,,0,150,150,125,1,MOOKY,LB,old,z,./images/MOOKYLB.png,,,,,,,,,,,,,,,,,,,,,,,,,,,,,,,,,,,,
,,,,,,,,,,,,,,,,,5da4d35c84ea7900178a366c,33,2022-02-12_12h46.19.295,lexical_decision_task_DD_L5,2021.2.3,Win32,59.79788315,,,,,,,,,,,0.8306,1,,,,,,,,,,,,,,m,1,0.8306,,,,,,,,0.674444444,0.002222222,0,0,0,,0,151,151,6,1,STAIN,HB,old,m,./images/STAINHB.png,,,,,,,,,,,,,,,,,,,,,,,,,,,,,,,,,,,,
,,,,,,,,,,,,,,,,,5da4d35c84ea7900178a366c,33,2022-02-12_12h46.19.295,lexical_decision_task_DD_L5,2021.2.3,Win32,59.79788315,,,,,,,,,,,0.5584,1,,,,,,,,,,,,,,m,1,0.5584,,,,,,,,0.674444444,0.002222222,0,0,0,,0,152,152,68,1,VALLEY,C,old,m,./images/VALLEY.png,,,,,,,,,,,,,,,,,,,,,,,,,,,,,,,,,,,,
,,,,,,,,,,,,,,,,,5da4d35c84ea7900178a366c,33,2022-02-12_12h46.19.295,lexical_decision_task_DD_L5,2021.2.3,Win32,59.79788315,,,,,,,,,,,0.5837,1,,,,,,,,,,,,,,z,1,0.5837,,,,,,,,0.674444444,0.002222222,0,0,0,,0,153,153,103,1,FLORT,HB,old,z,./images/FLORTHB.png,,,,,,,,,,,,,,,,,,,,,,,,,,,,,,,,,,,,
,,,,,,,,,,,,,,,,,5da4d35c84ea7900178a366c,33,2022-02-12_12h46.19.295,lexical_decision_task_DD_L5,2021.2.3,Win32,59.79788315,,,,,,,,,,,0.4679,0,,,,,,,,,,,,,,m,0,0.4679,,,,,,,,0.674444444,0.002222222,0,0,0,,0,154,154,128,1,GRIFT,LB,old,z,./images/GRIFTLB.png,,,,,,,,,,,,,,,,,,,,,,,,,,,,,,,,,,,,
,,,,,,,,,,,,,,,,,5da4d35c84ea7900178a366c,33,2022-02-12_12h46.19.295,lexical_decision_task_DD_L5,2021.2.3,Win32,59.79788315,,,,,,,,,,,0.8775,1,,,,,,,,,,,,,,z,1,0.8775,,,,,,,,0.674444444,0.002222222,0,0,0,,0,155,155,151,1,TINKY,HB,old,z,./images/TINKYHB.png,,,,,,,,,,,,,,,,,,,,,,,,,,,,,,,,,,,,
,,,,,,,,,,,,,,,,,5da4d35c84ea7900178a366c,33,2022-02-12_12h46.19.295,lexical_decision_task_DD_L5,2021.2.3,Win32,59.79788315,,,,,,,,,,,0.7977,1,,,,,,,,,,,,,,m,1,0.7977,,,,,,,,0.674444444,0.002222222,0,0,0,,0,156,156,28,1,CASINO,LB,old,m,./images/CASINOLB.png,,,,,,,,,,,,,,,,,,,,,,,,,,,,,,,,,,,,
,,,,,,,,,,,,,,,,,5da4d35c84ea7900178a366c,33,2022-02-12_12h46.19.295,lexical_decision_task_DD_L5,2021.2.3,Win32,59.79788315,,,,,,,,,,,0.8488,0,,,,,,,,,,,,,,z,0,0.8488,,,,,,,,0.674444444,0.002222222,0,0,0,,0,157,157,33,1,SAUNA,HB,old,m,./images/SAUNAHB.png,,,,,,,,,,,,,,,,,,,,,,,,,,,,,,,,,,,,
,,,,,,,,,,,,,,,,,5da4d35c84ea7900178a366c,33,2022-02-12_12h46.19.295,lexical_decision_task_DD_L5,2021.2.3,Win32,59.79788315,,,,,,,,,,,0.7905,1,,,,,,,,,,,,,,z,1,0.7905,,,,,,,,0.674444444,0.002222222,0,0,0,,0,158,158,117,1,STEEG,C,old,z,./images/STEEG.png,,,,,,,,,,,,,,,,,,,,,,,,,,,,,,,,,,,,
,,,,,,,,,,,,,,,,,5da4d35c84ea7900178a366c,33,2022-02-12_12h46.19.295,lexical_decision_task_DD_L5,2021.2.3,Win32,59.79788315,,,,,,,,,,,0.707,1,,,,,,,,,,,,,,m,1,0.707,,,,,,,,0.674444444,0.002222222,0,0,0,,0,159,159,3,1,CRATER,HB,old,m,./images/CRATERHB.png,,,,,,,,,,,,,,,,,,,,,,,,,,,,,,,,,,,,
,,,,,,,,,,,,,,,,,5da4d35c84ea7900178a366c,33,2022-02-12_12h46.19.295,lexical_decision_task_DD_L5,2021.2.3,Win32,59.79788315,,,,,,,,,,,0.7906,1,,,,,,,,,,,,,,m,1,0.7906,,,,,,,,0.674444444,0.002222222,0,0,0,,0,160,160,63,1,BAKER,HB,old,m,./images/BAKERHB.png,,,,,,,,,,,,,,,,,,,,,,,,,,,,,,,,,,,,
,,,,,,,,,,,,,,,,,5da4d35c84ea7900178a366c,33,2022-02-12_12h46.19.295,lexical_decision_task_DD_L5,2021.2.3,Win32,59.79788315,,,,,,,,,,,0.7633,1,,,,,,,,,,,,,,z,1,0.7633,,,,,,,,0.674444444,0.002222222,0,0,0,,0,161,161,124,1,TUNCH,HB,old,z,./images/TUNCHHB.png,,,,,,,,,,,,,,,,,,,,,,,,,,,,,,,,,,,,
,,,,,,,,,,,,,,,,,5da4d35c84ea7900178a366c,33,2022-02-12_12h46.19.295,lexical_decision_task_DD_L5,2021.2.3,Win32,59.79788315,,,,,,,,,,,0.5265,1,,,,,,,,,,,,,,m,1,0.5265,,,,,,,,0.674444444,0.002222222,0,0,0,,0,162,162,52,1,DESERT,LB,old,m,./images/DESERTLB.png,,,,,,,,,,,,,,,,,,,,,,,,,,,,,,,,,,,,
,,,,,,,,,,,,,,,,,5da4d35c84ea7900178a366c,33,2022-02-12_12h46.19.295,lexical_decision_task_DD_L5,2021.2.3,Win32,59.79788315,,,,,,,,,,,0.5788,1,,,,,,,,,,,,,,m,1,0.5788,,,,,,,,0.674444444,0.002222222,0,0,0,,0,163,163,8,1,CLIFF,C,old,m,./images/CLIFF.png,,,,,,,,,,,,,,,,,,,,,,,,,,,,,,,,,,,,
,,,,,,,,,,,,,,,,,5da4d35c84ea7900178a366c,33,2022-02-12_12h46.19.295,lexical_decision_task_DD_L5,2021.2.3,Win32,59.79788315,,,,,,,,,,,0.5689,1,,,,,,,,,,,,,,z,1,0.5689,,,,,,,,0.674444444,0.002222222,0,0,0,,0,164,164,122,1,BLOOT,LB,old,z,./images/BLOOTLB.png,,,,,,,,,,,,,,,,,,,,,,,,,,,,,,,,,,,,
,,,,,,,,,,,,,,,,,5da4d35c84ea7900178a366c,33,2022-02-12_12h46.19.295,lexical_decision_task_DD_L5,2021.2.3,Win32,59.79788315,,,,,,,,,,,0.5285,1,,,,,,,,,,,,,,m,1,0.5285,,,,,,,,0.674444444,0.002222222,0,0,0,,0,165,165,11,1,MEDAL,C,old,m,./images/MEDAL.png,,,,,,,,,,,,,,,,,,,,,,,,,,,,,,,,,,,,
,,,,,,,,,,,,,,,,,5da4d35c84ea7900178a366c,33,2022-02-12_12h46.19.295,lexical_decision_task_DD_L5,2021.2.3,Win32,59.79788315,,,,,,,,,,,0.5884,1,,,,,,,,,,,,,,z,1,0.5884,,,,,,,,0.674444444,0.002222222,0,0,0,,0,166,166,141,1,PLEET,C,old,z,./images/PLEET.png,,,,,,,,,,,,,,,,,,,,,,,,,,,,,,,,,,,,
,,,,,,,,,,,,,,,,,5da4d35c84ea7900178a366c,33,2022-02-12_12h46.19.295,lexical_decision_task_DD_L5,2021.2.3,Win32,59.79788315,,,,,,,,,,,0.5628,1,,,,,,,,,,,,,,z,1,0.5628,,,,,,,,0.674444444,0.002222222,0,0,0,,0,167,167,102,1,DULLE,C,old,z,./images/DULLE.png,,,,,,,,,,,,,,,,,,,,,,,,,,,,,,,,,,,,
,,,,,,,,,,,,,,,,,5da4d35c84ea7900178a366c,33,2022-02-12_12h46.19.295,lexical_decision_task_DD_L5,2021.2.3,Win32,59.79788315,,,,,,,,,,,,,,,,,,,,,,,,,,,,,,,,,,,,,,,,,,,,,,,,How likely will it be that you will recognize the words presented slighly blurred on a scale of 0 (not likely) to 100 (most likely)?,,,,,0.031111111,-0.434444444,1,0,0,jol_adv,4,9.5489,0,0,0,1,1,,,,,,,,,,,,,,,,,,,,,,
,,,,,,,,,,,,,,,,,5da4d35c84ea7900178a366c,33,2022-02-12_12h46.19.295,lexical_decision_task_DD_L5,2021.2.3,Win32,59.79788315,,,,,,,,,,,,,,,,,,,,,,,,,,,,,,,,,,,,,,,,,,,,,,,,How likely will it be that you will recognize the words presented clearly on a scale of 0 (not likely) to 100 (most likely)?,,,,,,,,,,,6,10.6712,0,1,1,0,1,,,,,,,,,,,,,,,,,,,,,,
,,,,,,,,,,,,,,,,,5da4d35c84ea7900178a366c,33,2022-02-12_12h46.19.295,lexical_decision_task_DD_L5,2021.2.3,Win32,59.79788315,,,,,,,,,,,,,,,,,,,,,,,,,,,,,,,,,,,,,,,,,,,,,,,,How likely will it be that you will recognize the words presented very blurred on a scale of 0 (not likely) to 100 (most likely)?,,,,,,,,,,,3,7.1027,0,2,2,2,1,,,,,,,,,,,,,,,,,,,,,,
,0.056666667,-0.386666667,1,0,0,instr_done_button,,,,,,1,test,"In the next phase you will be presented with the words from the the first phase. Your job is to decide whether you remember seeing the word or not. If you remember seeing the word press ""old"" or type ""m"". If you do not remember seeing the word press ""new"" or type ""z"". Please press the space bar or click on continue to begin. ",,,5da4d35c84ea7900178a366c,33,2022-02-12_12h46.19.295,lexical_decision_task_DD_L5,2021.2.3,Win32,59.79788315,,,,,,,,,,,,,,,,,,,,,,,,,,,,,,,,,,,,,,,,,,,,,,,,,,,,,,,,,,,,,,,,,,0,0,0,0,1,,,,,,,,,,,,,,,,,
,0.03,-0.401111111,1,0,0,instr_done_button,,,,,,1,test,"In the next phase you will be presented with the words from the the first phase. Your job is to decide whether you remember seeing the word or not. If you remember seeing the word press ""old"" or type ""m"". If you do not remember seeing the word press ""new"" or type ""z"". Please press the space bar or click on continue to begin. ",,,5da4d35c84ea7900178a366c,33,2022-02-12_12h46.19.295,lexical_decision_task_DD_L5,2021.2.3,Win32,59.79788315,,,,,,,,,,,,,,,,,,,,,,,,,,,,,,,,,,,,,,,,,,,,,,,,,,,,,,,,,,,,,,,,,,1,0,1,0,1,,,,,,,,,,,,,,,,,
space,0.217777778,-0.364444444,0,0,0,,,,,,,1,test,"In the next phase you will be presented with the words from the the first phase. Your job is to decide whether you remember seeing the word or not. If you remember seeing the word press ""old"" or type ""m"". If you do not remember seeing the word press ""new"" or type ""z"". Please press the space bar or click on continue to begin. ",,,5da4d35c84ea7900178a366c,33,2022-02-12_12h46.19.295,lexical_decision_task_DD_L5,2021.2.3,Win32,59.79788315,,,,,,,,,,,,,,,,,,,,,,,,,,,,,,,,,,,,,,,,,,,,,,,,,,,,,,,,,,,,,,,,,,2,0,2,0,1,3.8434,,,,,,,,,,,,,,,,
,-0.007777778,-0.411111111,1,0,0,instr_done_button,,,,,,1,test,"In the next phase you will be presented with the words from the the first phase. Your job is to decide whether you remember seeing the word or not. If you remember seeing the word press ""old"" or type ""m"". If you do not remember seeing the word press ""new"" or type ""z"". Please press the space bar or click on continue to begin. ",,,5da4d35c84ea7900178a366c,33,2022-02-12_12h46.19.295,lexical_decision_task_DD_L5,2021.2.3,Win32,59.79788315,,,,,,,,,,,,,,,,,,,,,,,,,,,,,,,,,,,,,,,,,,,,,,,,,,,,,,,,,,,,,,,,,,3,0,3,0,1,,,,,,,,,,,,,,,,,
,0.005555556,-0.394444444,1,0,0,instr_done_button,,,,,,1,test,"In the next phase you will be presented with the words from the the first phase. Your job is to decide whether you remember seeing the word or not. If you remember seeing the word press ""old"" or type ""m"". If you do not remember seeing the word press ""new"" or type ""z"". Please press the space bar or click on continue to begin. ",,,5da4d35c84ea7900178a366c,33,2022-02-12_12h46.19.295,lexical_decision_task_DD_L5,2021.2.3,Win32,59.79788315,,,,,,,,,,,,,,,,,,,,,,,,,,,,,,,,,,,,,,,,,,,,,,,,,,,,,,,,,,,,,,,,,,4,0,4,0,1,,,,,,,,,,,,,,,,,
,,,,,,,,,,,,,,,,,5da4d35c84ea7900178a366c,33,2022-02-12_12h46.19.295,lexical_decision_task_DD_L5,2021.2.3,Win32,59.79788315,,,,,,,,,,,3.0838,1,,,,,,,,,,,,,,,,,,,,,,,,0.456666667,-0.154444444,0,0,0,,,,,,,BLOKE,HB,m,y,./images/BLOKEHB.png,,,,,,,,,,,,,,,,,,,,,m,1,3.0838,,,,,,,,0,0,0,12,1,
,,,,,,,,,,,,,,,,,5da4d35c84ea7900178a366c,33,2022-02-12_12h46.19.295,lexical_decision_task_DD_L5,2021.2.3,Win32,59.79788315,,,,,,,,,,,2.734,0,,,,,,,,,,,,,,,,,,,,,,,,0.456666667,-0.154444444,0,0,0,,,,,,,SAUCE,HB,m,y,./images/SAUCEHB.png,,,,,,,,,,,,,,,,,,,,,z,0,2.734,,,,,,,,0,1,1,51,1,
,,,,,,,,,,,,,,,,,5da4d35c84ea7900178a366c,33,2022-02-12_12h46.19.295,lexical_decision_task_DD_L5,2021.2.3,Win32,59.79788315,,,,,,,,,,,1.1491,1,,,,,,,,,,,,,,,,,,,,,,,,0.456666667,-0.154444444,0,0,0,,,,,,,SNACK,LB,z,y,./images/SNACKLB.png,,,,,,,,,,,,,,,,,,,,,z,1,1.1491,,,,,,,,0,2,2,157,1,
,,,,,,,,,,,,,,,,,5da4d35c84ea7900178a366c,33,2022-02-12_12h46.19.295,lexical_decision_task_DD_L5,2021.2.3,Win32,59.79788315,,,,,,,,,,,0.6061,1,,,,,,,,,,,,,,,,,,,,,,,,0.456666667,-0.154444444,0,0,0,,,,,,,WAGON,LB,m,y,./images/WAGONLB.png,,,,,,,,,,,,,,,,,,,,,m,1,0.6061,,,,,,,,0,3,3,7,1,
,,,,,,,,,,,,,,,,,5da4d35c84ea7900178a366c,33,2022-02-12_12h46.19.295,lexical_decision_task_DD_L5,2021.2.3,Win32,59.79788315,,,,,,,,,,,1.1314,1,,,,,,,,,,,,,,,,,,,,,,,,0.456666667,-0.154444444,0,0,0,,,,,,,PACKET,C,z,y,./images/PACKET.png,,,,,,,,,,,,,,,,,,,,,z,1,1.1314,,,,,,,,0,4,4,140,1,
,,,,,,,,,,,,,,,,,5da4d35c84ea7900178a366c,33,2022-02-12_12h46.19.295,lexical_decision_task_DD_L5,2021.2.3,Win32,59.79788315,,,,,,,,,,,0.7874,1,,,,,,,,,,,,,,,,,,,,,,,,0.456666667,-0.154444444,0,0,0,,,,,,,CANOE,LB,m,y,./images/CANOELB.png,,,,,,,,,,,,,,,,,,,,,m,1,0.7874,,,,,,,,0,5,5,58,1,
,,,,,,,,,,,,,,,,,5da4d35c84ea7900178a366c,33,2022-02-12_12h46.19.295,lexical_decision_task_DD_L5,2021.2.3,Win32,59.79788315,,,,,,,,,,,0.8982,1,,,,,,,,,,,,,,,,,,,,,,,,0.456666667,-0.154444444,0,0,0,,,,,,,TRIPOD,HB,z,y,./images/TRIPODHB.png,,,,,,,,,,,,,,,,,,,,,z,1,0.8982,,,,,,,,0,6,6,138,1,
,,,,,,,,,,,,,,,,,5da4d35c84ea7900178a366c,33,2022-02-12_12h46.19.295,lexical_decision_task_DD_L5,2021.2.3,Win32,59.79788315,,,,,,,,,,,0.7477,1,,,,,,,,,,,,,,,,,,,,,,,,0.456666667,-0.154444444,0,0,0,,,,,,,FARMER,C,z,y,./images/FARMER.png,,,,,,,,,,,,,,,,,,,,,z,1,0.7477,,,,,,,,0,7,7,149,1,
,,,,,,,,,,,,,,,,,5da4d35c84ea7900178a366c,33,2022-02-12_12h46.19.295,lexical_decision_task_DD_L5,2021.2.3,Win32,59.79788315,,,,,,,,,,,0.5587,1,,,,,,,,,,,,,,,,,,,,,,,,0.456666667,-0.154444444,0,0,0,,,,,,,CLOUD,C,m,y,./images/CLOUD.png,,,,,,,,,,,,,,,,,,,,,m,1,0.5587,,,,,,,,0,8,8,26,1,
,,,,,,,,,,,,,,,,,5da4d35c84ea7900178a366c,33,2022-02-12_12h46.19.295,lexical_decision_task_DD_L5,2021.2.3,Win32,59.79788315,,,,,,,,,,,1.1128,0,,,,,,,,,,,,,,,,,,,,,,,,0.456666667,-0.154444444,0,0,0,,,,,,,GARDEN,LB,m,y,./images/GARDENLB.png,,,,,,,,,,,,,,,,,,,,,z,0,1.1128,,,,,,,,0,9,9,10,1,
,,,,,,,,,,,,,,,,,5da4d35c84ea7900178a366c,33,2022-02-12_12h46.19.295,lexical_decision_task_DD_L5,2021.2.3,Win32,59.79788315,,,,,,,,,,,0.6219,1,,,,,,,,,,,,,,,,,,,,,,,,0.456666667,-0.154444444,0,0,0,,,,,,,MAMMAL,C,m,y,./images/MAMMAL.png,,,,,,,,,,,,,,,,,,,,,m,1,0.6219,,,,,,,,0,10,10,62,1,
,,,,,,,,,,,,,,,,,5da4d35c84ea7900178a366c,33,2022-02-12_12h46.19.295,lexical_decision_task_DD_L5,2021.2.3,Win32,59.79788315,,,,,,,,,,,0.9225,1,,,,,,,,,,,,,,,,,,,,,,,,0.456666667,-0.154444444,0,0,0,,,,,,,BRIDE,LB,m,y,./images/BRIDELB.png,,,,,,,,,,,,,,,,,,,,,m,1,0.9225,,,,,,,,0,11,11,64,1,
,,,,,,,,,,,,,,,,,5da4d35c84ea7900178a366c,33,2022-02-12_12h46.19.295,lexical_decision_task_DD_L5,2021.2.3,Win32,59.79788315,,,,,,,,,,,0.9088,0,,,,,,,,,,,,,,,,,,,,,,,,0.456666667,-0.154444444,0,0,0,,,,,,,SHORE,HB,z,y,./images/SHOREHB.png,,,,,,,,,,,,,,,,,,,,,m,0,0.9088,,,,,,,,0,12,12,96,1,
,,,,,,,,,,,,,,,,,5da4d35c84ea7900178a366c,33,2022-02-12_12h46.19.295,lexical_decision_task_DD_L5,2021.2.3,Win32,59.79788315,,,,,,,,,,,0.7924,0,,,,,,,,,,,,,,,,,,,,,,,,0.456666667,-0.154444444,0,0,0,,,,,,,FINGER,HB,z,y,./images/FINGERHB.png,,,,,,,,,,,,,,,,,,,,,m,0,0.7924,,,,,,,,0,13,13,87,1,
,,,,,,,,,,,,,,,,,5da4d35c84ea7900178a366c,33,2022-02-12_12h46.19.295,lexical_decision_task_DD_L5,2021.2.3,Win32,59.79788315,,,,,,,,,,,0.671,1,,,,,,,,,,,,,,,,,,,,,,,,0.456666667,-0.154444444,0,0,0,,,,,,,VALLEY,C,m,y,./images/VALLEY.png,,,,,,,,,,,,,,,,,,,,,m,1,0.671,,,,,,,,0,14,14,68,1,
,,,,,,,,,,,,,,,,,5da4d35c84ea7900178a366c,33,2022-02-12_12h46.19.295,lexical_decision_task_DD_L5,2021.2.3,Win32,59.79788315,,,,,,,,,,,0.7789,1,,,,,,,,,,,,,,,,,,,,,,,,0.456666667,-0.154444444,0,0,0,,,,,,,BAKER,HB,m,y,./images/BAKERHB.png,,,,,,,,,,,,,,,,,,,,,m,1,0.7789,,,,,,,,0,15,15,63,1,
,,,,,,,,,,,,,,,,,5da4d35c84ea7900178a366c,33,2022-02-12_12h46.19.295,lexical_decision_task_DD_L5,2021.2.3,Win32,59.79788315,,,,,,,,,,,1.3551,1,,,,,,,,,,,,,,,,,,,,,,,,0.456666667,-0.154444444,0,0,0,,,,,,,BUBBLE,C,m,y,./images/BUBBLE.png,,,,,,,,,,,,,,,,,,,,,m,1,1.3551,,,,,,,,0,16,16,71,1,
,,,,,,,,,,,,,,,,,5da4d35c84ea7900178a366c,33,2022-02-12_12h46.19.295,lexical_decision_task_DD_L5,2021.2.3,Win32,59.79788315,,,,,,,,,,,0.7147,0,,,,,,,,,,,,,,,,,,,,,,,,0.456666667,-0.154444444,0,0,0,,,,,,,BABOON,LB,z,y,./images/BABOONLB.png,,,,,,,,,,,,,,,,,,,,,m,0,0.7147,,,,,,,,0,17,17,142,1,
,,,,,,,,,,,,,,,,,5da4d35c84ea7900178a366c,33,2022-02-12_12h46.19.295,lexical_decision_task_DD_L5,2021.2.3,Win32,59.79788315,,,,,,,,,,,0.9541,1,,,,,,,,,,,,,,,,,,,,,,,,0.456666667,-0.154444444,0,0,0,,,,,,,ARROW,HB,m,y,./images/ARROWHB.png,,,,,,,,,,,,,,,,,,,,,m,1,0.9541,,,,,,,,0,18,18,69,1,
,,,,,,,,,,,,,,,,,5da4d35c84ea7900178a366c,33,2022-02-12_12h46.19.295,lexical_decision_task_DD_L5,2021.2.3,Win32,59.79788315,,,,,,,,,,,0.8859,1,,,,,,,,,,,,,,,,,,,,,,,,0.456666667,-0.154444444,0,0,0,,,,,,,GRAPE,LB,m,y,./images/GRAPELB.png,,,,,,,,,,,,,,,,,,,,,m,1,0.8859,,,,,,,,0,19,19,16,1,
,,,,,,,,,,,,,,,,,5da4d35c84ea7900178a366c,33,2022-02-12_12h46.19.295,lexical_decision_task_DD_L5,2021.2.3,Win32,59.79788315,,,,,,,,,,,1.1909,1,,,,,,,,,,,,,,,,,,,,,,,,0.456666667,-0.154444444,0,0,0,,,,,,,MALLET,C,z,y,./images/MALLET.png,,,,,,,,,,,,,,,,,,,,,z,1,1.1909,,,,,,,,0,20,20,134,1,
,,,,,,,,,,,,,,,,,5da4d35c84ea7900178a366c,33,2022-02-12_12h46.19.295,lexical_decision_task_DD_L5,2021.2.3,Win32,59.79788315,,,,,,,,,,,1.7275,0,,,,,,,,,,,,,,,,,,,,,,,,0.456666667,-0.154444444,0,0,0,,,,,,,CHALK,LB,m,y,./images/CHALKLB.png,,,,,,,,,,,,,,,,,,,,,z,0,1.7275,,,,,,,,0,21,21,25,1,
,,,,,,,,,,,,,,,,,5da4d35c84ea7900178a366c,33,2022-02-12_12h46.19.295,lexical_decision_task_DD_L5,2021.2.3,Win32,59.79788315,,,,,,,,,,,1.1365,1,,,,,,,,,,,,,,,,,,,,,,,,0.456666667,-0.154444444,0,0,0,,,,,,,GLOVE,LB,m,y,./images/GLOVELB.png,,,,,,,,,,,,,,,,,,,,,m,1,1.1365,,,,,,,,0,22,22,73,1,
,,,,,,,,,,,,,,,,,5da4d35c84ea7900178a366c,33,2022-02-12_12h46.19.295,lexical_decision_task_DD_L5,2021.2.3,Win32,59.79788315,,,,,,,,,,,1.2681,0,,,,,,,,,,,,,,,,,,,,,,,,0.456666667,-0.154444444,0,0,0,,,,,,,PLANK,LB,z,y,./images/PLANKLB.png,,,,,,,,,,,,,,,,,,,,,m,0,1.2681,,,,,,,,0,23,23,85,1,
,,,,,,,,,,,,,,,,,5da4d35c84ea7900178a366c,33,2022-02-12_12h46.19.295,lexical_decision_task_DD_L5,2021.2.3,Win32,59.79788315,,,,,,,,,,,0.6565,1,,,,,,,,,,,,,,,,,,,,,,,,0.456666667,-0.154444444,0,0,0,,,,,,,BOILER,HB,m,y,./images/BOILERHB.png,,,,,,,,,,,,,,,,,,,,,m,1,0.6565,,,,,,,,0,24,24,36,1,
,,,,,,,,,,,,,,,,,5da4d35c84ea7900178a366c,33,2022-02-12_12h46.19.295,lexical_decision_task_DD_L5,2021.2.3,Win32,59.79788315,,,,,,,,,,,0.9777,0,,,,,,,,,,,,,,,,,,,,,,,,0.456666667,-0.154444444,0,0,0,,,,,,,DRILL,HB,m,y,./images/DRILLHB.png,,,,,,,,,,,,,,,,,,,,,z,0,0.9777,,,,,,,,0,25,25,81,1,
,,,,,,,,,,,,,,,,,5da4d35c84ea7900178a366c,33,2022-02-12_12h46.19.295,lexical_decision_task_DD_L5,2021.2.3,Win32,59.79788315,,,,,,,,,,,1.0061,1,,,,,,,,,,,,,,,,,,,,,,,,0.456666667,-0.154444444,0,0,0,,,,,,,CANDLE,LB,z,y,./images/CANDLELB.png,,,,,,,,,,,,,,,,,,,,,z,1,1.0061,,,,,,,,0,26,26,145,1,
,,,,,,,,,,,,,,,,,5da4d35c84ea7900178a366c,33,2022-02-12_12h46.19.295,lexical_decision_task_DD_L5,2021.2.3,Win32,59.79788315,,,,,,,,,,,0.7562,1,,,,,,,,,,,,,,,,,,,,,,,,0.456666667,-0.154444444,0,0,0,,,,,,,JELLY,LB,z,y,./images/JELLYLB.png,,,,,,,,,,,,,,,,,,,,,z,1,0.7562,,,,,,,,0,27,27,148,1,
,,,,,,,,,,,,,,,,,5da4d35c84ea7900178a366c,33,2022-02-12_12h46.19.295,lexical_decision_task_DD_L5,2021.2.3,Win32,59.79788315,,,,,,,,,,,0.6901,1,,,,,,,,,,,,,,,,,,,,,,,,0.456666667,-0.154444444,0,0,0,,,,,,,BROOM,HB,m,y,./images/BROOMHB.png,,,,,,,,,,,,,,,,,,,,,m,1,0.6901,,,,,,,,0,28,28,78,1,
,,,,,,,,,,,,,,,,,5da4d35c84ea7900178a366c,33,2022-02-12_12h46.19.295,lexical_decision_task_DD_L5,2021.2.3,Win32,59.79788315,,,,,,,,,,,1.1088,1,,,,,,,,,,,,,,,,,,,,,,,,0.456666667,-0.154444444,0,0,0,,,,,,,STOOL,LB,m,y,./images/STOOLLB.png,,,,,,,,,,,,,,,,,,,,,m,1,1.1088,,,,,,,,0,29,29,43,1,
,,,,,,,,,,,,,,,,,5da4d35c84ea7900178a366c,33,2022-02-12_12h46.19.295,lexical_decision_task_DD_L5,2021.2.3,Win32,59.79788315,,,,,,,,,,,1.0428,1,,,,,,,,,,,,,,,,,,,,,,,,0.456666667,-0.154444444,0,0,0,,,,,,,LADDER,C,z,y,./images/LADDER.png,,,,,,,,,,,,,,,,,,,,,z,1,1.0428,,,,,,,,0,30,30,122,1,
,,,,,,,,,,,,,,,,,5da4d35c84ea7900178a366c,33,2022-02-12_12h46.19.295,lexical_decision_task_DD_L5,2021.2.3,Win32,59.79788315,,,,,,,,,,,0.789,1,,,,,,,,,,,,,,,,,,,,,,,,0.456666667,-0.154444444,0,0,0,,,,,,,BASKET,C,m,y,./images/BASKET.png,,,,,,,,,,,,,,,,,,,,,m,1,0.789,,,,,,,,0,31,31,44,1,
,,,,,,,,,,,,,,,,,5da4d35c84ea7900178a366c,33,2022-02-12_12h46.19.295,lexical_decision_task_DD_L5,2021.2.3,Win32,59.79788315,,,,,,,,,,,0.7248,1,,,,,,,,,,,,,,,,,,,,,,,,0.456666667,-0.154444444,0,0,0,,,,,,,ATTIC,HB,z,y,./images/ATTICHB.png,,,,,,,,,,,,,,,,,,,,,z,1,0.7248,,,,,,,,0,32,32,111,1,
,,,,,,,,,,,,,,,,,5da4d35c84ea7900178a366c,33,2022-02-12_12h46.19.295,lexical_decision_task_DD_L5,2021.2.3,Win32,59.79788315,,,,,,,,,,,1.1486,1,,,,,,,,,,,,,,,,,,,,,,,,0.456666667,-0.154444444,0,0,0,,,,,,,SUNSET,LB,z,y,./images/SUNSETLB.png,,,,,,,,,,,,,,,,,,,,,z,1,1.1486,,,,,,,,0,33,33,166,1,
,,,,,,,,,,,,,,,,,5da4d35c84ea7900178a366c,33,2022-02-12_12h46.19.295,lexical_decision_task_DD_L5,2021.2.3,Win32,59.79788315,,,,,,,,,,,0.7949,1,,,,,,,,,,,,,,,,,,,,,,,,0.456666667,-0.154444444,0,0,0,,,,,,,BIRTH,LB,z,y,./images/BIRTHLB.png,,,,,,,,,,,,,,,,,,,,,z,1,0.7949,,,,,,,,0,34,34,121,1,
,,,,,,,,,,,,,,,,,5da4d35c84ea7900178a366c,33,2022-02-12_12h46.19.295,lexical_decision_task_DD_L5,2021.2.3,Win32,59.79788315,,,,,,,,,,,0.5951,1,,,,,,,,,,,,,,,,,,,,,,,,0.456666667,-0.154444444,0,0,0,,,,,,,CHERRY,HB,m,y,./images/CHERRYHB.png,,,,,,,,,,,,,,,,,,,,,m,1,0.5951,,,,,,,,0,35,35,54,1,
,,,,,,,,,,,,,,,,,5da4d35c84ea7900178a366c,33,2022-02-12_12h46.19.295,lexical_decision_task_DD_L5,2021.2.3,Win32,59.79788315,,,,,,,,,,,1.3036,0,,,,,,,,,,,,,,,,,,,,,,,,0.456666667,-0.154444444,0,0,0,,,,,,,MOOSE,HB,z,y,./images/MOOSEHB.png,,,,,,,,,,,,,,,,,,,,,m,0,1.3036,,,,,,,,0,36,36,141,1,
,,,,,,,,,,,,,,,,,5da4d35c84ea7900178a366c,33,2022-02-12_12h46.19.295,lexical_decision_task_DD_L5,2021.2.3,Win32,59.79788315,,,,,,,,,,,0.6149,1,,,,,,,,,,,,,,,,,,,,,,,,0.456666667,-0.154444444,0,0,0,,,,,,,CHAIN,HB,m,y,./images/CHAINHB.png,,,,,,,,,,,,,,,,,,,,,m,1,0.6149,,,,,,,,0,37,37,42,1,
,,,,,,,,,,,,,,,,,5da4d35c84ea7900178a366c,33,2022-02-12_12h46.19.295,lexical_decision_task_DD_L5,2021.2.3,Win32,59.79788315,,,,,,,,,,,1.0422,1,,,,,,,,,,,,,,,,,,,,,,,,0.456666667,-0.154444444,0,0,0,,,,,,,PASTA,C,z,y,./images/PASTA.png,,,,,,,,,,,,,,,,,,,,,z,1,1.0422,,,,,,,,0,38,38,89,1,
,,,,,,,,,,,,,,,,,5da4d35c84ea7900178a366c,33,2022-02-12_12h46.19.295,lexical_decision_task_DD_L5,2021.2.3,Win32,59.79788315,,,,,,,,,,,0.8621,1,,,,,,,,,,,,,,,,,,,,,,,,0.456666667,-0.154444444,0,0,0,,,,,,,KITTEN,HB,z,y,./images/KITTENHB.png,,,,,,,,,,,,,,,,,,,,,z,1,0.8621,,,,,,,,0,39,39,129,1,
,,,,,,,,,,,,,,,,,5da4d35c84ea7900178a366c,33,2022-02-12_12h46.19.295,lexical_decision_task_DD_L5,2021.2.3,Win32,59.79788315,,,,,,,,,,,0.7892,1,,,,,,,,,,,,,,,,,,,,,,,,0.456666667,-0.154444444,0,0,0,,,,,,,WALRUS,C,z,y,./images/WALRUS.png,,,,,,,,,,,,,,,,,,,,,z,1,0.7892,,,,,,,,0,40,40,107,1,
,,,,,,,,,,,,,,,,,5da4d35c84ea7900178a366c,33,2022-02-12_12h46.19.295,lexical_decision_task_DD_L5,2021.2.3,Win32,59.79788315,,,,,,,,,,,0.7817,1,,,,,,,,,,,,,,,,,,,,,,,,0.456666667,-0.154444444,0,0,0,space,,,,,,HEATER,C,m,y,./images/HEATER.png,,,,,,,,,,,,,,,,,,,,,m,1,0.7817,,,,,,,,0,41,41,56,1,4.6241
,,,,,,,,,,,,,,,,,5da4d35c84ea7900178a366c,33,2022-02-12_12h46.19.295,lexical_decision_task_DD_L5,2021.2.3,Win32,59.79788315,,,,,,,,,,,0.7194,1,,,,,,,,,,,,,,,,,,,,,,,,0.456666667,-0.154444444,0,0,0,,,,,,,CLOWN,LB,m,y,./images/CLOWNLB.png,,,,,,,,,,,,,,,,,,,,,m,1,0.7194,,,,,,,,0,42,42,22,1,
,,,,,,,,,,,,,,,,,5da4d35c84ea7900178a366c,33,2022-02-12_12h46.19.295,lexical_decision_task_DD_L5,2021.2.3,Win32,59.79788315,,,,,,,,,,,0.7031,1,,,,,,,,,,,,,,,,,,,,,,,,0.456666667,-0.154444444,0,0,0,,,,,,,SPINE,C,m,y,./images/SPINE.png,,,,,,,,,,,,,,,,,,,,,m,1,0.7031,,,,,,,,0,43,43,65,1,
,,,,,,,,,,,,,,,,,5da4d35c84ea7900178a366c,33,2022-02-12_12h46.19.295,lexical_decision_task_DD_L5,2021.2.3,Win32,59.79788315,,,,,,,,,,,0.6809,1,,,,,,,,,,,,,,,,,,,,,,,,0.456666667,-0.154444444,0,0,0,,,,,,,STEAK,LB,m,y,./images/STEAKLB.png,,,,,,,,,,,,,,,,,,,,,m,1,0.6809,,,,,,,,0,44,44,31,1,
,,,,,,,,,,,,,,,,,5da4d35c84ea7900178a366c,33,2022-02-12_12h46.19.295,lexical_decision_task_DD_L5,2021.2.3,Win32,59.79788315,,,,,,,,,,,0.9674,1,,,,,,,,,,,,,,,,,,,,,,,,0.456666667,-0.154444444,0,0,0,,,,,,,SLOPE,HB,m,y,./images/SLOPEHB.png,,,,,,,,,,,,,,,,,,,,,m,1,0.9674,,,,,,,,0,45,45,30,1,
,,,,,,,,,,,,,,,,,5da4d35c84ea7900178a366c,33,2022-02-12_12h46.19.295,lexical_decision_task_DD_L5,2021.2.3,Win32,59.79788315,,,,,,,,,,,0.6375,1,,,,,,,,,,,,,,,,,,,,,,,,0.456666667,-0.154444444,0,0,0,,,,,,,LAGOON,C,m,y,./images/LAGOON.png,,,,,,,,,,,,,,,,,,,,,m,1,0.6375,,,,,,,,0,46,46,47,1,
,,,,,,,,,,,,,,,,,5da4d35c84ea7900178a366c,33,2022-02-12_12h46.19.295,lexical_decision_task_DD_L5,2021.2.3,Win32,59.79788315,,,,,,,,,,,0.6024,1,,,,,,,,,,,,,,,,,,,,,,,,0.456666667,-0.154444444,0,0,0,,,,,,,MUSCLE,LB,z,y,./images/MUSCLELB.png,,,,,,,,,,,,,,,,,,,,,z,1,0.6024,,,,,,,,0,47,47,88,1,
,,,,,,,,,,,,,,,,,5da4d35c84ea7900178a366c,33,2022-02-12_12h46.19.295,lexical_decision_task_DD_L5,2021.2.3,Win32,59.79788315,,,,,,,,,,,1.0899,1,,,,,,,,,,,,,,,,,,,,,,,,0.456666667,-0.154444444,0,0,0,,,,,,,BRUSH,C,m,y,./images/BRUSH.png,,,,,,,,,,,,,,,,,,,,,m,1,1.0899,,,,,,,,0,48,48,59,1,
,,,,,,,,,,,,,,,,,5da4d35c84ea7900178a366c,33,2022-02-12_12h46.19.295,lexical_decision_task_DD_L5,2021.2.3,Win32,59.79788315,,,,,,,,,,,0.9363,0,,,,,,,,,,,,,,,,,,,,,,,,0.456666667,-0.154444444,0,0,0,,,,,,,SWING,LB,z,y,./images/SWINGLB.png,,,,,,,,,,,,,,,,,,,,,m,0,0.9363,,,,,,,,0,49,49,124,1,
,,,,,,,,,,,,,,,,,5da4d35c84ea7900178a366c,33,2022-02-12_12h46.19.295,lexical_decision_task_DD_L5,2021.2.3,Win32,59.79788315,,,,,,,,,,,0.8043,0,,,,,,,,,,,,,,,,,,,,,,,,0.456666667,-0.154444444,0,0,0,,,,,,,MIRROR,HB,z,y,./images/MIRRORHB.png,,,,,,,,,,,,,,,,,,,,,m,0,0.8043,,,,,,,,0,50,50,147,1,
,,,,,,,,,,,,,,,,,5da4d35c84ea7900178a366c,33,2022-02-12_12h46.19.295,lexical_decision_task_DD_L5,2021.2.3,Win32,59.79788315,,,,,,,,,,,0.7492,1,,,,,,,,,,,,,,,,,,,,,,,,0.456666667,-0.154444444,0,0,0,,,,,,,DRUMS,LB,z,y,./images/DRUMSLB.png,,,,,,,,,,,,,,,,,,,,,z,1,0.7492,,,,,,,,0,51,51,133,1,
,,,,,,,,,,,,,,,,,5da4d35c84ea7900178a366c,33,2022-02-12_12h46.19.295,lexical_decision_task_DD_L5,2021.2.3,Win32,59.79788315,,,,,,,,,,,0.6397,1,,,,,,,,,,,,,,,,,,,,,,,,0.456666667,-0.154444444,0,0,0,,,,,,,CEMENT,C,z,y,./images/CEMENT.png,,,,,,,,,,,,,,,,,,,,,z,1,0.6397,,,,,,,,0,52,52,158,1,
,,,,,,,,,,,,,,,,,5da4d35c84ea7900178a366c,33,2022-02-12_12h46.19.295,lexical_decision_task_DD_L5,2021.2.3,Win32,59.79788315,,,,,,,,,,,1.0372,0,,,,,,,,,,,,,,,,,,,,,,,,0.456666667,-0.154444444,0,0,0,,,,,,,CANDY,HB,m,y,./images/CANDYHB.png,,,,,,,,,,,,,,,,,,,,,z,0,1.0372,,,,,,,,0,53,53,39,1,
,,,,,,,,,,,,,,,,,5da4d35c84ea7900178a366c,33,2022-02-12_12h46.19.295,lexical_decision_task_DD_L5,2021.2.3,Win32,59.79788315,,,,,,,,,,,0.6011,1,,,,,,,,,,,,,,,,,,,,,,,,0.456666667,-0.154444444,0,0,0,,,,,,,BUNNY,LB,m,y,./images/BUNNYLB.png,,,,,,,,,,,,,,,,,,,,,m,1,0.6011,,,,,,,,0,54,54,13,1,
,,,,,,,,,,,,,,,,,5da4d35c84ea7900178a366c,33,2022-02-12_12h46.19.295,lexical_decision_task_DD_L5,2021.2.3,Win32,59.79788315,,,,,,,,,,,0.7485,1,,,,,,,,,,,,,,,,,,,,,,,,0.456666667,-0.154444444,0,0,0,,,,,,,KIDNEY,HB,z,y,./images/KIDNEYHB.png,,,,,,,,,,,,,,,,,,,,,z,1,0.7485,,,,,,,,0,55,55,105,1,
,,,,,,,,,,,,,,,,,5da4d35c84ea7900178a366c,33,2022-02-12_12h46.19.295,lexical_decision_task_DD_L5,2021.2.3,Win32,59.79788315,,,,,,,,,,,0.8635,1,,,,,,,,,,,,,,,,,,,,,,,,0.456666667,-0.154444444,0,0,0,,,,,,,PIMPLE,C,z,y,./images/PIMPLE.png,,,,,,,,,,,,,,,,,,,,,z,1,0.8635,,,,,,,,0,56,56,155,1,
,,,,,,,,,,,,,,,,,5da4d35c84ea7900178a366c,33,2022-02-12_12h46.19.295,lexical_decision_task_DD_L5,2021.2.3,Win32,59.79788315,,,,,,,,,,,0.9368,1,,,,,,,,,,,,,,,,,,,,,,,,0.456666667,-0.154444444,0,0,0,,,,,,,POKER,LB,m,y,./images/POKERLB.png,,,,,,,,,,,,,,,,,,,,,m,1,0.9368,,,,,,,,0,57,57,67,1,
,,,,,,,,,,,,,,,,,5da4d35c84ea7900178a366c,33,2022-02-12_12h46.19.295,lexical_decision_task_DD_L5,2021.2.3,Win32,59.79788315,,,,,,,,,,,0.6065,1,,,,,,,,,,,,,,,,,,,,,,,,0.456666667,-0.154444444,0,0,0,,,,,,,PEARL,LB,z,y,./images/PEARLLB.png,,,,,,,,,,,,,,,,,,,,,z,1,0.6065,,,,,,,,0,58,58,130,1,
,,,,,,,,,,,,,,,,,5da4d35c84ea7900178a366c,33,2022-02-12_12h46.19.295,lexical_decision_task_DD_L5,2021.2.3,Win32,59.79788315,,,,,,,,,,,0.696,1,,,,,,,,,,,,,,,,,,,,,,,,0.456666667,-0.154444444,0,0,0,,,,,,,TIGER,LB,m,y,./images/TIGERLB.png,,,,,,,,,,,,,,,,,,,,,m,1,0.696,,,,,,,,0,59,59,37,1,
,,,,,,,,,,,,,,,,,5da4d35c84ea7900178a366c,33,2022-02-12_12h46.19.295,lexical_decision_task_DD_L5,2021.2.3,Win32,59.79788315,,,,,,,,,,,0.6866,1,,,,,,,,,,,,,,,,,,,,,,,,0.456666667,-0.154444444,0,0,0,,,,,,,FALCON,LB,z,y,./images/FALCONLB.png,,,,,,,,,,,,,,,,,,,,,z,1,0.6866,,,,,,,,0,60,60,112,1,
,,,,,,,,,,,,,,,,,5da4d35c84ea7900178a366c,33,2022-02-12_12h46.19.295,lexical_decision_task_DD_L5,2021.2.3,Win32,59.79788315,,,,,,,,,,,1.0149,1,,,,,,,,,,,,,,,,,,,,,,,,0.456666667,-0.154444444,0,0,0,,,,,,,PICKLE,C,z,y,./images/PICKLE.png,,,,,,,,,,,,,,,,,,,,,z,1,1.0149,,,,,,,,0,61,61,98,1,
,,,,,,,,,,,,,,,,,5da4d35c84ea7900178a366c,33,2022-02-12_12h46.19.295,lexical_decision_task_DD_L5,2021.2.3,Win32,59.79788315,,,,,,,,,,,0.8361,1,,,,,,,,,,,,,,,,,,,,,,,,0.456666667,-0.154444444,0,0,0,,,,,,,PEBBLE,LB,m,y,./images/PEBBLELB.png,,,,,,,,,,,,,,,,,,,,,m,1,0.8361,,,,,,,,0,62,62,82,1,
,,,,,,,,,,,,,,,,,5da4d35c84ea7900178a366c,33,2022-02-12_12h46.19.295,lexical_decision_task_DD_L5,2021.2.3,Win32,59.79788315,,,,,,,,,,,0.6729,1,,,,,,,,,,,,,,,,,,,,,,,,0.456666667,-0.154444444,0,0,0,,,,,,,DESERT,LB,m,y,./images/DESERTLB.png,,,,,,,,,,,,,,,,,,,,,m,1,0.6729,,,,,,,,0,63,63,52,1,
,,,,,,,,,,,,,,,,,5da4d35c84ea7900178a366c,33,2022-02-12_12h46.19.295,lexical_decision_task_DD_L5,2021.2.3,Win32,59.79788315,,,,,,,,,,,0.6596,1,,,,,,,,,,,,,,,,,,,,,,,,0.456666667,-0.154444444,0,0,0,,,,,,,TWINS,HB,z,y,./images/TWINSHB.png,,,,,,,,,,,,,,,,,,,,,z,1,0.6596,,,,,,,,0,64,64,144,1,
,,,,,,,,,,,,,,,,,5da4d35c84ea7900178a366c,33,2022-02-12_12h46.19.295,lexical_decision_task_DD_L5,2021.2.3,Win32,59.79788315,,,,,,,,,,,0.6359,1,,,,,,,,,,,,,,,,,,,,,,,,0.456666667,-0.154444444,0,0,0,,,,,,,ALLEY,LB,m,y,./images/ALLEYLB.png,,,,,,,,,,,,,,,,,,,,,m,1,0.6359,,,,,,,,0,65,65,55,1,
,,,,,,,,,,,,,,,,,5da4d35c84ea7900178a366c,33,2022-02-12_12h46.19.295,lexical_decision_task_DD_L5,2021.2.3,Win32,59.79788315,,,,,,,,,,,0.6498,1,,,,,,,,,,,,,,,,,,,,,,,,0.456666667,-0.154444444,0,0,0,,,,,,,SPORT,HB,z,y,./images/SPORTHB.png,,,,,,,,,,,,,,,,,,,,,z,1,0.6498,,,,,,,,0,66,66,132,1,
,,,,,,,,,,,,,,,,,5da4d35c84ea7900178a366c,33,2022-02-12_12h46.19.295,lexical_decision_task_DD_L5,2021.2.3,Win32,59.79788315,,,,,,,,,,,0.6659,1,,,,,,,,,,,,,,,,,,,,,,,,0.456666667,-0.154444444,0,0,0,,,,,,,PLANET,C,m,y,./images/PLANET.png,,,,,,,,,,,,,,,,,,,,,m,1,0.6659,,,,,,,,0,67,67,80,1,
,,,,,,,,,,,,,,,,,5da4d35c84ea7900178a366c,33,2022-02-12_12h46.19.295,lexical_decision_task_DD_L5,2021.2.3,Win32,59.79788315,,,,,,,,,,,0.7583,1,,,,,,,,,,,,,,,,,,,,,,,,0.456666667,-0.154444444,0,0,0,,,,,,,BEARD,C,z,y,./images/BEARD.png,,,,,,,,,,,,,,,,,,,,,z,1,0.7583,,,,,,,,0,68,68,86,1,
,,,,,,,,,,,,,,,,,5da4d35c84ea7900178a366c,33,2022-02-12_12h46.19.295,lexical_decision_task_DD_L5,2021.2.3,Win32,59.79788315,,,,,,,,,,,0.5978,1,,,,,,,,,,,,,,,,,,,,,,,,0.456666667,-0.154444444,0,0,0,,,,,,,MIDGET,LB,m,y,./images/MIDGETLB.png,,,,,,,,,,,,,,,,,,,,,m,1,0.5978,,,,,,,,0,69,69,76,1,
,,,,,,,,,,,,,,,,,5da4d35c84ea7900178a366c,33,2022-02-12_12h46.19.295,lexical_decision_task_DD_L5,2021.2.3,Win32,59.79788315,,,,,,,,,,,0.8761,1,,,,,,,,,,,,,,,,,,,,,,,,0.456666667,-0.154444444,0,0,0,,,,,,,SAUNA,HB,m,y,./images/SAUNAHB.png,,,,,,,,,,,,,,,,,,,,,m,1,0.8761,,,,,,,,0,70,70,33,1,
,,,,,,,,,,,,,,,,,5da4d35c84ea7900178a366c,33,2022-02-12_12h46.19.295,lexical_decision_task_DD_L5,2021.2.3,Win32,59.79788315,,,,,,,,,,,0.7505,1,,,,,,,,,,,,,,,,,,,,,,,,0.456666667,-0.154444444,0,0,0,,,,,,,SHELF,HB,z,y,./images/SHELFHB.png,,,,,,,,,,,,,,,,,,,,,z,1,0.7505,,,,,,,,0,71,71,123,1,
,,,,,,,,,,,,,,,,,5da4d35c84ea7900178a366c,33,2022-02-12_12h46.19.295,lexical_decision_task_DD_L5,2021.2.3,Win32,59.79788315,,,,,,,,,,,0.899,1,,,,,,,,,,,,,,,,,,,,,,,,0.456666667,-0.154444444,0,0,0,,,,,,,STOVE,C,m,y,./images/STOVE.png,,,,,,,,,,,,,,,,,,,,,m,1,0.899,,,,,,,,0,72,72,2,1,
,,,,,,,,,,,,,,,,,5da4d35c84ea7900178a366c,33,2022-02-12_12h46.19.295,lexical_decision_task_DD_L5,2021.2.3,Win32,59.79788315,,,,,,,,,,,0.7659,1,,,,,,,,,,,,,,,,,,,,,,,,0.456666667,-0.154444444,0,0,0,,,,,,,CRUST,LB,z,y,./images/CRUSTLB.png,,,,,,,,,,,,,,,,,,,,,z,1,0.7659,,,,,,,,0,73,73,163,1,
,,,,,,,,,,,,,,,,,5da4d35c84ea7900178a366c,33,2022-02-12_12h46.19.295,lexical_decision_task_DD_L5,2021.2.3,Win32,59.79788315,,,,,,,,,,,0.8498,1,,,,,,,,,,,,,,,,,,,,,,,,0.456666667,-0.154444444,0,0,0,,,,,,,RULER,LB,m,y,./images/RULERLB.png,,,,,,,,,,,,,,,,,,,,,m,1,0.8498,,,,,,,,0,74,74,79,1,
,,,,,,,,,,,,,,,,,5da4d35c84ea7900178a366c,33,2022-02-12_12h46.19.295,lexical_decision_task_DD_L5,2021.2.3,Win32,59.79788315,,,,,,,,,,,0.7099,1,,,,,,,,,,,,,,,,,,,,,,,,0.456666667,-0.154444444,0,0,0,,,,,,,CRATER,HB,m,y,./images/CRATERHB.png,,,,,,,,,,,,,,,,,,,,,m,1,0.7099,,,,,,,,0,75,75,3,1,
,,,,,,,,,,,,,,,,,5da4d35c84ea7900178a366c,33,2022-02-12_12h46.19.295,lexical_decision_task_DD_L5,2021.2.3,Win32,59.79788315,,,,,,,,,,,0.7998,0,,,,,,,,,,,,,,,,,,,,,,,,0.456666667,-0.154444444,0,0,0,,,,,,,SNAKE,LB,m,y,./images/SNAKELB.png,,,,,,,,,,,,,,,,,,,,,z,0,0.7998,,,,,,,,0,76,76,40,1,
,,,,,,,,,,,,,,,,,5da4d35c84ea7900178a366c,33,2022-02-12_12h46.19.295,lexical_decision_task_DD_L5,2021.2.3,Win32,59.79788315,,,,,,,,,,,1.306,0,,,,,,,,,,,,,,,,,,,,,,,,0.456666667,-0.154444444,0,0,0,,,,,,,HAMMER,HB,m,y,./images/HAMMERHB.png,,,,,,,,,,,,,,,,,,,,,z,0,1.306,,,,,,,,0,77,77,75,1,
,,,,,,,,,,,,,,,,,5da4d35c84ea7900178a366c,33,2022-02-12_12h46.19.295,lexical_decision_task_DD_L5,2021.2.3,Win32,59.79788315,,,,,,,,,,,0.7125,1,,,,,,,,,,,,,,,,,,,,,,,,0.456666667,-0.154444444,0,0,0,,,,,,,MOSQUE,LB,z,y,./images/MOSQUELB.png,,,,,,,,,,,,,,,,,,,,,z,1,0.7125,,,,,,,,0,78,78,127,1,
,,,,,,,,,,,,,,,,,5da4d35c84ea7900178a366c,33,2022-02-12_12h46.19.295,lexical_decision_task_DD_L5,2021.2.3,Win32,59.79788315,,,,,,,,,,,0.6948,1,,,,,,,,,,,,,,,,,,,,,,,,0.456666667,-0.154444444,0,0,0,,,,,,,FERRY,HB,m,y,./images/FERRYHB.png,,,,,,,,,,,,,,,,,,,,,m,1,0.6948,,,,,,,,0,79,79,57,1,
,,,,,,,,,,,,,,,,,5da4d35c84ea7900178a366c,33,2022-02-12_12h46.19.295,lexical_decision_task_DD_L5,2021.2.3,Win32,59.79788315,,,,,,,,,,,0.6529,1,,,,,,,,,,,,,,,,,,,,,,,,0.456666667,-0.154444444,0,0,0,,,,,,,BURIAL,C,z,y,./images/BURIAL.png,,,,,,,,,,,,,,,,,,,,,z,1,0.6529,,,,,,,,0,80,80,143,1,
,,,,,,,,,,,,,,,,,5da4d35c84ea7900178a366c,33,2022-02-12_12h46.19.295,lexical_decision_task_DD_L5,2021.2.3,Win32,59.79788315,,,,,,,,,,,0.8904,1,,,,,,,,,,,,,,,,,,,,,,,,0.456666667,-0.154444444,0,0,0,,,,,,,STRING,C,z,y,./images/STRING.png,,,,,,,,,,,,,,,,,,,,,z,1,0.8904,,,,,,,,0,81,81,125,1,
,,,,,,,,,,,,,,,,,5da4d35c84ea7900178a366c,33,2022-02-12_12h46.19.295,lexical_decision_task_DD_L5,2021.2.3,Win32,59.79788315,,,,,,,,,,,0.751,1,,,,,,,,,,,,,,,,,,,,,,,,0.456666667,-0.154444444,0,0,0,,,,,,,PAINT,LB,z,y,./images/PAINTLB.png,,,,,,,,,,,,,,,,,,,,,z,1,0.751,,,,,,,,0,82,82,91,1,
,,,,,,,,,,,,,,,,,5da4d35c84ea7900178a366c,33,2022-02-12_12h46.19.295,lexical_decision_task_DD_L5,2021.2.3,Win32,59.79788315,,,,,,,,,,,0.6932,1,,,,,,,,,,,,,,,,,,,,,,,,0.456666667,-0.154444444,0,0,0,space,,,,,,JAGUAR,HB,z,y,./images/JAGUARHB.png,,,,,,,,,,,,,,,,,,,,,z,1,0.6932,,,,,,,,0,83,83,102,1,1.4278
,,,,,,,,,,,,,,,,,5da4d35c84ea7900178a366c,33,2022-02-12_12h46.19.295,lexical_decision_task_DD_L5,2021.2.3,Win32,59.79788315,,,,,,,,,,,1.0715,1,,,,,,,,,,,,,,,,,,,,,,,,0.456666667,-0.154444444,0,0,0,,,,,,,WEASEL,C,z,y,./images/WEASEL.png,,,,,,,,,,,,,,,,,,,,,z,1,1.0715,,,,,,,,0,84,84,164,1,
,,,,,,,,,,,,,,,,,5da4d35c84ea7900178a366c,33,2022-02-12_12h46.19.295,lexical_decision_task_DD_L5,2021.2.3,Win32,59.79788315,,,,,,,,,,,0.5181,0,,,,,,,,,,,,,,,,,,,,,,,,0.456666667,-0.154444444,0,0,0,,,,,,,JUMPER,C,m,y,./images/JUMPER.png,,,,,,,,,,,,,,,,,,,,,z,0,0.5181,,,,,,,,0,85,85,74,1,
,,,,,,,,,,,,,,,,,5da4d35c84ea7900178a366c,33,2022-02-12_12h46.19.295,lexical_decision_task_DD_L5,2021.2.3,Win32,59.79788315,,,,,,,,,,,0.6527,1,,,,,,,,,,,,,,,,,,,,,,,,0.456666667,-0.154444444,0,0,0,,,,,,,PILOT,C,m,y,./images/PILOT.png,,,,,,,,,,,,,,,,,,,,,m,1,0.6527,,,,,,,,0,86,86,50,1,
,,,,,,,,,,,,,,,,,5da4d35c84ea7900178a366c,33,2022-02-12_12h46.19.295,lexical_decision_task_DD_L5,2021.2.3,Win32,59.79788315,,,,,,,,,,,0.7127,0,,,,,,,,,,,,,,,,,,,,,,,,0.456666667,-0.154444444,0,0,0,,,,,,,COLLAR,HB,m,y,./images/COLLARHB.png,,,,,,,,,,,,,,,,,,,,,z,0,0.7127,,,,,,,,0,87,87,15,1,
,,,,,,,,,,,,,,,,,5da4d35c84ea7900178a366c,33,2022-02-12_12h46.19.295,lexical_decision_task_DD_L5,2021.2.3,Win32,59.79788315,,,,,,,,,,,0.8261,0,,,,,,,,,,,,,,,,,,,,,,,,0.456666667,-0.154444444,0,0,0,,,,,,,PENCE,LB,z,y,./images/PENCELB.png,,,,,,,,,,,,,,,,,,,,,m,0,0.8261,,,,,,,,0,88,88,100,1,
,,,,,,,,,,,,,,,,,5da4d35c84ea7900178a366c,33,2022-02-12_12h46.19.295,lexical_decision_task_DD_L5,2021.2.3,Win32,59.79788315,,,,,,,,,,,0.6751,0,,,,,,,,,,,,,,,,,,,,,,,,0.456666667,-0.154444444,0,0,0,,,,,,,STATUE,HB,m,y,./images/STATUEHB.png,,,,,,,,,,,,,,,,,,,,,z,0,0.6751,,,,,,,,0,89,89,66,1,
,,,,,,,,,,,,,,,,,5da4d35c84ea7900178a366c,33,2022-02-12_12h46.19.295,lexical_decision_task_DD_L5,2021.2.3,Win32,59.79788315,,,,,,,,,,,0.7222,1,,,,,,,,,,,,,,,,,,,,,,,,0.456666667,-0.154444444,0,0,0,,,,,,,POODLE,HB,z,y,./images/POODLEHB.png,,,,,,,,,,,,,,,,,,,,,z,1,0.7222,,,,,,,,0,90,90,165,1,
,,,,,,,,,,,,,,,,,5da4d35c84ea7900178a366c,33,2022-02-12_12h46.19.295,lexical_decision_task_DD_L5,2021.2.3,Win32,59.79788315,,,,,,,,,,,0.9654,1,,,,,,,,,,,,,,,,,,,,,,,,0.456666667,-0.154444444,0,0,0,,,,,,,INFANT,LB,z,y,./images/INFANTLB.png,,,,,,,,,,,,,,,,,,,,,z,1,0.9654,,,,,,,,0,91,91,160,1,
,,,,,,,,,,,,,,,,,5da4d35c84ea7900178a366c,33,2022-02-12_12h46.19.295,lexical_decision_task_DD_L5,2021.2.3,Win32,59.79788315,,,,,,,,,,,0.8466,1,,,,,,,,,,,,,,,,,,,,,,,,0.456666667,-0.154444444,0,0,0,,,,,,,BUTTER,HB,m,y,./images/BUTTERHB.png,,,,,,,,,,,,,,,,,,,,,m,1,0.8466,,,,,,,,0,92,92,27,1,
,,,,,,,,,,,,,,,,,5da4d35c84ea7900178a366c,33,2022-02-12_12h46.19.295,lexical_decision_task_DD_L5,2021.2.3,Win32,59.79788315,,,,,,,,,,,1.0198,1,,,,,,,,,,,,,,,,,,,,,,,,0.456666667,-0.154444444,0,0,0,,,,,,,BELLY,LB,z,y,./images/BELLYLB.png,,,,,,,,,,,,,,,,,,,,,z,1,1.0198,,,,,,,,0,93,93,94,1,
,,,,,,,,,,,,,,,,,5da4d35c84ea7900178a366c,33,2022-02-12_12h46.19.295,lexical_decision_task_DD_L5,2021.2.3,Win32,59.79788315,,,,,,,,,,,0.7117,1,,,,,,,,,,,,,,,,,,,,,,,,0.456666667,-0.154444444,0,0,0,,,,,,,PARCEL,HB,m,y,./images/PARCELHB.png,,,,,,,,,,,,,,,,,,,,,m,1,0.7117,,,,,,,,0,94,94,18,1,
,,,,,,,,,,,,,,,,,5da4d35c84ea7900178a366c,33,2022-02-12_12h46.19.295,lexical_decision_task_DD_L5,2021.2.3,Win32,59.79788315,,,,,,,,,,,1.1822,1,,,,,,,,,,,,,,,,,,,,,,,,0.456666667,-0.154444444,0,0,0,,,,,,,TOMATO,HB,z,y,./images/TOMATOHB.png,,,,,,,,,,,,,,,,,,,,,z,1,1.1822,,,,,,,,0,95,95,84,1,
,,,,,,,,,,,,,,,,,5da4d35c84ea7900178a366c,33,2022-02-12_12h46.19.295,lexical_decision_task_DD_L5,2021.2.3,Win32,59.79788315,,,,,,,,,,,0.6489,1,,,,,,,,,,,,,,,,,,,,,,,,0.456666667,-0.154444444,0,0,0,,,,,,,SQUARE,HB,z,y,./images/SQUAREHB.png,,,,,,,,,,,,,,,,,,,,,z,1,0.6489,,,,,,,,0,96,96,90,1,
,,,,,,,,,,,,,,,,,5da4d35c84ea7900178a366c,33,2022-02-12_12h46.19.295,lexical_decision_task_DD_L5,2021.2.3,Win32,59.79788315,,,,,,,,,,,1.0689,1,,,,,,,,,,,,,,,,,,,,,,,,0.456666667,-0.154444444,0,0,0,,,,,,,SCREW,HB,z,y,./images/SCREWHB.png,,,,,,,,,,,,,,,,,,,,,z,1,1.0689,,,,,,,,0,97,97,108,1,
,,,,,,,,,,,,,,,,,5da4d35c84ea7900178a366c,33,2022-02-12_12h46.19.295,lexical_decision_task_DD_L5,2021.2.3,Win32,59.79788315,,,,,,,,,,,0.8713,1,,,,,,,,,,,,,,,,,,,,,,,,0.456666667,-0.154444444,0,0,0,,,,,,,BISHOP,LB,m,y,./images/BISHOPLB.png,,,,,,,,,,,,,,,,,,,,,m,1,0.8713,,,,,,,,0,98,98,49,1,
,,,,,,,,,,,,,,,,,5da4d35c84ea7900178a366c,33,2022-02-12_12h46.19.295,lexical_decision_task_DD_L5,2021.2.3,Win32,59.79788315,,,,,,,,,,,1.0484,1,,,,,,,,,,,,,,,,,,,,,,,,0.456666667,-0.154444444,0,0,0,,,,,,,SMOKER,C,z,y,./images/SMOKER.png,,,,,,,,,,,,,,,,,,,,,z,1,1.0484,,,,,,,,0,99,99,110,1,
,,,,,,,,,,,,,,,,,5da4d35c84ea7900178a366c,33,2022-02-12_12h46.19.295,lexical_decision_task_DD_L5,2021.2.3,Win32,59.79788315,,,,,,,,,,,1.2007,1,,,,,,,,,,,,,,,,,,,,,,,,0.456666667,-0.154444444,0,0,0,,,,,,,SHIELD,HB,m,y,./images/SHIELDHB.png,,,,,,,,,,,,,,,,,,,,,m,1,1.2007,,,,,,,,0,100,100,48,1,
,,,,,,,,,,,,,,,,,5da4d35c84ea7900178a366c,33,2022-02-12_12h46.19.295,lexical_decision_task_DD_L5,2021.2.3,Win32,59.79788315,,,,,,,,,,,0.8389,1,,,,,,,,,,,,,,,,,,,,,,,,0.456666667,-0.154444444,0,0,0,,,,,,,PARADE,C,m,y,./images/PARADE.png,,,,,,,,,,,,,,,,,,,,,m,1,0.8389,,,,,,,,0,101,101,17,1,
,,,,,,,,,,,,,,,,,5da4d35c84ea7900178a366c,33,2022-02-12_12h46.19.295,lexical_decision_task_DD_L5,2021.2.3,Win32,59.79788315,,,,,,,,,,,1.344,0,,,,,,,,,,,,,,,,,,,,,,,,0.456666667,-0.154444444,0,0,0,,,,,,,FOLDER,HB,z,y,./images/FOLDERHB.png,,,,,,,,,,,,,,,,,,,,,m,0,1.344,,,,,,,,0,102,102,126,1,
,,,,,,,,,,,,,,,,,5da4d35c84ea7900178a366c,33,2022-02-12_12h46.19.295,lexical_decision_task_DD_L5,2021.2.3,Win32,59.79788315,,,,,,,,,,,0.8325,1,,,,,,,,,,,,,,,,,,,,,,,,0.456666667,-0.154444444,0,0,0,,,,,,,MAGGOT,HB,z,y,./images/MAGGOTHB.png,,,,,,,,,,,,,,,,,,,,,z,1,0.8325,,,,,,,,0,103,103,117,1,
,,,,,,,,,,,,,,,,,5da4d35c84ea7900178a366c,33,2022-02-12_12h46.19.295,lexical_decision_task_DD_L5,2021.2.3,Win32,59.79788315,,,,,,,,,,,1.6149,1,,,,,,,,,,,,,,,,,,,,,,,,0.456666667,-0.154444444,0,0,0,,,,,,,FLESH,HB,m,y,./images/FLESHHB.png,,,,,,,,,,,,,,,,,,,,,m,1,1.6149,,,,,,,,0,104,104,24,1,
,,,,,,,,,,,,,,,,,5da4d35c84ea7900178a366c,33,2022-02-12_12h46.19.295,lexical_decision_task_DD_L5,2021.2.3,Win32,59.79788315,,,,,,,,,,,1.6404,1,,,,,,,,,,,,,,,,,,,,,,,,0.456666667,-0.154444444,0,0,0,,,,,,,BERRY,C,z,y,./images/BERRY.png,,,,,,,,,,,,,,,,,,,,,z,1,1.6404,,,,,,,,0,105,105,131,1,
,,,,,,,,,,,,,,,,,5da4d35c84ea7900178a366c,33,2022-02-12_12h46.19.295,lexical_decision_task_DD_L5,2021.2.3,Win32,59.79788315,,,,,,,,,,,1.4716,1,,,,,,,,,,,,,,,,,,,,,,,,0.456666667,-0.154444444,0,0,0,,,,,,,TORCH,C,z,y,./images/TORCH.png,,,,,,,,,,,,,,,,,,,,,z,1,1.4716,,,,,,,,0,106,106,152,1,
,,,,,,,,,,,,,,,,,5da4d35c84ea7900178a366c,33,2022-02-12_12h46.19.295,lexical_decision_task_DD_L5,2021.2.3,Win32,59.79788315,,,,,,,,,,,0.7356,1,,,,,,,,,,,,,,,,,,,,,,,,0.456666667,-0.154444444,0,0,0,,,,,,,DONKEY,LB,m,y,./images/DONKEYLB.png,,,,,,,,,,,,,,,,,,,,,m,1,0.7356,,,,,,,,0,107,107,19,1,
,,,,,,,,,,,,,,,,,5da4d35c84ea7900178a366c,33,2022-02-12_12h46.19.295,lexical_decision_task_DD_L5,2021.2.3,Win32,59.79788315,,,,,,,,,,,0.7153,1,,,,,,,,,,,,,,,,,,,,,,,,0.456666667,-0.154444444,0,0,0,,,,,,,WRIST,LB,z,y,./images/WRISTLB.png,,,,,,,,,,,,,,,,,,,,,z,1,0.7153,,,,,,,,0,108,108,109,1,
,,,,,,,,,,,,,,,,,5da4d35c84ea7900178a366c,33,2022-02-12_12h46.19.295,lexical_decision_task_DD_L5,2021.2.3,Win32,59.79788315,,,,,,,,,,,1.5857,1,,,,,,,,,,,,,,,,,,,,,,,,0.456666667,-0.154444444,0,0,0,,,,,,,PISTOL,C,m,y,./images/PISTOL.png,,,,,,,,,,,,,,,,,,,,,m,1,1.5857,,,,,,,,0,109,109,29,1,
,,,,,,,,,,,,,,,,,5da4d35c84ea7900178a366c,33,2022-02-12_12h46.19.295,lexical_decision_task_DD_L5,2021.2.3,Win32,59.79788315,,,,,,,,,,,0.5829,0,,,,,,,,,,,,,,,,,,,,,,,,0.456666667,-0.154444444,0,0,0,,,,,,,ENGINE,C,m,y,./images/ENGINE.png,,,,,,,,,,,,,,,,,,,,,z,0,0.5829,,,,,,,,0,110,110,38,1,
,,,,,,,,,,,,,,,,,5da4d35c84ea7900178a366c,33,2022-02-12_12h46.19.295,lexical_decision_task_DD_L5,2021.2.3,Win32,59.79788315,,,,,,,,,,,0.6997,1,,,,,,,,,,,,,,,,,,,,,,,,0.456666667,-0.154444444,0,0,0,,,,,,,FLASK,HB,m,y,./images/FLASKHB.png,,,,,,,,,,,,,,,,,,,,,m,1,0.6997,,,,,,,,0,111,111,72,1,
,,,,,,,,,,,,,,,,,5da4d35c84ea7900178a366c,33,2022-02-12_12h46.19.295,lexical_decision_task_DD_L5,2021.2.3,Win32,59.79788315,,,,,,,,,,,1.1125,1,,,,,,,,,,,,,,,,,,,,,,,,0.456666667,-0.154444444,0,0,0,,,,,,,JUNGLE,C,z,y,./images/JUNGLE.png,,,,,,,,,,,,,,,,,,,,,z,1,1.1125,,,,,,,,0,112,112,167,1,
,,,,,,,,,,,,,,,,,5da4d35c84ea7900178a366c,33,2022-02-12_12h46.19.295,lexical_decision_task_DD_L5,2021.2.3,Win32,59.79788315,,,,,,,,,,,0.6658,1,,,,,,,,,,,,,,,,,,,,,,,,0.456666667,-0.154444444,0,0,0,,,,,,,GRAIN,HB,z,y,./images/GRAINHB.png,,,,,,,,,,,,,,,,,,,,,z,1,0.6658,,,,,,,,0,113,113,159,1,
,,,,,,,,,,,,,,,,,5da4d35c84ea7900178a366c,33,2022-02-12_12h46.19.295,lexical_decision_task_DD_L5,2021.2.3,Win32,59.79788315,,,,,,,,,,,0.8539,1,,,,,,,,,,,,,,,,,,,,,,,,0.456666667,-0.154444444,0,0,0,,,,,,,WHISKY,C,m,y,./images/WHISKY.png,,,,,,,,,,,,,,,,,,,,,m,1,0.8539,,,,,,,,0,114,114,83,1,
,,,,,,,,,,,,,,,,,5da4d35c84ea7900178a366c,33,2022-02-12_12h46.19.295,lexical_decision_task_DD_L5,2021.2.3,Win32,59.79788315,,,,,,,,,,,0.7035,1,,,,,,,,,,,,,,,,,,,,,,,,0.456666667,-0.154444444,0,0,0,,,,,,,BANANA,LB,m,y,./images/BANANALB.png,,,,,,,,,,,,,,,,,,,,,m,1,0.7035,,,,,,,,0,115,115,70,1,
,,,,,,,,,,,,,,,,,5da4d35c84ea7900178a366c,33,2022-02-12_12h46.19.295,lexical_decision_task_DD_L5,2021.2.3,Win32,59.79788315,,,,,,,,,,,1.2224,1,,,,,,,,,,,,,,,,,,,,,,,,0.456666667,-0.154444444,0,0,0,,,,,,,BONNET,C,z,y,./images/BONNET.png,,,,,,,,,,,,,,,,,,,,,z,1,1.2224,,,,,,,,0,116,116,95,1,
,,,,,,,,,,,,,,,,,5da4d35c84ea7900178a366c,33,2022-02-12_12h46.19.295,lexical_decision_task_DD_L5,2021.2.3,Win32,59.79788315,,,,,,,,,,,0.6562,1,,,,,,,,,,,,,,,,,,,,,,,,0.456666667,-0.154444444,0,0,0,,,,,,,CLIFF,C,m,y,./images/CLIFF.png,,,,,,,,,,,,,,,,,,,,,m,1,0.6562,,,,,,,,0,117,117,8,1,
,,,,,,,,,,,,,,,,,5da4d35c84ea7900178a366c,33,2022-02-12_12h46.19.295,lexical_decision_task_DD_L5,2021.2.3,Win32,59.79788315,,,,,,,,,,,0.6102,1,,,,,,,,,,,,,,,,,,,,,,,,0.456666667,-0.154444444,0,0,0,,,,,,,WHEEL,C,m,y,./images/WHEEL.png,,,,,,,,,,,,,,,,,,,,,m,1,0.6102,,,,,,,,0,118,118,77,1,
,,,,,,,,,,,,,,,,,5da4d35c84ea7900178a366c,33,2022-02-12_12h46.19.295,lexical_decision_task_DD_L5,2021.2.3,Win32,59.79788315,,,,,,,,,,,0.7582,1,,,,,,,,,,,,,,,,,,,,,,,,0.456666667,-0.154444444,0,0,0,,,,,,,THROAT,HB,z,y,./images/THROATHB.png,,,,,,,,,,,,,,,,,,,,,z,1,0.7582,,,,,,,,0,119,119,120,1,
,,,,,,,,,,,,,,,,,5da4d35c84ea7900178a366c,33,2022-02-12_12h46.19.295,lexical_decision_task_DD_L5,2021.2.3,Win32,59.79788315,,,,,,,,,,,0.6287,1,,,,,,,,,,,,,,,,,,,,,,,,0.456666667,-0.154444444,0,0,0,,,,,,,FENCE,C,m,y,./images/FENCE.png,,,,,,,,,,,,,,,,,,,,,m,1,0.6287,,,,,,,,0,120,120,14,1,
,,,,,,,,,,,,,,,,,5da4d35c84ea7900178a366c,33,2022-02-12_12h46.19.295,lexical_decision_task_DD_L5,2021.2.3,Win32,59.79788315,,,,,,,,,,,0.715,1,,,,,,,,,,,,,,,,,,,,,,,,0.456666667,-0.154444444,0,0,0,,,,,,,CLOTH,C,m,y,./images/CLOTH.png,,,,,,,,,,,,,,,,,,,,,m,1,0.715,,,,,,,,0,121,121,23,1,
,,,,,,,,,,,,,,,,,5da4d35c84ea7900178a366c,33,2022-02-12_12h46.19.295,lexical_decision_task_DD_L5,2021.2.3,Win32,59.79788315,,,,,,,,,,,0.7051,1,,,,,,,,,,,,,,,,,,,,,,,,0.456666667,-0.154444444,0,0,0,,,,,,,CURRY,HB,m,y,./images/CURRYHB.png,,,,,,,,,,,,,,,,,,,,,m,1,0.7051,,,,,,,,0,122,122,60,1,
,,,,,,,,,,,,,,,,,5da4d35c84ea7900178a366c,33,2022-02-12_12h46.19.295,lexical_decision_task_DD_L5,2021.2.3,Win32,59.79788315,,,,,,,,,,,0.6956,1,,,,,,,,,,,,,,,,,,,,,,,,0.456666667,-0.154444444,0,0,0,,,,,,,GREASE,HB,z,y,./images/GREASEHB.png,,,,,,,,,,,,,,,,,,,,,z,1,0.6956,,,,,,,,0,123,123,99,1,
,,,,,,,,,,,,,,,,,5da4d35c84ea7900178a366c,33,2022-02-12_12h46.19.295,lexical_decision_task_DD_L5,2021.2.3,Win32,59.79788315,,,,,,,,,,,0.8827,1,,,,,,,,,,,,,,,,,,,,,,,,0.456666667,-0.154444444,0,0,0,,,,,,,MUFFIN,LB,z,y,./images/MUFFINLB.png,,,,,,,,,,,,,,,,,,,,,z,1,0.8827,,,,,,,,0,124,124,139,1,
,,,,,,,,,,,,,,,,,5da4d35c84ea7900178a366c,33,2022-02-12_12h46.19.295,lexical_decision_task_DD_L5,2021.2.3,Win32,59.79788315,,,,,,,,,,,0.6462,0,,,,,,,,,,,,,,,,,,,,,,,,0.456666667,-0.154444444,0,0,0,space,,,,,,PEACH,C,z,y,./images/PEACH.png,,,,,,,,,,,,,,,,,,,,,m,0,0.6462,,,,,,,,0,125,125,119,1,31.3984
,,,,,,,,,,,,,,,,,5da4d35c84ea7900178a366c,33,2022-02-12_12h46.19.295,lexical_decision_task_DD_L5,2021.2.3,Win32,59.79788315,,,,,,,,,,,0.8312,1,,,,,,,,,,,,,,,,,,,,,,,,0.456666667,-0.154444444,0,0,0,,,,,,,CARPET,C,z,y,./images/CARPET.png,,,,,,,,,,,,,,,,,,,,,z,1,0.8312,,,,,,,,0,126,126,137,1,
,,,,,,,,,,,,,,,,,5da4d35c84ea7900178a366c,33,2022-02-12_12h46.19.295,lexical_decision_task_DD_L5,2021.2.3,Win32,59.79788315,,,,,,,,,,,0.6051,1,,,,,,,,,,,,,,,,,,,,,,,,0.456666667,-0.154444444,0,0,0,,,,,,,URINE,LB,z,y,./images/URINELB.png,,,,,,,,,,,,,,,,,,,,,z,1,0.6051,,,,,,,,0,127,127,154,1,
,,,,,,,,,,,,,,,,,5da4d35c84ea7900178a366c,33,2022-02-12_12h46.19.295,lexical_decision_task_DD_L5,2021.2.3,Win32,59.79788315,,,,,,,,,,,0.7317,1,,,,,,,,,,,,,,,,,,,,,,,,0.456666667,-0.154444444,0,0,0,,,,,,,COOKER,HB,z,y,./images/COOKERHB.png,,,,,,,,,,,,,,,,,,,,,z,1,0.7317,,,,,,,,0,128,128,153,1,
,,,,,,,,,,,,,,,,,5da4d35c84ea7900178a366c,33,2022-02-12_12h46.19.295,lexical_decision_task_DD_L5,2021.2.3,Win32,59.79788315,,,,,,,,,,,0.7268,0,,,,,,,,,,,,,,,,,,,,,,,,0.456666667,-0.154444444,0,0,0,,,,,,,BANNER,LB,z,y,./images/BANNERLB.png,,,,,,,,,,,,,,,,,,,,,m,0,0.7268,,,,,,,,0,129,129,136,1,
