key_resp.keys,instr_done_touch.x,instr_done_touch.y,instr_done_touch.leftButton,instr_done_touch.midButton,instr_done_touch.rightButton,instr_done_touch.clicked_name,instruction_pages.thisRepN,instruction_pages.thisTrialN,instruction_pages.thisN,instruction_pages.thisIndex,instruction_pages.ran,pageN,phase,instruct_text,has_image,instruct_image,participant,age,date,expName,psychopyVersion,OS,frameRate,response.keys,response.corr,response.rt,touch_resp.x,touch_resp.y,touch_resp.leftButton,touch_resp.midButton,touch_resp.rightButton,touch_resp.time,touch_resp.clicked_name,rt,corr,practrials.thisRepN,practrials.thisTrialN,practrials.thisN,practrials.thisIndex,practrials.ran,TrialID,Target,corrAns,key_resp.rt,end_of_practice_trials_pages.thisRepN,end_of_practice_trials_pages.thisTrialN,end_of_practice_trials_pages.thisN,end_of_practice_trials_pages.thisIndex,end_of_practice_trials_pages.ran,key_resp_2.keys,key_resp_2.corr,key_resp_2.rt,targ_click.x,targ_click.y,targ_click.leftButton,targ_click.midButton,targ_click.rightButton,targ_click.time,targ_click.clicked_name,break_done_touch.x,break_done_touch.y,break_done_touch.leftButton,break_done_touch.midButton,break_done_touch.rightButton,break_done_keyboard.keys,maintrials.thisRepN,maintrials.thisTrialN,maintrials.thisN,maintrials.thisIndex,maintrials.ran,string,blur,study,lex,stim_path,break_done_keyboard.rt,mouse_2.x,mouse_2.y,mouse_2.leftButton,mouse_2.midButton,mouse_2.rightButton,mouse_2.clicked_name,slider.response,slider.rt,trials.thisRepN,trials.thisTrialN,trials.thisN,trials.thisIndex,trials.ran,test_instructions.thisRepN,test_instructions.thisTrialN,test_instructions.thisN,test_instructions.thisIndex,test_instructions.ran,key_resp_3.keys,key_resp_3.corr,test_click.x,test_click.y,test_click.leftButton,test_click.midButton,test_click.rightButton,test_click.time,test_click.clicked_name,test_phase.thisRepN,test_phase.thisTrialN,test_phase.thisN,test_phase.thisIndex,test_phase.ran,key_resp_3.rt
,0.075,-0.405555556,1,0,0,instr_done_button,0,0,0,0,1,1,instructions,"INSTRUCTIONS
At the start of each trial, look at the plus sign  (+) in the center of the screen.  This tells you that a trial is about to begin and where to look. Second, the plus sign will disappear and a string of letters will appear. Your task is to determine if the string of letters is a word or not. If the item is a word press the M key (on keyboard)  or touch the word button (phone/tablet).  If the item is not a word,  press the  Z key (on keyboard)  or touch the nonword button (on phone/tablet). 
Press the space bar or touch  continue.",0,,5da4152a3ab39a0011295a3e,1,2022-02-12_14h51.36.613,lexical_decision_task_DD,2021.2.3,Win32,60.12144532,,,,,,,,,,,,,,,,,,,,,,,,,,,,,,,,,,,,,,,,,,,,,,,,,,,,,,,,,,,,,,,,,,,,,,,,,,,,,,,,,,,,,,
,0.014814815,-0.418518519,1,0,0,instr_done_button,0,1,1,1,1,2,instructions,"If your device has a keyboard, press the 'Z' key for nonwords and the 'M' key for words.





Press the space bar or touch the button below to continue.",0,keyboard-example.gif,5da4152a3ab39a0011295a3e,1,2022-02-12_14h51.36.613,lexical_decision_task_DD,2021.2.3,Win32,60.12144532,,,,,,,,,,,,,,,,,,,,,,,,,,,,,,,,,,,,,,,,,,,,,,,,,,,,,,,,,,,,,,,,,,,,,,,,,,,,,,,,,,,,,,
,0.023148148,-0.410185185,1,0,0,instr_done_button,0,2,2,2,1,3,instructions,"If you are using a touchscreen only device, use the buttons on the screen. Do not use the mouse.





Press the space bar or touch the button below to continue.",0,touchscreen-example.gif,5da4152a3ab39a0011295a3e,1,2022-02-12_14h51.36.613,lexical_decision_task_DD,2021.2.3,Win32,60.12144532,,,,,,,,,,,,,,,,,,,,,,,,,,,,,,,,,,,,,,,,,,,,,,,,,,,,,,,,,,,,,,,,,,,,,,,,,,,,,,,,,,,,,,
,0,-0.412962963,1,0,0,instr_done_button,0,3,3,3,1,4,instructions,"It is very important that you respond as quickly and accurately as possible, as each letter string will only be on the screen for two seconds. If you do not respond within this time, the message 'Too slow!' will be displayed and the experiment will progress to the next letter string. The first 20 trials will be practice trials and you will receive feedback on your answers. 

Press the space bar or touch the button below to start the practice trials.",0,,5da4152a3ab39a0011295a3e,1,2022-02-12_14h51.36.613,lexical_decision_task_DD,2021.2.3,Win32,60.12144532,,,,,,,,,,,,,,,,,,,,,,,,,,,,,,,,,,,,,,,,,,,,,,,,,,,,,,,,,,,,,,,,,,,,,,,,,,,,,,,,,,,,,,
,,,,,,,,,,,,,,,,,5da4152a3ab39a0011295a3e,1,2022-02-12_14h51.36.613,lexical_decision_task_DD,2021.2.3,Win32,60.12144532,z,1,2.9054,,,,,,,,2.9054,1,0,0,0,8,1,1001,ASLERT,z,,,,,,,,,,,,,,,,,,,,,,,,,,,,,,,,,,,,,,,,,,,,,,,,,,,,,,,,,,,,,,,,,,
,,,,,,,,,,,,,,,,,5da4152a3ab39a0011295a3e,1,2022-02-12_14h51.36.613,lexical_decision_task_DD,2021.2.3,Win32,60.12144532,m,1,1.0105,,,,,,,,1.0105,1,0,1,1,0,1,1001,UTOPIA,m,,,,,,,,,,,,,,,,,,,,,,,,,,,,,,,,,,,,,,,,,,,,,,,,,,,,,,,,,,,,,,,,,,
,,,,,,,,,,,,,,,,,5da4152a3ab39a0011295a3e,1,2022-02-12_14h51.36.613,lexical_decision_task_DD,2021.2.3,Win32,60.12144532,z,1,0.7609,,,,,,,,0.7609,1,0,2,2,9,1,1001,FARINY,z,,,,,,,,,,,,,,,,,,,,,,,,,,,,,,,,,,,,,,,,,,,,,,,,,,,,,,,,,,,,,,,,,,
,,,,,,,,,,,,,,,,,5da4152a3ab39a0011295a3e,1,2022-02-12_14h51.36.613,lexical_decision_task_DD,2021.2.3,Win32,60.12144532,z,1,0.853,,,,,,,,0.853,1,0,3,3,12,1,1001,SPRINY,z,,,,,,,,,,,,,,,,,,,,,,,,,,,,,,,,,,,,,,,,,,,,,,,,,,,,,,,,,,,,,,,,,,
,,,,,,,,,,,,,,,,,5da4152a3ab39a0011295a3e,1,2022-02-12_14h51.36.613,lexical_decision_task_DD,2021.2.3,Win32,60.12144532,z,1,0.848,,,,,,,,0.848,1,0,4,4,14,1,1001,THRALE,z,,,,,,,,,,,,,,,,,,,,,,,,,,,,,,,,,,,,,,,,,,,,,,,,,,,,,,,,,,,,,,,,,,
,,,,,,,,,,,,,,,,,5da4152a3ab39a0011295a3e,1,2022-02-12_14h51.36.613,lexical_decision_task_DD,2021.2.3,Win32,60.12144532,m,1,0.6507,,,,,,,,0.6507,1,0,5,5,6,1,1001,ZOMBIE,m,,,,,,,,,,,,,,,,,,,,,,,,,,,,,,,,,,,,,,,,,,,,,,,,,,,,,,,,,,,,,,,,,,
,,,,,,,,,,,,,,,,,5da4152a3ab39a0011295a3e,1,2022-02-12_14h51.36.613,lexical_decision_task_DD,2021.2.3,Win32,60.12144532,m,1,0.8164,,,,,,,,0.8164,1,0,6,6,5,1,1001,OBTAIN,m,,,,,,,,,,,,,,,,,,,,,,,,,,,,,,,,,,,,,,,,,,,,,,,,,,,,,,,,,,,,,,,,,,
,,,,,,,,,,,,,,,,,5da4152a3ab39a0011295a3e,1,2022-02-12_14h51.36.613,lexical_decision_task_DD,2021.2.3,Win32,60.12144532,z,1,0.7818,,,,,,,,0.7818,1,0,7,7,11,1,1001,RASHET,z,,,,,,,,,,,,,,,,,,,,,,,,,,,,,,,,,,,,,,,,,,,,,,,,,,,,,,,,,,,,,,,,,,
,,,,,,,,,,,,,,,,,5da4152a3ab39a0011295a3e,1,2022-02-12_14h51.36.613,lexical_decision_task_DD,2021.2.3,Win32,60.12144532,z,1,0.7006,,,,,,,,0.7006,1,0,8,8,13,1,1001,ROUPET,z,,,,,,,,,,,,,,,,,,,,,,,,,,,,,,,,,,,,,,,,,,,,,,,,,,,,,,,,,,,,,,,,,,
,,,,,,,,,,,,,,,,,5da4152a3ab39a0011295a3e,1,2022-02-12_14h51.36.613,lexical_decision_task_DD,2021.2.3,Win32,60.12144532,m,0,1.1682,,,,,,,,1.1682,0,0,9,9,10,1,1001,INLADE,z,,,,,,,,,,,,,,,,,,,,,,,,,,,,,,,,,,,,,,,,,,,,,,,,,,,,,,,,,,,,,,,,,,
,,,,,,,,,,,,,,,,,5da4152a3ab39a0011295a3e,1,2022-02-12_14h51.36.613,lexical_decision_task_DD,2021.2.3,Win32,60.12144532,m,1,0.8054,,,,,,,,0.8054,1,0,10,10,3,1,1001,MATRIX,m,,,,,,,,,,,,,,,,,,,,,,,,,,,,,,,,,,,,,,,,,,,,,,,,,,,,,,,,,,,,,,,,,,
,,,,,,,,,,,,,,,,,5da4152a3ab39a0011295a3e,1,2022-02-12_14h51.36.613,lexical_decision_task_DD,2021.2.3,Win32,60.12144532,m,1,0.6074,,,,,,,,0.6074,1,0,11,11,7,1,1001,VOLUME,m,,,,,,,,,,,,,,,,,,,,,,,,,,,,,,,,,,,,,,,,,,,,,,,,,,,,,,,,,,,,,,,,,,
,,,,,,,,,,,,,,,,,5da4152a3ab39a0011295a3e,1,2022-02-12_14h51.36.613,lexical_decision_task_DD,2021.2.3,Win32,60.12144532,m,1,0.6628,,,,,,,,0.6628,1,0,12,12,2,1,1001,ALMOND,m,,,,,,,,,,,,,,,,,,,,,,,,,,,,,,,,,,,,,,,,,,,,,,,,,,,,,,,,,,,,,,,,,,
,,,,,,,,,,,,,,,,,5da4152a3ab39a0011295a3e,1,2022-02-12_14h51.36.613,lexical_decision_task_DD,2021.2.3,Win32,60.12144532,m,1,0.6369,,,,,,,,0.6369,1,0,13,13,1,1,1001,ADJUST,m,,,,,,,,,,,,,,,,,,,,,,,,,,,,,,,,,,,,,,,,,,,,,,,,,,,,,,,,,,,,,,,,,,
,,,,,,,,,,,,,,,,,5da4152a3ab39a0011295a3e,1,2022-02-12_14h51.36.613,lexical_decision_task_DD,2021.2.3,Win32,60.12144532,m,1,0.6446,,,,,,,,0.6446,1,0,14,14,4,1,1001,SQUEAK,m,,,,,,,,,,,,,,,,,,,,,,,,,,,,,,,,,,,,,,,,,,,,,,,,,,,,,,,,,,,,,,,,,,
,,,,,,,,,,,,,,,,,5da4152a3ab39a0011295a3e,1,2022-02-12_14h51.36.613,lexical_decision_task_DD,2021.2.3,Win32,60.12144532,z,1,0.693,,,,,,,,0.693,1,0,15,15,15,1,1001,WHAISE,z,,,,,,,,,,,,,,,,,,,,,,,,,,,,,,,,,,,,,,,,,,,,,,,,,,,,,,,,,,,,,,,,,,
space,0.887962963,-0.268518519,0,0,0,,,,,,,1,end_of_practice,"You have completed the practice trials. During the experimental trials, you will not receive feedback. 
Before you begin, please ensure that you are in a comfortable and quiet location and will not be disturbed for about 15 minutes, as we cannot use your data if you do not complete all the trials. 
 When you are ready to start the experimental trials, please press space or touch the button below.",,,5da4152a3ab39a0011295a3e,1,2022-02-12_14h51.36.613,lexical_decision_task_DD,2021.2.3,Win32,60.12144532,,,,,,,,,,,,,,,,,,,,,19.5711,0,0,0,0,1,,,,,,,,,,,,,,,,,,,,,,,,,,,,,,,,,,,,,,,,,,,,,,,,,,,,,,,,,,,,
,,,,,,,,,,,,,,,,,5da4152a3ab39a0011295a3e,1,2022-02-12_14h51.36.613,lexical_decision_task_DD,2021.2.3,Win32,60.12144532,,,,,,,,,,,0.8313,1,,,,,,,,,,,,,,,z,1,0.8313,,,,,,,,0.887962963,-0.268518519,0,0,0,,0,0,0,101,1,GLEET,LB,old,z,./images/GLEETLB.png,,,,,,,,,,,,,,,,,,,,,,,,,,,,,,,,,,
,,,,,,,,,,,,,,,,,5da4152a3ab39a0011295a3e,1,2022-02-12_14h51.36.613,lexical_decision_task_DD,2021.2.3,Win32,60.12144532,,,,,,,,,,,0.849,1,,,,,,,,,,,,,,,m,1,0.849,,,,,,,,0.887962963,-0.268518519,0,0,0,,0,1,1,8,1,TULIP,LB,old,m,./images/TULIPLB.png,,,,,,,,,,,,,,,,,,,,,,,,,,,,,,,,,,
,,,,,,,,,,,,,,,,,5da4152a3ab39a0011295a3e,1,2022-02-12_14h51.36.613,lexical_decision_task_DD,2021.2.3,Win32,60.12144532,,,,,,,,,,,0.673,1,,,,,,,,,,,,,,,m,1,0.673,,,,,,,,0.887962963,-0.268518519,0,0,0,,0,2,2,33,1,MAGGOT,C,old,m,./images/MAGGOT.png,,,,,,,,,,,,,,,,,,,,,,,,,,,,,,,,,,
,,,,,,,,,,,,,,,,,5da4152a3ab39a0011295a3e,1,2022-02-12_14h51.36.613,lexical_decision_task_DD,2021.2.3,Win32,60.12144532,,,,,,,,,,,0.9307,1,,,,,,,,,,,,,,,z,1,0.9307,,,,,,,,0.887962963,-0.268518519,0,0,0,,0,3,3,162,1,LEICH,C,old,z,./images/LEICH.png,,,,,,,,,,,,,,,,,,,,,,,,,,,,,,,,,,
,,,,,,,,,,,,,,,,,5da4152a3ab39a0011295a3e,1,2022-02-12_14h51.36.613,lexical_decision_task_DD,2021.2.3,Win32,60.12144532,,,,,,,,,,,1.0575,1,,,,,,,,,,,,,,,z,1,1.0575,,,,,,,,0.887962963,-0.268518519,0,0,0,,0,4,4,110,1,CRUNK,LB,old,z,./images/CRUNKLB.png,,,,,,,,,,,,,,,,,,,,,,,,,,,,,,,,,,
,,,,,,,,,,,,,,,,,5da4152a3ab39a0011295a3e,1,2022-02-12_14h51.36.613,lexical_decision_task_DD,2021.2.3,Win32,60.12144532,,,,,,,,,,,0.5771,1,,,,,,,,,,,,,,,m,1,0.5771,,,,,,,,0.887962963,-0.268518519,0,0,0,,0,5,5,12,1,SHORE,C,old,m,./images/SHORE.png,,,,,,,,,,,,,,,,,,,,,,,,,,,,,,,,,,
,,,,,,,,,,,,,,,,,5da4152a3ab39a0011295a3e,1,2022-02-12_14h51.36.613,lexical_decision_task_DD,2021.2.3,Win32,60.12144532,,,,,,,,,,,0.7264,1,,,,,,,,,,,,,,,z,1,0.7264,,,,,,,,0.887962963,-0.268518519,0,0,0,,0,6,6,111,1,HOSSE,C,old,z,./images/HOSSE.png,,,,,,,,,,,,,,,,,,,,,,,,,,,,,,,,,,
,,,,,,,,,,,,,,,,,5da4152a3ab39a0011295a3e,1,2022-02-12_14h51.36.613,lexical_decision_task_DD,2021.2.3,Win32,60.12144532,,,,,,,,,,,1.2072,0,,,,,,,,,,,,,,,m,0,1.2072,,,,,,,,0.887962963,-0.268518519,0,0,0,,0,7,7,133,1,POWDY,HB,old,z,./images/POWDYHB.png,,,,,,,,,,,,,,,,,,,,,,,,,,,,,,,,,,
,,,,,,,,,,,,,,,,,5da4152a3ab39a0011295a3e,1,2022-02-12_14h51.36.613,lexical_decision_task_DD,2021.2.3,Win32,60.12144532,,,,,,,,,,,0.754,1,,,,,,,,,,,,,,,z,1,0.754,,,,,,,,0.887962963,-0.268518519,0,0,0,,0,8,8,152,1,FRAIN,LB,old,z,./images/FRAINLB.png,,,,,,,,,,,,,,,,,,,,,,,,,,,,,,,,,,
,,,,,,,,,,,,,,,,,5da4152a3ab39a0011295a3e,1,2022-02-12_14h51.36.613,lexical_decision_task_DD,2021.2.3,Win32,60.12144532,,,,,,,,,,,0.8035,1,,,,,,,,,,,,,,,m,1,0.8035,,,,,,,,0.887962963,-0.268518519,0,0,0,,0,9,9,34,1,CANYON,HB,old,m,./images/CANYONHB.png,,,,,,,,,,,,,,,,,,,,,,,,,,,,,,,,,,
,,,,,,,,,,,,,,,,,5da4152a3ab39a0011295a3e,1,2022-02-12_14h51.36.613,lexical_decision_task_DD,2021.2.3,Win32,60.12144532,,,,,,,,,,,1.3711,1,,,,,,,,,,,,,,,z,1,1.3711,,,,,,,,0.887962963,-0.268518519,0,0,0,,0,10,10,130,1,CRILL,HB,old,z,./images/CRILLHB.png,,,,,,,,,,,,,,,,,,,,,,,,,,,,,,,,,,
,,,,,,,,,,,,,,,,,5da4152a3ab39a0011295a3e,1,2022-02-12_14h51.36.613,lexical_decision_task_DD,2021.2.3,Win32,60.12144532,,,,,,,,,,,1.0209,1,,,,,,,,,,,,,,,m,1,1.0209,,,,,,,,0.887962963,-0.268518519,0,0,0,,0,11,11,37,1,BIRTH,HB,old,m,./images/BIRTHHB.png,,,,,,,,,,,,,,,,,,,,,,,,,,,,,,,,,,
,,,,,,,,,,,,,,,,,5da4152a3ab39a0011295a3e,1,2022-02-12_14h51.36.613,lexical_decision_task_DD,2021.2.3,Win32,60.12144532,,,,,,,,,,,0.679,1,,,,,,,,,,,,,,,m,1,0.679,,,,,,,,0.887962963,-0.268518519,0,0,0,,0,12,12,17,1,SKIING,LB,old,m,./images/SKIINGLB.png,,,,,,,,,,,,,,,,,,,,,,,,,,,,,,,,,,
,,,,,,,,,,,,,,,,,5da4152a3ab39a0011295a3e,1,2022-02-12_14h51.36.613,lexical_decision_task_DD,2021.2.3,Win32,60.12144532,,,,,,,,,,,0.9318,1,,,,,,,,,,,,,,,m,1,0.9318,,,,,,,,0.887962963,-0.268518519,0,0,0,,0,13,13,19,1,DOUGH,HB,old,m,./images/DOUGHHB.png,,,,,,,,,,,,,,,,,,,,,,,,,,,,,,,,,,
,,,,,,,,,,,,,,,,,5da4152a3ab39a0011295a3e,1,2022-02-12_14h51.36.613,lexical_decision_task_DD,2021.2.3,Win32,60.12144532,,,,,,,,,,,0.8433,1,,,,,,,,,,,,,,,m,1,0.8433,,,,,,,,0.887962963,-0.268518519,0,0,0,,0,14,14,61,1,CANDLE,HB,old,m,./images/CANDLEHB.png,,,,,,,,,,,,,,,,,,,,,,,,,,,,,,,,,,
,,,,,,,,,,,,,,,,,5da4152a3ab39a0011295a3e,1,2022-02-12_14h51.36.613,lexical_decision_task_DD,2021.2.3,Win32,60.12144532,,,,,,,,,,,0.6624,1,,,,,,,,,,,,,,,m,1,0.6624,,,,,,,,0.887962963,-0.268518519,0,0,0,,0,15,15,9,1,RHINO,C,old,m,./images/RHINO.png,,,,,,,,,,,,,,,,,,,,,,,,,,,,,,,,,,
,,,,,,,,,,,,,,,,,5da4152a3ab39a0011295a3e,1,2022-02-12_14h51.36.613,lexical_decision_task_DD,2021.2.3,Win32,60.12144532,,,,,,,,,,,2.0892,1,,,,,,,,,,,,,,,m,1,2.0892,,,,,,,,0.887962963,-0.268518519,0,0,0,,0,16,16,76,1,INFANT,HB,old,m,./images/INFANTHB.png,,,,,,,,,,,,,,,,,,,,,,,,,,,,,,,,,,
,,,,,,,,,,,,,,,,,5da4152a3ab39a0011295a3e,1,2022-02-12_14h51.36.613,lexical_decision_task_DD,2021.2.3,Win32,60.12144532,,,,,,,,,,,1.7368,1,,,,,,,,,,,,,,,m,1,1.7368,,,,,,,,0.887962963,-0.268518519,0,0,0,,0,17,17,40,1,SWING,HB,old,m,./images/SWINGHB.png,,,,,,,,,,,,,,,,,,,,,,,,,,,,,,,,,,
,,,,,,,,,,,,,,,,,5da4152a3ab39a0011295a3e,1,2022-02-12_14h51.36.613,lexical_decision_task_DD,2021.2.3,Win32,60.12144532,,,,,,,,,,,0.8918,1,,,,,,,,,,,,,,,z,1,0.8918,,,,,,,,0.887962963,-0.268518519,0,0,0,,0,18,18,158,1,EGECT,LB,old,z,./images/EGECTLB.png,,,,,,,,,,,,,,,,,,,,,,,,,,,,,,,,,,
,,,,,,,,,,,,,,,,,5da4152a3ab39a0011295a3e,1,2022-02-12_14h51.36.613,lexical_decision_task_DD,2021.2.3,Win32,60.12144532,,,,,,,,,,,0.9157,1,,,,,,,,,,,,,,,z,1,0.9157,,,,,,,,0.887962963,-0.268518519,0,0,0,,0,19,19,155,1,CANGY,LB,old,z,./images/CANGYLB.png,,,,,,,,,,,,,,,,,,,,,,,,,,,,,,,,,,
,,,,,,,,,,,,,,,,,5da4152a3ab39a0011295a3e,1,2022-02-12_14h51.36.613,lexical_decision_task_DD,2021.2.3,Win32,60.12144532,,,,,,,,,,,0.7612,1,,,,,,,,,,,,,,,m,1,0.7612,,,,,,,,0.887962963,-0.268518519,0,0,0,,0,20,20,4,1,MUSCLE,HB,old,m,./images/MUSCLEHB.png,,,,,,,,,,,,,,,,,,,,,,,,,,,,,,,,,,
,,,,,,,,,,,,,,,,,5da4152a3ab39a0011295a3e,1,2022-02-12_14h51.36.613,lexical_decision_task_DD,2021.2.3,Win32,60.12144532,,,,,,,,,,,0.641,1,,,,,,,,,,,,,,,m,1,0.641,,,,,,,,0.887962963,-0.268518519,0,0,0,,0,21,21,74,1,CEMENT,LB,old,m,./images/CEMENTLB.png,,,,,,,,,,,,,,,,,,,,,,,,,,,,,,,,,,
,,,,,,,,,,,,,,,,,5da4152a3ab39a0011295a3e,1,2022-02-12_14h51.36.613,lexical_decision_task_DD,2021.2.3,Win32,60.12144532,,,,,,,,,,,1.1112,1,,,,,,,,,,,,,,,m,1,1.1112,,,,,,,,0.887962963,-0.268518519,0,0,0,,0,22,22,28,1,FALCON,HB,old,m,./images/FALCONHB.png,,,,,,,,,,,,,,,,,,,,,,,,,,,,,,,,,,
,,,,,,,,,,,,,,,,,5da4152a3ab39a0011295a3e,1,2022-02-12_14h51.36.613,lexical_decision_task_DD,2021.2.3,Win32,60.12144532,,,,,,,,,,,1.3055,1,,,,,,,,,,,,,,,z,1,1.3055,,,,,,,,0.887962963,-0.268518519,0,0,0,,0,23,23,88,1,GLUSH,HB,old,z,./images/GLUSHHB.png,,,,,,,,,,,,,,,,,,,,,,,,,,,,,,,,,,
,,,,,,,,,,,,,,,,,5da4152a3ab39a0011295a3e,1,2022-02-12_14h51.36.613,lexical_decision_task_DD,2021.2.3,Win32,60.12144532,,,,,,,,,,,1.4344,1,,,,,,,,,,,,,,,z,1,1.4344,,,,,,,,0.887962963,-0.268518519,0,0,0,,0,24,24,116,1,BALGY,LB,old,z,./images/BALGYLB.png,,,,,,,,,,,,,,,,,,,,,,,,,,,,,,,,,,
,,,,,,,,,,,,,,,,,5da4152a3ab39a0011295a3e,1,2022-02-12_14h51.36.613,lexical_decision_task_DD,2021.2.3,Win32,60.12144532,,,,,,,,,,,0.9603,1,,,,,,,,,,,,,,,z,1,0.9603,,,,,,,,0.887962963,-0.268518519,0,0,0,,0,25,25,117,1,STEEG,C,old,z,./images/STEEG.png,,,,,,,,,,,,,,,,,,,,,,,,,,,,,,,,,,
,,,,,,,,,,,,,,,,,5da4152a3ab39a0011295a3e,1,2022-02-12_14h51.36.613,lexical_decision_task_DD,2021.2.3,Win32,60.12144532,,,,,,,,,,,1.2012,1,,,,,,,,,,,,,,,m,1,1.2012,,,,,,,,0.887962963,-0.268518519,0,0,0,,0,26,26,67,1,SAILOR,HB,old,m,./images/SAILORHB.png,,,,,,,,,,,,,,,,,,,,,,,,,,,,,,,,,,
,,,,,,,,,,,,,,,,,5da4152a3ab39a0011295a3e,1,2022-02-12_14h51.36.613,lexical_decision_task_DD,2021.2.3,Win32,60.12144532,,,,,,,,,,,2.5331,1,,,,,,,,,,,,,,,z,1,2.5331,,,,,,,,0.887962963,-0.268518519,0,0,0,,0,27,27,97,1,CHIDS,HB,old,z,./images/CHIDSHB.png,,,,,,,,,,,,,,,,,,,,,,,,,,,,,,,,,,
,,,,,,,,,,,,,,,,,5da4152a3ab39a0011295a3e,1,2022-02-12_14h51.36.613,lexical_decision_task_DD,2021.2.3,Win32,60.12144532,,,,,,,,,,,1.4525,1,,,,,,,,,,,,,,,m,1,1.4525,,,,,,,,0.887962963,-0.268518519,0,0,0,,0,28,28,49,1,DRUMS,HB,old,m,./images/DRUMSHB.png,,,,,,,,,,,,,,,,,,,,,,,,,,,,,,,,,,
,,,,,,,,,,,,,,,,,5da4152a3ab39a0011295a3e,1,2022-02-12_14h51.36.613,lexical_decision_task_DD,2021.2.3,Win32,60.12144532,,,,,,,,,,,0.6601,1,,,,,,,,,,,,,,,m,1,0.6601,,,,,,,,0.887962963,-0.268518519,0,0,0,,0,29,29,44,1,LIZARD,LB,old,m,./images/LIZARDLB.png,,,,,,,,,,,,,,,,,,,,,,,,,,,,,,,,,,
,,,,,,,,,,,,,,,,,5da4152a3ab39a0011295a3e,1,2022-02-12_14h51.36.613,lexical_decision_task_DD,2021.2.3,Win32,60.12144532,,,,,,,,,,,1.3141,0,,,,,,,,,,,,,,,m,0,1.3141,,,,,,,,0.887962963,-0.268518519,0,0,0,,0,30,30,120,1,RINED,C,old,z,./images/RINED.png,,,,,,,,,,,,,,,,,,,,,,,,,,,,,,,,,,
,,,,,,,,,,,,,,,,,5da4152a3ab39a0011295a3e,1,2022-02-12_14h51.36.613,lexical_decision_task_DD,2021.2.3,Win32,60.12144532,,,,,,,,,,,0.6269,1,,,,,,,,,,,,,,,m,1,0.6269,,,,,,,,0.887962963,-0.268518519,0,0,0,,0,31,31,75,1,GRAIN,C,old,m,./images/GRAIN.png,,,,,,,,,,,,,,,,,,,,,,,,,,,,,,,,,,
,,,,,,,,,,,,,,,,,5da4152a3ab39a0011295a3e,1,2022-02-12_14h51.36.613,lexical_decision_task_DD,2021.2.3,Win32,60.12144532,,,,,,,,,,,0.819,1,,,,,,,,,,,,,,,z,1,0.819,,,,,,,,0.887962963,-0.268518519,0,0,0,,0,32,32,98,1,BAMPS,LB,old,z,./images/BAMPSLB.png,,,,,,,,,,,,,,,,,,,,,,,,,,,,,,,,,,
,,,,,,,,,,,,,,,,,5da4152a3ab39a0011295a3e,1,2022-02-12_14h51.36.613,lexical_decision_task_DD,2021.2.3,Win32,60.12144532,,,,,,,,,,,0.5941,1,,,,,,,,,,,,,,,m,1,0.5941,,,,,,,,0.887962963,-0.268518519,0,0,0,,0,33,33,24,1,SCREW,C,old,m,./images/SCREW.png,,,,,,,,,,,,,,,,,,,,,,,,,,,,,,,,,,
,,,,,,,,,,,,,,,,,5da4152a3ab39a0011295a3e,1,2022-02-12_14h51.36.613,lexical_decision_task_DD,2021.2.3,Win32,60.12144532,,,,,,,,,,,0.6147,1,,,,,,,,,,,,,,,m,1,0.6147,,,,,,,,0.887962963,-0.268518519,0,0,0,,0,34,34,57,1,MOOSE,C,old,m,./images/MOOSE.png,,,,,,,,,,,,,,,,,,,,,,,,,,,,,,,,,,
,,,,,,,,,,,,,,,,,5da4152a3ab39a0011295a3e,1,2022-02-12_14h51.36.613,lexical_decision_task_DD,2021.2.3,Win32,60.12144532,,,,,,,,,,,1.1145,1,,,,,,,,,,,,,,,z,1,1.1145,,,,,,,,0.887962963,-0.268518519,0,0,0,,0,35,35,87,1,TRING,C,old,z,./images/TRING.png,,,,,,,,,,,,,,,,,,,,,,,,,,,,,,,,,,
,,,,,,,,,,,,,,,,,5da4152a3ab39a0011295a3e,1,2022-02-12_14h51.36.613,lexical_decision_task_DD,2021.2.3,Win32,60.12144532,,,,,,,,,,,1.6523,1,,,,,,,,,,,,,,,z,1,1.6523,,,,,,,,0.887962963,-0.268518519,0,0,0,,0,36,36,166,1,SHORY,HB,old,z,./images/SHORYHB.png,,,,,,,,,,,,,,,,,,,,,,,,,,,,,,,,,,
,,,,,,,,,,,,,,,,,5da4152a3ab39a0011295a3e,1,2022-02-12_14h51.36.613,lexical_decision_task_DD,2021.2.3,Win32,60.12144532,,,,,,,,,,,0.7367,1,,,,,,,,,,,,,,,m,1,0.7367,,,,,,,,0.887962963,-0.268518519,0,0,0,,0,37,37,29,1,CRUMB,LB,old,m,./images/CRUMBLB.png,,,,,,,,,,,,,,,,,,,,,,,,,,,,,,,,,,
,,,,,,,,,,,,,,,,,5da4152a3ab39a0011295a3e,1,2022-02-12_14h51.36.613,lexical_decision_task_DD,2021.2.3,Win32,60.12144532,,,,,,,,,,,0.7347,1,,,,,,,,,,,,,,,m,1,0.7347,,,,,,,,0.887962963,-0.268518519,0,0,0,,0,38,38,20,1,CRADLE,LB,old,m,./images/CRADLELB.png,,,,,,,,,,,,,,,,,,,,,,,,,,,,,,,,,,
,,,,,,,,,,,,,,,,,5da4152a3ab39a0011295a3e,1,2022-02-12_14h51.36.613,lexical_decision_task_DD,2021.2.3,Win32,60.12144532,,,,,,,,,,,1.0775,1,,,,,,,,,,,,,,,z,1,1.0775,,,,,,,,0.887962963,-0.268518519,0,0,0,,0,39,39,159,1,CUDDY,C,old,z,./images/CUDDY.png,,,,,,,,,,,,,,,,,,,,,,,,,,,,,,,,,,
,,,,,,,,,,,,,,,,,5da4152a3ab39a0011295a3e,1,2022-02-12_14h51.36.613,lexical_decision_task_DD,2021.2.3,Win32,60.12144532,,,,,,,,,,,0.88,1,,,,,,,,,,,,,,,m,1,0.88,,,,,,,,0.887962963,-0.268518519,0,0,0,,0,40,40,54,1,TRIPOD,C,old,m,./images/TRIPOD.png,,,,,,,,,,,,,,,,,,,,,,,,,,,,,,,,,,
,,,,,,,,,,,,,,,,,5da4152a3ab39a0011295a3e,1,2022-02-12_14h51.36.613,lexical_decision_task_DD,2021.2.3,Win32,60.12144532,,,,,,,,,,,1.2793,1,,,,,,,,,,,,,,,z,1,1.2793,,,,,,,,0.887962963,-0.268518519,0,0,0,space,0,41,41,145,1,LAMEL,HB,old,z,./images/LAMELHB.png,25.335,,,,,,,,,,,,,,,,,,,,,,,,,,,,,,,,,
,,,,,,,,,,,,,,,,,5da4152a3ab39a0011295a3e,1,2022-02-12_14h51.36.613,lexical_decision_task_DD,2021.2.3,Win32,60.12144532,,,,,,,,,,,1.687,1,,,,,,,,,,,,,,,z,1,1.687,,,,,,,,0.887962963,-0.268518519,0,0,0,,0,42,42,157,1,INLER,HB,old,z,./images/INLERHB.png,,,,,,,,,,,,,,,,,,,,,,,,,,,,,,,,,,
,,,,,,,,,,,,,,,,,5da4152a3ab39a0011295a3e,1,2022-02-12_14h51.36.613,lexical_decision_task_DD,2021.2.3,Win32,60.12144532,,,,,,,,,,,0.5289,1,,,,,,,,,,,,,,,m,1,0.5289,,,,,,,,0.887962963,-0.268518519,0,0,0,,0,43,43,66,1,SWEAT,C,old,m,./images/SWEAT.png,,,,,,,,,,,,,,,,,,,,,,,,,,,,,,,,,,
,,,,,,,,,,,,,,,,,5da4152a3ab39a0011295a3e,1,2022-02-12_14h51.36.613,lexical_decision_task_DD,2021.2.3,Win32,60.12144532,,,,,,,,,,,0.7191,1,,,,,,,,,,,,,,,z,1,0.7191,,,,,,,,0.887962963,-0.268518519,0,0,0,,0,44,44,95,1,HANTY,LB,old,z,./images/HANTYLB.png,,,,,,,,,,,,,,,,,,,,,,,,,,,,,,,,,,
,,,,,,,,,,,,,,,,,5da4152a3ab39a0011295a3e,1,2022-02-12_14h51.36.613,lexical_decision_task_DD,2021.2.3,Win32,60.12144532,,,,,,,,,,,0.5097,1,,,,,,,,,,,,,,,m,1,0.5097,,,,,,,,0.887962963,-0.268518519,0,0,0,,0,45,45,0,1,TOMATO,C,old,m,./images/TOMATO.png,,,,,,,,,,,,,,,,,,,,,,,,,,,,,,,,,,
,,,,,,,,,,,,,,,,,5da4152a3ab39a0011295a3e,1,2022-02-12_14h51.36.613,lexical_decision_task_DD,2021.2.3,Win32,60.12144532,,,,,,,,,,,0.6676,1,,,,,,,,,,,,,,,m,1,0.6676,,,,,,,,0.887962963,-0.268518519,0,0,0,,0,46,46,11,1,BONNET,LB,old,m,./images/BONNETLB.png,,,,,,,,,,,,,,,,,,,,,,,,,,,,,,,,,,
,,,,,,,,,,,,,,,,,5da4152a3ab39a0011295a3e,1,2022-02-12_14h51.36.613,lexical_decision_task_DD,2021.2.3,Win32,60.12144532,,,,,,,,,,,0.6683,1,,,,,,,,,,,,,,,m,1,0.6683,,,,,,,,0.887962963,-0.268518519,0,0,0,,0,47,47,39,1,SHELF,C,old,m,./images/SHELF.png,,,,,,,,,,,,,,,,,,,,,,,,,,,,,,,,,,
,,,,,,,,,,,,,,,,,5da4152a3ab39a0011295a3e,1,2022-02-12_14h51.36.613,lexical_decision_task_DD,2021.2.3,Win32,60.12144532,,,,,,,,,,,0.7277,1,,,,,,,,,,,,,,,z,1,0.7277,,,,,,,,0.887962963,-0.268518519,0,0,0,,0,48,48,167,1,ZONET,LB,old,z,./images/ZONETLB.png,,,,,,,,,,,,,,,,,,,,,,,,,,,,,,,,,,
,,,,,,,,,,,,,,,,,5da4152a3ab39a0011295a3e,1,2022-02-12_14h51.36.613,lexical_decision_task_DD,2021.2.3,Win32,60.12144532,,,,,,,,,,,0.719,1,,,,,,,,,,,,,,,m,1,0.719,,,,,,,,0.887962963,-0.268518519,0,0,0,,0,49,49,42,1,FOLDER,C,old,m,./images/FOLDER.png,,,,,,,,,,,,,,,,,,,,,,,,,,,,,,,,,,
,,,,,,,,,,,,,,,,,5da4152a3ab39a0011295a3e,1,2022-02-12_14h51.36.613,lexical_decision_task_DD,2021.2.3,Win32,60.12144532,,,,,,,,,,,0.7734,1,,,,,,,,,,,,,,,m,1,0.7734,,,,,,,,0.887962963,-0.268518519,0,0,0,,0,50,50,68,1,TORCH,LB,old,m,./images/TORCHLB.png,,,,,,,,,,,,,,,,,,,,,,,,,,,,,,,,,,
,,,,,,,,,,,,,,,,,5da4152a3ab39a0011295a3e,1,2022-02-12_14h51.36.613,lexical_decision_task_DD,2021.2.3,Win32,60.12144532,,,,,,,,,,,1.5289,1,,,,,,,,,,,,,,,z,1,1.5289,,,,,,,,0.887962963,-0.268518519,0,0,0,,0,51,51,118,1,BAVEL,HB,old,z,./images/BAVELHB.png,,,,,,,,,,,,,,,,,,,,,,,,,,,,,,,,,,
,,,,,,,,,,,,,,,,,5da4152a3ab39a0011295a3e,1,2022-02-12_14h51.36.613,lexical_decision_task_DD,2021.2.3,Win32,60.12144532,,,,,,,,,,,0.774,1,,,,,,,,,,,,,,,m,1,0.774,,,,,,,,0.887962963,-0.268518519,0,0,0,,0,52,52,38,1,LADDER,LB,old,m,./images/LADDERLB.png,,,,,,,,,,,,,,,,,,,,,,,,,,,,,,,,,,
,,,,,,,,,,,,,,,,,5da4152a3ab39a0011295a3e,1,2022-02-12_14h51.36.613,lexical_decision_task_DD,2021.2.3,Win32,60.12144532,,,,,,,,,,,0.742,1,,,,,,,,,,,,,,,m,1,0.742,,,,,,,,0.887962963,-0.268518519,0,0,0,,0,53,53,60,1,TWINS,C,old,m,./images/TWINS.png,,,,,,,,,,,,,,,,,,,,,,,,,,,,,,,,,,
,,,,,,,,,,,,,,,,,5da4152a3ab39a0011295a3e,1,2022-02-12_14h51.36.613,lexical_decision_task_DD,2021.2.3,Win32,60.12144532,,,,,,,,,,,1.9263,0,,,,,,,,,,,,,,,m,0,1.9263,,,,,,,,0.887962963,-0.268518519,0,0,0,,0,54,54,100,1,DRIBS,HB,old,z,./images/DRIBSHB.png,,,,,,,,,,,,,,,,,,,,,,,,,,,,,,,,,,
,,,,,,,,,,,,,,,,,5da4152a3ab39a0011295a3e,1,2022-02-12_14h51.36.613,lexical_decision_task_DD,2021.2.3,Win32,60.12144532,,,,,,,,,,,0.6395,1,,,,,,,,,,,,,,,m,1,0.6395,,,,,,,,0.887962963,-0.268518519,0,0,0,,0,55,55,41,1,STRING,LB,old,m,./images/STRINGLB.png,,,,,,,,,,,,,,,,,,,,,,,,,,,,,,,,,,
,,,,,,,,,,,,,,,,,5da4152a3ab39a0011295a3e,1,2022-02-12_14h51.36.613,lexical_decision_task_DD,2021.2.3,Win32,60.12144532,,,,,,,,,,,0.5329,1,,,,,,,,,,,,,,,m,1,0.5329,,,,,,,,0.887962963,-0.268518519,0,0,0,,0,56,56,51,1,ONION,C,old,m,./images/ONION.png,,,,,,,,,,,,,,,,,,,,,,,,,,,,,,,,,,
,,,,,,,,,,,,,,,,,5da4152a3ab39a0011295a3e,1,2022-02-12_14h51.36.613,lexical_decision_task_DD,2021.2.3,Win32,60.12144532,,,,,,,,,,,0.8285,1,,,,,,,,,,,,,,,m,1,0.8285,,,,,,,,0.887962963,-0.268518519,0,0,0,,0,57,57,25,1,WRIST,HB,old,m,./images/WRISTHB.png,,,,,,,,,,,,,,,,,,,,,,,,,,,,,,,,,,
,,,,,,,,,,,,,,,,,5da4152a3ab39a0011295a3e,1,2022-02-12_14h51.36.613,lexical_decision_task_DD,2021.2.3,Win32,60.12144532,,,,,,,,,,,1.1157,1,,,,,,,,,,,,,,,m,1,1.1157,,,,,,,,0.887962963,-0.268518519,0,0,0,,0,58,58,55,1,MUFFIN,HB,old,m,./images/MUFFINHB.png,,,,,,,,,,,,,,,,,,,,,,,,,,,,,,,,,,
,,,,,,,,,,,,,,,,,5da4152a3ab39a0011295a3e,1,2022-02-12_14h51.36.613,lexical_decision_task_DD,2021.2.3,Win32,60.12144532,,,,,,,,,,,0.803,1,,,,,,,,,,,,,,,z,1,0.803,,,,,,,,0.887962963,-0.268518519,0,0,0,,0,59,59,102,1,DULLE,C,old,z,./images/DULLE.png,,,,,,,,,,,,,,,,,,,,,,,,,,,,,,,,,,
,,,,,,,,,,,,,,,,,5da4152a3ab39a0011295a3e,1,2022-02-12_14h51.36.613,lexical_decision_task_DD,2021.2.3,Win32,60.12144532,,,,,,,,,,,0.8512,1,,,,,,,,,,,,,,,z,1,0.8512,,,,,,,,0.887962963,-0.268518519,0,0,0,,0,60,60,153,1,CLUPS,C,old,z,./images/CLUPS.png,,,,,,,,,,,,,,,,,,,,,,,,,,,,,,,,,,
,,,,,,,,,,,,,,,,,5da4152a3ab39a0011295a3e,1,2022-02-12_14h51.36.613,lexical_decision_task_DD,2021.2.3,Win32,60.12144532,,,,,,,,,,,0.9242,1,,,,,,,,,,,,,,,z,1,0.9242,,,,,,,,0.887962963,-0.268518519,0,0,0,,0,61,61,143,1,MONGS,LB,old,z,./images/MONGSLB.png,,,,,,,,,,,,,,,,,,,,,,,,,,,,,,,,,,
,,,,,,,,,,,,,,,,,5da4152a3ab39a0011295a3e,1,2022-02-12_14h51.36.613,lexical_decision_task_DD,2021.2.3,Win32,60.12144532,,,,,,,,,,,1.536,1,,,,,,,,,,,,,,,z,1,1.536,,,,,,,,0.887962963,-0.268518519,0,0,0,,0,62,62,154,1,THINT,HB,old,z,./images/THINTHB.png,,,,,,,,,,,,,,,,,,,,,,,,,,,,,,,,,,
,,,,,,,,,,,,,,,,,5da4152a3ab39a0011295a3e,1,2022-02-12_14h51.36.613,lexical_decision_task_DD,2021.2.3,Win32,60.12144532,,,,,,,,,,,1.5118,1,,,,,,,,,,,,,,,m,1,1.5118,,,,,,,,0.887962963,-0.268518519,0,0,0,,0,63,63,52,1,BANNER,HB,old,m,./images/BANNERHB.png,,,,,,,,,,,,,,,,,,,,,,,,,,,,,,,,,,
,,,,,,,,,,,,,,,,,5da4152a3ab39a0011295a3e,1,2022-02-12_14h51.36.613,lexical_decision_task_DD,2021.2.3,Win32,60.12144532,,,,,,,,,,,0.8339,1,,,,,,,,,,,,,,,m,1,0.8339,,,,,,,,0.887962963,-0.268518519,0,0,0,,0,64,64,59,1,BURIAL,LB,old,m,./images/BURIALLB.png,,,,,,,,,,,,,,,,,,,,,,,,,,,,,,,,,,
,,,,,,,,,,,,,,,,,5da4152a3ab39a0011295a3e,1,2022-02-12_14h51.36.613,lexical_decision_task_DD,2021.2.3,Win32,60.12144532,,,,,,,,,,,0.9463,1,,,,,,,,,,,,,,,m,1,0.9463,,,,,,,,0.887962963,-0.268518519,0,0,0,,0,65,65,70,1,URINE,HB,old,m,./images/URINEHB.png,,,,,,,,,,,,,,,,,,,,,,,,,,,,,,,,,,
,,,,,,,,,,,,,,,,,5da4152a3ab39a0011295a3e,1,2022-02-12_14h51.36.613,lexical_decision_task_DD,2021.2.3,Win32,60.12144532,,,,,,,,,,,1.6387,1,,,,,,,,,,,,,,,m,1,1.6387,,,,,,,,0.887962963,-0.268518519,0,0,0,,0,66,66,43,1,MOSQUE,HB,old,m,./images/MOSQUEHB.png,,,,,,,,,,,,,,,,,,,,,,,,,,,,,,,,,,
,,,,,,,,,,,,,,,,,5da4152a3ab39a0011295a3e,1,2022-02-12_14h51.36.613,lexical_decision_task_DD,2021.2.3,Win32,60.12144532,,,,,,,,,,,0.8296,1,,,,,,,,,,,,,,,m,1,0.8296,,,,,,,,0.887962963,-0.268518519,0,0,0,,0,67,67,13,1,MOTOR,HB,old,m,./images/MOTORHB.png,,,,,,,,,,,,,,,,,,,,,,,,,,,,,,,,,,
,,,,,,,,,,,,,,,,,5da4152a3ab39a0011295a3e,1,2022-02-12_14h51.36.613,lexical_decision_task_DD,2021.2.3,Win32,60.12144532,,,,,,,,,,,1.5927,1,,,,,,,,,,,,,,,z,1,1.5927,,,,,,,,0.887962963,-0.268518519,0,0,0,,0,68,68,163,1,GAMBA,HB,old,z,./images/GAMBAHB.png,,,,,,,,,,,,,,,,,,,,,,,,,,,,,,,,,,
,,,,,,,,,,,,,,,,,5da4152a3ab39a0011295a3e,1,2022-02-12_14h51.36.613,lexical_decision_task_DD,2021.2.3,Win32,60.12144532,,,,,,,,,,,1.1739,1,,,,,,,,,,,,,,,m,1,1.1739,,,,,,,,0.887962963,-0.268518519,0,0,0,,0,69,69,18,1,JAGUAR,C,old,m,./images/JAGUAR.png,,,,,,,,,,,,,,,,,,,,,,,,,,,,,,,,,,
,,,,,,,,,,,,,,,,,5da4152a3ab39a0011295a3e,1,2022-02-12_14h51.36.613,lexical_decision_task_DD,2021.2.3,Win32,60.12144532,,,,,,,,,,,1.3451,1,,,,,,,,,,,,,,,z,1,1.3451,,,,,,,,0.887962963,-0.268518519,0,0,0,,0,70,70,85,1,CHULK,HB,old,z,./images/CHULKHB.png,,,,,,,,,,,,,,,,,,,,,,,,,,,,,,,,,,
,,,,,,,,,,,,,,,,,5da4152a3ab39a0011295a3e,1,2022-02-12_14h51.36.613,lexical_decision_task_DD,2021.2.3,Win32,60.12144532,,,,,,,,,,,0.8747,1,,,,,,,,,,,,,,,z,1,0.8747,,,,,,,,0.887962963,-0.268518519,0,0,0,,0,71,71,99,1,BACKY,C,old,z,./images/BACKY.png,,,,,,,,,,,,,,,,,,,,,,,,,,,,,,,,,,
,,,,,,,,,,,,,,,,,5da4152a3ab39a0011295a3e,1,2022-02-12_14h51.36.613,lexical_decision_task_DD,2021.2.3,Win32,60.12144532,,,,,,,,,,,0.7743,1,,,,,,,,,,,,,,,z,1,0.7743,,,,,,,,0.887962963,-0.268518519,0,0,0,,0,72,72,123,1,SEDGE,C,old,z,./images/SEDGE.png,,,,,,,,,,,,,,,,,,,,,,,,,,,,,,,,,,
,,,,,,,,,,,,,,,,,5da4152a3ab39a0011295a3e,1,2022-02-12_14h51.36.613,lexical_decision_task_DD,2021.2.3,Win32,60.12144532,,,,,,,,,,,1.0068,1,,,,,,,,,,,,,,,m,1,1.0068,,,,,,,,0.887962963,-0.268518519,0,0,0,,0,73,73,36,1,THROAT,C,old,m,./images/THROAT.png,,,,,,,,,,,,,,,,,,,,,,,,,,,,,,,,,,
,,,,,,,,,,,,,,,,,5da4152a3ab39a0011295a3e,1,2022-02-12_14h51.36.613,lexical_decision_task_DD,2021.2.3,Win32,60.12144532,,,,,,,,,,,0.7783,1,,,,,,,,,,,,,,,z,1,0.7783,,,,,,,,0.887962963,-0.268518519,0,0,0,,0,74,74,134,1,TROSS,LB,old,z,./images/TROSSLB.png,,,,,,,,,,,,,,,,,,,,,,,,,,,,,,,,,,
,,,,,,,,,,,,,,,,,5da4152a3ab39a0011295a3e,1,2022-02-12_14h51.36.613,lexical_decision_task_DD,2021.2.3,Win32,60.12144532,,,,,,,,,,,0.55,1,,,,,,,,,,,,,,,m,1,0.55,,,,,,,,0.887962963,-0.268518519,0,0,0,,0,75,75,26,1,SMOKER,LB,old,m,./images/SMOKERLB.png,,,,,,,,,,,,,,,,,,,,,,,,,,,,,,,,,,
,,,,,,,,,,,,,,,,,5da4152a3ab39a0011295a3e,1,2022-02-12_14h51.36.613,lexical_decision_task_DD,2021.2.3,Win32,60.12144532,,,,,,,,,,,0.612,1,,,,,,,,,,,,,,,m,1,0.612,,,,,,,,0.887962963,-0.268518519,0,0,0,,0,76,76,62,1,PURSE,LB,old,m,./images/PURSELB.png,,,,,,,,,,,,,,,,,,,,,,,,,,,,,,,,,,
,,,,,,,,,,,,,,,,,5da4152a3ab39a0011295a3e,1,2022-02-12_14h51.36.613,lexical_decision_task_DD,2021.2.3,Win32,60.12144532,,,,,,,,,,,0.6499,1,,,,,,,,,,,,,,,m,1,0.6499,,,,,,,,0.887962963,-0.268518519,0,0,0,,0,77,77,30,1,STORM,C,old,m,./images/STORM.png,,,,,,,,,,,,,,,,,,,,,,,,,,,,,,,,,,
,,,,,,,,,,,,,,,,,5da4152a3ab39a0011295a3e,1,2022-02-12_14h51.36.613,lexical_decision_task_DD,2021.2.3,Win32,60.12144532,,,,,,,,,,,0.8707,1,,,,,,,,,,,,,,,m,1,0.8707,,,,,,,,0.887962963,-0.268518519,0,0,0,,0,78,78,56,1,PACKET,LB,old,m,./images/PACKETLB.png,,,,,,,,,,,,,,,,,,,,,,,,,,,,,,,,,,
,,,,,,,,,,,,,,,,,5da4152a3ab39a0011295a3e,1,2022-02-12_14h51.36.613,lexical_decision_task_DD,2021.2.3,Win32,60.12144532,,,,,,,,,,,1.1482,1,,,,,,,,,,,,,,,z,1,1.1482,,,,,,,,0.887962963,-0.268518519,0,0,0,,0,79,79,94,1,BLANS,HB,old,z,./images/BLANSHB.png,,,,,,,,,,,,,,,,,,,,,,,,,,,,,,,,,,
,,,,,,,,,,,,,,,,,5da4152a3ab39a0011295a3e,1,2022-02-12_14h51.36.613,lexical_decision_task_DD,2021.2.3,Win32,60.12144532,,,,,,,,,,,1.0046,1,,,,,,,,,,,,,,,m,1,1.0046,,,,,,,,0.887962963,-0.268518519,0,0,0,,0,80,80,77,1,COUCH,LB,old,m,./images/COUCHLB.png,,,,,,,,,,,,,,,,,,,,,,,,,,,,,,,,,,
,,,,,,,,,,,,,,,,,5da4152a3ab39a0011295a3e,1,2022-02-12_14h51.36.613,lexical_decision_task_DD,2021.2.3,Win32,60.12144532,,,,,,,,,,,0.8494,1,,,,,,,,,,,,,,,z,1,0.8494,,,,,,,,0.887962963,-0.268518519,0,0,0,,0,81,81,84,1,HAXES,C,old,z,./images/HAXES.png,,,,,,,,,,,,,,,,,,,,,,,,,,,,,,,,,,
,,,,,,,,,,,,,,,,,5da4152a3ab39a0011295a3e,1,2022-02-12_14h51.36.613,lexical_decision_task_DD,2021.2.3,Win32,60.12144532,,,,,,,,,,,1.0318,1,,,,,,,,,,,,,,,z,1,1.0318,,,,,,,,0.887962963,-0.268518519,0,0,0,,0,82,82,160,1,VEETS,HB,old,z,./images/VEETSHB.png,,,,,,,,,,,,,,,,,,,,,,,,,,,,,,,,,,
,,,,,,,,,,,,,,,,,5da4152a3ab39a0011295a3e,1,2022-02-12_14h51.36.613,lexical_decision_task_DD,2021.2.3,Win32,60.12144532,,,,,,,,,,,1.7849,1,,,,,,,,,,,,,,,z,1,1.7849,,,,,,,,0.887962963,-0.268518519,0,0,0,space,0,83,83,127,1,NINDY,HB,old,z,./images/NINDYHB.png,1.5157,,,,,,,,,,,,,,,,,,,,,,,,,,,,,,,,,
,,,,,,,,,,,,,,,,,5da4152a3ab39a0011295a3e,1,2022-02-12_14h51.36.613,lexical_decision_task_DD,2021.2.3,Win32,60.12144532,,,,,,,,,,,0.7257,1,,,,,,,,,,,,,,,z,1,0.7257,,,,,,,,0.887962963,-0.268518519,0,0,0,,0,84,84,105,1,MOKER,C,old,z,./images/MOKER.png,,,,,,,,,,,,,,,,,,,,,,,,,,,,,,,,,,
,,,,,,,,,,,,,,,,,5da4152a3ab39a0011295a3e,1,2022-02-12_14h51.36.613,lexical_decision_task_DD,2021.2.3,Win32,60.12144532,,,,,,,,,,,0.5716,1,,,,,,,,,,,,,,,m,1,0.5716,,,,,,,,0.887962963,-0.268518519,0,0,0,,0,85,85,83,1,JUNGLE,LB,old,m,./images/JUNGLELB.png,,,,,,,,,,,,,,,,,,,,,,,,,,,,,,,,,,
,,,,,,,,,,,,,,,,,5da4152a3ab39a0011295a3e,1,2022-02-12_14h51.36.613,lexical_decision_task_DD,2021.2.3,Win32,60.12144532,,,,,,,,,,,0.7267,1,,,,,,,,,,,,,,,z,1,0.7267,,,,,,,,0.887962963,-0.268518519,0,0,0,,0,86,86,122,1,BLOOT,LB,old,z,./images/BLOOTLB.png,,,,,,,,,,,,,,,,,,,,,,,,,,,,,,,,,,
,,,,,,,,,,,,,,,,,5da4152a3ab39a0011295a3e,1,2022-02-12_14h51.36.613,lexical_decision_task_DD,2021.2.3,Win32,60.12144532,,,,,,,,,,,0.7571,1,,,,,,,,,,,,,,,m,1,0.7571,,,,,,,,0.887962963,-0.268518519,0,0,0,,0,87,87,27,1,ATTIC,C,old,m,./images/ATTIC.png,,,,,,,,,,,,,,,,,,,,,,,,,,,,,,,,,,
,,,,,,,,,,,,,,,,,5da4152a3ab39a0011295a3e,1,2022-02-12_14h51.36.613,lexical_decision_task_DD,2021.2.3,Win32,60.12144532,,,,,,,,,,,0.6369,1,,,,,,,,,,,,,,,m,1,0.6369,,,,,,,,0.887962963,-0.268518519,0,0,0,,0,88,88,23,1,WALRUS,LB,old,m,./images/WALRUSLB.png,,,,,,,,,,,,,,,,,,,,,,,,,,,,,,,,,,
,,,,,,,,,,,,,,,,,5da4152a3ab39a0011295a3e,1,2022-02-12_14h51.36.613,lexical_decision_task_DD,2021.2.3,Win32,60.12144532,,,,,,,,,,,1.1369,1,,,,,,,,,,,,,,,m,1,1.1369,,,,,,,,0.887962963,-0.268518519,0,0,0,,0,89,89,10,1,BELLY,HB,old,m,./images/BELLYHB.png,,,,,,,,,,,,,,,,,,,,,,,,,,,,,,,,,,
,,,,,,,,,,,,,,,,,5da4152a3ab39a0011295a3e,1,2022-02-12_14h51.36.613,lexical_decision_task_DD,2021.2.3,Win32,60.12144532,,,,,,,,,,,1.4463,1,,,,,,,,,,,,,,,z,1,1.4463,,,,,,,,0.887962963,-0.268518519,0,0,0,,0,90,90,103,1,FLORT,HB,old,z,./images/FLORTHB.png,,,,,,,,,,,,,,,,,,,,,,,,,,,,,,,,,,
,,,,,,,,,,,,,,,,,5da4152a3ab39a0011295a3e,1,2022-02-12_14h51.36.613,lexical_decision_task_DD,2021.2.3,Win32,60.12144532,,,,,,,,,,,0.9523,1,,,,,,,,,,,,,,,z,1,0.9523,,,,,,,,0.887962963,-0.268518519,0,0,0,,0,91,91,113,1,LINEW,LB,old,z,./images/LINEWLB.png,,,,,,,,,,,,,,,,,,,,,,,,,,,,,,,,,,
,,,,,,,,,,,,,,,,,5da4152a3ab39a0011295a3e,1,2022-02-12_14h51.36.613,lexical_decision_task_DD,2021.2.3,Win32,60.12144532,,,,,,,,,,,0.6536,1,,,,,,,,,,,,,,,m,1,0.6536,,,,,,,,0.887962963,-0.268518519,0,0,0,,0,92,92,15,1,GREASE,C,old,m,./images/GREASE.png,,,,,,,,,,,,,,,,,,,,,,,,,,,,,,,,,,
,,,,,,,,,,,,,,,,,5da4152a3ab39a0011295a3e,1,2022-02-12_14h51.36.613,lexical_decision_task_DD,2021.2.3,Win32,60.12144532,,,,,,,,,,,0.7645,1,,,,,,,,,,,,,,,z,1,0.7645,,,,,,,,0.887962963,-0.268518519,0,0,0,,0,93,93,135,1,JOODY,C,old,z,./images/JOODY.png,,,,,,,,,,,,,,,,,,,,,,,,,,,,,,,,,,
,,,,,,,,,,,,,,,,,5da4152a3ab39a0011295a3e,1,2022-02-12_14h51.36.613,lexical_decision_task_DD,2021.2.3,Win32,60.12144532,,,,,,,,,,,0.618,1,,,,,,,,,,,,,,,m,1,0.618,,,,,,,,0.887962963,-0.268518519,0,0,0,,0,94,94,78,1,LITTER,C,old,m,./images/LITTER.png,,,,,,,,,,,,,,,,,,,,,,,,,,,,,,,,,,
,,,,,,,,,,,,,,,,,5da4152a3ab39a0011295a3e,1,2022-02-12_14h51.36.613,lexical_decision_task_DD,2021.2.3,Win32,60.12144532,,,,,,,,,,,0.7031,1,,,,,,,,,,,,,,,z,1,0.7031,,,,,,,,0.887962963,-0.268518519,0,0,0,,0,95,95,108,1,GRUET,C,old,z,./images/GRUET.png,,,,,,,,,,,,,,,,,,,,,,,,,,,,,,,,,,
,,,,,,,,,,,,,,,,,5da4152a3ab39a0011295a3e,1,2022-02-12_14h51.36.613,lexical_decision_task_DD,2021.2.3,Win32,60.12144532,,,,,,,,,,,1.3246,1,,,,,,,,,,,,,,,z,1,1.3246,,,,,,,,0.887962963,-0.268518519,0,0,0,,0,96,96,136,1,WERVE,HB,old,z,./images/WERVEHB.png,,,,,,,,,,,,,,,,,,,,,,,,,,,,,,,,,,
,,,,,,,,,,,,,,,,,5da4152a3ab39a0011295a3e,1,2022-02-12_14h51.36.613,lexical_decision_task_DD,2021.2.3,Win32,60.12144532,,,,,,,,,,,1.0213,1,,,,,,,,,,,,,,,m,1,1.0213,,,,,,,,0.887962963,-0.268518519,0,0,0,,0,97,97,50,1,MALLET,LB,old,m,./images/MALLETLB.png,,,,,,,,,,,,,,,,,,,,,,,,,,,,,,,,,,
,,,,,,,,,,,,,,,,,5da4152a3ab39a0011295a3e,1,2022-02-12_14h51.36.613,lexical_decision_task_DD,2021.2.3,Win32,60.12144532,,,,,,,,,,,0.6225,1,,,,,,,,,,,,,,,m,1,0.6225,,,,,,,,0.887962963,-0.268518519,0,0,0,,0,98,98,3,1,FINGER,C,old,m,./images/FINGER.png,,,,,,,,,,,,,,,,,,,,,,,,,,,,,,,,,,
,,,,,,,,,,,,,,,,,5da4152a3ab39a0011295a3e,1,2022-02-12_14h51.36.613,lexical_decision_task_DD,2021.2.3,Win32,60.12144532,,,,,,,,,,,0.983,1,,,,,,,,,,,,,,,z,1,0.983,,,,,,,,0.887962963,-0.268518519,0,0,0,,0,99,99,148,1,JOMS,HB,old,z,./images/JOMSHB.png,,,,,,,,,,,,,,,,,,,,,,,,,,,,,,,,,,
,,,,,,,,,,,,,,,,,5da4152a3ab39a0011295a3e,1,2022-02-12_14h51.36.613,lexical_decision_task_DD,2021.2.3,Win32,60.12144532,,,,,,,,,,,0.6799,1,,,,,,,,,,,,,,,z,1,0.6799,,,,,,,,0.887962963,-0.268518519,0,0,0,,0,100,100,150,1,NOOLS,C,old,z,./images/NOOLS.png,,,,,,,,,,,,,,,,,,,,,,,,,,,,,,,,,,
,,,,,,,,,,,,,,,,,5da4152a3ab39a0011295a3e,1,2022-02-12_14h51.36.613,lexical_decision_task_DD,2021.2.3,Win32,60.12144532,,,,,,,,,,,0.8298,1,,,,,,,,,,,,,,,m,1,0.8298,,,,,,,,0.887962963,-0.268518519,0,0,0,,0,101,101,5,1,PASTA,LB,old,m,./images/PASTALB.png,,,,,,,,,,,,,,,,,,,,,,,,,,,,,,,,,,
,,,,,,,,,,,,,,,,,5da4152a3ab39a0011295a3e,1,2022-02-12_14h51.36.613,lexical_decision_task_DD,2021.2.3,Win32,60.12144532,,,,,,,,,,,0.8941,1,,,,,,,,,,,,,,,z,1,0.8941,,,,,,,,0.887962963,-0.268518519,0,0,0,,0,102,102,90,1,NEAST,C,old,z,./images/NEAST.png,,,,,,,,,,,,,,,,,,,,,,,,,,,,,,,,,,
,,,,,,,,,,,,,,,,,5da4152a3ab39a0011295a3e,1,2022-02-12_14h51.36.613,lexical_decision_task_DD,2021.2.3,Win32,60.12144532,,,,,,,,,,,0.8095,1,,,,,,,,,,,,,,,m,1,0.8095,,,,,,,,0.887962963,-0.268518519,0,0,0,,0,103,103,6,1,SQUARE,C,old,m,./images/SQUARE.png,,,,,,,,,,,,,,,,,,,,,,,,,,,,,,,,,,
,,,,,,,,,,,,,,,,,5da4152a3ab39a0011295a3e,1,2022-02-12_14h51.36.613,lexical_decision_task_DD,2021.2.3,Win32,60.12144532,,,,,,,,,,,0.968,1,,,,,,,,,,,,,,,z,1,0.968,,,,,,,,0.887962963,-0.268518519,0,0,0,,0,104,104,164,1,SGREW,LB,old,z,./images/SGREWLB.png,,,,,,,,,,,,,,,,,,,,,,,,,,,,,,,,,,
,,,,,,,,,,,,,,,,,5da4152a3ab39a0011295a3e,1,2022-02-12_14h51.36.613,lexical_decision_task_DD,2021.2.3,Win32,60.12144532,,,,,,,,,,,0.697,1,,,,,,,,,,,,,,,z,1,0.697,,,,,,,,0.887962963,-0.268518519,0,0,0,,0,105,105,89,1,DRIEK,LB,old,z,./images/DRIEKLB.png,,,,,,,,,,,,,,,,,,,,,,,,,,,,,,,,,,
,,,,,,,,,,,,,,,,,5da4152a3ab39a0011295a3e,1,2022-02-12_14h51.36.613,lexical_decision_task_DD,2021.2.3,Win32,60.12144532,,,,,,,,,,,1.0798,1,,,,,,,,,,,,,,,z,1,1.0798,,,,,,,,0.887962963,-0.268518519,0,0,0,,0,106,106,141,1,PLEET,C,old,z,./images/PLEET.png,,,,,,,,,,,,,,,,,,,,,,,,,,,,,,,,,,
,,,,,,,,,,,,,,,,,5da4152a3ab39a0011295a3e,1,2022-02-12_14h51.36.613,lexical_decision_task_DD,2021.2.3,Win32,60.12144532,,,,,,,,,,,0.7219,0,,,,,,,,,,,,,,,z,0,0.7219,,,,,,,,0.887962963,-0.268518519,0,0,0,,0,107,107,72,1,NOOSE,C,old,m,./images/NOOSE.png,,,,,,,,,,,,,,,,,,,,,,,,,,,,,,,,,,
,,,,,,,,,,,,,,,,,5da4152a3ab39a0011295a3e,1,2022-02-12_14h51.36.613,lexical_decision_task_DD,2021.2.3,Win32,60.12144532,,,,,,,,,,,0.5565,1,,,,,,,,,,,,,,,m,1,0.5565,,,,,,,,0.887962963,-0.268518519,0,0,0,,0,108,108,48,1,SPORT,C,old,m,./images/SPORT.png,,,,,,,,,,,,,,,,,,,,,,,,,,,,,,,,,,
,,,,,,,,,,,,,,,,,5da4152a3ab39a0011295a3e,1,2022-02-12_14h51.36.613,lexical_decision_task_DD,2021.2.3,Win32,60.12144532,,,,,,,,,,,0.8856,1,,,,,,,,,,,,,,,m,1,0.8856,,,,,,,,0.887962963,-0.268518519,0,0,0,,0,109,109,79,1,CRUST,HB,old,m,./images/CRUSTHB.png,,,,,,,,,,,,,,,,,,,,,,,,,,,,,,,,,,
,,,,,,,,,,,,,,,,,5da4152a3ab39a0011295a3e,1,2022-02-12_14h51.36.613,lexical_decision_task_DD,2021.2.3,Win32,60.12144532,,,,,,,,,,,0.716,1,,,,,,,,,,,,,,,m,1,0.716,,,,,,,,0.887962963,-0.268518519,0,0,0,,0,110,110,69,1,COOKER,C,old,m,./images/COOKER.png,,,,,,,,,,,,,,,,,,,,,,,,,,,,,,,,,,
,,,,,,,,,,,,,,,,,5da4152a3ab39a0011295a3e,1,2022-02-12_14h51.36.613,lexical_decision_task_DD,2021.2.3,Win32,60.12144532,,,,,,,,,,,0.6134,1,,,,,,,,,,,,,,,m,1,0.6134,,,,,,,,0.887962963,-0.268518519,0,0,0,,0,111,111,21,1,KIDNEY,C,old,m,./images/KIDNEY.png,,,,,,,,,,,,,,,,,,,,,,,,,,,,,,,,,,
,,,,,,,,,,,,,,,,,5da4152a3ab39a0011295a3e,1,2022-02-12_14h51.36.613,lexical_decision_task_DD,2021.2.3,Win32,60.12144532,,,,,,,,,,,1.4011,1,,,,,,,,,,,,,,,z,1,1.4011,,,,,,,,0.887962963,-0.268518519,0,0,0,,0,112,112,124,1,TUNCH,HB,old,z,./images/TUNCHHB.png,,,,,,,,,,,,,,,,,,,,,,,,,,,,,,,,,,
,,,,,,,,,,,,,,,,,5da4152a3ab39a0011295a3e,1,2022-02-12_14h51.36.613,lexical_decision_task_DD,2021.2.3,Win32,60.12144532,,,,,,,,,,,1.4104,1,,,,,,,,,,,,,,,m,1,1.4104,,,,,,,,0.887962963,-0.268518519,0,0,0,,0,113,113,73,1,SNACK,HB,old,m,./images/SNACKHB.png,,,,,,,,,,,,,,,,,,,,,,,,,,,,,,,,,,
,,,,,,,,,,,,,,,,,5da4152a3ab39a0011295a3e,1,2022-02-12_14h51.36.613,lexical_decision_task_DD,2021.2.3,Win32,60.12144532,,,,,,,,,,,1.618,1,,,,,,,,,,,,,,,m,1,1.618,,,,,,,,0.887962963,-0.268518519,0,0,0,,0,114,114,22,1,MELON,HB,old,m,./images/MELONHB.png,,,,,,,,,,,,,,,,,,,,,,,,,,,,,,,,,,
,,,,,,,,,,,,,,,,,5da4152a3ab39a0011295a3e,1,2022-02-12_14h51.36.613,lexical_decision_task_DD,2021.2.3,Win32,60.12144532,,,,,,,,,,,0.7707,1,,,,,,,,,,,,,,,z,1,0.7707,,,,,,,,0.887962963,-0.268518519,0,0,0,,0,115,115,149,1,VEASE,LB,old,z,./images/VEASELB.png,,,,,,,,,,,,,,,,,,,,,,,,,,,,,,,,,,
,,,,,,,,,,,,,,,,,5da4152a3ab39a0011295a3e,1,2022-02-12_14h51.36.613,lexical_decision_task_DD,2021.2.3,Win32,60.12144532,,,,,,,,,,,0.6671,1,,,,,,,,,,,,,,,z,1,0.6671,,,,,,,,0.887962963,-0.268518519,0,0,0,,0,116,116,156,1,HIXES,C,old,z,./images/HIXES.png,,,,,,,,,,,,,,,,,,,,,,,,,,,,,,,,,,
,,,,,,,,,,,,,,,,,5da4152a3ab39a0011295a3e,1,2022-02-12_14h51.36.613,lexical_decision_task_DD,2021.2.3,Win32,60.12144532,,,,,,,,,,,0.8233,1,,,,,,,,,,,,,,,z,1,0.8233,,,,,,,,0.887962963,-0.268518519,0,0,0,,0,117,117,86,1,AIFED,LB,old,z,./images/AIFEDLB.png,,,,,,,,,,,,,,,,,,,,,,,,,,,,,,,,,,
,,,,,,,,,,,,,,,,,5da4152a3ab39a0011295a3e,1,2022-02-12_14h51.36.613,lexical_decision_task_DD,2021.2.3,Win32,60.12144532,,,,,,,,,,,1.6459,1,,,,,,,,,,,,,,,z,1,1.6459,,,,,,,,0.887962963,-0.268518519,0,0,0,,0,118,118,96,1,KEAMS,C,old,z,./images/KEAMS.png,,,,,,,,,,,,,,,,,,,,,,,,,,,,,,,,,,
,,,,,,,,,,,,,,,,,5da4152a3ab39a0011295a3e,1,2022-02-12_14h51.36.613,lexical_decision_task_DD,2021.2.3,Win32,60.12144532,,,,,,,,,,,1.8722,1,,,,,,,,,,,,,,,z,1,1.8722,,,,,,,,0.887962963,-0.268518519,0,0,0,,0,119,119,139,1,BLEAR,HB,old,z,./images/BLEARHB.png,,,,,,,,,,,,,,,,,,,,,,,,,,,,,,,,,,
,,,,,,,,,,,,,,,,,5da4152a3ab39a0011295a3e,1,2022-02-12_14h51.36.613,lexical_decision_task_DD,2021.2.3,Win32,60.12144532,,,,,,,,,,,0.7877,1,,,,,,,,,,,,,,,m,1,0.7877,,,,,,,,0.887962963,-0.268518519,0,0,0,,0,120,120,35,1,PEACH,LB,old,m,./images/PEACHLB.png,,,,,,,,,,,,,,,,,,,,,,,,,,,,,,,,,,
,,,,,,,,,,,,,,,,,5da4152a3ab39a0011295a3e,1,2022-02-12_14h51.36.613,lexical_decision_task_DD,2021.2.3,Win32,60.12144532,,,,,,,,,,,0.8061,1,,,,,,,,,,,,,,,z,1,0.8061,,,,,,,,0.887962963,-0.268518519,0,0,0,,0,121,121,125,1,MOOKY,LB,old,z,./images/MOOKYLB.png,,,,,,,,,,,,,,,,,,,,,,,,,,,,,,,,,,
,,,,,,,,,,,,,,,,,5da4152a3ab39a0011295a3e,1,2022-02-12_14h51.36.613,lexical_decision_task_DD,2021.2.3,Win32,60.12144532,,,,,,,,,,,0.6358,1,,,,,,,,,,,,,,,m,1,0.6358,,,,,,,,0.887962963,-0.268518519,0,0,0,,0,122,122,14,1,PICKLE,LB,old,m,./images/PICKLELB.png,,,,,,,,,,,,,,,,,,,,,,,,,,,,,,,,,,
,,,,,,,,,,,,,,,,,5da4152a3ab39a0011295a3e,1,2022-02-12_14h51.36.613,lexical_decision_task_DD,2021.2.3,Win32,60.12144532,,,,,,,,,,,1.4177,1,,,,,,,,,,,,,,,z,1,1.4177,,,,,,,,0.887962963,-0.268518519,0,0,0,,0,123,123,91,1,SHENS,HB,old,z,./images/SHENSHB.png,,,,,,,,,,,,,,,,,,,,,,,,,,,,,,,,,,
,,,,,,,,,,,,,,,,,5da4152a3ab39a0011295a3e,1,2022-02-12_14h51.36.613,lexical_decision_task_DD,2021.2.3,Win32,60.12144532,,,,,,,,,,,1.019,1,,,,,,,,,,,,,,,z,1,1.019,,,,,,,,0.887962963,-0.268518519,0,0,0,,0,124,124,93,1,SMONE,C,old,z,./images/SMONE.png,,,,,,,,,,,,,,,,,,,,,,,,,,,,,,,,,,
,,,,,,,,,,,,,,,,,5da4152a3ab39a0011295a3e,1,2022-02-12_14h51.36.613,lexical_decision_task_DD,2021.2.3,Win32,60.12144532,,,,,,,,,,,0.82,1,,,,,,,,,,,,,,,m,1,0.82,,,,,,,,0.887962963,-0.268518519,0,0,0,space,0,125,125,64,1,JELLY,HB,old,m,./images/JELLYHB.png,1.2484,,,,,,,,,,,,,,,,,,,,,,,,,,,,,,,,,
,,,,,,,,,,,,,,,,,5da4152a3ab39a0011295a3e,1,2022-02-12_14h51.36.613,lexical_decision_task_DD,2021.2.3,Win32,60.12144532,,,,,,,,,,,0.7377,1,,,,,,,,,,,,,,,z,1,0.7377,,,,,,,,0.887962963,-0.268518519,0,0,0,,0,126,126,147,1,ZOLES,C,old,z,./images/ZOLES.png,,,,,,,,,,,,,,,,,,,,,,,,,,,,,,,,,,
,,,,,,,,,,,,,,,,,5da4152a3ab39a0011295a3e,1,2022-02-12_14h51.36.613,lexical_decision_task_DD,2021.2.3,Win32,60.12144532,,,,,,,,,,,1.004,1,,,,,,,,,,,,,,,m,1,1.004,,,,,,,,0.887962963,-0.268518519,0,0,0,,0,127,127,58,1,BABOON,HB,old,m,./images/BABOONHB.png,,,,,,,,,,,,,,,,,,,,,,,,,,,,,,,,,,
,,,,,,,,,,,,,,,,,5da4152a3ab39a0011295a3e,1,2022-02-12_14h51.36.613,lexical_decision_task_DD,2021.2.3,Win32,60.12144532,,,,,,,,,,,1.0934,1,,,,,,,,,,,,,,,m,1,1.0934,,,,,,,,0.887962963,-0.268518519,0,0,0,,0,128,128,63,1,MIRROR,C,old,m,./images/MIRROR.png,,,,,,,,,,,,,,,,,,,,,,,,,,,,,,,,,,
,,,,,,,,,,,,,,,,,5da4152a3ab39a0011295a3e,1,2022-02-12_14h51.36.613,lexical_decision_task_DD,2021.2.3,Win32,60.12144532,,,,,,,,,,,0.732,1,,,,,,,,,,,,,,,m,1,0.732,,,,,,,,0.887962963,-0.268518519,0,0,0,,0,129,129,80,1,WEASEL,LB,old,m,./images/WEASELLB.png,,,,,,,,,,,,,,,,,,,,,,,,,,,,,,,,,,
,,,,,,,,,,,,,,,,,5da4152a3ab39a0011295a3e,1,2022-02-12_14h51.36.613,lexical_decision_task_DD,2021.2.3,Win32,60.12144532,,,,,,,,,,,0.9112,1,,,,,,,,,,,,,,,z,1,0.9112,,,,,,,,0.887962963,-0.268518519,0,0,0,,0,130,130,129,1,PRANS,C,old,z,./images/PRANS.png,,,,,,,,,,,,,,,,,,,,,,,,,,,,,,,,,,
,,,,,,,,,,,,,,,,,5da4152a3ab39a0011295a3e,1,2022-02-12_14h51.36.613,lexical_decision_task_DD,2021.2.3,Win32,60.12144532,,,,,,,,,,,0.8981,1,,,,,,,,,,,,,,,m,1,0.8981,,,,,,,,0.887962963,-0.268518519,0,0,0,,0,131,131,65,1,FARMER,LB,old,m,./images/FARMERLB.png,,,,,,,,,,,,,,,,,,,,,,,,,,,,,,,,,,
,,,,,,,,,,,,,,,,,5da4152a3ab39a0011295a3e,1,2022-02-12_14h51.36.613,lexical_decision_task_DD,2021.2.3,Win32,60.12144532,,,,,,,,,,,1.2826,1,,,,,,,,,,,,,,,m,1,1.2826,,,,,,,,0.887962963,-0.268518519,0,0,0,,0,132,132,7,1,PAINT,HB,old,m,./images/PAINTHB.png,,,,,,,,,,,,,,,,,,,,,,,,,,,,,,,,,,
,,,,,,,,,,,,,,,,,5da4152a3ab39a0011295a3e,1,2022-02-12_14h51.36.613,lexical_decision_task_DD,2021.2.3,Win32,60.12144532,,,,,,,,,,,1.5883,1,,,,,,,,,,,,,,,z,1,1.5883,,,,,,,,0.887962963,-0.268518519,0,0,0,,0,133,133,92,1,PAIMS,LB,old,z,./images/PAIMSLB.png,,,,,,,,,,,,,,,,,,,,,,,,,,,,,,,,,,
,,,,,,,,,,,,,,,,,5da4152a3ab39a0011295a3e,1,2022-02-12_14h51.36.613,lexical_decision_task_DD,2021.2.3,Win32,60.12144532,,,,,,,,,,,0.8839,1,,,,,,,,,,,,,,,z,1,0.8839,,,,,,,,0.887962963,-0.268518519,0,0,0,,0,134,134,161,1,BLAPS,LB,old,z,./images/BLAPSLB.png,,,,,,,,,,,,,,,,,,,,,,,,,,,,,,,,,,
,,,,,,,,,,,,,,,,,5da4152a3ab39a0011295a3e,1,2022-02-12_14h51.36.613,lexical_decision_task_DD,2021.2.3,Win32,60.12144532,,,,,,,,,,,0.7963,1,,,,,,,,,,,,,,,m,1,0.7963,,,,,,,,0.887962963,-0.268518519,0,0,0,,0,135,135,32,1,BARREL,LB,old,m,./images/BARRELLB.png,,,,,,,,,,,,,,,,,,,,,,,,,,,,,,,,,,
,,,,,,,,,,,,,,,,,5da4152a3ab39a0011295a3e,1,2022-02-12_14h51.36.613,lexical_decision_task_DD,2021.2.3,Win32,60.12144532,,,,,,,,,,,1.6034,1,,,,,,,,,,,,,,,m,1,1.6034,,,,,,,,0.887962963,-0.268518519,0,0,0,,0,136,136,82,1,SUNSET,HB,old,m,./images/SUNSETHB.png,,,,,,,,,,,,,,,,,,,,,,,,,,,,,,,,,,
,,,,,,,,,,,,,,,,,5da4152a3ab39a0011295a3e,1,2022-02-12_14h51.36.613,lexical_decision_task_DD,2021.2.3,Win32,60.12144532,,,,,,,,,,,1.4583,1,,,,,,,,,,,,,,,m,1,1.4583,,,,,,,,0.887962963,-0.268518519,0,0,0,,0,137,137,31,1,QUILL,HB,old,m,./images/QUILLHB.png,,,,,,,,,,,,,,,,,,,,,,,,,,,,,,,,,,
,,,,,,,,,,,,,,,,,5da4152a3ab39a0011295a3e,1,2022-02-12_14h51.36.613,lexical_decision_task_DD,2021.2.3,Win32,60.12144532,,,,,,,,,,,0.8087,1,,,,,,,,,,,,,,,m,1,0.8087,,,,,,,,0.887962963,-0.268518519,0,0,0,,0,138,138,45,1,KITTEN,C,old,m,./images/KITTEN.png,,,,,,,,,,,,,,,,,,,,,,,,,,,,,,,,,,
,,,,,,,,,,,,,,,,,5da4152a3ab39a0011295a3e,1,2022-02-12_14h51.36.613,lexical_decision_task_DD,2021.2.3,Win32,60.12144532,,,,,,,,,,,0.8709,1,,,,,,,,,,,,,,,z,1,0.8709,,,,,,,,0.887962963,-0.268518519,0,0,0,,0,139,139,131,1,NACES,LB,old,z,./images/NACESLB.png,,,,,,,,,,,,,,,,,,,,,,,,,,,,,,,,,,
,,,,,,,,,,,,,,,,,5da4152a3ab39a0011295a3e,1,2022-02-12_14h51.36.613,lexical_decision_task_DD,2021.2.3,Win32,60.12144532,,,,,,,,,,,1.5349,1,,,,,,,,,,,,,,,z,1,1.5349,,,,,,,,0.887962963,-0.268518519,0,0,0,,0,140,140,151,1,TINKY,HB,old,z,./images/TINKYHB.png,,,,,,,,,,,,,,,,,,,,,,,,,,,,,,,,,,
,,,,,,,,,,,,,,,,,5da4152a3ab39a0011295a3e,1,2022-02-12_14h51.36.613,lexical_decision_task_DD,2021.2.3,Win32,60.12144532,,,,,,,,,,,1.5243,1,,,,,,,,,,,,,,,z,1,1.5243,,,,,,,,0.887962963,-0.268518519,0,0,0,,0,141,141,106,1,CLUMS,HB,old,z,./images/CLUMSHB.png,,,,,,,,,,,,,,,,,,,,,,,,,,,,,,,,,,
,,,,,,,,,,,,,,,,,5da4152a3ab39a0011295a3e,1,2022-02-12_14h51.36.613,lexical_decision_task_DD,2021.2.3,Win32,60.12144532,,,,,,,,,,,1.0115,1,,,,,,,,,,,,,,,z,1,1.0115,,,,,,,,0.887962963,-0.268518519,0,0,0,,0,142,142,140,1,DOVET,LB,old,z,./images/DOVETLB.png,,,,,,,,,,,,,,,,,,,,,,,,,,,,,,,,,,
,,,,,,,,,,,,,,,,,5da4152a3ab39a0011295a3e,1,2022-02-12_14h51.36.613,lexical_decision_task_DD,2021.2.3,Win32,60.12144532,,,,,,,,,,,0.7085,1,,,,,,,,,,,,,,,m,1,0.7085,,,,,,,,0.887962963,-0.268518519,0,0,0,,0,143,143,2,1,BEARD,LB,old,m,./images/BEARDLB.png,,,,,,,,,,,,,,,,,,,,,,,,,,,,,,,,,,
,,,,,,,,,,,,,,,,,5da4152a3ab39a0011295a3e,1,2022-02-12_14h51.36.613,lexical_decision_task_DD,2021.2.3,Win32,60.12144532,,,,,,,,,,,0.7431,1,,,,,,,,,,,,,,,m,1,0.7431,,,,,,,,0.887962963,-0.268518519,0,0,0,,0,144,144,71,1,PIMPLE,LB,old,m,./images/PIMPLELB.png,,,,,,,,,,,,,,,,,,,,,,,,,,,,,,,,,,
,,,,,,,,,,,,,,,,,5da4152a3ab39a0011295a3e,1,2022-02-12_14h51.36.613,lexical_decision_task_DD,2021.2.3,Win32,60.12144532,,,,,,,,,,,0.8408,1,,,,,,,,,,,,,,,m,1,0.8408,,,,,,,,0.887962963,-0.268518519,0,0,0,,0,145,145,47,1,BERRY,LB,old,m,./images/BERRYLB.png,,,,,,,,,,,,,,,,,,,,,,,,,,,,,,,,,,
,,,,,,,,,,,,,,,,,5da4152a3ab39a0011295a3e,1,2022-02-12_14h51.36.613,lexical_decision_task_DD,2021.2.3,Win32,60.12144532,,,,,,,,,,,0.6605,1,,,,,,,,,,,,,,,z,1,0.6605,,,,,,,,0.887962963,-0.268518519,0,0,0,,0,146,146,144,1,NAIRY,C,old,z,./images/NAIRY.png,,,,,,,,,,,,,,,,,,,,,,,,,,,,,,,,,,
,,,,,,,,,,,,,,,,,5da4152a3ab39a0011295a3e,1,2022-02-12_14h51.36.613,lexical_decision_task_DD,2021.2.3,Win32,60.12144532,,,,,,,,,,,1.034,1,,,,,,,,,,,,,,,z,1,1.034,,,,,,,,0.887962963,-0.268518519,0,0,0,,0,147,147,114,1,RIKES,C,old,z,./images/RIKES.png,,,,,,,,,,,,,,,,,,,,,,,,,,,,,,,,,,
,,,,,,,,,,,,,,,,,5da4152a3ab39a0011295a3e,1,2022-02-12_14h51.36.613,lexical_decision_task_DD,2021.2.3,Win32,60.12144532,,,,,,,,,,,1.0925,1,,,,,,,,,,,,,,,z,1,1.0925,,,,,,,,0.887962963,-0.268518519,0,0,0,,0,148,148,146,1,MOOST,LB,old,z,./images/MOOSTLB.png,,,,,,,,,,,,,,,,,,,,,,,,,,,,,,,,,,
,,,,,,,,,,,,,,,,,5da4152a3ab39a0011295a3e,1,2022-02-12_14h51.36.613,lexical_decision_task_DD,2021.2.3,Win32,60.12144532,,,,,,,,,,,1.7749,1,,,,,,,,,,,,,,,z,1,1.7749,,,,,,,,0.887962963,-0.268518519,0,0,0,,0,149,149,112,1,MYING,HB,old,z,./images/MYINGHB.png,,,,,,,,,,,,,,,,,,,,,,,,,,,,,,,,,,
,,,,,,,,,,,,,,,,,5da4152a3ab39a0011295a3e,1,2022-02-12_14h51.36.613,lexical_decision_task_DD,2021.2.3,Win32,60.12144532,,,,,,,,,,,0.8237,1,,,,,,,,,,,,,,,z,1,0.8237,,,,,,,,0.887962963,-0.268518519,0,0,0,,0,150,150,132,1,SCIFF,C,old,z,./images/SCIFF.png,,,,,,,,,,,,,,,,,,,,,,,,,,,,,,,,,,
,,,,,,,,,,,,,,,,,5da4152a3ab39a0011295a3e,1,2022-02-12_14h51.36.613,lexical_decision_task_DD,2021.2.3,Win32,60.12144532,,,,,,,,,,,1.6601,1,,,,,,,,,,,,,,,z,1,1.6601,,,,,,,,0.887962963,-0.268518519,0,0,0,,0,151,151,165,1,TROWN,C,old,z,./images/TROWN.png,,,,,,,,,,,,,,,,,,,,,,,,,,,,,,,,,,
,,,,,,,,,,,,,,,,,5da4152a3ab39a0011295a3e,1,2022-02-12_14h51.36.613,lexical_decision_task_DD,2021.2.3,Win32,60.12144532,,,,,,,,,,,1.3891,1,,,,,,,,,,,,,,,m,1,1.3891,,,,,,,,0.887962963,-0.268518519,0,0,0,,0,152,152,46,1,PEARL,HB,old,m,./images/PEARLHB.png,,,,,,,,,,,,,,,,,,,,,,,,,,,,,,,,,,
,,,,,,,,,,,,,,,,,5da4152a3ab39a0011295a3e,1,2022-02-12_14h51.36.613,lexical_decision_task_DD,2021.2.3,Win32,60.12144532,,,,,,,,,,,1.5044,1,,,,,,,,,,,,,,,z,1,1.5044,,,,,,,,0.887962963,-0.268518519,0,0,0,,0,153,153,128,1,GRIFT,LB,old,z,./images/GRIFTLB.png,,,,,,,,,,,,,,,,,,,,,,,,,,,,,,,,,,
,,,,,,,,,,,,,,,,,5da4152a3ab39a0011295a3e,1,2022-02-12_14h51.36.613,lexical_decision_task_DD,2021.2.3,Win32,60.12144532,,,,,,,,,,,2.9044,1,,,,,,,,,,,,,,,z,1,2.9044,,,,,,,,0.887962963,-0.268518519,0,0,0,,0,154,154,142,1,PLASK,HB,old,z,./images/PLASKHB.png,,,,,,,,,,,,,,,,,,,,,,,,,,,,,,,,,,
,,,,,,,,,,,,,,,,,5da4152a3ab39a0011295a3e,1,2022-02-12_14h51.36.613,lexical_decision_task_DD,2021.2.3,Win32,60.12144532,,,,,,,,,,,0.9948,1,,,,,,,,,,,,,,,z,1,0.9948,,,,,,,,0.887962963,-0.268518519,0,0,0,,0,155,155,126,1,GUELS,C,old,z,./images/GUELS.png,,,,,,,,,,,,,,,,,,,,,,,,,,,,,,,,,,
,,,,,,,,,,,,,,,,,5da4152a3ab39a0011295a3e,1,2022-02-12_14h51.36.613,lexical_decision_task_DD,2021.2.3,Win32,60.12144532,,,,,,,,,,,0.8422,1,,,,,,,,,,,,,,,m,1,0.8422,,,,,,,,0.887962963,-0.268518519,0,0,0,,0,156,156,81,1,POODLE,C,old,m,./images/POODLE.png,,,,,,,,,,,,,,,,,,,,,,,,,,,,,,,,,,
,,,,,,,,,,,,,,,,,5da4152a3ab39a0011295a3e,1,2022-02-12_14h51.36.613,lexical_decision_task_DD,2021.2.3,Win32,60.12144532,,,,,,,,,,,0.8128,1,,,,,,,,,,,,,,,m,1,0.8128,,,,,,,,0.887962963,-0.268518519,0,0,0,,0,157,157,53,1,CARPET,LB,old,m,./images/CARPETLB.png,,,,,,,,,,,,,,,,,,,,,,,,,,,,,,,,,,
,,,,,,,,,,,,,,,,,5da4152a3ab39a0011295a3e,1,2022-02-12_14h51.36.613,lexical_decision_task_DD,2021.2.3,Win32,60.12144532,,,,,,,,,,,2.9555,1,,,,,,,,,,,,,,,m,1,2.9555,,,,,,,,0.887962963,-0.268518519,0,0,0,,0,158,158,1,1,PLANK,HB,old,m,./images/PLANKHB.png,,,,,,,,,,,,,,,,,,,,,,,,,,,,,,,,,,
,,,,,,,,,,,,,,,,,5da4152a3ab39a0011295a3e,1,2022-02-12_14h51.36.613,lexical_decision_task_DD,2021.2.3,Win32,60.12144532,,,,,,,,,,,0.9855,1,,,,,,,,,,,,,,,m,1,0.9855,,,,,,,,0.887962963,-0.268518519,0,0,0,,0,159,159,16,1,PENCE,HB,old,m,./images/PENCEHB.png,,,,,,,,,,,,,,,,,,,,,,,,,,,,,,,,,,
,,,,,,,,,,,,,,,,,5da4152a3ab39a0011295a3e,1,2022-02-12_14h51.36.613,lexical_decision_task_DD,2021.2.3,Win32,60.12144532,,,,,,,,,,,0.9863,1,,,,,,,,,,,,,,,z,1,0.9863,,,,,,,,0.887962963,-0.268518519,0,0,0,,0,160,160,137,1,JOOST,LB,old,z,./images/JOOSTLB.png,,,,,,,,,,,,,,,,,,,,,,,,,,,,,,,,,,
,,,,,,,,,,,,,,,,,5da4152a3ab39a0011295a3e,1,2022-02-12_14h51.36.613,lexical_decision_task_DD,2021.2.3,Win32,60.12144532,,,,,,,,,,,2.0406,0,,,,,,,,,,,,,,,m,0,2.0406,,,,,,,,0.887962963,-0.268518519,0,0,0,,0,161,161,104,1,GITTY,LB,old,z,./images/GITTYLB.png,,,,,,,,,,,,,,,,,,,,,,,,,,,,,,,,,,
,,,,,,,,,,,,,,,,,5da4152a3ab39a0011295a3e,1,2022-02-12_14h51.36.613,lexical_decision_task_DD,2021.2.3,Win32,60.12144532,,,,,,,,,,,1.0694,1,,,,,,,,,,,,,,,z,1,1.0694,,,,,,,,0.887962963,-0.268518519,0,0,0,,0,162,162,138,1,PLICE,C,old,z,./images/PLICE.png,,,,,,,,,,,,,,,,,,,,,,,,,,,,,,,,,,
,,,,,,,,,,,,,,,,,5da4152a3ab39a0011295a3e,1,2022-02-12_14h51.36.613,lexical_decision_task_DD,2021.2.3,Win32,60.12144532,,,,,,,,,,,1.8107,1,,,,,,,,,,,,,,,z,1,1.8107,,,,,,,,0.887962963,-0.268518519,0,0,0,,0,163,163,121,1,CEERS,HB,old,z,./images/CEERSHB.png,,,,,,,,,,,,,,,,,,,,,,,,,,,,,,,,,,
,,,,,,,,,,,,,,,,,5da4152a3ab39a0011295a3e,1,2022-02-12_14h51.36.613,lexical_decision_task_DD,2021.2.3,Win32,60.12144532,,,,,,,,,,,2.111,1,,,,,,,,,,,,,,,z,1,2.111,,,,,,,,0.887962963,-0.268518519,0,0,0,,0,164,164,119,1,PAFER,LB,old,z,./images/PAFERLB.png,,,,,,,,,,,,,,,,,,,,,,,,,,,,,,,,,,
,,,,,,,,,,,,,,,,,5da4152a3ab39a0011295a3e,1,2022-02-12_14h51.36.613,lexical_decision_task_DD,2021.2.3,Win32,60.12144532,,,,,,,,,,,1.5517,1,,,,,,,,,,,,,,,z,1,1.5517,,,,,,,,0.887962963,-0.268518519,0,0,0,,0,165,165,115,1,MAWNS,HB,old,z,./images/MAWNSHB.png,,,,,,,,,,,,,,,,,,,,,,,,,,,,,,,,,,
,,,,,,,,,,,,,,,,,5da4152a3ab39a0011295a3e,1,2022-02-12_14h51.36.613,lexical_decision_task_DD,2021.2.3,Win32,60.12144532,,,,,,,,,,,0.9295,1,,,,,,,,,,,,,,,z,1,0.9295,,,,,,,,0.887962963,-0.268518519,0,0,0,,0,166,166,107,1,FASKS,LB,old,z,./images/FASKSLB.png,,,,,,,,,,,,,,,,,,,,,,,,,,,,,,,,,,
,,,,,,,,,,,,,,,,,5da4152a3ab39a0011295a3e,1,2022-02-12_14h51.36.613,lexical_decision_task_DD,2021.2.3,Win32,60.12144532,,,,,,,,,,,2.158,1,,,,,,,,,,,,,,,z,1,2.158,,,,,,,,0.887962963,-0.268518519,0,0,0,,0,167,167,109,1,BURGE,HB,old,z,./images/BURGEHB.png,,,,,,,,,,,,,,,,,,,,,,,,,,,,,,,,,,
,,,,,,,,,,,,,,,,,5da4152a3ab39a0011295a3e,1,2022-02-12_14h51.36.613,lexical_decision_task_DD,2021.2.3,Win32,60.12144532,,,,,,,,,,,,,,,,,,,,,,,,,,,,,,,,,,,,,,,,,,,,,,,,,How likely will it be that you will recognize the words presented very blurred on a scale of 0 (not likely) to 100 (most likely)?,,,,,-0.007407407,-0.413888889,1,0,0,jol_adv,4,10.8607,0,0,0,2,1,,,,,,,,,,,,,,,,,,,,
,,,,,,,,,,,,,,,,,5da4152a3ab39a0011295a3e,1,2022-02-12_14h51.36.613,lexical_decision_task_DD,2021.2.3,Win32,60.12144532,,,,,,,,,,,,,,,,,,,,,,,,,,,,,,,,,,,,,,,,,,,,,,,,,How likely will it be that you will recognize the words presented clearly on a scale of 0 (not likely) to 100 (most likely)?,,,,,,,,,,,2,7.5312,0,1,1,0,1,,,,,,,,,,,,,,,,,,,,
,,,,,,,,,,,,,,,,,5da4152a3ab39a0011295a3e,1,2022-02-12_14h51.36.613,lexical_decision_task_DD,2021.2.3,Win32,60.12144532,,,,,,,,,,,,,,,,,,,,,,,,,,,,,,,,,,,,,,,,,,,,,,,,,How likely will it be that you will recognize the words presented slighly blurred on a scale of 0 (not likely) to 100 (most likely)?,,,,,,,,,,,3,6.5972,0,2,2,1,1,,,,,,,,,,,,,,,,,,,,
,-0.009259259,-0.390740741,1,0,0,instr_done_button,,,,,,1,test,"In the next phase you will be presented with the words from the the first phase. Your job is to decide whether you remember seeing the word or not. If you remember seeing the word press ""old"" or type ""m"". If you do not remember seeing the word press ""new"" or type ""z"". Please press the space bar or click on continue to begin. ",,,5da4152a3ab39a0011295a3e,1,2022-02-12_14h51.36.613,lexical_decision_task_DD,2021.2.3,Win32,60.12144532,,,,,,,,,,,,,,,,,,,,,,,,,,,,,,,,,,,,,,,,,,,,,,,,,,,,,,,,,,,,,,,,,,,0,0,0,0,1,,,,,,,,,,,,,,,
,0.00462963,-0.414814815,1,0,0,instr_done_button,,,,,,1,test,"In the next phase you will be presented with the words from the the first phase. Your job is to decide whether you remember seeing the word or not. If you remember seeing the word press ""old"" or type ""m"". If you do not remember seeing the word press ""new"" or type ""z"". Please press the space bar or click on continue to begin. ",,,5da4152a3ab39a0011295a3e,1,2022-02-12_14h51.36.613,lexical_decision_task_DD,2021.2.3,Win32,60.12144532,,,,,,,,,,,,,,,,,,,,,,,,,,,,,,,,,,,,,,,,,,,,,,,,,,,,,,,,,,,,,,,,,,,1,0,1,0,1,,,,,,,,,,,,,,,
space,0.001851852,-0.425925926,0,0,0,,,,,,,1,test,"In the next phase you will be presented with the words from the the first phase. Your job is to decide whether you remember seeing the word or not. If you remember seeing the word press ""old"" or type ""m"". If you do not remember seeing the word press ""new"" or type ""z"". Please press the space bar or click on continue to begin. ",,,5da4152a3ab39a0011295a3e,1,2022-02-12_14h51.36.613,lexical_decision_task_DD,2021.2.3,Win32,60.12144532,,,,,,,,,,,,,,,,,,,,,1.7827,,,,,,,,,,,,,,,,,,,,,,,,,,,,,,,,,,,,,,,,,,,,,,2,0,2,0,1,,,,,,,,,,,,,,,
,0.019444444,-0.403703704,1,0,0,instr_done_button,,,,,,1,test,"In the next phase you will be presented with the words from the the first phase. Your job is to decide whether you remember seeing the word or not. If you remember seeing the word press ""old"" or type ""m"". If you do not remember seeing the word press ""new"" or type ""z"". Please press the space bar or click on continue to begin. ",,,5da4152a3ab39a0011295a3e,1,2022-02-12_14h51.36.613,lexical_decision_task_DD,2021.2.3,Win32,60.12144532,,,,,,,,,,,,,,,,,,,,,,,,,,,,,,,,,,,,,,,,,,,,,,,,,,,,,,,,,,,,,,,,,,,3,0,3,0,1,,,,,,,,,,,,,,,
space,0.023148148,-0.412962963,0,0,0,,,,,,,1,test,"In the next phase you will be presented with the words from the the first phase. Your job is to decide whether you remember seeing the word or not. If you remember seeing the word press ""old"" or type ""m"". If you do not remember seeing the word press ""new"" or type ""z"". Please press the space bar or click on continue to begin. ",,,5da4152a3ab39a0011295a3e,1,2022-02-12_14h51.36.613,lexical_decision_task_DD,2021.2.3,Win32,60.12144532,,,,,,,,,,,,,,,,,,,,,1.2507,,,,,,,,,,,,,,,,,,,,,,,,,,,,,,,,,,,,,,,,,,,,,,4,0,4,0,1,,,,,,,,,,,,,,,
,,,,,,,,,,,,,,,,,5da4152a3ab39a0011295a3e,1,2022-02-12_14h51.36.613,lexical_decision_task_DD,2021.2.3,Win32,60.12144532,,,,,,,,,,,3.9768,0,,,,,,,,,,,,,,,,,,,,,,,,,0.437037037,-0.331481481,1,0,0,,,,,,,CURRY,C,z,m,./images/CURRY.png,,,,,,,,,,,,,,,,,,,,,0,0.437037037,-0.331481481,1,0,0,3.9768,button_right_test,0,0,0,144,1,
,,,,,,,,,,,,,,,,,5da4152a3ab39a0011295a3e,1,2022-02-12_14h51.36.613,lexical_decision_task_DD,2021.2.3,Win32,60.12144532,,,,,,,,,,,3.4803,1,,,,,,,,,,,,,,,,,,,,,,,,,0.360185185,-0.29537037,1,0,0,,,,,,,MUFFIN,HB,m,m,./images/MUFFINHB.png,,,,,,,,,,,,,,,,,,,,,0,0.360185185,-0.29537037,1,0,0,3.4803,button_right_test,0,1,1,55,1,
,,,,,,,,,,,,,,,,,5da4152a3ab39a0011295a3e,1,2022-02-12_14h51.36.613,lexical_decision_task_DD,2021.2.3,Win32,60.12144532,,,,,,,,,,,1.41,1,,,,,,,,,,,,,,,,,,,,,,,,,-0.359259259,-0.286111111,1,0,0,,,,,,,TIGER,HB,z,m,./images/TIGERHB.png,,,,,,,,,,,,,,,,,,,,,0,-0.359259259,-0.286111111,1,0,0,1.41,button_left_test,0,2,2,121,1,
,,,,,,,,,,,,,,,,,5da4152a3ab39a0011295a3e,1,2022-02-12_14h51.36.613,lexical_decision_task_DD,2021.2.3,Win32,60.12144532,,,,,,,,,,,1.38,1,,,,,,,,,,,,,,,,,,,,,,,,,-0.37962963,-0.287962963,1,0,0,,,,,,,BISHOP,HB,z,m,./images/BISHOPHB.png,,,,,,,,,,,,,,,,,,,,,0,-0.37962963,-0.287962963,1,0,0,1.38,button_left_test,0,3,3,133,1,
,,,,,,,,,,,,,,,,,5da4152a3ab39a0011295a3e,1,2022-02-12_14h51.36.613,lexical_decision_task_DD,2021.2.3,Win32,60.12144532,,,,,,,,,,,1.7126,1,,,,,,,,,,,,,,,,,,,,,,,,,-0.358333333,-0.29537037,1,0,0,,,,,,,BRUSH,LB,z,m,./images/BRUSHLB.png,,,,,,,,,,,,,,,,,,,,,0,-0.358333333,-0.29537037,1,0,0,1.7126,button_left_test,0,4,4,143,1,
,,,,,,,,,,,,,,,,,5da4152a3ab39a0011295a3e,1,2022-02-12_14h51.36.613,lexical_decision_task_DD,2021.2.3,Win32,60.12144532,,,,,,,,,,,2.4956,0,,,,,,,,,,,,,,,,,,,,,,,,,0.444444444,-0.283333333,1,0,0,,,,,,,CLIFF,LB,z,m,./images/CLIFFLB.png,,,,,,,,,,,,,,,,,,,,,0,0.444444444,-0.283333333,1,0,0,2.4956,button_right_test,0,5,5,92,1,
,,,,,,,,,,,,,,,,,5da4152a3ab39a0011295a3e,1,2022-02-12_14h51.36.613,lexical_decision_task_DD,2021.2.3,Win32,60.12144532,,,,,,,,,,,2.1017,1,,,,,,,,,,,,,,,,,,,,,,,,,0.407407407,-0.305555556,1,0,0,,,,,,,FOLDER,C,m,m,./images/FOLDER.png,,,,,,,,,,,,,,,,,,,,,0,0.407407407,-0.305555556,1,0,0,2.1017,button_right_test,0,6,6,42,1,
,,,,,,,,,,,,,,,,,5da4152a3ab39a0011295a3e,1,2022-02-12_14h51.36.613,lexical_decision_task_DD,2021.2.3,Win32,60.12144532,,,,,,,,,,,1.6481,1,,,,,,,,,,,,,,,,,,,,,,,,,-0.363888889,-0.318518519,1,0,0,,,,,,,MONKEY,C,z,m,./images/MONKEY.png,,,,,,,,,,,,,,,,,,,,,0,-0.363888889,-0.318518519,1,0,0,1.6481,button_left_test,0,7,7,129,1,
,,,,,,,,,,,,,,,,,5da4152a3ab39a0011295a3e,1,2022-02-12_14h51.36.613,lexical_decision_task_DD,2021.2.3,Win32,60.12144532,,,,,,,,,,,1.1952,1,,,,,,,,,,,,,,,,,,,,,,,,,-0.349074074,-0.307407407,1,0,0,,,,,,,BOXER,HB,z,m,./images/BOXERHB.png,,,,,,,,,,,,,,,,,,,,,0,-0.349074074,-0.307407407,1,0,0,1.1952,button_left_test,0,8,8,88,1,
,,,,,,,,,,,,,,,,,5da4152a3ab39a0011295a3e,1,2022-02-12_14h51.36.613,lexical_decision_task_DD,2021.2.3,Win32,60.12144532,,,,,,,,,,,2.6238,1,,,,,,,,,,,,,,,,,,,,,,,,,-0.338888889,-0.305555556,1,0,0,,,,,,,FLASK,C,z,m,./images/FLASK.png,,,,,,,,,,,,,,,,,,,,,0,-0.338888889,-0.305555556,1,0,0,2.6238,button_left_test,0,9,9,156,1,
,,,,,,,,,,,,,,,,,5da4152a3ab39a0011295a3e,1,2022-02-12_14h51.36.613,lexical_decision_task_DD,2021.2.3,Win32,60.12144532,,,,,,,,,,,2.2289,0,,,,,,,,,,,,,,,,,,,,,,,,,0.394444444,-0.293518519,1,0,0,,,,,,,DRILL,C,z,m,./images/DRILL.png,,,,,,,,,,,,,,,,,,,,,0,0.394444444,-0.293518519,1,0,0,2.2289,button_right_test,0,10,10,165,1,
,,,,,,,,,,,,,,,,,5da4152a3ab39a0011295a3e,1,2022-02-12_14h51.36.613,lexical_decision_task_DD,2021.2.3,Win32,60.12144532,,,,,,,,,,,2.0543,1,,,,,,,,,,,,,,,,,,,,,,,,,-0.350925926,-0.312037037,1,0,0,,,,,,,STAIN,C,z,m,./images/STAIN.png,,,,,,,,,,,,,,,,,,,,,0,-0.350925926,-0.312037037,1,0,0,2.0543,button_left_test,0,11,11,90,1,
,,,,,,,,,,,,,,,,,5da4152a3ab39a0011295a3e,1,2022-02-12_14h51.36.613,lexical_decision_task_DD,2021.2.3,Win32,60.12144532,,,,,,,,,,,4.5804,1,,,,,,,,,,,,,,,,,,,,,,,,,-0.433333333,-0.299074074,1,0,0,,,,,,,PARCEL,C,z,m,./images/PARCEL.png,,,,,,,,,,,,,,,,,,,,,0,-0.433333333,-0.299074074,1,0,0,4.5804,button_left_test,0,12,12,102,1,
,,,,,,,,,,,,,,,,,5da4152a3ab39a0011295a3e,1,2022-02-12_14h51.36.613,lexical_decision_task_DD,2021.2.3,Win32,60.12144532,,,,,,,,,,,1.6029,1,,,,,,,,,,,,,,,,,,,,,,,,,-0.380555556,-0.289814815,1,0,0,,,,,,,CLOWN,HB,z,m,./images/CLOWNHB.png,,,,,,,,,,,,,,,,,,,,,0,-0.380555556,-0.289814815,1,0,0,1.6029,button_left_test,0,13,13,106,1,
,,,,,,,,,,,,,,,,,5da4152a3ab39a0011295a3e,1,2022-02-12_14h51.36.613,lexical_decision_task_DD,2021.2.3,Win32,60.12144532,,,,,,,,,,,1.4589,1,,,,,,,,,,,,,,,,,,,,,,,,,0.387037037,-0.287962963,1,0,0,,,,,,,URINE,HB,m,m,./images/URINEHB.png,,,,,,,,,,,,,,,,,,,,,0,0.387037037,-0.287962963,1,0,0,1.4589,button_right_test,0,14,14,70,1,
,,,,,,,,,,,,,,,,,5da4152a3ab39a0011295a3e,1,2022-02-12_14h51.36.613,lexical_decision_task_DD,2021.2.3,Win32,60.12144532,,,,,,,,,,,1.6097,1,,,,,,,,,,,,,,,,,,,,,,,,,0.384259259,-0.301851852,1,0,0,,,,,,,BIRTH,HB,m,m,./images/BIRTHHB.png,,,,,,,,,,,,,,,,,,,,,0,0.384259259,-0.301851852,1,0,0,1.6097,button_right_test,0,15,15,37,1,
,,,,,,,,,,,,,,,,,5da4152a3ab39a0011295a3e,1,2022-02-12_14h51.36.613,lexical_decision_task_DD,2021.2.3,Win32,60.12144532,,,,,,,,,,,1.6454,0,,,,,,,,,,,,,,,,,,,,,,,,,-0.337037037,-0.308333333,1,0,0,,,,,,,TOMATO,C,m,m,./images/TOMATO.png,,,,,,,,,,,,,,,,,,,,,0,-0.337037037,-0.308333333,1,0,0,1.6454,button_left_test,0,16,16,0,1,
,,,,,,,,,,,,,,,,,5da4152a3ab39a0011295a3e,1,2022-02-12_14h51.36.613,lexical_decision_task_DD,2021.2.3,Win32,60.12144532,,,,,,,,,,,1.3335,1,,,,,,,,,,,,,,,,,,,,,,,,,0.516666667,-0.284259259,1,0,0,,,,,,,BARREL,LB,m,m,./images/BARRELLB.png,,,,,,,,,,,,,,,,,,,,,0,0.516666667,-0.284259259,1,0,0,1.3335,button_right_test,0,17,17,32,1,
,,,,,,,,,,,,,,,,,5da4152a3ab39a0011295a3e,1,2022-02-12_14h51.36.613,lexical_decision_task_DD,2021.2.3,Win32,60.12144532,,,,,,,,,,,2.0823,1,,,,,,,,,,,,,,,,,,,,,,,,,0.342592593,-0.29537037,1,0,0,,,,,,,STORM,C,m,m,./images/STORM.png,,,,,,,,,,,,,,,,,,,,,0,0.342592593,-0.29537037,1,0,0,2.0823,button_right_test,0,18,18,30,1,
,,,,,,,,,,,,,,,,,5da4152a3ab39a0011295a3e,1,2022-02-12_14h51.36.613,lexical_decision_task_DD,2021.2.3,Win32,60.12144532,,,,,,,,,,,1.3465,1,,,,,,,,,,,,,,,,,,,,,,,,,0.406481481,-0.29537037,1,0,0,,,,,,,DOUGH,HB,m,m,./images/DOUGHHB.png,,,,,,,,,,,,,,,,,,,,,0,0.406481481,-0.29537037,1,0,0,1.3465,button_right_test,0,19,19,19,1,
,,,,,,,,,,,,,,,,,5da4152a3ab39a0011295a3e,1,2022-02-12_14h51.36.613,lexical_decision_task_DD,2021.2.3,Win32,60.12144532,,,,,,,,,,,1.3322,1,,,,,,,,,,,,,,,,,,,,,,,,,-0.384259259,-0.312037037,1,0,0,,,,,,,WHEEL,LB,z,m,./images/WHEELLB.png,,,,,,,,,,,,,,,,,,,,,0,-0.384259259,-0.312037037,1,0,0,1.3322,button_left_test,0,20,20,161,1,
,,,,,,,,,,,,,,,,,5da4152a3ab39a0011295a3e,1,2022-02-12_14h51.36.613,lexical_decision_task_DD,2021.2.3,Win32,60.12144532,,,,,,,,,,,1.7455,1,,,,,,,,,,,,,,,,,,,,,,,,,0.425,-0.30462963,1,0,0,,,,,,,PIMPLE,LB,m,m,./images/PIMPLELB.png,,,,,,,,,,,,,,,,,,,,,0,0.425,-0.30462963,1,0,0,1.7455,button_right_test,0,21,21,71,1,
,,,,,,,,,,,,,,,,,5da4152a3ab39a0011295a3e,1,2022-02-12_14h51.36.613,lexical_decision_task_DD,2021.2.3,Win32,60.12144532,,,,,,,,,,,1.4637,1,,,,,,,,,,,,,,,,,,,,,,,,,-0.315740741,-0.296296296,1,0,0,,,,,,,TOWEL,HB,z,m,./images/TOWELHB.png,,,,,,,,,,,,,,,,,,,,,0,-0.315740741,-0.296296296,1,0,0,1.4637,button_left_test,0,22,22,85,1,
,,,,,,,,,,,,,,,,,5da4152a3ab39a0011295a3e,1,2022-02-12_14h51.36.613,lexical_decision_task_DD,2021.2.3,Win32,60.12144532,,,,,,,,,,,1.001,1,,,,,,,,,,,,,,,,,,,,,,,,,-0.315740741,-0.296296296,1,0,0,,,,,,,SNAKE,HB,z,m,./images/SNAKEHB.png,,,,,,,,,,,,,,,,,,,,,0,-0.315740741,-0.296296296,1,0,0,1.001,button_left_test,0,23,23,124,1,
,,,,,,,,,,,,,,,,,5da4152a3ab39a0011295a3e,1,2022-02-12_14h51.36.613,lexical_decision_task_DD,2021.2.3,Win32,60.12144532,,,,,,,,,,,1.3468,1,,,,,,,,,,,,,,,,,,,,,,,,,-0.315740741,-0.296296296,1,0,0,,,,,,,STATUE,C,z,m,./images/STATUE.png,,,,,,,,,,,,,,,,,,,,,0,-0.315740741,-0.296296296,1,0,0,1.3468,button_left_test,0,24,24,150,1,
,,,,,,,,,,,,,,,,,5da4152a3ab39a0011295a3e,1,2022-02-12_14h51.36.613,lexical_decision_task_DD,2021.2.3,Win32,60.12144532,,,,,,,,,,,2.2634,1,,,,,,,,,,,,,,,,,,,,,,,,,0.357407407,-0.3,1,0,0,,,,,,,THROAT,C,m,m,./images/THROAT.png,,,,,,,,,,,,,,,,,,,,,0,0.357407407,-0.3,1,0,0,2.2634,button_right_test,0,25,25,36,1,
,,,,,,,,,,,,,,,,,5da4152a3ab39a0011295a3e,1,2022-02-12_14h51.36.613,lexical_decision_task_DD,2021.2.3,Win32,60.12144532,,,,,,,,,,,0.7859,1,,,,,,,,,,,,,,,,,,,,,,,,,0.357407407,-0.3,1,0,0,,,,,,,SKIING,LB,m,m,./images/SKIINGLB.png,,,,,,,,,,,,,,,,,,,,,0,0.357407407,-0.3,1,0,0,0.7859,button_right_test,0,26,26,17,1,
,,,,,,,,,,,,,,,,,5da4152a3ab39a0011295a3e,1,2022-02-12_14h51.36.613,lexical_decision_task_DD,2021.2.3,Win32,60.12144532,,,,,,,,,,,0.7989,1,,,,,,,,,,,,,,,,,,,,,,,,,0.357407407,-0.3,1,0,0,,,,,,,SQUARE,C,m,m,./images/SQUARE.png,,,,,,,,,,,,,,,,,,,,,0,0.357407407,-0.3,1,0,0,0.7989,button_right_test,0,27,27,6,1,
,,,,,,,,,,,,,,,,,5da4152a3ab39a0011295a3e,1,2022-02-12_14h51.36.613,lexical_decision_task_DD,2021.2.3,Win32,60.12144532,,,,,,,,,,,0.7534,0,,,,,,,,,,,,,,,,,,,,,,,,,0.357407407,-0.3,1,0,0,,,,,,,SPINE,LB,z,m,./images/SPINELB.png,,,,,,,,,,,,,,,,,,,,,0,0.357407407,-0.3,1,0,0,0.7534,button_right_test,0,28,28,149,1,
,,,,,,,,,,,,,,,,,5da4152a3ab39a0011295a3e,1,2022-02-12_14h51.36.613,lexical_decision_task_DD,2021.2.3,Win32,60.12144532,,,,,,,,,,,0.825,1,,,,,,,,,,,,,,,,,,,,,,,,,0.357407407,-0.3,1,0,0,,,,,,,PAINT,HB,m,m,./images/PAINTHB.png,,,,,,,,,,,,,,,,,,,,,0,0.357407407,-0.3,1,0,0,0.825,button_right_test,0,29,29,7,1,
,,,,,,,,,,,,,,,,,5da4152a3ab39a0011295a3e,1,2022-02-12_14h51.36.613,lexical_decision_task_DD,2021.2.3,Win32,60.12144532,,,,,,,,,,,0.8872,1,,,,,,,,,,,,,,,,,,,,,,,,,0.357407407,-0.3,1,0,0,,,,,,,TRIPOD,C,m,m,./images/TRIPOD.png,,,,,,,,,,,,,,,,,,,,,0,0.357407407,-0.3,1,0,0,0.8872,button_right_test,0,30,30,54,1,
,,,,,,,,,,,,,,,,,5da4152a3ab39a0011295a3e,1,2022-02-12_14h51.36.613,lexical_decision_task_DD,2021.2.3,Win32,60.12144532,,,,,,,,,,,1.5281,0,,,,,,,,,,,,,,,,,,,,,,,,,0.352777778,-0.292592593,1,0,0,,,,,,,FENCE,LB,z,m,./images/FENCELB.png,,,,,,,,,,,,,,,,,,,,,0,0.352777778,-0.292592593,1,0,0,1.5281,button_right_test,0,31,31,98,1,
,,,,,,,,,,,,,,,,,5da4152a3ab39a0011295a3e,1,2022-02-12_14h51.36.613,lexical_decision_task_DD,2021.2.3,Win32,60.12144532,,,,,,,,,,,1.391,1,,,,,,,,,,,,,,,,,,,,,,,,,-0.330555556,-0.310185185,1,0,0,,,,,,,DONKEY,HB,z,m,./images/DONKEYHB.png,,,,,,,,,,,,,,,,,,,,,0,-0.330555556,-0.310185185,1,0,0,1.391,button_left_test,0,32,32,103,1,
,,,,,,,,,,,,,,,,,5da4152a3ab39a0011295a3e,1,2022-02-12_14h51.36.613,lexical_decision_task_DD,2021.2.3,Win32,60.12144532,,,,,,,,,,,1.943,1,,,,,,,,,,,,,,,,,,,,,,,,,-0.330555556,-0.310185185,1,0,0,,,,,,,DIVER,C,z,m,./images/DIVER.png,,,,,,,,,,,,,,,,,,,,,0,-0.330555556,-0.310185185,1,0,0,1.943,button_left_test,0,33,33,93,1,
,,,,,,,,,,,,,,,,,5da4152a3ab39a0011295a3e,1,2022-02-12_14h51.36.613,lexical_decision_task_DD,2021.2.3,Win32,60.12144532,,,,,,,,,,,1.2752,1,,,,,,,,,,,,,,,,,,,,,,,,,-0.328703704,-0.310185185,1,0,0,,,,,,,POSTER,LB,z,m,./images/POSTERLB.png,,,,,,,,,,,,,,,,,,,,,0,-0.328703704,-0.310185185,1,0,0,1.2752,button_left_test,0,34,34,137,1,
,,,,,,,,,,,,,,,,,5da4152a3ab39a0011295a3e,1,2022-02-12_14h51.36.613,lexical_decision_task_DD,2021.2.3,Win32,60.12144532,,,,,,,,,,,1.4143,1,,,,,,,,,,,,,,,,,,,,,,,,,0.375,-0.287037037,1,0,0,,,,,,,KIDNEY,C,m,m,./images/KIDNEY.png,,,,,,,,,,,,,,,,,,,,,0,0.375,-0.287037037,1,0,0,1.4143,button_right_test,0,35,35,21,1,
,,,,,,,,,,,,,,,,,5da4152a3ab39a0011295a3e,1,2022-02-12_14h51.36.613,lexical_decision_task_DD,2021.2.3,Win32,60.12144532,,,,,,,,,,,0.7304,1,,,,,,,,,,,,,,,,,,,,,,,,,0.375,-0.287037037,1,0,0,,,,,,,RHINO,C,m,m,./images/RHINO.png,,,,,,,,,,,,,,,,,,,,,0,0.375,-0.287037037,1,0,0,0.7304,button_right_test,0,36,36,9,1,
,,,,,,,,,,,,,,,,,5da4152a3ab39a0011295a3e,1,2022-02-12_14h51.36.613,lexical_decision_task_DD,2021.2.3,Win32,60.12144532,,,,,,,,,,,1.1296,0,,,,,,,,,,,,,,,,,,,,,,,,,0.375,-0.287037037,1,0,0,,,,,,,BAKER,C,z,m,./images/BAKER.png,,,,,,,,,,,,,,,,,,,,,0,0.375,-0.287037037,1,0,0,1.1296,button_right_test,0,37,37,147,1,
,,,,,,,,,,,,,,,,,5da4152a3ab39a0011295a3e,1,2022-02-12_14h51.36.613,lexical_decision_task_DD,2021.2.3,Win32,60.12144532,,,,,,,,,,,2.4631,1,,,,,,,,,,,,,,,,,,,,,,,,,-0.307407407,-0.306481481,1,0,0,,,,,,,DESERT,HB,z,m,./images/DESERTHB.png,,,,,,,,,,,,,,,,,,,,,0,-0.307407407,-0.306481481,1,0,0,2.4631,button_left_test,0,38,38,136,1,
,,,,,,,,,,,,,,,,,5da4152a3ab39a0011295a3e,1,2022-02-12_14h51.36.613,lexical_decision_task_DD,2021.2.3,Win32,60.12144532,,,,,,,,,,,1.1141,0,,,,,,,,,,,,,,,,,,,,,,,,,-0.336111111,-0.309259259,1,0,0,,,,,,,MELON,HB,m,m,./images/MELONHB.png,,,,,,,,,,,,,,,,,,,,,0,-0.336111111,-0.309259259,1,0,0,1.1141,button_left_test,0,39,39,22,1,
,,,,,,,,,,,,,,,,,5da4152a3ab39a0011295a3e,1,2022-02-12_14h51.36.613,lexical_decision_task_DD,2021.2.3,Win32,60.12144532,,,,,,,,,,,1.2127,0,,,,,,,,,,,,,,,,,,,,,,,,,-0.32037037,-0.301851852,1,0,0,,,,,,,WALRUS,LB,m,m,./images/WALRUSLB.png,,,,,,,,,,,,,,,,,,,,,0,-0.32037037,-0.301851852,1,0,0,1.2127,button_left_test,0,40,40,23,1,
,,,,,,,,,,,,,,,,,5da4152a3ab39a0011295a3e,1,2022-02-12_14h51.36.613,lexical_decision_task_DD,2021.2.3,Win32,60.12144532,,,,,,,,,,,1.1129,1,,,,,,,,,,,,,,,,,,,,,,,,,0.635185185,-0.387962963,0,0,0,space,,,,,,MOOSE,C,m,m,./images/MOOSE.png,3.4183,,,,,,,,,,,,,,,,,,,,0,0.475,-0.283333333,1,0,0,1.1129,button_right_test,0,41,41,57,1,
,,,,,,,,,,,,,,,,,5da4152a3ab39a0011295a3e,1,2022-02-12_14h51.36.613,lexical_decision_task_DD,2021.2.3,Win32,60.12144532,,,,,,,,,,,7.0201,1,,,,,,,,,,,,,,,,,,,,,,,,,0.635185185,-0.387962963,0,0,0,,,,,,,MIDGET,HB,z,m,./images/MIDGETHB.png,,,,,,,,,,,,,,,,,,,,z,1,,,,,,,,0,42,42,160,1,7.0201
,,,,,,,,,,,,,,,,,5da4152a3ab39a0011295a3e,1,2022-02-12_14h51.36.613,lexical_decision_task_DD,2021.2.3,Win32,60.12144532,,,,,,,,,,,1.1311,1,,,,,,,,,,,,,,,,,,,,,,,,,0.635185185,-0.387962963,0,0,0,,,,,,,CHERRY,C,z,m,./images/CHERRY.png,,,,,,,,,,,,,,,,,,,,z,1,,,,,,,,0,43,43,138,1,1.1311
,,,,,,,,,,,,,,,,,5da4152a3ab39a0011295a3e,1,2022-02-12_14h51.36.613,lexical_decision_task_DD,2021.2.3,Win32,60.12144532,,,,,,,,,,,0.9333,0,,,,,,,,,,,,,,,,,,,,,,,,,0.635185185,-0.387962963,0,0,0,,,,,,,CRADLE,LB,m,m,./images/CRADLELB.png,,,,,,,,,,,,,,,,,,,,z,0,,,,,,,,0,44,44,20,1,0.9333
,,,,,,,,,,,,,,,,,5da4152a3ab39a0011295a3e,1,2022-02-12_14h51.36.613,lexical_decision_task_DD,2021.2.3,Win32,60.12144532,,,,,,,,,,,0.7058,1,,,,,,,,,,,,,,,,,,,,,,,,,0.635185185,-0.387962963,0,0,0,,,,,,,CRUMB,LB,m,m,./images/CRUMBLB.png,,,,,,,,,,,,,,,,,,,,m,1,,,,,,,,0,45,45,29,1,0.7058
,,,,,,,,,,,,,,,,,5da4152a3ab39a0011295a3e,1,2022-02-12_14h51.36.613,lexical_decision_task_DD,2021.2.3,Win32,60.12144532,,,,,,,,,,,1.3005,0,,,,,,,,,,,,,,,,,,,,,,,,,0.635185185,-0.387962963,0,0,0,,,,,,,FARMER,LB,m,m,./images/FARMERLB.png,,,,,,,,,,,,,,,,,,,,z,0,,,,,,,,0,46,46,65,1,1.3005
,,,,,,,,,,,,,,,,,5da4152a3ab39a0011295a3e,1,2022-02-12_14h51.36.613,lexical_decision_task_DD,2021.2.3,Win32,60.12144532,,,,,,,,,,,0.9827,1,,,,,,,,,,,,,,,,,,,,,,,,,0.635185185,-0.387962963,0,0,0,,,,,,,MAGGOT,C,m,m,./images/MAGGOT.png,,,,,,,,,,,,,,,,,,,,m,1,,,,,,,,0,47,47,33,1,0.9827
,,,,,,,,,,,,,,,,,5da4152a3ab39a0011295a3e,1,2022-02-12_14h51.36.613,lexical_decision_task_DD,2021.2.3,Win32,60.12144532,,,,,,,,,,,1.3839,0,,,,,,,,,,,,,,,,,,,,,,,,,0.635185185,-0.387962963,0,0,0,,,,,,,GRAPE,HB,z,m,./images/GRAPEHB.png,,,,,,,,,,,,,,,,,,,,m,0,,,,,,,,0,48,48,100,1,1.3839
,,,,,,,,,,,,,,,,,5da4152a3ab39a0011295a3e,1,2022-02-12_14h51.36.613,lexical_decision_task_DD,2021.2.3,Win32,60.12144532,,,,,,,,,,,1.6582,1,,,,,,,,,,,,,,,,,,,,,,,,,0.635185185,-0.387962963,0,0,0,,,,,,,COLLAR,C,z,m,./images/COLLAR.png,,,,,,,,,,,,,,,,,,,,z,1,,,,,,,,0,49,49,99,1,1.6582
,,,,,,,,,,,,,,,,,5da4152a3ab39a0011295a3e,1,2022-02-12_14h51.36.613,lexical_decision_task_DD,2021.2.3,Win32,60.12144532,,,,,,,,,,,1.1979,0,,,,,,,,,,,,,,,,,,,,,,,,,0.635185185,-0.387962963,0,0,0,,,,,,,CANYON,HB,m,m,./images/CANYONHB.png,,,,,,,,,,,,,,,,,,,,z,0,,,,,,,,0,50,50,34,1,1.1979
,,,,,,,,,,,,,,,,,5da4152a3ab39a0011295a3e,1,2022-02-12_14h51.36.613,lexical_decision_task_DD,2021.2.3,Win32,60.12144532,,,,,,,,,,,0.8545,1,,,,,,,,,,,,,,,,,,,,,,,,,0.635185185,-0.387962963,0,0,0,,,,,,,BANNER,HB,m,m,./images/BANNERHB.png,,,,,,,,,,,,,,,,,,,,m,1,,,,,,,,0,51,51,52,1,0.8545
,,,,,,,,,,,,,,,,,5da4152a3ab39a0011295a3e,1,2022-02-12_14h51.36.613,lexical_decision_task_DD,2021.2.3,Win32,60.12144532,,,,,,,,,,,2.253,0,,,,,,,,,,,,,,,,,,,,,,,,,0.635185185,-0.387962963,0,0,0,,,,,,,LADDER,LB,m,m,./images/LADDERLB.png,,,,,,,,,,,,,,,,,,,,z,0,,,,,,,,0,52,52,38,1,2.253
,,,,,,,,,,,,,,,,,5da4152a3ab39a0011295a3e,1,2022-02-12_14h51.36.613,lexical_decision_task_DD,2021.2.3,Win32,60.12144532,,,,,,,,,,,4.673,1,,,,,,,,,,,,,,,,,,,,,,,,,0.635185185,-0.387962963,0,0,0,,,,,,,HAMMER,C,z,m,./images/HAMMER.png,,,,,,,,,,,,,,,,,,,,z,1,,,,,,,,0,53,53,159,1,4.673
,,,,,,,,,,,,,,,,,5da4152a3ab39a0011295a3e,1,2022-02-12_14h51.36.613,lexical_decision_task_DD,2021.2.3,Win32,60.12144532,,,,,,,,,,,1.6976,0,,,,,,,,,,,,,,,,,,,,,,,,,0.635185185,-0.387962963,0,0,0,,,,,,,WRIST,HB,m,m,./images/WRISTHB.png,,,,,,,,,,,,,,,,,,,,z,0,,,,,,,,0,54,54,25,1,1.6976
,,,,,,,,,,,,,,,,,5da4152a3ab39a0011295a3e,1,2022-02-12_14h51.36.613,lexical_decision_task_DD,2021.2.3,Win32,60.12144532,,,,,,,,,,,1.4856,1,,,,,,,,,,,,,,,,,,,,,,,,,0.635185185,-0.387962963,0,0,0,,,,,,,ENGINE,LB,z,m,./images/ENGINELB.png,,,,,,,,,,,,,,,,,,,,z,1,,,,,,,,0,55,55,122,1,1.4856
,,,,,,,,,,,,,,,,,5da4152a3ab39a0011295a3e,1,2022-02-12_14h51.36.613,lexical_decision_task_DD,2021.2.3,Win32,60.12144532,,,,,,,,,,,0.9392,1,,,,,,,,,,,,,,,,,,,,,,,,,0.635185185,-0.387962963,0,0,0,,,,,,,BUNNY,HB,z,m,./images/BUNNYHB.png,,,,,,,,,,,,,,,,,,,,z,1,,,,,,,,0,56,56,97,1,0.9392
,,,,,,,,,,,,,,,,,5da4152a3ab39a0011295a3e,1,2022-02-12_14h51.36.613,lexical_decision_task_DD,2021.2.3,Win32,60.12144532,,,,,,,,,,,1.0309,1,,,,,,,,,,,,,,,,,,,,,,,,,0.635185185,-0.387962963,0,0,0,,,,,,,PISTOL,LB,z,m,./images/PISTOLLB.png,,,,,,,,,,,,,,,,,,,,z,1,,,,,,,,0,57,57,113,1,1.0309
,,,,,,,,,,,,,,,,,5da4152a3ab39a0011295a3e,1,2022-02-12_14h51.36.613,lexical_decision_task_DD,2021.2.3,Win32,60.12144532,,,,,,,,,,,0.9502,1,,,,,,,,,,,,,,,,,,,,,,,,,0.635185185,-0.387962963,0,0,0,,,,,,,SHIELD,C,z,m,./images/SHIELD.png,,,,,,,,,,,,,,,,,,,,z,1,,,,,,,,0,58,58,132,1,0.9502
,,,,,,,,,,,,,,,,,5da4152a3ab39a0011295a3e,1,2022-02-12_14h51.36.613,lexical_decision_task_DD,2021.2.3,Win32,60.12144532,,,,,,,,,,,2.0691,1,,,,,,,,,,,,,,,,,,,,,,,,,0.635185185,-0.387962963,0,0,0,,,,,,,PARADE,LB,z,m,./images/PARADELB.png,,,,,,,,,,,,,,,,,,,,z,1,,,,,,,,0,59,59,101,1,2.0691
,,,,,,,,,,,,,,,,,5da4152a3ab39a0011295a3e,1,2022-02-12_14h51.36.613,lexical_decision_task_DD,2021.2.3,Win32,60.12144532,,,,,,,,,,,0.95,1,,,,,,,,,,,,,,,,,,,,,,,,,0.635185185,-0.387962963,0,0,0,,,,,,,PEARL,HB,m,m,./images/PEARLHB.png,,,,,,,,,,,,,,,,,,,,m,1,,,,,,,,0,60,60,46,1,0.95
,,,,,,,,,,,,,,,,,5da4152a3ab39a0011295a3e,1,2022-02-12_14h51.36.613,lexical_decision_task_DD,2021.2.3,Win32,60.12144532,,,,,,,,,,,2.6322,0,,,,,,,,,,,,,,,,,,,,,,,,,0.635185185,-0.387962963,0,0,0,,,,,,,SAUCE,C,z,m,./images/SAUCE.png,,,,,,,,,,,,,,,,,,,,m,0,,,,,,,,0,61,61,135,1,2.6322
,,,,,,,,,,,,,,,,,5da4152a3ab39a0011295a3e,1,2022-02-12_14h51.36.613,lexical_decision_task_DD,2021.2.3,Win32,60.12144532,,,,,,,,,,,1.7507,1,,,,,,,,,,,,,,,,,,,,,,,,,0.635185185,-0.387962963,0,0,0,,,,,,,JELLY,HB,m,m,./images/JELLYHB.png,,,,,,,,,,,,,,,,,,,,m,1,,,,,,,,0,62,62,64,1,1.7507
,,,,,,,,,,,,,,,,,5da4152a3ab39a0011295a3e,1,2022-02-12_14h51.36.613,lexical_decision_task_DD,2021.2.3,Win32,60.12144532,,,,,,,,,,,1.0661,1,,,,,,,,,,,,,,,,,,,,,,,,,0.635185185,-0.387962963,0,0,0,,,,,,,CARPET,LB,m,m,./images/CARPETLB.png,,,,,,,,,,,,,,,,,,,,m,1,,,,,,,,0,63,63,53,1,1.0661
,,,,,,,,,,,,,,,,,5da4152a3ab39a0011295a3e,1,2022-02-12_14h51.36.613,lexical_decision_task_DD,2021.2.3,Win32,60.12144532,,,,,,,,,,,0.791,1,,,,,,,,,,,,,,,,,,,,,,,,,0.635185185,-0.387962963,0,0,0,,,,,,,JUNGLE,LB,m,m,./images/JUNGLELB.png,,,,,,,,,,,,,,,,,,,,m,1,,,,,,,,0,64,64,83,1,0.791
,,,,,,,,,,,,,,,,,5da4152a3ab39a0011295a3e,1,2022-02-12_14h51.36.613,lexical_decision_task_DD,2021.2.3,Win32,60.12144532,,,,,,,,,,,0.7979,1,,,,,,,,,,,,,,,,,,,,,,,,,0.635185185,-0.387962963,0,0,0,,,,,,,RULER,HB,z,m,./images/RULERHB.png,,,,,,,,,,,,,,,,,,,,z,1,,,,,,,,0,65,65,163,1,0.7979
,,,,,,,,,,,,,,,,,5da4152a3ab39a0011295a3e,1,2022-02-12_14h51.36.613,lexical_decision_task_DD,2021.2.3,Win32,60.12144532,,,,,,,,,,,2.0314,1,,,,,,,,,,,,,,,,,,,,,,,,,0.635185185,-0.387962963,0,0,0,,,,,,,MALLET,LB,m,m,./images/MALLETLB.png,,,,,,,,,,,,,,,,,,,,m,1,,,,,,,,0,66,66,50,1,2.0314
,,,,,,,,,,,,,,,,,5da4152a3ab39a0011295a3e,1,2022-02-12_14h51.36.613,lexical_decision_task_DD,2021.2.3,Win32,60.12144532,,,,,,,,,,,0.71,1,,,,,,,,,,,,,,,,,,,,,,,,,0.635185185,-0.387962963,0,0,0,,,,,,,FALCON,HB,m,m,./images/FALCONHB.png,,,,,,,,,,,,,,,,,,,,m,1,,,,,,,,0,67,67,28,1,0.71
,,,,,,,,,,,,,,,,,5da4152a3ab39a0011295a3e,1,2022-02-12_14h51.36.613,lexical_decision_task_DD,2021.2.3,Win32,60.12144532,,,,,,,,,,,0.7316,1,,,,,,,,,,,,,,,,,,,,,,,,,0.635185185,-0.387962963,0,0,0,,,,,,,PURSE,LB,m,m,./images/PURSELB.png,,,,,,,,,,,,,,,,,,,,m,1,,,,,,,,0,68,68,62,1,0.7316
,,,,,,,,,,,,,,,,,5da4152a3ab39a0011295a3e,1,2022-02-12_14h51.36.613,lexical_decision_task_DD,2021.2.3,Win32,60.12144532,,,,,,,,,,,0.7016,1,,,,,,,,,,,,,,,,,,,,,,,,,0.635185185,-0.387962963,0,0,0,,,,,,,TULIP,LB,m,m,./images/TULIPLB.png,,,,,,,,,,,,,,,,,,,,m,1,,,,,,,,0,69,69,8,1,0.7016
,,,,,,,,,,,,,,,,,5da4152a3ab39a0011295a3e,1,2022-02-12_14h51.36.613,lexical_decision_task_DD,2021.2.3,Win32,60.12144532,,,,,,,,,,,0.9677,1,,,,,,,,,,,,,,,,,,,,,,,,,0.635185185,-0.387962963,0,0,0,,,,,,,PEBBLE,HB,z,m,./images/PEBBLEHB.png,,,,,,,,,,,,,,,,,,,,z,1,,,,,,,,0,70,70,166,1,0.9677
,,,,,,,,,,,,,,,,,5da4152a3ab39a0011295a3e,1,2022-02-12_14h51.36.613,lexical_decision_task_DD,2021.2.3,Win32,60.12144532,,,,,,,,,,,0.8396,1,,,,,,,,,,,,,,,,,,,,,,,,,0.635185185,-0.387962963,0,0,0,,,,,,,PASTA,LB,m,m,./images/PASTALB.png,,,,,,,,,,,,,,,,,,,,m,1,,,,,,,,0,71,71,5,1,0.8396
,,,,,,,,,,,,,,,,,5da4152a3ab39a0011295a3e,1,2022-02-12_14h51.36.613,lexical_decision_task_DD,2021.2.3,Win32,60.12144532,,,,,,,,,,,1.5327,0,,,,,,,,,,,,,,,,,,,,,,,,,0.635185185,-0.387962963,0,0,0,,,,,,,COOKER,C,m,m,./images/COOKER.png,,,,,,,,,,,,,,,,,,,,z,0,,,,,,,,0,72,72,69,1,1.5327
,,,,,,,,,,,,,,,,,5da4152a3ab39a0011295a3e,1,2022-02-12_14h51.36.613,lexical_decision_task_DD,2021.2.3,Win32,60.12144532,,,,,,,,,,,0.8383,1,,,,,,,,,,,,,,,,,,,,,,,,,0.635185185,-0.387962963,0,0,0,,,,,,,HEATER,LB,z,m,./images/HEATERLB.png,,,,,,,,,,,,,,,,,,,,z,1,,,,,,,,0,73,73,140,1,0.8383
,,,,,,,,,,,,,,,,,5da4152a3ab39a0011295a3e,1,2022-02-12_14h51.36.613,lexical_decision_task_DD,2021.2.3,Win32,60.12144532,,,,,,,,,,,3.5016,1,,,,,,,,,,,,,,,,,,,,,,,,,0.635185185,-0.387962963,0,0,0,,,,,,,DANCER,C,z,m,./images/DANCER.png,,,,,,,,,,,,,,,,,,,,z,1,,,,,,,,0,74,74,105,1,3.5016
,,,,,,,,,,,,,,,,,5da4152a3ab39a0011295a3e,1,2022-02-12_14h51.36.613,lexical_decision_task_DD,2021.2.3,Win32,60.12144532,,,,,,,,,,,0.9889,1,,,,,,,,,,,,,,,,,,,,,,,,,0.635185185,-0.387962963,0,0,0,,,,,,,BELLY,HB,m,m,./images/BELLYHB.png,,,,,,,,,,,,,,,,,,,,m,1,,,,,,,,0,75,75,10,1,0.9889
,,,,,,,,,,,,,,,,,5da4152a3ab39a0011295a3e,1,2022-02-12_14h51.36.613,lexical_decision_task_DD,2021.2.3,Win32,60.12144532,,,,,,,,,,,0.601,1,,,,,,,,,,,,,,,,,,,,,,,,,0.635185185,-0.387962963,0,0,0,,,,,,,GREASE,C,m,m,./images/GREASE.png,,,,,,,,,,,,,,,,,,,,m,1,,,,,,,,0,76,76,15,1,0.601
,,,,,,,,,,,,,,,,,5da4152a3ab39a0011295a3e,1,2022-02-12_14h51.36.613,lexical_decision_task_DD,2021.2.3,Win32,60.12144532,,,,,,,,,,,1.4799,1,,,,,,,,,,,,,,,,,,,,,,,,,0.635185185,-0.387962963,0,0,0,,,,,,,STOOL,HB,z,m,./images/STOOLHB.png,,,,,,,,,,,,,,,,,,,,z,1,,,,,,,,0,77,77,127,1,1.4799
,,,,,,,,,,,,,,,,,5da4152a3ab39a0011295a3e,1,2022-02-12_14h51.36.613,lexical_decision_task_DD,2021.2.3,Win32,60.12144532,,,,,,,,,,,0.8351,1,,,,,,,,,,,,,,,,,,,,,,,,,0.635185185,-0.387962963,0,0,0,,,,,,,CLOTH,LB,z,m,./images/CLOTHLB.png,,,,,,,,,,,,,,,,,,,,z,1,,,,,,,,0,78,78,107,1,0.8351
,,,,,,,,,,,,,,,,,5da4152a3ab39a0011295a3e,1,2022-02-12_14h51.36.613,lexical_decision_task_DD,2021.2.3,Win32,60.12144532,,,,,,,,,,,0.8156,1,,,,,,,,,,,,,,,,,,,,,,,,,0.635185185,-0.387962963,0,0,0,,,,,,,SCREW,C,m,m,./images/SCREW.png,,,,,,,,,,,,,,,,,,,,m,1,,,,,,,,0,79,79,24,1,0.8156
,,,,,,,,,,,,,,,,,5da4152a3ab39a0011295a3e,1,2022-02-12_14h51.36.613,lexical_decision_task_DD,2021.2.3,Win32,60.12144532,,,,,,,,,,,0.7199,1,,,,,,,,,,,,,,,,,,,,,,,,,0.635185185,-0.387962963,0,0,0,,,,,,,KITTEN,C,m,m,./images/KITTEN.png,,,,,,,,,,,,,,,,,,,,m,1,,,,,,,,0,80,80,45,1,0.7199
,,,,,,,,,,,,,,,,,5da4152a3ab39a0011295a3e,1,2022-02-12_14h51.36.613,lexical_decision_task_DD,2021.2.3,Win32,60.12144532,,,,,,,,,,,0.7067,1,,,,,,,,,,,,,,,,,,,,,,,,,0.635185185,-0.387962963,0,0,0,,,,,,,LITTER,C,m,m,./images/LITTER.png,,,,,,,,,,,,,,,,,,,,m,1,,,,,,,,0,81,81,78,1,0.7067
,,,,,,,,,,,,,,,,,5da4152a3ab39a0011295a3e,1,2022-02-12_14h51.36.613,lexical_decision_task_DD,2021.2.3,Win32,60.12144532,,,,,,,,,,,0.7181,1,,,,,,,,,,,,,,,,,,,,,,,,,0.635185185,-0.387962963,0,0,0,,,,,,,CANOE,HB,z,m,./images/CANOEHB.png,,,,,,,,,,,,,,,,,,,,z,1,,,,,,,,0,82,82,142,1,0.7181
,,,,,,,,,,,,,,,,,5da4152a3ab39a0011295a3e,1,2022-02-12_14h51.36.613,lexical_decision_task_DD,2021.2.3,Win32,60.12144532,,,,,,,,,,,0.6653,1,,,,,,,,,,,,,,,,,,,,,,,,,0.635185185,-0.387962963,0,0,0,space,,,,,,SMOKER,LB,m,m,./images/SMOKERLB.png,2.1266,,,,,,,,,,,,,,,,,,,m,1,,,,,,,,0,83,83,26,1,0.6653
,,,,,,,,,,,,,,,,,5da4152a3ab39a0011295a3e,1,2022-02-12_14h51.36.613,lexical_decision_task_DD,2021.2.3,Win32,60.12144532,,,,,,,,,,,1.0529,1,,,,,,,,,,,,,,,,,,,,,,,,,0.635185185,-0.387962963,0,0,0,,,,,,,MOSQUE,HB,m,m,./images/MOSQUEHB.png,,,,,,,,,,,,,,,,,,,,m,1,,,,,,,,0,84,84,43,1,1.0529
,,,,,,,,,,,,,,,,,5da4152a3ab39a0011295a3e,1,2022-02-12_14h51.36.613,lexical_decision_task_DD,2021.2.3,Win32,60.12144532,,,,,,,,,,,1.0708,1,,,,,,,,,,,,,,,,,,,,,,,,,0.635185185,-0.387962963,0,0,0,,,,,,,JAGUAR,C,m,m,./images/JAGUAR.png,,,,,,,,,,,,,,,,,,,,m,1,,,,,,,,0,85,85,18,1,1.0708
,,,,,,,,,,,,,,,,,5da4152a3ab39a0011295a3e,1,2022-02-12_14h51.36.613,lexical_decision_task_DD,2021.2.3,Win32,60.12144532,,,,,,,,,,,1.4508,1,,,,,,,,,,,,,,,,,,,,,,,,,0.635185185,-0.387962963,0,0,0,,,,,,,GRAIN,C,m,m,./images/GRAIN.png,,,,,,,,,,,,,,,,,,,,m,1,,,,,,,,0,86,86,75,1,1.4508
,,,,,,,,,,,,,,,,,5da4152a3ab39a0011295a3e,1,2022-02-12_14h51.36.613,lexical_decision_task_DD,2021.2.3,Win32,60.12144532,,,,,,,,,,,1.2365,1,,,,,,,,,,,,,,,,,,,,,,,,,0.635185185,-0.387962963,0,0,0,,,,,,,STEAK,HB,z,m,./images/STEAKHB.png,,,,,,,,,,,,,,,,,,,,z,1,,,,,,,,0,87,87,115,1,1.2365
,,,,,,,,,,,,,,,,,5da4152a3ab39a0011295a3e,1,2022-02-12_14h51.36.613,lexical_decision_task_DD,2021.2.3,Win32,60.12144532,,,,,,,,,,,0.8662,1,,,,,,,,,,,,,,,,,,,,,,,,,0.635185185,-0.387962963,0,0,0,,,,,,,CANDLE,HB,m,m,./images/CANDLEHB.png,,,,,,,,,,,,,,,,,,,,m,1,,,,,,,,0,88,88,61,1,0.8662
,,,,,,,,,,,,,,,,,5da4152a3ab39a0011295a3e,1,2022-02-12_14h51.36.613,lexical_decision_task_DD,2021.2.3,Win32,60.12144532,,,,,,,,,,,1.2177,0,,,,,,,,,,,,,,,,,,,,,,,,,0.635185185,-0.387962963,0,0,0,,,,,,,PILOT,LB,z,m,./images/PILOTLB.png,,,,,,,,,,,,,,,,,,,,m,0,,,,,,,,0,89,89,134,1,1.2177
,,,,,,,,,,,,,,,,,5da4152a3ab39a0011295a3e,1,2022-02-12_14h51.36.613,lexical_decision_task_DD,2021.2.3,Win32,60.12144532,,,,,,,,,,,0.838,0,,,,,,,,,,,,,,,,,,,,,,,,,0.635185185,-0.387962963,0,0,0,,,,,,,GRANNY,LB,z,m,./images/GRANNYLB.png,,,,,,,,,,,,,,,,,,,,m,0,,,,,,,,0,90,90,104,1,0.838
,,,,,,,,,,,,,,,,,5da4152a3ab39a0011295a3e,1,2022-02-12_14h51.36.613,lexical_decision_task_DD,2021.2.3,Win32,60.12144532,,,,,,,,,,,1.2528,1,,,,,,,,,,,,,,,,,,,,,,,,,0.635185185,-0.387962963,0,0,0,,,,,,,MUMMY,HB,z,m,./images/MUMMYHB.png,,,,,,,,,,,,,,,,,,,,z,1,,,,,,,,0,91,91,130,1,1.2528
,,,,,,,,,,,,,,,,,5da4152a3ab39a0011295a3e,1,2022-02-12_14h51.36.613,lexical_decision_task_DD,2021.2.3,Win32,60.12144532,,,,,,,,,,,1.0442,1,,,,,,,,,,,,,,,,,,,,,,,,,0.635185185,-0.387962963,0,0,0,,,,,,,QUILL,HB,m,m,./images/QUILLHB.png,,,,,,,,,,,,,,,,,,,,m,1,,,,,,,,0,92,92,31,1,1.0442
,,,,,,,,,,,,,,,,,5da4152a3ab39a0011295a3e,1,2022-02-12_14h51.36.613,lexical_decision_task_DD,2021.2.3,Win32,60.12144532,,,,,,,,,,,2.6821,1,,,,,,,,,,,,,,,,,,,,,,,,,0.635185185,-0.387962963,0,0,0,,,,,,,PENCE,HB,m,m,./images/PENCEHB.png,,,,,,,,,,,,,,,,,,,,m,1,,,,,,,,0,93,93,16,1,2.6821
,,,,,,,,,,,,,,,,,5da4152a3ab39a0011295a3e,1,2022-02-12_14h51.36.613,lexical_decision_task_DD,2021.2.3,Win32,60.12144532,,,,,,,,,,,0.8153,1,,,,,,,,,,,,,,,,,,,,,,,,,0.635185185,-0.387962963,0,0,0,,,,,,,LIZARD,LB,m,m,./images/LIZARDLB.png,,,,,,,,,,,,,,,,,,,,m,1,,,,,,,,0,94,94,44,1,0.8153
,,,,,,,,,,,,,,,,,5da4152a3ab39a0011295a3e,1,2022-02-12_14h51.36.613,lexical_decision_task_DD,2021.2.3,Win32,60.12144532,,,,,,,,,,,1.4658,1,,,,,,,,,,,,,,,,,,,,,,,,,0.635185185,-0.387962963,0,0,0,,,,,,,BUTTER,C,z,m,./images/BUTTER.png,,,,,,,,,,,,,,,,,,,,z,1,,,,,,,,0,95,95,111,1,1.4658
,,,,,,,,,,,,,,,,,5da4152a3ab39a0011295a3e,1,2022-02-12_14h51.36.613,lexical_decision_task_DD,2021.2.3,Win32,60.12144532,,,,,,,,,,,2.2512,1,,,,,,,,,,,,,,,,,,,,,,,,,0.635185185,-0.387962963,0,0,0,,,,,,,BONNET,LB,m,m,./images/BONNETLB.png,,,,,,,,,,,,,,,,,,,,m,1,,,,,,,,0,96,96,11,1,2.2512
,,,,,,,,,,,,,,,,,5da4152a3ab39a0011295a3e,1,2022-02-12_14h51.36.613,lexical_decision_task_DD,2021.2.3,Win32,60.12144532,,,,,,,,,,,1.3319,0,,,,,,,,,,,,,,,,,,,,,,,,,0.635185185,-0.387962963,0,0,0,,,,,,,ARTIST,HB,z,m,./images/ARTISTHB.png,,,,,,,,,,,,,,,,,,,,m,0,,,,,,,,0,97,97,145,1,1.3319
,,,,,,,,,,,,,,,,,5da4152a3ab39a0011295a3e,1,2022-02-12_14h51.36.613,lexical_decision_task_DD,2021.2.3,Win32,60.12144532,,,,,,,,,,,0.8237,1,,,,,,,,,,,,,,,,,,,,,,,,,0.635185185,-0.387962963,0,0,0,,,,,,,ARROW,C,z,m,./images/ARROW.png,,,,,,,,,,,,,,,,,,,,z,1,,,,,,,,0,98,98,153,1,0.8237
,,,,,,,,,,,,,,,,,5da4152a3ab39a0011295a3e,1,2022-02-12_14h51.36.613,lexical_decision_task_DD,2021.2.3,Win32,60.12144532,,,,,,,,,,,1.7167,1,,,,,,,,,,,,,,,,,,,,,,,,,0.635185185,-0.387962963,0,0,0,,,,,,,BASKET,LB,z,m,./images/BASKETLB.png,,,,,,,,,,,,,,,,,,,,z,1,,,,,,,,0,99,99,128,1,1.7167
,,,,,,,,,,,,,,,,,5da4152a3ab39a0011295a3e,1,2022-02-12_14h51.36.613,lexical_decision_task_DD,2021.2.3,Win32,60.12144532,,,,,,,,,,,1.7003,1,,,,,,,,,,,,,,,,,,,,,,,,,0.635185185,-0.387962963,0,0,0,,,,,,,BRIDE,HB,z,m,./images/BRIDEHB.png,,,,,,,,,,,,,,,,,,,,z,1,,,,,,,,0,100,100,148,1,1.7003
,,,,,,,,,,,,,,,,,5da4152a3ab39a0011295a3e,1,2022-02-12_14h51.36.613,lexical_decision_task_DD,2021.2.3,Win32,60.12144532,,,,,,,,,,,0.6672,1,,,,,,,,,,,,,,,,,,,,,,,,,0.635185185,-0.387962963,0,0,0,,,,,,,PICKLE,LB,m,m,./images/PICKLELB.png,,,,,,,,,,,,,,,,,,,,m,1,,,,,,,,0,101,101,14,1,0.6672
,,,,,,,,,,,,,,,,,5da4152a3ab39a0011295a3e,1,2022-02-12_14h51.36.613,lexical_decision_task_DD,2021.2.3,Win32,60.12144532,,,,,,,,,,,0.7013,1,,,,,,,,,,,,,,,,,,,,,,,,,0.635185185,-0.387962963,0,0,0,,,,,,,BERRY,LB,m,m,./images/BERRYLB.png,,,,,,,,,,,,,,,,,,,,m,1,,,,,,,,0,102,102,47,1,0.7013
,,,,,,,,,,,,,,,,,5da4152a3ab39a0011295a3e,1,2022-02-12_14h51.36.613,lexical_decision_task_DD,2021.2.3,Win32,60.12144532,,,,,,,,,,,0.683,1,,,,,,,,,,,,,,,,,,,,,,,,,0.635185185,-0.387962963,0,0,0,,,,,,,BABOON,HB,m,m,./images/BABOONHB.png,,,,,,,,,,,,,,,,,,,,m,1,,,,,,,,0,103,103,58,1,0.683
,,,,,,,,,,,,,,,,,5da4152a3ab39a0011295a3e,1,2022-02-12_14h51.36.613,lexical_decision_task_DD,2021.2.3,Win32,60.12144532,,,,,,,,,,,1.4021,0,,,,,,,,,,,,,,,,,,,,,,,,,0.635185185,-0.387962963,0,0,0,,,,,,,FINGER,C,m,m,./images/FINGER.png,,,,,,,,,,,,,,,,,,,,z,0,,,,,,,,0,104,104,3,1,1.4021
,,,,,,,,,,,,,,,,,5da4152a3ab39a0011295a3e,1,2022-02-12_14h51.36.613,lexical_decision_task_DD,2021.2.3,Win32,60.12144532,,,,,,,,,,,0.7813,0,,,,,,,,,,,,,,,,,,,,,,,,,0.635185185,-0.387962963,0,0,0,,,,,,,CHAIN,C,z,m,./images/CHAIN.png,,,,,,,,,,,,,,,,,,,,m,0,,,,,,,,0,105,105,126,1,0.7813
,,,,,,,,,,,,,,,,,5da4152a3ab39a0011295a3e,1,2022-02-12_14h51.36.613,lexical_decision_task_DD,2021.2.3,Win32,60.12144532,,,,,,,,,,,1.1855,1,,,,,,,,,,,,,,,,,,,,,,,,,0.635185185,-0.387962963,0,0,0,,,,,,,HOCKEY,LB,z,m,./images/HOCKEYLB.png,,,,,,,,,,,,,,,,,,,,z,1,,,,,,,,0,106,106,116,1,1.1855
,,,,,,,,,,,,,,,,,5da4152a3ab39a0011295a3e,1,2022-02-12_14h51.36.613,lexical_decision_task_DD,2021.2.3,Win32,60.12144532,,,,,,,,,,,0.9808,0,,,,,,,,,,,,,,,,,,,,,,,,,0.635185185,-0.387962963,0,0,0,,,,,,,GARDEN,HB,z,m,./images/GARDENHB.png,,,,,,,,,,,,,,,,,,,,m,0,,,,,,,,0,107,107,94,1,0.9808
,,,,,,,,,,,,,,,,,5da4152a3ab39a0011295a3e,1,2022-02-12_14h51.36.613,lexical_decision_task_DD,2021.2.3,Win32,60.12144532,,,,,,,,,,,0.834,1,,,,,,,,,,,,,,,,,,,,,,,,,0.635185185,-0.387962963,0,0,0,,,,,,,MEDAL,LB,z,m,./images/MEDALLB.png,,,,,,,,,,,,,,,,,,,,z,1,,,,,,,,0,108,108,95,1,0.834
,,,,,,,,,,,,,,,,,5da4152a3ab39a0011295a3e,1,2022-02-12_14h51.36.613,lexical_decision_task_DD,2021.2.3,Win32,60.12144532,,,,,,,,,,,0.7693,1,,,,,,,,,,,,,,,,,,,,,,,,,0.635185185,-0.387962963,0,0,0,,,,,,,ONION,C,m,m,./images/ONION.png,,,,,,,,,,,,,,,,,,,,m,1,,,,,,,,0,109,109,51,1,0.7693
,,,,,,,,,,,,,,,,,5da4152a3ab39a0011295a3e,1,2022-02-12_14h51.36.613,lexical_decision_task_DD,2021.2.3,Win32,60.12144532,,,,,,,,,,,0.7034,1,,,,,,,,,,,,,,,,,,,,,,,,,0.635185185,-0.387962963,0,0,0,,,,,,,CEMENT,LB,m,m,./images/CEMENTLB.png,,,,,,,,,,,,,,,,,,,,m,1,,,,,,,,0,110,110,74,1,0.7034
,,,,,,,,,,,,,,,,,5da4152a3ab39a0011295a3e,1,2022-02-12_14h51.36.613,lexical_decision_task_DD,2021.2.3,Win32,60.12144532,,,,,,,,,,,1.3494,1,,,,,,,,,,,,,,,,,,,,,,,,,0.635185185,-0.387962963,0,0,0,,,,,,,SUNSET,HB,m,m,./images/SUNSETHB.png,,,,,,,,,,,,,,,,,,,,m,1,,,,,,,,0,111,111,82,1,1.3494
,,,,,,,,,,,,,,,,,5da4152a3ab39a0011295a3e,1,2022-02-12_14h51.36.613,lexical_decision_task_DD,2021.2.3,Win32,60.12144532,,,,,,,,,,,0.6986,1,,,,,,,,,,,,,,,,,,,,,,,,,0.635185185,-0.387962963,0,0,0,,,,,,,SAILOR,HB,m,m,./images/SAILORHB.png,,,,,,,,,,,,,,,,,,,,m,1,,,,,,,,0,112,112,67,1,0.6986
,,,,,,,,,,,,,,,,,5da4152a3ab39a0011295a3e,1,2022-02-12_14h51.36.613,lexical_decision_task_DD,2021.2.3,Win32,60.12144532,,,,,,,,,,,0.733,0,,,,,,,,,,,,,,,,,,,,,,,,,0.635185185,-0.387962963,0,0,0,,,,,,,CANDY,C,z,m,./images/CANDY.png,,,,,,,,,,,,,,,,,,,,m,0,,,,,,,,0,113,113,123,1,0.733
,,,,,,,,,,,,,,,,,5da4152a3ab39a0011295a3e,1,2022-02-12_14h51.36.613,lexical_decision_task_DD,2021.2.3,Win32,60.12144532,,,,,,,,,,,0.7348,1,,,,,,,,,,,,,,,,,,,,,,,,,0.635185185,-0.387962963,0,0,0,,,,,,,CHALK,HB,z,m,./images/CHALKHB.png,,,,,,,,,,,,,,,,,,,,z,1,,,,,,,,0,114,114,109,1,0.7348
,,,,,,,,,,,,,,,,,5da4152a3ab39a0011295a3e,1,2022-02-12_14h51.36.613,lexical_decision_task_DD,2021.2.3,Win32,60.12144532,,,,,,,,,,,1.2821,1,,,,,,,,,,,,,,,,,,,,,,,,,0.635185185,-0.387962963,0,0,0,,,,,,,GLOVE,HB,z,m,./images/GLOVEHB.png,,,,,,,,,,,,,,,,,,,,z,1,,,,,,,,0,115,115,157,1,1.2821
,,,,,,,,,,,,,,,,,5da4152a3ab39a0011295a3e,1,2022-02-12_14h51.36.613,lexical_decision_task_DD,2021.2.3,Win32,60.12144532,,,,,,,,,,,1.2824,1,,,,,,,,,,,,,,,,,,,,,,,,,0.635185185,-0.387962963,0,0,0,,,,,,,BEARD,LB,m,m,./images/BEARDLB.png,,,,,,,,,,,,,,,,,,,,m,1,,,,,,,,0,116,116,2,1,1.2824
,,,,,,,,,,,,,,,,,5da4152a3ab39a0011295a3e,1,2022-02-12_14h51.36.613,lexical_decision_task_DD,2021.2.3,Win32,60.12144532,,,,,,,,,,,1.1672,0,,,,,,,,,,,,,,,,,,,,,,,,,0.635185185,-0.387962963,0,0,0,,,,,,,SPORT,C,m,m,./images/SPORT.png,,,,,,,,,,,,,,,,,,,,z,0,,,,,,,,0,117,117,48,1,1.1672
,,,,,,,,,,,,,,,,,5da4152a3ab39a0011295a3e,1,2022-02-12_14h51.36.613,lexical_decision_task_DD,2021.2.3,Win32,60.12144532,,,,,,,,,,,0.9164,1,,,,,,,,,,,,,,,,,,,,,,,,,0.635185185,-0.387962963,0,0,0,,,,,,,ATTIC,C,m,m,./images/ATTIC.png,,,,,,,,,,,,,,,,,,,,m,1,,,,,,,,0,118,118,27,1,0.9164
,,,,,,,,,,,,,,,,,5da4152a3ab39a0011295a3e,1,2022-02-12_14h51.36.613,lexical_decision_task_DD,2021.2.3,Win32,60.12144532,,,,,,,,,,,1.2264,0,,,,,,,,,,,,,,,,,,,,,,,,,0.635185185,-0.387962963,0,0,0,,,,,,,MAMMAL,LB,z,m,./images/MAMMALLB.png,,,,,,,,,,,,,,,,,,,,m,0,,,,,,,,0,119,119,146,1,1.2264
,,,,,,,,,,,,,,,,,5da4152a3ab39a0011295a3e,1,2022-02-12_14h51.36.613,lexical_decision_task_DD,2021.2.3,Win32,60.12144532,,,,,,,,,,,0.7608,1,,,,,,,,,,,,,,,,,,,,,,,,,0.635185185,-0.387962963,0,0,0,,,,,,,CRUST,HB,m,m,./images/CRUSTHB.png,,,,,,,,,,,,,,,,,,,,m,1,,,,,,,,0,120,120,79,1,0.7608
,,,,,,,,,,,,,,,,,5da4152a3ab39a0011295a3e,1,2022-02-12_14h51.36.613,lexical_decision_task_DD,2021.2.3,Win32,60.12144532,,,,,,,,,,,0.8334,1,,,,,,,,,,,,,,,,,,,,,,,,,0.635185185,-0.387962963,0,0,0,,,,,,,CASINO,HB,z,m,./images/CASINOHB.png,,,,,,,,,,,,,,,,,,,,z,1,,,,,,,,0,121,121,112,1,0.8334
,,,,,,,,,,,,,,,,,5da4152a3ab39a0011295a3e,1,2022-02-12_14h51.36.613,lexical_decision_task_DD,2021.2.3,Win32,60.12144532,,,,,,,,,,,0.8213,1,,,,,,,,,,,,,,,,,,,,,,,,,0.635185185,-0.387962963,0,0,0,,,,,,,DRUMS,HB,m,m,./images/DRUMSHB.png,,,,,,,,,,,,,,,,,,,,m,1,,,,,,,,0,122,122,49,1,0.8213
,,,,,,,,,,,,,,,,,5da4152a3ab39a0011295a3e,1,2022-02-12_14h51.36.613,lexical_decision_task_DD,2021.2.3,Win32,60.12144532,,,,,,,,,,,3.035,0,,,,,,,,,,,,,,,,,,,,,,,,,0.635185185,-0.387962963,0,0,0,,,,,,,CRATER,C,z,m,./images/CRATER.png,,,,,,,,,,,,,,,,,,,,m,0,,,,,,,,0,123,123,87,1,3.035
,,,,,,,,,,,,,,,,,5da4152a3ab39a0011295a3e,1,2022-02-12_14h51.36.613,lexical_decision_task_DD,2021.2.3,Win32,60.12144532,,,,,,,,,,,1.2335,0,,,,,,,,,,,,,,,,,,,,,,,,,0.635185185,-0.387962963,0,0,0,,,,,,,SWING,HB,m,m,./images/SWINGHB.png,,,,,,,,,,,,,,,,,,,,z,0,,,,,,,,0,124,124,40,1,1.2335
,,,,,,,,,,,,,,,,,5da4152a3ab39a0011295a3e,1,2022-02-12_14h51.36.613,lexical_decision_task_DD,2021.2.3,Win32,60.12144532,,,,,,,,,,,2.1507,1,,,,,,,,,,,,,,,,,,,,,,,,,0.635185185,-0.387962963,0,0,0,space,,,,,,MIRROR,C,m,m,./images/MIRROR.png,1.8874,,,,,,,,,,,,,,,,,,,m,1,,,,,,,,0,125,125,63,1,2.1507
,,,,,,,,,,,,,,,,,5da4152a3ab39a0011295a3e,1,2022-02-12_14h51.36.613,lexical_decision_task_DD,2021.2.3,Win32,60.12144532,,,,,,,,,,,2.6011,1,,,,,,,,,,,,,,,,,,,,,,,,,0.635185185,-0.387962963,0,0,0,,,,,,,FERRY,C,z,m,./images/FERRY.png,,,,,,,,,,,,,,,,,,,,z,1,,,,,,,,0,126,126,141,1,2.6011
,,,,,,,,,,,,,,,,,5da4152a3ab39a0011295a3e,1,2022-02-12_14h51.36.613,lexical_decision_task_DD,2021.2.3,Win32,60.12144532,,,,,,,,,,,0.6522,0,,,,,,,,,,,,,,,,,,,,,,,,,0.635185185,-0.387962963,0,0,0,,,,,,,BAMBOO,LB,z,m,./images/BAMBOOLB.png,,,,,,,,,,,,,,,,,,,,m,0,,,,,,,,0,127,127,89,1,0.6522
,,,,,,,,,,,,,,,,,5da4152a3ab39a0011295a3e,1,2022-02-12_14h51.36.613,lexical_decision_task_DD,2021.2.3,Win32,60.12144532,,,,,,,,,,,1.832,0,,,,,,,,,,,,,,,,,,,,,,,,,0.635185185,-0.387962963,0,0,0,,,,,,,STOVE,LB,z,m,./images/STOVELB.png,,,,,,,,,,,,,,,,,,,,m,0,,,,,,,,0,128,128,86,1,1.832
,,,,,,,,,,,,,,,,,5da4152a3ab39a0011295a3e,1,2022-02-12_14h51.36.613,lexical_decision_task_DD,2021.2.3,Win32,60.12144532,,,,,,,,,,,0.6681,0,,,,,,,,,,,,,,,,,,,,,,,,,0.635185185,-0.387962963,0,0,0,,,,,,,LAGOON,LB,z,m,./images/LAGOONLB.png,,,,,,,,,,,,,,,,,,,,m,0,,,,,,,,0,129,129,131,1,0.6681
,,,,,,,,,,,,,,,,,5da4152a3ab39a0011295a3e,1,2022-02-12_14h51.36.613,lexical_decision_task_DD,2021.2.3,Win32,60.12144532,,,,,,,,,,,0.8647,1,,,,,,,,,,,,,,,,,,,,,,,,,0.635185185,-0.387962963,0,0,0,,,,,,,BANANA,HB,z,m,./images/BANANAHB.png,,,,,,,,,,,,,,,,,,,,z,1,,,,,,,,0,130,130,154,1,0.8647
