key_resp.keys,instr_done_touch.x,instr_done_touch.y,instr_done_touch.leftButton,instr_done_touch.midButton,instr_done_touch.rightButton,instr_done_touch.clicked_name,instruction_pages.thisRepN,instruction_pages.thisTrialN,instruction_pages.thisN,instruction_pages.thisIndex,instruction_pages.ran,pageN,phase,instruct_text,has_image,instruct_image,participant,age,date,expName,psychopyVersion,OS,frameRate,response.keys,response.corr,response.rt,touch_resp.x,touch_resp.y,touch_resp.leftButton,touch_resp.midButton,touch_resp.rightButton,touch_resp.time,touch_resp.clicked_name,rt,corr,practrials.thisRepN,practrials.thisTrialN,practrials.thisN,practrials.thisIndex,practrials.ran,TrialID,Target,corrAns,end_of_practice_trials_pages.thisRepN,end_of_practice_trials_pages.thisTrialN,end_of_practice_trials_pages.thisN,end_of_practice_trials_pages.thisIndex,end_of_practice_trials_pages.ran,key_resp_2.keys,key_resp_2.corr,key_resp_2.rt,targ_click.x,targ_click.y,targ_click.leftButton,targ_click.midButton,targ_click.rightButton,targ_click.time,targ_click.clicked_name,break_done_touch.x,break_done_touch.y,break_done_touch.leftButton,break_done_touch.midButton,break_done_touch.rightButton,break_done_keyboard.keys,maintrials.thisRepN,maintrials.thisTrialN,maintrials.thisN,maintrials.thisIndex,maintrials.ran,string,blur,study,lex,stim_path,break_done_touch.clicked_name,mouse_2.x,mouse_2.y,mouse_2.leftButton,mouse_2.midButton,mouse_2.rightButton,mouse_2.clicked_name,slider.response,slider.rt,trials.thisRepN,trials.thisTrialN,trials.thisN,trials.thisIndex,trials.ran,test_instructions.thisRepN,test_instructions.thisTrialN,test_instructions.thisN,test_instructions.thisIndex,test_instructions.ran,key_resp.rt,key_resp_3.keys,key_resp_3.corr,key_resp_3.rt,test_click.x,test_click.y,test_click.leftButton,test_click.midButton,test_click.rightButton,test_click.time,test_click.clicked_name,test_phase.thisRepN,test_phase.thisTrialN,test_phase.thisN,test_phase.thisIndex,test_phase.ran
,0.101904762,-0.381904762,1,0,0,instr_done_button,0,0,0,0,1,1,instructions,"INSTRUCTIONS
At the start of each trial, look at the plus sign  (+) in the center of the screen.  This tells you that a trial is about to begin and where to look. Second, the plus sign will disappear and a string of letters will appear. Your task is to determine if the string of letters is a word or not. If the item is a word press the M key (on keyboard)  or touch the word button (phone/tablet).  If the item is not a word,  press the  Z key (on keyboard)  or touch the nonword button (on phone/tablet). 
Press the space bar or touch  continue.",0,,5dceb9be381b67000e061142,65,2022-02-12_17h05.47.309,lexical_decision_task_DD_L2,2021.2.3,MacIntel,52.63157895,,,,,,,,,,,,,,,,,,,,,,,,,,,,,,,,,,,,,,,,,,,,,,,,,,,,,,,,,,,,,,,,,,,,,,,,,,,,,,,,,,,,,,
,0.063809524,-0.384761905,1,0,0,instr_done_button,0,1,1,1,1,2,instructions,"If your device has a keyboard, press the 'Z' key for nonwords and the 'M' key for words.





Press the space bar or touch the button below to continue.",0,keyboard-example.gif,5dceb9be381b67000e061142,65,2022-02-12_17h05.47.309,lexical_decision_task_DD_L2,2021.2.3,MacIntel,52.63157895,,,,,,,,,,,,,,,,,,,,,,,,,,,,,,,,,,,,,,,,,,,,,,,,,,,,,,,,,,,,,,,,,,,,,,,,,,,,,,,,,,,,,,
,0.014285714,-0.41047619,1,0,0,instr_done_button,0,2,2,2,1,3,instructions,"If you are using a touchscreen only device, use the buttons on the screen. Do not use the mouse.





Press the space bar or touch the button below to continue.",0,touchscreen-example.gif,5dceb9be381b67000e061142,65,2022-02-12_17h05.47.309,lexical_decision_task_DD_L2,2021.2.3,MacIntel,52.63157895,,,,,,,,,,,,,,,,,,,,,,,,,,,,,,,,,,,,,,,,,,,,,,,,,,,,,,,,,,,,,,,,,,,,,,,,,,,,,,,,,,,,,,
,0.014285714,-0.41047619,1,0,0,instr_done_button,0,3,3,3,1,4,instructions,"It is very important that you respond as quickly and accurately as possible, as each letter string will only be on the screen for two seconds. If you do not respond within this time, the message 'Too slow!' will be displayed and the experiment will progress to the next letter string. The first 20 trials will be practice trials and you will receive feedback on your answers. 

Press the space bar or touch the button below to start the practice trials.",0,,5dceb9be381b67000e061142,65,2022-02-12_17h05.47.309,lexical_decision_task_DD_L2,2021.2.3,MacIntel,52.63157895,,,,,,,,,,,,,,,,,,,,,,,,,,,,,,,,,,,,,,,,,,,,,,,,,,,,,,,,,,,,,,,,,,,,,,,,,,,,,,,,,,,,,,
,,,,,,,,,,,,,,,,,5dceb9be381b67000e061142,65,2022-02-12_17h05.47.309,lexical_decision_task_DD_L2,2021.2.3,MacIntel,52.63157895,z,1,3.15,,,,,,,,3.15,1,0,0,0,8,1,1001,ASLERT,z,,,,,,,,,,,,,,,,,,,,,,,,,,,,,,,,,,,,,,,,,,,,,,,,,,,,,,,,,,,,,,,,,,
,,,,,,,,,,,,,,,,,5dceb9be381b67000e061142,65,2022-02-12_17h05.47.309,lexical_decision_task_DD_L2,2021.2.3,MacIntel,52.63157895,m,1,5.307,,,,,,,,5.307,1,0,1,1,5,1,1001,OBTAIN,m,,,,,,,,,,,,,,,,,,,,,,,,,,,,,,,,,,,,,,,,,,,,,,,,,,,,,,,,,,,,,,,,,,
,,,,,,,,,,,,,,,,,5dceb9be381b67000e061142,65,2022-02-12_17h05.47.309,lexical_decision_task_DD_L2,2021.2.3,MacIntel,52.63157895,z,1,1.109,,,,,,,,1.109,1,0,2,2,12,1,1001,SPRINY,z,,,,,,,,,,,,,,,,,,,,,,,,,,,,,,,,,,,,,,,,,,,,,,,,,,,,,,,,,,,,,,,,,,
,,,,,,,,,,,,,,,,,5dceb9be381b67000e061142,65,2022-02-12_17h05.47.309,lexical_decision_task_DD_L2,2021.2.3,MacIntel,52.63157895,m,1,1.436,,,,,,,,1.436,1,0,3,3,0,1,1001,UTOPIA,m,,,,,,,,,,,,,,,,,,,,,,,,,,,,,,,,,,,,,,,,,,,,,,,,,,,,,,,,,,,,,,,,,,
,,,,,,,,,,,,,,,,,5dceb9be381b67000e061142,65,2022-02-12_17h05.47.309,lexical_decision_task_DD_L2,2021.2.3,MacIntel,52.63157895,z,1,1.13,,,,,,,,1.13,1,0,4,4,10,1,1001,INLADE,z,,,,,,,,,,,,,,,,,,,,,,,,,,,,,,,,,,,,,,,,,,,,,,,,,,,,,,,,,,,,,,,,,,
,,,,,,,,,,,,,,,,,5dceb9be381b67000e061142,65,2022-02-12_17h05.47.309,lexical_decision_task_DD_L2,2021.2.3,MacIntel,52.63157895,z,1,1.079,,,,,,,,1.079,1,0,5,5,15,1,1001,WHAISE,z,,,,,,,,,,,,,,,,,,,,,,,,,,,,,,,,,,,,,,,,,,,,,,,,,,,,,,,,,,,,,,,,,,
,,,,,,,,,,,,,,,,,5dceb9be381b67000e061142,65,2022-02-12_17h05.47.309,lexical_decision_task_DD_L2,2021.2.3,MacIntel,52.63157895,z,1,0.925,,,,,,,,0.925,1,0,6,6,9,1,1001,FARINY,z,,,,,,,,,,,,,,,,,,,,,,,,,,,,,,,,,,,,,,,,,,,,,,,,,,,,,,,,,,,,,,,,,,
,,,,,,,,,,,,,,,,,5dceb9be381b67000e061142,65,2022-02-12_17h05.47.309,lexical_decision_task_DD_L2,2021.2.3,MacIntel,52.63157895,m,1,0.802,,,,,,,,0.802,1,0,7,7,6,1,1001,ZOMBIE,m,,,,,,,,,,,,,,,,,,,,,,,,,,,,,,,,,,,,,,,,,,,,,,,,,,,,,,,,,,,,,,,,,,
,,,,,,,,,,,,,,,,,5dceb9be381b67000e061142,65,2022-02-12_17h05.47.309,lexical_decision_task_DD_L2,2021.2.3,MacIntel,52.63157895,m,1,0.741,,,,,,,,0.741,1,0,8,8,4,1,1001,SQUEAK,m,,,,,,,,,,,,,,,,,,,,,,,,,,,,,,,,,,,,,,,,,,,,,,,,,,,,,,,,,,,,,,,,,,
,,,,,,,,,,,,,,,,,5dceb9be381b67000e061142,65,2022-02-12_17h05.47.309,lexical_decision_task_DD_L2,2021.2.3,MacIntel,52.63157895,m,1,0.71,,,,,,,,0.71,1,0,9,9,2,1,1001,ALMOND,m,,,,,,,,,,,,,,,,,,,,,,,,,,,,,,,,,,,,,,,,,,,,,,,,,,,,,,,,,,,,,,,,,,
,,,,,,,,,,,,,,,,,5dceb9be381b67000e061142,65,2022-02-12_17h05.47.309,lexical_decision_task_DD_L2,2021.2.3,MacIntel,52.63157895,m,1,0.807,,,,,,,,0.807,1,0,10,10,7,1,1001,VOLUME,m,,,,,,,,,,,,,,,,,,,,,,,,,,,,,,,,,,,,,,,,,,,,,,,,,,,,,,,,,,,,,,,,,,
,,,,,,,,,,,,,,,,,5dceb9be381b67000e061142,65,2022-02-12_17h05.47.309,lexical_decision_task_DD_L2,2021.2.3,MacIntel,52.63157895,z,1,0.799,,,,,,,,0.799,1,0,11,11,14,1,1001,THRALE,z,,,,,,,,,,,,,,,,,,,,,,,,,,,,,,,,,,,,,,,,,,,,,,,,,,,,,,,,,,,,,,,,,,
,,,,,,,,,,,,,,,,,5dceb9be381b67000e061142,65,2022-02-12_17h05.47.309,lexical_decision_task_DD_L2,2021.2.3,MacIntel,52.63157895,z,1,1.115,,,,,,,,1.115,1,0,12,12,13,1,1001,ROUPET,z,,,,,,,,,,,,,,,,,,,,,,,,,,,,,,,,,,,,,,,,,,,,,,,,,,,,,,,,,,,,,,,,,,
,,,,,,,,,,,,,,,,,5dceb9be381b67000e061142,65,2022-02-12_17h05.47.309,lexical_decision_task_DD_L2,2021.2.3,MacIntel,52.63157895,z,1,1.04,,,,,,,,1.04,1,0,13,13,11,1,1001,RASHET,z,,,,,,,,,,,,,,,,,,,,,,,,,,,,,,,,,,,,,,,,,,,,,,,,,,,,,,,,,,,,,,,,,,
,,,,,,,,,,,,,,,,,5dceb9be381b67000e061142,65,2022-02-12_17h05.47.309,lexical_decision_task_DD_L2,2021.2.3,MacIntel,52.63157895,m,1,0.815,,,,,,,,0.815,1,0,14,14,3,1,1001,MATRIX,m,,,,,,,,,,,,,,,,,,,,,,,,,,,,,,,,,,,,,,,,,,,,,,,,,,,,,,,,,,,,,,,,,,
,,,,,,,,,,,,,,,,,5dceb9be381b67000e061142,65,2022-02-12_17h05.47.309,lexical_decision_task_DD_L2,2021.2.3,MacIntel,52.63157895,m,1,0.644,,,,,,,,0.644,1,0,15,15,1,1,1001,ADJUST,m,,,,,,,,,,,,,,,,,,,,,,,,,,,,,,,,,,,,,,,,,,,,,,,,,,,,,,,,,,,,,,,,,,
,-0.046666667,-0.414285714,1,0,0,instr_done_button,,,,,,1,end_of_practice,"You have completed the practice trials. During the experimental trials, you will not receive feedback. 
Before you begin, please ensure that you are in a comfortable and quiet location and will not be disturbed for about 15 minutes, as we cannot use your data if you do not complete all the trials. 
 When you are ready to start the experimental trials, please press space or touch the button below.",,,5dceb9be381b67000e061142,65,2022-02-12_17h05.47.309,lexical_decision_task_DD_L2,2021.2.3,MacIntel,52.63157895,,,,,,,,,,,,,,,,,,,,,0,0,0,0,1,,,,,,,,,,,,,,,,,,,,,,,,,,,,,,,,,,,,,,,,,,,,,,,,,,,,,,,,,,,,,
,,,,,,,,,,,,,,,,,5dceb9be381b67000e061142,65,2022-02-12_17h05.47.309,lexical_decision_task_DD_L2,2021.2.3,MacIntel,52.63157895,,,,,,,,,,,1.016,1,,,,,,,,,,,,,,m,1,1.016,,,,,,,,-0.046666667,-0.414285714,0,0,0,,0,0,0,29,1,CRUMB,C,old,m,./images/CRUMB.png,,,,,,,,,,,,,,,,,,,,,,,,,,,,,,,,,,,
,,,,,,,,,,,,,,,,,5dceb9be381b67000e061142,65,2022-02-12_17h05.47.309,lexical_decision_task_DD_L2,2021.2.3,MacIntel,52.63157895,,,,,,,,,,,0.739,1,,,,,,,,,,,,,,m,1,0.739,,,,,,,,-0.046666667,-0.414285714,0,0,0,,0,1,1,48,1,SPORT,HB,old,m,./images/SPORTHB.png,,,,,,,,,,,,,,,,,,,,,,,,,,,,,,,,,,,
,,,,,,,,,,,,,,,,,5dceb9be381b67000e061142,65,2022-02-12_17h05.47.309,lexical_decision_task_DD_L2,2021.2.3,MacIntel,52.63157895,,,,,,,,,,,1.256,1,,,,,,,,,,,,,,m,1,1.256,,,,,,,,-0.046666667,-0.414285714,0,0,0,,0,2,2,78,1,LITTER,HB,old,m,./images/LITTERHB.png,,,,,,,,,,,,,,,,,,,,,,,,,,,,,,,,,,,
,,,,,,,,,,,,,,,,,5dceb9be381b67000e061142,65,2022-02-12_17h05.47.309,lexical_decision_task_DD_L2,2021.2.3,MacIntel,52.63157895,,,,,,,,,,,1.324,0,,,,,,,,,,,,,,m,0,1.324,,,,,,,,-0.046666667,-0.414285714,0,0,0,,0,3,3,123,1,SEDGE,C,old,z,./images/SEDGE.png,,,,,,,,,,,,,,,,,,,,,,,,,,,,,,,,,,,
,,,,,,,,,,,,,,,,,5dceb9be381b67000e061142,65,2022-02-12_17h05.47.309,lexical_decision_task_DD_L2,2021.2.3,MacIntel,52.63157895,,,,,,,,,,,1.031,1,,,,,,,,,,,,,,m,1,1.031,,,,,,,,-0.046666667,-0.414285714,0,0,0,,0,4,4,61,1,CANDLE,LB,old,m,./images/CANDLELB.png,,,,,,,,,,,,,,,,,,,,,,,,,,,,,,,,,,,
,,,,,,,,,,,,,,,,,5dceb9be381b67000e061142,65,2022-02-12_17h05.47.309,lexical_decision_task_DD_L2,2021.2.3,MacIntel,52.63157895,,,,,,,,,,,0.914,1,,,,,,,,,,,,,,z,1,0.914,,,,,,,,-0.046666667,-0.414285714,0,0,0,,0,5,5,84,1,HAXES,C,old,z,./images/HAXES.png,,,,,,,,,,,,,,,,,,,,,,,,,,,,,,,,,,,
,,,,,,,,,,,,,,,,,5dceb9be381b67000e061142,65,2022-02-12_17h05.47.309,lexical_decision_task_DD_L2,2021.2.3,MacIntel,52.63157895,,,,,,,,,,,1.502,1,,,,,,,,,,,,,,z,1,1.502,,,,,,,,-0.046666667,-0.414285714,0,0,0,,0,6,6,145,1,LAMEL,HB,old,z,./images/LAMELHB.png,,,,,,,,,,,,,,,,,,,,,,,,,,,,,,,,,,,
,,,,,,,,,,,,,,,,,5dceb9be381b67000e061142,65,2022-02-12_17h05.47.309,lexical_decision_task_DD_L2,2021.2.3,MacIntel,52.63157895,,,,,,,,,,,1.136,1,,,,,,,,,,,,,,m,1,1.136,,,,,,,,-0.046666667,-0.414285714,0,0,0,,0,7,7,30,1,STORM,HB,old,m,./images/STORMHB.png,,,,,,,,,,,,,,,,,,,,,,,,,,,,,,,,,,,
,,,,,,,,,,,,,,,,,5dceb9be381b67000e061142,65,2022-02-12_17h05.47.309,lexical_decision_task_DD_L2,2021.2.3,MacIntel,52.63157895,,,,,,,,,,,0.965,1,,,,,,,,,,,,,,z,1,0.965,,,,,,,,-0.046666667,-0.414285714,0,0,0,,0,8,8,122,1,BLOOT,LB,old,z,./images/BLOOTLB.png,,,,,,,,,,,,,,,,,,,,,,,,,,,,,,,,,,,
,,,,,,,,,,,,,,,,,5dceb9be381b67000e061142,65,2022-02-12_17h05.47.309,lexical_decision_task_DD_L2,2021.2.3,MacIntel,52.63157895,,,,,,,,,,,0.768,1,,,,,,,,,,,,,,m,1,0.768,,,,,,,,-0.046666667,-0.414285714,0,0,0,,0,9,9,66,1,SWEAT,HB,old,m,./images/SWEATHB.png,,,,,,,,,,,,,,,,,,,,,,,,,,,,,,,,,,,
,,,,,,,,,,,,,,,,,5dceb9be381b67000e061142,65,2022-02-12_17h05.47.309,lexical_decision_task_DD_L2,2021.2.3,MacIntel,52.63157895,,,,,,,,,,,0.815,1,,,,,,,,,,,,,,m,1,0.815,,,,,,,,-0.046666667,-0.414285714,0,0,0,,0,10,10,82,1,SUNSET,LB,old,m,./images/SUNSETLB.png,,,,,,,,,,,,,,,,,,,,,,,,,,,,,,,,,,,
,,,,,,,,,,,,,,,,,5dceb9be381b67000e061142,65,2022-02-12_17h05.47.309,lexical_decision_task_DD_L2,2021.2.3,MacIntel,52.63157895,,,,,,,,,,,1.068,1,,,,,,,,,,,,,,z,1,1.068,,,,,,,,-0.046666667,-0.414285714,0,0,0,,0,11,11,133,1,POWDY,HB,old,z,./images/POWDYHB.png,,,,,,,,,,,,,,,,,,,,,,,,,,,,,,,,,,,
,,,,,,,,,,,,,,,,,5dceb9be381b67000e061142,65,2022-02-12_17h05.47.309,lexical_decision_task_DD_L2,2021.2.3,MacIntel,52.63157895,,,,,,,,,,,0.669,1,,,,,,,,,,,,,,m,1,0.669,,,,,,,,-0.046666667,-0.414285714,0,0,0,,0,12,12,32,1,BARREL,C,old,m,./images/BARREL.png,,,,,,,,,,,,,,,,,,,,,,,,,,,,,,,,,,,
,,,,,,,,,,,,,,,,,5dceb9be381b67000e061142,65,2022-02-12_17h05.47.309,lexical_decision_task_DD_L2,2021.2.3,MacIntel,52.63157895,,,,,,,,,,,1.05,1,,,,,,,,,,,,,,z,1,1.05,,,,,,,,-0.046666667,-0.414285714,0,0,0,,0,13,13,103,1,FLORT,HB,old,z,./images/FLORTHB.png,,,,,,,,,,,,,,,,,,,,,,,,,,,,,,,,,,,
,,,,,,,,,,,,,,,,,5dceb9be381b67000e061142,65,2022-02-12_17h05.47.309,lexical_decision_task_DD_L2,2021.2.3,MacIntel,52.63157895,,,,,,,,,,,0.845,1,,,,,,,,,,,,,,m,1,0.845,,,,,,,,-0.046666667,-0.414285714,0,0,0,,0,14,14,40,1,SWING,LB,old,m,./images/SWINGLB.png,,,,,,,,,,,,,,,,,,,,,,,,,,,,,,,,,,,
,,,,,,,,,,,,,,,,,5dceb9be381b67000e061142,65,2022-02-12_17h05.47.309,lexical_decision_task_DD_L2,2021.2.3,MacIntel,52.63157895,,,,,,,,,,,0.983,1,,,,,,,,,,,,,,m,1,0.983,,,,,,,,-0.046666667,-0.414285714,0,0,0,,0,15,15,1,1,PLANK,LB,old,m,./images/PLANKLB.png,,,,,,,,,,,,,,,,,,,,,,,,,,,,,,,,,,,
,,,,,,,,,,,,,,,,,5dceb9be381b67000e061142,65,2022-02-12_17h05.47.309,lexical_decision_task_DD_L2,2021.2.3,MacIntel,52.63157895,,,,,,,,,,,0.894,1,,,,,,,,,,,,,,z,1,0.894,,,,,,,,-0.046666667,-0.414285714,0,0,0,,0,16,16,127,1,NINDY,HB,old,z,./images/NINDYHB.png,,,,,,,,,,,,,,,,,,,,,,,,,,,,,,,,,,,
,,,,,,,,,,,,,,,,,5dceb9be381b67000e061142,65,2022-02-12_17h05.47.309,lexical_decision_task_DD_L2,2021.2.3,MacIntel,52.63157895,,,,,,,,,,,1.47,0,,,,,,,,,,,,,,m,0,1.47,,,,,,,,-0.046666667,-0.414285714,0,0,0,,0,17,17,130,1,CRILL,HB,old,z,./images/CRILLHB.png,,,,,,,,,,,,,,,,,,,,,,,,,,,,,,,,,,,
,,,,,,,,,,,,,,,,,5dceb9be381b67000e061142,65,2022-02-12_17h05.47.309,lexical_decision_task_DD_L2,2021.2.3,MacIntel,52.63157895,,,,,,,,,,,0.645,1,,,,,,,,,,,,,,m,1,0.645,,,,,,,,-0.046666667,-0.414285714,0,0,0,,0,18,18,62,1,PURSE,C,old,m,./images/PURSE.png,,,,,,,,,,,,,,,,,,,,,,,,,,,,,,,,,,,
,,,,,,,,,,,,,,,,,5dceb9be381b67000e061142,65,2022-02-12_17h05.47.309,lexical_decision_task_DD_L2,2021.2.3,MacIntel,52.63157895,,,,,,,,,,,0.839,1,,,,,,,,,,,,,,m,1,0.839,,,,,,,,-0.046666667,-0.414285714,0,0,0,,0,19,19,7,1,PAINT,LB,old,m,./images/PAINTLB.png,,,,,,,,,,,,,,,,,,,,,,,,,,,,,,,,,,,
,,,,,,,,,,,,,,,,,5dceb9be381b67000e061142,65,2022-02-12_17h05.47.309,lexical_decision_task_DD_L2,2021.2.3,MacIntel,52.63157895,,,,,,,,,,,0.952,1,,,,,,,,,,,,,,z,1,0.952,,,,,,,,-0.046666667,-0.414285714,0,0,0,,0,20,20,164,1,SGREW,LB,old,z,./images/SGREWLB.png,,,,,,,,,,,,,,,,,,,,,,,,,,,,,,,,,,,
,,,,,,,,,,,,,,,,,5dceb9be381b67000e061142,65,2022-02-12_17h05.47.309,lexical_decision_task_DD_L2,2021.2.3,MacIntel,52.63157895,,,,,,,,,,,0.7,1,,,,,,,,,,,,,,m,1,0.7,,,,,,,,-0.046666667,-0.414285714,0,0,0,,0,21,21,28,1,FALCON,LB,old,m,./images/FALCONLB.png,,,,,,,,,,,,,,,,,,,,,,,,,,,,,,,,,,,
,,,,,,,,,,,,,,,,,5dceb9be381b67000e061142,65,2022-02-12_17h05.47.309,lexical_decision_task_DD_L2,2021.2.3,MacIntel,52.63157895,,,,,,,,,,,0.727,1,,,,,,,,,,,,,,m,1,0.727,,,,,,,,-0.046666667,-0.414285714,0,0,0,,0,22,22,81,1,POODLE,HB,old,m,./images/POODLEHB.png,,,,,,,,,,,,,,,,,,,,,,,,,,,,,,,,,,,
,,,,,,,,,,,,,,,,,5dceb9be381b67000e061142,65,2022-02-12_17h05.47.309,lexical_decision_task_DD_L2,2021.2.3,MacIntel,52.63157895,,,,,,,,,,,0.628,1,,,,,,,,,,,,,,m,1,0.628,,,,,,,,-0.046666667,-0.414285714,0,0,0,,0,23,23,8,1,TULIP,C,old,m,./images/TULIP.png,,,,,,,,,,,,,,,,,,,,,,,,,,,,,,,,,,,
,,,,,,,,,,,,,,,,,5dceb9be381b67000e061142,65,2022-02-12_17h05.47.309,lexical_decision_task_DD_L2,2021.2.3,MacIntel,52.63157895,,,,,,,,,,,0.928,1,,,,,,,,,,,,,,z,1,0.928,,,,,,,,-0.046666667,-0.414285714,0,0,0,,0,24,24,110,1,CRUNK,LB,old,z,./images/CRUNKLB.png,,,,,,,,,,,,,,,,,,,,,,,,,,,,,,,,,,,
,,,,,,,,,,,,,,,,,5dceb9be381b67000e061142,65,2022-02-12_17h05.47.309,lexical_decision_task_DD_L2,2021.2.3,MacIntel,52.63157895,,,,,,,,,,,0.848,1,,,,,,,,,,,,,,z,1,0.848,,,,,,,,-0.046666667,-0.414285714,0,0,0,,0,25,25,125,1,MOOKY,LB,old,z,./images/MOOKYLB.png,,,,,,,,,,,,,,,,,,,,,,,,,,,,,,,,,,,
,,,,,,,,,,,,,,,,,5dceb9be381b67000e061142,65,2022-02-12_17h05.47.309,lexical_decision_task_DD_L2,2021.2.3,MacIntel,52.63157895,,,,,,,,,,,1.079,0,,,,,,,,,,,,,,z,0,1.079,,,,,,,,-0.046666667,-0.414285714,0,0,0,,0,26,26,33,1,MAGGOT,HB,old,m,./images/MAGGOTHB.png,,,,,,,,,,,,,,,,,,,,,,,,,,,,,,,,,,,
,,,,,,,,,,,,,,,,,5dceb9be381b67000e061142,65,2022-02-12_17h05.47.309,lexical_decision_task_DD_L2,2021.2.3,MacIntel,52.63157895,,,,,,,,,,,1.494,1,,,,,,,,,,,,,,z,1,1.494,,,,,,,,-0.046666667,-0.414285714,0,0,0,,0,27,27,132,1,SCIFF,C,old,z,./images/SCIFF.png,,,,,,,,,,,,,,,,,,,,,,,,,,,,,,,,,,,
,,,,,,,,,,,,,,,,,5dceb9be381b67000e061142,65,2022-02-12_17h05.47.309,lexical_decision_task_DD_L2,2021.2.3,MacIntel,52.63157895,,,,,,,,,,,0.894,1,,,,,,,,,,,,,,z,1,0.894,,,,,,,,-0.046666667,-0.414285714,0,0,0,,0,28,28,86,1,AIFED,LB,old,z,./images/AIFEDLB.png,,,,,,,,,,,,,,,,,,,,,,,,,,,,,,,,,,,
,,,,,,,,,,,,,,,,,5dceb9be381b67000e061142,65,2022-02-12_17h05.47.309,lexical_decision_task_DD_L2,2021.2.3,MacIntel,52.63157895,,,,,,,,,,,0.732,1,,,,,,,,,,,,,,z,1,0.732,,,,,,,,-0.046666667,-0.414285714,0,0,0,,0,29,29,150,1,NOOLS,C,old,z,./images/NOOLS.png,,,,,,,,,,,,,,,,,,,,,,,,,,,,,,,,,,,
,,,,,,,,,,,,,,,,,5dceb9be381b67000e061142,65,2022-02-12_17h05.47.309,lexical_decision_task_DD_L2,2021.2.3,MacIntel,52.63157895,,,,,,,,,,,0.806,1,,,,,,,,,,,,,,z,1,0.806,,,,,,,,-0.046666667,-0.414285714,0,0,0,,0,30,30,131,1,NACES,LB,old,z,./images/NACESLB.png,,,,,,,,,,,,,,,,,,,,,,,,,,,,,,,,,,,
,,,,,,,,,,,,,,,,,5dceb9be381b67000e061142,65,2022-02-12_17h05.47.309,lexical_decision_task_DD_L2,2021.2.3,MacIntel,52.63157895,,,,,,,,,,,0.732,1,,,,,,,,,,,,,,z,1,0.732,,,,,,,,-0.046666667,-0.414285714,0,0,0,,0,31,31,158,1,EGECT,LB,old,z,./images/EGECTLB.png,,,,,,,,,,,,,,,,,,,,,,,,,,,,,,,,,,,
,,,,,,,,,,,,,,,,,5dceb9be381b67000e061142,65,2022-02-12_17h05.47.309,lexical_decision_task_DD_L2,2021.2.3,MacIntel,52.63157895,,,,,,,,,,,0.856,1,,,,,,,,,,,,,,z,1,0.856,,,,,,,,-0.046666667,-0.414285714,0,0,0,,0,32,32,147,1,ZOLES,C,old,z,./images/ZOLES.png,,,,,,,,,,,,,,,,,,,,,,,,,,,,,,,,,,,
,,,,,,,,,,,,,,,,,5dceb9be381b67000e061142,65,2022-02-12_17h05.47.309,lexical_decision_task_DD_L2,2021.2.3,MacIntel,52.63157895,,,,,,,,,,,0.793,1,,,,,,,,,,,,,,z,1,0.793,,,,,,,,-0.046666667,-0.414285714,0,0,0,,0,33,33,124,1,TUNCH,HB,old,z,./images/TUNCHHB.png,,,,,,,,,,,,,,,,,,,,,,,,,,,,,,,,,,,
,,,,,,,,,,,,,,,,,5dceb9be381b67000e061142,65,2022-02-12_17h05.47.309,lexical_decision_task_DD_L2,2021.2.3,MacIntel,52.63157895,,,,,,,,,,,0.686,1,,,,,,,,,,,,,,m,1,0.686,,,,,,,,-0.046666667,-0.414285714,0,0,0,,0,34,34,80,1,WEASEL,C,old,m,./images/WEASEL.png,,,,,,,,,,,,,,,,,,,,,,,,,,,,,,,,,,,
,,,,,,,,,,,,,,,,,5dceb9be381b67000e061142,65,2022-02-12_17h05.47.309,lexical_decision_task_DD_L2,2021.2.3,MacIntel,52.63157895,,,,,,,,,,,1.046,1,,,,,,,,,,,,,,m,1,1.046,,,,,,,,-0.046666667,-0.414285714,0,0,0,,0,35,35,69,1,COOKER,HB,old,m,./images/COOKERHB.png,,,,,,,,,,,,,,,,,,,,,,,,,,,,,,,,,,,
,,,,,,,,,,,,,,,,,5dceb9be381b67000e061142,65,2022-02-12_17h05.47.309,lexical_decision_task_DD_L2,2021.2.3,MacIntel,52.63157895,,,,,,,,,,,0.681,1,,,,,,,,,,,,,,m,1,0.681,,,,,,,,-0.046666667,-0.414285714,0,0,0,,0,36,36,49,1,DRUMS,LB,old,m,./images/DRUMSLB.png,,,,,,,,,,,,,,,,,,,,,,,,,,,,,,,,,,,
,,,,,,,,,,,,,,,,,5dceb9be381b67000e061142,65,2022-02-12_17h05.47.309,lexical_decision_task_DD_L2,2021.2.3,MacIntel,52.63157895,,,,,,,,,,,0.868,1,,,,,,,,,,,,,,z,1,0.868,,,,,,,,-0.046666667,-0.414285714,0,0,0,,0,37,37,100,1,DRIBS,HB,old,z,./images/DRIBSHB.png,,,,,,,,,,,,,,,,,,,,,,,,,,,,,,,,,,,
,,,,,,,,,,,,,,,,,5dceb9be381b67000e061142,65,2022-02-12_17h05.47.309,lexical_decision_task_DD_L2,2021.2.3,MacIntel,52.63157895,,,,,,,,,,,0.681,1,,,,,,,,,,,,,,m,1,0.681,,,,,,,,-0.046666667,-0.414285714,0,0,0,,0,38,38,25,1,WRIST,LB,old,m,./images/WRISTLB.png,,,,,,,,,,,,,,,,,,,,,,,,,,,,,,,,,,,
,,,,,,,,,,,,,,,,,5dceb9be381b67000e061142,65,2022-02-12_17h05.47.309,lexical_decision_task_DD_L2,2021.2.3,MacIntel,52.63157895,,,,,,,,,,,0.707,1,,,,,,,,,,,,,,m,1,0.707,,,,,,,,-0.046666667,-0.414285714,0,0,0,,0,39,39,71,1,PIMPLE,C,old,m,./images/PIMPLE.png,,,,,,,,,,,,,,,,,,,,,,,,,,,,,,,,,,,
,,,,,,,,,,,,,,,,,5dceb9be381b67000e061142,65,2022-02-12_17h05.47.309,lexical_decision_task_DD_L2,2021.2.3,MacIntel,52.63157895,,,,,,,,,,,0.708,1,,,,,,,,,,,,,,m,1,0.708,,,,,,,,-0.046666667,-0.414285714,0,0,0,,0,40,40,12,1,SHORE,HB,old,m,./images/SHOREHB.png,,,,,,,,,,,,,,,,,,,,,,,,,,,,,,,,,,,
,,,,,,,,,,,,,,,,,5dceb9be381b67000e061142,65,2022-02-12_17h05.47.309,lexical_decision_task_DD_L2,2021.2.3,MacIntel,52.63157895,,,,,,,,,,,1.015,1,,,,,,,,,,,,,,z,1,1.015,,,,,,,,-0.008571429,-0.426666667,1,0,0,,0,41,41,148,1,JOMS,HB,old,z,./images/JOMSHB.png,break_done_button,,,,,,,,,,,,,,,,,,,,,,,,,,,,,,,,,,
,,,,,,,,,,,,,,,,,5dceb9be381b67000e061142,65,2022-02-12_17h05.47.309,lexical_decision_task_DD_L2,2021.2.3,MacIntel,52.63157895,,,,,,,,,,,0.965,1,,,,,,,,,,,,,,z,1,0.965,,,,,,,,-0.008571429,-0.426666667,0,0,0,,0,42,42,128,1,GRIFT,LB,old,z,./images/GRIFTLB.png,,,,,,,,,,,,,,,,,,,,,,,,,,,,,,,,,,,
,,,,,,,,,,,,,,,,,5dceb9be381b67000e061142,65,2022-02-12_17h05.47.309,lexical_decision_task_DD_L2,2021.2.3,MacIntel,52.63157895,,,,,,,,,,,0.78,1,,,,,,,,,,,,,,m,1,0.78,,,,,,,,-0.008571429,-0.426666667,0,0,0,,0,43,43,73,1,SNACK,LB,old,m,./images/SNACKLB.png,,,,,,,,,,,,,,,,,,,,,,,,,,,,,,,,,,,
,,,,,,,,,,,,,,,,,5dceb9be381b67000e061142,65,2022-02-12_17h05.47.309,lexical_decision_task_DD_L2,2021.2.3,MacIntel,52.63157895,,,,,,,,,,,0.779,1,,,,,,,,,,,,,,m,1,0.779,,,,,,,,-0.008571429,-0.426666667,0,0,0,,0,44,44,18,1,JAGUAR,HB,old,m,./images/JAGUARHB.png,,,,,,,,,,,,,,,,,,,,,,,,,,,,,,,,,,,
,,,,,,,,,,,,,,,,,5dceb9be381b67000e061142,65,2022-02-12_17h05.47.309,lexical_decision_task_DD_L2,2021.2.3,MacIntel,52.63157895,,,,,,,,,,,0.964,1,,,,,,,,,,,,,,z,1,0.964,,,,,,,,-0.008571429,-0.426666667,0,0,0,,0,45,45,144,1,NAIRY,C,old,z,./images/NAIRY.png,,,,,,,,,,,,,,,,,,,,,,,,,,,,,,,,,,,
,,,,,,,,,,,,,,,,,5dceb9be381b67000e061142,65,2022-02-12_17h05.47.309,lexical_decision_task_DD_L2,2021.2.3,MacIntel,52.63157895,,,,,,,,,,,0.797,1,,,,,,,,,,,,,,z,1,0.797,,,,,,,,-0.008571429,-0.426666667,0,0,0,,0,46,46,126,1,GUELS,C,old,z,./images/GUELS.png,,,,,,,,,,,,,,,,,,,,,,,,,,,,,,,,,,,
,,,,,,,,,,,,,,,,,5dceb9be381b67000e061142,65,2022-02-12_17h05.47.309,lexical_decision_task_DD_L2,2021.2.3,MacIntel,52.63157895,,,,,,,,,,,0.797,1,,,,,,,,,,,,,,m,1,0.797,,,,,,,,-0.008571429,-0.426666667,0,0,0,,0,47,47,19,1,DOUGH,LB,old,m,./images/DOUGHLB.png,,,,,,,,,,,,,,,,,,,,,,,,,,,,,,,,,,,
,,,,,,,,,,,,,,,,,5dceb9be381b67000e061142,65,2022-02-12_17h05.47.309,lexical_decision_task_DD_L2,2021.2.3,MacIntel,52.63157895,,,,,,,,,,,1.056,1,,,,,,,,,,,,,,z,1,1.056,,,,,,,,-0.008571429,-0.426666667,0,0,0,,0,48,48,118,1,BAVEL,HB,old,z,./images/BAVELHB.png,,,,,,,,,,,,,,,,,,,,,,,,,,,,,,,,,,,
,,,,,,,,,,,,,,,,,5dceb9be381b67000e061142,65,2022-02-12_17h05.47.309,lexical_decision_task_DD_L2,2021.2.3,MacIntel,52.63157895,,,,,,,,,,,1.086,1,,,,,,,,,,,,,,m,1,1.086,,,,,,,,-0.008571429,-0.426666667,0,0,0,,0,49,49,74,1,CEMENT,C,old,m,./images/CEMENT.png,,,,,,,,,,,,,,,,,,,,,,,,,,,,,,,,,,,
,,,,,,,,,,,,,,,,,5dceb9be381b67000e061142,65,2022-02-12_17h05.47.309,lexical_decision_task_DD_L2,2021.2.3,MacIntel,52.63157895,,,,,,,,,,,0.865,1,,,,,,,,,,,,,,z,1,0.865,,,,,,,,-0.008571429,-0.426666667,0,0,0,,0,50,50,135,1,JOODY,C,old,z,./images/JOODY.png,,,,,,,,,,,,,,,,,,,,,,,,,,,,,,,,,,,
,,,,,,,,,,,,,,,,,5dceb9be381b67000e061142,65,2022-02-12_17h05.47.309,lexical_decision_task_DD_L2,2021.2.3,MacIntel,52.63157895,,,,,,,,,,,0.756,1,,,,,,,,,,,,,,m,1,0.756,,,,,,,,-0.008571429,-0.426666667,0,0,0,,0,51,51,23,1,WALRUS,C,old,m,./images/WALRUS.png,,,,,,,,,,,,,,,,,,,,,,,,,,,,,,,,,,,
,,,,,,,,,,,,,,,,,5dceb9be381b67000e061142,65,2022-02-12_17h05.47.309,lexical_decision_task_DD_L2,2021.2.3,MacIntel,52.63157895,,,,,,,,,,,0.699,1,,,,,,,,,,,,,,m,1,0.699,,,,,,,,-0.008571429,-0.426666667,0,0,0,,0,52,52,51,1,ONION,HB,old,m,./images/ONIONHB.png,,,,,,,,,,,,,,,,,,,,,,,,,,,,,,,,,,,
,,,,,,,,,,,,,,,,,5dceb9be381b67000e061142,65,2022-02-12_17h05.47.309,lexical_decision_task_DD_L2,2021.2.3,MacIntel,52.63157895,,,,,,,,,,,0.693,1,,,,,,,,,,,,,,m,1,0.693,,,,,,,,-0.008571429,-0.426666667,0,0,0,,0,53,53,27,1,ATTIC,HB,old,m,./images/ATTICHB.png,,,,,,,,,,,,,,,,,,,,,,,,,,,,,,,,,,,
,,,,,,,,,,,,,,,,,5dceb9be381b67000e061142,65,2022-02-12_17h05.47.309,lexical_decision_task_DD_L2,2021.2.3,MacIntel,52.63157895,,,,,,,,,,,0.632,1,,,,,,,,,,,,,,m,1,0.632,,,,,,,,-0.008571429,-0.426666667,0,0,0,,0,54,54,37,1,BIRTH,LB,old,m,./images/BIRTHLB.png,,,,,,,,,,,,,,,,,,,,,,,,,,,,,,,,,,,
,,,,,,,,,,,,,,,,,5dceb9be381b67000e061142,65,2022-02-12_17h05.47.309,lexical_decision_task_DD_L2,2021.2.3,MacIntel,52.63157895,,,,,,,,,,,0.645,1,,,,,,,,,,,,,,m,1,0.645,,,,,,,,-0.008571429,-0.426666667,0,0,0,,0,55,55,65,1,FARMER,C,old,m,./images/FARMER.png,,,,,,,,,,,,,,,,,,,,,,,,,,,,,,,,,,,
,,,,,,,,,,,,,,,,,5dceb9be381b67000e061142,65,2022-02-12_17h05.47.309,lexical_decision_task_DD_L2,2021.2.3,MacIntel,52.63157895,,,,,,,,,,,0.679,1,,,,,,,,,,,,,,m,1,0.679,,,,,,,,-0.008571429,-0.426666667,0,0,0,,0,56,56,55,1,MUFFIN,LB,old,m,./images/MUFFINLB.png,,,,,,,,,,,,,,,,,,,,,,,,,,,,,,,,,,,
,,,,,,,,,,,,,,,,,5dceb9be381b67000e061142,65,2022-02-12_17h05.47.309,lexical_decision_task_DD_L2,2021.2.3,MacIntel,52.63157895,,,,,,,,,,,0.774,1,,,,,,,,,,,,,,m,1,0.774,,,,,,,,-0.008571429,-0.426666667,0,0,0,,0,57,57,42,1,FOLDER,HB,old,m,./images/FOLDERHB.png,,,,,,,,,,,,,,,,,,,,,,,,,,,,,,,,,,,
,,,,,,,,,,,,,,,,,5dceb9be381b67000e061142,65,2022-02-12_17h05.47.309,lexical_decision_task_DD_L2,2021.2.3,MacIntel,52.63157895,,,,,,,,,,,1.619,0,,,,,,,,,,,,,,z,0,1.619,,,,,,,,-0.008571429,-0.426666667,0,0,0,,0,58,58,16,1,PENCE,LB,old,m,./images/PENCELB.png,,,,,,,,,,,,,,,,,,,,,,,,,,,,,,,,,,,
,,,,,,,,,,,,,,,,,5dceb9be381b67000e061142,65,2022-02-12_17h05.47.309,lexical_decision_task_DD_L2,2021.2.3,MacIntel,52.63157895,,,,,,,,,,,0.719,1,,,,,,,,,,,,,,m,1,0.719,,,,,,,,-0.008571429,-0.426666667,0,0,0,,0,59,59,10,1,BELLY,LB,old,m,./images/BELLYLB.png,,,,,,,,,,,,,,,,,,,,,,,,,,,,,,,,,,,
,,,,,,,,,,,,,,,,,5dceb9be381b67000e061142,65,2022-02-12_17h05.47.309,lexical_decision_task_DD_L2,2021.2.3,MacIntel,52.63157895,,,,,,,,,,,0.692,1,,,,,,,,,,,,,,m,1,0.692,,,,,,,,-0.008571429,-0.426666667,0,0,0,,0,60,60,14,1,PICKLE,C,old,m,./images/PICKLE.png,,,,,,,,,,,,,,,,,,,,,,,,,,,,,,,,,,,
,,,,,,,,,,,,,,,,,5dceb9be381b67000e061142,65,2022-02-12_17h05.47.309,lexical_decision_task_DD_L2,2021.2.3,MacIntel,52.63157895,,,,,,,,,,,1.2,1,,,,,,,,,,,,,,z,1,1.2,,,,,,,,-0.008571429,-0.426666667,0,0,0,,0,61,61,134,1,TROSS,LB,old,z,./images/TROSSLB.png,,,,,,,,,,,,,,,,,,,,,,,,,,,,,,,,,,,
,,,,,,,,,,,,,,,,,5dceb9be381b67000e061142,65,2022-02-12_17h05.47.309,lexical_decision_task_DD_L2,2021.2.3,MacIntel,52.63157895,,,,,,,,,,,0.713,1,,,,,,,,,,,,,,m,1,0.713,,,,,,,,-0.008571429,-0.426666667,0,0,0,,0,62,62,44,1,LIZARD,C,old,m,./images/LIZARD.png,,,,,,,,,,,,,,,,,,,,,,,,,,,,,,,,,,,
,,,,,,,,,,,,,,,,,5dceb9be381b67000e061142,65,2022-02-12_17h05.47.309,lexical_decision_task_DD_L2,2021.2.3,MacIntel,52.63157895,,,,,,,,,,,0.897,1,,,,,,,,,,,,,,z,1,0.897,,,,,,,,-0.008571429,-0.426666667,0,0,0,,0,63,63,85,1,CHULK,HB,old,z,./images/CHULKHB.png,,,,,,,,,,,,,,,,,,,,,,,,,,,,,,,,,,,
,,,,,,,,,,,,,,,,,5dceb9be381b67000e061142,65,2022-02-12_17h05.47.309,lexical_decision_task_DD_L2,2021.2.3,MacIntel,52.63157895,,,,,,,,,,,1.929,0,,,,,,,,,,,,,,m,0,1.929,,,,,,,,-0.008571429,-0.426666667,0,0,0,,0,64,64,159,1,CUDDY,C,old,z,./images/CUDDY.png,,,,,,,,,,,,,,,,,,,,,,,,,,,,,,,,,,,
,,,,,,,,,,,,,,,,,5dceb9be381b67000e061142,65,2022-02-12_17h05.47.309,lexical_decision_task_DD_L2,2021.2.3,MacIntel,52.63157895,,,,,,,,,,,1.466,0,,,,,,,,,,,,,,m,0,1.466,,,,,,,,-0.008571429,-0.426666667,0,0,0,,0,65,65,109,1,BURGE,HB,old,z,./images/BURGEHB.png,,,,,,,,,,,,,,,,,,,,,,,,,,,,,,,,,,,
,,,,,,,,,,,,,,,,,5dceb9be381b67000e061142,65,2022-02-12_17h05.47.309,lexical_decision_task_DD_L2,2021.2.3,MacIntel,52.63157895,,,,,,,,,,,0.934,1,,,,,,,,,,,,,,z,1,0.934,,,,,,,,-0.008571429,-0.426666667,0,0,0,,0,66,66,165,1,TROWN,C,old,z,./images/TROWN.png,,,,,,,,,,,,,,,,,,,,,,,,,,,,,,,,,,,
,,,,,,,,,,,,,,,,,5dceb9be381b67000e061142,65,2022-02-12_17h05.47.309,lexical_decision_task_DD_L2,2021.2.3,MacIntel,52.63157895,,,,,,,,,,,1.158,1,,,,,,,,,,,,,,z,1,1.158,,,,,,,,-0.008571429,-0.426666667,0,0,0,,0,67,67,93,1,SMONE,C,old,z,./images/SMONE.png,,,,,,,,,,,,,,,,,,,,,,,,,,,,,,,,,,,
,,,,,,,,,,,,,,,,,5dceb9be381b67000e061142,65,2022-02-12_17h05.47.309,lexical_decision_task_DD_L2,2021.2.3,MacIntel,52.63157895,,,,,,,,,,,1.351,1,,,,,,,,,,,,,,z,1,1.351,,,,,,,,-0.008571429,-0.426666667,0,0,0,,0,68,68,106,1,CLUMS,HB,old,z,./images/CLUMSHB.png,,,,,,,,,,,,,,,,,,,,,,,,,,,,,,,,,,,
,,,,,,,,,,,,,,,,,5dceb9be381b67000e061142,65,2022-02-12_17h05.47.309,lexical_decision_task_DD_L2,2021.2.3,MacIntel,52.63157895,,,,,,,,,,,0.863,1,,,,,,,,,,,,,,m,1,0.863,,,,,,,,-0.008571429,-0.426666667,0,0,0,,0,69,69,17,1,SKIING,C,old,m,./images/SKIING.png,,,,,,,,,,,,,,,,,,,,,,,,,,,,,,,,,,,
,,,,,,,,,,,,,,,,,5dceb9be381b67000e061142,65,2022-02-12_17h05.47.309,lexical_decision_task_DD_L2,2021.2.3,MacIntel,52.63157895,,,,,,,,,,,0.734,1,,,,,,,,,,,,,,m,1,0.734,,,,,,,,-0.008571429,-0.426666667,0,0,0,,0,70,70,5,1,PASTA,C,old,m,./images/PASTA.png,,,,,,,,,,,,,,,,,,,,,,,,,,,,,,,,,,,
,,,,,,,,,,,,,,,,,5dceb9be381b67000e061142,65,2022-02-12_17h05.47.309,lexical_decision_task_DD_L2,2021.2.3,MacIntel,52.63157895,,,,,,,,,,,0.665,1,,,,,,,,,,,,,,m,1,0.665,,,,,,,,-0.008571429,-0.426666667,0,0,0,,0,71,71,22,1,MELON,LB,old,m,./images/MELONLB.png,,,,,,,,,,,,,,,,,,,,,,,,,,,,,,,,,,,
,,,,,,,,,,,,,,,,,5dceb9be381b67000e061142,65,2022-02-12_17h05.47.309,lexical_decision_task_DD_L2,2021.2.3,MacIntel,52.63157895,,,,,,,,,,,0.75,1,,,,,,,,,,,,,,m,1,0.75,,,,,,,,-0.008571429,-0.426666667,0,0,0,,0,72,72,50,1,MALLET,C,old,m,./images/MALLET.png,,,,,,,,,,,,,,,,,,,,,,,,,,,,,,,,,,,
,,,,,,,,,,,,,,,,,5dceb9be381b67000e061142,65,2022-02-12_17h05.47.309,lexical_decision_task_DD_L2,2021.2.3,MacIntel,52.63157895,,,,,,,,,,,0.726,1,,,,,,,,,,,,,,z,1,0.726,,,,,,,,-0.008571429,-0.426666667,0,0,0,,0,73,73,111,1,HOSSE,C,old,z,./images/HOSSE.png,,,,,,,,,,,,,,,,,,,,,,,,,,,,,,,,,,,
,,,,,,,,,,,,,,,,,5dceb9be381b67000e061142,65,2022-02-12_17h05.47.309,lexical_decision_task_DD_L2,2021.2.3,MacIntel,52.63157895,,,,,,,,,,,0.745,1,,,,,,,,,,,,,,m,1,0.745,,,,,,,,-0.008571429,-0.426666667,0,0,0,,0,74,74,21,1,KIDNEY,HB,old,m,./images/KIDNEYHB.png,,,,,,,,,,,,,,,,,,,,,,,,,,,,,,,,,,,
,,,,,,,,,,,,,,,,,5dceb9be381b67000e061142,65,2022-02-12_17h05.47.309,lexical_decision_task_DD_L2,2021.2.3,MacIntel,52.63157895,,,,,,,,,,,0.797,1,,,,,,,,,,,,,,z,1,0.797,,,,,,,,-0.008571429,-0.426666667,0,0,0,,0,75,75,120,1,RINED,C,old,z,./images/RINED.png,,,,,,,,,,,,,,,,,,,,,,,,,,,,,,,,,,,
,,,,,,,,,,,,,,,,,5dceb9be381b67000e061142,65,2022-02-12_17h05.47.309,lexical_decision_task_DD_L2,2021.2.3,MacIntel,52.63157895,,,,,,,,,,,0.797,1,,,,,,,,,,,,,,z,1,0.797,,,,,,,,-0.008571429,-0.426666667,0,0,0,,0,76,76,137,1,JOOST,LB,old,z,./images/JOOSTLB.png,,,,,,,,,,,,,,,,,,,,,,,,,,,,,,,,,,,
,,,,,,,,,,,,,,,,,5dceb9be381b67000e061142,65,2022-02-12_17h05.47.309,lexical_decision_task_DD_L2,2021.2.3,MacIntel,52.63157895,,,,,,,,,,,0.803,1,,,,,,,,,,,,,,m,1,0.803,,,,,,,,-0.008571429,-0.426666667,0,0,0,,0,77,77,31,1,QUILL,LB,old,m,./images/QUILLLB.png,,,,,,,,,,,,,,,,,,,,,,,,,,,,,,,,,,,
,,,,,,,,,,,,,,,,,5dceb9be381b67000e061142,65,2022-02-12_17h05.47.309,lexical_decision_task_DD_L2,2021.2.3,MacIntel,52.63157895,,,,,,,,,,,1.131,1,,,,,,,,,,,,,,z,1,1.131,,,,,,,,-0.008571429,-0.426666667,0,0,0,,0,78,78,99,1,BACKY,C,old,z,./images/BACKY.png,,,,,,,,,,,,,,,,,,,,,,,,,,,,,,,,,,,
,,,,,,,,,,,,,,,,,5dceb9be381b67000e061142,65,2022-02-12_17h05.47.309,lexical_decision_task_DD_L2,2021.2.3,MacIntel,52.63157895,,,,,,,,,,,0.905,1,,,,,,,,,,,,,,z,1,0.905,,,,,,,,-0.008571429,-0.426666667,0,0,0,,0,79,79,139,1,BLEAR,HB,old,z,./images/BLEARHB.png,,,,,,,,,,,,,,,,,,,,,,,,,,,,,,,,,,,
,,,,,,,,,,,,,,,,,5dceb9be381b67000e061142,65,2022-02-12_17h05.47.309,lexical_decision_task_DD_L2,2021.2.3,MacIntel,52.63157895,,,,,,,,,,,1.267,1,,,,,,,,,,,,,,z,1,1.267,,,,,,,,-0.008571429,-0.426666667,0,0,0,,0,80,80,88,1,GLUSH,HB,old,z,./images/GLUSHHB.png,,,,,,,,,,,,,,,,,,,,,,,,,,,,,,,,,,,
,,,,,,,,,,,,,,,,,5dceb9be381b67000e061142,65,2022-02-12_17h05.47.309,lexical_decision_task_DD_L2,2021.2.3,MacIntel,52.63157895,,,,,,,,,,,0.917,1,,,,,,,,,,,,,,m,1,0.917,,,,,,,,-0.008571429,-0.426666667,0,0,0,,0,81,81,3,1,FINGER,HB,old,m,./images/FINGERHB.png,,,,,,,,,,,,,,,,,,,,,,,,,,,,,,,,,,,
,,,,,,,,,,,,,,,,,5dceb9be381b67000e061142,65,2022-02-12_17h05.47.309,lexical_decision_task_DD_L2,2021.2.3,MacIntel,52.63157895,,,,,,,,,,,0.901,1,,,,,,,,,,,,,,z,1,0.901,,,,,,,,-0.008571429,-0.426666667,0,0,0,,0,82,82,154,1,THINT,HB,old,z,./images/THINTHB.png,,,,,,,,,,,,,,,,,,,,,,,,,,,,,,,,,,,
,,,,,,,,,,,,,,,,,5dceb9be381b67000e061142,65,2022-02-12_17h05.47.309,lexical_decision_task_DD_L2,2021.2.3,MacIntel,52.63157895,,,,,,,,,,,0.924,1,,,,,,,,,,,,,,m,1,0.924,,,,,,,,0.012380952,-0.387619048,1,0,0,,0,83,83,54,1,TRIPOD,HB,old,m,./images/TRIPODHB.png,break_done_button,,,,,,,,,,,,,,,,,,,,,,,,,,,,,,,,,,
,,,,,,,,,,,,,,,,,5dceb9be381b67000e061142,65,2022-02-12_17h05.47.309,lexical_decision_task_DD_L2,2021.2.3,MacIntel,52.63157895,,,,,,,,,,,0.905,1,,,,,,,,,,,,,,m,1,0.905,,,,,,,,0.012380952,-0.387619048,0,0,0,,0,84,84,60,1,TWINS,HB,old,m,./images/TWINSHB.png,,,,,,,,,,,,,,,,,,,,,,,,,,,,,,,,,,,
,,,,,,,,,,,,,,,,,5dceb9be381b67000e061142,65,2022-02-12_17h05.47.309,lexical_decision_task_DD_L2,2021.2.3,MacIntel,52.63157895,,,,,,,,,,,1.37,1,,,,,,,,,,,,,,m,1,1.37,,,,,,,,0.012380952,-0.387619048,0,0,0,,0,85,85,4,1,MUSCLE,LB,old,m,./images/MUSCLELB.png,,,,,,,,,,,,,,,,,,,,,,,,,,,,,,,,,,,
,,,,,,,,,,,,,,,,,5dceb9be381b67000e061142,65,2022-02-12_17h05.47.309,lexical_decision_task_DD_L2,2021.2.3,MacIntel,52.63157895,,,,,,,,,,,0.874,1,,,,,,,,,,,,,,z,1,0.874,,,,,,,,0.012380952,-0.387619048,0,0,0,,0,86,86,138,1,PLICE,C,old,z,./images/PLICE.png,,,,,,,,,,,,,,,,,,,,,,,,,,,,,,,,,,,
,,,,,,,,,,,,,,,,,5dceb9be381b67000e061142,65,2022-02-12_17h05.47.309,lexical_decision_task_DD_L2,2021.2.3,MacIntel,52.63157895,,,,,,,,,,,0.949,1,,,,,,,,,,,,,,z,1,0.949,,,,,,,,0.012380952,-0.387619048,0,0,0,,0,87,87,98,1,BAMPS,LB,old,z,./images/BAMPSLB.png,,,,,,,,,,,,,,,,,,,,,,,,,,,,,,,,,,,
,,,,,,,,,,,,,,,,,5dceb9be381b67000e061142,65,2022-02-12_17h05.47.309,lexical_decision_task_DD_L2,2021.2.3,MacIntel,52.63157895,,,,,,,,,,,0.697,1,,,,,,,,,,,,,,m,1,0.697,,,,,,,,0.012380952,-0.387619048,0,0,0,,0,88,88,13,1,MOTOR,LB,old,m,./images/MOTORLB.png,,,,,,,,,,,,,,,,,,,,,,,,,,,,,,,,,,,
,,,,,,,,,,,,,,,,,5dceb9be381b67000e061142,65,2022-02-12_17h05.47.309,lexical_decision_task_DD_L2,2021.2.3,MacIntel,52.63157895,,,,,,,,,,,0.736,1,,,,,,,,,,,,,,z,1,0.736,,,,,,,,0.012380952,-0.387619048,0,0,0,,0,89,89,117,1,STEEG,C,old,z,./images/STEEG.png,,,,,,,,,,,,,,,,,,,,,,,,,,,,,,,,,,,
,,,,,,,,,,,,,,,,,5dceb9be381b67000e061142,65,2022-02-12_17h05.47.309,lexical_decision_task_DD_L2,2021.2.3,MacIntel,52.63157895,,,,,,,,,,,1.148,1,,,,,,,,,,,,,,z,1,1.148,,,,,,,,0.012380952,-0.387619048,0,0,0,,0,90,90,162,1,LEICH,C,old,z,./images/LEICH.png,,,,,,,,,,,,,,,,,,,,,,,,,,,,,,,,,,,
,,,,,,,,,,,,,,,,,5dceb9be381b67000e061142,65,2022-02-12_17h05.47.309,lexical_decision_task_DD_L2,2021.2.3,MacIntel,52.63157895,,,,,,,,,,,0.841,1,,,,,,,,,,,,,,m,1,0.841,,,,,,,,0.012380952,-0.387619048,0,0,0,,0,91,91,39,1,SHELF,HB,old,m,./images/SHELFHB.png,,,,,,,,,,,,,,,,,,,,,,,,,,,,,,,,,,,
,,,,,,,,,,,,,,,,,5dceb9be381b67000e061142,65,2022-02-12_17h05.47.309,lexical_decision_task_DD_L2,2021.2.3,MacIntel,52.63157895,,,,,,,,,,,0.712,1,,,,,,,,,,,,,,m,1,0.712,,,,,,,,0.012380952,-0.387619048,0,0,0,,0,92,92,75,1,GRAIN,HB,old,m,./images/GRAINHB.png,,,,,,,,,,,,,,,,,,,,,,,,,,,,,,,,,,,
,,,,,,,,,,,,,,,,,5dceb9be381b67000e061142,65,2022-02-12_17h05.47.309,lexical_decision_task_DD_L2,2021.2.3,MacIntel,52.63157895,,,,,,,,,,,0.826,1,,,,,,,,,,,,,,z,1,0.826,,,,,,,,0.012380952,-0.387619048,0,0,0,,0,93,93,91,1,SHENS,HB,old,z,./images/SHENSHB.png,,,,,,,,,,,,,,,,,,,,,,,,,,,,,,,,,,,
,,,,,,,,,,,,,,,,,5dceb9be381b67000e061142,65,2022-02-12_17h05.47.309,lexical_decision_task_DD_L2,2021.2.3,MacIntel,52.63157895,,,,,,,,,,,0.763,1,,,,,,,,,,,,,,m,1,0.763,,,,,,,,0.012380952,-0.387619048,0,0,0,,0,94,94,56,1,PACKET,C,old,m,./images/PACKET.png,,,,,,,,,,,,,,,,,,,,,,,,,,,,,,,,,,,
,,,,,,,,,,,,,,,,,5dceb9be381b67000e061142,65,2022-02-12_17h05.47.309,lexical_decision_task_DD_L2,2021.2.3,MacIntel,52.63157895,,,,,,,,,,,1.131,1,,,,,,,,,,,,,,m,1,1.131,,,,,,,,0.012380952,-0.387619048,0,0,0,,0,95,95,70,1,URINE,LB,old,m,./images/URINELB.png,,,,,,,,,,,,,,,,,,,,,,,,,,,,,,,,,,,
,,,,,,,,,,,,,,,,,5dceb9be381b67000e061142,65,2022-02-12_17h05.47.309,lexical_decision_task_DD_L2,2021.2.3,MacIntel,52.63157895,,,,,,,,,,,0.888,1,,,,,,,,,,,,,,z,1,0.888,,,,,,,,0.012380952,-0.387619048,0,0,0,,0,96,96,151,1,TINKY,HB,old,z,./images/TINKYHB.png,,,,,,,,,,,,,,,,,,,,,,,,,,,,,,,,,,,
,,,,,,,,,,,,,,,,,5dceb9be381b67000e061142,65,2022-02-12_17h05.47.309,lexical_decision_task_DD_L2,2021.2.3,MacIntel,52.63157895,,,,,,,,,,,0.786,1,,,,,,,,,,,,,,m,1,0.786,,,,,,,,0.012380952,-0.387619048,0,0,0,,0,97,97,6,1,SQUARE,HB,old,m,./images/SQUAREHB.png,,,,,,,,,,,,,,,,,,,,,,,,,,,,,,,,,,,
,,,,,,,,,,,,,,,,,5dceb9be381b67000e061142,65,2022-02-12_17h05.47.309,lexical_decision_task_DD_L2,2021.2.3,MacIntel,52.63157895,,,,,,,,,,,1.039,1,,,,,,,,,,,,,,z,1,1.039,,,,,,,,0.012380952,-0.387619048,0,0,0,,0,98,98,97,1,CHIDS,HB,old,z,./images/CHIDSHB.png,,,,,,,,,,,,,,,,,,,,,,,,,,,,,,,,,,,
,,,,,,,,,,,,,,,,,5dceb9be381b67000e061142,65,2022-02-12_17h05.47.309,lexical_decision_task_DD_L2,2021.2.3,MacIntel,52.63157895,,,,,,,,,,,0.714,1,,,,,,,,,,,,,,m,1,0.714,,,,,,,,0.012380952,-0.387619048,0,0,0,,0,99,99,26,1,SMOKER,C,old,m,./images/SMOKER.png,,,,,,,,,,,,,,,,,,,,,,,,,,,,,,,,,,,
,,,,,,,,,,,,,,,,,5dceb9be381b67000e061142,65,2022-02-12_17h05.47.309,lexical_decision_task_DD_L2,2021.2.3,MacIntel,52.63157895,,,,,,,,,,,0.632,1,,,,,,,,,,,,,,m,1,0.632,,,,,,,,0.012380952,-0.387619048,0,0,0,,0,100,100,77,1,COUCH,C,old,m,./images/COUCH.png,,,,,,,,,,,,,,,,,,,,,,,,,,,,,,,,,,,
,,,,,,,,,,,,,,,,,5dceb9be381b67000e061142,65,2022-02-12_17h05.47.309,lexical_decision_task_DD_L2,2021.2.3,MacIntel,52.63157895,,,,,,,,,,,0.943,1,,,,,,,,,,,,,,z,1,0.943,,,,,,,,0.012380952,-0.387619048,0,0,0,,0,101,101,104,1,GITTY,LB,old,z,./images/GITTYLB.png,,,,,,,,,,,,,,,,,,,,,,,,,,,,,,,,,,,
,,,,,,,,,,,,,,,,,5dceb9be381b67000e061142,65,2022-02-12_17h05.47.309,lexical_decision_task_DD_L2,2021.2.3,MacIntel,52.63157895,,,,,,,,,,,0.727,1,,,,,,,,,,,,,,m,1,0.727,,,,,,,,0.012380952,-0.387619048,0,0,0,,0,102,102,46,1,PEARL,LB,old,m,./images/PEARLLB.png,,,,,,,,,,,,,,,,,,,,,,,,,,,,,,,,,,,
,,,,,,,,,,,,,,,,,5dceb9be381b67000e061142,65,2022-02-12_17h05.47.309,lexical_decision_task_DD_L2,2021.2.3,MacIntel,52.63157895,,,,,,,,,,,1.117,1,,,,,,,,,,,,,,m,1,1.117,,,,,,,,0.012380952,-0.387619048,0,0,0,,0,103,103,72,1,NOOSE,HB,old,m,./images/NOOSEHB.png,,,,,,,,,,,,,,,,,,,,,,,,,,,,,,,,,,,
,,,,,,,,,,,,,,,,,5dceb9be381b67000e061142,65,2022-02-12_17h05.47.309,lexical_decision_task_DD_L2,2021.2.3,MacIntel,52.63157895,,,,,,,,,,,0.968,1,,,,,,,,,,,,,,z,1,0.968,,,,,,,,0.012380952,-0.387619048,0,0,0,,0,104,104,119,1,PAFER,LB,old,z,./images/PAFERLB.png,,,,,,,,,,,,,,,,,,,,,,,,,,,,,,,,,,,
,,,,,,,,,,,,,,,,,5dceb9be381b67000e061142,65,2022-02-12_17h05.47.309,lexical_decision_task_DD_L2,2021.2.3,MacIntel,52.63157895,,,,,,,,,,,0.779,1,,,,,,,,,,,,,,z,1,0.779,,,,,,,,0.012380952,-0.387619048,0,0,0,,0,105,105,92,1,PAIMS,LB,old,z,./images/PAIMSLB.png,,,,,,,,,,,,,,,,,,,,,,,,,,,,,,,,,,,
,,,,,,,,,,,,,,,,,5dceb9be381b67000e061142,65,2022-02-12_17h05.47.309,lexical_decision_task_DD_L2,2021.2.3,MacIntel,52.63157895,,,,,,,,,,,0.821,1,,,,,,,,,,,,,,m,1,0.821,,,,,,,,0.012380952,-0.387619048,0,0,0,,0,106,106,15,1,GREASE,HB,old,m,./images/GREASEHB.png,,,,,,,,,,,,,,,,,,,,,,,,,,,,,,,,,,,
,,,,,,,,,,,,,,,,,5dceb9be381b67000e061142,65,2022-02-12_17h05.47.309,lexical_decision_task_DD_L2,2021.2.3,MacIntel,52.63157895,,,,,,,,,,,0.779,1,,,,,,,,,,,,,,z,1,0.779,,,,,,,,0.012380952,-0.387619048,0,0,0,,0,107,107,167,1,ZONET,LB,old,z,./images/ZONETLB.png,,,,,,,,,,,,,,,,,,,,,,,,,,,,,,,,,,,
,,,,,,,,,,,,,,,,,5dceb9be381b67000e061142,65,2022-02-12_17h05.47.309,lexical_decision_task_DD_L2,2021.2.3,MacIntel,52.63157895,,,,,,,,,,,0.728,1,,,,,,,,,,,,,,z,1,0.728,,,,,,,,0.012380952,-0.387619048,0,0,0,,0,108,108,101,1,GLEET,LB,old,z,./images/GLEETLB.png,,,,,,,,,,,,,,,,,,,,,,,,,,,,,,,,,,,
,,,,,,,,,,,,,,,,,5dceb9be381b67000e061142,65,2022-02-12_17h05.47.309,lexical_decision_task_DD_L2,2021.2.3,MacIntel,52.63157895,,,,,,,,,,,0.878,1,,,,,,,,,,,,,,z,1,0.878,,,,,,,,0.012380952,-0.387619048,0,0,0,,0,109,109,157,1,INLER,HB,old,z,./images/INLERHB.png,,,,,,,,,,,,,,,,,,,,,,,,,,,,,,,,,,,
,,,,,,,,,,,,,,,,,5dceb9be381b67000e061142,65,2022-02-12_17h05.47.309,lexical_decision_task_DD_L2,2021.2.3,MacIntel,52.63157895,,,,,,,,,,,1.052,1,,,,,,,,,,,,,,z,1,1.052,,,,,,,,0.012380952,-0.387619048,0,0,0,,0,110,110,112,1,MYING,HB,old,z,./images/MYINGHB.png,,,,,,,,,,,,,,,,,,,,,,,,,,,,,,,,,,,
,,,,,,,,,,,,,,,,,5dceb9be381b67000e061142,65,2022-02-12_17h05.47.309,lexical_decision_task_DD_L2,2021.2.3,MacIntel,52.63157895,,,,,,,,,,,1.228,1,,,,,,,,,,,,,,z,1,1.228,,,,,,,,0.012380952,-0.387619048,0,0,0,,0,111,111,166,1,SHORY,HB,old,z,./images/SHORYHB.png,,,,,,,,,,,,,,,,,,,,,,,,,,,,,,,,,,,
,,,,,,,,,,,,,,,,,5dceb9be381b67000e061142,65,2022-02-12_17h05.47.309,lexical_decision_task_DD_L2,2021.2.3,MacIntel,52.63157895,,,,,,,,,,,0.737,1,,,,,,,,,,,,,,z,1,0.737,,,,,,,,0.012380952,-0.387619048,0,0,0,,0,112,112,113,1,LINEW,LB,old,z,./images/LINEWLB.png,,,,,,,,,,,,,,,,,,,,,,,,,,,,,,,,,,,
,,,,,,,,,,,,,,,,,5dceb9be381b67000e061142,65,2022-02-12_17h05.47.309,lexical_decision_task_DD_L2,2021.2.3,MacIntel,52.63157895,,,,,,,,,,,0.614,1,,,,,,,,,,,,,,z,1,0.614,,,,,,,,0.012380952,-0.387619048,0,0,0,,0,113,113,155,1,CANGY,LB,old,z,./images/CANGYLB.png,,,,,,,,,,,,,,,,,,,,,,,,,,,,,,,,,,,
,,,,,,,,,,,,,,,,,5dceb9be381b67000e061142,65,2022-02-12_17h05.47.309,lexical_decision_task_DD_L2,2021.2.3,MacIntel,52.63157895,,,,,,,,,,,0.672,1,,,,,,,,,,,,,,z,1,0.672,,,,,,,,0.012380952,-0.387619048,0,0,0,,0,114,114,129,1,PRANS,C,old,z,./images/PRANS.png,,,,,,,,,,,,,,,,,,,,,,,,,,,,,,,,,,,
,,,,,,,,,,,,,,,,,5dceb9be381b67000e061142,65,2022-02-12_17h05.47.309,lexical_decision_task_DD_L2,2021.2.3,MacIntel,52.63157895,,,,,,,,,,,0.638,1,,,,,,,,,,,,,,z,1,0.638,,,,,,,,0.012380952,-0.387619048,0,0,0,,0,115,115,108,1,GRUET,C,old,z,./images/GRUET.png,,,,,,,,,,,,,,,,,,,,,,,,,,,,,,,,,,,
,,,,,,,,,,,,,,,,,5dceb9be381b67000e061142,65,2022-02-12_17h05.47.309,lexical_decision_task_DD_L2,2021.2.3,MacIntel,52.63157895,,,,,,,,,,,0.833,1,,,,,,,,,,,,,,z,1,0.833,,,,,,,,0.012380952,-0.387619048,0,0,0,,0,116,116,87,1,TRING,C,old,z,./images/TRING.png,,,,,,,,,,,,,,,,,,,,,,,,,,,,,,,,,,,
,,,,,,,,,,,,,,,,,5dceb9be381b67000e061142,65,2022-02-12_17h05.47.309,lexical_decision_task_DD_L2,2021.2.3,MacIntel,52.63157895,,,,,,,,,,,0.751,1,,,,,,,,,,,,,,z,1,0.751,,,,,,,,0.012380952,-0.387619048,0,0,0,,0,117,117,90,1,NEAST,C,old,z,./images/NEAST.png,,,,,,,,,,,,,,,,,,,,,,,,,,,,,,,,,,,
,,,,,,,,,,,,,,,,,5dceb9be381b67000e061142,65,2022-02-12_17h05.47.309,lexical_decision_task_DD_L2,2021.2.3,MacIntel,52.63157895,,,,,,,,,,,0.747,1,,,,,,,,,,,,,,m,1,0.747,,,,,,,,0.012380952,-0.387619048,0,0,0,,0,118,118,63,1,MIRROR,HB,old,m,./images/MIRRORHB.png,,,,,,,,,,,,,,,,,,,,,,,,,,,,,,,,,,,
,,,,,,,,,,,,,,,,,5dceb9be381b67000e061142,65,2022-02-12_17h05.47.309,lexical_decision_task_DD_L2,2021.2.3,MacIntel,52.63157895,,,,,,,,,,,0.607,1,,,,,,,,,,,,,,m,1,0.607,,,,,,,,0.012380952,-0.387619048,0,0,0,,0,119,119,41,1,STRING,C,old,m,./images/STRING.png,,,,,,,,,,,,,,,,,,,,,,,,,,,,,,,,,,,
,,,,,,,,,,,,,,,,,5dceb9be381b67000e061142,65,2022-02-12_17h05.47.309,lexical_decision_task_DD_L2,2021.2.3,MacIntel,52.63157895,,,,,,,,,,,0.751,1,,,,,,,,,,,,,,z,1,0.751,,,,,,,,0.012380952,-0.387619048,0,0,0,,0,120,120,143,1,MONGS,LB,old,z,./images/MONGSLB.png,,,,,,,,,,,,,,,,,,,,,,,,,,,,,,,,,,,
,,,,,,,,,,,,,,,,,5dceb9be381b67000e061142,65,2022-02-12_17h05.47.309,lexical_decision_task_DD_L2,2021.2.3,MacIntel,52.63157895,,,,,,,,,,,0.751,1,,,,,,,,,,,,,,m,1,0.751,,,,,,,,0.012380952,-0.387619048,0,0,0,,0,121,121,24,1,SCREW,HB,old,m,./images/SCREWHB.png,,,,,,,,,,,,,,,,,,,,,,,,,,,,,,,,,,,
,,,,,,,,,,,,,,,,,5dceb9be381b67000e061142,65,2022-02-12_17h05.47.309,lexical_decision_task_DD_L2,2021.2.3,MacIntel,52.63157895,,,,,,,,,,,0.719,1,,,,,,,,,,,,,,m,1,0.719,,,,,,,,0.012380952,-0.387619048,0,0,0,,0,122,122,45,1,KITTEN,HB,old,m,./images/KITTENHB.png,,,,,,,,,,,,,,,,,,,,,,,,,,,,,,,,,,,
,,,,,,,,,,,,,,,,,5dceb9be381b67000e061142,65,2022-02-12_17h05.47.309,lexical_decision_task_DD_L2,2021.2.3,MacIntel,52.63157895,,,,,,,,,,,0.813,1,,,,,,,,,,,,,,z,1,0.813,,,,,,,,0.012380952,-0.387619048,0,0,0,,0,123,123,107,1,FASKS,LB,old,z,./images/FASKSLB.png,,,,,,,,,,,,,,,,,,,,,,,,,,,,,,,,,,,
,,,,,,,,,,,,,,,,,5dceb9be381b67000e061142,65,2022-02-12_17h05.47.309,lexical_decision_task_DD_L2,2021.2.3,MacIntel,52.63157895,,,,,,,,,,,0.958,1,,,,,,,,,,,,,,m,1,0.958,,,,,,,,0.012380952,-0.387619048,0,0,0,,0,124,124,9,1,RHINO,HB,old,m,./images/RHINOHB.png,,,,,,,,,,,,,,,,,,,,,,,,,,,,,,,,,,,
,,,,,,,,,,,,,,,,,5dceb9be381b67000e061142,65,2022-02-12_17h05.47.309,lexical_decision_task_DD_L2,2021.2.3,MacIntel,52.63157895,,,,,,,,,,,0.876,1,,,,,,,,,,,,,,m,1,0.876,,,,,,,,0.015238095,-0.433333333,1,0,0,,0,125,125,47,1,BERRY,C,old,m,./images/BERRY.png,break_done_button,,,,,,,,,,,,,,,,,,,,,,,,,,,,,,,,,,
,,,,,,,,,,,,,,,,,5dceb9be381b67000e061142,65,2022-02-12_17h05.47.309,lexical_decision_task_DD_L2,2021.2.3,MacIntel,52.63157895,,,,,,,,,,,0.982,1,,,,,,,,,,,,,,z,1,0.982,,,,,,,,0.015238095,-0.433333333,0,0,0,,0,126,126,121,1,CEERS,HB,old,z,./images/CEERSHB.png,,,,,,,,,,,,,,,,,,,,,,,,,,,,,,,,,,,
,,,,,,,,,,,,,,,,,5dceb9be381b67000e061142,65,2022-02-12_17h05.47.309,lexical_decision_task_DD_L2,2021.2.3,MacIntel,52.63157895,,,,,,,,,,,0.713,1,,,,,,,,,,,,,,z,1,0.713,,,,,,,,0.015238095,-0.433333333,0,0,0,,0,127,127,94,1,BLANS,HB,old,z,./images/BLANSHB.png,,,,,,,,,,,,,,,,,,,,,,,,,,,,,,,,,,,
,,,,,,,,,,,,,,,,,5dceb9be381b67000e061142,65,2022-02-12_17h05.47.309,lexical_decision_task_DD_L2,2021.2.3,MacIntel,52.63157895,,,,,,,,,,,0.858,1,,,,,,,,,,,,,,m,1,0.858,,,,,,,,0.015238095,-0.433333333,0,0,0,,0,128,128,11,1,BONNET,C,old,m,./images/BONNET.png,,,,,,,,,,,,,,,,,,,,,,,,,,,,,,,,,,,
,,,,,,,,,,,,,,,,,5dceb9be381b67000e061142,65,2022-02-12_17h05.47.309,lexical_decision_task_DD_L2,2021.2.3,MacIntel,52.63157895,,,,,,,,,,,0.699,1,,,,,,,,,,,,,,m,1,0.699,,,,,,,,0.015238095,-0.433333333,0,0,0,,0,129,129,53,1,CARPET,C,old,m,./images/CARPET.png,,,,,,,,,,,,,,,,,,,,,,,,,,,,,,,,,,,
,,,,,,,,,,,,,,,,,5dceb9be381b67000e061142,65,2022-02-12_17h05.47.309,lexical_decision_task_DD_L2,2021.2.3,MacIntel,52.63157895,,,,,,,,,,,0.828,1,,,,,,,,,,,,,,m,1,0.828,,,,,,,,0.015238095,-0.433333333,0,0,0,,0,130,130,79,1,CRUST,LB,old,m,./images/CRUSTLB.png,,,,,,,,,,,,,,,,,,,,,,,,,,,,,,,,,,,
,,,,,,,,,,,,,,,,,5dceb9be381b67000e061142,65,2022-02-12_17h05.47.309,lexical_decision_task_DD_L2,2021.2.3,MacIntel,52.63157895,,,,,,,,,,,0.725,1,,,,,,,,,,,,,,m,1,0.725,,,,,,,,0.015238095,-0.433333333,0,0,0,,0,131,131,52,1,BANNER,LB,old,m,./images/BANNERLB.png,,,,,,,,,,,,,,,,,,,,,,,,,,,,,,,,,,,
,,,,,,,,,,,,,,,,,5dceb9be381b67000e061142,65,2022-02-12_17h05.47.309,lexical_decision_task_DD_L2,2021.2.3,MacIntel,52.63157895,,,,,,,,,,,0.931,1,,,,,,,,,,,,,,m,1,0.931,,,,,,,,0.015238095,-0.433333333,0,0,0,,0,132,132,58,1,BABOON,LB,old,m,./images/BABOONLB.png,,,,,,,,,,,,,,,,,,,,,,,,,,,,,,,,,,,
,,,,,,,,,,,,,,,,,5dceb9be381b67000e061142,65,2022-02-12_17h05.47.309,lexical_decision_task_DD_L2,2021.2.3,MacIntel,52.63157895,,,,,,,,,,,0.824,1,,,,,,,,,,,,,,m,1,0.824,,,,,,,,0.015238095,-0.433333333,0,0,0,,0,133,133,38,1,LADDER,C,old,m,./images/LADDER.png,,,,,,,,,,,,,,,,,,,,,,,,,,,,,,,,,,,
,,,,,,,,,,,,,,,,,5dceb9be381b67000e061142,65,2022-02-12_17h05.47.309,lexical_decision_task_DD_L2,2021.2.3,MacIntel,52.63157895,,,,,,,,,,,0.734,1,,,,,,,,,,,,,,m,1,0.734,,,,,,,,0.015238095,-0.433333333,0,0,0,,0,134,134,20,1,CRADLE,C,old,m,./images/CRADLE.png,,,,,,,,,,,,,,,,,,,,,,,,,,,,,,,,,,,
,,,,,,,,,,,,,,,,,5dceb9be381b67000e061142,65,2022-02-12_17h05.47.309,lexical_decision_task_DD_L2,2021.2.3,MacIntel,52.63157895,,,,,,,,,,,0.779,1,,,,,,,,,,,,,,z,1,0.779,,,,,,,,0.015238095,-0.433333333,0,0,0,,0,135,135,140,1,DOVET,LB,old,z,./images/DOVETLB.png,,,,,,,,,,,,,,,,,,,,,,,,,,,,,,,,,,,
,,,,,,,,,,,,,,,,,5dceb9be381b67000e061142,65,2022-02-12_17h05.47.309,lexical_decision_task_DD_L2,2021.2.3,MacIntel,52.63157895,,,,,,,,,,,0.835,1,,,,,,,,,,,,,,m,1,0.835,,,,,,,,0.015238095,-0.433333333,0,0,0,,0,136,136,83,1,JUNGLE,C,old,m,./images/JUNGLE.png,,,,,,,,,,,,,,,,,,,,,,,,,,,,,,,,,,,
,,,,,,,,,,,,,,,,,5dceb9be381b67000e061142,65,2022-02-12_17h05.47.309,lexical_decision_task_DD_L2,2021.2.3,MacIntel,52.63157895,,,,,,,,,,,0.73,1,,,,,,,,,,,,,,m,1,0.73,,,,,,,,0.015238095,-0.433333333,0,0,0,,0,137,137,43,1,MOSQUE,LB,old,m,./images/MOSQUELB.png,,,,,,,,,,,,,,,,,,,,,,,,,,,,,,,,,,,
,,,,,,,,,,,,,,,,,5dceb9be381b67000e061142,65,2022-02-12_17h05.47.309,lexical_decision_task_DD_L2,2021.2.3,MacIntel,52.63157895,,,,,,,,,,,0.749,1,,,,,,,,,,,,,,m,1,0.749,,,,,,,,0.015238095,-0.433333333,0,0,0,,0,138,138,57,1,MOOSE,HB,old,m,./images/MOOSEHB.png,,,,,,,,,,,,,,,,,,,,,,,,,,,,,,,,,,,
,,,,,,,,,,,,,,,,,5dceb9be381b67000e061142,65,2022-02-12_17h05.47.309,lexical_decision_task_DD_L2,2021.2.3,MacIntel,52.63157895,,,,,,,,,,,1.215,1,,,,,,,,,,,,,,z,1,1.215,,,,,,,,0.015238095,-0.433333333,0,0,0,,0,139,139,102,1,DULLE,C,old,z,./images/DULLE.png,,,,,,,,,,,,,,,,,,,,,,,,,,,,,,,,,,,
,,,,,,,,,,,,,,,,,5dceb9be381b67000e061142,65,2022-02-12_17h05.47.309,lexical_decision_task_DD_L2,2021.2.3,MacIntel,52.63157895,,,,,,,,,,,0.815,1,,,,,,,,,,,,,,z,1,0.815,,,,,,,,0.015238095,-0.433333333,0,0,0,,0,140,140,160,1,VEETS,HB,old,z,./images/VEETSHB.png,,,,,,,,,,,,,,,,,,,,,,,,,,,,,,,,,,,
,,,,,,,,,,,,,,,,,5dceb9be381b67000e061142,65,2022-02-12_17h05.47.309,lexical_decision_task_DD_L2,2021.2.3,MacIntel,52.63157895,,,,,,,,,,,0.747,1,,,,,,,,,,,,,,m,1,0.747,,,,,,,,0.015238095,-0.433333333,0,0,0,,0,141,141,35,1,PEACH,C,old,m,./images/PEACH.png,,,,,,,,,,,,,,,,,,,,,,,,,,,,,,,,,,,
,,,,,,,,,,,,,,,,,5dceb9be381b67000e061142,65,2022-02-12_17h05.47.309,lexical_decision_task_DD_L2,2021.2.3,MacIntel,52.63157895,,,,,,,,,,,0.698,1,,,,,,,,,,,,,,m,1,0.698,,,,,,,,0.015238095,-0.433333333,0,0,0,,0,142,142,67,1,SAILOR,LB,old,m,./images/SAILORLB.png,,,,,,,,,,,,,,,,,,,,,,,,,,,,,,,,,,,
,,,,,,,,,,,,,,,,,5dceb9be381b67000e061142,65,2022-02-12_17h05.47.309,lexical_decision_task_DD_L2,2021.2.3,MacIntel,52.63157895,,,,,,,,,,,1.161,1,,,,,,,,,,,,,,m,1,1.161,,,,,,,,0.015238095,-0.433333333,0,0,0,,0,143,143,68,1,TORCH,C,old,m,./images/TORCH.png,,,,,,,,,,,,,,,,,,,,,,,,,,,,,,,,,,,
,,,,,,,,,,,,,,,,,5dceb9be381b67000e061142,65,2022-02-12_17h05.47.309,lexical_decision_task_DD_L2,2021.2.3,MacIntel,52.63157895,,,,,,,,,,,0.668,1,,,,,,,,,,,,,,z,1,0.668,,,,,,,,0.015238095,-0.433333333,0,0,0,,0,144,144,161,1,BLAPS,LB,old,z,./images/BLAPSLB.png,,,,,,,,,,,,,,,,,,,,,,,,,,,,,,,,,,,
,,,,,,,,,,,,,,,,,5dceb9be381b67000e061142,65,2022-02-12_17h05.47.309,lexical_decision_task_DD_L2,2021.2.3,MacIntel,52.63157895,,,,,,,,,,,0.659,1,,,,,,,,,,,,,,m,1,0.659,,,,,,,,0.015238095,-0.433333333,0,0,0,,0,145,145,64,1,JELLY,LB,old,m,./images/JELLYLB.png,,,,,,,,,,,,,,,,,,,,,,,,,,,,,,,,,,,
,,,,,,,,,,,,,,,,,5dceb9be381b67000e061142,65,2022-02-12_17h05.47.309,lexical_decision_task_DD_L2,2021.2.3,MacIntel,52.63157895,,,,,,,,,,,0.815,1,,,,,,,,,,,,,,z,1,0.815,,,,,,,,0.015238095,-0.433333333,0,0,0,,0,146,146,146,1,MOOST,LB,old,z,./images/MOOSTLB.png,,,,,,,,,,,,,,,,,,,,,,,,,,,,,,,,,,,
,,,,,,,,,,,,,,,,,5dceb9be381b67000e061142,65,2022-02-12_17h05.47.309,lexical_decision_task_DD_L2,2021.2.3,MacIntel,52.63157895,,,,,,,,,,,0.68,1,,,,,,,,,,,,,,m,1,0.68,,,,,,,,0.015238095,-0.433333333,0,0,0,,0,147,147,36,1,THROAT,HB,old,m,./images/THROATHB.png,,,,,,,,,,,,,,,,,,,,,,,,,,,,,,,,,,,
,,,,,,,,,,,,,,,,,5dceb9be381b67000e061142,65,2022-02-12_17h05.47.309,lexical_decision_task_DD_L2,2021.2.3,MacIntel,52.63157895,,,,,,,,,,,0.835,1,,,,,,,,,,,,,,z,1,0.835,,,,,,,,0.015238095,-0.433333333,0,0,0,,0,148,148,152,1,FRAIN,LB,old,z,./images/FRAINLB.png,,,,,,,,,,,,,,,,,,,,,,,,,,,,,,,,,,,
,,,,,,,,,,,,,,,,,5dceb9be381b67000e061142,65,2022-02-12_17h05.47.309,lexical_decision_task_DD_L2,2021.2.3,MacIntel,52.63157895,,,,,,,,,,,0.845,1,,,,,,,,,,,,,,m,1,0.845,,,,,,,,0.015238095,-0.433333333,0,0,0,,0,149,149,59,1,BURIAL,C,old,m,./images/BURIAL.png,,,,,,,,,,,,,,,,,,,,,,,,,,,,,,,,,,,
,,,,,,,,,,,,,,,,,5dceb9be381b67000e061142,65,2022-02-12_17h05.47.309,lexical_decision_task_DD_L2,2021.2.3,MacIntel,52.63157895,,,,,,,,,,,0.784,1,,,,,,,,,,,,,,z,1,0.784,,,,,,,,0.015238095,-0.433333333,0,0,0,,0,150,150,95,1,HANTY,LB,old,z,./images/HANTYLB.png,,,,,,,,,,,,,,,,,,,,,,,,,,,,,,,,,,,
,,,,,,,,,,,,,,,,,5dceb9be381b67000e061142,65,2022-02-12_17h05.47.309,lexical_decision_task_DD_L2,2021.2.3,MacIntel,52.63157895,,,,,,,,,,,1.132,1,,,,,,,,,,,,,,z,1,1.132,,,,,,,,0.015238095,-0.433333333,0,0,0,,0,151,151,105,1,MOKER,C,old,z,./images/MOKER.png,,,,,,,,,,,,,,,,,,,,,,,,,,,,,,,,,,,
,,,,,,,,,,,,,,,,,5dceb9be381b67000e061142,65,2022-02-12_17h05.47.309,lexical_decision_task_DD_L2,2021.2.3,MacIntel,52.63157895,,,,,,,,,,,0.883,1,,,,,,,,,,,,,,z,1,0.883,,,,,,,,0.015238095,-0.433333333,0,0,0,,0,152,152,114,1,RIKES,C,old,z,./images/RIKES.png,,,,,,,,,,,,,,,,,,,,,,,,,,,,,,,,,,,
,,,,,,,,,,,,,,,,,5dceb9be381b67000e061142,65,2022-02-12_17h05.47.309,lexical_decision_task_DD_L2,2021.2.3,MacIntel,52.63157895,,,,,,,,,,,0.722,1,,,,,,,,,,,,,,z,1,0.722,,,,,,,,0.015238095,-0.433333333,0,0,0,,0,153,153,142,1,PLASK,HB,old,z,./images/PLASKHB.png,,,,,,,,,,,,,,,,,,,,,,,,,,,,,,,,,,,
,,,,,,,,,,,,,,,,,5dceb9be381b67000e061142,65,2022-02-12_17h05.47.309,lexical_decision_task_DD_L2,2021.2.3,MacIntel,52.63157895,,,,,,,,,,,0.731,1,,,,,,,,,,,,,,m,1,0.731,,,,,,,,0.015238095,-0.433333333,0,0,0,,0,154,154,2,1,BEARD,C,old,m,./images/BEARD.png,,,,,,,,,,,,,,,,,,,,,,,,,,,,,,,,,,,
,,,,,,,,,,,,,,,,,5dceb9be381b67000e061142,65,2022-02-12_17h05.47.309,lexical_decision_task_DD_L2,2021.2.3,MacIntel,52.63157895,,,,,,,,,,,0.709,1,,,,,,,,,,,,,,z,1,0.709,,,,,,,,0.015238095,-0.433333333,0,0,0,,0,155,155,153,1,CLUPS,C,old,z,./images/CLUPS.png,,,,,,,,,,,,,,,,,,,,,,,,,,,,,,,,,,,
,,,,,,,,,,,,,,,,,5dceb9be381b67000e061142,65,2022-02-12_17h05.47.309,lexical_decision_task_DD_L2,2021.2.3,MacIntel,52.63157895,,,,,,,,,,,0.81,1,,,,,,,,,,,,,,z,1,0.81,,,,,,,,0.015238095,-0.433333333,0,0,0,,0,156,156,116,1,BALGY,LB,old,z,./images/BALGYLB.png,,,,,,,,,,,,,,,,,,,,,,,,,,,,,,,,,,,
,,,,,,,,,,,,,,,,,5dceb9be381b67000e061142,65,2022-02-12_17h05.47.309,lexical_decision_task_DD_L2,2021.2.3,MacIntel,52.63157895,,,,,,,,,,,0.732,1,,,,,,,,,,,,,,m,1,0.732,,,,,,,,0.015238095,-0.433333333,0,0,0,,0,157,157,34,1,CANYON,LB,old,m,./images/CANYONLB.png,,,,,,,,,,,,,,,,,,,,,,,,,,,,,,,,,,,
,,,,,,,,,,,,,,,,,5dceb9be381b67000e061142,65,2022-02-12_17h05.47.309,lexical_decision_task_DD_L2,2021.2.3,MacIntel,52.63157895,,,,,,,,,,,0.704,1,,,,,,,,,,,,,,m,1,0.704,,,,,,,,0.015238095,-0.433333333,0,0,0,,0,158,158,76,1,INFANT,LB,old,m,./images/INFANTLB.png,,,,,,,,,,,,,,,,,,,,,,,,,,,,,,,,,,,
,,,,,,,,,,,,,,,,,5dceb9be381b67000e061142,65,2022-02-12_17h05.47.309,lexical_decision_task_DD_L2,2021.2.3,MacIntel,52.63157895,,,,,,,,,,,1.179,1,,,,,,,,,,,,,,z,1,1.179,,,,,,,,0.015238095,-0.433333333,0,0,0,,0,159,159,115,1,MAWNS,HB,old,z,./images/MAWNSHB.png,,,,,,,,,,,,,,,,,,,,,,,,,,,,,,,,,,,
,,,,,,,,,,,,,,,,,5dceb9be381b67000e061142,65,2022-02-12_17h05.47.309,lexical_decision_task_DD_L2,2021.2.3,MacIntel,52.63157895,,,,,,,,,,,0.969,1,,,,,,,,,,,,,,z,1,0.969,,,,,,,,0.015238095,-0.433333333,0,0,0,,0,160,160,149,1,VEASE,LB,old,z,./images/VEASELB.png,,,,,,,,,,,,,,,,,,,,,,,,,,,,,,,,,,,
,,,,,,,,,,,,,,,,,5dceb9be381b67000e061142,65,2022-02-12_17h05.47.309,lexical_decision_task_DD_L2,2021.2.3,MacIntel,52.63157895,,,,,,,,,,,0.793,1,,,,,,,,,,,,,,z,1,0.793,,,,,,,,0.015238095,-0.433333333,0,0,0,,0,161,161,156,1,HIXES,C,old,z,./images/HIXES.png,,,,,,,,,,,,,,,,,,,,,,,,,,,,,,,,,,,
,,,,,,,,,,,,,,,,,5dceb9be381b67000e061142,65,2022-02-12_17h05.47.309,lexical_decision_task_DD_L2,2021.2.3,MacIntel,52.63157895,,,,,,,,,,,0.736,1,,,,,,,,,,,,,,z,1,0.736,,,,,,,,0.015238095,-0.433333333,0,0,0,,0,162,162,96,1,KEAMS,C,old,z,./images/KEAMS.png,,,,,,,,,,,,,,,,,,,,,,,,,,,,,,,,,,,
,,,,,,,,,,,,,,,,,5dceb9be381b67000e061142,65,2022-02-12_17h05.47.309,lexical_decision_task_DD_L2,2021.2.3,MacIntel,52.63157895,,,,,,,,,,,1.036,1,,,,,,,,,,,,,,z,1,1.036,,,,,,,,0.015238095,-0.433333333,0,0,0,,0,163,163,141,1,PLEET,C,old,z,./images/PLEET.png,,,,,,,,,,,,,,,,,,,,,,,,,,,,,,,,,,,
,,,,,,,,,,,,,,,,,5dceb9be381b67000e061142,65,2022-02-12_17h05.47.309,lexical_decision_task_DD_L2,2021.2.3,MacIntel,52.63157895,,,,,,,,,,,0.959,1,,,,,,,,,,,,,,m,1,0.959,,,,,,,,0.015238095,-0.433333333,0,0,0,,0,164,164,0,1,TOMATO,HB,old,m,./images/TOMATOHB.png,,,,,,,,,,,,,,,,,,,,,,,,,,,,,,,,,,,
,,,,,,,,,,,,,,,,,5dceb9be381b67000e061142,65,2022-02-12_17h05.47.309,lexical_decision_task_DD_L2,2021.2.3,MacIntel,52.63157895,,,,,,,,,,,0.884,1,,,,,,,,,,,,,,z,1,0.884,,,,,,,,0.015238095,-0.433333333,0,0,0,,0,165,165,136,1,WERVE,HB,old,z,./images/WERVEHB.png,,,,,,,,,,,,,,,,,,,,,,,,,,,,,,,,,,,
,,,,,,,,,,,,,,,,,5dceb9be381b67000e061142,65,2022-02-12_17h05.47.309,lexical_decision_task_DD_L2,2021.2.3,MacIntel,52.63157895,,,,,,,,,,,0.868,1,,,,,,,,,,,,,,z,1,0.868,,,,,,,,0.015238095,-0.433333333,0,0,0,,0,166,166,89,1,DRIEK,LB,old,z,./images/DRIEKLB.png,,,,,,,,,,,,,,,,,,,,,,,,,,,,,,,,,,,
,,,,,,,,,,,,,,,,,5dceb9be381b67000e061142,65,2022-02-12_17h05.47.309,lexical_decision_task_DD_L2,2021.2.3,MacIntel,52.63157895,,,,,,,,,,,0.751,1,,,,,,,,,,,,,,z,1,0.751,,,,,,,,0.015238095,-0.433333333,0,0,0,,0,167,167,163,1,GAMBA,HB,old,z,./images/GAMBAHB.png,,,,,,,,,,,,,,,,,,,,,,,,,,,,,,,,,,,
,,,,,,,,,,,,,,,,,5dceb9be381b67000e061142,65,2022-02-12_17h05.47.309,lexical_decision_task_DD_L2,2021.2.3,MacIntel,52.63157895,,,,,,,,,,,,,,,,,,,,,,,,,,,,,,,,,,,,,,,,,,,,,,,,How likely will it be that you will recognize the words presented clearly on a scale of 0 (not likely) to 100 (most likely)?,,,,,0.015238095,-0.433333333,1,0,0,jol_adv,6,15.72,0,0,0,0,1,,,,,,,,,,,,,,,,,,,,,
,,,,,,,,,,,,,,,,,5dceb9be381b67000e061142,65,2022-02-12_17h05.47.309,lexical_decision_task_DD_L2,2021.2.3,MacIntel,52.63157895,,,,,,,,,,,,,,,,,,,,,,,,,,,,,,,,,,,,,,,,,,,,,,,,How likely will it be that you will recognize the words presented slighly blurred on a scale of 0 (not likely) to 100 (most likely)?,,,,,,,,,,,5,8.981,0,1,1,1,1,,,,,,,,,,,,,,,,,,,,,
,,,,,,,,,,,,,,,,,5dceb9be381b67000e061142,65,2022-02-12_17h05.47.309,lexical_decision_task_DD_L2,2021.2.3,MacIntel,52.63157895,,,,,,,,,,,,,,,,,,,,,,,,,,,,,,,,,,,,,,,,,,,,,,,,How likely will it be that you will recognize the words presented very blurred on a scale of 0 (not likely) to 100 (most likely)?,,,,,,,,,,,5,5.587,0,2,2,2,1,,,,,,,,,,,,,,,,,,,,,
,0.031428571,-0.381904762,1,0,0,instr_done_button,,,,,,1,test,"In the next phase you will be presented with the words from the the first phase. Your job is to decide whether you remember seeing the word or not. If you remember seeing the word press ""old"" or type ""m"". If you do not remember seeing the word press ""new"" or type ""z"". Please press the space bar or click on continue to begin. ",,,5dceb9be381b67000e061142,65,2022-02-12_17h05.47.309,lexical_decision_task_DD_L2,2021.2.3,MacIntel,52.63157895,,,,,,,,,,,,,,,,,,,,,,,,,,,,,,,,,,,,,,,,,,,,,,,,,,,,,,,,,,,,,,,,,,0,0,0,0,1,,,,,,,,,,,,,,,,
,0.031428571,-0.381904762,1,0,0,instr_done_button,,,,,,1,test,"In the next phase you will be presented with the words from the the first phase. Your job is to decide whether you remember seeing the word or not. If you remember seeing the word press ""old"" or type ""m"". If you do not remember seeing the word press ""new"" or type ""z"". Please press the space bar or click on continue to begin. ",,,5dceb9be381b67000e061142,65,2022-02-12_17h05.47.309,lexical_decision_task_DD_L2,2021.2.3,MacIntel,52.63157895,,,,,,,,,,,,,,,,,,,,,,,,,,,,,,,,,,,,,,,,,,,,,,,,,,,,,,,,,,,,,,,,,,1,0,1,0,1,,,,,,,,,,,,,,,,
,0.031428571,-0.381904762,1,0,0,instr_done_button,,,,,,1,test,"In the next phase you will be presented with the words from the the first phase. Your job is to decide whether you remember seeing the word or not. If you remember seeing the word press ""old"" or type ""m"". If you do not remember seeing the word press ""new"" or type ""z"". Please press the space bar or click on continue to begin. ",,,5dceb9be381b67000e061142,65,2022-02-12_17h05.47.309,lexical_decision_task_DD_L2,2021.2.3,MacIntel,52.63157895,,,,,,,,,,,,,,,,,,,,,,,,,,,,,,,,,,,,,,,,,,,,,,,,,,,,,,,,,,,,,,,,,,2,0,2,0,1,,,,,,,,,,,,,,,,
space,0.038095238,-0.137142857,0,0,0,,,,,,,1,test,"In the next phase you will be presented with the words from the the first phase. Your job is to decide whether you remember seeing the word or not. If you remember seeing the word press ""old"" or type ""m"". If you do not remember seeing the word press ""new"" or type ""z"". Please press the space bar or click on continue to begin. ",,,5dceb9be381b67000e061142,65,2022-02-12_17h05.47.309,lexical_decision_task_DD_L2,2021.2.3,MacIntel,52.63157895,,,,,,,,,,,,,,,,,,,,,,,,,,,,,,,,,,,,,,,,,,,,,,,,,,,,,,,,,,,,,,,,,,3,0,3,0,1,4.4,,,,,,,,,,,,,,,
,0.043809524,-0.425714286,1,0,0,instr_done_button,,,,,,1,test,"In the next phase you will be presented with the words from the the first phase. Your job is to decide whether you remember seeing the word or not. If you remember seeing the word press ""old"" or type ""m"". If you do not remember seeing the word press ""new"" or type ""z"". Please press the space bar or click on continue to begin. ",,,5dceb9be381b67000e061142,65,2022-02-12_17h05.47.309,lexical_decision_task_DD_L2,2021.2.3,MacIntel,52.63157895,,,,,,,,,,,,,,,,,,,,,,,,,,,,,,,,,,,,,,,,,,,,,,,,,,,,,,,,,,,,,,,,,,4,0,4,0,1,,,,,,,,,,,,,,,,
,,,,,,,,,,,,,,,,,5dceb9be381b67000e061142,65,2022-02-12_17h05.47.309,lexical_decision_task_DD_L2,2021.2.3,MacIntel,52.63157895,,,,,,,,,,,1.838,1,,,,,,,,,,,,,,,,,,,,,,,,0.042857143,-0.425714286,0,0,0,,,,,,,DOUGH,LB,m,y,./images/DOUGHLB.png,,,,,,,,,,,,,,,,,,,,,m,1,1.838,,,,,,,,0,0,0,19,1
,,,,,,,,,,,,,,,,,5dceb9be381b67000e061142,65,2022-02-12_17h05.47.309,lexical_decision_task_DD_L2,2021.2.3,MacIntel,52.63157895,,,,,,,,,,,0.725,1,,,,,,,,,,,,,,,,,,,,,,,,0.042857143,-0.425714286,0,0,0,,,,,,,TORCH,C,m,y,./images/TORCH.png,,,,,,,,,,,,,,,,,,,,,m,1,0.725,,,,,,,,0,1,1,68,1
,,,,,,,,,,,,,,,,,5dceb9be381b67000e061142,65,2022-02-12_17h05.47.309,lexical_decision_task_DD_L2,2021.2.3,MacIntel,52.63157895,,,,,,,,,,,0.746,0,,,,,,,,,,,,,,,,,,,,,,,,0.042857143,-0.425714286,0,0,0,,,,,,,SLOPE,HB,z,y,./images/SLOPEHB.png,,,,,,,,,,,,,,,,,,,,,m,0,0.746,,,,,,,,0,2,2,114,1
,,,,,,,,,,,,,,,,,5dceb9be381b67000e061142,65,2022-02-12_17h05.47.309,lexical_decision_task_DD_L2,2021.2.3,MacIntel,52.63157895,,,,,,,,,,,0.886,1,,,,,,,,,,,,,,,,,,,,,,,,0.042857143,-0.425714286,0,0,0,,,,,,,WEASEL,C,m,y,./images/WEASEL.png,,,,,,,,,,,,,,,,,,,,,m,1,0.886,,,,,,,,0,3,3,80,1
,,,,,,,,,,,,,,,,,5dceb9be381b67000e061142,65,2022-02-12_17h05.47.309,lexical_decision_task_DD_L2,2021.2.3,MacIntel,52.63157895,,,,,,,,,,,1.066,1,,,,,,,,,,,,,,,,,,,,,,,,0.042857143,-0.425714286,0,0,0,,,,,,,BAKER,HB,z,y,./images/BAKERHB.png,,,,,,,,,,,,,,,,,,,,,z,1,1.066,,,,,,,,0,4,4,147,1
,,,,,,,,,,,,,,,,,5dceb9be381b67000e061142,65,2022-02-12_17h05.47.309,lexical_decision_task_DD_L2,2021.2.3,MacIntel,52.63157895,,,,,,,,,,,0.792,1,,,,,,,,,,,,,,,,,,,,,,,,0.042857143,-0.425714286,0,0,0,,,,,,,SKIING,C,m,y,./images/SKIING.png,,,,,,,,,,,,,,,,,,,,,m,1,0.792,,,,,,,,0,5,5,17,1
,,,,,,,,,,,,,,,,,5dceb9be381b67000e061142,65,2022-02-12_17h05.47.309,lexical_decision_task_DD_L2,2021.2.3,MacIntel,52.63157895,,,,,,,,,,,0.826,1,,,,,,,,,,,,,,,,,,,,,,,,0.042857143,-0.425714286,0,0,0,,,,,,,POODLE,HB,m,y,./images/POODLEHB.png,,,,,,,,,,,,,,,,,,,,,m,1,0.826,,,,,,,,0,6,6,81,1
,,,,,,,,,,,,,,,,,5dceb9be381b67000e061142,65,2022-02-12_17h05.47.309,lexical_decision_task_DD_L2,2021.2.3,MacIntel,52.63157895,,,,,,,,,,,0.992,1,,,,,,,,,,,,,,,,,,,,,,,,0.042857143,-0.425714286,0,0,0,,,,,,,STOOL,LB,z,y,./images/STOOLLB.png,,,,,,,,,,,,,,,,,,,,,z,1,0.992,,,,,,,,0,7,7,127,1
,,,,,,,,,,,,,,,,,5dceb9be381b67000e061142,65,2022-02-12_17h05.47.309,lexical_decision_task_DD_L2,2021.2.3,MacIntel,52.63157895,,,,,,,,,,,1.066,1,,,,,,,,,,,,,,,,,,,,,,,,0.042857143,-0.425714286,0,0,0,,,,,,,DONKEY,LB,z,y,./images/DONKEYLB.png,,,,,,,,,,,,,,,,,,,,,z,1,1.066,,,,,,,,0,8,8,103,1
,,,,,,,,,,,,,,,,,5dceb9be381b67000e061142,65,2022-02-12_17h05.47.309,lexical_decision_task_DD_L2,2021.2.3,MacIntel,52.63157895,,,,,,,,,,,1.137,0,,,,,,,,,,,,,,,,,,,,,,,,0.042857143,-0.425714286,0,0,0,,,,,,,CRUMB,C,m,y,./images/CRUMB.png,,,,,,,,,,,,,,,,,,,,,z,0,1.137,,,,,,,,0,9,9,29,1
,,,,,,,,,,,,,,,,,5dceb9be381b67000e061142,65,2022-02-12_17h05.47.309,lexical_decision_task_DD_L2,2021.2.3,MacIntel,52.63157895,,,,,,,,,,,0.903,0,,,,,,,,,,,,,,,,,,,,,,,,0.042857143,-0.425714286,0,0,0,,,,,,,HEATER,C,z,y,./images/HEATER.png,,,,,,,,,,,,,,,,,,,,,m,0,0.903,,,,,,,,0,10,10,140,1
,,,,,,,,,,,,,,,,,5dceb9be381b67000e061142,65,2022-02-12_17h05.47.309,lexical_decision_task_DD_L2,2021.2.3,MacIntel,52.63157895,,,,,,,,,,,1.063,1,,,,,,,,,,,,,,,,,,,,,,,,0.042857143,-0.425714286,0,0,0,,,,,,,VALLEY,C,z,y,./images/VALLEY.png,,,,,,,,,,,,,,,,,,,,,z,1,1.063,,,,,,,,0,11,11,152,1
,,,,,,,,,,,,,,,,,5dceb9be381b67000e061142,65,2022-02-12_17h05.47.309,lexical_decision_task_DD_L2,2021.2.3,MacIntel,52.63157895,,,,,,,,,,,0.979,1,,,,,,,,,,,,,,,,,,,,,,,,0.042857143,-0.425714286,0,0,0,,,,,,,PEBBLE,LB,z,y,./images/PEBBLELB.png,,,,,,,,,,,,,,,,,,,,,z,1,0.979,,,,,,,,0,12,12,166,1
,,,,,,,,,,,,,,,,,5dceb9be381b67000e061142,65,2022-02-12_17h05.47.309,lexical_decision_task_DD_L2,2021.2.3,MacIntel,52.63157895,,,,,,,,,,,1.128,1,,,,,,,,,,,,,,,,,,,,,,,,0.042857143,-0.425714286,0,0,0,,,,,,,BURIAL,C,m,y,./images/BURIAL.png,,,,,,,,,,,,,,,,,,,,,m,1,1.128,,,,,,,,0,13,13,59,1
,,,,,,,,,,,,,,,,,5dceb9be381b67000e061142,65,2022-02-12_17h05.47.309,lexical_decision_task_DD_L2,2021.2.3,MacIntel,52.63157895,,,,,,,,,,,0.811,1,,,,,,,,,,,,,,,,,,,,,,,,0.042857143,-0.425714286,0,0,0,,,,,,,LAGOON,C,z,y,./images/LAGOON.png,,,,,,,,,,,,,,,,,,,,,z,1,0.811,,,,,,,,0,14,14,131,1
,,,,,,,,,,,,,,,,,5dceb9be381b67000e061142,65,2022-02-12_17h05.47.309,lexical_decision_task_DD_L2,2021.2.3,MacIntel,52.63157895,,,,,,,,,,,0.829,1,,,,,,,,,,,,,,,,,,,,,,,,0.042857143,-0.425714286,0,0,0,,,,,,,WHEEL,C,z,y,./images/WHEEL.png,,,,,,,,,,,,,,,,,,,,,z,1,0.829,,,,,,,,0,15,15,161,1
,,,,,,,,,,,,,,,,,5dceb9be381b67000e061142,65,2022-02-12_17h05.47.309,lexical_decision_task_DD_L2,2021.2.3,MacIntel,52.63157895,,,,,,,,,,,1.216,1,,,,,,,,,,,,,,,,,,,,,,,,0.042857143,-0.425714286,0,0,0,,,,,,,PEACH,C,m,y,./images/PEACH.png,,,,,,,,,,,,,,,,,,,,,m,1,1.216,,,,,,,,0,16,16,35,1
,,,,,,,,,,,,,,,,,5dceb9be381b67000e061142,65,2022-02-12_17h05.47.309,lexical_decision_task_DD_L2,2021.2.3,MacIntel,52.63157895,,,,,,,,,,,1.2,1,,,,,,,,,,,,,,,,,,,,,,,,0.042857143,-0.425714286,0,0,0,,,,,,,ENGINE,C,z,y,./images/ENGINE.png,,,,,,,,,,,,,,,,,,,,,z,1,1.2,,,,,,,,0,17,17,122,1
,,,,,,,,,,,,,,,,,5dceb9be381b67000e061142,65,2022-02-12_17h05.47.309,lexical_decision_task_DD_L2,2021.2.3,MacIntel,52.63157895,,,,,,,,,,,0.743,1,,,,,,,,,,,,,,,,,,,,,,,,0.042857143,-0.425714286,0,0,0,,,,,,,SWEAT,HB,m,y,./images/SWEATHB.png,,,,,,,,,,,,,,,,,,,,,m,1,0.743,,,,,,,,0,18,18,66,1
,,,,,,,,,,,,,,,,,5dceb9be381b67000e061142,65,2022-02-12_17h05.47.309,lexical_decision_task_DD_L2,2021.2.3,MacIntel,52.63157895,,,,,,,,,,,0.895,1,,,,,,,,,,,,,,,,,,,,,,,,0.042857143,-0.425714286,0,0,0,,,,,,,CLOTH,C,z,y,./images/CLOTH.png,,,,,,,,,,,,,,,,,,,,,z,1,0.895,,,,,,,,0,19,19,107,1
,,,,,,,,,,,,,,,,,5dceb9be381b67000e061142,65,2022-02-12_17h05.47.309,lexical_decision_task_DD_L2,2021.2.3,MacIntel,52.63157895,,,,,,,,,,,0.78,1,,,,,,,,,,,,,,,,,,,,,,,,0.042857143,-0.425714286,0,0,0,,,,,,,STORM,HB,m,y,./images/STORMHB.png,,,,,,,,,,,,,,,,,,,,,m,1,0.78,,,,,,,,0,20,20,30,1
,,,,,,,,,,,,,,,,,5dceb9be381b67000e061142,65,2022-02-12_17h05.47.309,lexical_decision_task_DD_L2,2021.2.3,MacIntel,52.63157895,,,,,,,,,,,0.802,1,,,,,,,,,,,,,,,,,,,,,,,,0.042857143,-0.425714286,0,0,0,,,,,,,WALNUT,HB,z,y,./images/WALNUTHB.png,,,,,,,,,,,,,,,,,,,,,z,1,0.802,,,,,,,,0,21,21,84,1
,,,,,,,,,,,,,,,,,5dceb9be381b67000e061142,65,2022-02-12_17h05.47.309,lexical_decision_task_DD_L2,2021.2.3,MacIntel,52.63157895,,,,,,,,,,,0.881,1,,,,,,,,,,,,,,,,,,,,,,,,0.042857143,-0.425714286,0,0,0,,,,,,,BONNET,C,m,y,./images/BONNET.png,,,,,,,,,,,,,,,,,,,,,m,1,0.881,,,,,,,,0,22,22,11,1
,,,,,,,,,,,,,,,,,5dceb9be381b67000e061142,65,2022-02-12_17h05.47.309,lexical_decision_task_DD_L2,2021.2.3,MacIntel,52.63157895,,,,,,,,,,,0.821,0,,,,,,,,,,,,,,,,,,,,,,,,0.042857143,-0.425714286,0,0,0,,,,,,,WALRUS,C,m,y,./images/WALRUS.png,,,,,,,,,,,,,,,,,,,,,z,0,0.821,,,,,,,,0,23,23,23,1
,,,,,,,,,,,,,,,,,5dceb9be381b67000e061142,65,2022-02-12_17h05.47.309,lexical_decision_task_DD_L2,2021.2.3,MacIntel,52.63157895,,,,,,,,,,,0.801,1,,,,,,,,,,,,,,,,,,,,,,,,0.042857143,-0.425714286,0,0,0,,,,,,,PURSE,C,m,y,./images/PURSE.png,,,,,,,,,,,,,,,,,,,,,m,1,0.801,,,,,,,,0,24,24,62,1
,,,,,,,,,,,,,,,,,5dceb9be381b67000e061142,65,2022-02-12_17h05.47.309,lexical_decision_task_DD_L2,2021.2.3,MacIntel,52.63157895,,,,,,,,,,,0.862,1,,,,,,,,,,,,,,,,,,,,,,,,0.042857143,-0.425714286,0,0,0,,,,,,,BARREL,C,m,y,./images/BARREL.png,,,,,,,,,,,,,,,,,,,,,m,1,0.862,,,,,,,,0,25,25,32,1
,,,,,,,,,,,,,,,,,5dceb9be381b67000e061142,65,2022-02-12_17h05.47.309,lexical_decision_task_DD_L2,2021.2.3,MacIntel,52.63157895,,,,,,,,,,,0.916,1,,,,,,,,,,,,,,,,,,,,,,,,0.042857143,-0.425714286,0,0,0,,,,,,,THROAT,HB,m,y,./images/THROATHB.png,,,,,,,,,,,,,,,,,,,,,m,1,0.916,,,,,,,,0,26,26,36,1
,,,,,,,,,,,,,,,,,5dceb9be381b67000e061142,65,2022-02-12_17h05.47.309,lexical_decision_task_DD_L2,2021.2.3,MacIntel,52.63157895,,,,,,,,,,,0.667,1,,,,,,,,,,,,,,,,,,,,,,,,0.042857143,-0.425714286,0,0,0,,,,,,,CANDLE,LB,m,y,./images/CANDLELB.png,,,,,,,,,,,,,,,,,,,,,m,1,0.667,,,,,,,,0,27,27,61,1
,,,,,,,,,,,,,,,,,5dceb9be381b67000e061142,65,2022-02-12_17h05.47.309,lexical_decision_task_DD_L2,2021.2.3,MacIntel,52.63157895,,,,,,,,,,,0.673,1,,,,,,,,,,,,,,,,,,,,,,,,0.042857143,-0.425714286,0,0,0,,,,,,,URINE,LB,m,y,./images/URINELB.png,,,,,,,,,,,,,,,,,,,,,m,1,0.673,,,,,,,,0,28,28,70,1
,,,,,,,,,,,,,,,,,5dceb9be381b67000e061142,65,2022-02-12_17h05.47.309,lexical_decision_task_DD_L2,2021.2.3,MacIntel,52.63157895,,,,,,,,,,,0.723,1,,,,,,,,,,,,,,,,,,,,,,,,0.042857143,-0.425714286,0,0,0,,,,,,,MALLET,C,m,y,./images/MALLET.png,,,,,,,,,,,,,,,,,,,,,m,1,0.723,,,,,,,,0,29,29,50,1
,,,,,,,,,,,,,,,,,5dceb9be381b67000e061142,65,2022-02-12_17h05.47.309,lexical_decision_task_DD_L2,2021.2.3,MacIntel,52.63157895,,,,,,,,,,,0.783,1,,,,,,,,,,,,,,,,,,,,,,,,0.042857143,-0.425714286,0,0,0,,,,,,,NOOSE,HB,m,y,./images/NOOSEHB.png,,,,,,,,,,,,,,,,,,,,,m,1,0.783,,,,,,,,0,30,30,72,1
,,,,,,,,,,,,,,,,,5dceb9be381b67000e061142,65,2022-02-12_17h05.47.309,lexical_decision_task_DD_L2,2021.2.3,MacIntel,52.63157895,,,,,,,,,,,0.849,1,,,,,,,,,,,,,,,,,,,,,,,,0.042857143,-0.425714286,0,0,0,,,,,,,BISHOP,LB,z,y,./images/BISHOPLB.png,,,,,,,,,,,,,,,,,,,,,z,1,0.849,,,,,,,,0,31,31,133,1
,,,,,,,,,,,,,,,,,5dceb9be381b67000e061142,65,2022-02-12_17h05.47.309,lexical_decision_task_DD_L2,2021.2.3,MacIntel,52.63157895,,,,,,,,,,,1.096,1,,,,,,,,,,,,,,,,,,,,,,,,0.042857143,-0.425714286,0,0,0,,,,,,,CLIFF,C,z,y,./images/CLIFF.png,,,,,,,,,,,,,,,,,,,,,z,1,1.096,,,,,,,,0,32,32,92,1
,,,,,,,,,,,,,,,,,5dceb9be381b67000e061142,65,2022-02-12_17h05.47.309,lexical_decision_task_DD_L2,2021.2.3,MacIntel,52.63157895,,,,,,,,,,,0.896,1,,,,,,,,,,,,,,,,,,,,,,,,0.042857143,-0.425714286,0,0,0,,,,,,,BRIDE,LB,z,y,./images/BRIDELB.png,,,,,,,,,,,,,,,,,,,,,z,1,0.896,,,,,,,,0,33,33,148,1
,,,,,,,,,,,,,,,,,5dceb9be381b67000e061142,65,2022-02-12_17h05.47.309,lexical_decision_task_DD_L2,2021.2.3,MacIntel,52.63157895,,,,,,,,,,,0.841,1,,,,,,,,,,,,,,,,,,,,,,,,0.042857143,-0.425714286,0,0,0,,,,,,,BELLY,LB,m,y,./images/BELLYLB.png,,,,,,,,,,,,,,,,,,,,,m,1,0.841,,,,,,,,0,34,34,10,1
,,,,,,,,,,,,,,,,,5dceb9be381b67000e061142,65,2022-02-12_17h05.47.309,lexical_decision_task_DD_L2,2021.2.3,MacIntel,52.63157895,,,,,,,,,,,0.735,1,,,,,,,,,,,,,,,,,,,,,,,,0.042857143,-0.425714286,0,0,0,,,,,,,KIDNEY,HB,m,y,./images/KIDNEYHB.png,,,,,,,,,,,,,,,,,,,,,m,1,0.735,,,,,,,,0,35,35,21,1
,,,,,,,,,,,,,,,,,5dceb9be381b67000e061142,65,2022-02-12_17h05.47.309,lexical_decision_task_DD_L2,2021.2.3,MacIntel,52.63157895,,,,,,,,,,,0.812,0,,,,,,,,,,,,,,,,,,,,,,,,0.042857143,-0.425714286,0,0,0,,,,,,,BABOON,LB,m,y,./images/BABOONLB.png,,,,,,,,,,,,,,,,,,,,,z,0,0.812,,,,,,,,0,36,36,58,1
,,,,,,,,,,,,,,,,,5dceb9be381b67000e061142,65,2022-02-12_17h05.47.309,lexical_decision_task_DD_L2,2021.2.3,MacIntel,52.63157895,,,,,,,,,,,0.763,1,,,,,,,,,,,,,,,,,,,,,,,,0.042857143,-0.425714286,0,0,0,,,,,,,RHINO,HB,m,y,./images/RHINOHB.png,,,,,,,,,,,,,,,,,,,,,m,1,0.763,,,,,,,,0,37,37,9,1
,,,,,,,,,,,,,,,,,5dceb9be381b67000e061142,65,2022-02-12_17h05.47.309,lexical_decision_task_DD_L2,2021.2.3,MacIntel,52.63157895,,,,,,,,,,,0.682,1,,,,,,,,,,,,,,,,,,,,,,,,0.042857143,-0.425714286,0,0,0,,,,,,,SAILOR,LB,m,y,./images/SAILORLB.png,,,,,,,,,,,,,,,,,,,,,m,1,0.682,,,,,,,,0,38,38,67,1
,,,,,,,,,,,,,,,,,5dceb9be381b67000e061142,65,2022-02-12_17h05.47.309,lexical_decision_task_DD_L2,2021.2.3,MacIntel,52.63157895,,,,,,,,,,,0.735,1,,,,,,,,,,,,,,,,,,,,,,,,0.042857143,-0.425714286,0,0,0,,,,,,,MUMMY,LB,z,y,./images/MUMMYLB.png,,,,,,,,,,,,,,,,,,,,,z,1,0.735,,,,,,,,0,39,39,130,1
,,,,,,,,,,,,,,,,,5dceb9be381b67000e061142,65,2022-02-12_17h05.47.309,lexical_decision_task_DD_L2,2021.2.3,MacIntel,52.63157895,,,,,,,,,,,0.917,1,,,,,,,,,,,,,,,,,,,,,,,,0.042857143,-0.425714286,0,0,0,,,,,,,GRAPE,LB,z,y,./images/GRAPELB.png,,,,,,,,,,,,,,,,,,,,,z,1,0.917,,,,,,,,0,40,40,100,1
,,,,,,,,,,,,,,,,,5dceb9be381b67000e061142,65,2022-02-12_17h05.47.309,lexical_decision_task_DD_L2,2021.2.3,MacIntel,52.63157895,,,,,,,,,,,1.277,0,,,,,,,,,,,,,,,,,,,,,,,,0.042857143,-0.425714286,1,0,0,,,,,,,TOMATO,HB,m,y,./images/TOMATOHB.png,break_done_button,,,,,,,,,,,,,,,,,,,,z,0,1.277,,,,,,,,0,41,41,0,1
,,,,,,,,,,,,,,,,,5dceb9be381b67000e061142,65,2022-02-12_17h05.47.309,lexical_decision_task_DD_L2,2021.2.3,MacIntel,52.63157895,,,,,,,,,,,1.045,1,,,,,,,,,,,,,,,,,,,,,,,,0.042857143,-0.425714286,0,0,0,,,,,,,SHORE,HB,m,y,./images/SHOREHB.png,,,,,,,,,,,,,,,,,,,,,m,1,1.045,,,,,,,,0,42,42,12,1
,,,,,,,,,,,,,,,,,5dceb9be381b67000e061142,65,2022-02-12_17h05.47.309,lexical_decision_task_DD_L2,2021.2.3,MacIntel,52.63157895,,,,,,,,,,,1.028,1,,,,,,,,,,,,,,,,,,,,,,,,0.042857143,-0.425714286,0,0,0,,,,,,,MAMMAL,C,z,y,./images/MAMMAL.png,,,,,,,,,,,,,,,,,,,,,z,1,1.028,,,,,,,,0,43,43,146,1
,,,,,,,,,,,,,,,,,5dceb9be381b67000e061142,65,2022-02-12_17h05.47.309,lexical_decision_task_DD_L2,2021.2.3,MacIntel,52.63157895,,,,,,,,,,,1.356,1,,,,,,,,,,,,,,,,,,,,,,,,0.042857143,-0.425714286,0,0,0,,,,,,,JAGUAR,HB,m,y,./images/JAGUARHB.png,,,,,,,,,,,,,,,,,,,,,m,1,1.356,,,,,,,,0,44,44,18,1
,,,,,,,,,,,,,,,,,5dceb9be381b67000e061142,65,2022-02-12_17h05.47.309,lexical_decision_task_DD_L2,2021.2.3,MacIntel,52.63157895,,,,,,,,,,,0.95,1,,,,,,,,,,,,,,,,,,,,,,,,0.042857143,-0.425714286,0,0,0,,,,,,,STATUE,HB,z,y,./images/STATUEHB.png,,,,,,,,,,,,,,,,,,,,,z,1,0.95,,,,,,,,0,45,45,150,1
,,,,,,,,,,,,,,,,,5dceb9be381b67000e061142,65,2022-02-12_17h05.47.309,lexical_decision_task_DD_L2,2021.2.3,MacIntel,52.63157895,,,,,,,,,,,0.852,1,,,,,,,,,,,,,,,,,,,,,,,,0.042857143,-0.425714286,0,0,0,,,,,,,GLOVE,LB,z,y,./images/GLOVELB.png,,,,,,,,,,,,,,,,,,,,,z,1,0.852,,,,,,,,0,46,46,157,1
,,,,,,,,,,,,,,,,,5dceb9be381b67000e061142,65,2022-02-12_17h05.47.309,lexical_decision_task_DD_L2,2021.2.3,MacIntel,52.63157895,,,,,,,,,,,1.204,1,,,,,,,,,,,,,,,,,,,,,,,,0.042857143,-0.425714286,0,0,0,,,,,,,CANDY,HB,z,y,./images/CANDYHB.png,,,,,,,,,,,,,,,,,,,,,z,1,1.204,,,,,,,,0,47,47,123,1
,,,,,,,,,,,,,,,,,5dceb9be381b67000e061142,65,2022-02-12_17h05.47.309,lexical_decision_task_DD_L2,2021.2.3,MacIntel,52.63157895,,,,,,,,,,,1.012,0,,,,,,,,,,,,,,,,,,,,,,,,0.042857143,-0.425714286,0,0,0,,,,,,,STREAM,C,z,y,./images/STREAM.png,,,,,,,,,,,,,,,,,,,,,m,0,1.012,,,,,,,,0,48,48,125,1
,,,,,,,,,,,,,,,,,5dceb9be381b67000e061142,65,2022-02-12_17h05.47.309,lexical_decision_task_DD_L2,2021.2.3,MacIntel,52.63157895,,,,,,,,,,,1.116,0,,,,,,,,,,,,,,,,,,,,,,,,0.042857143,-0.425714286,0,0,0,,,,,,,BUBBLE,C,z,y,./images/BUBBLE.png,,,,,,,,,,,,,,,,,,,,,m,0,1.116,,,,,,,,0,49,49,155,1
,,,,,,,,,,,,,,,,,5dceb9be381b67000e061142,65,2022-02-12_17h05.47.309,lexical_decision_task_DD_L2,2021.2.3,MacIntel,52.63157895,,,,,,,,,,,0.825,1,,,,,,,,,,,,,,,,,,,,,,,,0.042857143,-0.425714286,0,0,0,,,,,,,CRUST,LB,m,y,./images/CRUSTLB.png,,,,,,,,,,,,,,,,,,,,,m,1,0.825,,,,,,,,0,50,50,79,1
,,,,,,,,,,,,,,,,,5dceb9be381b67000e061142,65,2022-02-12_17h05.47.309,lexical_decision_task_DD_L2,2021.2.3,MacIntel,52.63157895,,,,,,,,,,,1.212,0,,,,,,,,,,,,,,,,,,,,,,,,0.042857143,-0.425714286,0,0,0,,,,,,,SQUARE,HB,m,y,./images/SQUAREHB.png,,,,,,,,,,,,,,,,,,,,,z,0,1.212,,,,,,,,0,51,51,6,1
,,,,,,,,,,,,,,,,,5dceb9be381b67000e061142,65,2022-02-12_17h05.47.309,lexical_decision_task_DD_L2,2021.2.3,MacIntel,52.63157895,,,,,,,,,,,0.954,1,,,,,,,,,,,,,,,,,,,,,,,,0.042857143,-0.425714286,0,0,0,,,,,,,COOKER,HB,m,y,./images/COOKERHB.png,,,,,,,,,,,,,,,,,,,,,m,1,0.954,,,,,,,,0,52,52,69,1
,,,,,,,,,,,,,,,,,5dceb9be381b67000e061142,65,2022-02-12_17h05.47.309,lexical_decision_task_DD_L2,2021.2.3,MacIntel,52.63157895,,,,,,,,,,,0.831,1,,,,,,,,,,,,,,,,,,,,,,,,0.042857143,-0.425714286,0,0,0,,,,,,,MEDAL,C,z,y,./images/MEDAL.png,,,,,,,,,,,,,,,,,,,,,z,1,0.831,,,,,,,,0,53,53,95,1
,,,,,,,,,,,,,,,,,5dceb9be381b67000e061142,65,2022-02-12_17h05.47.309,lexical_decision_task_DD_L2,2021.2.3,MacIntel,52.63157895,,,,,,,,,,,1.146,1,,,,,,,,,,,,,,,,,,,,,,,,0.042857143,-0.425714286,0,0,0,,,,,,,BUTTER,HB,z,y,./images/BUTTERHB.png,,,,,,,,,,,,,,,,,,,,,z,1,1.146,,,,,,,,0,54,54,111,1
,,,,,,,,,,,,,,,,,5dceb9be381b67000e061142,65,2022-02-12_17h05.47.309,lexical_decision_task_DD_L2,2021.2.3,MacIntel,52.63157895,,,,,,,,,,,0.691,1,,,,,,,,,,,,,,,,,,,,,,,,0.042857143,-0.425714286,0,0,0,,,,,,,MOSQUE,LB,m,y,./images/MOSQUELB.png,,,,,,,,,,,,,,,,,,,,,m,1,0.691,,,,,,,,0,55,55,43,1
,,,,,,,,,,,,,,,,,5dceb9be381b67000e061142,65,2022-02-12_17h05.47.309,lexical_decision_task_DD_L2,2021.2.3,MacIntel,52.63157895,,,,,,,,,,,0.881,1,,,,,,,,,,,,,,,,,,,,,,,,0.042857143,-0.425714286,0,0,0,,,,,,,TOWEL,LB,z,y,./images/TOWELLB.png,,,,,,,,,,,,,,,,,,,,,z,1,0.881,,,,,,,,0,56,56,85,1
,,,,,,,,,,,,,,,,,5dceb9be381b67000e061142,65,2022-02-12_17h05.47.309,lexical_decision_task_DD_L2,2021.2.3,MacIntel,52.63157895,,,,,,,,,,,0.814,1,,,,,,,,,,,,,,,,,,,,,,,,0.042857143,-0.425714286,0,0,0,,,,,,,MOOSE,HB,m,y,./images/MOOSEHB.png,,,,,,,,,,,,,,,,,,,,,m,1,0.814,,,,,,,,0,57,57,57,1
,,,,,,,,,,,,,,,,,5dceb9be381b67000e061142,65,2022-02-12_17h05.47.309,lexical_decision_task_DD_L2,2021.2.3,MacIntel,52.63157895,,,,,,,,,,,0.883,1,,,,,,,,,,,,,,,,,,,,,,,,0.042857143,-0.425714286,0,0,0,,,,,,,TIGER,LB,z,y,./images/TIGERLB.png,,,,,,,,,,,,,,,,,,,,,z,1,0.883,,,,,,,,0,58,58,121,1
,,,,,,,,,,,,,,,,,5dceb9be381b67000e061142,65,2022-02-12_17h05.47.309,lexical_decision_task_DD_L2,2021.2.3,MacIntel,52.63157895,,,,,,,,,,,0.764,1,,,,,,,,,,,,,,,,,,,,,,,,0.042857143,-0.425714286,0,0,0,,,,,,,CLOWN,LB,z,y,./images/CLOWNLB.png,,,,,,,,,,,,,,,,,,,,,z,1,0.764,,,,,,,,0,59,59,106,1
,,,,,,,,,,,,,,,,,5dceb9be381b67000e061142,65,2022-02-12_17h05.47.309,lexical_decision_task_DD_L2,2021.2.3,MacIntel,52.63157895,,,,,,,,,,,0.758,1,,,,,,,,,,,,,,,,,,,,,,,,0.042857143,-0.425714286,0,0,0,,,,,,,CRATER,HB,z,y,./images/CRATERHB.png,,,,,,,,,,,,,,,,,,,,,z,1,0.758,,,,,,,,0,60,60,87,1
,,,,,,,,,,,,,,,,,5dceb9be381b67000e061142,65,2022-02-12_17h05.47.309,lexical_decision_task_DD_L2,2021.2.3,MacIntel,52.63157895,,,,,,,,,,,1.048,1,,,,,,,,,,,,,,,,,,,,,,,,0.042857143,-0.425714286,0,0,0,,,,,,,CHAIN,HB,z,y,./images/CHAINHB.png,,,,,,,,,,,,,,,,,,,,,z,1,1.048,,,,,,,,0,61,61,126,1
,,,,,,,,,,,,,,,,,5dceb9be381b67000e061142,65,2022-02-12_17h05.47.309,lexical_decision_task_DD_L2,2021.2.3,MacIntel,52.63157895,,,,,,,,,,,1.225,1,,,,,,,,,,,,,,,,,,,,,,,,0.042857143,-0.425714286,0,0,0,,,,,,,MONKEY,HB,z,y,./images/MONKEYHB.png,,,,,,,,,,,,,,,,,,,,,z,1,1.225,,,,,,,,0,62,62,129,1
,,,,,,,,,,,,,,,,,5dceb9be381b67000e061142,65,2022-02-12_17h05.47.309,lexical_decision_task_DD_L2,2021.2.3,MacIntel,52.63157895,,,,,,,,,,,1.018,1,,,,,,,,,,,,,,,,,,,,,,,,0.042857143,-0.425714286,0,0,0,,,,,,,JELLY,LB,m,y,./images/JELLYLB.png,,,,,,,,,,,,,,,,,,,,,m,1,1.018,,,,,,,,0,63,63,64,1
,,,,,,,,,,,,,,,,,5dceb9be381b67000e061142,65,2022-02-12_17h05.47.309,lexical_decision_task_DD_L2,2021.2.3,MacIntel,52.63157895,,,,,,,,,,,0.739,1,,,,,,,,,,,,,,,,,,,,,,,,0.042857143,-0.425714286,0,0,0,,,,,,,BERRY,C,m,y,./images/BERRY.png,,,,,,,,,,,,,,,,,,,,,m,1,0.739,,,,,,,,0,64,64,47,1
,,,,,,,,,,,,,,,,,5dceb9be381b67000e061142,65,2022-02-12_17h05.47.309,lexical_decision_task_DD_L2,2021.2.3,MacIntel,52.63157895,,,,,,,,,,,0.678,1,,,,,,,,,,,,,,,,,,,,,,,,0.042857143,-0.425714286,0,0,0,,,,,,,PEARL,LB,m,y,./images/PEARLLB.png,,,,,,,,,,,,,,,,,,,,,m,1,0.678,,,,,,,,0,65,65,46,1
,,,,,,,,,,,,,,,,,5dceb9be381b67000e061142,65,2022-02-12_17h05.47.309,lexical_decision_task_DD_L2,2021.2.3,MacIntel,52.63157895,,,,,,,,,,,0.68,0,,,,,,,,,,,,,,,,,,,,,,,,0.042857143,-0.425714286,0,0,0,,,,,,,SNAKE,LB,z,y,./images/SNAKELB.png,,,,,,,,,,,,,,,,,,,,,m,0,0.68,,,,,,,,0,66,66,124,1
,,,,,,,,,,,,,,,,,5dceb9be381b67000e061142,65,2022-02-12_17h05.47.309,lexical_decision_task_DD_L2,2021.2.3,MacIntel,52.63157895,,,,,,,,,,,0.958,1,,,,,,,,,,,,,,,,,,,,,,,,0.042857143,-0.425714286,0,0,0,,,,,,,BOXER,LB,z,y,./images/BOXERLB.png,,,,,,,,,,,,,,,,,,,,,z,1,0.958,,,,,,,,0,67,67,88,1
,,,,,,,,,,,,,,,,,5dceb9be381b67000e061142,65,2022-02-12_17h05.47.309,lexical_decision_task_DD_L2,2021.2.3,MacIntel,52.63157895,,,,,,,,,,,0.966,1,,,,,,,,,,,,,,,,,,,,,,,,0.042857143,-0.425714286,0,0,0,,,,,,,CARPET,C,m,y,./images/CARPET.png,,,,,,,,,,,,,,,,,,,,,m,1,0.966,,,,,,,,0,68,68,53,1
,,,,,,,,,,,,,,,,,5dceb9be381b67000e061142,65,2022-02-12_17h05.47.309,lexical_decision_task_DD_L2,2021.2.3,MacIntel,52.63157895,,,,,,,,,,,0.932,1,,,,,,,,,,,,,,,,,,,,,,,,0.042857143,-0.425714286,0,0,0,,,,,,,POKER,LB,z,y,./images/POKERLB.png,,,,,,,,,,,,,,,,,,,,,z,1,0.932,,,,,,,,0,69,69,151,1
,,,,,,,,,,,,,,,,,5dceb9be381b67000e061142,65,2022-02-12_17h05.47.309,lexical_decision_task_DD_L2,2021.2.3,MacIntel,52.63157895,,,,,,,,,,,1.098,0,,,,,,,,,,,,,,,,,,,,,,,,0.042857143,-0.425714286,0,0,0,,,,,,,ATTIC,HB,m,y,./images/ATTICHB.png,,,,,,,,,,,,,,,,,,,,,z,0,1.098,,,,,,,,0,70,70,27,1
,,,,,,,,,,,,,,,,,5dceb9be381b67000e061142,65,2022-02-12_17h05.47.309,lexical_decision_task_DD_L2,2021.2.3,MacIntel,52.63157895,,,,,,,,,,,1.231,0,,,,,,,,,,,,,,,,,,,,,,,,0.042857143,-0.425714286,0,0,0,,,,,,,STOVE,C,z,y,./images/STOVE.png,,,,,,,,,,,,,,,,,,,,,m,0,1.231,,,,,,,,0,71,71,86,1
,,,,,,,,,,,,,,,,,5dceb9be381b67000e061142,65,2022-02-12_17h05.47.309,lexical_decision_task_DD_L2,2021.2.3,MacIntel,52.63157895,,,,,,,,,,,0.995,1,,,,,,,,,,,,,,,,,,,,,,,,0.042857143,-0.425714286,0,0,0,,,,,,,SAUCE,HB,z,y,./images/SAUCEHB.png,,,,,,,,,,,,,,,,,,,,,z,1,0.995,,,,,,,,0,72,72,135,1
,,,,,,,,,,,,,,,,,5dceb9be381b67000e061142,65,2022-02-12_17h05.47.309,lexical_decision_task_DD_L2,2021.2.3,MacIntel,52.63157895,,,,,,,,,,,1.084,0,,,,,,,,,,,,,,,,,,,,,,,,0.042857143,-0.425714286,0,0,0,,,,,,,PENCE,LB,m,y,./images/PENCELB.png,,,,,,,,,,,,,,,,,,,,,z,0,1.084,,,,,,,,0,73,73,16,1
,,,,,,,,,,,,,,,,,5dceb9be381b67000e061142,65,2022-02-12_17h05.47.309,lexical_decision_task_DD_L2,2021.2.3,MacIntel,52.63157895,,,,,,,,,,,1.34,0,,,,,,,,,,,,,,,,,,,,,,,,0.042857143,-0.425714286,0,0,0,,,,,,,HOCKEY,C,z,y,./images/HOCKEY.png,,,,,,,,,,,,,,,,,,,,,m,0,1.34,,,,,,,,0,74,74,116,1
,,,,,,,,,,,,,,,,,5dceb9be381b67000e061142,65,2022-02-12_17h05.47.309,lexical_decision_task_DD_L2,2021.2.3,MacIntel,52.63157895,,,,,,,,,,,1.083,1,,,,,,,,,,,,,,,,,,,,,,,,0.042857143,-0.425714286,0,0,0,,,,,,,SMOKER,C,m,y,./images/SMOKER.png,,,,,,,,,,,,,,,,,,,,,m,1,1.083,,,,,,,,0,75,75,26,1
,,,,,,,,,,,,,,,,,5dceb9be381b67000e061142,65,2022-02-12_17h05.47.309,lexical_decision_task_DD_L2,2021.2.3,MacIntel,52.63157895,,,,,,,,,,,0.844,1,,,,,,,,,,,,,,,,,,,,,,,,0.042857143,-0.425714286,0,0,0,,,,,,,QUILL,LB,m,y,./images/QUILLLB.png,,,,,,,,,,,,,,,,,,,,,m,1,0.844,,,,,,,,0,76,76,31,1
,,,,,,,,,,,,,,,,,5dceb9be381b67000e061142,65,2022-02-12_17h05.47.309,lexical_decision_task_DD_L2,2021.2.3,MacIntel,52.63157895,,,,,,,,,,,0.962,1,,,,,,,,,,,,,,,,,,,,,,,,0.042857143,-0.425714286,0,0,0,,,,,,,PILOT,C,z,y,./images/PILOT.png,,,,,,,,,,,,,,,,,,,,,z,1,0.962,,,,,,,,0,77,77,134,1
,,,,,,,,,,,,,,,,,5dceb9be381b67000e061142,65,2022-02-12_17h05.47.309,lexical_decision_task_DD_L2,2021.2.3,MacIntel,52.63157895,,,,,,,,,,,1.024,1,,,,,,,,,,,,,,,,,,,,,,,,0.042857143,-0.425714286,0,0,0,,,,,,,PICKLE,C,m,y,./images/PICKLE.png,,,,,,,,,,,,,,,,,,,,,m,1,1.024,,,,,,,,0,78,78,14,1
,,,,,,,,,,,,,,,,,5dceb9be381b67000e061142,65,2022-02-12_17h05.47.309,lexical_decision_task_DD_L2,2021.2.3,MacIntel,52.63157895,,,,,,,,,,,0.664,1,,,,,,,,,,,,,,,,,,,,,,,,0.042857143,-0.425714286,0,0,0,,,,,,,ONION,HB,m,y,./images/ONIONHB.png,,,,,,,,,,,,,,,,,,,,,m,1,0.664,,,,,,,,0,79,79,51,1
,,,,,,,,,,,,,,,,,5dceb9be381b67000e061142,65,2022-02-12_17h05.47.309,lexical_decision_task_DD_L2,2021.2.3,MacIntel,52.63157895,,,,,,,,,,,0.773,0,,,,,,,,,,,,,,,,,,,,,,,,0.042857143,-0.425714286,0,0,0,,,,,,,SNACK,LB,m,y,./images/SNACKLB.png,,,,,,,,,,,,,,,,,,,,,z,0,0.773,,,,,,,,0,80,80,73,1
,,,,,,,,,,,,,,,,,5dceb9be381b67000e061142,65,2022-02-12_17h05.47.309,lexical_decision_task_DD_L2,2021.2.3,MacIntel,52.63157895,,,,,,,,,,,0.72,1,,,,,,,,,,,,,,,,,,,,,,,,0.042857143,-0.425714286,0,0,0,,,,,,,FARMER,C,m,y,./images/FARMER.png,,,,,,,,,,,,,,,,,,,,,m,1,0.72,,,,,,,,0,81,81,65,1
,,,,,,,,,,,,,,,,,5dceb9be381b67000e061142,65,2022-02-12_17h05.47.309,lexical_decision_task_DD_L2,2021.2.3,MacIntel,52.63157895,,,,,,,,,,,0.769,0,,,,,,,,,,,,,,,,,,,,,,,,0.042857143,-0.425714286,0,0,0,,,,,,,CEMENT,C,m,y,./images/CEMENT.png,,,,,,,,,,,,,,,,,,,,,z,0,0.769,,,,,,,,0,82,82,74,1
,,,,,,,,,,,,,,,,,5dceb9be381b67000e061142,65,2022-02-12_17h05.47.309,lexical_decision_task_DD_L2,2021.2.3,MacIntel,52.63157895,,,,,,,,,,,1.547,0,,,,,,,,,,,,,,,,,,,,,,,,0.042857143,-0.425714286,1,0,0,,,,,,,CHALK,LB,z,y,./images/CHALKLB.png,break_done_button,,,,,,,,,,,,,,,,,,,,m,0,1.547,,,,,,,,0,83,83,109,1
,,,,,,,,,,,,,,,,,5dceb9be381b67000e061142,65,2022-02-12_17h05.47.309,lexical_decision_task_DD_L2,2021.2.3,MacIntel,52.63157895,,,,,,,,,,,1.079,1,,,,,,,,,,,,,,,,,,,,,,,,0.042857143,-0.425714286,0,0,0,,,,,,,MUFFIN,LB,m,y,./images/MUFFINLB.png,,,,,,,,,,,,,,,,,,,,,m,1,1.079,,,,,,,,0,84,84,55,1
,,,,,,,,,,,,,,,,,5dceb9be381b67000e061142,65,2022-02-12_17h05.47.309,lexical_decision_task_DD_L2,2021.2.3,MacIntel,52.63157895,,,,,,,,,,,1.02,1,,,,,,,,,,,,,,,,,,,,,,,,0.042857143,-0.425714286,0,0,0,,,,,,,BLOKE,HB,z,y,./images/BLOKEHB.png,,,,,,,,,,,,,,,,,,,,,z,1,1.02,,,,,,,,0,85,85,96,1
,,,,,,,,,,,,,,,,,5dceb9be381b67000e061142,65,2022-02-12_17h05.47.309,lexical_decision_task_DD_L2,2021.2.3,MacIntel,52.63157895,,,,,,,,,,,0.914,1,,,,,,,,,,,,,,,,,,,,,,,,0.042857143,-0.425714286,0,0,0,,,,,,,MOTOR,LB,m,y,./images/MOTORLB.png,,,,,,,,,,,,,,,,,,,,,m,1,0.914,,,,,,,,0,86,86,13,1
,,,,,,,,,,,,,,,,,5dceb9be381b67000e061142,65,2022-02-12_17h05.47.309,lexical_decision_task_DD_L2,2021.2.3,MacIntel,52.63157895,,,,,,,,,,,0.868,1,,,,,,,,,,,,,,,,,,,,,,,,0.042857143,-0.425714286,0,0,0,,,,,,,PARCEL,HB,z,y,./images/PARCELHB.png,,,,,,,,,,,,,,,,,,,,,z,1,0.868,,,,,,,,0,87,87,102,1
,,,,,,,,,,,,,,,,,5dceb9be381b67000e061142,65,2022-02-12_17h05.47.309,lexical_decision_task_DD_L2,2021.2.3,MacIntel,52.63157895,,,,,,,,,,,0.717,1,,,,,,,,,,,,,,,,,,,,,,,,0.042857143,-0.425714286,0,0,0,,,,,,,MUSCLE,LB,m,y,./images/MUSCLELB.png,,,,,,,,,,,,,,,,,,,,,m,1,0.717,,,,,,,,0,88,88,4,1
,,,,,,,,,,,,,,,,,5dceb9be381b67000e061142,65,2022-02-12_17h05.47.309,lexical_decision_task_DD_L2,2021.2.3,MacIntel,52.63157895,,,,,,,,,,,0.745,1,,,,,,,,,,,,,,,,,,,,,,,,0.042857143,-0.425714286,0,0,0,,,,,,,BROOM,HB,z,y,./images/BROOMHB.png,,,,,,,,,,,,,,,,,,,,,z,1,0.745,,,,,,,,0,89,89,162,1
,,,,,,,,,,,,,,,,,5dceb9be381b67000e061142,65,2022-02-12_17h05.47.309,lexical_decision_task_DD_L2,2021.2.3,MacIntel,52.63157895,,,,,,,,,,,1.025,0,,,,,,,,,,,,,,,,,,,,,,,,0.042857143,-0.425714286,0,0,0,,,,,,,LITTER,HB,m,y,./images/LITTERHB.png,,,,,,,,,,,,,,,,,,,,,z,0,1.025,,,,,,,,0,90,90,78,1
,,,,,,,,,,,,,,,,,5dceb9be381b67000e061142,65,2022-02-12_17h05.47.309,lexical_decision_task_DD_L2,2021.2.3,MacIntel,52.63157895,,,,,,,,,,,0.999,0,,,,,,,,,,,,,,,,,,,,,,,,0.042857143,-0.425714286,0,0,0,,,,,,,BANNER,LB,m,y,./images/BANNERLB.png,,,,,,,,,,,,,,,,,,,,,z,0,0.999,,,,,,,,0,91,91,52,1
,,,,,,,,,,,,,,,,,5dceb9be381b67000e061142,65,2022-02-12_17h05.47.309,lexical_decision_task_DD_L2,2021.2.3,MacIntel,52.63157895,,,,,,,,,,,0.831,1,,,,,,,,,,,,,,,,,,,,,,,,0.042857143,-0.425714286,0,0,0,,,,,,,BOILER,HB,z,y,./images/BOILERHB.png,,,,,,,,,,,,,,,,,,,,,z,1,0.831,,,,,,,,0,92,92,120,1
,,,,,,,,,,,,,,,,,5dceb9be381b67000e061142,65,2022-02-12_17h05.47.309,lexical_decision_task_DD_L2,2021.2.3,MacIntel,52.63157895,,,,,,,,,,,0.756,1,,,,,,,,,,,,,,,,,,,,,,,,0.042857143,-0.425714286,0,0,0,,,,,,,PASTA,C,m,y,./images/PASTA.png,,,,,,,,,,,,,,,,,,,,,m,1,0.756,,,,,,,,0,93,93,5,1
,,,,,,,,,,,,,,,,,5dceb9be381b67000e061142,65,2022-02-12_17h05.47.309,lexical_decision_task_DD_L2,2021.2.3,MacIntel,52.63157895,,,,,,,,,,,0.736,1,,,,,,,,,,,,,,,,,,,,,,,,0.042857143,-0.425714286,0,0,0,,,,,,,SPORT,HB,m,y,./images/SPORTHB.png,,,,,,,,,,,,,,,,,,,,,m,1,0.736,,,,,,,,0,94,94,48,1
,,,,,,,,,,,,,,,,,5dceb9be381b67000e061142,65,2022-02-12_17h05.47.309,lexical_decision_task_DD_L2,2021.2.3,MacIntel,52.63157895,,,,,,,,,,,0.802,1,,,,,,,,,,,,,,,,,,,,,,,,0.042857143,-0.425714286,0,0,0,,,,,,,TRIPOD,HB,m,y,./images/TRIPODHB.png,,,,,,,,,,,,,,,,,,,,,m,1,0.802,,,,,,,,0,95,95,54,1
,,,,,,,,,,,,,,,,,5dceb9be381b67000e061142,65,2022-02-12_17h05.47.309,lexical_decision_task_DD_L2,2021.2.3,MacIntel,52.63157895,,,,,,,,,,,0.768,1,,,,,,,,,,,,,,,,,,,,,,,,0.042857143,-0.425714286,0,0,0,,,,,,,BRUSH,C,z,y,./images/BRUSH.png,,,,,,,,,,,,,,,,,,,,,z,1,0.768,,,,,,,,0,96,96,143,1
,,,,,,,,,,,,,,,,,5dceb9be381b67000e061142,65,2022-02-12_17h05.47.309,lexical_decision_task_DD_L2,2021.2.3,MacIntel,52.63157895,,,,,,,,,,,0.992,1,,,,,,,,,,,,,,,,,,,,,,,,0.042857143,-0.425714286,0,0,0,,,,,,,DANCER,HB,z,y,./images/DANCERHB.png,,,,,,,,,,,,,,,,,,,,,z,1,0.992,,,,,,,,0,97,97,105,1
,,,,,,,,,,,,,,,,,5dceb9be381b67000e061142,65,2022-02-12_17h05.47.309,lexical_decision_task_DD_L2,2021.2.3,MacIntel,52.63157895,,,,,,,,,,,1.012,1,,,,,,,,,,,,,,,,,,,,,,,,0.042857143,-0.425714286,0,0,0,,,,,,,TWINS,HB,m,y,./images/TWINSHB.png,,,,,,,,,,,,,,,,,,,,,m,1,1.012,,,,,,,,0,98,98,60,1
,,,,,,,,,,,,,,,,,5dceb9be381b67000e061142,65,2022-02-12_17h05.47.309,lexical_decision_task_DD_L2,2021.2.3,MacIntel,52.63157895,,,,,,,,,,,0.756,1,,,,,,,,,,,,,,,,,,,,,,,,0.042857143,-0.425714286,0,0,0,,,,,,,JUNGLE,C,m,y,./images/JUNGLE.png,,,,,,,,,,,,,,,,,,,,,m,1,0.756,,,,,,,,0,99,99,83,1
,,,,,,,,,,,,,,,,,5dceb9be381b67000e061142,65,2022-02-12_17h05.47.309,lexical_decision_task_DD_L2,2021.2.3,MacIntel,52.63157895,,,,,,,,,,,0.977,1,,,,,,,,,,,,,,,,,,,,,,,,0.042857143,-0.425714286,0,0,0,,,,,,,MIRROR,HB,m,y,./images/MIRRORHB.png,,,,,,,,,,,,,,,,,,,,,m,1,0.977,,,,,,,,0,100,100,63,1
,,,,,,,,,,,,,,,,,5dceb9be381b67000e061142,65,2022-02-12_17h05.47.309,lexical_decision_task_DD_L2,2021.2.3,MacIntel,52.63157895,,,,,,,,,,,0.961,0,,,,,,,,,,,,,,,,,,,,,,,,0.042857143,-0.425714286,0,0,0,,,,,,,CANYON,LB,m,y,./images/CANYONLB.png,,,,,,,,,,,,,,,,,,,,,z,0,0.961,,,,,,,,0,101,101,34,1
,,,,,,,,,,,,,,,,,5dceb9be381b67000e061142,65,2022-02-12_17h05.47.309,lexical_decision_task_DD_L2,2021.2.3,MacIntel,52.63157895,,,,,,,,,,,1.039,0,,,,,,,,,,,,,,,,,,,,,,,,0.042857143,-0.425714286,0,0,0,,,,,,,SPINE,C,z,y,./images/SPINE.png,,,,,,,,,,,,,,,,,,,,,m,0,1.039,,,,,,,,0,102,102,149,1
,,,,,,,,,,,,,,,,,5dceb9be381b67000e061142,65,2022-02-12_17h05.47.309,lexical_decision_task_DD_L2,2021.2.3,MacIntel,52.63157895,,,,,,,,,,,1.144,1,,,,,,,,,,,,,,,,,,,,,,,,0.042857143,-0.425714286,0,0,0,,,,,,,KITTEN,HB,m,y,./images/KITTENHB.png,,,,,,,,,,,,,,,,,,,,,m,1,1.144,,,,,,,,0,103,103,45,1
,,,,,,,,,,,,,,,,,5dceb9be381b67000e061142,65,2022-02-12_17h05.47.309,lexical_decision_task_DD_L2,2021.2.3,MacIntel,52.63157895,,,,,,,,,,,1.121,0,,,,,,,,,,,,,,,,,,,,,,,,0.042857143,-0.425714286,0,0,0,,,,,,,FINGER,HB,m,y,./images/FINGERHB.png,,,,,,,,,,,,,,,,,,,,,z,0,1.121,,,,,,,,0,104,104,3,1
,,,,,,,,,,,,,,,,,5dceb9be381b67000e061142,65,2022-02-12_17h05.47.309,lexical_decision_task_DD_L2,2021.2.3,MacIntel,52.63157895,,,,,,,,,,,1.027,0,,,,,,,,,,,,,,,,,,,,,,,,0.042857143,-0.425714286,0,0,0,,,,,,,DESERT,LB,z,y,./images/DESERTLB.png,,,,,,,,,,,,,,,,,,,,,m,0,1.027,,,,,,,,0,105,105,136,1
,,,,,,,,,,,,,,,,,5dceb9be381b67000e061142,65,2022-02-12_17h05.47.309,lexical_decision_task_DD_L2,2021.2.3,MacIntel,52.63157895,,,,,,,,,,,0.927,0,,,,,,,,,,,,,,,,,,,,,,,,0.042857143,-0.425714286,0,0,0,,,,,,,BANANA,LB,z,y,./images/BANANALB.png,,,,,,,,,,,,,,,,,,,,,m,0,0.927,,,,,,,,0,106,106,154,1
,,,,,,,,,,,,,,,,,5dceb9be381b67000e061142,65,2022-02-12_17h05.47.309,lexical_decision_task_DD_L2,2021.2.3,MacIntel,52.63157895,,,,,,,,,,,1.139,1,,,,,,,,,,,,,,,,,,,,,,,,0.042857143,-0.425714286,0,0,0,,,,,,,WAGON,LB,z,y,./images/WAGONLB.png,,,,,,,,,,,,,,,,,,,,,z,1,1.139,,,,,,,,0,107,107,91,1
,,,,,,,,,,,,,,,,,5dceb9be381b67000e061142,65,2022-02-12_17h05.47.309,lexical_decision_task_DD_L2,2021.2.3,MacIntel,52.63157895,,,,,,,,,,,1.189,1,,,,,,,,,,,,,,,,,,,,,,,,0.042857143,-0.425714286,0,0,0,,,,,,,GARDEN,LB,z,y,./images/GARDENLB.png,,,,,,,,,,,,,,,,,,,,,z,1,1.189,,,,,,,,0,108,108,94,1
,,,,,,,,,,,,,,,,,5dceb9be381b67000e061142,65,2022-02-12_17h05.47.309,lexical_decision_task_DD_L2,2021.2.3,MacIntel,52.63157895,,,,,,,,,,,0.749,1,,,,,,,,,,,,,,,,,,,,,,,,0.042857143,-0.425714286,0,0,0,,,,,,,SCREW,HB,m,y,./images/SCREWHB.png,,,,,,,,,,,,,,,,,,,,,m,1,0.749,,,,,,,,0,109,109,24,1
,,,,,,,,,,,,,,,,,5dceb9be381b67000e061142,65,2022-02-12_17h05.47.309,lexical_decision_task_DD_L2,2021.2.3,MacIntel,52.63157895,,,,,,,,,,,0.856,1,,,,,,,,,,,,,,,,,,,,,,,,0.042857143,-0.425714286,0,0,0,,,,,,,SWING,LB,m,y,./images/SWINGLB.png,,,,,,,,,,,,,,,,,,,,,m,1,0.856,,,,,,,,0,110,110,40,1
,,,,,,,,,,,,,,,,,5dceb9be381b67000e061142,65,2022-02-12_17h05.47.309,lexical_decision_task_DD_L2,2021.2.3,MacIntel,52.63157895,,,,,,,,,,,1.012,1,,,,,,,,,,,,,,,,,,,,,,,,0.042857143,-0.425714286,0,0,0,,,,,,,BUNNY,LB,z,y,./images/BUNNYLB.png,,,,,,,,,,,,,,,,,,,,,z,1,1.012,,,,,,,,0,111,111,97,1
,,,,,,,,,,,,,,,,,5dceb9be381b67000e061142,65,2022-02-12_17h05.47.309,lexical_decision_task_DD_L2,2021.2.3,MacIntel,52.63157895,,,,,,,,,,,0.717,1,,,,,,,,,,,,,,,,,,,,,,,,0.042857143,-0.425714286,0,0,0,,,,,,,MAGGOT,HB,m,y,./images/MAGGOTHB.png,,,,,,,,,,,,,,,,,,,,,m,1,0.717,,,,,,,,0,112,112,33,1
,,,,,,,,,,,,,,,,,5dceb9be381b67000e061142,65,2022-02-12_17h05.47.309,lexical_decision_task_DD_L2,2021.2.3,MacIntel,52.63157895,,,,,,,,,,,0.827,0,,,,,,,,,,,,,,,,,,,,,,,,0.042857143,-0.425714286,0,0,0,,,,,,,HAMMER,HB,z,y,./images/HAMMERHB.png,,,,,,,,,,,,,,,,,,,,,m,0,0.827,,,,,,,,0,113,113,159,1
,,,,,,,,,,,,,,,,,5dceb9be381b67000e061142,65,2022-02-12_17h05.47.309,lexical_decision_task_DD_L2,2021.2.3,MacIntel,52.63157895,,,,,,,,,,,0.785,1,,,,,,,,,,,,,,,,,,,,,,,,0.042857143,-0.425714286,0,0,0,,,,,,,SUNSET,LB,m,y,./images/SUNSETLB.png,,,,,,,,,,,,,,,,,,,,,m,1,0.785,,,,,,,,0,114,114,82,1
,,,,,,,,,,,,,,,,,5dceb9be381b67000e061142,65,2022-02-12_17h05.47.309,lexical_decision_task_DD_L2,2021.2.3,MacIntel,52.63157895,,,,,,,,,,,0.845,1,,,,,,,,,,,,,,,,,,,,,,,,0.042857143,-0.425714286,0,0,0,,,,,,,SHIELD,HB,z,y,./images/SHIELDHB.png,,,,,,,,,,,,,,,,,,,,,z,1,0.845,,,,,,,,0,115,115,132,1
,,,,,,,,,,,,,,,,,5dceb9be381b67000e061142,65,2022-02-12_17h05.47.309,lexical_decision_task_DD_L2,2021.2.3,MacIntel,52.63157895,,,,,,,,,,,0.83,0,,,,,,,,,,,,,,,,,,,,,,,,0.042857143,-0.425714286,0,0,0,,,,,,,CHERRY,HB,z,y,./images/CHERRYHB.png,,,,,,,,,,,,,,,,,,,,,m,0,0.83,,,,,,,,0,116,116,138,1
,,,,,,,,,,,,,,,,,5dceb9be381b67000e061142,65,2022-02-12_17h05.47.309,lexical_decision_task_DD_L2,2021.2.3,MacIntel,52.63157895,,,,,,,,,,,0.775,1,,,,,,,,,,,,,,,,,,,,,,,,0.042857143,-0.425714286,0,0,0,,,,,,,CANOE,LB,z,y,./images/CANOELB.png,,,,,,,,,,,,,,,,,,,,,z,1,0.775,,,,,,,,0,117,117,142,1
,,,,,,,,,,,,,,,,,5dceb9be381b67000e061142,65,2022-02-12_17h05.47.309,lexical_decision_task_DD_L2,2021.2.3,MacIntel,52.63157895,,,,,,,,,,,0.865,1,,,,,,,,,,,,,,,,,,,,,,,,0.042857143,-0.425714286,0,0,0,,,,,,,MIDGET,LB,z,y,./images/MIDGETLB.png,,,,,,,,,,,,,,,,,,,,,z,1,0.865,,,,,,,,0,118,118,160,1
,,,,,,,,,,,,,,,,,5dceb9be381b67000e061142,65,2022-02-12_17h05.47.309,lexical_decision_task_DD_L2,2021.2.3,MacIntel,52.63157895,,,,,,,,,,,0.872,1,,,,,,,,,,,,,,,,,,,,,,,,0.042857143,-0.425714286,0,0,0,,,,,,,JUMPER,C,z,y,./images/JUMPER.png,,,,,,,,,,,,,,,,,,,,,z,1,0.872,,,,,,,,0,119,119,158,1
,,,,,,,,,,,,,,,,,5dceb9be381b67000e061142,65,2022-02-12_17h05.47.309,lexical_decision_task_DD_L2,2021.2.3,MacIntel,52.63157895,,,,,,,,,,,0.8,0,,,,,,,,,,,,,,,,,,,,,,,,0.042857143,-0.425714286,0,0,0,,,,,,,STEAK,LB,z,y,./images/STEAKLB.png,,,,,,,,,,,,,,,,,,,,,m,0,0.8,,,,,,,,0,120,120,115,1
,,,,,,,,,,,,,,,,,5dceb9be381b67000e061142,65,2022-02-12_17h05.47.309,lexical_decision_task_DD_L2,2021.2.3,MacIntel,52.63157895,,,,,,,,,,,0.955,0,,,,,,,,,,,,,,,,,,,,,,,,0.042857143,-0.425714286,0,0,0,,,,,,,SAUNA,HB,z,y,./images/SAUNAHB.png,,,,,,,,,,,,,,,,,,,,,m,0,0.955,,,,,,,,0,121,121,117,1
,,,,,,,,,,,,,,,,,5dceb9be381b67000e061142,65,2022-02-12_17h05.47.309,lexical_decision_task_DD_L2,2021.2.3,MacIntel,52.63157895,,,,,,,,,,,1.229,0,,,,,,,,,,,,,,,,,,,,,,,,0.042857143,-0.425714286,0,0,0,,,,,,,BASKET,C,z,y,./images/BASKET.png,,,,,,,,,,,,,,,,,,,,,m,0,1.229,,,,,,,,0,122,122,128,1
,,,,,,,,,,,,,,,,,5dceb9be381b67000e061142,65,2022-02-12_17h05.47.309,lexical_decision_task_DD_L2,2021.2.3,MacIntel,52.63157895,,,,,,,,,,,1.165,1,,,,,,,,,,,,,,,,,,,,,,,,0.042857143,-0.425714286,0,0,0,,,,,,,STRING,C,m,y,./images/STRING.png,,,,,,,,,,,,,,,,,,,,,m,1,1.165,,,,,,,,0,123,123,41,1
,,,,,,,,,,,,,,,,,5dceb9be381b67000e061142,65,2022-02-12_17h05.47.309,lexical_decision_task_DD_L2,2021.2.3,MacIntel,52.63157895,,,,,,,,,,,0.904,1,,,,,,,,,,,,,,,,,,,,,,,,0.042857143,-0.425714286,0,0,0,,,,,,,PIMPLE,C,m,y,./images/PIMPLE.png,,,,,,,,,,,,,,,,,,,,,m,1,0.904,,,,,,,,0,124,124,71,1
,,,,,,,,,,,,,,,,,5dceb9be381b67000e061142,65,2022-02-12_17h05.47.309,lexical_decision_task_DD_L2,2021.2.3,MacIntel,52.63157895,,,,,,,,,,,1.097,1,,,,,,,,,,,,,,,,,,,,,,,,0.042857143,-0.425714286,1,0,0,,,,,,,STAIN,HB,z,y,./images/STAINHB.png,break_done_button,,,,,,,,,,,,,,,,,,,,z,1,1.097,,,,,,,,0,125,125,90,1
,,,,,,,,,,,,,,,,,5dceb9be381b67000e061142,65,2022-02-12_17h05.47.309,lexical_decision_task_DD_L2,2021.2.3,MacIntel,52.63157895,,,,,,,,,,,1.064,0,,,,,,,,,,,,,,,,,,,,,,,,0.042857143,-0.425714286,0,0,0,,,,,,,GRAIN,HB,m,y,./images/GRAINHB.png,,,,,,,,,,,,,,,,,,,,,z,0,1.064,,,,,,,,0,126,126,75,1
,,,,,,,,,,,,,,,,,5dceb9be381b67000e061142,65,2022-02-12_17h05.47.309,lexical_decision_task_DD_L2,2021.2.3,MacIntel,52.63157895,,,,,,,,,,,1.096,1,,,,,,,,,,,,,,,,,,,,,,,,0.042857143,-0.425714286,0,0,0,,,,,,,PACKET,C,m,y,./images/PACKET.png,,,,,,,,,,,,,,,,,,,,,m,1,1.096,,,,,,,,0,127,127,56,1
,,,,,,,,,,,,,,,,,5dceb9be381b67000e061142,65,2022-02-12_17h05.47.309,lexical_decision_task_DD_L2,2021.2.3,MacIntel,52.63157895,,,,,,,,,,,0.818,1,,,,,,,,,,,,,,,,,,,,,,,,0.042857143,-0.425714286,0,0,0,,,,,,,CURRY,HB,z,y,./images/CURRYHB.png,,,,,,,,,,,,,,,,,,,,,z,1,0.818,,,,,,,,0,128,128,144,1
,,,,,,,,,,,,,,,,,5dceb9be381b67000e061142,65,2022-02-12_17h05.47.309,lexical_decision_task_DD_L2,2021.2.3,MacIntel,52.63157895,,,,,,,,,,,0.981,1,,,,,,,,,,,,,,,,,,,,,,,,0.042857143,-0.425714286,0,0,0,,,,,,,ARTIST,LB,z,y,./images/ARTISTLB.png,,,,,,,,,,,,,,,,,,,,,z,1,0.981,,,,,,,,0,129,129,145,1
