key_resp.keys,key_resp.rt,instr_done_touch.x,instr_done_touch.y,instr_done_touch.leftButton,instr_done_touch.midButton,instr_done_touch.rightButton,instruction_pages.thisRepN,instruction_pages.thisTrialN,instruction_pages.thisN,instruction_pages.thisIndex,instruction_pages.ran,pageN,phase,instruct_text,has_image,instruct_image,participant,age,date,expName,psychopyVersion,OS,frameRate,response.keys,response.corr,response.rt,touch_resp.x,touch_resp.y,touch_resp.leftButton,touch_resp.midButton,touch_resp.rightButton,touch_resp.time,touch_resp.clicked_name,rt,corr,practrials.thisRepN,practrials.thisTrialN,practrials.thisN,practrials.thisIndex,practrials.ran,TrialID,Target,corrAns,end_of_practice_trials_pages.thisRepN,end_of_practice_trials_pages.thisTrialN,end_of_practice_trials_pages.thisN,end_of_practice_trials_pages.thisIndex,end_of_practice_trials_pages.ran,key_resp_2.keys,key_resp_2.corr,key_resp_2.rt,targ_click.x,targ_click.y,targ_click.leftButton,targ_click.midButton,targ_click.rightButton,targ_click.time,targ_click.clicked_name,break_done_touch.x,break_done_touch.y,break_done_touch.leftButton,break_done_touch.midButton,break_done_touch.rightButton,break_done_keyboard.keys,maintrials.thisRepN,maintrials.thisTrialN,maintrials.thisN,maintrials.thisIndex,maintrials.ran,string,blur,study,lex,stim_path,break_done_keyboard.rt,mouse_2.x,mouse_2.y,mouse_2.leftButton,mouse_2.midButton,mouse_2.rightButton,mouse_2.clicked_name,slider.response,slider.rt,trials.thisRepN,trials.thisTrialN,trials.thisN,trials.thisIndex,trials.ran,test_instructions.thisRepN,test_instructions.thisTrialN,test_instructions.thisN,test_instructions.thisIndex,test_instructions.ran,instr_done_touch.clicked_name,key_resp_3.keys,key_resp_3.corr,key_resp_3.rt,test_click.x,test_click.y,test_click.leftButton,test_click.midButton,test_click.rightButton,test_click.time,test_click.clicked_name,test_phase.thisRepN,test_phase.thisTrialN,test_phase.thisN,test_phase.thisIndex,test_phase.ran
space,20.7994,0.351851889,-0.277777801,0,0,0,0,0,0,0,1,1,instructions,"INSTRUCTIONS
At the start of each trial, look at the plus sign  (+) in the center of the screen.  This tells you that a trial is about to begin and where to look. Second, the plus sign will disappear and a string of letters will appear. Your task is to determine if the string of letters is a word or not. If the item is a word press the M key (on keyboard)  or touch the word button (phone/tablet).  If the item is not a word,  press the  Z key (on keyboard)  or touch the nonword button (on phone/tablet). 
Press the space bar or touch  continue.",0,,5dcf4d27b039ab08c04d2740,21,2022-02-12_18h01.35.059,lexical_decision_task_DD,2021.2.3,Win32,60.06006006,,,,,,,,,,,,,,,,,,,,,,,,,,,,,,,,,,,,,,,,,,,,,,,,,,,,,,,,,,,,,,,,,,,,,,,,,,,,,,,,,,,,,,
space,5.075,0.351851889,-0.277777801,0,0,0,0,1,1,1,1,2,instructions,"If your device has a keyboard, press the 'Z' key for nonwords and the 'M' key for words.





Press the space bar or touch the button below to continue.",0,keyboard-example.gif,5dcf4d27b039ab08c04d2740,21,2022-02-12_18h01.35.059,lexical_decision_task_DD,2021.2.3,Win32,60.06006006,,,,,,,,,,,,,,,,,,,,,,,,,,,,,,,,,,,,,,,,,,,,,,,,,,,,,,,,,,,,,,,,,,,,,,,,,,,,,,,,,,,,,,
space,3.141,0.351851889,-0.277777801,0,0,0,0,2,2,2,1,3,instructions,"If you are using a touchscreen only device, use the buttons on the screen. Do not use the mouse.





Press the space bar or touch the button below to continue.",0,touchscreen-example.gif,5dcf4d27b039ab08c04d2740,21,2022-02-12_18h01.35.059,lexical_decision_task_DD,2021.2.3,Win32,60.06006006,,,,,,,,,,,,,,,,,,,,,,,,,,,,,,,,,,,,,,,,,,,,,,,,,,,,,,,,,,,,,,,,,,,,,,,,,,,,,,,,,,,,,,
space,5.0876,0.351851889,-0.277777801,0,0,0,0,3,3,3,1,4,instructions,"It is very important that you respond as quickly and accurately as possible, as each letter string will only be on the screen for two seconds. If you do not respond within this time, the message 'Too slow!' will be displayed and the experiment will progress to the next letter string. The first 20 trials will be practice trials and you will receive feedback on your answers. 

Press the space bar or touch the button below to start the practice trials.",0,,5dcf4d27b039ab08c04d2740,21,2022-02-12_18h01.35.059,lexical_decision_task_DD,2021.2.3,Win32,60.06006006,,,,,,,,,,,,,,,,,,,,,,,,,,,,,,,,,,,,,,,,,,,,,,,,,,,,,,,,,,,,,,,,,,,,,,,,,,,,,,,,,,,,,,
,,,,,,,,,,,,,,,,,5dcf4d27b039ab08c04d2740,21,2022-02-12_18h01.35.059,lexical_decision_task_DD,2021.2.3,Win32,60.06006006,z,1,1.0128,,,,,,,,1.0128,1,0,0,0,11,1,1001,RASHET,z,,,,,,,,,,,,,,,,,,,,,,,,,,,,,,,,,,,,,,,,,,,,,,,,,,,,,,,,,,,,,,,,,,
,,,,,,,,,,,,,,,,,5dcf4d27b039ab08c04d2740,21,2022-02-12_18h01.35.059,lexical_decision_task_DD,2021.2.3,Win32,60.06006006,z,1,0.813,,,,,,,,0.813,1,0,1,1,8,1,1001,ASLERT,z,,,,,,,,,,,,,,,,,,,,,,,,,,,,,,,,,,,,,,,,,,,,,,,,,,,,,,,,,,,,,,,,,,
,,,,,,,,,,,,,,,,,5dcf4d27b039ab08c04d2740,21,2022-02-12_18h01.35.059,lexical_decision_task_DD,2021.2.3,Win32,60.06006006,m,1,0.6363,,,,,,,,0.6363,1,0,2,2,0,1,1001,UTOPIA,m,,,,,,,,,,,,,,,,,,,,,,,,,,,,,,,,,,,,,,,,,,,,,,,,,,,,,,,,,,,,,,,,,,
,,,,,,,,,,,,,,,,,5dcf4d27b039ab08c04d2740,21,2022-02-12_18h01.35.059,lexical_decision_task_DD,2021.2.3,Win32,60.06006006,m,1,0.7728,,,,,,,,0.7728,1,0,3,3,2,1,1001,ALMOND,m,,,,,,,,,,,,,,,,,,,,,,,,,,,,,,,,,,,,,,,,,,,,,,,,,,,,,,,,,,,,,,,,,,
,,,,,,,,,,,,,,,,,5dcf4d27b039ab08c04d2740,21,2022-02-12_18h01.35.059,lexical_decision_task_DD,2021.2.3,Win32,60.06006006,m,1,0.6637,,,,,,,,0.6637,1,0,4,4,5,1,1001,OBTAIN,m,,,,,,,,,,,,,,,,,,,,,,,,,,,,,,,,,,,,,,,,,,,,,,,,,,,,,,,,,,,,,,,,,,
,,,,,,,,,,,,,,,,,5dcf4d27b039ab08c04d2740,21,2022-02-12_18h01.35.059,lexical_decision_task_DD,2021.2.3,Win32,60.06006006,m,1,0.7174,,,,,,,,0.7174,1,0,5,5,4,1,1001,SQUEAK,m,,,,,,,,,,,,,,,,,,,,,,,,,,,,,,,,,,,,,,,,,,,,,,,,,,,,,,,,,,,,,,,,,,
,,,,,,,,,,,,,,,,,5dcf4d27b039ab08c04d2740,21,2022-02-12_18h01.35.059,lexical_decision_task_DD,2021.2.3,Win32,60.06006006,z,1,0.7482,,,,,,,,0.7482,1,0,6,6,14,1,1001,THRALE,z,,,,,,,,,,,,,,,,,,,,,,,,,,,,,,,,,,,,,,,,,,,,,,,,,,,,,,,,,,,,,,,,,,
,,,,,,,,,,,,,,,,,5dcf4d27b039ab08c04d2740,21,2022-02-12_18h01.35.059,lexical_decision_task_DD,2021.2.3,Win32,60.06006006,m,1,0.716,,,,,,,,0.716,1,0,7,7,3,1,1001,MATRIX,m,,,,,,,,,,,,,,,,,,,,,,,,,,,,,,,,,,,,,,,,,,,,,,,,,,,,,,,,,,,,,,,,,,
,,,,,,,,,,,,,,,,,5dcf4d27b039ab08c04d2740,21,2022-02-12_18h01.35.059,lexical_decision_task_DD,2021.2.3,Win32,60.06006006,z,1,0.7652,,,,,,,,0.7652,1,0,8,8,10,1,1001,INLADE,z,,,,,,,,,,,,,,,,,,,,,,,,,,,,,,,,,,,,,,,,,,,,,,,,,,,,,,,,,,,,,,,,,,
,,,,,,,,,,,,,,,,,5dcf4d27b039ab08c04d2740,21,2022-02-12_18h01.35.059,lexical_decision_task_DD,2021.2.3,Win32,60.06006006,z,1,0.7886,,,,,,,,0.7886,1,0,9,9,9,1,1001,FARINY,z,,,,,,,,,,,,,,,,,,,,,,,,,,,,,,,,,,,,,,,,,,,,,,,,,,,,,,,,,,,,,,,,,,
,,,,,,,,,,,,,,,,,5dcf4d27b039ab08c04d2740,21,2022-02-12_18h01.35.059,lexical_decision_task_DD,2021.2.3,Win32,60.06006006,m,1,0.5893,,,,,,,,0.5893,1,0,10,10,6,1,1001,ZOMBIE,m,,,,,,,,,,,,,,,,,,,,,,,,,,,,,,,,,,,,,,,,,,,,,,,,,,,,,,,,,,,,,,,,,,
,,,,,,,,,,,,,,,,,5dcf4d27b039ab08c04d2740,21,2022-02-12_18h01.35.059,lexical_decision_task_DD,2021.2.3,Win32,60.06006006,z,1,0.7467,,,,,,,,0.7467,1,0,11,11,12,1,1001,SPRINY,z,,,,,,,,,,,,,,,,,,,,,,,,,,,,,,,,,,,,,,,,,,,,,,,,,,,,,,,,,,,,,,,,,,
,,,,,,,,,,,,,,,,,5dcf4d27b039ab08c04d2740,21,2022-02-12_18h01.35.059,lexical_decision_task_DD,2021.2.3,Win32,60.06006006,z,1,0.725,,,,,,,,0.725,1,0,12,12,15,1,1001,WHAISE,z,,,,,,,,,,,,,,,,,,,,,,,,,,,,,,,,,,,,,,,,,,,,,,,,,,,,,,,,,,,,,,,,,,
,,,,,,,,,,,,,,,,,5dcf4d27b039ab08c04d2740,21,2022-02-12_18h01.35.059,lexical_decision_task_DD,2021.2.3,Win32,60.06006006,m,1,0.6544,,,,,,,,0.6544,1,0,13,13,1,1,1001,ADJUST,m,,,,,,,,,,,,,,,,,,,,,,,,,,,,,,,,,,,,,,,,,,,,,,,,,,,,,,,,,,,,,,,,,,
,,,,,,,,,,,,,,,,,5dcf4d27b039ab08c04d2740,21,2022-02-12_18h01.35.059,lexical_decision_task_DD,2021.2.3,Win32,60.06006006,m,1,0.5834,,,,,,,,0.5834,1,0,14,14,7,1,1001,VOLUME,m,,,,,,,,,,,,,,,,,,,,,,,,,,,,,,,,,,,,,,,,,,,,,,,,,,,,,,,,,,,,,,,,,,
,,,,,,,,,,,,,,,,,5dcf4d27b039ab08c04d2740,21,2022-02-12_18h01.35.059,lexical_decision_task_DD,2021.2.3,Win32,60.06006006,z,1,0.6527,,,,,,,,0.6527,1,0,15,15,13,1,1001,ROUPET,z,,,,,,,,,,,,,,,,,,,,,,,,,,,,,,,,,,,,,,,,,,,,,,,,,,,,,,,,,,,,,,,,,,
space,5.8412,0.351851889,-0.277777801,0,0,0,,,,,,1,end_of_practice,"You have completed the practice trials. During the experimental trials, you will not receive feedback. 
Before you begin, please ensure that you are in a comfortable and quiet location and will not be disturbed for about 15 minutes, as we cannot use your data if you do not complete all the trials. 
 When you are ready to start the experimental trials, please press space or touch the button below.",,,5dcf4d27b039ab08c04d2740,21,2022-02-12_18h01.35.059,lexical_decision_task_DD,2021.2.3,Win32,60.06006006,,,,,,,,,,,,,,,,,,,,,0,0,0,0,1,,,,,,,,,,,,,,,,,,,,,,,,,,,,,,,,,,,,,,,,,,,,,,,,,,,,,,,,,,,,,
,,,,,,,,,,,,,,,,,5dcf4d27b039ab08c04d2740,21,2022-02-12_18h01.35.059,lexical_decision_task_DD,2021.2.3,Win32,60.06006006,,,,,,,,,,,2.1563,1,,,,,,,,,,,,,,z,1,2.1563,,,,,,,,0.351851889,-0.277777801,0,0,0,,0,0,0,91,1,SHENS,HB,old,z,./images/SHENSHB.png,,,,,,,,,,,,,,,,,,,,,,,,,,,,,,,,,,,
,,,,,,,,,,,,,,,,,5dcf4d27b039ab08c04d2740,21,2022-02-12_18h01.35.059,lexical_decision_task_DD,2021.2.3,Win32,60.06006006,,,,,,,,,,,0.9373,1,,,,,,,,,,,,,,z,1,0.9373,,,,,,,,0.351851889,-0.277777801,0,0,0,,0,1,1,95,1,HANTY,LB,old,z,./images/HANTYLB.png,,,,,,,,,,,,,,,,,,,,,,,,,,,,,,,,,,,
,,,,,,,,,,,,,,,,,5dcf4d27b039ab08c04d2740,21,2022-02-12_18h01.35.059,lexical_decision_task_DD,2021.2.3,Win32,60.06006006,,,,,,,,,,,0.7208,1,,,,,,,,,,,,,,m,1,0.7208,,,,,,,,0.351851889,-0.277777801,0,0,0,,0,2,2,5,1,PASTA,LB,old,m,./images/PASTALB.png,,,,,,,,,,,,,,,,,,,,,,,,,,,,,,,,,,,
,,,,,,,,,,,,,,,,,5dcf4d27b039ab08c04d2740,21,2022-02-12_18h01.35.059,lexical_decision_task_DD,2021.2.3,Win32,60.06006006,,,,,,,,,,,0.7046,1,,,,,,,,,,,,,,z,1,0.7046,,,,,,,,0.351851889,-0.277777801,0,0,0,,0,3,3,152,1,FRAIN,LB,old,z,./images/FRAINLB.png,,,,,,,,,,,,,,,,,,,,,,,,,,,,,,,,,,,
,,,,,,,,,,,,,,,,,5dcf4d27b039ab08c04d2740,21,2022-02-12_18h01.35.059,lexical_decision_task_DD,2021.2.3,Win32,60.06006006,,,,,,,,,,,0.6938,1,,,,,,,,,,,,,,z,1,0.6938,,,,,,,,0.351851889,-0.277777801,0,0,0,,0,4,4,146,1,MOOST,LB,old,z,./images/MOOSTLB.png,,,,,,,,,,,,,,,,,,,,,,,,,,,,,,,,,,,
,,,,,,,,,,,,,,,,,5dcf4d27b039ab08c04d2740,21,2022-02-12_18h01.35.059,lexical_decision_task_DD,2021.2.3,Win32,60.06006006,,,,,,,,,,,0.8654,1,,,,,,,,,,,,,,m,1,0.8654,,,,,,,,0.351851889,-0.277777801,0,0,0,,0,5,5,37,1,BIRTH,HB,old,m,./images/BIRTHHB.png,,,,,,,,,,,,,,,,,,,,,,,,,,,,,,,,,,,
,,,,,,,,,,,,,,,,,5dcf4d27b039ab08c04d2740,21,2022-02-12_18h01.35.059,lexical_decision_task_DD,2021.2.3,Win32,60.06006006,,,,,,,,,,,0.9082,1,,,,,,,,,,,,,,z,1,0.9082,,,,,,,,0.351851889,-0.277777801,0,0,0,,0,6,6,124,1,TUNCH,HB,old,z,./images/TUNCHHB.png,,,,,,,,,,,,,,,,,,,,,,,,,,,,,,,,,,,
,,,,,,,,,,,,,,,,,5dcf4d27b039ab08c04d2740,21,2022-02-12_18h01.35.059,lexical_decision_task_DD,2021.2.3,Win32,60.06006006,,,,,,,,,,,0.8237,1,,,,,,,,,,,,,,m,1,0.8237,,,,,,,,0.351851889,-0.277777801,0,0,0,,0,7,7,52,1,BANNER,HB,old,m,./images/BANNERHB.png,,,,,,,,,,,,,,,,,,,,,,,,,,,,,,,,,,,
,,,,,,,,,,,,,,,,,5dcf4d27b039ab08c04d2740,21,2022-02-12_18h01.35.059,lexical_decision_task_DD,2021.2.3,Win32,60.06006006,,,,,,,,,,,0.6827,1,,,,,,,,,,,,,,z,1,0.6827,,,,,,,,0.351851889,-0.277777801,0,0,0,,0,8,8,119,1,PAFER,LB,old,z,./images/PAFERLB.png,,,,,,,,,,,,,,,,,,,,,,,,,,,,,,,,,,,
,,,,,,,,,,,,,,,,,5dcf4d27b039ab08c04d2740,21,2022-02-12_18h01.35.059,lexical_decision_task_DD,2021.2.3,Win32,60.06006006,,,,,,,,,,,0.7489,1,,,,,,,,,,,,,,z,1,0.7489,,,,,,,,0.351851889,-0.277777801,0,0,0,,0,9,9,144,1,NAIRY,C,old,z,./images/NAIRY.png,,,,,,,,,,,,,,,,,,,,,,,,,,,,,,,,,,,
,,,,,,,,,,,,,,,,,5dcf4d27b039ab08c04d2740,21,2022-02-12_18h01.35.059,lexical_decision_task_DD,2021.2.3,Win32,60.06006006,,,,,,,,,,,0.6098,1,,,,,,,,,,,,,,z,1,0.6098,,,,,,,,0.351851889,-0.277777801,0,0,0,,0,10,10,102,1,DULLE,C,old,z,./images/DULLE.png,,,,,,,,,,,,,,,,,,,,,,,,,,,,,,,,,,,
,,,,,,,,,,,,,,,,,5dcf4d27b039ab08c04d2740,21,2022-02-12_18h01.35.059,lexical_decision_task_DD,2021.2.3,Win32,60.06006006,,,,,,,,,,,0.9195,1,,,,,,,,,,,,,,z,1,0.9195,,,,,,,,0.351851889,-0.277777801,0,0,0,,0,11,11,142,1,PLASK,HB,old,z,./images/PLASKHB.png,,,,,,,,,,,,,,,,,,,,,,,,,,,,,,,,,,,
,,,,,,,,,,,,,,,,,5dcf4d27b039ab08c04d2740,21,2022-02-12_18h01.35.059,lexical_decision_task_DD,2021.2.3,Win32,60.06006006,,,,,,,,,,,0.6731,1,,,,,,,,,,,,,,m,1,0.6731,,,,,,,,0.351851889,-0.277777801,0,0,0,,0,12,12,63,1,MIRROR,C,old,m,./images/MIRROR.png,,,,,,,,,,,,,,,,,,,,,,,,,,,,,,,,,,,
,,,,,,,,,,,,,,,,,5dcf4d27b039ab08c04d2740,21,2022-02-12_18h01.35.059,lexical_decision_task_DD,2021.2.3,Win32,60.06006006,,,,,,,,,,,0.5943,1,,,,,,,,,,,,,,m,1,0.5943,,,,,,,,0.351851889,-0.277777801,0,0,0,,0,13,13,2,1,BEARD,LB,old,m,./images/BEARDLB.png,,,,,,,,,,,,,,,,,,,,,,,,,,,,,,,,,,,
,,,,,,,,,,,,,,,,,5dcf4d27b039ab08c04d2740,21,2022-02-12_18h01.35.059,lexical_decision_task_DD,2021.2.3,Win32,60.06006006,,,,,,,,,,,0.628,1,,,,,,,,,,,,,,m,1,0.628,,,,,,,,0.351851889,-0.277777801,0,0,0,,0,14,14,78,1,LITTER,C,old,m,./images/LITTER.png,,,,,,,,,,,,,,,,,,,,,,,,,,,,,,,,,,,
,,,,,,,,,,,,,,,,,5dcf4d27b039ab08c04d2740,21,2022-02-12_18h01.35.059,lexical_decision_task_DD,2021.2.3,Win32,60.06006006,,,,,,,,,,,0.582,1,,,,,,,,,,,,,,m,1,0.582,,,,,,,,0.351851889,-0.277777801,0,0,0,,0,15,15,29,1,CRUMB,LB,old,m,./images/CRUMBLB.png,,,,,,,,,,,,,,,,,,,,,,,,,,,,,,,,,,,
,,,,,,,,,,,,,,,,,5dcf4d27b039ab08c04d2740,21,2022-02-12_18h01.35.059,lexical_decision_task_DD,2021.2.3,Win32,60.06006006,,,,,,,,,,,0.7573,1,,,,,,,,,,,,,,m,1,0.7573,,,,,,,,0.351851889,-0.277777801,0,0,0,,0,16,16,54,1,TRIPOD,C,old,m,./images/TRIPOD.png,,,,,,,,,,,,,,,,,,,,,,,,,,,,,,,,,,,
,,,,,,,,,,,,,,,,,5dcf4d27b039ab08c04d2740,21,2022-02-12_18h01.35.059,lexical_decision_task_DD,2021.2.3,Win32,60.06006006,,,,,,,,,,,0.5789,1,,,,,,,,,,,,,,m,1,0.5789,,,,,,,,0.351851889,-0.277777801,0,0,0,,0,17,17,75,1,GRAIN,C,old,m,./images/GRAIN.png,,,,,,,,,,,,,,,,,,,,,,,,,,,,,,,,,,,
,,,,,,,,,,,,,,,,,5dcf4d27b039ab08c04d2740,21,2022-02-12_18h01.35.059,lexical_decision_task_DD,2021.2.3,Win32,60.06006006,,,,,,,,,,,0.6064,1,,,,,,,,,,,,,,z,1,0.6064,,,,,,,,0.351851889,-0.277777801,0,0,0,,0,18,18,147,1,ZOLES,C,old,z,./images/ZOLES.png,,,,,,,,,,,,,,,,,,,,,,,,,,,,,,,,,,,
,,,,,,,,,,,,,,,,,5dcf4d27b039ab08c04d2740,21,2022-02-12_18h01.35.059,lexical_decision_task_DD,2021.2.3,Win32,60.06006006,,,,,,,,,,,1.1552,0,,,,,,,,,,,,,,z,0,1.1552,,,,,,,,0.351851889,-0.277777801,0,0,0,,0,19,19,40,1,SWING,HB,old,m,./images/SWINGHB.png,,,,,,,,,,,,,,,,,,,,,,,,,,,,,,,,,,,
,,,,,,,,,,,,,,,,,5dcf4d27b039ab08c04d2740,21,2022-02-12_18h01.35.059,lexical_decision_task_DD,2021.2.3,Win32,60.06006006,,,,,,,,,,,0.7255,1,,,,,,,,,,,,,,z,1,0.7255,,,,,,,,0.351851889,-0.277777801,0,0,0,,0,20,20,92,1,PAIMS,LB,old,z,./images/PAIMSLB.png,,,,,,,,,,,,,,,,,,,,,,,,,,,,,,,,,,,
,,,,,,,,,,,,,,,,,5dcf4d27b039ab08c04d2740,21,2022-02-12_18h01.35.059,lexical_decision_task_DD,2021.2.3,Win32,60.06006006,,,,,,,,,,,0.8308,0,,,,,,,,,,,,,,m,0,0.8308,,,,,,,,0.351851889,-0.277777801,0,0,0,,0,21,21,166,1,SHORY,HB,old,z,./images/SHORYHB.png,,,,,,,,,,,,,,,,,,,,,,,,,,,,,,,,,,,
,,,,,,,,,,,,,,,,,5dcf4d27b039ab08c04d2740,21,2022-02-12_18h01.35.059,lexical_decision_task_DD,2021.2.3,Win32,60.06006006,,,,,,,,,,,0.6616,1,,,,,,,,,,,,,,m,1,0.6616,,,,,,,,0.351851889,-0.277777801,0,0,0,,0,22,22,47,1,BERRY,LB,old,m,./images/BERRYLB.png,,,,,,,,,,,,,,,,,,,,,,,,,,,,,,,,,,,
,,,,,,,,,,,,,,,,,5dcf4d27b039ab08c04d2740,21,2022-02-12_18h01.35.059,lexical_decision_task_DD,2021.2.3,Win32,60.06006006,,,,,,,,,,,0.5882,1,,,,,,,,,,,,,,z,1,0.5882,,,,,,,,0.351851889,-0.277777801,0,0,0,,0,23,23,158,1,EGECT,LB,old,z,./images/EGECTLB.png,,,,,,,,,,,,,,,,,,,,,,,,,,,,,,,,,,,
,,,,,,,,,,,,,,,,,5dcf4d27b039ab08c04d2740,21,2022-02-12_18h01.35.059,lexical_decision_task_DD,2021.2.3,Win32,60.06006006,,,,,,,,,,,0.5872,1,,,,,,,,,,,,,,m,1,0.5872,,,,,,,,0.351851889,-0.277777801,0,0,0,,0,24,24,21,1,KIDNEY,C,old,m,./images/KIDNEY.png,,,,,,,,,,,,,,,,,,,,,,,,,,,,,,,,,,,
,,,,,,,,,,,,,,,,,5dcf4d27b039ab08c04d2740,21,2022-02-12_18h01.35.059,lexical_decision_task_DD,2021.2.3,Win32,60.06006006,,,,,,,,,,,0.8491,1,,,,,,,,,,,,,,z,1,0.8491,,,,,,,,0.351851889,-0.277777801,0,0,0,,0,25,25,133,1,POWDY,HB,old,z,./images/POWDYHB.png,,,,,,,,,,,,,,,,,,,,,,,,,,,,,,,,,,,
,,,,,,,,,,,,,,,,,5dcf4d27b039ab08c04d2740,21,2022-02-12_18h01.35.059,lexical_decision_task_DD,2021.2.3,Win32,60.06006006,,,,,,,,,,,0.5958,1,,,,,,,,,,,,,,m,1,0.5958,,,,,,,,0.351851889,-0.277777801,0,0,0,,0,26,26,44,1,LIZARD,LB,old,m,./images/LIZARDLB.png,,,,,,,,,,,,,,,,,,,,,,,,,,,,,,,,,,,
,,,,,,,,,,,,,,,,,5dcf4d27b039ab08c04d2740,21,2022-02-12_18h01.35.059,lexical_decision_task_DD,2021.2.3,Win32,60.06006006,,,,,,,,,,,0.7535,1,,,,,,,,,,,,,,m,1,0.7535,,,,,,,,0.351851889,-0.277777801,0,0,0,,0,27,27,55,1,MUFFIN,HB,old,m,./images/MUFFINHB.png,,,,,,,,,,,,,,,,,,,,,,,,,,,,,,,,,,,
,,,,,,,,,,,,,,,,,5dcf4d27b039ab08c04d2740,21,2022-02-12_18h01.35.059,lexical_decision_task_DD,2021.2.3,Win32,60.06006006,,,,,,,,,,,1.002,1,,,,,,,,,,,,,,m,1,1.002,,,,,,,,0.351851889,-0.277777801,0,0,0,,0,28,28,81,1,POODLE,C,old,m,./images/POODLE.png,,,,,,,,,,,,,,,,,,,,,,,,,,,,,,,,,,,
,,,,,,,,,,,,,,,,,5dcf4d27b039ab08c04d2740,21,2022-02-12_18h01.35.059,lexical_decision_task_DD,2021.2.3,Win32,60.06006006,,,,,,,,,,,0.5129,1,,,,,,,,,,,,,,m,1,0.5129,,,,,,,,0.351851889,-0.277777801,0,0,0,,0,29,29,0,1,TOMATO,C,old,m,./images/TOMATO.png,,,,,,,,,,,,,,,,,,,,,,,,,,,,,,,,,,,
,,,,,,,,,,,,,,,,,5dcf4d27b039ab08c04d2740,21,2022-02-12_18h01.35.059,lexical_decision_task_DD,2021.2.3,Win32,60.06006006,,,,,,,,,,,1.156,1,,,,,,,,,,,,,,m,1,1.156,,,,,,,,0.351851889,-0.277777801,0,0,0,,0,30,30,1,1,PLANK,HB,old,m,./images/PLANKHB.png,,,,,,,,,,,,,,,,,,,,,,,,,,,,,,,,,,,
,,,,,,,,,,,,,,,,,5dcf4d27b039ab08c04d2740,21,2022-02-12_18h01.35.059,lexical_decision_task_DD,2021.2.3,Win32,60.06006006,,,,,,,,,,,0.5893,1,,,,,,,,,,,,,,m,1,0.5893,,,,,,,,0.351851889,-0.277777801,0,0,0,,0,31,31,48,1,SPORT,C,old,m,./images/SPORT.png,,,,,,,,,,,,,,,,,,,,,,,,,,,,,,,,,,,
,,,,,,,,,,,,,,,,,5dcf4d27b039ab08c04d2740,21,2022-02-12_18h01.35.059,lexical_decision_task_DD,2021.2.3,Win32,60.06006006,,,,,,,,,,,0.6791,1,,,,,,,,,,,,,,z,1,0.6791,,,,,,,,0.351851889,-0.277777801,0,0,0,,0,32,32,103,1,FLORT,HB,old,z,./images/FLORTHB.png,,,,,,,,,,,,,,,,,,,,,,,,,,,,,,,,,,,
,,,,,,,,,,,,,,,,,5dcf4d27b039ab08c04d2740,21,2022-02-12_18h01.35.059,lexical_decision_task_DD,2021.2.3,Win32,60.06006006,,,,,,,,,,,0.5941,1,,,,,,,,,,,,,,z,1,0.5941,,,,,,,,0.351851889,-0.277777801,0,0,0,,0,33,33,116,1,BALGY,LB,old,z,./images/BALGYLB.png,,,,,,,,,,,,,,,,,,,,,,,,,,,,,,,,,,,
,,,,,,,,,,,,,,,,,5dcf4d27b039ab08c04d2740,21,2022-02-12_18h01.35.059,lexical_decision_task_DD,2021.2.3,Win32,60.06006006,,,,,,,,,,,0.9222,0,,,,,,,,,,,,,,z,0,0.9222,,,,,,,,0.351851889,-0.277777801,0,0,0,,0,34,34,19,1,DOUGH,HB,old,m,./images/DOUGHHB.png,,,,,,,,,,,,,,,,,,,,,,,,,,,,,,,,,,,
,,,,,,,,,,,,,,,,,5dcf4d27b039ab08c04d2740,21,2022-02-12_18h01.35.059,lexical_decision_task_DD,2021.2.3,Win32,60.06006006,,,,,,,,,,,0.5814,1,,,,,,,,,,,,,,m,1,0.5814,,,,,,,,0.351851889,-0.277777801,0,0,0,,0,35,35,15,1,GREASE,C,old,m,./images/GREASE.png,,,,,,,,,,,,,,,,,,,,,,,,,,,,,,,,,,,
,,,,,,,,,,,,,,,,,5dcf4d27b039ab08c04d2740,21,2022-02-12_18h01.35.059,lexical_decision_task_DD,2021.2.3,Win32,60.06006006,,,,,,,,,,,1.1362,1,,,,,,,,,,,,,,z,1,1.1362,,,,,,,,0.351851889,-0.277777801,0,0,0,,0,36,36,127,1,NINDY,HB,old,z,./images/NINDYHB.png,,,,,,,,,,,,,,,,,,,,,,,,,,,,,,,,,,,
,,,,,,,,,,,,,,,,,5dcf4d27b039ab08c04d2740,21,2022-02-12_18h01.35.059,lexical_decision_task_DD,2021.2.3,Win32,60.06006006,,,,,,,,,,,0.5991,1,,,,,,,,,,,,,,z,1,0.5991,,,,,,,,0.351851889,-0.277777801,0,0,0,,0,37,37,96,1,KEAMS,C,old,z,./images/KEAMS.png,,,,,,,,,,,,,,,,,,,,,,,,,,,,,,,,,,,
,,,,,,,,,,,,,,,,,5dcf4d27b039ab08c04d2740,21,2022-02-12_18h01.35.059,lexical_decision_task_DD,2021.2.3,Win32,60.06006006,,,,,,,,,,,0.9101,1,,,,,,,,,,,,,,z,1,0.9101,,,,,,,,0.351851889,-0.277777801,0,0,0,,0,38,38,100,1,DRIBS,HB,old,z,./images/DRIBSHB.png,,,,,,,,,,,,,,,,,,,,,,,,,,,,,,,,,,,
,,,,,,,,,,,,,,,,,5dcf4d27b039ab08c04d2740,21,2022-02-12_18h01.35.059,lexical_decision_task_DD,2021.2.3,Win32,60.06006006,,,,,,,,,,,0.6696,1,,,,,,,,,,,,,,m,1,0.6696,,,,,,,,0.351851889,-0.277777801,0,0,0,,0,39,39,58,1,BABOON,HB,old,m,./images/BABOONHB.png,,,,,,,,,,,,,,,,,,,,,,,,,,,,,,,,,,,
,,,,,,,,,,,,,,,,,5dcf4d27b039ab08c04d2740,21,2022-02-12_18h01.35.059,lexical_decision_task_DD,2021.2.3,Win32,60.06006006,,,,,,,,,,,0.7215,0,,,,,,,,,,,,,,m,0,0.7215,,,,,,,,0.351851889,-0.277777801,0,0,0,,0,40,40,140,1,DOVET,LB,old,z,./images/DOVETLB.png,,,,,,,,,,,,,,,,,,,,,,,,,,,,,,,,,,,
,,,,,,,,,,,,,,,,,5dcf4d27b039ab08c04d2740,21,2022-02-12_18h01.35.059,lexical_decision_task_DD,2021.2.3,Win32,60.06006006,,,,,,,,,,,1.1402,1,,,,,,,,,,,,,,z,1,1.1402,,,,,,,,0.351851889,-0.277777801,0,0,0,space,0,41,41,130,1,CRILL,HB,old,z,./images/CRILLHB.png,14.9792,,,,,,,,,,,,,,,,,,,,,,,,,,,,,,,,,,
,,,,,,,,,,,,,,,,,5dcf4d27b039ab08c04d2740,21,2022-02-12_18h01.35.059,lexical_decision_task_DD,2021.2.3,Win32,60.06006006,,,,,,,,,,,0.7819,1,,,,,,,,,,,,,,m,1,0.7819,,,,,,,,0.351851889,-0.277777801,0,0,0,,0,42,42,28,1,FALCON,HB,old,m,./images/FALCONHB.png,,,,,,,,,,,,,,,,,,,,,,,,,,,,,,,,,,,
,,,,,,,,,,,,,,,,,5dcf4d27b039ab08c04d2740,21,2022-02-12_18h01.35.059,lexical_decision_task_DD,2021.2.3,Win32,60.06006006,,,,,,,,,,,0.5844,1,,,,,,,,,,,,,,z,1,0.5844,,,,,,,,0.351851889,-0.277777801,0,0,0,,0,43,43,101,1,GLEET,LB,old,z,./images/GLEETLB.png,,,,,,,,,,,,,,,,,,,,,,,,,,,,,,,,,,,
,,,,,,,,,,,,,,,,,5dcf4d27b039ab08c04d2740,21,2022-02-12_18h01.35.059,lexical_decision_task_DD,2021.2.3,Win32,60.06006006,,,,,,,,,,,0.6791,1,,,,,,,,,,,,,,z,1,0.6791,,,,,,,,0.351851889,-0.277777801,0,0,0,,0,44,44,148,1,JOMS,HB,old,z,./images/JOMSHB.png,,,,,,,,,,,,,,,,,,,,,,,,,,,,,,,,,,,
,,,,,,,,,,,,,,,,,5dcf4d27b039ab08c04d2740,21,2022-02-12_18h01.35.059,lexical_decision_task_DD,2021.2.3,Win32,60.06006006,,,,,,,,,,,0.6727,1,,,,,,,,,,,,,,z,1,0.6727,,,,,,,,0.351851889,-0.277777801,0,0,0,,0,45,45,84,1,HAXES,C,old,z,./images/HAXES.png,,,,,,,,,,,,,,,,,,,,,,,,,,,,,,,,,,,
,,,,,,,,,,,,,,,,,5dcf4d27b039ab08c04d2740,21,2022-02-12_18h01.35.059,lexical_decision_task_DD,2021.2.3,Win32,60.06006006,,,,,,,,,,,0.5793,1,,,,,,,,,,,,,,z,1,0.5793,,,,,,,,0.351851889,-0.277777801,0,0,0,,0,46,46,123,1,SEDGE,C,old,z,./images/SEDGE.png,,,,,,,,,,,,,,,,,,,,,,,,,,,,,,,,,,,
,,,,,,,,,,,,,,,,,5dcf4d27b039ab08c04d2740,21,2022-02-12_18h01.35.059,lexical_decision_task_DD,2021.2.3,Win32,60.06006006,,,,,,,,,,,0.8036,1,,,,,,,,,,,,,,m,1,0.8036,,,,,,,,0.351851889,-0.277777801,0,0,0,,0,47,47,79,1,CRUST,HB,old,m,./images/CRUSTHB.png,,,,,,,,,,,,,,,,,,,,,,,,,,,,,,,,,,,
,,,,,,,,,,,,,,,,,5dcf4d27b039ab08c04d2740,21,2022-02-12_18h01.35.059,lexical_decision_task_DD,2021.2.3,Win32,60.06006006,,,,,,,,,,,0.6022,1,,,,,,,,,,,,,,m,1,0.6022,,,,,,,,0.351851889,-0.277777801,0,0,0,,0,48,48,77,1,COUCH,LB,old,m,./images/COUCHLB.png,,,,,,,,,,,,,,,,,,,,,,,,,,,,,,,,,,,
,,,,,,,,,,,,,,,,,5dcf4d27b039ab08c04d2740,21,2022-02-12_18h01.35.059,lexical_decision_task_DD,2021.2.3,Win32,60.06006006,,,,,,,,,,,0.7476,1,,,,,,,,,,,,,,m,1,0.7476,,,,,,,,0.351851889,-0.277777801,0,0,0,,0,49,49,13,1,MOTOR,HB,old,m,./images/MOTORHB.png,,,,,,,,,,,,,,,,,,,,,,,,,,,,,,,,,,,
,,,,,,,,,,,,,,,,,5dcf4d27b039ab08c04d2740,21,2022-02-12_18h01.35.059,lexical_decision_task_DD,2021.2.3,Win32,60.06006006,,,,,,,,,,,0.6773,1,,,,,,,,,,,,,,m,1,0.6773,,,,,,,,0.351851889,-0.277777801,0,0,0,,0,50,50,12,1,SHORE,C,old,m,./images/SHORE.png,,,,,,,,,,,,,,,,,,,,,,,,,,,,,,,,,,,
,,,,,,,,,,,,,,,,,5dcf4d27b039ab08c04d2740,21,2022-02-12_18h01.35.059,lexical_decision_task_DD,2021.2.3,Win32,60.06006006,,,,,,,,,,,1.0174,1,,,,,,,,,,,,,,z,1,1.0174,,,,,,,,0.351851889,-0.277777801,0,0,0,,0,51,51,151,1,TINKY,HB,old,z,./images/TINKYHB.png,,,,,,,,,,,,,,,,,,,,,,,,,,,,,,,,,,,
,,,,,,,,,,,,,,,,,5dcf4d27b039ab08c04d2740,21,2022-02-12_18h01.35.059,lexical_decision_task_DD,2021.2.3,Win32,60.06006006,,,,,,,,,,,0.6737,1,,,,,,,,,,,,,,z,1,0.6737,,,,,,,,0.351851889,-0.277777801,0,0,0,,0,52,52,131,1,NACES,LB,old,z,./images/NACESLB.png,,,,,,,,,,,,,,,,,,,,,,,,,,,,,,,,,,,
,,,,,,,,,,,,,,,,,5dcf4d27b039ab08c04d2740,21,2022-02-12_18h01.35.059,lexical_decision_task_DD,2021.2.3,Win32,60.06006006,,,,,,,,,,,0.9968,1,,,,,,,,,,,,,,m,1,0.9968,,,,,,,,0.351851889,-0.277777801,0,0,0,,0,53,53,9,1,RHINO,C,old,m,./images/RHINO.png,,,,,,,,,,,,,,,,,,,,,,,,,,,,,,,,,,,
,,,,,,,,,,,,,,,,,5dcf4d27b039ab08c04d2740,21,2022-02-12_18h01.35.059,lexical_decision_task_DD,2021.2.3,Win32,60.06006006,,,,,,,,,,,0.6441,1,,,,,,,,,,,,,,m,1,0.6441,,,,,,,,0.351851889,-0.277777801,0,0,0,,0,54,54,60,1,TWINS,C,old,m,./images/TWINS.png,,,,,,,,,,,,,,,,,,,,,,,,,,,,,,,,,,,
,,,,,,,,,,,,,,,,,5dcf4d27b039ab08c04d2740,21,2022-02-12_18h01.35.059,lexical_decision_task_DD,2021.2.3,Win32,60.06006006,,,,,,,,,,,0.905,0,,,,,,,,,,,,,,m,0,0.905,,,,,,,,0.351851889,-0.277777801,0,0,0,,0,55,55,88,1,GLUSH,HB,old,z,./images/GLUSHHB.png,,,,,,,,,,,,,,,,,,,,,,,,,,,,,,,,,,,
,,,,,,,,,,,,,,,,,5dcf4d27b039ab08c04d2740,21,2022-02-12_18h01.35.059,lexical_decision_task_DD,2021.2.3,Win32,60.06006006,,,,,,,,,,,0.7336,1,,,,,,,,,,,,,,z,1,0.7336,,,,,,,,0.351851889,-0.277777801,0,0,0,,0,56,56,111,1,HOSSE,C,old,z,./images/HOSSE.png,,,,,,,,,,,,,,,,,,,,,,,,,,,,,,,,,,,
,,,,,,,,,,,,,,,,,5dcf4d27b039ab08c04d2740,21,2022-02-12_18h01.35.059,lexical_decision_task_DD,2021.2.3,Win32,60.06006006,,,,,,,,,,,0.6648,1,,,,,,,,,,,,,,m,1,0.6648,,,,,,,,0.351851889,-0.277777801,0,0,0,,0,57,57,34,1,CANYON,HB,old,m,./images/CANYONHB.png,,,,,,,,,,,,,,,,,,,,,,,,,,,,,,,,,,,
,,,,,,,,,,,,,,,,,5dcf4d27b039ab08c04d2740,21,2022-02-12_18h01.35.059,lexical_decision_task_DD,2021.2.3,Win32,60.06006006,,,,,,,,,,,0.598,1,,,,,,,,,,,,,,m,1,0.598,,,,,,,,0.351851889,-0.277777801,0,0,0,,0,58,58,59,1,BURIAL,LB,old,m,./images/BURIALLB.png,,,,,,,,,,,,,,,,,,,,,,,,,,,,,,,,,,,
,,,,,,,,,,,,,,,,,5dcf4d27b039ab08c04d2740,21,2022-02-12_18h01.35.059,lexical_decision_task_DD,2021.2.3,Win32,60.06006006,,,,,,,,,,,0.5922,1,,,,,,,,,,,,,,m,1,0.5922,,,,,,,,0.351851889,-0.277777801,0,0,0,,0,59,59,83,1,JUNGLE,LB,old,m,./images/JUNGLELB.png,,,,,,,,,,,,,,,,,,,,,,,,,,,,,,,,,,,
,,,,,,,,,,,,,,,,,5dcf4d27b039ab08c04d2740,21,2022-02-12_18h01.35.059,lexical_decision_task_DD,2021.2.3,Win32,60.06006006,,,,,,,,,,,0.5819,1,,,,,,,,,,,,,,z,1,0.5819,,,,,,,,0.351851889,-0.277777801,0,0,0,,0,60,60,135,1,JOODY,C,old,z,./images/JOODY.png,,,,,,,,,,,,,,,,,,,,,,,,,,,,,,,,,,,
,,,,,,,,,,,,,,,,,5dcf4d27b039ab08c04d2740,21,2022-02-12_18h01.35.059,lexical_decision_task_DD,2021.2.3,Win32,60.06006006,,,,,,,,,,,0.6832,1,,,,,,,,,,,,,,z,1,0.6832,,,,,,,,0.351851889,-0.277777801,0,0,0,,0,61,61,89,1,DRIEK,LB,old,z,./images/DRIEKLB.png,,,,,,,,,,,,,,,,,,,,,,,,,,,,,,,,,,,
,,,,,,,,,,,,,,,,,5dcf4d27b039ab08c04d2740,21,2022-02-12_18h01.35.059,lexical_decision_task_DD,2021.2.3,Win32,60.06006006,,,,,,,,,,,0.5968,1,,,,,,,,,,,,,,z,1,0.5968,,,,,,,,0.351851889,-0.277777801,0,0,0,,0,62,62,143,1,MONGS,LB,old,z,./images/MONGSLB.png,,,,,,,,,,,,,,,,,,,,,,,,,,,,,,,,,,,
,,,,,,,,,,,,,,,,,5dcf4d27b039ab08c04d2740,21,2022-02-12_18h01.35.059,lexical_decision_task_DD,2021.2.3,Win32,60.06006006,,,,,,,,,,,0.8299,1,,,,,,,,,,,,,,z,1,0.8299,,,,,,,,0.351851889,-0.277777801,0,0,0,,0,63,63,109,1,BURGE,HB,old,z,./images/BURGEHB.png,,,,,,,,,,,,,,,,,,,,,,,,,,,,,,,,,,,
,,,,,,,,,,,,,,,,,5dcf4d27b039ab08c04d2740,21,2022-02-12_18h01.35.059,lexical_decision_task_DD,2021.2.3,Win32,60.06006006,,,,,,,,,,,0.808,0,,,,,,,,,,,,,,z,0,0.808,,,,,,,,0.351851889,-0.277777801,0,0,0,,0,64,64,49,1,DRUMS,HB,old,m,./images/DRUMSHB.png,,,,,,,,,,,,,,,,,,,,,,,,,,,,,,,,,,,
,,,,,,,,,,,,,,,,,5dcf4d27b039ab08c04d2740,21,2022-02-12_18h01.35.059,lexical_decision_task_DD,2021.2.3,Win32,60.06006006,,,,,,,,,,,0.5795,1,,,,,,,,,,,,,,z,1,0.5795,,,,,,,,0.351851889,-0.277777801,0,0,0,,0,65,65,107,1,FASKS,LB,old,z,./images/FASKSLB.png,,,,,,,,,,,,,,,,,,,,,,,,,,,,,,,,,,,
,,,,,,,,,,,,,,,,,5dcf4d27b039ab08c04d2740,21,2022-02-12_18h01.35.059,lexical_decision_task_DD,2021.2.3,Win32,60.06006006,,,,,,,,,,,0.5876,1,,,,,,,,,,,,,,z,1,0.5876,,,,,,,,0.351851889,-0.277777801,0,0,0,,0,66,66,98,1,BAMPS,LB,old,z,./images/BAMPSLB.png,,,,,,,,,,,,,,,,,,,,,,,,,,,,,,,,,,,
,,,,,,,,,,,,,,,,,5dcf4d27b039ab08c04d2740,21,2022-02-12_18h01.35.059,lexical_decision_task_DD,2021.2.3,Win32,60.06006006,,,,,,,,,,,0.5953,1,,,,,,,,,,,,,,m,1,0.5953,,,,,,,,0.351851889,-0.277777801,0,0,0,,0,67,67,51,1,ONION,C,old,m,./images/ONION.png,,,,,,,,,,,,,,,,,,,,,,,,,,,,,,,,,,,
,,,,,,,,,,,,,,,,,5dcf4d27b039ab08c04d2740,21,2022-02-12_18h01.35.059,lexical_decision_task_DD,2021.2.3,Win32,60.06006006,,,,,,,,,,,0.8222,1,,,,,,,,,,,,,,z,1,0.8222,,,,,,,,0.351851889,-0.277777801,0,0,0,,0,68,68,85,1,CHULK,HB,old,z,./images/CHULKHB.png,,,,,,,,,,,,,,,,,,,,,,,,,,,,,,,,,,,
,,,,,,,,,,,,,,,,,5dcf4d27b039ab08c04d2740,21,2022-02-12_18h01.35.059,lexical_decision_task_DD,2021.2.3,Win32,60.06006006,,,,,,,,,,,0.6694,1,,,,,,,,,,,,,,z,1,0.6694,,,,,,,,0.351851889,-0.277777801,0,0,0,,0,69,69,122,1,BLOOT,LB,old,z,./images/BLOOTLB.png,,,,,,,,,,,,,,,,,,,,,,,,,,,,,,,,,,,
,,,,,,,,,,,,,,,,,5dcf4d27b039ab08c04d2740,21,2022-02-12_18h01.35.059,lexical_decision_task_DD,2021.2.3,Win32,60.06006006,,,,,,,,,,,0.6844,1,,,,,,,,,,,,,,z,1,0.6844,,,,,,,,0.351851889,-0.277777801,0,0,0,,0,70,70,114,1,RIKES,C,old,z,./images/RIKES.png,,,,,,,,,,,,,,,,,,,,,,,,,,,,,,,,,,,
,,,,,,,,,,,,,,,,,5dcf4d27b039ab08c04d2740,21,2022-02-12_18h01.35.059,lexical_decision_task_DD,2021.2.3,Win32,60.06006006,,,,,,,,,,,0.5844,1,,,,,,,,,,,,,,z,1,0.5844,,,,,,,,0.351851889,-0.277777801,0,0,0,,0,71,71,126,1,GUELS,C,old,z,./images/GUELS.png,,,,,,,,,,,,,,,,,,,,,,,,,,,,,,,,,,,
,,,,,,,,,,,,,,,,,5dcf4d27b039ab08c04d2740,21,2022-02-12_18h01.35.059,lexical_decision_task_DD,2021.2.3,Win32,60.06006006,,,,,,,,,,,0.594,1,,,,,,,,,,,,,,z,1,0.594,,,,,,,,0.351851889,-0.277777801,0,0,0,,0,72,72,162,1,LEICH,C,old,z,./images/LEICH.png,,,,,,,,,,,,,,,,,,,,,,,,,,,,,,,,,,,
,,,,,,,,,,,,,,,,,5dcf4d27b039ab08c04d2740,21,2022-02-12_18h01.35.059,lexical_decision_task_DD,2021.2.3,Win32,60.06006006,,,,,,,,,,,0.7536,0,,,,,,,,,,,,,,z,0,0.7536,,,,,,,,0.351851889,-0.277777801,0,0,0,,0,73,73,10,1,BELLY,HB,old,m,./images/BELLYHB.png,,,,,,,,,,,,,,,,,,,,,,,,,,,,,,,,,,,
,,,,,,,,,,,,,,,,,5dcf4d27b039ab08c04d2740,21,2022-02-12_18h01.35.059,lexical_decision_task_DD,2021.2.3,Win32,60.06006006,,,,,,,,,,,0.7618,1,,,,,,,,,,,,,,m,1,0.7618,,,,,,,,0.351851889,-0.277777801,0,0,0,,0,74,74,25,1,WRIST,HB,old,m,./images/WRISTHB.png,,,,,,,,,,,,,,,,,,,,,,,,,,,,,,,,,,,
,,,,,,,,,,,,,,,,,5dcf4d27b039ab08c04d2740,21,2022-02-12_18h01.35.059,lexical_decision_task_DD,2021.2.3,Win32,60.06006006,,,,,,,,,,,0.6703,1,,,,,,,,,,,,,,z,1,0.6703,,,,,,,,0.351851889,-0.277777801,0,0,0,,0,75,75,93,1,SMONE,C,old,z,./images/SMONE.png,,,,,,,,,,,,,,,,,,,,,,,,,,,,,,,,,,,
,,,,,,,,,,,,,,,,,5dcf4d27b039ab08c04d2740,21,2022-02-12_18h01.35.059,lexical_decision_task_DD,2021.2.3,Win32,60.06006006,,,,,,,,,,,0.5844,1,,,,,,,,,,,,,,m,1,0.5844,,,,,,,,0.351851889,-0.277777801,0,0,0,,0,76,76,74,1,CEMENT,LB,old,m,./images/CEMENTLB.png,,,,,,,,,,,,,,,,,,,,,,,,,,,,,,,,,,,
,,,,,,,,,,,,,,,,,5dcf4d27b039ab08c04d2740,21,2022-02-12_18h01.35.059,lexical_decision_task_DD,2021.2.3,Win32,60.06006006,,,,,,,,,,,0.9063,1,,,,,,,,,,,,,,z,1,0.9063,,,,,,,,0.351851889,-0.277777801,0,0,0,,0,77,77,121,1,CEERS,HB,old,z,./images/CEERSHB.png,,,,,,,,,,,,,,,,,,,,,,,,,,,,,,,,,,,
,,,,,,,,,,,,,,,,,5dcf4d27b039ab08c04d2740,21,2022-02-12_18h01.35.059,lexical_decision_task_DD,2021.2.3,Win32,60.06006006,,,,,,,,,,,0.5855,1,,,,,,,,,,,,,,m,1,0.5855,,,,,,,,0.351851889,-0.277777801,0,0,0,,0,78,78,33,1,MAGGOT,C,old,m,./images/MAGGOT.png,,,,,,,,,,,,,,,,,,,,,,,,,,,,,,,,,,,
,,,,,,,,,,,,,,,,,5dcf4d27b039ab08c04d2740,21,2022-02-12_18h01.35.059,lexical_decision_task_DD,2021.2.3,Win32,60.06006006,,,,,,,,,,,0.7278,0,,,,,,,,,,,,,,z,0,0.7278,,,,,,,,0.351851889,-0.277777801,0,0,0,,0,79,79,67,1,SAILOR,HB,old,m,./images/SAILORHB.png,,,,,,,,,,,,,,,,,,,,,,,,,,,,,,,,,,,
,,,,,,,,,,,,,,,,,5dcf4d27b039ab08c04d2740,21,2022-02-12_18h01.35.059,lexical_decision_task_DD,2021.2.3,Win32,60.06006006,,,,,,,,,,,0.6669,1,,,,,,,,,,,,,,z,1,0.6669,,,,,,,,0.351851889,-0.277777801,0,0,0,,0,80,80,149,1,VEASE,LB,old,z,./images/VEASELB.png,,,,,,,,,,,,,,,,,,,,,,,,,,,,,,,,,,,
,,,,,,,,,,,,,,,,,5dcf4d27b039ab08c04d2740,21,2022-02-12_18h01.35.059,lexical_decision_task_DD,2021.2.3,Win32,60.06006006,,,,,,,,,,,0.6213,1,,,,,,,,,,,,,,m,1,0.6213,,,,,,,,0.351851889,-0.277777801,0,0,0,,0,81,81,68,1,TORCH,LB,old,m,./images/TORCHLB.png,,,,,,,,,,,,,,,,,,,,,,,,,,,,,,,,,,,
,,,,,,,,,,,,,,,,,5dcf4d27b039ab08c04d2740,21,2022-02-12_18h01.35.059,lexical_decision_task_DD,2021.2.3,Win32,60.06006006,,,,,,,,,,,0.58,1,,,,,,,,,,,,,,m,1,0.58,,,,,,,,0.351851889,-0.277777801,0,0,0,,0,82,82,38,1,LADDER,LB,old,m,./images/LADDERLB.png,,,,,,,,,,,,,,,,,,,,,,,,,,,,,,,,,,,
,,,,,,,,,,,,,,,,,5dcf4d27b039ab08c04d2740,21,2022-02-12_18h01.35.059,lexical_decision_task_DD,2021.2.3,Win32,60.06006006,,,,,,,,,,,0.6087,1,,,,,,,,,,,,,,z,1,0.6087,,,,,,,,0.351851889,-0.277777801,0,0,0,space,0,83,83,86,1,AIFED,LB,old,z,./images/AIFEDLB.png,24.5774,,,,,,,,,,,,,,,,,,,,,,,,,,,,,,,,,,
,,,,,,,,,,,,,,,,,5dcf4d27b039ab08c04d2740,21,2022-02-12_18h01.35.059,lexical_decision_task_DD,2021.2.3,Win32,60.06006006,,,,,,,,,,,0.6176,1,,,,,,,,,,,,,,z,1,0.6176,,,,,,,,0.351851889,-0.277777801,0,0,0,,0,84,84,113,1,LINEW,LB,old,z,./images/LINEWLB.png,,,,,,,,,,,,,,,,,,,,,,,,,,,,,,,,,,,
,,,,,,,,,,,,,,,,,5dcf4d27b039ab08c04d2740,21,2022-02-12_18h01.35.059,lexical_decision_task_DD,2021.2.3,Win32,60.06006006,,,,,,,,,,,0.5888,1,,,,,,,,,,,,,,m,1,0.5888,,,,,,,,0.351851889,-0.277777801,0,0,0,,0,85,85,65,1,FARMER,LB,old,m,./images/FARMERLB.png,,,,,,,,,,,,,,,,,,,,,,,,,,,,,,,,,,,
,,,,,,,,,,,,,,,,,5dcf4d27b039ab08c04d2740,21,2022-02-12_18h01.35.059,lexical_decision_task_DD,2021.2.3,Win32,60.06006006,,,,,,,,,,,0.5044,1,,,,,,,,,,,,,,m,1,0.5044,,,,,,,,0.351851889,-0.277777801,0,0,0,,0,86,86,3,1,FINGER,C,old,m,./images/FINGER.png,,,,,,,,,,,,,,,,,,,,,,,,,,,,,,,,,,,
,,,,,,,,,,,,,,,,,5dcf4d27b039ab08c04d2740,21,2022-02-12_18h01.35.059,lexical_decision_task_DD,2021.2.3,Win32,60.06006006,,,,,,,,,,,0.5961,1,,,,,,,,,,,,,,z,1,0.5961,,,,,,,,0.351851889,-0.277777801,0,0,0,,0,87,87,145,1,LAMEL,HB,old,z,./images/LAMELHB.png,,,,,,,,,,,,,,,,,,,,,,,,,,,,,,,,,,,
,,,,,,,,,,,,,,,,,5dcf4d27b039ab08c04d2740,21,2022-02-12_18h01.35.059,lexical_decision_task_DD,2021.2.3,Win32,60.06006006,,,,,,,,,,,0.7521,1,,,,,,,,,,,,,,z,1,0.7521,,,,,,,,0.351851889,-0.277777801,0,0,0,,0,88,88,110,1,CRUNK,LB,old,z,./images/CRUNKLB.png,,,,,,,,,,,,,,,,,,,,,,,,,,,,,,,,,,,
,,,,,,,,,,,,,,,,,5dcf4d27b039ab08c04d2740,21,2022-02-12_18h01.35.059,lexical_decision_task_DD,2021.2.3,Win32,60.06006006,,,,,,,,,,,0.665,1,,,,,,,,,,,,,,z,1,0.665,,,,,,,,0.351851889,-0.277777801,0,0,0,,0,89,89,138,1,PLICE,C,old,z,./images/PLICE.png,,,,,,,,,,,,,,,,,,,,,,,,,,,,,,,,,,,
,,,,,,,,,,,,,,,,,5dcf4d27b039ab08c04d2740,21,2022-02-12_18h01.35.059,lexical_decision_task_DD,2021.2.3,Win32,60.06006006,,,,,,,,,,,0.6821,1,,,,,,,,,,,,,,z,1,0.6821,,,,,,,,0.351851889,-0.277777801,0,0,0,,0,90,90,164,1,SGREW,LB,old,z,./images/SGREWLB.png,,,,,,,,,,,,,,,,,,,,,,,,,,,,,,,,,,,
,,,,,,,,,,,,,,,,,5dcf4d27b039ab08c04d2740,21,2022-02-12_18h01.35.059,lexical_decision_task_DD,2021.2.3,Win32,60.06006006,,,,,,,,,,,0.6679,1,,,,,,,,,,,,,,z,1,0.6679,,,,,,,,0.351851889,-0.277777801,0,0,0,,0,91,91,157,1,INLER,HB,old,z,./images/INLERHB.png,,,,,,,,,,,,,,,,,,,,,,,,,,,,,,,,,,,
,,,,,,,,,,,,,,,,,5dcf4d27b039ab08c04d2740,21,2022-02-12_18h01.35.059,lexical_decision_task_DD,2021.2.3,Win32,60.06006006,,,,,,,,,,,0.5905,1,,,,,,,,,,,,,,m,1,0.5905,,,,,,,,0.351851889,-0.277777801,0,0,0,,0,92,92,69,1,COOKER,C,old,m,./images/COOKER.png,,,,,,,,,,,,,,,,,,,,,,,,,,,,,,,,,,,
,,,,,,,,,,,,,,,,,5dcf4d27b039ab08c04d2740,21,2022-02-12_18h01.35.059,lexical_decision_task_DD,2021.2.3,Win32,60.06006006,,,,,,,,,,,0.5986,1,,,,,,,,,,,,,,z,1,0.5986,,,,,,,,0.351851889,-0.277777801,0,0,0,,0,93,93,165,1,TROWN,C,old,z,./images/TROWN.png,,,,,,,,,,,,,,,,,,,,,,,,,,,,,,,,,,,
,,,,,,,,,,,,,,,,,5dcf4d27b039ab08c04d2740,21,2022-02-12_18h01.35.059,lexical_decision_task_DD,2021.2.3,Win32,60.06006006,,,,,,,,,,,0.5831,1,,,,,,,,,,,,,,z,1,0.5831,,,,,,,,0.351851889,-0.277777801,0,0,0,,0,94,94,87,1,TRING,C,old,z,./images/TRING.png,,,,,,,,,,,,,,,,,,,,,,,,,,,,,,,,,,,
,,,,,,,,,,,,,,,,,5dcf4d27b039ab08c04d2740,21,2022-02-12_18h01.35.059,lexical_decision_task_DD,2021.2.3,Win32,60.06006006,,,,,,,,,,,0.612,1,,,,,,,,,,,,,,z,1,0.612,,,,,,,,0.351851889,-0.277777801,0,0,0,,0,95,95,141,1,PLEET,C,old,z,./images/PLEET.png,,,,,,,,,,,,,,,,,,,,,,,,,,,,,,,,,,,
,,,,,,,,,,,,,,,,,5dcf4d27b039ab08c04d2740,21,2022-02-12_18h01.35.059,lexical_decision_task_DD,2021.2.3,Win32,60.06006006,,,,,,,,,,,0.7003,1,,,,,,,,,,,,,,z,1,0.7003,,,,,,,,0.351851889,-0.277777801,0,0,0,,0,96,96,97,1,CHIDS,HB,old,z,./images/CHIDSHB.png,,,,,,,,,,,,,,,,,,,,,,,,,,,,,,,,,,,
,,,,,,,,,,,,,,,,,5dcf4d27b039ab08c04d2740,21,2022-02-12_18h01.35.059,lexical_decision_task_DD,2021.2.3,Win32,60.06006006,,,,,,,,,,,0.7113,1,,,,,,,,,,,,,,m,1,0.7113,,,,,,,,0.351851889,-0.277777801,0,0,0,,0,97,97,20,1,CRADLE,LB,old,m,./images/CRADLELB.png,,,,,,,,,,,,,,,,,,,,,,,,,,,,,,,,,,,
,,,,,,,,,,,,,,,,,5dcf4d27b039ab08c04d2740,21,2022-02-12_18h01.35.059,lexical_decision_task_DD,2021.2.3,Win32,60.06006006,,,,,,,,,,,1.1283,0,,,,,,,,,,,,,,z,0,1.1283,,,,,,,,0.351851889,-0.277777801,0,0,0,,0,98,98,16,1,PENCE,HB,old,m,./images/PENCEHB.png,,,,,,,,,,,,,,,,,,,,,,,,,,,,,,,,,,,
,,,,,,,,,,,,,,,,,5dcf4d27b039ab08c04d2740,21,2022-02-12_18h01.35.059,lexical_decision_task_DD,2021.2.3,Win32,60.06006006,,,,,,,,,,,0.7414,1,,,,,,,,,,,,,,m,1,0.7414,,,,,,,,0.351851889,-0.277777801,0,0,0,,0,99,99,46,1,PEARL,HB,old,m,./images/PEARLHB.png,,,,,,,,,,,,,,,,,,,,,,,,,,,,,,,,,,,
,,,,,,,,,,,,,,,,,5dcf4d27b039ab08c04d2740,21,2022-02-12_18h01.35.059,lexical_decision_task_DD,2021.2.3,Win32,60.06006006,,,,,,,,,,,0.5892,1,,,,,,,,,,,,,,m,1,0.5892,,,,,,,,0.351851889,-0.277777801,0,0,0,,0,100,100,45,1,KITTEN,C,old,m,./images/KITTEN.png,,,,,,,,,,,,,,,,,,,,,,,,,,,,,,,,,,,
,,,,,,,,,,,,,,,,,5dcf4d27b039ab08c04d2740,21,2022-02-12_18h01.35.059,lexical_decision_task_DD,2021.2.3,Win32,60.06006006,,,,,,,,,,,0.7611,1,,,,,,,,,,,,,,z,1,0.7611,,,,,,,,0.351851889,-0.277777801,0,0,0,,0,101,101,128,1,GRIFT,LB,old,z,./images/GRIFTLB.png,,,,,,,,,,,,,,,,,,,,,,,,,,,,,,,,,,,
,,,,,,,,,,,,,,,,,5dcf4d27b039ab08c04d2740,21,2022-02-12_18h01.35.059,lexical_decision_task_DD,2021.2.3,Win32,60.06006006,,,,,,,,,,,0.6603,1,,,,,,,,,,,,,,m,1,0.6603,,,,,,,,0.351851889,-0.277777801,0,0,0,,0,102,102,11,1,BONNET,LB,old,m,./images/BONNETLB.png,,,,,,,,,,,,,,,,,,,,,,,,,,,,,,,,,,,
,,,,,,,,,,,,,,,,,5dcf4d27b039ab08c04d2740,21,2022-02-12_18h01.35.059,lexical_decision_task_DD,2021.2.3,Win32,60.06006006,,,,,,,,,,,0.7368,1,,,,,,,,,,,,,,z,1,0.7368,,,,,,,,0.351851889,-0.277777801,0,0,0,,0,103,103,156,1,HIXES,C,old,z,./images/HIXES.png,,,,,,,,,,,,,,,,,,,,,,,,,,,,,,,,,,,
,,,,,,,,,,,,,,,,,5dcf4d27b039ab08c04d2740,21,2022-02-12_18h01.35.059,lexical_decision_task_DD,2021.2.3,Win32,60.06006006,,,,,,,,,,,0.5712,1,,,,,,,,,,,,,,z,1,0.5712,,,,,,,,0.351851889,-0.277777801,0,0,0,,0,104,104,99,1,BACKY,C,old,z,./images/BACKY.png,,,,,,,,,,,,,,,,,,,,,,,,,,,,,,,,,,,
,,,,,,,,,,,,,,,,,5dcf4d27b039ab08c04d2740,21,2022-02-12_18h01.35.059,lexical_decision_task_DD,2021.2.3,Win32,60.06006006,,,,,,,,,,,0.6583,1,,,,,,,,,,,,,,z,1,0.6583,,,,,,,,0.351851889,-0.277777801,0,0,0,,0,105,105,161,1,BLAPS,LB,old,z,./images/BLAPSLB.png,,,,,,,,,,,,,,,,,,,,,,,,,,,,,,,,,,,
,,,,,,,,,,,,,,,,,5dcf4d27b039ab08c04d2740,21,2022-02-12_18h01.35.059,lexical_decision_task_DD,2021.2.3,Win32,60.06006006,,,,,,,,,,,0.5955,1,,,,,,,,,,,,,,z,1,0.5955,,,,,,,,0.351851889,-0.277777801,0,0,0,,0,106,106,120,1,RINED,C,old,z,./images/RINED.png,,,,,,,,,,,,,,,,,,,,,,,,,,,,,,,,,,,
,,,,,,,,,,,,,,,,,5dcf4d27b039ab08c04d2740,21,2022-02-12_18h01.35.059,lexical_decision_task_DD,2021.2.3,Win32,60.06006006,,,,,,,,,,,0.6065,1,,,,,,,,,,,,,,z,1,0.6065,,,,,,,,0.351851889,-0.277777801,0,0,0,,0,107,107,90,1,NEAST,C,old,z,./images/NEAST.png,,,,,,,,,,,,,,,,,,,,,,,,,,,,,,,,,,,
,,,,,,,,,,,,,,,,,5dcf4d27b039ab08c04d2740,21,2022-02-12_18h01.35.059,lexical_decision_task_DD,2021.2.3,Win32,60.06006006,,,,,,,,,,,0.728,1,,,,,,,,,,,,,,m,1,0.728,,,,,,,,0.351851889,-0.277777801,0,0,0,,0,108,108,50,1,MALLET,LB,old,m,./images/MALLETLB.png,,,,,,,,,,,,,,,,,,,,,,,,,,,,,,,,,,,
,,,,,,,,,,,,,,,,,5dcf4d27b039ab08c04d2740,21,2022-02-12_18h01.35.059,lexical_decision_task_DD,2021.2.3,Win32,60.06006006,,,,,,,,,,,0.5865,1,,,,,,,,,,,,,,m,1,0.5865,,,,,,,,0.351851889,-0.277777801,0,0,0,,0,109,109,32,1,BARREL,LB,old,m,./images/BARRELLB.png,,,,,,,,,,,,,,,,,,,,,,,,,,,,,,,,,,,
,,,,,,,,,,,,,,,,,5dcf4d27b039ab08c04d2740,21,2022-02-12_18h01.35.059,lexical_decision_task_DD,2021.2.3,Win32,60.06006006,,,,,,,,,,,1.0503,1,,,,,,,,,,,,,,z,1,1.0503,,,,,,,,0.351851889,-0.277777801,0,0,0,,0,110,110,163,1,GAMBA,HB,old,z,./images/GAMBAHB.png,,,,,,,,,,,,,,,,,,,,,,,,,,,,,,,,,,,
,,,,,,,,,,,,,,,,,5dcf4d27b039ab08c04d2740,21,2022-02-12_18h01.35.059,lexical_decision_task_DD,2021.2.3,Win32,60.06006006,,,,,,,,,,,0.9125,1,,,,,,,,,,,,,,m,1,0.9125,,,,,,,,0.351851889,-0.277777801,0,0,0,,0,111,111,73,1,SNACK,HB,old,m,./images/SNACKHB.png,,,,,,,,,,,,,,,,,,,,,,,,,,,,,,,,,,,
,,,,,,,,,,,,,,,,,5dcf4d27b039ab08c04d2740,21,2022-02-12_18h01.35.059,lexical_decision_task_DD,2021.2.3,Win32,60.06006006,,,,,,,,,,,0.6768,1,,,,,,,,,,,,,,z,1,0.6768,,,,,,,,0.351851889,-0.277777801,0,0,0,,0,112,112,105,1,MOKER,C,old,z,./images/MOKER.png,,,,,,,,,,,,,,,,,,,,,,,,,,,,,,,,,,,
,,,,,,,,,,,,,,,,,5dcf4d27b039ab08c04d2740,21,2022-02-12_18h01.35.059,lexical_decision_task_DD,2021.2.3,Win32,60.06006006,,,,,,,,,,,0.8356,1,,,,,,,,,,,,,,z,1,0.8356,,,,,,,,0.351851889,-0.277777801,0,0,0,,0,113,113,139,1,BLEAR,HB,old,z,./images/BLEARHB.png,,,,,,,,,,,,,,,,,,,,,,,,,,,,,,,,,,,
,,,,,,,,,,,,,,,,,5dcf4d27b039ab08c04d2740,21,2022-02-12_18h01.35.059,lexical_decision_task_DD,2021.2.3,Win32,60.06006006,,,,,,,,,,,0.6718,1,,,,,,,,,,,,,,m,1,0.6718,,,,,,,,0.351851889,-0.277777801,0,0,0,,0,114,114,64,1,JELLY,HB,old,m,./images/JELLYHB.png,,,,,,,,,,,,,,,,,,,,,,,,,,,,,,,,,,,
,,,,,,,,,,,,,,,,,5dcf4d27b039ab08c04d2740,21,2022-02-12_18h01.35.059,lexical_decision_task_DD,2021.2.3,Win32,60.06006006,,,,,,,,,,,0.6786,1,,,,,,,,,,,,,,z,1,0.6786,,,,,,,,0.351851889,-0.277777801,0,0,0,,0,115,115,160,1,VEETS,HB,old,z,./images/VEETSHB.png,,,,,,,,,,,,,,,,,,,,,,,,,,,,,,,,,,,
,,,,,,,,,,,,,,,,,5dcf4d27b039ab08c04d2740,21,2022-02-12_18h01.35.059,lexical_decision_task_DD,2021.2.3,Win32,60.06006006,,,,,,,,,,,0.6624,1,,,,,,,,,,,,,,m,1,0.6624,,,,,,,,0.351851889,-0.277777801,0,0,0,,0,116,116,42,1,FOLDER,C,old,m,./images/FOLDER.png,,,,,,,,,,,,,,,,,,,,,,,,,,,,,,,,,,,
,,,,,,,,,,,,,,,,,5dcf4d27b039ab08c04d2740,21,2022-02-12_18h01.35.059,lexical_decision_task_DD,2021.2.3,Win32,60.06006006,,,,,,,,,,,0.612,1,,,,,,,,,,,,,,z,1,0.612,,,,,,,,0.351851889,-0.277777801,0,0,0,,0,117,117,154,1,THINT,HB,old,z,./images/THINTHB.png,,,,,,,,,,,,,,,,,,,,,,,,,,,,,,,,,,,
,,,,,,,,,,,,,,,,,5dcf4d27b039ab08c04d2740,21,2022-02-12_18h01.35.059,lexical_decision_task_DD,2021.2.3,Win32,60.06006006,,,,,,,,,,,0.6635,0,,,,,,,,,,,,,,z,0,0.6635,,,,,,,,0.351851889,-0.277777801,0,0,0,,0,118,118,22,1,MELON,HB,old,m,./images/MELONHB.png,,,,,,,,,,,,,,,,,,,,,,,,,,,,,,,,,,,
,,,,,,,,,,,,,,,,,5dcf4d27b039ab08c04d2740,21,2022-02-12_18h01.35.059,lexical_decision_task_DD,2021.2.3,Win32,60.06006006,,,,,,,,,,,0.5878,1,,,,,,,,,,,,,,z,1,0.5878,,,,,,,,0.351851889,-0.277777801,0,0,0,,0,119,119,117,1,STEEG,C,old,z,./images/STEEG.png,,,,,,,,,,,,,,,,,,,,,,,,,,,,,,,,,,,
,,,,,,,,,,,,,,,,,5dcf4d27b039ab08c04d2740,21,2022-02-12_18h01.35.059,lexical_decision_task_DD,2021.2.3,Win32,60.06006006,,,,,,,,,,,0.8251,1,,,,,,,,,,,,,,m,1,0.8251,,,,,,,,0.351851889,-0.277777801,0,0,0,,0,120,120,70,1,URINE,HB,old,m,./images/URINEHB.png,,,,,,,,,,,,,,,,,,,,,,,,,,,,,,,,,,,
,,,,,,,,,,,,,,,,,5dcf4d27b039ab08c04d2740,21,2022-02-12_18h01.35.059,lexical_decision_task_DD,2021.2.3,Win32,60.06006006,,,,,,,,,,,0.7092,1,,,,,,,,,,,,,,z,1,0.7092,,,,,,,,0.351851889,-0.277777801,0,0,0,,0,121,121,153,1,CLUPS,C,old,z,./images/CLUPS.png,,,,,,,,,,,,,,,,,,,,,,,,,,,,,,,,,,,
,,,,,,,,,,,,,,,,,5dcf4d27b039ab08c04d2740,21,2022-02-12_18h01.35.059,lexical_decision_task_DD,2021.2.3,Win32,60.06006006,,,,,,,,,,,0.6037,1,,,,,,,,,,,,,,z,1,0.6037,,,,,,,,0.351851889,-0.277777801,0,0,0,,0,122,122,132,1,SCIFF,C,old,z,./images/SCIFF.png,,,,,,,,,,,,,,,,,,,,,,,,,,,,,,,,,,,
,,,,,,,,,,,,,,,,,5dcf4d27b039ab08c04d2740,21,2022-02-12_18h01.35.059,lexical_decision_task_DD,2021.2.3,Win32,60.06006006,,,,,,,,,,,0.6011,1,,,,,,,,,,,,,,z,1,0.6011,,,,,,,,0.351851889,-0.277777801,0,0,0,,0,123,123,118,1,BAVEL,HB,old,z,./images/BAVELHB.png,,,,,,,,,,,,,,,,,,,,,,,,,,,,,,,,,,,
,,,,,,,,,,,,,,,,,5dcf4d27b039ab08c04d2740,21,2022-02-12_18h01.35.059,lexical_decision_task_DD,2021.2.3,Win32,60.06006006,,,,,,,,,,,0.6481,1,,,,,,,,,,,,,,m,1,0.6481,,,,,,,,0.351851889,-0.277777801,0,0,0,,0,124,124,26,1,SMOKER,LB,old,m,./images/SMOKERLB.png,,,,,,,,,,,,,,,,,,,,,,,,,,,,,,,,,,,
,,,,,,,,,,,,,,,,,5dcf4d27b039ab08c04d2740,21,2022-02-12_18h01.35.059,lexical_decision_task_DD,2021.2.3,Win32,60.06006006,,,,,,,,,,,0.7324,1,,,,,,,,,,,,,,m,1,0.7324,,,,,,,,0.351851889,-0.277777801,0,0,0,space,0,125,125,56,1,PACKET,LB,old,m,./images/PACKETLB.png,26.4477,,,,,,,,,,,,,,,,,,,,,,,,,,,,,,,,,,
,,,,,,,,,,,,,,,,,5dcf4d27b039ab08c04d2740,21,2022-02-12_18h01.35.059,lexical_decision_task_DD,2021.2.3,Win32,60.06006006,,,,,,,,,,,0.6531,1,,,,,,,,,,,,,,z,1,0.6531,,,,,,,,0.351851889,-0.277777801,0,0,0,,0,126,126,134,1,TROSS,LB,old,z,./images/TROSSLB.png,,,,,,,,,,,,,,,,,,,,,,,,,,,,,,,,,,,
,,,,,,,,,,,,,,,,,5dcf4d27b039ab08c04d2740,21,2022-02-12_18h01.35.059,lexical_decision_task_DD,2021.2.3,Win32,60.06006006,,,,,,,,,,,0.6642,1,,,,,,,,,,,,,,z,1,0.6642,,,,,,,,0.351851889,-0.277777801,0,0,0,,0,127,127,112,1,MYING,HB,old,z,./images/MYINGHB.png,,,,,,,,,,,,,,,,,,,,,,,,,,,,,,,,,,,
,,,,,,,,,,,,,,,,,5dcf4d27b039ab08c04d2740,21,2022-02-12_18h01.35.059,lexical_decision_task_DD,2021.2.3,Win32,60.06006006,,,,,,,,,,,0.6704,1,,,,,,,,,,,,,,z,1,0.6704,,,,,,,,0.351851889,-0.277777801,0,0,0,,0,128,128,94,1,BLANS,HB,old,z,./images/BLANSHB.png,,,,,,,,,,,,,,,,,,,,,,,,,,,,,,,,,,,
,,,,,,,,,,,,,,,,,5dcf4d27b039ab08c04d2740,21,2022-02-12_18h01.35.059,lexical_decision_task_DD,2021.2.3,Win32,60.06006006,,,,,,,,,,,0.6152,1,,,,,,,,,,,,,,z,1,0.6152,,,,,,,,0.351851889,-0.277777801,0,0,0,,0,129,129,137,1,JOOST,LB,old,z,./images/JOOSTLB.png,,,,,,,,,,,,,,,,,,,,,,,,,,,,,,,,,,,
,,,,,,,,,,,,,,,,,5dcf4d27b039ab08c04d2740,21,2022-02-12_18h01.35.059,lexical_decision_task_DD,2021.2.3,Win32,60.06006006,,,,,,,,,,,0.7565,1,,,,,,,,,,,,,,z,1,0.7565,,,,,,,,0.351851889,-0.277777801,0,0,0,,0,130,130,106,1,CLUMS,HB,old,z,./images/CLUMSHB.png,,,,,,,,,,,,,,,,,,,,,,,,,,,,,,,,,,,
,,,,,,,,,,,,,,,,,5dcf4d27b039ab08c04d2740,21,2022-02-12_18h01.35.059,lexical_decision_task_DD,2021.2.3,Win32,60.06006006,,,,,,,,,,,0.5824,1,,,,,,,,,,,,,,m,1,0.5824,,,,,,,,0.351851889,-0.277777801,0,0,0,,0,131,131,36,1,THROAT,C,old,m,./images/THROAT.png,,,,,,,,,,,,,,,,,,,,,,,,,,,,,,,,,,,
,,,,,,,,,,,,,,,,,5dcf4d27b039ab08c04d2740,21,2022-02-12_18h01.35.059,lexical_decision_task_DD,2021.2.3,Win32,60.06006006,,,,,,,,,,,0.5113,1,,,,,,,,,,,,,,m,1,0.5113,,,,,,,,0.351851889,-0.277777801,0,0,0,,0,132,132,6,1,SQUARE,C,old,m,./images/SQUARE.png,,,,,,,,,,,,,,,,,,,,,,,,,,,,,,,,,,,
,,,,,,,,,,,,,,,,,5dcf4d27b039ab08c04d2740,21,2022-02-12_18h01.35.059,lexical_decision_task_DD,2021.2.3,Win32,60.06006006,,,,,,,,,,,0.6809,0,,,,,,,,,,,,,,z,0,0.6809,,,,,,,,0.351851889,-0.277777801,0,0,0,,0,133,133,17,1,SKIING,LB,old,m,./images/SKIINGLB.png,,,,,,,,,,,,,,,,,,,,,,,,,,,,,,,,,,,
,,,,,,,,,,,,,,,,,5dcf4d27b039ab08c04d2740,21,2022-02-12_18h01.35.059,lexical_decision_task_DD,2021.2.3,Win32,60.06006006,,,,,,,,,,,0.5864,1,,,,,,,,,,,,,,m,1,0.5864,,,,,,,,0.351851889,-0.277777801,0,0,0,,0,134,134,14,1,PICKLE,LB,old,m,./images/PICKLELB.png,,,,,,,,,,,,,,,,,,,,,,,,,,,,,,,,,,,
,,,,,,,,,,,,,,,,,5dcf4d27b039ab08c04d2740,21,2022-02-12_18h01.35.059,lexical_decision_task_DD,2021.2.3,Win32,60.06006006,,,,,,,,,,,0.6837,1,,,,,,,,,,,,,,m,1,0.6837,,,,,,,,0.351851889,-0.277777801,0,0,0,,0,135,135,82,1,SUNSET,HB,old,m,./images/SUNSETHB.png,,,,,,,,,,,,,,,,,,,,,,,,,,,,,,,,,,,
,,,,,,,,,,,,,,,,,5dcf4d27b039ab08c04d2740,21,2022-02-12_18h01.35.059,lexical_decision_task_DD,2021.2.3,Win32,60.06006006,,,,,,,,,,,0.6556,1,,,,,,,,,,,,,,m,1,0.6556,,,,,,,,0.351851889,-0.277777801,0,0,0,,0,136,136,72,1,NOOSE,C,old,m,./images/NOOSE.png,,,,,,,,,,,,,,,,,,,,,,,,,,,,,,,,,,,
,,,,,,,,,,,,,,,,,5dcf4d27b039ab08c04d2740,21,2022-02-12_18h01.35.059,lexical_decision_task_DD,2021.2.3,Win32,60.06006006,,,,,,,,,,,0.5818,1,,,,,,,,,,,,,,m,1,0.5818,,,,,,,,0.351851889,-0.277777801,0,0,0,,0,137,137,7,1,PAINT,HB,old,m,./images/PAINTHB.png,,,,,,,,,,,,,,,,,,,,,,,,,,,,,,,,,,,
,,,,,,,,,,,,,,,,,5dcf4d27b039ab08c04d2740,21,2022-02-12_18h01.35.059,lexical_decision_task_DD,2021.2.3,Win32,60.06006006,,,,,,,,,,,0.7393,1,,,,,,,,,,,,,,z,1,0.7393,,,,,,,,0.351851889,-0.277777801,0,0,0,,0,138,138,108,1,GRUET,C,old,z,./images/GRUET.png,,,,,,,,,,,,,,,,,,,,,,,,,,,,,,,,,,,
,,,,,,,,,,,,,,,,,5dcf4d27b039ab08c04d2740,21,2022-02-12_18h01.35.059,lexical_decision_task_DD,2021.2.3,Win32,60.06006006,,,,,,,,,,,0.6506,1,,,,,,,,,,,,,,m,1,0.6506,,,,,,,,0.351851889,-0.277777801,0,0,0,,0,139,139,61,1,CANDLE,HB,old,m,./images/CANDLEHB.png,,,,,,,,,,,,,,,,,,,,,,,,,,,,,,,,,,,
,,,,,,,,,,,,,,,,,5dcf4d27b039ab08c04d2740,21,2022-02-12_18h01.35.059,lexical_decision_task_DD,2021.2.3,Win32,60.06006006,,,,,,,,,,,0.8992,1,,,,,,,,,,,,,,z,1,0.8992,,,,,,,,0.351851889,-0.277777801,0,0,0,,0,140,140,104,1,GITTY,LB,old,z,./images/GITTYLB.png,,,,,,,,,,,,,,,,,,,,,,,,,,,,,,,,,,,
,,,,,,,,,,,,,,,,,5dcf4d27b039ab08c04d2740,21,2022-02-12_18h01.35.059,lexical_decision_task_DD,2021.2.3,Win32,60.06006006,,,,,,,,,,,0.5834,1,,,,,,,,,,,,,,m,1,0.5834,,,,,,,,0.351851889,-0.277777801,0,0,0,,0,141,141,57,1,MOOSE,C,old,m,./images/MOOSE.png,,,,,,,,,,,,,,,,,,,,,,,,,,,,,,,,,,,
,,,,,,,,,,,,,,,,,5dcf4d27b039ab08c04d2740,21,2022-02-12_18h01.35.059,lexical_decision_task_DD,2021.2.3,Win32,60.06006006,,,,,,,,,,,0.7715,1,,,,,,,,,,,,,,z,1,0.7715,,,,,,,,0.351851889,-0.277777801,0,0,0,,0,142,142,115,1,MAWNS,HB,old,z,./images/MAWNSHB.png,,,,,,,,,,,,,,,,,,,,,,,,,,,,,,,,,,,
,,,,,,,,,,,,,,,,,5dcf4d27b039ab08c04d2740,21,2022-02-12_18h01.35.059,lexical_decision_task_DD,2021.2.3,Win32,60.06006006,,,,,,,,,,,0.6213,1,,,,,,,,,,,,,,m,1,0.6213,,,,,,,,0.351851889,-0.277777801,0,0,0,,0,143,143,24,1,SCREW,C,old,m,./images/SCREW.png,,,,,,,,,,,,,,,,,,,,,,,,,,,,,,,,,,,
,,,,,,,,,,,,,,,,,5dcf4d27b039ab08c04d2740,21,2022-02-12_18h01.35.059,lexical_decision_task_DD,2021.2.3,Win32,60.06006006,,,,,,,,,,,0.6037,1,,,,,,,,,,,,,,m,1,0.6037,,,,,,,,0.351851889,-0.277777801,0,0,0,,0,144,144,39,1,SHELF,C,old,m,./images/SHELF.png,,,,,,,,,,,,,,,,,,,,,,,,,,,,,,,,,,,
,,,,,,,,,,,,,,,,,5dcf4d27b039ab08c04d2740,21,2022-02-12_18h01.35.059,lexical_decision_task_DD,2021.2.3,Win32,60.06006006,,,,,,,,,,,0.6241,1,,,,,,,,,,,,,,m,1,0.6241,,,,,,,,0.351851889,-0.277777801,0,0,0,,0,145,145,27,1,ATTIC,C,old,m,./images/ATTIC.png,,,,,,,,,,,,,,,,,,,,,,,,,,,,,,,,,,,
,,,,,,,,,,,,,,,,,5dcf4d27b039ab08c04d2740,21,2022-02-12_18h01.35.059,lexical_decision_task_DD,2021.2.3,Win32,60.06006006,,,,,,,,,,,0.5933,1,,,,,,,,,,,,,,z,1,0.5933,,,,,,,,0.351851889,-0.277777801,0,0,0,,0,146,146,167,1,ZONET,LB,old,z,./images/ZONETLB.png,,,,,,,,,,,,,,,,,,,,,,,,,,,,,,,,,,,
,,,,,,,,,,,,,,,,,5dcf4d27b039ab08c04d2740,21,2022-02-12_18h01.35.059,lexical_decision_task_DD,2021.2.3,Win32,60.06006006,,,,,,,,,,,0.5807,1,,,,,,,,,,,,,,m,1,0.5807,,,,,,,,0.351851889,-0.277777801,0,0,0,,0,147,147,53,1,CARPET,LB,old,m,./images/CARPETLB.png,,,,,,,,,,,,,,,,,,,,,,,,,,,,,,,,,,,
,,,,,,,,,,,,,,,,,5dcf4d27b039ab08c04d2740,21,2022-02-12_18h01.35.059,lexical_decision_task_DD,2021.2.3,Win32,60.06006006,,,,,,,,,,,0.6835,1,,,,,,,,,,,,,,z,1,0.6835,,,,,,,,0.351851889,-0.277777801,0,0,0,,0,148,148,125,1,MOOKY,LB,old,z,./images/MOOKYLB.png,,,,,,,,,,,,,,,,,,,,,,,,,,,,,,,,,,,
,,,,,,,,,,,,,,,,,5dcf4d27b039ab08c04d2740,21,2022-02-12_18h01.35.059,lexical_decision_task_DD,2021.2.3,Win32,60.06006006,,,,,,,,,,,0.7721,1,,,,,,,,,,,,,,m,1,0.7721,,,,,,,,0.351851889,-0.277777801,0,0,0,,0,149,149,71,1,PIMPLE,LB,old,m,./images/PIMPLELB.png,,,,,,,,,,,,,,,,,,,,,,,,,,,,,,,,,,,
,,,,,,,,,,,,,,,,,5dcf4d27b039ab08c04d2740,21,2022-02-12_18h01.35.059,lexical_decision_task_DD,2021.2.3,Win32,60.06006006,,,,,,,,,,,0.5653,1,,,,,,,,,,,,,,m,1,0.5653,,,,,,,,0.351851889,-0.277777801,0,0,0,,0,150,150,23,1,WALRUS,LB,old,m,./images/WALRUSLB.png,,,,,,,,,,,,,,,,,,,,,,,,,,,,,,,,,,,
,,,,,,,,,,,,,,,,,5dcf4d27b039ab08c04d2740,21,2022-02-12_18h01.35.059,lexical_decision_task_DD,2021.2.3,Win32,60.06006006,,,,,,,,,,,0.7205,1,,,,,,,,,,,,,,m,1,0.7205,,,,,,,,0.351851889,-0.277777801,0,0,0,,0,151,151,76,1,INFANT,HB,old,m,./images/INFANTHB.png,,,,,,,,,,,,,,,,,,,,,,,,,,,,,,,,,,,
,,,,,,,,,,,,,,,,,5dcf4d27b039ab08c04d2740,21,2022-02-12_18h01.35.059,lexical_decision_task_DD,2021.2.3,Win32,60.06006006,,,,,,,,,,,0.7503,1,,,,,,,,,,,,,,m,1,0.7503,,,,,,,,0.351851889,-0.277777801,0,0,0,,0,152,152,62,1,PURSE,LB,old,m,./images/PURSELB.png,,,,,,,,,,,,,,,,,,,,,,,,,,,,,,,,,,,
,,,,,,,,,,,,,,,,,5dcf4d27b039ab08c04d2740,21,2022-02-12_18h01.35.059,lexical_decision_task_DD,2021.2.3,Win32,60.06006006,,,,,,,,,,,0.755,1,,,,,,,,,,,,,,z,1,0.755,,,,,,,,0.351851889,-0.277777801,0,0,0,,0,153,153,155,1,CANGY,LB,old,z,./images/CANGYLB.png,,,,,,,,,,,,,,,,,,,,,,,,,,,,,,,,,,,
,,,,,,,,,,,,,,,,,5dcf4d27b039ab08c04d2740,21,2022-02-12_18h01.35.059,lexical_decision_task_DD,2021.2.3,Win32,60.06006006,,,,,,,,,,,0.5872,1,,,,,,,,,,,,,,m,1,0.5872,,,,,,,,0.351851889,-0.277777801,0,0,0,,0,154,154,35,1,PEACH,LB,old,m,./images/PEACHLB.png,,,,,,,,,,,,,,,,,,,,,,,,,,,,,,,,,,,
,,,,,,,,,,,,,,,,,5dcf4d27b039ab08c04d2740,21,2022-02-12_18h01.35.059,lexical_decision_task_DD,2021.2.3,Win32,60.06006006,,,,,,,,,,,0.5069,1,,,,,,,,,,,,,,m,1,0.5069,,,,,,,,0.351851889,-0.277777801,0,0,0,,0,155,155,30,1,STORM,C,old,m,./images/STORM.png,,,,,,,,,,,,,,,,,,,,,,,,,,,,,,,,,,,
,,,,,,,,,,,,,,,,,5dcf4d27b039ab08c04d2740,21,2022-02-12_18h01.35.059,lexical_decision_task_DD,2021.2.3,Win32,60.06006006,,,,,,,,,,,0.6738,1,,,,,,,,,,,,,,m,1,0.6738,,,,,,,,0.351851889,-0.277777801,0,0,0,,0,156,156,18,1,JAGUAR,C,old,m,./images/JAGUAR.png,,,,,,,,,,,,,,,,,,,,,,,,,,,,,,,,,,,
,,,,,,,,,,,,,,,,,5dcf4d27b039ab08c04d2740,21,2022-02-12_18h01.35.059,lexical_decision_task_DD,2021.2.3,Win32,60.06006006,,,,,,,,,,,0.5884,1,,,,,,,,,,,,,,m,1,0.5884,,,,,,,,0.351851889,-0.277777801,0,0,0,,0,157,157,66,1,SWEAT,C,old,m,./images/SWEAT.png,,,,,,,,,,,,,,,,,,,,,,,,,,,,,,,,,,,
,,,,,,,,,,,,,,,,,5dcf4d27b039ab08c04d2740,21,2022-02-12_18h01.35.059,lexical_decision_task_DD,2021.2.3,Win32,60.06006006,,,,,,,,,,,0.692,1,,,,,,,,,,,,,,m,1,0.692,,,,,,,,0.351851889,-0.277777801,0,0,0,,0,158,158,8,1,TULIP,LB,old,m,./images/TULIPLB.png,,,,,,,,,,,,,,,,,,,,,,,,,,,,,,,,,,,
,,,,,,,,,,,,,,,,,5dcf4d27b039ab08c04d2740,21,2022-02-12_18h01.35.059,lexical_decision_task_DD,2021.2.3,Win32,60.06006006,,,,,,,,,,,0.5008,1,,,,,,,,,,,,,,m,1,0.5008,,,,,,,,0.351851889,-0.277777801,0,0,0,,0,159,159,41,1,STRING,LB,old,m,./images/STRINGLB.png,,,,,,,,,,,,,,,,,,,,,,,,,,,,,,,,,,,
,,,,,,,,,,,,,,,,,5dcf4d27b039ab08c04d2740,21,2022-02-12_18h01.35.059,lexical_decision_task_DD,2021.2.3,Win32,60.06006006,,,,,,,,,,,0.902,1,,,,,,,,,,,,,,m,1,0.902,,,,,,,,0.351851889,-0.277777801,0,0,0,,0,160,160,43,1,MOSQUE,HB,old,m,./images/MOSQUEHB.png,,,,,,,,,,,,,,,,,,,,,,,,,,,,,,,,,,,
,,,,,,,,,,,,,,,,,5dcf4d27b039ab08c04d2740,21,2022-02-12_18h01.35.059,lexical_decision_task_DD,2021.2.3,Win32,60.06006006,,,,,,,,,,,0.7448,1,,,,,,,,,,,,,,z,1,0.7448,,,,,,,,0.351851889,-0.277777801,0,0,0,,0,161,161,129,1,PRANS,C,old,z,./images/PRANS.png,,,,,,,,,,,,,,,,,,,,,,,,,,,,,,,,,,,
,,,,,,,,,,,,,,,,,5dcf4d27b039ab08c04d2740,21,2022-02-12_18h01.35.059,lexical_decision_task_DD,2021.2.3,Win32,60.06006006,,,,,,,,,,,0.8169,0,,,,,,,,,,,,,,z,0,0.8169,,,,,,,,0.351851889,-0.277777801,0,0,0,,0,162,162,4,1,MUSCLE,HB,old,m,./images/MUSCLEHB.png,,,,,,,,,,,,,,,,,,,,,,,,,,,,,,,,,,,
,,,,,,,,,,,,,,,,,5dcf4d27b039ab08c04d2740,21,2022-02-12_18h01.35.059,lexical_decision_task_DD,2021.2.3,Win32,60.06006006,,,,,,,,,,,0.6176,1,,,,,,,,,,,,,,m,1,0.6176,,,,,,,,0.351851889,-0.277777801,0,0,0,,0,163,163,80,1,WEASEL,LB,old,m,./images/WEASELLB.png,,,,,,,,,,,,,,,,,,,,,,,,,,,,,,,,,,,
,,,,,,,,,,,,,,,,,5dcf4d27b039ab08c04d2740,21,2022-02-12_18h01.35.059,lexical_decision_task_DD,2021.2.3,Win32,60.06006006,,,,,,,,,,,0.7839,1,,,,,,,,,,,,,,z,1,0.7839,,,,,,,,0.351851889,-0.277777801,0,0,0,,0,164,164,150,1,NOOLS,C,old,z,./images/NOOLS.png,,,,,,,,,,,,,,,,,,,,,,,,,,,,,,,,,,,
,,,,,,,,,,,,,,,,,5dcf4d27b039ab08c04d2740,21,2022-02-12_18h01.35.059,lexical_decision_task_DD,2021.2.3,Win32,60.06006006,,,,,,,,,,,0.9037,1,,,,,,,,,,,,,,z,1,0.9037,,,,,,,,0.351851889,-0.277777801,0,0,0,,0,165,165,136,1,WERVE,HB,old,z,./images/WERVEHB.png,,,,,,,,,,,,,,,,,,,,,,,,,,,,,,,,,,,
,,,,,,,,,,,,,,,,,5dcf4d27b039ab08c04d2740,21,2022-02-12_18h01.35.059,lexical_decision_task_DD,2021.2.3,Win32,60.06006006,,,,,,,,,,,0.5772,0,,,,,,,,,,,,,,m,0,0.5772,,,,,,,,0.351851889,-0.277777801,0,0,0,,0,166,166,159,1,CUDDY,C,old,z,./images/CUDDY.png,,,,,,,,,,,,,,,,,,,,,,,,,,,,,,,,,,,
,,,,,,,,,,,,,,,,,5dcf4d27b039ab08c04d2740,21,2022-02-12_18h01.35.059,lexical_decision_task_DD,2021.2.3,Win32,60.06006006,,,,,,,,,,,1.3334,1,,,,,,,,,,,,,,m,1,1.3334,,,,,,,,0.351851889,-0.277777801,0,0,0,,0,167,167,31,1,QUILL,HB,old,m,./images/QUILLHB.png,,,,,,,,,,,,,,,,,,,,,,,,,,,,,,,,,,,
,,,,,,,,,,,,,,,,,5dcf4d27b039ab08c04d2740,21,2022-02-12_18h01.35.059,lexical_decision_task_DD,2021.2.3,Win32,60.06006006,,,,,,,,,,,,,,,,,,,,,,,,,,,,,,,,,,,,,,,,,,,,,,,,How likely will it be that you will recognize the words presented slighly blurred on a scale of 0 (not likely) to 100 (most likely)?,,,,,-0.012036954,-0.414814842,1,0,0,jol_adv,5,10.7222,0,0,0,1,1,,,,,,,,,,,,,,,,,,,,,
,,,,,,,,,,,,,,,,,5dcf4d27b039ab08c04d2740,21,2022-02-12_18h01.35.059,lexical_decision_task_DD,2021.2.3,Win32,60.06006006,,,,,,,,,,,,,,,,,,,,,,,,,,,,,,,,,,,,,,,,,,,,,,,,How likely will it be that you will recognize the words presented very blurred on a scale of 0 (not likely) to 100 (most likely)?,,,,,,,,,,,2,4.0886,0,1,1,2,1,,,,,,,,,,,,,,,,,,,,,
,,,,,,,,,,,,,,,,,5dcf4d27b039ab08c04d2740,21,2022-02-12_18h01.35.059,lexical_decision_task_DD,2021.2.3,Win32,60.06006006,,,,,,,,,,,,,,,,,,,,,,,,,,,,,,,,,,,,,,,,,,,,,,,,How likely will it be that you will recognize the words presented clearly on a scale of 0 (not likely) to 100 (most likely)?,,,,,,,,,,,6,3.3605,0,2,2,0,1,,,,,,,,,,,,,,,,,,,,,
space,7.9291,0.424074113,-0.200000021,0,0,0,,,,,,1,test,"In the next phase you will be presented with the words from the the first phase. Your job is to decide whether you remember seeing the word or not. If you remember seeing the word press ""old"" or type ""m"". If you do not remember seeing the word press ""new"" or type ""z"". Please press the space bar or click on continue to begin. ",,,5dcf4d27b039ab08c04d2740,21,2022-02-12_18h01.35.059,lexical_decision_task_DD,2021.2.3,Win32,60.06006006,,,,,,,,,,,,,,,,,,,,,,,,,,,,,,,,,,,,,,,,,,,,,,,,,,,,,,,,,,,,,,,,,,0,0,0,0,1,,,,,,,,,,,,,,,,
space,7.7569,0.424074113,-0.200000021,0,0,0,,,,,,1,test,"In the next phase you will be presented with the words from the the first phase. Your job is to decide whether you remember seeing the word or not. If you remember seeing the word press ""old"" or type ""m"". If you do not remember seeing the word press ""new"" or type ""z"". Please press the space bar or click on continue to begin. ",,,5dcf4d27b039ab08c04d2740,21,2022-02-12_18h01.35.059,lexical_decision_task_DD,2021.2.3,Win32,60.06006006,,,,,,,,,,,,,,,,,,,,,,,,,,,,,,,,,,,,,,,,,,,,,,,,,,,,,,,,,,,,,,,,,,1,0,1,0,1,,,,,,,,,,,,,,,,
,,0.115740771,-0.410185269,1,0,0,,,,,,1,test,"In the next phase you will be presented with the words from the the first phase. Your job is to decide whether you remember seeing the word or not. If you remember seeing the word press ""old"" or type ""m"". If you do not remember seeing the word press ""new"" or type ""z"". Please press the space bar or click on continue to begin. ",,,5dcf4d27b039ab08c04d2740,21,2022-02-12_18h01.35.059,lexical_decision_task_DD,2021.2.3,Win32,60.06006006,,,,,,,,,,,,,,,,,,,,,,,,,,,,,,,,,,,,,,,,,,,,,,,,,,,,,,,,,,,,,,,,,,2,0,2,0,1,instr_done_button,,,,,,,,,,,,,,,
,,0.115740771,-0.412963047,1,0,0,,,,,,1,test,"In the next phase you will be presented with the words from the the first phase. Your job is to decide whether you remember seeing the word or not. If you remember seeing the word press ""old"" or type ""m"". If you do not remember seeing the word press ""new"" or type ""z"". Please press the space bar or click on continue to begin. ",,,5dcf4d27b039ab08c04d2740,21,2022-02-12_18h01.35.059,lexical_decision_task_DD,2021.2.3,Win32,60.06006006,,,,,,,,,,,,,,,,,,,,,,,,,,,,,,,,,,,,,,,,,,,,,,,,,,,,,,,,,,,,,,,,,,3,0,3,0,1,instr_done_button,,,,,,,,,,,,,,,
,,0.115740771,-0.412963047,1,0,0,,,,,,1,test,"In the next phase you will be presented with the words from the the first phase. Your job is to decide whether you remember seeing the word or not. If you remember seeing the word press ""old"" or type ""m"". If you do not remember seeing the word press ""new"" or type ""z"". Please press the space bar or click on continue to begin. ",,,5dcf4d27b039ab08c04d2740,21,2022-02-12_18h01.35.059,lexical_decision_task_DD,2021.2.3,Win32,60.06006006,,,,,,,,,,,,,,,,,,,,,,,,,,,,,,,,,,,,,,,,,,,,,,,,,,,,,,,,,,,,,,,,,,4,0,4,0,1,instr_done_button,,,,,,,,,,,,,,,
,,,,,,,,,,,,,,,,,5dcf4d27b039ab08c04d2740,21,2022-02-12_18h01.35.059,lexical_decision_task_DD,2021.2.3,Win32,60.06006006,,,,,,,,,,,2.9987,1,,,,,,,,,,,,,,,,,,,,,,,,0.115740771,-0.412963047,0,0,0,,,,,,,CHALK,HB,z,m,./images/CHALKHB.png,,,,,,,,,,,,,,,,,,,,,z,1,2.9987,,,,,,,,0,0,0,109,1
,,,,,,,,,,,,,,,,,5dcf4d27b039ab08c04d2740,21,2022-02-12_18h01.35.059,lexical_decision_task_DD,2021.2.3,Win32,60.06006006,,,,,,,,,,,0.9452,1,,,,,,,,,,,,,,,,,,,,,,,,0.115740771,-0.412963047,0,0,0,,,,,,,BEARD,LB,m,m,./images/BEARDLB.png,,,,,,,,,,,,,,,,,,,,,m,1,0.9452,,,,,,,,0,1,1,2,1
,,,,,,,,,,,,,,,,,5dcf4d27b039ab08c04d2740,21,2022-02-12_18h01.35.059,lexical_decision_task_DD,2021.2.3,Win32,60.06006006,,,,,,,,,,,0.7753,1,,,,,,,,,,,,,,,,,,,,,,,,0.115740771,-0.412963047,0,0,0,,,,,,,DANCER,C,z,m,./images/DANCER.png,,,,,,,,,,,,,,,,,,,,,z,1,0.7753,,,,,,,,0,2,2,105,1
,,,,,,,,,,,,,,,,,5dcf4d27b039ab08c04d2740,21,2022-02-12_18h01.35.059,lexical_decision_task_DD,2021.2.3,Win32,60.06006006,,,,,,,,,,,0.7091,1,,,,,,,,,,,,,,,,,,,,,,,,0.115740771,-0.412963047,0,0,0,,,,,,,COOKER,C,m,m,./images/COOKER.png,,,,,,,,,,,,,,,,,,,,,m,1,0.7091,,,,,,,,0,3,3,69,1
,,,,,,,,,,,,,,,,,5dcf4d27b039ab08c04d2740,21,2022-02-12_18h01.35.059,lexical_decision_task_DD,2021.2.3,Win32,60.06006006,,,,,,,,,,,0.6378,1,,,,,,,,,,,,,,,,,,,,,,,,0.115740771,-0.412963047,0,0,0,,,,,,,BARREL,LB,m,m,./images/BARRELLB.png,,,,,,,,,,,,,,,,,,,,,m,1,0.6378,,,,,,,,0,4,4,32,1
,,,,,,,,,,,,,,,,,5dcf4d27b039ab08c04d2740,21,2022-02-12_18h01.35.059,lexical_decision_task_DD,2021.2.3,Win32,60.06006006,,,,,,,,,,,0.8351,1,,,,,,,,,,,,,,,,,,,,,,,,0.115740771,-0.412963047,0,0,0,,,,,,,TIGER,HB,z,m,./images/TIGERHB.png,,,,,,,,,,,,,,,,,,,,,z,1,0.8351,,,,,,,,0,5,5,121,1
,,,,,,,,,,,,,,,,,5dcf4d27b039ab08c04d2740,21,2022-02-12_18h01.35.059,lexical_decision_task_DD,2021.2.3,Win32,60.06006006,,,,,,,,,,,0.7637,1,,,,,,,,,,,,,,,,,,,,,,,,0.115740771,-0.412963047,0,0,0,,,,,,,FLASK,C,z,m,./images/FLASK.png,,,,,,,,,,,,,,,,,,,,,z,1,0.7637,,,,,,,,0,6,6,156,1
,,,,,,,,,,,,,,,,,5dcf4d27b039ab08c04d2740,21,2022-02-12_18h01.35.059,lexical_decision_task_DD,2021.2.3,Win32,60.06006006,,,,,,,,,,,0.6992,1,,,,,,,,,,,,,,,,,,,,,,,,0.115740771,-0.412963047,0,0,0,,,,,,,BABOON,HB,m,m,./images/BABOONHB.png,,,,,,,,,,,,,,,,,,,,,m,1,0.6992,,,,,,,,0,7,7,58,1
,,,,,,,,,,,,,,,,,5dcf4d27b039ab08c04d2740,21,2022-02-12_18h01.35.059,lexical_decision_task_DD,2021.2.3,Win32,60.06006006,,,,,,,,,,,1.1372,0,,,,,,,,,,,,,,,,,,,,,,,,0.115740771,-0.412963047,0,0,0,,,,,,,ENGINE,LB,z,m,./images/ENGINELB.png,,,,,,,,,,,,,,,,,,,,,m,0,1.1372,,,,,,,,0,8,8,122,1
,,,,,,,,,,,,,,,,,5dcf4d27b039ab08c04d2740,21,2022-02-12_18h01.35.059,lexical_decision_task_DD,2021.2.3,Win32,60.06006006,,,,,,,,,,,0.5643,1,,,,,,,,,,,,,,,,,,,,,,,,0.115740771,-0.412963047,0,0,0,,,,,,,MOTOR,HB,m,m,./images/MOTORHB.png,,,,,,,,,,,,,,,,,,,,,m,1,0.5643,,,,,,,,0,9,9,13,1
,,,,,,,,,,,,,,,,,5dcf4d27b039ab08c04d2740,21,2022-02-12_18h01.35.059,lexical_decision_task_DD,2021.2.3,Win32,60.06006006,,,,,,,,,,,0.5579,1,,,,,,,,,,,,,,,,,,,,,,,,0.115740771,-0.412963047,0,0,0,,,,,,,COUCH,LB,m,m,./images/COUCHLB.png,,,,,,,,,,,,,,,,,,,,,m,1,0.5579,,,,,,,,0,10,10,77,1
,,,,,,,,,,,,,,,,,5dcf4d27b039ab08c04d2740,21,2022-02-12_18h01.35.059,lexical_decision_task_DD,2021.2.3,Win32,60.06006006,,,,,,,,,,,0.6723,1,,,,,,,,,,,,,,,,,,,,,,,,0.115740771,-0.412963047,0,0,0,,,,,,,TRIPOD,C,m,m,./images/TRIPOD.png,,,,,,,,,,,,,,,,,,,,,m,1,0.6723,,,,,,,,0,11,11,54,1
,,,,,,,,,,,,,,,,,5dcf4d27b039ab08c04d2740,21,2022-02-12_18h01.35.059,lexical_decision_task_DD,2021.2.3,Win32,60.06006006,,,,,,,,,,,0.8239,1,,,,,,,,,,,,,,,,,,,,,,,,0.115740771,-0.412963047,0,0,0,,,,,,,CLOUD,LB,z,m,./images/CLOUDLB.png,,,,,,,,,,,,,,,,,,,,,z,1,0.8239,,,,,,,,0,12,12,110,1
,,,,,,,,,,,,,,,,,5dcf4d27b039ab08c04d2740,21,2022-02-12_18h01.35.059,lexical_decision_task_DD,2021.2.3,Win32,60.06006006,,,,,,,,,,,0.6992,1,,,,,,,,,,,,,,,,,,,,,,,,0.115740771,-0.412963047,0,0,0,,,,,,,CARPET,LB,m,m,./images/CARPETLB.png,,,,,,,,,,,,,,,,,,,,,m,1,0.6992,,,,,,,,0,13,13,53,1
,,,,,,,,,,,,,,,,,5dcf4d27b039ab08c04d2740,21,2022-02-12_18h01.35.059,lexical_decision_task_DD,2021.2.3,Win32,60.06006006,,,,,,,,,,,0.7578,1,,,,,,,,,,,,,,,,,,,,,,,,0.115740771,-0.412963047,0,0,0,,,,,,,DRILL,C,z,m,./images/DRILL.png,,,,,,,,,,,,,,,,,,,,,z,1,0.7578,,,,,,,,0,14,14,165,1
,,,,,,,,,,,,,,,,,5dcf4d27b039ab08c04d2740,21,2022-02-12_18h01.35.059,lexical_decision_task_DD,2021.2.3,Win32,60.06006006,,,,,,,,,,,0.7624,0,,,,,,,,,,,,,,,,,,,,,,,,0.115740771,-0.412963047,0,0,0,,,,,,,PASTA,LB,m,m,./images/PASTALB.png,,,,,,,,,,,,,,,,,,,,,z,0,0.7624,,,,,,,,0,15,15,5,1
,,,,,,,,,,,,,,,,,5dcf4d27b039ab08c04d2740,21,2022-02-12_18h01.35.059,lexical_decision_task_DD,2021.2.3,Win32,60.06006006,,,,,,,,,,,0.6233,1,,,,,,,,,,,,,,,,,,,,,,,,0.115740771,-0.412963047,0,0,0,,,,,,,QUILL,HB,m,m,./images/QUILLHB.png,,,,,,,,,,,,,,,,,,,,,m,1,0.6233,,,,,,,,0,16,16,31,1
,,,,,,,,,,,,,,,,,5dcf4d27b039ab08c04d2740,21,2022-02-12_18h01.35.059,lexical_decision_task_DD,2021.2.3,Win32,60.06006006,,,,,,,,,,,1.0801,1,,,,,,,,,,,,,,,,,,,,,,,,0.115740771,-0.412963047,0,0,0,,,,,,,MONKEY,C,z,m,./images/MONKEY.png,,,,,,,,,,,,,,,,,,,,,z,1,1.0801,,,,,,,,0,17,17,129,1
,,,,,,,,,,,,,,,,,5dcf4d27b039ab08c04d2740,21,2022-02-12_18h01.35.059,lexical_decision_task_DD,2021.2.3,Win32,60.06006006,,,,,,,,,,,0.8727,1,,,,,,,,,,,,,,,,,,,,,,,,0.115740771,-0.412963047,0,0,0,,,,,,,TOMATO,C,m,m,./images/TOMATO.png,,,,,,,,,,,,,,,,,,,,,m,1,0.8727,,,,,,,,0,18,18,0,1
,,,,,,,,,,,,,,,,,5dcf4d27b039ab08c04d2740,21,2022-02-12_18h01.35.059,lexical_decision_task_DD,2021.2.3,Win32,60.06006006,,,,,,,,,,,0.5703,1,,,,,,,,,,,,,,,,,,,,,,,,0.115740771,-0.412963047,0,0,0,,,,,,,STORM,C,m,m,./images/STORM.png,,,,,,,,,,,,,,,,,,,,,m,1,0.5703,,,,,,,,0,19,19,30,1
,,,,,,,,,,,,,,,,,5dcf4d27b039ab08c04d2740,21,2022-02-12_18h01.35.059,lexical_decision_task_DD,2021.2.3,Win32,60.06006006,,,,,,,,,,,0.7989,1,,,,,,,,,,,,,,,,,,,,,,,,0.115740771,-0.412963047,0,0,0,,,,,,,DIVER,C,z,m,./images/DIVER.png,,,,,,,,,,,,,,,,,,,,,z,1,0.7989,,,,,,,,0,20,20,93,1
,,,,,,,,,,,,,,,,,5dcf4d27b039ab08c04d2740,21,2022-02-12_18h01.35.059,lexical_decision_task_DD,2021.2.3,Win32,60.06006006,,,,,,,,,,,0.6909,1,,,,,,,,,,,,,,,,,,,,,,,,0.115740771,-0.412963047,0,0,0,,,,,,,JELLY,HB,m,m,./images/JELLYHB.png,,,,,,,,,,,,,,,,,,,,,m,1,0.6909,,,,,,,,0,21,21,64,1
,,,,,,,,,,,,,,,,,5dcf4d27b039ab08c04d2740,21,2022-02-12_18h01.35.059,lexical_decision_task_DD,2021.2.3,Win32,60.06006006,,,,,,,,,,,0.7053,1,,,,,,,,,,,,,,,,,,,,,,,,0.115740771,-0.412963047,0,0,0,,,,,,,LLAMA,LB,z,m,./images/LLAMALB.png,,,,,,,,,,,,,,,,,,,,,z,1,0.7053,,,,,,,,0,22,22,119,1
,,,,,,,,,,,,,,,,,5dcf4d27b039ab08c04d2740,21,2022-02-12_18h01.35.059,lexical_decision_task_DD,2021.2.3,Win32,60.06006006,,,,,,,,,,,0.846,1,,,,,,,,,,,,,,,,,,,,,,,,0.115740771,-0.412963047,0,0,0,,,,,,,LAGOON,LB,z,m,./images/LAGOONLB.png,,,,,,,,,,,,,,,,,,,,,z,1,0.846,,,,,,,,0,23,23,131,1
,,,,,,,,,,,,,,,,,5dcf4d27b039ab08c04d2740,21,2022-02-12_18h01.35.059,lexical_decision_task_DD,2021.2.3,Win32,60.06006006,,,,,,,,,,,0.7753,1,,,,,,,,,,,,,,,,,,,,,,,,0.115740771,-0.412963047,0,0,0,,,,,,,MIDGET,HB,z,m,./images/MIDGETHB.png,,,,,,,,,,,,,,,,,,,,,z,1,0.7753,,,,,,,,0,24,24,160,1
,,,,,,,,,,,,,,,,,5dcf4d27b039ab08c04d2740,21,2022-02-12_18h01.35.059,lexical_decision_task_DD,2021.2.3,Win32,60.06006006,,,,,,,,,,,0.9107,1,,,,,,,,,,,,,,,,,,,,,,,,0.115740771,-0.412963047,0,0,0,,,,,,,GRANNY,LB,z,m,./images/GRANNYLB.png,,,,,,,,,,,,,,,,,,,,,z,1,0.9107,,,,,,,,0,25,25,104,1
,,,,,,,,,,,,,,,,,5dcf4d27b039ab08c04d2740,21,2022-02-12_18h01.35.059,lexical_decision_task_DD,2021.2.3,Win32,60.06006006,,,,,,,,,,,0.6895,1,,,,,,,,,,,,,,,,,,,,,,,,0.115740771,-0.412963047,0,0,0,,,,,,,PURSE,LB,m,m,./images/PURSELB.png,,,,,,,,,,,,,,,,,,,,,m,1,0.6895,,,,,,,,0,26,26,62,1
,,,,,,,,,,,,,,,,,5dcf4d27b039ab08c04d2740,21,2022-02-12_18h01.35.059,lexical_decision_task_DD,2021.2.3,Win32,60.06006006,,,,,,,,,,,0.6258,1,,,,,,,,,,,,,,,,,,,,,,,,0.115740771,-0.412963047,0,0,0,,,,,,,BELLY,HB,m,m,./images/BELLYHB.png,,,,,,,,,,,,,,,,,,,,,m,1,0.6258,,,,,,,,0,27,27,10,1
,,,,,,,,,,,,,,,,,5dcf4d27b039ab08c04d2740,21,2022-02-12_18h01.35.059,lexical_decision_task_DD,2021.2.3,Win32,60.06006006,,,,,,,,,,,0.6427,1,,,,,,,,,,,,,,,,,,,,,,,,0.115740771,-0.412963047,0,0,0,,,,,,,CANDLE,HB,m,m,./images/CANDLEHB.png,,,,,,,,,,,,,,,,,,,,,m,1,0.6427,,,,,,,,0,28,28,61,1
,,,,,,,,,,,,,,,,,5dcf4d27b039ab08c04d2740,21,2022-02-12_18h01.35.059,lexical_decision_task_DD,2021.2.3,Win32,60.06006006,,,,,,,,,,,0.571,1,,,,,,,,,,,,,,,,,,,,,,,,0.115740771,-0.412963047,0,0,0,,,,,,,MIRROR,C,m,m,./images/MIRROR.png,,,,,,,,,,,,,,,,,,,,,m,1,0.571,,,,,,,,0,29,29,63,1
,,,,,,,,,,,,,,,,,5dcf4d27b039ab08c04d2740,21,2022-02-12_18h01.35.059,lexical_decision_task_DD,2021.2.3,Win32,60.06006006,,,,,,,,,,,0.7641,1,,,,,,,,,,,,,,,,,,,,,,,,0.115740771,-0.412963047,0,0,0,,,,,,,STOVE,LB,z,m,./images/STOVELB.png,,,,,,,,,,,,,,,,,,,,,z,1,0.7641,,,,,,,,0,30,30,86,1
,,,,,,,,,,,,,,,,,5dcf4d27b039ab08c04d2740,21,2022-02-12_18h01.35.059,lexical_decision_task_DD,2021.2.3,Win32,60.06006006,,,,,,,,,,,0.8304,1,,,,,,,,,,,,,,,,,,,,,,,,0.115740771,-0.412963047,0,0,0,,,,,,,POSTER,LB,z,m,./images/POSTERLB.png,,,,,,,,,,,,,,,,,,,,,z,1,0.8304,,,,,,,,0,31,31,137,1
,,,,,,,,,,,,,,,,,5dcf4d27b039ab08c04d2740,21,2022-02-12_18h01.35.059,lexical_decision_task_DD,2021.2.3,Win32,60.06006006,,,,,,,,,,,1.0342,0,,,,,,,,,,,,,,,,,,,,,,,,0.115740771,-0.412963047,0,0,0,,,,,,,STOOL,HB,z,m,./images/STOOLHB.png,,,,,,,,,,,,,,,,,,,,,m,0,1.0342,,,,,,,,0,32,32,127,1
,,,,,,,,,,,,,,,,,5dcf4d27b039ab08c04d2740,21,2022-02-12_18h01.35.059,lexical_decision_task_DD,2021.2.3,Win32,60.06006006,,,,,,,,,,,1.1482,1,,,,,,,,,,,,,,,,,,,,,,,,0.115740771,-0.412963047,0,0,0,,,,,,,STEAK,HB,z,m,./images/STEAKHB.png,,,,,,,,,,,,,,,,,,,,,z,1,1.1482,,,,,,,,0,33,33,115,1
,,,,,,,,,,,,,,,,,5dcf4d27b039ab08c04d2740,21,2022-02-12_18h01.35.059,lexical_decision_task_DD,2021.2.3,Win32,60.06006006,,,,,,,,,,,0.891,1,,,,,,,,,,,,,,,,,,,,,,,,0.115740771,-0.412963047,0,0,0,,,,,,,SAILOR,HB,m,m,./images/SAILORHB.png,,,,,,,,,,,,,,,,,,,,,m,1,0.891,,,,,,,,0,34,34,67,1
,,,,,,,,,,,,,,,,,5dcf4d27b039ab08c04d2740,21,2022-02-12_18h01.35.059,lexical_decision_task_DD,2021.2.3,Win32,60.06006006,,,,,,,,,,,0.7356,0,,,,,,,,,,,,,,,,,,,,,,,,0.115740771,-0.412963047,0,0,0,,,,,,,ALLEY,HB,z,m,./images/ALLEYHB.png,,,,,,,,,,,,,,,,,,,,,m,0,0.7356,,,,,,,,0,35,35,139,1
,,,,,,,,,,,,,,,,,5dcf4d27b039ab08c04d2740,21,2022-02-12_18h01.35.059,lexical_decision_task_DD,2021.2.3,Win32,60.06006006,,,,,,,,,,,0.9319,1,,,,,,,,,,,,,,,,,,,,,,,,0.115740771,-0.412963047,0,0,0,,,,,,,DESERT,HB,z,m,./images/DESERTHB.png,,,,,,,,,,,,,,,,,,,,,z,1,0.9319,,,,,,,,0,36,36,136,1
,,,,,,,,,,,,,,,,,5dcf4d27b039ab08c04d2740,21,2022-02-12_18h01.35.059,lexical_decision_task_DD,2021.2.3,Win32,60.06006006,,,,,,,,,,,0.7604,0,,,,,,,,,,,,,,,,,,,,,,,,0.115740771,-0.412963047,0,0,0,,,,,,,DRUMS,HB,m,m,./images/DRUMSHB.png,,,,,,,,,,,,,,,,,,,,,z,0,0.7604,,,,,,,,0,37,37,49,1
,,,,,,,,,,,,,,,,,5dcf4d27b039ab08c04d2740,21,2022-02-12_18h01.35.059,lexical_decision_task_DD,2021.2.3,Win32,60.06006006,,,,,,,,,,,1.2704,0,,,,,,,,,,,,,,,,,,,,,,,,0.115740771,-0.412963047,0,0,0,,,,,,,KIDNEY,C,m,m,./images/KIDNEY.png,,,,,,,,,,,,,,,,,,,,,z,0,1.2704,,,,,,,,0,38,38,21,1
,,,,,,,,,,,,,,,,,5dcf4d27b039ab08c04d2740,21,2022-02-12_18h01.35.059,lexical_decision_task_DD,2021.2.3,Win32,60.06006006,,,,,,,,,,,0.7845,1,,,,,,,,,,,,,,,,,,,,,,,,0.115740771,-0.412963047,0,0,0,,,,,,,TWINS,C,m,m,./images/TWINS.png,,,,,,,,,,,,,,,,,,,,,m,1,0.7845,,,,,,,,0,39,39,60,1
,,,,,,,,,,,,,,,,,5dcf4d27b039ab08c04d2740,21,2022-02-12_18h01.35.059,lexical_decision_task_DD,2021.2.3,Win32,60.06006006,,,,,,,,,,,0.6358,1,,,,,,,,,,,,,,,,,,,,,,,,0.115740771,-0.412963047,0,0,0,,,,,,,ATTIC,C,m,m,./images/ATTIC.png,,,,,,,,,,,,,,,,,,,,,m,1,0.6358,,,,,,,,0,40,40,27,1
,,,,,,,,,,,,,,,,,5dcf4d27b039ab08c04d2740,21,2022-02-12_18h01.35.059,lexical_decision_task_DD,2021.2.3,Win32,60.06006006,,,,,,,,,,,0.7062,1,,,,,,,,,,,,,,,,,,,,,,,,0.115740771,-0.412963047,0,0,0,space,,,,,,BURIAL,LB,m,m,./images/BURIALLB.png,1.7811,,,,,,,,,,,,,,,,,,,,m,1,0.7062,,,,,,,,0,41,41,59,1
,,,,,,,,,,,,,,,,,5dcf4d27b039ab08c04d2740,21,2022-02-12_18h01.35.059,lexical_decision_task_DD,2021.2.3,Win32,60.06006006,,,,,,,,,,,0.7073,1,,,,,,,,,,,,,,,,,,,,,,,,0.115740771,-0.412963047,0,0,0,,,,,,,RHINO,C,m,m,./images/RHINO.png,,,,,,,,,,,,,,,,,,,,,m,1,0.7073,,,,,,,,0,42,42,9,1
,,,,,,,,,,,,,,,,,5dcf4d27b039ab08c04d2740,21,2022-02-12_18h01.35.059,lexical_decision_task_DD,2021.2.3,Win32,60.06006006,,,,,,,,,,,0.7356,1,,,,,,,,,,,,,,,,,,,,,,,,0.115740771,-0.412963047,0,0,0,,,,,,,ARTIST,HB,z,m,./images/ARTISTHB.png,,,,,,,,,,,,,,,,,,,,,z,1,0.7356,,,,,,,,0,43,43,145,1
,,,,,,,,,,,,,,,,,5dcf4d27b039ab08c04d2740,21,2022-02-12_18h01.35.059,lexical_decision_task_DD,2021.2.3,Win32,60.06006006,,,,,,,,,,,0.7042,1,,,,,,,,,,,,,,,,,,,,,,,,0.115740771,-0.412963047,0,0,0,,,,,,,MUSCLE,HB,m,m,./images/MUSCLEHB.png,,,,,,,,,,,,,,,,,,,,,m,1,0.7042,,,,,,,,0,44,44,4,1
,,,,,,,,,,,,,,,,,5dcf4d27b039ab08c04d2740,21,2022-02-12_18h01.35.059,lexical_decision_task_DD,2021.2.3,Win32,60.06006006,,,,,,,,,,,1.1109,1,,,,,,,,,,,,,,,,,,,,,,,,0.115740771,-0.412963047,0,0,0,,,,,,,WAGON,HB,z,m,./images/WAGONHB.png,,,,,,,,,,,,,,,,,,,,,z,1,1.1109,,,,,,,,0,45,45,91,1
,,,,,,,,,,,,,,,,,5dcf4d27b039ab08c04d2740,21,2022-02-12_18h01.35.059,lexical_decision_task_DD,2021.2.3,Win32,60.06006006,,,,,,,,,,,0.6649,1,,,,,,,,,,,,,,,,,,,,,,,,0.115740771,-0.412963047,0,0,0,,,,,,,SWING,HB,m,m,./images/SWINGHB.png,,,,,,,,,,,,,,,,,,,,,m,1,0.6649,,,,,,,,0,46,46,40,1
,,,,,,,,,,,,,,,,,5dcf4d27b039ab08c04d2740,21,2022-02-12_18h01.35.059,lexical_decision_task_DD,2021.2.3,Win32,60.06006006,,,,,,,,,,,0.7778,1,,,,,,,,,,,,,,,,,,,,,,,,0.115740771,-0.412963047,0,0,0,,,,,,,PARCEL,C,z,m,./images/PARCEL.png,,,,,,,,,,,,,,,,,,,,,z,1,0.7778,,,,,,,,0,47,47,102,1
,,,,,,,,,,,,,,,,,5dcf4d27b039ab08c04d2740,21,2022-02-12_18h01.35.059,lexical_decision_task_DD,2021.2.3,Win32,60.06006006,,,,,,,,,,,0.8391,1,,,,,,,,,,,,,,,,,,,,,,,,0.115740771,-0.412963047,0,0,0,,,,,,,BLOKE,C,z,m,./images/BLOKE.png,,,,,,,,,,,,,,,,,,,,,z,1,0.8391,,,,,,,,0,48,48,96,1
,,,,,,,,,,,,,,,,,5dcf4d27b039ab08c04d2740,21,2022-02-12_18h01.35.059,lexical_decision_task_DD,2021.2.3,Win32,60.06006006,,,,,,,,,,,0.9535,1,,,,,,,,,,,,,,,,,,,,,,,,0.115740771,-0.412963047,0,0,0,,,,,,,BISHOP,HB,z,m,./images/BISHOPHB.png,,,,,,,,,,,,,,,,,,,,,z,1,0.9535,,,,,,,,0,49,49,133,1
,,,,,,,,,,,,,,,,,5dcf4d27b039ab08c04d2740,21,2022-02-12_18h01.35.059,lexical_decision_task_DD,2021.2.3,Win32,60.06006006,,,,,,,,,,,0.8923,1,,,,,,,,,,,,,,,,,,,,,,,,0.115740771,-0.412963047,0,0,0,,,,,,,STAIN,C,z,m,./images/STAIN.png,,,,,,,,,,,,,,,,,,,,,z,1,0.8923,,,,,,,,0,50,50,90,1
,,,,,,,,,,,,,,,,,5dcf4d27b039ab08c04d2740,21,2022-02-12_18h01.35.059,lexical_decision_task_DD,2021.2.3,Win32,60.06006006,,,,,,,,,,,0.8371,1,,,,,,,,,,,,,,,,,,,,,,,,0.115740771,-0.412963047,0,0,0,,,,,,,CLOTH,LB,z,m,./images/CLOTHLB.png,,,,,,,,,,,,,,,,,,,,,z,1,0.8371,,,,,,,,0,51,51,107,1
,,,,,,,,,,,,,,,,,5dcf4d27b039ab08c04d2740,21,2022-02-12_18h01.35.059,lexical_decision_task_DD,2021.2.3,Win32,60.06006006,,,,,,,,,,,0.7739,1,,,,,,,,,,,,,,,,,,,,,,,,0.115740771,-0.412963047,0,0,0,,,,,,,FALCON,HB,m,m,./images/FALCONHB.png,,,,,,,,,,,,,,,,,,,,,m,1,0.7739,,,,,,,,0,52,52,28,1
,,,,,,,,,,,,,,,,,5dcf4d27b039ab08c04d2740,21,2022-02-12_18h01.35.059,lexical_decision_task_DD,2021.2.3,Win32,60.06006006,,,,,,,,,,,0.7688,1,,,,,,,,,,,,,,,,,,,,,,,,0.115740771,-0.412963047,0,0,0,,,,,,,CANDY,C,z,m,./images/CANDY.png,,,,,,,,,,,,,,,,,,,,,z,1,0.7688,,,,,,,,0,53,53,123,1
,,,,,,,,,,,,,,,,,5dcf4d27b039ab08c04d2740,21,2022-02-12_18h01.35.059,lexical_decision_task_DD,2021.2.3,Win32,60.06006006,,,,,,,,,,,0.7754,1,,,,,,,,,,,,,,,,,,,,,,,,0.115740771,-0.412963047,0,0,0,,,,,,,PEBBLE,HB,z,m,./images/PEBBLEHB.png,,,,,,,,,,,,,,,,,,,,,z,1,0.7754,,,,,,,,0,54,54,166,1
,,,,,,,,,,,,,,,,,5dcf4d27b039ab08c04d2740,21,2022-02-12_18h01.35.059,lexical_decision_task_DD,2021.2.3,Win32,60.06006006,,,,,,,,,,,0.7365,1,,,,,,,,,,,,,,,,,,,,,,,,0.115740771,-0.412963047,0,0,0,,,,,,,WHISKY,LB,z,m,./images/WHISKYLB.png,,,,,,,,,,,,,,,,,,,,,z,1,0.7365,,,,,,,,0,55,55,167,1
,,,,,,,,,,,,,,,,,5dcf4d27b039ab08c04d2740,21,2022-02-12_18h01.35.059,lexical_decision_task_DD,2021.2.3,Win32,60.06006006,,,,,,,,,,,0.6948,1,,,,,,,,,,,,,,,,,,,,,,,,0.115740771,-0.412963047,0,0,0,,,,,,,CURRY,C,z,m,./images/CURRY.png,,,,,,,,,,,,,,,,,,,,,z,1,0.6948,,,,,,,,0,56,56,144,1
,,,,,,,,,,,,,,,,,5dcf4d27b039ab08c04d2740,21,2022-02-12_18h01.35.059,lexical_decision_task_DD,2021.2.3,Win32,60.06006006,,,,,,,,,,,0.6558,1,,,,,,,,,,,,,,,,,,,,,,,,0.115740771,-0.412963047,0,0,0,,,,,,,FOLDER,C,m,m,./images/FOLDER.png,,,,,,,,,,,,,,,,,,,,,m,1,0.6558,,,,,,,,0,57,57,42,1
,,,,,,,,,,,,,,,,,5dcf4d27b039ab08c04d2740,21,2022-02-12_18h01.35.059,lexical_decision_task_DD,2021.2.3,Win32,60.06006006,,,,,,,,,,,0.7447,1,,,,,,,,,,,,,,,,,,,,,,,,0.115740771,-0.412963047,0,0,0,,,,,,,BIRTH,HB,m,m,./images/BIRTHHB.png,,,,,,,,,,,,,,,,,,,,,m,1,0.7447,,,,,,,,0,58,58,37,1
,,,,,,,,,,,,,,,,,5dcf4d27b039ab08c04d2740,21,2022-02-12_18h01.35.059,lexical_decision_task_DD,2021.2.3,Win32,60.06006006,,,,,,,,,,,0.7332,1,,,,,,,,,,,,,,,,,,,,,,,,0.115740771,-0.412963047,0,0,0,,,,,,,CEMENT,LB,m,m,./images/CEMENTLB.png,,,,,,,,,,,,,,,,,,,,,m,1,0.7332,,,,,,,,0,59,59,74,1
,,,,,,,,,,,,,,,,,5dcf4d27b039ab08c04d2740,21,2022-02-12_18h01.35.059,lexical_decision_task_DD,2021.2.3,Win32,60.06006006,,,,,,,,,,,0.6936,1,,,,,,,,,,,,,,,,,,,,,,,,0.115740771,-0.412963047,0,0,0,,,,,,,MUFFIN,HB,m,m,./images/MUFFINHB.png,,,,,,,,,,,,,,,,,,,,,m,1,0.6936,,,,,,,,0,60,60,55,1
,,,,,,,,,,,,,,,,,5dcf4d27b039ab08c04d2740,21,2022-02-12_18h01.35.059,lexical_decision_task_DD,2021.2.3,Win32,60.06006006,,,,,,,,,,,0.7062,0,,,,,,,,,,,,,,,,,,,,,,,,0.115740771,-0.412963047,0,0,0,,,,,,,GLOVE,HB,z,m,./images/GLOVEHB.png,,,,,,,,,,,,,,,,,,,,,m,0,0.7062,,,,,,,,0,61,61,157,1
,,,,,,,,,,,,,,,,,5dcf4d27b039ab08c04d2740,21,2022-02-12_18h01.35.059,lexical_decision_task_DD,2021.2.3,Win32,60.06006006,,,,,,,,,,,1.2537,1,,,,,,,,,,,,,,,,,,,,,,,,0.115740771,-0.412963047,0,0,0,,,,,,,SWEAT,C,m,m,./images/SWEAT.png,,,,,,,,,,,,,,,,,,,,,m,1,1.2537,,,,,,,,0,62,62,66,1
,,,,,,,,,,,,,,,,,5dcf4d27b039ab08c04d2740,21,2022-02-12_18h01.35.059,lexical_decision_task_DD,2021.2.3,Win32,60.06006006,,,,,,,,,,,1.1597,1,,,,,,,,,,,,,,,,,,,,,,,,0.115740771,-0.412963047,0,0,0,,,,,,,ONION,C,m,m,./images/ONION.png,,,,,,,,,,,,,,,,,,,,,m,1,1.1597,,,,,,,,0,63,63,51,1
,,,,,,,,,,,,,,,,,5dcf4d27b039ab08c04d2740,21,2022-02-12_18h01.35.059,lexical_decision_task_DD,2021.2.3,Win32,60.06006006,,,,,,,,,,,0.7729,1,,,,,,,,,,,,,,,,,,,,,,,,0.115740771,-0.412963047,0,0,0,,,,,,,BRUSH,LB,z,m,./images/BRUSHLB.png,,,,,,,,,,,,,,,,,,,,,z,1,0.7729,,,,,,,,0,64,64,143,1
,,,,,,,,,,,,,,,,,5dcf4d27b039ab08c04d2740,21,2022-02-12_18h01.35.059,lexical_decision_task_DD,2021.2.3,Win32,60.06006006,,,,,,,,,,,0.7671,1,,,,,,,,,,,,,,,,,,,,,,,,0.115740771,-0.412963047,0,0,0,,,,,,,INFANT,HB,m,m,./images/INFANTHB.png,,,,,,,,,,,,,,,,,,,,,m,1,0.7671,,,,,,,,0,65,65,76,1
,,,,,,,,,,,,,,,,,5dcf4d27b039ab08c04d2740,21,2022-02-12_18h01.35.059,lexical_decision_task_DD,2021.2.3,Win32,60.06006006,,,,,,,,,,,0.6997,1,,,,,,,,,,,,,,,,,,,,,,,,0.115740771,-0.412963047,0,0,0,,,,,,,CLOWN,HB,z,m,./images/CLOWNHB.png,,,,,,,,,,,,,,,,,,,,,z,1,0.6997,,,,,,,,0,66,66,106,1
,,,,,,,,,,,,,,,,,5dcf4d27b039ab08c04d2740,21,2022-02-12_18h01.35.059,lexical_decision_task_DD,2021.2.3,Win32,60.06006006,,,,,,,,,,,0.7061,1,,,,,,,,,,,,,,,,,,,,,,,,0.115740771,-0.412963047,0,0,0,,,,,,,BANNER,HB,m,m,./images/BANNERHB.png,,,,,,,,,,,,,,,,,,,,,m,1,0.7061,,,,,,,,0,67,67,52,1
,,,,,,,,,,,,,,,,,5dcf4d27b039ab08c04d2740,21,2022-02-12_18h01.35.059,lexical_decision_task_DD,2021.2.3,Win32,60.06006006,,,,,,,,,,,0.6219,1,,,,,,,,,,,,,,,,,,,,,,,,0.115740771,-0.412963047,0,0,0,,,,,,,MOOSE,C,m,m,./images/MOOSE.png,,,,,,,,,,,,,,,,,,,,,m,1,0.6219,,,,,,,,0,68,68,57,1
,,,,,,,,,,,,,,,,,5dcf4d27b039ab08c04d2740,21,2022-02-12_18h01.35.059,lexical_decision_task_DD,2021.2.3,Win32,60.06006006,,,,,,,,,,,0.8825,1,,,,,,,,,,,,,,,,,,,,,,,,0.115740771,-0.412963047,0,0,0,,,,,,,POODLE,C,m,m,./images/POODLE.png,,,,,,,,,,,,,,,,,,,,,m,1,0.8825,,,,,,,,0,69,69,81,1
,,,,,,,,,,,,,,,,,5dcf4d27b039ab08c04d2740,21,2022-02-12_18h01.35.059,lexical_decision_task_DD,2021.2.3,Win32,60.06006006,,,,,,,,,,,1.0689,1,,,,,,,,,,,,,,,,,,,,,,,,0.115740771,-0.412963047,0,0,0,,,,,,,SHIELD,C,z,m,./images/SHIELD.png,,,,,,,,,,,,,,,,,,,,,z,1,1.0689,,,,,,,,0,70,70,132,1
,,,,,,,,,,,,,,,,,5dcf4d27b039ab08c04d2740,21,2022-02-12_18h01.35.059,lexical_decision_task_DD,2021.2.3,Win32,60.06006006,,,,,,,,,,,0.7739,1,,,,,,,,,,,,,,,,,,,,,,,,0.115740771,-0.412963047,0,0,0,,,,,,,PISTOL,LB,z,m,./images/PISTOLLB.png,,,,,,,,,,,,,,,,,,,,,z,1,0.7739,,,,,,,,0,71,71,113,1
,,,,,,,,,,,,,,,,,5dcf4d27b039ab08c04d2740,21,2022-02-12_18h01.35.059,lexical_decision_task_DD,2021.2.3,Win32,60.06006006,,,,,,,,,,,0.8468,1,,,,,,,,,,,,,,,,,,,,,,,,0.115740771,-0.412963047,0,0,0,,,,,,,CRATER,C,z,m,./images/CRATER.png,,,,,,,,,,,,,,,,,,,,,z,1,0.8468,,,,,,,,0,72,72,87,1
,,,,,,,,,,,,,,,,,5dcf4d27b039ab08c04d2740,21,2022-02-12_18h01.35.059,lexical_decision_task_DD,2021.2.3,Win32,60.06006006,,,,,,,,,,,0.7656,1,,,,,,,,,,,,,,,,,,,,,,,,0.115740771,-0.412963047,0,0,0,,,,,,,RAZOR,HB,z,m,./images/RAZORHB.png,,,,,,,,,,,,,,,,,,,,,z,1,0.7656,,,,,,,,0,73,73,118,1
,,,,,,,,,,,,,,,,,5dcf4d27b039ab08c04d2740,21,2022-02-12_18h01.35.059,lexical_decision_task_DD,2021.2.3,Win32,60.06006006,,,,,,,,,,,0.7719,1,,,,,,,,,,,,,,,,,,,,,,,,0.115740771,-0.412963047,0,0,0,,,,,,,GRAIN,C,m,m,./images/GRAIN.png,,,,,,,,,,,,,,,,,,,,,m,1,0.7719,,,,,,,,0,74,74,75,1
,,,,,,,,,,,,,,,,,5dcf4d27b039ab08c04d2740,21,2022-02-12_18h01.35.059,lexical_decision_task_DD,2021.2.3,Win32,60.06006006,,,,,,,,,,,0.6862,1,,,,,,,,,,,,,,,,,,,,,,,,0.115740771,-0.412963047,0,0,0,,,,,,,GREASE,C,m,m,./images/GREASE.png,,,,,,,,,,,,,,,,,,,,,m,1,0.6862,,,,,,,,0,75,75,15,1
,,,,,,,,,,,,,,,,,5dcf4d27b039ab08c04d2740,21,2022-02-12_18h01.35.059,lexical_decision_task_DD,2021.2.3,Win32,60.06006006,,,,,,,,,,,0.8997,0,,,,,,,,,,,,,,,,,,,,,,,,0.115740771,-0.412963047,0,0,0,,,,,,,CRUST,HB,m,m,./images/CRUSTHB.png,,,,,,,,,,,,,,,,,,,,,z,0,0.8997,,,,,,,,0,76,76,79,1
,,,,,,,,,,,,,,,,,5dcf4d27b039ab08c04d2740,21,2022-02-12_18h01.35.059,lexical_decision_task_DD,2021.2.3,Win32,60.06006006,,,,,,,,,,,0.64,1,,,,,,,,,,,,,,,,,,,,,,,,0.115740771,-0.412963047,0,0,0,,,,,,,TULIP,LB,m,m,./images/TULIPLB.png,,,,,,,,,,,,,,,,,,,,,m,1,0.64,,,,,,,,0,77,77,8,1
,,,,,,,,,,,,,,,,,5dcf4d27b039ab08c04d2740,21,2022-02-12_18h01.35.059,lexical_decision_task_DD,2021.2.3,Win32,60.06006006,,,,,,,,,,,1.1074,1,,,,,,,,,,,,,,,,,,,,,,,,0.115740771,-0.412963047,0,0,0,,,,,,,FARMER,LB,m,m,./images/FARMERLB.png,,,,,,,,,,,,,,,,,,,,,m,1,1.1074,,,,,,,,0,78,78,65,1
,,,,,,,,,,,,,,,,,5dcf4d27b039ab08c04d2740,21,2022-02-12_18h01.35.059,lexical_decision_task_DD,2021.2.3,Win32,60.06006006,,,,,,,,,,,0.7579,1,,,,,,,,,,,,,,,,,,,,,,,,0.115740771,-0.412963047,0,0,0,,,,,,,MAMMAL,LB,z,m,./images/MAMMALLB.png,,,,,,,,,,,,,,,,,,,,,z,1,0.7579,,,,,,,,0,79,79,146,1
,,,,,,,,,,,,,,,,,5dcf4d27b039ab08c04d2740,21,2022-02-12_18h01.35.059,lexical_decision_task_DD,2021.2.3,Win32,60.06006006,,,,,,,,,,,0.667,1,,,,,,,,,,,,,,,,,,,,,,,,0.115740771,-0.412963047,0,0,0,,,,,,,TORCH,LB,m,m,./images/TORCHLB.png,,,,,,,,,,,,,,,,,,,,,m,1,0.667,,,,,,,,0,80,80,68,1
,,,,,,,,,,,,,,,,,5dcf4d27b039ab08c04d2740,21,2022-02-12_18h01.35.059,lexical_decision_task_DD,2021.2.3,Win32,60.06006006,,,,,,,,,,,0.6411,1,,,,,,,,,,,,,,,,,,,,,,,,0.115740771,-0.412963047,0,0,0,,,,,,,BONNET,LB,m,m,./images/BONNETLB.png,,,,,,,,,,,,,,,,,,,,,m,1,0.6411,,,,,,,,0,81,81,11,1
,,,,,,,,,,,,,,,,,5dcf4d27b039ab08c04d2740,21,2022-02-12_18h01.35.059,lexical_decision_task_DD,2021.2.3,Win32,60.06006006,,,,,,,,,,,0.7743,1,,,,,,,,,,,,,,,,,,,,,,,,0.115740771,-0.412963047,0,0,0,,,,,,,BUNNY,HB,z,m,./images/BUNNYHB.png,,,,,,,,,,,,,,,,,,,,,z,1,0.7743,,,,,,,,0,82,82,97,1
,,,,,,,,,,,,,,,,,5dcf4d27b039ab08c04d2740,21,2022-02-12_18h01.35.059,lexical_decision_task_DD,2021.2.3,Win32,60.06006006,,,,,,,,,,,1.0923,1,,,,,,,,,,,,,,,,,,,,,,,,0.115740771,-0.412963047,0,0,0,space,,,,,,PILOT,LB,z,m,./images/PILOTLB.png,8.1126,,,,,,,,,,,,,,,,,,,,z,1,1.0923,,,,,,,,0,83,83,134,1
,,,,,,,,,,,,,,,,,5dcf4d27b039ab08c04d2740,21,2022-02-12_18h01.35.059,lexical_decision_task_DD,2021.2.3,Win32,60.06006006,,,,,,,,,,,0.7045,1,,,,,,,,,,,,,,,,,,,,,,,,0.115740771,-0.412963047,0,0,0,,,,,,,MOSQUE,HB,m,m,./images/MOSQUEHB.png,,,,,,,,,,,,,,,,,,,,,m,1,0.7045,,,,,,,,0,84,84,43,1
,,,,,,,,,,,,,,,,,5dcf4d27b039ab08c04d2740,21,2022-02-12_18h01.35.059,lexical_decision_task_DD,2021.2.3,Win32,60.06006006,,,,,,,,,,,0.8996,0,,,,,,,,,,,,,,,,,,,,,,,,0.115740771,-0.412963047,0,0,0,,,,,,,BAKER,C,z,m,./images/BAKER.png,,,,,,,,,,,,,,,,,,,,,m,0,0.8996,,,,,,,,0,85,85,147,1
,,,,,,,,,,,,,,,,,5dcf4d27b039ab08c04d2740,21,2022-02-12_18h01.35.059,lexical_decision_task_DD,2021.2.3,Win32,60.06006006,,,,,,,,,,,1.1877,1,,,,,,,,,,,,,,,,,,,,,,,,0.115740771,-0.412963047,0,0,0,,,,,,,SNACK,HB,m,m,./images/SNACKHB.png,,,,,,,,,,,,,,,,,,,,,m,1,1.1877,,,,,,,,0,86,86,73,1
,,,,,,,,,,,,,,,,,5dcf4d27b039ab08c04d2740,21,2022-02-12_18h01.35.059,lexical_decision_task_DD,2021.2.3,Win32,60.06006006,,,,,,,,,,,0.7108,1,,,,,,,,,,,,,,,,,,,,,,,,0.115740771,-0.412963047,0,0,0,,,,,,,JUNGLE,LB,m,m,./images/JUNGLELB.png,,,,,,,,,,,,,,,,,,,,,m,1,0.7108,,,,,,,,0,87,87,83,1
,,,,,,,,,,,,,,,,,5dcf4d27b039ab08c04d2740,21,2022-02-12_18h01.35.059,lexical_decision_task_DD,2021.2.3,Win32,60.06006006,,,,,,,,,,,0.9723,0,,,,,,,,,,,,,,,,,,,,,,,,0.115740771,-0.412963047,0,0,0,,,,,,,PICKLE,LB,m,m,./images/PICKLELB.png,,,,,,,,,,,,,,,,,,,,,z,0,0.9723,,,,,,,,0,88,88,14,1
,,,,,,,,,,,,,,,,,5dcf4d27b039ab08c04d2740,21,2022-02-12_18h01.35.059,lexical_decision_task_DD,2021.2.3,Win32,60.06006006,,,,,,,,,,,0.7017,1,,,,,,,,,,,,,,,,,,,,,,,,0.115740771,-0.412963047,0,0,0,,,,,,,SCREW,C,m,m,./images/SCREW.png,,,,,,,,,,,,,,,,,,,,,m,1,0.7017,,,,,,,,0,89,89,24,1
,,,,,,,,,,,,,,,,,5dcf4d27b039ab08c04d2740,21,2022-02-12_18h01.35.059,lexical_decision_task_DD,2021.2.3,Win32,60.06006006,,,,,,,,,,,0.9733,1,,,,,,,,,,,,,,,,,,,,,,,,0.115740771,-0.412963047,0,0,0,,,,,,,STREAM,LB,z,m,./images/STREAMLB.png,,,,,,,,,,,,,,,,,,,,,z,1,0.9733,,,,,,,,0,90,90,125,1
,,,,,,,,,,,,,,,,,5dcf4d27b039ab08c04d2740,21,2022-02-12_18h01.35.059,lexical_decision_task_DD,2021.2.3,Win32,60.06006006,,,,,,,,,,,1.0543,0,,,,,,,,,,,,,,,,,,,,,,,,0.115740771,-0.412963047,0,0,0,,,,,,,MELON,HB,m,m,./images/MELONHB.png,,,,,,,,,,,,,,,,,,,,,z,0,1.0543,,,,,,,,0,91,91,22,1
,,,,,,,,,,,,,,,,,5dcf4d27b039ab08c04d2740,21,2022-02-12_18h01.35.059,lexical_decision_task_DD,2021.2.3,Win32,60.06006006,,,,,,,,,,,0.8019,1,,,,,,,,,,,,,,,,,,,,,,,,0.115740771,-0.412963047,0,0,0,,,,,,,PENCE,HB,m,m,./images/PENCEHB.png,,,,,,,,,,,,,,,,,,,,,m,1,0.8019,,,,,,,,0,92,92,16,1
,,,,,,,,,,,,,,,,,5dcf4d27b039ab08c04d2740,21,2022-02-12_18h01.35.059,lexical_decision_task_DD,2021.2.3,Win32,60.06006006,,,,,,,,,,,0.6991,1,,,,,,,,,,,,,,,,,,,,,,,,0.115740771,-0.412963047,0,0,0,,,,,,,JAGUAR,C,m,m,./images/JAGUAR.png,,,,,,,,,,,,,,,,,,,,,m,1,0.6991,,,,,,,,0,93,93,18,1
,,,,,,,,,,,,,,,,,5dcf4d27b039ab08c04d2740,21,2022-02-12_18h01.35.059,lexical_decision_task_DD,2021.2.3,Win32,60.06006006,,,,,,,,,,,0.6465,1,,,,,,,,,,,,,,,,,,,,,,,,0.115740771,-0.412963047,0,0,0,,,,,,,CANYON,HB,m,m,./images/CANYONHB.png,,,,,,,,,,,,,,,,,,,,,m,1,0.6465,,,,,,,,0,94,94,34,1
,,,,,,,,,,,,,,,,,5dcf4d27b039ab08c04d2740,21,2022-02-12_18h01.35.059,lexical_decision_task_DD,2021.2.3,Win32,60.06006006,,,,,,,,,,,1.0183,1,,,,,,,,,,,,,,,,,,,,,,,,0.115740771,-0.412963047,0,0,0,,,,,,,CHAIN,C,z,m,./images/CHAIN.png,,,,,,,,,,,,,,,,,,,,,z,1,1.0183,,,,,,,,0,95,95,126,1
,,,,,,,,,,,,,,,,,5dcf4d27b039ab08c04d2740,21,2022-02-12_18h01.35.059,lexical_decision_task_DD,2021.2.3,Win32,60.06006006,,,,,,,,,,,0.7911,0,,,,,,,,,,,,,,,,,,,,,,,,0.115740771,-0.412963047,0,0,0,,,,,,,PEACH,LB,m,m,./images/PEACHLB.png,,,,,,,,,,,,,,,,,,,,,z,0,0.7911,,,,,,,,0,96,96,35,1
,,,,,,,,,,,,,,,,,5dcf4d27b039ab08c04d2740,21,2022-02-12_18h01.35.059,lexical_decision_task_DD,2021.2.3,Win32,60.06006006,,,,,,,,,,,0.8276,0,,,,,,,,,,,,,,,,,,,,,,,,0.115740771,-0.412963047,0,0,0,,,,,,,SPORT,C,m,m,./images/SPORT.png,,,,,,,,,,,,,,,,,,,,,z,0,0.8276,,,,,,,,0,97,97,48,1
,,,,,,,,,,,,,,,,,5dcf4d27b039ab08c04d2740,21,2022-02-12_18h01.35.059,lexical_decision_task_DD,2021.2.3,Win32,60.06006006,,,,,,,,,,,0.8915,1,,,,,,,,,,,,,,,,,,,,,,,,0.115740771,-0.412963047,0,0,0,,,,,,,SQUARE,C,m,m,./images/SQUARE.png,,,,,,,,,,,,,,,,,,,,,m,1,0.8915,,,,,,,,0,98,98,6,1
,,,,,,,,,,,,,,,,,5dcf4d27b039ab08c04d2740,21,2022-02-12_18h01.35.059,lexical_decision_task_DD,2021.2.3,Win32,60.06006006,,,,,,,,,,,0.9117,1,,,,,,,,,,,,,,,,,,,,,,,,0.115740771,-0.412963047,0,0,0,,,,,,,GRAPE,HB,z,m,./images/GRAPEHB.png,,,,,,,,,,,,,,,,,,,,,z,1,0.9117,,,,,,,,0,99,99,100,1
,,,,,,,,,,,,,,,,,5dcf4d27b039ab08c04d2740,21,2022-02-12_18h01.35.059,lexical_decision_task_DD,2021.2.3,Win32,60.06006006,,,,,,,,,,,0.6431,1,,,,,,,,,,,,,,,,,,,,,,,,0.115740771,-0.412963047,0,0,0,,,,,,,NOOSE,C,m,m,./images/NOOSE.png,,,,,,,,,,,,,,,,,,,,,m,1,0.6431,,,,,,,,0,100,100,72,1
,,,,,,,,,,,,,,,,,5dcf4d27b039ab08c04d2740,21,2022-02-12_18h01.35.059,lexical_decision_task_DD,2021.2.3,Win32,60.06006006,,,,,,,,,,,0.8282,1,,,,,,,,,,,,,,,,,,,,,,,,0.115740771,-0.412963047,0,0,0,,,,,,,BOXER,HB,z,m,./images/BOXERHB.png,,,,,,,,,,,,,,,,,,,,,z,1,0.8282,,,,,,,,0,101,101,88,1
,,,,,,,,,,,,,,,,,5dcf4d27b039ab08c04d2740,21,2022-02-12_18h01.35.059,lexical_decision_task_DD,2021.2.3,Win32,60.06006006,,,,,,,,,,,0.9057,1,,,,,,,,,,,,,,,,,,,,,,,,0.115740771,-0.412963047,0,0,0,,,,,,,KITTEN,C,m,m,./images/KITTEN.png,,,,,,,,,,,,,,,,,,,,,m,1,0.9057,,,,,,,,0,102,102,45,1
,,,,,,,,,,,,,,,,,5dcf4d27b039ab08c04d2740,21,2022-02-12_18h01.35.059,lexical_decision_task_DD,2021.2.3,Win32,60.06006006,,,,,,,,,,,0.6476,1,,,,,,,,,,,,,,,,,,,,,,,,0.115740771,-0.412963047,0,0,0,,,,,,,WALRUS,LB,m,m,./images/WALRUSLB.png,,,,,,,,,,,,,,,,,,,,,m,1,0.6476,,,,,,,,0,103,103,23,1
,,,,,,,,,,,,,,,,,5dcf4d27b039ab08c04d2740,21,2022-02-12_18h01.35.059,lexical_decision_task_DD,2021.2.3,Win32,60.06006006,,,,,,,,,,,0.982,1,,,,,,,,,,,,,,,,,,,,,,,,0.115740771,-0.412963047,0,0,0,,,,,,,SUNSET,HB,m,m,./images/SUNSETHB.png,,,,,,,,,,,,,,,,,,,,,m,1,0.982,,,,,,,,0,104,104,82,1
,,,,,,,,,,,,,,,,,5dcf4d27b039ab08c04d2740,21,2022-02-12_18h01.35.059,lexical_decision_task_DD,2021.2.3,Win32,60.06006006,,,,,,,,,,,0.9036,1,,,,,,,,,,,,,,,,,,,,,,,,0.115740771,-0.412963047,0,0,0,,,,,,,SNAKE,HB,z,m,./images/SNAKEHB.png,,,,,,,,,,,,,,,,,,,,,z,1,0.9036,,,,,,,,0,105,105,124,1
,,,,,,,,,,,,,,,,,5dcf4d27b039ab08c04d2740,21,2022-02-12_18h01.35.059,lexical_decision_task_DD,2021.2.3,Win32,60.06006006,,,,,,,,,,,0.7118,0,,,,,,,,,,,,,,,,,,,,,,,,0.115740771,-0.412963047,0,0,0,,,,,,,PARADE,LB,z,m,./images/PARADELB.png,,,,,,,,,,,,,,,,,,,,,m,0,0.7118,,,,,,,,0,106,106,101,1
,,,,,,,,,,,,,,,,,5dcf4d27b039ab08c04d2740,21,2022-02-12_18h01.35.059,lexical_decision_task_DD,2021.2.3,Win32,60.06006006,,,,,,,,,,,0.7741,0,,,,,,,,,,,,,,,,,,,,,,,,0.115740771,-0.412963047,0,0,0,,,,,,,SMOKER,LB,m,m,./images/SMOKERLB.png,,,,,,,,,,,,,,,,,,,,,z,0,0.7741,,,,,,,,0,107,107,26,1
,,,,,,,,,,,,,,,,,5dcf4d27b039ab08c04d2740,21,2022-02-12_18h01.35.059,lexical_decision_task_DD,2021.2.3,Win32,60.06006006,,,,,,,,,,,0.8264,1,,,,,,,,,,,,,,,,,,,,,,,,0.115740771,-0.412963047,0,0,0,,,,,,,POKER,HB,z,m,./images/POKERHB.png,,,,,,,,,,,,,,,,,,,,,z,1,0.8264,,,,,,,,0,108,108,151,1
,,,,,,,,,,,,,,,,,5dcf4d27b039ab08c04d2740,21,2022-02-12_18h01.35.059,lexical_decision_task_DD,2021.2.3,Win32,60.06006006,,,,,,,,,,,0.8377,1,,,,,,,,,,,,,,,,,,,,,,,,0.115740771,-0.412963047,0,0,0,,,,,,,PLANET,LB,z,m,./images/PLANETLB.png,,,,,,,,,,,,,,,,,,,,,z,1,0.8377,,,,,,,,0,109,109,164,1
,,,,,,,,,,,,,,,,,5dcf4d27b039ab08c04d2740,21,2022-02-12_18h01.35.059,lexical_decision_task_DD,2021.2.3,Win32,60.06006006,,,,,,,,,,,1.2095,1,,,,,,,,,,,,,,,,,,,,,,,,0.115740771,-0.412963047,0,0,0,,,,,,,HAMMER,C,z,m,./images/HAMMER.png,,,,,,,,,,,,,,,,,,,,,z,1,1.2095,,,,,,,,0,110,110,159,1
,,,,,,,,,,,,,,,,,5dcf4d27b039ab08c04d2740,21,2022-02-12_18h01.35.059,lexical_decision_task_DD,2021.2.3,Win32,60.06006006,,,,,,,,,,,0.7469,1,,,,,,,,,,,,,,,,,,,,,,,,0.115740771,-0.412963047,0,0,0,,,,,,,MALLET,LB,m,m,./images/MALLETLB.png,,,,,,,,,,,,,,,,,,,,,m,1,0.7469,,,,,,,,0,111,111,50,1
,,,,,,,,,,,,,,,,,5dcf4d27b039ab08c04d2740,21,2022-02-12_18h01.35.059,lexical_decision_task_DD,2021.2.3,Win32,60.06006006,,,,,,,,,,,0.8605,1,,,,,,,,,,,,,,,,,,,,,,,,0.115740771,-0.412963047,0,0,0,,,,,,,DONKEY,HB,z,m,./images/DONKEYHB.png,,,,,,,,,,,,,,,,,,,,,z,1,0.8605,,,,,,,,0,112,112,103,1
,,,,,,,,,,,,,,,,,5dcf4d27b039ab08c04d2740,21,2022-02-12_18h01.35.059,lexical_decision_task_DD,2021.2.3,Win32,60.06006006,,,,,,,,,,,0.9509,0,,,,,,,,,,,,,,,,,,,,,,,,0.115740771,-0.412963047,0,0,0,,,,,,,BOILER,C,z,m,./images/BOILER.png,,,,,,,,,,,,,,,,,,,,,m,0,0.9509,,,,,,,,0,113,113,120,1
,,,,,,,,,,,,,,,,,5dcf4d27b039ab08c04d2740,21,2022-02-12_18h01.35.059,lexical_decision_task_DD,2021.2.3,Win32,60.06006006,,,,,,,,,,,0.7316,0,,,,,,,,,,,,,,,,,,,,,,,,0.115740771,-0.412963047,0,0,0,,,,,,,BASKET,LB,z,m,./images/BASKETLB.png,,,,,,,,,,,,,,,,,,,,,m,0,0.7316,,,,,,,,0,114,114,128,1
,,,,,,,,,,,,,,,,,5dcf4d27b039ab08c04d2740,21,2022-02-12_18h01.35.059,lexical_decision_task_DD,2021.2.3,Win32,60.06006006,,,,,,,,,,,1.0364,1,,,,,,,,,,,,,,,,,,,,,,,,0.115740771,-0.412963047,0,0,0,,,,,,,PLANK,HB,m,m,./images/PLANKHB.png,,,,,,,,,,,,,,,,,,,,,m,1,1.0364,,,,,,,,0,115,115,1,1
,,,,,,,,,,,,,,,,,5dcf4d27b039ab08c04d2740,21,2022-02-12_18h01.35.059,lexical_decision_task_DD,2021.2.3,Win32,60.06006006,,,,,,,,,,,1.15,1,,,,,,,,,,,,,,,,,,,,,,,,0.115740771,-0.412963047,0,0,0,,,,,,,CLIFF,LB,z,m,./images/CLIFFLB.png,,,,,,,,,,,,,,,,,,,,,z,1,1.15,,,,,,,,0,116,116,92,1
,,,,,,,,,,,,,,,,,5dcf4d27b039ab08c04d2740,21,2022-02-12_18h01.35.059,lexical_decision_task_DD,2021.2.3,Win32,60.06006006,,,,,,,,,,,0.8153,0,,,,,,,,,,,,,,,,,,,,,,,,0.115740771,-0.412963047,0,0,0,,,,,,,PAINT,HB,m,m,./images/PAINTHB.png,,,,,,,,,,,,,,,,,,,,,z,0,0.8153,,,,,,,,0,117,117,7,1
,,,,,,,,,,,,,,,,,5dcf4d27b039ab08c04d2740,21,2022-02-12_18h01.35.059,lexical_decision_task_DD,2021.2.3,Win32,60.06006006,,,,,,,,,,,1.0942,1,,,,,,,,,,,,,,,,,,,,,,,,0.115740771,-0.412963047,0,0,0,,,,,,,PIMPLE,LB,m,m,./images/PIMPLELB.png,,,,,,,,,,,,,,,,,,,,,m,1,1.0942,,,,,,,,0,118,118,71,1
,,,,,,,,,,,,,,,,,5dcf4d27b039ab08c04d2740,21,2022-02-12_18h01.35.059,lexical_decision_task_DD,2021.2.3,Win32,60.06006006,,,,,,,,,,,0.9029,0,,,,,,,,,,,,,,,,,,,,,,,,0.115740771,-0.412963047,0,0,0,,,,,,,BERRY,LB,m,m,./images/BERRYLB.png,,,,,,,,,,,,,,,,,,,,,z,0,0.9029,,,,,,,,0,119,119,47,1
,,,,,,,,,,,,,,,,,5dcf4d27b039ab08c04d2740,21,2022-02-12_18h01.35.059,lexical_decision_task_DD,2021.2.3,Win32,60.06006006,,,,,,,,,,,0.7033,1,,,,,,,,,,,,,,,,,,,,,,,,0.115740771,-0.412963047,0,0,0,,,,,,,CRADLE,LB,m,m,./images/CRADLELB.png,,,,,,,,,,,,,,,,,,,,,m,1,0.7033,,,,,,,,0,120,120,20,1
,,,,,,,,,,,,,,,,,5dcf4d27b039ab08c04d2740,21,2022-02-12_18h01.35.059,lexical_decision_task_DD,2021.2.3,Win32,60.06006006,,,,,,,,,,,0.8411,1,,,,,,,,,,,,,,,,,,,,,,,,0.115740771,-0.412963047,0,0,0,,,,,,,SHORE,C,m,m,./images/SHORE.png,,,,,,,,,,,,,,,,,,,,,m,1,0.8411,,,,,,,,0,121,121,12,1
,,,,,,,,,,,,,,,,,5dcf4d27b039ab08c04d2740,21,2022-02-12_18h01.35.059,lexical_decision_task_DD,2021.2.3,Win32,60.06006006,,,,,,,,,,,0.8215,1,,,,,,,,,,,,,,,,,,,,,,,,0.115740771,-0.412963047,0,0,0,,,,,,,STATUE,C,z,m,./images/STATUE.png,,,,,,,,,,,,,,,,,,,,,z,1,0.8215,,,,,,,,0,122,122,150,1
,,,,,,,,,,,,,,,,,5dcf4d27b039ab08c04d2740,21,2022-02-12_18h01.35.059,lexical_decision_task_DD,2021.2.3,Win32,60.06006006,,,,,,,,,,,0.7618,1,,,,,,,,,,,,,,,,,,,,,,,,0.115740771,-0.412963047,0,0,0,,,,,,,SAUNA,C,z,m,./images/SAUNA.png,,,,,,,,,,,,,,,,,,,,,z,1,0.7618,,,,,,,,0,123,123,117,1
,,,,,,,,,,,,,,,,,5dcf4d27b039ab08c04d2740,21,2022-02-12_18h01.35.059,lexical_decision_task_DD,2021.2.3,Win32,60.06006006,,,,,,,,,,,0.8543,0,,,,,,,,,,,,,,,,,,,,,,,,0.115740771,-0.412963047,0,0,0,,,,,,,HEATER,LB,z,m,./images/HEATERLB.png,,,,,,,,,,,,,,,,,,,,,m,0,0.8543,,,,,,,,0,124,124,140,1
,,,,,,,,,,,,,,,,,5dcf4d27b039ab08c04d2740,21,2022-02-12_18h01.35.059,lexical_decision_task_DD,2021.2.3,Win32,60.06006006,,,,,,,,,,,0.7645,1,,,,,,,,,,,,,,,,,,,,,,,,0.115740771,-0.412963047,0,0,0,space,,,,,,LITTER,C,m,m,./images/LITTER.png,30.9085,,,,,,,,,,,,,,,,,,,,m,1,0.7645,,,,,,,,0,125,125,78,1
,,,,,,,,,,,,,,,,,5dcf4d27b039ab08c04d2740,21,2022-02-12_18h01.35.059,lexical_decision_task_DD,2021.2.3,Win32,60.06006006,,,,,,,,,,,0.9842,1,,,,,,,,,,,,,,,,,,,,,,,,0.115740771,-0.412963047,0,0,0,,,,,,,HOCKEY,LB,z,m,./images/HOCKEYLB.png,,,,,,,,,,,,,,,,,,,,,z,1,0.9842,,,,,,,,0,126,126,116,1
,,,,,,,,,,,,,,,,,5dcf4d27b039ab08c04d2740,21,2022-02-12_18h01.35.059,lexical_decision_task_DD,2021.2.3,Win32,60.06006006,,,,,,,,,,,0.7593,1,,,,,,,,,,,,,,,,,,,,,,,,0.115740771,-0.412963047,0,0,0,,,,,,,RULER,HB,z,m,./images/RULERHB.png,,,,,,,,,,,,,,,,,,,,,z,1,0.7593,,,,,,,,0,127,127,163,1
,,,,,,,,,,,,,,,,,5dcf4d27b039ab08c04d2740,21,2022-02-12_18h01.35.059,lexical_decision_task_DD,2021.2.3,Win32,60.06006006,,,,,,,,,,,0.7005,0,,,,,,,,,,,,,,,,,,,,,,,,0.115740771,-0.412963047,0,0,0,,,,,,,FENCE,LB,z,m,./images/FENCELB.png,,,,,,,,,,,,,,,,,,,,,m,0,0.7005,,,,,,,,0,128,128,98,1
,,,,,,,,,,,,,,,,,5dcf4d27b039ab08c04d2740,21,2022-02-12_18h01.35.059,lexical_decision_task_DD,2021.2.3,Win32,60.06006006,,,,,,,,,,,0.7705,1,,,,,,,,,,,,,,,,,,,,,,,,0.115740771,-0.412963047,0,0,0,,,,,,,COLLAR,C,z,m,./images/COLLAR.png,,,,,,,,,,,,,,,,,,,,,z,1,0.7705,,,,,,,,0,129,129,99,1
,,,,,,,,,,,,,,,,,5dcf4d27b039ab08c04d2740,21,2022-02-12_18h01.35.059,lexical_decision_task_DD,2021.2.3,Win32,60.06006006,,,,,,,,,,,0.6943,1,,,,,,,,,,,,,,,,,,,,,,,,0.115740771,-0.412963047,0,0,0,,,,,,,DOUGH,HB,m,m,./images/DOUGHHB.png,,,,,,,,,,,,,,,,,,,,,m,1,0.6943,,,,,,,,0,130,130,19,1
,,,,,,,,,,,,,,,,,5dcf4d27b039ab08c04d2740,21,2022-02-12_18h01.35.059,lexical_decision_task_DD,2021.2.3,Win32,60.06006006,,,,,,,,,,,0.7783,1,,,,,,,,,,,,,,,,,,,,,,,,0.115740771,-0.412963047,0,0,0,,,,,,,BAMBOO,LB,z,m,./images/BAMBOOLB.png,,,,,,,,,,,,,,,,,,,,,z,1,0.7783,,,,,,,,0,131,131,89,1
,,,,,,,,,,,,,,,,,5dcf4d27b039ab08c04d2740,21,2022-02-12_18h01.35.059,lexical_decision_task_DD,2021.2.3,Win32,60.06006006,,,,,,,,,,,0.6339,1,,,,,,,,,,,,,,,,,,,,,,,,0.115740771,-0.412963047,0,0,0,,,,,,,PACKET,LB,m,m,./images/PACKETLB.png,,,,,,,,,,,,,,,,,,,,,m,1,0.6339,,,,,,,,0,132,132,56,1
,,,,,,,,,,,,,,,,,5dcf4d27b039ab08c04d2740,21,2022-02-12_18h01.35.059,lexical_decision_task_DD,2021.2.3,Win32,60.06006006,,,,,,,,,,,0.9773,1,,,,,,,,,,,,,,,,,,,,,,,,0.115740771,-0.412963047,0,0,0,,,,,,,VALLEY,LB,z,m,./images/VALLEYLB.png,,,,,,,,,,,,,,,,,,,,,z,1,0.9773,,,,,,,,0,133,133,152,1
,,,,,,,,,,,,,,,,,5dcf4d27b039ab08c04d2740,21,2022-02-12_18h01.35.059,lexical_decision_task_DD,2021.2.3,Win32,60.06006006,,,,,,,,,,,0.6826,1,,,,,,,,,,,,,,,,,,,,,,,,0.115740771,-0.412963047,0,0,0,,,,,,,URINE,HB,m,m,./images/URINEHB.png,,,,,,,,,,,,,,,,,,,,,m,1,0.6826,,,,,,,,0,134,134,70,1
