key_resp.keys,key_resp.rt,instr_done_touch.x,instr_done_touch.y,instr_done_touch.leftButton,instr_done_touch.midButton,instr_done_touch.rightButton,instruction_pages.thisRepN,instruction_pages.thisTrialN,instruction_pages.thisN,instruction_pages.thisIndex,instruction_pages.ran,pageN,phase,instruct_text,has_image,instruct_image,participant,age,date,expName,psychopyVersion,OS,frameRate,response.keys,response.corr,response.rt,touch_resp.x,touch_resp.y,touch_resp.leftButton,touch_resp.midButton,touch_resp.rightButton,touch_resp.time,touch_resp.clicked_name,rt,corr,practrials.thisRepN,practrials.thisTrialN,practrials.thisN,practrials.thisIndex,practrials.ran,TrialID,Target,corrAns,end_of_practice_trials_pages.thisRepN,end_of_practice_trials_pages.thisTrialN,end_of_practice_trials_pages.thisN,end_of_practice_trials_pages.thisIndex,end_of_practice_trials_pages.ran,key_resp_2.keys,key_resp_2.corr,key_resp_2.rt,targ_click.x,targ_click.y,targ_click.leftButton,targ_click.midButton,targ_click.rightButton,targ_click.time,targ_click.clicked_name,break_done_touch.x,break_done_touch.y,break_done_touch.leftButton,break_done_touch.midButton,break_done_touch.rightButton,break_done_keyboard.keys,maintrials.thisRepN,maintrials.thisTrialN,maintrials.thisN,maintrials.thisIndex,maintrials.ran,string,blur,study,lex,stim_path,break_done_keyboard.rt,mouse_2.x,mouse_2.y,mouse_2.leftButton,mouse_2.midButton,mouse_2.rightButton,mouse_2.clicked_name,slider.response,slider.rt,trials.thisRepN,trials.thisTrialN,trials.thisN,trials.thisIndex,trials.ran,test_instructions.thisRepN,test_instructions.thisTrialN,test_instructions.thisN,test_instructions.thisIndex,test_instructions.ran,instr_done_touch.clicked_name,key_resp_3.keys,key_resp_3.corr,key_resp_3.rt,test_click.x,test_click.y,test_click.leftButton,test_click.midButton,test_click.rightButton,test_click.time,test_click.clicked_name,test_phase.thisRepN,test_phase.thisTrialN,test_phase.thisN,test_phase.thisIndex,test_phase.ran
space,23.3845,0.266927083,-0.221354167,0,0,0,0,0,0,0,1,1,instructions,"INSTRUCTIONS
At the start of each trial, look at the plus sign  (+) in the center of the screen.  This tells you that a trial is about to begin and where to look. Second, the plus sign will disappear and a string of letters will appear. Your task is to determine if the string of letters is a word or not. If the item is a word press the M key (on keyboard)  or touch the word button (phone/tablet).  If the item is not a word,  press the  Z key (on keyboard)  or touch the nonword button (on phone/tablet). 
Press the space bar or touch  continue.",0,,5dd72606cb9dd66db5091b6b,36,2022-02-12_16h01.56.424,lexical_decision_task_DD_L3,2021.2.3,Win32,60.0240096,,,,,,,,,,,,,,,,,,,,,,,,,,,,,,,,,,,,,,,,,,,,,,,,,,,,,,,,,,,,,,,,,,,,,,,,,,,,,,,,,,,,,,
space,3.9351,0.266927083,-0.221354167,0,0,0,0,1,1,1,1,2,instructions,"If your device has a keyboard, press the 'Z' key for nonwords and the 'M' key for words.





Press the space bar or touch the button below to continue.",0,keyboard-example.gif,5dd72606cb9dd66db5091b6b,36,2022-02-12_16h01.56.424,lexical_decision_task_DD_L3,2021.2.3,Win32,60.0240096,,,,,,,,,,,,,,,,,,,,,,,,,,,,,,,,,,,,,,,,,,,,,,,,,,,,,,,,,,,,,,,,,,,,,,,,,,,,,,,,,,,,,,
space,4.1315,0.266927083,-0.221354167,0,0,0,0,2,2,2,1,3,instructions,"If you are using a touchscreen only device, use the buttons on the screen. Do not use the mouse.





Press the space bar or touch the button below to continue.",0,touchscreen-example.gif,5dd72606cb9dd66db5091b6b,36,2022-02-12_16h01.56.424,lexical_decision_task_DD_L3,2021.2.3,Win32,60.0240096,,,,,,,,,,,,,,,,,,,,,,,,,,,,,,,,,,,,,,,,,,,,,,,,,,,,,,,,,,,,,,,,,,,,,,,,,,,,,,,,,,,,,,
space,9.4674,0.266927083,-0.221354167,0,0,0,0,3,3,3,1,4,instructions,"It is very important that you respond as quickly and accurately as possible, as each letter string will only be on the screen for two seconds. If you do not respond within this time, the message 'Too slow!' will be displayed and the experiment will progress to the next letter string. The first 20 trials will be practice trials and you will receive feedback on your answers. 

Press the space bar or touch the button below to start the practice trials.",0,,5dd72606cb9dd66db5091b6b,36,2022-02-12_16h01.56.424,lexical_decision_task_DD_L3,2021.2.3,Win32,60.0240096,,,,,,,,,,,,,,,,,,,,,,,,,,,,,,,,,,,,,,,,,,,,,,,,,,,,,,,,,,,,,,,,,,,,,,,,,,,,,,,,,,,,,,
,,,,,,,,,,,,,,,,,5dd72606cb9dd66db5091b6b,36,2022-02-12_16h01.56.424,lexical_decision_task_DD_L3,2021.2.3,Win32,60.0240096,z,1,0.872,,,,,,,,0.872,1,0,0,0,11,1,1001,RASHET,z,,,,,,,,,,,,,,,,,,,,,,,,,,,,,,,,,,,,,,,,,,,,,,,,,,,,,,,,,,,,,,,,,,
,,,,,,,,,,,,,,,,,5dd72606cb9dd66db5091b6b,36,2022-02-12_16h01.56.424,lexical_decision_task_DD_L3,2021.2.3,Win32,60.0240096,z,1,0.5662,,,,,,,,0.5662,1,0,1,1,14,1,1001,THRALE,z,,,,,,,,,,,,,,,,,,,,,,,,,,,,,,,,,,,,,,,,,,,,,,,,,,,,,,,,,,,,,,,,,,
,,,,,,,,,,,,,,,,,5dd72606cb9dd66db5091b6b,36,2022-02-12_16h01.56.424,lexical_decision_task_DD_L3,2021.2.3,Win32,60.0240096,m,1,0.4811,,,,,,,,0.4811,1,0,2,2,2,1,1001,ALMOND,m,,,,,,,,,,,,,,,,,,,,,,,,,,,,,,,,,,,,,,,,,,,,,,,,,,,,,,,,,,,,,,,,,,
,,,,,,,,,,,,,,,,,5dd72606cb9dd66db5091b6b,36,2022-02-12_16h01.56.424,lexical_decision_task_DD_L3,2021.2.3,Win32,60.0240096,m,1,0.4592,,,,,,,,0.4592,1,0,3,3,1,1,1001,ADJUST,m,,,,,,,,,,,,,,,,,,,,,,,,,,,,,,,,,,,,,,,,,,,,,,,,,,,,,,,,,,,,,,,,,,
,,,,,,,,,,,,,,,,,5dd72606cb9dd66db5091b6b,36,2022-02-12_16h01.56.424,lexical_decision_task_DD_L3,2021.2.3,Win32,60.0240096,m,1,0.593,,,,,,,,0.593,1,0,4,4,6,1,1001,ZOMBIE,m,,,,,,,,,,,,,,,,,,,,,,,,,,,,,,,,,,,,,,,,,,,,,,,,,,,,,,,,,,,,,,,,,,
,,,,,,,,,,,,,,,,,5dd72606cb9dd66db5091b6b,36,2022-02-12_16h01.56.424,lexical_decision_task_DD_L3,2021.2.3,Win32,60.0240096,z,1,0.5096,,,,,,,,0.5096,1,0,5,5,15,1,1001,WHAISE,z,,,,,,,,,,,,,,,,,,,,,,,,,,,,,,,,,,,,,,,,,,,,,,,,,,,,,,,,,,,,,,,,,,
,,,,,,,,,,,,,,,,,5dd72606cb9dd66db5091b6b,36,2022-02-12_16h01.56.424,lexical_decision_task_DD_L3,2021.2.3,Win32,60.0240096,z,1,0.467,,,,,,,,0.467,1,0,6,6,13,1,1001,ROUPET,z,,,,,,,,,,,,,,,,,,,,,,,,,,,,,,,,,,,,,,,,,,,,,,,,,,,,,,,,,,,,,,,,,,
,,,,,,,,,,,,,,,,,5dd72606cb9dd66db5091b6b,36,2022-02-12_16h01.56.424,lexical_decision_task_DD_L3,2021.2.3,Win32,60.0240096,m,1,0.5109,,,,,,,,0.5109,1,0,7,7,4,1,1001,SQUEAK,m,,,,,,,,,,,,,,,,,,,,,,,,,,,,,,,,,,,,,,,,,,,,,,,,,,,,,,,,,,,,,,,,,,
,,,,,,,,,,,,,,,,,5dd72606cb9dd66db5091b6b,36,2022-02-12_16h01.56.424,lexical_decision_task_DD_L3,2021.2.3,Win32,60.0240096,z,1,0.516,,,,,,,,0.516,1,0,8,8,9,1,1001,FARINY,z,,,,,,,,,,,,,,,,,,,,,,,,,,,,,,,,,,,,,,,,,,,,,,,,,,,,,,,,,,,,,,,,,,
,,,,,,,,,,,,,,,,,5dd72606cb9dd66db5091b6b,36,2022-02-12_16h01.56.424,lexical_decision_task_DD_L3,2021.2.3,Win32,60.0240096,m,1,0.5049,,,,,,,,0.5049,1,0,9,9,7,1,1001,VOLUME,m,,,,,,,,,,,,,,,,,,,,,,,,,,,,,,,,,,,,,,,,,,,,,,,,,,,,,,,,,,,,,,,,,,
,,,,,,,,,,,,,,,,,5dd72606cb9dd66db5091b6b,36,2022-02-12_16h01.56.424,lexical_decision_task_DD_L3,2021.2.3,Win32,60.0240096,m,1,0.534,,,,,,,,0.534,1,0,10,10,3,1,1001,MATRIX,m,,,,,,,,,,,,,,,,,,,,,,,,,,,,,,,,,,,,,,,,,,,,,,,,,,,,,,,,,,,,,,,,,,
,,,,,,,,,,,,,,,,,5dd72606cb9dd66db5091b6b,36,2022-02-12_16h01.56.424,lexical_decision_task_DD_L3,2021.2.3,Win32,60.0240096,m,1,0.5641,,,,,,,,0.5641,1,0,11,11,0,1,1001,UTOPIA,m,,,,,,,,,,,,,,,,,,,,,,,,,,,,,,,,,,,,,,,,,,,,,,,,,,,,,,,,,,,,,,,,,,
,,,,,,,,,,,,,,,,,5dd72606cb9dd66db5091b6b,36,2022-02-12_16h01.56.424,lexical_decision_task_DD_L3,2021.2.3,Win32,60.0240096,z,1,0.6364,,,,,,,,0.6364,1,0,12,12,12,1,1001,SPRINY,z,,,,,,,,,,,,,,,,,,,,,,,,,,,,,,,,,,,,,,,,,,,,,,,,,,,,,,,,,,,,,,,,,,
,,,,,,,,,,,,,,,,,5dd72606cb9dd66db5091b6b,36,2022-02-12_16h01.56.424,lexical_decision_task_DD_L3,2021.2.3,Win32,60.0240096,z,1,0.9965,,,,,,,,0.9965,1,0,13,13,8,1,1001,ASLERT,z,,,,,,,,,,,,,,,,,,,,,,,,,,,,,,,,,,,,,,,,,,,,,,,,,,,,,,,,,,,,,,,,,,
,,,,,,,,,,,,,,,,,5dd72606cb9dd66db5091b6b,36,2022-02-12_16h01.56.424,lexical_decision_task_DD_L3,2021.2.3,Win32,60.0240096,m,1,0.7277,,,,,,,,0.7277,1,0,14,14,5,1,1001,OBTAIN,m,,,,,,,,,,,,,,,,,,,,,,,,,,,,,,,,,,,,,,,,,,,,,,,,,,,,,,,,,,,,,,,,,,
,,,,,,,,,,,,,,,,,5dd72606cb9dd66db5091b6b,36,2022-02-12_16h01.56.424,lexical_decision_task_DD_L3,2021.2.3,Win32,60.0240096,z,1,0.7824,,,,,,,,0.7824,1,0,15,15,10,1,1001,INLADE,z,,,,,,,,,,,,,,,,,,,,,,,,,,,,,,,,,,,,,,,,,,,,,,,,,,,,,,,,,,,,,,,,,,
space,10.7901,0.266927083,-0.221354167,0,0,0,,,,,,1,end_of_practice,"You have completed the practice trials. During the experimental trials, you will not receive feedback. 
Before you begin, please ensure that you are in a comfortable and quiet location and will not be disturbed for about 15 minutes, as we cannot use your data if you do not complete all the trials. 
 When you are ready to start the experimental trials, please press space or touch the button below.",,,5dd72606cb9dd66db5091b6b,36,2022-02-12_16h01.56.424,lexical_decision_task_DD_L3,2021.2.3,Win32,60.0240096,,,,,,,,,,,,,,,,,,,,,0,0,0,0,1,,,,,,,,,,,,,,,,,,,,,,,,,,,,,,,,,,,,,,,,,,,,,,,,,,,,,,,,,,,,,
,,,,,,,,,,,,,,,,,5dd72606cb9dd66db5091b6b,36,2022-02-12_16h01.56.424,lexical_decision_task_DD_L3,2021.2.3,Win32,60.0240096,,,,,,,,,,,2.198,1,,,,,,,,,,,,,,z,1,2.198,,,,,,,,0.266927083,-0.221354167,0,0,0,,0,0,0,130,1,CRILL,HB,old,z,./images/CRILLHB.png,,,,,,,,,,,,,,,,,,,,,,,,,,,,,,,,,,,
,,,,,,,,,,,,,,,,,5dd72606cb9dd66db5091b6b,36,2022-02-12_16h01.56.424,lexical_decision_task_DD_L3,2021.2.3,Win32,60.0240096,,,,,,,,,,,0.8382,1,,,,,,,,,,,,,,m,1,0.8382,,,,,,,,0.266927083,-0.221354167,0,0,0,,0,1,1,8,1,TULIP,HB,old,m,./images/TULIPHB.png,,,,,,,,,,,,,,,,,,,,,,,,,,,,,,,,,,,
,,,,,,,,,,,,,,,,,5dd72606cb9dd66db5091b6b,36,2022-02-12_16h01.56.424,lexical_decision_task_DD_L3,2021.2.3,Win32,60.0240096,,,,,,,,,,,1.2794,1,,,,,,,,,,,,,,z,1,1.2794,,,,,,,,0.266927083,-0.221354167,0,0,0,,0,2,2,135,1,JOODY,C,old,z,./images/JOODY.png,,,,,,,,,,,,,,,,,,,,,,,,,,,,,,,,,,,
,,,,,,,,,,,,,,,,,5dd72606cb9dd66db5091b6b,36,2022-02-12_16h01.56.424,lexical_decision_task_DD_L3,2021.2.3,Win32,60.0240096,,,,,,,,,,,0.6082,1,,,,,,,,,,,,,,m,1,0.6082,,,,,,,,0.266927083,-0.221354167,0,0,0,,0,3,3,30,1,STORM,LB,old,m,./images/STORMLB.png,,,,,,,,,,,,,,,,,,,,,,,,,,,,,,,,,,,
,,,,,,,,,,,,,,,,,5dd72606cb9dd66db5091b6b,36,2022-02-12_16h01.56.424,lexical_decision_task_DD_L3,2021.2.3,Win32,60.0240096,,,,,,,,,,,0.5215,1,,,,,,,,,,,,,,m,1,0.5215,,,,,,,,0.266927083,-0.221354167,0,0,0,,0,4,4,73,1,SNACK,C,old,m,./images/SNACK.png,,,,,,,,,,,,,,,,,,,,,,,,,,,,,,,,,,,
,,,,,,,,,,,,,,,,,5dd72606cb9dd66db5091b6b,36,2022-02-12_16h01.56.424,lexical_decision_task_DD_L3,2021.2.3,Win32,60.0240096,,,,,,,,,,,0.8559,1,,,,,,,,,,,,,,z,1,0.8559,,,,,,,,0.266927083,-0.221354167,0,0,0,,0,5,5,136,1,WERVE,HB,old,z,./images/WERVEHB.png,,,,,,,,,,,,,,,,,,,,,,,,,,,,,,,,,,,
,,,,,,,,,,,,,,,,,5dd72606cb9dd66db5091b6b,36,2022-02-12_16h01.56.424,lexical_decision_task_DD_L3,2021.2.3,Win32,60.0240096,,,,,,,,,,,0.6937,1,,,,,,,,,,,,,,z,1,0.6937,,,,,,,,0.266927083,-0.221354167,0,0,0,,0,6,6,157,1,INLER,HB,old,z,./images/INLERHB.png,,,,,,,,,,,,,,,,,,,,,,,,,,,,,,,,,,,
,,,,,,,,,,,,,,,,,5dd72606cb9dd66db5091b6b,36,2022-02-12_16h01.56.424,lexical_decision_task_DD_L3,2021.2.3,Win32,60.0240096,,,,,,,,,,,0.7849,1,,,,,,,,,,,,,,m,1,0.7849,,,,,,,,0.266927083,-0.221354167,0,0,0,,0,7,7,47,1,BERRY,HB,old,m,./images/BERRYHB.png,,,,,,,,,,,,,,,,,,,,,,,,,,,,,,,,,,,
,,,,,,,,,,,,,,,,,5dd72606cb9dd66db5091b6b,36,2022-02-12_16h01.56.424,lexical_decision_task_DD_L3,2021.2.3,Win32,60.0240096,,,,,,,,,,,0.9002,1,,,,,,,,,,,,,,z,1,0.9002,,,,,,,,0.266927083,-0.221354167,0,0,0,,0,8,8,124,1,TUNCH,HB,old,z,./images/TUNCHHB.png,,,,,,,,,,,,,,,,,,,,,,,,,,,,,,,,,,,
,,,,,,,,,,,,,,,,,5dd72606cb9dd66db5091b6b,36,2022-02-12_16h01.56.424,lexical_decision_task_DD_L3,2021.2.3,Win32,60.0240096,,,,,,,,,,,0.6853,0,,,,,,,,,,,,,,z,0,0.6853,,,,,,,,0.266927083,-0.221354167,0,0,0,,0,9,9,20,1,CRADLE,HB,old,m,./images/CRADLEHB.png,,,,,,,,,,,,,,,,,,,,,,,,,,,,,,,,,,,
,,,,,,,,,,,,,,,,,5dd72606cb9dd66db5091b6b,36,2022-02-12_16h01.56.424,lexical_decision_task_DD_L3,2021.2.3,Win32,60.0240096,,,,,,,,,,,0.9069,1,,,,,,,,,,,,,,z,1,0.9069,,,,,,,,0.266927083,-0.221354167,0,0,0,,0,10,10,97,1,CHIDS,HB,old,z,./images/CHIDSHB.png,,,,,,,,,,,,,,,,,,,,,,,,,,,,,,,,,,,
,,,,,,,,,,,,,,,,,5dd72606cb9dd66db5091b6b,36,2022-02-12_16h01.56.424,lexical_decision_task_DD_L3,2021.2.3,Win32,60.0240096,,,,,,,,,,,0.4949,1,,,,,,,,,,,,,,m,1,0.4949,,,,,,,,0.266927083,-0.221354167,0,0,0,,0,11,11,16,1,PENCE,C,old,m,./images/PENCE.png,,,,,,,,,,,,,,,,,,,,,,,,,,,,,,,,,,,
,,,,,,,,,,,,,,,,,5dd72606cb9dd66db5091b6b,36,2022-02-12_16h01.56.424,lexical_decision_task_DD_L3,2021.2.3,Win32,60.0240096,,,,,,,,,,,0.6843,1,,,,,,,,,,,,,,z,1,0.6843,,,,,,,,0.266927083,-0.221354167,0,0,0,,0,12,12,120,1,RINED,C,old,z,./images/RINED.png,,,,,,,,,,,,,,,,,,,,,,,,,,,,,,,,,,,
,,,,,,,,,,,,,,,,,5dd72606cb9dd66db5091b6b,36,2022-02-12_16h01.56.424,lexical_decision_task_DD_L3,2021.2.3,Win32,60.0240096,,,,,,,,,,,0.6681,1,,,,,,,,,,,,,,z,1,0.6681,,,,,,,,0.266927083,-0.221354167,0,0,0,,0,13,13,165,1,TROWN,C,old,z,./images/TROWN.png,,,,,,,,,,,,,,,,,,,,,,,,,,,,,,,,,,,
,,,,,,,,,,,,,,,,,5dd72606cb9dd66db5091b6b,36,2022-02-12_16h01.56.424,lexical_decision_task_DD_L3,2021.2.3,Win32,60.0240096,,,,,,,,,,,0.745,0,,,,,,,,,,,,,,z,0,0.745,,,,,,,,0.266927083,-0.221354167,0,0,0,,0,14,14,44,1,LIZARD,HB,old,m,./images/LIZARDHB.png,,,,,,,,,,,,,,,,,,,,,,,,,,,,,,,,,,,
,,,,,,,,,,,,,,,,,5dd72606cb9dd66db5091b6b,36,2022-02-12_16h01.56.424,lexical_decision_task_DD_L3,2021.2.3,Win32,60.0240096,,,,,,,,,,,0.5856,1,,,,,,,,,,,,,,m,1,0.5856,,,,,,,,0.266927083,-0.221354167,0,0,0,,0,15,15,63,1,MIRROR,LB,old,m,./images/MIRRORLB.png,,,,,,,,,,,,,,,,,,,,,,,,,,,,,,,,,,,
,,,,,,,,,,,,,,,,,5dd72606cb9dd66db5091b6b,36,2022-02-12_16h01.56.424,lexical_decision_task_DD_L3,2021.2.3,Win32,60.0240096,,,,,,,,,,,0.6351,1,,,,,,,,,,,,,,z,1,0.6351,,,,,,,,0.266927083,-0.221354167,0,0,0,,0,16,16,144,1,NAIRY,C,old,z,./images/NAIRY.png,,,,,,,,,,,,,,,,,,,,,,,,,,,,,,,,,,,
,,,,,,,,,,,,,,,,,5dd72606cb9dd66db5091b6b,36,2022-02-12_16h01.56.424,lexical_decision_task_DD_L3,2021.2.3,Win32,60.0240096,,,,,,,,,,,0.6669,1,,,,,,,,,,,,,,m,1,0.6669,,,,,,,,0.266927083,-0.221354167,0,0,0,,0,17,17,78,1,LITTER,LB,old,m,./images/LITTERLB.png,,,,,,,,,,,,,,,,,,,,,,,,,,,,,,,,,,,
,,,,,,,,,,,,,,,,,5dd72606cb9dd66db5091b6b,36,2022-02-12_16h01.56.424,lexical_decision_task_DD_L3,2021.2.3,Win32,60.0240096,,,,,,,,,,,0.888,1,,,,,,,,,,,,,,z,1,0.888,,,,,,,,0.266927083,-0.221354167,0,0,0,,0,18,18,127,1,NINDY,HB,old,z,./images/NINDYHB.png,,,,,,,,,,,,,,,,,,,,,,,,,,,,,,,,,,,
,,,,,,,,,,,,,,,,,5dd72606cb9dd66db5091b6b,36,2022-02-12_16h01.56.424,lexical_decision_task_DD_L3,2021.2.3,Win32,60.0240096,,,,,,,,,,,0.5385,1,,,,,,,,,,,,,,m,1,0.5385,,,,,,,,0.266927083,-0.221354167,0,0,0,,0,19,19,19,1,DOUGH,C,old,m,./images/DOUGH.png,,,,,,,,,,,,,,,,,,,,,,,,,,,,,,,,,,,
,,,,,,,,,,,,,,,,,5dd72606cb9dd66db5091b6b,36,2022-02-12_16h01.56.424,lexical_decision_task_DD_L3,2021.2.3,Win32,60.0240096,,,,,,,,,,,0.6667,1,,,,,,,,,,,,,,m,1,0.6667,,,,,,,,0.266927083,-0.221354167,0,0,0,,0,20,20,5,1,PASTA,HB,old,m,./images/PASTAHB.png,,,,,,,,,,,,,,,,,,,,,,,,,,,,,,,,,,,
,,,,,,,,,,,,,,,,,5dd72606cb9dd66db5091b6b,36,2022-02-12_16h01.56.424,lexical_decision_task_DD_L3,2021.2.3,Win32,60.0240096,,,,,,,,,,,0.6648,1,,,,,,,,,,,,,,z,1,0.6648,,,,,,,,0.266927083,-0.221354167,0,0,0,,0,21,21,160,1,VEETS,HB,old,z,./images/VEETSHB.png,,,,,,,,,,,,,,,,,,,,,,,,,,,,,,,,,,,
,,,,,,,,,,,,,,,,,5dd72606cb9dd66db5091b6b,36,2022-02-12_16h01.56.424,lexical_decision_task_DD_L3,2021.2.3,Win32,60.0240096,,,,,,,,,,,0.6242,1,,,,,,,,,,,,,,m,1,0.6242,,,,,,,,0.266927083,-0.221354167,0,0,0,,0,22,22,35,1,PEACH,HB,old,m,./images/PEACHHB.png,,,,,,,,,,,,,,,,,,,,,,,,,,,,,,,,,,,
,,,,,,,,,,,,,,,,,5dd72606cb9dd66db5091b6b,36,2022-02-12_16h01.56.424,lexical_decision_task_DD_L3,2021.2.3,Win32,60.0240096,,,,,,,,,,,0.4924,1,,,,,,,,,,,,,,m,1,0.4924,,,,,,,,0.266927083,-0.221354167,0,0,0,,0,23,23,48,1,SPORT,LB,old,m,./images/SPORTLB.png,,,,,,,,,,,,,,,,,,,,,,,,,,,,,,,,,,,
,,,,,,,,,,,,,,,,,5dd72606cb9dd66db5091b6b,36,2022-02-12_16h01.56.424,lexical_decision_task_DD_L3,2021.2.3,Win32,60.0240096,,,,,,,,,,,0.6033,1,,,,,,,,,,,,,,z,1,0.6033,,,,,,,,0.266927083,-0.221354167,0,0,0,,0,24,24,119,1,PAFER,LB,old,z,./images/PAFERLB.png,,,,,,,,,,,,,,,,,,,,,,,,,,,,,,,,,,,
,,,,,,,,,,,,,,,,,5dd72606cb9dd66db5091b6b,36,2022-02-12_16h01.56.424,lexical_decision_task_DD_L3,2021.2.3,Win32,60.0240096,,,,,,,,,,,0.851,0,,,,,,,,,,,,,,m,0,0.851,,,,,,,,0.266927083,-0.221354167,0,0,0,,0,25,25,85,1,CHULK,HB,old,z,./images/CHULKHB.png,,,,,,,,,,,,,,,,,,,,,,,,,,,,,,,,,,,
,,,,,,,,,,,,,,,,,5dd72606cb9dd66db5091b6b,36,2022-02-12_16h01.56.424,lexical_decision_task_DD_L3,2021.2.3,Win32,60.0240096,,,,,,,,,,,0.601,1,,,,,,,,,,,,,,m,1,0.601,,,,,,,,0.266927083,-0.221354167,0,0,0,,0,26,26,82,1,SUNSET,C,old,m,./images/SUNSET.png,,,,,,,,,,,,,,,,,,,,,,,,,,,,,,,,,,,
,,,,,,,,,,,,,,,,,5dd72606cb9dd66db5091b6b,36,2022-02-12_16h01.56.424,lexical_decision_task_DD_L3,2021.2.3,Win32,60.0240096,,,,,,,,,,,1.012,1,,,,,,,,,,,,,,m,1,1.012,,,,,,,,0.266927083,-0.221354167,0,0,0,,0,27,27,50,1,MALLET,HB,old,m,./images/MALLETHB.png,,,,,,,,,,,,,,,,,,,,,,,,,,,,,,,,,,,
,,,,,,,,,,,,,,,,,5dd72606cb9dd66db5091b6b,36,2022-02-12_16h01.56.424,lexical_decision_task_DD_L3,2021.2.3,Win32,60.0240096,,,,,,,,,,,0.496,1,,,,,,,,,,,,,,m,1,0.496,,,,,,,,0.266927083,-0.221354167,0,0,0,,0,28,28,18,1,JAGUAR,LB,old,m,./images/JAGUARLB.png,,,,,,,,,,,,,,,,,,,,,,,,,,,,,,,,,,,
,,,,,,,,,,,,,,,,,5dd72606cb9dd66db5091b6b,36,2022-02-12_16h01.56.424,lexical_decision_task_DD_L3,2021.2.3,Win32,60.0240096,,,,,,,,,,,0.5539,1,,,,,,,,,,,,,,m,1,0.5539,,,,,,,,0.266927083,-0.221354167,0,0,0,,0,29,29,77,1,COUCH,HB,old,m,./images/COUCHHB.png,,,,,,,,,,,,,,,,,,,,,,,,,,,,,,,,,,,
,,,,,,,,,,,,,,,,,5dd72606cb9dd66db5091b6b,36,2022-02-12_16h01.56.424,lexical_decision_task_DD_L3,2021.2.3,Win32,60.0240096,,,,,,,,,,,0.6274,1,,,,,,,,,,,,,,z,1,0.6274,,,,,,,,0.266927083,-0.221354167,0,0,0,,0,30,30,149,1,VEASE,LB,old,z,./images/VEASELB.png,,,,,,,,,,,,,,,,,,,,,,,,,,,,,,,,,,,
,,,,,,,,,,,,,,,,,5dd72606cb9dd66db5091b6b,36,2022-02-12_16h01.56.424,lexical_decision_task_DD_L3,2021.2.3,Win32,60.0240096,,,,,,,,,,,0.5495,1,,,,,,,,,,,,,,m,1,0.5495,,,,,,,,0.266927083,-0.221354167,0,0,0,,0,31,31,39,1,SHELF,LB,old,m,./images/SHELFLB.png,,,,,,,,,,,,,,,,,,,,,,,,,,,,,,,,,,,
,,,,,,,,,,,,,,,,,5dd72606cb9dd66db5091b6b,36,2022-02-12_16h01.56.424,lexical_decision_task_DD_L3,2021.2.3,Win32,60.0240096,,,,,,,,,,,0.7298,1,,,,,,,,,,,,,,m,1,0.7298,,,,,,,,0.266927083,-0.221354167,0,0,0,,0,32,32,56,1,PACKET,HB,old,m,./images/PACKETHB.png,,,,,,,,,,,,,,,,,,,,,,,,,,,,,,,,,,,
,,,,,,,,,,,,,,,,,5dd72606cb9dd66db5091b6b,36,2022-02-12_16h01.56.424,lexical_decision_task_DD_L3,2021.2.3,Win32,60.0240096,,,,,,,,,,,0.5197,1,,,,,,,,,,,,,,z,1,0.5197,,,,,,,,0.266927083,-0.221354167,0,0,0,,0,33,33,162,1,LEICH,C,old,z,./images/LEICH.png,,,,,,,,,,,,,,,,,,,,,,,,,,,,,,,,,,,
,,,,,,,,,,,,,,,,,5dd72606cb9dd66db5091b6b,36,2022-02-12_16h01.56.424,lexical_decision_task_DD_L3,2021.2.3,Win32,60.0240096,,,,,,,,,,,0.5564,1,,,,,,,,,,,,,,m,1,0.5564,,,,,,,,0.266927083,-0.221354167,0,0,0,,0,34,34,7,1,PAINT,C,old,m,./images/PAINT.png,,,,,,,,,,,,,,,,,,,,,,,,,,,,,,,,,,,
,,,,,,,,,,,,,,,,,5dd72606cb9dd66db5091b6b,36,2022-02-12_16h01.56.424,lexical_decision_task_DD_L3,2021.2.3,Win32,60.0240096,,,,,,,,,,,0.6413,1,,,,,,,,,,,,,,z,1,0.6413,,,,,,,,0.266927083,-0.221354167,0,0,0,,0,35,35,156,1,HIXES,C,old,z,./images/HIXES.png,,,,,,,,,,,,,,,,,,,,,,,,,,,,,,,,,,,
,,,,,,,,,,,,,,,,,5dd72606cb9dd66db5091b6b,36,2022-02-12_16h01.56.424,lexical_decision_task_DD_L3,2021.2.3,Win32,60.0240096,,,,,,,,,,,0.7145,1,,,,,,,,,,,,,,z,1,0.7145,,,,,,,,0.266927083,-0.221354167,0,0,0,,0,36,36,116,1,BALGY,LB,old,z,./images/BALGYLB.png,,,,,,,,,,,,,,,,,,,,,,,,,,,,,,,,,,,
,,,,,,,,,,,,,,,,,5dd72606cb9dd66db5091b6b,36,2022-02-12_16h01.56.424,lexical_decision_task_DD_L3,2021.2.3,Win32,60.0240096,,,,,,,,,,,0.5795,0,,,,,,,,,,,,,,z,0,0.5795,,,,,,,,0.266927083,-0.221354167,0,0,0,,0,37,37,62,1,PURSE,HB,old,m,./images/PURSEHB.png,,,,,,,,,,,,,,,,,,,,,,,,,,,,,,,,,,,
,,,,,,,,,,,,,,,,,5dd72606cb9dd66db5091b6b,36,2022-02-12_16h01.56.424,lexical_decision_task_DD_L3,2021.2.3,Win32,60.0240096,,,,,,,,,,,0.7205,1,,,,,,,,,,,,,,m,1,0.7205,,,,,,,,0.266927083,-0.221354167,0,0,0,,0,38,38,68,1,TORCH,HB,old,m,./images/TORCHHB.png,,,,,,,,,,,,,,,,,,,,,,,,,,,,,,,,,,,
,,,,,,,,,,,,,,,,,5dd72606cb9dd66db5091b6b,36,2022-02-12_16h01.56.424,lexical_decision_task_DD_L3,2021.2.3,Win32,60.0240096,,,,,,,,,,,0.5758,1,,,,,,,,,,,,,,z,1,0.5758,,,,,,,,0.266927083,-0.221354167,0,0,0,,0,39,39,141,1,PLEET,C,old,z,./images/PLEET.png,,,,,,,,,,,,,,,,,,,,,,,,,,,,,,,,,,,
,,,,,,,,,,,,,,,,,5dd72606cb9dd66db5091b6b,36,2022-02-12_16h01.56.424,lexical_decision_task_DD_L3,2021.2.3,Win32,60.0240096,,,,,,,,,,,0.5241,1,,,,,,,,,,,,,,m,1,0.5241,,,,,,,,0.266927083,-0.221354167,0,0,0,,0,40,40,51,1,ONION,LB,old,m,./images/ONIONLB.png,,,,,,,,,,,,,,,,,,,,,,,,,,,,,,,,,,,
,,,,,,,,,,,,,,,,,5dd72606cb9dd66db5091b6b,36,2022-02-12_16h01.56.424,lexical_decision_task_DD_L3,2021.2.3,Win32,60.0240096,,,,,,,,,,,0.5263,1,,,,,,,,,,,,,,z,1,0.5263,,,,,,,,0.266927083,-0.221354167,0,0,0,space,0,41,41,126,1,GUELS,C,old,z,./images/GUELS.png,5.0621,,,,,,,,,,,,,,,,,,,,,,,,,,,,,,,,,,
,,,,,,,,,,,,,,,,,5dd72606cb9dd66db5091b6b,36,2022-02-12_16h01.56.424,lexical_decision_task_DD_L3,2021.2.3,Win32,60.0240096,,,,,,,,,,,0.5943,1,,,,,,,,,,,,,,z,1,0.5943,,,,,,,,0.266927083,-0.221354167,0,0,0,,0,42,42,112,1,MYING,HB,old,z,./images/MYINGHB.png,,,,,,,,,,,,,,,,,,,,,,,,,,,,,,,,,,,
,,,,,,,,,,,,,,,,,5dd72606cb9dd66db5091b6b,36,2022-02-12_16h01.56.424,lexical_decision_task_DD_L3,2021.2.3,Win32,60.0240096,,,,,,,,,,,0.5312,1,,,,,,,,,,,,,,m,1,0.5312,,,,,,,,0.266927083,-0.221354167,0,0,0,,0,43,43,54,1,TRIPOD,LB,old,m,./images/TRIPODLB.png,,,,,,,,,,,,,,,,,,,,,,,,,,,,,,,,,,,
,,,,,,,,,,,,,,,,,5dd72606cb9dd66db5091b6b,36,2022-02-12_16h01.56.424,lexical_decision_task_DD_L3,2021.2.3,Win32,60.0240096,,,,,,,,,,,0.5587,1,,,,,,,,,,,,,,z,1,0.5587,,,,,,,,0.266927083,-0.221354167,0,0,0,,0,44,44,154,1,THINT,HB,old,z,./images/THINTHB.png,,,,,,,,,,,,,,,,,,,,,,,,,,,,,,,,,,,
,,,,,,,,,,,,,,,,,5dd72606cb9dd66db5091b6b,36,2022-02-12_16h01.56.424,lexical_decision_task_DD_L3,2021.2.3,Win32,60.0240096,,,,,,,,,,,0.5926,1,,,,,,,,,,,,,,z,1,0.5926,,,,,,,,0.266927083,-0.221354167,0,0,0,,0,45,45,164,1,SGREW,LB,old,z,./images/SGREWLB.png,,,,,,,,,,,,,,,,,,,,,,,,,,,,,,,,,,,
,,,,,,,,,,,,,,,,,5dd72606cb9dd66db5091b6b,36,2022-02-12_16h01.56.424,lexical_decision_task_DD_L3,2021.2.3,Win32,60.0240096,,,,,,,,,,,0.5273,1,,,,,,,,,,,,,,m,1,0.5273,,,,,,,,0.266927083,-0.221354167,0,0,0,,0,46,46,10,1,BELLY,C,old,m,./images/BELLY.png,,,,,,,,,,,,,,,,,,,,,,,,,,,,,,,,,,,
,,,,,,,,,,,,,,,,,5dd72606cb9dd66db5091b6b,36,2022-02-12_16h01.56.424,lexical_decision_task_DD_L3,2021.2.3,Win32,60.0240096,,,,,,,,,,,0.6775,1,,,,,,,,,,,,,,z,1,0.6775,,,,,,,,0.266927083,-0.221354167,0,0,0,,0,47,47,122,1,BLOOT,LB,old,z,./images/BLOOTLB.png,,,,,,,,,,,,,,,,,,,,,,,,,,,,,,,,,,,
,,,,,,,,,,,,,,,,,5dd72606cb9dd66db5091b6b,36,2022-02-12_16h01.56.424,lexical_decision_task_DD_L3,2021.2.3,Win32,60.0240096,,,,,,,,,,,0.6605,1,,,,,,,,,,,,,,z,1,0.6605,,,,,,,,0.266927083,-0.221354167,0,0,0,,0,48,48,143,1,MONGS,LB,old,z,./images/MONGSLB.png,,,,,,,,,,,,,,,,,,,,,,,,,,,,,,,,,,,
,,,,,,,,,,,,,,,,,5dd72606cb9dd66db5091b6b,36,2022-02-12_16h01.56.424,lexical_decision_task_DD_L3,2021.2.3,Win32,60.0240096,,,,,,,,,,,0.6647,1,,,,,,,,,,,,,,m,1,0.6647,,,,,,,,0.266927083,-0.221354167,0,0,0,,0,49,49,83,1,JUNGLE,HB,old,m,./images/JUNGLEHB.png,,,,,,,,,,,,,,,,,,,,,,,,,,,,,,,,,,,
,,,,,,,,,,,,,,,,,5dd72606cb9dd66db5091b6b,36,2022-02-12_16h01.56.424,lexical_decision_task_DD_L3,2021.2.3,Win32,60.0240096,,,,,,,,,,,0.556,1,,,,,,,,,,,,,,z,1,0.556,,,,,,,,0.266927083,-0.221354167,0,0,0,,0,50,50,131,1,NACES,LB,old,z,./images/NACESLB.png,,,,,,,,,,,,,,,,,,,,,,,,,,,,,,,,,,,
,,,,,,,,,,,,,,,,,5dd72606cb9dd66db5091b6b,36,2022-02-12_16h01.56.424,lexical_decision_task_DD_L3,2021.2.3,Win32,60.0240096,,,,,,,,,,,0.6,1,,,,,,,,,,,,,,m,1,0.6,,,,,,,,0.266927083,-0.221354167,0,0,0,,0,51,51,27,1,ATTIC,LB,old,m,./images/ATTICLB.png,,,,,,,,,,,,,,,,,,,,,,,,,,,,,,,,,,,
,,,,,,,,,,,,,,,,,5dd72606cb9dd66db5091b6b,36,2022-02-12_16h01.56.424,lexical_decision_task_DD_L3,2021.2.3,Win32,60.0240096,,,,,,,,,,,0.6101,1,,,,,,,,,,,,,,z,1,0.6101,,,,,,,,0.266927083,-0.221354167,0,0,0,,0,52,52,134,1,TROSS,LB,old,z,./images/TROSSLB.png,,,,,,,,,,,,,,,,,,,,,,,,,,,,,,,,,,,
,,,,,,,,,,,,,,,,,5dd72606cb9dd66db5091b6b,36,2022-02-12_16h01.56.424,lexical_decision_task_DD_L3,2021.2.3,Win32,60.0240096,,,,,,,,,,,0.5941,1,,,,,,,,,,,,,,m,1,0.5941,,,,,,,,0.266927083,-0.221354167,0,0,0,,0,53,53,67,1,SAILOR,C,old,m,./images/SAILOR.png,,,,,,,,,,,,,,,,,,,,,,,,,,,,,,,,,,,
,,,,,,,,,,,,,,,,,5dd72606cb9dd66db5091b6b,36,2022-02-12_16h01.56.424,lexical_decision_task_DD_L3,2021.2.3,Win32,60.0240096,,,,,,,,,,,0.7646,1,,,,,,,,,,,,,,z,1,0.7646,,,,,,,,0.266927083,-0.221354167,0,0,0,,0,54,54,151,1,TINKY,HB,old,z,./images/TINKYHB.png,,,,,,,,,,,,,,,,,,,,,,,,,,,,,,,,,,,
,,,,,,,,,,,,,,,,,5dd72606cb9dd66db5091b6b,36,2022-02-12_16h01.56.424,lexical_decision_task_DD_L3,2021.2.3,Win32,60.0240096,,,,,,,,,,,0.7333,1,,,,,,,,,,,,,,m,1,0.7333,,,,,,,,0.266927083,-0.221354167,0,0,0,,0,55,55,29,1,CRUMB,HB,old,m,./images/CRUMBHB.png,,,,,,,,,,,,,,,,,,,,,,,,,,,,,,,,,,,
,,,,,,,,,,,,,,,,,5dd72606cb9dd66db5091b6b,36,2022-02-12_16h01.56.424,lexical_decision_task_DD_L3,2021.2.3,Win32,60.0240096,,,,,,,,,,,0.6346,1,,,,,,,,,,,,,,z,1,0.6346,,,,,,,,0.266927083,-0.221354167,0,0,0,,0,56,56,101,1,GLEET,LB,old,z,./images/GLEETLB.png,,,,,,,,,,,,,,,,,,,,,,,,,,,,,,,,,,,
,,,,,,,,,,,,,,,,,5dd72606cb9dd66db5091b6b,36,2022-02-12_16h01.56.424,lexical_decision_task_DD_L3,2021.2.3,Win32,60.0240096,,,,,,,,,,,0.5083,1,,,,,,,,,,,,,,m,1,0.5083,,,,,,,,0.266927083,-0.221354167,0,0,0,,0,57,57,60,1,TWINS,LB,old,m,./images/TWINSLB.png,,,,,,,,,,,,,,,,,,,,,,,,,,,,,,,,,,,
,,,,,,,,,,,,,,,,,5dd72606cb9dd66db5091b6b,36,2022-02-12_16h01.56.424,lexical_decision_task_DD_L3,2021.2.3,Win32,60.0240096,,,,,,,,,,,0.5757,1,,,,,,,,,,,,,,z,1,0.5757,,,,,,,,0.266927083,-0.221354167,0,0,0,,0,58,58,84,1,HAXES,C,old,z,./images/HAXES.png,,,,,,,,,,,,,,,,,,,,,,,,,,,,,,,,,,,
,,,,,,,,,,,,,,,,,5dd72606cb9dd66db5091b6b,36,2022-02-12_16h01.56.424,lexical_decision_task_DD_L3,2021.2.3,Win32,60.0240096,,,,,,,,,,,0.5493,1,,,,,,,,,,,,,,m,1,0.5493,,,,,,,,0.266927083,-0.221354167,0,0,0,,0,59,59,21,1,KIDNEY,LB,old,m,./images/KIDNEYLB.png,,,,,,,,,,,,,,,,,,,,,,,,,,,,,,,,,,,
,,,,,,,,,,,,,,,,,5dd72606cb9dd66db5091b6b,36,2022-02-12_16h01.56.424,lexical_decision_task_DD_L3,2021.2.3,Win32,60.0240096,,,,,,,,,,,0.6875,0,,,,,,,,,,,,,,m,0,0.6875,,,,,,,,0.266927083,-0.221354167,0,0,0,,0,60,60,128,1,GRIFT,LB,old,z,./images/GRIFTLB.png,,,,,,,,,,,,,,,,,,,,,,,,,,,,,,,,,,,
,,,,,,,,,,,,,,,,,5dd72606cb9dd66db5091b6b,36,2022-02-12_16h01.56.424,lexical_decision_task_DD_L3,2021.2.3,Win32,60.0240096,,,,,,,,,,,0.7687,1,,,,,,,,,,,,,,z,1,0.7687,,,,,,,,0.266927083,-0.221354167,0,0,0,,0,61,61,88,1,GLUSH,HB,old,z,./images/GLUSHHB.png,,,,,,,,,,,,,,,,,,,,,,,,,,,,,,,,,,,
,,,,,,,,,,,,,,,,,5dd72606cb9dd66db5091b6b,36,2022-02-12_16h01.56.424,lexical_decision_task_DD_L3,2021.2.3,Win32,60.0240096,,,,,,,,,,,0.5741,1,,,,,,,,,,,,,,z,1,0.5741,,,,,,,,0.266927083,-0.221354167,0,0,0,,0,62,62,90,1,NEAST,C,old,z,./images/NEAST.png,,,,,,,,,,,,,,,,,,,,,,,,,,,,,,,,,,,
,,,,,,,,,,,,,,,,,5dd72606cb9dd66db5091b6b,36,2022-02-12_16h01.56.424,lexical_decision_task_DD_L3,2021.2.3,Win32,60.0240096,,,,,,,,,,,0.5886,1,,,,,,,,,,,,,,z,1,0.5886,,,,,,,,0.266927083,-0.221354167,0,0,0,,0,63,63,113,1,LINEW,LB,old,z,./images/LINEWLB.png,,,,,,,,,,,,,,,,,,,,,,,,,,,,,,,,,,,
,,,,,,,,,,,,,,,,,5dd72606cb9dd66db5091b6b,36,2022-02-12_16h01.56.424,lexical_decision_task_DD_L3,2021.2.3,Win32,60.0240096,,,,,,,,,,,0.8725,1,,,,,,,,,,,,,,m,1,0.8725,,,,,,,,0.266927083,-0.221354167,0,0,0,,0,64,64,74,1,CEMENT,HB,old,m,./images/CEMENTHB.png,,,,,,,,,,,,,,,,,,,,,,,,,,,,,,,,,,,
,,,,,,,,,,,,,,,,,5dd72606cb9dd66db5091b6b,36,2022-02-12_16h01.56.424,lexical_decision_task_DD_L3,2021.2.3,Win32,60.0240096,,,,,,,,,,,0.6061,1,,,,,,,,,,,,,,m,1,0.6061,,,,,,,,0.266927083,-0.221354167,0,0,0,,0,65,65,79,1,CRUST,C,old,m,./images/CRUST.png,,,,,,,,,,,,,,,,,,,,,,,,,,,,,,,,,,,
,,,,,,,,,,,,,,,,,5dd72606cb9dd66db5091b6b,36,2022-02-12_16h01.56.424,lexical_decision_task_DD_L3,2021.2.3,Win32,60.0240096,,,,,,,,,,,0.5403,1,,,,,,,,,,,,,,m,1,0.5403,,,,,,,,0.266927083,-0.221354167,0,0,0,,0,66,66,55,1,MUFFIN,C,old,m,./images/MUFFIN.png,,,,,,,,,,,,,,,,,,,,,,,,,,,,,,,,,,,
,,,,,,,,,,,,,,,,,5dd72606cb9dd66db5091b6b,36,2022-02-12_16h01.56.424,lexical_decision_task_DD_L3,2021.2.3,Win32,60.0240096,,,,,,,,,,,0.5239,1,,,,,,,,,,,,,,z,1,0.5239,,,,,,,,0.266927083,-0.221354167,0,0,0,,0,67,67,150,1,NOOLS,C,old,z,./images/NOOLS.png,,,,,,,,,,,,,,,,,,,,,,,,,,,,,,,,,,,
,,,,,,,,,,,,,,,,,5dd72606cb9dd66db5091b6b,36,2022-02-12_16h01.56.424,lexical_decision_task_DD_L3,2021.2.3,Win32,60.0240096,,,,,,,,,,,0.7906,1,,,,,,,,,,,,,,z,1,0.7906,,,,,,,,0.266927083,-0.221354167,0,0,0,,0,68,68,121,1,CEERS,HB,old,z,./images/CEERSHB.png,,,,,,,,,,,,,,,,,,,,,,,,,,,,,,,,,,,
,,,,,,,,,,,,,,,,,5dd72606cb9dd66db5091b6b,36,2022-02-12_16h01.56.424,lexical_decision_task_DD_L3,2021.2.3,Win32,60.0240096,,,,,,,,,,,0.7405,1,,,,,,,,,,,,,,z,1,0.7405,,,,,,,,0.266927083,-0.221354167,0,0,0,,0,69,69,137,1,JOOST,LB,old,z,./images/JOOSTLB.png,,,,,,,,,,,,,,,,,,,,,,,,,,,,,,,,,,,
,,,,,,,,,,,,,,,,,5dd72606cb9dd66db5091b6b,36,2022-02-12_16h01.56.424,lexical_decision_task_DD_L3,2021.2.3,Win32,60.0240096,,,,,,,,,,,0.7867,1,,,,,,,,,,,,,,z,1,0.7867,,,,,,,,0.266927083,-0.221354167,0,0,0,,0,70,70,142,1,PLASK,HB,old,z,./images/PLASKHB.png,,,,,,,,,,,,,,,,,,,,,,,,,,,,,,,,,,,
,,,,,,,,,,,,,,,,,5dd72606cb9dd66db5091b6b,36,2022-02-12_16h01.56.424,lexical_decision_task_DD_L3,2021.2.3,Win32,60.0240096,,,,,,,,,,,0.896,1,,,,,,,,,,,,,,z,1,0.896,,,,,,,,0.266927083,-0.221354167,0,0,0,,0,71,71,145,1,LAMEL,HB,old,z,./images/LAMELHB.png,,,,,,,,,,,,,,,,,,,,,,,,,,,,,,,,,,,
,,,,,,,,,,,,,,,,,5dd72606cb9dd66db5091b6b,36,2022-02-12_16h01.56.424,lexical_decision_task_DD_L3,2021.2.3,Win32,60.0240096,,,,,,,,,,,1.2564,0,,,,,,,,,,,,,,z,0,1.2564,,,,,,,,0.266927083,-0.221354167,0,0,0,,0,72,72,71,1,PIMPLE,HB,old,m,./images/PIMPLEHB.png,,,,,,,,,,,,,,,,,,,,,,,,,,,,,,,,,,,
,,,,,,,,,,,,,,,,,5dd72606cb9dd66db5091b6b,36,2022-02-12_16h01.56.424,lexical_decision_task_DD_L3,2021.2.3,Win32,60.0240096,,,,,,,,,,,0.7082,1,,,,,,,,,,,,,,z,1,0.7082,,,,,,,,0.266927083,-0.221354167,0,0,0,,0,73,73,108,1,GRUET,C,old,z,./images/GRUET.png,,,,,,,,,,,,,,,,,,,,,,,,,,,,,,,,,,,
,,,,,,,,,,,,,,,,,5dd72606cb9dd66db5091b6b,36,2022-02-12_16h01.56.424,lexical_decision_task_DD_L3,2021.2.3,Win32,60.0240096,,,,,,,,,,,0.5496,1,,,,,,,,,,,,,,m,1,0.5496,,,,,,,,0.266927083,-0.221354167,0,0,0,,0,74,74,49,1,DRUMS,C,old,m,./images/DRUMS.png,,,,,,,,,,,,,,,,,,,,,,,,,,,,,,,,,,,
,,,,,,,,,,,,,,,,,5dd72606cb9dd66db5091b6b,36,2022-02-12_16h01.56.424,lexical_decision_task_DD_L3,2021.2.3,Win32,60.0240096,,,,,,,,,,,0.5065,1,,,,,,,,,,,,,,z,1,0.5065,,,,,,,,0.266927083,-0.221354167,0,0,0,,0,75,75,123,1,SEDGE,C,old,z,./images/SEDGE.png,,,,,,,,,,,,,,,,,,,,,,,,,,,,,,,,,,,
,,,,,,,,,,,,,,,,,5dd72606cb9dd66db5091b6b,36,2022-02-12_16h01.56.424,lexical_decision_task_DD_L3,2021.2.3,Win32,60.0240096,,,,,,,,,,,0.6253,1,,,,,,,,,,,,,,z,1,0.6253,,,,,,,,0.266927083,-0.221354167,0,0,0,,0,76,76,155,1,CANGY,LB,old,z,./images/CANGYLB.png,,,,,,,,,,,,,,,,,,,,,,,,,,,,,,,,,,,
,,,,,,,,,,,,,,,,,5dd72606cb9dd66db5091b6b,36,2022-02-12_16h01.56.424,lexical_decision_task_DD_L3,2021.2.3,Win32,60.0240096,,,,,,,,,,,0.5387,1,,,,,,,,,,,,,,m,1,0.5387,,,,,,,,0.266927083,-0.221354167,0,0,0,,0,77,77,0,1,TOMATO,LB,old,m,./images/TOMATOLB.png,,,,,,,,,,,,,,,,,,,,,,,,,,,,,,,,,,,
,,,,,,,,,,,,,,,,,5dd72606cb9dd66db5091b6b,36,2022-02-12_16h01.56.424,lexical_decision_task_DD_L3,2021.2.3,Win32,60.0240096,,,,,,,,,,,0.6032,1,,,,,,,,,,,,,,m,1,0.6032,,,,,,,,0.266927083,-0.221354167,0,0,0,,0,78,78,33,1,MAGGOT,LB,old,m,./images/MAGGOTLB.png,,,,,,,,,,,,,,,,,,,,,,,,,,,,,,,,,,,
,,,,,,,,,,,,,,,,,5dd72606cb9dd66db5091b6b,36,2022-02-12_16h01.56.424,lexical_decision_task_DD_L3,2021.2.3,Win32,60.0240096,,,,,,,,,,,0.6202,0,,,,,,,,,,,,,,m,0,0.6202,,,,,,,,0.266927083,-0.221354167,0,0,0,,0,79,79,140,1,DOVET,LB,old,z,./images/DOVETLB.png,,,,,,,,,,,,,,,,,,,,,,,,,,,,,,,,,,,
,,,,,,,,,,,,,,,,,5dd72606cb9dd66db5091b6b,36,2022-02-12_16h01.56.424,lexical_decision_task_DD_L3,2021.2.3,Win32,60.0240096,,,,,,,,,,,0.5885,1,,,,,,,,,,,,,,m,1,0.5885,,,,,,,,0.266927083,-0.221354167,0,0,0,,0,80,80,61,1,CANDLE,C,old,m,./images/CANDLE.png,,,,,,,,,,,,,,,,,,,,,,,,,,,,,,,,,,,
,,,,,,,,,,,,,,,,,5dd72606cb9dd66db5091b6b,36,2022-02-12_16h01.56.424,lexical_decision_task_DD_L3,2021.2.3,Win32,60.0240096,,,,,,,,,,,0.6189,1,,,,,,,,,,,,,,m,1,0.6189,,,,,,,,0.266927083,-0.221354167,0,0,0,,0,81,81,42,1,FOLDER,LB,old,m,./images/FOLDERLB.png,,,,,,,,,,,,,,,,,,,,,,,,,,,,,,,,,,,
,,,,,,,,,,,,,,,,,5dd72606cb9dd66db5091b6b,36,2022-02-12_16h01.56.424,lexical_decision_task_DD_L3,2021.2.3,Win32,60.0240096,,,,,,,,,,,1.0144,1,,,,,,,,,,,,,,m,1,1.0144,,,,,,,,0.266927083,-0.221354167,0,0,0,,0,82,82,32,1,BARREL,HB,old,m,./images/BARRELHB.png,,,,,,,,,,,,,,,,,,,,,,,,,,,,,,,,,,,
,,,,,,,,,,,,,,,,,5dd72606cb9dd66db5091b6b,36,2022-02-12_16h01.56.424,lexical_decision_task_DD_L3,2021.2.3,Win32,60.0240096,,,,,,,,,,,1.034,1,,,,,,,,,,,,,,z,1,1.034,,,,,,,,0.266927083,-0.221354167,0,0,0,space,0,83,83,133,1,POWDY,HB,old,z,./images/POWDYHB.png,3.5328,,,,,,,,,,,,,,,,,,,,,,,,,,,,,,,,,,
,,,,,,,,,,,,,,,,,5dd72606cb9dd66db5091b6b,36,2022-02-12_16h01.56.424,lexical_decision_task_DD_L3,2021.2.3,Win32,60.0240096,,,,,,,,,,,0.693,1,,,,,,,,,,,,,,z,1,0.693,,,,,,,,0.266927083,-0.221354167,0,0,0,,0,84,84,100,1,DRIBS,HB,old,z,./images/DRIBSHB.png,,,,,,,,,,,,,,,,,,,,,,,,,,,,,,,,,,,
,,,,,,,,,,,,,,,,,5dd72606cb9dd66db5091b6b,36,2022-02-12_16h01.56.424,lexical_decision_task_DD_L3,2021.2.3,Win32,60.0240096,,,,,,,,,,,0.6118,1,,,,,,,,,,,,,,z,1,0.6118,,,,,,,,0.266927083,-0.221354167,0,0,0,,0,85,85,147,1,ZOLES,C,old,z,./images/ZOLES.png,,,,,,,,,,,,,,,,,,,,,,,,,,,,,,,,,,,
,,,,,,,,,,,,,,,,,5dd72606cb9dd66db5091b6b,36,2022-02-12_16h01.56.424,lexical_decision_task_DD_L3,2021.2.3,Win32,60.0240096,,,,,,,,,,,0.4738,1,,,,,,,,,,,,,,z,1,0.4738,,,,,,,,0.266927083,-0.221354167,0,0,0,,0,86,86,105,1,MOKER,C,old,z,./images/MOKER.png,,,,,,,,,,,,,,,,,,,,,,,,,,,,,,,,,,,
,,,,,,,,,,,,,,,,,5dd72606cb9dd66db5091b6b,36,2022-02-12_16h01.56.424,lexical_decision_task_DD_L3,2021.2.3,Win32,60.0240096,,,,,,,,,,,0.6726,1,,,,,,,,,,,,,,z,1,0.6726,,,,,,,,0.266927083,-0.221354167,0,0,0,,0,87,87,115,1,MAWNS,HB,old,z,./images/MAWNSHB.png,,,,,,,,,,,,,,,,,,,,,,,,,,,,,,,,,,,
,,,,,,,,,,,,,,,,,5dd72606cb9dd66db5091b6b,36,2022-02-12_16h01.56.424,lexical_decision_task_DD_L3,2021.2.3,Win32,60.0240096,,,,,,,,,,,0.8716,1,,,,,,,,,,,,,,m,1,0.8716,,,,,,,,0.266927083,-0.221354167,0,0,0,,0,88,88,26,1,SMOKER,HB,old,m,./images/SMOKERHB.png,,,,,,,,,,,,,,,,,,,,,,,,,,,,,,,,,,,
,,,,,,,,,,,,,,,,,5dd72606cb9dd66db5091b6b,36,2022-02-12_16h01.56.424,lexical_decision_task_DD_L3,2021.2.3,Win32,60.0240096,,,,,,,,,,,0.5884,1,,,,,,,,,,,,,,m,1,0.5884,,,,,,,,0.266927083,-0.221354167,0,0,0,,0,89,89,15,1,GREASE,LB,old,m,./images/GREASELB.png,,,,,,,,,,,,,,,,,,,,,,,,,,,,,,,,,,,
,,,,,,,,,,,,,,,,,5dd72606cb9dd66db5091b6b,36,2022-02-12_16h01.56.424,lexical_decision_task_DD_L3,2021.2.3,Win32,60.0240096,,,,,,,,,,,0.5321,1,,,,,,,,,,,,,,m,1,0.5321,,,,,,,,0.266927083,-0.221354167,0,0,0,,0,90,90,64,1,JELLY,C,old,m,./images/JELLY.png,,,,,,,,,,,,,,,,,,,,,,,,,,,,,,,,,,,
,,,,,,,,,,,,,,,,,5dd72606cb9dd66db5091b6b,36,2022-02-12_16h01.56.424,lexical_decision_task_DD_L3,2021.2.3,Win32,60.0240096,,,,,,,,,,,0.6738,1,,,,,,,,,,,,,,z,1,0.6738,,,,,,,,0.266927083,-0.221354167,0,0,0,,0,91,91,91,1,SHENS,HB,old,z,./images/SHENSHB.png,,,,,,,,,,,,,,,,,,,,,,,,,,,,,,,,,,,
,,,,,,,,,,,,,,,,,5dd72606cb9dd66db5091b6b,36,2022-02-12_16h01.56.424,lexical_decision_task_DD_L3,2021.2.3,Win32,60.0240096,,,,,,,,,,,0.5129,1,,,,,,,,,,,,,,m,1,0.5129,,,,,,,,0.266927083,-0.221354167,0,0,0,,0,92,92,22,1,MELON,C,old,m,./images/MELON.png,,,,,,,,,,,,,,,,,,,,,,,,,,,,,,,,,,,
,,,,,,,,,,,,,,,,,5dd72606cb9dd66db5091b6b,36,2022-02-12_16h01.56.424,lexical_decision_task_DD_L3,2021.2.3,Win32,60.0240096,,,,,,,,,,,0.5723,1,,,,,,,,,,,,,,z,1,0.5723,,,,,,,,0.266927083,-0.221354167,0,0,0,,0,93,93,158,1,EGECT,LB,old,z,./images/EGECTLB.png,,,,,,,,,,,,,,,,,,,,,,,,,,,,,,,,,,,
,,,,,,,,,,,,,,,,,5dd72606cb9dd66db5091b6b,36,2022-02-12_16h01.56.424,lexical_decision_task_DD_L3,2021.2.3,Win32,60.0240096,,,,,,,,,,,0.6057,1,,,,,,,,,,,,,,z,1,0.6057,,,,,,,,0.266927083,-0.221354167,0,0,0,,0,94,94,167,1,ZONET,LB,old,z,./images/ZONETLB.png,,,,,,,,,,,,,,,,,,,,,,,,,,,,,,,,,,,
,,,,,,,,,,,,,,,,,5dd72606cb9dd66db5091b6b,36,2022-02-12_16h01.56.424,lexical_decision_task_DD_L3,2021.2.3,Win32,60.0240096,,,,,,,,,,,0.7633,1,,,,,,,,,,,,,,z,1,0.7633,,,,,,,,0.266927083,-0.221354167,0,0,0,,0,95,95,166,1,SHORY,HB,old,z,./images/SHORYHB.png,,,,,,,,,,,,,,,,,,,,,,,,,,,,,,,,,,,
,,,,,,,,,,,,,,,,,5dd72606cb9dd66db5091b6b,36,2022-02-12_16h01.56.424,lexical_decision_task_DD_L3,2021.2.3,Win32,60.0240096,,,,,,,,,,,0.6301,1,,,,,,,,,,,,,,z,1,0.6301,,,,,,,,0.266927083,-0.221354167,0,0,0,,0,96,96,107,1,FASKS,LB,old,z,./images/FASKSLB.png,,,,,,,,,,,,,,,,,,,,,,,,,,,,,,,,,,,
,,,,,,,,,,,,,,,,,5dd72606cb9dd66db5091b6b,36,2022-02-12_16h01.56.424,lexical_decision_task_DD_L3,2021.2.3,Win32,60.0240096,,,,,,,,,,,0.5375,0,,,,,,,,,,,,,,m,0,0.5375,,,,,,,,0.266927083,-0.221354167,0,0,0,,0,97,97,117,1,STEEG,C,old,z,./images/STEEG.png,,,,,,,,,,,,,,,,,,,,,,,,,,,,,,,,,,,
,,,,,,,,,,,,,,,,,5dd72606cb9dd66db5091b6b,36,2022-02-12_16h01.56.424,lexical_decision_task_DD_L3,2021.2.3,Win32,60.0240096,,,,,,,,,,,0.6628,1,,,,,,,,,,,,,,m,1,0.6628,,,,,,,,0.266927083,-0.221354167,0,0,0,,0,98,98,66,1,SWEAT,LB,old,m,./images/SWEATLB.png,,,,,,,,,,,,,,,,,,,,,,,,,,,,,,,,,,,
,,,,,,,,,,,,,,,,,5dd72606cb9dd66db5091b6b,36,2022-02-12_16h01.56.424,lexical_decision_task_DD_L3,2021.2.3,Win32,60.0240096,,,,,,,,,,,0.5191,1,,,,,,,,,,,,,,z,1,0.5191,,,,,,,,0.266927083,-0.221354167,0,0,0,,0,99,99,129,1,PRANS,C,old,z,./images/PRANS.png,,,,,,,,,,,,,,,,,,,,,,,,,,,,,,,,,,,
,,,,,,,,,,,,,,,,,5dd72606cb9dd66db5091b6b,36,2022-02-12_16h01.56.424,lexical_decision_task_DD_L3,2021.2.3,Win32,60.0240096,,,,,,,,,,,0.778,1,,,,,,,,,,,,,,z,1,0.778,,,,,,,,0.266927083,-0.221354167,0,0,0,,0,100,100,159,1,CUDDY,C,old,z,./images/CUDDY.png,,,,,,,,,,,,,,,,,,,,,,,,,,,,,,,,,,,
,,,,,,,,,,,,,,,,,5dd72606cb9dd66db5091b6b,36,2022-02-12_16h01.56.424,lexical_decision_task_DD_L3,2021.2.3,Win32,60.0240096,,,,,,,,,,,0.595,1,,,,,,,,,,,,,,m,1,0.595,,,,,,,,0.266927083,-0.221354167,0,0,0,,0,101,101,69,1,COOKER,LB,old,m,./images/COOKERLB.png,,,,,,,,,,,,,,,,,,,,,,,,,,,,,,,,,,,
,,,,,,,,,,,,,,,,,5dd72606cb9dd66db5091b6b,36,2022-02-12_16h01.56.424,lexical_decision_task_DD_L3,2021.2.3,Win32,60.0240096,,,,,,,,,,,0.6284,1,,,,,,,,,,,,,,m,1,0.6284,,,,,,,,0.266927083,-0.221354167,0,0,0,,0,102,102,25,1,WRIST,C,old,m,./images/WRIST.png,,,,,,,,,,,,,,,,,,,,,,,,,,,,,,,,,,,
,,,,,,,,,,,,,,,,,5dd72606cb9dd66db5091b6b,36,2022-02-12_16h01.56.424,lexical_decision_task_DD_L3,2021.2.3,Win32,60.0240096,,,,,,,,,,,0.6123,1,,,,,,,,,,,,,,z,1,0.6123,,,,,,,,0.266927083,-0.221354167,0,0,0,,0,103,103,109,1,BURGE,HB,old,z,./images/BURGEHB.png,,,,,,,,,,,,,,,,,,,,,,,,,,,,,,,,,,,
,,,,,,,,,,,,,,,,,5dd72606cb9dd66db5091b6b,36,2022-02-12_16h01.56.424,lexical_decision_task_DD_L3,2021.2.3,Win32,60.0240096,,,,,,,,,,,0.5432,1,,,,,,,,,,,,,,m,1,0.5432,,,,,,,,0.266927083,-0.221354167,0,0,0,,0,104,104,52,1,BANNER,C,old,m,./images/BANNER.png,,,,,,,,,,,,,,,,,,,,,,,,,,,,,,,,,,,
,,,,,,,,,,,,,,,,,5dd72606cb9dd66db5091b6b,36,2022-02-12_16h01.56.424,lexical_decision_task_DD_L3,2021.2.3,Win32,60.0240096,,,,,,,,,,,0.5412,1,,,,,,,,,,,,,,m,1,0.5412,,,,,,,,0.266927083,-0.221354167,0,0,0,,0,105,105,40,1,SWING,C,old,m,./images/SWING.png,,,,,,,,,,,,,,,,,,,,,,,,,,,,,,,,,,,
,,,,,,,,,,,,,,,,,5dd72606cb9dd66db5091b6b,36,2022-02-12_16h01.56.424,lexical_decision_task_DD_L3,2021.2.3,Win32,60.0240096,,,,,,,,,,,0.6109,1,,,,,,,,,,,,,,m,1,0.6109,,,,,,,,0.266927083,-0.221354167,0,0,0,,0,106,106,75,1,GRAIN,LB,old,m,./images/GRAINLB.png,,,,,,,,,,,,,,,,,,,,,,,,,,,,,,,,,,,
,,,,,,,,,,,,,,,,,5dd72606cb9dd66db5091b6b,36,2022-02-12_16h01.56.424,lexical_decision_task_DD_L3,2021.2.3,Win32,60.0240096,,,,,,,,,,,0.5439,1,,,,,,,,,,,,,,m,1,0.5439,,,,,,,,0.266927083,-0.221354167,0,0,0,,0,107,107,31,1,QUILL,C,old,m,./images/QUILL.png,,,,,,,,,,,,,,,,,,,,,,,,,,,,,,,,,,,
,,,,,,,,,,,,,,,,,5dd72606cb9dd66db5091b6b,36,2022-02-12_16h01.56.424,lexical_decision_task_DD_L3,2021.2.3,Win32,60.0240096,,,,,,,,,,,0.6933,1,,,,,,,,,,,,,,m,1,0.6933,,,,,,,,0.266927083,-0.221354167,0,0,0,,0,108,108,23,1,WALRUS,HB,old,m,./images/WALRUSHB.png,,,,,,,,,,,,,,,,,,,,,,,,,,,,,,,,,,,
,,,,,,,,,,,,,,,,,5dd72606cb9dd66db5091b6b,36,2022-02-12_16h01.56.424,lexical_decision_task_DD_L3,2021.2.3,Win32,60.0240096,,,,,,,,,,,0.7513,1,,,,,,,,,,,,,,z,1,0.7513,,,,,,,,0.266927083,-0.221354167,0,0,0,,0,109,109,94,1,BLANS,HB,old,z,./images/BLANSHB.png,,,,,,,,,,,,,,,,,,,,,,,,,,,,,,,,,,,
,,,,,,,,,,,,,,,,,5dd72606cb9dd66db5091b6b,36,2022-02-12_16h01.56.424,lexical_decision_task_DD_L3,2021.2.3,Win32,60.0240096,,,,,,,,,,,0.7035,1,,,,,,,,,,,,,,z,1,0.7035,,,,,,,,0.266927083,-0.221354167,0,0,0,,0,110,110,103,1,FLORT,HB,old,z,./images/FLORTHB.png,,,,,,,,,,,,,,,,,,,,,,,,,,,,,,,,,,,
,,,,,,,,,,,,,,,,,5dd72606cb9dd66db5091b6b,36,2022-02-12_16h01.56.424,lexical_decision_task_DD_L3,2021.2.3,Win32,60.0240096,,,,,,,,,,,0.6104,1,,,,,,,,,,,,,,m,1,0.6104,,,,,,,,0.266927083,-0.221354167,0,0,0,,0,111,111,81,1,POODLE,LB,old,m,./images/POODLELB.png,,,,,,,,,,,,,,,,,,,,,,,,,,,,,,,,,,,
,,,,,,,,,,,,,,,,,5dd72606cb9dd66db5091b6b,36,2022-02-12_16h01.56.424,lexical_decision_task_DD_L3,2021.2.3,Win32,60.0240096,,,,,,,,,,,0.6837,1,,,,,,,,,,,,,,z,1,0.6837,,,,,,,,0.266927083,-0.221354167,0,0,0,,0,112,112,98,1,BAMPS,LB,old,z,./images/BAMPSLB.png,,,,,,,,,,,,,,,,,,,,,,,,,,,,,,,,,,,
,,,,,,,,,,,,,,,,,5dd72606cb9dd66db5091b6b,36,2022-02-12_16h01.56.424,lexical_decision_task_DD_L3,2021.2.3,Win32,60.0240096,,,,,,,,,,,0.5979,1,,,,,,,,,,,,,,m,1,0.5979,,,,,,,,0.266927083,-0.221354167,0,0,0,,0,113,113,24,1,SCREW,LB,old,m,./images/SCREWLB.png,,,,,,,,,,,,,,,,,,,,,,,,,,,,,,,,,,,
,,,,,,,,,,,,,,,,,5dd72606cb9dd66db5091b6b,36,2022-02-12_16h01.56.424,lexical_decision_task_DD_L3,2021.2.3,Win32,60.0240096,,,,,,,,,,,0.5436,1,,,,,,,,,,,,,,m,1,0.5436,,,,,,,,0.266927083,-0.221354167,0,0,0,,0,114,114,13,1,MOTOR,C,old,m,./images/MOTOR.png,,,,,,,,,,,,,,,,,,,,,,,,,,,,,,,,,,,
,,,,,,,,,,,,,,,,,5dd72606cb9dd66db5091b6b,36,2022-02-12_16h01.56.424,lexical_decision_task_DD_L3,2021.2.3,Win32,60.0240096,,,,,,,,,,,0.5564,1,,,,,,,,,,,,,,z,1,0.5564,,,,,,,,0.266927083,-0.221354167,0,0,0,,0,115,115,125,1,MOOKY,LB,old,z,./images/MOOKYLB.png,,,,,,,,,,,,,,,,,,,,,,,,,,,,,,,,,,,
,,,,,,,,,,,,,,,,,5dd72606cb9dd66db5091b6b,36,2022-02-12_16h01.56.424,lexical_decision_task_DD_L3,2021.2.3,Win32,60.0240096,,,,,,,,,,,0.5946,1,,,,,,,,,,,,,,m,1,0.5946,,,,,,,,0.266927083,-0.221354167,0,0,0,,0,116,116,34,1,CANYON,C,old,m,./images/CANYON.png,,,,,,,,,,,,,,,,,,,,,,,,,,,,,,,,,,,
,,,,,,,,,,,,,,,,,5dd72606cb9dd66db5091b6b,36,2022-02-12_16h01.56.424,lexical_decision_task_DD_L3,2021.2.3,Win32,60.0240096,,,,,,,,,,,0.5282,1,,,,,,,,,,,,,,m,1,0.5282,,,,,,,,0.266927083,-0.221354167,0,0,0,,0,117,117,76,1,INFANT,C,old,m,./images/INFANT.png,,,,,,,,,,,,,,,,,,,,,,,,,,,,,,,,,,,
,,,,,,,,,,,,,,,,,5dd72606cb9dd66db5091b6b,36,2022-02-12_16h01.56.424,lexical_decision_task_DD_L3,2021.2.3,Win32,60.0240096,,,,,,,,,,,0.5621,1,,,,,,,,,,,,,,m,1,0.5621,,,,,,,,0.266927083,-0.221354167,0,0,0,,0,118,118,43,1,MOSQUE,C,old,m,./images/MOSQUE.png,,,,,,,,,,,,,,,,,,,,,,,,,,,,,,,,,,,
,,,,,,,,,,,,,,,,,5dd72606cb9dd66db5091b6b,36,2022-02-12_16h01.56.424,lexical_decision_task_DD_L3,2021.2.3,Win32,60.0240096,,,,,,,,,,,0.9862,1,,,,,,,,,,,,,,m,1,0.9862,,,,,,,,0.266927083,-0.221354167,0,0,0,,0,119,119,80,1,WEASEL,HB,old,m,./images/WEASELHB.png,,,,,,,,,,,,,,,,,,,,,,,,,,,,,,,,,,,
,,,,,,,,,,,,,,,,,5dd72606cb9dd66db5091b6b,36,2022-02-12_16h01.56.424,lexical_decision_task_DD_L3,2021.2.3,Win32,60.0240096,,,,,,,,,,,0.7164,1,,,,,,,,,,,,,,m,1,0.7164,,,,,,,,0.266927083,-0.221354167,0,0,0,,0,120,120,53,1,CARPET,HB,old,m,./images/CARPETHB.png,,,,,,,,,,,,,,,,,,,,,,,,,,,,,,,,,,,
,,,,,,,,,,,,,,,,,5dd72606cb9dd66db5091b6b,36,2022-02-12_16h01.56.424,lexical_decision_task_DD_L3,2021.2.3,Win32,60.0240096,,,,,,,,,,,0.572,1,,,,,,,,,,,,,,m,1,0.572,,,,,,,,0.266927083,-0.221354167,0,0,0,,0,121,121,70,1,URINE,C,old,m,./images/URINE.png,,,,,,,,,,,,,,,,,,,,,,,,,,,,,,,,,,,
,,,,,,,,,,,,,,,,,5dd72606cb9dd66db5091b6b,36,2022-02-12_16h01.56.424,lexical_decision_task_DD_L3,2021.2.3,Win32,60.0240096,,,,,,,,,,,0.6945,1,,,,,,,,,,,,,,z,1,0.6945,,,,,,,,0.266927083,-0.221354167,0,0,0,,0,122,122,87,1,TRING,C,old,z,./images/TRING.png,,,,,,,,,,,,,,,,,,,,,,,,,,,,,,,,,,,
,,,,,,,,,,,,,,,,,5dd72606cb9dd66db5091b6b,36,2022-02-12_16h01.56.424,lexical_decision_task_DD_L3,2021.2.3,Win32,60.0240096,,,,,,,,,,,0.5515,1,,,,,,,,,,,,,,z,1,0.5515,,,,,,,,0.266927083,-0.221354167,0,0,0,,0,123,123,102,1,DULLE,C,old,z,./images/DULLE.png,,,,,,,,,,,,,,,,,,,,,,,,,,,,,,,,,,,
,,,,,,,,,,,,,,,,,5dd72606cb9dd66db5091b6b,36,2022-02-12_16h01.56.424,lexical_decision_task_DD_L3,2021.2.3,Win32,60.0240096,,,,,,,,,,,0.5087,1,,,,,,,,,,,,,,z,1,0.5087,,,,,,,,0.266927083,-0.221354167,0,0,0,,0,124,124,114,1,RIKES,C,old,z,./images/RIKES.png,,,,,,,,,,,,,,,,,,,,,,,,,,,,,,,,,,,
,,,,,,,,,,,,,,,,,5dd72606cb9dd66db5091b6b,36,2022-02-12_16h01.56.424,lexical_decision_task_DD_L3,2021.2.3,Win32,60.0240096,,,,,,,,,,,0.8579,1,,,,,,,,,,,,,,m,1,0.8579,,,,,,,,0.266927083,-0.221354167,0,0,0,space,0,125,125,14,1,PICKLE,HB,old,m,./images/PICKLEHB.png,4.1321,,,,,,,,,,,,,,,,,,,,,,,,,,,,,,,,,,
,,,,,,,,,,,,,,,,,5dd72606cb9dd66db5091b6b,36,2022-02-12_16h01.56.424,lexical_decision_task_DD_L3,2021.2.3,Win32,60.0240096,,,,,,,,,,,0.6273,1,,,,,,,,,,,,,,z,1,0.6273,,,,,,,,0.266927083,-0.221354167,0,0,0,,0,126,126,138,1,PLICE,C,old,z,./images/PLICE.png,,,,,,,,,,,,,,,,,,,,,,,,,,,,,,,,,,,
,,,,,,,,,,,,,,,,,5dd72606cb9dd66db5091b6b,36,2022-02-12_16h01.56.424,lexical_decision_task_DD_L3,2021.2.3,Win32,60.0240096,,,,,,,,,,,0.6166,1,,,,,,,,,,,,,,m,1,0.6166,,,,,,,,0.266927083,-0.221354167,0,0,0,,0,127,127,12,1,SHORE,LB,old,m,./images/SHORELB.png,,,,,,,,,,,,,,,,,,,,,,,,,,,,,,,,,,,
,,,,,,,,,,,,,,,,,5dd72606cb9dd66db5091b6b,36,2022-02-12_16h01.56.424,lexical_decision_task_DD_L3,2021.2.3,Win32,60.0240096,,,,,,,,,,,1.2428,1,,,,,,,,,,,,,,z,1,1.2428,,,,,,,,0.266927083,-0.221354167,0,0,0,,0,128,128,163,1,GAMBA,HB,old,z,./images/GAMBAHB.png,,,,,,,,,,,,,,,,,,,,,,,,,,,,,,,,,,,
,,,,,,,,,,,,,,,,,5dd72606cb9dd66db5091b6b,36,2022-02-12_16h01.56.424,lexical_decision_task_DD_L3,2021.2.3,Win32,60.0240096,,,,,,,,,,,0.613,1,,,,,,,,,,,,,,z,1,0.613,,,,,,,,0.266927083,-0.221354167,0,0,0,,0,129,129,132,1,SCIFF,C,old,z,./images/SCIFF.png,,,,,,,,,,,,,,,,,,,,,,,,,,,,,,,,,,,
,,,,,,,,,,,,,,,,,5dd72606cb9dd66db5091b6b,36,2022-02-12_16h01.56.424,lexical_decision_task_DD_L3,2021.2.3,Win32,60.0240096,,,,,,,,,,,0.6418,1,,,,,,,,,,,,,,z,1,0.6418,,,,,,,,0.266927083,-0.221354167,0,0,0,,0,130,130,148,1,JOMS,HB,old,z,./images/JOMSHB.png,,,,,,,,,,,,,,,,,,,,,,,,,,,,,,,,,,,
,,,,,,,,,,,,,,,,,5dd72606cb9dd66db5091b6b,36,2022-02-12_16h01.56.424,lexical_decision_task_DD_L3,2021.2.3,Win32,60.0240096,,,,,,,,,,,0.5748,1,,,,,,,,,,,,,,z,1,0.5748,,,,,,,,0.266927083,-0.221354167,0,0,0,,0,131,131,111,1,HOSSE,C,old,z,./images/HOSSE.png,,,,,,,,,,,,,,,,,,,,,,,,,,,,,,,,,,,
,,,,,,,,,,,,,,,,,5dd72606cb9dd66db5091b6b,36,2022-02-12_16h01.56.424,lexical_decision_task_DD_L3,2021.2.3,Win32,60.0240096,,,,,,,,,,,0.5692,1,,,,,,,,,,,,,,m,1,0.5692,,,,,,,,0.266927083,-0.221354167,0,0,0,,0,132,132,36,1,THROAT,LB,old,m,./images/THROATLB.png,,,,,,,,,,,,,,,,,,,,,,,,,,,,,,,,,,,
,,,,,,,,,,,,,,,,,5dd72606cb9dd66db5091b6b,36,2022-02-12_16h01.56.424,lexical_decision_task_DD_L3,2021.2.3,Win32,60.0240096,,,,,,,,,,,0.5349,1,,,,,,,,,,,,,,m,1,0.5349,,,,,,,,0.266927083,-0.221354167,0,0,0,,0,133,133,58,1,BABOON,C,old,m,./images/BABOON.png,,,,,,,,,,,,,,,,,,,,,,,,,,,,,,,,,,,
,,,,,,,,,,,,,,,,,5dd72606cb9dd66db5091b6b,36,2022-02-12_16h01.56.424,lexical_decision_task_DD_L3,2021.2.3,Win32,60.0240096,,,,,,,,,,,0.9272,1,,,,,,,,,,,,,,m,1,0.9272,,,,,,,,0.266927083,-0.221354167,0,0,0,,0,134,134,41,1,STRING,HB,old,m,./images/STRINGHB.png,,,,,,,,,,,,,,,,,,,,,,,,,,,,,,,,,,,
,,,,,,,,,,,,,,,,,5dd72606cb9dd66db5091b6b,36,2022-02-12_16h01.56.424,lexical_decision_task_DD_L3,2021.2.3,Win32,60.0240096,,,,,,,,,,,0.5101,1,,,,,,,,,,,,,,m,1,0.5101,,,,,,,,0.266927083,-0.221354167,0,0,0,,0,135,135,45,1,KITTEN,LB,old,m,./images/KITTENLB.png,,,,,,,,,,,,,,,,,,,,,,,,,,,,,,,,,,,
,,,,,,,,,,,,,,,,,5dd72606cb9dd66db5091b6b,36,2022-02-12_16h01.56.424,lexical_decision_task_DD_L3,2021.2.3,Win32,60.0240096,,,,,,,,,,,0.6491,1,,,,,,,,,,,,,,z,1,0.6491,,,,,,,,0.266927083,-0.221354167,0,0,0,,0,136,136,92,1,PAIMS,LB,old,z,./images/PAIMSLB.png,,,,,,,,,,,,,,,,,,,,,,,,,,,,,,,,,,,
,,,,,,,,,,,,,,,,,5dd72606cb9dd66db5091b6b,36,2022-02-12_16h01.56.424,lexical_decision_task_DD_L3,2021.2.3,Win32,60.0240096,,,,,,,,,,,0.5835,0,,,,,,,,,,,,,,m,0,0.5835,,,,,,,,0.266927083,-0.221354167,0,0,0,,0,137,137,110,1,CRUNK,LB,old,z,./images/CRUNKLB.png,,,,,,,,,,,,,,,,,,,,,,,,,,,,,,,,,,,
,,,,,,,,,,,,,,,,,5dd72606cb9dd66db5091b6b,36,2022-02-12_16h01.56.424,lexical_decision_task_DD_L3,2021.2.3,Win32,60.0240096,,,,,,,,,,,0.709,1,,,,,,,,,,,,,,m,1,0.709,,,,,,,,0.266927083,-0.221354167,0,0,0,,0,138,138,38,1,LADDER,HB,old,m,./images/LADDERHB.png,,,,,,,,,,,,,,,,,,,,,,,,,,,,,,,,,,,
,,,,,,,,,,,,,,,,,5dd72606cb9dd66db5091b6b,36,2022-02-12_16h01.56.424,lexical_decision_task_DD_L3,2021.2.3,Win32,60.0240096,,,,,,,,,,,0.5577,1,,,,,,,,,,,,,,m,1,0.5577,,,,,,,,0.266927083,-0.221354167,0,0,0,,0,139,139,4,1,MUSCLE,C,old,m,./images/MUSCLE.png,,,,,,,,,,,,,,,,,,,,,,,,,,,,,,,,,,,
,,,,,,,,,,,,,,,,,5dd72606cb9dd66db5091b6b,36,2022-02-12_16h01.56.424,lexical_decision_task_DD_L3,2021.2.3,Win32,60.0240096,,,,,,,,,,,0.5062,1,,,,,,,,,,,,,,m,1,0.5062,,,,,,,,0.266927083,-0.221354167,0,0,0,,0,140,140,46,1,PEARL,C,old,m,./images/PEARL.png,,,,,,,,,,,,,,,,,,,,,,,,,,,,,,,,,,,
,,,,,,,,,,,,,,,,,5dd72606cb9dd66db5091b6b,36,2022-02-12_16h01.56.424,lexical_decision_task_DD_L3,2021.2.3,Win32,60.0240096,,,,,,,,,,,0.5414,1,,,,,,,,,,,,,,z,1,0.5414,,,,,,,,0.266927083,-0.221354167,0,0,0,,0,141,141,96,1,KEAMS,C,old,z,./images/KEAMS.png,,,,,,,,,,,,,,,,,,,,,,,,,,,,,,,,,,,
,,,,,,,,,,,,,,,,,5dd72606cb9dd66db5091b6b,36,2022-02-12_16h01.56.424,lexical_decision_task_DD_L3,2021.2.3,Win32,60.0240096,,,,,,,,,,,0.6093,1,,,,,,,,,,,,,,m,1,0.6093,,,,,,,,0.266927083,-0.221354167,0,0,0,,0,142,142,6,1,SQUARE,LB,old,m,./images/SQUARELB.png,,,,,,,,,,,,,,,,,,,,,,,,,,,,,,,,,,,
,,,,,,,,,,,,,,,,,5dd72606cb9dd66db5091b6b,36,2022-02-12_16h01.56.424,lexical_decision_task_DD_L3,2021.2.3,Win32,60.0240096,,,,,,,,,,,0.6467,1,,,,,,,,,,,,,,z,1,0.6467,,,,,,,,0.266927083,-0.221354167,0,0,0,,0,143,143,161,1,BLAPS,LB,old,z,./images/BLAPSLB.png,,,,,,,,,,,,,,,,,,,,,,,,,,,,,,,,,,,
,,,,,,,,,,,,,,,,,5dd72606cb9dd66db5091b6b,36,2022-02-12_16h01.56.424,lexical_decision_task_DD_L3,2021.2.3,Win32,60.0240096,,,,,,,,,,,0.7664,1,,,,,,,,,,,,,,m,1,0.7664,,,,,,,,0.266927083,-0.221354167,0,0,0,,0,144,144,72,1,NOOSE,LB,old,m,./images/NOOSELB.png,,,,,,,,,,,,,,,,,,,,,,,,,,,,,,,,,,,
,,,,,,,,,,,,,,,,,5dd72606cb9dd66db5091b6b,36,2022-02-12_16h01.56.424,lexical_decision_task_DD_L3,2021.2.3,Win32,60.0240096,,,,,,,,,,,0.7152,1,,,,,,,,,,,,,,m,1,0.7152,,,,,,,,0.266927083,-0.221354167,0,0,0,,0,145,145,9,1,RHINO,LB,old,m,./images/RHINOLB.png,,,,,,,,,,,,,,,,,,,,,,,,,,,,,,,,,,,
,,,,,,,,,,,,,,,,,5dd72606cb9dd66db5091b6b,36,2022-02-12_16h01.56.424,lexical_decision_task_DD_L3,2021.2.3,Win32,60.0240096,,,,,,,,,,,0.695,1,,,,,,,,,,,,,,z,1,0.695,,,,,,,,0.266927083,-0.221354167,0,0,0,,0,146,146,104,1,GITTY,LB,old,z,./images/GITTYLB.png,,,,,,,,,,,,,,,,,,,,,,,,,,,,,,,,,,,
,,,,,,,,,,,,,,,,,5dd72606cb9dd66db5091b6b,36,2022-02-12_16h01.56.424,lexical_decision_task_DD_L3,2021.2.3,Win32,60.0240096,,,,,,,,,,,0.7108,1,,,,,,,,,,,,,,z,1,0.7108,,,,,,,,0.266927083,-0.221354167,0,0,0,,0,147,147,153,1,CLUPS,C,old,z,./images/CLUPS.png,,,,,,,,,,,,,,,,,,,,,,,,,,,,,,,,,,,
,,,,,,,,,,,,,,,,,5dd72606cb9dd66db5091b6b,36,2022-02-12_16h01.56.424,lexical_decision_task_DD_L3,2021.2.3,Win32,60.0240096,,,,,,,,,,,0.727,1,,,,,,,,,,,,,,z,1,0.727,,,,,,,,0.266927083,-0.221354167,0,0,0,,0,148,148,86,1,AIFED,LB,old,z,./images/AIFEDLB.png,,,,,,,,,,,,,,,,,,,,,,,,,,,,,,,,,,,
,,,,,,,,,,,,,,,,,5dd72606cb9dd66db5091b6b,36,2022-02-12_16h01.56.424,lexical_decision_task_DD_L3,2021.2.3,Win32,60.0240096,,,,,,,,,,,0.7299,1,,,,,,,,,,,,,,z,1,0.7299,,,,,,,,0.266927083,-0.221354167,0,0,0,,0,149,149,118,1,BAVEL,HB,old,z,./images/BAVELHB.png,,,,,,,,,,,,,,,,,,,,,,,,,,,,,,,,,,,
,,,,,,,,,,,,,,,,,5dd72606cb9dd66db5091b6b,36,2022-02-12_16h01.56.424,lexical_decision_task_DD_L3,2021.2.3,Win32,60.0240096,,,,,,,,,,,0.6838,1,,,,,,,,,,,,,,m,1,0.6838,,,,,,,,0.266927083,-0.221354167,0,0,0,,0,150,150,1,1,PLANK,C,old,m,./images/PLANK.png,,,,,,,,,,,,,,,,,,,,,,,,,,,,,,,,,,,
,,,,,,,,,,,,,,,,,5dd72606cb9dd66db5091b6b,36,2022-02-12_16h01.56.424,lexical_decision_task_DD_L3,2021.2.3,Win32,60.0240096,,,,,,,,,,,0.6552,1,,,,,,,,,,,,,,z,1,0.6552,,,,,,,,0.266927083,-0.221354167,0,0,0,,0,151,151,93,1,SMONE,C,old,z,./images/SMONE.png,,,,,,,,,,,,,,,,,,,,,,,,,,,,,,,,,,,
,,,,,,,,,,,,,,,,,5dd72606cb9dd66db5091b6b,36,2022-02-12_16h01.56.424,lexical_decision_task_DD_L3,2021.2.3,Win32,60.0240096,,,,,,,,,,,0.6658,1,,,,,,,,,,,,,,m,1,0.6658,,,,,,,,0.266927083,-0.221354167,0,0,0,,0,152,152,28,1,FALCON,C,old,m,./images/FALCON.png,,,,,,,,,,,,,,,,,,,,,,,,,,,,,,,,,,,
,,,,,,,,,,,,,,,,,5dd72606cb9dd66db5091b6b,36,2022-02-12_16h01.56.424,lexical_decision_task_DD_L3,2021.2.3,Win32,60.0240096,,,,,,,,,,,0.7383,1,,,,,,,,,,,,,,z,1,0.7383,,,,,,,,0.266927083,-0.221354167,0,0,0,,0,153,153,146,1,MOOST,LB,old,z,./images/MOOSTLB.png,,,,,,,,,,,,,,,,,,,,,,,,,,,,,,,,,,,
,,,,,,,,,,,,,,,,,5dd72606cb9dd66db5091b6b,36,2022-02-12_16h01.56.424,lexical_decision_task_DD_L3,2021.2.3,Win32,60.0240096,,,,,,,,,,,0.6877,1,,,,,,,,,,,,,,z,1,0.6877,,,,,,,,0.266927083,-0.221354167,0,0,0,,0,154,154,139,1,BLEAR,HB,old,z,./images/BLEARHB.png,,,,,,,,,,,,,,,,,,,,,,,,,,,,,,,,,,,
,,,,,,,,,,,,,,,,,5dd72606cb9dd66db5091b6b,36,2022-02-12_16h01.56.424,lexical_decision_task_DD_L3,2021.2.3,Win32,60.0240096,,,,,,,,,,,0.9031,0,,,,,,,,,,,,,,z,0,0.9031,,,,,,,,0.266927083,-0.221354167,0,0,0,,0,155,155,17,1,SKIING,HB,old,m,./images/SKIINGHB.png,,,,,,,,,,,,,,,,,,,,,,,,,,,,,,,,,,,
,,,,,,,,,,,,,,,,,5dd72606cb9dd66db5091b6b,36,2022-02-12_16h01.56.424,lexical_decision_task_DD_L3,2021.2.3,Win32,60.0240096,,,,,,,,,,,0.5728,1,,,,,,,,,,,,,,m,1,0.5728,,,,,,,,0.266927083,-0.221354167,0,0,0,,0,156,156,3,1,FINGER,LB,old,m,./images/FINGERLB.png,,,,,,,,,,,,,,,,,,,,,,,,,,,,,,,,,,,
,,,,,,,,,,,,,,,,,5dd72606cb9dd66db5091b6b,36,2022-02-12_16h01.56.424,lexical_decision_task_DD_L3,2021.2.3,Win32,60.0240096,,,,,,,,,,,0.776,1,,,,,,,,,,,,,,m,1,0.776,,,,,,,,0.266927083,-0.221354167,0,0,0,,0,157,157,65,1,FARMER,HB,old,m,./images/FARMERHB.png,,,,,,,,,,,,,,,,,,,,,,,,,,,,,,,,,,,
,,,,,,,,,,,,,,,,,5dd72606cb9dd66db5091b6b,36,2022-02-12_16h01.56.424,lexical_decision_task_DD_L3,2021.2.3,Win32,60.0240096,,,,,,,,,,,0.7653,1,,,,,,,,,,,,,,m,1,0.7653,,,,,,,,0.266927083,-0.221354167,0,0,0,,0,158,158,11,1,BONNET,HB,old,m,./images/BONNETHB.png,,,,,,,,,,,,,,,,,,,,,,,,,,,,,,,,,,,
,,,,,,,,,,,,,,,,,5dd72606cb9dd66db5091b6b,36,2022-02-12_16h01.56.424,lexical_decision_task_DD_L3,2021.2.3,Win32,60.0240096,,,,,,,,,,,0.6152,1,,,,,,,,,,,,,,z,1,0.6152,,,,,,,,0.266927083,-0.221354167,0,0,0,,0,159,159,152,1,FRAIN,LB,old,z,./images/FRAINLB.png,,,,,,,,,,,,,,,,,,,,,,,,,,,,,,,,,,,
,,,,,,,,,,,,,,,,,5dd72606cb9dd66db5091b6b,36,2022-02-12_16h01.56.424,lexical_decision_task_DD_L3,2021.2.3,Win32,60.0240096,,,,,,,,,,,0.6869,1,,,,,,,,,,,,,,m,1,0.6869,,,,,,,,0.266927083,-0.221354167,0,0,0,,0,160,160,57,1,MOOSE,LB,old,m,./images/MOOSELB.png,,,,,,,,,,,,,,,,,,,,,,,,,,,,,,,,,,,
,,,,,,,,,,,,,,,,,5dd72606cb9dd66db5091b6b,36,2022-02-12_16h01.56.424,lexical_decision_task_DD_L3,2021.2.3,Win32,60.0240096,,,,,,,,,,,0.588,1,,,,,,,,,,,,,,z,1,0.588,,,,,,,,0.266927083,-0.221354167,0,0,0,,0,161,161,99,1,BACKY,C,old,z,./images/BACKY.png,,,,,,,,,,,,,,,,,,,,,,,,,,,,,,,,,,,
,,,,,,,,,,,,,,,,,5dd72606cb9dd66db5091b6b,36,2022-02-12_16h01.56.424,lexical_decision_task_DD_L3,2021.2.3,Win32,60.0240096,,,,,,,,,,,0.8008,1,,,,,,,,,,,,,,z,1,0.8008,,,,,,,,0.266927083,-0.221354167,0,0,0,,0,162,162,106,1,CLUMS,HB,old,z,./images/CLUMSHB.png,,,,,,,,,,,,,,,,,,,,,,,,,,,,,,,,,,,
,,,,,,,,,,,,,,,,,5dd72606cb9dd66db5091b6b,36,2022-02-12_16h01.56.424,lexical_decision_task_DD_L3,2021.2.3,Win32,60.0240096,,,,,,,,,,,0.9311,1,,,,,,,,,,,,,,m,1,0.9311,,,,,,,,0.266927083,-0.221354167,0,0,0,,0,163,163,59,1,BURIAL,HB,old,m,./images/BURIALHB.png,,,,,,,,,,,,,,,,,,,,,,,,,,,,,,,,,,,
,,,,,,,,,,,,,,,,,5dd72606cb9dd66db5091b6b,36,2022-02-12_16h01.56.424,lexical_decision_task_DD_L3,2021.2.3,Win32,60.0240096,,,,,,,,,,,0.596,1,,,,,,,,,,,,,,m,1,0.596,,,,,,,,0.266927083,-0.221354167,0,0,0,,0,164,164,37,1,BIRTH,C,old,m,./images/BIRTH.png,,,,,,,,,,,,,,,,,,,,,,,,,,,,,,,,,,,
,,,,,,,,,,,,,,,,,5dd72606cb9dd66db5091b6b,36,2022-02-12_16h01.56.424,lexical_decision_task_DD_L3,2021.2.3,Win32,60.0240096,,,,,,,,,,,0.5713,1,,,,,,,,,,,,,,z,1,0.5713,,,,,,,,0.266927083,-0.221354167,0,0,0,,0,165,165,95,1,HANTY,LB,old,z,./images/HANTYLB.png,,,,,,,,,,,,,,,,,,,,,,,,,,,,,,,,,,,
,,,,,,,,,,,,,,,,,5dd72606cb9dd66db5091b6b,36,2022-02-12_16h01.56.424,lexical_decision_task_DD_L3,2021.2.3,Win32,60.0240096,,,,,,,,,,,0.9069,1,,,,,,,,,,,,,,m,1,0.9069,,,,,,,,0.266927083,-0.221354167,0,0,0,,0,166,166,2,1,BEARD,HB,old,m,./images/BEARDHB.png,,,,,,,,,,,,,,,,,,,,,,,,,,,,,,,,,,,
,,,,,,,,,,,,,,,,,5dd72606cb9dd66db5091b6b,36,2022-02-12_16h01.56.424,lexical_decision_task_DD_L3,2021.2.3,Win32,60.0240096,,,,,,,,,,,0.5905,1,,,,,,,,,,,,,,z,1,0.5905,,,,,,,,0.266927083,-0.221354167,0,0,0,,0,167,167,89,1,DRIEK,LB,old,z,./images/DRIEKLB.png,,,,,,,,,,,,,,,,,,,,,,,,,,,,,,,,,,,
,,,,,,,,,,,,,,,,,5dd72606cb9dd66db5091b6b,36,2022-02-12_16h01.56.424,lexical_decision_task_DD_L3,2021.2.3,Win32,60.0240096,,,,,,,,,,,,,,,,,,,,,,,,,,,,,,,,,,,,,,,,,,,,,,,,How likely will it be that you will recognize the words presented very blurred on a scale of 0 (not likely) to 100 (most likely)?,,,,,-0.001302083,-0.4140625,1,0,0,jol_adv,1,14.3065,0,0,0,2,1,,,,,,,,,,,,,,,,,,,,,
,,,,,,,,,,,,,,,,,5dd72606cb9dd66db5091b6b,36,2022-02-12_16h01.56.424,lexical_decision_task_DD_L3,2021.2.3,Win32,60.0240096,,,,,,,,,,,,,,,,,,,,,,,,,,,,,,,,,,,,,,,,,,,,,,,,How likely will it be that you will recognize the words presented slighly blurred on a scale of 0 (not likely) to 100 (most likely)?,,,,,,,,,,,3,5.3649,0,1,1,1,1,,,,,,,,,,,,,,,,,,,,,
,,,,,,,,,,,,,,,,,5dd72606cb9dd66db5091b6b,36,2022-02-12_16h01.56.424,lexical_decision_task_DD_L3,2021.2.3,Win32,60.0240096,,,,,,,,,,,,,,,,,,,,,,,,,,,,,,,,,,,,,,,,,,,,,,,,How likely will it be that you will recognize the words presented clearly on a scale of 0 (not likely) to 100 (most likely)?,,,,,,,,,,,6,5.2036,0,2,2,0,1,,,,,,,,,,,,,,,,,,,,,
space,14.6084,0.178385417,-0.372395833,0,0,0,,,,,,1,test,"In the next phase you will be presented with the words from the the first phase. Your job is to decide whether you remember seeing the word or not. If you remember seeing the word press ""old"" or type ""m"". If you do not remember seeing the word press ""new"" or type ""z"". Please press the space bar or click on continue to begin. ",,,5dd72606cb9dd66db5091b6b,36,2022-02-12_16h01.56.424,lexical_decision_task_DD_L3,2021.2.3,Win32,60.0240096,,,,,,,,,,,,,,,,,,,,,,,,,,,,,,,,,,,,,,,,,,,,,,,,,,,,,,,,,,,,,,,,,,0,0,0,0,1,,,,,,,,,,,,,,,,
,,0.16015625,-0.390625,1,0,0,,,,,,1,test,"In the next phase you will be presented with the words from the the first phase. Your job is to decide whether you remember seeing the word or not. If you remember seeing the word press ""old"" or type ""m"". If you do not remember seeing the word press ""new"" or type ""z"". Please press the space bar or click on continue to begin. ",,,5dd72606cb9dd66db5091b6b,36,2022-02-12_16h01.56.424,lexical_decision_task_DD_L3,2021.2.3,Win32,60.0240096,,,,,,,,,,,,,,,,,,,,,,,,,,,,,,,,,,,,,,,,,,,,,,,,,,,,,,,,,,,,,,,,,,1,0,1,0,1,instr_done_button,,,,,,,,,,,,,,,
,,0.16015625,-0.390625,1,0,0,,,,,,1,test,"In the next phase you will be presented with the words from the the first phase. Your job is to decide whether you remember seeing the word or not. If you remember seeing the word press ""old"" or type ""m"". If you do not remember seeing the word press ""new"" or type ""z"". Please press the space bar or click on continue to begin. ",,,5dd72606cb9dd66db5091b6b,36,2022-02-12_16h01.56.424,lexical_decision_task_DD_L3,2021.2.3,Win32,60.0240096,,,,,,,,,,,,,,,,,,,,,,,,,,,,,,,,,,,,,,,,,,,,,,,,,,,,,,,,,,,,,,,,,,2,0,2,0,1,instr_done_button,,,,,,,,,,,,,,,
space,0.6338,0.16015625,-0.390625,0,0,0,,,,,,1,test,"In the next phase you will be presented with the words from the the first phase. Your job is to decide whether you remember seeing the word or not. If you remember seeing the word press ""old"" or type ""m"". If you do not remember seeing the word press ""new"" or type ""z"". Please press the space bar or click on continue to begin. ",,,5dd72606cb9dd66db5091b6b,36,2022-02-12_16h01.56.424,lexical_decision_task_DD_L3,2021.2.3,Win32,60.0240096,,,,,,,,,,,,,,,,,,,,,,,,,,,,,,,,,,,,,,,,,,,,,,,,,,,,,,,,,,,,,,,,,,3,0,3,0,1,,,,,,,,,,,,,,,,
space,3.783,0.16015625,-0.390625,0,0,0,,,,,,1,test,"In the next phase you will be presented with the words from the the first phase. Your job is to decide whether you remember seeing the word or not. If you remember seeing the word press ""old"" or type ""m"". If you do not remember seeing the word press ""new"" or type ""z"". Please press the space bar or click on continue to begin. ",,,5dd72606cb9dd66db5091b6b,36,2022-02-12_16h01.56.424,lexical_decision_task_DD_L3,2021.2.3,Win32,60.0240096,,,,,,,,,,,,,,,,,,,,,,,,,,,,,,,,,,,,,,,,,,,,,,,,,,,,,,,,,,,,,,,,,,4,0,4,0,1,,,,,,,,,,,,,,,,
,,,,,,,,,,,,,,,,,5dd72606cb9dd66db5091b6b,36,2022-02-12_16h01.56.424,lexical_decision_task_DD_L3,2021.2.3,Win32,60.0240096,,,,,,,,,,,2.0664,1,,,,,,,,,,,,,,,,,,,,,,,,0.16015625,-0.390625,0,0,0,,,,,,,WHEEL,HB,z,m,./images/WHEELHB.png,,,,,,,,,,,,,,,,,,,,,z,1,2.0664,,,,,,,,0,0,0,161,1
,,,,,,,,,,,,,,,,,5dd72606cb9dd66db5091b6b,36,2022-02-12_16h01.56.424,lexical_decision_task_DD_L3,2021.2.3,Win32,60.0240096,,,,,,,,,,,0.9278,1,,,,,,,,,,,,,,,,,,,,,,,,0.16015625,-0.390625,0,0,0,,,,,,,POSTER,HB,z,m,./images/POSTERHB.png,,,,,,,,,,,,,,,,,,,,,z,1,0.9278,,,,,,,,0,1,1,137,1
,,,,,,,,,,,,,,,,,5dd72606cb9dd66db5091b6b,36,2022-02-12_16h01.56.424,lexical_decision_task_DD_L3,2021.2.3,Win32,60.0240096,,,,,,,,,,,0.5952,1,,,,,,,,,,,,,,,,,,,,,,,,0.16015625,-0.390625,0,0,0,,,,,,,ONION,LB,m,m,./images/ONIONLB.png,,,,,,,,,,,,,,,,,,,,,m,1,0.5952,,,,,,,,0,2,2,51,1
,,,,,,,,,,,,,,,,,5dd72606cb9dd66db5091b6b,36,2022-02-12_16h01.56.424,lexical_decision_task_DD_L3,2021.2.3,Win32,60.0240096,,,,,,,,,,,0.5701,1,,,,,,,,,,,,,,,,,,,,,,,,0.16015625,-0.390625,0,0,0,,,,,,,COOKER,LB,m,m,./images/COOKERLB.png,,,,,,,,,,,,,,,,,,,,,m,1,0.5701,,,,,,,,0,3,3,69,1
,,,,,,,,,,,,,,,,,5dd72606cb9dd66db5091b6b,36,2022-02-12_16h01.56.424,lexical_decision_task_DD_L3,2021.2.3,Win32,60.0240096,,,,,,,,,,,0.6186,1,,,,,,,,,,,,,,,,,,,,,,,,0.16015625,-0.390625,0,0,0,,,,,,,TULIP,HB,m,m,./images/TULIPHB.png,,,,,,,,,,,,,,,,,,,,,m,1,0.6186,,,,,,,,0,4,4,8,1
,,,,,,,,,,,,,,,,,5dd72606cb9dd66db5091b6b,36,2022-02-12_16h01.56.424,lexical_decision_task_DD_L3,2021.2.3,Win32,60.0240096,,,,,,,,,,,0.7656,1,,,,,,,,,,,,,,,,,,,,,,,,0.16015625,-0.390625,0,0,0,,,,,,,BUNNY,C,z,m,./images/BUNNY.png,,,,,,,,,,,,,,,,,,,,,z,1,0.7656,,,,,,,,0,5,5,97,1
,,,,,,,,,,,,,,,,,5dd72606cb9dd66db5091b6b,36,2022-02-12_16h01.56.424,lexical_decision_task_DD_L3,2021.2.3,Win32,60.0240096,,,,,,,,,,,0.7033,0,,,,,,,,,,,,,,,,,,,,,,,,0.16015625,-0.390625,0,0,0,,,,,,,BASKET,HB,z,m,./images/BASKETHB.png,,,,,,,,,,,,,,,,,,,,,m,0,0.7033,,,,,,,,0,6,6,128,1
,,,,,,,,,,,,,,,,,5dd72606cb9dd66db5091b6b,36,2022-02-12_16h01.56.424,lexical_decision_task_DD_L3,2021.2.3,Win32,60.0240096,,,,,,,,,,,0.605,1,,,,,,,,,,,,,,,,,,,,,,,,0.16015625,-0.390625,0,0,0,,,,,,,PURSE,HB,m,m,./images/PURSEHB.png,,,,,,,,,,,,,,,,,,,,,m,1,0.605,,,,,,,,0,7,7,62,1
,,,,,,,,,,,,,,,,,5dd72606cb9dd66db5091b6b,36,2022-02-12_16h01.56.424,lexical_decision_task_DD_L3,2021.2.3,Win32,60.0240096,,,,,,,,,,,0.6794,1,,,,,,,,,,,,,,,,,,,,,,,,0.16015625,-0.390625,0,0,0,,,,,,,DANCER,LB,z,m,./images/DANCERLB.png,,,,,,,,,,,,,,,,,,,,,z,1,0.6794,,,,,,,,0,8,8,105,1
,,,,,,,,,,,,,,,,,5dd72606cb9dd66db5091b6b,36,2022-02-12_16h01.56.424,lexical_decision_task_DD_L3,2021.2.3,Win32,60.0240096,,,,,,,,,,,0.6027,1,,,,,,,,,,,,,,,,,,,,,,,,0.16015625,-0.390625,0,0,0,,,,,,,BEARD,HB,m,m,./images/BEARDHB.png,,,,,,,,,,,,,,,,,,,,,m,1,0.6027,,,,,,,,0,9,9,2,1
,,,,,,,,,,,,,,,,,5dd72606cb9dd66db5091b6b,36,2022-02-12_16h01.56.424,lexical_decision_task_DD_L3,2021.2.3,Win32,60.0240096,,,,,,,,,,,0.6187,1,,,,,,,,,,,,,,,,,,,,,,,,0.16015625,-0.390625,0,0,0,,,,,,,BROOM,LB,z,m,./images/BROOMLB.png,,,,,,,,,,,,,,,,,,,,,z,1,0.6187,,,,,,,,0,10,10,162,1
,,,,,,,,,,,,,,,,,5dd72606cb9dd66db5091b6b,36,2022-02-12_16h01.56.424,lexical_decision_task_DD_L3,2021.2.3,Win32,60.0240096,,,,,,,,,,,0.6468,1,,,,,,,,,,,,,,,,,,,,,,,,0.16015625,-0.390625,0,0,0,,,,,,,MAGGOT,LB,m,m,./images/MAGGOTLB.png,,,,,,,,,,,,,,,,,,,,,m,1,0.6468,,,,,,,,0,11,11,33,1
,,,,,,,,,,,,,,,,,5dd72606cb9dd66db5091b6b,36,2022-02-12_16h01.56.424,lexical_decision_task_DD_L3,2021.2.3,Win32,60.0240096,,,,,,,,,,,0.5212,0,,,,,,,,,,,,,,,,,,,,,,,,0.16015625,-0.390625,0,0,0,,,,,,,CRADLE,HB,m,m,./images/CRADLEHB.png,,,,,,,,,,,,,,,,,,,,,z,0,0.5212,,,,,,,,0,12,12,20,1
,,,,,,,,,,,,,,,,,5dd72606cb9dd66db5091b6b,36,2022-02-12_16h01.56.424,lexical_decision_task_DD_L3,2021.2.3,Win32,60.0240096,,,,,,,,,,,0.5967,1,,,,,,,,,,,,,,,,,,,,,,,,0.16015625,-0.390625,0,0,0,,,,,,,CLOTH,HB,z,m,./images/CLOTHHB.png,,,,,,,,,,,,,,,,,,,,,z,1,0.5967,,,,,,,,0,13,13,107,1
,,,,,,,,,,,,,,,,,5dd72606cb9dd66db5091b6b,36,2022-02-12_16h01.56.424,lexical_decision_task_DD_L3,2021.2.3,Win32,60.0240096,,,,,,,,,,,1.1643,1,,,,,,,,,,,,,,,,,,,,,,,,0.16015625,-0.390625,0,0,0,,,,,,,CHAIN,LB,z,m,./images/CHAINLB.png,,,,,,,,,,,,,,,,,,,,,z,1,1.1643,,,,,,,,0,14,14,126,1
,,,,,,,,,,,,,,,,,5dd72606cb9dd66db5091b6b,36,2022-02-12_16h01.56.424,lexical_decision_task_DD_L3,2021.2.3,Win32,60.0240096,,,,,,,,,,,0.9398,0,,,,,,,,,,,,,,,,,,,,,,,,0.16015625,-0.390625,0,0,0,,,,,,,STAIN,LB,z,m,./images/STAINLB.png,,,,,,,,,,,,,,,,,,,,,m,0,0.9398,,,,,,,,0,15,15,90,1
,,,,,,,,,,,,,,,,,5dd72606cb9dd66db5091b6b,36,2022-02-12_16h01.56.424,lexical_decision_task_DD_L3,2021.2.3,Win32,60.0240096,,,,,,,,,,,0.6374,1,,,,,,,,,,,,,,,,,,,,,,,,0.16015625,-0.390625,0,0,0,,,,,,,STORM,LB,m,m,./images/STORMLB.png,,,,,,,,,,,,,,,,,,,,,m,1,0.6374,,,,,,,,0,16,16,30,1
,,,,,,,,,,,,,,,,,5dd72606cb9dd66db5091b6b,36,2022-02-12_16h01.56.424,lexical_decision_task_DD_L3,2021.2.3,Win32,60.0240096,,,,,,,,,,,0.5661,1,,,,,,,,,,,,,,,,,,,,,,,,0.16015625,-0.390625,0,0,0,,,,,,,BANNER,C,m,m,./images/BANNER.png,,,,,,,,,,,,,,,,,,,,,m,1,0.5661,,,,,,,,0,17,17,52,1
,,,,,,,,,,,,,,,,,5dd72606cb9dd66db5091b6b,36,2022-02-12_16h01.56.424,lexical_decision_task_DD_L3,2021.2.3,Win32,60.0240096,,,,,,,,,,,0.671,1,,,,,,,,,,,,,,,,,,,,,,,,0.16015625,-0.390625,0,0,0,,,,,,,FLASK,LB,z,m,./images/FLASKLB.png,,,,,,,,,,,,,,,,,,,,,z,1,0.671,,,,,,,,0,18,18,156,1
,,,,,,,,,,,,,,,,,5dd72606cb9dd66db5091b6b,36,2022-02-12_16h01.56.424,lexical_decision_task_DD_L3,2021.2.3,Win32,60.0240096,,,,,,,,,,,0.6242,1,,,,,,,,,,,,,,,,,,,,,,,,0.16015625,-0.390625,0,0,0,,,,,,,PACKET,HB,m,m,./images/PACKETHB.png,,,,,,,,,,,,,,,,,,,,,m,1,0.6242,,,,,,,,0,19,19,56,1
,,,,,,,,,,,,,,,,,5dd72606cb9dd66db5091b6b,36,2022-02-12_16h01.56.424,lexical_decision_task_DD_L3,2021.2.3,Win32,60.0240096,,,,,,,,,,,0.5973,1,,,,,,,,,,,,,,,,,,,,,,,,0.16015625,-0.390625,0,0,0,,,,,,,CLOWN,C,z,m,./images/CLOWN.png,,,,,,,,,,,,,,,,,,,,,z,1,0.5973,,,,,,,,0,20,20,106,1
,,,,,,,,,,,,,,,,,5dd72606cb9dd66db5091b6b,36,2022-02-12_16h01.56.424,lexical_decision_task_DD_L3,2021.2.3,Win32,60.0240096,,,,,,,,,,,0.7825,1,,,,,,,,,,,,,,,,,,,,,,,,0.16015625,-0.390625,0,0,0,,,,,,,HOCKEY,HB,z,m,./images/HOCKEYHB.png,,,,,,,,,,,,,,,,,,,,,z,1,0.7825,,,,,,,,0,21,21,116,1
,,,,,,,,,,,,,,,,,5dd72606cb9dd66db5091b6b,36,2022-02-12_16h01.56.424,lexical_decision_task_DD_L3,2021.2.3,Win32,60.0240096,,,,,,,,,,,0.6635,1,,,,,,,,,,,,,,,,,,,,,,,,0.16015625,-0.390625,0,0,0,,,,,,,BIRTH,C,m,m,./images/BIRTH.png,,,,,,,,,,,,,,,,,,,,,m,1,0.6635,,,,,,,,0,22,22,37,1
,,,,,,,,,,,,,,,,,5dd72606cb9dd66db5091b6b,36,2022-02-12_16h01.56.424,lexical_decision_task_DD_L3,2021.2.3,Win32,60.0240096,,,,,,,,,,,0.931,1,,,,,,,,,,,,,,,,,,,,,,,,0.16015625,-0.390625,0,0,0,,,,,,,SNAKE,C,z,m,./images/SNAKE.png,,,,,,,,,,,,,,,,,,,,,z,1,0.931,,,,,,,,0,23,23,124,1
,,,,,,,,,,,,,,,,,5dd72606cb9dd66db5091b6b,36,2022-02-12_16h01.56.424,lexical_decision_task_DD_L3,2021.2.3,Win32,60.0240096,,,,,,,,,,,0.7478,1,,,,,,,,,,,,,,,,,,,,,,,,0.16015625,-0.390625,0,0,0,,,,,,,PASTA,HB,m,m,./images/PASTAHB.png,,,,,,,,,,,,,,,,,,,,,m,1,0.7478,,,,,,,,0,24,24,5,1
,,,,,,,,,,,,,,,,,5dd72606cb9dd66db5091b6b,36,2022-02-12_16h01.56.424,lexical_decision_task_DD_L3,2021.2.3,Win32,60.0240096,,,,,,,,,,,0.6282,1,,,,,,,,,,,,,,,,,,,,,,,,0.16015625,-0.390625,0,0,0,,,,,,,POODLE,LB,m,m,./images/POODLELB.png,,,,,,,,,,,,,,,,,,,,,m,1,0.6282,,,,,,,,0,25,25,81,1
,,,,,,,,,,,,,,,,,5dd72606cb9dd66db5091b6b,36,2022-02-12_16h01.56.424,lexical_decision_task_DD_L3,2021.2.3,Win32,60.0240096,,,,,,,,,,,0.9134,0,,,,,,,,,,,,,,,,,,,,,,,,0.16015625,-0.390625,0,0,0,,,,,,,INFANT,C,m,m,./images/INFANT.png,,,,,,,,,,,,,,,,,,,,,z,0,0.9134,,,,,,,,0,26,26,76,1
,,,,,,,,,,,,,,,,,5dd72606cb9dd66db5091b6b,36,2022-02-12_16h01.56.424,lexical_decision_task_DD_L3,2021.2.3,Win32,60.0240096,,,,,,,,,,,0.712,1,,,,,,,,,,,,,,,,,,,,,,,,0.16015625,-0.390625,0,0,0,,,,,,,MAMMAL,HB,z,m,./images/MAMMALHB.png,,,,,,,,,,,,,,,,,,,,,z,1,0.712,,,,,,,,0,27,27,146,1
,,,,,,,,,,,,,,,,,5dd72606cb9dd66db5091b6b,36,2022-02-12_16h01.56.424,lexical_decision_task_DD_L3,2021.2.3,Win32,60.0240096,,,,,,,,,,,0.6714,0,,,,,,,,,,,,,,,,,,,,,,,,0.16015625,-0.390625,0,0,0,,,,,,,QUILL,C,m,m,./images/QUILL.png,,,,,,,,,,,,,,,,,,,,,z,0,0.6714,,,,,,,,0,28,28,31,1
,,,,,,,,,,,,,,,,,5dd72606cb9dd66db5091b6b,36,2022-02-12_16h01.56.424,lexical_decision_task_DD_L3,2021.2.3,Win32,60.0240096,,,,,,,,,,,0.631,1,,,,,,,,,,,,,,,,,,,,,,,,0.16015625,-0.390625,0,0,0,,,,,,,FARMER,HB,m,m,./images/FARMERHB.png,,,,,,,,,,,,,,,,,,,,,m,1,0.631,,,,,,,,0,29,29,65,1
,,,,,,,,,,,,,,,,,5dd72606cb9dd66db5091b6b,36,2022-02-12_16h01.56.424,lexical_decision_task_DD_L3,2021.2.3,Win32,60.0240096,,,,,,,,,,,0.7976,0,,,,,,,,,,,,,,,,,,,,,,,,0.16015625,-0.390625,0,0,0,,,,,,,GRAIN,LB,m,m,./images/GRAINLB.png,,,,,,,,,,,,,,,,,,,,,z,0,0.7976,,,,,,,,0,30,30,75,1
,,,,,,,,,,,,,,,,,5dd72606cb9dd66db5091b6b,36,2022-02-12_16h01.56.424,lexical_decision_task_DD_L3,2021.2.3,Win32,60.0240096,,,,,,,,,,,0.6651,1,,,,,,,,,,,,,,,,,,,,,,,,0.16015625,-0.390625,0,0,0,,,,,,,PEBBLE,C,z,m,./images/PEBBLE.png,,,,,,,,,,,,,,,,,,,,,z,1,0.6651,,,,,,,,0,31,31,166,1
,,,,,,,,,,,,,,,,,5dd72606cb9dd66db5091b6b,36,2022-02-12_16h01.56.424,lexical_decision_task_DD_L3,2021.2.3,Win32,60.0240096,,,,,,,,,,,0.5353,1,,,,,,,,,,,,,,,,,,,,,,,,0.16015625,-0.390625,0,0,0,,,,,,,DIVER,LB,z,m,./images/DIVERLB.png,,,,,,,,,,,,,,,,,,,,,z,1,0.5353,,,,,,,,0,32,32,93,1
,,,,,,,,,,,,,,,,,5dd72606cb9dd66db5091b6b,36,2022-02-12_16h01.56.424,lexical_decision_task_DD_L3,2021.2.3,Win32,60.0240096,,,,,,,,,,,0.571,1,,,,,,,,,,,,,,,,,,,,,,,,0.16015625,-0.390625,0,0,0,,,,,,,BOILER,LB,z,m,./images/BOILERLB.png,,,,,,,,,,,,,,,,,,,,,z,1,0.571,,,,,,,,0,33,33,120,1
,,,,,,,,,,,,,,,,,5dd72606cb9dd66db5091b6b,36,2022-02-12_16h01.56.424,lexical_decision_task_DD_L3,2021.2.3,Win32,60.0240096,,,,,,,,,,,0.5636,1,,,,,,,,,,,,,,,,,,,,,,,,0.16015625,-0.390625,0,0,0,,,,,,,CHALK,C,z,m,./images/CHALK.png,,,,,,,,,,,,,,,,,,,,,z,1,0.5636,,,,,,,,0,34,34,109,1
,,,,,,,,,,,,,,,,,5dd72606cb9dd66db5091b6b,36,2022-02-12_16h01.56.424,lexical_decision_task_DD_L3,2021.2.3,Win32,60.0240096,,,,,,,,,,,0.6815,1,,,,,,,,,,,,,,,,,,,,,,,,0.16015625,-0.390625,0,0,0,,,,,,,BANANA,C,z,m,./images/BANANA.png,,,,,,,,,,,,,,,,,,,,,z,1,0.6815,,,,,,,,0,35,35,154,1
,,,,,,,,,,,,,,,,,5dd72606cb9dd66db5091b6b,36,2022-02-12_16h01.56.424,lexical_decision_task_DD_L3,2021.2.3,Win32,60.0240096,,,,,,,,,,,0.6715,1,,,,,,,,,,,,,,,,,,,,,,,,0.16015625,-0.390625,0,0,0,,,,,,,MIRROR,LB,m,m,./images/MIRRORLB.png,,,,,,,,,,,,,,,,,,,,,m,1,0.6715,,,,,,,,0,36,36,63,1
,,,,,,,,,,,,,,,,,5dd72606cb9dd66db5091b6b,36,2022-02-12_16h01.56.424,lexical_decision_task_DD_L3,2021.2.3,Win32,60.0240096,,,,,,,,,,,0.5514,1,,,,,,,,,,,,,,,,,,,,,,,,0.16015625,-0.390625,0,0,0,,,,,,,MEDAL,HB,z,m,./images/MEDALHB.png,,,,,,,,,,,,,,,,,,,,,z,1,0.5514,,,,,,,,0,37,37,95,1
,,,,,,,,,,,,,,,,,5dd72606cb9dd66db5091b6b,36,2022-02-12_16h01.56.424,lexical_decision_task_DD_L3,2021.2.3,Win32,60.0240096,,,,,,,,,,,0.6322,1,,,,,,,,,,,,,,,,,,,,,,,,0.16015625,-0.390625,0,0,0,,,,,,,JAGUAR,LB,m,m,./images/JAGUARLB.png,,,,,,,,,,,,,,,,,,,,,m,1,0.6322,,,,,,,,0,38,38,18,1
,,,,,,,,,,,,,,,,,5dd72606cb9dd66db5091b6b,36,2022-02-12_16h01.56.424,lexical_decision_task_DD_L3,2021.2.3,Win32,60.0240096,,,,,,,,,,,0.596,1,,,,,,,,,,,,,,,,,,,,,,,,0.16015625,-0.390625,0,0,0,,,,,,,BOXER,C,z,m,./images/BOXER.png,,,,,,,,,,,,,,,,,,,,,z,1,0.596,,,,,,,,0,39,39,88,1
,,,,,,,,,,,,,,,,,5dd72606cb9dd66db5091b6b,36,2022-02-12_16h01.56.424,lexical_decision_task_DD_L3,2021.2.3,Win32,60.0240096,,,,,,,,,,,0.6433,1,,,,,,,,,,,,,,,,,,,,,,,,0.16015625,-0.390625,0,0,0,,,,,,,COLLAR,LB,z,m,./images/COLLARLB.png,,,,,,,,,,,,,,,,,,,,,z,1,0.6433,,,,,,,,0,40,40,99,1
,,,,,,,,,,,,,,,,,5dd72606cb9dd66db5091b6b,36,2022-02-12_16h01.56.424,lexical_decision_task_DD_L3,2021.2.3,Win32,60.0240096,,,,,,,,,,,0.5917,1,,,,,,,,,,,,,,,,,,,,,,,,0.16015625,-0.390625,0,0,0,space,,,,,,MELON,C,m,m,./images/MELON.png,2.9483,,,,,,,,,,,,,,,,,,,,m,1,0.5917,,,,,,,,0,41,41,22,1
,,,,,,,,,,,,,,,,,5dd72606cb9dd66db5091b6b,36,2022-02-12_16h01.56.424,lexical_decision_task_DD_L3,2021.2.3,Win32,60.0240096,,,,,,,,,,,1.0066,0,,,,,,,,,,,,,,,,,,,,,,,,0.16015625,-0.390625,0,0,0,,,,,,,CRUST,C,m,m,./images/CRUST.png,,,,,,,,,,,,,,,,,,,,,z,0,1.0066,,,,,,,,0,42,42,79,1
,,,,,,,,,,,,,,,,,5dd72606cb9dd66db5091b6b,36,2022-02-12_16h01.56.424,lexical_decision_task_DD_L3,2021.2.3,Win32,60.0240096,,,,,,,,,,,0.6352,1,,,,,,,,,,,,,,,,,,,,,,,,0.16015625,-0.390625,0,0,0,,,,,,,MOSQUE,C,m,m,./images/MOSQUE.png,,,,,,,,,,,,,,,,,,,,,m,1,0.6352,,,,,,,,0,43,43,43,1
,,,,,,,,,,,,,,,,,5dd72606cb9dd66db5091b6b,36,2022-02-12_16h01.56.424,lexical_decision_task_DD_L3,2021.2.3,Win32,60.0240096,,,,,,,,,,,0.5709,1,,,,,,,,,,,,,,,,,,,,,,,,0.16015625,-0.390625,0,0,0,,,,,,,BRUSH,HB,z,m,./images/BRUSHHB.png,,,,,,,,,,,,,,,,,,,,,z,1,0.5709,,,,,,,,0,44,44,143,1
,,,,,,,,,,,,,,,,,5dd72606cb9dd66db5091b6b,36,2022-02-12_16h01.56.424,lexical_decision_task_DD_L3,2021.2.3,Win32,60.0240096,,,,,,,,,,,0.6467,1,,,,,,,,,,,,,,,,,,,,,,,,0.16015625,-0.390625,0,0,0,,,,,,,FALCON,C,m,m,./images/FALCON.png,,,,,,,,,,,,,,,,,,,,,m,1,0.6467,,,,,,,,0,45,45,28,1
,,,,,,,,,,,,,,,,,5dd72606cb9dd66db5091b6b,36,2022-02-12_16h01.56.424,lexical_decision_task_DD_L3,2021.2.3,Win32,60.0240096,,,,,,,,,,,0.72,1,,,,,,,,,,,,,,,,,,,,,,,,0.16015625,-0.390625,0,0,0,,,,,,,CRUMB,HB,m,m,./images/CRUMBHB.png,,,,,,,,,,,,,,,,,,,,,m,1,0.72,,,,,,,,0,46,46,29,1
,,,,,,,,,,,,,,,,,5dd72606cb9dd66db5091b6b,36,2022-02-12_16h01.56.424,lexical_decision_task_DD_L3,2021.2.3,Win32,60.0240096,,,,,,,,,,,0.6451,1,,,,,,,,,,,,,,,,,,,,,,,,0.16015625,-0.390625,0,0,0,,,,,,,BERRY,HB,m,m,./images/BERRYHB.png,,,,,,,,,,,,,,,,,,,,,m,1,0.6451,,,,,,,,0,47,47,47,1
,,,,,,,,,,,,,,,,,5dd72606cb9dd66db5091b6b,36,2022-02-12_16h01.56.424,lexical_decision_task_DD_L3,2021.2.3,Win32,60.0240096,,,,,,,,,,,0.5847,1,,,,,,,,,,,,,,,,,,,,,,,,0.16015625,-0.390625,0,0,0,,,,,,,LAGOON,HB,z,m,./images/LAGOONHB.png,,,,,,,,,,,,,,,,,,,,,z,1,0.5847,,,,,,,,0,48,48,131,1
,,,,,,,,,,,,,,,,,5dd72606cb9dd66db5091b6b,36,2022-02-12_16h01.56.424,lexical_decision_task_DD_L3,2021.2.3,Win32,60.0240096,,,,,,,,,,,0.617,1,,,,,,,,,,,,,,,,,,,,,,,,0.16015625,-0.390625,0,0,0,,,,,,,VALLEY,HB,z,m,./images/VALLEYHB.png,,,,,,,,,,,,,,,,,,,,,z,1,0.617,,,,,,,,0,49,49,152,1
,,,,,,,,,,,,,,,,,5dd72606cb9dd66db5091b6b,36,2022-02-12_16h01.56.424,lexical_decision_task_DD_L3,2021.2.3,Win32,60.0240096,,,,,,,,,,,0.565,1,,,,,,,,,,,,,,,,,,,,,,,,0.16015625,-0.390625,0,0,0,,,,,,,RHINO,LB,m,m,./images/RHINOLB.png,,,,,,,,,,,,,,,,,,,,,m,1,0.565,,,,,,,,0,50,50,9,1
,,,,,,,,,,,,,,,,,5dd72606cb9dd66db5091b6b,36,2022-02-12_16h01.56.424,lexical_decision_task_DD_L3,2021.2.3,Win32,60.0240096,,,,,,,,,,,0.7169,0,,,,,,,,,,,,,,,,,,,,,,,,0.16015625,-0.390625,0,0,0,,,,,,,STRING,HB,m,m,./images/STRINGHB.png,,,,,,,,,,,,,,,,,,,,,z,0,0.7169,,,,,,,,0,51,51,41,1
,,,,,,,,,,,,,,,,,5dd72606cb9dd66db5091b6b,36,2022-02-12_16h01.56.424,lexical_decision_task_DD_L3,2021.2.3,Win32,60.0240096,,,,,,,,,,,0.5978,1,,,,,,,,,,,,,,,,,,,,,,,,0.16015625,-0.390625,0,0,0,,,,,,,ARROW,LB,z,m,./images/ARROWLB.png,,,,,,,,,,,,,,,,,,,,,z,1,0.5978,,,,,,,,0,52,52,153,1
,,,,,,,,,,,,,,,,,5dd72606cb9dd66db5091b6b,36,2022-02-12_16h01.56.424,lexical_decision_task_DD_L3,2021.2.3,Win32,60.0240096,,,,,,,,,,,0.6533,1,,,,,,,,,,,,,,,,,,,,,,,,0.16015625,-0.390625,0,0,0,,,,,,,KITTEN,LB,m,m,./images/KITTENLB.png,,,,,,,,,,,,,,,,,,,,,m,1,0.6533,,,,,,,,0,53,53,45,1
,,,,,,,,,,,,,,,,,5dd72606cb9dd66db5091b6b,36,2022-02-12_16h01.56.424,lexical_decision_task_DD_L3,2021.2.3,Win32,60.0240096,,,,,,,,,,,0.5735,1,,,,,,,,,,,,,,,,,,,,,,,,0.16015625,-0.390625,0,0,0,,,,,,,CRATER,LB,z,m,./images/CRATERLB.png,,,,,,,,,,,,,,,,,,,,,z,1,0.5735,,,,,,,,0,54,54,87,1
,,,,,,,,,,,,,,,,,5dd72606cb9dd66db5091b6b,36,2022-02-12_16h01.56.424,lexical_decision_task_DD_L3,2021.2.3,Win32,60.0240096,,,,,,,,,,,0.5354,1,,,,,,,,,,,,,,,,,,,,,,,,0.16015625,-0.390625,0,0,0,,,,,,,DESERT,C,z,m,./images/DESERT.png,,,,,,,,,,,,,,,,,,,,,z,1,0.5354,,,,,,,,0,55,55,136,1
,,,,,,,,,,,,,,,,,5dd72606cb9dd66db5091b6b,36,2022-02-12_16h01.56.424,lexical_decision_task_DD_L3,2021.2.3,Win32,60.0240096,,,,,,,,,,,0.5854,1,,,,,,,,,,,,,,,,,,,,,,,,0.16015625,-0.390625,0,0,0,,,,,,,CHERRY,LB,z,m,./images/CHERRYLB.png,,,,,,,,,,,,,,,,,,,,,z,1,0.5854,,,,,,,,0,56,56,138,1
,,,,,,,,,,,,,,,,,5dd72606cb9dd66db5091b6b,36,2022-02-12_16h01.56.424,lexical_decision_task_DD_L3,2021.2.3,Win32,60.0240096,,,,,,,,,,,0.5666,1,,,,,,,,,,,,,,,,,,,,,,,,0.16015625,-0.390625,0,0,0,,,,,,,SQUARE,LB,m,m,./images/SQUARELB.png,,,,,,,,,,,,,,,,,,,,,m,1,0.5666,,,,,,,,0,57,57,6,1
,,,,,,,,,,,,,,,,,5dd72606cb9dd66db5091b6b,36,2022-02-12_16h01.56.424,lexical_decision_task_DD_L3,2021.2.3,Win32,60.0240096,,,,,,,,,,,0.6666,0,,,,,,,,,,,,,,,,,,,,,,,,0.16015625,-0.390625,0,0,0,,,,,,,BELLY,C,m,m,./images/BELLY.png,,,,,,,,,,,,,,,,,,,,,z,0,0.6666,,,,,,,,0,58,58,10,1
,,,,,,,,,,,,,,,,,5dd72606cb9dd66db5091b6b,36,2022-02-12_16h01.56.424,lexical_decision_task_DD_L3,2021.2.3,Win32,60.0240096,,,,,,,,,,,0.5486,1,,,,,,,,,,,,,,,,,,,,,,,,0.16015625,-0.390625,0,0,0,,,,,,,PEACH,HB,m,m,./images/PEACHHB.png,,,,,,,,,,,,,,,,,,,,,m,1,0.5486,,,,,,,,0,59,59,35,1
,,,,,,,,,,,,,,,,,5dd72606cb9dd66db5091b6b,36,2022-02-12_16h01.56.424,lexical_decision_task_DD_L3,2021.2.3,Win32,60.0240096,,,,,,,,,,,0.5153,1,,,,,,,,,,,,,,,,,,,,,,,,0.16015625,-0.390625,0,0,0,,,,,,,ARTIST,C,z,m,./images/ARTIST.png,,,,,,,,,,,,,,,,,,,,,z,1,0.5153,,,,,,,,0,60,60,145,1
,,,,,,,,,,,,,,,,,5dd72606cb9dd66db5091b6b,36,2022-02-12_16h01.56.424,lexical_decision_task_DD_L3,2021.2.3,Win32,60.0240096,,,,,,,,,,,0.5814,1,,,,,,,,,,,,,,,,,,,,,,,,0.16015625,-0.390625,0,0,0,,,,,,,DRILL,LB,z,m,./images/DRILLLB.png,,,,,,,,,,,,,,,,,,,,,z,1,0.5814,,,,,,,,0,61,61,165,1
,,,,,,,,,,,,,,,,,5dd72606cb9dd66db5091b6b,36,2022-02-12_16h01.56.424,lexical_decision_task_DD_L3,2021.2.3,Win32,60.0240096,,,,,,,,,,,0.6649,1,,,,,,,,,,,,,,,,,,,,,,,,0.16015625,-0.390625,0,0,0,,,,,,,BUBBLE,HB,z,m,./images/BUBBLEHB.png,,,,,,,,,,,,,,,,,,,,,z,1,0.6649,,,,,,,,0,62,62,155,1
,,,,,,,,,,,,,,,,,5dd72606cb9dd66db5091b6b,36,2022-02-12_16h01.56.424,lexical_decision_task_DD_L3,2021.2.3,Win32,60.0240096,,,,,,,,,,,0.789,0,,,,,,,,,,,,,,,,,,,,,,,,0.16015625,-0.390625,0,0,0,,,,,,,SPORT,LB,m,m,./images/SPORTLB.png,,,,,,,,,,,,,,,,,,,,,z,0,0.789,,,,,,,,0,63,63,48,1
,,,,,,,,,,,,,,,,,5dd72606cb9dd66db5091b6b,36,2022-02-12_16h01.56.424,lexical_decision_task_DD_L3,2021.2.3,Win32,60.0240096,,,,,,,,,,,0.7019,1,,,,,,,,,,,,,,,,,,,,,,,,0.16015625,-0.390625,0,0,0,,,,,,,CANDLE,C,m,m,./images/CANDLE.png,,,,,,,,,,,,,,,,,,,,,m,1,0.7019,,,,,,,,0,64,64,61,1
,,,,,,,,,,,,,,,,,5dd72606cb9dd66db5091b6b,36,2022-02-12_16h01.56.424,lexical_decision_task_DD_L3,2021.2.3,Win32,60.0240096,,,,,,,,,,,0.6559,1,,,,,,,,,,,,,,,,,,,,,,,,0.16015625,-0.390625,0,0,0,,,,,,,SAILOR,C,m,m,./images/SAILOR.png,,,,,,,,,,,,,,,,,,,,,m,1,0.6559,,,,,,,,0,65,65,67,1
,,,,,,,,,,,,,,,,,5dd72606cb9dd66db5091b6b,36,2022-02-12_16h01.56.424,lexical_decision_task_DD_L3,2021.2.3,Win32,60.0240096,,,,,,,,,,,0.6596,1,,,,,,,,,,,,,,,,,,,,,,,,0.16015625,-0.390625,0,0,0,,,,,,,STOVE,HB,z,m,./images/STOVEHB.png,,,,,,,,,,,,,,,,,,,,,z,1,0.6596,,,,,,,,0,66,66,86,1
,,,,,,,,,,,,,,,,,5dd72606cb9dd66db5091b6b,36,2022-02-12_16h01.56.424,lexical_decision_task_DD_L3,2021.2.3,Win32,60.0240096,,,,,,,,,,,0.8531,1,,,,,,,,,,,,,,,,,,,,,,,,0.16015625,-0.390625,0,0,0,,,,,,,FERRY,LB,z,m,./images/FERRYLB.png,,,,,,,,,,,,,,,,,,,,,z,1,0.8531,,,,,,,,0,67,67,141,1
,,,,,,,,,,,,,,,,,5dd72606cb9dd66db5091b6b,36,2022-02-12_16h01.56.424,lexical_decision_task_DD_L3,2021.2.3,Win32,60.0240096,,,,,,,,,,,0.6379,0,,,,,,,,,,,,,,,,,,,,,,,,0.16015625,-0.390625,0,0,0,,,,,,,TWINS,LB,m,m,./images/TWINSLB.png,,,,,,,,,,,,,,,,,,,,,z,0,0.6379,,,,,,,,0,68,68,60,1
,,,,,,,,,,,,,,,,,5dd72606cb9dd66db5091b6b,36,2022-02-12_16h01.56.424,lexical_decision_task_DD_L3,2021.2.3,Win32,60.0240096,,,,,,,,,,,0.8212,1,,,,,,,,,,,,,,,,,,,,,,,,0.16015625,-0.390625,0,0,0,,,,,,,BAKER,LB,z,m,./images/BAKERLB.png,,,,,,,,,,,,,,,,,,,,,z,1,0.8212,,,,,,,,0,69,69,147,1
,,,,,,,,,,,,,,,,,5dd72606cb9dd66db5091b6b,36,2022-02-12_16h01.56.424,lexical_decision_task_DD_L3,2021.2.3,Win32,60.0240096,,,,,,,,,,,0.5977,1,,,,,,,,,,,,,,,,,,,,,,,,0.16015625,-0.390625,0,0,0,,,,,,,HEATER,HB,z,m,./images/HEATERHB.png,,,,,,,,,,,,,,,,,,,,,z,1,0.5977,,,,,,,,0,70,70,140,1
,,,,,,,,,,,,,,,,,5dd72606cb9dd66db5091b6b,36,2022-02-12_16h01.56.424,lexical_decision_task_DD_L3,2021.2.3,Win32,60.0240096,,,,,,,,,,,0.4966,1,,,,,,,,,,,,,,,,,,,,,,,,0.16015625,-0.390625,0,0,0,,,,,,,RULER,C,z,m,./images/RULER.png,,,,,,,,,,,,,,,,,,,,,z,1,0.4966,,,,,,,,0,71,71,163,1
,,,,,,,,,,,,,,,,,5dd72606cb9dd66db5091b6b,36,2022-02-12_16h01.56.424,lexical_decision_task_DD_L3,2021.2.3,Win32,60.0240096,,,,,,,,,,,0.6451,1,,,,,,,,,,,,,,,,,,,,,,,,0.16015625,-0.390625,0,0,0,,,,,,,MALLET,HB,m,m,./images/MALLETHB.png,,,,,,,,,,,,,,,,,,,,,m,1,0.6451,,,,,,,,0,72,72,50,1
,,,,,,,,,,,,,,,,,5dd72606cb9dd66db5091b6b,36,2022-02-12_16h01.56.424,lexical_decision_task_DD_L3,2021.2.3,Win32,60.0240096,,,,,,,,,,,0.8042,1,,,,,,,,,,,,,,,,,,,,,,,,0.16015625,-0.390625,0,0,0,,,,,,,SHORE,LB,m,m,./images/SHORELB.png,,,,,,,,,,,,,,,,,,,,,m,1,0.8042,,,,,,,,0,73,73,12,1
,,,,,,,,,,,,,,,,,5dd72606cb9dd66db5091b6b,36,2022-02-12_16h01.56.424,lexical_decision_task_DD_L3,2021.2.3,Win32,60.0240096,,,,,,,,,,,0.647,1,,,,,,,,,,,,,,,,,,,,,,,,0.16015625,-0.390625,0,0,0,,,,,,,CANDY,LB,z,m,./images/CANDYLB.png,,,,,,,,,,,,,,,,,,,,,z,1,0.647,,,,,,,,0,74,74,123,1
,,,,,,,,,,,,,,,,,5dd72606cb9dd66db5091b6b,36,2022-02-12_16h01.56.424,lexical_decision_task_DD_L3,2021.2.3,Win32,60.0240096,,,,,,,,,,,0.5548,1,,,,,,,,,,,,,,,,,,,,,,,,0.16015625,-0.390625,0,0,0,,,,,,,PISTOL,HB,z,m,./images/PISTOLHB.png,,,,,,,,,,,,,,,,,,,,,z,1,0.5548,,,,,,,,0,75,75,113,1
,,,,,,,,,,,,,,,,,5dd72606cb9dd66db5091b6b,36,2022-02-12_16h01.56.424,lexical_decision_task_DD_L3,2021.2.3,Win32,60.0240096,,,,,,,,,,,0.7508,1,,,,,,,,,,,,,,,,,,,,,,,,0.16015625,-0.390625,0,0,0,,,,,,,LADDER,HB,m,m,./images/LADDERHB.png,,,,,,,,,,,,,,,,,,,,,m,1,0.7508,,,,,,,,0,76,76,38,1
,,,,,,,,,,,,,,,,,5dd72606cb9dd66db5091b6b,36,2022-02-12_16h01.56.424,lexical_decision_task_DD_L3,2021.2.3,Win32,60.0240096,,,,,,,,,,,0.5983,1,,,,,,,,,,,,,,,,,,,,,,,,0.16015625,-0.390625,0,0,0,,,,,,,STATUE,LB,z,m,./images/STATUELB.png,,,,,,,,,,,,,,,,,,,,,z,1,0.5983,,,,,,,,0,77,77,150,1
,,,,,,,,,,,,,,,,,5dd72606cb9dd66db5091b6b,36,2022-02-12_16h01.56.424,lexical_decision_task_DD_L3,2021.2.3,Win32,60.0240096,,,,,,,,,,,0.6377,1,,,,,,,,,,,,,,,,,,,,,,,,0.16015625,-0.390625,0,0,0,,,,,,,STOOL,C,z,m,./images/STOOL.png,,,,,,,,,,,,,,,,,,,,,z,1,0.6377,,,,,,,,0,78,78,127,1
,,,,,,,,,,,,,,,,,5dd72606cb9dd66db5091b6b,36,2022-02-12_16h01.56.424,lexical_decision_task_DD_L3,2021.2.3,Win32,60.0240096,,,,,,,,,,,0.5621,1,,,,,,,,,,,,,,,,,,,,,,,,0.16015625,-0.390625,0,0,0,,,,,,,MUMMY,C,z,m,./images/MUMMY.png,,,,,,,,,,,,,,,,,,,,,z,1,0.5621,,,,,,,,0,79,79,130,1
,,,,,,,,,,,,,,,,,5dd72606cb9dd66db5091b6b,36,2022-02-12_16h01.56.424,lexical_decision_task_DD_L3,2021.2.3,Win32,60.0240096,,,,,,,,,,,0.6981,0,,,,,,,,,,,,,,,,,,,,,,,,0.16015625,-0.390625,0,0,0,,,,,,,BARREL,HB,m,m,./images/BARRELHB.png,,,,,,,,,,,,,,,,,,,,,z,0,0.6981,,,,,,,,0,80,80,32,1
,,,,,,,,,,,,,,,,,5dd72606cb9dd66db5091b6b,36,2022-02-12_16h01.56.424,lexical_decision_task_DD_L3,2021.2.3,Win32,60.0240096,,,,,,,,,,,0.8483,1,,,,,,,,,,,,,,,,,,,,,,,,0.16015625,-0.390625,0,0,0,,,,,,,TRIPOD,LB,m,m,./images/TRIPODLB.png,,,,,,,,,,,,,,,,,,,,,m,1,0.8483,,,,,,,,0,81,81,54,1
,,,,,,,,,,,,,,,,,5dd72606cb9dd66db5091b6b,36,2022-02-12_16h01.56.424,lexical_decision_task_DD_L3,2021.2.3,Win32,60.0240096,,,,,,,,,,,0.5519,0,,,,,,,,,,,,,,,,,,,,,,,,0.16015625,-0.390625,0,0,0,,,,,,,MOTOR,C,m,m,./images/MOTOR.png,,,,,,,,,,,,,,,,,,,,,z,0,0.5519,,,,,,,,0,82,82,13,1
,,,,,,,,,,,,,,,,,5dd72606cb9dd66db5091b6b,36,2022-02-12_16h01.56.424,lexical_decision_task_DD_L3,2021.2.3,Win32,60.0240096,,,,,,,,,,,0.6036,0,,,,,,,,,,,,,,,,,,,,,,,,0.16015625,-0.390625,0,0,0,space,,,,,,COUCH,HB,m,m,./images/COUCHHB.png,6.6109,,,,,,,,,,,,,,,,,,,,z,0,0.6036,,,,,,,,0,83,83,77,1
,,,,,,,,,,,,,,,,,5dd72606cb9dd66db5091b6b,36,2022-02-12_16h01.56.424,lexical_decision_task_DD_L3,2021.2.3,Win32,60.0240096,,,,,,,,,,,0.7388,1,,,,,,,,,,,,,,,,,,,,,,,,0.16015625,-0.390625,0,0,0,,,,,,,TOWEL,C,z,m,./images/TOWEL.png,,,,,,,,,,,,,,,,,,,,,z,1,0.7388,,,,,,,,0,84,84,85,1
,,,,,,,,,,,,,,,,,5dd72606cb9dd66db5091b6b,36,2022-02-12_16h01.56.424,lexical_decision_task_DD_L3,2021.2.3,Win32,60.0240096,,,,,,,,,,,0.6757,0,,,,,,,,,,,,,,,,,,,,,,,,0.16015625,-0.390625,0,0,0,,,,,,,HAMMER,LB,z,m,./images/HAMMERLB.png,,,,,,,,,,,,,,,,,,,,,m,0,0.6757,,,,,,,,0,85,85,159,1
,,,,,,,,,,,,,,,,,5dd72606cb9dd66db5091b6b,36,2022-02-12_16h01.56.424,lexical_decision_task_DD_L3,2021.2.3,Win32,60.0240096,,,,,,,,,,,0.5885,1,,,,,,,,,,,,,,,,,,,,,,,,0.16015625,-0.390625,0,0,0,,,,,,,JUMPER,HB,z,m,./images/JUMPERHB.png,,,,,,,,,,,,,,,,,,,,,z,1,0.5885,,,,,,,,0,86,86,158,1
,,,,,,,,,,,,,,,,,5dd72606cb9dd66db5091b6b,36,2022-02-12_16h01.56.424,lexical_decision_task_DD_L3,2021.2.3,Win32,60.0240096,,,,,,,,,,,0.6754,1,,,,,,,,,,,,,,,,,,,,,,,,0.16015625,-0.390625,0,0,0,,,,,,,POKER,C,z,m,./images/POKER.png,,,,,,,,,,,,,,,,,,,,,z,1,0.6754,,,,,,,,0,87,87,151,1
,,,,,,,,,,,,,,,,,5dd72606cb9dd66db5091b6b,36,2022-02-12_16h01.56.424,lexical_decision_task_DD_L3,2021.2.3,Win32,60.0240096,,,,,,,,,,,0.7243,1,,,,,,,,,,,,,,,,,,,,,,,,0.16015625,-0.390625,0,0,0,,,,,,,RAZOR,C,z,m,./images/RAZOR.png,,,,,,,,,,,,,,,,,,,,,z,1,0.7243,,,,,,,,0,88,88,118,1
,,,,,,,,,,,,,,,,,5dd72606cb9dd66db5091b6b,36,2022-02-12_16h01.56.424,lexical_decision_task_DD_L3,2021.2.3,Win32,60.0240096,,,,,,,,,,,0.9986,1,,,,,,,,,,,,,,,,,,,,,,,,0.16015625,-0.390625,0,0,0,,,,,,,MONKEY,LB,z,m,./images/MONKEYLB.png,,,,,,,,,,,,,,,,,,,,,z,1,0.9986,,,,,,,,0,89,89,129,1
,,,,,,,,,,,,,,,,,5dd72606cb9dd66db5091b6b,36,2022-02-12_16h01.56.424,lexical_decision_task_DD_L3,2021.2.3,Win32,60.0240096,,,,,,,,,,,0.5983,1,,,,,,,,,,,,,,,,,,,,,,,,0.16015625,-0.390625,0,0,0,,,,,,,PICKLE,HB,m,m,./images/PICKLEHB.png,,,,,,,,,,,,,,,,,,,,,m,1,0.5983,,,,,,,,0,90,90,14,1
,,,,,,,,,,,,,,,,,5dd72606cb9dd66db5091b6b,36,2022-02-12_16h01.56.424,lexical_decision_task_DD_L3,2021.2.3,Win32,60.0240096,,,,,,,,,,,0.6812,1,,,,,,,,,,,,,,,,,,,,,,,,0.16015625,-0.390625,0,0,0,,,,,,,PILOT,HB,z,m,./images/PILOTHB.png,,,,,,,,,,,,,,,,,,,,,z,1,0.6812,,,,,,,,0,91,91,134,1
,,,,,,,,,,,,,,,,,5dd72606cb9dd66db5091b6b,36,2022-02-12_16h01.56.424,lexical_decision_task_DD_L3,2021.2.3,Win32,60.0240096,,,,,,,,,,,0.6023,0,,,,,,,,,,,,,,,,,,,,,,,,0.16015625,-0.390625,0,0,0,,,,,,,PAINT,C,m,m,./images/PAINT.png,,,,,,,,,,,,,,,,,,,,,z,0,0.6023,,,,,,,,0,92,92,7,1
,,,,,,,,,,,,,,,,,5dd72606cb9dd66db5091b6b,36,2022-02-12_16h01.56.424,lexical_decision_task_DD_L3,2021.2.3,Win32,60.0240096,,,,,,,,,,,0.6876,1,,,,,,,,,,,,,,,,,,,,,,,,0.16015625,-0.390625,0,0,0,,,,,,,CARPET,HB,m,m,./images/CARPETHB.png,,,,,,,,,,,,,,,,,,,,,m,1,0.6876,,,,,,,,0,93,93,53,1
,,,,,,,,,,,,,,,,,5dd72606cb9dd66db5091b6b,36,2022-02-12_16h01.56.424,lexical_decision_task_DD_L3,2021.2.3,Win32,60.0240096,,,,,,,,,,,0.572,1,,,,,,,,,,,,,,,,,,,,,,,,0.16015625,-0.390625,0,0,0,,,,,,,PEARL,C,m,m,./images/PEARL.png,,,,,,,,,,,,,,,,,,,,,m,1,0.572,,,,,,,,0,94,94,46,1
,,,,,,,,,,,,,,,,,5dd72606cb9dd66db5091b6b,36,2022-02-12_16h01.56.424,lexical_decision_task_DD_L3,2021.2.3,Win32,60.0240096,,,,,,,,,,,0.665,1,,,,,,,,,,,,,,,,,,,,,,,,0.16015625,-0.390625,0,0,0,,,,,,,STREAM,HB,z,m,./images/STREAMHB.png,,,,,,,,,,,,,,,,,,,,,z,1,0.665,,,,,,,,0,95,95,125,1
,,,,,,,,,,,,,,,,,5dd72606cb9dd66db5091b6b,36,2022-02-12_16h01.56.424,lexical_decision_task_DD_L3,2021.2.3,Win32,60.0240096,,,,,,,,,,,0.5707,1,,,,,,,,,,,,,,,,,,,,,,,,0.16015625,-0.390625,0,0,0,,,,,,,WAGON,C,z,m,./images/WAGON.png,,,,,,,,,,,,,,,,,,,,,z,1,0.5707,,,,,,,,0,96,96,91,1
,,,,,,,,,,,,,,,,,5dd72606cb9dd66db5091b6b,36,2022-02-12_16h01.56.424,lexical_decision_task_DD_L3,2021.2.3,Win32,60.0240096,,,,,,,,,,,0.5486,1,,,,,,,,,,,,,,,,,,,,,,,,0.16015625,-0.390625,0,0,0,,,,,,,CLOUD,HB,z,m,./images/CLOUDHB.png,,,,,,,,,,,,,,,,,,,,,z,1,0.5486,,,,,,,,0,97,97,110,1
,,,,,,,,,,,,,,,,,5dd72606cb9dd66db5091b6b,36,2022-02-12_16h01.56.424,lexical_decision_task_DD_L3,2021.2.3,Win32,60.0240096,,,,,,,,,,,0.635,1,,,,,,,,,,,,,,,,,,,,,,,,0.16015625,-0.390625,0,0,0,,,,,,,GREASE,LB,m,m,./images/GREASELB.png,,,,,,,,,,,,,,,,,,,,,m,1,0.635,,,,,,,,0,98,98,15,1
,,,,,,,,,,,,,,,,,5dd72606cb9dd66db5091b6b,36,2022-02-12_16h01.56.424,lexical_decision_task_DD_L3,2021.2.3,Win32,60.0240096,,,,,,,,,,,0.8442,1,,,,,,,,,,,,,,,,,,,,,,,,0.16015625,-0.390625,0,0,0,,,,,,,BABOON,C,m,m,./images/BABOON.png,,,,,,,,,,,,,,,,,,,,,m,1,0.8442,,,,,,,,0,99,99,58,1
,,,,,,,,,,,,,,,,,5dd72606cb9dd66db5091b6b,36,2022-02-12_16h01.56.424,lexical_decision_task_DD_L3,2021.2.3,Win32,60.0240096,,,,,,,,,,,0.5986,1,,,,,,,,,,,,,,,,,,,,,,,,0.16015625,-0.390625,0,0,0,,,,,,,TIGER,C,z,m,./images/TIGER.png,,,,,,,,,,,,,,,,,,,,,z,1,0.5986,,,,,,,,0,100,100,121,1
,,,,,,,,,,,,,,,,,5dd72606cb9dd66db5091b6b,36,2022-02-12_16h01.56.424,lexical_decision_task_DD_L3,2021.2.3,Win32,60.0240096,,,,,,,,,,,0.6995,0,,,,,,,,,,,,,,,,,,,,,,,,0.16015625,-0.390625,0,0,0,,,,,,,SNACK,C,m,m,./images/SNACK.png,,,,,,,,,,,,,,,,,,,,,z,0,0.6995,,,,,,,,0,101,101,73,1
,,,,,,,,,,,,,,,,,5dd72606cb9dd66db5091b6b,36,2022-02-12_16h01.56.424,lexical_decision_task_DD_L3,2021.2.3,Win32,60.0240096,,,,,,,,,,,0.5994,1,,,,,,,,,,,,,,,,,,,,,,,,0.16015625,-0.390625,0,0,0,,,,,,,MOOSE,LB,m,m,./images/MOOSELB.png,,,,,,,,,,,,,,,,,,,,,m,1,0.5994,,,,,,,,0,102,102,57,1
,,,,,,,,,,,,,,,,,5dd72606cb9dd66db5091b6b,36,2022-02-12_16h01.56.424,lexical_decision_task_DD_L3,2021.2.3,Win32,60.0240096,,,,,,,,,,,0.637,1,,,,,,,,,,,,,,,,,,,,,,,,0.16015625,-0.390625,0,0,0,,,,,,,ENGINE,HB,z,m,./images/ENGINEHB.png,,,,,,,,,,,,,,,,,,,,,z,1,0.637,,,,,,,,0,103,103,122,1
,,,,,,,,,,,,,,,,,5dd72606cb9dd66db5091b6b,36,2022-02-12_16h01.56.424,lexical_decision_task_DD_L3,2021.2.3,Win32,60.0240096,,,,,,,,,,,0.6172,1,,,,,,,,,,,,,,,,,,,,,,,,0.16015625,-0.390625,0,0,0,,,,,,,DOUGH,C,m,m,./images/DOUGH.png,,,,,,,,,,,,,,,,,,,,,m,1,0.6172,,,,,,,,0,104,104,19,1
,,,,,,,,,,,,,,,,,5dd72606cb9dd66db5091b6b,36,2022-02-12_16h01.56.424,lexical_decision_task_DD_L3,2021.2.3,Win32,60.0240096,,,,,,,,,,,0.5741,1,,,,,,,,,,,,,,,,,,,,,,,,0.16015625,-0.390625,0,0,0,,,,,,,WALNUT,LB,z,m,./images/WALNUTLB.png,,,,,,,,,,,,,,,,,,,,,z,1,0.5741,,,,,,,,0,105,105,84,1
,,,,,,,,,,,,,,,,,5dd72606cb9dd66db5091b6b,36,2022-02-12_16h01.56.424,lexical_decision_task_DD_L3,2021.2.3,Win32,60.0240096,,,,,,,,,,,0.6048,1,,,,,,,,,,,,,,,,,,,,,,,,0.16015625,-0.390625,0,0,0,,,,,,,LITTER,LB,m,m,./images/LITTERLB.png,,,,,,,,,,,,,,,,,,,,,m,1,0.6048,,,,,,,,0,106,106,78,1
,,,,,,,,,,,,,,,,,5dd72606cb9dd66db5091b6b,36,2022-02-12_16h01.56.424,lexical_decision_task_DD_L3,2021.2.3,Win32,60.0240096,,,,,,,,,,,0.6599,1,,,,,,,,,,,,,,,,,,,,,,,,0.16015625,-0.390625,0,0,0,,,,,,,SAUCE,LB,z,m,./images/SAUCELB.png,,,,,,,,,,,,,,,,,,,,,z,1,0.6599,,,,,,,,0,107,107,135,1
,,,,,,,,,,,,,,,,,5dd72606cb9dd66db5091b6b,36,2022-02-12_16h01.56.424,lexical_decision_task_DD_L3,2021.2.3,Win32,60.0240096,,,,,,,,,,,0.7581,1,,,,,,,,,,,,,,,,,,,,,,,,0.16015625,-0.390625,0,0,0,,,,,,,WALRUS,HB,m,m,./images/WALRUSHB.png,,,,,,,,,,,,,,,,,,,,,m,1,0.7581,,,,,,,,0,108,108,23,1
,,,,,,,,,,,,,,,,,5dd72606cb9dd66db5091b6b,36,2022-02-12_16h01.56.424,lexical_decision_task_DD_L3,2021.2.3,Win32,60.0240096,,,,,,,,,,,0.6366,1,,,,,,,,,,,,,,,,,,,,,,,,0.16015625,-0.390625,0,0,0,,,,,,,MUFFIN,C,m,m,./images/MUFFIN.png,,,,,,,,,,,,,,,,,,,,,m,1,0.6366,,,,,,,,0,109,109,55,1
,,,,,,,,,,,,,,,,,5dd72606cb9dd66db5091b6b,36,2022-02-12_16h01.56.424,lexical_decision_task_DD_L3,2021.2.3,Win32,60.0240096,,,,,,,,,,,0.582,1,,,,,,,,,,,,,,,,,,,,,,,,0.16015625,-0.390625,0,0,0,,,,,,,PLANET,HB,z,m,./images/PLANETHB.png,,,,,,,,,,,,,,,,,,,,,z,1,0.582,,,,,,,,0,110,110,164,1
,,,,,,,,,,,,,,,,,5dd72606cb9dd66db5091b6b,36,2022-02-12_16h01.56.424,lexical_decision_task_DD_L3,2021.2.3,Win32,60.0240096,,,,,,,,,,,0.6322,1,,,,,,,,,,,,,,,,,,,,,,,,0.16015625,-0.390625,0,0,0,,,,,,,URINE,C,m,m,./images/URINE.png,,,,,,,,,,,,,,,,,,,,,m,1,0.6322,,,,,,,,0,111,111,70,1
,,,,,,,,,,,,,,,,,5dd72606cb9dd66db5091b6b,36,2022-02-12_16h01.56.424,lexical_decision_task_DD_L3,2021.2.3,Win32,60.0240096,,,,,,,,,,,0.7004,1,,,,,,,,,,,,,,,,,,,,,,,,0.16015625,-0.390625,0,0,0,,,,,,,DRUMS,C,m,m,./images/DRUMS.png,,,,,,,,,,,,,,,,,,,,,m,1,0.7004,,,,,,,,0,112,112,49,1
,,,,,,,,,,,,,,,,,5dd72606cb9dd66db5091b6b,36,2022-02-12_16h01.56.424,lexical_decision_task_DD_L3,2021.2.3,Win32,60.0240096,,,,,,,,,,,0.6024,1,,,,,,,,,,,,,,,,,,,,,,,,0.16015625,-0.390625,0,0,0,,,,,,,PLANK,C,m,m,./images/PLANK.png,,,,,,,,,,,,,,,,,,,,,m,1,0.6024,,,,,,,,0,113,113,1,1
,,,,,,,,,,,,,,,,,5dd72606cb9dd66db5091b6b,36,2022-02-12_16h01.56.424,lexical_decision_task_DD_L3,2021.2.3,Win32,60.0240096,,,,,,,,,,,0.748,0,,,,,,,,,,,,,,,,,,,,,,,,0.16015625,-0.390625,0,0,0,,,,,,,MUSCLE,C,m,m,./images/MUSCLE.png,,,,,,,,,,,,,,,,,,,,,z,0,0.748,,,,,,,,0,114,114,4,1
,,,,,,,,,,,,,,,,,5dd72606cb9dd66db5091b6b,36,2022-02-12_16h01.56.424,lexical_decision_task_DD_L3,2021.2.3,Win32,60.0240096,,,,,,,,,,,0.5714,1,,,,,,,,,,,,,,,,,,,,,,,,0.16015625,-0.390625,0,0,0,,,,,,,BONNET,HB,m,m,./images/BONNETHB.png,,,,,,,,,,,,,,,,,,,,,m,1,0.5714,,,,,,,,0,115,115,11,1
,,,,,,,,,,,,,,,,,5dd72606cb9dd66db5091b6b,36,2022-02-12_16h01.56.424,lexical_decision_task_DD_L3,2021.2.3,Win32,60.0240096,,,,,,,,,,,0.6595,0,,,,,,,,,,,,,,,,,,,,,,,,0.16015625,-0.390625,0,0,0,,,,,,,TOMATO,LB,m,m,./images/TOMATOLB.png,,,,,,,,,,,,,,,,,,,,,z,0,0.6595,,,,,,,,0,116,116,0,1
,,,,,,,,,,,,,,,,,5dd72606cb9dd66db5091b6b,36,2022-02-12_16h01.56.424,lexical_decision_task_DD_L3,2021.2.3,Win32,60.0240096,,,,,,,,,,,0.6149,0,,,,,,,,,,,,,,,,,,,,,,,,0.16015625,-0.390625,0,0,0,,,,,,,ATTIC,LB,m,m,./images/ATTICLB.png,,,,,,,,,,,,,,,,,,,,,z,0,0.6149,,,,,,,,0,117,117,27,1
,,,,,,,,,,,,,,,,,5dd72606cb9dd66db5091b6b,36,2022-02-12_16h01.56.424,lexical_decision_task_DD_L3,2021.2.3,Win32,60.0240096,,,,,,,,,,,1.0567,1,,,,,,,,,,,,,,,,,,,,,,,,0.16015625,-0.390625,0,0,0,,,,,,,CEMENT,HB,m,m,./images/CEMENTHB.png,,,,,,,,,,,,,,,,,,,,,m,1,1.0567,,,,,,,,0,118,118,74,1
,,,,,,,,,,,,,,,,,5dd72606cb9dd66db5091b6b,36,2022-02-12_16h01.56.424,lexical_decision_task_DD_L3,2021.2.3,Win32,60.0240096,,,,,,,,,,,0.8149,1,,,,,,,,,,,,,,,,,,,,,,,,0.16015625,-0.390625,0,0,0,,,,,,,NOOSE,LB,m,m,./images/NOOSELB.png,,,,,,,,,,,,,,,,,,,,,m,1,0.8149,,,,,,,,0,119,119,72,1
,,,,,,,,,,,,,,,,,5dd72606cb9dd66db5091b6b,36,2022-02-12_16h01.56.424,lexical_decision_task_DD_L3,2021.2.3,Win32,60.0240096,,,,,,,,,,,0.6683,1,,,,,,,,,,,,,,,,,,,,,,,,0.16015625,-0.390625,0,0,0,,,,,,,STEAK,C,z,m,./images/STEAK.png,,,,,,,,,,,,,,,,,,,,,z,1,0.6683,,,,,,,,0,120,120,115,1
,,,,,,,,,,,,,,,,,5dd72606cb9dd66db5091b6b,36,2022-02-12_16h01.56.424,lexical_decision_task_DD_L3,2021.2.3,Win32,60.0240096,,,,,,,,,,,0.798,0,,,,,,,,,,,,,,,,,,,,,,,,0.16015625,-0.390625,0,0,0,,,,,,,SHELF,LB,m,m,./images/SHELFLB.png,,,,,,,,,,,,,,,,,,,,,z,0,0.798,,,,,,,,0,121,121,39,1
,,,,,,,,,,,,,,,,,5dd72606cb9dd66db5091b6b,36,2022-02-12_16h01.56.424,lexical_decision_task_DD_L3,2021.2.3,Win32,60.0240096,,,,,,,,,,,0.7812,1,,,,,,,,,,,,,,,,,,,,,,,,0.16015625,-0.390625,0,0,0,,,,,,,WRIST,C,m,m,./images/WRIST.png,,,,,,,,,,,,,,,,,,,,,m,1,0.7812,,,,,,,,0,122,122,25,1
,,,,,,,,,,,,,,,,,5dd72606cb9dd66db5091b6b,36,2022-02-12_16h01.56.424,lexical_decision_task_DD_L3,2021.2.3,Win32,60.0240096,,,,,,,,,,,0.6072,1,,,,,,,,,,,,,,,,,,,,,,,,0.16015625,-0.390625,0,0,0,,,,,,,PIMPLE,HB,m,m,./images/PIMPLEHB.png,,,,,,,,,,,,,,,,,,,,,m,1,0.6072,,,,,,,,0,123,123,71,1
,,,,,,,,,,,,,,,,,5dd72606cb9dd66db5091b6b,36,2022-02-12_16h01.56.424,lexical_decision_task_DD_L3,2021.2.3,Win32,60.0240096,,,,,,,,,,,0.6058,1,,,,,,,,,,,,,,,,,,,,,,,,0.16015625,-0.390625,0,0,0,,,,,,,FLESH,LB,z,m,./images/FLESHLB.png,,,,,,,,,,,,,,,,,,,,,z,1,0.6058,,,,,,,,0,124,124,108,1
,,,,,,,,,,,,,,,,,5dd72606cb9dd66db5091b6b,36,2022-02-12_16h01.56.424,lexical_decision_task_DD_L3,2021.2.3,Win32,60.0240096,,,,,,,,,,,0.9647,1,,,,,,,,,,,,,,,,,,,,,,,,0.16015625,-0.390625,0,0,0,space,,,,,,SMOKER,HB,m,m,./images/SMOKERHB.png,4.4484,,,,,,,,,,,,,,,,,,,,m,1,0.9647,,,,,,,,0,125,125,26,1
,,,,,,,,,,,,,,,,,5dd72606cb9dd66db5091b6b,36,2022-02-12_16h01.56.424,lexical_decision_task_DD_L3,2021.2.3,Win32,60.0240096,,,,,,,,,,,0.6486,1,,,,,,,,,,,,,,,,,,,,,,,,0.16015625,-0.390625,0,0,0,,,,,,,FINGER,LB,m,m,./images/FINGERLB.png,,,,,,,,,,,,,,,,,,,,,m,1,0.6486,,,,,,,,0,126,126,3,1
,,,,,,,,,,,,,,,,,5dd72606cb9dd66db5091b6b,36,2022-02-12_16h01.56.424,lexical_decision_task_DD_L3,2021.2.3,Win32,60.0240096,,,,,,,,,,,0.5682,1,,,,,,,,,,,,,,,,,,,,,,,,0.16015625,-0.390625,0,0,0,,,,,,,GLOVE,C,z,m,./images/GLOVE.png,,,,,,,,,,,,,,,,,,,,,z,1,0.5682,,,,,,,,0,127,127,157,1
,,,,,,,,,,,,,,,,,5dd72606cb9dd66db5091b6b,36,2022-02-12_16h01.56.424,lexical_decision_task_DD_L3,2021.2.3,Win32,60.0240096,,,,,,,,,,,0.6251,1,,,,,,,,,,,,,,,,,,,,,,,,0.16015625,-0.390625,0,0,0,,,,,,,GARDEN,C,z,m,./images/GARDEN.png,,,,,,,,,,,,,,,,,,,,,z,1,0.6251,,,,,,,,0,128,128,94,1
,,,,,,,,,,,,,,,,,5dd72606cb9dd66db5091b6b,36,2022-02-12_16h01.56.424,lexical_decision_task_DD_L3,2021.2.3,Win32,60.0240096,,,,,,,,,,,0.6354,1,,,,,,,,,,,,,,,,,,,,,,,,0.16015625,-0.390625,0,0,0,,,,,,,BUTTER,LB,z,m,./images/BUTTERLB.png,,,,,,,,,,,,,,,,,,,,,z,1,0.6354,,,,,,,,0,129,129,111,1
,,,,,,,,,,,,,,,,,5dd72606cb9dd66db5091b6b,36,2022-02-12_16h01.56.424,lexical_decision_task_DD_L3,2021.2.3,Win32,60.0240096,,,,,,,,,,,0.6406,1,,,,,,,,,,,,,,,,,,,,,,,,0.16015625,-0.390625,0,0,0,,,,,,,GRANNY,HB,z,m,./images/GRANNYHB.png,,,,,,,,,,,,,,,,,,,,,z,1,0.6406,,,,,,,,0,130,130,104,1
,,,,,,,,,,,,,,,,,5dd72606cb9dd66db5091b6b,36,2022-02-12_16h01.56.424,lexical_decision_task_DD_L3,2021.2.3,Win32,60.0240096,,,,,,,,,,,0.5878,1,,,,,,,,,,,,,,,,,,,,,,,,0.16015625,-0.390625,0,0,0,,,,,,,GRAPE,C,z,m,./images/GRAPE.png,,,,,,,,,,,,,,,,,,,,,z,1,0.5878,,,,,,,,0,131,131,100,1
,,,,,,,,,,,,,,,,,5dd72606cb9dd66db5091b6b,36,2022-02-12_16h01.56.424,lexical_decision_task_DD_L3,2021.2.3,Win32,60.0240096,,,,,,,,,,,1.1953,0,,,,,,,,,,,,,,,,,,,,,,,,0.16015625,-0.390625,0,0,0,,,,,,,SWEAT,LB,m,m,./images/SWEATLB.png,,,,,,,,,,,,,,,,,,,,,z,0,1.1953,,,,,,,,0,132,132,66,1
,,,,,,,,,,,,,,,,,5dd72606cb9dd66db5091b6b,36,2022-02-12_16h01.56.424,lexical_decision_task_DD_L3,2021.2.3,Win32,60.0240096,,,,,,,,,,,0.5981,1,,,,,,,,,,,,,,,,,,,,,,,,0.16015625,-0.390625,0,0,0,,,,,,,SAUNA,LB,z,m,./images/SAUNALB.png,,,,,,,,,,,,,,,,,,,,,z,1,0.5981,,,,,,,,0,133,133,117,1
,,,,,,,,,,,,,,,,,5dd72606cb9dd66db5091b6b,36,2022-02-12_16h01.56.424,lexical_decision_task_DD_L3,2021.2.3,Win32,60.0240096,,,,,,,,,,,0.7452,1,,,,,,,,,,,,,,,,,,,,,,,,0.16015625,-0.390625,0,0,0,,,,,,,SLOPE,LB,z,m,./images/SLOPELB.png,,,,,,,,,,,,,,,,,,,,,z,1,0.7452,,,,,,,,0,134,134,114,1
