key_resp.keys,key_resp.rt,instr_done_touch.x,instr_done_touch.y,instr_done_touch.leftButton,instr_done_touch.midButton,instr_done_touch.rightButton,instruction_pages.thisRepN,instruction_pages.thisTrialN,instruction_pages.thisN,instruction_pages.thisIndex,instruction_pages.ran,pageN,phase,instruct_text,has_image,instruct_image,participant,age,date,expName,psychopyVersion,OS,frameRate,response.keys,response.corr,response.rt,touch_resp.x,touch_resp.y,touch_resp.leftButton,touch_resp.midButton,touch_resp.rightButton,touch_resp.time,touch_resp.clicked_name,rt,corr,practrials.thisRepN,practrials.thisTrialN,practrials.thisN,practrials.thisIndex,practrials.ran,TrialID,Target,corrAns,end_of_practice_trials_pages.thisRepN,end_of_practice_trials_pages.thisTrialN,end_of_practice_trials_pages.thisN,end_of_practice_trials_pages.thisIndex,end_of_practice_trials_pages.ran,key_resp_2.keys,key_resp_2.corr,key_resp_2.rt,targ_click.x,targ_click.y,targ_click.leftButton,targ_click.midButton,targ_click.rightButton,targ_click.time,targ_click.clicked_name,break_done_touch.x,break_done_touch.y,break_done_touch.leftButton,break_done_touch.midButton,break_done_touch.rightButton,break_done_keyboard.keys,maintrials.thisRepN,maintrials.thisTrialN,maintrials.thisN,maintrials.thisIndex,maintrials.ran,string,blur,study,lex,stim_path,break_done_keyboard.rt,mouse_2.x,mouse_2.y,mouse_2.leftButton,mouse_2.midButton,mouse_2.rightButton,mouse_2.clicked_name,slider.response,slider.rt,trials.thisRepN,trials.thisTrialN,trials.thisN,trials.thisIndex,trials.ran,instr_done_touch.clicked_name,test_instructions.thisRepN,test_instructions.thisTrialN,test_instructions.thisN,test_instructions.thisIndex,test_instructions.ran,key_resp_3.keys,key_resp_3.corr,key_resp_3.rt,test_click.x,test_click.y,test_click.leftButton,test_click.midButton,test_click.rightButton,test_click.time,test_click.clicked_name,test_phase.thisRepN,test_phase.thisTrialN,test_phase.thisN,test_phase.thisIndex,test_phase.ran
space,30.291,0.22265625,-0.0703125,0,0,0,0,0,0,0,1,1,instructions,"INSTRUCTIONS
At the start of each trial, look at the plus sign  (+) in the center of the screen.  This tells you that a trial is about to begin and where to look. Second, the plus sign will disappear and a string of letters will appear. Your task is to determine if the string of letters is a word or not. If the item is a word press the M key (on keyboard)  or touch the word button (phone/tablet).  If the item is not a word,  press the  Z key (on keyboard)  or touch the nonword button (on phone/tablet). 
Press the space bar or touch  continue.",0,,5e0f69380fb798000a199566,,2022-02-12_16h45.18.318,lexical_decision_task_DD_L6,2021.2.3,Win32,60.0240096,,,,,,,,,,,,,,,,,,,,,,,,,,,,,,,,,,,,,,,,,,,,,,,,,,,,,,,,,,,,,,,,,,,,,,,,,,,,,,,,,,,,,,
space,12.609,0.22265625,-0.0703125,0,0,0,0,1,1,1,1,2,instructions,"If your device has a keyboard, press the 'Z' key for nonwords and the 'M' key for words.





Press the space bar or touch the button below to continue.",0,keyboard-example.gif,5e0f69380fb798000a199566,,2022-02-12_16h45.18.318,lexical_decision_task_DD_L6,2021.2.3,Win32,60.0240096,,,,,,,,,,,,,,,,,,,,,,,,,,,,,,,,,,,,,,,,,,,,,,,,,,,,,,,,,,,,,,,,,,,,,,,,,,,,,,,,,,,,,,
space,6.57,0.22265625,-0.0703125,0,0,0,0,2,2,2,1,3,instructions,"If you are using a touchscreen only device, use the buttons on the screen. Do not use the mouse.





Press the space bar or touch the button below to continue.",0,touchscreen-example.gif,5e0f69380fb798000a199566,,2022-02-12_16h45.18.318,lexical_decision_task_DD_L6,2021.2.3,Win32,60.0240096,,,,,,,,,,,,,,,,,,,,,,,,,,,,,,,,,,,,,,,,,,,,,,,,,,,,,,,,,,,,,,,,,,,,,,,,,,,,,,,,,,,,,,
space,11.932,0.22265625,-0.0703125,0,0,0,0,3,3,3,1,4,instructions,"It is very important that you respond as quickly and accurately as possible, as each letter string will only be on the screen for two seconds. If you do not respond within this time, the message 'Too slow!' will be displayed and the experiment will progress to the next letter string. The first 20 trials will be practice trials and you will receive feedback on your answers. 

Press the space bar or touch the button below to start the practice trials.",0,,5e0f69380fb798000a199566,,2022-02-12_16h45.18.318,lexical_decision_task_DD_L6,2021.2.3,Win32,60.0240096,,,,,,,,,,,,,,,,,,,,,,,,,,,,,,,,,,,,,,,,,,,,,,,,,,,,,,,,,,,,,,,,,,,,,,,,,,,,,,,,,,,,,,
,,,,,,,,,,,,,,,,,5e0f69380fb798000a199566,,2022-02-12_16h45.18.318,lexical_decision_task_DD_L6,2021.2.3,Win32,60.0240096,m,1,0.815,,,,,,,,0.815,1,0,0,0,2,1,1001,ALMOND,m,,,,,,,,,,,,,,,,,,,,,,,,,,,,,,,,,,,,,,,,,,,,,,,,,,,,,,,,,,,,,,,,,,
,,,,,,,,,,,,,,,,,5e0f69380fb798000a199566,,2022-02-12_16h45.18.318,lexical_decision_task_DD_L6,2021.2.3,Win32,60.0240096,z,1,2.344,0.235213205,-0.102475928,1,0,0,2.189,,2.344,1,0,1,1,13,1,1001,ROUPET,z,,,,,,,,,,,,,,,,,,,,,,,,,,,,,,,,,,,,,,,,,,,,,,,,,,,,,,,,,,,,,,,,,,
,,,,,,,,,,,,,,,,,5e0f69380fb798000a199566,,2022-02-12_16h45.18.318,lexical_decision_task_DD_L6,2021.2.3,Win32,60.0240096,z,1,0.968,,,,,,,,0.968,1,0,2,2,14,1,1001,THRALE,z,,,,,,,,,,,,,,,,,,,,,,,,,,,,,,,,,,,,,,,,,,,,,,,,,,,,,,,,,,,,,,,,,,
,,,,,,,,,,,,,,,,,5e0f69380fb798000a199566,,2022-02-12_16h45.18.318,lexical_decision_task_DD_L6,2021.2.3,Win32,60.0240096,m,0,1.023,0.198074278,-0.090096286,1,0,0,1.03,,1.023,0,0,3,3,11,1,1001,RASHET,z,,,,,,,,,,,,,,,,,,,,,,,,,,,,,,,,,,,,,,,,,,,,,,,,,,,,,,,,,,,,,,,,,,
,,,,,,,,,,,,,,,,,5e0f69380fb798000a199566,,2022-02-12_16h45.18.318,lexical_decision_task_DD_L6,2021.2.3,Win32,60.0240096,m,1,5.316,0.198074278,-0.090096286,1,0,0,1.798,,5.316,1,0,4,4,3,1,1001,MATRIX,m,,,,,,,,,,,,,,,,,,,,,,,,,,,,,,,,,,,,,,,,,,,,,,,,,,,,,,,,,,,,,,,,,,
,,,,,,,,,,,,,,,,,5e0f69380fb798000a199566,,2022-02-12_16h45.18.318,lexical_decision_task_DD_L6,2021.2.3,Win32,60.0240096,m,0,1.411,,,,,,,,1.411,0,0,5,5,10,1,1001,INLADE,z,,,,,,,,,,,,,,,,,,,,,,,,,,,,,,,,,,,,,,,,,,,,,,,,,,,,,,,,,,,,,,,,,,
,,,,,,,,,,,,,,,,,5e0f69380fb798000a199566,,2022-02-12_16h45.18.318,lexical_decision_task_DD_L6,2021.2.3,Win32,60.0240096,z,1,1.664,,,,,,,,1.664,1,0,6,6,9,1,1001,FARINY,z,,,,,,,,,,,,,,,,,,,,,,,,,,,,,,,,,,,,,,,,,,,,,,,,,,,,,,,,,,,,,,,,,,
,,,,,,,,,,,,,,,,,5e0f69380fb798000a199566,,2022-02-12_16h45.18.318,lexical_decision_task_DD_L6,2021.2.3,Win32,60.0240096,m,1,1.414,,,,,,,,1.414,1,0,7,7,1,1,1001,ADJUST,m,,,,,,,,,,,,,,,,,,,,,,,,,,,,,,,,,,,,,,,,,,,,,,,,,,,,,,,,,,,,,,,,,,
,,,,,,,,,,,,,,,,,5e0f69380fb798000a199566,,2022-02-12_16h45.18.318,lexical_decision_task_DD_L6,2021.2.3,Win32,60.0240096,m,1,0.605,,,,,,,,0.605,1,0,8,8,5,1,1001,OBTAIN,m,,,,,,,,,,,,,,,,,,,,,,,,,,,,,,,,,,,,,,,,,,,,,,,,,,,,,,,,,,,,,,,,,,
,,,,,,,,,,,,,,,,,5e0f69380fb798000a199566,,2022-02-12_16h45.18.318,lexical_decision_task_DD_L6,2021.2.3,Win32,60.0240096,m,0,0.948,-0.057771664,-0.099724897,1,0,0,0.664,,0.948,0,0,9,9,12,1,1001,SPRINY,z,,,,,,,,,,,,,,,,,,,,,,,,,,,,,,,,,,,,,,,,,,,,,,,,,,,,,,,,,,,,,,,,,,
,,,,,,,,,,,,,,,,,5e0f69380fb798000a199566,,2022-02-12_16h45.18.318,lexical_decision_task_DD_L6,2021.2.3,Win32,60.0240096,m,1,0.574,,,,,,,,0.574,1,0,10,10,7,1,1001,VOLUME,m,,,,,,,,,,,,,,,,,,,,,,,,,,,,,,,,,,,,,,,,,,,,,,,,,,,,,,,,,,,,,,,,,,
,,,,,,,,,,,,,,,,,5e0f69380fb798000a199566,,2022-02-12_16h45.18.318,lexical_decision_task_DD_L6,2021.2.3,Win32,60.0240096,m,1,1.168,-0.057771664,-0.099724897,1,0,0,0.577,,1.168,1,0,11,11,6,1,1001,ZOMBIE,m,,,,,,,,,,,,,,,,,,,,,,,,,,,,,,,,,,,,,,,,,,,,,,,,,,,,,,,,,,,,,,,,,,
,,,,,,,,,,,,,,,,,5e0f69380fb798000a199566,,2022-02-12_16h45.18.318,lexical_decision_task_DD_L6,2021.2.3,Win32,60.0240096,z,1,1.292,-0.057771664,-0.099724897,1,0,0,0.511,,1.292,1,0,12,12,15,1,1001,WHAISE,z,,,,,,,,,,,,,,,,,,,,,,,,,,,,,,,,,,,,,,,,,,,,,,,,,,,,,,,,,,,,,,,,,,
,,,,,,,,,,,,,,,,,5e0f69380fb798000a199566,,2022-02-12_16h45.18.318,lexical_decision_task_DD_L6,2021.2.3,Win32,60.0240096,m,1,1.638,,,,,,,,1.638,1,0,13,13,4,1,1001,SQUEAK,m,,,,,,,,,,,,,,,,,,,,,,,,,,,,,,,,,,,,,,,,,,,,,,,,,,,,,,,,,,,,,,,,,,
,,,,,,,,,,,,,,,,,5e0f69380fb798000a199566,,2022-02-12_16h45.18.318,lexical_decision_task_DD_L6,2021.2.3,Win32,60.0240096,z,1,1.468,-0.057771664,-0.099724897,1,0,0,0.598,,1.468,1,0,14,14,8,1,1001,ASLERT,z,,,,,,,,,,,,,,,,,,,,,,,,,,,,,,,,,,,,,,,,,,,,,,,,,,,,,,,,,,,,,,,,,,
,,,,,,,,,,,,,,,,,5e0f69380fb798000a199566,,2022-02-12_16h45.18.318,lexical_decision_task_DD_L6,2021.2.3,Win32,60.0240096,z,0,1.114,-0.057771664,-0.099724897,1,0,0,0.963,,1.114,0,0,15,15,0,1,1001,UTOPIA,m,,,,,,,,,,,,,,,,,,,,,,,,,,,,,,,,,,,,,,,,,,,,,,,,,,,,,,,,,,,,,,,,,,
space,48.404,-0.048177083,-0.182291667,0,0,0,,,,,,1,end_of_practice,"You have completed the practice trials. During the experimental trials, you will not receive feedback. 
Before you begin, please ensure that you are in a comfortable and quiet location and will not be disturbed for about 15 minutes, as we cannot use your data if you do not complete all the trials. 
 When you are ready to start the experimental trials, please press space or touch the button below.",,,5e0f69380fb798000a199566,,2022-02-12_16h45.18.318,lexical_decision_task_DD_L6,2021.2.3,Win32,60.0240096,,,,,,,,,,,,,,,,,,,,,0,0,0,0,1,,,,,,,,,,,,,,,,,,,,,,,,,,,,,,,,,,,,,,,,,,,,,,,,,,,,,,,,,,,,,
,,,,,,,,,,,,,,,,,5e0f69380fb798000a199566,,2022-02-12_16h45.18.318,lexical_decision_task_DD_L6,2021.2.3,Win32,60.0240096,,,,,,,,,,,1.649,1,,,,,,,,,,,,,,z,1,1.649,,,,,,,,-0.048177083,-0.182291667,0,0,0,,0,0,0,98,1,BAMPS,LB,z,z,./images/BAMPSLB.png,,,,,,,,,,,,,,,,,,,,,,,,,,,,,,,,,,,
,,,,,,,,,,,,,,,,,5e0f69380fb798000a199566,,2022-02-12_16h45.18.318,lexical_decision_task_DD_L6,2021.2.3,Win32,60.0240096,,,,,,,,,,,2.016,0,,,,,,,,,,,,,,m,0,2.016,-0.104539202,-0.204264099,1,0,0,1.579,,-0.107290234,-0.207015131,0,0,0,,0,1,1,125,1,MOOKY,LB,z,z,./images/MOOKYLB.png,,,,,,,,,,,,,,,,,,,,,,,,,,,,,,,,,,,
,,,,,,,,,,,,,,,,,5e0f69380fb798000a199566,,2022-02-12_16h45.18.318,lexical_decision_task_DD_L6,2021.2.3,Win32,60.0240096,,,,,,,,,,,1.641,1,,,,,,,,,,,,,,z,1,1.641,-0.107290234,-0.207015131,1,0,0,1.147,,-0.107290234,-0.207015131,0,0,0,,0,2,2,95,1,HANTY,LB,z,z,./images/HANTYLB.png,,,,,,,,,,,,,,,,,,,,,,,,,,,,,,,,,,,
,,,,,,,,,,,,,,,,,5e0f69380fb798000a199566,,2022-02-12_16h45.18.318,lexical_decision_task_DD_L6,2021.2.3,Win32,60.0240096,,,,,,,,,,,0.901,1,,,,,,,,,,,,,,z,1,0.901,,,,,,,,-0.10866575,-0.207015131,0,0,0,,0,3,3,140,1,DOVET,LB,z,z,./images/DOVETLB.png,,,,,,,,,,,,,,,,,,,,,,,,,,,,,,,,,,,
,,,,,,,,,,,,,,,,,5e0f69380fb798000a199566,,2022-02-12_16h45.18.318,lexical_decision_task_DD_L6,2021.2.3,Win32,60.0240096,,,,,,,,,,,1.73,1,,,,,,,,,,,,,,m,1,1.73,-0.10866575,-0.207015131,1,0,0,1.114,,-0.10866575,-0.207015131,0,0,0,,0,4,4,8,1,CLIFF,HB,m,m,./images/CLIFFHB.png,,,,,,,,,,,,,,,,,,,,,,,,,,,,,,,,,,,
,,,,,,,,,,,,,,,,,5e0f69380fb798000a199566,,2022-02-12_16h45.18.318,lexical_decision_task_DD_L6,2021.2.3,Win32,60.0240096,,,,,,,,,,,1.618,1,,,,,,,,,,,,,,m,1,1.618,-0.10866575,-0.207015131,1,0,0,1.497,,-0.10866575,-0.207015131,0,0,0,,0,5,5,20,1,GRANNY,HB,m,m,./images/GRANNYHB.png,,,,,,,,,,,,,,,,,,,,,,,,,,,,,,,,,,,
,,,,,,,,,,,,,,,,,5e0f69380fb798000a199566,,2022-02-12_16h45.18.318,lexical_decision_task_DD_L6,2021.2.3,Win32,60.0240096,,,,,,,,,,,1.406,0,,,,,,,,,,,,,,m,0,1.406,-0.10866575,-0.207015131,1,0,0,0.648,,-0.10866575,-0.207015131,0,0,0,,0,6,6,142,1,PLASK,HB,z,z,./images/PLASKHB.png,,,,,,,,,,,,,,,,,,,,,,,,,,,,,,,,,,,
,,,,,,,,,,,,,,,,,5e0f69380fb798000a199566,,2022-02-12_16h45.18.318,lexical_decision_task_DD_L6,2021.2.3,Win32,60.0240096,,,,,,,,,,,0.85,1,,,,,,,,,,,,,,m,1,0.85,-0.10866575,-0.207015131,1,0,0,0.764,,-0.10866575,-0.207015131,0,0,0,,0,7,7,42,1,CHAIN,LB,m,m,./images/CHAINLB.png,,,,,,,,,,,,,,,,,,,,,,,,,,,,,,,,,,,
,,,,,,,,,,,,,,,,,5e0f69380fb798000a199566,,2022-02-12_16h45.18.318,lexical_decision_task_DD_L6,2021.2.3,Win32,60.0240096,,,,,,,,,,,1.254,1,,,,,,,,,,,,,,z,1,1.254,-0.10866575,-0.207015131,1,0,0,0.347,,-0.10866575,-0.207015131,1,0,0,,0,8,8,164,1,SGREW,LB,z,z,./images/SGREWLB.png,,,,,,,,,,,,,,,,,,,,,,,,,,,,,,,,,,,
,,,,,,,,,,,,,,,,,5e0f69380fb798000a199566,,2022-02-12_16h45.18.318,lexical_decision_task_DD_L6,2021.2.3,Win32,60.0240096,,,,,,,,,,,1.092,1,,,,,,,,,,,,,,z,1,1.092,-0.10866575,-0.207015131,1,0,0,0.515,,-0.10866575,-0.207015131,0,0,0,,0,9,9,121,1,CEERS,HB,z,z,./images/CEERSHB.png,,,,,,,,,,,,,,,,,,,,,,,,,,,,,,,,,,,
,,,,,,,,,,,,,,,,,5e0f69380fb798000a199566,,2022-02-12_16h45.18.318,lexical_decision_task_DD_L6,2021.2.3,Win32,60.0240096,,,,,,,,,,,1.318,1,,,,,,,,,,,,,,m,1,1.318,-0.10866575,-0.207015131,1,0,0,0.914,,-0.10866575,-0.207015131,0,0,0,,0,10,10,9,1,DIVER,LB,m,m,./images/DIVERLB.png,,,,,,,,,,,,,,,,,,,,,,,,,,,,,,,,,,,
,,,,,,,,,,,,,,,,,5e0f69380fb798000a199566,,2022-02-12_16h45.18.318,lexical_decision_task_DD_L6,2021.2.3,Win32,60.0240096,,,,,,,,,,,1.596,1,,,,,,,,,,,,,,z,1,1.596,-0.10866575,-0.207015131,1,0,0,0.732,,-0.10866575,-0.207015131,0,0,0,,0,11,11,130,1,CRILL,HB,z,z,./images/CRILLHB.png,,,,,,,,,,,,,,,,,,,,,,,,,,,,,,,,,,,
,,,,,,,,,,,,,,,,,5e0f69380fb798000a199566,,2022-02-12_16h45.18.318,lexical_decision_task_DD_L6,2021.2.3,Win32,60.0240096,,,,,,,,,,,1.917,1,,,,,,,,,,,,,,z,1,1.917,-0.10866575,-0.207015131,1,0,0,1.082,,-0.10866575,-0.207015131,0,0,0,,0,12,12,96,1,KEAMS,C,z,z,./images/KEAMS.png,,,,,,,,,,,,,,,,,,,,,,,,,,,,,,,,,,,
,,,,,,,,,,,,,,,,,5e0f69380fb798000a199566,,2022-02-12_16h45.18.318,lexical_decision_task_DD_L6,2021.2.3,Win32,60.0240096,,,,,,,,,,,1.256,1,,,,,,,,,,,,,,m,1,1.256,-0.10866575,-0.207015131,1,0,0,1.042,,-0.10866575,-0.207015131,0,0,0,,0,13,13,22,1,CLOWN,C,m,m,./images/CLOWN.png,,,,,,,,,,,,,,,,,,,,,,,,,,,,,,,,,,,
,,,,,,,,,,,,,,,,,5e0f69380fb798000a199566,,2022-02-12_16h45.18.318,lexical_decision_task_DD_L6,2021.2.3,Win32,60.0240096,,,,,,,,,,,0.986,1,,,,,,,,,,,,,,m,1,0.986,-0.10866575,-0.207015131,1,0,0,0.097,,-0.10866575,-0.207015131,0,0,0,,0,14,14,81,1,DRILL,LB,m,m,./images/DRILLLB.png,,,,,,,,,,,,,,,,,,,,,,,,,,,,,,,,,,,
,,,,,,,,,,,,,,,,,5e0f69380fb798000a199566,,2022-02-12_16h45.18.318,lexical_decision_task_DD_L6,2021.2.3,Win32,60.0240096,,,,,,,,,,,0.987,1,,,,,,,,,,,,,,m,1,0.987,-0.10866575,-0.207015131,1,0,0,0.779,,-0.10866575,-0.207015131,0,0,0,,0,15,15,5,1,BAMBOO,HB,m,m,./images/BAMBOOHB.png,,,,,,,,,,,,,,,,,,,,,,,,,,,,,,,,,,,
,,,,,,,,,,,,,,,,,5e0f69380fb798000a199566,,2022-02-12_16h45.18.318,lexical_decision_task_DD_L6,2021.2.3,Win32,60.0240096,,,,,,,,,,,0.917,1,,,,,,,,,,,,,,m,1,0.917,-0.10866575,-0.207015131,1,0,0,0.78,,-0.10866575,-0.207015131,0,0,0,,0,16,16,44,1,BASKET,HB,m,m,./images/BASKETHB.png,,,,,,,,,,,,,,,,,,,,,,,,,,,,,,,,,,,
,,,,,,,,,,,,,,,,,5e0f69380fb798000a199566,,2022-02-12_16h45.18.318,lexical_decision_task_DD_L6,2021.2.3,Win32,60.0240096,,,,,,,,,,,0.839,1,,,,,,,,,,,,,,m,1,0.839,-0.10866575,-0.207015131,1,0,0,0.714,,-0.10866575,-0.207015131,0,0,0,,0,17,17,15,1,COLLAR,LB,m,m,./images/COLLARLB.png,,,,,,,,,,,,,,,,,,,,,,,,,,,,,,,,,,,
,,,,,,,,,,,,,,,,,5e0f69380fb798000a199566,,2022-02-12_16h45.18.318,lexical_decision_task_DD_L6,2021.2.3,Win32,60.0240096,,,,,,,,,,,1.4,1,,,,,,,,,,,,,,z,1,1.4,-0.10866575,-0.207015131,1,0,0,0.646,,-0.10866575,-0.207015131,0,0,0,,0,18,18,101,1,GLEET,LB,z,z,./images/GLEETLB.png,,,,,,,,,,,,,,,,,,,,,,,,,,,,,,,,,,,
,,,,,,,,,,,,,,,,,5e0f69380fb798000a199566,,2022-02-12_16h45.18.318,lexical_decision_task_DD_L6,2021.2.3,Win32,60.0240096,,,,,,,,,,,1.156,1,,,,,,,,,,,,,,m,1,1.156,-0.10866575,-0.207015131,1,0,0,0.714,,-0.10866575,-0.207015131,0,0,0,,0,19,19,30,1,SLOPE,LB,m,m,./images/SLOPELB.png,,,,,,,,,,,,,,,,,,,,,,,,,,,,,,,,,,,
,,,,,,,,,,,,,,,,,5e0f69380fb798000a199566,,2022-02-12_16h45.18.318,lexical_decision_task_DD_L6,2021.2.3,Win32,60.0240096,,,,,,,,,,,1.31,1,,,,,,,,,,,,,,z,1,1.31,-0.10866575,-0.207015131,1,0,0,0.832,,-0.10866575,-0.207015131,0,0,0,,0,20,20,147,1,ZOLES,C,z,z,./images/ZOLES.png,,,,,,,,,,,,,,,,,,,,,,,,,,,,,,,,,,,
,,,,,,,,,,,,,,,,,5e0f69380fb798000a199566,,2022-02-12_16h45.18.318,lexical_decision_task_DD_L6,2021.2.3,Win32,60.0240096,,,,,,,,,,,0.905,1,,,,,,,,,,,,,,z,1,0.905,-0.10866575,-0.207015131,1,0,0,0.714,,-0.10866575,-0.207015131,0,0,0,,0,21,21,157,1,INLER,HB,z,z,./images/INLERHB.png,,,,,,,,,,,,,,,,,,,,,,,,,,,,,,,,,,,
,,,,,,,,,,,,,,,,,5e0f69380fb798000a199566,,2022-02-12_16h45.18.318,lexical_decision_task_DD_L6,2021.2.3,Win32,60.0240096,,,,,,,,,,,1.188,1,,,,,,,,,,,,,,m,1,1.188,-0.10866575,-0.207015131,1,0,0,0.914,,-0.10866575,-0.207015131,0,0,0,,0,22,22,23,1,CLOTH,HB,m,m,./images/CLOTHHB.png,,,,,,,,,,,,,,,,,,,,,,,,,,,,,,,,,,,
,,,,,,,,,,,,,,,,,5e0f69380fb798000a199566,,2022-02-12_16h45.18.318,lexical_decision_task_DD_L6,2021.2.3,Win32,60.0240096,,,,,,,,,,,0.753,1,,,,,,,,,,,,,,m,1,0.753,,,,,,,,-0.10866575,-0.207015131,0,0,0,,0,23,23,37,1,TIGER,C,m,m,./images/TIGER.png,,,,,,,,,,,,,,,,,,,,,,,,,,,,,,,,,,,
,,,,,,,,,,,,,,,,,5e0f69380fb798000a199566,,2022-02-12_16h45.18.318,lexical_decision_task_DD_L6,2021.2.3,Win32,60.0240096,,,,,,,,,,,0.97,1,,,,,,,,,,,,,,m,1,0.97,-0.10866575,-0.207015131,1,0,0,0.747,,-0.10866575,-0.207015131,0,0,0,,0,24,24,62,1,MAMMAL,HB,m,m,./images/MAMMALHB.png,,,,,,,,,,,,,,,,,,,,,,,,,,,,,,,,,,,
,,,,,,,,,,,,,,,,,5e0f69380fb798000a199566,,2022-02-12_16h45.18.318,lexical_decision_task_DD_L6,2021.2.3,Win32,60.0240096,,,,,,,,,,,0.735,1,,,,,,,,,,,,,,m,1,0.735,-0.10866575,-0.207015131,1,0,0,0.682,,-0.10866575,-0.207015131,0,0,0,,0,25,25,27,1,BUTTER,LB,m,m,./images/BUTTERLB.png,,,,,,,,,,,,,,,,,,,,,,,,,,,,,,,,,,,
,,,,,,,,,,,,,,,,,5e0f69380fb798000a199566,,2022-02-12_16h45.18.318,lexical_decision_task_DD_L6,2021.2.3,Win32,60.0240096,,,,,,,,,,,1.273,1,,,,,,,,,,,,,,z,1,1.273,-0.10866575,-0.207015131,1,0,0,0.831,,-0.10866575,-0.207015131,0,0,0,,0,26,26,88,1,GLUSH,HB,z,z,./images/GLUSHHB.png,,,,,,,,,,,,,,,,,,,,,,,,,,,,,,,,,,,
,,,,,,,,,,,,,,,,,5e0f69380fb798000a199566,,2022-02-12_16h45.18.318,lexical_decision_task_DD_L6,2021.2.3,Win32,60.0240096,,,,,,,,,,,0.804,1,,,,,,,,,,,,,,z,1,0.804,-0.10866575,-0.207015131,1,0,0,0.665,,-0.10866575,-0.207015131,0,0,0,,0,27,27,155,1,CANGY,LB,z,z,./images/CANGYLB.png,,,,,,,,,,,,,,,,,,,,,,,,,,,,,,,,,,,
,,,,,,,,,,,,,,,,,5e0f69380fb798000a199566,,2022-02-12_16h45.18.318,lexical_decision_task_DD_L6,2021.2.3,Win32,60.0240096,,,,,,,,,,,1.007,1,,,,,,,,,,,,,,z,1,1.007,-0.10866575,-0.207015131,1,0,0,0.761,,-0.107290234,-0.207015131,0,0,0,,0,28,28,160,1,VEETS,HB,z,z,./images/VEETSHB.png,,,,,,,,,,,,,,,,,,,,,,,,,,,,,,,,,,,
,,,,,,,,,,,,,,,,,5e0f69380fb798000a199566,,2022-02-12_16h45.18.318,lexical_decision_task_DD_L6,2021.2.3,Win32,60.0240096,,,,,,,,,,,1.271,1,,,,,,,,,,,,,,z,1,1.271,-0.107290234,-0.207015131,1,0,0,0.78,,-0.107290234,-0.207015131,0,0,0,,0,29,29,114,1,RIKES,C,z,z,./images/RIKES.png,,,,,,,,,,,,,,,,,,,,,,,,,,,,,,,,,,,
,,,,,,,,,,,,,,,,,5e0f69380fb798000a199566,,2022-02-12_16h45.18.318,lexical_decision_task_DD_L6,2021.2.3,Win32,60.0240096,,,,,,,,,,,1.196,1,,,,,,,,,,,,,,m,1,1.196,-0.107290234,-0.207015131,1,0,0,0.648,,-0.107290234,-0.207015131,0,0,0,,0,30,30,63,1,BAKER,LB,m,m,./images/BAKERLB.png,,,,,,,,,,,,,,,,,,,,,,,,,,,,,,,,,,,
,,,,,,,,,,,,,,,,,5e0f69380fb798000a199566,,2022-02-12_16h45.18.318,lexical_decision_task_DD_L6,2021.2.3,Win32,60.0240096,,,,,,,,,,,1.619,1,,,,,,,,,,,,,,z,1,1.619,-0.105914718,-0.207015131,1,0,0,0.597,,-0.105914718,-0.207015131,0,0,0,,0,31,31,148,1,JOMS,HB,z,z,./images/JOMSHB.png,,,,,,,,,,,,,,,,,,,,,,,,,,,,,,,,,,,
,,,,,,,,,,,,,,,,,5e0f69380fb798000a199566,,2022-02-12_16h45.18.318,lexical_decision_task_DD_L6,2021.2.3,Win32,60.0240096,,,,,,,,,,,1.084,1,,,,,,,,,,,,,,m,1,1.084,-0.104539202,-0.208390646,1,0,0,0.679,,-0.104539202,-0.208390646,0,0,0,,0,32,32,67,1,POKER,C,m,m,./images/POKER.png,,,,,,,,,,,,,,,,,,,,,,,,,,,,,,,,,,,
,,,,,,,,,,,,,,,,,5e0f69380fb798000a199566,,2022-02-12_16h45.18.318,lexical_decision_task_DD_L6,2021.2.3,Win32,60.0240096,,,,,,,,,,,0.767,1,,,,,,,,,,,,,,m,1,0.767,-0.104539202,-0.208390646,1,0,0,0.611,,-0.104539202,-0.208390646,0,0,0,,0,33,33,12,1,BLOKE,LB,m,m,./images/BLOKELB.png,,,,,,,,,,,,,,,,,,,,,,,,,,,,,,,,,,,
,,,,,,,,,,,,,,,,,5e0f69380fb798000a199566,,2022-02-12_16h45.18.318,lexical_decision_task_DD_L6,2021.2.3,Win32,60.0240096,,,,,,,,,,,0.755,1,,,,,,,,,,,,,,m,1,0.755,-0.104539202,-0.208390646,1,0,0,0.696,,-0.104539202,-0.208390646,1,0,0,,0,34,34,51,1,SAUCE,LB,m,m,./images/SAUCELB.png,,,,,,,,,,,,,,,,,,,,,,,,,,,,,,,,,,,
,,,,,,,,,,,,,,,,,5e0f69380fb798000a199566,,2022-02-12_16h45.18.318,lexical_decision_task_DD_L6,2021.2.3,Win32,60.0240096,,,,,,,,,,,0.772,1,,,,,,,,,,,,,,m,1,0.772,-0.104539202,-0.208390646,1,0,0,0.615,,-0.104539202,-0.208390646,0,0,0,,0,35,35,36,1,BOILER,LB,m,m,./images/BOILERLB.png,,,,,,,,,,,,,,,,,,,,,,,,,,,,,,,,,,,
,,,,,,,,,,,,,,,,,5e0f69380fb798000a199566,,2022-02-12_16h45.18.318,lexical_decision_task_DD_L6,2021.2.3,Win32,60.0240096,,,,,,,,,,,0.907,1,,,,,,,,,,,,,,m,1,0.907,-0.104539202,-0.208390646,1,0,0,0.647,,-0.104539202,-0.208390646,0,0,0,,0,36,36,41,1,STREAM,HB,m,m,./images/STREAMHB.png,,,,,,,,,,,,,,,,,,,,,,,,,,,,,,,,,,,
,,,,,,,,,,,,,,,,,5e0f69380fb798000a199566,,2022-02-12_16h45.18.318,lexical_decision_task_DD_L6,2021.2.3,Win32,60.0240096,,,,,,,,,,,1.209,1,,,,,,,,,,,,,,z,1,1.209,-0.104539202,-0.208390646,1,0,0,0.665,,-0.104539202,-0.208390646,0,0,0,,0,37,37,163,1,GAMBA,HB,z,z,./images/GAMBAHB.png,,,,,,,,,,,,,,,,,,,,,,,,,,,,,,,,,,,
,,,,,,,,,,,,,,,,,5e0f69380fb798000a199566,,2022-02-12_16h45.18.318,lexical_decision_task_DD_L6,2021.2.3,Win32,60.0240096,,,,,,,,,,,1.484,1,,,,,,,,,,,,,,m,1,1.484,-0.104539202,-0.208390646,1,0,0,0.598,,-0.104539202,-0.208390646,0,0,0,,0,38,38,43,1,STOOL,C,m,m,./images/STOOL.png,,,,,,,,,,,,,,,,,,,,,,,,,,,,,,,,,,,
,,,,,,,,,,,,,,,,,5e0f69380fb798000a199566,,2022-02-12_16h45.18.318,lexical_decision_task_DD_L6,2021.2.3,Win32,60.0240096,,,,,,,,,,,0.756,1,,,,,,,,,,,,,,m,1,0.756,-0.104539202,-0.208390646,1,0,0,0.614,,-0.104539202,-0.208390646,0,0,0,,0,39,39,18,1,PARCEL,LB,m,m,./images/PARCELLB.png,,,,,,,,,,,,,,,,,,,,,,,,,,,,,,,,,,,
,,,,,,,,,,,,,,,,,5e0f69380fb798000a199566,,2022-02-12_16h45.18.318,lexical_decision_task_DD_L6,2021.2.3,Win32,60.0240096,,,,,,,,,,,1.206,1,,,,,,,,,,,,,,z,1,1.206,-0.104539202,-0.208390646,1,0,0,0.598,,-0.104539202,-0.208390646,0,0,0,,0,40,40,86,1,AIFED,LB,z,z,./images/AIFEDLB.png,,,,,,,,,,,,,,,,,,,,,,,,,,,,,,,,,,,
,,,,,,,,,,,,,,,,,5e0f69380fb798000a199566,,2022-02-12_16h45.18.318,lexical_decision_task_DD_L6,2021.2.3,Win32,60.0240096,,,,,,,,,,,1.212,0,,,,,,,,,,,,,,m,0,1.212,-0.101788171,-0.208390646,1,0,0,0.645,,-0.147135417,-0.067708333,0,0,0,space,0,41,41,159,1,CUDDY,C,z,z,./images/CUDDY.png,7.504,,,,,,,,,,,,,,,,,,,,,,,,,,,,,,,,,,
,,,,,,,,,,,,,,,,,5e0f69380fb798000a199566,,2022-02-12_16h45.18.318,lexical_decision_task_DD_L6,2021.2.3,Win32,60.0240096,,,,,,,,,,,1.105,1,,,,,,,,,,,,,,z,1,1.105,,,,,,,,-0.14453125,-0.0703125,0,0,0,,0,42,42,138,1,PLICE,C,z,z,./images/PLICE.png,,,,,,,,,,,,,,,,,,,,,,,,,,,,,,,,,,,
,,,,,,,,,,,,,,,,,5e0f69380fb798000a199566,,2022-02-12_16h45.18.318,lexical_decision_task_DD_L6,2021.2.3,Win32,60.0240096,,,,,,,,,,,1.491,1,,,,,,,,,,,,,,m,1,1.491,-0.152682256,-0.102475928,1,0,0,0.681,,-0.152682256,-0.102475928,0,0,0,,0,43,43,14,1,FENCE,HB,m,m,./images/FENCEHB.png,,,,,,,,,,,,,,,,,,,,,,,,,,,,,,,,,,,
,,,,,,,,,,,,,,,,,5e0f69380fb798000a199566,,2022-02-12_16h45.18.318,lexical_decision_task_DD_L6,2021.2.3,Win32,60.0240096,,,,,,,,,,,1.282,1,,,,,,,,,,,,,,z,1,1.282,-0.152682256,-0.102475928,1,0,0,0.699,,-0.152682256,-0.102475928,0,0,0,,0,44,44,91,1,SHENS,HB,z,z,./images/SHENSHB.png,,,,,,,,,,,,,,,,,,,,,,,,,,,,,,,,,,,
,,,,,,,,,,,,,,,,,5e0f69380fb798000a199566,,2022-02-12_16h45.18.318,lexical_decision_task_DD_L6,2021.2.3,Win32,60.0240096,,,,,,,,,,,0.802,1,,,,,,,,,,,,,,z,1,0.802,,,,,,,,-0.152682256,-0.102475928,0,0,0,,0,45,45,102,1,DULLE,C,z,z,./images/DULLE.png,,,,,,,,,,,,,,,,,,,,,,,,,,,,,,,,,,,
,,,,,,,,,,,,,,,,,5e0f69380fb798000a199566,,2022-02-12_16h45.18.318,lexical_decision_task_DD_L6,2021.2.3,Win32,60.0240096,,,,,,,,,,,0.767,1,,,,,,,,,,,,,,z,1,0.767,-0.152682256,-0.102475928,1,0,0,0.648,,-0.152682256,-0.102475928,0,0,0,,0,46,46,100,1,DRIBS,HB,z,z,./images/DRIBSHB.png,,,,,,,,,,,,,,,,,,,,,,,,,,,,,,,,,,,
,,,,,,,,,,,,,,,,,5e0f69380fb798000a199566,,2022-02-12_16h45.18.318,lexical_decision_task_DD_L6,2021.2.3,Win32,60.0240096,,,,,,,,,,,0.844,1,,,,,,,,,,,,,,z,1,0.844,-0.152682256,-0.102475928,1,0,0,0.716,,-0.152682256,-0.102475928,0,0,0,,0,47,47,153,1,CLUPS,C,z,z,./images/CLUPS.png,,,,,,,,,,,,,,,,,,,,,,,,,,,,,,,,,,,
,,,,,,,,,,,,,,,,,5e0f69380fb798000a199566,,2022-02-12_16h45.18.318,lexical_decision_task_DD_L6,2021.2.3,Win32,60.0240096,,,,,,,,,,,1.228,1,,,,,,,,,,,,,,m,1,1.228,-0.152682256,-0.102475928,1,0,0,0.732,,-0.152682256,-0.102475928,0,0,0,,0,48,48,2,1,STOVE,HB,m,m,./images/STOVEHB.png,,,,,,,,,,,,,,,,,,,,,,,,,,,,,,,,,,,
,,,,,,,,,,,,,,,,,5e0f69380fb798000a199566,,2022-02-12_16h45.18.318,lexical_decision_task_DD_L6,2021.2.3,Win32,60.0240096,,,,,,,,,,,1.459,1,,,,,,,,,,,,,,m,1,1.459,-0.152682256,-0.102475928,1,0,0,0.665,,-0.152682256,-0.102475928,0,0,0,,0,49,49,59,1,BRUSH,HB,m,m,./images/BRUSHHB.png,,,,,,,,,,,,,,,,,,,,,,,,,,,,,,,,,,,
,,,,,,,,,,,,,,,,,5e0f69380fb798000a199566,,2022-02-12_16h45.18.318,lexical_decision_task_DD_L6,2021.2.3,Win32,60.0240096,,,,,,,,,,,1.471,1,,,,,,,,,,,,,,z,1,1.471,-0.152682256,-0.102475928,1,0,0,0.999,,-0.152682256,-0.102475928,0,0,0,,0,50,50,105,1,MOKER,C,z,z,./images/MOKER.png,,,,,,,,,,,,,,,,,,,,,,,,,,,,,,,,,,,
,,,,,,,,,,,,,,,,,5e0f69380fb798000a199566,,2022-02-12_16h45.18.318,lexical_decision_task_DD_L6,2021.2.3,Win32,60.0240096,,,,,,,,,,,1.44,1,,,,,,,,,,,,,,m,1,1.44,-0.152682256,-0.106602476,1,0,0,0.695,,-0.152682256,-0.106602476,0,0,0,,0,51,51,35,1,LLAMA,HB,m,m,./images/LLAMAHB.png,,,,,,,,,,,,,,,,,,,,,,,,,,,,,,,,,,,
,,,,,,,,,,,,,,,,,5e0f69380fb798000a199566,,2022-02-12_16h45.18.318,lexical_decision_task_DD_L6,2021.2.3,Win32,60.0240096,,,,,,,,,,,0.821,1,,,,,,,,,,,,,,m,1,0.821,-0.152682256,-0.106602476,1,0,0,0.613,,-0.152682256,-0.106602476,0,0,0,,0,52,52,79,1,RULER,C,m,m,./images/RULER.png,,,,,,,,,,,,,,,,,,,,,,,,,,,,,,,,,,,
,,,,,,,,,,,,,,,,,5e0f69380fb798000a199566,,2022-02-12_16h45.18.318,lexical_decision_task_DD_L6,2021.2.3,Win32,60.0240096,,,,,,,,,,,1.098,1,,,,,,,,,,,,,,z,1,1.098,-0.152682256,-0.106602476,1,0,0,0.63,,-0.152682256,-0.106602476,0,0,0,,0,53,53,144,1,NAIRY,C,z,z,./images/NAIRY.png,,,,,,,,,,,,,,,,,,,,,,,,,,,,,,,,,,,
,,,,,,,,,,,,,,,,,5e0f69380fb798000a199566,,2022-02-12_16h45.18.318,lexical_decision_task_DD_L6,2021.2.3,Win32,60.0240096,,,,,,,,,,,1.137,1,,,,,,,,,,,,,,m,1,1.137,-0.15130674,-0.114855571,1,0,0,0.648,,-0.15130674,-0.114855571,0,0,0,,0,54,54,80,1,PLANET,HB,m,m,./images/PLANETHB.png,,,,,,,,,,,,,,,,,,,,,,,,,,,,,,,,,,,
,,,,,,,,,,,,,,,,,5e0f69380fb798000a199566,,2022-02-12_16h45.18.318,lexical_decision_task_DD_L6,2021.2.3,Win32,60.0240096,,,,,,,,,,,0.694,1,,,,,,,,,,,,,,m,1,0.694,-0.15130674,-0.114855571,1,0,0,0.615,,-0.15130674,-0.114855571,1,0,0,,0,55,55,78,1,BROOM,LB,m,m,./images/BROOMLB.png,,,,,,,,,,,,,,,,,,,,,,,,,,,,,,,,,,,
,,,,,,,,,,,,,,,,,5e0f69380fb798000a199566,,2022-02-12_16h45.18.318,lexical_decision_task_DD_L6,2021.2.3,Win32,60.0240096,,,,,,,,,,,1.072,1,,,,,,,,,,,,,,z,1,1.072,-0.15130674,-0.114855571,1,0,0,0.647,,-0.15130674,-0.114855571,0,0,0,,0,56,56,116,1,BALGY,LB,z,z,./images/BALGYLB.png,,,,,,,,,,,,,,,,,,,,,,,,,,,,,,,,,,,
,,,,,,,,,,,,,,,,,5e0f69380fb798000a199566,,2022-02-12_16h45.18.318,lexical_decision_task_DD_L6,2021.2.3,Win32,60.0240096,,,,,,,,,,,1.246,0,,,,,,,,,,,,,,m,0,1.246,-0.15130674,-0.116231087,1,0,0,0.796,,-0.15130674,-0.116231087,0,0,0,,0,57,57,109,1,BURGE,HB,z,z,./images/BURGEHB.png,,,,,,,,,,,,,,,,,,,,,,,,,,,,,,,,,,,
,,,,,,,,,,,,,,,,,5e0f69380fb798000a199566,,2022-02-12_16h45.18.318,lexical_decision_task_DD_L6,2021.2.3,Win32,60.0240096,,,,,,,,,,,0.9,1,,,,,,,,,,,,,,m,1,0.9,-0.149931224,-0.116231087,1,0,0,0.732,,-0.149931224,-0.116231087,0,0,0,,0,58,58,29,1,PISTOL,HB,m,m,./images/PISTOLHB.png,,,,,,,,,,,,,,,,,,,,,,,,,,,,,,,,,,,
,,,,,,,,,,,,,,,,,5e0f69380fb798000a199566,,2022-02-12_16h45.18.318,lexical_decision_task_DD_L6,2021.2.3,Win32,60.0240096,,,,,,,,,,,0.905,1,,,,,,,,,,,,,,m,1,0.905,-0.149931224,-0.116231087,1,0,0,0.798,,-0.149931224,-0.116231087,0,0,0,,0,59,59,58,1,CANOE,C,m,m,./images/CANOE.png,,,,,,,,,,,,,,,,,,,,,,,,,,,,,,,,,,,
,,,,,,,,,,,,,,,,,5e0f69380fb798000a199566,,2022-02-12_16h45.18.318,lexical_decision_task_DD_L6,2021.2.3,Win32,60.0240096,,,,,,,,,,,0.94,1,,,,,,,,,,,,,,m,1,0.94,-0.149931224,-0.116231087,1,0,0,0.815,,-0.149931224,-0.116231087,0,0,0,,0,60,60,71,1,BUBBLE,HB,m,m,./images/BUBBLEHB.png,,,,,,,,,,,,,,,,,,,,,,,,,,,,,,,,,,,
,,,,,,,,,,,,,,,,,5e0f69380fb798000a199566,,2022-02-12_16h45.18.318,lexical_decision_task_DD_L6,2021.2.3,Win32,60.0240096,,,,,,,,,,,0.726,1,,,,,,,,,,,,,,m,1,0.726,-0.148555708,-0.116231087,1,0,0,0.647,,-0.148555708,-0.116231087,1,0,0,,0,61,61,75,1,HAMMER,LB,m,m,./images/HAMMERLB.png,,,,,,,,,,,,,,,,,,,,,,,,,,,,,,,,,,,
,,,,,,,,,,,,,,,,,5e0f69380fb798000a199566,,2022-02-12_16h45.18.318,lexical_decision_task_DD_L6,2021.2.3,Win32,60.0240096,,,,,,,,,,,0.796,0,,,,,,,,,,,,,,m,0,0.796,-0.147180193,-0.116231087,1,0,0,0.632,,-0.147180193,-0.116231087,0,0,0,,0,62,62,128,1,GRIFT,LB,z,z,./images/GRIFTLB.png,,,,,,,,,,,,,,,,,,,,,,,,,,,,,,,,,,,
,,,,,,,,,,,,,,,,,5e0f69380fb798000a199566,,2022-02-12_16h45.18.318,lexical_decision_task_DD_L6,2021.2.3,Win32,60.0240096,,,,,,,,,,,1.195,1,,,,,,,,,,,,,,m,1,1.195,-0.143053645,-0.116231087,1,0,0,0.649,,-0.143053645,-0.116231087,0,0,0,,0,63,63,47,1,LAGOON,HB,m,m,./images/LAGOONHB.png,,,,,,,,,,,,,,,,,,,,,,,,,,,,,,,,,,,
,,,,,,,,,,,,,,,,,5e0f69380fb798000a199566,,2022-02-12_16h45.18.318,lexical_decision_task_DD_L6,2021.2.3,Win32,60.0240096,,,,,,,,,,,0.869,1,,,,,,,,,,,,,,m,1,0.869,-0.143053645,-0.116231087,1,0,0,0.728,,-0.143053645,-0.116231087,0,0,0,,0,64,64,10,1,GARDEN,C,m,m,./images/GARDEN.png,,,,,,,,,,,,,,,,,,,,,,,,,,,,,,,,,,,
,,,,,,,,,,,,,,,,,5e0f69380fb798000a199566,,2022-02-12_16h45.18.318,lexical_decision_task_DD_L6,2021.2.3,Win32,60.0240096,,,,,,,,,,,1.212,1,,,,,,,,,,,,,,z,1,1.212,-0.143053645,-0.114855571,1,0,0,0.764,,-0.143053645,-0.114855571,0,0,0,,0,65,65,149,1,VEASE,LB,z,z,./images/VEASELB.png,,,,,,,,,,,,,,,,,,,,,,,,,,,,,,,,,,,
,,,,,,,,,,,,,,,,,5e0f69380fb798000a199566,,2022-02-12_16h45.18.318,lexical_decision_task_DD_L6,2021.2.3,Win32,60.0240096,,,,,,,,,,,0.786,1,,,,,,,,,,,,,,z,1,0.786,-0.143053645,-0.114855571,1,0,0,0.696,,-0.143053645,-0.114855571,0,0,0,,0,66,66,87,1,TRING,C,z,z,./images/TRING.png,,,,,,,,,,,,,,,,,,,,,,,,,,,,,,,,,,,
,,,,,,,,,,,,,,,,,5e0f69380fb798000a199566,,2022-02-12_16h45.18.318,lexical_decision_task_DD_L6,2021.2.3,Win32,60.0240096,,,,,,,,,,,0.957,1,,,,,,,,,,,,,,z,1,0.957,-0.143053645,-0.114855571,1,0,0,0.929,,-0.143053645,-0.114855571,1,0,0,,0,67,67,124,1,TUNCH,HB,z,z,./images/TUNCHHB.png,,,,,,,,,,,,,,,,,,,,,,,,,,,,,,,,,,,
,,,,,,,,,,,,,,,,,5e0f69380fb798000a199566,,2022-02-12_16h45.18.318,lexical_decision_task_DD_L6,2021.2.3,Win32,60.0240096,,,,,,,,,,,1.171,1,,,,,,,,,,,,,,m,1,1.171,-0.143053645,-0.114855571,1,0,0,0.764,,-0.143053645,-0.114855571,0,0,0,,0,68,68,60,1,CURRY,LB,m,m,./images/CURRYLB.png,,,,,,,,,,,,,,,,,,,,,,,,,,,,,,,,,,,
,,,,,,,,,,,,,,,,,5e0f69380fb798000a199566,,2022-02-12_16h45.18.318,lexical_decision_task_DD_L6,2021.2.3,Win32,60.0240096,,,,,,,,,,,0.734,1,,,,,,,,,,,,,,m,1,0.734,-0.143053645,-0.114855571,1,0,0,0.597,,-0.143053645,-0.114855571,0,0,0,,0,69,69,50,1,PILOT,HB,m,m,./images/PILOTHB.png,,,,,,,,,,,,,,,,,,,,,,,,,,,,,,,,,,,
,,,,,,,,,,,,,,,,,5e0f69380fb798000a199566,,2022-02-12_16h45.18.318,lexical_decision_task_DD_L6,2021.2.3,Win32,60.0240096,,,,,,,,,,,0.975,1,,,,,,,,,,,,,,m,1,0.975,-0.143053645,-0.114855571,1,0,0,0.698,,-0.143053645,-0.114855571,0,0,0,,0,70,70,17,1,PARADE,HB,m,m,./images/PARADEHB.png,,,,,,,,,,,,,,,,,,,,,,,,,,,,,,,,,,,
,,,,,,,,,,,,,,,,,5e0f69380fb798000a199566,,2022-02-12_16h45.18.318,lexical_decision_task_DD_L6,2021.2.3,Win32,60.0240096,,,,,,,,,,,0.736,1,,,,,,,,,,,,,,m,1,0.736,-0.143053645,-0.114855571,1,0,0,0.598,,-0.143053645,-0.114855571,0,0,0,,0,71,71,45,1,MONKEY,LB,m,m,./images/MONKEYLB.png,,,,,,,,,,,,,,,,,,,,,,,,,,,,,,,,,,,
,,,,,,,,,,,,,,,,,5e0f69380fb798000a199566,,2022-02-12_16h45.18.318,lexical_decision_task_DD_L6,2021.2.3,Win32,60.0240096,,,,,,,,,,,0.79,1,,,,,,,,,,,,,,m,1,0.79,-0.143053645,-0.114855571,1,0,0,0.665,,-0.143053645,-0.114855571,0,0,0,,0,72,72,70,1,BANANA,C,m,m,./images/BANANA.png,,,,,,,,,,,,,,,,,,,,,,,,,,,,,,,,,,,
,,,,,,,,,,,,,,,,,5e0f69380fb798000a199566,,2022-02-12_16h45.18.318,lexical_decision_task_DD_L6,2021.2.3,Win32,60.0240096,,,,,,,,,,,1.305,1,,,,,,,,,,,,,,z,1,1.305,-0.143053645,-0.114855571,1,0,0,0.797,,-0.143053645,-0.114855571,0,0,0,,0,73,73,126,1,GUELS,C,z,z,./images/GUELS.png,,,,,,,,,,,,,,,,,,,,,,,,,,,,,,,,,,,
,,,,,,,,,,,,,,,,,5e0f69380fb798000a199566,,2022-02-12_16h45.18.318,lexical_decision_task_DD_L6,2021.2.3,Win32,60.0240096,,,,,,,,,,,1.019,1,,,,,,,,,,,,,,z,1,1.019,-0.143053645,-0.114855571,1,0,0,0.914,,-0.143053645,-0.114855571,0,0,0,,0,74,74,166,1,SHORY,HB,z,z,./images/SHORYHB.png,,,,,,,,,,,,,,,,,,,,,,,,,,,,,,,,,,,
,,,,,,,,,,,,,,,,,5e0f69380fb798000a199566,,2022-02-12_16h45.18.318,lexical_decision_task_DD_L6,2021.2.3,Win32,60.0240096,,,,,,,,,,,1.124,1,,,,,,,,,,,,,,m,1,1.124,-0.143053645,-0.114855571,1,0,0,0.648,,-0.143053645,-0.114855571,0,0,0,,0,75,75,55,1,ALLEY,C,m,m,./images/ALLEY.png,,,,,,,,,,,,,,,,,,,,,,,,,,,,,,,,,,,
,,,,,,,,,,,,,,,,,5e0f69380fb798000a199566,,2022-02-12_16h45.18.318,lexical_decision_task_DD_L6,2021.2.3,Win32,60.0240096,,,,,,,,,,,1.24,1,,,,,,,,,,,,,,z,1,1.24,,,,,,,,-0.143053645,-0.114855571,0,0,0,,0,76,76,152,1,FRAIN,LB,z,z,./images/FRAINLB.png,,,,,,,,,,,,,,,,,,,,,,,,,,,,,,,,,,,
,,,,,,,,,,,,,,,,,5e0f69380fb798000a199566,,2022-02-12_16h45.18.318,lexical_decision_task_DD_L6,2021.2.3,Win32,60.0240096,,,,,,,,,,,1.753,1,,,,,,,,,,,,,,m,1,1.753,-0.143053645,-0.116231087,1,0,0,0.765,,-0.143053645,-0.116231087,0,0,0,,0,77,77,83,1,WHISKY,HB,m,m,./images/WHISKYHB.png,,,,,,,,,,,,,,,,,,,,,,,,,,,,,,,,,,,
,,,,,,,,,,,,,,,,,5e0f69380fb798000a199566,,2022-02-12_16h45.18.318,lexical_decision_task_DD_L6,2021.2.3,Win32,60.0240096,,,,,,,,,,,0.803,1,,,,,,,,,,,,,,m,1,0.803,-0.144429161,-0.118982118,1,0,0,0.746,,-0.144429161,-0.118982118,1,0,0,,0,78,78,31,1,STEAK,C,m,m,./images/STEAK.png,,,,,,,,,,,,,,,,,,,,,,,,,,,,,,,,,,,
,,,,,,,,,,,,,,,,,5e0f69380fb798000a199566,,2022-02-12_16h45.18.318,lexical_decision_task_DD_L6,2021.2.3,Win32,60.0240096,,,,,,,,,,,0.72,1,,,,,,,,,,,,,,m,1,0.72,-0.144429161,-0.118982118,1,0,0,0.613,,-0.144429161,-0.118982118,0,0,0,,0,79,79,21,1,DANCER,LB,m,m,./images/DANCERLB.png,,,,,,,,,,,,,,,,,,,,,,,,,,,,,,,,,,,
,,,,,,,,,,,,,,,,,5e0f69380fb798000a199566,,2022-02-12_16h45.18.318,lexical_decision_task_DD_L6,2021.2.3,Win32,60.0240096,,,,,,,,,,,1.154,1,,,,,,,,,,,,,,z,1,1.154,-0.144429161,-0.118982118,1,0,0,0.847,,-0.144429161,-0.118982118,0,0,0,,0,80,80,158,1,EGECT,LB,z,z,./images/EGECTLB.png,,,,,,,,,,,,,,,,,,,,,,,,,,,,,,,,,,,
,,,,,,,,,,,,,,,,,5e0f69380fb798000a199566,,2022-02-12_16h45.18.318,lexical_decision_task_DD_L6,2021.2.3,Win32,60.0240096,,,,,,,,,,,1.193,1,,,,,,,,,,,,,,m,1,1.193,-0.144429161,-0.118982118,1,0,0,0.712,,-0.145804677,-0.127235213,0,0,0,,0,81,81,74,1,JUMPER,HB,m,m,./images/JUMPERHB.png,,,,,,,,,,,,,,,,,,,,,,,,,,,,,,,,,,,
,,,,,,,,,,,,,,,,,5e0f69380fb798000a199566,,2022-02-12_16h45.18.318,lexical_decision_task_DD_L6,2021.2.3,Win32,60.0240096,,,,,,,,,,,1.18,1,,,,,,,,,,,,,,z,1,1.18,-0.145804677,-0.127235213,1,0,0,0.647,,-0.145804677,-0.127235213,0,0,0,,0,82,82,111,1,HOSSE,C,z,z,./images/HOSSE.png,,,,,,,,,,,,,,,,,,,,,,,,,,,,,,,,,,,
,,,,,,,,,,,,,,,,,5e0f69380fb798000a199566,,2022-02-12_16h45.18.318,lexical_decision_task_DD_L6,2021.2.3,Win32,60.0240096,,,,,,,,,,,1.257,1,,,,,,,,,,,,,,m,1,1.257,-0.147180193,-0.127235213,1,0,0,0.747,,-0.145804677,-0.167125172,0,0,0,space,0,83,83,77,1,WHEEL,HB,m,m,./images/WHEELHB.png,4.235,,,,,,,,,,,,,,,,,,,,,,,,,,,,,,,,,,
,,,,,,,,,,,,,,,,,5e0f69380fb798000a199566,,2022-02-12_16h45.18.318,lexical_decision_task_DD_L6,2021.2.3,Win32,60.0240096,,,,,,,,,,,1.262,1,,,,,,,,,,,,,,z,1,1.262,,,,,,,,-0.145804677,-0.167125172,0,0,0,,0,84,84,85,1,CHULK,HB,z,z,./images/CHULKHB.png,,,,,,,,,,,,,,,,,,,,,,,,,,,,,,,,,,,
,,,,,,,,,,,,,,,,,5e0f69380fb798000a199566,,2022-02-12_16h45.18.318,lexical_decision_task_DD_L6,2021.2.3,Win32,60.0240096,,,,,,,,,,,1.122,1,,,,,,,,,,,,,,m,1,1.122,,,,,,,,-0.145804677,-0.167125172,0,0,0,,0,85,85,34,1,RAZOR,C,m,m,./images/RAZOR.png,,,,,,,,,,,,,,,,,,,,,,,,,,,,,,,,,,,
,,,,,,,,,,,,,,,,,5e0f69380fb798000a199566,,2022-02-12_16h45.18.318,lexical_decision_task_DD_L6,2021.2.3,Win32,60.0240096,,,,,,,,,,,1.129,1,,,,,,,,,,,,,,z,1,1.129,,,,,,,,-0.145804677,-0.167125172,0,0,0,,0,86,86,167,1,ZONET,LB,z,z,./images/ZONETLB.png,,,,,,,,,,,,,,,,,,,,,,,,,,,,,,,,,,,
,,,,,,,,,,,,,,,,,5e0f69380fb798000a199566,,2022-02-12_16h45.18.318,lexical_decision_task_DD_L6,2021.2.3,Win32,60.0240096,,,,,,,,,,,1.81,1,,,,,,,,,,,,,,z,1,1.81,,,,,,,,-0.145804677,-0.167125172,0,0,0,,0,87,87,165,1,TROWN,C,z,z,./images/TROWN.png,,,,,,,,,,,,,,,,,,,,,,,,,,,,,,,,,,,
,,,,,,,,,,,,,,,,,5e0f69380fb798000a199566,,2022-02-12_16h45.18.318,lexical_decision_task_DD_L6,2021.2.3,Win32,60.0240096,,,,,,,,,,,1.214,1,,,,,,,,,,,,,,z,1,1.214,,,,,,,,-0.145804677,-0.167125172,0,0,0,,0,88,88,141,1,PLEET,C,z,z,./images/PLEET.png,,,,,,,,,,,,,,,,,,,,,,,,,,,,,,,,,,,
,,,,,,,,,,,,,,,,,5e0f69380fb798000a199566,,2022-02-12_16h45.18.318,lexical_decision_task_DD_L6,2021.2.3,Win32,60.0240096,,,,,,,,,,,0.81,1,,,,,,,,,,,,,,z,1,0.81,,,,,,,,-0.145804677,-0.167125172,0,0,0,,0,89,89,133,1,POWDY,HB,z,z,./images/POWDYHB.png,,,,,,,,,,,,,,,,,,,,,,,,,,,,,,,,,,,
,,,,,,,,,,,,,,,,,5e0f69380fb798000a199566,,2022-02-12_16h45.18.318,lexical_decision_task_DD_L6,2021.2.3,Win32,60.0240096,,,,,,,,,,,1.033,1,,,,,,,,,,,,,,m,1,1.033,,,,,,,,-0.145804677,-0.167125172,0,0,0,,0,90,90,69,1,ARROW,LB,m,m,./images/ARROWLB.png,,,,,,,,,,,,,,,,,,,,,,,,,,,,,,,,,,,
,,,,,,,,,,,,,,,,,5e0f69380fb798000a199566,,2022-02-12_16h45.18.318,lexical_decision_task_DD_L6,2021.2.3,Win32,60.0240096,,,,,,,,,,,0.718,1,,,,,,,,,,,,,,m,1,0.718,-0.145804677,-0.167125172,1,0,0,0.597,,-0.145804677,-0.167125172,0,0,0,,0,91,91,76,1,MIDGET,C,m,m,./images/MIDGET.png,,,,,,,,,,,,,,,,,,,,,,,,,,,,,,,,,,,
,,,,,,,,,,,,,,,,,5e0f69380fb798000a199566,,2022-02-12_16h45.18.318,lexical_decision_task_DD_L6,2021.2.3,Win32,60.0240096,,,,,,,,,,,1.292,1,,,,,,,,,,,,,,z,1,1.292,-0.145804677,-0.167125172,1,0,0,0.931,,-0.145804677,-0.167125172,0,0,0,,0,92,92,103,1,FLORT,HB,z,z,./images/FLORTHB.png,,,,,,,,,,,,,,,,,,,,,,,,,,,,,,,,,,,
,,,,,,,,,,,,,,,,,5e0f69380fb798000a199566,,2022-02-12_16h45.18.318,lexical_decision_task_DD_L6,2021.2.3,Win32,60.0240096,,,,,,,,,,,1.014,1,,,,,,,,,,,,,,m,1,1.014,-0.144429161,-0.176753783,1,0,0,0.829,,-0.144429161,-0.176753783,0,0,0,,0,93,93,64,1,BRIDE,C,m,m,./images/BRIDE.png,,,,,,,,,,,,,,,,,,,,,,,,,,,,,,,,,,,
,,,,,,,,,,,,,,,,,5e0f69380fb798000a199566,,2022-02-12_16h45.18.318,lexical_decision_task_DD_L6,2021.2.3,Win32,60.0240096,,,,,,,,,,,1.204,1,,,,,,,,,,,,,,z,1,1.204,-0.144429161,-0.176753783,1,0,0,0.698,,-0.144429161,-0.176753783,0,0,0,,0,94,94,150,1,NOOLS,C,z,z,./images/NOOLS.png,,,,,,,,,,,,,,,,,,,,,,,,,,,,,,,,,,,
,,,,,,,,,,,,,,,,,5e0f69380fb798000a199566,,2022-02-12_16h45.18.318,lexical_decision_task_DD_L6,2021.2.3,Win32,60.0240096,,,,,,,,,,,1.052,1,,,,,,,,,,,,,,m,1,1.052,-0.144429161,-0.176753783,1,0,0,0.648,,-0.141678129,-0.194635488,0,0,0,,0,95,95,26,1,CLOUD,HB,m,m,./images/CLOUDHB.png,,,,,,,,,,,,,,,,,,,,,,,,,,,,,,,,,,,
,,,,,,,,,,,,,,,,,5e0f69380fb798000a199566,,2022-02-12_16h45.18.318,lexical_decision_task_DD_L6,2021.2.3,Win32,60.0240096,,,,,,,,,,,1.173,1,,,,,,,,,,,,,,z,1,1.173,-0.141678129,-0.194635488,1,0,0,0.665,,-0.132049519,-0.215268226,0,0,0,,0,96,96,113,1,LINEW,LB,z,z,./images/LINEWLB.png,,,,,,,,,,,,,,,,,,,,,,,,,,,,,,,,,,,
,,,,,,,,,,,,,,,,,5e0f69380fb798000a199566,,2022-02-12_16h45.18.318,lexical_decision_task_DD_L6,2021.2.3,Win32,60.0240096,,,,,,,,,,,0.795,1,,,,,,,,,,,,,,z,1,0.795,-0.132049519,-0.215268226,1,0,0,0.731,,-0.132049519,-0.215268226,1,0,0,,0,97,97,89,1,DRIEK,LB,z,z,./images/DRIEKLB.png,,,,,,,,,,,,,,,,,,,,,,,,,,,,,,,,,,,
,,,,,,,,,,,,,,,,,5e0f69380fb798000a199566,,2022-02-12_16h45.18.318,lexical_decision_task_DD_L6,2021.2.3,Win32,60.0240096,,,,,,,,,,,1.003,1,,,,,,,,,,,,,,m,1,1.003,-0.132049519,-0.215268226,1,0,0,0.582,,-0.132049519,-0.215268226,0,0,0,,0,98,98,13,1,BUNNY,C,m,m,./images/BUNNY.png,,,,,,,,,,,,,,,,,,,,,,,,,,,,,,,,,,,
,,,,,,,,,,,,,,,,,5e0f69380fb798000a199566,,2022-02-12_16h45.18.318,lexical_decision_task_DD_L6,2021.2.3,Win32,60.0240096,,,,,,,,,,,0.971,1,,,,,,,,,,,,,,m,1,0.971,-0.132049519,-0.215268226,1,0,0,0.848,,-0.132049519,-0.215268226,0,0,0,,0,99,99,11,1,MEDAL,HB,m,m,./images/MEDALHB.png,,,,,,,,,,,,,,,,,,,,,,,,,,,,,,,,,,,
,,,,,,,,,,,,,,,,,5e0f69380fb798000a199566,,2022-02-12_16h45.18.318,lexical_decision_task_DD_L6,2021.2.3,Win32,60.0240096,,,,,,,,,,,1.485,1,,,,,,,,,,,,,,z,1,1.485,-0.132049519,-0.215268226,1,0,0,0.781,,-0.132049519,-0.215268226,0,0,0,,0,100,100,97,1,CHIDS,HB,z,z,./images/CHIDSHB.png,,,,,,,,,,,,,,,,,,,,,,,,,,,,,,,,,,,
,,,,,,,,,,,,,,,,,5e0f69380fb798000a199566,,2022-02-12_16h45.18.318,lexical_decision_task_DD_L6,2021.2.3,Win32,60.0240096,,,,,,,,,,,1.158,1,,,,,,,,,,,,,,m,1,1.158,-0.132049519,-0.215268226,1,0,0,0.768,,-0.132049519,-0.215268226,0,0,0,,0,101,101,28,1,CASINO,C,m,m,./images/CASINO.png,,,,,,,,,,,,,,,,,,,,,,,,,,,,,,,,,,,
,,,,,,,,,,,,,,,,,5e0f69380fb798000a199566,,2022-02-12_16h45.18.318,lexical_decision_task_DD_L6,2021.2.3,Win32,60.0240096,,,,,,,,,,,1.333,1,,,,,,,,,,,,,,z,1,1.333,-0.132049519,-0.215268226,1,0,0,0.83,,-0.121045392,-0.2303989,0,0,0,,0,102,102,129,1,PRANS,C,z,z,./images/PRANS.png,,,,,,,,,,,,,,,,,,,,,,,,,,,,,,,,,,,
,,,,,,,,,,,,,,,,,5e0f69380fb798000a199566,,2022-02-12_16h45.18.318,lexical_decision_task_DD_L6,2021.2.3,Win32,60.0240096,,,,,,,,,,,1.087,1,,,,,,,,,,,,,,z,1,1.087,-0.121045392,-0.2303989,1,0,0,1.029,,-0.121045392,-0.2303989,1,0,0,,0,103,103,136,1,WERVE,HB,z,z,./images/WERVEHB.png,,,,,,,,,,,,,,,,,,,,,,,,,,,,,,,,,,,
,,,,,,,,,,,,,,,,,5e0f69380fb798000a199566,,2022-02-12_16h45.18.318,lexical_decision_task_DD_L6,2021.2.3,Win32,60.0240096,,,,,,,,,,,0.738,1,,,,,,,,,,,,,,z,1,0.738,-0.121045392,-0.2303989,1,0,0,0.663,,-0.121045392,-0.2303989,1,0,0,,0,104,104,122,1,BLOOT,LB,z,z,./images/BLOOTLB.png,,,,,,,,,,,,,,,,,,,,,,,,,,,,,,,,,,,
,,,,,,,,,,,,,,,,,5e0f69380fb798000a199566,,2022-02-12_16h45.18.318,lexical_decision_task_DD_L6,2021.2.3,Win32,60.0240096,,,,,,,,,,,1.151,1,,,,,,,,,,,,,,m,1,1.151,-0.121045392,-0.2303989,1,0,0,0.763,,-0.121045392,-0.2303989,0,0,0,,0,105,105,33,1,SAUNA,LB,m,m,./images/SAUNALB.png,,,,,,,,,,,,,,,,,,,,,,,,,,,,,,,,,,,
,,,,,,,,,,,,,,,,,5e0f69380fb798000a199566,,2022-02-12_16h45.18.318,lexical_decision_task_DD_L6,2021.2.3,Win32,60.0240096,,,,,,,,,,,1.305,1,,,,,,,,,,,,,,z,1,1.305,-0.121045392,-0.2303989,1,0,0,0.896,,-0.121045392,-0.2303989,0,0,0,,0,106,106,143,1,MONGS,LB,z,z,./images/MONGSLB.png,,,,,,,,,,,,,,,,,,,,,,,,,,,,,,,,,,,
,,,,,,,,,,,,,,,,,5e0f69380fb798000a199566,,2022-02-12_16h45.18.318,lexical_decision_task_DD_L6,2021.2.3,Win32,60.0240096,,,,,,,,,,,1.635,1,,,,,,,,,,,,,,m,1,1.635,-0.121045392,-0.2303989,1,0,0,0.747,,-0.121045392,-0.2303989,0,0,0,,0,107,107,3,1,CRATER,LB,m,m,./images/CRATERLB.png,,,,,,,,,,,,,,,,,,,,,,,,,,,,,,,,,,,
,,,,,,,,,,,,,,,,,5e0f69380fb798000a199566,,2022-02-12_16h45.18.318,lexical_decision_task_DD_L6,2021.2.3,Win32,60.0240096,,,,,,,,,,,1.234,1,,,,,,,,,,,,,,z,1,1.234,-0.121045392,-0.2303989,1,0,0,0.697,,-0.121045392,-0.2303989,0,0,0,,0,108,108,145,1,LAMEL,HB,z,z,./images/LAMELHB.png,,,,,,,,,,,,,,,,,,,,,,,,,,,,,,,,,,,
,,,,,,,,,,,,,,,,,5e0f69380fb798000a199566,,2022-02-12_16h45.18.318,lexical_decision_task_DD_L6,2021.2.3,Win32,60.0240096,,,,,,,,,,,1.086,1,,,,,,,,,,,,,,m,1,1.086,-0.121045392,-0.229023384,1,0,0,0.599,,-0.11829436,-0.242778542,0,0,0,,0,109,109,61,1,ARTIST,C,m,m,./images/ARTIST.png,,,,,,,,,,,,,,,,,,,,,,,,,,,,,,,,,,,
,,,,,,,,,,,,,,,,,5e0f69380fb798000a199566,,2022-02-12_16h45.18.318,lexical_decision_task_DD_L6,2021.2.3,Win32,60.0240096,,,,,,,,,,,1.101,1,,,,,,,,,,,,,,z,1,1.101,-0.11829436,-0.242778542,1,0,0,0.648,,-0.11829436,-0.242778542,0,0,0,,0,110,110,151,1,TINKY,HB,z,z,./images/TINKYHB.png,,,,,,,,,,,,,,,,,,,,,,,,,,,,,,,,,,,
,,,,,,,,,,,,,,,,,5e0f69380fb798000a199566,,2022-02-12_16h45.18.318,lexical_decision_task_DD_L6,2021.2.3,Win32,60.0240096,,,,,,,,,,,0.69,1,,,,,,,,,,,,,,z,1,0.69,-0.11829436,-0.242778542,1,0,0,0.599,,-0.11829436,-0.242778542,0,0,0,,0,111,111,127,1,NINDY,HB,z,z,./images/NINDYHB.png,,,,,,,,,,,,,,,,,,,,,,,,,,,,,,,,,,,
,,,,,,,,,,,,,,,,,5e0f69380fb798000a199566,,2022-02-12_16h45.18.318,lexical_decision_task_DD_L6,2021.2.3,Win32,60.0240096,,,,,,,,,,,0.868,0,,,,,,,,,,,,,,z,0,0.868,,,,,,,,-0.11829436,-0.242778542,0,0,0,,0,112,112,38,1,ENGINE,HB,m,m,./images/ENGINEHB.png,,,,,,,,,,,,,,,,,,,,,,,,,,,,,,,,,,,
,,,,,,,,,,,,,,,,,5e0f69380fb798000a199566,,2022-02-12_16h45.18.318,lexical_decision_task_DD_L6,2021.2.3,Win32,60.0240096,,,,,,,,,,,0.639,1,,,,,,,,,,,,,,z,1,0.639,,,,,,,,-0.11829436,-0.242778542,0,0,0,,0,113,113,156,1,HIXES,C,z,z,./images/HIXES.png,,,,,,,,,,,,,,,,,,,,,,,,,,,,,,,,,,,
,,,,,,,,,,,,,,,,,5e0f69380fb798000a199566,,2022-02-12_16h45.18.318,lexical_decision_task_DD_L6,2021.2.3,Win32,60.0240096,,,,,,,,,,,1.167,1,,,,,,,,,,,,,,m,1,1.167,-0.11829436,-0.242778542,1,0,0,0.798,,-0.11829436,-0.244154058,0,0,0,,0,114,114,46,1,MUMMY,C,m,m,./images/MUMMY.png,,,,,,,,,,,,,,,,,,,,,,,,,,,,,,,,,,,
,,,,,,,,,,,,,,,,,5e0f69380fb798000a199566,,2022-02-12_16h45.18.318,lexical_decision_task_DD_L6,2021.2.3,Win32,60.0240096,,,,,,,,,,,1.636,1,,,,,,,,,,,,,,z,1,1.636,-0.11829436,-0.244154058,1,0,0,1.163,,-0.114167813,-0.248280605,0,0,0,,0,115,115,106,1,CLUMS,HB,z,z,./images/CLUMSHB.png,,,,,,,,,,,,,,,,,,,,,,,,,,,,,,,,,,,
,,,,,,,,,,,,,,,,,5e0f69380fb798000a199566,,2022-02-12_16h45.18.318,lexical_decision_task_DD_L6,2021.2.3,Win32,60.0240096,,,,,,,,,,,1.387,1,,,,,,,,,,,,,,m,1,1.387,-0.114167813,-0.248280605,1,0,0,0.995,,-0.111416781,-0.252407153,0,0,0,,0,116,116,56,1,HEATER,HB,m,m,./images/HEATERHB.png,,,,,,,,,,,,,,,,,,,,,,,,,,,,,,,,,,,
,,,,,,,,,,,,,,,,,5e0f69380fb798000a199566,,2022-02-12_16h45.18.318,lexical_decision_task_DD_L6,2021.2.3,Win32,60.0240096,,,,,,,,,,,0.89,1,,,,,,,,,,,,,,m,1,0.89,-0.111416781,-0.252407153,1,0,0,0.813,,-0.111416781,-0.252407153,1,0,0,,0,117,117,7,1,WAGON,C,m,m,./images/WAGON.png,,,,,,,,,,,,,,,,,,,,,,,,,,,,,,,,,,,
,,,,,,,,,,,,,,,,,5e0f69380fb798000a199566,,2022-02-12_16h45.18.318,lexical_decision_task_DD_L6,2021.2.3,Win32,60.0240096,,,,,,,,,,,1.289,1,,,,,,,,,,,,,,z,1,1.289,-0.111416781,-0.252407153,1,0,0,0.763,,-0.114167813,-0.252407153,0,0,0,,0,118,118,84,1,HAXES,C,z,z,./images/HAXES.png,,,,,,,,,,,,,,,,,,,,,,,,,,,,,,,,,,,
,,,,,,,,,,,,,,,,,5e0f69380fb798000a199566,,2022-02-12_16h45.18.318,lexical_decision_task_DD_L6,2021.2.3,Win32,60.0240096,,,,,,,,,,,1.286,1,,,,,,,,,,,,,,m,1,1.286,-0.115543329,-0.252407153,1,0,0,0.815,,-0.115543329,-0.252407153,0,0,0,,0,119,119,32,1,HOCKEY,HB,m,m,./images/HOCKEYHB.png,,,,,,,,,,,,,,,,,,,,,,,,,,,,,,,,,,,
,,,,,,,,,,,,,,,,,5e0f69380fb798000a199566,,2022-02-12_16h45.18.318,lexical_decision_task_DD_L6,2021.2.3,Win32,60.0240096,,,,,,,,,,,1.16,1,,,,,,,,,,,,,,z,1,1.16,-0.115543329,-0.252407153,1,0,0,0.747,,-0.115543329,-0.253782669,0,0,0,,0,120,120,117,1,STEEG,C,z,z,./images/STEEG.png,,,,,,,,,,,,,,,,,,,,,,,,,,,,,,,,,,,
,,,,,,,,,,,,,,,,,5e0f69380fb798000a199566,,2022-02-12_16h45.18.318,lexical_decision_task_DD_L6,2021.2.3,Win32,60.0240096,,,,,,,,,,,1.135,1,,,,,,,,,,,,,,m,1,1.135,-0.115543329,-0.253782669,1,0,0,0.782,,-0.115543329,-0.253782669,0,0,0,,0,121,121,6,1,STAIN,LB,m,m,./images/STAINLB.png,,,,,,,,,,,,,,,,,,,,,,,,,,,,,,,,,,,
,,,,,,,,,,,,,,,,,5e0f69380fb798000a199566,,2022-02-12_16h45.18.318,lexical_decision_task_DD_L6,2021.2.3,Win32,60.0240096,,,,,,,,,,,1.123,1,,,,,,,,,,,,,,z,1,1.123,-0.115543329,-0.253782669,1,0,0,0.666,,-0.115543329,-0.253782669,0,0,0,,0,122,122,104,1,GITTY,LB,z,z,./images/GITTYLB.png,,,,,,,,,,,,,,,,,,,,,,,,,,,,,,,,,,,
,,,,,,,,,,,,,,,,,5e0f69380fb798000a199566,,2022-02-12_16h45.18.318,lexical_decision_task_DD_L6,2021.2.3,Win32,60.0240096,,,,,,,,,,,1.113,1,,,,,,,,,,,,,,z,1,1.113,-0.114167813,-0.253782669,1,0,0,0.714,,-0.114167813,-0.253782669,0,0,0,,0,123,123,94,1,BLANS,HB,z,z,./images/BLANSHB.png,,,,,,,,,,,,,,,,,,,,,,,,,,,,,,,,,,,
,,,,,,,,,,,,,,,,,5e0f69380fb798000a199566,,2022-02-12_16h45.18.318,lexical_decision_task_DD_L6,2021.2.3,Win32,60.0240096,,,,,,,,,,,0.87,1,,,,,,,,,,,,,,z,1,0.87,-0.10866575,-0.268913343,1,0,0,0.847,,-0.10866575,-0.268913343,1,0,0,,0,124,124,110,1,CRUNK,LB,z,z,./images/CRUNKLB.png,,,,,,,,,,,,,,,,,,,,,,,,,,,,,,,,,,,
,,,,,,,,,,,,,,,,,5e0f69380fb798000a199566,,2022-02-12_16h45.18.318,lexical_decision_task_DD_L6,2021.2.3,Win32,60.0240096,,,,,,,,,,,1.018,1,,,,,,,,,,,,,,m,1,1.018,-0.10866575,-0.267537827,1,0,0,0.648,,-0.083906465,-0.369325997,0,0,0,space,0,125,125,49,1,BISHOP,C,m,m,./images/BISHOP.png,1.601,,,,,,,,,,,,,,,,,,,,,,,,,,,,,,,,,,
,,,,,,,,,,,,,,,,,5e0f69380fb798000a199566,,2022-02-12_16h45.18.318,lexical_decision_task_DD_L6,2021.2.3,Win32,60.0240096,,,,,,,,,,,1.575,1,,,,,,,,,,,,,,m,1,1.575,-0.121045392,-0.271664374,1,0,0,0.581,,-0.121045392,-0.271664374,0,0,0,,0,126,126,66,1,STATUE,LB,m,m,./images/STATUELB.png,,,,,,,,,,,,,,,,,,,,,,,,,,,,,,,,,,,
,,,,,,,,,,,,,,,,,5e0f69380fb798000a199566,,2022-02-12_16h45.18.318,lexical_decision_task_DD_L6,2021.2.3,Win32,60.0240096,,,,,,,,,,,1.591,1,,,,,,,,,,,,,,z,1,1.591,-0.121045392,-0.271664374,1,0,0,1.145,,-0.121045392,-0.271664374,0,0,0,,0,127,127,132,1,SCIFF,C,z,z,./images/SCIFF.png,,,,,,,,,,,,,,,,,,,,,,,,,,,,,,,,,,,
,,,,,,,,,,,,,,,,,5e0f69380fb798000a199566,,2022-02-12_16h45.18.318,lexical_decision_task_DD_L6,2021.2.3,Win32,60.0240096,,,,,,,,,,,1.097,1,,,,,,,,,,,,,,m,1,1.097,-0.121045392,-0.271664374,1,0,0,0.746,,-0.121045392,-0.271664374,0,0,0,,0,128,128,19,1,DONKEY,C,m,m,./images/DONKEY.png,,,,,,,,,,,,,,,,,,,,,,,,,,,,,,,,,,,
,,,,,,,,,,,,,,,,,5e0f69380fb798000a199566,,2022-02-12_16h45.18.318,lexical_decision_task_DD_L6,2021.2.3,Win32,60.0240096,,,,,,,,,,,0.931,1,,,,,,,,,,,,,,m,1,0.931,-0.121045392,-0.271664374,1,0,0,0.612,,-0.121045392,-0.271664374,0,0,0,,0,129,129,0,1,WALNUT,LB,m,m,./images/WALNUTLB.png,,,,,,,,,,,,,,,,,,,,,,,,,,,,,,,,,,,
,,,,,,,,,,,,,,,,,5e0f69380fb798000a199566,,2022-02-12_16h45.18.318,lexical_decision_task_DD_L6,2021.2.3,Win32,60.0240096,,,,,,,,,,,0.65,1,,,,,,,,,,,,,,m,1,0.65,-0.119669876,-0.271664374,1,0,0,0.547,,-0.112792297,-0.281292985,0,0,0,,0,130,130,4,1,BOXER,C,m,m,./images/BOXER.png,,,,,,,,,,,,,,,,,,,,,,,,,,,,,,,,,,,
,,,,,,,,,,,,,,,,,5e0f69380fb798000a199566,,2022-02-12_16h45.18.318,lexical_decision_task_DD_L6,2021.2.3,Win32,60.0240096,,,,,,,,,,,1.29,1,,,,,,,,,,,,,,m,1,1.29,-0.112792297,-0.278541953,1,0,0,0.616,,-0.112792297,-0.278541953,0,0,0,,0,131,131,65,1,SPINE,HB,m,m,./images/SPINEHB.png,,,,,,,,,,,,,,,,,,,,,,,,,,,,,,,,,,,
,,,,,,,,,,,,,,,,,5e0f69380fb798000a199566,,2022-02-12_16h45.18.318,lexical_decision_task_DD_L6,2021.2.3,Win32,60.0240096,,,,,,,,,,,1.092,1,,,,,,,,,,,,,,z,1,1.092,-0.119669876,-0.290921596,1,0,0,0.748,,-0.119669876,-0.290921596,0,0,0,,0,132,132,119,1,PAFER,LB,z,z,./images/PAFERLB.png,,,,,,,,,,,,,,,,,,,,,,,,,,,,,,,,,,,
,,,,,,,,,,,,,,,,,5e0f69380fb798000a199566,,2022-02-12_16h45.18.318,lexical_decision_task_DD_L6,2021.2.3,Win32,60.0240096,,,,,,,,,,,0.889,1,,,,,,,,,,,,,,z,1,0.889,-0.119669876,-0.290921596,1,0,0,0.649,,-0.119669876,-0.290921596,0,0,0,,0,133,133,99,1,BACKY,C,z,z,./images/BACKY.png,,,,,,,,,,,,,,,,,,,,,,,,,,,,,,,,,,,
,,,,,,,,,,,,,,,,,5e0f69380fb798000a199566,,2022-02-12_16h45.18.318,lexical_decision_task_DD_L6,2021.2.3,Win32,60.0240096,,,,,,,,,,,0.727,1,,,,,,,,,,,,,,z,1,0.727,,,,,,,,-0.119669876,-0.290921596,0,0,0,,0,134,134,146,1,MOOST,LB,z,z,./images/MOOSTLB.png,,,,,,,,,,,,,,,,,,,,,,,,,,,,,,,,,,,
,,,,,,,,,,,,,,,,,5e0f69380fb798000a199566,,2022-02-12_16h45.18.318,lexical_decision_task_DD_L6,2021.2.3,Win32,60.0240096,,,,,,,,,,,0.821,1,,,,,,,,,,,,,,z,1,0.821,,,,,,,,-0.119669876,-0.290921596,0,0,0,,0,135,135,139,1,BLEAR,HB,z,z,./images/BLEARHB.png,,,,,,,,,,,,,,,,,,,,,,,,,,,,,,,,,,,
,,,,,,,,,,,,,,,,,5e0f69380fb798000a199566,,2022-02-12_16h45.18.318,lexical_decision_task_DD_L6,2021.2.3,Win32,60.0240096,,,,,,,,,,,0.641,1,,,,,,,,,,,,,,z,1,0.641,,,,,,,,-0.119669876,-0.290921596,0,0,0,,0,136,136,137,1,JOOST,LB,z,z,./images/JOOSTLB.png,,,,,,,,,,,,,,,,,,,,,,,,,,,,,,,,,,,
,,,,,,,,,,,,,,,,,5e0f69380fb798000a199566,,2022-02-12_16h45.18.318,lexical_decision_task_DD_L6,2021.2.3,Win32,60.0240096,,,,,,,,,,,0.717,1,,,,,,,,,,,,,,z,1,0.717,,,,,,,,-0.119669876,-0.290921596,0,0,0,,0,137,137,112,1,MYING,HB,z,z,./images/MYINGHB.png,,,,,,,,,,,,,,,,,,,,,,,,,,,,,,,,,,,
,,,,,,,,,,,,,,,,,5e0f69380fb798000a199566,,2022-02-12_16h45.18.318,lexical_decision_task_DD_L6,2021.2.3,Win32,60.0240096,,,,,,,,,,,0.958,1,,,,,,,,,,,,,,z,1,0.958,,,,,,,,-0.119669876,-0.290921596,0,0,0,,0,138,138,162,1,LEICH,C,z,z,./images/LEICH.png,,,,,,,,,,,,,,,,,,,,,,,,,,,,,,,,,,,
,,,,,,,,,,,,,,,,,5e0f69380fb798000a199566,,2022-02-12_16h45.18.318,lexical_decision_task_DD_L6,2021.2.3,Win32,60.0240096,,,,,,,,,,,0.702,1,,,,,,,,,,,,,,z,1,0.702,,,,,,,,-0.119669876,-0.290921596,0,0,0,,0,139,139,161,1,BLAPS,LB,z,z,./images/BLAPSLB.png,,,,,,,,,,,,,,,,,,,,,,,,,,,,,,,,,,,
,,,,,,,,,,,,,,,,,5e0f69380fb798000a199566,,2022-02-12_16h45.18.318,lexical_decision_task_DD_L6,2021.2.3,Win32,60.0240096,,,,,,,,,,,1.693,1,,,,,,,,,,,,,,m,1,1.693,-0.119669876,-0.290921596,1,0,0,1.198,,-0.119669876,-0.292297111,0,0,0,,0,140,140,53,1,POSTER,HB,m,m,./images/POSTERHB.png,,,,,,,,,,,,,,,,,,,,,,,,,,,,,,,,,,,
,,,,,,,,,,,,,,,,,5e0f69380fb798000a199566,,2022-02-12_16h45.18.318,lexical_decision_task_DD_L6,2021.2.3,Win32,60.0240096,,,,,,,,,,,1.3,1,,,,,,,,,,,,,,z,1,1.3,-0.119669876,-0.288170564,1,0,0,0.812,,-0.119669876,-0.288170564,0,0,0,,0,141,141,92,1,PAIMS,LB,z,z,./images/PAIMSLB.png,,,,,,,,,,,,,,,,,,,,,,,,,,,,,,,,,,,
,,,,,,,,,,,,,,,,,5e0f69380fb798000a199566,,2022-02-12_16h45.18.318,lexical_decision_task_DD_L6,2021.2.3,Win32,60.0240096,,,,,,,,,,,0.875,1,,,,,,,,,,,,,,z,1,0.875,,,,,,,,-0.119669876,-0.288170564,0,0,0,,0,142,142,118,1,BAVEL,HB,z,z,./images/BAVELHB.png,,,,,,,,,,,,,,,,,,,,,,,,,,,,,,,,,,,
,,,,,,,,,,,,,,,,,5e0f69380fb798000a199566,,2022-02-12_16h45.18.318,lexical_decision_task_DD_L6,2021.2.3,Win32,60.0240096,,,,,,,,,,,1.235,1,,,,,,,,,,,,,,m,1,1.235,-0.119669876,-0.288170564,1,0,0,0.779,,-0.119669876,-0.288170564,0,0,0,,0,143,143,72,1,FLASK,LB,m,m,./images/FLASKLB.png,,,,,,,,,,,,,,,,,,,,,,,,,,,,,,,,,,,
,,,,,,,,,,,,,,,,,5e0f69380fb798000a199566,,2022-02-12_16h45.18.318,lexical_decision_task_DD_L6,2021.2.3,Win32,60.0240096,,,,,,,,,,,0.804,1,,,,,,,,,,,,,,m,1,0.804,-0.119669876,-0.288170564,1,0,0,0.681,,-0.119669876,-0.288170564,0,0,0,,0,144,144,54,1,CHERRY,LB,m,m,./images/CHERRYLB.png,,,,,,,,,,,,,,,,,,,,,,,,,,,,,,,,,,,
,,,,,,,,,,,,,,,,,5e0f69380fb798000a199566,,2022-02-12_16h45.18.318,lexical_decision_task_DD_L6,2021.2.3,Win32,60.0240096,,,,,,,,,,,1.205,1,,,,,,,,,,,,,,z,1,1.205,-0.119669876,-0.288170564,1,0,0,0.698,,-0.119669876,-0.288170564,0,0,0,,0,145,145,135,1,JOODY,C,z,z,./images/JOODY.png,,,,,,,,,,,,,,,,,,,,,,,,,,,,,,,,,,,
,,,,,,,,,,,,,,,,,5e0f69380fb798000a199566,,2022-02-12_16h45.18.318,lexical_decision_task_DD_L6,2021.2.3,Win32,60.0240096,,,,,,,,,,,0.909,1,,,,,,,,,,,,,,z,1,0.909,,,,,,,,-0.119669876,-0.288170564,0,0,0,,0,146,146,120,1,RINED,C,z,z,./images/RINED.png,,,,,,,,,,,,,,,,,,,,,,,,,,,,,,,,,,,
,,,,,,,,,,,,,,,,,5e0f69380fb798000a199566,,2022-02-12_16h45.18.318,lexical_decision_task_DD_L6,2021.2.3,Win32,60.0240096,,,,,,,,,,,1.306,1,,,,,,,,,,,,,,m,1,1.306,-0.119669876,-0.288170564,1,0,0,0.932,,-0.119669876,-0.288170564,0,0,0,,0,147,147,24,1,FLESH,LB,m,m,./images/FLESHLB.png,,,,,,,,,,,,,,,,,,,,,,,,,,,,,,,,,,,
,,,,,,,,,,,,,,,,,5e0f69380fb798000a199566,,2022-02-12_16h45.18.318,lexical_decision_task_DD_L6,2021.2.3,Win32,60.0240096,,,,,,,,,,,0.836,1,,,,,,,,,,,,,,m,1,0.836,,,,,,,,-0.119669876,-0.297799175,0,0,0,,0,148,148,57,1,FERRY,LB,m,m,./images/FERRYLB.png,,,,,,,,,,,,,,,,,,,,,,,,,,,,,,,,,,,
,,,,,,,,,,,,,,,,,5e0f69380fb798000a199566,,2022-02-12_16h45.18.318,lexical_decision_task_DD_L6,2021.2.3,Win32,60.0240096,,,,,,,,,,,1.754,1,,,,,,,,,,,,,,z,1,1.754,-0.119669876,-0.297799175,1,0,0,1.348,,-0.119669876,-0.297799175,0,0,0,,0,149,149,107,1,FASKS,LB,z,z,./images/FASKSLB.png,,,,,,,,,,,,,,,,,,,,,,,,,,,,,,,,,,,
,,,,,,,,,,,,,,,,,5e0f69380fb798000a199566,,2022-02-12_16h45.18.318,lexical_decision_task_DD_L6,2021.2.3,Win32,60.0240096,,,,,,,,,,,1.268,1,,,,,,,,,,,,,,m,1,1.268,-0.119669876,-0.297799175,1,0,0,0.947,,-0.119669876,-0.297799175,0,0,0,,0,150,150,40,1,SNAKE,C,m,m,./images/SNAKE.png,,,,,,,,,,,,,,,,,,,,,,,,,,,,,,,,,,,
,,,,,,,,,,,,,,,,,5e0f69380fb798000a199566,,2022-02-12_16h45.18.318,lexical_decision_task_DD_L6,2021.2.3,Win32,60.0240096,,,,,,,,,,,1.763,1,,,,,,,,,,,,,,z,1,1.763,-0.119669876,-0.297799175,1,0,0,0.931,,-0.119669876,-0.297799175,0,0,0,,0,151,151,154,1,THINT,HB,z,z,./images/THINTHB.png,,,,,,,,,,,,,,,,,,,,,,,,,,,,,,,,,,,
,,,,,,,,,,,,,,,,,5e0f69380fb798000a199566,,2022-02-12_16h45.18.318,lexical_decision_task_DD_L6,2021.2.3,Win32,60.0240096,,,,,,,,,,,0.904,1,,,,,,,,,,,,,,z,1,0.904,,,,,,,,-0.119669876,-0.297799175,0,0,0,,0,152,152,90,1,NEAST,C,z,z,./images/NEAST.png,,,,,,,,,,,,,,,,,,,,,,,,,,,,,,,,,,,
,,,,,,,,,,,,,,,,,5e0f69380fb798000a199566,,2022-02-12_16h45.18.318,lexical_decision_task_DD_L6,2021.2.3,Win32,60.0240096,,,,,,,,,,,0.973,1,,,,,,,,,,,,,,z,1,0.973,,,,,,,,-0.119669876,-0.297799175,0,0,0,,0,153,153,93,1,SMONE,C,z,z,./images/SMONE.png,,,,,,,,,,,,,,,,,,,,,,,,,,,,,,,,,,,
,,,,,,,,,,,,,,,,,5e0f69380fb798000a199566,,2022-02-12_16h45.18.318,lexical_decision_task_DD_L6,2021.2.3,Win32,60.0240096,,,,,,,,,,,0.629,0,,,,,,,,,,,,,,z,0,0.629,,,,,,,,-0.119669876,-0.297799175,0,0,0,,0,154,154,25,1,CHALK,C,m,m,./images/CHALK.png,,,,,,,,,,,,,,,,,,,,,,,,,,,,,,,,,,,
,,,,,,,,,,,,,,,,,5e0f69380fb798000a199566,,2022-02-12_16h45.18.318,lexical_decision_task_DD_L6,2021.2.3,Win32,60.0240096,,,,,,,,,,,1.031,1,,,,,,,,,,,,,,z,1,1.031,,,,,,,,-0.119669876,-0.297799175,0,0,0,,0,155,155,115,1,MAWNS,HB,z,z,./images/MAWNSHB.png,,,,,,,,,,,,,,,,,,,,,,,,,,,,,,,,,,,
,,,,,,,,,,,,,,,,,5e0f69380fb798000a199566,,2022-02-12_16h45.18.318,lexical_decision_task_DD_L6,2021.2.3,Win32,60.0240096,,,,,,,,,,,1.231,1,,,,,,,,,,,,,,m,1,1.231,-0.119669876,-0.297799175,1,0,0,0.831,,-0.119669876,-0.297799175,0,0,0,,0,156,156,16,1,GRAPE,C,m,m,./images/GRAPE.png,,,,,,,,,,,,,,,,,,,,,,,,,,,,,,,,,,,
,,,,,,,,,,,,,,,,,5e0f69380fb798000a199566,,2022-02-12_16h45.18.318,lexical_decision_task_DD_L6,2021.2.3,Win32,60.0240096,,,,,,,,,,,0.767,1,,,,,,,,,,,,,,m,1,0.767,-0.119669876,-0.297799175,1,0,0,0.798,,-0.119669876,-0.297799175,1,0,0,,0,157,157,39,1,CANDY,LB,m,m,./images/CANDYLB.png,,,,,,,,,,,,,,,,,,,,,,,,,,,,,,,,,,,
,,,,,,,,,,,,,,,,,5e0f69380fb798000a199566,,2022-02-12_16h45.18.318,lexical_decision_task_DD_L6,2021.2.3,Win32,60.0240096,,,,,,,,,,,1.186,1,,,,,,,,,,,,,,z,1,1.186,-0.119669876,-0.297799175,1,0,0,0.746,,-0.119669876,-0.297799175,0,0,0,,0,158,158,108,1,GRUET,C,z,z,./images/GRUET.png,,,,,,,,,,,,,,,,,,,,,,,,,,,,,,,,,,,
,,,,,,,,,,,,,,,,,5e0f69380fb798000a199566,,2022-02-12_16h45.18.318,lexical_decision_task_DD_L6,2021.2.3,Win32,60.0240096,,,,,,,,,,,1.207,1,,,,,,,,,,,,,,m,1,1.207,-0.119669876,-0.297799175,1,0,0,0.964,,-0.119669876,-0.300550206,0,0,0,,0,159,159,73,1,GLOVE,C,m,m,./images/GLOVE.png,,,,,,,,,,,,,,,,,,,,,,,,,,,,,,,,,,,
,,,,,,,,,,,,,,,,,5e0f69380fb798000a199566,,2022-02-12_16h45.18.318,lexical_decision_task_DD_L6,2021.2.3,Win32,60.0240096,,,,,,,,,,,1.256,1,,,,,,,,,,,,,,z,1,1.256,-0.11829436,-0.304676754,1,0,0,0.998,,-0.11829436,-0.304676754,0,0,0,,0,160,160,131,1,NACES,LB,z,z,./images/NACESLB.png,,,,,,,,,,,,,,,,,,,,,,,,,,,,,,,,,,,
,,,,,,,,,,,,,,,,,5e0f69380fb798000a199566,,2022-02-12_16h45.18.318,lexical_decision_task_DD_L6,2021.2.3,Win32,60.0240096,,,,,,,,,,,1.342,1,,,,,,,,,,,,,,m,1,1.342,-0.11829436,-0.304676754,1,0,0,1.147,,-0.11829436,-0.304676754,0,0,0,,0,161,161,68,1,VALLEY,HB,m,m,./images/VALLEYHB.png,,,,,,,,,,,,,,,,,,,,,,,,,,,,,,,,,,,
,,,,,,,,,,,,,,,,,5e0f69380fb798000a199566,,2022-02-12_16h45.18.318,lexical_decision_task_DD_L6,2021.2.3,Win32,60.0240096,,,,,,,,,,,0.679,1,,,,,,,,,,,,,,m,1,0.679,-0.11829436,-0.304676754,1,0,0,0.698,,-0.11829436,-0.304676754,1,0,0,,0,162,162,48,1,SHIELD,LB,m,m,./images/SHIELDLB.png,,,,,,,,,,,,,,,,,,,,,,,,,,,,,,,,,,,
,,,,,,,,,,,,,,,,,5e0f69380fb798000a199566,,2022-02-12_16h45.18.318,lexical_decision_task_DD_L6,2021.2.3,Win32,60.0240096,,,,,,,,,,,0.867,1,,,,,,,,,,,,,,m,1,0.867,-0.11829436,-0.304676754,1,0,0,0.814,,-0.11829436,-0.304676754,1,0,0,,0,163,163,82,1,PEBBLE,C,m,m,./images/PEBBLE.png,,,,,,,,,,,,,,,,,,,,,,,,,,,,,,,,,,,
,,,,,,,,,,,,,,,,,5e0f69380fb798000a199566,,2022-02-12_16h45.18.318,lexical_decision_task_DD_L6,2021.2.3,Win32,60.0240096,,,,,,,,,,,1.16,1,,,,,,,,,,,,,,z,1,1.16,-0.11829436,-0.304676754,1,0,0,0.714,,-0.11829436,-0.304676754,0,0,0,,0,164,164,134,1,TROSS,LB,z,z,./images/TROSSLB.png,,,,,,,,,,,,,,,,,,,,,,,,,,,,,,,,,,,
,,,,,,,,,,,,,,,,,5e0f69380fb798000a199566,,2022-02-12_16h45.18.318,lexical_decision_task_DD_L6,2021.2.3,Win32,60.0240096,,,,,,,,,,,1.134,1,,,,,,,,,,,,,,m,1,1.134,-0.11829436,-0.304676754,1,0,0,0.715,,-0.116918845,-0.318431912,0,0,0,,0,165,165,52,1,DESERT,C,m,m,./images/DESERT.png,,,,,,,,,,,,,,,,,,,,,,,,,,,,,,,,,,,
,,,,,,,,,,,,,,,,,5e0f69380fb798000a199566,,2022-02-12_16h45.18.318,lexical_decision_task_DD_L6,2021.2.3,Win32,60.0240096,,,,,,,,,,,0.717,1,,,,,,,,,,,,,,m,1,0.717,-0.116918845,-0.312929849,1,0,0,0.681,,-0.116918845,-0.312929849,1,0,0,,0,166,166,1,1,TOWEL,C,m,m,./images/TOWEL.png,,,,,,,,,,,,,,,,,,,,,,,,,,,,,,,,,,,
,,,,,,,,,,,,,,,,,5e0f69380fb798000a199566,,2022-02-12_16h45.18.318,lexical_decision_task_DD_L6,2021.2.3,Win32,60.0240096,,,,,,,,,,,0.989,0,,,,,,,,,,,,,,m,0,0.989,,,,,,,,-0.116918845,-0.312929849,0,0,0,,0,167,167,123,1,SEDGE,C,z,z,./images/SEDGE.png,,,,,,,,,,,,,,,,,,,,,,,,,,,,,,,,,,,
,,,,,,,,,,,,,,,,,5e0f69380fb798000a199566,,2022-02-12_16h45.18.318,lexical_decision_task_DD_L6,2021.2.3,Win32,60.0240096,,,,,,,,,,,,,,,,,,,,,,,,,,,,,,,,,,,,,,,,,,,,,,,,How likely will it be that you will recognize the words presented slighly blurred on a scale of 0 (not likely) to 100 (most likely)?,,,,,-0.009114583,-0.376302083,1,0,0,jol_adv,2,8.444,0,0,0,1,1,,,,,,,,,,,,,,,,,,,,,
,,,,,,,,,,,,,,,,,5e0f69380fb798000a199566,,2022-02-12_16h45.18.318,lexical_decision_task_DD_L6,2021.2.3,Win32,60.0240096,,,,,,,,,,,,,,,,,,,,,,,,,,,,,,,,,,,,,,,,,,,,,,,,How likely will it be that you will recognize the words presented clearly on a scale of 0 (not likely) to 100 (most likely)?,,,,,,,,,,,6,10.12,0,1,1,0,1,,,,,,,,,,,,,,,,,,,,,
,,,,,,,,,,,,,,,,,5e0f69380fb798000a199566,,2022-02-12_16h45.18.318,lexical_decision_task_DD_L6,2021.2.3,Win32,60.0240096,,,,,,,,,,,,,,,,,,,,,,,,,,,,,,,,,,,,,,,,,,,,,,,,How likely will it be that you will recognize the words presented very blurred on a scale of 0 (not likely) to 100 (most likely)?,,,,,,,,,,,1,8.044,0,2,2,2,1,,,,,,,,,,,,,,,,,,,,,
,,-0.0546875,-0.37890625,1,0,0,,,,,,1,test,"In the next phase you will be presented with the words from the the first phase. Your job is to decide whether you remember seeing the word or not. If you remember seeing the word press ""old"" or type ""m"". If you do not remember seeing the word press ""new"" or type ""z"". Please press the space bar or click on continue to begin. ",,,5e0f69380fb798000a199566,,2022-02-12_16h45.18.318,lexical_decision_task_DD_L6,2021.2.3,Win32,60.0240096,,,,,,,,,,,,,,,,,,,,,,,,,,,,,,,,,,,,,,,,,,,,,,,,,,,,,,,,,,,,,,,,,,instr_done_button,0,0,0,0,1,,,,,,,,,,,,,,,
space,8.448,-0.0546875,-0.37890625,0,0,0,,,,,,1,test,"In the next phase you will be presented with the words from the the first phase. Your job is to decide whether you remember seeing the word or not. If you remember seeing the word press ""old"" or type ""m"". If you do not remember seeing the word press ""new"" or type ""z"". Please press the space bar or click on continue to begin. ",,,5e0f69380fb798000a199566,,2022-02-12_16h45.18.318,lexical_decision_task_DD_L6,2021.2.3,Win32,60.0240096,,,,,,,,,,,,,,,,,,,,,,,,,,,,,,,,,,,,,,,,,,,,,,,,,,,,,,,,,,,,,,,,,,,1,0,1,0,1,,,,,,,,,,,,,,,
,,-0.001302083,-0.391927083,1,0,0,,,,,,1,test,"In the next phase you will be presented with the words from the the first phase. Your job is to decide whether you remember seeing the word or not. If you remember seeing the word press ""old"" or type ""m"". If you do not remember seeing the word press ""new"" or type ""z"". Please press the space bar or click on continue to begin. ",,,5e0f69380fb798000a199566,,2022-02-12_16h45.18.318,lexical_decision_task_DD_L6,2021.2.3,Win32,60.0240096,,,,,,,,,,,,,,,,,,,,,,,,,,,,,,,,,,,,,,,,,,,,,,,,,,,,,,,,,,,,,,,,,,instr_done_button,2,0,2,0,1,,,,,,,,,,,,,,,
space,2.881,-0.1484375,-0.067708333,1,0,0,,,,,,1,test,"In the next phase you will be presented with the words from the the first phase. Your job is to decide whether you remember seeing the word or not. If you remember seeing the word press ""old"" or type ""m"". If you do not remember seeing the word press ""new"" or type ""z"". Please press the space bar or click on continue to begin. ",,,5e0f69380fb798000a199566,,2022-02-12_16h45.18.318,lexical_decision_task_DD_L6,2021.2.3,Win32,60.0240096,,,,,,,,,,,,,,,,,,,,,,,,,,,,,,,,,,,,,,,,,,,,,,,,,,,,,,,,,,,,,,,,,,,3,0,3,0,1,,,,,,,,,,,,,,,
space,0.485,-0.1484375,-0.067708333,0,0,0,,,,,,1,test,"In the next phase you will be presented with the words from the the first phase. Your job is to decide whether you remember seeing the word or not. If you remember seeing the word press ""old"" or type ""m"". If you do not remember seeing the word press ""new"" or type ""z"". Please press the space bar or click on continue to begin. ",,,5e0f69380fb798000a199566,,2022-02-12_16h45.18.318,lexical_decision_task_DD_L6,2021.2.3,Win32,60.0240096,,,,,,,,,,,,,,,,,,,,,,,,,,,,,,,,,,,,,,,,,,,,,,,,,,,,,,,,,,,,,,,,,,,4,0,4,0,1,,,,,,,,,,,,,,,
,,,,,,,,,,,,,,,,,5e0f69380fb798000a199566,,2022-02-12_16h45.18.318,lexical_decision_task_DD_L6,2021.2.3,Win32,60.0240096,,,,,,,,,,,2.487,1,,,,,,,,,,,,,,,,,,,,,,,,-0.041666667,-0.23828125,0,0,0,,,,,,,CRADLE,HB,z,y,./images/CRADLEHB.png,,,,,,,,,,,,,,,,,,,,,z,1,2.487,,,,,,,,0,0,0,104,1
,,,,,,,,,,,,,,,,,5e0f69380fb798000a199566,,2022-02-12_16h45.18.318,lexical_decision_task_DD_L6,2021.2.3,Win32,60.0240096,,,,,,,,,,,2.038,1,,,,,,,,,,,,,,,,,,,,,,,,-0.049518569,-0.264786795,0,0,0,,,,,,,PACKET,HB,z,y,./images/PACKETHB.png,,,,,,,,,,,,,,,,,,,,,z,1,2.038,-0.049518569,-0.264786795,1,0,0,1.413,,0,1,1,140,1
,,,,,,,,,,,,,,,,,5e0f69380fb798000a199566,,2022-02-12_16h45.18.318,lexical_decision_task_DD_L6,2021.2.3,Win32,60.0240096,,,,,,,,,,,1.194,1,,,,,,,,,,,,,,,,,,,,,,,,-0.049518569,-0.264786795,0,0,0,,,,,,,CRUST,C,z,y,./images/CRUST.png,,,,,,,,,,,,,,,,,,,,,z,1,1.194,-0.049518569,-0.264786795,1,0,0,0.965,,0,2,2,163,1
,,,,,,,,,,,,,,,,,5e0f69380fb798000a199566,,2022-02-12_16h45.18.318,lexical_decision_task_DD_L6,2021.2.3,Win32,60.0240096,,,,,,,,,,,1.39,1,,,,,,,,,,,,,,,,,,,,,,,,-0.049518569,-0.264786795,0,0,0,,,,,,,HAMMER,LB,m,y,./images/HAMMERLB.png,,,,,,,,,,,,,,,,,,,,,m,1,1.39,-0.049518569,-0.264786795,1,0,0,0.947,,0,3,3,75,1
,,,,,,,,,,,,,,,,,5e0f69380fb798000a199566,,2022-02-12_16h45.18.318,lexical_decision_task_DD_L6,2021.2.3,Win32,60.0240096,,,,,,,,,,,1.458,0,,,,,,,,,,,,,,,,,,,,,,,,-0.049518569,-0.264786795,0,0,0,,,,,,,PENCE,C,z,y,./images/PENCE.png,,,,,,,,,,,,,,,,,,,,,m,0,1.458,-0.049518569,-0.264786795,1,0,0,0.981,,0,4,4,100,1
,,,,,,,,,,,,,,,,,5e0f69380fb798000a199566,,2022-02-12_16h45.18.318,lexical_decision_task_DD_L6,2021.2.3,Win32,60.0240096,,,,,,,,,,,1.333,1,,,,,,,,,,,,,,,,,,,,,,,,-0.049518569,-0.264786795,0,0,0,,,,,,,ATTIC,LB,z,y,./images/ATTICLB.png,,,,,,,,,,,,,,,,,,,,,z,1,1.333,,,,,,,,0,5,5,111,1
,,,,,,,,,,,,,,,,,5e0f69380fb798000a199566,,2022-02-12_16h45.18.318,lexical_decision_task_DD_L6,2021.2.3,Win32,60.0240096,,,,,,,,,,,1.44,0,,,,,,,,,,,,,,,,,,,,,,,,-0.049518569,-0.264786795,0,0,0,,,,,,,MUFFIN,C,z,y,./images/MUFFIN.png,,,,,,,,,,,,,,,,,,,,,m,0,1.44,,,,,,,,0,6,6,139,1
,,,,,,,,,,,,,,,,,5e0f69380fb798000a199566,,2022-02-12_16h45.18.318,lexical_decision_task_DD_L6,2021.2.3,Win32,60.0240096,,,,,,,,,,,1.524,1,,,,,,,,,,,,,,,,,,,,,,,,-0.049518569,-0.264786795,0,0,0,,,,,,,LIZARD,HB,z,y,./images/LIZARDHB.png,,,,,,,,,,,,,,,,,,,,,z,1,1.524,,,,,,,,0,7,7,128,1
,,,,,,,,,,,,,,,,,5e0f69380fb798000a199566,,2022-02-12_16h45.18.318,lexical_decision_task_DD_L6,2021.2.3,Win32,60.0240096,,,,,,,,,,,1.21,1,,,,,,,,,,,,,,,,,,,,,,,,-0.049518569,-0.264786795,0,0,0,,,,,,,BUTTER,LB,m,y,./images/BUTTERLB.png,,,,,,,,,,,,,,,,,,,,,m,1,1.21,-0.049518569,-0.264786795,1,0,0,0.909,,0,8,8,27,1
,,,,,,,,,,,,,,,,,5e0f69380fb798000a199566,,2022-02-12_16h45.18.318,lexical_decision_task_DD_L6,2021.2.3,Win32,60.0240096,,,,,,,,,,,1.17,1,,,,,,,,,,,,,,,,,,,,,,,,-0.049518569,-0.264786795,0,0,0,,,,,,,FOLDER,LB,z,y,./images/FOLDERLB.png,,,,,,,,,,,,,,,,,,,,,z,1,1.17,-0.049518569,-0.264786795,1,0,0,0.829,,0,9,9,126,1
,,,,,,,,,,,,,,,,,5e0f69380fb798000a199566,,2022-02-12_16h45.18.318,lexical_decision_task_DD_L6,2021.2.3,Win32,60.0240096,,,,,,,,,,,1.18,1,,,,,,,,,,,,,,,,,,,,,,,,-0.049518569,-0.264786795,0,0,0,,,,,,,BANANA,C,m,y,./images/BANANA.png,,,,,,,,,,,,,,,,,,,,,m,1,1.18,-0.049518569,-0.264786795,1,0,0,0.981,,0,10,10,70,1
,,,,,,,,,,,,,,,,,5e0f69380fb798000a199566,,2022-02-12_16h45.18.318,lexical_decision_task_DD_L6,2021.2.3,Win32,60.0240096,,,,,,,,,,,1.11,1,,,,,,,,,,,,,,,,,,,,,,,,-0.049518569,-0.264786795,0,0,0,,,,,,,URINE,C,z,y,./images/URINE.png,,,,,,,,,,,,,,,,,,,,,z,1,1.11,-0.049518569,-0.264786795,1,0,0,0.782,,0,11,11,154,1
,,,,,,,,,,,,,,,,,5e0f69380fb798000a199566,,2022-02-12_16h45.18.318,lexical_decision_task_DD_L6,2021.2.3,Win32,60.0240096,,,,,,,,,,,1.061,1,,,,,,,,,,,,,,,,,,,,,,,,-0.049518569,-0.264786795,1,0,0,,,,,,,MUMMY,C,m,y,./images/MUMMY.png,,,,,,,,,,,,,,,,,,,,,m,1,1.061,-0.049518569,-0.264786795,1,0,0,0.662,,0,12,12,46,1
,,,,,,,,,,,,,,,,,5e0f69380fb798000a199566,,2022-02-12_16h45.18.318,lexical_decision_task_DD_L6,2021.2.3,Win32,60.0240096,,,,,,,,,,,1.14,1,,,,,,,,,,,,,,,,,,,,,,,,-0.049518569,-0.264786795,0,0,0,,,,,,,JAGUAR,LB,z,y,./images/JAGUARLB.png,,,,,,,,,,,,,,,,,,,,,z,1,1.14,-0.049518569,-0.264786795,1,0,0,0.997,,0,13,13,102,1
,,,,,,,,,,,,,,,,,5e0f69380fb798000a199566,,2022-02-12_16h45.18.318,lexical_decision_task_DD_L6,2021.2.3,Win32,60.0240096,,,,,,,,,,,1.168,1,,,,,,,,,,,,,,,,,,,,,,,,-0.049518569,-0.264786795,0,0,0,,,,,,,INFANT,C,z,y,./images/INFANT.png,,,,,,,,,,,,,,,,,,,,,z,1,1.168,,,,,,,,0,14,14,160,1
,,,,,,,,,,,,,,,,,5e0f69380fb798000a199566,,2022-02-12_16h45.18.318,lexical_decision_task_DD_L6,2021.2.3,Win32,60.0240096,,,,,,,,,,,1.281,1,,,,,,,,,,,,,,,,,,,,,,,,-0.049518569,-0.264786795,0,0,0,,,,,,,RULER,C,m,y,./images/RULER.png,,,,,,,,,,,,,,,,,,,,,m,1,1.281,-0.049518569,-0.264786795,1,0,0,0.864,,0,15,15,79,1
,,,,,,,,,,,,,,,,,5e0f69380fb798000a199566,,2022-02-12_16h45.18.318,lexical_decision_task_DD_L6,2021.2.3,Win32,60.0240096,,,,,,,,,,,0.93,0,,,,,,,,,,,,,,,,,,,,,,,,-0.049518569,-0.264786795,0,0,0,,,,,,,JUNGLE,HB,z,y,./images/JUNGLEHB.png,,,,,,,,,,,,,,,,,,,,,m,0,0.93,,,,,,,,0,16,16,167,1
,,,,,,,,,,,,,,,,,5e0f69380fb798000a199566,,2022-02-12_16h45.18.318,lexical_decision_task_DD_L6,2021.2.3,Win32,60.0240096,,,,,,,,,,,0.798,1,,,,,,,,,,,,,,,,,,,,,,,,-0.049518569,-0.264786795,0,0,0,,,,,,,STEAK,C,m,y,./images/STEAK.png,,,,,,,,,,,,,,,,,,,,,m,1,0.798,,,,,,,,0,17,17,31,1
,,,,,,,,,,,,,,,,,5e0f69380fb798000a199566,,2022-02-12_16h45.18.318,lexical_decision_task_DD_L6,2021.2.3,Win32,60.0240096,,,,,,,,,,,0.801,1,,,,,,,,,,,,,,,,,,,,,,,,-0.049518569,-0.264786795,1,0,0,,,,,,,STATUE,LB,m,y,./images/STATUELB.png,,,,,,,,,,,,,,,,,,,,,m,1,0.801,-0.049518569,-0.264786795,1,0,0,0.815,,0,18,18,66,1
,,,,,,,,,,,,,,,,,5e0f69380fb798000a199566,,2022-02-12_16h45.18.318,lexical_decision_task_DD_L6,2021.2.3,Win32,60.0240096,,,,,,,,,,,0.763,1,,,,,,,,,,,,,,,,,,,,,,,,-0.049518569,-0.264786795,0,0,0,,,,,,,CLOTH,HB,m,y,./images/CLOTHHB.png,,,,,,,,,,,,,,,,,,,,,m,1,0.763,,,,,,,,0,19,19,23,1
,,,,,,,,,,,,,,,,,5e0f69380fb798000a199566,,2022-02-12_16h45.18.318,lexical_decision_task_DD_L6,2021.2.3,Win32,60.0240096,,,,,,,,,,,0.939,1,,,,,,,,,,,,,,,,,,,,,,,,-0.056396149,-0.264786795,0,0,0,,,,,,,DANCER,LB,m,y,./images/DANCERLB.png,,,,,,,,,,,,,,,,,,,,,m,1,0.939,,,,,,,,0,20,20,21,1
,,,,,,,,,,,,,,,,,5e0f69380fb798000a199566,,2022-02-12_16h45.18.318,lexical_decision_task_DD_L6,2021.2.3,Win32,60.0240096,,,,,,,,,,,1.204,1,,,,,,,,,,,,,,,,,,,,,,,,-0.056396149,-0.264786795,0,0,0,,,,,,,JELLY,C,z,y,./images/JELLY.png,,,,,,,,,,,,,,,,,,,,,z,1,1.204,,,,,,,,0,21,21,148,1
,,,,,,,,,,,,,,,,,5e0f69380fb798000a199566,,2022-02-12_16h45.18.318,lexical_decision_task_DD_L6,2021.2.3,Win32,60.0240096,,,,,,,,,,,1.281,1,,,,,,,,,,,,,,,,,,,,,,,,-0.056396149,-0.264786795,0,0,0,,,,,,,SHIELD,LB,m,y,./images/SHIELDLB.png,,,,,,,,,,,,,,,,,,,,,m,1,1.281,-0.056396149,-0.264786795,1,0,0,1.16,,0,22,22,48,1
,,,,,,,,,,,,,,,,,5e0f69380fb798000a199566,,2022-02-12_16h45.18.318,lexical_decision_task_DD_L6,2021.2.3,Win32,60.0240096,,,,,,,,,,,0.71,1,,,,,,,,,,,,,,,,,,,,,,,,-0.056396149,-0.264786795,0,0,0,,,,,,,TOWEL,C,m,y,./images/TOWEL.png,,,,,,,,,,,,,,,,,,,,,m,1,0.71,,,,,,,,0,23,23,1,1
,,,,,,,,,,,,,,,,,5e0f69380fb798000a199566,,2022-02-12_16h45.18.318,lexical_decision_task_DD_L6,2021.2.3,Win32,60.0240096,,,,,,,,,,,1.33,1,,,,,,,,,,,,,,,,,,,,,,,,-0.056396149,-0.264786795,0,0,0,,,,,,,CRUMB,HB,z,y,./images/CRUMBHB.png,,,,,,,,,,,,,,,,,,,,,z,1,1.33,,,,,,,,0,24,24,113,1
,,,,,,,,,,,,,,,,,5e0f69380fb798000a199566,,2022-02-12_16h45.18.318,lexical_decision_task_DD_L6,2021.2.3,Win32,60.0240096,,,,,,,,,,,1.529,1,,,,,,,,,,,,,,,,,,,,,,,,-0.056396149,-0.264786795,0,0,0,,,,,,,CHERRY,LB,m,y,./images/CHERRYLB.png,,,,,,,,,,,,,,,,,,,,,m,1,1.529,-0.056396149,-0.264786795,1,0,0,0.897,,0,25,25,54,1
,,,,,,,,,,,,,,,,,5e0f69380fb798000a199566,,2022-02-12_16h45.18.318,lexical_decision_task_DD_L6,2021.2.3,Win32,60.0240096,,,,,,,,,,,1.088,1,,,,,,,,,,,,,,,,,,,,,,,,-0.056396149,-0.264786795,0,0,0,,,,,,,ARROW,LB,m,y,./images/ARROWLB.png,,,,,,,,,,,,,,,,,,,,,m,1,1.088,-0.056396149,-0.264786795,1,0,0,0.93,,0,26,26,69,1
,,,,,,,,,,,,,,,,,5e0f69380fb798000a199566,,2022-02-12_16h45.18.318,lexical_decision_task_DD_L6,2021.2.3,Win32,60.0240096,,,,,,,,,,,1.112,1,,,,,,,,,,,,,,,,,,,,,,,,-0.056396149,-0.264786795,0,0,0,,,,,,,COOKER,LB,z,y,./images/COOKERLB.png,,,,,,,,,,,,,,,,,,,,,z,1,1.112,,,,,,,,0,27,27,153,1
,,,,,,,,,,,,,,,,,5e0f69380fb798000a199566,,2022-02-12_16h45.18.318,lexical_decision_task_DD_L6,2021.2.3,Win32,60.0240096,,,,,,,,,,,0.848,1,,,,,,,,,,,,,,,,,,,,,,,,-0.056396149,-0.264786795,0,0,0,,,,,,,FALCON,C,z,y,./images/FALCON.png,,,,,,,,,,,,,,,,,,,,,z,1,0.848,,,,,,,,0,28,28,112,1
,,,,,,,,,,,,,,,,,5e0f69380fb798000a199566,,2022-02-12_16h45.18.318,lexical_decision_task_DD_L6,2021.2.3,Win32,60.0240096,,,,,,,,,,,0.848,0,,,,,,,,,,,,,,,,,,,,,,,,-0.056396149,-0.264786795,0,0,0,,,,,,,WAGON,C,m,y,./images/WAGON.png,,,,,,,,,,,,,,,,,,,,,z,0,0.848,,,,,,,,0,29,29,7,1
,,,,,,,,,,,,,,,,,5e0f69380fb798000a199566,,2022-02-12_16h45.18.318,lexical_decision_task_DD_L6,2021.2.3,Win32,60.0240096,,,,,,,,,,,0.733,1,,,,,,,,,,,,,,,,,,,,,,,,-0.056396149,-0.264786795,0,0,0,,,,,,,SWING,C,z,y,./images/SWING.png,,,,,,,,,,,,,,,,,,,,,z,1,0.733,,,,,,,,0,30,30,124,1
,,,,,,,,,,,,,,,,,5e0f69380fb798000a199566,,2022-02-12_16h45.18.318,lexical_decision_task_DD_L6,2021.2.3,Win32,60.0240096,,,,,,,,,,,1.287,0,,,,,,,,,,,,,,,,,,,,,,,,-0.056396149,-0.264786795,0,0,0,,,,,,,MAGGOT,LB,z,y,./images/MAGGOTLB.png,,,,,,,,,,,,,,,,,,,,,m,0,1.287,,,,,,,,0,31,31,117,1
,,,,,,,,,,,,,,,,,5e0f69380fb798000a199566,,2022-02-12_16h45.18.318,lexical_decision_task_DD_L6,2021.2.3,Win32,60.0240096,,,,,,,,,,,1.298,1,,,,,,,,,,,,,,,,,,,,,,,,-0.056396149,-0.264786795,0,0,0,,,,,,,WRIST,C,z,y,./images/WRIST.png,,,,,,,,,,,,,,,,,,,,,z,1,1.298,,,,,,,,0,32,32,109,1
,,,,,,,,,,,,,,,,,5e0f69380fb798000a199566,,2022-02-12_16h45.18.318,lexical_decision_task_DD_L6,2021.2.3,Win32,60.0240096,,,,,,,,,,,1.141,1,,,,,,,,,,,,,,,,,,,,,,,,-0.056396149,-0.264786795,0,0,0,,,,,,,JUMPER,HB,m,y,./images/JUMPERHB.png,,,,,,,,,,,,,,,,,,,,,m,1,1.141,,,,,,,,0,33,33,74,1
,,,,,,,,,,,,,,,,,5e0f69380fb798000a199566,,2022-02-12_16h45.18.318,lexical_decision_task_DD_L6,2021.2.3,Win32,60.0240096,,,,,,,,,,,1.229,1,,,,,,,,,,,,,,,,,,,,,,,,-0.056396149,-0.264786795,0,0,0,,,,,,,GREASE,LB,z,y,./images/GREASELB.png,,,,,,,,,,,,,,,,,,,,,z,1,1.229,,,,,,,,0,34,34,99,1
,,,,,,,,,,,,,,,,,5e0f69380fb798000a199566,,2022-02-12_16h45.18.318,lexical_decision_task_DD_L6,2021.2.3,Win32,60.0240096,,,,,,,,,,,0.843,1,,,,,,,,,,,,,,,,,,,,,,,,-0.056396149,-0.264786795,0,0,0,,,,,,,MOSQUE,C,z,y,./images/MOSQUE.png,,,,,,,,,,,,,,,,,,,,,z,1,0.843,,,,,,,,0,35,35,127,1
,,,,,,,,,,,,,,,,,5e0f69380fb798000a199566,,2022-02-12_16h45.18.318,lexical_decision_task_DD_L6,2021.2.3,Win32,60.0240096,,,,,,,,,,,0.987,1,,,,,,,,,,,,,,,,,,,,,,,,-0.060522696,-0.264786795,0,0,0,,,,,,,SWEAT,LB,z,y,./images/SWEATLB.png,,,,,,,,,,,,,,,,,,,,,z,1,0.987,,,,,,,,0,36,36,150,1
,,,,,,,,,,,,,,,,,5e0f69380fb798000a199566,,2022-02-12_16h45.18.318,lexical_decision_task_DD_L6,2021.2.3,Win32,60.0240096,,,,,,,,,,,1.2,1,,,,,,,,,,,,,,,,,,,,,,,,-0.060522696,-0.264786795,0,0,0,,,,,,,FLESH,LB,m,y,./images/FLESHLB.png,,,,,,,,,,,,,,,,,,,,,m,1,1.2,,,,,,,,0,37,37,24,1
,,,,,,,,,,,,,,,,,5e0f69380fb798000a199566,,2022-02-12_16h45.18.318,lexical_decision_task_DD_L6,2021.2.3,Win32,60.0240096,,,,,,,,,,,0.784,1,,,,,,,,,,,,,,,,,,,,,,,,-0.060522696,-0.264786795,0,0,0,,,,,,,CASINO,C,m,y,./images/CASINO.png,,,,,,,,,,,,,,,,,,,,,m,1,0.784,,,,,,,,0,38,38,28,1
,,,,,,,,,,,,,,,,,5e0f69380fb798000a199566,,2022-02-12_16h45.18.318,lexical_decision_task_DD_L6,2021.2.3,Win32,60.0240096,,,,,,,,,,,0.77,1,,,,,,,,,,,,,,,,,,,,,,,,-0.060522696,-0.264786795,0,0,0,,,,,,,STAIN,LB,m,y,./images/STAINLB.png,,,,,,,,,,,,,,,,,,,,,m,1,0.77,,,,,,,,0,39,39,6,1
,,,,,,,,,,,,,,,,,5e0f69380fb798000a199566,,2022-02-12_16h45.18.318,lexical_decision_task_DD_L6,2021.2.3,Win32,60.0240096,,,,,,,,,,,0.665,1,,,,,,,,,,,,,,,,,,,,,,,,-0.060522696,-0.264786795,0,0,0,,,,,,,POKER,C,m,y,./images/POKER.png,,,,,,,,,,,,,,,,,,,,,m,1,0.665,,,,,,,,0,40,40,67,1
,,,,,,,,,,,,,,,,,5e0f69380fb798000a199566,,2022-02-12_16h45.18.318,lexical_decision_task_DD_L6,2021.2.3,Win32,60.0240096,,,,,,,,,,,1.202,1,,,,,,,,,,,,,,,,,,,,,,,,-0.024759285,-0.369325997,0,0,0,space,,,,,,KITTEN,LB,z,y,./images/KITTENLB.png,1.631,,,,,,,,,,,,,,,,,,,,z,1,1.202,,,,,,,,0,41,41,129,1
,,,,,,,,,,,,,,,,,5e0f69380fb798000a199566,,2022-02-12_16h45.18.318,lexical_decision_task_DD_L6,2021.2.3,Win32,60.0240096,,,,,,,,,,,1.249,1,,,,,,,,,,,,,,,,,,,,,,,,-0.061898212,-0.267537827,0,0,0,,,,,,,CANYON,C,z,y,./images/CANYON.png,,,,,,,,,,,,,,,,,,,,,z,1,1.249,,,,,,,,0,42,42,118,1
,,,,,,,,,,,,,,,,,5e0f69380fb798000a199566,,2022-02-12_16h45.18.318,lexical_decision_task_DD_L6,2021.2.3,Win32,60.0240096,,,,,,,,,,,1.147,1,,,,,,,,,,,,,,,,,,,,,,,,-0.061898212,-0.267537827,0,0,0,,,,,,,BAMBOO,HB,m,y,./images/BAMBOOHB.png,,,,,,,,,,,,,,,,,,,,,m,1,1.147,,,,,,,,0,43,43,5,1
,,,,,,,,,,,,,,,,,5e0f69380fb798000a199566,,2022-02-12_16h45.18.318,lexical_decision_task_DD_L6,2021.2.3,Win32,60.0240096,,,,,,,,,,,0.719,1,,,,,,,,,,,,,,,,,,,,,,,,-0.061898212,-0.267537827,0,0,0,,,,,,,LLAMA,HB,m,y,./images/LLAMAHB.png,,,,,,,,,,,,,,,,,,,,,m,1,0.719,,,,,,,,0,44,44,35,1
,,,,,,,,,,,,,,,,,5e0f69380fb798000a199566,,2022-02-12_16h45.18.318,lexical_decision_task_DD_L6,2021.2.3,Win32,60.0240096,,,,,,,,,,,1.682,1,,,,,,,,,,,,,,,,,,,,,,,,-0.061898212,-0.267537827,0,0,0,,,,,,,BISHOP,C,m,y,./images/BISHOP.png,,,,,,,,,,,,,,,,,,,,,m,1,1.682,-0.061898212,-0.267537827,1,0,0,0.898,,0,45,45,49,1
,,,,,,,,,,,,,,,,,5e0f69380fb798000a199566,,2022-02-12_16h45.18.318,lexical_decision_task_DD_L6,2021.2.3,Win32,60.0240096,,,,,,,,,,,1.632,1,,,,,,,,,,,,,,,,,,,,,,,,-0.061898212,-0.267537827,0,0,0,,,,,,,CLOWN,C,m,y,./images/CLOWN.png,,,,,,,,,,,,,,,,,,,,,m,1,1.632,-0.061898212,-0.267537827,1,0,0,0.913,,0,46,46,22,1
,,,,,,,,,,,,,,,,,5e0f69380fb798000a199566,,2022-02-12_16h45.18.318,lexical_decision_task_DD_L6,2021.2.3,Win32,60.0240096,,,,,,,,,,,1.177,1,,,,,,,,,,,,,,,,,,,,,,,,-0.061898212,-0.267537827,0,0,0,,,,,,,SUNSET,C,z,y,./images/SUNSET.png,,,,,,,,,,,,,,,,,,,,,z,1,1.177,,,,,,,,0,47,47,166,1
,,,,,,,,,,,,,,,,,5e0f69380fb798000a199566,,2022-02-12_16h45.18.318,lexical_decision_task_DD_L6,2021.2.3,Win32,60.0240096,,,,,,,,,,,1.313,1,,,,,,,,,,,,,,,,,,,,,,,,-0.061898212,-0.267537827,0,0,0,,,,,,,BUNNY,C,m,y,./images/BUNNY.png,,,,,,,,,,,,,,,,,,,,,m,1,1.313,-0.061898212,-0.267537827,1,0,0,0.963,,0,48,48,13,1
,,,,,,,,,,,,,,,,,5e0f69380fb798000a199566,,2022-02-12_16h45.18.318,lexical_decision_task_DD_L6,2021.2.3,Win32,60.0240096,,,,,,,,,,,1.173,0,,,,,,,,,,,,,,,,,,,,,,,,-0.061898212,-0.267537827,0,0,0,,,,,,,BABOON,C,z,y,./images/BABOON.png,,,,,,,,,,,,,,,,,,,,,m,0,1.173,,,,,,,,0,49,49,142,1
,,,,,,,,,,,,,,,,,5e0f69380fb798000a199566,,2022-02-12_16h45.18.318,lexical_decision_task_DD_L6,2021.2.3,Win32,60.0240096,,,,,,,,,,,1.153,1,,,,,,,,,,,,,,,,,,,,,,,,-0.061898212,-0.267537827,0,0,0,,,,,,,VALLEY,HB,m,y,./images/VALLEYHB.png,,,,,,,,,,,,,,,,,,,,,m,1,1.153,,,,,,,,0,50,50,68,1
,,,,,,,,,,,,,,,,,5e0f69380fb798000a199566,,2022-02-12_16h45.18.318,lexical_decision_task_DD_L6,2021.2.3,Win32,60.0240096,,,,,,,,,,,1.188,1,,,,,,,,,,,,,,,,,,,,,,,,-0.061898212,-0.267537827,0,0,0,,,,,,,BANNER,C,z,y,./images/BANNER.png,,,,,,,,,,,,,,,,,,,,,z,1,1.188,,,,,,,,0,51,51,136,1
,,,,,,,,,,,,,,,,,5e0f69380fb798000a199566,,2022-02-12_16h45.18.318,lexical_decision_task_DD_L6,2021.2.3,Win32,60.0240096,,,,,,,,,,,1.332,1,,,,,,,,,,,,,,,,,,,,,,,,-0.061898212,-0.267537827,1,0,0,,,,,,,CLOUD,HB,m,y,./images/CLOUDHB.png,,,,,,,,,,,,,,,,,,,,,m,1,1.332,-0.061898212,-0.267537827,1,0,0,1.179,,0,52,52,26,1
,,,,,,,,,,,,,,,,,5e0f69380fb798000a199566,,2022-02-12_16h45.18.318,lexical_decision_task_DD_L6,2021.2.3,Win32,60.0240096,,,,,,,,,,,1.63,1,,,,,,,,,,,,,,,,,,,,,,,,-0.061898212,-0.267537827,0,0,0,,,,,,,CHALK,C,m,y,./images/CHALK.png,,,,,,,,,,,,,,,,,,,,,m,1,1.63,-0.061898212,-0.267537827,1,0,0,0.98,,0,53,53,25,1
,,,,,,,,,,,,,,,,,5e0f69380fb798000a199566,,2022-02-12_16h45.18.318,lexical_decision_task_DD_L6,2021.2.3,Win32,60.0240096,,,,,,,,,,,0.855,1,,,,,,,,,,,,,,,,,,,,,,,,-0.061898212,-0.267537827,0,0,0,,,,,,,SNAKE,C,m,y,./images/SNAKE.png,,,,,,,,,,,,,,,,,,,,,m,1,0.855,-0.061898212,-0.267537827,1,0,0,0.429,,0,54,54,40,1
,,,,,,,,,,,,,,,,,5e0f69380fb798000a199566,,2022-02-12_16h45.18.318,lexical_decision_task_DD_L6,2021.2.3,Win32,60.0240096,,,,,,,,,,,1.313,1,,,,,,,,,,,,,,,,,,,,,,,,-0.061898212,-0.267537827,0,0,0,,,,,,,DESERT,C,m,y,./images/DESERT.png,,,,,,,,,,,,,,,,,,,,,m,1,1.313,-0.061898212,-0.267537827,1,0,0,0.397,,0,55,55,52,1
,,,,,,,,,,,,,,,,,5e0f69380fb798000a199566,,2022-02-12_16h45.18.318,lexical_decision_task_DD_L6,2021.2.3,Win32,60.0240096,,,,,,,,,,,1.136,1,,,,,,,,,,,,,,,,,,,,,,,,-0.061898212,-0.267537827,0,0,0,,,,,,,MOOSE,LB,z,y,./images/MOOSELB.png,,,,,,,,,,,,,,,,,,,,,z,1,1.136,-0.061898212,-0.267537827,1,0,0,0.501,,0,56,56,141,1
,,,,,,,,,,,,,,,,,5e0f69380fb798000a199566,,2022-02-12_16h45.18.318,lexical_decision_task_DD_L6,2021.2.3,Win32,60.0240096,,,,,,,,,,,0.763,1,,,,,,,,,,,,,,,,,,,,,,,,-0.061898212,-0.267537827,0,0,0,,,,,,,STORM,LB,z,y,./images/STORMLB.png,,,,,,,,,,,,,,,,,,,,,z,1,0.763,,,,,,,,0,57,57,114,1
,,,,,,,,,,,,,,,,,5e0f69380fb798000a199566,,2022-02-12_16h45.18.318,lexical_decision_task_DD_L6,2021.2.3,Win32,60.0240096,,,,,,,,,,,0.855,1,,,,,,,,,,,,,,,,,,,,,,,,-0.061898212,-0.267537827,0,0,0,,,,,,,GRAIN,LB,z,y,./images/GRAINLB.png,,,,,,,,,,,,,,,,,,,,,z,1,0.855,,,,,,,,0,58,58,159,1
,,,,,,,,,,,,,,,,,5e0f69380fb798000a199566,,2022-02-12_16h45.18.318,lexical_decision_task_DD_L6,2021.2.3,Win32,60.0240096,,,,,,,,,,,1.37,1,,,,,,,,,,,,,,,,,,,,,,,,-0.061898212,-0.267537827,0,0,0,,,,,,,GRANNY,HB,m,y,./images/GRANNYHB.png,,,,,,,,,,,,,,,,,,,,,m,1,1.37,-0.061898212,-0.267537827,1,0,0,0.997,,0,59,59,20,1
,,,,,,,,,,,,,,,,,5e0f69380fb798000a199566,,2022-02-12_16h45.18.318,lexical_decision_task_DD_L6,2021.2.3,Win32,60.0240096,,,,,,,,,,,1.448,1,,,,,,,,,,,,,,,,,,,,,,,,-0.061898212,-0.267537827,0,0,0,,,,,,,BONNET,HB,z,y,./images/BONNETHB.png,,,,,,,,,,,,,,,,,,,,,z,1,1.448,-0.061898212,-0.267537827,1,0,0,0.847,,0,60,60,95,1
,,,,,,,,,,,,,,,,,5e0f69380fb798000a199566,,2022-02-12_16h45.18.318,lexical_decision_task_DD_L6,2021.2.3,Win32,60.0240096,,,,,,,,,,,0.985,1,,,,,,,,,,,,,,,,,,,,,,,,-0.061898212,-0.267537827,0,0,0,,,,,,,BIRTH,C,z,y,./images/BIRTH.png,,,,,,,,,,,,,,,,,,,,,z,1,0.985,,,,,,,,0,61,61,121,1
,,,,,,,,,,,,,,,,,5e0f69380fb798000a199566,,2022-02-12_16h45.18.318,lexical_decision_task_DD_L6,2021.2.3,Win32,60.0240096,,,,,,,,,,,0.931,1,,,,,,,,,,,,,,,,,,,,,,,,-0.061898212,-0.267537827,0,0,0,,,,,,,TORCH,HB,z,y,./images/TORCHHB.png,,,,,,,,,,,,,,,,,,,,,z,1,0.931,,,,,,,,0,62,62,152,1
,,,,,,,,,,,,,,,,,5e0f69380fb798000a199566,,2022-02-12_16h45.18.318,lexical_decision_task_DD_L6,2021.2.3,Win32,60.0240096,,,,,,,,,,,1.55,0,,,,,,,,,,,,,,,,,,,,,,,,-0.061898212,-0.267537827,0,0,0,,,,,,,SQUARE,LB,z,y,./images/SQUARELB.png,,,,,,,,,,,,,,,,,,,,,m,0,1.55,-0.061898212,-0.267537827,1,0,0,0.896,,0,63,63,90,1
,,,,,,,,,,,,,,,,,5e0f69380fb798000a199566,,2022-02-12_16h45.18.318,lexical_decision_task_DD_L6,2021.2.3,Win32,60.0240096,,,,,,,,,,,1.294,1,,,,,,,,,,,,,,,,,,,,,,,,-0.061898212,-0.267537827,0,0,0,,,,,,,PAINT,C,z,y,./images/PAINT.png,,,,,,,,,,,,,,,,,,,,,z,1,1.294,,,,,,,,0,64,64,91,1
,,,,,,,,,,,,,,,,,5e0f69380fb798000a199566,,2022-02-12_16h45.18.318,lexical_decision_task_DD_L6,2021.2.3,Win32,60.0240096,,,,,,,,,,,1.434,1,,,,,,,,,,,,,,,,,,,,,,,,-0.061898212,-0.267537827,1,0,0,,,,,,,FENCE,HB,m,y,./images/FENCEHB.png,,,,,,,,,,,,,,,,,,,,,m,1,1.434,-0.061898212,-0.267537827,1,0,0,1.178,,0,65,65,14,1
,,,,,,,,,,,,,,,,,5e0f69380fb798000a199566,,2022-02-12_16h45.18.318,lexical_decision_task_DD_L6,2021.2.3,Win32,60.0240096,,,,,,,,,,,1.444,1,,,,,,,,,,,,,,,,,,,,,,,,-0.061898212,-0.267537827,0,0,0,,,,,,,SHORE,LB,z,y,./images/SHORELB.png,,,,,,,,,,,,,,,,,,,,,z,1,1.444,-0.061898212,-0.267537827,1,0,0,1.094,,0,66,66,96,1
,,,,,,,,,,,,,,,,,5e0f69380fb798000a199566,,2022-02-12_16h45.18.318,lexical_decision_task_DD_L6,2021.2.3,Win32,60.0240096,,,,,,,,,,,0.896,1,,,,,,,,,,,,,,,,,,,,,,,,-0.061898212,-0.267537827,0,0,0,,,,,,,MIRROR,LB,z,y,./images/MIRRORLB.png,,,,,,,,,,,,,,,,,,,,,z,1,0.896,,,,,,,,0,67,67,147,1
,,,,,,,,,,,,,,,,,5e0f69380fb798000a199566,,2022-02-12_16h45.18.318,lexical_decision_task_DD_L6,2021.2.3,Win32,60.0240096,,,,,,,,,,,1.109,0,,,,,,,,,,,,,,,,,,,,,,,,-0.061898212,-0.267537827,0,0,0,,,,,,,STOVE,HB,m,y,./images/STOVEHB.png,,,,,,,,,,,,,,,,,,,,,z,0,1.109,-0.061898212,-0.267537827,1,0,0,0.813,,0,68,68,2,1
,,,,,,,,,,,,,,,,,5e0f69380fb798000a199566,,2022-02-12_16h45.18.318,lexical_decision_task_DD_L6,2021.2.3,Win32,60.0240096,,,,,,,,,,,1.209,1,,,,,,,,,,,,,,,,,,,,,,,,-0.061898212,-0.267537827,0,0,0,,,,,,,PEBBLE,C,m,y,./images/PEBBLE.png,,,,,,,,,,,,,,,,,,,,,m,1,1.209,-0.061898212,-0.267537827,1,0,0,0.698,,0,69,69,82,1
,,,,,,,,,,,,,,,,,5e0f69380fb798000a199566,,2022-02-12_16h45.18.318,lexical_decision_task_DD_L6,2021.2.3,Win32,60.0240096,,,,,,,,,,,1.091,1,,,,,,,,,,,,,,,,,,,,,,,,-0.061898212,-0.267537827,0,0,0,,,,,,,POSTER,HB,m,y,./images/POSTERHB.png,,,,,,,,,,,,,,,,,,,,,m,1,1.091,-0.061898212,-0.267537827,1,0,0,0.749,,0,70,70,53,1
,,,,,,,,,,,,,,,,,5e0f69380fb798000a199566,,2022-02-12_16h45.18.318,lexical_decision_task_DD_L6,2021.2.3,Win32,60.0240096,,,,,,,,,,,1.141,1,,,,,,,,,,,,,,,,,,,,,,,,-0.061898212,-0.267537827,0,0,0,,,,,,,TWINS,LB,z,y,./images/TWINSLB.png,,,,,,,,,,,,,,,,,,,,,z,1,1.141,-0.061898212,-0.267537827,1,0,0,0.698,,0,71,71,144,1
,,,,,,,,,,,,,,,,,5e0f69380fb798000a199566,,2022-02-12_16h45.18.318,lexical_decision_task_DD_L6,2021.2.3,Win32,60.0240096,,,,,,,,,,,1.306,1,,,,,,,,,,,,,,,,,,,,,,,,-0.061898212,-0.267537827,0,0,0,,,,,,,CLIFF,HB,m,y,./images/CLIFFHB.png,,,,,,,,,,,,,,,,,,,,,m,1,1.306,-0.061898212,-0.267537827,1,0,0,0.765,,0,72,72,8,1
,,,,,,,,,,,,,,,,,5e0f69380fb798000a199566,,2022-02-12_16h45.18.318,lexical_decision_task_DD_L6,2021.2.3,Win32,60.0240096,,,,,,,,,,,1.084,1,,,,,,,,,,,,,,,,,,,,,,,,-0.061898212,-0.267537827,1,0,0,,,,,,,SAUNA,LB,m,y,./images/SAUNALB.png,,,,,,,,,,,,,,,,,,,,,m,1,1.084,-0.061898212,-0.267537827,1,0,0,0.797,,0,73,73,33,1
,,,,,,,,,,,,,,,,,5e0f69380fb798000a199566,,2022-02-12_16h45.18.318,lexical_decision_task_DD_L6,2021.2.3,Win32,60.0240096,,,,,,,,,,,0.947,1,,,,,,,,,,,,,,,,,,,,,,,,-0.061898212,-0.267537827,0,0,0,,,,,,,GLOVE,C,m,y,./images/GLOVE.png,,,,,,,,,,,,,,,,,,,,,m,1,0.947,-0.061898212,-0.267537827,1,0,0,0.765,,0,74,74,73,1
,,,,,,,,,,,,,,,,,5e0f69380fb798000a199566,,2022-02-12_16h45.18.318,lexical_decision_task_DD_L6,2021.2.3,Win32,60.0240096,,,,,,,,,,,1.146,1,,,,,,,,,,,,,,,,,,,,,,,,-0.061898212,-0.267537827,0,0,0,,,,,,,STRING,HB,z,y,./images/STRINGHB.png,,,,,,,,,,,,,,,,,,,,,z,1,1.146,-0.061898212,-0.267537827,1,0,0,0.963,,0,75,75,125,1
,,,,,,,,,,,,,,,,,5e0f69380fb798000a199566,,2022-02-12_16h45.18.318,lexical_decision_task_DD_L6,2021.2.3,Win32,60.0240096,,,,,,,,,,,0.698,1,,,,,,,,,,,,,,,,,,,,,,,,-0.061898212,-0.267537827,0,0,0,,,,,,,DRUMS,C,z,y,./images/DRUMS.png,,,,,,,,,,,,,,,,,,,,,z,1,0.698,,,,,,,,0,76,76,133,1
,,,,,,,,,,,,,,,,,5e0f69380fb798000a199566,,2022-02-12_16h45.18.318,lexical_decision_task_DD_L6,2021.2.3,Win32,60.0240096,,,,,,,,,,,1.728,1,,,,,,,,,,,,,,,,,,,,,,,,-0.061898212,-0.267537827,0,0,0,,,,,,,ARTIST,C,m,y,./images/ARTIST.png,,,,,,,,,,,,,,,,,,,,,m,1,1.728,-0.061898212,-0.267537827,1,0,0,1.165,,0,77,77,61,1
,,,,,,,,,,,,,,,,,5e0f69380fb798000a199566,,2022-02-12_16h45.18.318,lexical_decision_task_DD_L6,2021.2.3,Win32,60.0240096,,,,,,,,,,,0.817,1,,,,,,,,,,,,,,,,,,,,,,,,-0.061898212,-0.267537827,0,0,0,,,,,,,BUBBLE,HB,m,y,./images/BUBBLEHB.png,,,,,,,,,,,,,,,,,,,,,m,1,0.817,,,,,,,,0,78,78,71,1
,,,,,,,,,,,,,,,,,5e0f69380fb798000a199566,,2022-02-12_16h45.18.318,lexical_decision_task_DD_L6,2021.2.3,Win32,60.0240096,,,,,,,,,,,1.242,0,,,,,,,,,,,,,,,,,,,,,,,,-0.061898212,-0.267537827,0,0,0,,,,,,,BROOM,LB,m,y,./images/BROOMLB.png,,,,,,,,,,,,,,,,,,,,,z,0,1.242,,,,,,,,0,79,79,78,1
,,,,,,,,,,,,,,,,,5e0f69380fb798000a199566,,2022-02-12_16h45.18.318,lexical_decision_task_DD_L6,2021.2.3,Win32,60.0240096,,,,,,,,,,,1.254,1,,,,,,,,,,,,,,,,,,,,,,,,-0.061898212,-0.267537827,0,0,0,,,,,,,FERRY,LB,m,y,./images/FERRYLB.png,,,,,,,,,,,,,,,,,,,,,m,1,1.254,-0.061898212,-0.267537827,1,0,0,0.877,,0,80,80,57,1
,,,,,,,,,,,,,,,,,5e0f69380fb798000a199566,,2022-02-12_16h45.18.318,lexical_decision_task_DD_L6,2021.2.3,Win32,60.0240096,,,,,,,,,,,1.317,1,,,,,,,,,,,,,,,,,,,,,,,,-0.061898212,-0.267537827,0,0,0,,,,,,,WEASEL,HB,z,y,./images/WEASELHB.png,,,,,,,,,,,,,,,,,,,,,z,1,1.317,-0.061898212,-0.267537827,1,0,0,0.996,,0,81,81,164,1
,,,,,,,,,,,,,,,,,5e0f69380fb798000a199566,,2022-02-12_16h45.18.318,lexical_decision_task_DD_L6,2021.2.3,Win32,60.0240096,,,,,,,,,,,1.249,1,,,,,,,,,,,,,,,,,,,,,,,,-0.061898212,-0.267537827,0,0,0,,,,,,,SCREW,LB,z,y,./images/SCREWLB.png,,,,,,,,,,,,,,,,,,,,,z,1,1.249,,,,,,,,0,82,82,108,1
,,,,,,,,,,,,,,,,,5e0f69380fb798000a199566,,2022-02-12_16h45.18.318,lexical_decision_task_DD_L6,2021.2.3,Win32,60.0240096,,,,,,,,,,,0.754,1,,,,,,,,,,,,,,,,,,,,,,,,-0.063273728,-0.241403026,0,0,0,space,,,,,,PEARL,C,z,y,./images/PEARL.png,1.601,,,,,,,,,,,,,,,,,,,,z,1,0.754,,,,,,,,0,83,83,130,1
,,,,,,,,,,,,,,,,,5e0f69380fb798000a199566,,2022-02-12_16h45.18.318,lexical_decision_task_DD_L6,2021.2.3,Win32,60.0240096,,,,,,,,,,,0.753,1,,,,,,,,,,,,,,,,,,,,,,,,-0.063273728,-0.241403026,0,0,0,,,,,,,QUILL,C,z,y,./images/QUILL.png,,,,,,,,,,,,,,,,,,,,,z,1,0.753,-0.063273728,-0.241403026,1,0,0,0.147,,0,84,84,115,1
,,,,,,,,,,,,,,,,,5e0f69380fb798000a199566,,2022-02-12_16h45.18.318,lexical_decision_task_DD_L6,2021.2.3,Win32,60.0240096,,,,,,,,,,,0.751,1,,,,,,,,,,,,,,,,,,,,,,,,-0.063273728,-0.241403026,0,0,0,,,,,,,BEARD,HB,z,y,./images/BEARDHB.png,,,,,,,,,,,,,,,,,,,,,z,1,0.751,,,,,,,,0,85,85,86,1
,,,,,,,,,,,,,,,,,5e0f69380fb798000a199566,,2022-02-12_16h45.18.318,lexical_decision_task_DD_L6,2021.2.3,Win32,60.0240096,,,,,,,,,,,0.734,0,,,,,,,,,,,,,,,,,,,,,,,,-0.063273728,-0.241403026,0,0,0,,,,,,,SLOPE,LB,m,y,./images/SLOPELB.png,,,,,,,,,,,,,,,,,,,,,z,0,0.734,,,,,,,,0,86,86,30,1
,,,,,,,,,,,,,,,,,5e0f69380fb798000a199566,,2022-02-12_16h45.18.318,lexical_decision_task_DD_L6,2021.2.3,Win32,60.0240096,,,,,,,,,,,0.754,1,,,,,,,,,,,,,,,,,,,,,,,,-0.063273728,-0.241403026,0,0,0,,,,,,,CEMENT,HB,z,y,./images/CEMENTHB.png,,,,,,,,,,,,,,,,,,,,,z,1,0.754,,,,,,,,0,87,87,158,1
,,,,,,,,,,,,,,,,,5e0f69380fb798000a199566,,2022-02-12_16h45.18.318,lexical_decision_task_DD_L6,2021.2.3,Win32,60.0240096,,,,,,,,,,,0.713,1,,,,,,,,,,,,,,,,,,,,,,,,-0.063273728,-0.241403026,0,0,0,,,,,,,TOMATO,LB,z,y,./images/TOMATOLB.png,,,,,,,,,,,,,,,,,,,,,z,1,0.713,,,,,,,,0,88,88,84,1
,,,,,,,,,,,,,,,,,5e0f69380fb798000a199566,,2022-02-12_16h45.18.318,lexical_decision_task_DD_L6,2021.2.3,Win32,60.0240096,,,,,,,,,,,1.264,0,,,,,,,,,,,,,,,,,,,,,,,,-0.063273728,-0.241403026,0,0,0,,,,,,,CANDLE,C,z,y,./images/CANDLE.png,,,,,,,,,,,,,,,,,,,,,m,0,1.264,,,,,,,,0,89,89,145,1
,,,,,,,,,,,,,,,,,5e0f69380fb798000a199566,,2022-02-12_16h45.18.318,lexical_decision_task_DD_L6,2021.2.3,Win32,60.0240096,,,,,,,,,,,1.309,1,,,,,,,,,,,,,,,,,,,,,,,,-0.063273728,-0.241403026,0,0,0,,,,,,,SPORT,LB,z,y,./images/SPORTLB.png,,,,,,,,,,,,,,,,,,,,,z,1,1.309,-0.063273728,-0.241403026,1,0,0,1.081,,0,90,90,132,1
,,,,,,,,,,,,,,,,,5e0f69380fb798000a199566,,2022-02-12_16h45.18.318,lexical_decision_task_DD_L6,2021.2.3,Win32,60.0240096,,,,,,,,,,,1.073,1,,,,,,,,,,,,,,,,,,,,,,,,-0.063273728,-0.241403026,0,0,0,,,,,,,PICKLE,HB,z,y,./images/PICKLEHB.png,,,,,,,,,,,,,,,,,,,,,z,1,1.073,,,,,,,,0,91,91,98,1
,,,,,,,,,,,,,,,,,5e0f69380fb798000a199566,,2022-02-12_16h45.18.318,lexical_decision_task_DD_L6,2021.2.3,Win32,60.0240096,,,,,,,,,,,1.537,1,,,,,,,,,,,,,,,,,,,,,,,,-0.063273728,-0.241403026,0,0,0,,,,,,,BRIDE,C,m,y,./images/BRIDE.png,,,,,,,,,,,,,,,,,,,,,m,1,1.537,-0.063273728,-0.241403026,1,0,0,1.31,,0,92,92,64,1
,,,,,,,,,,,,,,,,,5e0f69380fb798000a199566,,2022-02-12_16h45.18.318,lexical_decision_task_DD_L6,2021.2.3,Win32,60.0240096,,,,,,,,,,,1.652,0,,,,,,,,,,,,,,,,,,,,,,,,-0.063273728,-0.241403026,0,0,0,,,,,,,CHAIN,LB,m,y,./images/CHAINLB.png,,,,,,,,,,,,,,,,,,,,,z,0,1.652,-0.063273728,-0.241403026,1,0,0,0.56,,0,93,93,42,1
,,,,,,,,,,,,,,,,,5e0f69380fb798000a199566,,2022-02-12_16h45.18.318,lexical_decision_task_DD_L6,2021.2.3,Win32,60.0240096,,,,,,,,,,,1.347,1,,,,,,,,,,,,,,,,,,,,,,,,-0.063273728,-0.241403026,0,0,0,,,,,,,ALLEY,C,m,y,./images/ALLEY.png,,,,,,,,,,,,,,,,,,,,,m,1,1.347,-0.063273728,-0.241403026,1,0,0,0.747,,0,94,94,55,1
,,,,,,,,,,,,,,,,,5e0f69380fb798000a199566,,2022-02-12_16h45.18.318,lexical_decision_task_DD_L6,2021.2.3,Win32,60.0240096,,,,,,,,,,,1.215,1,,,,,,,,,,,,,,,,,,,,,,,,-0.063273728,-0.241403026,0,0,0,,,,,,,FINGER,LB,z,y,./images/FINGERLB.png,,,,,,,,,,,,,,,,,,,,,z,1,1.215,-0.063273728,-0.241403026,1,0,0,0.713,,0,95,95,87,1
,,,,,,,,,,,,,,,,,5e0f69380fb798000a199566,,2022-02-12_16h45.18.318,lexical_decision_task_DD_L6,2021.2.3,Win32,60.0240096,,,,,,,,,,,1.239,1,,,,,,,,,,,,,,,,,,,,,,,,-0.063273728,-0.241403026,0,0,0,,,,,,,WHISKY,HB,m,y,./images/WHISKYHB.png,,,,,,,,,,,,,,,,,,,,,m,1,1.239,-0.063273728,-0.241403026,1,0,0,0.714,,0,96,96,83,1
,,,,,,,,,,,,,,,,,5e0f69380fb798000a199566,,2022-02-12_16h45.18.318,lexical_decision_task_DD_L6,2021.2.3,Win32,60.0240096,,,,,,,,,,,0.995,1,,,,,,,,,,,,,,,,,,,,,,,,-0.063273728,-0.241403026,0,0,0,,,,,,,BAKER,LB,m,y,./images/BAKERLB.png,,,,,,,,,,,,,,,,,,,,,m,1,0.995,-0.063273728,-0.241403026,1,0,0,0.828,,0,97,97,63,1
,,,,,,,,,,,,,,,,,5e0f69380fb798000a199566,,2022-02-12_16h45.18.318,lexical_decision_task_DD_L6,2021.2.3,Win32,60.0240096,,,,,,,,,,,1.268,0,,,,,,,,,,,,,,,,,,,,,,,,-0.063273728,-0.241403026,0,0,0,,,,,,,MEDAL,HB,m,y,./images/MEDALHB.png,,,,,,,,,,,,,,,,,,,,,z,0,1.268,-0.063273728,-0.241403026,1,0,0,0.797,,0,98,98,11,1
,,,,,,,,,,,,,,,,,5e0f69380fb798000a199566,,2022-02-12_16h45.18.318,lexical_decision_task_DD_L6,2021.2.3,Win32,60.0240096,,,,,,,,,,,1.307,1,,,,,,,,,,,,,,,,,,,,,,,,-0.063273728,-0.241403026,0,0,0,,,,,,,PARCEL,LB,m,y,./images/PARCELLB.png,,,,,,,,,,,,,,,,,,,,,m,1,1.307,-0.063273728,-0.241403026,1,0,0,0.747,,0,99,99,18,1
,,,,,,,,,,,,,,,,,5e0f69380fb798000a199566,,2022-02-12_16h45.18.318,lexical_decision_task_DD_L6,2021.2.3,Win32,60.0240096,,,,,,,,,,,1.262,1,,,,,,,,,,,,,,,,,,,,,,,,-0.063273728,-0.241403026,0,0,0,,,,,,,TULIP,HB,z,y,./images/TULIPHB.png,,,,,,,,,,,,,,,,,,,,,z,1,1.262,-0.063273728,-0.241403026,1,0,0,0.928,,0,100,100,92,1
,,,,,,,,,,,,,,,,,5e0f69380fb798000a199566,,2022-02-12_16h45.18.318,lexical_decision_task_DD_L6,2021.2.3,Win32,60.0240096,,,,,,,,,,,1.181,1,,,,,,,,,,,,,,,,,,,,,,,,-0.063273728,-0.241403026,0,0,0,,,,,,,SPINE,HB,m,y,./images/SPINEHB.png,,,,,,,,,,,,,,,,,,,,,m,1,1.181,-0.063273728,-0.241403026,1,0,0,0.665,,0,101,101,65,1
,,,,,,,,,,,,,,,,,5e0f69380fb798000a199566,,2022-02-12_16h45.18.318,lexical_decision_task_DD_L6,2021.2.3,Win32,60.0240096,,,,,,,,,,,1.193,0,,,,,,,,,,,,,,,,,,,,,,,,-0.063273728,-0.241403026,0,0,0,,,,,,,BRUSH,HB,m,y,./images/BRUSHHB.png,,,,,,,,,,,,,,,,,,,,,z,0,1.193,-0.063273728,-0.241403026,1,0,0,0.766,,0,102,102,59,1
,,,,,,,,,,,,,,,,,5e0f69380fb798000a199566,,2022-02-12_16h45.18.318,lexical_decision_task_DD_L6,2021.2.3,Win32,60.0240096,,,,,,,,,,,1.023,1,,,,,,,,,,,,,,,,,,,,,,,,-0.063273728,-0.241403026,0,0,0,,,,,,,NOOSE,LB,z,y,./images/NOOSELB.png,,,,,,,,,,,,,,,,,,,,,z,1,1.023,-0.063273728,-0.241403026,1,0,0,0.764,,0,103,103,156,1
,,,,,,,,,,,,,,,,,5e0f69380fb798000a199566,,2022-02-12_16h45.18.318,lexical_decision_task_DD_L6,2021.2.3,Win32,60.0240096,,,,,,,,,,,0.882,0,,,,,,,,,,,,,,,,,,,,,,,,-0.063273728,-0.241403026,0,0,0,,,,,,,WHEEL,HB,m,y,./images/WHEELHB.png,,,,,,,,,,,,,,,,,,,,,z,0,0.882,-0.063273728,-0.241403026,1,0,0,0.746,,0,104,104,77,1
,,,,,,,,,,,,,,,,,5e0f69380fb798000a199566,,2022-02-12_16h45.18.318,lexical_decision_task_DD_L6,2021.2.3,Win32,60.0240096,,,,,,,,,,,1.219,1,,,,,,,,,,,,,,,,,,,,,,,,-0.063273728,-0.241403026,0,0,0,,,,,,,BOILER,LB,m,y,./images/BOILERLB.png,,,,,,,,,,,,,,,,,,,,,m,1,1.219,-0.063273728,-0.241403026,1,0,0,0.732,,0,105,105,36,1
,,,,,,,,,,,,,,,,,5e0f69380fb798000a199566,,2022-02-12_16h45.18.318,lexical_decision_task_DD_L6,2021.2.3,Win32,60.0240096,,,,,,,,,,,1.148,1,,,,,,,,,,,,,,,,,,,,,,,,-0.063273728,-0.241403026,0,0,0,,,,,,,MUSCLE,C,z,y,./images/MUSCLE.png,,,,,,,,,,,,,,,,,,,,,z,1,1.148,-0.063273728,-0.241403026,1,0,0,0.926,,0,106,106,88,1
,,,,,,,,,,,,,,,,,5e0f69380fb798000a199566,,2022-02-12_16h45.18.318,lexical_decision_task_DD_L6,2021.2.3,Win32,60.0240096,,,,,,,,,,,0.968,1,,,,,,,,,,,,,,,,,,,,,,,,-0.063273728,-0.241403026,0,0,0,,,,,,,PLANK,C,z,y,./images/PLANK.png,,,,,,,,,,,,,,,,,,,,,z,1,0.968,-0.063273728,-0.241403026,1,0,0,0.81,,0,107,107,85,1
,,,,,,,,,,,,,,,,,5e0f69380fb798000a199566,,2022-02-12_16h45.18.318,lexical_decision_task_DD_L6,2021.2.3,Win32,60.0240096,,,,,,,,,,,1.34,1,,,,,,,,,,,,,,,,,,,,,,,,-0.063273728,-0.241403026,0,0,0,,,,,,,BLOKE,LB,m,y,./images/BLOKELB.png,,,,,,,,,,,,,,,,,,,,,m,1,1.34,-0.063273728,-0.241403026,1,0,0,0.829,,0,108,108,12,1
,,,,,,,,,,,,,,,,,5e0f69380fb798000a199566,,2022-02-12_16h45.18.318,lexical_decision_task_DD_L6,2021.2.3,Win32,60.0240096,,,,,,,,,,,0.813,0,,,,,,,,,,,,,,,,,,,,,,,,-0.063273728,-0.241403026,0,0,0,,,,,,,PURSE,HB,z,y,./images/PURSEHB.png,,,,,,,,,,,,,,,,,,,,,m,0,0.813,,,,,,,,0,109,109,146,1
,,,,,,,,,,,,,,,,,5e0f69380fb798000a199566,,2022-02-12_16h45.18.318,lexical_decision_task_DD_L6,2021.2.3,Win32,60.0240096,,,,,,,,,,,1.345,1,,,,,,,,,,,,,,,,,,,,,,,,-0.063273728,-0.241403026,0,0,0,,,,,,,SAUCE,LB,m,y,./images/SAUCELB.png,,,,,,,,,,,,,,,,,,,,,m,1,1.345,,,,,,,,0,110,110,51,1
,,,,,,,,,,,,,,,,,5e0f69380fb798000a199566,,2022-02-12_16h45.18.318,lexical_decision_task_DD_L6,2021.2.3,Win32,60.0240096,,,,,,,,,,,1.107,1,,,,,,,,,,,,,,,,,,,,,,,,-0.063273728,-0.241403026,0,0,0,,,,,,,SAILOR,C,z,y,./images/SAILOR.png,,,,,,,,,,,,,,,,,,,,,z,1,1.107,-0.063273728,-0.241403026,1,0,0,0.713,,0,111,111,151,1
,,,,,,,,,,,,,,,,,5e0f69380fb798000a199566,,2022-02-12_16h45.18.318,lexical_decision_task_DD_L6,2021.2.3,Win32,60.0240096,,,,,,,,,,,1.682,1,,,,,,,,,,,,,,,,,,,,,,,,-0.063273728,-0.241403026,0,0,0,,,,,,,SHELF,LB,z,y,./images/SHELFLB.png,,,,,,,,,,,,,,,,,,,,,z,1,1.682,-0.063273728,-0.241403026,1,0,0,0.932,,0,112,112,123,1
,,,,,,,,,,,,,,,,,5e0f69380fb798000a199566,,2022-02-12_16h45.18.318,lexical_decision_task_DD_L6,2021.2.3,Win32,60.0240096,,,,,,,,,,,0.707,1,,,,,,,,,,,,,,,,,,,,,,,,-0.063273728,-0.241403026,0,0,0,,,,,,,TRIPOD,LB,z,y,./images/TRIPODLB.png,,,,,,,,,,,,,,,,,,,,,z,1,0.707,-0.063273728,-0.241403026,1,0,0,0.531,,0,113,113,138,1
,,,,,,,,,,,,,,,,,5e0f69380fb798000a199566,,2022-02-12_16h45.18.318,lexical_decision_task_DD_L6,2021.2.3,Win32,60.0240096,,,,,,,,,,,1.27,1,,,,,,,,,,,,,,,,,,,,,,,,-0.063273728,-0.241403026,0,0,0,,,,,,,LAGOON,HB,m,y,./images/LAGOONHB.png,,,,,,,,,,,,,,,,,,,,,m,1,1.27,-0.063273728,-0.241403026,1,0,0,0.763,,0,114,114,47,1
