key_resp.keys,key_resp.rt,instr_done_touch.x,instr_done_touch.y,instr_done_touch.leftButton,instr_done_touch.midButton,instr_done_touch.rightButton,instruction_pages.thisRepN,instruction_pages.thisTrialN,instruction_pages.thisN,instruction_pages.thisIndex,instruction_pages.ran,pageN,phase,instruct_text,has_image,instruct_image,participant,age,date,expName,psychopyVersion,OS,frameRate,response.keys,response.corr,response.rt,touch_resp.x,touch_resp.y,touch_resp.leftButton,touch_resp.midButton,touch_resp.rightButton,touch_resp.time,touch_resp.clicked_name,rt,corr,practrials.thisRepN,practrials.thisTrialN,practrials.thisN,practrials.thisIndex,practrials.ran,TrialID,Target,corrAns,end_of_practice_trials_pages.thisRepN,end_of_practice_trials_pages.thisTrialN,end_of_practice_trials_pages.thisN,end_of_practice_trials_pages.thisIndex,end_of_practice_trials_pages.ran,key_resp_2.keys,key_resp_2.corr,key_resp_2.rt,targ_click.x,targ_click.y,targ_click.leftButton,targ_click.midButton,targ_click.rightButton,targ_click.time,targ_click.clicked_name,break_done_touch.x,break_done_touch.y,break_done_touch.leftButton,break_done_touch.midButton,break_done_touch.rightButton,break_done_keyboard.keys,maintrials.thisRepN,maintrials.thisTrialN,maintrials.thisN,maintrials.thisIndex,maintrials.ran,string,blur,study,lex,stim_path,break_done_keyboard.rt,break_done_touch.clicked_name,mouse_2.x,mouse_2.y,mouse_2.leftButton,mouse_2.midButton,mouse_2.rightButton,mouse_2.clicked_name,slider.response,slider.rt,trials.thisRepN,trials.thisTrialN,trials.thisN,trials.thisIndex,trials.ran,instr_done_touch.clicked_name,test_instructions.thisRepN,test_instructions.thisTrialN,test_instructions.thisN,test_instructions.thisIndex,test_instructions.ran,key_resp_3.keys,key_resp_3.corr,key_resp_3.rt,test_click.x,test_click.y,test_click.leftButton,test_click.midButton,test_click.rightButton,test_click.time,test_click.clicked_name,test_phase.thisRepN,test_phase.thisTrialN,test_phase.thisN,test_phase.thisIndex,test_phase.ran
space,14.8954,-0.011111111,-0.399074074,0,0,0,0,0,0,0,1,1,instructions,"INSTRUCTIONS
At the start of each trial, look at the plus sign  (+) in the center of the screen.  This tells you that a trial is about to begin and where to look. Second, the plus sign will disappear and a string of letters will appear. Your task is to determine if the string of letters is a word or not. If the item is a word press the M key (on keyboard)  or touch the word button (phone/tablet).  If the item is not a word,  press the  Z key (on keyboard)  or touch the nonword button (on phone/tablet). 
Press the space bar or touch  continue.",0,,5e2093a7e10aa2000c631268,31,2022-02-12_13h16.43.049,lexical_decision_task_DD,2021.2.3,Win32,59.94485074,,,,,,,,,,,,,,,,,,,,,,,,,,,,,,,,,,,,,,,,,,,,,,,,,,,,,,,,,,,,,,,,,,,,,,,,,,,,,,,,,,,,,,,
space,3.1074,-0.011111111,-0.399074074,0,0,0,0,1,1,1,1,2,instructions,"If your device has a keyboard, press the 'Z' key for nonwords and the 'M' key for words.





Press the space bar or touch the button below to continue.",0,keyboard-example.gif,5e2093a7e10aa2000c631268,31,2022-02-12_13h16.43.049,lexical_decision_task_DD,2021.2.3,Win32,59.94485074,,,,,,,,,,,,,,,,,,,,,,,,,,,,,,,,,,,,,,,,,,,,,,,,,,,,,,,,,,,,,,,,,,,,,,,,,,,,,,,,,,,,,,,
space,1.8682,-0.011111111,-0.399074074,0,0,0,0,2,2,2,1,3,instructions,"If you are using a touchscreen only device, use the buttons on the screen. Do not use the mouse.





Press the space bar or touch the button below to continue.",0,touchscreen-example.gif,5e2093a7e10aa2000c631268,31,2022-02-12_13h16.43.049,lexical_decision_task_DD,2021.2.3,Win32,59.94485074,,,,,,,,,,,,,,,,,,,,,,,,,,,,,,,,,,,,,,,,,,,,,,,,,,,,,,,,,,,,,,,,,,,,,,,,,,,,,,,,,,,,,,,
space,3.4515,-0.011111111,-0.399074074,0,0,0,0,3,3,3,1,4,instructions,"It is very important that you respond as quickly and accurately as possible, as each letter string will only be on the screen for two seconds. If you do not respond within this time, the message 'Too slow!' will be displayed and the experiment will progress to the next letter string. The first 20 trials will be practice trials and you will receive feedback on your answers. 

Press the space bar or touch the button below to start the practice trials.",0,,5e2093a7e10aa2000c631268,31,2022-02-12_13h16.43.049,lexical_decision_task_DD,2021.2.3,Win32,59.94485074,,,,,,,,,,,,,,,,,,,,,,,,,,,,,,,,,,,,,,,,,,,,,,,,,,,,,,,,,,,,,,,,,,,,,,,,,,,,,,,,,,,,,,,
,,,,,,,,,,,,,,,,,5e2093a7e10aa2000c631268,31,2022-02-12_13h16.43.049,lexical_decision_task_DD,2021.2.3,Win32,59.94485074,z,1,1.3165,,,,,,,,1.3165,1,0,0,0,14,1,1001,THRALE,z,,,,,,,,,,,,,,,,,,,,,,,,,,,,,,,,,,,,,,,,,,,,,,,,,,,,,,,,,,,,,,,,,,,
,,,,,,,,,,,,,,,,,5e2093a7e10aa2000c631268,31,2022-02-12_13h16.43.049,lexical_decision_task_DD,2021.2.3,Win32,59.94485074,m,1,0.6726,,,,,,,,0.6726,1,0,1,1,5,1,1001,OBTAIN,m,,,,,,,,,,,,,,,,,,,,,,,,,,,,,,,,,,,,,,,,,,,,,,,,,,,,,,,,,,,,,,,,,,,
,,,,,,,,,,,,,,,,,5e2093a7e10aa2000c631268,31,2022-02-12_13h16.43.049,lexical_decision_task_DD,2021.2.3,Win32,59.94485074,m,1,0.5598,,,,,,,,0.5598,1,0,2,2,4,1,1001,SQUEAK,m,,,,,,,,,,,,,,,,,,,,,,,,,,,,,,,,,,,,,,,,,,,,,,,,,,,,,,,,,,,,,,,,,,,
,,,,,,,,,,,,,,,,,5e2093a7e10aa2000c631268,31,2022-02-12_13h16.43.049,lexical_decision_task_DD,2021.2.3,Win32,59.94485074,z,1,0.6117,,,,,,,,0.6117,1,0,3,3,8,1,1001,ASLERT,z,,,,,,,,,,,,,,,,,,,,,,,,,,,,,,,,,,,,,,,,,,,,,,,,,,,,,,,,,,,,,,,,,,,
,,,,,,,,,,,,,,,,,5e2093a7e10aa2000c631268,31,2022-02-12_13h16.43.049,lexical_decision_task_DD,2021.2.3,Win32,59.94485074,m,0,0.5672,,,,,,,,0.5672,0,0,4,4,9,1,1001,FARINY,z,,,,,,,,,,,,,,,,,,,,,,,,,,,,,,,,,,,,,,,,,,,,,,,,,,,,,,,,,,,,,,,,,,,
,,,,,,,,,,,,,,,,,5e2093a7e10aa2000c631268,31,2022-02-12_13h16.43.049,lexical_decision_task_DD,2021.2.3,Win32,59.94485074,z,0,0.5613,,,,,,,,0.5613,0,0,5,5,1,1,1001,ADJUST,m,,,,,,,,,,,,,,,,,,,,,,,,,,,,,,,,,,,,,,,,,,,,,,,,,,,,,,,,,,,,,,,,,,,
,,,,,,,,,,,,,,,,,5e2093a7e10aa2000c631268,31,2022-02-12_13h16.43.049,lexical_decision_task_DD,2021.2.3,Win32,59.94485074,z,1,0.6849,,,,,,,,0.6849,1,0,6,6,12,1,1001,SPRINY,z,,,,,,,,,,,,,,,,,,,,,,,,,,,,,,,,,,,,,,,,,,,,,,,,,,,,,,,,,,,,,,,,,,,
,,,,,,,,,,,,,,,,,5e2093a7e10aa2000c631268,31,2022-02-12_13h16.43.049,lexical_decision_task_DD,2021.2.3,Win32,59.94485074,m,1,0.6838,,,,,,,,0.6838,1,0,7,7,0,1,1001,UTOPIA,m,,,,,,,,,,,,,,,,,,,,,,,,,,,,,,,,,,,,,,,,,,,,,,,,,,,,,,,,,,,,,,,,,,,
,,,,,,,,,,,,,,,,,5e2093a7e10aa2000c631268,31,2022-02-12_13h16.43.049,lexical_decision_task_DD,2021.2.3,Win32,59.94485074,m,1,0.5784,,,,,,,,0.5784,1,0,8,8,3,1,1001,MATRIX,m,,,,,,,,,,,,,,,,,,,,,,,,,,,,,,,,,,,,,,,,,,,,,,,,,,,,,,,,,,,,,,,,,,,
,,,,,,,,,,,,,,,,,5e2093a7e10aa2000c631268,31,2022-02-12_13h16.43.049,lexical_decision_task_DD,2021.2.3,Win32,59.94485074,z,1,0.5976,,,,,,,,0.5976,1,0,9,9,10,1,1001,INLADE,z,,,,,,,,,,,,,,,,,,,,,,,,,,,,,,,,,,,,,,,,,,,,,,,,,,,,,,,,,,,,,,,,,,,
,,,,,,,,,,,,,,,,,5e2093a7e10aa2000c631268,31,2022-02-12_13h16.43.049,lexical_decision_task_DD,2021.2.3,Win32,59.94485074,z,1,0.6882,,,,,,,,0.6882,1,0,10,10,11,1,1001,RASHET,z,,,,,,,,,,,,,,,,,,,,,,,,,,,,,,,,,,,,,,,,,,,,,,,,,,,,,,,,,,,,,,,,,,,
,,,,,,,,,,,,,,,,,5e2093a7e10aa2000c631268,31,2022-02-12_13h16.43.049,lexical_decision_task_DD,2021.2.3,Win32,59.94485074,m,1,0.5265,,,,,,,,0.5265,1,0,11,11,7,1,1001,VOLUME,m,,,,,,,,,,,,,,,,,,,,,,,,,,,,,,,,,,,,,,,,,,,,,,,,,,,,,,,,,,,,,,,,,,,
,,,,,,,,,,,,,,,,,5e2093a7e10aa2000c631268,31,2022-02-12_13h16.43.049,lexical_decision_task_DD,2021.2.3,Win32,59.94485074,m,1,0.5877,,,,,,,,0.5877,1,0,12,12,6,1,1001,ZOMBIE,m,,,,,,,,,,,,,,,,,,,,,,,,,,,,,,,,,,,,,,,,,,,,,,,,,,,,,,,,,,,,,,,,,,,
,,,,,,,,,,,,,,,,,5e2093a7e10aa2000c631268,31,2022-02-12_13h16.43.049,lexical_decision_task_DD,2021.2.3,Win32,59.94485074,z,1,0.6381,,,,,,,,0.6381,1,0,13,13,15,1,1001,WHAISE,z,,,,,,,,,,,,,,,,,,,,,,,,,,,,,,,,,,,,,,,,,,,,,,,,,,,,,,,,,,,,,,,,,,,
,,,,,,,,,,,,,,,,,5e2093a7e10aa2000c631268,31,2022-02-12_13h16.43.049,lexical_decision_task_DD,2021.2.3,Win32,59.94485074,z,1,0.5912,,,,,,,,0.5912,1,0,14,14,13,1,1001,ROUPET,z,,,,,,,,,,,,,,,,,,,,,,,,,,,,,,,,,,,,,,,,,,,,,,,,,,,,,,,,,,,,,,,,,,,
,,,,,,,,,,,,,,,,,5e2093a7e10aa2000c631268,31,2022-02-12_13h16.43.049,lexical_decision_task_DD,2021.2.3,Win32,59.94485074,m,1,0.6336,,,,,,,,0.6336,1,0,15,15,2,1,1001,ALMOND,m,,,,,,,,,,,,,,,,,,,,,,,,,,,,,,,,,,,,,,,,,,,,,,,,,,,,,,,,,,,,,,,,,,,
space,13.8657,-0.227777778,0.289814815,0,0,0,,,,,,1,end_of_practice,"You have completed the practice trials. During the experimental trials, you will not receive feedback. 
Before you begin, please ensure that you are in a comfortable and quiet location and will not be disturbed for about 15 minutes, as we cannot use your data if you do not complete all the trials. 
 When you are ready to start the experimental trials, please press space or touch the button below.",,,5e2093a7e10aa2000c631268,31,2022-02-12_13h16.43.049,lexical_decision_task_DD,2021.2.3,Win32,59.94485074,,,,,,,,,,,,,,,,,,,,,0,0,0,0,1,,,,,,,,,,,,,,,,,,,,,,,,,,,,,,,,,,,,,,,,,,,,,,,,,,,,,,,,,,,,,,
,,,,,,,,,,,,,,,,,5e2093a7e10aa2000c631268,31,2022-02-12_13h16.43.049,lexical_decision_task_DD,2021.2.3,Win32,59.94485074,,,,,,,,,,,0.5708,1,,,,,,,,,,,,,,m,1,0.5708,,,,,,,,-0.227777778,0.289814815,0,0,0,,0,0,0,42,1,FOLDER,C,old,m,./images/FOLDER.png,,,,,,,,,,,,,,,,,,,,,,,,,,,,,,,,,,,,
,,,,,,,,,,,,,,,,,5e2093a7e10aa2000c631268,31,2022-02-12_13h16.43.049,lexical_decision_task_DD,2021.2.3,Win32,59.94485074,,,,,,,,,,,2.6777,1,,,,,,,,,,,,,,z,1,2.6777,,,,,,,,-0.227777778,0.289814815,0,0,0,,0,1,1,118,1,BAVEL,HB,old,z,./images/BAVELHB.png,,,,,,,,,,,,,,,,,,,,,,,,,,,,,,,,,,,,
,,,,,,,,,,,,,,,,,5e2093a7e10aa2000c631268,31,2022-02-12_13h16.43.049,lexical_decision_task_DD,2021.2.3,Win32,59.94485074,,,,,,,,,,,0.7603,1,,,,,,,,,,,,,,m,1,0.7603,,,,,,,,-0.227777778,0.289814815,0,0,0,,0,2,2,65,1,FARMER,LB,old,m,./images/FARMERLB.png,,,,,,,,,,,,,,,,,,,,,,,,,,,,,,,,,,,,
,,,,,,,,,,,,,,,,,5e2093a7e10aa2000c631268,31,2022-02-12_13h16.43.049,lexical_decision_task_DD,2021.2.3,Win32,59.94485074,,,,,,,,,,,0.6814,1,,,,,,,,,,,,,,z,1,0.6814,,,,,,,,-0.227777778,0.289814815,0,0,0,,0,3,3,133,1,POWDY,HB,old,z,./images/POWDYHB.png,,,,,,,,,,,,,,,,,,,,,,,,,,,,,,,,,,,,
,,,,,,,,,,,,,,,,,5e2093a7e10aa2000c631268,31,2022-02-12_13h16.43.049,lexical_decision_task_DD,2021.2.3,Win32,59.94485074,,,,,,,,,,,0.7007,1,,,,,,,,,,,,,,z,1,0.7007,,,,,,,,-0.227777778,0.289814815,0,0,0,,0,4,4,134,1,TROSS,LB,old,z,./images/TROSSLB.png,,,,,,,,,,,,,,,,,,,,,,,,,,,,,,,,,,,,
,,,,,,,,,,,,,,,,,5e2093a7e10aa2000c631268,31,2022-02-12_13h16.43.049,lexical_decision_task_DD,2021.2.3,Win32,59.94485074,,,,,,,,,,,0.5345,1,,,,,,,,,,,,,,z,1,0.5345,,,,,,,,-0.227777778,0.289814815,0,0,0,,0,5,5,116,1,BALGY,LB,old,z,./images/BALGYLB.png,,,,,,,,,,,,,,,,,,,,,,,,,,,,,,,,,,,,
,,,,,,,,,,,,,,,,,5e2093a7e10aa2000c631268,31,2022-02-12_13h16.43.049,lexical_decision_task_DD,2021.2.3,Win32,59.94485074,,,,,,,,,,,0.5988,0,,,,,,,,,,,,,,m,0,0.5988,,,,,,,,-0.227777778,0.289814815,0,0,0,,0,6,6,128,1,GRIFT,LB,old,z,./images/GRIFTLB.png,,,,,,,,,,,,,,,,,,,,,,,,,,,,,,,,,,,,
,,,,,,,,,,,,,,,,,5e2093a7e10aa2000c631268,31,2022-02-12_13h16.43.049,lexical_decision_task_DD,2021.2.3,Win32,59.94485074,,,,,,,,,,,0.6307,1,,,,,,,,,,,,,,z,1,0.6307,,,,,,,,-0.227777778,0.289814815,0,0,0,,0,7,7,136,1,WERVE,HB,old,z,./images/WERVEHB.png,,,,,,,,,,,,,,,,,,,,,,,,,,,,,,,,,,,,
,,,,,,,,,,,,,,,,,5e2093a7e10aa2000c631268,31,2022-02-12_13h16.43.049,lexical_decision_task_DD,2021.2.3,Win32,59.94485074,,,,,,,,,,,0.7876,1,,,,,,,,,,,,,,m,1,0.7876,,,,,,,,-0.227777778,0.289814815,0,0,0,,0,8,8,20,1,CRADLE,LB,old,m,./images/CRADLELB.png,,,,,,,,,,,,,,,,,,,,,,,,,,,,,,,,,,,,
,,,,,,,,,,,,,,,,,5e2093a7e10aa2000c631268,31,2022-02-12_13h16.43.049,lexical_decision_task_DD,2021.2.3,Win32,59.94485074,,,,,,,,,,,0.6099,1,,,,,,,,,,,,,,z,1,0.6099,,,,,,,,-0.227777778,0.289814815,0,0,0,,0,9,9,140,1,DOVET,LB,old,z,./images/DOVETLB.png,,,,,,,,,,,,,,,,,,,,,,,,,,,,,,,,,,,,
,,,,,,,,,,,,,,,,,5e2093a7e10aa2000c631268,31,2022-02-12_13h16.43.049,lexical_decision_task_DD,2021.2.3,Win32,59.94485074,,,,,,,,,,,0.7145,1,,,,,,,,,,,,,,z,1,0.7145,,,,,,,,-0.227777778,0.289814815,0,0,0,,0,10,10,100,1,DRIBS,HB,old,z,./images/DRIBSHB.png,,,,,,,,,,,,,,,,,,,,,,,,,,,,,,,,,,,,
,,,,,,,,,,,,,,,,,5e2093a7e10aa2000c631268,31,2022-02-12_13h16.43.049,lexical_decision_task_DD,2021.2.3,Win32,59.94485074,,,,,,,,,,,0.5112,0,,,,,,,,,,,,,,m,0,0.5112,,,,,,,,-0.227777778,0.289814815,0,0,0,,0,11,11,96,1,KEAMS,C,old,z,./images/KEAMS.png,,,,,,,,,,,,,,,,,,,,,,,,,,,,,,,,,,,,
,,,,,,,,,,,,,,,,,5e2093a7e10aa2000c631268,31,2022-02-12_13h16.43.049,lexical_decision_task_DD,2021.2.3,Win32,59.94485074,,,,,,,,,,,0.8778,1,,,,,,,,,,,,,,z,1,0.8778,,,,,,,,-0.227777778,0.289814815,0,0,0,,0,12,12,145,1,LAMEL,HB,old,z,./images/LAMELHB.png,,,,,,,,,,,,,,,,,,,,,,,,,,,,,,,,,,,,
,,,,,,,,,,,,,,,,,5e2093a7e10aa2000c631268,31,2022-02-12_13h16.43.049,lexical_decision_task_DD,2021.2.3,Win32,59.94485074,,,,,,,,,,,0.7737,0,,,,,,,,,,,,,,m,0,0.7737,,,,,,,,-0.227777778,0.289814815,0,0,0,,0,13,13,154,1,THINT,HB,old,z,./images/THINTHB.png,,,,,,,,,,,,,,,,,,,,,,,,,,,,,,,,,,,,
,,,,,,,,,,,,,,,,,5e2093a7e10aa2000c631268,31,2022-02-12_13h16.43.049,lexical_decision_task_DD,2021.2.3,Win32,59.94485074,,,,,,,,,,,0.5306,1,,,,,,,,,,,,,,z,1,0.5306,,,,,,,,-0.227777778,0.289814815,0,0,0,,0,14,14,143,1,MONGS,LB,old,z,./images/MONGSLB.png,,,,,,,,,,,,,,,,,,,,,,,,,,,,,,,,,,,,
,,,,,,,,,,,,,,,,,5e2093a7e10aa2000c631268,31,2022-02-12_13h16.43.049,lexical_decision_task_DD,2021.2.3,Win32,59.94485074,,,,,,,,,,,0.5687,1,,,,,,,,,,,,,,m,1,0.5687,,,,,,,,-0.227777778,0.289814815,0,0,0,,0,15,15,27,1,ATTIC,C,old,m,./images/ATTIC.png,,,,,,,,,,,,,,,,,,,,,,,,,,,,,,,,,,,,
,,,,,,,,,,,,,,,,,5e2093a7e10aa2000c631268,31,2022-02-12_13h16.43.049,lexical_decision_task_DD,2021.2.3,Win32,59.94485074,,,,,,,,,,,0.4978,1,,,,,,,,,,,,,,z,1,0.4978,,,,,,,,-0.227777778,0.289814815,0,0,0,,0,16,16,86,1,AIFED,LB,old,z,./images/AIFEDLB.png,,,,,,,,,,,,,,,,,,,,,,,,,,,,,,,,,,,,
,,,,,,,,,,,,,,,,,5e2093a7e10aa2000c631268,31,2022-02-12_13h16.43.049,lexical_decision_task_DD,2021.2.3,Win32,59.94485074,,,,,,,,,,,0.5415,0,,,,,,,,,,,,,,z,0,0.5415,,,,,,,,-0.227777778,0.289814815,0,0,0,,0,17,17,31,1,QUILL,HB,old,m,./images/QUILLHB.png,,,,,,,,,,,,,,,,,,,,,,,,,,,,,,,,,,,,
,,,,,,,,,,,,,,,,,5e2093a7e10aa2000c631268,31,2022-02-12_13h16.43.049,lexical_decision_task_DD,2021.2.3,Win32,59.94485074,,,,,,,,,,,0.4521,1,,,,,,,,,,,,,,m,1,0.4521,,,,,,,,-0.227777778,0.289814815,0,0,0,,0,18,18,66,1,SWEAT,C,old,m,./images/SWEAT.png,,,,,,,,,,,,,,,,,,,,,,,,,,,,,,,,,,,,
,,,,,,,,,,,,,,,,,5e2093a7e10aa2000c631268,31,2022-02-12_13h16.43.049,lexical_decision_task_DD,2021.2.3,Win32,59.94485074,,,,,,,,,,,0.4354,1,,,,,,,,,,,,,,z,1,0.4354,,,,,,,,-0.227777778,0.289814815,0,0,0,,0,19,19,113,1,LINEW,LB,old,z,./images/LINEWLB.png,,,,,,,,,,,,,,,,,,,,,,,,,,,,,,,,,,,,
,,,,,,,,,,,,,,,,,5e2093a7e10aa2000c631268,31,2022-02-12_13h16.43.049,lexical_decision_task_DD,2021.2.3,Win32,59.94485074,,,,,,,,,,,0.5199,0,,,,,,,,,,,,,,z,0,0.5199,,,,,,,,-0.227777778,0.289814815,0,0,0,,0,20,20,7,1,PAINT,HB,old,m,./images/PAINTHB.png,,,,,,,,,,,,,,,,,,,,,,,,,,,,,,,,,,,,
,,,,,,,,,,,,,,,,,5e2093a7e10aa2000c631268,31,2022-02-12_13h16.43.049,lexical_decision_task_DD,2021.2.3,Win32,59.94485074,,,,,,,,,,,0.5788,1,,,,,,,,,,,,,,m,1,0.5788,,,,,,,,-0.227777778,0.289814815,0,0,0,,0,21,21,23,1,WALRUS,LB,old,m,./images/WALRUSLB.png,,,,,,,,,,,,,,,,,,,,,,,,,,,,,,,,,,,,
,,,,,,,,,,,,,,,,,5e2093a7e10aa2000c631268,31,2022-02-12_13h16.43.049,lexical_decision_task_DD,2021.2.3,Win32,59.94485074,,,,,,,,,,,0.5641,1,,,,,,,,,,,,,,m,1,0.5641,,,,,,,,-0.227777778,0.289814815,0,0,0,,0,22,22,2,1,BEARD,LB,old,m,./images/BEARDLB.png,,,,,,,,,,,,,,,,,,,,,,,,,,,,,,,,,,,,
,,,,,,,,,,,,,,,,,5e2093a7e10aa2000c631268,31,2022-02-12_13h16.43.049,lexical_decision_task_DD,2021.2.3,Win32,59.94485074,,,,,,,,,,,0.504,1,,,,,,,,,,,,,,z,1,0.504,,,,,,,,-0.227777778,0.289814815,0,0,0,,0,23,23,141,1,PLEET,C,old,z,./images/PLEET.png,,,,,,,,,,,,,,,,,,,,,,,,,,,,,,,,,,,,
,,,,,,,,,,,,,,,,,5e2093a7e10aa2000c631268,31,2022-02-12_13h16.43.049,lexical_decision_task_DD,2021.2.3,Win32,59.94485074,,,,,,,,,,,0.5729,0,,,,,,,,,,,,,,z,0,0.5729,,,,,,,,-0.227777778,0.289814815,0,0,0,,0,24,24,52,1,BANNER,HB,old,m,./images/BANNERHB.png,,,,,,,,,,,,,,,,,,,,,,,,,,,,,,,,,,,,
,,,,,,,,,,,,,,,,,5e2093a7e10aa2000c631268,31,2022-02-12_13h16.43.049,lexical_decision_task_DD,2021.2.3,Win32,59.94485074,,,,,,,,,,,0.5952,1,,,,,,,,,,,,,,z,1,0.5952,,,,,,,,-0.227777778,0.289814815,0,0,0,,0,25,25,165,1,TROWN,C,old,z,./images/TROWN.png,,,,,,,,,,,,,,,,,,,,,,,,,,,,,,,,,,,,
,,,,,,,,,,,,,,,,,5e2093a7e10aa2000c631268,31,2022-02-12_13h16.43.049,lexical_decision_task_DD,2021.2.3,Win32,59.94485074,,,,,,,,,,,0.6355,0,,,,,,,,,,,,,,z,0,0.6355,,,,,,,,-0.227777778,0.289814815,0,0,0,,0,26,26,8,1,TULIP,LB,old,m,./images/TULIPLB.png,,,,,,,,,,,,,,,,,,,,,,,,,,,,,,,,,,,,
,,,,,,,,,,,,,,,,,5e2093a7e10aa2000c631268,31,2022-02-12_13h16.43.049,lexical_decision_task_DD,2021.2.3,Win32,59.94485074,,,,,,,,,,,0.5837,1,,,,,,,,,,,,,,z,1,0.5837,,,,,,,,-0.227777778,0.289814815,0,0,0,,0,27,27,122,1,BLOOT,LB,old,z,./images/BLOOTLB.png,,,,,,,,,,,,,,,,,,,,,,,,,,,,,,,,,,,,
,,,,,,,,,,,,,,,,,5e2093a7e10aa2000c631268,31,2022-02-12_13h16.43.049,lexical_decision_task_DD,2021.2.3,Win32,59.94485074,,,,,,,,,,,0.6323,1,,,,,,,,,,,,,,m,1,0.6323,,,,,,,,-0.227777778,0.289814815,0,0,0,,0,28,28,35,1,PEACH,LB,old,m,./images/PEACHLB.png,,,,,,,,,,,,,,,,,,,,,,,,,,,,,,,,,,,,
,,,,,,,,,,,,,,,,,5e2093a7e10aa2000c631268,31,2022-02-12_13h16.43.049,lexical_decision_task_DD,2021.2.3,Win32,59.94485074,,,,,,,,,,,0.6142,1,,,,,,,,,,,,,,z,1,0.6142,,,,,,,,-0.227777778,0.289814815,0,0,0,,0,29,29,161,1,BLAPS,LB,old,z,./images/BLAPSLB.png,,,,,,,,,,,,,,,,,,,,,,,,,,,,,,,,,,,,
,,,,,,,,,,,,,,,,,5e2093a7e10aa2000c631268,31,2022-02-12_13h16.43.049,lexical_decision_task_DD,2021.2.3,Win32,59.94485074,,,,,,,,,,,0.4031,0,,,,,,,,,,,,,,z,0,0.4031,,,,,,,,-0.227777778,0.289814815,0,0,0,,0,30,30,10,1,BELLY,HB,old,m,./images/BELLYHB.png,,,,,,,,,,,,,,,,,,,,,,,,,,,,,,,,,,,,
,,,,,,,,,,,,,,,,,5e2093a7e10aa2000c631268,31,2022-02-12_13h16.43.049,lexical_decision_task_DD,2021.2.3,Win32,59.94485074,,,,,,,,,,,0.5034,1,,,,,,,,,,,,,,m,1,0.5034,,,,,,,,-0.227777778,0.289814815,0,0,0,,0,31,31,30,1,STORM,C,old,m,./images/STORM.png,,,,,,,,,,,,,,,,,,,,,,,,,,,,,,,,,,,,
,,,,,,,,,,,,,,,,,5e2093a7e10aa2000c631268,31,2022-02-12_13h16.43.049,lexical_decision_task_DD,2021.2.3,Win32,59.94485074,,,,,,,,,,,0.5567,1,,,,,,,,,,,,,,z,1,0.5567,,,,,,,,-0.227777778,0.289814815,0,0,0,,0,32,32,119,1,PAFER,LB,old,z,./images/PAFERLB.png,,,,,,,,,,,,,,,,,,,,,,,,,,,,,,,,,,,,
,,,,,,,,,,,,,,,,,5e2093a7e10aa2000c631268,31,2022-02-12_13h16.43.049,lexical_decision_task_DD,2021.2.3,Win32,59.94485074,,,,,,,,,,,0.8376,1,,,,,,,,,,,,,,m,1,0.8376,,,,,,,,-0.227777778,0.289814815,0,0,0,,0,33,33,79,1,CRUST,HB,old,m,./images/CRUSTHB.png,,,,,,,,,,,,,,,,,,,,,,,,,,,,,,,,,,,,
,,,,,,,,,,,,,,,,,5e2093a7e10aa2000c631268,31,2022-02-12_13h16.43.049,lexical_decision_task_DD,2021.2.3,Win32,59.94485074,,,,,,,,,,,1.0586,1,,,,,,,,,,,,,,z,1,1.0586,,,,,,,,-0.227777778,0.289814815,0,0,0,,0,34,34,94,1,BLANS,HB,old,z,./images/BLANSHB.png,,,,,,,,,,,,,,,,,,,,,,,,,,,,,,,,,,,,
,,,,,,,,,,,,,,,,,5e2093a7e10aa2000c631268,31,2022-02-12_13h16.43.049,lexical_decision_task_DD,2021.2.3,Win32,59.94485074,,,,,,,,,,,0.8788,1,,,,,,,,,,,,,,z,1,0.8788,,,,,,,,-0.227777778,0.289814815,0,0,0,,0,35,35,139,1,BLEAR,HB,old,z,./images/BLEARHB.png,,,,,,,,,,,,,,,,,,,,,,,,,,,,,,,,,,,,
,,,,,,,,,,,,,,,,,5e2093a7e10aa2000c631268,31,2022-02-12_13h16.43.049,lexical_decision_task_DD,2021.2.3,Win32,59.94485074,,,,,,,,,,,0.4508,0,,,,,,,,,,,,,,z,0,0.4508,,,,,,,,-0.227777778,0.289814815,0,0,0,,0,36,36,4,1,MUSCLE,HB,old,m,./images/MUSCLEHB.png,,,,,,,,,,,,,,,,,,,,,,,,,,,,,,,,,,,,
,,,,,,,,,,,,,,,,,5e2093a7e10aa2000c631268,31,2022-02-12_13h16.43.049,lexical_decision_task_DD,2021.2.3,Win32,59.94485074,,,,,,,,,,,0.4468,1,,,,,,,,,,,,,,z,1,0.4468,,,,,,,,-0.227777778,0.289814815,0,0,0,,0,37,37,124,1,TUNCH,HB,old,z,./images/TUNCHHB.png,,,,,,,,,,,,,,,,,,,,,,,,,,,,,,,,,,,,
,,,,,,,,,,,,,,,,,5e2093a7e10aa2000c631268,31,2022-02-12_13h16.43.049,lexical_decision_task_DD,2021.2.3,Win32,59.94485074,,,,,,,,,,,0.6483,1,,,,,,,,,,,,,,z,1,0.6483,,,,,,,,-0.227777778,0.289814815,0,0,0,,0,38,38,102,1,DULLE,C,old,z,./images/DULLE.png,,,,,,,,,,,,,,,,,,,,,,,,,,,,,,,,,,,,
,,,,,,,,,,,,,,,,,5e2093a7e10aa2000c631268,31,2022-02-12_13h16.43.049,lexical_decision_task_DD,2021.2.3,Win32,59.94485074,,,,,,,,,,,0.681,1,,,,,,,,,,,,,,m,1,0.681,,,,,,,,-0.227777778,0.289814815,0,0,0,,0,39,39,17,1,SKIING,LB,old,m,./images/SKIINGLB.png,,,,,,,,,,,,,,,,,,,,,,,,,,,,,,,,,,,,
,,,,,,,,,,,,,,,,,5e2093a7e10aa2000c631268,31,2022-02-12_13h16.43.049,lexical_decision_task_DD,2021.2.3,Win32,59.94485074,,,,,,,,,,,0.5595,1,,,,,,,,,,,,,,m,1,0.5595,,,,,,,,-0.227777778,0.289814815,0,0,0,,0,40,40,21,1,KIDNEY,C,old,m,./images/KIDNEY.png,,,,,,,,,,,,,,,,,,,,,,,,,,,,,,,,,,,,
,,,,,,,,,,,,,,,,,5e2093a7e10aa2000c631268,31,2022-02-12_13h16.43.049,lexical_decision_task_DD,2021.2.3,Win32,59.94485074,,,,,,,,,,,0.5397,0,,,,,,,,,,,,,,z,0,0.5397,,,,,,,,-0.087962963,0.400925926,0,0,0,space,0,41,41,70,1,URINE,HB,old,m,./images/URINEHB.png,29.2796,,,,,,,,,,,,,,,,,,,,,,,,,,,,,,,,,,,
,,,,,,,,,,,,,,,,,5e2093a7e10aa2000c631268,31,2022-02-12_13h16.43.049,lexical_decision_task_DD,2021.2.3,Win32,59.94485074,,,,,,,,,,,0.6792,1,,,,,,,,,,,,,,m,1,0.6792,,,,,,,,-0.087962963,0.400925926,0,0,0,,0,42,42,57,1,MOOSE,C,old,m,./images/MOOSE.png,,,,,,,,,,,,,,,,,,,,,,,,,,,,,,,,,,,,
,,,,,,,,,,,,,,,,,5e2093a7e10aa2000c631268,31,2022-02-12_13h16.43.049,lexical_decision_task_DD,2021.2.3,Win32,59.94485074,,,,,,,,,,,0.5944,1,,,,,,,,,,,,,,m,1,0.5944,,,,,,,,-0.087962963,0.400925926,0,0,0,,0,43,43,59,1,BURIAL,LB,old,m,./images/BURIALLB.png,,,,,,,,,,,,,,,,,,,,,,,,,,,,,,,,,,,,
,,,,,,,,,,,,,,,,,5e2093a7e10aa2000c631268,31,2022-02-12_13h16.43.049,lexical_decision_task_DD,2021.2.3,Win32,59.94485074,,,,,,,,,,,0.9291,1,,,,,,,,,,,,,,m,1,0.9291,,,,,,,,-0.087962963,0.400925926,0,0,0,,0,44,44,43,1,MOSQUE,HB,old,m,./images/MOSQUEHB.png,,,,,,,,,,,,,,,,,,,,,,,,,,,,,,,,,,,,
,,,,,,,,,,,,,,,,,5e2093a7e10aa2000c631268,31,2022-02-12_13h16.43.049,lexical_decision_task_DD,2021.2.3,Win32,59.94485074,,,,,,,,,,,0.7223,1,,,,,,,,,,,,,,m,1,0.7223,,,,,,,,-0.087962963,0.400925926,0,0,0,,0,45,45,68,1,TORCH,LB,old,m,./images/TORCHLB.png,,,,,,,,,,,,,,,,,,,,,,,,,,,,,,,,,,,,
,,,,,,,,,,,,,,,,,5e2093a7e10aa2000c631268,31,2022-02-12_13h16.43.049,lexical_decision_task_DD,2021.2.3,Win32,59.94485074,,,,,,,,,,,0.7166,1,,,,,,,,,,,,,,z,1,0.7166,,,,,,,,-0.087962963,0.400925926,0,0,0,,0,46,46,91,1,SHENS,HB,old,z,./images/SHENSHB.png,,,,,,,,,,,,,,,,,,,,,,,,,,,,,,,,,,,,
,,,,,,,,,,,,,,,,,5e2093a7e10aa2000c631268,31,2022-02-12_13h16.43.049,lexical_decision_task_DD,2021.2.3,Win32,59.94485074,,,,,,,,,,,0.5573,1,,,,,,,,,,,,,,m,1,0.5573,,,,,,,,-0.087962963,0.400925926,0,0,0,,0,47,47,62,1,PURSE,LB,old,m,./images/PURSELB.png,,,,,,,,,,,,,,,,,,,,,,,,,,,,,,,,,,,,
,,,,,,,,,,,,,,,,,5e2093a7e10aa2000c631268,31,2022-02-12_13h16.43.049,lexical_decision_task_DD,2021.2.3,Win32,59.94485074,,,,,,,,,,,0.5732,1,,,,,,,,,,,,,,m,1,0.5732,,,,,,,,-0.087962963,0.400925926,0,0,0,,0,48,48,80,1,WEASEL,LB,old,m,./images/WEASELLB.png,,,,,,,,,,,,,,,,,,,,,,,,,,,,,,,,,,,,
,,,,,,,,,,,,,,,,,5e2093a7e10aa2000c631268,31,2022-02-12_13h16.43.049,lexical_decision_task_DD,2021.2.3,Win32,59.94485074,,,,,,,,,,,0.5725,1,,,,,,,,,,,,,,z,1,0.5725,,,,,,,,-0.087962963,0.400925926,0,0,0,,0,49,49,156,1,HIXES,C,old,z,./images/HIXES.png,,,,,,,,,,,,,,,,,,,,,,,,,,,,,,,,,,,,
,,,,,,,,,,,,,,,,,5e2093a7e10aa2000c631268,31,2022-02-12_13h16.43.049,lexical_decision_task_DD,2021.2.3,Win32,59.94485074,,,,,,,,,,,0.5397,1,,,,,,,,,,,,,,m,1,0.5397,,,,,,,,-0.087962963,0.400925926,0,0,0,,0,50,50,1,1,PLANK,HB,old,m,./images/PLANKHB.png,,,,,,,,,,,,,,,,,,,,,,,,,,,,,,,,,,,,
,,,,,,,,,,,,,,,,,5e2093a7e10aa2000c631268,31,2022-02-12_13h16.43.049,lexical_decision_task_DD,2021.2.3,Win32,59.94485074,,,,,,,,,,,0.5245,1,,,,,,,,,,,,,,m,1,0.5245,,,,,,,,-0.087962963,0.400925926,0,0,0,,0,51,51,41,1,STRING,LB,old,m,./images/STRINGLB.png,,,,,,,,,,,,,,,,,,,,,,,,,,,,,,,,,,,,
,,,,,,,,,,,,,,,,,5e2093a7e10aa2000c631268,31,2022-02-12_13h16.43.049,lexical_decision_task_DD,2021.2.3,Win32,59.94485074,,,,,,,,,,,0.5334,1,,,,,,,,,,,,,,z,1,0.5334,,,,,,,,-0.087962963,0.400925926,0,0,0,,0,52,52,144,1,NAIRY,C,old,z,./images/NAIRY.png,,,,,,,,,,,,,,,,,,,,,,,,,,,,,,,,,,,,
,,,,,,,,,,,,,,,,,5e2093a7e10aa2000c631268,31,2022-02-12_13h16.43.049,lexical_decision_task_DD,2021.2.3,Win32,59.94485074,,,,,,,,,,,0.6388,1,,,,,,,,,,,,,,m,1,0.6388,,,,,,,,-0.087962963,0.400925926,0,0,0,,0,53,53,82,1,SUNSET,HB,old,m,./images/SUNSETHB.png,,,,,,,,,,,,,,,,,,,,,,,,,,,,,,,,,,,,
,,,,,,,,,,,,,,,,,5e2093a7e10aa2000c631268,31,2022-02-12_13h16.43.049,lexical_decision_task_DD,2021.2.3,Win32,59.94485074,,,,,,,,,,,0.4914,1,,,,,,,,,,,,,,m,1,0.4914,,,,,,,,-0.087962963,0.400925926,0,0,0,,0,54,54,69,1,COOKER,C,old,m,./images/COOKER.png,,,,,,,,,,,,,,,,,,,,,,,,,,,,,,,,,,,,
,,,,,,,,,,,,,,,,,5e2093a7e10aa2000c631268,31,2022-02-12_13h16.43.049,lexical_decision_task_DD,2021.2.3,Win32,59.94485074,,,,,,,,,,,0.6061,0,,,,,,,,,,,,,,z,0,0.6061,,,,,,,,-0.087962963,0.400925926,0,0,0,,0,55,55,72,1,NOOSE,C,old,m,./images/NOOSE.png,,,,,,,,,,,,,,,,,,,,,,,,,,,,,,,,,,,,
,,,,,,,,,,,,,,,,,5e2093a7e10aa2000c631268,31,2022-02-12_13h16.43.049,lexical_decision_task_DD,2021.2.3,Win32,59.94485074,,,,,,,,,,,0.588,1,,,,,,,,,,,,,,m,1,0.588,,,,,,,,-0.087962963,0.400925926,0,0,0,,0,56,56,34,1,CANYON,HB,old,m,./images/CANYONHB.png,,,,,,,,,,,,,,,,,,,,,,,,,,,,,,,,,,,,
,,,,,,,,,,,,,,,,,5e2093a7e10aa2000c631268,31,2022-02-12_13h16.43.049,lexical_decision_task_DD,2021.2.3,Win32,59.94485074,,,,,,,,,,,0.8994,1,,,,,,,,,,,,,,z,1,0.8994,,,,,,,,-0.087962963,0.400925926,0,0,0,,0,57,57,121,1,CEERS,HB,old,z,./images/CEERSHB.png,,,,,,,,,,,,,,,,,,,,,,,,,,,,,,,,,,,,
,,,,,,,,,,,,,,,,,5e2093a7e10aa2000c631268,31,2022-02-12_13h16.43.049,lexical_decision_task_DD,2021.2.3,Win32,59.94485074,,,,,,,,,,,0.6845,1,,,,,,,,,,,,,,z,1,0.6845,,,,,,,,-0.087962963,0.400925926,0,0,0,,0,58,58,107,1,FASKS,LB,old,z,./images/FASKSLB.png,,,,,,,,,,,,,,,,,,,,,,,,,,,,,,,,,,,,
,,,,,,,,,,,,,,,,,5e2093a7e10aa2000c631268,31,2022-02-12_13h16.43.049,lexical_decision_task_DD,2021.2.3,Win32,59.94485074,,,,,,,,,,,0.5591,0,,,,,,,,,,,,,,m,0,0.5591,,,,,,,,-0.087962963,0.400925926,0,0,0,,0,59,59,159,1,CUDDY,C,old,z,./images/CUDDY.png,,,,,,,,,,,,,,,,,,,,,,,,,,,,,,,,,,,,
,,,,,,,,,,,,,,,,,5e2093a7e10aa2000c631268,31,2022-02-12_13h16.43.049,lexical_decision_task_DD,2021.2.3,Win32,59.94485074,,,,,,,,,,,0.639,1,,,,,,,,,,,,,,m,1,0.639,,,,,,,,-0.087962963,0.400925926,0,0,0,,0,60,60,55,1,MUFFIN,HB,old,m,./images/MUFFINHB.png,,,,,,,,,,,,,,,,,,,,,,,,,,,,,,,,,,,,
,,,,,,,,,,,,,,,,,5e2093a7e10aa2000c631268,31,2022-02-12_13h16.43.049,lexical_decision_task_DD,2021.2.3,Win32,59.94485074,,,,,,,,,,,0.4996,1,,,,,,,,,,,,,,z,1,0.4996,,,,,,,,-0.087962963,0.400925926,0,0,0,,0,61,61,135,1,JOODY,C,old,z,./images/JOODY.png,,,,,,,,,,,,,,,,,,,,,,,,,,,,,,,,,,,,
,,,,,,,,,,,,,,,,,5e2093a7e10aa2000c631268,31,2022-02-12_13h16.43.049,lexical_decision_task_DD,2021.2.3,Win32,59.94485074,,,,,,,,,,,0.4853,1,,,,,,,,,,,,,,z,1,0.4853,,,,,,,,-0.087962963,0.400925926,0,0,0,,0,62,62,130,1,CRILL,HB,old,z,./images/CRILLHB.png,,,,,,,,,,,,,,,,,,,,,,,,,,,,,,,,,,,,
,,,,,,,,,,,,,,,,,5e2093a7e10aa2000c631268,31,2022-02-12_13h16.43.049,lexical_decision_task_DD,2021.2.3,Win32,59.94485074,,,,,,,,,,,0.5443,1,,,,,,,,,,,,,,z,1,0.5443,,,,,,,,-0.087962963,0.400925926,0,0,0,,0,63,63,155,1,CANGY,LB,old,z,./images/CANGYLB.png,,,,,,,,,,,,,,,,,,,,,,,,,,,,,,,,,,,,
,,,,,,,,,,,,,,,,,5e2093a7e10aa2000c631268,31,2022-02-12_13h16.43.049,lexical_decision_task_DD,2021.2.3,Win32,59.94485074,,,,,,,,,,,0.3936,0,,,,,,,,,,,,,,z,0,0.3936,,,,,,,,-0.087962963,0.400925926,0,0,0,,0,64,64,16,1,PENCE,HB,old,m,./images/PENCEHB.png,,,,,,,,,,,,,,,,,,,,,,,,,,,,,,,,,,,,
,,,,,,,,,,,,,,,,,5e2093a7e10aa2000c631268,31,2022-02-12_13h16.43.049,lexical_decision_task_DD,2021.2.3,Win32,59.94485074,,,,,,,,,,,0.8794,1,,,,,,,,,,,,,,z,1,0.8794,,,,,,,,-0.087962963,0.400925926,0,0,0,,0,65,65,163,1,GAMBA,HB,old,z,./images/GAMBAHB.png,,,,,,,,,,,,,,,,,,,,,,,,,,,,,,,,,,,,
,,,,,,,,,,,,,,,,,5e2093a7e10aa2000c631268,31,2022-02-12_13h16.43.049,lexical_decision_task_DD,2021.2.3,Win32,59.94485074,,,,,,,,,,,0.5466,1,,,,,,,,,,,,,,z,1,0.5466,,,,,,,,-0.087962963,0.400925926,0,0,0,,0,66,66,157,1,INLER,HB,old,z,./images/INLERHB.png,,,,,,,,,,,,,,,,,,,,,,,,,,,,,,,,,,,,
,,,,,,,,,,,,,,,,,5e2093a7e10aa2000c631268,31,2022-02-12_13h16.43.049,lexical_decision_task_DD,2021.2.3,Win32,59.94485074,,,,,,,,,,,0.5074,1,,,,,,,,,,,,,,m,1,0.5074,,,,,,,,-0.087962963,0.400925926,0,0,0,,0,67,67,29,1,CRUMB,LB,old,m,./images/CRUMBLB.png,,,,,,,,,,,,,,,,,,,,,,,,,,,,,,,,,,,,
,,,,,,,,,,,,,,,,,5e2093a7e10aa2000c631268,31,2022-02-12_13h16.43.049,lexical_decision_task_DD,2021.2.3,Win32,59.94485074,,,,,,,,,,,0.6852,1,,,,,,,,,,,,,,z,1,0.6852,,,,,,,,-0.087962963,0.400925926,0,0,0,,0,68,68,129,1,PRANS,C,old,z,./images/PRANS.png,,,,,,,,,,,,,,,,,,,,,,,,,,,,,,,,,,,,
,,,,,,,,,,,,,,,,,5e2093a7e10aa2000c631268,31,2022-02-12_13h16.43.049,lexical_decision_task_DD,2021.2.3,Win32,59.94485074,,,,,,,,,,,0.5598,1,,,,,,,,,,,,,,m,1,0.5598,,,,,,,,-0.087962963,0.400925926,0,0,0,,0,69,69,56,1,PACKET,LB,old,m,./images/PACKETLB.png,,,,,,,,,,,,,,,,,,,,,,,,,,,,,,,,,,,,
,,,,,,,,,,,,,,,,,5e2093a7e10aa2000c631268,31,2022-02-12_13h16.43.049,lexical_decision_task_DD,2021.2.3,Win32,59.94485074,,,,,,,,,,,0.6397,1,,,,,,,,,,,,,,m,1,0.6397,,,,,,,,-0.087962963,0.400925926,0,0,0,,0,70,70,78,1,LITTER,C,old,m,./images/LITTER.png,,,,,,,,,,,,,,,,,,,,,,,,,,,,,,,,,,,,
,,,,,,,,,,,,,,,,,5e2093a7e10aa2000c631268,31,2022-02-12_13h16.43.049,lexical_decision_task_DD,2021.2.3,Win32,59.94485074,,,,,,,,,,,0.6284,1,,,,,,,,,,,,,,m,1,0.6284,,,,,,,,-0.087962963,0.400925926,0,0,0,,0,71,71,15,1,GREASE,C,old,m,./images/GREASE.png,,,,,,,,,,,,,,,,,,,,,,,,,,,,,,,,,,,,
,,,,,,,,,,,,,,,,,5e2093a7e10aa2000c631268,31,2022-02-12_13h16.43.049,lexical_decision_task_DD,2021.2.3,Win32,59.94485074,,,,,,,,,,,0.5615,1,,,,,,,,,,,,,,m,1,0.5615,,,,,,,,-0.087962963,0.400925926,0,0,0,,0,72,72,13,1,MOTOR,HB,old,m,./images/MOTORHB.png,,,,,,,,,,,,,,,,,,,,,,,,,,,,,,,,,,,,
,,,,,,,,,,,,,,,,,5e2093a7e10aa2000c631268,31,2022-02-12_13h16.43.049,lexical_decision_task_DD,2021.2.3,Win32,59.94485074,,,,,,,,,,,0.4974,1,,,,,,,,,,,,,,m,1,0.4974,,,,,,,,-0.087962963,0.400925926,0,0,0,,0,73,73,47,1,BERRY,LB,old,m,./images/BERRYLB.png,,,,,,,,,,,,,,,,,,,,,,,,,,,,,,,,,,,,
,,,,,,,,,,,,,,,,,5e2093a7e10aa2000c631268,31,2022-02-12_13h16.43.049,lexical_decision_task_DD,2021.2.3,Win32,59.94485074,,,,,,,,,,,0.5162,1,,,,,,,,,,,,,,m,1,0.5162,,,,,,,,-0.087962963,0.400925926,0,0,0,,0,74,74,5,1,PASTA,LB,old,m,./images/PASTALB.png,,,,,,,,,,,,,,,,,,,,,,,,,,,,,,,,,,,,
,,,,,,,,,,,,,,,,,5e2093a7e10aa2000c631268,31,2022-02-12_13h16.43.049,lexical_decision_task_DD,2021.2.3,Win32,59.94485074,,,,,,,,,,,0.8295,1,,,,,,,,,,,,,,z,1,0.8295,,,,,,,,-0.087962963,0.400925926,0,0,0,,0,75,75,101,1,GLEET,LB,old,z,./images/GLEETLB.png,,,,,,,,,,,,,,,,,,,,,,,,,,,,,,,,,,,,
,,,,,,,,,,,,,,,,,5e2093a7e10aa2000c631268,31,2022-02-12_13h16.43.049,lexical_decision_task_DD,2021.2.3,Win32,59.94485074,,,,,,,,,,,0.9865,1,,,,,,,,,,,,,,m,1,0.9865,,,,,,,,-0.087962963,0.400925926,0,0,0,,0,76,76,40,1,SWING,HB,old,m,./images/SWINGHB.png,,,,,,,,,,,,,,,,,,,,,,,,,,,,,,,,,,,,
,,,,,,,,,,,,,,,,,5e2093a7e10aa2000c631268,31,2022-02-12_13h16.43.049,lexical_decision_task_DD,2021.2.3,Win32,59.94485074,,,,,,,,,,,0.6662,1,,,,,,,,,,,,,,z,1,0.6662,,,,,,,,-0.087962963,0.400925926,0,0,0,,0,77,77,160,1,VEETS,HB,old,z,./images/VEETSHB.png,,,,,,,,,,,,,,,,,,,,,,,,,,,,,,,,,,,,
,,,,,,,,,,,,,,,,,5e2093a7e10aa2000c631268,31,2022-02-12_13h16.43.049,lexical_decision_task_DD,2021.2.3,Win32,59.94485074,,,,,,,,,,,0.5494,1,,,,,,,,,,,,,,z,1,0.5494,,,,,,,,-0.087962963,0.400925926,0,0,0,,0,78,78,127,1,NINDY,HB,old,z,./images/NINDYHB.png,,,,,,,,,,,,,,,,,,,,,,,,,,,,,,,,,,,,
,,,,,,,,,,,,,,,,,5e2093a7e10aa2000c631268,31,2022-02-12_13h16.43.049,lexical_decision_task_DD,2021.2.3,Win32,59.94485074,,,,,,,,,,,0.6043,1,,,,,,,,,,,,,,z,1,0.6043,,,,,,,,-0.087962963,0.400925926,0,0,0,,0,79,79,132,1,SCIFF,C,old,z,./images/SCIFF.png,,,,,,,,,,,,,,,,,,,,,,,,,,,,,,,,,,,,
,,,,,,,,,,,,,,,,,5e2093a7e10aa2000c631268,31,2022-02-12_13h16.43.049,lexical_decision_task_DD,2021.2.3,Win32,59.94485074,,,,,,,,,,,0.6581,1,,,,,,,,,,,,,,z,1,0.6581,,,,,,,,-0.087962963,0.400925926,0,0,0,,0,80,80,167,1,ZONET,LB,old,z,./images/ZONETLB.png,,,,,,,,,,,,,,,,,,,,,,,,,,,,,,,,,,,,
,,,,,,,,,,,,,,,,,5e2093a7e10aa2000c631268,31,2022-02-12_13h16.43.049,lexical_decision_task_DD,2021.2.3,Win32,59.94485074,,,,,,,,,,,0.5827,1,,,,,,,,,,,,,,z,1,0.5827,,,,,,,,-0.087962963,0.400925926,0,0,0,,0,81,81,123,1,SEDGE,C,old,z,./images/SEDGE.png,,,,,,,,,,,,,,,,,,,,,,,,,,,,,,,,,,,,
,,,,,,,,,,,,,,,,,5e2093a7e10aa2000c631268,31,2022-02-12_13h16.43.049,lexical_decision_task_DD,2021.2.3,Win32,59.94485074,,,,,,,,,,,0.5966,1,,,,,,,,,,,,,,m,1,0.5966,,,,,,,,-0.087962963,0.400925926,0,0,0,,0,82,82,63,1,MIRROR,C,old,m,./images/MIRROR.png,,,,,,,,,,,,,,,,,,,,,,,,,,,,,,,,,,,,
,,,,,,,,,,,,,,,,,5e2093a7e10aa2000c631268,31,2022-02-12_13h16.43.049,lexical_decision_task_DD,2021.2.3,Win32,59.94485074,,,,,,,,,,,0.516,1,,,,,,,,,,,,,,m,1,0.516,,,,,,,,0.00462963,-0.387037037,1,0,0,,0,83,83,60,1,TWINS,C,old,m,./images/TWINS.png,,break_done_button,,,,,,,,,,,,,,,,,,,,,,,,,,,,,,,,,,
,,,,,,,,,,,,,,,,,5e2093a7e10aa2000c631268,31,2022-02-12_13h16.43.049,lexical_decision_task_DD,2021.2.3,Win32,59.94485074,,,,,,,,,,,0.9498,1,,,,,,,,,,,,,,m,1,0.9498,,,,,,,,0.00462963,-0.387037037,0,0,0,,0,84,84,19,1,DOUGH,HB,old,m,./images/DOUGHHB.png,,,,,,,,,,,,,,,,,,,,,,,,,,,,,,,,,,,,
,,,,,,,,,,,,,,,,,5e2093a7e10aa2000c631268,31,2022-02-12_13h16.43.049,lexical_decision_task_DD,2021.2.3,Win32,59.94485074,,,,,,,,,,,0.653,1,,,,,,,,,,,,,,m,1,0.653,,,,,,,,0.00462963,-0.387037037,0,0,0,,0,85,85,11,1,BONNET,LB,old,m,./images/BONNETLB.png,,,,,,,,,,,,,,,,,,,,,,,,,,,,,,,,,,,,
,,,,,,,,,,,,,,,,,5e2093a7e10aa2000c631268,31,2022-02-12_13h16.43.049,lexical_decision_task_DD,2021.2.3,Win32,59.94485074,,,,,,,,,,,0.5528,1,,,,,,,,,,,,,,z,1,0.5528,,,,,,,,0.00462963,-0.387037037,0,0,0,,0,86,86,137,1,JOOST,LB,old,z,./images/JOOSTLB.png,,,,,,,,,,,,,,,,,,,,,,,,,,,,,,,,,,,,
,,,,,,,,,,,,,,,,,5e2093a7e10aa2000c631268,31,2022-02-12_13h16.43.049,lexical_decision_task_DD,2021.2.3,Win32,59.94485074,,,,,,,,,,,0.6168,1,,,,,,,,,,,,,,z,1,0.6168,,,,,,,,0.00462963,-0.387037037,0,0,0,,0,87,87,152,1,FRAIN,LB,old,z,./images/FRAINLB.png,,,,,,,,,,,,,,,,,,,,,,,,,,,,,,,,,,,,
,,,,,,,,,,,,,,,,,5e2093a7e10aa2000c631268,31,2022-02-12_13h16.43.049,lexical_decision_task_DD,2021.2.3,Win32,59.94485074,,,,,,,,,,,0.4782,1,,,,,,,,,,,,,,z,1,0.4782,,,,,,,,0.00462963,-0.387037037,0,0,0,,0,88,88,120,1,RINED,C,old,z,./images/RINED.png,,,,,,,,,,,,,,,,,,,,,,,,,,,,,,,,,,,,
,,,,,,,,,,,,,,,,,5e2093a7e10aa2000c631268,31,2022-02-12_13h16.43.049,lexical_decision_task_DD,2021.2.3,Win32,59.94485074,,,,,,,,,,,0.5373,1,,,,,,,,,,,,,,z,1,0.5373,,,,,,,,0.00462963,-0.387037037,0,0,0,,0,89,89,95,1,HANTY,LB,old,z,./images/HANTYLB.png,,,,,,,,,,,,,,,,,,,,,,,,,,,,,,,,,,,,
,,,,,,,,,,,,,,,,,5e2093a7e10aa2000c631268,31,2022-02-12_13h16.43.049,lexical_decision_task_DD,2021.2.3,Win32,59.94485074,,,,,,,,,,,0.5138,1,,,,,,,,,,,,,,z,1,0.5138,,,,,,,,0.00462963,-0.387037037,0,0,0,,0,90,90,111,1,HOSSE,C,old,z,./images/HOSSE.png,,,,,,,,,,,,,,,,,,,,,,,,,,,,,,,,,,,,
,,,,,,,,,,,,,,,,,5e2093a7e10aa2000c631268,31,2022-02-12_13h16.43.049,lexical_decision_task_DD,2021.2.3,Win32,59.94485074,,,,,,,,,,,0.4679,1,,,,,,,,,,,,,,z,1,0.4679,,,,,,,,0.00462963,-0.387037037,0,0,0,,0,91,91,104,1,GITTY,LB,old,z,./images/GITTYLB.png,,,,,,,,,,,,,,,,,,,,,,,,,,,,,,,,,,,,
,,,,,,,,,,,,,,,,,5e2093a7e10aa2000c631268,31,2022-02-12_13h16.43.049,lexical_decision_task_DD,2021.2.3,Win32,59.94485074,,,,,,,,,,,0.4952,1,,,,,,,,,,,,,,z,1,0.4952,,,,,,,,0.00462963,-0.387037037,0,0,0,,0,92,92,98,1,BAMPS,LB,old,z,./images/BAMPSLB.png,,,,,,,,,,,,,,,,,,,,,,,,,,,,,,,,,,,,
,,,,,,,,,,,,,,,,,5e2093a7e10aa2000c631268,31,2022-02-12_13h16.43.049,lexical_decision_task_DD,2021.2.3,Win32,59.94485074,,,,,,,,,,,0.5938,0,,,,,,,,,,,,,,z,0,0.5938,,,,,,,,0.00462963,-0.387037037,0,0,0,,0,93,93,37,1,BIRTH,HB,old,m,./images/BIRTHHB.png,,,,,,,,,,,,,,,,,,,,,,,,,,,,,,,,,,,,
,,,,,,,,,,,,,,,,,5e2093a7e10aa2000c631268,31,2022-02-12_13h16.43.049,lexical_decision_task_DD,2021.2.3,Win32,59.94485074,,,,,,,,,,,0.5605,1,,,,,,,,,,,,,,z,1,0.5605,,,,,,,,0.00462963,-0.387037037,0,0,0,,0,94,94,150,1,NOOLS,C,old,z,./images/NOOLS.png,,,,,,,,,,,,,,,,,,,,,,,,,,,,,,,,,,,,
,,,,,,,,,,,,,,,,,5e2093a7e10aa2000c631268,31,2022-02-12_13h16.43.049,lexical_decision_task_DD,2021.2.3,Win32,59.94485074,,,,,,,,,,,0.5765,1,,,,,,,,,,,,,,m,1,0.5765,,,,,,,,0.00462963,-0.387037037,0,0,0,,0,95,95,32,1,BARREL,LB,old,m,./images/BARRELLB.png,,,,,,,,,,,,,,,,,,,,,,,,,,,,,,,,,,,,
,,,,,,,,,,,,,,,,,5e2093a7e10aa2000c631268,31,2022-02-12_13h16.43.049,lexical_decision_task_DD,2021.2.3,Win32,59.94485074,,,,,,,,,,,0.5516,1,,,,,,,,,,,,,,z,1,0.5516,,,,,,,,0.00462963,-0.387037037,0,0,0,,0,96,96,148,1,JOMS,HB,old,z,./images/JOMSHB.png,,,,,,,,,,,,,,,,,,,,,,,,,,,,,,,,,,,,
,,,,,,,,,,,,,,,,,5e2093a7e10aa2000c631268,31,2022-02-12_13h16.43.049,lexical_decision_task_DD,2021.2.3,Win32,59.94485074,,,,,,,,,,,0.5195,1,,,,,,,,,,,,,,z,1,0.5195,,,,,,,,0.00462963,-0.387037037,0,0,0,,0,97,97,90,1,NEAST,C,old,z,./images/NEAST.png,,,,,,,,,,,,,,,,,,,,,,,,,,,,,,,,,,,,
,,,,,,,,,,,,,,,,,5e2093a7e10aa2000c631268,31,2022-02-12_13h16.43.049,lexical_decision_task_DD,2021.2.3,Win32,59.94485074,,,,,,,,,,,0.4809,1,,,,,,,,,,,,,,z,1,0.4809,,,,,,,,0.00462963,-0.387037037,0,0,0,,0,98,98,138,1,PLICE,C,old,z,./images/PLICE.png,,,,,,,,,,,,,,,,,,,,,,,,,,,,,,,,,,,,
,,,,,,,,,,,,,,,,,5e2093a7e10aa2000c631268,31,2022-02-12_13h16.43.049,lexical_decision_task_DD,2021.2.3,Win32,59.94485074,,,,,,,,,,,0.7004,1,,,,,,,,,,,,,,m,1,0.7004,,,,,,,,0.00462963,-0.387037037,0,0,0,,0,99,99,75,1,GRAIN,C,old,m,./images/GRAIN.png,,,,,,,,,,,,,,,,,,,,,,,,,,,,,,,,,,,,
,,,,,,,,,,,,,,,,,5e2093a7e10aa2000c631268,31,2022-02-12_13h16.43.049,lexical_decision_task_DD,2021.2.3,Win32,59.94485074,,,,,,,,,,,0.5189,1,,,,,,,,,,,,,,z,1,0.5189,,,,,,,,0.00462963,-0.387037037,0,0,0,,0,100,100,149,1,VEASE,LB,old,z,./images/VEASELB.png,,,,,,,,,,,,,,,,,,,,,,,,,,,,,,,,,,,,
,,,,,,,,,,,,,,,,,5e2093a7e10aa2000c631268,31,2022-02-12_13h16.43.049,lexical_decision_task_DD,2021.2.3,Win32,59.94485074,,,,,,,,,,,0.6162,1,,,,,,,,,,,,,,z,1,0.6162,,,,,,,,0.00462963,-0.387037037,0,0,0,,0,101,101,93,1,SMONE,C,old,z,./images/SMONE.png,,,,,,,,,,,,,,,,,,,,,,,,,,,,,,,,,,,,
,,,,,,,,,,,,,,,,,5e2093a7e10aa2000c631268,31,2022-02-12_13h16.43.049,lexical_decision_task_DD,2021.2.3,Win32,59.94485074,,,,,,,,,,,0.6373,1,,,,,,,,,,,,,,m,1,0.6373,,,,,,,,0.00462963,-0.387037037,0,0,0,,0,102,102,14,1,PICKLE,LB,old,m,./images/PICKLELB.png,,,,,,,,,,,,,,,,,,,,,,,,,,,,,,,,,,,,
,,,,,,,,,,,,,,,,,5e2093a7e10aa2000c631268,31,2022-02-12_13h16.43.049,lexical_decision_task_DD,2021.2.3,Win32,59.94485074,,,,,,,,,,,0.7299,1,,,,,,,,,,,,,,m,1,0.7299,,,,,,,,0.00462963,-0.387037037,0,0,0,,0,103,103,54,1,TRIPOD,C,old,m,./images/TRIPOD.png,,,,,,,,,,,,,,,,,,,,,,,,,,,,,,,,,,,,
,,,,,,,,,,,,,,,,,5e2093a7e10aa2000c631268,31,2022-02-12_13h16.43.049,lexical_decision_task_DD,2021.2.3,Win32,59.94485074,,,,,,,,,,,0.7072,1,,,,,,,,,,,,,,m,1,0.7072,,,,,,,,0.00462963,-0.387037037,0,0,0,,0,104,104,46,1,PEARL,HB,old,m,./images/PEARLHB.png,,,,,,,,,,,,,,,,,,,,,,,,,,,,,,,,,,,,
,,,,,,,,,,,,,,,,,5e2093a7e10aa2000c631268,31,2022-02-12_13h16.43.049,lexical_decision_task_DD,2021.2.3,Win32,59.94485074,,,,,,,,,,,0.6051,1,,,,,,,,,,,,,,m,1,0.6051,,,,,,,,0.00462963,-0.387037037,0,0,0,,0,105,105,71,1,PIMPLE,LB,old,m,./images/PIMPLELB.png,,,,,,,,,,,,,,,,,,,,,,,,,,,,,,,,,,,,
,,,,,,,,,,,,,,,,,5e2093a7e10aa2000c631268,31,2022-02-12_13h16.43.049,lexical_decision_task_DD,2021.2.3,Win32,59.94485074,,,,,,,,,,,0.5791,1,,,,,,,,,,,,,,z,1,0.5791,,,,,,,,0.00462963,-0.387037037,0,0,0,,0,106,106,92,1,PAIMS,LB,old,z,./images/PAIMSLB.png,,,,,,,,,,,,,,,,,,,,,,,,,,,,,,,,,,,,
,,,,,,,,,,,,,,,,,5e2093a7e10aa2000c631268,31,2022-02-12_13h16.43.049,lexical_decision_task_DD,2021.2.3,Win32,59.94485074,,,,,,,,,,,0.5622,1,,,,,,,,,,,,,,m,1,0.5622,,,,,,,,0.00462963,-0.387037037,0,0,0,,0,107,107,9,1,RHINO,C,old,m,./images/RHINO.png,,,,,,,,,,,,,,,,,,,,,,,,,,,,,,,,,,,,
,,,,,,,,,,,,,,,,,5e2093a7e10aa2000c631268,31,2022-02-12_13h16.43.049,lexical_decision_task_DD,2021.2.3,Win32,59.94485074,,,,,,,,,,,0.5941,1,,,,,,,,,,,,,,z,1,0.5941,,,,,,,,0.00462963,-0.387037037,0,0,0,,0,108,108,114,1,RIKES,C,old,z,./images/RIKES.png,,,,,,,,,,,,,,,,,,,,,,,,,,,,,,,,,,,,
,,,,,,,,,,,,,,,,,5e2093a7e10aa2000c631268,31,2022-02-12_13h16.43.049,lexical_decision_task_DD,2021.2.3,Win32,59.94485074,,,,,,,,,,,1.4649,1,,,,,,,,,,,,,,z,1,1.4649,,,,,,,,0.00462963,-0.387037037,0,0,0,,0,109,109,142,1,PLASK,HB,old,z,./images/PLASKHB.png,,,,,,,,,,,,,,,,,,,,,,,,,,,,,,,,,,,,
,,,,,,,,,,,,,,,,,5e2093a7e10aa2000c631268,31,2022-02-12_13h16.43.049,lexical_decision_task_DD,2021.2.3,Win32,59.94485074,,,,,,,,,,,0.5964,1,,,,,,,,,,,,,,z,1,0.5964,,,,,,,,0.00462963,-0.387037037,0,0,0,,0,110,110,108,1,GRUET,C,old,z,./images/GRUET.png,,,,,,,,,,,,,,,,,,,,,,,,,,,,,,,,,,,,
,,,,,,,,,,,,,,,,,5e2093a7e10aa2000c631268,31,2022-02-12_13h16.43.049,lexical_decision_task_DD,2021.2.3,Win32,59.94485074,,,,,,,,,,,0.4667,1,,,,,,,,,,,,,,z,1,0.4667,,,,,,,,0.00462963,-0.387037037,0,0,0,,0,111,111,88,1,GLUSH,HB,old,z,./images/GLUSHHB.png,,,,,,,,,,,,,,,,,,,,,,,,,,,,,,,,,,,,
,,,,,,,,,,,,,,,,,5e2093a7e10aa2000c631268,31,2022-02-12_13h16.43.049,lexical_decision_task_DD,2021.2.3,Win32,59.94485074,,,,,,,,,,,0.4167,1,,,,,,,,,,,,,,z,1,0.4167,,,,,,,,0.00462963,-0.387037037,0,0,0,,0,112,112,109,1,BURGE,HB,old,z,./images/BURGEHB.png,,,,,,,,,,,,,,,,,,,,,,,,,,,,,,,,,,,,
,,,,,,,,,,,,,,,,,5e2093a7e10aa2000c631268,31,2022-02-12_13h16.43.049,lexical_decision_task_DD,2021.2.3,Win32,59.94485074,,,,,,,,,,,0.5662,1,,,,,,,,,,,,,,m,1,0.5662,,,,,,,,0.00462963,-0.387037037,0,0,0,,0,113,113,53,1,CARPET,LB,old,m,./images/CARPETLB.png,,,,,,,,,,,,,,,,,,,,,,,,,,,,,,,,,,,,
,,,,,,,,,,,,,,,,,5e2093a7e10aa2000c631268,31,2022-02-12_13h16.43.049,lexical_decision_task_DD,2021.2.3,Win32,59.94485074,,,,,,,,,,,0.5503,1,,,,,,,,,,,,,,m,1,0.5503,,,,,,,,0.00462963,-0.387037037,0,0,0,,0,114,114,26,1,SMOKER,LB,old,m,./images/SMOKERLB.png,,,,,,,,,,,,,,,,,,,,,,,,,,,,,,,,,,,,
,,,,,,,,,,,,,,,,,5e2093a7e10aa2000c631268,31,2022-02-12_13h16.43.049,lexical_decision_task_DD,2021.2.3,Win32,59.94485074,,,,,,,,,,,0.6129,1,,,,,,,,,,,,,,m,1,0.6129,,,,,,,,0.00462963,-0.387037037,0,0,0,,0,115,115,64,1,JELLY,HB,old,m,./images/JELLYHB.png,,,,,,,,,,,,,,,,,,,,,,,,,,,,,,,,,,,,
,,,,,,,,,,,,,,,,,5e2093a7e10aa2000c631268,31,2022-02-12_13h16.43.049,lexical_decision_task_DD,2021.2.3,Win32,59.94485074,,,,,,,,,,,0.4668,1,,,,,,,,,,,,,,z,1,0.4668,,,,,,,,0.00462963,-0.387037037,0,0,0,,0,116,116,147,1,ZOLES,C,old,z,./images/ZOLES.png,,,,,,,,,,,,,,,,,,,,,,,,,,,,,,,,,,,,
,,,,,,,,,,,,,,,,,5e2093a7e10aa2000c631268,31,2022-02-12_13h16.43.049,lexical_decision_task_DD,2021.2.3,Win32,59.94485074,,,,,,,,,,,0.5828,1,,,,,,,,,,,,,,m,1,0.5828,,,,,,,,0.00462963,-0.387037037,0,0,0,,0,117,117,58,1,BABOON,HB,old,m,./images/BABOONHB.png,,,,,,,,,,,,,,,,,,,,,,,,,,,,,,,,,,,,
,,,,,,,,,,,,,,,,,5e2093a7e10aa2000c631268,31,2022-02-12_13h16.43.049,lexical_decision_task_DD,2021.2.3,Win32,59.94485074,,,,,,,,,,,0.4851,1,,,,,,,,,,,,,,m,1,0.4851,,,,,,,,0.00462963,-0.387037037,0,0,0,,0,118,118,77,1,COUCH,LB,old,m,./images/COUCHLB.png,,,,,,,,,,,,,,,,,,,,,,,,,,,,,,,,,,,,
,,,,,,,,,,,,,,,,,5e2093a7e10aa2000c631268,31,2022-02-12_13h16.43.049,lexical_decision_task_DD,2021.2.3,Win32,59.94485074,,,,,,,,,,,0.6791,1,,,,,,,,,,,,,,z,1,0.6791,,,,,,,,0.00462963,-0.387037037,0,0,0,,0,119,119,112,1,MYING,HB,old,z,./images/MYINGHB.png,,,,,,,,,,,,,,,,,,,,,,,,,,,,,,,,,,,,
,,,,,,,,,,,,,,,,,5e2093a7e10aa2000c631268,31,2022-02-12_13h16.43.049,lexical_decision_task_DD,2021.2.3,Win32,59.94485074,,,,,,,,,,,0.4429,1,,,,,,,,,,,,,,m,1,0.4429,,,,,,,,0.00462963,-0.387037037,0,0,0,,0,120,120,50,1,MALLET,LB,old,m,./images/MALLETLB.png,,,,,,,,,,,,,,,,,,,,,,,,,,,,,,,,,,,,
,,,,,,,,,,,,,,,,,5e2093a7e10aa2000c631268,31,2022-02-12_13h16.43.049,lexical_decision_task_DD,2021.2.3,Win32,59.94485074,,,,,,,,,,,0.6472,1,,,,,,,,,,,,,,z,1,0.6472,,,,,,,,0.00462963,-0.387037037,0,0,0,,0,121,121,164,1,SGREW,LB,old,z,./images/SGREWLB.png,,,,,,,,,,,,,,,,,,,,,,,,,,,,,,,,,,,,
,,,,,,,,,,,,,,,,,5e2093a7e10aa2000c631268,31,2022-02-12_13h16.43.049,lexical_decision_task_DD,2021.2.3,Win32,59.94485074,,,,,,,,,,,0.5798,1,,,,,,,,,,,,,,m,1,0.5798,,,,,,,,0.00462963,-0.387037037,0,0,0,,0,122,122,61,1,CANDLE,HB,old,m,./images/CANDLEHB.png,,,,,,,,,,,,,,,,,,,,,,,,,,,,,,,,,,,,
,,,,,,,,,,,,,,,,,5e2093a7e10aa2000c631268,31,2022-02-12_13h16.43.049,lexical_decision_task_DD,2021.2.3,Win32,59.94485074,,,,,,,,,,,0.619,1,,,,,,,,,,,,,,z,1,0.619,,,,,,,,0.00462963,-0.387037037,0,0,0,,0,123,123,99,1,BACKY,C,old,z,./images/BACKY.png,,,,,,,,,,,,,,,,,,,,,,,,,,,,,,,,,,,,
,,,,,,,,,,,,,,,,,5e2093a7e10aa2000c631268,31,2022-02-12_13h16.43.049,lexical_decision_task_DD,2021.2.3,Win32,59.94485074,,,,,,,,,,,0.9124,1,,,,,,,,,,,,,,m,1,0.9124,,,,,,,,0.00462963,-0.387037037,0,0,0,,0,124,124,76,1,INFANT,HB,old,m,./images/INFANTHB.png,,,,,,,,,,,,,,,,,,,,,,,,,,,,,,,,,,,,
,,,,,,,,,,,,,,,,,5e2093a7e10aa2000c631268,31,2022-02-12_13h16.43.049,lexical_decision_task_DD,2021.2.3,Win32,59.94485074,,,,,,,,,,,0.6102,1,,,,,,,,,,,,,,z,1,0.6102,,,,,,,,-0.27962963,0.143518519,0,0,0,space,0,125,125,131,1,NACES,LB,old,z,./images/NACESLB.png,57.5768,,,,,,,,,,,,,,,,,,,,,,,,,,,,,,,,,,,
,,,,,,,,,,,,,,,,,5e2093a7e10aa2000c631268,31,2022-02-12_13h16.43.049,lexical_decision_task_DD,2021.2.3,Win32,59.94485074,,,,,,,,,,,0.6013,1,,,,,,,,,,,,,,m,1,0.6013,,,,,,,,-0.27962963,0.143518519,0,0,0,,0,126,126,3,1,FINGER,C,old,m,./images/FINGER.png,,,,,,,,,,,,,,,,,,,,,,,,,,,,,,,,,,,,
,,,,,,,,,,,,,,,,,5e2093a7e10aa2000c631268,31,2022-02-12_13h16.43.049,lexical_decision_task_DD,2021.2.3,Win32,59.94485074,,,,,,,,,,,0.5273,1,,,,,,,,,,,,,,m,1,0.5273,,,,,,,,-0.27962963,0.143518519,0,0,0,,0,127,127,0,1,TOMATO,C,old,m,./images/TOMATO.png,,,,,,,,,,,,,,,,,,,,,,,,,,,,,,,,,,,,
,,,,,,,,,,,,,,,,,5e2093a7e10aa2000c631268,31,2022-02-12_13h16.43.049,lexical_decision_task_DD,2021.2.3,Win32,59.94485074,,,,,,,,,,,0.5525,0,,,,,,,,,,,,,,z,0,0.5525,,,,,,,,-0.27962963,0.143518519,0,0,0,,0,128,128,25,1,WRIST,HB,old,m,./images/WRISTHB.png,,,,,,,,,,,,,,,,,,,,,,,,,,,,,,,,,,,,
,,,,,,,,,,,,,,,,,5e2093a7e10aa2000c631268,31,2022-02-12_13h16.43.049,lexical_decision_task_DD,2021.2.3,Win32,59.94485074,,,,,,,,,,,1.0805,1,,,,,,,,,,,,,,m,1,1.0805,,,,,,,,-0.27962963,0.143518519,0,0,0,,0,129,129,67,1,SAILOR,HB,old,m,./images/SAILORHB.png,,,,,,,,,,,,,,,,,,,,,,,,,,,,,,,,,,,,
,,,,,,,,,,,,,,,,,5e2093a7e10aa2000c631268,31,2022-02-12_13h16.43.049,lexical_decision_task_DD,2021.2.3,Win32,59.94485074,,,,,,,,,,,1.4998,1,,,,,,,,,,,,,,z,1,1.4998,,,,,,,,-0.27962963,0.143518519,0,0,0,,0,130,130,106,1,CLUMS,HB,old,z,./images/CLUMSHB.png,,,,,,,,,,,,,,,,,,,,,,,,,,,,,,,,,,,,
,,,,,,,,,,,,,,,,,5e2093a7e10aa2000c631268,31,2022-02-12_13h16.43.049,lexical_decision_task_DD,2021.2.3,Win32,59.94485074,,,,,,,,,,,0.6212,0,,,,,,,,,,,,,,m,0,0.6212,,,,,,,,-0.27962963,0.143518519,0,0,0,,0,131,131,103,1,FLORT,HB,old,z,./images/FLORTHB.png,,,,,,,,,,,,,,,,,,,,,,,,,,,,,,,,,,,,
,,,,,,,,,,,,,,,,,5e2093a7e10aa2000c631268,31,2022-02-12_13h16.43.049,lexical_decision_task_DD,2021.2.3,Win32,59.94485074,,,,,,,,,,,0.683,1,,,,,,,,,,,,,,z,1,0.683,,,,,,,,-0.27962963,0.143518519,0,0,0,,0,132,132,97,1,CHIDS,HB,old,z,./images/CHIDSHB.png,,,,,,,,,,,,,,,,,,,,,,,,,,,,,,,,,,,,
,,,,,,,,,,,,,,,,,5e2093a7e10aa2000c631268,31,2022-02-12_13h16.43.049,lexical_decision_task_DD,2021.2.3,Win32,59.94485074,,,,,,,,,,,0.781,1,,,,,,,,,,,,,,z,1,0.781,,,,,,,,-0.27962963,0.143518519,0,0,0,,0,133,133,85,1,CHULK,HB,old,z,./images/CHULKHB.png,,,,,,,,,,,,,,,,,,,,,,,,,,,,,,,,,,,,
,,,,,,,,,,,,,,,,,5e2093a7e10aa2000c631268,31,2022-02-12_13h16.43.049,lexical_decision_task_DD,2021.2.3,Win32,59.94485074,,,,,,,,,,,0.6361,1,,,,,,,,,,,,,,z,1,0.6361,,,,,,,,-0.27962963,0.143518519,0,0,0,,0,134,134,151,1,TINKY,HB,old,z,./images/TINKYHB.png,,,,,,,,,,,,,,,,,,,,,,,,,,,,,,,,,,,,
,,,,,,,,,,,,,,,,,5e2093a7e10aa2000c631268,31,2022-02-12_13h16.43.049,lexical_decision_task_DD,2021.2.3,Win32,59.94485074,,,,,,,,,,,0.5927,1,,,,,,,,,,,,,,z,1,0.5927,,,,,,,,-0.27962963,0.143518519,0,0,0,,0,135,135,162,1,LEICH,C,old,z,./images/LEICH.png,,,,,,,,,,,,,,,,,,,,,,,,,,,,,,,,,,,,
,,,,,,,,,,,,,,,,,5e2093a7e10aa2000c631268,31,2022-02-12_13h16.43.049,lexical_decision_task_DD,2021.2.3,Win32,59.94485074,,,,,,,,,,,0.4235,1,,,,,,,,,,,,,,z,1,0.4235,,,,,,,,-0.27962963,0.143518519,0,0,0,,0,136,136,87,1,TRING,C,old,z,./images/TRING.png,,,,,,,,,,,,,,,,,,,,,,,,,,,,,,,,,,,,
,,,,,,,,,,,,,,,,,5e2093a7e10aa2000c631268,31,2022-02-12_13h16.43.049,lexical_decision_task_DD,2021.2.3,Win32,59.94485074,,,,,,,,,,,0.5727,1,,,,,,,,,,,,,,m,1,0.5727,,,,,,,,-0.27962963,0.143518519,0,0,0,,0,137,137,44,1,LIZARD,LB,old,m,./images/LIZARDLB.png,,,,,,,,,,,,,,,,,,,,,,,,,,,,,,,,,,,,
,,,,,,,,,,,,,,,,,5e2093a7e10aa2000c631268,31,2022-02-12_13h16.43.049,lexical_decision_task_DD,2021.2.3,Win32,59.94485074,,,,,,,,,,,0.5161,1,,,,,,,,,,,,,,m,1,0.5161,,,,,,,,-0.27962963,0.143518519,0,0,0,,0,138,138,12,1,SHORE,C,old,m,./images/SHORE.png,,,,,,,,,,,,,,,,,,,,,,,,,,,,,,,,,,,,
,,,,,,,,,,,,,,,,,5e2093a7e10aa2000c631268,31,2022-02-12_13h16.43.049,lexical_decision_task_DD,2021.2.3,Win32,59.94485074,,,,,,,,,,,0.6453,1,,,,,,,,,,,,,,m,1,0.6453,,,,,,,,-0.27962963,0.143518519,0,0,0,,0,139,139,83,1,JUNGLE,LB,old,m,./images/JUNGLELB.png,,,,,,,,,,,,,,,,,,,,,,,,,,,,,,,,,,,,
,,,,,,,,,,,,,,,,,5e2093a7e10aa2000c631268,31,2022-02-12_13h16.43.049,lexical_decision_task_DD,2021.2.3,Win32,59.94485074,,,,,,,,,,,0.5619,1,,,,,,,,,,,,,,z,1,0.5619,,,,,,,,-0.27962963,0.143518519,0,0,0,,0,140,140,153,1,CLUPS,C,old,z,./images/CLUPS.png,,,,,,,,,,,,,,,,,,,,,,,,,,,,,,,,,,,,
,,,,,,,,,,,,,,,,,5e2093a7e10aa2000c631268,31,2022-02-12_13h16.43.049,lexical_decision_task_DD,2021.2.3,Win32,59.94485074,,,,,,,,,,,0.6098,1,,,,,,,,,,,,,,z,1,0.6098,,,,,,,,-0.27962963,0.143518519,0,0,0,,0,141,141,89,1,DRIEK,LB,old,z,./images/DRIEKLB.png,,,,,,,,,,,,,,,,,,,,,,,,,,,,,,,,,,,,
,,,,,,,,,,,,,,,,,5e2093a7e10aa2000c631268,31,2022-02-12_13h16.43.049,lexical_decision_task_DD,2021.2.3,Win32,59.94485074,,,,,,,,,,,0.488,1,,,,,,,,,,,,,,m,1,0.488,,,,,,,,-0.27962963,0.143518519,0,0,0,,0,142,142,45,1,KITTEN,C,old,m,./images/KITTEN.png,,,,,,,,,,,,,,,,,,,,,,,,,,,,,,,,,,,,
,,,,,,,,,,,,,,,,,5e2093a7e10aa2000c631268,31,2022-02-12_13h16.43.049,lexical_decision_task_DD,2021.2.3,Win32,59.94485074,,,,,,,,,,,0.4743,1,,,,,,,,,,,,,,z,1,0.4743,,,,,,,,-0.27962963,0.143518519,0,0,0,,0,143,143,117,1,STEEG,C,old,z,./images/STEEG.png,,,,,,,,,,,,,,,,,,,,,,,,,,,,,,,,,,,,
,,,,,,,,,,,,,,,,,5e2093a7e10aa2000c631268,31,2022-02-12_13h16.43.049,lexical_decision_task_DD,2021.2.3,Win32,59.94485074,,,,,,,,,,,0.5416,1,,,,,,,,,,,,,,z,1,0.5416,,,,,,,,-0.27962963,0.143518519,0,0,0,,0,144,144,115,1,MAWNS,HB,old,z,./images/MAWNSHB.png,,,,,,,,,,,,,,,,,,,,,,,,,,,,,,,,,,,,
,,,,,,,,,,,,,,,,,5e2093a7e10aa2000c631268,31,2022-02-12_13h16.43.049,lexical_decision_task_DD,2021.2.3,Win32,59.94485074,,,,,,,,,,,0.9502,1,,,,,,,,,,,,,,m,1,0.9502,,,,,,,,-0.27962963,0.143518519,0,0,0,,0,145,145,74,1,CEMENT,LB,old,m,./images/CEMENTLB.png,,,,,,,,,,,,,,,,,,,,,,,,,,,,,,,,,,,,
,,,,,,,,,,,,,,,,,5e2093a7e10aa2000c631268,31,2022-02-12_13h16.43.049,lexical_decision_task_DD,2021.2.3,Win32,59.94485074,,,,,,,,,,,0.5826,1,,,,,,,,,,,,,,m,1,0.5826,,,,,,,,-0.27962963,0.143518519,0,0,0,,0,146,146,49,1,DRUMS,HB,old,m,./images/DRUMSHB.png,,,,,,,,,,,,,,,,,,,,,,,,,,,,,,,,,,,,
,,,,,,,,,,,,,,,,,5e2093a7e10aa2000c631268,31,2022-02-12_13h16.43.049,lexical_decision_task_DD,2021.2.3,Win32,59.94485074,,,,,,,,,,,0.4604,1,,,,,,,,,,,,,,m,1,0.4604,,,,,,,,-0.27962963,0.143518519,0,0,0,,0,147,147,18,1,JAGUAR,C,old,m,./images/JAGUAR.png,,,,,,,,,,,,,,,,,,,,,,,,,,,,,,,,,,,,
,,,,,,,,,,,,,,,,,5e2093a7e10aa2000c631268,31,2022-02-12_13h16.43.049,lexical_decision_task_DD,2021.2.3,Win32,59.94485074,,,,,,,,,,,0.6408,1,,,,,,,,,,,,,,m,1,0.6408,,,,,,,,-0.27962963,0.143518519,0,0,0,,0,148,148,28,1,FALCON,HB,old,m,./images/FALCONHB.png,,,,,,,,,,,,,,,,,,,,,,,,,,,,,,,,,,,,
,,,,,,,,,,,,,,,,,5e2093a7e10aa2000c631268,31,2022-02-12_13h16.43.049,lexical_decision_task_DD,2021.2.3,Win32,59.94485074,,,,,,,,,,,0.5011,1,,,,,,,,,,,,,,m,1,0.5011,,,,,,,,-0.27962963,0.143518519,0,0,0,,0,149,149,36,1,THROAT,C,old,m,./images/THROAT.png,,,,,,,,,,,,,,,,,,,,,,,,,,,,,,,,,,,,
,,,,,,,,,,,,,,,,,5e2093a7e10aa2000c631268,31,2022-02-12_13h16.43.049,lexical_decision_task_DD,2021.2.3,Win32,59.94485074,,,,,,,,,,,0.5112,1,,,,,,,,,,,,,,m,1,0.5112,,,,,,,,-0.27962963,0.143518519,0,0,0,,0,150,150,38,1,LADDER,LB,old,m,./images/LADDERLB.png,,,,,,,,,,,,,,,,,,,,,,,,,,,,,,,,,,,,
,,,,,,,,,,,,,,,,,5e2093a7e10aa2000c631268,31,2022-02-12_13h16.43.049,lexical_decision_task_DD,2021.2.3,Win32,59.94485074,,,,,,,,,,,0.4091,1,,,,,,,,,,,,,,m,1,0.4091,,,,,,,,-0.27962963,0.143518519,0,0,0,,0,151,151,51,1,ONION,C,old,m,./images/ONION.png,,,,,,,,,,,,,,,,,,,,,,,,,,,,,,,,,,,,
,,,,,,,,,,,,,,,,,5e2093a7e10aa2000c631268,31,2022-02-12_13h16.43.049,lexical_decision_task_DD,2021.2.3,Win32,59.94485074,,,,,,,,,,,0.5352,1,,,,,,,,,,,,,,m,1,0.5352,,,,,,,,-0.27962963,0.143518519,0,0,0,,0,152,152,48,1,SPORT,C,old,m,./images/SPORT.png,,,,,,,,,,,,,,,,,,,,,,,,,,,,,,,,,,,,
,,,,,,,,,,,,,,,,,5e2093a7e10aa2000c631268,31,2022-02-12_13h16.43.049,lexical_decision_task_DD,2021.2.3,Win32,59.94485074,,,,,,,,,,,0.5756,1,,,,,,,,,,,,,,z,1,0.5756,,,,,,,,-0.27962963,0.143518519,0,0,0,,0,153,153,105,1,MOKER,C,old,z,./images/MOKER.png,,,,,,,,,,,,,,,,,,,,,,,,,,,,,,,,,,,,
,,,,,,,,,,,,,,,,,5e2093a7e10aa2000c631268,31,2022-02-12_13h16.43.049,lexical_decision_task_DD,2021.2.3,Win32,59.94485074,,,,,,,,,,,0.6632,0,,,,,,,,,,,,,,m,0,0.6632,,,,,,,,-0.27962963,0.143518519,0,0,0,,0,154,154,110,1,CRUNK,LB,old,z,./images/CRUNKLB.png,,,,,,,,,,,,,,,,,,,,,,,,,,,,,,,,,,,,
,,,,,,,,,,,,,,,,,5e2093a7e10aa2000c631268,31,2022-02-12_13h16.43.049,lexical_decision_task_DD,2021.2.3,Win32,59.94485074,,,,,,,,,,,0.5789,0,,,,,,,,,,,,,,m,0,0.5789,,,,,,,,-0.27962963,0.143518519,0,0,0,,0,155,155,166,1,SHORY,HB,old,z,./images/SHORYHB.png,,,,,,,,,,,,,,,,,,,,,,,,,,,,,,,,,,,,
,,,,,,,,,,,,,,,,,5e2093a7e10aa2000c631268,31,2022-02-12_13h16.43.049,lexical_decision_task_DD,2021.2.3,Win32,59.94485074,,,,,,,,,,,0.4582,1,,,,,,,,,,,,,,m,1,0.4582,,,,,,,,-0.27962963,0.143518519,0,0,0,,0,156,156,24,1,SCREW,C,old,m,./images/SCREW.png,,,,,,,,,,,,,,,,,,,,,,,,,,,,,,,,,,,,
,,,,,,,,,,,,,,,,,5e2093a7e10aa2000c631268,31,2022-02-12_13h16.43.049,lexical_decision_task_DD,2021.2.3,Win32,59.94485074,,,,,,,,,,,0.662,1,,,,,,,,,,,,,,m,1,0.662,,,,,,,,-0.27962963,0.143518519,0,0,0,,0,157,157,22,1,MELON,HB,old,m,./images/MELONHB.png,,,,,,,,,,,,,,,,,,,,,,,,,,,,,,,,,,,,
,,,,,,,,,,,,,,,,,5e2093a7e10aa2000c631268,31,2022-02-12_13h16.43.049,lexical_decision_task_DD,2021.2.3,Win32,59.94485074,,,,,,,,,,,0.5831,1,,,,,,,,,,,,,,z,1,0.5831,,,,,,,,-0.27962963,0.143518519,0,0,0,,0,158,158,125,1,MOOKY,LB,old,z,./images/MOOKYLB.png,,,,,,,,,,,,,,,,,,,,,,,,,,,,,,,,,,,,
,,,,,,,,,,,,,,,,,5e2093a7e10aa2000c631268,31,2022-02-12_13h16.43.049,lexical_decision_task_DD,2021.2.3,Win32,59.94485074,,,,,,,,,,,0.5834,1,,,,,,,,,,,,,,z,1,0.5834,,,,,,,,-0.27962963,0.143518519,0,0,0,,0,159,159,126,1,GUELS,C,old,z,./images/GUELS.png,,,,,,,,,,,,,,,,,,,,,,,,,,,,,,,,,,,,
,,,,,,,,,,,,,,,,,5e2093a7e10aa2000c631268,31,2022-02-12_13h16.43.049,lexical_decision_task_DD,2021.2.3,Win32,59.94485074,,,,,,,,,,,0.4808,1,,,,,,,,,,,,,,m,1,0.4808,,,,,,,,-0.27962963,0.143518519,0,0,0,,0,160,160,6,1,SQUARE,C,old,m,./images/SQUARE.png,,,,,,,,,,,,,,,,,,,,,,,,,,,,,,,,,,,,
,,,,,,,,,,,,,,,,,5e2093a7e10aa2000c631268,31,2022-02-12_13h16.43.049,lexical_decision_task_DD,2021.2.3,Win32,59.94485074,,,,,,,,,,,0.5239,1,,,,,,,,,,,,,,m,1,0.5239,,,,,,,,-0.27962963,0.143518519,0,0,0,,0,161,161,39,1,SHELF,C,old,m,./images/SHELF.png,,,,,,,,,,,,,,,,,,,,,,,,,,,,,,,,,,,,
,,,,,,,,,,,,,,,,,5e2093a7e10aa2000c631268,31,2022-02-12_13h16.43.049,lexical_decision_task_DD,2021.2.3,Win32,59.94485074,,,,,,,,,,,0.5253,1,,,,,,,,,,,,,,m,1,0.5253,,,,,,,,-0.27962963,0.143518519,0,0,0,,0,162,162,33,1,MAGGOT,C,old,m,./images/MAGGOT.png,,,,,,,,,,,,,,,,,,,,,,,,,,,,,,,,,,,,
,,,,,,,,,,,,,,,,,5e2093a7e10aa2000c631268,31,2022-02-12_13h16.43.049,lexical_decision_task_DD,2021.2.3,Win32,59.94485074,,,,,,,,,,,0.9426,1,,,,,,,,,,,,,,m,1,0.9426,,,,,,,,-0.27962963,0.143518519,0,0,0,,0,163,163,73,1,SNACK,HB,old,m,./images/SNACKHB.png,,,,,,,,,,,,,,,,,,,,,,,,,,,,,,,,,,,,
,,,,,,,,,,,,,,,,,5e2093a7e10aa2000c631268,31,2022-02-12_13h16.43.049,lexical_decision_task_DD,2021.2.3,Win32,59.94485074,,,,,,,,,,,0.495,1,,,,,,,,,,,,,,m,1,0.495,,,,,,,,-0.27962963,0.143518519,0,0,0,,0,164,164,81,1,POODLE,C,old,m,./images/POODLE.png,,,,,,,,,,,,,,,,,,,,,,,,,,,,,,,,,,,,
,,,,,,,,,,,,,,,,,5e2093a7e10aa2000c631268,31,2022-02-12_13h16.43.049,lexical_decision_task_DD,2021.2.3,Win32,59.94485074,,,,,,,,,,,0.5936,1,,,,,,,,,,,,,,z,1,0.5936,,,,,,,,-0.27962963,0.143518519,0,0,0,,0,165,165,146,1,MOOST,LB,old,z,./images/MOOSTLB.png,,,,,,,,,,,,,,,,,,,,,,,,,,,,,,,,,,,,
,,,,,,,,,,,,,,,,,5e2093a7e10aa2000c631268,31,2022-02-12_13h16.43.049,lexical_decision_task_DD,2021.2.3,Win32,59.94485074,,,,,,,,,,,0.6166,1,,,,,,,,,,,,,,z,1,0.6166,,,,,,,,-0.27962963,0.143518519,0,0,0,,0,166,166,158,1,EGECT,LB,old,z,./images/EGECTLB.png,,,,,,,,,,,,,,,,,,,,,,,,,,,,,,,,,,,,
,,,,,,,,,,,,,,,,,5e2093a7e10aa2000c631268,31,2022-02-12_13h16.43.049,lexical_decision_task_DD,2021.2.3,Win32,59.94485074,,,,,,,,,,,0.8454,1,,,,,,,,,,,,,,z,1,0.8454,,,,,,,,-0.27962963,0.143518519,0,0,0,,0,167,167,84,1,HAXES,C,old,z,./images/HAXES.png,,,,,,,,,,,,,,,,,,,,,,,,,,,,,,,,,,,,
,,,,,,,,,,,,,,,,,5e2093a7e10aa2000c631268,31,2022-02-12_13h16.43.049,lexical_decision_task_DD,2021.2.3,Win32,59.94485074,,,,,,,,,,,,,,,,,,,,,,,,,,,,,,,,,,,,,,,,,,,,,,,,How likely will it be that you will recognize the words presented very blurred on a scale of 0 (not likely) to 100 (most likely)?,,,,,,0.000925926,-0.406481481,1,0,0,jol_adv,3,7.0397,0,0,0,2,1,,,,,,,,,,,,,,,,,,,,,
,,,,,,,,,,,,,,,,,5e2093a7e10aa2000c631268,31,2022-02-12_13h16.43.049,lexical_decision_task_DD,2021.2.3,Win32,59.94485074,,,,,,,,,,,,,,,,,,,,,,,,,,,,,,,,,,,,,,,,,,,,,,,,How likely will it be that you will recognize the words presented slighly blurred on a scale of 0 (not likely) to 100 (most likely)?,,,,,,,,,,,,4,2.8782,0,1,1,1,1,,,,,,,,,,,,,,,,,,,,,
,,,,,,,,,,,,,,,,,5e2093a7e10aa2000c631268,31,2022-02-12_13h16.43.049,lexical_decision_task_DD,2021.2.3,Win32,59.94485074,,,,,,,,,,,,,,,,,,,,,,,,,,,,,,,,,,,,,,,,,,,,,,,,How likely will it be that you will recognize the words presented clearly on a scale of 0 (not likely) to 100 (most likely)?,,,,,,,,,,,,6,2.4717,0,2,2,0,1,,,,,,,,,,,,,,,,,,,,,
,,-0.050925926,-0.384259259,1,0,0,,,,,,1,test,"In the next phase you will be presented with the words from the the first phase. Your job is to decide whether you remember seeing the word or not. If you remember seeing the word press ""old"" or type ""m"". If you do not remember seeing the word press ""new"" or type ""z"". Please press the space bar or click on continue to begin. ",,,5e2093a7e10aa2000c631268,31,2022-02-12_13h16.43.049,lexical_decision_task_DD,2021.2.3,Win32,59.94485074,,,,,,,,,,,,,,,,,,,,,,,,,,,,,,,,,,,,,,,,,,,,,,,,,,,,,,,,,,,,,,,,,,,instr_done_button,0,0,0,0,1,,,,,,,,,,,,,,,
space,5.5143,-0.756481481,-0.137962963,0,0,0,,,,,,1,test,"In the next phase you will be presented with the words from the the first phase. Your job is to decide whether you remember seeing the word or not. If you remember seeing the word press ""old"" or type ""m"". If you do not remember seeing the word press ""new"" or type ""z"". Please press the space bar or click on continue to begin. ",,,5e2093a7e10aa2000c631268,31,2022-02-12_13h16.43.049,lexical_decision_task_DD,2021.2.3,Win32,59.94485074,,,,,,,,,,,,,,,,,,,,,,,,,,,,,,,,,,,,,,,,,,,,,,,,,,,,,,,,,,,,,,,,,,,,1,0,1,0,1,,,,,,,,,,,,,,,
space,1.9403,-0.756481481,-0.137962963,0,0,0,,,,,,1,test,"In the next phase you will be presented with the words from the the first phase. Your job is to decide whether you remember seeing the word or not. If you remember seeing the word press ""old"" or type ""m"". If you do not remember seeing the word press ""new"" or type ""z"". Please press the space bar or click on continue to begin. ",,,5e2093a7e10aa2000c631268,31,2022-02-12_13h16.43.049,lexical_decision_task_DD,2021.2.3,Win32,59.94485074,,,,,,,,,,,,,,,,,,,,,,,,,,,,,,,,,,,,,,,,,,,,,,,,,,,,,,,,,,,,,,,,,,,,2,0,2,0,1,,,,,,,,,,,,,,,
,,0.093518519,-0.388888889,1,0,0,,,,,,1,test,"In the next phase you will be presented with the words from the the first phase. Your job is to decide whether you remember seeing the word or not. If you remember seeing the word press ""old"" or type ""m"". If you do not remember seeing the word press ""new"" or type ""z"". Please press the space bar or click on continue to begin. ",,,5e2093a7e10aa2000c631268,31,2022-02-12_13h16.43.049,lexical_decision_task_DD,2021.2.3,Win32,59.94485074,,,,,,,,,,,,,,,,,,,,,,,,,,,,,,,,,,,,,,,,,,,,,,,,,,,,,,,,,,,,,,,,,,,instr_done_button,3,0,3,0,1,,,,,,,,,,,,,,,
,,-0.022222222,-0.396296296,1,0,0,,,,,,1,test,"In the next phase you will be presented with the words from the the first phase. Your job is to decide whether you remember seeing the word or not. If you remember seeing the word press ""old"" or type ""m"". If you do not remember seeing the word press ""new"" or type ""z"". Please press the space bar or click on continue to begin. ",,,5e2093a7e10aa2000c631268,31,2022-02-12_13h16.43.049,lexical_decision_task_DD,2021.2.3,Win32,59.94485074,,,,,,,,,,,,,,,,,,,,,,,,,,,,,,,,,,,,,,,,,,,,,,,,,,,,,,,,,,,,,,,,,,,instr_done_button,4,0,4,0,1,,,,,,,,,,,,,,,
,,,,,,,,,,,,,,,,,5e2093a7e10aa2000c631268,31,2022-02-12_13h16.43.049,lexical_decision_task_DD,2021.2.3,Win32,59.94485074,,,,,,,,,,,2.5275,1,,,,,,,,,,,,,,,,,,,,,,,,-0.022222222,-0.396296296,0,0,0,,,,,,,BOILER,C,z,m,./images/BOILER.png,,,,,,,,,,,,,,,,,,,,,,z,1,2.5275,,,,,,,,0,0,0,120,1
,,,,,,,,,,,,,,,,,5e2093a7e10aa2000c631268,31,2022-02-12_13h16.43.049,lexical_decision_task_DD,2021.2.3,Win32,59.94485074,,,,,,,,,,,0.6882,0,,,,,,,,,,,,,,,,,,,,,,,,-0.022222222,-0.396296296,0,0,0,,,,,,,TOWEL,HB,z,m,./images/TOWELHB.png,,,,,,,,,,,,,,,,,,,,,,m,0,0.6882,,,,,,,,0,1,1,85,1
,,,,,,,,,,,,,,,,,5e2093a7e10aa2000c631268,31,2022-02-12_13h16.43.049,lexical_decision_task_DD,2021.2.3,Win32,59.94485074,,,,,,,,,,,0.7227,1,,,,,,,,,,,,,,,,,,,,,,,,-0.022222222,-0.396296296,0,0,0,,,,,,,BANANA,HB,z,m,./images/BANANAHB.png,,,,,,,,,,,,,,,,,,,,,,z,1,0.7227,,,,,,,,0,2,2,154,1
,,,,,,,,,,,,,,,,,5e2093a7e10aa2000c631268,31,2022-02-12_13h16.43.049,lexical_decision_task_DD,2021.2.3,Win32,59.94485074,,,,,,,,,,,0.8007,1,,,,,,,,,,,,,,,,,,,,,,,,-0.022222222,-0.396296296,0,0,0,,,,,,,NOOSE,C,m,m,./images/NOOSE.png,,,,,,,,,,,,,,,,,,,,,,m,1,0.8007,,,,,,,,0,3,3,72,1
,,,,,,,,,,,,,,,,,5e2093a7e10aa2000c631268,31,2022-02-12_13h16.43.049,lexical_decision_task_DD,2021.2.3,Win32,59.94485074,,,,,,,,,,,0.5944,0,,,,,,,,,,,,,,,,,,,,,,,,-0.022222222,-0.396296296,0,0,0,,,,,,,DRILL,C,z,m,./images/DRILL.png,,,,,,,,,,,,,,,,,,,,,,m,0,0.5944,,,,,,,,0,4,4,165,1
,,,,,,,,,,,,,,,,,5e2093a7e10aa2000c631268,31,2022-02-12_13h16.43.049,lexical_decision_task_DD,2021.2.3,Win32,59.94485074,,,,,,,,,,,0.5212,1,,,,,,,,,,,,,,,,,,,,,,,,-0.022222222,-0.396296296,0,0,0,,,,,,,LIZARD,LB,m,m,./images/LIZARDLB.png,,,,,,,,,,,,,,,,,,,,,,m,1,0.5212,,,,,,,,0,5,5,44,1
,,,,,,,,,,,,,,,,,5e2093a7e10aa2000c631268,31,2022-02-12_13h16.43.049,lexical_decision_task_DD,2021.2.3,Win32,59.94485074,,,,,,,,,,,0.5304,1,,,,,,,,,,,,,,,,,,,,,,,,-0.022222222,-0.396296296,0,0,0,,,,,,,JELLY,HB,m,m,./images/JELLYHB.png,,,,,,,,,,,,,,,,,,,,,,m,1,0.5304,,,,,,,,0,6,6,64,1
,,,,,,,,,,,,,,,,,5e2093a7e10aa2000c631268,31,2022-02-12_13h16.43.049,lexical_decision_task_DD,2021.2.3,Win32,59.94485074,,,,,,,,,,,0.4676,1,,,,,,,,,,,,,,,,,,,,,,,,-0.022222222,-0.396296296,0,0,0,,,,,,,CEMENT,LB,m,m,./images/CEMENTLB.png,,,,,,,,,,,,,,,,,,,,,,m,1,0.4676,,,,,,,,0,7,7,74,1
,,,,,,,,,,,,,,,,,5e2093a7e10aa2000c631268,31,2022-02-12_13h16.43.049,lexical_decision_task_DD,2021.2.3,Win32,59.94485074,,,,,,,,,,,0.4467,1,,,,,,,,,,,,,,,,,,,,,,,,-0.022222222,-0.396296296,0,0,0,,,,,,,WALRUS,LB,m,m,./images/WALRUSLB.png,,,,,,,,,,,,,,,,,,,,,,m,1,0.4467,,,,,,,,0,8,8,23,1
,,,,,,,,,,,,,,,,,5e2093a7e10aa2000c631268,31,2022-02-12_13h16.43.049,lexical_decision_task_DD,2021.2.3,Win32,59.94485074,,,,,,,,,,,0.763,1,,,,,,,,,,,,,,,,,,,,,,,,-0.022222222,-0.396296296,0,0,0,,,,,,,SPORT,C,m,m,./images/SPORT.png,,,,,,,,,,,,,,,,,,,,,,m,1,0.763,,,,,,,,0,9,9,48,1
,,,,,,,,,,,,,,,,,5e2093a7e10aa2000c631268,31,2022-02-12_13h16.43.049,lexical_decision_task_DD,2021.2.3,Win32,59.94485074,,,,,,,,,,,0.5714,1,,,,,,,,,,,,,,,,,,,,,,,,-0.022222222,-0.396296296,0,0,0,,,,,,,LITTER,C,m,m,./images/LITTER.png,,,,,,,,,,,,,,,,,,,,,,m,1,0.5714,,,,,,,,0,10,10,78,1
,,,,,,,,,,,,,,,,,5e2093a7e10aa2000c631268,31,2022-02-12_13h16.43.049,lexical_decision_task_DD,2021.2.3,Win32,59.94485074,,,,,,,,,,,0.7387,1,,,,,,,,,,,,,,,,,,,,,,,,-0.022222222,-0.396296296,0,0,0,,,,,,,STRING,LB,m,m,./images/STRINGLB.png,,,,,,,,,,,,,,,,,,,,,,m,1,0.7387,,,,,,,,0,11,11,41,1
,,,,,,,,,,,,,,,,,5e2093a7e10aa2000c631268,31,2022-02-12_13h16.43.049,lexical_decision_task_DD,2021.2.3,Win32,59.94485074,,,,,,,,,,,0.4753,1,,,,,,,,,,,,,,,,,,,,,,,,-0.022222222,-0.396296296,0,0,0,,,,,,,JAGUAR,C,m,m,./images/JAGUAR.png,,,,,,,,,,,,,,,,,,,,,,m,1,0.4753,,,,,,,,0,12,12,18,1
,,,,,,,,,,,,,,,,,5e2093a7e10aa2000c631268,31,2022-02-12_13h16.43.049,lexical_decision_task_DD,2021.2.3,Win32,59.94485074,,,,,,,,,,,0.5266,0,,,,,,,,,,,,,,,,,,,,,,,,-0.022222222,-0.396296296,0,0,0,,,,,,,WALNUT,C,z,m,./images/WALNUT.png,,,,,,,,,,,,,,,,,,,,,,m,0,0.5266,,,,,,,,0,13,13,84,1
,,,,,,,,,,,,,,,,,5e2093a7e10aa2000c631268,31,2022-02-12_13h16.43.049,lexical_decision_task_DD,2021.2.3,Win32,59.94485074,,,,,,,,,,,0.56,1,,,,,,,,,,,,,,,,,,,,,,,,-0.022222222,-0.396296296,0,0,0,,,,,,,MAGGOT,C,m,m,./images/MAGGOT.png,,,,,,,,,,,,,,,,,,,,,,m,1,0.56,,,,,,,,0,14,14,33,1
,,,,,,,,,,,,,,,,,5e2093a7e10aa2000c631268,31,2022-02-12_13h16.43.049,lexical_decision_task_DD,2021.2.3,Win32,59.94485074,,,,,,,,,,,0.7281,1,,,,,,,,,,,,,,,,,,,,,,,,-0.022222222,-0.396296296,0,0,0,,,,,,,CANOE,HB,z,m,./images/CANOEHB.png,,,,,,,,,,,,,,,,,,,,,,z,1,0.7281,,,,,,,,0,15,15,142,1
,,,,,,,,,,,,,,,,,5e2093a7e10aa2000c631268,31,2022-02-12_13h16.43.049,lexical_decision_task_DD,2021.2.3,Win32,59.94485074,,,,,,,,,,,0.9769,1,,,,,,,,,,,,,,,,,,,,,,,,-0.022222222,-0.396296296,0,0,0,,,,,,,FLASK,C,z,m,./images/FLASK.png,,,,,,,,,,,,,,,,,,,,,,z,1,0.9769,,,,,,,,0,16,16,156,1
,,,,,,,,,,,,,,,,,5e2093a7e10aa2000c631268,31,2022-02-12_13h16.43.049,lexical_decision_task_DD,2021.2.3,Win32,59.94485074,,,,,,,,,,,0.8643,1,,,,,,,,,,,,,,,,,,,,,,,,-0.022222222,-0.396296296,0,0,0,,,,,,,BUNNY,HB,z,m,./images/BUNNYHB.png,,,,,,,,,,,,,,,,,,,,,,z,1,0.8643,,,,,,,,0,17,17,97,1
,,,,,,,,,,,,,,,,,5e2093a7e10aa2000c631268,31,2022-02-12_13h16.43.049,lexical_decision_task_DD,2021.2.3,Win32,59.94485074,,,,,,,,,,,0.5959,1,,,,,,,,,,,,,,,,,,,,,,,,-0.022222222,-0.396296296,0,0,0,,,,,,,SCREW,C,m,m,./images/SCREW.png,,,,,,,,,,,,,,,,,,,,,,m,1,0.5959,,,,,,,,0,18,18,24,1
,,,,,,,,,,,,,,,,,5e2093a7e10aa2000c631268,31,2022-02-12_13h16.43.049,lexical_decision_task_DD,2021.2.3,Win32,59.94485074,,,,,,,,,,,0.6187,1,,,,,,,,,,,,,,,,,,,,,,,,-0.022222222,-0.396296296,0,0,0,,,,,,,MOSQUE,HB,m,m,./images/MOSQUEHB.png,,,,,,,,,,,,,,,,,,,,,,m,1,0.6187,,,,,,,,0,19,19,43,1
,,,,,,,,,,,,,,,,,5e2093a7e10aa2000c631268,31,2022-02-12_13h16.43.049,lexical_decision_task_DD,2021.2.3,Win32,59.94485074,,,,,,,,,,,1.0719,1,,,,,,,,,,,,,,,,,,,,,,,,-0.022222222,-0.396296296,0,0,0,,,,,,,STEAK,HB,z,m,./images/STEAKHB.png,,,,,,,,,,,,,,,,,,,,,,z,1,1.0719,,,,,,,,0,20,20,115,1
,,,,,,,,,,,,,,,,,5e2093a7e10aa2000c631268,31,2022-02-12_13h16.43.049,lexical_decision_task_DD,2021.2.3,Win32,59.94485074,,,,,,,,,,,0.7069,0,,,,,,,,,,,,,,,,,,,,,,,,-0.022222222,-0.396296296,0,0,0,,,,,,,DRUMS,HB,m,m,./images/DRUMSHB.png,,,,,,,,,,,,,,,,,,,,,,z,0,0.7069,,,,,,,,0,21,21,49,1
,,,,,,,,,,,,,,,,,5e2093a7e10aa2000c631268,31,2022-02-12_13h16.43.049,lexical_decision_task_DD,2021.2.3,Win32,59.94485074,,,,,,,,,,,0.7405,0,,,,,,,,,,,,,,,,,,,,,,,,-0.022222222,-0.396296296,0,0,0,,,,,,,ALLEY,HB,z,m,./images/ALLEYHB.png,,,,,,,,,,,,,,,,,,,,,,m,0,0.7405,,,,,,,,0,22,22,139,1
,,,,,,,,,,,,,,,,,5e2093a7e10aa2000c631268,31,2022-02-12_13h16.43.049,lexical_decision_task_DD,2021.2.3,Win32,59.94485074,,,,,,,,,,,0.6292,0,,,,,,,,,,,,,,,,,,,,,,,,-0.022222222,-0.396296296,0,0,0,,,,,,,CASINO,HB,z,m,./images/CASINOHB.png,,,,,,,,,,,,,,,,,,,,,,m,0,0.6292,,,,,,,,0,23,23,112,1
,,,,,,,,,,,,,,,,,5e2093a7e10aa2000c631268,31,2022-02-12_13h16.43.049,lexical_decision_task_DD,2021.2.3,Win32,59.94485074,,,,,,,,,,,0.7545,0,,,,,,,,,,,,,,,,,,,,,,,,-0.022222222,-0.396296296,0,0,0,,,,,,,COOKER,C,m,m,./images/COOKER.png,,,,,,,,,,,,,,,,,,,,,,z,0,0.7545,,,,,,,,0,24,24,69,1
,,,,,,,,,,,,,,,,,5e2093a7e10aa2000c631268,31,2022-02-12_13h16.43.049,lexical_decision_task_DD,2021.2.3,Win32,59.94485074,,,,,,,,,,,0.7785,1,,,,,,,,,,,,,,,,,,,,,,,,-0.022222222,-0.396296296,0,0,0,,,,,,,CLOUD,LB,z,m,./images/CLOUDLB.png,,,,,,,,,,,,,,,,,,,,,,z,1,0.7785,,,,,,,,0,25,25,110,1
,,,,,,,,,,,,,,,,,5e2093a7e10aa2000c631268,31,2022-02-12_13h16.43.049,lexical_decision_task_DD,2021.2.3,Win32,59.94485074,,,,,,,,,,,0.5459,1,,,,,,,,,,,,,,,,,,,,,,,,-0.022222222,-0.396296296,0,0,0,,,,,,,STAIN,C,z,m,./images/STAIN.png,,,,,,,,,,,,,,,,,,,,,,z,1,0.5459,,,,,,,,0,26,26,90,1
,,,,,,,,,,,,,,,,,5e2093a7e10aa2000c631268,31,2022-02-12_13h16.43.049,lexical_decision_task_DD,2021.2.3,Win32,59.94485074,,,,,,,,,,,2.2743,1,,,,,,,,,,,,,,,,,,,,,,,,-0.022222222,-0.396296296,0,0,0,,,,,,,HAMMER,C,z,m,./images/HAMMER.png,,,,,,,,,,,,,,,,,,,,,,z,1,2.2743,,,,,,,,0,27,27,159,1
,,,,,,,,,,,,,,,,,5e2093a7e10aa2000c631268,31,2022-02-12_13h16.43.049,lexical_decision_task_DD,2021.2.3,Win32,59.94485074,,,,,,,,,,,1.4368,0,,,,,,,,,,,,,,,,,,,,,,,,-0.022222222,-0.396296296,0,0,0,,,,,,,DIVER,C,z,m,./images/DIVER.png,,,,,,,,,,,,,,,,,,,,,,m,0,1.4368,,,,,,,,0,28,28,93,1
,,,,,,,,,,,,,,,,,5e2093a7e10aa2000c631268,31,2022-02-12_13h16.43.049,lexical_decision_task_DD,2021.2.3,Win32,59.94485074,,,,,,,,,,,0.6672,1,,,,,,,,,,,,,,,,,,,,,,,,-0.022222222,-0.396296296,0,0,0,,,,,,,BARREL,LB,m,m,./images/BARRELLB.png,,,,,,,,,,,,,,,,,,,,,,m,1,0.6672,,,,,,,,0,29,29,32,1
,,,,,,,,,,,,,,,,,5e2093a7e10aa2000c631268,31,2022-02-12_13h16.43.049,lexical_decision_task_DD,2021.2.3,Win32,59.94485074,,,,,,,,,,,0.6772,1,,,,,,,,,,,,,,,,,,,,,,,,-0.022222222,-0.396296296,0,0,0,,,,,,,GRAIN,C,m,m,./images/GRAIN.png,,,,,,,,,,,,,,,,,,,,,,m,1,0.6772,,,,,,,,0,30,30,75,1
,,,,,,,,,,,,,,,,,5e2093a7e10aa2000c631268,31,2022-02-12_13h16.43.049,lexical_decision_task_DD,2021.2.3,Win32,59.94485074,,,,,,,,,,,0.8083,1,,,,,,,,,,,,,,,,,,,,,,,,-0.022222222,-0.396296296,0,0,0,,,,,,,CHAIN,C,z,m,./images/CHAIN.png,,,,,,,,,,,,,,,,,,,,,,z,1,0.8083,,,,,,,,0,31,31,126,1
,,,,,,,,,,,,,,,,,5e2093a7e10aa2000c631268,31,2022-02-12_13h16.43.049,lexical_decision_task_DD,2021.2.3,Win32,59.94485074,,,,,,,,,,,0.6701,0,,,,,,,,,,,,,,,,,,,,,,,,-0.022222222,-0.396296296,0,0,0,,,,,,,VALLEY,LB,z,m,./images/VALLEYLB.png,,,,,,,,,,,,,,,,,,,,,,m,0,0.6701,,,,,,,,0,32,32,152,1
,,,,,,,,,,,,,,,,,5e2093a7e10aa2000c631268,31,2022-02-12_13h16.43.049,lexical_decision_task_DD,2021.2.3,Win32,59.94485074,,,,,,,,,,,0.6974,1,,,,,,,,,,,,,,,,,,,,,,,,-0.022222222,-0.396296296,0,0,0,,,,,,,TOMATO,C,m,m,./images/TOMATO.png,,,,,,,,,,,,,,,,,,,,,,m,1,0.6974,,,,,,,,0,33,33,0,1
,,,,,,,,,,,,,,,,,5e2093a7e10aa2000c631268,31,2022-02-12_13h16.43.049,lexical_decision_task_DD,2021.2.3,Win32,59.94485074,,,,,,,,,,,0.6597,0,,,,,,,,,,,,,,,,,,,,,,,,-0.022222222,-0.396296296,0,0,0,,,,,,,BRUSH,LB,z,m,./images/BRUSHLB.png,,,,,,,,,,,,,,,,,,,,,,m,0,0.6597,,,,,,,,0,34,34,143,1
,,,,,,,,,,,,,,,,,5e2093a7e10aa2000c631268,31,2022-02-12_13h16.43.049,lexical_decision_task_DD,2021.2.3,Win32,59.94485074,,,,,,,,,,,0.5678,0,,,,,,,,,,,,,,,,,,,,,,,,-0.022222222,-0.396296296,0,0,0,,,,,,,GLOVE,HB,z,m,./images/GLOVEHB.png,,,,,,,,,,,,,,,,,,,,,,m,0,0.5678,,,,,,,,0,35,35,157,1
,,,,,,,,,,,,,,,,,5e2093a7e10aa2000c631268,31,2022-02-12_13h16.43.049,lexical_decision_task_DD,2021.2.3,Win32,59.94485074,,,,,,,,,,,0.5337,0,,,,,,,,,,,,,,,,,,,,,,,,-0.022222222,-0.396296296,0,0,0,,,,,,,MONKEY,C,z,m,./images/MONKEY.png,,,,,,,,,,,,,,,,,,,,,,m,0,0.5337,,,,,,,,0,36,36,129,1
,,,,,,,,,,,,,,,,,5e2093a7e10aa2000c631268,31,2022-02-12_13h16.43.049,lexical_decision_task_DD,2021.2.3,Win32,59.94485074,,,,,,,,,,,0.5205,1,,,,,,,,,,,,,,,,,,,,,,,,-0.022222222,-0.396296296,0,0,0,,,,,,,PICKLE,LB,m,m,./images/PICKLELB.png,,,,,,,,,,,,,,,,,,,,,,m,1,0.5205,,,,,,,,0,37,37,14,1
,,,,,,,,,,,,,,,,,5e2093a7e10aa2000c631268,31,2022-02-12_13h16.43.049,lexical_decision_task_DD,2021.2.3,Win32,59.94485074,,,,,,,,,,,0.7696,0,,,,,,,,,,,,,,,,,,,,,,,,-0.022222222,-0.396296296,0,0,0,,,,,,,PARADE,LB,z,m,./images/PARADELB.png,,,,,,,,,,,,,,,,,,,,,,m,0,0.7696,,,,,,,,0,38,38,101,1
,,,,,,,,,,,,,,,,,5e2093a7e10aa2000c631268,31,2022-02-12_13h16.43.049,lexical_decision_task_DD,2021.2.3,Win32,59.94485074,,,,,,,,,,,0.9369,1,,,,,,,,,,,,,,,,,,,,,,,,-0.022222222,-0.396296296,0,0,0,,,,,,,BEARD,LB,m,m,./images/BEARDLB.png,,,,,,,,,,,,,,,,,,,,,,m,1,0.9369,,,,,,,,0,39,39,2,1
,,,,,,,,,,,,,,,,,5e2093a7e10aa2000c631268,31,2022-02-12_13h16.43.049,lexical_decision_task_DD,2021.2.3,Win32,59.94485074,,,,,,,,,,,1.3212,1,,,,,,,,,,,,,,,,,,,,,,,,-0.022222222,-0.396296296,0,0,0,,,,,,,MIDGET,HB,z,m,./images/MIDGETHB.png,,,,,,,,,,,,,,,,,,,,,,z,1,1.3212,,,,,,,,0,40,40,160,1
,,,,,,,,,,,,,,,,,5e2093a7e10aa2000c631268,31,2022-02-12_13h16.43.049,lexical_decision_task_DD,2021.2.3,Win32,59.94485074,,,,,,,,,,,2.9304,0,,,,,,,,,,,,,,,,,,,,,,,,0.051851852,0.022222222,0,0,0,space,,,,,,ARROW,C,z,m,./images/ARROW.png,11.7474,,,,,,,,,,,,,,,,,,,,,m,0,2.9304,,,,,,,,0,41,41,153,1
,,,,,,,,,,,,,,,,,5e2093a7e10aa2000c631268,31,2022-02-12_13h16.43.049,lexical_decision_task_DD,2021.2.3,Win32,59.94485074,,,,,,,,,,,1.7271,1,,,,,,,,,,,,,,,,,,,,,,,,0.051851852,0.022222222,0,0,0,,,,,,,SLOPE,C,z,m,./images/SLOPE.png,,,,,,,,,,,,,,,,,,,,,,z,1,1.7271,,,,,,,,0,42,42,114,1
,,,,,,,,,,,,,,,,,5e2093a7e10aa2000c631268,31,2022-02-12_13h16.43.049,lexical_decision_task_DD,2021.2.3,Win32,59.94485074,,,,,,,,,,,0.576,1,,,,,,,,,,,,,,,,,,,,,,,,0.051851852,0.022222222,0,0,0,,,,,,,PEACH,LB,m,m,./images/PEACHLB.png,,,,,,,,,,,,,,,,,,,,,,m,1,0.576,,,,,,,,0,43,43,35,1
,,,,,,,,,,,,,,,,,5e2093a7e10aa2000c631268,31,2022-02-12_13h16.43.049,lexical_decision_task_DD,2021.2.3,Win32,59.94485074,,,,,,,,,,,1.631,1,,,,,,,,,,,,,,,,,,,,,,,,0.051851852,0.022222222,0,0,0,,,,,,,SWEAT,C,m,m,./images/SWEAT.png,,,,,,,,,,,,,,,,,,,,,,m,1,1.631,,,,,,,,0,44,44,66,1
,,,,,,,,,,,,,,,,,5e2093a7e10aa2000c631268,31,2022-02-12_13h16.43.049,lexical_decision_task_DD,2021.2.3,Win32,59.94485074,,,,,,,,,,,0.5882,1,,,,,,,,,,,,,,,,,,,,,,,,0.051851852,0.022222222,0,0,0,,,,,,,PASTA,LB,m,m,./images/PASTALB.png,,,,,,,,,,,,,,,,,,,,,,m,1,0.5882,,,,,,,,0,45,45,5,1
,,,,,,,,,,,,,,,,,5e2093a7e10aa2000c631268,31,2022-02-12_13h16.43.049,lexical_decision_task_DD,2021.2.3,Win32,59.94485074,,,,,,,,,,,0.8025,1,,,,,,,,,,,,,,,,,,,,,,,,0.051851852,0.022222222,0,0,0,,,,,,,MUMMY,HB,z,m,./images/MUMMYHB.png,,,,,,,,,,,,,,,,,,,,,,z,1,0.8025,,,,,,,,0,46,46,130,1
,,,,,,,,,,,,,,,,,5e2093a7e10aa2000c631268,31,2022-02-12_13h16.43.049,lexical_decision_task_DD,2021.2.3,Win32,59.94485074,,,,,,,,,,,0.6806,0,,,,,,,,,,,,,,,,,,,,,,,,0.051851852,0.022222222,0,0,0,,,,,,,MOTOR,HB,m,m,./images/MOTORHB.png,,,,,,,,,,,,,,,,,,,,,,z,0,0.6806,,,,,,,,0,47,47,13,1
,,,,,,,,,,,,,,,,,5e2093a7e10aa2000c631268,31,2022-02-12_13h16.43.049,lexical_decision_task_DD,2021.2.3,Win32,59.94485074,,,,,,,,,,,0.7077,1,,,,,,,,,,,,,,,,,,,,,,,,0.051851852,0.022222222,0,0,0,,,,,,,PLANET,LB,z,m,./images/PLANETLB.png,,,,,,,,,,,,,,,,,,,,,,z,1,0.7077,,,,,,,,0,48,48,164,1
,,,,,,,,,,,,,,,,,5e2093a7e10aa2000c631268,31,2022-02-12_13h16.43.049,lexical_decision_task_DD,2021.2.3,Win32,59.94485074,,,,,,,,,,,0.6455,1,,,,,,,,,,,,,,,,,,,,,,,,0.051851852,0.022222222,0,0,0,,,,,,,POODLE,C,m,m,./images/POODLE.png,,,,,,,,,,,,,,,,,,,,,,m,1,0.6455,,,,,,,,0,49,49,81,1
,,,,,,,,,,,,,,,,,5e2093a7e10aa2000c631268,31,2022-02-12_13h16.43.049,lexical_decision_task_DD,2021.2.3,Win32,59.94485074,,,,,,,,,,,0.8581,1,,,,,,,,,,,,,,,,,,,,,,,,0.051851852,0.022222222,0,0,0,,,,,,,SHELF,C,m,m,./images/SHELF.png,,,,,,,,,,,,,,,,,,,,,,m,1,0.8581,,,,,,,,0,50,50,39,1
,,,,,,,,,,,,,,,,,5e2093a7e10aa2000c631268,31,2022-02-12_13h16.43.049,lexical_decision_task_DD,2021.2.3,Win32,59.94485074,,,,,,,,,,,0.9502,1,,,,,,,,,,,,,,,,,,,,,,,,0.051851852,0.022222222,0,0,0,,,,,,,PENCE,HB,m,m,./images/PENCEHB.png,,,,,,,,,,,,,,,,,,,,,,m,1,0.9502,,,,,,,,0,51,51,16,1
,,,,,,,,,,,,,,,,,5e2093a7e10aa2000c631268,31,2022-02-12_13h16.43.049,lexical_decision_task_DD,2021.2.3,Win32,59.94485074,,,,,,,,,,,1.7257,0,,,,,,,,,,,,,,,,,,,,,,,,0.051851852,0.022222222,0,0,0,,,,,,,PURSE,LB,m,m,./images/PURSELB.png,,,,,,,,,,,,,,,,,,,,,,z,0,1.7257,,,,,,,,0,52,52,62,1
,,,,,,,,,,,,,,,,,5e2093a7e10aa2000c631268,31,2022-02-12_13h16.43.049,lexical_decision_task_DD,2021.2.3,Win32,59.94485074,,,,,,,,,,,1.0865,0,,,,,,,,,,,,,,,,,,,,,,,,0.051851852,0.022222222,0,0,0,,,,,,,TULIP,LB,m,m,./images/TULIPLB.png,,,,,,,,,,,,,,,,,,,,,,z,0,1.0865,,,,,,,,0,53,53,8,1
,,,,,,,,,,,,,,,,,5e2093a7e10aa2000c631268,31,2022-02-12_13h16.43.049,lexical_decision_task_DD,2021.2.3,Win32,59.94485074,,,,,,,,,,,0.9529,1,,,,,,,,,,,,,,,,,,,,,,,,0.051851852,0.022222222,0,0,0,,,,,,,WHEEL,LB,z,m,./images/WHEELLB.png,,,,,,,,,,,,,,,,,,,,,,z,1,0.9529,,,,,,,,0,54,54,161,1
,,,,,,,,,,,,,,,,,5e2093a7e10aa2000c631268,31,2022-02-12_13h16.43.049,lexical_decision_task_DD,2021.2.3,Win32,59.94485074,,,,,,,,,,,0.6008,1,,,,,,,,,,,,,,,,,,,,,,,,0.051851852,0.022222222,0,0,0,,,,,,,HEATER,LB,z,m,./images/HEATERLB.png,,,,,,,,,,,,,,,,,,,,,,z,1,0.6008,,,,,,,,0,55,55,140,1
,,,,,,,,,,,,,,,,,5e2093a7e10aa2000c631268,31,2022-02-12_13h16.43.049,lexical_decision_task_DD,2021.2.3,Win32,59.94485074,,,,,,,,,,,0.735,0,,,,,,,,,,,,,,,,,,,,,,,,0.051851852,0.022222222,0,0,0,,,,,,,WAGON,HB,z,m,./images/WAGONHB.png,,,,,,,,,,,,,,,,,,,,,,m,0,0.735,,,,,,,,0,56,56,91,1
,,,,,,,,,,,,,,,,,5e2093a7e10aa2000c631268,31,2022-02-12_13h16.43.049,lexical_decision_task_DD,2021.2.3,Win32,59.94485074,,,,,,,,,,,0.5996,0,,,,,,,,,,,,,,,,,,,,,,,,0.051851852,0.022222222,0,0,0,,,,,,,BOXER,HB,z,m,./images/BOXERHB.png,,,,,,,,,,,,,,,,,,,,,,m,0,0.5996,,,,,,,,0,57,57,88,1
,,,,,,,,,,,,,,,,,5e2093a7e10aa2000c631268,31,2022-02-12_13h16.43.049,lexical_decision_task_DD,2021.2.3,Win32,59.94485074,,,,,,,,,,,0.6052,1,,,,,,,,,,,,,,,,,,,,,,,,0.051851852,0.022222222,0,0,0,,,,,,,FINGER,C,m,m,./images/FINGER.png,,,,,,,,,,,,,,,,,,,,,,m,1,0.6052,,,,,,,,0,58,58,3,1
,,,,,,,,,,,,,,,,,5e2093a7e10aa2000c631268,31,2022-02-12_13h16.43.049,lexical_decision_task_DD,2021.2.3,Win32,59.94485074,,,,,,,,,,,0.6592,1,,,,,,,,,,,,,,,,,,,,,,,,0.051851852,0.022222222,0,0,0,,,,,,,SNACK,HB,m,m,./images/SNACKHB.png,,,,,,,,,,,,,,,,,,,,,,m,1,0.6592,,,,,,,,0,59,59,73,1
,,,,,,,,,,,,,,,,,5e2093a7e10aa2000c631268,31,2022-02-12_13h16.43.049,lexical_decision_task_DD,2021.2.3,Win32,59.94485074,,,,,,,,,,,0.727,1,,,,,,,,,,,,,,,,,,,,,,,,0.051851852,0.022222222,0,0,0,,,,,,,PLANK,HB,m,m,./images/PLANKHB.png,,,,,,,,,,,,,,,,,,,,,,m,1,0.727,,,,,,,,0,60,60,1,1
,,,,,,,,,,,,,,,,,5e2093a7e10aa2000c631268,31,2022-02-12_13h16.43.049,lexical_decision_task_DD,2021.2.3,Win32,59.94485074,,,,,,,,,,,0.752,1,,,,,,,,,,,,,,,,,,,,,,,,0.051851852,0.022222222,0,0,0,,,,,,,SPINE,LB,z,m,./images/SPINELB.png,,,,,,,,,,,,,,,,,,,,,,z,1,0.752,,,,,,,,0,61,61,149,1
,,,,,,,,,,,,,,,,,5e2093a7e10aa2000c631268,31,2022-02-12_13h16.43.049,lexical_decision_task_DD,2021.2.3,Win32,59.94485074,,,,,,,,,,,0.7043,0,,,,,,,,,,,,,,,,,,,,,,,,0.051851852,0.022222222,0,0,0,,,,,,,PILOT,LB,z,m,./images/PILOTLB.png,,,,,,,,,,,,,,,,,,,,,,m,0,0.7043,,,,,,,,0,62,62,134,1
,,,,,,,,,,,,,,,,,5e2093a7e10aa2000c631268,31,2022-02-12_13h16.43.049,lexical_decision_task_DD,2021.2.3,Win32,59.94485074,,,,,,,,,,,0.634,1,,,,,,,,,,,,,,,,,,,,,,,,0.051851852,0.022222222,0,0,0,,,,,,,STREAM,LB,z,m,./images/STREAMLB.png,,,,,,,,,,,,,,,,,,,,,,z,1,0.634,,,,,,,,0,63,63,125,1
,,,,,,,,,,,,,,,,,5e2093a7e10aa2000c631268,31,2022-02-12_13h16.43.049,lexical_decision_task_DD,2021.2.3,Win32,59.94485074,,,,,,,,,,,0.5998,1,,,,,,,,,,,,,,,,,,,,,,,,0.051851852,0.022222222,0,0,0,,,,,,,ENGINE,LB,z,m,./images/ENGINELB.png,,,,,,,,,,,,,,,,,,,,,,z,1,0.5998,,,,,,,,0,64,64,122,1
,,,,,,,,,,,,,,,,,5e2093a7e10aa2000c631268,31,2022-02-12_13h16.43.049,lexical_decision_task_DD,2021.2.3,Win32,59.94485074,,,,,,,,,,,0.7083,1,,,,,,,,,,,,,,,,,,,,,,,,0.051851852,0.022222222,0,0,0,,,,,,,BONNET,LB,m,m,./images/BONNETLB.png,,,,,,,,,,,,,,,,,,,,,,m,1,0.7083,,,,,,,,0,65,65,11,1
,,,,,,,,,,,,,,,,,5e2093a7e10aa2000c631268,31,2022-02-12_13h16.43.049,lexical_decision_task_DD,2021.2.3,Win32,59.94485074,,,,,,,,,,,0.5104,0,,,,,,,,,,,,,,,,,,,,,,,,0.051851852,0.022222222,0,0,0,,,,,,,TIGER,HB,z,m,./images/TIGERHB.png,,,,,,,,,,,,,,,,,,,,,,m,0,0.5104,,,,,,,,0,66,66,121,1
,,,,,,,,,,,,,,,,,5e2093a7e10aa2000c631268,31,2022-02-12_13h16.43.049,lexical_decision_task_DD,2021.2.3,Win32,59.94485074,,,,,,,,,,,0.5765,1,,,,,,,,,,,,,,,,,,,,,,,,0.051851852,0.022222222,0,0,0,,,,,,,POSTER,LB,z,m,./images/POSTERLB.png,,,,,,,,,,,,,,,,,,,,,,z,1,0.5765,,,,,,,,0,67,67,137,1
,,,,,,,,,,,,,,,,,5e2093a7e10aa2000c631268,31,2022-02-12_13h16.43.049,lexical_decision_task_DD,2021.2.3,Win32,59.94485074,,,,,,,,,,,0.6637,1,,,,,,,,,,,,,,,,,,,,,,,,0.051851852,0.022222222,0,0,0,,,,,,,CLOWN,HB,z,m,./images/CLOWNHB.png,,,,,,,,,,,,,,,,,,,,,,z,1,0.6637,,,,,,,,0,68,68,106,1
,,,,,,,,,,,,,,,,,5e2093a7e10aa2000c631268,31,2022-02-12_13h16.43.049,lexical_decision_task_DD,2021.2.3,Win32,59.94485074,,,,,,,,,,,0.6836,1,,,,,,,,,,,,,,,,,,,,,,,,0.051851852,0.022222222,0,0,0,,,,,,,BUBBLE,LB,z,m,./images/BUBBLELB.png,,,,,,,,,,,,,,,,,,,,,,z,1,0.6836,,,,,,,,0,69,69,155,1
,,,,,,,,,,,,,,,,,5e2093a7e10aa2000c631268,31,2022-02-12_13h16.43.049,lexical_decision_task_DD,2021.2.3,Win32,59.94485074,,,,,,,,,,,0.67,1,,,,,,,,,,,,,,,,,,,,,,,,0.051851852,0.022222222,0,0,0,,,,,,,CRUMB,LB,m,m,./images/CRUMBLB.png,,,,,,,,,,,,,,,,,,,,,,m,1,0.67,,,,,,,,0,70,70,29,1
,,,,,,,,,,,,,,,,,5e2093a7e10aa2000c631268,31,2022-02-12_13h16.43.049,lexical_decision_task_DD,2021.2.3,Win32,59.94485074,,,,,,,,,,,0.5932,0,,,,,,,,,,,,,,,,,,,,,,,,0.051851852,0.022222222,0,0,0,,,,,,,STATUE,C,z,m,./images/STATUE.png,,,,,,,,,,,,,,,,,,,,,,m,0,0.5932,,,,,,,,0,71,71,150,1
,,,,,,,,,,,,,,,,,5e2093a7e10aa2000c631268,31,2022-02-12_13h16.43.049,lexical_decision_task_DD,2021.2.3,Win32,59.94485074,,,,,,,,,,,0.5599,1,,,,,,,,,,,,,,,,,,,,,,,,0.051851852,0.022222222,0,0,0,,,,,,,PARCEL,C,z,m,./images/PARCEL.png,,,,,,,,,,,,,,,,,,,,,,z,1,0.5599,,,,,,,,0,72,72,102,1
,,,,,,,,,,,,,,,,,5e2093a7e10aa2000c631268,31,2022-02-12_13h16.43.049,lexical_decision_task_DD,2021.2.3,Win32,59.94485074,,,,,,,,,,,0.7517,0,,,,,,,,,,,,,,,,,,,,,,,,0.051851852,0.022222222,0,0,0,,,,,,,FENCE,LB,z,m,./images/FENCELB.png,,,,,,,,,,,,,,,,,,,,,,m,0,0.7517,,,,,,,,0,73,73,98,1
,,,,,,,,,,,,,,,,,5e2093a7e10aa2000c631268,31,2022-02-12_13h16.43.049,lexical_decision_task_DD,2021.2.3,Win32,59.94485074,,,,,,,,,,,0.7359,1,,,,,,,,,,,,,,,,,,,,,,,,0.051851852,0.022222222,0,0,0,,,,,,,URINE,HB,m,m,./images/URINEHB.png,,,,,,,,,,,,,,,,,,,,,,m,1,0.7359,,,,,,,,0,74,74,70,1
,,,,,,,,,,,,,,,,,5e2093a7e10aa2000c631268,31,2022-02-12_13h16.43.049,lexical_decision_task_DD,2021.2.3,Win32,59.94485074,,,,,,,,,,,0.6082,1,,,,,,,,,,,,,,,,,,,,,,,,0.051851852,0.022222222,0,0,0,,,,,,,CARPET,LB,m,m,./images/CARPETLB.png,,,,,,,,,,,,,,,,,,,,,,m,1,0.6082,,,,,,,,0,75,75,53,1
,,,,,,,,,,,,,,,,,5e2093a7e10aa2000c631268,31,2022-02-12_13h16.43.049,lexical_decision_task_DD,2021.2.3,Win32,59.94485074,,,,,,,,,,,1.0061,0,,,,,,,,,,,,,,,,,,,,,,,,0.051851852,0.022222222,0,0,0,,,,,,,KIDNEY,C,m,m,./images/KIDNEY.png,,,,,,,,,,,,,,,,,,,,,,z,0,1.0061,,,,,,,,0,76,76,21,1
,,,,,,,,,,,,,,,,,5e2093a7e10aa2000c631268,31,2022-02-12_13h16.43.049,lexical_decision_task_DD,2021.2.3,Win32,59.94485074,,,,,,,,,,,0.908,0,,,,,,,,,,,,,,,,,,,,,,,,0.051851852,0.022222222,0,0,0,,,,,,,JUMPER,LB,z,m,./images/JUMPERLB.png,,,,,,,,,,,,,,,,,,,,,,m,0,0.908,,,,,,,,0,77,77,158,1
,,,,,,,,,,,,,,,,,5e2093a7e10aa2000c631268,31,2022-02-12_13h16.43.049,lexical_decision_task_DD,2021.2.3,Win32,59.94485074,,,,,,,,,,,0.5978,1,,,,,,,,,,,,,,,,,,,,,,,,0.051851852,0.022222222,0,0,0,,,,,,,FOLDER,C,m,m,./images/FOLDER.png,,,,,,,,,,,,,,,,,,,,,,m,1,0.5978,,,,,,,,0,78,78,42,1
,,,,,,,,,,,,,,,,,5e2093a7e10aa2000c631268,31,2022-02-12_13h16.43.049,lexical_decision_task_DD,2021.2.3,Win32,59.94485074,,,,,,,,,,,0.7003,0,,,,,,,,,,,,,,,,,,,,,,,,0.051851852,0.022222222,0,0,0,,,,,,,SHIELD,C,z,m,./images/SHIELD.png,,,,,,,,,,,,,,,,,,,,,,m,0,0.7003,,,,,,,,0,79,79,132,1
,,,,,,,,,,,,,,,,,5e2093a7e10aa2000c631268,31,2022-02-12_13h16.43.049,lexical_decision_task_DD,2021.2.3,Win32,59.94485074,,,,,,,,,,,0.8311,1,,,,,,,,,,,,,,,,,,,,,,,,0.051851852,0.022222222,0,0,0,,,,,,,LLAMA,LB,z,m,./images/LLAMALB.png,,,,,,,,,,,,,,,,,,,,,,z,1,0.8311,,,,,,,,0,80,80,119,1
,,,,,,,,,,,,,,,,,5e2093a7e10aa2000c631268,31,2022-02-12_13h16.43.049,lexical_decision_task_DD,2021.2.3,Win32,59.94485074,,,,,,,,,,,0.6281,0,,,,,,,,,,,,,,,,,,,,,,,,0.051851852,0.022222222,0,0,0,,,,,,,RHINO,C,m,m,./images/RHINO.png,,,,,,,,,,,,,,,,,,,,,,z,0,0.6281,,,,,,,,0,81,81,9,1
,,,,,,,,,,,,,,,,,5e2093a7e10aa2000c631268,31,2022-02-12_13h16.43.049,lexical_decision_task_DD,2021.2.3,Win32,59.94485074,,,,,,,,,,,1.7213,0,,,,,,,,,,,,,,,,,,,,,,,,0.051851852,0.022222222,0,0,0,,,,,,,CHALK,HB,z,m,./images/CHALKHB.png,,,,,,,,,,,,,,,,,,,,,,m,0,1.7213,,,,,,,,0,82,82,109,1
,,,,,,,,,,,,,,,,,5e2093a7e10aa2000c631268,31,2022-02-12_13h16.43.049,lexical_decision_task_DD,2021.2.3,Win32,59.94485074,,,,,,,,,,,0.6901,1,,,,,,,,,,,,,,,,,,,,,,,,-0.178703704,-0.115740741,0,0,0,space,,,,,,MALLET,LB,m,m,./images/MALLETLB.png,65.4776,,,,,,,,,,,,,,,,,,,,,m,1,0.6901,,,,,,,,0,83,83,50,1
,,,,,,,,,,,,,,,,,5e2093a7e10aa2000c631268,31,2022-02-12_13h16.43.049,lexical_decision_task_DD,2021.2.3,Win32,59.94485074,,,,,,,,,,,0.7507,0,,,,,,,,,,,,,,,,,,,,,,,,-0.178703704,-0.115740741,0,0,0,,,,,,,MUSCLE,HB,m,m,./images/MUSCLEHB.png,,,,,,,,,,,,,,,,,,,,,,z,0,0.7507,,,,,,,,0,84,84,4,1
,,,,,,,,,,,,,,,,,5e2093a7e10aa2000c631268,31,2022-02-12_13h16.43.049,lexical_decision_task_DD,2021.2.3,Win32,59.94485074,,,,,,,,,,,0.7908,1,,,,,,,,,,,,,,,,,,,,,,,,-0.178703704,-0.115740741,0,0,0,,,,,,,BROOM,C,z,m,./images/BROOM.png,,,,,,,,,,,,,,,,,,,,,,z,1,0.7908,,,,,,,,0,85,85,162,1
,,,,,,,,,,,,,,,,,5e2093a7e10aa2000c631268,31,2022-02-12_13h16.43.049,lexical_decision_task_DD,2021.2.3,Win32,59.94485074,,,,,,,,,,,0.6052,0,,,,,,,,,,,,,,,,,,,,,,,,-0.178703704,-0.115740741,0,0,0,,,,,,,BASKET,LB,z,m,./images/BASKETLB.png,,,,,,,,,,,,,,,,,,,,,,m,0,0.6052,,,,,,,,0,86,86,128,1
,,,,,,,,,,,,,,,,,5e2093a7e10aa2000c631268,31,2022-02-12_13h16.43.049,lexical_decision_task_DD,2021.2.3,Win32,59.94485074,,,,,,,,,,,0.7952,0,,,,,,,,,,,,,,,,,,,,,,,,-0.178703704,-0.115740741,0,0,0,,,,,,,PEBBLE,HB,z,m,./images/PEBBLEHB.png,,,,,,,,,,,,,,,,,,,,,,m,0,0.7952,,,,,,,,0,87,87,166,1
,,,,,,,,,,,,,,,,,5e2093a7e10aa2000c631268,31,2022-02-12_13h16.43.049,lexical_decision_task_DD,2021.2.3,Win32,59.94485074,,,,,,,,,,,0.6736,1,,,,,,,,,,,,,,,,,,,,,,,,-0.178703704,-0.115740741,0,0,0,,,,,,,INFANT,HB,m,m,./images/INFANTHB.png,,,,,,,,,,,,,,,,,,,,,,m,1,0.6736,,,,,,,,0,88,88,76,1
,,,,,,,,,,,,,,,,,5e2093a7e10aa2000c631268,31,2022-02-12_13h16.43.049,lexical_decision_task_DD,2021.2.3,Win32,59.94485074,,,,,,,,,,,0.6689,1,,,,,,,,,,,,,,,,,,,,,,,,-0.178703704,-0.115740741,0,0,0,,,,,,,FALCON,HB,m,m,./images/FALCONHB.png,,,,,,,,,,,,,,,,,,,,,,m,1,0.6689,,,,,,,,0,89,89,28,1
,,,,,,,,,,,,,,,,,5e2093a7e10aa2000c631268,31,2022-02-12_13h16.43.049,lexical_decision_task_DD,2021.2.3,Win32,59.94485074,,,,,,,,,,,0.608,0,,,,,,,,,,,,,,,,,,,,,,,,-0.178703704,-0.115740741,0,0,0,,,,,,,SUNSET,HB,m,m,./images/SUNSETHB.png,,,,,,,,,,,,,,,,,,,,,,z,0,0.608,,,,,,,,0,90,90,82,1
,,,,,,,,,,,,,,,,,5e2093a7e10aa2000c631268,31,2022-02-12_13h16.43.049,lexical_decision_task_DD,2021.2.3,Win32,59.94485074,,,,,,,,,,,0.6141,1,,,,,,,,,,,,,,,,,,,,,,,,-0.178703704,-0.115740741,0,0,0,,,,,,,COLLAR,C,z,m,./images/COLLAR.png,,,,,,,,,,,,,,,,,,,,,,z,1,0.6141,,,,,,,,0,91,91,99,1
,,,,,,,,,,,,,,,,,5e2093a7e10aa2000c631268,31,2022-02-12_13h16.43.049,lexical_decision_task_DD,2021.2.3,Win32,59.94485074,,,,,,,,,,,0.668,1,,,,,,,,,,,,,,,,,,,,,,,,-0.178703704,-0.115740741,0,0,0,,,,,,,TORCH,LB,m,m,./images/TORCHLB.png,,,,,,,,,,,,,,,,,,,,,,m,1,0.668,,,,,,,,0,92,92,68,1
,,,,,,,,,,,,,,,,,5e2093a7e10aa2000c631268,31,2022-02-12_13h16.43.049,lexical_decision_task_DD,2021.2.3,Win32,59.94485074,,,,,,,,,,,0.7276,0,,,,,,,,,,,,,,,,,,,,,,,,-0.178703704,-0.115740741,0,0,0,,,,,,,PACKET,LB,m,m,./images/PACKETLB.png,,,,,,,,,,,,,,,,,,,,,,z,0,0.7276,,,,,,,,0,93,93,56,1
,,,,,,,,,,,,,,,,,5e2093a7e10aa2000c631268,31,2022-02-12_13h16.43.049,lexical_decision_task_DD,2021.2.3,Win32,59.94485074,,,,,,,,,,,0.6503,1,,,,,,,,,,,,,,,,,,,,,,,,-0.178703704,-0.115740741,0,0,0,,,,,,,BRIDE,HB,z,m,./images/BRIDEHB.png,,,,,,,,,,,,,,,,,,,,,,z,1,0.6503,,,,,,,,0,94,94,148,1
,,,,,,,,,,,,,,,,,5e2093a7e10aa2000c631268,31,2022-02-12_13h16.43.049,lexical_decision_task_DD,2021.2.3,Win32,59.94485074,,,,,,,,,,,0.5643,0,,,,,,,,,,,,,,,,,,,,,,,,-0.178703704,-0.115740741,0,0,0,,,,,,,ONION,C,m,m,./images/ONION.png,,,,,,,,,,,,,,,,,,,,,,z,0,0.5643,,,,,,,,0,95,95,51,1
,,,,,,,,,,,,,,,,,5e2093a7e10aa2000c631268,31,2022-02-12_13h16.43.049,lexical_decision_task_DD,2021.2.3,Win32,59.94485074,,,,,,,,,,,0.6041,1,,,,,,,,,,,,,,,,,,,,,,,,-0.178703704,-0.115740741,0,0,0,,,,,,,ARTIST,HB,z,m,./images/ARTISTHB.png,,,,,,,,,,,,,,,,,,,,,,z,1,0.6041,,,,,,,,0,96,96,145,1
,,,,,,,,,,,,,,,,,5e2093a7e10aa2000c631268,31,2022-02-12_13h16.43.049,lexical_decision_task_DD,2021.2.3,Win32,59.94485074,,,,,,,,,,,0.7462,1,,,,,,,,,,,,,,,,,,,,,,,,-0.178703704,-0.115740741,0,0,0,,,,,,,WEASEL,LB,m,m,./images/WEASELLB.png,,,,,,,,,,,,,,,,,,,,,,m,1,0.7462,,,,,,,,0,97,97,80,1
,,,,,,,,,,,,,,,,,5e2093a7e10aa2000c631268,31,2022-02-12_13h16.43.049,lexical_decision_task_DD,2021.2.3,Win32,59.94485074,,,,,,,,,,,0.8348,1,,,,,,,,,,,,,,,,,,,,,,,,-0.178703704,-0.115740741,0,0,0,,,,,,,CLIFF,LB,z,m,./images/CLIFFLB.png,,,,,,,,,,,,,,,,,,,,,,z,1,0.8348,,,,,,,,0,98,98,92,1
,,,,,,,,,,,,,,,,,5e2093a7e10aa2000c631268,31,2022-02-12_13h16.43.049,lexical_decision_task_DD,2021.2.3,Win32,59.94485074,,,,,,,,,,,0.6075,1,,,,,,,,,,,,,,,,,,,,,,,,-0.178703704,-0.115740741,0,0,0,,,,,,,GRAPE,HB,z,m,./images/GRAPEHB.png,,,,,,,,,,,,,,,,,,,,,,z,1,0.6075,,,,,,,,0,99,99,100,1
,,,,,,,,,,,,,,,,,5e2093a7e10aa2000c631268,31,2022-02-12_13h16.43.049,lexical_decision_task_DD,2021.2.3,Win32,59.94485074,,,,,,,,,,,0.6293,0,,,,,,,,,,,,,,,,,,,,,,,,-0.178703704,-0.115740741,0,0,0,,,,,,,GREASE,C,m,m,./images/GREASE.png,,,,,,,,,,,,,,,,,,,,,,z,0,0.6293,,,,,,,,0,100,100,15,1
,,,,,,,,,,,,,,,,,5e2093a7e10aa2000c631268,31,2022-02-12_13h16.43.049,lexical_decision_task_DD,2021.2.3,Win32,59.94485074,,,,,,,,,,,1.3064,1,,,,,,,,,,,,,,,,,,,,,,,,-0.178703704,-0.115740741,0,0,0,,,,,,,BANNER,HB,m,m,./images/BANNERHB.png,,,,,,,,,,,,,,,,,,,,,,m,1,1.3064,,,,,,,,0,101,101,52,1
,,,,,,,,,,,,,,,,,5e2093a7e10aa2000c631268,31,2022-02-12_13h16.43.049,lexical_decision_task_DD,2021.2.3,Win32,59.94485074,,,,,,,,,,,0.5641,1,,,,,,,,,,,,,,,,,,,,,,,,-0.178703704,-0.115740741,0,0,0,,,,,,,FARMER,LB,m,m,./images/FARMERLB.png,,,,,,,,,,,,,,,,,,,,,,m,1,0.5641,,,,,,,,0,102,102,65,1
,,,,,,,,,,,,,,,,,5e2093a7e10aa2000c631268,31,2022-02-12_13h16.43.049,lexical_decision_task_DD,2021.2.3,Win32,59.94485074,,,,,,,,,,,0.668,1,,,,,,,,,,,,,,,,,,,,,,,,-0.178703704,-0.115740741,0,0,0,,,,,,,PIMPLE,LB,m,m,./images/PIMPLELB.png,,,,,,,,,,,,,,,,,,,,,,m,1,0.668,,,,,,,,0,103,103,71,1
,,,,,,,,,,,,,,,,,5e2093a7e10aa2000c631268,31,2022-02-12_13h16.43.049,lexical_decision_task_DD,2021.2.3,Win32,59.94485074,,,,,,,,,,,0.6793,1,,,,,,,,,,,,,,,,,,,,,,,,-0.178703704,-0.115740741,0,0,0,,,,,,,STORM,C,m,m,./images/STORM.png,,,,,,,,,,,,,,,,,,,,,,m,1,0.6793,,,,,,,,0,104,104,30,1
,,,,,,,,,,,,,,,,,5e2093a7e10aa2000c631268,31,2022-02-12_13h16.43.049,lexical_decision_task_DD,2021.2.3,Win32,59.94485074,,,,,,,,,,,1.6668,1,,,,,,,,,,,,,,,,,,,,,,,,-0.178703704,-0.115740741,0,0,0,,,,,,,SNAKE,HB,z,m,./images/SNAKEHB.png,,,,,,,,,,,,,,,,,,,,,,z,1,1.6668,,,,,,,,0,105,105,124,1
,,,,,,,,,,,,,,,,,5e2093a7e10aa2000c631268,31,2022-02-12_13h16.43.049,lexical_decision_task_DD,2021.2.3,Win32,59.94485074,,,,,,,,,,,0.6532,1,,,,,,,,,,,,,,,,,,,,,,,,-0.178703704,-0.115740741,0,0,0,,,,,,,BAKER,C,z,m,./images/BAKER.png,,,,,,,,,,,,,,,,,,,,,,z,1,0.6532,,,,,,,,0,106,106,147,1
,,,,,,,,,,,,,,,,,5e2093a7e10aa2000c631268,31,2022-02-12_13h16.43.049,lexical_decision_task_DD,2021.2.3,Win32,59.94485074,,,,,,,,,,,0.5934,1,,,,,,,,,,,,,,,,,,,,,,,,-0.178703704,-0.115740741,0,0,0,,,,,,,LADDER,LB,m,m,./images/LADDERLB.png,,,,,,,,,,,,,,,,,,,,,,m,1,0.5934,,,,,,,,0,107,107,38,1
,,,,,,,,,,,,,,,,,5e2093a7e10aa2000c631268,31,2022-02-12_13h16.43.049,lexical_decision_task_DD,2021.2.3,Win32,59.94485074,,,,,,,,,,,0.7037,0,,,,,,,,,,,,,,,,,,,,,,,,-0.178703704,-0.115740741,0,0,0,,,,,,,RAZOR,HB,z,m,./images/RAZORHB.png,,,,,,,,,,,,,,,,,,,,,,m,0,0.7037,,,,,,,,0,108,108,118,1
,,,,,,,,,,,,,,,,,5e2093a7e10aa2000c631268,31,2022-02-12_13h16.43.049,lexical_decision_task_DD,2021.2.3,Win32,59.94485074,,,,,,,,,,,0.6416,0,,,,,,,,,,,,,,,,,,,,,,,,-0.178703704,-0.115740741,0,0,0,,,,,,,BELLY,HB,m,m,./images/BELLYHB.png,,,,,,,,,,,,,,,,,,,,,,z,0,0.6416,,,,,,,,0,109,109,10,1
,,,,,,,,,,,,,,,,,5e2093a7e10aa2000c631268,31,2022-02-12_13h16.43.049,lexical_decision_task_DD,2021.2.3,Win32,59.94485074,,,,,,,,,,,0.7582,1,,,,,,,,,,,,,,,,,,,,,,,,-0.178703704,-0.115740741,0,0,0,,,,,,,CURRY,C,z,m,./images/CURRY.png,,,,,,,,,,,,,,,,,,,,,,z,1,0.7582,,,,,,,,0,110,110,144,1
,,,,,,,,,,,,,,,,,5e2093a7e10aa2000c631268,31,2022-02-12_13h16.43.049,lexical_decision_task_DD,2021.2.3,Win32,59.94485074,,,,,,,,,,,0.8065,1,,,,,,,,,,,,,,,,,,,,,,,,-0.178703704,-0.115740741,0,0,0,,,,,,,LAGOON,LB,z,m,./images/LAGOONLB.png,,,,,,,,,,,,,,,,,,,,,,z,1,0.8065,,,,,,,,0,111,111,131,1
,,,,,,,,,,,,,,,,,5e2093a7e10aa2000c631268,31,2022-02-12_13h16.43.049,lexical_decision_task_DD,2021.2.3,Win32,59.94485074,,,,,,,,,,,0.7505,1,,,,,,,,,,,,,,,,,,,,,,,,-0.178703704,-0.115740741,0,0,0,,,,,,,BABOON,HB,m,m,./images/BABOONHB.png,,,,,,,,,,,,,,,,,,,,,,m,1,0.7505,,,,,,,,0,112,112,58,1
,,,,,,,,,,,,,,,,,5e2093a7e10aa2000c631268,31,2022-02-12_13h16.43.049,lexical_decision_task_DD,2021.2.3,Win32,59.94485074,,,,,,,,,,,0.8125,1,,,,,,,,,,,,,,,,,,,,,,,,-0.178703704,-0.115740741,0,0,0,,,,,,,GRANNY,LB,z,m,./images/GRANNYLB.png,,,,,,,,,,,,,,,,,,,,,,z,1,0.8125,,,,,,,,0,113,113,104,1
,,,,,,,,,,,,,,,,,5e2093a7e10aa2000c631268,31,2022-02-12_13h16.43.049,lexical_decision_task_DD,2021.2.3,Win32,59.94485074,,,,,,,,,,,0.9144,1,,,,,,,,,,,,,,,,,,,,,,,,-0.178703704,-0.115740741,0,0,0,,,,,,,HOCKEY,LB,z,m,./images/HOCKEYLB.png,,,,,,,,,,,,,,,,,,,,,,z,1,0.9144,,,,,,,,0,114,114,116,1
,,,,,,,,,,,,,,,,,5e2093a7e10aa2000c631268,31,2022-02-12_13h16.43.049,lexical_decision_task_DD,2021.2.3,Win32,59.94485074,,,,,,,,,,,0.9242,1,,,,,,,,,,,,,,,,,,,,,,,,-0.178703704,-0.115740741,0,0,0,,,,,,,BAMBOO,LB,z,m,./images/BAMBOOLB.png,,,,,,,,,,,,,,,,,,,,,,z,1,0.9242,,,,,,,,0,115,115,89,1
,,,,,,,,,,,,,,,,,5e2093a7e10aa2000c631268,31,2022-02-12_13h16.43.049,lexical_decision_task_DD,2021.2.3,Win32,59.94485074,,,,,,,,,,,0.5664,1,,,,,,,,,,,,,,,,,,,,,,,,-0.178703704,-0.115740741,0,0,0,,,,,,,CANDY,C,z,m,./images/CANDY.png,,,,,,,,,,,,,,,,,,,,,,z,1,0.5664,,,,,,,,0,116,116,123,1
,,,,,,,,,,,,,,,,,5e2093a7e10aa2000c631268,31,2022-02-12_13h16.43.049,lexical_decision_task_DD,2021.2.3,Win32,59.94485074,,,,,,,,,,,0.7166,0,,,,,,,,,,,,,,,,,,,,,,,,-0.178703704,-0.115740741,0,0,0,,,,,,,WHISKY,LB,z,m,./images/WHISKYLB.png,,,,,,,,,,,,,,,,,,,,,,m,0,0.7166,,,,,,,,0,117,117,167,1
,,,,,,,,,,,,,,,,,5e2093a7e10aa2000c631268,31,2022-02-12_13h16.43.049,lexical_decision_task_DD,2021.2.3,Win32,59.94485074,,,,,,,,,,,0.6218,1,,,,,,,,,,,,,,,,,,,,,,,,-0.178703704,-0.115740741,0,0,0,,,,,,,CRUST,HB,m,m,./images/CRUSTHB.png,,,,,,,,,,,,,,,,,,,,,,m,1,0.6218,,,,,,,,0,118,118,79,1
,,,,,,,,,,,,,,,,,5e2093a7e10aa2000c631268,31,2022-02-12_13h16.43.049,lexical_decision_task_DD,2021.2.3,Win32,59.94485074,,,,,,,,,,,0.859,0,,,,,,,,,,,,,,,,,,,,,,,,-0.178703704,-0.115740741,0,0,0,,,,,,,RULER,HB,z,m,./images/RULERHB.png,,,,,,,,,,,,,,,,,,,,,,m,0,0.859,,,,,,,,0,119,119,163,1
,,,,,,,,,,,,,,,,,5e2093a7e10aa2000c631268,31,2022-02-12_13h16.43.049,lexical_decision_task_DD,2021.2.3,Win32,59.94485074,,,,,,,,,,,0.7834,1,,,,,,,,,,,,,,,,,,,,,,,,-0.178703704,-0.115740741,0,0,0,,,,,,,SWING,HB,m,m,./images/SWINGHB.png,,,,,,,,,,,,,,,,,,,,,,m,1,0.7834,,,,,,,,0,120,120,40,1
,,,,,,,,,,,,,,,,,5e2093a7e10aa2000c631268,31,2022-02-12_13h16.43.049,lexical_decision_task_DD,2021.2.3,Win32,59.94485074,,,,,,,,,,,0.6613,0,,,,,,,,,,,,,,,,,,,,,,,,-0.178703704,-0.115740741,0,0,0,,,,,,,GARDEN,HB,z,m,./images/GARDENHB.png,,,,,,,,,,,,,,,,,,,,,,m,0,0.6613,,,,,,,,0,121,121,94,1
,,,,,,,,,,,,,,,,,5e2093a7e10aa2000c631268,31,2022-02-12_13h16.43.049,lexical_decision_task_DD,2021.2.3,Win32,59.94485074,,,,,,,,,,,0.5775,1,,,,,,,,,,,,,,,,,,,,,,,,-0.178703704,-0.115740741,0,0,0,,,,,,,MELON,HB,m,m,./images/MELONHB.png,,,,,,,,,,,,,,,,,,,,,,m,1,0.5775,,,,,,,,0,122,122,22,1
,,,,,,,,,,,,,,,,,5e2093a7e10aa2000c631268,31,2022-02-12_13h16.43.049,lexical_decision_task_DD,2021.2.3,Win32,59.94485074,,,,,,,,,,,0.7366,1,,,,,,,,,,,,,,,,,,,,,,,,-0.178703704,-0.115740741,0,0,0,,,,,,,MOOSE,C,m,m,./images/MOOSE.png,,,,,,,,,,,,,,,,,,,,,,m,1,0.7366,,,,,,,,0,123,123,57,1
,,,,,,,,,,,,,,,,,5e2093a7e10aa2000c631268,31,2022-02-12_13h16.43.049,lexical_decision_task_DD,2021.2.3,Win32,59.94485074,,,,,,,,,,,0.8571,0,,,,,,,,,,,,,,,,,,,,,,,,-0.178703704,-0.115740741,0,0,0,,,,,,,SQUARE,C,m,m,./images/SQUARE.png,,,,,,,,,,,,,,,,,,,,,,z,0,0.8571,,,,,,,,0,124,124,6,1
,,,,,,,,,,,,,,,,,5e2093a7e10aa2000c631268,31,2022-02-12_13h16.43.049,lexical_decision_task_DD,2021.2.3,Win32,59.94485074,,,,,,,,,,,0.9889,1,,,,,,,,,,,,,,,,,,,,,,,,-0.35462963,0.167592593,0,0,0,space,,,,,,BUTTER,C,z,m,./images/BUTTER.png,44.188,,,,,,,,,,,,,,,,,,,,,z,1,0.9889,,,,,,,,0,125,125,111,1
,,,,,,,,,,,,,,,,,5e2093a7e10aa2000c631268,31,2022-02-12_13h16.43.049,lexical_decision_task_DD,2021.2.3,Win32,59.94485074,,,,,,,,,,,1.0893,1,,,,,,,,,,,,,,,,,,,,,,,,-0.35462963,0.167592593,0,0,0,,,,,,,CRADLE,LB,m,m,./images/CRADLELB.png,,,,,,,,,,,,,,,,,,,,,,m,1,1.0893,,,,,,,,0,126,126,20,1
,,,,,,,,,,,,,,,,,5e2093a7e10aa2000c631268,31,2022-02-12_13h16.43.049,lexical_decision_task_DD,2021.2.3,Win32,59.94485074,,,,,,,,,,,0.5639,1,,,,,,,,,,,,,,,,,,,,,,,,-0.35462963,0.167592593,0,0,0,,,,,,,PISTOL,LB,z,m,./images/PISTOLLB.png,,,,,,,,,,,,,,,,,,,,,,z,1,0.5639,,,,,,,,0,127,127,113,1
,,,,,,,,,,,,,,,,,5e2093a7e10aa2000c631268,31,2022-02-12_13h16.43.049,lexical_decision_task_DD,2021.2.3,Win32,59.94485074,,,,,,,,,,,0.9959,0,,,,,,,,,,,,,,,,,,,,,,,,-0.35462963,0.167592593,0,0,0,,,,,,,DANCER,C,z,m,./images/DANCER.png,,,,,,,,,,,,,,,,,,,,,,m,0,0.9959,,,,,,,,0,128,128,105,1
,,,,,,,,,,,,,,,,,5e2093a7e10aa2000c631268,31,2022-02-12_13h16.43.049,lexical_decision_task_DD,2021.2.3,Win32,59.94485074,,,,,,,,,,,0.7063,1,,,,,,,,,,,,,,,,,,,,,,,,-0.35462963,0.167592593,0,0,0,,,,,,,PEARL,HB,m,m,./images/PEARLHB.png,,,,,,,,,,,,,,,,,,,,,,m,1,0.7063,,,,,,,,0,129,129,46,1
,,,,,,,,,,,,,,,,,5e2093a7e10aa2000c631268,31,2022-02-12_13h16.43.049,lexical_decision_task_DD,2021.2.3,Win32,59.94485074,,,,,,,,,,,0.6121,1,,,,,,,,,,,,,,,,,,,,,,,,-0.35462963,0.167592593,0,0,0,,,,,,,SAILOR,HB,m,m,./images/SAILORHB.png,,,,,,,,,,,,,,,,,,,,,,m,1,0.6121,,,,,,,,0,130,130,67,1
,,,,,,,,,,,,,,,,,5e2093a7e10aa2000c631268,31,2022-02-12_13h16.43.049,lexical_decision_task_DD,2021.2.3,Win32,59.94485074,,,,,,,,,,,0.53,1,,,,,,,,,,,,,,,,,,,,,,,,-0.35462963,0.167592593,0,0,0,,,,,,,JUNGLE,LB,m,m,./images/JUNGLELB.png,,,,,,,,,,,,,,,,,,,,,,m,1,0.53,,,,,,,,0,131,131,83,1
,,,,,,,,,,,,,,,,,5e2093a7e10aa2000c631268,31,2022-02-12_13h16.43.049,lexical_decision_task_DD,2021.2.3,Win32,59.94485074,,,,,,,,,,,0.6033,1,,,,,,,,,,,,,,,,,,,,,,,,-0.35462963,0.167592593,0,0,0,,,,,,,CANYON,HB,m,m,./images/CANYONHB.png,,,,,,,,,,,,,,,,,,,,,,m,1,0.6033,,,,,,,,0,132,132,34,1
,,,,,,,,,,,,,,,,,5e2093a7e10aa2000c631268,31,2022-02-12_13h16.43.049,lexical_decision_task_DD,2021.2.3,Win32,59.94485074,,,,,,,,,,,0.6094,1,,,,,,,,,,,,,,,,,,,,,,,,-0.35462963,0.167592593,0,0,0,,,,,,,BURIAL,LB,m,m,./images/BURIALLB.png,,,,,,,,,,,,,,,,,,,,,,m,1,0.6094,,,,,,,,0,133,133,59,1
