key_resp.keys,key_resp.rt,instr_done_touch.x,instr_done_touch.y,instr_done_touch.leftButton,instr_done_touch.midButton,instr_done_touch.rightButton,instruction_pages.thisRepN,instruction_pages.thisTrialN,instruction_pages.thisN,instruction_pages.thisIndex,instruction_pages.ran,pageN,phase,instruct_text,has_image,instruct_image,participant,age,date,expName,psychopyVersion,OS,frameRate,response.keys,response.corr,response.rt,touch_resp.x,touch_resp.y,touch_resp.leftButton,touch_resp.midButton,touch_resp.rightButton,touch_resp.time,touch_resp.clicked_name,rt,corr,practrials.thisRepN,practrials.thisTrialN,practrials.thisN,practrials.thisIndex,practrials.ran,TrialID,Target,corrAns,end_of_practice_trials_pages.thisRepN,end_of_practice_trials_pages.thisTrialN,end_of_practice_trials_pages.thisN,end_of_practice_trials_pages.thisIndex,end_of_practice_trials_pages.ran,key_resp_2.keys,key_resp_2.corr,key_resp_2.rt,targ_click.x,targ_click.y,targ_click.leftButton,targ_click.midButton,targ_click.rightButton,targ_click.time,targ_click.clicked_name,break_done_touch.x,break_done_touch.y,break_done_touch.leftButton,break_done_touch.midButton,break_done_touch.rightButton,break_done_keyboard.keys,maintrials.thisRepN,maintrials.thisTrialN,maintrials.thisN,maintrials.thisIndex,maintrials.ran,string,blur,study,lex,stim_path,break_done_keyboard.rt,mouse_2.x,mouse_2.y,mouse_2.leftButton,mouse_2.midButton,mouse_2.rightButton,mouse_2.clicked_name,slider.response,slider.rt,trials.thisRepN,trials.thisTrialN,trials.thisN,trials.thisIndex,trials.ran,instr_done_touch.clicked_name,test_instructions.thisRepN,test_instructions.thisTrialN,test_instructions.thisN,test_instructions.thisIndex,test_instructions.ran,key_resp_3.keys,key_resp_3.corr,key_resp_3.rt,test_click.x,test_click.y,test_click.leftButton,test_click.midButton,test_click.rightButton,test_click.time,test_click.clicked_name,test_phase.thisRepN,test_phase.thisTrialN,test_phase.thisN,test_phase.thisIndex,test_phase.ran
space,105.6595,-0.299999982,-0.300000024,0,0,0,0,0,0,0,1,1,instructions,"INSTRUCTIONS
At the start of each trial, look at the plus sign  (+) in the center of the screen.  This tells you that a trial is about to begin and where to look. Second, the plus sign will disappear and a string of letters will appear. Your task is to determine if the string of letters is a word or not. If the item is a word press the M key (on keyboard)  or touch the word button (phone/tablet).  If the item is not a word,  press the  Z key (on keyboard)  or touch the nonword button (on phone/tablet). 
Press the space bar or touch  continue.",0,,5e7d11401ae8680ca60eed9e,36,2022-02-12_13h30.31.655,lexical_decision_task_DD_L2,2021.2.3,Win32,59.5167242,,,,,,,,,,,,,,,,,,,,,,,,,,,,,,,,,,,,,,,,,,,,,,,,,,,,,,,,,,,,,,,,,,,,,,,,,,,,,,,,,,,,,,
space,7.9488,-0.299999982,-0.300000024,0,0,0,0,1,1,1,1,2,instructions,"If your device has a keyboard, press the 'Z' key for nonwords and the 'M' key for words.





Press the space bar or touch the button below to continue.",0,keyboard-example.gif,5e7d11401ae8680ca60eed9e,36,2022-02-12_13h30.31.655,lexical_decision_task_DD_L2,2021.2.3,Win32,59.5167242,,,,,,,,,,,,,,,,,,,,,,,,,,,,,,,,,,,,,,,,,,,,,,,,,,,,,,,,,,,,,,,,,,,,,,,,,,,,,,,,,,,,,,
space,6.4328,-0.299999982,-0.300000024,0,0,0,0,2,2,2,1,3,instructions,"If you are using a touchscreen only device, use the buttons on the screen. Do not use the mouse.





Press the space bar or touch the button below to continue.",0,touchscreen-example.gif,5e7d11401ae8680ca60eed9e,36,2022-02-12_13h30.31.655,lexical_decision_task_DD_L2,2021.2.3,Win32,59.5167242,,,,,,,,,,,,,,,,,,,,,,,,,,,,,,,,,,,,,,,,,,,,,,,,,,,,,,,,,,,,,,,,,,,,,,,,,,,,,,,,,,,,,,
space,6.012,-0.299999982,-0.300000024,0,0,0,0,3,3,3,1,4,instructions,"It is very important that you respond as quickly and accurately as possible, as each letter string will only be on the screen for two seconds. If you do not respond within this time, the message 'Too slow!' will be displayed and the experiment will progress to the next letter string. The first 20 trials will be practice trials and you will receive feedback on your answers. 

Press the space bar or touch the button below to start the practice trials.",0,,5e7d11401ae8680ca60eed9e,36,2022-02-12_13h30.31.655,lexical_decision_task_DD_L2,2021.2.3,Win32,59.5167242,,,,,,,,,,,,,,,,,,,,,,,,,,,,,,,,,,,,,,,,,,,,,,,,,,,,,,,,,,,,,,,,,,,,,,,,,,,,,,,,,,,,,,
,,,,,,,,,,,,,,,,,5e7d11401ae8680ca60eed9e,36,2022-02-12_13h30.31.655,lexical_decision_task_DD_L2,2021.2.3,Win32,59.5167242,z,1,4.7109,,,,,,,,4.7109,1,0,0,0,9,1,1001,FARINY,z,,,,,,,,,,,,,,,,,,,,,,,,,,,,,,,,,,,,,,,,,,,,,,,,,,,,,,,,,,,,,,,,,,
,,,,,,,,,,,,,,,,,5e7d11401ae8680ca60eed9e,36,2022-02-12_13h30.31.655,lexical_decision_task_DD_L2,2021.2.3,Win32,59.5167242,z,1,1.7155,,,,,,,,1.7155,1,0,1,1,13,1,1001,ROUPET,z,,,,,,,,,,,,,,,,,,,,,,,,,,,,,,,,,,,,,,,,,,,,,,,,,,,,,,,,,,,,,,,,,,
,,,,,,,,,,,,,,,,,5e7d11401ae8680ca60eed9e,36,2022-02-12_13h30.31.655,lexical_decision_task_DD_L2,2021.2.3,Win32,59.5167242,m,1,1.5678,,,,,,,,1.5678,1,0,2,2,7,1,1001,VOLUME,m,,,,,,,,,,,,,,,,,,,,,,,,,,,,,,,,,,,,,,,,,,,,,,,,,,,,,,,,,,,,,,,,,,
,,,,,,,,,,,,,,,,,5e7d11401ae8680ca60eed9e,36,2022-02-12_13h30.31.655,lexical_decision_task_DD_L2,2021.2.3,Win32,59.5167242,z,1,1.502,,,,,,,,1.502,1,0,3,3,11,1,1001,RASHET,z,,,,,,,,,,,,,,,,,,,,,,,,,,,,,,,,,,,,,,,,,,,,,,,,,,,,,,,,,,,,,,,,,,
,,,,,,,,,,,,,,,,,5e7d11401ae8680ca60eed9e,36,2022-02-12_13h30.31.655,lexical_decision_task_DD_L2,2021.2.3,Win32,59.5167242,z,1,1.3113,,,,,,,,1.3113,1,0,4,4,15,1,1001,WHAISE,z,,,,,,,,,,,,,,,,,,,,,,,,,,,,,,,,,,,,,,,,,,,,,,,,,,,,,,,,,,,,,,,,,,
,,,,,,,,,,,,,,,,,5e7d11401ae8680ca60eed9e,36,2022-02-12_13h30.31.655,lexical_decision_task_DD_L2,2021.2.3,Win32,59.5167242,m,1,1.235,,,,,,,,1.235,1,0,5,5,1,1,1001,ADJUST,m,,,,,,,,,,,,,,,,,,,,,,,,,,,,,,,,,,,,,,,,,,,,,,,,,,,,,,,,,,,,,,,,,,
,,,,,,,,,,,,,,,,,5e7d11401ae8680ca60eed9e,36,2022-02-12_13h30.31.655,lexical_decision_task_DD_L2,2021.2.3,Win32,59.5167242,m,1,0.7853,,,,,,,,0.7853,1,0,6,6,3,1,1001,MATRIX,m,,,,,,,,,,,,,,,,,,,,,,,,,,,,,,,,,,,,,,,,,,,,,,,,,,,,,,,,,,,,,,,,,,
,,,,,,,,,,,,,,,,,5e7d11401ae8680ca60eed9e,36,2022-02-12_13h30.31.655,lexical_decision_task_DD_L2,2021.2.3,Win32,59.5167242,z,1,2.001,,,,,,,,2.001,1,0,7,7,12,1,1001,SPRINY,z,,,,,,,,,,,,,,,,,,,,,,,,,,,,,,,,,,,,,,,,,,,,,,,,,,,,,,,,,,,,,,,,,,
,,,,,,,,,,,,,,,,,5e7d11401ae8680ca60eed9e,36,2022-02-12_13h30.31.655,lexical_decision_task_DD_L2,2021.2.3,Win32,59.5167242,z,1,1.5867,,,,,,,,1.5867,1,0,8,8,10,1,1001,INLADE,z,,,,,,,,,,,,,,,,,,,,,,,,,,,,,,,,,,,,,,,,,,,,,,,,,,,,,,,,,,,,,,,,,,
,,,,,,,,,,,,,,,,,5e7d11401ae8680ca60eed9e,36,2022-02-12_13h30.31.655,lexical_decision_task_DD_L2,2021.2.3,Win32,59.5167242,m,1,1.4715,,,,,,,,1.4715,1,0,9,9,6,1,1001,ZOMBIE,m,,,,,,,,,,,,,,,,,,,,,,,,,,,,,,,,,,,,,,,,,,,,,,,,,,,,,,,,,,,,,,,,,,
,,,,,,,,,,,,,,,,,5e7d11401ae8680ca60eed9e,36,2022-02-12_13h30.31.655,lexical_decision_task_DD_L2,2021.2.3,Win32,59.5167242,m,1,0.7517,,,,,,,,0.7517,1,0,10,10,2,1,1001,ALMOND,m,,,,,,,,,,,,,,,,,,,,,,,,,,,,,,,,,,,,,,,,,,,,,,,,,,,,,,,,,,,,,,,,,,
,,,,,,,,,,,,,,,,,5e7d11401ae8680ca60eed9e,36,2022-02-12_13h30.31.655,lexical_decision_task_DD_L2,2021.2.3,Win32,59.5167242,m,1,0.8181,,,,,,,,0.8181,1,0,11,11,0,1,1001,UTOPIA,m,,,,,,,,,,,,,,,,,,,,,,,,,,,,,,,,,,,,,,,,,,,,,,,,,,,,,,,,,,,,,,,,,,
,,,,,,,,,,,,,,,,,5e7d11401ae8680ca60eed9e,36,2022-02-12_13h30.31.655,lexical_decision_task_DD_L2,2021.2.3,Win32,59.5167242,z,1,1.0684,,,,,,,,1.0684,1,0,12,12,14,1,1001,THRALE,z,,,,,,,,,,,,,,,,,,,,,,,,,,,,,,,,,,,,,,,,,,,,,,,,,,,,,,,,,,,,,,,,,,
,,,,,,,,,,,,,,,,,5e7d11401ae8680ca60eed9e,36,2022-02-12_13h30.31.655,lexical_decision_task_DD_L2,2021.2.3,Win32,59.5167242,m,1,0.9511,,,,,,,,0.9511,1,0,13,13,5,1,1001,OBTAIN,m,,,,,,,,,,,,,,,,,,,,,,,,,,,,,,,,,,,,,,,,,,,,,,,,,,,,,,,,,,,,,,,,,,
,,,,,,,,,,,,,,,,,5e7d11401ae8680ca60eed9e,36,2022-02-12_13h30.31.655,lexical_decision_task_DD_L2,2021.2.3,Win32,59.5167242,m,1,0.668,,,,,,,,0.668,1,0,14,14,4,1,1001,SQUEAK,m,,,,,,,,,,,,,,,,,,,,,,,,,,,,,,,,,,,,,,,,,,,,,,,,,,,,,,,,,,,,,,,,,,
,,,,,,,,,,,,,,,,,5e7d11401ae8680ca60eed9e,36,2022-02-12_13h30.31.655,lexical_decision_task_DD_L2,2021.2.3,Win32,59.5167242,z,1,1.1226,,,,,,,,1.1226,1,0,15,15,8,1,1001,ASLERT,z,,,,,,,,,,,,,,,,,,,,,,,,,,,,,,,,,,,,,,,,,,,,,,,,,,,,,,,,,,,,,,,,,,
space,8.5264,-0.299999982,-0.300000024,0,0,0,,,,,,1,end_of_practice,"You have completed the practice trials. During the experimental trials, you will not receive feedback. 
Before you begin, please ensure that you are in a comfortable and quiet location and will not be disturbed for about 15 minutes, as we cannot use your data if you do not complete all the trials. 
 When you are ready to start the experimental trials, please press space or touch the button below.",,,5e7d11401ae8680ca60eed9e,36,2022-02-12_13h30.31.655,lexical_decision_task_DD_L2,2021.2.3,Win32,59.5167242,,,,,,,,,,,,,,,,,,,,,0,0,0,0,1,,,,,,,,,,,,,,,,,,,,,,,,,,,,,,,,,,,,,,,,,,,,,,,,,,,,,,,,,,,,,
,,,,,,,,,,,,,,,,,5e7d11401ae8680ca60eed9e,36,2022-02-12_13h30.31.655,lexical_decision_task_DD_L2,2021.2.3,Win32,59.5167242,,,,,,,,,,,2.2816,1,,,,,,,,,,,,,,m,1,2.2816,,,,,,,,-0.299999982,-0.300000024,0,0,0,,0,0,0,74,1,CEMENT,C,old,m,./images/CEMENT.png,,,,,,,,,,,,,,,,,,,,,,,,,,,,,,,,,,,
,,,,,,,,,,,,,,,,,5e7d11401ae8680ca60eed9e,36,2022-02-12_13h30.31.655,lexical_decision_task_DD_L2,2021.2.3,Win32,59.5167242,,,,,,,,,,,0.664,1,,,,,,,,,,,,,,m,1,0.664,,,,,,,,-0.299999982,-0.300000024,0,0,0,,0,1,1,5,1,PASTA,C,old,m,./images/PASTA.png,,,,,,,,,,,,,,,,,,,,,,,,,,,,,,,,,,,
,,,,,,,,,,,,,,,,,5e7d11401ae8680ca60eed9e,36,2022-02-12_13h30.31.655,lexical_decision_task_DD_L2,2021.2.3,Win32,59.5167242,,,,,,,,,,,2.7607,1,,,,,,,,,,,,,,z,1,2.7607,,,,,,,,-0.299999982,-0.300000024,0,0,0,,0,2,2,89,1,DRIEK,LB,old,z,./images/DRIEKLB.png,,,,,,,,,,,,,,,,,,,,,,,,,,,,,,,,,,,
,,,,,,,,,,,,,,,,,5e7d11401ae8680ca60eed9e,36,2022-02-12_13h30.31.655,lexical_decision_task_DD_L2,2021.2.3,Win32,59.5167242,,,,,,,,,,,1.8601,1,,,,,,,,,,,,,,z,1,1.8601,,,,,,,,-0.299999982,-0.300000024,0,0,0,,0,3,3,132,1,SCIFF,C,old,z,./images/SCIFF.png,,,,,,,,,,,,,,,,,,,,,,,,,,,,,,,,,,,
,,,,,,,,,,,,,,,,,5e7d11401ae8680ca60eed9e,36,2022-02-12_13h30.31.655,lexical_decision_task_DD_L2,2021.2.3,Win32,59.5167242,,,,,,,,,,,1.5942,1,,,,,,,,,,,,,,z,1,1.5942,,,,,,,,-0.299999982,-0.300000024,0,0,0,,0,4,4,156,1,HIXES,C,old,z,./images/HIXES.png,,,,,,,,,,,,,,,,,,,,,,,,,,,,,,,,,,,
,,,,,,,,,,,,,,,,,5e7d11401ae8680ca60eed9e,36,2022-02-12_13h30.31.655,lexical_decision_task_DD_L2,2021.2.3,Win32,59.5167242,,,,,,,,,,,1.7043,1,,,,,,,,,,,,,,m,1,1.7043,,,,,,,,-0.299999982,-0.300000024,0,0,0,,0,5,5,66,1,SWEAT,HB,old,m,./images/SWEATHB.png,,,,,,,,,,,,,,,,,,,,,,,,,,,,,,,,,,,
,,,,,,,,,,,,,,,,,5e7d11401ae8680ca60eed9e,36,2022-02-12_13h30.31.655,lexical_decision_task_DD_L2,2021.2.3,Win32,59.5167242,,,,,,,,,,,0.6351,1,,,,,,,,,,,,,,m,1,0.6351,,,,,,,,-0.299999982,-0.300000024,0,0,0,,0,6,6,39,1,SHELF,HB,old,m,./images/SHELFHB.png,,,,,,,,,,,,,,,,,,,,,,,,,,,,,,,,,,,
,,,,,,,,,,,,,,,,,5e7d11401ae8680ca60eed9e,36,2022-02-12_13h30.31.655,lexical_decision_task_DD_L2,2021.2.3,Win32,59.5167242,,,,,,,,,,,2.0268,1,,,,,,,,,,,,,,z,1,2.0268,,,,,,,,-0.299999982,-0.300000024,0,0,0,,0,7,7,144,1,NAIRY,C,old,z,./images/NAIRY.png,,,,,,,,,,,,,,,,,,,,,,,,,,,,,,,,,,,
,,,,,,,,,,,,,,,,,5e7d11401ae8680ca60eed9e,36,2022-02-12_13h30.31.655,lexical_decision_task_DD_L2,2021.2.3,Win32,59.5167242,,,,,,,,,,,1.31,1,,,,,,,,,,,,,,z,1,1.31,,,,,,,,-0.299999982,-0.300000024,0,0,0,,0,8,8,109,1,BURGE,HB,old,z,./images/BURGEHB.png,,,,,,,,,,,,,,,,,,,,,,,,,,,,,,,,,,,
,,,,,,,,,,,,,,,,,5e7d11401ae8680ca60eed9e,36,2022-02-12_13h30.31.655,lexical_decision_task_DD_L2,2021.2.3,Win32,59.5167242,,,,,,,,,,,0.8445,1,,,,,,,,,,,,,,z,1,0.8445,,,,,,,,-0.299999982,-0.300000024,0,0,0,,0,9,9,96,1,KEAMS,C,old,z,./images/KEAMS.png,,,,,,,,,,,,,,,,,,,,,,,,,,,,,,,,,,,
,,,,,,,,,,,,,,,,,5e7d11401ae8680ca60eed9e,36,2022-02-12_13h30.31.655,lexical_decision_task_DD_L2,2021.2.3,Win32,59.5167242,,,,,,,,,,,1.0069,1,,,,,,,,,,,,,,z,1,1.0069,,,,,,,,-0.299999982,-0.300000024,0,0,0,,0,10,10,87,1,TRING,C,old,z,./images/TRING.png,,,,,,,,,,,,,,,,,,,,,,,,,,,,,,,,,,,
,,,,,,,,,,,,,,,,,5e7d11401ae8680ca60eed9e,36,2022-02-12_13h30.31.655,lexical_decision_task_DD_L2,2021.2.3,Win32,59.5167242,,,,,,,,,,,0.7981,1,,,,,,,,,,,,,,m,1,0.7981,,,,,,,,-0.299999982,-0.300000024,0,0,0,,0,11,11,3,1,FINGER,HB,old,m,./images/FINGERHB.png,,,,,,,,,,,,,,,,,,,,,,,,,,,,,,,,,,,
,,,,,,,,,,,,,,,,,5e7d11401ae8680ca60eed9e,36,2022-02-12_13h30.31.655,lexical_decision_task_DD_L2,2021.2.3,Win32,59.5167242,,,,,,,,,,,0.7564,1,,,,,,,,,,,,,,m,1,0.7564,,,,,,,,-0.299999982,-0.300000024,0,0,0,,0,12,12,20,1,CRADLE,C,old,m,./images/CRADLE.png,,,,,,,,,,,,,,,,,,,,,,,,,,,,,,,,,,,
,,,,,,,,,,,,,,,,,5e7d11401ae8680ca60eed9e,36,2022-02-12_13h30.31.655,lexical_decision_task_DD_L2,2021.2.3,Win32,59.5167242,,,,,,,,,,,1.9549,1,,,,,,,,,,,,,,z,1,1.9549,,,,,,,,-0.299999982,-0.300000024,0,0,0,,0,13,13,106,1,CLUMS,HB,old,z,./images/CLUMSHB.png,,,,,,,,,,,,,,,,,,,,,,,,,,,,,,,,,,,
,,,,,,,,,,,,,,,,,5e7d11401ae8680ca60eed9e,36,2022-02-12_13h30.31.655,lexical_decision_task_DD_L2,2021.2.3,Win32,59.5167242,,,,,,,,,,,1.3408,1,,,,,,,,,,,,,,z,1,1.3408,,,,,,,,-0.386111096,-0.311111135,0,0,0,,0,14,14,142,1,PLASK,HB,old,z,./images/PLASKHB.png,,,,,,,,,,,,,,,,,,,,,,,,,,,,,,,,,,,
,,,,,,,,,,,,,,,,,5e7d11401ae8680ca60eed9e,36,2022-02-12_13h30.31.655,lexical_decision_task_DD_L2,2021.2.3,Win32,59.5167242,,,,,,,,,,,1.7148,1,,,,,,,,,,,,,,z,1,1.7148,,,,,,,,-0.401851837,-0.312963044,0,0,0,,0,15,15,91,1,SHENS,HB,old,z,./images/SHENSHB.png,,,,,,,,,,,,,,,,,,,,,,,,,,,,,,,,,,,
,,,,,,,,,,,,,,,,,5e7d11401ae8680ca60eed9e,36,2022-02-12_13h30.31.655,lexical_decision_task_DD_L2,2021.2.3,Win32,59.5167242,,,,,,,,,,,1.0192,1,,,,,,,,,,,,,,z,1,1.0192,,,,,,,,-0.4657407,-0.272222245,0,0,0,,0,16,16,149,1,VEASE,LB,old,z,./images/VEASELB.png,,,,,,,,,,,,,,,,,,,,,,,,,,,,,,,,,,,
,,,,,,,,,,,,,,,,,5e7d11401ae8680ca60eed9e,36,2022-02-12_13h30.31.655,lexical_decision_task_DD_L2,2021.2.3,Win32,59.5167242,,,,,,,,,,,2.0832,1,,,,,,,,,,,,,,z,1,2.0832,,,,,,,,-0.4657407,-0.272222245,0,0,0,,0,17,17,127,1,NINDY,HB,old,z,./images/NINDYHB.png,,,,,,,,,,,,,,,,,,,,,,,,,,,,,,,,,,,
,,,,,,,,,,,,,,,,,5e7d11401ae8680ca60eed9e,36,2022-02-12_13h30.31.655,lexical_decision_task_DD_L2,2021.2.3,Win32,59.5167242,,,,,,,,,,,0.9639,1,,,,,,,,,,,,,,z,1,0.9639,,,,,,,,-0.533333323,-0.26574082,0,0,0,,0,18,18,165,1,TROWN,C,old,z,./images/TROWN.png,,,,,,,,,,,,,,,,,,,,,,,,,,,,,,,,,,,
,,,,,,,,,,,,,,,,,5e7d11401ae8680ca60eed9e,36,2022-02-12_13h30.31.655,lexical_decision_task_DD_L2,2021.2.3,Win32,59.5167242,,,,,,,,,,,1.2832,1,,,,,,,,,,,,,,m,1,1.2832,,,,,,,,-0.533333323,-0.26574082,0,0,0,,0,19,19,51,1,ONION,HB,old,m,./images/ONIONHB.png,,,,,,,,,,,,,,,,,,,,,,,,,,,,,,,,,,,
,,,,,,,,,,,,,,,,,5e7d11401ae8680ca60eed9e,36,2022-02-12_13h30.31.655,lexical_decision_task_DD_L2,2021.2.3,Win32,59.5167242,,,,,,,,,,,1.0776,1,,,,,,,,,,,,,,m,1,1.0776,,,,,,,,-0.533333323,-0.26574082,0,0,0,,0,20,20,42,1,FOLDER,HB,old,m,./images/FOLDERHB.png,,,,,,,,,,,,,,,,,,,,,,,,,,,,,,,,,,,
,,,,,,,,,,,,,,,,,5e7d11401ae8680ca60eed9e,36,2022-02-12_13h30.31.655,lexical_decision_task_DD_L2,2021.2.3,Win32,59.5167242,,,,,,,,,,,1.8412,1,,,,,,,,,,,,,,z,1,1.8412,,,,,,,,-0.533333323,-0.26574082,0,0,0,,0,21,21,133,1,POWDY,HB,old,z,./images/POWDYHB.png,,,,,,,,,,,,,,,,,,,,,,,,,,,,,,,,,,,
,,,,,,,,,,,,,,,,,5e7d11401ae8680ca60eed9e,36,2022-02-12_13h30.31.655,lexical_decision_task_DD_L2,2021.2.3,Win32,59.5167242,,,,,,,,,,,1.4072,1,,,,,,,,,,,,,,z,1,1.4072,,,,,,,,-0.533333323,-0.26574082,0,0,0,,0,22,22,105,1,MOKER,C,old,z,./images/MOKER.png,,,,,,,,,,,,,,,,,,,,,,,,,,,,,,,,,,,
,,,,,,,,,,,,,,,,,5e7d11401ae8680ca60eed9e,36,2022-02-12_13h30.31.655,lexical_decision_task_DD_L2,2021.2.3,Win32,59.5167242,,,,,,,,,,,1.2386,1,,,,,,,,,,,,,,z,1,1.2386,,,,,,,,-0.533333323,-0.26574082,0,0,0,,0,23,23,150,1,NOOLS,C,old,z,./images/NOOLS.png,,,,,,,,,,,,,,,,,,,,,,,,,,,,,,,,,,,
,,,,,,,,,,,,,,,,,5e7d11401ae8680ca60eed9e,36,2022-02-12_13h30.31.655,lexical_decision_task_DD_L2,2021.2.3,Win32,59.5167242,,,,,,,,,,,0.8305,1,,,,,,,,,,,,,,z,1,0.8305,,,,,,,,-0.533333323,-0.26574082,0,0,0,,0,24,24,102,1,DULLE,C,old,z,./images/DULLE.png,,,,,,,,,,,,,,,,,,,,,,,,,,,,,,,,,,,
,,,,,,,,,,,,,,,,,5e7d11401ae8680ca60eed9e,36,2022-02-12_13h30.31.655,lexical_decision_task_DD_L2,2021.2.3,Win32,59.5167242,,,,,,,,,,,0.9342,1,,,,,,,,,,,,,,z,1,0.9342,,,,,,,,-0.713888884,-0.271296376,0,0,0,,0,25,25,98,1,BAMPS,LB,old,z,./images/BAMPSLB.png,,,,,,,,,,,,,,,,,,,,,,,,,,,,,,,,,,,
,,,,,,,,,,,,,,,,,5e7d11401ae8680ca60eed9e,36,2022-02-12_13h30.31.655,lexical_decision_task_DD_L2,2021.2.3,Win32,59.5167242,,,,,,,,,,,0.886,1,,,,,,,,,,,,,,z,1,0.886,,,,,,,,-0.71481481,-0.269444467,0,0,0,,0,26,26,135,1,JOODY,C,old,z,./images/JOODY.png,,,,,,,,,,,,,,,,,,,,,,,,,,,,,,,,,,,
,,,,,,,,,,,,,,,,,5e7d11401ae8680ca60eed9e,36,2022-02-12_13h30.31.655,lexical_decision_task_DD_L2,2021.2.3,Win32,59.5167242,,,,,,,,,,,0.8413,0,,,,,,,,,,,,,,z,0,0.8413,,,,,,,,-0.71481481,-0.269444467,0,0,0,,0,27,27,80,1,WEASEL,C,old,m,./images/WEASEL.png,,,,,,,,,,,,,,,,,,,,,,,,,,,,,,,,,,,
,,,,,,,,,,,,,,,,,5e7d11401ae8680ca60eed9e,36,2022-02-12_13h30.31.655,lexical_decision_task_DD_L2,2021.2.3,Win32,59.5167242,,,,,,,,,,,0.8675,1,,,,,,,,,,,,,,z,1,0.8675,,,,,,,,-0.71481481,-0.269444467,0,0,0,,0,28,28,145,1,LAMEL,HB,old,z,./images/LAMELHB.png,,,,,,,,,,,,,,,,,,,,,,,,,,,,,,,,,,,
,,,,,,,,,,,,,,,,,5e7d11401ae8680ca60eed9e,36,2022-02-12_13h30.31.655,lexical_decision_task_DD_L2,2021.2.3,Win32,59.5167242,,,,,,,,,,,0.7713,1,,,,,,,,,,,,,,z,1,0.7713,,,,,,,,-0.71481481,-0.271296376,0,0,0,,0,29,29,114,1,RIKES,C,old,z,./images/RIKES.png,,,,,,,,,,,,,,,,,,,,,,,,,,,,,,,,,,,
,,,,,,,,,,,,,,,,,5e7d11401ae8680ca60eed9e,36,2022-02-12_13h30.31.655,lexical_decision_task_DD_L2,2021.2.3,Win32,59.5167242,,,,,,,,,,,0.8496,0,,,,,,,,,,,,,,z,0,0.8496,,,,,,,,-0.71481481,-0.271296376,0,0,0,,0,30,30,43,1,MOSQUE,LB,old,m,./images/MOSQUELB.png,,,,,,,,,,,,,,,,,,,,,,,,,,,,,,,,,,,
,,,,,,,,,,,,,,,,,5e7d11401ae8680ca60eed9e,36,2022-02-12_13h30.31.655,lexical_decision_task_DD_L2,2021.2.3,Win32,59.5167242,,,,,,,,,,,0.976,1,,,,,,,,,,,,,,z,1,0.976,,,,,,,,-0.71481481,-0.271296376,0,0,0,,0,31,31,117,1,STEEG,C,old,z,./images/STEEG.png,,,,,,,,,,,,,,,,,,,,,,,,,,,,,,,,,,,
,,,,,,,,,,,,,,,,,5e7d11401ae8680ca60eed9e,36,2022-02-12_13h30.31.655,lexical_decision_task_DD_L2,2021.2.3,Win32,59.5167242,,,,,,,,,,,1.0797,1,,,,,,,,,,,,,,m,1,1.0797,,,,,,,,-0.71481481,-0.271296376,0,0,0,,0,32,32,44,1,LIZARD,C,old,m,./images/LIZARD.png,,,,,,,,,,,,,,,,,,,,,,,,,,,,,,,,,,,
,,,,,,,,,,,,,,,,,5e7d11401ae8680ca60eed9e,36,2022-02-12_13h30.31.655,lexical_decision_task_DD_L2,2021.2.3,Win32,59.5167242,,,,,,,,,,,0.6823,1,,,,,,,,,,,,,,m,1,0.6823,,,,,,,,-0.71481481,-0.271296376,0,0,0,,0,33,33,7,1,PAINT,LB,old,m,./images/PAINTLB.png,,,,,,,,,,,,,,,,,,,,,,,,,,,,,,,,,,,
,,,,,,,,,,,,,,,,,5e7d11401ae8680ca60eed9e,36,2022-02-12_13h30.31.655,lexical_decision_task_DD_L2,2021.2.3,Win32,59.5167242,,,,,,,,,,,1.2536,1,,,,,,,,,,,,,,m,1,1.2536,,,,,,,,-0.71481481,-0.271296376,0,0,0,,0,34,34,18,1,JAGUAR,HB,old,m,./images/JAGUARHB.png,,,,,,,,,,,,,,,,,,,,,,,,,,,,,,,,,,,
,,,,,,,,,,,,,,,,,5e7d11401ae8680ca60eed9e,36,2022-02-12_13h30.31.655,lexical_decision_task_DD_L2,2021.2.3,Win32,59.5167242,,,,,,,,,,,4.3169,1,,,,,,,,,,,,,,z,1,4.3169,,,,,,,,-0.71481481,-0.271296376,0,0,0,,0,35,35,148,1,JOMS,HB,old,z,./images/JOMSHB.png,,,,,,,,,,,,,,,,,,,,,,,,,,,,,,,,,,,
,,,,,,,,,,,,,,,,,5e7d11401ae8680ca60eed9e,36,2022-02-12_13h30.31.655,lexical_decision_task_DD_L2,2021.2.3,Win32,59.5167242,,,,,,,,,,,1.2911,1,,,,,,,,,,,,,,m,1,1.2911,,,,,,,,-0.71481481,-0.271296376,0,0,0,,0,36,36,13,1,MOTOR,LB,old,m,./images/MOTORLB.png,,,,,,,,,,,,,,,,,,,,,,,,,,,,,,,,,,,
,,,,,,,,,,,,,,,,,5e7d11401ae8680ca60eed9e,36,2022-02-12_13h30.31.655,lexical_decision_task_DD_L2,2021.2.3,Win32,59.5167242,,,,,,,,,,,1.2822,1,,,,,,,,,,,,,,z,1,1.2822,,,,,,,,-0.71481481,-0.271296376,0,0,0,,0,37,37,115,1,MAWNS,HB,old,z,./images/MAWNSHB.png,,,,,,,,,,,,,,,,,,,,,,,,,,,,,,,,,,,
,,,,,,,,,,,,,,,,,5e7d11401ae8680ca60eed9e,36,2022-02-12_13h30.31.655,lexical_decision_task_DD_L2,2021.2.3,Win32,59.5167242,,,,,,,,,,,1.347,1,,,,,,,,,,,,,,z,1,1.347,,,,,,,,-0.71481481,-0.271296376,0,0,0,,0,38,38,143,1,MONGS,LB,old,z,./images/MONGSLB.png,,,,,,,,,,,,,,,,,,,,,,,,,,,,,,,,,,,
,,,,,,,,,,,,,,,,,5e7d11401ae8680ca60eed9e,36,2022-02-12_13h30.31.655,lexical_decision_task_DD_L2,2021.2.3,Win32,59.5167242,,,,,,,,,,,1.1757,1,,,,,,,,,,,,,,m,1,1.1757,,,,,,,,-0.71481481,-0.271296376,0,0,0,,0,39,39,56,1,PACKET,C,old,m,./images/PACKET.png,,,,,,,,,,,,,,,,,,,,,,,,,,,,,,,,,,,
,,,,,,,,,,,,,,,,,5e7d11401ae8680ca60eed9e,36,2022-02-12_13h30.31.655,lexical_decision_task_DD_L2,2021.2.3,Win32,59.5167242,,,,,,,,,,,1.138,1,,,,,,,,,,,,,,z,1,1.138,,,,,,,,-0.71481481,-0.271296376,0,0,0,,0,40,40,138,1,PLICE,C,old,z,./images/PLICE.png,,,,,,,,,,,,,,,,,,,,,,,,,,,,,,,,,,,
,,,,,,,,,,,,,,,,,5e7d11401ae8680ca60eed9e,36,2022-02-12_13h30.31.655,lexical_decision_task_DD_L2,2021.2.3,Win32,59.5167242,,,,,,,,,,,1.1996,1,,,,,,,,,,,,,,z,1,1.1996,,,,,,,,-0.71481481,-0.271296376,0,0,0,space,0,41,41,90,1,NEAST,C,old,z,./images/NEAST.png,14.4946,,,,,,,,,,,,,,,,,,,,,,,,,,,,,,,,,,
,,,,,,,,,,,,,,,,,5e7d11401ae8680ca60eed9e,36,2022-02-12_13h30.31.655,lexical_decision_task_DD_L2,2021.2.3,Win32,59.5167242,,,,,,,,,,,1.906,1,,,,,,,,,,,,,,z,1,1.906,,,,,,,,-0.71481481,-0.271296376,0,0,0,,0,42,42,93,1,SMONE,C,old,z,./images/SMONE.png,,,,,,,,,,,,,,,,,,,,,,,,,,,,,,,,,,,
,,,,,,,,,,,,,,,,,5e7d11401ae8680ca60eed9e,36,2022-02-12_13h30.31.655,lexical_decision_task_DD_L2,2021.2.3,Win32,59.5167242,,,,,,,,,,,1.6473,1,,,,,,,,,,,,,,m,1,1.6473,,,,,,,,-0.71481481,-0.271296376,0,0,0,,0,43,43,48,1,SPORT,HB,old,m,./images/SPORTHB.png,,,,,,,,,,,,,,,,,,,,,,,,,,,,,,,,,,,
,,,,,,,,,,,,,,,,,5e7d11401ae8680ca60eed9e,36,2022-02-12_13h30.31.655,lexical_decision_task_DD_L2,2021.2.3,Win32,59.5167242,,,,,,,,,,,1.0577,1,,,,,,,,,,,,,,z,1,1.0577,,,,,,,,-0.798148145,-0.231481503,0,0,0,,0,44,44,119,1,PAFER,LB,old,z,./images/PAFERLB.png,,,,,,,,,,,,,,,,,,,,,,,,,,,,,,,,,,,
,,,,,,,,,,,,,,,,,5e7d11401ae8680ca60eed9e,36,2022-02-12_13h30.31.655,lexical_decision_task_DD_L2,2021.2.3,Win32,59.5167242,,,,,,,,,,,0.9399,1,,,,,,,,,,,,,,z,1,0.9399,,,,,,,,-0.853703703,-0.191666687,0,0,0,,0,45,45,123,1,SEDGE,C,old,z,./images/SEDGE.png,,,,,,,,,,,,,,,,,,,,,,,,,,,,,,,,,,,
,,,,,,,,,,,,,,,,,5e7d11401ae8680ca60eed9e,36,2022-02-12_13h30.31.655,lexical_decision_task_DD_L2,2021.2.3,Win32,59.5167242,,,,,,,,,,,0.9387,1,,,,,,,,,,,,,,m,1,0.9387,,,,,,,,-0.850925925,-0.191666687,0,0,0,,0,46,46,35,1,PEACH,C,old,m,./images/PEACH.png,,,,,,,,,,,,,,,,,,,,,,,,,,,,,,,,,,,
,,,,,,,,,,,,,,,,,5e7d11401ae8680ca60eed9e,36,2022-02-12_13h30.31.655,lexical_decision_task_DD_L2,2021.2.3,Win32,59.5167242,,,,,,,,,,,1.0799,1,,,,,,,,,,,,,,z,1,1.0799,,,,,,,,-0.888888889,-0.159259279,0,0,0,,0,47,47,92,1,PAIMS,LB,old,z,./images/PAIMSLB.png,,,,,,,,,,,,,,,,,,,,,,,,,,,,,,,,,,,
,,,,,,,,,,,,,,,,,5e7d11401ae8680ca60eed9e,36,2022-02-12_13h30.31.655,lexical_decision_task_DD_L2,2021.2.3,Win32,59.5167242,,,,,,,,,,,0.9472,1,,,,,,,,,,,,,,m,1,0.9472,,,,,,,,-0.888888889,-0.159259279,0,0,0,,0,48,48,10,1,BELLY,LB,old,m,./images/BELLYLB.png,,,,,,,,,,,,,,,,,,,,,,,,,,,,,,,,,,,
,,,,,,,,,,,,,,,,,5e7d11401ae8680ca60eed9e,36,2022-02-12_13h30.31.655,lexical_decision_task_DD_L2,2021.2.3,Win32,59.5167242,,,,,,,,,,,1.4674,0,,,,,,,,,,,,,,z,0,1.4674,,,,,,,,-0.888888889,-0.095370388,0,0,0,,0,49,49,58,1,BABOON,LB,old,m,./images/BABOONLB.png,,,,,,,,,,,,,,,,,,,,,,,,,,,,,,,,,,,
,,,,,,,,,,,,,,,,,5e7d11401ae8680ca60eed9e,36,2022-02-12_13h30.31.655,lexical_decision_task_DD_L2,2021.2.3,Win32,59.5167242,,,,,,,,,,,1.0618,1,,,,,,,,,,,,,,m,1,1.0618,,,,,,,,-0.888888889,-0.095370388,0,0,0,,0,50,50,61,1,CANDLE,LB,old,m,./images/CANDLELB.png,,,,,,,,,,,,,,,,,,,,,,,,,,,,,,,,,,,
,,,,,,,,,,,,,,,,,5e7d11401ae8680ca60eed9e,36,2022-02-12_13h30.31.655,lexical_decision_task_DD_L2,2021.2.3,Win32,59.5167242,,,,,,,,,,,0.6155,1,,,,,,,,,,,,,,m,1,0.6155,,,,,,,,-0.888888889,-0.095370388,0,0,0,,0,51,51,60,1,TWINS,HB,old,m,./images/TWINSHB.png,,,,,,,,,,,,,,,,,,,,,,,,,,,,,,,,,,,
,,,,,,,,,,,,,,,,,5e7d11401ae8680ca60eed9e,36,2022-02-12_13h30.31.655,lexical_decision_task_DD_L2,2021.2.3,Win32,59.5167242,,,,,,,,,,,1.8161,0,,,,,,,,,,,,,,m,0,1.8161,,,,,,,,-0.888888889,-0.095370388,0,0,0,,0,52,52,104,1,GITTY,LB,old,z,./images/GITTYLB.png,,,,,,,,,,,,,,,,,,,,,,,,,,,,,,,,,,,
,,,,,,,,,,,,,,,,,5e7d11401ae8680ca60eed9e,36,2022-02-12_13h30.31.655,lexical_decision_task_DD_L2,2021.2.3,Win32,59.5167242,,,,,,,,,,,1.0089,1,,,,,,,,,,,,,,z,1,1.0089,,,,,,,,-0.888888889,-0.045370387,0,0,0,,0,53,53,84,1,HAXES,C,old,z,./images/HAXES.png,,,,,,,,,,,,,,,,,,,,,,,,,,,,,,,,,,,
,,,,,,,,,,,,,,,,,5e7d11401ae8680ca60eed9e,36,2022-02-12_13h30.31.655,lexical_decision_task_DD_L2,2021.2.3,Win32,59.5167242,,,,,,,,,,,0.9335,1,,,,,,,,,,,,,,m,1,0.9335,,,,,,,,-0.876851851,-0.042592609,0,0,0,,0,54,54,75,1,GRAIN,HB,old,m,./images/GRAINHB.png,,,,,,,,,,,,,,,,,,,,,,,,,,,,,,,,,,,
,,,,,,,,,,,,,,,,,5e7d11401ae8680ca60eed9e,36,2022-02-12_13h30.31.655,lexical_decision_task_DD_L2,2021.2.3,Win32,59.5167242,,,,,,,,,,,1.6601,1,,,,,,,,,,,,,,z,1,1.6601,,,,,,,,-0.888888889,0.025925912,0,0,0,,0,55,55,120,1,RINED,C,old,z,./images/RINED.png,,,,,,,,,,,,,,,,,,,,,,,,,,,,,,,,,,,
,,,,,,,,,,,,,,,,,5e7d11401ae8680ca60eed9e,36,2022-02-12_13h30.31.655,lexical_decision_task_DD_L2,2021.2.3,Win32,59.5167242,,,,,,,,,,,0.9369,1,,,,,,,,,,,,,,m,1,0.9369,,,,,,,,-0.888888889,0.130555545,0,0,0,,0,56,56,2,1,BEARD,C,old,m,./images/BEARD.png,,,,,,,,,,,,,,,,,,,,,,,,,,,,,,,,,,,
,,,,,,,,,,,,,,,,,5e7d11401ae8680ca60eed9e,36,2022-02-12_13h30.31.655,lexical_decision_task_DD_L2,2021.2.3,Win32,59.5167242,,,,,,,,,,,1.1623,1,,,,,,,,,,,,,,z,1,1.1623,,,,,,,,-0.888888889,0.148148138,0,0,0,,0,57,57,112,1,MYING,HB,old,z,./images/MYINGHB.png,,,,,,,,,,,,,,,,,,,,,,,,,,,,,,,,,,,
,,,,,,,,,,,,,,,,,5e7d11401ae8680ca60eed9e,36,2022-02-12_13h30.31.655,lexical_decision_task_DD_L2,2021.2.3,Win32,59.5167242,,,,,,,,,,,0.8496,1,,,,,,,,,,,,,,m,1,0.8496,,,,,,,,-0.605555547,0.077777765,0,0,0,,0,58,58,46,1,PEARL,LB,old,m,./images/PEARLLB.png,,,,,,,,,,,,,,,,,,,,,,,,,,,,,,,,,,,
,,,,,,,,,,,,,,,,,5e7d11401ae8680ca60eed9e,36,2022-02-12_13h30.31.655,lexical_decision_task_DD_L2,2021.2.3,Win32,59.5167242,,,,,,,,,,,1.3003,0,,,,,,,,,,,,,,z,0,1.3003,,,,,,,,-0.605555547,0.077777765,0,0,0,,0,59,59,27,1,ATTIC,HB,old,m,./images/ATTICHB.png,,,,,,,,,,,,,,,,,,,,,,,,,,,,,,,,,,,
,,,,,,,,,,,,,,,,,5e7d11401ae8680ca60eed9e,36,2022-02-12_13h30.31.655,lexical_decision_task_DD_L2,2021.2.3,Win32,59.5167242,,,,,,,,,,,1.2389,1,,,,,,,,,,,,,,m,1,1.2389,,,,,,,,-0.605555547,0.077777765,0,0,0,,0,60,60,17,1,SKIING,C,old,m,./images/SKIING.png,,,,,,,,,,,,,,,,,,,,,,,,,,,,,,,,,,,
,,,,,,,,,,,,,,,,,5e7d11401ae8680ca60eed9e,36,2022-02-12_13h30.31.655,lexical_decision_task_DD_L2,2021.2.3,Win32,59.5167242,,,,,,,,,,,0.6169,1,,,,,,,,,,,,,,m,1,0.6169,,,,,,,,-0.605555547,0.077777765,0,0,0,,0,61,61,71,1,PIMPLE,C,old,m,./images/PIMPLE.png,,,,,,,,,,,,,,,,,,,,,,,,,,,,,,,,,,,
,,,,,,,,,,,,,,,,,5e7d11401ae8680ca60eed9e,36,2022-02-12_13h30.31.655,lexical_decision_task_DD_L2,2021.2.3,Win32,59.5167242,,,,,,,,,,,1.1011,1,,,,,,,,,,,,,,z,1,1.1011,,,,,,,,-0.605555547,0.077777765,0,0,0,,0,62,62,116,1,BALGY,LB,old,z,./images/BALGYLB.png,,,,,,,,,,,,,,,,,,,,,,,,,,,,,,,,,,,
,,,,,,,,,,,,,,,,,5e7d11401ae8680ca60eed9e,36,2022-02-12_13h30.31.655,lexical_decision_task_DD_L2,2021.2.3,Win32,59.5167242,,,,,,,,,,,1.4157,1,,,,,,,,,,,,,,z,1,1.4157,,,,,,,,-0.693518513,0.135185146,0,0,0,,0,63,63,124,1,TUNCH,HB,old,z,./images/TUNCHHB.png,,,,,,,,,,,,,,,,,,,,,,,,,,,,,,,,,,,
,,,,,,,,,,,,,,,,,5e7d11401ae8680ca60eed9e,36,2022-02-12_13h30.31.655,lexical_decision_task_DD_L2,2021.2.3,Win32,59.5167242,,,,,,,,,,,1.9387,1,,,,,,,,,,,,,,m,1,1.9387,,,,,,,,-0.696296291,0.14351848,0,0,0,,0,64,64,16,1,PENCE,LB,old,m,./images/PENCELB.png,,,,,,,,,,,,,,,,,,,,,,,,,,,,,,,,,,,
,,,,,,,,,,,,,,,,,5e7d11401ae8680ca60eed9e,36,2022-02-12_13h30.31.655,lexical_decision_task_DD_L2,2021.2.3,Win32,59.5167242,,,,,,,,,,,0.607,1,,,,,,,,,,,,,,m,1,0.607,,,,,,,,-0.696296291,0.14351848,0,0,0,,0,65,65,6,1,SQUARE,HB,old,m,./images/SQUAREHB.png,,,,,,,,,,,,,,,,,,,,,,,,,,,,,,,,,,,
,,,,,,,,,,,,,,,,,5e7d11401ae8680ca60eed9e,36,2022-02-12_13h30.31.655,lexical_decision_task_DD_L2,2021.2.3,Win32,59.5167242,,,,,,,,,,,1.2821,1,,,,,,,,,,,,,,z,1,1.2821,,,,,,,,-0.696296291,0.14351848,0,0,0,,0,66,66,146,1,MOOST,LB,old,z,./images/MOOSTLB.png,,,,,,,,,,,,,,,,,,,,,,,,,,,,,,,,,,,
,,,,,,,,,,,,,,,,,5e7d11401ae8680ca60eed9e,36,2022-02-12_13h30.31.655,lexical_decision_task_DD_L2,2021.2.3,Win32,59.5167242,,,,,,,,,,,0.955,1,,,,,,,,,,,,,,m,1,0.955,,,,,,,,-0.696296291,0.14351848,0,0,0,,0,67,67,11,1,BONNET,C,old,m,./images/BONNET.png,,,,,,,,,,,,,,,,,,,,,,,,,,,,,,,,,,,
,,,,,,,,,,,,,,,,,5e7d11401ae8680ca60eed9e,36,2022-02-12_13h30.31.655,lexical_decision_task_DD_L2,2021.2.3,Win32,59.5167242,,,,,,,,,,,0.6352,1,,,,,,,,,,,,,,m,1,0.6352,,,,,,,,-0.696296291,0.14351848,0,0,0,,0,68,68,55,1,MUFFIN,LB,old,m,./images/MUFFINLB.png,,,,,,,,,,,,,,,,,,,,,,,,,,,,,,,,,,,
,,,,,,,,,,,,,,,,,5e7d11401ae8680ca60eed9e,36,2022-02-12_13h30.31.655,lexical_decision_task_DD_L2,2021.2.3,Win32,59.5167242,,,,,,,,,,,2.4675,1,,,,,,,,,,,,,,z,1,2.4675,,,,,,,,-0.696296291,0.14351848,0,0,0,,0,69,69,163,1,GAMBA,HB,old,z,./images/GAMBAHB.png,,,,,,,,,,,,,,,,,,,,,,,,,,,,,,,,,,,
,,,,,,,,,,,,,,,,,5e7d11401ae8680ca60eed9e,36,2022-02-12_13h30.31.655,lexical_decision_task_DD_L2,2021.2.3,Win32,59.5167242,,,,,,,,,,,0.6536,1,,,,,,,,,,,,,,m,1,0.6536,,,,,,,,-0.696296291,0.14351848,0,0,0,,0,70,70,4,1,MUSCLE,LB,old,m,./images/MUSCLELB.png,,,,,,,,,,,,,,,,,,,,,,,,,,,,,,,,,,,
,,,,,,,,,,,,,,,,,5e7d11401ae8680ca60eed9e,36,2022-02-12_13h30.31.655,lexical_decision_task_DD_L2,2021.2.3,Win32,59.5167242,,,,,,,,,,,0.8458,1,,,,,,,,,,,,,,m,1,0.8458,,,,,,,,-0.696296291,0.14351848,0,0,0,,0,71,71,23,1,WALRUS,C,old,m,./images/WALRUS.png,,,,,,,,,,,,,,,,,,,,,,,,,,,,,,,,,,,
,,,,,,,,,,,,,,,,,5e7d11401ae8680ca60eed9e,36,2022-02-12_13h30.31.655,lexical_decision_task_DD_L2,2021.2.3,Win32,59.5167242,,,,,,,,,,,0.6846,1,,,,,,,,,,,,,,m,1,0.6846,,,,,,,,-0.696296291,0.14351848,0,0,0,,0,72,72,21,1,KIDNEY,HB,old,m,./images/KIDNEYHB.png,,,,,,,,,,,,,,,,,,,,,,,,,,,,,,,,,,,
,,,,,,,,,,,,,,,,,5e7d11401ae8680ca60eed9e,36,2022-02-12_13h30.31.655,lexical_decision_task_DD_L2,2021.2.3,Win32,59.5167242,,,,,,,,,,,0.4752,1,,,,,,,,,,,,,,m,1,0.4752,,,,,,,,-0.696296291,0.14351848,0,0,0,,0,73,73,73,1,SNACK,LB,old,m,./images/SNACKLB.png,,,,,,,,,,,,,,,,,,,,,,,,,,,,,,,,,,,
,,,,,,,,,,,,,,,,,5e7d11401ae8680ca60eed9e,36,2022-02-12_13h30.31.655,lexical_decision_task_DD_L2,2021.2.3,Win32,59.5167242,,,,,,,,,,,2.1523,0,,,,,,,,,,,,,,z,0,2.1523,,,,,,,,-0.696296291,0.14351848,0,0,0,,0,74,74,28,1,FALCON,LB,old,m,./images/FALCONLB.png,,,,,,,,,,,,,,,,,,,,,,,,,,,,,,,,,,,
,,,,,,,,,,,,,,,,,5e7d11401ae8680ca60eed9e,36,2022-02-12_13h30.31.655,lexical_decision_task_DD_L2,2021.2.3,Win32,59.5167242,,,,,,,,,,,1.4942,1,,,,,,,,,,,,,,z,1,1.4942,,,,,,,,-0.829629628,0.192592583,0,0,0,,0,75,75,159,1,CUDDY,C,old,z,./images/CUDDY.png,,,,,,,,,,,,,,,,,,,,,,,,,,,,,,,,,,,
,,,,,,,,,,,,,,,,,5e7d11401ae8680ca60eed9e,36,2022-02-12_13h30.31.655,lexical_decision_task_DD_L2,2021.2.3,Win32,59.5167242,,,,,,,,,,,1.229,1,,,,,,,,,,,,,,z,1,1.229,,,,,,,,-0.83611111,0.191666657,0,0,0,,0,76,76,155,1,CANGY,LB,old,z,./images/CANGYLB.png,,,,,,,,,,,,,,,,,,,,,,,,,,,,,,,,,,,
,,,,,,,,,,,,,,,,,5e7d11401ae8680ca60eed9e,36,2022-02-12_13h30.31.655,lexical_decision_task_DD_L2,2021.2.3,Win32,59.5167242,,,,,,,,,,,1.1943,1,,,,,,,,,,,,,,z,1,1.1943,,,,,,,,-0.83611111,0.191666657,0,0,0,,0,77,77,97,1,CHIDS,HB,old,z,./images/CHIDSHB.png,,,,,,,,,,,,,,,,,,,,,,,,,,,,,,,,,,,
,,,,,,,,,,,,,,,,,5e7d11401ae8680ca60eed9e,36,2022-02-12_13h30.31.655,lexical_decision_task_DD_L2,2021.2.3,Win32,59.5167242,,,,,,,,,,,0.9468,1,,,,,,,,,,,,,,z,1,0.9468,,,,,,,,-0.83611111,0.191666657,0,0,0,,0,78,78,128,1,GRIFT,LB,old,z,./images/GRIFTLB.png,,,,,,,,,,,,,,,,,,,,,,,,,,,,,,,,,,,
,,,,,,,,,,,,,,,,,5e7d11401ae8680ca60eed9e,36,2022-02-12_13h30.31.655,lexical_decision_task_DD_L2,2021.2.3,Win32,59.5167242,,,,,,,,,,,1.035,1,,,,,,,,,,,,,,z,1,1.035,,,,,,,,-0.888888889,0.250925919,0,0,0,,0,79,79,101,1,GLEET,LB,old,z,./images/GLEETLB.png,,,,,,,,,,,,,,,,,,,,,,,,,,,,,,,,,,,
,,,,,,,,,,,,,,,,,5e7d11401ae8680ca60eed9e,36,2022-02-12_13h30.31.655,lexical_decision_task_DD_L2,2021.2.3,Win32,59.5167242,,,,,,,,,,,0.9134,1,,,,,,,,,,,,,,z,1,0.9134,,,,,,,,-0.888888889,0.262962956,0,0,0,,0,80,80,121,1,CEERS,HB,old,z,./images/CEERSHB.png,,,,,,,,,,,,,,,,,,,,,,,,,,,,,,,,,,,
,,,,,,,,,,,,,,,,,5e7d11401ae8680ca60eed9e,36,2022-02-12_13h30.31.655,lexical_decision_task_DD_L2,2021.2.3,Win32,59.5167242,,,,,,,,,,,1.5734,1,,,,,,,,,,,,,,m,1,1.5734,,,,,,,,-0.757407403,0.142592582,0,0,0,,0,81,81,70,1,URINE,LB,old,m,./images/URINELB.png,,,,,,,,,,,,,,,,,,,,,,,,,,,,,,,,,,,
,,,,,,,,,,,,,,,,,5e7d11401ae8680ca60eed9e,36,2022-02-12_13h30.31.655,lexical_decision_task_DD_L2,2021.2.3,Win32,59.5167242,,,,,,,,,,,1.0785,1,,,,,,,,,,,,,,z,1,1.0785,,,,,,,,-0.851851851,0.255555548,0,0,0,,0,82,82,141,1,PLEET,C,old,z,./images/PLEET.png,,,,,,,,,,,,,,,,,,,,,,,,,,,,,,,,,,,
,,,,,,,,,,,,,,,,,5e7d11401ae8680ca60eed9e,36,2022-02-12_13h30.31.655,lexical_decision_task_DD_L2,2021.2.3,Win32,59.5167242,,,,,,,,,,,0.7277,1,,,,,,,,,,,,,,m,1,0.7277,,,,,,,,-0.866666666,0.284259239,0,0,0,space,0,83,83,67,1,SAILOR,LB,old,m,./images/SAILORLB.png,1.071,,,,,,,,,,,,,,,,,,,,,,,,,,,,,,,,,,
,,,,,,,,,,,,,,,,,5e7d11401ae8680ca60eed9e,36,2022-02-12_13h30.31.655,lexical_decision_task_DD_L2,2021.2.3,Win32,59.5167242,,,,,,,,,,,1.8333,1,,,,,,,,,,,,,,z,1,1.8333,-0.866666666,0.284259239,1,0,0,1.384,,-0.866666666,0.284259239,0,0,0,,0,84,84,158,1,EGECT,LB,old,z,./images/EGECTLB.png,,,,,,,,,,,,,,,,,,,,,,,,,,,,,,,,,,,
,,,,,,,,,,,,,,,,,5e7d11401ae8680ca60eed9e,36,2022-02-12_13h30.31.655,lexical_decision_task_DD_L2,2021.2.3,Win32,59.5167242,,,,,,,,,,,1.0339,1,,,,,,,,,,,,,,m,1,1.0339,,,,,,,,-0.838888887,0.248148141,0,0,0,,0,85,85,19,1,DOUGH,LB,old,m,./images/DOUGHLB.png,,,,,,,,,,,,,,,,,,,,,,,,,,,,,,,,,,,
,,,,,,,,,,,,,,,,,5e7d11401ae8680ca60eed9e,36,2022-02-12_13h30.31.655,lexical_decision_task_DD_L2,2021.2.3,Win32,59.5167242,,,,,,,,,,,0.6336,1,,,,,,,,,,,,,,m,1,0.6336,,,,,,,,-0.838888887,0.248148141,0,0,0,,0,86,86,22,1,MELON,LB,old,m,./images/MELONLB.png,,,,,,,,,,,,,,,,,,,,,,,,,,,,,,,,,,,
,,,,,,,,,,,,,,,,,5e7d11401ae8680ca60eed9e,36,2022-02-12_13h30.31.655,lexical_decision_task_DD_L2,2021.2.3,Win32,59.5167242,,,,,,,,,,,1.2038,1,,,,,,,,,,,,,,z,1,1.2038,,,,,,,,-0.838888887,0.248148141,0,0,0,,0,87,87,160,1,VEETS,HB,old,z,./images/VEETSHB.png,,,,,,,,,,,,,,,,,,,,,,,,,,,,,,,,,,,
,,,,,,,,,,,,,,,,,5e7d11401ae8680ca60eed9e,36,2022-02-12_13h30.31.655,lexical_decision_task_DD_L2,2021.2.3,Win32,59.5167242,,,,,,,,,,,3.5187,1,,,,,,,,,,,,,,z,1,3.5187,,,,,,,,-0.838888887,0.248148141,0,0,0,,0,88,88,136,1,WERVE,HB,old,z,./images/WERVEHB.png,,,,,,,,,,,,,,,,,,,,,,,,,,,,,,,,,,,
,,,,,,,,,,,,,,,,,5e7d11401ae8680ca60eed9e,36,2022-02-12_13h30.31.655,lexical_decision_task_DD_L2,2021.2.3,Win32,59.5167242,,,,,,,,,,,0.7816,1,,,,,,,,,,,,,,m,1,0.7816,,,,,,,,-0.838888887,0.248148141,0,0,0,,0,89,89,47,1,BERRY,C,old,m,./images/BERRY.png,,,,,,,,,,,,,,,,,,,,,,,,,,,,,,,,,,,
,,,,,,,,,,,,,,,,,5e7d11401ae8680ca60eed9e,36,2022-02-12_13h30.31.655,lexical_decision_task_DD_L2,2021.2.3,Win32,59.5167242,,,,,,,,,,,0.7534,1,,,,,,,,,,,,,,m,1,0.7534,,,,,,,,-0.838888887,0.248148141,0,0,0,,0,90,90,0,1,TOMATO,HB,old,m,./images/TOMATOHB.png,,,,,,,,,,,,,,,,,,,,,,,,,,,,,,,,,,,
,,,,,,,,,,,,,,,,,5e7d11401ae8680ca60eed9e,36,2022-02-12_13h30.31.655,lexical_decision_task_DD_L2,2021.2.3,Win32,59.5167242,,,,,,,,,,,1.7135,1,,,,,,,,,,,,,,z,1,1.7135,,,,,,,,-0.838888887,0.248148141,0,0,0,,0,91,91,166,1,SHORY,HB,old,z,./images/SHORYHB.png,,,,,,,,,,,,,,,,,,,,,,,,,,,,,,,,,,,
,,,,,,,,,,,,,,,,,5e7d11401ae8680ca60eed9e,36,2022-02-12_13h30.31.655,lexical_decision_task_DD_L2,2021.2.3,Win32,59.5167242,,,,,,,,,,,1.894,1,,,,,,,,,,,,,,m,1,1.894,,,,,,,,-0.838888887,0.248148141,0,0,0,,0,92,92,65,1,FARMER,C,old,m,./images/FARMER.png,,,,,,,,,,,,,,,,,,,,,,,,,,,,,,,,,,,
,,,,,,,,,,,,,,,,,5e7d11401ae8680ca60eed9e,36,2022-02-12_13h30.31.655,lexical_decision_task_DD_L2,2021.2.3,Win32,59.5167242,,,,,,,,,,,0.8215,1,,,,,,,,,,,,,,m,1,0.8215,,,,,,,,-0.838888887,0.248148141,0,0,0,,0,93,93,14,1,PICKLE,C,old,m,./images/PICKLE.png,,,,,,,,,,,,,,,,,,,,,,,,,,,,,,,,,,,
,,,,,,,,,,,,,,,,,5e7d11401ae8680ca60eed9e,36,2022-02-12_13h30.31.655,lexical_decision_task_DD_L2,2021.2.3,Win32,59.5167242,,,,,,,,,,,1.6049,1,,,,,,,,,,,,,,m,1,1.6049,,,,,,,,-0.838888887,0.248148141,0,0,0,,0,94,94,81,1,POODLE,HB,old,m,./images/POODLEHB.png,,,,,,,,,,,,,,,,,,,,,,,,,,,,,,,,,,,
,,,,,,,,,,,,,,,,,5e7d11401ae8680ca60eed9e,36,2022-02-12_13h30.31.655,lexical_decision_task_DD_L2,2021.2.3,Win32,59.5167242,,,,,,,,,,,0.8411,1,,,,,,,,,,,,,,m,1,0.8411,,,,,,,,-0.838888887,0.248148141,0,0,0,,0,95,95,31,1,QUILL,LB,old,m,./images/QUILLLB.png,,,,,,,,,,,,,,,,,,,,,,,,,,,,,,,,,,,
,,,,,,,,,,,,,,,,,5e7d11401ae8680ca60eed9e,36,2022-02-12_13h30.31.655,lexical_decision_task_DD_L2,2021.2.3,Win32,59.5167242,,,,,,,,,,,1.4587,1,,,,,,,,,,,,,,z,1,1.4587,,,,,,,,-0.838888887,0.248148141,0,0,0,,0,96,96,154,1,THINT,HB,old,z,./images/THINTHB.png,,,,,,,,,,,,,,,,,,,,,,,,,,,,,,,,,,,
,,,,,,,,,,,,,,,,,5e7d11401ae8680ca60eed9e,36,2022-02-12_13h30.31.655,lexical_decision_task_DD_L2,2021.2.3,Win32,59.5167242,,,,,,,,,,,1.0418,1,,,,,,,,,,,,,,m,1,1.0418,,,,,,,,-0.838888887,0.248148141,0,0,0,,0,97,97,9,1,RHINO,HB,old,m,./images/RHINOHB.png,,,,,,,,,,,,,,,,,,,,,,,,,,,,,,,,,,,
,,,,,,,,,,,,,,,,,5e7d11401ae8680ca60eed9e,36,2022-02-12_13h30.31.655,lexical_decision_task_DD_L2,2021.2.3,Win32,59.5167242,,,,,,,,,,,1.3818,1,,,,,,,,,,,,,,z,1,1.3818,,,,,,,,-0.838888887,0.248148141,0,0,0,,0,98,98,85,1,CHULK,HB,old,z,./images/CHULKHB.png,,,,,,,,,,,,,,,,,,,,,,,,,,,,,,,,,,,
,,,,,,,,,,,,,,,,,5e7d11401ae8680ca60eed9e,36,2022-02-12_13h30.31.655,lexical_decision_task_DD_L2,2021.2.3,Win32,59.5167242,,,,,,,,,,,1.2514,1,,,,,,,,,,,,,,z,1,1.2514,,,,,,,,-0.888888889,0.287037017,0,0,0,,0,99,99,152,1,FRAIN,LB,old,z,./images/FRAINLB.png,,,,,,,,,,,,,,,,,,,,,,,,,,,,,,,,,,,
,,,,,,,,,,,,,,,,,5e7d11401ae8680ca60eed9e,36,2022-02-12_13h30.31.655,lexical_decision_task_DD_L2,2021.2.3,Win32,59.5167242,,,,,,,,,,,1.4694,1,,,,,,,,,,,,,,m,1,1.4694,,,,,,,,-0.888888889,0.287037017,0,0,0,,0,100,100,12,1,SHORE,HB,old,m,./images/SHOREHB.png,,,,,,,,,,,,,,,,,,,,,,,,,,,,,,,,,,,
,,,,,,,,,,,,,,,,,5e7d11401ae8680ca60eed9e,36,2022-02-12_13h30.31.655,lexical_decision_task_DD_L2,2021.2.3,Win32,59.5167242,,,,,,,,,,,0.6687,1,,,,,,,,,,,,,,m,1,0.6687,,,,,,,,-0.888888889,0.287037017,0,0,0,,0,101,101,59,1,BURIAL,C,old,m,./images/BURIAL.png,,,,,,,,,,,,,,,,,,,,,,,,,,,,,,,,,,,
,,,,,,,,,,,,,,,,,5e7d11401ae8680ca60eed9e,36,2022-02-12_13h30.31.655,lexical_decision_task_DD_L2,2021.2.3,Win32,59.5167242,,,,,,,,,,,0.5072,1,,,,,,,,,,,,,,m,1,0.5072,,,,,,,,-0.888888889,0.287037017,0,0,0,,0,102,102,83,1,JUNGLE,C,old,m,./images/JUNGLE.png,,,,,,,,,,,,,,,,,,,,,,,,,,,,,,,,,,,
,,,,,,,,,,,,,,,,,5e7d11401ae8680ca60eed9e,36,2022-02-12_13h30.31.655,lexical_decision_task_DD_L2,2021.2.3,Win32,59.5167242,,,,,,,,,,,1.0223,1,,,,,,,,,,,,,,z,1,1.0223,,,,,,,,-0.888888889,0.287037017,0,0,0,,0,103,103,94,1,BLANS,HB,old,z,./images/BLANSHB.png,,,,,,,,,,,,,,,,,,,,,,,,,,,,,,,,,,,
,,,,,,,,,,,,,,,,,5e7d11401ae8680ca60eed9e,36,2022-02-12_13h30.31.655,lexical_decision_task_DD_L2,2021.2.3,Win32,59.5167242,,,,,,,,,,,2.3458,1,,,,,,,,,,,,,,m,1,2.3458,,,,,,,,-0.888888889,0.287037017,0,0,0,,0,104,104,50,1,MALLET,C,old,m,./images/MALLET.png,,,,,,,,,,,,,,,,,,,,,,,,,,,,,,,,,,,
,,,,,,,,,,,,,,,,,5e7d11401ae8680ca60eed9e,36,2022-02-12_13h30.31.655,lexical_decision_task_DD_L2,2021.2.3,Win32,59.5167242,,,,,,,,,,,0.987,1,,,,,,,,,,,,,,z,1,0.987,,,,,,,,-0.888888889,0.287037017,0,0,0,,0,105,105,122,1,BLOOT,LB,old,z,./images/BLOOTLB.png,,,,,,,,,,,,,,,,,,,,,,,,,,,,,,,,,,,
,,,,,,,,,,,,,,,,,5e7d11401ae8680ca60eed9e,36,2022-02-12_13h30.31.655,lexical_decision_task_DD_L2,2021.2.3,Win32,59.5167242,,,,,,,,,,,0.6089,1,,,,,,,,,,,,,,m,1,0.6089,,,,,,,,-0.888888889,0.287037017,0,0,0,,0,106,106,63,1,MIRROR,HB,old,m,./images/MIRRORHB.png,,,,,,,,,,,,,,,,,,,,,,,,,,,,,,,,,,,
,,,,,,,,,,,,,,,,,5e7d11401ae8680ca60eed9e,36,2022-02-12_13h30.31.655,lexical_decision_task_DD_L2,2021.2.3,Win32,59.5167242,,,,,,,,,,,0.7543,1,,,,,,,,,,,,,,m,1,0.7543,,,,,,,,-0.888888889,0.287037017,0,0,0,,0,107,107,32,1,BARREL,C,old,m,./images/BARREL.png,,,,,,,,,,,,,,,,,,,,,,,,,,,,,,,,,,,
,,,,,,,,,,,,,,,,,5e7d11401ae8680ca60eed9e,36,2022-02-12_13h30.31.655,lexical_decision_task_DD_L2,2021.2.3,Win32,59.5167242,,,,,,,,,,,0.5621,1,,,,,,,,,,,,,,m,1,0.5621,,,,,,,,-0.888888889,0.287037017,0,0,0,,0,108,108,62,1,PURSE,C,old,m,./images/PURSE.png,,,,,,,,,,,,,,,,,,,,,,,,,,,,,,,,,,,
,,,,,,,,,,,,,,,,,5e7d11401ae8680ca60eed9e,36,2022-02-12_13h30.31.655,lexical_decision_task_DD_L2,2021.2.3,Win32,59.5167242,,,,,,,,,,,1.3097,1,,,,,,,,,,,,,,z,1,1.3097,,,,,,,,-0.888888889,0.287037017,0,0,0,,0,109,109,99,1,BACKY,C,old,z,./images/BACKY.png,,,,,,,,,,,,,,,,,,,,,,,,,,,,,,,,,,,
,,,,,,,,,,,,,,,,,5e7d11401ae8680ca60eed9e,36,2022-02-12_13h30.31.655,lexical_decision_task_DD_L2,2021.2.3,Win32,59.5167242,,,,,,,,,,,1.7832,1,,,,,,,,,,,,,,z,1,1.7832,,,,,,,,-0.888888889,0.287037017,0,0,0,,0,110,110,131,1,NACES,LB,old,z,./images/NACESLB.png,,,,,,,,,,,,,,,,,,,,,,,,,,,,,,,,,,,
,,,,,,,,,,,,,,,,,5e7d11401ae8680ca60eed9e,36,2022-02-12_13h30.31.655,lexical_decision_task_DD_L2,2021.2.3,Win32,59.5167242,,,,,,,,,,,1.0278,1,,,,,,,,,,,,,,z,1,1.0278,,,,,,,,-0.888888889,0.287037017,0,0,0,,0,111,111,110,1,CRUNK,LB,old,z,./images/CRUNKLB.png,,,,,,,,,,,,,,,,,,,,,,,,,,,,,,,,,,,
,,,,,,,,,,,,,,,,,5e7d11401ae8680ca60eed9e,36,2022-02-12_13h30.31.655,lexical_decision_task_DD_L2,2021.2.3,Win32,59.5167242,,,,,,,,,,,1.0999,1,,,,,,,,,,,,,,z,1,1.0999,,,,,,,,-0.888888889,0.287037017,0,0,0,,0,112,112,157,1,INLER,HB,old,z,./images/INLERHB.png,,,,,,,,,,,,,,,,,,,,,,,,,,,,,,,,,,,
,,,,,,,,,,,,,,,,,5e7d11401ae8680ca60eed9e,36,2022-02-12_13h30.31.655,lexical_decision_task_DD_L2,2021.2.3,Win32,59.5167242,,,,,,,,,,,1.1513,1,,,,,,,,,,,,,,z,1,1.1513,,,,,,,,-0.888888889,0.317592573,0,0,0,,0,113,113,88,1,GLUSH,HB,old,z,./images/GLUSHHB.png,,,,,,,,,,,,,,,,,,,,,,,,,,,,,,,,,,,
,,,,,,,,,,,,,,,,,5e7d11401ae8680ca60eed9e,36,2022-02-12_13h30.31.655,lexical_decision_task_DD_L2,2021.2.3,Win32,59.5167242,,,,,,,,,,,1.2214,1,,,,,,,,,,,,,,m,1,1.2214,,,,,,,,-0.760185181,0.195370361,0,0,0,,0,114,114,78,1,LITTER,HB,old,m,./images/LITTERHB.png,,,,,,,,,,,,,,,,,,,,,,,,,,,,,,,,,,,
,,,,,,,,,,,,,,,,,5e7d11401ae8680ca60eed9e,36,2022-02-12_13h30.31.655,lexical_decision_task_DD_L2,2021.2.3,Win32,59.5167242,,,,,,,,,,,1.0545,1,,,,,,,,,,,,,,z,1,1.0545,,,,,,,,-0.760185181,0.195370361,0,0,0,,0,115,115,151,1,TINKY,HB,old,z,./images/TINKYHB.png,,,,,,,,,,,,,,,,,,,,,,,,,,,,,,,,,,,
,,,,,,,,,,,,,,,,,5e7d11401ae8680ca60eed9e,36,2022-02-12_13h30.31.655,lexical_decision_task_DD_L2,2021.2.3,Win32,59.5167242,,,,,,,,,,,0.6826,1,,,,,,,,,,,,,,m,1,0.6826,,,,,,,,-0.760185181,0.195370361,0,0,0,,0,116,116,79,1,CRUST,LB,old,m,./images/CRUSTLB.png,,,,,,,,,,,,,,,,,,,,,,,,,,,,,,,,,,,
,,,,,,,,,,,,,,,,,5e7d11401ae8680ca60eed9e,36,2022-02-12_13h30.31.655,lexical_decision_task_DD_L2,2021.2.3,Win32,59.5167242,,,,,,,,,,,0.7333,1,,,,,,,,,,,,,,m,1,0.7333,,,,,,,,-0.760185181,0.195370361,0,0,0,,0,117,117,15,1,GREASE,HB,old,m,./images/GREASEHB.png,,,,,,,,,,,,,,,,,,,,,,,,,,,,,,,,,,,
,,,,,,,,,,,,,,,,,5e7d11401ae8680ca60eed9e,36,2022-02-12_13h30.31.655,lexical_decision_task_DD_L2,2021.2.3,Win32,59.5167242,,,,,,,,,,,0.6345,1,,,,,,,,,,,,,,m,1,0.6345,,,,,,,,-0.760185181,0.195370361,0,0,0,,0,118,118,24,1,SCREW,HB,old,m,./images/SCREWHB.png,,,,,,,,,,,,,,,,,,,,,,,,,,,,,,,,,,,
,,,,,,,,,,,,,,,,,5e7d11401ae8680ca60eed9e,36,2022-02-12_13h30.31.655,lexical_decision_task_DD_L2,2021.2.3,Win32,59.5167242,,,,,,,,,,,1.3563,1,,,,,,,,,,,,,,z,1,1.3563,,,,,,,,-0.760185181,0.195370361,0,0,0,,0,119,119,162,1,LEICH,C,old,z,./images/LEICH.png,,,,,,,,,,,,,,,,,,,,,,,,,,,,,,,,,,,
,,,,,,,,,,,,,,,,,5e7d11401ae8680ca60eed9e,36,2022-02-12_13h30.31.655,lexical_decision_task_DD_L2,2021.2.3,Win32,59.5167242,,,,,,,,,,,1.1064,1,,,,,,,,,,,,,,z,1,1.1064,,,,,,,,-0.888888889,0.281481461,0,0,0,,0,120,120,164,1,SGREW,LB,old,z,./images/SGREWLB.png,,,,,,,,,,,,,,,,,,,,,,,,,,,,,,,,,,,
,,,,,,,,,,,,,,,,,5e7d11401ae8680ca60eed9e,36,2022-02-12_13h30.31.655,lexical_decision_task_DD_L2,2021.2.3,Win32,59.5167242,,,,,,,,,,,4.2338,1,,,,,,,,,,,,,,m,1,4.2338,,,,,,,,-0.888888889,0.312962957,0,0,0,,0,121,121,69,1,COOKER,HB,old,m,./images/COOKERHB.png,,,,,,,,,,,,,,,,,,,,,,,,,,,,,,,,,,,
,,,,,,,,,,,,,,,,,5e7d11401ae8680ca60eed9e,36,2022-02-12_13h30.31.655,lexical_decision_task_DD_L2,2021.2.3,Win32,59.5167242,,,,,,,,,,,1.0036,1,,,,,,,,,,,,,,m,1,1.0036,,,,,,,,-0.888888889,0.312962957,0,0,0,,0,122,122,29,1,CRUMB,C,old,m,./images/CRUMB.png,,,,,,,,,,,,,,,,,,,,,,,,,,,,,,,,,,,
,,,,,,,,,,,,,,,,,5e7d11401ae8680ca60eed9e,36,2022-02-12_13h30.31.655,lexical_decision_task_DD_L2,2021.2.3,Win32,59.5167242,,,,,,,,,,,1.0054,1,,,,,,,,,,,,,,z,1,1.0054,,,,,,,,-0.888888889,0.312962957,0,0,0,,0,123,123,137,1,JOOST,LB,old,z,./images/JOOSTLB.png,,,,,,,,,,,,,,,,,,,,,,,,,,,,,,,,,,,
,,,,,,,,,,,,,,,,,5e7d11401ae8680ca60eed9e,36,2022-02-12_13h30.31.655,lexical_decision_task_DD_L2,2021.2.3,Win32,59.5167242,,,,,,,,,,,1.0956,1,,,,,,,,,,,,,,z,1,1.0956,,,,,,,,-0.888888889,0.337962958,0,0,0,,0,124,124,140,1,DOVET,LB,old,z,./images/DOVETLB.png,,,,,,,,,,,,,,,,,,,,,,,,,,,,,,,,,,,
,,,,,,,,,,,,,,,,,5e7d11401ae8680ca60eed9e,36,2022-02-12_13h30.31.655,lexical_decision_task_DD_L2,2021.2.3,Win32,59.5167242,,,,,,,,,,,1.0707,1,,,,,,,,,,,,,,m,1,1.0707,,,,,,,,-0.888888889,0.337962958,0,0,0,space,0,125,125,34,1,CANYON,LB,old,m,./images/CANYONLB.png,1.0501,,,,,,,,,,,,,,,,,,,,,,,,,,,,,,,,,,
,,,,,,,,,,,,,,,,,5e7d11401ae8680ca60eed9e,36,2022-02-12_13h30.31.655,lexical_decision_task_DD_L2,2021.2.3,Win32,59.5167242,,,,,,,,,,,2.9685,1,,,,,,,,,,,,,,z,1,2.9685,,,,,,,,-0.888888889,0.368518515,0,0,0,,0,126,126,100,1,DRIBS,HB,old,z,./images/DRIBSHB.png,,,,,,,,,,,,,,,,,,,,,,,,,,,,,,,,,,,
,,,,,,,,,,,,,,,,,5e7d11401ae8680ca60eed9e,36,2022-02-12_13h30.31.655,lexical_decision_task_DD_L2,2021.2.3,Win32,59.5167242,,,,,,,,,,,1.0454,0,,,,,,,,,,,,,,z,0,1.0454,,,,,,,,-0.882407407,0.29166666,0,0,0,,0,127,127,33,1,MAGGOT,HB,old,m,./images/MAGGOTHB.png,,,,,,,,,,,,,,,,,,,,,,,,,,,,,,,,,,,
,,,,,,,,,,,,,,,,,5e7d11401ae8680ca60eed9e,36,2022-02-12_13h30.31.655,lexical_decision_task_DD_L2,2021.2.3,Win32,59.5167242,,,,,,,,,,,0.8569,1,,,,,,,,,,,,,,z,1,0.8569,,,,,,,,-0.888888889,0.387962953,0,0,0,,0,128,128,167,1,ZONET,LB,old,z,./images/ZONETLB.png,,,,,,,,,,,,,,,,,,,,,,,,,,,,,,,,,,,
,,,,,,,,,,,,,,,,,5e7d11401ae8680ca60eed9e,36,2022-02-12_13h30.31.655,lexical_decision_task_DD_L2,2021.2.3,Win32,59.5167242,,,,,,,,,,,0.8384,0,,,,,,,,,,,,,,z,0,0.8384,,,,,,,,-0.888888889,0.499074074,0,0,0,,0,129,129,54,1,TRIPOD,HB,old,m,./images/TRIPODHB.png,,,,,,,,,,,,,,,,,,,,,,,,,,,,,,,,,,,
,,,,,,,,,,,,,,,,,5e7d11401ae8680ca60eed9e,36,2022-02-12_13h30.31.655,lexical_decision_task_DD_L2,2021.2.3,Win32,59.5167242,,,,,,,,,,,1.0892,1,,,,,,,,,,,,,,z,1,1.0892,,,,,,,,-0.888888889,0.49074074,0,0,0,,0,130,130,126,1,GUELS,C,old,z,./images/GUELS.png,,,,,,,,,,,,,,,,,,,,,,,,,,,,,,,,,,,
,,,,,,,,,,,,,,,,,5e7d11401ae8680ca60eed9e,36,2022-02-12_13h30.31.655,lexical_decision_task_DD_L2,2021.2.3,Win32,59.5167242,,,,,,,,,,,0.5653,1,,,,,,,,,,,,,,z,1,0.5653,,,,,,,,-0.888888889,0.5,0,0,0,,0,131,131,113,1,LINEW,LB,old,z,./images/LINEWLB.png,,,,,,,,,,,,,,,,,,,,,,,,,,,,,,,,,,,
,,,,,,,,,,,,,,,,,5e7d11401ae8680ca60eed9e,36,2022-02-12_13h30.31.655,lexical_decision_task_DD_L2,2021.2.3,Win32,59.5167242,,,,,,,,,,,1.1074,1,,,,,,,,,,,,,,m,1,1.1074,,,,,,,,-0.888888889,0.5,0,0,0,,0,132,132,37,1,BIRTH,LB,old,m,./images/BIRTHLB.png,,,,,,,,,,,,,,,,,,,,,,,,,,,,,,,,,,,
,,,,,,,,,,,,,,,,,5e7d11401ae8680ca60eed9e,36,2022-02-12_13h30.31.655,lexical_decision_task_DD_L2,2021.2.3,Win32,59.5167242,,,,,,,,,,,0.6179,0,,,,,,,,,,,,,,m,0,0.6179,,,,,,,,-0.888888889,0.5,0,0,0,,0,133,133,161,1,BLAPS,LB,old,z,./images/BLAPSLB.png,,,,,,,,,,,,,,,,,,,,,,,,,,,,,,,,,,,
,,,,,,,,,,,,,,,,,5e7d11401ae8680ca60eed9e,36,2022-02-12_13h30.31.655,lexical_decision_task_DD_L2,2021.2.3,Win32,59.5167242,,,,,,,,,,,0.6349,1,,,,,,,,,,,,,,m,1,0.6349,,,,,,,,-0.888888889,0.5,0,0,0,,0,134,134,30,1,STORM,HB,old,m,./images/STORMHB.png,,,,,,,,,,,,,,,,,,,,,,,,,,,,,,,,,,,
,,,,,,,,,,,,,,,,,5e7d11401ae8680ca60eed9e,36,2022-02-12_13h30.31.655,lexical_decision_task_DD_L2,2021.2.3,Win32,59.5167242,,,,,,,,,,,0.5844,1,,,,,,,,,,,,,,m,1,0.5844,,,,,,,,-0.888888889,0.5,0,0,0,,0,135,135,53,1,CARPET,C,old,m,./images/CARPET.png,,,,,,,,,,,,,,,,,,,,,,,,,,,,,,,,,,,
,,,,,,,,,,,,,,,,,5e7d11401ae8680ca60eed9e,36,2022-02-12_13h30.31.655,lexical_decision_task_DD_L2,2021.2.3,Win32,59.5167242,,,,,,,,,,,4.7264,1,,,,,,,,,,,,,,m,1,4.7264,,,,,,,,-0.888888889,0.5,0,0,0,,0,136,136,77,1,COUCH,C,old,m,./images/COUCH.png,,,,,,,,,,,,,,,,,,,,,,,,,,,,,,,,,,,
,,,,,,,,,,,,,,,,,5e7d11401ae8680ca60eed9e,36,2022-02-12_13h30.31.655,lexical_decision_task_DD_L2,2021.2.3,Win32,59.5167242,,,,,,,,,,,0.6896,1,,,,,,,,,,,,,,m,1,0.6896,,,,,,,,-0.888888889,0.5,0,0,0,,0,137,137,64,1,JELLY,LB,old,m,./images/JELLYLB.png,,,,,,,,,,,,,,,,,,,,,,,,,,,,,,,,,,,
,,,,,,,,,,,,,,,,,5e7d11401ae8680ca60eed9e,36,2022-02-12_13h30.31.655,lexical_decision_task_DD_L2,2021.2.3,Win32,59.5167242,,,,,,,,,,,1.1216,1,,,,,,,,,,,,,,z,1,1.1216,,,,,,,,-0.888888889,0.5,0,0,0,,0,138,138,125,1,MOOKY,LB,old,z,./images/MOOKYLB.png,,,,,,,,,,,,,,,,,,,,,,,,,,,,,,,,,,,
,,,,,,,,,,,,,,,,,5e7d11401ae8680ca60eed9e,36,2022-02-12_13h30.31.655,lexical_decision_task_DD_L2,2021.2.3,Win32,59.5167242,,,,,,,,,,,1.2064,1,,,,,,,,,,,,,,m,1,1.2064,,,,,,,,-0.888888889,0.5,0,0,0,,0,139,139,36,1,THROAT,HB,old,m,./images/THROATHB.png,,,,,,,,,,,,,,,,,,,,,,,,,,,,,,,,,,,
,,,,,,,,,,,,,,,,,5e7d11401ae8680ca60eed9e,36,2022-02-12_13h30.31.655,lexical_decision_task_DD_L2,2021.2.3,Win32,59.5167242,,,,,,,,,,,1.3436,1,,,,,,,,,,,,,,z,1,1.3436,,,,,,,,-0.888888889,0.5,0,0,0,,0,140,140,153,1,CLUPS,C,old,z,./images/CLUPS.png,,,,,,,,,,,,,,,,,,,,,,,,,,,,,,,,,,,
,,,,,,,,,,,,,,,,,5e7d11401ae8680ca60eed9e,36,2022-02-12_13h30.31.655,lexical_decision_task_DD_L2,2021.2.3,Win32,59.5167242,,,,,,,,,,,1.4796,1,,,,,,,,,,,,,,z,1,1.4796,,,,,,,,-0.888888889,0.5,0,0,0,,0,141,141,129,1,PRANS,C,old,z,./images/PRANS.png,,,,,,,,,,,,,,,,,,,,,,,,,,,,,,,,,,,
,,,,,,,,,,,,,,,,,5e7d11401ae8680ca60eed9e,36,2022-02-12_13h30.31.655,lexical_decision_task_DD_L2,2021.2.3,Win32,59.5167242,,,,,,,,,,,1,1,,,,,,,,,,,,,,m,1,1,,,,,,,,-0.833333332,0.46111111,0,0,0,,0,142,142,49,1,DRUMS,LB,old,m,./images/DRUMSLB.png,,,,,,,,,,,,,,,,,,,,,,,,,,,,,,,,,,,
,,,,,,,,,,,,,,,,,5e7d11401ae8680ca60eed9e,36,2022-02-12_13h30.31.655,lexical_decision_task_DD_L2,2021.2.3,Win32,59.5167242,,,,,,,,,,,2.0174,1,,,,,,,,,,,,,,z,1,2.0174,,,,,,,,-0.833333332,0.46111111,0,0,0,,0,143,143,107,1,FASKS,LB,old,z,./images/FASKSLB.png,,,,,,,,,,,,,,,,,,,,,,,,,,,,,,,,,,,
,,,,,,,,,,,,,,,,,5e7d11401ae8680ca60eed9e,36,2022-02-12_13h30.31.655,lexical_decision_task_DD_L2,2021.2.3,Win32,59.5167242,,,,,,,,,,,1.4167,1,,,,,,,,,,,,,,z,1,1.4167,,,,,,,,-0.888888889,0.469444444,0,0,0,,0,144,144,118,1,BAVEL,HB,old,z,./images/BAVELHB.png,,,,,,,,,,,,,,,,,,,,,,,,,,,,,,,,,,,
,,,,,,,,,,,,,,,,,5e7d11401ae8680ca60eed9e,36,2022-02-12_13h30.31.655,lexical_decision_task_DD_L2,2021.2.3,Win32,59.5167242,,,,,,,,,,,0.9833,1,,,,,,,,,,,,,,m,1,0.9833,,,,,,,,-0.888888889,0.469444444,0,0,0,,0,145,145,45,1,KITTEN,HB,old,m,./images/KITTENHB.png,,,,,,,,,,,,,,,,,,,,,,,,,,,,,,,,,,,
,,,,,,,,,,,,,,,,,5e7d11401ae8680ca60eed9e,36,2022-02-12_13h30.31.655,lexical_decision_task_DD_L2,2021.2.3,Win32,59.5167242,,,,,,,,,,,1.3168,1,,,,,,,,,,,,,,z,1,1.3168,,,,,,,,-0.888888889,0.469444444,0,0,0,,0,146,146,103,1,FLORT,HB,old,z,./images/FLORTHB.png,,,,,,,,,,,,,,,,,,,,,,,,,,,,,,,,,,,
,,,,,,,,,,,,,,,,,5e7d11401ae8680ca60eed9e,36,2022-02-12_13h30.31.655,lexical_decision_task_DD_L2,2021.2.3,Win32,59.5167242,,,,,,,,,,,1.7996,1,,,,,,,,,,,,,,z,1,1.7996,,,,,,,,-0.888888889,0.469444444,0,0,0,,0,147,147,139,1,BLEAR,HB,old,z,./images/BLEARHB.png,,,,,,,,,,,,,,,,,,,,,,,,,,,,,,,,,,,
,,,,,,,,,,,,,,,,,5e7d11401ae8680ca60eed9e,36,2022-02-12_13h30.31.655,lexical_decision_task_DD_L2,2021.2.3,Win32,59.5167242,,,,,,,,,,,0.8951,1,,,,,,,,,,,,,,m,1,0.8951,,,,,,,,-0.888888889,0.469444444,0,0,0,,0,148,148,26,1,SMOKER,C,old,m,./images/SMOKER.png,,,,,,,,,,,,,,,,,,,,,,,,,,,,,,,,,,,
,,,,,,,,,,,,,,,,,5e7d11401ae8680ca60eed9e,36,2022-02-12_13h30.31.655,lexical_decision_task_DD_L2,2021.2.3,Win32,59.5167242,,,,,,,,,,,1.4433,1,,,,,,,,,,,,,,z,1,1.4433,,,,,,,,-0.888888889,0.472222221,0,0,0,,0,149,149,108,1,GRUET,C,old,z,./images/GRUET.png,,,,,,,,,,,,,,,,,,,,,,,,,,,,,,,,,,,
,,,,,,,,,,,,,,,,,5e7d11401ae8680ca60eed9e,36,2022-02-12_13h30.31.655,lexical_decision_task_DD_L2,2021.2.3,Win32,59.5167242,,,,,,,,,,,1.5479,1,,,,,,,,,,,,,,m,1,1.5479,,,,,,,,-0.888888889,0.466666666,0,0,0,,0,150,150,41,1,STRING,C,old,m,./images/STRING.png,,,,,,,,,,,,,,,,,,,,,,,,,,,,,,,,,,,
,,,,,,,,,,,,,,,,,5e7d11401ae8680ca60eed9e,36,2022-02-12_13h30.31.655,lexical_decision_task_DD_L2,2021.2.3,Win32,59.5167242,,,,,,,,,,,1.7471,1,,,,,,,,,,,,,,z,1,1.7471,,,,,,,,-0.888888889,0.466666666,0,0,0,,0,151,151,147,1,ZOLES,C,old,z,./images/ZOLES.png,,,,,,,,,,,,,,,,,,,,,,,,,,,,,,,,,,,
,,,,,,,,,,,,,,,,,5e7d11401ae8680ca60eed9e,36,2022-02-12_13h30.31.655,lexical_decision_task_DD_L2,2021.2.3,Win32,59.5167242,,,,,,,,,,,1.9388,1,,,,,,,,,,,,,,z,1,1.9388,,,,,,,,-0.888888889,0.466666666,0,0,0,,0,152,152,130,1,CRILL,HB,old,z,./images/CRILLHB.png,,,,,,,,,,,,,,,,,,,,,,,,,,,,,,,,,,,
,,,,,,,,,,,,,,,,,5e7d11401ae8680ca60eed9e,36,2022-02-12_13h30.31.655,lexical_decision_task_DD_L2,2021.2.3,Win32,59.5167242,,,,,,,,,,,1.5837,1,,,,,,,,,,,,,,m,1,1.5837,,,,,,,,-0.888888889,0.466666666,0,0,0,,0,153,153,57,1,MOOSE,HB,old,m,./images/MOOSEHB.png,,,,,,,,,,,,,,,,,,,,,,,,,,,,,,,,,,,
,,,,,,,,,,,,,,,,,5e7d11401ae8680ca60eed9e,36,2022-02-12_13h30.31.655,lexical_decision_task_DD_L2,2021.2.3,Win32,59.5167242,,,,,,,,,,,1.073,1,,,,,,,,,,,,,,m,1,1.073,,,,,,,,-0.888888889,0.466666666,0,0,0,,0,154,154,68,1,TORCH,C,old,m,./images/TORCH.png,,,,,,,,,,,,,,,,,,,,,,,,,,,,,,,,,,,
,,,,,,,,,,,,,,,,,5e7d11401ae8680ca60eed9e,36,2022-02-12_13h30.31.655,lexical_decision_task_DD_L2,2021.2.3,Win32,59.5167242,,,,,,,,,,,1.3769,1,,,,,,,,,,,,,,m,1,1.3769,,,,,,,,-0.888888889,0.466666666,0,0,0,,0,155,155,82,1,SUNSET,LB,old,m,./images/SUNSETLB.png,,,,,,,,,,,,,,,,,,,,,,,,,,,,,,,,,,,
,,,,,,,,,,,,,,,,,5e7d11401ae8680ca60eed9e,36,2022-02-12_13h30.31.655,lexical_decision_task_DD_L2,2021.2.3,Win32,59.5167242,,,,,,,,,,,1.3576,1,,,,,,,,,,,,,,z,1,1.3576,,,,,,,,-0.888888889,0.466666666,0,0,0,,0,156,156,134,1,TROSS,LB,old,z,./images/TROSSLB.png,,,,,,,,,,,,,,,,,,,,,,,,,,,,,,,,,,,
,,,,,,,,,,,,,,,,,5e7d11401ae8680ca60eed9e,36,2022-02-12_13h30.31.655,lexical_decision_task_DD_L2,2021.2.3,Win32,59.5167242,,,,,,,,,,,1.0055,1,,,,,,,,,,,,,,m,1,1.0055,,,,,,,,-0.888888889,0.466666666,0,0,0,,0,157,157,76,1,INFANT,LB,old,m,./images/INFANTLB.png,,,,,,,,,,,,,,,,,,,,,,,,,,,,,,,,,,,
,,,,,,,,,,,,,,,,,5e7d11401ae8680ca60eed9e,36,2022-02-12_13h30.31.655,lexical_decision_task_DD_L2,2021.2.3,Win32,59.5167242,,,,,,,,,,,1.4176,0,,,,,,,,,,,,,,z,0,1.4176,,,,,,,,-0.888888889,0.466666666,0,0,0,,0,158,158,72,1,NOOSE,HB,old,m,./images/NOOSEHB.png,,,,,,,,,,,,,,,,,,,,,,,,,,,,,,,,,,,
,,,,,,,,,,,,,,,,,5e7d11401ae8680ca60eed9e,36,2022-02-12_13h30.31.655,lexical_decision_task_DD_L2,2021.2.3,Win32,59.5167242,,,,,,,,,,,0.6662,1,,,,,,,,,,,,,,m,1,0.6662,,,,,,,,-0.888888889,0.466666666,0,0,0,,0,159,159,25,1,WRIST,LB,old,m,./images/WRISTLB.png,,,,,,,,,,,,,,,,,,,,,,,,,,,,,,,,,,,
,,,,,,,,,,,,,,,,,5e7d11401ae8680ca60eed9e,36,2022-02-12_13h30.31.655,lexical_decision_task_DD_L2,2021.2.3,Win32,59.5167242,,,,,,,,,,,0.8202,1,,,,,,,,,,,,,,m,1,0.8202,,,,,,,,-0.888888889,0.466666666,0,0,0,,0,160,160,40,1,SWING,LB,old,m,./images/SWINGLB.png,,,,,,,,,,,,,,,,,,,,,,,,,,,,,,,,,,,
,,,,,,,,,,,,,,,,,5e7d11401ae8680ca60eed9e,36,2022-02-12_13h30.31.655,lexical_decision_task_DD_L2,2021.2.3,Win32,59.5167242,,,,,,,,,,,1.3003,1,,,,,,,,,,,,,,z,1,1.3003,,,,,,,,-0.888888889,0.466666666,0,0,0,,0,161,161,95,1,HANTY,LB,old,z,./images/HANTYLB.png,,,,,,,,,,,,,,,,,,,,,,,,,,,,,,,,,,,
,,,,,,,,,,,,,,,,,5e7d11401ae8680ca60eed9e,36,2022-02-12_13h30.31.655,lexical_decision_task_DD_L2,2021.2.3,Win32,59.5167242,,,,,,,,,,,1.6301,0,,,,,,,,,,,,,,z,0,1.6301,,,,,,,,-0.888888889,0.466666666,0,0,0,,0,162,162,52,1,BANNER,LB,old,m,./images/BANNERLB.png,,,,,,,,,,,,,,,,,,,,,,,,,,,,,,,,,,,
,,,,,,,,,,,,,,,,,5e7d11401ae8680ca60eed9e,36,2022-02-12_13h30.31.655,lexical_decision_task_DD_L2,2021.2.3,Win32,59.5167242,,,,,,,,,,,0.8765,1,,,,,,,,,,,,,,m,1,0.8765,,,,,,,,-0.888888889,0.466666666,0,0,0,,0,163,163,8,1,TULIP,C,old,m,./images/TULIP.png,,,,,,,,,,,,,,,,,,,,,,,,,,,,,,,,,,,
,,,,,,,,,,,,,,,,,5e7d11401ae8680ca60eed9e,36,2022-02-12_13h30.31.655,lexical_decision_task_DD_L2,2021.2.3,Win32,59.5167242,,,,,,,,,,,0.9393,1,,,,,,,,,,,,,,z,1,0.9393,,,,,,,,-0.888888889,0.466666666,0,0,0,,0,164,164,86,1,AIFED,LB,old,z,./images/AIFEDLB.png,,,,,,,,,,,,,,,,,,,,,,,,,,,,,,,,,,,
,,,,,,,,,,,,,,,,,5e7d11401ae8680ca60eed9e,36,2022-02-12_13h30.31.655,lexical_decision_task_DD_L2,2021.2.3,Win32,59.5167242,,,,,,,,,,,4.2527,0,,,,,,,,,,,,,,z,0,4.2527,,,,,,,,-0.888888889,0.466666666,0,0,0,,0,165,165,1,1,PLANK,LB,old,m,./images/PLANKLB.png,,,,,,,,,,,,,,,,,,,,,,,,,,,,,,,,,,,
,,,,,,,,,,,,,,,,,5e7d11401ae8680ca60eed9e,36,2022-02-12_13h30.31.655,lexical_decision_task_DD_L2,2021.2.3,Win32,59.5167242,,,,,,,,,,,1.4011,1,,,,,,,,,,,,,,m,1,1.4011,,,,,,,,-0.888888889,0.466666666,0,0,0,,0,166,166,38,1,LADDER,C,old,m,./images/LADDER.png,,,,,,,,,,,,,,,,,,,,,,,,,,,,,,,,,,,
,,,,,,,,,,,,,,,,,5e7d11401ae8680ca60eed9e,36,2022-02-12_13h30.31.655,lexical_decision_task_DD_L2,2021.2.3,Win32,59.5167242,,,,,,,,,,,1.1054,1,,,,,,,,,,,,,,z,1,1.1054,,,,,,,,-0.888888889,0.466666666,0,0,0,,0,167,167,111,1,HOSSE,C,old,z,./images/HOSSE.png,,,,,,,,,,,,,,,,,,,,,,,,,,,,,,,,,,,
,,,,,,,,,,,,,,,,,5e7d11401ae8680ca60eed9e,36,2022-02-12_13h30.31.655,lexical_decision_task_DD_L2,2021.2.3,Win32,59.5167242,,,,,,,,,,,,,,,,,,,,,,,,,,,,,,,,,,,,,,,,,,,,,,,,How likely will it be that you will recognize the words presented slighly blurred on a scale of 0 (not likely) to 100 (most likely)?,,,,,2.6491E-08,-0.40833336,1,0,0,jol_adv,3,17.3733,0,0,0,1,1,,,,,,,,,,,,,,,,,,,,,
,,,,,,,,,,,,,,,,,5e7d11401ae8680ca60eed9e,36,2022-02-12_13h30.31.655,lexical_decision_task_DD_L2,2021.2.3,Win32,59.5167242,,,,,,,,,,,,,,,,,,,,,,,,,,,,,,,,,,,,,,,,,,,,,,,,How likely will it be that you will recognize the words presented very blurred on a scale of 0 (not likely) to 100 (most likely)?,,,,,,,,,,,2,5.4201,0,1,1,2,1,,,,,,,,,,,,,,,,,,,,,
,,,,,,,,,,,,,,,,,5e7d11401ae8680ca60eed9e,36,2022-02-12_13h30.31.655,lexical_decision_task_DD_L2,2021.2.3,Win32,59.5167242,,,,,,,,,,,,,,,,,,,,,,,,,,,,,,,,,,,,,,,,,,,,,,,,How likely will it be that you will recognize the words presented clearly on a scale of 0 (not likely) to 100 (most likely)?,,,,,,,,,,,2,3.7474,0,2,2,0,1,,,,,,,,,,,,,,,,,,,,,
,,-0.144444422,-0.386111138,1,0,0,,,,,,1,test,"In the next phase you will be presented with the words from the the first phase. Your job is to decide whether you remember seeing the word or not. If you remember seeing the word press ""old"" or type ""m"". If you do not remember seeing the word press ""new"" or type ""z"". Please press the space bar or click on continue to begin. ",,,5e7d11401ae8680ca60eed9e,36,2022-02-12_13h30.31.655,lexical_decision_task_DD_L2,2021.2.3,Win32,59.5167242,,,,,,,,,,,,,,,,,,,,,,,,,,,,,,,,,,,,,,,,,,,,,,,,,,,,,,,,,,,,,,,,,,instr_done_button,0,0,0,0,1,,,,,,,,,,,,,,,
,,-0.067592512,-0.402777805,1,0,0,,,,,,1,test,"In the next phase you will be presented with the words from the the first phase. Your job is to decide whether you remember seeing the word or not. If you remember seeing the word press ""old"" or type ""m"". If you do not remember seeing the word press ""new"" or type ""z"". Please press the space bar or click on continue to begin. ",,,5e7d11401ae8680ca60eed9e,36,2022-02-12_13h30.31.655,lexical_decision_task_DD_L2,2021.2.3,Win32,59.5167242,,,,,,,,,,,,,,,,,,,,,,,,,,,,,,,,,,,,,,,,,,,,,,,,,,,,,,,,,,,,,,,,,,instr_done_button,1,0,1,0,1,,,,,,,,,,,,,,,
,,-0.004629603,-0.385185268,1,0,0,,,,,,1,test,"In the next phase you will be presented with the words from the the first phase. Your job is to decide whether you remember seeing the word or not. If you remember seeing the word press ""old"" or type ""m"". If you do not remember seeing the word press ""new"" or type ""z"". Please press the space bar or click on continue to begin. ",,,5e7d11401ae8680ca60eed9e,36,2022-02-12_13h30.31.655,lexical_decision_task_DD_L2,2021.2.3,Win32,59.5167242,,,,,,,,,,,,,,,,,,,,,,,,,,,,,,,,,,,,,,,,,,,,,,,,,,,,,,,,,,,,,,,,,,instr_done_button,2,0,2,0,1,,,,,,,,,,,,,,,
,,-0.004629603,-0.385185268,1,0,0,,,,,,1,test,"In the next phase you will be presented with the words from the the first phase. Your job is to decide whether you remember seeing the word or not. If you remember seeing the word press ""old"" or type ""m"". If you do not remember seeing the word press ""new"" or type ""z"". Please press the space bar or click on continue to begin. ",,,5e7d11401ae8680ca60eed9e,36,2022-02-12_13h30.31.655,lexical_decision_task_DD_L2,2021.2.3,Win32,59.5167242,,,,,,,,,,,,,,,,,,,,,,,,,,,,,,,,,,,,,,,,,,,,,,,,,,,,,,,,,,,,,,,,,,instr_done_button,3,0,3,0,1,,,,,,,,,,,,,,,
space,3.1509,-0.57962962,-0.499074104,0,0,0,,,,,,1,test,"In the next phase you will be presented with the words from the the first phase. Your job is to decide whether you remember seeing the word or not. If you remember seeing the word press ""old"" or type ""m"". If you do not remember seeing the word press ""new"" or type ""z"". Please press the space bar or click on continue to begin. ",,,5e7d11401ae8680ca60eed9e,36,2022-02-12_13h30.31.655,lexical_decision_task_DD_L2,2021.2.3,Win32,59.5167242,,,,,,,,,,,,,,,,,,,,,,,,,,,,,,,,,,,,,,,,,,,,,,,,,,,,,,,,,,,,,,,,,,,4,0,4,0,1,,,,,,,,,,,,,,,
,,,,,,,,,,,,,,,,,5e7d11401ae8680ca60eed9e,36,2022-02-12_13h30.31.655,lexical_decision_task_DD_L2,2021.2.3,Win32,59.5167242,,,,,,,,,,,5.3947,0,,,,,,,,,,,,,,,,,,,,,,,,-0.57962962,-0.499074104,0,0,0,,,,,,,SCREW,HB,m,y,./images/SCREWHB.png,,,,,,,,,,,,,,,,,,,,,z,0,5.3947,,,,,,,,0,0,0,24,1
,,,,,,,,,,,,,,,,,5e7d11401ae8680ca60eed9e,36,2022-02-12_13h30.31.655,lexical_decision_task_DD_L2,2021.2.3,Win32,59.5167242,,,,,,,,,,,1.3637,1,,,,,,,,,,,,,,,,,,,,,,,,-0.582407398,-0.499074104,0,0,0,,,,,,,MUMMY,LB,z,y,./images/MUMMYLB.png,,,,,,,,,,,,,,,,,,,,,z,1,1.3637,,,,,,,,0,1,1,130,1
,,,,,,,,,,,,,,,,,5e7d11401ae8680ca60eed9e,36,2022-02-12_13h30.31.655,lexical_decision_task_DD_L2,2021.2.3,Win32,59.5167242,,,,,,,,,,,1.8791,1,,,,,,,,,,,,,,,,,,,,,,,,-0.582407398,-0.499074104,0,0,0,,,,,,,TIGER,LB,z,y,./images/TIGERLB.png,,,,,,,,,,,,,,,,,,,,,z,1,1.8791,,,,,,,,0,2,2,121,1
,,,,,,,,,,,,,,,,,5e7d11401ae8680ca60eed9e,36,2022-02-12_13h30.31.655,lexical_decision_task_DD_L2,2021.2.3,Win32,59.5167242,,,,,,,,,,,1.5021,0,,,,,,,,,,,,,,,,,,,,,,,,-0.582407398,-0.499074104,0,0,0,,,,,,,CHAIN,HB,z,y,./images/CHAINHB.png,,,,,,,,,,,,,,,,,,,,,m,0,1.5021,,,,,,,,0,3,3,126,1
,,,,,,,,,,,,,,,,,5e7d11401ae8680ca60eed9e,36,2022-02-12_13h30.31.655,lexical_decision_task_DD_L2,2021.2.3,Win32,59.5167242,,,,,,,,,,,1.3359,1,,,,,,,,,,,,,,,,,,,,,,,,-0.582407398,-0.499074104,0,0,0,,,,,,,RAZOR,LB,z,y,./images/RAZORLB.png,,,,,,,,,,,,,,,,,,,,,z,1,1.3359,,,,,,,,0,4,4,118,1
,,,,,,,,,,,,,,,,,5e7d11401ae8680ca60eed9e,36,2022-02-12_13h30.31.655,lexical_decision_task_DD_L2,2021.2.3,Win32,59.5167242,,,,,,,,,,,0.9846,1,,,,,,,,,,,,,,,,,,,,,,,,-0.582407398,-0.499074104,0,0,0,,,,,,,JUNGLE,C,m,y,./images/JUNGLE.png,,,,,,,,,,,,,,,,,,,,,m,1,0.9846,,,,,,,,0,5,5,83,1
,,,,,,,,,,,,,,,,,5e7d11401ae8680ca60eed9e,36,2022-02-12_13h30.31.655,lexical_decision_task_DD_L2,2021.2.3,Win32,59.5167242,,,,,,,,,,,1.7006,0,,,,,,,,,,,,,,,,,,,,,,,,-0.582407398,-0.499074104,0,0,0,,,,,,,SAUCE,HB,z,y,./images/SAUCEHB.png,,,,,,,,,,,,,,,,,,,,,m,0,1.7006,,,,,,,,0,6,6,135,1
,,,,,,,,,,,,,,,,,5e7d11401ae8680ca60eed9e,36,2022-02-12_13h30.31.655,lexical_decision_task_DD_L2,2021.2.3,Win32,59.5167242,,,,,,,,,,,1.5532,0,,,,,,,,,,,,,,,,,,,,,,,,-0.582407398,-0.499074104,0,0,0,,,,,,,MOSQUE,LB,m,y,./images/MOSQUELB.png,,,,,,,,,,,,,,,,,,,,,z,0,1.5532,,,,,,,,0,7,7,43,1
,,,,,,,,,,,,,,,,,5e7d11401ae8680ca60eed9e,36,2022-02-12_13h30.31.655,lexical_decision_task_DD_L2,2021.2.3,Win32,59.5167242,,,,,,,,,,,1.1289,0,,,,,,,,,,,,,,,,,,,,,,,,-0.582407398,-0.499074104,0,0,0,,,,,,,MAGGOT,HB,m,y,./images/MAGGOTHB.png,,,,,,,,,,,,,,,,,,,,,z,0,1.1289,,,,,,,,0,8,8,33,1
,,,,,,,,,,,,,,,,,5e7d11401ae8680ca60eed9e,36,2022-02-12_13h30.31.655,lexical_decision_task_DD_L2,2021.2.3,Win32,59.5167242,,,,,,,,,,,3.6318,1,,,,,,,,,,,,,,,,,,,,,,,,-0.582407398,-0.499074104,0,0,0,,,,,,,BANANA,LB,z,y,./images/BANANALB.png,,,,,,,,,,,,,,,,,,,,,z,1,3.6318,,,,,,,,0,9,9,154,1
,,,,,,,,,,,,,,,,,5e7d11401ae8680ca60eed9e,36,2022-02-12_13h30.31.655,lexical_decision_task_DD_L2,2021.2.3,Win32,59.5167242,,,,,,,,,,,1.1688,1,,,,,,,,,,,,,,,,,,,,,,,,-0.582407398,-0.499074104,0,0,0,,,,,,,STEAK,LB,z,y,./images/STEAKLB.png,,,,,,,,,,,,,,,,,,,,,z,1,1.1688,,,,,,,,0,10,10,115,1
,,,,,,,,,,,,,,,,,5e7d11401ae8680ca60eed9e,36,2022-02-12_13h30.31.655,lexical_decision_task_DD_L2,2021.2.3,Win32,59.5167242,,,,,,,,,,,4.3773,0,,,,,,,,,,,,,,,,,,,,,,,,-0.582407398,-0.499074104,0,0,0,,,,,,,RHINO,HB,m,y,./images/RHINOHB.png,,,,,,,,,,,,,,,,,,,,,z,0,4.3773,,,,,,,,0,11,11,9,1
,,,,,,,,,,,,,,,,,5e7d11401ae8680ca60eed9e,36,2022-02-12_13h30.31.655,lexical_decision_task_DD_L2,2021.2.3,Win32,59.5167242,,,,,,,,,,,1.3513,1,,,,,,,,,,,,,,,,,,,,,,,,-0.582407398,-0.499074104,0,0,0,,,,,,,MIRROR,HB,m,y,./images/MIRRORHB.png,,,,,,,,,,,,,,,,,,,,,m,1,1.3513,,,,,,,,0,12,12,63,1
,,,,,,,,,,,,,,,,,5e7d11401ae8680ca60eed9e,36,2022-02-12_13h30.31.655,lexical_decision_task_DD_L2,2021.2.3,Win32,59.5167242,,,,,,,,,,,1.4025,1,,,,,,,,,,,,,,,,,,,,,,,,-0.582407398,-0.499074104,0,0,0,,,,,,,SAILOR,LB,m,y,./images/SAILORLB.png,,,,,,,,,,,,,,,,,,,,,m,1,1.4025,,,,,,,,0,13,13,67,1
,,,,,,,,,,,,,,,,,5e7d11401ae8680ca60eed9e,36,2022-02-12_13h30.31.655,lexical_decision_task_DD_L2,2021.2.3,Win32,59.5167242,,,,,,,,,,,1.3673,0,,,,,,,,,,,,,,,,,,,,,,,,-0.582407398,-0.499074104,0,0,0,,,,,,,MONKEY,HB,z,y,./images/MONKEYHB.png,,,,,,,,,,,,,,,,,,,,,m,0,1.3673,,,,,,,,0,14,14,129,1
,,,,,,,,,,,,,,,,,5e7d11401ae8680ca60eed9e,36,2022-02-12_13h30.31.655,lexical_decision_task_DD_L2,2021.2.3,Win32,59.5167242,,,,,,,,,,,1.3156,0,,,,,,,,,,,,,,,,,,,,,,,,-0.582407398,-0.499074104,0,0,0,,,,,,,ARTIST,LB,z,y,./images/ARTISTLB.png,,,,,,,,,,,,,,,,,,,,,m,0,1.3156,,,,,,,,0,15,15,145,1
,,,,,,,,,,,,,,,,,5e7d11401ae8680ca60eed9e,36,2022-02-12_13h30.31.655,lexical_decision_task_DD_L2,2021.2.3,Win32,59.5167242,,,,,,,,,,,2.843,0,,,,,,,,,,,,,,,,,,,,,,,,-0.582407398,-0.499074104,0,0,0,,,,,,,GRAPE,LB,z,y,./images/GRAPELB.png,,,,,,,,,,,,,,,,,,,,,m,0,2.843,,,,,,,,0,16,16,100,1
,,,,,,,,,,,,,,,,,5e7d11401ae8680ca60eed9e,36,2022-02-12_13h30.31.655,lexical_decision_task_DD_L2,2021.2.3,Win32,59.5167242,,,,,,,,,,,0.1517,1,,,,,,,,,,,,,,,,,,,,,,,,-0.582407398,-0.499074104,0,0,0,,,,,,,BERRY,C,m,y,./images/BERRY.png,,,,,,,,,,,,,,,,,,,,,m,1,0.1517,,,,,,,,0,17,17,47,1
,,,,,,,,,,,,,,,,,5e7d11401ae8680ca60eed9e,36,2022-02-12_13h30.31.655,lexical_decision_task_DD_L2,2021.2.3,Win32,59.5167242,,,,,,,,,,,4.2354,1,,,,,,,,,,,,,,,,,,,,,,,,-0.582407398,-0.499074104,0,0,0,,,,,,,POKER,LB,z,y,./images/POKERLB.png,,,,,,,,,,,,,,,,,,,,,z,1,4.2354,,,,,,,,0,18,18,151,1
,,,,,,,,,,,,,,,,,5e7d11401ae8680ca60eed9e,36,2022-02-12_13h30.31.655,lexical_decision_task_DD_L2,2021.2.3,Win32,59.5167242,,,,,,,,,,,2.0597,0,,,,,,,,,,,,,,,,,,,,,,,,-0.582407398,-0.499074104,0,0,0,,,,,,,DANCER,HB,z,y,./images/DANCERHB.png,,,,,,,,,,,,,,,,,,,,,m,0,2.0597,,,,,,,,0,19,19,105,1
,,,,,,,,,,,,,,,,,5e7d11401ae8680ca60eed9e,36,2022-02-12_13h30.31.655,lexical_decision_task_DD_L2,2021.2.3,Win32,59.5167242,,,,,,,,,,,2.3016,1,,,,,,,,,,,,,,,,,,,,,,,,-0.582407398,-0.499074104,0,0,0,,,,,,,PLANET,C,z,y,./images/PLANET.png,,,,,,,,,,,,,,,,,,,,,z,1,2.3016,,,,,,,,0,20,20,164,1
,,,,,,,,,,,,,,,,,5e7d11401ae8680ca60eed9e,36,2022-02-12_13h30.31.655,lexical_decision_task_DD_L2,2021.2.3,Win32,59.5167242,,,,,,,,,,,1.5297,1,,,,,,,,,,,,,,,,,,,,,,,,-0.582407398,-0.499074104,0,0,0,,,,,,,MELON,LB,m,y,./images/MELONLB.png,,,,,,,,,,,,,,,,,,,,,m,1,1.5297,,,,,,,,0,21,21,22,1
,,,,,,,,,,,,,,,,,5e7d11401ae8680ca60eed9e,36,2022-02-12_13h30.31.655,lexical_decision_task_DD_L2,2021.2.3,Win32,59.5167242,,,,,,,,,,,0.5965,0,,,,,,,,,,,,,,,,,,,,,,,,-0.582407398,-0.499074104,0,0,0,,,,,,,JUMPER,C,z,y,./images/JUMPER.png,,,,,,,,,,,,,,,,,,,,,m,0,0.5965,,,,,,,,0,22,22,158,1
,,,,,,,,,,,,,,,,,5e7d11401ae8680ca60eed9e,36,2022-02-12_13h30.31.655,lexical_decision_task_DD_L2,2021.2.3,Win32,59.5167242,,,,,,,,,,,1.2474,1,,,,,,,,,,,,,,,,,,,,,,,,-0.582407398,-0.499074104,0,0,0,,,,,,,ENGINE,C,z,y,./images/ENGINE.png,,,,,,,,,,,,,,,,,,,,,z,1,1.2474,,,,,,,,0,23,23,122,1
,,,,,,,,,,,,,,,,,5e7d11401ae8680ca60eed9e,36,2022-02-12_13h30.31.655,lexical_decision_task_DD_L2,2021.2.3,Win32,59.5167242,,,,,,,,,,,0.7424,1,,,,,,,,,,,,,,,,,,,,,,,,-0.582407398,-0.499074104,0,0,0,,,,,,,BARREL,C,m,y,./images/BARREL.png,,,,,,,,,,,,,,,,,,,,,m,1,0.7424,,,,,,,,0,24,24,32,1
,,,,,,,,,,,,,,,,,5e7d11401ae8680ca60eed9e,36,2022-02-12_13h30.31.655,lexical_decision_task_DD_L2,2021.2.3,Win32,59.5167242,,,,,,,,,,,1.6182,1,,,,,,,,,,,,,,,,,,,,,,,,-0.582407398,-0.499074104,0,0,0,,,,,,,LAGOON,C,z,y,./images/LAGOON.png,,,,,,,,,,,,,,,,,,,,,z,1,1.6182,,,,,,,,0,25,25,131,1
,,,,,,,,,,,,,,,,,5e7d11401ae8680ca60eed9e,36,2022-02-12_13h30.31.655,lexical_decision_task_DD_L2,2021.2.3,Win32,59.5167242,,,,,,,,,,,2.2888,1,,,,,,,,,,,,,,,,,,,,,,,,-0.582407398,-0.499074104,0,0,0,,,,,,,SWEAT,HB,m,y,./images/SWEATHB.png,,,,,,,,,,,,,,,,,,,,,m,1,2.2888,,,,,,,,0,26,26,66,1
,,,,,,,,,,,,,,,,,5e7d11401ae8680ca60eed9e,36,2022-02-12_13h30.31.655,lexical_decision_task_DD_L2,2021.2.3,Win32,59.5167242,,,,,,,,,,,0.9016,0,,,,,,,,,,,,,,,,,,,,,,,,-0.582407398,-0.499074104,0,0,0,,,,,,,HOCKEY,C,z,y,./images/HOCKEY.png,,,,,,,,,,,,,,,,,,,,,m,0,0.9016,,,,,,,,0,27,27,116,1
,,,,,,,,,,,,,,,,,5e7d11401ae8680ca60eed9e,36,2022-02-12_13h30.31.655,lexical_decision_task_DD_L2,2021.2.3,Win32,59.5167242,,,,,,,,,,,3.0741,1,,,,,,,,,,,,,,,,,,,,,,,,-0.582407398,-0.499074104,0,0,0,,,,,,,SPINE,C,z,y,./images/SPINE.png,,,,,,,,,,,,,,,,,,,,,z,1,3.0741,,,,,,,,0,28,28,149,1
,,,,,,,,,,,,,,,,,5e7d11401ae8680ca60eed9e,36,2022-02-12_13h30.31.655,lexical_decision_task_DD_L2,2021.2.3,Win32,59.5167242,,,,,,,,,,,3.6178,1,,,,,,,,,,,,,,,,,,,,,,,,-0.582407398,-0.499074104,0,0,0,,,,,,,MAMMAL,C,z,y,./images/MAMMAL.png,,,,,,,,,,,,,,,,,,,,,z,1,3.6178,,,,,,,,0,29,29,146,1
,,,,,,,,,,,,,,,,,5e7d11401ae8680ca60eed9e,36,2022-02-12_13h30.31.655,lexical_decision_task_DD_L2,2021.2.3,Win32,59.5167242,,,,,,,,,,,2.0663,1,,,,,,,,,,,,,,,,,,,,,,,,-0.582407398,-0.499074104,0,0,0,,,,,,,MOOSE,HB,m,y,./images/MOOSEHB.png,,,,,,,,,,,,,,,,,,,,,m,1,2.0663,,,,,,,,0,30,30,57,1
,,,,,,,,,,,,,,,,,5e7d11401ae8680ca60eed9e,36,2022-02-12_13h30.31.655,lexical_decision_task_DD_L2,2021.2.3,Win32,59.5167242,,,,,,,,,,,2.4014,0,,,,,,,,,,,,,,,,,,,,,,,,-0.582407398,-0.499074104,0,0,0,,,,,,,FLESH,HB,z,y,./images/FLESHHB.png,,,,,,,,,,,,,,,,,,,,,m,0,2.4014,,,,,,,,0,31,31,108,1
,,,,,,,,,,,,,,,,,5e7d11401ae8680ca60eed9e,36,2022-02-12_13h30.31.655,lexical_decision_task_DD_L2,2021.2.3,Win32,59.5167242,,,,,,,,,,,1.5014,1,,,,,,,,,,,,,,,,,,,,,,,,-0.582407398,-0.499074104,0,0,0,,,,,,,SNACK,LB,m,y,./images/SNACKLB.png,,,,,,,,,,,,,,,,,,,,,m,1,1.5014,,,,,,,,0,32,32,73,1
,,,,,,,,,,,,,,,,,5e7d11401ae8680ca60eed9e,36,2022-02-12_13h30.31.655,lexical_decision_task_DD_L2,2021.2.3,Win32,59.5167242,,,,,,,,,,,3.2509,1,,,,,,,,,,,,,,,,,,,,,,,,-0.582407398,-0.499074104,0,0,0,,,,,,,GREASE,HB,m,y,./images/GREASEHB.png,,,,,,,,,,,,,,,,,,,,,m,1,3.2509,,,,,,,,0,33,33,15,1
,,,,,,,,,,,,,,,,,5e7d11401ae8680ca60eed9e,36,2022-02-12_13h30.31.655,lexical_decision_task_DD_L2,2021.2.3,Win32,59.5167242,,,,,,,,,,,0.4513,0,,,,,,,,,,,,,,,,,,,,,,,,-0.582407398,-0.499074104,0,0,0,,,,,,,MEDAL,C,z,y,./images/MEDAL.png,,,,,,,,,,,,,,,,,,,,,m,0,0.4513,,,,,,,,0,34,34,95,1
,,,,,,,,,,,,,,,,,5e7d11401ae8680ca60eed9e,36,2022-02-12_13h30.31.655,lexical_decision_task_DD_L2,2021.2.3,Win32,59.5167242,,,,,,,,,,,0.8559,1,,,,,,,,,,,,,,,,,,,,,,,,-0.582407398,-0.499074104,0,0,0,,,,,,,FOLDER,HB,m,y,./images/FOLDERHB.png,,,,,,,,,,,,,,,,,,,,,m,1,0.8559,,,,,,,,0,35,35,42,1
,,,,,,,,,,,,,,,,,5e7d11401ae8680ca60eed9e,36,2022-02-12_13h30.31.655,lexical_decision_task_DD_L2,2021.2.3,Win32,59.5167242,,,,,,,,,,,0.5233,1,,,,,,,,,,,,,,,,,,,,,,,,-0.582407398,-0.499074104,0,0,0,,,,,,,PACKET,C,m,y,./images/PACKET.png,,,,,,,,,,,,,,,,,,,,,m,1,0.5233,,,,,,,,0,36,36,56,1
,,,,,,,,,,,,,,,,,5e7d11401ae8680ca60eed9e,36,2022-02-12_13h30.31.655,lexical_decision_task_DD_L2,2021.2.3,Win32,59.5167242,,,,,,,,,,,0.8762,0,,,,,,,,,,,,,,,,,,,,,,,,-0.582407398,-0.499074104,0,0,0,,,,,,,DRILL,HB,z,y,./images/DRILLHB.png,,,,,,,,,,,,,,,,,,,,,m,0,0.8762,,,,,,,,0,37,37,165,1
,,,,,,,,,,,,,,,,,5e7d11401ae8680ca60eed9e,36,2022-02-12_13h30.31.655,lexical_decision_task_DD_L2,2021.2.3,Win32,59.5167242,,,,,,,,,,,0.4568,0,,,,,,,,,,,,,,,,,,,,,,,,-0.582407398,-0.499074104,0,0,0,,,,,,,GLOVE,LB,z,y,./images/GLOVELB.png,,,,,,,,,,,,,,,,,,,,,m,0,0.4568,,,,,,,,0,38,38,157,1
,,,,,,,,,,,,,,,,,5e7d11401ae8680ca60eed9e,36,2022-02-12_13h30.31.655,lexical_decision_task_DD_L2,2021.2.3,Win32,59.5167242,,,,,,,,,,,0.6491,1,,,,,,,,,,,,,,,,,,,,,,,,-0.582407398,-0.499074104,0,0,0,,,,,,,BONNET,C,m,y,./images/BONNET.png,,,,,,,,,,,,,,,,,,,,,m,1,0.6491,,,,,,,,0,39,39,11,1
,,,,,,,,,,,,,,,,,5e7d11401ae8680ca60eed9e,36,2022-02-12_13h30.31.655,lexical_decision_task_DD_L2,2021.2.3,Win32,59.5167242,,,,,,,,,,,0.0845,1,,,,,,,,,,,,,,,,,,,,,,,,-0.582407398,-0.499074104,0,0,0,,,,,,,JAGUAR,HB,m,y,./images/JAGUARHB.png,,,,,,,,,,,,,,,,,,,,,m,1,0.0845,,,,,,,,0,40,40,18,1
,,,,,,,,,,,,,,,,,5e7d11401ae8680ca60eed9e,36,2022-02-12_13h30.31.655,lexical_decision_task_DD_L2,2021.2.3,Win32,59.5167242,,,,,,,,,,,1.623,0,,,,,,,,,,,,,,,,,,,,,,,,-0.582407398,-0.499074104,0,0,0,space,,,,,,WHISKY,C,z,y,./images/WHISKY.png,0.9842,,,,,,,,,,,,,,,,,,,,m,0,1.623,,,,,,,,0,41,41,167,1
,,,,,,,,,,,,,,,,,5e7d11401ae8680ca60eed9e,36,2022-02-12_13h30.31.655,lexical_decision_task_DD_L2,2021.2.3,Win32,59.5167242,,,,,,,,,,,0.903,1,,,,,,,,,,,,,,,,,,,,,,,,-0.582407398,-0.499074104,0,0,0,,,,,,,PEACH,C,m,y,./images/PEACH.png,,,,,,,,,,,,,,,,,,,,,m,1,0.903,,,,,,,,0,42,42,35,1
,,,,,,,,,,,,,,,,,5e7d11401ae8680ca60eed9e,36,2022-02-12_13h30.31.655,lexical_decision_task_DD_L2,2021.2.3,Win32,59.5167242,,,,,,,,,,,0.8476,0,,,,,,,,,,,,,,,,,,,,,,,,-0.582407398,-0.499074104,0,0,0,,,,,,,BASKET,C,z,y,./images/BASKET.png,,,,,,,,,,,,,,,,,,,,,m,0,0.8476,,,,,,,,0,43,43,128,1
,,,,,,,,,,,,,,,,,5e7d11401ae8680ca60eed9e,36,2022-02-12_13h30.31.655,lexical_decision_task_DD_L2,2021.2.3,Win32,59.5167242,,,,,,,,,,,1.5802,1,,,,,,,,,,,,,,,,,,,,,,,,-0.582407398,-0.499074104,0,0,0,,,,,,,GARDEN,LB,z,y,./images/GARDENLB.png,,,,,,,,,,,,,,,,,,,,,z,1,1.5802,,,,,,,,0,44,44,94,1
,,,,,,,,,,,,,,,,,5e7d11401ae8680ca60eed9e,36,2022-02-12_13h30.31.655,lexical_decision_task_DD_L2,2021.2.3,Win32,59.5167242,,,,,,,,,,,1.1866,1,,,,,,,,,,,,,,,,,,,,,,,,-0.582407398,-0.499074104,0,0,0,,,,,,,LLAMA,C,z,y,./images/LLAMA.png,,,,,,,,,,,,,,,,,,,,,z,1,1.1866,,,,,,,,0,45,45,119,1
,,,,,,,,,,,,,,,,,5e7d11401ae8680ca60eed9e,36,2022-02-12_13h30.31.655,lexical_decision_task_DD_L2,2021.2.3,Win32,59.5167242,,,,,,,,,,,1.0512,1,,,,,,,,,,,,,,,,,,,,,,,,-0.582407398,-0.499074104,0,0,0,,,,,,,PAINT,LB,m,y,./images/PAINTLB.png,,,,,,,,,,,,,,,,,,,,,m,1,1.0512,,,,,,,,0,46,46,7,1
,,,,,,,,,,,,,,,,,5e7d11401ae8680ca60eed9e,36,2022-02-12_13h30.31.655,lexical_decision_task_DD_L2,2021.2.3,Win32,59.5167242,,,,,,,,,,,1.2857,1,,,,,,,,,,,,,,,,,,,,,,,,-0.582407398,-0.499074104,0,0,0,,,,,,,BEARD,C,m,y,./images/BEARD.png,,,,,,,,,,,,,,,,,,,,,m,1,1.2857,,,,,,,,0,47,47,2,1
,,,,,,,,,,,,,,,,,5e7d11401ae8680ca60eed9e,36,2022-02-12_13h30.31.655,lexical_decision_task_DD_L2,2021.2.3,Win32,59.5167242,,,,,,,,,,,0.7925,1,,,,,,,,,,,,,,,,,,,,,,,,-0.582407398,-0.499074104,0,0,0,,,,,,,POODLE,HB,m,y,./images/POODLEHB.png,,,,,,,,,,,,,,,,,,,,,m,1,0.7925,,,,,,,,0,48,48,81,1
,,,,,,,,,,,,,,,,,5e7d11401ae8680ca60eed9e,36,2022-02-12_13h30.31.655,lexical_decision_task_DD_L2,2021.2.3,Win32,59.5167242,,,,,,,,,,,0.9015,1,,,,,,,,,,,,,,,,,,,,,,,,-0.582407398,-0.499074104,0,0,0,,,,,,,BURIAL,C,m,y,./images/BURIAL.png,,,,,,,,,,,,,,,,,,,,,m,1,0.9015,,,,,,,,0,49,49,59,1
,,,,,,,,,,,,,,,,,5e7d11401ae8680ca60eed9e,36,2022-02-12_13h30.31.655,lexical_decision_task_DD_L2,2021.2.3,Win32,59.5167242,,,,,,,,,,,0.9347,0,,,,,,,,,,,,,,,,,,,,,,,,-0.582407398,-0.499074104,0,0,0,,,,,,,STATUE,HB,z,y,./images/STATUEHB.png,,,,,,,,,,,,,,,,,,,,,m,0,0.9347,,,,,,,,0,50,50,150,1
,,,,,,,,,,,,,,,,,5e7d11401ae8680ca60eed9e,36,2022-02-12_13h30.31.655,lexical_decision_task_DD_L2,2021.2.3,Win32,59.5167242,,,,,,,,,,,0.6209,1,,,,,,,,,,,,,,,,,,,,,,,,-0.582407398,-0.499074104,0,0,0,,,,,,,CRUST,LB,m,y,./images/CRUSTLB.png,,,,,,,,,,,,,,,,,,,,,m,1,0.6209,,,,,,,,0,51,51,79,1
,,,,,,,,,,,,,,,,,5e7d11401ae8680ca60eed9e,36,2022-02-12_13h30.31.655,lexical_decision_task_DD_L2,2021.2.3,Win32,59.5167242,,,,,,,,,,,0.9195,1,,,,,,,,,,,,,,,,,,,,,,,,-0.582407398,-0.499074104,0,0,0,,,,,,,PEARL,LB,m,y,./images/PEARLLB.png,,,,,,,,,,,,,,,,,,,,,m,1,0.9195,,,,,,,,0,52,52,46,1
,,,,,,,,,,,,,,,,,5e7d11401ae8680ca60eed9e,36,2022-02-12_13h30.31.655,lexical_decision_task_DD_L2,2021.2.3,Win32,59.5167242,,,,,,,,,,,2.3513,1,,,,,,,,,,,,,,,,,,,,,,,,-0.582407398,-0.499074104,0,0,0,,,,,,,INFANT,LB,m,y,./images/INFANTLB.png,,,,,,,,,,,,,,,,,,,,,m,1,2.3513,,,,,,,,0,53,53,76,1
,,,,,,,,,,,,,,,,,5e7d11401ae8680ca60eed9e,36,2022-02-12_13h30.31.655,lexical_decision_task_DD_L2,2021.2.3,Win32,59.5167242,,,,,,,,,,,1.0344,1,,,,,,,,,,,,,,,,,,,,,,,,-0.582407398,-0.499074104,0,0,0,,,,,,,PENCE,LB,m,y,./images/PENCELB.png,,,,,,,,,,,,,,,,,,,,,m,1,1.0344,,,,,,,,0,54,54,16,1
,,,,,,,,,,,,,,,,,5e7d11401ae8680ca60eed9e,36,2022-02-12_13h30.31.655,lexical_decision_task_DD_L2,2021.2.3,Win32,59.5167242,,,,,,,,,,,5.5925,0,,,,,,,,,,,,,,,,,,,,,,,,-0.582407398,-0.499074104,0,0,0,,,,,,,STAIN,HB,z,y,./images/STAINHB.png,,,,,,,,,,,,,,,,,,,,,m,0,5.5925,,,,,,,,0,55,55,90,1
,,,,,,,,,,,,,,,,,5e7d11401ae8680ca60eed9e,36,2022-02-12_13h30.31.655,lexical_decision_task_DD_L2,2021.2.3,Win32,59.5167242,,,,,,,,,,,2.534,1,,,,,,,,,,,,,,,,,,,,,,,,-0.582407398,-0.499074104,0,0,0,,,,,,,BRIDE,LB,z,y,./images/BRIDELB.png,,,,,,,,,,,,,,,,,,,,,z,1,2.534,,,,,,,,0,56,56,148,1
,,,,,,,,,,,,,,,,,5e7d11401ae8680ca60eed9e,36,2022-02-12_13h30.31.655,lexical_decision_task_DD_L2,2021.2.3,Win32,59.5167242,,,,,,,,,,,1.2093,0,,,,,,,,,,,,,,,,,,,,,,,,-0.585185176,-0.499074104,0,0,0,,,,,,,CLOUD,C,z,y,./images/CLOUD.png,,,,,,,,,,,,,,,,,,,,,m,0,1.2093,,,,,,,,0,57,57,110,1
,,,,,,,,,,,,,,,,,5e7d11401ae8680ca60eed9e,36,2022-02-12_13h30.31.655,lexical_decision_task_DD_L2,2021.2.3,Win32,59.5167242,,,,,,,,,,,1.8345,1,,,,,,,,,,,,,,,,,,,,,,,,-0.585185176,-0.499074104,0,0,0,,,,,,,SWING,LB,m,y,./images/SWINGLB.png,,,,,,,,,,,,,,,,,,,,,m,1,1.8345,,,,,,,,0,58,58,40,1
,,,,,,,,,,,,,,,,,5e7d11401ae8680ca60eed9e,36,2022-02-12_13h30.31.655,lexical_decision_task_DD_L2,2021.2.3,Win32,59.5167242,,,,,,,,,,,1.8034,1,,,,,,,,,,,,,,,,,,,,,,,,-0.585185176,-0.499074104,0,0,0,,,,,,,SAUNA,HB,z,y,./images/SAUNAHB.png,,,,,,,,,,,,,,,,,,,,,z,1,1.8034,,,,,,,,0,59,59,117,1
,,,,,,,,,,,,,,,,,5e7d11401ae8680ca60eed9e,36,2022-02-12_13h30.31.655,lexical_decision_task_DD_L2,2021.2.3,Win32,59.5167242,,,,,,,,,,,5.5226,0,,,,,,,,,,,,,,,,,,,,,,,,-0.587962954,-0.499074104,0,0,0,,,,,,,VALLEY,C,z,y,./images/VALLEY.png,,,,,,,,,,,,,,,,,,,,,m,0,5.5226,,,,,,,,0,60,60,152,1
,,,,,,,,,,,,,,,,,5e7d11401ae8680ca60eed9e,36,2022-02-12_13h30.31.655,lexical_decision_task_DD_L2,2021.2.3,Win32,59.5167242,,,,,,,,,,,3.4426,0,,,,,,,,,,,,,,,,,,,,,,,,-0.587962954,-0.499074104,0,0,0,,,,,,,TOWEL,LB,z,y,./images/TOWELLB.png,,,,,,,,,,,,,,,,,,,,,m,0,3.4426,,,,,,,,0,61,61,85,1
,,,,,,,,,,,,,,,,,5e7d11401ae8680ca60eed9e,36,2022-02-12_13h30.31.655,lexical_decision_task_DD_L2,2021.2.3,Win32,59.5167242,,,,,,,,,,,3.926,1,,,,,,,,,,,,,,,,,,,,,,,,-0.587962954,-0.499074104,0,0,0,,,,,,,CEMENT,C,m,y,./images/CEMENT.png,,,,,,,,,,,,,,,,,,,,,m,1,3.926,,,,,,,,0,62,62,74,1
,,,,,,,,,,,,,,,,,5e7d11401ae8680ca60eed9e,36,2022-02-12_13h30.31.655,lexical_decision_task_DD_L2,2021.2.3,Win32,59.5167242,,,,,,,,,,,2.5385,1,,,,,,,,,,,,,,,,,,,,,,,,-0.587962954,-0.499074104,0,0,0,,,,,,,WALRUS,C,m,y,./images/WALRUS.png,,,,,,,,,,,,,,,,,,,,,m,1,2.5385,,,,,,,,0,63,63,23,1
,,,,,,,,,,,,,,,,,5e7d11401ae8680ca60eed9e,36,2022-02-12_13h30.31.655,lexical_decision_task_DD_L2,2021.2.3,Win32,59.5167242,,,,,,,,,,,1.6529,1,,,,,,,,,,,,,,,,,,,,,,,,-0.587962954,-0.499074104,0,0,0,,,,,,,FERRY,HB,z,y,./images/FERRYHB.png,,,,,,,,,,,,,,,,,,,,,z,1,1.6529,,,,,,,,0,64,64,141,1
,,,,,,,,,,,,,,,,,5e7d11401ae8680ca60eed9e,36,2022-02-12_13h30.31.655,lexical_decision_task_DD_L2,2021.2.3,Win32,59.5167242,,,,,,,,,,,1.8919,1,,,,,,,,,,,,,,,,,,,,,,,,-0.589814806,-0.499074104,0,0,0,,,,,,,KITTEN,HB,m,y,./images/KITTENHB.png,,,,,,,,,,,,,,,,,,,,,m,1,1.8919,,,,,,,,0,65,65,45,1
,,,,,,,,,,,,,,,,,5e7d11401ae8680ca60eed9e,36,2022-02-12_13h30.31.655,lexical_decision_task_DD_L2,2021.2.3,Win32,59.5167242,,,,,,,,,,,0.6341,1,,,,,,,,,,,,,,,,,,,,,,,,-0.589814806,-0.499074104,0,0,0,,,,,,,SHORE,HB,m,y,./images/SHOREHB.png,,,,,,,,,,,,,,,,,,,,,m,1,0.6341,,,,,,,,0,66,66,12,1
,,,,,,,,,,,,,,,,,5e7d11401ae8680ca60eed9e,36,2022-02-12_13h30.31.655,lexical_decision_task_DD_L2,2021.2.3,Win32,59.5167242,,,,,,,,,,,3.2092,1,,,,,,,,,,,,,,,,,,,,,,,,-0.589814806,-0.499074104,0,0,0,,,,,,,BLOKE,HB,z,y,./images/BLOKEHB.png,,,,,,,,,,,,,,,,,,,,,z,1,3.2092,,,,,,,,0,67,67,96,1
,,,,,,,,,,,,,,,,,5e7d11401ae8680ca60eed9e,36,2022-02-12_13h30.31.655,lexical_decision_task_DD_L2,2021.2.3,Win32,59.5167242,,,,,,,,,,,0.7184,0,,,,,,,,,,,,,,,,,,,,,,,,-0.590740732,-0.499074104,0,0,0,,,,,,,COLLAR,HB,z,y,./images/COLLARHB.png,,,,,,,,,,,,,,,,,,,,,m,0,0.7184,,,,,,,,0,68,68,99,1
,,,,,,,,,,,,,,,,,5e7d11401ae8680ca60eed9e,36,2022-02-12_13h30.31.655,lexical_decision_task_DD_L2,2021.2.3,Win32,59.5167242,,,,,,,,,,,1.2259,1,,,,,,,,,,,,,,,,,,,,,,,,-0.590740732,-0.499074104,0,0,0,,,,,,,STRING,C,m,y,./images/STRING.png,,,,,,,,,,,,,,,,,,,,,m,1,1.2259,,,,,,,,0,69,69,41,1
,,,,,,,,,,,,,,,,,5e7d11401ae8680ca60eed9e,36,2022-02-12_13h30.31.655,lexical_decision_task_DD_L2,2021.2.3,Win32,59.5167242,,,,,,,,,,,1.7186,0,,,,,,,,,,,,,,,,,,,,,,,,-0.590740732,-0.499074104,0,0,0,,,,,,,SLOPE,HB,z,y,./images/SLOPEHB.png,,,,,,,,,,,,,,,,,,,,,m,0,1.7186,,,,,,,,0,70,70,114,1
,,,,,,,,,,,,,,,,,5e7d11401ae8680ca60eed9e,36,2022-02-12_13h30.31.655,lexical_decision_task_DD_L2,2021.2.3,Win32,59.5167242,,,,,,,,,,,5.578,1,,,,,,,,,,,,,,,,,,,,,,,,-0.590740732,-0.499074104,0,0,0,,,,,,,HEATER,C,z,y,./images/HEATER.png,,,,,,,,,,,,,,,,,,,,,z,1,5.578,,,,,,,,0,71,71,140,1
,,,,,,,,,,,,,,,,,5e7d11401ae8680ca60eed9e,36,2022-02-12_13h30.31.655,lexical_decision_task_DD_L2,2021.2.3,Win32,59.5167242,,,,,,,,,,,1.8511,0,,,,,,,,,,,,,,,,,,,,,,,,-0.590740732,-0.499074104,0,0,0,,,,,,,BOXER,LB,z,y,./images/BOXERLB.png,,,,,,,,,,,,,,,,,,,,,m,0,1.8511,,,,,,,,0,72,72,88,1
,,,,,,,,,,,,,,,,,5e7d11401ae8680ca60eed9e,36,2022-02-12_13h30.31.655,lexical_decision_task_DD_L2,2021.2.3,Win32,59.5167242,,,,,,,,,,,2.5627,0,,,,,,,,,,,,,,,,,,,,,,,,-0.590740732,-0.499074104,0,0,0,,,,,,,PEBBLE,LB,z,y,./images/PEBBLELB.png,,,,,,,,,,,,,,,,,,,,,m,0,2.5627,,,,,,,,0,73,73,166,1
,,,,,,,,,,,,,,,,,5e7d11401ae8680ca60eed9e,36,2022-02-12_13h30.31.655,lexical_decision_task_DD_L2,2021.2.3,Win32,59.5167242,,,,,,,,,,,3.1187,0,,,,,,,,,,,,,,,,,,,,,,,,-0.821296294,-0.492592622,0,0,0,,,,,,,BELLY,LB,m,y,./images/BELLYLB.png,,,,,,,,,,,,,,,,,,,,,z,0,3.1187,,,,,,,,0,74,74,10,1
,,,,,,,,,,,,,,,,,5e7d11401ae8680ca60eed9e,36,2022-02-12_13h30.31.655,lexical_decision_task_DD_L2,2021.2.3,Win32,59.5167242,,,,,,,,,,,1.4593,1,,,,,,,,,,,,,,,,,,,,,,,,-0.821296294,-0.492592622,0,0,0,,,,,,,WHEEL,C,z,y,./images/WHEEL.png,,,,,,,,,,,,,,,,,,,,,z,1,1.4593,,,,,,,,0,75,75,161,1
,,,,,,,,,,,,,,,,,5e7d11401ae8680ca60eed9e,36,2022-02-12_13h30.31.655,lexical_decision_task_DD_L2,2021.2.3,Win32,59.5167242,,,,,,,,,,,1.5495,1,,,,,,,,,,,,,,,,,,,,,,,,-0.821296294,-0.492592622,0,0,0,,,,,,,BANNER,LB,m,y,./images/BANNERLB.png,,,,,,,,,,,,,,,,,,,,,m,1,1.5495,,,,,,,,0,76,76,52,1
,,,,,,,,,,,,,,,,,5e7d11401ae8680ca60eed9e,36,2022-02-12_13h30.31.655,lexical_decision_task_DD_L2,2021.2.3,Win32,59.5167242,,,,,,,,,,,1.8734,1,,,,,,,,,,,,,,,,,,,,,,,,-0.821296294,-0.492592622,0,0,0,,,,,,,STOOL,LB,z,y,./images/STOOLLB.png,,,,,,,,,,,,,,,,,,,,,z,1,1.8734,,,,,,,,0,77,77,127,1
,,,,,,,,,,,,,,,,,5e7d11401ae8680ca60eed9e,36,2022-02-12_13h30.31.655,lexical_decision_task_DD_L2,2021.2.3,Win32,59.5167242,,,,,,,,,,,1.2842,0,,,,,,,,,,,,,,,,,,,,,,,,-0.823148146,-0.493518548,0,0,0,,,,,,,TRIPOD,HB,m,y,./images/TRIPODHB.png,,,,,,,,,,,,,,,,,,,,,z,0,1.2842,,,,,,,,0,78,78,54,1
,,,,,,,,,,,,,,,,,5e7d11401ae8680ca60eed9e,36,2022-02-12_13h30.31.655,lexical_decision_task_DD_L2,2021.2.3,Win32,59.5167242,,,,,,,,,,,1.3778,0,,,,,,,,,,,,,,,,,,,,,,,,-0.823148146,-0.494444474,0,0,0,,,,,,,BOILER,HB,z,y,./images/BOILERHB.png,,,,,,,,,,,,,,,,,,,,,m,0,1.3778,,,,,,,,0,79,79,120,1
,,,,,,,,,,,,,,,,,5e7d11401ae8680ca60eed9e,36,2022-02-12_13h30.31.655,lexical_decision_task_DD_L2,2021.2.3,Win32,59.5167242,,,,,,,,,,,2.0181,1,,,,,,,,,,,,,,,,,,,,,,,,-0.823148146,-0.494444474,0,0,0,,,,,,,BUNNY,LB,z,y,./images/BUNNYLB.png,,,,,,,,,,,,,,,,,,,,,z,1,2.0181,,,,,,,,0,80,80,97,1
,,,,,,,,,,,,,,,,,5e7d11401ae8680ca60eed9e,36,2022-02-12_13h30.31.655,lexical_decision_task_DD_L2,2021.2.3,Win32,59.5167242,,,,,,,,,,,1.0687,1,,,,,,,,,,,,,,,,,,,,,,,,-0.837037032,-0.499074104,0,0,0,,,,,,,FARMER,C,m,y,./images/FARMER.png,,,,,,,,,,,,,,,,,,,,,m,1,1.0687,,,,,,,,0,81,81,65,1
,,,,,,,,,,,,,,,,,5e7d11401ae8680ca60eed9e,36,2022-02-12_13h30.31.655,lexical_decision_task_DD_L2,2021.2.3,Win32,59.5167242,,,,,,,,,,,2.5842,1,,,,,,,,,,,,,,,,,,,,,,,,-0.837037032,-0.499074104,0,0,0,,,,,,,SQUARE,HB,m,y,./images/SQUAREHB.png,,,,,,,,,,,,,,,,,,,,,m,1,2.5842,,,,,,,,0,82,82,6,1
,,,,,,,,,,,,,,,,,5e7d11401ae8680ca60eed9e,36,2022-02-12_13h30.31.655,lexical_decision_task_DD_L2,2021.2.3,Win32,59.5167242,,,,,,,,,,,1.2203,1,,,,,,,,,,,,,,,,,,,,,,,,-0.837037032,-0.499074104,0,0,0,space,,,,,,ONION,HB,m,y,./images/ONIONHB.png,1.4843,,,,,,,,,,,,,,,,,,,,m,1,1.2203,,,,,,,,0,83,83,51,1
,,,,,,,,,,,,,,,,,5e7d11401ae8680ca60eed9e,36,2022-02-12_13h30.31.655,lexical_decision_task_DD_L2,2021.2.3,Win32,59.5167242,,,,,,,,,,,2.1015,1,,,,,,,,,,,,,,,,,,,,,,,,-0.837037032,-0.499074104,0,0,0,,,,,,,LIZARD,C,m,y,./images/LIZARD.png,,,,,,,,,,,,,,,,,,,,,m,1,2.1015,,,,,,,,0,84,84,44,1
,,,,,,,,,,,,,,,,,5e7d11401ae8680ca60eed9e,36,2022-02-12_13h30.31.655,lexical_decision_task_DD_L2,2021.2.3,Win32,59.5167242,,,,,,,,,,,1.3206,1,,,,,,,,,,,,,,,,,,,,,,,,-0.837037032,-0.499074104,0,0,0,,,,,,,CANYON,LB,m,y,./images/CANYONLB.png,,,,,,,,,,,,,,,,,,,,,m,1,1.3206,,,,,,,,0,85,85,34,1
,,,,,,,,,,,,,,,,,5e7d11401ae8680ca60eed9e,36,2022-02-12_13h30.31.655,lexical_decision_task_DD_L2,2021.2.3,Win32,59.5167242,,,,,,,,,,,3.2326,0,,,,,,,,,,,,,,,,,,,,,,,,-0.837037032,-0.499074104,0,0,0,,,,,,,ALLEY,LB,z,y,./images/ALLEYLB.png,,,,,,,,,,,,,,,,,,,,,m,0,3.2326,,,,,,,,0,86,86,139,1
,,,,,,,,,,,,,,,,,5e7d11401ae8680ca60eed9e,36,2022-02-12_13h30.31.655,lexical_decision_task_DD_L2,2021.2.3,Win32,59.5167242,,,,,,,,,,,2.4177,0,,,,,,,,,,,,,,,,,,,,,,,,-0.837037032,-0.499074104,0,0,0,,,,,,,CLOTH,C,z,y,./images/CLOTH.png,,,,,,,,,,,,,,,,,,,,,m,0,2.4177,,,,,,,,0,87,87,107,1
,,,,,,,,,,,,,,,,,5e7d11401ae8680ca60eed9e,36,2022-02-12_13h30.31.655,lexical_decision_task_DD_L2,2021.2.3,Win32,59.5167242,,,,,,,,,,,2.7319,0,,,,,,,,,,,,,,,,,,,,,,,,-0.837037032,-0.499074104,0,0,0,,,,,,,BRUSH,C,z,y,./images/BRUSH.png,,,,,,,,,,,,,,,,,,,,,m,0,2.7319,,,,,,,,0,88,88,143,1
,,,,,,,,,,,,,,,,,5e7d11401ae8680ca60eed9e,36,2022-02-12_13h30.31.655,lexical_decision_task_DD_L2,2021.2.3,Win32,59.5167242,,,,,,,,,,,7.2713,1,,,,,,,,,,,,,,,,,,,,,,,,-0.837037032,-0.499074104,0,0,0,,,,,,,WAGON,LB,z,y,./images/WAGONLB.png,,,,,,,,,,,,,,,,,,,,,z,1,7.2713,,,,,,,,0,89,89,91,1
,,,,,,,,,,,,,,,,,5e7d11401ae8680ca60eed9e,36,2022-02-12_13h30.31.655,lexical_decision_task_DD_L2,2021.2.3,Win32,59.5167242,,,,,,,,,,,1.9349,1,,,,,,,,,,,,,,,,,,,,,,,,-0.837037032,-0.499074104,0,0,0,,,,,,,SKIING,C,m,y,./images/SKIING.png,,,,,,,,,,,,,,,,,,,,,m,1,1.9349,,,,,,,,0,90,90,17,1
,,,,,,,,,,,,,,,,,5e7d11401ae8680ca60eed9e,36,2022-02-12_13h30.31.655,lexical_decision_task_DD_L2,2021.2.3,Win32,59.5167242,,,,,,,,,,,0.598,0,,,,,,,,,,,,,,,,,,,,,,,,-0.837037032,-0.499074104,0,0,0,,,,,,,SNAKE,LB,z,y,./images/SNAKELB.png,,,,,,,,,,,,,,,,,,,,,m,0,0.598,,,,,,,,0,91,91,124,1
,,,,,,,,,,,,,,,,,5e7d11401ae8680ca60eed9e,36,2022-02-12_13h30.31.655,lexical_decision_task_DD_L2,2021.2.3,Win32,59.5167242,,,,,,,,,,,0.6811,1,,,,,,,,,,,,,,,,,,,,,,,,-0.837037032,-0.499074104,0,0,0,,,,,,,URINE,LB,m,y,./images/URINELB.png,,,,,,,,,,,,,,,,,,,,,m,1,0.6811,,,,,,,,0,92,92,70,1
,,,,,,,,,,,,,,,,,5e7d11401ae8680ca60eed9e,36,2022-02-12_13h30.31.655,lexical_decision_task_DD_L2,2021.2.3,Win32,59.5167242,,,,,,,,,,,2.9343,1,,,,,,,,,,,,,,,,,,,,,,,,-0.837037032,-0.499074104,0,0,0,,,,,,,COOKER,HB,m,y,./images/COOKERHB.png,,,,,,,,,,,,,,,,,,,,,m,1,2.9343,,,,,,,,0,93,93,69,1
,,,,,,,,,,,,,,,,,5e7d11401ae8680ca60eed9e,36,2022-02-12_13h30.31.655,lexical_decision_task_DD_L2,2021.2.3,Win32,59.5167242,,,,,,,,,,,1.4615,1,,,,,,,,,,,,,,,,,,,,,,,,-0.837037032,-0.499074104,0,0,0,,,,,,,CHERRY,HB,z,y,./images/CHERRYHB.png,,,,,,,,,,,,,,,,,,,,,z,1,1.4615,,,,,,,,0,94,94,138,1
,,,,,,,,,,,,,,,,,5e7d11401ae8680ca60eed9e,36,2022-02-12_13h30.31.655,lexical_decision_task_DD_L2,2021.2.3,Win32,59.5167242,,,,,,,,,,,2.3448,1,,,,,,,,,,,,,,,,,,,,,,,,-0.837037032,-0.499074104,0,0,0,,,,,,,CLIFF,C,z,y,./images/CLIFF.png,,,,,,,,,,,,,,,,,,,,,z,1,2.3448,,,,,,,,0,95,95,92,1
,,,,,,,,,,,,,,,,,5e7d11401ae8680ca60eed9e,36,2022-02-12_13h30.31.655,lexical_decision_task_DD_L2,2021.2.3,Win32,59.5167242,,,,,,,,,,,2.7017,0,,,,,,,,,,,,,,,,,,,,,,,,-0.837037032,-0.499074104,0,0,0,,,,,,,WEASEL,C,m,y,./images/WEASEL.png,,,,,,,,,,,,,,,,,,,,,z,0,2.7017,,,,,,,,0,96,96,80,1
,,,,,,,,,,,,,,,,,5e7d11401ae8680ca60eed9e,36,2022-02-12_13h30.31.655,lexical_decision_task_DD_L2,2021.2.3,Win32,59.5167242,,,,,,,,,,,1.766,0,,,,,,,,,,,,,,,,,,,,,,,,-0.837037032,-0.499074104,0,0,0,,,,,,,FENCE,C,z,y,./images/FENCE.png,,,,,,,,,,,,,,,,,,,,,m,0,1.766,,,,,,,,0,97,97,98,1
,,,,,,,,,,,,,,,,,5e7d11401ae8680ca60eed9e,36,2022-02-12_13h30.31.655,lexical_decision_task_DD_L2,2021.2.3,Win32,59.5167242,,,,,,,,,,,1.4319,0,,,,,,,,,,,,,,,,,,,,,,,,-0.837037032,-0.499074104,0,0,0,,,,,,,BROOM,HB,z,y,./images/BROOMHB.png,,,,,,,,,,,,,,,,,,,,,m,0,1.4319,,,,,,,,0,98,98,162,1
,,,,,,,,,,,,,,,,,5e7d11401ae8680ca60eed9e,36,2022-02-12_13h30.31.655,lexical_decision_task_DD_L2,2021.2.3,Win32,59.5167242,,,,,,,,,,,1.734,0,,,,,,,,,,,,,,,,,,,,,,,,-0.837037032,-0.499074104,0,0,0,,,,,,,FINGER,HB,m,y,./images/FINGERHB.png,,,,,,,,,,,,,,,,,,,,,z,0,1.734,,,,,,,,0,99,99,3,1
,,,,,,,,,,,,,,,,,5e7d11401ae8680ca60eed9e,36,2022-02-12_13h30.31.655,lexical_decision_task_DD_L2,2021.2.3,Win32,59.5167242,,,,,,,,,,,1.7514,0,,,,,,,,,,,,,,,,,,,,,,,,-0.837037032,-0.499074104,0,0,0,,,,,,,RULER,LB,z,y,./images/RULERLB.png,,,,,,,,,,,,,,,,,,,,,m,0,1.7514,,,,,,,,0,100,100,163,1
,,,,,,,,,,,,,,,,,5e7d11401ae8680ca60eed9e,36,2022-02-12_13h30.31.655,lexical_decision_task_DD_L2,2021.2.3,Win32,59.5167242,,,,,,,,,,,0.684,1,,,,,,,,,,,,,,,,,,,,,,,,-0.837037032,-0.499074104,0,0,0,,,,,,,MOTOR,LB,m,y,./images/MOTORLB.png,,,,,,,,,,,,,,,,,,,,,m,1,0.684,,,,,,,,0,101,101,13,1
,,,,,,,,,,,,,,,,,5e7d11401ae8680ca60eed9e,36,2022-02-12_13h30.31.655,lexical_decision_task_DD_L2,2021.2.3,Win32,59.5167242,,,,,,,,,,,1.0865,1,,,,,,,,,,,,,,,,,,,,,,,,-0.837037032,-0.499074104,0,0,0,,,,,,,THROAT,HB,m,y,./images/THROATHB.png,,,,,,,,,,,,,,,,,,,,,m,1,1.0865,,,,,,,,0,102,102,36,1
,,,,,,,,,,,,,,,,,5e7d11401ae8680ca60eed9e,36,2022-02-12_13h30.31.655,lexical_decision_task_DD_L2,2021.2.3,Win32,59.5167242,,,,,,,,,,,0.8191,0,,,,,,,,,,,,,,,,,,,,,,,,-0.837037032,-0.499074104,0,0,0,,,,,,,DESERT,LB,z,y,./images/DESERTLB.png,,,,,,,,,,,,,,,,,,,,,m,0,0.8191,,,,,,,,0,103,103,136,1
,,,,,,,,,,,,,,,,,5e7d11401ae8680ca60eed9e,36,2022-02-12_13h30.31.655,lexical_decision_task_DD_L2,2021.2.3,Win32,59.5167242,,,,,,,,,,,1.0514,1,,,,,,,,,,,,,,,,,,,,,,,,-0.837037032,-0.499074104,0,0,0,,,,,,,PASTA,C,m,y,./images/PASTA.png,,,,,,,,,,,,,,,,,,,,,m,1,1.0514,,,,,,,,0,104,104,5,1
,,,,,,,,,,,,,,,,,5e7d11401ae8680ca60eed9e,36,2022-02-12_13h30.31.655,lexical_decision_task_DD_L2,2021.2.3,Win32,59.5167242,,,,,,,,,,,0.6618,1,,,,,,,,,,,,,,,,,,,,,,,,-0.837037032,-0.499074104,0,0,0,,,,,,,COUCH,C,m,y,./images/COUCH.png,,,,,,,,,,,,,,,,,,,,,m,1,0.6618,,,,,,,,0,105,105,77,1
,,,,,,,,,,,,,,,,,5e7d11401ae8680ca60eed9e,36,2022-02-12_13h30.31.655,lexical_decision_task_DD_L2,2021.2.3,Win32,59.5167242,,,,,,,,,,,1.5906,0,,,,,,,,,,,,,,,,,,,,,,,,-0.837037032,-0.499074104,0,0,0,,,,,,,PLANK,LB,m,y,./images/PLANKLB.png,,,,,,,,,,,,,,,,,,,,,z,0,1.5906,,,,,,,,0,106,106,1,1
,,,,,,,,,,,,,,,,,5e7d11401ae8680ca60eed9e,36,2022-02-12_13h30.31.655,lexical_decision_task_DD_L2,2021.2.3,Win32,59.5167242,,,,,,,,,,,1.153,1,,,,,,,,,,,,,,,,,,,,,,,,-0.837037032,-0.499074104,0,0,0,,,,,,,STORM,HB,m,y,./images/STORMHB.png,,,,,,,,,,,,,,,,,,,,,m,1,1.153,,,,,,,,0,107,107,30,1
,,,,,,,,,,,,,,,,,5e7d11401ae8680ca60eed9e,36,2022-02-12_13h30.31.655,lexical_decision_task_DD_L2,2021.2.3,Win32,59.5167242,,,,,,,,,,,1.1946,1,,,,,,,,,,,,,,,,,,,,,,,,-0.837037032,-0.499074104,0,0,0,,,,,,,GRAIN,HB,m,y,./images/GRAINHB.png,,,,,,,,,,,,,,,,,,,,,m,1,1.1946,,,,,,,,0,108,108,75,1
,,,,,,,,,,,,,,,,,5e7d11401ae8680ca60eed9e,36,2022-02-12_13h30.31.655,lexical_decision_task_DD_L2,2021.2.3,Win32,59.5167242,,,,,,,,,,,1.1527,1,,,,,,,,,,,,,,,,,,,,,,,,-0.837037032,-0.499074104,0,0,0,,,,,,,WRIST,LB,m,y,./images/WRISTLB.png,,,,,,,,,,,,,,,,,,,,,m,1,1.1527,,,,,,,,0,109,109,25,1
,,,,,,,,,,,,,,,,,5e7d11401ae8680ca60eed9e,36,2022-02-12_13h30.31.655,lexical_decision_task_DD_L2,2021.2.3,Win32,59.5167242,,,,,,,,,,,0.8182,1,,,,,,,,,,,,,,,,,,,,,,,,-0.837037032,-0.499074104,0,0,0,,,,,,,DOUGH,LB,m,y,./images/DOUGHLB.png,,,,,,,,,,,,,,,,,,,,,m,1,0.8182,,,,,,,,0,110,110,19,1
,,,,,,,,,,,,,,,,,5e7d11401ae8680ca60eed9e,36,2022-02-12_13h30.31.655,lexical_decision_task_DD_L2,2021.2.3,Win32,59.5167242,,,,,,,,,,,0.9511,0,,,,,,,,,,,,,,,,,,,,,,,,-0.837037032,-0.499074104,0,0,0,,,,,,,BAKER,HB,z,y,./images/BAKERHB.png,,,,,,,,,,,,,,,,,,,,,m,0,0.9511,,,,,,,,0,111,111,147,1
,,,,,,,,,,,,,,,,,5e7d11401ae8680ca60eed9e,36,2022-02-12_13h30.31.655,lexical_decision_task_DD_L2,2021.2.3,Win32,59.5167242,,,,,,,,,,,0.8504,1,,,,,,,,,,,,,,,,,,,,,,,,-0.837037032,-0.499074104,0,0,0,,,,,,,LITTER,HB,m,y,./images/LITTERHB.png,,,,,,,,,,,,,,,,,,,,,m,1,0.8504,,,,,,,,0,112,112,78,1
,,,,,,,,,,,,,,,,,5e7d11401ae8680ca60eed9e,36,2022-02-12_13h30.31.655,lexical_decision_task_DD_L2,2021.2.3,Win32,59.5167242,,,,,,,,,,,1.5351,1,,,,,,,,,,,,,,,,,,,,,,,,-0.837037032,-0.499074104,0,0,0,,,,,,,CURRY,HB,z,y,./images/CURRYHB.png,,,,,,,,,,,,,,,,,,,,,z,1,1.5351,,,,,,,,0,113,113,144,1
,,,,,,,,,,,,,,,,,5e7d11401ae8680ca60eed9e,36,2022-02-12_13h30.31.655,lexical_decision_task_DD_L2,2021.2.3,Win32,59.5167242,,,,,,,,,,,1.8516,1,,,,,,,,,,,,,,,,,,,,,,,,-0.837037032,-0.499074104,0,0,0,,,,,,,POSTER,C,z,y,./images/POSTER.png,,,,,,,,,,,,,,,,,,,,,z,1,1.8516,,,,,,,,0,114,114,137,1
,,,,,,,,,,,,,,,,,5e7d11401ae8680ca60eed9e,36,2022-02-12_13h30.31.655,lexical_decision_task_DD_L2,2021.2.3,Win32,59.5167242,,,,,,,,,,,1.1808,1,,,,,,,,,,,,,,,,,,,,,,,,-0.837037032,-0.499074104,0,0,0,,,,,,,SHELF,HB,m,y,./images/SHELFHB.png,,,,,,,,,,,,,,,,,,,,,m,1,1.1808,,,,,,,,0,115,115,39,1
,,,,,,,,,,,,,,,,,5e7d11401ae8680ca60eed9e,36,2022-02-12_13h30.31.655,lexical_decision_task_DD_L2,2021.2.3,Win32,59.5167242,,,,,,,,,,,0.8642,1,,,,,,,,,,,,,,,,,,,,,,,,-0.837037032,-0.499074104,0,0,0,,,,,,,CANDLE,LB,m,y,./images/CANDLELB.png,,,,,,,,,,,,,,,,,,,,,m,1,0.8642,,,,,,,,0,116,116,61,1
,,,,,,,,,,,,,,,,,5e7d11401ae8680ca60eed9e,36,2022-02-12_13h30.31.655,lexical_decision_task_DD_L2,2021.2.3,Win32,59.5167242,,,,,,,,,,,1.3811,0,,,,,,,,,,,,,,,,,,,,,,,,-0.837037032,-0.499074104,0,0,0,,,,,,,TOMATO,HB,m,y,./images/TOMATOHB.png,,,,,,,,,,,,,,,,,,,,,z,0,1.3811,,,,,,,,0,117,117,0,1
,,,,,,,,,,,,,,,,,5e7d11401ae8680ca60eed9e,36,2022-02-12_13h30.31.655,lexical_decision_task_DD_L2,2021.2.3,Win32,59.5167242,,,,,,,,,,,1.0345,1,,,,,,,,,,,,,,,,,,,,,,,,-0.837962961,-0.499074104,0,0,0,,,,,,,BISHOP,LB,z,y,./images/BISHOPLB.png,,,,,,,,,,,,,,,,,,,,,z,1,1.0345,,,,,,,,0,118,118,133,1
,,,,,,,,,,,,,,,,,5e7d11401ae8680ca60eed9e,36,2022-02-12_13h30.31.655,lexical_decision_task_DD_L2,2021.2.3,Win32,59.5167242,,,,,,,,,,,0.8573,1,,,,,,,,,,,,,,,,,,,,,,,,-0.837962961,-0.499074104,0,0,0,,,,,,,CRUMB,C,m,y,./images/CRUMB.png,,,,,,,,,,,,,,,,,,,,,m,1,0.8573,,,,,,,,0,119,119,29,1
,,,,,,,,,,,,,,,,,5e7d11401ae8680ca60eed9e,36,2022-02-12_13h30.31.655,lexical_decision_task_DD_L2,2021.2.3,Win32,59.5167242,,,,,,,,,,,1.1183,1,,,,,,,,,,,,,,,,,,,,,,,,-0.837962961,-0.499074104,0,0,0,,,,,,,BIRTH,LB,m,y,./images/BIRTHLB.png,,,,,,,,,,,,,,,,,,,,,m,1,1.1183,,,,,,,,0,120,120,37,1
,,,,,,,,,,,,,,,,,5e7d11401ae8680ca60eed9e,36,2022-02-12_13h30.31.655,lexical_decision_task_DD_L2,2021.2.3,Win32,59.5167242,,,,,,,,,,,1.0508,0,,,,,,,,,,,,,,,,,,,,,,,,-0.837962961,-0.499074104,0,0,0,,,,,,,BABOON,LB,m,y,./images/BABOONLB.png,,,,,,,,,,,,,,,,,,,,,z,0,1.0508,,,,,,,,0,121,121,58,1
,,,,,,,,,,,,,,,,,5e7d11401ae8680ca60eed9e,36,2022-02-12_13h30.31.655,lexical_decision_task_DD_L2,2021.2.3,Win32,59.5167242,,,,,,,,,,,1.2013,0,,,,,,,,,,,,,,,,,,,,,,,,-0.837962961,-0.499074104,0,0,0,,,,,,,TORCH,C,m,y,./images/TORCH.png,,,,,,,,,,,,,,,,,,,,,z,0,1.2013,,,,,,,,0,122,122,68,1
,,,,,,,,,,,,,,,,,5e7d11401ae8680ca60eed9e,36,2022-02-12_13h30.31.655,lexical_decision_task_DD_L2,2021.2.3,Win32,59.5167242,,,,,,,,,,,0.6526,1,,,,,,,,,,,,,,,,,,,,,,,,-0.837962961,-0.499074104,0,0,0,,,,,,,FLASK,HB,z,y,./images/FLASKHB.png,,,,,,,,,,,,,,,,,,,,,z,1,0.6526,,,,,,,,0,123,123,156,1
,,,,,,,,,,,,,,,,,5e7d11401ae8680ca60eed9e,36,2022-02-12_13h30.31.655,lexical_decision_task_DD_L2,2021.2.3,Win32,59.5167242,,,,,,,,,,,0.6849,0,,,,,,,,,,,,,,,,,,,,,,,,-0.837962961,-0.499074104,0,0,0,,,,,,,SPORT,HB,m,y,./images/SPORTHB.png,,,,,,,,,,,,,,,,,,,,,z,0,0.6849,,,,,,,,0,124,124,48,1
,,,,,,,,,,,,,,,,,5e7d11401ae8680ca60eed9e,36,2022-02-12_13h30.31.655,lexical_decision_task_DD_L2,2021.2.3,Win32,59.5167242,,,,,,,,,,,0.6921,0,,,,,,,,,,,,,,,,,,,,,,,,-0.837962961,-0.499074104,0,0,0,space,,,,,,CRADLE,C,m,y,./images/CRADLE.png,1.434,,,,,,,,,,,,,,,,,,,,z,0,0.6921,,,,,,,,0,125,125,20,1
,,,,,,,,,,,,,,,,,5e7d11401ae8680ca60eed9e,36,2022-02-12_13h30.31.655,lexical_decision_task_DD_L2,2021.2.3,Win32,59.5167242,,,,,,,,,,,4.4986,1,,,,,,,,,,,,,,,,,,,,,,,,-0.837962961,-0.499074104,0,0,0,,,,,,,CLOWN,LB,z,y,./images/CLOWNLB.png,,,,,,,,,,,,,,,,,,,,,z,1,4.4986,,,,,,,,0,126,126,106,1
,,,,,,,,,,,,,,,,,5e7d11401ae8680ca60eed9e,36,2022-02-12_13h30.31.655,lexical_decision_task_DD_L2,2021.2.3,Win32,59.5167242,,,,,,,,,,,0.6561,1,,,,,,,,,,,,,,,,,,,,,,,,-0.837962961,-0.499074104,0,0,0,,,,,,,SHIELD,HB,z,y,./images/SHIELDHB.png,,,,,,,,,,,,,,,,,,,,,z,1,0.6561,,,,,,,,0,127,127,132,1
,,,,,,,,,,,,,,,,,5e7d11401ae8680ca60eed9e,36,2022-02-12_13h30.31.655,lexical_decision_task_DD_L2,2021.2.3,Win32,59.5167242,,,,,,,,,,,3.0513,1,,,,,,,,,,,,,,,,,,,,,,,,-0.837962961,-0.499074104,0,0,0,,,,,,,PARADE,C,z,y,./images/PARADE.png,,,,,,,,,,,,,,,,,,,,,z,1,3.0513,,,,,,,,0,128,128,101,1
,,,,,,,,,,,,,,,,,5e7d11401ae8680ca60eed9e,36,2022-02-12_13h30.31.655,lexical_decision_task_DD_L2,2021.2.3,Win32,59.5167242,,,,,,,,,,,1.0318,1,,,,,,,,,,,,,,,,,,,,,,,,-0.837962961,-0.499074104,0,0,0,,,,,,,CRATER,HB,z,y,./images/CRATERHB.png,,,,,,,,,,,,,,,,,,,,,z,1,1.0318,,,,,,,,0,129,129,87,1
,,,,,,,,,,,,,,,,,5e7d11401ae8680ca60eed9e,36,2022-02-12_13h30.31.655,lexical_decision_task_DD_L2,2021.2.3,Win32,59.5167242,,,,,,,,,,,2.9156,0,,,,,,,,,,,,,,,,,,,,,,,,-0.837962961,-0.499074104,0,0,0,,,,,,,DRUMS,LB,m,y,./images/DRUMSLB.png,,,,,,,,,,,,,,,,,,,,,z,0,2.9156,,,,,,,,0,130,130,49,1
,,,,,,,,,,,,,,,,,5e7d11401ae8680ca60eed9e,36,2022-02-12_13h30.31.655,lexical_decision_task_DD_L2,2021.2.3,Win32,59.5167242,,,,,,,,,,,1.035,0,,,,,,,,,,,,,,,,,,,,,,,,-0.837962961,-0.499074104,0,0,0,,,,,,,HAMMER,HB,z,y,./images/HAMMERHB.png,,,,,,,,,,,,,,,,,,,,,m,0,1.035,,,,,,,,0,131,131,159,1
