key_resp.keys,instr_done_touch.x,instr_done_touch.y,instr_done_touch.leftButton,instr_done_touch.midButton,instr_done_touch.rightButton,instr_done_touch.clicked_name,instruction_pages.thisRepN,instruction_pages.thisTrialN,instruction_pages.thisN,instruction_pages.thisIndex,instruction_pages.ran,pageN,phase,instruct_text,has_image,instruct_image,participant,age,date,expName,psychopyVersion,OS,frameRate,key_resp.rt,response.keys,response.corr,response.rt,touch_resp.x,touch_resp.y,touch_resp.leftButton,touch_resp.midButton,touch_resp.rightButton,touch_resp.time,touch_resp.clicked_name,rt,corr,practrials.thisRepN,practrials.thisTrialN,practrials.thisN,practrials.thisIndex,practrials.ran,TrialID,Target,corrAns,end_of_practice_trials_pages.thisRepN,end_of_practice_trials_pages.thisTrialN,end_of_practice_trials_pages.thisN,end_of_practice_trials_pages.thisIndex,end_of_practice_trials_pages.ran,key_resp_2.keys,key_resp_2.corr,key_resp_2.rt,targ_click.x,targ_click.y,targ_click.leftButton,targ_click.midButton,targ_click.rightButton,targ_click.time,targ_click.clicked_name,break_done_touch.x,break_done_touch.y,break_done_touch.leftButton,break_done_touch.midButton,break_done_touch.rightButton,break_done_keyboard.keys,maintrials.thisRepN,maintrials.thisTrialN,maintrials.thisN,maintrials.thisIndex,maintrials.ran,string,blur,study,lex,stim_path,break_done_keyboard.rt,mouse_2.x,mouse_2.y,mouse_2.leftButton,mouse_2.midButton,mouse_2.rightButton,mouse_2.clicked_name,slider.response,slider.rt,trials.thisRepN,trials.thisTrialN,trials.thisN,trials.thisIndex,trials.ran,test_instructions.thisRepN,test_instructions.thisTrialN,test_instructions.thisN,test_instructions.thisIndex,test_instructions.ran,key_resp_3.keys,key_resp_3.corr,key_resp_3.rt,test_click.x,test_click.y,test_click.leftButton,test_click.midButton,test_click.rightButton,test_click.time,test_click.clicked_name,test_phase.thisRepN,test_phase.thisTrialN,test_phase.thisN,test_phase.thisIndex,test_phase.ran
,0.013368056,-0.396145833,1,0,0,instr_done_button,0,0,0,0,1,1,instructions,"INSTRUCTIONS
At the start of each trial, look at the plus sign  (+) in the center of the screen.  This tells you that a trial is about to begin and where to look. Second, the plus sign will disappear and a string of letters will appear. Your task is to determine if the string of letters is a word or not. If the item is a word press the M key (on keyboard)  or touch the word button (phone/tablet).  If the item is not a word,  press the  Z key (on keyboard)  or touch the nonword button (on phone/tablet). 
Press the space bar or touch  continue.",0,,5e7d031be805560ae6b93dba,32,2022-02-12_10h38.08.457,lexical_decision_task_DD_L3,2021.2.3,MacIntel,60.0024001,,,,,,,,,,,,,,,,,,,,,,,,,,,,,,,,,,,,,,,,,,,,,,,,,,,,,,,,,,,,,,,,,,,,,,,,,,,,,,,,,,,,,,
space,0.369140625,-0.360963542,0,0,0,,0,1,1,1,1,2,instructions,"If your device has a keyboard, press the 'Z' key for nonwords and the 'M' key for words.





Press the space bar or touch the button below to continue.",0,keyboard-example.gif,5e7d031be805560ae6b93dba,32,2022-02-12_10h38.08.457,lexical_decision_task_DD_L3,2021.2.3,MacIntel,60.0024001,37.436,,,,,,,,,,,,,,,,,,,,,,,,,,,,,,,,,,,,,,,,,,,,,,,,,,,,,,,,,,,,,,,,,,,,,,,,,,,,,,,,,,,,,
space,0.369140625,-0.360963542,0,0,0,,0,2,2,2,1,3,instructions,"If you are using a touchscreen only device, use the buttons on the screen. Do not use the mouse.





Press the space bar or touch the button below to continue.",0,touchscreen-example.gif,5e7d031be805560ae6b93dba,32,2022-02-12_10h38.08.457,lexical_decision_task_DD_L3,2021.2.3,MacIntel,60.0024001,5.6533,,,,,,,,,,,,,,,,,,,,,,,,,,,,,,,,,,,,,,,,,,,,,,,,,,,,,,,,,,,,,,,,,,,,,,,,,,,,,,,,,,,,,
space,0.712113715,-0.499978299,0,0,0,,0,3,3,3,1,4,instructions,"It is very important that you respond as quickly and accurately as possible, as each letter string will only be on the screen for two seconds. If you do not respond within this time, the message 'Too slow!' will be displayed and the experiment will progress to the next letter string. The first 20 trials will be practice trials and you will receive feedback on your answers. 

Press the space bar or touch the button below to start the practice trials.",0,,5e7d031be805560ae6b93dba,32,2022-02-12_10h38.08.457,lexical_decision_task_DD_L3,2021.2.3,MacIntel,60.0024001,114.8578,,,,,,,,,,,,,,,,,,,,,,,,,,,,,,,,,,,,,,,,,,,,,,,,,,,,,,,,,,,,,,,,,,,,,,,,,,,,,,,,,,,,,
,,,,,,,,,,,,,,,,,5e7d031be805560ae6b93dba,32,2022-02-12_10h38.08.457,lexical_decision_task_DD_L3,2021.2.3,MacIntel,60.0024001,,m,1,0.8998,,,,,,,,0.8998,1,0,0,0,1,1,1001,ADJUST,m,,,,,,,,,,,,,,,,,,,,,,,,,,,,,,,,,,,,,,,,,,,,,,,,,,,,,,,,,,,,,,,,,
,,,,,,,,,,,,,,,,,5e7d031be805560ae6b93dba,32,2022-02-12_10h38.08.457,lexical_decision_task_DD_L3,2021.2.3,MacIntel,60.0024001,,m,1,0.8914,,,,,,,,0.8914,1,0,1,1,0,1,1001,UTOPIA,m,,,,,,,,,,,,,,,,,,,,,,,,,,,,,,,,,,,,,,,,,,,,,,,,,,,,,,,,,,,,,,,,,
,,,,,,,,,,,,,,,,,5e7d031be805560ae6b93dba,32,2022-02-12_10h38.08.457,lexical_decision_task_DD_L3,2021.2.3,MacIntel,60.0024001,,z,1,1.2195,,,,,,,,1.2195,1,0,2,2,11,1,1001,RASHET,z,,,,,,,,,,,,,,,,,,,,,,,,,,,,,,,,,,,,,,,,,,,,,,,,,,,,,,,,,,,,,,,,,
,,,,,,,,,,,,,,,,,5e7d031be805560ae6b93dba,32,2022-02-12_10h38.08.457,lexical_decision_task_DD_L3,2021.2.3,MacIntel,60.0024001,,m,1,0.498,,,,,,,,0.498,1,0,3,3,4,1,1001,SQUEAK,m,,,,,,,,,,,,,,,,,,,,,,,,,,,,,,,,,,,,,,,,,,,,,,,,,,,,,,,,,,,,,,,,,
,,,,,,,,,,,,,,,,,5e7d031be805560ae6b93dba,32,2022-02-12_10h38.08.457,lexical_decision_task_DD_L3,2021.2.3,MacIntel,60.0024001,,m,1,0.5731,,,,,,,,0.5731,1,0,4,4,7,1,1001,VOLUME,m,,,,,,,,,,,,,,,,,,,,,,,,,,,,,,,,,,,,,,,,,,,,,,,,,,,,,,,,,,,,,,,,,
,,,,,,,,,,,,,,,,,5e7d031be805560ae6b93dba,32,2022-02-12_10h38.08.457,lexical_decision_task_DD_L3,2021.2.3,MacIntel,60.0024001,,z,1,0.6637,,,,,,,,0.6637,1,0,5,5,14,1,1001,THRALE,z,,,,,,,,,,,,,,,,,,,,,,,,,,,,,,,,,,,,,,,,,,,,,,,,,,,,,,,,,,,,,,,,,
,,,,,,,,,,,,,,,,,5e7d031be805560ae6b93dba,32,2022-02-12_10h38.08.457,lexical_decision_task_DD_L3,2021.2.3,MacIntel,60.0024001,,z,1,0.8584,,,,,,,,0.8584,1,0,6,6,12,1,1001,SPRINY,z,,,,,,,,,,,,,,,,,,,,,,,,,,,,,,,,,,,,,,,,,,,,,,,,,,,,,,,,,,,,,,,,,
,,,,,,,,,,,,,,,,,5e7d031be805560ae6b93dba,32,2022-02-12_10h38.08.457,lexical_decision_task_DD_L3,2021.2.3,MacIntel,60.0024001,,m,1,0.5327,,,,,,,,0.5327,1,0,7,7,5,1,1001,OBTAIN,m,,,,,,,,,,,,,,,,,,,,,,,,,,,,,,,,,,,,,,,,,,,,,,,,,,,,,,,,,,,,,,,,,
,,,,,,,,,,,,,,,,,5e7d031be805560ae6b93dba,32,2022-02-12_10h38.08.457,lexical_decision_task_DD_L3,2021.2.3,MacIntel,60.0024001,,z,1,0.6132,,,,,,,,0.6132,1,0,8,8,9,1,1001,FARINY,z,,,,,,,,,,,,,,,,,,,,,,,,,,,,,,,,,,,,,,,,,,,,,,,,,,,,,,,,,,,,,,,,,
,,,,,,,,,,,,,,,,,5e7d031be805560ae6b93dba,32,2022-02-12_10h38.08.457,lexical_decision_task_DD_L3,2021.2.3,MacIntel,60.0024001,,z,1,0.5603,,,,,,,,0.5603,1,0,9,9,15,1,1001,WHAISE,z,,,,,,,,,,,,,,,,,,,,,,,,,,,,,,,,,,,,,,,,,,,,,,,,,,,,,,,,,,,,,,,,,
,,,,,,,,,,,,,,,,,5e7d031be805560ae6b93dba,32,2022-02-12_10h38.08.457,lexical_decision_task_DD_L3,2021.2.3,MacIntel,60.0024001,,z,1,0.5988,,,,,,,,0.5988,1,0,10,10,10,1,1001,INLADE,z,,,,,,,,,,,,,,,,,,,,,,,,,,,,,,,,,,,,,,,,,,,,,,,,,,,,,,,,,,,,,,,,,
,,,,,,,,,,,,,,,,,5e7d031be805560ae6b93dba,32,2022-02-12_10h38.08.457,lexical_decision_task_DD_L3,2021.2.3,MacIntel,60.0024001,,m,1,0.4738,,,,,,,,0.4738,1,0,11,11,2,1,1001,ALMOND,m,,,,,,,,,,,,,,,,,,,,,,,,,,,,,,,,,,,,,,,,,,,,,,,,,,,,,,,,,,,,,,,,,
,,,,,,,,,,,,,,,,,5e7d031be805560ae6b93dba,32,2022-02-12_10h38.08.457,lexical_decision_task_DD_L3,2021.2.3,MacIntel,60.0024001,,m,1,0.5311,,,,,,,,0.5311,1,0,12,12,6,1,1001,ZOMBIE,m,,,,,,,,,,,,,,,,,,,,,,,,,,,,,,,,,,,,,,,,,,,,,,,,,,,,,,,,,,,,,,,,,
,,,,,,,,,,,,,,,,,5e7d031be805560ae6b93dba,32,2022-02-12_10h38.08.457,lexical_decision_task_DD_L3,2021.2.3,MacIntel,60.0024001,,z,1,0.5322,,,,,,,,0.5322,1,0,13,13,13,1,1001,ROUPET,z,,,,,,,,,,,,,,,,,,,,,,,,,,,,,,,,,,,,,,,,,,,,,,,,,,,,,,,,,,,,,,,,,
,,,,,,,,,,,,,,,,,5e7d031be805560ae6b93dba,32,2022-02-12_10h38.08.457,lexical_decision_task_DD_L3,2021.2.3,MacIntel,60.0024001,,z,1,0.8846,,,,,,,,0.8846,1,0,14,14,8,1,1001,ASLERT,z,,,,,,,,,,,,,,,,,,,,,,,,,,,,,,,,,,,,,,,,,,,,,,,,,,,,,,,,,,,,,,,,,
,,,,,,,,,,,,,,,,,5e7d031be805560ae6b93dba,32,2022-02-12_10h38.08.457,lexical_decision_task_DD_L3,2021.2.3,MacIntel,60.0024001,,m,1,0.6333,,,,,,,,0.6333,1,0,15,15,3,1,1001,MATRIX,m,,,,,,,,,,,,,,,,,,,,,,,,,,,,,,,,,,,,,,,,,,,,,,,,,,,,,,,,,,,,,,,,,
space,0.73312934,-0.442282986,0,0,0,,,,,,,1,end_of_practice,"You have completed the practice trials. During the experimental trials, you will not receive feedback. 
Before you begin, please ensure that you are in a comfortable and quiet location and will not be disturbed for about 15 minutes, as we cannot use your data if you do not complete all the trials. 
 When you are ready to start the experimental trials, please press space or touch the button below.",,,5e7d031be805560ae6b93dba,32,2022-02-12_10h38.08.457,lexical_decision_task_DD_L3,2021.2.3,MacIntel,60.0024001,79.1713,,,,,,,,,,,,,,,,,,,,,0,0,0,0,1,,,,,,,,,,,,,,,,,,,,,,,,,,,,,,,,,,,,,,,,,,,,,,,,,,,,,,,,,,,,
,,,,,,,,,,,,,,,,,5e7d031be805560ae6b93dba,32,2022-02-12_10h38.08.457,lexical_decision_task_DD_L3,2021.2.3,MacIntel,60.0024001,,,,,,,,,,,,0.6843,1,,,,,,,,,,,,,,m,1,0.6843,,,,,,,,0.73312934,-0.442282986,0,0,0,,0,0,0,28,1,FALCON,C,old,m,./images/FALCON.png,,,,,,,,,,,,,,,,,,,,,,,,,,,,,,,,,,
,,,,,,,,,,,,,,,,,5e7d031be805560ae6b93dba,32,2022-02-12_10h38.08.457,lexical_decision_task_DD_L3,2021.2.3,MacIntel,60.0024001,,,,,,,,,,,,0.7142,1,,,,,,,,,,,,,,z,1,0.7142,,,,,,,,0.73312934,-0.442282986,0,0,0,,0,1,1,114,1,RIKES,C,old,z,./images/RIKES.png,,,,,,,,,,,,,,,,,,,,,,,,,,,,,,,,,,
,,,,,,,,,,,,,,,,,5e7d031be805560ae6b93dba,32,2022-02-12_10h38.08.457,lexical_decision_task_DD_L3,2021.2.3,MacIntel,60.0024001,,,,,,,,,,,,0.5275,1,,,,,,,,,,,,,,z,1,0.5275,,,,,,,,0.73312934,-0.442282986,0,0,0,,0,2,2,117,1,STEEG,C,old,z,./images/STEEG.png,,,,,,,,,,,,,,,,,,,,,,,,,,,,,,,,,,
,,,,,,,,,,,,,,,,,5e7d031be805560ae6b93dba,32,2022-02-12_10h38.08.457,lexical_decision_task_DD_L3,2021.2.3,MacIntel,60.0024001,,,,,,,,,,,,0.6296,1,,,,,,,,,,,,,,m,1,0.6296,,,,,,,,0.73312934,-0.442282986,0,0,0,,0,3,3,59,1,BURIAL,HB,old,m,./images/BURIALHB.png,,,,,,,,,,,,,,,,,,,,,,,,,,,,,,,,,,
,,,,,,,,,,,,,,,,,5e7d031be805560ae6b93dba,32,2022-02-12_10h38.08.457,lexical_decision_task_DD_L3,2021.2.3,MacIntel,60.0024001,,,,,,,,,,,,0.4966,1,,,,,,,,,,,,,,m,1,0.4966,,,,,,,,0.73312934,-0.442282986,0,0,0,,0,4,4,42,1,FOLDER,LB,old,m,./images/FOLDERLB.png,,,,,,,,,,,,,,,,,,,,,,,,,,,,,,,,,,
,,,,,,,,,,,,,,,,,5e7d031be805560ae6b93dba,32,2022-02-12_10h38.08.457,lexical_decision_task_DD_L3,2021.2.3,MacIntel,60.0024001,,,,,,,,,,,,0.6868,1,,,,,,,,,,,,,,z,1,0.6868,,,,,,,,0.73312934,-0.442282986,0,0,0,,0,5,5,97,1,CHIDS,HB,old,z,./images/CHIDSHB.png,,,,,,,,,,,,,,,,,,,,,,,,,,,,,,,,,,
,,,,,,,,,,,,,,,,,5e7d031be805560ae6b93dba,32,2022-02-12_10h38.08.457,lexical_decision_task_DD_L3,2021.2.3,MacIntel,60.0024001,,,,,,,,,,,,0.4204,0,,,,,,,,,,,,,,m,0,0.4204,,,,,,,,0.73312934,-0.442282986,0,0,0,,0,6,6,102,1,DULLE,C,old,z,./images/DULLE.png,,,,,,,,,,,,,,,,,,,,,,,,,,,,,,,,,,
,,,,,,,,,,,,,,,,,5e7d031be805560ae6b93dba,32,2022-02-12_10h38.08.457,lexical_decision_task_DD_L3,2021.2.3,MacIntel,60.0024001,,,,,,,,,,,,0.7409,1,,,,,,,,,,,,,,z,1,0.7409,,,,,,,,0.73312934,-0.442282986,0,0,0,,0,7,7,92,1,PAIMS,LB,old,z,./images/PAIMSLB.png,,,,,,,,,,,,,,,,,,,,,,,,,,,,,,,,,,
,,,,,,,,,,,,,,,,,5e7d031be805560ae6b93dba,32,2022-02-12_10h38.08.457,lexical_decision_task_DD_L3,2021.2.3,MacIntel,60.0024001,,,,,,,,,,,,0.6238,1,,,,,,,,,,,,,,z,1,0.6238,,,,,,,,0.73312934,-0.442282986,0,0,0,,0,8,8,147,1,ZOLES,C,old,z,./images/ZOLES.png,,,,,,,,,,,,,,,,,,,,,,,,,,,,,,,,,,
,,,,,,,,,,,,,,,,,5e7d031be805560ae6b93dba,32,2022-02-12_10h38.08.457,lexical_decision_task_DD_L3,2021.2.3,MacIntel,60.0024001,,,,,,,,,,,,0.5428,1,,,,,,,,,,,,,,m,1,0.5428,,,,,,,,0.73312934,-0.442282986,0,0,0,,0,9,9,37,1,BIRTH,C,old,m,./images/BIRTH.png,,,,,,,,,,,,,,,,,,,,,,,,,,,,,,,,,,
,,,,,,,,,,,,,,,,,5e7d031be805560ae6b93dba,32,2022-02-12_10h38.08.457,lexical_decision_task_DD_L3,2021.2.3,MacIntel,60.0024001,,,,,,,,,,,,0.7849,1,,,,,,,,,,,,,,z,1,0.7849,,,,,,,,0.73312934,-0.442282986,0,0,0,,0,10,10,139,1,BLEAR,HB,old,z,./images/BLEARHB.png,,,,,,,,,,,,,,,,,,,,,,,,,,,,,,,,,,
,,,,,,,,,,,,,,,,,5e7d031be805560ae6b93dba,32,2022-02-12_10h38.08.457,lexical_decision_task_DD_L3,2021.2.3,MacIntel,60.0024001,,,,,,,,,,,,0.522,1,,,,,,,,,,,,,,z,1,0.522,,,,,,,,0.73312934,-0.442282986,0,0,0,,0,11,11,132,1,SCIFF,C,old,z,./images/SCIFF.png,,,,,,,,,,,,,,,,,,,,,,,,,,,,,,,,,,
,,,,,,,,,,,,,,,,,5e7d031be805560ae6b93dba,32,2022-02-12_10h38.08.457,lexical_decision_task_DD_L3,2021.2.3,MacIntel,60.0024001,,,,,,,,,,,,0.441,1,,,,,,,,,,,,,,z,1,0.441,,,,,,,,0.73312934,-0.442282986,0,0,0,,0,12,12,113,1,LINEW,LB,old,z,./images/LINEWLB.png,,,,,,,,,,,,,,,,,,,,,,,,,,,,,,,,,,
,,,,,,,,,,,,,,,,,5e7d031be805560ae6b93dba,32,2022-02-12_10h38.08.457,lexical_decision_task_DD_L3,2021.2.3,MacIntel,60.0024001,,,,,,,,,,,,0.5575,1,,,,,,,,,,,,,,m,1,0.5575,,,,,,,,0.73312934,-0.442282986,0,0,0,,0,13,13,55,1,MUFFIN,C,old,m,./images/MUFFIN.png,,,,,,,,,,,,,,,,,,,,,,,,,,,,,,,,,,
,,,,,,,,,,,,,,,,,5e7d031be805560ae6b93dba,32,2022-02-12_10h38.08.457,lexical_decision_task_DD_L3,2021.2.3,MacIntel,60.0024001,,,,,,,,,,,,0.5332,1,,,,,,,,,,,,,,z,1,0.5332,,,,,,,,0.73312934,-0.442282986,0,0,0,,0,14,14,90,1,NEAST,C,old,z,./images/NEAST.png,,,,,,,,,,,,,,,,,,,,,,,,,,,,,,,,,,
,,,,,,,,,,,,,,,,,5e7d031be805560ae6b93dba,32,2022-02-12_10h38.08.457,lexical_decision_task_DD_L3,2021.2.3,MacIntel,60.0024001,,,,,,,,,,,,0.5677,1,,,,,,,,,,,,,,m,1,0.5677,,,,,,,,0.73312934,-0.442282986,0,0,0,,0,15,15,25,1,WRIST,C,old,m,./images/WRIST.png,,,,,,,,,,,,,,,,,,,,,,,,,,,,,,,,,,
,,,,,,,,,,,,,,,,,5e7d031be805560ae6b93dba,32,2022-02-12_10h38.08.457,lexical_decision_task_DD_L3,2021.2.3,MacIntel,60.0024001,,,,,,,,,,,,0.7806,1,,,,,,,,,,,,,,z,1,0.7806,,,,,,,,0.73312934,-0.442282986,0,0,0,,0,16,16,154,1,THINT,HB,old,z,./images/THINTHB.png,,,,,,,,,,,,,,,,,,,,,,,,,,,,,,,,,,
,,,,,,,,,,,,,,,,,5e7d031be805560ae6b93dba,32,2022-02-12_10h38.08.457,lexical_decision_task_DD_L3,2021.2.3,MacIntel,60.0024001,,,,,,,,,,,,0.5352,1,,,,,,,,,,,,,,z,1,0.5352,,,,,,,,0.73312934,-0.442282986,0,0,0,,0,17,17,96,1,KEAMS,C,old,z,./images/KEAMS.png,,,,,,,,,,,,,,,,,,,,,,,,,,,,,,,,,,
,,,,,,,,,,,,,,,,,5e7d031be805560ae6b93dba,32,2022-02-12_10h38.08.457,lexical_decision_task_DD_L3,2021.2.3,MacIntel,60.0024001,,,,,,,,,,,,0.6864,1,,,,,,,,,,,,,,z,1,0.6864,,,,,,,,0.73312934,-0.442282986,0,0,0,,0,18,18,142,1,PLASK,HB,old,z,./images/PLASKHB.png,,,,,,,,,,,,,,,,,,,,,,,,,,,,,,,,,,
,,,,,,,,,,,,,,,,,5e7d031be805560ae6b93dba,32,2022-02-12_10h38.08.457,lexical_decision_task_DD_L3,2021.2.3,MacIntel,60.0024001,,,,,,,,,,,,0.5031,1,,,,,,,,,,,,,,m,1,0.5031,,,,,,,,0.73312934,-0.442282986,0,0,0,,0,19,19,6,1,SQUARE,LB,old,m,./images/SQUARELB.png,,,,,,,,,,,,,,,,,,,,,,,,,,,,,,,,,,
,,,,,,,,,,,,,,,,,5e7d031be805560ae6b93dba,32,2022-02-12_10h38.08.457,lexical_decision_task_DD_L3,2021.2.3,MacIntel,60.0024001,,,,,,,,,,,,0.5208,1,,,,,,,,,,,,,,m,1,0.5208,,,,,,,,0.73312934,-0.442282986,0,0,0,,0,20,20,4,1,MUSCLE,C,old,m,./images/MUSCLE.png,,,,,,,,,,,,,,,,,,,,,,,,,,,,,,,,,,
,,,,,,,,,,,,,,,,,5e7d031be805560ae6b93dba,32,2022-02-12_10h38.08.457,lexical_decision_task_DD_L3,2021.2.3,MacIntel,60.0024001,,,,,,,,,,,,0.5289,1,,,,,,,,,,,,,,z,1,0.5289,,,,,,,,0.73312934,-0.442282986,0,0,0,,0,21,21,106,1,CLUMS,HB,old,z,./images/CLUMSHB.png,,,,,,,,,,,,,,,,,,,,,,,,,,,,,,,,,,
,,,,,,,,,,,,,,,,,5e7d031be805560ae6b93dba,32,2022-02-12_10h38.08.457,lexical_decision_task_DD_L3,2021.2.3,MacIntel,60.0024001,,,,,,,,,,,,0.4049,1,,,,,,,,,,,,,,z,1,0.4049,,,,,,,,0.73312934,-0.442282986,0,0,0,,0,22,22,101,1,GLEET,LB,old,z,./images/GLEETLB.png,,,,,,,,,,,,,,,,,,,,,,,,,,,,,,,,,,
,,,,,,,,,,,,,,,,,5e7d031be805560ae6b93dba,32,2022-02-12_10h38.08.457,lexical_decision_task_DD_L3,2021.2.3,MacIntel,60.0024001,,,,,,,,,,,,0.4841,1,,,,,,,,,,,,,,z,1,0.4841,,,,,,,,0.73312934,-0.442282986,0,0,0,,0,23,23,164,1,SGREW,LB,old,z,./images/SGREWLB.png,,,,,,,,,,,,,,,,,,,,,,,,,,,,,,,,,,
,,,,,,,,,,,,,,,,,5e7d031be805560ae6b93dba,32,2022-02-12_10h38.08.457,lexical_decision_task_DD_L3,2021.2.3,MacIntel,60.0024001,,,,,,,,,,,,0.4843,1,,,,,,,,,,,,,,z,1,0.4843,,,,,,,,0.73312934,-0.442282986,0,0,0,,0,24,24,143,1,MONGS,LB,old,z,./images/MONGSLB.png,,,,,,,,,,,,,,,,,,,,,,,,,,,,,,,,,,
,,,,,,,,,,,,,,,,,5e7d031be805560ae6b93dba,32,2022-02-12_10h38.08.457,lexical_decision_task_DD_L3,2021.2.3,MacIntel,60.0024001,,,,,,,,,,,,0.7581,1,,,,,,,,,,,,,,m,1,0.7581,,,,,,,,0.73312934,-0.442282986,0,0,0,,0,25,25,62,1,PURSE,HB,old,m,./images/PURSEHB.png,,,,,,,,,,,,,,,,,,,,,,,,,,,,,,,,,,
,,,,,,,,,,,,,,,,,5e7d031be805560ae6b93dba,32,2022-02-12_10h38.08.457,lexical_decision_task_DD_L3,2021.2.3,MacIntel,60.0024001,,,,,,,,,,,,0.5305,1,,,,,,,,,,,,,,z,1,0.5305,,,,,,,,0.73312934,-0.442282986,0,0,0,,0,26,26,161,1,BLAPS,LB,old,z,./images/BLAPSLB.png,,,,,,,,,,,,,,,,,,,,,,,,,,,,,,,,,,
,,,,,,,,,,,,,,,,,5e7d031be805560ae6b93dba,32,2022-02-12_10h38.08.457,lexical_decision_task_DD_L3,2021.2.3,MacIntel,60.0024001,,,,,,,,,,,,0.6907,0,,,,,,,,,,,,,,z,0,0.6907,,,,,,,,0.73312934,-0.442282986,0,0,0,,0,27,27,31,1,QUILL,C,old,m,./images/QUILL.png,,,,,,,,,,,,,,,,,,,,,,,,,,,,,,,,,,
,,,,,,,,,,,,,,,,,5e7d031be805560ae6b93dba,32,2022-02-12_10h38.08.457,lexical_decision_task_DD_L3,2021.2.3,MacIntel,60.0024001,,,,,,,,,,,,0.5041,1,,,,,,,,,,,,,,m,1,0.5041,,,,,,,,0.73312934,-0.442282986,0,0,0,,0,28,28,0,1,TOMATO,LB,old,m,./images/TOMATOLB.png,,,,,,,,,,,,,,,,,,,,,,,,,,,,,,,,,,
,,,,,,,,,,,,,,,,,5e7d031be805560ae6b93dba,32,2022-02-12_10h38.08.457,lexical_decision_task_DD_L3,2021.2.3,MacIntel,60.0024001,,,,,,,,,,,,0.464,1,,,,,,,,,,,,,,m,1,0.464,,,,,,,,0.73312934,-0.442282986,0,0,0,,0,29,29,66,1,SWEAT,LB,old,m,./images/SWEATLB.png,,,,,,,,,,,,,,,,,,,,,,,,,,,,,,,,,,
,,,,,,,,,,,,,,,,,5e7d031be805560ae6b93dba,32,2022-02-12_10h38.08.457,lexical_decision_task_DD_L3,2021.2.3,MacIntel,60.0024001,,,,,,,,,,,,0.6876,1,,,,,,,,,,,,,,z,1,0.6876,,,,,,,,0.73312934,-0.442282986,0,0,0,,0,30,30,104,1,GITTY,LB,old,z,./images/GITTYLB.png,,,,,,,,,,,,,,,,,,,,,,,,,,,,,,,,,,
,,,,,,,,,,,,,,,,,5e7d031be805560ae6b93dba,32,2022-02-12_10h38.08.457,lexical_decision_task_DD_L3,2021.2.3,MacIntel,60.0024001,,,,,,,,,,,,0.475,1,,,,,,,,,,,,,,z,1,0.475,,,,,,,,0.73312934,-0.442282986,0,0,0,,0,31,31,111,1,HOSSE,C,old,z,./images/HOSSE.png,,,,,,,,,,,,,,,,,,,,,,,,,,,,,,,,,,
,,,,,,,,,,,,,,,,,5e7d031be805560ae6b93dba,32,2022-02-12_10h38.08.457,lexical_decision_task_DD_L3,2021.2.3,MacIntel,60.0024001,,,,,,,,,,,,0.5345,1,,,,,,,,,,,,,,z,1,0.5345,,,,,,,,0.73312934,-0.442282986,0,0,0,,0,32,32,163,1,GAMBA,HB,old,z,./images/GAMBAHB.png,,,,,,,,,,,,,,,,,,,,,,,,,,,,,,,,,,
,,,,,,,,,,,,,,,,,5e7d031be805560ae6b93dba,32,2022-02-12_10h38.08.457,lexical_decision_task_DD_L3,2021.2.3,MacIntel,60.0024001,,,,,,,,,,,,0.6684,0,,,,,,,,,,,,,,m,0,0.6684,,,,,,,,0.73312934,-0.442282986,0,0,0,,0,33,33,99,1,BACKY,C,old,z,./images/BACKY.png,,,,,,,,,,,,,,,,,,,,,,,,,,,,,,,,,,
,,,,,,,,,,,,,,,,,5e7d031be805560ae6b93dba,32,2022-02-12_10h38.08.457,lexical_decision_task_DD_L3,2021.2.3,MacIntel,60.0024001,,,,,,,,,,,,0.3937,1,,,,,,,,,,,,,,z,1,0.3937,,,,,,,,0.73312934,-0.442282986,0,0,0,,0,34,34,100,1,DRIBS,HB,old,z,./images/DRIBSHB.png,,,,,,,,,,,,,,,,,,,,,,,,,,,,,,,,,,
,,,,,,,,,,,,,,,,,5e7d031be805560ae6b93dba,32,2022-02-12_10h38.08.457,lexical_decision_task_DD_L3,2021.2.3,MacIntel,60.0024001,,,,,,,,,,,,0.4972,1,,,,,,,,,,,,,,z,1,0.4972,,,,,,,,0.73312934,-0.442282986,0,0,0,,0,35,35,158,1,EGECT,LB,old,z,./images/EGECTLB.png,,,,,,,,,,,,,,,,,,,,,,,,,,,,,,,,,,
,,,,,,,,,,,,,,,,,5e7d031be805560ae6b93dba,32,2022-02-12_10h38.08.457,lexical_decision_task_DD_L3,2021.2.3,MacIntel,60.0024001,,,,,,,,,,,,0.7965,1,,,,,,,,,,,,,,z,1,0.7965,,,,,,,,0.73312934,-0.442282986,0,0,0,,0,36,36,145,1,LAMEL,HB,old,z,./images/LAMELHB.png,,,,,,,,,,,,,,,,,,,,,,,,,,,,,,,,,,
,,,,,,,,,,,,,,,,,5e7d031be805560ae6b93dba,32,2022-02-12_10h38.08.457,lexical_decision_task_DD_L3,2021.2.3,MacIntel,60.0024001,,,,,,,,,,,,0.5248,1,,,,,,,,,,,,,,m,1,0.5248,,,,,,,,0.73312934,-0.442282986,0,0,0,,0,37,37,27,1,ATTIC,LB,old,m,./images/ATTICLB.png,,,,,,,,,,,,,,,,,,,,,,,,,,,,,,,,,,
,,,,,,,,,,,,,,,,,5e7d031be805560ae6b93dba,32,2022-02-12_10h38.08.457,lexical_decision_task_DD_L3,2021.2.3,MacIntel,60.0024001,,,,,,,,,,,,0.599,0,,,,,,,,,,,,,,z,0,0.599,,,,,,,,0.73312934,-0.442282986,0,0,0,,0,38,38,68,1,TORCH,HB,old,m,./images/TORCHHB.png,,,,,,,,,,,,,,,,,,,,,,,,,,,,,,,,,,
,,,,,,,,,,,,,,,,,5e7d031be805560ae6b93dba,32,2022-02-12_10h38.08.457,lexical_decision_task_DD_L3,2021.2.3,MacIntel,60.0024001,,,,,,,,,,,,0.4975,1,,,,,,,,,,,,,,m,1,0.4975,,,,,,,,0.73312934,-0.442282986,0,0,0,,0,39,39,36,1,THROAT,LB,old,m,./images/THROATLB.png,,,,,,,,,,,,,,,,,,,,,,,,,,,,,,,,,,
,,,,,,,,,,,,,,,,,5e7d031be805560ae6b93dba,32,2022-02-12_10h38.08.457,lexical_decision_task_DD_L3,2021.2.3,MacIntel,60.0024001,,,,,,,,,,,,0.4681,1,,,,,,,,,,,,,,m,1,0.4681,,,,,,,,0.73312934,-0.442282986,0,0,0,,0,40,40,82,1,SUNSET,C,old,m,./images/SUNSET.png,,,,,,,,,,,,,,,,,,,,,,,,,,,,,,,,,,
,,,,,,,,,,,,,,,,,5e7d031be805560ae6b93dba,32,2022-02-12_10h38.08.457,lexical_decision_task_DD_L3,2021.2.3,MacIntel,60.0024001,,,,,,,,,,,,0.4706,1,,,,,,,,,,,,,,z,1,0.4706,,,,,,,,0.73312934,-0.442282986,0,0,0,space,0,41,41,126,1,GUELS,C,old,z,./images/GUELS.png,38.2993,,,,,,,,,,,,,,,,,,,,,,,,,,,,,,,,,
,,,,,,,,,,,,,,,,,5e7d031be805560ae6b93dba,32,2022-02-12_10h38.08.457,lexical_decision_task_DD_L3,2021.2.3,MacIntel,60.0024001,,,,,,,,,,,,0.5796,1,,,,,,,,,,,,,,m,1,0.5796,,,,,,,,0.73312934,-0.442282986,0,0,0,,0,42,42,35,1,PEACH,HB,old,m,./images/PEACHHB.png,,,,,,,,,,,,,,,,,,,,,,,,,,,,,,,,,,
,,,,,,,,,,,,,,,,,5e7d031be805560ae6b93dba,32,2022-02-12_10h38.08.457,lexical_decision_task_DD_L3,2021.2.3,MacIntel,60.0024001,,,,,,,,,,,,0.7455,1,,,,,,,,,,,,,,z,1,0.7455,,,,,,,,0.73312934,-0.442282986,0,0,0,,0,43,43,112,1,MYING,HB,old,z,./images/MYINGHB.png,,,,,,,,,,,,,,,,,,,,,,,,,,,,,,,,,,
,,,,,,,,,,,,,,,,,5e7d031be805560ae6b93dba,32,2022-02-12_10h38.08.457,lexical_decision_task_DD_L3,2021.2.3,MacIntel,60.0024001,,,,,,,,,,,,0.4469,1,,,,,,,,,,,,,,z,1,0.4469,,,,,,,,0.73312934,-0.442282986,0,0,0,,0,44,44,105,1,MOKER,C,old,z,./images/MOKER.png,,,,,,,,,,,,,,,,,,,,,,,,,,,,,,,,,,
,,,,,,,,,,,,,,,,,5e7d031be805560ae6b93dba,32,2022-02-12_10h38.08.457,lexical_decision_task_DD_L3,2021.2.3,MacIntel,60.0024001,,,,,,,,,,,,0.3987,1,,,,,,,,,,,,,,z,1,0.3987,,,,,,,,0.73312934,-0.442282986,0,0,0,,0,45,45,150,1,NOOLS,C,old,z,./images/NOOLS.png,,,,,,,,,,,,,,,,,,,,,,,,,,,,,,,,,,
,,,,,,,,,,,,,,,,,5e7d031be805560ae6b93dba,32,2022-02-12_10h38.08.457,lexical_decision_task_DD_L3,2021.2.3,MacIntel,60.0024001,,,,,,,,,,,,0.7003,1,,,,,,,,,,,,,,m,1,0.7003,,,,,,,,0.73312934,-0.442282986,0,0,0,,0,46,46,74,1,CEMENT,HB,old,m,./images/CEMENTHB.png,,,,,,,,,,,,,,,,,,,,,,,,,,,,,,,,,,
,,,,,,,,,,,,,,,,,5e7d031be805560ae6b93dba,32,2022-02-12_10h38.08.457,lexical_decision_task_DD_L3,2021.2.3,MacIntel,60.0024001,,,,,,,,,,,,0.5578,0,,,,,,,,,,,,,,z,0,0.5578,,,,,,,,0.73312934,-0.442282986,0,0,0,,0,47,47,11,1,BONNET,HB,old,m,./images/BONNETHB.png,,,,,,,,,,,,,,,,,,,,,,,,,,,,,,,,,,
,,,,,,,,,,,,,,,,,5e7d031be805560ae6b93dba,32,2022-02-12_10h38.08.457,lexical_decision_task_DD_L3,2021.2.3,MacIntel,60.0024001,,,,,,,,,,,,0.8188,0,,,,,,,,,,,,,,z,0,0.8188,,,,,,,,0.73312934,-0.442282986,0,0,0,,0,48,48,16,1,PENCE,C,old,m,./images/PENCE.png,,,,,,,,,,,,,,,,,,,,,,,,,,,,,,,,,,
,,,,,,,,,,,,,,,,,5e7d031be805560ae6b93dba,32,2022-02-12_10h38.08.457,lexical_decision_task_DD_L3,2021.2.3,MacIntel,60.0024001,,,,,,,,,,,,0.5293,1,,,,,,,,,,,,,,z,1,0.5293,,,,,,,,0.73312934,-0.442282986,0,0,0,,0,49,49,85,1,CHULK,HB,old,z,./images/CHULKHB.png,,,,,,,,,,,,,,,,,,,,,,,,,,,,,,,,,,
,,,,,,,,,,,,,,,,,5e7d031be805560ae6b93dba,32,2022-02-12_10h38.08.457,lexical_decision_task_DD_L3,2021.2.3,MacIntel,60.0024001,,,,,,,,,,,,0.5106,1,,,,,,,,,,,,,,z,1,0.5106,,,,,,,,0.73312934,-0.442282986,0,0,0,,0,50,50,122,1,BLOOT,LB,old,z,./images/BLOOTLB.png,,,,,,,,,,,,,,,,,,,,,,,,,,,,,,,,,,
,,,,,,,,,,,,,,,,,5e7d031be805560ae6b93dba,32,2022-02-12_10h38.08.457,lexical_decision_task_DD_L3,2021.2.3,MacIntel,60.0024001,,,,,,,,,,,,0.603,1,,,,,,,,,,,,,,z,1,0.603,,,,,,,,0.73312934,-0.442282986,0,0,0,,0,51,51,91,1,SHENS,HB,old,z,./images/SHENSHB.png,,,,,,,,,,,,,,,,,,,,,,,,,,,,,,,,,,
,,,,,,,,,,,,,,,,,5e7d031be805560ae6b93dba,32,2022-02-12_10h38.08.457,lexical_decision_task_DD_L3,2021.2.3,MacIntel,60.0024001,,,,,,,,,,,,0.5533,1,,,,,,,,,,,,,,m,1,0.5533,,,,,,,,0.73312934,-0.442282986,0,0,0,,0,52,52,14,1,PICKLE,HB,old,m,./images/PICKLEHB.png,,,,,,,,,,,,,,,,,,,,,,,,,,,,,,,,,,
,,,,,,,,,,,,,,,,,5e7d031be805560ae6b93dba,32,2022-02-12_10h38.08.457,lexical_decision_task_DD_L3,2021.2.3,MacIntel,60.0024001,,,,,,,,,,,,0.4953,1,,,,,,,,,,,,,,z,1,0.4953,,,,,,,,0.73312934,-0.442282986,0,0,0,,0,53,53,144,1,NAIRY,C,old,z,./images/NAIRY.png,,,,,,,,,,,,,,,,,,,,,,,,,,,,,,,,,,
,,,,,,,,,,,,,,,,,5e7d031be805560ae6b93dba,32,2022-02-12_10h38.08.457,lexical_decision_task_DD_L3,2021.2.3,MacIntel,60.0024001,,,,,,,,,,,,0.6476,1,,,,,,,,,,,,,,m,1,0.6476,,,,,,,,0.73312934,-0.442282986,0,0,0,,0,54,54,56,1,PACKET,HB,old,m,./images/PACKETHB.png,,,,,,,,,,,,,,,,,,,,,,,,,,,,,,,,,,
,,,,,,,,,,,,,,,,,5e7d031be805560ae6b93dba,32,2022-02-12_10h38.08.457,lexical_decision_task_DD_L3,2021.2.3,MacIntel,60.0024001,,,,,,,,,,,,0.7299,1,,,,,,,,,,,,,,m,1,0.7299,,,,,,,,0.73312934,-0.442282986,0,0,0,,0,55,55,29,1,CRUMB,HB,old,m,./images/CRUMBHB.png,,,,,,,,,,,,,,,,,,,,,,,,,,,,,,,,,,
,,,,,,,,,,,,,,,,,5e7d031be805560ae6b93dba,32,2022-02-12_10h38.08.457,lexical_decision_task_DD_L3,2021.2.3,MacIntel,60.0024001,,,,,,,,,,,,0.5729,1,,,,,,,,,,,,,,z,1,0.5729,,,,,,,,0.73312934,-0.442282986,0,0,0,,0,56,56,118,1,BAVEL,HB,old,z,./images/BAVELHB.png,,,,,,,,,,,,,,,,,,,,,,,,,,,,,,,,,,
,,,,,,,,,,,,,,,,,5e7d031be805560ae6b93dba,32,2022-02-12_10h38.08.457,lexical_decision_task_DD_L3,2021.2.3,MacIntel,60.0024001,,,,,,,,,,,,0.7879,0,,,,,,,,,,,,,,z,0,0.7879,,,,,,,,0.73312934,-0.442282986,0,0,0,,0,57,57,52,1,BANNER,C,old,m,./images/BANNER.png,,,,,,,,,,,,,,,,,,,,,,,,,,,,,,,,,,
,,,,,,,,,,,,,,,,,5e7d031be805560ae6b93dba,32,2022-02-12_10h38.08.457,lexical_decision_task_DD_L3,2021.2.3,MacIntel,60.0024001,,,,,,,,,,,,0.4651,1,,,,,,,,,,,,,,m,1,0.4651,,,,,,,,0.73312934,-0.442282986,0,0,0,,0,58,58,51,1,ONION,LB,old,m,./images/ONIONLB.png,,,,,,,,,,,,,,,,,,,,,,,,,,,,,,,,,,
,,,,,,,,,,,,,,,,,5e7d031be805560ae6b93dba,32,2022-02-12_10h38.08.457,lexical_decision_task_DD_L3,2021.2.3,MacIntel,60.0024001,,,,,,,,,,,,0.8059,1,,,,,,,,,,,,,,z,1,0.8059,,,,,,,,0.73312934,-0.442282986,0,0,0,,0,59,59,136,1,WERVE,HB,old,z,./images/WERVEHB.png,,,,,,,,,,,,,,,,,,,,,,,,,,,,,,,,,,
,,,,,,,,,,,,,,,,,5e7d031be805560ae6b93dba,32,2022-02-12_10h38.08.457,lexical_decision_task_DD_L3,2021.2.3,MacIntel,60.0024001,,,,,,,,,,,,0.5128,1,,,,,,,,,,,,,,m,1,0.5128,,,,,,,,0.73312934,-0.442282986,0,0,0,,0,60,60,43,1,MOSQUE,C,old,m,./images/MOSQUE.png,,,,,,,,,,,,,,,,,,,,,,,,,,,,,,,,,,
,,,,,,,,,,,,,,,,,5e7d031be805560ae6b93dba,32,2022-02-12_10h38.08.457,lexical_decision_task_DD_L3,2021.2.3,MacIntel,60.0024001,,,,,,,,,,,,0.6153,1,,,,,,,,,,,,,,z,1,0.6153,,,,,,,,0.73312934,-0.442282986,0,0,0,,0,61,61,131,1,NACES,LB,old,z,./images/NACESLB.png,,,,,,,,,,,,,,,,,,,,,,,,,,,,,,,,,,
,,,,,,,,,,,,,,,,,5e7d031be805560ae6b93dba,32,2022-02-12_10h38.08.457,lexical_decision_task_DD_L3,2021.2.3,MacIntel,60.0024001,,,,,,,,,,,,0.635,1,,,,,,,,,,,,,,z,1,0.635,,,,,,,,0.73312934,-0.442282986,0,0,0,,0,62,62,89,1,DRIEK,LB,old,z,./images/DRIEKLB.png,,,,,,,,,,,,,,,,,,,,,,,,,,,,,,,,,,
,,,,,,,,,,,,,,,,,5e7d031be805560ae6b93dba,32,2022-02-12_10h38.08.457,lexical_decision_task_DD_L3,2021.2.3,MacIntel,60.0024001,,,,,,,,,,,,1.2473,1,,,,,,,,,,,,,,z,1,1.2473,,,,,,,,0.73312934,-0.442282986,0,0,0,,0,63,63,109,1,BURGE,HB,old,z,./images/BURGEHB.png,,,,,,,,,,,,,,,,,,,,,,,,,,,,,,,,,,
,,,,,,,,,,,,,,,,,5e7d031be805560ae6b93dba,32,2022-02-12_10h38.08.457,lexical_decision_task_DD_L3,2021.2.3,MacIntel,60.0024001,,,,,,,,,,,,0.6414,1,,,,,,,,,,,,,,z,1,0.6414,,,,,,,,0.73312934,-0.442282986,0,0,0,,0,64,64,107,1,FASKS,LB,old,z,./images/FASKSLB.png,,,,,,,,,,,,,,,,,,,,,,,,,,,,,,,,,,
,,,,,,,,,,,,,,,,,5e7d031be805560ae6b93dba,32,2022-02-12_10h38.08.457,lexical_decision_task_DD_L3,2021.2.3,MacIntel,60.0024001,,,,,,,,,,,,0.5826,0,,,,,,,,,,,,,,z,0,0.5826,,,,,,,,0.73312934,-0.442282986,0,0,0,,0,65,65,50,1,MALLET,HB,old,m,./images/MALLETHB.png,,,,,,,,,,,,,,,,,,,,,,,,,,,,,,,,,,
,,,,,,,,,,,,,,,,,5e7d031be805560ae6b93dba,32,2022-02-12_10h38.08.457,lexical_decision_task_DD_L3,2021.2.3,MacIntel,60.0024001,,,,,,,,,,,,0.4718,1,,,,,,,,,,,,,,m,1,0.4718,,,,,,,,0.73312934,-0.442282986,0,0,0,,0,66,66,40,1,SWING,C,old,m,./images/SWING.png,,,,,,,,,,,,,,,,,,,,,,,,,,,,,,,,,,
,,,,,,,,,,,,,,,,,5e7d031be805560ae6b93dba,32,2022-02-12_10h38.08.457,lexical_decision_task_DD_L3,2021.2.3,MacIntel,60.0024001,,,,,,,,,,,,0.4809,1,,,,,,,,,,,,,,m,1,0.4809,,,,,,,,0.73312934,-0.442282986,0,0,0,,0,67,67,3,1,FINGER,LB,old,m,./images/FINGERLB.png,,,,,,,,,,,,,,,,,,,,,,,,,,,,,,,,,,
,,,,,,,,,,,,,,,,,5e7d031be805560ae6b93dba,32,2022-02-12_10h38.08.457,lexical_decision_task_DD_L3,2021.2.3,MacIntel,60.0024001,,,,,,,,,,,,0.8786,1,,,,,,,,,,,,,,m,1,0.8786,,,,,,,,0.73312934,-0.442282986,0,0,0,,0,68,68,65,1,FARMER,HB,old,m,./images/FARMERHB.png,,,,,,,,,,,,,,,,,,,,,,,,,,,,,,,,,,
,,,,,,,,,,,,,,,,,5e7d031be805560ae6b93dba,32,2022-02-12_10h38.08.457,lexical_decision_task_DD_L3,2021.2.3,MacIntel,60.0024001,,,,,,,,,,,,0.4895,1,,,,,,,,,,,,,,m,1,0.4895,,,,,,,,0.73312934,-0.442282986,0,0,0,,0,69,69,45,1,KITTEN,LB,old,m,./images/KITTENLB.png,,,,,,,,,,,,,,,,,,,,,,,,,,,,,,,,,,
,,,,,,,,,,,,,,,,,5e7d031be805560ae6b93dba,32,2022-02-12_10h38.08.457,lexical_decision_task_DD_L3,2021.2.3,MacIntel,60.0024001,,,,,,,,,,,,0.8326,1,,,,,,,,,,,,,,z,1,0.8326,,,,,,,,0.73312934,-0.442282986,0,0,0,,0,70,70,121,1,CEERS,HB,old,z,./images/CEERSHB.png,,,,,,,,,,,,,,,,,,,,,,,,,,,,,,,,,,
,,,,,,,,,,,,,,,,,5e7d031be805560ae6b93dba,32,2022-02-12_10h38.08.457,lexical_decision_task_DD_L3,2021.2.3,MacIntel,60.0024001,,,,,,,,,,,,0.4936,1,,,,,,,,,,,,,,z,1,0.4936,,,,,,,,0.73312934,-0.442282986,0,0,0,,0,71,71,134,1,TROSS,LB,old,z,./images/TROSSLB.png,,,,,,,,,,,,,,,,,,,,,,,,,,,,,,,,,,
,,,,,,,,,,,,,,,,,5e7d031be805560ae6b93dba,32,2022-02-12_10h38.08.457,lexical_decision_task_DD_L3,2021.2.3,MacIntel,60.0024001,,,,,,,,,,,,0.6803,1,,,,,,,,,,,,,,m,1,0.6803,,,,,,,,0.73312934,-0.442282986,0,0,0,,0,72,72,48,1,SPORT,LB,old,m,./images/SPORTLB.png,,,,,,,,,,,,,,,,,,,,,,,,,,,,,,,,,,
,,,,,,,,,,,,,,,,,5e7d031be805560ae6b93dba,32,2022-02-12_10h38.08.457,lexical_decision_task_DD_L3,2021.2.3,MacIntel,60.0024001,,,,,,,,,,,,0.5461,1,,,,,,,,,,,,,,z,1,0.5461,,,,,,,,0.73312934,-0.442282986,0,0,0,,0,73,73,160,1,VEETS,HB,old,z,./images/VEETSHB.png,,,,,,,,,,,,,,,,,,,,,,,,,,,,,,,,,,
,,,,,,,,,,,,,,,,,5e7d031be805560ae6b93dba,32,2022-02-12_10h38.08.457,lexical_decision_task_DD_L3,2021.2.3,MacIntel,60.0024001,,,,,,,,,,,,0.5862,1,,,,,,,,,,,,,,m,1,0.5862,,,,,,,,0.73312934,-0.442282986,0,0,0,,0,74,74,34,1,CANYON,C,old,m,./images/CANYON.png,,,,,,,,,,,,,,,,,,,,,,,,,,,,,,,,,,
,,,,,,,,,,,,,,,,,5e7d031be805560ae6b93dba,32,2022-02-12_10h38.08.457,lexical_decision_task_DD_L3,2021.2.3,MacIntel,60.0024001,,,,,,,,,,,,0.5533,0,,,,,,,,,,,,,,z,0,0.5533,,,,,,,,0.73312934,-0.442282986,0,0,0,,0,75,75,78,1,LITTER,LB,old,m,./images/LITTERLB.png,,,,,,,,,,,,,,,,,,,,,,,,,,,,,,,,,,
,,,,,,,,,,,,,,,,,5e7d031be805560ae6b93dba,32,2022-02-12_10h38.08.457,lexical_decision_task_DD_L3,2021.2.3,MacIntel,60.0024001,,,,,,,,,,,,0.5467,1,,,,,,,,,,,,,,m,1,0.5467,,,,,,,,0.73312934,-0.442282986,0,0,0,,0,76,76,60,1,TWINS,LB,old,m,./images/TWINSLB.png,,,,,,,,,,,,,,,,,,,,,,,,,,,,,,,,,,
,,,,,,,,,,,,,,,,,5e7d031be805560ae6b93dba,32,2022-02-12_10h38.08.457,lexical_decision_task_DD_L3,2021.2.3,MacIntel,60.0024001,,,,,,,,,,,,0.5568,1,,,,,,,,,,,,,,z,1,0.5568,,,,,,,,0.73312934,-0.442282986,0,0,0,,0,77,77,155,1,CANGY,LB,old,z,./images/CANGYLB.png,,,,,,,,,,,,,,,,,,,,,,,,,,,,,,,,,,
,,,,,,,,,,,,,,,,,5e7d031be805560ae6b93dba,32,2022-02-12_10h38.08.457,lexical_decision_task_DD_L3,2021.2.3,MacIntel,60.0024001,,,,,,,,,,,,0.9076,1,,,,,,,,,,,,,,z,1,0.9076,,,,,,,,0.73312934,-0.442282986,0,0,0,,0,78,78,157,1,INLER,HB,old,z,./images/INLERHB.png,,,,,,,,,,,,,,,,,,,,,,,,,,,,,,,,,,
,,,,,,,,,,,,,,,,,5e7d031be805560ae6b93dba,32,2022-02-12_10h38.08.457,lexical_decision_task_DD_L3,2021.2.3,MacIntel,60.0024001,,,,,,,,,,,,0.5359,1,,,,,,,,,,,,,,z,1,0.5359,,,,,,,,0.73312934,-0.442282986,0,0,0,,0,79,79,165,1,TROWN,C,old,z,./images/TROWN.png,,,,,,,,,,,,,,,,,,,,,,,,,,,,,,,,,,
,,,,,,,,,,,,,,,,,5e7d031be805560ae6b93dba,32,2022-02-12_10h38.08.457,lexical_decision_task_DD_L3,2021.2.3,MacIntel,60.0024001,,,,,,,,,,,,0.5204,0,,,,,,,,,,,,,,z,0,0.5204,,,,,,,,0.73312934,-0.442282986,0,0,0,,0,80,80,1,1,PLANK,C,old,m,./images/PLANK.png,,,,,,,,,,,,,,,,,,,,,,,,,,,,,,,,,,
,,,,,,,,,,,,,,,,,5e7d031be805560ae6b93dba,32,2022-02-12_10h38.08.457,lexical_decision_task_DD_L3,2021.2.3,MacIntel,60.0024001,,,,,,,,,,,,0.6197,1,,,,,,,,,,,,,,m,1,0.6197,,,,,,,,0.73312934,-0.442282986,0,0,0,,0,81,81,53,1,CARPET,HB,old,m,./images/CARPETHB.png,,,,,,,,,,,,,,,,,,,,,,,,,,,,,,,,,,
,,,,,,,,,,,,,,,,,5e7d031be805560ae6b93dba,32,2022-02-12_10h38.08.457,lexical_decision_task_DD_L3,2021.2.3,MacIntel,60.0024001,,,,,,,,,,,,0.5482,1,,,,,,,,,,,,,,z,1,0.5482,,,,,,,,0.73312934,-0.442282986,0,0,0,,0,82,82,116,1,BALGY,LB,old,z,./images/BALGYLB.png,,,,,,,,,,,,,,,,,,,,,,,,,,,,,,,,,,
,,,,,,,,,,,,,,,,,5e7d031be805560ae6b93dba,32,2022-02-12_10h38.08.457,lexical_decision_task_DD_L3,2021.2.3,MacIntel,60.0024001,,,,,,,,,,,,0.6141,1,,,,,,,,,,,,,,z,1,0.6141,,,,,,,,0.73312934,-0.442282986,0,0,0,space,0,83,83,88,1,GLUSH,HB,old,z,./images/GLUSHHB.png,24.8756,,,,,,,,,,,,,,,,,,,,,,,,,,,,,,,,,
,,,,,,,,,,,,,,,,,5e7d031be805560ae6b93dba,32,2022-02-12_10h38.08.457,lexical_decision_task_DD_L3,2021.2.3,MacIntel,60.0024001,,,,,,,,,,,,0.5312,1,,,,,,,,,,,,,,m,1,0.5312,,,,,,,,0.73312934,-0.442282986,0,0,0,,0,84,84,39,1,SHELF,LB,old,m,./images/SHELFLB.png,,,,,,,,,,,,,,,,,,,,,,,,,,,,,,,,,,
,,,,,,,,,,,,,,,,,5e7d031be805560ae6b93dba,32,2022-02-12_10h38.08.457,lexical_decision_task_DD_L3,2021.2.3,MacIntel,60.0024001,,,,,,,,,,,,0.5308,1,,,,,,,,,,,,,,z,1,0.5308,,,,,,,,0.73312934,-0.442282986,0,0,0,,0,85,85,95,1,HANTY,LB,old,z,./images/HANTYLB.png,,,,,,,,,,,,,,,,,,,,,,,,,,,,,,,,,,
,,,,,,,,,,,,,,,,,5e7d031be805560ae6b93dba,32,2022-02-12_10h38.08.457,lexical_decision_task_DD_L3,2021.2.3,MacIntel,60.0024001,,,,,,,,,,,,0.5161,1,,,,,,,,,,,,,,z,1,0.5161,,,,,,,,0.73312934,-0.442282986,0,0,0,,0,86,86,98,1,BAMPS,LB,old,z,./images/BAMPSLB.png,,,,,,,,,,,,,,,,,,,,,,,,,,,,,,,,,,
,,,,,,,,,,,,,,,,,5e7d031be805560ae6b93dba,32,2022-02-12_10h38.08.457,lexical_decision_task_DD_L3,2021.2.3,MacIntel,60.0024001,,,,,,,,,,,,0.4814,1,,,,,,,,,,,,,,z,1,0.4814,,,,,,,,0.73312934,-0.442282986,0,0,0,,0,87,87,152,1,FRAIN,LB,old,z,./images/FRAINLB.png,,,,,,,,,,,,,,,,,,,,,,,,,,,,,,,,,,
,,,,,,,,,,,,,,,,,5e7d031be805560ae6b93dba,32,2022-02-12_10h38.08.457,lexical_decision_task_DD_L3,2021.2.3,MacIntel,60.0024001,,,,,,,,,,,,0.5474,1,,,,,,,,,,,,,,z,1,0.5474,,,,,,,,0.73312934,-0.442282986,0,0,0,,0,88,88,127,1,NINDY,HB,old,z,./images/NINDYHB.png,,,,,,,,,,,,,,,,,,,,,,,,,,,,,,,,,,
,,,,,,,,,,,,,,,,,5e7d031be805560ae6b93dba,32,2022-02-12_10h38.08.457,lexical_decision_task_DD_L3,2021.2.3,MacIntel,60.0024001,,,,,,,,,,,,0.4093,1,,,,,,,,,,,,,,z,1,0.4093,,,,,,,,0.73312934,-0.442282986,0,0,0,,0,89,89,135,1,JOODY,C,old,z,./images/JOODY.png,,,,,,,,,,,,,,,,,,,,,,,,,,,,,,,,,,
,,,,,,,,,,,,,,,,,5e7d031be805560ae6b93dba,32,2022-02-12_10h38.08.457,lexical_decision_task_DD_L3,2021.2.3,MacIntel,60.0024001,,,,,,,,,,,,0.4522,1,,,,,,,,,,,,,,z,1,0.4522,,,,,,,,0.73312934,-0.442282986,0,0,0,,0,90,90,133,1,POWDY,HB,old,z,./images/POWDYHB.png,,,,,,,,,,,,,,,,,,,,,,,,,,,,,,,,,,
,,,,,,,,,,,,,,,,,5e7d031be805560ae6b93dba,32,2022-02-12_10h38.08.457,lexical_decision_task_DD_L3,2021.2.3,MacIntel,60.0024001,,,,,,,,,,,,0.4156,0,,,,,,,,,,,,,,z,0,0.4156,,,,,,,,0.73312934,-0.442282986,0,0,0,,0,91,91,9,1,RHINO,LB,old,m,./images/RHINOLB.png,,,,,,,,,,,,,,,,,,,,,,,,,,,,,,,,,,
,,,,,,,,,,,,,,,,,5e7d031be805560ae6b93dba,32,2022-02-12_10h38.08.457,lexical_decision_task_DD_L3,2021.2.3,MacIntel,60.0024001,,,,,,,,,,,,0.4809,1,,,,,,,,,,,,,,m,1,0.4809,,,,,,,,0.73312934,-0.442282986,0,0,0,,0,92,92,63,1,MIRROR,LB,old,m,./images/MIRRORLB.png,,,,,,,,,,,,,,,,,,,,,,,,,,,,,,,,,,
,,,,,,,,,,,,,,,,,5e7d031be805560ae6b93dba,32,2022-02-12_10h38.08.457,lexical_decision_task_DD_L3,2021.2.3,MacIntel,60.0024001,,,,,,,,,,,,0.5713,1,,,,,,,,,,,,,,z,1,0.5713,,,,,,,,0.73312934,-0.442282986,0,0,0,,0,93,93,130,1,CRILL,HB,old,z,./images/CRILLHB.png,,,,,,,,,,,,,,,,,,,,,,,,,,,,,,,,,,
,,,,,,,,,,,,,,,,,5e7d031be805560ae6b93dba,32,2022-02-12_10h38.08.457,lexical_decision_task_DD_L3,2021.2.3,MacIntel,60.0024001,,,,,,,,,,,,0.4378,1,,,,,,,,,,,,,,z,1,0.4378,,,,,,,,0.73312934,-0.442282986,0,0,0,,0,94,94,140,1,DOVET,LB,old,z,./images/DOVETLB.png,,,,,,,,,,,,,,,,,,,,,,,,,,,,,,,,,,
,,,,,,,,,,,,,,,,,5e7d031be805560ae6b93dba,32,2022-02-12_10h38.08.457,lexical_decision_task_DD_L3,2021.2.3,MacIntel,60.0024001,,,,,,,,,,,,0.4778,1,,,,,,,,,,,,,,m,1,0.4778,,,,,,,,0.73312934,-0.442282986,0,0,0,,0,95,95,73,1,SNACK,C,old,m,./images/SNACK.png,,,,,,,,,,,,,,,,,,,,,,,,,,,,,,,,,,
,,,,,,,,,,,,,,,,,5e7d031be805560ae6b93dba,32,2022-02-12_10h38.08.457,lexical_decision_task_DD_L3,2021.2.3,MacIntel,60.0024001,,,,,,,,,,,,0.6224,1,,,,,,,,,,,,,,m,1,0.6224,,,,,,,,0.73312934,-0.442282986,0,0,0,,0,96,96,80,1,WEASEL,HB,old,m,./images/WEASELHB.png,,,,,,,,,,,,,,,,,,,,,,,,,,,,,,,,,,
,,,,,,,,,,,,,,,,,5e7d031be805560ae6b93dba,32,2022-02-12_10h38.08.457,lexical_decision_task_DD_L3,2021.2.3,MacIntel,60.0024001,,,,,,,,,,,,0.4213,1,,,,,,,,,,,,,,m,1,0.4213,,,,,,,,0.73312934,-0.442282986,0,0,0,,0,97,97,61,1,CANDLE,C,old,m,./images/CANDLE.png,,,,,,,,,,,,,,,,,,,,,,,,,,,,,,,,,,
,,,,,,,,,,,,,,,,,5e7d031be805560ae6b93dba,32,2022-02-12_10h38.08.457,lexical_decision_task_DD_L3,2021.2.3,MacIntel,60.0024001,,,,,,,,,,,,0.4191,1,,,,,,,,,,,,,,m,1,0.4191,,,,,,,,0.73312934,-0.442282986,0,0,0,,0,98,98,19,1,DOUGH,C,old,m,./images/DOUGH.png,,,,,,,,,,,,,,,,,,,,,,,,,,,,,,,,,,
,,,,,,,,,,,,,,,,,5e7d031be805560ae6b93dba,32,2022-02-12_10h38.08.457,lexical_decision_task_DD_L3,2021.2.3,MacIntel,60.0024001,,,,,,,,,,,,0.714,0,,,,,,,,,,,,,,z,0,0.714,,,,,,,,0.73312934,-0.442282986,0,0,0,,0,99,99,47,1,BERRY,HB,old,m,./images/BERRYHB.png,,,,,,,,,,,,,,,,,,,,,,,,,,,,,,,,,,
,,,,,,,,,,,,,,,,,5e7d031be805560ae6b93dba,32,2022-02-12_10h38.08.457,lexical_decision_task_DD_L3,2021.2.3,MacIntel,60.0024001,,,,,,,,,,,,0.4908,1,,,,,,,,,,,,,,m,1,0.4908,,,,,,,,0.73312934,-0.442282986,0,0,0,,0,100,100,13,1,MOTOR,C,old,m,./images/MOTOR.png,,,,,,,,,,,,,,,,,,,,,,,,,,,,,,,,,,
,,,,,,,,,,,,,,,,,5e7d031be805560ae6b93dba,32,2022-02-12_10h38.08.457,lexical_decision_task_DD_L3,2021.2.3,MacIntel,60.0024001,,,,,,,,,,,,0.4856,1,,,,,,,,,,,,,,m,1,0.4856,,,,,,,,0.73312934,-0.442282986,0,0,0,,0,101,101,21,1,KIDNEY,LB,old,m,./images/KIDNEYLB.png,,,,,,,,,,,,,,,,,,,,,,,,,,,,,,,,,,
,,,,,,,,,,,,,,,,,5e7d031be805560ae6b93dba,32,2022-02-12_10h38.08.457,lexical_decision_task_DD_L3,2021.2.3,MacIntel,60.0024001,,,,,,,,,,,,0.3803,1,,,,,,,,,,,,,,m,1,0.3803,,,,,,,,0.73312934,-0.442282986,0,0,0,,0,102,102,46,1,PEARL,C,old,m,./images/PEARL.png,,,,,,,,,,,,,,,,,,,,,,,,,,,,,,,,,,
,,,,,,,,,,,,,,,,,5e7d031be805560ae6b93dba,32,2022-02-12_10h38.08.457,lexical_decision_task_DD_L3,2021.2.3,MacIntel,60.0024001,,,,,,,,,,,,0.6564,1,,,,,,,,,,,,,,z,1,0.6564,,,,,,,,0.73312934,-0.442282986,0,0,0,,0,103,103,149,1,VEASE,LB,old,z,./images/VEASELB.png,,,,,,,,,,,,,,,,,,,,,,,,,,,,,,,,,,
,,,,,,,,,,,,,,,,,5e7d031be805560ae6b93dba,32,2022-02-12_10h38.08.457,lexical_decision_task_DD_L3,2021.2.3,MacIntel,60.0024001,,,,,,,,,,,,0.6122,1,,,,,,,,,,,,,,z,1,0.6122,,,,,,,,0.73312934,-0.442282986,0,0,0,,0,104,104,124,1,TUNCH,HB,old,z,./images/TUNCHHB.png,,,,,,,,,,,,,,,,,,,,,,,,,,,,,,,,,,
,,,,,,,,,,,,,,,,,5e7d031be805560ae6b93dba,32,2022-02-12_10h38.08.457,lexical_decision_task_DD_L3,2021.2.3,MacIntel,60.0024001,,,,,,,,,,,,0.5001,1,,,,,,,,,,,,,,m,1,0.5001,,,,,,,,0.73312934,-0.442282986,0,0,0,,0,105,105,77,1,COUCH,HB,old,m,./images/COUCHHB.png,,,,,,,,,,,,,,,,,,,,,,,,,,,,,,,,,,
,,,,,,,,,,,,,,,,,5e7d031be805560ae6b93dba,32,2022-02-12_10h38.08.457,lexical_decision_task_DD_L3,2021.2.3,MacIntel,60.0024001,,,,,,,,,,,,0.3765,1,,,,,,,,,,,,,,m,1,0.3765,,,,,,,,0.73312934,-0.442282986,0,0,0,,0,106,106,10,1,BELLY,C,old,m,./images/BELLY.png,,,,,,,,,,,,,,,,,,,,,,,,,,,,,,,,,,
,,,,,,,,,,,,,,,,,5e7d031be805560ae6b93dba,32,2022-02-12_10h38.08.457,lexical_decision_task_DD_L3,2021.2.3,MacIntel,60.0024001,,,,,,,,,,,,0.5085,1,,,,,,,,,,,,,,m,1,0.5085,,,,,,,,0.73312934,-0.442282986,0,0,0,,0,107,107,41,1,STRING,HB,old,m,./images/STRINGHB.png,,,,,,,,,,,,,,,,,,,,,,,,,,,,,,,,,,
,,,,,,,,,,,,,,,,,5e7d031be805560ae6b93dba,32,2022-02-12_10h38.08.457,lexical_decision_task_DD_L3,2021.2.3,MacIntel,60.0024001,,,,,,,,,,,,0.4758,1,,,,,,,,,,,,,,m,1,0.4758,,,,,,,,0.73312934,-0.442282986,0,0,0,,0,108,108,22,1,MELON,C,old,m,./images/MELON.png,,,,,,,,,,,,,,,,,,,,,,,,,,,,,,,,,,
,,,,,,,,,,,,,,,,,5e7d031be805560ae6b93dba,32,2022-02-12_10h38.08.457,lexical_decision_task_DD_L3,2021.2.3,MacIntel,60.0024001,,,,,,,,,,,,0.7141,1,,,,,,,,,,,,,,z,1,0.7141,,,,,,,,0.73312934,-0.442282986,0,0,0,,0,109,109,94,1,BLANS,HB,old,z,./images/BLANSHB.png,,,,,,,,,,,,,,,,,,,,,,,,,,,,,,,,,,
,,,,,,,,,,,,,,,,,5e7d031be805560ae6b93dba,32,2022-02-12_10h38.08.457,lexical_decision_task_DD_L3,2021.2.3,MacIntel,60.0024001,,,,,,,,,,,,0.8201,1,,,,,,,,,,,,,,m,1,0.8201,,,,,,,,0.73312934,-0.442282986,0,0,0,,0,110,110,24,1,SCREW,LB,old,m,./images/SCREWLB.png,,,,,,,,,,,,,,,,,,,,,,,,,,,,,,,,,,
,,,,,,,,,,,,,,,,,5e7d031be805560ae6b93dba,32,2022-02-12_10h38.08.457,lexical_decision_task_DD_L3,2021.2.3,MacIntel,60.0024001,,,,,,,,,,,,1.2984,1,,,,,,,,,,,,,,z,1,1.2984,,,,,,,,0.73312934,-0.442282986,0,0,0,,0,111,111,115,1,MAWNS,HB,old,z,./images/MAWNSHB.png,,,,,,,,,,,,,,,,,,,,,,,,,,,,,,,,,,
,,,,,,,,,,,,,,,,,5e7d031be805560ae6b93dba,32,2022-02-12_10h38.08.457,lexical_decision_task_DD_L3,2021.2.3,MacIntel,60.0024001,,,,,,,,,,,,0.7108,1,,,,,,,,,,,,,,z,1,0.7108,,,,,,,,0.73312934,-0.442282986,0,0,0,,0,112,112,141,1,PLEET,C,old,z,./images/PLEET.png,,,,,,,,,,,,,,,,,,,,,,,,,,,,,,,,,,
,,,,,,,,,,,,,,,,,5e7d031be805560ae6b93dba,32,2022-02-12_10h38.08.457,lexical_decision_task_DD_L3,2021.2.3,MacIntel,60.0024001,,,,,,,,,,,,0.472,1,,,,,,,,,,,,,,m,1,0.472,,,,,,,,0.73312934,-0.442282986,0,0,0,,0,113,113,76,1,INFANT,C,old,m,./images/INFANT.png,,,,,,,,,,,,,,,,,,,,,,,,,,,,,,,,,,
,,,,,,,,,,,,,,,,,5e7d031be805560ae6b93dba,32,2022-02-12_10h38.08.457,lexical_decision_task_DD_L3,2021.2.3,MacIntel,60.0024001,,,,,,,,,,,,0.2753,0,,,,,,,,,,,,,,m,0,0.2753,,,,,,,,0.73312934,-0.442282986,0,0,0,,0,114,114,108,1,GRUET,C,old,z,./images/GRUET.png,,,,,,,,,,,,,,,,,,,,,,,,,,,,,,,,,,
,,,,,,,,,,,,,,,,,5e7d031be805560ae6b93dba,32,2022-02-12_10h38.08.457,lexical_decision_task_DD_L3,2021.2.3,MacIntel,60.0024001,,,,,,,,,,,,0.6389,1,,,,,,,,,,,,,,z,1,0.6389,,,,,,,,0.73312934,-0.442282986,0,0,0,,0,115,115,137,1,JOOST,LB,old,z,./images/JOOSTLB.png,,,,,,,,,,,,,,,,,,,,,,,,,,,,,,,,,,
,,,,,,,,,,,,,,,,,5e7d031be805560ae6b93dba,32,2022-02-12_10h38.08.457,lexical_decision_task_DD_L3,2021.2.3,MacIntel,60.0024001,,,,,,,,,,,,0.5778,0,,,,,,,,,,,,,,z,0,0.5778,,,,,,,,0.73312934,-0.442282986,0,0,0,,0,116,116,38,1,LADDER,HB,old,m,./images/LADDERHB.png,,,,,,,,,,,,,,,,,,,,,,,,,,,,,,,,,,
,,,,,,,,,,,,,,,,,5e7d031be805560ae6b93dba,32,2022-02-12_10h38.08.457,lexical_decision_task_DD_L3,2021.2.3,MacIntel,60.0024001,,,,,,,,,,,,0.5944,0,,,,,,,,,,,,,,z,0,0.5944,,,,,,,,0.73312934,-0.442282986,0,0,0,,0,117,117,58,1,BABOON,C,old,m,./images/BABOON.png,,,,,,,,,,,,,,,,,,,,,,,,,,,,,,,,,,
,,,,,,,,,,,,,,,,,5e7d031be805560ae6b93dba,32,2022-02-12_10h38.08.457,lexical_decision_task_DD_L3,2021.2.3,MacIntel,60.0024001,,,,,,,,,,,,0.5195,1,,,,,,,,,,,,,,z,1,0.5195,,,,,,,,0.73312934,-0.442282986,0,0,0,,0,118,118,156,1,HIXES,C,old,z,./images/HIXES.png,,,,,,,,,,,,,,,,,,,,,,,,,,,,,,,,,,
,,,,,,,,,,,,,,,,,5e7d031be805560ae6b93dba,32,2022-02-12_10h38.08.457,lexical_decision_task_DD_L3,2021.2.3,MacIntel,60.0024001,,,,,,,,,,,,0.5789,1,,,,,,,,,,,,,,z,1,0.5789,,,,,,,,0.73312934,-0.442282986,0,0,0,,0,119,119,125,1,MOOKY,LB,old,z,./images/MOOKYLB.png,,,,,,,,,,,,,,,,,,,,,,,,,,,,,,,,,,
,,,,,,,,,,,,,,,,,5e7d031be805560ae6b93dba,32,2022-02-12_10h38.08.457,lexical_decision_task_DD_L3,2021.2.3,MacIntel,60.0024001,,,,,,,,,,,,0.4775,1,,,,,,,,,,,,,,m,1,0.4775,,,,,,,,0.73312934,-0.442282986,0,0,0,,0,120,120,7,1,PAINT,C,old,m,./images/PAINT.png,,,,,,,,,,,,,,,,,,,,,,,,,,,,,,,,,,
,,,,,,,,,,,,,,,,,5e7d031be805560ae6b93dba,32,2022-02-12_10h38.08.457,lexical_decision_task_DD_L3,2021.2.3,MacIntel,60.0024001,,,,,,,,,,,,0.5264,1,,,,,,,,,,,,,,m,1,0.5264,,,,,,,,0.73312934,-0.442282986,0,0,0,,0,121,121,64,1,JELLY,C,old,m,./images/JELLY.png,,,,,,,,,,,,,,,,,,,,,,,,,,,,,,,,,,
,,,,,,,,,,,,,,,,,5e7d031be805560ae6b93dba,32,2022-02-12_10h38.08.457,lexical_decision_task_DD_L3,2021.2.3,MacIntel,60.0024001,,,,,,,,,,,,0.5178,1,,,,,,,,,,,,,,m,1,0.5178,,,,,,,,0.73312934,-0.442282986,0,0,0,,0,122,122,75,1,GRAIN,LB,old,m,./images/GRAINLB.png,,,,,,,,,,,,,,,,,,,,,,,,,,,,,,,,,,
,,,,,,,,,,,,,,,,,5e7d031be805560ae6b93dba,32,2022-02-12_10h38.08.457,lexical_decision_task_DD_L3,2021.2.3,MacIntel,60.0024001,,,,,,,,,,,,0.6886,1,,,,,,,,,,,,,,z,1,0.6886,,,,,,,,0.73312934,-0.442282986,0,0,0,,0,123,123,162,1,LEICH,C,old,z,./images/LEICH.png,,,,,,,,,,,,,,,,,,,,,,,,,,,,,,,,,,
,,,,,,,,,,,,,,,,,5e7d031be805560ae6b93dba,32,2022-02-12_10h38.08.457,lexical_decision_task_DD_L3,2021.2.3,MacIntel,60.0024001,,,,,,,,,,,,0.9438,1,,,,,,,,,,,,,,z,1,0.9438,,,,,,,,0.73312934,-0.442282986,0,0,0,,0,124,124,146,1,MOOST,LB,old,z,./images/MOOSTLB.png,,,,,,,,,,,,,,,,,,,,,,,,,,,,,,,,,,
,,,,,,,,,,,,,,,,,5e7d031be805560ae6b93dba,32,2022-02-12_10h38.08.457,lexical_decision_task_DD_L3,2021.2.3,MacIntel,60.0024001,,,,,,,,,,,,0.5476,0,,,,,,,,,,,,,,z,0,0.5476,,,,,,,,0.73312934,-0.442282986,0,0,0,space,0,125,125,81,1,POODLE,LB,old,m,./images/POODLELB.png,22.3852,,,,,,,,,,,,,,,,,,,,,,,,,,,,,,,,,
,,,,,,,,,,,,,,,,,5e7d031be805560ae6b93dba,32,2022-02-12_10h38.08.457,lexical_decision_task_DD_L3,2021.2.3,MacIntel,60.0024001,,,,,,,,,,,,0.6178,1,,,,,,,,,,,,,,m,1,0.6178,,,,,,,,0.73312934,-0.442282986,0,0,0,,0,126,126,5,1,PASTA,HB,old,m,./images/PASTAHB.png,,,,,,,,,,,,,,,,,,,,,,,,,,,,,,,,,,
,,,,,,,,,,,,,,,,,5e7d031be805560ae6b93dba,32,2022-02-12_10h38.08.457,lexical_decision_task_DD_L3,2021.2.3,MacIntel,60.0024001,,,,,,,,,,,,0.6568,1,,,,,,,,,,,,,,m,1,0.6568,,,,,,,,0.73312934,-0.442282986,0,0,0,,0,127,127,71,1,PIMPLE,HB,old,m,./images/PIMPLEHB.png,,,,,,,,,,,,,,,,,,,,,,,,,,,,,,,,,,
,,,,,,,,,,,,,,,,,5e7d031be805560ae6b93dba,32,2022-02-12_10h38.08.457,lexical_decision_task_DD_L3,2021.2.3,MacIntel,60.0024001,,,,,,,,,,,,0.5461,1,,,,,,,,,,,,,,m,1,0.5461,,,,,,,,0.73312934,-0.442282986,0,0,0,,0,128,128,33,1,MAGGOT,LB,old,m,./images/MAGGOTLB.png,,,,,,,,,,,,,,,,,,,,,,,,,,,,,,,,,,
,,,,,,,,,,,,,,,,,5e7d031be805560ae6b93dba,32,2022-02-12_10h38.08.457,lexical_decision_task_DD_L3,2021.2.3,MacIntel,60.0024001,,,,,,,,,,,,0.3886,1,,,,,,,,,,,,,,m,1,0.3886,,,,,,,,0.73312934,-0.442282986,0,0,0,,0,129,129,12,1,SHORE,LB,old,m,./images/SHORELB.png,,,,,,,,,,,,,,,,,,,,,,,,,,,,,,,,,,
,,,,,,,,,,,,,,,,,5e7d031be805560ae6b93dba,32,2022-02-12_10h38.08.457,lexical_decision_task_DD_L3,2021.2.3,MacIntel,60.0024001,,,,,,,,,,,,0.5052,1,,,,,,,,,,,,,,m,1,0.5052,,,,,,,,0.73312934,-0.442282986,0,0,0,,0,130,130,70,1,URINE,C,old,m,./images/URINE.png,,,,,,,,,,,,,,,,,,,,,,,,,,,,,,,,,,
,,,,,,,,,,,,,,,,,5e7d031be805560ae6b93dba,32,2022-02-12_10h38.08.457,lexical_decision_task_DD_L3,2021.2.3,MacIntel,60.0024001,,,,,,,,,,,,0.4646,1,,,,,,,,,,,,,,m,1,0.4646,,,,,,,,0.73312934,-0.442282986,0,0,0,,0,131,131,49,1,DRUMS,C,old,m,./images/DRUMS.png,,,,,,,,,,,,,,,,,,,,,,,,,,,,,,,,,,
,,,,,,,,,,,,,,,,,5e7d031be805560ae6b93dba,32,2022-02-12_10h38.08.457,lexical_decision_task_DD_L3,2021.2.3,MacIntel,60.0024001,,,,,,,,,,,,0.4026,1,,,,,,,,,,,,,,m,1,0.4026,,,,,,,,0.73312934,-0.442282986,0,0,0,,0,132,132,57,1,MOOSE,LB,old,m,./images/MOOSELB.png,,,,,,,,,,,,,,,,,,,,,,,,,,,,,,,,,,
,,,,,,,,,,,,,,,,,5e7d031be805560ae6b93dba,32,2022-02-12_10h38.08.457,lexical_decision_task_DD_L3,2021.2.3,MacIntel,60.0024001,,,,,,,,,,,,0.6665,1,,,,,,,,,,,,,,m,1,0.6665,,,,,,,,0.73312934,-0.442282986,0,0,0,,0,133,133,32,1,BARREL,HB,old,m,./images/BARRELHB.png,,,,,,,,,,,,,,,,,,,,,,,,,,,,,,,,,,
,,,,,,,,,,,,,,,,,5e7d031be805560ae6b93dba,32,2022-02-12_10h38.08.457,lexical_decision_task_DD_L3,2021.2.3,MacIntel,60.0024001,,,,,,,,,,,,0.4015,1,,,,,,,,,,,,,,z,1,0.4015,,,,,,,,0.73312934,-0.442282986,0,0,0,,0,134,134,167,1,ZONET,LB,old,z,./images/ZONETLB.png,,,,,,,,,,,,,,,,,,,,,,,,,,,,,,,,,,
,,,,,,,,,,,,,,,,,5e7d031be805560ae6b93dba,32,2022-02-12_10h38.08.457,lexical_decision_task_DD_L3,2021.2.3,MacIntel,60.0024001,,,,,,,,,,,,0.5304,1,,,,,,,,,,,,,,m,1,0.5304,,,,,,,,0.73312934,-0.442282986,0,0,0,,0,135,135,72,1,NOOSE,LB,old,m,./images/NOOSELB.png,,,,,,,,,,,,,,,,,,,,,,,,,,,,,,,,,,
,,,,,,,,,,,,,,,,,5e7d031be805560ae6b93dba,32,2022-02-12_10h38.08.457,lexical_decision_task_DD_L3,2021.2.3,MacIntel,60.0024001,,,,,,,,,,,,0.4854,1,,,,,,,,,,,,,,z,1,0.4854,,,,,,,,0.73312934,-0.442282986,0,0,0,,0,136,136,138,1,PLICE,C,old,z,./images/PLICE.png,,,,,,,,,,,,,,,,,,,,,,,,,,,,,,,,,,
,,,,,,,,,,,,,,,,,5e7d031be805560ae6b93dba,32,2022-02-12_10h38.08.457,lexical_decision_task_DD_L3,2021.2.3,MacIntel,60.0024001,,,,,,,,,,,,0.5313,0,,,,,,,,,,,,,,m,0,0.5313,,,,,,,,0.73312934,-0.442282986,0,0,0,,0,137,137,110,1,CRUNK,LB,old,z,./images/CRUNKLB.png,,,,,,,,,,,,,,,,,,,,,,,,,,,,,,,,,,
,,,,,,,,,,,,,,,,,5e7d031be805560ae6b93dba,32,2022-02-12_10h38.08.457,lexical_decision_task_DD_L3,2021.2.3,MacIntel,60.0024001,,,,,,,,,,,,0.7793,1,,,,,,,,,,,,,,m,1,0.7793,,,,,,,,0.73312934,-0.442282986,0,0,0,,0,138,138,8,1,TULIP,HB,old,m,./images/TULIPHB.png,,,,,,,,,,,,,,,,,,,,,,,,,,,,,,,,,,
,,,,,,,,,,,,,,,,,5e7d031be805560ae6b93dba,32,2022-02-12_10h38.08.457,lexical_decision_task_DD_L3,2021.2.3,MacIntel,60.0024001,,,,,,,,,,,,0.5983,1,,,,,,,,,,,,,,m,1,0.5983,,,,,,,,0.73312934,-0.442282986,0,0,0,,0,139,139,23,1,WALRUS,HB,old,m,./images/WALRUSHB.png,,,,,,,,,,,,,,,,,,,,,,,,,,,,,,,,,,
,,,,,,,,,,,,,,,,,5e7d031be805560ae6b93dba,32,2022-02-12_10h38.08.457,lexical_decision_task_DD_L3,2021.2.3,MacIntel,60.0024001,,,,,,,,,,,,0.4941,1,,,,,,,,,,,,,,m,1,0.4941,,,,,,,,0.73312934,-0.442282986,0,0,0,,0,140,140,67,1,SAILOR,C,old,m,./images/SAILOR.png,,,,,,,,,,,,,,,,,,,,,,,,,,,,,,,,,,
,,,,,,,,,,,,,,,,,5e7d031be805560ae6b93dba,32,2022-02-12_10h38.08.457,lexical_decision_task_DD_L3,2021.2.3,MacIntel,60.0024001,,,,,,,,,,,,0.4366,1,,,,,,,,,,,,,,m,1,0.4366,,,,,,,,0.73312934,-0.442282986,0,0,0,,0,141,141,18,1,JAGUAR,LB,old,m,./images/JAGUARLB.png,,,,,,,,,,,,,,,,,,,,,,,,,,,,,,,,,,
,,,,,,,,,,,,,,,,,5e7d031be805560ae6b93dba,32,2022-02-12_10h38.08.457,lexical_decision_task_DD_L3,2021.2.3,MacIntel,60.0024001,,,,,,,,,,,,0.5932,1,,,,,,,,,,,,,,z,1,0.5932,,,,,,,,0.73312934,-0.442282986,0,0,0,,0,142,142,93,1,SMONE,C,old,z,./images/SMONE.png,,,,,,,,,,,,,,,,,,,,,,,,,,,,,,,,,,
,,,,,,,,,,,,,,,,,5e7d031be805560ae6b93dba,32,2022-02-12_10h38.08.457,lexical_decision_task_DD_L3,2021.2.3,MacIntel,60.0024001,,,,,,,,,,,,0.9161,0,,,,,,,,,,,,,,z,0,0.9161,,,,,,,,0.73312934,-0.442282986,0,0,0,,0,143,143,17,1,SKIING,HB,old,m,./images/SKIINGHB.png,,,,,,,,,,,,,,,,,,,,,,,,,,,,,,,,,,
,,,,,,,,,,,,,,,,,5e7d031be805560ae6b93dba,32,2022-02-12_10h38.08.457,lexical_decision_task_DD_L3,2021.2.3,MacIntel,60.0024001,,,,,,,,,,,,0.4875,1,,,,,,,,,,,,,,z,1,0.4875,,,,,,,,0.73312934,-0.442282986,0,0,0,,0,144,144,159,1,CUDDY,C,old,z,./images/CUDDY.png,,,,,,,,,,,,,,,,,,,,,,,,,,,,,,,,,,
,,,,,,,,,,,,,,,,,5e7d031be805560ae6b93dba,32,2022-02-12_10h38.08.457,lexical_decision_task_DD_L3,2021.2.3,MacIntel,60.0024001,,,,,,,,,,,,0.509,1,,,,,,,,,,,,,,z,1,0.509,,,,,,,,0.73312934,-0.442282986,0,0,0,,0,145,145,86,1,AIFED,LB,old,z,./images/AIFEDLB.png,,,,,,,,,,,,,,,,,,,,,,,,,,,,,,,,,,
,,,,,,,,,,,,,,,,,5e7d031be805560ae6b93dba,32,2022-02-12_10h38.08.457,lexical_decision_task_DD_L3,2021.2.3,MacIntel,60.0024001,,,,,,,,,,,,0.4568,1,,,,,,,,,,,,,,z,1,0.4568,,,,,,,,0.73312934,-0.442282986,0,0,0,,0,146,146,120,1,RINED,C,old,z,./images/RINED.png,,,,,,,,,,,,,,,,,,,,,,,,,,,,,,,,,,
,,,,,,,,,,,,,,,,,5e7d031be805560ae6b93dba,32,2022-02-12_10h38.08.457,lexical_decision_task_DD_L3,2021.2.3,MacIntel,60.0024001,,,,,,,,,,,,0.6167,1,,,,,,,,,,,,,,m,1,0.6167,,,,,,,,0.73312934,-0.442282986,0,0,0,,0,147,147,2,1,BEARD,HB,old,m,./images/BEARDHB.png,,,,,,,,,,,,,,,,,,,,,,,,,,,,,,,,,,
,,,,,,,,,,,,,,,,,5e7d031be805560ae6b93dba,32,2022-02-12_10h38.08.457,lexical_decision_task_DD_L3,2021.2.3,MacIntel,60.0024001,,,,,,,,,,,,0.6529,1,,,,,,,,,,,,,,z,1,0.6529,,,,,,,,0.73312934,-0.442282986,0,0,0,,0,148,148,84,1,HAXES,C,old,z,./images/HAXES.png,,,,,,,,,,,,,,,,,,,,,,,,,,,,,,,,,,
,,,,,,,,,,,,,,,,,5e7d031be805560ae6b93dba,32,2022-02-12_10h38.08.457,lexical_decision_task_DD_L3,2021.2.3,MacIntel,60.0024001,,,,,,,,,,,,0.6477,1,,,,,,,,,,,,,,z,1,0.6477,,,,,,,,0.73312934,-0.442282986,0,0,0,,0,149,149,151,1,TINKY,HB,old,z,./images/TINKYHB.png,,,,,,,,,,,,,,,,,,,,,,,,,,,,,,,,,,
,,,,,,,,,,,,,,,,,5e7d031be805560ae6b93dba,32,2022-02-12_10h38.08.457,lexical_decision_task_DD_L3,2021.2.3,MacIntel,60.0024001,,,,,,,,,,,,0.3977,1,,,,,,,,,,,,,,z,1,0.3977,,,,,,,,0.73312934,-0.442282986,0,0,0,,0,150,150,128,1,GRIFT,LB,old,z,./images/GRIFTLB.png,,,,,,,,,,,,,,,,,,,,,,,,,,,,,,,,,,
,,,,,,,,,,,,,,,,,5e7d031be805560ae6b93dba,32,2022-02-12_10h38.08.457,lexical_decision_task_DD_L3,2021.2.3,MacIntel,60.0024001,,,,,,,,,,,,0.438,1,,,,,,,,,,,,,,m,1,0.438,,,,,,,,0.73312934,-0.442282986,0,0,0,,0,151,151,79,1,CRUST,C,old,m,./images/CRUST.png,,,,,,,,,,,,,,,,,,,,,,,,,,,,,,,,,,
,,,,,,,,,,,,,,,,,5e7d031be805560ae6b93dba,32,2022-02-12_10h38.08.457,lexical_decision_task_DD_L3,2021.2.3,MacIntel,60.0024001,,,,,,,,,,,,0.5194,1,,,,,,,,,,,,,,z,1,0.5194,,,,,,,,0.73312934,-0.442282986,0,0,0,,0,152,152,119,1,PAFER,LB,old,z,./images/PAFERLB.png,,,,,,,,,,,,,,,,,,,,,,,,,,,,,,,,,,
,,,,,,,,,,,,,,,,,5e7d031be805560ae6b93dba,32,2022-02-12_10h38.08.457,lexical_decision_task_DD_L3,2021.2.3,MacIntel,60.0024001,,,,,,,,,,,,0.519,0,,,,,,,,,,,,,,z,0,0.519,,,,,,,,0.73312934,-0.442282986,0,0,0,,0,153,153,54,1,TRIPOD,LB,old,m,./images/TRIPODLB.png,,,,,,,,,,,,,,,,,,,,,,,,,,,,,,,,,,
,,,,,,,,,,,,,,,,,5e7d031be805560ae6b93dba,32,2022-02-12_10h38.08.457,lexical_decision_task_DD_L3,2021.2.3,MacIntel,60.0024001,,,,,,,,,,,,0.8328,1,,,,,,,,,,,,,,m,1,0.8328,,,,,,,,0.73312934,-0.442282986,0,0,0,,0,154,154,26,1,SMOKER,HB,old,m,./images/SMOKERHB.png,,,,,,,,,,,,,,,,,,,,,,,,,,,,,,,,,,
,,,,,,,,,,,,,,,,,5e7d031be805560ae6b93dba,32,2022-02-12_10h38.08.457,lexical_decision_task_DD_L3,2021.2.3,MacIntel,60.0024001,,,,,,,,,,,,0.423,0,,,,,,,,,,,,,,m,0,0.423,,,,,,,,0.73312934,-0.442282986,0,0,0,,0,155,155,87,1,TRING,C,old,z,./images/TRING.png,,,,,,,,,,,,,,,,,,,,,,,,,,,,,,,,,,
,,,,,,,,,,,,,,,,,5e7d031be805560ae6b93dba,32,2022-02-12_10h38.08.457,lexical_decision_task_DD_L3,2021.2.3,MacIntel,60.0024001,,,,,,,,,,,,0.7081,1,,,,,,,,,,,,,,z,1,0.7081,,,,,,,,0.73312934,-0.442282986,0,0,0,,0,156,156,129,1,PRANS,C,old,z,./images/PRANS.png,,,,,,,,,,,,,,,,,,,,,,,,,,,,,,,,,,
,,,,,,,,,,,,,,,,,5e7d031be805560ae6b93dba,32,2022-02-12_10h38.08.457,lexical_decision_task_DD_L3,2021.2.3,MacIntel,60.0024001,,,,,,,,,,,,0.5314,1,,,,,,,,,,,,,,m,1,0.5314,,,,,,,,0.73312934,-0.442282986,0,0,0,,0,157,157,15,1,GREASE,LB,old,m,./images/GREASELB.png,,,,,,,,,,,,,,,,,,,,,,,,,,,,,,,,,,
,,,,,,,,,,,,,,,,,5e7d031be805560ae6b93dba,32,2022-02-12_10h38.08.457,lexical_decision_task_DD_L3,2021.2.3,MacIntel,60.0024001,,,,,,,,,,,,0.889,1,,,,,,,,,,,,,,m,1,0.889,,,,,,,,0.73312934,-0.442282986,0,0,0,,0,158,158,20,1,CRADLE,HB,old,m,./images/CRADLEHB.png,,,,,,,,,,,,,,,,,,,,,,,,,,,,,,,,,,
,,,,,,,,,,,,,,,,,5e7d031be805560ae6b93dba,32,2022-02-12_10h38.08.457,lexical_decision_task_DD_L3,2021.2.3,MacIntel,60.0024001,,,,,,,,,,,,0.6476,1,,,,,,,,,,,,,,m,1,0.6476,,,,,,,,0.73312934,-0.442282986,0,0,0,,0,159,159,44,1,LIZARD,HB,old,m,./images/LIZARDHB.png,,,,,,,,,,,,,,,,,,,,,,,,,,,,,,,,,,
,,,,,,,,,,,,,,,,,5e7d031be805560ae6b93dba,32,2022-02-12_10h38.08.457,lexical_decision_task_DD_L3,2021.2.3,MacIntel,60.0024001,,,,,,,,,,,,0.5266,1,,,,,,,,,,,,,,z,1,0.5266,,,,,,,,0.73312934,-0.442282986,0,0,0,,0,160,160,123,1,SEDGE,C,old,z,./images/SEDGE.png,,,,,,,,,,,,,,,,,,,,,,,,,,,,,,,,,,
,,,,,,,,,,,,,,,,,5e7d031be805560ae6b93dba,32,2022-02-12_10h38.08.457,lexical_decision_task_DD_L3,2021.2.3,MacIntel,60.0024001,,,,,,,,,,,,0.5714,1,,,,,,,,,,,,,,z,1,0.5714,,,,,,,,0.73312934,-0.442282986,0,0,0,,0,161,161,153,1,CLUPS,C,old,z,./images/CLUPS.png,,,,,,,,,,,,,,,,,,,,,,,,,,,,,,,,,,
,,,,,,,,,,,,,,,,,5e7d031be805560ae6b93dba,32,2022-02-12_10h38.08.457,lexical_decision_task_DD_L3,2021.2.3,MacIntel,60.0024001,,,,,,,,,,,,0.5642,1,,,,,,,,,,,,,,m,1,0.5642,,,,,,,,0.73312934,-0.442282986,0,0,0,,0,162,162,83,1,JUNGLE,HB,old,m,./images/JUNGLEHB.png,,,,,,,,,,,,,,,,,,,,,,,,,,,,,,,,,,
,,,,,,,,,,,,,,,,,5e7d031be805560ae6b93dba,32,2022-02-12_10h38.08.457,lexical_decision_task_DD_L3,2021.2.3,MacIntel,60.0024001,,,,,,,,,,,,0.6302,1,,,,,,,,,,,,,,z,1,0.6302,,,,,,,,0.73312934,-0.442282986,0,0,0,,0,163,163,148,1,JOMS,HB,old,z,./images/JOMSHB.png,,,,,,,,,,,,,,,,,,,,,,,,,,,,,,,,,,
,,,,,,,,,,,,,,,,,5e7d031be805560ae6b93dba,32,2022-02-12_10h38.08.457,lexical_decision_task_DD_L3,2021.2.3,MacIntel,60.0024001,,,,,,,,,,,,0.5302,0,,,,,,,,,,,,,,z,0,0.5302,,,,,,,,0.73312934,-0.442282986,0,0,0,,0,164,164,69,1,COOKER,LB,old,m,./images/COOKERLB.png,,,,,,,,,,,,,,,,,,,,,,,,,,,,,,,,,,
,,,,,,,,,,,,,,,,,5e7d031be805560ae6b93dba,32,2022-02-12_10h38.08.457,lexical_decision_task_DD_L3,2021.2.3,MacIntel,60.0024001,,,,,,,,,,,,0.4538,1,,,,,,,,,,,,,,m,1,0.4538,,,,,,,,0.73312934,-0.442282986,0,0,0,,0,165,165,30,1,STORM,LB,old,m,./images/STORMLB.png,,,,,,,,,,,,,,,,,,,,,,,,,,,,,,,,,,
,,,,,,,,,,,,,,,,,5e7d031be805560ae6b93dba,32,2022-02-12_10h38.08.457,lexical_decision_task_DD_L3,2021.2.3,MacIntel,60.0024001,,,,,,,,,,,,1.481,1,,,,,,,,,,,,,,z,1,1.481,,,,,,,,0.73312934,-0.442282986,0,0,0,,0,166,166,166,1,SHORY,HB,old,z,./images/SHORYHB.png,,,,,,,,,,,,,,,,,,,,,,,,,,,,,,,,,,
,,,,,,,,,,,,,,,,,5e7d031be805560ae6b93dba,32,2022-02-12_10h38.08.457,lexical_decision_task_DD_L3,2021.2.3,MacIntel,60.0024001,,,,,,,,,,,,0.6644,1,,,,,,,,,,,,,,z,1,0.6644,,,,,,,,0.73312934,-0.442282986,0,0,0,,0,167,167,103,1,FLORT,HB,old,z,./images/FLORTHB.png,,,,,,,,,,,,,,,,,,,,,,,,,,,,,,,,,,
,,,,,,,,,,,,,,,,,5e7d031be805560ae6b93dba,32,2022-02-12_10h38.08.457,lexical_decision_task_DD_L3,2021.2.3,MacIntel,60.0024001,,,,,,,,,,,,,,,,,,,,,,,,,,,,,,,,,,,,,,,,,,,,,,,,,How likely will it be that you will recognize the words presented very blurred on a scale of 0 (not likely) to 100 (most likely)?,,,,,0.013862847,-0.423172743,1,0,0,jol_adv,2,8.6041,0,0,0,2,1,,,,,,,,,,,,,,,,,,,,
,,,,,,,,,,,,,,,,,5e7d031be805560ae6b93dba,32,2022-02-12_10h38.08.457,lexical_decision_task_DD_L3,2021.2.3,MacIntel,60.0024001,,,,,,,,,,,,,,,,,,,,,,,,,,,,,,,,,,,,,,,,,,,,,,,,,How likely will it be that you will recognize the words presented slighly blurred on a scale of 0 (not likely) to 100 (most likely)?,,,,,,,,,,,3,6.9301,0,1,1,1,1,,,,,,,,,,,,,,,,,,,,
,,,,,,,,,,,,,,,,,5e7d031be805560ae6b93dba,32,2022-02-12_10h38.08.457,lexical_decision_task_DD_L3,2021.2.3,MacIntel,60.0024001,,,,,,,,,,,,,,,,,,,,,,,,,,,,,,,,,,,,,,,,,,,,,,,,,How likely will it be that you will recognize the words presented clearly on a scale of 0 (not likely) to 100 (most likely)?,,,,,,,,,,,5,6.184,0,2,2,0,1,,,,,,,,,,,,,,,,,,,,
,0.009097222,-0.388606771,1,0,0,instr_done_button,,,,,,1,test,"In the next phase you will be presented with the words from the the first phase. Your job is to decide whether you remember seeing the word or not. If you remember seeing the word press ""old"" or type ""m"". If you do not remember seeing the word press ""new"" or type ""z"". Please press the space bar or click on continue to begin. ",,,5e7d031be805560ae6b93dba,32,2022-02-12_10h38.08.457,lexical_decision_task_DD_L3,2021.2.3,MacIntel,60.0024001,,,,,,,,,,,,,,,,,,,,,,,,,,,,,,,,,,,,,,,,,,,,,,,,,,,,,,,,,,,,,,,,,,,0,0,0,0,1,,,,,,,,,,,,,,,
space,0.46891059,-0.308233507,0,0,0,,,,,,,1,test,"In the next phase you will be presented with the words from the the first phase. Your job is to decide whether you remember seeing the word or not. If you remember seeing the word press ""old"" or type ""m"". If you do not remember seeing the word press ""new"" or type ""z"". Please press the space bar or click on continue to begin. ",,,5e7d031be805560ae6b93dba,32,2022-02-12_10h38.08.457,lexical_decision_task_DD_L3,2021.2.3,MacIntel,60.0024001,2.2719,,,,,,,,,,,,,,,,,,,,,,,,,,,,,,,,,,,,,,,,,,,,,,,,,,,,,,,,,,,,,,,,,,1,0,1,0,1,,,,,,,,,,,,,,,
space,0.46891059,-0.308233507,0,0,0,,,,,,,1,test,"In the next phase you will be presented with the words from the the first phase. Your job is to decide whether you remember seeing the word or not. If you remember seeing the word press ""old"" or type ""m"". If you do not remember seeing the word press ""new"" or type ""z"". Please press the space bar or click on continue to begin. ",,,5e7d031be805560ae6b93dba,32,2022-02-12_10h38.08.457,lexical_decision_task_DD_L3,2021.2.3,MacIntel,60.0024001,3.5779,,,,,,,,,,,,,,,,,,,,,,,,,,,,,,,,,,,,,,,,,,,,,,,,,,,,,,,,,,,,,,,,,,2,0,2,0,1,,,,,,,,,,,,,,,
,0.014674479,-0.400221354,1,0,0,instr_done_button,,,,,,1,test,"In the next phase you will be presented with the words from the the first phase. Your job is to decide whether you remember seeing the word or not. If you remember seeing the word press ""old"" or type ""m"". If you do not remember seeing the word press ""new"" or type ""z"". Please press the space bar or click on continue to begin. ",,,5e7d031be805560ae6b93dba,32,2022-02-12_10h38.08.457,lexical_decision_task_DD_L3,2021.2.3,MacIntel,60.0024001,,,,,,,,,,,,,,,,,,,,,,,,,,,,,,,,,,,,,,,,,,,,,,,,,,,,,,,,,,,,,,,,,,,3,0,3,0,1,,,,,,,,,,,,,,,
space,0.69375434,-0.018064236,0,0,0,,,,,,,1,test,"In the next phase you will be presented with the words from the the first phase. Your job is to decide whether you remember seeing the word or not. If you remember seeing the word press ""old"" or type ""m"". If you do not remember seeing the word press ""new"" or type ""z"". Please press the space bar or click on continue to begin. ",,,5e7d031be805560ae6b93dba,32,2022-02-12_10h38.08.457,lexical_decision_task_DD_L3,2021.2.3,MacIntel,60.0024001,5.8735,,,,,,,,,,,,,,,,,,,,,,,,,,,,,,,,,,,,,,,,,,,,,,,,,,,,,,,,,,,,,,,,,,4,0,4,0,1,,,,,,,,,,,,,,,
,,,,,,,,,,,,,,,,,5e7d031be805560ae6b93dba,32,2022-02-12_10h38.08.457,lexical_decision_task_DD_L3,2021.2.3,MacIntel,60.0024001,,,,,,,,,,,,0.872,1,,,,,,,,,,,,,,,,,,,,,,,,0.69375434,-0.018064236,0,0,0,,,,,,,CURRY,LB,z,m,./images/CURRYLB.png,,,,,,,,,,,,,,,,,,,,z,1,0.872,,,,,,,,0,0,0,144,1
,,,,,,,,,,,,,,,,,5e7d031be805560ae6b93dba,32,2022-02-12_10h38.08.457,lexical_decision_task_DD_L3,2021.2.3,MacIntel,60.0024001,,,,,,,,,,,,1.5147,1,,,,,,,,,,,,,,,,,,,,,,,,0.69375434,-0.018064236,0,0,0,,,,,,,PEARL,C,m,m,./images/PEARL.png,,,,,,,,,,,,,,,,,,,,m,1,1.5147,,,,,,,,0,1,1,46,1
,,,,,,,,,,,,,,,,,5e7d031be805560ae6b93dba,32,2022-02-12_10h38.08.457,lexical_decision_task_DD_L3,2021.2.3,MacIntel,60.0024001,,,,,,,,,,,,1.1467,1,,,,,,,,,,,,,,,,,,,,,,,,0.69375434,-0.018064236,0,0,0,,,,,,,BOILER,LB,z,m,./images/BOILERLB.png,,,,,,,,,,,,,,,,,,,,z,1,1.1467,,,,,,,,0,2,2,120,1
,,,,,,,,,,,,,,,,,5e7d031be805560ae6b93dba,32,2022-02-12_10h38.08.457,lexical_decision_task_DD_L3,2021.2.3,MacIntel,60.0024001,,,,,,,,,,,,0.6588,1,,,,,,,,,,,,,,,,,,,,,,,,0.69375434,-0.018064236,0,0,0,,,,,,,PLANK,C,m,m,./images/PLANK.png,,,,,,,,,,,,,,,,,,,,m,1,0.6588,,,,,,,,0,3,3,1,1
,,,,,,,,,,,,,,,,,5e7d031be805560ae6b93dba,32,2022-02-12_10h38.08.457,lexical_decision_task_DD_L3,2021.2.3,MacIntel,60.0024001,,,,,,,,,,,,0.739,1,,,,,,,,,,,,,,,,,,,,,,,,0.69375434,-0.018064236,0,0,0,,,,,,,LLAMA,HB,z,m,./images/LLAMAHB.png,,,,,,,,,,,,,,,,,,,,z,1,0.739,,,,,,,,0,4,4,119,1
,,,,,,,,,,,,,,,,,5e7d031be805560ae6b93dba,32,2022-02-12_10h38.08.457,lexical_decision_task_DD_L3,2021.2.3,MacIntel,60.0024001,,,,,,,,,,,,0.6853,1,,,,,,,,,,,,,,,,,,,,,,,,0.69375434,-0.018064236,0,0,0,,,,,,,URINE,C,m,m,./images/URINE.png,,,,,,,,,,,,,,,,,,,,m,1,0.6853,,,,,,,,0,5,5,70,1
,,,,,,,,,,,,,,,,,5e7d031be805560ae6b93dba,32,2022-02-12_10h38.08.457,lexical_decision_task_DD_L3,2021.2.3,MacIntel,60.0024001,,,,,,,,,,,,0.8146,1,,,,,,,,,,,,,,,,,,,,,,,,0.69375434,-0.018064236,0,0,0,,,,,,,CASINO,C,z,m,./images/CASINO.png,,,,,,,,,,,,,,,,,,,,z,1,0.8146,,,,,,,,0,6,6,112,1
,,,,,,,,,,,,,,,,,5e7d031be805560ae6b93dba,32,2022-02-12_10h38.08.457,lexical_decision_task_DD_L3,2021.2.3,MacIntel,60.0024001,,,,,,,,,,,,0.7149,1,,,,,,,,,,,,,,,,,,,,,,,,0.69375434,-0.018064236,0,0,0,,,,,,,BROOM,LB,z,m,./images/BROOMLB.png,,,,,,,,,,,,,,,,,,,,z,1,0.7149,,,,,,,,0,7,7,162,1
,,,,,,,,,,,,,,,,,5e7d031be805560ae6b93dba,32,2022-02-12_10h38.08.457,lexical_decision_task_DD_L3,2021.2.3,MacIntel,60.0024001,,,,,,,,,,,,0.7974,1,,,,,,,,,,,,,,,,,,,,,,,,0.69375434,-0.018064236,0,0,0,,,,,,,CRADLE,HB,m,m,./images/CRADLEHB.png,,,,,,,,,,,,,,,,,,,,m,1,0.7974,,,,,,,,0,8,8,20,1
,,,,,,,,,,,,,,,,,5e7d031be805560ae6b93dba,32,2022-02-12_10h38.08.457,lexical_decision_task_DD_L3,2021.2.3,MacIntel,60.0024001,,,,,,,,,,,,0.4814,1,,,,,,,,,,,,,,,,,,,,,,,,0.69375434,-0.018064236,0,0,0,,,,,,,LIZARD,HB,m,m,./images/LIZARDHB.png,,,,,,,,,,,,,,,,,,,,m,1,0.4814,,,,,,,,0,9,9,44,1
,,,,,,,,,,,,,,,,,5e7d031be805560ae6b93dba,32,2022-02-12_10h38.08.457,lexical_decision_task_DD_L3,2021.2.3,MacIntel,60.0024001,,,,,,,,,,,,0.5577,1,,,,,,,,,,,,,,,,,,,,,,,,0.69375434,-0.018064236,0,0,0,,,,,,,MIRROR,LB,m,m,./images/MIRRORLB.png,,,,,,,,,,,,,,,,,,,,m,1,0.5577,,,,,,,,0,10,10,63,1
,,,,,,,,,,,,,,,,,5e7d031be805560ae6b93dba,32,2022-02-12_10h38.08.457,lexical_decision_task_DD_L3,2021.2.3,MacIntel,60.0024001,,,,,,,,,,,,0.5422,1,,,,,,,,,,,,,,,,,,,,,,,,0.69375434,-0.018064236,0,0,0,,,,,,,BEARD,HB,m,m,./images/BEARDHB.png,,,,,,,,,,,,,,,,,,,,m,1,0.5422,,,,,,,,0,11,11,2,1
,,,,,,,,,,,,,,,,,5e7d031be805560ae6b93dba,32,2022-02-12_10h38.08.457,lexical_decision_task_DD_L3,2021.2.3,MacIntel,60.0024001,,,,,,,,,,,,0.9428,1,,,,,,,,,,,,,,,,,,,,,,,,0.69375434,-0.018064236,0,0,0,,,,,,,POKER,C,z,m,./images/POKER.png,,,,,,,,,,,,,,,,,,,,z,1,0.9428,,,,,,,,0,12,12,151,1
,,,,,,,,,,,,,,,,,5e7d031be805560ae6b93dba,32,2022-02-12_10h38.08.457,lexical_decision_task_DD_L3,2021.2.3,MacIntel,60.0024001,,,,,,,,,,,,0.5826,1,,,,,,,,,,,,,,,,,,,,,,,,0.69375434,-0.018064236,0,0,0,,,,,,,PASTA,HB,m,m,./images/PASTAHB.png,,,,,,,,,,,,,,,,,,,,m,1,0.5826,,,,,,,,0,13,13,5,1
,,,,,,,,,,,,,,,,,5e7d031be805560ae6b93dba,32,2022-02-12_10h38.08.457,lexical_decision_task_DD_L3,2021.2.3,MacIntel,60.0024001,,,,,,,,,,,,0.492,1,,,,,,,,,,,,,,,,,,,,,,,,0.69375434,-0.018064236,0,0,0,,,,,,,TULIP,HB,m,m,./images/TULIPHB.png,,,,,,,,,,,,,,,,,,,,m,1,0.492,,,,,,,,0,14,14,8,1
,,,,,,,,,,,,,,,,,5e7d031be805560ae6b93dba,32,2022-02-12_10h38.08.457,lexical_decision_task_DD_L3,2021.2.3,MacIntel,60.0024001,,,,,,,,,,,,0.5561,1,,,,,,,,,,,,,,,,,,,,,,,,0.69375434,-0.018064236,0,0,0,,,,,,,KITTEN,LB,m,m,./images/KITTENLB.png,,,,,,,,,,,,,,,,,,,,m,1,0.5561,,,,,,,,0,15,15,45,1
,,,,,,,,,,,,,,,,,5e7d031be805560ae6b93dba,32,2022-02-12_10h38.08.457,lexical_decision_task_DD_L3,2021.2.3,MacIntel,60.0024001,,,,,,,,,,,,0.5419,1,,,,,,,,,,,,,,,,,,,,,,,,0.69375434,-0.018064236,0,0,0,,,,,,,FOLDER,LB,m,m,./images/FOLDERLB.png,,,,,,,,,,,,,,,,,,,,m,1,0.5419,,,,,,,,0,16,16,42,1
,,,,,,,,,,,,,,,,,5e7d031be805560ae6b93dba,32,2022-02-12_10h38.08.457,lexical_decision_task_DD_L3,2021.2.3,MacIntel,60.0024001,,,,,,,,,,,,0.5993,0,,,,,,,,,,,,,,,,,,,,,,,,0.69375434,-0.018064236,0,0,0,,,,,,,STEAK,C,z,m,./images/STEAK.png,,,,,,,,,,,,,,,,,,,,m,0,0.5993,,,,,,,,0,17,17,115,1
,,,,,,,,,,,,,,,,,5e7d031be805560ae6b93dba,32,2022-02-12_10h38.08.457,lexical_decision_task_DD_L3,2021.2.3,MacIntel,60.0024001,,,,,,,,,,,,0.6661,0,,,,,,,,,,,,,,,,,,,,,,,,0.69375434,-0.018064236,0,0,0,,,,,,,DRILL,LB,z,m,./images/DRILLLB.png,,,,,,,,,,,,,,,,,,,,m,0,0.6661,,,,,,,,0,18,18,165,1
,,,,,,,,,,,,,,,,,5e7d031be805560ae6b93dba,32,2022-02-12_10h38.08.457,lexical_decision_task_DD_L3,2021.2.3,MacIntel,60.0024001,,,,,,,,,,,,0.7549,0,,,,,,,,,,,,,,,,,,,,,,,,0.69375434,-0.018064236,0,0,0,,,,,,,CRATER,LB,z,m,./images/CRATERLB.png,,,,,,,,,,,,,,,,,,,,m,0,0.7549,,,,,,,,0,19,19,87,1
,,,,,,,,,,,,,,,,,5e7d031be805560ae6b93dba,32,2022-02-12_10h38.08.457,lexical_decision_task_DD_L3,2021.2.3,MacIntel,60.0024001,,,,,,,,,,,,0.5264,1,,,,,,,,,,,,,,,,,,,,,,,,0.69375434,-0.018064236,0,0,0,,,,,,,COOKER,LB,m,m,./images/COOKERLB.png,,,,,,,,,,,,,,,,,,,,m,1,0.5264,,,,,,,,0,20,20,69,1
,,,,,,,,,,,,,,,,,5e7d031be805560ae6b93dba,32,2022-02-12_10h38.08.457,lexical_decision_task_DD_L3,2021.2.3,MacIntel,60.0024001,,,,,,,,,,,,0.5599,1,,,,,,,,,,,,,,,,,,,,,,,,0.69375434,-0.018064236,0,0,0,,,,,,,PIMPLE,HB,m,m,./images/PIMPLEHB.png,,,,,,,,,,,,,,,,,,,,m,1,0.5599,,,,,,,,0,21,21,71,1
,,,,,,,,,,,,,,,,,5e7d031be805560ae6b93dba,32,2022-02-12_10h38.08.457,lexical_decision_task_DD_L3,2021.2.3,MacIntel,60.0024001,,,,,,,,,,,,0.4886,1,,,,,,,,,,,,,,,,,,,,,,,,0.69375434,-0.018064236,0,0,0,,,,,,,SNACK,C,m,m,./images/SNACK.png,,,,,,,,,,,,,,,,,,,,m,1,0.4886,,,,,,,,0,22,22,73,1
,,,,,,,,,,,,,,,,,5e7d031be805560ae6b93dba,32,2022-02-12_10h38.08.457,lexical_decision_task_DD_L3,2021.2.3,MacIntel,60.0024001,,,,,,,,,,,,0.9654,0,,,,,,,,,,,,,,,,,,,,,,,,0.69375434,-0.018064236,0,0,0,,,,,,,SHIELD,LB,z,m,./images/SHIELDLB.png,,,,,,,,,,,,,,,,,,,,m,0,0.9654,,,,,,,,0,23,23,132,1
,,,,,,,,,,,,,,,,,5e7d031be805560ae6b93dba,32,2022-02-12_10h38.08.457,lexical_decision_task_DD_L3,2021.2.3,MacIntel,60.0024001,,,,,,,,,,,,0.6097,0,,,,,,,,,,,,,,,,,,,,,,,,0.69375434,-0.018064236,0,0,0,,,,,,,BRUSH,HB,z,m,./images/BRUSHHB.png,,,,,,,,,,,,,,,,,,,,m,0,0.6097,,,,,,,,0,24,24,143,1
,,,,,,,,,,,,,,,,,5e7d031be805560ae6b93dba,32,2022-02-12_10h38.08.457,lexical_decision_task_DD_L3,2021.2.3,MacIntel,60.0024001,,,,,,,,,,,,0.4942,0,,,,,,,,,,,,,,,,,,,,,,,,0.69375434,-0.018064236,0,0,0,,,,,,,GRAPE,C,z,m,./images/GRAPE.png,,,,,,,,,,,,,,,,,,,,m,0,0.4942,,,,,,,,0,25,25,100,1
,,,,,,,,,,,,,,,,,5e7d031be805560ae6b93dba,32,2022-02-12_10h38.08.457,lexical_decision_task_DD_L3,2021.2.3,MacIntel,60.0024001,,,,,,,,,,,,0.5743,0,,,,,,,,,,,,,,,,,,,,,,,,0.69375434,-0.018064236,0,0,0,,,,,,,PARCEL,LB,z,m,./images/PARCELLB.png,,,,,,,,,,,,,,,,,,,,m,0,0.5743,,,,,,,,0,26,26,102,1
,,,,,,,,,,,,,,,,,5e7d031be805560ae6b93dba,32,2022-02-12_10h38.08.457,lexical_decision_task_DD_L3,2021.2.3,MacIntel,60.0024001,,,,,,,,,,,,0.5315,0,,,,,,,,,,,,,,,,,,,,,,,,0.69375434,-0.018064236,0,0,0,,,,,,,CHAIN,LB,z,m,./images/CHAINLB.png,,,,,,,,,,,,,,,,,,,,m,0,0.5315,,,,,,,,0,27,27,126,1
,,,,,,,,,,,,,,,,,5e7d031be805560ae6b93dba,32,2022-02-12_10h38.08.457,lexical_decision_task_DD_L3,2021.2.3,MacIntel,60.0024001,,,,,,,,,,,,0.5237,1,,,,,,,,,,,,,,,,,,,,,,,,0.69375434,-0.018064236,0,0,0,,,,,,,BANNER,C,m,m,./images/BANNER.png,,,,,,,,,,,,,,,,,,,,m,1,0.5237,,,,,,,,0,28,28,52,1
,,,,,,,,,,,,,,,,,5e7d031be805560ae6b93dba,32,2022-02-12_10h38.08.457,lexical_decision_task_DD_L3,2021.2.3,MacIntel,60.0024001,,,,,,,,,,,,0.5757,0,,,,,,,,,,,,,,,,,,,,,,,,0.69375434,-0.018064236,0,0,0,,,,,,,PISTOL,HB,z,m,./images/PISTOLHB.png,,,,,,,,,,,,,,,,,,,,m,0,0.5757,,,,,,,,0,29,29,113,1
,,,,,,,,,,,,,,,,,5e7d031be805560ae6b93dba,32,2022-02-12_10h38.08.457,lexical_decision_task_DD_L3,2021.2.3,MacIntel,60.0024001,,,,,,,,,,,,0.733,1,,,,,,,,,,,,,,,,,,,,,,,,0.69375434,-0.018064236,0,0,0,,,,,,,BANANA,C,z,m,./images/BANANA.png,,,,,,,,,,,,,,,,,,,,z,1,0.733,,,,,,,,0,30,30,154,1
,,,,,,,,,,,,,,,,,5e7d031be805560ae6b93dba,32,2022-02-12_10h38.08.457,lexical_decision_task_DD_L3,2021.2.3,MacIntel,60.0024001,,,,,,,,,,,,0.6819,1,,,,,,,,,,,,,,,,,,,,,,,,0.69375434,-0.018064236,0,0,0,,,,,,,SHORE,LB,m,m,./images/SHORELB.png,,,,,,,,,,,,,,,,,,,,m,1,0.6819,,,,,,,,0,31,31,12,1
,,,,,,,,,,,,,,,,,5e7d031be805560ae6b93dba,32,2022-02-12_10h38.08.457,lexical_decision_task_DD_L3,2021.2.3,MacIntel,60.0024001,,,,,,,,,,,,0.6924,1,,,,,,,,,,,,,,,,,,,,,,,,0.69375434,-0.018064236,0,0,0,,,,,,,SWING,C,m,m,./images/SWING.png,,,,,,,,,,,,,,,,,,,,m,1,0.6924,,,,,,,,0,32,32,40,1
,,,,,,,,,,,,,,,,,5e7d031be805560ae6b93dba,32,2022-02-12_10h38.08.457,lexical_decision_task_DD_L3,2021.2.3,MacIntel,60.0024001,,,,,,,,,,,,0.5177,1,,,,,,,,,,,,,,,,,,,,,,,,0.69375434,-0.018064236,0,0,0,,,,,,,CEMENT,HB,m,m,./images/CEMENTHB.png,,,,,,,,,,,,,,,,,,,,m,1,0.5177,,,,,,,,0,33,33,74,1
,,,,,,,,,,,,,,,,,5e7d031be805560ae6b93dba,32,2022-02-12_10h38.08.457,lexical_decision_task_DD_L3,2021.2.3,MacIntel,60.0024001,,,,,,,,,,,,0.5328,1,,,,,,,,,,,,,,,,,,,,,,,,0.69375434,-0.018064236,0,0,0,,,,,,,TOMATO,LB,m,m,./images/TOMATOLB.png,,,,,,,,,,,,,,,,,,,,m,1,0.5328,,,,,,,,0,34,34,0,1
,,,,,,,,,,,,,,,,,5e7d031be805560ae6b93dba,32,2022-02-12_10h38.08.457,lexical_decision_task_DD_L3,2021.2.3,MacIntel,60.0024001,,,,,,,,,,,,0.7487,1,,,,,,,,,,,,,,,,,,,,,,,,0.69375434,-0.018064236,0,0,0,,,,,,,FALCON,C,m,m,./images/FALCON.png,,,,,,,,,,,,,,,,,,,,m,1,0.7487,,,,,,,,0,35,35,28,1
,,,,,,,,,,,,,,,,,5e7d031be805560ae6b93dba,32,2022-02-12_10h38.08.457,lexical_decision_task_DD_L3,2021.2.3,MacIntel,60.0024001,,,,,,,,,,,,0.4818,1,,,,,,,,,,,,,,,,,,,,,,,,0.69375434,-0.018064236,0,0,0,,,,,,,GREASE,LB,m,m,./images/GREASELB.png,,,,,,,,,,,,,,,,,,,,m,1,0.4818,,,,,,,,0,36,36,15,1
,,,,,,,,,,,,,,,,,5e7d031be805560ae6b93dba,32,2022-02-12_10h38.08.457,lexical_decision_task_DD_L3,2021.2.3,MacIntel,60.0024001,,,,,,,,,,,,0.8741,1,,,,,,,,,,,,,,,,,,,,,,,,0.69375434,-0.018064236,0,0,0,,,,,,,CLOTH,HB,z,m,./images/CLOTHHB.png,,,,,,,,,,,,,,,,,,,,z,1,0.8741,,,,,,,,0,37,37,107,1
,,,,,,,,,,,,,,,,,5e7d031be805560ae6b93dba,32,2022-02-12_10h38.08.457,lexical_decision_task_DD_L3,2021.2.3,MacIntel,60.0024001,,,,,,,,,,,,0.5656,1,,,,,,,,,,,,,,,,,,,,,,,,0.69375434,-0.018064236,0,0,0,,,,,,,FARMER,HB,m,m,./images/FARMERHB.png,,,,,,,,,,,,,,,,,,,,m,1,0.5656,,,,,,,,0,38,38,65,1
,,,,,,,,,,,,,,,,,5e7d031be805560ae6b93dba,32,2022-02-12_10h38.08.457,lexical_decision_task_DD_L3,2021.2.3,MacIntel,60.0024001,,,,,,,,,,,,0.5138,1,,,,,,,,,,,,,,,,,,,,,,,,0.69375434,-0.018064236,0,0,0,,,,,,,JUNGLE,HB,m,m,./images/JUNGLEHB.png,,,,,,,,,,,,,,,,,,,,m,1,0.5138,,,,,,,,0,39,39,83,1
,,,,,,,,,,,,,,,,,5e7d031be805560ae6b93dba,32,2022-02-12_10h38.08.457,lexical_decision_task_DD_L3,2021.2.3,MacIntel,60.0024001,,,,,,,,,,,,0.4927,1,,,,,,,,,,,,,,,,,,,,,,,,0.69375434,-0.018064236,0,0,0,,,,,,,SUNSET,C,m,m,./images/SUNSET.png,,,,,,,,,,,,,,,,,,,,m,1,0.4927,,,,,,,,0,40,40,82,1
,,,,,,,,,,,,,,,,,5e7d031be805560ae6b93dba,32,2022-02-12_10h38.08.457,lexical_decision_task_DD_L3,2021.2.3,MacIntel,60.0024001,,,,,,,,,,,,0.4153,0,,,,,,,,,,,,,,,,,,,,,,,,0.69375434,-0.018064236,0,0,0,space,,,,,,BLOKE,LB,z,m,./images/BLOKELB.png,5.6749,,,,,,,,,,,,,,,,,,,m,0,0.4153,,,,,,,,0,41,41,96,1
,,,,,,,,,,,,,,,,,5e7d031be805560ae6b93dba,32,2022-02-12_10h38.08.457,lexical_decision_task_DD_L3,2021.2.3,MacIntel,60.0024001,,,,,,,,,,,,0.7371,1,,,,,,,,,,,,,,,,,,,,,,,,0.69375434,-0.018064236,0,0,0,,,,,,,LAGOON,HB,z,m,./images/LAGOONHB.png,,,,,,,,,,,,,,,,,,,,z,1,0.7371,,,,,,,,0,42,42,131,1
,,,,,,,,,,,,,,,,,5e7d031be805560ae6b93dba,32,2022-02-12_10h38.08.457,lexical_decision_task_DD_L3,2021.2.3,MacIntel,60.0024001,,,,,,,,,,,,0.5018,0,,,,,,,,,,,,,,,,,,,,,,,,0.69375434,-0.018064236,0,0,0,,,,,,,CLOUD,HB,z,m,./images/CLOUDHB.png,,,,,,,,,,,,,,,,,,,,m,0,0.5018,,,,,,,,0,43,43,110,1
,,,,,,,,,,,,,,,,,5e7d031be805560ae6b93dba,32,2022-02-12_10h38.08.457,lexical_decision_task_DD_L3,2021.2.3,MacIntel,60.0024001,,,,,,,,,,,,0.6381,1,,,,,,,,,,,,,,,,,,,,,,,,0.69375434,-0.018064236,0,0,0,,,,,,,GARDEN,C,z,m,./images/GARDEN.png,,,,,,,,,,,,,,,,,,,,z,1,0.6381,,,,,,,,0,44,44,94,1
,,,,,,,,,,,,,,,,,5e7d031be805560ae6b93dba,32,2022-02-12_10h38.08.457,lexical_decision_task_DD_L3,2021.2.3,MacIntel,60.0024001,,,,,,,,,,,,0.5814,1,,,,,,,,,,,,,,,,,,,,,,,,0.69375434,-0.018064236,0,0,0,,,,,,,MAMMAL,HB,z,m,./images/MAMMALHB.png,,,,,,,,,,,,,,,,,,,,z,1,0.5814,,,,,,,,0,45,45,146,1
,,,,,,,,,,,,,,,,,5e7d031be805560ae6b93dba,32,2022-02-12_10h38.08.457,lexical_decision_task_DD_L3,2021.2.3,MacIntel,60.0024001,,,,,,,,,,,,0.6544,1,,,,,,,,,,,,,,,,,,,,,,,,0.69375434,-0.018064236,0,0,0,,,,,,,KIDNEY,LB,m,m,./images/KIDNEYLB.png,,,,,,,,,,,,,,,,,,,,m,1,0.6544,,,,,,,,0,46,46,21,1
,,,,,,,,,,,,,,,,,5e7d031be805560ae6b93dba,32,2022-02-12_10h38.08.457,lexical_decision_task_DD_L3,2021.2.3,MacIntel,60.0024001,,,,,,,,,,,,0.5755,1,,,,,,,,,,,,,,,,,,,,,,,,0.69375434,-0.018064236,0,0,0,,,,,,,STOVE,HB,z,m,./images/STOVEHB.png,,,,,,,,,,,,,,,,,,,,z,1,0.5755,,,,,,,,0,47,47,86,1
,,,,,,,,,,,,,,,,,5e7d031be805560ae6b93dba,32,2022-02-12_10h38.08.457,lexical_decision_task_DD_L3,2021.2.3,MacIntel,60.0024001,,,,,,,,,,,,2.0159,1,,,,,,,,,,,,,,,,,,,,,,,,0.69375434,-0.018064236,0,0,0,,,,,,,PILOT,HB,z,m,./images/PILOTHB.png,,,,,,,,,,,,,,,,,,,,z,1,2.0159,,,,,,,,0,48,48,134,1
,,,,,,,,,,,,,,,,,5e7d031be805560ae6b93dba,32,2022-02-12_10h38.08.457,lexical_decision_task_DD_L3,2021.2.3,MacIntel,60.0024001,,,,,,,,,,,,0.7646,1,,,,,,,,,,,,,,,,,,,,,,,,0.69375434,-0.018064236,0,0,0,,,,,,,STRING,HB,m,m,./images/STRINGHB.png,,,,,,,,,,,,,,,,,,,,m,1,0.7646,,,,,,,,0,49,49,41,1
,,,,,,,,,,,,,,,,,5e7d031be805560ae6b93dba,32,2022-02-12_10h38.08.457,lexical_decision_task_DD_L3,2021.2.3,MacIntel,60.0024001,,,,,,,,,,,,0.5697,1,,,,,,,,,,,,,,,,,,,,,,,,0.69375434,-0.018064236,0,0,0,,,,,,,TIGER,C,z,m,./images/TIGER.png,,,,,,,,,,,,,,,,,,,,z,1,0.5697,,,,,,,,0,50,50,121,1
,,,,,,,,,,,,,,,,,5e7d031be805560ae6b93dba,32,2022-02-12_10h38.08.457,lexical_decision_task_DD_L3,2021.2.3,MacIntel,60.0024001,,,,,,,,,,,,0.6747,0,,,,,,,,,,,,,,,,,,,,,,,,0.69375434,-0.018064236,0,0,0,,,,,,,BASKET,HB,z,m,./images/BASKETHB.png,,,,,,,,,,,,,,,,,,,,m,0,0.6747,,,,,,,,0,51,51,128,1
,,,,,,,,,,,,,,,,,5e7d031be805560ae6b93dba,32,2022-02-12_10h38.08.457,lexical_decision_task_DD_L3,2021.2.3,MacIntel,60.0024001,,,,,,,,,,,,0.5666,1,,,,,,,,,,,,,,,,,,,,,,,,0.69375434,-0.018064236,0,0,0,,,,,,,SAUCE,LB,z,m,./images/SAUCELB.png,,,,,,,,,,,,,,,,,,,,z,1,0.5666,,,,,,,,0,52,52,135,1
,,,,,,,,,,,,,,,,,5e7d031be805560ae6b93dba,32,2022-02-12_10h38.08.457,lexical_decision_task_DD_L3,2021.2.3,MacIntel,60.0024001,,,,,,,,,,,,1.1966,1,,,,,,,,,,,,,,,,,,,,,,,,0.69375434,-0.018064236,0,0,0,,,,,,,TWINS,LB,m,m,./images/TWINSLB.png,,,,,,,,,,,,,,,,,,,,m,1,1.1966,,,,,,,,0,53,53,60,1
,,,,,,,,,,,,,,,,,5e7d031be805560ae6b93dba,32,2022-02-12_10h38.08.457,lexical_decision_task_DD_L3,2021.2.3,MacIntel,60.0024001,,,,,,,,,,,,0.6901,1,,,,,,,,,,,,,,,,,,,,,,,,0.69375434,-0.018064236,0,0,0,,,,,,,BUTTER,LB,z,m,./images/BUTTERLB.png,,,,,,,,,,,,,,,,,,,,z,1,0.6901,,,,,,,,0,54,54,111,1
,,,,,,,,,,,,,,,,,5e7d031be805560ae6b93dba,32,2022-02-12_10h38.08.457,lexical_decision_task_DD_L3,2021.2.3,MacIntel,60.0024001,,,,,,,,,,,,0.6323,1,,,,,,,,,,,,,,,,,,,,,,,,0.69375434,-0.018064236,0,0,0,,,,,,,CHERRY,LB,z,m,./images/CHERRYLB.png,,,,,,,,,,,,,,,,,,,,z,1,0.6323,,,,,,,,0,55,55,138,1
,,,,,,,,,,,,,,,,,5e7d031be805560ae6b93dba,32,2022-02-12_10h38.08.457,lexical_decision_task_DD_L3,2021.2.3,MacIntel,60.0024001,,,,,,,,,,,,0.6383,1,,,,,,,,,,,,,,,,,,,,,,,,0.69375434,-0.018064236,0,0,0,,,,,,,PEACH,HB,m,m,./images/PEACHHB.png,,,,,,,,,,,,,,,,,,,,m,1,0.6383,,,,,,,,0,56,56,35,1
,,,,,,,,,,,,,,,,,5e7d031be805560ae6b93dba,32,2022-02-12_10h38.08.457,lexical_decision_task_DD_L3,2021.2.3,MacIntel,60.0024001,,,,,,,,,,,,0.856,1,,,,,,,,,,,,,,,,,,,,,,,,0.69375434,-0.018064236,0,0,0,,,,,,,SWEAT,LB,m,m,./images/SWEATLB.png,,,,,,,,,,,,,,,,,,,,m,1,0.856,,,,,,,,0,57,57,66,1
,,,,,,,,,,,,,,,,,5e7d031be805560ae6b93dba,32,2022-02-12_10h38.08.457,lexical_decision_task_DD_L3,2021.2.3,MacIntel,60.0024001,,,,,,,,,,,,0.5161,1,,,,,,,,,,,,,,,,,,,,,,,,0.69375434,-0.018064236,0,0,0,,,,,,,CLIFF,HB,z,m,./images/CLIFFHB.png,,,,,,,,,,,,,,,,,,,,z,1,0.5161,,,,,,,,0,58,58,92,1
,,,,,,,,,,,,,,,,,5e7d031be805560ae6b93dba,32,2022-02-12_10h38.08.457,lexical_decision_task_DD_L3,2021.2.3,MacIntel,60.0024001,,,,,,,,,,,,0.7644,1,,,,,,,,,,,,,,,,,,,,,,,,0.69375434,-0.018064236,0,0,0,,,,,,,TORCH,HB,m,m,./images/TORCHHB.png,,,,,,,,,,,,,,,,,,,,m,1,0.7644,,,,,,,,0,59,59,68,1
,,,,,,,,,,,,,,,,,5e7d031be805560ae6b93dba,32,2022-02-12_10h38.08.457,lexical_decision_task_DD_L3,2021.2.3,MacIntel,60.0024001,,,,,,,,,,,,0.6433,1,,,,,,,,,,,,,,,,,,,,,,,,0.69375434,-0.018064236,0,0,0,,,,,,,WEASEL,HB,m,m,./images/WEASELHB.png,,,,,,,,,,,,,,,,,,,,m,1,0.6433,,,,,,,,0,60,60,80,1
,,,,,,,,,,,,,,,,,5e7d031be805560ae6b93dba,32,2022-02-12_10h38.08.457,lexical_decision_task_DD_L3,2021.2.3,MacIntel,60.0024001,,,,,,,,,,,,0.7313,1,,,,,,,,,,,,,,,,,,,,,,,,0.69375434,-0.018064236,0,0,0,,,,,,,RAZOR,C,z,m,./images/RAZOR.png,,,,,,,,,,,,,,,,,,,,z,1,0.7313,,,,,,,,0,61,61,118,1
,,,,,,,,,,,,,,,,,5e7d031be805560ae6b93dba,32,2022-02-12_10h38.08.457,lexical_decision_task_DD_L3,2021.2.3,MacIntel,60.0024001,,,,,,,,,,,,0.5907,1,,,,,,,,,,,,,,,,,,,,,,,,0.69375434,-0.018064236,0,0,0,,,,,,,TRIPOD,LB,m,m,./images/TRIPODLB.png,,,,,,,,,,,,,,,,,,,,m,1,0.5907,,,,,,,,0,62,62,54,1
,,,,,,,,,,,,,,,,,5e7d031be805560ae6b93dba,32,2022-02-12_10h38.08.457,lexical_decision_task_DD_L3,2021.2.3,MacIntel,60.0024001,,,,,,,,,,,,0.7832,0,,,,,,,,,,,,,,,,,,,,,,,,0.69375434,-0.018064236,0,0,0,,,,,,,SKIING,HB,m,m,./images/SKIINGHB.png,,,,,,,,,,,,,,,,,,,,z,0,0.7832,,,,,,,,0,63,63,17,1
,,,,,,,,,,,,,,,,,5e7d031be805560ae6b93dba,32,2022-02-12_10h38.08.457,lexical_decision_task_DD_L3,2021.2.3,MacIntel,60.0024001,,,,,,,,,,,,0.6639,1,,,,,,,,,,,,,,,,,,,,,,,,0.69375434,-0.018064236,0,0,0,,,,,,,STOOL,C,z,m,./images/STOOL.png,,,,,,,,,,,,,,,,,,,,z,1,0.6639,,,,,,,,0,64,64,127,1
,,,,,,,,,,,,,,,,,5e7d031be805560ae6b93dba,32,2022-02-12_10h38.08.457,lexical_decision_task_DD_L3,2021.2.3,MacIntel,60.0024001,,,,,,,,,,,,0.5152,1,,,,,,,,,,,,,,,,,,,,,,,,0.69375434,-0.018064236,0,0,0,,,,,,,SAUNA,LB,z,m,./images/SAUNALB.png,,,,,,,,,,,,,,,,,,,,z,1,0.5152,,,,,,,,0,65,65,117,1
,,,,,,,,,,,,,,,,,5e7d031be805560ae6b93dba,32,2022-02-12_10h38.08.457,lexical_decision_task_DD_L3,2021.2.3,MacIntel,60.0024001,,,,,,,,,,,,0.5158,1,,,,,,,,,,,,,,,,,,,,,,,,0.69375434,-0.018064236,0,0,0,,,,,,,SPINE,HB,z,m,./images/SPINEHB.png,,,,,,,,,,,,,,,,,,,,z,1,0.5158,,,,,,,,0,66,66,149,1
,,,,,,,,,,,,,,,,,5e7d031be805560ae6b93dba,32,2022-02-12_10h38.08.457,lexical_decision_task_DD_L3,2021.2.3,MacIntel,60.0024001,,,,,,,,,,,,0.7117,1,,,,,,,,,,,,,,,,,,,,,,,,0.69375434,-0.018064236,0,0,0,,,,,,,BUBBLE,HB,z,m,./images/BUBBLEHB.png,,,,,,,,,,,,,,,,,,,,z,1,0.7117,,,,,,,,0,67,67,155,1
,,,,,,,,,,,,,,,,,5e7d031be805560ae6b93dba,32,2022-02-12_10h38.08.457,lexical_decision_task_DD_L3,2021.2.3,MacIntel,60.0024001,,,,,,,,,,,,0.6014,1,,,,,,,,,,,,,,,,,,,,,,,,0.69375434,-0.018064236,0,0,0,,,,,,,SPORT,LB,m,m,./images/SPORTLB.png,,,,,,,,,,,,,,,,,,,,m,1,0.6014,,,,,,,,0,68,68,48,1
,,,,,,,,,,,,,,,,,5e7d031be805560ae6b93dba,32,2022-02-12_10h38.08.457,lexical_decision_task_DD_L3,2021.2.3,MacIntel,60.0024001,,,,,,,,,,,,0.5483,1,,,,,,,,,,,,,,,,,,,,,,,,0.69375434,-0.018064236,0,0,0,,,,,,,MUSCLE,C,m,m,./images/MUSCLE.png,,,,,,,,,,,,,,,,,,,,m,1,0.5483,,,,,,,,0,69,69,4,1
,,,,,,,,,,,,,,,,,5e7d031be805560ae6b93dba,32,2022-02-12_10h38.08.457,lexical_decision_task_DD_L3,2021.2.3,MacIntel,60.0024001,,,,,,,,,,,,0.5986,1,,,,,,,,,,,,,,,,,,,,,,,,0.69375434,-0.018064236,0,0,0,,,,,,,MIDGET,C,z,m,./images/MIDGET.png,,,,,,,,,,,,,,,,,,,,z,1,0.5986,,,,,,,,0,70,70,160,1
,,,,,,,,,,,,,,,,,5e7d031be805560ae6b93dba,32,2022-02-12_10h38.08.457,lexical_decision_task_DD_L3,2021.2.3,MacIntel,60.0024001,,,,,,,,,,,,0.646,0,,,,,,,,,,,,,,,,,,,,,,,,0.69375434,-0.018064236,0,0,0,,,,,,,INFANT,C,m,m,./images/INFANT.png,,,,,,,,,,,,,,,,,,,,z,0,0.646,,,,,,,,0,71,71,76,1
,,,,,,,,,,,,,,,,,5e7d031be805560ae6b93dba,32,2022-02-12_10h38.08.457,lexical_decision_task_DD_L3,2021.2.3,MacIntel,60.0024001,,,,,,,,,,,,0.6344,1,,,,,,,,,,,,,,,,,,,,,,,,0.69375434,-0.018064236,0,0,0,,,,,,,SLOPE,LB,z,m,./images/SLOPELB.png,,,,,,,,,,,,,,,,,,,,z,1,0.6344,,,,,,,,0,72,72,114,1
,,,,,,,,,,,,,,,,,5e7d031be805560ae6b93dba,32,2022-02-12_10h38.08.457,lexical_decision_task_DD_L3,2021.2.3,MacIntel,60.0024001,,,,,,,,,,,,0.6341,1,,,,,,,,,,,,,,,,,,,,,,,,0.69375434,-0.018064236,0,0,0,,,,,,,DONKEY,C,z,m,./images/DONKEY.png,,,,,,,,,,,,,,,,,,,,z,1,0.6341,,,,,,,,0,73,73,103,1
,,,,,,,,,,,,,,,,,5e7d031be805560ae6b93dba,32,2022-02-12_10h38.08.457,lexical_decision_task_DD_L3,2021.2.3,MacIntel,60.0024001,,,,,,,,,,,,0.8901,1,,,,,,,,,,,,,,,,,,,,,,,,0.69375434,-0.018064236,0,0,0,,,,,,,CANDY,LB,z,m,./images/CANDYLB.png,,,,,,,,,,,,,,,,,,,,z,1,0.8901,,,,,,,,0,74,74,123,1
,,,,,,,,,,,,,,,,,5e7d031be805560ae6b93dba,32,2022-02-12_10h38.08.457,lexical_decision_task_DD_L3,2021.2.3,MacIntel,60.0024001,,,,,,,,,,,,0.6823,0,,,,,,,,,,,,,,,,,,,,,,,,0.69375434,-0.018064236,0,0,0,,,,,,,ATTIC,LB,m,m,./images/ATTICLB.png,,,,,,,,,,,,,,,,,,,,z,0,0.6823,,,,,,,,0,75,75,27,1
,,,,,,,,,,,,,,,,,5e7d031be805560ae6b93dba,32,2022-02-12_10h38.08.457,lexical_decision_task_DD_L3,2021.2.3,MacIntel,60.0024001,,,,,,,,,,,,0.6871,1,,,,,,,,,,,,,,,,,,,,,,,,0.69375434,-0.018064236,0,0,0,,,,,,,DIVER,LB,z,m,./images/DIVERLB.png,,,,,,,,,,,,,,,,,,,,z,1,0.6871,,,,,,,,0,76,76,93,1
,,,,,,,,,,,,,,,,,5e7d031be805560ae6b93dba,32,2022-02-12_10h38.08.457,lexical_decision_task_DD_L3,2021.2.3,MacIntel,60.0024001,,,,,,,,,,,,0.5916,1,,,,,,,,,,,,,,,,,,,,,,,,0.69375434,-0.018064236,0,0,0,,,,,,,STORM,LB,m,m,./images/STORMLB.png,,,,,,,,,,,,,,,,,,,,m,1,0.5916,,,,,,,,0,77,77,30,1
,,,,,,,,,,,,,,,,,5e7d031be805560ae6b93dba,32,2022-02-12_10h38.08.457,lexical_decision_task_DD_L3,2021.2.3,MacIntel,60.0024001,,,,,,,,,,,,0.5489,1,,,,,,,,,,,,,,,,,,,,,,,,0.69375434,-0.018064236,0,0,0,,,,,,,WALRUS,HB,m,m,./images/WALRUSHB.png,,,,,,,,,,,,,,,,,,,,m,1,0.5489,,,,,,,,0,78,78,23,1
,,,,,,,,,,,,,,,,,5e7d031be805560ae6b93dba,32,2022-02-12_10h38.08.457,lexical_decision_task_DD_L3,2021.2.3,MacIntel,60.0024001,,,,,,,,,,,,0.5487,1,,,,,,,,,,,,,,,,,,,,,,,,0.69375434,-0.018064236,0,0,0,,,,,,,BISHOP,C,z,m,./images/BISHOP.png,,,,,,,,,,,,,,,,,,,,z,1,0.5487,,,,,,,,0,79,79,133,1
,,,,,,,,,,,,,,,,,5e7d031be805560ae6b93dba,32,2022-02-12_10h38.08.457,lexical_decision_task_DD_L3,2021.2.3,MacIntel,60.0024001,,,,,,,,,,,,0.54,1,,,,,,,,,,,,,,,,,,,,,,,,0.69375434,-0.018064236,0,0,0,,,,,,,WAGON,C,z,m,./images/WAGON.png,,,,,,,,,,,,,,,,,,,,z,1,0.54,,,,,,,,0,80,80,91,1
,,,,,,,,,,,,,,,,,5e7d031be805560ae6b93dba,32,2022-02-12_10h38.08.457,lexical_decision_task_DD_L3,2021.2.3,MacIntel,60.0024001,,,,,,,,,,,,0.4917,1,,,,,,,,,,,,,,,,,,,,,,,,0.69375434,-0.018064236,0,0,0,,,,,,,SMOKER,HB,m,m,./images/SMOKERHB.png,,,,,,,,,,,,,,,,,,,,m,1,0.4917,,,,,,,,0,81,81,26,1
,,,,,,,,,,,,,,,,,5e7d031be805560ae6b93dba,32,2022-02-12_10h38.08.457,lexical_decision_task_DD_L3,2021.2.3,MacIntel,60.0024001,,,,,,,,,,,,0.7259,1,,,,,,,,,,,,,,,,,,,,,,,,0.69375434,-0.018064236,0,0,0,,,,,,,CRUST,C,m,m,./images/CRUST.png,,,,,,,,,,,,,,,,,,,,m,1,0.7259,,,,,,,,0,82,82,79,1
,,,,,,,,,,,,,,,,,5e7d031be805560ae6b93dba,32,2022-02-12_10h38.08.457,lexical_decision_task_DD_L3,2021.2.3,MacIntel,60.0024001,,,,,,,,,,,,0.5444,1,,,,,,,,,,,,,,,,,,,,,,,,0.69375434,-0.018064236,0,0,0,space,,,,,,SCREW,LB,m,m,./images/SCREWLB.png,6.6886,,,,,,,,,,,,,,,,,,,m,1,0.5444,,,,,,,,0,83,83,24,1
,,,,,,,,,,,,,,,,,5e7d031be805560ae6b93dba,32,2022-02-12_10h38.08.457,lexical_decision_task_DD_L3,2021.2.3,MacIntel,60.0024001,,,,,,,,,,,,0.7052,1,,,,,,,,,,,,,,,,,,,,,,,,0.69375434,-0.018064236,0,0,0,,,,,,,MUMMY,C,z,m,./images/MUMMY.png,,,,,,,,,,,,,,,,,,,,z,1,0.7052,,,,,,,,0,84,84,130,1
,,,,,,,,,,,,,,,,,5e7d031be805560ae6b93dba,32,2022-02-12_10h38.08.457,lexical_decision_task_DD_L3,2021.2.3,MacIntel,60.0024001,,,,,,,,,,,,0.4666,1,,,,,,,,,,,,,,,,,,,,,,,,0.69375434,-0.018064236,0,0,0,,,,,,,SQUARE,LB,m,m,./images/SQUARELB.png,,,,,,,,,,,,,,,,,,,,m,1,0.4666,,,,,,,,0,85,85,6,1
,,,,,,,,,,,,,,,,,5e7d031be805560ae6b93dba,32,2022-02-12_10h38.08.457,lexical_decision_task_DD_L3,2021.2.3,MacIntel,60.0024001,,,,,,,,,,,,0.4487,1,,,,,,,,,,,,,,,,,,,,,,,,0.69375434,-0.018064236,0,0,0,,,,,,,PICKLE,HB,m,m,./images/PICKLEHB.png,,,,,,,,,,,,,,,,,,,,m,1,0.4487,,,,,,,,0,86,86,14,1
,,,,,,,,,,,,,,,,,5e7d031be805560ae6b93dba,32,2022-02-12_10h38.08.457,lexical_decision_task_DD_L3,2021.2.3,MacIntel,60.0024001,,,,,,,,,,,,0.5652,1,,,,,,,,,,,,,,,,,,,,,,,,0.69375434,-0.018064236,0,0,0,,,,,,,PAINT,C,m,m,./images/PAINT.png,,,,,,,,,,,,,,,,,,,,m,1,0.5652,,,,,,,,0,87,87,7,1
,,,,,,,,,,,,,,,,,5e7d031be805560ae6b93dba,32,2022-02-12_10h38.08.457,lexical_decision_task_DD_L3,2021.2.3,MacIntel,60.0024001,,,,,,,,,,,,0.5172,1,,,,,,,,,,,,,,,,,,,,,,,,0.69375434,-0.018064236,0,0,0,,,,,,,VALLEY,HB,z,m,./images/VALLEYHB.png,,,,,,,,,,,,,,,,,,,,z,1,0.5172,,,,,,,,0,88,88,152,1
,,,,,,,,,,,,,,,,,5e7d031be805560ae6b93dba,32,2022-02-12_10h38.08.457,lexical_decision_task_DD_L3,2021.2.3,MacIntel,60.0024001,,,,,,,,,,,,0.6083,1,,,,,,,,,,,,,,,,,,,,,,,,0.69375434,-0.018064236,0,0,0,,,,,,,QUILL,C,m,m,./images/QUILL.png,,,,,,,,,,,,,,,,,,,,m,1,0.6083,,,,,,,,0,89,89,31,1
,,,,,,,,,,,,,,,,,5e7d031be805560ae6b93dba,32,2022-02-12_10h38.08.457,lexical_decision_task_DD_L3,2021.2.3,MacIntel,60.0024001,,,,,,,,,,,,0.872,1,,,,,,,,,,,,,,,,,,,,,,,,0.69375434,-0.018064236,0,0,0,,,,,,,HAMMER,LB,z,m,./images/HAMMERLB.png,,,,,,,,,,,,,,,,,,,,z,1,0.872,,,,,,,,0,90,90,159,1
,,,,,,,,,,,,,,,,,5e7d031be805560ae6b93dba,32,2022-02-12_10h38.08.457,lexical_decision_task_DD_L3,2021.2.3,MacIntel,60.0024001,,,,,,,,,,,,0.5327,1,,,,,,,,,,,,,,,,,,,,,,,,0.69375434,-0.018064236,0,0,0,,,,,,,FERRY,LB,z,m,./images/FERRYLB.png,,,,,,,,,,,,,,,,,,,,z,1,0.5327,,,,,,,,0,91,91,141,1
,,,,,,,,,,,,,,,,,5e7d031be805560ae6b93dba,32,2022-02-12_10h38.08.457,lexical_decision_task_DD_L3,2021.2.3,MacIntel,60.0024001,,,,,,,,,,,,0.6729,1,,,,,,,,,,,,,,,,,,,,,,,,0.69375434,-0.018064236,0,0,0,,,,,,,JUMPER,HB,z,m,./images/JUMPERHB.png,,,,,,,,,,,,,,,,,,,,z,1,0.6729,,,,,,,,0,92,92,158,1
,,,,,,,,,,,,,,,,,5e7d031be805560ae6b93dba,32,2022-02-12_10h38.08.457,lexical_decision_task_DD_L3,2021.2.3,MacIntel,60.0024001,,,,,,,,,,,,0.5656,1,,,,,,,,,,,,,,,,,,,,,,,,0.69375434,-0.018064236,0,0,0,,,,,,,PEBBLE,C,z,m,./images/PEBBLE.png,,,,,,,,,,,,,,,,,,,,z,1,0.5656,,,,,,,,0,93,93,166,1
,,,,,,,,,,,,,,,,,5e7d031be805560ae6b93dba,32,2022-02-12_10h38.08.457,lexical_decision_task_DD_L3,2021.2.3,MacIntel,60.0024001,,,,,,,,,,,,0.6023,0,,,,,,,,,,,,,,,,,,,,,,,,0.69375434,-0.018064236,0,0,0,,,,,,,WALNUT,LB,z,m,./images/WALNUTLB.png,,,,,,,,,,,,,,,,,,,,m,0,0.6023,,,,,,,,0,94,94,84,1
,,,,,,,,,,,,,,,,,5e7d031be805560ae6b93dba,32,2022-02-12_10h38.08.457,lexical_decision_task_DD_L3,2021.2.3,MacIntel,60.0024001,,,,,,,,,,,,0.6348,1,,,,,,,,,,,,,,,,,,,,,,,,0.69375434,-0.018064236,0,0,0,,,,,,,MOSQUE,C,m,m,./images/MOSQUE.png,,,,,,,,,,,,,,,,,,,,m,1,0.6348,,,,,,,,0,95,95,43,1
,,,,,,,,,,,,,,,,,5e7d031be805560ae6b93dba,32,2022-02-12_10h38.08.457,lexical_decision_task_DD_L3,2021.2.3,MacIntel,60.0024001,,,,,,,,,,,,0.6493,1,,,,,,,,,,,,,,,,,,,,,,,,0.69375434,-0.018064236,0,0,0,,,,,,,GRANNY,HB,z,m,./images/GRANNYHB.png,,,,,,,,,,,,,,,,,,,,z,1,0.6493,,,,,,,,0,96,96,104,1
,,,,,,,,,,,,,,,,,5e7d031be805560ae6b93dba,32,2022-02-12_10h38.08.457,lexical_decision_task_DD_L3,2021.2.3,MacIntel,60.0024001,,,,,,,,,,,,0.5817,0,,,,,,,,,,,,,,,,,,,,,,,,0.69375434,-0.018064236,0,0,0,,,,,,,NOOSE,LB,m,m,./images/NOOSELB.png,,,,,,,,,,,,,,,,,,,,z,0,0.5817,,,,,,,,0,97,97,72,1
,,,,,,,,,,,,,,,,,5e7d031be805560ae6b93dba,32,2022-02-12_10h38.08.457,lexical_decision_task_DD_L3,2021.2.3,MacIntel,60.0024001,,,,,,,,,,,,0.788,1,,,,,,,,,,,,,,,,,,,,,,,,0.69375434,-0.018064236,0,0,0,,,,,,,WRIST,C,m,m,./images/WRIST.png,,,,,,,,,,,,,,,,,,,,m,1,0.788,,,,,,,,0,98,98,25,1
,,,,,,,,,,,,,,,,,5e7d031be805560ae6b93dba,32,2022-02-12_10h38.08.457,lexical_decision_task_DD_L3,2021.2.3,MacIntel,60.0024001,,,,,,,,,,,,1.1828,1,,,,,,,,,,,,,,,,,,,,,,,,0.69375434,-0.018064236,0,0,0,,,,,,,FENCE,HB,z,m,./images/FENCEHB.png,,,,,,,,,,,,,,,,,,,,z,1,1.1828,,,,,,,,0,99,99,98,1
,,,,,,,,,,,,,,,,,5e7d031be805560ae6b93dba,32,2022-02-12_10h38.08.457,lexical_decision_task_DD_L3,2021.2.3,MacIntel,60.0024001,,,,,,,,,,,,0.5162,1,,,,,,,,,,,,,,,,,,,,,,,,0.69375434,-0.018064236,0,0,0,,,,,,,PLANET,HB,z,m,./images/PLANETHB.png,,,,,,,,,,,,,,,,,,,,z,1,0.5162,,,,,,,,0,100,100,164,1
,,,,,,,,,,,,,,,,,5e7d031be805560ae6b93dba,32,2022-02-12_10h38.08.457,lexical_decision_task_DD_L3,2021.2.3,MacIntel,60.0024001,,,,,,,,,,,,0.9651,1,,,,,,,,,,,,,,,,,,,,,,,,0.69375434,-0.018064236,0,0,0,,,,,,,COUCH,HB,m,m,./images/COUCHHB.png,,,,,,,,,,,,,,,,,,,,m,1,0.9651,,,,,,,,0,101,101,77,1
,,,,,,,,,,,,,,,,,5e7d031be805560ae6b93dba,32,2022-02-12_10h38.08.457,lexical_decision_task_DD_L3,2021.2.3,MacIntel,60.0024001,,,,,,,,,,,,0.8251,1,,,,,,,,,,,,,,,,,,,,,,,,0.69375434,-0.018064236,0,0,0,,,,,,,PACKET,HB,m,m,./images/PACKETHB.png,,,,,,,,,,,,,,,,,,,,m,1,0.8251,,,,,,,,0,102,102,56,1
,,,,,,,,,,,,,,,,,5e7d031be805560ae6b93dba,32,2022-02-12_10h38.08.457,lexical_decision_task_DD_L3,2021.2.3,MacIntel,60.0024001,,,,,,,,,,,,0.5033,1,,,,,,,,,,,,,,,,,,,,,,,,0.69375434,-0.018064236,0,0,0,,,,,,,MUFFIN,C,m,m,./images/MUFFIN.png,,,,,,,,,,,,,,,,,,,,m,1,0.5033,,,,,,,,0,103,103,55,1
,,,,,,,,,,,,,,,,,5e7d031be805560ae6b93dba,32,2022-02-12_10h38.08.457,lexical_decision_task_DD_L3,2021.2.3,MacIntel,60.0024001,,,,,,,,,,,,0.7558,1,,,,,,,,,,,,,,,,,,,,,,,,0.69375434,-0.018064236,0,0,0,,,,,,,GLOVE,C,z,m,./images/GLOVE.png,,,,,,,,,,,,,,,,,,,,z,1,0.7558,,,,,,,,0,104,104,157,1
,,,,,,,,,,,,,,,,,5e7d031be805560ae6b93dba,32,2022-02-12_10h38.08.457,lexical_decision_task_DD_L3,2021.2.3,MacIntel,60.0024001,,,,,,,,,,,,0.5722,1,,,,,,,,,,,,,,,,,,,,,,,,0.69375434,-0.018064236,0,0,0,,,,,,,THROAT,LB,m,m,./images/THROATLB.png,,,,,,,,,,,,,,,,,,,,m,1,0.5722,,,,,,,,0,105,105,36,1
,,,,,,,,,,,,,,,,,5e7d031be805560ae6b93dba,32,2022-02-12_10h38.08.457,lexical_decision_task_DD_L3,2021.2.3,MacIntel,60.0024001,,,,,,,,,,,,0.666,1,,,,,,,,,,,,,,,,,,,,,,,,0.69375434,-0.018064236,0,0,0,,,,,,,ENGINE,HB,z,m,./images/ENGINEHB.png,,,,,,,,,,,,,,,,,,,,z,1,0.666,,,,,,,,0,106,106,122,1
,,,,,,,,,,,,,,,,,5e7d031be805560ae6b93dba,32,2022-02-12_10h38.08.457,lexical_decision_task_DD_L3,2021.2.3,MacIntel,60.0024001,,,,,,,,,,,,0.667,1,,,,,,,,,,,,,,,,,,,,,,,,0.69375434,-0.018064236,0,0,0,,,,,,,CARPET,HB,m,m,./images/CARPETHB.png,,,,,,,,,,,,,,,,,,,,m,1,0.667,,,,,,,,0,107,107,53,1
,,,,,,,,,,,,,,,,,5e7d031be805560ae6b93dba,32,2022-02-12_10h38.08.457,lexical_decision_task_DD_L3,2021.2.3,MacIntel,60.0024001,,,,,,,,,,,,0.6519,1,,,,,,,,,,,,,,,,,,,,,,,,0.69375434,-0.018064236,0,0,0,,,,,,,CANDLE,C,m,m,./images/CANDLE.png,,,,,,,,,,,,,,,,,,,,m,1,0.6519,,,,,,,,0,108,108,61,1
,,,,,,,,,,,,,,,,,5e7d031be805560ae6b93dba,32,2022-02-12_10h38.08.457,lexical_decision_task_DD_L3,2021.2.3,MacIntel,60.0024001,,,,,,,,,,,,0.7222,0,,,,,,,,,,,,,,,,,,,,,,,,0.69375434,-0.018064236,0,0,0,,,,,,,PARADE,HB,z,m,./images/PARADEHB.png,,,,,,,,,,,,,,,,,,,,m,0,0.7222,,,,,,,,0,109,109,101,1
,,,,,,,,,,,,,,,,,5e7d031be805560ae6b93dba,32,2022-02-12_10h38.08.457,lexical_decision_task_DD_L3,2021.2.3,MacIntel,60.0024001,,,,,,,,,,,,0.7665,0,,,,,,,,,,,,,,,,,,,,,,,,0.69375434,-0.018064236,0,0,0,,,,,,,DESERT,C,z,m,./images/DESERT.png,,,,,,,,,,,,,,,,,,,,m,0,0.7665,,,,,,,,0,110,110,136,1
,,,,,,,,,,,,,,,,,5e7d031be805560ae6b93dba,32,2022-02-12_10h38.08.457,lexical_decision_task_DD_L3,2021.2.3,MacIntel,60.0024001,,,,,,,,,,,,0.566,1,,,,,,,,,,,,,,,,,,,,,,,,0.69375434,-0.018064236,0,0,0,,,,,,,SAILOR,C,m,m,./images/SAILOR.png,,,,,,,,,,,,,,,,,,,,m,1,0.566,,,,,,,,0,111,111,67,1
,,,,,,,,,,,,,,,,,5e7d031be805560ae6b93dba,32,2022-02-12_10h38.08.457,lexical_decision_task_DD_L3,2021.2.3,MacIntel,60.0024001,,,,,,,,,,,,0.8822,0,,,,,,,,,,,,,,,,,,,,,,,,0.69375434,-0.018064236,0,0,0,,,,,,,RHINO,LB,m,m,./images/RHINOLB.png,,,,,,,,,,,,,,,,,,,,z,0,0.8822,,,,,,,,0,112,112,9,1
,,,,,,,,,,,,,,,,,5e7d031be805560ae6b93dba,32,2022-02-12_10h38.08.457,lexical_decision_task_DD_L3,2021.2.3,MacIntel,60.0024001,,,,,,,,,,,,0.5646,1,,,,,,,,,,,,,,,,,,,,,,,,0.69375434,-0.018064236,0,0,0,,,,,,,BARREL,HB,m,m,./images/BARRELHB.png,,,,,,,,,,,,,,,,,,,,m,1,0.5646,,,,,,,,0,113,113,32,1
,,,,,,,,,,,,,,,,,5e7d031be805560ae6b93dba,32,2022-02-12_10h38.08.457,lexical_decision_task_DD_L3,2021.2.3,MacIntel,60.0024001,,,,,,,,,,,,0.5488,1,,,,,,,,,,,,,,,,,,,,,,,,0.69375434,-0.018064236,0,0,0,,,,,,,LITTER,LB,m,m,./images/LITTERLB.png,,,,,,,,,,,,,,,,,,,,m,1,0.5488,,,,,,,,0,114,114,78,1
,,,,,,,,,,,,,,,,,5e7d031be805560ae6b93dba,32,2022-02-12_10h38.08.457,lexical_decision_task_DD_L3,2021.2.3,MacIntel,60.0024001,,,,,,,,,,,,0.6744,1,,,,,,,,,,,,,,,,,,,,,,,,0.69375434,-0.018064236,0,0,0,,,,,,,CANYON,C,m,m,./images/CANYON.png,,,,,,,,,,,,,,,,,,,,m,1,0.6744,,,,,,,,0,115,115,34,1
,,,,,,,,,,,,,,,,,5e7d031be805560ae6b93dba,32,2022-02-12_10h38.08.457,lexical_decision_task_DD_L3,2021.2.3,MacIntel,60.0024001,,,,,,,,,,,,0.615,0,,,,,,,,,,,,,,,,,,,,,,,,0.69375434,-0.018064236,0,0,0,,,,,,,MONKEY,LB,z,m,./images/MONKEYLB.png,,,,,,,,,,,,,,,,,,,,m,0,0.615,,,,,,,,0,116,116,129,1
,,,,,,,,,,,,,,,,,5e7d031be805560ae6b93dba,32,2022-02-12_10h38.08.457,lexical_decision_task_DD_L3,2021.2.3,MacIntel,60.0024001,,,,,,,,,,,,0.5257,1,,,,,,,,,,,,,,,,,,,,,,,,0.69375434,-0.018064236,0,0,0,,,,,,,BERRY,HB,m,m,./images/BERRYHB.png,,,,,,,,,,,,,,,,,,,,m,1,0.5257,,,,,,,,0,117,117,47,1
,,,,,,,,,,,,,,,,,5e7d031be805560ae6b93dba,32,2022-02-12_10h38.08.457,lexical_decision_task_DD_L3,2021.2.3,MacIntel,60.0024001,,,,,,,,,,,,0.5626,0,,,,,,,,,,,,,,,,,,,,,,,,0.69375434,-0.018064236,0,0,0,,,,,,,BAMBOO,HB,z,m,./images/BAMBOOHB.png,,,,,,,,,,,,,,,,,,,,m,0,0.5626,,,,,,,,0,118,118,89,1
,,,,,,,,,,,,,,,,,5e7d031be805560ae6b93dba,32,2022-02-12_10h38.08.457,lexical_decision_task_DD_L3,2021.2.3,MacIntel,60.0024001,,,,,,,,,,,,0.6385,0,,,,,,,,,,,,,,,,,,,,,,,,0.69375434,-0.018064236,0,0,0,,,,,,,FLESH,LB,z,m,./images/FLESHLB.png,,,,,,,,,,,,,,,,,,,,m,0,0.6385,,,,,,,,0,119,119,108,1
,,,,,,,,,,,,,,,,,5e7d031be805560ae6b93dba,32,2022-02-12_10h38.08.457,lexical_decision_task_DD_L3,2021.2.3,MacIntel,60.0024001,,,,,,,,,,,,0.5655,1,,,,,,,,,,,,,,,,,,,,,,,,0.69375434,-0.018064236,0,0,0,,,,,,,ONION,LB,m,m,./images/ONIONLB.png,,,,,,,,,,,,,,,,,,,,m,1,0.5655,,,,,,,,0,120,120,51,1
,,,,,,,,,,,,,,,,,5e7d031be805560ae6b93dba,32,2022-02-12_10h38.08.457,lexical_decision_task_DD_L3,2021.2.3,MacIntel,60.0024001,,,,,,,,,,,,0.6225,0,,,,,,,,,,,,,,,,,,,,,,,,0.69375434,-0.018064236,0,0,0,,,,,,,ARTIST,C,z,m,./images/ARTIST.png,,,,,,,,,,,,,,,,,,,,m,0,0.6225,,,,,,,,0,121,121,145,1
,,,,,,,,,,,,,,,,,5e7d031be805560ae6b93dba,32,2022-02-12_10h38.08.457,lexical_decision_task_DD_L3,2021.2.3,MacIntel,60.0024001,,,,,,,,,,,,0.553,1,,,,,,,,,,,,,,,,,,,,,,,,0.69375434,-0.018064236,0,0,0,,,,,,,POODLE,LB,m,m,./images/POODLELB.png,,,,,,,,,,,,,,,,,,,,m,1,0.553,,,,,,,,0,122,122,81,1
,,,,,,,,,,,,,,,,,5e7d031be805560ae6b93dba,32,2022-02-12_10h38.08.457,lexical_decision_task_DD_L3,2021.2.3,MacIntel,60.0024001,,,,,,,,,,,,0.7165,1,,,,,,,,,,,,,,,,,,,,,,,,0.69375434,-0.018064236,0,0,0,,,,,,,MALLET,HB,m,m,./images/MALLETHB.png,,,,,,,,,,,,,,,,,,,,m,1,0.7165,,,,,,,,0,123,123,50,1
,,,,,,,,,,,,,,,,,5e7d031be805560ae6b93dba,32,2022-02-12_10h38.08.457,lexical_decision_task_DD_L3,2021.2.3,MacIntel,60.0024001,,,,,,,,,,,,0.4582,0,,,,,,,,,,,,,,,,,,,,,,,,0.69375434,-0.018064236,0,0,0,,,,,,,SNAKE,C,z,m,./images/SNAKE.png,,,,,,,,,,,,,,,,,,,,m,0,0.4582,,,,,,,,0,124,124,124,1
,,,,,,,,,,,,,,,,,5e7d031be805560ae6b93dba,32,2022-02-12_10h38.08.457,lexical_decision_task_DD_L3,2021.2.3,MacIntel,60.0024001,,,,,,,,,,,,0.5839,0,,,,,,,,,,,,,,,,,,,,,,,,0.69375434,-0.018064236,0,0,0,space,,,,,,STREAM,HB,z,m,./images/STREAMHB.png,11.9178,,,,,,,,,,,,,,,,,,,m,0,0.5839,,,,,,,,0,125,125,125,1
,,,,,,,,,,,,,,,,,5e7d031be805560ae6b93dba,32,2022-02-12_10h38.08.457,lexical_decision_task_DD_L3,2021.2.3,MacIntel,60.0024001,,,,,,,,,,,,0.5834,1,,,,,,,,,,,,,,,,,,,,,,,,0.69375434,-0.018064236,0,0,0,,,,,,,PURSE,HB,m,m,./images/PURSEHB.png,,,,,,,,,,,,,,,,,,,,m,1,0.5834,,,,,,,,0,126,126,62,1
,,,,,,,,,,,,,,,,,5e7d031be805560ae6b93dba,32,2022-02-12_10h38.08.457,lexical_decision_task_DD_L3,2021.2.3,MacIntel,60.0024001,,,,,,,,,,,,0.7049,1,,,,,,,,,,,,,,,,,,,,,,,,0.69375434,-0.018064236,0,0,0,,,,,,,POSTER,HB,z,m,./images/POSTERHB.png,,,,,,,,,,,,,,,,,,,,z,1,0.7049,,,,,,,,0,127,127,137,1
,,,,,,,,,,,,,,,,,5e7d031be805560ae6b93dba,32,2022-02-12_10h38.08.457,lexical_decision_task_DD_L3,2021.2.3,MacIntel,60.0024001,,,,,,,,,,,,0.6519,1,,,,,,,,,,,,,,,,,,,,,,,,0.69375434,-0.018064236,0,0,0,,,,,,,MOOSE,LB,m,m,./images/MOOSELB.png,,,,,,,,,,,,,,,,,,,,m,1,0.6519,,,,,,,,0,128,128,57,1
,,,,,,,,,,,,,,,,,5e7d031be805560ae6b93dba,32,2022-02-12_10h38.08.457,lexical_decision_task_DD_L3,2021.2.3,MacIntel,60.0024001,,,,,,,,,,,,0.709,0,,,,,,,,,,,,,,,,,,,,,,,,0.69375434,-0.018064236,0,0,0,,,,,,,BRIDE,C,z,m,./images/BRIDE.png,,,,,,,,,,,,,,,,,,,,m,0,0.709,,,,,,,,0,129,129,148,1
