key_resp.keys,instr_done_touch.x,instr_done_touch.y,instr_done_touch.leftButton,instr_done_touch.midButton,instr_done_touch.rightButton,instr_done_touch.clicked_name,instruction_pages.thisRepN,instruction_pages.thisTrialN,instruction_pages.thisN,instruction_pages.thisIndex,instruction_pages.ran,pageN,phase,instruct_text,has_image,instruct_image,participant,age,date,expName,psychopyVersion,OS,frameRate,response.keys,response.corr,touch_resp.x,touch_resp.y,touch_resp.leftButton,touch_resp.midButton,touch_resp.rightButton,touch_resp.time,touch_resp.clicked_name,rt,corr,practrials.thisRepN,practrials.thisTrialN,practrials.thisN,practrials.thisIndex,practrials.ran,TrialID,Target,corrAns,end_of_practice_trials_pages.thisRepN,end_of_practice_trials_pages.thisTrialN,end_of_practice_trials_pages.thisN,end_of_practice_trials_pages.thisIndex,end_of_practice_trials_pages.ran,key_resp_2.keys,key_resp_2.corr,targ_click.x,targ_click.y,targ_click.leftButton,targ_click.midButton,targ_click.rightButton,targ_click.time,targ_click.clicked_name,break_done_touch.x,break_done_touch.y,break_done_touch.leftButton,break_done_touch.midButton,break_done_touch.rightButton,break_done_keyboard.keys,maintrials.thisRepN,maintrials.thisTrialN,maintrials.thisN,maintrials.thisIndex,maintrials.ran,string,blur,study,lex,stim_path,break_done_touch.clicked_name,mouse_2.x,mouse_2.y,mouse_2.leftButton,mouse_2.midButton,mouse_2.rightButton,mouse_2.clicked_name,slider.response,slider.rt,trials.thisRepN,trials.thisTrialN,trials.thisN,trials.thisIndex,trials.ran,test_instructions.thisRepN,test_instructions.thisTrialN,test_instructions.thisN,test_instructions.thisIndex,test_instructions.ran,key_resp_3.keys,key_resp_3.corr,test_click.x,test_click.y,test_click.leftButton,test_click.midButton,test_click.rightButton,test_click.time,test_click.clicked_name,test_phase.thisRepN,test_phase.thisTrialN,test_phase.thisN,test_phase.thisIndex,test_phase.ran
,-0.07615894,-0.395143488,1,0,0,instr_done_button,0,0,0,0,1,1,instructions,"INSTRUCTIONS
At the start of each trial, look at the plus sign  (+) in the center of the screen.  This tells you that a trial is about to begin and where to look. Second, the plus sign will disappear and a string of letters will appear. Your task is to determine if the string of letters is a word or not. If the item is a word press the M key (on keyboard)  or touch the word button (phone/tablet).  If the item is not a word,  press the  Z key (on keyboard)  or touch the nonword button (on phone/tablet). 
Press the space bar or touch  continue.",0,,5e9af4184c5f7818ccf9a43e,46,2022-02-12_16h29.22.412,lexical_decision_task_DD_L3,2021.2.3,iPhone,58.82352941,,,,,,,,,,,,,,,,,,,,,,,,,,,,,,,,,,,,,,,,,,,,,,,,,,,,,,,,,,,,,,,,,,,,,,,,,,,,,,,,,,
,0.050925926,-0.37962963,1,0,0,instr_done_button,0,1,1,1,1,2,instructions,"If your device has a keyboard, press the 'Z' key for nonwords and the 'M' key for words.





Press the space bar or touch the button below to continue.",0,keyboard-example.gif,5e9af4184c5f7818ccf9a43e,46,2022-02-12_16h29.22.412,lexical_decision_task_DD_L3,2021.2.3,iPhone,58.82352941,,,,,,,,,,,,,,,,,,,,,,,,,,,,,,,,,,,,,,,,,,,,,,,,,,,,,,,,,,,,,,,,,,,,,,,,,,,,,,,,,,
,0.055555556,-0.365740741,1,0,0,instr_done_button,0,2,2,2,1,3,instructions,"If you are using a touchscreen only device, use the buttons on the screen. Do not use the mouse.





Press the space bar or touch the button below to continue.",0,touchscreen-example.gif,5e9af4184c5f7818ccf9a43e,46,2022-02-12_16h29.22.412,lexical_decision_task_DD_L3,2021.2.3,iPhone,58.82352941,,,,,,,,,,,,,,,,,,,,,,,,,,,,,,,,,,,,,,,,,,,,,,,,,,,,,,,,,,,,,,,,,,,,,,,,,,,,,,,,,,
,0.013888889,-0.393518519,1,0,0,instr_done_button,0,3,3,3,1,4,instructions,"It is very important that you respond as quickly and accurately as possible, as each letter string will only be on the screen for two seconds. If you do not respond within this time, the message 'Too slow!' will be displayed and the experiment will progress to the next letter string. The first 20 trials will be practice trials and you will receive feedback on your answers. 

Press the space bar or touch the button below to start the practice trials.",0,,5e9af4184c5f7818ccf9a43e,46,2022-02-12_16h29.22.412,lexical_decision_task_DD_L3,2021.2.3,iPhone,58.82352941,,,,,,,,,,,,,,,,,,,,,,,,,,,,,,,,,,,,,,,,,,,,,,,,,,,,,,,,,,,,,,,,,,,,,,,,,,,,,,,,,,
,,,,,,,,,,,,,,,,,5e9af4184c5f7818ccf9a43e,46,2022-02-12_16h29.22.412,lexical_decision_task_DD_L3,2021.2.3,iPhone,58.82352941,,0,-0.375,-0.300925926,1,0,0,1.85,button_left,1.85,1,0,0,0,11,1,1001,RASHET,z,,,,,,,,,,,,,,,,,,,,,,,,,,,,,,,,,,,,,,,,,,,,,,,,,,,,,,,,,,,,,,,
,,,,,,,,,,,,,,,,,5e9af4184c5f7818ccf9a43e,46,2022-02-12_16h29.22.412,lexical_decision_task_DD_L3,2021.2.3,iPhone,58.82352941,,0,-0.337962963,-0.300925926,1,0,0,1.253,button_left,1.253,1,0,1,1,9,1,1001,FARINY,z,,,,,,,,,,,,,,,,,,,,,,,,,,,,,,,,,,,,,,,,,,,,,,,,,,,,,,,,,,,,,,,
,,,,,,,,,,,,,,,,,5e9af4184c5f7818ccf9a43e,46,2022-02-12_16h29.22.412,lexical_decision_task_DD_L3,2021.2.3,iPhone,58.82352941,,0,0.472222222,-0.310185185,1,0,0,1.005,button_right,1.005,1,0,2,2,3,1,1001,MATRIX,m,,,,,,,,,,,,,,,,,,,,,,,,,,,,,,,,,,,,,,,,,,,,,,,,,,,,,,,,,,,,,,,
,,,,,,,,,,,,,,,,,5e9af4184c5f7818ccf9a43e,46,2022-02-12_16h29.22.412,lexical_decision_task_DD_L3,2021.2.3,iPhone,58.82352941,,0,-0.37037037,-0.305555556,1,0,0,0.987,button_left,0.987,1,0,3,3,14,1,1001,THRALE,z,,,,,,,,,,,,,,,,,,,,,,,,,,,,,,,,,,,,,,,,,,,,,,,,,,,,,,,,,,,,,,,
,,,,,,,,,,,,,,,,,5e9af4184c5f7818ccf9a43e,46,2022-02-12_16h29.22.412,lexical_decision_task_DD_L3,2021.2.3,iPhone,58.82352941,,0,0.398148148,-0.291666667,1,0,0,0.852,button_right,0.852,1,0,4,4,0,1,1001,UTOPIA,m,,,,,,,,,,,,,,,,,,,,,,,,,,,,,,,,,,,,,,,,,,,,,,,,,,,,,,,,,,,,,,,
,,,,,,,,,,,,,,,,,5e9af4184c5f7818ccf9a43e,46,2022-02-12_16h29.22.412,lexical_decision_task_DD_L3,2021.2.3,iPhone,58.82352941,,0,0.37962963,-0.277777778,1,0,0,0.82,button_right,0.82,1,0,5,5,5,1,1001,OBTAIN,m,,,,,,,,,,,,,,,,,,,,,,,,,,,,,,,,,,,,,,,,,,,,,,,,,,,,,,,,,,,,,,,
,,,,,,,,,,,,,,,,,5e9af4184c5f7818ccf9a43e,46,2022-02-12_16h29.22.412,lexical_decision_task_DD_L3,2021.2.3,iPhone,58.82352941,,0,0.384259259,-0.287037037,1,0,0,0.801,button_right,0.801,1,0,6,6,7,1,1001,VOLUME,m,,,,,,,,,,,,,,,,,,,,,,,,,,,,,,,,,,,,,,,,,,,,,,,,,,,,,,,,,,,,,,,
,,,,,,,,,,,,,,,,,5e9af4184c5f7818ccf9a43e,46,2022-02-12_16h29.22.412,lexical_decision_task_DD_L3,2021.2.3,iPhone,58.82352941,,0,-0.407407407,-0.287037037,1,0,0,0.903,button_left,0.903,1,0,7,7,13,1,1001,ROUPET,z,,,,,,,,,,,,,,,,,,,,,,,,,,,,,,,,,,,,,,,,,,,,,,,,,,,,,,,,,,,,,,,
,,,,,,,,,,,,,,,,,5e9af4184c5f7818ccf9a43e,46,2022-02-12_16h29.22.412,lexical_decision_task_DD_L3,2021.2.3,iPhone,58.82352941,,0,0.37962963,-0.333333333,1,0,0,0.836,button_right,0.836,1,0,8,8,6,1,1001,ZOMBIE,m,,,,,,,,,,,,,,,,,,,,,,,,,,,,,,,,,,,,,,,,,,,,,,,,,,,,,,,,,,,,,,,
,,,,,,,,,,,,,,,,,5e9af4184c5f7818ccf9a43e,46,2022-02-12_16h29.22.412,lexical_decision_task_DD_L3,2021.2.3,iPhone,58.82352941,,0,0.37037037,-0.319444444,1,0,0,0.717,button_right,0.717,1,0,9,9,1,1,1001,ADJUST,m,,,,,,,,,,,,,,,,,,,,,,,,,,,,,,,,,,,,,,,,,,,,,,,,,,,,,,,,,,,,,,,
,,,,,,,,,,,,,,,,,5e9af4184c5f7818ccf9a43e,46,2022-02-12_16h29.22.412,lexical_decision_task_DD_L3,2021.2.3,iPhone,58.82352941,,0,-0.37037037,-0.342592593,1,0,0,0.953,button_left,0.953,1,0,10,10,8,1,1001,ASLERT,z,,,,,,,,,,,,,,,,,,,,,,,,,,,,,,,,,,,,,,,,,,,,,,,,,,,,,,,,,,,,,,,
,,,,,,,,,,,,,,,,,5e9af4184c5f7818ccf9a43e,46,2022-02-12_16h29.22.412,lexical_decision_task_DD_L3,2021.2.3,iPhone,58.82352941,,0,0.388888889,-0.314814815,1,0,0,0.851,button_right,0.851,1,0,11,11,2,1,1001,ALMOND,m,,,,,,,,,,,,,,,,,,,,,,,,,,,,,,,,,,,,,,,,,,,,,,,,,,,,,,,,,,,,,,,
,,,,,,,,,,,,,,,,,5e9af4184c5f7818ccf9a43e,46,2022-02-12_16h29.22.412,lexical_decision_task_DD_L3,2021.2.3,iPhone,58.82352941,,0,-0.328703704,-0.263888889,1,0,0,1.154,button_left,1.154,1,0,12,12,10,1,1001,INLADE,z,,,,,,,,,,,,,,,,,,,,,,,,,,,,,,,,,,,,,,,,,,,,,,,,,,,,,,,,,,,,,,,
,,,,,,,,,,,,,,,,,5e9af4184c5f7818ccf9a43e,46,2022-02-12_16h29.22.412,lexical_decision_task_DD_L3,2021.2.3,iPhone,58.82352941,,0,0.402777778,-0.300925926,1,0,0,0.77,button_right,0.77,1,0,13,13,4,1,1001,SQUEAK,m,,,,,,,,,,,,,,,,,,,,,,,,,,,,,,,,,,,,,,,,,,,,,,,,,,,,,,,,,,,,,,,
,,,,,,,,,,,,,,,,,5e9af4184c5f7818ccf9a43e,46,2022-02-12_16h29.22.412,lexical_decision_task_DD_L3,2021.2.3,iPhone,58.82352941,,0,-0.37962963,-0.333333333,1,0,0,0.97,button_left,0.97,1,0,14,14,12,1,1001,SPRINY,z,,,,,,,,,,,,,,,,,,,,,,,,,,,,,,,,,,,,,,,,,,,,,,,,,,,,,,,,,,,,,,,
,,,,,,,,,,,,,,,,,5e9af4184c5f7818ccf9a43e,46,2022-02-12_16h29.22.412,lexical_decision_task_DD_L3,2021.2.3,iPhone,58.82352941,,0,-0.384259259,-0.324074074,1,0,0,1.07,button_left,1.07,1,0,15,15,15,1,1001,WHAISE,z,,,,,,,,,,,,,,,,,,,,,,,,,,,,,,,,,,,,,,,,,,,,,,,,,,,,,,,,,,,,,,,
,0.046296296,-0.37962963,1,0,0,instr_done_button,,,,,,1,end_of_practice,"You have completed the practice trials. During the experimental trials, you will not receive feedback. 
Before you begin, please ensure that you are in a comfortable and quiet location and will not be disturbed for about 15 minutes, as we cannot use your data if you do not complete all the trials. 
 When you are ready to start the experimental trials, please press space or touch the button below.",,,5e9af4184c5f7818ccf9a43e,46,2022-02-12_16h29.22.412,lexical_decision_task_DD_L3,2021.2.3,iPhone,58.82352941,,,,,,,,,,,,,,,,,,,,0,0,0,0,1,,,,,,,,,,,,,,,,,,,,,,,,,,,,,,,,,,,,,,,,,,,,,,,,,,,,,,,,,,
,,,,,,,,,,,,,,,,,5e9af4184c5f7818ccf9a43e,46,2022-02-12_16h29.22.412,lexical_decision_task_DD_L3,2021.2.3,iPhone,58.82352941,,,,,,,,,,2.192,0,,,,,,,,,,,,,,,0,0.361111111,-0.300925926,1,0,0,2.192,button_right_main,0.361111111,-0.300925926,1,0,0,,0,0,0,128,1,GRIFT,LB,old,z,./images/GRIFTLB.png,,,,,,,,,,,,,,,,,,,,,,,,,,,,,,,,,
,,,,,,,,,,,,,,,,,5e9af4184c5f7818ccf9a43e,46,2022-02-12_16h29.22.412,lexical_decision_task_DD_L3,2021.2.3,iPhone,58.82352941,,,,,,,,,,0.718,1,,,,,,,,,,,,,,,0,0.356481481,-0.314814815,1,0,0,0.718,button_right_main,0.356481481,-0.314814815,1,0,0,,0,1,1,64,1,JELLY,C,old,m,./images/JELLY.png,,,,,,,,,,,,,,,,,,,,,,,,,,,,,,,,,
,,,,,,,,,,,,,,,,,5e9af4184c5f7818ccf9a43e,46,2022-02-12_16h29.22.412,lexical_decision_task_DD_L3,2021.2.3,iPhone,58.82352941,,,,,,,,,,0.634,1,,,,,,,,,,,,,,,0,0.347222222,-0.342592593,1,0,0,0.634,button_right_main,0.347222222,-0.342592593,1,0,0,,0,2,2,0,1,TOMATO,LB,old,m,./images/TOMATOLB.png,,,,,,,,,,,,,,,,,,,,,,,,,,,,,,,,,
,,,,,,,,,,,,,,,,,5e9af4184c5f7818ccf9a43e,46,2022-02-12_16h29.22.412,lexical_decision_task_DD_L3,2021.2.3,iPhone,58.82352941,,,,,,,,,,0.636,1,,,,,,,,,,,,,,,0,0.337962963,-0.361111111,1,0,0,0.636,button_right_main,0.337962963,-0.361111111,1,0,0,,0,3,3,63,1,MIRROR,LB,old,m,./images/MIRRORLB.png,,,,,,,,,,,,,,,,,,,,,,,,,,,,,,,,,
,,,,,,,,,,,,,,,,,5e9af4184c5f7818ccf9a43e,46,2022-02-12_16h29.22.412,lexical_decision_task_DD_L3,2021.2.3,iPhone,58.82352941,,,,,,,,,,1.318,0,,,,,,,,,,,,,,,0,0.356481481,-0.287037037,1,0,0,1.318,button_right_main,0.356481481,-0.287037037,1,0,0,,0,4,4,104,1,GITTY,LB,old,z,./images/GITTYLB.png,,,,,,,,,,,,,,,,,,,,,,,,,,,,,,,,,
,,,,,,,,,,,,,,,,,5e9af4184c5f7818ccf9a43e,46,2022-02-12_16h29.22.412,lexical_decision_task_DD_L3,2021.2.3,iPhone,58.82352941,,,,,,,,,,0.737,1,,,,,,,,,,,,,,,0,0.356481481,-0.314814815,1,0,0,0.737,button_right_main,0.356481481,-0.314814815,1,0,0,,0,5,5,41,1,STRING,HB,old,m,./images/STRINGHB.png,,,,,,,,,,,,,,,,,,,,,,,,,,,,,,,,,
,,,,,,,,,,,,,,,,,5e9af4184c5f7818ccf9a43e,46,2022-02-12_16h29.22.412,lexical_decision_task_DD_L3,2021.2.3,iPhone,58.82352941,,,,,,,,,,1.052,1,,,,,,,,,,,,,,,0,-0.37962963,-0.314814815,1,0,0,1.052,button_left_main,-0.37962963,-0.314814815,1,0,0,,0,6,6,165,1,TROWN,C,old,z,./images/TROWN.png,,,,,,,,,,,,,,,,,,,,,,,,,,,,,,,,,
,,,,,,,,,,,,,,,,,5e9af4184c5f7818ccf9a43e,46,2022-02-12_16h29.22.412,lexical_decision_task_DD_L3,2021.2.3,iPhone,58.82352941,,,,,,,,,,0.636,1,,,,,,,,,,,,,,,0,0.384259259,-0.296296296,1,0,0,0.636,button_right_main,0.384259259,-0.296296296,1,0,0,,0,7,7,51,1,ONION,LB,old,m,./images/ONIONLB.png,,,,,,,,,,,,,,,,,,,,,,,,,,,,,,,,,
,,,,,,,,,,,,,,,,,5e9af4184c5f7818ccf9a43e,46,2022-02-12_16h29.22.412,lexical_decision_task_DD_L3,2021.2.3,iPhone,58.82352941,,,,,,,,,,0.668,1,,,,,,,,,,,,,,,0,0.347222222,-0.356481481,1,0,0,0.668,button_right_main,0.347222222,-0.356481481,1,0,0,,0,8,8,28,1,FALCON,C,old,m,./images/FALCON.png,,,,,,,,,,,,,,,,,,,,,,,,,,,,,,,,,
,,,,,,,,,,,,,,,,,5e9af4184c5f7818ccf9a43e,46,2022-02-12_16h29.22.412,lexical_decision_task_DD_L3,2021.2.3,iPhone,58.82352941,,,,,,,,,,1.153,0,,,,,,,,,,,,,,,0,-0.375,-0.319444444,1,0,0,1.153,button_left_main,-0.375,-0.319444444,1,0,0,,0,9,9,20,1,CRADLE,HB,old,m,./images/CRADLEHB.png,,,,,,,,,,,,,,,,,,,,,,,,,,,,,,,,,
,,,,,,,,,,,,,,,,,5e9af4184c5f7818ccf9a43e,46,2022-02-12_16h29.22.412,lexical_decision_task_DD_L3,2021.2.3,iPhone,58.82352941,,,,,,,,,,0.686,1,,,,,,,,,,,,,,,0,0.398148148,-0.328703704,1,0,0,0.686,button_right_main,0.398148148,-0.328703704,1,0,0,,0,10,10,6,1,SQUARE,LB,old,m,./images/SQUARELB.png,,,,,,,,,,,,,,,,,,,,,,,,,,,,,,,,,
,,,,,,,,,,,,,,,,,5e9af4184c5f7818ccf9a43e,46,2022-02-12_16h29.22.412,lexical_decision_task_DD_L3,2021.2.3,iPhone,58.82352941,,,,,,,,,,0.805,1,,,,,,,,,,,,,,,0,-0.393518519,-0.319444444,1,0,0,0.805,button_left_main,-0.393518519,-0.319444444,1,0,0,,0,11,11,91,1,SHENS,HB,old,z,./images/SHENSHB.png,,,,,,,,,,,,,,,,,,,,,,,,,,,,,,,,,
,,,,,,,,,,,,,,,,,5e9af4184c5f7818ccf9a43e,46,2022-02-12_16h29.22.412,lexical_decision_task_DD_L3,2021.2.3,iPhone,58.82352941,,,,,,,,,,1.073,1,,,,,,,,,,,,,,,0,0.388888889,-0.305555556,1,0,0,1.073,button_right_main,0.388888889,-0.305555556,1,0,0,,0,12,12,75,1,GRAIN,LB,old,m,./images/GRAINLB.png,,,,,,,,,,,,,,,,,,,,,,,,,,,,,,,,,
,,,,,,,,,,,,,,,,,5e9af4184c5f7818ccf9a43e,46,2022-02-12_16h29.22.412,lexical_decision_task_DD_L3,2021.2.3,iPhone,58.82352941,,,,,,,,,,0.652,1,,,,,,,,,,,,,,,0,0.37962963,-0.328703704,1,0,0,0.652,button_right_main,0.37962963,-0.328703704,1,0,0,,0,13,13,36,1,THROAT,LB,old,m,./images/THROATLB.png,,,,,,,,,,,,,,,,,,,,,,,,,,,,,,,,,
,,,,,,,,,,,,,,,,,5e9af4184c5f7818ccf9a43e,46,2022-02-12_16h29.22.412,lexical_decision_task_DD_L3,2021.2.3,iPhone,58.82352941,,,,,,,,,,0.9,1,,,,,,,,,,,,,,,0,-0.398148148,-0.291666667,1,0,0,0.9,button_left_main,-0.398148148,-0.291666667,1,0,0,,0,14,14,116,1,BALGY,LB,old,z,./images/BALGYLB.png,,,,,,,,,,,,,,,,,,,,,,,,,,,,,,,,,
,,,,,,,,,,,,,,,,,5e9af4184c5f7818ccf9a43e,46,2022-02-12_16h29.22.412,lexical_decision_task_DD_L3,2021.2.3,iPhone,58.82352941,,,,,,,,,,1.187,1,,,,,,,,,,,,,,,0,-0.416666667,-0.282407407,1,0,0,1.187,button_left_main,-0.416666667,-0.282407407,1,0,0,,0,15,15,151,1,TINKY,HB,old,z,./images/TINKYHB.png,,,,,,,,,,,,,,,,,,,,,,,,,,,,,,,,,
,,,,,,,,,,,,,,,,,5e9af4184c5f7818ccf9a43e,46,2022-02-12_16h29.22.412,lexical_decision_task_DD_L3,2021.2.3,iPhone,58.82352941,,,,,,,,,,0.602,1,,,,,,,,,,,,,,,0,0.393518519,-0.291666667,1,0,0,0.602,button_right_main,0.393518519,-0.291666667,1,0,0,,0,16,16,52,1,BANNER,C,old,m,./images/BANNER.png,,,,,,,,,,,,,,,,,,,,,,,,,,,,,,,,,
,,,,,,,,,,,,,,,,,5e9af4184c5f7818ccf9a43e,46,2022-02-12_16h29.22.412,lexical_decision_task_DD_L3,2021.2.3,iPhone,58.82352941,,,,,,,,,,0.819,1,,,,,,,,,,,,,,,0,-0.402777778,-0.287037037,1,0,0,0.819,button_left_main,-0.402777778,-0.287037037,1,0,0,,0,17,17,119,1,PAFER,LB,old,z,./images/PAFERLB.png,,,,,,,,,,,,,,,,,,,,,,,,,,,,,,,,,
,,,,,,,,,,,,,,,,,5e9af4184c5f7818ccf9a43e,46,2022-02-12_16h29.22.412,lexical_decision_task_DD_L3,2021.2.3,iPhone,58.82352941,,,,,,,,,,0.635,1,,,,,,,,,,,,,,,0,0.402777778,-0.310185185,1,0,0,0.635,button_right_main,0.402777778,-0.310185185,1,0,0,,0,18,18,21,1,KIDNEY,LB,old,m,./images/KIDNEYLB.png,,,,,,,,,,,,,,,,,,,,,,,,,,,,,,,,,
,,,,,,,,,,,,,,,,,5e9af4184c5f7818ccf9a43e,46,2022-02-12_16h29.22.412,lexical_decision_task_DD_L3,2021.2.3,iPhone,58.82352941,,,,,,,,,,0.771,1,,,,,,,,,,,,,,,0,-0.425925926,-0.305555556,1,0,0,0.771,button_left_main,-0.425925926,-0.305555556,1,0,0,,0,19,19,129,1,PRANS,C,old,z,./images/PRANS.png,,,,,,,,,,,,,,,,,,,,,,,,,,,,,,,,,
,,,,,,,,,,,,,,,,,5e9af4184c5f7818ccf9a43e,46,2022-02-12_16h29.22.412,lexical_decision_task_DD_L3,2021.2.3,iPhone,58.82352941,,,,,,,,,,0.836,1,,,,,,,,,,,,,,,0,-0.449074074,-0.314814815,1,0,0,0.836,button_left_main,-0.449074074,-0.314814815,1,0,0,,0,20,20,117,1,STEEG,C,old,z,./images/STEEG.png,,,,,,,,,,,,,,,,,,,,,,,,,,,,,,,,,
,,,,,,,,,,,,,,,,,5e9af4184c5f7818ccf9a43e,46,2022-02-12_16h29.22.412,lexical_decision_task_DD_L3,2021.2.3,iPhone,58.82352941,,,,,,,,,,0.854,1,,,,,,,,,,,,,,,0,-0.384259259,-0.268518519,1,0,0,0.854,button_left_main,-0.384259259,-0.268518519,1,0,0,,0,21,21,126,1,GUELS,C,old,z,./images/GUELS.png,,,,,,,,,,,,,,,,,,,,,,,,,,,,,,,,,
,,,,,,,,,,,,,,,,,5e9af4184c5f7818ccf9a43e,46,2022-02-12_16h29.22.412,lexical_decision_task_DD_L3,2021.2.3,iPhone,58.82352941,,,,,,,,,,0.651,0,,,,,,,,,,,,,,,0,0.412037037,-0.291666667,1,0,0,0.651,button_right_main,0.412037037,-0.291666667,1,0,0,,0,22,22,125,1,MOOKY,LB,old,z,./images/MOOKYLB.png,,,,,,,,,,,,,,,,,,,,,,,,,,,,,,,,,
,,,,,,,,,,,,,,,,,5e9af4184c5f7818ccf9a43e,46,2022-02-12_16h29.22.412,lexical_decision_task_DD_L3,2021.2.3,iPhone,58.82352941,,,,,,,,,,0.87,1,,,,,,,,,,,,,,,0,-0.398148148,-0.273148148,1,0,0,0.87,button_left_main,-0.398148148,-0.273148148,1,0,0,,0,23,23,124,1,TUNCH,HB,old,z,./images/TUNCHHB.png,,,,,,,,,,,,,,,,,,,,,,,,,,,,,,,,,
,,,,,,,,,,,,,,,,,5e9af4184c5f7818ccf9a43e,46,2022-02-12_16h29.22.412,lexical_decision_task_DD_L3,2021.2.3,iPhone,58.82352941,,,,,,,,,,1.072,1,,,,,,,,,,,,,,,0,0.375,-0.300925926,1,0,0,1.072,button_right_main,0.375,-0.300925926,1,0,0,,0,24,24,66,1,SWEAT,LB,old,m,./images/SWEATLB.png,,,,,,,,,,,,,,,,,,,,,,,,,,,,,,,,,
,,,,,,,,,,,,,,,,,5e9af4184c5f7818ccf9a43e,46,2022-02-12_16h29.22.412,lexical_decision_task_DD_L3,2021.2.3,iPhone,58.82352941,,,,,,,,,,0.768,1,,,,,,,,,,,,,,,0,-0.375,-0.287037037,1,0,0,0.768,button_left_main,-0.375,-0.287037037,1,0,0,,0,25,25,87,1,TRING,C,old,z,./images/TRING.png,,,,,,,,,,,,,,,,,,,,,,,,,,,,,,,,,
,,,,,,,,,,,,,,,,,5e9af4184c5f7818ccf9a43e,46,2022-02-12_16h29.22.412,lexical_decision_task_DD_L3,2021.2.3,iPhone,58.82352941,,,,,,,,,,0.836,1,,,,,,,,,,,,,,,0,-0.375,-0.296296296,1,0,0,0.836,button_left_main,-0.375,-0.296296296,1,0,0,,0,26,26,147,1,ZOLES,C,old,z,./images/ZOLES.png,,,,,,,,,,,,,,,,,,,,,,,,,,,,,,,,,
,,,,,,,,,,,,,,,,,5e9af4184c5f7818ccf9a43e,46,2022-02-12_16h29.22.412,lexical_decision_task_DD_L3,2021.2.3,iPhone,58.82352941,,,,,,,,,,0.803,1,,,,,,,,,,,,,,,0,-0.337962963,-0.263888889,1,0,0,0.803,button_left_main,-0.337962963,-0.263888889,1,0,0,,0,27,27,152,1,FRAIN,LB,old,z,./images/FRAINLB.png,,,,,,,,,,,,,,,,,,,,,,,,,,,,,,,,,
,,,,,,,,,,,,,,,,,5e9af4184c5f7818ccf9a43e,46,2022-02-12_16h29.22.412,lexical_decision_task_DD_L3,2021.2.3,iPhone,58.82352941,,,,,,,,,,1.606,1,,,,,,,,,,,,,,,0,-0.342592593,-0.305555556,1,0,0,1.606,button_left_main,-0.342592593,-0.305555556,1,0,0,,0,28,28,90,1,NEAST,C,old,z,./images/NEAST.png,,,,,,,,,,,,,,,,,,,,,,,,,,,,,,,,,
,,,,,,,,,,,,,,,,,5e9af4184c5f7818ccf9a43e,46,2022-02-12_16h29.22.412,lexical_decision_task_DD_L3,2021.2.3,iPhone,58.82352941,,,,,,,,,,1.705,1,,,,,,,,,,,,,,,0,0.421296296,-0.282407407,1,0,0,1.705,button_right_main,0.421296296,-0.282407407,1,0,0,,0,29,29,14,1,PICKLE,HB,old,m,./images/PICKLEHB.png,,,,,,,,,,,,,,,,,,,,,,,,,,,,,,,,,
,,,,,,,,,,,,,,,,,5e9af4184c5f7818ccf9a43e,46,2022-02-12_16h29.22.412,lexical_decision_task_DD_L3,2021.2.3,iPhone,58.82352941,,,,,,,,,,0.77,1,,,,,,,,,,,,,,,0,-0.402777778,-0.328703704,1,0,0,0.77,button_left_main,-0.402777778,-0.328703704,1,0,0,,0,30,30,137,1,JOOST,LB,old,z,./images/JOOSTLB.png,,,,,,,,,,,,,,,,,,,,,,,,,,,,,,,,,
,,,,,,,,,,,,,,,,,5e9af4184c5f7818ccf9a43e,46,2022-02-12_16h29.22.412,lexical_decision_task_DD_L3,2021.2.3,iPhone,58.82352941,,,,,,,,,,0.753,1,,,,,,,,,,,,,,,0,0.388888889,-0.296296296,1,0,0,0.753,button_right_main,0.388888889,-0.296296296,1,0,0,,0,31,31,42,1,FOLDER,LB,old,m,./images/FOLDERLB.png,,,,,,,,,,,,,,,,,,,,,,,,,,,,,,,,,
,,,,,,,,,,,,,,,,,5e9af4184c5f7818ccf9a43e,46,2022-02-12_16h29.22.412,lexical_decision_task_DD_L3,2021.2.3,iPhone,58.82352941,,,,,,,,,,0.786,1,,,,,,,,,,,,,,,0,-0.375,-0.314814815,1,0,0,0.786,button_left_main,-0.375,-0.314814815,1,0,0,,0,32,32,101,1,GLEET,LB,old,z,./images/GLEETLB.png,,,,,,,,,,,,,,,,,,,,,,,,,,,,,,,,,
,,,,,,,,,,,,,,,,,5e9af4184c5f7818ccf9a43e,46,2022-02-12_16h29.22.412,lexical_decision_task_DD_L3,2021.2.3,iPhone,58.82352941,,,,,,,,,,0.902,1,,,,,,,,,,,,,,,0,-0.393518519,-0.351851852,1,0,0,0.902,button_left_main,-0.393518519,-0.351851852,1,0,0,,0,33,33,133,1,POWDY,HB,old,z,./images/POWDYHB.png,,,,,,,,,,,,,,,,,,,,,,,,,,,,,,,,,
,,,,,,,,,,,,,,,,,5e9af4184c5f7818ccf9a43e,46,2022-02-12_16h29.22.412,lexical_decision_task_DD_L3,2021.2.3,iPhone,58.82352941,,,,,,,,,,0.888,0,,,,,,,,,,,,,,,0,-0.361111111,-0.337962963,1,0,0,0.888,button_left_main,-0.361111111,-0.337962963,1,0,0,,0,34,34,56,1,PACKET,HB,old,m,./images/PACKETHB.png,,,,,,,,,,,,,,,,,,,,,,,,,,,,,,,,,
,,,,,,,,,,,,,,,,,5e9af4184c5f7818ccf9a43e,46,2022-02-12_16h29.22.412,lexical_decision_task_DD_L3,2021.2.3,iPhone,58.82352941,,,,,,,,,,0.653,1,,,,,,,,,,,,,,,0,0.398148148,-0.310185185,1,0,0,0.653,button_right_main,0.398148148,-0.310185185,1,0,0,,0,35,35,82,1,SUNSET,C,old,m,./images/SUNSET.png,,,,,,,,,,,,,,,,,,,,,,,,,,,,,,,,,
,,,,,,,,,,,,,,,,,5e9af4184c5f7818ccf9a43e,46,2022-02-12_16h29.22.412,lexical_decision_task_DD_L3,2021.2.3,iPhone,58.82352941,,,,,,,,,,1.221,1,,,,,,,,,,,,,,,0,0.37962963,-0.314814815,1,0,0,1.221,button_right_main,0.37962963,-0.314814815,1,0,0,,0,36,36,53,1,CARPET,HB,old,m,./images/CARPETHB.png,,,,,,,,,,,,,,,,,,,,,,,,,,,,,,,,,
,,,,,,,,,,,,,,,,,5e9af4184c5f7818ccf9a43e,46,2022-02-12_16h29.22.412,lexical_decision_task_DD_L3,2021.2.3,iPhone,58.82352941,,,,,,,,,,1.14,1,,,,,,,,,,,,,,,0,-0.388888889,-0.337962963,1,0,0,1.14,button_left_main,-0.388888889,-0.337962963,1,0,0,,0,37,37,118,1,BAVEL,HB,old,z,./images/BAVELHB.png,,,,,,,,,,,,,,,,,,,,,,,,,,,,,,,,,
,,,,,,,,,,,,,,,,,5e9af4184c5f7818ccf9a43e,46,2022-02-12_16h29.22.412,lexical_decision_task_DD_L3,2021.2.3,iPhone,58.82352941,,,,,,,,,,0.821,1,,,,,,,,,,,,,,,0,-0.333333333,-0.324074074,1,0,0,0.821,button_left_main,-0.333333333,-0.324074074,1,0,0,,0,38,38,140,1,DOVET,LB,old,z,./images/DOVETLB.png,,,,,,,,,,,,,,,,,,,,,,,,,,,,,,,,,
,,,,,,,,,,,,,,,,,5e9af4184c5f7818ccf9a43e,46,2022-02-12_16h29.22.412,lexical_decision_task_DD_L3,2021.2.3,iPhone,58.82352941,,,,,,,,,,0.687,1,,,,,,,,,,,,,,,0,0.407407407,-0.310185185,1,0,0,0.687,button_right_main,0.407407407,-0.310185185,1,0,0,,0,39,39,39,1,SHELF,LB,old,m,./images/SHELFLB.png,,,,,,,,,,,,,,,,,,,,,,,,,,,,,,,,,
,,,,,,,,,,,,,,,,,5e9af4184c5f7818ccf9a43e,46,2022-02-12_16h29.22.412,lexical_decision_task_DD_L3,2021.2.3,iPhone,58.82352941,,,,,,,,,,1.49,1,,,,,,,,,,,,,,,0,0.351851852,-0.310185185,1,0,0,1.49,button_right_main,0.351851852,-0.310185185,1,0,0,,0,40,40,74,1,CEMENT,HB,old,m,./images/CEMENTHB.png,,,,,,,,,,,,,,,,,,,,,,,,,,,,,,,,,
,,,,,,,,,,,,,,,,,5e9af4184c5f7818ccf9a43e,46,2022-02-12_16h29.22.412,lexical_decision_task_DD_L3,2021.2.3,iPhone,58.82352941,,,,,,,,,,1.673,1,,,,,,,,,,,,,,,0,-0.375,-0.351851852,1,0,0,1.673,button_left_main,0.111111111,-0.393518519,1,0,0,,0,41,41,160,1,VEETS,HB,old,z,./images/VEETSHB.png,break_done_button,,,,,,,,,,,,,,,,,,,,,,,,,,,,,,,,
,,,,,,,,,,,,,,,,,5e9af4184c5f7818ccf9a43e,46,2022-02-12_16h29.22.412,lexical_decision_task_DD_L3,2021.2.3,iPhone,58.82352941,,,,,,,,,,0.702,1,,,,,,,,,,,,,,,0,0.384259259,-0.319444444,1,0,0,0.702,button_right_main,0.384259259,-0.319444444,1,0,0,,0,42,42,79,1,CRUST,C,old,m,./images/CRUST.png,,,,,,,,,,,,,,,,,,,,,,,,,,,,,,,,,
,,,,,,,,,,,,,,,,,5e9af4184c5f7818ccf9a43e,46,2022-02-12_16h29.22.412,lexical_decision_task_DD_L3,2021.2.3,iPhone,58.82352941,,,,,,,,,,0.787,1,,,,,,,,,,,,,,,0,-0.337962963,-0.328703704,1,0,0,0.787,button_left_main,-0.337962963,-0.328703704,1,0,0,,0,43,43,111,1,HOSSE,C,old,z,./images/HOSSE.png,,,,,,,,,,,,,,,,,,,,,,,,,,,,,,,,,
,,,,,,,,,,,,,,,,,5e9af4184c5f7818ccf9a43e,46,2022-02-12_16h29.22.412,lexical_decision_task_DD_L3,2021.2.3,iPhone,58.82352941,,,,,,,,,,0.738,1,,,,,,,,,,,,,,,0,-0.324074074,-0.328703704,1,0,0,0.738,button_left_main,-0.324074074,-0.328703704,1,0,0,,0,44,44,162,1,LEICH,C,old,z,./images/LEICH.png,,,,,,,,,,,,,,,,,,,,,,,,,,,,,,,,,
,,,,,,,,,,,,,,,,,5e9af4184c5f7818ccf9a43e,46,2022-02-12_16h29.22.412,lexical_decision_task_DD_L3,2021.2.3,iPhone,58.82352941,,,,,,,,,,0.772,1,,,,,,,,,,,,,,,0,-0.300925926,-0.310185185,1,0,0,0.772,button_left_main,-0.300925926,-0.310185185,1,0,0,,0,45,45,146,1,MOOST,LB,old,z,./images/MOOSTLB.png,,,,,,,,,,,,,,,,,,,,,,,,,,,,,,,,,
,,,,,,,,,,,,,,,,,5e9af4184c5f7818ccf9a43e,46,2022-02-12_16h29.22.412,lexical_decision_task_DD_L3,2021.2.3,iPhone,58.82352941,,,,,,,,,,1.487,1,,,,,,,,,,,,,,,0,-0.342592593,-0.314814815,1,0,0,1.487,button_left_main,-0.342592593,-0.314814815,1,0,0,,0,46,46,94,1,BLANS,HB,old,z,./images/BLANSHB.png,,,,,,,,,,,,,,,,,,,,,,,,,,,,,,,,,
,,,,,,,,,,,,,,,,,5e9af4184c5f7818ccf9a43e,46,2022-02-12_16h29.22.412,lexical_decision_task_DD_L3,2021.2.3,iPhone,58.82352941,,,,,,,,,,1.388,1,,,,,,,,,,,,,,,0,-0.342592593,-0.314814815,1,0,0,1.388,button_left_main,-0.342592593,-0.314814815,1,0,0,,0,47,47,103,1,FLORT,HB,old,z,./images/FLORTHB.png,,,,,,,,,,,,,,,,,,,,,,,,,,,,,,,,,
,,,,,,,,,,,,,,,,,5e9af4184c5f7818ccf9a43e,46,2022-02-12_16h29.22.412,lexical_decision_task_DD_L3,2021.2.3,iPhone,58.82352941,,,,,,,,,,0.785,1,,,,,,,,,,,,,,,0,0.37962963,-0.310185185,1,0,0,0.785,button_right_main,0.37962963,-0.310185185,1,0,0,,0,48,48,78,1,LITTER,LB,old,m,./images/LITTERLB.png,,,,,,,,,,,,,,,,,,,,,,,,,,,,,,,,,
,,,,,,,,,,,,,,,,,5e9af4184c5f7818ccf9a43e,46,2022-02-12_16h29.22.412,lexical_decision_task_DD_L3,2021.2.3,iPhone,58.82352941,,,,,,,,,,0.821,1,,,,,,,,,,,,,,,0,-0.347222222,-0.328703704,1,0,0,0.821,button_left_main,-0.347222222,-0.328703704,1,0,0,,0,49,49,132,1,SCIFF,C,old,z,./images/SCIFF.png,,,,,,,,,,,,,,,,,,,,,,,,,,,,,,,,,
,,,,,,,,,,,,,,,,,5e9af4184c5f7818ccf9a43e,46,2022-02-12_16h29.22.412,lexical_decision_task_DD_L3,2021.2.3,iPhone,58.82352941,,,,,,,,,,0.837,1,,,,,,,,,,,,,,,0,-0.342592593,-0.328703704,1,0,0,0.837,button_left_main,-0.342592593,-0.328703704,1,0,0,,0,50,50,150,1,NOOLS,C,old,z,./images/NOOLS.png,,,,,,,,,,,,,,,,,,,,,,,,,,,,,,,,,
,,,,,,,,,,,,,,,,,5e9af4184c5f7818ccf9a43e,46,2022-02-12_16h29.22.412,lexical_decision_task_DD_L3,2021.2.3,iPhone,58.82352941,,,,,,,,,,0.753,1,,,,,,,,,,,,,,,0,0.384259259,-0.305555556,1,0,0,0.753,button_right_main,0.384259259,-0.305555556,1,0,0,,0,51,51,37,1,BIRTH,C,old,m,./images/BIRTH.png,,,,,,,,,,,,,,,,,,,,,,,,,,,,,,,,,
,,,,,,,,,,,,,,,,,5e9af4184c5f7818ccf9a43e,46,2022-02-12_16h29.22.412,lexical_decision_task_DD_L3,2021.2.3,iPhone,58.82352941,,,,,,,,,,0.686,1,,,,,,,,,,,,,,,0,0.393518519,-0.324074074,1,0,0,0.686,button_right_main,0.393518519,-0.324074074,1,0,0,,0,52,52,3,1,FINGER,LB,old,m,./images/FINGERLB.png,,,,,,,,,,,,,,,,,,,,,,,,,,,,,,,,,
,,,,,,,,,,,,,,,,,5e9af4184c5f7818ccf9a43e,46,2022-02-12_16h29.22.412,lexical_decision_task_DD_L3,2021.2.3,iPhone,58.82352941,,,,,,,,,,0.902,1,,,,,,,,,,,,,,,0,-0.361111111,-0.356481481,1,0,0,0.902,button_left_main,-0.361111111,-0.356481481,1,0,0,,0,53,53,148,1,JOMS,HB,old,z,./images/JOMSHB.png,,,,,,,,,,,,,,,,,,,,,,,,,,,,,,,,,
,,,,,,,,,,,,,,,,,5e9af4184c5f7818ccf9a43e,46,2022-02-12_16h29.22.412,lexical_decision_task_DD_L3,2021.2.3,iPhone,58.82352941,,,,,,,,,,1.44,1,,,,,,,,,,,,,,,0,0.375,-0.333333333,1,0,0,1.44,button_right_main,0.375,-0.333333333,1,0,0,,0,54,54,2,1,BEARD,HB,old,m,./images/BEARDHB.png,,,,,,,,,,,,,,,,,,,,,,,,,,,,,,,,,
,,,,,,,,,,,,,,,,,5e9af4184c5f7818ccf9a43e,46,2022-02-12_16h29.22.412,lexical_decision_task_DD_L3,2021.2.3,iPhone,58.82352941,,,,,,,,,,0.669,1,,,,,,,,,,,,,,,0,0.37962963,-0.347222222,1,0,0,0.669,button_right_main,0.37962963,-0.347222222,1,0,0,,0,55,55,4,1,MUSCLE,C,old,m,./images/MUSCLE.png,,,,,,,,,,,,,,,,,,,,,,,,,,,,,,,,,
,,,,,,,,,,,,,,,,,5e9af4184c5f7818ccf9a43e,46,2022-02-12_16h29.22.412,lexical_decision_task_DD_L3,2021.2.3,iPhone,58.82352941,,,,,,,,,,1.004,1,,,,,,,,,,,,,,,0,0.37962963,-0.328703704,1,0,0,1.004,button_right_main,0.37962963,-0.328703704,1,0,0,,0,56,56,26,1,SMOKER,HB,old,m,./images/SMOKERHB.png,,,,,,,,,,,,,,,,,,,,,,,,,,,,,,,,,
,,,,,,,,,,,,,,,,,5e9af4184c5f7818ccf9a43e,46,2022-02-12_16h29.22.412,lexical_decision_task_DD_L3,2021.2.3,iPhone,58.82352941,,,,,,,,,,0.7,0,,,,,,,,,,,,,,,0,0.384259259,-0.342592593,1,0,0,0.7,button_right_main,0.384259259,-0.342592593,1,0,0,,0,57,57,166,1,SHORY,HB,old,z,./images/SHORYHB.png,,,,,,,,,,,,,,,,,,,,,,,,,,,,,,,,,
,,,,,,,,,,,,,,,,,5e9af4184c5f7818ccf9a43e,46,2022-02-12_16h29.22.412,lexical_decision_task_DD_L3,2021.2.3,iPhone,58.82352941,,,,,,,,,,0.686,1,,,,,,,,,,,,,,,0,0.384259259,-0.361111111,1,0,0,0.686,button_right_main,0.384259259,-0.361111111,1,0,0,,0,58,58,40,1,SWING,C,old,m,./images/SWING.png,,,,,,,,,,,,,,,,,,,,,,,,,,,,,,,,,
,,,,,,,,,,,,,,,,,5e9af4184c5f7818ccf9a43e,46,2022-02-12_16h29.22.412,lexical_decision_task_DD_L3,2021.2.3,iPhone,58.82352941,,,,,,,,,,1.173,1,,,,,,,,,,,,,,,0,0.37037037,-0.319444444,1,0,0,1.173,button_right_main,0.37037037,-0.319444444,1,0,0,,0,59,59,44,1,LIZARD,HB,old,m,./images/LIZARDHB.png,,,,,,,,,,,,,,,,,,,,,,,,,,,,,,,,,
,,,,,,,,,,,,,,,,,5e9af4184c5f7818ccf9a43e,46,2022-02-12_16h29.22.412,lexical_decision_task_DD_L3,2021.2.3,iPhone,58.82352941,,,,,,,,,,0.703,1,,,,,,,,,,,,,,,0,0.37037037,-0.347222222,1,0,0,0.703,button_right_main,0.37037037,-0.347222222,1,0,0,,0,60,60,68,1,TORCH,HB,old,m,./images/TORCHHB.png,,,,,,,,,,,,,,,,,,,,,,,,,,,,,,,,,
,,,,,,,,,,,,,,,,,5e9af4184c5f7818ccf9a43e,46,2022-02-12_16h29.22.412,lexical_decision_task_DD_L3,2021.2.3,iPhone,58.82352941,,,,,,,,,,0.788,1,,,,,,,,,,,,,,,0,0.37962963,-0.342592593,1,0,0,0.788,button_right_main,0.37962963,-0.342592593,1,0,0,,0,61,61,43,1,MOSQUE,C,old,m,./images/MOSQUE.png,,,,,,,,,,,,,,,,,,,,,,,,,,,,,,,,,
,,,,,,,,,,,,,,,,,5e9af4184c5f7818ccf9a43e,46,2022-02-12_16h29.22.412,lexical_decision_task_DD_L3,2021.2.3,iPhone,58.82352941,,,,,,,,,,0.92,1,,,,,,,,,,,,,,,0,-0.347222222,-0.361111111,1,0,0,0.92,button_left_main,-0.347222222,-0.361111111,1,0,0,,0,62,62,86,1,AIFED,LB,old,z,./images/AIFEDLB.png,,,,,,,,,,,,,,,,,,,,,,,,,,,,,,,,,
,,,,,,,,,,,,,,,,,5e9af4184c5f7818ccf9a43e,46,2022-02-12_16h29.22.412,lexical_decision_task_DD_L3,2021.2.3,iPhone,58.82352941,,,,,,,,,,1.021,1,,,,,,,,,,,,,,,0,-0.347222222,-0.351851852,1,0,0,1.021,button_left_main,-0.347222222,-0.351851852,1,0,0,,0,63,63,158,1,EGECT,LB,old,z,./images/EGECTLB.png,,,,,,,,,,,,,,,,,,,,,,,,,,,,,,,,,
,,,,,,,,,,,,,,,,,5e9af4184c5f7818ccf9a43e,46,2022-02-12_16h29.22.412,lexical_decision_task_DD_L3,2021.2.3,iPhone,58.82352941,,,,,,,,,,1.34,1,,,,,,,,,,,,,,,0,0.361111111,-0.324074074,1,0,0,1.34,button_right_main,0.361111111,-0.324074074,1,0,0,,0,64,64,10,1,BELLY,C,old,m,./images/BELLY.png,,,,,,,,,,,,,,,,,,,,,,,,,,,,,,,,,
,,,,,,,,,,,,,,,,,5e9af4184c5f7818ccf9a43e,46,2022-02-12_16h29.22.412,lexical_decision_task_DD_L3,2021.2.3,iPhone,58.82352941,,,,,,,,,,0.905,1,,,,,,,,,,,,,,,0,-0.351851852,-0.337962963,1,0,0,0.905,button_left_main,-0.351851852,-0.337962963,1,0,0,,0,65,65,84,1,HAXES,C,old,z,./images/HAXES.png,,,,,,,,,,,,,,,,,,,,,,,,,,,,,,,,,
,,,,,,,,,,,,,,,,,5e9af4184c5f7818ccf9a43e,46,2022-02-12_16h29.22.412,lexical_decision_task_DD_L3,2021.2.3,iPhone,58.82352941,,,,,,,,,,0.972,1,,,,,,,,,,,,,,,0,-0.319444444,-0.324074074,1,0,0,0.972,button_left_main,-0.319444444,-0.324074074,1,0,0,,0,66,66,99,1,BACKY,C,old,z,./images/BACKY.png,,,,,,,,,,,,,,,,,,,,,,,,,,,,,,,,,
,,,,,,,,,,,,,,,,,5e9af4184c5f7818ccf9a43e,46,2022-02-12_16h29.22.412,lexical_decision_task_DD_L3,2021.2.3,iPhone,58.82352941,,,,,,,,,,0.904,1,,,,,,,,,,,,,,,0,-0.365740741,-0.328703704,1,0,0,0.904,button_left_main,-0.365740741,-0.328703704,1,0,0,,0,67,67,123,1,SEDGE,C,old,z,./images/SEDGE.png,,,,,,,,,,,,,,,,,,,,,,,,,,,,,,,,,
,,,,,,,,,,,,,,,,,5e9af4184c5f7818ccf9a43e,46,2022-02-12_16h29.22.412,lexical_decision_task_DD_L3,2021.2.3,iPhone,58.82352941,,,,,,,,,,0.87,1,,,,,,,,,,,,,,,0,-0.337962963,-0.328703704,1,0,0,0.87,button_left_main,-0.337962963,-0.328703704,1,0,0,,0,68,68,161,1,BLAPS,LB,old,z,./images/BLAPSLB.png,,,,,,,,,,,,,,,,,,,,,,,,,,,,,,,,,
,,,,,,,,,,,,,,,,,5e9af4184c5f7818ccf9a43e,46,2022-02-12_16h29.22.412,lexical_decision_task_DD_L3,2021.2.3,iPhone,58.82352941,,,,,,,,,,0.835,1,,,,,,,,,,,,,,,0,0.365740741,-0.347222222,1,0,0,0.835,button_right_main,0.365740741,-0.347222222,1,0,0,,0,69,69,77,1,COUCH,HB,old,m,./images/COUCHHB.png,,,,,,,,,,,,,,,,,,,,,,,,,,,,,,,,,
,,,,,,,,,,,,,,,,,5e9af4184c5f7818ccf9a43e,46,2022-02-12_16h29.22.412,lexical_decision_task_DD_L3,2021.2.3,iPhone,58.82352941,,,,,,,,,,0.853,1,,,,,,,,,,,,,,,0,-0.356481481,-0.333333333,1,0,0,0.853,button_left_main,-0.356481481,-0.333333333,1,0,0,,0,70,70,145,1,LAMEL,HB,old,z,./images/LAMELHB.png,,,,,,,,,,,,,,,,,,,,,,,,,,,,,,,,,
,,,,,,,,,,,,,,,,,5e9af4184c5f7818ccf9a43e,46,2022-02-12_16h29.22.412,lexical_decision_task_DD_L3,2021.2.3,iPhone,58.82352941,,,,,,,,,,0.804,1,,,,,,,,,,,,,,,0,0.384259259,-0.319444444,1,0,0,0.804,button_right_main,0.384259259,-0.319444444,1,0,0,,0,71,71,15,1,GREASE,LB,old,m,./images/GREASELB.png,,,,,,,,,,,,,,,,,,,,,,,,,,,,,,,,,
,,,,,,,,,,,,,,,,,5e9af4184c5f7818ccf9a43e,46,2022-02-12_16h29.22.412,lexical_decision_task_DD_L3,2021.2.3,iPhone,58.82352941,,,,,,,,,,0.87,1,,,,,,,,,,,,,,,0,-0.361111111,-0.342592593,1,0,0,0.87,button_left_main,-0.361111111,-0.342592593,1,0,0,,0,72,72,121,1,CEERS,HB,old,z,./images/CEERSHB.png,,,,,,,,,,,,,,,,,,,,,,,,,,,,,,,,,
,,,,,,,,,,,,,,,,,5e9af4184c5f7818ccf9a43e,46,2022-02-12_16h29.22.412,lexical_decision_task_DD_L3,2021.2.3,iPhone,58.82352941,,,,,,,,,,0.82,1,,,,,,,,,,,,,,,0,-0.361111111,-0.324074074,1,0,0,0.82,button_left_main,-0.361111111,-0.324074074,1,0,0,,0,73,73,130,1,CRILL,HB,old,z,./images/CRILLHB.png,,,,,,,,,,,,,,,,,,,,,,,,,,,,,,,,,
,,,,,,,,,,,,,,,,,5e9af4184c5f7818ccf9a43e,46,2022-02-12_16h29.22.412,lexical_decision_task_DD_L3,2021.2.3,iPhone,58.82352941,,,,,,,,,,0.771,1,,,,,,,,,,,,,,,0,0.384259259,-0.300925926,1,0,0,0.771,button_right_main,0.384259259,-0.300925926,1,0,0,,0,74,74,45,1,KITTEN,LB,old,m,./images/KITTENLB.png,,,,,,,,,,,,,,,,,,,,,,,,,,,,,,,,,
,,,,,,,,,,,,,,,,,5e9af4184c5f7818ccf9a43e,46,2022-02-12_16h29.22.412,lexical_decision_task_DD_L3,2021.2.3,iPhone,58.82352941,,,,,,,,,,0.654,1,,,,,,,,,,,,,,,0,0.393518519,-0.319444444,1,0,0,0.654,button_right_main,0.393518519,-0.319444444,1,0,0,,0,75,75,55,1,MUFFIN,C,old,m,./images/MUFFIN.png,,,,,,,,,,,,,,,,,,,,,,,,,,,,,,,,,
,,,,,,,,,,,,,,,,,5e9af4184c5f7818ccf9a43e,46,2022-02-12_16h29.22.412,lexical_decision_task_DD_L3,2021.2.3,iPhone,58.82352941,,,,,,,,,,1.002,1,,,,,,,,,,,,,,,0,-0.365740741,-0.361111111,1,0,0,1.002,button_left_main,-0.365740741,-0.361111111,1,0,0,,0,76,76,157,1,INLER,HB,old,z,./images/INLERHB.png,,,,,,,,,,,,,,,,,,,,,,,,,,,,,,,,,
,,,,,,,,,,,,,,,,,5e9af4184c5f7818ccf9a43e,46,2022-02-12_16h29.22.412,lexical_decision_task_DD_L3,2021.2.3,iPhone,58.82352941,,,,,,,,,,0.901,1,,,,,,,,,,,,,,,0,0.365740741,-0.314814815,1,0,0,0.901,button_right_main,0.365740741,-0.314814815,1,0,0,,0,77,77,23,1,WALRUS,HB,old,m,./images/WALRUSHB.png,,,,,,,,,,,,,,,,,,,,,,,,,,,,,,,,,
,,,,,,,,,,,,,,,,,5e9af4184c5f7818ccf9a43e,46,2022-02-12_16h29.22.412,lexical_decision_task_DD_L3,2021.2.3,iPhone,58.82352941,,,,,,,,,,0.938,1,,,,,,,,,,,,,,,0,-0.37962963,-0.361111111,1,0,0,0.938,button_left_main,-0.37962963,-0.361111111,1,0,0,,0,78,78,112,1,MYING,HB,old,z,./images/MYINGHB.png,,,,,,,,,,,,,,,,,,,,,,,,,,,,,,,,,
,,,,,,,,,,,,,,,,,5e9af4184c5f7818ccf9a43e,46,2022-02-12_16h29.22.412,lexical_decision_task_DD_L3,2021.2.3,iPhone,58.82352941,,,,,,,,,,0.971,1,,,,,,,,,,,,,,,0,0.384259259,-0.333333333,1,0,0,0.971,button_right_main,0.384259259,-0.333333333,1,0,0,,0,79,79,22,1,MELON,C,old,m,./images/MELON.png,,,,,,,,,,,,,,,,,,,,,,,,,,,,,,,,,
,,,,,,,,,,,,,,,,,5e9af4184c5f7818ccf9a43e,46,2022-02-12_16h29.22.412,lexical_decision_task_DD_L3,2021.2.3,iPhone,58.82352941,,,,,,,,,,0.769,1,,,,,,,,,,,,,,,0,0.402777778,-0.337962963,1,0,0,0.769,button_right_main,0.402777778,-0.337962963,1,0,0,,0,80,80,61,1,CANDLE,C,old,m,./images/CANDLE.png,,,,,,,,,,,,,,,,,,,,,,,,,,,,,,,,,
,,,,,,,,,,,,,,,,,5e9af4184c5f7818ccf9a43e,46,2022-02-12_16h29.22.412,lexical_decision_task_DD_L3,2021.2.3,iPhone,58.82352941,,,,,,,,,,0.902,1,,,,,,,,,,,,,,,0,-0.365740741,-0.342592593,1,0,0,0.902,button_left_main,-0.365740741,-0.342592593,1,0,0,,0,81,81,100,1,DRIBS,HB,old,z,./images/DRIBSHB.png,,,,,,,,,,,,,,,,,,,,,,,,,,,,,,,,,
,,,,,,,,,,,,,,,,,5e9af4184c5f7818ccf9a43e,46,2022-02-12_16h29.22.412,lexical_decision_task_DD_L3,2021.2.3,iPhone,58.82352941,,,,,,,,,,0.62,1,,,,,,,,,,,,,,,0,0.402777778,-0.314814815,1,0,0,0.62,button_right_main,0.402777778,-0.314814815,1,0,0,,0,82,82,31,1,QUILL,C,old,m,./images/QUILL.png,,,,,,,,,,,,,,,,,,,,,,,,,,,,,,,,,
,,,,,,,,,,,,,,,,,5e9af4184c5f7818ccf9a43e,46,2022-02-12_16h29.22.412,lexical_decision_task_DD_L3,2021.2.3,iPhone,58.82352941,,,,,,,,,,0.905,1,,,,,,,,,,,,,,,0,-0.402777778,-0.365740741,1,0,0,0.905,button_left_main,0.050925926,-0.37962963,1,0,0,,0,83,83,113,1,LINEW,LB,old,z,./images/LINEWLB.png,break_done_button,,,,,,,,,,,,,,,,,,,,,,,,,,,,,,,,
,,,,,,,,,,,,,,,,,5e9af4184c5f7818ccf9a43e,46,2022-02-12_16h29.22.412,lexical_decision_task_DD_L3,2021.2.3,iPhone,58.82352941,,,,,,,,,,0.772,1,,,,,,,,,,,,,,,0,0.356481481,-0.300925926,1,0,0,0.772,button_right_main,0.356481481,-0.300925926,1,0,0,,0,84,84,19,1,DOUGH,C,old,m,./images/DOUGH.png,,,,,,,,,,,,,,,,,,,,,,,,,,,,,,,,,
,,,,,,,,,,,,,,,,,5e9af4184c5f7818ccf9a43e,46,2022-02-12_16h29.22.412,lexical_decision_task_DD_L3,2021.2.3,iPhone,58.82352941,,,,,,,,,,0.972,1,,,,,,,,,,,,,,,0,-0.342592593,-0.305555556,1,0,0,0.972,button_left_main,-0.342592593,-0.305555556,1,0,0,,0,85,85,154,1,THINT,HB,old,z,./images/THINTHB.png,,,,,,,,,,,,,,,,,,,,,,,,,,,,,,,,,
,,,,,,,,,,,,,,,,,5e9af4184c5f7818ccf9a43e,46,2022-02-12_16h29.22.412,lexical_decision_task_DD_L3,2021.2.3,iPhone,58.82352941,,,,,,,,,,1.222,1,,,,,,,,,,,,,,,0,0.351851852,-0.300925926,1,0,0,1.222,button_right_main,0.351851852,-0.300925926,1,0,0,,0,86,86,83,1,JUNGLE,HB,old,m,./images/JUNGLEHB.png,,,,,,,,,,,,,,,,,,,,,,,,,,,,,,,,,
,,,,,,,,,,,,,,,,,5e9af4184c5f7818ccf9a43e,46,2022-02-12_16h29.22.412,lexical_decision_task_DD_L3,2021.2.3,iPhone,58.82352941,,,,,,,,,,0.634,1,,,,,,,,,,,,,,,0,0.37037037,-0.319444444,1,0,0,0.634,button_right_main,0.37037037,-0.319444444,1,0,0,,0,87,87,48,1,SPORT,LB,old,m,./images/SPORTLB.png,,,,,,,,,,,,,,,,,,,,,,,,,,,,,,,,,
,,,,,,,,,,,,,,,,,5e9af4184c5f7818ccf9a43e,46,2022-02-12_16h29.22.412,lexical_decision_task_DD_L3,2021.2.3,iPhone,58.82352941,,,,,,,,,,1.138,0,,,,,,,,,,,,,,,0,-0.314814815,-0.305555556,1,0,0,1.138,button_left_main,-0.314814815,-0.305555556,1,0,0,,0,88,88,71,1,PIMPLE,HB,old,m,./images/PIMPLEHB.png,,,,,,,,,,,,,,,,,,,,,,,,,,,,,,,,,
,,,,,,,,,,,,,,,,,5e9af4184c5f7818ccf9a43e,46,2022-02-12_16h29.22.412,lexical_decision_task_DD_L3,2021.2.3,iPhone,58.82352941,,,,,,,,,,0.585,1,,,,,,,,,,,,,,,0,0.365740741,-0.319444444,1,0,0,0.585,button_right_main,0.365740741,-0.319444444,1,0,0,,0,89,89,7,1,PAINT,C,old,m,./images/PAINT.png,,,,,,,,,,,,,,,,,,,,,,,,,,,,,,,,,
,,,,,,,,,,,,,,,,,5e9af4184c5f7818ccf9a43e,46,2022-02-12_16h29.22.412,lexical_decision_task_DD_L3,2021.2.3,iPhone,58.82352941,,,,,,,,,,0.82,1,,,,,,,,,,,,,,,0,0.365740741,-0.300925926,1,0,0,0.82,button_right_main,0.365740741,-0.300925926,1,0,0,,0,90,90,9,1,RHINO,LB,old,m,./images/RHINOLB.png,,,,,,,,,,,,,,,,,,,,,,,,,,,,,,,,,
,,,,,,,,,,,,,,,,,5e9af4184c5f7818ccf9a43e,46,2022-02-12_16h29.22.412,lexical_decision_task_DD_L3,2021.2.3,iPhone,58.82352941,,,,,,,,,,0.851,1,,,,,,,,,,,,,,,0,-0.347222222,-0.314814815,1,0,0,0.851,button_left_main,-0.347222222,-0.314814815,1,0,0,,0,91,91,107,1,FASKS,LB,old,z,./images/FASKSLB.png,,,,,,,,,,,,,,,,,,,,,,,,,,,,,,,,,
,,,,,,,,,,,,,,,,,5e9af4184c5f7818ccf9a43e,46,2022-02-12_16h29.22.412,lexical_decision_task_DD_L3,2021.2.3,iPhone,58.82352941,,,,,,,,,,0.787,1,,,,,,,,,,,,,,,0,0.342592593,-0.314814815,1,0,0,0.787,button_right_main,0.342592593,-0.314814815,1,0,0,,0,92,92,38,1,LADDER,HB,old,m,./images/LADDERHB.png,,,,,,,,,,,,,,,,,,,,,,,,,,,,,,,,,
,,,,,,,,,,,,,,,,,5e9af4184c5f7818ccf9a43e,46,2022-02-12_16h29.22.412,lexical_decision_task_DD_L3,2021.2.3,iPhone,58.82352941,,,,,,,,,,0.635,0,,,,,,,,,,,,,,,0,0.337962963,-0.300925926,1,0,0,0.635,button_right_main,0.337962963,-0.300925926,1,0,0,,0,93,93,159,1,CUDDY,C,old,z,./images/CUDDY.png,,,,,,,,,,,,,,,,,,,,,,,,,,,,,,,,,
,,,,,,,,,,,,,,,,,5e9af4184c5f7818ccf9a43e,46,2022-02-12_16h29.22.412,lexical_decision_task_DD_L3,2021.2.3,iPhone,58.82352941,,,,,,,,,,0.888,1,,,,,,,,,,,,,,,0,-0.361111111,-0.342592593,1,0,0,0.888,button_left_main,-0.361111111,-0.342592593,1,0,0,,0,94,94,95,1,HANTY,LB,old,z,./images/HANTYLB.png,,,,,,,,,,,,,,,,,,,,,,,,,,,,,,,,,
,,,,,,,,,,,,,,,,,5e9af4184c5f7818ccf9a43e,46,2022-02-12_16h29.22.412,lexical_decision_task_DD_L3,2021.2.3,iPhone,58.82352941,,,,,,,,,,0.585,1,,,,,,,,,,,,,,,0,0.384259259,-0.305555556,1,0,0,0.585,button_right_main,0.384259259,-0.305555556,1,0,0,,0,95,95,60,1,TWINS,LB,old,m,./images/TWINSLB.png,,,,,,,,,,,,,,,,,,,,,,,,,,,,,,,,,
,,,,,,,,,,,,,,,,,5e9af4184c5f7818ccf9a43e,46,2022-02-12_16h29.22.412,lexical_decision_task_DD_L3,2021.2.3,iPhone,58.82352941,,,,,,,,,,0.921,1,,,,,,,,,,,,,,,0,-0.324074074,-0.347222222,1,0,0,0.921,button_left_main,-0.324074074,-0.347222222,1,0,0,,0,96,96,143,1,MONGS,LB,old,z,./images/MONGSLB.png,,,,,,,,,,,,,,,,,,,,,,,,,,,,,,,,,
,,,,,,,,,,,,,,,,,5e9af4184c5f7818ccf9a43e,46,2022-02-12_16h29.22.412,lexical_decision_task_DD_L3,2021.2.3,iPhone,58.82352941,,,,,,,,,,1.823,1,,,,,,,,,,,,,,,0,0.37962963,-0.305555556,1,0,0,1.823,button_right_main,0.37962963,-0.305555556,1,0,0,,0,97,97,8,1,TULIP,HB,old,m,./images/TULIPHB.png,,,,,,,,,,,,,,,,,,,,,,,,,,,,,,,,,
,,,,,,,,,,,,,,,,,5e9af4184c5f7818ccf9a43e,46,2022-02-12_16h29.22.412,lexical_decision_task_DD_L3,2021.2.3,iPhone,58.82352941,,,,,,,,,,0.856,1,,,,,,,,,,,,,,,0,0.384259259,-0.333333333,1,0,0,0.856,button_right_main,0.384259259,-0.333333333,1,0,0,,0,98,98,65,1,FARMER,HB,old,m,./images/FARMERHB.png,,,,,,,,,,,,,,,,,,,,,,,,,,,,,,,,,
,,,,,,,,,,,,,,,,,5e9af4184c5f7818ccf9a43e,46,2022-02-12_16h29.22.412,lexical_decision_task_DD_L3,2021.2.3,iPhone,58.82352941,,,,,,,,,,0.92,1,,,,,,,,,,,,,,,0,-0.324074074,-0.351851852,1,0,0,0.92,button_left_main,-0.324074074,-0.351851852,1,0,0,,0,99,99,92,1,PAIMS,LB,old,z,./images/PAIMSLB.png,,,,,,,,,,,,,,,,,,,,,,,,,,,,,,,,,
,,,,,,,,,,,,,,,,,5e9af4184c5f7818ccf9a43e,46,2022-02-12_16h29.22.412,lexical_decision_task_DD_L3,2021.2.3,iPhone,58.82352941,,,,,,,,,,0.65,1,,,,,,,,,,,,,,,0,0.388888889,-0.324074074,1,0,0,0.65,button_right_main,0.388888889,-0.324074074,1,0,0,,0,100,100,76,1,INFANT,C,old,m,./images/INFANT.png,,,,,,,,,,,,,,,,,,,,,,,,,,,,,,,,,
,,,,,,,,,,,,,,,,,5e9af4184c5f7818ccf9a43e,46,2022-02-12_16h29.22.412,lexical_decision_task_DD_L3,2021.2.3,iPhone,58.82352941,,,,,,,,,,0.87,1,,,,,,,,,,,,,,,0,-0.324074074,-0.375,1,0,0,0.87,button_left_main,-0.324074074,-0.375,1,0,0,,0,101,101,136,1,WERVE,HB,old,z,./images/WERVEHB.png,,,,,,,,,,,,,,,,,,,,,,,,,,,,,,,,,
,,,,,,,,,,,,,,,,,5e9af4184c5f7818ccf9a43e,46,2022-02-12_16h29.22.412,lexical_decision_task_DD_L3,2021.2.3,iPhone,58.82352941,,,,,,,,,,0.82,1,,,,,,,,,,,,,,,0,-0.305555556,-0.361111111,1,0,0,0.82,button_left_main,-0.305555556,-0.361111111,1,0,0,,0,102,102,156,1,HIXES,C,old,z,./images/HIXES.png,,,,,,,,,,,,,,,,,,,,,,,,,,,,,,,,,
,,,,,,,,,,,,,,,,,5e9af4184c5f7818ccf9a43e,46,2022-02-12_16h29.22.412,lexical_decision_task_DD_L3,2021.2.3,iPhone,58.82352941,,,,,,,,,,0.678,1,,,,,,,,,,,,,,,0,0.393518519,-0.328703704,1,0,0,0.678,button_right_main,0.393518519,-0.328703704,1,0,0,,0,103,103,25,1,WRIST,C,old,m,./images/WRIST.png,,,,,,,,,,,,,,,,,,,,,,,,,,,,,,,,,
,,,,,,,,,,,,,,,,,5e9af4184c5f7818ccf9a43e,46,2022-02-12_16h29.22.412,lexical_decision_task_DD_L3,2021.2.3,iPhone,58.82352941,,,,,,,,,,0.885,1,,,,,,,,,,,,,,,0,0.388888889,-0.328703704,1,0,0,0.885,button_right_main,0.388888889,-0.328703704,1,0,0,,0,104,104,33,1,MAGGOT,LB,old,m,./images/MAGGOTLB.png,,,,,,,,,,,,,,,,,,,,,,,,,,,,,,,,,
,,,,,,,,,,,,,,,,,5e9af4184c5f7818ccf9a43e,46,2022-02-12_16h29.22.412,lexical_decision_task_DD_L3,2021.2.3,iPhone,58.82352941,,,,,,,,,,1.205,1,,,,,,,,,,,,,,,0,0.37962963,-0.347222222,1,0,0,1.205,button_right_main,0.37962963,-0.347222222,1,0,0,,0,105,105,18,1,JAGUAR,LB,old,m,./images/JAGUARLB.png,,,,,,,,,,,,,,,,,,,,,,,,,,,,,,,,,
,,,,,,,,,,,,,,,,,5e9af4184c5f7818ccf9a43e,46,2022-02-12_16h29.22.412,lexical_decision_task_DD_L3,2021.2.3,iPhone,58.82352941,,,,,,,,,,0.987,1,,,,,,,,,,,,,,,0,0.324074074,-0.305555556,1,0,0,0.987,button_right_main,0.324074074,-0.305555556,1,0,0,,0,106,106,54,1,TRIPOD,LB,old,m,./images/TRIPODLB.png,,,,,,,,,,,,,,,,,,,,,,,,,,,,,,,,,
,,,,,,,,,,,,,,,,,5e9af4184c5f7818ccf9a43e,46,2022-02-12_16h29.22.412,lexical_decision_task_DD_L3,2021.2.3,iPhone,58.82352941,,,,,,,,,,0.937,1,,,,,,,,,,,,,,,0,-0.333333333,-0.342592593,1,0,0,0.937,button_left_main,-0.333333333,-0.342592593,1,0,0,,0,107,107,141,1,PLEET,C,old,z,./images/PLEET.png,,,,,,,,,,,,,,,,,,,,,,,,,,,,,,,,,
,,,,,,,,,,,,,,,,,5e9af4184c5f7818ccf9a43e,46,2022-02-12_16h29.22.412,lexical_decision_task_DD_L3,2021.2.3,iPhone,58.82352941,,,,,,,,,,2.34,0,,,,,,,,,,,,,,,0,0.37962963,-0.328703704,1,0,0,2.34,button_right_main,0.37962963,-0.328703704,1,0,0,,0,108,108,110,1,CRUNK,LB,old,z,./images/CRUNKLB.png,,,,,,,,,,,,,,,,,,,,,,,,,,,,,,,,,
,,,,,,,,,,,,,,,,,5e9af4184c5f7818ccf9a43e,46,2022-02-12_16h29.22.412,lexical_decision_task_DD_L3,2021.2.3,iPhone,58.82352941,,,,,,,,,,1.824,1,,,,,,,,,,,,,,,0,-0.365740741,-0.37037037,1,0,0,1.824,button_left_main,-0.365740741,-0.37037037,1,0,0,,0,109,109,142,1,PLASK,HB,old,z,./images/PLASKHB.png,,,,,,,,,,,,,,,,,,,,,,,,,,,,,,,,,
,,,,,,,,,,,,,,,,,5e9af4184c5f7818ccf9a43e,46,2022-02-12_16h29.22.412,lexical_decision_task_DD_L3,2021.2.3,iPhone,58.82352941,,,,,,,,,,1.036,1,,,,,,,,,,,,,,,0,-0.328703704,-0.37037037,1,0,0,1.036,button_left_main,-0.328703704,-0.37037037,1,0,0,,0,110,110,88,1,GLUSH,HB,old,z,./images/GLUSHHB.png,,,,,,,,,,,,,,,,,,,,,,,,,,,,,,,,,
,,,,,,,,,,,,,,,,,5e9af4184c5f7818ccf9a43e,46,2022-02-12_16h29.22.412,lexical_decision_task_DD_L3,2021.2.3,iPhone,58.82352941,,,,,,,,,,0.952,1,,,,,,,,,,,,,,,0,-0.328703704,-0.351851852,1,0,0,0.952,button_left_main,-0.328703704,-0.351851852,1,0,0,,0,111,111,120,1,RINED,C,old,z,./images/RINED.png,,,,,,,,,,,,,,,,,,,,,,,,,,,,,,,,,
,,,,,,,,,,,,,,,,,5e9af4184c5f7818ccf9a43e,46,2022-02-12_16h29.22.412,lexical_decision_task_DD_L3,2021.2.3,iPhone,58.82352941,,,,,,,,,,1.221,1,,,,,,,,,,,,,,,0,-0.342592593,-0.347222222,1,0,0,1.221,button_left_main,-0.342592593,-0.347222222,1,0,0,,0,112,112,109,1,BURGE,HB,old,z,./images/BURGEHB.png,,,,,,,,,,,,,,,,,,,,,,,,,,,,,,,,,
,,,,,,,,,,,,,,,,,5e9af4184c5f7818ccf9a43e,46,2022-02-12_16h29.22.412,lexical_decision_task_DD_L3,2021.2.3,iPhone,58.82352941,,,,,,,,,,0.619,1,,,,,,,,,,,,,,,0,0.361111111,-0.314814815,1,0,0,0.619,button_right_main,0.361111111,-0.314814815,1,0,0,,0,113,113,46,1,PEARL,C,old,m,./images/PEARL.png,,,,,,,,,,,,,,,,,,,,,,,,,,,,,,,,,
,,,,,,,,,,,,,,,,,5e9af4184c5f7818ccf9a43e,46,2022-02-12_16h29.22.412,lexical_decision_task_DD_L3,2021.2.3,iPhone,58.82352941,,,,,,,,,,0.85,1,,,,,,,,,,,,,,,0,-0.342592593,-0.314814815,1,0,0,0.85,button_left_main,-0.342592593,-0.314814815,1,0,0,,0,114,114,114,1,RIKES,C,old,z,./images/RIKES.png,,,,,,,,,,,,,,,,,,,,,,,,,,,,,,,,,
,,,,,,,,,,,,,,,,,5e9af4184c5f7818ccf9a43e,46,2022-02-12_16h29.22.412,lexical_decision_task_DD_L3,2021.2.3,iPhone,58.82352941,,,,,,,,,,0.602,1,,,,,,,,,,,,,,,0,0.388888889,-0.324074074,1,0,0,0.602,button_right_main,0.388888889,-0.324074074,1,0,0,,0,115,115,72,1,NOOSE,LB,old,m,./images/NOOSELB.png,,,,,,,,,,,,,,,,,,,,,,,,,,,,,,,,,
,,,,,,,,,,,,,,,,,5e9af4184c5f7818ccf9a43e,46,2022-02-12_16h29.22.412,lexical_decision_task_DD_L3,2021.2.3,iPhone,58.82352941,,,,,,,,,,0.903,1,,,,,,,,,,,,,,,0,0.351851852,-0.314814815,1,0,0,0.903,button_right_main,0.351851852,-0.314814815,1,0,0,,0,116,116,5,1,PASTA,HB,old,m,./images/PASTAHB.png,,,,,,,,,,,,,,,,,,,,,,,,,,,,,,,,,
,,,,,,,,,,,,,,,,,5e9af4184c5f7818ccf9a43e,46,2022-02-12_16h29.22.412,lexical_decision_task_DD_L3,2021.2.3,iPhone,58.82352941,,,,,,,,,,0.822,1,,,,,,,,,,,,,,,0,-0.402777778,-0.351851852,1,0,0,0.822,button_left_main,-0.402777778,-0.351851852,1,0,0,,0,117,117,122,1,BLOOT,LB,old,z,./images/BLOOTLB.png,,,,,,,,,,,,,,,,,,,,,,,,,,,,,,,,,
,,,,,,,,,,,,,,,,,5e9af4184c5f7818ccf9a43e,46,2022-02-12_16h29.22.412,lexical_decision_task_DD_L3,2021.2.3,iPhone,58.82352941,,,,,,,,,,0.669,1,,,,,,,,,,,,,,,0,0.361111111,-0.291666667,1,0,0,0.669,button_right_main,0.361111111,-0.291666667,1,0,0,,0,118,118,35,1,PEACH,HB,old,m,./images/PEACHHB.png,,,,,,,,,,,,,,,,,,,,,,,,,,,,,,,,,
,,,,,,,,,,,,,,,,,5e9af4184c5f7818ccf9a43e,46,2022-02-12_16h29.22.412,lexical_decision_task_DD_L3,2021.2.3,iPhone,58.82352941,,,,,,,,,,0.787,0,,,,,,,,,,,,,,,0,-0.388888889,-0.333333333,1,0,0,0.787,button_left_main,-0.388888889,-0.333333333,1,0,0,,0,119,119,50,1,MALLET,HB,old,m,./images/MALLETHB.png,,,,,,,,,,,,,,,,,,,,,,,,,,,,,,,,,
,,,,,,,,,,,,,,,,,5e9af4184c5f7818ccf9a43e,46,2022-02-12_16h29.22.412,lexical_decision_task_DD_L3,2021.2.3,iPhone,58.82352941,,,,,,,,,,0.786,1,,,,,,,,,,,,,,,0,0.375,-0.319444444,1,0,0,0.786,button_right_main,0.375,-0.319444444,1,0,0,,0,120,120,17,1,SKIING,HB,old,m,./images/SKIINGHB.png,,,,,,,,,,,,,,,,,,,,,,,,,,,,,,,,,
,,,,,,,,,,,,,,,,,5e9af4184c5f7818ccf9a43e,46,2022-02-12_16h29.22.412,lexical_decision_task_DD_L3,2021.2.3,iPhone,58.82352941,,,,,,,,,,0.802,1,,,,,,,,,,,,,,,0,-0.384259259,-0.333333333,1,0,0,0.802,button_left_main,-0.384259259,-0.333333333,1,0,0,,0,121,121,131,1,NACES,LB,old,z,./images/NACESLB.png,,,,,,,,,,,,,,,,,,,,,,,,,,,,,,,,,
,,,,,,,,,,,,,,,,,5e9af4184c5f7818ccf9a43e,46,2022-02-12_16h29.22.412,lexical_decision_task_DD_L3,2021.2.3,iPhone,58.82352941,,,,,,,,,,0.819,1,,,,,,,,,,,,,,,0,-0.356481481,-0.328703704,1,0,0,0.819,button_left_main,-0.356481481,-0.328703704,1,0,0,,0,122,122,164,1,SGREW,LB,old,z,./images/SGREWLB.png,,,,,,,,,,,,,,,,,,,,,,,,,,,,,,,,,
,,,,,,,,,,,,,,,,,5e9af4184c5f7818ccf9a43e,46,2022-02-12_16h29.22.412,lexical_decision_task_DD_L3,2021.2.3,iPhone,58.82352941,,,,,,,,,,0.702,1,,,,,,,,,,,,,,,0,0.384259259,-0.333333333,1,0,0,0.702,button_right_main,0.384259259,-0.333333333,1,0,0,,0,123,123,30,1,STORM,LB,old,m,./images/STORMLB.png,,,,,,,,,,,,,,,,,,,,,,,,,,,,,,,,,
,,,,,,,,,,,,,,,,,5e9af4184c5f7818ccf9a43e,46,2022-02-12_16h29.22.412,lexical_decision_task_DD_L3,2021.2.3,iPhone,58.82352941,,,,,,,,,,0.753,1,,,,,,,,,,,,,,,0,-0.310185185,-0.324074074,1,0,0,0.753,button_left_main,-0.310185185,-0.324074074,1,0,0,,0,124,124,96,1,KEAMS,C,old,z,./images/KEAMS.png,,,,,,,,,,,,,,,,,,,,,,,,,,,,,,,,,
,,,,,,,,,,,,,,,,,5e9af4184c5f7818ccf9a43e,46,2022-02-12_16h29.22.412,lexical_decision_task_DD_L3,2021.2.3,iPhone,58.82352941,,,,,,,,,,0.937,1,,,,,,,,,,,,,,,0,-0.388888889,-0.310185185,1,0,0,0.937,button_left_main,0.055555556,-0.388888889,1,0,0,,0,125,125,108,1,GRUET,C,old,z,./images/GRUET.png,break_done_button,,,,,,,,,,,,,,,,,,,,,,,,,,,,,,,,
,,,,,,,,,,,,,,,,,5e9af4184c5f7818ccf9a43e,46,2022-02-12_16h29.22.412,lexical_decision_task_DD_L3,2021.2.3,iPhone,58.82352941,,,,,,,,,,0.855,1,,,,,,,,,,,,,,,0,0.384259259,-0.333333333,1,0,0,0.855,button_right_main,0.384259259,-0.333333333,1,0,0,,0,126,126,29,1,CRUMB,HB,old,m,./images/CRUMBHB.png,,,,,,,,,,,,,,,,,,,,,,,,,,,,,,,,,
,,,,,,,,,,,,,,,,,5e9af4184c5f7818ccf9a43e,46,2022-02-12_16h29.22.412,lexical_decision_task_DD_L3,2021.2.3,iPhone,58.82352941,,,,,,,,,,0.568,1,,,,,,,,,,,,,,,0,0.375,-0.365740741,1,0,0,0.568,button_right_main,0.375,-0.365740741,1,0,0,,0,127,127,57,1,MOOSE,LB,old,m,./images/MOOSELB.png,,,,,,,,,,,,,,,,,,,,,,,,,,,,,,,,,
,,,,,,,,,,,,,,,,,5e9af4184c5f7818ccf9a43e,46,2022-02-12_16h29.22.412,lexical_decision_task_DD_L3,2021.2.3,iPhone,58.82352941,,,,,,,,,,0.62,1,,,,,,,,,,,,,,,0,0.361111111,-0.356481481,1,0,0,0.62,button_right_main,0.361111111,-0.356481481,1,0,0,,0,128,128,81,1,POODLE,LB,old,m,./images/POODLELB.png,,,,,,,,,,,,,,,,,,,,,,,,,,,,,,,,,
,,,,,,,,,,,,,,,,,5e9af4184c5f7818ccf9a43e,46,2022-02-12_16h29.22.412,lexical_decision_task_DD_L3,2021.2.3,iPhone,58.82352941,,,,,,,,,,1.206,1,,,,,,,,,,,,,,,0,-0.337962963,-0.324074074,1,0,0,1.206,button_left_main,-0.337962963,-0.324074074,1,0,0,,0,129,129,115,1,MAWNS,HB,old,z,./images/MAWNSHB.png,,,,,,,,,,,,,,,,,,,,,,,,,,,,,,,,,
,,,,,,,,,,,,,,,,,5e9af4184c5f7818ccf9a43e,46,2022-02-12_16h29.22.412,lexical_decision_task_DD_L3,2021.2.3,iPhone,58.82352941,,,,,,,,,,0.552,1,,,,,,,,,,,,,,,0,0.37962963,-0.314814815,1,0,0,0.552,button_right_main,0.37962963,-0.314814815,1,0,0,,0,130,130,27,1,ATTIC,LB,old,m,./images/ATTICLB.png,,,,,,,,,,,,,,,,,,,,,,,,,,,,,,,,,
,,,,,,,,,,,,,,,,,5e9af4184c5f7818ccf9a43e,46,2022-02-12_16h29.22.412,lexical_decision_task_DD_L3,2021.2.3,iPhone,58.82352941,,,,,,,,,,0.906,1,,,,,,,,,,,,,,,0,-0.347222222,-0.296296296,1,0,0,0.906,button_left_main,-0.347222222,-0.296296296,1,0,0,,0,131,131,134,1,TROSS,LB,old,z,./images/TROSSLB.png,,,,,,,,,,,,,,,,,,,,,,,,,,,,,,,,,
,,,,,,,,,,,,,,,,,5e9af4184c5f7818ccf9a43e,46,2022-02-12_16h29.22.412,lexical_decision_task_DD_L3,2021.2.3,iPhone,58.82352941,,,,,,,,,,0.92,1,,,,,,,,,,,,,,,0,-0.356481481,-0.319444444,1,0,0,0.92,button_left_main,-0.356481481,-0.319444444,1,0,0,,0,132,132,98,1,BAMPS,LB,old,z,./images/BAMPSLB.png,,,,,,,,,,,,,,,,,,,,,,,,,,,,,,,,,
,,,,,,,,,,,,,,,,,5e9af4184c5f7818ccf9a43e,46,2022-02-12_16h29.22.412,lexical_decision_task_DD_L3,2021.2.3,iPhone,58.82352941,,,,,,,,,,0.618,1,,,,,,,,,,,,,,,0,0.347222222,-0.300925926,1,0,0,0.618,button_right_main,0.347222222,-0.300925926,1,0,0,,0,133,133,13,1,MOTOR,C,old,m,./images/MOTOR.png,,,,,,,,,,,,,,,,,,,,,,,,,,,,,,,,,
,,,,,,,,,,,,,,,,,5e9af4184c5f7818ccf9a43e,46,2022-02-12_16h29.22.412,lexical_decision_task_DD_L3,2021.2.3,iPhone,58.82352941,,,,,,,,,,0.768,1,,,,,,,,,,,,,,,0,-0.324074074,-0.282407407,1,0,0,0.768,button_left_main,-0.324074074,-0.282407407,1,0,0,,0,134,134,102,1,DULLE,C,old,z,./images/DULLE.png,,,,,,,,,,,,,,,,,,,,,,,,,,,,,,,,,
,,,,,,,,,,,,,,,,,5e9af4184c5f7818ccf9a43e,46,2022-02-12_16h29.22.412,lexical_decision_task_DD_L3,2021.2.3,iPhone,58.82352941,,,,,,,,,,0.869,1,,,,,,,,,,,,,,,0,-0.319444444,-0.287037037,1,0,0,0.869,button_left_main,-0.319444444,-0.287037037,1,0,0,,0,135,135,153,1,CLUPS,C,old,z,./images/CLUPS.png,,,,,,,,,,,,,,,,,,,,,,,,,,,,,,,,,
,,,,,,,,,,,,,,,,,5e9af4184c5f7818ccf9a43e,46,2022-02-12_16h29.22.412,lexical_decision_task_DD_L3,2021.2.3,iPhone,58.82352941,,,,,,,,,,0.87,1,,,,,,,,,,,,,,,0,0.37962963,-0.305555556,1,0,0,0.87,button_right_main,0.37962963,-0.305555556,1,0,0,,0,136,136,80,1,WEASEL,HB,old,m,./images/WEASELHB.png,,,,,,,,,,,,,,,,,,,,,,,,,,,,,,,,,
,,,,,,,,,,,,,,,,,5e9af4184c5f7818ccf9a43e,46,2022-02-12_16h29.22.412,lexical_decision_task_DD_L3,2021.2.3,iPhone,58.82352941,,,,,,,,,,0.797,1,,,,,,,,,,,,,,,0,-0.324074074,-0.319444444,1,0,0,0.797,button_left_main,-0.324074074,-0.319444444,1,0,0,,0,137,137,149,1,VEASE,LB,old,z,./images/VEASELB.png,,,,,,,,,,,,,,,,,,,,,,,,,,,,,,,,,
,,,,,,,,,,,,,,,,,5e9af4184c5f7818ccf9a43e,46,2022-02-12_16h29.22.412,lexical_decision_task_DD_L3,2021.2.3,iPhone,58.82352941,,,,,,,,,,0.837,1,,,,,,,,,,,,,,,0,-0.333333333,-0.310185185,1,0,0,0.837,button_left_main,-0.333333333,-0.310185185,1,0,0,,0,138,138,93,1,SMONE,C,old,z,./images/SMONE.png,,,,,,,,,,,,,,,,,,,,,,,,,,,,,,,,,
,,,,,,,,,,,,,,,,,5e9af4184c5f7818ccf9a43e,46,2022-02-12_16h29.22.412,lexical_decision_task_DD_L3,2021.2.3,iPhone,58.82352941,,,,,,,,,,0.838,1,,,,,,,,,,,,,,,0,0.37962963,-0.314814815,1,0,0,0.838,button_right_main,0.37962963,-0.314814815,1,0,0,,0,139,139,16,1,PENCE,C,old,m,./images/PENCE.png,,,,,,,,,,,,,,,,,,,,,,,,,,,,,,,,,
,,,,,,,,,,,,,,,,,5e9af4184c5f7818ccf9a43e,46,2022-02-12_16h29.22.412,lexical_decision_task_DD_L3,2021.2.3,iPhone,58.82352941,,,,,,,,,,0.87,1,,,,,,,,,,,,,,,0,0.337962963,-0.337962963,1,0,0,0.87,button_right_main,0.337962963,-0.337962963,1,0,0,,0,140,140,47,1,BERRY,HB,old,m,./images/BERRYHB.png,,,,,,,,,,,,,,,,,,,,,,,,,,,,,,,,,
,,,,,,,,,,,,,,,,,5e9af4184c5f7818ccf9a43e,46,2022-02-12_16h29.22.412,lexical_decision_task_DD_L3,2021.2.3,iPhone,58.82352941,,,,,,,,,,1.323,1,,,,,,,,,,,,,,,0,-0.351851852,-0.337962963,1,0,0,1.323,button_left_main,-0.351851852,-0.337962963,1,0,0,,0,141,141,139,1,BLEAR,HB,old,z,./images/BLEARHB.png,,,,,,,,,,,,,,,,,,,,,,,,,,,,,,,,,
,,,,,,,,,,,,,,,,,5e9af4184c5f7818ccf9a43e,46,2022-02-12_16h29.22.412,lexical_decision_task_DD_L3,2021.2.3,iPhone,58.82352941,,,,,,,,,,0.653,1,,,,,,,,,,,,,,,0,0.398148148,-0.324074074,1,0,0,0.653,button_right_main,0.398148148,-0.324074074,1,0,0,,0,142,142,24,1,SCREW,LB,old,m,./images/SCREWLB.png,,,,,,,,,,,,,,,,,,,,,,,,,,,,,,,,,
,,,,,,,,,,,,,,,,,5e9af4184c5f7818ccf9a43e,46,2022-02-12_16h29.22.412,lexical_decision_task_DD_L3,2021.2.3,iPhone,58.82352941,,,,,,,,,,0.754,1,,,,,,,,,,,,,,,0,0.37962963,-0.324074074,1,0,0,0.754,button_right_main,0.37962963,-0.324074074,1,0,0,,0,143,143,49,1,DRUMS,C,old,m,./images/DRUMS.png,,,,,,,,,,,,,,,,,,,,,,,,,,,,,,,,,
,,,,,,,,,,,,,,,,,5e9af4184c5f7818ccf9a43e,46,2022-02-12_16h29.22.412,lexical_decision_task_DD_L3,2021.2.3,iPhone,58.82352941,,,,,,,,,,1.337,1,,,,,,,,,,,,,,,0,-0.365740741,-0.328703704,1,0,0,1.337,button_left_main,-0.365740741,-0.328703704,1,0,0,,0,144,144,127,1,NINDY,HB,old,z,./images/NINDYHB.png,,,,,,,,,,,,,,,,,,,,,,,,,,,,,,,,,
,,,,,,,,,,,,,,,,,5e9af4184c5f7818ccf9a43e,46,2022-02-12_16h29.22.412,lexical_decision_task_DD_L3,2021.2.3,iPhone,58.82352941,,,,,,,,,,0.618,1,,,,,,,,,,,,,,,0,0.37962963,-0.333333333,1,0,0,0.618,button_right_main,0.37962963,-0.333333333,1,0,0,,0,145,145,34,1,CANYON,C,old,m,./images/CANYON.png,,,,,,,,,,,,,,,,,,,,,,,,,,,,,,,,,
,,,,,,,,,,,,,,,,,5e9af4184c5f7818ccf9a43e,46,2022-02-12_16h29.22.412,lexical_decision_task_DD_L3,2021.2.3,iPhone,58.82352941,,,,,,,,,,1.238,1,,,,,,,,,,,,,,,0,-0.351851852,-0.333333333,1,0,0,1.238,button_left_main,-0.351851852,-0.333333333,1,0,0,,0,146,146,97,1,CHIDS,HB,old,z,./images/CHIDSHB.png,,,,,,,,,,,,,,,,,,,,,,,,,,,,,,,,,
,,,,,,,,,,,,,,,,,5e9af4184c5f7818ccf9a43e,46,2022-02-12_16h29.22.412,lexical_decision_task_DD_L3,2021.2.3,iPhone,58.82352941,,,,,,,,,,0.885,1,,,,,,,,,,,,,,,0,-0.342592593,-0.324074074,1,0,0,0.885,button_left_main,-0.342592593,-0.324074074,1,0,0,,0,147,147,138,1,PLICE,C,old,z,./images/PLICE.png,,,,,,,,,,,,,,,,,,,,,,,,,,,,,,,,,
,,,,,,,,,,,,,,,,,5e9af4184c5f7818ccf9a43e,46,2022-02-12_16h29.22.412,lexical_decision_task_DD_L3,2021.2.3,iPhone,58.82352941,,,,,,,,,,0.886,1,,,,,,,,,,,,,,,0,0.37037037,-0.324074074,1,0,0,0.886,button_right_main,0.37037037,-0.324074074,1,0,0,,0,148,148,62,1,PURSE,HB,old,m,./images/PURSEHB.png,,,,,,,,,,,,,,,,,,,,,,,,,,,,,,,,,
,,,,,,,,,,,,,,,,,5e9af4184c5f7818ccf9a43e,46,2022-02-12_16h29.22.412,lexical_decision_task_DD_L3,2021.2.3,iPhone,58.82352941,,,,,,,,,,0.904,1,,,,,,,,,,,,,,,0,0.37962963,-0.337962963,1,0,0,0.904,button_right_main,0.37962963,-0.337962963,1,0,0,,0,149,149,58,1,BABOON,C,old,m,./images/BABOON.png,,,,,,,,,,,,,,,,,,,,,,,,,,,,,,,,,
,,,,,,,,,,,,,,,,,5e9af4184c5f7818ccf9a43e,46,2022-02-12_16h29.22.412,lexical_decision_task_DD_L3,2021.2.3,iPhone,58.82352941,,,,,,,,,,0.889,1,,,,,,,,,,,,,,,0,-0.342592593,-0.347222222,1,0,0,0.889,button_left_main,-0.342592593,-0.347222222,1,0,0,,0,150,150,105,1,MOKER,C,old,z,./images/MOKER.png,,,,,,,,,,,,,,,,,,,,,,,,,,,,,,,,,
,,,,,,,,,,,,,,,,,5e9af4184c5f7818ccf9a43e,46,2022-02-12_16h29.22.412,lexical_decision_task_DD_L3,2021.2.3,iPhone,58.82352941,,,,,,,,,,1.59,1,,,,,,,,,,,,,,,0,-0.37962963,-0.305555556,1,0,0,1.59,button_left_main,-0.37962963,-0.305555556,1,0,0,,0,151,151,85,1,CHULK,HB,old,z,./images/CHULKHB.png,,,,,,,,,,,,,,,,,,,,,,,,,,,,,,,,,
,,,,,,,,,,,,,,,,,5e9af4184c5f7818ccf9a43e,46,2022-02-12_16h29.22.412,lexical_decision_task_DD_L3,2021.2.3,iPhone,58.82352941,,,,,,,,,,0.855,1,,,,,,,,,,,,,,,0,-0.356481481,-0.319444444,1,0,0,0.855,button_left_main,-0.356481481,-0.319444444,1,0,0,,0,152,152,89,1,DRIEK,LB,old,z,./images/DRIEKLB.png,,,,,,,,,,,,,,,,,,,,,,,,,,,,,,,,,
,,,,,,,,,,,,,,,,,5e9af4184c5f7818ccf9a43e,46,2022-02-12_16h29.22.412,lexical_decision_task_DD_L3,2021.2.3,iPhone,58.82352941,,,,,,,,,,4.015,1,,,,,,,,,,,,,,,0,-0.356481481,-0.314814815,1,0,0,4.015,button_left_main,-0.356481481,-0.314814815,1,0,0,,0,153,153,106,1,CLUMS,HB,old,z,./images/CLUMSHB.png,,,,,,,,,,,,,,,,,,,,,,,,,,,,,,,,,
,,,,,,,,,,,,,,,,,5e9af4184c5f7818ccf9a43e,46,2022-02-12_16h29.22.412,lexical_decision_task_DD_L3,2021.2.3,iPhone,58.82352941,,,,,,,,,,0.921,1,,,,,,,,,,,,,,,0,-0.375,-0.319444444,1,0,0,0.921,button_left_main,-0.375,-0.319444444,1,0,0,,0,154,154,167,1,ZONET,LB,old,z,./images/ZONETLB.png,,,,,,,,,,,,,,,,,,,,,,,,,,,,,,,,,
,,,,,,,,,,,,,,,,,5e9af4184c5f7818ccf9a43e,46,2022-02-12_16h29.22.412,lexical_decision_task_DD_L3,2021.2.3,iPhone,58.82352941,,,,,,,,,,0.82,1,,,,,,,,,,,,,,,0,0.342592593,-0.300925926,1,0,0,0.82,button_right_main,0.342592593,-0.300925926,1,0,0,,0,155,155,1,1,PLANK,C,old,m,./images/PLANK.png,,,,,,,,,,,,,,,,,,,,,,,,,,,,,,,,,
,,,,,,,,,,,,,,,,,5e9af4184c5f7818ccf9a43e,46,2022-02-12_16h29.22.412,lexical_decision_task_DD_L3,2021.2.3,iPhone,58.82352941,,,,,,,,,,1.055,1,,,,,,,,,,,,,,,0,0.351851852,-0.291666667,1,0,0,1.055,button_right_main,0.351851852,-0.291666667,1,0,0,,0,156,156,32,1,BARREL,HB,old,m,./images/BARRELHB.png,,,,,,,,,,,,,,,,,,,,,,,,,,,,,,,,,
,,,,,,,,,,,,,,,,,5e9af4184c5f7818ccf9a43e,46,2022-02-12_16h29.22.412,lexical_decision_task_DD_L3,2021.2.3,iPhone,58.82352941,,,,,,,,,,0.686,1,,,,,,,,,,,,,,,0,0.347222222,-0.347222222,1,0,0,0.686,button_right_main,0.347222222,-0.347222222,1,0,0,,0,157,157,73,1,SNACK,C,old,m,./images/SNACK.png,,,,,,,,,,,,,,,,,,,,,,,,,,,,,,,,,
,,,,,,,,,,,,,,,,,5e9af4184c5f7818ccf9a43e,46,2022-02-12_16h29.22.412,lexical_decision_task_DD_L3,2021.2.3,iPhone,58.82352941,,,,,,,,,,1.353,1,,,,,,,,,,,,,,,0,0.347222222,-0.300925926,1,0,0,1.353,button_right_main,0.347222222,-0.300925926,1,0,0,,0,158,158,59,1,BURIAL,HB,old,m,./images/BURIALHB.png,,,,,,,,,,,,,,,,,,,,,,,,,,,,,,,,,
,,,,,,,,,,,,,,,,,5e9af4184c5f7818ccf9a43e,46,2022-02-12_16h29.22.412,lexical_decision_task_DD_L3,2021.2.3,iPhone,58.82352941,,,,,,,,,,0.85,1,,,,,,,,,,,,,,,0,0.324074074,-0.351851852,1,0,0,0.85,button_right_main,0.324074074,-0.351851852,1,0,0,,0,159,159,11,1,BONNET,HB,old,m,./images/BONNETHB.png,,,,,,,,,,,,,,,,,,,,,,,,,,,,,,,,,
,,,,,,,,,,,,,,,,,5e9af4184c5f7818ccf9a43e,46,2022-02-12_16h29.22.412,lexical_decision_task_DD_L3,2021.2.3,iPhone,58.82352941,,,,,,,,,,0.886,1,,,,,,,,,,,,,,,0,-0.361111111,-0.328703704,1,0,0,0.886,button_left_main,-0.361111111,-0.328703704,1,0,0,,0,160,160,163,1,GAMBA,HB,old,z,./images/GAMBAHB.png,,,,,,,,,,,,,,,,,,,,,,,,,,,,,,,,,
,,,,,,,,,,,,,,,,,5e9af4184c5f7818ccf9a43e,46,2022-02-12_16h29.22.412,lexical_decision_task_DD_L3,2021.2.3,iPhone,58.82352941,,,,,,,,,,0.82,1,,,,,,,,,,,,,,,0,-0.342592593,-0.324074074,1,0,0,0.82,button_left_main,-0.342592593,-0.324074074,1,0,0,,0,161,161,144,1,NAIRY,C,old,z,./images/NAIRY.png,,,,,,,,,,,,,,,,,,,,,,,,,,,,,,,,,
,,,,,,,,,,,,,,,,,5e9af4184c5f7818ccf9a43e,46,2022-02-12_16h29.22.412,lexical_decision_task_DD_L3,2021.2.3,iPhone,58.82352941,,,,,,,,,,0.586,1,,,,,,,,,,,,,,,0,0.361111111,-0.319444444,1,0,0,0.586,button_right_main,0.361111111,-0.319444444,1,0,0,,0,162,162,12,1,SHORE,LB,old,m,./images/SHORELB.png,,,,,,,,,,,,,,,,,,,,,,,,,,,,,,,,,
,,,,,,,,,,,,,,,,,5e9af4184c5f7818ccf9a43e,46,2022-02-12_16h29.22.412,lexical_decision_task_DD_L3,2021.2.3,iPhone,58.82352941,,,,,,,,,,0.653,1,,,,,,,,,,,,,,,0,0.365740741,-0.361111111,1,0,0,0.653,button_right_main,0.365740741,-0.361111111,1,0,0,,0,163,163,69,1,COOKER,LB,old,m,./images/COOKERLB.png,,,,,,,,,,,,,,,,,,,,,,,,,,,,,,,,,
,,,,,,,,,,,,,,,,,5e9af4184c5f7818ccf9a43e,46,2022-02-12_16h29.22.412,lexical_decision_task_DD_L3,2021.2.3,iPhone,58.82352941,,,,,,,,,,0.87,1,,,,,,,,,,,,,,,0,-0.361111111,-0.342592593,1,0,0,0.87,button_left_main,-0.361111111,-0.342592593,1,0,0,,0,164,164,135,1,JOODY,C,old,z,./images/JOODY.png,,,,,,,,,,,,,,,,,,,,,,,,,,,,,,,,,
,,,,,,,,,,,,,,,,,5e9af4184c5f7818ccf9a43e,46,2022-02-12_16h29.22.412,lexical_decision_task_DD_L3,2021.2.3,iPhone,58.82352941,,,,,,,,,,1.039,1,,,,,,,,,,,,,,,0,0.365740741,-0.268518519,1,0,0,1.039,button_right_main,0.365740741,-0.268518519,1,0,0,,0,165,165,70,1,URINE,C,old,m,./images/URINE.png,,,,,,,,,,,,,,,,,,,,,,,,,,,,,,,,,
,,,,,,,,,,,,,,,,,5e9af4184c5f7818ccf9a43e,46,2022-02-12_16h29.22.412,lexical_decision_task_DD_L3,2021.2.3,iPhone,58.82352941,,,,,,,,,,0.871,1,,,,,,,,,,,,,,,0,-0.356481481,-0.305555556,1,0,0,0.871,button_left_main,-0.356481481,-0.305555556,1,0,0,,0,166,166,155,1,CANGY,LB,old,z,./images/CANGYLB.png,,,,,,,,,,,,,,,,,,,,,,,,,,,,,,,,,
,,,,,,,,,,,,,,,,,5e9af4184c5f7818ccf9a43e,46,2022-02-12_16h29.22.412,lexical_decision_task_DD_L3,2021.2.3,iPhone,58.82352941,,,,,,,,,,1.806,1,,,,,,,,,,,,,,,0,0.398148148,-0.310185185,1,0,0,1.806,button_right_main,0.398148148,-0.310185185,1,0,0,,0,167,167,67,1,SAILOR,C,old,m,./images/SAILOR.png,,,,,,,,,,,,,,,,,,,,,,,,,,,,,,,,,
,,,,,,,,,,,,,,,,,5e9af4184c5f7818ccf9a43e,46,2022-02-12_16h29.22.412,lexical_decision_task_DD_L3,2021.2.3,iPhone,58.82352941,,,,,,,,,,,,,,,,,,,,,,,,,,,,,,,,,,,,,,,,,,,,,,How likely will it be that you will recognize the words presented very blurred on a scale of 0 (not likely) to 100 (most likely)?,,,,,0.00462963,-0.425925926,1,0,0,jol_adv,4,7.908,0,0,0,2,1,,,,,,,,,,,,,,,,,,,
,,,,,,,,,,,,,,,,,5e9af4184c5f7818ccf9a43e,46,2022-02-12_16h29.22.412,lexical_decision_task_DD_L3,2021.2.3,iPhone,58.82352941,,,,,,,,,,,,,,,,,,,,,,,,,,,,,,,,,,,,,,,,,,,,,,How likely will it be that you will recognize the words presented clearly on a scale of 0 (not likely) to 100 (most likely)?,,,,,,,,,,,5,7.935,0,1,1,0,1,,,,,,,,,,,,,,,,,,,
,,,,,,,,,,,,,,,,,5e9af4184c5f7818ccf9a43e,46,2022-02-12_16h29.22.412,lexical_decision_task_DD_L3,2021.2.3,iPhone,58.82352941,,,,,,,,,,,,,,,,,,,,,,,,,,,,,,,,,,,,,,,,,,,,,,How likely will it be that you will recognize the words presented slighly blurred on a scale of 0 (not likely) to 100 (most likely)?,,,,,,,,,,,5,6.963,0,2,2,1,1,,,,,,,,,,,,,,,,,,,
,0.018518519,-0.388888889,1,0,0,instr_done_button,,,,,,1,test,"In the next phase you will be presented with the words from the the first phase. Your job is to decide whether you remember seeing the word or not. If you remember seeing the word press ""old"" or type ""m"". If you do not remember seeing the word press ""new"" or type ""z"". Please press the space bar or click on continue to begin. ",,,5e9af4184c5f7818ccf9a43e,46,2022-02-12_16h29.22.412,lexical_decision_task_DD_L3,2021.2.3,iPhone,58.82352941,,,,,,,,,,,,,,,,,,,,,,,,,,,,,,,,,,,,,,,,,,,,,,,,,,,,,,,,,,,,,,,,0,0,0,0,1,,,,,,,,,,,,,,
,0.018518519,-0.37962963,1,0,0,instr_done_button,,,,,,1,test,"In the next phase you will be presented with the words from the the first phase. Your job is to decide whether you remember seeing the word or not. If you remember seeing the word press ""old"" or type ""m"". If you do not remember seeing the word press ""new"" or type ""z"". Please press the space bar or click on continue to begin. ",,,5e9af4184c5f7818ccf9a43e,46,2022-02-12_16h29.22.412,lexical_decision_task_DD_L3,2021.2.3,iPhone,58.82352941,,,,,,,,,,,,,,,,,,,,,,,,,,,,,,,,,,,,,,,,,,,,,,,,,,,,,,,,,,,,,,,,1,0,1,0,1,,,,,,,,,,,,,,
,-0.00462963,-0.435185185,1,0,0,instr_done_button,,,,,,1,test,"In the next phase you will be presented with the words from the the first phase. Your job is to decide whether you remember seeing the word or not. If you remember seeing the word press ""old"" or type ""m"". If you do not remember seeing the word press ""new"" or type ""z"". Please press the space bar or click on continue to begin. ",,,5e9af4184c5f7818ccf9a43e,46,2022-02-12_16h29.22.412,lexical_decision_task_DD_L3,2021.2.3,iPhone,58.82352941,,,,,,,,,,,,,,,,,,,,,,,,,,,,,,,,,,,,,,,,,,,,,,,,,,,,,,,,,,,,,,,,2,0,2,0,1,,,,,,,,,,,,,,
,0.013888889,-0.412037037,1,0,0,instr_done_button,,,,,,1,test,"In the next phase you will be presented with the words from the the first phase. Your job is to decide whether you remember seeing the word or not. If you remember seeing the word press ""old"" or type ""m"". If you do not remember seeing the word press ""new"" or type ""z"". Please press the space bar or click on continue to begin. ",,,5e9af4184c5f7818ccf9a43e,46,2022-02-12_16h29.22.412,lexical_decision_task_DD_L3,2021.2.3,iPhone,58.82352941,,,,,,,,,,,,,,,,,,,,,,,,,,,,,,,,,,,,,,,,,,,,,,,,,,,,,,,,,,,,,,,,3,0,3,0,1,,,,,,,,,,,,,,
,0.199074074,-0.416666667,1,0,0,instr_done_button,,,,,,1,test,"In the next phase you will be presented with the words from the the first phase. Your job is to decide whether you remember seeing the word or not. If you remember seeing the word press ""old"" or type ""m"". If you do not remember seeing the word press ""new"" or type ""z"". Please press the space bar or click on continue to begin. ",,,5e9af4184c5f7818ccf9a43e,46,2022-02-12_16h29.22.412,lexical_decision_task_DD_L3,2021.2.3,iPhone,58.82352941,,,,,,,,,,,,,,,,,,,,,,,,,,,,,,,,,,,,,,,,,,,,,,,,,,,,,,,,,,,,,,,,4,0,4,0,1,,,,,,,,,,,,,,
,,,,,,,,,,,,,,,,,5e9af4184c5f7818ccf9a43e,46,2022-02-12_16h29.22.412,lexical_decision_task_DD_L3,2021.2.3,iPhone,58.82352941,,,,,,,,,,1.032,0,,,,,,,,,,,,,,,,,,,,,,,-0.314814815,-0.314814815,1,0,0,,,,,,,MOOSE,LB,m,m,./images/MOOSELB.png,,,,,,,,,,,,,,,,,,,,,0,-0.064814815,-0.564814815,1,0,0,1.032,button_left_test,0,0,0,57,1
,,,,,,,,,,,,,,,,,5e9af4184c5f7818ccf9a43e,46,2022-02-12_16h29.22.412,lexical_decision_task_DD_L3,2021.2.3,iPhone,58.82352941,,,,,,,,,,2.827,1,,,,,,,,,,,,,,,,,,,,,,,0.375,-0.314814815,1,0,0,,,,,,,LITTER,LB,m,m,./images/LITTERLB.png,,,,,,,,,,,,,,,,,,,,,0,0.375,-0.314814815,1,0,0,2.827,button_right_test,0,1,1,78,1
,,,,,,,,,,,,,,,,,5e9af4184c5f7818ccf9a43e,46,2022-02-12_16h29.22.412,lexical_decision_task_DD_L3,2021.2.3,iPhone,58.82352941,,,,,,,,,,3.044,1,,,,,,,,,,,,,,,,,,,,,,,-0.324074074,-0.337962963,1,0,0,,,,,,,SHIELD,LB,z,m,./images/SHIELDLB.png,,,,,,,,,,,,,,,,,,,,,0,-0.324074074,-0.337962963,1,0,0,3.044,button_left_test,0,2,2,132,1
,,,,,,,,,,,,,,,,,5e9af4184c5f7818ccf9a43e,46,2022-02-12_16h29.22.412,lexical_decision_task_DD_L3,2021.2.3,iPhone,58.82352941,,,,,,,,,,1.171,1,,,,,,,,,,,,,,,,,,,,,,,0.361111111,-0.361111111,1,0,0,,,,,,,CEMENT,HB,m,m,./images/CEMENTHB.png,,,,,,,,,,,,,,,,,,,,,0,0.361111111,-0.361111111,1,0,0,1.171,button_right_test,0,3,3,74,1
,,,,,,,,,,,,,,,,,5e9af4184c5f7818ccf9a43e,46,2022-02-12_16h29.22.412,lexical_decision_task_DD_L3,2021.2.3,iPhone,58.82352941,,,,,,,,,,0.938,1,,,,,,,,,,,,,,,,,,,,,,,0.314814815,-0.375,1,0,0,,,,,,,SHELF,LB,m,m,./images/SHELFLB.png,,,,,,,,,,,,,,,,,,,,,0,0.314814815,-0.375,1,0,0,0.938,button_right_test,0,4,4,39,1
,,,,,,,,,,,,,,,,,5e9af4184c5f7818ccf9a43e,46,2022-02-12_16h29.22.412,lexical_decision_task_DD_L3,2021.2.3,iPhone,58.82352941,,,,,,,,,,0.936,1,,,,,,,,,,,,,,,,,,,,,,,-0.287037037,-0.324074074,1,0,0,,,,,,,VALLEY,HB,z,m,./images/VALLEYHB.png,,,,,,,,,,,,,,,,,,,,,0,-0.287037037,-0.324074074,1,0,0,0.936,button_left_test,0,5,5,152,1
,,,,,,,,,,,,,,,,,5e9af4184c5f7818ccf9a43e,46,2022-02-12_16h29.22.412,lexical_decision_task_DD_L3,2021.2.3,iPhone,58.82352941,,,,,,,,,,0.82,1,,,,,,,,,,,,,,,,,,,,,,,-0.300925926,-0.375,1,0,0,,,,,,,FLASK,LB,z,m,./images/FLASKLB.png,,,,,,,,,,,,,,,,,,,,,0,-0.300925926,-0.375,1,0,0,0.82,button_left_test,0,6,6,156,1
,,,,,,,,,,,,,,,,,5e9af4184c5f7818ccf9a43e,46,2022-02-12_16h29.22.412,lexical_decision_task_DD_L3,2021.2.3,iPhone,58.82352941,,,,,,,,,,1.638,1,,,,,,,,,,,,,,,,,,,,,,,0.300925926,-0.310185185,1,0,0,,,,,,,GRAIN,LB,m,m,./images/GRAINLB.png,,,,,,,,,,,,,,,,,,,,,0,0.300925926,-0.310185185,1,0,0,1.638,button_right_test,0,7,7,75,1
,,,,,,,,,,,,,,,,,5e9af4184c5f7818ccf9a43e,46,2022-02-12_16h29.22.412,lexical_decision_task_DD_L3,2021.2.3,iPhone,58.82352941,,,,,,,,,,1.27,1,,,,,,,,,,,,,,,,,,,,,,,0.365740741,-0.287037037,1,0,0,,,,,,,TRIPOD,LB,m,m,./images/TRIPODLB.png,,,,,,,,,,,,,,,,,,,,,0,0.365740741,-0.287037037,1,0,0,1.27,button_right_test,0,8,8,54,1
,,,,,,,,,,,,,,,,,5e9af4184c5f7818ccf9a43e,46,2022-02-12_16h29.22.412,lexical_decision_task_DD_L3,2021.2.3,iPhone,58.82352941,,,,,,,,,,1.019,0,,,,,,,,,,,,,,,,,,,,,,,0.305555556,-0.300925926,1,0,0,,,,,,,BRUSH,HB,z,m,./images/BRUSHHB.png,,,,,,,,,,,,,,,,,,,,,0,0.305555556,-0.300925926,1,0,0,1.019,button_right_test,0,9,9,143,1
,,,,,,,,,,,,,,,,,5e9af4184c5f7818ccf9a43e,46,2022-02-12_16h29.22.412,lexical_decision_task_DD_L3,2021.2.3,iPhone,58.82352941,,,,,,,,,,1.17,1,,,,,,,,,,,,,,,,,,,,,,,0.296296296,-0.296296296,1,0,0,,,,,,,SAILOR,C,m,m,./images/SAILOR.png,,,,,,,,,,,,,,,,,,,,,0,0.296296296,-0.296296296,1,0,0,1.17,button_right_test,0,10,10,67,1
,,,,,,,,,,,,,,,,,5e9af4184c5f7818ccf9a43e,46,2022-02-12_16h29.22.412,lexical_decision_task_DD_L3,2021.2.3,iPhone,58.82352941,,,,,,,,,,1.37,1,,,,,,,,,,,,,,,,,,,,,,,-0.259259259,-0.324074074,1,0,0,,,,,,,BAKER,LB,z,m,./images/BAKERLB.png,,,,,,,,,,,,,,,,,,,,,0,-0.259259259,-0.324074074,1,0,0,1.37,button_left_test,0,11,11,147,1
,,,,,,,,,,,,,,,,,5e9af4184c5f7818ccf9a43e,46,2022-02-12_16h29.22.412,lexical_decision_task_DD_L3,2021.2.3,iPhone,58.82352941,,,,,,,,,,1.018,1,,,,,,,,,,,,,,,,,,,,,,,-0.324074074,-0.361111111,1,0,0,,,,,,,MEDAL,HB,z,m,./images/MEDALHB.png,,,,,,,,,,,,,,,,,,,,,0,-0.324074074,-0.361111111,1,0,0,1.018,button_left_test,0,12,12,95,1
,,,,,,,,,,,,,,,,,5e9af4184c5f7818ccf9a43e,46,2022-02-12_16h29.22.412,lexical_decision_task_DD_L3,2021.2.3,iPhone,58.82352941,,,,,,,,,,0.87,1,,,,,,,,,,,,,,,,,,,,,,,0.398148148,-0.333333333,1,0,0,,,,,,,MALLET,HB,m,m,./images/MALLETHB.png,,,,,,,,,,,,,,,,,,,,,0,0.398148148,-0.333333333,1,0,0,0.87,button_right_test,0,13,13,50,1
,,,,,,,,,,,,,,,,,5e9af4184c5f7818ccf9a43e,46,2022-02-12_16h29.22.412,lexical_decision_task_DD_L3,2021.2.3,iPhone,58.82352941,,,,,,,,,,0.937,0,,,,,,,,,,,,,,,,,,,,,,,0.319444444,-0.300925926,1,0,0,,,,,,,CLOTH,HB,z,m,./images/CLOTHHB.png,,,,,,,,,,,,,,,,,,,,,0,0.319444444,-0.300925926,1,0,0,0.937,button_right_test,0,14,14,107,1
,,,,,,,,,,,,,,,,,5e9af4184c5f7818ccf9a43e,46,2022-02-12_16h29.22.412,lexical_decision_task_DD_L3,2021.2.3,iPhone,58.82352941,,,,,,,,,,0.703,1,,,,,,,,,,,,,,,,,,,,,,,0.324074074,-0.333333333,1,0,0,,,,,,,BERRY,HB,m,m,./images/BERRYHB.png,,,,,,,,,,,,,,,,,,,,,0,0.324074074,-0.333333333,1,0,0,0.703,button_right_test,0,15,15,47,1
,,,,,,,,,,,,,,,,,5e9af4184c5f7818ccf9a43e,46,2022-02-12_16h29.22.412,lexical_decision_task_DD_L3,2021.2.3,iPhone,58.82352941,,,,,,,,,,1.022,1,,,,,,,,,,,,,,,,,,,,,,,0.324074074,-0.305555556,1,0,0,,,,,,,PASTA,HB,m,m,./images/PASTAHB.png,,,,,,,,,,,,,,,,,,,,,0,0.324074074,-0.305555556,1,0,0,1.022,button_right_test,0,16,16,5,1
,,,,,,,,,,,,,,,,,5e9af4184c5f7818ccf9a43e,46,2022-02-12_16h29.22.412,lexical_decision_task_DD_L3,2021.2.3,iPhone,58.82352941,,,,,,,,,,0.904,1,,,,,,,,,,,,,,,,,,,,,,,0.319444444,-0.351851852,1,0,0,,,,,,,MAGGOT,LB,m,m,./images/MAGGOTLB.png,,,,,,,,,,,,,,,,,,,,,0,0.319444444,-0.351851852,1,0,0,0.904,button_right_test,0,17,17,33,1
,,,,,,,,,,,,,,,,,5e9af4184c5f7818ccf9a43e,46,2022-02-12_16h29.22.412,lexical_decision_task_DD_L3,2021.2.3,iPhone,58.82352941,,,,,,,,,,1.119,1,,,,,,,,,,,,,,,,,,,,,,,-0.314814815,-0.282407407,1,0,0,,,,,,,RAZOR,C,z,m,./images/RAZOR.png,,,,,,,,,,,,,,,,,,,,,0,-0.314814815,-0.282407407,1,0,0,1.119,button_left_test,0,18,18,118,1
,,,,,,,,,,,,,,,,,5e9af4184c5f7818ccf9a43e,46,2022-02-12_16h29.22.412,lexical_decision_task_DD_L3,2021.2.3,iPhone,58.82352941,,,,,,,,,,1.085,0,,,,,,,,,,,,,,,,,,,,,,,0.337962963,-0.342592593,1,0,0,,,,,,,MAMMAL,HB,z,m,./images/MAMMALHB.png,,,,,,,,,,,,,,,,,,,,,0,0.337962963,-0.342592593,1,0,0,1.085,button_right_test,0,19,19,146,1
,,,,,,,,,,,,,,,,,5e9af4184c5f7818ccf9a43e,46,2022-02-12_16h29.22.412,lexical_decision_task_DD_L3,2021.2.3,iPhone,58.82352941,,,,,,,,,,0.886,0,,,,,,,,,,,,,,,,,,,,,,,0.310185185,-0.351851852,1,0,0,,,,,,,ARROW,LB,z,m,./images/ARROWLB.png,,,,,,,,,,,,,,,,,,,,,0,0.310185185,-0.351851852,1,0,0,0.886,button_right_test,0,20,20,153,1
,,,,,,,,,,,,,,,,,5e9af4184c5f7818ccf9a43e,46,2022-02-12_16h29.22.412,lexical_decision_task_DD_L3,2021.2.3,iPhone,58.82352941,,,,,,,,,,1.103,0,,,,,,,,,,,,,,,,,,,,,,,-0.384259259,-0.287037037,1,0,0,,,,,,,SUNSET,C,m,m,./images/SUNSET.png,,,,,,,,,,,,,,,,,,,,,0,-0.384259259,-0.287037037,1,0,0,1.103,button_left_test,0,21,21,82,1
,,,,,,,,,,,,,,,,,5e9af4184c5f7818ccf9a43e,46,2022-02-12_16h29.22.412,lexical_decision_task_DD_L3,2021.2.3,iPhone,58.82352941,,,,,,,,,,0.836,1,,,,,,,,,,,,,,,,,,,,,,,0.351851852,-0.328703704,1,0,0,,,,,,,CARPET,HB,m,m,./images/CARPETHB.png,,,,,,,,,,,,,,,,,,,,,0,0.351851852,-0.328703704,1,0,0,0.836,button_right_test,0,22,22,53,1
,,,,,,,,,,,,,,,,,5e9af4184c5f7818ccf9a43e,46,2022-02-12_16h29.22.412,lexical_decision_task_DD_L3,2021.2.3,iPhone,58.82352941,,,,,,,,,,0.655,1,,,,,,,,,,,,,,,,,,,,,,,0.328703704,-0.337962963,1,0,0,,,,,,,TWINS,LB,m,m,./images/TWINSLB.png,,,,,,,,,,,,,,,,,,,,,0,0.328703704,-0.337962963,1,0,0,0.655,button_right_test,0,23,23,60,1
,,,,,,,,,,,,,,,,,5e9af4184c5f7818ccf9a43e,46,2022-02-12_16h29.22.412,lexical_decision_task_DD_L3,2021.2.3,iPhone,58.82352941,,,,,,,,,,0.785,0,,,,,,,,,,,,,,,,,,,,,,,0.324074074,-0.347222222,1,0,0,,,,,,,WAGON,C,z,m,./images/WAGON.png,,,,,,,,,,,,,,,,,,,,,0,0.324074074,-0.347222222,1,0,0,0.785,button_right_test,0,24,24,91,1
,,,,,,,,,,,,,,,,,5e9af4184c5f7818ccf9a43e,46,2022-02-12_16h29.22.412,lexical_decision_task_DD_L3,2021.2.3,iPhone,58.82352941,,,,,,,,,,0.902,1,,,,,,,,,,,,,,,,,,,,,,,-0.291666667,-0.291666667,1,0,0,,,,,,,SNAKE,C,z,m,./images/SNAKE.png,,,,,,,,,,,,,,,,,,,,,0,-0.291666667,-0.291666667,1,0,0,0.902,button_left_test,0,25,25,124,1
,,,,,,,,,,,,,,,,,5e9af4184c5f7818ccf9a43e,46,2022-02-12_16h29.22.412,lexical_decision_task_DD_L3,2021.2.3,iPhone,58.82352941,,,,,,,,,,0.603,1,,,,,,,,,,,,,,,,,,,,,,,0.365740741,-0.310185185,1,0,0,,,,,,,CRUST,C,m,m,./images/CRUST.png,,,,,,,,,,,,,,,,,,,,,0,0.365740741,-0.310185185,1,0,0,0.603,button_right_test,0,26,26,79,1
,,,,,,,,,,,,,,,,,5e9af4184c5f7818ccf9a43e,46,2022-02-12_16h29.22.412,lexical_decision_task_DD_L3,2021.2.3,iPhone,58.82352941,,,,,,,,,,1.289,1,,,,,,,,,,,,,,,,,,,,,,,0.319444444,-0.324074074,1,0,0,,,,,,,FARMER,HB,m,m,./images/FARMERHB.png,,,,,,,,,,,,,,,,,,,,,0,0.319444444,-0.324074074,1,0,0,1.289,button_right_test,0,27,27,65,1
,,,,,,,,,,,,,,,,,5e9af4184c5f7818ccf9a43e,46,2022-02-12_16h29.22.412,lexical_decision_task_DD_L3,2021.2.3,iPhone,58.82352941,,,,,,,,,,0.935,1,,,,,,,,,,,,,,,,,,,,,,,-0.342592593,-0.319444444,1,0,0,,,,,,,ARTIST,C,z,m,./images/ARTIST.png,,,,,,,,,,,,,,,,,,,,,0,-0.342592593,-0.319444444,1,0,0,0.935,button_left_test,0,28,28,145,1
,,,,,,,,,,,,,,,,,5e9af4184c5f7818ccf9a43e,46,2022-02-12_16h29.22.412,lexical_decision_task_DD_L3,2021.2.3,iPhone,58.82352941,,,,,,,,,,0.821,1,,,,,,,,,,,,,,,,,,,,,,,-0.310185185,-0.305555556,1,0,0,,,,,,,BRIDE,C,z,m,./images/BRIDE.png,,,,,,,,,,,,,,,,,,,,,0,-0.310185185,-0.305555556,1,0,0,0.821,button_left_test,0,29,29,148,1
,,,,,,,,,,,,,,,,,5e9af4184c5f7818ccf9a43e,46,2022-02-12_16h29.22.412,lexical_decision_task_DD_L3,2021.2.3,iPhone,58.82352941,,,,,,,,,,0.889,1,,,,,,,,,,,,,,,,,,,,,,,-0.300925926,-0.342592593,1,0,0,,,,,,,DESERT,C,z,m,./images/DESERT.png,,,,,,,,,,,,,,,,,,,,,0,-0.300925926,-0.342592593,1,0,0,0.889,button_left_test,0,30,30,136,1
,,,,,,,,,,,,,,,,,5e9af4184c5f7818ccf9a43e,46,2022-02-12_16h29.22.412,lexical_decision_task_DD_L3,2021.2.3,iPhone,58.82352941,,,,,,,,,,0.871,0,,,,,,,,,,,,,,,,,,,,,,,0.407407407,-0.310185185,1,0,0,,,,,,,STOVE,HB,z,m,./images/STOVEHB.png,,,,,,,,,,,,,,,,,,,,,0,0.407407407,-0.310185185,1,0,0,0.871,button_right_test,0,31,31,86,1
,,,,,,,,,,,,,,,,,5e9af4184c5f7818ccf9a43e,46,2022-02-12_16h29.22.412,lexical_decision_task_DD_L3,2021.2.3,iPhone,58.82352941,,,,,,,,,,0.938,0,,,,,,,,,,,,,,,,,,,,,,,-0.291666667,-0.337962963,1,0,0,,,,,,,DRUMS,C,m,m,./images/DRUMS.png,,,,,,,,,,,,,,,,,,,,,0,-0.291666667,-0.337962963,1,0,0,0.938,button_left_test,0,32,32,49,1
,,,,,,,,,,,,,,,,,5e9af4184c5f7818ccf9a43e,46,2022-02-12_16h29.22.412,lexical_decision_task_DD_L3,2021.2.3,iPhone,58.82352941,,,,,,,,,,1.088,0,,,,,,,,,,,,,,,,,,,,,,,-0.305555556,-0.351851852,1,0,0,,,,,,,PIMPLE,HB,m,m,./images/PIMPLEHB.png,,,,,,,,,,,,,,,,,,,,,0,-0.305555556,-0.351851852,1,0,0,1.088,button_left_test,0,33,33,71,1
,,,,,,,,,,,,,,,,,5e9af4184c5f7818ccf9a43e,46,2022-02-12_16h29.22.412,lexical_decision_task_DD_L3,2021.2.3,iPhone,58.82352941,,,,,,,,,,0.735,1,,,,,,,,,,,,,,,,,,,,,,,0.356481481,-0.310185185,1,0,0,,,,,,,SNACK,C,m,m,./images/SNACK.png,,,,,,,,,,,,,,,,,,,,,0,0.356481481,-0.310185185,1,0,0,0.735,button_right_test,0,34,34,73,1
,,,,,,,,,,,,,,,,,5e9af4184c5f7818ccf9a43e,46,2022-02-12_16h29.22.412,lexical_decision_task_DD_L3,2021.2.3,iPhone,58.82352941,,,,,,,,,,0.652,0,,,,,,,,,,,,,,,,,,,,,,,0.324074074,-0.305555556,1,0,0,,,,,,,GLOVE,C,z,m,./images/GLOVE.png,,,,,,,,,,,,,,,,,,,,,0,0.324074074,-0.305555556,1,0,0,0.652,button_right_test,0,35,35,157,1
,,,,,,,,,,,,,,,,,5e9af4184c5f7818ccf9a43e,46,2022-02-12_16h29.22.412,lexical_decision_task_DD_L3,2021.2.3,iPhone,58.82352941,,,,,,,,,,0.753,1,,,,,,,,,,,,,,,,,,,,,,,0.291666667,-0.263888889,1,0,0,,,,,,,JELLY,C,m,m,./images/JELLY.png,,,,,,,,,,,,,,,,,,,,,0,0.291666667,-0.263888889,1,0,0,0.753,button_right_test,0,36,36,64,1
,,,,,,,,,,,,,,,,,5e9af4184c5f7818ccf9a43e,46,2022-02-12_16h29.22.412,lexical_decision_task_DD_L3,2021.2.3,iPhone,58.82352941,,,,,,,,,,1.117,0,,,,,,,,,,,,,,,,,,,,,,,0.310185185,-0.259259259,1,0,0,,,,,,,BUBBLE,HB,z,m,./images/BUBBLEHB.png,,,,,,,,,,,,,,,,,,,,,0,0.310185185,-0.259259259,1,0,0,1.117,button_right_test,0,37,37,155,1
,,,,,,,,,,,,,,,,,5e9af4184c5f7818ccf9a43e,46,2022-02-12_16h29.22.412,lexical_decision_task_DD_L3,2021.2.3,iPhone,58.82352941,,,,,,,,,,1.119,0,,,,,,,,,,,,,,,,,,,,,,,0.305555556,-0.282407407,1,0,0,,,,,,,STATUE,LB,z,m,./images/STATUELB.png,,,,,,,,,,,,,,,,,,,,,0,0.305555556,-0.282407407,1,0,0,1.119,button_right_test,0,38,38,150,1
,,,,,,,,,,,,,,,,,5e9af4184c5f7818ccf9a43e,46,2022-02-12_16h29.22.412,lexical_decision_task_DD_L3,2021.2.3,iPhone,58.82352941,,,,,,,,,,0.101,1,,,,,,,,,,,,,,,,,,,,,,,-0.25462963,-0.361111111,1,0,0,,,,,,,STAIN,LB,z,m,./images/STAINLB.png,,,,,,,,,,,,,,,,,,,,,0,-0.037037037,-0.449074074,1,0,0,0.101,button_left_test,0,39,39,90,1
,,,,,,,,,,,,,,,,,5e9af4184c5f7818ccf9a43e,46,2022-02-12_16h29.22.412,lexical_decision_task_DD_L3,2021.2.3,iPhone,58.82352941,,,,,,,,,,1.052,1,,,,,,,,,,,,,,,,,,,,,,,0.342592593,-0.324074074,1,0,0,,,,,,,QUILL,C,m,m,./images/QUILL.png,,,,,,,,,,,,,,,,,,,,,0,0.342592593,-0.324074074,1,0,0,1.052,button_right_test,0,40,40,31,1
,,,,,,,,,,,,,,,,,5e9af4184c5f7818ccf9a43e,46,2022-02-12_16h29.22.412,lexical_decision_task_DD_L3,2021.2.3,iPhone,58.82352941,,,,,,,,,,0.989,1,,,,,,,,,,,,,,,,,,,,,,,0.060185185,-0.402777778,1,0,0,,,,,,,COLLAR,LB,z,m,./images/COLLARLB.png,break_done_button,,,,,,,,,,,,,,,,,,,,0,-0.282407407,-0.333333333,1,0,0,0.989,button_left_test,0,41,41,99,1
,,,,,,,,,,,,,,,,,5e9af4184c5f7818ccf9a43e,46,2022-02-12_16h29.22.412,lexical_decision_task_DD_L3,2021.2.3,iPhone,58.82352941,,,,,,,,,,1.123,1,,,,,,,,,,,,,,,,,,,,,,,0.347222222,-0.296296296,1,0,0,,,,,,,TOMATO,LB,m,m,./images/TOMATOLB.png,,,,,,,,,,,,,,,,,,,,,0,0.347222222,-0.296296296,1,0,0,1.123,button_right_test,0,42,42,0,1
,,,,,,,,,,,,,,,,,5e9af4184c5f7818ccf9a43e,46,2022-02-12_16h29.22.412,lexical_decision_task_DD_L3,2021.2.3,iPhone,58.82352941,,,,,,,,,,0.986,1,,,,,,,,,,,,,,,,,,,,,,,0.305555556,-0.277777778,1,0,0,,,,,,,BEARD,HB,m,m,./images/BEARDHB.png,,,,,,,,,,,,,,,,,,,,,0,0.305555556,-0.277777778,1,0,0,0.986,button_right_test,0,43,43,2,1
,,,,,,,,,,,,,,,,,5e9af4184c5f7818ccf9a43e,46,2022-02-12_16h29.22.412,lexical_decision_task_DD_L3,2021.2.3,iPhone,58.82352941,,,,,,,,,,0.955,1,,,,,,,,,,,,,,,,,,,,,,,0.310185185,-0.287037037,1,0,0,,,,,,,MELON,C,m,m,./images/MELON.png,,,,,,,,,,,,,,,,,,,,,0,0.310185185,-0.287037037,1,0,0,0.955,button_right_test,0,44,44,22,1
,,,,,,,,,,,,,,,,,5e9af4184c5f7818ccf9a43e,46,2022-02-12_16h29.22.412,lexical_decision_task_DD_L3,2021.2.3,iPhone,58.82352941,,,,,,,,,,1.254,1,,,,,,,,,,,,,,,,,,,,,,,0.337962963,-0.296296296,1,0,0,,,,,,,CANYON,C,m,m,./images/CANYON.png,,,,,,,,,,,,,,,,,,,,,0,0.337962963,-0.296296296,1,0,0,1.254,button_right_test,0,45,45,34,1
,,,,,,,,,,,,,,,,,5e9af4184c5f7818ccf9a43e,46,2022-02-12_16h29.22.412,lexical_decision_task_DD_L3,2021.2.3,iPhone,58.82352941,,,,,,,,,,0.77,1,,,,,,,,,,,,,,,,,,,,,,,-0.300925926,-0.268518519,1,0,0,,,,,,,DANCER,LB,z,m,./images/DANCERLB.png,,,,,,,,,,,,,,,,,,,,,0,-0.300925926,-0.268518519,1,0,0,0.77,button_left_test,0,46,46,105,1
,,,,,,,,,,,,,,,,,5e9af4184c5f7818ccf9a43e,46,2022-02-12_16h29.22.412,lexical_decision_task_DD_L3,2021.2.3,iPhone,58.82352941,,,,,,,,,,0.923,1,,,,,,,,,,,,,,,,,,,,,,,0.314814815,-0.305555556,1,0,0,,,,,,,GREASE,LB,m,m,./images/GREASELB.png,,,,,,,,,,,,,,,,,,,,,0,0.314814815,-0.305555556,1,0,0,0.923,button_right_test,0,47,47,15,1
,,,,,,,,,,,,,,,,,5e9af4184c5f7818ccf9a43e,46,2022-02-12_16h29.22.412,lexical_decision_task_DD_L3,2021.2.3,iPhone,58.82352941,,,,,,,,,,1.137,1,,,,,,,,,,,,,,,,,,,,,,,-0.319444444,-0.25462963,1,0,0,,,,,,,CLIFF,HB,z,m,./images/CLIFFHB.png,,,,,,,,,,,,,,,,,,,,,0,-0.319444444,-0.25462963,1,0,0,1.137,button_left_test,0,48,48,92,1
,,,,,,,,,,,,,,,,,5e9af4184c5f7818ccf9a43e,46,2022-02-12_16h29.22.412,lexical_decision_task_DD_L3,2021.2.3,iPhone,58.82352941,,,,,,,,,,1.017,1,,,,,,,,,,,,,,,,,,,,,,,-0.296296296,-0.240740741,1,0,0,,,,,,,FLESH,LB,z,m,./images/FLESHLB.png,,,,,,,,,,,,,,,,,,,,,0,-0.296296296,-0.240740741,1,0,0,1.017,button_left_test,0,49,49,108,1
,,,,,,,,,,,,,,,,,5e9af4184c5f7818ccf9a43e,46,2022-02-12_16h29.22.412,lexical_decision_task_DD_L3,2021.2.3,iPhone,58.82352941,,,,,,,,,,0.552,0,,,,,,,,,,,,,,,,,,,,,,,0.365740741,-0.259259259,1,0,0,,,,,,,STOOL,C,z,m,./images/STOOL.png,,,,,,,,,,,,,,,,,,,,,0,-0.143518519,-0.472222222,1,0,0,0.552,button_right_test,0,50,50,127,1
,,,,,,,,,,,,,,,,,5e9af4184c5f7818ccf9a43e,46,2022-02-12_16h29.22.412,lexical_decision_task_DD_L3,2021.2.3,iPhone,58.82352941,,,,,,,,,,1.283,1,,,,,,,,,,,,,,,,,,,,,,,-0.259259259,-0.24537037,1,0,0,,,,,,,LLAMA,HB,z,m,./images/LLAMAHB.png,,,,,,,,,,,,,,,,,,,,,0,-0.259259259,-0.24537037,1,0,0,1.283,button_left_test,0,51,51,119,1
,,,,,,,,,,,,,,,,,5e9af4184c5f7818ccf9a43e,46,2022-02-12_16h29.22.412,lexical_decision_task_DD_L3,2021.2.3,iPhone,58.82352941,,,,,,,,,,0.729,1,,,,,,,,,,,,,,,,,,,,,,,0.296296296,-0.282407407,1,0,0,,,,,,,WALRUS,HB,m,m,./images/WALRUSHB.png,,,,,,,,,,,,,,,,,,,,,0,0.296296296,-0.282407407,1,0,0,0.729,button_right_test,0,52,52,23,1
,,,,,,,,,,,,,,,,,5e9af4184c5f7818ccf9a43e,46,2022-02-12_16h29.22.412,lexical_decision_task_DD_L3,2021.2.3,iPhone,58.82352941,,,,,,,,,,0.084,1,,,,,,,,,,,,,,,,,,,,,,,0.277777778,-0.310185185,1,0,0,,,,,,,WRIST,C,m,m,./images/WRIST.png,,,,,,,,,,,,,,,,,,,,,0,-0.111111111,-0.537037037,1,0,0,0.084,button_right_test,0,53,53,25,1
,,,,,,,,,,,,,,,,,5e9af4184c5f7818ccf9a43e,46,2022-02-12_16h29.22.412,lexical_decision_task_DD_L3,2021.2.3,iPhone,58.82352941,,,,,,,,,,0.754,1,,,,,,,,,,,,,,,,,,,,,,,-0.310185185,-0.226851852,1,0,0,,,,,,,BUNNY,C,z,m,./images/BUNNY.png,,,,,,,,,,,,,,,,,,,,,0,-0.310185185,-0.226851852,1,0,0,0.754,button_left_test,0,54,54,97,1
,,,,,,,,,,,,,,,,,5e9af4184c5f7818ccf9a43e,46,2022-02-12_16h29.22.412,lexical_decision_task_DD_L3,2021.2.3,iPhone,58.82352941,,,,,,,,,,1.288,0,,,,,,,,,,,,,,,,,,,,,,,-0.277777778,-0.226851852,1,0,0,,,,,,,MIRROR,LB,m,m,./images/MIRRORLB.png,,,,,,,,,,,,,,,,,,,,,0,-0.277777778,-0.226851852,1,0,0,1.288,button_left_test,0,55,55,63,1
,,,,,,,,,,,,,,,,,5e9af4184c5f7818ccf9a43e,46,2022-02-12_16h29.22.412,lexical_decision_task_DD_L3,2021.2.3,iPhone,58.82352941,,,,,,,,,,0.351,0,,,,,,,,,,,,,,,,,,,,,,,-0.361111111,-0.287037037,1,0,0,,,,,,,TORCH,HB,m,m,./images/TORCHHB.png,,,,,,,,,,,,,,,,,,,,,0,-0.097222222,-0.587962963,1,0,0,0.351,button_left_test,0,56,56,68,1
,,,,,,,,,,,,,,,,,5e9af4184c5f7818ccf9a43e,46,2022-02-12_16h29.22.412,lexical_decision_task_DD_L3,2021.2.3,iPhone,58.82352941,,,,,,,,,,1.003,1,,,,,,,,,,,,,,,,,,,,,,,-0.296296296,-0.263888889,1,0,0,,,,,,,CANDY,LB,z,m,./images/CANDYLB.png,,,,,,,,,,,,,,,,,,,,,0,-0.296296296,-0.263888889,1,0,0,1.003,button_left_test,0,57,57,123,1
,,,,,,,,,,,,,,,,,5e9af4184c5f7818ccf9a43e,46,2022-02-12_16h29.22.412,lexical_decision_task_DD_L3,2021.2.3,iPhone,58.82352941,,,,,,,,,,1.841,1,,,,,,,,,,,,,,,,,,,,,,,0.263888889,-0.296296296,1,0,0,,,,,,,POODLE,LB,m,m,./images/POODLELB.png,,,,,,,,,,,,,,,,,,,,,0,0.263888889,-0.296296296,1,0,0,1.841,button_right_test,0,58,58,81,1
,,,,,,,,,,,,,,,,,5e9af4184c5f7818ccf9a43e,46,2022-02-12_16h29.22.412,lexical_decision_task_DD_L3,2021.2.3,iPhone,58.82352941,,,,,,,,,,1.072,1,,,,,,,,,,,,,,,,,,,,,,,-0.375,-0.310185185,1,0,0,,,,,,,DIVER,LB,z,m,./images/DIVERLB.png,,,,,,,,,,,,,,,,,,,,,0,-0.375,-0.310185185,1,0,0,1.072,button_left_test,0,59,59,93,1
,,,,,,,,,,,,,,,,,5e9af4184c5f7818ccf9a43e,46,2022-02-12_16h29.22.412,lexical_decision_task_DD_L3,2021.2.3,iPhone,58.82352941,,,,,,,,,,0.837,1,,,,,,,,,,,,,,,,,,,,,,,0.259259259,-0.263888889,1,0,0,,,,,,,SQUARE,LB,m,m,./images/SQUARELB.png,,,,,,,,,,,,,,,,,,,,,0,0.259259259,-0.263888889,1,0,0,0.837,button_right_test,0,60,60,6,1
,,,,,,,,,,,,,,,,,5e9af4184c5f7818ccf9a43e,46,2022-02-12_16h29.22.412,lexical_decision_task_DD_L3,2021.2.3,iPhone,58.82352941,,,,,,,,,,0.435,1,,,,,,,,,,,,,,,,,,,,,,,0.226851852,-0.324074074,1,0,0,,,,,,,DOUGH,C,m,m,./images/DOUGH.png,,,,,,,,,,,,,,,,,,,,,0,-0.143518519,-0.537037037,1,0,0,0.435,button_right_test,0,61,61,19,1
,,,,,,,,,,,,,,,,,5e9af4184c5f7818ccf9a43e,46,2022-02-12_16h29.22.412,lexical_decision_task_DD_L3,2021.2.3,iPhone,58.82352941,,,,,,,,,,0.568,0,,,,,,,,,,,,,,,,,,,,,,,0.291666667,-0.342592593,1,0,0,,,,,,,CLOUD,HB,z,m,./images/CLOUDHB.png,,,,,,,,,,,,,,,,,,,,,0,-0.125,-0.537037037,1,0,0,0.568,button_right_test,0,62,62,110,1
,,,,,,,,,,,,,,,,,5e9af4184c5f7818ccf9a43e,46,2022-02-12_16h29.22.412,lexical_decision_task_DD_L3,2021.2.3,iPhone,58.82352941,,,,,,,,,,1.253,1,,,,,,,,,,,,,,,,,,,,,,,-0.310185185,-0.231481481,1,0,0,,,,,,,PLANET,HB,z,m,./images/PLANETHB.png,,,,,,,,,,,,,,,,,,,,,0,-0.310185185,-0.231481481,1,0,0,1.253,button_left_test,0,63,63,164,1
,,,,,,,,,,,,,,,,,5e9af4184c5f7818ccf9a43e,46,2022-02-12_16h29.22.412,lexical_decision_task_DD_L3,2021.2.3,iPhone,58.82352941,,,,,,,,,,0.82,1,,,,,,,,,,,,,,,,,,,,,,,-0.328703704,-0.277777778,1,0,0,,,,,,,BOILER,LB,z,m,./images/BOILERLB.png,,,,,,,,,,,,,,,,,,,,,0,-0.328703704,-0.277777778,1,0,0,0.82,button_left_test,0,64,64,120,1
,,,,,,,,,,,,,,,,,5e9af4184c5f7818ccf9a43e,46,2022-02-12_16h29.22.412,lexical_decision_task_DD_L3,2021.2.3,iPhone,58.82352941,,,,,,,,,,0.386,0,,,,,,,,,,,,,,,,,,,,,,,-0.291666667,-0.263888889,1,0,0,,,,,,,SPORT,LB,m,m,./images/SPORTLB.png,,,,,,,,,,,,,,,,,,,,,0,-0.152777778,-0.578703704,1,0,0,0.386,button_left_test,0,65,65,48,1
,,,,,,,,,,,,,,,,,5e9af4184c5f7818ccf9a43e,46,2022-02-12_16h29.22.412,lexical_decision_task_DD_L3,2021.2.3,iPhone,58.82352941,,,,,,,,,,0.886,1,,,,,,,,,,,,,,,,,,,,,,,-0.300925926,-0.287037037,1,0,0,,,,,,,RULER,C,z,m,./images/RULER.png,,,,,,,,,,,,,,,,,,,,,0,-0.300925926,-0.287037037,1,0,0,0.886,button_left_test,0,66,66,163,1
,,,,,,,,,,,,,,,,,5e9af4184c5f7818ccf9a43e,46,2022-02-12_16h29.22.412,lexical_decision_task_DD_L3,2021.2.3,iPhone,58.82352941,,,,,,,,,,1.204,0,,,,,,,,,,,,,,,,,,,,,,,-0.319444444,-0.296296296,1,0,0,,,,,,,RHINO,LB,m,m,./images/RHINOLB.png,,,,,,,,,,,,,,,,,,,,,0,-0.319444444,-0.296296296,1,0,0,1.204,button_left_test,0,67,67,9,1
,,,,,,,,,,,,,,,,,5e9af4184c5f7818ccf9a43e,46,2022-02-12_16h29.22.412,lexical_decision_task_DD_L3,2021.2.3,iPhone,58.82352941,,,,,,,,,,0.971,1,,,,,,,,,,,,,,,,,,,,,,,0.351851852,-0.319444444,1,0,0,,,,,,,ATTIC,LB,m,m,./images/ATTICLB.png,,,,,,,,,,,,,,,,,,,,,0,0.351851852,-0.319444444,1,0,0,0.971,button_right_test,0,68,68,27,1
,,,,,,,,,,,,,,,,,5e9af4184c5f7818ccf9a43e,46,2022-02-12_16h29.22.412,lexical_decision_task_DD_L3,2021.2.3,iPhone,58.82352941,,,,,,,,,,0.935,1,,,,,,,,,,,,,,,,,,,,,,,0.342592593,-0.277777778,1,0,0,,,,,,,KIDNEY,LB,m,m,./images/KIDNEYLB.png,,,,,,,,,,,,,,,,,,,,,0,0.342592593,-0.277777778,1,0,0,0.935,button_right_test,0,69,69,21,1
,,,,,,,,,,,,,,,,,5e9af4184c5f7818ccf9a43e,46,2022-02-12_16h29.22.412,lexical_decision_task_DD_L3,2021.2.3,iPhone,58.82352941,,,,,,,,,,0.265,0,,,,,,,,,,,,,,,,,,,,,,,-0.296296296,-0.25462963,1,0,0,,,,,,,KITTEN,LB,m,m,./images/KITTENLB.png,,,,,,,,,,,,,,,,,,,,,0,-0.12037037,-0.615740741,1,0,0,0.265,button_left_test,0,70,70,45,1
,,,,,,,,,,,,,,,,,5e9af4184c5f7818ccf9a43e,46,2022-02-12_16h29.22.412,lexical_decision_task_DD_L3,2021.2.3,iPhone,58.82352941,,,,,,,,,,0.721,0,,,,,,,,,,,,,,,,,,,,,,,0.319444444,-0.314814815,1,0,0,,,,,,,GARDEN,C,z,m,./images/GARDEN.png,,,,,,,,,,,,,,,,,,,,,0,0.319444444,-0.314814815,1,0,0,0.721,button_right_test,0,71,71,94,1
,,,,,,,,,,,,,,,,,5e9af4184c5f7818ccf9a43e,46,2022-02-12_16h29.22.412,lexical_decision_task_DD_L3,2021.2.3,iPhone,58.82352941,,,,,,,,,,0.919,1,,,,,,,,,,,,,,,,,,,,,,,0.328703704,-0.291666667,1,0,0,,,,,,,MOTOR,C,m,m,./images/MOTOR.png,,,,,,,,,,,,,,,,,,,,,0,0.328703704,-0.291666667,1,0,0,0.919,button_right_test,0,72,72,13,1
,,,,,,,,,,,,,,,,,5e9af4184c5f7818ccf9a43e,46,2022-02-12_16h29.22.412,lexical_decision_task_DD_L3,2021.2.3,iPhone,58.82352941,,,,,,,,,,0.886,1,,,,,,,,,,,,,,,,,,,,,,,0.314814815,-0.324074074,1,0,0,,,,,,,TULIP,HB,m,m,./images/TULIPHB.png,,,,,,,,,,,,,,,,,,,,,0,0.314814815,-0.324074074,1,0,0,0.886,button_right_test,0,73,73,8,1
,,,,,,,,,,,,,,,,,5e9af4184c5f7818ccf9a43e,46,2022-02-12_16h29.22.412,lexical_decision_task_DD_L3,2021.2.3,iPhone,58.82352941,,,,,,,,,,0.87,1,,,,,,,,,,,,,,,,,,,,,,,0.319444444,-0.287037037,1,0,0,,,,,,,PICKLE,HB,m,m,./images/PICKLEHB.png,,,,,,,,,,,,,,,,,,,,,0,0.319444444,-0.287037037,1,0,0,0.87,button_right_test,0,74,74,14,1
,,,,,,,,,,,,,,,,,5e9af4184c5f7818ccf9a43e,46,2022-02-12_16h29.22.412,lexical_decision_task_DD_L3,2021.2.3,iPhone,58.82352941,,,,,,,,,,0.82,1,,,,,,,,,,,,,,,,,,,,,,,-0.314814815,-0.291666667,1,0,0,,,,,,,MUMMY,C,z,m,./images/MUMMY.png,,,,,,,,,,,,,,,,,,,,,0,-0.314814815,-0.291666667,1,0,0,0.82,button_left_test,0,75,75,130,1
,,,,,,,,,,,,,,,,,5e9af4184c5f7818ccf9a43e,46,2022-02-12_16h29.22.412,lexical_decision_task_DD_L3,2021.2.3,iPhone,58.82352941,,,,,,,,,,0.938,1,,,,,,,,,,,,,,,,,,,,,,,-0.305555556,-0.259259259,1,0,0,,,,,,,PILOT,HB,z,m,./images/PILOTHB.png,,,,,,,,,,,,,,,,,,,,,0,-0.305555556,-0.259259259,1,0,0,0.938,button_left_test,0,76,76,134,1
,,,,,,,,,,,,,,,,,5e9af4184c5f7818ccf9a43e,46,2022-02-12_16h29.22.412,lexical_decision_task_DD_L3,2021.2.3,iPhone,58.82352941,,,,,,,,,,0.168,1,,,,,,,,,,,,,,,,,,,,,,,-0.310185185,-0.268518519,1,0,0,,,,,,,LAGOON,HB,z,m,./images/LAGOONHB.png,,,,,,,,,,,,,,,,,,,,,0,-0.138888889,-0.578703704,1,0,0,0.168,button_left_test,0,77,77,131,1
,,,,,,,,,,,,,,,,,5e9af4184c5f7818ccf9a43e,46,2022-02-12_16h29.22.412,lexical_decision_task_DD_L3,2021.2.3,iPhone,58.82352941,,,,,,,,,,0.819,1,,,,,,,,,,,,,,,,,,,,,,,0.333333333,-0.273148148,1,0,0,,,,,,,BONNET,HB,m,m,./images/BONNETHB.png,,,,,,,,,,,,,,,,,,,,,0,0.333333333,-0.273148148,1,0,0,0.819,button_right_test,0,78,78,11,1
,,,,,,,,,,,,,,,,,5e9af4184c5f7818ccf9a43e,46,2022-02-12_16h29.22.412,lexical_decision_task_DD_L3,2021.2.3,iPhone,58.82352941,,,,,,,,,,0.786,1,,,,,,,,,,,,,,,,,,,,,,,-0.319444444,-0.277777778,1,0,0,,,,,,,BUTTER,LB,z,m,./images/BUTTERLB.png,,,,,,,,,,,,,,,,,,,,,0,-0.319444444,-0.277777778,1,0,0,0.786,button_left_test,0,79,79,111,1
,,,,,,,,,,,,,,,,,5e9af4184c5f7818ccf9a43e,46,2022-02-12_16h29.22.412,lexical_decision_task_DD_L3,2021.2.3,iPhone,58.82352941,,,,,,,,,,1.07,0,,,,,,,,,,,,,,,,,,,,,,,-0.268518519,-0.291666667,1,0,0,,,,,,,CRADLE,HB,m,m,./images/CRADLEHB.png,,,,,,,,,,,,,,,,,,,,,0,-0.268518519,-0.291666667,1,0,0,1.07,button_left_test,0,80,80,20,1
,,,,,,,,,,,,,,,,,5e9af4184c5f7818ccf9a43e,46,2022-02-12_16h29.22.412,lexical_decision_task_DD_L3,2021.2.3,iPhone,58.82352941,,,,,,,,,,0.903,0,,,,,,,,,,,,,,,,,,,,,,,0.328703704,-0.324074074,1,0,0,,,,,,,BANANA,C,z,m,./images/BANANA.png,,,,,,,,,,,,,,,,,,,,,0,0.328703704,-0.324074074,1,0,0,0.903,button_right_test,0,81,81,154,1
,,,,,,,,,,,,,,,,,5e9af4184c5f7818ccf9a43e,46,2022-02-12_16h29.22.412,lexical_decision_task_DD_L3,2021.2.3,iPhone,58.82352941,,,,,,,,,,0.683,0,,,,,,,,,,,,,,,,,,,,,,,-0.291666667,-0.310185185,1,0,0,,,,,,,THROAT,LB,m,m,./images/THROATLB.png,,,,,,,,,,,,,,,,,,,,,0,-0.291666667,-0.310185185,1,0,0,0.683,button_left_test,0,82,82,36,1
,,,,,,,,,,,,,,,,,5e9af4184c5f7818ccf9a43e,46,2022-02-12_16h29.22.412,lexical_decision_task_DD_L3,2021.2.3,iPhone,58.82352941,,,,,,,,,,0.854,0,,,,,,,,,,,,,,,,,,,,,,,0.106481481,-0.375,1,0,0,,,,,,,JAGUAR,LB,m,m,./images/JAGUARLB.png,break_done_button,,,,,,,,,,,,,,,,,,,,0,-0.300925926,-0.310185185,1,0,0,0.854,button_left_test,0,83,83,18,1
,,,,,,,,,,,,,,,,,5e9af4184c5f7818ccf9a43e,46,2022-02-12_16h29.22.412,lexical_decision_task_DD_L3,2021.2.3,iPhone,58.82352941,,,,,,,,,,0.685,1,,,,,,,,,,,,,,,,,,,,,,,0.282407407,-0.319444444,1,0,0,,,,,,,BURIAL,HB,m,m,./images/BURIALHB.png,,,,,,,,,,,,,,,,,,,,,0,0.282407407,-0.319444444,1,0,0,0.685,button_right_test,0,84,84,59,1
,,,,,,,,,,,,,,,,,5e9af4184c5f7818ccf9a43e,46,2022-02-12_16h29.22.412,lexical_decision_task_DD_L3,2021.2.3,iPhone,58.82352941,,,,,,,,,,0.787,1,,,,,,,,,,,,,,,,,,,,,,,-0.263888889,-0.310185185,1,0,0,,,,,,,SAUCE,LB,z,m,./images/SAUCELB.png,,,,,,,,,,,,,,,,,,,,,0,-0.263888889,-0.310185185,1,0,0,0.787,button_left_test,0,85,85,135,1
,,,,,,,,,,,,,,,,,5e9af4184c5f7818ccf9a43e,46,2022-02-12_16h29.22.412,lexical_decision_task_DD_L3,2021.2.3,iPhone,58.82352941,,,,,,,,,,0.535,0,,,,,,,,,,,,,,,,,,,,,,,0.300925926,-0.333333333,1,0,0,,,,,,,CURRY,LB,z,m,./images/CURRYLB.png,,,,,,,,,,,,,,,,,,,,,0,0.300925926,-0.333333333,1,0,0,0.535,button_right_test,0,86,86,144,1
,,,,,,,,,,,,,,,,,5e9af4184c5f7818ccf9a43e,46,2022-02-12_16h29.22.412,lexical_decision_task_DD_L3,2021.2.3,iPhone,58.82352941,,,,,,,,,,0.652,1,,,,,,,,,,,,,,,,,,,,,,,0.310185185,-0.361111111,1,0,0,,,,,,,STRING,HB,m,m,./images/STRINGHB.png,,,,,,,,,,,,,,,,,,,,,0,0.310185185,-0.361111111,1,0,0,0.652,button_right_test,0,87,87,41,1
,,,,,,,,,,,,,,,,,5e9af4184c5f7818ccf9a43e,46,2022-02-12_16h29.22.412,lexical_decision_task_DD_L3,2021.2.3,iPhone,58.82352941,,,,,,,,,,0.786,0,,,,,,,,,,,,,,,,,,,,,,,0.287037037,-0.319444444,1,0,0,,,,,,,ALLEY,C,z,m,./images/ALLEY.png,,,,,,,,,,,,,,,,,,,,,0,0.287037037,-0.319444444,1,0,0,0.786,button_right_test,0,88,88,139,1
,,,,,,,,,,,,,,,,,5e9af4184c5f7818ccf9a43e,46,2022-02-12_16h29.22.412,lexical_decision_task_DD_L3,2021.2.3,iPhone,58.82352941,,,,,,,,,,0.184,1,,,,,,,,,,,,,,,,,,,,,,,-0.324074074,-0.273148148,1,0,0,,,,,,,JUMPER,HB,z,m,./images/JUMPERHB.png,,,,,,,,,,,,,,,,,,,,,0,0.013888889,-0.537037037,1,0,0,0.184,button_left_test,0,89,89,158,1
,,,,,,,,,,,,,,,,,5e9af4184c5f7818ccf9a43e,46,2022-02-12_16h29.22.412,lexical_decision_task_DD_L3,2021.2.3,iPhone,58.82352941,,,,,,,,,,0.769,1,,,,,,,,,,,,,,,,,,,,,,,-0.310185185,-0.319444444,1,0,0,,,,,,,TIGER,C,z,m,./images/TIGER.png,,,,,,,,,,,,,,,,,,,,,0,-0.310185185,-0.319444444,1,0,0,0.769,button_left_test,0,90,90,121,1
,,,,,,,,,,,,,,,,,5e9af4184c5f7818ccf9a43e,46,2022-02-12_16h29.22.412,lexical_decision_task_DD_L3,2021.2.3,iPhone,58.82352941,,,,,,,,,,0.62,1,,,,,,,,,,,,,,,,,,,,,,,0.324074074,-0.319444444,1,0,0,,,,,,,CANDLE,C,m,m,./images/CANDLE.png,,,,,,,,,,,,,,,,,,,,,0,0.324074074,-0.319444444,1,0,0,0.62,button_right_test,0,91,91,61,1
,,,,,,,,,,,,,,,,,5e9af4184c5f7818ccf9a43e,46,2022-02-12_16h29.22.412,lexical_decision_task_DD_L3,2021.2.3,iPhone,58.82352941,,,,,,,,,,0.854,1,,,,,,,,,,,,,,,,,,,,,,,-0.287037037,-0.305555556,1,0,0,,,,,,,POSTER,HB,z,m,./images/POSTERHB.png,,,,,,,,,,,,,,,,,,,,,0,-0.287037037,-0.305555556,1,0,0,0.854,button_left_test,0,92,92,137,1
,,,,,,,,,,,,,,,,,5e9af4184c5f7818ccf9a43e,46,2022-02-12_16h29.22.412,lexical_decision_task_DD_L3,2021.2.3,iPhone,58.82352941,,,,,,,,,,0.586,1,,,,,,,,,,,,,,,,,,,,,,,0.328703704,-0.351851852,1,0,0,,,,,,,PAINT,C,m,m,./images/PAINT.png,,,,,,,,,,,,,,,,,,,,,0,0.328703704,-0.351851852,1,0,0,0.586,button_right_test,0,93,93,7,1
,,,,,,,,,,,,,,,,,5e9af4184c5f7818ccf9a43e,46,2022-02-12_16h29.22.412,lexical_decision_task_DD_L3,2021.2.3,iPhone,58.82352941,,,,,,,,,,1.036,0,,,,,,,,,,,,,,,,,,,,,,,0.296296296,-0.291666667,1,0,0,,,,,,,BROOM,LB,z,m,./images/BROOMLB.png,,,,,,,,,,,,,,,,,,,,,0,0.296296296,-0.291666667,1,0,0,1.036,button_right_test,0,94,94,162,1
,,,,,,,,,,,,,,,,,5e9af4184c5f7818ccf9a43e,46,2022-02-12_16h29.22.412,lexical_decision_task_DD_L3,2021.2.3,iPhone,58.82352941,,,,,,,,,,0.164,1,,,,,,,,,,,,,,,,,,,,,,,-0.273148148,-0.319444444,1,0,0,,,,,,,PARCEL,LB,z,m,./images/PARCELLB.png,,,,,,,,,,,,,,,,,,,,,0,-0.064814815,-0.625,1,0,0,0.164,button_left_test,0,95,95,102,1
,,,,,,,,,,,,,,,,,5e9af4184c5f7818ccf9a43e,46,2022-02-12_16h29.22.412,lexical_decision_task_DD_L3,2021.2.3,iPhone,58.82352941,,,,,,,,,,0.068,1,,,,,,,,,,,,,,,,,,,,,,,-0.268518519,-0.291666667,1,0,0,,,,,,,SAUNA,LB,z,m,./images/SAUNALB.png,,,,,,,,,,,,,,,,,,,,,0,-0.097222222,-0.615740741,1,0,0,0.068,button_left_test,0,96,96,117,1
