key_resp.keys,key_resp.rt,instr_done_touch.x,instr_done_touch.y,instr_done_touch.leftButton,instr_done_touch.midButton,instr_done_touch.rightButton,instruction_pages.thisRepN,instruction_pages.thisTrialN,instruction_pages.thisN,instruction_pages.thisIndex,instruction_pages.ran,pageN,phase,instruct_text,has_image,instruct_image,participant,age,date,expName,psychopyVersion,OS,frameRate,response.keys,response.corr,response.rt,touch_resp.x,touch_resp.y,touch_resp.leftButton,touch_resp.midButton,touch_resp.rightButton,touch_resp.time,touch_resp.clicked_name,rt,corr,practrials.thisRepN,practrials.thisTrialN,practrials.thisN,practrials.thisIndex,practrials.ran,TrialID,Target,corrAns,end_of_practice_trials_pages.thisRepN,end_of_practice_trials_pages.thisTrialN,end_of_practice_trials_pages.thisN,end_of_practice_trials_pages.thisIndex,end_of_practice_trials_pages.ran,key_resp_2.keys,key_resp_2.corr,key_resp_2.rt,targ_click.x,targ_click.y,targ_click.leftButton,targ_click.midButton,targ_click.rightButton,targ_click.time,targ_click.clicked_name,break_done_touch.x,break_done_touch.y,break_done_touch.leftButton,break_done_touch.midButton,break_done_touch.rightButton,break_done_keyboard.keys,maintrials.thisRepN,maintrials.thisTrialN,maintrials.thisN,maintrials.thisIndex,maintrials.ran,string,blur,study,lex,stim_path,break_done_keyboard.rt,mouse_2.x,mouse_2.y,mouse_2.leftButton,mouse_2.midButton,mouse_2.rightButton,mouse_2.clicked_name,slider.response,slider.rt,trials.thisRepN,trials.thisTrialN,trials.thisN,trials.thisIndex,trials.ran,instr_done_touch.clicked_name,test_instructions.thisRepN,test_instructions.thisTrialN,test_instructions.thisN,test_instructions.thisIndex,test_instructions.ran,key_resp_3.keys,key_resp_3.corr,key_resp_3.rt,test_click.x,test_click.y,test_click.leftButton,test_click.midButton,test_click.rightButton,test_click.time,test_click.clicked_name,test_phase.thisRepN,test_phase.thisTrialN,test_phase.thisN,test_phase.thisIndex,test_phase.ran
space,31.5928,0.0851852,-0.359259272,0,0,0,0,0,0,0,1,1,instructions,"INSTRUCTIONS
At the start of each trial, look at the plus sign  (+) in the center of the screen.  This tells you that a trial is about to begin and where to look. Second, the plus sign will disappear and a string of letters will appear. Your task is to determine if the string of letters is a word or not. If the item is a word press the M key (on keyboard)  or touch the word button (phone/tablet).  If the item is not a word,  press the  Z key (on keyboard)  or touch the nonword button (on phone/tablet). 
Press the space bar or touch  continue.",0,,5eb087ed7f6d1e1232690d6a,61,2022-02-12_14h57.32.857,lexical_decision_task_DD_L3,2021.2.3,Win32,60.2373351,,,,,,,,,,,,,,,,,,,,,,,,,,,,,,,,,,,,,,,,,,,,,,,,,,,,,,,,,,,,,,,,,,,,,,,,,,,,,,,,,,,,,,
space,8.87,0.0851852,-0.359259272,0,0,0,0,1,1,1,1,2,instructions,"If your device has a keyboard, press the 'Z' key for nonwords and the 'M' key for words.





Press the space bar or touch the button below to continue.",0,keyboard-example.gif,5eb087ed7f6d1e1232690d6a,61,2022-02-12_14h57.32.857,lexical_decision_task_DD_L3,2021.2.3,Win32,60.2373351,,,,,,,,,,,,,,,,,,,,,,,,,,,,,,,,,,,,,,,,,,,,,,,,,,,,,,,,,,,,,,,,,,,,,,,,,,,,,,,,,,,,,,
space,4.2293,0.0851852,-0.359259272,0,0,0,0,2,2,2,1,3,instructions,"If you are using a touchscreen only device, use the buttons on the screen. Do not use the mouse.





Press the space bar or touch the button below to continue.",0,touchscreen-example.gif,5eb087ed7f6d1e1232690d6a,61,2022-02-12_14h57.32.857,lexical_decision_task_DD_L3,2021.2.3,Win32,60.2373351,,,,,,,,,,,,,,,,,,,,,,,,,,,,,,,,,,,,,,,,,,,,,,,,,,,,,,,,,,,,,,,,,,,,,,,,,,,,,,,,,,,,,,
space,11.0539,0.0851852,-0.359259272,0,0,0,0,3,3,3,1,4,instructions,"It is very important that you respond as quickly and accurately as possible, as each letter string will only be on the screen for two seconds. If you do not respond within this time, the message 'Too slow!' will be displayed and the experiment will progress to the next letter string. The first 20 trials will be practice trials and you will receive feedback on your answers. 

Press the space bar or touch the button below to start the practice trials.",0,,5eb087ed7f6d1e1232690d6a,61,2022-02-12_14h57.32.857,lexical_decision_task_DD_L3,2021.2.3,Win32,60.2373351,,,,,,,,,,,,,,,,,,,,,,,,,,,,,,,,,,,,,,,,,,,,,,,,,,,,,,,,,,,,,,,,,,,,,,,,,,,,,,,,,,,,,,
,,,,,,,,,,,,,,,,,5eb087ed7f6d1e1232690d6a,61,2022-02-12_14h57.32.857,lexical_decision_task_DD_L3,2021.2.3,Win32,60.2373351,m,1,0.6078,,,,,,,,0.6078,1,0,0,0,4,1,1001,SQUEAK,m,,,,,,,,,,,,,,,,,,,,,,,,,,,,,,,,,,,,,,,,,,,,,,,,,,,,,,,,,,,,,,,,,,
,,,,,,,,,,,,,,,,,5eb087ed7f6d1e1232690d6a,61,2022-02-12_14h57.32.857,lexical_decision_task_DD_L3,2021.2.3,Win32,60.2373351,m,1,0.4854,,,,,,,,0.4854,1,0,1,1,2,1,1001,ALMOND,m,,,,,,,,,,,,,,,,,,,,,,,,,,,,,,,,,,,,,,,,,,,,,,,,,,,,,,,,,,,,,,,,,,
,,,,,,,,,,,,,,,,,5eb087ed7f6d1e1232690d6a,61,2022-02-12_14h57.32.857,lexical_decision_task_DD_L3,2021.2.3,Win32,60.2373351,m,1,0.4901,,,,,,,,0.4901,1,0,2,2,7,1,1001,VOLUME,m,,,,,,,,,,,,,,,,,,,,,,,,,,,,,,,,,,,,,,,,,,,,,,,,,,,,,,,,,,,,,,,,,,
,,,,,,,,,,,,,,,,,5eb087ed7f6d1e1232690d6a,61,2022-02-12_14h57.32.857,lexical_decision_task_DD_L3,2021.2.3,Win32,60.2373351,m,1,0.483,,,,,,,,0.483,1,0,3,3,5,1,1001,OBTAIN,m,,,,,,,,,,,,,,,,,,,,,,,,,,,,,,,,,,,,,,,,,,,,,,,,,,,,,,,,,,,,,,,,,,
,,,,,,,,,,,,,,,,,5eb087ed7f6d1e1232690d6a,61,2022-02-12_14h57.32.857,lexical_decision_task_DD_L3,2021.2.3,Win32,60.2373351,z,1,0.696,,,,,,,,0.696,1,0,4,4,15,1,1001,WHAISE,z,,,,,,,,,,,,,,,,,,,,,,,,,,,,,,,,,,,,,,,,,,,,,,,,,,,,,,,,,,,,,,,,,,
,,,,,,,,,,,,,,,,,5eb087ed7f6d1e1232690d6a,61,2022-02-12_14h57.32.857,lexical_decision_task_DD_L3,2021.2.3,Win32,60.2373351,z,1,0.6433,,,,,,,,0.6433,1,0,5,5,14,1,1001,THRALE,z,,,,,,,,,,,,,,,,,,,,,,,,,,,,,,,,,,,,,,,,,,,,,,,,,,,,,,,,,,,,,,,,,,
,,,,,,,,,,,,,,,,,5eb087ed7f6d1e1232690d6a,61,2022-02-12_14h57.32.857,lexical_decision_task_DD_L3,2021.2.3,Win32,60.2373351,z,1,0.6333,,,,,,,,0.6333,1,0,6,6,13,1,1001,ROUPET,z,,,,,,,,,,,,,,,,,,,,,,,,,,,,,,,,,,,,,,,,,,,,,,,,,,,,,,,,,,,,,,,,,,
,,,,,,,,,,,,,,,,,5eb087ed7f6d1e1232690d6a,61,2022-02-12_14h57.32.857,lexical_decision_task_DD_L3,2021.2.3,Win32,60.2373351,m,1,0.7272,,,,,,,,0.7272,1,0,7,7,0,1,1001,UTOPIA,m,,,,,,,,,,,,,,,,,,,,,,,,,,,,,,,,,,,,,,,,,,,,,,,,,,,,,,,,,,,,,,,,,,
,,,,,,,,,,,,,,,,,5eb087ed7f6d1e1232690d6a,61,2022-02-12_14h57.32.857,lexical_decision_task_DD_L3,2021.2.3,Win32,60.2373351,z,1,0.697,,,,,,,,0.697,1,0,8,8,9,1,1001,FARINY,z,,,,,,,,,,,,,,,,,,,,,,,,,,,,,,,,,,,,,,,,,,,,,,,,,,,,,,,,,,,,,,,,,,
,,,,,,,,,,,,,,,,,5eb087ed7f6d1e1232690d6a,61,2022-02-12_14h57.32.857,lexical_decision_task_DD_L3,2021.2.3,Win32,60.2373351,z,1,0.7719,,,,,,,,0.7719,1,0,9,9,11,1,1001,RASHET,z,,,,,,,,,,,,,,,,,,,,,,,,,,,,,,,,,,,,,,,,,,,,,,,,,,,,,,,,,,,,,,,,,,
,,,,,,,,,,,,,,,,,5eb087ed7f6d1e1232690d6a,61,2022-02-12_14h57.32.857,lexical_decision_task_DD_L3,2021.2.3,Win32,60.2373351,m,1,0.617,,,,,,,,0.617,1,0,10,10,6,1,1001,ZOMBIE,m,,,,,,,,,,,,,,,,,,,,,,,,,,,,,,,,,,,,,,,,,,,,,,,,,,,,,,,,,,,,,,,,,,
,,,,,,,,,,,,,,,,,5eb087ed7f6d1e1232690d6a,61,2022-02-12_14h57.32.857,lexical_decision_task_DD_L3,2021.2.3,Win32,60.2373351,m,1,0.7166,,,,,,,,0.7166,1,0,11,11,3,1,1001,MATRIX,m,,,,,,,,,,,,,,,,,,,,,,,,,,,,,,,,,,,,,,,,,,,,,,,,,,,,,,,,,,,,,,,,,,
,,,,,,,,,,,,,,,,,5eb087ed7f6d1e1232690d6a,61,2022-02-12_14h57.32.857,lexical_decision_task_DD_L3,2021.2.3,Win32,60.2373351,z,1,0.6124,,,,,,,,0.6124,1,0,12,12,10,1,1001,INLADE,z,,,,,,,,,,,,,,,,,,,,,,,,,,,,,,,,,,,,,,,,,,,,,,,,,,,,,,,,,,,,,,,,,,
,,,,,,,,,,,,,,,,,5eb087ed7f6d1e1232690d6a,61,2022-02-12_14h57.32.857,lexical_decision_task_DD_L3,2021.2.3,Win32,60.2373351,z,1,0.7292,,,,,,,,0.7292,1,0,13,13,12,1,1001,SPRINY,z,,,,,,,,,,,,,,,,,,,,,,,,,,,,,,,,,,,,,,,,,,,,,,,,,,,,,,,,,,,,,,,,,,
,,,,,,,,,,,,,,,,,5eb087ed7f6d1e1232690d6a,61,2022-02-12_14h57.32.857,lexical_decision_task_DD_L3,2021.2.3,Win32,60.2373351,m,1,0.5655,,,,,,,,0.5655,1,0,14,14,1,1,1001,ADJUST,m,,,,,,,,,,,,,,,,,,,,,,,,,,,,,,,,,,,,,,,,,,,,,,,,,,,,,,,,,,,,,,,,,,
,,,,,,,,,,,,,,,,,5eb087ed7f6d1e1232690d6a,61,2022-02-12_14h57.32.857,lexical_decision_task_DD_L3,2021.2.3,Win32,60.2373351,z,1,0.7964,,,,,,,,0.7964,1,0,15,15,8,1,1001,ASLERT,z,,,,,,,,,,,,,,,,,,,,,,,,,,,,,,,,,,,,,,,,,,,,,,,,,,,,,,,,,,,,,,,,,,
space,11.3142,0.0851852,-0.359259272,0,0,0,,,,,,1,end_of_practice,"You have completed the practice trials. During the experimental trials, you will not receive feedback. 
Before you begin, please ensure that you are in a comfortable and quiet location and will not be disturbed for about 15 minutes, as we cannot use your data if you do not complete all the trials. 
 When you are ready to start the experimental trials, please press space or touch the button below.",,,5eb087ed7f6d1e1232690d6a,61,2022-02-12_14h57.32.857,lexical_decision_task_DD_L3,2021.2.3,Win32,60.2373351,,,,,,,,,,,,,,,,,,,,,0,0,0,0,1,,,,,,,,,,,,,,,,,,,,,,,,,,,,,,,,,,,,,,,,,,,,,,,,,,,,,,,,,,,,,
,,,,,,,,,,,,,,,,,5eb087ed7f6d1e1232690d6a,61,2022-02-12_14h57.32.857,lexical_decision_task_DD_L3,2021.2.3,Win32,60.2373351,,,,,,,,,,,1.6574,1,,,,,,,,,,,,,,z,1,1.6574,,,,,,,,0.0851852,-0.359259272,0,0,0,,0,0,0,125,1,MOOKY,LB,old,z,./images/MOOKYLB.png,,,,,,,,,,,,,,,,,,,,,,,,,,,,,,,,,,,
,,,,,,,,,,,,,,,,,5eb087ed7f6d1e1232690d6a,61,2022-02-12_14h57.32.857,lexical_decision_task_DD_L3,2021.2.3,Win32,60.2373351,,,,,,,,,,,1.1475,1,,,,,,,,,,,,,,z,1,1.1475,,,,,,,,0.0851852,-0.359259272,0,0,0,,0,1,1,104,1,GITTY,LB,old,z,./images/GITTYLB.png,,,,,,,,,,,,,,,,,,,,,,,,,,,,,,,,,,,
,,,,,,,,,,,,,,,,,5eb087ed7f6d1e1232690d6a,61,2022-02-12_14h57.32.857,lexical_decision_task_DD_L3,2021.2.3,Win32,60.2373351,,,,,,,,,,,0.7106,1,,,,,,,,,,,,,,z,1,0.7106,,,,,,,,0.0851852,-0.359259272,0,0,0,,0,2,2,158,1,EGECT,LB,old,z,./images/EGECTLB.png,,,,,,,,,,,,,,,,,,,,,,,,,,,,,,,,,,,
,,,,,,,,,,,,,,,,,5eb087ed7f6d1e1232690d6a,61,2022-02-12_14h57.32.857,lexical_decision_task_DD_L3,2021.2.3,Win32,60.2373351,,,,,,,,,,,0.6682,1,,,,,,,,,,,,,,z,1,0.6682,,,,,,,,0.0851852,-0.359259272,0,0,0,,0,3,3,117,1,STEEG,C,old,z,./images/STEEG.png,,,,,,,,,,,,,,,,,,,,,,,,,,,,,,,,,,,
,,,,,,,,,,,,,,,,,5eb087ed7f6d1e1232690d6a,61,2022-02-12_14h57.32.857,lexical_decision_task_DD_L3,2021.2.3,Win32,60.2373351,,,,,,,,,,,0.5528,1,,,,,,,,,,,,,,z,1,0.5528,,,,,,,,0.0851852,-0.359259272,0,0,0,,0,4,4,141,1,PLEET,C,old,z,./images/PLEET.png,,,,,,,,,,,,,,,,,,,,,,,,,,,,,,,,,,,
,,,,,,,,,,,,,,,,,5eb087ed7f6d1e1232690d6a,61,2022-02-12_14h57.32.857,lexical_decision_task_DD_L3,2021.2.3,Win32,60.2373351,,,,,,,,,,,0.6557,1,,,,,,,,,,,,,,m,1,0.6557,,,,,,,,0.0851852,-0.359259272,0,0,0,,0,5,5,37,1,BIRTH,C,old,m,./images/BIRTH.png,,,,,,,,,,,,,,,,,,,,,,,,,,,,,,,,,,,
,,,,,,,,,,,,,,,,,5eb087ed7f6d1e1232690d6a,61,2022-02-12_14h57.32.857,lexical_decision_task_DD_L3,2021.2.3,Win32,60.2373351,,,,,,,,,,,0.5402,1,,,,,,,,,,,,,,m,1,0.5402,,,,,,,,0.0851852,-0.359259272,0,0,0,,0,6,6,76,1,INFANT,C,old,m,./images/INFANT.png,,,,,,,,,,,,,,,,,,,,,,,,,,,,,,,,,,,
,,,,,,,,,,,,,,,,,5eb087ed7f6d1e1232690d6a,61,2022-02-12_14h57.32.857,lexical_decision_task_DD_L3,2021.2.3,Win32,60.2373351,,,,,,,,,,,0.6419,1,,,,,,,,,,,,,,m,1,0.6419,,,,,,,,0.0851852,-0.359259272,0,0,0,,0,7,7,58,1,BABOON,C,old,m,./images/BABOON.png,,,,,,,,,,,,,,,,,,,,,,,,,,,,,,,,,,,
,,,,,,,,,,,,,,,,,5eb087ed7f6d1e1232690d6a,61,2022-02-12_14h57.32.857,lexical_decision_task_DD_L3,2021.2.3,Win32,60.2373351,,,,,,,,,,,0.6913,1,,,,,,,,,,,,,,z,1,0.6913,,,,,,,,0.0851852,-0.359259272,0,0,0,,0,8,8,101,1,GLEET,LB,old,z,./images/GLEETLB.png,,,,,,,,,,,,,,,,,,,,,,,,,,,,,,,,,,,
,,,,,,,,,,,,,,,,,5eb087ed7f6d1e1232690d6a,61,2022-02-12_14h57.32.857,lexical_decision_task_DD_L3,2021.2.3,Win32,60.2373351,,,,,,,,,,,0.7077,1,,,,,,,,,,,,,,m,1,0.7077,,,,,,,,0.0851852,-0.359259272,0,0,0,,0,9,9,18,1,JAGUAR,LB,old,m,./images/JAGUARLB.png,,,,,,,,,,,,,,,,,,,,,,,,,,,,,,,,,,,
,,,,,,,,,,,,,,,,,5eb087ed7f6d1e1232690d6a,61,2022-02-12_14h57.32.857,lexical_decision_task_DD_L3,2021.2.3,Win32,60.2373351,,,,,,,,,,,0.7873,0,,,,,,,,,,,,,,z,0,0.7873,,,,,,,,0.0851852,-0.359259272,0,0,0,,0,10,10,38,1,LADDER,HB,old,m,./images/LADDERHB.png,,,,,,,,,,,,,,,,,,,,,,,,,,,,,,,,,,,
,,,,,,,,,,,,,,,,,5eb087ed7f6d1e1232690d6a,61,2022-02-12_14h57.32.857,lexical_decision_task_DD_L3,2021.2.3,Win32,60.2373351,,,,,,,,,,,1.0417,0,,,,,,,,,,,,,,z,0,1.0417,,,,,,,,0.0851852,-0.359259272,0,0,0,,0,11,11,23,1,WALRUS,HB,old,m,./images/WALRUSHB.png,,,,,,,,,,,,,,,,,,,,,,,,,,,,,,,,,,,
,,,,,,,,,,,,,,,,,5eb087ed7f6d1e1232690d6a,61,2022-02-12_14h57.32.857,lexical_decision_task_DD_L3,2021.2.3,Win32,60.2373351,,,,,,,,,,,0.7782,1,,,,,,,,,,,,,,z,1,0.7782,,,,,,,,0.0851852,-0.359259272,0,0,0,,0,12,12,135,1,JOODY,C,old,z,./images/JOODY.png,,,,,,,,,,,,,,,,,,,,,,,,,,,,,,,,,,,
,,,,,,,,,,,,,,,,,5eb087ed7f6d1e1232690d6a,61,2022-02-12_14h57.32.857,lexical_decision_task_DD_L3,2021.2.3,Win32,60.2373351,,,,,,,,,,,0.8722,1,,,,,,,,,,,,,,z,1,0.8722,,,,,,,,0.0851852,-0.359259272,0,0,0,,0,13,13,92,1,PAIMS,LB,old,z,./images/PAIMSLB.png,,,,,,,,,,,,,,,,,,,,,,,,,,,,,,,,,,,
,,,,,,,,,,,,,,,,,5eb087ed7f6d1e1232690d6a,61,2022-02-12_14h57.32.857,lexical_decision_task_DD_L3,2021.2.3,Win32,60.2373351,,,,,,,,,,,0.7804,1,,,,,,,,,,,,,,m,1,0.7804,,,,,,,,0.0851852,-0.359259272,0,0,0,,0,14,14,13,1,MOTOR,C,old,m,./images/MOTOR.png,,,,,,,,,,,,,,,,,,,,,,,,,,,,,,,,,,,
,,,,,,,,,,,,,,,,,5eb087ed7f6d1e1232690d6a,61,2022-02-12_14h57.32.857,lexical_decision_task_DD_L3,2021.2.3,Win32,60.2373351,,,,,,,,,,,0.8099,1,,,,,,,,,,,,,,z,1,0.8099,,,,,,,,0.0851852,-0.359259272,0,0,0,,0,15,15,159,1,CUDDY,C,old,z,./images/CUDDY.png,,,,,,,,,,,,,,,,,,,,,,,,,,,,,,,,,,,
,,,,,,,,,,,,,,,,,5eb087ed7f6d1e1232690d6a,61,2022-02-12_14h57.32.857,lexical_decision_task_DD_L3,2021.2.3,Win32,60.2373351,,,,,,,,,,,0.826,1,,,,,,,,,,,,,,z,1,0.826,,,,,,,,0.0851852,-0.359259272,0,0,0,,0,16,16,129,1,PRANS,C,old,z,./images/PRANS.png,,,,,,,,,,,,,,,,,,,,,,,,,,,,,,,,,,,
,,,,,,,,,,,,,,,,,5eb087ed7f6d1e1232690d6a,61,2022-02-12_14h57.32.857,lexical_decision_task_DD_L3,2021.2.3,Win32,60.2373351,,,,,,,,,,,1.353,0,,,,,,,,,,,,,,z,0,1.353,,,,,,,,0.0851852,-0.359259272,0,0,0,,0,17,17,47,1,BERRY,HB,old,m,./images/BERRYHB.png,,,,,,,,,,,,,,,,,,,,,,,,,,,,,,,,,,,
,,,,,,,,,,,,,,,,,5eb087ed7f6d1e1232690d6a,61,2022-02-12_14h57.32.857,lexical_decision_task_DD_L3,2021.2.3,Win32,60.2373351,,,,,,,,,,,0.8925,1,,,,,,,,,,,,,,m,1,0.8925,,,,,,,,0.0851852,-0.359259272,0,0,0,,0,18,18,43,1,MOSQUE,C,old,m,./images/MOSQUE.png,,,,,,,,,,,,,,,,,,,,,,,,,,,,,,,,,,,
,,,,,,,,,,,,,,,,,5eb087ed7f6d1e1232690d6a,61,2022-02-12_14h57.32.857,lexical_decision_task_DD_L3,2021.2.3,Win32,60.2373351,,,,,,,,,,,0.6591,1,,,,,,,,,,,,,,z,1,0.6591,,,,,,,,0.0851852,-0.359259272,0,0,0,,0,19,19,132,1,SCIFF,C,old,z,./images/SCIFF.png,,,,,,,,,,,,,,,,,,,,,,,,,,,,,,,,,,,
,,,,,,,,,,,,,,,,,5eb087ed7f6d1e1232690d6a,61,2022-02-12_14h57.32.857,lexical_decision_task_DD_L3,2021.2.3,Win32,60.2373351,,,,,,,,,,,0.7836,1,,,,,,,,,,,,,,m,1,0.7836,,,,,,,,0.0851852,-0.359259272,0,0,0,,0,20,20,80,1,WEASEL,HB,old,m,./images/WEASELHB.png,,,,,,,,,,,,,,,,,,,,,,,,,,,,,,,,,,,
,,,,,,,,,,,,,,,,,5eb087ed7f6d1e1232690d6a,61,2022-02-12_14h57.32.857,lexical_decision_task_DD_L3,2021.2.3,Win32,60.2373351,,,,,,,,,,,0.9547,0,,,,,,,,,,,,,,m,0,0.9547,,,,,,,,0.0851852,-0.359259272,0,0,0,,0,21,21,115,1,MAWNS,HB,old,z,./images/MAWNSHB.png,,,,,,,,,,,,,,,,,,,,,,,,,,,,,,,,,,,
,,,,,,,,,,,,,,,,,5eb087ed7f6d1e1232690d6a,61,2022-02-12_14h57.32.857,lexical_decision_task_DD_L3,2021.2.3,Win32,60.2373351,,,,,,,,,,,0.668,1,,,,,,,,,,,,,,m,1,0.668,,,,,,,,0.0851852,-0.359259272,0,0,0,,0,22,22,15,1,GREASE,LB,old,m,./images/GREASELB.png,,,,,,,,,,,,,,,,,,,,,,,,,,,,,,,,,,,
,,,,,,,,,,,,,,,,,5eb087ed7f6d1e1232690d6a,61,2022-02-12_14h57.32.857,lexical_decision_task_DD_L3,2021.2.3,Win32,60.2373351,,,,,,,,,,,0.7925,1,,,,,,,,,,,,,,z,1,0.7925,,,,,,,,0.0851852,-0.359259272,0,0,0,,0,23,23,149,1,VEASE,LB,old,z,./images/VEASELB.png,,,,,,,,,,,,,,,,,,,,,,,,,,,,,,,,,,,
,,,,,,,,,,,,,,,,,5eb087ed7f6d1e1232690d6a,61,2022-02-12_14h57.32.857,lexical_decision_task_DD_L3,2021.2.3,Win32,60.2373351,,,,,,,,,,,0.7832,1,,,,,,,,,,,,,,z,1,0.7832,,,,,,,,0.0851852,-0.359259272,0,0,0,,0,24,24,138,1,PLICE,C,old,z,./images/PLICE.png,,,,,,,,,,,,,,,,,,,,,,,,,,,,,,,,,,,
,,,,,,,,,,,,,,,,,5eb087ed7f6d1e1232690d6a,61,2022-02-12_14h57.32.857,lexical_decision_task_DD_L3,2021.2.3,Win32,60.2373351,,,,,,,,,,,0.6788,1,,,,,,,,,,,,,,m,1,0.6788,,,,,,,,0.0851852,-0.359259272,0,0,0,,0,25,25,14,1,PICKLE,HB,old,m,./images/PICKLEHB.png,,,,,,,,,,,,,,,,,,,,,,,,,,,,,,,,,,,
,,,,,,,,,,,,,,,,,5eb087ed7f6d1e1232690d6a,61,2022-02-12_14h57.32.857,lexical_decision_task_DD_L3,2021.2.3,Win32,60.2373351,,,,,,,,,,,0.7179,1,,,,,,,,,,,,,,m,1,0.7179,,,,,,,,0.0851852,-0.359259272,0,0,0,,0,26,26,77,1,COUCH,HB,old,m,./images/COUCHHB.png,,,,,,,,,,,,,,,,,,,,,,,,,,,,,,,,,,,
,,,,,,,,,,,,,,,,,5eb087ed7f6d1e1232690d6a,61,2022-02-12_14h57.32.857,lexical_decision_task_DD_L3,2021.2.3,Win32,60.2373351,,,,,,,,,,,1.1491,1,,,,,,,,,,,,,,z,1,1.1491,,,,,,,,0.0851852,-0.359259272,0,0,0,,0,27,27,124,1,TUNCH,HB,old,z,./images/TUNCHHB.png,,,,,,,,,,,,,,,,,,,,,,,,,,,,,,,,,,,
,,,,,,,,,,,,,,,,,5eb087ed7f6d1e1232690d6a,61,2022-02-12_14h57.32.857,lexical_decision_task_DD_L3,2021.2.3,Win32,60.2373351,,,,,,,,,,,1.3519,1,,,,,,,,,,,,,,z,1,1.3519,,,,,,,,0.0851852,-0.359259272,0,0,0,,0,28,28,118,1,BAVEL,HB,old,z,./images/BAVELHB.png,,,,,,,,,,,,,,,,,,,,,,,,,,,,,,,,,,,
,,,,,,,,,,,,,,,,,5eb087ed7f6d1e1232690d6a,61,2022-02-12_14h57.32.857,lexical_decision_task_DD_L3,2021.2.3,Win32,60.2373351,,,,,,,,,,,1.4937,0,,,,,,,,,,,,,,m,0,1.4937,,,,,,,,0.0851852,-0.359259272,0,0,0,,0,29,29,136,1,WERVE,HB,old,z,./images/WERVEHB.png,,,,,,,,,,,,,,,,,,,,,,,,,,,,,,,,,,,
,,,,,,,,,,,,,,,,,5eb087ed7f6d1e1232690d6a,61,2022-02-12_14h57.32.857,lexical_decision_task_DD_L3,2021.2.3,Win32,60.2373351,,,,,,,,,,,0.624,1,,,,,,,,,,,,,,m,1,0.624,,,,,,,,0.0851852,-0.359259272,0,0,0,,0,30,30,6,1,SQUARE,LB,old,m,./images/SQUARELB.png,,,,,,,,,,,,,,,,,,,,,,,,,,,,,,,,,,,
,,,,,,,,,,,,,,,,,5eb087ed7f6d1e1232690d6a,61,2022-02-12_14h57.32.857,lexical_decision_task_DD_L3,2021.2.3,Win32,60.2373351,,,,,,,,,,,0.5412,1,,,,,,,,,,,,,,m,1,0.5412,,,,,,,,0.0851852,-0.359259272,0,0,0,,0,31,31,40,1,SWING,C,old,m,./images/SWING.png,,,,,,,,,,,,,,,,,,,,,,,,,,,,,,,,,,,
,,,,,,,,,,,,,,,,,5eb087ed7f6d1e1232690d6a,61,2022-02-12_14h57.32.857,lexical_decision_task_DD_L3,2021.2.3,Win32,60.2373351,,,,,,,,,,,1.443,1,,,,,,,,,,,,,,z,1,1.443,,,,,,,,0.0851852,-0.359259272,0,0,0,,0,32,32,127,1,NINDY,HB,old,z,./images/NINDYHB.png,,,,,,,,,,,,,,,,,,,,,,,,,,,,,,,,,,,
,,,,,,,,,,,,,,,,,5eb087ed7f6d1e1232690d6a,61,2022-02-12_14h57.32.857,lexical_decision_task_DD_L3,2021.2.3,Win32,60.2373351,,,,,,,,,,,0.6281,1,,,,,,,,,,,,,,m,1,0.6281,,,,,,,,0.0851852,-0.359259272,0,0,0,,0,33,33,67,1,SAILOR,C,old,m,./images/SAILOR.png,,,,,,,,,,,,,,,,,,,,,,,,,,,,,,,,,,,
,,,,,,,,,,,,,,,,,5eb087ed7f6d1e1232690d6a,61,2022-02-12_14h57.32.857,lexical_decision_task_DD_L3,2021.2.3,Win32,60.2373351,,,,,,,,,,,0.594,1,,,,,,,,,,,,,,m,1,0.594,,,,,,,,0.0851852,-0.359259272,0,0,0,,0,34,34,49,1,DRUMS,C,old,m,./images/DRUMS.png,,,,,,,,,,,,,,,,,,,,,,,,,,,,,,,,,,,
,,,,,,,,,,,,,,,,,5eb087ed7f6d1e1232690d6a,61,2022-02-12_14h57.32.857,lexical_decision_task_DD_L3,2021.2.3,Win32,60.2373351,,,,,,,,,,,0.5367,1,,,,,,,,,,,,,,m,1,0.5367,,,,,,,,0.0851852,-0.359259272,0,0,0,,0,35,35,4,1,MUSCLE,C,old,m,./images/MUSCLE.png,,,,,,,,,,,,,,,,,,,,,,,,,,,,,,,,,,,
,,,,,,,,,,,,,,,,,5eb087ed7f6d1e1232690d6a,61,2022-02-12_14h57.32.857,lexical_decision_task_DD_L3,2021.2.3,Win32,60.2373351,,,,,,,,,,,0.7384,1,,,,,,,,,,,,,,z,1,0.7384,,,,,,,,0.0851852,-0.359259272,0,0,0,,0,36,36,116,1,BALGY,LB,old,z,./images/BALGYLB.png,,,,,,,,,,,,,,,,,,,,,,,,,,,,,,,,,,,
,,,,,,,,,,,,,,,,,5eb087ed7f6d1e1232690d6a,61,2022-02-12_14h57.32.857,lexical_decision_task_DD_L3,2021.2.3,Win32,60.2373351,,,,,,,,,,,0.8512,1,,,,,,,,,,,,,,m,1,0.8512,,,,,,,,0.0851852,-0.359259272,0,0,0,,0,37,37,8,1,TULIP,HB,old,m,./images/TULIPHB.png,,,,,,,,,,,,,,,,,,,,,,,,,,,,,,,,,,,
,,,,,,,,,,,,,,,,,5eb087ed7f6d1e1232690d6a,61,2022-02-12_14h57.32.857,lexical_decision_task_DD_L3,2021.2.3,Win32,60.2373351,,,,,,,,,,,0.6606,1,,,,,,,,,,,,,,m,1,0.6606,,,,,,,,0.0851852,-0.359259272,0,0,0,,0,38,38,33,1,MAGGOT,LB,old,m,./images/MAGGOTLB.png,,,,,,,,,,,,,,,,,,,,,,,,,,,,,,,,,,,
,,,,,,,,,,,,,,,,,5eb087ed7f6d1e1232690d6a,61,2022-02-12_14h57.32.857,lexical_decision_task_DD_L3,2021.2.3,Win32,60.2373351,,,,,,,,,,,1.2158,1,,,,,,,,,,,,,,z,1,1.2158,,,,,,,,0.0851852,-0.359259272,0,0,0,,0,39,39,109,1,BURGE,HB,old,z,./images/BURGEHB.png,,,,,,,,,,,,,,,,,,,,,,,,,,,,,,,,,,,
,,,,,,,,,,,,,,,,,5eb087ed7f6d1e1232690d6a,61,2022-02-12_14h57.32.857,lexical_decision_task_DD_L3,2021.2.3,Win32,60.2373351,,,,,,,,,,,0.7436,1,,,,,,,,,,,,,,m,1,0.7436,,,,,,,,0.0851852,-0.359259272,0,0,0,,0,40,40,10,1,BELLY,C,old,m,./images/BELLY.png,,,,,,,,,,,,,,,,,,,,,,,,,,,,,,,,,,,
,,,,,,,,,,,,,,,,,5eb087ed7f6d1e1232690d6a,61,2022-02-12_14h57.32.857,lexical_decision_task_DD_L3,2021.2.3,Win32,60.2373351,,,,,,,,,,,0.7217,1,,,,,,,,,,,,,,z,1,0.7217,,,,,,,,0.0851852,-0.359259272,0,0,0,space,0,41,41,152,1,FRAIN,LB,old,z,./images/FRAINLB.png,5.3144,,,,,,,,,,,,,,,,,,,,,,,,,,,,,,,,,,
,,,,,,,,,,,,,,,,,5eb087ed7f6d1e1232690d6a,61,2022-02-12_14h57.32.857,lexical_decision_task_DD_L3,2021.2.3,Win32,60.2373351,,,,,,,,,,,1.2847,1,,,,,,,,,,,,,,z,1,1.2847,,,,,,,,0.0851852,-0.359259272,0,0,0,,0,42,42,112,1,MYING,HB,old,z,./images/MYINGHB.png,,,,,,,,,,,,,,,,,,,,,,,,,,,,,,,,,,,
,,,,,,,,,,,,,,,,,5eb087ed7f6d1e1232690d6a,61,2022-02-12_14h57.32.857,lexical_decision_task_DD_L3,2021.2.3,Win32,60.2373351,,,,,,,,,,,1.4129,1,,,,,,,,,,,,,,z,1,1.4129,,,,,,,,0.0851852,-0.359259272,0,0,0,,0,43,43,139,1,BLEAR,HB,old,z,./images/BLEARHB.png,,,,,,,,,,,,,,,,,,,,,,,,,,,,,,,,,,,
,,,,,,,,,,,,,,,,,5eb087ed7f6d1e1232690d6a,61,2022-02-12_14h57.32.857,lexical_decision_task_DD_L3,2021.2.3,Win32,60.2373351,,,,,,,,,,,1.2222,0,,,,,,,,,,,,,,m,0,1.2222,,,,,,,,0.0851852,-0.359259272,0,0,0,,0,44,44,148,1,JOMS,HB,old,z,./images/JOMSHB.png,,,,,,,,,,,,,,,,,,,,,,,,,,,,,,,,,,,
,,,,,,,,,,,,,,,,,5eb087ed7f6d1e1232690d6a,61,2022-02-12_14h57.32.857,lexical_decision_task_DD_L3,2021.2.3,Win32,60.2373351,,,,,,,,,,,0.5753,1,,,,,,,,,,,,,,m,1,0.5753,,,,,,,,0.0851852,-0.359259272,0,0,0,,0,45,45,22,1,MELON,C,old,m,./images/MELON.png,,,,,,,,,,,,,,,,,,,,,,,,,,,,,,,,,,,
,,,,,,,,,,,,,,,,,5eb087ed7f6d1e1232690d6a,61,2022-02-12_14h57.32.857,lexical_decision_task_DD_L3,2021.2.3,Win32,60.2373351,,,,,,,,,,,0.8115,1,,,,,,,,,,,,,,z,1,0.8115,,,,,,,,0.0851852,-0.359259272,0,0,0,,0,46,46,140,1,DOVET,LB,old,z,./images/DOVETLB.png,,,,,,,,,,,,,,,,,,,,,,,,,,,,,,,,,,,
,,,,,,,,,,,,,,,,,5eb087ed7f6d1e1232690d6a,61,2022-02-12_14h57.32.857,lexical_decision_task_DD_L3,2021.2.3,Win32,60.2373351,,,,,,,,,,,0.8143,0,,,,,,,,,,,,,,m,0,0.8143,,,,,,,,0.0851852,-0.359259272,0,0,0,,0,47,47,128,1,GRIFT,LB,old,z,./images/GRIFTLB.png,,,,,,,,,,,,,,,,,,,,,,,,,,,,,,,,,,,
,,,,,,,,,,,,,,,,,5eb087ed7f6d1e1232690d6a,61,2022-02-12_14h57.32.857,lexical_decision_task_DD_L3,2021.2.3,Win32,60.2373351,,,,,,,,,,,0.7188,1,,,,,,,,,,,,,,m,1,0.7188,,,,,,,,0.0851852,-0.359259272,0,0,0,,0,48,48,53,1,CARPET,HB,old,m,./images/CARPETHB.png,,,,,,,,,,,,,,,,,,,,,,,,,,,,,,,,,,,
,,,,,,,,,,,,,,,,,5eb087ed7f6d1e1232690d6a,61,2022-02-12_14h57.32.857,lexical_decision_task_DD_L3,2021.2.3,Win32,60.2373351,,,,,,,,,,,0.6951,1,,,,,,,,,,,,,,m,1,0.6951,,,,,,,,0.0851852,-0.359259272,0,0,0,,0,49,49,32,1,BARREL,HB,old,m,./images/BARRELHB.png,,,,,,,,,,,,,,,,,,,,,,,,,,,,,,,,,,,
,,,,,,,,,,,,,,,,,5eb087ed7f6d1e1232690d6a,61,2022-02-12_14h57.32.857,lexical_decision_task_DD_L3,2021.2.3,Win32,60.2373351,,,,,,,,,,,0.7522,1,,,,,,,,,,,,,,m,1,0.7522,,,,,,,,0.0851852,-0.359259272,0,0,0,,0,50,50,56,1,PACKET,HB,old,m,./images/PACKETHB.png,,,,,,,,,,,,,,,,,,,,,,,,,,,,,,,,,,,
,,,,,,,,,,,,,,,,,5eb087ed7f6d1e1232690d6a,61,2022-02-12_14h57.32.857,lexical_decision_task_DD_L3,2021.2.3,Win32,60.2373351,,,,,,,,,,,1.268,0,,,,,,,,,,,,,,z,0,1.268,,,,,,,,0.0851852,-0.359259272,0,0,0,,0,51,51,59,1,BURIAL,HB,old,m,./images/BURIALHB.png,,,,,,,,,,,,,,,,,,,,,,,,,,,,,,,,,,,
,,,,,,,,,,,,,,,,,5eb087ed7f6d1e1232690d6a,61,2022-02-12_14h57.32.857,lexical_decision_task_DD_L3,2021.2.3,Win32,60.2373351,,,,,,,,,,,0.681,1,,,,,,,,,,,,,,m,1,0.681,,,,,,,,0.0851852,-0.359259272,0,0,0,,0,52,52,75,1,GRAIN,LB,old,m,./images/GRAINLB.png,,,,,,,,,,,,,,,,,,,,,,,,,,,,,,,,,,,
,,,,,,,,,,,,,,,,,5eb087ed7f6d1e1232690d6a,61,2022-02-12_14h57.32.857,lexical_decision_task_DD_L3,2021.2.3,Win32,60.2373351,,,,,,,,,,,0.6389,1,,,,,,,,,,,,,,m,1,0.6389,,,,,,,,0.0851852,-0.359259272,0,0,0,,0,53,53,39,1,SHELF,LB,old,m,./images/SHELFLB.png,,,,,,,,,,,,,,,,,,,,,,,,,,,,,,,,,,,
,,,,,,,,,,,,,,,,,5eb087ed7f6d1e1232690d6a,61,2022-02-12_14h57.32.857,lexical_decision_task_DD_L3,2021.2.3,Win32,60.2373351,,,,,,,,,,,1.0664,1,,,,,,,,,,,,,,m,1,1.0664,,,,,,,,0.0851852,-0.359259272,0,0,0,,0,54,54,26,1,SMOKER,HB,old,m,./images/SMOKERHB.png,,,,,,,,,,,,,,,,,,,,,,,,,,,,,,,,,,,
,,,,,,,,,,,,,,,,,5eb087ed7f6d1e1232690d6a,61,2022-02-12_14h57.32.857,lexical_decision_task_DD_L3,2021.2.3,Win32,60.2373351,,,,,,,,,,,0.5433,1,,,,,,,,,,,,,,m,1,0.5433,,,,,,,,0.0851852,-0.359259272,0,0,0,,0,55,55,52,1,BANNER,C,old,m,./images/BANNER.png,,,,,,,,,,,,,,,,,,,,,,,,,,,,,,,,,,,
,,,,,,,,,,,,,,,,,5eb087ed7f6d1e1232690d6a,61,2022-02-12_14h57.32.857,lexical_decision_task_DD_L3,2021.2.3,Win32,60.2373351,,,,,,,,,,,0.5881,1,,,,,,,,,,,,,,m,1,0.5881,,,,,,,,0.0851852,-0.359259272,0,0,0,,0,56,56,7,1,PAINT,C,old,m,./images/PAINT.png,,,,,,,,,,,,,,,,,,,,,,,,,,,,,,,,,,,
,,,,,,,,,,,,,,,,,5eb087ed7f6d1e1232690d6a,61,2022-02-12_14h57.32.857,lexical_decision_task_DD_L3,2021.2.3,Win32,60.2373351,,,,,,,,,,,0.7675,1,,,,,,,,,,,,,,z,1,0.7675,,,,,,,,0.0851852,-0.359259272,0,0,0,,0,57,57,146,1,MOOST,LB,old,z,./images/MOOSTLB.png,,,,,,,,,,,,,,,,,,,,,,,,,,,,,,,,,,,
,,,,,,,,,,,,,,,,,5eb087ed7f6d1e1232690d6a,61,2022-02-12_14h57.32.857,lexical_decision_task_DD_L3,2021.2.3,Win32,60.2373351,,,,,,,,,,,1.0423,1,,,,,,,,,,,,,,z,1,1.0423,,,,,,,,0.0851852,-0.359259272,0,0,0,,0,58,58,114,1,RIKES,C,old,z,./images/RIKES.png,,,,,,,,,,,,,,,,,,,,,,,,,,,,,,,,,,,
,,,,,,,,,,,,,,,,,5eb087ed7f6d1e1232690d6a,61,2022-02-12_14h57.32.857,lexical_decision_task_DD_L3,2021.2.3,Win32,60.2373351,,,,,,,,,,,0.6774,1,,,,,,,,,,,,,,m,1,0.6774,,,,,,,,0.0851852,-0.359259272,0,0,0,,0,59,59,64,1,JELLY,C,old,m,./images/JELLY.png,,,,,,,,,,,,,,,,,,,,,,,,,,,,,,,,,,,
,,,,,,,,,,,,,,,,,5eb087ed7f6d1e1232690d6a,61,2022-02-12_14h57.32.857,lexical_decision_task_DD_L3,2021.2.3,Win32,60.2373351,,,,,,,,,,,0.6648,1,,,,,,,,,,,,,,m,1,0.6648,,,,,,,,0.0851852,-0.359259272,0,0,0,,0,60,60,9,1,RHINO,LB,old,m,./images/RHINOLB.png,,,,,,,,,,,,,,,,,,,,,,,,,,,,,,,,,,,
,,,,,,,,,,,,,,,,,5eb087ed7f6d1e1232690d6a,61,2022-02-12_14h57.32.857,lexical_decision_task_DD_L3,2021.2.3,Win32,60.2373351,,,,,,,,,,,0.7126,1,,,,,,,,,,,,,,z,1,0.7126,,,,,,,,0.0851852,-0.359259272,0,0,0,,0,61,61,86,1,AIFED,LB,old,z,./images/AIFEDLB.png,,,,,,,,,,,,,,,,,,,,,,,,,,,,,,,,,,,
,,,,,,,,,,,,,,,,,5eb087ed7f6d1e1232690d6a,61,2022-02-12_14h57.32.857,lexical_decision_task_DD_L3,2021.2.3,Win32,60.2373351,,,,,,,,,,,0.6524,1,,,,,,,,,,,,,,m,1,0.6524,,,,,,,,0.0851852,-0.359259272,0,0,0,,0,62,62,42,1,FOLDER,LB,old,m,./images/FOLDERLB.png,,,,,,,,,,,,,,,,,,,,,,,,,,,,,,,,,,,
,,,,,,,,,,,,,,,,,5eb087ed7f6d1e1232690d6a,61,2022-02-12_14h57.32.857,lexical_decision_task_DD_L3,2021.2.3,Win32,60.2373351,,,,,,,,,,,1.1347,1,,,,,,,,,,,,,,z,1,1.1347,,,,,,,,0.0851852,-0.359259272,0,0,0,,0,63,63,151,1,TINKY,HB,old,z,./images/TINKYHB.png,,,,,,,,,,,,,,,,,,,,,,,,,,,,,,,,,,,
,,,,,,,,,,,,,,,,,5eb087ed7f6d1e1232690d6a,61,2022-02-12_14h57.32.857,lexical_decision_task_DD_L3,2021.2.3,Win32,60.2373351,,,,,,,,,,,1.2729,1,,,,,,,,,,,,,,z,1,1.2729,,,,,,,,0.0851852,-0.359259272,0,0,0,,0,64,64,133,1,POWDY,HB,old,z,./images/POWDYHB.png,,,,,,,,,,,,,,,,,,,,,,,,,,,,,,,,,,,
,,,,,,,,,,,,,,,,,5eb087ed7f6d1e1232690d6a,61,2022-02-12_14h57.32.857,lexical_decision_task_DD_L3,2021.2.3,Win32,60.2373351,,,,,,,,,,,0.7952,1,,,,,,,,,,,,,,z,1,0.7952,,,,,,,,0.0851852,-0.359259272,0,0,0,,0,65,65,153,1,CLUPS,C,old,z,./images/CLUPS.png,,,,,,,,,,,,,,,,,,,,,,,,,,,,,,,,,,,
,,,,,,,,,,,,,,,,,5eb087ed7f6d1e1232690d6a,61,2022-02-12_14h57.32.857,lexical_decision_task_DD_L3,2021.2.3,Win32,60.2373351,,,,,,,,,,,0.788,1,,,,,,,,,,,,,,z,1,0.788,,,,,,,,0.0851852,-0.359259272,0,0,0,,0,66,66,137,1,JOOST,LB,old,z,./images/JOOSTLB.png,,,,,,,,,,,,,,,,,,,,,,,,,,,,,,,,,,,
,,,,,,,,,,,,,,,,,5eb087ed7f6d1e1232690d6a,61,2022-02-12_14h57.32.857,lexical_decision_task_DD_L3,2021.2.3,Win32,60.2373351,,,,,,,,,,,0.6638,1,,,,,,,,,,,,,,z,1,0.6638,,,,,,,,0.0851852,-0.359259272,0,0,0,,0,67,67,95,1,HANTY,LB,old,z,./images/HANTYLB.png,,,,,,,,,,,,,,,,,,,,,,,,,,,,,,,,,,,
,,,,,,,,,,,,,,,,,5eb087ed7f6d1e1232690d6a,61,2022-02-12_14h57.32.857,lexical_decision_task_DD_L3,2021.2.3,Win32,60.2373351,,,,,,,,,,,1.0223,1,,,,,,,,,,,,,,m,1,1.0223,,,,,,,,0.0851852,-0.359259272,0,0,0,,0,68,68,41,1,STRING,HB,old,m,./images/STRINGHB.png,,,,,,,,,,,,,,,,,,,,,,,,,,,,,,,,,,,
,,,,,,,,,,,,,,,,,5eb087ed7f6d1e1232690d6a,61,2022-02-12_14h57.32.857,lexical_decision_task_DD_L3,2021.2.3,Win32,60.2373351,,,,,,,,,,,1.071,1,,,,,,,,,,,,,,m,1,1.071,,,,,,,,0.0851852,-0.359259272,0,0,0,,0,69,69,50,1,MALLET,HB,old,m,./images/MALLETHB.png,,,,,,,,,,,,,,,,,,,,,,,,,,,,,,,,,,,
,,,,,,,,,,,,,,,,,5eb087ed7f6d1e1232690d6a,61,2022-02-12_14h57.32.857,lexical_decision_task_DD_L3,2021.2.3,Win32,60.2373351,,,,,,,,,,,1.2054,1,,,,,,,,,,,,,,m,1,1.2054,,,,,,,,0.0851852,-0.359259272,0,0,0,,0,70,70,29,1,CRUMB,HB,old,m,./images/CRUMBHB.png,,,,,,,,,,,,,,,,,,,,,,,,,,,,,,,,,,,
,,,,,,,,,,,,,,,,,5eb087ed7f6d1e1232690d6a,61,2022-02-12_14h57.32.857,lexical_decision_task_DD_L3,2021.2.3,Win32,60.2373351,,,,,,,,,,,0.6714,1,,,,,,,,,,,,,,m,1,0.6714,,,,,,,,0.0851852,-0.359259272,0,0,0,,0,71,71,66,1,SWEAT,LB,old,m,./images/SWEATLB.png,,,,,,,,,,,,,,,,,,,,,,,,,,,,,,,,,,,
,,,,,,,,,,,,,,,,,5eb087ed7f6d1e1232690d6a,61,2022-02-12_14h57.32.857,lexical_decision_task_DD_L3,2021.2.3,Win32,60.2373351,,,,,,,,,,,0.8313,1,,,,,,,,,,,,,,m,1,0.8313,,,,,,,,0.0851852,-0.359259272,0,0,0,,0,72,72,81,1,POODLE,LB,old,m,./images/POODLELB.png,,,,,,,,,,,,,,,,,,,,,,,,,,,,,,,,,,,
,,,,,,,,,,,,,,,,,5eb087ed7f6d1e1232690d6a,61,2022-02-12_14h57.32.857,lexical_decision_task_DD_L3,2021.2.3,Win32,60.2373351,,,,,,,,,,,0.6799,1,,,,,,,,,,,,,,z,1,0.6799,,,,,,,,0.0851852,-0.359259272,0,0,0,,0,73,73,155,1,CANGY,LB,old,z,./images/CANGYLB.png,,,,,,,,,,,,,,,,,,,,,,,,,,,,,,,,,,,
,,,,,,,,,,,,,,,,,5eb087ed7f6d1e1232690d6a,61,2022-02-12_14h57.32.857,lexical_decision_task_DD_L3,2021.2.3,Win32,60.2373351,,,,,,,,,,,0.8266,1,,,,,,,,,,,,,,z,1,0.8266,,,,,,,,0.0851852,-0.359259272,0,0,0,,0,74,74,99,1,BACKY,C,old,z,./images/BACKY.png,,,,,,,,,,,,,,,,,,,,,,,,,,,,,,,,,,,
,,,,,,,,,,,,,,,,,5eb087ed7f6d1e1232690d6a,61,2022-02-12_14h57.32.857,lexical_decision_task_DD_L3,2021.2.3,Win32,60.2373351,,,,,,,,,,,0.5972,1,,,,,,,,,,,,,,z,1,0.5972,,,,,,,,0.0851852,-0.359259272,0,0,0,,0,75,75,96,1,KEAMS,C,old,z,./images/KEAMS.png,,,,,,,,,,,,,,,,,,,,,,,,,,,,,,,,,,,
,,,,,,,,,,,,,,,,,5eb087ed7f6d1e1232690d6a,61,2022-02-12_14h57.32.857,lexical_decision_task_DD_L3,2021.2.3,Win32,60.2373351,,,,,,,,,,,1.0869,0,,,,,,,,,,,,,,z,0,1.0869,,,,,,,,0.0851852,-0.359259272,0,0,0,,0,76,76,17,1,SKIING,HB,old,m,./images/SKIINGHB.png,,,,,,,,,,,,,,,,,,,,,,,,,,,,,,,,,,,
,,,,,,,,,,,,,,,,,5eb087ed7f6d1e1232690d6a,61,2022-02-12_14h57.32.857,lexical_decision_task_DD_L3,2021.2.3,Win32,60.2373351,,,,,,,,,,,0.6429,1,,,,,,,,,,,,,,m,1,0.6429,,,,,,,,0.0851852,-0.359259272,0,0,0,,0,77,77,45,1,KITTEN,LB,old,m,./images/KITTENLB.png,,,,,,,,,,,,,,,,,,,,,,,,,,,,,,,,,,,
,,,,,,,,,,,,,,,,,5eb087ed7f6d1e1232690d6a,61,2022-02-12_14h57.32.857,lexical_decision_task_DD_L3,2021.2.3,Win32,60.2373351,,,,,,,,,,,0.5763,1,,,,,,,,,,,,,,m,1,0.5763,,,,,,,,0.0851852,-0.359259272,0,0,0,,0,78,78,19,1,DOUGH,C,old,m,./images/DOUGH.png,,,,,,,,,,,,,,,,,,,,,,,,,,,,,,,,,,,
,,,,,,,,,,,,,,,,,5eb087ed7f6d1e1232690d6a,61,2022-02-12_14h57.32.857,lexical_decision_task_DD_L3,2021.2.3,Win32,60.2373351,,,,,,,,,,,0.8816,1,,,,,,,,,,,,,,m,1,0.8816,,,,,,,,0.0851852,-0.359259272,0,0,0,,0,79,79,2,1,BEARD,HB,old,m,./images/BEARDHB.png,,,,,,,,,,,,,,,,,,,,,,,,,,,,,,,,,,,
,,,,,,,,,,,,,,,,,5eb087ed7f6d1e1232690d6a,61,2022-02-12_14h57.32.857,lexical_decision_task_DD_L3,2021.2.3,Win32,60.2373351,,,,,,,,,,,0.5927,1,,,,,,,,,,,,,,m,1,0.5927,,,,,,,,0.0851852,-0.359259272,0,0,0,,0,80,80,12,1,SHORE,LB,old,m,./images/SHORELB.png,,,,,,,,,,,,,,,,,,,,,,,,,,,,,,,,,,,
,,,,,,,,,,,,,,,,,5eb087ed7f6d1e1232690d6a,61,2022-02-12_14h57.32.857,lexical_decision_task_DD_L3,2021.2.3,Win32,60.2373351,,,,,,,,,,,1.2396,1,,,,,,,,,,,,,,z,1,1.2396,,,,,,,,0.0851852,-0.359259272,0,0,0,,0,81,81,106,1,CLUMS,HB,old,z,./images/CLUMSHB.png,,,,,,,,,,,,,,,,,,,,,,,,,,,,,,,,,,,
,,,,,,,,,,,,,,,,,5eb087ed7f6d1e1232690d6a,61,2022-02-12_14h57.32.857,lexical_decision_task_DD_L3,2021.2.3,Win32,60.2373351,,,,,,,,,,,0.6607,1,,,,,,,,,,,,,,m,1,0.6607,,,,,,,,0.0851852,-0.359259272,0,0,0,,0,82,82,78,1,LITTER,LB,old,m,./images/LITTERLB.png,,,,,,,,,,,,,,,,,,,,,,,,,,,,,,,,,,,
,,,,,,,,,,,,,,,,,5eb087ed7f6d1e1232690d6a,61,2022-02-12_14h57.32.857,lexical_decision_task_DD_L3,2021.2.3,Win32,60.2373351,,,,,,,,,,,0.7743,1,,,,,,,,,,,,,,z,1,0.7743,,,,,,,,0.0851852,-0.359259272,0,0,0,space,0,83,83,160,1,VEETS,HB,old,z,./images/VEETSHB.png,4.6722,,,,,,,,,,,,,,,,,,,,,,,,,,,,,,,,,,
,,,,,,,,,,,,,,,,,5eb087ed7f6d1e1232690d6a,61,2022-02-12_14h57.32.857,lexical_decision_task_DD_L3,2021.2.3,Win32,60.2373351,,,,,,,,,,,1.2553,1,,,,,,,,,,,,,,m,1,1.2553,,,,,,,,0.0851852,-0.359259272,0,0,0,,0,84,84,11,1,BONNET,HB,old,m,./images/BONNETHB.png,,,,,,,,,,,,,,,,,,,,,,,,,,,,,,,,,,,
,,,,,,,,,,,,,,,,,5eb087ed7f6d1e1232690d6a,61,2022-02-12_14h57.32.857,lexical_decision_task_DD_L3,2021.2.3,Win32,60.2373351,,,,,,,,,,,1.2087,1,,,,,,,,,,,,,,z,1,1.2087,,,,,,,,0.0851852,-0.359259272,0,0,0,,0,85,85,120,1,RINED,C,old,z,./images/RINED.png,,,,,,,,,,,,,,,,,,,,,,,,,,,,,,,,,,,
,,,,,,,,,,,,,,,,,5eb087ed7f6d1e1232690d6a,61,2022-02-12_14h57.32.857,lexical_decision_task_DD_L3,2021.2.3,Win32,60.2373351,,,,,,,,,,,1.9908,1,,,,,,,,,,,,,,z,1,1.9908,,,,,,,,0.0851852,-0.359259272,0,0,0,,0,86,86,123,1,SEDGE,C,old,z,./images/SEDGE.png,,,,,,,,,,,,,,,,,,,,,,,,,,,,,,,,,,,
,,,,,,,,,,,,,,,,,5eb087ed7f6d1e1232690d6a,61,2022-02-12_14h57.32.857,lexical_decision_task_DD_L3,2021.2.3,Win32,60.2373351,,,,,,,,,,,0.5857,1,,,,,,,,,,,,,,m,1,0.5857,,,,,,,,0.0851852,-0.359259272,0,0,0,,0,87,87,51,1,ONION,LB,old,m,./images/ONIONLB.png,,,,,,,,,,,,,,,,,,,,,,,,,,,,,,,,,,,
,,,,,,,,,,,,,,,,,5eb087ed7f6d1e1232690d6a,61,2022-02-12_14h57.32.857,lexical_decision_task_DD_L3,2021.2.3,Win32,60.2373351,,,,,,,,,,,1.7999,1,,,,,,,,,,,,,,z,1,1.7999,,,,,,,,0.0851852,-0.359259272,0,0,0,,0,88,88,166,1,SHORY,HB,old,z,./images/SHORYHB.png,,,,,,,,,,,,,,,,,,,,,,,,,,,,,,,,,,,
,,,,,,,,,,,,,,,,,5eb087ed7f6d1e1232690d6a,61,2022-02-12_14h57.32.857,lexical_decision_task_DD_L3,2021.2.3,Win32,60.2373351,,,,,,,,,,,0.6373,1,,,,,,,,,,,,,,m,1,0.6373,,,,,,,,0.0851852,-0.359259272,0,0,0,,0,89,89,63,1,MIRROR,LB,old,m,./images/MIRRORLB.png,,,,,,,,,,,,,,,,,,,,,,,,,,,,,,,,,,,
,,,,,,,,,,,,,,,,,5eb087ed7f6d1e1232690d6a,61,2022-02-12_14h57.32.857,lexical_decision_task_DD_L3,2021.2.3,Win32,60.2373351,,,,,,,,,,,0.5842,1,,,,,,,,,,,,,,m,1,0.5842,,,,,,,,0.0851852,-0.359259272,0,0,0,,0,90,90,0,1,TOMATO,LB,old,m,./images/TOMATOLB.png,,,,,,,,,,,,,,,,,,,,,,,,,,,,,,,,,,,
,,,,,,,,,,,,,,,,,5eb087ed7f6d1e1232690d6a,61,2022-02-12_14h57.32.857,lexical_decision_task_DD_L3,2021.2.3,Win32,60.2373351,,,,,,,,,,,1.3251,1,,,,,,,,,,,,,,z,1,1.3251,,,,,,,,0.0851852,-0.359259272,0,0,0,,0,91,91,102,1,DULLE,C,old,z,./images/DULLE.png,,,,,,,,,,,,,,,,,,,,,,,,,,,,,,,,,,,
,,,,,,,,,,,,,,,,,5eb087ed7f6d1e1232690d6a,61,2022-02-12_14h57.32.857,lexical_decision_task_DD_L3,2021.2.3,Win32,60.2373351,,,,,,,,,,,0.5883,1,,,,,,,,,,,,,,m,1,0.5883,,,,,,,,0.0851852,-0.359259272,0,0,0,,0,92,92,73,1,SNACK,C,old,m,./images/SNACK.png,,,,,,,,,,,,,,,,,,,,,,,,,,,,,,,,,,,
,,,,,,,,,,,,,,,,,5eb087ed7f6d1e1232690d6a,61,2022-02-12_14h57.32.857,lexical_decision_task_DD_L3,2021.2.3,Win32,60.2373351,,,,,,,,,,,0.7556,1,,,,,,,,,,,,,,z,1,0.7556,,,,,,,,0.0851852,-0.359259272,0,0,0,,0,93,93,89,1,DRIEK,LB,old,z,./images/DRIEKLB.png,,,,,,,,,,,,,,,,,,,,,,,,,,,,,,,,,,,
,,,,,,,,,,,,,,,,,5eb087ed7f6d1e1232690d6a,61,2022-02-12_14h57.32.857,lexical_decision_task_DD_L3,2021.2.3,Win32,60.2373351,,,,,,,,,,,1.604,0,,,,,,,,,,,,,,m,0,1.604,,,,,,,,0.0851852,-0.359259272,0,0,0,,0,94,94,85,1,CHULK,HB,old,z,./images/CHULKHB.png,,,,,,,,,,,,,,,,,,,,,,,,,,,,,,,,,,,
,,,,,,,,,,,,,,,,,5eb087ed7f6d1e1232690d6a,61,2022-02-12_14h57.32.857,lexical_decision_task_DD_L3,2021.2.3,Win32,60.2373351,,,,,,,,,,,0.6819,1,,,,,,,,,,,,,,m,1,0.6819,,,,,,,,0.0851852,-0.359259272,0,0,0,,0,95,95,31,1,QUILL,C,old,m,./images/QUILL.png,,,,,,,,,,,,,,,,,,,,,,,,,,,,,,,,,,,
,,,,,,,,,,,,,,,,,5eb087ed7f6d1e1232690d6a,61,2022-02-12_14h57.32.857,lexical_decision_task_DD_L3,2021.2.3,Win32,60.2373351,,,,,,,,,,,0.691,1,,,,,,,,,,,,,,z,1,0.691,,,,,,,,0.0851852,-0.359259272,0,0,0,,0,96,96,122,1,BLOOT,LB,old,z,./images/BLOOTLB.png,,,,,,,,,,,,,,,,,,,,,,,,,,,,,,,,,,,
,,,,,,,,,,,,,,,,,5eb087ed7f6d1e1232690d6a,61,2022-02-12_14h57.32.857,lexical_decision_task_DD_L3,2021.2.3,Win32,60.2373351,,,,,,,,,,,1.3789,1,,,,,,,,,,,,,,z,1,1.3789,,,,,,,,0.0851852,-0.359259272,0,0,0,,0,97,97,142,1,PLASK,HB,old,z,./images/PLASKHB.png,,,,,,,,,,,,,,,,,,,,,,,,,,,,,,,,,,,
,,,,,,,,,,,,,,,,,5eb087ed7f6d1e1232690d6a,61,2022-02-12_14h57.32.857,lexical_decision_task_DD_L3,2021.2.3,Win32,60.2373351,,,,,,,,,,,1.4745,1,,,,,,,,,,,,,,z,1,1.4745,,,,,,,,0.0851852,-0.359259272,0,0,0,,0,98,98,163,1,GAMBA,HB,old,z,./images/GAMBAHB.png,,,,,,,,,,,,,,,,,,,,,,,,,,,,,,,,,,,
,,,,,,,,,,,,,,,,,5eb087ed7f6d1e1232690d6a,61,2022-02-12_14h57.32.857,lexical_decision_task_DD_L3,2021.2.3,Win32,60.2373351,,,,,,,,,,,0.6915,1,,,,,,,,,,,,,,z,1,0.6915,,,,,,,,0.0851852,-0.359259272,0,0,0,,0,99,99,144,1,NAIRY,C,old,z,./images/NAIRY.png,,,,,,,,,,,,,,,,,,,,,,,,,,,,,,,,,,,
,,,,,,,,,,,,,,,,,5eb087ed7f6d1e1232690d6a,61,2022-02-12_14h57.32.857,lexical_decision_task_DD_L3,2021.2.3,Win32,60.2373351,,,,,,,,,,,0.7577,1,,,,,,,,,,,,,,m,1,0.7577,,,,,,,,0.0851852,-0.359259272,0,0,0,,0,100,100,1,1,PLANK,C,old,m,./images/PLANK.png,,,,,,,,,,,,,,,,,,,,,,,,,,,,,,,,,,,
,,,,,,,,,,,,,,,,,5eb087ed7f6d1e1232690d6a,61,2022-02-12_14h57.32.857,lexical_decision_task_DD_L3,2021.2.3,Win32,60.2373351,,,,,,,,,,,1.0924,1,,,,,,,,,,,,,,m,1,1.0924,,,,,,,,0.0851852,-0.359259272,0,0,0,,0,101,101,16,1,PENCE,C,old,m,./images/PENCE.png,,,,,,,,,,,,,,,,,,,,,,,,,,,,,,,,,,,
,,,,,,,,,,,,,,,,,5eb087ed7f6d1e1232690d6a,61,2022-02-12_14h57.32.857,lexical_decision_task_DD_L3,2021.2.3,Win32,60.2373351,,,,,,,,,,,0.76,1,,,,,,,,,,,,,,z,1,0.76,,,,,,,,0.0851852,-0.359259272,0,0,0,,0,102,102,131,1,NACES,LB,old,z,./images/NACESLB.png,,,,,,,,,,,,,,,,,,,,,,,,,,,,,,,,,,,
,,,,,,,,,,,,,,,,,5eb087ed7f6d1e1232690d6a,61,2022-02-12_14h57.32.857,lexical_decision_task_DD_L3,2021.2.3,Win32,60.2373351,,,,,,,,,,,1.541,1,,,,,,,,,,,,,,z,1,1.541,,,,,,,,0.0851852,-0.359259272,0,0,0,,0,103,103,154,1,THINT,HB,old,z,./images/THINTHB.png,,,,,,,,,,,,,,,,,,,,,,,,,,,,,,,,,,,
,,,,,,,,,,,,,,,,,5eb087ed7f6d1e1232690d6a,61,2022-02-12_14h57.32.857,lexical_decision_task_DD_L3,2021.2.3,Win32,60.2373351,,,,,,,,,,,0.8393,1,,,,,,,,,,,,,,m,1,0.8393,,,,,,,,0.0851852,-0.359259272,0,0,0,,0,104,104,71,1,PIMPLE,HB,old,m,./images/PIMPLEHB.png,,,,,,,,,,,,,,,,,,,,,,,,,,,,,,,,,,,
,,,,,,,,,,,,,,,,,5eb087ed7f6d1e1232690d6a,61,2022-02-12_14h57.32.857,lexical_decision_task_DD_L3,2021.2.3,Win32,60.2373351,,,,,,,,,,,0.7094,1,,,,,,,,,,,,,,z,1,0.7094,,,,,,,,0.0851852,-0.359259272,0,0,0,,0,105,105,150,1,NOOLS,C,old,z,./images/NOOLS.png,,,,,,,,,,,,,,,,,,,,,,,,,,,,,,,,,,,
,,,,,,,,,,,,,,,,,5eb087ed7f6d1e1232690d6a,61,2022-02-12_14h57.32.857,lexical_decision_task_DD_L3,2021.2.3,Win32,60.2373351,,,,,,,,,,,0.6356,1,,,,,,,,,,,,,,m,1,0.6356,,,,,,,,0.0851852,-0.359259272,0,0,0,,0,106,106,30,1,STORM,LB,old,m,./images/STORMLB.png,,,,,,,,,,,,,,,,,,,,,,,,,,,,,,,,,,,
,,,,,,,,,,,,,,,,,5eb087ed7f6d1e1232690d6a,61,2022-02-12_14h57.32.857,lexical_decision_task_DD_L3,2021.2.3,Win32,60.2373351,,,,,,,,,,,1.3226,1,,,,,,,,,,,,,,z,1,1.3226,,,,,,,,0.0851852,-0.359259272,0,0,0,,0,107,107,121,1,CEERS,HB,old,z,./images/CEERSHB.png,,,,,,,,,,,,,,,,,,,,,,,,,,,,,,,,,,,
,,,,,,,,,,,,,,,,,5eb087ed7f6d1e1232690d6a,61,2022-02-12_14h57.32.857,lexical_decision_task_DD_L3,2021.2.3,Win32,60.2373351,,,,,,,,,,,0.8007,1,,,,,,,,,,,,,,z,1,0.8007,,,,,,,,0.0851852,-0.359259272,0,0,0,,0,108,108,161,1,BLAPS,LB,old,z,./images/BLAPSLB.png,,,,,,,,,,,,,,,,,,,,,,,,,,,,,,,,,,,
,,,,,,,,,,,,,,,,,5eb087ed7f6d1e1232690d6a,61,2022-02-12_14h57.32.857,lexical_decision_task_DD_L3,2021.2.3,Win32,60.2373351,,,,,,,,,,,0.5812,1,,,,,,,,,,,,,,m,1,0.5812,,,,,,,,0.0851852,-0.359259272,0,0,0,,0,109,109,34,1,CANYON,C,old,m,./images/CANYON.png,,,,,,,,,,,,,,,,,,,,,,,,,,,,,,,,,,,
,,,,,,,,,,,,,,,,,5eb087ed7f6d1e1232690d6a,61,2022-02-12_14h57.32.857,lexical_decision_task_DD_L3,2021.2.3,Win32,60.2373351,,,,,,,,,,,0.6651,1,,,,,,,,,,,,,,z,1,0.6651,,,,,,,,0.0851852,-0.359259272,0,0,0,,0,110,110,147,1,ZOLES,C,old,z,./images/ZOLES.png,,,,,,,,,,,,,,,,,,,,,,,,,,,,,,,,,,,
,,,,,,,,,,,,,,,,,5eb087ed7f6d1e1232690d6a,61,2022-02-12_14h57.32.857,lexical_decision_task_DD_L3,2021.2.3,Win32,60.2373351,,,,,,,,,,,1.3175,1,,,,,,,,,,,,,,m,1,1.3175,,,,,,,,0.0851852,-0.359259272,0,0,0,,0,111,111,20,1,CRADLE,HB,old,m,./images/CRADLEHB.png,,,,,,,,,,,,,,,,,,,,,,,,,,,,,,,,,,,
,,,,,,,,,,,,,,,,,5eb087ed7f6d1e1232690d6a,61,2022-02-12_14h57.32.857,lexical_decision_task_DD_L3,2021.2.3,Win32,60.2373351,,,,,,,,,,,0.6549,1,,,,,,,,,,,,,,m,1,0.6549,,,,,,,,0.0851852,-0.359259272,0,0,0,,0,112,112,60,1,TWINS,LB,old,m,./images/TWINSLB.png,,,,,,,,,,,,,,,,,,,,,,,,,,,,,,,,,,,
,,,,,,,,,,,,,,,,,5eb087ed7f6d1e1232690d6a,61,2022-02-12_14h57.32.857,lexical_decision_task_DD_L3,2021.2.3,Win32,60.2373351,,,,,,,,,,,0.8937,1,,,,,,,,,,,,,,z,1,0.8937,,,,,,,,0.0851852,-0.359259272,0,0,0,,0,113,113,93,1,SMONE,C,old,z,./images/SMONE.png,,,,,,,,,,,,,,,,,,,,,,,,,,,,,,,,,,,
,,,,,,,,,,,,,,,,,5eb087ed7f6d1e1232690d6a,61,2022-02-12_14h57.32.857,lexical_decision_task_DD_L3,2021.2.3,Win32,60.2373351,,,,,,,,,,,0.755,1,,,,,,,,,,,,,,z,1,0.755,,,,,,,,0.0851852,-0.359259272,0,0,0,,0,114,114,107,1,FASKS,LB,old,z,./images/FASKSLB.png,,,,,,,,,,,,,,,,,,,,,,,,,,,,,,,,,,,
,,,,,,,,,,,,,,,,,5eb087ed7f6d1e1232690d6a,61,2022-02-12_14h57.32.857,lexical_decision_task_DD_L3,2021.2.3,Win32,60.2373351,,,,,,,,,,,0.676,1,,,,,,,,,,,,,,m,1,0.676,,,,,,,,0.0851852,-0.359259272,0,0,0,,0,115,115,3,1,FINGER,LB,old,m,./images/FINGERLB.png,,,,,,,,,,,,,,,,,,,,,,,,,,,,,,,,,,,
,,,,,,,,,,,,,,,,,5eb087ed7f6d1e1232690d6a,61,2022-02-12_14h57.32.857,lexical_decision_task_DD_L3,2021.2.3,Win32,60.2373351,,,,,,,,,,,1.2564,1,,,,,,,,,,,,,,z,1,1.2564,,,,,,,,0.0851852,-0.359259272,0,0,0,,0,116,116,88,1,GLUSH,HB,old,z,./images/GLUSHHB.png,,,,,,,,,,,,,,,,,,,,,,,,,,,,,,,,,,,
,,,,,,,,,,,,,,,,,5eb087ed7f6d1e1232690d6a,61,2022-02-12_14h57.32.857,lexical_decision_task_DD_L3,2021.2.3,Win32,60.2373351,,,,,,,,,,,0.6856,1,,,,,,,,,,,,,,m,1,0.6856,,,,,,,,0.0851852,-0.359259272,0,0,0,,0,117,117,70,1,URINE,C,old,m,./images/URINE.png,,,,,,,,,,,,,,,,,,,,,,,,,,,,,,,,,,,
,,,,,,,,,,,,,,,,,5eb087ed7f6d1e1232690d6a,61,2022-02-12_14h57.32.857,lexical_decision_task_DD_L3,2021.2.3,Win32,60.2373351,,,,,,,,,,,0.6599,1,,,,,,,,,,,,,,z,1,0.6599,,,,,,,,0.0851852,-0.359259272,0,0,0,,0,118,118,126,1,GUELS,C,old,z,./images/GUELS.png,,,,,,,,,,,,,,,,,,,,,,,,,,,,,,,,,,,
,,,,,,,,,,,,,,,,,5eb087ed7f6d1e1232690d6a,61,2022-02-12_14h57.32.857,lexical_decision_task_DD_L3,2021.2.3,Win32,60.2373351,,,,,,,,,,,1.3677,0,,,,,,,,,,,,,,z,0,1.3677,,,,,,,,0.0851852,-0.359259272,0,0,0,,0,119,119,65,1,FARMER,HB,old,m,./images/FARMERHB.png,,,,,,,,,,,,,,,,,,,,,,,,,,,,,,,,,,,
,,,,,,,,,,,,,,,,,5eb087ed7f6d1e1232690d6a,61,2022-02-12_14h57.32.857,lexical_decision_task_DD_L3,2021.2.3,Win32,60.2373351,,,,,,,,,,,1.0015,0,,,,,,,,,,,,,,m,0,1.0015,,,,,,,,0.0851852,-0.359259272,0,0,0,,0,120,120,145,1,LAMEL,HB,old,z,./images/LAMELHB.png,,,,,,,,,,,,,,,,,,,,,,,,,,,,,,,,,,,
,,,,,,,,,,,,,,,,,5eb087ed7f6d1e1232690d6a,61,2022-02-12_14h57.32.857,lexical_decision_task_DD_L3,2021.2.3,Win32,60.2373351,,,,,,,,,,,0.8175,1,,,,,,,,,,,,,,z,1,0.8175,,,,,,,,0.0851852,-0.359259272,0,0,0,,0,121,121,143,1,MONGS,LB,old,z,./images/MONGSLB.png,,,,,,,,,,,,,,,,,,,,,,,,,,,,,,,,,,,
,,,,,,,,,,,,,,,,,5eb087ed7f6d1e1232690d6a,61,2022-02-12_14h57.32.857,lexical_decision_task_DD_L3,2021.2.3,Win32,60.2373351,,,,,,,,,,,2.1894,1,,,,,,,,,,,,,,z,1,2.1894,,,,,,,,0.0851852,-0.359259272,0,0,0,,0,122,122,91,1,SHENS,HB,old,z,./images/SHENSHB.png,,,,,,,,,,,,,,,,,,,,,,,,,,,,,,,,,,,
,,,,,,,,,,,,,,,,,5eb087ed7f6d1e1232690d6a,61,2022-02-12_14h57.32.857,lexical_decision_task_DD_L3,2021.2.3,Win32,60.2373351,,,,,,,,,,,0.6215,1,,,,,,,,,,,,,,m,1,0.6215,,,,,,,,0.0851852,-0.359259272,0,0,0,,0,123,123,57,1,MOOSE,LB,old,m,./images/MOOSELB.png,,,,,,,,,,,,,,,,,,,,,,,,,,,,,,,,,,,
,,,,,,,,,,,,,,,,,5eb087ed7f6d1e1232690d6a,61,2022-02-12_14h57.32.857,lexical_decision_task_DD_L3,2021.2.3,Win32,60.2373351,,,,,,,,,,,0.6507,1,,,,,,,,,,,,,,m,1,0.6507,,,,,,,,0.0851852,-0.359259272,0,0,0,,0,124,124,69,1,COOKER,LB,old,m,./images/COOKERLB.png,,,,,,,,,,,,,,,,,,,,,,,,,,,,,,,,,,,
,,,,,,,,,,,,,,,,,5eb087ed7f6d1e1232690d6a,61,2022-02-12_14h57.32.857,lexical_decision_task_DD_L3,2021.2.3,Win32,60.2373351,,,,,,,,,,,0.6237,1,,,,,,,,,,,,,,z,1,0.6237,,,,,,,,0.0851852,-0.359259272,0,0,0,space,0,125,125,90,1,NEAST,C,old,z,./images/NEAST.png,6.5589,,,,,,,,,,,,,,,,,,,,,,,,,,,,,,,,,,
,,,,,,,,,,,,,,,,,5eb087ed7f6d1e1232690d6a,61,2022-02-12_14h57.32.857,lexical_decision_task_DD_L3,2021.2.3,Win32,60.2373351,,,,,,,,,,,0.7236,1,,,,,,,,,,,,,,z,1,0.7236,,,,,,,,0.0851852,-0.359259272,0,0,0,,0,126,126,167,1,ZONET,LB,old,z,./images/ZONETLB.png,,,,,,,,,,,,,,,,,,,,,,,,,,,,,,,,,,,
,,,,,,,,,,,,,,,,,5eb087ed7f6d1e1232690d6a,61,2022-02-12_14h57.32.857,lexical_decision_task_DD_L3,2021.2.3,Win32,60.2373351,,,,,,,,,,,0.6907,1,,,,,,,,,,,,,,m,1,0.6907,,,,,,,,0.0851852,-0.359259272,0,0,0,,0,127,127,21,1,KIDNEY,LB,old,m,./images/KIDNEYLB.png,,,,,,,,,,,,,,,,,,,,,,,,,,,,,,,,,,,
,,,,,,,,,,,,,,,,,5eb087ed7f6d1e1232690d6a,61,2022-02-12_14h57.32.857,lexical_decision_task_DD_L3,2021.2.3,Win32,60.2373351,,,,,,,,,,,0.5175,1,,,,,,,,,,,,,,m,1,0.5175,,,,,,,,0.0851852,-0.359259272,0,0,0,,0,128,128,61,1,CANDLE,C,old,m,./images/CANDLE.png,,,,,,,,,,,,,,,,,,,,,,,,,,,,,,,,,,,
,,,,,,,,,,,,,,,,,5eb087ed7f6d1e1232690d6a,61,2022-02-12_14h57.32.857,lexical_decision_task_DD_L3,2021.2.3,Win32,60.2373351,,,,,,,,,,,0.5745,1,,,,,,,,,,,,,,z,1,0.5745,,,,,,,,0.0851852,-0.359259272,0,0,0,,0,129,129,84,1,HAXES,C,old,z,./images/HAXES.png,,,,,,,,,,,,,,,,,,,,,,,,,,,,,,,,,,,
,,,,,,,,,,,,,,,,,5eb087ed7f6d1e1232690d6a,61,2022-02-12_14h57.32.857,lexical_decision_task_DD_L3,2021.2.3,Win32,60.2373351,,,,,,,,,,,0.6079,1,,,,,,,,,,,,,,m,1,0.6079,,,,,,,,0.0851852,-0.359259272,0,0,0,,0,130,130,79,1,CRUST,C,old,m,./images/CRUST.png,,,,,,,,,,,,,,,,,,,,,,,,,,,,,,,,,,,
,,,,,,,,,,,,,,,,,5eb087ed7f6d1e1232690d6a,61,2022-02-12_14h57.32.857,lexical_decision_task_DD_L3,2021.2.3,Win32,60.2373351,,,,,,,,,,,0.8268,1,,,,,,,,,,,,,,m,1,0.8268,,,,,,,,0.0851852,-0.359259272,0,0,0,,0,131,131,62,1,PURSE,HB,old,m,./images/PURSEHB.png,,,,,,,,,,,,,,,,,,,,,,,,,,,,,,,,,,,
,,,,,,,,,,,,,,,,,5eb087ed7f6d1e1232690d6a,61,2022-02-12_14h57.32.857,lexical_decision_task_DD_L3,2021.2.3,Win32,60.2373351,,,,,,,,,,,0.5337,1,,,,,,,,,,,,,,m,1,0.5337,,,,,,,,0.0851852,-0.359259272,0,0,0,,0,132,132,24,1,SCREW,LB,old,m,./images/SCREWLB.png,,,,,,,,,,,,,,,,,,,,,,,,,,,,,,,,,,,
,,,,,,,,,,,,,,,,,5eb087ed7f6d1e1232690d6a,61,2022-02-12_14h57.32.857,lexical_decision_task_DD_L3,2021.2.3,Win32,60.2373351,,,,,,,,,,,0.6814,1,,,,,,,,,,,,,,z,1,0.6814,,,,,,,,0.0851852,-0.359259272,0,0,0,,0,133,133,165,1,TROWN,C,old,z,./images/TROWN.png,,,,,,,,,,,,,,,,,,,,,,,,,,,,,,,,,,,
,,,,,,,,,,,,,,,,,5eb087ed7f6d1e1232690d6a,61,2022-02-12_14h57.32.857,lexical_decision_task_DD_L3,2021.2.3,Win32,60.2373351,,,,,,,,,,,1.2193,1,,,,,,,,,,,,,,m,1,1.2193,,,,,,,,0.0851852,-0.359259272,0,0,0,,0,134,134,74,1,CEMENT,HB,old,m,./images/CEMENTHB.png,,,,,,,,,,,,,,,,,,,,,,,,,,,,,,,,,,,
,,,,,,,,,,,,,,,,,5eb087ed7f6d1e1232690d6a,61,2022-02-12_14h57.32.857,lexical_decision_task_DD_L3,2021.2.3,Win32,60.2373351,,,,,,,,,,,0.6428,1,,,,,,,,,,,,,,z,1,0.6428,,,,,,,,0.0851852,-0.359259272,0,0,0,,0,135,135,111,1,HOSSE,C,old,z,./images/HOSSE.png,,,,,,,,,,,,,,,,,,,,,,,,,,,,,,,,,,,
,,,,,,,,,,,,,,,,,5eb087ed7f6d1e1232690d6a,61,2022-02-12_14h57.32.857,lexical_decision_task_DD_L3,2021.2.3,Win32,60.2373351,,,,,,,,,,,0.6887,1,,,,,,,,,,,,,,m,1,0.6887,,,,,,,,0.0851852,-0.359259272,0,0,0,,0,136,136,54,1,TRIPOD,LB,old,m,./images/TRIPODLB.png,,,,,,,,,,,,,,,,,,,,,,,,,,,,,,,,,,,
,,,,,,,,,,,,,,,,,5eb087ed7f6d1e1232690d6a,61,2022-02-12_14h57.32.857,lexical_decision_task_DD_L3,2021.2.3,Win32,60.2373351,,,,,,,,,,,0.6155,1,,,,,,,,,,,,,,z,1,0.6155,,,,,,,,0.0851852,-0.359259272,0,0,0,,0,137,137,162,1,LEICH,C,old,z,./images/LEICH.png,,,,,,,,,,,,,,,,,,,,,,,,,,,,,,,,,,,
,,,,,,,,,,,,,,,,,5eb087ed7f6d1e1232690d6a,61,2022-02-12_14h57.32.857,lexical_decision_task_DD_L3,2021.2.3,Win32,60.2373351,,,,,,,,,,,0.7164,1,,,,,,,,,,,,,,m,1,0.7164,,,,,,,,0.0851852,-0.359259272,0,0,0,,0,138,138,83,1,JUNGLE,HB,old,m,./images/JUNGLEHB.png,,,,,,,,,,,,,,,,,,,,,,,,,,,,,,,,,,,
,,,,,,,,,,,,,,,,,5eb087ed7f6d1e1232690d6a,61,2022-02-12_14h57.32.857,lexical_decision_task_DD_L3,2021.2.3,Win32,60.2373351,,,,,,,,,,,0.8703,1,,,,,,,,,,,,,,z,1,0.8703,,,,,,,,0.0851852,-0.359259272,0,0,0,,0,139,139,157,1,INLER,HB,old,z,./images/INLERHB.png,,,,,,,,,,,,,,,,,,,,,,,,,,,,,,,,,,,
,,,,,,,,,,,,,,,,,5eb087ed7f6d1e1232690d6a,61,2022-02-12_14h57.32.857,lexical_decision_task_DD_L3,2021.2.3,Win32,60.2373351,,,,,,,,,,,0.6232,1,,,,,,,,,,,,,,m,1,0.6232,,,,,,,,0.0851852,-0.359259272,0,0,0,,0,140,140,36,1,THROAT,LB,old,m,./images/THROATLB.png,,,,,,,,,,,,,,,,,,,,,,,,,,,,,,,,,,,
,,,,,,,,,,,,,,,,,5eb087ed7f6d1e1232690d6a,61,2022-02-12_14h57.32.857,lexical_decision_task_DD_L3,2021.2.3,Win32,60.2373351,,,,,,,,,,,0.6158,1,,,,,,,,,,,,,,z,1,0.6158,,,,,,,,0.0851852,-0.359259272,0,0,0,,0,141,141,156,1,HIXES,C,old,z,./images/HIXES.png,,,,,,,,,,,,,,,,,,,,,,,,,,,,,,,,,,,
,,,,,,,,,,,,,,,,,5eb087ed7f6d1e1232690d6a,61,2022-02-12_14h57.32.857,lexical_decision_task_DD_L3,2021.2.3,Win32,60.2373351,,,,,,,,,,,0.7953,1,,,,,,,,,,,,,,z,1,0.7953,,,,,,,,0.0851852,-0.359259272,0,0,0,,0,142,142,108,1,GRUET,C,old,z,./images/GRUET.png,,,,,,,,,,,,,,,,,,,,,,,,,,,,,,,,,,,
,,,,,,,,,,,,,,,,,5eb087ed7f6d1e1232690d6a,61,2022-02-12_14h57.32.857,lexical_decision_task_DD_L3,2021.2.3,Win32,60.2373351,,,,,,,,,,,0.7582,1,,,,,,,,,,,,,,z,1,0.7582,,,,,,,,0.0851852,-0.359259272,0,0,0,,0,143,143,105,1,MOKER,C,old,z,./images/MOKER.png,,,,,,,,,,,,,,,,,,,,,,,,,,,,,,,,,,,
,,,,,,,,,,,,,,,,,5eb087ed7f6d1e1232690d6a,61,2022-02-12_14h57.32.857,lexical_decision_task_DD_L3,2021.2.3,Win32,60.2373351,,,,,,,,,,,1.3621,0,,,,,,,,,,,,,,m,0,1.3621,,,,,,,,0.0851852,-0.359259272,0,0,0,,0,144,144,130,1,CRILL,HB,old,z,./images/CRILLHB.png,,,,,,,,,,,,,,,,,,,,,,,,,,,,,,,,,,,
,,,,,,,,,,,,,,,,,5eb087ed7f6d1e1232690d6a,61,2022-02-12_14h57.32.857,lexical_decision_task_DD_L3,2021.2.3,Win32,60.2373351,,,,,,,,,,,0.6925,1,,,,,,,,,,,,,,m,1,0.6925,,,,,,,,0.0851852,-0.359259272,0,0,0,,0,145,145,25,1,WRIST,C,old,m,./images/WRIST.png,,,,,,,,,,,,,,,,,,,,,,,,,,,,,,,,,,,
,,,,,,,,,,,,,,,,,5eb087ed7f6d1e1232690d6a,61,2022-02-12_14h57.32.857,lexical_decision_task_DD_L3,2021.2.3,Win32,60.2373351,,,,,,,,,,,0.6283,1,,,,,,,,,,,,,,m,1,0.6283,,,,,,,,0.0851852,-0.359259272,0,0,0,,0,146,146,72,1,NOOSE,LB,old,m,./images/NOOSELB.png,,,,,,,,,,,,,,,,,,,,,,,,,,,,,,,,,,,
,,,,,,,,,,,,,,,,,5eb087ed7f6d1e1232690d6a,61,2022-02-12_14h57.32.857,lexical_decision_task_DD_L3,2021.2.3,Win32,60.2373351,,,,,,,,,,,0.7599,1,,,,,,,,,,,,,,z,1,0.7599,,,,,,,,0.0851852,-0.359259272,0,0,0,,0,147,147,164,1,SGREW,LB,old,z,./images/SGREWLB.png,,,,,,,,,,,,,,,,,,,,,,,,,,,,,,,,,,,
,,,,,,,,,,,,,,,,,5eb087ed7f6d1e1232690d6a,61,2022-02-12_14h57.32.857,lexical_decision_task_DD_L3,2021.2.3,Win32,60.2373351,,,,,,,,,,,0.9079,1,,,,,,,,,,,,,,z,1,0.9079,,,,,,,,0.0851852,-0.359259272,0,0,0,,0,148,148,134,1,TROSS,LB,old,z,./images/TROSSLB.png,,,,,,,,,,,,,,,,,,,,,,,,,,,,,,,,,,,
,,,,,,,,,,,,,,,,,5eb087ed7f6d1e1232690d6a,61,2022-02-12_14h57.32.857,lexical_decision_task_DD_L3,2021.2.3,Win32,60.2373351,,,,,,,,,,,0.7625,1,,,,,,,,,,,,,,m,1,0.7625,,,,,,,,0.0851852,-0.359259272,0,0,0,,0,149,149,27,1,ATTIC,LB,old,m,./images/ATTICLB.png,,,,,,,,,,,,,,,,,,,,,,,,,,,,,,,,,,,
,,,,,,,,,,,,,,,,,5eb087ed7f6d1e1232690d6a,61,2022-02-12_14h57.32.857,lexical_decision_task_DD_L3,2021.2.3,Win32,60.2373351,,,,,,,,,,,0.9729,1,,,,,,,,,,,,,,z,1,0.9729,,,,,,,,0.0851852,-0.359259272,0,0,0,,0,150,150,113,1,LINEW,LB,old,z,./images/LINEWLB.png,,,,,,,,,,,,,,,,,,,,,,,,,,,,,,,,,,,
,,,,,,,,,,,,,,,,,5eb087ed7f6d1e1232690d6a,61,2022-02-12_14h57.32.857,lexical_decision_task_DD_L3,2021.2.3,Win32,60.2373351,,,,,,,,,,,0.5847,1,,,,,,,,,,,,,,m,1,0.5847,,,,,,,,0.0851852,-0.359259272,0,0,0,,0,151,151,55,1,MUFFIN,C,old,m,./images/MUFFIN.png,,,,,,,,,,,,,,,,,,,,,,,,,,,,,,,,,,,
,,,,,,,,,,,,,,,,,5eb087ed7f6d1e1232690d6a,61,2022-02-12_14h57.32.857,lexical_decision_task_DD_L3,2021.2.3,Win32,60.2373351,,,,,,,,,,,1.9166,1,,,,,,,,,,,,,,z,1,1.9166,,,,,,,,0.0851852,-0.359259272,0,0,0,,0,152,152,94,1,BLANS,HB,old,z,./images/BLANSHB.png,,,,,,,,,,,,,,,,,,,,,,,,,,,,,,,,,,,
,,,,,,,,,,,,,,,,,5eb087ed7f6d1e1232690d6a,61,2022-02-12_14h57.32.857,lexical_decision_task_DD_L3,2021.2.3,Win32,60.2373351,,,,,,,,,,,1.9673,0,,,,,,,,,,,,,,m,0,1.9673,,,,,,,,0.0851852,-0.359259272,0,0,0,,0,153,153,97,1,CHIDS,HB,old,z,./images/CHIDSHB.png,,,,,,,,,,,,,,,,,,,,,,,,,,,,,,,,,,,
,,,,,,,,,,,,,,,,,5eb087ed7f6d1e1232690d6a,61,2022-02-12_14h57.32.857,lexical_decision_task_DD_L3,2021.2.3,Win32,60.2373351,,,,,,,,,,,0.7821,1,,,,,,,,,,,,,,m,1,0.7821,,,,,,,,0.0851852,-0.359259272,0,0,0,,0,154,154,5,1,PASTA,HB,old,m,./images/PASTAHB.png,,,,,,,,,,,,,,,,,,,,,,,,,,,,,,,,,,,
,,,,,,,,,,,,,,,,,5eb087ed7f6d1e1232690d6a,61,2022-02-12_14h57.32.857,lexical_decision_task_DD_L3,2021.2.3,Win32,60.2373351,,,,,,,,,,,1.1336,1,,,,,,,,,,,,,,m,1,1.1336,,,,,,,,0.0851852,-0.359259272,0,0,0,,0,155,155,68,1,TORCH,HB,old,m,./images/TORCHHB.png,,,,,,,,,,,,,,,,,,,,,,,,,,,,,,,,,,,
,,,,,,,,,,,,,,,,,5eb087ed7f6d1e1232690d6a,61,2022-02-12_14h57.32.857,lexical_decision_task_DD_L3,2021.2.3,Win32,60.2373351,,,,,,,,,,,0.7419,1,,,,,,,,,,,,,,m,1,0.7419,,,,,,,,0.0851852,-0.359259272,0,0,0,,0,156,156,82,1,SUNSET,C,old,m,./images/SUNSET.png,,,,,,,,,,,,,,,,,,,,,,,,,,,,,,,,,,,
,,,,,,,,,,,,,,,,,5eb087ed7f6d1e1232690d6a,61,2022-02-12_14h57.32.857,lexical_decision_task_DD_L3,2021.2.3,Win32,60.2373351,,,,,,,,,,,0.717,1,,,,,,,,,,,,,,z,1,0.717,,,,,,,,0.0851852,-0.359259272,0,0,0,,0,157,157,98,1,BAMPS,LB,old,z,./images/BAMPSLB.png,,,,,,,,,,,,,,,,,,,,,,,,,,,,,,,,,,,
,,,,,,,,,,,,,,,,,5eb087ed7f6d1e1232690d6a,61,2022-02-12_14h57.32.857,lexical_decision_task_DD_L3,2021.2.3,Win32,60.2373351,,,,,,,,,,,1.3846,1,,,,,,,,,,,,,,m,1,1.3846,,,,,,,,0.0851852,-0.359259272,0,0,0,,0,158,158,44,1,LIZARD,HB,old,m,./images/LIZARDHB.png,,,,,,,,,,,,,,,,,,,,,,,,,,,,,,,,,,,
,,,,,,,,,,,,,,,,,5eb087ed7f6d1e1232690d6a,61,2022-02-12_14h57.32.857,lexical_decision_task_DD_L3,2021.2.3,Win32,60.2373351,,,,,,,,,,,0.715,1,,,,,,,,,,,,,,m,1,0.715,,,,,,,,0.0851852,-0.359259272,0,0,0,,0,159,159,35,1,PEACH,HB,old,m,./images/PEACHHB.png,,,,,,,,,,,,,,,,,,,,,,,,,,,,,,,,,,,
,,,,,,,,,,,,,,,,,5eb087ed7f6d1e1232690d6a,61,2022-02-12_14h57.32.857,lexical_decision_task_DD_L3,2021.2.3,Win32,60.2373351,,,,,,,,,,,0.608,1,,,,,,,,,,,,,,z,1,0.608,,,,,,,,0.0851852,-0.359259272,0,0,0,,0,160,160,87,1,TRING,C,old,z,./images/TRING.png,,,,,,,,,,,,,,,,,,,,,,,,,,,,,,,,,,,
,,,,,,,,,,,,,,,,,5eb087ed7f6d1e1232690d6a,61,2022-02-12_14h57.32.857,lexical_decision_task_DD_L3,2021.2.3,Win32,60.2373351,,,,,,,,,,,0.5702,0,,,,,,,,,,,,,,z,0,0.5702,,,,,,,,0.0851852,-0.359259272,0,0,0,,0,161,161,28,1,FALCON,C,old,m,./images/FALCON.png,,,,,,,,,,,,,,,,,,,,,,,,,,,,,,,,,,,
,,,,,,,,,,,,,,,,,5eb087ed7f6d1e1232690d6a,61,2022-02-12_14h57.32.857,lexical_decision_task_DD_L3,2021.2.3,Win32,60.2373351,,,,,,,,,,,0.8127,1,,,,,,,,,,,,,,z,1,0.8127,,,,,,,,0.0851852,-0.359259272,0,0,0,,0,162,162,119,1,PAFER,LB,old,z,./images/PAFERLB.png,,,,,,,,,,,,,,,,,,,,,,,,,,,,,,,,,,,
,,,,,,,,,,,,,,,,,5eb087ed7f6d1e1232690d6a,61,2022-02-12_14h57.32.857,lexical_decision_task_DD_L3,2021.2.3,Win32,60.2373351,,,,,,,,,,,0.5245,1,,,,,,,,,,,,,,m,1,0.5245,,,,,,,,0.0851852,-0.359259272,0,0,0,,0,163,163,46,1,PEARL,C,old,m,./images/PEARL.png,,,,,,,,,,,,,,,,,,,,,,,,,,,,,,,,,,,
,,,,,,,,,,,,,,,,,5eb087ed7f6d1e1232690d6a,61,2022-02-12_14h57.32.857,lexical_decision_task_DD_L3,2021.2.3,Win32,60.2373351,,,,,,,,,,,0.819,0,,,,,,,,,,,,,,m,0,0.819,,,,,,,,0.0851852,-0.359259272,0,0,0,,0,164,164,100,1,DRIBS,HB,old,z,./images/DRIBSHB.png,,,,,,,,,,,,,,,,,,,,,,,,,,,,,,,,,,,
,,,,,,,,,,,,,,,,,5eb087ed7f6d1e1232690d6a,61,2022-02-12_14h57.32.857,lexical_decision_task_DD_L3,2021.2.3,Win32,60.2373351,,,,,,,,,,,0.5574,1,,,,,,,,,,,,,,m,1,0.5574,,,,,,,,0.0851852,-0.359259272,0,0,0,,0,165,165,48,1,SPORT,LB,old,m,./images/SPORTLB.png,,,,,,,,,,,,,,,,,,,,,,,,,,,,,,,,,,,
,,,,,,,,,,,,,,,,,5eb087ed7f6d1e1232690d6a,61,2022-02-12_14h57.32.857,lexical_decision_task_DD_L3,2021.2.3,Win32,60.2373351,,,,,,,,,,,1.0678,1,,,,,,,,,,,,,,z,1,1.0678,,,,,,,,0.0851852,-0.359259272,0,0,0,,0,166,166,103,1,FLORT,HB,old,z,./images/FLORTHB.png,,,,,,,,,,,,,,,,,,,,,,,,,,,,,,,,,,,
,,,,,,,,,,,,,,,,,5eb087ed7f6d1e1232690d6a,61,2022-02-12_14h57.32.857,lexical_decision_task_DD_L3,2021.2.3,Win32,60.2373351,,,,,,,,,,,1.0346,1,,,,,,,,,,,,,,z,1,1.0346,,,,,,,,0.0851852,-0.359259272,0,0,0,,0,167,167,110,1,CRUNK,LB,old,z,./images/CRUNKLB.png,,,,,,,,,,,,,,,,,,,,,,,,,,,,,,,,,,,
,,,,,,,,,,,,,,,,,5eb087ed7f6d1e1232690d6a,61,2022-02-12_14h57.32.857,lexical_decision_task_DD_L3,2021.2.3,Win32,60.2373351,,,,,,,,,,,,,,,,,,,,,,,,,,,,,,,,,,,,,,,,,,,,,,,,How likely will it be that you will recognize the words presented slighly blurred on a scale of 0 (not likely) to 100 (most likely)?,,,,,0.003703717,-0.429629643,1,0,0,jol_adv,6,7.3794,0,0,0,1,1,,,,,,,,,,,,,,,,,,,,,
,,,,,,,,,,,,,,,,,5eb087ed7f6d1e1232690d6a,61,2022-02-12_14h57.32.857,lexical_decision_task_DD_L3,2021.2.3,Win32,60.2373351,,,,,,,,,,,,,,,,,,,,,,,,,,,,,,,,,,,,,,,,,,,,,,,,How likely will it be that you will recognize the words presented very blurred on a scale of 0 (not likely) to 100 (most likely)?,,,,,,,,,,,1,7.6449,0,1,1,2,1,,,,,,,,,,,,,,,,,,,,,
,,,,,,,,,,,,,,,,,5eb087ed7f6d1e1232690d6a,61,2022-02-12_14h57.32.857,lexical_decision_task_DD_L3,2021.2.3,Win32,60.2373351,,,,,,,,,,,,,,,,,,,,,,,,,,,,,,,,,,,,,,,,,,,,,,,,How likely will it be that you will recognize the words presented clearly on a scale of 0 (not likely) to 100 (most likely)?,,,,,,,,,,,6,4.9115,0,2,2,0,1,,,,,,,,,,,,,,,,,,,,,
,,-0.019444431,-0.444444459,1,0,0,,,,,,1,test,"In the next phase you will be presented with the words from the the first phase. Your job is to decide whether you remember seeing the word or not. If you remember seeing the word press ""old"" or type ""m"". If you do not remember seeing the word press ""new"" or type ""z"". Please press the space bar or click on continue to begin. ",,,5eb087ed7f6d1e1232690d6a,61,2022-02-12_14h57.32.857,lexical_decision_task_DD_L3,2021.2.3,Win32,60.2373351,,,,,,,,,,,,,,,,,,,,,,,,,,,,,,,,,,,,,,,,,,,,,,,,,,,,,,,,,,,,,,,,,,instr_done_button,0,0,0,0,1,,,,,,,,,,,,,,,
,,-0.003703691,-0.412037051,1,0,0,,,,,,1,test,"In the next phase you will be presented with the words from the the first phase. Your job is to decide whether you remember seeing the word or not. If you remember seeing the word press ""old"" or type ""m"". If you do not remember seeing the word press ""new"" or type ""z"". Please press the space bar or click on continue to begin. ",,,5eb087ed7f6d1e1232690d6a,61,2022-02-12_14h57.32.857,lexical_decision_task_DD_L3,2021.2.3,Win32,60.2373351,,,,,,,,,,,,,,,,,,,,,,,,,,,,,,,,,,,,,,,,,,,,,,,,,,,,,,,,,,,,,,,,,,instr_done_button,1,0,1,0,1,,,,,,,,,,,,,,,
space,2.5203,-0.000925913,-0.386111181,0,0,0,,,,,,1,test,"In the next phase you will be presented with the words from the the first phase. Your job is to decide whether you remember seeing the word or not. If you remember seeing the word press ""old"" or type ""m"". If you do not remember seeing the word press ""new"" or type ""z"". Please press the space bar or click on continue to begin. ",,,5eb087ed7f6d1e1232690d6a,61,2022-02-12_14h57.32.857,lexical_decision_task_DD_L3,2021.2.3,Win32,60.2373351,,,,,,,,,,,,,,,,,,,,,,,,,,,,,,,,,,,,,,,,,,,,,,,,,,,,,,,,,,,,,,,,,,,2,0,2,0,1,,,,,,,,,,,,,,,
,,0.008333347,-0.368518531,1,0,0,,,,,,1,test,"In the next phase you will be presented with the words from the the first phase. Your job is to decide whether you remember seeing the word or not. If you remember seeing the word press ""old"" or type ""m"". If you do not remember seeing the word press ""new"" or type ""z"". Please press the space bar or click on continue to begin. ",,,5eb087ed7f6d1e1232690d6a,61,2022-02-12_14h57.32.857,lexical_decision_task_DD_L3,2021.2.3,Win32,60.2373351,,,,,,,,,,,,,,,,,,,,,,,,,,,,,,,,,,,,,,,,,,,,,,,,,,,,,,,,,,,,,,,,,,instr_done_button,3,0,3,0,1,,,,,,,,,,,,,,,
space,1.173,0.024074088,-0.262037048,0,0,0,,,,,,1,test,"In the next phase you will be presented with the words from the the first phase. Your job is to decide whether you remember seeing the word or not. If you remember seeing the word press ""old"" or type ""m"". If you do not remember seeing the word press ""new"" or type ""z"". Please press the space bar or click on continue to begin. ",,,5eb087ed7f6d1e1232690d6a,61,2022-02-12_14h57.32.857,lexical_decision_task_DD_L3,2021.2.3,Win32,60.2373351,,,,,,,,,,,,,,,,,,,,,,,,,,,,,,,,,,,,,,,,,,,,,,,,,,,,,,,,,,,,,,,,,,,4,0,4,0,1,,,,,,,,,,,,,,,
,,,,,,,,,,,,,,,,,5eb087ed7f6d1e1232690d6a,61,2022-02-12_14h57.32.857,lexical_decision_task_DD_L3,2021.2.3,Win32,60.2373351,,,,,,,,,,,3.5412,1,,,,,,,,,,,,,,,,,,,,,,,,0.024074088,-0.262037048,0,0,0,,,,,,,DANCER,LB,z,m,./images/DANCERLB.png,,,,,,,,,,,,,,,,,,,,,z,1,3.5412,,,,,,,,0,0,0,105,1
,,,,,,,,,,,,,,,,,5eb087ed7f6d1e1232690d6a,61,2022-02-12_14h57.32.857,lexical_decision_task_DD_L3,2021.2.3,Win32,60.2373351,,,,,,,,,,,1.6367,1,,,,,,,,,,,,,,,,,,,,,,,,0.024074088,-0.262037048,0,0,0,,,,,,,PISTOL,HB,z,m,./images/PISTOLHB.png,,,,,,,,,,,,,,,,,,,,,z,1,1.6367,,,,,,,,0,1,1,113,1
,,,,,,,,,,,,,,,,,5eb087ed7f6d1e1232690d6a,61,2022-02-12_14h57.32.857,lexical_decision_task_DD_L3,2021.2.3,Win32,60.2373351,,,,,,,,,,,3.3453,1,,,,,,,,,,,,,,,,,,,,,,,,0.024074088,-0.262037048,0,0,0,,,,,,,CANDY,LB,z,m,./images/CANDYLB.png,,,,,,,,,,,,,,,,,,,,,z,1,3.3453,,,,,,,,0,2,2,123,1
,,,,,,,,,,,,,,,,,5eb087ed7f6d1e1232690d6a,61,2022-02-12_14h57.32.857,lexical_decision_task_DD_L3,2021.2.3,Win32,60.2373351,,,,,,,,,,,0.814,1,,,,,,,,,,,,,,,,,,,,,,,,0.024074088,-0.262037048,0,0,0,,,,,,,BOXER,C,z,m,./images/BOXER.png,,,,,,,,,,,,,,,,,,,,,z,1,0.814,,,,,,,,0,3,3,88,1
,,,,,,,,,,,,,,,,,5eb087ed7f6d1e1232690d6a,61,2022-02-12_14h57.32.857,lexical_decision_task_DD_L3,2021.2.3,Win32,60.2373351,,,,,,,,,,,1.4993,1,,,,,,,,,,,,,,,,,,,,,,,,0.024074088,-0.262037048,0,0,0,,,,,,,BEARD,HB,m,m,./images/BEARDHB.png,,,,,,,,,,,,,,,,,,,,,m,1,1.4993,,,,,,,,0,4,4,2,1
,,,,,,,,,,,,,,,,,5eb087ed7f6d1e1232690d6a,61,2022-02-12_14h57.32.857,lexical_decision_task_DD_L3,2021.2.3,Win32,60.2373351,,,,,,,,,,,0.9796,1,,,,,,,,,,,,,,,,,,,,,,,,0.024074088,-0.262037048,0,0,0,,,,,,,URINE,C,m,m,./images/URINE.png,,,,,,,,,,,,,,,,,,,,,m,1,0.9796,,,,,,,,0,5,5,70,1
,,,,,,,,,,,,,,,,,5eb087ed7f6d1e1232690d6a,61,2022-02-12_14h57.32.857,lexical_decision_task_DD_L3,2021.2.3,Win32,60.2373351,,,,,,,,,,,1.0289,1,,,,,,,,,,,,,,,,,,,,,,,,0.024074088,-0.262037048,0,0,0,,,,,,,PLANK,C,m,m,./images/PLANK.png,,,,,,,,,,,,,,,,,,,,,m,1,1.0289,,,,,,,,0,6,6,1,1
,,,,,,,,,,,,,,,,,5eb087ed7f6d1e1232690d6a,61,2022-02-12_14h57.32.857,lexical_decision_task_DD_L3,2021.2.3,Win32,60.2373351,,,,,,,,,,,1.9369,0,,,,,,,,,,,,,,,,,,,,,,,,0.024074088,-0.262037048,0,0,0,,,,,,,FARMER,HB,m,m,./images/FARMERHB.png,,,,,,,,,,,,,,,,,,,,,z,0,1.9369,,,,,,,,0,7,7,65,1
,,,,,,,,,,,,,,,,,5eb087ed7f6d1e1232690d6a,61,2022-02-12_14h57.32.857,lexical_decision_task_DD_L3,2021.2.3,Win32,60.2373351,,,,,,,,,,,1.8601,1,,,,,,,,,,,,,,,,,,,,,,,,0.024074088,-0.262037048,0,0,0,,,,,,,GRAPE,C,z,m,./images/GRAPE.png,,,,,,,,,,,,,,,,,,,,,z,1,1.8601,,,,,,,,0,8,8,100,1
,,,,,,,,,,,,,,,,,5eb087ed7f6d1e1232690d6a,61,2022-02-12_14h57.32.857,lexical_decision_task_DD_L3,2021.2.3,Win32,60.2373351,,,,,,,,,,,1.1657,1,,,,,,,,,,,,,,,,,,,,,,,,0.024074088,-0.262037048,0,0,0,,,,,,,HAMMER,LB,z,m,./images/HAMMERLB.png,,,,,,,,,,,,,,,,,,,,,z,1,1.1657,,,,,,,,0,9,9,159,1
,,,,,,,,,,,,,,,,,5eb087ed7f6d1e1232690d6a,61,2022-02-12_14h57.32.857,lexical_decision_task_DD_L3,2021.2.3,Win32,60.2373351,,,,,,,,,,,1.1127,1,,,,,,,,,,,,,,,,,,,,,,,,0.024074088,-0.262037048,0,0,0,,,,,,,MUMMY,C,z,m,./images/MUMMY.png,,,,,,,,,,,,,,,,,,,,,z,1,1.1127,,,,,,,,0,10,10,130,1
,,,,,,,,,,,,,,,,,5eb087ed7f6d1e1232690d6a,61,2022-02-12_14h57.32.857,lexical_decision_task_DD_L3,2021.2.3,Win32,60.2373351,,,,,,,,,,,0.7313,1,,,,,,,,,,,,,,,,,,,,,,,,0.024074088,-0.262037048,0,0,0,,,,,,,CRUST,C,m,m,./images/CRUST.png,,,,,,,,,,,,,,,,,,,,,m,1,0.7313,,,,,,,,0,11,11,79,1
,,,,,,,,,,,,,,,,,5eb087ed7f6d1e1232690d6a,61,2022-02-12_14h57.32.857,lexical_decision_task_DD_L3,2021.2.3,Win32,60.2373351,,,,,,,,,,,0.6454,1,,,,,,,,,,,,,,,,,,,,,,,,0.024074088,-0.262037048,0,0,0,,,,,,,TOMATO,LB,m,m,./images/TOMATOLB.png,,,,,,,,,,,,,,,,,,,,,m,1,0.6454,,,,,,,,0,12,12,0,1
,,,,,,,,,,,,,,,,,5eb087ed7f6d1e1232690d6a,61,2022-02-12_14h57.32.857,lexical_decision_task_DD_L3,2021.2.3,Win32,60.2373351,,,,,,,,,,,0.6969,1,,,,,,,,,,,,,,,,,,,,,,,,0.024074088,-0.262037048,0,0,0,,,,,,,BURIAL,HB,m,m,./images/BURIALHB.png,,,,,,,,,,,,,,,,,,,,,m,1,0.6969,,,,,,,,0,13,13,59,1
,,,,,,,,,,,,,,,,,5eb087ed7f6d1e1232690d6a,61,2022-02-12_14h57.32.857,lexical_decision_task_DD_L3,2021.2.3,Win32,60.2373351,,,,,,,,,,,0.5694,1,,,,,,,,,,,,,,,,,,,,,,,,0.024074088,-0.262037048,0,0,0,,,,,,,CEMENT,HB,m,m,./images/CEMENTHB.png,,,,,,,,,,,,,,,,,,,,,m,1,0.5694,,,,,,,,0,14,14,74,1
,,,,,,,,,,,,,,,,,5eb087ed7f6d1e1232690d6a,61,2022-02-12_14h57.32.857,lexical_decision_task_DD_L3,2021.2.3,Win32,60.2373351,,,,,,,,,,,0.7778,1,,,,,,,,,,,,,,,,,,,,,,,,0.024074088,-0.262037048,0,0,0,,,,,,,ALLEY,C,z,m,./images/ALLEY.png,,,,,,,,,,,,,,,,,,,,,z,1,0.7778,,,,,,,,0,15,15,139,1
,,,,,,,,,,,,,,,,,5eb087ed7f6d1e1232690d6a,61,2022-02-12_14h57.32.857,lexical_decision_task_DD_L3,2021.2.3,Win32,60.2373351,,,,,,,,,,,0.7785,1,,,,,,,,,,,,,,,,,,,,,,,,0.024074088,-0.262037048,0,0,0,,,,,,,BANANA,C,z,m,./images/BANANA.png,,,,,,,,,,,,,,,,,,,,,z,1,0.7785,,,,,,,,0,16,16,154,1
,,,,,,,,,,,,,,,,,5eb087ed7f6d1e1232690d6a,61,2022-02-12_14h57.32.857,lexical_decision_task_DD_L3,2021.2.3,Win32,60.2373351,,,,,,,,,,,1.047,0,,,,,,,,,,,,,,,,,,,,,,,,0.024074088,-0.262037048,0,0,0,,,,,,,BOILER,LB,z,m,./images/BOILERLB.png,,,,,,,,,,,,,,,,,,,,,m,0,1.047,,,,,,,,0,17,17,120,1
,,,,,,,,,,,,,,,,,5eb087ed7f6d1e1232690d6a,61,2022-02-12_14h57.32.857,lexical_decision_task_DD_L3,2021.2.3,Win32,60.2373351,,,,,,,,,,,1.1044,1,,,,,,,,,,,,,,,,,,,,,,,,0.024074088,-0.262037048,0,0,0,,,,,,,STOVE,HB,z,m,./images/STOVEHB.png,,,,,,,,,,,,,,,,,,,,,z,1,1.1044,,,,,,,,0,18,18,86,1
,,,,,,,,,,,,,,,,,5eb087ed7f6d1e1232690d6a,61,2022-02-12_14h57.32.857,lexical_decision_task_DD_L3,2021.2.3,Win32,60.2373351,,,,,,,,,,,0.6675,1,,,,,,,,,,,,,,,,,,,,,,,,0.024074088,-0.262037048,0,0,0,,,,,,,MELON,C,m,m,./images/MELON.png,,,,,,,,,,,,,,,,,,,,,m,1,0.6675,,,,,,,,0,19,19,22,1
,,,,,,,,,,,,,,,,,5eb087ed7f6d1e1232690d6a,61,2022-02-12_14h57.32.857,lexical_decision_task_DD_L3,2021.2.3,Win32,60.2373351,,,,,,,,,,,0.631,1,,,,,,,,,,,,,,,,,,,,,,,,0.024074088,-0.262037048,0,0,0,,,,,,,FALCON,C,m,m,./images/FALCON.png,,,,,,,,,,,,,,,,,,,,,m,1,0.631,,,,,,,,0,20,20,28,1
,,,,,,,,,,,,,,,,,5eb087ed7f6d1e1232690d6a,61,2022-02-12_14h57.32.857,lexical_decision_task_DD_L3,2021.2.3,Win32,60.2373351,,,,,,,,,,,1.0116,1,,,,,,,,,,,,,,,,,,,,,,,,0.024074088,-0.262037048,0,0,0,,,,,,,MONKEY,LB,z,m,./images/MONKEYLB.png,,,,,,,,,,,,,,,,,,,,,z,1,1.0116,,,,,,,,0,21,21,129,1
,,,,,,,,,,,,,,,,,5eb087ed7f6d1e1232690d6a,61,2022-02-12_14h57.32.857,lexical_decision_task_DD_L3,2021.2.3,Win32,60.2373351,,,,,,,,,,,1.22,1,,,,,,,,,,,,,,,,,,,,,,,,0.024074088,-0.262037048,0,0,0,,,,,,,BISHOP,C,z,m,./images/BISHOP.png,,,,,,,,,,,,,,,,,,,,,z,1,1.22,,,,,,,,0,22,22,133,1
,,,,,,,,,,,,,,,,,5eb087ed7f6d1e1232690d6a,61,2022-02-12_14h57.32.857,lexical_decision_task_DD_L3,2021.2.3,Win32,60.2373351,,,,,,,,,,,0.8036,0,,,,,,,,,,,,,,,,,,,,,,,,0.024074088,-0.262037048,0,0,0,,,,,,,PILOT,HB,z,m,./images/PILOTHB.png,,,,,,,,,,,,,,,,,,,,,m,0,0.8036,,,,,,,,0,23,23,134,1
,,,,,,,,,,,,,,,,,5eb087ed7f6d1e1232690d6a,61,2022-02-12_14h57.32.857,lexical_decision_task_DD_L3,2021.2.3,Win32,60.2373351,,,,,,,,,,,0.7352,1,,,,,,,,,,,,,,,,,,,,,,,,0.024074088,-0.262037048,0,0,0,,,,,,,FLESH,LB,z,m,./images/FLESHLB.png,,,,,,,,,,,,,,,,,,,,,z,1,0.7352,,,,,,,,0,24,24,108,1
,,,,,,,,,,,,,,,,,5eb087ed7f6d1e1232690d6a,61,2022-02-12_14h57.32.857,lexical_decision_task_DD_L3,2021.2.3,Win32,60.2373351,,,,,,,,,,,1.8293,1,,,,,,,,,,,,,,,,,,,,,,,,0.024074088,-0.262037048,0,0,0,,,,,,,CANOE,C,z,m,./images/CANOE.png,,,,,,,,,,,,,,,,,,,,,z,1,1.8293,,,,,,,,0,25,25,142,1
,,,,,,,,,,,,,,,,,5eb087ed7f6d1e1232690d6a,61,2022-02-12_14h57.32.857,lexical_decision_task_DD_L3,2021.2.3,Win32,60.2373351,,,,,,,,,,,0.6299,1,,,,,,,,,,,,,,,,,,,,,,,,0.024074088,-0.262037048,0,0,0,,,,,,,ATTIC,LB,m,m,./images/ATTICLB.png,,,,,,,,,,,,,,,,,,,,,m,1,0.6299,,,,,,,,0,26,26,27,1
,,,,,,,,,,,,,,,,,5eb087ed7f6d1e1232690d6a,61,2022-02-12_14h57.32.857,lexical_decision_task_DD_L3,2021.2.3,Win32,60.2373351,,,,,,,,,,,0.5295,1,,,,,,,,,,,,,,,,,,,,,,,,0.024074088,-0.262037048,0,0,0,,,,,,,COUCH,HB,m,m,./images/COUCHHB.png,,,,,,,,,,,,,,,,,,,,,m,1,0.5295,,,,,,,,0,27,27,77,1
,,,,,,,,,,,,,,,,,5eb087ed7f6d1e1232690d6a,61,2022-02-12_14h57.32.857,lexical_decision_task_DD_L3,2021.2.3,Win32,60.2373351,,,,,,,,,,,0.6826,1,,,,,,,,,,,,,,,,,,,,,,,,0.024074088,-0.262037048,0,0,0,,,,,,,LAGOON,HB,z,m,./images/LAGOONHB.png,,,,,,,,,,,,,,,,,,,,,z,1,0.6826,,,,,,,,0,28,28,131,1
,,,,,,,,,,,,,,,,,5eb087ed7f6d1e1232690d6a,61,2022-02-12_14h57.32.857,lexical_decision_task_DD_L3,2021.2.3,Win32,60.2373351,,,,,,,,,,,0.6297,1,,,,,,,,,,,,,,,,,,,,,,,,0.024074088,-0.262037048,0,0,0,,,,,,,BARREL,HB,m,m,./images/BARRELHB.png,,,,,,,,,,,,,,,,,,,,,m,1,0.6297,,,,,,,,0,29,29,32,1
,,,,,,,,,,,,,,,,,5eb087ed7f6d1e1232690d6a,61,2022-02-12_14h57.32.857,lexical_decision_task_DD_L3,2021.2.3,Win32,60.2373351,,,,,,,,,,,0.7172,1,,,,,,,,,,,,,,,,,,,,,,,,0.024074088,-0.262037048,0,0,0,,,,,,,BANNER,C,m,m,./images/BANNER.png,,,,,,,,,,,,,,,,,,,,,m,1,0.7172,,,,,,,,0,30,30,52,1
,,,,,,,,,,,,,,,,,5eb087ed7f6d1e1232690d6a,61,2022-02-12_14h57.32.857,lexical_decision_task_DD_L3,2021.2.3,Win32,60.2373351,,,,,,,,,,,0.6136,1,,,,,,,,,,,,,,,,,,,,,,,,0.024074088,-0.262037048,0,0,0,,,,,,,WRIST,C,m,m,./images/WRIST.png,,,,,,,,,,,,,,,,,,,,,m,1,0.6136,,,,,,,,0,31,31,25,1
,,,,,,,,,,,,,,,,,5eb087ed7f6d1e1232690d6a,61,2022-02-12_14h57.32.857,lexical_decision_task_DD_L3,2021.2.3,Win32,60.2373351,,,,,,,,,,,0.9208,1,,,,,,,,,,,,,,,,,,,,,,,,0.024074088,-0.262037048,0,0,0,,,,,,,STREAM,HB,z,m,./images/STREAMHB.png,,,,,,,,,,,,,,,,,,,,,z,1,0.9208,,,,,,,,0,32,32,125,1
,,,,,,,,,,,,,,,,,5eb087ed7f6d1e1232690d6a,61,2022-02-12_14h57.32.857,lexical_decision_task_DD_L3,2021.2.3,Win32,60.2373351,,,,,,,,,,,0.8166,1,,,,,,,,,,,,,,,,,,,,,,,,0.024074088,-0.262037048,0,0,0,,,,,,,CRADLE,HB,m,m,./images/CRADLEHB.png,,,,,,,,,,,,,,,,,,,,,m,1,0.8166,,,,,,,,0,33,33,20,1
,,,,,,,,,,,,,,,,,5eb087ed7f6d1e1232690d6a,61,2022-02-12_14h57.32.857,lexical_decision_task_DD_L3,2021.2.3,Win32,60.2373351,,,,,,,,,,,1.0299,0,,,,,,,,,,,,,,,,,,,,,,,,0.024074088,-0.262037048,0,0,0,,,,,,,ONION,LB,m,m,./images/ONIONLB.png,,,,,,,,,,,,,,,,,,,,,z,0,1.0299,,,,,,,,0,34,34,51,1
,,,,,,,,,,,,,,,,,5eb087ed7f6d1e1232690d6a,61,2022-02-12_14h57.32.857,lexical_decision_task_DD_L3,2021.2.3,Win32,60.2373351,,,,,,,,,,,1.0352,1,,,,,,,,,,,,,,,,,,,,,,,,0.024074088,-0.262037048,0,0,0,,,,,,,SAILOR,C,m,m,./images/SAILOR.png,,,,,,,,,,,,,,,,,,,,,m,1,1.0352,,,,,,,,0,35,35,67,1
,,,,,,,,,,,,,,,,,5eb087ed7f6d1e1232690d6a,61,2022-02-12_14h57.32.857,lexical_decision_task_DD_L3,2021.2.3,Win32,60.2373351,,,,,,,,,,,0.7473,1,,,,,,,,,,,,,,,,,,,,,,,,0.024074088,-0.262037048,0,0,0,,,,,,,PACKET,HB,m,m,./images/PACKETHB.png,,,,,,,,,,,,,,,,,,,,,m,1,0.7473,,,,,,,,0,36,36,56,1
,,,,,,,,,,,,,,,,,5eb087ed7f6d1e1232690d6a,61,2022-02-12_14h57.32.857,lexical_decision_task_DD_L3,2021.2.3,Win32,60.2373351,,,,,,,,,,,1.2964,1,,,,,,,,,,,,,,,,,,,,,,,,0.024074088,-0.262037048,0,0,0,,,,,,,ENGINE,HB,z,m,./images/ENGINEHB.png,,,,,,,,,,,,,,,,,,,,,z,1,1.2964,,,,,,,,0,37,37,122,1
,,,,,,,,,,,,,,,,,5eb087ed7f6d1e1232690d6a,61,2022-02-12_14h57.32.857,lexical_decision_task_DD_L3,2021.2.3,Win32,60.2373351,,,,,,,,,,,2.0949,1,,,,,,,,,,,,,,,,,,,,,,,,0.024074088,-0.262037048,0,0,0,,,,,,,BRIDE,C,z,m,./images/BRIDE.png,,,,,,,,,,,,,,,,,,,,,z,1,2.0949,,,,,,,,0,38,38,148,1
,,,,,,,,,,,,,,,,,5eb087ed7f6d1e1232690d6a,61,2022-02-12_14h57.32.857,lexical_decision_task_DD_L3,2021.2.3,Win32,60.2373351,,,,,,,,,,,0.8852,1,,,,,,,,,,,,,,,,,,,,,,,,0.024074088,-0.262037048,0,0,0,,,,,,,FINGER,LB,m,m,./images/FINGERLB.png,,,,,,,,,,,,,,,,,,,,,m,1,0.8852,,,,,,,,0,39,39,3,1
,,,,,,,,,,,,,,,,,5eb087ed7f6d1e1232690d6a,61,2022-02-12_14h57.32.857,lexical_decision_task_DD_L3,2021.2.3,Win32,60.2373351,,,,,,,,,,,0.8486,1,,,,,,,,,,,,,,,,,,,,,,,,0.024074088,-0.262037048,0,0,0,,,,,,,JUMPER,HB,z,m,./images/JUMPERHB.png,,,,,,,,,,,,,,,,,,,,,z,1,0.8486,,,,,,,,0,40,40,158,1
,,,,,,,,,,,,,,,,,5eb087ed7f6d1e1232690d6a,61,2022-02-12_14h57.32.857,lexical_decision_task_DD_L3,2021.2.3,Win32,60.2373351,,,,,,,,,,,2.4361,0,,,,,,,,,,,,,,,,,,,,,,,,0.024074088,-0.262037048,0,0,0,space,,,,,,BELLY,C,m,m,./images/BELLY.png,4.1851,,,,,,,,,,,,,,,,,,,,z,0,2.4361,,,,,,,,0,41,41,10,1
,,,,,,,,,,,,,,,,,5eb087ed7f6d1e1232690d6a,61,2022-02-12_14h57.32.857,lexical_decision_task_DD_L3,2021.2.3,Win32,60.2373351,,,,,,,,,,,1.0619,0,,,,,,,,,,,,,,,,,,,,,,,,0.024074088,-0.262037048,0,0,0,,,,,,,BAKER,LB,z,m,./images/BAKERLB.png,,,,,,,,,,,,,,,,,,,,,m,0,1.0619,,,,,,,,0,42,42,147,1
,,,,,,,,,,,,,,,,,5eb087ed7f6d1e1232690d6a,61,2022-02-12_14h57.32.857,lexical_decision_task_DD_L3,2021.2.3,Win32,60.2373351,,,,,,,,,,,0.6625,1,,,,,,,,,,,,,,,,,,,,,,,,0.024074088,-0.262037048,0,0,0,,,,,,,JAGUAR,LB,m,m,./images/JAGUARLB.png,,,,,,,,,,,,,,,,,,,,,m,1,0.6625,,,,,,,,0,43,43,18,1
,,,,,,,,,,,,,,,,,5eb087ed7f6d1e1232690d6a,61,2022-02-12_14h57.32.857,lexical_decision_task_DD_L3,2021.2.3,Win32,60.2373351,,,,,,,,,,,0.6278,1,,,,,,,,,,,,,,,,,,,,,,,,0.024074088,-0.262037048,0,0,0,,,,,,,STRING,HB,m,m,./images/STRINGHB.png,,,,,,,,,,,,,,,,,,,,,m,1,0.6278,,,,,,,,0,44,44,41,1
,,,,,,,,,,,,,,,,,5eb087ed7f6d1e1232690d6a,61,2022-02-12_14h57.32.857,lexical_decision_task_DD_L3,2021.2.3,Win32,60.2373351,,,,,,,,,,,0.5454,1,,,,,,,,,,,,,,,,,,,,,,,,0.024074088,-0.262037048,0,0,0,,,,,,,LLAMA,HB,z,m,./images/LLAMAHB.png,,,,,,,,,,,,,,,,,,,,,z,1,0.5454,,,,,,,,0,45,45,119,1
,,,,,,,,,,,,,,,,,5eb087ed7f6d1e1232690d6a,61,2022-02-12_14h57.32.857,lexical_decision_task_DD_L3,2021.2.3,Win32,60.2373351,,,,,,,,,,,0.6294,1,,,,,,,,,,,,,,,,,,,,,,,,0.024074088,-0.262037048,0,0,0,,,,,,,PENCE,C,m,m,./images/PENCE.png,,,,,,,,,,,,,,,,,,,,,m,1,0.6294,,,,,,,,0,46,46,16,1
,,,,,,,,,,,,,,,,,5eb087ed7f6d1e1232690d6a,61,2022-02-12_14h57.32.857,lexical_decision_task_DD_L3,2021.2.3,Win32,60.2373351,,,,,,,,,,,1.0355,1,,,,,,,,,,,,,,,,,,,,,,,,0.024074088,-0.262037048,0,0,0,,,,,,,PAINT,C,m,m,./images/PAINT.png,,,,,,,,,,,,,,,,,,,,,m,1,1.0355,,,,,,,,0,47,47,7,1
,,,,,,,,,,,,,,,,,5eb087ed7f6d1e1232690d6a,61,2022-02-12_14h57.32.857,lexical_decision_task_DD_L3,2021.2.3,Win32,60.2373351,,,,,,,,,,,0.6958,0,,,,,,,,,,,,,,,,,,,,,,,,0.024074088,-0.262037048,0,0,0,,,,,,,CLOTH,HB,z,m,./images/CLOTHHB.png,,,,,,,,,,,,,,,,,,,,,m,0,0.6958,,,,,,,,0,48,48,107,1
,,,,,,,,,,,,,,,,,5eb087ed7f6d1e1232690d6a,61,2022-02-12_14h57.32.857,lexical_decision_task_DD_L3,2021.2.3,Win32,60.2373351,,,,,,,,,,,0.8041,1,,,,,,,,,,,,,,,,,,,,,,,,0.024074088,-0.262037048,0,0,0,,,,,,,CLOWN,C,z,m,./images/CLOWN.png,,,,,,,,,,,,,,,,,,,,,z,1,0.8041,,,,,,,,0,49,49,106,1
,,,,,,,,,,,,,,,,,5eb087ed7f6d1e1232690d6a,61,2022-02-12_14h57.32.857,lexical_decision_task_DD_L3,2021.2.3,Win32,60.2373351,,,,,,,,,,,0.8945,1,,,,,,,,,,,,,,,,,,,,,,,,0.024074088,-0.262037048,0,0,0,,,,,,,PARCEL,LB,z,m,./images/PARCELLB.png,,,,,,,,,,,,,,,,,,,,,z,1,0.8945,,,,,,,,0,50,50,102,1
,,,,,,,,,,,,,,,,,5eb087ed7f6d1e1232690d6a,61,2022-02-12_14h57.32.857,lexical_decision_task_DD_L3,2021.2.3,Win32,60.2373351,,,,,,,,,,,0.714,1,,,,,,,,,,,,,,,,,,,,,,,,0.024074088,-0.262037048,0,0,0,,,,,,,JUNGLE,HB,m,m,./images/JUNGLEHB.png,,,,,,,,,,,,,,,,,,,,,m,1,0.714,,,,,,,,0,51,51,83,1
,,,,,,,,,,,,,,,,,5eb087ed7f6d1e1232690d6a,61,2022-02-12_14h57.32.857,lexical_decision_task_DD_L3,2021.2.3,Win32,60.2373351,,,,,,,,,,,1.016,0,,,,,,,,,,,,,,,,,,,,,,,,0.024074088,-0.262037048,0,0,0,,,,,,,SHORE,LB,m,m,./images/SHORELB.png,,,,,,,,,,,,,,,,,,,,,z,0,1.016,,,,,,,,0,52,52,12,1
,,,,,,,,,,,,,,,,,5eb087ed7f6d1e1232690d6a,61,2022-02-12_14h57.32.857,lexical_decision_task_DD_L3,2021.2.3,Win32,60.2373351,,,,,,,,,,,4.0658,0,,,,,,,,,,,,,,,,,,,,,,,,0.024074088,-0.262037048,0,0,0,,,,,,,NOOSE,LB,m,m,./images/NOOSELB.png,,,,,,,,,,,,,,,,,,,,,z,0,4.0658,,,,,,,,0,53,53,72,1
,,,,,,,,,,,,,,,,,5eb087ed7f6d1e1232690d6a,61,2022-02-12_14h57.32.857,lexical_decision_task_DD_L3,2021.2.3,Win32,60.2373351,,,,,,,,,,,2.7191,1,,,,,,,,,,,,,,,,,,,,,,,,0.024074088,-0.262037048,0,0,0,,,,,,,CHERRY,LB,z,m,./images/CHERRYLB.png,,,,,,,,,,,,,,,,,,,,,z,1,2.7191,,,,,,,,0,54,54,138,1
,,,,,,,,,,,,,,,,,5eb087ed7f6d1e1232690d6a,61,2022-02-12_14h57.32.857,lexical_decision_task_DD_L3,2021.2.3,Win32,60.2373351,,,,,,,,,,,1.5972,0,,,,,,,,,,,,,,,,,,,,,,,,0.024074088,-0.262037048,0,0,0,,,,,,,LADDER,HB,m,m,./images/LADDERHB.png,,,,,,,,,,,,,,,,,,,,,z,0,1.5972,,,,,,,,0,55,55,38,1
,,,,,,,,,,,,,,,,,5eb087ed7f6d1e1232690d6a,61,2022-02-12_14h57.32.857,lexical_decision_task_DD_L3,2021.2.3,Win32,60.2373351,,,,,,,,,,,0.5551,1,,,,,,,,,,,,,,,,,,,,,,,,0.024074088,-0.262037048,0,0,0,,,,,,,PICKLE,HB,m,m,./images/PICKLEHB.png,,,,,,,,,,,,,,,,,,,,,m,1,0.5551,,,,,,,,0,56,56,14,1
,,,,,,,,,,,,,,,,,5eb087ed7f6d1e1232690d6a,61,2022-02-12_14h57.32.857,lexical_decision_task_DD_L3,2021.2.3,Win32,60.2373351,,,,,,,,,,,0.7062,1,,,,,,,,,,,,,,,,,,,,,,,,0.024074088,-0.262037048,0,0,0,,,,,,,MAMMAL,HB,z,m,./images/MAMMALHB.png,,,,,,,,,,,,,,,,,,,,,z,1,0.7062,,,,,,,,0,57,57,146,1
,,,,,,,,,,,,,,,,,5eb087ed7f6d1e1232690d6a,61,2022-02-12_14h57.32.857,lexical_decision_task_DD_L3,2021.2.3,Win32,60.2373351,,,,,,,,,,,0.7633,1,,,,,,,,,,,,,,,,,,,,,,,,0.024074088,-0.262037048,0,0,0,,,,,,,JELLY,C,m,m,./images/JELLY.png,,,,,,,,,,,,,,,,,,,,,m,1,0.7633,,,,,,,,0,58,58,64,1
,,,,,,,,,,,,,,,,,5eb087ed7f6d1e1232690d6a,61,2022-02-12_14h57.32.857,lexical_decision_task_DD_L3,2021.2.3,Win32,60.2373351,,,,,,,,,,,1.0342,1,,,,,,,,,,,,,,,,,,,,,,,,0.024074088,-0.262037048,0,0,0,,,,,,,STATUE,LB,z,m,./images/STATUELB.png,,,,,,,,,,,,,,,,,,,,,z,1,1.0342,,,,,,,,0,59,59,150,1
,,,,,,,,,,,,,,,,,5eb087ed7f6d1e1232690d6a,61,2022-02-12_14h57.32.857,lexical_decision_task_DD_L3,2021.2.3,Win32,60.2373351,,,,,,,,,,,0.8159,1,,,,,,,,,,,,,,,,,,,,,,,,0.024074088,-0.262037048,0,0,0,,,,,,,MALLET,HB,m,m,./images/MALLETHB.png,,,,,,,,,,,,,,,,,,,,,m,1,0.8159,,,,,,,,0,60,60,50,1
,,,,,,,,,,,,,,,,,5eb087ed7f6d1e1232690d6a,61,2022-02-12_14h57.32.857,lexical_decision_task_DD_L3,2021.2.3,Win32,60.2373351,,,,,,,,,,,0.8144,1,,,,,,,,,,,,,,,,,,,,,,,,0.024074088,-0.262037048,0,0,0,,,,,,,RULER,C,z,m,./images/RULER.png,,,,,,,,,,,,,,,,,,,,,z,1,0.8144,,,,,,,,0,61,61,163,1
,,,,,,,,,,,,,,,,,5eb087ed7f6d1e1232690d6a,61,2022-02-12_14h57.32.857,lexical_decision_task_DD_L3,2021.2.3,Win32,60.2373351,,,,,,,,,,,1.0833,1,,,,,,,,,,,,,,,,,,,,,,,,0.024074088,-0.262037048,0,0,0,,,,,,,WALRUS,HB,m,m,./images/WALRUSHB.png,,,,,,,,,,,,,,,,,,,,,m,1,1.0833,,,,,,,,0,62,62,23,1
,,,,,,,,,,,,,,,,,5eb087ed7f6d1e1232690d6a,61,2022-02-12_14h57.32.857,lexical_decision_task_DD_L3,2021.2.3,Win32,60.2373351,,,,,,,,,,,1.7804,0,,,,,,,,,,,,,,,,,,,,,,,,0.024074088,-0.262037048,0,0,0,,,,,,,CURRY,LB,z,m,./images/CURRYLB.png,,,,,,,,,,,,,,,,,,,,,m,0,1.7804,,,,,,,,0,63,63,144,1
,,,,,,,,,,,,,,,,,5eb087ed7f6d1e1232690d6a,61,2022-02-12_14h57.32.857,lexical_decision_task_DD_L3,2021.2.3,Win32,60.2373351,,,,,,,,,,,0.7141,1,,,,,,,,,,,,,,,,,,,,,,,,0.024074088,-0.262037048,0,0,0,,,,,,,PEARL,C,m,m,./images/PEARL.png,,,,,,,,,,,,,,,,,,,,,m,1,0.7141,,,,,,,,0,64,64,46,1
,,,,,,,,,,,,,,,,,5eb087ed7f6d1e1232690d6a,61,2022-02-12_14h57.32.857,lexical_decision_task_DD_L3,2021.2.3,Win32,60.2373351,,,,,,,,,,,0.7018,0,,,,,,,,,,,,,,,,,,,,,,,,0.024074088,-0.262037048,0,0,0,,,,,,,FLASK,LB,z,m,./images/FLASKLB.png,,,,,,,,,,,,,,,,,,,,,m,0,0.7018,,,,,,,,0,65,65,156,1
,,,,,,,,,,,,,,,,,5eb087ed7f6d1e1232690d6a,61,2022-02-12_14h57.32.857,lexical_decision_task_DD_L3,2021.2.3,Win32,60.2373351,,,,,,,,,,,1.0063,1,,,,,,,,,,,,,,,,,,,,,,,,0.024074088,-0.262037048,0,0,0,,,,,,,BROOM,LB,z,m,./images/BROOMLB.png,,,,,,,,,,,,,,,,,,,,,z,1,1.0063,,,,,,,,0,66,66,162,1
,,,,,,,,,,,,,,,,,5eb087ed7f6d1e1232690d6a,61,2022-02-12_14h57.32.857,lexical_decision_task_DD_L3,2021.2.3,Win32,60.2373351,,,,,,,,,,,0.713,1,,,,,,,,,,,,,,,,,,,,,,,,0.024074088,-0.262037048,0,0,0,,,,,,,PASTA,HB,m,m,./images/PASTAHB.png,,,,,,,,,,,,,,,,,,,,,m,1,0.713,,,,,,,,0,67,67,5,1
,,,,,,,,,,,,,,,,,5eb087ed7f6d1e1232690d6a,61,2022-02-12_14h57.32.857,lexical_decision_task_DD_L3,2021.2.3,Win32,60.2373351,,,,,,,,,,,1.448,1,,,,,,,,,,,,,,,,,,,,,,,,0.024074088,-0.262037048,0,0,0,,,,,,,GRANNY,HB,z,m,./images/GRANNYHB.png,,,,,,,,,,,,,,,,,,,,,z,1,1.448,,,,,,,,0,68,68,104,1
,,,,,,,,,,,,,,,,,5eb087ed7f6d1e1232690d6a,61,2022-02-12_14h57.32.857,lexical_decision_task_DD_L3,2021.2.3,Win32,60.2373351,,,,,,,,,,,0.6658,1,,,,,,,,,,,,,,,,,,,,,,,,0.024074088,-0.262037048,0,0,0,,,,,,,PEACH,HB,m,m,./images/PEACHHB.png,,,,,,,,,,,,,,,,,,,,,m,1,0.6658,,,,,,,,0,69,69,35,1
,,,,,,,,,,,,,,,,,5eb087ed7f6d1e1232690d6a,61,2022-02-12_14h57.32.857,lexical_decision_task_DD_L3,2021.2.3,Win32,60.2373351,,,,,,,,,,,0.7619,0,,,,,,,,,,,,,,,,,,,,,,,,0.024074088,-0.262037048,0,0,0,,,,,,,QUILL,C,m,m,./images/QUILL.png,,,,,,,,,,,,,,,,,,,,,z,0,0.7619,,,,,,,,0,70,70,31,1
,,,,,,,,,,,,,,,,,5eb087ed7f6d1e1232690d6a,61,2022-02-12_14h57.32.857,lexical_decision_task_DD_L3,2021.2.3,Win32,60.2373351,,,,,,,,,,,0.9622,1,,,,,,,,,,,,,,,,,,,,,,,,0.024074088,-0.262037048,0,0,0,,,,,,,TRIPOD,LB,m,m,./images/TRIPODLB.png,,,,,,,,,,,,,,,,,,,,,m,1,0.9622,,,,,,,,0,71,71,54,1
,,,,,,,,,,,,,,,,,5eb087ed7f6d1e1232690d6a,61,2022-02-12_14h57.32.857,lexical_decision_task_DD_L3,2021.2.3,Win32,60.2373351,,,,,,,,,,,0.696,1,,,,,,,,,,,,,,,,,,,,,,,,0.024074088,-0.262037048,0,0,0,,,,,,,RAZOR,C,z,m,./images/RAZOR.png,,,,,,,,,,,,,,,,,,,,,z,1,0.696,,,,,,,,0,72,72,118,1
,,,,,,,,,,,,,,,,,5eb087ed7f6d1e1232690d6a,61,2022-02-12_14h57.32.857,lexical_decision_task_DD_L3,2021.2.3,Win32,60.2373351,,,,,,,,,,,0.963,0,,,,,,,,,,,,,,,,,,,,,,,,0.024074088,-0.262037048,0,0,0,,,,,,,FOLDER,LB,m,m,./images/FOLDERLB.png,,,,,,,,,,,,,,,,,,,,,z,0,0.963,,,,,,,,0,73,73,42,1
,,,,,,,,,,,,,,,,,5eb087ed7f6d1e1232690d6a,61,2022-02-12_14h57.32.857,lexical_decision_task_DD_L3,2021.2.3,Win32,60.2373351,,,,,,,,,,,0.8175,1,,,,,,,,,,,,,,,,,,,,,,,,0.024074088,-0.262037048,0,0,0,,,,,,,BAMBOO,HB,z,m,./images/BAMBOOHB.png,,,,,,,,,,,,,,,,,,,,,z,1,0.8175,,,,,,,,0,74,74,89,1
,,,,,,,,,,,,,,,,,5eb087ed7f6d1e1232690d6a,61,2022-02-12_14h57.32.857,lexical_decision_task_DD_L3,2021.2.3,Win32,60.2373351,,,,,,,,,,,0.703,1,,,,,,,,,,,,,,,,,,,,,,,,0.024074088,-0.262037048,0,0,0,,,,,,,LIZARD,HB,m,m,./images/LIZARDHB.png,,,,,,,,,,,,,,,,,,,,,m,1,0.703,,,,,,,,0,75,75,44,1
,,,,,,,,,,,,,,,,,5eb087ed7f6d1e1232690d6a,61,2022-02-12_14h57.32.857,lexical_decision_task_DD_L3,2021.2.3,Win32,60.2373351,,,,,,,,,,,0.9512,1,,,,,,,,,,,,,,,,,,,,,,,,0.024074088,-0.262037048,0,0,0,,,,,,,WALNUT,LB,z,m,./images/WALNUTLB.png,,,,,,,,,,,,,,,,,,,,,z,1,0.9512,,,,,,,,0,76,76,84,1
,,,,,,,,,,,,,,,,,5eb087ed7f6d1e1232690d6a,61,2022-02-12_14h57.32.857,lexical_decision_task_DD_L3,2021.2.3,Win32,60.2373351,,,,,,,,,,,2.8936,1,,,,,,,,,,,,,,,,,,,,,,,,0.024074088,-0.262037048,0,0,0,,,,,,,GARDEN,C,z,m,./images/GARDEN.png,,,,,,,,,,,,,,,,,,,,,z,1,2.8936,,,,,,,,0,77,77,94,1
,,,,,,,,,,,,,,,,,5eb087ed7f6d1e1232690d6a,61,2022-02-12_14h57.32.857,lexical_decision_task_DD_L3,2021.2.3,Win32,60.2373351,,,,,,,,,,,1.0012,1,,,,,,,,,,,,,,,,,,,,,,,,0.024074088,-0.262037048,0,0,0,,,,,,,FENCE,HB,z,m,./images/FENCEHB.png,,,,,,,,,,,,,,,,,,,,,z,1,1.0012,,,,,,,,0,78,78,98,1
,,,,,,,,,,,,,,,,,5eb087ed7f6d1e1232690d6a,61,2022-02-12_14h57.32.857,lexical_decision_task_DD_L3,2021.2.3,Win32,60.2373351,,,,,,,,,,,0.6683,1,,,,,,,,,,,,,,,,,,,,,,,,0.024074088,-0.262037048,0,0,0,,,,,,,BLOKE,LB,z,m,./images/BLOKELB.png,,,,,,,,,,,,,,,,,,,,,z,1,0.6683,,,,,,,,0,79,79,96,1
,,,,,,,,,,,,,,,,,5eb087ed7f6d1e1232690d6a,61,2022-02-12_14h57.32.857,lexical_decision_task_DD_L3,2021.2.3,Win32,60.2373351,,,,,,,,,,,1.7134,1,,,,,,,,,,,,,,,,,,,,,,,,0.024074088,-0.262037048,0,0,0,,,,,,,SCREW,LB,m,m,./images/SCREWLB.png,,,,,,,,,,,,,,,,,,,,,m,1,1.7134,,,,,,,,0,80,80,24,1
,,,,,,,,,,,,,,,,,5eb087ed7f6d1e1232690d6a,61,2022-02-12_14h57.32.857,lexical_decision_task_DD_L3,2021.2.3,Win32,60.2373351,,,,,,,,,,,0.6515,1,,,,,,,,,,,,,,,,,,,,,,,,0.024074088,-0.262037048,0,0,0,,,,,,,MUFFIN,C,m,m,./images/MUFFIN.png,,,,,,,,,,,,,,,,,,,,,m,1,0.6515,,,,,,,,0,81,81,55,1
,,,,,,,,,,,,,,,,,5eb087ed7f6d1e1232690d6a,61,2022-02-12_14h57.32.857,lexical_decision_task_DD_L3,2021.2.3,Win32,60.2373351,,,,,,,,,,,0.7537,1,,,,,,,,,,,,,,,,,,,,,,,,0.024074088,-0.262037048,0,0,0,,,,,,,MAGGOT,LB,m,m,./images/MAGGOTLB.png,,,,,,,,,,,,,,,,,,,,,m,1,0.7537,,,,,,,,0,82,82,33,1
,,,,,,,,,,,,,,,,,5eb087ed7f6d1e1232690d6a,61,2022-02-12_14h57.32.857,lexical_decision_task_DD_L3,2021.2.3,Win32,60.2373351,,,,,,,,,,,0.7633,1,,,,,,,,,,,,,,,,,,,,,,,,0.024074088,-0.262037048,0,0,0,space,,,,,,BRUSH,HB,z,m,./images/BRUSHHB.png,3.5682,,,,,,,,,,,,,,,,,,,,z,1,0.7633,,,,,,,,0,83,83,143,1
,,,,,,,,,,,,,,,,,5eb087ed7f6d1e1232690d6a,61,2022-02-12_14h57.32.857,lexical_decision_task_DD_L3,2021.2.3,Win32,60.2373351,,,,,,,,,,,2.2874,0,,,,,,,,,,,,,,,,,,,,,,,,0.024074088,-0.262037048,0,0,0,,,,,,,MOOSE,LB,m,m,./images/MOOSELB.png,,,,,,,,,,,,,,,,,,,,,z,0,2.2874,,,,,,,,0,84,84,57,1
,,,,,,,,,,,,,,,,,5eb087ed7f6d1e1232690d6a,61,2022-02-12_14h57.32.857,lexical_decision_task_DD_L3,2021.2.3,Win32,60.2373351,,,,,,,,,,,0.9288,1,,,,,,,,,,,,,,,,,,,,,,,,0.024074088,-0.262037048,0,0,0,,,,,,,BUNNY,C,z,m,./images/BUNNY.png,,,,,,,,,,,,,,,,,,,,,z,1,0.9288,,,,,,,,0,85,85,97,1
,,,,,,,,,,,,,,,,,5eb087ed7f6d1e1232690d6a,61,2022-02-12_14h57.32.857,lexical_decision_task_DD_L3,2021.2.3,Win32,60.2373351,,,,,,,,,,,0.6698,0,,,,,,,,,,,,,,,,,,,,,,,,0.024074088,-0.262037048,0,0,0,,,,,,,KITTEN,LB,m,m,./images/KITTENLB.png,,,,,,,,,,,,,,,,,,,,,z,0,0.6698,,,,,,,,0,86,86,45,1
,,,,,,,,,,,,,,,,,5eb087ed7f6d1e1232690d6a,61,2022-02-12_14h57.32.857,lexical_decision_task_DD_L3,2021.2.3,Win32,60.2373351,,,,,,,,,,,0.6548,1,,,,,,,,,,,,,,,,,,,,,,,,0.024074088,-0.262037048,0,0,0,,,,,,,ARROW,LB,z,m,./images/ARROWLB.png,,,,,,,,,,,,,,,,,,,,,z,1,0.6548,,,,,,,,0,87,87,153,1
,,,,,,,,,,,,,,,,,5eb087ed7f6d1e1232690d6a,61,2022-02-12_14h57.32.857,lexical_decision_task_DD_L3,2021.2.3,Win32,60.2373351,,,,,,,,,,,1.6856,1,,,,,,,,,,,,,,,,,,,,,,,,0.024074088,-0.262037048,0,0,0,,,,,,,MIDGET,C,z,m,./images/MIDGET.png,,,,,,,,,,,,,,,,,,,,,z,1,1.6856,,,,,,,,0,88,88,160,1
,,,,,,,,,,,,,,,,,5eb087ed7f6d1e1232690d6a,61,2022-02-12_14h57.32.857,lexical_decision_task_DD_L3,2021.2.3,Win32,60.2373351,,,,,,,,,,,0.6302,1,,,,,,,,,,,,,,,,,,,,,,,,0.024074088,-0.262037048,0,0,0,,,,,,,PURSE,HB,m,m,./images/PURSEHB.png,,,,,,,,,,,,,,,,,,,,,m,1,0.6302,,,,,,,,0,89,89,62,1
,,,,,,,,,,,,,,,,,5eb087ed7f6d1e1232690d6a,61,2022-02-12_14h57.32.857,lexical_decision_task_DD_L3,2021.2.3,Win32,60.2373351,,,,,,,,,,,0.6467,1,,,,,,,,,,,,,,,,,,,,,,,,0.024074088,-0.262037048,0,0,0,,,,,,,CANYON,C,m,m,./images/CANYON.png,,,,,,,,,,,,,,,,,,,,,m,1,0.6467,,,,,,,,0,90,90,34,1
,,,,,,,,,,,,,,,,,5eb087ed7f6d1e1232690d6a,61,2022-02-12_14h57.32.857,lexical_decision_task_DD_L3,2021.2.3,Win32,60.2373351,,,,,,,,,,,0.8474,1,,,,,,,,,,,,,,,,,,,,,,,,0.024074088,-0.262037048,0,0,0,,,,,,,HOCKEY,HB,z,m,./images/HOCKEYHB.png,,,,,,,,,,,,,,,,,,,,,z,1,0.8474,,,,,,,,0,91,91,116,1
,,,,,,,,,,,,,,,,,5eb087ed7f6d1e1232690d6a,61,2022-02-12_14h57.32.857,lexical_decision_task_DD_L3,2021.2.3,Win32,60.2373351,,,,,,,,,,,1.1133,0,,,,,,,,,,,,,,,,,,,,,,,,0.024074088,-0.262037048,0,0,0,,,,,,,SQUARE,LB,m,m,./images/SQUARELB.png,,,,,,,,,,,,,,,,,,,,,z,0,1.1133,,,,,,,,0,92,92,6,1
,,,,,,,,,,,,,,,,,5eb087ed7f6d1e1232690d6a,61,2022-02-12_14h57.32.857,lexical_decision_task_DD_L3,2021.2.3,Win32,60.2373351,,,,,,,,,,,1.0658,0,,,,,,,,,,,,,,,,,,,,,,,,0.024074088,-0.262037048,0,0,0,,,,,,,MIRROR,LB,m,m,./images/MIRRORLB.png,,,,,,,,,,,,,,,,,,,,,z,0,1.0658,,,,,,,,0,93,93,63,1
,,,,,,,,,,,,,,,,,5eb087ed7f6d1e1232690d6a,61,2022-02-12_14h57.32.857,lexical_decision_task_DD_L3,2021.2.3,Win32,60.2373351,,,,,,,,,,,0.8353,1,,,,,,,,,,,,,,,,,,,,,,,,0.024074088,-0.262037048,0,0,0,,,,,,,DESERT,C,z,m,./images/DESERT.png,,,,,,,,,,,,,,,,,,,,,z,1,0.8353,,,,,,,,0,94,94,136,1
,,,,,,,,,,,,,,,,,5eb087ed7f6d1e1232690d6a,61,2022-02-12_14h57.32.857,lexical_decision_task_DD_L3,2021.2.3,Win32,60.2373351,,,,,,,,,,,1.7665,1,,,,,,,,,,,,,,,,,,,,,,,,0.024074088,-0.262037048,0,0,0,,,,,,,POSTER,HB,z,m,./images/POSTERHB.png,,,,,,,,,,,,,,,,,,,,,z,1,1.7665,,,,,,,,0,95,95,137,1
,,,,,,,,,,,,,,,,,5eb087ed7f6d1e1232690d6a,61,2022-02-12_14h57.32.857,lexical_decision_task_DD_L3,2021.2.3,Win32,60.2373351,,,,,,,,,,,1.0131,0,,,,,,,,,,,,,,,,,,,,,,,,0.024074088,-0.262037048,0,0,0,,,,,,,BASKET,HB,z,m,./images/BASKETHB.png,,,,,,,,,,,,,,,,,,,,,m,0,1.0131,,,,,,,,0,96,96,128,1
,,,,,,,,,,,,,,,,,5eb087ed7f6d1e1232690d6a,61,2022-02-12_14h57.32.857,lexical_decision_task_DD_L3,2021.2.3,Win32,60.2373351,,,,,,,,,,,0.883,0,,,,,,,,,,,,,,,,,,,,,,,,0.024074088,-0.262037048,0,0,0,,,,,,,ARTIST,C,z,m,./images/ARTIST.png,,,,,,,,,,,,,,,,,,,,,m,0,0.883,,,,,,,,0,97,97,145,1
,,,,,,,,,,,,,,,,,5eb087ed7f6d1e1232690d6a,61,2022-02-12_14h57.32.857,lexical_decision_task_DD_L3,2021.2.3,Win32,60.2373351,,,,,,,,,,,0.0497,1,,,,,,,,,,,,,,,,,,,,,,,,0.024074088,-0.262037048,0,0,0,,,,,,,SPINE,HB,z,m,./images/SPINEHB.png,,,,,,,,,,,,,,,,,,,,,z,1,0.0497,,,,,,,,0,98,98,149,1
,,,,,,,,,,,,,,,,,5eb087ed7f6d1e1232690d6a,61,2022-02-12_14h57.32.857,lexical_decision_task_DD_L3,2021.2.3,Win32,60.2373351,,,,,,,,,,,1.0968,1,,,,,,,,,,,,,,,,,,,,,,,,0.024074088,-0.262037048,0,0,0,,,,,,,STAIN,LB,z,m,./images/STAINLB.png,,,,,,,,,,,,,,,,,,,,,z,1,1.0968,,,,,,,,0,99,99,90,1
,,,,,,,,,,,,,,,,,5eb087ed7f6d1e1232690d6a,61,2022-02-12_14h57.32.857,lexical_decision_task_DD_L3,2021.2.3,Win32,60.2373351,,,,,,,,,,,1.8806,0,,,,,,,,,,,,,,,,,,,,,,,,0.024074088,-0.262037048,0,0,0,,,,,,,MUSCLE,C,m,m,./images/MUSCLE.png,,,,,,,,,,,,,,,,,,,,,z,0,1.8806,,,,,,,,0,100,100,4,1
,,,,,,,,,,,,,,,,,5eb087ed7f6d1e1232690d6a,61,2022-02-12_14h57.32.857,lexical_decision_task_DD_L3,2021.2.3,Win32,60.2373351,,,,,,,,,,,0.701,1,,,,,,,,,,,,,,,,,,,,,,,,0.024074088,-0.262037048,0,0,0,,,,,,,DIVER,LB,z,m,./images/DIVERLB.png,,,,,,,,,,,,,,,,,,,,,z,1,0.701,,,,,,,,0,101,101,93,1
,,,,,,,,,,,,,,,,,5eb087ed7f6d1e1232690d6a,61,2022-02-12_14h57.32.857,lexical_decision_task_DD_L3,2021.2.3,Win32,60.2373351,,,,,,,,,,,0.7334,1,,,,,,,,,,,,,,,,,,,,,,,,0.024074088,-0.262037048,0,0,0,,,,,,,BERRY,HB,m,m,./images/BERRYHB.png,,,,,,,,,,,,,,,,,,,,,m,1,0.7334,,,,,,,,0,102,102,47,1
,,,,,,,,,,,,,,,,,5eb087ed7f6d1e1232690d6a,61,2022-02-12_14h57.32.857,lexical_decision_task_DD_L3,2021.2.3,Win32,60.2373351,,,,,,,,,,,1.0205,0,,,,,,,,,,,,,,,,,,,,,,,,0.024074088,-0.262037048,0,0,0,,,,,,,SPORT,LB,m,m,./images/SPORTLB.png,,,,,,,,,,,,,,,,,,,,,z,0,1.0205,,,,,,,,0,103,103,48,1
,,,,,,,,,,,,,,,,,5eb087ed7f6d1e1232690d6a,61,2022-02-12_14h57.32.857,lexical_decision_task_DD_L3,2021.2.3,Win32,60.2373351,,,,,,,,,,,0.8468,1,,,,,,,,,,,,,,,,,,,,,,,,0.024074088,-0.262037048,0,0,0,,,,,,,BUBBLE,HB,z,m,./images/BUBBLEHB.png,,,,,,,,,,,,,,,,,,,,,z,1,0.8468,,,,,,,,0,104,104,155,1
,,,,,,,,,,,,,,,,,5eb087ed7f6d1e1232690d6a,61,2022-02-12_14h57.32.857,lexical_decision_task_DD_L3,2021.2.3,Win32,60.2373351,,,,,,,,,,,0.7789,1,,,,,,,,,,,,,,,,,,,,,,,,0.024074088,-0.262037048,0,0,0,,,,,,,GLOVE,C,z,m,./images/GLOVE.png,,,,,,,,,,,,,,,,,,,,,z,1,0.7789,,,,,,,,0,105,105,157,1
,,,,,,,,,,,,,,,,,5eb087ed7f6d1e1232690d6a,61,2022-02-12_14h57.32.857,lexical_decision_task_DD_L3,2021.2.3,Win32,60.2373351,,,,,,,,,,,0.6166,1,,,,,,,,,,,,,,,,,,,,,,,,0.024074088,-0.262037048,0,0,0,,,,,,,SHIELD,LB,z,m,./images/SHIELDLB.png,,,,,,,,,,,,,,,,,,,,,z,1,0.6166,,,,,,,,0,106,106,132,1
,,,,,,,,,,,,,,,,,5eb087ed7f6d1e1232690d6a,61,2022-02-12_14h57.32.857,lexical_decision_task_DD_L3,2021.2.3,Win32,60.2373351,,,,,,,,,,,1.3291,0,,,,,,,,,,,,,,,,,,,,,,,,0.024074088,-0.262037048,0,0,0,,,,,,,SAUCE,LB,z,m,./images/SAUCELB.png,,,,,,,,,,,,,,,,,,,,,m,0,1.3291,,,,,,,,0,107,107,135,1
,,,,,,,,,,,,,,,,,5eb087ed7f6d1e1232690d6a,61,2022-02-12_14h57.32.857,lexical_decision_task_DD_L3,2021.2.3,Win32,60.2373351,,,,,,,,,,,0.863,1,,,,,,,,,,,,,,,,,,,,,,,,0.024074088,-0.262037048,0,0,0,,,,,,,THROAT,LB,m,m,./images/THROATLB.png,,,,,,,,,,,,,,,,,,,,,m,1,0.863,,,,,,,,0,108,108,36,1
,,,,,,,,,,,,,,,,,5eb087ed7f6d1e1232690d6a,61,2022-02-12_14h57.32.857,lexical_decision_task_DD_L3,2021.2.3,Win32,60.2373351,,,,,,,,,,,0.7878,0,,,,,,,,,,,,,,,,,,,,,,,,0.024074088,-0.262037048,0,0,0,,,,,,,TIGER,C,z,m,./images/TIGER.png,,,,,,,,,,,,,,,,,,,,,m,0,0.7878,,,,,,,,0,109,109,121,1
,,,,,,,,,,,,,,,,,5eb087ed7f6d1e1232690d6a,61,2022-02-12_14h57.32.857,lexical_decision_task_DD_L3,2021.2.3,Win32,60.2373351,,,,,,,,,,,0.9854,1,,,,,,,,,,,,,,,,,,,,,,,,0.024074088,-0.262037048,0,0,0,,,,,,,POKER,C,z,m,./images/POKER.png,,,,,,,,,,,,,,,,,,,,,z,1,0.9854,,,,,,,,0,110,110,151,1
,,,,,,,,,,,,,,,,,5eb087ed7f6d1e1232690d6a,61,2022-02-12_14h57.32.857,lexical_decision_task_DD_L3,2021.2.3,Win32,60.2373351,,,,,,,,,,,0.7826,1,,,,,,,,,,,,,,,,,,,,,,,,0.024074088,-0.262037048,0,0,0,,,,,,,SMOKER,HB,m,m,./images/SMOKERHB.png,,,,,,,,,,,,,,,,,,,,,m,1,0.7826,,,,,,,,0,111,111,26,1
,,,,,,,,,,,,,,,,,5eb087ed7f6d1e1232690d6a,61,2022-02-12_14h57.32.857,lexical_decision_task_DD_L3,2021.2.3,Win32,60.2373351,,,,,,,,,,,1.0968,1,,,,,,,,,,,,,,,,,,,,,,,,0.024074088,-0.262037048,0,0,0,,,,,,,PARADE,HB,z,m,./images/PARADEHB.png,,,,,,,,,,,,,,,,,,,,,z,1,1.0968,,,,,,,,0,112,112,101,1
,,,,,,,,,,,,,,,,,5eb087ed7f6d1e1232690d6a,61,2022-02-12_14h57.32.857,lexical_decision_task_DD_L3,2021.2.3,Win32,60.2373351,,,,,,,,,,,1.3807,1,,,,,,,,,,,,,,,,,,,,,,,,0.024074088,-0.262037048,0,0,0,,,,,,,BUTTER,LB,z,m,./images/BUTTERLB.png,,,,,,,,,,,,,,,,,,,,,z,1,1.3807,,,,,,,,0,113,113,111,1
,,,,,,,,,,,,,,,,,5eb087ed7f6d1e1232690d6a,61,2022-02-12_14h57.32.857,lexical_decision_task_DD_L3,2021.2.3,Win32,60.2373351,,,,,,,,,,,0.6643,1,,,,,,,,,,,,,,,,,,,,,,,,0.024074088,-0.262037048,0,0,0,,,,,,,WEASEL,HB,m,m,./images/WEASELHB.png,,,,,,,,,,,,,,,,,,,,,m,1,0.6643,,,,,,,,0,114,114,80,1
,,,,,,,,,,,,,,,,,5eb087ed7f6d1e1232690d6a,61,2022-02-12_14h57.32.857,lexical_decision_task_DD_L3,2021.2.3,Win32,60.2373351,,,,,,,,,,,0.8611,0,,,,,,,,,,,,,,,,,,,,,,,,0.024074088,-0.262037048,0,0,0,,,,,,,WHISKY,HB,z,m,./images/WHISKYHB.png,,,,,,,,,,,,,,,,,,,,,m,0,0.8611,,,,,,,,0,115,115,167,1
,,,,,,,,,,,,,,,,,5eb087ed7f6d1e1232690d6a,61,2022-02-12_14h57.32.857,lexical_decision_task_DD_L3,2021.2.3,Win32,60.2373351,,,,,,,,,,,1.2169,1,,,,,,,,,,,,,,,,,,,,,,,,0.024074088,-0.262037048,0,0,0,,,,,,,BONNET,HB,m,m,./images/BONNETHB.png,,,,,,,,,,,,,,,,,,,,,m,1,1.2169,,,,,,,,0,116,116,11,1
,,,,,,,,,,,,,,,,,5eb087ed7f6d1e1232690d6a,61,2022-02-12_14h57.32.857,lexical_decision_task_DD_L3,2021.2.3,Win32,60.2373351,,,,,,,,,,,2.1945,0,,,,,,,,,,,,,,,,,,,,,,,,0.024074088,-0.262037048,0,0,0,,,,,,,CARPET,HB,m,m,./images/CARPETHB.png,,,,,,,,,,,,,,,,,,,,,z,0,2.1945,,,,,,,,0,117,117,53,1
,,,,,,,,,,,,,,,,,5eb087ed7f6d1e1232690d6a,61,2022-02-12_14h57.32.857,lexical_decision_task_DD_L3,2021.2.3,Win32,60.2373351,,,,,,,,,,,1.2304,1,,,,,,,,,,,,,,,,,,,,,,,,0.024074088,-0.262037048,0,0,0,,,,,,,TOWEL,C,z,m,./images/TOWEL.png,,,,,,,,,,,,,,,,,,,,,z,1,1.2304,,,,,,,,0,118,118,85,1
,,,,,,,,,,,,,,,,,5eb087ed7f6d1e1232690d6a,61,2022-02-12_14h57.32.857,lexical_decision_task_DD_L3,2021.2.3,Win32,60.2373351,,,,,,,,,,,0.8493,1,,,,,,,,,,,,,,,,,,,,,,,,0.024074088,-0.262037048,0,0,0,,,,,,,BABOON,C,m,m,./images/BABOON.png,,,,,,,,,,,,,,,,,,,,,m,1,0.8493,,,,,,,,0,119,119,58,1
,,,,,,,,,,,,,,,,,5eb087ed7f6d1e1232690d6a,61,2022-02-12_14h57.32.857,lexical_decision_task_DD_L3,2021.2.3,Win32,60.2373351,,,,,,,,,,,0.7621,1,,,,,,,,,,,,,,,,,,,,,,,,0.024074088,-0.262037048,0,0,0,,,,,,,STOOL,C,z,m,./images/STOOL.png,,,,,,,,,,,,,,,,,,,,,z,1,0.7621,,,,,,,,0,120,120,127,1
,,,,,,,,,,,,,,,,,5eb087ed7f6d1e1232690d6a,61,2022-02-12_14h57.32.857,lexical_decision_task_DD_L3,2021.2.3,Win32,60.2373351,,,,,,,,,,,1.6051,1,,,,,,,,,,,,,,,,,,,,,,,,0.024074088,-0.262037048,0,0,0,,,,,,,MOTOR,C,m,m,./images/MOTOR.png,,,,,,,,,,,,,,,,,,,,,m,1,1.6051,,,,,,,,0,121,121,13,1
,,,,,,,,,,,,,,,,,5eb087ed7f6d1e1232690d6a,61,2022-02-12_14h57.32.857,lexical_decision_task_DD_L3,2021.2.3,Win32,60.2373351,,,,,,,,,,,0.9962,1,,,,,,,,,,,,,,,,,,,,,,,,0.024074088,-0.262037048,0,0,0,,,,,,,PLANET,HB,z,m,./images/PLANETHB.png,,,,,,,,,,,,,,,,,,,,,z,1,0.9962,,,,,,,,0,122,122,164,1
,,,,,,,,,,,,,,,,,5eb087ed7f6d1e1232690d6a,61,2022-02-12_14h57.32.857,lexical_decision_task_DD_L3,2021.2.3,Win32,60.2373351,,,,,,,,,,,1.2321,0,,,,,,,,,,,,,,,,,,,,,,,,0.024074088,-0.262037048,0,0,0,,,,,,,BIRTH,C,m,m,./images/BIRTH.png,,,,,,,,,,,,,,,,,,,,,z,0,1.2321,,,,,,,,0,123,123,37,1
,,,,,,,,,,,,,,,,,5eb087ed7f6d1e1232690d6a,61,2022-02-12_14h57.32.857,lexical_decision_task_DD_L3,2021.2.3,Win32,60.2373351,,,,,,,,,,,0.78,1,,,,,,,,,,,,,,,,,,,,,,,,0.024074088,-0.262037048,0,0,0,,,,,,,CASINO,C,z,m,./images/CASINO.png,,,,,,,,,,,,,,,,,,,,,z,1,0.78,,,,,,,,0,124,124,112,1
,,,,,,,,,,,,,,,,,5eb087ed7f6d1e1232690d6a,61,2022-02-12_14h57.32.857,lexical_decision_task_DD_L3,2021.2.3,Win32,60.2373351,,,,,,,,,,,0.9485,0,,,,,,,,,,,,,,,,,,,,,,,,0.024074088,-0.262037048,0,0,0,space,,,,,,CHALK,C,z,m,./images/CHALK.png,9.1208,,,,,,,,,,,,,,,,,,,,m,0,0.9485,,,,,,,,0,125,125,109,1
,,,,,,,,,,,,,,,,,5eb087ed7f6d1e1232690d6a,61,2022-02-12_14h57.32.857,lexical_decision_task_DD_L3,2021.2.3,Win32,60.2373351,,,,,,,,,,,1.5525,1,,,,,,,,,,,,,,,,,,,,,,,,0.024074088,-0.262037048,0,0,0,,,,,,,CANDLE,C,m,m,./images/CANDLE.png,,,,,,,,,,,,,,,,,,,,,m,1,1.5525,,,,,,,,0,126,126,61,1
,,,,,,,,,,,,,,,,,5eb087ed7f6d1e1232690d6a,61,2022-02-12_14h57.32.857,lexical_decision_task_DD_L3,2021.2.3,Win32,60.2373351,,,,,,,,,,,0.8294,1,,,,,,,,,,,,,,,,,,,,,,,,0.024074088,-0.262037048,0,0,0,,,,,,,CRUMB,HB,m,m,./images/CRUMBHB.png,,,,,,,,,,,,,,,,,,,,,m,1,0.8294,,,,,,,,0,127,127,29,1
,,,,,,,,,,,,,,,,,5eb087ed7f6d1e1232690d6a,61,2022-02-12_14h57.32.857,lexical_decision_task_DD_L3,2021.2.3,Win32,60.2373351,,,,,,,,,,,2.3451,0,,,,,,,,,,,,,,,,,,,,,,,,0.024074088,-0.262037048,0,0,0,,,,,,,FERRY,LB,z,m,./images/FERRYLB.png,,,,,,,,,,,,,,,,,,,,,m,0,2.3451,,,,,,,,0,128,128,141,1
,,,,,,,,,,,,,,,,,5eb087ed7f6d1e1232690d6a,61,2022-02-12_14h57.32.857,lexical_decision_task_DD_L3,2021.2.3,Win32,60.2373351,,,,,,,,,,,1.0531,0,,,,,,,,,,,,,,,,,,,,,,,,0.024074088,-0.262037048,0,0,0,,,,,,,DRUMS,C,m,m,./images/DRUMS.png,,,,,,,,,,,,,,,,,,,,,z,0,1.0531,,,,,,,,0,129,129,49,1
,,,,,,,,,,,,,,,,,5eb087ed7f6d1e1232690d6a,61,2022-02-12_14h57.32.857,lexical_decision_task_DD_L3,2021.2.3,Win32,60.2373351,,,,,,,,,,,1.2997,0,,,,,,,,,,,,,,,,,,,,,,,,0.024074088,-0.262037048,0,0,0,,,,,,,SHELF,LB,m,m,./images/SHELFLB.png,,,,,,,,,,,,,,,,,,,,,z,0,1.2997,,,,,,,,0,130,130,39,1
,,,,,,,,,,,,,,,,,5eb087ed7f6d1e1232690d6a,61,2022-02-12_14h57.32.857,lexical_decision_task_DD_L3,2021.2.3,Win32,60.2373351,,,,,,,,,,,1.3641,1,,,,,,,,,,,,,,,,,,,,,,,,0.024074088,-0.262037048,0,0,0,,,,,,,CLOUD,HB,z,m,./images/CLOUDHB.png,,,,,,,,,,,,,,,,,,,,,z,1,1.3641,,,,,,,,0,131,131,110,1
,,,,,,,,,,,,,,,,,5eb087ed7f6d1e1232690d6a,61,2022-02-12_14h57.32.857,lexical_decision_task_DD_L3,2021.2.3,Win32,60.2373351,,,,,,,,,,,0.7967,1,,,,,,,,,,,,,,,,,,,,,,,,0.024074088,-0.262037048,0,0,0,,,,,,,GRAIN,LB,m,m,./images/GRAINLB.png,,,,,,,,,,,,,,,,,,,,,m,1,0.7967,,,,,,,,0,132,132,75,1
,,,,,,,,,,,,,,,,,5eb087ed7f6d1e1232690d6a,61,2022-02-12_14h57.32.857,lexical_decision_task_DD_L3,2021.2.3,Win32,60.2373351,,,,,,,,,,,1.1295,0,,,,,,,,,,,,,,,,,,,,,,,,0.024074088,-0.262037048,0,0,0,,,,,,,STEAK,C,z,m,./images/STEAK.png,,,,,,,,,,,,,,,,,,,,,m,0,1.1295,,,,,,,,0,133,133,115,1
