key_resp.keys,instr_done_touch.x,instr_done_touch.y,instr_done_touch.leftButton,instr_done_touch.midButton,instr_done_touch.rightButton,instr_done_touch.clicked_name,instruction_pages.thisRepN,instruction_pages.thisTrialN,instruction_pages.thisN,instruction_pages.thisIndex,instruction_pages.ran,pageN,phase,instruct_text,has_image,instruct_image,participant,age,date,expName,psychopyVersion,OS,frameRate,response.keys,response.corr,response.rt,touch_resp.x,touch_resp.y,touch_resp.leftButton,touch_resp.midButton,touch_resp.rightButton,touch_resp.time,touch_resp.clicked_name,rt,corr,practrials.thisRepN,practrials.thisTrialN,practrials.thisN,practrials.thisIndex,practrials.ran,TrialID,Target,corrAns,key_resp.rt,end_of_practice_trials_pages.thisRepN,end_of_practice_trials_pages.thisTrialN,end_of_practice_trials_pages.thisN,end_of_practice_trials_pages.thisIndex,end_of_practice_trials_pages.ran,key_resp_2.keys,key_resp_2.corr,key_resp_2.rt,targ_click.x,targ_click.y,targ_click.leftButton,targ_click.midButton,targ_click.rightButton,targ_click.time,targ_click.clicked_name,break_done_touch.x,break_done_touch.y,break_done_touch.leftButton,break_done_touch.midButton,break_done_touch.rightButton,break_done_keyboard.keys,maintrials.thisRepN,maintrials.thisTrialN,maintrials.thisN,maintrials.thisIndex,maintrials.ran,string,blur,study,lex,stim_path,break_done_keyboard.rt,mouse_2.x,mouse_2.y,mouse_2.leftButton,mouse_2.midButton,mouse_2.rightButton,mouse_2.clicked_name,slider.response,slider.rt,trials.thisRepN,trials.thisTrialN,trials.thisN,trials.thisIndex,trials.ran,test_instructions.thisRepN,test_instructions.thisTrialN,test_instructions.thisN,test_instructions.thisIndex,test_instructions.ran,key_resp_3.keys,key_resp_3.corr,key_resp_3.rt,test_click.x,test_click.y,test_click.leftButton,test_click.midButton,test_click.rightButton,test_click.time,test_click.clicked_name,test_phase.thisRepN,test_phase.thisTrialN,test_phase.thisN,test_phase.thisIndex,test_phase.ran
,0.087239583,-0.427083333,1,0,0,instr_done_button,0,0,0,0,1,1,instructions,"INSTRUCTIONS
At the start of each trial, look at the plus sign  (+) in the center of the screen.  This tells you that a trial is about to begin and where to look. Second, the plus sign will disappear and a string of letters will appear. Your task is to determine if the string of letters is a word or not. If the item is a word press the M key (on keyboard)  or touch the word button (phone/tablet).  If the item is not a word,  press the  Z key (on keyboard)  or touch the nonword button (on phone/tablet). 
Press the space bar or touch  continue.",0,,5f1338a87447d0308e865fd0,20,2022-02-12_17h15.03.124,lexical_decision_task_DD,2021.2.3,Win32,58.910162,,,,,,,,,,,,,,,,,,,,,,,,,,,,,,,,,,,,,,,,,,,,,,,,,,,,,,,,,,,,,,,,,,,,,,,,,,,,,,,,,,,,,,
,0.087239583,-0.427083333,1,0,0,instr_done_button,0,1,1,1,1,2,instructions,"If your device has a keyboard, press the 'Z' key for nonwords and the 'M' key for words.





Press the space bar or touch the button below to continue.",0,keyboard-example.gif,5f1338a87447d0308e865fd0,20,2022-02-12_17h15.03.124,lexical_decision_task_DD,2021.2.3,Win32,58.910162,,,,,,,,,,,,,,,,,,,,,,,,,,,,,,,,,,,,,,,,,,,,,,,,,,,,,,,,,,,,,,,,,,,,,,,,,,,,,,,,,,,,,,
,0.087239583,-0.427083333,1,0,0,instr_done_button,0,2,2,2,1,3,instructions,"If you are using a touchscreen only device, use the buttons on the screen. Do not use the mouse.





Press the space bar or touch the button below to continue.",0,touchscreen-example.gif,5f1338a87447d0308e865fd0,20,2022-02-12_17h15.03.124,lexical_decision_task_DD,2021.2.3,Win32,58.910162,,,,,,,,,,,,,,,,,,,,,,,,,,,,,,,,,,,,,,,,,,,,,,,,,,,,,,,,,,,,,,,,,,,,,,,,,,,,,,,,,,,,,,
,0.087239583,-0.427083333,1,0,0,instr_done_button,0,3,3,3,1,4,instructions,"It is very important that you respond as quickly and accurately as possible, as each letter string will only be on the screen for two seconds. If you do not respond within this time, the message 'Too slow!' will be displayed and the experiment will progress to the next letter string. The first 20 trials will be practice trials and you will receive feedback on your answers. 

Press the space bar or touch the button below to start the practice trials.",0,,5f1338a87447d0308e865fd0,20,2022-02-12_17h15.03.124,lexical_decision_task_DD,2021.2.3,Win32,58.910162,,,,,,,,,,,,,,,,,,,,,,,,,,,,,,,,,,,,,,,,,,,,,,,,,,,,,,,,,,,,,,,,,,,,,,,,,,,,,,,,,,,,,,
,,,,,,,,,,,,,,,,,5f1338a87447d0308e865fd0,20,2022-02-12_17h15.03.124,lexical_decision_task_DD,2021.2.3,Win32,58.910162,z,1,4.7609,,,,,,,,4.7609,1,0,0,0,10,1,1001,INLADE,z,,,,,,,,,,,,,,,,,,,,,,,,,,,,,,,,,,,,,,,,,,,,,,,,,,,,,,,,,,,,,,,,,,
,,,,,,,,,,,,,,,,,5f1338a87447d0308e865fd0,20,2022-02-12_17h15.03.124,lexical_decision_task_DD,2021.2.3,Win32,58.910162,m,1,3.9503,,,,,,,,3.9503,1,0,1,1,7,1,1001,VOLUME,m,,,,,,,,,,,,,,,,,,,,,,,,,,,,,,,,,,,,,,,,,,,,,,,,,,,,,,,,,,,,,,,,,,
,,,,,,,,,,,,,,,,,5f1338a87447d0308e865fd0,20,2022-02-12_17h15.03.124,lexical_decision_task_DD,2021.2.3,Win32,58.910162,m,1,4.5354,,,,,,,,4.5354,1,0,2,2,5,1,1001,OBTAIN,m,,,,,,,,,,,,,,,,,,,,,,,,,,,,,,,,,,,,,,,,,,,,,,,,,,,,,,,,,,,,,,,,,,
,,,,,,,,,,,,,,,,,5f1338a87447d0308e865fd0,20,2022-02-12_17h15.03.124,lexical_decision_task_DD,2021.2.3,Win32,58.910162,m,1,1.2691,,,,,,,,1.2691,1,0,3,3,6,1,1001,ZOMBIE,m,,,,,,,,,,,,,,,,,,,,,,,,,,,,,,,,,,,,,,,,,,,,,,,,,,,,,,,,,,,,,,,,,,
,,,,,,,,,,,,,,,,,5f1338a87447d0308e865fd0,20,2022-02-12_17h15.03.124,lexical_decision_task_DD,2021.2.3,Win32,58.910162,m,1,0.8278,,,,,,,,0.8278,1,0,4,4,0,1,1001,UTOPIA,m,,,,,,,,,,,,,,,,,,,,,,,,,,,,,,,,,,,,,,,,,,,,,,,,,,,,,,,,,,,,,,,,,,
,,,,,,,,,,,,,,,,,5f1338a87447d0308e865fd0,20,2022-02-12_17h15.03.124,lexical_decision_task_DD,2021.2.3,Win32,58.910162,z,1,1.3285,,,,,,,,1.3285,1,0,5,5,14,1,1001,THRALE,z,,,,,,,,,,,,,,,,,,,,,,,,,,,,,,,,,,,,,,,,,,,,,,,,,,,,,,,,,,,,,,,,,,
,,,,,,,,,,,,,,,,,5f1338a87447d0308e865fd0,20,2022-02-12_17h15.03.124,lexical_decision_task_DD,2021.2.3,Win32,58.910162,m,1,0.9494,,,,,,,,0.9494,1,0,6,6,4,1,1001,SQUEAK,m,,,,,,,,,,,,,,,,,,,,,,,,,,,,,,,,,,,,,,,,,,,,,,,,,,,,,,,,,,,,,,,,,,
,,,,,,,,,,,,,,,,,5f1338a87447d0308e865fd0,20,2022-02-12_17h15.03.124,lexical_decision_task_DD,2021.2.3,Win32,58.910162,z,1,2.8616,,,,,,,,2.8616,1,0,7,7,15,1,1001,WHAISE,z,,,,,,,,,,,,,,,,,,,,,,,,,,,,,,,,,,,,,,,,,,,,,,,,,,,,,,,,,,,,,,,,,,
,,,,,,,,,,,,,,,,,5f1338a87447d0308e865fd0,20,2022-02-12_17h15.03.124,lexical_decision_task_DD,2021.2.3,Win32,58.910162,z,1,1.755,,,,,,,,1.755,1,0,8,8,13,1,1001,ROUPET,z,,,,,,,,,,,,,,,,,,,,,,,,,,,,,,,,,,,,,,,,,,,,,,,,,,,,,,,,,,,,,,,,,,
,,,,,,,,,,,,,,,,,5f1338a87447d0308e865fd0,20,2022-02-12_17h15.03.124,lexical_decision_task_DD,2021.2.3,Win32,58.910162,m,1,1.9452,,,,,,,,1.9452,1,0,9,9,2,1,1001,ALMOND,m,,,,,,,,,,,,,,,,,,,,,,,,,,,,,,,,,,,,,,,,,,,,,,,,,,,,,,,,,,,,,,,,,,
,,,,,,,,,,,,,,,,,5f1338a87447d0308e865fd0,20,2022-02-12_17h15.03.124,lexical_decision_task_DD,2021.2.3,Win32,58.910162,m,1,2.4013,,,,,,,,2.4013,1,0,10,10,1,1,1001,ADJUST,m,,,,,,,,,,,,,,,,,,,,,,,,,,,,,,,,,,,,,,,,,,,,,,,,,,,,,,,,,,,,,,,,,,
,,,,,,,,,,,,,,,,,5f1338a87447d0308e865fd0,20,2022-02-12_17h15.03.124,lexical_decision_task_DD,2021.2.3,Win32,58.910162,z,1,3.002,,,,,,,,3.002,1,0,11,11,8,1,1001,ASLERT,z,,,,,,,,,,,,,,,,,,,,,,,,,,,,,,,,,,,,,,,,,,,,,,,,,,,,,,,,,,,,,,,,,,
,,,,,,,,,,,,,,,,,5f1338a87447d0308e865fd0,20,2022-02-12_17h15.03.124,lexical_decision_task_DD,2021.2.3,Win32,58.910162,z,1,0.6683,,,,,,,,0.6683,1,0,12,12,11,1,1001,RASHET,z,,,,,,,,,,,,,,,,,,,,,,,,,,,,,,,,,,,,,,,,,,,,,,,,,,,,,,,,,,,,,,,,,,
,,,,,,,,,,,,,,,,,5f1338a87447d0308e865fd0,20,2022-02-12_17h15.03.124,lexical_decision_task_DD,2021.2.3,Win32,58.910162,z,1,2.0405,,,,,,,,2.0405,1,0,13,13,12,1,1001,SPRINY,z,,,,,,,,,,,,,,,,,,,,,,,,,,,,,,,,,,,,,,,,,,,,,,,,,,,,,,,,,,,,,,,,,,
,,,,,,,,,,,,,,,,,5f1338a87447d0308e865fd0,20,2022-02-12_17h15.03.124,lexical_decision_task_DD,2021.2.3,Win32,58.910162,z,1,1.5256,,,,,,,,1.5256,1,0,14,14,9,1,1001,FARINY,z,,,,,,,,,,,,,,,,,,,,,,,,,,,,,,,,,,,,,,,,,,,,,,,,,,,,,,,,,,,,,,,,,,
,,,,,,,,,,,,,,,,,5f1338a87447d0308e865fd0,20,2022-02-12_17h15.03.124,lexical_decision_task_DD,2021.2.3,Win32,58.910162,m,1,1.5371,,,,,,,,1.5371,1,0,15,15,3,1,1001,MATRIX,m,,,,,,,,,,,,,,,,,,,,,,,,,,,,,,,,,,,,,,,,,,,,,,,,,,,,,,,,,,,,,,,,,,
space,0.03515625,0.028645833,0,0,0,,,,,,,1,end_of_practice,"You have completed the practice trials. During the experimental trials, you will not receive feedback. 
Before you begin, please ensure that you are in a comfortable and quiet location and will not be disturbed for about 15 minutes, as we cannot use your data if you do not complete all the trials. 
 When you are ready to start the experimental trials, please press space or touch the button below.",,,5f1338a87447d0308e865fd0,20,2022-02-12_17h15.03.124,lexical_decision_task_DD,2021.2.3,Win32,58.910162,,,,,,,,,,,,,,,,,,,,,38.4989,0,0,0,0,1,,,,,,,,,,,,,,,,,,,,,,,,,,,,,,,,,,,,,,,,,,,,,,,,,,,,,,,,,,,,
,,,,,,,,,,,,,,,,,5f1338a87447d0308e865fd0,20,2022-02-12_17h15.03.124,lexical_decision_task_DD,2021.2.3,Win32,58.910162,,,,,,,,,,,2.1258,0,,,,,,,,,,,,,,,m,0,2.1258,,,,,,,,0.03515625,0.028645833,0,0,0,,0,0,0,101,1,GLEET,LB,old,z,./images/GLEETLB.png,,,,,,,,,,,,,,,,,,,,,,,,,,,,,,,,,,
,,,,,,,,,,,,,,,,,5f1338a87447d0308e865fd0,20,2022-02-12_17h15.03.124,lexical_decision_task_DD,2021.2.3,Win32,58.910162,,,,,,,,,,,1.1972,1,,,,,,,,,,,,,,,z,1,1.1972,,,,,,,,0.03515625,0.028645833,0,0,0,,0,1,1,103,1,FLORT,HB,old,z,./images/FLORTHB.png,,,,,,,,,,,,,,,,,,,,,,,,,,,,,,,,,,
,,,,,,,,,,,,,,,,,5f1338a87447d0308e865fd0,20,2022-02-12_17h15.03.124,lexical_decision_task_DD,2021.2.3,Win32,58.910162,,,,,,,,,,,1.7991,1,,,,,,,,,,,,,,,m,1,1.7991,,,,,,,,0.03515625,0.028645833,0,0,0,,0,2,2,23,1,WALRUS,LB,old,m,./images/WALRUSLB.png,,,,,,,,,,,,,,,,,,,,,,,,,,,,,,,,,,
,,,,,,,,,,,,,,,,,5f1338a87447d0308e865fd0,20,2022-02-12_17h15.03.124,lexical_decision_task_DD,2021.2.3,Win32,58.910162,,,,,,,,,,,1.2128,1,,,,,,,,,,,,,,,z,1,1.2128,,,,,,,,0.03515625,0.028645833,0,0,0,,0,3,3,164,1,SGREW,LB,old,z,./images/SGREWLB.png,,,,,,,,,,,,,,,,,,,,,,,,,,,,,,,,,,
,,,,,,,,,,,,,,,,,5f1338a87447d0308e865fd0,20,2022-02-12_17h15.03.124,lexical_decision_task_DD,2021.2.3,Win32,58.910162,,,,,,,,,,,1.8051,1,,,,,,,,,,,,,,,m,1,1.8051,,,,,,,,0.03515625,0.028645833,0,0,0,,0,4,4,11,1,BONNET,LB,old,m,./images/BONNETLB.png,,,,,,,,,,,,,,,,,,,,,,,,,,,,,,,,,,
,,,,,,,,,,,,,,,,,5f1338a87447d0308e865fd0,20,2022-02-12_17h15.03.124,lexical_decision_task_DD,2021.2.3,Win32,58.910162,,,,,,,,,,,1.8324,1,,,,,,,,,,,,,,,m,1,1.8324,,,,,,,,0.03515625,0.028645833,0,0,0,,0,5,5,16,1,PENCE,HB,old,m,./images/PENCEHB.png,,,,,,,,,,,,,,,,,,,,,,,,,,,,,,,,,,
,,,,,,,,,,,,,,,,,5f1338a87447d0308e865fd0,20,2022-02-12_17h15.03.124,lexical_decision_task_DD,2021.2.3,Win32,58.910162,,,,,,,,,,,1.7666,1,,,,,,,,,,,,,,,z,1,1.7666,,,,,,,,0.03515625,0.028645833,0,0,0,,0,6,6,157,1,INLER,HB,old,z,./images/INLERHB.png,,,,,,,,,,,,,,,,,,,,,,,,,,,,,,,,,,
,,,,,,,,,,,,,,,,,5f1338a87447d0308e865fd0,20,2022-02-12_17h15.03.124,lexical_decision_task_DD,2021.2.3,Win32,58.910162,,,,,,,,,,,2.2384,1,,,,,,,,,,,,,,,m,1,2.2384,,,,,,,,0.03515625,0.028645833,0,0,0,,0,7,7,53,1,CARPET,LB,old,m,./images/CARPETLB.png,,,,,,,,,,,,,,,,,,,,,,,,,,,,,,,,,,
,,,,,,,,,,,,,,,,,5f1338a87447d0308e865fd0,20,2022-02-12_17h15.03.124,lexical_decision_task_DD,2021.2.3,Win32,58.910162,,,,,,,,,,,1.5183,1,,,,,,,,,,,,,,,m,1,1.5183,,,,,,,,0.03515625,0.028645833,0,0,0,,0,8,8,76,1,INFANT,HB,old,m,./images/INFANTHB.png,,,,,,,,,,,,,,,,,,,,,,,,,,,,,,,,,,
,,,,,,,,,,,,,,,,,5f1338a87447d0308e865fd0,20,2022-02-12_17h15.03.124,lexical_decision_task_DD,2021.2.3,Win32,58.910162,,,,,,,,,,,1.9338,1,,,,,,,,,,,,,,,m,1,1.9338,,,,,,,,0.03515625,0.028645833,0,0,0,,0,9,9,51,1,ONION,C,old,m,./images/ONION.png,,,,,,,,,,,,,,,,,,,,,,,,,,,,,,,,,,
,,,,,,,,,,,,,,,,,5f1338a87447d0308e865fd0,20,2022-02-12_17h15.03.124,lexical_decision_task_DD,2021.2.3,Win32,58.910162,,,,,,,,,,,1.3773,1,,,,,,,,,,,,,,,z,1,1.3773,,,,,,,,0.03515625,0.028645833,0,0,0,,0,10,10,97,1,CHIDS,HB,old,z,./images/CHIDSHB.png,,,,,,,,,,,,,,,,,,,,,,,,,,,,,,,,,,
,,,,,,,,,,,,,,,,,5f1338a87447d0308e865fd0,20,2022-02-12_17h15.03.124,lexical_decision_task_DD,2021.2.3,Win32,58.910162,,,,,,,,,,,0.829,1,,,,,,,,,,,,,,,m,1,0.829,,,,,,,,-0.09765625,0.244791667,0,0,0,,0,11,11,34,1,CANYON,HB,old,m,./images/CANYONHB.png,,,,,,,,,,,,,,,,,,,,,,,,,,,,,,,,,,
,,,,,,,,,,,,,,,,,5f1338a87447d0308e865fd0,20,2022-02-12_17h15.03.124,lexical_decision_task_DD,2021.2.3,Win32,58.910162,,,,,,,,,,,1.2247,0,,,,,,,,,,,,,,,z,0,1.2247,,,,,,,,-0.09765625,0.244791667,0,0,0,,0,12,12,50,1,MALLET,LB,old,m,./images/MALLETLB.png,,,,,,,,,,,,,,,,,,,,,,,,,,,,,,,,,,
,,,,,,,,,,,,,,,,,5f1338a87447d0308e865fd0,20,2022-02-12_17h15.03.124,lexical_decision_task_DD,2021.2.3,Win32,58.910162,,,,,,,,,,,1.454,1,,,,,,,,,,,,,,,z,1,1.454,,,,,,,,-0.09765625,0.244791667,0,0,0,,0,13,13,160,1,VEETS,HB,old,z,./images/VEETSHB.png,,,,,,,,,,,,,,,,,,,,,,,,,,,,,,,,,,
,,,,,,,,,,,,,,,,,5f1338a87447d0308e865fd0,20,2022-02-12_17h15.03.124,lexical_decision_task_DD,2021.2.3,Win32,58.910162,,,,,,,,,,,1.3898,1,,,,,,,,,,,,,,,m,1,1.3898,,,,,,,,-0.09765625,0.244791667,0,0,0,,0,14,14,73,1,SNACK,HB,old,m,./images/SNACKHB.png,,,,,,,,,,,,,,,,,,,,,,,,,,,,,,,,,,
,,,,,,,,,,,,,,,,,5f1338a87447d0308e865fd0,20,2022-02-12_17h15.03.124,lexical_decision_task_DD,2021.2.3,Win32,58.910162,,,,,,,,,,,2.0589,1,,,,,,,,,,,,,,,m,1,2.0589,,,,,,,,-0.09765625,0.244791667,0,0,0,,0,15,15,72,1,NOOSE,C,old,m,./images/NOOSE.png,,,,,,,,,,,,,,,,,,,,,,,,,,,,,,,,,,
,,,,,,,,,,,,,,,,,5f1338a87447d0308e865fd0,20,2022-02-12_17h15.03.124,lexical_decision_task_DD,2021.2.3,Win32,58.910162,,,,,,,,,,,2.0076,1,,,,,,,,,,,,,,,m,1,2.0076,,,,,,,,-0.09765625,0.244791667,0,0,0,,0,16,16,57,1,MOOSE,C,old,m,./images/MOOSE.png,,,,,,,,,,,,,,,,,,,,,,,,,,,,,,,,,,
,,,,,,,,,,,,,,,,,5f1338a87447d0308e865fd0,20,2022-02-12_17h15.03.124,lexical_decision_task_DD,2021.2.3,Win32,58.910162,,,,,,,,,,,1.5758,1,,,,,,,,,,,,,,,z,1,1.5758,,,,,,,,-0.09765625,0.244791667,0,0,0,,0,17,17,114,1,RIKES,C,old,z,./images/RIKES.png,,,,,,,,,,,,,,,,,,,,,,,,,,,,,,,,,,
,,,,,,,,,,,,,,,,,5f1338a87447d0308e865fd0,20,2022-02-12_17h15.03.124,lexical_decision_task_DD,2021.2.3,Win32,58.910162,,,,,,,,,,,1.3287,1,,,,,,,,,,,,,,,z,1,1.3287,,,,,,,,-0.09765625,0.244791667,0,0,0,,0,18,18,132,1,SCIFF,C,old,z,./images/SCIFF.png,,,,,,,,,,,,,,,,,,,,,,,,,,,,,,,,,,
,,,,,,,,,,,,,,,,,5f1338a87447d0308e865fd0,20,2022-02-12_17h15.03.124,lexical_decision_task_DD,2021.2.3,Win32,58.910162,,,,,,,,,,,0.9488,1,,,,,,,,,,,,,,,z,1,0.9488,,,,,,,,-0.09765625,0.244791667,0,0,0,,0,19,19,96,1,KEAMS,C,old,z,./images/KEAMS.png,,,,,,,,,,,,,,,,,,,,,,,,,,,,,,,,,,
,,,,,,,,,,,,,,,,,5f1338a87447d0308e865fd0,20,2022-02-12_17h15.03.124,lexical_decision_task_DD,2021.2.3,Win32,58.910162,,,,,,,,,,,1.0927,1,,,,,,,,,,,,,,,m,1,1.0927,,,,,,,,-0.09765625,0.244791667,0,0,0,,0,20,20,54,1,TRIPOD,C,old,m,./images/TRIPOD.png,,,,,,,,,,,,,,,,,,,,,,,,,,,,,,,,,,
,,,,,,,,,,,,,,,,,5f1338a87447d0308e865fd0,20,2022-02-12_17h15.03.124,lexical_decision_task_DD,2021.2.3,Win32,58.910162,,,,,,,,,,,1.6511,1,,,,,,,,,,,,,,,z,1,1.6511,,,,,,,,-0.09765625,0.244791667,0,0,0,,0,21,21,115,1,MAWNS,HB,old,z,./images/MAWNSHB.png,,,,,,,,,,,,,,,,,,,,,,,,,,,,,,,,,,
,,,,,,,,,,,,,,,,,5f1338a87447d0308e865fd0,20,2022-02-12_17h15.03.124,lexical_decision_task_DD,2021.2.3,Win32,58.910162,,,,,,,,,,,1.5191,1,,,,,,,,,,,,,,,z,1,1.5191,,,,,,,,-0.09765625,0.244791667,0,0,0,,0,22,22,158,1,EGECT,LB,old,z,./images/EGECTLB.png,,,,,,,,,,,,,,,,,,,,,,,,,,,,,,,,,,
,,,,,,,,,,,,,,,,,5f1338a87447d0308e865fd0,20,2022-02-12_17h15.03.124,lexical_decision_task_DD,2021.2.3,Win32,58.910162,,,,,,,,,,,1.3176,1,,,,,,,,,,,,,,,z,1,1.3176,,,,,,,,-0.09765625,0.244791667,0,0,0,,0,23,23,104,1,GITTY,LB,old,z,./images/GITTYLB.png,,,,,,,,,,,,,,,,,,,,,,,,,,,,,,,,,,
,,,,,,,,,,,,,,,,,5f1338a87447d0308e865fd0,20,2022-02-12_17h15.03.124,lexical_decision_task_DD,2021.2.3,Win32,58.910162,,,,,,,,,,,1.8176,1,,,,,,,,,,,,,,,z,1,1.8176,,,,,,,,-0.09765625,0.244791667,0,0,0,,0,24,24,145,1,LAMEL,HB,old,z,./images/LAMELHB.png,,,,,,,,,,,,,,,,,,,,,,,,,,,,,,,,,,
,,,,,,,,,,,,,,,,,5f1338a87447d0308e865fd0,20,2022-02-12_17h15.03.124,lexical_decision_task_DD,2021.2.3,Win32,58.910162,,,,,,,,,,,3.0783,1,,,,,,,,,,,,,,,m,1,3.0783,,,,,,,,-0.09765625,0.244791667,0,0,0,,0,25,25,15,1,GREASE,C,old,m,./images/GREASE.png,,,,,,,,,,,,,,,,,,,,,,,,,,,,,,,,,,
,,,,,,,,,,,,,,,,,5f1338a87447d0308e865fd0,20,2022-02-12_17h15.03.124,lexical_decision_task_DD,2021.2.3,Win32,58.910162,,,,,,,,,,,1.6847,1,,,,,,,,,,,,,,,m,1,1.6847,,,,,,,,-0.09765625,0.244791667,0,0,0,,0,26,26,29,1,CRUMB,LB,old,m,./images/CRUMBLB.png,,,,,,,,,,,,,,,,,,,,,,,,,,,,,,,,,,
,,,,,,,,,,,,,,,,,5f1338a87447d0308e865fd0,20,2022-02-12_17h15.03.124,lexical_decision_task_DD,2021.2.3,Win32,58.910162,,,,,,,,,,,0.8846,1,,,,,,,,,,,,,,,m,1,0.8846,,,,,,,,-0.09765625,0.244791667,0,0,0,,0,27,27,79,1,CRUST,HB,old,m,./images/CRUSTHB.png,,,,,,,,,,,,,,,,,,,,,,,,,,,,,,,,,,
,,,,,,,,,,,,,,,,,5f1338a87447d0308e865fd0,20,2022-02-12_17h15.03.124,lexical_decision_task_DD,2021.2.3,Win32,58.910162,,,,,,,,,,,0.5906,1,,,,,,,,,,,,,,,m,1,0.5906,,,,,,,,-0.09765625,0.244791667,0,0,0,,0,28,28,75,1,GRAIN,C,old,m,./images/GRAIN.png,,,,,,,,,,,,,,,,,,,,,,,,,,,,,,,,,,
,,,,,,,,,,,,,,,,,5f1338a87447d0308e865fd0,20,2022-02-12_17h15.03.124,lexical_decision_task_DD,2021.2.3,Win32,58.910162,,,,,,,,,,,1.201,1,,,,,,,,,,,,,,,z,1,1.201,,,,,,,,-0.09765625,0.244791667,0,0,0,,0,29,29,153,1,CLUPS,C,old,z,./images/CLUPS.png,,,,,,,,,,,,,,,,,,,,,,,,,,,,,,,,,,
,,,,,,,,,,,,,,,,,5f1338a87447d0308e865fd0,20,2022-02-12_17h15.03.124,lexical_decision_task_DD,2021.2.3,Win32,58.910162,,,,,,,,,,,0.9169,1,,,,,,,,,,,,,,,m,1,0.9169,,,,,,,,-0.09765625,0.244791667,0,0,0,,0,30,30,27,1,ATTIC,C,old,m,./images/ATTIC.png,,,,,,,,,,,,,,,,,,,,,,,,,,,,,,,,,,
,,,,,,,,,,,,,,,,,5f1338a87447d0308e865fd0,20,2022-02-12_17h15.03.124,lexical_decision_task_DD,2021.2.3,Win32,58.910162,,,,,,,,,,,2.1016,1,,,,,,,,,,,,,,,z,1,2.1016,,,,,,,,-0.09765625,0.244791667,0,0,0,,0,31,31,150,1,NOOLS,C,old,z,./images/NOOLS.png,,,,,,,,,,,,,,,,,,,,,,,,,,,,,,,,,,
,,,,,,,,,,,,,,,,,5f1338a87447d0308e865fd0,20,2022-02-12_17h15.03.124,lexical_decision_task_DD,2021.2.3,Win32,58.910162,,,,,,,,,,,1.3005,1,,,,,,,,,,,,,,,m,1,1.3005,,,,,,,,-0.09765625,0.244791667,0,0,0,,0,32,32,44,1,LIZARD,LB,old,m,./images/LIZARDLB.png,,,,,,,,,,,,,,,,,,,,,,,,,,,,,,,,,,
,,,,,,,,,,,,,,,,,5f1338a87447d0308e865fd0,20,2022-02-12_17h15.03.124,lexical_decision_task_DD,2021.2.3,Win32,58.910162,,,,,,,,,,,1.259,1,,,,,,,,,,,,,,,m,1,1.259,,,,,,,,-0.09765625,0.244791667,0,0,0,,0,33,33,81,1,POODLE,C,old,m,./images/POODLE.png,,,,,,,,,,,,,,,,,,,,,,,,,,,,,,,,,,
,,,,,,,,,,,,,,,,,5f1338a87447d0308e865fd0,20,2022-02-12_17h15.03.124,lexical_decision_task_DD,2021.2.3,Win32,58.910162,,,,,,,,,,,1.762,1,,,,,,,,,,,,,,,m,1,1.762,,,,,,,,-0.09765625,0.244791667,0,0,0,,0,34,34,12,1,SHORE,C,old,m,./images/SHORE.png,,,,,,,,,,,,,,,,,,,,,,,,,,,,,,,,,,
,,,,,,,,,,,,,,,,,5f1338a87447d0308e865fd0,20,2022-02-12_17h15.03.124,lexical_decision_task_DD,2021.2.3,Win32,58.910162,,,,,,,,,,,1.7736,1,,,,,,,,,,,,,,,z,1,1.7736,,,,,,,,-0.09765625,0.244791667,0,0,0,,0,35,35,88,1,GLUSH,HB,old,z,./images/GLUSHHB.png,,,,,,,,,,,,,,,,,,,,,,,,,,,,,,,,,,
,,,,,,,,,,,,,,,,,5f1338a87447d0308e865fd0,20,2022-02-12_17h15.03.124,lexical_decision_task_DD,2021.2.3,Win32,58.910162,,,,,,,,,,,2.2818,1,,,,,,,,,,,,,,,z,1,2.2818,,,,,,,,-0.09765625,0.244791667,0,0,0,,0,36,36,133,1,POWDY,HB,old,z,./images/POWDYHB.png,,,,,,,,,,,,,,,,,,,,,,,,,,,,,,,,,,
,,,,,,,,,,,,,,,,,5f1338a87447d0308e865fd0,20,2022-02-12_17h15.03.124,lexical_decision_task_DD,2021.2.3,Win32,58.910162,,,,,,,,,,,4.1476,1,,,,,,,,,,,,,,,m,1,4.1476,,,,,,,,-0.09765625,0.244791667,0,0,0,,0,37,37,25,1,WRIST,HB,old,m,./images/WRISTHB.png,,,,,,,,,,,,,,,,,,,,,,,,,,,,,,,,,,
,,,,,,,,,,,,,,,,,5f1338a87447d0308e865fd0,20,2022-02-12_17h15.03.124,lexical_decision_task_DD,2021.2.3,Win32,58.910162,,,,,,,,,,,1.4682,1,,,,,,,,,,,,,,,z,1,1.4682,,,,,,,,-0.09765625,0.244791667,0,0,0,,0,38,38,118,1,BAVEL,HB,old,z,./images/BAVELHB.png,,,,,,,,,,,,,,,,,,,,,,,,,,,,,,,,,,
,,,,,,,,,,,,,,,,,5f1338a87447d0308e865fd0,20,2022-02-12_17h15.03.124,lexical_decision_task_DD,2021.2.3,Win32,58.910162,,,,,,,,,,,1.5014,1,,,,,,,,,,,,,,,z,1,1.5014,,,,,,,,-0.09765625,0.244791667,0,0,0,,0,39,39,95,1,HANTY,LB,old,z,./images/HANTYLB.png,,,,,,,,,,,,,,,,,,,,,,,,,,,,,,,,,,
,,,,,,,,,,,,,,,,,5f1338a87447d0308e865fd0,20,2022-02-12_17h15.03.124,lexical_decision_task_DD,2021.2.3,Win32,58.910162,,,,,,,,,,,1.0556,1,,,,,,,,,,,,,,,m,1,1.0556,,,,,,,,-0.09765625,0.244791667,0,0,0,,0,40,40,46,1,PEARL,HB,old,m,./images/PEARLHB.png,,,,,,,,,,,,,,,,,,,,,,,,,,,,,,,,,,
,,,,,,,,,,,,,,,,,5f1338a87447d0308e865fd0,20,2022-02-12_17h15.03.124,lexical_decision_task_DD,2021.2.3,Win32,58.910162,,,,,,,,,,,1.1861,1,,,,,,,,,,,,,,,m,1,1.1861,,,,,,,,-0.09765625,0.244791667,0,0,0,space,0,41,41,60,1,TWINS,C,old,m,./images/TWINS.png,3.618,,,,,,,,,,,,,,,,,,,,,,,,,,,,,,,,,
,,,,,,,,,,,,,,,,,5f1338a87447d0308e865fd0,20,2022-02-12_17h15.03.124,lexical_decision_task_DD,2021.2.3,Win32,58.910162,,,,,,,,,,,1.184,1,,,,,,,,,,,,,,,z,1,1.184,,,,,,,,-0.09765625,0.244791667,0,0,0,,0,42,42,129,1,PRANS,C,old,z,./images/PRANS.png,,,,,,,,,,,,,,,,,,,,,,,,,,,,,,,,,,
,,,,,,,,,,,,,,,,,5f1338a87447d0308e865fd0,20,2022-02-12_17h15.03.124,lexical_decision_task_DD,2021.2.3,Win32,58.910162,,,,,,,,,,,1.0986,1,,,,,,,,,,,,,,,m,1,1.0986,,,,,,,,-0.09765625,0.244791667,0,0,0,,0,43,43,62,1,PURSE,LB,old,m,./images/PURSELB.png,,,,,,,,,,,,,,,,,,,,,,,,,,,,,,,,,,
,,,,,,,,,,,,,,,,,5f1338a87447d0308e865fd0,20,2022-02-12_17h15.03.124,lexical_decision_task_DD,2021.2.3,Win32,58.910162,,,,,,,,,,,0.8439,1,,,,,,,,,,,,,,,m,1,0.8439,,,,,,,,-0.09765625,0.244791667,0,0,0,,0,44,44,35,1,PEACH,LB,old,m,./images/PEACHLB.png,,,,,,,,,,,,,,,,,,,,,,,,,,,,,,,,,,
,,,,,,,,,,,,,,,,,5f1338a87447d0308e865fd0,20,2022-02-12_17h15.03.124,lexical_decision_task_DD,2021.2.3,Win32,58.910162,,,,,,,,,,,0.9498,1,,,,,,,,,,,,,,,z,1,0.9498,,,,,,,,-0.09765625,0.244791667,0,0,0,,0,45,45,135,1,JOODY,C,old,z,./images/JOODY.png,,,,,,,,,,,,,,,,,,,,,,,,,,,,,,,,,,
,,,,,,,,,,,,,,,,,5f1338a87447d0308e865fd0,20,2022-02-12_17h15.03.124,lexical_decision_task_DD,2021.2.3,Win32,58.910162,,,,,,,,,,,1.217,1,,,,,,,,,,,,,,,z,1,1.217,,,,,,,,-0.09765625,0.244791667,0,0,0,,0,46,46,155,1,CANGY,LB,old,z,./images/CANGYLB.png,,,,,,,,,,,,,,,,,,,,,,,,,,,,,,,,,,
,,,,,,,,,,,,,,,,,5f1338a87447d0308e865fd0,20,2022-02-12_17h15.03.124,lexical_decision_task_DD,2021.2.3,Win32,58.910162,,,,,,,,,,,1.3778,1,,,,,,,,,,,,,,,z,1,1.3778,,,,,,,,-0.09765625,0.244791667,0,0,0,,0,47,47,161,1,BLAPS,LB,old,z,./images/BLAPSLB.png,,,,,,,,,,,,,,,,,,,,,,,,,,,,,,,,,,
,,,,,,,,,,,,,,,,,5f1338a87447d0308e865fd0,20,2022-02-12_17h15.03.124,lexical_decision_task_DD,2021.2.3,Win32,58.910162,,,,,,,,,,,1.4639,1,,,,,,,,,,,,,,,m,1,1.4639,,,,,,,,-0.09765625,0.244791667,0,0,0,,0,48,48,68,1,TORCH,LB,old,m,./images/TORCHLB.png,,,,,,,,,,,,,,,,,,,,,,,,,,,,,,,,,,
,,,,,,,,,,,,,,,,,5f1338a87447d0308e865fd0,20,2022-02-12_17h15.03.124,lexical_decision_task_DD,2021.2.3,Win32,58.910162,,,,,,,,,,,1.5464,1,,,,,,,,,,,,,,,m,1,1.5464,,,,,,,,-0.09765625,0.244791667,0,0,0,,0,49,49,56,1,PACKET,LB,old,m,./images/PACKETLB.png,,,,,,,,,,,,,,,,,,,,,,,,,,,,,,,,,,
,,,,,,,,,,,,,,,,,5f1338a87447d0308e865fd0,20,2022-02-12_17h15.03.124,lexical_decision_task_DD,2021.2.3,Win32,58.910162,,,,,,,,,,,1.4121,0,,,,,,,,,,,,,,,m,0,1.4121,,,,,,,,-0.09765625,0.244791667,0,0,0,,0,50,50,128,1,GRIFT,LB,old,z,./images/GRIFTLB.png,,,,,,,,,,,,,,,,,,,,,,,,,,,,,,,,,,
,,,,,,,,,,,,,,,,,5f1338a87447d0308e865fd0,20,2022-02-12_17h15.03.124,lexical_decision_task_DD,2021.2.3,Win32,58.910162,,,,,,,,,,,1.7415,1,,,,,,,,,,,,,,,m,1,1.7415,,,,,,,,-0.09765625,0.244791667,0,0,0,,0,51,51,22,1,MELON,HB,old,m,./images/MELONHB.png,,,,,,,,,,,,,,,,,,,,,,,,,,,,,,,,,,
,,,,,,,,,,,,,,,,,5f1338a87447d0308e865fd0,20,2022-02-12_17h15.03.124,lexical_decision_task_DD,2021.2.3,Win32,58.910162,,,,,,,,,,,3.3765,1,,,,,,,,,,,,,,,z,1,3.3765,,,,,,,,-0.09765625,0.244791667,0,0,0,,0,52,52,94,1,BLANS,HB,old,z,./images/BLANSHB.png,,,,,,,,,,,,,,,,,,,,,,,,,,,,,,,,,,
,,,,,,,,,,,,,,,,,5f1338a87447d0308e865fd0,20,2022-02-12_17h15.03.124,lexical_decision_task_DD,2021.2.3,Win32,58.910162,,,,,,,,,,,4.8797,1,,,,,,,,,,,,,,,m,1,4.8797,,,,,,,,-0.09765625,0.244791667,0,0,0,,0,53,53,77,1,COUCH,LB,old,m,./images/COUCHLB.png,,,,,,,,,,,,,,,,,,,,,,,,,,,,,,,,,,
,,,,,,,,,,,,,,,,,5f1338a87447d0308e865fd0,20,2022-02-12_17h15.03.124,lexical_decision_task_DD,2021.2.3,Win32,58.910162,,,,,,,,,,,1.5094,1,,,,,,,,,,,,,,,m,1,1.5094,,,,,,,,-0.09765625,0.244791667,0,0,0,,0,54,54,45,1,KITTEN,C,old,m,./images/KITTEN.png,,,,,,,,,,,,,,,,,,,,,,,,,,,,,,,,,,
,,,,,,,,,,,,,,,,,5f1338a87447d0308e865fd0,20,2022-02-12_17h15.03.124,lexical_decision_task_DD,2021.2.3,Win32,58.910162,,,,,,,,,,,1.7111,1,,,,,,,,,,,,,,,z,1,1.7111,,,,,,,,-0.09765625,0.244791667,0,0,0,,0,55,55,84,1,HAXES,C,old,z,./images/HAXES.png,,,,,,,,,,,,,,,,,,,,,,,,,,,,,,,,,,
,,,,,,,,,,,,,,,,,5f1338a87447d0308e865fd0,20,2022-02-12_17h15.03.124,lexical_decision_task_DD,2021.2.3,Win32,58.910162,,,,,,,,,,,1.1649,1,,,,,,,,,,,,,,,m,1,1.1649,,,,,,,,-0.09765625,0.244791667,0,0,0,,0,56,56,6,1,SQUARE,C,old,m,./images/SQUARE.png,,,,,,,,,,,,,,,,,,,,,,,,,,,,,,,,,,
,,,,,,,,,,,,,,,,,5f1338a87447d0308e865fd0,20,2022-02-12_17h15.03.124,lexical_decision_task_DD,2021.2.3,Win32,58.910162,,,,,,,,,,,0.8294,1,,,,,,,,,,,,,,,m,1,0.8294,,,,,,,,-0.09765625,0.244791667,0,0,0,,0,57,57,59,1,BURIAL,LB,old,m,./images/BURIALLB.png,,,,,,,,,,,,,,,,,,,,,,,,,,,,,,,,,,
,,,,,,,,,,,,,,,,,5f1338a87447d0308e865fd0,20,2022-02-12_17h15.03.124,lexical_decision_task_DD,2021.2.3,Win32,58.910162,,,,,,,,,,,0.9559,1,,,,,,,,,,,,,,,z,1,0.9559,,,,,,,,-0.09765625,0.244791667,0,0,0,,0,58,58,136,1,WERVE,HB,old,z,./images/WERVEHB.png,,,,,,,,,,,,,,,,,,,,,,,,,,,,,,,,,,
,,,,,,,,,,,,,,,,,5f1338a87447d0308e865fd0,20,2022-02-12_17h15.03.124,lexical_decision_task_DD,2021.2.3,Win32,58.910162,,,,,,,,,,,1.857,1,,,,,,,,,,,,,,,z,1,1.857,,,,,,,,-0.09765625,0.244791667,0,0,0,,0,59,59,163,1,GAMBA,HB,old,z,./images/GAMBAHB.png,,,,,,,,,,,,,,,,,,,,,,,,,,,,,,,,,,
,,,,,,,,,,,,,,,,,5f1338a87447d0308e865fd0,20,2022-02-12_17h15.03.124,lexical_decision_task_DD,2021.2.3,Win32,58.910162,,,,,,,,,,,1.103,1,,,,,,,,,,,,,,,m,1,1.103,,,,,,,,-0.09765625,0.244791667,0,0,0,,0,60,60,37,1,BIRTH,HB,old,m,./images/BIRTHHB.png,,,,,,,,,,,,,,,,,,,,,,,,,,,,,,,,,,
,,,,,,,,,,,,,,,,,5f1338a87447d0308e865fd0,20,2022-02-12_17h15.03.124,lexical_decision_task_DD,2021.2.3,Win32,58.910162,,,,,,,,,,,1.0829,1,,,,,,,,,,,,,,,m,1,1.0829,,,,,,,,-0.09765625,0.244791667,0,0,0,,0,61,61,18,1,JAGUAR,C,old,m,./images/JAGUAR.png,,,,,,,,,,,,,,,,,,,,,,,,,,,,,,,,,,
,,,,,,,,,,,,,,,,,5f1338a87447d0308e865fd0,20,2022-02-12_17h15.03.124,lexical_decision_task_DD,2021.2.3,Win32,58.910162,,,,,,,,,,,1.0534,1,,,,,,,,,,,,,,,z,1,1.0534,,,,,,,,-0.09765625,0.244791667,0,0,0,,0,62,62,108,1,GRUET,C,old,z,./images/GRUET.png,,,,,,,,,,,,,,,,,,,,,,,,,,,,,,,,,,
,,,,,,,,,,,,,,,,,5f1338a87447d0308e865fd0,20,2022-02-12_17h15.03.124,lexical_decision_task_DD,2021.2.3,Win32,58.910162,,,,,,,,,,,1.6244,1,,,,,,,,,,,,,,,z,1,1.6244,,,,,,,,-0.09765625,0.244791667,0,0,0,,0,63,63,87,1,TRING,C,old,z,./images/TRING.png,,,,,,,,,,,,,,,,,,,,,,,,,,,,,,,,,,
,,,,,,,,,,,,,,,,,5f1338a87447d0308e865fd0,20,2022-02-12_17h15.03.124,lexical_decision_task_DD,2021.2.3,Win32,58.910162,,,,,,,,,,,2.0047,1,,,,,,,,,,,,,,,m,1,2.0047,,,,,,,,-0.09765625,0.244791667,0,0,0,,0,64,64,19,1,DOUGH,HB,old,m,./images/DOUGHHB.png,,,,,,,,,,,,,,,,,,,,,,,,,,,,,,,,,,
,,,,,,,,,,,,,,,,,5f1338a87447d0308e865fd0,20,2022-02-12_17h15.03.124,lexical_decision_task_DD,2021.2.3,Win32,58.910162,,,,,,,,,,,1.0324,1,,,,,,,,,,,,,,,z,1,1.0324,,,,,,,,-0.09765625,0.244791667,0,0,0,,0,65,65,152,1,FRAIN,LB,old,z,./images/FRAINLB.png,,,,,,,,,,,,,,,,,,,,,,,,,,,,,,,,,,
,,,,,,,,,,,,,,,,,5f1338a87447d0308e865fd0,20,2022-02-12_17h15.03.124,lexical_decision_task_DD,2021.2.3,Win32,58.910162,,,,,,,,,,,0.6079,1,,,,,,,,,,,,,,,m,1,0.6079,,,,,,,,-0.09765625,0.244791667,0,0,0,,0,66,66,71,1,PIMPLE,LB,old,m,./images/PIMPLELB.png,,,,,,,,,,,,,,,,,,,,,,,,,,,,,,,,,,
,,,,,,,,,,,,,,,,,5f1338a87447d0308e865fd0,20,2022-02-12_17h15.03.124,lexical_decision_task_DD,2021.2.3,Win32,58.910162,,,,,,,,,,,0.6844,1,,,,,,,,,,,,,,,z,1,0.6844,,,,,,,,-0.09765625,0.244791667,0,0,0,,0,67,67,89,1,DRIEK,LB,old,z,./images/DRIEKLB.png,,,,,,,,,,,,,,,,,,,,,,,,,,,,,,,,,,
,,,,,,,,,,,,,,,,,5f1338a87447d0308e865fd0,20,2022-02-12_17h15.03.124,lexical_decision_task_DD,2021.2.3,Win32,58.910162,,,,,,,,,,,1.0138,1,,,,,,,,,,,,,,,z,1,1.0138,,,,,,,,-0.09765625,0.244791667,0,0,0,,0,68,68,134,1,TROSS,LB,old,z,./images/TROSSLB.png,,,,,,,,,,,,,,,,,,,,,,,,,,,,,,,,,,
,,,,,,,,,,,,,,,,,5f1338a87447d0308e865fd0,20,2022-02-12_17h15.03.124,lexical_decision_task_DD,2021.2.3,Win32,58.910162,,,,,,,,,,,0.7563,1,,,,,,,,,,,,,,,z,1,0.7563,,,,,,,,-0.09765625,0.244791667,0,0,0,,0,69,69,107,1,FASKS,LB,old,z,./images/FASKSLB.png,,,,,,,,,,,,,,,,,,,,,,,,,,,,,,,,,,
,,,,,,,,,,,,,,,,,5f1338a87447d0308e865fd0,20,2022-02-12_17h15.03.124,lexical_decision_task_DD,2021.2.3,Win32,58.910162,,,,,,,,,,,2.6566,1,,,,,,,,,,,,,,,m,1,2.6566,,,,,,,,-0.09765625,0.244791667,0,0,0,,0,70,70,17,1,SKIING,LB,old,m,./images/SKIINGLB.png,,,,,,,,,,,,,,,,,,,,,,,,,,,,,,,,,,
,,,,,,,,,,,,,,,,,5f1338a87447d0308e865fd0,20,2022-02-12_17h15.03.124,lexical_decision_task_DD,2021.2.3,Win32,58.910162,,,,,,,,,,,0.6253,1,,,,,,,,,,,,,,,z,1,0.6253,,,,,,,,-0.09765625,0.244791667,0,0,0,,0,71,71,100,1,DRIBS,HB,old,z,./images/DRIBSHB.png,,,,,,,,,,,,,,,,,,,,,,,,,,,,,,,,,,
,,,,,,,,,,,,,,,,,5f1338a87447d0308e865fd0,20,2022-02-12_17h15.03.124,lexical_decision_task_DD,2021.2.3,Win32,58.910162,,,,,,,,,,,0.7943,1,,,,,,,,,,,,,,,m,1,0.7943,,,,,,,,-0.09765625,0.244791667,0,0,0,,0,72,72,40,1,SWING,HB,old,m,./images/SWINGHB.png,,,,,,,,,,,,,,,,,,,,,,,,,,,,,,,,,,
,,,,,,,,,,,,,,,,,5f1338a87447d0308e865fd0,20,2022-02-12_17h15.03.124,lexical_decision_task_DD,2021.2.3,Win32,58.910162,,,,,,,,,,,0.6637,1,,,,,,,,,,,,,,,z,1,0.6637,,,,,,,,-0.09765625,0.244791667,0,0,0,,0,73,73,167,1,ZONET,LB,old,z,./images/ZONETLB.png,,,,,,,,,,,,,,,,,,,,,,,,,,,,,,,,,,
,,,,,,,,,,,,,,,,,5f1338a87447d0308e865fd0,20,2022-02-12_17h15.03.124,lexical_decision_task_DD,2021.2.3,Win32,58.910162,,,,,,,,,,,0.5958,1,,,,,,,,,,,,,,,z,1,0.5958,,,,,,,,-0.09765625,0.244791667,0,0,0,,0,74,74,90,1,NEAST,C,old,z,./images/NEAST.png,,,,,,,,,,,,,,,,,,,,,,,,,,,,,,,,,,
,,,,,,,,,,,,,,,,,5f1338a87447d0308e865fd0,20,2022-02-12_17h15.03.124,lexical_decision_task_DD,2021.2.3,Win32,58.910162,,,,,,,,,,,0.7271,0,,,,,,,,,,,,,,,z,0,0.7271,,,,,,,,-0.09765625,0.244791667,0,0,0,,0,75,75,43,1,MOSQUE,HB,old,m,./images/MOSQUEHB.png,,,,,,,,,,,,,,,,,,,,,,,,,,,,,,,,,,
,,,,,,,,,,,,,,,,,5f1338a87447d0308e865fd0,20,2022-02-12_17h15.03.124,lexical_decision_task_DD,2021.2.3,Win32,58.910162,,,,,,,,,,,0.6161,1,,,,,,,,,,,,,,,m,1,0.6161,,,,,,,,-0.09765625,0.244791667,0,0,0,,0,76,76,33,1,MAGGOT,C,old,m,./images/MAGGOT.png,,,,,,,,,,,,,,,,,,,,,,,,,,,,,,,,,,
,,,,,,,,,,,,,,,,,5f1338a87447d0308e865fd0,20,2022-02-12_17h15.03.124,lexical_decision_task_DD,2021.2.3,Win32,58.910162,,,,,,,,,,,0.9618,1,,,,,,,,,,,,,,,m,1,0.9618,,,,,,,,-0.09765625,0.244791667,0,0,0,,0,77,77,28,1,FALCON,HB,old,m,./images/FALCONHB.png,,,,,,,,,,,,,,,,,,,,,,,,,,,,,,,,,,
,,,,,,,,,,,,,,,,,5f1338a87447d0308e865fd0,20,2022-02-12_17h15.03.124,lexical_decision_task_DD,2021.2.3,Win32,58.910162,,,,,,,,,,,0.636,1,,,,,,,,,,,,,,,m,1,0.636,,,,,,,,-0.09765625,0.244791667,0,0,0,,0,78,78,80,1,WEASEL,LB,old,m,./images/WEASELLB.png,,,,,,,,,,,,,,,,,,,,,,,,,,,,,,,,,,
,,,,,,,,,,,,,,,,,5f1338a87447d0308e865fd0,20,2022-02-12_17h15.03.124,lexical_decision_task_DD,2021.2.3,Win32,58.910162,,,,,,,,,,,0.6903,1,,,,,,,,,,,,,,,m,1,0.6903,,,,,,,,-0.09765625,0.244791667,0,0,0,,0,79,79,39,1,SHELF,C,old,m,./images/SHELF.png,,,,,,,,,,,,,,,,,,,,,,,,,,,,,,,,,,
,,,,,,,,,,,,,,,,,5f1338a87447d0308e865fd0,20,2022-02-12_17h15.03.124,lexical_decision_task_DD,2021.2.3,Win32,58.910162,,,,,,,,,,,0.7928,1,,,,,,,,,,,,,,,m,1,0.7928,,,,,,,,-0.09765625,0.244791667,0,0,0,,0,80,80,70,1,URINE,HB,old,m,./images/URINEHB.png,,,,,,,,,,,,,,,,,,,,,,,,,,,,,,,,,,
,,,,,,,,,,,,,,,,,5f1338a87447d0308e865fd0,20,2022-02-12_17h15.03.124,lexical_decision_task_DD,2021.2.3,Win32,58.910162,,,,,,,,,,,0.6902,1,,,,,,,,,,,,,,,m,1,0.6902,,,,,,,,-0.09765625,0.244791667,0,0,0,,0,81,81,55,1,MUFFIN,HB,old,m,./images/MUFFINHB.png,,,,,,,,,,,,,,,,,,,,,,,,,,,,,,,,,,
,,,,,,,,,,,,,,,,,5f1338a87447d0308e865fd0,20,2022-02-12_17h15.03.124,lexical_decision_task_DD,2021.2.3,Win32,58.910162,,,,,,,,,,,1.7141,1,,,,,,,,,,,,,,,z,1,1.7141,,,,,,,,-0.09765625,0.244791667,0,0,0,,0,82,82,85,1,CHULK,HB,old,z,./images/CHULKHB.png,,,,,,,,,,,,,,,,,,,,,,,,,,,,,,,,,,
,,,,,,,,,,,,,,,,,5f1338a87447d0308e865fd0,20,2022-02-12_17h15.03.124,lexical_decision_task_DD,2021.2.3,Win32,58.910162,,,,,,,,,,,0.7795,1,,,,,,,,,,,,,,,z,1,0.7795,,,,,,,,-0.09765625,0.244791667,0,0,0,space,0,83,83,122,1,BLOOT,LB,old,z,./images/BLOOTLB.png,9.7096,,,,,,,,,,,,,,,,,,,,,,,,,,,,,,,,,
,,,,,,,,,,,,,,,,,5f1338a87447d0308e865fd0,20,2022-02-12_17h15.03.124,lexical_decision_task_DD,2021.2.3,Win32,58.910162,,,,,,,,,,,1.085,1,,,,,,,,,,,,,,,z,1,1.085,,,,,,,,-0.09765625,0.244791667,0,0,0,,0,84,84,139,1,BLEAR,HB,old,z,./images/BLEARHB.png,,,,,,,,,,,,,,,,,,,,,,,,,,,,,,,,,,
,,,,,,,,,,,,,,,,,5f1338a87447d0308e865fd0,20,2022-02-12_17h15.03.124,lexical_decision_task_DD,2021.2.3,Win32,58.910162,,,,,,,,,,,1.2369,1,,,,,,,,,,,,,,,m,1,1.2369,,,,,,,,-0.09765625,0.244791667,0,0,0,,0,85,85,30,1,STORM,C,old,m,./images/STORM.png,,,,,,,,,,,,,,,,,,,,,,,,,,,,,,,,,,
,,,,,,,,,,,,,,,,,5f1338a87447d0308e865fd0,20,2022-02-12_17h15.03.124,lexical_decision_task_DD,2021.2.3,Win32,58.910162,,,,,,,,,,,0.5734,1,,,,,,,,,,,,,,,z,1,0.5734,,,,,,,,-0.09765625,0.244791667,0,0,0,,0,86,86,147,1,ZOLES,C,old,z,./images/ZOLES.png,,,,,,,,,,,,,,,,,,,,,,,,,,,,,,,,,,
,,,,,,,,,,,,,,,,,5f1338a87447d0308e865fd0,20,2022-02-12_17h15.03.124,lexical_decision_task_DD,2021.2.3,Win32,58.910162,,,,,,,,,,,0.6449,1,,,,,,,,,,,,,,,z,1,0.6449,,,,,,,,-0.09765625,0.244791667,0,0,0,,0,87,87,162,1,LEICH,C,old,z,./images/LEICH.png,,,,,,,,,,,,,,,,,,,,,,,,,,,,,,,,,,
,,,,,,,,,,,,,,,,,5f1338a87447d0308e865fd0,20,2022-02-12_17h15.03.124,lexical_decision_task_DD,2021.2.3,Win32,58.910162,,,,,,,,,,,0.6642,1,,,,,,,,,,,,,,,m,1,0.6642,,,,,,,,-0.09765625,0.244791667,0,0,0,,0,88,88,69,1,COOKER,C,old,m,./images/COOKER.png,,,,,,,,,,,,,,,,,,,,,,,,,,,,,,,,,,
,,,,,,,,,,,,,,,,,5f1338a87447d0308e865fd0,20,2022-02-12_17h15.03.124,lexical_decision_task_DD,2021.2.3,Win32,58.910162,,,,,,,,,,,0.6172,1,,,,,,,,,,,,,,,z,1,0.6172,,,,,,,,-0.09765625,0.244791667,0,0,0,,0,89,89,92,1,PAIMS,LB,old,z,./images/PAIMSLB.png,,,,,,,,,,,,,,,,,,,,,,,,,,,,,,,,,,
,,,,,,,,,,,,,,,,,5f1338a87447d0308e865fd0,20,2022-02-12_17h15.03.124,lexical_decision_task_DD,2021.2.3,Win32,58.910162,,,,,,,,,,,0.9292,1,,,,,,,,,,,,,,,z,1,0.9292,,,,,,,,-0.09765625,0.244791667,0,0,0,,0,90,90,148,1,JOMS,HB,old,z,./images/JOMSHB.png,,,,,,,,,,,,,,,,,,,,,,,,,,,,,,,,,,
,,,,,,,,,,,,,,,,,5f1338a87447d0308e865fd0,20,2022-02-12_17h15.03.124,lexical_decision_task_DD,2021.2.3,Win32,58.910162,,,,,,,,,,,1.1529,1,,,,,,,,,,,,,,,m,1,1.1529,,,,,,,,-0.09765625,0.244791667,0,0,0,,0,91,91,58,1,BABOON,HB,old,m,./images/BABOONHB.png,,,,,,,,,,,,,,,,,,,,,,,,,,,,,,,,,,
,,,,,,,,,,,,,,,,,5f1338a87447d0308e865fd0,20,2022-02-12_17h15.03.124,lexical_decision_task_DD,2021.2.3,Win32,58.910162,,,,,,,,,,,0.8649,1,,,,,,,,,,,,,,,z,1,0.8649,,,,,,,,-0.09765625,0.244791667,0,0,0,,0,92,92,142,1,PLASK,HB,old,z,./images/PLASKHB.png,,,,,,,,,,,,,,,,,,,,,,,,,,,,,,,,,,
,,,,,,,,,,,,,,,,,5f1338a87447d0308e865fd0,20,2022-02-12_17h15.03.124,lexical_decision_task_DD,2021.2.3,Win32,58.910162,,,,,,,,,,,0.5354,1,,,,,,,,,,,,,,,m,1,0.5354,,,,,,,,-0.09765625,0.244791667,0,0,0,,0,93,93,63,1,MIRROR,C,old,m,./images/MIRROR.png,,,,,,,,,,,,,,,,,,,,,,,,,,,,,,,,,,
,,,,,,,,,,,,,,,,,5f1338a87447d0308e865fd0,20,2022-02-12_17h15.03.124,lexical_decision_task_DD,2021.2.3,Win32,58.910162,,,,,,,,,,,0.5362,1,,,,,,,,,,,,,,,m,1,0.5362,,,,,,,,-0.09765625,0.244791667,0,0,0,,0,94,94,9,1,RHINO,C,old,m,./images/RHINO.png,,,,,,,,,,,,,,,,,,,,,,,,,,,,,,,,,,
,,,,,,,,,,,,,,,,,5f1338a87447d0308e865fd0,20,2022-02-12_17h15.03.124,lexical_decision_task_DD,2021.2.3,Win32,58.910162,,,,,,,,,,,0.6684,1,,,,,,,,,,,,,,,m,1,0.6684,,,,,,,,-0.09765625,0.244791667,0,0,0,,0,95,95,5,1,PASTA,LB,old,m,./images/PASTALB.png,,,,,,,,,,,,,,,,,,,,,,,,,,,,,,,,,,
,,,,,,,,,,,,,,,,,5f1338a87447d0308e865fd0,20,2022-02-12_17h15.03.124,lexical_decision_task_DD,2021.2.3,Win32,58.910162,,,,,,,,,,,1.288,0,,,,,,,,,,,,,,,m,0,1.288,,,,,,,,-0.09765625,0.244791667,0,0,0,,0,96,96,166,1,SHORY,HB,old,z,./images/SHORYHB.png,,,,,,,,,,,,,,,,,,,,,,,,,,,,,,,,,,
,,,,,,,,,,,,,,,,,5f1338a87447d0308e865fd0,20,2022-02-12_17h15.03.124,lexical_decision_task_DD,2021.2.3,Win32,58.910162,,,,,,,,,,,0.8998,0,,,,,,,,,,,,,,,z,0,0.8998,,,,,,,,-0.09765625,0.244791667,0,0,0,,0,97,97,61,1,CANDLE,HB,old,m,./images/CANDLEHB.png,,,,,,,,,,,,,,,,,,,,,,,,,,,,,,,,,,
,,,,,,,,,,,,,,,,,5f1338a87447d0308e865fd0,20,2022-02-12_17h15.03.124,lexical_decision_task_DD,2021.2.3,Win32,58.910162,,,,,,,,,,,0.8267,0,,,,,,,,,,,,,,,z,0,0.8267,,,,,,,,-0.09765625,0.244791667,0,0,0,,0,98,98,31,1,QUILL,HB,old,m,./images/QUILLHB.png,,,,,,,,,,,,,,,,,,,,,,,,,,,,,,,,,,
,,,,,,,,,,,,,,,,,5f1338a87447d0308e865fd0,20,2022-02-12_17h15.03.124,lexical_decision_task_DD,2021.2.3,Win32,58.910162,,,,,,,,,,,0.7674,1,,,,,,,,,,,,,,,m,1,0.7674,,,,,,,,-0.09765625,0.244791667,0,0,0,,0,99,99,52,1,BANNER,HB,old,m,./images/BANNERHB.png,,,,,,,,,,,,,,,,,,,,,,,,,,,,,,,,,,
,,,,,,,,,,,,,,,,,5f1338a87447d0308e865fd0,20,2022-02-12_17h15.03.124,lexical_decision_task_DD,2021.2.3,Win32,58.910162,,,,,,,,,,,1.4008,1,,,,,,,,,,,,,,,m,1,1.4008,,,,,,,,-0.09765625,0.244791667,0,0,0,,0,100,100,8,1,TULIP,LB,old,m,./images/TULIPLB.png,,,,,,,,,,,,,,,,,,,,,,,,,,,,,,,,,,
,,,,,,,,,,,,,,,,,5f1338a87447d0308e865fd0,20,2022-02-12_17h15.03.124,lexical_decision_task_DD,2021.2.3,Win32,58.910162,,,,,,,,,,,0.8359,1,,,,,,,,,,,,,,,m,1,0.8359,,,,,,,,-0.09765625,0.244791667,0,0,0,,0,101,101,49,1,DRUMS,HB,old,m,./images/DRUMSHB.png,,,,,,,,,,,,,,,,,,,,,,,,,,,,,,,,,,
,,,,,,,,,,,,,,,,,5f1338a87447d0308e865fd0,20,2022-02-12_17h15.03.124,lexical_decision_task_DD,2021.2.3,Win32,58.910162,,,,,,,,,,,0.685,1,,,,,,,,,,,,,,,m,1,0.685,,,,,,,,-0.09765625,0.244791667,0,0,0,,0,102,102,21,1,KIDNEY,C,old,m,./images/KIDNEY.png,,,,,,,,,,,,,,,,,,,,,,,,,,,,,,,,,,
,,,,,,,,,,,,,,,,,5f1338a87447d0308e865fd0,20,2022-02-12_17h15.03.124,lexical_decision_task_DD,2021.2.3,Win32,58.910162,,,,,,,,,,,0.6145,1,,,,,,,,,,,,,,,z,1,0.6145,,,,,,,,-0.09765625,0.244791667,0,0,0,,0,103,103,131,1,NACES,LB,old,z,./images/NACESLB.png,,,,,,,,,,,,,,,,,,,,,,,,,,,,,,,,,,
,,,,,,,,,,,,,,,,,5f1338a87447d0308e865fd0,20,2022-02-12_17h15.03.124,lexical_decision_task_DD,2021.2.3,Win32,58.910162,,,,,,,,,,,0.5298,1,,,,,,,,,,,,,,,z,1,0.5298,,,,,,,,-0.09765625,0.244791667,0,0,0,,0,104,104,111,1,HOSSE,C,old,z,./images/HOSSE.png,,,,,,,,,,,,,,,,,,,,,,,,,,,,,,,,,,
,,,,,,,,,,,,,,,,,5f1338a87447d0308e865fd0,20,2022-02-12_17h15.03.124,lexical_decision_task_DD,2021.2.3,Win32,58.910162,,,,,,,,,,,0.6604,1,,,,,,,,,,,,,,,m,1,0.6604,,,,,,,,-0.09765625,0.244791667,0,0,0,,0,105,105,20,1,CRADLE,LB,old,m,./images/CRADLELB.png,,,,,,,,,,,,,,,,,,,,,,,,,,,,,,,,,,
,,,,,,,,,,,,,,,,,5f1338a87447d0308e865fd0,20,2022-02-12_17h15.03.124,lexical_decision_task_DD,2021.2.3,Win32,58.910162,,,,,,,,,,,0.8328,1,,,,,,,,,,,,,,,m,1,0.8328,,,,,,,,-0.09765625,0.244791667,0,0,0,,0,106,106,38,1,LADDER,LB,old,m,./images/LADDERLB.png,,,,,,,,,,,,,,,,,,,,,,,,,,,,,,,,,,
,,,,,,,,,,,,,,,,,5f1338a87447d0308e865fd0,20,2022-02-12_17h15.03.124,lexical_decision_task_DD,2021.2.3,Win32,58.910162,,,,,,,,,,,0.537,1,,,,,,,,,,,,,,,z,1,0.537,,,,,,,,-0.09765625,0.244791667,0,0,0,,0,107,107,102,1,DULLE,C,old,z,./images/DULLE.png,,,,,,,,,,,,,,,,,,,,,,,,,,,,,,,,,,
,,,,,,,,,,,,,,,,,5f1338a87447d0308e865fd0,20,2022-02-12_17h15.03.124,lexical_decision_task_DD,2021.2.3,Win32,58.910162,,,,,,,,,,,0.9684,1,,,,,,,,,,,,,,,z,1,0.9684,,,,,,,,-0.09765625,0.244791667,0,0,0,,0,108,108,106,1,CLUMS,HB,old,z,./images/CLUMSHB.png,,,,,,,,,,,,,,,,,,,,,,,,,,,,,,,,,,
,,,,,,,,,,,,,,,,,5f1338a87447d0308e865fd0,20,2022-02-12_17h15.03.124,lexical_decision_task_DD,2021.2.3,Win32,58.910162,,,,,,,,,,,0.5779,1,,,,,,,,,,,,,,,z,1,0.5779,,,,,,,,-0.09765625,0.244791667,0,0,0,,0,109,109,99,1,BACKY,C,old,z,./images/BACKY.png,,,,,,,,,,,,,,,,,,,,,,,,,,,,,,,,,,
,,,,,,,,,,,,,,,,,5f1338a87447d0308e865fd0,20,2022-02-12_17h15.03.124,lexical_decision_task_DD,2021.2.3,Win32,58.910162,,,,,,,,,,,0.5212,1,,,,,,,,,,,,,,,z,1,0.5212,,,,,,,,-0.09765625,0.244791667,0,0,0,,0,110,110,123,1,SEDGE,C,old,z,./images/SEDGE.png,,,,,,,,,,,,,,,,,,,,,,,,,,,,,,,,,,
,,,,,,,,,,,,,,,,,5f1338a87447d0308e865fd0,20,2022-02-12_17h15.03.124,lexical_decision_task_DD,2021.2.3,Win32,58.910162,,,,,,,,,,,0.5855,1,,,,,,,,,,,,,,,z,1,0.5855,,,,,,,,-0.09765625,0.244791667,0,0,0,,0,111,111,127,1,NINDY,HB,old,z,./images/NINDYHB.png,,,,,,,,,,,,,,,,,,,,,,,,,,,,,,,,,,
,,,,,,,,,,,,,,,,,5f1338a87447d0308e865fd0,20,2022-02-12_17h15.03.124,lexical_decision_task_DD,2021.2.3,Win32,58.910162,,,,,,,,,,,0.5954,1,,,,,,,,,,,,,,,z,1,0.5954,,,,,,,,-0.09765625,0.244791667,0,0,0,,0,112,112,149,1,VEASE,LB,old,z,./images/VEASELB.png,,,,,,,,,,,,,,,,,,,,,,,,,,,,,,,,,,
,,,,,,,,,,,,,,,,,5f1338a87447d0308e865fd0,20,2022-02-12_17h15.03.124,lexical_decision_task_DD,2021.2.3,Win32,58.910162,,,,,,,,,,,1.1025,1,,,,,,,,,,,,,,,m,1,1.1025,,,,,,,,-0.09765625,0.244791667,0,0,0,,0,113,113,78,1,LITTER,C,old,m,./images/LITTER.png,,,,,,,,,,,,,,,,,,,,,,,,,,,,,,,,,,
,,,,,,,,,,,,,,,,,5f1338a87447d0308e865fd0,20,2022-02-12_17h15.03.124,lexical_decision_task_DD,2021.2.3,Win32,58.910162,,,,,,,,,,,0.912,1,,,,,,,,,,,,,,,z,1,0.912,,,,,,,,-0.09765625,0.244791667,0,0,0,,0,114,114,124,1,TUNCH,HB,old,z,./images/TUNCHHB.png,,,,,,,,,,,,,,,,,,,,,,,,,,,,,,,,,,
,,,,,,,,,,,,,,,,,5f1338a87447d0308e865fd0,20,2022-02-12_17h15.03.124,lexical_decision_task_DD,2021.2.3,Win32,58.910162,,,,,,,,,,,0.8853,1,,,,,,,,,,,,,,,z,1,0.8853,,,,,,,,-0.09765625,0.244791667,0,0,0,,0,115,115,165,1,TROWN,C,old,z,./images/TROWN.png,,,,,,,,,,,,,,,,,,,,,,,,,,,,,,,,,,
,,,,,,,,,,,,,,,,,5f1338a87447d0308e865fd0,20,2022-02-12_17h15.03.124,lexical_decision_task_DD,2021.2.3,Win32,58.910162,,,,,,,,,,,1.457,1,,,,,,,,,,,,,,,m,1,1.457,,,,,,,,-0.09765625,0.244791667,0,0,0,,0,116,116,26,1,SMOKER,LB,old,m,./images/SMOKERLB.png,,,,,,,,,,,,,,,,,,,,,,,,,,,,,,,,,,
,,,,,,,,,,,,,,,,,5f1338a87447d0308e865fd0,20,2022-02-12_17h15.03.124,lexical_decision_task_DD,2021.2.3,Win32,58.910162,,,,,,,,,,,1.036,1,,,,,,,,,,,,,,,z,1,1.036,,,,,,,,-0.09765625,0.244791667,0,0,0,,0,117,117,138,1,PLICE,C,old,z,./images/PLICE.png,,,,,,,,,,,,,,,,,,,,,,,,,,,,,,,,,,
,,,,,,,,,,,,,,,,,5f1338a87447d0308e865fd0,20,2022-02-12_17h15.03.124,lexical_decision_task_DD,2021.2.3,Win32,58.910162,,,,,,,,,,,1.1828,1,,,,,,,,,,,,,,,m,1,1.1828,,,,,,,,-0.09765625,0.244791667,0,0,0,,0,118,118,65,1,FARMER,LB,old,m,./images/FARMERLB.png,,,,,,,,,,,,,,,,,,,,,,,,,,,,,,,,,,
,,,,,,,,,,,,,,,,,5f1338a87447d0308e865fd0,20,2022-02-12_17h15.03.124,lexical_decision_task_DD,2021.2.3,Win32,58.910162,,,,,,,,,,,0.7434,1,,,,,,,,,,,,,,,z,1,0.7434,,,,,,,,-0.09765625,0.244791667,0,0,0,,0,119,119,151,1,TINKY,HB,old,z,./images/TINKYHB.png,,,,,,,,,,,,,,,,,,,,,,,,,,,,,,,,,,
,,,,,,,,,,,,,,,,,5f1338a87447d0308e865fd0,20,2022-02-12_17h15.03.124,lexical_decision_task_DD,2021.2.3,Win32,58.910162,,,,,,,,,,,0.5514,1,,,,,,,,,,,,,,,z,1,0.5514,,,,,,,,-0.09765625,0.244791667,0,0,0,,0,120,120,141,1,PLEET,C,old,z,./images/PLEET.png,,,,,,,,,,,,,,,,,,,,,,,,,,,,,,,,,,
,,,,,,,,,,,,,,,,,5f1338a87447d0308e865fd0,20,2022-02-12_17h15.03.124,lexical_decision_task_DD,2021.2.3,Win32,58.910162,,,,,,,,,,,0.8517,1,,,,,,,,,,,,,,,m,1,0.8517,,,,,,,,-0.09765625,0.244791667,0,0,0,,0,121,121,82,1,SUNSET,HB,old,m,./images/SUNSETHB.png,,,,,,,,,,,,,,,,,,,,,,,,,,,,,,,,,,
,,,,,,,,,,,,,,,,,5f1338a87447d0308e865fd0,20,2022-02-12_17h15.03.124,lexical_decision_task_DD,2021.2.3,Win32,58.910162,,,,,,,,,,,0.6989,1,,,,,,,,,,,,,,,m,1,0.6989,,,,,,,,-0.09765625,0.244791667,0,0,0,,0,122,122,64,1,JELLY,HB,old,m,./images/JELLYHB.png,,,,,,,,,,,,,,,,,,,,,,,,,,,,,,,,,,
,,,,,,,,,,,,,,,,,5f1338a87447d0308e865fd0,20,2022-02-12_17h15.03.124,lexical_decision_task_DD,2021.2.3,Win32,58.910162,,,,,,,,,,,0.7665,1,,,,,,,,,,,,,,,m,1,0.7665,,,,,,,,-0.09765625,0.244791667,0,0,0,,0,123,123,13,1,MOTOR,HB,old,m,./images/MOTORHB.png,,,,,,,,,,,,,,,,,,,,,,,,,,,,,,,,,,
,,,,,,,,,,,,,,,,,5f1338a87447d0308e865fd0,20,2022-02-12_17h15.03.124,lexical_decision_task_DD,2021.2.3,Win32,58.910162,,,,,,,,,,,0.4498,1,,,,,,,,,,,,,,,z,1,0.4498,,,,,,,,-0.09765625,0.244791667,0,0,0,,0,124,124,119,1,PAFER,LB,old,z,./images/PAFERLB.png,,,,,,,,,,,,,,,,,,,,,,,,,,,,,,,,,,
,,,,,,,,,,,,,,,,,5f1338a87447d0308e865fd0,20,2022-02-12_17h15.03.124,lexical_decision_task_DD,2021.2.3,Win32,58.910162,,,,,,,,,,,0.4521,1,,,,,,,,,,,,,,,z,1,0.4521,,,,,,,,-0.09765625,0.244791667,0,0,0,space,0,125,125,98,1,BAMPS,LB,old,z,./images/BAMPSLB.png,24.9549,,,,,,,,,,,,,,,,,,,,,,,,,,,,,,,,,
,,,,,,,,,,,,,,,,,5f1338a87447d0308e865fd0,20,2022-02-12_17h15.03.124,lexical_decision_task_DD,2021.2.3,Win32,58.910162,,,,,,,,,,,1.3665,1,,,,,,,,,,,,,,,m,1,1.3665,,,,,,,,-0.09765625,0.244791667,0,0,0,,0,126,126,4,1,MUSCLE,HB,old,m,./images/MUSCLEHB.png,,,,,,,,,,,,,,,,,,,,,,,,,,,,,,,,,,
,,,,,,,,,,,,,,,,,5f1338a87447d0308e865fd0,20,2022-02-12_17h15.03.124,lexical_decision_task_DD,2021.2.3,Win32,58.910162,,,,,,,,,,,0.8056,1,,,,,,,,,,,,,,,z,1,0.8056,,,,,,,,-0.09765625,0.244791667,0,0,0,,0,127,127,140,1,DOVET,LB,old,z,./images/DOVETLB.png,,,,,,,,,,,,,,,,,,,,,,,,,,,,,,,,,,
,,,,,,,,,,,,,,,,,5f1338a87447d0308e865fd0,20,2022-02-12_17h15.03.124,lexical_decision_task_DD,2021.2.3,Win32,58.910162,,,,,,,,,,,0.5641,1,,,,,,,,,,,,,,,z,1,0.5641,,,,,,,,-0.09765625,0.244791667,0,0,0,,0,128,128,125,1,MOOKY,LB,old,z,./images/MOOKYLB.png,,,,,,,,,,,,,,,,,,,,,,,,,,,,,,,,,,
,,,,,,,,,,,,,,,,,5f1338a87447d0308e865fd0,20,2022-02-12_17h15.03.124,lexical_decision_task_DD,2021.2.3,Win32,58.910162,,,,,,,,,,,0.6834,1,,,,,,,,,,,,,,,z,1,0.6834,,,,,,,,-0.09765625,0.244791667,0,0,0,,0,129,129,130,1,CRILL,HB,old,z,./images/CRILLHB.png,,,,,,,,,,,,,,,,,,,,,,,,,,,,,,,,,,
,,,,,,,,,,,,,,,,,5f1338a87447d0308e865fd0,20,2022-02-12_17h15.03.124,lexical_decision_task_DD,2021.2.3,Win32,58.910162,,,,,,,,,,,2.6859,1,,,,,,,,,,,,,,,z,1,2.6859,,,,,,,,-0.09765625,0.244791667,0,0,0,,0,130,130,143,1,MONGS,LB,old,z,./images/MONGSLB.png,,,,,,,,,,,,,,,,,,,,,,,,,,,,,,,,,,
,,,,,,,,,,,,,,,,,5f1338a87447d0308e865fd0,20,2022-02-12_17h15.03.124,lexical_decision_task_DD,2021.2.3,Win32,58.910162,,,,,,,,,,,0.9268,1,,,,,,,,,,,,,,,z,1,0.9268,,,,,,,,-0.09765625,0.244791667,0,0,0,,0,131,131,120,1,RINED,C,old,z,./images/RINED.png,,,,,,,,,,,,,,,,,,,,,,,,,,,,,,,,,,
,,,,,,,,,,,,,,,,,5f1338a87447d0308e865fd0,20,2022-02-12_17h15.03.124,lexical_decision_task_DD,2021.2.3,Win32,58.910162,,,,,,,,,,,0.6925,1,,,,,,,,,,,,,,,z,1,0.6925,,,,,,,,-0.09765625,0.244791667,0,0,0,,0,132,132,86,1,AIFED,LB,old,z,./images/AIFEDLB.png,,,,,,,,,,,,,,,,,,,,,,,,,,,,,,,,,,
,,,,,,,,,,,,,,,,,5f1338a87447d0308e865fd0,20,2022-02-12_17h15.03.124,lexical_decision_task_DD,2021.2.3,Win32,58.910162,,,,,,,,,,,1.3214,1,,,,,,,,,,,,,,,m,1,1.3214,,,,,,,,-0.09765625,0.244791667,0,0,0,,0,133,133,83,1,JUNGLE,LB,old,m,./images/JUNGLELB.png,,,,,,,,,,,,,,,,,,,,,,,,,,,,,,,,,,
,,,,,,,,,,,,,,,,,5f1338a87447d0308e865fd0,20,2022-02-12_17h15.03.124,lexical_decision_task_DD,2021.2.3,Win32,58.910162,,,,,,,,,,,2.3367,1,,,,,,,,,,,,,,,z,1,2.3367,,,,,,,,-0.09765625,0.244791667,0,0,0,,0,134,134,109,1,BURGE,HB,old,z,./images/BURGEHB.png,,,,,,,,,,,,,,,,,,,,,,,,,,,,,,,,,,
,,,,,,,,,,,,,,,,,5f1338a87447d0308e865fd0,20,2022-02-12_17h15.03.124,lexical_decision_task_DD,2021.2.3,Win32,58.910162,,,,,,,,,,,1.2007,1,,,,,,,,,,,,,,,m,1,1.2007,,,,,,,,-0.09765625,0.244791667,0,0,0,,0,135,135,41,1,STRING,LB,old,m,./images/STRINGLB.png,,,,,,,,,,,,,,,,,,,,,,,,,,,,,,,,,,
,,,,,,,,,,,,,,,,,5f1338a87447d0308e865fd0,20,2022-02-12_17h15.03.124,lexical_decision_task_DD,2021.2.3,Win32,58.910162,,,,,,,,,,,0.9066,1,,,,,,,,,,,,,,,z,1,0.9066,,,,,,,,-0.09765625,0.244791667,0,0,0,,0,136,136,116,1,BALGY,LB,old,z,./images/BALGYLB.png,,,,,,,,,,,,,,,,,,,,,,,,,,,,,,,,,,
,,,,,,,,,,,,,,,,,5f1338a87447d0308e865fd0,20,2022-02-12_17h15.03.124,lexical_decision_task_DD,2021.2.3,Win32,58.910162,,,,,,,,,,,1.2136,1,,,,,,,,,,,,,,,m,1,1.2136,,,,,,,,-0.09765625,0.244791667,0,0,0,,0,137,137,36,1,THROAT,C,old,m,./images/THROAT.png,,,,,,,,,,,,,,,,,,,,,,,,,,,,,,,,,,
,,,,,,,,,,,,,,,,,5f1338a87447d0308e865fd0,20,2022-02-12_17h15.03.124,lexical_decision_task_DD,2021.2.3,Win32,58.910162,,,,,,,,,,,1.4758,1,,,,,,,,,,,,,,,m,1,1.4758,,,,,,,,-0.09765625,0.244791667,0,0,0,,0,138,138,2,1,BEARD,LB,old,m,./images/BEARDLB.png,,,,,,,,,,,,,,,,,,,,,,,,,,,,,,,,,,
,,,,,,,,,,,,,,,,,5f1338a87447d0308e865fd0,20,2022-02-12_17h15.03.124,lexical_decision_task_DD,2021.2.3,Win32,58.910162,,,,,,,,,,,0.828,1,,,,,,,,,,,,,,,m,1,0.828,,,,,,,,-0.09765625,0.244791667,0,0,0,,0,139,139,3,1,FINGER,C,old,m,./images/FINGER.png,,,,,,,,,,,,,,,,,,,,,,,,,,,,,,,,,,
,,,,,,,,,,,,,,,,,5f1338a87447d0308e865fd0,20,2022-02-12_17h15.03.124,lexical_decision_task_DD,2021.2.3,Win32,58.910162,,,,,,,,,,,0.9414,1,,,,,,,,,,,,,,,z,1,0.9414,,,,,,,,-0.09765625,0.244791667,0,0,0,,0,140,140,113,1,LINEW,LB,old,z,./images/LINEWLB.png,,,,,,,,,,,,,,,,,,,,,,,,,,,,,,,,,,
,,,,,,,,,,,,,,,,,5f1338a87447d0308e865fd0,20,2022-02-12_17h15.03.124,lexical_decision_task_DD,2021.2.3,Win32,58.910162,,,,,,,,,,,0.783,1,,,,,,,,,,,,,,,z,1,0.783,,,,,,,,-0.09765625,0.244791667,0,0,0,,0,141,141,112,1,MYING,HB,old,z,./images/MYINGHB.png,,,,,,,,,,,,,,,,,,,,,,,,,,,,,,,,,,
,,,,,,,,,,,,,,,,,5f1338a87447d0308e865fd0,20,2022-02-12_17h15.03.124,lexical_decision_task_DD,2021.2.3,Win32,58.910162,,,,,,,,,,,0.8442,1,,,,,,,,,,,,,,,z,1,0.8442,,,,,,,,-0.09765625,0.244791667,0,0,0,,0,142,142,105,1,MOKER,C,old,z,./images/MOKER.png,,,,,,,,,,,,,,,,,,,,,,,,,,,,,,,,,,
,,,,,,,,,,,,,,,,,5f1338a87447d0308e865fd0,20,2022-02-12_17h15.03.124,lexical_decision_task_DD,2021.2.3,Win32,58.910162,,,,,,,,,,,0.7493,1,,,,,,,,,,,,,,,z,1,0.7493,,,,,,,,-0.09765625,0.244791667,0,0,0,,0,143,143,91,1,SHENS,HB,old,z,./images/SHENSHB.png,,,,,,,,,,,,,,,,,,,,,,,,,,,,,,,,,,
,,,,,,,,,,,,,,,,,5f1338a87447d0308e865fd0,20,2022-02-12_17h15.03.124,lexical_decision_task_DD,2021.2.3,Win32,58.910162,,,,,,,,,,,1.3356,1,,,,,,,,,,,,,,,m,1,1.3356,,,,,,,,-0.09765625,0.244791667,0,0,0,,0,144,144,1,1,PLANK,HB,old,m,./images/PLANKHB.png,,,,,,,,,,,,,,,,,,,,,,,,,,,,,,,,,,
,,,,,,,,,,,,,,,,,5f1338a87447d0308e865fd0,20,2022-02-12_17h15.03.124,lexical_decision_task_DD,2021.2.3,Win32,58.910162,,,,,,,,,,,1.0152,0,,,,,,,,,,,,,,,m,0,1.0152,,,,,,,,-0.09765625,0.244791667,0,0,0,,0,145,145,110,1,CRUNK,LB,old,z,./images/CRUNKLB.png,,,,,,,,,,,,,,,,,,,,,,,,,,,,,,,,,,
,,,,,,,,,,,,,,,,,5f1338a87447d0308e865fd0,20,2022-02-12_17h15.03.124,lexical_decision_task_DD,2021.2.3,Win32,58.910162,,,,,,,,,,,1.6575,1,,,,,,,,,,,,,,,z,1,1.6575,,,,,,,,-0.09765625,0.244791667,0,0,0,,0,146,146,121,1,CEERS,HB,old,z,./images/CEERSHB.png,,,,,,,,,,,,,,,,,,,,,,,,,,,,,,,,,,
,,,,,,,,,,,,,,,,,5f1338a87447d0308e865fd0,20,2022-02-12_17h15.03.124,lexical_decision_task_DD,2021.2.3,Win32,58.910162,,,,,,,,,,,0.5471,1,,,,,,,,,,,,,,,m,1,0.5471,,,,,,,,-0.09765625,0.244791667,0,0,0,,0,147,147,14,1,PICKLE,LB,old,m,./images/PICKLELB.png,,,,,,,,,,,,,,,,,,,,,,,,,,,,,,,,,,
,,,,,,,,,,,,,,,,,5f1338a87447d0308e865fd0,20,2022-02-12_17h15.03.124,lexical_decision_task_DD,2021.2.3,Win32,58.910162,,,,,,,,,,,0.6272,1,,,,,,,,,,,,,,,m,1,0.6272,,,,,,,,-0.09765625,0.244791667,0,0,0,,0,148,148,24,1,SCREW,C,old,m,./images/SCREW.png,,,,,,,,,,,,,,,,,,,,,,,,,,,,,,,,,,
,,,,,,,,,,,,,,,,,5f1338a87447d0308e865fd0,20,2022-02-12_17h15.03.124,lexical_decision_task_DD,2021.2.3,Win32,58.910162,,,,,,,,,,,0.5732,1,,,,,,,,,,,,,,,m,1,0.5732,,,,,,,,-0.09765625,0.244791667,0,0,0,,0,149,149,48,1,SPORT,C,old,m,./images/SPORT.png,,,,,,,,,,,,,,,,,,,,,,,,,,,,,,,,,,
,,,,,,,,,,,,,,,,,5f1338a87447d0308e865fd0,20,2022-02-12_17h15.03.124,lexical_decision_task_DD,2021.2.3,Win32,58.910162,,,,,,,,,,,1.2649,1,,,,,,,,,,,,,,,m,1,1.2649,,,,,,,,-0.09765625,0.244791667,0,0,0,,0,150,150,7,1,PAINT,HB,old,m,./images/PAINTHB.png,,,,,,,,,,,,,,,,,,,,,,,,,,,,,,,,,,
,,,,,,,,,,,,,,,,,5f1338a87447d0308e865fd0,20,2022-02-12_17h15.03.124,lexical_decision_task_DD,2021.2.3,Win32,58.910162,,,,,,,,,,,1.0867,1,,,,,,,,,,,,,,,m,1,1.0867,,,,,,,,-0.09765625,0.244791667,0,0,0,,0,151,151,10,1,BELLY,HB,old,m,./images/BELLYHB.png,,,,,,,,,,,,,,,,,,,,,,,,,,,,,,,,,,
,,,,,,,,,,,,,,,,,5f1338a87447d0308e865fd0,20,2022-02-12_17h15.03.124,lexical_decision_task_DD,2021.2.3,Win32,58.910162,,,,,,,,,,,0.5478,1,,,,,,,,,,,,,,,z,1,0.5478,,,,,,,,-0.09765625,0.244791667,0,0,0,,0,152,152,137,1,JOOST,LB,old,z,./images/JOOSTLB.png,,,,,,,,,,,,,,,,,,,,,,,,,,,,,,,,,,
,,,,,,,,,,,,,,,,,5f1338a87447d0308e865fd0,20,2022-02-12_17h15.03.124,lexical_decision_task_DD,2021.2.3,Win32,58.910162,,,,,,,,,,,0.9129,1,,,,,,,,,,,,,,,m,1,0.9129,,,,,,,,-0.09765625,0.244791667,0,0,0,,0,153,153,67,1,SAILOR,HB,old,m,./images/SAILORHB.png,,,,,,,,,,,,,,,,,,,,,,,,,,,,,,,,,,
,,,,,,,,,,,,,,,,,5f1338a87447d0308e865fd0,20,2022-02-12_17h15.03.124,lexical_decision_task_DD,2021.2.3,Win32,58.910162,,,,,,,,,,,0.6923,1,,,,,,,,,,,,,,,m,1,0.6923,,,,,,,,-0.09765625,0.244791667,0,0,0,,0,154,154,74,1,CEMENT,LB,old,m,./images/CEMENTLB.png,,,,,,,,,,,,,,,,,,,,,,,,,,,,,,,,,,
,,,,,,,,,,,,,,,,,5f1338a87447d0308e865fd0,20,2022-02-12_17h15.03.124,lexical_decision_task_DD,2021.2.3,Win32,58.910162,,,,,,,,,,,0.4963,1,,,,,,,,,,,,,,,m,1,0.4963,,,,,,,,-0.09765625,0.244791667,0,0,0,,0,155,155,47,1,BERRY,LB,old,m,./images/BERRYLB.png,,,,,,,,,,,,,,,,,,,,,,,,,,,,,,,,,,
,,,,,,,,,,,,,,,,,5f1338a87447d0308e865fd0,20,2022-02-12_17h15.03.124,lexical_decision_task_DD,2021.2.3,Win32,58.910162,,,,,,,,,,,0.565,1,,,,,,,,,,,,,,,m,1,0.565,,,,,,,,-0.09765625,0.244791667,0,0,0,,0,156,156,42,1,FOLDER,C,old,m,./images/FOLDER.png,,,,,,,,,,,,,,,,,,,,,,,,,,,,,,,,,,
,,,,,,,,,,,,,,,,,5f1338a87447d0308e865fd0,20,2022-02-12_17h15.03.124,lexical_decision_task_DD,2021.2.3,Win32,58.910162,,,,,,,,,,,0.9934,1,,,,,,,,,,,,,,,z,1,0.9934,,,,,,,,-0.09765625,0.244791667,0,0,0,,0,157,157,156,1,HIXES,C,old,z,./images/HIXES.png,,,,,,,,,,,,,,,,,,,,,,,,,,,,,,,,,,
,,,,,,,,,,,,,,,,,5f1338a87447d0308e865fd0,20,2022-02-12_17h15.03.124,lexical_decision_task_DD,2021.2.3,Win32,58.910162,,,,,,,,,,,0.5305,1,,,,,,,,,,,,,,,m,1,0.5305,,,,,,,,-0.09765625,0.244791667,0,0,0,,0,158,158,32,1,BARREL,LB,old,m,./images/BARRELLB.png,,,,,,,,,,,,,,,,,,,,,,,,,,,,,,,,,,
,,,,,,,,,,,,,,,,,5f1338a87447d0308e865fd0,20,2022-02-12_17h15.03.124,lexical_decision_task_DD,2021.2.3,Win32,58.910162,,,,,,,,,,,1.3497,1,,,,,,,,,,,,,,,m,1,1.3497,,,,,,,,-0.09765625,0.244791667,0,0,0,,0,159,159,0,1,TOMATO,C,old,m,./images/TOMATO.png,,,,,,,,,,,,,,,,,,,,,,,,,,,,,,,,,,
,,,,,,,,,,,,,,,,,5f1338a87447d0308e865fd0,20,2022-02-12_17h15.03.124,lexical_decision_task_DD,2021.2.3,Win32,58.910162,,,,,,,,,,,0.8491,1,,,,,,,,,,,,,,,z,1,0.8491,,,,,,,,-0.09765625,0.244791667,0,0,0,,0,160,160,146,1,MOOST,LB,old,z,./images/MOOSTLB.png,,,,,,,,,,,,,,,,,,,,,,,,,,,,,,,,,,
,,,,,,,,,,,,,,,,,5f1338a87447d0308e865fd0,20,2022-02-12_17h15.03.124,lexical_decision_task_DD,2021.2.3,Win32,58.910162,,,,,,,,,,,1.284,1,,,,,,,,,,,,,,,z,1,1.284,,,,,,,,-0.09765625,0.244791667,0,0,0,,0,161,161,144,1,NAIRY,C,old,z,./images/NAIRY.png,,,,,,,,,,,,,,,,,,,,,,,,,,,,,,,,,,
,,,,,,,,,,,,,,,,,5f1338a87447d0308e865fd0,20,2022-02-12_17h15.03.124,lexical_decision_task_DD,2021.2.3,Win32,58.910162,,,,,,,,,,,1.3891,1,,,,,,,,,,,,,,,z,1,1.3891,,,,,,,,-0.09765625,0.244791667,0,0,0,,0,162,162,117,1,STEEG,C,old,z,./images/STEEG.png,,,,,,,,,,,,,,,,,,,,,,,,,,,,,,,,,,
,,,,,,,,,,,,,,,,,5f1338a87447d0308e865fd0,20,2022-02-12_17h15.03.124,lexical_decision_task_DD,2021.2.3,Win32,58.910162,,,,,,,,,,,1.4508,1,,,,,,,,,,,,,,,z,1,1.4508,,,,,,,,-0.09765625,0.244791667,0,0,0,,0,163,163,159,1,CUDDY,C,old,z,./images/CUDDY.png,,,,,,,,,,,,,,,,,,,,,,,,,,,,,,,,,,
,,,,,,,,,,,,,,,,,5f1338a87447d0308e865fd0,20,2022-02-12_17h15.03.124,lexical_decision_task_DD,2021.2.3,Win32,58.910162,,,,,,,,,,,0.7398,1,,,,,,,,,,,,,,,z,1,0.7398,,,,,,,,-0.09765625,0.244791667,0,0,0,,0,164,164,126,1,GUELS,C,old,z,./images/GUELS.png,,,,,,,,,,,,,,,,,,,,,,,,,,,,,,,,,,
,,,,,,,,,,,,,,,,,5f1338a87447d0308e865fd0,20,2022-02-12_17h15.03.124,lexical_decision_task_DD,2021.2.3,Win32,58.910162,,,,,,,,,,,1.6598,1,,,,,,,,,,,,,,,m,1,1.6598,,,,,,,,-0.09765625,0.244791667,0,0,0,,0,165,165,66,1,SWEAT,C,old,m,./images/SWEAT.png,,,,,,,,,,,,,,,,,,,,,,,,,,,,,,,,,,
,,,,,,,,,,,,,,,,,5f1338a87447d0308e865fd0,20,2022-02-12_17h15.03.124,lexical_decision_task_DD,2021.2.3,Win32,58.910162,,,,,,,,,,,0.5876,1,,,,,,,,,,,,,,,z,1,0.5876,,,,,,,,-0.09765625,0.244791667,0,0,0,,0,166,166,93,1,SMONE,C,old,z,./images/SMONE.png,,,,,,,,,,,,,,,,,,,,,,,,,,,,,,,,,,
,,,,,,,,,,,,,,,,,5f1338a87447d0308e865fd0,20,2022-02-12_17h15.03.124,lexical_decision_task_DD,2021.2.3,Win32,58.910162,,,,,,,,,,,0.6521,1,,,,,,,,,,,,,,,z,1,0.6521,,,,,,,,-0.09765625,0.244791667,0,0,0,,0,167,167,154,1,THINT,HB,old,z,./images/THINTHB.png,,,,,,,,,,,,,,,,,,,,,,,,,,,,,,,,,,
,,,,,,,,,,,,,,,,,5f1338a87447d0308e865fd0,20,2022-02-12_17h15.03.124,lexical_decision_task_DD,2021.2.3,Win32,58.910162,,,,,,,,,,,,,,,,,,,,,,,,,,,,,,,,,,,,,,,,,,,,,,,,,How likely will it be that you will recognize the words presented slighly blurred on a scale of 0 (not likely) to 100 (most likely)?,,,,,-0.01171875,-0.401041667,1,0,0,jol_adv,2,4.5436,0,0,0,1,1,,,,,,,,,,,,,,,,,,,,
,,,,,,,,,,,,,,,,,5f1338a87447d0308e865fd0,20,2022-02-12_17h15.03.124,lexical_decision_task_DD,2021.2.3,Win32,58.910162,,,,,,,,,,,,,,,,,,,,,,,,,,,,,,,,,,,,,,,,,,,,,,,,,How likely will it be that you will recognize the words presented very blurred on a scale of 0 (not likely) to 100 (most likely)?,,,,,,,,,,,2,3.9551,0,1,1,2,1,,,,,,,,,,,,,,,,,,,,
,,,,,,,,,,,,,,,,,5f1338a87447d0308e865fd0,20,2022-02-12_17h15.03.124,lexical_decision_task_DD,2021.2.3,Win32,58.910162,,,,,,,,,,,,,,,,,,,,,,,,,,,,,,,,,,,,,,,,,,,,,,,,,How likely will it be that you will recognize the words presented clearly on a scale of 0 (not likely) to 100 (most likely)?,,,,,,,,,,,3,1.956,0,2,2,0,1,,,,,,,,,,,,,,,,,,,,
,-0.059895833,-0.359375,1,0,0,instr_done_button,,,,,,1,test,"In the next phase you will be presented with the words from the the first phase. Your job is to decide whether you remember seeing the word or not. If you remember seeing the word press ""old"" or type ""m"". If you do not remember seeing the word press ""new"" or type ""z"". Please press the space bar or click on continue to begin. ",,,5f1338a87447d0308e865fd0,20,2022-02-12_17h15.03.124,lexical_decision_task_DD,2021.2.3,Win32,58.910162,,,,,,,,,,,,,,,,,,,,,,,,,,,,,,,,,,,,,,,,,,,,,,,,,,,,,,,,,,,,,,,,,,,0,0,0,0,1,,,,,,,,,,,,,,,
,-0.049479167,-0.401041667,1,0,0,instr_done_button,,,,,,1,test,"In the next phase you will be presented with the words from the the first phase. Your job is to decide whether you remember seeing the word or not. If you remember seeing the word press ""old"" or type ""m"". If you do not remember seeing the word press ""new"" or type ""z"". Please press the space bar or click on continue to begin. ",,,5f1338a87447d0308e865fd0,20,2022-02-12_17h15.03.124,lexical_decision_task_DD,2021.2.3,Win32,58.910162,,,,,,,,,,,,,,,,,,,,,,,,,,,,,,,,,,,,,,,,,,,,,,,,,,,,,,,,,,,,,,,,,,,1,0,1,0,1,,,,,,,,,,,,,,,
space,-0.049479167,-0.401041667,0,0,0,,,,,,,1,test,"In the next phase you will be presented with the words from the the first phase. Your job is to decide whether you remember seeing the word or not. If you remember seeing the word press ""old"" or type ""m"". If you do not remember seeing the word press ""new"" or type ""z"". Please press the space bar or click on continue to begin. ",,,5f1338a87447d0308e865fd0,20,2022-02-12_17h15.03.124,lexical_decision_task_DD,2021.2.3,Win32,58.910162,,,,,,,,,,,,,,,,,,,,,1.868,,,,,,,,,,,,,,,,,,,,,,,,,,,,,,,,,,,,,,,,,,,,,,2,0,2,0,1,,,,,,,,,,,,,,,
space,-0.084635417,-0.180989583,0,0,0,,,,,,,1,test,"In the next phase you will be presented with the words from the the first phase. Your job is to decide whether you remember seeing the word or not. If you remember seeing the word press ""old"" or type ""m"". If you do not remember seeing the word press ""new"" or type ""z"". Please press the space bar or click on continue to begin. ",,,5f1338a87447d0308e865fd0,20,2022-02-12_17h15.03.124,lexical_decision_task_DD,2021.2.3,Win32,58.910162,,,,,,,,,,,,,,,,,,,,,1.6668,,,,,,,,,,,,,,,,,,,,,,,,,,,,,,,,,,,,,,,,,,,,,,3,0,3,0,1,,,,,,,,,,,,,,,
space,-0.084635417,-0.180989583,0,0,0,,,,,,,1,test,"In the next phase you will be presented with the words from the the first phase. Your job is to decide whether you remember seeing the word or not. If you remember seeing the word press ""old"" or type ""m"". If you do not remember seeing the word press ""new"" or type ""z"". Please press the space bar or click on continue to begin. ",,,5f1338a87447d0308e865fd0,20,2022-02-12_17h15.03.124,lexical_decision_task_DD,2021.2.3,Win32,58.910162,,,,,,,,,,,,,,,,,,,,,11.1054,,,,,,,,,,,,,,,,,,,,,,,,,,,,,,,,,,,,,,,,,,,,,,4,0,4,0,1,,,,,,,,,,,,,,,
,,,,,,,,,,,,,,,,,5f1338a87447d0308e865fd0,20,2022-02-12_17h15.03.124,lexical_decision_task_DD,2021.2.3,Win32,58.910162,,,,,,,,,,,2.3536,0,,,,,,,,,,,,,,,,,,,,,,,,,-0.084635417,-0.180989583,0,0,0,,,,,,,COLLAR,C,z,m,./images/COLLAR.png,,,,,,,,,,,,,,,,,,,,m,0,2.3536,,,,,,,,0,0,0,99,1
,,,,,,,,,,,,,,,,,5f1338a87447d0308e865fd0,20,2022-02-12_17h15.03.124,lexical_decision_task_DD,2021.2.3,Win32,58.910162,,,,,,,,,,,1.2168,0,,,,,,,,,,,,,,,,,,,,,,,,,-0.084635417,-0.180989583,0,0,0,,,,,,,LLAMA,LB,z,m,./images/LLAMALB.png,,,,,,,,,,,,,,,,,,,,m,0,1.2168,,,,,,,,0,1,1,119,1
,,,,,,,,,,,,,,,,,5f1338a87447d0308e865fd0,20,2022-02-12_17h15.03.124,lexical_decision_task_DD,2021.2.3,Win32,58.910162,,,,,,,,,,,1.082,0,,,,,,,,,,,,,,,,,,,,,,,,,-0.084635417,-0.180989583,0,0,0,,,,,,,STRING,LB,m,m,./images/STRINGLB.png,,,,,,,,,,,,,,,,,,,,z,0,1.082,,,,,,,,0,2,2,41,1
,,,,,,,,,,,,,,,,,5f1338a87447d0308e865fd0,20,2022-02-12_17h15.03.124,lexical_decision_task_DD,2021.2.3,Win32,58.910162,,,,,,,,,,,1.9062,0,,,,,,,,,,,,,,,,,,,,,,,,,-0.084635417,-0.180989583,0,0,0,,,,,,,PACKET,LB,m,m,./images/PACKETLB.png,,,,,,,,,,,,,,,,,,,,z,0,1.9062,,,,,,,,0,3,3,56,1
,,,,,,,,,,,,,,,,,5f1338a87447d0308e865fd0,20,2022-02-12_17h15.03.124,lexical_decision_task_DD,2021.2.3,Win32,58.910162,,,,,,,,,,,1.5481,0,,,,,,,,,,,,,,,,,,,,,,,,,-0.084635417,-0.180989583,0,0,0,,,,,,,PILOT,LB,z,m,./images/PILOTLB.png,,,,,,,,,,,,,,,,,,,,m,0,1.5481,,,,,,,,0,4,4,134,1
,,,,,,,,,,,,,,,,,5f1338a87447d0308e865fd0,20,2022-02-12_17h15.03.124,lexical_decision_task_DD,2021.2.3,Win32,58.910162,,,,,,,,,,,1.1374,1,,,,,,,,,,,,,,,,,,,,,,,,,-0.084635417,-0.180989583,0,0,0,,,,,,,SLOPE,C,z,m,./images/SLOPE.png,,,,,,,,,,,,,,,,,,,,z,1,1.1374,,,,,,,,0,5,5,114,1
,,,,,,,,,,,,,,,,,5f1338a87447d0308e865fd0,20,2022-02-12_17h15.03.124,lexical_decision_task_DD,2021.2.3,Win32,58.910162,,,,,,,,,,,1.0207,0,,,,,,,,,,,,,,,,,,,,,,,,,-0.084635417,-0.180989583,0,0,0,,,,,,,DRUMS,HB,m,m,./images/DRUMSHB.png,,,,,,,,,,,,,,,,,,,,z,0,1.0207,,,,,,,,0,6,6,49,1
,,,,,,,,,,,,,,,,,5f1338a87447d0308e865fd0,20,2022-02-12_17h15.03.124,lexical_decision_task_DD,2021.2.3,Win32,58.910162,,,,,,,,,,,1.1379,1,,,,,,,,,,,,,,,,,,,,,,,,,-0.084635417,-0.180989583,0,0,0,,,,,,,ONION,C,m,m,./images/ONION.png,,,,,,,,,,,,,,,,,,,,m,1,1.1379,,,,,,,,0,7,7,51,1
,,,,,,,,,,,,,,,,,5f1338a87447d0308e865fd0,20,2022-02-12_17h15.03.124,lexical_decision_task_DD,2021.2.3,Win32,58.910162,,,,,,,,,,,1.02,1,,,,,,,,,,,,,,,,,,,,,,,,,-0.084635417,-0.180989583,0,0,0,,,,,,,KIDNEY,C,m,m,./images/KIDNEY.png,,,,,,,,,,,,,,,,,,,,m,1,1.02,,,,,,,,0,8,8,21,1
,,,,,,,,,,,,,,,,,5f1338a87447d0308e865fd0,20,2022-02-12_17h15.03.124,lexical_decision_task_DD,2021.2.3,Win32,58.910162,,,,,,,,,,,0.931,0,,,,,,,,,,,,,,,,,,,,,,,,,-0.084635417,-0.180989583,0,0,0,,,,,,,QUILL,HB,m,m,./images/QUILLHB.png,,,,,,,,,,,,,,,,,,,,z,0,0.931,,,,,,,,0,9,9,31,1
,,,,,,,,,,,,,,,,,5f1338a87447d0308e865fd0,20,2022-02-12_17h15.03.124,lexical_decision_task_DD,2021.2.3,Win32,58.910162,,,,,,,,,,,0.9366,1,,,,,,,,,,,,,,,,,,,,,,,,,-0.084635417,-0.180989583,0,0,0,,,,,,,CRUMB,LB,m,m,./images/CRUMBLB.png,,,,,,,,,,,,,,,,,,,,m,1,0.9366,,,,,,,,0,10,10,29,1
,,,,,,,,,,,,,,,,,5f1338a87447d0308e865fd0,20,2022-02-12_17h15.03.124,lexical_decision_task_DD,2021.2.3,Win32,58.910162,,,,,,,,,,,1.1067,1,,,,,,,,,,,,,,,,,,,,,,,,,-0.084635417,-0.180989583,0,0,0,,,,,,,SPINE,LB,z,m,./images/SPINELB.png,,,,,,,,,,,,,,,,,,,,z,1,1.1067,,,,,,,,0,11,11,149,1
,,,,,,,,,,,,,,,,,5f1338a87447d0308e865fd0,20,2022-02-12_17h15.03.124,lexical_decision_task_DD,2021.2.3,Win32,58.910162,,,,,,,,,,,1.0066,1,,,,,,,,,,,,,,,,,,,,,,,,,-0.084635417,-0.180989583,0,0,0,,,,,,,GRANNY,LB,z,m,./images/GRANNYLB.png,,,,,,,,,,,,,,,,,,,,z,1,1.0066,,,,,,,,0,12,12,104,1
,,,,,,,,,,,,,,,,,5f1338a87447d0308e865fd0,20,2022-02-12_17h15.03.124,lexical_decision_task_DD,2021.2.3,Win32,58.910162,,,,,,,,,,,0.8888,1,,,,,,,,,,,,,,,,,,,,,,,,,-0.084635417,-0.180989583,0,0,0,,,,,,,LAGOON,LB,z,m,./images/LAGOONLB.png,,,,,,,,,,,,,,,,,,,,z,1,0.8888,,,,,,,,0,13,13,131,1
,,,,,,,,,,,,,,,,,5f1338a87447d0308e865fd0,20,2022-02-12_17h15.03.124,lexical_decision_task_DD,2021.2.3,Win32,58.910162,,,,,,,,,,,1.1834,1,,,,,,,,,,,,,,,,,,,,,,,,,-0.084635417,-0.180989583,0,0,0,,,,,,,GLOVE,HB,z,m,./images/GLOVEHB.png,,,,,,,,,,,,,,,,,,,,z,1,1.1834,,,,,,,,0,14,14,157,1
,,,,,,,,,,,,,,,,,5f1338a87447d0308e865fd0,20,2022-02-12_17h15.03.124,lexical_decision_task_DD,2021.2.3,Win32,58.910162,,,,,,,,,,,1.0043,0,,,,,,,,,,,,,,,,,,,,,,,,,-0.084635417,-0.180989583,0,0,0,,,,,,,CANDLE,HB,m,m,./images/CANDLEHB.png,,,,,,,,,,,,,,,,,,,,z,0,1.0043,,,,,,,,0,15,15,61,1
,,,,,,,,,,,,,,,,,5f1338a87447d0308e865fd0,20,2022-02-12_17h15.03.124,lexical_decision_task_DD,2021.2.3,Win32,58.910162,,,,,,,,,,,1.3027,1,,,,,,,,,,,,,,,,,,,,,,,,,-0.084635417,-0.180989583,0,0,0,,,,,,,SQUARE,C,m,m,./images/SQUARE.png,,,,,,,,,,,,,,,,,,,,m,1,1.3027,,,,,,,,0,16,16,6,1
,,,,,,,,,,,,,,,,,5f1338a87447d0308e865fd0,20,2022-02-12_17h15.03.124,lexical_decision_task_DD,2021.2.3,Win32,58.910162,,,,,,,,,,,0.9496,1,,,,,,,,,,,,,,,,,,,,,,,,,-0.084635417,-0.180989583,0,0,0,,,,,,,MIDGET,HB,z,m,./images/MIDGETHB.png,,,,,,,,,,,,,,,,,,,,z,1,0.9496,,,,,,,,0,17,17,160,1
,,,,,,,,,,,,,,,,,5f1338a87447d0308e865fd0,20,2022-02-12_17h15.03.124,lexical_decision_task_DD,2021.2.3,Win32,58.910162,,,,,,,,,,,0.9817,1,,,,,,,,,,,,,,,,,,,,,,,,,-0.084635417,-0.180989583,0,0,0,,,,,,,BANNER,HB,m,m,./images/BANNERHB.png,,,,,,,,,,,,,,,,,,,,m,1,0.9817,,,,,,,,0,18,18,52,1
,,,,,,,,,,,,,,,,,5f1338a87447d0308e865fd0,20,2022-02-12_17h15.03.124,lexical_decision_task_DD,2021.2.3,Win32,58.910162,,,,,,,,,,,1.1657,1,,,,,,,,,,,,,,,,,,,,,,,,,-0.084635417,-0.180989583,0,0,0,,,,,,,THROAT,C,m,m,./images/THROAT.png,,,,,,,,,,,,,,,,,,,,m,1,1.1657,,,,,,,,0,19,19,36,1
,,,,,,,,,,,,,,,,,5f1338a87447d0308e865fd0,20,2022-02-12_17h15.03.124,lexical_decision_task_DD,2021.2.3,Win32,58.910162,,,,,,,,,,,1.3051,1,,,,,,,,,,,,,,,,,,,,,,,,,-0.084635417,-0.180989583,0,0,0,,,,,,,HOCKEY,LB,z,m,./images/HOCKEYLB.png,,,,,,,,,,,,,,,,,,,,z,1,1.3051,,,,,,,,0,20,20,116,1
,,,,,,,,,,,,,,,,,5f1338a87447d0308e865fd0,20,2022-02-12_17h15.03.124,lexical_decision_task_DD,2021.2.3,Win32,58.910162,,,,,,,,,,,2.1331,0,,,,,,,,,,,,,,,,,,,,,,,,,-0.084635417,-0.180989583,0,0,0,,,,,,,SNACK,HB,m,m,./images/SNACKHB.png,,,,,,,,,,,,,,,,,,,,z,0,2.1331,,,,,,,,0,21,21,73,1
,,,,,,,,,,,,,,,,,5f1338a87447d0308e865fd0,20,2022-02-12_17h15.03.124,lexical_decision_task_DD,2021.2.3,Win32,58.910162,,,,,,,,,,,1.3848,1,,,,,,,,,,,,,,,,,,,,,,,,,-0.084635417,-0.180989583,0,0,0,,,,,,,BERRY,LB,m,m,./images/BERRYLB.png,,,,,,,,,,,,,,,,,,,,m,1,1.3848,,,,,,,,0,22,22,47,1
,,,,,,,,,,,,,,,,,5f1338a87447d0308e865fd0,20,2022-02-12_17h15.03.124,lexical_decision_task_DD,2021.2.3,Win32,58.910162,,,,,,,,,,,1.4488,0,,,,,,,,,,,,,,,,,,,,,,,,,-0.084635417,-0.180989583,0,0,0,,,,,,,ENGINE,LB,z,m,./images/ENGINELB.png,,,,,,,,,,,,,,,,,,,,m,0,1.4488,,,,,,,,0,23,23,122,1
,,,,,,,,,,,,,,,,,5f1338a87447d0308e865fd0,20,2022-02-12_17h15.03.124,lexical_decision_task_DD,2021.2.3,Win32,58.910162,,,,,,,,,,,0.9675,0,,,,,,,,,,,,,,,,,,,,,,,,,-0.084635417,-0.180989583,0,0,0,,,,,,,BOILER,C,z,m,./images/BOILER.png,,,,,,,,,,,,,,,,,,,,m,0,0.9675,,,,,,,,0,24,24,120,1
,,,,,,,,,,,,,,,,,5f1338a87447d0308e865fd0,20,2022-02-12_17h15.03.124,lexical_decision_task_DD,2021.2.3,Win32,58.910162,,,,,,,,,,,1.8337,1,,,,,,,,,,,,,,,,,,,,,,,,,-0.084635417,-0.180989583,0,0,0,,,,,,,MALLET,LB,m,m,./images/MALLETLB.png,,,,,,,,,,,,,,,,,,,,m,1,1.8337,,,,,,,,0,25,25,50,1
,,,,,,,,,,,,,,,,,5f1338a87447d0308e865fd0,20,2022-02-12_17h15.03.124,lexical_decision_task_DD,2021.2.3,Win32,58.910162,,,,,,,,,,,1.1501,0,,,,,,,,,,,,,,,,,,,,,,,,,-0.084635417,-0.180989583,0,0,0,,,,,,,PISTOL,LB,z,m,./images/PISTOLLB.png,,,,,,,,,,,,,,,,,,,,m,0,1.1501,,,,,,,,0,26,26,113,1
,,,,,,,,,,,,,,,,,5f1338a87447d0308e865fd0,20,2022-02-12_17h15.03.124,lexical_decision_task_DD,2021.2.3,Win32,58.910162,,,,,,,,,,,1.8851,1,,,,,,,,,,,,,,,,,,,,,,,,,-0.084635417,-0.180989583,0,0,0,,,,,,,POKER,HB,z,m,./images/POKERHB.png,,,,,,,,,,,,,,,,,,,,z,1,1.8851,,,,,,,,0,27,27,151,1
,,,,,,,,,,,,,,,,,5f1338a87447d0308e865fd0,20,2022-02-12_17h15.03.124,lexical_decision_task_DD,2021.2.3,Win32,58.910162,,,,,,,,,,,1.0018,1,,,,,,,,,,,,,,,,,,,,,,,,,-0.084635417,-0.180989583,0,0,0,,,,,,,TULIP,LB,m,m,./images/TULIPLB.png,,,,,,,,,,,,,,,,,,,,m,1,1.0018,,,,,,,,0,28,28,8,1
,,,,,,,,,,,,,,,,,5f1338a87447d0308e865fd0,20,2022-02-12_17h15.03.124,lexical_decision_task_DD,2021.2.3,Win32,58.910162,,,,,,,,,,,0.7545,1,,,,,,,,,,,,,,,,,,,,,,,,,-0.084635417,-0.180989583,0,0,0,,,,,,,CARPET,LB,m,m,./images/CARPETLB.png,,,,,,,,,,,,,,,,,,,,m,1,0.7545,,,,,,,,0,29,29,53,1
,,,,,,,,,,,,,,,,,5f1338a87447d0308e865fd0,20,2022-02-12_17h15.03.124,lexical_decision_task_DD,2021.2.3,Win32,58.910162,,,,,,,,,,,1.3686,1,,,,,,,,,,,,,,,,,,,,,,,,,-0.084635417,-0.180989583,0,0,0,,,,,,,STORM,C,m,m,./images/STORM.png,,,,,,,,,,,,,,,,,,,,m,1,1.3686,,,,,,,,0,30,30,30,1
,,,,,,,,,,,,,,,,,5f1338a87447d0308e865fd0,20,2022-02-12_17h15.03.124,lexical_decision_task_DD,2021.2.3,Win32,58.910162,,,,,,,,,,,0.7496,1,,,,,,,,,,,,,,,,,,,,,,,,,-0.084635417,-0.180989583,0,0,0,,,,,,,MAGGOT,C,m,m,./images/MAGGOT.png,,,,,,,,,,,,,,,,,,,,m,1,0.7496,,,,,,,,0,31,31,33,1
,,,,,,,,,,,,,,,,,5f1338a87447d0308e865fd0,20,2022-02-12_17h15.03.124,lexical_decision_task_DD,2021.2.3,Win32,58.910162,,,,,,,,,,,0.6752,1,,,,,,,,,,,,,,,,,,,,,,,,,-0.084635417,-0.180989583,0,0,0,,,,,,,JUMPER,LB,z,m,./images/JUMPERLB.png,,,,,,,,,,,,,,,,,,,,z,1,0.6752,,,,,,,,0,32,32,158,1
,,,,,,,,,,,,,,,,,5f1338a87447d0308e865fd0,20,2022-02-12_17h15.03.124,lexical_decision_task_DD,2021.2.3,Win32,58.910162,,,,,,,,,,,1.0182,1,,,,,,,,,,,,,,,,,,,,,,,,,-0.084635417,-0.180989583,0,0,0,,,,,,,CRADLE,LB,m,m,./images/CRADLELB.png,,,,,,,,,,,,,,,,,,,,m,1,1.0182,,,,,,,,0,33,33,20,1
,,,,,,,,,,,,,,,,,5f1338a87447d0308e865fd0,20,2022-02-12_17h15.03.124,lexical_decision_task_DD,2021.2.3,Win32,58.910162,,,,,,,,,,,0.6082,1,,,,,,,,,,,,,,,,,,,,,,,,,-0.084635417,-0.180989583,0,0,0,,,,,,,MAMMAL,LB,z,m,./images/MAMMALLB.png,,,,,,,,,,,,,,,,,,,,z,1,0.6082,,,,,,,,0,34,34,146,1
,,,,,,,,,,,,,,,,,5f1338a87447d0308e865fd0,20,2022-02-12_17h15.03.124,lexical_decision_task_DD,2021.2.3,Win32,58.910162,,,,,,,,,,,0.724,1,,,,,,,,,,,,,,,,,,,,,,,,,-0.084635417,-0.180989583,0,0,0,,,,,,,BRIDE,HB,z,m,./images/BRIDEHB.png,,,,,,,,,,,,,,,,,,,,z,1,0.724,,,,,,,,0,35,35,148,1
,,,,,,,,,,,,,,,,,5f1338a87447d0308e865fd0,20,2022-02-12_17h15.03.124,lexical_decision_task_DD,2021.2.3,Win32,58.910162,,,,,,,,,,,1.7106,1,,,,,,,,,,,,,,,,,,,,,,,,,-0.084635417,-0.180989583,0,0,0,,,,,,,INFANT,HB,m,m,./images/INFANTHB.png,,,,,,,,,,,,,,,,,,,,m,1,1.7106,,,,,,,,0,36,36,76,1
,,,,,,,,,,,,,,,,,5f1338a87447d0308e865fd0,20,2022-02-12_17h15.03.124,lexical_decision_task_DD,2021.2.3,Win32,58.910162,,,,,,,,,,,0.9036,1,,,,,,,,,,,,,,,,,,,,,,,,,-0.084635417,-0.180989583,0,0,0,,,,,,,WHEEL,LB,z,m,./images/WHEELLB.png,,,,,,,,,,,,,,,,,,,,z,1,0.9036,,,,,,,,0,37,37,161,1
,,,,,,,,,,,,,,,,,5f1338a87447d0308e865fd0,20,2022-02-12_17h15.03.124,lexical_decision_task_DD,2021.2.3,Win32,58.910162,,,,,,,,,,,1.0857,1,,,,,,,,,,,,,,,,,,,,,,,,,-0.084635417,-0.180989583,0,0,0,,,,,,,PEACH,LB,m,m,./images/PEACHLB.png,,,,,,,,,,,,,,,,,,,,m,1,1.0857,,,,,,,,0,38,38,35,1
,,,,,,,,,,,,,,,,,5f1338a87447d0308e865fd0,20,2022-02-12_17h15.03.124,lexical_decision_task_DD,2021.2.3,Win32,58.910162,,,,,,,,,,,0.4361,0,,,,,,,,,,,,,,,,,,,,,,,,,-0.084635417,-0.180989583,0,0,0,,,,,,,TIGER,HB,z,m,./images/TIGERHB.png,,,,,,,,,,,,,,,,,,,,m,0,0.4361,,,,,,,,0,39,39,121,1
,,,,,,,,,,,,,,,,,5f1338a87447d0308e865fd0,20,2022-02-12_17h15.03.124,lexical_decision_task_DD,2021.2.3,Win32,58.910162,,,,,,,,,,,0.6836,1,,,,,,,,,,,,,,,,,,,,,,,,,-0.084635417,-0.180989583,0,0,0,,,,,,,MIRROR,C,m,m,./images/MIRROR.png,,,,,,,,,,,,,,,,,,,,m,1,0.6836,,,,,,,,0,40,40,63,1
,,,,,,,,,,,,,,,,,5f1338a87447d0308e865fd0,20,2022-02-12_17h15.03.124,lexical_decision_task_DD,2021.2.3,Win32,58.910162,,,,,,,,,,,0.6314,1,,,,,,,,,,,,,,,,,,,,,,,,,-0.084635417,-0.180989583,0,0,0,space,,,,,,MEDAL,LB,z,m,./images/MEDALLB.png,95.9866,,,,,,,,,,,,,,,,,,,z,1,0.6314,,,,,,,,0,41,41,95,1
,,,,,,,,,,,,,,,,,5f1338a87447d0308e865fd0,20,2022-02-12_17h15.03.124,lexical_decision_task_DD,2021.2.3,Win32,58.910162,,,,,,,,,,,1.0949,1,,,,,,,,,,,,,,,,,,,,,,,,,-0.084635417,-0.180989583,0,0,0,,,,,,,ALLEY,HB,z,m,./images/ALLEYHB.png,,,,,,,,,,,,,,,,,,,,z,1,1.0949,,,,,,,,0,42,42,139,1
,,,,,,,,,,,,,,,,,5f1338a87447d0308e865fd0,20,2022-02-12_17h15.03.124,lexical_decision_task_DD,2021.2.3,Win32,58.910162,,,,,,,,,,,1.1249,1,,,,,,,,,,,,,,,,,,,,,,,,,-0.084635417,-0.180989583,0,0,0,,,,,,,BLOKE,C,z,m,./images/BLOKE.png,,,,,,,,,,,,,,,,,,,,z,1,1.1249,,,,,,,,0,43,43,96,1
,,,,,,,,,,,,,,,,,5f1338a87447d0308e865fd0,20,2022-02-12_17h15.03.124,lexical_decision_task_DD,2021.2.3,Win32,58.910162,,,,,,,,,,,1.1845,1,,,,,,,,,,,,,,,,,,,,,,,,,-0.084635417,-0.180989583,0,0,0,,,,,,,CANYON,HB,m,m,./images/CANYONHB.png,,,,,,,,,,,,,,,,,,,,m,1,1.1845,,,,,,,,0,44,44,34,1
,,,,,,,,,,,,,,,,,5f1338a87447d0308e865fd0,20,2022-02-12_17h15.03.124,lexical_decision_task_DD,2021.2.3,Win32,58.910162,,,,,,,,,,,0.9185,1,,,,,,,,,,,,,,,,,,,,,,,,,-0.084635417,-0.180989583,0,0,0,,,,,,,CRUST,HB,m,m,./images/CRUSTHB.png,,,,,,,,,,,,,,,,,,,,m,1,0.9185,,,,,,,,0,45,45,79,1
,,,,,,,,,,,,,,,,,5f1338a87447d0308e865fd0,20,2022-02-12_17h15.03.124,lexical_decision_task_DD,2021.2.3,Win32,58.910162,,,,,,,,,,,0.8181,1,,,,,,,,,,,,,,,,,,,,,,,,,-0.084635417,-0.180989583,0,0,0,,,,,,,FERRY,C,z,m,./images/FERRY.png,,,,,,,,,,,,,,,,,,,,z,1,0.8181,,,,,,,,0,46,46,141,1
,,,,,,,,,,,,,,,,,5f1338a87447d0308e865fd0,20,2022-02-12_17h15.03.124,lexical_decision_task_DD,2021.2.3,Win32,58.910162,,,,,,,,,,,0.5578,0,,,,,,,,,,,,,,,,,,,,,,,,,-0.084635417,-0.180989583,0,0,0,,,,,,,COOKER,C,m,m,./images/COOKER.png,,,,,,,,,,,,,,,,,,,,z,0,0.5578,,,,,,,,0,47,47,69,1
,,,,,,,,,,,,,,,,,5f1338a87447d0308e865fd0,20,2022-02-12_17h15.03.124,lexical_decision_task_DD,2021.2.3,Win32,58.910162,,,,,,,,,,,1.2391,0,,,,,,,,,,,,,,,,,,,,,,,,,-0.084635417,-0.180989583,0,0,0,,,,,,,STAIN,C,z,m,./images/STAIN.png,,,,,,,,,,,,,,,,,,,,m,0,1.2391,,,,,,,,0,48,48,90,1
,,,,,,,,,,,,,,,,,5f1338a87447d0308e865fd0,20,2022-02-12_17h15.03.124,lexical_decision_task_DD,2021.2.3,Win32,58.910162,,,,,,,,,,,0.8819,1,,,,,,,,,,,,,,,,,,,,,,,,,-0.084635417,-0.180989583,0,0,0,,,,,,,ATTIC,C,m,m,./images/ATTIC.png,,,,,,,,,,,,,,,,,,,,m,1,0.8819,,,,,,,,0,49,49,27,1
,,,,,,,,,,,,,,,,,5f1338a87447d0308e865fd0,20,2022-02-12_17h15.03.124,lexical_decision_task_DD,2021.2.3,Win32,58.910162,,,,,,,,,,,1.4186,1,,,,,,,,,,,,,,,,,,,,,,,,,-0.084635417,-0.180989583,0,0,0,,,,,,,FENCE,LB,z,m,./images/FENCELB.png,,,,,,,,,,,,,,,,,,,,z,1,1.4186,,,,,,,,0,50,50,98,1
,,,,,,,,,,,,,,,,,5f1338a87447d0308e865fd0,20,2022-02-12_17h15.03.124,lexical_decision_task_DD,2021.2.3,Win32,58.910162,,,,,,,,,,,1.1901,0,,,,,,,,,,,,,,,,,,,,,,,,,-0.084635417,-0.180989583,0,0,0,,,,,,,PEARL,HB,m,m,./images/PEARLHB.png,,,,,,,,,,,,,,,,,,,,z,0,1.1901,,,,,,,,0,51,51,46,1
,,,,,,,,,,,,,,,,,5f1338a87447d0308e865fd0,20,2022-02-12_17h15.03.124,lexical_decision_task_DD,2021.2.3,Win32,58.910162,,,,,,,,,,,0.749,1,,,,,,,,,,,,,,,,,,,,,,,,,-0.084635417,-0.180989583,0,0,0,,,,,,,FLESH,C,z,m,./images/FLESH.png,,,,,,,,,,,,,,,,,,,,z,1,0.749,,,,,,,,0,52,52,108,1
,,,,,,,,,,,,,,,,,5f1338a87447d0308e865fd0,20,2022-02-12_17h15.03.124,lexical_decision_task_DD,2021.2.3,Win32,58.910162,,,,,,,,,,,0.8094,1,,,,,,,,,,,,,,,,,,,,,,,,,-0.084635417,-0.180989583,0,0,0,,,,,,,CLOTH,LB,z,m,./images/CLOTHLB.png,,,,,,,,,,,,,,,,,,,,z,1,0.8094,,,,,,,,0,53,53,107,1
,,,,,,,,,,,,,,,,,5f1338a87447d0308e865fd0,20,2022-02-12_17h15.03.124,lexical_decision_task_DD,2021.2.3,Win32,58.910162,,,,,,,,,,,1.1733,0,,,,,,,,,,,,,,,,,,,,,,,,,-0.084635417,-0.180989583,0,0,0,,,,,,,SHIELD,C,z,m,./images/SHIELD.png,,,,,,,,,,,,,,,,,,,,m,0,1.1733,,,,,,,,0,54,54,132,1
,,,,,,,,,,,,,,,,,5f1338a87447d0308e865fd0,20,2022-02-12_17h15.03.124,lexical_decision_task_DD,2021.2.3,Win32,58.910162,,,,,,,,,,,0.5439,1,,,,,,,,,,,,,,,,,,,,,,,,,-0.084635417,-0.180989583,0,0,0,,,,,,,SWEAT,C,m,m,./images/SWEAT.png,,,,,,,,,,,,,,,,,,,,m,1,0.5439,,,,,,,,0,55,55,66,1
,,,,,,,,,,,,,,,,,5f1338a87447d0308e865fd0,20,2022-02-12_17h15.03.124,lexical_decision_task_DD,2021.2.3,Win32,58.910162,,,,,,,,,,,0.9729,1,,,,,,,,,,,,,,,,,,,,,,,,,-0.084635417,-0.180989583,0,0,0,,,,,,,DONKEY,HB,z,m,./images/DONKEYHB.png,,,,,,,,,,,,,,,,,,,,z,1,0.9729,,,,,,,,0,56,56,103,1
,,,,,,,,,,,,,,,,,5f1338a87447d0308e865fd0,20,2022-02-12_17h15.03.124,lexical_decision_task_DD,2021.2.3,Win32,58.910162,,,,,,,,,,,0.6595,1,,,,,,,,,,,,,,,,,,,,,,,,,-0.084635417,-0.180989583,0,0,0,,,,,,,BAKER,C,z,m,./images/BAKER.png,,,,,,,,,,,,,,,,,,,,z,1,0.6595,,,,,,,,0,57,57,147,1
,,,,,,,,,,,,,,,,,5f1338a87447d0308e865fd0,20,2022-02-12_17h15.03.124,lexical_decision_task_DD,2021.2.3,Win32,58.910162,,,,,,,,,,,1.3063,1,,,,,,,,,,,,,,,,,,,,,,,,,-0.084635417,-0.180989583,0,0,0,,,,,,,SPORT,C,m,m,./images/SPORT.png,,,,,,,,,,,,,,,,,,,,m,1,1.3063,,,,,,,,0,58,58,48,1
,,,,,,,,,,,,,,,,,5f1338a87447d0308e865fd0,20,2022-02-12_17h15.03.124,lexical_decision_task_DD,2021.2.3,Win32,58.910162,,,,,,,,,,,0.7409,0,,,,,,,,,,,,,,,,,,,,,,,,,-0.084635417,-0.180989583,0,0,0,,,,,,,TWINS,C,m,m,./images/TWINS.png,,,,,,,,,,,,,,,,,,,,z,0,0.7409,,,,,,,,0,59,59,60,1
,,,,,,,,,,,,,,,,,5f1338a87447d0308e865fd0,20,2022-02-12_17h15.03.124,lexical_decision_task_DD,2021.2.3,Win32,58.910162,,,,,,,,,,,0.8532,1,,,,,,,,,,,,,,,,,,,,,,,,,-0.084635417,-0.180989583,0,0,0,,,,,,,STOVE,LB,z,m,./images/STOVELB.png,,,,,,,,,,,,,,,,,,,,z,1,0.8532,,,,,,,,0,60,60,86,1
,,,,,,,,,,,,,,,,,5f1338a87447d0308e865fd0,20,2022-02-12_17h15.03.124,lexical_decision_task_DD,2021.2.3,Win32,58.910162,,,,,,,,,,,1.2364,1,,,,,,,,,,,,,,,,,,,,,,,,,-0.084635417,-0.180989583,0,0,0,,,,,,,GARDEN,HB,z,m,./images/GARDENHB.png,,,,,,,,,,,,,,,,,,,,z,1,1.2364,,,,,,,,0,61,61,94,1
,,,,,,,,,,,,,,,,,5f1338a87447d0308e865fd0,20,2022-02-12_17h15.03.124,lexical_decision_task_DD,2021.2.3,Win32,58.910162,,,,,,,,,,,0.8795,0,,,,,,,,,,,,,,,,,,,,,,,,,-0.084635417,-0.180989583,0,0,0,,,,,,,LADDER,LB,m,m,./images/LADDERLB.png,,,,,,,,,,,,,,,,,,,,z,0,0.8795,,,,,,,,0,62,62,38,1
,,,,,,,,,,,,,,,,,5f1338a87447d0308e865fd0,20,2022-02-12_17h15.03.124,lexical_decision_task_DD,2021.2.3,Win32,58.910162,,,,,,,,,,,1.0474,0,,,,,,,,,,,,,,,,,,,,,,,,,-0.084635417,-0.180989583,0,0,0,,,,,,,BASKET,LB,z,m,./images/BASKETLB.png,,,,,,,,,,,,,,,,,,,,m,0,1.0474,,,,,,,,0,63,63,128,1
,,,,,,,,,,,,,,,,,5f1338a87447d0308e865fd0,20,2022-02-12_17h15.03.124,lexical_decision_task_DD,2021.2.3,Win32,58.910162,,,,,,,,,,,0.6648,1,,,,,,,,,,,,,,,,,,,,,,,,,-0.084635417,-0.180989583,0,0,0,,,,,,,TOMATO,C,m,m,./images/TOMATO.png,,,,,,,,,,,,,,,,,,,,m,1,0.6648,,,,,,,,0,64,64,0,1
,,,,,,,,,,,,,,,,,5f1338a87447d0308e865fd0,20,2022-02-12_17h15.03.124,lexical_decision_task_DD,2021.2.3,Win32,58.910162,,,,,,,,,,,0.6936,1,,,,,,,,,,,,,,,,,,,,,,,,,-0.084635417,-0.180989583,0,0,0,,,,,,,PICKLE,LB,m,m,./images/PICKLELB.png,,,,,,,,,,,,,,,,,,,,m,1,0.6936,,,,,,,,0,65,65,14,1
,,,,,,,,,,,,,,,,,5f1338a87447d0308e865fd0,20,2022-02-12_17h15.03.124,lexical_decision_task_DD,2021.2.3,Win32,58.910162,,,,,,,,,,,1.3169,1,,,,,,,,,,,,,,,,,,,,,,,,,-0.084635417,-0.180989583,0,0,0,,,,,,,BURIAL,LB,m,m,./images/BURIALLB.png,,,,,,,,,,,,,,,,,,,,m,1,1.3169,,,,,,,,0,66,66,59,1
,,,,,,,,,,,,,,,,,5f1338a87447d0308e865fd0,20,2022-02-12_17h15.03.124,lexical_decision_task_DD,2021.2.3,Win32,58.910162,,,,,,,,,,,0.8032,1,,,,,,,,,,,,,,,,,,,,,,,,,-0.084635417,-0.180989583,0,0,0,,,,,,,MELON,HB,m,m,./images/MELONHB.png,,,,,,,,,,,,,,,,,,,,m,1,0.8032,,,,,,,,0,67,67,22,1
,,,,,,,,,,,,,,,,,5f1338a87447d0308e865fd0,20,2022-02-12_17h15.03.124,lexical_decision_task_DD,2021.2.3,Win32,58.910162,,,,,,,,,,,1.0238,1,,,,,,,,,,,,,,,,,,,,,,,,,-0.084635417,-0.180989583,0,0,0,,,,,,,SUNSET,HB,m,m,./images/SUNSETHB.png,,,,,,,,,,,,,,,,,,,,m,1,1.0238,,,,,,,,0,68,68,82,1
,,,,,,,,,,,,,,,,,5f1338a87447d0308e865fd0,20,2022-02-12_17h15.03.124,lexical_decision_task_DD,2021.2.3,Win32,58.910162,,,,,,,,,,,0.9956,0,,,,,,,,,,,,,,,,,,,,,,,,,-0.084635417,-0.180989583,0,0,0,,,,,,,MUSCLE,HB,m,m,./images/MUSCLEHB.png,,,,,,,,,,,,,,,,,,,,z,0,0.9956,,,,,,,,0,69,69,4,1
,,,,,,,,,,,,,,,,,5f1338a87447d0308e865fd0,20,2022-02-12_17h15.03.124,lexical_decision_task_DD,2021.2.3,Win32,58.910162,,,,,,,,,,,1.0607,1,,,,,,,,,,,,,,,,,,,,,,,,,-0.084635417,-0.180989583,0,0,0,,,,,,,JUNGLE,LB,m,m,./images/JUNGLELB.png,,,,,,,,,,,,,,,,,,,,m,1,1.0607,,,,,,,,0,70,70,83,1
,,,,,,,,,,,,,,,,,5f1338a87447d0308e865fd0,20,2022-02-12_17h15.03.124,lexical_decision_task_DD,2021.2.3,Win32,58.910162,,,,,,,,,,,0.9977,1,,,,,,,,,,,,,,,,,,,,,,,,,-0.084635417,-0.180989583,0,0,0,,,,,,,CASINO,HB,z,m,./images/CASINOHB.png,,,,,,,,,,,,,,,,,,,,z,1,0.9977,,,,,,,,0,71,71,112,1
,,,,,,,,,,,,,,,,,5f1338a87447d0308e865fd0,20,2022-02-12_17h15.03.124,lexical_decision_task_DD,2021.2.3,Win32,58.910162,,,,,,,,,,,1.4994,0,,,,,,,,,,,,,,,,,,,,,,,,,-0.084635417,-0.180989583,0,0,0,,,,,,,CHALK,HB,z,m,./images/CHALKHB.png,,,,,,,,,,,,,,,,,,,,m,0,1.4994,,,,,,,,0,72,72,109,1
,,,,,,,,,,,,,,,,,5f1338a87447d0308e865fd0,20,2022-02-12_17h15.03.124,lexical_decision_task_DD,2021.2.3,Win32,58.910162,,,,,,,,,,,0.8634,0,,,,,,,,,,,,,,,,,,,,,,,,,-0.084635417,-0.180989583,0,0,0,,,,,,,LIZARD,LB,m,m,./images/LIZARDLB.png,,,,,,,,,,,,,,,,,,,,z,0,0.8634,,,,,,,,0,73,73,44,1
,,,,,,,,,,,,,,,,,5f1338a87447d0308e865fd0,20,2022-02-12_17h15.03.124,lexical_decision_task_DD,2021.2.3,Win32,58.910162,,,,,,,,,,,1.2832,1,,,,,,,,,,,,,,,,,,,,,,,,,-0.084635417,-0.180989583,0,0,0,,,,,,,JELLY,HB,m,m,./images/JELLYHB.png,,,,,,,,,,,,,,,,,,,,m,1,1.2832,,,,,,,,0,74,74,64,1
,,,,,,,,,,,,,,,,,5f1338a87447d0308e865fd0,20,2022-02-12_17h15.03.124,lexical_decision_task_DD,2021.2.3,Win32,58.910162,,,,,,,,,,,1.0558,1,,,,,,,,,,,,,,,,,,,,,,,,,-0.084635417,-0.180989583,0,0,0,,,,,,,CURRY,C,z,m,./images/CURRY.png,,,,,,,,,,,,,,,,,,,,z,1,1.0558,,,,,,,,0,75,75,144,1
,,,,,,,,,,,,,,,,,5f1338a87447d0308e865fd0,20,2022-02-12_17h15.03.124,lexical_decision_task_DD,2021.2.3,Win32,58.910162,,,,,,,,,,,1.1759,0,,,,,,,,,,,,,,,,,,,,,,,,,-0.084635417,-0.180989583,0,0,0,,,,,,,SWING,HB,m,m,./images/SWINGHB.png,,,,,,,,,,,,,,,,,,,,z,0,1.1759,,,,,,,,0,76,76,40,1
,,,,,,,,,,,,,,,,,5f1338a87447d0308e865fd0,20,2022-02-12_17h15.03.124,lexical_decision_task_DD,2021.2.3,Win32,58.910162,,,,,,,,,,,1.3048,1,,,,,,,,,,,,,,,,,,,,,,,,,-0.084635417,-0.180989583,0,0,0,,,,,,,MUMMY,HB,z,m,./images/MUMMYHB.png,,,,,,,,,,,,,,,,,,,,z,1,1.3048,,,,,,,,0,77,77,130,1
,,,,,,,,,,,,,,,,,5f1338a87447d0308e865fd0,20,2022-02-12_17h15.03.124,lexical_decision_task_DD,2021.2.3,Win32,58.910162,,,,,,,,,,,1.0162,1,,,,,,,,,,,,,,,,,,,,,,,,,-0.084635417,-0.180989583,0,0,0,,,,,,,FALCON,HB,m,m,./images/FALCONHB.png,,,,,,,,,,,,,,,,,,,,m,1,1.0162,,,,,,,,0,78,78,28,1
,,,,,,,,,,,,,,,,,5f1338a87447d0308e865fd0,20,2022-02-12_17h15.03.124,lexical_decision_task_DD,2021.2.3,Win32,58.910162,,,,,,,,,,,0.8151,1,,,,,,,,,,,,,,,,,,,,,,,,,-0.084635417,-0.180989583,0,0,0,,,,,,,GRAPE,HB,z,m,./images/GRAPEHB.png,,,,,,,,,,,,,,,,,,,,z,1,0.8151,,,,,,,,0,79,79,100,1
,,,,,,,,,,,,,,,,,5f1338a87447d0308e865fd0,20,2022-02-12_17h15.03.124,lexical_decision_task_DD,2021.2.3,Win32,58.910162,,,,,,,,,,,0.7693,1,,,,,,,,,,,,,,,,,,,,,,,,,-0.084635417,-0.180989583,0,0,0,,,,,,,TRIPOD,C,m,m,./images/TRIPOD.png,,,,,,,,,,,,,,,,,,,,m,1,0.7693,,,,,,,,0,80,80,54,1
,,,,,,,,,,,,,,,,,5f1338a87447d0308e865fd0,20,2022-02-12_17h15.03.124,lexical_decision_task_DD,2021.2.3,Win32,58.910162,,,,,,,,,,,0.969,1,,,,,,,,,,,,,,,,,,,,,,,,,-0.084635417,-0.180989583,0,0,0,,,,,,,CHERRY,C,z,m,./images/CHERRY.png,,,,,,,,,,,,,,,,,,,,z,1,0.969,,,,,,,,0,81,81,138,1
,,,,,,,,,,,,,,,,,5f1338a87447d0308e865fd0,20,2022-02-12_17h15.03.124,lexical_decision_task_DD,2021.2.3,Win32,58.910162,,,,,,,,,,,1.3817,1,,,,,,,,,,,,,,,,,,,,,,,,,-0.084635417,-0.180989583,0,0,0,,,,,,,BANANA,HB,z,m,./images/BANANAHB.png,,,,,,,,,,,,,,,,,,,,z,1,1.3817,,,,,,,,0,82,82,154,1
,,,,,,,,,,,,,,,,,5f1338a87447d0308e865fd0,20,2022-02-12_17h15.03.124,lexical_decision_task_DD,2021.2.3,Win32,58.910162,,,,,,,,,,,0.7665,1,,,,,,,,,,,,,,,,,,,,,,,,,-0.084635417,-0.180989583,0,0,0,space,,,,,,POODLE,C,m,m,./images/POODLE.png,1.1691,,,,,,,,,,,,,,,,,,,m,1,0.7665,,,,,,,,0,83,83,81,1
,,,,,,,,,,,,,,,,,5f1338a87447d0308e865fd0,20,2022-02-12_17h15.03.124,lexical_decision_task_DD,2021.2.3,Win32,58.910162,,,,,,,,,,,0.8521,1,,,,,,,,,,,,,,,,,,,,,,,,,-0.084635417,-0.180989583,0,0,0,,,,,,,WALNUT,C,z,m,./images/WALNUT.png,,,,,,,,,,,,,,,,,,,,z,1,0.8521,,,,,,,,0,84,84,84,1
,,,,,,,,,,,,,,,,,5f1338a87447d0308e865fd0,20,2022-02-12_17h15.03.124,lexical_decision_task_DD,2021.2.3,Win32,58.910162,,,,,,,,,,,0.5054,1,,,,,,,,,,,,,,,,,,,,,,,,,-0.084635417,-0.180989583,0,0,0,,,,,,,WAGON,HB,z,m,./images/WAGONHB.png,,,,,,,,,,,,,,,,,,,,z,1,0.5054,,,,,,,,0,85,85,91,1
,,,,,,,,,,,,,,,,,5f1338a87447d0308e865fd0,20,2022-02-12_17h15.03.124,lexical_decision_task_DD,2021.2.3,Win32,58.910162,,,,,,,,,,,0.9043,1,,,,,,,,,,,,,,,,,,,,,,,,,-0.084635417,-0.180989583,0,0,0,,,,,,,SMOKER,LB,m,m,./images/SMOKERLB.png,,,,,,,,,,,,,,,,,,,,m,1,0.9043,,,,,,,,0,86,86,26,1
,,,,,,,,,,,,,,,,,5f1338a87447d0308e865fd0,20,2022-02-12_17h15.03.124,lexical_decision_task_DD,2021.2.3,Win32,58.910162,,,,,,,,,,,1.0567,1,,,,,,,,,,,,,,,,,,,,,,,,,-0.084635417,-0.180989583,0,0,0,,,,,,,CANOE,HB,z,m,./images/CANOEHB.png,,,,,,,,,,,,,,,,,,,,z,1,1.0567,,,,,,,,0,87,87,142,1
,,,,,,,,,,,,,,,,,5f1338a87447d0308e865fd0,20,2022-02-12_17h15.03.124,lexical_decision_task_DD,2021.2.3,Win32,58.910162,,,,,,,,,,,1.0236,1,,,,,,,,,,,,,,,,,,,,,,,,,-0.084635417,-0.180989583,0,0,0,,,,,,,DESERT,HB,z,m,./images/DESERTHB.png,,,,,,,,,,,,,,,,,,,,z,1,1.0236,,,,,,,,0,88,88,136,1
,,,,,,,,,,,,,,,,,5f1338a87447d0308e865fd0,20,2022-02-12_17h15.03.124,lexical_decision_task_DD,2021.2.3,Win32,58.910162,,,,,,,,,,,0.9152,1,,,,,,,,,,,,,,,,,,,,,,,,,-0.084635417,-0.180989583,0,0,0,,,,,,,POSTER,LB,z,m,./images/POSTERLB.png,,,,,,,,,,,,,,,,,,,,z,1,0.9152,,,,,,,,0,89,89,137,1
,,,,,,,,,,,,,,,,,5f1338a87447d0308e865fd0,20,2022-02-12_17h15.03.124,lexical_decision_task_DD,2021.2.3,Win32,58.910162,,,,,,,,,,,1.9379,1,,,,,,,,,,,,,,,,,,,,,,,,,-0.084635417,-0.180989583,0,0,0,,,,,,,WRIST,HB,m,m,./images/WRISTHB.png,,,,,,,,,,,,,,,,,,,,m,1,1.9379,,,,,,,,0,90,90,25,1
,,,,,,,,,,,,,,,,,5f1338a87447d0308e865fd0,20,2022-02-12_17h15.03.124,lexical_decision_task_DD,2021.2.3,Win32,58.910162,,,,,,,,,,,1.3292,1,,,,,,,,,,,,,,,,,,,,,,,,,-0.084635417,-0.180989583,0,0,0,,,,,,,GREASE,C,m,m,./images/GREASE.png,,,,,,,,,,,,,,,,,,,,m,1,1.3292,,,,,,,,0,91,91,15,1
,,,,,,,,,,,,,,,,,5f1338a87447d0308e865fd0,20,2022-02-12_17h15.03.124,lexical_decision_task_DD,2021.2.3,Win32,58.910162,,,,,,,,,,,0.9693,1,,,,,,,,,,,,,,,,,,,,,,,,,-0.084635417,-0.180989583,0,0,0,,,,,,,LITTER,C,m,m,./images/LITTER.png,,,,,,,,,,,,,,,,,,,,m,1,0.9693,,,,,,,,0,92,92,78,1
,,,,,,,,,,,,,,,,,5f1338a87447d0308e865fd0,20,2022-02-12_17h15.03.124,lexical_decision_task_DD,2021.2.3,Win32,58.910162,,,,,,,,,,,1.8534,0,,,,,,,,,,,,,,,,,,,,,,,,,-0.084635417,-0.180989583,0,0,0,,,,,,,BUTTER,C,z,m,./images/BUTTER.png,,,,,,,,,,,,,,,,,,,,m,0,1.8534,,,,,,,,0,93,93,111,1
,,,,,,,,,,,,,,,,,5f1338a87447d0308e865fd0,20,2022-02-12_17h15.03.124,lexical_decision_task_DD,2021.2.3,Win32,58.910162,,,,,,,,,,,1.4288,0,,,,,,,,,,,,,,,,,,,,,,,,,-0.084635417,-0.180989583,0,0,0,,,,,,,RHINO,C,m,m,./images/RHINO.png,,,,,,,,,,,,,,,,,,,,z,0,1.4288,,,,,,,,0,94,94,9,1
,,,,,,,,,,,,,,,,,5f1338a87447d0308e865fd0,20,2022-02-12_17h15.03.124,lexical_decision_task_DD,2021.2.3,Win32,58.910162,,,,,,,,,,,1.018,1,,,,,,,,,,,,,,,,,,,,,,,,,-0.084635417,-0.180989583,0,0,0,,,,,,,KITTEN,C,m,m,./images/KITTEN.png,,,,,,,,,,,,,,,,,,,,m,1,1.018,,,,,,,,0,95,95,45,1
,,,,,,,,,,,,,,,,,5f1338a87447d0308e865fd0,20,2022-02-12_17h15.03.124,lexical_decision_task_DD,2021.2.3,Win32,58.910162,,,,,,,,,,,1.069,1,,,,,,,,,,,,,,,,,,,,,,,,,-0.084635417,-0.180989583,0,0,0,,,,,,,BIRTH,HB,m,m,./images/BIRTHHB.png,,,,,,,,,,,,,,,,,,,,m,1,1.069,,,,,,,,0,96,96,37,1
,,,,,,,,,,,,,,,,,5f1338a87447d0308e865fd0,20,2022-02-12_17h15.03.124,lexical_decision_task_DD,2021.2.3,Win32,58.910162,,,,,,,,,,,0.8877,1,,,,,,,,,,,,,,,,,,,,,,,,,-0.084635417,-0.180989583,0,0,0,,,,,,,DIVER,C,z,m,./images/DIVER.png,,,,,,,,,,,,,,,,,,,,z,1,0.8877,,,,,,,,0,97,97,93,1
,,,,,,,,,,,,,,,,,5f1338a87447d0308e865fd0,20,2022-02-12_17h15.03.124,lexical_decision_task_DD,2021.2.3,Win32,58.910162,,,,,,,,,,,1.5018,1,,,,,,,,,,,,,,,,,,,,,,,,,-0.084635417,-0.180989583,0,0,0,,,,,,,COUCH,LB,m,m,./images/COUCHLB.png,,,,,,,,,,,,,,,,,,,,m,1,1.5018,,,,,,,,0,98,98,77,1
,,,,,,,,,,,,,,,,,5f1338a87447d0308e865fd0,20,2022-02-12_17h15.03.124,lexical_decision_task_DD,2021.2.3,Win32,58.910162,,,,,,,,,,,0.653,1,,,,,,,,,,,,,,,,,,,,,,,,,-0.084635417,-0.180989583,0,0,0,,,,,,,PEBBLE,HB,z,m,./images/PEBBLEHB.png,,,,,,,,,,,,,,,,,,,,z,1,0.653,,,,,,,,0,99,99,166,1
,,,,,,,,,,,,,,,,,5f1338a87447d0308e865fd0,20,2022-02-12_17h15.03.124,lexical_decision_task_DD,2021.2.3,Win32,58.910162,,,,,,,,,,,0.633,1,,,,,,,,,,,,,,,,,,,,,,,,,-0.084635417,-0.180989583,0,0,0,,,,,,,ARROW,C,z,m,./images/ARROW.png,,,,,,,,,,,,,,,,,,,,z,1,0.633,,,,,,,,0,100,100,153,1
,,,,,,,,,,,,,,,,,5f1338a87447d0308e865fd0,20,2022-02-12_17h15.03.124,lexical_decision_task_DD,2021.2.3,Win32,58.910162,,,,,,,,,,,0.5339,1,,,,,,,,,,,,,,,,,,,,,,,,,-0.084635417,-0.180989583,0,0,0,,,,,,,SAUCE,C,z,m,./images/SAUCE.png,,,,,,,,,,,,,,,,,,,,z,1,0.5339,,,,,,,,0,101,101,135,1
,,,,,,,,,,,,,,,,,5f1338a87447d0308e865fd0,20,2022-02-12_17h15.03.124,lexical_decision_task_DD,2021.2.3,Win32,58.910162,,,,,,,,,,,1.0519,1,,,,,,,,,,,,,,,,,,,,,,,,,-0.084635417,-0.180989583,0,0,0,,,,,,,DRILL,C,z,m,./images/DRILL.png,,,,,,,,,,,,,,,,,,,,z,1,1.0519,,,,,,,,0,102,102,165,1
,,,,,,,,,,,,,,,,,5f1338a87447d0308e865fd0,20,2022-02-12_17h15.03.124,lexical_decision_task_DD,2021.2.3,Win32,58.910162,,,,,,,,,,,0.9851,1,,,,,,,,,,,,,,,,,,,,,,,,,-0.084635417,-0.180989583,0,0,0,,,,,,,BUBBLE,LB,z,m,./images/BUBBLELB.png,,,,,,,,,,,,,,,,,,,,z,1,0.9851,,,,,,,,0,103,103,155,1
,,,,,,,,,,,,,,,,,5f1338a87447d0308e865fd0,20,2022-02-12_17h15.03.124,lexical_decision_task_DD,2021.2.3,Win32,58.910162,,,,,,,,,,,1.238,0,,,,,,,,,,,,,,,,,,,,,,,,,-0.084635417,-0.180989583,0,0,0,,,,,,,FINGER,C,m,m,./images/FINGER.png,,,,,,,,,,,,,,,,,,,,z,0,1.238,,,,,,,,0,104,104,3,1
,,,,,,,,,,,,,,,,,5f1338a87447d0308e865fd0,20,2022-02-12_17h15.03.124,lexical_decision_task_DD,2021.2.3,Win32,58.910162,,,,,,,,,,,0.6756,1,,,,,,,,,,,,,,,,,,,,,,,,,-0.084635417,-0.180989583,0,0,0,,,,,,,BONNET,LB,m,m,./images/BONNETLB.png,,,,,,,,,,,,,,,,,,,,m,1,0.6756,,,,,,,,0,105,105,11,1
,,,,,,,,,,,,,,,,,5f1338a87447d0308e865fd0,20,2022-02-12_17h15.03.124,lexical_decision_task_DD,2021.2.3,Win32,58.910162,,,,,,,,,,,0.8996,0,,,,,,,,,,,,,,,,,,,,,,,,,-0.084635417,-0.180989583,0,0,0,,,,,,,CLOUD,LB,z,m,./images/CLOUDLB.png,,,,,,,,,,,,,,,,,,,,m,0,0.8996,,,,,,,,0,106,106,110,1
,,,,,,,,,,,,,,,,,5f1338a87447d0308e865fd0,20,2022-02-12_17h15.03.124,lexical_decision_task_DD,2021.2.3,Win32,58.910162,,,,,,,,,,,0.6701,1,,,,,,,,,,,,,,,,,,,,,,,,,-0.084635417,-0.180989583,0,0,0,,,,,,,TORCH,LB,m,m,./images/TORCHLB.png,,,,,,,,,,,,,,,,,,,,m,1,0.6701,,,,,,,,0,107,107,68,1
,,,,,,,,,,,,,,,,,5f1338a87447d0308e865fd0,20,2022-02-12_17h15.03.124,lexical_decision_task_DD,2021.2.3,Win32,58.910162,,,,,,,,,,,0.9453,0,,,,,,,,,,,,,,,,,,,,,,,,,-0.084635417,-0.180989583,0,0,0,,,,,,,PURSE,LB,m,m,./images/PURSELB.png,,,,,,,,,,,,,,,,,,,,z,0,0.9453,,,,,,,,0,108,108,62,1
,,,,,,,,,,,,,,,,,5f1338a87447d0308e865fd0,20,2022-02-12_17h15.03.124,lexical_decision_task_DD,2021.2.3,Win32,58.910162,,,,,,,,,,,0.935,1,,,,,,,,,,,,,,,,,,,,,,,,,-0.084635417,-0.180989583,0,0,0,,,,,,,NOOSE,C,m,m,./images/NOOSE.png,,,,,,,,,,,,,,,,,,,,m,1,0.935,,,,,,,,0,109,109,72,1
,,,,,,,,,,,,,,,,,5f1338a87447d0308e865fd0,20,2022-02-12_17h15.03.124,lexical_decision_task_DD,2021.2.3,Win32,58.910162,,,,,,,,,,,0.661,1,,,,,,,,,,,,,,,,,,,,,,,,,-0.084635417,-0.180989583,0,0,0,,,,,,,SAILOR,HB,m,m,./images/SAILORHB.png,,,,,,,,,,,,,,,,,,,,m,1,0.661,,,,,,,,0,110,110,67,1
,,,,,,,,,,,,,,,,,5f1338a87447d0308e865fd0,20,2022-02-12_17h15.03.124,lexical_decision_task_DD,2021.2.3,Win32,58.910162,,,,,,,,,,,1.1021,1,,,,,,,,,,,,,,,,,,,,,,,,,-0.084635417,-0.180989583,0,0,0,,,,,,,PARCEL,C,z,m,./images/PARCEL.png,,,,,,,,,,,,,,,,,,,,z,1,1.1021,,,,,,,,0,111,111,102,1
,,,,,,,,,,,,,,,,,5f1338a87447d0308e865fd0,20,2022-02-12_17h15.03.124,lexical_decision_task_DD,2021.2.3,Win32,58.910162,,,,,,,,,,,0.8471,0,,,,,,,,,,,,,,,,,,,,,,,,,-0.084635417,-0.180989583,0,0,0,,,,,,,BABOON,HB,m,m,./images/BABOONHB.png,,,,,,,,,,,,,,,,,,,,z,0,0.8471,,,,,,,,0,112,112,58,1
,,,,,,,,,,,,,,,,,5f1338a87447d0308e865fd0,20,2022-02-12_17h15.03.124,lexical_decision_task_DD,2021.2.3,Win32,58.910162,,,,,,,,,,,0.8841,1,,,,,,,,,,,,,,,,,,,,,,,,,-0.084635417,-0.180989583,0,0,0,,,,,,,BUNNY,HB,z,m,./images/BUNNYHB.png,,,,,,,,,,,,,,,,,,,,z,1,0.8841,,,,,,,,0,113,113,97,1
,,,,,,,,,,,,,,,,,5f1338a87447d0308e865fd0,20,2022-02-12_17h15.03.124,lexical_decision_task_DD,2021.2.3,Win32,58.910162,,,,,,,,,,,0.9864,0,,,,,,,,,,,,,,,,,,,,,,,,,-0.084635417,-0.180989583,0,0,0,,,,,,,SHORE,C,m,m,./images/SHORE.png,,,,,,,,,,,,,,,,,,,,z,0,0.9864,,,,,,,,0,114,114,12,1
,,,,,,,,,,,,,,,,,5f1338a87447d0308e865fd0,20,2022-02-12_17h15.03.124,lexical_decision_task_DD,2021.2.3,Win32,58.910162,,,,,,,,,,,0.6058,0,,,,,,,,,,,,,,,,,,,,,,,,,-0.084635417,-0.180989583,0,0,0,,,,,,,PAINT,HB,m,m,./images/PAINTHB.png,,,,,,,,,,,,,,,,,,,,z,0,0.6058,,,,,,,,0,115,115,7,1
,,,,,,,,,,,,,,,,,5f1338a87447d0308e865fd0,20,2022-02-12_17h15.03.124,lexical_decision_task_DD,2021.2.3,Win32,58.910162,,,,,,,,,,,1.5879,1,,,,,,,,,,,,,,,,,,,,,,,,,-0.084635417,-0.180989583,0,0,0,,,,,,,DOUGH,HB,m,m,./images/DOUGHHB.png,,,,,,,,,,,,,,,,,,,,m,1,1.5879,,,,,,,,0,116,116,19,1
,,,,,,,,,,,,,,,,,5f1338a87447d0308e865fd0,20,2022-02-12_17h15.03.124,lexical_decision_task_DD,2021.2.3,Win32,58.910162,,,,,,,,,,,0.8735,0,,,,,,,,,,,,,,,,,,,,,,,,,-0.084635417,-0.180989583,0,0,0,,,,,,,BAMBOO,LB,z,m,./images/BAMBOOLB.png,,,,,,,,,,,,,,,,,,,,m,0,0.8735,,,,,,,,0,117,117,89,1
,,,,,,,,,,,,,,,,,5f1338a87447d0308e865fd0,20,2022-02-12_17h15.03.124,lexical_decision_task_DD,2021.2.3,Win32,58.910162,,,,,,,,,,,0.9285,0,,,,,,,,,,,,,,,,,,,,,,,,,-0.084635417,-0.180989583,0,0,0,,,,,,,MOOSE,C,m,m,./images/MOOSE.png,,,,,,,,,,,,,,,,,,,,z,0,0.9285,,,,,,,,0,118,118,57,1
,,,,,,,,,,,,,,,,,5f1338a87447d0308e865fd0,20,2022-02-12_17h15.03.124,lexical_decision_task_DD,2021.2.3,Win32,58.910162,,,,,,,,,,,1.9063,1,,,,,,,,,,,,,,,,,,,,,,,,,-0.084635417,-0.180989583,0,0,0,,,,,,,DANCER,C,z,m,./images/DANCER.png,,,,,,,,,,,,,,,,,,,,z,1,1.9063,,,,,,,,0,119,119,105,1
,,,,,,,,,,,,,,,,,5f1338a87447d0308e865fd0,20,2022-02-12_17h15.03.124,lexical_decision_task_DD,2021.2.3,Win32,58.910162,,,,,,,,,,,0.7686,1,,,,,,,,,,,,,,,,,,,,,,,,,-0.084635417,-0.180989583,0,0,0,,,,,,,STATUE,C,z,m,./images/STATUE.png,,,,,,,,,,,,,,,,,,,,z,1,0.7686,,,,,,,,0,120,120,150,1
,,,,,,,,,,,,,,,,,5f1338a87447d0308e865fd0,20,2022-02-12_17h15.03.124,lexical_decision_task_DD,2021.2.3,Win32,58.910162,,,,,,,,,,,0.9221,1,,,,,,,,,,,,,,,,,,,,,,,,,-0.084635417,-0.180989583,0,0,0,,,,,,,HEATER,LB,z,m,./images/HEATERLB.png,,,,,,,,,,,,,,,,,,,,z,1,0.9221,,,,,,,,0,121,121,140,1
,,,,,,,,,,,,,,,,,5f1338a87447d0308e865fd0,20,2022-02-12_17h15.03.124,lexical_decision_task_DD,2021.2.3,Win32,58.910162,,,,,,,,,,,0.9425,0,,,,,,,,,,,,,,,,,,,,,,,,,-0.084635417,-0.180989583,0,0,0,,,,,,,CLIFF,LB,z,m,./images/CLIFFLB.png,,,,,,,,,,,,,,,,,,,,m,0,0.9425,,,,,,,,0,122,122,92,1
,,,,,,,,,,,,,,,,,5f1338a87447d0308e865fd0,20,2022-02-12_17h15.03.124,lexical_decision_task_DD,2021.2.3,Win32,58.910162,,,,,,,,,,,1.0517,0,,,,,,,,,,,,,,,,,,,,,,,,,-0.084635417,-0.180989583,0,0,0,,,,,,,PIMPLE,LB,m,m,./images/PIMPLELB.png,,,,,,,,,,,,,,,,,,,,z,0,1.0517,,,,,,,,0,123,123,71,1
,,,,,,,,,,,,,,,,,5f1338a87447d0308e865fd0,20,2022-02-12_17h15.03.124,lexical_decision_task_DD,2021.2.3,Win32,58.910162,,,,,,,,,,,0.688,1,,,,,,,,,,,,,,,,,,,,,,,,,-0.084635417,-0.180989583,0,0,0,,,,,,,PARADE,LB,z,m,./images/PARADELB.png,,,,,,,,,,,,,,,,,,,,z,1,0.688,,,,,,,,0,124,124,101,1
,,,,,,,,,,,,,,,,,5f1338a87447d0308e865fd0,20,2022-02-12_17h15.03.124,lexical_decision_task_DD,2021.2.3,Win32,58.910162,,,,,,,,,,,0.9209,1,,,,,,,,,,,,,,,,,,,,,,,,,-0.084635417,-0.180989583,0,0,0,space,,,,,,STOOL,HB,z,m,./images/STOOLHB.png,1.3127,,,,,,,,,,,,,,,,,,,z,1,0.9209,,,,,,,,0,125,125,127,1
,,,,,,,,,,,,,,,,,5f1338a87447d0308e865fd0,20,2022-02-12_17h15.03.124,lexical_decision_task_DD,2021.2.3,Win32,58.910162,,,,,,,,,,,0.6465,1,,,,,,,,,,,,,,,,,,,,,,,,,-0.084635417,-0.180989583,0,0,0,,,,,,,CEMENT,LB,m,m,./images/CEMENTLB.png,,,,,,,,,,,,,,,,,,,,m,1,0.6465,,,,,,,,0,126,126,74,1
,,,,,,,,,,,,,,,,,5f1338a87447d0308e865fd0,20,2022-02-12_17h15.03.124,lexical_decision_task_DD,2021.2.3,Win32,58.910162,,,,,,,,,,,0.6249,1,,,,,,,,,,,,,,,,,,,,,,,,,-0.084635417,-0.180989583,0,0,0,,,,,,,RAZOR,HB,z,m,./images/RAZORHB.png,,,,,,,,,,,,,,,,,,,,z,1,0.6249,,,,,,,,0,127,127,118,1
,,,,,,,,,,,,,,,,,5f1338a87447d0308e865fd0,20,2022-02-12_17h15.03.124,lexical_decision_task_DD,2021.2.3,Win32,58.910162,,,,,,,,,,,0.6946,1,,,,,,,,,,,,,,,,,,,,,,,,,-0.084635417,-0.180989583,0,0,0,,,,,,,JAGUAR,C,m,m,./images/JAGUAR.png,,,,,,,,,,,,,,,,,,,,m,1,0.6946,,,,,,,,0,128,128,18,1
,,,,,,,,,,,,,,,,,5f1338a87447d0308e865fd0,20,2022-02-12_17h15.03.124,lexical_decision_task_DD,2021.2.3,Win32,58.910162,,,,,,,,,,,1.2807,0,,,,,,,,,,,,,,,,,,,,,,,,,-0.084635417,-0.180989583,0,0,0,,,,,,,CANDY,C,z,m,./images/CANDY.png,,,,,,,,,,,,,,,,,,,,m,0,1.2807,,,,,,,,0,129,129,123,1
,,,,,,,,,,,,,,,,,5f1338a87447d0308e865fd0,20,2022-02-12_17h15.03.124,lexical_decision_task_DD,2021.2.3,Win32,58.910162,,,,,,,,,,,0.7511,1,,,,,,,,,,,,,,,,,,,,,,,,,-0.084635417,-0.180989583,0,0,0,,,,,,,ARTIST,HB,z,m,./images/ARTISTHB.png,,,,,,,,,,,,,,,,,,,,z,1,0.7511,,,,,,,,0,130,130,145,1
,,,,,,,,,,,,,,,,,5f1338a87447d0308e865fd0,20,2022-02-12_17h15.03.124,lexical_decision_task_DD,2021.2.3,Win32,58.910162,,,,,,,,,,,1.0459,0,,,,,,,,,,,,,,,,,,,,,,,,,-0.084635417,-0.180989583,0,0,0,,,,,,,SCREW,C,m,m,./images/SCREW.png,,,,,,,,,,,,,,,,,,,,z,0,1.0459,,,,,,,,0,131,131,24,1
,,,,,,,,,,,,,,,,,5f1338a87447d0308e865fd0,20,2022-02-12_17h15.03.124,lexical_decision_task_DD,2021.2.3,Win32,58.910162,,,,,,,,,,,1.0347,1,,,,,,,,,,,,,,,,,,,,,,,,,-0.084635417,-0.180989583,0,0,0,,,,,,,MOTOR,HB,m,m,./images/MOTORHB.png,,,,,,,,,,,,,,,,,,,,m,1,1.0347,,,,,,,,0,132,132,13,1
,,,,,,,,,,,,,,,,,5f1338a87447d0308e865fd0,20,2022-02-12_17h15.03.124,lexical_decision_task_DD,2021.2.3,Win32,58.910162,,,,,,,,,,,0.8449,1,,,,,,,,,,,,,,,,,,,,,,,,,-0.084635417,-0.180989583,0,0,0,,,,,,,WALRUS,LB,m,m,./images/WALRUSLB.png,,,,,,,,,,,,,,,,,,,,m,1,0.8449,,,,,,,,0,133,133,23,1
,,,,,,,,,,,,,,,,,5f1338a87447d0308e865fd0,20,2022-02-12_17h15.03.124,lexical_decision_task_DD,2021.2.3,Win32,58.910162,,,,,,,,,,,0.9816,1,,,,,,,,,,,,,,,,,,,,,,,,,-0.084635417,-0.180989583,0,0,0,,,,,,,PLANET,LB,z,m,./images/PLANETLB.png,,,,,,,,,,,,,,,,,,,,z,1,0.9816,,,,,,,,0,134,134,164,1
,,,,,,,,,,,,,,,,,5f1338a87447d0308e865fd0,20,2022-02-12_17h15.03.124,lexical_decision_task_DD,2021.2.3,Win32,58.910162,,,,,,,,,,,0.7425,1,,,,,,,,,,,,,,,,,,,,,,,,,-0.084635417,-0.180989583,0,0,0,,,,,,,FARMER,LB,m,m,./images/FARMERLB.png,,,,,,,,,,,,,,,,,,,,m,1,0.7425,,,,,,,,0,135,135,65,1
,,,,,,,,,,,,,,,,,5f1338a87447d0308e865fd0,20,2022-02-12_17h15.03.124,lexical_decision_task_DD,2021.2.3,Win32,58.910162,,,,,,,,,,,1.2088,1,,,,,,,,,,,,,,,,,,,,,,,,,-0.084635417,-0.180989583,0,0,0,,,,,,,GRAIN,C,m,m,./images/GRAIN.png,,,,,,,,,,,,,,,,,,,,m,1,1.2088,,,,,,,,0,136,136,75,1
,,,,,,,,,,,,,,,,,5f1338a87447d0308e865fd0,20,2022-02-12_17h15.03.124,lexical_decision_task_DD,2021.2.3,Win32,58.910162,,,,,,,,,,,1.0551,0,,,,,,,,,,,,,,,,,,,,,,,,,-0.084635417,-0.180989583,0,0,0,,,,,,,WEASEL,LB,m,m,./images/WEASELLB.png,,,,,,,,,,,,,,,,,,,,z,0,1.0551,,,,,,,,0,137,137,80,1
