key_resp.keys,key_resp.rt,instr_done_touch.x,instr_done_touch.y,instr_done_touch.leftButton,instr_done_touch.midButton,instr_done_touch.rightButton,instruction_pages.thisRepN,instruction_pages.thisTrialN,instruction_pages.thisN,instruction_pages.thisIndex,instruction_pages.ran,pageN,phase,instruct_text,has_image,instruct_image,participant,age,date,expName,psychopyVersion,OS,frameRate,response.keys,response.corr,response.rt,touch_resp.x,touch_resp.y,touch_resp.leftButton,touch_resp.midButton,touch_resp.rightButton,touch_resp.time,touch_resp.clicked_name,rt,corr,practrials.thisRepN,practrials.thisTrialN,practrials.thisN,practrials.thisIndex,practrials.ran,TrialID,Target,corrAns,end_of_practice_trials_pages.thisRepN,end_of_practice_trials_pages.thisTrialN,end_of_practice_trials_pages.thisN,end_of_practice_trials_pages.thisIndex,end_of_practice_trials_pages.ran,key_resp_2.keys,key_resp_2.corr,key_resp_2.rt,targ_click.x,targ_click.y,targ_click.leftButton,targ_click.midButton,targ_click.rightButton,targ_click.time,targ_click.clicked_name,break_done_touch.x,break_done_touch.y,break_done_touch.leftButton,break_done_touch.midButton,break_done_touch.rightButton,break_done_keyboard.keys,maintrials.thisRepN,maintrials.thisTrialN,maintrials.thisN,maintrials.thisIndex,maintrials.ran,string,blur,study,lex,stim_path,break_done_keyboard.rt,mouse_2.x,mouse_2.y,mouse_2.leftButton,mouse_2.midButton,mouse_2.rightButton,mouse_2.clicked_name,slider.response,slider.rt,trials.thisRepN,trials.thisTrialN,trials.thisN,trials.thisIndex,trials.ran,instr_done_touch.clicked_name,test_instructions.thisRepN,test_instructions.thisTrialN,test_instructions.thisN,test_instructions.thisIndex,test_instructions.ran,key_resp_3.keys,key_resp_3.corr,key_resp_3.rt,test_click.x,test_click.y,test_click.leftButton,test_click.midButton,test_click.rightButton,test_click.time,test_click.clicked_name,test_phase.thisRepN,test_phase.thisTrialN,test_phase.thisN,test_phase.thisIndex,test_phase.ran
space,24.101,-0.276851852,-0.22962963,0,0,0,0,0,0,0,1,1,instructions,"INSTRUCTIONS
At the start of each trial, look at the plus sign  (+) in the center of the screen.  This tells you that a trial is about to begin and where to look. Second, the plus sign will disappear and a string of letters will appear. Your task is to determine if the string of letters is a word or not. If the item is a word press the M key (on keyboard)  or touch the word button (phone/tablet).  If the item is not a word,  press the  Z key (on keyboard)  or touch the nonword button (on phone/tablet). 
Press the space bar or touch  continue.",0,,5f1b71d5ea92af36dae6b31c,25,2022-02-12_16h50.37.944,lexical_decision_task_DD_L4,2021.2.3,Win32,124.7816321,,,,,,,,,,,,,,,,,,,,,,,,,,,,,,,,,,,,,,,,,,,,,,,,,,,,,,,,,,,,,,,,,,,,,,,,,,,,,,,,,,,,,,
space,9.4757,-0.276851852,-0.22962963,0,0,0,0,1,1,1,1,2,instructions,"If your device has a keyboard, press the 'Z' key for nonwords and the 'M' key for words.





Press the space bar or touch the button below to continue.",0,keyboard-example.gif,5f1b71d5ea92af36dae6b31c,25,2022-02-12_16h50.37.944,lexical_decision_task_DD_L4,2021.2.3,Win32,124.7816321,,,,,,,,,,,,,,,,,,,,,,,,,,,,,,,,,,,,,,,,,,,,,,,,,,,,,,,,,,,,,,,,,,,,,,,,,,,,,,,,,,,,,,
space,2.3482,-0.276851852,-0.22962963,0,0,0,0,2,2,2,1,3,instructions,"If you are using a touchscreen only device, use the buttons on the screen. Do not use the mouse.





Press the space bar or touch the button below to continue.",0,touchscreen-example.gif,5f1b71d5ea92af36dae6b31c,25,2022-02-12_16h50.37.944,lexical_decision_task_DD_L4,2021.2.3,Win32,124.7816321,,,,,,,,,,,,,,,,,,,,,,,,,,,,,,,,,,,,,,,,,,,,,,,,,,,,,,,,,,,,,,,,,,,,,,,,,,,,,,,,,,,,,,
space,13.0931,-0.276851852,-0.22962963,0,0,0,0,3,3,3,1,4,instructions,"It is very important that you respond as quickly and accurately as possible, as each letter string will only be on the screen for two seconds. If you do not respond within this time, the message 'Too slow!' will be displayed and the experiment will progress to the next letter string. The first 20 trials will be practice trials and you will receive feedback on your answers. 

Press the space bar or touch the button below to start the practice trials.",0,,5f1b71d5ea92af36dae6b31c,25,2022-02-12_16h50.37.944,lexical_decision_task_DD_L4,2021.2.3,Win32,124.7816321,,,,,,,,,,,,,,,,,,,,,,,,,,,,,,,,,,,,,,,,,,,,,,,,,,,,,,,,,,,,,,,,,,,,,,,,,,,,,,,,,,,,,,
,,,,,,,,,,,,,,,,,5f1b71d5ea92af36dae6b31c,25,2022-02-12_16h50.37.944,lexical_decision_task_DD_L4,2021.2.3,Win32,124.7816321,m,0,0.7734,,,,,,,,0.7734,0,0,0,0,11,1,1001,RASHET,z,,,,,,,,,,,,,,,,,,,,,,,,,,,,,,,,,,,,,,,,,,,,,,,,,,,,,,,,,,,,,,,,,,
,,,,,,,,,,,,,,,,,5f1b71d5ea92af36dae6b31c,25,2022-02-12_16h50.37.944,lexical_decision_task_DD_L4,2021.2.3,Win32,124.7816321,m,1,0.5505,,,,,,,,0.5505,1,0,1,1,0,1,1001,UTOPIA,m,,,,,,,,,,,,,,,,,,,,,,,,,,,,,,,,,,,,,,,,,,,,,,,,,,,,,,,,,,,,,,,,,,
,,,,,,,,,,,,,,,,,5f1b71d5ea92af36dae6b31c,25,2022-02-12_16h50.37.944,lexical_decision_task_DD_L4,2021.2.3,Win32,124.7816321,z,1,0.7255,,,,,,,,0.7255,1,0,2,2,10,1,1001,INLADE,z,,,,,,,,,,,,,,,,,,,,,,,,,,,,,,,,,,,,,,,,,,,,,,,,,,,,,,,,,,,,,,,,,,
,,,,,,,,,,,,,,,,,5f1b71d5ea92af36dae6b31c,25,2022-02-12_16h50.37.944,lexical_decision_task_DD_L4,2021.2.3,Win32,124.7816321,m,0,0.5894,,,,,,,,0.5894,0,0,3,3,12,1,1001,SPRINY,z,,,,,,,,,,,,,,,,,,,,,,,,,,,,,,,,,,,,,,,,,,,,,,,,,,,,,,,,,,,,,,,,,,
,,,,,,,,,,,,,,,,,5f1b71d5ea92af36dae6b31c,25,2022-02-12_16h50.37.944,lexical_decision_task_DD_L4,2021.2.3,Win32,124.7816321,z,1,0.7237,,,,,,,,0.7237,1,0,4,4,8,1,1001,ASLERT,z,,,,,,,,,,,,,,,,,,,,,,,,,,,,,,,,,,,,,,,,,,,,,,,,,,,,,,,,,,,,,,,,,,
,,,,,,,,,,,,,,,,,5f1b71d5ea92af36dae6b31c,25,2022-02-12_16h50.37.944,lexical_decision_task_DD_L4,2021.2.3,Win32,124.7816321,z,1,0.7144,,,,,,,,0.7144,1,0,5,5,15,1,1001,WHAISE,z,,,,,,,,,,,,,,,,,,,,,,,,,,,,,,,,,,,,,,,,,,,,,,,,,,,,,,,,,,,,,,,,,,
,,,,,,,,,,,,,,,,,5f1b71d5ea92af36dae6b31c,25,2022-02-12_16h50.37.944,lexical_decision_task_DD_L4,2021.2.3,Win32,124.7816321,z,1,0.7286,,,,,,,,0.7286,1,0,6,6,9,1,1001,FARINY,z,,,,,,,,,,,,,,,,,,,,,,,,,,,,,,,,,,,,,,,,,,,,,,,,,,,,,,,,,,,,,,,,,,
,,,,,,,,,,,,,,,,,5f1b71d5ea92af36dae6b31c,25,2022-02-12_16h50.37.944,lexical_decision_task_DD_L4,2021.2.3,Win32,124.7816321,m,1,0.5997,,,,,,,,0.5997,1,0,7,7,3,1,1001,MATRIX,m,,,,,,,,,,,,,,,,,,,,,,,,,,,,,,,,,,,,,,,,,,,,,,,,,,,,,,,,,,,,,,,,,,
,,,,,,,,,,,,,,,,,5f1b71d5ea92af36dae6b31c,25,2022-02-12_16h50.37.944,lexical_decision_task_DD_L4,2021.2.3,Win32,124.7816321,m,1,0.6432,,,,,,,,0.6432,1,0,8,8,7,1,1001,VOLUME,m,,,,,,,,,,,,,,,,,,,,,,,,,,,,,,,,,,,,,,,,,,,,,,,,,,,,,,,,,,,,,,,,,,
,,,,,,,,,,,,,,,,,5f1b71d5ea92af36dae6b31c,25,2022-02-12_16h50.37.944,lexical_decision_task_DD_L4,2021.2.3,Win32,124.7816321,z,1,0.7351,,,,,,,,0.7351,1,0,9,9,14,1,1001,THRALE,z,,,,,,,,,,,,,,,,,,,,,,,,,,,,,,,,,,,,,,,,,,,,,,,,,,,,,,,,,,,,,,,,,,
,,,,,,,,,,,,,,,,,5f1b71d5ea92af36dae6b31c,25,2022-02-12_16h50.37.944,lexical_decision_task_DD_L4,2021.2.3,Win32,124.7816321,m,1,0.5237,,,,,,,,0.5237,1,0,10,10,6,1,1001,ZOMBIE,m,,,,,,,,,,,,,,,,,,,,,,,,,,,,,,,,,,,,,,,,,,,,,,,,,,,,,,,,,,,,,,,,,,
,,,,,,,,,,,,,,,,,5f1b71d5ea92af36dae6b31c,25,2022-02-12_16h50.37.944,lexical_decision_task_DD_L4,2021.2.3,Win32,124.7816321,m,1,0.539,,,,,,,,0.539,1,0,11,11,2,1,1001,ALMOND,m,,,,,,,,,,,,,,,,,,,,,,,,,,,,,,,,,,,,,,,,,,,,,,,,,,,,,,,,,,,,,,,,,,
,,,,,,,,,,,,,,,,,5f1b71d5ea92af36dae6b31c,25,2022-02-12_16h50.37.944,lexical_decision_task_DD_L4,2021.2.3,Win32,124.7816321,z,1,0.618,,,,,,,,0.618,1,0,12,12,13,1,1001,ROUPET,z,,,,,,,,,,,,,,,,,,,,,,,,,,,,,,,,,,,,,,,,,,,,,,,,,,,,,,,,,,,,,,,,,,
,,,,,,,,,,,,,,,,,5f1b71d5ea92af36dae6b31c,25,2022-02-12_16h50.37.944,lexical_decision_task_DD_L4,2021.2.3,Win32,124.7816321,m,1,0.559,,,,,,,,0.559,1,0,13,13,5,1,1001,OBTAIN,m,,,,,,,,,,,,,,,,,,,,,,,,,,,,,,,,,,,,,,,,,,,,,,,,,,,,,,,,,,,,,,,,,,
,,,,,,,,,,,,,,,,,5f1b71d5ea92af36dae6b31c,25,2022-02-12_16h50.37.944,lexical_decision_task_DD_L4,2021.2.3,Win32,124.7816321,m,1,0.6359,,,,,,,,0.6359,1,0,14,14,1,1,1001,ADJUST,m,,,,,,,,,,,,,,,,,,,,,,,,,,,,,,,,,,,,,,,,,,,,,,,,,,,,,,,,,,,,,,,,,,
,,,,,,,,,,,,,,,,,5f1b71d5ea92af36dae6b31c,25,2022-02-12_16h50.37.944,lexical_decision_task_DD_L4,2021.2.3,Win32,124.7816321,m,1,0.5587,,,,,,,,0.5587,1,0,15,15,4,1,1001,SQUEAK,m,,,,,,,,,,,,,,,,,,,,,,,,,,,,,,,,,,,,,,,,,,,,,,,,,,,,,,,,,,,,,,,,,,
space,9.3988,-0.276851852,-0.22962963,0,0,0,,,,,,1,end_of_practice,"You have completed the practice trials. During the experimental trials, you will not receive feedback. 
Before you begin, please ensure that you are in a comfortable and quiet location and will not be disturbed for about 15 minutes, as we cannot use your data if you do not complete all the trials. 
 When you are ready to start the experimental trials, please press space or touch the button below.",,,5f1b71d5ea92af36dae6b31c,25,2022-02-12_16h50.37.944,lexical_decision_task_DD_L4,2021.2.3,Win32,124.7816321,,,,,,,,,,,,,,,,,,,,,0,0,0,0,1,,,,,,,,,,,,,,,,,,,,,,,,,,,,,,,,,,,,,,,,,,,,,,,,,,,,,,,,,,,,,
,,,,,,,,,,,,,,,,,5f1b71d5ea92af36dae6b31c,25,2022-02-12_16h50.37.944,lexical_decision_task_DD_L4,2021.2.3,Win32,124.7816321,,,,,,,,,,,0.9795,1,,,,,,,,,,,,,,m,1,0.9795,,,,,,,,-0.276851852,-0.22962963,0,0,0,,0,0,0,64,1,BRIDE,HB,old,m,./images/BRIDEHB.png,,,,,,,,,,,,,,,,,,,,,,,,,,,,,,,,,,,
,,,,,,,,,,,,,,,,,5f1b71d5ea92af36dae6b31c,25,2022-02-12_16h50.37.944,lexical_decision_task_DD_L4,2021.2.3,Win32,124.7816321,,,,,,,,,,,0.8396,1,,,,,,,,,,,,,,z,1,0.8396,,,,,,,,-0.276851852,-0.22962963,0,0,0,,0,1,1,140,1,DOVET,LB,old,z,./images/DOVETLB.png,,,,,,,,,,,,,,,,,,,,,,,,,,,,,,,,,,,
,,,,,,,,,,,,,,,,,5f1b71d5ea92af36dae6b31c,25,2022-02-12_16h50.37.944,lexical_decision_task_DD_L4,2021.2.3,Win32,124.7816321,,,,,,,,,,,0.5657,1,,,,,,,,,,,,,,m,1,0.5657,,,,,,,,-0.276851852,-0.22962963,0,0,0,,0,2,2,45,1,MONKEY,C,old,m,./images/MONKEY.png,,,,,,,,,,,,,,,,,,,,,,,,,,,,,,,,,,,
,,,,,,,,,,,,,,,,,5f1b71d5ea92af36dae6b31c,25,2022-02-12_16h50.37.944,lexical_decision_task_DD_L4,2021.2.3,Win32,124.7816321,,,,,,,,,,,0.8723,1,,,,,,,,,,,,,,z,1,0.8723,,,,,,,,-0.276851852,-0.22962963,0,0,0,,0,3,3,124,1,TUNCH,HB,old,z,./images/TUNCHHB.png,,,,,,,,,,,,,,,,,,,,,,,,,,,,,,,,,,,
,,,,,,,,,,,,,,,,,5f1b71d5ea92af36dae6b31c,25,2022-02-12_16h50.37.944,lexical_decision_task_DD_L4,2021.2.3,Win32,124.7816321,,,,,,,,,,,0.5855,1,,,,,,,,,,,,,,m,1,0.5855,,,,,,,,-0.276851852,-0.22962963,0,0,0,,0,4,4,44,1,BASKET,LB,old,m,./images/BASKETLB.png,,,,,,,,,,,,,,,,,,,,,,,,,,,,,,,,,,,
,,,,,,,,,,,,,,,,,5f1b71d5ea92af36dae6b31c,25,2022-02-12_16h50.37.944,lexical_decision_task_DD_L4,2021.2.3,Win32,124.7816321,,,,,,,,,,,0.6908,1,,,,,,,,,,,,,,m,1,0.6908,,,,,,,,-0.276851852,-0.22962963,0,0,0,,0,5,5,55,1,ALLEY,HB,old,m,./images/ALLEYHB.png,,,,,,,,,,,,,,,,,,,,,,,,,,,,,,,,,,,
,,,,,,,,,,,,,,,,,5f1b71d5ea92af36dae6b31c,25,2022-02-12_16h50.37.944,lexical_decision_task_DD_L4,2021.2.3,Win32,124.7816321,,,,,,,,,,,0.6161,1,,,,,,,,,,,,,,z,1,0.6161,,,,,,,,-0.276851852,-0.22962963,0,0,0,,0,6,6,138,1,PLICE,C,old,z,./images/PLICE.png,,,,,,,,,,,,,,,,,,,,,,,,,,,,,,,,,,,
,,,,,,,,,,,,,,,,,5f1b71d5ea92af36dae6b31c,25,2022-02-12_16h50.37.944,lexical_decision_task_DD_L4,2021.2.3,Win32,124.7816321,,,,,,,,,,,0.6659,1,,,,,,,,,,,,,,z,1,0.6659,,,,,,,,-0.276851852,-0.22962963,0,0,0,,0,7,7,125,1,MOOKY,LB,old,z,./images/MOOKYLB.png,,,,,,,,,,,,,,,,,,,,,,,,,,,,,,,,,,,
,,,,,,,,,,,,,,,,,5f1b71d5ea92af36dae6b31c,25,2022-02-12_16h50.37.944,lexical_decision_task_DD_L4,2021.2.3,Win32,124.7816321,,,,,,,,,,,0.6172,1,,,,,,,,,,,,,,z,1,0.6172,,,,,,,,-0.276851852,-0.22962963,0,0,0,,0,8,8,117,1,STEEG,C,old,z,./images/STEEG.png,,,,,,,,,,,,,,,,,,,,,,,,,,,,,,,,,,,
,,,,,,,,,,,,,,,,,5f1b71d5ea92af36dae6b31c,25,2022-02-12_16h50.37.944,lexical_decision_task_DD_L4,2021.2.3,Win32,124.7816321,,,,,,,,,,,0.7444,1,,,,,,,,,,,,,,m,1,0.7444,,,,,,,,-0.276851852,-0.22962963,0,0,0,,0,9,9,22,1,CLOWN,HB,old,m,./images/CLOWNHB.png,,,,,,,,,,,,,,,,,,,,,,,,,,,,,,,,,,,
,,,,,,,,,,,,,,,,,5f1b71d5ea92af36dae6b31c,25,2022-02-12_16h50.37.944,lexical_decision_task_DD_L4,2021.2.3,Win32,124.7816321,,,,,,,,,,,0.7338,1,,,,,,,,,,,,,,m,1,0.7338,,,,,,,,-0.276851852,-0.22962963,0,0,0,,0,10,10,7,1,WAGON,HB,old,m,./images/WAGONHB.png,,,,,,,,,,,,,,,,,,,,,,,,,,,,,,,,,,,
,,,,,,,,,,,,,,,,,5f1b71d5ea92af36dae6b31c,25,2022-02-12_16h50.37.944,lexical_decision_task_DD_L4,2021.2.3,Win32,124.7816321,,,,,,,,,,,0.6557,1,,,,,,,,,,,,,,m,1,0.6557,,,,,,,,-0.276851852,-0.22962963,0,0,0,,0,11,11,9,1,DIVER,C,old,m,./images/DIVER.png,,,,,,,,,,,,,,,,,,,,,,,,,,,,,,,,,,,
,,,,,,,,,,,,,,,,,5f1b71d5ea92af36dae6b31c,25,2022-02-12_16h50.37.944,lexical_decision_task_DD_L4,2021.2.3,Win32,124.7816321,,,,,,,,,,,0.5874,0,,,,,,,,,,,,,,m,0,0.5874,,,,,,,,-0.276851852,-0.22962963,0,0,0,,0,12,12,159,1,CUDDY,C,old,z,./images/CUDDY.png,,,,,,,,,,,,,,,,,,,,,,,,,,,,,,,,,,,
,,,,,,,,,,,,,,,,,5f1b71d5ea92af36dae6b31c,25,2022-02-12_16h50.37.944,lexical_decision_task_DD_L4,2021.2.3,Win32,124.7816321,,,,,,,,,,,0.6119,1,,,,,,,,,,,,,,z,1,0.6119,,,,,,,,-0.276851852,-0.22962963,0,0,0,,0,13,13,111,1,HOSSE,C,old,z,./images/HOSSE.png,,,,,,,,,,,,,,,,,,,,,,,,,,,,,,,,,,,
,,,,,,,,,,,,,,,,,5f1b71d5ea92af36dae6b31c,25,2022-02-12_16h50.37.944,lexical_decision_task_DD_L4,2021.2.3,Win32,124.7816321,,,,,,,,,,,0.717,1,,,,,,,,,,,,,,z,1,0.717,,,,,,,,-0.276851852,-0.22962963,0,0,0,,0,14,14,147,1,ZOLES,C,old,z,./images/ZOLES.png,,,,,,,,,,,,,,,,,,,,,,,,,,,,,,,,,,,
,,,,,,,,,,,,,,,,,5f1b71d5ea92af36dae6b31c,25,2022-02-12_16h50.37.944,lexical_decision_task_DD_L4,2021.2.3,Win32,124.7816321,,,,,,,,,,,0.7334,1,,,,,,,,,,,,,,z,1,0.7334,,,,,,,,-0.276851852,-0.22962963,0,0,0,,0,15,15,86,1,AIFED,LB,old,z,./images/AIFEDLB.png,,,,,,,,,,,,,,,,,,,,,,,,,,,,,,,,,,,
,,,,,,,,,,,,,,,,,5f1b71d5ea92af36dae6b31c,25,2022-02-12_16h50.37.944,lexical_decision_task_DD_L4,2021.2.3,Win32,124.7816321,,,,,,,,,,,0.5637,1,,,,,,,,,,,,,,m,1,0.5637,,,,,,,,-0.276851852,-0.22962963,0,0,0,,0,16,16,5,1,BAMBOO,LB,old,m,./images/BAMBOOLB.png,,,,,,,,,,,,,,,,,,,,,,,,,,,,,,,,,,,
,,,,,,,,,,,,,,,,,5f1b71d5ea92af36dae6b31c,25,2022-02-12_16h50.37.944,lexical_decision_task_DD_L4,2021.2.3,Win32,124.7816321,,,,,,,,,,,0.7153,1,,,,,,,,,,,,,,z,1,0.7153,,,,,,,,-0.276851852,-0.22962963,0,0,0,,0,17,17,96,1,KEAMS,C,old,z,./images/KEAMS.png,,,,,,,,,,,,,,,,,,,,,,,,,,,,,,,,,,,
,,,,,,,,,,,,,,,,,5f1b71d5ea92af36dae6b31c,25,2022-02-12_16h50.37.944,lexical_decision_task_DD_L4,2021.2.3,Win32,124.7816321,,,,,,,,,,,0.6244,1,,,,,,,,,,,,,,m,1,0.6244,,,,,,,,-0.276851852,-0.22962963,0,0,0,,0,18,18,0,1,WALNUT,C,old,m,./images/WALNUT.png,,,,,,,,,,,,,,,,,,,,,,,,,,,,,,,,,,,
,,,,,,,,,,,,,,,,,5f1b71d5ea92af36dae6b31c,25,2022-02-12_16h50.37.944,lexical_decision_task_DD_L4,2021.2.3,Win32,124.7816321,,,,,,,,,,,0.7353,1,,,,,,,,,,,,,,z,1,0.7353,,,,,,,,-0.276851852,-0.22962963,0,0,0,,0,19,19,87,1,TRING,C,old,z,./images/TRING.png,,,,,,,,,,,,,,,,,,,,,,,,,,,,,,,,,,,
,,,,,,,,,,,,,,,,,5f1b71d5ea92af36dae6b31c,25,2022-02-12_16h50.37.944,lexical_decision_task_DD_L4,2021.2.3,Win32,124.7816321,,,,,,,,,,,0.6274,1,,,,,,,,,,,,,,m,1,0.6274,,,,,,,,-0.276851852,-0.22962963,0,0,0,,0,20,20,80,1,PLANET,LB,old,m,./images/PLANETLB.png,,,,,,,,,,,,,,,,,,,,,,,,,,,,,,,,,,,
,,,,,,,,,,,,,,,,,5f1b71d5ea92af36dae6b31c,25,2022-02-12_16h50.37.944,lexical_decision_task_DD_L4,2021.2.3,Win32,124.7816321,,,,,,,,,,,0.7123,1,,,,,,,,,,,,,,z,1,0.7123,,,,,,,,-0.276851852,-0.22962963,0,0,0,,0,21,21,122,1,BLOOT,LB,old,z,./images/BLOOTLB.png,,,,,,,,,,,,,,,,,,,,,,,,,,,,,,,,,,,
,,,,,,,,,,,,,,,,,5f1b71d5ea92af36dae6b31c,25,2022-02-12_16h50.37.944,lexical_decision_task_DD_L4,2021.2.3,Win32,124.7816321,,,,,,,,,,,0.8666,1,,,,,,,,,,,,,,m,1,0.8666,,,,,,,,-0.276851852,-0.22962963,0,0,0,,0,22,22,74,1,JUMPER,LB,old,m,./images/JUMPERLB.png,,,,,,,,,,,,,,,,,,,,,,,,,,,,,,,,,,,
,,,,,,,,,,,,,,,,,5f1b71d5ea92af36dae6b31c,25,2022-02-12_16h50.37.944,lexical_decision_task_DD_L4,2021.2.3,Win32,124.7816321,,,,,,,,,,,0.7286,1,,,,,,,,,,,,,,m,1,0.7286,,,,,,,,-0.276851852,-0.22962963,0,0,0,,0,23,23,23,1,CLOTH,LB,old,m,./images/CLOTHLB.png,,,,,,,,,,,,,,,,,,,,,,,,,,,,,,,,,,,
,,,,,,,,,,,,,,,,,5f1b71d5ea92af36dae6b31c,25,2022-02-12_16h50.37.944,lexical_decision_task_DD_L4,2021.2.3,Win32,124.7816321,,,,,,,,,,,0.6444,1,,,,,,,,,,,,,,m,1,0.6444,,,,,,,,-0.276851852,-0.22962963,0,0,0,,0,24,24,38,1,ENGINE,LB,old,m,./images/ENGINELB.png,,,,,,,,,,,,,,,,,,,,,,,,,,,,,,,,,,,
,,,,,,,,,,,,,,,,,5f1b71d5ea92af36dae6b31c,25,2022-02-12_16h50.37.944,lexical_decision_task_DD_L4,2021.2.3,Win32,124.7816321,,,,,,,,,,,0.7398,1,,,,,,,,,,,,,,z,1,0.7398,,,,,,,,-0.276851852,-0.22962963,0,0,0,,0,25,25,84,1,HAXES,C,old,z,./images/HAXES.png,,,,,,,,,,,,,,,,,,,,,,,,,,,,,,,,,,,
,,,,,,,,,,,,,,,,,5f1b71d5ea92af36dae6b31c,25,2022-02-12_16h50.37.944,lexical_decision_task_DD_L4,2021.2.3,Win32,124.7816321,,,,,,,,,,,0.8675,1,,,,,,,,,,,,,,z,1,0.8675,,,,,,,,-0.276851852,-0.22962963,0,0,0,,0,26,26,94,1,BLANS,HB,old,z,./images/BLANSHB.png,,,,,,,,,,,,,,,,,,,,,,,,,,,,,,,,,,,
,,,,,,,,,,,,,,,,,5f1b71d5ea92af36dae6b31c,25,2022-02-12_16h50.37.944,lexical_decision_task_DD_L4,2021.2.3,Win32,124.7816321,,,,,,,,,,,0.6261,1,,,,,,,,,,,,,,m,1,0.6261,,,,,,,,-0.276851852,-0.22962963,0,0,0,,0,27,27,36,1,BOILER,C,old,m,./images/BOILER.png,,,,,,,,,,,,,,,,,,,,,,,,,,,,,,,,,,,
,,,,,,,,,,,,,,,,,5f1b71d5ea92af36dae6b31c,25,2022-02-12_16h50.37.944,lexical_decision_task_DD_L4,2021.2.3,Win32,124.7816321,,,,,,,,,,,0.7782,1,,,,,,,,,,,,,,m,1,0.7782,,,,,,,,-0.276851852,-0.22962963,0,0,0,,0,28,28,62,1,MAMMAL,LB,old,m,./images/MAMMALLB.png,,,,,,,,,,,,,,,,,,,,,,,,,,,,,,,,,,,
,,,,,,,,,,,,,,,,,5f1b71d5ea92af36dae6b31c,25,2022-02-12_16h50.37.944,lexical_decision_task_DD_L4,2021.2.3,Win32,124.7816321,,,,,,,,,,,0.6833,1,,,,,,,,,,,,,,z,1,0.6833,,,,,,,,-0.276851852,-0.22962963,0,0,0,,0,29,29,126,1,GUELS,C,old,z,./images/GUELS.png,,,,,,,,,,,,,,,,,,,,,,,,,,,,,,,,,,,
,,,,,,,,,,,,,,,,,5f1b71d5ea92af36dae6b31c,25,2022-02-12_16h50.37.944,lexical_decision_task_DD_L4,2021.2.3,Win32,124.7816321,,,,,,,,,,,0.7275,1,,,,,,,,,,,,,,m,1,0.7275,,,,,,,,-0.276851852,-0.22962963,0,0,0,,0,30,30,49,1,BISHOP,HB,old,m,./images/BISHOPHB.png,,,,,,,,,,,,,,,,,,,,,,,,,,,,,,,,,,,
,,,,,,,,,,,,,,,,,5f1b71d5ea92af36dae6b31c,25,2022-02-12_16h50.37.944,lexical_decision_task_DD_L4,2021.2.3,Win32,124.7816321,,,,,,,,,,,0.9788,1,,,,,,,,,,,,,,z,1,0.9788,,,,,,,,-0.276851852,-0.22962963,0,0,0,,0,31,31,136,1,WERVE,HB,old,z,./images/WERVEHB.png,,,,,,,,,,,,,,,,,,,,,,,,,,,,,,,,,,,
,,,,,,,,,,,,,,,,,5f1b71d5ea92af36dae6b31c,25,2022-02-12_16h50.37.944,lexical_decision_task_DD_L4,2021.2.3,Win32,124.7816321,,,,,,,,,,,0.7677,1,,,,,,,,,,,,,,z,1,0.7677,,,,,,,,-0.276851852,-0.22962963,0,0,0,,0,32,32,104,1,GITTY,LB,old,z,./images/GITTYLB.png,,,,,,,,,,,,,,,,,,,,,,,,,,,,,,,,,,,
,,,,,,,,,,,,,,,,,5f1b71d5ea92af36dae6b31c,25,2022-02-12_16h50.37.944,lexical_decision_task_DD_L4,2021.2.3,Win32,124.7816321,,,,,,,,,,,0.9229,1,,,,,,,,,,,,,,z,1,0.9229,,,,,,,,-0.276851852,-0.22962963,0,0,0,,0,33,33,128,1,GRIFT,LB,old,z,./images/GRIFTLB.png,,,,,,,,,,,,,,,,,,,,,,,,,,,,,,,,,,,
,,,,,,,,,,,,,,,,,5f1b71d5ea92af36dae6b31c,25,2022-02-12_16h50.37.944,lexical_decision_task_DD_L4,2021.2.3,Win32,124.7816321,,,,,,,,,,,0.8766,1,,,,,,,,,,,,,,m,1,0.8766,,,,,,,,-0.276851852,-0.22962963,0,0,0,,0,34,34,19,1,DONKEY,HB,old,m,./images/DONKEYHB.png,,,,,,,,,,,,,,,,,,,,,,,,,,,,,,,,,,,
,,,,,,,,,,,,,,,,,5f1b71d5ea92af36dae6b31c,25,2022-02-12_16h50.37.944,lexical_decision_task_DD_L4,2021.2.3,Win32,124.7816321,,,,,,,,,,,0.9111,1,,,,,,,,,,,,,,z,1,0.9111,,,,,,,,-0.276851852,-0.22962963,0,0,0,,0,35,35,93,1,SMONE,C,old,z,./images/SMONE.png,,,,,,,,,,,,,,,,,,,,,,,,,,,,,,,,,,,
,,,,,,,,,,,,,,,,,5f1b71d5ea92af36dae6b31c,25,2022-02-12_16h50.37.944,lexical_decision_task_DD_L4,2021.2.3,Win32,124.7816321,,,,,,,,,,,0.5588,1,,,,,,,,,,,,,,m,1,0.5588,,,,,,,,-0.276851852,-0.22962963,0,0,0,,0,36,36,6,1,STAIN,C,old,m,./images/STAIN.png,,,,,,,,,,,,,,,,,,,,,,,,,,,,,,,,,,,
,,,,,,,,,,,,,,,,,5f1b71d5ea92af36dae6b31c,25,2022-02-12_16h50.37.944,lexical_decision_task_DD_L4,2021.2.3,Win32,124.7816321,,,,,,,,,,,0.6561,1,,,,,,,,,,,,,,m,1,0.6561,,,,,,,,-0.276851852,-0.22962963,0,0,0,,0,37,37,30,1,SLOPE,C,old,m,./images/SLOPE.png,,,,,,,,,,,,,,,,,,,,,,,,,,,,,,,,,,,
,,,,,,,,,,,,,,,,,5f1b71d5ea92af36dae6b31c,25,2022-02-12_16h50.37.944,lexical_decision_task_DD_L4,2021.2.3,Win32,124.7816321,,,,,,,,,,,0.6931,1,,,,,,,,,,,,,,z,1,0.6931,,,,,,,,-0.276851852,-0.22962963,0,0,0,,0,38,38,131,1,NACES,LB,old,z,./images/NACESLB.png,,,,,,,,,,,,,,,,,,,,,,,,,,,,,,,,,,,
,,,,,,,,,,,,,,,,,5f1b71d5ea92af36dae6b31c,25,2022-02-12_16h50.37.944,lexical_decision_task_DD_L4,2021.2.3,Win32,124.7816321,,,,,,,,,,,0.7788,1,,,,,,,,,,,,,,z,1,0.7788,,,,,,,,-0.276851852,-0.22962963,0,0,0,,0,39,39,120,1,RINED,C,old,z,./images/RINED.png,,,,,,,,,,,,,,,,,,,,,,,,,,,,,,,,,,,
,,,,,,,,,,,,,,,,,5f1b71d5ea92af36dae6b31c,25,2022-02-12_16h50.37.944,lexical_decision_task_DD_L4,2021.2.3,Win32,124.7816321,,,,,,,,,,,0.6839,1,,,,,,,,,,,,,,z,1,0.6839,,,,,,,,-0.276851852,-0.22962963,0,0,0,,0,40,40,156,1,HIXES,C,old,z,./images/HIXES.png,,,,,,,,,,,,,,,,,,,,,,,,,,,,,,,,,,,
,,,,,,,,,,,,,,,,,5f1b71d5ea92af36dae6b31c,25,2022-02-12_16h50.37.944,lexical_decision_task_DD_L4,2021.2.3,Win32,124.7816321,,,,,,,,,,,0.5579,1,,,,,,,,,,,,,,m,1,0.5579,,,,,,,,-0.276851852,-0.22962963,0,0,0,space,0,41,41,77,1,WHEEL,LB,old,m,./images/WHEELLB.png,5.5054,,,,,,,,,,,,,,,,,,,,,,,,,,,,,,,,,,
,,,,,,,,,,,,,,,,,5f1b71d5ea92af36dae6b31c,25,2022-02-12_16h50.37.944,lexical_decision_task_DD_L4,2021.2.3,Win32,124.7816321,,,,,,,,,,,0.7442,1,,,,,,,,,,,,,,z,1,0.7442,,,,,,,,-0.276851852,-0.22962963,0,0,0,,0,42,42,160,1,VEETS,HB,old,z,./images/VEETSHB.png,,,,,,,,,,,,,,,,,,,,,,,,,,,,,,,,,,,
,,,,,,,,,,,,,,,,,5f1b71d5ea92af36dae6b31c,25,2022-02-12_16h50.37.944,lexical_decision_task_DD_L4,2021.2.3,Win32,124.7816321,,,,,,,,,,,0.7435,1,,,,,,,,,,,,,,m,1,0.7435,,,,,,,,-0.276851852,-0.22962963,0,0,0,,0,43,43,11,1,MEDAL,LB,old,m,./images/MEDALLB.png,,,,,,,,,,,,,,,,,,,,,,,,,,,,,,,,,,,
,,,,,,,,,,,,,,,,,5f1b71d5ea92af36dae6b31c,25,2022-02-12_16h50.37.944,lexical_decision_task_DD_L4,2021.2.3,Win32,124.7816321,,,,,,,,,,,0.7439,1,,,,,,,,,,,,,,z,1,0.7439,,,,,,,,-0.276851852,-0.22962963,0,0,0,,0,44,44,119,1,PAFER,LB,old,z,./images/PAFERLB.png,,,,,,,,,,,,,,,,,,,,,,,,,,,,,,,,,,,
,,,,,,,,,,,,,,,,,5f1b71d5ea92af36dae6b31c,25,2022-02-12_16h50.37.944,lexical_decision_task_DD_L4,2021.2.3,Win32,124.7816321,,,,,,,,,,,0.8617,1,,,,,,,,,,,,,,m,1,0.8617,,,,,,,,-0.276851852,-0.22962963,0,0,0,,0,45,45,20,1,GRANNY,LB,old,m,./images/GRANNYLB.png,,,,,,,,,,,,,,,,,,,,,,,,,,,,,,,,,,,
,,,,,,,,,,,,,,,,,5f1b71d5ea92af36dae6b31c,25,2022-02-12_16h50.37.944,lexical_decision_task_DD_L4,2021.2.3,Win32,124.7816321,,,,,,,,,,,0.9005,0,,,,,,,,,,,,,,m,0,0.9005,,,,,,,,-0.276851852,-0.22962963,0,0,0,,0,46,46,154,1,THINT,HB,old,z,./images/THINTHB.png,,,,,,,,,,,,,,,,,,,,,,,,,,,,,,,,,,,
,,,,,,,,,,,,,,,,,5f1b71d5ea92af36dae6b31c,25,2022-02-12_16h50.37.944,lexical_decision_task_DD_L4,2021.2.3,Win32,124.7816321,,,,,,,,,,,0.7078,1,,,,,,,,,,,,,,z,1,0.7078,,,,,,,,-0.276851852,-0.22962963,0,0,0,,0,47,47,101,1,GLEET,LB,old,z,./images/GLEETLB.png,,,,,,,,,,,,,,,,,,,,,,,,,,,,,,,,,,,
,,,,,,,,,,,,,,,,,5f1b71d5ea92af36dae6b31c,25,2022-02-12_16h50.37.944,lexical_decision_task_DD_L4,2021.2.3,Win32,124.7816321,,,,,,,,,,,0.7617,1,,,,,,,,,,,,,,z,1,0.7617,,,,,,,,-0.276851852,-0.22962963,0,0,0,,0,48,48,148,1,JOMS,HB,old,z,./images/JOMSHB.png,,,,,,,,,,,,,,,,,,,,,,,,,,,,,,,,,,,
,,,,,,,,,,,,,,,,,5f1b71d5ea92af36dae6b31c,25,2022-02-12_16h50.37.944,lexical_decision_task_DD_L4,2021.2.3,Win32,124.7816321,,,,,,,,,,,0.7282,1,,,,,,,,,,,,,,z,1,0.7282,,,,,,,,-0.276851852,-0.22962963,0,0,0,,0,49,49,142,1,PLASK,HB,old,z,./images/PLASKHB.png,,,,,,,,,,,,,,,,,,,,,,,,,,,,,,,,,,,
,,,,,,,,,,,,,,,,,5f1b71d5ea92af36dae6b31c,25,2022-02-12_16h50.37.944,lexical_decision_task_DD_L4,2021.2.3,Win32,124.7816321,,,,,,,,,,,1.0292,0,,,,,,,,,,,,,,m,0,1.0292,,,,,,,,-0.276851852,-0.22962963,0,0,0,,0,50,50,163,1,GAMBA,HB,old,z,./images/GAMBAHB.png,,,,,,,,,,,,,,,,,,,,,,,,,,,,,,,,,,,
,,,,,,,,,,,,,,,,,5f1b71d5ea92af36dae6b31c,25,2022-02-12_16h50.37.944,lexical_decision_task_DD_L4,2021.2.3,Win32,124.7816321,,,,,,,,,,,0.7642,1,,,,,,,,,,,,,,m,1,0.7642,,,,,,,,-0.276851852,-0.22962963,0,0,0,,0,51,51,2,1,STOVE,LB,old,m,./images/STOVELB.png,,,,,,,,,,,,,,,,,,,,,,,,,,,,,,,,,,,
,,,,,,,,,,,,,,,,,5f1b71d5ea92af36dae6b31c,25,2022-02-12_16h50.37.944,lexical_decision_task_DD_L4,2021.2.3,Win32,124.7816321,,,,,,,,,,,0.8496,1,,,,,,,,,,,,,,z,1,0.8496,,,,,,,,-0.276851852,-0.22962963,0,0,0,,0,52,52,92,1,PAIMS,LB,old,z,./images/PAIMSLB.png,,,,,,,,,,,,,,,,,,,,,,,,,,,,,,,,,,,
,,,,,,,,,,,,,,,,,5f1b71d5ea92af36dae6b31c,25,2022-02-12_16h50.37.944,lexical_decision_task_DD_L4,2021.2.3,Win32,124.7816321,,,,,,,,,,,0.7004,1,,,,,,,,,,,,,,m,1,0.7004,,,,,,,,-0.276851852,-0.22962963,0,0,0,,0,53,53,35,1,LLAMA,LB,old,m,./images/LLAMALB.png,,,,,,,,,,,,,,,,,,,,,,,,,,,,,,,,,,,
,,,,,,,,,,,,,,,,,5f1b71d5ea92af36dae6b31c,25,2022-02-12_16h50.37.944,lexical_decision_task_DD_L4,2021.2.3,Win32,124.7816321,,,,,,,,,,,0.9193,1,,,,,,,,,,,,,,z,1,0.9193,,,,,,,,-0.276851852,-0.22962963,0,0,0,,0,54,54,100,1,DRIBS,HB,old,z,./images/DRIBSHB.png,,,,,,,,,,,,,,,,,,,,,,,,,,,,,,,,,,,
,,,,,,,,,,,,,,,,,5f1b71d5ea92af36dae6b31c,25,2022-02-12_16h50.37.944,lexical_decision_task_DD_L4,2021.2.3,Win32,124.7816321,,,,,,,,,,,1.2434,1,,,,,,,,,,,,,,z,1,1.2434,,,,,,,,-0.276851852,-0.22962963,0,0,0,,0,55,55,85,1,CHULK,HB,old,z,./images/CHULKHB.png,,,,,,,,,,,,,,,,,,,,,,,,,,,,,,,,,,,
,,,,,,,,,,,,,,,,,5f1b71d5ea92af36dae6b31c,25,2022-02-12_16h50.37.944,lexical_decision_task_DD_L4,2021.2.3,Win32,124.7816321,,,,,,,,,,,0.8803,1,,,,,,,,,,,,,,m,1,0.8803,,,,,,,,-0.276851852,-0.22962963,0,0,0,,0,56,56,31,1,STEAK,HB,old,m,./images/STEAKHB.png,,,,,,,,,,,,,,,,,,,,,,,,,,,,,,,,,,,
,,,,,,,,,,,,,,,,,5f1b71d5ea92af36dae6b31c,25,2022-02-12_16h50.37.944,lexical_decision_task_DD_L4,2021.2.3,Win32,124.7816321,,,,,,,,,,,0.76,1,,,,,,,,,,,,,,m,1,0.76,,,,,,,,-0.276851852,-0.22962963,0,0,0,,0,57,57,73,1,GLOVE,HB,old,m,./images/GLOVEHB.png,,,,,,,,,,,,,,,,,,,,,,,,,,,,,,,,,,,
,,,,,,,,,,,,,,,,,5f1b71d5ea92af36dae6b31c,25,2022-02-12_16h50.37.944,lexical_decision_task_DD_L4,2021.2.3,Win32,124.7816321,,,,,,,,,,,1.2793,1,,,,,,,,,,,,,,z,1,1.2793,,,,,,,,-0.276851852,-0.22962963,0,0,0,,0,58,58,88,1,GLUSH,HB,old,z,./images/GLUSHHB.png,,,,,,,,,,,,,,,,,,,,,,,,,,,,,,,,,,,
,,,,,,,,,,,,,,,,,5f1b71d5ea92af36dae6b31c,25,2022-02-12_16h50.37.944,lexical_decision_task_DD_L4,2021.2.3,Win32,124.7816321,,,,,,,,,,,0.7729,1,,,,,,,,,,,,,,z,1,0.7729,,,,,,,,-0.276851852,-0.22962963,0,0,0,,0,59,59,165,1,TROWN,C,old,z,./images/TROWN.png,,,,,,,,,,,,,,,,,,,,,,,,,,,,,,,,,,,
,,,,,,,,,,,,,,,,,5f1b71d5ea92af36dae6b31c,25,2022-02-12_16h50.37.944,lexical_decision_task_DD_L4,2021.2.3,Win32,124.7816321,,,,,,,,,,,0.5762,1,,,,,,,,,,,,,,m,1,0.5762,,,,,,,,-0.276851852,-0.22962963,0,0,0,,0,60,60,42,1,CHAIN,C,old,m,./images/CHAIN.png,,,,,,,,,,,,,,,,,,,,,,,,,,,,,,,,,,,
,,,,,,,,,,,,,,,,,5f1b71d5ea92af36dae6b31c,25,2022-02-12_16h50.37.944,lexical_decision_task_DD_L4,2021.2.3,Win32,124.7816321,,,,,,,,,,,0.6732,1,,,,,,,,,,,,,,z,1,0.6732,,,,,,,,-0.276851852,-0.22962963,0,0,0,,0,61,61,123,1,SEDGE,C,old,z,./images/SEDGE.png,,,,,,,,,,,,,,,,,,,,,,,,,,,,,,,,,,,
,,,,,,,,,,,,,,,,,5f1b71d5ea92af36dae6b31c,25,2022-02-12_16h50.37.944,lexical_decision_task_DD_L4,2021.2.3,Win32,124.7816321,,,,,,,,,,,0.6398,1,,,,,,,,,,,,,,m,1,0.6398,,,,,,,,-0.276851852,-0.22962963,0,0,0,,0,62,62,14,1,FENCE,LB,old,m,./images/FENCELB.png,,,,,,,,,,,,,,,,,,,,,,,,,,,,,,,,,,,
,,,,,,,,,,,,,,,,,5f1b71d5ea92af36dae6b31c,25,2022-02-12_16h50.37.944,lexical_decision_task_DD_L4,2021.2.3,Win32,124.7816321,,,,,,,,,,,1.0746,1,,,,,,,,,,,,,,z,1,1.0746,,,,,,,,-0.276851852,-0.22962963,0,0,0,,0,63,63,151,1,TINKY,HB,old,z,./images/TINKYHB.png,,,,,,,,,,,,,,,,,,,,,,,,,,,,,,,,,,,
,,,,,,,,,,,,,,,,,5f1b71d5ea92af36dae6b31c,25,2022-02-12_16h50.37.944,lexical_decision_task_DD_L4,2021.2.3,Win32,124.7816321,,,,,,,,,,,0.5803,1,,,,,,,,,,,,,,m,1,0.5803,,,,,,,,-0.276851852,-0.22962963,0,0,0,,0,64,64,29,1,PISTOL,LB,old,m,./images/PISTOLLB.png,,,,,,,,,,,,,,,,,,,,,,,,,,,,,,,,,,,
,,,,,,,,,,,,,,,,,5f1b71d5ea92af36dae6b31c,25,2022-02-12_16h50.37.944,lexical_decision_task_DD_L4,2021.2.3,Win32,124.7816321,,,,,,,,,,,0.9449,1,,,,,,,,,,,,,,z,1,0.9449,,,,,,,,-0.276851852,-0.22962963,0,0,0,,0,65,65,97,1,CHIDS,HB,old,z,./images/CHIDSHB.png,,,,,,,,,,,,,,,,,,,,,,,,,,,,,,,,,,,
,,,,,,,,,,,,,,,,,5f1b71d5ea92af36dae6b31c,25,2022-02-12_16h50.37.944,lexical_decision_task_DD_L4,2021.2.3,Win32,124.7816321,,,,,,,,,,,1.3333,1,,,,,,,,,,,,,,z,1,1.3333,,,,,,,,-0.276851852,-0.22962963,0,0,0,,0,66,66,91,1,SHENS,HB,old,z,./images/SHENSHB.png,,,,,,,,,,,,,,,,,,,,,,,,,,,,,,,,,,,
,,,,,,,,,,,,,,,,,5f1b71d5ea92af36dae6b31c,25,2022-02-12_16h50.37.944,lexical_decision_task_DD_L4,2021.2.3,Win32,124.7816321,,,,,,,,,,,0.7282,1,,,,,,,,,,,,,,m,1,0.7282,,,,,,,,-0.276851852,-0.22962963,0,0,0,,0,67,67,32,1,HOCKEY,LB,old,m,./images/HOCKEYLB.png,,,,,,,,,,,,,,,,,,,,,,,,,,,,,,,,,,,
,,,,,,,,,,,,,,,,,5f1b71d5ea92af36dae6b31c,25,2022-02-12_16h50.37.944,lexical_decision_task_DD_L4,2021.2.3,Win32,124.7816321,,,,,,,,,,,0.6419,1,,,,,,,,,,,,,,m,1,0.6419,,,,,,,,-0.276851852,-0.22962963,0,0,0,,0,68,68,54,1,CHERRY,C,old,m,./images/CHERRY.png,,,,,,,,,,,,,,,,,,,,,,,,,,,,,,,,,,,
,,,,,,,,,,,,,,,,,5f1b71d5ea92af36dae6b31c,25,2022-02-12_16h50.37.944,lexical_decision_task_DD_L4,2021.2.3,Win32,124.7816321,,,,,,,,,,,0.8905,1,,,,,,,,,,,,,,m,1,0.8905,,,,,,,,-0.276851852,-0.22962963,0,0,0,,0,69,69,79,1,RULER,HB,old,m,./images/RULERHB.png,,,,,,,,,,,,,,,,,,,,,,,,,,,,,,,,,,,
,,,,,,,,,,,,,,,,,5f1b71d5ea92af36dae6b31c,25,2022-02-12_16h50.37.944,lexical_decision_task_DD_L4,2021.2.3,Win32,124.7816321,,,,,,,,,,,0.5403,1,,,,,,,,,,,,,,m,1,0.5403,,,,,,,,-0.276851852,-0.22962963,0,0,0,,0,70,70,39,1,CANDY,C,old,m,./images/CANDY.png,,,,,,,,,,,,,,,,,,,,,,,,,,,,,,,,,,,
,,,,,,,,,,,,,,,,,5f1b71d5ea92af36dae6b31c,25,2022-02-12_16h50.37.944,lexical_decision_task_DD_L4,2021.2.3,Win32,124.7816321,,,,,,,,,,,0.5517,1,,,,,,,,,,,,,,m,1,0.5517,,,,,,,,-0.276851852,-0.22962963,0,0,0,,0,71,71,59,1,BRUSH,LB,old,m,./images/BRUSHLB.png,,,,,,,,,,,,,,,,,,,,,,,,,,,,,,,,,,,
,,,,,,,,,,,,,,,,,5f1b71d5ea92af36dae6b31c,25,2022-02-12_16h50.37.944,lexical_decision_task_DD_L4,2021.2.3,Win32,124.7816321,,,,,,,,,,,0.727,1,,,,,,,,,,,,,,z,1,0.727,,,,,,,,-0.276851852,-0.22962963,0,0,0,,0,72,72,144,1,NAIRY,C,old,z,./images/NAIRY.png,,,,,,,,,,,,,,,,,,,,,,,,,,,,,,,,,,,
,,,,,,,,,,,,,,,,,5f1b71d5ea92af36dae6b31c,25,2022-02-12_16h50.37.944,lexical_decision_task_DD_L4,2021.2.3,Win32,124.7816321,,,,,,,,,,,0.7171,1,,,,,,,,,,,,,,m,1,0.7171,,,,,,,,-0.276851852,-0.22962963,0,0,0,,0,73,73,65,1,SPINE,LB,old,m,./images/SPINELB.png,,,,,,,,,,,,,,,,,,,,,,,,,,,,,,,,,,,
,,,,,,,,,,,,,,,,,5f1b71d5ea92af36dae6b31c,25,2022-02-12_16h50.37.944,lexical_decision_task_DD_L4,2021.2.3,Win32,124.7816321,,,,,,,,,,,0.8214,1,,,,,,,,,,,,,,m,1,0.8214,,,,,,,,-0.276851852,-0.22962963,0,0,0,,0,74,74,33,1,SAUNA,C,old,m,./images/SAUNA.png,,,,,,,,,,,,,,,,,,,,,,,,,,,,,,,,,,,
,,,,,,,,,,,,,,,,,5f1b71d5ea92af36dae6b31c,25,2022-02-12_16h50.37.944,lexical_decision_task_DD_L4,2021.2.3,Win32,124.7816321,,,,,,,,,,,0.7986,1,,,,,,,,,,,,,,z,1,0.7986,,,,,,,,-0.276851852,-0.22962963,0,0,0,,0,75,75,134,1,TROSS,LB,old,z,./images/TROSSLB.png,,,,,,,,,,,,,,,,,,,,,,,,,,,,,,,,,,,
,,,,,,,,,,,,,,,,,5f1b71d5ea92af36dae6b31c,25,2022-02-12_16h50.37.944,lexical_decision_task_DD_L4,2021.2.3,Win32,124.7816321,,,,,,,,,,,0.7511,1,,,,,,,,,,,,,,z,1,0.7511,,,,,,,,-0.276851852,-0.22962963,0,0,0,,0,76,76,116,1,BALGY,LB,old,z,./images/BALGYLB.png,,,,,,,,,,,,,,,,,,,,,,,,,,,,,,,,,,,
,,,,,,,,,,,,,,,,,5f1b71d5ea92af36dae6b31c,25,2022-02-12_16h50.37.944,lexical_decision_task_DD_L4,2021.2.3,Win32,124.7816321,,,,,,,,,,,0.6468,1,,,,,,,,,,,,,,m,1,0.6468,,,,,,,,-0.276851852,-0.22962963,0,0,0,,0,77,77,17,1,PARADE,LB,old,m,./images/PARADELB.png,,,,,,,,,,,,,,,,,,,,,,,,,,,,,,,,,,,
,,,,,,,,,,,,,,,,,5f1b71d5ea92af36dae6b31c,25,2022-02-12_16h50.37.944,lexical_decision_task_DD_L4,2021.2.3,Win32,124.7816321,,,,,,,,,,,1.0453,1,,,,,,,,,,,,,,z,1,1.0453,,,,,,,,-0.276851852,-0.22962963,0,0,0,,0,78,78,102,1,DULLE,C,old,z,./images/DULLE.png,,,,,,,,,,,,,,,,,,,,,,,,,,,,,,,,,,,
,,,,,,,,,,,,,,,,,5f1b71d5ea92af36dae6b31c,25,2022-02-12_16h50.37.944,lexical_decision_task_DD_L4,2021.2.3,Win32,124.7816321,,,,,,,,,,,0.9789,1,,,,,,,,,,,,,,z,1,0.9789,,,,,,,,-0.276851852,-0.22962963,0,0,0,,0,79,79,130,1,CRILL,HB,old,z,./images/CRILLHB.png,,,,,,,,,,,,,,,,,,,,,,,,,,,,,,,,,,,
,,,,,,,,,,,,,,,,,5f1b71d5ea92af36dae6b31c,25,2022-02-12_16h50.37.944,lexical_decision_task_DD_L4,2021.2.3,Win32,124.7816321,,,,,,,,,,,0.7978,1,,,,,,,,,,,,,,m,1,0.7978,,,,,,,,-0.276851852,-0.22962963,0,0,0,,0,80,80,34,1,RAZOR,HB,old,m,./images/RAZORHB.png,,,,,,,,,,,,,,,,,,,,,,,,,,,,,,,,,,,
,,,,,,,,,,,,,,,,,5f1b71d5ea92af36dae6b31c,25,2022-02-12_16h50.37.944,lexical_decision_task_DD_L4,2021.2.3,Win32,124.7816321,,,,,,,,,,,0.6562,1,,,,,,,,,,,,,,m,1,0.6562,,,,,,,,-0.276851852,-0.22962963,0,0,0,,0,81,81,43,1,STOOL,HB,old,m,./images/STOOLHB.png,,,,,,,,,,,,,,,,,,,,,,,,,,,,,,,,,,,
,,,,,,,,,,,,,,,,,5f1b71d5ea92af36dae6b31c,25,2022-02-12_16h50.37.944,lexical_decision_task_DD_L4,2021.2.3,Win32,124.7816321,,,,,,,,,,,0.5981,1,,,,,,,,,,,,,,m,1,0.5981,,,,,,,,-0.276851852,-0.22962963,0,0,0,,0,82,82,26,1,CLOUD,LB,old,m,./images/CLOUDLB.png,,,,,,,,,,,,,,,,,,,,,,,,,,,,,,,,,,,
,,,,,,,,,,,,,,,,,5f1b71d5ea92af36dae6b31c,25,2022-02-12_16h50.37.944,lexical_decision_task_DD_L4,2021.2.3,Win32,124.7816321,,,,,,,,,,,0.6684,1,,,,,,,,,,,,,,z,1,0.6684,,,,,,,,-0.276851852,-0.22962963,0,0,0,space,0,83,83,164,1,SGREW,LB,old,z,./images/SGREWLB.png,6.366,,,,,,,,,,,,,,,,,,,,,,,,,,,,,,,,,,
,,,,,,,,,,,,,,,,,5f1b71d5ea92af36dae6b31c,25,2022-02-12_16h50.37.944,lexical_decision_task_DD_L4,2021.2.3,Win32,124.7816321,,,,,,,,,,,0.6927,1,,,,,,,,,,,,,,m,1,0.6927,,,,,,,,-0.276851852,-0.22962963,0,0,0,,0,84,84,78,1,BROOM,C,old,m,./images/BROOM.png,,,,,,,,,,,,,,,,,,,,,,,,,,,,,,,,,,,
,,,,,,,,,,,,,,,,,5f1b71d5ea92af36dae6b31c,25,2022-02-12_16h50.37.944,lexical_decision_task_DD_L4,2021.2.3,Win32,124.7816321,,,,,,,,,,,0.6414,1,,,,,,,,,,,,,,z,1,0.6414,,,,,,,,-0.276851852,-0.22962963,0,0,0,,0,85,85,135,1,JOODY,C,old,z,./images/JOODY.png,,,,,,,,,,,,,,,,,,,,,,,,,,,,,,,,,,,
,,,,,,,,,,,,,,,,,5f1b71d5ea92af36dae6b31c,25,2022-02-12_16h50.37.944,lexical_decision_task_DD_L4,2021.2.3,Win32,124.7816321,,,,,,,,,,,0.8945,1,,,,,,,,,,,,,,z,1,0.8945,,,,,,,,-0.276851852,-0.22962963,0,0,0,,0,86,86,103,1,FLORT,HB,old,z,./images/FLORTHB.png,,,,,,,,,,,,,,,,,,,,,,,,,,,,,,,,,,,
,,,,,,,,,,,,,,,,,5f1b71d5ea92af36dae6b31c,25,2022-02-12_16h50.37.944,lexical_decision_task_DD_L4,2021.2.3,Win32,124.7816321,,,,,,,,,,,0.6744,1,,,,,,,,,,,,,,m,1,0.6744,,,,,,,,-0.276851852,-0.22962963,0,0,0,,0,87,87,57,1,FERRY,C,old,m,./images/FERRY.png,,,,,,,,,,,,,,,,,,,,,,,,,,,,,,,,,,,
,,,,,,,,,,,,,,,,,5f1b71d5ea92af36dae6b31c,25,2022-02-12_16h50.37.944,lexical_decision_task_DD_L4,2021.2.3,Win32,124.7816321,,,,,,,,,,,0.7122,1,,,,,,,,,,,,,,z,1,0.7122,,,,,,,,-0.276851852,-0.22962963,0,0,0,,0,88,88,149,1,VEASE,LB,old,z,./images/VEASELB.png,,,,,,,,,,,,,,,,,,,,,,,,,,,,,,,,,,,
,,,,,,,,,,,,,,,,,5f1b71d5ea92af36dae6b31c,25,2022-02-12_16h50.37.944,lexical_decision_task_DD_L4,2021.2.3,Win32,124.7816321,,,,,,,,,,,0.6996,1,,,,,,,,,,,,,,m,1,0.6996,,,,,,,,-0.276851852,-0.22962963,0,0,0,,0,89,89,1,1,TOWEL,HB,old,m,./images/TOWELHB.png,,,,,,,,,,,,,,,,,,,,,,,,,,,,,,,,,,,
,,,,,,,,,,,,,,,,,5f1b71d5ea92af36dae6b31c,25,2022-02-12_16h50.37.944,lexical_decision_task_DD_L4,2021.2.3,Win32,124.7816321,,,,,,,,,,,0.5747,1,,,,,,,,,,,,,,m,1,0.5747,,,,,,,,-0.276851852,-0.22962963,0,0,0,,0,90,90,48,1,SHIELD,C,old,m,./images/SHIELD.png,,,,,,,,,,,,,,,,,,,,,,,,,,,,,,,,,,,
,,,,,,,,,,,,,,,,,5f1b71d5ea92af36dae6b31c,25,2022-02-12_16h50.37.944,lexical_decision_task_DD_L4,2021.2.3,Win32,124.7816321,,,,,,,,,,,0.6766,1,,,,,,,,,,,,,,m,1,0.6766,,,,,,,,-0.276851852,-0.22962963,0,0,0,,0,91,91,24,1,FLESH,C,old,m,./images/FLESH.png,,,,,,,,,,,,,,,,,,,,,,,,,,,,,,,,,,,
,,,,,,,,,,,,,,,,,5f1b71d5ea92af36dae6b31c,25,2022-02-12_16h50.37.944,lexical_decision_task_DD_L4,2021.2.3,Win32,124.7816321,,,,,,,,,,,0.671,1,,,,,,,,,,,,,,m,1,0.671,,,,,,,,-0.276851852,-0.22962963,0,0,0,,0,92,92,56,1,HEATER,LB,old,m,./images/HEATERLB.png,,,,,,,,,,,,,,,,,,,,,,,,,,,,,,,,,,,
,,,,,,,,,,,,,,,,,5f1b71d5ea92af36dae6b31c,25,2022-02-12_16h50.37.944,lexical_decision_task_DD_L4,2021.2.3,Win32,124.7816321,,,,,,,,,,,0.7266,0,,,,,,,,,,,,,,m,0,0.7266,,,,,,,,-0.276851852,-0.22962963,0,0,0,,0,93,93,166,1,SHORY,HB,old,z,./images/SHORYHB.png,,,,,,,,,,,,,,,,,,,,,,,,,,,,,,,,,,,
,,,,,,,,,,,,,,,,,5f1b71d5ea92af36dae6b31c,25,2022-02-12_16h50.37.944,lexical_decision_task_DD_L4,2021.2.3,Win32,124.7816321,,,,,,,,,,,0.7173,1,,,,,,,,,,,,,,z,1,0.7173,,,,,,,,-0.276851852,-0.22962963,0,0,0,,0,94,94,150,1,NOOLS,C,old,z,./images/NOOLS.png,,,,,,,,,,,,,,,,,,,,,,,,,,,,,,,,,,,
,,,,,,,,,,,,,,,,,5f1b71d5ea92af36dae6b31c,25,2022-02-12_16h50.37.944,lexical_decision_task_DD_L4,2021.2.3,Win32,124.7816321,,,,,,,,,,,1.0503,1,,,,,,,,,,,,,,z,1,1.0503,,,,,,,,-0.276851852,-0.22962963,0,0,0,,0,95,95,121,1,CEERS,HB,old,z,./images/CEERSHB.png,,,,,,,,,,,,,,,,,,,,,,,,,,,,,,,,,,,
,,,,,,,,,,,,,,,,,5f1b71d5ea92af36dae6b31c,25,2022-02-12_16h50.37.944,lexical_decision_task_DD_L4,2021.2.3,Win32,124.7816321,,,,,,,,,,,0.7674,1,,,,,,,,,,,,,,m,1,0.7674,,,,,,,,-0.276851852,-0.22962963,0,0,0,,0,96,96,3,1,CRATER,C,old,m,./images/CRATER.png,,,,,,,,,,,,,,,,,,,,,,,,,,,,,,,,,,,
,,,,,,,,,,,,,,,,,5f1b71d5ea92af36dae6b31c,25,2022-02-12_16h50.37.944,lexical_decision_task_DD_L4,2021.2.3,Win32,124.7816321,,,,,,,,,,,0.7288,1,,,,,,,,,,,,,,z,1,0.7288,,,,,,,,-0.276851852,-0.22962963,0,0,0,,0,97,97,167,1,ZONET,LB,old,z,./images/ZONETLB.png,,,,,,,,,,,,,,,,,,,,,,,,,,,,,,,,,,,
,,,,,,,,,,,,,,,,,5f1b71d5ea92af36dae6b31c,25,2022-02-12_16h50.37.944,lexical_decision_task_DD_L4,2021.2.3,Win32,124.7816321,,,,,,,,,,,0.611,1,,,,,,,,,,,,,,m,1,0.611,,,,,,,,-0.276851852,-0.22962963,0,0,0,,0,98,98,69,1,ARROW,C,old,m,./images/ARROW.png,,,,,,,,,,,,,,,,,,,,,,,,,,,,,,,,,,,
,,,,,,,,,,,,,,,,,5f1b71d5ea92af36dae6b31c,25,2022-02-12_16h50.37.944,lexical_decision_task_DD_L4,2021.2.3,Win32,124.7816321,,,,,,,,,,,0.7502,1,,,,,,,,,,,,,,z,1,0.7502,,,,,,,,-0.276851852,-0.22962963,0,0,0,,0,99,99,105,1,MOKER,C,old,z,./images/MOKER.png,,,,,,,,,,,,,,,,,,,,,,,,,,,,,,,,,,,
,,,,,,,,,,,,,,,,,5f1b71d5ea92af36dae6b31c,25,2022-02-12_16h50.37.944,lexical_decision_task_DD_L4,2021.2.3,Win32,124.7816321,,,,,,,,,,,1.3671,1,,,,,,,,,,,,,,z,1,1.3671,,,,,,,,-0.276851852,-0.22962963,0,0,0,,0,100,100,139,1,BLEAR,HB,old,z,./images/BLEARHB.png,,,,,,,,,,,,,,,,,,,,,,,,,,,,,,,,,,,
,,,,,,,,,,,,,,,,,5f1b71d5ea92af36dae6b31c,25,2022-02-12_16h50.37.944,lexical_decision_task_DD_L4,2021.2.3,Win32,124.7816321,,,,,,,,,,,1.4327,1,,,,,,,,,,,,,,z,1,1.4327,,,,,,,,-0.276851852,-0.22962963,0,0,0,,0,101,101,157,1,INLER,HB,old,z,./images/INLERHB.png,,,,,,,,,,,,,,,,,,,,,,,,,,,,,,,,,,,
,,,,,,,,,,,,,,,,,5f1b71d5ea92af36dae6b31c,25,2022-02-12_16h50.37.944,lexical_decision_task_DD_L4,2021.2.3,Win32,124.7816321,,,,,,,,,,,0.7562,1,,,,,,,,,,,,,,m,1,0.7562,,,,,,,,-0.276851852,-0.22962963,0,0,0,,0,102,102,18,1,PARCEL,C,old,m,./images/PARCEL.png,,,,,,,,,,,,,,,,,,,,,,,,,,,,,,,,,,,
,,,,,,,,,,,,,,,,,5f1b71d5ea92af36dae6b31c,25,2022-02-12_16h50.37.944,lexical_decision_task_DD_L4,2021.2.3,Win32,124.7816321,,,,,,,,,,,0.8946,0,,,,,,,,,,,,,,z,0,0.8946,,,,,,,,-0.276851852,-0.22962963,0,0,0,,0,103,103,67,1,POKER,HB,old,m,./images/POKERHB.png,,,,,,,,,,,,,,,,,,,,,,,,,,,,,,,,,,,
,,,,,,,,,,,,,,,,,5f1b71d5ea92af36dae6b31c,25,2022-02-12_16h50.37.944,lexical_decision_task_DD_L4,2021.2.3,Win32,124.7816321,,,,,,,,,,,1.1058,1,,,,,,,,,,,,,,m,1,1.1058,,,,,,,,-0.276851852,-0.22962963,0,0,0,,0,104,104,52,1,DESERT,HB,old,m,./images/DESERTHB.png,,,,,,,,,,,,,,,,,,,,,,,,,,,,,,,,,,,
,,,,,,,,,,,,,,,,,5f1b71d5ea92af36dae6b31c,25,2022-02-12_16h50.37.944,lexical_decision_task_DD_L4,2021.2.3,Win32,124.7816321,,,,,,,,,,,0.6163,1,,,,,,,,,,,,,,m,1,0.6163,,,,,,,,-0.276851852,-0.22962963,0,0,0,,0,105,105,15,1,COLLAR,C,old,m,./images/COLLAR.png,,,,,,,,,,,,,,,,,,,,,,,,,,,,,,,,,,,
,,,,,,,,,,,,,,,,,5f1b71d5ea92af36dae6b31c,25,2022-02-12_16h50.37.944,lexical_decision_task_DD_L4,2021.2.3,Win32,124.7816321,,,,,,,,,,,0.7435,1,,,,,,,,,,,,,,z,1,0.7435,,,,,,,,-0.276851852,-0.22962963,0,0,0,,0,106,106,143,1,MONGS,LB,old,z,./images/MONGSLB.png,,,,,,,,,,,,,,,,,,,,,,,,,,,,,,,,,,,
,,,,,,,,,,,,,,,,,5f1b71d5ea92af36dae6b31c,25,2022-02-12_16h50.37.944,lexical_decision_task_DD_L4,2021.2.3,Win32,124.7816321,,,,,,,,,,,0.6229,1,,,,,,,,,,,,,,m,1,0.6229,,,,,,,,-0.276851852,-0.22962963,0,0,0,,0,107,107,75,1,HAMMER,C,old,m,./images/HAMMER.png,,,,,,,,,,,,,,,,,,,,,,,,,,,,,,,,,,,
,,,,,,,,,,,,,,,,,5f1b71d5ea92af36dae6b31c,25,2022-02-12_16h50.37.944,lexical_decision_task_DD_L4,2021.2.3,Win32,124.7816321,,,,,,,,,,,0.6538,1,,,,,,,,,,,,,,z,1,0.6538,,,,,,,,-0.276851852,-0.22962963,0,0,0,,0,108,108,132,1,SCIFF,C,old,z,./images/SCIFF.png,,,,,,,,,,,,,,,,,,,,,,,,,,,,,,,,,,,
,,,,,,,,,,,,,,,,,5f1b71d5ea92af36dae6b31c,25,2022-02-12_16h50.37.944,lexical_decision_task_DD_L4,2021.2.3,Win32,124.7816321,,,,,,,,,,,1.5057,0,,,,,,,,,,,,,,z,0,1.5057,,,,,,,,-0.276851852,-0.22962963,0,0,0,,0,109,109,76,1,MIDGET,HB,old,m,./images/MIDGETHB.png,,,,,,,,,,,,,,,,,,,,,,,,,,,,,,,,,,,
,,,,,,,,,,,,,,,,,5f1b71d5ea92af36dae6b31c,25,2022-02-12_16h50.37.944,lexical_decision_task_DD_L4,2021.2.3,Win32,124.7816321,,,,,,,,,,,0.6905,1,,,,,,,,,,,,,,m,1,0.6905,,,,,,,,-0.276851852,-0.22962963,0,0,0,,0,110,110,41,1,STREAM,LB,old,m,./images/STREAMLB.png,,,,,,,,,,,,,,,,,,,,,,,,,,,,,,,,,,,
,,,,,,,,,,,,,,,,,5f1b71d5ea92af36dae6b31c,25,2022-02-12_16h50.37.944,lexical_decision_task_DD_L4,2021.2.3,Win32,124.7816321,,,,,,,,,,,0.5899,1,,,,,,,,,,,,,,m,1,0.5899,,,,,,,,-0.276851852,-0.22962963,0,0,0,,0,111,111,27,1,BUTTER,C,old,m,./images/BUTTER.png,,,,,,,,,,,,,,,,,,,,,,,,,,,,,,,,,,,
,,,,,,,,,,,,,,,,,5f1b71d5ea92af36dae6b31c,25,2022-02-12_16h50.37.944,lexical_decision_task_DD_L4,2021.2.3,Win32,124.7816321,,,,,,,,,,,0.6384,1,,,,,,,,,,,,,,m,1,0.6384,,,,,,,,-0.276851852,-0.22962963,0,0,0,,0,112,112,68,1,VALLEY,LB,old,m,./images/VALLEYLB.png,,,,,,,,,,,,,,,,,,,,,,,,,,,,,,,,,,,
,,,,,,,,,,,,,,,,,5f1b71d5ea92af36dae6b31c,25,2022-02-12_16h50.37.944,lexical_decision_task_DD_L4,2021.2.3,Win32,124.7816321,,,,,,,,,,,1.6122,1,,,,,,,,,,,,,,z,1,1.6122,,,,,,,,-0.276851852,-0.22962963,0,0,0,,0,113,113,112,1,MYING,HB,old,z,./images/MYINGHB.png,,,,,,,,,,,,,,,,,,,,,,,,,,,,,,,,,,,
,,,,,,,,,,,,,,,,,5f1b71d5ea92af36dae6b31c,25,2022-02-12_16h50.37.944,lexical_decision_task_DD_L4,2021.2.3,Win32,124.7816321,,,,,,,,,,,0.7498,1,,,,,,,,,,,,,,z,1,0.7498,,,,,,,,-0.276851852,-0.22962963,0,0,0,,0,114,114,95,1,HANTY,LB,old,z,./images/HANTYLB.png,,,,,,,,,,,,,,,,,,,,,,,,,,,,,,,,,,,
,,,,,,,,,,,,,,,,,5f1b71d5ea92af36dae6b31c,25,2022-02-12_16h50.37.944,lexical_decision_task_DD_L4,2021.2.3,Win32,124.7816321,,,,,,,,,,,0.7519,0,,,,,,,,,,,,,,m,0,0.7519,,,,,,,,-0.276851852,-0.22962963,0,0,0,,0,115,115,110,1,CRUNK,LB,old,z,./images/CRUNKLB.png,,,,,,,,,,,,,,,,,,,,,,,,,,,,,,,,,,,
,,,,,,,,,,,,,,,,,5f1b71d5ea92af36dae6b31c,25,2022-02-12_16h50.37.944,lexical_decision_task_DD_L4,2021.2.3,Win32,124.7816321,,,,,,,,,,,1.0496,1,,,,,,,,,,,,,,m,1,1.0496,,,,,,,,-0.276851852,-0.22962963,0,0,0,,0,116,116,70,1,BANANA,HB,old,m,./images/BANANAHB.png,,,,,,,,,,,,,,,,,,,,,,,,,,,,,,,,,,,
,,,,,,,,,,,,,,,,,5f1b71d5ea92af36dae6b31c,25,2022-02-12_16h50.37.944,lexical_decision_task_DD_L4,2021.2.3,Win32,124.7816321,,,,,,,,,,,0.6206,1,,,,,,,,,,,,,,z,1,0.6206,,,,,,,,-0.276851852,-0.22962963,0,0,0,,0,117,117,141,1,PLEET,C,old,z,./images/PLEET.png,,,,,,,,,,,,,,,,,,,,,,,,,,,,,,,,,,,
,,,,,,,,,,,,,,,,,5f1b71d5ea92af36dae6b31c,25,2022-02-12_16h50.37.944,lexical_decision_task_DD_L4,2021.2.3,Win32,124.7816321,,,,,,,,,,,1.5392,1,,,,,,,,,,,,,,z,1,1.5392,,,,,,,,-0.276851852,-0.22962963,0,0,0,,0,118,118,109,1,BURGE,HB,old,z,./images/BURGEHB.png,,,,,,,,,,,,,,,,,,,,,,,,,,,,,,,,,,,
,,,,,,,,,,,,,,,,,5f1b71d5ea92af36dae6b31c,25,2022-02-12_16h50.37.944,lexical_decision_task_DD_L4,2021.2.3,Win32,124.7816321,,,,,,,,,,,0.6542,1,,,,,,,,,,,,,,m,1,0.6542,,,,,,,,-0.276851852,-0.22962963,0,0,0,,0,119,119,12,1,BLOKE,C,old,m,./images/BLOKE.png,,,,,,,,,,,,,,,,,,,,,,,,,,,,,,,,,,,
,,,,,,,,,,,,,,,,,5f1b71d5ea92af36dae6b31c,25,2022-02-12_16h50.37.944,lexical_decision_task_DD_L4,2021.2.3,Win32,124.7816321,,,,,,,,,,,1.7176,1,,,,,,,,,,,,,,z,1,1.7176,,,,,,,,-0.276851852,-0.22962963,0,0,0,,0,120,120,127,1,NINDY,HB,old,z,./images/NINDYHB.png,,,,,,,,,,,,,,,,,,,,,,,,,,,,,,,,,,,
,,,,,,,,,,,,,,,,,5f1b71d5ea92af36dae6b31c,25,2022-02-12_16h50.37.944,lexical_decision_task_DD_L4,2021.2.3,Win32,124.7816321,,,,,,,,,,,1.0516,1,,,,,,,,,,,,,,m,1,1.0516,,,,,,,,-0.276851852,-0.22962963,0,0,0,,0,121,121,37,1,TIGER,HB,old,m,./images/TIGERHB.png,,,,,,,,,,,,,,,,,,,,,,,,,,,,,,,,,,,
,,,,,,,,,,,,,,,,,5f1b71d5ea92af36dae6b31c,25,2022-02-12_16h50.37.944,lexical_decision_task_DD_L4,2021.2.3,Win32,124.7816321,,,,,,,,,,,1.5889,1,,,,,,,,,,,,,,z,1,1.5889,,,,,,,,-0.276851852,-0.22962963,0,0,0,,0,122,122,145,1,LAMEL,HB,old,z,./images/LAMELHB.png,,,,,,,,,,,,,,,,,,,,,,,,,,,,,,,,,,,
,,,,,,,,,,,,,,,,,5f1b71d5ea92af36dae6b31c,25,2022-02-12_16h50.37.944,lexical_decision_task_DD_L4,2021.2.3,Win32,124.7816321,,,,,,,,,,,0.8464,1,,,,,,,,,,,,,,z,1,0.8464,,,,,,,,-0.276851852,-0.22962963,0,0,0,,0,123,123,129,1,PRANS,C,old,z,./images/PRANS.png,,,,,,,,,,,,,,,,,,,,,,,,,,,,,,,,,,,
,,,,,,,,,,,,,,,,,5f1b71d5ea92af36dae6b31c,25,2022-02-12_16h50.37.944,lexical_decision_task_DD_L4,2021.2.3,Win32,124.7816321,,,,,,,,,,,1.0406,1,,,,,,,,,,,,,,m,1,1.0406,,,,,,,,-0.276851852,-0.22962963,0,0,0,,0,124,124,25,1,CHALK,HB,old,m,./images/CHALKHB.png,,,,,,,,,,,,,,,,,,,,,,,,,,,,,,,,,,,
,,,,,,,,,,,,,,,,,5f1b71d5ea92af36dae6b31c,25,2022-02-12_16h50.37.944,lexical_decision_task_DD_L4,2021.2.3,Win32,124.7816321,,,,,,,,,,,1.0998,1,,,,,,,,,,,,,,m,1,1.0998,,,,,,,,-0.276851852,-0.22962963,0,0,0,space,0,125,125,16,1,GRAPE,HB,old,m,./images/GRAPEHB.png,6.4563,,,,,,,,,,,,,,,,,,,,,,,,,,,,,,,,,,
,,,,,,,,,,,,,,,,,5f1b71d5ea92af36dae6b31c,25,2022-02-12_16h50.37.944,lexical_decision_task_DD_L4,2021.2.3,Win32,124.7816321,,,,,,,,,,,0.7675,1,,,,,,,,,,,,,,z,1,0.7675,,,,,,,,-0.276851852,-0.22962963,0,0,0,,0,126,126,152,1,FRAIN,LB,old,z,./images/FRAINLB.png,,,,,,,,,,,,,,,,,,,,,,,,,,,,,,,,,,,
,,,,,,,,,,,,,,,,,5f1b71d5ea92af36dae6b31c,25,2022-02-12_16h50.37.944,lexical_decision_task_DD_L4,2021.2.3,Win32,124.7816321,,,,,,,,,,,1.0692,1,,,,,,,,,,,,,,m,1,1.0692,,,,,,,,-0.276851852,-0.22962963,0,0,0,,0,127,127,46,1,MUMMY,HB,old,m,./images/MUMMYHB.png,,,,,,,,,,,,,,,,,,,,,,,,,,,,,,,,,,,
,,,,,,,,,,,,,,,,,5f1b71d5ea92af36dae6b31c,25,2022-02-12_16h50.37.944,lexical_decision_task_DD_L4,2021.2.3,Win32,124.7816321,,,,,,,,,,,1.7562,1,,,,,,,,,,,,,,z,1,1.7562,,,,,,,,-0.276851852,-0.22962963,0,0,0,,0,128,128,106,1,CLUMS,HB,old,z,./images/CLUMSHB.png,,,,,,,,,,,,,,,,,,,,,,,,,,,,,,,,,,,
,,,,,,,,,,,,,,,,,5f1b71d5ea92af36dae6b31c,25,2022-02-12_16h50.37.944,lexical_decision_task_DD_L4,2021.2.3,Win32,124.7816321,,,,,,,,,,,0.9234,1,,,,,,,,,,,,,,m,1,0.9234,,,,,,,,-0.276851852,-0.22962963,0,0,0,,0,129,129,47,1,LAGOON,LB,old,m,./images/LAGOONLB.png,,,,,,,,,,,,,,,,,,,,,,,,,,,,,,,,,,,
,,,,,,,,,,,,,,,,,5f1b71d5ea92af36dae6b31c,25,2022-02-12_16h50.37.944,lexical_decision_task_DD_L4,2021.2.3,Win32,124.7816321,,,,,,,,,,,0.735,1,,,,,,,,,,,,,,m,1,0.735,,,,,,,,-0.276851852,-0.22962963,0,0,0,,0,130,130,81,1,DRILL,C,old,m,./images/DRILL.png,,,,,,,,,,,,,,,,,,,,,,,,,,,,,,,,,,,
,,,,,,,,,,,,,,,,,5f1b71d5ea92af36dae6b31c,25,2022-02-12_16h50.37.944,lexical_decision_task_DD_L4,2021.2.3,Win32,124.7816321,,,,,,,,,,,0.8216,1,,,,,,,,,,,,,,m,1,0.8216,,,,,,,,-0.276851852,-0.22962963,0,0,0,,0,131,131,53,1,POSTER,LB,old,m,./images/POSTERLB.png,,,,,,,,,,,,,,,,,,,,,,,,,,,,,,,,,,,
,,,,,,,,,,,,,,,,,5f1b71d5ea92af36dae6b31c,25,2022-02-12_16h50.37.944,lexical_decision_task_DD_L4,2021.2.3,Win32,124.7816321,,,,,,,,,,,1.0426,1,,,,,,,,,,,,,,m,1,1.0426,,,,,,,,-0.276851852,-0.22962963,0,0,0,,0,132,132,58,1,CANOE,HB,old,m,./images/CANOEHB.png,,,,,,,,,,,,,,,,,,,,,,,,,,,,,,,,,,,
,,,,,,,,,,,,,,,,,5f1b71d5ea92af36dae6b31c,25,2022-02-12_16h50.37.944,lexical_decision_task_DD_L4,2021.2.3,Win32,124.7816321,,,,,,,,,,,1.0835,1,,,,,,,,,,,,,,m,1,1.0835,,,,,,,,-0.276851852,-0.22962963,0,0,0,,0,133,133,83,1,WHISKY,LB,old,m,./images/WHISKYLB.png,,,,,,,,,,,,,,,,,,,,,,,,,,,,,,,,,,,
,,,,,,,,,,,,,,,,,5f1b71d5ea92af36dae6b31c,25,2022-02-12_16h50.37.944,lexical_decision_task_DD_L4,2021.2.3,Win32,124.7816321,,,,,,,,,,,1.3815,1,,,,,,,,,,,,,,m,1,1.3815,,,,,,,,-0.276851852,-0.22962963,0,0,0,,0,134,134,82,1,PEBBLE,HB,old,m,./images/PEBBLEHB.png,,,,,,,,,,,,,,,,,,,,,,,,,,,,,,,,,,,
,,,,,,,,,,,,,,,,,5f1b71d5ea92af36dae6b31c,25,2022-02-12_16h50.37.944,lexical_decision_task_DD_L4,2021.2.3,Win32,124.7816321,,,,,,,,,,,0.7179,1,,,,,,,,,,,,,,m,1,0.7179,,,,,,,,-0.276851852,-0.22962963,0,0,0,,0,135,135,50,1,PILOT,LB,old,m,./images/PILOTLB.png,,,,,,,,,,,,,,,,,,,,,,,,,,,,,,,,,,,
,,,,,,,,,,,,,,,,,5f1b71d5ea92af36dae6b31c,25,2022-02-12_16h50.37.944,lexical_decision_task_DD_L4,2021.2.3,Win32,124.7816321,,,,,,,,,,,0.6768,1,,,,,,,,,,,,,,m,1,0.6768,,,,,,,,-0.276851852,-0.22962963,0,0,0,,0,136,136,72,1,FLASK,C,old,m,./images/FLASK.png,,,,,,,,,,,,,,,,,,,,,,,,,,,,,,,,,,,
,,,,,,,,,,,,,,,,,5f1b71d5ea92af36dae6b31c,25,2022-02-12_16h50.37.944,lexical_decision_task_DD_L4,2021.2.3,Win32,124.7816321,,,,,,,,,,,0.9619,1,,,,,,,,,,,,,,z,1,0.9619,,,,,,,,-0.276851852,-0.22962963,0,0,0,,0,137,137,114,1,RIKES,C,old,z,./images/RIKES.png,,,,,,,,,,,,,,,,,,,,,,,,,,,,,,,,,,,
,,,,,,,,,,,,,,,,,5f1b71d5ea92af36dae6b31c,25,2022-02-12_16h50.37.944,lexical_decision_task_DD_L4,2021.2.3,Win32,124.7816321,,,,,,,,,,,0.9902,1,,,,,,,,,,,,,,m,1,0.9902,,,,,,,,-0.276851852,-0.22962963,0,0,0,,0,138,138,28,1,CASINO,HB,old,m,./images/CASINOHB.png,,,,,,,,,,,,,,,,,,,,,,,,,,,,,,,,,,,
,,,,,,,,,,,,,,,,,5f1b71d5ea92af36dae6b31c,25,2022-02-12_16h50.37.944,lexical_decision_task_DD_L4,2021.2.3,Win32,124.7816321,,,,,,,,,,,0.6079,1,,,,,,,,,,,,,,m,1,0.6079,,,,,,,,-0.276851852,-0.22962963,0,0,0,,0,139,139,63,1,BAKER,C,old,m,./images/BAKER.png,,,,,,,,,,,,,,,,,,,,,,,,,,,,,,,,,,,
,,,,,,,,,,,,,,,,,5f1b71d5ea92af36dae6b31c,25,2022-02-12_16h50.37.944,lexical_decision_task_DD_L4,2021.2.3,Win32,124.7816321,,,,,,,,,,,0.8616,1,,,,,,,,,,,,,,z,1,0.8616,,,,,,,,-0.276851852,-0.22962963,0,0,0,,0,140,140,90,1,NEAST,C,old,z,./images/NEAST.png,,,,,,,,,,,,,,,,,,,,,,,,,,,,,,,,,,,
,,,,,,,,,,,,,,,,,5f1b71d5ea92af36dae6b31c,25,2022-02-12_16h50.37.944,lexical_decision_task_DD_L4,2021.2.3,Win32,124.7816321,,,,,,,,,,,0.8054,1,,,,,,,,,,,,,,m,1,0.8054,,,,,,,,-0.276851852,-0.22962963,0,0,0,,0,141,141,51,1,SAUCE,C,old,m,./images/SAUCE.png,,,,,,,,,,,,,,,,,,,,,,,,,,,,,,,,,,,
,,,,,,,,,,,,,,,,,5f1b71d5ea92af36dae6b31c,25,2022-02-12_16h50.37.944,lexical_decision_task_DD_L4,2021.2.3,Win32,124.7816321,,,,,,,,,,,1.2755,1,,,,,,,,,,,,,,m,1,1.2755,,,,,,,,-0.276851852,-0.22962963,0,0,0,,0,142,142,40,1,SNAKE,HB,old,m,./images/SNAKEHB.png,,,,,,,,,,,,,,,,,,,,,,,,,,,,,,,,,,,
,,,,,,,,,,,,,,,,,5f1b71d5ea92af36dae6b31c,25,2022-02-12_16h50.37.944,lexical_decision_task_DD_L4,2021.2.3,Win32,124.7816321,,,,,,,,,,,0.6807,1,,,,,,,,,,,,,,m,1,0.6807,,,,,,,,-0.276851852,-0.22962963,0,0,0,,0,143,143,66,1,STATUE,C,old,m,./images/STATUE.png,,,,,,,,,,,,,,,,,,,,,,,,,,,,,,,,,,,
,,,,,,,,,,,,,,,,,5f1b71d5ea92af36dae6b31c,25,2022-02-12_16h50.37.944,lexical_decision_task_DD_L4,2021.2.3,Win32,124.7816321,,,,,,,,,,,0.5729,1,,,,,,,,,,,,,,m,1,0.5729,,,,,,,,-0.276851852,-0.22962963,0,0,0,,0,144,144,21,1,DANCER,C,old,m,./images/DANCER.png,,,,,,,,,,,,,,,,,,,,,,,,,,,,,,,,,,,
,,,,,,,,,,,,,,,,,5f1b71d5ea92af36dae6b31c,25,2022-02-12_16h50.37.944,lexical_decision_task_DD_L4,2021.2.3,Win32,124.7816321,,,,,,,,,,,0.8291,1,,,,,,,,,,,,,,z,1,0.8291,,,,,,,,-0.276851852,-0.22962963,0,0,0,,0,145,145,158,1,EGECT,LB,old,z,./images/EGECTLB.png,,,,,,,,,,,,,,,,,,,,,,,,,,,,,,,,,,,
,,,,,,,,,,,,,,,,,5f1b71d5ea92af36dae6b31c,25,2022-02-12_16h50.37.944,lexical_decision_task_DD_L4,2021.2.3,Win32,124.7816321,,,,,,,,,,,2.4105,1,,,,,,,,,,,,,,m,1,2.4105,,,,,,,,-0.276851852,-0.22962963,0,0,0,,0,146,146,10,1,GARDEN,HB,old,m,./images/GARDENHB.png,,,,,,,,,,,,,,,,,,,,,,,,,,,,,,,,,,,
,,,,,,,,,,,,,,,,,5f1b71d5ea92af36dae6b31c,25,2022-02-12_16h50.37.944,lexical_decision_task_DD_L4,2021.2.3,Win32,124.7816321,,,,,,,,,,,3.0221,1,,,,,,,,,,,,,,z,1,3.0221,,,,,,,,-0.276851852,-0.22962963,0,0,0,,0,147,147,133,1,POWDY,HB,old,z,./images/POWDYHB.png,,,,,,,,,,,,,,,,,,,,,,,,,,,,,,,,,,,
,,,,,,,,,,,,,,,,,5f1b71d5ea92af36dae6b31c,25,2022-02-12_16h50.37.944,lexical_decision_task_DD_L4,2021.2.3,Win32,124.7816321,,,,,,,,,,,0.8443,1,,,,,,,,,,,,,,z,1,0.8443,,,,,,,,-0.276851852,-0.22962963,0,0,0,,0,148,148,89,1,DRIEK,LB,old,z,./images/DRIEKLB.png,,,,,,,,,,,,,,,,,,,,,,,,,,,,,,,,,,,
,,,,,,,,,,,,,,,,,5f1b71d5ea92af36dae6b31c,25,2022-02-12_16h50.37.944,lexical_decision_task_DD_L4,2021.2.3,Win32,124.7816321,,,,,,,,,,,0.7754,1,,,,,,,,,,,,,,z,1,0.7754,,,,,,,,-0.276851852,-0.22962963,0,0,0,,0,149,149,146,1,MOOST,LB,old,z,./images/MOOSTLB.png,,,,,,,,,,,,,,,,,,,,,,,,,,,,,,,,,,,
,,,,,,,,,,,,,,,,,5f1b71d5ea92af36dae6b31c,25,2022-02-12_16h50.37.944,lexical_decision_task_DD_L4,2021.2.3,Win32,124.7816321,,,,,,,,,,,1.1664,1,,,,,,,,,,,,,,z,1,1.1664,,,,,,,,-0.276851852,-0.22962963,0,0,0,,0,150,150,98,1,BAMPS,LB,old,z,./images/BAMPSLB.png,,,,,,,,,,,,,,,,,,,,,,,,,,,,,,,,,,,
,,,,,,,,,,,,,,,,,5f1b71d5ea92af36dae6b31c,25,2022-02-12_16h50.37.944,lexical_decision_task_DD_L4,2021.2.3,Win32,124.7816321,,,,,,,,,,,1.1156,1,,,,,,,,,,,,,,z,1,1.1156,,,,,,,,-0.276851852,-0.22962963,0,0,0,,0,151,151,113,1,LINEW,LB,old,z,./images/LINEWLB.png,,,,,,,,,,,,,,,,,,,,,,,,,,,,,,,,,,,
,,,,,,,,,,,,,,,,,5f1b71d5ea92af36dae6b31c,25,2022-02-12_16h50.37.944,lexical_decision_task_DD_L4,2021.2.3,Win32,124.7816321,,,,,,,,,,,0.9044,1,,,,,,,,,,,,,,z,1,0.9044,,,,,,,,-0.276851852,-0.22962963,0,0,0,,0,152,152,153,1,CLUPS,C,old,z,./images/CLUPS.png,,,,,,,,,,,,,,,,,,,,,,,,,,,,,,,,,,,
,,,,,,,,,,,,,,,,,5f1b71d5ea92af36dae6b31c,25,2022-02-12_16h50.37.944,lexical_decision_task_DD_L4,2021.2.3,Win32,124.7816321,,,,,,,,,,,0.9666,1,,,,,,,,,,,,,,z,1,0.9666,,,,,,,,-0.276851852,-0.22962963,0,0,0,,0,153,153,99,1,BACKY,C,old,z,./images/BACKY.png,,,,,,,,,,,,,,,,,,,,,,,,,,,,,,,,,,,
,,,,,,,,,,,,,,,,,5f1b71d5ea92af36dae6b31c,25,2022-02-12_16h50.37.944,lexical_decision_task_DD_L4,2021.2.3,Win32,124.7816321,,,,,,,,,,,1.5683,1,,,,,,,,,,,,,,z,1,1.5683,,,,,,,,-0.276851852,-0.22962963,0,0,0,,0,154,154,107,1,FASKS,LB,old,z,./images/FASKSLB.png,,,,,,,,,,,,,,,,,,,,,,,,,,,,,,,,,,,
,,,,,,,,,,,,,,,,,5f1b71d5ea92af36dae6b31c,25,2022-02-12_16h50.37.944,lexical_decision_task_DD_L4,2021.2.3,Win32,124.7816321,,,,,,,,,,,2.239,1,,,,,,,,,,,,,,z,1,2.239,,,,,,,,-0.276851852,-0.22962963,0,0,0,,0,155,155,115,1,MAWNS,HB,old,z,./images/MAWNSHB.png,,,,,,,,,,,,,,,,,,,,,,,,,,,,,,,,,,,
,,,,,,,,,,,,,,,,,5f1b71d5ea92af36dae6b31c,25,2022-02-12_16h50.37.944,lexical_decision_task_DD_L4,2021.2.3,Win32,124.7816321,,,,,,,,,,,1.5174,1,,,,,,,,,,,,,,z,1,1.5174,,,,,,,,-0.276851852,-0.22962963,0,0,0,,0,156,156,155,1,CANGY,LB,old,z,./images/CANGYLB.png,,,,,,,,,,,,,,,,,,,,,,,,,,,,,,,,,,,
,,,,,,,,,,,,,,,,,5f1b71d5ea92af36dae6b31c,25,2022-02-12_16h50.37.944,lexical_decision_task_DD_L4,2021.2.3,Win32,124.7816321,,,,,,,,,,,1.2939,1,,,,,,,,,,,,,,z,1,1.2939,,,,,,,,-0.276851852,-0.22962963,0,0,0,,0,157,157,108,1,GRUET,C,old,z,./images/GRUET.png,,,,,,,,,,,,,,,,,,,,,,,,,,,,,,,,,,,
,,,,,,,,,,,,,,,,,5f1b71d5ea92af36dae6b31c,25,2022-02-12_16h50.37.944,lexical_decision_task_DD_L4,2021.2.3,Win32,124.7816321,,,,,,,,,,,1.2238,1,,,,,,,,,,,,,,m,1,1.2238,,,,,,,,-0.276851852,-0.22962963,0,0,0,,0,158,158,61,1,ARTIST,HB,old,m,./images/ARTISTHB.png,,,,,,,,,,,,,,,,,,,,,,,,,,,,,,,,,,,
,,,,,,,,,,,,,,,,,5f1b71d5ea92af36dae6b31c,25,2022-02-12_16h50.37.944,lexical_decision_task_DD_L4,2021.2.3,Win32,124.7816321,,,,,,,,,,,1.2209,1,,,,,,,,,,,,,,m,1,1.2209,,,,,,,,-0.276851852,-0.22962963,0,0,0,,0,159,159,13,1,BUNNY,HB,old,m,./images/BUNNYHB.png,,,,,,,,,,,,,,,,,,,,,,,,,,,,,,,,,,,
,,,,,,,,,,,,,,,,,5f1b71d5ea92af36dae6b31c,25,2022-02-12_16h50.37.944,lexical_decision_task_DD_L4,2021.2.3,Win32,124.7816321,,,,,,,,,,,0.7543,1,,,,,,,,,,,,,,z,1,0.7543,,,,,,,,-0.276851852,-0.22962963,0,0,0,,0,160,160,161,1,BLAPS,LB,old,z,./images/BLAPSLB.png,,,,,,,,,,,,,,,,,,,,,,,,,,,,,,,,,,,
,,,,,,,,,,,,,,,,,5f1b71d5ea92af36dae6b31c,25,2022-02-12_16h50.37.944,lexical_decision_task_DD_L4,2021.2.3,Win32,124.7816321,,,,,,,,,,,1.1505,1,,,,,,,,,,,,,,m,1,1.1505,,,,,,,,-0.276851852,-0.22962963,0,0,0,,0,161,161,4,1,BOXER,HB,old,m,./images/BOXERHB.png,,,,,,,,,,,,,,,,,,,,,,,,,,,,,,,,,,,
,,,,,,,,,,,,,,,,,5f1b71d5ea92af36dae6b31c,25,2022-02-12_16h50.37.944,lexical_decision_task_DD_L4,2021.2.3,Win32,124.7816321,,,,,,,,,,,0.6727,1,,,,,,,,,,,,,,z,1,0.6727,,,,,,,,-0.276851852,-0.22962963,0,0,0,,0,162,162,162,1,LEICH,C,old,z,./images/LEICH.png,,,,,,,,,,,,,,,,,,,,,,,,,,,,,,,,,,,
,,,,,,,,,,,,,,,,,5f1b71d5ea92af36dae6b31c,25,2022-02-12_16h50.37.944,lexical_decision_task_DD_L4,2021.2.3,Win32,124.7816321,,,,,,,,,,,0.7039,1,,,,,,,,,,,,,,m,1,0.7039,,,,,,,,-0.276851852,-0.22962963,0,0,0,,0,163,163,60,1,CURRY,C,old,m,./images/CURRY.png,,,,,,,,,,,,,,,,,,,,,,,,,,,,,,,,,,,
,,,,,,,,,,,,,,,,,5f1b71d5ea92af36dae6b31c,25,2022-02-12_16h50.37.944,lexical_decision_task_DD_L4,2021.2.3,Win32,124.7816321,,,,,,,,,,,0.8542,1,,,,,,,,,,,,,,m,1,0.8542,,,,,,,,-0.276851852,-0.22962963,0,0,0,,0,164,164,8,1,CLIFF,LB,old,m,./images/CLIFFLB.png,,,,,,,,,,,,,,,,,,,,,,,,,,,,,,,,,,,
,,,,,,,,,,,,,,,,,5f1b71d5ea92af36dae6b31c,25,2022-02-12_16h50.37.944,lexical_decision_task_DD_L4,2021.2.3,Win32,124.7816321,,,,,,,,,,,0.7312,1,,,,,,,,,,,,,,m,1,0.7312,,,,,,,,-0.276851852,-0.22962963,0,0,0,,0,165,165,71,1,BUBBLE,LB,old,m,./images/BUBBLELB.png,,,,,,,,,,,,,,,,,,,,,,,,,,,,,,,,,,,
,,,,,,,,,,,,,,,,,5f1b71d5ea92af36dae6b31c,25,2022-02-12_16h50.37.944,lexical_decision_task_DD_L4,2021.2.3,Win32,124.7816321,,,,,,,,,,,1.3196,1,,,,,,,,,,,,,,z,1,1.3196,,,,,,,,-0.276851852,-0.22962963,0,0,0,,0,166,166,137,1,JOOST,LB,old,z,./images/JOOSTLB.png,,,,,,,,,,,,,,,,,,,,,,,,,,,,,,,,,,,
,,,,,,,,,,,,,,,,,5f1b71d5ea92af36dae6b31c,25,2022-02-12_16h50.37.944,lexical_decision_task_DD_L4,2021.2.3,Win32,124.7816321,,,,,,,,,,,3.1492,1,,,,,,,,,,,,,,z,1,3.1492,,,,,,,,-0.276851852,-0.22962963,0,0,0,,0,167,167,118,1,BAVEL,HB,old,z,./images/BAVELHB.png,,,,,,,,,,,,,,,,,,,,,,,,,,,,,,,,,,,
,,,,,,,,,,,,,,,,,5f1b71d5ea92af36dae6b31c,25,2022-02-12_16h50.37.944,lexical_decision_task_DD_L4,2021.2.3,Win32,124.7816321,,,,,,,,,,,,,,,,,,,,,,,,,,,,,,,,,,,,,,,,,,,,,,,,How likely will it be that you will recognize the words presented slighly blurred on a scale of 0 (not likely) to 100 (most likely)?,,,,,-0.006481481,-0.4,1,0,0,jol_adv,5,7.0544,0,0,0,1,1,,,,,,,,,,,,,,,,,,,,,
,,,,,,,,,,,,,,,,,5f1b71d5ea92af36dae6b31c,25,2022-02-12_16h50.37.944,lexical_decision_task_DD_L4,2021.2.3,Win32,124.7816321,,,,,,,,,,,,,,,,,,,,,,,,,,,,,,,,,,,,,,,,,,,,,,,,How likely will it be that you will recognize the words presented very blurred on a scale of 0 (not likely) to 100 (most likely)?,,,,,,,,,,,6,1.5428,0,1,1,2,1,,,,,,,,,,,,,,,,,,,,,
,,,,,,,,,,,,,,,,,5f1b71d5ea92af36dae6b31c,25,2022-02-12_16h50.37.944,lexical_decision_task_DD_L4,2021.2.3,Win32,124.7816321,,,,,,,,,,,,,,,,,,,,,,,,,,,,,,,,,,,,,,,,,,,,,,,,How likely will it be that you will recognize the words presented clearly on a scale of 0 (not likely) to 100 (most likely)?,,,,,,,,,,,6,5.1212,0,2,2,0,1,,,,,,,,,,,,,,,,,,,,,
,,-0.042592593,-0.385185185,1,0,0,,,,,,1,test,"In the next phase you will be presented with the words from the the first phase. Your job is to decide whether you remember seeing the word or not. If you remember seeing the word press ""old"" or type ""m"". If you do not remember seeing the word press ""new"" or type ""z"". Please press the space bar or click on continue to begin. ",,,5f1b71d5ea92af36dae6b31c,25,2022-02-12_16h50.37.944,lexical_decision_task_DD_L4,2021.2.3,Win32,124.7816321,,,,,,,,,,,,,,,,,,,,,,,,,,,,,,,,,,,,,,,,,,,,,,,,,,,,,,,,,,,,,,,,,,instr_done_button,0,0,0,0,1,,,,,,,,,,,,,,,
space,2.6856,-0.017592593,-0.397222222,0,0,0,,,,,,1,test,"In the next phase you will be presented with the words from the the first phase. Your job is to decide whether you remember seeing the word or not. If you remember seeing the word press ""old"" or type ""m"". If you do not remember seeing the word press ""new"" or type ""z"". Please press the space bar or click on continue to begin. ",,,5f1b71d5ea92af36dae6b31c,25,2022-02-12_16h50.37.944,lexical_decision_task_DD_L4,2021.2.3,Win32,124.7816321,,,,,,,,,,,,,,,,,,,,,,,,,,,,,,,,,,,,,,,,,,,,,,,,,,,,,,,,,,,,,,,,,,,1,0,1,0,1,,,,,,,,,,,,,,,
,,-0.087962963,-0.391666667,1,0,0,,,,,,1,test,"In the next phase you will be presented with the words from the the first phase. Your job is to decide whether you remember seeing the word or not. If you remember seeing the word press ""old"" or type ""m"". If you do not remember seeing the word press ""new"" or type ""z"". Please press the space bar or click on continue to begin. ",,,5f1b71d5ea92af36dae6b31c,25,2022-02-12_16h50.37.944,lexical_decision_task_DD_L4,2021.2.3,Win32,124.7816321,,,,,,,,,,,,,,,,,,,,,,,,,,,,,,,,,,,,,,,,,,,,,,,,,,,,,,,,,,,,,,,,,,instr_done_button,2,0,2,0,1,,,,,,,,,,,,,,,
space,1.9939,0.082407407,0.176851852,0,0,0,,,,,,1,test,"In the next phase you will be presented with the words from the the first phase. Your job is to decide whether you remember seeing the word or not. If you remember seeing the word press ""old"" or type ""m"". If you do not remember seeing the word press ""new"" or type ""z"". Please press the space bar or click on continue to begin. ",,,5f1b71d5ea92af36dae6b31c,25,2022-02-12_16h50.37.944,lexical_decision_task_DD_L4,2021.2.3,Win32,124.7816321,,,,,,,,,,,,,,,,,,,,,,,,,,,,,,,,,,,,,,,,,,,,,,,,,,,,,,,,,,,,,,,,,,,3,0,3,0,1,,,,,,,,,,,,,,,
space,2.8619,0.082407407,0.176851852,0,0,0,,,,,,1,test,"In the next phase you will be presented with the words from the the first phase. Your job is to decide whether you remember seeing the word or not. If you remember seeing the word press ""old"" or type ""m"". If you do not remember seeing the word press ""new"" or type ""z"". Please press the space bar or click on continue to begin. ",,,5f1b71d5ea92af36dae6b31c,25,2022-02-12_16h50.37.944,lexical_decision_task_DD_L4,2021.2.3,Win32,124.7816321,,,,,,,,,,,,,,,,,,,,,,,,,,,,,,,,,,,,,,,,,,,,,,,,,,,,,,,,,,,,,,,,,,,4,0,4,0,1,,,,,,,,,,,,,,,
,,,,,,,,,,,,,,,,,5f1b71d5ea92af36dae6b31c,25,2022-02-12_16h50.37.944,lexical_decision_task_DD_L4,2021.2.3,Win32,124.7816321,,,,,,,,,,,2.3906,1,,,,,,,,,,,,,,,,,,,,,,,,0.082407407,0.176851852,0,0,0,,,,,,,BISHOP,HB,m,y,./images/BISHOPHB.png,,,,,,,,,,,,,,,,,,,,,m,1,2.3906,,,,,,,,0,0,0,49,1
,,,,,,,,,,,,,,,,,5f1b71d5ea92af36dae6b31c,25,2022-02-12_16h50.37.944,lexical_decision_task_DD_L4,2021.2.3,Win32,124.7816321,,,,,,,,,,,0.9835,1,,,,,,,,,,,,,,,,,,,,,,,,0.082407407,0.176851852,0,0,0,,,,,,,WALNUT,C,m,y,./images/WALNUT.png,,,,,,,,,,,,,,,,,,,,,m,1,0.9835,,,,,,,,0,1,1,0,1
,,,,,,,,,,,,,,,,,5f1b71d5ea92af36dae6b31c,25,2022-02-12_16h50.37.944,lexical_decision_task_DD_L4,2021.2.3,Win32,124.7816321,,,,,,,,,,,0.6648,1,,,,,,,,,,,,,,,,,,,,,,,,0.082407407,0.176851852,0,0,0,,,,,,,ARROW,C,m,y,./images/ARROW.png,,,,,,,,,,,,,,,,,,,,,m,1,0.6648,,,,,,,,0,2,2,69,1
,,,,,,,,,,,,,,,,,5f1b71d5ea92af36dae6b31c,25,2022-02-12_16h50.37.944,lexical_decision_task_DD_L4,2021.2.3,Win32,124.7816321,,,,,,,,,,,0.9662,1,,,,,,,,,,,,,,,,,,,,,,,,0.082407407,0.176851852,0,0,0,,,,,,,LAGOON,LB,m,y,./images/LAGOONLB.png,,,,,,,,,,,,,,,,,,,,,m,1,0.9662,,,,,,,,0,3,3,47,1
,,,,,,,,,,,,,,,,,5f1b71d5ea92af36dae6b31c,25,2022-02-12_16h50.37.944,lexical_decision_task_DD_L4,2021.2.3,Win32,124.7816321,,,,,,,,,,,2.3266,1,,,,,,,,,,,,,,,,,,,,,,,,0.082407407,0.176851852,0,0,0,,,,,,,CRUST,HB,z,y,./images/CRUSTHB.png,,,,,,,,,,,,,,,,,,,,,z,1,2.3266,,,,,,,,0,4,4,163,1
,,,,,,,,,,,,,,,,,5f1b71d5ea92af36dae6b31c,25,2022-02-12_16h50.37.944,lexical_decision_task_DD_L4,2021.2.3,Win32,124.7816321,,,,,,,,,,,3.551,1,,,,,,,,,,,,,,,,,,,,,,,,0.082407407,0.176851852,0,0,0,,,,,,,CLOUD,LB,m,y,./images/CLOUDLB.png,,,,,,,,,,,,,,,,,,,,,m,1,3.551,,,,,,,,0,5,5,26,1
,,,,,,,,,,,,,,,,,5f1b71d5ea92af36dae6b31c,25,2022-02-12_16h50.37.944,lexical_decision_task_DD_L4,2021.2.3,Win32,124.7816321,,,,,,,,,,,0.8211,1,,,,,,,,,,,,,,,,,,,,,,,,0.082407407,0.176851852,0,0,0,,,,,,,NOOSE,C,z,y,./images/NOOSE.png,,,,,,,,,,,,,,,,,,,,,z,1,0.8211,,,,,,,,0,6,6,156,1
,,,,,,,,,,,,,,,,,5f1b71d5ea92af36dae6b31c,25,2022-02-12_16h50.37.944,lexical_decision_task_DD_L4,2021.2.3,Win32,124.7816321,,,,,,,,,,,0.9808,1,,,,,,,,,,,,,,,,,,,,,,,,0.082407407,0.176851852,0,0,0,,,,,,,SNAKE,HB,m,y,./images/SNAKEHB.png,,,,,,,,,,,,,,,,,,,,,m,1,0.9808,,,,,,,,0,7,7,40,1
,,,,,,,,,,,,,,,,,5f1b71d5ea92af36dae6b31c,25,2022-02-12_16h50.37.944,lexical_decision_task_DD_L4,2021.2.3,Win32,124.7816321,,,,,,,,,,,0.861,1,,,,,,,,,,,,,,,,,,,,,,,,0.082407407,0.176851852,0,0,0,,,,,,,STORM,C,z,y,./images/STORM.png,,,,,,,,,,,,,,,,,,,,,z,1,0.861,,,,,,,,0,8,8,114,1
,,,,,,,,,,,,,,,,,5f1b71d5ea92af36dae6b31c,25,2022-02-12_16h50.37.944,lexical_decision_task_DD_L4,2021.2.3,Win32,124.7816321,,,,,,,,,,,1.0341,1,,,,,,,,,,,,,,,,,,,,,,,,0.082407407,0.176851852,0,0,0,,,,,,,SAILOR,HB,z,y,./images/SAILORHB.png,,,,,,,,,,,,,,,,,,,,,z,1,1.0341,,,,,,,,0,9,9,151,1
,,,,,,,,,,,,,,,,,5f1b71d5ea92af36dae6b31c,25,2022-02-12_16h50.37.944,lexical_decision_task_DD_L4,2021.2.3,Win32,124.7816321,,,,,,,,,,,0.8831,1,,,,,,,,,,,,,,,,,,,,,,,,0.082407407,0.176851852,0,0,0,,,,,,,FARMER,LB,z,y,./images/FARMERLB.png,,,,,,,,,,,,,,,,,,,,,z,1,0.8831,,,,,,,,0,10,10,149,1
,,,,,,,,,,,,,,,,,5f1b71d5ea92af36dae6b31c,25,2022-02-12_16h50.37.944,lexical_decision_task_DD_L4,2021.2.3,Win32,124.7816321,,,,,,,,,,,0.6859,1,,,,,,,,,,,,,,,,,,,,,,,,0.082407407,0.176851852,0,0,0,,,,,,,BASKET,LB,m,y,./images/BASKETLB.png,,,,,,,,,,,,,,,,,,,,,m,1,0.6859,,,,,,,,0,11,11,44,1
,,,,,,,,,,,,,,,,,5f1b71d5ea92af36dae6b31c,25,2022-02-12_16h50.37.944,lexical_decision_task_DD_L4,2021.2.3,Win32,124.7816321,,,,,,,,,,,1.0334,1,,,,,,,,,,,,,,,,,,,,,,,,0.082407407,0.176851852,0,0,0,,,,,,,FINGER,C,z,y,./images/FINGER.png,,,,,,,,,,,,,,,,,,,,,z,1,1.0334,,,,,,,,0,12,12,87,1
,,,,,,,,,,,,,,,,,5f1b71d5ea92af36dae6b31c,25,2022-02-12_16h50.37.944,lexical_decision_task_DD_L4,2021.2.3,Win32,124.7816321,,,,,,,,,,,1.0487,1,,,,,,,,,,,,,,,,,,,,,,,,0.082407407,0.176851852,0,0,0,,,,,,,POODLE,C,z,y,./images/POODLE.png,,,,,,,,,,,,,,,,,,,,,z,1,1.0487,,,,,,,,0,13,13,165,1
,,,,,,,,,,,,,,,,,5f1b71d5ea92af36dae6b31c,25,2022-02-12_16h50.37.944,lexical_decision_task_DD_L4,2021.2.3,Win32,124.7816321,,,,,,,,,,,0.7503,1,,,,,,,,,,,,,,,,,,,,,,,,0.082407407,0.176851852,0,0,0,,,,,,,FERRY,C,m,y,./images/FERRY.png,,,,,,,,,,,,,,,,,,,,,m,1,0.7503,,,,,,,,0,14,14,57,1
,,,,,,,,,,,,,,,,,5f1b71d5ea92af36dae6b31c,25,2022-02-12_16h50.37.944,lexical_decision_task_DD_L4,2021.2.3,Win32,124.7816321,,,,,,,,,,,1.1898,1,,,,,,,,,,,,,,,,,,,,,,,,0.082407407,0.176851852,0,0,0,,,,,,,STRING,LB,z,y,./images/STRINGLB.png,,,,,,,,,,,,,,,,,,,,,z,1,1.1898,,,,,,,,0,15,15,125,1
,,,,,,,,,,,,,,,,,5f1b71d5ea92af36dae6b31c,25,2022-02-12_16h50.37.944,lexical_decision_task_DD_L4,2021.2.3,Win32,124.7816321,,,,,,,,,,,1.2847,1,,,,,,,,,,,,,,,,,,,,,,,,0.082407407,0.176851852,0,0,0,,,,,,,BRUSH,LB,m,y,./images/BRUSHLB.png,,,,,,,,,,,,,,,,,,,,,m,1,1.2847,,,,,,,,0,16,16,59,1
,,,,,,,,,,,,,,,,,5f1b71d5ea92af36dae6b31c,25,2022-02-12_16h50.37.944,lexical_decision_task_DD_L4,2021.2.3,Win32,124.7816321,,,,,,,,,,,0.7416,1,,,,,,,,,,,,,,,,,,,,,,,,0.082407407,0.176851852,0,0,0,,,,,,,PILOT,LB,m,y,./images/PILOTLB.png,,,,,,,,,,,,,,,,,,,,,m,1,0.7416,,,,,,,,0,17,17,50,1
,,,,,,,,,,,,,,,,,5f1b71d5ea92af36dae6b31c,25,2022-02-12_16h50.37.944,lexical_decision_task_DD_L4,2021.2.3,Win32,124.7816321,,,,,,,,,,,0.9946,1,,,,,,,,,,,,,,,,,,,,,,,,0.082407407,0.176851852,0,0,0,,,,,,,MOSQUE,HB,z,y,./images/MOSQUEHB.png,,,,,,,,,,,,,,,,,,,,,z,1,0.9946,,,,,,,,0,18,18,127,1
,,,,,,,,,,,,,,,,,5f1b71d5ea92af36dae6b31c,25,2022-02-12_16h50.37.944,lexical_decision_task_DD_L4,2021.2.3,Win32,124.7816321,,,,,,,,,,,0.7622,0,,,,,,,,,,,,,,,,,,,,,,,,0.082407407,0.176851852,0,0,0,,,,,,,CANDLE,HB,z,y,./images/CANDLEHB.png,,,,,,,,,,,,,,,,,,,,,m,0,0.7622,,,,,,,,0,19,19,145,1
,,,,,,,,,,,,,,,,,5f1b71d5ea92af36dae6b31c,25,2022-02-12_16h50.37.944,lexical_decision_task_DD_L4,2021.2.3,Win32,124.7816321,,,,,,,,,,,0.8833,1,,,,,,,,,,,,,,,,,,,,,,,,0.082407407,0.176851852,0,0,0,,,,,,,PICKLE,LB,z,y,./images/PICKLELB.png,,,,,,,,,,,,,,,,,,,,,z,1,0.8833,,,,,,,,0,20,20,98,1
,,,,,,,,,,,,,,,,,5f1b71d5ea92af36dae6b31c,25,2022-02-12_16h50.37.944,lexical_decision_task_DD_L4,2021.2.3,Win32,124.7816321,,,,,,,,,,,1.1862,1,,,,,,,,,,,,,,,,,,,,,,,,0.082407407,0.176851852,0,0,0,,,,,,,SAUCE,C,m,y,./images/SAUCE.png,,,,,,,,,,,,,,,,,,,,,m,1,1.1862,,,,,,,,0,21,21,51,1
,,,,,,,,,,,,,,,,,5f1b71d5ea92af36dae6b31c,25,2022-02-12_16h50.37.944,lexical_decision_task_DD_L4,2021.2.3,Win32,124.7816321,,,,,,,,,,,1.0776,0,,,,,,,,,,,,,,,,,,,,,,,,0.082407407,0.176851852,0,0,0,,,,,,,HEATER,LB,m,y,./images/HEATERLB.png,,,,,,,,,,,,,,,,,,,,,z,0,1.0776,,,,,,,,0,22,22,56,1
,,,,,,,,,,,,,,,,,5f1b71d5ea92af36dae6b31c,25,2022-02-12_16h50.37.944,lexical_decision_task_DD_L4,2021.2.3,Win32,124.7816321,,,,,,,,,,,0.6464,1,,,,,,,,,,,,,,,,,,,,,,,,0.082407407,0.176851852,0,0,0,,,,,,,VALLEY,LB,m,y,./images/VALLEYLB.png,,,,,,,,,,,,,,,,,,,,,m,1,0.6464,,,,,,,,0,23,23,68,1
,,,,,,,,,,,,,,,,,5f1b71d5ea92af36dae6b31c,25,2022-02-12_16h50.37.944,lexical_decision_task_DD_L4,2021.2.3,Win32,124.7816321,,,,,,,,,,,0.8865,1,,,,,,,,,,,,,,,,,,,,,,,,0.082407407,0.176851852,0,0,0,,,,,,,TIGER,HB,m,y,./images/TIGERHB.png,,,,,,,,,,,,,,,,,,,,,m,1,0.8865,,,,,,,,0,24,24,37,1
,,,,,,,,,,,,,,,,,5f1b71d5ea92af36dae6b31c,25,2022-02-12_16h50.37.944,lexical_decision_task_DD_L4,2021.2.3,Win32,124.7816321,,,,,,,,,,,0.8968,1,,,,,,,,,,,,,,,,,,,,,,,,0.082407407,0.176851852,0,0,0,,,,,,,WHISKY,LB,m,y,./images/WHISKYLB.png,,,,,,,,,,,,,,,,,,,,,m,1,0.8968,,,,,,,,0,25,25,83,1
,,,,,,,,,,,,,,,,,5f1b71d5ea92af36dae6b31c,25,2022-02-12_16h50.37.944,lexical_decision_task_DD_L4,2021.2.3,Win32,124.7816321,,,,,,,,,,,1.0111,1,,,,,,,,,,,,,,,,,,,,,,,,0.082407407,0.176851852,0,0,0,,,,,,,TORCH,LB,z,y,./images/TORCHLB.png,,,,,,,,,,,,,,,,,,,,,z,1,1.0111,,,,,,,,0,26,26,152,1
,,,,,,,,,,,,,,,,,5f1b71d5ea92af36dae6b31c,25,2022-02-12_16h50.37.944,lexical_decision_task_DD_L4,2021.2.3,Win32,124.7816321,,,,,,,,,,,0.8608,1,,,,,,,,,,,,,,,,,,,,,,,,0.082407407,0.176851852,0,0,0,,,,,,,RULER,HB,m,y,./images/RULERHB.png,,,,,,,,,,,,,,,,,,,,,m,1,0.8608,,,,,,,,0,27,27,79,1
,,,,,,,,,,,,,,,,,5f1b71d5ea92af36dae6b31c,25,2022-02-12_16h50.37.944,lexical_decision_task_DD_L4,2021.2.3,Win32,124.7816321,,,,,,,,,,,0.723,1,,,,,,,,,,,,,,,,,,,,,,,,0.082407407,0.176851852,0,0,0,,,,,,,DIVER,C,m,y,./images/DIVER.png,,,,,,,,,,,,,,,,,,,,,m,1,0.723,,,,,,,,0,28,28,9,1
,,,,,,,,,,,,,,,,,5f1b71d5ea92af36dae6b31c,25,2022-02-12_16h50.37.944,lexical_decision_task_DD_L4,2021.2.3,Win32,124.7816321,,,,,,,,,,,0.7871,1,,,,,,,,,,,,,,,,,,,,,,,,0.082407407,0.176851852,0,0,0,,,,,,,MAMMAL,LB,m,y,./images/MAMMALLB.png,,,,,,,,,,,,,,,,,,,,,m,1,0.7871,,,,,,,,0,29,29,62,1
,,,,,,,,,,,,,,,,,5f1b71d5ea92af36dae6b31c,25,2022-02-12_16h50.37.944,lexical_decision_task_DD_L4,2021.2.3,Win32,124.7816321,,,,,,,,,,,1.4175,0,,,,,,,,,,,,,,,,,,,,,,,,0.082407407,0.176851852,0,0,0,,,,,,,SMOKER,LB,z,y,./images/SMOKERLB.png,,,,,,,,,,,,,,,,,,,,,m,0,1.4175,,,,,,,,0,30,30,110,1
,,,,,,,,,,,,,,,,,5f1b71d5ea92af36dae6b31c,25,2022-02-12_16h50.37.944,lexical_decision_task_DD_L4,2021.2.3,Win32,124.7816321,,,,,,,,,,,0.9895,1,,,,,,,,,,,,,,,,,,,,,,,,0.082407407,0.176851852,0,0,0,,,,,,,COUCH,LB,z,y,./images/COUCHLB.png,,,,,,,,,,,,,,,,,,,,,z,1,0.9895,,,,,,,,0,31,31,161,1
,,,,,,,,,,,,,,,,,5f1b71d5ea92af36dae6b31c,25,2022-02-12_16h50.37.944,lexical_decision_task_DD_L4,2021.2.3,Win32,124.7816321,,,,,,,,,,,1.1098,0,,,,,,,,,,,,,,,,,,,,,,,,0.082407407,0.176851852,0,0,0,,,,,,,BUTTER,C,m,y,./images/BUTTER.png,,,,,,,,,,,,,,,,,,,,,z,0,1.1098,,,,,,,,0,32,32,27,1
,,,,,,,,,,,,,,,,,5f1b71d5ea92af36dae6b31c,25,2022-02-12_16h50.37.944,lexical_decision_task_DD_L4,2021.2.3,Win32,124.7816321,,,,,,,,,,,1.3004,0,,,,,,,,,,,,,,,,,,,,,,,,0.082407407,0.176851852,0,0,0,,,,,,,STATUE,C,m,y,./images/STATUE.png,,,,,,,,,,,,,,,,,,,,,z,0,1.3004,,,,,,,,0,33,33,66,1
,,,,,,,,,,,,,,,,,5f1b71d5ea92af36dae6b31c,25,2022-02-12_16h50.37.944,lexical_decision_task_DD_L4,2021.2.3,Win32,124.7816321,,,,,,,,,,,1.4004,1,,,,,,,,,,,,,,,,,,,,,,,,0.082407407,0.176851852,0,0,0,,,,,,,MAGGOT,C,z,y,./images/MAGGOT.png,,,,,,,,,,,,,,,,,,,,,z,1,1.4004,,,,,,,,0,34,34,117,1
,,,,,,,,,,,,,,,,,5f1b71d5ea92af36dae6b31c,25,2022-02-12_16h50.37.944,lexical_decision_task_DD_L4,2021.2.3,Win32,124.7816321,,,,,,,,,,,1.55,1,,,,,,,,,,,,,,,,,,,,,,,,0.082407407,0.176851852,0,0,0,,,,,,,BIRTH,HB,z,y,./images/BIRTHHB.png,,,,,,,,,,,,,,,,,,,,,z,1,1.55,,,,,,,,0,35,35,121,1
,,,,,,,,,,,,,,,,,5f1b71d5ea92af36dae6b31c,25,2022-02-12_16h50.37.944,lexical_decision_task_DD_L4,2021.2.3,Win32,124.7816321,,,,,,,,,,,1.0334,1,,,,,,,,,,,,,,,,,,,,,,,,0.082407407,0.176851852,0,0,0,,,,,,,CANYON,HB,z,y,./images/CANYONHB.png,,,,,,,,,,,,,,,,,,,,,z,1,1.0334,,,,,,,,0,36,36,118,1
,,,,,,,,,,,,,,,,,5f1b71d5ea92af36dae6b31c,25,2022-02-12_16h50.37.944,lexical_decision_task_DD_L4,2021.2.3,Win32,124.7816321,,,,,,,,,,,1.0437,1,,,,,,,,,,,,,,,,,,,,,,,,0.082407407,0.176851852,0,0,0,,,,,,,PEARL,HB,z,y,./images/PEARLHB.png,,,,,,,,,,,,,,,,,,,,,z,1,1.0437,,,,,,,,0,37,37,130,1
,,,,,,,,,,,,,,,,,5f1b71d5ea92af36dae6b31c,25,2022-02-12_16h50.37.944,lexical_decision_task_DD_L4,2021.2.3,Win32,124.7816321,,,,,,,,,,,1.1936,1,,,,,,,,,,,,,,,,,,,,,,,,0.082407407,0.176851852,0,0,0,,,,,,,TOMATO,C,z,y,./images/TOMATO.png,,,,,,,,,,,,,,,,,,,,,z,1,1.1936,,,,,,,,0,38,38,84,1
,,,,,,,,,,,,,,,,,5f1b71d5ea92af36dae6b31c,25,2022-02-12_16h50.37.944,lexical_decision_task_DD_L4,2021.2.3,Win32,124.7816321,,,,,,,,,,,1.1604,1,,,,,,,,,,,,,,,,,,,,,,,,0.082407407,0.176851852,0,0,0,,,,,,,URINE,HB,z,y,./images/URINEHB.png,,,,,,,,,,,,,,,,,,,,,z,1,1.1604,,,,,,,,0,39,39,154,1
,,,,,,,,,,,,,,,,,5f1b71d5ea92af36dae6b31c,25,2022-02-12_16h50.37.944,lexical_decision_task_DD_L4,2021.2.3,Win32,124.7816321,,,,,,,,,,,0.7274,1,,,,,,,,,,,,,,,,,,,,,,,,0.082407407,0.176851852,0,0,0,,,,,,,SAUNA,C,m,y,./images/SAUNA.png,,,,,,,,,,,,,,,,,,,,,m,1,0.7274,,,,,,,,0,40,40,33,1
,,,,,,,,,,,,,,,,,5f1b71d5ea92af36dae6b31c,25,2022-02-12_16h50.37.944,lexical_decision_task_DD_L4,2021.2.3,Win32,124.7816321,,,,,,,,,,,1.2591,0,,,,,,,,,,,,,,,,,,,,,,,,0.082407407,0.176851852,0,0,0,space,,,,,,CRUMB,LB,z,y,./images/CRUMBLB.png,5.464,,,,,,,,,,,,,,,,,,,,m,0,1.2591,,,,,,,,0,41,41,113,1
,,,,,,,,,,,,,,,,,5f1b71d5ea92af36dae6b31c,25,2022-02-12_16h50.37.944,lexical_decision_task_DD_L4,2021.2.3,Win32,124.7816321,,,,,,,,,,,0.9603,1,,,,,,,,,,,,,,,,,,,,,,,,0.082407407,0.176851852,0,0,0,,,,,,,GLOVE,HB,m,y,./images/GLOVEHB.png,,,,,,,,,,,,,,,,,,,,,m,1,0.9603,,,,,,,,0,42,42,73,1
,,,,,,,,,,,,,,,,,5f1b71d5ea92af36dae6b31c,25,2022-02-12_16h50.37.944,lexical_decision_task_DD_L4,2021.2.3,Win32,124.7816321,,,,,,,,,,,0.8773,1,,,,,,,,,,,,,,,,,,,,,,,,0.082407407,0.176851852,0,0,0,,,,,,,CLOWN,HB,m,y,./images/CLOWNHB.png,,,,,,,,,,,,,,,,,,,,,m,1,0.8773,,,,,,,,0,43,43,22,1
,,,,,,,,,,,,,,,,,5f1b71d5ea92af36dae6b31c,25,2022-02-12_16h50.37.944,lexical_decision_task_DD_L4,2021.2.3,Win32,124.7816321,,,,,,,,,,,0.836,1,,,,,,,,,,,,,,,,,,,,,,,,0.082407407,0.176851852,0,0,0,,,,,,,CLIFF,LB,m,y,./images/CLIFFLB.png,,,,,,,,,,,,,,,,,,,,,m,1,0.836,,,,,,,,0,44,44,8,1
,,,,,,,,,,,,,,,,,5f1b71d5ea92af36dae6b31c,25,2022-02-12_16h50.37.944,lexical_decision_task_DD_L4,2021.2.3,Win32,124.7816321,,,,,,,,,,,0.9269,1,,,,,,,,,,,,,,,,,,,,,,,,0.082407407,0.176851852,0,0,0,,,,,,,FENCE,LB,m,y,./images/FENCELB.png,,,,,,,,,,,,,,,,,,,,,m,1,0.9269,,,,,,,,0,45,45,14,1
,,,,,,,,,,,,,,,,,5f1b71d5ea92af36dae6b31c,25,2022-02-12_16h50.37.944,lexical_decision_task_DD_L4,2021.2.3,Win32,124.7816321,,,,,,,,,,,0.7589,1,,,,,,,,,,,,,,,,,,,,,,,,0.082407407,0.176851852,0,0,0,,,,,,,PIMPLE,LB,z,y,./images/PIMPLELB.png,,,,,,,,,,,,,,,,,,,,,z,1,0.7589,,,,,,,,0,46,46,155,1
,,,,,,,,,,,,,,,,,5f1b71d5ea92af36dae6b31c,25,2022-02-12_16h50.37.944,lexical_decision_task_DD_L4,2021.2.3,Win32,124.7816321,,,,,,,,,,,0.6928,1,,,,,,,,,,,,,,,,,,,,,,,,0.082407407,0.176851852,0,0,0,,,,,,,GRANNY,LB,m,y,./images/GRANNYLB.png,,,,,,,,,,,,,,,,,,,,,m,1,0.6928,,,,,,,,0,47,47,20,1
,,,,,,,,,,,,,,,,,5f1b71d5ea92af36dae6b31c,25,2022-02-12_16h50.37.944,lexical_decision_task_DD_L4,2021.2.3,Win32,124.7816321,,,,,,,,,,,1.1958,1,,,,,,,,,,,,,,,,,,,,,,,,0.082407407,0.176851852,0,0,0,,,,,,,MUSCLE,HB,z,y,./images/MUSCLEHB.png,,,,,,,,,,,,,,,,,,,,,z,1,1.1958,,,,,,,,0,48,48,88,1
,,,,,,,,,,,,,,,,,5f1b71d5ea92af36dae6b31c,25,2022-02-12_16h50.37.944,lexical_decision_task_DD_L4,2021.2.3,Win32,124.7816321,,,,,,,,,,,1.7922,0,,,,,,,,,,,,,,,,,,,,,,,,0.082407407,0.176851852,0,0,0,,,,,,,BAKER,C,m,y,./images/BAKER.png,,,,,,,,,,,,,,,,,,,,,z,0,1.7922,,,,,,,,0,49,49,63,1
,,,,,,,,,,,,,,,,,5f1b71d5ea92af36dae6b31c,25,2022-02-12_16h50.37.944,lexical_decision_task_DD_L4,2021.2.3,Win32,124.7816321,,,,,,,,,,,1.0671,1,,,,,,,,,,,,,,,,,,,,,,,,0.082407407,0.176851852,0,0,0,,,,,,,DESERT,HB,m,y,./images/DESERTHB.png,,,,,,,,,,,,,,,,,,,,,m,1,1.0671,,,,,,,,0,50,50,52,1
,,,,,,,,,,,,,,,,,5f1b71d5ea92af36dae6b31c,25,2022-02-12_16h50.37.944,lexical_decision_task_DD_L4,2021.2.3,Win32,124.7816321,,,,,,,,,,,0.7942,1,,,,,,,,,,,,,,,,,,,,,,,,0.082407407,0.176851852,0,0,0,,,,,,,MELON,HB,z,y,./images/MELONHB.png,,,,,,,,,,,,,,,,,,,,,z,1,0.7942,,,,,,,,0,51,51,106,1
,,,,,,,,,,,,,,,,,5f1b71d5ea92af36dae6b31c,25,2022-02-12_16h50.37.944,lexical_decision_task_DD_L4,2021.2.3,Win32,124.7816321,,,,,,,,,,,1.0674,1,,,,,,,,,,,,,,,,,,,,,,,,0.082407407,0.176851852,0,0,0,,,,,,,SUNSET,HB,z,y,./images/SUNSETHB.png,,,,,,,,,,,,,,,,,,,,,z,1,1.0674,,,,,,,,0,52,52,166,1
,,,,,,,,,,,,,,,,,5f1b71d5ea92af36dae6b31c,25,2022-02-12_16h50.37.944,lexical_decision_task_DD_L4,2021.2.3,Win32,124.7816321,,,,,,,,,,,0.7345,1,,,,,,,,,,,,,,,,,,,,,,,,0.082407407,0.176851852,0,0,0,,,,,,,DONKEY,HB,m,y,./images/DONKEYHB.png,,,,,,,,,,,,,,,,,,,,,m,1,0.7345,,,,,,,,0,53,53,19,1
,,,,,,,,,,,,,,,,,5f1b71d5ea92af36dae6b31c,25,2022-02-12_16h50.37.944,lexical_decision_task_DD_L4,2021.2.3,Win32,124.7816321,,,,,,,,,,,1.1601,1,,,,,,,,,,,,,,,,,,,,,,,,0.082407407,0.176851852,0,0,0,,,,,,,ENGINE,LB,m,y,./images/ENGINELB.png,,,,,,,,,,,,,,,,,,,,,m,1,1.1601,,,,,,,,0,54,54,38,1
,,,,,,,,,,,,,,,,,5f1b71d5ea92af36dae6b31c,25,2022-02-12_16h50.37.944,lexical_decision_task_DD_L4,2021.2.3,Win32,124.7816321,,,,,,,,,,,1.0602,0,,,,,,,,,,,,,,,,,,,,,,,,0.082407407,0.176851852,0,0,0,,,,,,,DRILL,C,m,y,./images/DRILL.png,,,,,,,,,,,,,,,,,,,,,z,0,1.0602,,,,,,,,0,55,55,81,1
,,,,,,,,,,,,,,,,,5f1b71d5ea92af36dae6b31c,25,2022-02-12_16h50.37.944,lexical_decision_task_DD_L4,2021.2.3,Win32,124.7816321,,,,,,,,,,,1.499,0,,,,,,,,,,,,,,,,,,,,,,,,0.082407407,0.176851852,0,0,0,,,,,,,DANCER,C,m,y,./images/DANCER.png,,,,,,,,,,,,,,,,,,,,,z,0,1.499,,,,,,,,0,56,56,21,1
,,,,,,,,,,,,,,,,,5f1b71d5ea92af36dae6b31c,25,2022-02-12_16h50.37.944,lexical_decision_task_DD_L4,2021.2.3,Win32,124.7816321,,,,,,,,,,,0.8248,0,,,,,,,,,,,,,,,,,,,,,,,,0.082407407,0.176851852,0,0,0,,,,,,,BELLY,HB,z,y,./images/BELLYHB.png,,,,,,,,,,,,,,,,,,,,,m,0,0.8248,,,,,,,,0,57,57,94,1
,,,,,,,,,,,,,,,,,5f1b71d5ea92af36dae6b31c,25,2022-02-12_16h50.37.944,lexical_decision_task_DD_L4,2021.2.3,Win32,124.7816321,,,,,,,,,,,0.9212,0,,,,,,,,,,,,,,,,,,,,,,,,0.082407407,0.176851852,0,0,0,,,,,,,FLESH,C,m,y,./images/FLESH.png,,,,,,,,,,,,,,,,,,,,,z,0,0.9212,,,,,,,,0,58,58,24,1
,,,,,,,,,,,,,,,,,5f1b71d5ea92af36dae6b31c,25,2022-02-12_16h50.37.944,lexical_decision_task_DD_L4,2021.2.3,Win32,124.7816321,,,,,,,,,,,1.0094,1,,,,,,,,,,,,,,,,,,,,,,,,0.082407407,0.176851852,0,0,0,,,,,,,WRIST,HB,z,y,./images/WRISTHB.png,,,,,,,,,,,,,,,,,,,,,z,1,1.0094,,,,,,,,0,59,59,109,1
,,,,,,,,,,,,,,,,,5f1b71d5ea92af36dae6b31c,25,2022-02-12_16h50.37.944,lexical_decision_task_DD_L4,2021.2.3,Win32,124.7816321,,,,,,,,,,,0.8925,1,,,,,,,,,,,,,,,,,,,,,,,,0.082407407,0.176851852,0,0,0,,,,,,,BUBBLE,LB,m,y,./images/BUBBLELB.png,,,,,,,,,,,,,,,,,,,,,m,1,0.8925,,,,,,,,0,60,60,71,1
,,,,,,,,,,,,,,,,,5f1b71d5ea92af36dae6b31c,25,2022-02-12_16h50.37.944,lexical_decision_task_DD_L4,2021.2.3,Win32,124.7816321,,,,,,,,,,,0.8825,0,,,,,,,,,,,,,,,,,,,,,,,,0.082407407,0.176851852,0,0,0,,,,,,,SNACK,HB,z,y,./images/SNACKHB.png,,,,,,,,,,,,,,,,,,,,,m,0,0.8825,,,,,,,,0,61,61,157,1
,,,,,,,,,,,,,,,,,5f1b71d5ea92af36dae6b31c,25,2022-02-12_16h50.37.944,lexical_decision_task_DD_L4,2021.2.3,Win32,124.7816321,,,,,,,,,,,1.5437,0,,,,,,,,,,,,,,,,,,,,,,,,0.082407407,0.176851852,0,0,0,,,,,,,BRIDE,HB,m,y,./images/BRIDEHB.png,,,,,,,,,,,,,,,,,,,,,z,0,1.5437,,,,,,,,0,62,62,64,1
,,,,,,,,,,,,,,,,,5f1b71d5ea92af36dae6b31c,25,2022-02-12_16h50.37.944,lexical_decision_task_DD_L4,2021.2.3,Win32,124.7816321,,,,,,,,,,,1.2676,0,,,,,,,,,,,,,,,,,,,,,,,,0.082407407,0.176851852,0,0,0,,,,,,,POSTER,LB,m,y,./images/POSTERLB.png,,,,,,,,,,,,,,,,,,,,,z,0,1.2676,,,,,,,,0,63,63,53,1
,,,,,,,,,,,,,,,,,5f1b71d5ea92af36dae6b31c,25,2022-02-12_16h50.37.944,lexical_decision_task_DD_L4,2021.2.3,Win32,124.7816321,,,,,,,,,,,0.9841,0,,,,,,,,,,,,,,,,,,,,,,,,0.082407407,0.176851852,0,0,0,,,,,,,BANNER,HB,z,y,./images/BANNERHB.png,,,,,,,,,,,,,,,,,,,,,m,0,0.9841,,,,,,,,0,64,64,136,1
,,,,,,,,,,,,,,,,,5f1b71d5ea92af36dae6b31c,25,2022-02-12_16h50.37.944,lexical_decision_task_DD_L4,2021.2.3,Win32,124.7816321,,,,,,,,,,,1.0704,1,,,,,,,,,,,,,,,,,,,,,,,,0.082407407,0.176851852,0,0,0,,,,,,,SPINE,LB,m,y,./images/SPINELB.png,,,,,,,,,,,,,,,,,,,,,m,1,1.0704,,,,,,,,0,65,65,65,1
,,,,,,,,,,,,,,,,,5f1b71d5ea92af36dae6b31c,25,2022-02-12_16h50.37.944,lexical_decision_task_DD_L4,2021.2.3,Win32,124.7816321,,,,,,,,,,,1.1602,1,,,,,,,,,,,,,,,,,,,,,,,,0.082407407,0.176851852,0,0,0,,,,,,,CEMENT,LB,z,y,./images/CEMENTLB.png,,,,,,,,,,,,,,,,,,,,,z,1,1.1602,,,,,,,,0,66,66,158,1
,,,,,,,,,,,,,,,,,5f1b71d5ea92af36dae6b31c,25,2022-02-12_16h50.37.944,lexical_decision_task_DD_L4,2021.2.3,Win32,124.7816321,,,,,,,,,,,1.2796,1,,,,,,,,,,,,,,,,,,,,,,,,0.082407407,0.176851852,0,0,0,,,,,,,BEARD,LB,z,y,./images/BEARDLB.png,,,,,,,,,,,,,,,,,,,,,z,1,1.2796,,,,,,,,0,67,67,86,1
,,,,,,,,,,,,,,,,,5f1b71d5ea92af36dae6b31c,25,2022-02-12_16h50.37.944,lexical_decision_task_DD_L4,2021.2.3,Win32,124.7816321,,,,,,,,,,,1.3818,1,,,,,,,,,,,,,,,,,,,,,,,,0.082407407,0.176851852,0,0,0,,,,,,,MOOSE,C,z,y,./images/MOOSE.png,,,,,,,,,,,,,,,,,,,,,z,1,1.3818,,,,,,,,0,68,68,141,1
,,,,,,,,,,,,,,,,,5f1b71d5ea92af36dae6b31c,25,2022-02-12_16h50.37.944,lexical_decision_task_DD_L4,2021.2.3,Win32,124.7816321,,,,,,,,,,,0.8239,1,,,,,,,,,,,,,,,,,,,,,,,,0.082407407,0.176851852,0,0,0,,,,,,,BUNNY,HB,m,y,./images/BUNNYHB.png,,,,,,,,,,,,,,,,,,,,,m,1,0.8239,,,,,,,,0,69,69,13,1
,,,,,,,,,,,,,,,,,5f1b71d5ea92af36dae6b31c,25,2022-02-12_16h50.37.944,lexical_decision_task_DD_L4,2021.2.3,Win32,124.7816321,,,,,,,,,,,1.1963,0,,,,,,,,,,,,,,,,,,,,,,,,0.082407407,0.176851852,0,0,0,,,,,,,WALRUS,LB,z,y,./images/WALRUSLB.png,,,,,,,,,,,,,,,,,,,,,m,0,1.1963,,,,,,,,0,70,70,107,1
,,,,,,,,,,,,,,,,,5f1b71d5ea92af36dae6b31c,25,2022-02-12_16h50.37.944,lexical_decision_task_DD_L4,2021.2.3,Win32,124.7816321,,,,,,,,,,,0.8604,1,,,,,,,,,,,,,,,,,,,,,,,,0.082407407,0.176851852,0,0,0,,,,,,,MONKEY,C,m,y,./images/MONKEY.png,,,,,,,,,,,,,,,,,,,,,m,1,0.8604,,,,,,,,0,71,71,45,1
,,,,,,,,,,,,,,,,,5f1b71d5ea92af36dae6b31c,25,2022-02-12_16h50.37.944,lexical_decision_task_DD_L4,2021.2.3,Win32,124.7816321,,,,,,,,,,,0.8829,1,,,,,,,,,,,,,,,,,,,,,,,,0.082407407,0.176851852,0,0,0,,,,,,,COOKER,C,z,y,./images/COOKER.png,,,,,,,,,,,,,,,,,,,,,z,1,0.8829,,,,,,,,0,72,72,153,1
,,,,,,,,,,,,,,,,,5f1b71d5ea92af36dae6b31c,25,2022-02-12_16h50.37.944,lexical_decision_task_DD_L4,2021.2.3,Win32,124.7816321,,,,,,,,,,,0.7877,1,,,,,,,,,,,,,,,,,,,,,,,,0.082407407,0.176851852,0,0,0,,,,,,,GREASE,C,z,y,./images/GREASE.png,,,,,,,,,,,,,,,,,,,,,z,1,0.7877,,,,,,,,0,73,73,99,1
,,,,,,,,,,,,,,,,,5f1b71d5ea92af36dae6b31c,25,2022-02-12_16h50.37.944,lexical_decision_task_DD_L4,2021.2.3,Win32,124.7816321,,,,,,,,,,,1.0862,1,,,,,,,,,,,,,,,,,,,,,,,,0.082407407,0.176851852,0,0,0,,,,,,,BURIAL,LB,z,y,./images/BURIALLB.png,,,,,,,,,,,,,,,,,,,,,z,1,1.0862,,,,,,,,0,74,74,143,1
,,,,,,,,,,,,,,,,,5f1b71d5ea92af36dae6b31c,25,2022-02-12_16h50.37.944,lexical_decision_task_DD_L4,2021.2.3,Win32,124.7816321,,,,,,,,,,,0.7762,0,,,,,,,,,,,,,,,,,,,,,,,,0.082407407,0.176851852,0,0,0,,,,,,,GRAPE,HB,m,y,./images/GRAPEHB.png,,,,,,,,,,,,,,,,,,,,,z,0,0.7762,,,,,,,,0,75,75,16,1
,,,,,,,,,,,,,,,,,5f1b71d5ea92af36dae6b31c,25,2022-02-12_16h50.37.944,lexical_decision_task_DD_L4,2021.2.3,Win32,124.7816321,,,,,,,,,,,1.1627,1,,,,,,,,,,,,,,,,,,,,,,,,0.082407407,0.176851852,0,0,0,,,,,,,MOTOR,HB,z,y,./images/MOTORHB.png,,,,,,,,,,,,,,,,,,,,,z,1,1.1627,,,,,,,,0,76,76,97,1
,,,,,,,,,,,,,,,,,5f1b71d5ea92af36dae6b31c,25,2022-02-12_16h50.37.944,lexical_decision_task_DD_L4,2021.2.3,Win32,124.7816321,,,,,,,,,,,0.7974,1,,,,,,,,,,,,,,,,,,,,,,,,0.082407407,0.176851852,0,0,0,,,,,,,PASTA,LB,z,y,./images/PASTALB.png,,,,,,,,,,,,,,,,,,,,,z,1,0.7974,,,,,,,,0,77,77,89,1
,,,,,,,,,,,,,,,,,5f1b71d5ea92af36dae6b31c,25,2022-02-12_16h50.37.944,lexical_decision_task_DD_L4,2021.2.3,Win32,124.7816321,,,,,,,,,,,1.5018,1,,,,,,,,,,,,,,,,,,,,,,,,0.082407407,0.176851852,0,0,0,,,,,,,MALLET,LB,z,y,./images/MALLETLB.png,,,,,,,,,,,,,,,,,,,,,z,1,1.5018,,,,,,,,0,78,78,134,1
,,,,,,,,,,,,,,,,,5f1b71d5ea92af36dae6b31c,25,2022-02-12_16h50.37.944,lexical_decision_task_DD_L4,2021.2.3,Win32,124.7816321,,,,,,,,,,,1.9292,0,,,,,,,,,,,,,,,,,,,,,,,,0.082407407,0.176851852,0,0,0,,,,,,,FLASK,C,m,y,./images/FLASK.png,,,,,,,,,,,,,,,,,,,,,z,0,1.9292,,,,,,,,0,79,79,72,1
,,,,,,,,,,,,,,,,,5f1b71d5ea92af36dae6b31c,25,2022-02-12_16h50.37.944,lexical_decision_task_DD_L4,2021.2.3,Win32,124.7816321,,,,,,,,,,,1.3456,0,,,,,,,,,,,,,,,,,,,,,,,,0.082407407,0.176851852,0,0,0,,,,,,,BONNET,LB,z,y,./images/BONNETLB.png,,,,,,,,,,,,,,,,,,,,,m,0,1.3456,,,,,,,,0,80,80,95,1
,,,,,,,,,,,,,,,,,5f1b71d5ea92af36dae6b31c,25,2022-02-12_16h50.37.944,lexical_decision_task_DD_L4,2021.2.3,Win32,124.7816321,,,,,,,,,,,1.4107,0,,,,,,,,,,,,,,,,,,,,,,,,0.082407407,0.176851852,0,0,0,,,,,,,SHORE,C,z,y,./images/SHORE.png,,,,,,,,,,,,,,,,,,,,,m,0,1.4107,,,,,,,,0,81,81,96,1
,,,,,,,,,,,,,,,,,5f1b71d5ea92af36dae6b31c,25,2022-02-12_16h50.37.944,lexical_decision_task_DD_L4,2021.2.3,Win32,124.7816321,,,,,,,,,,,1.7019,1,,,,,,,,,,,,,,,,,,,,,,,,0.082407407,0.176851852,0,0,0,,,,,,,TULIP,LB,z,y,./images/TULIPLB.png,,,,,,,,,,,,,,,,,,,,,z,1,1.7019,,,,,,,,0,82,82,92,1
,,,,,,,,,,,,,,,,,5f1b71d5ea92af36dae6b31c,25,2022-02-12_16h50.37.944,lexical_decision_task_DD_L4,2021.2.3,Win32,124.7816321,,,,,,,,,,,2.0581,1,,,,,,,,,,,,,,,,,,,,,,,,0.082407407,0.176851852,0,0,0,space,,,,,,PACKET,LB,z,y,./images/PACKETLB.png,7.5293,,,,,,,,,,,,,,,,,,,,z,1,2.0581,,,,,,,,0,83,83,140,1
,,,,,,,,,,,,,,,,,5f1b71d5ea92af36dae6b31c,25,2022-02-12_16h50.37.944,lexical_decision_task_DD_L4,2021.2.3,Win32,124.7816321,,,,,,,,,,,0.7445,1,,,,,,,,,,,,,,,,,,,,,,,,0.082407407,0.176851852,0,0,0,,,,,,,INFANT,HB,z,y,./images/INFANTHB.png,,,,,,,,,,,,,,,,,,,,,z,1,0.7445,,,,,,,,0,84,84,160,1
,,,,,,,,,,,,,,,,,5f1b71d5ea92af36dae6b31c,25,2022-02-12_16h50.37.944,lexical_decision_task_DD_L4,2021.2.3,Win32,124.7816321,,,,,,,,,,,0.9502,1,,,,,,,,,,,,,,,,,,,,,,,,0.082407407,0.176851852,0,0,0,,,,,,,QUILL,HB,z,y,./images/QUILLHB.png,,,,,,,,,,,,,,,,,,,,,z,1,0.9502,,,,,,,,0,85,85,115,1
,,,,,,,,,,,,,,,,,5f1b71d5ea92af36dae6b31c,25,2022-02-12_16h50.37.944,lexical_decision_task_DD_L4,2021.2.3,Win32,124.7816321,,,,,,,,,,,1.5511,1,,,,,,,,,,,,,,,,,,,,,,,,0.082407407,0.176851852,0,0,0,,,,,,,CRATER,C,m,y,./images/CRATER.png,,,,,,,,,,,,,,,,,,,,,m,1,1.5511,,,,,,,,0,86,86,3,1
,,,,,,,,,,,,,,,,,5f1b71d5ea92af36dae6b31c,25,2022-02-12_16h50.37.944,lexical_decision_task_DD_L4,2021.2.3,Win32,124.7816321,,,,,,,,,,,0.673,1,,,,,,,,,,,,,,,,,,,,,,,,0.082407407,0.176851852,0,0,0,,,,,,,BLOKE,C,m,y,./images/BLOKE.png,,,,,,,,,,,,,,,,,,,,,m,1,0.673,,,,,,,,0,87,87,12,1
,,,,,,,,,,,,,,,,,5f1b71d5ea92af36dae6b31c,25,2022-02-12_16h50.37.944,lexical_decision_task_DD_L4,2021.2.3,Win32,124.7816321,,,,,,,,,,,0.7764,1,,,,,,,,,,,,,,,,,,,,,,,,0.082407407,0.176851852,0,0,0,,,,,,,LADDER,LB,z,y,./images/LADDERLB.png,,,,,,,,,,,,,,,,,,,,,z,1,0.7764,,,,,,,,0,88,88,122,1
,,,,,,,,,,,,,,,,,5f1b71d5ea92af36dae6b31c,25,2022-02-12_16h50.37.944,lexical_decision_task_DD_L4,2021.2.3,Win32,124.7816321,,,,,,,,,,,0.7674,1,,,,,,,,,,,,,,,,,,,,,,,,0.082407407,0.176851852,0,0,0,,,,,,,PLANK,HB,z,y,./images/PLANKHB.png,,,,,,,,,,,,,,,,,,,,,z,1,0.7674,,,,,,,,0,89,89,85,1
,,,,,,,,,,,,,,,,,5f1b71d5ea92af36dae6b31c,25,2022-02-12_16h50.37.944,lexical_decision_task_DD_L4,2021.2.3,Win32,124.7816321,,,,,,,,,,,1.1118,0,,,,,,,,,,,,,,,,,,,,,,,,0.082407407,0.176851852,0,0,0,,,,,,,SWEAT,C,z,y,./images/SWEAT.png,,,,,,,,,,,,,,,,,,,,,m,0,1.1118,,,,,,,,0,90,90,150,1
,,,,,,,,,,,,,,,,,5f1b71d5ea92af36dae6b31c,25,2022-02-12_16h50.37.944,lexical_decision_task_DD_L4,2021.2.3,Win32,124.7816321,,,,,,,,,,,0.7607,1,,,,,,,,,,,,,,,,,,,,,,,,0.082407407,0.176851852,0,0,0,,,,,,,PLANET,LB,m,y,./images/PLANETLB.png,,,,,,,,,,,,,,,,,,,,,m,1,0.7607,,,,,,,,0,91,91,80,1
,,,,,,,,,,,,,,,,,5f1b71d5ea92af36dae6b31c,25,2022-02-12_16h50.37.944,lexical_decision_task_DD_L4,2021.2.3,Win32,124.7816321,,,,,,,,,,,0.7971,1,,,,,,,,,,,,,,,,,,,,,,,,0.082407407,0.176851852,0,0,0,,,,,,,CANOE,HB,m,y,./images/CANOEHB.png,,,,,,,,,,,,,,,,,,,,,m,1,0.7971,,,,,,,,0,92,92,58,1
,,,,,,,,,,,,,,,,,5f1b71d5ea92af36dae6b31c,25,2022-02-12_16h50.37.944,lexical_decision_task_DD_L4,2021.2.3,Win32,124.7816321,,,,,,,,,,,0.7729,1,,,,,,,,,,,,,,,,,,,,,,,,0.082407407,0.176851852,0,0,0,,,,,,,ARTIST,HB,m,y,./images/ARTISTHB.png,,,,,,,,,,,,,,,,,,,,,m,1,0.7729,,,,,,,,0,93,93,61,1
,,,,,,,,,,,,,,,,,5f1b71d5ea92af36dae6b31c,25,2022-02-12_16h50.37.944,lexical_decision_task_DD_L4,2021.2.3,Win32,124.7816321,,,,,,,,,,,1.0141,1,,,,,,,,,,,,,,,,,,,,,,,,0.082407407,0.176851852,0,0,0,,,,,,,CASINO,HB,m,y,./images/CASINOHB.png,,,,,,,,,,,,,,,,,,,,,m,1,1.0141,,,,,,,,0,94,94,28,1
,,,,,,,,,,,,,,,,,5f1b71d5ea92af36dae6b31c,25,2022-02-12_16h50.37.944,lexical_decision_task_DD_L4,2021.2.3,Win32,124.7816321,,,,,,,,,,,0.8113,0,,,,,,,,,,,,,,,,,,,,,,,,0.082407407,0.176851852,0,0,0,,,,,,,MIRROR,C,z,y,./images/MIRROR.png,,,,,,,,,,,,,,,,,,,,,m,0,0.8113,,,,,,,,0,95,95,147,1
,,,,,,,,,,,,,,,,,5f1b71d5ea92af36dae6b31c,25,2022-02-12_16h50.37.944,lexical_decision_task_DD_L4,2021.2.3,Win32,124.7816321,,,,,,,,,,,1.8851,0,,,,,,,,,,,,,,,,,,,,,,,,0.082407407,0.176851852,0,0,0,,,,,,,WHEEL,LB,m,y,./images/WHEELLB.png,,,,,,,,,,,,,,,,,,,,,z,0,1.8851,,,,,,,,0,96,96,77,1
,,,,,,,,,,,,,,,,,5f1b71d5ea92af36dae6b31c,25,2022-02-12_16h50.37.944,lexical_decision_task_DD_L4,2021.2.3,Win32,124.7816321,,,,,,,,,,,0.7101,1,,,,,,,,,,,,,,,,,,,,,,,,0.082407407,0.176851852,0,0,0,,,,,,,BAMBOO,LB,m,y,./images/BAMBOOLB.png,,,,,,,,,,,,,,,,,,,,,m,1,0.7101,,,,,,,,0,97,97,5,1
,,,,,,,,,,,,,,,,,5f1b71d5ea92af36dae6b31c,25,2022-02-12_16h50.37.944,lexical_decision_task_DD_L4,2021.2.3,Win32,124.7816321,,,,,,,,,,,1.3673,1,,,,,,,,,,,,,,,,,,,,,,,,0.082407407,0.176851852,0,0,0,,,,,,,HAMMER,C,m,y,./images/HAMMER.png,,,,,,,,,,,,,,,,,,,,,m,1,1.3673,,,,,,,,0,98,98,75,1
,,,,,,,,,,,,,,,,,5f1b71d5ea92af36dae6b31c,25,2022-02-12_16h50.37.944,lexical_decision_task_DD_L4,2021.2.3,Win32,124.7816321,,,,,,,,,,,1.1273,1,,,,,,,,,,,,,,,,,,,,,,,,0.082407407,0.176851852,0,0,0,,,,,,,BERRY,LB,z,y,./images/BERRYLB.png,,,,,,,,,,,,,,,,,,,,,z,1,1.1273,,,,,,,,0,99,99,131,1
,,,,,,,,,,,,,,,,,5f1b71d5ea92af36dae6b31c,25,2022-02-12_16h50.37.944,lexical_decision_task_DD_L4,2021.2.3,Win32,124.7816321,,,,,,,,,,,1.1084,1,,,,,,,,,,,,,,,,,,,,,,,,0.082407407,0.176851852,0,0,0,,,,,,,GARDEN,HB,m,y,./images/GARDENHB.png,,,,,,,,,,,,,,,,,,,,,m,1,1.1084,,,,,,,,0,100,100,10,1
,,,,,,,,,,,,,,,,,5f1b71d5ea92af36dae6b31c,25,2022-02-12_16h50.37.944,lexical_decision_task_DD_L4,2021.2.3,Win32,124.7816321,,,,,,,,,,,0.7398,1,,,,,,,,,,,,,,,,,,,,,,,,0.082407407,0.176851852,0,0,0,,,,,,,STOVE,LB,m,y,./images/STOVELB.png,,,,,,,,,,,,,,,,,,,,,m,1,0.7398,,,,,,,,0,101,101,2,1
,,,,,,,,,,,,,,,,,5f1b71d5ea92af36dae6b31c,25,2022-02-12_16h50.37.944,lexical_decision_task_DD_L4,2021.2.3,Win32,124.7816321,,,,,,,,,,,0.7414,1,,,,,,,,,,,,,,,,,,,,,,,,0.082407407,0.176851852,0,0,0,,,,,,,PARCEL,C,m,y,./images/PARCEL.png,,,,,,,,,,,,,,,,,,,,,m,1,0.7414,,,,,,,,0,102,102,18,1
,,,,,,,,,,,,,,,,,5f1b71d5ea92af36dae6b31c,25,2022-02-12_16h50.37.944,lexical_decision_task_DD_L4,2021.2.3,Win32,124.7816321,,,,,,,,,,,0.8564,1,,,,,,,,,,,,,,,,,,,,,,,,0.082407407,0.176851852,0,0,0,,,,,,,PARADE,LB,m,y,./images/PARADELB.png,,,,,,,,,,,,,,,,,,,,,m,1,0.8564,,,,,,,,0,103,103,17,1
,,,,,,,,,,,,,,,,,5f1b71d5ea92af36dae6b31c,25,2022-02-12_16h50.37.944,lexical_decision_task_DD_L4,2021.2.3,Win32,124.7816321,,,,,,,,,,,1.2499,0,,,,,,,,,,,,,,,,,,,,,,,,0.082407407,0.176851852,0,0,0,,,,,,,BOILER,C,m,y,./images/BOILER.png,,,,,,,,,,,,,,,,,,,,,z,0,1.2499,,,,,,,,0,104,104,36,1
,,,,,,,,,,,,,,,,,5f1b71d5ea92af36dae6b31c,25,2022-02-12_16h50.37.944,lexical_decision_task_DD_L4,2021.2.3,Win32,124.7816321,,,,,,,,,,,1.476,0,,,,,,,,,,,,,,,,,,,,,,,,0.082407407,0.176851852,0,0,0,,,,,,,STOOL,HB,m,y,./images/STOOLHB.png,,,,,,,,,,,,,,,,,,,,,z,0,1.476,,,,,,,,0,105,105,43,1
,,,,,,,,,,,,,,,,,5f1b71d5ea92af36dae6b31c,25,2022-02-12_16h50.37.944,lexical_decision_task_DD_L4,2021.2.3,Win32,124.7816321,,,,,,,,,,,0.7469,1,,,,,,,,,,,,,,,,,,,,,,,,0.082407407,0.176851852,0,0,0,,,,,,,KIDNEY,C,z,y,./images/KIDNEY.png,,,,,,,,,,,,,,,,,,,,,z,1,0.7469,,,,,,,,0,106,106,105,1
,,,,,,,,,,,,,,,,,5f1b71d5ea92af36dae6b31c,25,2022-02-12_16h50.37.944,lexical_decision_task_DD_L4,2021.2.3,Win32,124.7816321,,,,,,,,,,,0.7089,1,,,,,,,,,,,,,,,,,,,,,,,,0.082407407,0.176851852,0,0,0,,,,,,,CLOTH,LB,m,y,./images/CLOTHLB.png,,,,,,,,,,,,,,,,,,,,,m,1,0.7089,,,,,,,,0,107,107,23,1
,,,,,,,,,,,,,,,,,5f1b71d5ea92af36dae6b31c,25,2022-02-12_16h50.37.944,lexical_decision_task_DD_L4,2021.2.3,Win32,124.7816321,,,,,,,,,,,0.8256,1,,,,,,,,,,,,,,,,,,,,,,,,0.082407407,0.176851852,0,0,0,,,,,,,SLOPE,C,m,y,./images/SLOPE.png,,,,,,,,,,,,,,,,,,,,,m,1,0.8256,,,,,,,,0,108,108,30,1
,,,,,,,,,,,,,,,,,5f1b71d5ea92af36dae6b31c,25,2022-02-12_16h50.37.944,lexical_decision_task_DD_L4,2021.2.3,Win32,124.7816321,,,,,,,,,,,0.8216,1,,,,,,,,,,,,,,,,,,,,,,,,0.082407407,0.176851852,0,0,0,,,,,,,SQUARE,C,z,y,./images/SQUARE.png,,,,,,,,,,,,,,,,,,,,,z,1,0.8216,,,,,,,,0,109,109,90,1
,,,,,,,,,,,,,,,,,5f1b71d5ea92af36dae6b31c,25,2022-02-12_16h50.37.944,lexical_decision_task_DD_L4,2021.2.3,Win32,124.7816321,,,,,,,,,,,1.0229,1,,,,,,,,,,,,,,,,,,,,,,,,0.082407407,0.176851852,0,0,0,,,,,,,WEASEL,LB,z,y,./images/WEASELLB.png,,,,,,,,,,,,,,,,,,,,,z,1,1.0229,,,,,,,,0,110,110,164,1
,,,,,,,,,,,,,,,,,5f1b71d5ea92af36dae6b31c,25,2022-02-12_16h50.37.944,lexical_decision_task_DD_L4,2021.2.3,Win32,124.7816321,,,,,,,,,,,1.2035,0,,,,,,,,,,,,,,,,,,,,,,,,0.082407407,0.176851852,0,0,0,,,,,,,MIDGET,HB,m,y,./images/MIDGETHB.png,,,,,,,,,,,,,,,,,,,,,z,0,1.2035,,,,,,,,0,111,111,76,1
,,,,,,,,,,,,,,,,,5f1b71d5ea92af36dae6b31c,25,2022-02-12_16h50.37.944,lexical_decision_task_DD_L4,2021.2.3,Win32,124.7816321,,,,,,,,,,,0.9167,1,,,,,,,,,,,,,,,,,,,,,,,,0.082407407,0.176851852,0,0,0,,,,,,,DRUMS,HB,z,y,./images/DRUMSHB.png,,,,,,,,,,,,,,,,,,,,,z,1,0.9167,,,,,,,,0,112,112,133,1
,,,,,,,,,,,,,,,,,5f1b71d5ea92af36dae6b31c,25,2022-02-12_16h50.37.944,lexical_decision_task_DD_L4,2021.2.3,Win32,124.7816321,,,,,,,,,,,0.664,1,,,,,,,,,,,,,,,,,,,,,,,,0.082407407,0.176851852,0,0,0,,,,,,,BANANA,HB,m,y,./images/BANANAHB.png,,,,,,,,,,,,,,,,,,,,,m,1,0.664,,,,,,,,0,113,113,70,1
,,,,,,,,,,,,,,,,,5f1b71d5ea92af36dae6b31c,25,2022-02-12_16h50.37.944,lexical_decision_task_DD_L4,2021.2.3,Win32,124.7816321,,,,,,,,,,,0.7426,1,,,,,,,,,,,,,,,,,,,,,,,,0.082407407,0.176851852,0,0,0,,,,,,,CHAIN,C,m,y,./images/CHAIN.png,,,,,,,,,,,,,,,,,,,,,m,1,0.7426,,,,,,,,0,114,114,42,1
,,,,,,,,,,,,,,,,,5f1b71d5ea92af36dae6b31c,25,2022-02-12_16h50.37.944,lexical_decision_task_DD_L4,2021.2.3,Win32,124.7816321,,,,,,,,,,,0.8747,1,,,,,,,,,,,,,,,,,,,,,,,,0.082407407,0.176851852,0,0,0,,,,,,,TOWEL,HB,m,y,./images/TOWELHB.png,,,,,,,,,,,,,,,,,,,,,m,1,0.8747,,,,,,,,0,115,115,1,1
,,,,,,,,,,,,,,,,,5f1b71d5ea92af36dae6b31c,25,2022-02-12_16h50.37.944,lexical_decision_task_DD_L4,2021.2.3,Win32,124.7816321,,,,,,,,,,,1.022,1,,,,,,,,,,,,,,,,,,,,,,,,0.082407407,0.176851852,0,0,0,,,,,,,FALCON,HB,z,y,./images/FALCONHB.png,,,,,,,,,,,,,,,,,,,,,z,1,1.022,,,,,,,,0,116,116,112,1
,,,,,,,,,,,,,,,,,5f1b71d5ea92af36dae6b31c,25,2022-02-12_16h50.37.944,lexical_decision_task_DD_L4,2021.2.3,Win32,124.7816321,,,,,,,,,,,1.1329,0,,,,,,,,,,,,,,,,,,,,,,,,0.082407407,0.176851852,0,0,0,,,,,,,ONION,C,z,y,./images/ONION.png,,,,,,,,,,,,,,,,,,,,,m,0,1.1329,,,,,,,,0,117,117,135,1
,,,,,,,,,,,,,,,,,5f1b71d5ea92af36dae6b31c,25,2022-02-12_16h50.37.944,lexical_decision_task_DD_L4,2021.2.3,Win32,124.7816321,,,,,,,,,,,1.3783,0,,,,,,,,,,,,,,,,,,,,,,,,0.082407407,0.176851852,0,0,0,,,,,,,POKER,HB,m,y,./images/POKERHB.png,,,,,,,,,,,,,,,,,,,,,z,0,1.3783,,,,,,,,0,118,118,67,1
,,,,,,,,,,,,,,,,,5f1b71d5ea92af36dae6b31c,25,2022-02-12_16h50.37.944,lexical_decision_task_DD_L4,2021.2.3,Win32,124.7816321,,,,,,,,,,,1.3044,1,,,,,,,,,,,,,,,,,,,,,,,,0.082407407,0.176851852,0,0,0,,,,,,,CRADLE,LB,z,y,./images/CRADLELB.png,,,,,,,,,,,,,,,,,,,,,z,1,1.3044,,,,,,,,0,119,119,104,1
,,,,,,,,,,,,,,,,,5f1b71d5ea92af36dae6b31c,25,2022-02-12_16h50.37.944,lexical_decision_task_DD_L4,2021.2.3,Win32,124.7816321,,,,,,,,,,,1.8849,1,,,,,,,,,,,,,,,,,,,,,,,,0.082407407,0.176851852,0,0,0,,,,,,,TWINS,C,z,y,./images/TWINS.png,,,,,,,,,,,,,,,,,,,,,z,1,1.8849,,,,,,,,0,120,120,144,1
,,,,,,,,,,,,,,,,,5f1b71d5ea92af36dae6b31c,25,2022-02-12_16h50.37.944,lexical_decision_task_DD_L4,2021.2.3,Win32,124.7816321,,,,,,,,,,,0.712,1,,,,,,,,,,,,,,,,,,,,,,,,0.082407407,0.176851852,0,0,0,,,,,,,ALLEY,HB,m,y,./images/ALLEYHB.png,,,,,,,,,,,,,,,,,,,,,m,1,0.712,,,,,,,,0,121,121,55,1
,,,,,,,,,,,,,,,,,5f1b71d5ea92af36dae6b31c,25,2022-02-12_16h50.37.944,lexical_decision_task_DD_L4,2021.2.3,Win32,124.7816321,,,,,,,,,,,0.7561,1,,,,,,,,,,,,,,,,,,,,,,,,0.082407407,0.176851852,0,0,0,,,,,,,LLAMA,LB,m,y,./images/LLAMALB.png,,,,,,,,,,,,,,,,,,,,,m,1,0.7561,,,,,,,,0,122,122,35,1
,,,,,,,,,,,,,,,,,5f1b71d5ea92af36dae6b31c,25,2022-02-12_16h50.37.944,lexical_decision_task_DD_L4,2021.2.3,Win32,124.7816321,,,,,,,,,,,0.6784,1,,,,,,,,,,,,,,,,,,,,,,,,0.082407407,0.176851852,0,0,0,,,,,,,PEBBLE,HB,m,y,./images/PEBBLEHB.png,,,,,,,,,,,,,,,,,,,,,m,1,0.6784,,,,,,,,0,123,123,82,1
,,,,,,,,,,,,,,,,,5f1b71d5ea92af36dae6b31c,25,2022-02-12_16h50.37.944,lexical_decision_task_DD_L4,2021.2.3,Win32,124.7816321,,,,,,,,,,,0.6901,1,,,,,,,,,,,,,,,,,,,,,,,,0.082407407,0.176851852,0,0,0,,,,,,,BOXER,HB,m,y,./images/BOXERHB.png,,,,,,,,,,,,,,,,,,,,,m,1,0.6901,,,,,,,,0,124,124,4,1
,,,,,,,,,,,,,,,,,5f1b71d5ea92af36dae6b31c,25,2022-02-12_16h50.37.944,lexical_decision_task_DD_L4,2021.2.3,Win32,124.7816321,,,,,,,,,,,1.2945,0,,,,,,,,,,,,,,,,,,,,,,,,0.082407407,0.176851852,0,0,0,space,,,,,,FOLDER,C,z,y,./images/FOLDER.png,5.9226,,,,,,,,,,,,,,,,,,,,m,0,1.2945,,,,,,,,0,125,125,126,1
,,,,,,,,,,,,,,,,,5f1b71d5ea92af36dae6b31c,25,2022-02-12_16h50.37.944,lexical_decision_task_DD_L4,2021.2.3,Win32,124.7816321,,,,,,,,,,,0.789,1,,,,,,,,,,,,,,,,,,,,,,,,0.082407407,0.176851852,0,0,0,,,,,,,SKIING,LB,z,y,./images/SKIINGLB.png,,,,,,,,,,,,,,,,,,,,,z,1,0.789,,,,,,,,0,126,126,101,1
,,,,,,,,,,,,,,,,,5f1b71d5ea92af36dae6b31c,25,2022-02-12_16h50.37.944,lexical_decision_task_DD_L4,2021.2.3,Win32,124.7816321,,,,,,,,,,,0.7032,1,,,,,,,,,,,,,,,,,,,,,,,,0.082407407,0.176851852,0,0,0,,,,,,,CHALK,HB,m,y,./images/CHALKHB.png,,,,,,,,,,,,,,,,,,,,,m,1,0.7032,,,,,,,,0,127,127,25,1
,,,,,,,,,,,,,,,,,5f1b71d5ea92af36dae6b31c,25,2022-02-12_16h50.37.944,lexical_decision_task_DD_L4,2021.2.3,Win32,124.7816321,,,,,,,,,,,0.7764,1,,,,,,,,,,,,,,,,,,,,,,,,0.082407407,0.176851852,0,0,0,,,,,,,JAGUAR,C,z,y,./images/JAGUAR.png,,,,,,,,,,,,,,,,,,,,,z,1,0.7764,,,,,,,,0,128,128,102,1
,,,,,,,,,,,,,,,,,5f1b71d5ea92af36dae6b31c,25,2022-02-12_16h50.37.944,lexical_decision_task_DD_L4,2021.2.3,Win32,124.7816321,,,,,,,,,,,0.7914,1,,,,,,,,,,,,,,,,,,,,,,,,0.082407407,0.176851852,0,0,0,,,,,,,RHINO,C,z,y,./images/RHINO.png,,,,,,,,,,,,,,,,,,,,,z,1,0.7914,,,,,,,,0,129,129,93,1
,,,,,,,,,,,,,,,,,5f1b71d5ea92af36dae6b31c,25,2022-02-12_16h50.37.944,lexical_decision_task_DD_L4,2021.2.3,Win32,124.7816321,,,,,,,,,,,1.131,1,,,,,,,,,,,,,,,,,,,,,,,,0.082407407,0.176851852,0,0,0,,,,,,,CHERRY,C,m,y,./images/CHERRY.png,,,,,,,,,,,,,,,,,,,,,m,1,1.131,,,,,,,,0,130,130,54,1
,,,,,,,,,,,,,,,,,5f1b71d5ea92af36dae6b31c,25,2022-02-12_16h50.37.944,lexical_decision_task_DD_L4,2021.2.3,Win32,124.7816321,,,,,,,,,,,0.9097,1,,,,,,,,,,,,,,,,,,,,,,,,0.082407407,0.176851852,0,0,0,,,,,,,DOUGH,HB,z,y,./images/DOUGHHB.png,,,,,,,,,,,,,,,,,,,,,z,1,0.9097,,,,,,,,0,131,131,103,1
