key_resp.keys,instr_done_touch.x,instr_done_touch.y,instr_done_touch.leftButton,instr_done_touch.midButton,instr_done_touch.rightButton,instr_done_touch.clicked_name,instruction_pages.thisRepN,instruction_pages.thisTrialN,instruction_pages.thisN,instruction_pages.thisIndex,instruction_pages.ran,pageN,phase,instruct_text,has_image,instruct_image,participant,age,date,expName,psychopyVersion,OS,frameRate,key_resp.rt,response.keys,response.corr,response.rt,touch_resp.x,touch_resp.y,touch_resp.leftButton,touch_resp.midButton,touch_resp.rightButton,touch_resp.time,touch_resp.clicked_name,rt,corr,practrials.thisRepN,practrials.thisTrialN,practrials.thisN,practrials.thisIndex,practrials.ran,TrialID,Target,corrAns,end_of_practice_trials_pages.thisRepN,end_of_practice_trials_pages.thisTrialN,end_of_practice_trials_pages.thisN,end_of_practice_trials_pages.thisIndex,end_of_practice_trials_pages.ran,key_resp_2.keys,key_resp_2.corr,key_resp_2.rt,targ_click.x,targ_click.y,targ_click.leftButton,targ_click.midButton,targ_click.rightButton,targ_click.time,targ_click.clicked_name,break_done_touch.x,break_done_touch.y,break_done_touch.leftButton,break_done_touch.midButton,break_done_touch.rightButton,break_done_keyboard.keys,maintrials.thisRepN,maintrials.thisTrialN,maintrials.thisN,maintrials.thisIndex,maintrials.ran,string,blur,study,lex,stim_path,break_done_keyboard.rt,mouse_2.x,mouse_2.y,mouse_2.leftButton,mouse_2.midButton,mouse_2.rightButton,mouse_2.clicked_name,slider.response,slider.rt,trials.thisRepN,trials.thisTrialN,trials.thisN,trials.thisIndex,trials.ran,test_instructions.thisRepN,test_instructions.thisTrialN,test_instructions.thisN,test_instructions.thisIndex,test_instructions.ran,key_resp_3.keys,key_resp_3.corr,key_resp_3.rt,test_click.x,test_click.y,test_click.leftButton,test_click.midButton,test_click.rightButton,test_click.time,test_click.clicked_name,test_phase.thisRepN,test_phase.thisTrialN,test_phase.thisN,test_phase.thisIndex,test_phase.ran,break_done_touch.clicked_name
,0.057092014,-0.381171875,1,0,0,instr_done_button,0,0,0,0,1,1,instructions,"INSTRUCTIONS
At the start of each trial, look at the plus sign  (+) in the center of the screen.  This tells you that a trial is about to begin and where to look. Second, the plus sign will disappear and a string of letters will appear. Your task is to determine if the string of letters is a word or not. If the item is a word press the M key (on keyboard)  or touch the word button (phone/tablet).  If the item is not a word,  press the  Z key (on keyboard)  or touch the nonword button (on phone/tablet). 
Press the space bar or touch  continue.",0,,5f2fc0f05b67073c177aaece,32,2022-02-12_11h25.23.964,lexical_decision_task_DD_L2,2021.2.3,MacIntel,60.0024001,,,,,,,,,,,,,,,,,,,,,,,,,,,,,,,,,,,,,,,,,,,,,,,,,,,,,,,,,,,,,,,,,,,,,,,,,,,,,,,,,,,,,,,
space,0.171332465,-0.287113715,0,0,0,,0,1,1,1,1,2,instructions,"If your device has a keyboard, press the 'Z' key for nonwords and the 'M' key for words.





Press the space bar or touch the button below to continue.",0,keyboard-example.gif,5f2fc0f05b67073c177aaece,32,2022-02-12_11h25.23.964,lexical_decision_task_DD_L2,2021.2.3,MacIntel,60.0024001,5.7339,,,,,,,,,,,,,,,,,,,,,,,,,,,,,,,,,,,,,,,,,,,,,,,,,,,,,,,,,,,,,,,,,,,,,,,,,,,,,,,,,,,,,,
space,0.185811632,-0.327764757,0,0,0,,0,2,2,2,1,3,instructions,"If you are using a touchscreen only device, use the buttons on the screen. Do not use the mouse.





Press the space bar or touch the button below to continue.",0,touchscreen-example.gif,5f2fc0f05b67073c177aaece,32,2022-02-12_11h25.23.964,lexical_decision_task_DD_L2,2021.2.3,MacIntel,60.0024001,2.3159,,,,,,,,,,,,,,,,,,,,,,,,,,,,,,,,,,,,,,,,,,,,,,,,,,,,,,,,,,,,,,,,,,,,,,,,,,,,,,,,,,,,,,
space,0.185811632,-0.327764757,0,0,0,,0,3,3,3,1,4,instructions,"It is very important that you respond as quickly and accurately as possible, as each letter string will only be on the screen for two seconds. If you do not respond within this time, the message 'Too slow!' will be displayed and the experiment will progress to the next letter string. The first 20 trials will be practice trials and you will receive feedback on your answers. 

Press the space bar or touch the button below to start the practice trials.",0,,5f2fc0f05b67073c177aaece,32,2022-02-12_11h25.23.964,lexical_decision_task_DD_L2,2021.2.3,MacIntel,60.0024001,6.4935,,,,,,,,,,,,,,,,,,,,,,,,,,,,,,,,,,,,,,,,,,,,,,,,,,,,,,,,,,,,,,,,,,,,,,,,,,,,,,,,,,,,,,
,,,,,,,,,,,,,,,,,5f2fc0f05b67073c177aaece,32,2022-02-12_11h25.23.964,lexical_decision_task_DD_L2,2021.2.3,MacIntel,60.0024001,,m,1,1.0512,,,,,,,,1.0512,1,0,0,0,6,1,1001,ZOMBIE,m,,,,,,,,,,,,,,,,,,,,,,,,,,,,,,,,,,,,,,,,,,,,,,,,,,,,,,,,,,,,,,,,,,
,,,,,,,,,,,,,,,,,5f2fc0f05b67073c177aaece,32,2022-02-12_11h25.23.964,lexical_decision_task_DD_L2,2021.2.3,MacIntel,60.0024001,,m,0,0.8267,,,,,,,,0.8267,0,0,1,1,10,1,1001,INLADE,z,,,,,,,,,,,,,,,,,,,,,,,,,,,,,,,,,,,,,,,,,,,,,,,,,,,,,,,,,,,,,,,,,,
,,,,,,,,,,,,,,,,,5f2fc0f05b67073c177aaece,32,2022-02-12_11h25.23.964,lexical_decision_task_DD_L2,2021.2.3,MacIntel,60.0024001,,m,1,0.5317,,,,,,,,0.5317,1,0,2,2,2,1,1001,ALMOND,m,,,,,,,,,,,,,,,,,,,,,,,,,,,,,,,,,,,,,,,,,,,,,,,,,,,,,,,,,,,,,,,,,,
,,,,,,,,,,,,,,,,,5f2fc0f05b67073c177aaece,32,2022-02-12_11h25.23.964,lexical_decision_task_DD_L2,2021.2.3,MacIntel,60.0024001,,z,0,0.8755,,,,,,,,0.8755,0,0,3,3,1,1,1001,ADJUST,m,,,,,,,,,,,,,,,,,,,,,,,,,,,,,,,,,,,,,,,,,,,,,,,,,,,,,,,,,,,,,,,,,,
,,,,,,,,,,,,,,,,,5f2fc0f05b67073c177aaece,32,2022-02-12_11h25.23.964,lexical_decision_task_DD_L2,2021.2.3,MacIntel,60.0024001,,z,1,0.9328,,,,,,,,0.9328,1,0,4,4,8,1,1001,ASLERT,z,,,,,,,,,,,,,,,,,,,,,,,,,,,,,,,,,,,,,,,,,,,,,,,,,,,,,,,,,,,,,,,,,,
,,,,,,,,,,,,,,,,,5f2fc0f05b67073c177aaece,32,2022-02-12_11h25.23.964,lexical_decision_task_DD_L2,2021.2.3,MacIntel,60.0024001,,m,1,0.706,,,,,,,,0.706,1,0,5,5,4,1,1001,SQUEAK,m,,,,,,,,,,,,,,,,,,,,,,,,,,,,,,,,,,,,,,,,,,,,,,,,,,,,,,,,,,,,,,,,,,
,,,,,,,,,,,,,,,,,5f2fc0f05b67073c177aaece,32,2022-02-12_11h25.23.964,lexical_decision_task_DD_L2,2021.2.3,MacIntel,60.0024001,,z,1,0.7849,,,,,,,,0.7849,1,0,6,6,15,1,1001,WHAISE,z,,,,,,,,,,,,,,,,,,,,,,,,,,,,,,,,,,,,,,,,,,,,,,,,,,,,,,,,,,,,,,,,,,
,,,,,,,,,,,,,,,,,5f2fc0f05b67073c177aaece,32,2022-02-12_11h25.23.964,lexical_decision_task_DD_L2,2021.2.3,MacIntel,60.0024001,,z,1,0.7982,,,,,,,,0.7982,1,0,7,7,11,1,1001,RASHET,z,,,,,,,,,,,,,,,,,,,,,,,,,,,,,,,,,,,,,,,,,,,,,,,,,,,,,,,,,,,,,,,,,,
,,,,,,,,,,,,,,,,,5f2fc0f05b67073c177aaece,32,2022-02-12_11h25.23.964,lexical_decision_task_DD_L2,2021.2.3,MacIntel,60.0024001,,m,1,0.7658,,,,,,,,0.7658,1,0,8,8,0,1,1001,UTOPIA,m,,,,,,,,,,,,,,,,,,,,,,,,,,,,,,,,,,,,,,,,,,,,,,,,,,,,,,,,,,,,,,,,,,
,,,,,,,,,,,,,,,,,5f2fc0f05b67073c177aaece,32,2022-02-12_11h25.23.964,lexical_decision_task_DD_L2,2021.2.3,MacIntel,60.0024001,,z,1,0.7597,,,,,,,,0.7597,1,0,9,9,9,1,1001,FARINY,z,,,,,,,,,,,,,,,,,,,,,,,,,,,,,,,,,,,,,,,,,,,,,,,,,,,,,,,,,,,,,,,,,,
,,,,,,,,,,,,,,,,,5f2fc0f05b67073c177aaece,32,2022-02-12_11h25.23.964,lexical_decision_task_DD_L2,2021.2.3,MacIntel,60.0024001,,m,1,0.5524,,,,,,,,0.5524,1,0,10,10,7,1,1001,VOLUME,m,,,,,,,,,,,,,,,,,,,,,,,,,,,,,,,,,,,,,,,,,,,,,,,,,,,,,,,,,,,,,,,,,,
,,,,,,,,,,,,,,,,,5f2fc0f05b67073c177aaece,32,2022-02-12_11h25.23.964,lexical_decision_task_DD_L2,2021.2.3,MacIntel,60.0024001,,z,1,0.7951,,,,,,,,0.7951,1,0,11,11,13,1,1001,ROUPET,z,,,,,,,,,,,,,,,,,,,,,,,,,,,,,,,,,,,,,,,,,,,,,,,,,,,,,,,,,,,,,,,,,,
,,,,,,,,,,,,,,,,,5f2fc0f05b67073c177aaece,32,2022-02-12_11h25.23.964,lexical_decision_task_DD_L2,2021.2.3,MacIntel,60.0024001,,m,1,0.6723,,,,,,,,0.6723,1,0,12,12,5,1,1001,OBTAIN,m,,,,,,,,,,,,,,,,,,,,,,,,,,,,,,,,,,,,,,,,,,,,,,,,,,,,,,,,,,,,,,,,,,
,,,,,,,,,,,,,,,,,5f2fc0f05b67073c177aaece,32,2022-02-12_11h25.23.964,lexical_decision_task_DD_L2,2021.2.3,MacIntel,60.0024001,,m,1,0.68,,,,,,,,0.68,1,0,13,13,3,1,1001,MATRIX,m,,,,,,,,,,,,,,,,,,,,,,,,,,,,,,,,,,,,,,,,,,,,,,,,,,,,,,,,,,,,,,,,,,
,,,,,,,,,,,,,,,,,5f2fc0f05b67073c177aaece,32,2022-02-12_11h25.23.964,lexical_decision_task_DD_L2,2021.2.3,MacIntel,60.0024001,,z,1,0.8231,,,,,,,,0.8231,1,0,14,14,14,1,1001,THRALE,z,,,,,,,,,,,,,,,,,,,,,,,,,,,,,,,,,,,,,,,,,,,,,,,,,,,,,,,,,,,,,,,,,,
,,,,,,,,,,,,,,,,,5f2fc0f05b67073c177aaece,32,2022-02-12_11h25.23.964,lexical_decision_task_DD_L2,2021.2.3,MacIntel,60.0024001,,z,1,0.8163,,,,,,,,0.8163,1,0,15,15,12,1,1001,SPRINY,z,,,,,,,,,,,,,,,,,,,,,,,,,,,,,,,,,,,,,,,,,,,,,,,,,,,,,,,,,,,,,,,,,,
space,0.162582465,-0.40218316,0,0,0,,,,,,,1,end_of_practice,"You have completed the practice trials. During the experimental trials, you will not receive feedback. 
Before you begin, please ensure that you are in a comfortable and quiet location and will not be disturbed for about 15 minutes, as we cannot use your data if you do not complete all the trials. 
 When you are ready to start the experimental trials, please press space or touch the button below.",,,5f2fc0f05b67073c177aaece,32,2022-02-12_11h25.23.964,lexical_decision_task_DD_L2,2021.2.3,MacIntel,60.0024001,11.1113,,,,,,,,,,,,,,,,,,,,,0,0,0,0,1,,,,,,,,,,,,,,,,,,,,,,,,,,,,,,,,,,,,,,,,,,,,,,,,,,,,,,,,,,,,,
,,,,,,,,,,,,,,,,,5f2fc0f05b67073c177aaece,32,2022-02-12_11h25.23.964,lexical_decision_task_DD_L2,2021.2.3,MacIntel,60.0024001,,,,,,,,,,,,1.1984,1,,,,,,,,,,,,,,m,1,1.1984,,,,,,,,0.162582465,-0.40218316,0,0,0,,0,0,0,16,1,PENCE,LB,old,m,./images/PENCELB.png,,,,,,,,,,,,,,,,,,,,,,,,,,,,,,,,,,,
,,,,,,,,,,,,,,,,,5f2fc0f05b67073c177aaece,32,2022-02-12_11h25.23.964,lexical_decision_task_DD_L2,2021.2.3,MacIntel,60.0024001,,,,,,,,,,,,1.6295,1,,,,,,,,,,,,,,z,1,1.6295,,,,,,,,0.162582465,-0.40218316,0,0,0,,0,1,1,133,1,POWDY,HB,old,z,./images/POWDYHB.png,,,,,,,,,,,,,,,,,,,,,,,,,,,,,,,,,,,
,,,,,,,,,,,,,,,,,5f2fc0f05b67073c177aaece,32,2022-02-12_11h25.23.964,lexical_decision_task_DD_L2,2021.2.3,MacIntel,60.0024001,,,,,,,,,,,,0.6776,1,,,,,,,,,,,,,,m,1,0.6776,,,,,,,,0.162582465,-0.40218316,0,0,0,,0,2,2,34,1,CANYON,LB,old,m,./images/CANYONLB.png,,,,,,,,,,,,,,,,,,,,,,,,,,,,,,,,,,,
,,,,,,,,,,,,,,,,,5f2fc0f05b67073c177aaece,32,2022-02-12_11h25.23.964,lexical_decision_task_DD_L2,2021.2.3,MacIntel,60.0024001,,,,,,,,,,,,0.8943,1,,,,,,,,,,,,,,z,1,0.8943,,,,,,,,0.162582465,-0.40218316,0,0,0,,0,3,3,98,1,BAMPS,LB,old,z,./images/BAMPSLB.png,,,,,,,,,,,,,,,,,,,,,,,,,,,,,,,,,,,
,,,,,,,,,,,,,,,,,5f2fc0f05b67073c177aaece,32,2022-02-12_11h25.23.964,lexical_decision_task_DD_L2,2021.2.3,MacIntel,60.0024001,,,,,,,,,,,,0.786,0,,,,,,,,,,,,,,m,0,0.786,,,,,,,,0.162582465,-0.40218316,0,0,0,,0,4,4,142,1,PLASK,HB,old,z,./images/PLASKHB.png,,,,,,,,,,,,,,,,,,,,,,,,,,,,,,,,,,,
,,,,,,,,,,,,,,,,,5f2fc0f05b67073c177aaece,32,2022-02-12_11h25.23.964,lexical_decision_task_DD_L2,2021.2.3,MacIntel,60.0024001,,,,,,,,,,,,0.8232,1,,,,,,,,,,,,,,z,1,0.8232,,,,,,,,0.162582465,-0.40218316,0,0,0,,0,5,5,125,1,MOOKY,LB,old,z,./images/MOOKYLB.png,,,,,,,,,,,,,,,,,,,,,,,,,,,,,,,,,,,
,,,,,,,,,,,,,,,,,5f2fc0f05b67073c177aaece,32,2022-02-12_11h25.23.964,lexical_decision_task_DD_L2,2021.2.3,MacIntel,60.0024001,,,,,,,,,,,,0.6044,1,,,,,,,,,,,,,,m,1,0.6044,,,,,,,,0.162582465,-0.40218316,0,0,0,,0,6,6,52,1,BANNER,LB,old,m,./images/BANNERLB.png,,,,,,,,,,,,,,,,,,,,,,,,,,,,,,,,,,,
,,,,,,,,,,,,,,,,,5f2fc0f05b67073c177aaece,32,2022-02-12_11h25.23.964,lexical_decision_task_DD_L2,2021.2.3,MacIntel,60.0024001,,,,,,,,,,,,0.8826,0,,,,,,,,,,,,,,m,0,0.8826,,,,,,,,0.162582465,-0.40218316,0,0,0,,0,7,7,88,1,GLUSH,HB,old,z,./images/GLUSHHB.png,,,,,,,,,,,,,,,,,,,,,,,,,,,,,,,,,,,
,,,,,,,,,,,,,,,,,5f2fc0f05b67073c177aaece,32,2022-02-12_11h25.23.964,lexical_decision_task_DD_L2,2021.2.3,MacIntel,60.0024001,,,,,,,,,,,,0.7585,1,,,,,,,,,,,,,,z,1,0.7585,,,,,,,,0.162582465,-0.40218316,0,0,0,,0,8,8,144,1,NAIRY,C,old,z,./images/NAIRY.png,,,,,,,,,,,,,,,,,,,,,,,,,,,,,,,,,,,
,,,,,,,,,,,,,,,,,5f2fc0f05b67073c177aaece,32,2022-02-12_11h25.23.964,lexical_decision_task_DD_L2,2021.2.3,MacIntel,60.0024001,,,,,,,,,,,,0.8968,1,,,,,,,,,,,,,,z,1,0.8968,,,,,,,,0.162582465,-0.40218316,0,0,0,,0,9,9,141,1,PLEET,C,old,z,./images/PLEET.png,,,,,,,,,,,,,,,,,,,,,,,,,,,,,,,,,,,
,,,,,,,,,,,,,,,,,5f2fc0f05b67073c177aaece,32,2022-02-12_11h25.23.964,lexical_decision_task_DD_L2,2021.2.3,MacIntel,60.0024001,,,,,,,,,,,,0.8266,1,,,,,,,,,,,,,,z,1,0.8266,,,,,,,,0.162582465,-0.40218316,0,0,0,,0,10,10,113,1,LINEW,LB,old,z,./images/LINEWLB.png,,,,,,,,,,,,,,,,,,,,,,,,,,,,,,,,,,,
,,,,,,,,,,,,,,,,,5f2fc0f05b67073c177aaece,32,2022-02-12_11h25.23.964,lexical_decision_task_DD_L2,2021.2.3,MacIntel,60.0024001,,,,,,,,,,,,0.9372,1,,,,,,,,,,,,,,z,1,0.9372,,,,,,,,0.162582465,-0.40218316,0,0,0,,0,11,11,106,1,CLUMS,HB,old,z,./images/CLUMSHB.png,,,,,,,,,,,,,,,,,,,,,,,,,,,,,,,,,,,
,,,,,,,,,,,,,,,,,5f2fc0f05b67073c177aaece,32,2022-02-12_11h25.23.964,lexical_decision_task_DD_L2,2021.2.3,MacIntel,60.0024001,,,,,,,,,,,,0.8041,1,,,,,,,,,,,,,,z,1,0.8041,,,,,,,,0.162582465,-0.40218316,0,0,0,,0,12,12,149,1,VEASE,LB,old,z,./images/VEASELB.png,,,,,,,,,,,,,,,,,,,,,,,,,,,,,,,,,,,
,,,,,,,,,,,,,,,,,5f2fc0f05b67073c177aaece,32,2022-02-12_11h25.23.964,lexical_decision_task_DD_L2,2021.2.3,MacIntel,60.0024001,,,,,,,,,,,,0.9045,1,,,,,,,,,,,,,,z,1,0.9045,,,,,,,,0.162582465,-0.40218316,0,0,0,,0,13,13,91,1,SHENS,HB,old,z,./images/SHENSHB.png,,,,,,,,,,,,,,,,,,,,,,,,,,,,,,,,,,,
,,,,,,,,,,,,,,,,,5f2fc0f05b67073c177aaece,32,2022-02-12_11h25.23.964,lexical_decision_task_DD_L2,2021.2.3,MacIntel,60.0024001,,,,,,,,,,,,0.695,1,,,,,,,,,,,,,,z,1,0.695,,,,,,,,0.162582465,-0.40218316,0,0,0,,0,14,14,134,1,TROSS,LB,old,z,./images/TROSSLB.png,,,,,,,,,,,,,,,,,,,,,,,,,,,,,,,,,,,
,,,,,,,,,,,,,,,,,5f2fc0f05b67073c177aaece,32,2022-02-12_11h25.23.964,lexical_decision_task_DD_L2,2021.2.3,MacIntel,60.0024001,,,,,,,,,,,,3.3047,1,,,,,,,,,,,,,,z,1,3.3047,,,,,,,,0.162582465,-0.40218316,0,0,0,,0,15,15,139,1,BLEAR,HB,old,z,./images/BLEARHB.png,,,,,,,,,,,,,,,,,,,,,,,,,,,,,,,,,,,
,,,,,,,,,,,,,,,,,5f2fc0f05b67073c177aaece,32,2022-02-12_11h25.23.964,lexical_decision_task_DD_L2,2021.2.3,MacIntel,60.0024001,,,,,,,,,,,,0.7357,1,,,,,,,,,,,,,,m,1,0.7357,,,,,,,,0.162582465,-0.40218316,0,0,0,,0,16,16,68,1,TORCH,C,old,m,./images/TORCH.png,,,,,,,,,,,,,,,,,,,,,,,,,,,,,,,,,,,
,,,,,,,,,,,,,,,,,5f2fc0f05b67073c177aaece,32,2022-02-12_11h25.23.964,lexical_decision_task_DD_L2,2021.2.3,MacIntel,60.0024001,,,,,,,,,,,,1.0867,1,,,,,,,,,,,,,,m,1,1.0867,,,,,,,,0.162582465,-0.40218316,0,0,0,,0,17,17,72,1,NOOSE,HB,old,m,./images/NOOSEHB.png,,,,,,,,,,,,,,,,,,,,,,,,,,,,,,,,,,,
,,,,,,,,,,,,,,,,,5f2fc0f05b67073c177aaece,32,2022-02-12_11h25.23.964,lexical_decision_task_DD_L2,2021.2.3,MacIntel,60.0024001,,,,,,,,,,,,1.0634,1,,,,,,,,,,,,,,z,1,1.0634,,,,,,,,0.162582465,-0.40218316,0,0,0,,0,18,18,148,1,JOMS,HB,old,z,./images/JOMSHB.png,,,,,,,,,,,,,,,,,,,,,,,,,,,,,,,,,,,
,,,,,,,,,,,,,,,,,5f2fc0f05b67073c177aaece,32,2022-02-12_11h25.23.964,lexical_decision_task_DD_L2,2021.2.3,MacIntel,60.0024001,,,,,,,,,,,,0.7531,1,,,,,,,,,,,,,,z,1,0.7531,,,,,,,,0.162582465,-0.40218316,0,0,0,,0,19,19,126,1,GUELS,C,old,z,./images/GUELS.png,,,,,,,,,,,,,,,,,,,,,,,,,,,,,,,,,,,
,,,,,,,,,,,,,,,,,5f2fc0f05b67073c177aaece,32,2022-02-12_11h25.23.964,lexical_decision_task_DD_L2,2021.2.3,MacIntel,60.0024001,,,,,,,,,,,,0.6759,1,,,,,,,,,,,,,,m,1,0.6759,,,,,,,,0.162582465,-0.40218316,0,0,0,,0,20,20,18,1,JAGUAR,HB,old,m,./images/JAGUARHB.png,,,,,,,,,,,,,,,,,,,,,,,,,,,,,,,,,,,
,,,,,,,,,,,,,,,,,5f2fc0f05b67073c177aaece,32,2022-02-12_11h25.23.964,lexical_decision_task_DD_L2,2021.2.3,MacIntel,60.0024001,,,,,,,,,,,,0.6383,1,,,,,,,,,,,,,,z,1,0.6383,,,,,,,,0.162582465,-0.40218316,0,0,0,,0,21,21,147,1,ZOLES,C,old,z,./images/ZOLES.png,,,,,,,,,,,,,,,,,,,,,,,,,,,,,,,,,,,
,,,,,,,,,,,,,,,,,5f2fc0f05b67073c177aaece,32,2022-02-12_11h25.23.964,lexical_decision_task_DD_L2,2021.2.3,MacIntel,60.0024001,,,,,,,,,,,,0.6795,1,,,,,,,,,,,,,,z,1,0.6795,,,,,,,,0.162582465,-0.40218316,0,0,0,,0,22,22,137,1,JOOST,LB,old,z,./images/JOOSTLB.png,,,,,,,,,,,,,,,,,,,,,,,,,,,,,,,,,,,
,,,,,,,,,,,,,,,,,5f2fc0f05b67073c177aaece,32,2022-02-12_11h25.23.964,lexical_decision_task_DD_L2,2021.2.3,MacIntel,60.0024001,,,,,,,,,,,,0.7914,1,,,,,,,,,,,,,,z,1,0.7914,,,,,,,,0.162582465,-0.40218316,0,0,0,,0,23,23,167,1,ZONET,LB,old,z,./images/ZONETLB.png,,,,,,,,,,,,,,,,,,,,,,,,,,,,,,,,,,,
,,,,,,,,,,,,,,,,,5f2fc0f05b67073c177aaece,32,2022-02-12_11h25.23.964,lexical_decision_task_DD_L2,2021.2.3,MacIntel,60.0024001,,,,,,,,,,,,0.5917,1,,,,,,,,,,,,,,m,1,0.5917,,,,,,,,0.162582465,-0.40218316,0,0,0,,0,24,24,66,1,SWEAT,HB,old,m,./images/SWEATHB.png,,,,,,,,,,,,,,,,,,,,,,,,,,,,,,,,,,,
,,,,,,,,,,,,,,,,,5f2fc0f05b67073c177aaece,32,2022-02-12_11h25.23.964,lexical_decision_task_DD_L2,2021.2.3,MacIntel,60.0024001,,,,,,,,,,,,0.7908,1,,,,,,,,,,,,,,m,1,0.7908,,,,,,,,0.162582465,-0.40218316,0,0,0,,0,25,25,60,1,TWINS,HB,old,m,./images/TWINSHB.png,,,,,,,,,,,,,,,,,,,,,,,,,,,,,,,,,,,
,,,,,,,,,,,,,,,,,5f2fc0f05b67073c177aaece,32,2022-02-12_11h25.23.964,lexical_decision_task_DD_L2,2021.2.3,MacIntel,60.0024001,,,,,,,,,,,,0.6518,1,,,,,,,,,,,,,,m,1,0.6518,,,,,,,,0.162582465,-0.40218316,0,0,0,,0,26,26,83,1,JUNGLE,C,old,m,./images/JUNGLE.png,,,,,,,,,,,,,,,,,,,,,,,,,,,,,,,,,,,
,,,,,,,,,,,,,,,,,5f2fc0f05b67073c177aaece,32,2022-02-12_11h25.23.964,lexical_decision_task_DD_L2,2021.2.3,MacIntel,60.0024001,,,,,,,,,,,,0.7041,1,,,,,,,,,,,,,,z,1,0.7041,,,,,,,,0.162582465,-0.40218316,0,0,0,,0,27,27,108,1,GRUET,C,old,z,./images/GRUET.png,,,,,,,,,,,,,,,,,,,,,,,,,,,,,,,,,,,
,,,,,,,,,,,,,,,,,5f2fc0f05b67073c177aaece,32,2022-02-12_11h25.23.964,lexical_decision_task_DD_L2,2021.2.3,MacIntel,60.0024001,,,,,,,,,,,,0.7421,1,,,,,,,,,,,,,,m,1,0.7421,,,,,,,,0.162582465,-0.40218316,0,0,0,,0,28,28,9,1,RHINO,HB,old,m,./images/RHINOHB.png,,,,,,,,,,,,,,,,,,,,,,,,,,,,,,,,,,,
,,,,,,,,,,,,,,,,,5f2fc0f05b67073c177aaece,32,2022-02-12_11h25.23.964,lexical_decision_task_DD_L2,2021.2.3,MacIntel,60.0024001,,,,,,,,,,,,0.7928,1,,,,,,,,,,,,,,z,1,0.7928,,,,,,,,0.162582465,-0.40218316,0,0,0,,0,29,29,155,1,CANGY,LB,old,z,./images/CANGYLB.png,,,,,,,,,,,,,,,,,,,,,,,,,,,,,,,,,,,
,,,,,,,,,,,,,,,,,5f2fc0f05b67073c177aaece,32,2022-02-12_11h25.23.964,lexical_decision_task_DD_L2,2021.2.3,MacIntel,60.0024001,,,,,,,,,,,,0.7246,1,,,,,,,,,,,,,,z,1,0.7246,,,,,,,,0.162582465,-0.40218316,0,0,0,,0,30,30,102,1,DULLE,C,old,z,./images/DULLE.png,,,,,,,,,,,,,,,,,,,,,,,,,,,,,,,,,,,
,,,,,,,,,,,,,,,,,5f2fc0f05b67073c177aaece,32,2022-02-12_11h25.23.964,lexical_decision_task_DD_L2,2021.2.3,MacIntel,60.0024001,,,,,,,,,,,,0.6142,1,,,,,,,,,,,,,,z,1,0.6142,,,,,,,,0.162582465,-0.40218316,0,0,0,,0,31,31,92,1,PAIMS,LB,old,z,./images/PAIMSLB.png,,,,,,,,,,,,,,,,,,,,,,,,,,,,,,,,,,,
,,,,,,,,,,,,,,,,,5f2fc0f05b67073c177aaece,32,2022-02-12_11h25.23.964,lexical_decision_task_DD_L2,2021.2.3,MacIntel,60.0024001,,,,,,,,,,,,0.6873,1,,,,,,,,,,,,,,m,1,0.6873,,,,,,,,0.162582465,-0.40218316,0,0,0,,0,32,32,23,1,WALRUS,C,old,m,./images/WALRUS.png,,,,,,,,,,,,,,,,,,,,,,,,,,,,,,,,,,,
,,,,,,,,,,,,,,,,,5f2fc0f05b67073c177aaece,32,2022-02-12_11h25.23.964,lexical_decision_task_DD_L2,2021.2.3,MacIntel,60.0024001,,,,,,,,,,,,0.732,1,,,,,,,,,,,,,,z,1,0.732,,,,,,,,0.162582465,-0.40218316,0,0,0,,0,33,33,150,1,NOOLS,C,old,z,./images/NOOLS.png,,,,,,,,,,,,,,,,,,,,,,,,,,,,,,,,,,,
,,,,,,,,,,,,,,,,,5f2fc0f05b67073c177aaece,32,2022-02-12_11h25.23.964,lexical_decision_task_DD_L2,2021.2.3,MacIntel,60.0024001,,,,,,,,,,,,0.6776,1,,,,,,,,,,,,,,m,1,0.6776,,,,,,,,0.162582465,-0.40218316,0,0,0,,0,34,34,70,1,URINE,LB,old,m,./images/URINELB.png,,,,,,,,,,,,,,,,,,,,,,,,,,,,,,,,,,,
,,,,,,,,,,,,,,,,,5f2fc0f05b67073c177aaece,32,2022-02-12_11h25.23.964,lexical_decision_task_DD_L2,2021.2.3,MacIntel,60.0024001,,,,,,,,,,,,0.6456,1,,,,,,,,,,,,,,z,1,0.6456,,,,,,,,0.162582465,-0.40218316,0,0,0,,0,35,35,99,1,BACKY,C,old,z,./images/BACKY.png,,,,,,,,,,,,,,,,,,,,,,,,,,,,,,,,,,,
,,,,,,,,,,,,,,,,,5f2fc0f05b67073c177aaece,32,2022-02-12_11h25.23.964,lexical_decision_task_DD_L2,2021.2.3,MacIntel,60.0024001,,,,,,,,,,,,0.5754,1,,,,,,,,,,,,,,z,1,0.5754,,,,,,,,0.162582465,-0.40218316,0,0,0,,0,36,36,114,1,RIKES,C,old,z,./images/RIKES.png,,,,,,,,,,,,,,,,,,,,,,,,,,,,,,,,,,,
,,,,,,,,,,,,,,,,,5f2fc0f05b67073c177aaece,32,2022-02-12_11h25.23.964,lexical_decision_task_DD_L2,2021.2.3,MacIntel,60.0024001,,,,,,,,,,,,0.491,1,,,,,,,,,,,,,,z,1,0.491,,,,,,,,0.162582465,-0.40218316,0,0,0,,0,37,37,123,1,SEDGE,C,old,z,./images/SEDGE.png,,,,,,,,,,,,,,,,,,,,,,,,,,,,,,,,,,,
,,,,,,,,,,,,,,,,,5f2fc0f05b67073c177aaece,32,2022-02-12_11h25.23.964,lexical_decision_task_DD_L2,2021.2.3,MacIntel,60.0024001,,,,,,,,,,,,1.1277,1,,,,,,,,,,,,,,z,1,1.1277,,,,,,,,0.162582465,-0.40218316,0,0,0,,0,38,38,154,1,THINT,HB,old,z,./images/THINTHB.png,,,,,,,,,,,,,,,,,,,,,,,,,,,,,,,,,,,
,,,,,,,,,,,,,,,,,5f2fc0f05b67073c177aaece,32,2022-02-12_11h25.23.964,lexical_decision_task_DD_L2,2021.2.3,MacIntel,60.0024001,,,,,,,,,,,,0.5633,1,,,,,,,,,,,,,,m,1,0.5633,,,,,,,,0.162582465,-0.40218316,0,0,0,,0,39,39,19,1,DOUGH,LB,old,m,./images/DOUGHLB.png,,,,,,,,,,,,,,,,,,,,,,,,,,,,,,,,,,,
,,,,,,,,,,,,,,,,,5f2fc0f05b67073c177aaece,32,2022-02-12_11h25.23.964,lexical_decision_task_DD_L2,2021.2.3,MacIntel,60.0024001,,,,,,,,,,,,0.5295,1,,,,,,,,,,,,,,z,1,0.5295,,,,,,,,0.161775174,-0.400251736,0,0,0,,0,40,40,143,1,MONGS,LB,old,z,./images/MONGSLB.png,,,,,,,,,,,,,,,,,,,,,,,,,,,,,,,,,,,
,,,,,,,,,,,,,,,,,5f2fc0f05b67073c177aaece,32,2022-02-12_11h25.23.964,lexical_decision_task_DD_L2,2021.2.3,MacIntel,60.0024001,,,,,,,,,,,,0.7314,1,,,,,,,,,,,,,,z,1,0.7314,,,,,,,,0.162452257,-0.399908854,0,0,0,space,0,41,41,156,1,HIXES,C,old,z,./images/HIXES.png,194.9855,,,,,,,,,,,,,,,,,,,,,,,,,,,,,,,,,,
,,,,,,,,,,,,,,,,,5f2fc0f05b67073c177aaece,32,2022-02-12_11h25.23.964,lexical_decision_task_DD_L2,2021.2.3,MacIntel,60.0024001,,,,,,,,,,,,0.6808,1,,,,,,,,,,,,,,m,1,0.6808,,,,,,,,0.162452257,-0.399908854,0,0,0,,0,42,42,25,1,WRIST,LB,old,m,./images/WRISTLB.png,,,,,,,,,,,,,,,,,,,,,,,,,,,,,,,,,,,
,,,,,,,,,,,,,,,,,5f2fc0f05b67073c177aaece,32,2022-02-12_11h25.23.964,lexical_decision_task_DD_L2,2021.2.3,MacIntel,60.0024001,,,,,,,,,,,,0.7012,1,,,,,,,,,,,,,,z,1,0.7012,,,,,,,,0.162452257,-0.399908854,0,0,0,,0,43,43,138,1,PLICE,C,old,z,./images/PLICE.png,,,,,,,,,,,,,,,,,,,,,,,,,,,,,,,,,,,
,,,,,,,,,,,,,,,,,5f2fc0f05b67073c177aaece,32,2022-02-12_11h25.23.964,lexical_decision_task_DD_L2,2021.2.3,MacIntel,60.0024001,,,,,,,,,,,,0.8472,1,,,,,,,,,,,,,,z,1,0.8472,,,,,,,,0.162452257,-0.399908854,0,0,0,,0,44,44,145,1,LAMEL,HB,old,z,./images/LAMELHB.png,,,,,,,,,,,,,,,,,,,,,,,,,,,,,,,,,,,
,,,,,,,,,,,,,,,,,5f2fc0f05b67073c177aaece,32,2022-02-12_11h25.23.964,lexical_decision_task_DD_L2,2021.2.3,MacIntel,60.0024001,,,,,,,,,,,,0.7511,1,,,,,,,,,,,,,,m,1,0.7511,,,,,,,,0.162452257,-0.399908854,0,0,0,,0,45,45,77,1,COUCH,C,old,m,./images/COUCH.png,,,,,,,,,,,,,,,,,,,,,,,,,,,,,,,,,,,
,,,,,,,,,,,,,,,,,5f2fc0f05b67073c177aaece,32,2022-02-12_11h25.23.964,lexical_decision_task_DD_L2,2021.2.3,MacIntel,60.0024001,,,,,,,,,,,,0.6786,1,,,,,,,,,,,,,,m,1,0.6786,,,,,,,,0.162452257,-0.399908854,0,0,0,,0,46,46,46,1,PEARL,LB,old,m,./images/PEARLLB.png,,,,,,,,,,,,,,,,,,,,,,,,,,,,,,,,,,,
,,,,,,,,,,,,,,,,,5f2fc0f05b67073c177aaece,32,2022-02-12_11h25.23.964,lexical_decision_task_DD_L2,2021.2.3,MacIntel,60.0024001,,,,,,,,,,,,0.7697,1,,,,,,,,,,,,,,m,1,0.7697,,,,,,,,0.162452257,-0.399908854,0,0,0,,0,47,47,20,1,CRADLE,C,old,m,./images/CRADLE.png,,,,,,,,,,,,,,,,,,,,,,,,,,,,,,,,,,,
,,,,,,,,,,,,,,,,,5f2fc0f05b67073c177aaece,32,2022-02-12_11h25.23.964,lexical_decision_task_DD_L2,2021.2.3,MacIntel,60.0024001,,,,,,,,,,,,0.6607,1,,,,,,,,,,,,,,m,1,0.6607,,,,,,,,0.162452257,-0.399908854,0,0,0,,0,48,48,67,1,SAILOR,LB,old,m,./images/SAILORLB.png,,,,,,,,,,,,,,,,,,,,,,,,,,,,,,,,,,,
,,,,,,,,,,,,,,,,,5f2fc0f05b67073c177aaece,32,2022-02-12_11h25.23.964,lexical_decision_task_DD_L2,2021.2.3,MacIntel,60.0024001,,,,,,,,,,,,1.2294,0,,,,,,,,,,,,,,m,0,1.2294,,,,,,,,0.162452257,-0.399908854,0,0,0,,0,49,49,100,1,DRIBS,HB,old,z,./images/DRIBSHB.png,,,,,,,,,,,,,,,,,,,,,,,,,,,,,,,,,,,
,,,,,,,,,,,,,,,,,5f2fc0f05b67073c177aaece,32,2022-02-12_11h25.23.964,lexical_decision_task_DD_L2,2021.2.3,MacIntel,60.0024001,,,,,,,,,,,,0.8128,0,,,,,,,,,,,,,,m,0,0.8128,,,,,,,,0.162452257,-0.399908854,0,0,0,,0,50,50,128,1,GRIFT,LB,old,z,./images/GRIFTLB.png,,,,,,,,,,,,,,,,,,,,,,,,,,,,,,,,,,,
,,,,,,,,,,,,,,,,,5f2fc0f05b67073c177aaece,32,2022-02-12_11h25.23.964,lexical_decision_task_DD_L2,2021.2.3,MacIntel,60.0024001,,,,,,,,,,,,0.8134,1,,,,,,,,,,,,,,z,1,0.8134,,,,,,,,0.162452257,-0.399908854,0,0,0,,0,51,51,146,1,MOOST,LB,old,z,./images/MOOSTLB.png,,,,,,,,,,,,,,,,,,,,,,,,,,,,,,,,,,,
,,,,,,,,,,,,,,,,,5f2fc0f05b67073c177aaece,32,2022-02-12_11h25.23.964,lexical_decision_task_DD_L2,2021.2.3,MacIntel,60.0024001,,,,,,,,,,,,0.7308,1,,,,,,,,,,,,,,z,1,0.7308,,,,,,,,0.162452257,-0.399908854,0,0,0,,0,52,52,131,1,NACES,LB,old,z,./images/NACESLB.png,,,,,,,,,,,,,,,,,,,,,,,,,,,,,,,,,,,
,,,,,,,,,,,,,,,,,5f2fc0f05b67073c177aaece,32,2022-02-12_11h25.23.964,lexical_decision_task_DD_L2,2021.2.3,MacIntel,60.0024001,,,,,,,,,,,,0.6524,1,,,,,,,,,,,,,,z,1,0.6524,,,,,,,,0.162452257,-0.399908854,0,0,0,,0,53,53,135,1,JOODY,C,old,z,./images/JOODY.png,,,,,,,,,,,,,,,,,,,,,,,,,,,,,,,,,,,
,,,,,,,,,,,,,,,,,5f2fc0f05b67073c177aaece,32,2022-02-12_11h25.23.964,lexical_decision_task_DD_L2,2021.2.3,MacIntel,60.0024001,,,,,,,,,,,,0.6457,1,,,,,,,,,,,,,,m,1,0.6457,,,,,,,,0.162452257,-0.399908854,0,0,0,,0,54,54,82,1,SUNSET,LB,old,m,./images/SUNSETLB.png,,,,,,,,,,,,,,,,,,,,,,,,,,,,,,,,,,,
,,,,,,,,,,,,,,,,,5f2fc0f05b67073c177aaece,32,2022-02-12_11h25.23.964,lexical_decision_task_DD_L2,2021.2.3,MacIntel,60.0024001,,,,,,,,,,,,0.6475,1,,,,,,,,,,,,,,m,1,0.6475,,,,,,,,0.162452257,-0.399908854,0,0,0,,0,55,55,12,1,SHORE,HB,old,m,./images/SHOREHB.png,,,,,,,,,,,,,,,,,,,,,,,,,,,,,,,,,,,
,,,,,,,,,,,,,,,,,5f2fc0f05b67073c177aaece,32,2022-02-12_11h25.23.964,lexical_decision_task_DD_L2,2021.2.3,MacIntel,60.0024001,,,,,,,,,,,,1.0832,1,,,,,,,,,,,,,,z,1,1.0832,,,,,,,,0.162452257,-0.399908854,0,0,0,,0,56,56,112,1,MYING,HB,old,z,./images/MYINGHB.png,,,,,,,,,,,,,,,,,,,,,,,,,,,,,,,,,,,
,,,,,,,,,,,,,,,,,5f2fc0f05b67073c177aaece,32,2022-02-12_11h25.23.964,lexical_decision_task_DD_L2,2021.2.3,MacIntel,60.0024001,,,,,,,,,,,,1.1577,1,,,,,,,,,,,,,,z,1,1.1577,,,,,,,,0.162452257,-0.399908854,0,0,0,,0,57,57,163,1,GAMBA,HB,old,z,./images/GAMBAHB.png,,,,,,,,,,,,,,,,,,,,,,,,,,,,,,,,,,,
,,,,,,,,,,,,,,,,,5f2fc0f05b67073c177aaece,32,2022-02-12_11h25.23.964,lexical_decision_task_DD_L2,2021.2.3,MacIntel,60.0024001,,,,,,,,,,,,0.9329,1,,,,,,,,,,,,,,z,1,0.9329,,,,,,,,0.162452257,-0.399908854,0,0,0,,0,58,58,109,1,BURGE,HB,old,z,./images/BURGEHB.png,,,,,,,,,,,,,,,,,,,,,,,,,,,,,,,,,,,
,,,,,,,,,,,,,,,,,5f2fc0f05b67073c177aaece,32,2022-02-12_11h25.23.964,lexical_decision_task_DD_L2,2021.2.3,MacIntel,60.0024001,,,,,,,,,,,,0.7146,1,,,,,,,,,,,,,,z,1,0.7146,,,,,,,,0.162452257,-0.399908854,0,0,0,,0,59,59,121,1,CEERS,HB,old,z,./images/CEERSHB.png,,,,,,,,,,,,,,,,,,,,,,,,,,,,,,,,,,,
,,,,,,,,,,,,,,,,,5f2fc0f05b67073c177aaece,32,2022-02-12_11h25.23.964,lexical_decision_task_DD_L2,2021.2.3,MacIntel,60.0024001,,,,,,,,,,,,0.7489,1,,,,,,,,,,,,,,m,1,0.7489,,,,,,,,0.162452257,-0.399908854,0,0,0,,0,60,60,42,1,FOLDER,HB,old,m,./images/FOLDERHB.png,,,,,,,,,,,,,,,,,,,,,,,,,,,,,,,,,,,
,,,,,,,,,,,,,,,,,5f2fc0f05b67073c177aaece,32,2022-02-12_11h25.23.964,lexical_decision_task_DD_L2,2021.2.3,MacIntel,60.0024001,,,,,,,,,,,,1.0687,1,,,,,,,,,,,,,,z,1,1.0687,,,,,,,,0.162452257,-0.399908854,0,0,0,,0,61,61,94,1,BLANS,HB,old,z,./images/BLANSHB.png,,,,,,,,,,,,,,,,,,,,,,,,,,,,,,,,,,,
,,,,,,,,,,,,,,,,,5f2fc0f05b67073c177aaece,32,2022-02-12_11h25.23.964,lexical_decision_task_DD_L2,2021.2.3,MacIntel,60.0024001,,,,,,,,,,,,0.6724,1,,,,,,,,,,,,,,m,1,0.6724,,,,,,,,0.162452257,-0.399908854,0,0,0,,0,62,62,35,1,PEACH,C,old,m,./images/PEACH.png,,,,,,,,,,,,,,,,,,,,,,,,,,,,,,,,,,,
,,,,,,,,,,,,,,,,,5f2fc0f05b67073c177aaece,32,2022-02-12_11h25.23.964,lexical_decision_task_DD_L2,2021.2.3,MacIntel,60.0024001,,,,,,,,,,,,0.6215,1,,,,,,,,,,,,,,m,1,0.6215,,,,,,,,0.162452257,-0.399908854,0,0,0,,0,63,63,32,1,BARREL,C,old,m,./images/BARREL.png,,,,,,,,,,,,,,,,,,,,,,,,,,,,,,,,,,,
,,,,,,,,,,,,,,,,,5f2fc0f05b67073c177aaece,32,2022-02-12_11h25.23.964,lexical_decision_task_DD_L2,2021.2.3,MacIntel,60.0024001,,,,,,,,,,,,0.5815,1,,,,,,,,,,,,,,m,1,0.5815,,,,,,,,0.162452257,-0.399908854,0,0,0,,0,64,64,55,1,MUFFIN,LB,old,m,./images/MUFFINLB.png,,,,,,,,,,,,,,,,,,,,,,,,,,,,,,,,,,,
,,,,,,,,,,,,,,,,,5f2fc0f05b67073c177aaece,32,2022-02-12_11h25.23.964,lexical_decision_task_DD_L2,2021.2.3,MacIntel,60.0024001,,,,,,,,,,,,0.5534,1,,,,,,,,,,,,,,z,1,0.5534,,,,,,,,0.162452257,-0.399908854,0,0,0,,0,65,65,132,1,SCIFF,C,old,z,./images/SCIFF.png,,,,,,,,,,,,,,,,,,,,,,,,,,,,,,,,,,,
,,,,,,,,,,,,,,,,,5f2fc0f05b67073c177aaece,32,2022-02-12_11h25.23.964,lexical_decision_task_DD_L2,2021.2.3,MacIntel,60.0024001,,,,,,,,,,,,0.5509,1,,,,,,,,,,,,,,z,1,0.5509,,,,,,,,0.162452257,-0.399908854,0,0,0,,0,66,66,117,1,STEEG,C,old,z,./images/STEEG.png,,,,,,,,,,,,,,,,,,,,,,,,,,,,,,,,,,,
,,,,,,,,,,,,,,,,,5f2fc0f05b67073c177aaece,32,2022-02-12_11h25.23.964,lexical_decision_task_DD_L2,2021.2.3,MacIntel,60.0024001,,,,,,,,,,,,0.6362,1,,,,,,,,,,,,,,z,1,0.6362,,,,,,,,0.162452257,-0.399908854,0,0,0,,0,67,67,122,1,BLOOT,LB,old,z,./images/BLOOTLB.png,,,,,,,,,,,,,,,,,,,,,,,,,,,,,,,,,,,
,,,,,,,,,,,,,,,,,5f2fc0f05b67073c177aaece,32,2022-02-12_11h25.23.964,lexical_decision_task_DD_L2,2021.2.3,MacIntel,60.0024001,,,,,,,,,,,,0.6789,1,,,,,,,,,,,,,,m,1,0.6789,,,,,,,,0.162452257,-0.399908854,0,0,0,,0,68,68,80,1,WEASEL,C,old,m,./images/WEASEL.png,,,,,,,,,,,,,,,,,,,,,,,,,,,,,,,,,,,
,,,,,,,,,,,,,,,,,5f2fc0f05b67073c177aaece,32,2022-02-12_11h25.23.964,lexical_decision_task_DD_L2,2021.2.3,MacIntel,60.0024001,,,,,,,,,,,,0.6984,1,,,,,,,,,,,,,,m,1,0.6984,,,,,,,,0.162452257,-0.399908854,0,0,0,,0,69,69,73,1,SNACK,LB,old,m,./images/SNACKLB.png,,,,,,,,,,,,,,,,,,,,,,,,,,,,,,,,,,,
,,,,,,,,,,,,,,,,,5f2fc0f05b67073c177aaece,32,2022-02-12_11h25.23.964,lexical_decision_task_DD_L2,2021.2.3,MacIntel,60.0024001,,,,,,,,,,,,0.9233,0,,,,,,,,,,,,,,m,0,0.9233,,,,,,,,0.162452257,-0.399908854,0,0,0,,0,70,70,110,1,CRUNK,LB,old,z,./images/CRUNKLB.png,,,,,,,,,,,,,,,,,,,,,,,,,,,,,,,,,,,
,,,,,,,,,,,,,,,,,5f2fc0f05b67073c177aaece,32,2022-02-12_11h25.23.964,lexical_decision_task_DD_L2,2021.2.3,MacIntel,60.0024001,,,,,,,,,,,,0.8384,1,,,,,,,,,,,,,,m,1,0.8384,,,,,,,,0.162452257,-0.399908854,0,0,0,,0,71,71,54,1,TRIPOD,HB,old,m,./images/TRIPODHB.png,,,,,,,,,,,,,,,,,,,,,,,,,,,,,,,,,,,
,,,,,,,,,,,,,,,,,5f2fc0f05b67073c177aaece,32,2022-02-12_11h25.23.964,lexical_decision_task_DD_L2,2021.2.3,MacIntel,60.0024001,,,,,,,,,,,,0.5149,1,,,,,,,,,,,,,,m,1,0.5149,,,,,,,,0.162452257,-0.399908854,0,0,0,,0,72,72,22,1,MELON,LB,old,m,./images/MELONLB.png,,,,,,,,,,,,,,,,,,,,,,,,,,,,,,,,,,,
,,,,,,,,,,,,,,,,,5f2fc0f05b67073c177aaece,32,2022-02-12_11h25.23.964,lexical_decision_task_DD_L2,2021.2.3,MacIntel,60.0024001,,,,,,,,,,,,0.5711,1,,,,,,,,,,,,,,z,1,0.5711,,,,,,,,0.162452257,-0.399908854,0,0,0,,0,73,73,152,1,FRAIN,LB,old,z,./images/FRAINLB.png,,,,,,,,,,,,,,,,,,,,,,,,,,,,,,,,,,,
,,,,,,,,,,,,,,,,,5f2fc0f05b67073c177aaece,32,2022-02-12_11h25.23.964,lexical_decision_task_DD_L2,2021.2.3,MacIntel,60.0024001,,,,,,,,,,,,0.5297,1,,,,,,,,,,,,,,m,1,0.5297,,,,,,,,0.162452257,-0.399908854,0,0,0,,0,74,74,61,1,CANDLE,LB,old,m,./images/CANDLELB.png,,,,,,,,,,,,,,,,,,,,,,,,,,,,,,,,,,,
,,,,,,,,,,,,,,,,,5f2fc0f05b67073c177aaece,32,2022-02-12_11h25.23.964,lexical_decision_task_DD_L2,2021.2.3,MacIntel,60.0024001,,,,,,,,,,,,0.5403,1,,,,,,,,,,,,,,m,1,0.5403,,,,,,,,0.162452257,-0.399908854,0,0,0,,0,75,75,5,1,PASTA,C,old,m,./images/PASTA.png,,,,,,,,,,,,,,,,,,,,,,,,,,,,,,,,,,,
,,,,,,,,,,,,,,,,,5f2fc0f05b67073c177aaece,32,2022-02-12_11h25.23.964,lexical_decision_task_DD_L2,2021.2.3,MacIntel,60.0024001,,,,,,,,,,,,0.7283,1,,,,,,,,,,,,,,m,1,0.7283,,,,,,,,0.162452257,-0.399908854,0,0,0,,0,76,76,75,1,GRAIN,HB,old,m,./images/GRAINHB.png,,,,,,,,,,,,,,,,,,,,,,,,,,,,,,,,,,,
,,,,,,,,,,,,,,,,,5f2fc0f05b67073c177aaece,32,2022-02-12_11h25.23.964,lexical_decision_task_DD_L2,2021.2.3,MacIntel,60.0024001,,,,,,,,,,,,0.5818,1,,,,,,,,,,,,,,z,1,0.5818,,,,,,,,0.162452257,-0.399908854,0,0,0,,0,77,77,104,1,GITTY,LB,old,z,./images/GITTYLB.png,,,,,,,,,,,,,,,,,,,,,,,,,,,,,,,,,,,
,,,,,,,,,,,,,,,,,5f2fc0f05b67073c177aaece,32,2022-02-12_11h25.23.964,lexical_decision_task_DD_L2,2021.2.3,MacIntel,60.0024001,,,,,,,,,,,,0.6247,1,,,,,,,,,,,,,,m,1,0.6247,,,,,,,,0.162452257,-0.399908854,0,0,0,,0,78,78,62,1,PURSE,C,old,m,./images/PURSE.png,,,,,,,,,,,,,,,,,,,,,,,,,,,,,,,,,,,
,,,,,,,,,,,,,,,,,5f2fc0f05b67073c177aaece,32,2022-02-12_11h25.23.964,lexical_decision_task_DD_L2,2021.2.3,MacIntel,60.0024001,,,,,,,,,,,,0.7224,1,,,,,,,,,,,,,,m,1,0.7224,,,,,,,,0.162452257,-0.399908854,0,0,0,,0,79,79,15,1,GREASE,HB,old,m,./images/GREASEHB.png,,,,,,,,,,,,,,,,,,,,,,,,,,,,,,,,,,,
,,,,,,,,,,,,,,,,,5f2fc0f05b67073c177aaece,32,2022-02-12_11h25.23.964,lexical_decision_task_DD_L2,2021.2.3,MacIntel,60.0024001,,,,,,,,,,,,0.5416,1,,,,,,,,,,,,,,m,1,0.5416,,,,,,,,0.162452257,-0.399908854,0,0,0,,0,80,80,38,1,LADDER,C,old,m,./images/LADDER.png,,,,,,,,,,,,,,,,,,,,,,,,,,,,,,,,,,,
,,,,,,,,,,,,,,,,,5f2fc0f05b67073c177aaece,32,2022-02-12_11h25.23.964,lexical_decision_task_DD_L2,2021.2.3,MacIntel,60.0024001,,,,,,,,,,,,0.539,1,,,,,,,,,,,,,,m,1,0.539,,,,,,,,0.162452257,-0.399908854,0,0,0,,0,81,81,26,1,SMOKER,C,old,m,./images/SMOKER.png,,,,,,,,,,,,,,,,,,,,,,,,,,,,,,,,,,,
,,,,,,,,,,,,,,,,,5f2fc0f05b67073c177aaece,32,2022-02-12_11h25.23.964,lexical_decision_task_DD_L2,2021.2.3,MacIntel,60.0024001,,,,,,,,,,,,0.6551,1,,,,,,,,,,,,,,z,1,0.6551,,,,,,,,0.162452257,-0.399908854,0,0,0,,0,82,82,101,1,GLEET,LB,old,z,./images/GLEETLB.png,,,,,,,,,,,,,,,,,,,,,,,,,,,,,,,,,,,
,,,,,,,,,,,,,,,,,5f2fc0f05b67073c177aaece,32,2022-02-12_11h25.23.964,lexical_decision_task_DD_L2,2021.2.3,MacIntel,60.0024001,,,,,,,,,,,,0.7225,1,,,,,,,,,,,,,,z,1,0.7225,,,,,,,,0.245559896,-0.379887153,0,0,0,space,0,83,83,105,1,MOKER,C,old,z,./images/MOKER.png,274.3723,,,,,,,,,,,,,,,,,,,,,,,,,,,,,,,,,,
,,,,,,,,,,,,,,,,,5f2fc0f05b67073c177aaece,32,2022-02-12_11h25.23.964,lexical_decision_task_DD_L2,2021.2.3,MacIntel,60.0024001,,,,,,,,,,,,0.929,1,,,,,,,,,,,,,,z,1,0.929,,,,,,,,0.245559896,-0.379887153,0,0,0,,0,84,84,151,1,TINKY,HB,old,z,./images/TINKYHB.png,,,,,,,,,,,,,,,,,,,,,,,,,,,,,,,,,,,
,,,,,,,,,,,,,,,,,5f2fc0f05b67073c177aaece,32,2022-02-12_11h25.23.964,lexical_decision_task_DD_L2,2021.2.3,MacIntel,60.0024001,,,,,,,,,,,,0.7629,1,,,,,,,,,,,,,,m,1,0.7629,,,,,,,,0.245559896,-0.379887153,0,0,0,,0,85,85,49,1,DRUMS,LB,old,m,./images/DRUMSLB.png,,,,,,,,,,,,,,,,,,,,,,,,,,,,,,,,,,,
,,,,,,,,,,,,,,,,,5f2fc0f05b67073c177aaece,32,2022-02-12_11h25.23.964,lexical_decision_task_DD_L2,2021.2.3,MacIntel,60.0024001,,,,,,,,,,,,0.6185,1,,,,,,,,,,,,,,z,1,0.6185,,,,,,,,0.245559896,-0.379887153,0,0,0,,0,86,86,129,1,PRANS,C,old,z,./images/PRANS.png,,,,,,,,,,,,,,,,,,,,,,,,,,,,,,,,,,,
,,,,,,,,,,,,,,,,,5f2fc0f05b67073c177aaece,32,2022-02-12_11h25.23.964,lexical_decision_task_DD_L2,2021.2.3,MacIntel,60.0024001,,,,,,,,,,,,0.6756,1,,,,,,,,,,,,,,m,1,0.6756,,,,,,,,0.245559896,-0.379887153,0,0,0,,0,87,87,29,1,CRUMB,C,old,m,./images/CRUMB.png,,,,,,,,,,,,,,,,,,,,,,,,,,,,,,,,,,,
,,,,,,,,,,,,,,,,,5f2fc0f05b67073c177aaece,32,2022-02-12_11h25.23.964,lexical_decision_task_DD_L2,2021.2.3,MacIntel,60.0024001,,,,,,,,,,,,0.5304,1,,,,,,,,,,,,,,m,1,0.5304,,,,,,,,0.245559896,-0.379887153,0,0,0,,0,88,88,0,1,TOMATO,HB,old,m,./images/TOMATOHB.png,,,,,,,,,,,,,,,,,,,,,,,,,,,,,,,,,,,
,,,,,,,,,,,,,,,,,5f2fc0f05b67073c177aaece,32,2022-02-12_11h25.23.964,lexical_decision_task_DD_L2,2021.2.3,MacIntel,60.0024001,,,,,,,,,,,,0.5829,1,,,,,,,,,,,,,,m,1,0.5829,,,,,,,,0.245559896,-0.379887153,0,0,0,,0,89,89,37,1,BIRTH,LB,old,m,./images/BIRTHLB.png,,,,,,,,,,,,,,,,,,,,,,,,,,,,,,,,,,,
,,,,,,,,,,,,,,,,,5f2fc0f05b67073c177aaece,32,2022-02-12_11h25.23.964,lexical_decision_task_DD_L2,2021.2.3,MacIntel,60.0024001,,,,,,,,,,,,0.6303,1,,,,,,,,,,,,,,z,1,0.6303,,,,,,,,0.245559896,-0.379887153,0,0,0,,0,90,90,136,1,WERVE,HB,old,z,./images/WERVEHB.png,,,,,,,,,,,,,,,,,,,,,,,,,,,,,,,,,,,
,,,,,,,,,,,,,,,,,5f2fc0f05b67073c177aaece,32,2022-02-12_11h25.23.964,lexical_decision_task_DD_L2,2021.2.3,MacIntel,60.0024001,,,,,,,,,,,,0.6167,1,,,,,,,,,,,,,,z,1,0.6167,,,,,,,,0.245559896,-0.379887153,0,0,0,,0,91,91,140,1,DOVET,LB,old,z,./images/DOVETLB.png,,,,,,,,,,,,,,,,,,,,,,,,,,,,,,,,,,,
,,,,,,,,,,,,,,,,,5f2fc0f05b67073c177aaece,32,2022-02-12_11h25.23.964,lexical_decision_task_DD_L2,2021.2.3,MacIntel,60.0024001,,,,,,,,,,,,0.5471,1,,,,,,,,,,,,,,m,1,0.5471,,,,,,,,0.245559896,-0.379887153,0,0,0,,0,92,92,13,1,MOTOR,LB,old,m,./images/MOTORLB.png,,,,,,,,,,,,,,,,,,,,,,,,,,,,,,,,,,,
,,,,,,,,,,,,,,,,,5f2fc0f05b67073c177aaece,32,2022-02-12_11h25.23.964,lexical_decision_task_DD_L2,2021.2.3,MacIntel,60.0024001,,,,,,,,,,,,0.7474,1,,,,,,,,,,,,,,z,1,0.7474,,,,,,,,0.245559896,-0.379887153,0,0,0,,0,93,93,103,1,FLORT,HB,old,z,./images/FLORTHB.png,,,,,,,,,,,,,,,,,,,,,,,,,,,,,,,,,,,
,,,,,,,,,,,,,,,,,5f2fc0f05b67073c177aaece,32,2022-02-12_11h25.23.964,lexical_decision_task_DD_L2,2021.2.3,MacIntel,60.0024001,,,,,,,,,,,,0.6644,1,,,,,,,,,,,,,,z,1,0.6644,,,,,,,,0.245559896,-0.379887153,0,0,0,,0,94,94,119,1,PAFER,LB,old,z,./images/PAFERLB.png,,,,,,,,,,,,,,,,,,,,,,,,,,,,,,,,,,,
,,,,,,,,,,,,,,,,,5f2fc0f05b67073c177aaece,32,2022-02-12_11h25.23.964,lexical_decision_task_DD_L2,2021.2.3,MacIntel,60.0024001,,,,,,,,,,,,1.3135,1,,,,,,,,,,,,,,z,1,1.3135,,,,,,,,0.245559896,-0.379887153,0,0,0,,0,95,95,130,1,CRILL,HB,old,z,./images/CRILLHB.png,,,,,,,,,,,,,,,,,,,,,,,,,,,,,,,,,,,
,,,,,,,,,,,,,,,,,5f2fc0f05b67073c177aaece,32,2022-02-12_11h25.23.964,lexical_decision_task_DD_L2,2021.2.3,MacIntel,60.0024001,,,,,,,,,,,,0.6122,1,,,,,,,,,,,,,,z,1,0.6122,,,,,,,,0.245559896,-0.379887153,0,0,0,,0,96,96,89,1,DRIEK,LB,old,z,./images/DRIEKLB.png,,,,,,,,,,,,,,,,,,,,,,,,,,,,,,,,,,,
,,,,,,,,,,,,,,,,,5f2fc0f05b67073c177aaece,32,2022-02-12_11h25.23.964,lexical_decision_task_DD_L2,2021.2.3,MacIntel,60.0024001,,,,,,,,,,,,0.7682,1,,,,,,,,,,,,,,m,1,0.7682,,,,,,,,0.245559896,-0.379887153,0,0,0,,0,97,97,8,1,TULIP,C,old,m,./images/TULIP.png,,,,,,,,,,,,,,,,,,,,,,,,,,,,,,,,,,,
,,,,,,,,,,,,,,,,,5f2fc0f05b67073c177aaece,32,2022-02-12_11h25.23.964,lexical_decision_task_DD_L2,2021.2.3,MacIntel,60.0024001,,,,,,,,,,,,0.54,1,,,,,,,,,,,,,,z,1,0.54,,,,,,,,0.245559896,-0.379887153,0,0,0,,0,98,98,87,1,TRING,C,old,z,./images/TRING.png,,,,,,,,,,,,,,,,,,,,,,,,,,,,,,,,,,,
,,,,,,,,,,,,,,,,,5f2fc0f05b67073c177aaece,32,2022-02-12_11h25.23.964,lexical_decision_task_DD_L2,2021.2.3,MacIntel,60.0024001,,,,,,,,,,,,0.5451,1,,,,,,,,,,,,,,m,1,0.5451,,,,,,,,0.245559896,-0.379887153,0,0,0,,0,99,99,48,1,SPORT,HB,old,m,./images/SPORTHB.png,,,,,,,,,,,,,,,,,,,,,,,,,,,,,,,,,,,
,,,,,,,,,,,,,,,,,5f2fc0f05b67073c177aaece,32,2022-02-12_11h25.23.964,lexical_decision_task_DD_L2,2021.2.3,MacIntel,60.0024001,,,,,,,,,,,,0.4421,1,,,,,,,,,,,,,,z,1,0.4421,,,,,,,,0.245559896,-0.379887153,0,0,0,,0,100,100,162,1,LEICH,C,old,z,./images/LEICH.png,,,,,,,,,,,,,,,,,,,,,,,,,,,,,,,,,,,
,,,,,,,,,,,,,,,,,5f2fc0f05b67073c177aaece,32,2022-02-12_11h25.23.964,lexical_decision_task_DD_L2,2021.2.3,MacIntel,60.0024001,,,,,,,,,,,,0.6451,1,,,,,,,,,,,,,,m,1,0.6451,,,,,,,,0.245559896,-0.379887153,0,0,0,,0,101,101,43,1,MOSQUE,LB,old,m,./images/MOSQUELB.png,,,,,,,,,,,,,,,,,,,,,,,,,,,,,,,,,,,
,,,,,,,,,,,,,,,,,5f2fc0f05b67073c177aaece,32,2022-02-12_11h25.23.964,lexical_decision_task_DD_L2,2021.2.3,MacIntel,60.0024001,,,,,,,,,,,,0.5183,1,,,,,,,,,,,,,,m,1,0.5183,,,,,,,,0.245559896,-0.379887153,0,0,0,,0,102,102,65,1,FARMER,C,old,m,./images/FARMER.png,,,,,,,,,,,,,,,,,,,,,,,,,,,,,,,,,,,
,,,,,,,,,,,,,,,,,5f2fc0f05b67073c177aaece,32,2022-02-12_11h25.23.964,lexical_decision_task_DD_L2,2021.2.3,MacIntel,60.0024001,,,,,,,,,,,,0.7295,1,,,,,,,,,,,,,,m,1,0.7295,,,,,,,,0.245559896,-0.379887153,0,0,0,,0,103,103,3,1,FINGER,HB,old,m,./images/FINGERHB.png,,,,,,,,,,,,,,,,,,,,,,,,,,,,,,,,,,,
,,,,,,,,,,,,,,,,,5f2fc0f05b67073c177aaece,32,2022-02-12_11h25.23.964,lexical_decision_task_DD_L2,2021.2.3,MacIntel,60.0024001,,,,,,,,,,,,0.581,0,,,,,,,,,,,,,,z,0,0.581,,,,,,,,0.245559896,-0.379887153,0,0,0,,0,104,104,31,1,QUILL,LB,old,m,./images/QUILLLB.png,,,,,,,,,,,,,,,,,,,,,,,,,,,,,,,,,,,
,,,,,,,,,,,,,,,,,5f2fc0f05b67073c177aaece,32,2022-02-12_11h25.23.964,lexical_decision_task_DD_L2,2021.2.3,MacIntel,60.0024001,,,,,,,,,,,,0.5498,0,,,,,,,,,,,,,,z,0,0.5498,,,,,,,,0.245559896,-0.379887153,0,0,0,,0,105,105,4,1,MUSCLE,LB,old,m,./images/MUSCLELB.png,,,,,,,,,,,,,,,,,,,,,,,,,,,,,,,,,,,
,,,,,,,,,,,,,,,,,5f2fc0f05b67073c177aaece,32,2022-02-12_11h25.23.964,lexical_decision_task_DD_L2,2021.2.3,MacIntel,60.0024001,,,,,,,,,,,,0.7031,0,,,,,,,,,,,,,,z,0,0.7031,,,,,,,,0.245559896,-0.379887153,0,0,0,,0,106,106,21,1,KIDNEY,HB,old,m,./images/KIDNEYHB.png,,,,,,,,,,,,,,,,,,,,,,,,,,,,,,,,,,,
,,,,,,,,,,,,,,,,,5f2fc0f05b67073c177aaece,32,2022-02-12_11h25.23.964,lexical_decision_task_DD_L2,2021.2.3,MacIntel,60.0024001,,,,,,,,,,,,0.7065,1,,,,,,,,,,,,,,m,1,0.7065,,,,,,,,0.245559896,-0.379887153,0,0,0,,0,107,107,2,1,BEARD,C,old,m,./images/BEARD.png,,,,,,,,,,,,,,,,,,,,,,,,,,,,,,,,,,,
,,,,,,,,,,,,,,,,,5f2fc0f05b67073c177aaece,32,2022-02-12_11h25.23.964,lexical_decision_task_DD_L2,2021.2.3,MacIntel,60.0024001,,,,,,,,,,,,0.5529,1,,,,,,,,,,,,,,m,1,0.5529,,,,,,,,0.245559896,-0.379887153,0,0,0,,0,108,108,53,1,CARPET,C,old,m,./images/CARPET.png,,,,,,,,,,,,,,,,,,,,,,,,,,,,,,,,,,,
,,,,,,,,,,,,,,,,,5f2fc0f05b67073c177aaece,32,2022-02-12_11h25.23.964,lexical_decision_task_DD_L2,2021.2.3,MacIntel,60.0024001,,,,,,,,,,,,0.5548,1,,,,,,,,,,,,,,m,1,0.5548,,,,,,,,0.245559896,-0.379887153,0,0,0,,0,109,109,1,1,PLANK,LB,old,m,./images/PLANKLB.png,,,,,,,,,,,,,,,,,,,,,,,,,,,,,,,,,,,
,,,,,,,,,,,,,,,,,5f2fc0f05b67073c177aaece,32,2022-02-12_11h25.23.964,lexical_decision_task_DD_L2,2021.2.3,MacIntel,60.0024001,,,,,,,,,,,,0.6539,1,,,,,,,,,,,,,,m,1,0.6539,,,,,,,,0.245559896,-0.379887153,0,0,0,,0,110,110,47,1,BERRY,C,old,m,./images/BERRY.png,,,,,,,,,,,,,,,,,,,,,,,,,,,,,,,,,,,
,,,,,,,,,,,,,,,,,5f2fc0f05b67073c177aaece,32,2022-02-12_11h25.23.964,lexical_decision_task_DD_L2,2021.2.3,MacIntel,60.0024001,,,,,,,,,,,,0.574,1,,,,,,,,,,,,,,m,1,0.574,,,,,,,,0.245559896,-0.379887153,0,0,0,,0,111,111,17,1,SKIING,C,old,m,./images/SKIING.png,,,,,,,,,,,,,,,,,,,,,,,,,,,,,,,,,,,
,,,,,,,,,,,,,,,,,5f2fc0f05b67073c177aaece,32,2022-02-12_11h25.23.964,lexical_decision_task_DD_L2,2021.2.3,MacIntel,60.0024001,,,,,,,,,,,,0.7902,1,,,,,,,,,,,,,,z,1,0.7902,,,,,,,,0.245559896,-0.379887153,0,0,0,,0,112,112,111,1,HOSSE,C,old,z,./images/HOSSE.png,,,,,,,,,,,,,,,,,,,,,,,,,,,,,,,,,,,
,,,,,,,,,,,,,,,,,5f2fc0f05b67073c177aaece,32,2022-02-12_11h25.23.964,lexical_decision_task_DD_L2,2021.2.3,MacIntel,60.0024001,,,,,,,,,,,,0.6994,1,,,,,,,,,,,,,,z,1,0.6994,,,,,,,,0.245559896,-0.379887153,0,0,0,,0,113,113,95,1,HANTY,LB,old,z,./images/HANTYLB.png,,,,,,,,,,,,,,,,,,,,,,,,,,,,,,,,,,,
,,,,,,,,,,,,,,,,,5f2fc0f05b67073c177aaece,32,2022-02-12_11h25.23.964,lexical_decision_task_DD_L2,2021.2.3,MacIntel,60.0024001,,,,,,,,,,,,0.6497,1,,,,,,,,,,,,,,z,1,0.6497,,,,,,,,0.245559896,-0.379887153,0,0,0,,0,114,114,107,1,FASKS,LB,old,z,./images/FASKSLB.png,,,,,,,,,,,,,,,,,,,,,,,,,,,,,,,,,,,
,,,,,,,,,,,,,,,,,5f2fc0f05b67073c177aaece,32,2022-02-12_11h25.23.964,lexical_decision_task_DD_L2,2021.2.3,MacIntel,60.0024001,,,,,,,,,,,,0.5638,1,,,,,,,,,,,,,,m,1,0.5638,,,,,,,,0.245559896,-0.379887153,0,0,0,,0,115,115,36,1,THROAT,HB,old,m,./images/THROATHB.png,,,,,,,,,,,,,,,,,,,,,,,,,,,,,,,,,,,
,,,,,,,,,,,,,,,,,5f2fc0f05b67073c177aaece,32,2022-02-12_11h25.23.964,lexical_decision_task_DD_L2,2021.2.3,MacIntel,60.0024001,,,,,,,,,,,,0.8294,1,,,,,,,,,,,,,,z,1,0.8294,,,,,,,,0.245559896,-0.379887153,0,0,0,,0,116,116,97,1,CHIDS,HB,old,z,./images/CHIDSHB.png,,,,,,,,,,,,,,,,,,,,,,,,,,,,,,,,,,,
,,,,,,,,,,,,,,,,,5f2fc0f05b67073c177aaece,32,2022-02-12_11h25.23.964,lexical_decision_task_DD_L2,2021.2.3,MacIntel,60.0024001,,,,,,,,,,,,1.0319,1,,,,,,,,,,,,,,m,1,1.0319,,,,,,,,0.245559896,-0.379887153,0,0,0,,0,117,117,69,1,COOKER,HB,old,m,./images/COOKERHB.png,,,,,,,,,,,,,,,,,,,,,,,,,,,,,,,,,,,
,,,,,,,,,,,,,,,,,5f2fc0f05b67073c177aaece,32,2022-02-12_11h25.23.964,lexical_decision_task_DD_L2,2021.2.3,MacIntel,60.0024001,,,,,,,,,,,,0.7459,1,,,,,,,,,,,,,,z,1,0.7459,,,,,,,,0.245559896,-0.379887153,0,0,0,,0,118,118,164,1,SGREW,LB,old,z,./images/SGREWLB.png,,,,,,,,,,,,,,,,,,,,,,,,,,,,,,,,,,,
,,,,,,,,,,,,,,,,,5f2fc0f05b67073c177aaece,32,2022-02-12_11h25.23.964,lexical_decision_task_DD_L2,2021.2.3,MacIntel,60.0024001,,,,,,,,,,,,0.4839,1,,,,,,,,,,,,,,m,1,0.4839,,,,,,,,0.245559896,-0.379887153,0,0,0,,0,119,119,50,1,MALLET,C,old,m,./images/MALLET.png,,,,,,,,,,,,,,,,,,,,,,,,,,,,,,,,,,,
,,,,,,,,,,,,,,,,,5f2fc0f05b67073c177aaece,32,2022-02-12_11h25.23.964,lexical_decision_task_DD_L2,2021.2.3,MacIntel,60.0024001,,,,,,,,,,,,0.5555,1,,,,,,,,,,,,,,m,1,0.5555,,,,,,,,0.245559896,-0.379887153,0,0,0,,0,120,120,81,1,POODLE,HB,old,m,./images/POODLEHB.png,,,,,,,,,,,,,,,,,,,,,,,,,,,,,,,,,,,
,,,,,,,,,,,,,,,,,5f2fc0f05b67073c177aaece,32,2022-02-12_11h25.23.964,lexical_decision_task_DD_L2,2021.2.3,MacIntel,60.0024001,,,,,,,,,,,,0.5683,1,,,,,,,,,,,,,,m,1,0.5683,,,,,,,,0.245559896,-0.379887153,0,0,0,,0,121,121,59,1,BURIAL,C,old,m,./images/BURIAL.png,,,,,,,,,,,,,,,,,,,,,,,,,,,,,,,,,,,
,,,,,,,,,,,,,,,,,5f2fc0f05b67073c177aaece,32,2022-02-12_11h25.23.964,lexical_decision_task_DD_L2,2021.2.3,MacIntel,60.0024001,,,,,,,,,,,,0.6481,1,,,,,,,,,,,,,,m,1,0.6481,,,,,,,,0.245559896,-0.379887153,0,0,0,,0,122,122,30,1,STORM,HB,old,m,./images/STORMHB.png,,,,,,,,,,,,,,,,,,,,,,,,,,,,,,,,,,,
,,,,,,,,,,,,,,,,,5f2fc0f05b67073c177aaece,32,2022-02-12_11h25.23.964,lexical_decision_task_DD_L2,2021.2.3,MacIntel,60.0024001,,,,,,,,,,,,0.581,1,,,,,,,,,,,,,,m,1,0.581,,,,,,,,0.245559896,-0.379887153,0,0,0,,0,123,123,51,1,ONION,HB,old,m,./images/ONIONHB.png,,,,,,,,,,,,,,,,,,,,,,,,,,,,,,,,,,,
,,,,,,,,,,,,,,,,,5f2fc0f05b67073c177aaece,32,2022-02-12_11h25.23.964,lexical_decision_task_DD_L2,2021.2.3,MacIntel,60.0024001,,,,,,,,,,,,0.7863,1,,,,,,,,,,,,,,m,1,0.7863,,,,,,,,0.245559896,-0.379887153,0,0,0,,0,124,124,56,1,PACKET,C,old,m,./images/PACKET.png,,,,,,,,,,,,,,,,,,,,,,,,,,,,,,,,,,,
,,,,,,,,,,,,,,,,,5f2fc0f05b67073c177aaece,32,2022-02-12_11h25.23.964,lexical_decision_task_DD_L2,2021.2.3,MacIntel,60.0024001,,,,,,,,,,,,0.7667,0,,,,,,,,,,,,,,m,0,0.7667,,,,,,,,0.245559896,-0.379887153,0,0,0,space,0,125,125,166,1,SHORY,HB,old,z,./images/SHORYHB.png,1.7102,,,,,,,,,,,,,,,,,,,,,,,,,,,,,,,,,,
,,,,,,,,,,,,,,,,,5f2fc0f05b67073c177aaece,32,2022-02-12_11h25.23.964,lexical_decision_task_DD_L2,2021.2.3,MacIntel,60.0024001,,,,,,,,,,,,0.6393,1,,,,,,,,,,,,,,z,1,0.6393,,,,,,,,0.245559896,-0.379887153,0,0,0,,0,126,126,116,1,BALGY,LB,old,z,./images/BALGYLB.png,,,,,,,,,,,,,,,,,,,,,,,,,,,,,,,,,,,
,,,,,,,,,,,,,,,,,5f2fc0f05b67073c177aaece,32,2022-02-12_11h25.23.964,lexical_decision_task_DD_L2,2021.2.3,MacIntel,60.0024001,,,,,,,,,,,,0.7495,1,,,,,,,,,,,,,,z,1,0.7495,,,,,,,,0.245559896,-0.379887153,0,0,0,,0,127,127,124,1,TUNCH,HB,old,z,./images/TUNCHHB.png,,,,,,,,,,,,,,,,,,,,,,,,,,,,,,,,,,,
,,,,,,,,,,,,,,,,,5f2fc0f05b67073c177aaece,32,2022-02-12_11h25.23.964,lexical_decision_task_DD_L2,2021.2.3,MacIntel,60.0024001,,,,,,,,,,,,0.5008,1,,,,,,,,,,,,,,m,1,0.5008,,,,,,,,0.245559896,-0.379887153,0,0,0,,0,128,128,24,1,SCREW,HB,old,m,./images/SCREWHB.png,,,,,,,,,,,,,,,,,,,,,,,,,,,,,,,,,,,
,,,,,,,,,,,,,,,,,5f2fc0f05b67073c177aaece,32,2022-02-12_11h25.23.964,lexical_decision_task_DD_L2,2021.2.3,MacIntel,60.0024001,,,,,,,,,,,,0.549,1,,,,,,,,,,,,,,z,1,0.549,,,,,,,,0.245559896,-0.379887153,0,0,0,,0,129,129,161,1,BLAPS,LB,old,z,./images/BLAPSLB.png,,,,,,,,,,,,,,,,,,,,,,,,,,,,,,,,,,,
,,,,,,,,,,,,,,,,,5f2fc0f05b67073c177aaece,32,2022-02-12_11h25.23.964,lexical_decision_task_DD_L2,2021.2.3,MacIntel,60.0024001,,,,,,,,,,,,0.6403,1,,,,,,,,,,,,,,z,1,0.6403,,,,,,,,0.245559896,-0.379887153,0,0,0,,0,130,130,159,1,CUDDY,C,old,z,./images/CUDDY.png,,,,,,,,,,,,,,,,,,,,,,,,,,,,,,,,,,,
,,,,,,,,,,,,,,,,,5f2fc0f05b67073c177aaece,32,2022-02-12_11h25.23.964,lexical_decision_task_DD_L2,2021.2.3,MacIntel,60.0024001,,,,,,,,,,,,0.5638,1,,,,,,,,,,,,,,m,1,0.5638,,,,,,,,0.245559896,-0.379887153,0,0,0,,0,131,131,74,1,CEMENT,C,old,m,./images/CEMENT.png,,,,,,,,,,,,,,,,,,,,,,,,,,,,,,,,,,,
,,,,,,,,,,,,,,,,,5f2fc0f05b67073c177aaece,32,2022-02-12_11h25.23.964,lexical_decision_task_DD_L2,2021.2.3,MacIntel,60.0024001,,,,,,,,,,,,0.672,1,,,,,,,,,,,,,,z,1,0.672,,,,,,,,0.245559896,-0.379887153,0,0,0,,0,132,132,120,1,RINED,C,old,z,./images/RINED.png,,,,,,,,,,,,,,,,,,,,,,,,,,,,,,,,,,,
,,,,,,,,,,,,,,,,,5f2fc0f05b67073c177aaece,32,2022-02-12_11h25.23.964,lexical_decision_task_DD_L2,2021.2.3,MacIntel,60.0024001,,,,,,,,,,,,1.1107,1,,,,,,,,,,,,,,z,1,1.1107,,,,,,,,0.245559896,-0.379887153,0,0,0,,0,133,133,90,1,NEAST,C,old,z,./images/NEAST.png,,,,,,,,,,,,,,,,,,,,,,,,,,,,,,,,,,,
,,,,,,,,,,,,,,,,,5f2fc0f05b67073c177aaece,32,2022-02-12_11h25.23.964,lexical_decision_task_DD_L2,2021.2.3,MacIntel,60.0024001,,,,,,,,,,,,0.5009,1,,,,,,,,,,,,,,m,1,0.5009,,,,,,,,0.245559896,-0.379887153,0,0,0,,0,134,134,10,1,BELLY,LB,old,m,./images/BELLYLB.png,,,,,,,,,,,,,,,,,,,,,,,,,,,,,,,,,,,
,,,,,,,,,,,,,,,,,5f2fc0f05b67073c177aaece,32,2022-02-12_11h25.23.964,lexical_decision_task_DD_L2,2021.2.3,MacIntel,60.0024001,,,,,,,,,,,,0.6224,1,,,,,,,,,,,,,,z,1,0.6224,,,,,,,,0.245559896,-0.379887153,0,0,0,,0,135,135,93,1,SMONE,C,old,z,./images/SMONE.png,,,,,,,,,,,,,,,,,,,,,,,,,,,,,,,,,,,
,,,,,,,,,,,,,,,,,5f2fc0f05b67073c177aaece,32,2022-02-12_11h25.23.964,lexical_decision_task_DD_L2,2021.2.3,MacIntel,60.0024001,,,,,,,,,,,,0.767,1,,,,,,,,,,,,,,z,1,0.767,,,,,,,,0.245559896,-0.379887153,0,0,0,,0,136,136,85,1,CHULK,HB,old,z,./images/CHULKHB.png,,,,,,,,,,,,,,,,,,,,,,,,,,,,,,,,,,,
,,,,,,,,,,,,,,,,,5f2fc0f05b67073c177aaece,32,2022-02-12_11h25.23.964,lexical_decision_task_DD_L2,2021.2.3,MacIntel,60.0024001,,,,,,,,,,,,0.729,1,,,,,,,,,,,,,,z,1,0.729,,,,,,,,0.245559896,-0.379887153,0,0,0,,0,137,137,160,1,VEETS,HB,old,z,./images/VEETSHB.png,,,,,,,,,,,,,,,,,,,,,,,,,,,,,,,,,,,
,,,,,,,,,,,,,,,,,5f2fc0f05b67073c177aaece,32,2022-02-12_11h25.23.964,lexical_decision_task_DD_L2,2021.2.3,MacIntel,60.0024001,,,,,,,,,,,,0.7785,1,,,,,,,,,,,,,,m,1,0.7785,,,,,,,,0.245559896,-0.379887153,0,0,0,,0,138,138,45,1,KITTEN,HB,old,m,./images/KITTENHB.png,,,,,,,,,,,,,,,,,,,,,,,,,,,,,,,,,,,
,,,,,,,,,,,,,,,,,5f2fc0f05b67073c177aaece,32,2022-02-12_11h25.23.964,lexical_decision_task_DD_L2,2021.2.3,MacIntel,60.0024001,,,,,,,,,,,,0.6977,0,,,,,,,,,,,,,,z,0,0.6977,,,,,,,,0.245559896,-0.379887153,0,0,0,,0,139,139,33,1,MAGGOT,HB,old,m,./images/MAGGOTHB.png,,,,,,,,,,,,,,,,,,,,,,,,,,,,,,,,,,,
,,,,,,,,,,,,,,,,,5f2fc0f05b67073c177aaece,32,2022-02-12_11h25.23.964,lexical_decision_task_DD_L2,2021.2.3,MacIntel,60.0024001,,,,,,,,,,,,0.7561,1,,,,,,,,,,,,,,m,1,0.7561,,,,,,,,0.245559896,-0.379887153,0,0,0,,0,140,140,14,1,PICKLE,C,old,m,./images/PICKLE.png,,,,,,,,,,,,,,,,,,,,,,,,,,,,,,,,,,,
,,,,,,,,,,,,,,,,,5f2fc0f05b67073c177aaece,32,2022-02-12_11h25.23.964,lexical_decision_task_DD_L2,2021.2.3,MacIntel,60.0024001,,,,,,,,,,,,0.6146,1,,,,,,,,,,,,,,m,1,0.6146,,,,,,,,0.245559896,-0.379887153,0,0,0,,0,141,141,76,1,INFANT,LB,old,m,./images/INFANTLB.png,,,,,,,,,,,,,,,,,,,,,,,,,,,,,,,,,,,
,,,,,,,,,,,,,,,,,5f2fc0f05b67073c177aaece,32,2022-02-12_11h25.23.964,lexical_decision_task_DD_L2,2021.2.3,MacIntel,60.0024001,,,,,,,,,,,,0.8793,1,,,,,,,,,,,,,,z,1,0.8793,,,,,,,,0.245559896,-0.379887153,0,0,0,,0,142,142,127,1,NINDY,HB,old,z,./images/NINDYHB.png,,,,,,,,,,,,,,,,,,,,,,,,,,,,,,,,,,,
,,,,,,,,,,,,,,,,,5f2fc0f05b67073c177aaece,32,2022-02-12_11h25.23.964,lexical_decision_task_DD_L2,2021.2.3,MacIntel,60.0024001,,,,,,,,,,,,0.712,1,,,,,,,,,,,,,,z,1,0.712,,,,,,,,0.245559896,-0.379887153,0,0,0,,0,143,143,157,1,INLER,HB,old,z,./images/INLERHB.png,,,,,,,,,,,,,,,,,,,,,,,,,,,,,,,,,,,
,,,,,,,,,,,,,,,,,5f2fc0f05b67073c177aaece,32,2022-02-12_11h25.23.964,lexical_decision_task_DD_L2,2021.2.3,MacIntel,60.0024001,,,,,,,,,,,,0.7461,1,,,,,,,,,,,,,,z,1,0.7461,,,,,,,,0.245559896,-0.379887153,0,0,0,,0,144,144,84,1,HAXES,C,old,z,./images/HAXES.png,,,,,,,,,,,,,,,,,,,,,,,,,,,,,,,,,,,
,,,,,,,,,,,,,,,,,5f2fc0f05b67073c177aaece,32,2022-02-12_11h25.23.964,lexical_decision_task_DD_L2,2021.2.3,MacIntel,60.0024001,,,,,,,,,,,,0.9789,1,,,,,,,,,,,,,,z,1,0.9789,,,,,,,,0.245559896,-0.379887153,0,0,0,,0,145,145,158,1,EGECT,LB,old,z,./images/EGECTLB.png,,,,,,,,,,,,,,,,,,,,,,,,,,,,,,,,,,,
,,,,,,,,,,,,,,,,,5f2fc0f05b67073c177aaece,32,2022-02-12_11h25.23.964,lexical_decision_task_DD_L2,2021.2.3,MacIntel,60.0024001,,,,,,,,,,,,0.6255,1,,,,,,,,,,,,,,z,1,0.6255,,,,,,,,0.245559896,-0.379887153,0,0,0,,0,146,146,153,1,CLUPS,C,old,z,./images/CLUPS.png,,,,,,,,,,,,,,,,,,,,,,,,,,,,,,,,,,,
,,,,,,,,,,,,,,,,,5f2fc0f05b67073c177aaece,32,2022-02-12_11h25.23.964,lexical_decision_task_DD_L2,2021.2.3,MacIntel,60.0024001,,,,,,,,,,,,0.8329,1,,,,,,,,,,,,,,m,1,0.8329,,,,,,,,0.245559896,-0.379887153,0,0,0,,0,147,147,57,1,MOOSE,HB,old,m,./images/MOOSEHB.png,,,,,,,,,,,,,,,,,,,,,,,,,,,,,,,,,,,
,,,,,,,,,,,,,,,,,5f2fc0f05b67073c177aaece,32,2022-02-12_11h25.23.964,lexical_decision_task_DD_L2,2021.2.3,MacIntel,60.0024001,,,,,,,,,,,,0.5155,1,,,,,,,,,,,,,,m,1,0.5155,,,,,,,,0.245559896,-0.379887153,0,0,0,,0,148,148,71,1,PIMPLE,C,old,m,./images/PIMPLE.png,,,,,,,,,,,,,,,,,,,,,,,,,,,,,,,,,,,
,,,,,,,,,,,,,,,,,5f2fc0f05b67073c177aaece,32,2022-02-12_11h25.23.964,lexical_decision_task_DD_L2,2021.2.3,MacIntel,60.0024001,,,,,,,,,,,,0.5839,1,,,,,,,,,,,,,,m,1,0.5839,,,,,,,,0.245559896,-0.379887153,0,0,0,,0,149,149,6,1,SQUARE,HB,old,m,./images/SQUAREHB.png,,,,,,,,,,,,,,,,,,,,,,,,,,,,,,,,,,,
,,,,,,,,,,,,,,,,,5f2fc0f05b67073c177aaece,32,2022-02-12_11h25.23.964,lexical_decision_task_DD_L2,2021.2.3,MacIntel,60.0024001,,,,,,,,,,,,0.5579,1,,,,,,,,,,,,,,z,1,0.5579,,,,,,,,0.245559896,-0.379887153,0,0,0,,0,150,150,165,1,TROWN,C,old,z,./images/TROWN.png,,,,,,,,,,,,,,,,,,,,,,,,,,,,,,,,,,,
,,,,,,,,,,,,,,,,,5f2fc0f05b67073c177aaece,32,2022-02-12_11h25.23.964,lexical_decision_task_DD_L2,2021.2.3,MacIntel,60.0024001,,,,,,,,,,,,0.5408,1,,,,,,,,,,,,,,z,1,0.5408,,,,,,,,0.245559896,-0.379887153,0,0,0,,0,151,151,86,1,AIFED,LB,old,z,./images/AIFEDLB.png,,,,,,,,,,,,,,,,,,,,,,,,,,,,,,,,,,,
,,,,,,,,,,,,,,,,,5f2fc0f05b67073c177aaece,32,2022-02-12_11h25.23.964,lexical_decision_task_DD_L2,2021.2.3,MacIntel,60.0024001,,,,,,,,,,,,0.6238,1,,,,,,,,,,,,,,m,1,0.6238,,,,,,,,0.245559896,-0.379887153,0,0,0,,0,152,152,40,1,SWING,LB,old,m,./images/SWINGLB.png,,,,,,,,,,,,,,,,,,,,,,,,,,,,,,,,,,,
,,,,,,,,,,,,,,,,,5f2fc0f05b67073c177aaece,32,2022-02-12_11h25.23.964,lexical_decision_task_DD_L2,2021.2.3,MacIntel,60.0024001,,,,,,,,,,,,0.6061,1,,,,,,,,,,,,,,z,1,0.6061,,,,,,,,0.245559896,-0.379887153,0,0,0,,0,153,153,96,1,KEAMS,C,old,z,./images/KEAMS.png,,,,,,,,,,,,,,,,,,,,,,,,,,,,,,,,,,,
,,,,,,,,,,,,,,,,,5f2fc0f05b67073c177aaece,32,2022-02-12_11h25.23.964,lexical_decision_task_DD_L2,2021.2.3,MacIntel,60.0024001,,,,,,,,,,,,0.9541,1,,,,,,,,,,,,,,m,1,0.9541,,,,,,,,0.245559896,-0.379887153,0,0,0,,0,154,154,78,1,LITTER,HB,old,m,./images/LITTERHB.png,,,,,,,,,,,,,,,,,,,,,,,,,,,,,,,,,,,
,,,,,,,,,,,,,,,,,5f2fc0f05b67073c177aaece,32,2022-02-12_11h25.23.964,lexical_decision_task_DD_L2,2021.2.3,MacIntel,60.0024001,,,,,,,,,,,,0.4987,1,,,,,,,,,,,,,,m,1,0.4987,,,,,,,,0.245559896,-0.379887153,0,0,0,,0,155,155,7,1,PAINT,LB,old,m,./images/PAINTLB.png,,,,,,,,,,,,,,,,,,,,,,,,,,,,,,,,,,,
,,,,,,,,,,,,,,,,,5f2fc0f05b67073c177aaece,32,2022-02-12_11h25.23.964,lexical_decision_task_DD_L2,2021.2.3,MacIntel,60.0024001,,,,,,,,,,,,0.5611,1,,,,,,,,,,,,,,m,1,0.5611,,,,,,,,0.245559896,-0.379887153,0,0,0,,0,156,156,39,1,SHELF,HB,old,m,./images/SHELFHB.png,,,,,,,,,,,,,,,,,,,,,,,,,,,,,,,,,,,
,,,,,,,,,,,,,,,,,5f2fc0f05b67073c177aaece,32,2022-02-12_11h25.23.964,lexical_decision_task_DD_L2,2021.2.3,MacIntel,60.0024001,,,,,,,,,,,,0.6738,1,,,,,,,,,,,,,,m,1,0.6738,,,,,,,,0.245559896,-0.379887153,0,0,0,,0,157,157,27,1,ATTIC,HB,old,m,./images/ATTICHB.png,,,,,,,,,,,,,,,,,,,,,,,,,,,,,,,,,,,
,,,,,,,,,,,,,,,,,5f2fc0f05b67073c177aaece,32,2022-02-12_11h25.23.964,lexical_decision_task_DD_L2,2021.2.3,MacIntel,60.0024001,,,,,,,,,,,,0.9165,1,,,,,,,,,,,,,,m,1,0.9165,,,,,,,,0.245559896,-0.379887153,0,0,0,,0,158,158,58,1,BABOON,LB,old,m,./images/BABOONLB.png,,,,,,,,,,,,,,,,,,,,,,,,,,,,,,,,,,,
,,,,,,,,,,,,,,,,,5f2fc0f05b67073c177aaece,32,2022-02-12_11h25.23.964,lexical_decision_task_DD_L2,2021.2.3,MacIntel,60.0024001,,,,,,,,,,,,0.5668,1,,,,,,,,,,,,,,m,1,0.5668,,,,,,,,0.245559896,-0.379887153,0,0,0,,0,159,159,11,1,BONNET,C,old,m,./images/BONNET.png,,,,,,,,,,,,,,,,,,,,,,,,,,,,,,,,,,,
,,,,,,,,,,,,,,,,,5f2fc0f05b67073c177aaece,32,2022-02-12_11h25.23.964,lexical_decision_task_DD_L2,2021.2.3,MacIntel,60.0024001,,,,,,,,,,,,0.5179,1,,,,,,,,,,,,,,m,1,0.5179,,,,,,,,0.245559896,-0.379887153,0,0,0,,0,160,160,63,1,MIRROR,HB,old,m,./images/MIRRORHB.png,,,,,,,,,,,,,,,,,,,,,,,,,,,,,,,,,,,
,,,,,,,,,,,,,,,,,5f2fc0f05b67073c177aaece,32,2022-02-12_11h25.23.964,lexical_decision_task_DD_L2,2021.2.3,MacIntel,60.0024001,,,,,,,,,,,,0.5571,1,,,,,,,,,,,,,,m,1,0.5571,,,,,,,,0.245559896,-0.379887153,0,0,0,,0,161,161,44,1,LIZARD,C,old,m,./images/LIZARD.png,,,,,,,,,,,,,,,,,,,,,,,,,,,,,,,,,,,
,,,,,,,,,,,,,,,,,5f2fc0f05b67073c177aaece,32,2022-02-12_11h25.23.964,lexical_decision_task_DD_L2,2021.2.3,MacIntel,60.0024001,,,,,,,,,,,,0.4863,1,,,,,,,,,,,,,,m,1,0.4863,,,,,,,,0.245559896,-0.379887153,0,0,0,,0,162,162,64,1,JELLY,LB,old,m,./images/JELLYLB.png,,,,,,,,,,,,,,,,,,,,,,,,,,,,,,,,,,,
,,,,,,,,,,,,,,,,,5f2fc0f05b67073c177aaece,32,2022-02-12_11h25.23.964,lexical_decision_task_DD_L2,2021.2.3,MacIntel,60.0024001,,,,,,,,,,,,0.7866,1,,,,,,,,,,,,,,z,1,0.7866,,,,,,,,0.245559896,-0.379887153,0,0,0,,0,163,163,118,1,BAVEL,HB,old,z,./images/BAVELHB.png,,,,,,,,,,,,,,,,,,,,,,,,,,,,,,,,,,,
,,,,,,,,,,,,,,,,,5f2fc0f05b67073c177aaece,32,2022-02-12_11h25.23.964,lexical_decision_task_DD_L2,2021.2.3,MacIntel,60.0024001,,,,,,,,,,,,1.204,1,,,,,,,,,,,,,,z,1,1.204,,,,,,,,0.245559896,-0.379887153,0,0,0,,0,164,164,115,1,MAWNS,HB,old,z,./images/MAWNSHB.png,,,,,,,,,,,,,,,,,,,,,,,,,,,,,,,,,,,
,,,,,,,,,,,,,,,,,5f2fc0f05b67073c177aaece,32,2022-02-12_11h25.23.964,lexical_decision_task_DD_L2,2021.2.3,MacIntel,60.0024001,,,,,,,,,,,,0.7308,1,,,,,,,,,,,,,,m,1,0.7308,,,,,,,,0.245559896,-0.379887153,0,0,0,,0,165,165,28,1,FALCON,LB,old,m,./images/FALCONLB.png,,,,,,,,,,,,,,,,,,,,,,,,,,,,,,,,,,,
,,,,,,,,,,,,,,,,,5f2fc0f05b67073c177aaece,32,2022-02-12_11h25.23.964,lexical_decision_task_DD_L2,2021.2.3,MacIntel,60.0024001,,,,,,,,,,,,0.4833,1,,,,,,,,,,,,,,m,1,0.4833,,,,,,,,0.245559896,-0.379887153,0,0,0,,0,166,166,79,1,CRUST,LB,old,m,./images/CRUSTLB.png,,,,,,,,,,,,,,,,,,,,,,,,,,,,,,,,,,,
,,,,,,,,,,,,,,,,,5f2fc0f05b67073c177aaece,32,2022-02-12_11h25.23.964,lexical_decision_task_DD_L2,2021.2.3,MacIntel,60.0024001,,,,,,,,,,,,0.5758,1,,,,,,,,,,,,,,m,1,0.5758,,,,,,,,0.245559896,-0.379887153,0,0,0,,0,167,167,41,1,STRING,C,old,m,./images/STRING.png,,,,,,,,,,,,,,,,,,,,,,,,,,,,,,,,,,,
,,,,,,,,,,,,,,,,,5f2fc0f05b67073c177aaece,32,2022-02-12_11h25.23.964,lexical_decision_task_DD_L2,2021.2.3,MacIntel,60.0024001,,,,,,,,,,,,,,,,,,,,,,,,,,,,,,,,,,,,,,,,,,,,,,,,,How likely will it be that you will recognize the words presented clearly on a scale of 0 (not likely) to 100 (most likely)?,,,,,0.034947917,-0.424457465,1,0,0,jol_adv,4,8.1502,0,0,0,0,1,,,,,,,,,,,,,,,,,,,,,
,,,,,,,,,,,,,,,,,5f2fc0f05b67073c177aaece,32,2022-02-12_11h25.23.964,lexical_decision_task_DD_L2,2021.2.3,MacIntel,60.0024001,,,,,,,,,,,,,,,,,,,,,,,,,,,,,,,,,,,,,,,,,,,,,,,,,How likely will it be that you will recognize the words presented very blurred on a scale of 0 (not likely) to 100 (most likely)?,,,,,,,,,,,3,5.0474,0,1,1,2,1,,,,,,,,,,,,,,,,,,,,,
,,,,,,,,,,,,,,,,,5f2fc0f05b67073c177aaece,32,2022-02-12_11h25.23.964,lexical_decision_task_DD_L2,2021.2.3,MacIntel,60.0024001,,,,,,,,,,,,,,,,,,,,,,,,,,,,,,,,,,,,,,,,,,,,,,,,,How likely will it be that you will recognize the words presented slighly blurred on a scale of 0 (not likely) to 100 (most likely)?,,,,,,,,,,,4,2.4919,0,2,2,1,1,,,,,,,,,,,,,,,,,,,,,
,0.114882813,-0.353702257,1,0,0,instr_done_button,,,,,,1,test,"In the next phase you will be presented with the words from the the first phase. Your job is to decide whether you remember seeing the word or not. If you remember seeing the word press ""old"" or type ""m"". If you do not remember seeing the word press ""new"" or type ""z"". Please press the space bar or click on continue to begin. ",,,5f2fc0f05b67073c177aaece,32,2022-02-12_11h25.23.964,lexical_decision_task_DD_L2,2021.2.3,MacIntel,60.0024001,,,,,,,,,,,,,,,,,,,,,,,,,,,,,,,,,,,,,,,,,,,,,,,,,,,,,,,,,,,,,,,,,,,0,0,0,0,1,,,,,,,,,,,,,,,,
space,0.102530382,-0.323715278,0,0,0,,,,,,,1,test,"In the next phase you will be presented with the words from the the first phase. Your job is to decide whether you remember seeing the word or not. If you remember seeing the word press ""old"" or type ""m"". If you do not remember seeing the word press ""new"" or type ""z"". Please press the space bar or click on continue to begin. ",,,5f2fc0f05b67073c177aaece,32,2022-02-12_11h25.23.964,lexical_decision_task_DD_L2,2021.2.3,MacIntel,60.0024001,2.8211,,,,,,,,,,,,,,,,,,,,,,,,,,,,,,,,,,,,,,,,,,,,,,,,,,,,,,,,,,,,,,,,,,1,0,1,0,1,,,,,,,,,,,,,,,,
,0.10156684,-0.384032118,1,0,0,instr_done_button,,,,,,1,test,"In the next phase you will be presented with the words from the the first phase. Your job is to decide whether you remember seeing the word or not. If you remember seeing the word press ""old"" or type ""m"". If you do not remember seeing the word press ""new"" or type ""z"". Please press the space bar or click on continue to begin. ",,,5f2fc0f05b67073c177aaece,32,2022-02-12_11h25.23.964,lexical_decision_task_DD_L2,2021.2.3,MacIntel,60.0024001,,,,,,,,,,,,,,,,,,,,,,,,,,,,,,,,,,,,,,,,,,,,,,,,,,,,,,,,,,,,,,,,,,,2,0,2,0,1,,,,,,,,,,,,,,,,
,0.10156684,-0.384032118,1,0,0,instr_done_button,,,,,,1,test,"In the next phase you will be presented with the words from the the first phase. Your job is to decide whether you remember seeing the word or not. If you remember seeing the word press ""old"" or type ""m"". If you do not remember seeing the word press ""new"" or type ""z"". Please press the space bar or click on continue to begin. ",,,5f2fc0f05b67073c177aaece,32,2022-02-12_11h25.23.964,lexical_decision_task_DD_L2,2021.2.3,MacIntel,60.0024001,,,,,,,,,,,,,,,,,,,,,,,,,,,,,,,,,,,,,,,,,,,,,,,,,,,,,,,,,,,,,,,,,,,3,0,3,0,1,,,,,,,,,,,,,,,,
,0.04655816,-0.403051215,1,0,0,instr_done_button,,,,,,1,test,"In the next phase you will be presented with the words from the the first phase. Your job is to decide whether you remember seeing the word or not. If you remember seeing the word press ""old"" or type ""m"". If you do not remember seeing the word press ""new"" or type ""z"". Please press the space bar or click on continue to begin. ",,,5f2fc0f05b67073c177aaece,32,2022-02-12_11h25.23.964,lexical_decision_task_DD_L2,2021.2.3,MacIntel,60.0024001,,,,,,,,,,,,,,,,,,,,,,,,,,,,,,,,,,,,,,,,,,,,,,,,,,,,,,,,,,,,,,,,,,,4,0,4,0,1,,,,,,,,,,,,,,,,
,,,,,,,,,,,,,,,,,5f2fc0f05b67073c177aaece,32,2022-02-12_11h25.23.964,lexical_decision_task_DD_L2,2021.2.3,MacIntel,60.0024001,,,,,,,,,,,,2.3665,1,,,,,,,,,,,,,,,,,,,,,,,,0.1471875,-0.316323785,0,0,0,,,,,,,FLESH,HB,z,y,./images/FLESHHB.png,,,,,,,,,,,,,,,,,,,,z,1,2.3665,,,,,,,,0,0,0,108,1,
,,,,,,,,,,,,,,,,,5f2fc0f05b67073c177aaece,32,2022-02-12_11h25.23.964,lexical_decision_task_DD_L2,2021.2.3,MacIntel,60.0024001,,,,,,,,,,,,1.3833,1,,,,,,,,,,,,,,,,,,,,,,,,0.1471875,-0.316323785,0,0,0,,,,,,,TOWEL,LB,z,y,./images/TOWELLB.png,,,,,,,,,,,,,,,,,,,,z,1,1.3833,,,,,,,,0,1,1,85,1,
,,,,,,,,,,,,,,,,,5f2fc0f05b67073c177aaece,32,2022-02-12_11h25.23.964,lexical_decision_task_DD_L2,2021.2.3,MacIntel,60.0024001,,,,,,,,,,,,0.8751,1,,,,,,,,,,,,,,,,,,,,,,,,0.1471875,-0.316323785,0,0,0,,,,,,,DRILL,HB,z,y,./images/DRILLHB.png,,,,,,,,,,,,,,,,,,,,z,1,0.8751,,,,,,,,0,2,2,165,1,
,,,,,,,,,,,,,,,,,5f2fc0f05b67073c177aaece,32,2022-02-12_11h25.23.964,lexical_decision_task_DD_L2,2021.2.3,MacIntel,60.0024001,,,,,,,,,,,,0.8414,1,,,,,,,,,,,,,,,,,,,,,,,,0.1471875,-0.316323785,0,0,0,,,,,,,DRUMS,LB,m,y,./images/DRUMSLB.png,,,,,,,,,,,,,,,,,,,,m,1,0.8414,,,,,,,,0,3,3,49,1,
,,,,,,,,,,,,,,,,,5f2fc0f05b67073c177aaece,32,2022-02-12_11h25.23.964,lexical_decision_task_DD_L2,2021.2.3,MacIntel,60.0024001,,,,,,,,,,,,0.8138,1,,,,,,,,,,,,,,,,,,,,,,,,0.1471875,-0.316323785,0,0,0,,,,,,,TULIP,C,m,y,./images/TULIP.png,,,,,,,,,,,,,,,,,,,,m,1,0.8138,,,,,,,,0,4,4,8,1,
,,,,,,,,,,,,,,,,,5f2fc0f05b67073c177aaece,32,2022-02-12_11h25.23.964,lexical_decision_task_DD_L2,2021.2.3,MacIntel,60.0024001,,,,,,,,,,,,0.7546,1,,,,,,,,,,,,,,,,,,,,,,,,0.1471875,-0.316323785,0,0,0,,,,,,,PEACH,C,m,y,./images/PEACH.png,,,,,,,,,,,,,,,,,,,,m,1,0.7546,,,,,,,,0,5,5,35,1,
,,,,,,,,,,,,,,,,,5f2fc0f05b67073c177aaece,32,2022-02-12_11h25.23.964,lexical_decision_task_DD_L2,2021.2.3,MacIntel,60.0024001,,,,,,,,,,,,1.1469,0,,,,,,,,,,,,,,,,,,,,,,,,0.1471875,-0.316323785,0,0,0,,,,,,,BRUSH,C,z,y,./images/BRUSH.png,,,,,,,,,,,,,,,,,,,,m,0,1.1469,,,,,,,,0,6,6,143,1,
,,,,,,,,,,,,,,,,,5f2fc0f05b67073c177aaece,32,2022-02-12_11h25.23.964,lexical_decision_task_DD_L2,2021.2.3,MacIntel,60.0024001,,,,,,,,,,,,1.4143,0,,,,,,,,,,,,,,,,,,,,,,,,0.1471875,-0.316323785,0,0,0,,,,,,,PASTA,C,m,y,./images/PASTA.png,,,,,,,,,,,,,,,,,,,,z,0,1.4143,,,,,,,,0,7,7,5,1,
,,,,,,,,,,,,,,,,,5f2fc0f05b67073c177aaece,32,2022-02-12_11h25.23.964,lexical_decision_task_DD_L2,2021.2.3,MacIntel,60.0024001,,,,,,,,,,,,0.7304,1,,,,,,,,,,,,,,,,,,,,,,,,0.1471875,-0.316323785,0,0,0,,,,,,,INFANT,LB,m,y,./images/INFANTLB.png,,,,,,,,,,,,,,,,,,,,m,1,0.7304,,,,,,,,0,8,8,76,1,
,,,,,,,,,,,,,,,,,5f2fc0f05b67073c177aaece,32,2022-02-12_11h25.23.964,lexical_decision_task_DD_L2,2021.2.3,MacIntel,60.0024001,,,,,,,,,,,,0.7792,0,,,,,,,,,,,,,,,,,,,,,,,,0.1471875,-0.316323785,0,0,0,,,,,,,TORCH,C,m,y,./images/TORCH.png,,,,,,,,,,,,,,,,,,,,z,0,0.7792,,,,,,,,0,9,9,68,1,
,,,,,,,,,,,,,,,,,5f2fc0f05b67073c177aaece,32,2022-02-12_11h25.23.964,lexical_decision_task_DD_L2,2021.2.3,MacIntel,60.0024001,,,,,,,,,,,,0.6579,0,,,,,,,,,,,,,,,,,,,,,,,,0.1471875,-0.316323785,0,0,0,,,,,,,WAGON,LB,z,y,./images/WAGONLB.png,,,,,,,,,,,,,,,,,,,,m,0,0.6579,,,,,,,,0,10,10,91,1,
,,,,,,,,,,,,,,,,,5f2fc0f05b67073c177aaece,32,2022-02-12_11h25.23.964,lexical_decision_task_DD_L2,2021.2.3,MacIntel,60.0024001,,,,,,,,,,,,1.1139,1,,,,,,,,,,,,,,,,,,,,,,,,0.1471875,-0.316323785,0,0,0,,,,,,,MUMMY,LB,z,y,./images/MUMMYLB.png,,,,,,,,,,,,,,,,,,,,z,1,1.1139,,,,,,,,0,11,11,130,1,
,,,,,,,,,,,,,,,,,5f2fc0f05b67073c177aaece,32,2022-02-12_11h25.23.964,lexical_decision_task_DD_L2,2021.2.3,MacIntel,60.0024001,,,,,,,,,,,,0.7443,1,,,,,,,,,,,,,,,,,,,,,,,,0.1471875,-0.316323785,0,0,0,,,,,,,CHAIN,HB,z,y,./images/CHAINHB.png,,,,,,,,,,,,,,,,,,,,z,1,0.7443,,,,,,,,0,12,12,126,1,
,,,,,,,,,,,,,,,,,5f2fc0f05b67073c177aaece,32,2022-02-12_11h25.23.964,lexical_decision_task_DD_L2,2021.2.3,MacIntel,60.0024001,,,,,,,,,,,,0.8117,1,,,,,,,,,,,,,,,,,,,,,,,,0.1471875,-0.316323785,0,0,0,,,,,,,CLOWN,LB,z,y,./images/CLOWNLB.png,,,,,,,,,,,,,,,,,,,,z,1,0.8117,,,,,,,,0,13,13,106,1,
,,,,,,,,,,,,,,,,,5f2fc0f05b67073c177aaece,32,2022-02-12_11h25.23.964,lexical_decision_task_DD_L2,2021.2.3,MacIntel,60.0024001,,,,,,,,,,,,0.6638,1,,,,,,,,,,,,,,,,,,,,,,,,0.1471875,-0.316323785,0,0,0,,,,,,,SPINE,C,z,y,./images/SPINE.png,,,,,,,,,,,,,,,,,,,,z,1,0.6638,,,,,,,,0,14,14,149,1,
,,,,,,,,,,,,,,,,,5f2fc0f05b67073c177aaece,32,2022-02-12_11h25.23.964,lexical_decision_task_DD_L2,2021.2.3,MacIntel,60.0024001,,,,,,,,,,,,1.3119,1,,,,,,,,,,,,,,,,,,,,,,,,0.1471875,-0.316323785,0,0,0,,,,,,,MIRROR,HB,m,y,./images/MIRRORHB.png,,,,,,,,,,,,,,,,,,,,m,1,1.3119,,,,,,,,0,15,15,63,1,
,,,,,,,,,,,,,,,,,5f2fc0f05b67073c177aaece,32,2022-02-12_11h25.23.964,lexical_decision_task_DD_L2,2021.2.3,MacIntel,60.0024001,,,,,,,,,,,,0.7468,1,,,,,,,,,,,,,,,,,,,,,,,,0.1471875,-0.316323785,0,0,0,,,,,,,BANNER,LB,m,y,./images/BANNERLB.png,,,,,,,,,,,,,,,,,,,,m,1,0.7468,,,,,,,,0,16,16,52,1,
,,,,,,,,,,,,,,,,,5f2fc0f05b67073c177aaece,32,2022-02-12_11h25.23.964,lexical_decision_task_DD_L2,2021.2.3,MacIntel,60.0024001,,,,,,,,,,,,0.635,1,,,,,,,,,,,,,,,,,,,,,,,,0.1471875,-0.316323785,0,0,0,,,,,,,GLOVE,LB,z,y,./images/GLOVELB.png,,,,,,,,,,,,,,,,,,,,z,1,0.635,,,,,,,,0,17,17,157,1,
,,,,,,,,,,,,,,,,,5f2fc0f05b67073c177aaece,32,2022-02-12_11h25.23.964,lexical_decision_task_DD_L2,2021.2.3,MacIntel,60.0024001,,,,,,,,,,,,0.3793,0,,,,,,,,,,,,,,,,,,,,,,,,0.1471875,-0.316323785,0,0,0,,,,,,,MOTOR,LB,m,y,./images/MOTORLB.png,,,,,,,,,,,,,,,,,,,,z,0,0.3793,,,,,,,,0,18,18,13,1,
,,,,,,,,,,,,,,,,,5f2fc0f05b67073c177aaece,32,2022-02-12_11h25.23.964,lexical_decision_task_DD_L2,2021.2.3,MacIntel,60.0024001,,,,,,,,,,,,0.8969,1,,,,,,,,,,,,,,,,,,,,,,,,0.1471875,-0.316323785,0,0,0,,,,,,,CURRY,HB,z,y,./images/CURRYHB.png,,,,,,,,,,,,,,,,,,,,z,1,0.8969,,,,,,,,0,19,19,144,1,
,,,,,,,,,,,,,,,,,5f2fc0f05b67073c177aaece,32,2022-02-12_11h25.23.964,lexical_decision_task_DD_L2,2021.2.3,MacIntel,60.0024001,,,,,,,,,,,,0.7034,1,,,,,,,,,,,,,,,,,,,,,,,,0.1471875,-0.316323785,0,0,0,,,,,,,MOSQUE,LB,m,y,./images/MOSQUELB.png,,,,,,,,,,,,,,,,,,,,m,1,0.7034,,,,,,,,0,20,20,43,1,
,,,,,,,,,,,,,,,,,5f2fc0f05b67073c177aaece,32,2022-02-12_11h25.23.964,lexical_decision_task_DD_L2,2021.2.3,MacIntel,60.0024001,,,,,,,,,,,,0.7602,0,,,,,,,,,,,,,,,,,,,,,,,,0.1471875,-0.316323785,0,0,0,,,,,,,FENCE,C,z,y,./images/FENCE.png,,,,,,,,,,,,,,,,,,,,m,0,0.7602,,,,,,,,0,21,21,98,1,
,,,,,,,,,,,,,,,,,5f2fc0f05b67073c177aaece,32,2022-02-12_11h25.23.964,lexical_decision_task_DD_L2,2021.2.3,MacIntel,60.0024001,,,,,,,,,,,,0.6333,1,,,,,,,,,,,,,,,,,,,,,,,,0.1471875,-0.316323785,0,0,0,,,,,,,PEARL,LB,m,y,./images/PEARLLB.png,,,,,,,,,,,,,,,,,,,,m,1,0.6333,,,,,,,,0,22,22,46,1,
,,,,,,,,,,,,,,,,,5f2fc0f05b67073c177aaece,32,2022-02-12_11h25.23.964,lexical_decision_task_DD_L2,2021.2.3,MacIntel,60.0024001,,,,,,,,,,,,0.8606,0,,,,,,,,,,,,,,,,,,,,,,,,0.1471875,-0.316323785,0,0,0,,,,,,,KIDNEY,HB,m,y,./images/KIDNEYHB.png,,,,,,,,,,,,,,,,,,,,z,0,0.8606,,,,,,,,0,23,23,21,1,
,,,,,,,,,,,,,,,,,5f2fc0f05b67073c177aaece,32,2022-02-12_11h25.23.964,lexical_decision_task_DD_L2,2021.2.3,MacIntel,60.0024001,,,,,,,,,,,,0.7592,1,,,,,,,,,,,,,,,,,,,,,,,,0.1471875,-0.316323785,0,0,0,,,,,,,LAGOON,C,z,y,./images/LAGOON.png,,,,,,,,,,,,,,,,,,,,z,1,0.7592,,,,,,,,0,24,24,131,1,
,,,,,,,,,,,,,,,,,5f2fc0f05b67073c177aaece,32,2022-02-12_11h25.23.964,lexical_decision_task_DD_L2,2021.2.3,MacIntel,60.0024001,,,,,,,,,,,,1.6614,1,,,,,,,,,,,,,,,,,,,,,,,,0.1471875,-0.316323785,0,0,0,,,,,,,BUTTER,HB,z,y,./images/BUTTERHB.png,,,,,,,,,,,,,,,,,,,,z,1,1.6614,,,,,,,,0,25,25,111,1,
,,,,,,,,,,,,,,,,,5f2fc0f05b67073c177aaece,32,2022-02-12_11h25.23.964,lexical_decision_task_DD_L2,2021.2.3,MacIntel,60.0024001,,,,,,,,,,,,0.8623,1,,,,,,,,,,,,,,,,,,,,,,,,0.1471875,-0.316323785,0,0,0,,,,,,,SNAKE,LB,z,y,./images/SNAKELB.png,,,,,,,,,,,,,,,,,,,,z,1,0.8623,,,,,,,,0,26,26,124,1,
,,,,,,,,,,,,,,,,,5f2fc0f05b67073c177aaece,32,2022-02-12_11h25.23.964,lexical_decision_task_DD_L2,2021.2.3,MacIntel,60.0024001,,,,,,,,,,,,0.6791,1,,,,,,,,,,,,,,,,,,,,,,,,0.1471875,-0.316323785,0,0,0,,,,,,,RAZOR,LB,z,y,./images/RAZORLB.png,,,,,,,,,,,,,,,,,,,,z,1,0.6791,,,,,,,,0,27,27,118,1,
,,,,,,,,,,,,,,,,,5f2fc0f05b67073c177aaece,32,2022-02-12_11h25.23.964,lexical_decision_task_DD_L2,2021.2.3,MacIntel,60.0024001,,,,,,,,,,,,0.8313,1,,,,,,,,,,,,,,,,,,,,,,,,0.1471875,-0.316323785,0,0,0,,,,,,,CLOUD,C,z,y,./images/CLOUD.png,,,,,,,,,,,,,,,,,,,,z,1,0.8313,,,,,,,,0,28,28,110,1,
,,,,,,,,,,,,,,,,,5f2fc0f05b67073c177aaece,32,2022-02-12_11h25.23.964,lexical_decision_task_DD_L2,2021.2.3,MacIntel,60.0024001,,,,,,,,,,,,0.7984,1,,,,,,,,,,,,,,,,,,,,,,,,0.1471875,-0.316323785,0,0,0,,,,,,,KITTEN,HB,m,y,./images/KITTENHB.png,,,,,,,,,,,,,,,,,,,,m,1,0.7984,,,,,,,,0,29,29,45,1,
,,,,,,,,,,,,,,,,,5f2fc0f05b67073c177aaece,32,2022-02-12_11h25.23.964,lexical_decision_task_DD_L2,2021.2.3,MacIntel,60.0024001,,,,,,,,,,,,0.9223,1,,,,,,,,,,,,,,,,,,,,,,,,0.1471875,-0.316323785,0,0,0,,,,,,,PENCE,LB,m,y,./images/PENCELB.png,,,,,,,,,,,,,,,,,,,,m,1,0.9223,,,,,,,,0,30,30,16,1,
,,,,,,,,,,,,,,,,,5f2fc0f05b67073c177aaece,32,2022-02-12_11h25.23.964,lexical_decision_task_DD_L2,2021.2.3,MacIntel,60.0024001,,,,,,,,,,,,0.8457,1,,,,,,,,,,,,,,,,,,,,,,,,0.1471875,-0.316323785,0,0,0,,,,,,,DANCER,HB,z,y,./images/DANCERHB.png,,,,,,,,,,,,,,,,,,,,z,1,0.8457,,,,,,,,0,31,31,105,1,
,,,,,,,,,,,,,,,,,5f2fc0f05b67073c177aaece,32,2022-02-12_11h25.23.964,lexical_decision_task_DD_L2,2021.2.3,MacIntel,60.0024001,,,,,,,,,,,,1.1475,1,,,,,,,,,,,,,,,,,,,,,,,,0.1471875,-0.316323785,0,0,0,,,,,,,COOKER,HB,m,y,./images/COOKERHB.png,,,,,,,,,,,,,,,,,,,,m,1,1.1475,,,,,,,,0,32,32,69,1,
,,,,,,,,,,,,,,,,,5f2fc0f05b67073c177aaece,32,2022-02-12_11h25.23.964,lexical_decision_task_DD_L2,2021.2.3,MacIntel,60.0024001,,,,,,,,,,,,0.7681,1,,,,,,,,,,,,,,,,,,,,,,,,0.1471875,-0.316323785,0,0,0,,,,,,,BERRY,C,m,y,./images/BERRY.png,,,,,,,,,,,,,,,,,,,,m,1,0.7681,,,,,,,,0,33,33,47,1,
,,,,,,,,,,,,,,,,,5f2fc0f05b67073c177aaece,32,2022-02-12_11h25.23.964,lexical_decision_task_DD_L2,2021.2.3,MacIntel,60.0024001,,,,,,,,,,,,0.6686,1,,,,,,,,,,,,,,,,,,,,,,,,0.1471875,-0.316323785,0,0,0,,,,,,,PISTOL,C,z,y,./images/PISTOL.png,,,,,,,,,,,,,,,,,,,,z,1,0.6686,,,,,,,,0,34,34,113,1,
,,,,,,,,,,,,,,,,,5f2fc0f05b67073c177aaece,32,2022-02-12_11h25.23.964,lexical_decision_task_DD_L2,2021.2.3,MacIntel,60.0024001,,,,,,,,,,,,0.4654,0,,,,,,,,,,,,,,,,,,,,,,,,0.1471875,-0.316323785,0,0,0,,,,,,,SKIING,C,m,y,./images/SKIING.png,,,,,,,,,,,,,,,,,,,,z,0,0.4654,,,,,,,,0,35,35,17,1,
,,,,,,,,,,,,,,,,,5f2fc0f05b67073c177aaece,32,2022-02-12_11h25.23.964,lexical_decision_task_DD_L2,2021.2.3,MacIntel,60.0024001,,,,,,,,,,,,0.8852,0,,,,,,,,,,,,,,,,,,,,,,,,0.1471875,-0.316323785,0,0,0,,,,,,,LIZARD,C,m,y,./images/LIZARD.png,,,,,,,,,,,,,,,,,,,,z,0,0.8852,,,,,,,,0,36,36,44,1,
,,,,,,,,,,,,,,,,,5f2fc0f05b67073c177aaece,32,2022-02-12_11h25.23.964,lexical_decision_task_DD_L2,2021.2.3,MacIntel,60.0024001,,,,,,,,,,,,0.7968,0,,,,,,,,,,,,,,,,,,,,,,,,0.1471875,-0.316323785,0,0,0,,,,,,,BROOM,HB,z,y,./images/BROOMHB.png,,,,,,,,,,,,,,,,,,,,m,0,0.7968,,,,,,,,0,37,37,162,1,
,,,,,,,,,,,,,,,,,5f2fc0f05b67073c177aaece,32,2022-02-12_11h25.23.964,lexical_decision_task_DD_L2,2021.2.3,MacIntel,60.0024001,,,,,,,,,,,,0.7247,1,,,,,,,,,,,,,,,,,,,,,,,,0.1471875,-0.316323785,0,0,0,,,,,,,BABOON,LB,m,y,./images/BABOONLB.png,,,,,,,,,,,,,,,,,,,,m,1,0.7247,,,,,,,,0,38,38,58,1,
,,,,,,,,,,,,,,,,,5f2fc0f05b67073c177aaece,32,2022-02-12_11h25.23.964,lexical_decision_task_DD_L2,2021.2.3,MacIntel,60.0024001,,,,,,,,,,,,0.7466,1,,,,,,,,,,,,,,,,,,,,,,,,0.1471875,-0.316323785,0,0,0,,,,,,,BELLY,LB,m,y,./images/BELLYLB.png,,,,,,,,,,,,,,,,,,,,m,1,0.7466,,,,,,,,0,39,39,10,1,
,,,,,,,,,,,,,,,,,5f2fc0f05b67073c177aaece,32,2022-02-12_11h25.23.964,lexical_decision_task_DD_L2,2021.2.3,MacIntel,60.0024001,,,,,,,,,,,,1.2142,1,,,,,,,,,,,,,,,,,,,,,,,,0.1471875,-0.316323785,0,0,0,,,,,,,ARROW,HB,z,y,./images/ARROWHB.png,,,,,,,,,,,,,,,,,,,,z,1,1.2142,,,,,,,,0,40,40,153,1,
,,,,,,,,,,,,,,,,,5f2fc0f05b67073c177aaece,32,2022-02-12_11h25.23.964,lexical_decision_task_DD_L2,2021.2.3,MacIntel,60.0024001,,,,,,,,,,,,0.8475,1,,,,,,,,,,,,,,,,,,,,,,,,0.119874132,-0.424210069,1,0,0,,,,,,,WHEEL,C,z,y,./images/WHEEL.png,,,,,,,,,,,,,,,,,,,,z,1,0.8475,,,,,,,,0,41,41,161,1,break_done_button
,,,,,,,,,,,,,,,,,5f2fc0f05b67073c177aaece,32,2022-02-12_11h25.23.964,lexical_decision_task_DD_L2,2021.2.3,MacIntel,60.0024001,,,,,,,,,,,,1.914,1,,,,,,,,,,,,,,,,,,,,,,,,0.119874132,-0.424548611,0,0,0,,,,,,,PILOT,C,z,y,./images/PILOT.png,,,,,,,,,,,,,,,,,,,,z,1,1.914,,,,,,,,0,42,42,134,1,
,,,,,,,,,,,,,,,,,5f2fc0f05b67073c177aaece,32,2022-02-12_11h25.23.964,lexical_decision_task_DD_L2,2021.2.3,MacIntel,60.0024001,,,,,,,,,,,,0.9151,1,,,,,,,,,,,,,,,,,,,,,,,,0.119874132,-0.424548611,0,0,0,,,,,,,SWEAT,HB,m,y,./images/SWEATHB.png,,,,,,,,,,,,,,,,,,,,m,1,0.9151,,,,,,,,0,43,43,66,1,
,,,,,,,,,,,,,,,,,5f2fc0f05b67073c177aaece,32,2022-02-12_11h25.23.964,lexical_decision_task_DD_L2,2021.2.3,MacIntel,60.0024001,,,,,,,,,,,,1.0201,0,,,,,,,,,,,,,,,,,,,,,,,,0.119874132,-0.424548611,0,0,0,,,,,,,POKER,LB,z,y,./images/POKERLB.png,,,,,,,,,,,,,,,,,,,,m,0,1.0201,,,,,,,,0,44,44,151,1,
,,,,,,,,,,,,,,,,,5f2fc0f05b67073c177aaece,32,2022-02-12_11h25.23.964,lexical_decision_task_DD_L2,2021.2.3,MacIntel,60.0024001,,,,,,,,,,,,0.8498,1,,,,,,,,,,,,,,,,,,,,,,,,0.119874132,-0.424548611,0,0,0,,,,,,,FINGER,HB,m,y,./images/FINGERHB.png,,,,,,,,,,,,,,,,,,,,m,1,0.8498,,,,,,,,0,45,45,3,1,
,,,,,,,,,,,,,,,,,5f2fc0f05b67073c177aaece,32,2022-02-12_11h25.23.964,lexical_decision_task_DD_L2,2021.2.3,MacIntel,60.0024001,,,,,,,,,,,,1.003,1,,,,,,,,,,,,,,,,,,,,,,,,0.119874132,-0.424548611,0,0,0,,,,,,,GRAPE,LB,z,y,./images/GRAPELB.png,,,,,,,,,,,,,,,,,,,,z,1,1.003,,,,,,,,0,46,46,100,1,
,,,,,,,,,,,,,,,,,5f2fc0f05b67073c177aaece,32,2022-02-12_11h25.23.964,lexical_decision_task_DD_L2,2021.2.3,MacIntel,60.0024001,,,,,,,,,,,,0.7633,1,,,,,,,,,,,,,,,,,,,,,,,,0.119874132,-0.424548611,0,0,0,,,,,,,CRUMB,C,m,y,./images/CRUMB.png,,,,,,,,,,,,,,,,,,,,m,1,0.7633,,,,,,,,0,47,47,29,1,
,,,,,,,,,,,,,,,,,5f2fc0f05b67073c177aaece,32,2022-02-12_11h25.23.964,lexical_decision_task_DD_L2,2021.2.3,MacIntel,60.0024001,,,,,,,,,,,,0.6483,1,,,,,,,,,,,,,,,,,,,,,,,,0.119874132,-0.424548611,0,0,0,,,,,,,COLLAR,HB,z,y,./images/COLLARHB.png,,,,,,,,,,,,,,,,,,,,z,1,0.6483,,,,,,,,0,48,48,99,1,
,,,,,,,,,,,,,,,,,5f2fc0f05b67073c177aaece,32,2022-02-12_11h25.23.964,lexical_decision_task_DD_L2,2021.2.3,MacIntel,60.0024001,,,,,,,,,,,,0.7486,1,,,,,,,,,,,,,,,,,,,,,,,,0.119874132,-0.424548611,0,0,0,,,,,,,BLOKE,HB,z,y,./images/BLOKEHB.png,,,,,,,,,,,,,,,,,,,,z,1,0.7486,,,,,,,,0,49,49,96,1,
,,,,,,,,,,,,,,,,,5f2fc0f05b67073c177aaece,32,2022-02-12_11h25.23.964,lexical_decision_task_DD_L2,2021.2.3,MacIntel,60.0024001,,,,,,,,,,,,0.8235,1,,,,,,,,,,,,,,,,,,,,,,,,0.119874132,-0.424548611,0,0,0,,,,,,,DOUGH,LB,m,y,./images/DOUGHLB.png,,,,,,,,,,,,,,,,,,,,m,1,0.8235,,,,,,,,0,50,50,19,1,
,,,,,,,,,,,,,,,,,5f2fc0f05b67073c177aaece,32,2022-02-12_11h25.23.964,lexical_decision_task_DD_L2,2021.2.3,MacIntel,60.0024001,,,,,,,,,,,,0.8549,1,,,,,,,,,,,,,,,,,,,,,,,,0.119874132,-0.424548611,0,0,0,,,,,,,SWING,LB,m,y,./images/SWINGLB.png,,,,,,,,,,,,,,,,,,,,m,1,0.8549,,,,,,,,0,51,51,40,1,
,,,,,,,,,,,,,,,,,5f2fc0f05b67073c177aaece,32,2022-02-12_11h25.23.964,lexical_decision_task_DD_L2,2021.2.3,MacIntel,60.0024001,,,,,,,,,,,,0.9024,1,,,,,,,,,,,,,,,,,,,,,,,,0.119874132,-0.424548611,0,0,0,,,,,,,POODLE,HB,m,y,./images/POODLEHB.png,,,,,,,,,,,,,,,,,,,,m,1,0.9024,,,,,,,,0,52,52,81,1,
,,,,,,,,,,,,,,,,,5f2fc0f05b67073c177aaece,32,2022-02-12_11h25.23.964,lexical_decision_task_DD_L2,2021.2.3,MacIntel,60.0024001,,,,,,,,,,,,0.767,1,,,,,,,,,,,,,,,,,,,,,,,,0.119874132,-0.424548611,0,0,0,,,,,,,RULER,LB,z,y,./images/RULERLB.png,,,,,,,,,,,,,,,,,,,,z,1,0.767,,,,,,,,0,53,53,163,1,
,,,,,,,,,,,,,,,,,5f2fc0f05b67073c177aaece,32,2022-02-12_11h25.23.964,lexical_decision_task_DD_L2,2021.2.3,MacIntel,60.0024001,,,,,,,,,,,,0.8904,1,,,,,,,,,,,,,,,,,,,,,,,,0.119874132,-0.424548611,0,0,0,,,,,,,FOLDER,HB,m,y,./images/FOLDERHB.png,,,,,,,,,,,,,,,,,,,,m,1,0.8904,,,,,,,,0,54,54,42,1,
,,,,,,,,,,,,,,,,,5f2fc0f05b67073c177aaece,32,2022-02-12_11h25.23.964,lexical_decision_task_DD_L2,2021.2.3,MacIntel,60.0024001,,,,,,,,,,,,0.7157,1,,,,,,,,,,,,,,,,,,,,,,,,0.119874132,-0.424548611,0,0,0,,,,,,,BRIDE,LB,z,y,./images/BRIDELB.png,,,,,,,,,,,,,,,,,,,,z,1,0.7157,,,,,,,,0,55,55,148,1,
,,,,,,,,,,,,,,,,,5f2fc0f05b67073c177aaece,32,2022-02-12_11h25.23.964,lexical_decision_task_DD_L2,2021.2.3,MacIntel,60.0024001,,,,,,,,,,,,0.6189,0,,,,,,,,,,,,,,,,,,,,,,,,0.119874132,-0.424548611,0,0,0,,,,,,,SNACK,LB,m,y,./images/SNACKLB.png,,,,,,,,,,,,,,,,,,,,z,0,0.6189,,,,,,,,0,56,56,73,1,
,,,,,,,,,,,,,,,,,5f2fc0f05b67073c177aaece,32,2022-02-12_11h25.23.964,lexical_decision_task_DD_L2,2021.2.3,MacIntel,60.0024001,,,,,,,,,,,,0.6323,1,,,,,,,,,,,,,,,,,,,,,,,,0.119874132,-0.424548611,0,0,0,,,,,,,MAMMAL,C,z,y,./images/MAMMAL.png,,,,,,,,,,,,,,,,,,,,z,1,0.6323,,,,,,,,0,57,57,146,1,
,,,,,,,,,,,,,,,,,5f2fc0f05b67073c177aaece,32,2022-02-12_11h25.23.964,lexical_decision_task_DD_L2,2021.2.3,MacIntel,60.0024001,,,,,,,,,,,,0.5828,1,,,,,,,,,,,,,,,,,,,,,,,,0.119874132,-0.424548611,0,0,0,,,,,,,BUNNY,LB,z,y,./images/BUNNYLB.png,,,,,,,,,,,,,,,,,,,,z,1,0.5828,,,,,,,,0,58,58,97,1,
,,,,,,,,,,,,,,,,,5f2fc0f05b67073c177aaece,32,2022-02-12_11h25.23.964,lexical_decision_task_DD_L2,2021.2.3,MacIntel,60.0024001,,,,,,,,,,,,0.4342,1,,,,,,,,,,,,,,,,,,,,,,,,0.119874132,-0.424548611,0,0,0,,,,,,,BISHOP,LB,z,y,./images/BISHOPLB.png,,,,,,,,,,,,,,,,,,,,z,1,0.4342,,,,,,,,0,59,59,133,1,
,,,,,,,,,,,,,,,,,5f2fc0f05b67073c177aaece,32,2022-02-12_11h25.23.964,lexical_decision_task_DD_L2,2021.2.3,MacIntel,60.0024001,,,,,,,,,,,,0.7509,1,,,,,,,,,,,,,,,,,,,,,,,,0.119874132,-0.424548611,0,0,0,,,,,,,BOILER,HB,z,y,./images/BOILERHB.png,,,,,,,,,,,,,,,,,,,,z,1,0.7509,,,,,,,,0,60,60,120,1,
,,,,,,,,,,,,,,,,,5f2fc0f05b67073c177aaece,32,2022-02-12_11h25.23.964,lexical_decision_task_DD_L2,2021.2.3,MacIntel,60.0024001,,,,,,,,,,,,0.5323,1,,,,,,,,,,,,,,,,,,,,,,,,0.119874132,-0.424548611,0,0,0,,,,,,,PARADE,C,z,y,./images/PARADE.png,,,,,,,,,,,,,,,,,,,,z,1,0.5323,,,,,,,,0,61,61,101,1,
,,,,,,,,,,,,,,,,,5f2fc0f05b67073c177aaece,32,2022-02-12_11h25.23.964,lexical_decision_task_DD_L2,2021.2.3,MacIntel,60.0024001,,,,,,,,,,,,1.2557,1,,,,,,,,,,,,,,,,,,,,,,,,0.119874132,-0.424548611,0,0,0,,,,,,,BEARD,C,m,y,./images/BEARD.png,,,,,,,,,,,,,,,,,,,,m,1,1.2557,,,,,,,,0,62,62,2,1,
,,,,,,,,,,,,,,,,,5f2fc0f05b67073c177aaece,32,2022-02-12_11h25.23.964,lexical_decision_task_DD_L2,2021.2.3,MacIntel,60.0024001,,,,,,,,,,,,1.1349,0,,,,,,,,,,,,,,,,,,,,,,,,0.119874132,-0.424548611,0,0,0,,,,,,,PICKLE,C,m,y,./images/PICKLE.png,,,,,,,,,,,,,,,,,,,,z,0,1.1349,,,,,,,,0,63,63,14,1,
,,,,,,,,,,,,,,,,,5f2fc0f05b67073c177aaece,32,2022-02-12_11h25.23.964,lexical_decision_task_DD_L2,2021.2.3,MacIntel,60.0024001,,,,,,,,,,,,1.4501,1,,,,,,,,,,,,,,,,,,,,,,,,0.119874132,-0.424548611,0,0,0,,,,,,,LITTER,HB,m,y,./images/LITTERHB.png,,,,,,,,,,,,,,,,,,,,m,1,1.4501,,,,,,,,0,64,64,78,1,
,,,,,,,,,,,,,,,,,5f2fc0f05b67073c177aaece,32,2022-02-12_11h25.23.964,lexical_decision_task_DD_L2,2021.2.3,MacIntel,60.0024001,,,,,,,,,,,,0.6889,0,,,,,,,,,,,,,,,,,,,,,,,,0.119874132,-0.424548611,0,0,0,,,,,,,WALNUT,HB,z,y,./images/WALNUTHB.png,,,,,,,,,,,,,,,,,,,,m,0,0.6889,,,,,,,,0,65,65,84,1,
,,,,,,,,,,,,,,,,,5f2fc0f05b67073c177aaece,32,2022-02-12_11h25.23.964,lexical_decision_task_DD_L2,2021.2.3,MacIntel,60.0024001,,,,,,,,,,,,1.0178,0,,,,,,,,,,,,,,,,,,,,,,,,0.119874132,-0.424548611,0,0,0,,,,,,,ONION,HB,m,y,./images/ONIONHB.png,,,,,,,,,,,,,,,,,,,,z,0,1.0178,,,,,,,,0,66,66,51,1,
,,,,,,,,,,,,,,,,,5f2fc0f05b67073c177aaece,32,2022-02-12_11h25.23.964,lexical_decision_task_DD_L2,2021.2.3,MacIntel,60.0024001,,,,,,,,,,,,0.6195,1,,,,,,,,,,,,,,,,,,,,,,,,0.119874132,-0.424548611,0,0,0,,,,,,,STOVE,C,z,y,./images/STOVE.png,,,,,,,,,,,,,,,,,,,,z,1,0.6195,,,,,,,,0,67,67,86,1,
,,,,,,,,,,,,,,,,,5f2fc0f05b67073c177aaece,32,2022-02-12_11h25.23.964,lexical_decision_task_DD_L2,2021.2.3,MacIntel,60.0024001,,,,,,,,,,,,0.593,0,,,,,,,,,,,,,,,,,,,,,,,,0.119874132,-0.424548611,0,0,0,,,,,,,THROAT,HB,m,y,./images/THROATHB.png,,,,,,,,,,,,,,,,,,,,z,0,0.593,,,,,,,,0,68,68,36,1,
,,,,,,,,,,,,,,,,,5f2fc0f05b67073c177aaece,32,2022-02-12_11h25.23.964,lexical_decision_task_DD_L2,2021.2.3,MacIntel,60.0024001,,,,,,,,,,,,0.6745,1,,,,,,,,,,,,,,,,,,,,,,,,0.119874132,-0.424548611,0,0,0,,,,,,,HOCKEY,C,z,y,./images/HOCKEY.png,,,,,,,,,,,,,,,,,,,,z,1,0.6745,,,,,,,,0,69,69,116,1,
,,,,,,,,,,,,,,,,,5f2fc0f05b67073c177aaece,32,2022-02-12_11h25.23.964,lexical_decision_task_DD_L2,2021.2.3,MacIntel,60.0024001,,,,,,,,,,,,0.5677,1,,,,,,,,,,,,,,,,,,,,,,,,0.119874132,-0.424548611,0,0,0,,,,,,,CASINO,LB,z,y,./images/CASINOLB.png,,,,,,,,,,,,,,,,,,,,z,1,0.5677,,,,,,,,0,70,70,112,1,
,,,,,,,,,,,,,,,,,5f2fc0f05b67073c177aaece,32,2022-02-12_11h25.23.964,lexical_decision_task_DD_L2,2021.2.3,MacIntel,60.0024001,,,,,,,,,,,,1.0619,0,,,,,,,,,,,,,,,,,,,,,,,,0.119874132,-0.424548611,0,0,0,,,,,,,VALLEY,C,z,y,./images/VALLEY.png,,,,,,,,,,,,,,,,,,,,m,0,1.0619,,,,,,,,0,71,71,152,1,
,,,,,,,,,,,,,,,,,5f2fc0f05b67073c177aaece,32,2022-02-12_11h25.23.964,lexical_decision_task_DD_L2,2021.2.3,MacIntel,60.0024001,,,,,,,,,,,,0.7159,1,,,,,,,,,,,,,,,,,,,,,,,,0.119874132,-0.424548611,0,0,0,,,,,,,CANOE,LB,z,y,./images/CANOELB.png,,,,,,,,,,,,,,,,,,,,z,1,0.7159,,,,,,,,0,72,72,142,1,
,,,,,,,,,,,,,,,,,5f2fc0f05b67073c177aaece,32,2022-02-12_11h25.23.964,lexical_decision_task_DD_L2,2021.2.3,MacIntel,60.0024001,,,,,,,,,,,,1.3728,1,,,,,,,,,,,,,,,,,,,,,,,,0.119874132,-0.424548611,0,0,0,,,,,,,TIGER,LB,z,y,./images/TIGERLB.png,,,,,,,,,,,,,,,,,,,,z,1,1.3728,,,,,,,,0,73,73,121,1,
,,,,,,,,,,,,,,,,,5f2fc0f05b67073c177aaece,32,2022-02-12_11h25.23.964,lexical_decision_task_DD_L2,2021.2.3,MacIntel,60.0024001,,,,,,,,,,,,0.8501,0,,,,,,,,,,,,,,,,,,,,,,,,0.119874132,-0.424548611,0,0,0,,,,,,,CHERRY,HB,z,y,./images/CHERRYHB.png,,,,,,,,,,,,,,,,,,,,m,0,0.8501,,,,,,,,0,74,74,138,1,
,,,,,,,,,,,,,,,,,5f2fc0f05b67073c177aaece,32,2022-02-12_11h25.23.964,lexical_decision_task_DD_L2,2021.2.3,MacIntel,60.0024001,,,,,,,,,,,,0.6842,1,,,,,,,,,,,,,,,,,,,,,,,,0.119874132,-0.424548611,0,0,0,,,,,,,CRUST,LB,m,y,./images/CRUSTLB.png,,,,,,,,,,,,,,,,,,,,m,1,0.6842,,,,,,,,0,75,75,79,1,
,,,,,,,,,,,,,,,,,5f2fc0f05b67073c177aaece,32,2022-02-12_11h25.23.964,lexical_decision_task_DD_L2,2021.2.3,MacIntel,60.0024001,,,,,,,,,,,,0.6764,1,,,,,,,,,,,,,,,,,,,,,,,,0.119874132,-0.424548611,0,0,0,,,,,,,JELLY,LB,m,y,./images/JELLYLB.png,,,,,,,,,,,,,,,,,,,,m,1,0.6764,,,,,,,,0,76,76,64,1,
,,,,,,,,,,,,,,,,,5f2fc0f05b67073c177aaece,32,2022-02-12_11h25.23.964,lexical_decision_task_DD_L2,2021.2.3,MacIntel,60.0024001,,,,,,,,,,,,0.7495,1,,,,,,,,,,,,,,,,,,,,,,,,0.119874132,-0.424548611,0,0,0,,,,,,,BURIAL,C,m,y,./images/BURIAL.png,,,,,,,,,,,,,,,,,,,,m,1,0.7495,,,,,,,,0,77,77,59,1,
,,,,,,,,,,,,,,,,,5f2fc0f05b67073c177aaece,32,2022-02-12_11h25.23.964,lexical_decision_task_DD_L2,2021.2.3,MacIntel,60.0024001,,,,,,,,,,,,0.8079,1,,,,,,,,,,,,,,,,,,,,,,,,0.119874132,-0.424548611,0,0,0,,,,,,,JUMPER,C,z,y,./images/JUMPER.png,,,,,,,,,,,,,,,,,,,,z,1,0.8079,,,,,,,,0,78,78,158,1,
,,,,,,,,,,,,,,,,,5f2fc0f05b67073c177aaece,32,2022-02-12_11h25.23.964,lexical_decision_task_DD_L2,2021.2.3,MacIntel,60.0024001,,,,,,,,,,,,1.0026,1,,,,,,,,,,,,,,,,,,,,,,,,0.119874132,-0.424548611,0,0,0,,,,,,,MUSCLE,LB,m,y,./images/MUSCLELB.png,,,,,,,,,,,,,,,,,,,,m,1,1.0026,,,,,,,,0,79,79,4,1,
,,,,,,,,,,,,,,,,,5f2fc0f05b67073c177aaece,32,2022-02-12_11h25.23.964,lexical_decision_task_DD_L2,2021.2.3,MacIntel,60.0024001,,,,,,,,,,,,0.8009,1,,,,,,,,,,,,,,,,,,,,,,,,0.119874132,-0.424548611,0,0,0,,,,,,,PEBBLE,LB,z,y,./images/PEBBLELB.png,,,,,,,,,,,,,,,,,,,,z,1,0.8009,,,,,,,,0,80,80,166,1,
,,,,,,,,,,,,,,,,,5f2fc0f05b67073c177aaece,32,2022-02-12_11h25.23.964,lexical_decision_task_DD_L2,2021.2.3,MacIntel,60.0024001,,,,,,,,,,,,0.7137,1,,,,,,,,,,,,,,,,,,,,,,,,0.119874132,-0.424548611,0,0,0,,,,,,,BANANA,LB,z,y,./images/BANANALB.png,,,,,,,,,,,,,,,,,,,,z,1,0.7137,,,,,,,,0,81,81,154,1,
,,,,,,,,,,,,,,,,,5f2fc0f05b67073c177aaece,32,2022-02-12_11h25.23.964,lexical_decision_task_DD_L2,2021.2.3,MacIntel,60.0024001,,,,,,,,,,,,0.6331,0,,,,,,,,,,,,,,,,,,,,,,,,0.119874132,-0.424548611,0,0,0,,,,,,,WALRUS,C,m,y,./images/WALRUS.png,,,,,,,,,,,,,,,,,,,,z,0,0.6331,,,,,,,,0,82,82,23,1,
,,,,,,,,,,,,,,,,,5f2fc0f05b67073c177aaece,32,2022-02-12_11h25.23.964,lexical_decision_task_DD_L2,2021.2.3,MacIntel,60.0024001,,,,,,,,,,,,1.0837,1,,,,,,,,,,,,,,,,,,,,,,,,0.119874132,-0.424548611,0,0,0,space,,,,,,SQUARE,HB,m,y,./images/SQUAREHB.png,1.2868,,,,,,,,,,,,,,,,,,,m,1,1.0837,,,,,,,,0,83,83,6,1,
,,,,,,,,,,,,,,,,,5f2fc0f05b67073c177aaece,32,2022-02-12_11h25.23.964,lexical_decision_task_DD_L2,2021.2.3,MacIntel,60.0024001,,,,,,,,,,,,0.6452,0,,,,,,,,,,,,,,,,,,,,,,,,0.119874132,-0.424548611,0,0,0,,,,,,,CLOTH,C,z,y,./images/CLOTH.png,,,,,,,,,,,,,,,,,,,,m,0,0.6452,,,,,,,,0,84,84,107,1,
,,,,,,,,,,,,,,,,,5f2fc0f05b67073c177aaece,32,2022-02-12_11h25.23.964,lexical_decision_task_DD_L2,2021.2.3,MacIntel,60.0024001,,,,,,,,,,,,0.7294,1,,,,,,,,,,,,,,,,,,,,,,,,0.119874132,-0.424548611,0,0,0,,,,,,,SHELF,HB,m,y,./images/SHELFHB.png,,,,,,,,,,,,,,,,,,,,m,1,0.7294,,,,,,,,0,85,85,39,1,
,,,,,,,,,,,,,,,,,5f2fc0f05b67073c177aaece,32,2022-02-12_11h25.23.964,lexical_decision_task_DD_L2,2021.2.3,MacIntel,60.0024001,,,,,,,,,,,,1.5633,1,,,,,,,,,,,,,,,,,,,,,,,,0.119874132,-0.424548611,0,0,0,,,,,,,BUBBLE,C,z,y,./images/BUBBLE.png,,,,,,,,,,,,,,,,,,,,z,1,1.5633,,,,,,,,0,86,86,155,1,
,,,,,,,,,,,,,,,,,5f2fc0f05b67073c177aaece,32,2022-02-12_11h25.23.964,lexical_decision_task_DD_L2,2021.2.3,MacIntel,60.0024001,,,,,,,,,,,,0.7623,1,,,,,,,,,,,,,,,,,,,,,,,,0.119874132,-0.424548611,0,0,0,,,,,,,WHISKY,C,z,y,./images/WHISKY.png,,,,,,,,,,,,,,,,,,,,z,1,0.7623,,,,,,,,0,87,87,167,1,
,,,,,,,,,,,,,,,,,5f2fc0f05b67073c177aaece,32,2022-02-12_11h25.23.964,lexical_decision_task_DD_L2,2021.2.3,MacIntel,60.0024001,,,,,,,,,,,,0.622,1,,,,,,,,,,,,,,,,,,,,,,,,0.119874132,-0.424548611,0,0,0,,,,,,,STORM,HB,m,y,./images/STORMHB.png,,,,,,,,,,,,,,,,,,,,m,1,0.622,,,,,,,,0,88,88,30,1,
,,,,,,,,,,,,,,,,,5f2fc0f05b67073c177aaece,32,2022-02-12_11h25.23.964,lexical_decision_task_DD_L2,2021.2.3,MacIntel,60.0024001,,,,,,,,,,,,0.6647,1,,,,,,,,,,,,,,,,,,,,,,,,0.119874132,-0.424548611,0,0,0,,,,,,,ATTIC,HB,m,y,./images/ATTICHB.png,,,,,,,,,,,,,,,,,,,,m,1,0.6647,,,,,,,,0,89,89,27,1,
,,,,,,,,,,,,,,,,,5f2fc0f05b67073c177aaece,32,2022-02-12_11h25.23.964,lexical_decision_task_DD_L2,2021.2.3,MacIntel,60.0024001,,,,,,,,,,,,0.5635,0,,,,,,,,,,,,,,,,,,,,,,,,0.119874132,-0.424548611,0,0,0,,,,,,,STEAK,LB,z,y,./images/STEAKLB.png,,,,,,,,,,,,,,,,,,,,m,0,0.5635,,,,,,,,0,90,90,115,1,
,,,,,,,,,,,,,,,,,5f2fc0f05b67073c177aaece,32,2022-02-12_11h25.23.964,lexical_decision_task_DD_L2,2021.2.3,MacIntel,60.0024001,,,,,,,,,,,,0.8254,1,,,,,,,,,,,,,,,,,,,,,,,,0.119874132,-0.424548611,0,0,0,,,,,,,PLANK,LB,m,y,./images/PLANKLB.png,,,,,,,,,,,,,,,,,,,,m,1,0.8254,,,,,,,,0,91,91,1,1,
,,,,,,,,,,,,,,,,,5f2fc0f05b67073c177aaece,32,2022-02-12_11h25.23.964,lexical_decision_task_DD_L2,2021.2.3,MacIntel,60.0024001,,,,,,,,,,,,0.5859,0,,,,,,,,,,,,,,,,,,,,,,,,0.119874132,-0.424548611,0,0,0,,,,,,,SMOKER,C,m,y,./images/SMOKER.png,,,,,,,,,,,,,,,,,,,,z,0,0.5859,,,,,,,,0,92,92,26,1,
,,,,,,,,,,,,,,,,,5f2fc0f05b67073c177aaece,32,2022-02-12_11h25.23.964,lexical_decision_task_DD_L2,2021.2.3,MacIntel,60.0024001,,,,,,,,,,,,0.7282,1,,,,,,,,,,,,,,,,,,,,,,,,0.119874132,-0.424548611,0,0,0,,,,,,,ARTIST,LB,z,y,./images/ARTISTLB.png,,,,,,,,,,,,,,,,,,,,z,1,0.7282,,,,,,,,0,93,93,145,1,
,,,,,,,,,,,,,,,,,5f2fc0f05b67073c177aaece,32,2022-02-12_11h25.23.964,lexical_decision_task_DD_L2,2021.2.3,MacIntel,60.0024001,,,,,,,,,,,,0.5617,1,,,,,,,,,,,,,,,,,,,,,,,,0.119874132,-0.424548611,0,0,0,,,,,,,CANYON,LB,m,y,./images/CANYONLB.png,,,,,,,,,,,,,,,,,,,,m,1,0.5617,,,,,,,,0,94,94,34,1,
,,,,,,,,,,,,,,,,,5f2fc0f05b67073c177aaece,32,2022-02-12_11h25.23.964,lexical_decision_task_DD_L2,2021.2.3,MacIntel,60.0024001,,,,,,,,,,,,0.6913,1,,,,,,,,,,,,,,,,,,,,,,,,0.119874132,-0.424548611,0,0,0,,,,,,,TRIPOD,HB,m,y,./images/TRIPODHB.png,,,,,,,,,,,,,,,,,,,,m,1,0.6913,,,,,,,,0,95,95,54,1,
,,,,,,,,,,,,,,,,,5f2fc0f05b67073c177aaece,32,2022-02-12_11h25.23.964,lexical_decision_task_DD_L2,2021.2.3,MacIntel,60.0024001,,,,,,,,,,,,0.6737,0,,,,,,,,,,,,,,,,,,,,,,,,0.119874132,-0.424548611,0,0,0,,,,,,,SHIELD,HB,z,y,./images/SHIELDHB.png,,,,,,,,,,,,,,,,,,,,m,0,0.6737,,,,,,,,0,96,96,132,1,
,,,,,,,,,,,,,,,,,5f2fc0f05b67073c177aaece,32,2022-02-12_11h25.23.964,lexical_decision_task_DD_L2,2021.2.3,MacIntel,60.0024001,,,,,,,,,,,,0.724,1,,,,,,,,,,,,,,,,,,,,,,,,0.119874132,-0.424548611,0,0,0,,,,,,,MALLET,C,m,y,./images/MALLET.png,,,,,,,,,,,,,,,,,,,,m,1,0.724,,,,,,,,0,97,97,50,1,
,,,,,,,,,,,,,,,,,5f2fc0f05b67073c177aaece,32,2022-02-12_11h25.23.964,lexical_decision_task_DD_L2,2021.2.3,MacIntel,60.0024001,,,,,,,,,,,,0.6488,1,,,,,,,,,,,,,,,,,,,,,,,,0.119874132,-0.424548611,0,0,0,,,,,,,SAUNA,HB,z,y,./images/SAUNAHB.png,,,,,,,,,,,,,,,,,,,,z,1,0.6488,,,,,,,,0,98,98,117,1,
,,,,,,,,,,,,,,,,,5f2fc0f05b67073c177aaece,32,2022-02-12_11h25.23.964,lexical_decision_task_DD_L2,2021.2.3,MacIntel,60.0024001,,,,,,,,,,,,0.6172,0,,,,,,,,,,,,,,,,,,,,,,,,0.119874132,-0.424548611,0,0,0,,,,,,,PAINT,LB,m,y,./images/PAINTLB.png,,,,,,,,,,,,,,,,,,,,z,0,0.6172,,,,,,,,0,99,99,7,1,
,,,,,,,,,,,,,,,,,5f2fc0f05b67073c177aaece,32,2022-02-12_11h25.23.964,lexical_decision_task_DD_L2,2021.2.3,MacIntel,60.0024001,,,,,,,,,,,,0.5996,0,,,,,,,,,,,,,,,,,,,,,,,,0.119874132,-0.424548611,0,0,0,,,,,,,RHINO,HB,m,y,./images/RHINOHB.png,,,,,,,,,,,,,,,,,,,,z,0,0.5996,,,,,,,,0,100,100,9,1,
,,,,,,,,,,,,,,,,,5f2fc0f05b67073c177aaece,32,2022-02-12_11h25.23.964,lexical_decision_task_DD_L2,2021.2.3,MacIntel,60.0024001,,,,,,,,,,,,0.5782,1,,,,,,,,,,,,,,,,,,,,,,,,0.119874132,-0.424548611,0,0,0,,,,,,,GRANNY,C,z,y,./images/GRANNY.png,,,,,,,,,,,,,,,,,,,,z,1,0.5782,,,,,,,,0,101,101,104,1,
,,,,,,,,,,,,,,,,,5f2fc0f05b67073c177aaece,32,2022-02-12_11h25.23.964,lexical_decision_task_DD_L2,2021.2.3,MacIntel,60.0024001,,,,,,,,,,,,0.7175,0,,,,,,,,,,,,,,,,,,,,,,,,0.119874132,-0.424548611,0,0,0,,,,,,,GREASE,HB,m,y,./images/GREASEHB.png,,,,,,,,,,,,,,,,,,,,z,0,0.7175,,,,,,,,0,102,102,15,1,
,,,,,,,,,,,,,,,,,5f2fc0f05b67073c177aaece,32,2022-02-12_11h25.23.964,lexical_decision_task_DD_L2,2021.2.3,MacIntel,60.0024001,,,,,,,,,,,,0.6684,1,,,,,,,,,,,,,,,,,,,,,,,,0.119874132,-0.424548611,0,0,0,,,,,,,STATUE,HB,z,y,./images/STATUEHB.png,,,,,,,,,,,,,,,,,,,,z,1,0.6684,,,,,,,,0,103,103,150,1,
,,,,,,,,,,,,,,,,,5f2fc0f05b67073c177aaece,32,2022-02-12_11h25.23.964,lexical_decision_task_DD_L2,2021.2.3,MacIntel,60.0024001,,,,,,,,,,,,0.8906,1,,,,,,,,,,,,,,,,,,,,,,,,0.119874132,-0.424548611,0,0,0,,,,,,,PLANET,C,z,y,./images/PLANET.png,,,,,,,,,,,,,,,,,,,,z,1,0.8906,,,,,,,,0,104,104,164,1,
,,,,,,,,,,,,,,,,,5f2fc0f05b67073c177aaece,32,2022-02-12_11h25.23.964,lexical_decision_task_DD_L2,2021.2.3,MacIntel,60.0024001,,,,,,,,,,,,0.9164,1,,,,,,,,,,,,,,,,,,,,,,,,0.119874132,-0.424548611,0,0,0,,,,,,,PURSE,C,m,y,./images/PURSE.png,,,,,,,,,,,,,,,,,,,,m,1,0.9164,,,,,,,,0,105,105,62,1,
,,,,,,,,,,,,,,,,,5f2fc0f05b67073c177aaece,32,2022-02-12_11h25.23.964,lexical_decision_task_DD_L2,2021.2.3,MacIntel,60.0024001,,,,,,,,,,,,0.74,1,,,,,,,,,,,,,,,,,,,,,,,,0.119874132,-0.424548611,0,0,0,,,,,,,LADDER,C,m,y,./images/LADDER.png,,,,,,,,,,,,,,,,,,,,m,1,0.74,,,,,,,,0,106,106,38,1,
,,,,,,,,,,,,,,,,,5f2fc0f05b67073c177aaece,32,2022-02-12_11h25.23.964,lexical_decision_task_DD_L2,2021.2.3,MacIntel,60.0024001,,,,,,,,,,,,0.9079,1,,,,,,,,,,,,,,,,,,,,,,,,0.119874132,-0.424548611,0,0,0,,,,,,,JAGUAR,HB,m,y,./images/JAGUARHB.png,,,,,,,,,,,,,,,,,,,,m,1,0.9079,,,,,,,,0,107,107,18,1,
,,,,,,,,,,,,,,,,,5f2fc0f05b67073c177aaece,32,2022-02-12_11h25.23.964,lexical_decision_task_DD_L2,2021.2.3,MacIntel,60.0024001,,,,,,,,,,,,0.8524,0,,,,,,,,,,,,,,,,,,,,,,,,0.119874132,-0.424548611,0,0,0,,,,,,,STRING,C,m,y,./images/STRING.png,,,,,,,,,,,,,,,,,,,,z,0,0.8524,,,,,,,,0,108,108,41,1,
,,,,,,,,,,,,,,,,,5f2fc0f05b67073c177aaece,32,2022-02-12_11h25.23.964,lexical_decision_task_DD_L2,2021.2.3,MacIntel,60.0024001,,,,,,,,,,,,0.8001,1,,,,,,,,,,,,,,,,,,,,,,,,0.119874132,-0.424548611,0,0,0,,,,,,,CRADLE,C,m,y,./images/CRADLE.png,,,,,,,,,,,,,,,,,,,,m,1,0.8001,,,,,,,,0,109,109,20,1,
,,,,,,,,,,,,,,,,,5f2fc0f05b67073c177aaece,32,2022-02-12_11h25.23.964,lexical_decision_task_DD_L2,2021.2.3,MacIntel,60.0024001,,,,,,,,,,,,1.6702,0,,,,,,,,,,,,,,,,,,,,,,,,0.119874132,-0.424548611,0,0,0,,,,,,,CRATER,HB,z,y,./images/CRATERHB.png,,,,,,,,,,,,,,,,,,,,m,0,1.6702,,,,,,,,0,110,110,87,1,
,,,,,,,,,,,,,,,,,5f2fc0f05b67073c177aaece,32,2022-02-12_11h25.23.964,lexical_decision_task_DD_L2,2021.2.3,MacIntel,60.0024001,,,,,,,,,,,,0.5868,1,,,,,,,,,,,,,,,,,,,,,,,,0.119874132,-0.424548611,0,0,0,,,,,,,MELON,LB,m,y,./images/MELONLB.png,,,,,,,,,,,,,,,,,,,,m,1,0.5868,,,,,,,,0,111,111,22,1,
,,,,,,,,,,,,,,,,,5f2fc0f05b67073c177aaece,32,2022-02-12_11h25.23.964,lexical_decision_task_DD_L2,2021.2.3,MacIntel,60.0024001,,,,,,,,,,,,0.7401,1,,,,,,,,,,,,,,,,,,,,,,,,0.119874132,-0.424548611,0,0,0,,,,,,,SAILOR,LB,m,y,./images/SAILORLB.png,,,,,,,,,,,,,,,,,,,,m,1,0.7401,,,,,,,,0,112,112,67,1,
,,,,,,,,,,,,,,,,,5f2fc0f05b67073c177aaece,32,2022-02-12_11h25.23.964,lexical_decision_task_DD_L2,2021.2.3,MacIntel,60.0024001,,,,,,,,,,,,0.6699,1,,,,,,,,,,,,,,,,,,,,,,,,0.119874132,-0.424548611,0,0,0,,,,,,,MIDGET,LB,z,y,./images/MIDGETLB.png,,,,,,,,,,,,,,,,,,,,z,1,0.6699,,,,,,,,0,113,113,160,1,
,,,,,,,,,,,,,,,,,5f2fc0f05b67073c177aaece,32,2022-02-12_11h25.23.964,lexical_decision_task_DD_L2,2021.2.3,MacIntel,60.0024001,,,,,,,,,,,,0.9397,0,,,,,,,,,,,,,,,,,,,,,,,,0.119874132,-0.424548611,0,0,0,,,,,,,CANDY,HB,z,y,./images/CANDYHB.png,,,,,,,,,,,,,,,,,,,,m,0,0.9397,,,,,,,,0,114,114,123,1,
,,,,,,,,,,,,,,,,,5f2fc0f05b67073c177aaece,32,2022-02-12_11h25.23.964,lexical_decision_task_DD_L2,2021.2.3,MacIntel,60.0024001,,,,,,,,,,,,0.7144,1,,,,,,,,,,,,,,,,,,,,,,,,0.119874132,-0.424548611,0,0,0,,,,,,,FERRY,HB,z,y,./images/FERRYHB.png,,,,,,,,,,,,,,,,,,,,z,1,0.7144,,,,,,,,0,115,115,141,1,
,,,,,,,,,,,,,,,,,5f2fc0f05b67073c177aaece,32,2022-02-12_11h25.23.964,lexical_decision_task_DD_L2,2021.2.3,MacIntel,60.0024001,,,,,,,,,,,,0.9809,1,,,,,,,,,,,,,,,,,,,,,,,,0.119874132,-0.424548611,0,0,0,,,,,,,BASKET,C,z,y,./images/BASKET.png,,,,,,,,,,,,,,,,,,,,z,1,0.9809,,,,,,,,0,116,116,128,1,
,,,,,,,,,,,,,,,,,5f2fc0f05b67073c177aaece,32,2022-02-12_11h25.23.964,lexical_decision_task_DD_L2,2021.2.3,MacIntel,60.0024001,,,,,,,,,,,,0.8477,1,,,,,,,,,,,,,,,,,,,,,,,,0.119874132,-0.424548611,0,0,0,,,,,,,ENGINE,C,z,y,./images/ENGINE.png,,,,,,,,,,,,,,,,,,,,z,1,0.8477,,,,,,,,0,117,117,122,1,
,,,,,,,,,,,,,,,,,5f2fc0f05b67073c177aaece,32,2022-02-12_11h25.23.964,lexical_decision_task_DD_L2,2021.2.3,MacIntel,60.0024001,,,,,,,,,,,,0.7749,0,,,,,,,,,,,,,,,,,,,,,,,,0.119874132,-0.424548611,0,0,0,,,,,,,TOMATO,HB,m,y,./images/TOMATOHB.png,,,,,,,,,,,,,,,,,,,,z,0,0.7749,,,,,,,,0,118,118,0,1,
,,,,,,,,,,,,,,,,,5f2fc0f05b67073c177aaece,32,2022-02-12_11h25.23.964,lexical_decision_task_DD_L2,2021.2.3,MacIntel,60.0024001,,,,,,,,,,,,0.948,0,,,,,,,,,,,,,,,,,,,,,,,,0.119874132,-0.424548611,0,0,0,,,,,,,SUNSET,LB,m,y,./images/SUNSETLB.png,,,,,,,,,,,,,,,,,,,,z,0,0.948,,,,,,,,0,119,119,82,1,
,,,,,,,,,,,,,,,,,5f2fc0f05b67073c177aaece,32,2022-02-12_11h25.23.964,lexical_decision_task_DD_L2,2021.2.3,MacIntel,60.0024001,,,,,,,,,,,,0.6965,0,,,,,,,,,,,,,,,,,,,,,,,,0.119874132,-0.424548611,0,0,0,,,,,,,DONKEY,LB,z,y,./images/DONKEYLB.png,,,,,,,,,,,,,,,,,,,,m,0,0.6965,,,,,,,,0,120,120,103,1,
,,,,,,,,,,,,,,,,,5f2fc0f05b67073c177aaece,32,2022-02-12_11h25.23.964,lexical_decision_task_DD_L2,2021.2.3,MacIntel,60.0024001,,,,,,,,,,,,0.6083,1,,,,,,,,,,,,,,,,,,,,,,,,0.119874132,-0.424548611,0,0,0,,,,,,,SAUCE,HB,z,y,./images/SAUCEHB.png,,,,,,,,,,,,,,,,,,,,z,1,0.6083,,,,,,,,0,121,121,135,1,
,,,,,,,,,,,,,,,,,5f2fc0f05b67073c177aaece,32,2022-02-12_11h25.23.964,lexical_decision_task_DD_L2,2021.2.3,MacIntel,60.0024001,,,,,,,,,,,,0.6263,1,,,,,,,,,,,,,,,,,,,,,,,,0.119874132,-0.424548611,0,0,0,,,,,,,CARPET,C,m,y,./images/CARPET.png,,,,,,,,,,,,,,,,,,,,m,1,0.6263,,,,,,,,0,122,122,53,1,
,,,,,,,,,,,,,,,,,5f2fc0f05b67073c177aaece,32,2022-02-12_11h25.23.964,lexical_decision_task_DD_L2,2021.2.3,MacIntel,60.0024001,,,,,,,,,,,,0.9392,1,,,,,,,,,,,,,,,,,,,,,,,,0.119874132,-0.424548611,0,0,0,,,,,,,HAMMER,HB,z,y,./images/HAMMERHB.png,,,,,,,,,,,,,,,,,,,,z,1,0.9392,,,,,,,,0,123,123,159,1,
,,,,,,,,,,,,,,,,,5f2fc0f05b67073c177aaece,32,2022-02-12_11h25.23.964,lexical_decision_task_DD_L2,2021.2.3,MacIntel,60.0024001,,,,,,,,,,,,0.5301,1,,,,,,,,,,,,,,,,,,,,,,,,0.119874132,-0.424548611,0,0,0,,,,,,,FLASK,HB,z,y,./images/FLASKHB.png,,,,,,,,,,,,,,,,,,,,z,1,0.5301,,,,,,,,0,124,124,156,1,
,,,,,,,,,,,,,,,,,5f2fc0f05b67073c177aaece,32,2022-02-12_11h25.23.964,lexical_decision_task_DD_L2,2021.2.3,MacIntel,60.0024001,,,,,,,,,,,,1.1477,0,,,,,,,,,,,,,,,,,,,,,,,,0.119874132,-0.424548611,1,0,0,,,,,,,COUCH,C,m,y,./images/COUCH.png,,,,,,,,,,,,,,,,,,,,z,0,1.1477,,,,,,,,0,125,125,77,1,break_done_button
,,,,,,,,,,,,,,,,,5f2fc0f05b67073c177aaece,32,2022-02-12_11h25.23.964,lexical_decision_task_DD_L2,2021.2.3,MacIntel,60.0024001,,,,,,,,,,,,1.6872,1,,,,,,,,,,,,,,,,,,,,,,,,0.119874132,-0.424548611,0,0,0,,,,,,,CHALK,LB,z,y,./images/CHALKLB.png,,,,,,,,,,,,,,,,,,,,z,1,1.6872,,,,,,,,0,126,126,109,1,
,,,,,,,,,,,,,,,,,5f2fc0f05b67073c177aaece,32,2022-02-12_11h25.23.964,lexical_decision_task_DD_L2,2021.2.3,MacIntel,60.0024001,,,,,,,,,,,,0.8385,0,,,,,,,,,,,,,,,,,,,,,,,,0.119874132,-0.424548611,0,0,0,,,,,,,FALCON,LB,m,y,./images/FALCONLB.png,,,,,,,,,,,,,,,,,,,,z,0,0.8385,,,,,,,,0,127,127,28,1,
