key_resp.keys,key_resp.rt,instr_done_touch.x,instr_done_touch.y,instr_done_touch.leftButton,instr_done_touch.midButton,instr_done_touch.rightButton,instruction_pages.thisRepN,instruction_pages.thisTrialN,instruction_pages.thisN,instruction_pages.thisIndex,instruction_pages.ran,pageN,phase,instruct_text,has_image,instruct_image,participant,age,date,expName,psychopyVersion,OS,frameRate,response.keys,response.corr,response.rt,touch_resp.x,touch_resp.y,touch_resp.leftButton,touch_resp.midButton,touch_resp.rightButton,touch_resp.time,touch_resp.clicked_name,rt,corr,practrials.thisRepN,practrials.thisTrialN,practrials.thisN,practrials.thisIndex,practrials.ran,TrialID,Target,corrAns,end_of_practice_trials_pages.thisRepN,end_of_practice_trials_pages.thisTrialN,end_of_practice_trials_pages.thisN,end_of_practice_trials_pages.thisIndex,end_of_practice_trials_pages.ran,key_resp_2.keys,key_resp_2.corr,key_resp_2.rt,targ_click.x,targ_click.y,targ_click.leftButton,targ_click.midButton,targ_click.rightButton,targ_click.time,targ_click.clicked_name,break_done_touch.x,break_done_touch.y,break_done_touch.leftButton,break_done_touch.midButton,break_done_touch.rightButton,break_done_keyboard.keys,maintrials.thisRepN,maintrials.thisTrialN,maintrials.thisN,maintrials.thisIndex,maintrials.ran,string,blur,study,lex,stim_path,break_done_keyboard.rt,mouse_2.x,mouse_2.y,mouse_2.leftButton,mouse_2.midButton,mouse_2.rightButton,mouse_2.clicked_name,slider.response,slider.rt,trials.thisRepN,trials.thisTrialN,trials.thisN,trials.thisIndex,trials.ran,test_instructions.thisRepN,test_instructions.thisTrialN,test_instructions.thisN,test_instructions.thisIndex,test_instructions.ran,instr_done_touch.clicked_name,key_resp_3.keys,key_resp_3.corr,key_resp_3.rt,test_click.x,test_click.y,test_click.leftButton,test_click.midButton,test_click.rightButton,test_click.time,test_click.clicked_name,test_phase.thisRepN,test_phase.thisTrialN,test_phase.thisN,test_phase.thisIndex,test_phase.ran
space,266.819,0.454166667,-0.256944444,0,0,0,0,0,0,0,1,1,instructions,"INSTRUCTIONS
At the start of each trial, look at the plus sign  (+) in the center of the screen.  This tells you that a trial is about to begin and where to look. Second, the plus sign will disappear and a string of letters will appear. Your task is to determine if the string of letters is a word or not. If the item is a word press the M key (on keyboard)  or touch the word button (phone/tablet).  If the item is not a word,  press the  Z key (on keyboard)  or touch the nonword button (on phone/tablet). 
Press the space bar or touch  continue.",0,,5f5fc8153ba37c07caa9b45e,25,2022-02-12_16h49.34.359,lexical_decision_task_DD_L3,2021.2.3,Win32,60.09615385,,,,,,,,,,,,,,,,,,,,,,,,,,,,,,,,,,,,,,,,,,,,,,,,,,,,,,,,,,,,,,,,,,,,,,,,,,,,,,,,,,,,,,
space,6.681,0.454166667,-0.256944444,0,0,0,0,1,1,1,1,2,instructions,"If your device has a keyboard, press the 'Z' key for nonwords and the 'M' key for words.





Press the space bar or touch the button below to continue.",0,keyboard-example.gif,5f5fc8153ba37c07caa9b45e,25,2022-02-12_16h49.34.359,lexical_decision_task_DD_L3,2021.2.3,Win32,60.09615385,,,,,,,,,,,,,,,,,,,,,,,,,,,,,,,,,,,,,,,,,,,,,,,,,,,,,,,,,,,,,,,,,,,,,,,,,,,,,,,,,,,,,,
space,4.848,0.454166667,-0.256944444,0,0,0,0,2,2,2,1,3,instructions,"If you are using a touchscreen only device, use the buttons on the screen. Do not use the mouse.





Press the space bar or touch the button below to continue.",0,touchscreen-example.gif,5f5fc8153ba37c07caa9b45e,25,2022-02-12_16h49.34.359,lexical_decision_task_DD_L3,2021.2.3,Win32,60.09615385,,,,,,,,,,,,,,,,,,,,,,,,,,,,,,,,,,,,,,,,,,,,,,,,,,,,,,,,,,,,,,,,,,,,,,,,,,,,,,,,,,,,,,
space,11.719,0.454166667,-0.256944444,0,0,0,0,3,3,3,1,4,instructions,"It is very important that you respond as quickly and accurately as possible, as each letter string will only be on the screen for two seconds. If you do not respond within this time, the message 'Too slow!' will be displayed and the experiment will progress to the next letter string. The first 20 trials will be practice trials and you will receive feedback on your answers. 

Press the space bar or touch the button below to start the practice trials.",0,,5f5fc8153ba37c07caa9b45e,25,2022-02-12_16h49.34.359,lexical_decision_task_DD_L3,2021.2.3,Win32,60.09615385,,,,,,,,,,,,,,,,,,,,,,,,,,,,,,,,,,,,,,,,,,,,,,,,,,,,,,,,,,,,,,,,,,,,,,,,,,,,,,,,,,,,,,
,,,,,,,,,,,,,,,,,5f5fc8153ba37c07caa9b45e,25,2022-02-12_16h49.34.359,lexical_decision_task_DD_L3,2021.2.3,Win32,60.09615385,m,1,0.653,,,,,,,,0.653,1,0,0,0,6,1,1001,ZOMBIE,m,,,,,,,,,,,,,,,,,,,,,,,,,,,,,,,,,,,,,,,,,,,,,,,,,,,,,,,,,,,,,,,,,,
,,,,,,,,,,,,,,,,,5f5fc8153ba37c07caa9b45e,25,2022-02-12_16h49.34.359,lexical_decision_task_DD_L3,2021.2.3,Win32,60.09615385,m,1,0.482,,,,,,,,0.482,1,0,1,1,7,1,1001,VOLUME,m,,,,,,,,,,,,,,,,,,,,,,,,,,,,,,,,,,,,,,,,,,,,,,,,,,,,,,,,,,,,,,,,,,
,,,,,,,,,,,,,,,,,5f5fc8153ba37c07caa9b45e,25,2022-02-12_16h49.34.359,lexical_decision_task_DD_L3,2021.2.3,Win32,60.09615385,z,1,0.577,,,,,,,,0.577,1,0,2,2,12,1,1001,SPRINY,z,,,,,,,,,,,,,,,,,,,,,,,,,,,,,,,,,,,,,,,,,,,,,,,,,,,,,,,,,,,,,,,,,,
,,,,,,,,,,,,,,,,,5f5fc8153ba37c07caa9b45e,25,2022-02-12_16h49.34.359,lexical_decision_task_DD_L3,2021.2.3,Win32,60.09615385,m,1,0.485,,,,,,,,0.485,1,0,3,3,2,1,1001,ALMOND,m,,,,,,,,,,,,,,,,,,,,,,,,,,,,,,,,,,,,,,,,,,,,,,,,,,,,,,,,,,,,,,,,,,
,,,,,,,,,,,,,,,,,5f5fc8153ba37c07caa9b45e,25,2022-02-12_16h49.34.359,lexical_decision_task_DD_L3,2021.2.3,Win32,60.09615385,m,1,0.551,,,,,,,,0.551,1,0,4,4,1,1,1001,ADJUST,m,,,,,,,,,,,,,,,,,,,,,,,,,,,,,,,,,,,,,,,,,,,,,,,,,,,,,,,,,,,,,,,,,,
,,,,,,,,,,,,,,,,,5f5fc8153ba37c07caa9b45e,25,2022-02-12_16h49.34.359,lexical_decision_task_DD_L3,2021.2.3,Win32,60.09615385,z,1,0.583,,,,,,,,0.583,1,0,5,5,11,1,1001,RASHET,z,,,,,,,,,,,,,,,,,,,,,,,,,,,,,,,,,,,,,,,,,,,,,,,,,,,,,,,,,,,,,,,,,,
,,,,,,,,,,,,,,,,,5f5fc8153ba37c07caa9b45e,25,2022-02-12_16h49.34.359,lexical_decision_task_DD_L3,2021.2.3,Win32,60.09615385,z,1,0.518,,,,,,,,0.518,1,0,6,6,14,1,1001,THRALE,z,,,,,,,,,,,,,,,,,,,,,,,,,,,,,,,,,,,,,,,,,,,,,,,,,,,,,,,,,,,,,,,,,,
,,,,,,,,,,,,,,,,,5f5fc8153ba37c07caa9b45e,25,2022-02-12_16h49.34.359,lexical_decision_task_DD_L3,2021.2.3,Win32,60.09615385,z,1,0.699,,,,,,,,0.699,1,0,7,7,10,1,1001,INLADE,z,,,,,,,,,,,,,,,,,,,,,,,,,,,,,,,,,,,,,,,,,,,,,,,,,,,,,,,,,,,,,,,,,,
,,,,,,,,,,,,,,,,,5f5fc8153ba37c07caa9b45e,25,2022-02-12_16h49.34.359,lexical_decision_task_DD_L3,2021.2.3,Win32,60.09615385,m,1,0.653,,,,,,,,0.653,1,0,8,8,0,1,1001,UTOPIA,m,,,,,,,,,,,,,,,,,,,,,,,,,,,,,,,,,,,,,,,,,,,,,,,,,,,,,,,,,,,,,,,,,,
,,,,,,,,,,,,,,,,,5f5fc8153ba37c07caa9b45e,25,2022-02-12_16h49.34.359,lexical_decision_task_DD_L3,2021.2.3,Win32,60.09615385,z,1,0.621,,,,,,,,0.621,1,0,9,9,15,1,1001,WHAISE,z,,,,,,,,,,,,,,,,,,,,,,,,,,,,,,,,,,,,,,,,,,,,,,,,,,,,,,,,,,,,,,,,,,
,,,,,,,,,,,,,,,,,5f5fc8153ba37c07caa9b45e,25,2022-02-12_16h49.34.359,lexical_decision_task_DD_L3,2021.2.3,Win32,60.09615385,z,1,0.716,,,,,,,,0.716,1,0,10,10,13,1,1001,ROUPET,z,,,,,,,,,,,,,,,,,,,,,,,,,,,,,,,,,,,,,,,,,,,,,,,,,,,,,,,,,,,,,,,,,,
,,,,,,,,,,,,,,,,,5f5fc8153ba37c07caa9b45e,25,2022-02-12_16h49.34.359,lexical_decision_task_DD_L3,2021.2.3,Win32,60.09615385,z,1,0.597,,,,,,,,0.597,1,0,11,11,9,1,1001,FARINY,z,,,,,,,,,,,,,,,,,,,,,,,,,,,,,,,,,,,,,,,,,,,,,,,,,,,,,,,,,,,,,,,,,,
,,,,,,,,,,,,,,,,,5f5fc8153ba37c07caa9b45e,25,2022-02-12_16h49.34.359,lexical_decision_task_DD_L3,2021.2.3,Win32,60.09615385,z,1,0.687,,,,,,,,0.687,1,0,12,12,8,1,1001,ASLERT,z,,,,,,,,,,,,,,,,,,,,,,,,,,,,,,,,,,,,,,,,,,,,,,,,,,,,,,,,,,,,,,,,,,
,,,,,,,,,,,,,,,,,5f5fc8153ba37c07caa9b45e,25,2022-02-12_16h49.34.359,lexical_decision_task_DD_L3,2021.2.3,Win32,60.09615385,m,1,0.496,,,,,,,,0.496,1,0,13,13,3,1,1001,MATRIX,m,,,,,,,,,,,,,,,,,,,,,,,,,,,,,,,,,,,,,,,,,,,,,,,,,,,,,,,,,,,,,,,,,,
,,,,,,,,,,,,,,,,,5f5fc8153ba37c07caa9b45e,25,2022-02-12_16h49.34.359,lexical_decision_task_DD_L3,2021.2.3,Win32,60.09615385,m,1,0.523,,,,,,,,0.523,1,0,14,14,5,1,1001,OBTAIN,m,,,,,,,,,,,,,,,,,,,,,,,,,,,,,,,,,,,,,,,,,,,,,,,,,,,,,,,,,,,,,,,,,,
,,,,,,,,,,,,,,,,,5f5fc8153ba37c07caa9b45e,25,2022-02-12_16h49.34.359,lexical_decision_task_DD_L3,2021.2.3,Win32,60.09615385,m,1,0.511,,,,,,,,0.511,1,0,15,15,4,1,1001,SQUEAK,m,,,,,,,,,,,,,,,,,,,,,,,,,,,,,,,,,,,,,,,,,,,,,,,,,,,,,,,,,,,,,,,,,,
space,16.908,0.454166667,-0.256944444,0,0,0,,,,,,1,end_of_practice,"You have completed the practice trials. During the experimental trials, you will not receive feedback. 
Before you begin, please ensure that you are in a comfortable and quiet location and will not be disturbed for about 15 minutes, as we cannot use your data if you do not complete all the trials. 
 When you are ready to start the experimental trials, please press space or touch the button below.",,,5f5fc8153ba37c07caa9b45e,25,2022-02-12_16h49.34.359,lexical_decision_task_DD_L3,2021.2.3,Win32,60.09615385,,,,,,,,,,,,,,,,,,,,,0,0,0,0,1,,,,,,,,,,,,,,,,,,,,,,,,,,,,,,,,,,,,,,,,,,,,,,,,,,,,,,,,,,,,,
,,,,,,,,,,,,,,,,,5f5fc8153ba37c07caa9b45e,25,2022-02-12_16h49.34.359,lexical_decision_task_DD_L3,2021.2.3,Win32,60.09615385,,,,,,,,,,,0.645,1,,,,,,,,,,,,,,m,1,0.645,,,,,,,,0.454166667,-0.256944444,0,0,0,,0,0,0,24,1,SCREW,LB,old,m,./images/SCREWLB.png,,,,,,,,,,,,,,,,,,,,,,,,,,,,,,,,,,,
,,,,,,,,,,,,,,,,,5f5fc8153ba37c07caa9b45e,25,2022-02-12_16h49.34.359,lexical_decision_task_DD_L3,2021.2.3,Win32,60.09615385,,,,,,,,,,,0.522,0,,,,,,,,,,,,,,m,0,0.522,,,,,,,,0.454166667,-0.256944444,0,0,0,,0,1,1,116,1,BALGY,LB,old,z,./images/BALGYLB.png,,,,,,,,,,,,,,,,,,,,,,,,,,,,,,,,,,,
,,,,,,,,,,,,,,,,,5f5fc8153ba37c07caa9b45e,25,2022-02-12_16h49.34.359,lexical_decision_task_DD_L3,2021.2.3,Win32,60.09615385,,,,,,,,,,,0.57,1,,,,,,,,,,,,,,z,1,0.57,,,,,,,,0.454166667,-0.256944444,0,0,0,,0,2,2,86,1,AIFED,LB,old,z,./images/AIFEDLB.png,,,,,,,,,,,,,,,,,,,,,,,,,,,,,,,,,,,
,,,,,,,,,,,,,,,,,5f5fc8153ba37c07caa9b45e,25,2022-02-12_16h49.34.359,lexical_decision_task_DD_L3,2021.2.3,Win32,60.09615385,,,,,,,,,,,0.562,1,,,,,,,,,,,,,,m,1,0.562,,,,,,,,0.454166667,-0.256944444,0,0,0,,0,3,3,55,1,MUFFIN,C,old,m,./images/MUFFIN.png,,,,,,,,,,,,,,,,,,,,,,,,,,,,,,,,,,,
,,,,,,,,,,,,,,,,,5f5fc8153ba37c07caa9b45e,25,2022-02-12_16h49.34.359,lexical_decision_task_DD_L3,2021.2.3,Win32,60.09615385,,,,,,,,,,,0.531,1,,,,,,,,,,,,,,m,1,0.531,,,,,,,,0.454166667,-0.256944444,0,0,0,,0,4,4,67,1,SAILOR,C,old,m,./images/SAILOR.png,,,,,,,,,,,,,,,,,,,,,,,,,,,,,,,,,,,
,,,,,,,,,,,,,,,,,5f5fc8153ba37c07caa9b45e,25,2022-02-12_16h49.34.359,lexical_decision_task_DD_L3,2021.2.3,Win32,60.09615385,,,,,,,,,,,0.553,1,,,,,,,,,,,,,,z,1,0.553,,,,,,,,0.454166667,-0.256944444,0,0,0,,0,5,5,96,1,KEAMS,C,old,z,./images/KEAMS.png,,,,,,,,,,,,,,,,,,,,,,,,,,,,,,,,,,,
,,,,,,,,,,,,,,,,,5f5fc8153ba37c07caa9b45e,25,2022-02-12_16h49.34.359,lexical_decision_task_DD_L3,2021.2.3,Win32,60.09615385,,,,,,,,,,,0.634,0,,,,,,,,,,,,,,m,0,0.634,,,,,,,,0.454166667,-0.256944444,0,0,0,,0,6,6,141,1,PLEET,C,old,z,./images/PLEET.png,,,,,,,,,,,,,,,,,,,,,,,,,,,,,,,,,,,
,,,,,,,,,,,,,,,,,5f5fc8153ba37c07caa9b45e,25,2022-02-12_16h49.34.359,lexical_decision_task_DD_L3,2021.2.3,Win32,60.09615385,,,,,,,,,,,0.53,1,,,,,,,,,,,,,,m,1,0.53,,,,,,,,0.454166667,-0.256944444,0,0,0,,0,7,7,1,1,PLANK,C,old,m,./images/PLANK.png,,,,,,,,,,,,,,,,,,,,,,,,,,,,,,,,,,,
,,,,,,,,,,,,,,,,,5f5fc8153ba37c07caa9b45e,25,2022-02-12_16h49.34.359,lexical_decision_task_DD_L3,2021.2.3,Win32,60.09615385,,,,,,,,,,,0.497,1,,,,,,,,,,,,,,m,1,0.497,,,,,,,,0.454166667,-0.256944444,0,0,0,,0,8,8,82,1,SUNSET,C,old,m,./images/SUNSET.png,,,,,,,,,,,,,,,,,,,,,,,,,,,,,,,,,,,
,,,,,,,,,,,,,,,,,5f5fc8153ba37c07caa9b45e,25,2022-02-12_16h49.34.359,lexical_decision_task_DD_L3,2021.2.3,Win32,60.09615385,,,,,,,,,,,0.679,1,,,,,,,,,,,,,,z,1,0.679,,,,,,,,0.454166667,-0.256944444,0,0,0,,0,9,9,103,1,FLORT,HB,old,z,./images/FLORTHB.png,,,,,,,,,,,,,,,,,,,,,,,,,,,,,,,,,,,
,,,,,,,,,,,,,,,,,5f5fc8153ba37c07caa9b45e,25,2022-02-12_16h49.34.359,lexical_decision_task_DD_L3,2021.2.3,Win32,60.09615385,,,,,,,,,,,0.669,0,,,,,,,,,,,,,,m,0,0.669,,,,,,,,0.454166667,-0.256944444,0,0,0,,0,10,10,128,1,GRIFT,LB,old,z,./images/GRIFTLB.png,,,,,,,,,,,,,,,,,,,,,,,,,,,,,,,,,,,
,,,,,,,,,,,,,,,,,5f5fc8153ba37c07caa9b45e,25,2022-02-12_16h49.34.359,lexical_decision_task_DD_L3,2021.2.3,Win32,60.09615385,,,,,,,,,,,0.625,0,,,,,,,,,,,,,,m,0,0.625,,,,,,,,0.454166667,-0.256944444,0,0,0,,0,11,11,98,1,BAMPS,LB,old,z,./images/BAMPSLB.png,,,,,,,,,,,,,,,,,,,,,,,,,,,,,,,,,,,
,,,,,,,,,,,,,,,,,5f5fc8153ba37c07caa9b45e,25,2022-02-12_16h49.34.359,lexical_decision_task_DD_L3,2021.2.3,Win32,60.09615385,,,,,,,,,,,0.704,1,,,,,,,,,,,,,,m,1,0.704,,,,,,,,0.454166667,-0.256944444,0,0,0,,0,12,12,77,1,COUCH,HB,old,m,./images/COUCHHB.png,,,,,,,,,,,,,,,,,,,,,,,,,,,,,,,,,,,
,,,,,,,,,,,,,,,,,5f5fc8153ba37c07caa9b45e,25,2022-02-12_16h49.34.359,lexical_decision_task_DD_L3,2021.2.3,Win32,60.09615385,,,,,,,,,,,0.651,1,,,,,,,,,,,,,,z,1,0.651,,,,,,,,0.454166667,-0.256944444,0,0,0,,0,13,13,166,1,SHORY,HB,old,z,./images/SHORYHB.png,,,,,,,,,,,,,,,,,,,,,,,,,,,,,,,,,,,
,,,,,,,,,,,,,,,,,5f5fc8153ba37c07caa9b45e,25,2022-02-12_16h49.34.359,lexical_decision_task_DD_L3,2021.2.3,Win32,60.09615385,,,,,,,,,,,0.533,1,,,,,,,,,,,,,,m,1,0.533,,,,,,,,0.454166667,-0.256944444,0,0,0,,0,14,14,15,1,GREASE,LB,old,m,./images/GREASELB.png,,,,,,,,,,,,,,,,,,,,,,,,,,,,,,,,,,,
,,,,,,,,,,,,,,,,,5f5fc8153ba37c07caa9b45e,25,2022-02-12_16h49.34.359,lexical_decision_task_DD_L3,2021.2.3,Win32,60.09615385,,,,,,,,,,,0.503,1,,,,,,,,,,,,,,m,1,0.503,,,,,,,,0.454166667,-0.256944444,0,0,0,,0,15,15,46,1,PEARL,C,old,m,./images/PEARL.png,,,,,,,,,,,,,,,,,,,,,,,,,,,,,,,,,,,
,,,,,,,,,,,,,,,,,5f5fc8153ba37c07caa9b45e,25,2022-02-12_16h49.34.359,lexical_decision_task_DD_L3,2021.2.3,Win32,60.09615385,,,,,,,,,,,0.539,1,,,,,,,,,,,,,,m,1,0.539,,,,,,,,0.454166667,-0.256944444,0,0,0,,0,16,16,57,1,MOOSE,LB,old,m,./images/MOOSELB.png,,,,,,,,,,,,,,,,,,,,,,,,,,,,,,,,,,,
,,,,,,,,,,,,,,,,,5f5fc8153ba37c07caa9b45e,25,2022-02-12_16h49.34.359,lexical_decision_task_DD_L3,2021.2.3,Win32,60.09615385,,,,,,,,,,,0.619,1,,,,,,,,,,,,,,m,1,0.619,,,,,,,,0.454166667,-0.256944444,0,0,0,,0,17,17,83,1,JUNGLE,HB,old,m,./images/JUNGLEHB.png,,,,,,,,,,,,,,,,,,,,,,,,,,,,,,,,,,,
,,,,,,,,,,,,,,,,,5f5fc8153ba37c07caa9b45e,25,2022-02-12_16h49.34.359,lexical_decision_task_DD_L3,2021.2.3,Win32,60.09615385,,,,,,,,,,,0.632,1,,,,,,,,,,,,,,z,1,0.632,,,,,,,,0.454166667,-0.256944444,0,0,0,,0,18,18,85,1,CHULK,HB,old,z,./images/CHULKHB.png,,,,,,,,,,,,,,,,,,,,,,,,,,,,,,,,,,,
,,,,,,,,,,,,,,,,,5f5fc8153ba37c07caa9b45e,25,2022-02-12_16h49.34.359,lexical_decision_task_DD_L3,2021.2.3,Win32,60.09615385,,,,,,,,,,,0.695,1,,,,,,,,,,,,,,m,1,0.695,,,,,,,,0.454166667,-0.256944444,0,0,0,,0,19,19,2,1,BEARD,HB,old,m,./images/BEARDHB.png,,,,,,,,,,,,,,,,,,,,,,,,,,,,,,,,,,,
,,,,,,,,,,,,,,,,,5f5fc8153ba37c07caa9b45e,25,2022-02-12_16h49.34.359,lexical_decision_task_DD_L3,2021.2.3,Win32,60.09615385,,,,,,,,,,,0.73,1,,,,,,,,,,,,,,z,1,0.73,,,,,,,,0.454166667,-0.256944444,0,0,0,,0,20,20,95,1,HANTY,LB,old,z,./images/HANTYLB.png,,,,,,,,,,,,,,,,,,,,,,,,,,,,,,,,,,,
,,,,,,,,,,,,,,,,,5f5fc8153ba37c07caa9b45e,25,2022-02-12_16h49.34.359,lexical_decision_task_DD_L3,2021.2.3,Win32,60.09615385,,,,,,,,,,,0.622,1,,,,,,,,,,,,,,z,1,0.622,,,,,,,,0.454166667,-0.256944444,0,0,0,,0,21,21,125,1,MOOKY,LB,old,z,./images/MOOKYLB.png,,,,,,,,,,,,,,,,,,,,,,,,,,,,,,,,,,,
,,,,,,,,,,,,,,,,,5f5fc8153ba37c07caa9b45e,25,2022-02-12_16h49.34.359,lexical_decision_task_DD_L3,2021.2.3,Win32,60.09615385,,,,,,,,,,,0.601,1,,,,,,,,,,,,,,z,1,0.601,,,,,,,,0.454166667,-0.256944444,0,0,0,,0,22,22,113,1,LINEW,LB,old,z,./images/LINEWLB.png,,,,,,,,,,,,,,,,,,,,,,,,,,,,,,,,,,,
,,,,,,,,,,,,,,,,,5f5fc8153ba37c07caa9b45e,25,2022-02-12_16h49.34.359,lexical_decision_task_DD_L3,2021.2.3,Win32,60.09615385,,,,,,,,,,,0.646,1,,,,,,,,,,,,,,m,1,0.646,,,,,,,,0.454166667,-0.256944444,0,0,0,,0,23,23,53,1,CARPET,HB,old,m,./images/CARPETHB.png,,,,,,,,,,,,,,,,,,,,,,,,,,,,,,,,,,,
,,,,,,,,,,,,,,,,,5f5fc8153ba37c07caa9b45e,25,2022-02-12_16h49.34.359,lexical_decision_task_DD_L3,2021.2.3,Win32,60.09615385,,,,,,,,,,,0.687,0,,,,,,,,,,,,,,z,0,0.687,,,,,,,,0.454166667,-0.256944444,0,0,0,,0,24,24,56,1,PACKET,HB,old,m,./images/PACKETHB.png,,,,,,,,,,,,,,,,,,,,,,,,,,,,,,,,,,,
,,,,,,,,,,,,,,,,,5f5fc8153ba37c07caa9b45e,25,2022-02-12_16h49.34.359,lexical_decision_task_DD_L3,2021.2.3,Win32,60.09615385,,,,,,,,,,,0.583,1,,,,,,,,,,,,,,m,1,0.583,,,,,,,,0.454166667,-0.256944444,0,0,0,,0,25,25,64,1,JELLY,C,old,m,./images/JELLY.png,,,,,,,,,,,,,,,,,,,,,,,,,,,,,,,,,,,
,,,,,,,,,,,,,,,,,5f5fc8153ba37c07caa9b45e,25,2022-02-12_16h49.34.359,lexical_decision_task_DD_L3,2021.2.3,Win32,60.09615385,,,,,,,,,,,0.555,1,,,,,,,,,,,,,,z,1,0.555,,,,,,,,0.454166667,-0.256944444,0,0,0,,0,26,26,158,1,EGECT,LB,old,z,./images/EGECTLB.png,,,,,,,,,,,,,,,,,,,,,,,,,,,,,,,,,,,
,,,,,,,,,,,,,,,,,5f5fc8153ba37c07caa9b45e,25,2022-02-12_16h49.34.359,lexical_decision_task_DD_L3,2021.2.3,Win32,60.09615385,,,,,,,,,,,0.699,1,,,,,,,,,,,,,,z,1,0.699,,,,,,,,0.454166667,-0.256944444,0,0,0,,0,27,27,91,1,SHENS,HB,old,z,./images/SHENSHB.png,,,,,,,,,,,,,,,,,,,,,,,,,,,,,,,,,,,
,,,,,,,,,,,,,,,,,5f5fc8153ba37c07caa9b45e,25,2022-02-12_16h49.34.359,lexical_decision_task_DD_L3,2021.2.3,Win32,60.09615385,,,,,,,,,,,0.625,1,,,,,,,,,,,,,,z,1,0.625,,,,,,,,0.454166667,-0.256944444,0,0,0,,0,28,28,155,1,CANGY,LB,old,z,./images/CANGYLB.png,,,,,,,,,,,,,,,,,,,,,,,,,,,,,,,,,,,
,,,,,,,,,,,,,,,,,5f5fc8153ba37c07caa9b45e,25,2022-02-12_16h49.34.359,lexical_decision_task_DD_L3,2021.2.3,Win32,60.09615385,,,,,,,,,,,0.504,1,,,,,,,,,,,,,,m,1,0.504,,,,,,,,0.454166667,-0.256944444,0,0,0,,0,29,29,3,1,FINGER,LB,old,m,./images/FINGERLB.png,,,,,,,,,,,,,,,,,,,,,,,,,,,,,,,,,,,
,,,,,,,,,,,,,,,,,5f5fc8153ba37c07caa9b45e,25,2022-02-12_16h49.34.359,lexical_decision_task_DD_L3,2021.2.3,Win32,60.09615385,,,,,,,,,,,0.62,1,,,,,,,,,,,,,,m,1,0.62,,,,,,,,0.454166667,-0.256944444,0,0,0,,0,30,30,21,1,KIDNEY,LB,old,m,./images/KIDNEYLB.png,,,,,,,,,,,,,,,,,,,,,,,,,,,,,,,,,,,
,,,,,,,,,,,,,,,,,5f5fc8153ba37c07caa9b45e,25,2022-02-12_16h49.34.359,lexical_decision_task_DD_L3,2021.2.3,Win32,60.09615385,,,,,,,,,,,0.569,1,,,,,,,,,,,,,,m,1,0.569,,,,,,,,0.454166667,-0.256944444,0,0,0,,0,31,31,69,1,COOKER,LB,old,m,./images/COOKERLB.png,,,,,,,,,,,,,,,,,,,,,,,,,,,,,,,,,,,
,,,,,,,,,,,,,,,,,5f5fc8153ba37c07caa9b45e,25,2022-02-12_16h49.34.359,lexical_decision_task_DD_L3,2021.2.3,Win32,60.09615385,,,,,,,,,,,0.817,1,,,,,,,,,,,,,,m,1,0.817,,,,,,,,0.454166667,-0.256944444,0,0,0,,0,32,32,71,1,PIMPLE,HB,old,m,./images/PIMPLEHB.png,,,,,,,,,,,,,,,,,,,,,,,,,,,,,,,,,,,
,,,,,,,,,,,,,,,,,5f5fc8153ba37c07caa9b45e,25,2022-02-12_16h49.34.359,lexical_decision_task_DD_L3,2021.2.3,Win32,60.09615385,,,,,,,,,,,0.564,1,,,,,,,,,,,,,,m,1,0.564,,,,,,,,0.454166667,-0.256944444,0,0,0,,0,33,33,37,1,BIRTH,C,old,m,./images/BIRTH.png,,,,,,,,,,,,,,,,,,,,,,,,,,,,,,,,,,,
,,,,,,,,,,,,,,,,,5f5fc8153ba37c07caa9b45e,25,2022-02-12_16h49.34.359,lexical_decision_task_DD_L3,2021.2.3,Win32,60.09615385,,,,,,,,,,,0.659,1,,,,,,,,,,,,,,m,1,0.659,,,,,,,,0.454166667,-0.256944444,0,0,0,,0,34,34,8,1,TULIP,HB,old,m,./images/TULIPHB.png,,,,,,,,,,,,,,,,,,,,,,,,,,,,,,,,,,,
,,,,,,,,,,,,,,,,,5f5fc8153ba37c07caa9b45e,25,2022-02-12_16h49.34.359,lexical_decision_task_DD_L3,2021.2.3,Win32,60.09615385,,,,,,,,,,,0.492,1,,,,,,,,,,,,,,m,1,0.492,,,,,,,,0.454166667,-0.256944444,0,0,0,,0,35,35,7,1,PAINT,C,old,m,./images/PAINT.png,,,,,,,,,,,,,,,,,,,,,,,,,,,,,,,,,,,
,,,,,,,,,,,,,,,,,5f5fc8153ba37c07caa9b45e,25,2022-02-12_16h49.34.359,lexical_decision_task_DD_L3,2021.2.3,Win32,60.09615385,,,,,,,,,,,0.639,0,,,,,,,,,,,,,,z,0,0.639,,,,,,,,0.454166667,-0.256944444,0,0,0,,0,36,36,72,1,NOOSE,LB,old,m,./images/NOOSELB.png,,,,,,,,,,,,,,,,,,,,,,,,,,,,,,,,,,,
,,,,,,,,,,,,,,,,,5f5fc8153ba37c07caa9b45e,25,2022-02-12_16h49.34.359,lexical_decision_task_DD_L3,2021.2.3,Win32,60.09615385,,,,,,,,,,,0.58,1,,,,,,,,,,,,,,z,1,0.58,,,,,,,,0.454166667,-0.256944444,0,0,0,,0,37,37,99,1,BACKY,C,old,z,./images/BACKY.png,,,,,,,,,,,,,,,,,,,,,,,,,,,,,,,,,,,
,,,,,,,,,,,,,,,,,5f5fc8153ba37c07caa9b45e,25,2022-02-12_16h49.34.359,lexical_decision_task_DD_L3,2021.2.3,Win32,60.09615385,,,,,,,,,,,0.607,1,,,,,,,,,,,,,,m,1,0.607,,,,,,,,0.454166667,-0.256944444,0,0,0,,0,38,38,58,1,BABOON,C,old,m,./images/BABOON.png,,,,,,,,,,,,,,,,,,,,,,,,,,,,,,,,,,,
,,,,,,,,,,,,,,,,,5f5fc8153ba37c07caa9b45e,25,2022-02-12_16h49.34.359,lexical_decision_task_DD_L3,2021.2.3,Win32,60.09615385,,,,,,,,,,,0.549,1,,,,,,,,,,,,,,m,1,0.549,,,,,,,,0.454166667,-0.256944444,0,0,0,,0,39,39,19,1,DOUGH,C,old,m,./images/DOUGH.png,,,,,,,,,,,,,,,,,,,,,,,,,,,,,,,,,,,
,,,,,,,,,,,,,,,,,5f5fc8153ba37c07caa9b45e,25,2022-02-12_16h49.34.359,lexical_decision_task_DD_L3,2021.2.3,Win32,60.09615385,,,,,,,,,,,0.72,1,,,,,,,,,,,,,,m,1,0.72,,,,,,,,0.454166667,-0.256944444,0,0,0,,0,40,40,44,1,LIZARD,HB,old,m,./images/LIZARDHB.png,,,,,,,,,,,,,,,,,,,,,,,,,,,,,,,,,,,
,,,,,,,,,,,,,,,,,5f5fc8153ba37c07caa9b45e,25,2022-02-12_16h49.34.359,lexical_decision_task_DD_L3,2021.2.3,Win32,60.09615385,,,,,,,,,,,0.531,1,,,,,,,,,,,,,,m,1,0.531,,,,,,,,0.454166667,-0.256944444,0,0,0,space,0,41,41,42,1,FOLDER,LB,old,m,./images/FOLDERLB.png,17.156,,,,,,,,,,,,,,,,,,,,,,,,,,,,,,,,,,
,,,,,,,,,,,,,,,,,5f5fc8153ba37c07caa9b45e,25,2022-02-12_16h49.34.359,lexical_decision_task_DD_L3,2021.2.3,Win32,60.09615385,,,,,,,,,,,0.693,1,,,,,,,,,,,,,,m,1,0.693,,,,,,,,0.454166667,-0.256944444,0,0,0,,0,42,42,14,1,PICKLE,HB,old,m,./images/PICKLEHB.png,,,,,,,,,,,,,,,,,,,,,,,,,,,,,,,,,,,
,,,,,,,,,,,,,,,,,5f5fc8153ba37c07caa9b45e,25,2022-02-12_16h49.34.359,lexical_decision_task_DD_L3,2021.2.3,Win32,60.09615385,,,,,,,,,,,0.46,1,,,,,,,,,,,,,,m,1,0.46,,,,,,,,0.454166667,-0.256944444,0,0,0,,0,43,43,13,1,MOTOR,C,old,m,./images/MOTOR.png,,,,,,,,,,,,,,,,,,,,,,,,,,,,,,,,,,,
,,,,,,,,,,,,,,,,,5f5fc8153ba37c07caa9b45e,25,2022-02-12_16h49.34.359,lexical_decision_task_DD_L3,2021.2.3,Win32,60.09615385,,,,,,,,,,,0.746,0,,,,,,,,,,,,,,m,0,0.746,,,,,,,,0.454166667,-0.256944444,0,0,0,,0,44,44,127,1,NINDY,HB,old,z,./images/NINDYHB.png,,,,,,,,,,,,,,,,,,,,,,,,,,,,,,,,,,,
,,,,,,,,,,,,,,,,,5f5fc8153ba37c07caa9b45e,25,2022-02-12_16h49.34.359,lexical_decision_task_DD_L3,2021.2.3,Win32,60.09615385,,,,,,,,,,,0.668,1,,,,,,,,,,,,,,z,1,0.668,,,,,,,,0.454166667,-0.256944444,0,0,0,,0,45,45,105,1,MOKER,C,old,z,./images/MOKER.png,,,,,,,,,,,,,,,,,,,,,,,,,,,,,,,,,,,
,,,,,,,,,,,,,,,,,5f5fc8153ba37c07caa9b45e,25,2022-02-12_16h49.34.359,lexical_decision_task_DD_L3,2021.2.3,Win32,60.09615385,,,,,,,,,,,0.547,1,,,,,,,,,,,,,,m,1,0.547,,,,,,,,0.454166667,-0.256944444,0,0,0,,0,46,46,12,1,SHORE,LB,old,m,./images/SHORELB.png,,,,,,,,,,,,,,,,,,,,,,,,,,,,,,,,,,,
,,,,,,,,,,,,,,,,,5f5fc8153ba37c07caa9b45e,25,2022-02-12_16h49.34.359,lexical_decision_task_DD_L3,2021.2.3,Win32,60.09615385,,,,,,,,,,,0.702,1,,,,,,,,,,,,,,z,1,0.702,,,,,,,,0.454166667,-0.256944444,0,0,0,,0,47,47,149,1,VEASE,LB,old,z,./images/VEASELB.png,,,,,,,,,,,,,,,,,,,,,,,,,,,,,,,,,,,
,,,,,,,,,,,,,,,,,5f5fc8153ba37c07caa9b45e,25,2022-02-12_16h49.34.359,lexical_decision_task_DD_L3,2021.2.3,Win32,60.09615385,,,,,,,,,,,0.528,1,,,,,,,,,,,,,,m,1,0.528,,,,,,,,0.454166667,-0.256944444,0,0,0,,0,48,48,75,1,GRAIN,LB,old,m,./images/GRAINLB.png,,,,,,,,,,,,,,,,,,,,,,,,,,,,,,,,,,,
,,,,,,,,,,,,,,,,,5f5fc8153ba37c07caa9b45e,25,2022-02-12_16h49.34.359,lexical_decision_task_DD_L3,2021.2.3,Win32,60.09615385,,,,,,,,,,,0.481,1,,,,,,,,,,,,,,m,1,0.481,,,,,,,,0.454166667,-0.256944444,0,0,0,,0,49,49,73,1,SNACK,C,old,m,./images/SNACK.png,,,,,,,,,,,,,,,,,,,,,,,,,,,,,,,,,,,
,,,,,,,,,,,,,,,,,5f5fc8153ba37c07caa9b45e,25,2022-02-12_16h49.34.359,lexical_decision_task_DD_L3,2021.2.3,Win32,60.09615385,,,,,,,,,,,0.525,1,,,,,,,,,,,,,,m,1,0.525,,,,,,,,0.454166667,-0.256944444,0,0,0,,0,50,50,78,1,LITTER,LB,old,m,./images/LITTERLB.png,,,,,,,,,,,,,,,,,,,,,,,,,,,,,,,,,,,
,,,,,,,,,,,,,,,,,5f5fc8153ba37c07caa9b45e,25,2022-02-12_16h49.34.359,lexical_decision_task_DD_L3,2021.2.3,Win32,60.09615385,,,,,,,,,,,0.573,1,,,,,,,,,,,,,,z,1,0.573,,,,,,,,0.454166667,-0.256944444,0,0,0,,0,51,51,102,1,DULLE,C,old,z,./images/DULLE.png,,,,,,,,,,,,,,,,,,,,,,,,,,,,,,,,,,,
,,,,,,,,,,,,,,,,,5f5fc8153ba37c07caa9b45e,25,2022-02-12_16h49.34.359,lexical_decision_task_DD_L3,2021.2.3,Win32,60.09615385,,,,,,,,,,,0.691,1,,,,,,,,,,,,,,z,1,0.691,,,,,,,,0.454166667,-0.256944444,0,0,0,,0,52,52,121,1,CEERS,HB,old,z,./images/CEERSHB.png,,,,,,,,,,,,,,,,,,,,,,,,,,,,,,,,,,,
,,,,,,,,,,,,,,,,,5f5fc8153ba37c07caa9b45e,25,2022-02-12_16h49.34.359,lexical_decision_task_DD_L3,2021.2.3,Win32,60.09615385,,,,,,,,,,,0.669,1,,,,,,,,,,,,,,z,1,0.669,,,,,,,,0.454166667,-0.256944444,0,0,0,,0,53,53,106,1,CLUMS,HB,old,z,./images/CLUMSHB.png,,,,,,,,,,,,,,,,,,,,,,,,,,,,,,,,,,,
,,,,,,,,,,,,,,,,,5f5fc8153ba37c07caa9b45e,25,2022-02-12_16h49.34.359,lexical_decision_task_DD_L3,2021.2.3,Win32,60.09615385,,,,,,,,,,,0.548,1,,,,,,,,,,,,,,m,1,0.548,,,,,,,,0.454166667,-0.256944444,0,0,0,,0,54,54,54,1,TRIPOD,LB,old,m,./images/TRIPODLB.png,,,,,,,,,,,,,,,,,,,,,,,,,,,,,,,,,,,
,,,,,,,,,,,,,,,,,5f5fc8153ba37c07caa9b45e,25,2022-02-12_16h49.34.359,lexical_decision_task_DD_L3,2021.2.3,Win32,60.09615385,,,,,,,,,,,0.575,1,,,,,,,,,,,,,,z,1,0.575,,,,,,,,0.454166667,-0.256944444,0,0,0,,0,55,55,111,1,HOSSE,C,old,z,./images/HOSSE.png,,,,,,,,,,,,,,,,,,,,,,,,,,,,,,,,,,,
,,,,,,,,,,,,,,,,,5f5fc8153ba37c07caa9b45e,25,2022-02-12_16h49.34.359,lexical_decision_task_DD_L3,2021.2.3,Win32,60.09615385,,,,,,,,,,,0.524,0,,,,,,,,,,,,,,z,0,0.524,,,,,,,,0.454166667,-0.256944444,0,0,0,,0,56,56,52,1,BANNER,C,old,m,./images/BANNER.png,,,,,,,,,,,,,,,,,,,,,,,,,,,,,,,,,,,
,,,,,,,,,,,,,,,,,5f5fc8153ba37c07caa9b45e,25,2022-02-12_16h49.34.359,lexical_decision_task_DD_L3,2021.2.3,Win32,60.09615385,,,,,,,,,,,0.721,1,,,,,,,,,,,,,,z,1,0.721,,,,,,,,0.454166667,-0.256944444,0,0,0,,0,57,57,94,1,BLANS,HB,old,z,./images/BLANSHB.png,,,,,,,,,,,,,,,,,,,,,,,,,,,,,,,,,,,
,,,,,,,,,,,,,,,,,5f5fc8153ba37c07caa9b45e,25,2022-02-12_16h49.34.359,lexical_decision_task_DD_L3,2021.2.3,Win32,60.09615385,,,,,,,,,,,0.604,1,,,,,,,,,,,,,,z,1,0.604,,,,,,,,0.454166667,-0.256944444,0,0,0,,0,58,58,122,1,BLOOT,LB,old,z,./images/BLOOTLB.png,,,,,,,,,,,,,,,,,,,,,,,,,,,,,,,,,,,
,,,,,,,,,,,,,,,,,5f5fc8153ba37c07caa9b45e,25,2022-02-12_16h49.34.359,lexical_decision_task_DD_L3,2021.2.3,Win32,60.09615385,,,,,,,,,,,0.667,1,,,,,,,,,,,,,,m,1,0.667,,,,,,,,0.454166667,-0.256944444,0,0,0,,0,59,59,31,1,QUILL,C,old,m,./images/QUILL.png,,,,,,,,,,,,,,,,,,,,,,,,,,,,,,,,,,,
,,,,,,,,,,,,,,,,,5f5fc8153ba37c07caa9b45e,25,2022-02-12_16h49.34.359,lexical_decision_task_DD_L3,2021.2.3,Win32,60.09615385,,,,,,,,,,,0.629,1,,,,,,,,,,,,,,z,1,0.629,,,,,,,,0.454166667,-0.256944444,0,0,0,,0,60,60,132,1,SCIFF,C,old,z,./images/SCIFF.png,,,,,,,,,,,,,,,,,,,,,,,,,,,,,,,,,,,
,,,,,,,,,,,,,,,,,5f5fc8153ba37c07caa9b45e,25,2022-02-12_16h49.34.359,lexical_decision_task_DD_L3,2021.2.3,Win32,60.09615385,,,,,,,,,,,0.729,1,,,,,,,,,,,,,,m,1,0.729,,,,,,,,0.454166667,-0.256944444,0,0,0,,0,61,61,59,1,BURIAL,HB,old,m,./images/BURIALHB.png,,,,,,,,,,,,,,,,,,,,,,,,,,,,,,,,,,,
,,,,,,,,,,,,,,,,,5f5fc8153ba37c07caa9b45e,25,2022-02-12_16h49.34.359,lexical_decision_task_DD_L3,2021.2.3,Win32,60.09615385,,,,,,,,,,,0.765,1,,,,,,,,,,,,,,m,1,0.765,,,,,,,,0.454166667,-0.256944444,0,0,0,,0,62,62,74,1,CEMENT,HB,old,m,./images/CEMENTHB.png,,,,,,,,,,,,,,,,,,,,,,,,,,,,,,,,,,,
,,,,,,,,,,,,,,,,,5f5fc8153ba37c07caa9b45e,25,2022-02-12_16h49.34.359,lexical_decision_task_DD_L3,2021.2.3,Win32,60.09615385,,,,,,,,,,,0.539,1,,,,,,,,,,,,,,m,1,0.539,,,,,,,,0.454166667,-0.256944444,0,0,0,,0,63,63,28,1,FALCON,C,old,m,./images/FALCON.png,,,,,,,,,,,,,,,,,,,,,,,,,,,,,,,,,,,
,,,,,,,,,,,,,,,,,5f5fc8153ba37c07caa9b45e,25,2022-02-12_16h49.34.359,lexical_decision_task_DD_L3,2021.2.3,Win32,60.09615385,,,,,,,,,,,0.522,1,,,,,,,,,,,,,,z,1,0.522,,,,,,,,0.454166667,-0.256944444,0,0,0,,0,64,64,117,1,STEEG,C,old,z,./images/STEEG.png,,,,,,,,,,,,,,,,,,,,,,,,,,,,,,,,,,,
,,,,,,,,,,,,,,,,,5f5fc8153ba37c07caa9b45e,25,2022-02-12_16h49.34.359,lexical_decision_task_DD_L3,2021.2.3,Win32,60.09615385,,,,,,,,,,,0.592,1,,,,,,,,,,,,,,z,1,0.592,,,,,,,,0.454166667,-0.256944444,0,0,0,,0,65,65,120,1,RINED,C,old,z,./images/RINED.png,,,,,,,,,,,,,,,,,,,,,,,,,,,,,,,,,,,
,,,,,,,,,,,,,,,,,5f5fc8153ba37c07caa9b45e,25,2022-02-12_16h49.34.359,lexical_decision_task_DD_L3,2021.2.3,Win32,60.09615385,,,,,,,,,,,0.654,1,,,,,,,,,,,,,,z,1,0.654,,,,,,,,0.454166667,-0.256944444,0,0,0,,0,66,66,130,1,CRILL,HB,old,z,./images/CRILLHB.png,,,,,,,,,,,,,,,,,,,,,,,,,,,,,,,,,,,
,,,,,,,,,,,,,,,,,5f5fc8153ba37c07caa9b45e,25,2022-02-12_16h49.34.359,lexical_decision_task_DD_L3,2021.2.3,Win32,60.09615385,,,,,,,,,,,0.496,1,,,,,,,,,,,,,,m,1,0.496,,,,,,,,0.454166667,-0.256944444,0,0,0,,0,67,67,66,1,SWEAT,LB,old,m,./images/SWEATLB.png,,,,,,,,,,,,,,,,,,,,,,,,,,,,,,,,,,,
,,,,,,,,,,,,,,,,,5f5fc8153ba37c07caa9b45e,25,2022-02-12_16h49.34.359,lexical_decision_task_DD_L3,2021.2.3,Win32,60.09615385,,,,,,,,,,,0.639,1,,,,,,,,,,,,,,z,1,0.639,,,,,,,,0.454166667,-0.256944444,0,0,0,,0,68,68,165,1,TROWN,C,old,z,./images/TROWN.png,,,,,,,,,,,,,,,,,,,,,,,,,,,,,,,,,,,
,,,,,,,,,,,,,,,,,5f5fc8153ba37c07caa9b45e,25,2022-02-12_16h49.34.359,lexical_decision_task_DD_L3,2021.2.3,Win32,60.09615385,,,,,,,,,,,0.771,1,,,,,,,,,,,,,,z,1,0.771,,,,,,,,0.454166667,-0.256944444,0,0,0,,0,69,69,151,1,TINKY,HB,old,z,./images/TINKYHB.png,,,,,,,,,,,,,,,,,,,,,,,,,,,,,,,,,,,
,,,,,,,,,,,,,,,,,5f5fc8153ba37c07caa9b45e,25,2022-02-12_16h49.34.359,lexical_decision_task_DD_L3,2021.2.3,Win32,60.09615385,,,,,,,,,,,0.537,1,,,,,,,,,,,,,,m,1,0.537,,,,,,,,0.454166667,-0.256944444,0,0,0,,0,70,70,62,1,PURSE,HB,old,m,./images/PURSEHB.png,,,,,,,,,,,,,,,,,,,,,,,,,,,,,,,,,,,
,,,,,,,,,,,,,,,,,5f5fc8153ba37c07caa9b45e,25,2022-02-12_16h49.34.359,lexical_decision_task_DD_L3,2021.2.3,Win32,60.09615385,,,,,,,,,,,0.573,1,,,,,,,,,,,,,,m,1,0.573,,,,,,,,0.454166667,-0.256944444,0,0,0,,0,71,71,5,1,PASTA,HB,old,m,./images/PASTAHB.png,,,,,,,,,,,,,,,,,,,,,,,,,,,,,,,,,,,
,,,,,,,,,,,,,,,,,5f5fc8153ba37c07caa9b45e,25,2022-02-12_16h49.34.359,lexical_decision_task_DD_L3,2021.2.3,Win32,60.09615385,,,,,,,,,,,0.506,1,,,,,,,,,,,,,,m,1,0.506,,,,,,,,0.454166667,-0.256944444,0,0,0,,0,72,72,48,1,SPORT,LB,old,m,./images/SPORTLB.png,,,,,,,,,,,,,,,,,,,,,,,,,,,,,,,,,,,
,,,,,,,,,,,,,,,,,5f5fc8153ba37c07caa9b45e,25,2022-02-12_16h49.34.359,lexical_decision_task_DD_L3,2021.2.3,Win32,60.09615385,,,,,,,,,,,0.552,1,,,,,,,,,,,,,,m,1,0.552,,,,,,,,0.454166667,-0.256944444,0,0,0,,0,73,73,76,1,INFANT,C,old,m,./images/INFANT.png,,,,,,,,,,,,,,,,,,,,,,,,,,,,,,,,,,,
,,,,,,,,,,,,,,,,,5f5fc8153ba37c07caa9b45e,25,2022-02-12_16h49.34.359,lexical_decision_task_DD_L3,2021.2.3,Win32,60.09615385,,,,,,,,,,,0.584,0,,,,,,,,,,,,,,z,0,0.584,,,,,,,,0.454166667,-0.256944444,0,0,0,,0,74,74,34,1,CANYON,C,old,m,./images/CANYON.png,,,,,,,,,,,,,,,,,,,,,,,,,,,,,,,,,,,
,,,,,,,,,,,,,,,,,5f5fc8153ba37c07caa9b45e,25,2022-02-12_16h49.34.359,lexical_decision_task_DD_L3,2021.2.3,Win32,60.09615385,,,,,,,,,,,0.627,1,,,,,,,,,,,,,,m,1,0.627,,,,,,,,0.454166667,-0.256944444,0,0,0,,0,75,75,10,1,BELLY,C,old,m,./images/BELLY.png,,,,,,,,,,,,,,,,,,,,,,,,,,,,,,,,,,,
,,,,,,,,,,,,,,,,,5f5fc8153ba37c07caa9b45e,25,2022-02-12_16h49.34.359,lexical_decision_task_DD_L3,2021.2.3,Win32,60.09615385,,,,,,,,,,,0.636,1,,,,,,,,,,,,,,z,1,0.636,,,,,,,,0.454166667,-0.256944444,0,0,0,,0,76,76,167,1,ZONET,LB,old,z,./images/ZONETLB.png,,,,,,,,,,,,,,,,,,,,,,,,,,,,,,,,,,,
,,,,,,,,,,,,,,,,,5f5fc8153ba37c07caa9b45e,25,2022-02-12_16h49.34.359,lexical_decision_task_DD_L3,2021.2.3,Win32,60.09615385,,,,,,,,,,,1.267,1,,,,,,,,,,,,,,z,1,1.267,,,,,,,,0.454166667,-0.256944444,0,0,0,,0,77,77,142,1,PLASK,HB,old,z,./images/PLASKHB.png,,,,,,,,,,,,,,,,,,,,,,,,,,,,,,,,,,,
,,,,,,,,,,,,,,,,,5f5fc8153ba37c07caa9b45e,25,2022-02-12_16h49.34.359,lexical_decision_task_DD_L3,2021.2.3,Win32,60.09615385,,,,,,,,,,,0.902,1,,,,,,,,,,,,,,z,1,0.902,,,,,,,,0.454166667,-0.256944444,0,0,0,,0,78,78,109,1,BURGE,HB,old,z,./images/BURGEHB.png,,,,,,,,,,,,,,,,,,,,,,,,,,,,,,,,,,,
,,,,,,,,,,,,,,,,,5f5fc8153ba37c07caa9b45e,25,2022-02-12_16h49.34.359,lexical_decision_task_DD_L3,2021.2.3,Win32,60.09615385,,,,,,,,,,,0.553,1,,,,,,,,,,,,,,m,1,0.553,,,,,,,,0.454166667,-0.256944444,0,0,0,,0,79,79,49,1,DRUMS,C,old,m,./images/DRUMS.png,,,,,,,,,,,,,,,,,,,,,,,,,,,,,,,,,,,
,,,,,,,,,,,,,,,,,5f5fc8153ba37c07caa9b45e,25,2022-02-12_16h49.34.359,lexical_decision_task_DD_L3,2021.2.3,Win32,60.09615385,,,,,,,,,,,0.683,1,,,,,,,,,,,,,,m,1,0.683,,,,,,,,0.454166667,-0.256944444,0,0,0,,0,80,80,16,1,PENCE,C,old,m,./images/PENCE.png,,,,,,,,,,,,,,,,,,,,,,,,,,,,,,,,,,,
,,,,,,,,,,,,,,,,,5f5fc8153ba37c07caa9b45e,25,2022-02-12_16h49.34.359,lexical_decision_task_DD_L3,2021.2.3,Win32,60.09615385,,,,,,,,,,,0.624,1,,,,,,,,,,,,,,z,1,0.624,,,,,,,,0.454166667,-0.256944444,0,0,0,,0,81,81,144,1,NAIRY,C,old,z,./images/NAIRY.png,,,,,,,,,,,,,,,,,,,,,,,,,,,,,,,,,,,
,,,,,,,,,,,,,,,,,5f5fc8153ba37c07caa9b45e,25,2022-02-12_16h49.34.359,lexical_decision_task_DD_L3,2021.2.3,Win32,60.09615385,,,,,,,,,,,0.585,1,,,,,,,,,,,,,,z,1,0.585,,,,,,,,0.454166667,-0.256944444,0,0,0,,0,82,82,147,1,ZOLES,C,old,z,./images/ZOLES.png,,,,,,,,,,,,,,,,,,,,,,,,,,,,,,,,,,,
,,,,,,,,,,,,,,,,,5f5fc8153ba37c07caa9b45e,25,2022-02-12_16h49.34.359,lexical_decision_task_DD_L3,2021.2.3,Win32,60.09615385,,,,,,,,,,,0.698,1,,,,,,,,,,,,,,z,1,0.698,,,,,,,,0.454166667,-0.256944444,0,0,0,space,0,83,83,164,1,SGREW,LB,old,z,./images/SGREWLB.png,1.942,,,,,,,,,,,,,,,,,,,,,,,,,,,,,,,,,,
,,,,,,,,,,,,,,,,,5f5fc8153ba37c07caa9b45e,25,2022-02-12_16h49.34.359,lexical_decision_task_DD_L3,2021.2.3,Win32,60.09615385,,,,,,,,,,,0.518,1,,,,,,,,,,,,,,m,1,0.518,,,,,,,,0.454166667,-0.256944444,0,0,0,,0,84,84,61,1,CANDLE,C,old,m,./images/CANDLE.png,,,,,,,,,,,,,,,,,,,,,,,,,,,,,,,,,,,
,,,,,,,,,,,,,,,,,5f5fc8153ba37c07caa9b45e,25,2022-02-12_16h49.34.359,lexical_decision_task_DD_L3,2021.2.3,Win32,60.09615385,,,,,,,,,,,0.501,1,,,,,,,,,,,,,,m,1,0.501,,,,,,,,0.454166667,-0.256944444,0,0,0,,0,85,85,6,1,SQUARE,LB,old,m,./images/SQUARELB.png,,,,,,,,,,,,,,,,,,,,,,,,,,,,,,,,,,,
,,,,,,,,,,,,,,,,,5f5fc8153ba37c07caa9b45e,25,2022-02-12_16h49.34.359,lexical_decision_task_DD_L3,2021.2.3,Win32,60.09615385,,,,,,,,,,,0.774,1,,,,,,,,,,,,,,m,1,0.774,,,,,,,,0.454166667,-0.256944444,0,0,0,,0,86,86,20,1,CRADLE,HB,old,m,./images/CRADLEHB.png,,,,,,,,,,,,,,,,,,,,,,,,,,,,,,,,,,,
,,,,,,,,,,,,,,,,,5f5fc8153ba37c07caa9b45e,25,2022-02-12_16h49.34.359,lexical_decision_task_DD_L3,2021.2.3,Win32,60.09615385,,,,,,,,,,,0.664,1,,,,,,,,,,,,,,z,1,0.664,,,,,,,,0.454166667,-0.256944444,0,0,0,,0,87,87,157,1,INLER,HB,old,z,./images/INLERHB.png,,,,,,,,,,,,,,,,,,,,,,,,,,,,,,,,,,,
,,,,,,,,,,,,,,,,,5f5fc8153ba37c07caa9b45e,25,2022-02-12_16h49.34.359,lexical_decision_task_DD_L3,2021.2.3,Win32,60.09615385,,,,,,,,,,,0.796,1,,,,,,,,,,,,,,z,1,0.796,,,,,,,,0.454166667,-0.256944444,0,0,0,,0,88,88,129,1,PRANS,C,old,z,./images/PRANS.png,,,,,,,,,,,,,,,,,,,,,,,,,,,,,,,,,,,
,,,,,,,,,,,,,,,,,5f5fc8153ba37c07caa9b45e,25,2022-02-12_16h49.34.359,lexical_decision_task_DD_L3,2021.2.3,Win32,60.09615385,,,,,,,,,,,0.581,1,,,,,,,,,,,,,,m,1,0.581,,,,,,,,0.454166667,-0.256944444,0,0,0,,0,89,89,51,1,ONION,LB,old,m,./images/ONIONLB.png,,,,,,,,,,,,,,,,,,,,,,,,,,,,,,,,,,,
,,,,,,,,,,,,,,,,,5f5fc8153ba37c07caa9b45e,25,2022-02-12_16h49.34.359,lexical_decision_task_DD_L3,2021.2.3,Win32,60.09615385,,,,,,,,,,,0.685,1,,,,,,,,,,,,,,z,1,0.685,,,,,,,,0.454166667,-0.256944444,0,0,0,,0,90,90,124,1,TUNCH,HB,old,z,./images/TUNCHHB.png,,,,,,,,,,,,,,,,,,,,,,,,,,,,,,,,,,,
,,,,,,,,,,,,,,,,,5f5fc8153ba37c07caa9b45e,25,2022-02-12_16h49.34.359,lexical_decision_task_DD_L3,2021.2.3,Win32,60.09615385,,,,,,,,,,,0.525,1,,,,,,,,,,,,,,m,1,0.525,,,,,,,,0.454166667,-0.256944444,0,0,0,,0,91,91,81,1,POODLE,LB,old,m,./images/POODLELB.png,,,,,,,,,,,,,,,,,,,,,,,,,,,,,,,,,,,
,,,,,,,,,,,,,,,,,5f5fc8153ba37c07caa9b45e,25,2022-02-12_16h49.34.359,lexical_decision_task_DD_L3,2021.2.3,Win32,60.09615385,,,,,,,,,,,0.526,1,,,,,,,,,,,,,,m,1,0.526,,,,,,,,0.454166667,-0.256944444,0,0,0,,0,92,92,9,1,RHINO,LB,old,m,./images/RHINOLB.png,,,,,,,,,,,,,,,,,,,,,,,,,,,,,,,,,,,
,,,,,,,,,,,,,,,,,5f5fc8153ba37c07caa9b45e,25,2022-02-12_16h49.34.359,lexical_decision_task_DD_L3,2021.2.3,Win32,60.09615385,,,,,,,,,,,0.567,1,,,,,,,,,,,,,,z,1,0.567,,,,,,,,0.454166667,-0.256944444,0,0,0,,0,93,93,90,1,NEAST,C,old,z,./images/NEAST.png,,,,,,,,,,,,,,,,,,,,,,,,,,,,,,,,,,,
,,,,,,,,,,,,,,,,,5f5fc8153ba37c07caa9b45e,25,2022-02-12_16h49.34.359,lexical_decision_task_DD_L3,2021.2.3,Win32,60.09615385,,,,,,,,,,,0.556,1,,,,,,,,,,,,,,z,1,0.556,,,,,,,,0.454166667,-0.256944444,0,0,0,,0,94,94,131,1,NACES,LB,old,z,./images/NACESLB.png,,,,,,,,,,,,,,,,,,,,,,,,,,,,,,,,,,,
,,,,,,,,,,,,,,,,,5f5fc8153ba37c07caa9b45e,25,2022-02-12_16h49.34.359,lexical_decision_task_DD_L3,2021.2.3,Win32,60.09615385,,,,,,,,,,,0.556,1,,,,,,,,,,,,,,z,1,0.556,,,,,,,,0.454166667,-0.256944444,0,0,0,,0,95,95,150,1,NOOLS,C,old,z,./images/NOOLS.png,,,,,,,,,,,,,,,,,,,,,,,,,,,,,,,,,,,
,,,,,,,,,,,,,,,,,5f5fc8153ba37c07caa9b45e,25,2022-02-12_16h49.34.359,lexical_decision_task_DD_L3,2021.2.3,Win32,60.09615385,,,,,,,,,,,0.594,1,,,,,,,,,,,,,,z,1,0.594,,,,,,,,0.454166667,-0.256944444,0,0,0,,0,96,96,145,1,LAMEL,HB,old,z,./images/LAMELHB.png,,,,,,,,,,,,,,,,,,,,,,,,,,,,,,,,,,,
,,,,,,,,,,,,,,,,,5f5fc8153ba37c07caa9b45e,25,2022-02-12_16h49.34.359,lexical_decision_task_DD_L3,2021.2.3,Win32,60.09615385,,,,,,,,,,,0.545,1,,,,,,,,,,,,,,m,1,0.545,,,,,,,,0.454166667,-0.256944444,0,0,0,,0,97,97,4,1,MUSCLE,C,old,m,./images/MUSCLE.png,,,,,,,,,,,,,,,,,,,,,,,,,,,,,,,,,,,
,,,,,,,,,,,,,,,,,5f5fc8153ba37c07caa9b45e,25,2022-02-12_16h49.34.359,lexical_decision_task_DD_L3,2021.2.3,Win32,60.09615385,,,,,,,,,,,1.03,1,,,,,,,,,,,,,,m,1,1.03,,,,,,,,0.454166667,-0.256944444,0,0,0,,0,98,98,65,1,FARMER,HB,old,m,./images/FARMERHB.png,,,,,,,,,,,,,,,,,,,,,,,,,,,,,,,,,,,
,,,,,,,,,,,,,,,,,5f5fc8153ba37c07caa9b45e,25,2022-02-12_16h49.34.359,lexical_decision_task_DD_L3,2021.2.3,Win32,60.09615385,,,,,,,,,,,0.557,1,,,,,,,,,,,,,,m,1,0.557,,,,,,,,0.454166667,-0.256944444,0,0,0,,0,99,99,60,1,TWINS,LB,old,m,./images/TWINSLB.png,,,,,,,,,,,,,,,,,,,,,,,,,,,,,,,,,,,
,,,,,,,,,,,,,,,,,5f5fc8153ba37c07caa9b45e,25,2022-02-12_16h49.34.359,lexical_decision_task_DD_L3,2021.2.3,Win32,60.09615385,,,,,,,,,,,0.907,0,,,,,,,,,,,,,,z,0,0.907,,,,,,,,0.454166667,-0.256944444,0,0,0,,0,100,100,50,1,MALLET,HB,old,m,./images/MALLETHB.png,,,,,,,,,,,,,,,,,,,,,,,,,,,,,,,,,,,
,,,,,,,,,,,,,,,,,5f5fc8153ba37c07caa9b45e,25,2022-02-12_16h49.34.359,lexical_decision_task_DD_L3,2021.2.3,Win32,60.09615385,,,,,,,,,,,0.614,1,,,,,,,,,,,,,,m,1,0.614,,,,,,,,0.454166667,-0.256944444,0,0,0,,0,101,101,79,1,CRUST,C,old,m,./images/CRUST.png,,,,,,,,,,,,,,,,,,,,,,,,,,,,,,,,,,,
,,,,,,,,,,,,,,,,,5f5fc8153ba37c07caa9b45e,25,2022-02-12_16h49.34.359,lexical_decision_task_DD_L3,2021.2.3,Win32,60.09615385,,,,,,,,,,,0.878,1,,,,,,,,,,,,,,z,1,0.878,,,,,,,,0.454166667,-0.256944444,0,0,0,,0,102,102,88,1,GLUSH,HB,old,z,./images/GLUSHHB.png,,,,,,,,,,,,,,,,,,,,,,,,,,,,,,,,,,,
,,,,,,,,,,,,,,,,,5f5fc8153ba37c07caa9b45e,25,2022-02-12_16h49.34.359,lexical_decision_task_DD_L3,2021.2.3,Win32,60.09615385,,,,,,,,,,,0.943,1,,,,,,,,,,,,,,z,1,0.943,,,,,,,,0.454166667,-0.256944444,0,0,0,,0,103,103,97,1,CHIDS,HB,old,z,./images/CHIDSHB.png,,,,,,,,,,,,,,,,,,,,,,,,,,,,,,,,,,,
,,,,,,,,,,,,,,,,,5f5fc8153ba37c07caa9b45e,25,2022-02-12_16h49.34.359,lexical_decision_task_DD_L3,2021.2.3,Win32,60.09615385,,,,,,,,,,,0.702,1,,,,,,,,,,,,,,m,1,0.702,,,,,,,,0.454166667,-0.256944444,0,0,0,,0,104,104,47,1,BERRY,HB,old,m,./images/BERRYHB.png,,,,,,,,,,,,,,,,,,,,,,,,,,,,,,,,,,,
,,,,,,,,,,,,,,,,,5f5fc8153ba37c07caa9b45e,25,2022-02-12_16h49.34.359,lexical_decision_task_DD_L3,2021.2.3,Win32,60.09615385,,,,,,,,,,,0.699,1,,,,,,,,,,,,,,m,1,0.699,,,,,,,,0.454166667,-0.256944444,0,0,0,,0,105,105,43,1,MOSQUE,C,old,m,./images/MOSQUE.png,,,,,,,,,,,,,,,,,,,,,,,,,,,,,,,,,,,
,,,,,,,,,,,,,,,,,5f5fc8153ba37c07caa9b45e,25,2022-02-12_16h49.34.359,lexical_decision_task_DD_L3,2021.2.3,Win32,60.09615385,,,,,,,,,,,0.636,1,,,,,,,,,,,,,,z,1,0.636,,,,,,,,0.454166667,-0.256944444,0,0,0,,0,106,106,93,1,SMONE,C,old,z,./images/SMONE.png,,,,,,,,,,,,,,,,,,,,,,,,,,,,,,,,,,,
,,,,,,,,,,,,,,,,,5f5fc8153ba37c07caa9b45e,25,2022-02-12_16h49.34.359,lexical_decision_task_DD_L3,2021.2.3,Win32,60.09615385,,,,,,,,,,,0.673,1,,,,,,,,,,,,,,z,1,0.673,,,,,,,,0.454166667,-0.256944444,0,0,0,,0,107,107,101,1,GLEET,LB,old,z,./images/GLEETLB.png,,,,,,,,,,,,,,,,,,,,,,,,,,,,,,,,,,,
,,,,,,,,,,,,,,,,,5f5fc8153ba37c07caa9b45e,25,2022-02-12_16h49.34.359,lexical_decision_task_DD_L3,2021.2.3,Win32,60.09615385,,,,,,,,,,,0.6,1,,,,,,,,,,,,,,z,1,0.6,,,,,,,,0.454166667,-0.256944444,0,0,0,,0,108,108,153,1,CLUPS,C,old,z,./images/CLUPS.png,,,,,,,,,,,,,,,,,,,,,,,,,,,,,,,,,,,
,,,,,,,,,,,,,,,,,5f5fc8153ba37c07caa9b45e,25,2022-02-12_16h49.34.359,lexical_decision_task_DD_L3,2021.2.3,Win32,60.09615385,,,,,,,,,,,0.577,1,,,,,,,,,,,,,,z,1,0.577,,,,,,,,0.454166667,-0.256944444,0,0,0,,0,109,109,123,1,SEDGE,C,old,z,./images/SEDGE.png,,,,,,,,,,,,,,,,,,,,,,,,,,,,,,,,,,,
,,,,,,,,,,,,,,,,,5f5fc8153ba37c07caa9b45e,25,2022-02-12_16h49.34.359,lexical_decision_task_DD_L3,2021.2.3,Win32,60.09615385,,,,,,,,,,,1.03,0,,,,,,,,,,,,,,m,0,1.03,,,,,,,,0.454166667,-0.256944444,0,0,0,,0,110,110,110,1,CRUNK,LB,old,z,./images/CRUNKLB.png,,,,,,,,,,,,,,,,,,,,,,,,,,,,,,,,,,,
,,,,,,,,,,,,,,,,,5f5fc8153ba37c07caa9b45e,25,2022-02-12_16h49.34.359,lexical_decision_task_DD_L3,2021.2.3,Win32,60.09615385,,,,,,,,,,,0.985,1,,,,,,,,,,,,,,z,1,0.985,,,,,,,,0.454166667,-0.256944444,0,0,0,,0,111,111,133,1,POWDY,HB,old,z,./images/POWDYHB.png,,,,,,,,,,,,,,,,,,,,,,,,,,,,,,,,,,,
,,,,,,,,,,,,,,,,,5f5fc8153ba37c07caa9b45e,25,2022-02-12_16h49.34.359,lexical_decision_task_DD_L3,2021.2.3,Win32,60.09615385,,,,,,,,,,,0.978,1,,,,,,,,,,,,,,z,1,0.978,,,,,,,,0.454166667,-0.256944444,0,0,0,,0,112,112,115,1,MAWNS,HB,old,z,./images/MAWNSHB.png,,,,,,,,,,,,,,,,,,,,,,,,,,,,,,,,,,,
,,,,,,,,,,,,,,,,,5f5fc8153ba37c07caa9b45e,25,2022-02-12_16h49.34.359,lexical_decision_task_DD_L3,2021.2.3,Win32,60.09615385,,,,,,,,,,,0.545,0,,,,,,,,,,,,,,m,0,0.545,,,,,,,,0.454166667,-0.256944444,0,0,0,,0,113,113,159,1,CUDDY,C,old,z,./images/CUDDY.png,,,,,,,,,,,,,,,,,,,,,,,,,,,,,,,,,,,
,,,,,,,,,,,,,,,,,5f5fc8153ba37c07caa9b45e,25,2022-02-12_16h49.34.359,lexical_decision_task_DD_L3,2021.2.3,Win32,60.09615385,,,,,,,,,,,0.635,1,,,,,,,,,,,,,,z,1,0.635,,,,,,,,0.454166667,-0.256944444,0,0,0,,0,114,114,114,1,RIKES,C,old,z,./images/RIKES.png,,,,,,,,,,,,,,,,,,,,,,,,,,,,,,,,,,,
,,,,,,,,,,,,,,,,,5f5fc8153ba37c07caa9b45e,25,2022-02-12_16h49.34.359,lexical_decision_task_DD_L3,2021.2.3,Win32,60.09615385,,,,,,,,,,,1.06,1,,,,,,,,,,,,,,m,1,1.06,,,,,,,,0.454166667,-0.256944444,0,0,0,,0,115,115,26,1,SMOKER,HB,old,m,./images/SMOKERHB.png,,,,,,,,,,,,,,,,,,,,,,,,,,,,,,,,,,,
,,,,,,,,,,,,,,,,,5f5fc8153ba37c07caa9b45e,25,2022-02-12_16h49.34.359,lexical_decision_task_DD_L3,2021.2.3,Win32,60.09615385,,,,,,,,,,,0.763,1,,,,,,,,,,,,,,z,1,0.763,,,,,,,,0.454166667,-0.256944444,0,0,0,,0,116,116,160,1,VEETS,HB,old,z,./images/VEETSHB.png,,,,,,,,,,,,,,,,,,,,,,,,,,,,,,,,,,,
,,,,,,,,,,,,,,,,,5f5fc8153ba37c07caa9b45e,25,2022-02-12_16h49.34.359,lexical_decision_task_DD_L3,2021.2.3,Win32,60.09615385,,,,,,,,,,,1.13,0,,,,,,,,,,,,,,z,0,1.13,,,,,,,,0.454166667,-0.256944444,0,0,0,,0,117,117,17,1,SKIING,HB,old,m,./images/SKIINGHB.png,,,,,,,,,,,,,,,,,,,,,,,,,,,,,,,,,,,
,,,,,,,,,,,,,,,,,5f5fc8153ba37c07caa9b45e,25,2022-02-12_16h49.34.359,lexical_decision_task_DD_L3,2021.2.3,Win32,60.09615385,,,,,,,,,,,0.734,1,,,,,,,,,,,,,,z,1,0.734,,,,,,,,0.454166667,-0.256944444,0,0,0,,0,118,118,152,1,FRAIN,LB,old,z,./images/FRAINLB.png,,,,,,,,,,,,,,,,,,,,,,,,,,,,,,,,,,,
,,,,,,,,,,,,,,,,,5f5fc8153ba37c07caa9b45e,25,2022-02-12_16h49.34.359,lexical_decision_task_DD_L3,2021.2.3,Win32,60.09615385,,,,,,,,,,,0.565,1,,,,,,,,,,,,,,z,1,0.565,,,,,,,,0.454166667,-0.256944444,0,0,0,,0,119,119,137,1,JOOST,LB,old,z,./images/JOOSTLB.png,,,,,,,,,,,,,,,,,,,,,,,,,,,,,,,,,,,
,,,,,,,,,,,,,,,,,5f5fc8153ba37c07caa9b45e,25,2022-02-12_16h49.34.359,lexical_decision_task_DD_L3,2021.2.3,Win32,60.09615385,,,,,,,,,,,0.686,1,,,,,,,,,,,,,,m,1,0.686,,,,,,,,0.454166667,-0.256944444,0,0,0,,0,120,120,41,1,STRING,HB,old,m,./images/STRINGHB.png,,,,,,,,,,,,,,,,,,,,,,,,,,,,,,,,,,,
,,,,,,,,,,,,,,,,,5f5fc8153ba37c07caa9b45e,25,2022-02-12_16h49.34.359,lexical_decision_task_DD_L3,2021.2.3,Win32,60.09615385,,,,,,,,,,,0.607,1,,,,,,,,,,,,,,m,1,0.607,,,,,,,,0.454166667,-0.256944444,0,0,0,,0,121,121,27,1,ATTIC,LB,old,m,./images/ATTICLB.png,,,,,,,,,,,,,,,,,,,,,,,,,,,,,,,,,,,
,,,,,,,,,,,,,,,,,5f5fc8153ba37c07caa9b45e,25,2022-02-12_16h49.34.359,lexical_decision_task_DD_L3,2021.2.3,Win32,60.09615385,,,,,,,,,,,0.639,1,,,,,,,,,,,,,,z,1,0.639,,,,,,,,0.454166667,-0.256944444,0,0,0,,0,122,122,143,1,MONGS,LB,old,z,./images/MONGSLB.png,,,,,,,,,,,,,,,,,,,,,,,,,,,,,,,,,,,
,,,,,,,,,,,,,,,,,5f5fc8153ba37c07caa9b45e,25,2022-02-12_16h49.34.359,lexical_decision_task_DD_L3,2021.2.3,Win32,60.09615385,,,,,,,,,,,0.75,1,,,,,,,,,,,,,,z,1,0.75,,,,,,,,0.454166667,-0.256944444,0,0,0,,0,123,123,89,1,DRIEK,LB,old,z,./images/DRIEKLB.png,,,,,,,,,,,,,,,,,,,,,,,,,,,,,,,,,,,
,,,,,,,,,,,,,,,,,5f5fc8153ba37c07caa9b45e,25,2022-02-12_16h49.34.359,lexical_decision_task_DD_L3,2021.2.3,Win32,60.09615385,,,,,,,,,,,0.709,0,,,,,,,,,,,,,,z,0,0.709,,,,,,,,0.454166667,-0.256944444,0,0,0,,0,124,124,29,1,CRUMB,HB,old,m,./images/CRUMBHB.png,,,,,,,,,,,,,,,,,,,,,,,,,,,,,,,,,,,
,,,,,,,,,,,,,,,,,5f5fc8153ba37c07caa9b45e,25,2022-02-12_16h49.34.359,lexical_decision_task_DD_L3,2021.2.3,Win32,60.09615385,,,,,,,,,,,0.928,1,,,,,,,,,,,,,,m,1,0.928,,,,,,,,0.454166667,-0.256944444,0,0,0,space,0,125,125,11,1,BONNET,HB,old,m,./images/BONNETHB.png,16.879,,,,,,,,,,,,,,,,,,,,,,,,,,,,,,,,,,
,,,,,,,,,,,,,,,,,5f5fc8153ba37c07caa9b45e,25,2022-02-12_16h49.34.359,lexical_decision_task_DD_L3,2021.2.3,Win32,60.09615385,,,,,,,,,,,0.555,1,,,,,,,,,,,,,,m,1,0.555,,,,,,,,0.454166667,-0.256944444,0,0,0,,0,126,126,18,1,JAGUAR,LB,old,m,./images/JAGUARLB.png,,,,,,,,,,,,,,,,,,,,,,,,,,,,,,,,,,,
,,,,,,,,,,,,,,,,,5f5fc8153ba37c07caa9b45e,25,2022-02-12_16h49.34.359,lexical_decision_task_DD_L3,2021.2.3,Win32,60.09615385,,,,,,,,,,,0.649,1,,,,,,,,,,,,,,z,1,0.649,,,,,,,,0.454166667,-0.256944444,0,0,0,,0,127,127,161,1,BLAPS,LB,old,z,./images/BLAPSLB.png,,,,,,,,,,,,,,,,,,,,,,,,,,,,,,,,,,,
,,,,,,,,,,,,,,,,,5f5fc8153ba37c07caa9b45e,25,2022-02-12_16h49.34.359,lexical_decision_task_DD_L3,2021.2.3,Win32,60.09615385,,,,,,,,,,,1.1,1,,,,,,,,,,,,,,z,1,1.1,,,,,,,,0.454166667,-0.256944444,0,0,0,,0,128,128,154,1,THINT,HB,old,z,./images/THINTHB.png,,,,,,,,,,,,,,,,,,,,,,,,,,,,,,,,,,,
,,,,,,,,,,,,,,,,,5f5fc8153ba37c07caa9b45e,25,2022-02-12_16h49.34.359,lexical_decision_task_DD_L3,2021.2.3,Win32,60.09615385,,,,,,,,,,,0.517,1,,,,,,,,,,,,,,m,1,0.517,,,,,,,,0.454166667,-0.256944444,0,0,0,,0,129,129,30,1,STORM,LB,old,m,./images/STORMLB.png,,,,,,,,,,,,,,,,,,,,,,,,,,,,,,,,,,,
,,,,,,,,,,,,,,,,,5f5fc8153ba37c07caa9b45e,25,2022-02-12_16h49.34.359,lexical_decision_task_DD_L3,2021.2.3,Win32,60.09615385,,,,,,,,,,,0.826,1,,,,,,,,,,,,,,z,1,0.826,,,,,,,,0.454166667,-0.256944444,0,0,0,,0,130,130,100,1,DRIBS,HB,old,z,./images/DRIBSHB.png,,,,,,,,,,,,,,,,,,,,,,,,,,,,,,,,,,,
,,,,,,,,,,,,,,,,,5f5fc8153ba37c07caa9b45e,25,2022-02-12_16h49.34.359,lexical_decision_task_DD_L3,2021.2.3,Win32,60.09615385,,,,,,,,,,,0.648,1,,,,,,,,,,,,,,m,1,0.648,,,,,,,,0.454166667,-0.256944444,0,0,0,,0,131,131,68,1,TORCH,HB,old,m,./images/TORCHHB.png,,,,,,,,,,,,,,,,,,,,,,,,,,,,,,,,,,,
,,,,,,,,,,,,,,,,,5f5fc8153ba37c07caa9b45e,25,2022-02-12_16h49.34.359,lexical_decision_task_DD_L3,2021.2.3,Win32,60.09615385,,,,,,,,,,,0.489,1,,,,,,,,,,,,,,m,1,0.489,,,,,,,,0.454166667,-0.256944444,0,0,0,,0,132,132,40,1,SWING,C,old,m,./images/SWING.png,,,,,,,,,,,,,,,,,,,,,,,,,,,,,,,,,,,
,,,,,,,,,,,,,,,,,5f5fc8153ba37c07caa9b45e,25,2022-02-12_16h49.34.359,lexical_decision_task_DD_L3,2021.2.3,Win32,60.09615385,,,,,,,,,,,0.473,1,,,,,,,,,,,,,,m,1,0.473,,,,,,,,0.454166667,-0.256944444,0,0,0,,0,133,133,45,1,KITTEN,LB,old,m,./images/KITTENLB.png,,,,,,,,,,,,,,,,,,,,,,,,,,,,,,,,,,,
,,,,,,,,,,,,,,,,,5f5fc8153ba37c07caa9b45e,25,2022-02-12_16h49.34.359,lexical_decision_task_DD_L3,2021.2.3,Win32,60.09615385,,,,,,,,,,,0.598,1,,,,,,,,,,,,,,z,1,0.598,,,,,,,,0.454166667,-0.256944444,0,0,0,,0,134,134,87,1,TRING,C,old,z,./images/TRING.png,,,,,,,,,,,,,,,,,,,,,,,,,,,,,,,,,,,
,,,,,,,,,,,,,,,,,5f5fc8153ba37c07caa9b45e,25,2022-02-12_16h49.34.359,lexical_decision_task_DD_L3,2021.2.3,Win32,60.09615385,,,,,,,,,,,0.517,1,,,,,,,,,,,,,,m,1,0.517,,,,,,,,0.454166667,-0.256944444,0,0,0,,0,135,135,0,1,TOMATO,LB,old,m,./images/TOMATOLB.png,,,,,,,,,,,,,,,,,,,,,,,,,,,,,,,,,,,
,,,,,,,,,,,,,,,,,5f5fc8153ba37c07caa9b45e,25,2022-02-12_16h49.34.359,lexical_decision_task_DD_L3,2021.2.3,Win32,60.09615385,,,,,,,,,,,0.552,1,,,,,,,,,,,,,,z,1,0.552,,,,,,,,0.454166667,-0.256944444,0,0,0,,0,136,136,92,1,PAIMS,LB,old,z,./images/PAIMSLB.png,,,,,,,,,,,,,,,,,,,,,,,,,,,,,,,,,,,
,,,,,,,,,,,,,,,,,5f5fc8153ba37c07caa9b45e,25,2022-02-12_16h49.34.359,lexical_decision_task_DD_L3,2021.2.3,Win32,60.09615385,,,,,,,,,,,0.522,1,,,,,,,,,,,,,,m,1,0.522,,,,,,,,0.454166667,-0.256944444,0,0,0,,0,137,137,36,1,THROAT,LB,old,m,./images/THROATLB.png,,,,,,,,,,,,,,,,,,,,,,,,,,,,,,,,,,,
,,,,,,,,,,,,,,,,,5f5fc8153ba37c07caa9b45e,25,2022-02-12_16h49.34.359,lexical_decision_task_DD_L3,2021.2.3,Win32,60.09615385,,,,,,,,,,,0.624,1,,,,,,,,,,,,,,m,1,0.624,,,,,,,,0.454166667,-0.256944444,0,0,0,,0,138,138,70,1,URINE,C,old,m,./images/URINE.png,,,,,,,,,,,,,,,,,,,,,,,,,,,,,,,,,,,
,,,,,,,,,,,,,,,,,5f5fc8153ba37c07caa9b45e,25,2022-02-12_16h49.34.359,lexical_decision_task_DD_L3,2021.2.3,Win32,60.09615385,,,,,,,,,,,0.618,1,,,,,,,,,,,,,,z,1,0.618,,,,,,,,0.454166667,-0.256944444,0,0,0,,0,139,139,84,1,HAXES,C,old,z,./images/HAXES.png,,,,,,,,,,,,,,,,,,,,,,,,,,,,,,,,,,,
,,,,,,,,,,,,,,,,,5f5fc8153ba37c07caa9b45e,25,2022-02-12_16h49.34.359,lexical_decision_task_DD_L3,2021.2.3,Win32,60.09615385,,,,,,,,,,,0.599,1,,,,,,,,,,,,,,m,1,0.599,,,,,,,,0.454166667,-0.256944444,0,0,0,,0,140,140,23,1,WALRUS,HB,old,m,./images/WALRUSHB.png,,,,,,,,,,,,,,,,,,,,,,,,,,,,,,,,,,,
,,,,,,,,,,,,,,,,,5f5fc8153ba37c07caa9b45e,25,2022-02-12_16h49.34.359,lexical_decision_task_DD_L3,2021.2.3,Win32,60.09615385,,,,,,,,,,,0.564,1,,,,,,,,,,,,,,z,1,0.564,,,,,,,,0.454166667,-0.256944444,0,0,0,,0,141,141,136,1,WERVE,HB,old,z,./images/WERVEHB.png,,,,,,,,,,,,,,,,,,,,,,,,,,,,,,,,,,,
,,,,,,,,,,,,,,,,,5f5fc8153ba37c07caa9b45e,25,2022-02-12_16h49.34.359,lexical_decision_task_DD_L3,2021.2.3,Win32,60.09615385,,,,,,,,,,,0.494,1,,,,,,,,,,,,,,m,1,0.494,,,,,,,,0.454166667,-0.256944444,0,0,0,,0,142,142,63,1,MIRROR,LB,old,m,./images/MIRRORLB.png,,,,,,,,,,,,,,,,,,,,,,,,,,,,,,,,,,,
,,,,,,,,,,,,,,,,,5f5fc8153ba37c07caa9b45e,25,2022-02-12_16h49.34.359,lexical_decision_task_DD_L3,2021.2.3,Win32,60.09615385,,,,,,,,,,,0.522,1,,,,,,,,,,,,,,m,1,0.522,,,,,,,,0.454166667,-0.256944444,0,0,0,,0,143,143,33,1,MAGGOT,LB,old,m,./images/MAGGOTLB.png,,,,,,,,,,,,,,,,,,,,,,,,,,,,,,,,,,,
,,,,,,,,,,,,,,,,,5f5fc8153ba37c07caa9b45e,25,2022-02-12_16h49.34.359,lexical_decision_task_DD_L3,2021.2.3,Win32,60.09615385,,,,,,,,,,,0.581,1,,,,,,,,,,,,,,z,1,0.581,,,,,,,,0.454166667,-0.256944444,0,0,0,,0,144,144,118,1,BAVEL,HB,old,z,./images/BAVELHB.png,,,,,,,,,,,,,,,,,,,,,,,,,,,,,,,,,,,
,,,,,,,,,,,,,,,,,5f5fc8153ba37c07caa9b45e,25,2022-02-12_16h49.34.359,lexical_decision_task_DD_L3,2021.2.3,Win32,60.09615385,,,,,,,,,,,0.585,1,,,,,,,,,,,,,,z,1,0.585,,,,,,,,0.454166667,-0.256944444,0,0,0,,0,145,145,162,1,LEICH,C,old,z,./images/LEICH.png,,,,,,,,,,,,,,,,,,,,,,,,,,,,,,,,,,,
,,,,,,,,,,,,,,,,,5f5fc8153ba37c07caa9b45e,25,2022-02-12_16h49.34.359,lexical_decision_task_DD_L3,2021.2.3,Win32,60.09615385,,,,,,,,,,,0.536,1,,,,,,,,,,,,,,z,1,0.536,,,,,,,,0.454166667,-0.256944444,0,0,0,,0,146,146,156,1,HIXES,C,old,z,./images/HIXES.png,,,,,,,,,,,,,,,,,,,,,,,,,,,,,,,,,,,
,,,,,,,,,,,,,,,,,5f5fc8153ba37c07caa9b45e,25,2022-02-12_16h49.34.359,lexical_decision_task_DD_L3,2021.2.3,Win32,60.09615385,,,,,,,,,,,0.526,1,,,,,,,,,,,,,,m,1,0.526,,,,,,,,0.454166667,-0.256944444,0,0,0,,0,147,147,25,1,WRIST,C,old,m,./images/WRIST.png,,,,,,,,,,,,,,,,,,,,,,,,,,,,,,,,,,,
,,,,,,,,,,,,,,,,,5f5fc8153ba37c07caa9b45e,25,2022-02-12_16h49.34.359,lexical_decision_task_DD_L3,2021.2.3,Win32,60.09615385,,,,,,,,,,,0.564,1,,,,,,,,,,,,,,m,1,0.564,,,,,,,,0.454166667,-0.256944444,0,0,0,,0,148,148,32,1,BARREL,HB,old,m,./images/BARRELHB.png,,,,,,,,,,,,,,,,,,,,,,,,,,,,,,,,,,,
,,,,,,,,,,,,,,,,,5f5fc8153ba37c07caa9b45e,25,2022-02-12_16h49.34.359,lexical_decision_task_DD_L3,2021.2.3,Win32,60.09615385,,,,,,,,,,,0.698,1,,,,,,,,,,,,,,z,1,0.698,,,,,,,,0.454166667,-0.256944444,0,0,0,,0,149,149,139,1,BLEAR,HB,old,z,./images/BLEARHB.png,,,,,,,,,,,,,,,,,,,,,,,,,,,,,,,,,,,
,,,,,,,,,,,,,,,,,5f5fc8153ba37c07caa9b45e,25,2022-02-12_16h49.34.359,lexical_decision_task_DD_L3,2021.2.3,Win32,60.09615385,,,,,,,,,,,0.641,1,,,,,,,,,,,,,,z,1,0.641,,,,,,,,0.454166667,-0.256944444,0,0,0,,0,150,150,108,1,GRUET,C,old,z,./images/GRUET.png,,,,,,,,,,,,,,,,,,,,,,,,,,,,,,,,,,,
,,,,,,,,,,,,,,,,,5f5fc8153ba37c07caa9b45e,25,2022-02-12_16h49.34.359,lexical_decision_task_DD_L3,2021.2.3,Win32,60.09615385,,,,,,,,,,,0.531,1,,,,,,,,,,,,,,z,1,0.531,,,,,,,,0.454166667,-0.256944444,0,0,0,,0,151,151,126,1,GUELS,C,old,z,./images/GUELS.png,,,,,,,,,,,,,,,,,,,,,,,,,,,,,,,,,,,
,,,,,,,,,,,,,,,,,5f5fc8153ba37c07caa9b45e,25,2022-02-12_16h49.34.359,lexical_decision_task_DD_L3,2021.2.3,Win32,60.09615385,,,,,,,,,,,0.712,1,,,,,,,,,,,,,,z,1,0.712,,,,,,,,0.454166667,-0.256944444,0,0,0,,0,152,152,148,1,JOMS,HB,old,z,./images/JOMSHB.png,,,,,,,,,,,,,,,,,,,,,,,,,,,,,,,,,,,
,,,,,,,,,,,,,,,,,5f5fc8153ba37c07caa9b45e,25,2022-02-12_16h49.34.359,lexical_decision_task_DD_L3,2021.2.3,Win32,60.09615385,,,,,,,,,,,0.639,1,,,,,,,,,,,,,,m,1,0.639,,,,,,,,0.454166667,-0.256944444,0,0,0,,0,153,153,38,1,LADDER,HB,old,m,./images/LADDERHB.png,,,,,,,,,,,,,,,,,,,,,,,,,,,,,,,,,,,
,,,,,,,,,,,,,,,,,5f5fc8153ba37c07caa9b45e,25,2022-02-12_16h49.34.359,lexical_decision_task_DD_L3,2021.2.3,Win32,60.09615385,,,,,,,,,,,0.648,1,,,,,,,,,,,,,,z,1,0.648,,,,,,,,0.454166667,-0.256944444,0,0,0,,0,154,154,134,1,TROSS,LB,old,z,./images/TROSSLB.png,,,,,,,,,,,,,,,,,,,,,,,,,,,,,,,,,,,
,,,,,,,,,,,,,,,,,5f5fc8153ba37c07caa9b45e,25,2022-02-12_16h49.34.359,lexical_decision_task_DD_L3,2021.2.3,Win32,60.09615385,,,,,,,,,,,0.534,1,,,,,,,,,,,,,,z,1,0.534,,,,,,,,0.454166667,-0.256944444,0,0,0,,0,155,155,135,1,JOODY,C,old,z,./images/JOODY.png,,,,,,,,,,,,,,,,,,,,,,,,,,,,,,,,,,,
,,,,,,,,,,,,,,,,,5f5fc8153ba37c07caa9b45e,25,2022-02-12_16h49.34.359,lexical_decision_task_DD_L3,2021.2.3,Win32,60.09615385,,,,,,,,,,,0.902,1,,,,,,,,,,,,,,z,1,0.902,,,,,,,,0.454166667,-0.256944444,0,0,0,,0,156,156,112,1,MYING,HB,old,z,./images/MYINGHB.png,,,,,,,,,,,,,,,,,,,,,,,,,,,,,,,,,,,
,,,,,,,,,,,,,,,,,5f5fc8153ba37c07caa9b45e,25,2022-02-12_16h49.34.359,lexical_decision_task_DD_L3,2021.2.3,Win32,60.09615385,,,,,,,,,,,0.541,1,,,,,,,,,,,,,,z,1,0.541,,,,,,,,0.454166667,-0.256944444,0,0,0,,0,157,157,138,1,PLICE,C,old,z,./images/PLICE.png,,,,,,,,,,,,,,,,,,,,,,,,,,,,,,,,,,,
,,,,,,,,,,,,,,,,,5f5fc8153ba37c07caa9b45e,25,2022-02-12_16h49.34.359,lexical_decision_task_DD_L3,2021.2.3,Win32,60.09615385,,,,,,,,,,,0.767,1,,,,,,,,,,,,,,m,1,0.767,,,,,,,,0.454166667,-0.256944444,0,0,0,,0,158,158,80,1,WEASEL,HB,old,m,./images/WEASELHB.png,,,,,,,,,,,,,,,,,,,,,,,,,,,,,,,,,,,
,,,,,,,,,,,,,,,,,5f5fc8153ba37c07caa9b45e,25,2022-02-12_16h49.34.359,lexical_decision_task_DD_L3,2021.2.3,Win32,60.09615385,,,,,,,,,,,0.503,1,,,,,,,,,,,,,,m,1,0.503,,,,,,,,0.454166667,-0.256944444,0,0,0,,0,159,159,39,1,SHELF,LB,old,m,./images/SHELFLB.png,,,,,,,,,,,,,,,,,,,,,,,,,,,,,,,,,,,
,,,,,,,,,,,,,,,,,5f5fc8153ba37c07caa9b45e,25,2022-02-12_16h49.34.359,lexical_decision_task_DD_L3,2021.2.3,Win32,60.09615385,,,,,,,,,,,0.704,1,,,,,,,,,,,,,,m,1,0.704,,,,,,,,0.454166667,-0.256944444,0,0,0,,0,160,160,35,1,PEACH,HB,old,m,./images/PEACHHB.png,,,,,,,,,,,,,,,,,,,,,,,,,,,,,,,,,,,
,,,,,,,,,,,,,,,,,5f5fc8153ba37c07caa9b45e,25,2022-02-12_16h49.34.359,lexical_decision_task_DD_L3,2021.2.3,Win32,60.09615385,,,,,,,,,,,0.756,1,,,,,,,,,,,,,,z,1,0.756,,,,,,,,0.454166667,-0.256944444,0,0,0,,0,161,161,107,1,FASKS,LB,old,z,./images/FASKSLB.png,,,,,,,,,,,,,,,,,,,,,,,,,,,,,,,,,,,
,,,,,,,,,,,,,,,,,5f5fc8153ba37c07caa9b45e,25,2022-02-12_16h49.34.359,lexical_decision_task_DD_L3,2021.2.3,Win32,60.09615385,,,,,,,,,,,0.538,1,,,,,,,,,,,,,,z,1,0.538,,,,,,,,0.454166667,-0.256944444,0,0,0,,0,162,162,140,1,DOVET,LB,old,z,./images/DOVETLB.png,,,,,,,,,,,,,,,,,,,,,,,,,,,,,,,,,,,
,,,,,,,,,,,,,,,,,5f5fc8153ba37c07caa9b45e,25,2022-02-12_16h49.34.359,lexical_decision_task_DD_L3,2021.2.3,Win32,60.09615385,,,,,,,,,,,0.592,1,,,,,,,,,,,,,,m,1,0.592,,,,,,,,0.454166667,-0.256944444,0,0,0,,0,163,163,22,1,MELON,C,old,m,./images/MELON.png,,,,,,,,,,,,,,,,,,,,,,,,,,,,,,,,,,,
,,,,,,,,,,,,,,,,,5f5fc8153ba37c07caa9b45e,25,2022-02-12_16h49.34.359,lexical_decision_task_DD_L3,2021.2.3,Win32,60.09615385,,,,,,,,,,,0.704,1,,,,,,,,,,,,,,z,1,0.704,,,,,,,,0.454166667,-0.256944444,0,0,0,,0,164,164,104,1,GITTY,LB,old,z,./images/GITTYLB.png,,,,,,,,,,,,,,,,,,,,,,,,,,,,,,,,,,,
,,,,,,,,,,,,,,,,,5f5fc8153ba37c07caa9b45e,25,2022-02-12_16h49.34.359,lexical_decision_task_DD_L3,2021.2.3,Win32,60.09615385,,,,,,,,,,,0.872,1,,,,,,,,,,,,,,z,1,0.872,,,,,,,,0.454166667,-0.256944444,0,0,0,,0,165,165,163,1,GAMBA,HB,old,z,./images/GAMBAHB.png,,,,,,,,,,,,,,,,,,,,,,,,,,,,,,,,,,,
,,,,,,,,,,,,,,,,,5f5fc8153ba37c07caa9b45e,25,2022-02-12_16h49.34.359,lexical_decision_task_DD_L3,2021.2.3,Win32,60.09615385,,,,,,,,,,,0.682,1,,,,,,,,,,,,,,z,1,0.682,,,,,,,,0.454166667,-0.256944444,0,0,0,,0,166,166,146,1,MOOST,LB,old,z,./images/MOOSTLB.png,,,,,,,,,,,,,,,,,,,,,,,,,,,,,,,,,,,
,,,,,,,,,,,,,,,,,5f5fc8153ba37c07caa9b45e,25,2022-02-12_16h49.34.359,lexical_decision_task_DD_L3,2021.2.3,Win32,60.09615385,,,,,,,,,,,0.721,1,,,,,,,,,,,,,,z,1,0.721,,,,,,,,0.454166667,-0.256944444,0,0,0,,0,167,167,119,1,PAFER,LB,old,z,./images/PAFERLB.png,,,,,,,,,,,,,,,,,,,,,,,,,,,,,,,,,,,
,,,,,,,,,,,,,,,,,5f5fc8153ba37c07caa9b45e,25,2022-02-12_16h49.34.359,lexical_decision_task_DD_L3,2021.2.3,Win32,60.09615385,,,,,,,,,,,,,,,,,,,,,,,,,,,,,,,,,,,,,,,,,,,,,,,,How likely will it be that you will recognize the words presented slighly blurred on a scale of 0 (not likely) to 100 (most likely)?,,,,,0.006944444,-0.415277778,1,0,0,jol_adv,6,8.532,0,0,0,1,1,,,,,,,,,,,,,,,,,,,,,
,,,,,,,,,,,,,,,,,5f5fc8153ba37c07caa9b45e,25,2022-02-12_16h49.34.359,lexical_decision_task_DD_L3,2021.2.3,Win32,60.09615385,,,,,,,,,,,,,,,,,,,,,,,,,,,,,,,,,,,,,,,,,,,,,,,,How likely will it be that you will recognize the words presented very blurred on a scale of 0 (not likely) to 100 (most likely)?,,,,,,,,,,,3,5.927,0,1,1,2,1,,,,,,,,,,,,,,,,,,,,,
,,,,,,,,,,,,,,,,,5f5fc8153ba37c07caa9b45e,25,2022-02-12_16h49.34.359,lexical_decision_task_DD_L3,2021.2.3,Win32,60.09615385,,,,,,,,,,,,,,,,,,,,,,,,,,,,,,,,,,,,,,,,,,,,,,,,How likely will it be that you will recognize the words presented clearly on a scale of 0 (not likely) to 100 (most likely)?,,,,,,,,,,,6,5.634,0,2,2,0,1,,,,,,,,,,,,,,,,,,,,,
space,13.777,0.093055556,-0.255555556,0,0,0,,,,,,1,test,"In the next phase you will be presented with the words from the the first phase. Your job is to decide whether you remember seeing the word or not. If you remember seeing the word press ""old"" or type ""m"". If you do not remember seeing the word press ""new"" or type ""z"". Please press the space bar or click on continue to begin. ",,,5f5fc8153ba37c07caa9b45e,25,2022-02-12_16h49.34.359,lexical_decision_task_DD_L3,2021.2.3,Win32,60.09615385,,,,,,,,,,,,,,,,,,,,,,,,,,,,,,,,,,,,,,,,,,,,,,,,,,,,,,,,,,,,,,,,,,0,0,0,0,1,,,,,,,,,,,,,,,,
space,1.904,0.093055556,-0.255555556,0,0,0,,,,,,1,test,"In the next phase you will be presented with the words from the the first phase. Your job is to decide whether you remember seeing the word or not. If you remember seeing the word press ""old"" or type ""m"". If you do not remember seeing the word press ""new"" or type ""z"". Please press the space bar or click on continue to begin. ",,,5f5fc8153ba37c07caa9b45e,25,2022-02-12_16h49.34.359,lexical_decision_task_DD_L3,2021.2.3,Win32,60.09615385,,,,,,,,,,,,,,,,,,,,,,,,,,,,,,,,,,,,,,,,,,,,,,,,,,,,,,,,,,,,,,,,,,1,0,1,0,1,,,,,,,,,,,,,,,,
space,4.024,0.093055556,-0.255555556,0,0,0,,,,,,1,test,"In the next phase you will be presented with the words from the the first phase. Your job is to decide whether you remember seeing the word or not. If you remember seeing the word press ""old"" or type ""m"". If you do not remember seeing the word press ""new"" or type ""z"". Please press the space bar or click on continue to begin. ",,,5f5fc8153ba37c07caa9b45e,25,2022-02-12_16h49.34.359,lexical_decision_task_DD_L3,2021.2.3,Win32,60.09615385,,,,,,,,,,,,,,,,,,,,,,,,,,,,,,,,,,,,,,,,,,,,,,,,,,,,,,,,,,,,,,,,,,2,0,2,0,1,,,,,,,,,,,,,,,,
,,0.004166667,-0.384722222,1,0,0,,,,,,1,test,"In the next phase you will be presented with the words from the the first phase. Your job is to decide whether you remember seeing the word or not. If you remember seeing the word press ""old"" or type ""m"". If you do not remember seeing the word press ""new"" or type ""z"". Please press the space bar or click on continue to begin. ",,,5f5fc8153ba37c07caa9b45e,25,2022-02-12_16h49.34.359,lexical_decision_task_DD_L3,2021.2.3,Win32,60.09615385,,,,,,,,,,,,,,,,,,,,,,,,,,,,,,,,,,,,,,,,,,,,,,,,,,,,,,,,,,,,,,,,,,3,0,3,0,1,instr_done_button,,,,,,,,,,,,,,,
,,0.004166667,-0.384722222,1,0,0,,,,,,1,test,"In the next phase you will be presented with the words from the the first phase. Your job is to decide whether you remember seeing the word or not. If you remember seeing the word press ""old"" or type ""m"". If you do not remember seeing the word press ""new"" or type ""z"". Please press the space bar or click on continue to begin. ",,,5f5fc8153ba37c07caa9b45e,25,2022-02-12_16h49.34.359,lexical_decision_task_DD_L3,2021.2.3,Win32,60.09615385,,,,,,,,,,,,,,,,,,,,,,,,,,,,,,,,,,,,,,,,,,,,,,,,,,,,,,,,,,,,,,,,,,4,0,4,0,1,instr_done_button,,,,,,,,,,,,,,,
,,,,,,,,,,,,,,,,,5f5fc8153ba37c07caa9b45e,25,2022-02-12_16h49.34.359,lexical_decision_task_DD_L3,2021.2.3,Win32,60.09615385,,,,,,,,,,,1.627,1,,,,,,,,,,,,,,,,,,,,,,,,0.004166667,-0.384722222,0,0,0,,,,,,,URINE,C,m,m,./images/URINE.png,,,,,,,,,,,,,,,,,,,,,m,1,1.627,,,,,,,,0,0,0,70,1
,,,,,,,,,,,,,,,,,5f5fc8153ba37c07caa9b45e,25,2022-02-12_16h49.34.359,lexical_decision_task_DD_L3,2021.2.3,Win32,60.09615385,,,,,,,,,,,0.766,1,,,,,,,,,,,,,,,,,,,,,,,,0.004166667,-0.384722222,0,0,0,,,,,,,PAINT,C,m,m,./images/PAINT.png,,,,,,,,,,,,,,,,,,,,,m,1,0.766,,,,,,,,0,1,1,7,1
,,,,,,,,,,,,,,,,,5f5fc8153ba37c07caa9b45e,25,2022-02-12_16h49.34.359,lexical_decision_task_DD_L3,2021.2.3,Win32,60.09615385,,,,,,,,,,,0.698,1,,,,,,,,,,,,,,,,,,,,,,,,0.004166667,-0.384722222,0,0,0,,,,,,,MIRROR,LB,m,m,./images/MIRRORLB.png,,,,,,,,,,,,,,,,,,,,,m,1,0.698,,,,,,,,0,2,2,63,1
,,,,,,,,,,,,,,,,,5f5fc8153ba37c07caa9b45e,25,2022-02-12_16h49.34.359,lexical_decision_task_DD_L3,2021.2.3,Win32,60.09615385,,,,,,,,,,,1.436,1,,,,,,,,,,,,,,,,,,,,,,,,0.004166667,-0.384722222,0,0,0,,,,,,,CLIFF,HB,z,m,./images/CLIFFHB.png,,,,,,,,,,,,,,,,,,,,,z,1,1.436,,,,,,,,0,3,3,92,1
,,,,,,,,,,,,,,,,,5f5fc8153ba37c07caa9b45e,25,2022-02-12_16h49.34.359,lexical_decision_task_DD_L3,2021.2.3,Win32,60.09615385,,,,,,,,,,,0.9,1,,,,,,,,,,,,,,,,,,,,,,,,0.004166667,-0.384722222,0,0,0,,,,,,,MONKEY,LB,z,m,./images/MONKEYLB.png,,,,,,,,,,,,,,,,,,,,,z,1,0.9,,,,,,,,0,4,4,129,1
,,,,,,,,,,,,,,,,,5f5fc8153ba37c07caa9b45e,25,2022-02-12_16h49.34.359,lexical_decision_task_DD_L3,2021.2.3,Win32,60.09615385,,,,,,,,,,,0.886,0,,,,,,,,,,,,,,,,,,,,,,,,0.004166667,-0.384722222,0,0,0,,,,,,,BIRTH,C,m,m,./images/BIRTH.png,,,,,,,,,,,,,,,,,,,,,z,0,0.886,,,,,,,,0,5,5,37,1
,,,,,,,,,,,,,,,,,5f5fc8153ba37c07caa9b45e,25,2022-02-12_16h49.34.359,lexical_decision_task_DD_L3,2021.2.3,Win32,60.09615385,,,,,,,,,,,0.86,1,,,,,,,,,,,,,,,,,,,,,,,,0.004166667,-0.384722222,0,0,0,,,,,,,PARADE,HB,z,m,./images/PARADEHB.png,,,,,,,,,,,,,,,,,,,,,z,1,0.86,,,,,,,,0,6,6,101,1
,,,,,,,,,,,,,,,,,5f5fc8153ba37c07caa9b45e,25,2022-02-12_16h49.34.359,lexical_decision_task_DD_L3,2021.2.3,Win32,60.09615385,,,,,,,,,,,0.823,1,,,,,,,,,,,,,,,,,,,,,,,,0.004166667,-0.384722222,0,0,0,,,,,,,WHISKY,HB,z,m,./images/WHISKYHB.png,,,,,,,,,,,,,,,,,,,,,z,1,0.823,,,,,,,,0,7,7,167,1
,,,,,,,,,,,,,,,,,5f5fc8153ba37c07caa9b45e,25,2022-02-12_16h49.34.359,lexical_decision_task_DD_L3,2021.2.3,Win32,60.09615385,,,,,,,,,,,0.638,0,,,,,,,,,,,,,,,,,,,,,,,,0.004166667,-0.384722222,0,0,0,,,,,,,BUTTER,LB,z,m,./images/BUTTERLB.png,,,,,,,,,,,,,,,,,,,,,m,0,0.638,,,,,,,,0,8,8,111,1
,,,,,,,,,,,,,,,,,5f5fc8153ba37c07caa9b45e,25,2022-02-12_16h49.34.359,lexical_decision_task_DD_L3,2021.2.3,Win32,60.09615385,,,,,,,,,,,0.879,1,,,,,,,,,,,,,,,,,,,,,,,,0.004166667,-0.384722222,0,0,0,,,,,,,DIVER,LB,z,m,./images/DIVERLB.png,,,,,,,,,,,,,,,,,,,,,z,1,0.879,,,,,,,,0,9,9,93,1
,,,,,,,,,,,,,,,,,5f5fc8153ba37c07caa9b45e,25,2022-02-12_16h49.34.359,lexical_decision_task_DD_L3,2021.2.3,Win32,60.09615385,,,,,,,,,,,0.705,1,,,,,,,,,,,,,,,,,,,,,,,,0.004166667,-0.384722222,0,0,0,,,,,,,SAUNA,LB,z,m,./images/SAUNALB.png,,,,,,,,,,,,,,,,,,,,,z,1,0.705,,,,,,,,0,10,10,117,1
,,,,,,,,,,,,,,,,,5f5fc8153ba37c07caa9b45e,25,2022-02-12_16h49.34.359,lexical_decision_task_DD_L3,2021.2.3,Win32,60.09615385,,,,,,,,,,,0.702,1,,,,,,,,,,,,,,,,,,,,,,,,0.004166667,-0.384722222,0,0,0,,,,,,,SUNSET,C,m,m,./images/SUNSET.png,,,,,,,,,,,,,,,,,,,,,m,1,0.702,,,,,,,,0,11,11,82,1
,,,,,,,,,,,,,,,,,5f5fc8153ba37c07caa9b45e,25,2022-02-12_16h49.34.359,lexical_decision_task_DD_L3,2021.2.3,Win32,60.09615385,,,,,,,,,,,0.967,1,,,,,,,,,,,,,,,,,,,,,,,,0.004166667,-0.384722222,0,0,0,,,,,,,PLANET,HB,z,m,./images/PLANETHB.png,,,,,,,,,,,,,,,,,,,,,z,1,0.967,,,,,,,,0,12,12,164,1
,,,,,,,,,,,,,,,,,5f5fc8153ba37c07caa9b45e,25,2022-02-12_16h49.34.359,lexical_decision_task_DD_L3,2021.2.3,Win32,60.09615385,,,,,,,,,,,0.82,1,,,,,,,,,,,,,,,,,,,,,,,,0.004166667,-0.384722222,0,0,0,,,,,,,RULER,C,z,m,./images/RULER.png,,,,,,,,,,,,,,,,,,,,,z,1,0.82,,,,,,,,0,13,13,163,1
,,,,,,,,,,,,,,,,,5f5fc8153ba37c07caa9b45e,25,2022-02-12_16h49.34.359,lexical_decision_task_DD_L3,2021.2.3,Win32,60.09615385,,,,,,,,,,,0.704,1,,,,,,,,,,,,,,,,,,,,,,,,0.004166667,-0.384722222,0,0,0,,,,,,,HOCKEY,HB,z,m,./images/HOCKEYHB.png,,,,,,,,,,,,,,,,,,,,,z,1,0.704,,,,,,,,0,14,14,116,1
,,,,,,,,,,,,,,,,,5f5fc8153ba37c07caa9b45e,25,2022-02-12_16h49.34.359,lexical_decision_task_DD_L3,2021.2.3,Win32,60.09615385,,,,,,,,,,,1.153,1,,,,,,,,,,,,,,,,,,,,,,,,0.004166667,-0.384722222,0,0,0,,,,,,,BASKET,HB,z,m,./images/BASKETHB.png,,,,,,,,,,,,,,,,,,,,,z,1,1.153,,,,,,,,0,15,15,128,1
,,,,,,,,,,,,,,,,,5f5fc8153ba37c07caa9b45e,25,2022-02-12_16h49.34.359,lexical_decision_task_DD_L3,2021.2.3,Win32,60.09615385,,,,,,,,,,,0.598,1,,,,,,,,,,,,,,,,,,,,,,,,0.004166667,-0.384722222,0,0,0,,,,,,,THROAT,LB,m,m,./images/THROATLB.png,,,,,,,,,,,,,,,,,,,,,m,1,0.598,,,,,,,,0,16,16,36,1
,,,,,,,,,,,,,,,,,5f5fc8153ba37c07caa9b45e,25,2022-02-12_16h49.34.359,lexical_decision_task_DD_L3,2021.2.3,Win32,60.09615385,,,,,,,,,,,0.581,1,,,,,,,,,,,,,,,,,,,,,,,,0.004166667,-0.384722222,0,0,0,,,,,,,JAGUAR,LB,m,m,./images/JAGUARLB.png,,,,,,,,,,,,,,,,,,,,,m,1,0.581,,,,,,,,0,17,17,18,1
,,,,,,,,,,,,,,,,,5f5fc8153ba37c07caa9b45e,25,2022-02-12_16h49.34.359,lexical_decision_task_DD_L3,2021.2.3,Win32,60.09615385,,,,,,,,,,,0.782,1,,,,,,,,,,,,,,,,,,,,,,,,0.004166667,-0.384722222,0,0,0,,,,,,,QUILL,C,m,m,./images/QUILL.png,,,,,,,,,,,,,,,,,,,,,m,1,0.782,,,,,,,,0,18,18,31,1
,,,,,,,,,,,,,,,,,5f5fc8153ba37c07caa9b45e,25,2022-02-12_16h49.34.359,lexical_decision_task_DD_L3,2021.2.3,Win32,60.09615385,,,,,,,,,,,0.678,1,,,,,,,,,,,,,,,,,,,,,,,,0.004166667,-0.384722222,0,0,0,,,,,,,VALLEY,HB,z,m,./images/VALLEYHB.png,,,,,,,,,,,,,,,,,,,,,z,1,0.678,,,,,,,,0,19,19,152,1
,,,,,,,,,,,,,,,,,5f5fc8153ba37c07caa9b45e,25,2022-02-12_16h49.34.359,lexical_decision_task_DD_L3,2021.2.3,Win32,60.09615385,,,,,,,,,,,0.945,1,,,,,,,,,,,,,,,,,,,,,,,,0.004166667,-0.384722222,0,0,0,,,,,,,SPORT,LB,m,m,./images/SPORTLB.png,,,,,,,,,,,,,,,,,,,,,m,1,0.945,,,,,,,,0,20,20,48,1
,,,,,,,,,,,,,,,,,5f5fc8153ba37c07caa9b45e,25,2022-02-12_16h49.34.359,lexical_decision_task_DD_L3,2021.2.3,Win32,60.09615385,,,,,,,,,,,0.597,1,,,,,,,,,,,,,,,,,,,,,,,,0.004166667,-0.384722222,0,0,0,,,,,,,CRUST,C,m,m,./images/CRUST.png,,,,,,,,,,,,,,,,,,,,,m,1,0.597,,,,,,,,0,21,21,79,1
,,,,,,,,,,,,,,,,,5f5fc8153ba37c07caa9b45e,25,2022-02-12_16h49.34.359,lexical_decision_task_DD_L3,2021.2.3,Win32,60.09615385,,,,,,,,,,,0.608,1,,,,,,,,,,,,,,,,,,,,,,,,0.004166667,-0.384722222,0,0,0,,,,,,,CASINO,C,z,m,./images/CASINO.png,,,,,,,,,,,,,,,,,,,,,z,1,0.608,,,,,,,,0,22,22,112,1
,,,,,,,,,,,,,,,,,5f5fc8153ba37c07caa9b45e,25,2022-02-12_16h49.34.359,lexical_decision_task_DD_L3,2021.2.3,Win32,60.09615385,,,,,,,,,,,0.688,1,,,,,,,,,,,,,,,,,,,,,,,,0.004166667,-0.384722222,0,0,0,,,,,,,HEATER,HB,z,m,./images/HEATERHB.png,,,,,,,,,,,,,,,,,,,,,z,1,0.688,,,,,,,,0,23,23,140,1
,,,,,,,,,,,,,,,,,5f5fc8153ba37c07caa9b45e,25,2022-02-12_16h49.34.359,lexical_decision_task_DD_L3,2021.2.3,Win32,60.09615385,,,,,,,,,,,0.633,1,,,,,,,,,,,,,,,,,,,,,,,,0.004166667,-0.384722222,0,0,0,,,,,,,DRUMS,C,m,m,./images/DRUMS.png,,,,,,,,,,,,,,,,,,,,,m,1,0.633,,,,,,,,0,24,24,49,1
,,,,,,,,,,,,,,,,,5f5fc8153ba37c07caa9b45e,25,2022-02-12_16h49.34.359,lexical_decision_task_DD_L3,2021.2.3,Win32,60.09615385,,,,,,,,,,,0.549,1,,,,,,,,,,,,,,,,,,,,,,,,0.004166667,-0.384722222,0,0,0,,,,,,,DOUGH,C,m,m,./images/DOUGH.png,,,,,,,,,,,,,,,,,,,,,m,1,0.549,,,,,,,,0,25,25,19,1
,,,,,,,,,,,,,,,,,5f5fc8153ba37c07caa9b45e,25,2022-02-12_16h49.34.359,lexical_decision_task_DD_L3,2021.2.3,Win32,60.09615385,,,,,,,,,,,0.861,0,,,,,,,,,,,,,,,,,,,,,,,,0.004166667,-0.384722222,0,0,0,,,,,,,FLASK,LB,z,m,./images/FLASKLB.png,,,,,,,,,,,,,,,,,,,,,m,0,0.861,,,,,,,,0,26,26,156,1
,,,,,,,,,,,,,,,,,5f5fc8153ba37c07caa9b45e,25,2022-02-12_16h49.34.359,lexical_decision_task_DD_L3,2021.2.3,Win32,60.09615385,,,,,,,,,,,0.675,1,,,,,,,,,,,,,,,,,,,,,,,,0.004166667,-0.384722222,0,0,0,,,,,,,CLOUD,HB,z,m,./images/CLOUDHB.png,,,,,,,,,,,,,,,,,,,,,z,1,0.675,,,,,,,,0,27,27,110,1
,,,,,,,,,,,,,,,,,5f5fc8153ba37c07caa9b45e,25,2022-02-12_16h49.34.359,lexical_decision_task_DD_L3,2021.2.3,Win32,60.09615385,,,,,,,,,,,0.703,1,,,,,,,,,,,,,,,,,,,,,,,,0.004166667,-0.384722222,0,0,0,,,,,,,TRIPOD,LB,m,m,./images/TRIPODLB.png,,,,,,,,,,,,,,,,,,,,,m,1,0.703,,,,,,,,0,28,28,54,1
,,,,,,,,,,,,,,,,,5f5fc8153ba37c07caa9b45e,25,2022-02-12_16h49.34.359,lexical_decision_task_DD_L3,2021.2.3,Win32,60.09615385,,,,,,,,,,,0.881,0,,,,,,,,,,,,,,,,,,,,,,,,0.004166667,-0.384722222,0,0,0,,,,,,,ENGINE,HB,z,m,./images/ENGINEHB.png,,,,,,,,,,,,,,,,,,,,,m,0,0.881,,,,,,,,0,29,29,122,1
,,,,,,,,,,,,,,,,,5f5fc8153ba37c07caa9b45e,25,2022-02-12_16h49.34.359,lexical_decision_task_DD_L3,2021.2.3,Win32,60.09615385,,,,,,,,,,,0.836,1,,,,,,,,,,,,,,,,,,,,,,,,0.004166667,-0.384722222,0,0,0,,,,,,,PEBBLE,C,z,m,./images/PEBBLE.png,,,,,,,,,,,,,,,,,,,,,z,1,0.836,,,,,,,,0,30,30,166,1
,,,,,,,,,,,,,,,,,5f5fc8153ba37c07caa9b45e,25,2022-02-12_16h49.34.359,lexical_decision_task_DD_L3,2021.2.3,Win32,60.09615385,,,,,,,,,,,0.898,0,,,,,,,,,,,,,,,,,,,,,,,,0.004166667,-0.384722222,0,0,0,,,,,,,TWINS,LB,m,m,./images/TWINSLB.png,,,,,,,,,,,,,,,,,,,,,z,0,0.898,,,,,,,,0,31,31,60,1
,,,,,,,,,,,,,,,,,5f5fc8153ba37c07caa9b45e,25,2022-02-12_16h49.34.359,lexical_decision_task_DD_L3,2021.2.3,Win32,60.09615385,,,,,,,,,,,0.64,1,,,,,,,,,,,,,,,,,,,,,,,,0.004166667,-0.384722222,0,0,0,,,,,,,TORCH,HB,m,m,./images/TORCHHB.png,,,,,,,,,,,,,,,,,,,,,m,1,0.64,,,,,,,,0,32,32,68,1
,,,,,,,,,,,,,,,,,5f5fc8153ba37c07caa9b45e,25,2022-02-12_16h49.34.359,lexical_decision_task_DD_L3,2021.2.3,Win32,60.09615385,,,,,,,,,,,0.556,1,,,,,,,,,,,,,,,,,,,,,,,,0.004166667,-0.384722222,0,0,0,,,,,,,PEACH,HB,m,m,./images/PEACHHB.png,,,,,,,,,,,,,,,,,,,,,m,1,0.556,,,,,,,,0,33,33,35,1
,,,,,,,,,,,,,,,,,5f5fc8153ba37c07caa9b45e,25,2022-02-12_16h49.34.359,lexical_decision_task_DD_L3,2021.2.3,Win32,60.09615385,,,,,,,,,,,0.612,1,,,,,,,,,,,,,,,,,,,,,,,,0.004166667,-0.384722222,0,0,0,,,,,,,CARPET,HB,m,m,./images/CARPETHB.png,,,,,,,,,,,,,,,,,,,,,m,1,0.612,,,,,,,,0,34,34,53,1
,,,,,,,,,,,,,,,,,5f5fc8153ba37c07caa9b45e,25,2022-02-12_16h49.34.359,lexical_decision_task_DD_L3,2021.2.3,Win32,60.09615385,,,,,,,,,,,0.608,0,,,,,,,,,,,,,,,,,,,,,,,,0.004166667,-0.384722222,0,0,0,,,,,,,STAIN,LB,z,m,./images/STAINLB.png,,,,,,,,,,,,,,,,,,,,,m,0,0.608,,,,,,,,0,35,35,90,1
,,,,,,,,,,,,,,,,,5f5fc8153ba37c07caa9b45e,25,2022-02-12_16h49.34.359,lexical_decision_task_DD_L3,2021.2.3,Win32,60.09615385,,,,,,,,,,,0.823,1,,,,,,,,,,,,,,,,,,,,,,,,0.004166667,-0.384722222,0,0,0,,,,,,,MIDGET,C,z,m,./images/MIDGET.png,,,,,,,,,,,,,,,,,,,,,z,1,0.823,,,,,,,,0,36,36,160,1
,,,,,,,,,,,,,,,,,5f5fc8153ba37c07caa9b45e,25,2022-02-12_16h49.34.359,lexical_decision_task_DD_L3,2021.2.3,Win32,60.09615385,,,,,,,,,,,0.739,1,,,,,,,,,,,,,,,,,,,,,,,,0.004166667,-0.384722222,0,0,0,,,,,,,TOWEL,C,z,m,./images/TOWEL.png,,,,,,,,,,,,,,,,,,,,,z,1,0.739,,,,,,,,0,37,37,85,1
,,,,,,,,,,,,,,,,,5f5fc8153ba37c07caa9b45e,25,2022-02-12_16h49.34.359,lexical_decision_task_DD_L3,2021.2.3,Win32,60.09615385,,,,,,,,,,,0.632,1,,,,,,,,,,,,,,,,,,,,,,,,0.004166667,-0.384722222,0,0,0,,,,,,,GREASE,LB,m,m,./images/GREASELB.png,,,,,,,,,,,,,,,,,,,,,m,1,0.632,,,,,,,,0,38,38,15,1
,,,,,,,,,,,,,,,,,5f5fc8153ba37c07caa9b45e,25,2022-02-12_16h49.34.359,lexical_decision_task_DD_L3,2021.2.3,Win32,60.09615385,,,,,,,,,,,0.844,1,,,,,,,,,,,,,,,,,,,,,,,,0.004166667,-0.384722222,0,0,0,,,,,,,TIGER,C,z,m,./images/TIGER.png,,,,,,,,,,,,,,,,,,,,,z,1,0.844,,,,,,,,0,39,39,121,1
,,,,,,,,,,,,,,,,,5f5fc8153ba37c07caa9b45e,25,2022-02-12_16h49.34.359,lexical_decision_task_DD_L3,2021.2.3,Win32,60.09615385,,,,,,,,,,,0.555,1,,,,,,,,,,,,,,,,,,,,,,,,0.004166667,-0.384722222,0,0,0,,,,,,,LADDER,HB,m,m,./images/LADDERHB.png,,,,,,,,,,,,,,,,,,,,,m,1,0.555,,,,,,,,0,40,40,38,1
,,,,,,,,,,,,,,,,,5f5fc8153ba37c07caa9b45e,25,2022-02-12_16h49.34.359,lexical_decision_task_DD_L3,2021.2.3,Win32,60.09615385,,,,,,,,,,,0.649,1,,,,,,,,,,,,,,,,,,,,,,,,0.0125,-0.370833333,0,0,0,space,,,,,,CANOE,C,z,m,./images/CANOE.png,10.149,,,,,,,,,,,,,,,,,,,,z,1,0.649,,,,,,,,0,41,41,142,1
,,,,,,,,,,,,,,,,,5f5fc8153ba37c07caa9b45e,25,2022-02-12_16h49.34.359,lexical_decision_task_DD_L3,2021.2.3,Win32,60.09615385,,,,,,,,,,,0.745,1,,,,,,,,,,,,,,,,,,,,,,,,0.0125,-0.370833333,0,0,0,,,,,,,BERRY,HB,m,m,./images/BERRYHB.png,,,,,,,,,,,,,,,,,,,,,m,1,0.745,,,,,,,,0,42,42,47,1
,,,,,,,,,,,,,,,,,5f5fc8153ba37c07caa9b45e,25,2022-02-12_16h49.34.359,lexical_decision_task_DD_L3,2021.2.3,Win32,60.09615385,,,,,,,,,,,0.819,1,,,,,,,,,,,,,,,,,,,,,,,,0.0125,-0.370833333,0,0,0,,,,,,,GRAPE,C,z,m,./images/GRAPE.png,,,,,,,,,,,,,,,,,,,,,z,1,0.819,,,,,,,,0,43,43,100,1
,,,,,,,,,,,,,,,,,5f5fc8153ba37c07caa9b45e,25,2022-02-12_16h49.34.359,lexical_decision_task_DD_L3,2021.2.3,Win32,60.09615385,,,,,,,,,,,0.744,1,,,,,,,,,,,,,,,,,,,,,,,,0.0125,-0.370833333,0,0,0,,,,,,,DONKEY,C,z,m,./images/DONKEY.png,,,,,,,,,,,,,,,,,,,,,z,1,0.744,,,,,,,,0,44,44,103,1
,,,,,,,,,,,,,,,,,5f5fc8153ba37c07caa9b45e,25,2022-02-12_16h49.34.359,lexical_decision_task_DD_L3,2021.2.3,Win32,60.09615385,,,,,,,,,,,0.596,1,,,,,,,,,,,,,,,,,,,,,,,,0.0125,-0.370833333,0,0,0,,,,,,,SNACK,C,m,m,./images/SNACK.png,,,,,,,,,,,,,,,,,,,,,m,1,0.596,,,,,,,,0,45,45,73,1
,,,,,,,,,,,,,,,,,5f5fc8153ba37c07caa9b45e,25,2022-02-12_16h49.34.359,lexical_decision_task_DD_L3,2021.2.3,Win32,60.09615385,,,,,,,,,,,0.921,0,,,,,,,,,,,,,,,,,,,,,,,,0.0125,-0.370833333,0,0,0,,,,,,,PARCEL,LB,z,m,./images/PARCELLB.png,,,,,,,,,,,,,,,,,,,,,m,0,0.921,,,,,,,,0,46,46,102,1
,,,,,,,,,,,,,,,,,5f5fc8153ba37c07caa9b45e,25,2022-02-12_16h49.34.359,lexical_decision_task_DD_L3,2021.2.3,Win32,60.09615385,,,,,,,,,,,0.632,1,,,,,,,,,,,,,,,,,,,,,,,,0.0125,-0.370833333,0,0,0,,,,,,,MUFFIN,C,m,m,./images/MUFFIN.png,,,,,,,,,,,,,,,,,,,,,m,1,0.632,,,,,,,,0,47,47,55,1
,,,,,,,,,,,,,,,,,5f5fc8153ba37c07caa9b45e,25,2022-02-12_16h49.34.359,lexical_decision_task_DD_L3,2021.2.3,Win32,60.09615385,,,,,,,,,,,1.031,0,,,,,,,,,,,,,,,,,,,,,,,,0.0125,-0.370833333,0,0,0,,,,,,,POKER,C,z,m,./images/POKER.png,,,,,,,,,,,,,,,,,,,,,m,0,1.031,,,,,,,,0,48,48,151,1
,,,,,,,,,,,,,,,,,5f5fc8153ba37c07caa9b45e,25,2022-02-12_16h49.34.359,lexical_decision_task_DD_L3,2021.2.3,Win32,60.09615385,,,,,,,,,,,0.606,0,,,,,,,,,,,,,,,,,,,,,,,,0.0125,-0.370833333,0,0,0,,,,,,,DRILL,LB,z,m,./images/DRILLLB.png,,,,,,,,,,,,,,,,,,,,,m,0,0.606,,,,,,,,0,49,49,165,1
,,,,,,,,,,,,,,,,,5f5fc8153ba37c07caa9b45e,25,2022-02-12_16h49.34.359,lexical_decision_task_DD_L3,2021.2.3,Win32,60.09615385,,,,,,,,,,,0.944,1,,,,,,,,,,,,,,,,,,,,,,,,0.0125,-0.370833333,0,0,0,,,,,,,BOXER,C,z,m,./images/BOXER.png,,,,,,,,,,,,,,,,,,,,,z,1,0.944,,,,,,,,0,50,50,88,1
,,,,,,,,,,,,,,,,,5f5fc8153ba37c07caa9b45e,25,2022-02-12_16h49.34.359,lexical_decision_task_DD_L3,2021.2.3,Win32,60.09615385,,,,,,,,,,,0.645,1,,,,,,,,,,,,,,,,,,,,,,,,0.0125,-0.370833333,0,0,0,,,,,,,KITTEN,LB,m,m,./images/KITTENLB.png,,,,,,,,,,,,,,,,,,,,,m,1,0.645,,,,,,,,0,51,51,45,1
,,,,,,,,,,,,,,,,,5f5fc8153ba37c07caa9b45e,25,2022-02-12_16h49.34.359,lexical_decision_task_DD_L3,2021.2.3,Win32,60.09615385,,,,,,,,,,,0.71,1,,,,,,,,,,,,,,,,,,,,,,,,0.0125,-0.370833333,0,0,0,,,,,,,RHINO,LB,m,m,./images/RHINOLB.png,,,,,,,,,,,,,,,,,,,,,m,1,0.71,,,,,,,,0,52,52,9,1
,,,,,,,,,,,,,,,,,5f5fc8153ba37c07caa9b45e,25,2022-02-12_16h49.34.359,lexical_decision_task_DD_L3,2021.2.3,Win32,60.09615385,,,,,,,,,,,0.665,0,,,,,,,,,,,,,,,,,,,,,,,,0.0125,-0.370833333,0,0,0,,,,,,,BAMBOO,HB,z,m,./images/BAMBOOHB.png,,,,,,,,,,,,,,,,,,,,,m,0,0.665,,,,,,,,0,53,53,89,1
,,,,,,,,,,,,,,,,,5f5fc8153ba37c07caa9b45e,25,2022-02-12_16h49.34.359,lexical_decision_task_DD_L3,2021.2.3,Win32,60.09615385,,,,,,,,,,,0.965,1,,,,,,,,,,,,,,,,,,,,,,,,0.0125,-0.370833333,0,0,0,,,,,,,GRAIN,LB,m,m,./images/GRAINLB.png,,,,,,,,,,,,,,,,,,,,,m,1,0.965,,,,,,,,0,54,54,75,1
,,,,,,,,,,,,,,,,,5f5fc8153ba37c07caa9b45e,25,2022-02-12_16h49.34.359,lexical_decision_task_DD_L3,2021.2.3,Win32,60.09615385,,,,,,,,,,,0.979,1,,,,,,,,,,,,,,,,,,,,,,,,0.0125,-0.370833333,0,0,0,,,,,,,HAMMER,LB,z,m,./images/HAMMERLB.png,,,,,,,,,,,,,,,,,,,,,z,1,0.979,,,,,,,,0,55,55,159,1
,,,,,,,,,,,,,,,,,5f5fc8153ba37c07caa9b45e,25,2022-02-12_16h49.34.359,lexical_decision_task_DD_L3,2021.2.3,Win32,60.09615385,,,,,,,,,,,0.636,1,,,,,,,,,,,,,,,,,,,,,,,,0.0125,-0.370833333,0,0,0,,,,,,,STORM,LB,m,m,./images/STORMLB.png,,,,,,,,,,,,,,,,,,,,,m,1,0.636,,,,,,,,0,56,56,30,1
,,,,,,,,,,,,,,,,,5f5fc8153ba37c07caa9b45e,25,2022-02-12_16h49.34.359,lexical_decision_task_DD_L3,2021.2.3,Win32,60.09615385,,,,,,,,,,,0.885,1,,,,,,,,,,,,,,,,,,,,,,,,0.0125,-0.370833333,0,0,0,,,,,,,CANYON,C,m,m,./images/CANYON.png,,,,,,,,,,,,,,,,,,,,,m,1,0.885,,,,,,,,0,57,57,34,1
,,,,,,,,,,,,,,,,,5f5fc8153ba37c07caa9b45e,25,2022-02-12_16h49.34.359,lexical_decision_task_DD_L3,2021.2.3,Win32,60.09615385,,,,,,,,,,,0.639,1,,,,,,,,,,,,,,,,,,,,,,,,0.0125,-0.370833333,0,0,0,,,,,,,PENCE,C,m,m,./images/PENCE.png,,,,,,,,,,,,,,,,,,,,,m,1,0.639,,,,,,,,0,58,58,16,1
,,,,,,,,,,,,,,,,,5f5fc8153ba37c07caa9b45e,25,2022-02-12_16h49.34.359,lexical_decision_task_DD_L3,2021.2.3,Win32,60.09615385,,,,,,,,,,,0.745,1,,,,,,,,,,,,,,,,,,,,,,,,0.0125,-0.370833333,0,0,0,,,,,,,GLOVE,C,z,m,./images/GLOVE.png,,,,,,,,,,,,,,,,,,,,,z,1,0.745,,,,,,,,0,59,59,157,1
,,,,,,,,,,,,,,,,,5f5fc8153ba37c07caa9b45e,25,2022-02-12_16h49.34.359,lexical_decision_task_DD_L3,2021.2.3,Win32,60.09615385,,,,,,,,,,,0.849,1,,,,,,,,,,,,,,,,,,,,,,,,0.0125,-0.370833333,0,0,0,,,,,,,SHIELD,LB,z,m,./images/SHIELDLB.png,,,,,,,,,,,,,,,,,,,,,z,1,0.849,,,,,,,,0,60,60,132,1
,,,,,,,,,,,,,,,,,5f5fc8153ba37c07caa9b45e,25,2022-02-12_16h49.34.359,lexical_decision_task_DD_L3,2021.2.3,Win32,60.09615385,,,,,,,,,,,0.779,1,,,,,,,,,,,,,,,,,,,,,,,,0.0125,-0.370833333,0,0,0,,,,,,,POSTER,HB,z,m,./images/POSTERHB.png,,,,,,,,,,,,,,,,,,,,,z,1,0.779,,,,,,,,0,61,61,137,1
,,,,,,,,,,,,,,,,,5f5fc8153ba37c07caa9b45e,25,2022-02-12_16h49.34.359,lexical_decision_task_DD_L3,2021.2.3,Win32,60.09615385,,,,,,,,,,,0.905,0,,,,,,,,,,,,,,,,,,,,,,,,0.0125,-0.370833333,0,0,0,,,,,,,PILOT,HB,z,m,./images/PILOTHB.png,,,,,,,,,,,,,,,,,,,,,m,0,0.905,,,,,,,,0,62,62,134,1
,,,,,,,,,,,,,,,,,5f5fc8153ba37c07caa9b45e,25,2022-02-12_16h49.34.359,lexical_decision_task_DD_L3,2021.2.3,Win32,60.09615385,,,,,,,,,,,0.703,1,,,,,,,,,,,,,,,,,,,,,,,,0.0125,-0.370833333,0,0,0,,,,,,,CURRY,LB,z,m,./images/CURRYLB.png,,,,,,,,,,,,,,,,,,,,,z,1,0.703,,,,,,,,0,63,63,144,1
,,,,,,,,,,,,,,,,,5f5fc8153ba37c07caa9b45e,25,2022-02-12_16h49.34.359,lexical_decision_task_DD_L3,2021.2.3,Win32,60.09615385,,,,,,,,,,,0.648,1,,,,,,,,,,,,,,,,,,,,,,,,0.0125,-0.370833333,0,0,0,,,,,,,PICKLE,HB,m,m,./images/PICKLEHB.png,,,,,,,,,,,,,,,,,,,,,m,1,0.648,,,,,,,,0,64,64,14,1
,,,,,,,,,,,,,,,,,5f5fc8153ba37c07caa9b45e,25,2022-02-12_16h49.34.359,lexical_decision_task_DD_L3,2021.2.3,Win32,60.09615385,,,,,,,,,,,0.586,1,,,,,,,,,,,,,,,,,,,,,,,,0.0125,-0.370833333,0,0,0,,,,,,,CRUMB,HB,m,m,./images/CRUMBHB.png,,,,,,,,,,,,,,,,,,,,,m,1,0.586,,,,,,,,0,65,65,29,1
,,,,,,,,,,,,,,,,,5f5fc8153ba37c07caa9b45e,25,2022-02-12_16h49.34.359,lexical_decision_task_DD_L3,2021.2.3,Win32,60.09615385,,,,,,,,,,,0.669,1,,,,,,,,,,,,,,,,,,,,,,,,0.0125,-0.370833333,0,0,0,,,,,,,PURSE,HB,m,m,./images/PURSEHB.png,,,,,,,,,,,,,,,,,,,,,m,1,0.669,,,,,,,,0,66,66,62,1
,,,,,,,,,,,,,,,,,5f5fc8153ba37c07caa9b45e,25,2022-02-12_16h49.34.359,lexical_decision_task_DD_L3,2021.2.3,Win32,60.09615385,,,,,,,,,,,1.442,1,,,,,,,,,,,,,,,,,,,,,,,,0.0125,-0.370833333,0,0,0,,,,,,,WHEEL,HB,z,m,./images/WHEELHB.png,,,,,,,,,,,,,,,,,,,,,z,1,1.442,,,,,,,,0,67,67,161,1
,,,,,,,,,,,,,,,,,5f5fc8153ba37c07caa9b45e,25,2022-02-12_16h49.34.359,lexical_decision_task_DD_L3,2021.2.3,Win32,60.09615385,,,,,,,,,,,0.965,1,,,,,,,,,,,,,,,,,,,,,,,,0.0125,-0.370833333,0,0,0,,,,,,,STEAK,C,z,m,./images/STEAK.png,,,,,,,,,,,,,,,,,,,,,z,1,0.965,,,,,,,,0,68,68,115,1
,,,,,,,,,,,,,,,,,5f5fc8153ba37c07caa9b45e,25,2022-02-12_16h49.34.359,lexical_decision_task_DD_L3,2021.2.3,Win32,60.09615385,,,,,,,,,,,0.659,1,,,,,,,,,,,,,,,,,,,,,,,,0.0125,-0.370833333,0,0,0,,,,,,,RAZOR,C,z,m,./images/RAZOR.png,,,,,,,,,,,,,,,,,,,,,z,1,0.659,,,,,,,,0,69,69,118,1
,,,,,,,,,,,,,,,,,5f5fc8153ba37c07caa9b45e,25,2022-02-12_16h49.34.359,lexical_decision_task_DD_L3,2021.2.3,Win32,60.09615385,,,,,,,,,,,0.865,1,,,,,,,,,,,,,,,,,,,,,,,,0.0125,-0.370833333,0,0,0,,,,,,,STREAM,HB,z,m,./images/STREAMHB.png,,,,,,,,,,,,,,,,,,,,,z,1,0.865,,,,,,,,0,70,70,125,1
,,,,,,,,,,,,,,,,,5f5fc8153ba37c07caa9b45e,25,2022-02-12_16h49.34.359,lexical_decision_task_DD_L3,2021.2.3,Win32,60.09615385,,,,,,,,,,,0.59,1,,,,,,,,,,,,,,,,,,,,,,,,0.0125,-0.370833333,0,0,0,,,,,,,PIMPLE,HB,m,m,./images/PIMPLEHB.png,,,,,,,,,,,,,,,,,,,,,m,1,0.59,,,,,,,,0,71,71,71,1
,,,,,,,,,,,,,,,,,5f5fc8153ba37c07caa9b45e,25,2022-02-12_16h49.34.359,lexical_decision_task_DD_L3,2021.2.3,Win32,60.09615385,,,,,,,,,,,1.109,1,,,,,,,,,,,,,,,,,,,,,,,,0.0125,-0.370833333,0,0,0,,,,,,,PACKET,HB,m,m,./images/PACKETHB.png,,,,,,,,,,,,,,,,,,,,,m,1,1.109,,,,,,,,0,72,72,56,1
,,,,,,,,,,,,,,,,,5f5fc8153ba37c07caa9b45e,25,2022-02-12_16h49.34.359,lexical_decision_task_DD_L3,2021.2.3,Win32,60.09615385,,,,,,,,,,,0.632,1,,,,,,,,,,,,,,,,,,,,,,,,0.0125,-0.370833333,0,0,0,,,,,,,ONION,LB,m,m,./images/ONIONLB.png,,,,,,,,,,,,,,,,,,,,,m,1,0.632,,,,,,,,0,73,73,51,1
,,,,,,,,,,,,,,,,,5f5fc8153ba37c07caa9b45e,25,2022-02-12_16h49.34.359,lexical_decision_task_DD_L3,2021.2.3,Win32,60.09615385,,,,,,,,,,,0.864,1,,,,,,,,,,,,,,,,,,,,,,,,0.0125,-0.370833333,0,0,0,,,,,,,CHERRY,LB,z,m,./images/CHERRYLB.png,,,,,,,,,,,,,,,,,,,,,z,1,0.864,,,,,,,,0,74,74,138,1
,,,,,,,,,,,,,,,,,5f5fc8153ba37c07caa9b45e,25,2022-02-12_16h49.34.359,lexical_decision_task_DD_L3,2021.2.3,Win32,60.09615385,,,,,,,,,,,0.696,1,,,,,,,,,,,,,,,,,,,,,,,,0.0125,-0.370833333,0,0,0,,,,,,,BONNET,HB,m,m,./images/BONNETHB.png,,,,,,,,,,,,,,,,,,,,,m,1,0.696,,,,,,,,0,75,75,11,1
,,,,,,,,,,,,,,,,,5f5fc8153ba37c07caa9b45e,25,2022-02-12_16h49.34.359,lexical_decision_task_DD_L3,2021.2.3,Win32,60.09615385,,,,,,,,,,,0.617,1,,,,,,,,,,,,,,,,,,,,,,,,0.0125,-0.370833333,0,0,0,,,,,,,PLANK,C,m,m,./images/PLANK.png,,,,,,,,,,,,,,,,,,,,,m,1,0.617,,,,,,,,0,76,76,1,1
,,,,,,,,,,,,,,,,,5f5fc8153ba37c07caa9b45e,25,2022-02-12_16h49.34.359,lexical_decision_task_DD_L3,2021.2.3,Win32,60.09615385,,,,,,,,,,,0.661,1,,,,,,,,,,,,,,,,,,,,,,,,0.0125,-0.370833333,0,0,0,,,,,,,SLOPE,LB,z,m,./images/SLOPELB.png,,,,,,,,,,,,,,,,,,,,,z,1,0.661,,,,,,,,0,77,77,114,1
,,,,,,,,,,,,,,,,,5f5fc8153ba37c07caa9b45e,25,2022-02-12_16h49.34.359,lexical_decision_task_DD_L3,2021.2.3,Win32,60.09615385,,,,,,,,,,,0.899,1,,,,,,,,,,,,,,,,,,,,,,,,0.0125,-0.370833333,0,0,0,,,,,,,FOLDER,LB,m,m,./images/FOLDERLB.png,,,,,,,,,,,,,,,,,,,,,m,1,0.899,,,,,,,,0,78,78,42,1
,,,,,,,,,,,,,,,,,5f5fc8153ba37c07caa9b45e,25,2022-02-12_16h49.34.359,lexical_decision_task_DD_L3,2021.2.3,Win32,60.09615385,,,,,,,,,,,1.062,1,,,,,,,,,,,,,,,,,,,,,,,,0.0125,-0.370833333,0,0,0,,,,,,,MUSCLE,C,m,m,./images/MUSCLE.png,,,,,,,,,,,,,,,,,,,,,m,1,1.062,,,,,,,,0,79,79,4,1
,,,,,,,,,,,,,,,,,5f5fc8153ba37c07caa9b45e,25,2022-02-12_16h49.34.359,lexical_decision_task_DD_L3,2021.2.3,Win32,60.09615385,,,,,,,,,,,0.733,1,,,,,,,,,,,,,,,,,,,,,,,,0.0125,-0.370833333,0,0,0,,,,,,,FERRY,LB,z,m,./images/FERRYLB.png,,,,,,,,,,,,,,,,,,,,,z,1,0.733,,,,,,,,0,80,80,141,1
,,,,,,,,,,,,,,,,,5f5fc8153ba37c07caa9b45e,25,2022-02-12_16h49.34.359,lexical_decision_task_DD_L3,2021.2.3,Win32,60.09615385,,,,,,,,,,,0.819,1,,,,,,,,,,,,,,,,,,,,,,,,0.0125,-0.370833333,0,0,0,,,,,,,FLESH,LB,z,m,./images/FLESHLB.png,,,,,,,,,,,,,,,,,,,,,z,1,0.819,,,,,,,,0,81,81,108,1
,,,,,,,,,,,,,,,,,5f5fc8153ba37c07caa9b45e,25,2022-02-12_16h49.34.359,lexical_decision_task_DD_L3,2021.2.3,Win32,60.09615385,,,,,,,,,,,1.112,0,,,,,,,,,,,,,,,,,,,,,,,,0.0125,-0.370833333,0,0,0,,,,,,,CRATER,LB,z,m,./images/CRATERLB.png,,,,,,,,,,,,,,,,,,,,,m,0,1.112,,,,,,,,0,82,82,87,1
,,,,,,,,,,,,,,,,,5f5fc8153ba37c07caa9b45e,25,2022-02-12_16h49.34.359,lexical_decision_task_DD_L3,2021.2.3,Win32,60.09615385,,,,,,,,,,,0.657,1,,,,,,,,,,,,,,,,,,,,,,,,0.0125,-0.370833333,0,0,0,space,,,,,,INFANT,C,m,m,./images/INFANT.png,3.334,,,,,,,,,,,,,,,,,,,,m,1,0.657,,,,,,,,0,83,83,76,1
,,,,,,,,,,,,,,,,,5f5fc8153ba37c07caa9b45e,25,2022-02-12_16h49.34.359,lexical_decision_task_DD_L3,2021.2.3,Win32,60.09615385,,,,,,,,,,,0.847,0,,,,,,,,,,,,,,,,,,,,,,,,0.0125,-0.370833333,0,0,0,,,,,,,PISTOL,HB,z,m,./images/PISTOLHB.png,,,,,,,,,,,,,,,,,,,,,m,0,0.847,,,,,,,,0,84,84,113,1
,,,,,,,,,,,,,,,,,5f5fc8153ba37c07caa9b45e,25,2022-02-12_16h49.34.359,lexical_decision_task_DD_L3,2021.2.3,Win32,60.09615385,,,,,,,,,,,1.138,1,,,,,,,,,,,,,,,,,,,,,,,,0.0125,-0.370833333,0,0,0,,,,,,,SQUARE,LB,m,m,./images/SQUARELB.png,,,,,,,,,,,,,,,,,,,,,m,1,1.138,,,,,,,,0,85,85,6,1
,,,,,,,,,,,,,,,,,5f5fc8153ba37c07caa9b45e,25,2022-02-12_16h49.34.359,lexical_decision_task_DD_L3,2021.2.3,Win32,60.09615385,,,,,,,,,,,0.72,1,,,,,,,,,,,,,,,,,,,,,,,,0.0125,-0.370833333,0,0,0,,,,,,,GARDEN,C,z,m,./images/GARDEN.png,,,,,,,,,,,,,,,,,,,,,z,1,0.72,,,,,,,,0,86,86,94,1
,,,,,,,,,,,,,,,,,5f5fc8153ba37c07caa9b45e,25,2022-02-12_16h49.34.359,lexical_decision_task_DD_L3,2021.2.3,Win32,60.09615385,,,,,,,,,,,0.674,1,,,,,,,,,,,,,,,,,,,,,,,,0.0125,-0.370833333,0,0,0,,,,,,,FARMER,HB,m,m,./images/FARMERHB.png,,,,,,,,,,,,,,,,,,,,,m,1,0.674,,,,,,,,0,87,87,65,1
,,,,,,,,,,,,,,,,,5f5fc8153ba37c07caa9b45e,25,2022-02-12_16h49.34.359,lexical_decision_task_DD_L3,2021.2.3,Win32,60.09615385,,,,,,,,,,,0.911,1,,,,,,,,,,,,,,,,,,,,,,,,0.0125,-0.370833333,0,0,0,,,,,,,SNAKE,C,z,m,./images/SNAKE.png,,,,,,,,,,,,,,,,,,,,,z,1,0.911,,,,,,,,0,88,88,124,1
,,,,,,,,,,,,,,,,,5f5fc8153ba37c07caa9b45e,25,2022-02-12_16h49.34.359,lexical_decision_task_DD_L3,2021.2.3,Win32,60.09615385,,,,,,,,,,,0.777,1,,,,,,,,,,,,,,,,,,,,,,,,0.0125,-0.370833333,0,0,0,,,,,,,MOSQUE,C,m,m,./images/MOSQUE.png,,,,,,,,,,,,,,,,,,,,,m,1,0.777,,,,,,,,0,89,89,43,1
,,,,,,,,,,,,,,,,,5f5fc8153ba37c07caa9b45e,25,2022-02-12_16h49.34.359,lexical_decision_task_DD_L3,2021.2.3,Win32,60.09615385,,,,,,,,,,,0.633,1,,,,,,,,,,,,,,,,,,,,,,,,0.0125,-0.370833333,0,0,0,,,,,,,BURIAL,HB,m,m,./images/BURIALHB.png,,,,,,,,,,,,,,,,,,,,,m,1,0.633,,,,,,,,0,90,90,59,1
,,,,,,,,,,,,,,,,,5f5fc8153ba37c07caa9b45e,25,2022-02-12_16h49.34.359,lexical_decision_task_DD_L3,2021.2.3,Win32,60.09615385,,,,,,,,,,,0.67,1,,,,,,,,,,,,,,,,,,,,,,,,0.0125,-0.370833333,0,0,0,,,,,,,SCREW,LB,m,m,./images/SCREWLB.png,,,,,,,,,,,,,,,,,,,,,m,1,0.67,,,,,,,,0,91,91,24,1
,,,,,,,,,,,,,,,,,5f5fc8153ba37c07caa9b45e,25,2022-02-12_16h49.34.359,lexical_decision_task_DD_L3,2021.2.3,Win32,60.09615385,,,,,,,,,,,0.583,1,,,,,,,,,,,,,,,,,,,,,,,,0.0125,-0.370833333,0,0,0,,,,,,,KIDNEY,LB,m,m,./images/KIDNEYLB.png,,,,,,,,,,,,,,,,,,,,,m,1,0.583,,,,,,,,0,92,92,21,1
,,,,,,,,,,,,,,,,,5f5fc8153ba37c07caa9b45e,25,2022-02-12_16h49.34.359,lexical_decision_task_DD_L3,2021.2.3,Win32,60.09615385,,,,,,,,,,,0.572,1,,,,,,,,,,,,,,,,,,,,,,,,0.0125,-0.370833333,0,0,0,,,,,,,CEMENT,HB,m,m,./images/CEMENTHB.png,,,,,,,,,,,,,,,,,,,,,m,1,0.572,,,,,,,,0,93,93,74,1
,,,,,,,,,,,,,,,,,5f5fc8153ba37c07caa9b45e,25,2022-02-12_16h49.34.359,lexical_decision_task_DD_L3,2021.2.3,Win32,60.09615385,,,,,,,,,,,0.668,1,,,,,,,,,,,,,,,,,,,,,,,,0.0125,-0.370833333,0,0,0,,,,,,,CANDY,LB,z,m,./images/CANDYLB.png,,,,,,,,,,,,,,,,,,,,,z,1,0.668,,,,,,,,0,94,94,123,1
,,,,,,,,,,,,,,,,,5f5fc8153ba37c07caa9b45e,25,2022-02-12_16h49.34.359,lexical_decision_task_DD_L3,2021.2.3,Win32,60.09615385,,,,,,,,,,,0.644,1,,,,,,,,,,,,,,,,,,,,,,,,0.0125,-0.370833333,0,0,0,,,,,,,ARTIST,C,z,m,./images/ARTIST.png,,,,,,,,,,,,,,,,,,,,,z,1,0.644,,,,,,,,0,95,95,145,1
,,,,,,,,,,,,,,,,,5f5fc8153ba37c07caa9b45e,25,2022-02-12_16h49.34.359,lexical_decision_task_DD_L3,2021.2.3,Win32,60.09615385,,,,,,,,,,,0.685,0,,,,,,,,,,,,,,,,,,,,,,,,0.0125,-0.370833333,0,0,0,,,,,,,ARROW,LB,z,m,./images/ARROWLB.png,,,,,,,,,,,,,,,,,,,,,m,0,0.685,,,,,,,,0,96,96,153,1
,,,,,,,,,,,,,,,,,5f5fc8153ba37c07caa9b45e,25,2022-02-12_16h49.34.359,lexical_decision_task_DD_L3,2021.2.3,Win32,60.09615385,,,,,,,,,,,0.706,1,,,,,,,,,,,,,,,,,,,,,,,,0.0125,-0.370833333,0,0,0,,,,,,,COOKER,LB,m,m,./images/COOKERLB.png,,,,,,,,,,,,,,,,,,,,,m,1,0.706,,,,,,,,0,97,97,69,1
,,,,,,,,,,,,,,,,,5f5fc8153ba37c07caa9b45e,25,2022-02-12_16h49.34.359,lexical_decision_task_DD_L3,2021.2.3,Win32,60.09615385,,,,,,,,,,,0.773,1,,,,,,,,,,,,,,,,,,,,,,,,0.0125,-0.370833333,0,0,0,,,,,,,SHORE,LB,m,m,./images/SHORELB.png,,,,,,,,,,,,,,,,,,,,,m,1,0.773,,,,,,,,0,98,98,12,1
,,,,,,,,,,,,,,,,,5f5fc8153ba37c07caa9b45e,25,2022-02-12_16h49.34.359,lexical_decision_task_DD_L3,2021.2.3,Win32,60.09615385,,,,,,,,,,,0.664,1,,,,,,,,,,,,,,,,,,,,,,,,0.0125,-0.370833333,0,0,0,,,,,,,PASTA,HB,m,m,./images/PASTAHB.png,,,,,,,,,,,,,,,,,,,,,m,1,0.664,,,,,,,,0,99,99,5,1
,,,,,,,,,,,,,,,,,5f5fc8153ba37c07caa9b45e,25,2022-02-12_16h49.34.359,lexical_decision_task_DD_L3,2021.2.3,Win32,60.09615385,,,,,,,,,,,0.613,1,,,,,,,,,,,,,,,,,,,,,,,,0.0125,-0.370833333,0,0,0,,,,,,,BARREL,HB,m,m,./images/BARRELHB.png,,,,,,,,,,,,,,,,,,,,,m,1,0.613,,,,,,,,0,100,100,32,1
,,,,,,,,,,,,,,,,,5f5fc8153ba37c07caa9b45e,25,2022-02-12_16h49.34.359,lexical_decision_task_DD_L3,2021.2.3,Win32,60.09615385,,,,,,,,,,,0.634,1,,,,,,,,,,,,,,,,,,,,,,,,0.0125,-0.370833333,0,0,0,,,,,,,LLAMA,HB,z,m,./images/LLAMAHB.png,,,,,,,,,,,,,,,,,,,,,z,1,0.634,,,,,,,,0,101,101,119,1
,,,,,,,,,,,,,,,,,5f5fc8153ba37c07caa9b45e,25,2022-02-12_16h49.34.359,lexical_decision_task_DD_L3,2021.2.3,Win32,60.09615385,,,,,,,,,,,0.653,1,,,,,,,,,,,,,,,,,,,,,,,,0.0125,-0.370833333,0,0,0,,,,,,,BRUSH,HB,z,m,./images/BRUSHHB.png,,,,,,,,,,,,,,,,,,,,,z,1,0.653,,,,,,,,0,102,102,143,1
,,,,,,,,,,,,,,,,,5f5fc8153ba37c07caa9b45e,25,2022-02-12_16h49.34.359,lexical_decision_task_DD_L3,2021.2.3,Win32,60.09615385,,,,,,,,,,,0.97,1,,,,,,,,,,,,,,,,,,,,,,,,0.0125,-0.370833333,0,0,0,,,,,,,SWING,C,m,m,./images/SWING.png,,,,,,,,,,,,,,,,,,,,,m,1,0.97,,,,,,,,0,103,103,40,1
,,,,,,,,,,,,,,,,,5f5fc8153ba37c07caa9b45e,25,2022-02-12_16h49.34.359,lexical_decision_task_DD_L3,2021.2.3,Win32,60.09615385,,,,,,,,,,,0.778,1,,,,,,,,,,,,,,,,,,,,,,,,0.0125,-0.370833333,0,0,0,,,,,,,WEASEL,HB,m,m,./images/WEASELHB.png,,,,,,,,,,,,,,,,,,,,,m,1,0.778,,,,,,,,0,104,104,80,1
,,,,,,,,,,,,,,,,,5f5fc8153ba37c07caa9b45e,25,2022-02-12_16h49.34.359,lexical_decision_task_DD_L3,2021.2.3,Win32,60.09615385,,,,,,,,,,,0.605,1,,,,,,,,,,,,,,,,,,,,,,,,0.0125,-0.370833333,0,0,0,,,,,,,TOMATO,LB,m,m,./images/TOMATOLB.png,,,,,,,,,,,,,,,,,,,,,m,1,0.605,,,,,,,,0,105,105,0,1
,,,,,,,,,,,,,,,,,5f5fc8153ba37c07caa9b45e,25,2022-02-12_16h49.34.359,lexical_decision_task_DD_L3,2021.2.3,Win32,60.09615385,,,,,,,,,,,0.742,1,,,,,,,,,,,,,,,,,,,,,,,,0.0125,-0.370833333,0,0,0,,,,,,,BANNER,C,m,m,./images/BANNER.png,,,,,,,,,,,,,,,,,,,,,m,1,0.742,,,,,,,,0,106,106,52,1
,,,,,,,,,,,,,,,,,5f5fc8153ba37c07caa9b45e,25,2022-02-12_16h49.34.359,lexical_decision_task_DD_L3,2021.2.3,Win32,60.09615385,,,,,,,,,,,0.635,1,,,,,,,,,,,,,,,,,,,,,,,,0.0125,-0.370833333,0,0,0,,,,,,,COUCH,HB,m,m,./images/COUCHHB.png,,,,,,,,,,,,,,,,,,,,,m,1,0.635,,,,,,,,0,107,107,77,1
,,,,,,,,,,,,,,,,,5f5fc8153ba37c07caa9b45e,25,2022-02-12_16h49.34.359,lexical_decision_task_DD_L3,2021.2.3,Win32,60.09615385,,,,,,,,,,,0.659,1,,,,,,,,,,,,,,,,,,,,,,,,0.0125,-0.370833333,0,0,0,,,,,,,SHELF,LB,m,m,./images/SHELFLB.png,,,,,,,,,,,,,,,,,,,,,m,1,0.659,,,,,,,,0,108,108,39,1
,,,,,,,,,,,,,,,,,5f5fc8153ba37c07caa9b45e,25,2022-02-12_16h49.34.359,lexical_decision_task_DD_L3,2021.2.3,Win32,60.09615385,,,,,,,,,,,0.829,1,,,,,,,,,,,,,,,,,,,,,,,,0.0125,-0.370833333,0,0,0,,,,,,,MAMMAL,HB,z,m,./images/MAMMALHB.png,,,,,,,,,,,,,,,,,,,,,z,1,0.829,,,,,,,,0,109,109,146,1
,,,,,,,,,,,,,,,,,5f5fc8153ba37c07caa9b45e,25,2022-02-12_16h49.34.359,lexical_decision_task_DD_L3,2021.2.3,Win32,60.09615385,,,,,,,,,,,0.81,1,,,,,,,,,,,,,,,,,,,,,,,,0.0125,-0.370833333,0,0,0,,,,,,,SKIING,HB,m,m,./images/SKIINGHB.png,,,,,,,,,,,,,,,,,,,,,m,1,0.81,,,,,,,,0,110,110,17,1
,,,,,,,,,,,,,,,,,5f5fc8153ba37c07caa9b45e,25,2022-02-12_16h49.34.359,lexical_decision_task_DD_L3,2021.2.3,Win32,60.09615385,,,,,,,,,,,0.795,1,,,,,,,,,,,,,,,,,,,,,,,,0.0125,-0.370833333,0,0,0,,,,,,,BAKER,LB,z,m,./images/BAKERLB.png,,,,,,,,,,,,,,,,,,,,,z,1,0.795,,,,,,,,0,111,111,147,1
,,,,,,,,,,,,,,,,,5f5fc8153ba37c07caa9b45e,25,2022-02-12_16h49.34.359,lexical_decision_task_DD_L3,2021.2.3,Win32,60.09615385,,,,,,,,,,,0.791,1,,,,,,,,,,,,,,,,,,,,,,,,0.0125,-0.370833333,0,0,0,,,,,,,MEDAL,HB,z,m,./images/MEDALHB.png,,,,,,,,,,,,,,,,,,,,,z,1,0.791,,,,,,,,0,112,112,95,1
,,,,,,,,,,,,,,,,,5f5fc8153ba37c07caa9b45e,25,2022-02-12_16h49.34.359,lexical_decision_task_DD_L3,2021.2.3,Win32,60.09615385,,,,,,,,,,,0.632,1,,,,,,,,,,,,,,,,,,,,,,,,0.0125,-0.370833333,0,0,0,,,,,,,STATUE,LB,z,m,./images/STATUELB.png,,,,,,,,,,,,,,,,,,,,,z,1,0.632,,,,,,,,0,113,113,150,1
,,,,,,,,,,,,,,,,,5f5fc8153ba37c07caa9b45e,25,2022-02-12_16h49.34.359,lexical_decision_task_DD_L3,2021.2.3,Win32,60.09615385,,,,,,,,,,,1.028,1,,,,,,,,,,,,,,,,,,,,,,,,0.0125,-0.370833333,0,0,0,,,,,,,MUMMY,C,z,m,./images/MUMMY.png,,,,,,,,,,,,,,,,,,,,,z,1,1.028,,,,,,,,0,114,114,130,1
,,,,,,,,,,,,,,,,,5f5fc8153ba37c07caa9b45e,25,2022-02-12_16h49.34.359,lexical_decision_task_DD_L3,2021.2.3,Win32,60.09615385,,,,,,,,,,,0.799,0,,,,,,,,,,,,,,,,,,,,,,,,0.0125,-0.370833333,0,0,0,,,,,,,BELLY,C,m,m,./images/BELLY.png,,,,,,,,,,,,,,,,,,,,,z,0,0.799,,,,,,,,0,115,115,10,1
,,,,,,,,,,,,,,,,,5f5fc8153ba37c07caa9b45e,25,2022-02-12_16h49.34.359,lexical_decision_task_DD_L3,2021.2.3,Win32,60.09615385,,,,,,,,,,,0.605,1,,,,,,,,,,,,,,,,,,,,,,,,0.0125,-0.370833333,0,0,0,,,,,,,MOOSE,LB,m,m,./images/MOOSELB.png,,,,,,,,,,,,,,,,,,,,,m,1,0.605,,,,,,,,0,116,116,57,1
,,,,,,,,,,,,,,,,,5f5fc8153ba37c07caa9b45e,25,2022-02-12_16h49.34.359,lexical_decision_task_DD_L3,2021.2.3,Win32,60.09615385,,,,,,,,,,,0.787,1,,,,,,,,,,,,,,,,,,,,,,,,0.0125,-0.370833333,0,0,0,,,,,,,STOVE,HB,z,m,./images/STOVEHB.png,,,,,,,,,,,,,,,,,,,,,z,1,0.787,,,,,,,,0,117,117,86,1
,,,,,,,,,,,,,,,,,5f5fc8153ba37c07caa9b45e,25,2022-02-12_16h49.34.359,lexical_decision_task_DD_L3,2021.2.3,Win32,60.09615385,,,,,,,,,,,0.649,1,,,,,,,,,,,,,,,,,,,,,,,,0.0125,-0.370833333,0,0,0,,,,,,,TULIP,HB,m,m,./images/TULIPHB.png,,,,,,,,,,,,,,,,,,,,,m,1,0.649,,,,,,,,0,118,118,8,1
,,,,,,,,,,,,,,,,,5f5fc8153ba37c07caa9b45e,25,2022-02-12_16h49.34.359,lexical_decision_task_DD_L3,2021.2.3,Win32,60.09615385,,,,,,,,,,,0.848,0,,,,,,,,,,,,,,,,,,,,,,,,0.0125,-0.370833333,0,0,0,,,,,,,CHAIN,LB,z,m,./images/CHAINLB.png,,,,,,,,,,,,,,,,,,,,,m,0,0.848,,,,,,,,0,119,119,126,1
,,,,,,,,,,,,,,,,,5f5fc8153ba37c07caa9b45e,25,2022-02-12_16h49.34.359,lexical_decision_task_DD_L3,2021.2.3,Win32,60.09615385,,,,,,,,,,,0.848,1,,,,,,,,,,,,,,,,,,,,,,,,0.0125,-0.370833333,0,0,0,,,,,,,MOTOR,C,m,m,./images/MOTOR.png,,,,,,,,,,,,,,,,,,,,,m,1,0.848,,,,,,,,0,120,120,13,1
,,,,,,,,,,,,,,,,,5f5fc8153ba37c07caa9b45e,25,2022-02-12_16h49.34.359,lexical_decision_task_DD_L3,2021.2.3,Win32,60.09615385,,,,,,,,,,,0.667,1,,,,,,,,,,,,,,,,,,,,,,,,0.0125,-0.370833333,0,0,0,,,,,,,WRIST,C,m,m,./images/WRIST.png,,,,,,,,,,,,,,,,,,,,,m,1,0.667,,,,,,,,0,121,121,25,1
,,,,,,,,,,,,,,,,,5f5fc8153ba37c07caa9b45e,25,2022-02-12_16h49.34.359,lexical_decision_task_DD_L3,2021.2.3,Win32,60.09615385,,,,,,,,,,,0.833,1,,,,,,,,,,,,,,,,,,,,,,,,0.0125,-0.370833333,0,0,0,,,,,,,SAUCE,LB,z,m,./images/SAUCELB.png,,,,,,,,,,,,,,,,,,,,,z,1,0.833,,,,,,,,0,122,122,135,1
,,,,,,,,,,,,,,,,,5f5fc8153ba37c07caa9b45e,25,2022-02-12_16h49.34.359,lexical_decision_task_DD_L3,2021.2.3,Win32,60.09615385,,,,,,,,,,,0.602,1,,,,,,,,,,,,,,,,,,,,,,,,0.0125,-0.370833333,0,0,0,,,,,,,BRIDE,C,z,m,./images/BRIDE.png,,,,,,,,,,,,,,,,,,,,,z,1,0.602,,,,,,,,0,123,123,148,1
,,,,,,,,,,,,,,,,,5f5fc8153ba37c07caa9b45e,25,2022-02-12_16h49.34.359,lexical_decision_task_DD_L3,2021.2.3,Win32,60.09615385,,,,,,,,,,,0.635,1,,,,,,,,,,,,,,,,,,,,,,,,0.0125,-0.370833333,0,0,0,,,,,,,MAGGOT,LB,m,m,./images/MAGGOTLB.png,,,,,,,,,,,,,,,,,,,,,m,1,0.635,,,,,,,,0,124,124,33,1
,,,,,,,,,,,,,,,,,5f5fc8153ba37c07caa9b45e,25,2022-02-12_16h49.34.359,lexical_decision_task_DD_L3,2021.2.3,Win32,60.09615385,,,,,,,,,,,0.666,1,,,,,,,,,,,,,,,,,,,,,,,,0.0125,-0.370833333,0,0,0,space,,,,,,CRADLE,HB,m,m,./images/CRADLEHB.png,1.232,,,,,,,,,,,,,,,,,,,,m,1,0.666,,,,,,,,0,125,125,20,1
,,,,,,,,,,,,,,,,,5f5fc8153ba37c07caa9b45e,25,2022-02-12_16h49.34.359,lexical_decision_task_DD_L3,2021.2.3,Win32,60.09615385,,,,,,,,,,,0.763,1,,,,,,,,,,,,,,,,,,,,,,,,0.0125,-0.370833333,0,0,0,,,,,,,BUNNY,C,z,m,./images/BUNNY.png,,,,,,,,,,,,,,,,,,,,,z,1,0.763,,,,,,,,0,126,126,97,1
,,,,,,,,,,,,,,,,,5f5fc8153ba37c07caa9b45e,25,2022-02-12_16h49.34.359,lexical_decision_task_DD_L3,2021.2.3,Win32,60.09615385,,,,,,,,,,,0.72,1,,,,,,,,,,,,,,,,,,,,,,,,0.0125,-0.370833333,0,0,0,,,,,,,CHALK,C,z,m,./images/CHALK.png,,,,,,,,,,,,,,,,,,,,,z,1,0.72,,,,,,,,0,127,127,109,1
,,,,,,,,,,,,,,,,,5f5fc8153ba37c07caa9b45e,25,2022-02-12_16h49.34.359,lexical_decision_task_DD_L3,2021.2.3,Win32,60.09615385,,,,,,,,,,,0.634,1,,,,,,,,,,,,,,,,,,,,,,,,0.0125,-0.370833333,0,0,0,,,,,,,STOOL,C,z,m,./images/STOOL.png,,,,,,,,,,,,,,,,,,,,,z,1,0.634,,,,,,,,0,128,128,127,1
,,,,,,,,,,,,,,,,,5f5fc8153ba37c07caa9b45e,25,2022-02-12_16h49.34.359,lexical_decision_task_DD_L3,2021.2.3,Win32,60.09615385,,,,,,,,,,,0.716,0,,,,,,,,,,,,,,,,,,,,,,,,0.0125,-0.370833333,0,0,0,,,,,,,JELLY,C,m,m,./images/JELLY.png,,,,,,,,,,,,,,,,,,,,,z,0,0.716,,,,,,,,0,129,129,64,1
,,,,,,,,,,,,,,,,,5f5fc8153ba37c07caa9b45e,25,2022-02-12_16h49.34.359,lexical_decision_task_DD_L3,2021.2.3,Win32,60.09615385,,,,,,,,,,,0.629,1,,,,,,,,,,,,,,,,,,,,,,,,0.0125,-0.370833333,0,0,0,,,,,,,FINGER,LB,m,m,./images/FINGERLB.png,,,,,,,,,,,,,,,,,,,,,m,1,0.629,,,,,,,,0,130,130,3,1
,,,,,,,,,,,,,,,,,5f5fc8153ba37c07caa9b45e,25,2022-02-12_16h49.34.359,lexical_decision_task_DD_L3,2021.2.3,Win32,60.09615385,,,,,,,,,,,0.597,1,,,,,,,,,,,,,,,,,,,,,,,,0.0125,-0.370833333,0,0,0,,,,,,,LITTER,LB,m,m,./images/LITTERLB.png,,,,,,,,,,,,,,,,,,,,,m,1,0.597,,,,,,,,0,131,131,78,1
,,,,,,,,,,,,,,,,,5f5fc8153ba37c07caa9b45e,25,2022-02-12_16h49.34.359,lexical_decision_task_DD_L3,2021.2.3,Win32,60.09615385,,,,,,,,,,,0.556,1,,,,,,,,,,,,,,,,,,,,,,,,0.0125,-0.370833333,0,0,0,,,,,,,CANDLE,C,m,m,./images/CANDLE.png,,,,,,,,,,,,,,,,,,,,,m,1,0.556,,,,,,,,0,132,132,61,1
,,,,,,,,,,,,,,,,,5f5fc8153ba37c07caa9b45e,25,2022-02-12_16h49.34.359,lexical_decision_task_DD_L3,2021.2.3,Win32,60.09615385,,,,,,,,,,,1.593,0,,,,,,,,,,,,,,,,,,,,,,,,0.0125,-0.370833333,0,0,0,,,,,,,SAILOR,C,m,m,./images/SAILOR.png,,,,,,,,,,,,,,,,,,,,,z,0,1.593,,,,,,,,0,133,133,67,1
,,,,,,,,,,,,,,,,,5f5fc8153ba37c07caa9b45e,25,2022-02-12_16h49.34.359,lexical_decision_task_DD_L3,2021.2.3,Win32,60.09615385,,,,,,,,,,,0.666,1,,,,,,,,,,,,,,,,,,,,,,,,0.0125,-0.370833333,0,0,0,,,,,,,JUNGLE,HB,m,m,./images/JUNGLEHB.png,,,,,,,,,,,,,,,,,,,,,m,1,0.666,,,,,,,,0,134,134,83,1
,,,,,,,,,,,,,,,,,5f5fc8153ba37c07caa9b45e,25,2022-02-12_16h49.34.359,lexical_decision_task_DD_L3,2021.2.3,Win32,60.09615385,,,,,,,,,,,0.715,1,,,,,,,,,,,,,,,,,,,,,,,,0.0125,-0.370833333,0,0,0,,,,,,,JUMPER,HB,z,m,./images/JUMPERHB.png,,,,,,,,,,,,,,,,,,,,,z,1,0.715,,,,,,,,0,135,135,158,1
