key_resp.keys,key_resp.rt,instr_done_touch.x,instr_done_touch.y,instr_done_touch.leftButton,instr_done_touch.midButton,instr_done_touch.rightButton,instruction_pages.thisRepN,instruction_pages.thisTrialN,instruction_pages.thisN,instruction_pages.thisIndex,instruction_pages.ran,pageN,phase,instruct_text,has_image,instruct_image,participant,age,date,expName,psychopyVersion,OS,frameRate,response.keys,response.corr,response.rt,touch_resp.x,touch_resp.y,touch_resp.leftButton,touch_resp.midButton,touch_resp.rightButton,touch_resp.time,touch_resp.clicked_name,rt,corr,practrials.thisRepN,practrials.thisTrialN,practrials.thisN,practrials.thisIndex,practrials.ran,TrialID,Target,corrAns,end_of_practice_trials_pages.thisRepN,end_of_practice_trials_pages.thisTrialN,end_of_practice_trials_pages.thisN,end_of_practice_trials_pages.thisIndex,end_of_practice_trials_pages.ran,key_resp_2.keys,key_resp_2.corr,key_resp_2.rt,targ_click.x,targ_click.y,targ_click.leftButton,targ_click.midButton,targ_click.rightButton,targ_click.time,targ_click.clicked_name,break_done_touch.x,break_done_touch.y,break_done_touch.leftButton,break_done_touch.midButton,break_done_touch.rightButton,break_done_keyboard.keys,maintrials.thisRepN,maintrials.thisTrialN,maintrials.thisN,maintrials.thisIndex,maintrials.ran,string,blur,study,lex,stim_path,break_done_keyboard.rt,mouse_2.x,mouse_2.y,mouse_2.leftButton,mouse_2.midButton,mouse_2.rightButton,mouse_2.clicked_name,slider.response,slider.rt,trials.thisRepN,trials.thisTrialN,trials.thisN,trials.thisIndex,trials.ran,instr_done_touch.clicked_name,test_instructions.thisRepN,test_instructions.thisTrialN,test_instructions.thisN,test_instructions.thisIndex,test_instructions.ran,key_resp_3.keys,key_resp_3.corr,key_resp_3.rt,test_click.x,test_click.y,test_click.leftButton,test_click.midButton,test_click.rightButton,test_click.time,test_click.clicked_name,test_phase.thisRepN,test_phase.thisTrialN,test_phase.thisN,test_phase.thisIndex,test_phase.ran
space,22.245,-0.8,0.5,0,0,0,0,0,0,0,1,1,instructions,"INSTRUCTIONS
At the start of each trial, look at the plus sign  (+) in the center of the screen.  This tells you that a trial is about to begin and where to look. Second, the plus sign will disappear and a string of letters will appear. Your task is to determine if the string of letters is a word or not. If the item is a word press the M key (on keyboard)  or touch the word button (phone/tablet).  If the item is not a word,  press the  Z key (on keyboard)  or touch the nonword button (on phone/tablet). 
Press the space bar or touch  continue.",0,,5fb1a8aebe8dfa6c6cc3edbe,27,2022-02-12_10h46.58.339,lexical_decision_task_DD_L3,2021.2.3,MacIntel,60.0024001,,,,,,,,,,,,,,,,,,,,,,,,,,,,,,,,,,,,,,,,,,,,,,,,,,,,,,,,,,,,,,,,,,,,,,,,,,,,,,,,,,,,,,
space,9.0511,-0.8,0.5,0,0,0,0,1,1,1,1,2,instructions,"If your device has a keyboard, press the 'Z' key for nonwords and the 'M' key for words.





Press the space bar or touch the button below to continue.",0,keyboard-example.gif,5fb1a8aebe8dfa6c6cc3edbe,27,2022-02-12_10h46.58.339,lexical_decision_task_DD_L3,2021.2.3,MacIntel,60.0024001,,,,,,,,,,,,,,,,,,,,,,,,,,,,,,,,,,,,,,,,,,,,,,,,,,,,,,,,,,,,,,,,,,,,,,,,,,,,,,,,,,,,,,
space,3.3668,-0.8,0.5,0,0,0,0,2,2,2,1,3,instructions,"If you are using a touchscreen only device, use the buttons on the screen. Do not use the mouse.





Press the space bar or touch the button below to continue.",0,touchscreen-example.gif,5fb1a8aebe8dfa6c6cc3edbe,27,2022-02-12_10h46.58.339,lexical_decision_task_DD_L3,2021.2.3,MacIntel,60.0024001,,,,,,,,,,,,,,,,,,,,,,,,,,,,,,,,,,,,,,,,,,,,,,,,,,,,,,,,,,,,,,,,,,,,,,,,,,,,,,,,,,,,,,
space,9.9299,-0.8,0.5,0,0,0,0,3,3,3,1,4,instructions,"It is very important that you respond as quickly and accurately as possible, as each letter string will only be on the screen for two seconds. If you do not respond within this time, the message 'Too slow!' will be displayed and the experiment will progress to the next letter string. The first 20 trials will be practice trials and you will receive feedback on your answers. 

Press the space bar or touch the button below to start the practice trials.",0,,5fb1a8aebe8dfa6c6cc3edbe,27,2022-02-12_10h46.58.339,lexical_decision_task_DD_L3,2021.2.3,MacIntel,60.0024001,,,,,,,,,,,,,,,,,,,,,,,,,,,,,,,,,,,,,,,,,,,,,,,,,,,,,,,,,,,,,,,,,,,,,,,,,,,,,,,,,,,,,,
,,,,,,,,,,,,,,,,,5fb1a8aebe8dfa6c6cc3edbe,27,2022-02-12_10h46.58.339,lexical_decision_task_DD_L3,2021.2.3,MacIntel,60.0024001,z,1,1.0224,,,,,,,,1.0224,1,0,0,0,8,1,1001,ASLERT,z,,,,,,,,,,,,,,,,,,,,,,,,,,,,,,,,,,,,,,,,,,,,,,,,,,,,,,,,,,,,,,,,,,
,,,,,,,,,,,,,,,,,5fb1a8aebe8dfa6c6cc3edbe,27,2022-02-12_10h46.58.339,lexical_decision_task_DD_L3,2021.2.3,MacIntel,60.0024001,m,1,0.6033,,,,,,,,0.6033,1,0,1,1,2,1,1001,ALMOND,m,,,,,,,,,,,,,,,,,,,,,,,,,,,,,,,,,,,,,,,,,,,,,,,,,,,,,,,,,,,,,,,,,,
,,,,,,,,,,,,,,,,,5fb1a8aebe8dfa6c6cc3edbe,27,2022-02-12_10h46.58.339,lexical_decision_task_DD_L3,2021.2.3,MacIntel,60.0024001,m,1,0.6913,,,,,,,,0.6913,1,0,2,2,0,1,1001,UTOPIA,m,,,,,,,,,,,,,,,,,,,,,,,,,,,,,,,,,,,,,,,,,,,,,,,,,,,,,,,,,,,,,,,,,,
,,,,,,,,,,,,,,,,,5fb1a8aebe8dfa6c6cc3edbe,27,2022-02-12_10h46.58.339,lexical_decision_task_DD_L3,2021.2.3,MacIntel,60.0024001,m,1,0.6665,,,,,,,,0.6665,1,0,3,3,1,1,1001,ADJUST,m,,,,,,,,,,,,,,,,,,,,,,,,,,,,,,,,,,,,,,,,,,,,,,,,,,,,,,,,,,,,,,,,,,
,,,,,,,,,,,,,,,,,5fb1a8aebe8dfa6c6cc3edbe,27,2022-02-12_10h46.58.339,lexical_decision_task_DD_L3,2021.2.3,MacIntel,60.0024001,z,1,0.6479,,,,,,,,0.6479,1,0,4,4,11,1,1001,RASHET,z,,,,,,,,,,,,,,,,,,,,,,,,,,,,,,,,,,,,,,,,,,,,,,,,,,,,,,,,,,,,,,,,,,
,,,,,,,,,,,,,,,,,5fb1a8aebe8dfa6c6cc3edbe,27,2022-02-12_10h46.58.339,lexical_decision_task_DD_L3,2021.2.3,MacIntel,60.0024001,m,1,0.597,,,,,,,,0.597,1,0,5,5,3,1,1001,MATRIX,m,,,,,,,,,,,,,,,,,,,,,,,,,,,,,,,,,,,,,,,,,,,,,,,,,,,,,,,,,,,,,,,,,,
,,,,,,,,,,,,,,,,,5fb1a8aebe8dfa6c6cc3edbe,27,2022-02-12_10h46.58.339,lexical_decision_task_DD_L3,2021.2.3,MacIntel,60.0024001,z,1,0.6997,,,,,,,,0.6997,1,0,6,6,14,1,1001,THRALE,z,,,,,,,,,,,,,,,,,,,,,,,,,,,,,,,,,,,,,,,,,,,,,,,,,,,,,,,,,,,,,,,,,,
,,,,,,,,,,,,,,,,,5fb1a8aebe8dfa6c6cc3edbe,27,2022-02-12_10h46.58.339,lexical_decision_task_DD_L3,2021.2.3,MacIntel,60.0024001,z,1,0.9117,,,,,,,,0.9117,1,0,7,7,13,1,1001,ROUPET,z,,,,,,,,,,,,,,,,,,,,,,,,,,,,,,,,,,,,,,,,,,,,,,,,,,,,,,,,,,,,,,,,,,
,,,,,,,,,,,,,,,,,5fb1a8aebe8dfa6c6cc3edbe,27,2022-02-12_10h46.58.339,lexical_decision_task_DD_L3,2021.2.3,MacIntel,60.0024001,m,1,0.4967,,,,,,,,0.4967,1,0,8,8,5,1,1001,OBTAIN,m,,,,,,,,,,,,,,,,,,,,,,,,,,,,,,,,,,,,,,,,,,,,,,,,,,,,,,,,,,,,,,,,,,
,,,,,,,,,,,,,,,,,5fb1a8aebe8dfa6c6cc3edbe,27,2022-02-12_10h46.58.339,lexical_decision_task_DD_L3,2021.2.3,MacIntel,60.0024001,z,1,0.6888,,,,,,,,0.6888,1,0,9,9,9,1,1001,FARINY,z,,,,,,,,,,,,,,,,,,,,,,,,,,,,,,,,,,,,,,,,,,,,,,,,,,,,,,,,,,,,,,,,,,
,,,,,,,,,,,,,,,,,5fb1a8aebe8dfa6c6cc3edbe,27,2022-02-12_10h46.58.339,lexical_decision_task_DD_L3,2021.2.3,MacIntel,60.0024001,m,1,0.5448,,,,,,,,0.5448,1,0,10,10,7,1,1001,VOLUME,m,,,,,,,,,,,,,,,,,,,,,,,,,,,,,,,,,,,,,,,,,,,,,,,,,,,,,,,,,,,,,,,,,,
,,,,,,,,,,,,,,,,,5fb1a8aebe8dfa6c6cc3edbe,27,2022-02-12_10h46.58.339,lexical_decision_task_DD_L3,2021.2.3,MacIntel,60.0024001,z,1,0.7696,,,,,,,,0.7696,1,0,11,11,10,1,1001,INLADE,z,,,,,,,,,,,,,,,,,,,,,,,,,,,,,,,,,,,,,,,,,,,,,,,,,,,,,,,,,,,,,,,,,,
,,,,,,,,,,,,,,,,,5fb1a8aebe8dfa6c6cc3edbe,27,2022-02-12_10h46.58.339,lexical_decision_task_DD_L3,2021.2.3,MacIntel,60.0024001,m,1,0.5553,,,,,,,,0.5553,1,0,12,12,4,1,1001,SQUEAK,m,,,,,,,,,,,,,,,,,,,,,,,,,,,,,,,,,,,,,,,,,,,,,,,,,,,,,,,,,,,,,,,,,,
,,,,,,,,,,,,,,,,,5fb1a8aebe8dfa6c6cc3edbe,27,2022-02-12_10h46.58.339,lexical_decision_task_DD_L3,2021.2.3,MacIntel,60.0024001,z,1,0.7003,,,,,,,,0.7003,1,0,13,13,12,1,1001,SPRINY,z,,,,,,,,,,,,,,,,,,,,,,,,,,,,,,,,,,,,,,,,,,,,,,,,,,,,,,,,,,,,,,,,,,
,,,,,,,,,,,,,,,,,5fb1a8aebe8dfa6c6cc3edbe,27,2022-02-12_10h46.58.339,lexical_decision_task_DD_L3,2021.2.3,MacIntel,60.0024001,m,1,0.665,,,,,,,,0.665,1,0,14,14,6,1,1001,ZOMBIE,m,,,,,,,,,,,,,,,,,,,,,,,,,,,,,,,,,,,,,,,,,,,,,,,,,,,,,,,,,,,,,,,,,,
,,,,,,,,,,,,,,,,,5fb1a8aebe8dfa6c6cc3edbe,27,2022-02-12_10h46.58.339,lexical_decision_task_DD_L3,2021.2.3,MacIntel,60.0024001,z,1,0.8259,,,,,,,,0.8259,1,0,15,15,15,1,1001,WHAISE,z,,,,,,,,,,,,,,,,,,,,,,,,,,,,,,,,,,,,,,,,,,,,,,,,,,,,,,,,,,,,,,,,,,
space,11.4186,-0.8,0.5,0,0,0,,,,,,1,end_of_practice,"You have completed the practice trials. During the experimental trials, you will not receive feedback. 
Before you begin, please ensure that you are in a comfortable and quiet location and will not be disturbed for about 15 minutes, as we cannot use your data if you do not complete all the trials. 
 When you are ready to start the experimental trials, please press space or touch the button below.",,,5fb1a8aebe8dfa6c6cc3edbe,27,2022-02-12_10h46.58.339,lexical_decision_task_DD_L3,2021.2.3,MacIntel,60.0024001,,,,,,,,,,,,,,,,,,,,,0,0,0,0,1,,,,,,,,,,,,,,,,,,,,,,,,,,,,,,,,,,,,,,,,,,,,,,,,,,,,,,,,,,,,,
,,,,,,,,,,,,,,,,,5fb1a8aebe8dfa6c6cc3edbe,27,2022-02-12_10h46.58.339,lexical_decision_task_DD_L3,2021.2.3,MacIntel,60.0024001,,,,,,,,,,,1.6814,1,,,,,,,,,,,,,,m,1,1.6814,,,,,,,,-0.8,0.5,0,0,0,,0,0,0,77,1,COUCH,HB,old,m,./images/COUCHHB.png,,,,,,,,,,,,,,,,,,,,,,,,,,,,,,,,,,,
,,,,,,,,,,,,,,,,,5fb1a8aebe8dfa6c6cc3edbe,27,2022-02-12_10h46.58.339,lexical_decision_task_DD_L3,2021.2.3,MacIntel,60.0024001,,,,,,,,,,,0.8299,1,,,,,,,,,,,,,,m,1,0.8299,,,,,,,,-0.8,0.5,0,0,0,,0,1,1,32,1,BARREL,HB,old,m,./images/BARRELHB.png,,,,,,,,,,,,,,,,,,,,,,,,,,,,,,,,,,,
,,,,,,,,,,,,,,,,,5fb1a8aebe8dfa6c6cc3edbe,27,2022-02-12_10h46.58.339,lexical_decision_task_DD_L3,2021.2.3,MacIntel,60.0024001,,,,,,,,,,,0.6964,1,,,,,,,,,,,,,,z,1,0.6964,,,,,,,,-0.8,0.5,0,0,0,,0,2,2,89,1,DRIEK,LB,old,z,./images/DRIEKLB.png,,,,,,,,,,,,,,,,,,,,,,,,,,,,,,,,,,,
,,,,,,,,,,,,,,,,,5fb1a8aebe8dfa6c6cc3edbe,27,2022-02-12_10h46.58.339,lexical_decision_task_DD_L3,2021.2.3,MacIntel,60.0024001,,,,,,,,,,,0.6654,1,,,,,,,,,,,,,,m,1,0.6654,,,,,,,,-0.8,0.5,0,0,0,,0,3,3,63,1,MIRROR,LB,old,m,./images/MIRRORLB.png,,,,,,,,,,,,,,,,,,,,,,,,,,,,,,,,,,,
,,,,,,,,,,,,,,,,,5fb1a8aebe8dfa6c6cc3edbe,27,2022-02-12_10h46.58.339,lexical_decision_task_DD_L3,2021.2.3,MacIntel,60.0024001,,,,,,,,,,,0.8449,1,,,,,,,,,,,,,,z,1,0.8449,,,,,,,,-0.8,0.5,0,0,0,,0,4,4,164,1,SGREW,LB,old,z,./images/SGREWLB.png,,,,,,,,,,,,,,,,,,,,,,,,,,,,,,,,,,,
,,,,,,,,,,,,,,,,,5fb1a8aebe8dfa6c6cc3edbe,27,2022-02-12_10h46.58.339,lexical_decision_task_DD_L3,2021.2.3,MacIntel,60.0024001,,,,,,,,,,,0.6958,1,,,,,,,,,,,,,,z,1,0.6958,,,,,,,,-0.8,0.5,0,0,0,,0,5,5,126,1,GUELS,C,old,z,./images/GUELS.png,,,,,,,,,,,,,,,,,,,,,,,,,,,,,,,,,,,
,,,,,,,,,,,,,,,,,5fb1a8aebe8dfa6c6cc3edbe,27,2022-02-12_10h46.58.339,lexical_decision_task_DD_L3,2021.2.3,MacIntel,60.0024001,,,,,,,,,,,1.5132,1,,,,,,,,,,,,,,z,1,1.5132,,,,,,,,-0.8,0.5,0,0,0,,0,6,6,148,1,JOMS,HB,old,z,./images/JOMSHB.png,,,,,,,,,,,,,,,,,,,,,,,,,,,,,,,,,,,
,,,,,,,,,,,,,,,,,5fb1a8aebe8dfa6c6cc3edbe,27,2022-02-12_10h46.58.339,lexical_decision_task_DD_L3,2021.2.3,MacIntel,60.0024001,,,,,,,,,,,0.8552,1,,,,,,,,,,,,,,m,1,0.8552,,,,,,,,-0.8,0.5,0,0,0,,0,7,7,62,1,PURSE,HB,old,m,./images/PURSEHB.png,,,,,,,,,,,,,,,,,,,,,,,,,,,,,,,,,,,
,,,,,,,,,,,,,,,,,5fb1a8aebe8dfa6c6cc3edbe,27,2022-02-12_10h46.58.339,lexical_decision_task_DD_L3,2021.2.3,MacIntel,60.0024001,,,,,,,,,,,1.1463,1,,,,,,,,,,,,,,z,1,1.1463,,,,,,,,-0.8,0.5,0,0,0,,0,8,8,121,1,CEERS,HB,old,z,./images/CEERSHB.png,,,,,,,,,,,,,,,,,,,,,,,,,,,,,,,,,,,
,,,,,,,,,,,,,,,,,5fb1a8aebe8dfa6c6cc3edbe,27,2022-02-12_10h46.58.339,lexical_decision_task_DD_L3,2021.2.3,MacIntel,60.0024001,,,,,,,,,,,1.0626,1,,,,,,,,,,,,,,z,1,1.0626,,,,,,,,-0.8,0.5,0,0,0,,0,9,9,153,1,CLUPS,C,old,z,./images/CLUPS.png,,,,,,,,,,,,,,,,,,,,,,,,,,,,,,,,,,,
,,,,,,,,,,,,,,,,,5fb1a8aebe8dfa6c6cc3edbe,27,2022-02-12_10h46.58.339,lexical_decision_task_DD_L3,2021.2.3,MacIntel,60.0024001,,,,,,,,,,,0.9353,1,,,,,,,,,,,,,,z,1,0.9353,,,,,,,,-0.8,0.5,0,0,0,,0,10,10,134,1,TROSS,LB,old,z,./images/TROSSLB.png,,,,,,,,,,,,,,,,,,,,,,,,,,,,,,,,,,,
,,,,,,,,,,,,,,,,,5fb1a8aebe8dfa6c6cc3edbe,27,2022-02-12_10h46.58.339,lexical_decision_task_DD_L3,2021.2.3,MacIntel,60.0024001,,,,,,,,,,,0.6931,1,,,,,,,,,,,,,,z,1,0.6931,,,,,,,,-0.8,0.5,0,0,0,,0,11,11,108,1,GRUET,C,old,z,./images/GRUET.png,,,,,,,,,,,,,,,,,,,,,,,,,,,,,,,,,,,
,,,,,,,,,,,,,,,,,5fb1a8aebe8dfa6c6cc3edbe,27,2022-02-12_10h46.58.339,lexical_decision_task_DD_L3,2021.2.3,MacIntel,60.0024001,,,,,,,,,,,0.8129,1,,,,,,,,,,,,,,m,1,0.8129,,,,,,,,-0.8,0.5,0,0,0,,0,12,12,56,1,PACKET,HB,old,m,./images/PACKETHB.png,,,,,,,,,,,,,,,,,,,,,,,,,,,,,,,,,,,
,,,,,,,,,,,,,,,,,5fb1a8aebe8dfa6c6cc3edbe,27,2022-02-12_10h46.58.339,lexical_decision_task_DD_L3,2021.2.3,MacIntel,60.0024001,,,,,,,,,,,0.7815,1,,,,,,,,,,,,,,m,1,0.7815,,,,,,,,-0.8,0.5,0,0,0,,0,13,13,18,1,JAGUAR,LB,old,m,./images/JAGUARLB.png,,,,,,,,,,,,,,,,,,,,,,,,,,,,,,,,,,,
,,,,,,,,,,,,,,,,,5fb1a8aebe8dfa6c6cc3edbe,27,2022-02-12_10h46.58.339,lexical_decision_task_DD_L3,2021.2.3,MacIntel,60.0024001,,,,,,,,,,,0.6867,1,,,,,,,,,,,,,,m,1,0.6867,,,,,,,,-0.8,0.5,0,0,0,,0,14,14,0,1,TOMATO,LB,old,m,./images/TOMATOLB.png,,,,,,,,,,,,,,,,,,,,,,,,,,,,,,,,,,,
,,,,,,,,,,,,,,,,,5fb1a8aebe8dfa6c6cc3edbe,27,2022-02-12_10h46.58.339,lexical_decision_task_DD_L3,2021.2.3,MacIntel,60.0024001,,,,,,,,,,,0.8172,1,,,,,,,,,,,,,,m,1,0.8172,,,,,,,,-0.8,0.5,0,0,0,,0,15,15,67,1,SAILOR,C,old,m,./images/SAILOR.png,,,,,,,,,,,,,,,,,,,,,,,,,,,,,,,,,,,
,,,,,,,,,,,,,,,,,5fb1a8aebe8dfa6c6cc3edbe,27,2022-02-12_10h46.58.339,lexical_decision_task_DD_L3,2021.2.3,MacIntel,60.0024001,,,,,,,,,,,1.0078,1,,,,,,,,,,,,,,z,1,1.0078,,,,,,,,-0.8,0.5,0,0,0,,0,16,16,160,1,VEETS,HB,old,z,./images/VEETSHB.png,,,,,,,,,,,,,,,,,,,,,,,,,,,,,,,,,,,
,,,,,,,,,,,,,,,,,5fb1a8aebe8dfa6c6cc3edbe,27,2022-02-12_10h46.58.339,lexical_decision_task_DD_L3,2021.2.3,MacIntel,60.0024001,,,,,,,,,,,0.6651,1,,,,,,,,,,,,,,m,1,0.6651,,,,,,,,-0.8,0.5,0,0,0,,0,17,17,15,1,GREASE,LB,old,m,./images/GREASELB.png,,,,,,,,,,,,,,,,,,,,,,,,,,,,,,,,,,,
,,,,,,,,,,,,,,,,,5fb1a8aebe8dfa6c6cc3edbe,27,2022-02-12_10h46.58.339,lexical_decision_task_DD_L3,2021.2.3,MacIntel,60.0024001,,,,,,,,,,,1.3969,0,,,,,,,,,,,,,,z,0,1.3969,,,,,,,,-0.8,0.5,0,0,0,,0,18,18,17,1,SKIING,HB,old,m,./images/SKIINGHB.png,,,,,,,,,,,,,,,,,,,,,,,,,,,,,,,,,,,
,,,,,,,,,,,,,,,,,5fb1a8aebe8dfa6c6cc3edbe,27,2022-02-12_10h46.58.339,lexical_decision_task_DD_L3,2021.2.3,MacIntel,60.0024001,,,,,,,,,,,0.6927,1,,,,,,,,,,,,,,m,1,0.6927,,,,,,,,-0.8,0.5,0,0,0,,0,19,19,64,1,JELLY,C,old,m,./images/JELLY.png,,,,,,,,,,,,,,,,,,,,,,,,,,,,,,,,,,,
,,,,,,,,,,,,,,,,,5fb1a8aebe8dfa6c6cc3edbe,27,2022-02-12_10h46.58.339,lexical_decision_task_DD_L3,2021.2.3,MacIntel,60.0024001,,,,,,,,,,,0.7804,1,,,,,,,,,,,,,,z,1,0.7804,,,,,,,,-0.8,0.5,0,0,0,,0,20,20,139,1,BLEAR,HB,old,z,./images/BLEARHB.png,,,,,,,,,,,,,,,,,,,,,,,,,,,,,,,,,,,
,,,,,,,,,,,,,,,,,5fb1a8aebe8dfa6c6cc3edbe,27,2022-02-12_10h46.58.339,lexical_decision_task_DD_L3,2021.2.3,MacIntel,60.0024001,,,,,,,,,,,0.7468,1,,,,,,,,,,,,,,z,1,0.7468,,,,,,,,-0.8,0.5,0,0,0,,0,21,21,167,1,ZONET,LB,old,z,./images/ZONETLB.png,,,,,,,,,,,,,,,,,,,,,,,,,,,,,,,,,,,
,,,,,,,,,,,,,,,,,5fb1a8aebe8dfa6c6cc3edbe,27,2022-02-12_10h46.58.339,lexical_decision_task_DD_L3,2021.2.3,MacIntel,60.0024001,,,,,,,,,,,0.7526,1,,,,,,,,,,,,,,m,1,0.7526,,,,,,,,-0.8,0.5,0,0,0,,0,22,22,75,1,GRAIN,LB,old,m,./images/GRAINLB.png,,,,,,,,,,,,,,,,,,,,,,,,,,,,,,,,,,,
,,,,,,,,,,,,,,,,,5fb1a8aebe8dfa6c6cc3edbe,27,2022-02-12_10h46.58.339,lexical_decision_task_DD_L3,2021.2.3,MacIntel,60.0024001,,,,,,,,,,,0.6623,1,,,,,,,,,,,,,,m,1,0.6623,,,,,,,,-0.8,0.5,0,0,0,,0,23,23,76,1,INFANT,C,old,m,./images/INFANT.png,,,,,,,,,,,,,,,,,,,,,,,,,,,,,,,,,,,
,,,,,,,,,,,,,,,,,5fb1a8aebe8dfa6c6cc3edbe,27,2022-02-12_10h46.58.339,lexical_decision_task_DD_L3,2021.2.3,MacIntel,60.0024001,,,,,,,,,,,0.5969,1,,,,,,,,,,,,,,m,1,0.5969,,,,,,,,-0.8,0.5,0,0,0,,0,24,24,82,1,SUNSET,C,old,m,./images/SUNSET.png,,,,,,,,,,,,,,,,,,,,,,,,,,,,,,,,,,,
,,,,,,,,,,,,,,,,,5fb1a8aebe8dfa6c6cc3edbe,27,2022-02-12_10h46.58.339,lexical_decision_task_DD_L3,2021.2.3,MacIntel,60.0024001,,,,,,,,,,,0.5973,1,,,,,,,,,,,,,,m,1,0.5973,,,,,,,,-0.8,0.5,0,0,0,,0,25,25,37,1,BIRTH,C,old,m,./images/BIRTH.png,,,,,,,,,,,,,,,,,,,,,,,,,,,,,,,,,,,
,,,,,,,,,,,,,,,,,5fb1a8aebe8dfa6c6cc3edbe,27,2022-02-12_10h46.58.339,lexical_decision_task_DD_L3,2021.2.3,MacIntel,60.0024001,,,,,,,,,,,0.8831,1,,,,,,,,,,,,,,m,1,0.8831,,,,,,,,-0.8,0.5,0,0,0,,0,26,26,2,1,BEARD,HB,old,m,./images/BEARDHB.png,,,,,,,,,,,,,,,,,,,,,,,,,,,,,,,,,,,
,,,,,,,,,,,,,,,,,5fb1a8aebe8dfa6c6cc3edbe,27,2022-02-12_10h46.58.339,lexical_decision_task_DD_L3,2021.2.3,MacIntel,60.0024001,,,,,,,,,,,1.3302,1,,,,,,,,,,,,,,m,1,1.3302,,,,,,,,-0.8,0.5,0,0,0,,0,27,27,50,1,MALLET,HB,old,m,./images/MALLETHB.png,,,,,,,,,,,,,,,,,,,,,,,,,,,,,,,,,,,
,,,,,,,,,,,,,,,,,5fb1a8aebe8dfa6c6cc3edbe,27,2022-02-12_10h46.58.339,lexical_decision_task_DD_L3,2021.2.3,MacIntel,60.0024001,,,,,,,,,,,0.864,1,,,,,,,,,,,,,,m,1,0.864,,,,,,,,-0.8,0.5,0,0,0,,0,28,28,71,1,PIMPLE,HB,old,m,./images/PIMPLEHB.png,,,,,,,,,,,,,,,,,,,,,,,,,,,,,,,,,,,
,,,,,,,,,,,,,,,,,5fb1a8aebe8dfa6c6cc3edbe,27,2022-02-12_10h46.58.339,lexical_decision_task_DD_L3,2021.2.3,MacIntel,60.0024001,,,,,,,,,,,0.569,1,,,,,,,,,,,,,,m,1,0.569,,,,,,,,-0.8,0.5,0,0,0,,0,29,29,10,1,BELLY,C,old,m,./images/BELLY.png,,,,,,,,,,,,,,,,,,,,,,,,,,,,,,,,,,,
,,,,,,,,,,,,,,,,,5fb1a8aebe8dfa6c6cc3edbe,27,2022-02-12_10h46.58.339,lexical_decision_task_DD_L3,2021.2.3,MacIntel,60.0024001,,,,,,,,,,,0.8789,1,,,,,,,,,,,,,,z,1,0.8789,,,,,,,,-0.8,0.5,0,0,0,,0,30,30,129,1,PRANS,C,old,z,./images/PRANS.png,,,,,,,,,,,,,,,,,,,,,,,,,,,,,,,,,,,
,,,,,,,,,,,,,,,,,5fb1a8aebe8dfa6c6cc3edbe,27,2022-02-12_10h46.58.339,lexical_decision_task_DD_L3,2021.2.3,MacIntel,60.0024001,,,,,,,,,,,0.6977,1,,,,,,,,,,,,,,m,1,0.6977,,,,,,,,-0.8,0.5,0,0,0,,0,31,31,38,1,LADDER,HB,old,m,./images/LADDERHB.png,,,,,,,,,,,,,,,,,,,,,,,,,,,,,,,,,,,
,,,,,,,,,,,,,,,,,5fb1a8aebe8dfa6c6cc3edbe,27,2022-02-12_10h46.58.339,lexical_decision_task_DD_L3,2021.2.3,MacIntel,60.0024001,,,,,,,,,,,0.8299,1,,,,,,,,,,,,,,z,1,0.8299,,,,,,,,-0.8,0.5,0,0,0,,0,32,32,144,1,NAIRY,C,old,z,./images/NAIRY.png,,,,,,,,,,,,,,,,,,,,,,,,,,,,,,,,,,,
,,,,,,,,,,,,,,,,,5fb1a8aebe8dfa6c6cc3edbe,27,2022-02-12_10h46.58.339,lexical_decision_task_DD_L3,2021.2.3,MacIntel,60.0024001,,,,,,,,,,,0.6788,1,,,,,,,,,,,,,,m,1,0.6788,,,,,,,,-0.8,0.5,0,0,0,,0,33,33,70,1,URINE,C,old,m,./images/URINE.png,,,,,,,,,,,,,,,,,,,,,,,,,,,,,,,,,,,
,,,,,,,,,,,,,,,,,5fb1a8aebe8dfa6c6cc3edbe,27,2022-02-12_10h46.58.339,lexical_decision_task_DD_L3,2021.2.3,MacIntel,60.0024001,,,,,,,,,,,1.1652,1,,,,,,,,,,,,,,z,1,1.1652,,,,,,,,-0.8,0.5,0,0,0,,0,34,34,114,1,RIKES,C,old,z,./images/RIKES.png,,,,,,,,,,,,,,,,,,,,,,,,,,,,,,,,,,,
,,,,,,,,,,,,,,,,,5fb1a8aebe8dfa6c6cc3edbe,27,2022-02-12_10h46.58.339,lexical_decision_task_DD_L3,2021.2.3,MacIntel,60.0024001,,,,,,,,,,,0.6317,1,,,,,,,,,,,,,,m,1,0.6317,,,,,,,,-0.8,0.5,0,0,0,,0,35,35,57,1,MOOSE,LB,old,m,./images/MOOSELB.png,,,,,,,,,,,,,,,,,,,,,,,,,,,,,,,,,,,
,,,,,,,,,,,,,,,,,5fb1a8aebe8dfa6c6cc3edbe,27,2022-02-12_10h46.58.339,lexical_decision_task_DD_L3,2021.2.3,MacIntel,60.0024001,,,,,,,,,,,0.844,1,,,,,,,,,,,,,,z,1,0.844,,,,,,,,-0.8,0.5,0,0,0,,0,36,36,113,1,LINEW,LB,old,z,./images/LINEWLB.png,,,,,,,,,,,,,,,,,,,,,,,,,,,,,,,,,,,
,,,,,,,,,,,,,,,,,5fb1a8aebe8dfa6c6cc3edbe,27,2022-02-12_10h46.58.339,lexical_decision_task_DD_L3,2021.2.3,MacIntel,60.0024001,,,,,,,,,,,0.5288,0,,,,,,,,,,,,,,m,0,0.5288,,,,,,,,-0.8,0.5,0,0,0,,0,37,37,159,1,CUDDY,C,old,z,./images/CUDDY.png,,,,,,,,,,,,,,,,,,,,,,,,,,,,,,,,,,,
,,,,,,,,,,,,,,,,,5fb1a8aebe8dfa6c6cc3edbe,27,2022-02-12_10h46.58.339,lexical_decision_task_DD_L3,2021.2.3,MacIntel,60.0024001,,,,,,,,,,,1.2806,1,,,,,,,,,,,,,,z,1,1.2806,,,,,,,,-0.8,0.5,0,0,0,,0,38,38,161,1,BLAPS,LB,old,z,./images/BLAPSLB.png,,,,,,,,,,,,,,,,,,,,,,,,,,,,,,,,,,,
,,,,,,,,,,,,,,,,,5fb1a8aebe8dfa6c6cc3edbe,27,2022-02-12_10h46.58.339,lexical_decision_task_DD_L3,2021.2.3,MacIntel,60.0024001,,,,,,,,,,,0.8003,1,,,,,,,,,,,,,,m,1,0.8003,,,,,,,,-0.8,0.5,0,0,0,,0,39,39,66,1,SWEAT,LB,old,m,./images/SWEATLB.png,,,,,,,,,,,,,,,,,,,,,,,,,,,,,,,,,,,
,,,,,,,,,,,,,,,,,5fb1a8aebe8dfa6c6cc3edbe,27,2022-02-12_10h46.58.339,lexical_decision_task_DD_L3,2021.2.3,MacIntel,60.0024001,,,,,,,,,,,0.9154,1,,,,,,,,,,,,,,m,1,0.9154,,,,,,,,-0.8,0.5,0,0,0,,0,40,40,23,1,WALRUS,HB,old,m,./images/WALRUSHB.png,,,,,,,,,,,,,,,,,,,,,,,,,,,,,,,,,,,
,,,,,,,,,,,,,,,,,5fb1a8aebe8dfa6c6cc3edbe,27,2022-02-12_10h46.58.339,lexical_decision_task_DD_L3,2021.2.3,MacIntel,60.0024001,,,,,,,,,,,1.0786,1,,,,,,,,,,,,,,z,1,1.0786,,,,,,,,-0.8,0.5,0,0,0,space,0,41,41,145,1,LAMEL,HB,old,z,./images/LAMELHB.png,8.6661,,,,,,,,,,,,,,,,,,,,,,,,,,,,,,,,,,
,,,,,,,,,,,,,,,,,5fb1a8aebe8dfa6c6cc3edbe,27,2022-02-12_10h46.58.339,lexical_decision_task_DD_L3,2021.2.3,MacIntel,60.0024001,,,,,,,,,,,0.845,1,,,,,,,,,,,,,,m,1,0.845,,,,,,,,-0.8,0.5,0,0,0,,0,42,42,74,1,CEMENT,HB,old,m,./images/CEMENTHB.png,,,,,,,,,,,,,,,,,,,,,,,,,,,,,,,,,,,
,,,,,,,,,,,,,,,,,5fb1a8aebe8dfa6c6cc3edbe,27,2022-02-12_10h46.58.339,lexical_decision_task_DD_L3,2021.2.3,MacIntel,60.0024001,,,,,,,,,,,0.8992,1,,,,,,,,,,,,,,z,1,0.8992,,,,,,,,-0.8,0.5,0,0,0,,0,43,43,133,1,POWDY,HB,old,z,./images/POWDYHB.png,,,,,,,,,,,,,,,,,,,,,,,,,,,,,,,,,,,
,,,,,,,,,,,,,,,,,5fb1a8aebe8dfa6c6cc3edbe,27,2022-02-12_10h46.58.339,lexical_decision_task_DD_L3,2021.2.3,MacIntel,60.0024001,,,,,,,,,,,0.9016,1,,,,,,,,,,,,,,z,1,0.9016,,,,,,,,-0.8,0.5,0,0,0,,0,44,44,124,1,TUNCH,HB,old,z,./images/TUNCHHB.png,,,,,,,,,,,,,,,,,,,,,,,,,,,,,,,,,,,
,,,,,,,,,,,,,,,,,5fb1a8aebe8dfa6c6cc3edbe,27,2022-02-12_10h46.58.339,lexical_decision_task_DD_L3,2021.2.3,MacIntel,60.0024001,,,,,,,,,,,1.8333,1,,,,,,,,,,,,,,m,1,1.8333,,,,,,,,-0.8,0.5,0,0,0,,0,45,45,26,1,SMOKER,HB,old,m,./images/SMOKERHB.png,,,,,,,,,,,,,,,,,,,,,,,,,,,,,,,,,,,
,,,,,,,,,,,,,,,,,5fb1a8aebe8dfa6c6cc3edbe,27,2022-02-12_10h46.58.339,lexical_decision_task_DD_L3,2021.2.3,MacIntel,60.0024001,,,,,,,,,,,1.014,1,,,,,,,,,,,,,,z,1,1.014,,,,,,,,-0.8,0.5,0,0,0,,0,46,46,156,1,HIXES,C,old,z,./images/HIXES.png,,,,,,,,,,,,,,,,,,,,,,,,,,,,,,,,,,,
,,,,,,,,,,,,,,,,,5fb1a8aebe8dfa6c6cc3edbe,27,2022-02-12_10h46.58.339,lexical_decision_task_DD_L3,2021.2.3,MacIntel,60.0024001,,,,,,,,,,,0.6439,1,,,,,,,,,,,,,,m,1,0.6439,,,,,,,,-0.8,0.5,0,0,0,,0,47,47,58,1,BABOON,C,old,m,./images/BABOON.png,,,,,,,,,,,,,,,,,,,,,,,,,,,,,,,,,,,
,,,,,,,,,,,,,,,,,5fb1a8aebe8dfa6c6cc3edbe,27,2022-02-12_10h46.58.339,lexical_decision_task_DD_L3,2021.2.3,MacIntel,60.0024001,,,,,,,,,,,0.7649,1,,,,,,,,,,,,,,z,1,0.7649,,,,,,,,-0.8,0.5,0,0,0,,0,48,48,158,1,EGECT,LB,old,z,./images/EGECTLB.png,,,,,,,,,,,,,,,,,,,,,,,,,,,,,,,,,,,
,,,,,,,,,,,,,,,,,5fb1a8aebe8dfa6c6cc3edbe,27,2022-02-12_10h46.58.339,lexical_decision_task_DD_L3,2021.2.3,MacIntel,60.0024001,,,,,,,,,,,0.7926,1,,,,,,,,,,,,,,m,1,0.7926,,,,,,,,-0.8,0.5,0,0,0,,0,49,49,55,1,MUFFIN,C,old,m,./images/MUFFIN.png,,,,,,,,,,,,,,,,,,,,,,,,,,,,,,,,,,,
,,,,,,,,,,,,,,,,,5fb1a8aebe8dfa6c6cc3edbe,27,2022-02-12_10h46.58.339,lexical_decision_task_DD_L3,2021.2.3,MacIntel,60.0024001,,,,,,,,,,,0.8459,1,,,,,,,,,,,,,,m,1,0.8459,,,,,,,,-0.8,0.5,0,0,0,,0,50,50,35,1,PEACH,HB,old,m,./images/PEACHHB.png,,,,,,,,,,,,,,,,,,,,,,,,,,,,,,,,,,,
,,,,,,,,,,,,,,,,,5fb1a8aebe8dfa6c6cc3edbe,27,2022-02-12_10h46.58.339,lexical_decision_task_DD_L3,2021.2.3,MacIntel,60.0024001,,,,,,,,,,,0.8289,1,,,,,,,,,,,,,,z,1,0.8289,,,,,,,,-0.8,0.5,0,0,0,,0,51,51,116,1,BALGY,LB,old,z,./images/BALGYLB.png,,,,,,,,,,,,,,,,,,,,,,,,,,,,,,,,,,,
,,,,,,,,,,,,,,,,,5fb1a8aebe8dfa6c6cc3edbe,27,2022-02-12_10h46.58.339,lexical_decision_task_DD_L3,2021.2.3,MacIntel,60.0024001,,,,,,,,,,,0.7438,1,,,,,,,,,,,,,,z,1,0.7438,,,,,,,,-0.8,0.5,0,0,0,,0,52,52,150,1,NOOLS,C,old,z,./images/NOOLS.png,,,,,,,,,,,,,,,,,,,,,,,,,,,,,,,,,,,
,,,,,,,,,,,,,,,,,5fb1a8aebe8dfa6c6cc3edbe,27,2022-02-12_10h46.58.339,lexical_decision_task_DD_L3,2021.2.3,MacIntel,60.0024001,,,,,,,,,,,1.2149,1,,,,,,,,,,,,,,z,1,1.2149,,,,,,,,-0.8,0.5,0,0,0,,0,53,53,112,1,MYING,HB,old,z,./images/MYINGHB.png,,,,,,,,,,,,,,,,,,,,,,,,,,,,,,,,,,,
,,,,,,,,,,,,,,,,,5fb1a8aebe8dfa6c6cc3edbe,27,2022-02-12_10h46.58.339,lexical_decision_task_DD_L3,2021.2.3,MacIntel,60.0024001,,,,,,,,,,,1.246,1,,,,,,,,,,,,,,z,1,1.246,,,,,,,,-0.8,0.5,0,0,0,,0,54,54,127,1,NINDY,HB,old,z,./images/NINDYHB.png,,,,,,,,,,,,,,,,,,,,,,,,,,,,,,,,,,,
,,,,,,,,,,,,,,,,,5fb1a8aebe8dfa6c6cc3edbe,27,2022-02-12_10h46.58.339,lexical_decision_task_DD_L3,2021.2.3,MacIntel,60.0024001,,,,,,,,,,,2.3137,1,,,,,,,,,,,,,,z,1,2.3137,,,,,,,,-0.8,0.5,0,0,0,,0,55,55,120,1,RINED,C,old,z,./images/RINED.png,,,,,,,,,,,,,,,,,,,,,,,,,,,,,,,,,,,
,,,,,,,,,,,,,,,,,5fb1a8aebe8dfa6c6cc3edbe,27,2022-02-12_10h46.58.339,lexical_decision_task_DD_L3,2021.2.3,MacIntel,60.0024001,,,,,,,,,,,1.0602,1,,,,,,,,,,,,,,z,1,1.0602,,,,,,,,-0.8,0.5,0,0,0,,0,56,56,103,1,FLORT,HB,old,z,./images/FLORTHB.png,,,,,,,,,,,,,,,,,,,,,,,,,,,,,,,,,,,
,,,,,,,,,,,,,,,,,5fb1a8aebe8dfa6c6cc3edbe,27,2022-02-12_10h46.58.339,lexical_decision_task_DD_L3,2021.2.3,MacIntel,60.0024001,,,,,,,,,,,2.4912,1,,,,,,,,,,,,,,z,1,2.4912,,,,,,,,-0.8,0.5,0,0,0,,0,57,57,97,1,CHIDS,HB,old,z,./images/CHIDSHB.png,,,,,,,,,,,,,,,,,,,,,,,,,,,,,,,,,,,
,,,,,,,,,,,,,,,,,5fb1a8aebe8dfa6c6cc3edbe,27,2022-02-12_10h46.58.339,lexical_decision_task_DD_L3,2021.2.3,MacIntel,60.0024001,,,,,,,,,,,0.8494,1,,,,,,,,,,,,,,z,1,0.8494,,,,,,,,-0.8,0.5,0,0,0,,0,58,58,122,1,BLOOT,LB,old,z,./images/BLOOTLB.png,,,,,,,,,,,,,,,,,,,,,,,,,,,,,,,,,,,
,,,,,,,,,,,,,,,,,5fb1a8aebe8dfa6c6cc3edbe,27,2022-02-12_10h46.58.339,lexical_decision_task_DD_L3,2021.2.3,MacIntel,60.0024001,,,,,,,,,,,0.6181,1,,,,,,,,,,,,,,z,1,0.6181,,,,,,,,-0.8,0.5,0,0,0,,0,59,59,137,1,JOOST,LB,old,z,./images/JOOSTLB.png,,,,,,,,,,,,,,,,,,,,,,,,,,,,,,,,,,,
,,,,,,,,,,,,,,,,,5fb1a8aebe8dfa6c6cc3edbe,27,2022-02-12_10h46.58.339,lexical_decision_task_DD_L3,2021.2.3,MacIntel,60.0024001,,,,,,,,,,,1.0798,1,,,,,,,,,,,,,,z,1,1.0798,,,,,,,,-0.8,0.5,0,0,0,,0,60,60,88,1,GLUSH,HB,old,z,./images/GLUSHHB.png,,,,,,,,,,,,,,,,,,,,,,,,,,,,,,,,,,,
,,,,,,,,,,,,,,,,,5fb1a8aebe8dfa6c6cc3edbe,27,2022-02-12_10h46.58.339,lexical_decision_task_DD_L3,2021.2.3,MacIntel,60.0024001,,,,,,,,,,,1.0157,1,,,,,,,,,,,,,,z,1,1.0157,,,,,,,,-0.8,0.5,0,0,0,,0,61,61,130,1,CRILL,HB,old,z,./images/CRILLHB.png,,,,,,,,,,,,,,,,,,,,,,,,,,,,,,,,,,,
,,,,,,,,,,,,,,,,,5fb1a8aebe8dfa6c6cc3edbe,27,2022-02-12_10h46.58.339,lexical_decision_task_DD_L3,2021.2.3,MacIntel,60.0024001,,,,,,,,,,,1.8103,1,,,,,,,,,,,,,,z,1,1.8103,,,,,,,,-0.8,0.5,0,0,0,,0,62,62,100,1,DRIBS,HB,old,z,./images/DRIBSHB.png,,,,,,,,,,,,,,,,,,,,,,,,,,,,,,,,,,,
,,,,,,,,,,,,,,,,,5fb1a8aebe8dfa6c6cc3edbe,27,2022-02-12_10h46.58.339,lexical_decision_task_DD_L3,2021.2.3,MacIntel,60.0024001,,,,,,,,,,,0.9645,1,,,,,,,,,,,,,,m,1,0.9645,,,,,,,,-0.8,0.5,0,0,0,,0,63,63,14,1,PICKLE,HB,old,m,./images/PICKLEHB.png,,,,,,,,,,,,,,,,,,,,,,,,,,,,,,,,,,,
,,,,,,,,,,,,,,,,,5fb1a8aebe8dfa6c6cc3edbe,27,2022-02-12_10h46.58.339,lexical_decision_task_DD_L3,2021.2.3,MacIntel,60.0024001,,,,,,,,,,,0.7717,1,,,,,,,,,,,,,,m,1,0.7717,,,,,,,,-0.8,0.5,0,0,0,,0,64,64,42,1,FOLDER,LB,old,m,./images/FOLDERLB.png,,,,,,,,,,,,,,,,,,,,,,,,,,,,,,,,,,,
,,,,,,,,,,,,,,,,,5fb1a8aebe8dfa6c6cc3edbe,27,2022-02-12_10h46.58.339,lexical_decision_task_DD_L3,2021.2.3,MacIntel,60.0024001,,,,,,,,,,,0.9131,1,,,,,,,,,,,,,,z,1,0.9131,,,,,,,,-0.8,0.5,0,0,0,,0,65,65,155,1,CANGY,LB,old,z,./images/CANGYLB.png,,,,,,,,,,,,,,,,,,,,,,,,,,,,,,,,,,,
,,,,,,,,,,,,,,,,,5fb1a8aebe8dfa6c6cc3edbe,27,2022-02-12_10h46.58.339,lexical_decision_task_DD_L3,2021.2.3,MacIntel,60.0024001,,,,,,,,,,,0.712,1,,,,,,,,,,,,,,z,1,0.712,,,,,,,,-0.8,0.5,0,0,0,,0,66,66,165,1,TROWN,C,old,z,./images/TROWN.png,,,,,,,,,,,,,,,,,,,,,,,,,,,,,,,,,,,
,,,,,,,,,,,,,,,,,5fb1a8aebe8dfa6c6cc3edbe,27,2022-02-12_10h46.58.339,lexical_decision_task_DD_L3,2021.2.3,MacIntel,60.0024001,,,,,,,,,,,0.6452,1,,,,,,,,,,,,,,m,1,0.6452,,,,,,,,-0.8,0.5,0,0,0,,0,67,67,73,1,SNACK,C,old,m,./images/SNACK.png,,,,,,,,,,,,,,,,,,,,,,,,,,,,,,,,,,,
,,,,,,,,,,,,,,,,,5fb1a8aebe8dfa6c6cc3edbe,27,2022-02-12_10h46.58.339,lexical_decision_task_DD_L3,2021.2.3,MacIntel,60.0024001,,,,,,,,,,,0.7305,1,,,,,,,,,,,,,,m,1,0.7305,,,,,,,,-0.8,0.5,0,0,0,,0,68,68,60,1,TWINS,LB,old,m,./images/TWINSLB.png,,,,,,,,,,,,,,,,,,,,,,,,,,,,,,,,,,,
,,,,,,,,,,,,,,,,,5fb1a8aebe8dfa6c6cc3edbe,27,2022-02-12_10h46.58.339,lexical_decision_task_DD_L3,2021.2.3,MacIntel,60.0024001,,,,,,,,,,,0.9621,1,,,,,,,,,,,,,,m,1,0.9621,,,,,,,,-0.8,0.5,0,0,0,,0,69,69,59,1,BURIAL,HB,old,m,./images/BURIALHB.png,,,,,,,,,,,,,,,,,,,,,,,,,,,,,,,,,,,
,,,,,,,,,,,,,,,,,5fb1a8aebe8dfa6c6cc3edbe,27,2022-02-12_10h46.58.339,lexical_decision_task_DD_L3,2021.2.3,MacIntel,60.0024001,,,,,,,,,,,0.8992,1,,,,,,,,,,,,,,z,1,0.8992,,,,,,,,-0.8,0.5,0,0,0,,0,70,70,92,1,PAIMS,LB,old,z,./images/PAIMSLB.png,,,,,,,,,,,,,,,,,,,,,,,,,,,,,,,,,,,
,,,,,,,,,,,,,,,,,5fb1a8aebe8dfa6c6cc3edbe,27,2022-02-12_10h46.58.339,lexical_decision_task_DD_L3,2021.2.3,MacIntel,60.0024001,,,,,,,,,,,0.7964,1,,,,,,,,,,,,,,m,1,0.7964,,,,,,,,-0.8,0.5,0,0,0,,0,71,71,51,1,ONION,LB,old,m,./images/ONIONLB.png,,,,,,,,,,,,,,,,,,,,,,,,,,,,,,,,,,,
,,,,,,,,,,,,,,,,,5fb1a8aebe8dfa6c6cc3edbe,27,2022-02-12_10h46.58.339,lexical_decision_task_DD_L3,2021.2.3,MacIntel,60.0024001,,,,,,,,,,,0.745,1,,,,,,,,,,,,,,z,1,0.745,,,,,,,,-0.8,0.5,0,0,0,,0,72,72,147,1,ZOLES,C,old,z,./images/ZOLES.png,,,,,,,,,,,,,,,,,,,,,,,,,,,,,,,,,,,
,,,,,,,,,,,,,,,,,5fb1a8aebe8dfa6c6cc3edbe,27,2022-02-12_10h46.58.339,lexical_decision_task_DD_L3,2021.2.3,MacIntel,60.0024001,,,,,,,,,,,1.6308,1,,,,,,,,,,,,,,m,1,1.6308,,,,,,,,-0.8,0.5,0,0,0,,0,73,73,65,1,FARMER,HB,old,m,./images/FARMERHB.png,,,,,,,,,,,,,,,,,,,,,,,,,,,,,,,,,,,
,,,,,,,,,,,,,,,,,5fb1a8aebe8dfa6c6cc3edbe,27,2022-02-12_10h46.58.339,lexical_decision_task_DD_L3,2021.2.3,MacIntel,60.0024001,,,,,,,,,,,0.7466,1,,,,,,,,,,,,,,m,1,0.7466,,,,,,,,-0.8,0.5,0,0,0,,0,74,74,47,1,BERRY,HB,old,m,./images/BERRYHB.png,,,,,,,,,,,,,,,,,,,,,,,,,,,,,,,,,,,
,,,,,,,,,,,,,,,,,5fb1a8aebe8dfa6c6cc3edbe,27,2022-02-12_10h46.58.339,lexical_decision_task_DD_L3,2021.2.3,MacIntel,60.0024001,,,,,,,,,,,0.7657,1,,,,,,,,,,,,,,m,1,0.7657,,,,,,,,-0.8,0.5,0,0,0,,0,75,75,1,1,PLANK,C,old,m,./images/PLANK.png,,,,,,,,,,,,,,,,,,,,,,,,,,,,,,,,,,,
,,,,,,,,,,,,,,,,,5fb1a8aebe8dfa6c6cc3edbe,27,2022-02-12_10h46.58.339,lexical_decision_task_DD_L3,2021.2.3,MacIntel,60.0024001,,,,,,,,,,,0.6813,1,,,,,,,,,,,,,,m,1,0.6813,,,,,,,,-0.8,0.5,0,0,0,,0,76,76,6,1,SQUARE,LB,old,m,./images/SQUARELB.png,,,,,,,,,,,,,,,,,,,,,,,,,,,,,,,,,,,
,,,,,,,,,,,,,,,,,5fb1a8aebe8dfa6c6cc3edbe,27,2022-02-12_10h46.58.339,lexical_decision_task_DD_L3,2021.2.3,MacIntel,60.0024001,,,,,,,,,,,1.1484,1,,,,,,,,,,,,,,z,1,1.1484,,,,,,,,-0.8,0.5,0,0,0,,0,77,77,118,1,BAVEL,HB,old,z,./images/BAVELHB.png,,,,,,,,,,,,,,,,,,,,,,,,,,,,,,,,,,,
,,,,,,,,,,,,,,,,,5fb1a8aebe8dfa6c6cc3edbe,27,2022-02-12_10h46.58.339,lexical_decision_task_DD_L3,2021.2.3,MacIntel,60.0024001,,,,,,,,,,,2.6963,1,,,,,,,,,,,,,,m,1,2.6963,,,,,,,,-0.8,0.5,0,0,0,,0,78,78,39,1,SHELF,LB,old,m,./images/SHELFLB.png,,,,,,,,,,,,,,,,,,,,,,,,,,,,,,,,,,,
,,,,,,,,,,,,,,,,,5fb1a8aebe8dfa6c6cc3edbe,27,2022-02-12_10h46.58.339,lexical_decision_task_DD_L3,2021.2.3,MacIntel,60.0024001,,,,,,,,,,,1.8965,1,,,,,,,,,,,,,,m,1,1.8965,,,,,,,,-0.8,0.5,0,0,0,,0,79,79,40,1,SWING,C,old,m,./images/SWING.png,,,,,,,,,,,,,,,,,,,,,,,,,,,,,,,,,,,
,,,,,,,,,,,,,,,,,5fb1a8aebe8dfa6c6cc3edbe,27,2022-02-12_10h46.58.339,lexical_decision_task_DD_L3,2021.2.3,MacIntel,60.0024001,,,,,,,,,,,0.7961,1,,,,,,,,,,,,,,z,1,0.7961,,,,,,,,-0.8,0.5,0,0,0,,0,80,80,93,1,SMONE,C,old,z,./images/SMONE.png,,,,,,,,,,,,,,,,,,,,,,,,,,,,,,,,,,,
,,,,,,,,,,,,,,,,,5fb1a8aebe8dfa6c6cc3edbe,27,2022-02-12_10h46.58.339,lexical_decision_task_DD_L3,2021.2.3,MacIntel,60.0024001,,,,,,,,,,,0.9105,1,,,,,,,,,,,,,,m,1,0.9105,,,,,,,,-0.8,0.5,0,0,0,,0,81,81,68,1,TORCH,HB,old,m,./images/TORCHHB.png,,,,,,,,,,,,,,,,,,,,,,,,,,,,,,,,,,,
,,,,,,,,,,,,,,,,,5fb1a8aebe8dfa6c6cc3edbe,27,2022-02-12_10h46.58.339,lexical_decision_task_DD_L3,2021.2.3,MacIntel,60.0024001,,,,,,,,,,,0.8974,1,,,,,,,,,,,,,,m,1,0.8974,,,,,,,,-0.8,0.5,0,0,0,,0,82,82,83,1,JUNGLE,HB,old,m,./images/JUNGLEHB.png,,,,,,,,,,,,,,,,,,,,,,,,,,,,,,,,,,,
,,,,,,,,,,,,,,,,,5fb1a8aebe8dfa6c6cc3edbe,27,2022-02-12_10h46.58.339,lexical_decision_task_DD_L3,2021.2.3,MacIntel,60.0024001,,,,,,,,,,,1.078,1,,,,,,,,,,,,,,m,1,1.078,,,,,,,,-0.8,0.5,0,0,0,space,0,83,83,49,1,DRUMS,C,old,m,./images/DRUMS.png,7.0654,,,,,,,,,,,,,,,,,,,,,,,,,,,,,,,,,,
,,,,,,,,,,,,,,,,,5fb1a8aebe8dfa6c6cc3edbe,27,2022-02-12_10h46.58.339,lexical_decision_task_DD_L3,2021.2.3,MacIntel,60.0024001,,,,,,,,,,,2.2114,1,,,,,,,,,,,,,,z,1,2.2114,,,,,,,,-0.8,0.5,0,0,0,,0,84,84,141,1,PLEET,C,old,z,./images/PLEET.png,,,,,,,,,,,,,,,,,,,,,,,,,,,,,,,,,,,
,,,,,,,,,,,,,,,,,5fb1a8aebe8dfa6c6cc3edbe,27,2022-02-12_10h46.58.339,lexical_decision_task_DD_L3,2021.2.3,MacIntel,60.0024001,,,,,,,,,,,2.2231,0,,,,,,,,,,,,,,m,0,2.2231,,,,,,,,-0.8,0.5,0,0,0,,0,85,85,110,1,CRUNK,LB,old,z,./images/CRUNKLB.png,,,,,,,,,,,,,,,,,,,,,,,,,,,,,,,,,,,
,,,,,,,,,,,,,,,,,5fb1a8aebe8dfa6c6cc3edbe,27,2022-02-12_10h46.58.339,lexical_decision_task_DD_L3,2021.2.3,MacIntel,60.0024001,,,,,,,,,,,0.8825,1,,,,,,,,,,,,,,m,1,0.8825,,,,,,,,-0.8,0.5,0,0,0,,0,86,86,11,1,BONNET,HB,old,m,./images/BONNETHB.png,,,,,,,,,,,,,,,,,,,,,,,,,,,,,,,,,,,
,,,,,,,,,,,,,,,,,5fb1a8aebe8dfa6c6cc3edbe,27,2022-02-12_10h46.58.339,lexical_decision_task_DD_L3,2021.2.3,MacIntel,60.0024001,,,,,,,,,,,1.5126,1,,,,,,,,,,,,,,z,1,1.5126,,,,,,,,-0.8,0.5,0,0,0,,0,87,87,157,1,INLER,HB,old,z,./images/INLERHB.png,,,,,,,,,,,,,,,,,,,,,,,,,,,,,,,,,,,
,,,,,,,,,,,,,,,,,5fb1a8aebe8dfa6c6cc3edbe,27,2022-02-12_10h46.58.339,lexical_decision_task_DD_L3,2021.2.3,MacIntel,60.0024001,,,,,,,,,,,3.163,1,,,,,,,,,,,,,,m,1,3.163,,,,,,,,-0.8,0.5,0,0,0,,0,88,88,79,1,CRUST,C,old,m,./images/CRUST.png,,,,,,,,,,,,,,,,,,,,,,,,,,,,,,,,,,,
,,,,,,,,,,,,,,,,,5fb1a8aebe8dfa6c6cc3edbe,27,2022-02-12_10h46.58.339,lexical_decision_task_DD_L3,2021.2.3,MacIntel,60.0024001,,,,,,,,,,,0.7343,1,,,,,,,,,,,,,,z,1,0.7343,,,,,,,,-0.8,0.5,0,0,0,,0,89,89,143,1,MONGS,LB,old,z,./images/MONGSLB.png,,,,,,,,,,,,,,,,,,,,,,,,,,,,,,,,,,,
,,,,,,,,,,,,,,,,,5fb1a8aebe8dfa6c6cc3edbe,27,2022-02-12_10h46.58.339,lexical_decision_task_DD_L3,2021.2.3,MacIntel,60.0024001,,,,,,,,,,,1.2944,1,,,,,,,,,,,,,,z,1,1.2944,,,,,,,,-0.8,0.5,0,0,0,,0,90,90,136,1,WERVE,HB,old,z,./images/WERVEHB.png,,,,,,,,,,,,,,,,,,,,,,,,,,,,,,,,,,,
,,,,,,,,,,,,,,,,,5fb1a8aebe8dfa6c6cc3edbe,27,2022-02-12_10h46.58.339,lexical_decision_task_DD_L3,2021.2.3,MacIntel,60.0024001,,,,,,,,,,,0.7599,1,,,,,,,,,,,,,,m,1,0.7599,,,,,,,,-0.8,0.5,0,0,0,,0,91,91,36,1,THROAT,LB,old,m,./images/THROATLB.png,,,,,,,,,,,,,,,,,,,,,,,,,,,,,,,,,,,
,,,,,,,,,,,,,,,,,5fb1a8aebe8dfa6c6cc3edbe,27,2022-02-12_10h46.58.339,lexical_decision_task_DD_L3,2021.2.3,MacIntel,60.0024001,,,,,,,,,,,0.9626,1,,,,,,,,,,,,,,z,1,0.9626,,,,,,,,-0.8,0.5,0,0,0,,0,92,92,142,1,PLASK,HB,old,z,./images/PLASKHB.png,,,,,,,,,,,,,,,,,,,,,,,,,,,,,,,,,,,
,,,,,,,,,,,,,,,,,5fb1a8aebe8dfa6c6cc3edbe,27,2022-02-12_10h46.58.339,lexical_decision_task_DD_L3,2021.2.3,MacIntel,60.0024001,,,,,,,,,,,0.9306,1,,,,,,,,,,,,,,z,1,0.9306,,,,,,,,-0.8,0.5,0,0,0,,0,93,93,154,1,THINT,HB,old,z,./images/THINTHB.png,,,,,,,,,,,,,,,,,,,,,,,,,,,,,,,,,,,
,,,,,,,,,,,,,,,,,5fb1a8aebe8dfa6c6cc3edbe,27,2022-02-12_10h46.58.339,lexical_decision_task_DD_L3,2021.2.3,MacIntel,60.0024001,,,,,,,,,,,0.706,1,,,,,,,,,,,,,,m,1,0.706,,,,,,,,-0.8,0.5,0,0,0,,0,94,94,24,1,SCREW,LB,old,m,./images/SCREWLB.png,,,,,,,,,,,,,,,,,,,,,,,,,,,,,,,,,,,
,,,,,,,,,,,,,,,,,5fb1a8aebe8dfa6c6cc3edbe,27,2022-02-12_10h46.58.339,lexical_decision_task_DD_L3,2021.2.3,MacIntel,60.0024001,,,,,,,,,,,0.6636,1,,,,,,,,,,,,,,z,1,0.6636,,,,,,,,-0.8,0.5,0,0,0,,0,95,95,86,1,AIFED,LB,old,z,./images/AIFEDLB.png,,,,,,,,,,,,,,,,,,,,,,,,,,,,,,,,,,,
,,,,,,,,,,,,,,,,,5fb1a8aebe8dfa6c6cc3edbe,27,2022-02-12_10h46.58.339,lexical_decision_task_DD_L3,2021.2.3,MacIntel,60.0024001,,,,,,,,,,,0.912,1,,,,,,,,,,,,,,m,1,0.912,,,,,,,,-0.8,0.5,0,0,0,,0,96,96,33,1,MAGGOT,LB,old,m,./images/MAGGOTLB.png,,,,,,,,,,,,,,,,,,,,,,,,,,,,,,,,,,,
,,,,,,,,,,,,,,,,,5fb1a8aebe8dfa6c6cc3edbe,27,2022-02-12_10h46.58.339,lexical_decision_task_DD_L3,2021.2.3,MacIntel,60.0024001,,,,,,,,,,,0.6857,1,,,,,,,,,,,,,,m,1,0.6857,,,,,,,,-0.8,0.5,0,0,0,,0,97,97,19,1,DOUGH,C,old,m,./images/DOUGH.png,,,,,,,,,,,,,,,,,,,,,,,,,,,,,,,,,,,
,,,,,,,,,,,,,,,,,5fb1a8aebe8dfa6c6cc3edbe,27,2022-02-12_10h46.58.339,lexical_decision_task_DD_L3,2021.2.3,MacIntel,60.0024001,,,,,,,,,,,0.66,1,,,,,,,,,,,,,,z,1,0.66,,,,,,,,-0.8,0.5,0,0,0,,0,98,98,117,1,STEEG,C,old,z,./images/STEEG.png,,,,,,,,,,,,,,,,,,,,,,,,,,,,,,,,,,,
,,,,,,,,,,,,,,,,,5fb1a8aebe8dfa6c6cc3edbe,27,2022-02-12_10h46.58.339,lexical_decision_task_DD_L3,2021.2.3,MacIntel,60.0024001,,,,,,,,,,,1.0973,1,,,,,,,,,,,,,,z,1,1.0973,,,,,,,,-0.8,0.5,0,0,0,,0,99,99,163,1,GAMBA,HB,old,z,./images/GAMBAHB.png,,,,,,,,,,,,,,,,,,,,,,,,,,,,,,,,,,,
,,,,,,,,,,,,,,,,,5fb1a8aebe8dfa6c6cc3edbe,27,2022-02-12_10h46.58.339,lexical_decision_task_DD_L3,2021.2.3,MacIntel,60.0024001,,,,,,,,,,,0.7796,1,,,,,,,,,,,,,,m,1,0.7796,,,,,,,,-0.8,0.5,0,0,0,,0,100,100,80,1,WEASEL,HB,old,m,./images/WEASELHB.png,,,,,,,,,,,,,,,,,,,,,,,,,,,,,,,,,,,
,,,,,,,,,,,,,,,,,5fb1a8aebe8dfa6c6cc3edbe,27,2022-02-12_10h46.58.339,lexical_decision_task_DD_L3,2021.2.3,MacIntel,60.0024001,,,,,,,,,,,0.9356,1,,,,,,,,,,,,,,m,1,0.9356,,,,,,,,-0.8,0.5,0,0,0,,0,101,101,41,1,STRING,HB,old,m,./images/STRINGHB.png,,,,,,,,,,,,,,,,,,,,,,,,,,,,,,,,,,,
,,,,,,,,,,,,,,,,,5fb1a8aebe8dfa6c6cc3edbe,27,2022-02-12_10h46.58.339,lexical_decision_task_DD_L3,2021.2.3,MacIntel,60.0024001,,,,,,,,,,,0.7163,1,,,,,,,,,,,,,,z,1,0.7163,,,,,,,,-0.8,0.5,0,0,0,,0,102,102,105,1,MOKER,C,old,z,./images/MOKER.png,,,,,,,,,,,,,,,,,,,,,,,,,,,,,,,,,,,
,,,,,,,,,,,,,,,,,5fb1a8aebe8dfa6c6cc3edbe,27,2022-02-12_10h46.58.339,lexical_decision_task_DD_L3,2021.2.3,MacIntel,60.0024001,,,,,,,,,,,0.6104,1,,,,,,,,,,,,,,m,1,0.6104,,,,,,,,-0.8,0.5,0,0,0,,0,103,103,34,1,CANYON,C,old,m,./images/CANYON.png,,,,,,,,,,,,,,,,,,,,,,,,,,,,,,,,,,,
,,,,,,,,,,,,,,,,,5fb1a8aebe8dfa6c6cc3edbe,27,2022-02-12_10h46.58.339,lexical_decision_task_DD_L3,2021.2.3,MacIntel,60.0024001,,,,,,,,,,,0.8,1,,,,,,,,,,,,,,m,1,0.8,,,,,,,,-0.8,0.5,0,0,0,,0,104,104,27,1,ATTIC,LB,old,m,./images/ATTICLB.png,,,,,,,,,,,,,,,,,,,,,,,,,,,,,,,,,,,
,,,,,,,,,,,,,,,,,5fb1a8aebe8dfa6c6cc3edbe,27,2022-02-12_10h46.58.339,lexical_decision_task_DD_L3,2021.2.3,MacIntel,60.0024001,,,,,,,,,,,0.7713,1,,,,,,,,,,,,,,z,1,0.7713,,,,,,,,-0.8,0.5,0,0,0,,0,105,105,98,1,BAMPS,LB,old,z,./images/BAMPSLB.png,,,,,,,,,,,,,,,,,,,,,,,,,,,,,,,,,,,
,,,,,,,,,,,,,,,,,5fb1a8aebe8dfa6c6cc3edbe,27,2022-02-12_10h46.58.339,lexical_decision_task_DD_L3,2021.2.3,MacIntel,60.0024001,,,,,,,,,,,1.0115,1,,,,,,,,,,,,,,z,1,1.0115,,,,,,,,-0.8,0.5,0,0,0,,0,106,106,138,1,PLICE,C,old,z,./images/PLICE.png,,,,,,,,,,,,,,,,,,,,,,,,,,,,,,,,,,,
,,,,,,,,,,,,,,,,,5fb1a8aebe8dfa6c6cc3edbe,27,2022-02-12_10h46.58.339,lexical_decision_task_DD_L3,2021.2.3,MacIntel,60.0024001,,,,,,,,,,,0.6966,1,,,,,,,,,,,,,,z,1,0.6966,,,,,,,,-0.8,0.5,0,0,0,,0,107,107,119,1,PAFER,LB,old,z,./images/PAFERLB.png,,,,,,,,,,,,,,,,,,,,,,,,,,,,,,,,,,,
,,,,,,,,,,,,,,,,,5fb1a8aebe8dfa6c6cc3edbe,27,2022-02-12_10h46.58.339,lexical_decision_task_DD_L3,2021.2.3,MacIntel,60.0024001,,,,,,,,,,,0.7023,1,,,,,,,,,,,,,,z,1,0.7023,,,,,,,,-0.8,0.5,0,0,0,,0,108,108,90,1,NEAST,C,old,z,./images/NEAST.png,,,,,,,,,,,,,,,,,,,,,,,,,,,,,,,,,,,
,,,,,,,,,,,,,,,,,5fb1a8aebe8dfa6c6cc3edbe,27,2022-02-12_10h46.58.339,lexical_decision_task_DD_L3,2021.2.3,MacIntel,60.0024001,,,,,,,,,,,0.6799,1,,,,,,,,,,,,,,z,1,0.6799,,,,,,,,-0.8,0.5,0,0,0,,0,109,109,109,1,BURGE,HB,old,z,./images/BURGEHB.png,,,,,,,,,,,,,,,,,,,,,,,,,,,,,,,,,,,
,,,,,,,,,,,,,,,,,5fb1a8aebe8dfa6c6cc3edbe,27,2022-02-12_10h46.58.339,lexical_decision_task_DD_L3,2021.2.3,MacIntel,60.0024001,,,,,,,,,,,0.8525,1,,,,,,,,,,,,,,z,1,0.8525,,,,,,,,-0.8,0.5,0,0,0,,0,110,110,102,1,DULLE,C,old,z,./images/DULLE.png,,,,,,,,,,,,,,,,,,,,,,,,,,,,,,,,,,,
,,,,,,,,,,,,,,,,,5fb1a8aebe8dfa6c6cc3edbe,27,2022-02-12_10h46.58.339,lexical_decision_task_DD_L3,2021.2.3,MacIntel,60.0024001,,,,,,,,,,,3.4926,1,,,,,,,,,,,,,,m,1,3.4926,,,,,,,,-0.8,0.5,0,0,0,,0,111,111,16,1,PENCE,C,old,m,./images/PENCE.png,,,,,,,,,,,,,,,,,,,,,,,,,,,,,,,,,,,
,,,,,,,,,,,,,,,,,5fb1a8aebe8dfa6c6cc3edbe,27,2022-02-12_10h46.58.339,lexical_decision_task_DD_L3,2021.2.3,MacIntel,60.0024001,,,,,,,,,,,0.9614,1,,,,,,,,,,,,,,m,1,0.9614,,,,,,,,-0.8,0.5,0,0,0,,0,112,112,4,1,MUSCLE,C,old,m,./images/MUSCLE.png,,,,,,,,,,,,,,,,,,,,,,,,,,,,,,,,,,,
,,,,,,,,,,,,,,,,,5fb1a8aebe8dfa6c6cc3edbe,27,2022-02-12_10h46.58.339,lexical_decision_task_DD_L3,2021.2.3,MacIntel,60.0024001,,,,,,,,,,,0.9997,1,,,,,,,,,,,,,,z,1,0.9997,,,,,,,,-0.8,0.5,0,0,0,,0,113,113,132,1,SCIFF,C,old,z,./images/SCIFF.png,,,,,,,,,,,,,,,,,,,,,,,,,,,,,,,,,,,
,,,,,,,,,,,,,,,,,5fb1a8aebe8dfa6c6cc3edbe,27,2022-02-12_10h46.58.339,lexical_decision_task_DD_L3,2021.2.3,MacIntel,60.0024001,,,,,,,,,,,1.0705,1,,,,,,,,,,,,,,z,1,1.0705,,,,,,,,-0.8,0.5,0,0,0,,0,114,114,140,1,DOVET,LB,old,z,./images/DOVETLB.png,,,,,,,,,,,,,,,,,,,,,,,,,,,,,,,,,,,
,,,,,,,,,,,,,,,,,5fb1a8aebe8dfa6c6cc3edbe,27,2022-02-12_10h46.58.339,lexical_decision_task_DD_L3,2021.2.3,MacIntel,60.0024001,,,,,,,,,,,0.9147,1,,,,,,,,,,,,,,z,1,0.9147,,,,,,,,-0.8,0.5,0,0,0,,0,115,115,94,1,BLANS,HB,old,z,./images/BLANSHB.png,,,,,,,,,,,,,,,,,,,,,,,,,,,,,,,,,,,
,,,,,,,,,,,,,,,,,5fb1a8aebe8dfa6c6cc3edbe,27,2022-02-12_10h46.58.339,lexical_decision_task_DD_L3,2021.2.3,MacIntel,60.0024001,,,,,,,,,,,0.7632,1,,,,,,,,,,,,,,z,1,0.7632,,,,,,,,-0.8,0.5,0,0,0,,0,116,116,87,1,TRING,C,old,z,./images/TRING.png,,,,,,,,,,,,,,,,,,,,,,,,,,,,,,,,,,,
,,,,,,,,,,,,,,,,,5fb1a8aebe8dfa6c6cc3edbe,27,2022-02-12_10h46.58.339,lexical_decision_task_DD_L3,2021.2.3,MacIntel,60.0024001,,,,,,,,,,,0.7153,1,,,,,,,,,,,,,,z,1,0.7153,,,,,,,,-0.8,0.5,0,0,0,,0,117,117,95,1,HANTY,LB,old,z,./images/HANTYLB.png,,,,,,,,,,,,,,,,,,,,,,,,,,,,,,,,,,,
,,,,,,,,,,,,,,,,,5fb1a8aebe8dfa6c6cc3edbe,27,2022-02-12_10h46.58.339,lexical_decision_task_DD_L3,2021.2.3,MacIntel,60.0024001,,,,,,,,,,,0.7448,1,,,,,,,,,,,,,,m,1,0.7448,,,,,,,,-0.8,0.5,0,0,0,,0,118,118,52,1,BANNER,C,old,m,./images/BANNER.png,,,,,,,,,,,,,,,,,,,,,,,,,,,,,,,,,,,
,,,,,,,,,,,,,,,,,5fb1a8aebe8dfa6c6cc3edbe,27,2022-02-12_10h46.58.339,lexical_decision_task_DD_L3,2021.2.3,MacIntel,60.0024001,,,,,,,,,,,1.1646,0,,,,,,,,,,,,,,m,0,1.1646,,,,,,,,-0.8,0.5,0,0,0,,0,119,119,128,1,GRIFT,LB,old,z,./images/GRIFTLB.png,,,,,,,,,,,,,,,,,,,,,,,,,,,,,,,,,,,
,,,,,,,,,,,,,,,,,5fb1a8aebe8dfa6c6cc3edbe,27,2022-02-12_10h46.58.339,lexical_decision_task_DD_L3,2021.2.3,MacIntel,60.0024001,,,,,,,,,,,0.9202,1,,,,,,,,,,,,,,z,1,0.9202,,,,,,,,-0.8,0.5,0,0,0,,0,120,120,152,1,FRAIN,LB,old,z,./images/FRAINLB.png,,,,,,,,,,,,,,,,,,,,,,,,,,,,,,,,,,,
,,,,,,,,,,,,,,,,,5fb1a8aebe8dfa6c6cc3edbe,27,2022-02-12_10h46.58.339,lexical_decision_task_DD_L3,2021.2.3,MacIntel,60.0024001,,,,,,,,,,,0.8637,1,,,,,,,,,,,,,,z,1,0.8637,,,,,,,,-0.8,0.5,0,0,0,,0,121,121,84,1,HAXES,C,old,z,./images/HAXES.png,,,,,,,,,,,,,,,,,,,,,,,,,,,,,,,,,,,
,,,,,,,,,,,,,,,,,5fb1a8aebe8dfa6c6cc3edbe,27,2022-02-12_10h46.58.339,lexical_decision_task_DD_L3,2021.2.3,MacIntel,60.0024001,,,,,,,,,,,0.9876,1,,,,,,,,,,,,,,z,1,0.9876,,,,,,,,-0.8,0.5,0,0,0,,0,122,122,151,1,TINKY,HB,old,z,./images/TINKYHB.png,,,,,,,,,,,,,,,,,,,,,,,,,,,,,,,,,,,
,,,,,,,,,,,,,,,,,5fb1a8aebe8dfa6c6cc3edbe,27,2022-02-12_10h46.58.339,lexical_decision_task_DD_L3,2021.2.3,MacIntel,60.0024001,,,,,,,,,,,2.1937,1,,,,,,,,,,,,,,z,1,2.1937,,,,,,,,-0.8,0.5,0,0,0,,0,123,123,166,1,SHORY,HB,old,z,./images/SHORYHB.png,,,,,,,,,,,,,,,,,,,,,,,,,,,,,,,,,,,
,,,,,,,,,,,,,,,,,5fb1a8aebe8dfa6c6cc3edbe,27,2022-02-12_10h46.58.339,lexical_decision_task_DD_L3,2021.2.3,MacIntel,60.0024001,,,,,,,,,,,1.2821,1,,,,,,,,,,,,,,z,1,1.2821,,,,,,,,-0.8,0.5,0,0,0,,0,124,124,85,1,CHULK,HB,old,z,./images/CHULKHB.png,,,,,,,,,,,,,,,,,,,,,,,,,,,,,,,,,,,
,,,,,,,,,,,,,,,,,5fb1a8aebe8dfa6c6cc3edbe,27,2022-02-12_10h46.58.339,lexical_decision_task_DD_L3,2021.2.3,MacIntel,60.0024001,,,,,,,,,,,0.6359,1,,,,,,,,,,,,,,m,1,0.6359,,,,,,,,0.394271376,-0.164624363,0,0,0,space,0,125,125,7,1,PAINT,C,old,m,./images/PAINT.png,6.3018,,,,,,,,,,,,,,,,,,,,,,,,,,,,,,,,,,
,,,,,,,,,,,,,,,,,5fb1a8aebe8dfa6c6cc3edbe,27,2022-02-12_10h46.58.339,lexical_decision_task_DD_L3,2021.2.3,MacIntel,60.0024001,,,,,,,,,,,1.149,1,,,,,,,,,,,,,,m,1,1.149,,,,,,,,0.394271376,-0.164624363,0,0,0,,0,126,126,29,1,CRUMB,HB,old,m,./images/CRUMBHB.png,,,,,,,,,,,,,,,,,,,,,,,,,,,,,,,,,,,
,,,,,,,,,,,,,,,,,5fb1a8aebe8dfa6c6cc3edbe,27,2022-02-12_10h46.58.339,lexical_decision_task_DD_L3,2021.2.3,MacIntel,60.0024001,,,,,,,,,,,0.7652,1,,,,,,,,,,,,,,m,1,0.7652,,,,,,,,0.394271376,-0.164624363,0,0,0,,0,127,127,81,1,POODLE,LB,old,m,./images/POODLELB.png,,,,,,,,,,,,,,,,,,,,,,,,,,,,,,,,,,,
,,,,,,,,,,,,,,,,,5fb1a8aebe8dfa6c6cc3edbe,27,2022-02-12_10h46.58.339,lexical_decision_task_DD_L3,2021.2.3,MacIntel,60.0024001,,,,,,,,,,,0.7144,1,,,,,,,,,,,,,,m,1,0.7144,,,,,,,,0.394271376,-0.164624363,0,0,0,,0,128,128,9,1,RHINO,LB,old,m,./images/RHINOLB.png,,,,,,,,,,,,,,,,,,,,,,,,,,,,,,,,,,,
,,,,,,,,,,,,,,,,,5fb1a8aebe8dfa6c6cc3edbe,27,2022-02-12_10h46.58.339,lexical_decision_task_DD_L3,2021.2.3,MacIntel,60.0024001,,,,,,,,,,,0.8616,1,,,,,,,,,,,,,,m,1,0.8616,,,,,,,,0.394271376,-0.164624363,0,0,0,,0,129,129,43,1,MOSQUE,C,old,m,./images/MOSQUE.png,,,,,,,,,,,,,,,,,,,,,,,,,,,,,,,,,,,
,,,,,,,,,,,,,,,,,5fb1a8aebe8dfa6c6cc3edbe,27,2022-02-12_10h46.58.339,lexical_decision_task_DD_L3,2021.2.3,MacIntel,60.0024001,,,,,,,,,,,1.2461,1,,,,,,,,,,,,,,z,1,1.2461,,,,,,,,0.394271376,-0.164624363,0,0,0,,0,130,130,107,1,FASKS,LB,old,z,./images/FASKSLB.png,,,,,,,,,,,,,,,,,,,,,,,,,,,,,,,,,,,
,,,,,,,,,,,,,,,,,5fb1a8aebe8dfa6c6cc3edbe,27,2022-02-12_10h46.58.339,lexical_decision_task_DD_L3,2021.2.3,MacIntel,60.0024001,,,,,,,,,,,0.679,1,,,,,,,,,,,,,,z,1,0.679,,,,,,,,0.394271376,-0.164624363,0,0,0,,0,131,131,162,1,LEICH,C,old,z,./images/LEICH.png,,,,,,,,,,,,,,,,,,,,,,,,,,,,,,,,,,,
,,,,,,,,,,,,,,,,,5fb1a8aebe8dfa6c6cc3edbe,27,2022-02-12_10h46.58.339,lexical_decision_task_DD_L3,2021.2.3,MacIntel,60.0024001,,,,,,,,,,,0.7964,1,,,,,,,,,,,,,,m,1,0.7964,,,,,,,,0.394271376,-0.164624363,0,0,0,,0,132,132,45,1,KITTEN,LB,old,m,./images/KITTENLB.png,,,,,,,,,,,,,,,,,,,,,,,,,,,,,,,,,,,
,,,,,,,,,,,,,,,,,5fb1a8aebe8dfa6c6cc3edbe,27,2022-02-12_10h46.58.339,lexical_decision_task_DD_L3,2021.2.3,MacIntel,60.0024001,,,,,,,,,,,0.7304,1,,,,,,,,,,,,,,m,1,0.7304,,,,,,,,0.394271376,-0.164624363,0,0,0,,0,133,133,3,1,FINGER,LB,old,m,./images/FINGERLB.png,,,,,,,,,,,,,,,,,,,,,,,,,,,,,,,,,,,
,,,,,,,,,,,,,,,,,5fb1a8aebe8dfa6c6cc3edbe,27,2022-02-12_10h46.58.339,lexical_decision_task_DD_L3,2021.2.3,MacIntel,60.0024001,,,,,,,,,,,0.6627,1,,,,,,,,,,,,,,m,1,0.6627,,,,,,,,0.394271376,-0.164624363,0,0,0,,0,134,134,28,1,FALCON,C,old,m,./images/FALCON.png,,,,,,,,,,,,,,,,,,,,,,,,,,,,,,,,,,,
,,,,,,,,,,,,,,,,,5fb1a8aebe8dfa6c6cc3edbe,27,2022-02-12_10h46.58.339,lexical_decision_task_DD_L3,2021.2.3,MacIntel,60.0024001,,,,,,,,,,,0.5474,1,,,,,,,,,,,,,,m,1,0.5474,,,,,,,,0.394271376,-0.164624363,0,0,0,,0,135,135,48,1,SPORT,LB,old,m,./images/SPORTLB.png,,,,,,,,,,,,,,,,,,,,,,,,,,,,,,,,,,,
,,,,,,,,,,,,,,,,,5fb1a8aebe8dfa6c6cc3edbe,27,2022-02-12_10h46.58.339,lexical_decision_task_DD_L3,2021.2.3,MacIntel,60.0024001,,,,,,,,,,,0.7286,1,,,,,,,,,,,,,,z,1,0.7286,,,,,,,,0.394271376,-0.164624363,0,0,0,,0,136,136,96,1,KEAMS,C,old,z,./images/KEAMS.png,,,,,,,,,,,,,,,,,,,,,,,,,,,,,,,,,,,
,,,,,,,,,,,,,,,,,5fb1a8aebe8dfa6c6cc3edbe,27,2022-02-12_10h46.58.339,lexical_decision_task_DD_L3,2021.2.3,MacIntel,60.0024001,,,,,,,,,,,0.7458,1,,,,,,,,,,,,,,m,1,0.7458,,,,,,,,0.394271376,-0.164624363,0,0,0,,0,137,137,25,1,WRIST,C,old,m,./images/WRIST.png,,,,,,,,,,,,,,,,,,,,,,,,,,,,,,,,,,,
,,,,,,,,,,,,,,,,,5fb1a8aebe8dfa6c6cc3edbe,27,2022-02-12_10h46.58.339,lexical_decision_task_DD_L3,2021.2.3,MacIntel,60.0024001,,,,,,,,,,,0.7996,1,,,,,,,,,,,,,,m,1,0.7996,,,,,,,,0.394271376,-0.164624363,0,0,0,,0,138,138,12,1,SHORE,LB,old,m,./images/SHORELB.png,,,,,,,,,,,,,,,,,,,,,,,,,,,,,,,,,,,
,,,,,,,,,,,,,,,,,5fb1a8aebe8dfa6c6cc3edbe,27,2022-02-12_10h46.58.339,lexical_decision_task_DD_L3,2021.2.3,MacIntel,60.0024001,,,,,,,,,,,0.6787,1,,,,,,,,,,,,,,m,1,0.6787,,,,,,,,0.394271376,-0.164624363,0,0,0,,0,139,139,53,1,CARPET,HB,old,m,./images/CARPETHB.png,,,,,,,,,,,,,,,,,,,,,,,,,,,,,,,,,,,
,,,,,,,,,,,,,,,,,5fb1a8aebe8dfa6c6cc3edbe,27,2022-02-12_10h46.58.339,lexical_decision_task_DD_L3,2021.2.3,MacIntel,60.0024001,,,,,,,,,,,0.6809,1,,,,,,,,,,,,,,z,1,0.6809,,,,,,,,0.394271376,-0.164624363,0,0,0,,0,140,140,111,1,HOSSE,C,old,z,./images/HOSSE.png,,,,,,,,,,,,,,,,,,,,,,,,,,,,,,,,,,,
,,,,,,,,,,,,,,,,,5fb1a8aebe8dfa6c6cc3edbe,27,2022-02-12_10h46.58.339,lexical_decision_task_DD_L3,2021.2.3,MacIntel,60.0024001,,,,,,,,,,,0.97,1,,,,,,,,,,,,,,z,1,0.97,,,,,,,,0.394271376,-0.164624363,0,0,0,,0,141,141,146,1,MOOST,LB,old,z,./images/MOOSTLB.png,,,,,,,,,,,,,,,,,,,,,,,,,,,,,,,,,,,
,,,,,,,,,,,,,,,,,5fb1a8aebe8dfa6c6cc3edbe,27,2022-02-12_10h46.58.339,lexical_decision_task_DD_L3,2021.2.3,MacIntel,60.0024001,,,,,,,,,,,1.3276,1,,,,,,,,,,,,,,m,1,1.3276,,,,,,,,0.394271376,-0.164624363,0,0,0,,0,142,142,61,1,CANDLE,C,old,m,./images/CANDLE.png,,,,,,,,,,,,,,,,,,,,,,,,,,,,,,,,,,,
,,,,,,,,,,,,,,,,,5fb1a8aebe8dfa6c6cc3edbe,27,2022-02-12_10h46.58.339,lexical_decision_task_DD_L3,2021.2.3,MacIntel,60.0024001,,,,,,,,,,,1.3981,1,,,,,,,,,,,,,,m,1,1.3981,,,,,,,,0.394271376,-0.164624363,0,0,0,,0,143,143,8,1,TULIP,HB,old,m,./images/TULIPHB.png,,,,,,,,,,,,,,,,,,,,,,,,,,,,,,,,,,,
,,,,,,,,,,,,,,,,,5fb1a8aebe8dfa6c6cc3edbe,27,2022-02-12_10h46.58.339,lexical_decision_task_DD_L3,2021.2.3,MacIntel,60.0024001,,,,,,,,,,,0.6957,1,,,,,,,,,,,,,,z,1,0.6957,,,,,,,,0.394271376,-0.164624363,0,0,0,,0,144,144,135,1,JOODY,C,old,z,./images/JOODY.png,,,,,,,,,,,,,,,,,,,,,,,,,,,,,,,,,,,
,,,,,,,,,,,,,,,,,5fb1a8aebe8dfa6c6cc3edbe,27,2022-02-12_10h46.58.339,lexical_decision_task_DD_L3,2021.2.3,MacIntel,60.0024001,,,,,,,,,,,0.9818,1,,,,,,,,,,,,,,z,1,0.9818,,,,,,,,0.394271376,-0.164624363,0,0,0,,0,145,145,123,1,SEDGE,C,old,z,./images/SEDGE.png,,,,,,,,,,,,,,,,,,,,,,,,,,,,,,,,,,,
,,,,,,,,,,,,,,,,,5fb1a8aebe8dfa6c6cc3edbe,27,2022-02-12_10h46.58.339,lexical_decision_task_DD_L3,2021.2.3,MacIntel,60.0024001,,,,,,,,,,,0.7489,1,,,,,,,,,,,,,,z,1,0.7489,,,,,,,,0.394271376,-0.164624363,0,0,0,,0,146,146,149,1,VEASE,LB,old,z,./images/VEASELB.png,,,,,,,,,,,,,,,,,,,,,,,,,,,,,,,,,,,
,,,,,,,,,,,,,,,,,5fb1a8aebe8dfa6c6cc3edbe,27,2022-02-12_10h46.58.339,lexical_decision_task_DD_L3,2021.2.3,MacIntel,60.0024001,,,,,,,,,,,1.4625,1,,,,,,,,,,,,,,z,1,1.4625,,,,,,,,0.394271376,-0.164624363,0,0,0,,0,147,147,106,1,CLUMS,HB,old,z,./images/CLUMSHB.png,,,,,,,,,,,,,,,,,,,,,,,,,,,,,,,,,,,
,,,,,,,,,,,,,,,,,5fb1a8aebe8dfa6c6cc3edbe,27,2022-02-12_10h46.58.339,lexical_decision_task_DD_L3,2021.2.3,MacIntel,60.0024001,,,,,,,,,,,0.6777,1,,,,,,,,,,,,,,m,1,0.6777,,,,,,,,0.394271376,-0.164624363,0,0,0,,0,148,148,21,1,KIDNEY,LB,old,m,./images/KIDNEYLB.png,,,,,,,,,,,,,,,,,,,,,,,,,,,,,,,,,,,
,,,,,,,,,,,,,,,,,5fb1a8aebe8dfa6c6cc3edbe,27,2022-02-12_10h46.58.339,lexical_decision_task_DD_L3,2021.2.3,MacIntel,60.0024001,,,,,,,,,,,1.6977,1,,,,,,,,,,,,,,z,1,1.6977,,,,,,,,0.394271376,-0.164624363,0,0,0,,0,149,149,104,1,GITTY,LB,old,z,./images/GITTYLB.png,,,,,,,,,,,,,,,,,,,,,,,,,,,,,,,,,,,
,,,,,,,,,,,,,,,,,5fb1a8aebe8dfa6c6cc3edbe,27,2022-02-12_10h46.58.339,lexical_decision_task_DD_L3,2021.2.3,MacIntel,60.0024001,,,,,,,,,,,0.7955,1,,,,,,,,,,,,,,m,1,0.7955,,,,,,,,0.394271376,-0.164624363,0,0,0,,0,150,150,13,1,MOTOR,C,old,m,./images/MOTOR.png,,,,,,,,,,,,,,,,,,,,,,,,,,,,,,,,,,,
,,,,,,,,,,,,,,,,,5fb1a8aebe8dfa6c6cc3edbe,27,2022-02-12_10h46.58.339,lexical_decision_task_DD_L3,2021.2.3,MacIntel,60.0024001,,,,,,,,,,,1.1797,0,,,,,,,,,,,,,,z,0,1.1797,,,,,,,,0.394271376,-0.164624363,0,0,0,,0,151,151,20,1,CRADLE,HB,old,m,./images/CRADLEHB.png,,,,,,,,,,,,,,,,,,,,,,,,,,,,,,,,,,,
,,,,,,,,,,,,,,,,,5fb1a8aebe8dfa6c6cc3edbe,27,2022-02-12_10h46.58.339,lexical_decision_task_DD_L3,2021.2.3,MacIntel,60.0024001,,,,,,,,,,,0.6811,1,,,,,,,,,,,,,,m,1,0.6811,,,,,,,,0.394271376,-0.164624363,0,0,0,,0,152,152,46,1,PEARL,C,old,m,./images/PEARL.png,,,,,,,,,,,,,,,,,,,,,,,,,,,,,,,,,,,
,,,,,,,,,,,,,,,,,5fb1a8aebe8dfa6c6cc3edbe,27,2022-02-12_10h46.58.339,lexical_decision_task_DD_L3,2021.2.3,MacIntel,60.0024001,,,,,,,,,,,1.5309,1,,,,,,,,,,,,,,m,1,1.5309,,,,,,,,0.394271376,-0.164624363,0,0,0,,0,153,153,72,1,NOOSE,LB,old,m,./images/NOOSELB.png,,,,,,,,,,,,,,,,,,,,,,,,,,,,,,,,,,,
,,,,,,,,,,,,,,,,,5fb1a8aebe8dfa6c6cc3edbe,27,2022-02-12_10h46.58.339,lexical_decision_task_DD_L3,2021.2.3,MacIntel,60.0024001,,,,,,,,,,,0.7308,1,,,,,,,,,,,,,,m,1,0.7308,,,,,,,,0.394271376,-0.164624363,0,0,0,,0,154,154,54,1,TRIPOD,LB,old,m,./images/TRIPODLB.png,,,,,,,,,,,,,,,,,,,,,,,,,,,,,,,,,,,
,,,,,,,,,,,,,,,,,5fb1a8aebe8dfa6c6cc3edbe,27,2022-02-12_10h46.58.339,lexical_decision_task_DD_L3,2021.2.3,MacIntel,60.0024001,,,,,,,,,,,0.7309,1,,,,,,,,,,,,,,m,1,0.7309,,,,,,,,0.394271376,-0.164624363,0,0,0,,0,155,155,78,1,LITTER,LB,old,m,./images/LITTERLB.png,,,,,,,,,,,,,,,,,,,,,,,,,,,,,,,,,,,
,,,,,,,,,,,,,,,,,5fb1a8aebe8dfa6c6cc3edbe,27,2022-02-12_10h46.58.339,lexical_decision_task_DD_L3,2021.2.3,MacIntel,60.0024001,,,,,,,,,,,1.2498,1,,,,,,,,,,,,,,z,1,1.2498,,,,,,,,0.394271376,-0.164624363,0,0,0,,0,156,156,115,1,MAWNS,HB,old,z,./images/MAWNSHB.png,,,,,,,,,,,,,,,,,,,,,,,,,,,,,,,,,,,
,,,,,,,,,,,,,,,,,5fb1a8aebe8dfa6c6cc3edbe,27,2022-02-12_10h46.58.339,lexical_decision_task_DD_L3,2021.2.3,MacIntel,60.0024001,,,,,,,,,,,0.715,1,,,,,,,,,,,,,,z,1,0.715,,,,,,,,0.394271376,-0.164624363,0,0,0,,0,157,157,125,1,MOOKY,LB,old,z,./images/MOOKYLB.png,,,,,,,,,,,,,,,,,,,,,,,,,,,,,,,,,,,
,,,,,,,,,,,,,,,,,5fb1a8aebe8dfa6c6cc3edbe,27,2022-02-12_10h46.58.339,lexical_decision_task_DD_L3,2021.2.3,MacIntel,60.0024001,,,,,,,,,,,1.2739,1,,,,,,,,,,,,,,z,1,1.2739,,,,,,,,0.394271376,-0.164624363,0,0,0,,0,158,158,99,1,BACKY,C,old,z,./images/BACKY.png,,,,,,,,,,,,,,,,,,,,,,,,,,,,,,,,,,,
,,,,,,,,,,,,,,,,,5fb1a8aebe8dfa6c6cc3edbe,27,2022-02-12_10h46.58.339,lexical_decision_task_DD_L3,2021.2.3,MacIntel,60.0024001,,,,,,,,,,,0.9131,1,,,,,,,,,,,,,,m,1,0.9131,,,,,,,,0.394271376,-0.164624363,0,0,0,,0,159,159,44,1,LIZARD,HB,old,m,./images/LIZARDHB.png,,,,,,,,,,,,,,,,,,,,,,,,,,,,,,,,,,,
,,,,,,,,,,,,,,,,,5fb1a8aebe8dfa6c6cc3edbe,27,2022-02-12_10h46.58.339,lexical_decision_task_DD_L3,2021.2.3,MacIntel,60.0024001,,,,,,,,,,,0.6809,1,,,,,,,,,,,,,,m,1,0.6809,,,,,,,,0.394271376,-0.164624363,0,0,0,,0,160,160,69,1,COOKER,LB,old,m,./images/COOKERLB.png,,,,,,,,,,,,,,,,,,,,,,,,,,,,,,,,,,,
,,,,,,,,,,,,,,,,,5fb1a8aebe8dfa6c6cc3edbe,27,2022-02-12_10h46.58.339,lexical_decision_task_DD_L3,2021.2.3,MacIntel,60.0024001,,,,,,,,,,,0.7422,1,,,,,,,,,,,,,,m,1,0.7422,,,,,,,,0.394271376,-0.164624363,0,0,0,,0,161,161,5,1,PASTA,HB,old,m,./images/PASTAHB.png,,,,,,,,,,,,,,,,,,,,,,,,,,,,,,,,,,,
,,,,,,,,,,,,,,,,,5fb1a8aebe8dfa6c6cc3edbe,27,2022-02-12_10h46.58.339,lexical_decision_task_DD_L3,2021.2.3,MacIntel,60.0024001,,,,,,,,,,,1.7047,1,,,,,,,,,,,,,,m,1,1.7047,,,,,,,,0.394271376,-0.164624363,0,0,0,,0,162,162,31,1,QUILL,C,old,m,./images/QUILL.png,,,,,,,,,,,,,,,,,,,,,,,,,,,,,,,,,,,
,,,,,,,,,,,,,,,,,5fb1a8aebe8dfa6c6cc3edbe,27,2022-02-12_10h46.58.339,lexical_decision_task_DD_L3,2021.2.3,MacIntel,60.0024001,,,,,,,,,,,0.5956,1,,,,,,,,,,,,,,m,1,0.5956,,,,,,,,0.394271376,-0.164624363,0,0,0,,0,163,163,22,1,MELON,C,old,m,./images/MELON.png,,,,,,,,,,,,,,,,,,,,,,,,,,,,,,,,,,,
,,,,,,,,,,,,,,,,,5fb1a8aebe8dfa6c6cc3edbe,27,2022-02-12_10h46.58.339,lexical_decision_task_DD_L3,2021.2.3,MacIntel,60.0024001,,,,,,,,,,,0.8677,1,,,,,,,,,,,,,,z,1,0.8677,,,,,,,,0.394271376,-0.164624363,0,0,0,,0,164,164,131,1,NACES,LB,old,z,./images/NACESLB.png,,,,,,,,,,,,,,,,,,,,,,,,,,,,,,,,,,,
,,,,,,,,,,,,,,,,,5fb1a8aebe8dfa6c6cc3edbe,27,2022-02-12_10h46.58.339,lexical_decision_task_DD_L3,2021.2.3,MacIntel,60.0024001,,,,,,,,,,,0.8347,1,,,,,,,,,,,,,,z,1,0.8347,,,,,,,,0.394271376,-0.164624363,0,0,0,,0,165,165,101,1,GLEET,LB,old,z,./images/GLEETLB.png,,,,,,,,,,,,,,,,,,,,,,,,,,,,,,,,,,,
,,,,,,,,,,,,,,,,,5fb1a8aebe8dfa6c6cc3edbe,27,2022-02-12_10h46.58.339,lexical_decision_task_DD_L3,2021.2.3,MacIntel,60.0024001,,,,,,,,,,,0.618,1,,,,,,,,,,,,,,m,1,0.618,,,,,,,,0.394271376,-0.164624363,0,0,0,,0,166,166,30,1,STORM,LB,old,m,./images/STORMLB.png,,,,,,,,,,,,,,,,,,,,,,,,,,,,,,,,,,,
,,,,,,,,,,,,,,,,,5fb1a8aebe8dfa6c6cc3edbe,27,2022-02-12_10h46.58.339,lexical_decision_task_DD_L3,2021.2.3,MacIntel,60.0024001,,,,,,,,,,,1.8677,1,,,,,,,,,,,,,,z,1,1.8677,,,,,,,,0.394271376,-0.164624363,0,0,0,,0,167,167,91,1,SHENS,HB,old,z,./images/SHENSHB.png,,,,,,,,,,,,,,,,,,,,,,,,,,,,,,,,,,,
,,,,,,,,,,,,,,,,,5fb1a8aebe8dfa6c6cc3edbe,27,2022-02-12_10h46.58.339,lexical_decision_task_DD_L3,2021.2.3,MacIntel,60.0024001,,,,,,,,,,,,,,,,,,,,,,,,,,,,,,,,,,,,,,,,,,,,,,,,How likely will it be that you will recognize the words presented clearly on a scale of 0 (not likely) to 100 (most likely)?,,,,,0.01157803,-0.402673204,1,0,0,jol_adv,1,9.825,0,0,0,0,1,,,,,,,,,,,,,,,,,,,,,
,,,,,,,,,,,,,,,,,5fb1a8aebe8dfa6c6cc3edbe,27,2022-02-12_10h46.58.339,lexical_decision_task_DD_L3,2021.2.3,MacIntel,60.0024001,,,,,,,,,,,,,,,,,,,,,,,,,,,,,,,,,,,,,,,,,,,,,,,,How likely will it be that you will recognize the words presented very blurred on a scale of 0 (not likely) to 100 (most likely)?,,,,,,,,,,,6,11.1505,0,1,1,2,1,,,,,,,,,,,,,,,,,,,,,
,,,,,,,,,,,,,,,,,5fb1a8aebe8dfa6c6cc3edbe,27,2022-02-12_10h46.58.339,lexical_decision_task_DD_L3,2021.2.3,MacIntel,60.0024001,,,,,,,,,,,,,,,,,,,,,,,,,,,,,,,,,,,,,,,,,,,,,,,,How likely will it be that you will recognize the words presented slighly blurred on a scale of 0 (not likely) to 100 (most likely)?,,,,,,,,,,,1,11.4298,0,2,2,1,1,,,,,,,,,,,,,,,,,,,,,
,,-0.038119778,-0.396069675,1,0,0,,,,,,1,test,"In the next phase you will be presented with the words from the the first phase. Your job is to decide whether you remember seeing the word or not. If you remember seeing the word press ""old"" or type ""m"". If you do not remember seeing the word press ""new"" or type ""z"". Please press the space bar or click on continue to begin. ",,,5fb1a8aebe8dfa6c6cc3edbe,27,2022-02-12_10h46.58.339,lexical_decision_task_DD_L3,2021.2.3,MacIntel,60.0024001,,,,,,,,,,,,,,,,,,,,,,,,,,,,,,,,,,,,,,,,,,,,,,,,,,,,,,,,,,,,,,,,,,instr_done_button,0,0,0,0,1,,,,,,,,,,,,,,,
space,1.2147,-0.043889025,-0.396069675,0,0,0,,,,,,1,test,"In the next phase you will be presented with the words from the the first phase. Your job is to decide whether you remember seeing the word or not. If you remember seeing the word press ""old"" or type ""m"". If you do not remember seeing the word press ""new"" or type ""z"". Please press the space bar or click on continue to begin. ",,,5fb1a8aebe8dfa6c6cc3edbe,27,2022-02-12_10h46.58.339,lexical_decision_task_DD_L3,2021.2.3,MacIntel,60.0024001,,,,,,,,,,,,,,,,,,,,,,,,,,,,,,,,,,,,,,,,,,,,,,,,,,,,,,,,,,,,,,,,,,,1,0,1,0,1,,,,,,,,,,,,,,,
space,1.3037,-0.043889025,-0.396069675,0,0,0,,,,,,1,test,"In the next phase you will be presented with the words from the the first phase. Your job is to decide whether you remember seeing the word or not. If you remember seeing the word press ""old"" or type ""m"". If you do not remember seeing the word press ""new"" or type ""z"". Please press the space bar or click on continue to begin. ",,,5fb1a8aebe8dfa6c6cc3edbe,27,2022-02-12_10h46.58.339,lexical_decision_task_DD_L3,2021.2.3,MacIntel,60.0024001,,,,,,,,,,,,,,,,,,,,,,,,,,,,,,,,,,,,,,,,,,,,,,,,,,,,,,,,,,,,,,,,,,,2,0,2,0,1,,,,,,,,,,,,,,,
,,-0.043889025,-0.396069675,1,0,0,,,,,,1,test,"In the next phase you will be presented with the words from the the first phase. Your job is to decide whether you remember seeing the word or not. If you remember seeing the word press ""old"" or type ""m"". If you do not remember seeing the word press ""new"" or type ""z"". Please press the space bar or click on continue to begin. ",,,5fb1a8aebe8dfa6c6cc3edbe,27,2022-02-12_10h46.58.339,lexical_decision_task_DD_L3,2021.2.3,MacIntel,60.0024001,,,,,,,,,,,,,,,,,,,,,,,,,,,,,,,,,,,,,,,,,,,,,,,,,,,,,,,,,,,,,,,,,,instr_done_button,3,0,3,0,1,,,,,,,,,,,,,,,
space,1.7794,0.20855462,-0.31618259,0,0,0,,,,,,1,test,"In the next phase you will be presented with the words from the the first phase. Your job is to decide whether you remember seeing the word or not. If you remember seeing the word press ""old"" or type ""m"". If you do not remember seeing the word press ""new"" or type ""z"". Please press the space bar or click on continue to begin. ",,,5fb1a8aebe8dfa6c6cc3edbe,27,2022-02-12_10h46.58.339,lexical_decision_task_DD_L3,2021.2.3,MacIntel,60.0024001,,,,,,,,,,,,,,,,,,,,,,,,,,,,,,,,,,,,,,,,,,,,,,,,,,,,,,,,,,,,,,,,,,,4,0,4,0,1,,,,,,,,,,,,,,,
,,,,,,,,,,,,,,,,,5fb1a8aebe8dfa6c6cc3edbe,27,2022-02-12_10h46.58.339,lexical_decision_task_DD_L3,2021.2.3,MacIntel,60.0024001,,,,,,,,,,,4.0113,1,,,,,,,,,,,,,,,,,,,,,,,,0.20855462,-0.31618259,0,0,0,,,,,,,BASKET,HB,z,m,./images/BASKETHB.png,,,,,,,,,,,,,,,,,,,,,z,1,4.0113,,,,,,,,0,0,0,128,1
,,,,,,,,,,,,,,,,,5fb1a8aebe8dfa6c6cc3edbe,27,2022-02-12_10h46.58.339,lexical_decision_task_DD_L3,2021.2.3,MacIntel,60.0024001,,,,,,,,,,,1.4081,0,,,,,,,,,,,,,,,,,,,,,,,,0.20855462,-0.31618259,0,0,0,,,,,,,JAGUAR,LB,m,m,./images/JAGUARLB.png,,,,,,,,,,,,,,,,,,,,,z,0,1.4081,,,,,,,,0,1,1,18,1
,,,,,,,,,,,,,,,,,5fb1a8aebe8dfa6c6cc3edbe,27,2022-02-12_10h46.58.339,lexical_decision_task_DD_L3,2021.2.3,MacIntel,60.0024001,,,,,,,,,,,0.763,1,,,,,,,,,,,,,,,,,,,,,,,,0.20855462,-0.31618259,0,0,0,,,,,,,WALRUS,HB,m,m,./images/WALRUSHB.png,,,,,,,,,,,,,,,,,,,,,m,1,0.763,,,,,,,,0,2,2,23,1
,,,,,,,,,,,,,,,,,5fb1a8aebe8dfa6c6cc3edbe,27,2022-02-12_10h46.58.339,lexical_decision_task_DD_L3,2021.2.3,MacIntel,60.0024001,,,,,,,,,,,1.0246,0,,,,,,,,,,,,,,,,,,,,,,,,0.20855462,-0.31618259,0,0,0,,,,,,,CHALK,C,z,m,./images/CHALK.png,,,,,,,,,,,,,,,,,,,,,m,0,1.0246,,,,,,,,0,3,3,109,1
,,,,,,,,,,,,,,,,,5fb1a8aebe8dfa6c6cc3edbe,27,2022-02-12_10h46.58.339,lexical_decision_task_DD_L3,2021.2.3,MacIntel,60.0024001,,,,,,,,,,,0.8047,1,,,,,,,,,,,,,,,,,,,,,,,,0.20855462,-0.31618259,0,0,0,,,,,,,LITTER,LB,m,m,./images/LITTERLB.png,,,,,,,,,,,,,,,,,,,,,m,1,0.8047,,,,,,,,0,4,4,78,1
,,,,,,,,,,,,,,,,,5fb1a8aebe8dfa6c6cc3edbe,27,2022-02-12_10h46.58.339,lexical_decision_task_DD_L3,2021.2.3,MacIntel,60.0024001,,,,,,,,,,,1.6239,1,,,,,,,,,,,,,,,,,,,,,,,,0.20855462,-0.31618259,0,0,0,,,,,,,MELON,C,m,m,./images/MELON.png,,,,,,,,,,,,,,,,,,,,,m,1,1.6239,,,,,,,,0,5,5,22,1
,,,,,,,,,,,,,,,,,5fb1a8aebe8dfa6c6cc3edbe,27,2022-02-12_10h46.58.339,lexical_decision_task_DD_L3,2021.2.3,MacIntel,60.0024001,,,,,,,,,,,1.0673,1,,,,,,,,,,,,,,,,,,,,,,,,0.20855462,-0.31618259,0,0,0,,,,,,,BOILER,LB,z,m,./images/BOILERLB.png,,,,,,,,,,,,,,,,,,,,,z,1,1.0673,,,,,,,,0,6,6,120,1
,,,,,,,,,,,,,,,,,5fb1a8aebe8dfa6c6cc3edbe,27,2022-02-12_10h46.58.339,lexical_decision_task_DD_L3,2021.2.3,MacIntel,60.0024001,,,,,,,,,,,0.8372,1,,,,,,,,,,,,,,,,,,,,,,,,0.20855462,-0.31618259,0,0,0,,,,,,,CASINO,C,z,m,./images/CASINO.png,,,,,,,,,,,,,,,,,,,,,z,1,0.8372,,,,,,,,0,7,7,112,1
,,,,,,,,,,,,,,,,,5fb1a8aebe8dfa6c6cc3edbe,27,2022-02-12_10h46.58.339,lexical_decision_task_DD_L3,2021.2.3,MacIntel,60.0024001,,,,,,,,,,,1.7471,1,,,,,,,,,,,,,,,,,,,,,,,,0.20855462,-0.31618259,0,0,0,,,,,,,MOTOR,C,m,m,./images/MOTOR.png,,,,,,,,,,,,,,,,,,,,,m,1,1.7471,,,,,,,,0,8,8,13,1
,,,,,,,,,,,,,,,,,5fb1a8aebe8dfa6c6cc3edbe,27,2022-02-12_10h46.58.339,lexical_decision_task_DD_L3,2021.2.3,MacIntel,60.0024001,,,,,,,,,,,1.5842,1,,,,,,,,,,,,,,,,,,,,,,,,0.20855462,-0.31618259,0,0,0,,,,,,,GLOVE,C,z,m,./images/GLOVE.png,,,,,,,,,,,,,,,,,,,,,z,1,1.5842,,,,,,,,0,9,9,157,1
,,,,,,,,,,,,,,,,,5fb1a8aebe8dfa6c6cc3edbe,27,2022-02-12_10h46.58.339,lexical_decision_task_DD_L3,2021.2.3,MacIntel,60.0024001,,,,,,,,,,,0.8715,0,,,,,,,,,,,,,,,,,,,,,,,,0.20855462,-0.31618259,0,0,0,,,,,,,CHERRY,LB,z,m,./images/CHERRYLB.png,,,,,,,,,,,,,,,,,,,,,m,0,0.8715,,,,,,,,0,10,10,138,1
,,,,,,,,,,,,,,,,,5fb1a8aebe8dfa6c6cc3edbe,27,2022-02-12_10h46.58.339,lexical_decision_task_DD_L3,2021.2.3,MacIntel,60.0024001,,,,,,,,,,,1.0778,1,,,,,,,,,,,,,,,,,,,,,,,,0.20855462,-0.31618259,0,0,0,,,,,,,CLOUD,HB,z,m,./images/CLOUDHB.png,,,,,,,,,,,,,,,,,,,,,z,1,1.0778,,,,,,,,0,11,11,110,1
,,,,,,,,,,,,,,,,,5fb1a8aebe8dfa6c6cc3edbe,27,2022-02-12_10h46.58.339,lexical_decision_task_DD_L3,2021.2.3,MacIntel,60.0024001,,,,,,,,,,,1.1675,1,,,,,,,,,,,,,,,,,,,,,,,,0.20855462,-0.31618259,0,0,0,,,,,,,ARROW,LB,z,m,./images/ARROWLB.png,,,,,,,,,,,,,,,,,,,,,z,1,1.1675,,,,,,,,0,12,12,153,1
,,,,,,,,,,,,,,,,,5fb1a8aebe8dfa6c6cc3edbe,27,2022-02-12_10h46.58.339,lexical_decision_task_DD_L3,2021.2.3,MacIntel,60.0024001,,,,,,,,,,,1.5823,1,,,,,,,,,,,,,,,,,,,,,,,,0.20855462,-0.31618259,0,0,0,,,,,,,CLOTH,HB,z,m,./images/CLOTHHB.png,,,,,,,,,,,,,,,,,,,,,z,1,1.5823,,,,,,,,0,13,13,107,1
,,,,,,,,,,,,,,,,,5fb1a8aebe8dfa6c6cc3edbe,27,2022-02-12_10h46.58.339,lexical_decision_task_DD_L3,2021.2.3,MacIntel,60.0024001,,,,,,,,,,,0.8004,1,,,,,,,,,,,,,,,,,,,,,,,,0.20855462,-0.31618259,0,0,0,,,,,,,SAILOR,C,m,m,./images/SAILOR.png,,,,,,,,,,,,,,,,,,,,,m,1,0.8004,,,,,,,,0,14,14,67,1
,,,,,,,,,,,,,,,,,5fb1a8aebe8dfa6c6cc3edbe,27,2022-02-12_10h46.58.339,lexical_decision_task_DD_L3,2021.2.3,MacIntel,60.0024001,,,,,,,,,,,0.7173,1,,,,,,,,,,,,,,,,,,,,,,,,0.20855462,-0.31618259,0,0,0,,,,,,,URINE,C,m,m,./images/URINE.png,,,,,,,,,,,,,,,,,,,,,m,1,0.7173,,,,,,,,0,15,15,70,1
,,,,,,,,,,,,,,,,,5fb1a8aebe8dfa6c6cc3edbe,27,2022-02-12_10h46.58.339,lexical_decision_task_DD_L3,2021.2.3,MacIntel,60.0024001,,,,,,,,,,,0.6501,1,,,,,,,,,,,,,,,,,,,,,,,,0.20855462,-0.31618259,0,0,0,,,,,,,PASTA,HB,m,m,./images/PASTAHB.png,,,,,,,,,,,,,,,,,,,,,m,1,0.6501,,,,,,,,0,16,16,5,1
,,,,,,,,,,,,,,,,,5fb1a8aebe8dfa6c6cc3edbe,27,2022-02-12_10h46.58.339,lexical_decision_task_DD_L3,2021.2.3,MacIntel,60.0024001,,,,,,,,,,,1.0169,1,,,,,,,,,,,,,,,,,,,,,,,,0.20855462,-0.31618259,0,0,0,,,,,,,COUCH,HB,m,m,./images/COUCHHB.png,,,,,,,,,,,,,,,,,,,,,m,1,1.0169,,,,,,,,0,17,17,77,1
,,,,,,,,,,,,,,,,,5fb1a8aebe8dfa6c6cc3edbe,27,2022-02-12_10h46.58.339,lexical_decision_task_DD_L3,2021.2.3,MacIntel,60.0024001,,,,,,,,,,,0.8994,0,,,,,,,,,,,,,,,,,,,,,,,,0.20855462,-0.31618259,0,0,0,,,,,,,CANYON,C,m,m,./images/CANYON.png,,,,,,,,,,,,,,,,,,,,,z,0,0.8994,,,,,,,,0,18,18,34,1
,,,,,,,,,,,,,,,,,5fb1a8aebe8dfa6c6cc3edbe,27,2022-02-12_10h46.58.339,lexical_decision_task_DD_L3,2021.2.3,MacIntel,60.0024001,,,,,,,,,,,1.1991,1,,,,,,,,,,,,,,,,,,,,,,,,0.20855462,-0.31618259,0,0,0,,,,,,,JUNGLE,HB,m,m,./images/JUNGLEHB.png,,,,,,,,,,,,,,,,,,,,,m,1,1.1991,,,,,,,,0,19,19,83,1
,,,,,,,,,,,,,,,,,5fb1a8aebe8dfa6c6cc3edbe,27,2022-02-12_10h46.58.339,lexical_decision_task_DD_L3,2021.2.3,MacIntel,60.0024001,,,,,,,,,,,0.7314,1,,,,,,,,,,,,,,,,,,,,,,,,0.20855462,-0.31618259,0,0,0,,,,,,,DOUGH,C,m,m,./images/DOUGH.png,,,,,,,,,,,,,,,,,,,,,m,1,0.7314,,,,,,,,0,20,20,19,1
,,,,,,,,,,,,,,,,,5fb1a8aebe8dfa6c6cc3edbe,27,2022-02-12_10h46.58.339,lexical_decision_task_DD_L3,2021.2.3,MacIntel,60.0024001,,,,,,,,,,,2.0681,1,,,,,,,,,,,,,,,,,,,,,,,,0.20855462,-0.31618259,0,0,0,,,,,,,ARTIST,C,z,m,./images/ARTIST.png,,,,,,,,,,,,,,,,,,,,,z,1,2.0681,,,,,,,,0,21,21,145,1
,,,,,,,,,,,,,,,,,5fb1a8aebe8dfa6c6cc3edbe,27,2022-02-12_10h46.58.339,lexical_decision_task_DD_L3,2021.2.3,MacIntel,60.0024001,,,,,,,,,,,0.6655,1,,,,,,,,,,,,,,,,,,,,,,,,0.20855462,-0.31618259,0,0,0,,,,,,,MIRROR,LB,m,m,./images/MIRRORLB.png,,,,,,,,,,,,,,,,,,,,,m,1,0.6655,,,,,,,,0,22,22,63,1
,,,,,,,,,,,,,,,,,5fb1a8aebe8dfa6c6cc3edbe,27,2022-02-12_10h46.58.339,lexical_decision_task_DD_L3,2021.2.3,MacIntel,60.0024001,,,,,,,,,,,1.0177,1,,,,,,,,,,,,,,,,,,,,,,,,0.20855462,-0.31618259,0,0,0,,,,,,,KITTEN,LB,m,m,./images/KITTENLB.png,,,,,,,,,,,,,,,,,,,,,m,1,1.0177,,,,,,,,0,23,23,45,1
,,,,,,,,,,,,,,,,,5fb1a8aebe8dfa6c6cc3edbe,27,2022-02-12_10h46.58.339,lexical_decision_task_DD_L3,2021.2.3,MacIntel,60.0024001,,,,,,,,,,,0.7351,1,,,,,,,,,,,,,,,,,,,,,,,,0.20855462,-0.31618259,0,0,0,,,,,,,TRIPOD,LB,m,m,./images/TRIPODLB.png,,,,,,,,,,,,,,,,,,,,,m,1,0.7351,,,,,,,,0,24,24,54,1
,,,,,,,,,,,,,,,,,5fb1a8aebe8dfa6c6cc3edbe,27,2022-02-12_10h46.58.339,lexical_decision_task_DD_L3,2021.2.3,MacIntel,60.0024001,,,,,,,,,,,1.0057,0,,,,,,,,,,,,,,,,,,,,,,,,0.20855462,-0.31618259,0,0,0,,,,,,,CLOWN,C,z,m,./images/CLOWN.png,,,,,,,,,,,,,,,,,,,,,m,0,1.0057,,,,,,,,0,25,25,106,1
,,,,,,,,,,,,,,,,,5fb1a8aebe8dfa6c6cc3edbe,27,2022-02-12_10h46.58.339,lexical_decision_task_DD_L3,2021.2.3,MacIntel,60.0024001,,,,,,,,,,,1.6523,1,,,,,,,,,,,,,,,,,,,,,,,,0.20855462,-0.31618259,0,0,0,,,,,,,PISTOL,HB,z,m,./images/PISTOLHB.png,,,,,,,,,,,,,,,,,,,,,z,1,1.6523,,,,,,,,0,26,26,113,1
,,,,,,,,,,,,,,,,,5fb1a8aebe8dfa6c6cc3edbe,27,2022-02-12_10h46.58.339,lexical_decision_task_DD_L3,2021.2.3,MacIntel,60.0024001,,,,,,,,,,,1.2164,0,,,,,,,,,,,,,,,,,,,,,,,,0.20855462,-0.31618259,0,0,0,,,,,,,PLANET,HB,z,m,./images/PLANETHB.png,,,,,,,,,,,,,,,,,,,,,m,0,1.2164,,,,,,,,0,27,27,164,1
,,,,,,,,,,,,,,,,,5fb1a8aebe8dfa6c6cc3edbe,27,2022-02-12_10h46.58.339,lexical_decision_task_DD_L3,2021.2.3,MacIntel,60.0024001,,,,,,,,,,,1.0826,0,,,,,,,,,,,,,,,,,,,,,,,,0.20855462,-0.31618259,0,0,0,,,,,,,STAIN,LB,z,m,./images/STAINLB.png,,,,,,,,,,,,,,,,,,,,,m,0,1.0826,,,,,,,,0,28,28,90,1
,,,,,,,,,,,,,,,,,5fb1a8aebe8dfa6c6cc3edbe,27,2022-02-12_10h46.58.339,lexical_decision_task_DD_L3,2021.2.3,MacIntel,60.0024001,,,,,,,,,,,0.7356,1,,,,,,,,,,,,,,,,,,,,,,,,0.20855462,-0.31618259,0,0,0,,,,,,,CEMENT,HB,m,m,./images/CEMENTHB.png,,,,,,,,,,,,,,,,,,,,,m,1,0.7356,,,,,,,,0,29,29,74,1
,,,,,,,,,,,,,,,,,5fb1a8aebe8dfa6c6cc3edbe,27,2022-02-12_10h46.58.339,lexical_decision_task_DD_L3,2021.2.3,MacIntel,60.0024001,,,,,,,,,,,1.5207,0,,,,,,,,,,,,,,,,,,,,,,,,0.20855462,-0.31618259,0,0,0,,,,,,,CANDY,LB,z,m,./images/CANDYLB.png,,,,,,,,,,,,,,,,,,,,,m,0,1.5207,,,,,,,,0,30,30,123,1
,,,,,,,,,,,,,,,,,5fb1a8aebe8dfa6c6cc3edbe,27,2022-02-12_10h46.58.339,lexical_decision_task_DD_L3,2021.2.3,MacIntel,60.0024001,,,,,,,,,,,0.7497,0,,,,,,,,,,,,,,,,,,,,,,,,0.20855462,-0.31618259,0,0,0,,,,,,,CHAIN,LB,z,m,./images/CHAINLB.png,,,,,,,,,,,,,,,,,,,,,m,0,0.7497,,,,,,,,0,31,31,126,1
,,,,,,,,,,,,,,,,,5fb1a8aebe8dfa6c6cc3edbe,27,2022-02-12_10h46.58.339,lexical_decision_task_DD_L3,2021.2.3,MacIntel,60.0024001,,,,,,,,,,,1.0489,1,,,,,,,,,,,,,,,,,,,,,,,,0.20855462,-0.31618259,0,0,0,,,,,,,STOVE,HB,z,m,./images/STOVEHB.png,,,,,,,,,,,,,,,,,,,,,z,1,1.0489,,,,,,,,0,32,32,86,1
,,,,,,,,,,,,,,,,,5fb1a8aebe8dfa6c6cc3edbe,27,2022-02-12_10h46.58.339,lexical_decision_task_DD_L3,2021.2.3,MacIntel,60.0024001,,,,,,,,,,,1.0503,1,,,,,,,,,,,,,,,,,,,,,,,,0.20855462,-0.31618259,0,0,0,,,,,,,CRUST,C,m,m,./images/CRUST.png,,,,,,,,,,,,,,,,,,,,,m,1,1.0503,,,,,,,,0,33,33,79,1
,,,,,,,,,,,,,,,,,5fb1a8aebe8dfa6c6cc3edbe,27,2022-02-12_10h46.58.339,lexical_decision_task_DD_L3,2021.2.3,MacIntel,60.0024001,,,,,,,,,,,0.6876,0,,,,,,,,,,,,,,,,,,,,,,,,0.20855462,-0.31618259,0,0,0,,,,,,,PARCEL,LB,z,m,./images/PARCELLB.png,,,,,,,,,,,,,,,,,,,,,m,0,0.6876,,,,,,,,0,34,34,102,1
,,,,,,,,,,,,,,,,,5fb1a8aebe8dfa6c6cc3edbe,27,2022-02-12_10h46.58.339,lexical_decision_task_DD_L3,2021.2.3,MacIntel,60.0024001,,,,,,,,,,,0.8475,1,,,,,,,,,,,,,,,,,,,,,,,,0.20855462,-0.31618259,0,0,0,,,,,,,BRIDE,C,z,m,./images/BRIDE.png,,,,,,,,,,,,,,,,,,,,,z,1,0.8475,,,,,,,,0,35,35,148,1
,,,,,,,,,,,,,,,,,5fb1a8aebe8dfa6c6cc3edbe,27,2022-02-12_10h46.58.339,lexical_decision_task_DD_L3,2021.2.3,MacIntel,60.0024001,,,,,,,,,,,1.7557,1,,,,,,,,,,,,,,,,,,,,,,,,0.20855462,-0.31618259,0,0,0,,,,,,,BELLY,C,m,m,./images/BELLY.png,,,,,,,,,,,,,,,,,,,,,m,1,1.7557,,,,,,,,0,36,36,10,1
,,,,,,,,,,,,,,,,,5fb1a8aebe8dfa6c6cc3edbe,27,2022-02-12_10h46.58.339,lexical_decision_task_DD_L3,2021.2.3,MacIntel,60.0024001,,,,,,,,,,,1.3326,1,,,,,,,,,,,,,,,,,,,,,,,,0.20855462,-0.31618259,0,0,0,,,,,,,TIGER,C,z,m,./images/TIGER.png,,,,,,,,,,,,,,,,,,,,,z,1,1.3326,,,,,,,,0,37,37,121,1
,,,,,,,,,,,,,,,,,5fb1a8aebe8dfa6c6cc3edbe,27,2022-02-12_10h46.58.339,lexical_decision_task_DD_L3,2021.2.3,MacIntel,60.0024001,,,,,,,,,,,1.0197,1,,,,,,,,,,,,,,,,,,,,,,,,0.20855462,-0.31618259,0,0,0,,,,,,,RULER,C,z,m,./images/RULER.png,,,,,,,,,,,,,,,,,,,,,z,1,1.0197,,,,,,,,0,38,38,163,1
,,,,,,,,,,,,,,,,,5fb1a8aebe8dfa6c6cc3edbe,27,2022-02-12_10h46.58.339,lexical_decision_task_DD_L3,2021.2.3,MacIntel,60.0024001,,,,,,,,,,,2.2156,1,,,,,,,,,,,,,,,,,,,,,,,,0.20855462,-0.31618259,0,0,0,,,,,,,CRADLE,HB,m,m,./images/CRADLEHB.png,,,,,,,,,,,,,,,,,,,,,m,1,2.2156,,,,,,,,0,39,39,20,1
,,,,,,,,,,,,,,,,,5fb1a8aebe8dfa6c6cc3edbe,27,2022-02-12_10h46.58.339,lexical_decision_task_DD_L3,2021.2.3,MacIntel,60.0024001,,,,,,,,,,,0.6987,1,,,,,,,,,,,,,,,,,,,,,,,,0.20855462,-0.31618259,0,0,0,,,,,,,DRUMS,C,m,m,./images/DRUMS.png,,,,,,,,,,,,,,,,,,,,,m,1,0.6987,,,,,,,,0,40,40,49,1
,,,,,,,,,,,,,,,,,5fb1a8aebe8dfa6c6cc3edbe,27,2022-02-12_10h46.58.339,lexical_decision_task_DD_L3,2021.2.3,MacIntel,60.0024001,,,,,,,,,,,1.6002,0,,,,,,,,,,,,,,,,,,,,,,,,0.20855462,-0.31618259,0,0,0,space,,,,,,COLLAR,LB,z,m,./images/COLLARLB.png,48.4684,,,,,,,,,,,,,,,,,,,,m,0,1.6002,,,,,,,,0,41,41,99,1
,,,,,,,,,,,,,,,,,5fb1a8aebe8dfa6c6cc3edbe,27,2022-02-12_10h46.58.339,lexical_decision_task_DD_L3,2021.2.3,MacIntel,60.0024001,,,,,,,,,,,1.7631,0,,,,,,,,,,,,,,,,,,,,,,,,0.20855462,-0.342526584,0,0,0,,,,,,,POKER,C,z,m,./images/POKER.png,,,,,,,,,,,,,,,,,,,,,m,0,1.7631,,,,,,,,0,42,42,151,1
,,,,,,,,,,,,,,,,,5fb1a8aebe8dfa6c6cc3edbe,27,2022-02-12_10h46.58.339,lexical_decision_task_DD_L3,2021.2.3,MacIntel,60.0024001,,,,,,,,,,,1.0509,1,,,,,,,,,,,,,,,,,,,,,,,,0.20855462,-0.342526584,0,0,0,,,,,,,JELLY,C,m,m,./images/JELLY.png,,,,,,,,,,,,,,,,,,,,,m,1,1.0509,,,,,,,,0,43,43,64,1
,,,,,,,,,,,,,,,,,5fb1a8aebe8dfa6c6cc3edbe,27,2022-02-12_10h46.58.339,lexical_decision_task_DD_L3,2021.2.3,MacIntel,60.0024001,,,,,,,,,,,0.7329,1,,,,,,,,,,,,,,,,,,,,,,,,0.20855462,-0.342526584,0,0,0,,,,,,,PENCE,C,m,m,./images/PENCE.png,,,,,,,,,,,,,,,,,,,,,m,1,0.7329,,,,,,,,0,44,44,16,1
,,,,,,,,,,,,,,,,,5fb1a8aebe8dfa6c6cc3edbe,27,2022-02-12_10h46.58.339,lexical_decision_task_DD_L3,2021.2.3,MacIntel,60.0024001,,,,,,,,,,,1.1502,1,,,,,,,,,,,,,,,,,,,,,,,,0.20855462,-0.342526584,0,0,0,,,,,,,PAINT,C,m,m,./images/PAINT.png,,,,,,,,,,,,,,,,,,,,,m,1,1.1502,,,,,,,,0,45,45,7,1
,,,,,,,,,,,,,,,,,5fb1a8aebe8dfa6c6cc3edbe,27,2022-02-12_10h46.58.339,lexical_decision_task_DD_L3,2021.2.3,MacIntel,60.0024001,,,,,,,,,,,0.7144,1,,,,,,,,,,,,,,,,,,,,,,,,0.20855462,-0.342526584,0,0,0,,,,,,,ATTIC,LB,m,m,./images/ATTICLB.png,,,,,,,,,,,,,,,,,,,,,m,1,0.7144,,,,,,,,0,46,46,27,1
,,,,,,,,,,,,,,,,,5fb1a8aebe8dfa6c6cc3edbe,27,2022-02-12_10h46.58.339,lexical_decision_task_DD_L3,2021.2.3,MacIntel,60.0024001,,,,,,,,,,,0.6811,1,,,,,,,,,,,,,,,,,,,,,,,,0.20855462,-0.342526584,0,0,0,,,,,,,CRUMB,HB,m,m,./images/CRUMBHB.png,,,,,,,,,,,,,,,,,,,,,m,1,0.6811,,,,,,,,0,47,47,29,1
,,,,,,,,,,,,,,,,,5fb1a8aebe8dfa6c6cc3edbe,27,2022-02-12_10h46.58.339,lexical_decision_task_DD_L3,2021.2.3,MacIntel,60.0024001,,,,,,,,,,,0.8801,0,,,,,,,,,,,,,,,,,,,,,,,,0.20855462,-0.342526584,0,0,0,,,,,,,INFANT,C,m,m,./images/INFANT.png,,,,,,,,,,,,,,,,,,,,,z,0,0.8801,,,,,,,,0,48,48,76,1
,,,,,,,,,,,,,,,,,5fb1a8aebe8dfa6c6cc3edbe,27,2022-02-12_10h46.58.339,lexical_decision_task_DD_L3,2021.2.3,MacIntel,60.0024001,,,,,,,,,,,2.1829,1,,,,,,,,,,,,,,,,,,,,,,,,0.20855462,-0.342526584,0,0,0,,,,,,,CLIFF,HB,z,m,./images/CLIFFHB.png,,,,,,,,,,,,,,,,,,,,,z,1,2.1829,,,,,,,,0,49,49,92,1
,,,,,,,,,,,,,,,,,5fb1a8aebe8dfa6c6cc3edbe,27,2022-02-12_10h46.58.339,lexical_decision_task_DD_L3,2021.2.3,MacIntel,60.0024001,,,,,,,,,,,0.7325,1,,,,,,,,,,,,,,,,,,,,,,,,0.20855462,-0.342526584,0,0,0,,,,,,,TOMATO,LB,m,m,./images/TOMATOLB.png,,,,,,,,,,,,,,,,,,,,,m,1,0.7325,,,,,,,,0,50,50,0,1
,,,,,,,,,,,,,,,,,5fb1a8aebe8dfa6c6cc3edbe,27,2022-02-12_10h46.58.339,lexical_decision_task_DD_L3,2021.2.3,MacIntel,60.0024001,,,,,,,,,,,0.8858,1,,,,,,,,,,,,,,,,,,,,,,,,0.20855462,-0.342526584,0,0,0,,,,,,,SWEAT,LB,m,m,./images/SWEATLB.png,,,,,,,,,,,,,,,,,,,,,m,1,0.8858,,,,,,,,0,51,51,66,1
,,,,,,,,,,,,,,,,,5fb1a8aebe8dfa6c6cc3edbe,27,2022-02-12_10h46.58.339,lexical_decision_task_DD_L3,2021.2.3,MacIntel,60.0024001,,,,,,,,,,,0.8532,1,,,,,,,,,,,,,,,,,,,,,,,,0.20855462,-0.342526584,0,0,0,,,,,,,GRAIN,LB,m,m,./images/GRAINLB.png,,,,,,,,,,,,,,,,,,,,,m,1,0.8532,,,,,,,,0,52,52,75,1
,,,,,,,,,,,,,,,,,5fb1a8aebe8dfa6c6cc3edbe,27,2022-02-12_10h46.58.339,lexical_decision_task_DD_L3,2021.2.3,MacIntel,60.0024001,,,,,,,,,,,0.6841,1,,,,,,,,,,,,,,,,,,,,,,,,0.20855462,-0.342526584,0,0,0,,,,,,,ONION,LB,m,m,./images/ONIONLB.png,,,,,,,,,,,,,,,,,,,,,m,1,0.6841,,,,,,,,0,53,53,51,1
,,,,,,,,,,,,,,,,,5fb1a8aebe8dfa6c6cc3edbe,27,2022-02-12_10h46.58.339,lexical_decision_task_DD_L3,2021.2.3,MacIntel,60.0024001,,,,,,,,,,,0.8166,1,,,,,,,,,,,,,,,,,,,,,,,,0.20855462,-0.342526584,0,0,0,,,,,,,BUTTER,LB,z,m,./images/BUTTERLB.png,,,,,,,,,,,,,,,,,,,,,z,1,0.8166,,,,,,,,0,54,54,111,1
,,,,,,,,,,,,,,,,,5fb1a8aebe8dfa6c6cc3edbe,27,2022-02-12_10h46.58.339,lexical_decision_task_DD_L3,2021.2.3,MacIntel,60.0024001,,,,,,,,,,,0.925,1,,,,,,,,,,,,,,,,,,,,,,,,0.20855462,-0.342526584,0,0,0,,,,,,,HEATER,HB,z,m,./images/HEATERHB.png,,,,,,,,,,,,,,,,,,,,,z,1,0.925,,,,,,,,0,55,55,140,1
,,,,,,,,,,,,,,,,,5fb1a8aebe8dfa6c6cc3edbe,27,2022-02-12_10h46.58.339,lexical_decision_task_DD_L3,2021.2.3,MacIntel,60.0024001,,,,,,,,,,,1.0179,1,,,,,,,,,,,,,,,,,,,,,,,,0.20855462,-0.342526584,0,0,0,,,,,,,BUBBLE,HB,z,m,./images/BUBBLEHB.png,,,,,,,,,,,,,,,,,,,,,z,1,1.0179,,,,,,,,0,56,56,155,1
,,,,,,,,,,,,,,,,,5fb1a8aebe8dfa6c6cc3edbe,27,2022-02-12_10h46.58.339,lexical_decision_task_DD_L3,2021.2.3,MacIntel,60.0024001,,,,,,,,,,,0.7988,1,,,,,,,,,,,,,,,,,,,,,,,,0.20855462,-0.342526584,0,0,0,,,,,,,SWING,C,m,m,./images/SWING.png,,,,,,,,,,,,,,,,,,,,,m,1,0.7988,,,,,,,,0,57,57,40,1
,,,,,,,,,,,,,,,,,5fb1a8aebe8dfa6c6cc3edbe,27,2022-02-12_10h46.58.339,lexical_decision_task_DD_L3,2021.2.3,MacIntel,60.0024001,,,,,,,,,,,1.3323,1,,,,,,,,,,,,,,,,,,,,,,,,0.20855462,-0.342526584,0,0,0,,,,,,,LLAMA,HB,z,m,./images/LLAMAHB.png,,,,,,,,,,,,,,,,,,,,,z,1,1.3323,,,,,,,,0,58,58,119,1
,,,,,,,,,,,,,,,,,5fb1a8aebe8dfa6c6cc3edbe,27,2022-02-12_10h46.58.339,lexical_decision_task_DD_L3,2021.2.3,MacIntel,60.0024001,,,,,,,,,,,0.932,1,,,,,,,,,,,,,,,,,,,,,,,,0.20855462,-0.342526584,0,0,0,,,,,,,CURRY,LB,z,m,./images/CURRYLB.png,,,,,,,,,,,,,,,,,,,,,z,1,0.932,,,,,,,,0,59,59,144,1
,,,,,,,,,,,,,,,,,5fb1a8aebe8dfa6c6cc3edbe,27,2022-02-12_10h46.58.339,lexical_decision_task_DD_L3,2021.2.3,MacIntel,60.0024001,,,,,,,,,,,0.8499,1,,,,,,,,,,,,,,,,,,,,,,,,0.20855462,-0.342526584,0,0,0,,,,,,,CARPET,HB,m,m,./images/CARPETHB.png,,,,,,,,,,,,,,,,,,,,,m,1,0.8499,,,,,,,,0,60,60,53,1
,,,,,,,,,,,,,,,,,5fb1a8aebe8dfa6c6cc3edbe,27,2022-02-12_10h46.58.339,lexical_decision_task_DD_L3,2021.2.3,MacIntel,60.0024001,,,,,,,,,,,0.9989,1,,,,,,,,,,,,,,,,,,,,,,,,0.20855462,-0.342526584,0,0,0,,,,,,,MALLET,HB,m,m,./images/MALLETHB.png,,,,,,,,,,,,,,,,,,,,,m,1,0.9989,,,,,,,,0,61,61,50,1
,,,,,,,,,,,,,,,,,5fb1a8aebe8dfa6c6cc3edbe,27,2022-02-12_10h46.58.339,lexical_decision_task_DD_L3,2021.2.3,MacIntel,60.0024001,,,,,,,,,,,2.4718,1,,,,,,,,,,,,,,,,,,,,,,,,0.20855462,-0.342526584,0,0,0,,,,,,,SNAKE,C,z,m,./images/SNAKE.png,,,,,,,,,,,,,,,,,,,,,z,1,2.4718,,,,,,,,0,62,62,124,1
,,,,,,,,,,,,,,,,,5fb1a8aebe8dfa6c6cc3edbe,27,2022-02-12_10h46.58.339,lexical_decision_task_DD_L3,2021.2.3,MacIntel,60.0024001,,,,,,,,,,,0.6803,1,,,,,,,,,,,,,,,,,,,,,,,,0.20855462,-0.342526584,0,0,0,,,,,,,MOOSE,LB,m,m,./images/MOOSELB.png,,,,,,,,,,,,,,,,,,,,,m,1,0.6803,,,,,,,,0,63,63,57,1
,,,,,,,,,,,,,,,,,5fb1a8aebe8dfa6c6cc3edbe,27,2022-02-12_10h46.58.339,lexical_decision_task_DD_L3,2021.2.3,MacIntel,60.0024001,,,,,,,,,,,0.7674,0,,,,,,,,,,,,,,,,,,,,,,,,0.20855462,-0.342526584,0,0,0,,,,,,,PILOT,HB,z,m,./images/PILOTHB.png,,,,,,,,,,,,,,,,,,,,,m,0,0.7674,,,,,,,,0,64,64,134,1
,,,,,,,,,,,,,,,,,5fb1a8aebe8dfa6c6cc3edbe,27,2022-02-12_10h46.58.339,lexical_decision_task_DD_L3,2021.2.3,MacIntel,60.0024001,,,,,,,,,,,1.3489,1,,,,,,,,,,,,,,,,,,,,,,,,0.20855462,-0.342526584,0,0,0,,,,,,,RAZOR,C,z,m,./images/RAZOR.png,,,,,,,,,,,,,,,,,,,,,z,1,1.3489,,,,,,,,0,65,65,118,1
,,,,,,,,,,,,,,,,,5fb1a8aebe8dfa6c6cc3edbe,27,2022-02-12_10h46.58.339,lexical_decision_task_DD_L3,2021.2.3,MacIntel,60.0024001,,,,,,,,,,,0.6529,1,,,,,,,,,,,,,,,,,,,,,,,,0.20855462,-0.342526584,0,0,0,,,,,,,FARMER,HB,m,m,./images/FARMERHB.png,,,,,,,,,,,,,,,,,,,,,m,1,0.6529,,,,,,,,0,66,66,65,1
,,,,,,,,,,,,,,,,,5fb1a8aebe8dfa6c6cc3edbe,27,2022-02-12_10h46.58.339,lexical_decision_task_DD_L3,2021.2.3,MacIntel,60.0024001,,,,,,,,,,,0.8006,1,,,,,,,,,,,,,,,,,,,,,,,,0.20855462,-0.342526584,0,0,0,,,,,,,STATUE,LB,z,m,./images/STATUELB.png,,,,,,,,,,,,,,,,,,,,,z,1,0.8006,,,,,,,,0,67,67,150,1
,,,,,,,,,,,,,,,,,5fb1a8aebe8dfa6c6cc3edbe,27,2022-02-12_10h46.58.339,lexical_decision_task_DD_L3,2021.2.3,MacIntel,60.0024001,,,,,,,,,,,2.6144,1,,,,,,,,,,,,,,,,,,,,,,,,0.20855462,-0.342526584,0,0,0,,,,,,,DANCER,LB,z,m,./images/DANCERLB.png,,,,,,,,,,,,,,,,,,,,,z,1,2.6144,,,,,,,,0,68,68,105,1
,,,,,,,,,,,,,,,,,5fb1a8aebe8dfa6c6cc3edbe,27,2022-02-12_10h46.58.339,lexical_decision_task_DD_L3,2021.2.3,MacIntel,60.0024001,,,,,,,,,,,0.9031,0,,,,,,,,,,,,,,,,,,,,,,,,0.20855462,-0.342526584,0,0,0,,,,,,,SQUARE,LB,m,m,./images/SQUARELB.png,,,,,,,,,,,,,,,,,,,,,z,0,0.9031,,,,,,,,0,69,69,6,1
,,,,,,,,,,,,,,,,,5fb1a8aebe8dfa6c6cc3edbe,27,2022-02-12_10h46.58.339,lexical_decision_task_DD_L3,2021.2.3,MacIntel,60.0024001,,,,,,,,,,,0.6332,1,,,,,,,,,,,,,,,,,,,,,,,,0.20855462,-0.342526584,0,0,0,,,,,,,MUFFIN,C,m,m,./images/MUFFIN.png,,,,,,,,,,,,,,,,,,,,,m,1,0.6332,,,,,,,,0,70,70,55,1
,,,,,,,,,,,,,,,,,5fb1a8aebe8dfa6c6cc3edbe,27,2022-02-12_10h46.58.339,lexical_decision_task_DD_L3,2021.2.3,MacIntel,60.0024001,,,,,,,,,,,0.664,1,,,,,,,,,,,,,,,,,,,,,,,,0.20855462,-0.342526584,0,0,0,,,,,,,SCREW,LB,m,m,./images/SCREWLB.png,,,,,,,,,,,,,,,,,,,,,m,1,0.664,,,,,,,,0,71,71,24,1
,,,,,,,,,,,,,,,,,5fb1a8aebe8dfa6c6cc3edbe,27,2022-02-12_10h46.58.339,lexical_decision_task_DD_L3,2021.2.3,MacIntel,60.0024001,,,,,,,,,,,0.6832,1,,,,,,,,,,,,,,,,,,,,,,,,0.20855462,-0.342526584,0,0,0,,,,,,,FINGER,LB,m,m,./images/FINGERLB.png,,,,,,,,,,,,,,,,,,,,,m,1,0.6832,,,,,,,,0,72,72,3,1
,,,,,,,,,,,,,,,,,5fb1a8aebe8dfa6c6cc3edbe,27,2022-02-12_10h46.58.339,lexical_decision_task_DD_L3,2021.2.3,MacIntel,60.0024001,,,,,,,,,,,0.5838,1,,,,,,,,,,,,,,,,,,,,,,,,0.20855462,-0.342526584,0,0,0,,,,,,,TORCH,HB,m,m,./images/TORCHHB.png,,,,,,,,,,,,,,,,,,,,,m,1,0.5838,,,,,,,,0,73,73,68,1
,,,,,,,,,,,,,,,,,5fb1a8aebe8dfa6c6cc3edbe,27,2022-02-12_10h46.58.339,lexical_decision_task_DD_L3,2021.2.3,MacIntel,60.0024001,,,,,,,,,,,1.0162,0,,,,,,,,,,,,,,,,,,,,,,,,0.20855462,-0.342526584,0,0,0,,,,,,,WAGON,C,z,m,./images/WAGON.png,,,,,,,,,,,,,,,,,,,,,m,0,1.0162,,,,,,,,0,74,74,91,1
,,,,,,,,,,,,,,,,,5fb1a8aebe8dfa6c6cc3edbe,27,2022-02-12_10h46.58.339,lexical_decision_task_DD_L3,2021.2.3,MacIntel,60.0024001,,,,,,,,,,,0.8188,1,,,,,,,,,,,,,,,,,,,,,,,,0.20855462,-0.342526584,0,0,0,,,,,,,BANANA,C,z,m,./images/BANANA.png,,,,,,,,,,,,,,,,,,,,,z,1,0.8188,,,,,,,,0,75,75,154,1
,,,,,,,,,,,,,,,,,5fb1a8aebe8dfa6c6cc3edbe,27,2022-02-12_10h46.58.339,lexical_decision_task_DD_L3,2021.2.3,MacIntel,60.0024001,,,,,,,,,,,0.8499,1,,,,,,,,,,,,,,,,,,,,,,,,0.20855462,-0.342526584,0,0,0,,,,,,,BUNNY,C,z,m,./images/BUNNY.png,,,,,,,,,,,,,,,,,,,,,z,1,0.8499,,,,,,,,0,76,76,97,1
,,,,,,,,,,,,,,,,,5fb1a8aebe8dfa6c6cc3edbe,27,2022-02-12_10h46.58.339,lexical_decision_task_DD_L3,2021.2.3,MacIntel,60.0024001,,,,,,,,,,,1.0489,1,,,,,,,,,,,,,,,,,,,,,,,,0.20855462,-0.342526584,0,0,0,,,,,,,PEBBLE,C,z,m,./images/PEBBLE.png,,,,,,,,,,,,,,,,,,,,,z,1,1.0489,,,,,,,,0,77,77,166,1
,,,,,,,,,,,,,,,,,5fb1a8aebe8dfa6c6cc3edbe,27,2022-02-12_10h46.58.339,lexical_decision_task_DD_L3,2021.2.3,MacIntel,60.0024001,,,,,,,,,,,1.2817,1,,,,,,,,,,,,,,,,,,,,,,,,0.20855462,-0.342526584,0,0,0,,,,,,,SLOPE,LB,z,m,./images/SLOPELB.png,,,,,,,,,,,,,,,,,,,,,z,1,1.2817,,,,,,,,0,78,78,114,1
,,,,,,,,,,,,,,,,,5fb1a8aebe8dfa6c6cc3edbe,27,2022-02-12_10h46.58.339,lexical_decision_task_DD_L3,2021.2.3,MacIntel,60.0024001,,,,,,,,,,,1.1489,1,,,,,,,,,,,,,,,,,,,,,,,,0.20855462,-0.342526584,0,0,0,,,,,,,BAKER,LB,z,m,./images/BAKERLB.png,,,,,,,,,,,,,,,,,,,,,z,1,1.1489,,,,,,,,0,79,79,147,1
,,,,,,,,,,,,,,,,,5fb1a8aebe8dfa6c6cc3edbe,27,2022-02-12_10h46.58.339,lexical_decision_task_DD_L3,2021.2.3,MacIntel,60.0024001,,,,,,,,,,,0.8284,1,,,,,,,,,,,,,,,,,,,,,,,,0.20855462,-0.342526584,0,0,0,,,,,,,WEASEL,HB,m,m,./images/WEASELHB.png,,,,,,,,,,,,,,,,,,,,,m,1,0.8284,,,,,,,,0,80,80,80,1
,,,,,,,,,,,,,,,,,5fb1a8aebe8dfa6c6cc3edbe,27,2022-02-12_10h46.58.339,lexical_decision_task_DD_L3,2021.2.3,MacIntel,60.0024001,,,,,,,,,,,0.815,1,,,,,,,,,,,,,,,,,,,,,,,,0.20855462,-0.342526584,0,0,0,,,,,,,DIVER,LB,z,m,./images/DIVERLB.png,,,,,,,,,,,,,,,,,,,,,z,1,0.815,,,,,,,,0,81,81,93,1
,,,,,,,,,,,,,,,,,5fb1a8aebe8dfa6c6cc3edbe,27,2022-02-12_10h46.58.339,lexical_decision_task_DD_L3,2021.2.3,MacIntel,60.0024001,,,,,,,,,,,2.1833,1,,,,,,,,,,,,,,,,,,,,,,,,0.20855462,-0.342526584,0,0,0,,,,,,,BROOM,LB,z,m,./images/BROOMLB.png,,,,,,,,,,,,,,,,,,,,,z,1,2.1833,,,,,,,,0,82,82,162,1
,,,,,,,,,,,,,,,,,5fb1a8aebe8dfa6c6cc3edbe,27,2022-02-12_10h46.58.339,lexical_decision_task_DD_L3,2021.2.3,MacIntel,60.0024001,,,,,,,,,,,0.6948,1,,,,,,,,,,,,,,,,,,,,,,,,0.20855462,-0.342526584,0,0,0,space,,,,,,FALCON,C,m,m,./images/FALCON.png,9.0867,,,,,,,,,,,,,,,,,,,,m,1,0.6948,,,,,,,,0,83,83,28,1
,,,,,,,,,,,,,,,,,5fb1a8aebe8dfa6c6cc3edbe,27,2022-02-12_10h46.58.339,lexical_decision_task_DD_L3,2021.2.3,MacIntel,60.0024001,,,,,,,,,,,1.4004,1,,,,,,,,,,,,,,,,,,,,,,,,0.20855462,-0.342526584,0,0,0,,,,,,,GREASE,LB,m,m,./images/GREASELB.png,,,,,,,,,,,,,,,,,,,,,m,1,1.4004,,,,,,,,0,84,84,15,1
,,,,,,,,,,,,,,,,,5fb1a8aebe8dfa6c6cc3edbe,27,2022-02-12_10h46.58.339,lexical_decision_task_DD_L3,2021.2.3,MacIntel,60.0024001,,,,,,,,,,,0.9835,1,,,,,,,,,,,,,,,,,,,,,,,,0.20855462,-0.342526584,0,0,0,,,,,,,POODLE,LB,m,m,./images/POODLELB.png,,,,,,,,,,,,,,,,,,,,,m,1,0.9835,,,,,,,,0,85,85,81,1
,,,,,,,,,,,,,,,,,5fb1a8aebe8dfa6c6cc3edbe,27,2022-02-12_10h46.58.339,lexical_decision_task_DD_L3,2021.2.3,MacIntel,60.0024001,,,,,,,,,,,0.6802,1,,,,,,,,,,,,,,,,,,,,,,,,0.20855462,-0.342526584,0,0,0,,,,,,,PEACH,HB,m,m,./images/PEACHHB.png,,,,,,,,,,,,,,,,,,,,,m,1,0.6802,,,,,,,,0,86,86,35,1
,,,,,,,,,,,,,,,,,5fb1a8aebe8dfa6c6cc3edbe,27,2022-02-12_10h46.58.339,lexical_decision_task_DD_L3,2021.2.3,MacIntel,60.0024001,,,,,,,,,,,0.8331,1,,,,,,,,,,,,,,,,,,,,,,,,0.20855462,-0.342526584,0,0,0,,,,,,,MOSQUE,C,m,m,./images/MOSQUE.png,,,,,,,,,,,,,,,,,,,,,m,1,0.8331,,,,,,,,0,87,87,43,1
,,,,,,,,,,,,,,,,,5fb1a8aebe8dfa6c6cc3edbe,27,2022-02-12_10h46.58.339,lexical_decision_task_DD_L3,2021.2.3,MacIntel,60.0024001,,,,,,,,,,,0.8135,1,,,,,,,,,,,,,,,,,,,,,,,,0.20855462,-0.342526584,0,0,0,,,,,,,GRANNY,HB,z,m,./images/GRANNYHB.png,,,,,,,,,,,,,,,,,,,,,z,1,0.8135,,,,,,,,0,88,88,104,1
,,,,,,,,,,,,,,,,,5fb1a8aebe8dfa6c6cc3edbe,27,2022-02-12_10h46.58.339,lexical_decision_task_DD_L3,2021.2.3,MacIntel,60.0024001,,,,,,,,,,,0.7521,1,,,,,,,,,,,,,,,,,,,,,,,,0.20855462,-0.342526584,0,0,0,,,,,,,PICKLE,HB,m,m,./images/PICKLEHB.png,,,,,,,,,,,,,,,,,,,,,m,1,0.7521,,,,,,,,0,89,89,14,1
,,,,,,,,,,,,,,,,,5fb1a8aebe8dfa6c6cc3edbe,27,2022-02-12_10h46.58.339,lexical_decision_task_DD_L3,2021.2.3,MacIntel,60.0024001,,,,,,,,,,,1.0199,0,,,,,,,,,,,,,,,,,,,,,,,,0.20855462,-0.342526584,0,0,0,,,,,,,STOOL,C,z,m,./images/STOOL.png,,,,,,,,,,,,,,,,,,,,,m,0,1.0199,,,,,,,,0,90,90,127,1
,,,,,,,,,,,,,,,,,5fb1a8aebe8dfa6c6cc3edbe,27,2022-02-12_10h46.58.339,lexical_decision_task_DD_L3,2021.2.3,MacIntel,60.0024001,,,,,,,,,,,0.648,1,,,,,,,,,,,,,,,,,,,,,,,,0.20855462,-0.342526584,0,0,0,,,,,,,THROAT,LB,m,m,./images/THROATLB.png,,,,,,,,,,,,,,,,,,,,,m,1,0.648,,,,,,,,0,91,91,36,1
,,,,,,,,,,,,,,,,,5fb1a8aebe8dfa6c6cc3edbe,27,2022-02-12_10h46.58.339,lexical_decision_task_DD_L3,2021.2.3,MacIntel,60.0024001,,,,,,,,,,,0.714,1,,,,,,,,,,,,,,,,,,,,,,,,0.20855462,-0.342526584,0,0,0,,,,,,,FLESH,LB,z,m,./images/FLESHLB.png,,,,,,,,,,,,,,,,,,,,,z,1,0.714,,,,,,,,0,92,92,108,1
,,,,,,,,,,,,,,,,,5fb1a8aebe8dfa6c6cc3edbe,27,2022-02-12_10h46.58.339,lexical_decision_task_DD_L3,2021.2.3,MacIntel,60.0024001,,,,,,,,,,,1.2663,1,,,,,,,,,,,,,,,,,,,,,,,,0.20855462,-0.342526584,0,0,0,,,,,,,MUMMY,C,z,m,./images/MUMMY.png,,,,,,,,,,,,,,,,,,,,,z,1,1.2663,,,,,,,,0,93,93,130,1
,,,,,,,,,,,,,,,,,5fb1a8aebe8dfa6c6cc3edbe,27,2022-02-12_10h46.58.339,lexical_decision_task_DD_L3,2021.2.3,MacIntel,60.0024001,,,,,,,,,,,1.1042,1,,,,,,,,,,,,,,,,,,,,,,,,0.20855462,-0.342526584,0,0,0,,,,,,,MONKEY,LB,z,m,./images/MONKEYLB.png,,,,,,,,,,,,,,,,,,,,,z,1,1.1042,,,,,,,,0,94,94,129,1
,,,,,,,,,,,,,,,,,5fb1a8aebe8dfa6c6cc3edbe,27,2022-02-12_10h46.58.339,lexical_decision_task_DD_L3,2021.2.3,MacIntel,60.0024001,,,,,,,,,,,1.3478,1,,,,,,,,,,,,,,,,,,,,,,,,0.20855462,-0.342526584,0,0,0,,,,,,,SHIELD,LB,z,m,./images/SHIELDLB.png,,,,,,,,,,,,,,,,,,,,,z,1,1.3478,,,,,,,,0,95,95,132,1
,,,,,,,,,,,,,,,,,5fb1a8aebe8dfa6c6cc3edbe,27,2022-02-12_10h46.58.339,lexical_decision_task_DD_L3,2021.2.3,MacIntel,60.0024001,,,,,,,,,,,0.8448,1,,,,,,,,,,,,,,,,,,,,,,,,0.20855462,-0.342526584,0,0,0,,,,,,,FERRY,LB,z,m,./images/FERRYLB.png,,,,,,,,,,,,,,,,,,,,,z,1,0.8448,,,,,,,,0,96,96,141,1
,,,,,,,,,,,,,,,,,5fb1a8aebe8dfa6c6cc3edbe,27,2022-02-12_10h46.58.339,lexical_decision_task_DD_L3,2021.2.3,MacIntel,60.0024001,,,,,,,,,,,1.051,0,,,,,,,,,,,,,,,,,,,,,,,,0.20855462,-0.342526584,0,0,0,,,,,,,SKIING,HB,m,m,./images/SKIINGHB.png,,,,,,,,,,,,,,,,,,,,,z,0,1.051,,,,,,,,0,97,97,17,1
,,,,,,,,,,,,,,,,,5fb1a8aebe8dfa6c6cc3edbe,27,2022-02-12_10h46.58.339,lexical_decision_task_DD_L3,2021.2.3,MacIntel,60.0024001,,,,,,,,,,,1.5829,1,,,,,,,,,,,,,,,,,,,,,,,,0.20855462,-0.342526584,0,0,0,,,,,,,SUNSET,C,m,m,./images/SUNSET.png,,,,,,,,,,,,,,,,,,,,,m,1,1.5829,,,,,,,,0,98,98,82,1
,,,,,,,,,,,,,,,,,5fb1a8aebe8dfa6c6cc3edbe,27,2022-02-12_10h46.58.339,lexical_decision_task_DD_L3,2021.2.3,MacIntel,60.0024001,,,,,,,,,,,1.0475,0,,,,,,,,,,,,,,,,,,,,,,,,0.20855462,-0.342526584,0,0,0,,,,,,,DRILL,LB,z,m,./images/DRILLLB.png,,,,,,,,,,,,,,,,,,,,,m,0,1.0475,,,,,,,,0,99,99,165,1
,,,,,,,,,,,,,,,,,5fb1a8aebe8dfa6c6cc3edbe,27,2022-02-12_10h46.58.339,lexical_decision_task_DD_L3,2021.2.3,MacIntel,60.0024001,,,,,,,,,,,1.0991,0,,,,,,,,,,,,,,,,,,,,,,,,0.20855462,-0.342526584,0,0,0,,,,,,,GARDEN,C,z,m,./images/GARDEN.png,,,,,,,,,,,,,,,,,,,,,m,0,1.0991,,,,,,,,0,100,100,94,1
,,,,,,,,,,,,,,,,,5fb1a8aebe8dfa6c6cc3edbe,27,2022-02-12_10h46.58.339,lexical_decision_task_DD_L3,2021.2.3,MacIntel,60.0024001,,,,,,,,,,,0.7144,1,,,,,,,,,,,,,,,,,,,,,,,,0.20855462,-0.342526584,0,0,0,,,,,,,LADDER,HB,m,m,./images/LADDERHB.png,,,,,,,,,,,,,,,,,,,,,m,1,0.7144,,,,,,,,0,101,101,38,1
,,,,,,,,,,,,,,,,,5fb1a8aebe8dfa6c6cc3edbe,27,2022-02-12_10h46.58.339,lexical_decision_task_DD_L3,2021.2.3,MacIntel,60.0024001,,,,,,,,,,,0.7843,1,,,,,,,,,,,,,,,,,,,,,,,,0.20855462,-0.342526584,0,0,0,,,,,,,LIZARD,HB,m,m,./images/LIZARDHB.png,,,,,,,,,,,,,,,,,,,,,m,1,0.7843,,,,,,,,0,102,102,44,1
,,,,,,,,,,,,,,,,,5fb1a8aebe8dfa6c6cc3edbe,27,2022-02-12_10h46.58.339,lexical_decision_task_DD_L3,2021.2.3,MacIntel,60.0024001,,,,,,,,,,,1.117,1,,,,,,,,,,,,,,,,,,,,,,,,0.20855462,-0.342526584,0,0,0,,,,,,,WALNUT,LB,z,m,./images/WALNUTLB.png,,,,,,,,,,,,,,,,,,,,,z,1,1.117,,,,,,,,0,103,103,84,1
,,,,,,,,,,,,,,,,,5fb1a8aebe8dfa6c6cc3edbe,27,2022-02-12_10h46.58.339,lexical_decision_task_DD_L3,2021.2.3,MacIntel,60.0024001,,,,,,,,,,,1.2303,0,,,,,,,,,,,,,,,,,,,,,,,,0.20855462,-0.342526584,0,0,0,,,,,,,BONNET,HB,m,m,./images/BONNETHB.png,,,,,,,,,,,,,,,,,,,,,z,0,1.2303,,,,,,,,0,104,104,11,1
,,,,,,,,,,,,,,,,,5fb1a8aebe8dfa6c6cc3edbe,27,2022-02-12_10h46.58.339,lexical_decision_task_DD_L3,2021.2.3,MacIntel,60.0024001,,,,,,,,,,,0.8513,1,,,,,,,,,,,,,,,,,,,,,,,,0.20855462,-0.342526584,0,0,0,,,,,,,POSTER,HB,z,m,./images/POSTERHB.png,,,,,,,,,,,,,,,,,,,,,z,1,0.8513,,,,,,,,0,105,105,137,1
,,,,,,,,,,,,,,,,,5fb1a8aebe8dfa6c6cc3edbe,27,2022-02-12_10h46.58.339,lexical_decision_task_DD_L3,2021.2.3,MacIntel,60.0024001,,,,,,,,,,,0.7971,0,,,,,,,,,,,,,,,,,,,,,,,,0.20855462,-0.342526584,0,0,0,,,,,,,CRATER,LB,z,m,./images/CRATERLB.png,,,,,,,,,,,,,,,,,,,,,m,0,0.7971,,,,,,,,0,106,106,87,1
,,,,,,,,,,,,,,,,,5fb1a8aebe8dfa6c6cc3edbe,27,2022-02-12_10h46.58.339,lexical_decision_task_DD_L3,2021.2.3,MacIntel,60.0024001,,,,,,,,,,,0.7152,1,,,,,,,,,,,,,,,,,,,,,,,,0.20855462,-0.342526584,0,0,0,,,,,,,MUSCLE,C,m,m,./images/MUSCLE.png,,,,,,,,,,,,,,,,,,,,,m,1,0.7152,,,,,,,,0,107,107,4,1
,,,,,,,,,,,,,,,,,5fb1a8aebe8dfa6c6cc3edbe,27,2022-02-12_10h46.58.339,lexical_decision_task_DD_L3,2021.2.3,MacIntel,60.0024001,,,,,,,,,,,0.9397,0,,,,,,,,,,,,,,,,,,,,,,,,0.20855462,-0.342526584,0,0,0,,,,,,,SPORT,LB,m,m,./images/SPORTLB.png,,,,,,,,,,,,,,,,,,,,,z,0,0.9397,,,,,,,,0,108,108,48,1
,,,,,,,,,,,,,,,,,5fb1a8aebe8dfa6c6cc3edbe,27,2022-02-12_10h46.58.339,lexical_decision_task_DD_L3,2021.2.3,MacIntel,60.0024001,,,,,,,,,,,0.7842,1,,,,,,,,,,,,,,,,,,,,,,,,0.20855462,-0.342526584,0,0,0,,,,,,,BRUSH,HB,z,m,./images/BRUSHHB.png,,,,,,,,,,,,,,,,,,,,,z,1,0.7842,,,,,,,,0,109,109,143,1
,,,,,,,,,,,,,,,,,5fb1a8aebe8dfa6c6cc3edbe,27,2022-02-12_10h46.58.339,lexical_decision_task_DD_L3,2021.2.3,MacIntel,60.0024001,,,,,,,,,,,0.901,1,,,,,,,,,,,,,,,,,,,,,,,,0.20855462,-0.342526584,0,0,0,,,,,,,WRIST,C,m,m,./images/WRIST.png,,,,,,,,,,,,,,,,,,,,,m,1,0.901,,,,,,,,0,110,110,25,1
,,,,,,,,,,,,,,,,,5fb1a8aebe8dfa6c6cc3edbe,27,2022-02-12_10h46.58.339,lexical_decision_task_DD_L3,2021.2.3,MacIntel,60.0024001,,,,,,,,,,,1.3477,1,,,,,,,,,,,,,,,,,,,,,,,,0.20855462,-0.342526584,0,0,0,,,,,,,ENGINE,HB,z,m,./images/ENGINEHB.png,,,,,,,,,,,,,,,,,,,,,z,1,1.3477,,,,,,,,0,111,111,122,1
,,,,,,,,,,,,,,,,,5fb1a8aebe8dfa6c6cc3edbe,27,2022-02-12_10h46.58.339,lexical_decision_task_DD_L3,2021.2.3,MacIntel,60.0024001,,,,,,,,,,,0.6824,1,,,,,,,,,,,,,,,,,,,,,,,,0.20855462,-0.342526584,0,0,0,,,,,,,FOLDER,LB,m,m,./images/FOLDERLB.png,,,,,,,,,,,,,,,,,,,,,m,1,0.6824,,,,,,,,0,112,112,42,1
,,,,,,,,,,,,,,,,,5fb1a8aebe8dfa6c6cc3edbe,27,2022-02-12_10h46.58.339,lexical_decision_task_DD_L3,2021.2.3,MacIntel,60.0024001,,,,,,,,,,,0.9218,1,,,,,,,,,,,,,,,,,,,,,,,,0.20855462,-0.342526584,0,0,0,,,,,,,ALLEY,C,z,m,./images/ALLEY.png,,,,,,,,,,,,,,,,,,,,,z,1,0.9218,,,,,,,,0,113,113,139,1
,,,,,,,,,,,,,,,,,5fb1a8aebe8dfa6c6cc3edbe,27,2022-02-12_10h46.58.339,lexical_decision_task_DD_L3,2021.2.3,MacIntel,60.0024001,,,,,,,,,,,0.766,1,,,,,,,,,,,,,,,,,,,,,,,,0.20855462,-0.342526584,0,0,0,,,,,,,MAMMAL,HB,z,m,./images/MAMMALHB.png,,,,,,,,,,,,,,,,,,,,,z,1,0.766,,,,,,,,0,114,114,146,1
,,,,,,,,,,,,,,,,,5fb1a8aebe8dfa6c6cc3edbe,27,2022-02-12_10h46.58.339,lexical_decision_task_DD_L3,2021.2.3,MacIntel,60.0024001,,,,,,,,,,,0.8831,1,,,,,,,,,,,,,,,,,,,,,,,,0.20855462,-0.342526584,0,0,0,,,,,,,STRING,HB,m,m,./images/STRINGHB.png,,,,,,,,,,,,,,,,,,,,,m,1,0.8831,,,,,,,,0,115,115,41,1
,,,,,,,,,,,,,,,,,5fb1a8aebe8dfa6c6cc3edbe,27,2022-02-12_10h46.58.339,lexical_decision_task_DD_L3,2021.2.3,MacIntel,60.0024001,,,,,,,,,,,1.1489,1,,,,,,,,,,,,,,,,,,,,,,,,0.20855462,-0.342526584,0,0,0,,,,,,,DESERT,C,z,m,./images/DESERT.png,,,,,,,,,,,,,,,,,,,,,z,1,1.1489,,,,,,,,0,116,116,136,1
,,,,,,,,,,,,,,,,,5fb1a8aebe8dfa6c6cc3edbe,27,2022-02-12_10h46.58.339,lexical_decision_task_DD_L3,2021.2.3,MacIntel,60.0024001,,,,,,,,,,,0.9468,0,,,,,,,,,,,,,,,,,,,,,,,,0.20855462,-0.342526584,0,0,0,,,,,,,BURIAL,HB,m,m,./images/BURIALHB.png,,,,,,,,,,,,,,,,,,,,,z,0,0.9468,,,,,,,,0,117,117,59,1
,,,,,,,,,,,,,,,,,5fb1a8aebe8dfa6c6cc3edbe,27,2022-02-12_10h46.58.339,lexical_decision_task_DD_L3,2021.2.3,MacIntel,60.0024001,,,,,,,,,,,1.2722,1,,,,,,,,,,,,,,,,,,,,,,,,0.20855462,-0.342526584,0,0,0,,,,,,,VALLEY,HB,z,m,./images/VALLEYHB.png,,,,,,,,,,,,,,,,,,,,,z,1,1.2722,,,,,,,,0,118,118,152,1
,,,,,,,,,,,,,,,,,5fb1a8aebe8dfa6c6cc3edbe,27,2022-02-12_10h46.58.339,lexical_decision_task_DD_L3,2021.2.3,MacIntel,60.0024001,,,,,,,,,,,0.7157,1,,,,,,,,,,,,,,,,,,,,,,,,0.20855462,-0.342526584,0,0,0,,,,,,,SAUNA,LB,z,m,./images/SAUNALB.png,,,,,,,,,,,,,,,,,,,,,z,1,0.7157,,,,,,,,0,119,119,117,1
,,,,,,,,,,,,,,,,,5fb1a8aebe8dfa6c6cc3edbe,27,2022-02-12_10h46.58.339,lexical_decision_task_DD_L3,2021.2.3,MacIntel,60.0024001,,,,,,,,,,,0.8823,1,,,,,,,,,,,,,,,,,,,,,,,,0.20855462,-0.342526584,0,0,0,,,,,,,HOCKEY,HB,z,m,./images/HOCKEYHB.png,,,,,,,,,,,,,,,,,,,,,z,1,0.8823,,,,,,,,0,120,120,116,1
,,,,,,,,,,,,,,,,,5fb1a8aebe8dfa6c6cc3edbe,27,2022-02-12_10h46.58.339,lexical_decision_task_DD_L3,2021.2.3,MacIntel,60.0024001,,,,,,,,,,,0.9175,1,,,,,,,,,,,,,,,,,,,,,,,,0.20855462,-0.342526584,0,0,0,,,,,,,SMOKER,HB,m,m,./images/SMOKERHB.png,,,,,,,,,,,,,,,,,,,,,m,1,0.9175,,,,,,,,0,121,121,26,1
,,,,,,,,,,,,,,,,,5fb1a8aebe8dfa6c6cc3edbe,27,2022-02-12_10h46.58.339,lexical_decision_task_DD_L3,2021.2.3,MacIntel,60.0024001,,,,,,,,,,,0.6158,1,,,,,,,,,,,,,,,,,,,,,,,,0.20855462,-0.342526584,0,0,0,,,,,,,BISHOP,C,z,m,./images/BISHOP.png,,,,,,,,,,,,,,,,,,,,,z,1,0.6158,,,,,,,,0,122,122,133,1
,,,,,,,,,,,,,,,,,5fb1a8aebe8dfa6c6cc3edbe,27,2022-02-12_10h46.58.339,lexical_decision_task_DD_L3,2021.2.3,MacIntel,60.0024001,,,,,,,,,,,0.7819,1,,,,,,,,,,,,,,,,,,,,,,,,0.20855462,-0.342526584,0,0,0,,,,,,,PURSE,HB,m,m,./images/PURSEHB.png,,,,,,,,,,,,,,,,,,,,,m,1,0.7819,,,,,,,,0,123,123,62,1
,,,,,,,,,,,,,,,,,5fb1a8aebe8dfa6c6cc3edbe,27,2022-02-12_10h46.58.339,lexical_decision_task_DD_L3,2021.2.3,MacIntel,60.0024001,,,,,,,,,,,1.1993,0,,,,,,,,,,,,,,,,,,,,,,,,0.20855462,-0.342526584,0,0,0,,,,,,,MAGGOT,LB,m,m,./images/MAGGOTLB.png,,,,,,,,,,,,,,,,,,,,,z,0,1.1993,,,,,,,,0,124,124,33,1
,,,,,,,,,,,,,,,,,5fb1a8aebe8dfa6c6cc3edbe,27,2022-02-12_10h46.58.339,lexical_decision_task_DD_L3,2021.2.3,MacIntel,60.0024001,,,,,,,,,,,0.7329,1,,,,,,,,,,,,,,,,,,,,,,,,0.20855462,-0.342526584,0,0,0,space,,,,,,MIDGET,C,z,m,./images/MIDGET.png,6.5191,,,,,,,,,,,,,,,,,,,,z,1,0.7329,,,,,,,,0,125,125,160,1
,,,,,,,,,,,,,,,,,5fb1a8aebe8dfa6c6cc3edbe,27,2022-02-12_10h46.58.339,lexical_decision_task_DD_L3,2021.2.3,MacIntel,60.0024001,,,,,,,,,,,1.0137,1,,,,,,,,,,,,,,,,,,,,,,,,0.20855462,-0.342526584,0,0,0,,,,,,,CANDLE,C,m,m,./images/CANDLE.png,,,,,,,,,,,,,,,,,,,,,m,1,1.0137,,,,,,,,0,126,126,61,1
,,,,,,,,,,,,,,,,,5fb1a8aebe8dfa6c6cc3edbe,27,2022-02-12_10h46.58.339,lexical_decision_task_DD_L3,2021.2.3,MacIntel,60.0024001,,,,,,,,,,,1.0636,1,,,,,,,,,,,,,,,,,,,,,,,,0.20855462,-0.342526584,0,0,0,,,,,,,KIDNEY,LB,m,m,./images/KIDNEYLB.png,,,,,,,,,,,,,,,,,,,,,m,1,1.0636,,,,,,,,0,127,127,21,1
,,,,,,,,,,,,,,,,,5fb1a8aebe8dfa6c6cc3edbe,27,2022-02-12_10h46.58.339,lexical_decision_task_DD_L3,2021.2.3,MacIntel,60.0024001,,,,,,,,,,,1.115,1,,,,,,,,,,,,,,,,,,,,,,,,0.20855462,-0.342526584,0,0,0,,,,,,,PACKET,HB,m,m,./images/PACKETHB.png,,,,,,,,,,,,,,,,,,,,,m,1,1.115,,,,,,,,0,128,128,56,1
,,,,,,,,,,,,,,,,,5fb1a8aebe8dfa6c6cc3edbe,27,2022-02-12_10h46.58.339,lexical_decision_task_DD_L3,2021.2.3,MacIntel,60.0024001,,,,,,,,,,,1.0678,1,,,,,,,,,,,,,,,,,,,,,,,,0.20855462,-0.342526584,0,0,0,,,,,,,BAMBOO,HB,z,m,./images/BAMBOOHB.png,,,,,,,,,,,,,,,,,,,,,z,1,1.0678,,,,,,,,0,129,129,89,1
,,,,,,,,,,,,,,,,,5fb1a8aebe8dfa6c6cc3edbe,27,2022-02-12_10h46.58.339,lexical_decision_task_DD_L3,2021.2.3,MacIntel,60.0024001,,,,,,,,,,,0.6908,1,,,,,,,,,,,,,,,,,,,,,,,,0.20855462,-0.342526584,0,0,0,,,,,,,PIMPLE,HB,m,m,./images/PIMPLEHB.png,,,,,,,,,,,,,,,,,,,,,m,1,0.6908,,,,,,,,0,130,130,71,1
,,,,,,,,,,,,,,,,,5fb1a8aebe8dfa6c6cc3edbe,27,2022-02-12_10h46.58.339,lexical_decision_task_DD_L3,2021.2.3,MacIntel,60.0024001,,,,,,,,,,,1.7516,1,,,,,,,,,,,,,,,,,,,,,,,,0.20855462,-0.342526584,0,0,0,,,,,,,SNACK,C,m,m,./images/SNACK.png,,,,,,,,,,,,,,,,,,,,,m,1,1.7516,,,,,,,,0,131,131,73,1
,,,,,,,,,,,,,,,,,5fb1a8aebe8dfa6c6cc3edbe,27,2022-02-12_10h46.58.339,lexical_decision_task_DD_L3,2021.2.3,MacIntel,60.0024001,,,,,,,,,,,0.7643,0,,,,,,,,,,,,,,,,,,,,,,,,0.20855462,-0.342526584,0,0,0,,,,,,,FENCE,HB,z,m,./images/FENCEHB.png,,,,,,,,,,,,,,,,,,,,,m,0,0.7643,,,,,,,,0,132,132,98,1
,,,,,,,,,,,,,,,,,5fb1a8aebe8dfa6c6cc3edbe,27,2022-02-12_10h46.58.339,lexical_decision_task_DD_L3,2021.2.3,MacIntel,60.0024001,,,,,,,,,,,0.8156,1,,,,,,,,,,,,,,,,,,,,,,,,0.20855462,-0.342526584,0,0,0,,,,,,,PARADE,HB,z,m,./images/PARADEHB.png,,,,,,,,,,,,,,,,,,,,,z,1,0.8156,,,,,,,,0,133,133,101,1
,,,,,,,,,,,,,,,,,5fb1a8aebe8dfa6c6cc3edbe,27,2022-02-12_10h46.58.339,lexical_decision_task_DD_L3,2021.2.3,MacIntel,60.0024001,,,,,,,,,,,0.887,1,,,,,,,,,,,,,,,,,,,,,,,,0.20855462,-0.342526584,0,0,0,,,,,,,PLANK,C,m,m,./images/PLANK.png,,,,,,,,,,,,,,,,,,,,,m,1,0.887,,,,,,,,0,134,134,1,1
,,,,,,,,,,,,,,,,,5fb1a8aebe8dfa6c6cc3edbe,27,2022-02-12_10h46.58.339,lexical_decision_task_DD_L3,2021.2.3,MacIntel,60.0024001,,,,,,,,,,,0.78,1,,,,,,,,,,,,,,,,,,,,,,,,0.20855462,-0.342526584,0,0,0,,,,,,,BLOKE,LB,z,m,./images/BLOKELB.png,,,,,,,,,,,,,,,,,,,,,z,1,0.78,,,,,,,,0,135,135,96,1
,,,,,,,,,,,,,,,,,5fb1a8aebe8dfa6c6cc3edbe,27,2022-02-12_10h46.58.339,lexical_decision_task_DD_L3,2021.2.3,MacIntel,60.0024001,,,,,,,,,,,0.9449,1,,,,,,,,,,,,,,,,,,,,,,,,0.20855462,-0.342526584,0,0,0,,,,,,,MEDAL,HB,z,m,./images/MEDALHB.png,,,,,,,,,,,,,,,,,,,,,z,1,0.9449,,,,,,,,0,136,136,95,1
