key_resp.keys,key_resp.rt,instr_done_touch.x,instr_done_touch.y,instr_done_touch.leftButton,instr_done_touch.midButton,instr_done_touch.rightButton,instruction_pages.thisRepN,instruction_pages.thisTrialN,instruction_pages.thisN,instruction_pages.thisIndex,instruction_pages.ran,pageN,phase,instruct_text,has_image,instruct_image,participant,age,date,expName,psychopyVersion,OS,frameRate,response.keys,response.corr,response.rt,touch_resp.x,touch_resp.y,touch_resp.leftButton,touch_resp.midButton,touch_resp.rightButton,touch_resp.time,touch_resp.clicked_name,rt,corr,practrials.thisRepN,practrials.thisTrialN,practrials.thisN,practrials.thisIndex,practrials.ran,TrialID,Target,corrAns,end_of_practice_trials_pages.thisRepN,end_of_practice_trials_pages.thisTrialN,end_of_practice_trials_pages.thisN,end_of_practice_trials_pages.thisIndex,end_of_practice_trials_pages.ran,key_resp_2.keys,key_resp_2.corr,key_resp_2.rt,targ_click.x,targ_click.y,targ_click.leftButton,targ_click.midButton,targ_click.rightButton,targ_click.time,targ_click.clicked_name,break_done_touch.x,break_done_touch.y,break_done_touch.leftButton,break_done_touch.midButton,break_done_touch.rightButton,break_done_keyboard.keys,maintrials.thisRepN,maintrials.thisTrialN,maintrials.thisN,maintrials.thisIndex,maintrials.ran,string,blur,study,lex,stim_path,break_done_keyboard.rt,mouse_2.x,mouse_2.y,mouse_2.leftButton,mouse_2.midButton,mouse_2.rightButton,mouse_2.clicked_name,slider.response,slider.rt,trials.thisRepN,trials.thisTrialN,trials.thisN,trials.thisIndex,trials.ran,test_instructions.thisRepN,test_instructions.thisTrialN,test_instructions.thisN,test_instructions.thisIndex,test_instructions.ran,instr_done_touch.clicked_name,key_resp_3.keys,key_resp_3.corr,key_resp_3.rt,test_click.x,test_click.y,test_click.leftButton,test_click.midButton,test_click.rightButton,test_click.time,test_click.clicked_name,test_phase.thisRepN,test_phase.thisTrialN,test_phase.thisN,test_phase.thisIndex,test_phase.ran
space,27.0083,0.121025391,0.038275553,0,0,0,0,0,0,0,1,1,instructions,"INSTRUCTIONS
At the start of each trial, look at the plus sign  (+) in the center of the screen.  This tells you that a trial is about to begin and where to look. Second, the plus sign will disappear and a string of letters will appear. Your task is to determine if the string of letters is a word or not. If the item is a word press the M key (on keyboard)  or touch the word button (phone/tablet).  If the item is not a word,  press the  Z key (on keyboard)  or touch the nonword button (on phone/tablet). 
Press the space bar or touch  continue.",0,,5fc7fb7982f3c510bb6e6b62,42,2022-02-12_12h48.02.611,lexical_decision_task_DD_L2,2021.2.3,MacIntel,60.0024001,,,,,,,,,,,,,,,,,,,,,,,,,,,,,,,,,,,,,,,,,,,,,,,,,,,,,,,,,,,,,,,,,,,,,,,,,,,,,,,,,,,,,,
space,6.1107,0.121025391,0.038275553,0,0,0,0,1,1,1,1,2,instructions,"If your device has a keyboard, press the 'Z' key for nonwords and the 'M' key for words.





Press the space bar or touch the button below to continue.",0,keyboard-example.gif,5fc7fb7982f3c510bb6e6b62,42,2022-02-12_12h48.02.611,lexical_decision_task_DD_L2,2021.2.3,MacIntel,60.0024001,,,,,,,,,,,,,,,,,,,,,,,,,,,,,,,,,,,,,,,,,,,,,,,,,,,,,,,,,,,,,,,,,,,,,,,,,,,,,,,,,,,,,,
space,8.5981,0.799982639,-0.031175944,0,0,0,0,2,2,2,1,3,instructions,"If you are using a touchscreen only device, use the buttons on the screen. Do not use the mouse.





Press the space bar or touch the button below to continue.",0,touchscreen-example.gif,5fc7fb7982f3c510bb6e6b62,42,2022-02-12_12h48.02.611,lexical_decision_task_DD_L2,2021.2.3,MacIntel,60.0024001,,,,,,,,,,,,,,,,,,,,,,,,,,,,,,,,,,,,,,,,,,,,,,,,,,,,,,,,,,,,,,,,,,,,,,,,,,,,,,,,,,,,,,
space,10.7223,0.799982639,-0.031175944,0,0,0,0,3,3,3,1,4,instructions,"It is very important that you respond as quickly and accurately as possible, as each letter string will only be on the screen for two seconds. If you do not respond within this time, the message 'Too slow!' will be displayed and the experiment will progress to the next letter string. The first 20 trials will be practice trials and you will receive feedback on your answers. 

Press the space bar or touch the button below to start the practice trials.",0,,5fc7fb7982f3c510bb6e6b62,42,2022-02-12_12h48.02.611,lexical_decision_task_DD_L2,2021.2.3,MacIntel,60.0024001,,,,,,,,,,,,,,,,,,,,,,,,,,,,,,,,,,,,,,,,,,,,,,,,,,,,,,,,,,,,,,,,,,,,,,,,,,,,,,,,,,,,,,
,,,,,,,,,,,,,,,,,5fc7fb7982f3c510bb6e6b62,42,2022-02-12_12h48.02.611,lexical_decision_task_DD_L2,2021.2.3,MacIntel,60.0024001,z,1,1.3292,,,,,,,,1.3292,1,0,0,0,12,1,1001,SPRINY,z,,,,,,,,,,,,,,,,,,,,,,,,,,,,,,,,,,,,,,,,,,,,,,,,,,,,,,,,,,,,,,,,,,
,,,,,,,,,,,,,,,,,5fc7fb7982f3c510bb6e6b62,42,2022-02-12_12h48.02.611,lexical_decision_task_DD_L2,2021.2.3,MacIntel,60.0024001,m,1,0.8382,,,,,,,,0.8382,1,0,1,1,0,1,1001,UTOPIA,m,,,,,,,,,,,,,,,,,,,,,,,,,,,,,,,,,,,,,,,,,,,,,,,,,,,,,,,,,,,,,,,,,,
,,,,,,,,,,,,,,,,,5fc7fb7982f3c510bb6e6b62,42,2022-02-12_12h48.02.611,lexical_decision_task_DD_L2,2021.2.3,MacIntel,60.0024001,m,1,0.8174,,,,,,,,0.8174,1,0,2,2,3,1,1001,MATRIX,m,,,,,,,,,,,,,,,,,,,,,,,,,,,,,,,,,,,,,,,,,,,,,,,,,,,,,,,,,,,,,,,,,,
,,,,,,,,,,,,,,,,,5fc7fb7982f3c510bb6e6b62,42,2022-02-12_12h48.02.611,lexical_decision_task_DD_L2,2021.2.3,MacIntel,60.0024001,z,1,0.6506,,,,,,,,0.6506,1,0,3,3,13,1,1001,ROUPET,z,,,,,,,,,,,,,,,,,,,,,,,,,,,,,,,,,,,,,,,,,,,,,,,,,,,,,,,,,,,,,,,,,,
,,,,,,,,,,,,,,,,,5fc7fb7982f3c510bb6e6b62,42,2022-02-12_12h48.02.611,lexical_decision_task_DD_L2,2021.2.3,MacIntel,60.0024001,m,1,0.6511,,,,,,,,0.6511,1,0,4,4,2,1,1001,ALMOND,m,,,,,,,,,,,,,,,,,,,,,,,,,,,,,,,,,,,,,,,,,,,,,,,,,,,,,,,,,,,,,,,,,,
,,,,,,,,,,,,,,,,,5fc7fb7982f3c510bb6e6b62,42,2022-02-12_12h48.02.611,lexical_decision_task_DD_L2,2021.2.3,MacIntel,60.0024001,z,1,0.7798,,,,,,,,0.7798,1,0,5,5,15,1,1001,WHAISE,z,,,,,,,,,,,,,,,,,,,,,,,,,,,,,,,,,,,,,,,,,,,,,,,,,,,,,,,,,,,,,,,,,,
,,,,,,,,,,,,,,,,,5fc7fb7982f3c510bb6e6b62,42,2022-02-12_12h48.02.611,lexical_decision_task_DD_L2,2021.2.3,MacIntel,60.0024001,m,1,0.7152,,,,,,,,0.7152,1,0,6,6,5,1,1001,OBTAIN,m,,,,,,,,,,,,,,,,,,,,,,,,,,,,,,,,,,,,,,,,,,,,,,,,,,,,,,,,,,,,,,,,,,
,,,,,,,,,,,,,,,,,5fc7fb7982f3c510bb6e6b62,42,2022-02-12_12h48.02.611,lexical_decision_task_DD_L2,2021.2.3,MacIntel,60.0024001,m,0,0.9521,,,,,,,,0.9521,0,0,7,7,10,1,1001,INLADE,z,,,,,,,,,,,,,,,,,,,,,,,,,,,,,,,,,,,,,,,,,,,,,,,,,,,,,,,,,,,,,,,,,,
,,,,,,,,,,,,,,,,,5fc7fb7982f3c510bb6e6b62,42,2022-02-12_12h48.02.611,lexical_decision_task_DD_L2,2021.2.3,MacIntel,60.0024001,m,1,0.8023,,,,,,,,0.8023,1,0,8,8,7,1,1001,VOLUME,m,,,,,,,,,,,,,,,,,,,,,,,,,,,,,,,,,,,,,,,,,,,,,,,,,,,,,,,,,,,,,,,,,,
,,,,,,,,,,,,,,,,,5fc7fb7982f3c510bb6e6b62,42,2022-02-12_12h48.02.611,lexical_decision_task_DD_L2,2021.2.3,MacIntel,60.0024001,z,1,0.7512,,,,,,,,0.7512,1,0,9,9,9,1,1001,FARINY,z,,,,,,,,,,,,,,,,,,,,,,,,,,,,,,,,,,,,,,,,,,,,,,,,,,,,,,,,,,,,,,,,,,
,,,,,,,,,,,,,,,,,5fc7fb7982f3c510bb6e6b62,42,2022-02-12_12h48.02.611,lexical_decision_task_DD_L2,2021.2.3,MacIntel,60.0024001,m,1,0.7293,,,,,,,,0.7293,1,0,10,10,1,1,1001,ADJUST,m,,,,,,,,,,,,,,,,,,,,,,,,,,,,,,,,,,,,,,,,,,,,,,,,,,,,,,,,,,,,,,,,,,
,,,,,,,,,,,,,,,,,5fc7fb7982f3c510bb6e6b62,42,2022-02-12_12h48.02.611,lexical_decision_task_DD_L2,2021.2.3,MacIntel,60.0024001,z,1,0.736,,,,,,,,0.736,1,0,11,11,11,1,1001,RASHET,z,,,,,,,,,,,,,,,,,,,,,,,,,,,,,,,,,,,,,,,,,,,,,,,,,,,,,,,,,,,,,,,,,,
,,,,,,,,,,,,,,,,,5fc7fb7982f3c510bb6e6b62,42,2022-02-12_12h48.02.611,lexical_decision_task_DD_L2,2021.2.3,MacIntel,60.0024001,m,1,0.6179,,,,,,,,0.6179,1,0,12,12,4,1,1001,SQUEAK,m,,,,,,,,,,,,,,,,,,,,,,,,,,,,,,,,,,,,,,,,,,,,,,,,,,,,,,,,,,,,,,,,,,
,,,,,,,,,,,,,,,,,5fc7fb7982f3c510bb6e6b62,42,2022-02-12_12h48.02.611,lexical_decision_task_DD_L2,2021.2.3,MacIntel,60.0024001,z,1,0.7986,,,,,,,,0.7986,1,0,13,13,14,1,1001,THRALE,z,,,,,,,,,,,,,,,,,,,,,,,,,,,,,,,,,,,,,,,,,,,,,,,,,,,,,,,,,,,,,,,,,,
,,,,,,,,,,,,,,,,,5fc7fb7982f3c510bb6e6b62,42,2022-02-12_12h48.02.611,lexical_decision_task_DD_L2,2021.2.3,MacIntel,60.0024001,m,1,0.7022,,,,,,,,0.7022,1,0,14,14,6,1,1001,ZOMBIE,m,,,,,,,,,,,,,,,,,,,,,,,,,,,,,,,,,,,,,,,,,,,,,,,,,,,,,,,,,,,,,,,,,,
,,,,,,,,,,,,,,,,,5fc7fb7982f3c510bb6e6b62,42,2022-02-12_12h48.02.611,lexical_decision_task_DD_L2,2021.2.3,MacIntel,60.0024001,z,1,0.6731,,,,,,,,0.6731,1,0,15,15,8,1,1001,ASLERT,z,,,,,,,,,,,,,,,,,,,,,,,,,,,,,,,,,,,,,,,,,,,,,,,,,,,,,,,,,,,,,,,,,,
space,8.4458,0.799982639,-0.031175944,0,0,0,,,,,,1,end_of_practice,"You have completed the practice trials. During the experimental trials, you will not receive feedback. 
Before you begin, please ensure that you are in a comfortable and quiet location and will not be disturbed for about 15 minutes, as we cannot use your data if you do not complete all the trials. 
 When you are ready to start the experimental trials, please press space or touch the button below.",,,5fc7fb7982f3c510bb6e6b62,42,2022-02-12_12h48.02.611,lexical_decision_task_DD_L2,2021.2.3,MacIntel,60.0024001,,,,,,,,,,,,,,,,,,,,,0,0,0,0,1,,,,,,,,,,,,,,,,,,,,,,,,,,,,,,,,,,,,,,,,,,,,,,,,,,,,,,,,,,,,,
,,,,,,,,,,,,,,,,,5fc7fb7982f3c510bb6e6b62,42,2022-02-12_12h48.02.611,lexical_decision_task_DD_L2,2021.2.3,MacIntel,60.0024001,,,,,,,,,,,1.9448,0,,,,,,,,,,,,,,z,0,1.9448,,,,,,,,0.799982639,-0.031175944,0,0,0,,0,0,0,33,1,MAGGOT,HB,old,m,./images/MAGGOTHB.png,,,,,,,,,,,,,,,,,,,,,,,,,,,,,,,,,,,
,,,,,,,,,,,,,,,,,5fc7fb7982f3c510bb6e6b62,42,2022-02-12_12h48.02.611,lexical_decision_task_DD_L2,2021.2.3,MacIntel,60.0024001,,,,,,,,,,,1.7203,0,,,,,,,,,,,,,,m,0,1.7203,,,,,,,,0.799982639,-0.031175944,0,0,0,,0,1,1,106,1,CLUMS,HB,old,z,./images/CLUMSHB.png,,,,,,,,,,,,,,,,,,,,,,,,,,,,,,,,,,,
,,,,,,,,,,,,,,,,,5fc7fb7982f3c510bb6e6b62,42,2022-02-12_12h48.02.611,lexical_decision_task_DD_L2,2021.2.3,MacIntel,60.0024001,,,,,,,,,,,1.718,1,,,,,,,,,,,,,,z,1,1.718,,,,,,,,0.799982639,-0.031175944,0,0,0,,0,2,2,160,1,VEETS,HB,old,z,./images/VEETSHB.png,,,,,,,,,,,,,,,,,,,,,,,,,,,,,,,,,,,
,,,,,,,,,,,,,,,,,5fc7fb7982f3c510bb6e6b62,42,2022-02-12_12h48.02.611,lexical_decision_task_DD_L2,2021.2.3,MacIntel,60.0024001,,,,,,,,,,,1.0281,1,,,,,,,,,,,,,,m,1,1.0281,,,,,,,,0.799982639,-0.031175944,0,0,0,,0,3,3,77,1,COUCH,C,old,m,./images/COUCH.png,,,,,,,,,,,,,,,,,,,,,,,,,,,,,,,,,,,
,,,,,,,,,,,,,,,,,5fc7fb7982f3c510bb6e6b62,42,2022-02-12_12h48.02.611,lexical_decision_task_DD_L2,2021.2.3,MacIntel,60.0024001,,,,,,,,,,,1.8717,1,,,,,,,,,,,,,,z,1,1.8717,,,,,,,,0.799982639,-0.031175944,0,0,0,,0,4,4,112,1,MYING,HB,old,z,./images/MYINGHB.png,,,,,,,,,,,,,,,,,,,,,,,,,,,,,,,,,,,
,,,,,,,,,,,,,,,,,5fc7fb7982f3c510bb6e6b62,42,2022-02-12_12h48.02.611,lexical_decision_task_DD_L2,2021.2.3,MacIntel,60.0024001,,,,,,,,,,,1.3197,0,,,,,,,,,,,,,,m,0,1.3197,,,,,,,,0.799982639,-0.031175944,0,0,0,,0,5,5,130,1,CRILL,HB,old,z,./images/CRILLHB.png,,,,,,,,,,,,,,,,,,,,,,,,,,,,,,,,,,,
,,,,,,,,,,,,,,,,,5fc7fb7982f3c510bb6e6b62,42,2022-02-12_12h48.02.611,lexical_decision_task_DD_L2,2021.2.3,MacIntel,60.0024001,,,,,,,,,,,0.8306,1,,,,,,,,,,,,,,m,1,0.8306,,,,,,,,0.799982639,-0.031175944,0,0,0,,0,6,6,42,1,FOLDER,HB,old,m,./images/FOLDERHB.png,,,,,,,,,,,,,,,,,,,,,,,,,,,,,,,,,,,
,,,,,,,,,,,,,,,,,5fc7fb7982f3c510bb6e6b62,42,2022-02-12_12h48.02.611,lexical_decision_task_DD_L2,2021.2.3,MacIntel,60.0024001,,,,,,,,,,,1.0173,1,,,,,,,,,,,,,,z,1,1.0173,,,,,,,,0.799982639,-0.031175944,0,0,0,,0,7,7,140,1,DOVET,LB,old,z,./images/DOVETLB.png,,,,,,,,,,,,,,,,,,,,,,,,,,,,,,,,,,,
,,,,,,,,,,,,,,,,,5fc7fb7982f3c510bb6e6b62,42,2022-02-12_12h48.02.611,lexical_decision_task_DD_L2,2021.2.3,MacIntel,60.0024001,,,,,,,,,,,1.1629,1,,,,,,,,,,,,,,z,1,1.1629,,,,,,,,0.799982639,-0.031175944,0,0,0,,0,8,8,139,1,BLEAR,HB,old,z,./images/BLEARHB.png,,,,,,,,,,,,,,,,,,,,,,,,,,,,,,,,,,,
,,,,,,,,,,,,,,,,,5fc7fb7982f3c510bb6e6b62,42,2022-02-12_12h48.02.611,lexical_decision_task_DD_L2,2021.2.3,MacIntel,60.0024001,,,,,,,,,,,0.7152,1,,,,,,,,,,,,,,m,1,0.7152,,,,,,,,0.799982639,-0.031175944,0,0,0,,0,9,9,83,1,JUNGLE,C,old,m,./images/JUNGLE.png,,,,,,,,,,,,,,,,,,,,,,,,,,,,,,,,,,,
,,,,,,,,,,,,,,,,,5fc7fb7982f3c510bb6e6b62,42,2022-02-12_12h48.02.611,lexical_decision_task_DD_L2,2021.2.3,MacIntel,60.0024001,,,,,,,,,,,0.8167,1,,,,,,,,,,,,,,z,1,0.8167,,,,,,,,0.799982639,-0.031175944,0,0,0,,0,10,10,119,1,PAFER,LB,old,z,./images/PAFERLB.png,,,,,,,,,,,,,,,,,,,,,,,,,,,,,,,,,,,
,,,,,,,,,,,,,,,,,5fc7fb7982f3c510bb6e6b62,42,2022-02-12_12h48.02.611,lexical_decision_task_DD_L2,2021.2.3,MacIntel,60.0024001,,,,,,,,,,,1.0988,1,,,,,,,,,,,,,,z,1,1.0988,,,,,,,,0.799982639,-0.031175944,0,0,0,,0,11,11,125,1,MOOKY,LB,old,z,./images/MOOKYLB.png,,,,,,,,,,,,,,,,,,,,,,,,,,,,,,,,,,,
,,,,,,,,,,,,,,,,,5fc7fb7982f3c510bb6e6b62,42,2022-02-12_12h48.02.611,lexical_decision_task_DD_L2,2021.2.3,MacIntel,60.0024001,,,,,,,,,,,0.5974,1,,,,,,,,,,,,,,m,1,0.5974,,,,,,,,0.799982639,-0.031175944,0,0,0,,0,12,12,44,1,LIZARD,C,old,m,./images/LIZARD.png,,,,,,,,,,,,,,,,,,,,,,,,,,,,,,,,,,,
,,,,,,,,,,,,,,,,,5fc7fb7982f3c510bb6e6b62,42,2022-02-12_12h48.02.611,lexical_decision_task_DD_L2,2021.2.3,MacIntel,60.0024001,,,,,,,,,,,0.7313,1,,,,,,,,,,,,,,m,1,0.7313,,,,,,,,0.799982639,-0.031175944,0,0,0,,0,13,13,8,1,TULIP,C,old,m,./images/TULIP.png,,,,,,,,,,,,,,,,,,,,,,,,,,,,,,,,,,,
,,,,,,,,,,,,,,,,,5fc7fb7982f3c510bb6e6b62,42,2022-02-12_12h48.02.611,lexical_decision_task_DD_L2,2021.2.3,MacIntel,60.0024001,,,,,,,,,,,0.6962,1,,,,,,,,,,,,,,z,1,0.6962,,,,,,,,0.799982639,-0.031175944,0,0,0,,0,14,14,89,1,DRIEK,LB,old,z,./images/DRIEKLB.png,,,,,,,,,,,,,,,,,,,,,,,,,,,,,,,,,,,
,,,,,,,,,,,,,,,,,5fc7fb7982f3c510bb6e6b62,42,2022-02-12_12h48.02.611,lexical_decision_task_DD_L2,2021.2.3,MacIntel,60.0024001,,,,,,,,,,,0.6815,1,,,,,,,,,,,,,,m,1,0.6815,,,,,,,,0.799982639,-0.031175944,0,0,0,,0,15,15,36,1,THROAT,HB,old,m,./images/THROATHB.png,,,,,,,,,,,,,,,,,,,,,,,,,,,,,,,,,,,
,,,,,,,,,,,,,,,,,5fc7fb7982f3c510bb6e6b62,42,2022-02-12_12h48.02.611,lexical_decision_task_DD_L2,2021.2.3,MacIntel,60.0024001,,,,,,,,,,,0.7002,1,,,,,,,,,,,,,,z,1,0.7002,,,,,,,,0.799982639,-0.031175944,0,0,0,,0,16,16,134,1,TROSS,LB,old,z,./images/TROSSLB.png,,,,,,,,,,,,,,,,,,,,,,,,,,,,,,,,,,,
,,,,,,,,,,,,,,,,,5fc7fb7982f3c510bb6e6b62,42,2022-02-12_12h48.02.611,lexical_decision_task_DD_L2,2021.2.3,MacIntel,60.0024001,,,,,,,,,,,0.7315,1,,,,,,,,,,,,,,m,1,0.7315,,,,,,,,0.799982639,-0.031175944,0,0,0,,0,17,17,52,1,BANNER,LB,old,m,./images/BANNERLB.png,,,,,,,,,,,,,,,,,,,,,,,,,,,,,,,,,,,
,,,,,,,,,,,,,,,,,5fc7fb7982f3c510bb6e6b62,42,2022-02-12_12h48.02.611,lexical_decision_task_DD_L2,2021.2.3,MacIntel,60.0024001,,,,,,,,,,,0.833,1,,,,,,,,,,,,,,z,1,0.833,,,,,,,,0.799982639,-0.031175944,0,0,0,,0,18,18,142,1,PLASK,HB,old,z,./images/PLASKHB.png,,,,,,,,,,,,,,,,,,,,,,,,,,,,,,,,,,,
,,,,,,,,,,,,,,,,,5fc7fb7982f3c510bb6e6b62,42,2022-02-12_12h48.02.611,lexical_decision_task_DD_L2,2021.2.3,MacIntel,60.0024001,,,,,,,,,,,0.7619,1,,,,,,,,,,,,,,z,1,0.7619,,,,,,,,0.799982639,-0.031175944,0,0,0,,0,19,19,152,1,FRAIN,LB,old,z,./images/FRAINLB.png,,,,,,,,,,,,,,,,,,,,,,,,,,,,,,,,,,,
,,,,,,,,,,,,,,,,,5fc7fb7982f3c510bb6e6b62,42,2022-02-12_12h48.02.611,lexical_decision_task_DD_L2,2021.2.3,MacIntel,60.0024001,,,,,,,,,,,0.8652,1,,,,,,,,,,,,,,z,1,0.8652,,,,,,,,0.799982639,-0.031175944,0,0,0,,0,20,20,141,1,PLEET,C,old,z,./images/PLEET.png,,,,,,,,,,,,,,,,,,,,,,,,,,,,,,,,,,,
,,,,,,,,,,,,,,,,,5fc7fb7982f3c510bb6e6b62,42,2022-02-12_12h48.02.611,lexical_decision_task_DD_L2,2021.2.3,MacIntel,60.0024001,,,,,,,,,,,0.702,1,,,,,,,,,,,,,,m,1,0.702,,,,,,,,0.799982639,-0.031175944,0,0,0,,0,21,21,12,1,SHORE,HB,old,m,./images/SHOREHB.png,,,,,,,,,,,,,,,,,,,,,,,,,,,,,,,,,,,
,,,,,,,,,,,,,,,,,5fc7fb7982f3c510bb6e6b62,42,2022-02-12_12h48.02.611,lexical_decision_task_DD_L2,2021.2.3,MacIntel,60.0024001,,,,,,,,,,,0.8956,1,,,,,,,,,,,,,,z,1,0.8956,,,,,,,,0.799982639,-0.031175944,0,0,0,,0,22,22,126,1,GUELS,C,old,z,./images/GUELS.png,,,,,,,,,,,,,,,,,,,,,,,,,,,,,,,,,,,
,,,,,,,,,,,,,,,,,5fc7fb7982f3c510bb6e6b62,42,2022-02-12_12h48.02.611,lexical_decision_task_DD_L2,2021.2.3,MacIntel,60.0024001,,,,,,,,,,,1.0794,1,,,,,,,,,,,,,,z,1,1.0794,,,,,,,,0.799982639,-0.031175944,0,0,0,,0,23,23,163,1,GAMBA,HB,old,z,./images/GAMBAHB.png,,,,,,,,,,,,,,,,,,,,,,,,,,,,,,,,,,,
,,,,,,,,,,,,,,,,,5fc7fb7982f3c510bb6e6b62,42,2022-02-12_12h48.02.611,lexical_decision_task_DD_L2,2021.2.3,MacIntel,60.0024001,,,,,,,,,,,0.6401,1,,,,,,,,,,,,,,m,1,0.6401,,,,,,,,0.799982639,-0.031175944,0,0,0,,0,24,24,62,1,PURSE,C,old,m,./images/PURSE.png,,,,,,,,,,,,,,,,,,,,,,,,,,,,,,,,,,,
,,,,,,,,,,,,,,,,,5fc7fb7982f3c510bb6e6b62,42,2022-02-12_12h48.02.611,lexical_decision_task_DD_L2,2021.2.3,MacIntel,60.0024001,,,,,,,,,,,0.7686,1,,,,,,,,,,,,,,m,1,0.7686,,,,,,,,0.799982639,-0.031175944,0,0,0,,0,25,25,28,1,FALCON,LB,old,m,./images/FALCONLB.png,,,,,,,,,,,,,,,,,,,,,,,,,,,,,,,,,,,
,,,,,,,,,,,,,,,,,5fc7fb7982f3c510bb6e6b62,42,2022-02-12_12h48.02.611,lexical_decision_task_DD_L2,2021.2.3,MacIntel,60.0024001,,,,,,,,,,,0.6089,1,,,,,,,,,,,,,,m,1,0.6089,,,,,,,,0.799982639,-0.031175944,0,0,0,,0,26,26,35,1,PEACH,C,old,m,./images/PEACH.png,,,,,,,,,,,,,,,,,,,,,,,,,,,,,,,,,,,
,,,,,,,,,,,,,,,,,5fc7fb7982f3c510bb6e6b62,42,2022-02-12_12h48.02.611,lexical_decision_task_DD_L2,2021.2.3,MacIntel,60.0024001,,,,,,,,,,,0.778,1,,,,,,,,,,,,,,z,1,0.778,,,,,,,,0.799982639,-0.031175944,0,0,0,,0,27,27,151,1,TINKY,HB,old,z,./images/TINKYHB.png,,,,,,,,,,,,,,,,,,,,,,,,,,,,,,,,,,,
,,,,,,,,,,,,,,,,,5fc7fb7982f3c510bb6e6b62,42,2022-02-12_12h48.02.611,lexical_decision_task_DD_L2,2021.2.3,MacIntel,60.0024001,,,,,,,,,,,1.0141,1,,,,,,,,,,,,,,z,1,1.0141,,,,,,,,0.799982639,-0.031175944,0,0,0,,0,28,28,167,1,ZONET,LB,old,z,./images/ZONETLB.png,,,,,,,,,,,,,,,,,,,,,,,,,,,,,,,,,,,
,,,,,,,,,,,,,,,,,5fc7fb7982f3c510bb6e6b62,42,2022-02-12_12h48.02.611,lexical_decision_task_DD_L2,2021.2.3,MacIntel,60.0024001,,,,,,,,,,,0.8875,1,,,,,,,,,,,,,,z,1,0.8875,,,,,,,,0.799982639,-0.031175944,0,0,0,,0,29,29,136,1,WERVE,HB,old,z,./images/WERVEHB.png,,,,,,,,,,,,,,,,,,,,,,,,,,,,,,,,,,,
,,,,,,,,,,,,,,,,,5fc7fb7982f3c510bb6e6b62,42,2022-02-12_12h48.02.611,lexical_decision_task_DD_L2,2021.2.3,MacIntel,60.0024001,,,,,,,,,,,1.1149,1,,,,,,,,,,,,,,z,1,1.1149,,,,,,,,0.799982639,-0.031175944,0,0,0,,0,30,30,94,1,BLANS,HB,old,z,./images/BLANSHB.png,,,,,,,,,,,,,,,,,,,,,,,,,,,,,,,,,,,
,,,,,,,,,,,,,,,,,5fc7fb7982f3c510bb6e6b62,42,2022-02-12_12h48.02.611,lexical_decision_task_DD_L2,2021.2.3,MacIntel,60.0024001,,,,,,,,,,,0.8139,1,,,,,,,,,,,,,,z,1,0.8139,,,,,,,,0.799982639,-0.031175944,0,0,0,,0,31,31,114,1,RIKES,C,old,z,./images/RIKES.png,,,,,,,,,,,,,,,,,,,,,,,,,,,,,,,,,,,
,,,,,,,,,,,,,,,,,5fc7fb7982f3c510bb6e6b62,42,2022-02-12_12h48.02.611,lexical_decision_task_DD_L2,2021.2.3,MacIntel,60.0024001,,,,,,,,,,,0.6208,1,,,,,,,,,,,,,,m,1,0.6208,,,,,,,,0.799982639,-0.031175944,0,0,0,,0,32,32,48,1,SPORT,HB,old,m,./images/SPORTHB.png,,,,,,,,,,,,,,,,,,,,,,,,,,,,,,,,,,,
,,,,,,,,,,,,,,,,,5fc7fb7982f3c510bb6e6b62,42,2022-02-12_12h48.02.611,lexical_decision_task_DD_L2,2021.2.3,MacIntel,60.0024001,,,,,,,,,,,0.8975,1,,,,,,,,,,,,,,z,1,0.8975,,,,,,,,0.799982639,-0.031175944,0,0,0,,0,33,33,147,1,ZOLES,C,old,z,./images/ZOLES.png,,,,,,,,,,,,,,,,,,,,,,,,,,,,,,,,,,,
,,,,,,,,,,,,,,,,,5fc7fb7982f3c510bb6e6b62,42,2022-02-12_12h48.02.611,lexical_decision_task_DD_L2,2021.2.3,MacIntel,60.0024001,,,,,,,,,,,0.8343,1,,,,,,,,,,,,,,m,1,0.8343,,,,,,,,0.799982639,-0.031175944,0,0,0,,0,34,34,39,1,SHELF,HB,old,m,./images/SHELFHB.png,,,,,,,,,,,,,,,,,,,,,,,,,,,,,,,,,,,
,,,,,,,,,,,,,,,,,5fc7fb7982f3c510bb6e6b62,42,2022-02-12_12h48.02.611,lexical_decision_task_DD_L2,2021.2.3,MacIntel,60.0024001,,,,,,,,,,,0.8788,1,,,,,,,,,,,,,,z,1,0.8788,,,,,,,,0.799982639,-0.031175944,0,0,0,,0,35,35,159,1,CUDDY,C,old,z,./images/CUDDY.png,,,,,,,,,,,,,,,,,,,,,,,,,,,,,,,,,,,
,,,,,,,,,,,,,,,,,5fc7fb7982f3c510bb6e6b62,42,2022-02-12_12h48.02.611,lexical_decision_task_DD_L2,2021.2.3,MacIntel,60.0024001,,,,,,,,,,,0.549,1,,,,,,,,,,,,,,m,1,0.549,,,,,,,,0.799982639,-0.031175944,0,0,0,,0,36,36,74,1,CEMENT,C,old,m,./images/CEMENT.png,,,,,,,,,,,,,,,,,,,,,,,,,,,,,,,,,,,
,,,,,,,,,,,,,,,,,5fc7fb7982f3c510bb6e6b62,42,2022-02-12_12h48.02.611,lexical_decision_task_DD_L2,2021.2.3,MacIntel,60.0024001,,,,,,,,,,,0.7165,1,,,,,,,,,,,,,,m,1,0.7165,,,,,,,,0.799982639,-0.031175944,0,0,0,,0,37,37,60,1,TWINS,HB,old,m,./images/TWINSHB.png,,,,,,,,,,,,,,,,,,,,,,,,,,,,,,,,,,,
,,,,,,,,,,,,,,,,,5fc7fb7982f3c510bb6e6b62,42,2022-02-12_12h48.02.611,lexical_decision_task_DD_L2,2021.2.3,MacIntel,60.0024001,,,,,,,,,,,0.637,1,,,,,,,,,,,,,,z,1,0.637,,,,,,,,0.799982639,-0.031175944,0,0,0,,0,38,38,121,1,CEERS,HB,old,z,./images/CEERSHB.png,,,,,,,,,,,,,,,,,,,,,,,,,,,,,,,,,,,
,,,,,,,,,,,,,,,,,5fc7fb7982f3c510bb6e6b62,42,2022-02-12_12h48.02.611,lexical_decision_task_DD_L2,2021.2.3,MacIntel,60.0024001,,,,,,,,,,,0.9325,1,,,,,,,,,,,,,,z,1,0.9325,,,,,,,,0.799982639,-0.031175944,0,0,0,,0,39,39,133,1,POWDY,HB,old,z,./images/POWDYHB.png,,,,,,,,,,,,,,,,,,,,,,,,,,,,,,,,,,,
,,,,,,,,,,,,,,,,,5fc7fb7982f3c510bb6e6b62,42,2022-02-12_12h48.02.611,lexical_decision_task_DD_L2,2021.2.3,MacIntel,60.0024001,,,,,,,,,,,0.9448,1,,,,,,,,,,,,,,z,1,0.9448,,,,,,,,0.799982639,-0.031175944,0,0,0,,0,40,40,88,1,GLUSH,HB,old,z,./images/GLUSHHB.png,,,,,,,,,,,,,,,,,,,,,,,,,,,,,,,,,,,
,,,,,,,,,,,,,,,,,5fc7fb7982f3c510bb6e6b62,42,2022-02-12_12h48.02.611,lexical_decision_task_DD_L2,2021.2.3,MacIntel,60.0024001,,,,,,,,,,,0.7975,1,,,,,,,,,,,,,,z,1,0.7975,,,,,,,,0.799982639,-0.031175944,0,0,0,space,0,41,41,93,1,SMONE,C,old,z,./images/SMONE.png,16.1013,,,,,,,,,,,,,,,,,,,,,,,,,,,,,,,,,,
,,,,,,,,,,,,,,,,,5fc7fb7982f3c510bb6e6b62,42,2022-02-12_12h48.02.611,lexical_decision_task_DD_L2,2021.2.3,MacIntel,60.0024001,,,,,,,,,,,0.5925,1,,,,,,,,,,,,,,z,1,0.5925,,,,,,,,0.799982639,-0.031175944,0,0,0,,0,42,42,150,1,NOOLS,C,old,z,./images/NOOLS.png,,,,,,,,,,,,,,,,,,,,,,,,,,,,,,,,,,,
,,,,,,,,,,,,,,,,,5fc7fb7982f3c510bb6e6b62,42,2022-02-12_12h48.02.611,lexical_decision_task_DD_L2,2021.2.3,MacIntel,60.0024001,,,,,,,,,,,0.6961,1,,,,,,,,,,,,,,z,1,0.6961,,,,,,,,0.799982639,-0.031175944,0,0,0,,0,43,43,165,1,TROWN,C,old,z,./images/TROWN.png,,,,,,,,,,,,,,,,,,,,,,,,,,,,,,,,,,,
,,,,,,,,,,,,,,,,,5fc7fb7982f3c510bb6e6b62,42,2022-02-12_12h48.02.611,lexical_decision_task_DD_L2,2021.2.3,MacIntel,60.0024001,,,,,,,,,,,1.0022,0,,,,,,,,,,,,,,z,0,1.0022,,,,,,,,0.799982639,-0.031175944,0,0,0,,0,44,44,16,1,PENCE,LB,old,m,./images/PENCELB.png,,,,,,,,,,,,,,,,,,,,,,,,,,,,,,,,,,,
,,,,,,,,,,,,,,,,,5fc7fb7982f3c510bb6e6b62,42,2022-02-12_12h48.02.611,lexical_decision_task_DD_L2,2021.2.3,MacIntel,60.0024001,,,,,,,,,,,0.6824,1,,,,,,,,,,,,,,z,1,0.6824,,,,,,,,0.799982639,-0.031175944,0,0,0,,0,45,45,158,1,EGECT,LB,old,z,./images/EGECTLB.png,,,,,,,,,,,,,,,,,,,,,,,,,,,,,,,,,,,
,,,,,,,,,,,,,,,,,5fc7fb7982f3c510bb6e6b62,42,2022-02-12_12h48.02.611,lexical_decision_task_DD_L2,2021.2.3,MacIntel,60.0024001,,,,,,,,,,,0.7906,1,,,,,,,,,,,,,,m,1,0.7906,,,,,,,,0.799982639,-0.031175944,0,0,0,,0,46,46,32,1,BARREL,C,old,m,./images/BARREL.png,,,,,,,,,,,,,,,,,,,,,,,,,,,,,,,,,,,
,,,,,,,,,,,,,,,,,5fc7fb7982f3c510bb6e6b62,42,2022-02-12_12h48.02.611,lexical_decision_task_DD_L2,2021.2.3,MacIntel,60.0024001,,,,,,,,,,,0.7014,1,,,,,,,,,,,,,,m,1,0.7014,,,,,,,,0.799982639,-0.031175944,0,0,0,,0,47,47,34,1,CANYON,LB,old,m,./images/CANYONLB.png,,,,,,,,,,,,,,,,,,,,,,,,,,,,,,,,,,,
,,,,,,,,,,,,,,,,,5fc7fb7982f3c510bb6e6b62,42,2022-02-12_12h48.02.611,lexical_decision_task_DD_L2,2021.2.3,MacIntel,60.0024001,,,,,,,,,,,1.3664,1,,,,,,,,,,,,,,z,1,1.3664,,,,,,,,0.799982639,-0.031175944,0,0,0,,0,48,48,166,1,SHORY,HB,old,z,./images/SHORYHB.png,,,,,,,,,,,,,,,,,,,,,,,,,,,,,,,,,,,
,,,,,,,,,,,,,,,,,5fc7fb7982f3c510bb6e6b62,42,2022-02-12_12h48.02.611,lexical_decision_task_DD_L2,2021.2.3,MacIntel,60.0024001,,,,,,,,,,,0.7306,1,,,,,,,,,,,,,,m,1,0.7306,,,,,,,,0.799982639,-0.031175944,0,0,0,,0,49,49,24,1,SCREW,HB,old,m,./images/SCREWHB.png,,,,,,,,,,,,,,,,,,,,,,,,,,,,,,,,,,,
,,,,,,,,,,,,,,,,,5fc7fb7982f3c510bb6e6b62,42,2022-02-12_12h48.02.611,lexical_decision_task_DD_L2,2021.2.3,MacIntel,60.0024001,,,,,,,,,,,0.628,1,,,,,,,,,,,,,,m,1,0.628,,,,,,,,0.799982639,-0.031175944,0,0,0,,0,50,50,59,1,BURIAL,C,old,m,./images/BURIAL.png,,,,,,,,,,,,,,,,,,,,,,,,,,,,,,,,,,,
,,,,,,,,,,,,,,,,,5fc7fb7982f3c510bb6e6b62,42,2022-02-12_12h48.02.611,lexical_decision_task_DD_L2,2021.2.3,MacIntel,60.0024001,,,,,,,,,,,0.6676,1,,,,,,,,,,,,,,z,1,0.6676,,,,,,,,0.799982639,-0.031175944,0,0,0,,0,51,51,113,1,LINEW,LB,old,z,./images/LINEWLB.png,,,,,,,,,,,,,,,,,,,,,,,,,,,,,,,,,,,
,,,,,,,,,,,,,,,,,5fc7fb7982f3c510bb6e6b62,42,2022-02-12_12h48.02.611,lexical_decision_task_DD_L2,2021.2.3,MacIntel,60.0024001,,,,,,,,,,,0.7834,1,,,,,,,,,,,,,,m,1,0.7834,,,,,,,,0.799982639,-0.031175944,0,0,0,,0,52,52,13,1,MOTOR,LB,old,m,./images/MOTORLB.png,,,,,,,,,,,,,,,,,,,,,,,,,,,,,,,,,,,
,,,,,,,,,,,,,,,,,5fc7fb7982f3c510bb6e6b62,42,2022-02-12_12h48.02.611,lexical_decision_task_DD_L2,2021.2.3,MacIntel,60.0024001,,,,,,,,,,,0.8466,1,,,,,,,,,,,,,,z,1,0.8466,,,,,,,,0.799982639,-0.031175944,0,0,0,,0,53,53,154,1,THINT,HB,old,z,./images/THINTHB.png,,,,,,,,,,,,,,,,,,,,,,,,,,,,,,,,,,,
,,,,,,,,,,,,,,,,,5fc7fb7982f3c510bb6e6b62,42,2022-02-12_12h48.02.611,lexical_decision_task_DD_L2,2021.2.3,MacIntel,60.0024001,,,,,,,,,,,0.6797,1,,,,,,,,,,,,,,m,1,0.6797,,,,,,,,0.799982639,-0.031175944,0,0,0,,0,54,54,64,1,JELLY,LB,old,m,./images/JELLYLB.png,,,,,,,,,,,,,,,,,,,,,,,,,,,,,,,,,,,
,,,,,,,,,,,,,,,,,5fc7fb7982f3c510bb6e6b62,42,2022-02-12_12h48.02.611,lexical_decision_task_DD_L2,2021.2.3,MacIntel,60.0024001,,,,,,,,,,,0.9237,1,,,,,,,,,,,,,,z,1,0.9237,,,,,,,,0.799982639,-0.031175944,0,0,0,,0,55,55,111,1,HOSSE,C,old,z,./images/HOSSE.png,,,,,,,,,,,,,,,,,,,,,,,,,,,,,,,,,,,
,,,,,,,,,,,,,,,,,5fc7fb7982f3c510bb6e6b62,42,2022-02-12_12h48.02.611,lexical_decision_task_DD_L2,2021.2.3,MacIntel,60.0024001,,,,,,,,,,,0.7262,1,,,,,,,,,,,,,,m,1,0.7262,,,,,,,,0.799982639,-0.031175944,0,0,0,,0,56,56,82,1,SUNSET,LB,old,m,./images/SUNSETLB.png,,,,,,,,,,,,,,,,,,,,,,,,,,,,,,,,,,,
,,,,,,,,,,,,,,,,,5fc7fb7982f3c510bb6e6b62,42,2022-02-12_12h48.02.611,lexical_decision_task_DD_L2,2021.2.3,MacIntel,60.0024001,,,,,,,,,,,0.7669,1,,,,,,,,,,,,,,z,1,0.7669,,,,,,,,0.799982639,-0.031175944,0,0,0,,0,57,57,145,1,LAMEL,HB,old,z,./images/LAMELHB.png,,,,,,,,,,,,,,,,,,,,,,,,,,,,,,,,,,,
,,,,,,,,,,,,,,,,,5fc7fb7982f3c510bb6e6b62,42,2022-02-12_12h48.02.611,lexical_decision_task_DD_L2,2021.2.3,MacIntel,60.0024001,,,,,,,,,,,0.6059,1,,,,,,,,,,,,,,m,1,0.6059,,,,,,,,0.799982639,-0.031175944,0,0,0,,0,58,58,20,1,CRADLE,C,old,m,./images/CRADLE.png,,,,,,,,,,,,,,,,,,,,,,,,,,,,,,,,,,,
,,,,,,,,,,,,,,,,,5fc7fb7982f3c510bb6e6b62,42,2022-02-12_12h48.02.611,lexical_decision_task_DD_L2,2021.2.3,MacIntel,60.0024001,,,,,,,,,,,0.7319,1,,,,,,,,,,,,,,z,1,0.7319,,,,,,,,0.799982639,-0.031175944,0,0,0,,0,59,59,84,1,HAXES,C,old,z,./images/HAXES.png,,,,,,,,,,,,,,,,,,,,,,,,,,,,,,,,,,,
,,,,,,,,,,,,,,,,,5fc7fb7982f3c510bb6e6b62,42,2022-02-12_12h48.02.611,lexical_decision_task_DD_L2,2021.2.3,MacIntel,60.0024001,,,,,,,,,,,0.5426,1,,,,,,,,,,,,,,m,1,0.5426,,,,,,,,0.799982639,-0.031175944,0,0,0,,0,60,60,26,1,SMOKER,C,old,m,./images/SMOKER.png,,,,,,,,,,,,,,,,,,,,,,,,,,,,,,,,,,,
,,,,,,,,,,,,,,,,,5fc7fb7982f3c510bb6e6b62,42,2022-02-12_12h48.02.611,lexical_decision_task_DD_L2,2021.2.3,MacIntel,60.0024001,,,,,,,,,,,1.1649,1,,,,,,,,,,,,,,z,1,1.1649,,,,,,,,0.799982639,-0.031175944,0,0,0,,0,61,61,85,1,CHULK,HB,old,z,./images/CHULKHB.png,,,,,,,,,,,,,,,,,,,,,,,,,,,,,,,,,,,
,,,,,,,,,,,,,,,,,5fc7fb7982f3c510bb6e6b62,42,2022-02-12_12h48.02.611,lexical_decision_task_DD_L2,2021.2.3,MacIntel,60.0024001,,,,,,,,,,,0.7816,0,,,,,,,,,,,,,,z,0,0.7816,,,,,,,,0.799982639,-0.031175944,0,0,0,,0,62,62,7,1,PAINT,LB,old,m,./images/PAINTLB.png,,,,,,,,,,,,,,,,,,,,,,,,,,,,,,,,,,,
,,,,,,,,,,,,,,,,,5fc7fb7982f3c510bb6e6b62,42,2022-02-12_12h48.02.611,lexical_decision_task_DD_L2,2021.2.3,MacIntel,60.0024001,,,,,,,,,,,0.733,1,,,,,,,,,,,,,,m,1,0.733,,,,,,,,0.799982639,-0.031175944,0,0,0,,0,63,63,38,1,LADDER,C,old,m,./images/LADDER.png,,,,,,,,,,,,,,,,,,,,,,,,,,,,,,,,,,,
,,,,,,,,,,,,,,,,,5fc7fb7982f3c510bb6e6b62,42,2022-02-12_12h48.02.611,lexical_decision_task_DD_L2,2021.2.3,MacIntel,60.0024001,,,,,,,,,,,0.6748,1,,,,,,,,,,,,,,m,1,0.6748,,,,,,,,0.799982639,-0.031175944,0,0,0,,0,64,64,5,1,PASTA,C,old,m,./images/PASTA.png,,,,,,,,,,,,,,,,,,,,,,,,,,,,,,,,,,,
,,,,,,,,,,,,,,,,,5fc7fb7982f3c510bb6e6b62,42,2022-02-12_12h48.02.611,lexical_decision_task_DD_L2,2021.2.3,MacIntel,60.0024001,,,,,,,,,,,0.8493,1,,,,,,,,,,,,,,m,1,0.8493,,,,,,,,0.799982639,-0.031175944,0,0,0,,0,65,65,50,1,MALLET,C,old,m,./images/MALLET.png,,,,,,,,,,,,,,,,,,,,,,,,,,,,,,,,,,,
,,,,,,,,,,,,,,,,,5fc7fb7982f3c510bb6e6b62,42,2022-02-12_12h48.02.611,lexical_decision_task_DD_L2,2021.2.3,MacIntel,60.0024001,,,,,,,,,,,0.7449,1,,,,,,,,,,,,,,m,1,0.7449,,,,,,,,0.799982639,-0.031175944,0,0,0,,0,66,66,55,1,MUFFIN,LB,old,m,./images/MUFFINLB.png,,,,,,,,,,,,,,,,,,,,,,,,,,,,,,,,,,,
,,,,,,,,,,,,,,,,,5fc7fb7982f3c510bb6e6b62,42,2022-02-12_12h48.02.611,lexical_decision_task_DD_L2,2021.2.3,MacIntel,60.0024001,,,,,,,,,,,0.8972,1,,,,,,,,,,,,,,m,1,0.8972,,,,,,,,0.799982639,-0.031175944,0,0,0,,0,67,67,54,1,TRIPOD,HB,old,m,./images/TRIPODHB.png,,,,,,,,,,,,,,,,,,,,,,,,,,,,,,,,,,,
,,,,,,,,,,,,,,,,,5fc7fb7982f3c510bb6e6b62,42,2022-02-12_12h48.02.611,lexical_decision_task_DD_L2,2021.2.3,MacIntel,60.0024001,,,,,,,,,,,0.8464,1,,,,,,,,,,,,,,z,1,0.8464,,,,,,,,0.799982639,-0.031175944,0,0,0,,0,68,68,87,1,TRING,C,old,z,./images/TRING.png,,,,,,,,,,,,,,,,,,,,,,,,,,,,,,,,,,,
,,,,,,,,,,,,,,,,,5fc7fb7982f3c510bb6e6b62,42,2022-02-12_12h48.02.611,lexical_decision_task_DD_L2,2021.2.3,MacIntel,60.0024001,,,,,,,,,,,0.8494,1,,,,,,,,,,,,,,m,1,0.8494,,,,,,,,0.799982639,-0.031175944,0,0,0,,0,69,69,70,1,URINE,LB,old,m,./images/URINELB.png,,,,,,,,,,,,,,,,,,,,,,,,,,,,,,,,,,,
,,,,,,,,,,,,,,,,,5fc7fb7982f3c510bb6e6b62,42,2022-02-12_12h48.02.611,lexical_decision_task_DD_L2,2021.2.3,MacIntel,60.0024001,,,,,,,,,,,0.7996,1,,,,,,,,,,,,,,z,1,0.7996,,,,,,,,0.799982639,-0.031175944,0,0,0,,0,70,70,99,1,BACKY,C,old,z,./images/BACKY.png,,,,,,,,,,,,,,,,,,,,,,,,,,,,,,,,,,,
,,,,,,,,,,,,,,,,,5fc7fb7982f3c510bb6e6b62,42,2022-02-12_12h48.02.611,lexical_decision_task_DD_L2,2021.2.3,MacIntel,60.0024001,,,,,,,,,,,0.8456,1,,,,,,,,,,,,,,m,1,0.8456,,,,,,,,0.799982639,-0.031175944,0,0,0,,0,71,71,31,1,QUILL,LB,old,m,./images/QUILLLB.png,,,,,,,,,,,,,,,,,,,,,,,,,,,,,,,,,,,
,,,,,,,,,,,,,,,,,5fc7fb7982f3c510bb6e6b62,42,2022-02-12_12h48.02.611,lexical_decision_task_DD_L2,2021.2.3,MacIntel,60.0024001,,,,,,,,,,,0.6772,1,,,,,,,,,,,,,,m,1,0.6772,,,,,,,,0.799982639,-0.031175944,0,0,0,,0,72,72,25,1,WRIST,LB,old,m,./images/WRISTLB.png,,,,,,,,,,,,,,,,,,,,,,,,,,,,,,,,,,,
,,,,,,,,,,,,,,,,,5fc7fb7982f3c510bb6e6b62,42,2022-02-12_12h48.02.611,lexical_decision_task_DD_L2,2021.2.3,MacIntel,60.0024001,,,,,,,,,,,0.7048,1,,,,,,,,,,,,,,z,1,0.7048,,,,,,,,0.799982639,-0.031175944,0,0,0,,0,73,73,162,1,LEICH,C,old,z,./images/LEICH.png,,,,,,,,,,,,,,,,,,,,,,,,,,,,,,,,,,,
,,,,,,,,,,,,,,,,,5fc7fb7982f3c510bb6e6b62,42,2022-02-12_12h48.02.611,lexical_decision_task_DD_L2,2021.2.3,MacIntel,60.0024001,,,,,,,,,,,0.9664,1,,,,,,,,,,,,,,z,1,0.9664,,,,,,,,0.799982639,-0.031175944,0,0,0,,0,74,74,109,1,BURGE,HB,old,z,./images/BURGEHB.png,,,,,,,,,,,,,,,,,,,,,,,,,,,,,,,,,,,
,,,,,,,,,,,,,,,,,5fc7fb7982f3c510bb6e6b62,42,2022-02-12_12h48.02.611,lexical_decision_task_DD_L2,2021.2.3,MacIntel,60.0024001,,,,,,,,,,,0.6991,1,,,,,,,,,,,,,,m,1,0.6991,,,,,,,,0.799982639,-0.031175944,0,0,0,,0,75,75,63,1,MIRROR,HB,old,m,./images/MIRRORHB.png,,,,,,,,,,,,,,,,,,,,,,,,,,,,,,,,,,,
,,,,,,,,,,,,,,,,,5fc7fb7982f3c510bb6e6b62,42,2022-02-12_12h48.02.611,lexical_decision_task_DD_L2,2021.2.3,MacIntel,60.0024001,,,,,,,,,,,0.6954,1,,,,,,,,,,,,,,z,1,0.6954,,,,,,,,0.799982639,-0.031175944,0,0,0,,0,76,76,138,1,PLICE,C,old,z,./images/PLICE.png,,,,,,,,,,,,,,,,,,,,,,,,,,,,,,,,,,,
,,,,,,,,,,,,,,,,,5fc7fb7982f3c510bb6e6b62,42,2022-02-12_12h48.02.611,lexical_decision_task_DD_L2,2021.2.3,MacIntel,60.0024001,,,,,,,,,,,0.9299,1,,,,,,,,,,,,,,m,1,0.9299,,,,,,,,0.799982639,-0.031175944,0,0,0,,0,77,77,69,1,COOKER,HB,old,m,./images/COOKERHB.png,,,,,,,,,,,,,,,,,,,,,,,,,,,,,,,,,,,
,,,,,,,,,,,,,,,,,5fc7fb7982f3c510bb6e6b62,42,2022-02-12_12h48.02.611,lexical_decision_task_DD_L2,2021.2.3,MacIntel,60.0024001,,,,,,,,,,,0.6753,1,,,,,,,,,,,,,,m,1,0.6753,,,,,,,,0.799982639,-0.031175944,0,0,0,,0,78,78,30,1,STORM,HB,old,m,./images/STORMHB.png,,,,,,,,,,,,,,,,,,,,,,,,,,,,,,,,,,,
,,,,,,,,,,,,,,,,,5fc7fb7982f3c510bb6e6b62,42,2022-02-12_12h48.02.611,lexical_decision_task_DD_L2,2021.2.3,MacIntel,60.0024001,,,,,,,,,,,0.6445,1,,,,,,,,,,,,,,z,1,0.6445,,,,,,,,0.799982639,-0.031175944,0,0,0,,0,79,79,123,1,SEDGE,C,old,z,./images/SEDGE.png,,,,,,,,,,,,,,,,,,,,,,,,,,,,,,,,,,,
,,,,,,,,,,,,,,,,,5fc7fb7982f3c510bb6e6b62,42,2022-02-12_12h48.02.611,lexical_decision_task_DD_L2,2021.2.3,MacIntel,60.0024001,,,,,,,,,,,0.6415,1,,,,,,,,,,,,,,m,1,0.6415,,,,,,,,0.799982639,-0.031175944,0,0,0,,0,80,80,56,1,PACKET,C,old,m,./images/PACKET.png,,,,,,,,,,,,,,,,,,,,,,,,,,,,,,,,,,,
,,,,,,,,,,,,,,,,,5fc7fb7982f3c510bb6e6b62,42,2022-02-12_12h48.02.611,lexical_decision_task_DD_L2,2021.2.3,MacIntel,60.0024001,,,,,,,,,,,0.648,1,,,,,,,,,,,,,,z,1,0.648,,,,,,,,0.799982639,-0.031175944,0,0,0,,0,81,81,107,1,FASKS,LB,old,z,./images/FASKSLB.png,,,,,,,,,,,,,,,,,,,,,,,,,,,,,,,,,,,
,,,,,,,,,,,,,,,,,5fc7fb7982f3c510bb6e6b62,42,2022-02-12_12h48.02.611,lexical_decision_task_DD_L2,2021.2.3,MacIntel,60.0024001,,,,,,,,,,,0.5835,1,,,,,,,,,,,,,,m,1,0.5835,,,,,,,,0.799982639,-0.031175944,0,0,0,,0,82,82,79,1,CRUST,LB,old,m,./images/CRUSTLB.png,,,,,,,,,,,,,,,,,,,,,,,,,,,,,,,,,,,
,,,,,,,,,,,,,,,,,5fc7fb7982f3c510bb6e6b62,42,2022-02-12_12h48.02.611,lexical_decision_task_DD_L2,2021.2.3,MacIntel,60.0024001,,,,,,,,,,,0.7617,1,,,,,,,,,,,,,,m,1,0.7617,,,,,,,,0.799982639,-0.031175944,0,0,0,space,0,83,83,21,1,KIDNEY,HB,old,m,./images/KIDNEYHB.png,12.544,,,,,,,,,,,,,,,,,,,,,,,,,,,,,,,,,,
,,,,,,,,,,,,,,,,,5fc7fb7982f3c510bb6e6b62,42,2022-02-12_12h48.02.611,lexical_decision_task_DD_L2,2021.2.3,MacIntel,60.0024001,,,,,,,,,,,0.6093,1,,,,,,,,,,,,,,m,1,0.6093,,,,,,,,0.799982639,-0.031175944,0,0,0,,0,84,84,49,1,DRUMS,LB,old,m,./images/DRUMSLB.png,,,,,,,,,,,,,,,,,,,,,,,,,,,,,,,,,,,
,,,,,,,,,,,,,,,,,5fc7fb7982f3c510bb6e6b62,42,2022-02-12_12h48.02.611,lexical_decision_task_DD_L2,2021.2.3,MacIntel,60.0024001,,,,,,,,,,,0.5504,1,,,,,,,,,,,,,,m,1,0.5504,,,,,,,,0.799982639,-0.031175944,0,0,0,,0,85,85,41,1,STRING,C,old,m,./images/STRING.png,,,,,,,,,,,,,,,,,,,,,,,,,,,,,,,,,,,
,,,,,,,,,,,,,,,,,5fc7fb7982f3c510bb6e6b62,42,2022-02-12_12h48.02.611,lexical_decision_task_DD_L2,2021.2.3,MacIntel,60.0024001,,,,,,,,,,,0.9335,1,,,,,,,,,,,,,,m,1,0.9335,,,,,,,,0.799982639,-0.031175944,0,0,0,,0,86,86,18,1,JAGUAR,HB,old,m,./images/JAGUARHB.png,,,,,,,,,,,,,,,,,,,,,,,,,,,,,,,,,,,
,,,,,,,,,,,,,,,,,5fc7fb7982f3c510bb6e6b62,42,2022-02-12_12h48.02.611,lexical_decision_task_DD_L2,2021.2.3,MacIntel,60.0024001,,,,,,,,,,,0.8091,0,,,,,,,,,,,,,,m,0,0.8091,,,,,,,,0.799982639,-0.031175944,0,0,0,,0,87,87,128,1,GRIFT,LB,old,z,./images/GRIFTLB.png,,,,,,,,,,,,,,,,,,,,,,,,,,,,,,,,,,,
,,,,,,,,,,,,,,,,,5fc7fb7982f3c510bb6e6b62,42,2022-02-12_12h48.02.611,lexical_decision_task_DD_L2,2021.2.3,MacIntel,60.0024001,,,,,,,,,,,0.6094,1,,,,,,,,,,,,,,m,1,0.6094,,,,,,,,0.799982639,-0.031175944,0,0,0,,0,88,88,47,1,BERRY,C,old,m,./images/BERRY.png,,,,,,,,,,,,,,,,,,,,,,,,,,,,,,,,,,,
,,,,,,,,,,,,,,,,,5fc7fb7982f3c510bb6e6b62,42,2022-02-12_12h48.02.611,lexical_decision_task_DD_L2,2021.2.3,MacIntel,60.0024001,,,,,,,,,,,0.7821,1,,,,,,,,,,,,,,m,1,0.7821,,,,,,,,0.799982639,-0.031175944,0,0,0,,0,89,89,9,1,RHINO,HB,old,m,./images/RHINOHB.png,,,,,,,,,,,,,,,,,,,,,,,,,,,,,,,,,,,
,,,,,,,,,,,,,,,,,5fc7fb7982f3c510bb6e6b62,42,2022-02-12_12h48.02.611,lexical_decision_task_DD_L2,2021.2.3,MacIntel,60.0024001,,,,,,,,,,,0.7324,1,,,,,,,,,,,,,,m,1,0.7324,,,,,,,,0.799982639,-0.031175944,0,0,0,,0,90,90,1,1,PLANK,LB,old,m,./images/PLANKLB.png,,,,,,,,,,,,,,,,,,,,,,,,,,,,,,,,,,,
,,,,,,,,,,,,,,,,,5fc7fb7982f3c510bb6e6b62,42,2022-02-12_12h48.02.611,lexical_decision_task_DD_L2,2021.2.3,MacIntel,60.0024001,,,,,,,,,,,0.9116,1,,,,,,,,,,,,,,z,1,0.9116,,,,,,,,0.799982639,-0.031175944,0,0,0,,0,91,91,124,1,TUNCH,HB,old,z,./images/TUNCHHB.png,,,,,,,,,,,,,,,,,,,,,,,,,,,,,,,,,,,
,,,,,,,,,,,,,,,,,5fc7fb7982f3c510bb6e6b62,42,2022-02-12_12h48.02.611,lexical_decision_task_DD_L2,2021.2.3,MacIntel,60.0024001,,,,,,,,,,,0.7276,1,,,,,,,,,,,,,,m,1,0.7276,,,,,,,,0.799982639,-0.031175944,0,0,0,,0,92,92,57,1,MOOSE,HB,old,m,./images/MOOSEHB.png,,,,,,,,,,,,,,,,,,,,,,,,,,,,,,,,,,,
,,,,,,,,,,,,,,,,,5fc7fb7982f3c510bb6e6b62,42,2022-02-12_12h48.02.611,lexical_decision_task_DD_L2,2021.2.3,MacIntel,60.0024001,,,,,,,,,,,0.7236,1,,,,,,,,,,,,,,m,1,0.7236,,,,,,,,0.799982639,-0.031175944,0,0,0,,0,93,93,53,1,CARPET,C,old,m,./images/CARPET.png,,,,,,,,,,,,,,,,,,,,,,,,,,,,,,,,,,,
,,,,,,,,,,,,,,,,,5fc7fb7982f3c510bb6e6b62,42,2022-02-12_12h48.02.611,lexical_decision_task_DD_L2,2021.2.3,MacIntel,60.0024001,,,,,,,,,,,0.9295,0,,,,,,,,,,,,,,z,0,0.9295,,,,,,,,0.799982639,-0.031175944,0,0,0,,0,94,94,72,1,NOOSE,HB,old,m,./images/NOOSEHB.png,,,,,,,,,,,,,,,,,,,,,,,,,,,,,,,,,,,
,,,,,,,,,,,,,,,,,5fc7fb7982f3c510bb6e6b62,42,2022-02-12_12h48.02.611,lexical_decision_task_DD_L2,2021.2.3,MacIntel,60.0024001,,,,,,,,,,,0.6814,1,,,,,,,,,,,,,,m,1,0.6814,,,,,,,,0.799982639,-0.031175944,0,0,0,,0,95,95,27,1,ATTIC,HB,old,m,./images/ATTICHB.png,,,,,,,,,,,,,,,,,,,,,,,,,,,,,,,,,,,
,,,,,,,,,,,,,,,,,5fc7fb7982f3c510bb6e6b62,42,2022-02-12_12h48.02.611,lexical_decision_task_DD_L2,2021.2.3,MacIntel,60.0024001,,,,,,,,,,,0.9003,1,,,,,,,,,,,,,,z,1,0.9003,,,,,,,,0.799982639,-0.031175944,0,0,0,,0,96,96,97,1,CHIDS,HB,old,z,./images/CHIDSHB.png,,,,,,,,,,,,,,,,,,,,,,,,,,,,,,,,,,,
,,,,,,,,,,,,,,,,,5fc7fb7982f3c510bb6e6b62,42,2022-02-12_12h48.02.611,lexical_decision_task_DD_L2,2021.2.3,MacIntel,60.0024001,,,,,,,,,,,0.5781,1,,,,,,,,,,,,,,m,1,0.5781,,,,,,,,0.799982639,-0.031175944,0,0,0,,0,97,97,40,1,SWING,LB,old,m,./images/SWINGLB.png,,,,,,,,,,,,,,,,,,,,,,,,,,,,,,,,,,,
,,,,,,,,,,,,,,,,,5fc7fb7982f3c510bb6e6b62,42,2022-02-12_12h48.02.611,lexical_decision_task_DD_L2,2021.2.3,MacIntel,60.0024001,,,,,,,,,,,0.6344,1,,,,,,,,,,,,,,m,1,0.6344,,,,,,,,0.799982639,-0.031175944,0,0,0,,0,98,98,65,1,FARMER,C,old,m,./images/FARMER.png,,,,,,,,,,,,,,,,,,,,,,,,,,,,,,,,,,,
,,,,,,,,,,,,,,,,,5fc7fb7982f3c510bb6e6b62,42,2022-02-12_12h48.02.611,lexical_decision_task_DD_L2,2021.2.3,MacIntel,60.0024001,,,,,,,,,,,0.7331,1,,,,,,,,,,,,,,m,1,0.7331,,,,,,,,0.799982639,-0.031175944,0,0,0,,0,99,99,3,1,FINGER,HB,old,m,./images/FINGERHB.png,,,,,,,,,,,,,,,,,,,,,,,,,,,,,,,,,,,
,,,,,,,,,,,,,,,,,5fc7fb7982f3c510bb6e6b62,42,2022-02-12_12h48.02.611,lexical_decision_task_DD_L2,2021.2.3,MacIntel,60.0024001,,,,,,,,,,,0.8106,1,,,,,,,,,,,,,,z,1,0.8106,,,,,,,,0.799982639,-0.031175944,0,0,0,,0,100,100,149,1,VEASE,LB,old,z,./images/VEASELB.png,,,,,,,,,,,,,,,,,,,,,,,,,,,,,,,,,,,
,,,,,,,,,,,,,,,,,5fc7fb7982f3c510bb6e6b62,42,2022-02-12_12h48.02.611,lexical_decision_task_DD_L2,2021.2.3,MacIntel,60.0024001,,,,,,,,,,,0.5955,1,,,,,,,,,,,,,,m,1,0.5955,,,,,,,,0.799982639,-0.031175944,0,0,0,,0,101,101,76,1,INFANT,LB,old,m,./images/INFANTLB.png,,,,,,,,,,,,,,,,,,,,,,,,,,,,,,,,,,,
,,,,,,,,,,,,,,,,,5fc7fb7982f3c510bb6e6b62,42,2022-02-12_12h48.02.611,lexical_decision_task_DD_L2,2021.2.3,MacIntel,60.0024001,,,,,,,,,,,0.7276,1,,,,,,,,,,,,,,m,1,0.7276,,,,,,,,0.799982639,-0.031175944,0,0,0,,0,102,102,17,1,SKIING,C,old,m,./images/SKIING.png,,,,,,,,,,,,,,,,,,,,,,,,,,,,,,,,,,,
,,,,,,,,,,,,,,,,,5fc7fb7982f3c510bb6e6b62,42,2022-02-12_12h48.02.611,lexical_decision_task_DD_L2,2021.2.3,MacIntel,60.0024001,,,,,,,,,,,0.7477,1,,,,,,,,,,,,,,z,1,0.7477,,,,,,,,0.799982639,-0.031175944,0,0,0,,0,103,103,90,1,NEAST,C,old,z,./images/NEAST.png,,,,,,,,,,,,,,,,,,,,,,,,,,,,,,,,,,,
,,,,,,,,,,,,,,,,,5fc7fb7982f3c510bb6e6b62,42,2022-02-12_12h48.02.611,lexical_decision_task_DD_L2,2021.2.3,MacIntel,60.0024001,,,,,,,,,,,0.6805,1,,,,,,,,,,,,,,m,1,0.6805,,,,,,,,0.799982639,-0.031175944,0,0,0,,0,104,104,66,1,SWEAT,HB,old,m,./images/SWEATHB.png,,,,,,,,,,,,,,,,,,,,,,,,,,,,,,,,,,,
,,,,,,,,,,,,,,,,,5fc7fb7982f3c510bb6e6b62,42,2022-02-12_12h48.02.611,lexical_decision_task_DD_L2,2021.2.3,MacIntel,60.0024001,,,,,,,,,,,0.7828,1,,,,,,,,,,,,,,m,1,0.7828,,,,,,,,0.799982639,-0.031175944,0,0,0,,0,105,105,75,1,GRAIN,HB,old,m,./images/GRAINHB.png,,,,,,,,,,,,,,,,,,,,,,,,,,,,,,,,,,,
,,,,,,,,,,,,,,,,,5fc7fb7982f3c510bb6e6b62,42,2022-02-12_12h48.02.611,lexical_decision_task_DD_L2,2021.2.3,MacIntel,60.0024001,,,,,,,,,,,0.623,1,,,,,,,,,,,,,,m,1,0.623,,,,,,,,0.799982639,-0.031175944,0,0,0,,0,106,106,67,1,SAILOR,LB,old,m,./images/SAILORLB.png,,,,,,,,,,,,,,,,,,,,,,,,,,,,,,,,,,,
,,,,,,,,,,,,,,,,,5fc7fb7982f3c510bb6e6b62,42,2022-02-12_12h48.02.611,lexical_decision_task_DD_L2,2021.2.3,MacIntel,60.0024001,,,,,,,,,,,0.6249,1,,,,,,,,,,,,,,z,1,0.6249,,,,,,,,0.799982639,-0.031175944,0,0,0,,0,107,107,137,1,JOOST,LB,old,z,./images/JOOSTLB.png,,,,,,,,,,,,,,,,,,,,,,,,,,,,,,,,,,,
,,,,,,,,,,,,,,,,,5fc7fb7982f3c510bb6e6b62,42,2022-02-12_12h48.02.611,lexical_decision_task_DD_L2,2021.2.3,MacIntel,60.0024001,,,,,,,,,,,0.6102,1,,,,,,,,,,,,,,m,1,0.6102,,,,,,,,0.799982639,-0.031175944,0,0,0,,0,108,108,45,1,KITTEN,HB,old,m,./images/KITTENHB.png,,,,,,,,,,,,,,,,,,,,,,,,,,,,,,,,,,,
,,,,,,,,,,,,,,,,,5fc7fb7982f3c510bb6e6b62,42,2022-02-12_12h48.02.611,lexical_decision_task_DD_L2,2021.2.3,MacIntel,60.0024001,,,,,,,,,,,0.6469,1,,,,,,,,,,,,,,m,1,0.6469,,,,,,,,0.799982639,-0.031175944,0,0,0,,0,109,109,61,1,CANDLE,LB,old,m,./images/CANDLELB.png,,,,,,,,,,,,,,,,,,,,,,,,,,,,,,,,,,,
,,,,,,,,,,,,,,,,,5fc7fb7982f3c510bb6e6b62,42,2022-02-12_12h48.02.611,lexical_decision_task_DD_L2,2021.2.3,MacIntel,60.0024001,,,,,,,,,,,0.7267,1,,,,,,,,,,,,,,z,1,0.7267,,,,,,,,0.799982639,-0.031175944,0,0,0,,0,110,110,86,1,AIFED,LB,old,z,./images/AIFEDLB.png,,,,,,,,,,,,,,,,,,,,,,,,,,,,,,,,,,,
,,,,,,,,,,,,,,,,,5fc7fb7982f3c510bb6e6b62,42,2022-02-12_12h48.02.611,lexical_decision_task_DD_L2,2021.2.3,MacIntel,60.0024001,,,,,,,,,,,0.9451,1,,,,,,,,,,,,,,z,1,0.9451,,,,,,,,0.799982639,-0.031175944,0,0,0,,0,111,111,117,1,STEEG,C,old,z,./images/STEEG.png,,,,,,,,,,,,,,,,,,,,,,,,,,,,,,,,,,,
,,,,,,,,,,,,,,,,,5fc7fb7982f3c510bb6e6b62,42,2022-02-12_12h48.02.611,lexical_decision_task_DD_L2,2021.2.3,MacIntel,60.0024001,,,,,,,,,,,0.8333,1,,,,,,,,,,,,,,m,1,0.8333,,,,,,,,0.799982639,-0.031175944,0,0,0,,0,112,112,58,1,BABOON,LB,old,m,./images/BABOONLB.png,,,,,,,,,,,,,,,,,,,,,,,,,,,,,,,,,,,
,,,,,,,,,,,,,,,,,5fc7fb7982f3c510bb6e6b62,42,2022-02-12_12h48.02.611,lexical_decision_task_DD_L2,2021.2.3,MacIntel,60.0024001,,,,,,,,,,,0.79,1,,,,,,,,,,,,,,m,1,0.79,,,,,,,,0.799982639,-0.031175944,0,0,0,,0,113,113,2,1,BEARD,C,old,m,./images/BEARD.png,,,,,,,,,,,,,,,,,,,,,,,,,,,,,,,,,,,
,,,,,,,,,,,,,,,,,5fc7fb7982f3c510bb6e6b62,42,2022-02-12_12h48.02.611,lexical_decision_task_DD_L2,2021.2.3,MacIntel,60.0024001,,,,,,,,,,,1.0773,1,,,,,,,,,,,,,,z,1,1.0773,,,,,,,,0.799982639,-0.031175944,0,0,0,,0,114,114,157,1,INLER,HB,old,z,./images/INLERHB.png,,,,,,,,,,,,,,,,,,,,,,,,,,,,,,,,,,,
,,,,,,,,,,,,,,,,,5fc7fb7982f3c510bb6e6b62,42,2022-02-12_12h48.02.611,lexical_decision_task_DD_L2,2021.2.3,MacIntel,60.0024001,,,,,,,,,,,0.7156,1,,,,,,,,,,,,,,m,1,0.7156,,,,,,,,0.799982639,-0.031175944,0,0,0,,0,115,115,19,1,DOUGH,LB,old,m,./images/DOUGHLB.png,,,,,,,,,,,,,,,,,,,,,,,,,,,,,,,,,,,
,,,,,,,,,,,,,,,,,5fc7fb7982f3c510bb6e6b62,42,2022-02-12_12h48.02.611,lexical_decision_task_DD_L2,2021.2.3,MacIntel,60.0024001,,,,,,,,,,,0.7491,1,,,,,,,,,,,,,,z,1,0.7491,,,,,,,,0.799982639,-0.031175944,0,0,0,,0,116,116,129,1,PRANS,C,old,z,./images/PRANS.png,,,,,,,,,,,,,,,,,,,,,,,,,,,,,,,,,,,
,,,,,,,,,,,,,,,,,5fc7fb7982f3c510bb6e6b62,42,2022-02-12_12h48.02.611,lexical_decision_task_DD_L2,2021.2.3,MacIntel,60.0024001,,,,,,,,,,,0.7909,1,,,,,,,,,,,,,,m,1,0.7909,,,,,,,,0.799982639,-0.031175944,0,0,0,,0,117,117,10,1,BELLY,LB,old,m,./images/BELLYLB.png,,,,,,,,,,,,,,,,,,,,,,,,,,,,,,,,,,,
,,,,,,,,,,,,,,,,,5fc7fb7982f3c510bb6e6b62,42,2022-02-12_12h48.02.611,lexical_decision_task_DD_L2,2021.2.3,MacIntel,60.0024001,,,,,,,,,,,0.758,1,,,,,,,,,,,,,,m,1,0.758,,,,,,,,0.799982639,-0.031175944,0,0,0,,0,118,118,0,1,TOMATO,HB,old,m,./images/TOMATOHB.png,,,,,,,,,,,,,,,,,,,,,,,,,,,,,,,,,,,
,,,,,,,,,,,,,,,,,5fc7fb7982f3c510bb6e6b62,42,2022-02-12_12h48.02.611,lexical_decision_task_DD_L2,2021.2.3,MacIntel,60.0024001,,,,,,,,,,,0.6596,1,,,,,,,,,,,,,,m,1,0.6596,,,,,,,,0.799982639,-0.031175944,0,0,0,,0,119,119,6,1,SQUARE,HB,old,m,./images/SQUAREHB.png,,,,,,,,,,,,,,,,,,,,,,,,,,,,,,,,,,,
,,,,,,,,,,,,,,,,,5fc7fb7982f3c510bb6e6b62,42,2022-02-12_12h48.02.611,lexical_decision_task_DD_L2,2021.2.3,MacIntel,60.0024001,,,,,,,,,,,0.786,1,,,,,,,,,,,,,,z,1,0.786,,,,,,,,0.799982639,-0.031175944,0,0,0,,0,120,120,100,1,DRIBS,HB,old,z,./images/DRIBSHB.png,,,,,,,,,,,,,,,,,,,,,,,,,,,,,,,,,,,
,,,,,,,,,,,,,,,,,5fc7fb7982f3c510bb6e6b62,42,2022-02-12_12h48.02.611,lexical_decision_task_DD_L2,2021.2.3,MacIntel,60.0024001,,,,,,,,,,,0.7999,1,,,,,,,,,,,,,,z,1,0.7999,,,,,,,,0.799982639,-0.031175944,0,0,0,,0,121,121,135,1,JOODY,C,old,z,./images/JOODY.png,,,,,,,,,,,,,,,,,,,,,,,,,,,,,,,,,,,
,,,,,,,,,,,,,,,,,5fc7fb7982f3c510bb6e6b62,42,2022-02-12_12h48.02.611,lexical_decision_task_DD_L2,2021.2.3,MacIntel,60.0024001,,,,,,,,,,,0.7409,1,,,,,,,,,,,,,,z,1,0.7409,,,,,,,,0.799982639,-0.031175944,0,0,0,,0,122,122,92,1,PAIMS,LB,old,z,./images/PAIMSLB.png,,,,,,,,,,,,,,,,,,,,,,,,,,,,,,,,,,,
,,,,,,,,,,,,,,,,,5fc7fb7982f3c510bb6e6b62,42,2022-02-12_12h48.02.611,lexical_decision_task_DD_L2,2021.2.3,MacIntel,60.0024001,,,,,,,,,,,0.6673,1,,,,,,,,,,,,,,m,1,0.6673,,,,,,,,0.799982639,-0.031175944,0,0,0,,0,123,123,15,1,GREASE,HB,old,m,./images/GREASEHB.png,,,,,,,,,,,,,,,,,,,,,,,,,,,,,,,,,,,
,,,,,,,,,,,,,,,,,5fc7fb7982f3c510bb6e6b62,42,2022-02-12_12h48.02.611,lexical_decision_task_DD_L2,2021.2.3,MacIntel,60.0024001,,,,,,,,,,,0.6809,1,,,,,,,,,,,,,,z,1,0.6809,,,,,,,,0.799982639,-0.031175944,0,0,0,,0,124,124,95,1,HANTY,LB,old,z,./images/HANTYLB.png,,,,,,,,,,,,,,,,,,,,,,,,,,,,,,,,,,,
,,,,,,,,,,,,,,,,,5fc7fb7982f3c510bb6e6b62,42,2022-02-12_12h48.02.611,lexical_decision_task_DD_L2,2021.2.3,MacIntel,60.0024001,,,,,,,,,,,0.81,1,,,,,,,,,,,,,,z,1,0.81,,,,,,,,0.799982639,-0.031175944,0,0,0,space,0,125,125,118,1,BAVEL,HB,old,z,./images/BAVELHB.png,11.2675,,,,,,,,,,,,,,,,,,,,,,,,,,,,,,,,,,
,,,,,,,,,,,,,,,,,5fc7fb7982f3c510bb6e6b62,42,2022-02-12_12h48.02.611,lexical_decision_task_DD_L2,2021.2.3,MacIntel,60.0024001,,,,,,,,,,,0.6411,1,,,,,,,,,,,,,,m,1,0.6411,,,,,,,,0.799982639,-0.031175944,0,0,0,,0,126,126,46,1,PEARL,LB,old,m,./images/PEARLLB.png,,,,,,,,,,,,,,,,,,,,,,,,,,,,,,,,,,,
,,,,,,,,,,,,,,,,,5fc7fb7982f3c510bb6e6b62,42,2022-02-12_12h48.02.611,lexical_decision_task_DD_L2,2021.2.3,MacIntel,60.0024001,,,,,,,,,,,0.6777,1,,,,,,,,,,,,,,z,1,0.6777,,,,,,,,0.799982639,-0.031175944,0,0,0,,0,127,127,132,1,SCIFF,C,old,z,./images/SCIFF.png,,,,,,,,,,,,,,,,,,,,,,,,,,,,,,,,,,,
,,,,,,,,,,,,,,,,,5fc7fb7982f3c510bb6e6b62,42,2022-02-12_12h48.02.611,lexical_decision_task_DD_L2,2021.2.3,MacIntel,60.0024001,,,,,,,,,,,0.7246,1,,,,,,,,,,,,,,z,1,0.7246,,,,,,,,0.799982639,-0.031175944,0,0,0,,0,128,128,161,1,BLAPS,LB,old,z,./images/BLAPSLB.png,,,,,,,,,,,,,,,,,,,,,,,,,,,,,,,,,,,
,,,,,,,,,,,,,,,,,5fc7fb7982f3c510bb6e6b62,42,2022-02-12_12h48.02.611,lexical_decision_task_DD_L2,2021.2.3,MacIntel,60.0024001,,,,,,,,,,,0.6604,1,,,,,,,,,,,,,,z,1,0.6604,,,,,,,,0.799982639,-0.031175944,0,0,0,,0,129,129,96,1,KEAMS,C,old,z,./images/KEAMS.png,,,,,,,,,,,,,,,,,,,,,,,,,,,,,,,,,,,
,,,,,,,,,,,,,,,,,5fc7fb7982f3c510bb6e6b62,42,2022-02-12_12h48.02.611,lexical_decision_task_DD_L2,2021.2.3,MacIntel,60.0024001,,,,,,,,,,,0.71,1,,,,,,,,,,,,,,z,1,0.71,,,,,,,,0.799982639,-0.031175944,0,0,0,,0,130,130,156,1,HIXES,C,old,z,./images/HIXES.png,,,,,,,,,,,,,,,,,,,,,,,,,,,,,,,,,,,
,,,,,,,,,,,,,,,,,5fc7fb7982f3c510bb6e6b62,42,2022-02-12_12h48.02.611,lexical_decision_task_DD_L2,2021.2.3,MacIntel,60.0024001,,,,,,,,,,,0.6443,1,,,,,,,,,,,,,,m,1,0.6443,,,,,,,,0.799982639,-0.031175944,0,0,0,,0,131,131,51,1,ONION,HB,old,m,./images/ONIONHB.png,,,,,,,,,,,,,,,,,,,,,,,,,,,,,,,,,,,
,,,,,,,,,,,,,,,,,5fc7fb7982f3c510bb6e6b62,42,2022-02-12_12h48.02.611,lexical_decision_task_DD_L2,2021.2.3,MacIntel,60.0024001,,,,,,,,,,,0.8636,1,,,,,,,,,,,,,,m,1,0.8636,,,,,,,,0.799982639,-0.031175944,0,0,0,,0,132,132,43,1,MOSQUE,LB,old,m,./images/MOSQUELB.png,,,,,,,,,,,,,,,,,,,,,,,,,,,,,,,,,,,
,,,,,,,,,,,,,,,,,5fc7fb7982f3c510bb6e6b62,42,2022-02-12_12h48.02.611,lexical_decision_task_DD_L2,2021.2.3,MacIntel,60.0024001,,,,,,,,,,,0.6477,1,,,,,,,,,,,,,,z,1,0.6477,,,,,,,,0.799982639,-0.031175944,0,0,0,,0,133,133,146,1,MOOST,LB,old,z,./images/MOOSTLB.png,,,,,,,,,,,,,,,,,,,,,,,,,,,,,,,,,,,
,,,,,,,,,,,,,,,,,5fc7fb7982f3c510bb6e6b62,42,2022-02-12_12h48.02.611,lexical_decision_task_DD_L2,2021.2.3,MacIntel,60.0024001,,,,,,,,,,,1.124,1,,,,,,,,,,,,,,z,1,1.124,,,,,,,,0.799982639,-0.031175944,0,0,0,,0,134,134,110,1,CRUNK,LB,old,z,./images/CRUNKLB.png,,,,,,,,,,,,,,,,,,,,,,,,,,,,,,,,,,,
,,,,,,,,,,,,,,,,,5fc7fb7982f3c510bb6e6b62,42,2022-02-12_12h48.02.611,lexical_decision_task_DD_L2,2021.2.3,MacIntel,60.0024001,,,,,,,,,,,0.6563,1,,,,,,,,,,,,,,m,1,0.6563,,,,,,,,0.799982639,-0.031175944,0,0,0,,0,135,135,4,1,MUSCLE,LB,old,m,./images/MUSCLELB.png,,,,,,,,,,,,,,,,,,,,,,,,,,,,,,,,,,,
,,,,,,,,,,,,,,,,,5fc7fb7982f3c510bb6e6b62,42,2022-02-12_12h48.02.611,lexical_decision_task_DD_L2,2021.2.3,MacIntel,60.0024001,,,,,,,,,,,0.7229,1,,,,,,,,,,,,,,z,1,0.7229,,,,,,,,0.799982639,-0.031175944,0,0,0,,0,136,136,122,1,BLOOT,LB,old,z,./images/BLOOTLB.png,,,,,,,,,,,,,,,,,,,,,,,,,,,,,,,,,,,
,,,,,,,,,,,,,,,,,5fc7fb7982f3c510bb6e6b62,42,2022-02-12_12h48.02.611,lexical_decision_task_DD_L2,2021.2.3,MacIntel,60.0024001,,,,,,,,,,,0.7753,1,,,,,,,,,,,,,,m,1,0.7753,,,,,,,,0.799982639,-0.031175944,0,0,0,,0,137,137,81,1,POODLE,HB,old,m,./images/POODLEHB.png,,,,,,,,,,,,,,,,,,,,,,,,,,,,,,,,,,,
,,,,,,,,,,,,,,,,,5fc7fb7982f3c510bb6e6b62,42,2022-02-12_12h48.02.611,lexical_decision_task_DD_L2,2021.2.3,MacIntel,60.0024001,,,,,,,,,,,0.8077,1,,,,,,,,,,,,,,m,1,0.8077,,,,,,,,0.799982639,-0.031175944,0,0,0,,0,138,138,78,1,LITTER,HB,old,m,./images/LITTERHB.png,,,,,,,,,,,,,,,,,,,,,,,,,,,,,,,,,,,
,,,,,,,,,,,,,,,,,5fc7fb7982f3c510bb6e6b62,42,2022-02-12_12h48.02.611,lexical_decision_task_DD_L2,2021.2.3,MacIntel,60.0024001,,,,,,,,,,,0.7919,1,,,,,,,,,,,,,,z,1,0.7919,,,,,,,,0.799982639,-0.031175944,0,0,0,,0,139,139,127,1,NINDY,HB,old,z,./images/NINDYHB.png,,,,,,,,,,,,,,,,,,,,,,,,,,,,,,,,,,,
,,,,,,,,,,,,,,,,,5fc7fb7982f3c510bb6e6b62,42,2022-02-12_12h48.02.611,lexical_decision_task_DD_L2,2021.2.3,MacIntel,60.0024001,,,,,,,,,,,1.0141,1,,,,,,,,,,,,,,z,1,1.0141,,,,,,,,0.799982639,-0.031175944,0,0,0,,0,140,140,131,1,NACES,LB,old,z,./images/NACESLB.png,,,,,,,,,,,,,,,,,,,,,,,,,,,,,,,,,,,
,,,,,,,,,,,,,,,,,5fc7fb7982f3c510bb6e6b62,42,2022-02-12_12h48.02.611,lexical_decision_task_DD_L2,2021.2.3,MacIntel,60.0024001,,,,,,,,,,,0.7825,1,,,,,,,,,,,,,,m,1,0.7825,,,,,,,,0.799982639,-0.031175944,0,0,0,,0,141,141,11,1,BONNET,C,old,m,./images/BONNET.png,,,,,,,,,,,,,,,,,,,,,,,,,,,,,,,,,,,
,,,,,,,,,,,,,,,,,5fc7fb7982f3c510bb6e6b62,42,2022-02-12_12h48.02.611,lexical_decision_task_DD_L2,2021.2.3,MacIntel,60.0024001,,,,,,,,,,,0.5317,1,,,,,,,,,,,,,,z,1,0.5317,,,,,,,,0.799982639,-0.031175944,0,0,0,,0,142,142,102,1,DULLE,C,old,z,./images/DULLE.png,,,,,,,,,,,,,,,,,,,,,,,,,,,,,,,,,,,
,,,,,,,,,,,,,,,,,5fc7fb7982f3c510bb6e6b62,42,2022-02-12_12h48.02.611,lexical_decision_task_DD_L2,2021.2.3,MacIntel,60.0024001,,,,,,,,,,,0.7821,1,,,,,,,,,,,,,,z,1,0.7821,,,,,,,,0.799982639,-0.031175944,0,0,0,,0,143,143,116,1,BALGY,LB,old,z,./images/BALGYLB.png,,,,,,,,,,,,,,,,,,,,,,,,,,,,,,,,,,,
,,,,,,,,,,,,,,,,,5fc7fb7982f3c510bb6e6b62,42,2022-02-12_12h48.02.611,lexical_decision_task_DD_L2,2021.2.3,MacIntel,60.0024001,,,,,,,,,,,0.6157,1,,,,,,,,,,,,,,m,1,0.6157,,,,,,,,0.799982639,-0.031175944,0,0,0,,0,144,144,73,1,SNACK,LB,old,m,./images/SNACKLB.png,,,,,,,,,,,,,,,,,,,,,,,,,,,,,,,,,,,
,,,,,,,,,,,,,,,,,5fc7fb7982f3c510bb6e6b62,42,2022-02-12_12h48.02.611,lexical_decision_task_DD_L2,2021.2.3,MacIntel,60.0024001,,,,,,,,,,,0.7311,1,,,,,,,,,,,,,,m,1,0.7311,,,,,,,,0.799982639,-0.031175944,0,0,0,,0,145,145,22,1,MELON,LB,old,m,./images/MELONLB.png,,,,,,,,,,,,,,,,,,,,,,,,,,,,,,,,,,,
,,,,,,,,,,,,,,,,,5fc7fb7982f3c510bb6e6b62,42,2022-02-12_12h48.02.611,lexical_decision_task_DD_L2,2021.2.3,MacIntel,60.0024001,,,,,,,,,,,0.6488,1,,,,,,,,,,,,,,m,1,0.6488,,,,,,,,0.799982639,-0.031175944,0,0,0,,0,146,146,68,1,TORCH,C,old,m,./images/TORCH.png,,,,,,,,,,,,,,,,,,,,,,,,,,,,,,,,,,,
,,,,,,,,,,,,,,,,,5fc7fb7982f3c510bb6e6b62,42,2022-02-12_12h48.02.611,lexical_decision_task_DD_L2,2021.2.3,MacIntel,60.0024001,,,,,,,,,,,0.7024,1,,,,,,,,,,,,,,z,1,0.7024,,,,,,,,0.799982639,-0.031175944,0,0,0,,0,147,147,101,1,GLEET,LB,old,z,./images/GLEETLB.png,,,,,,,,,,,,,,,,,,,,,,,,,,,,,,,,,,,
,,,,,,,,,,,,,,,,,5fc7fb7982f3c510bb6e6b62,42,2022-02-12_12h48.02.611,lexical_decision_task_DD_L2,2021.2.3,MacIntel,60.0024001,,,,,,,,,,,0.8394,1,,,,,,,,,,,,,,z,1,0.8394,,,,,,,,0.799982639,-0.031175944,0,0,0,,0,148,148,144,1,NAIRY,C,old,z,./images/NAIRY.png,,,,,,,,,,,,,,,,,,,,,,,,,,,,,,,,,,,
,,,,,,,,,,,,,,,,,5fc7fb7982f3c510bb6e6b62,42,2022-02-12_12h48.02.611,lexical_decision_task_DD_L2,2021.2.3,MacIntel,60.0024001,,,,,,,,,,,0.8726,1,,,,,,,,,,,,,,m,1,0.8726,,,,,,,,0.799982639,-0.031175944,0,0,0,,0,149,149,80,1,WEASEL,C,old,m,./images/WEASEL.png,,,,,,,,,,,,,,,,,,,,,,,,,,,,,,,,,,,
,,,,,,,,,,,,,,,,,5fc7fb7982f3c510bb6e6b62,42,2022-02-12_12h48.02.611,lexical_decision_task_DD_L2,2021.2.3,MacIntel,60.0024001,,,,,,,,,,,0.7231,1,,,,,,,,,,,,,,z,1,0.7231,,,,,,,,0.799982639,-0.031175944,0,0,0,,0,150,150,98,1,BAMPS,LB,old,z,./images/BAMPSLB.png,,,,,,,,,,,,,,,,,,,,,,,,,,,,,,,,,,,
,,,,,,,,,,,,,,,,,5fc7fb7982f3c510bb6e6b62,42,2022-02-12_12h48.02.611,lexical_decision_task_DD_L2,2021.2.3,MacIntel,60.0024001,,,,,,,,,,,0.8973,1,,,,,,,,,,,,,,z,1,0.8973,,,,,,,,0.799982639,-0.031175944,0,0,0,,0,151,151,148,1,JOMS,HB,old,z,./images/JOMSHB.png,,,,,,,,,,,,,,,,,,,,,,,,,,,,,,,,,,,
,,,,,,,,,,,,,,,,,5fc7fb7982f3c510bb6e6b62,42,2022-02-12_12h48.02.611,lexical_decision_task_DD_L2,2021.2.3,MacIntel,60.0024001,,,,,,,,,,,0.9215,1,,,,,,,,,,,,,,z,1,0.9215,,,,,,,,0.799982639,-0.031175944,0,0,0,,0,152,152,143,1,MONGS,LB,old,z,./images/MONGSLB.png,,,,,,,,,,,,,,,,,,,,,,,,,,,,,,,,,,,
,,,,,,,,,,,,,,,,,5fc7fb7982f3c510bb6e6b62,42,2022-02-12_12h48.02.611,lexical_decision_task_DD_L2,2021.2.3,MacIntel,60.0024001,,,,,,,,,,,1.2153,1,,,,,,,,,,,,,,z,1,1.2153,,,,,,,,0.799982639,-0.031175944,0,0,0,,0,153,153,120,1,RINED,C,old,z,./images/RINED.png,,,,,,,,,,,,,,,,,,,,,,,,,,,,,,,,,,,
,,,,,,,,,,,,,,,,,5fc7fb7982f3c510bb6e6b62,42,2022-02-12_12h48.02.611,lexical_decision_task_DD_L2,2021.2.3,MacIntel,60.0024001,,,,,,,,,,,0.7572,1,,,,,,,,,,,,,,m,1,0.7572,,,,,,,,0.799982639,-0.031175944,0,0,0,,0,154,154,14,1,PICKLE,C,old,m,./images/PICKLE.png,,,,,,,,,,,,,,,,,,,,,,,,,,,,,,,,,,,
,,,,,,,,,,,,,,,,,5fc7fb7982f3c510bb6e6b62,42,2022-02-12_12h48.02.611,lexical_decision_task_DD_L2,2021.2.3,MacIntel,60.0024001,,,,,,,,,,,0.7536,1,,,,,,,,,,,,,,z,1,0.7536,,,,,,,,0.799982639,-0.031175944,0,0,0,,0,155,155,104,1,GITTY,LB,old,z,./images/GITTYLB.png,,,,,,,,,,,,,,,,,,,,,,,,,,,,,,,,,,,
,,,,,,,,,,,,,,,,,5fc7fb7982f3c510bb6e6b62,42,2022-02-12_12h48.02.611,lexical_decision_task_DD_L2,2021.2.3,MacIntel,60.0024001,,,,,,,,,,,1.3004,1,,,,,,,,,,,,,,z,1,1.3004,,,,,,,,0.799982639,-0.031175944,0,0,0,,0,156,156,103,1,FLORT,HB,old,z,./images/FLORTHB.png,,,,,,,,,,,,,,,,,,,,,,,,,,,,,,,,,,,
,,,,,,,,,,,,,,,,,5fc7fb7982f3c510bb6e6b62,42,2022-02-12_12h48.02.611,lexical_decision_task_DD_L2,2021.2.3,MacIntel,60.0024001,,,,,,,,,,,0.6794,1,,,,,,,,,,,,,,z,1,0.6794,,,,,,,,0.799982639,-0.031175944,0,0,0,,0,157,157,153,1,CLUPS,C,old,z,./images/CLUPS.png,,,,,,,,,,,,,,,,,,,,,,,,,,,,,,,,,,,
,,,,,,,,,,,,,,,,,5fc7fb7982f3c510bb6e6b62,42,2022-02-12_12h48.02.611,lexical_decision_task_DD_L2,2021.2.3,MacIntel,60.0024001,,,,,,,,,,,0.7543,1,,,,,,,,,,,,,,z,1,0.7543,,,,,,,,0.799982639,-0.031175944,0,0,0,,0,158,158,155,1,CANGY,LB,old,z,./images/CANGYLB.png,,,,,,,,,,,,,,,,,,,,,,,,,,,,,,,,,,,
,,,,,,,,,,,,,,,,,5fc7fb7982f3c510bb6e6b62,42,2022-02-12_12h48.02.611,lexical_decision_task_DD_L2,2021.2.3,MacIntel,60.0024001,,,,,,,,,,,0.8022,1,,,,,,,,,,,,,,m,1,0.8022,,,,,,,,0.799982639,-0.031175944,0,0,0,,0,159,159,37,1,BIRTH,LB,old,m,./images/BIRTHLB.png,,,,,,,,,,,,,,,,,,,,,,,,,,,,,,,,,,,
,,,,,,,,,,,,,,,,,5fc7fb7982f3c510bb6e6b62,42,2022-02-12_12h48.02.611,lexical_decision_task_DD_L2,2021.2.3,MacIntel,60.0024001,,,,,,,,,,,0.697,1,,,,,,,,,,,,,,z,1,0.697,,,,,,,,0.799982639,-0.031175944,0,0,0,,0,160,160,108,1,GRUET,C,old,z,./images/GRUET.png,,,,,,,,,,,,,,,,,,,,,,,,,,,,,,,,,,,
,,,,,,,,,,,,,,,,,5fc7fb7982f3c510bb6e6b62,42,2022-02-12_12h48.02.611,lexical_decision_task_DD_L2,2021.2.3,MacIntel,60.0024001,,,,,,,,,,,0.9101,1,,,,,,,,,,,,,,m,1,0.9101,,,,,,,,0.799982639,-0.031175944,0,0,0,,0,161,161,71,1,PIMPLE,C,old,m,./images/PIMPLE.png,,,,,,,,,,,,,,,,,,,,,,,,,,,,,,,,,,,
,,,,,,,,,,,,,,,,,5fc7fb7982f3c510bb6e6b62,42,2022-02-12_12h48.02.611,lexical_decision_task_DD_L2,2021.2.3,MacIntel,60.0024001,,,,,,,,,,,0.7738,1,,,,,,,,,,,,,,m,1,0.7738,,,,,,,,0.799982639,-0.031175944,0,0,0,,0,162,162,29,1,CRUMB,C,old,m,./images/CRUMB.png,,,,,,,,,,,,,,,,,,,,,,,,,,,,,,,,,,,
,,,,,,,,,,,,,,,,,5fc7fb7982f3c510bb6e6b62,42,2022-02-12_12h48.02.611,lexical_decision_task_DD_L2,2021.2.3,MacIntel,60.0024001,,,,,,,,,,,0.7296,1,,,,,,,,,,,,,,z,1,0.7296,,,,,,,,0.799982639,-0.031175944,0,0,0,,0,163,163,115,1,MAWNS,HB,old,z,./images/MAWNSHB.png,,,,,,,,,,,,,,,,,,,,,,,,,,,,,,,,,,,
,,,,,,,,,,,,,,,,,5fc7fb7982f3c510bb6e6b62,42,2022-02-12_12h48.02.611,lexical_decision_task_DD_L2,2021.2.3,MacIntel,60.0024001,,,,,,,,,,,0.6537,1,,,,,,,,,,,,,,z,1,0.6537,,,,,,,,0.799982639,-0.031175944,0,0,0,,0,164,164,164,1,SGREW,LB,old,z,./images/SGREWLB.png,,,,,,,,,,,,,,,,,,,,,,,,,,,,,,,,,,,
,,,,,,,,,,,,,,,,,5fc7fb7982f3c510bb6e6b62,42,2022-02-12_12h48.02.611,lexical_decision_task_DD_L2,2021.2.3,MacIntel,60.0024001,,,,,,,,,,,1.0037,1,,,,,,,,,,,,,,z,1,1.0037,,,,,,,,0.799982639,-0.031175944,0,0,0,,0,165,165,91,1,SHENS,HB,old,z,./images/SHENSHB.png,,,,,,,,,,,,,,,,,,,,,,,,,,,,,,,,,,,
,,,,,,,,,,,,,,,,,5fc7fb7982f3c510bb6e6b62,42,2022-02-12_12h48.02.611,lexical_decision_task_DD_L2,2021.2.3,MacIntel,60.0024001,,,,,,,,,,,0.7743,1,,,,,,,,,,,,,,z,1,0.7743,,,,,,,,0.799982639,-0.031175944,0,0,0,,0,166,166,105,1,MOKER,C,old,z,./images/MOKER.png,,,,,,,,,,,,,,,,,,,,,,,,,,,,,,,,,,,
,,,,,,,,,,,,,,,,,5fc7fb7982f3c510bb6e6b62,42,2022-02-12_12h48.02.611,lexical_decision_task_DD_L2,2021.2.3,MacIntel,60.0024001,,,,,,,,,,,0.6895,1,,,,,,,,,,,,,,m,1,0.6895,,,,,,,,0.799982639,-0.031175944,0,0,0,,0,167,167,23,1,WALRUS,C,old,m,./images/WALRUS.png,,,,,,,,,,,,,,,,,,,,,,,,,,,,,,,,,,,
,,,,,,,,,,,,,,,,,5fc7fb7982f3c510bb6e6b62,42,2022-02-12_12h48.02.611,lexical_decision_task_DD_L2,2021.2.3,MacIntel,60.0024001,,,,,,,,,,,,,,,,,,,,,,,,,,,,,,,,,,,,,,,,,,,,,,,,How likely will it be that you will recognize the words presented very blurred on a scale of 0 (not likely) to 100 (most likely)?,,,,,0.001625977,-0.397608168,1,0,0,jol_adv,2,9.1875,0,0,0,2,1,,,,,,,,,,,,,,,,,,,,,
,,,,,,,,,,,,,,,,,5fc7fb7982f3c510bb6e6b62,42,2022-02-12_12h48.02.611,lexical_decision_task_DD_L2,2021.2.3,MacIntel,60.0024001,,,,,,,,,,,,,,,,,,,,,,,,,,,,,,,,,,,,,,,,,,,,,,,,How likely will it be that you will recognize the words presented slighly blurred on a scale of 0 (not likely) to 100 (most likely)?,,,,,,,,,,,5,5.4751,0,1,1,1,1,,,,,,,,,,,,,,,,,,,,,
,,,,,,,,,,,,,,,,,5fc7fb7982f3c510bb6e6b62,42,2022-02-12_12h48.02.611,lexical_decision_task_DD_L2,2021.2.3,MacIntel,60.0024001,,,,,,,,,,,,,,,,,,,,,,,,,,,,,,,,,,,,,,,,,,,,,,,,How likely will it be that you will recognize the words presented clearly on a scale of 0 (not likely) to 100 (most likely)?,,,,,,,,,,,6,9.5122,0,2,2,0,1,,,,,,,,,,,,,,,,,,,,,
space,17.7156,0.223765191,-0.020302361,0,0,0,,,,,,1,test,"In the next phase you will be presented with the words from the the first phase. Your job is to decide whether you remember seeing the word or not. If you remember seeing the word press ""old"" or type ""m"". If you do not remember seeing the word press ""new"" or type ""z"". Please press the space bar or click on continue to begin. ",,,5fc7fb7982f3c510bb6e6b62,42,2022-02-12_12h48.02.611,lexical_decision_task_DD_L2,2021.2.3,MacIntel,60.0024001,,,,,,,,,,,,,,,,,,,,,,,,,,,,,,,,,,,,,,,,,,,,,,,,,,,,,,,,,,,,,,,,,,0,0,0,0,1,,,,,,,,,,,,,,,,
space,5.1516,0.223765191,-0.020302361,0,0,0,,,,,,1,test,"In the next phase you will be presented with the words from the the first phase. Your job is to decide whether you remember seeing the word or not. If you remember seeing the word press ""old"" or type ""m"". If you do not remember seeing the word press ""new"" or type ""z"". Please press the space bar or click on continue to begin. ",,,5fc7fb7982f3c510bb6e6b62,42,2022-02-12_12h48.02.611,lexical_decision_task_DD_L2,2021.2.3,MacIntel,60.0024001,,,,,,,,,,,,,,,,,,,,,,,,,,,,,,,,,,,,,,,,,,,,,,,,,,,,,,,,,,,,,,,,,,1,0,1,0,1,,,,,,,,,,,,,,,,
,,-0.018247206,-0.428597412,1,0,0,,,,,,1,test,"In the next phase you will be presented with the words from the the first phase. Your job is to decide whether you remember seeing the word or not. If you remember seeing the word press ""old"" or type ""m"". If you do not remember seeing the word press ""new"" or type ""z"". Please press the space bar or click on continue to begin. ",,,5fc7fb7982f3c510bb6e6b62,42,2022-02-12_12h48.02.611,lexical_decision_task_DD_L2,2021.2.3,MacIntel,60.0024001,,,,,,,,,,,,,,,,,,,,,,,,,,,,,,,,,,,,,,,,,,,,,,,,,,,,,,,,,,,,,,,,,,2,0,2,0,1,instr_done_button,,,,,,,,,,,,,,,
,,0.04880622,-0.394505073,1,0,0,,,,,,1,test,"In the next phase you will be presented with the words from the the first phase. Your job is to decide whether you remember seeing the word or not. If you remember seeing the word press ""old"" or type ""m"". If you do not remember seeing the word press ""new"" or type ""z"". Please press the space bar or click on continue to begin. ",,,5fc7fb7982f3c510bb6e6b62,42,2022-02-12_12h48.02.611,lexical_decision_task_DD_L2,2021.2.3,MacIntel,60.0024001,,,,,,,,,,,,,,,,,,,,,,,,,,,,,,,,,,,,,,,,,,,,,,,,,,,,,,,,,,,,,,,,,,3,0,3,0,1,instr_done_button,,,,,,,,,,,,,,,
,,0.04880622,-0.394505073,1,0,0,,,,,,1,test,"In the next phase you will be presented with the words from the the first phase. Your job is to decide whether you remember seeing the word or not. If you remember seeing the word press ""old"" or type ""m"". If you do not remember seeing the word press ""new"" or type ""z"". Please press the space bar or click on continue to begin. ",,,5fc7fb7982f3c510bb6e6b62,42,2022-02-12_12h48.02.611,lexical_decision_task_DD_L2,2021.2.3,MacIntel,60.0024001,,,,,,,,,,,,,,,,,,,,,,,,,,,,,,,,,,,,,,,,,,,,,,,,,,,,,,,,,,,,,,,,,,4,0,4,0,1,instr_done_button,,,,,,,,,,,,,,,
,,,,,,,,,,,,,,,,,5fc7fb7982f3c510bb6e6b62,42,2022-02-12_12h48.02.611,lexical_decision_task_DD_L2,2021.2.3,MacIntel,60.0024001,,,,,,,,,,,2.7355,1,,,,,,,,,,,,,,,,,,,,,,,,0.197022705,-0.224614868,0,0,0,,,,,,,DOUGH,LB,m,y,./images/DOUGHLB.png,,,,,,,,,,,,,,,,,,,,,m,1,2.7355,,,,,,,,0,0,0,19,1
,,,,,,,,,,,,,,,,,5fc7fb7982f3c510bb6e6b62,42,2022-02-12_12h48.02.611,lexical_decision_task_DD_L2,2021.2.3,MacIntel,60.0024001,,,,,,,,,,,1.2259,1,,,,,,,,,,,,,,,,,,,,,,,,0.197022705,-0.224614868,0,0,0,,,,,,,BRIDE,LB,z,y,./images/BRIDELB.png,,,,,,,,,,,,,,,,,,,,,z,1,1.2259,,,,,,,,0,1,1,148,1
,,,,,,,,,,,,,,,,,5fc7fb7982f3c510bb6e6b62,42,2022-02-12_12h48.02.611,lexical_decision_task_DD_L2,2021.2.3,MacIntel,60.0024001,,,,,,,,,,,1.2451,1,,,,,,,,,,,,,,,,,,,,,,,,0.197022705,-0.224614868,0,0,0,,,,,,,ALLEY,LB,z,y,./images/ALLEYLB.png,,,,,,,,,,,,,,,,,,,,,z,1,1.2451,,,,,,,,0,2,2,139,1
,,,,,,,,,,,,,,,,,5fc7fb7982f3c510bb6e6b62,42,2022-02-12_12h48.02.611,lexical_decision_task_DD_L2,2021.2.3,MacIntel,60.0024001,,,,,,,,,,,1.596,1,,,,,,,,,,,,,,,,,,,,,,,,0.197022705,-0.224614868,0,0,0,,,,,,,HEATER,C,z,y,./images/HEATER.png,,,,,,,,,,,,,,,,,,,,,z,1,1.596,,,,,,,,0,3,3,140,1
,,,,,,,,,,,,,,,,,5fc7fb7982f3c510bb6e6b62,42,2022-02-12_12h48.02.611,lexical_decision_task_DD_L2,2021.2.3,MacIntel,60.0024001,,,,,,,,,,,1.3391,1,,,,,,,,,,,,,,,,,,,,,,,,0.197022705,-0.224614868,0,0,0,,,,,,,BOILER,HB,z,y,./images/BOILERHB.png,,,,,,,,,,,,,,,,,,,,,z,1,1.3391,,,,,,,,0,4,4,120,1
,,,,,,,,,,,,,,,,,5fc7fb7982f3c510bb6e6b62,42,2022-02-12_12h48.02.611,lexical_decision_task_DD_L2,2021.2.3,MacIntel,60.0024001,,,,,,,,,,,0.8368,1,,,,,,,,,,,,,,,,,,,,,,,,0.197022705,-0.224614868,0,0,0,,,,,,,MELON,LB,m,y,./images/MELONLB.png,,,,,,,,,,,,,,,,,,,,,m,1,0.8368,,,,,,,,0,5,5,22,1
,,,,,,,,,,,,,,,,,5fc7fb7982f3c510bb6e6b62,42,2022-02-12_12h48.02.611,lexical_decision_task_DD_L2,2021.2.3,MacIntel,60.0024001,,,,,,,,,,,0.8693,1,,,,,,,,,,,,,,,,,,,,,,,,0.197022705,-0.224614868,0,0,0,,,,,,,SAUCE,HB,z,y,./images/SAUCEHB.png,,,,,,,,,,,,,,,,,,,,,z,1,0.8693,,,,,,,,0,6,6,135,1
,,,,,,,,,,,,,,,,,5fc7fb7982f3c510bb6e6b62,42,2022-02-12_12h48.02.611,lexical_decision_task_DD_L2,2021.2.3,MacIntel,60.0024001,,,,,,,,,,,1.605,0,,,,,,,,,,,,,,,,,,,,,,,,0.197022705,-0.224614868,0,0,0,,,,,,,STEAK,LB,z,y,./images/STEAKLB.png,,,,,,,,,,,,,,,,,,,,,m,0,1.605,,,,,,,,0,7,7,115,1
,,,,,,,,,,,,,,,,,5fc7fb7982f3c510bb6e6b62,42,2022-02-12_12h48.02.611,lexical_decision_task_DD_L2,2021.2.3,MacIntel,60.0024001,,,,,,,,,,,0.8389,1,,,,,,,,,,,,,,,,,,,,,,,,0.197022705,-0.224614868,0,0,0,,,,,,,LITTER,HB,m,y,./images/LITTERHB.png,,,,,,,,,,,,,,,,,,,,,m,1,0.8389,,,,,,,,0,8,8,78,1
,,,,,,,,,,,,,,,,,5fc7fb7982f3c510bb6e6b62,42,2022-02-12_12h48.02.611,lexical_decision_task_DD_L2,2021.2.3,MacIntel,60.0024001,,,,,,,,,,,0.7846,1,,,,,,,,,,,,,,,,,,,,,,,,0.197022705,-0.224614868,0,0,0,,,,,,,FINGER,HB,m,y,./images/FINGERHB.png,,,,,,,,,,,,,,,,,,,,,m,1,0.7846,,,,,,,,0,9,9,3,1
,,,,,,,,,,,,,,,,,5fc7fb7982f3c510bb6e6b62,42,2022-02-12_12h48.02.611,lexical_decision_task_DD_L2,2021.2.3,MacIntel,60.0024001,,,,,,,,,,,1.259,0,,,,,,,,,,,,,,,,,,,,,,,,0.197022705,-0.224614868,0,0,0,,,,,,,LIZARD,C,m,y,./images/LIZARD.png,,,,,,,,,,,,,,,,,,,,,z,0,1.259,,,,,,,,0,10,10,44,1
,,,,,,,,,,,,,,,,,5fc7fb7982f3c510bb6e6b62,42,2022-02-12_12h48.02.611,lexical_decision_task_DD_L2,2021.2.3,MacIntel,60.0024001,,,,,,,,,,,0.9573,0,,,,,,,,,,,,,,,,,,,,,,,,0.197022705,-0.224614868,0,0,0,,,,,,,WEASEL,C,m,y,./images/WEASEL.png,,,,,,,,,,,,,,,,,,,,,z,0,0.9573,,,,,,,,0,11,11,80,1
,,,,,,,,,,,,,,,,,5fc7fb7982f3c510bb6e6b62,42,2022-02-12_12h48.02.611,lexical_decision_task_DD_L2,2021.2.3,MacIntel,60.0024001,,,,,,,,,,,1.3429,0,,,,,,,,,,,,,,,,,,,,,,,,0.197022705,-0.224614868,0,0,0,,,,,,,ATTIC,HB,m,y,./images/ATTICHB.png,,,,,,,,,,,,,,,,,,,,,z,0,1.3429,,,,,,,,0,12,12,27,1
,,,,,,,,,,,,,,,,,5fc7fb7982f3c510bb6e6b62,42,2022-02-12_12h48.02.611,lexical_decision_task_DD_L2,2021.2.3,MacIntel,60.0024001,,,,,,,,,,,0.7943,1,,,,,,,,,,,,,,,,,,,,,,,,0.197022705,-0.224614868,0,0,0,,,,,,,KITTEN,HB,m,y,./images/KITTENHB.png,,,,,,,,,,,,,,,,,,,,,m,1,0.7943,,,,,,,,0,13,13,45,1
,,,,,,,,,,,,,,,,,5fc7fb7982f3c510bb6e6b62,42,2022-02-12_12h48.02.611,lexical_decision_task_DD_L2,2021.2.3,MacIntel,60.0024001,,,,,,,,,,,1.0671,0,,,,,,,,,,,,,,,,,,,,,,,,0.197022705,-0.224614868,0,0,0,,,,,,,SMOKER,C,m,y,./images/SMOKER.png,,,,,,,,,,,,,,,,,,,,,z,0,1.0671,,,,,,,,0,14,14,26,1
,,,,,,,,,,,,,,,,,5fc7fb7982f3c510bb6e6b62,42,2022-02-12_12h48.02.611,lexical_decision_task_DD_L2,2021.2.3,MacIntel,60.0024001,,,,,,,,,,,0.9715,0,,,,,,,,,,,,,,,,,,,,,,,,0.197022705,-0.224614868,0,0,0,,,,,,,STATUE,HB,z,y,./images/STATUEHB.png,,,,,,,,,,,,,,,,,,,,,m,0,0.9715,,,,,,,,0,15,15,150,1
,,,,,,,,,,,,,,,,,5fc7fb7982f3c510bb6e6b62,42,2022-02-12_12h48.02.611,lexical_decision_task_DD_L2,2021.2.3,MacIntel,60.0024001,,,,,,,,,,,1.1022,1,,,,,,,,,,,,,,,,,,,,,,,,0.197022705,-0.224614868,0,0,0,,,,,,,COOKER,HB,m,y,./images/COOKERHB.png,,,,,,,,,,,,,,,,,,,,,m,1,1.1022,,,,,,,,0,16,16,69,1
,,,,,,,,,,,,,,,,,5fc7fb7982f3c510bb6e6b62,42,2022-02-12_12h48.02.611,lexical_decision_task_DD_L2,2021.2.3,MacIntel,60.0024001,,,,,,,,,,,1.0523,1,,,,,,,,,,,,,,,,,,,,,,,,0.197022705,-0.224614868,0,0,0,,,,,,,SQUARE,HB,m,y,./images/SQUAREHB.png,,,,,,,,,,,,,,,,,,,,,m,1,1.0523,,,,,,,,0,17,17,6,1
,,,,,,,,,,,,,,,,,5fc7fb7982f3c510bb6e6b62,42,2022-02-12_12h48.02.611,lexical_decision_task_DD_L2,2021.2.3,MacIntel,60.0024001,,,,,,,,,,,0.9787,0,,,,,,,,,,,,,,,,,,,,,,,,0.197022705,-0.224614868,0,0,0,,,,,,,TWINS,HB,m,y,./images/TWINSHB.png,,,,,,,,,,,,,,,,,,,,,z,0,0.9787,,,,,,,,0,18,18,60,1
,,,,,,,,,,,,,,,,,5fc7fb7982f3c510bb6e6b62,42,2022-02-12_12h48.02.611,lexical_decision_task_DD_L2,2021.2.3,MacIntel,60.0024001,,,,,,,,,,,1.0954,0,,,,,,,,,,,,,,,,,,,,,,,,0.197022705,-0.224614868,0,0,0,,,,,,,PASTA,C,m,y,./images/PASTA.png,,,,,,,,,,,,,,,,,,,,,z,0,1.0954,,,,,,,,0,19,19,5,1
,,,,,,,,,,,,,,,,,5fc7fb7982f3c510bb6e6b62,42,2022-02-12_12h48.02.611,lexical_decision_task_DD_L2,2021.2.3,MacIntel,60.0024001,,,,,,,,,,,0.9681,0,,,,,,,,,,,,,,,,,,,,,,,,0.197022705,-0.224614868,0,0,0,,,,,,,MOTOR,LB,m,y,./images/MOTORLB.png,,,,,,,,,,,,,,,,,,,,,z,0,0.9681,,,,,,,,0,20,20,13,1
,,,,,,,,,,,,,,,,,5fc7fb7982f3c510bb6e6b62,42,2022-02-12_12h48.02.611,lexical_decision_task_DD_L2,2021.2.3,MacIntel,60.0024001,,,,,,,,,,,0.8886,1,,,,,,,,,,,,,,,,,,,,,,,,0.197022705,-0.224614868,0,0,0,,,,,,,CANDY,HB,z,y,./images/CANDYHB.png,,,,,,,,,,,,,,,,,,,,,z,1,0.8886,,,,,,,,0,21,21,123,1
,,,,,,,,,,,,,,,,,5fc7fb7982f3c510bb6e6b62,42,2022-02-12_12h48.02.611,lexical_decision_task_DD_L2,2021.2.3,MacIntel,60.0024001,,,,,,,,,,,1.5701,1,,,,,,,,,,,,,,,,,,,,,,,,0.197022705,-0.224614868,0,0,0,,,,,,,THROAT,HB,m,y,./images/THROATHB.png,,,,,,,,,,,,,,,,,,,,,m,1,1.5701,,,,,,,,0,22,22,36,1
,,,,,,,,,,,,,,,,,5fc7fb7982f3c510bb6e6b62,42,2022-02-12_12h48.02.611,lexical_decision_task_DD_L2,2021.2.3,MacIntel,60.0024001,,,,,,,,,,,2.2043,1,,,,,,,,,,,,,,,,,,,,,,,,0.197022705,-0.224614868,0,0,0,,,,,,,FOLDER,HB,m,y,./images/FOLDERHB.png,,,,,,,,,,,,,,,,,,,,,m,1,2.2043,,,,,,,,0,23,23,42,1
,,,,,,,,,,,,,,,,,5fc7fb7982f3c510bb6e6b62,42,2022-02-12_12h48.02.611,lexical_decision_task_DD_L2,2021.2.3,MacIntel,60.0024001,,,,,,,,,,,0.7678,1,,,,,,,,,,,,,,,,,,,,,,,,0.197022705,-0.224614868,0,0,0,,,,,,,FERRY,HB,z,y,./images/FERRYHB.png,,,,,,,,,,,,,,,,,,,,,z,1,0.7678,,,,,,,,0,24,24,141,1
,,,,,,,,,,,,,,,,,5fc7fb7982f3c510bb6e6b62,42,2022-02-12_12h48.02.611,lexical_decision_task_DD_L2,2021.2.3,MacIntel,60.0024001,,,,,,,,,,,0.8013,1,,,,,,,,,,,,,,,,,,,,,,,,0.197022705,-0.224614868,0,0,0,,,,,,,CLOUD,C,z,y,./images/CLOUD.png,,,,,,,,,,,,,,,,,,,,,z,1,0.8013,,,,,,,,0,25,25,110,1
,,,,,,,,,,,,,,,,,5fc7fb7982f3c510bb6e6b62,42,2022-02-12_12h48.02.611,lexical_decision_task_DD_L2,2021.2.3,MacIntel,60.0024001,,,,,,,,,,,0.7024,1,,,,,,,,,,,,,,,,,,,,,,,,0.197022705,-0.224614868,0,0,0,,,,,,,TORCH,C,m,y,./images/TORCH.png,,,,,,,,,,,,,,,,,,,,,m,1,0.7024,,,,,,,,0,26,26,68,1
,,,,,,,,,,,,,,,,,5fc7fb7982f3c510bb6e6b62,42,2022-02-12_12h48.02.611,lexical_decision_task_DD_L2,2021.2.3,MacIntel,60.0024001,,,,,,,,,,,1.4296,1,,,,,,,,,,,,,,,,,,,,,,,,0.197022705,-0.224614868,0,0,0,,,,,,,RULER,LB,z,y,./images/RULERLB.png,,,,,,,,,,,,,,,,,,,,,z,1,1.4296,,,,,,,,0,27,27,163,1
,,,,,,,,,,,,,,,,,5fc7fb7982f3c510bb6e6b62,42,2022-02-12_12h48.02.611,lexical_decision_task_DD_L2,2021.2.3,MacIntel,60.0024001,,,,,,,,,,,1.0691,1,,,,,,,,,,,,,,,,,,,,,,,,0.197022705,-0.224614868,0,0,0,,,,,,,TOWEL,LB,z,y,./images/TOWELLB.png,,,,,,,,,,,,,,,,,,,,,z,1,1.0691,,,,,,,,0,28,28,85,1
,,,,,,,,,,,,,,,,,5fc7fb7982f3c510bb6e6b62,42,2022-02-12_12h48.02.611,lexical_decision_task_DD_L2,2021.2.3,MacIntel,60.0024001,,,,,,,,,,,0.8687,1,,,,,,,,,,,,,,,,,,,,,,,,0.197022705,-0.224614868,0,0,0,,,,,,,RAZOR,LB,z,y,./images/RAZORLB.png,,,,,,,,,,,,,,,,,,,,,z,1,0.8687,,,,,,,,0,29,29,118,1
,,,,,,,,,,,,,,,,,5fc7fb7982f3c510bb6e6b62,42,2022-02-12_12h48.02.611,lexical_decision_task_DD_L2,2021.2.3,MacIntel,60.0024001,,,,,,,,,,,0.7948,1,,,,,,,,,,,,,,,,,,,,,,,,0.197022705,-0.224614868,0,0,0,,,,,,,BROOM,HB,z,y,./images/BROOMHB.png,,,,,,,,,,,,,,,,,,,,,z,1,0.7948,,,,,,,,0,30,30,162,1
,,,,,,,,,,,,,,,,,5fc7fb7982f3c510bb6e6b62,42,2022-02-12_12h48.02.611,lexical_decision_task_DD_L2,2021.2.3,MacIntel,60.0024001,,,,,,,,,,,0.9522,1,,,,,,,,,,,,,,,,,,,,,,,,0.197022705,-0.224614868,0,0,0,,,,,,,BARREL,C,m,y,./images/BARREL.png,,,,,,,,,,,,,,,,,,,,,m,1,0.9522,,,,,,,,0,31,31,32,1
,,,,,,,,,,,,,,,,,5fc7fb7982f3c510bb6e6b62,42,2022-02-12_12h48.02.611,lexical_decision_task_DD_L2,2021.2.3,MacIntel,60.0024001,,,,,,,,,,,1.0629,1,,,,,,,,,,,,,,,,,,,,,,,,0.197022705,-0.224614868,0,0,0,,,,,,,PACKET,C,m,y,./images/PACKET.png,,,,,,,,,,,,,,,,,,,,,m,1,1.0629,,,,,,,,0,32,32,56,1
,,,,,,,,,,,,,,,,,5fc7fb7982f3c510bb6e6b62,42,2022-02-12_12h48.02.611,lexical_decision_task_DD_L2,2021.2.3,MacIntel,60.0024001,,,,,,,,,,,0.686,1,,,,,,,,,,,,,,,,,,,,,,,,0.197022705,-0.224614868,0,0,0,,,,,,,SNACK,LB,m,y,./images/SNACKLB.png,,,,,,,,,,,,,,,,,,,,,m,1,0.686,,,,,,,,0,33,33,73,1
,,,,,,,,,,,,,,,,,5fc7fb7982f3c510bb6e6b62,42,2022-02-12_12h48.02.611,lexical_decision_task_DD_L2,2021.2.3,MacIntel,60.0024001,,,,,,,,,,,1.0705,1,,,,,,,,,,,,,,,,,,,,,,,,0.197022705,-0.224614868,0,0,0,,,,,,,DONKEY,LB,z,y,./images/DONKEYLB.png,,,,,,,,,,,,,,,,,,,,,z,1,1.0705,,,,,,,,0,34,34,103,1
,,,,,,,,,,,,,,,,,5fc7fb7982f3c510bb6e6b62,42,2022-02-12_12h48.02.611,lexical_decision_task_DD_L2,2021.2.3,MacIntel,60.0024001,,,,,,,,,,,0.8683,1,,,,,,,,,,,,,,,,,,,,,,,,0.197022705,-0.224614868,0,0,0,,,,,,,FLESH,HB,z,y,./images/FLESHHB.png,,,,,,,,,,,,,,,,,,,,,z,1,0.8683,,,,,,,,0,35,35,108,1
,,,,,,,,,,,,,,,,,5fc7fb7982f3c510bb6e6b62,42,2022-02-12_12h48.02.611,lexical_decision_task_DD_L2,2021.2.3,MacIntel,60.0024001,,,,,,,,,,,0.7856,1,,,,,,,,,,,,,,,,,,,,,,,,0.197022705,-0.224614868,0,0,0,,,,,,,HAMMER,HB,z,y,./images/HAMMERHB.png,,,,,,,,,,,,,,,,,,,,,z,1,0.7856,,,,,,,,0,36,36,159,1
,,,,,,,,,,,,,,,,,5fc7fb7982f3c510bb6e6b62,42,2022-02-12_12h48.02.611,lexical_decision_task_DD_L2,2021.2.3,MacIntel,60.0024001,,,,,,,,,,,1.0355,1,,,,,,,,,,,,,,,,,,,,,,,,0.197022705,-0.224614868,0,0,0,,,,,,,STRING,C,m,y,./images/STRING.png,,,,,,,,,,,,,,,,,,,,,m,1,1.0355,,,,,,,,0,37,37,41,1
,,,,,,,,,,,,,,,,,5fc7fb7982f3c510bb6e6b62,42,2022-02-12_12h48.02.611,lexical_decision_task_DD_L2,2021.2.3,MacIntel,60.0024001,,,,,,,,,,,0.724,1,,,,,,,,,,,,,,,,,,,,,,,,0.197022705,-0.224614868,0,0,0,,,,,,,PISTOL,C,z,y,./images/PISTOL.png,,,,,,,,,,,,,,,,,,,,,z,1,0.724,,,,,,,,0,38,38,113,1
,,,,,,,,,,,,,,,,,5fc7fb7982f3c510bb6e6b62,42,2022-02-12_12h48.02.611,lexical_decision_task_DD_L2,2021.2.3,MacIntel,60.0024001,,,,,,,,,,,0.7666,1,,,,,,,,,,,,,,,,,,,,,,,,0.197022705,-0.224614868,0,0,0,,,,,,,ENGINE,C,z,y,./images/ENGINE.png,,,,,,,,,,,,,,,,,,,,,z,1,0.7666,,,,,,,,0,39,39,122,1
,,,,,,,,,,,,,,,,,5fc7fb7982f3c510bb6e6b62,42,2022-02-12_12h48.02.611,lexical_decision_task_DD_L2,2021.2.3,MacIntel,60.0024001,,,,,,,,,,,1.8908,1,,,,,,,,,,,,,,,,,,,,,,,,0.197022705,-0.224614868,0,0,0,,,,,,,SAILOR,LB,m,y,./images/SAILORLB.png,,,,,,,,,,,,,,,,,,,,,m,1,1.8908,,,,,,,,0,40,40,67,1
,,,,,,,,,,,,,,,,,5fc7fb7982f3c510bb6e6b62,42,2022-02-12_12h48.02.611,lexical_decision_task_DD_L2,2021.2.3,MacIntel,60.0024001,,,,,,,,,,,0.8348,1,,,,,,,,,,,,,,,,,,,,,,,,0.197022705,-0.224614868,0,0,0,space,,,,,,TULIP,C,m,y,./images/TULIP.png,8.3897,,,,,,,,,,,,,,,,,,,,m,1,0.8348,,,,,,,,0,41,41,8,1
,,,,,,,,,,,,,,,,,5fc7fb7982f3c510bb6e6b62,42,2022-02-12_12h48.02.611,lexical_decision_task_DD_L2,2021.2.3,MacIntel,60.0024001,,,,,,,,,,,1.0842,0,,,,,,,,,,,,,,,,,,,,,,,,0.197022705,-0.224614868,0,0,0,,,,,,,TOMATO,HB,m,y,./images/TOMATOHB.png,,,,,,,,,,,,,,,,,,,,,z,0,1.0842,,,,,,,,0,42,42,0,1
,,,,,,,,,,,,,,,,,5fc7fb7982f3c510bb6e6b62,42,2022-02-12_12h48.02.611,lexical_decision_task_DD_L2,2021.2.3,MacIntel,60.0024001,,,,,,,,,,,1.0011,1,,,,,,,,,,,,,,,,,,,,,,,,0.197022705,-0.224614868,0,0,0,,,,,,,PIMPLE,C,m,y,./images/PIMPLE.png,,,,,,,,,,,,,,,,,,,,,m,1,1.0011,,,,,,,,0,43,43,71,1
,,,,,,,,,,,,,,,,,5fc7fb7982f3c510bb6e6b62,42,2022-02-12_12h48.02.611,lexical_decision_task_DD_L2,2021.2.3,MacIntel,60.0024001,,,,,,,,,,,0.8096,0,,,,,,,,,,,,,,,,,,,,,,,,0.197022705,-0.224614868,0,0,0,,,,,,,GRAIN,HB,m,y,./images/GRAINHB.png,,,,,,,,,,,,,,,,,,,,,z,0,0.8096,,,,,,,,0,44,44,75,1
,,,,,,,,,,,,,,,,,5fc7fb7982f3c510bb6e6b62,42,2022-02-12_12h48.02.611,lexical_decision_task_DD_L2,2021.2.3,MacIntel,60.0024001,,,,,,,,,,,0.7852,1,,,,,,,,,,,,,,,,,,,,,,,,0.197022705,-0.224614868,0,0,0,,,,,,,COLLAR,HB,z,y,./images/COLLARHB.png,,,,,,,,,,,,,,,,,,,,,z,1,0.7852,,,,,,,,0,45,45,99,1
,,,,,,,,,,,,,,,,,5fc7fb7982f3c510bb6e6b62,42,2022-02-12_12h48.02.611,lexical_decision_task_DD_L2,2021.2.3,MacIntel,60.0024001,,,,,,,,,,,1.803,0,,,,,,,,,,,,,,,,,,,,,,,,0.197022705,-0.224614868,0,0,0,,,,,,,RHINO,HB,m,y,./images/RHINOHB.png,,,,,,,,,,,,,,,,,,,,,z,0,1.803,,,,,,,,0,46,46,9,1
,,,,,,,,,,,,,,,,,5fc7fb7982f3c510bb6e6b62,42,2022-02-12_12h48.02.611,lexical_decision_task_DD_L2,2021.2.3,MacIntel,60.0024001,,,,,,,,,,,0.8955,1,,,,,,,,,,,,,,,,,,,,,,,,0.197022705,-0.224614868,0,0,0,,,,,,,POODLE,HB,m,y,./images/POODLEHB.png,,,,,,,,,,,,,,,,,,,,,m,1,0.8955,,,,,,,,0,47,47,81,1
,,,,,,,,,,,,,,,,,5fc7fb7982f3c510bb6e6b62,42,2022-02-12_12h48.02.611,lexical_decision_task_DD_L2,2021.2.3,MacIntel,60.0024001,,,,,,,,,,,0.7423,0,,,,,,,,,,,,,,,,,,,,,,,,0.197022705,-0.224614868,0,0,0,,,,,,,JUMPER,C,z,y,./images/JUMPER.png,,,,,,,,,,,,,,,,,,,,,m,0,0.7423,,,,,,,,0,48,48,158,1
,,,,,,,,,,,,,,,,,5fc7fb7982f3c510bb6e6b62,42,2022-02-12_12h48.02.611,lexical_decision_task_DD_L2,2021.2.3,MacIntel,60.0024001,,,,,,,,,,,0.6872,0,,,,,,,,,,,,,,,,,,,,,,,,0.197022705,-0.224614868,0,0,0,,,,,,,PAINT,LB,m,y,./images/PAINTLB.png,,,,,,,,,,,,,,,,,,,,,z,0,0.6872,,,,,,,,0,49,49,7,1
,,,,,,,,,,,,,,,,,5fc7fb7982f3c510bb6e6b62,42,2022-02-12_12h48.02.611,lexical_decision_task_DD_L2,2021.2.3,MacIntel,60.0024001,,,,,,,,,,,0.9842,1,,,,,,,,,,,,,,,,,,,,,,,,0.197022705,-0.224614868,0,0,0,,,,,,,GREASE,HB,m,y,./images/GREASEHB.png,,,,,,,,,,,,,,,,,,,,,m,1,0.9842,,,,,,,,0,50,50,15,1
,,,,,,,,,,,,,,,,,5fc7fb7982f3c510bb6e6b62,42,2022-02-12_12h48.02.611,lexical_decision_task_DD_L2,2021.2.3,MacIntel,60.0024001,,,,,,,,,,,0.7763,0,,,,,,,,,,,,,,,,,,,,,,,,0.197022705,-0.224614868,0,0,0,,,,,,,WALNUT,HB,z,y,./images/WALNUTHB.png,,,,,,,,,,,,,,,,,,,,,m,0,0.7763,,,,,,,,0,51,51,84,1
,,,,,,,,,,,,,,,,,5fc7fb7982f3c510bb6e6b62,42,2022-02-12_12h48.02.611,lexical_decision_task_DD_L2,2021.2.3,MacIntel,60.0024001,,,,,,,,,,,0.8841,1,,,,,,,,,,,,,,,,,,,,,,,,0.197022705,-0.224614868,0,0,0,,,,,,,SCREW,HB,m,y,./images/SCREWHB.png,,,,,,,,,,,,,,,,,,,,,m,1,0.8841,,,,,,,,0,52,52,24,1
,,,,,,,,,,,,,,,,,5fc7fb7982f3c510bb6e6b62,42,2022-02-12_12h48.02.611,lexical_decision_task_DD_L2,2021.2.3,MacIntel,60.0024001,,,,,,,,,,,0.8536,1,,,,,,,,,,,,,,,,,,,,,,,,0.197022705,-0.224614868,0,0,0,,,,,,,DIVER,HB,z,y,./images/DIVERHB.png,,,,,,,,,,,,,,,,,,,,,z,1,0.8536,,,,,,,,0,53,53,93,1
,,,,,,,,,,,,,,,,,5fc7fb7982f3c510bb6e6b62,42,2022-02-12_12h48.02.611,lexical_decision_task_DD_L2,2021.2.3,MacIntel,60.0024001,,,,,,,,,,,1.2861,1,,,,,,,,,,,,,,,,,,,,,,,,0.197022705,-0.224614868,0,0,0,,,,,,,CLOTH,C,z,y,./images/CLOTH.png,,,,,,,,,,,,,,,,,,,,,z,1,1.2861,,,,,,,,0,54,54,107,1
,,,,,,,,,,,,,,,,,5fc7fb7982f3c510bb6e6b62,42,2022-02-12_12h48.02.611,lexical_decision_task_DD_L2,2021.2.3,MacIntel,60.0024001,,,,,,,,,,,1.1535,1,,,,,,,,,,,,,,,,,,,,,,,,0.197022705,-0.224614868,0,0,0,,,,,,,MALLET,C,m,y,./images/MALLET.png,,,,,,,,,,,,,,,,,,,,,m,1,1.1535,,,,,,,,0,55,55,50,1
,,,,,,,,,,,,,,,,,5fc7fb7982f3c510bb6e6b62,42,2022-02-12_12h48.02.611,lexical_decision_task_DD_L2,2021.2.3,MacIntel,60.0024001,,,,,,,,,,,0.9203,0,,,,,,,,,,,,,,,,,,,,,,,,0.197022705,-0.224614868,0,0,0,,,,,,,SNAKE,LB,z,y,./images/SNAKELB.png,,,,,,,,,,,,,,,,,,,,,m,0,0.9203,,,,,,,,0,56,56,124,1
,,,,,,,,,,,,,,,,,5fc7fb7982f3c510bb6e6b62,42,2022-02-12_12h48.02.611,lexical_decision_task_DD_L2,2021.2.3,MacIntel,60.0024001,,,,,,,,,,,1.0229,1,,,,,,,,,,,,,,,,,,,,,,,,0.197022705,-0.224614868,0,0,0,,,,,,,BOXER,LB,z,y,./images/BOXERLB.png,,,,,,,,,,,,,,,,,,,,,z,1,1.0229,,,,,,,,0,57,57,88,1
,,,,,,,,,,,,,,,,,5fc7fb7982f3c510bb6e6b62,42,2022-02-12_12h48.02.611,lexical_decision_task_DD_L2,2021.2.3,MacIntel,60.0024001,,,,,,,,,,,0.9864,1,,,,,,,,,,,,,,,,,,,,,,,,0.197022705,-0.224614868,0,0,0,,,,,,,SPORT,HB,m,y,./images/SPORTHB.png,,,,,,,,,,,,,,,,,,,,,m,1,0.9864,,,,,,,,0,58,58,48,1
,,,,,,,,,,,,,,,,,5fc7fb7982f3c510bb6e6b62,42,2022-02-12_12h48.02.611,lexical_decision_task_DD_L2,2021.2.3,MacIntel,60.0024001,,,,,,,,,,,0.7036,1,,,,,,,,,,,,,,,,,,,,,,,,0.197022705,-0.224614868,0,0,0,,,,,,,GARDEN,LB,z,y,./images/GARDENLB.png,,,,,,,,,,,,,,,,,,,,,z,1,0.7036,,,,,,,,0,59,59,94,1
,,,,,,,,,,,,,,,,,5fc7fb7982f3c510bb6e6b62,42,2022-02-12_12h48.02.611,lexical_decision_task_DD_L2,2021.2.3,MacIntel,60.0024001,,,,,,,,,,,1.1054,1,,,,,,,,,,,,,,,,,,,,,,,,0.197022705,-0.224614868,0,0,0,,,,,,,CLOWN,LB,z,y,./images/CLOWNLB.png,,,,,,,,,,,,,,,,,,,,,z,1,1.1054,,,,,,,,0,60,60,106,1
,,,,,,,,,,,,,,,,,5fc7fb7982f3c510bb6e6b62,42,2022-02-12_12h48.02.611,lexical_decision_task_DD_L2,2021.2.3,MacIntel,60.0024001,,,,,,,,,,,0.8902,0,,,,,,,,,,,,,,,,,,,,,,,,0.197022705,-0.224614868,0,0,0,,,,,,,JUNGLE,C,m,y,./images/JUNGLE.png,,,,,,,,,,,,,,,,,,,,,z,0,0.8902,,,,,,,,0,61,61,83,1
,,,,,,,,,,,,,,,,,5fc7fb7982f3c510bb6e6b62,42,2022-02-12_12h48.02.611,lexical_decision_task_DD_L2,2021.2.3,MacIntel,60.0024001,,,,,,,,,,,0.8219,0,,,,,,,,,,,,,,,,,,,,,,,,0.197022705,-0.224614868,0,0,0,,,,,,,WRIST,LB,m,y,./images/WRISTLB.png,,,,,,,,,,,,,,,,,,,,,z,0,0.8219,,,,,,,,0,62,62,25,1
,,,,,,,,,,,,,,,,,5fc7fb7982f3c510bb6e6b62,42,2022-02-12_12h48.02.611,lexical_decision_task_DD_L2,2021.2.3,MacIntel,60.0024001,,,,,,,,,,,2.2123,1,,,,,,,,,,,,,,,,,,,,,,,,0.197022705,-0.224614868,0,0,0,,,,,,,BAKER,HB,z,y,./images/BAKERHB.png,,,,,,,,,,,,,,,,,,,,,z,1,2.2123,,,,,,,,0,63,63,147,1
,,,,,,,,,,,,,,,,,5fc7fb7982f3c510bb6e6b62,42,2022-02-12_12h48.02.611,lexical_decision_task_DD_L2,2021.2.3,MacIntel,60.0024001,,,,,,,,,,,1.3532,1,,,,,,,,,,,,,,,,,,,,,,,,0.197022705,-0.224614868,0,0,0,,,,,,,MAMMAL,C,z,y,./images/MAMMAL.png,,,,,,,,,,,,,,,,,,,,,z,1,1.3532,,,,,,,,0,64,64,146,1
,,,,,,,,,,,,,,,,,5fc7fb7982f3c510bb6e6b62,42,2022-02-12_12h48.02.611,lexical_decision_task_DD_L2,2021.2.3,MacIntel,60.0024001,,,,,,,,,,,1.1604,1,,,,,,,,,,,,,,,,,,,,,,,,0.197022705,-0.224614868,0,0,0,,,,,,,PURSE,C,m,y,./images/PURSE.png,,,,,,,,,,,,,,,,,,,,,m,1,1.1604,,,,,,,,0,65,65,62,1
,,,,,,,,,,,,,,,,,5fc7fb7982f3c510bb6e6b62,42,2022-02-12_12h48.02.611,lexical_decision_task_DD_L2,2021.2.3,MacIntel,60.0024001,,,,,,,,,,,0.8611,0,,,,,,,,,,,,,,,,,,,,,,,,0.197022705,-0.224614868,0,0,0,,,,,,,CHALK,LB,z,y,./images/CHALKLB.png,,,,,,,,,,,,,,,,,,,,,m,0,0.8611,,,,,,,,0,66,66,109,1
,,,,,,,,,,,,,,,,,5fc7fb7982f3c510bb6e6b62,42,2022-02-12_12h48.02.611,lexical_decision_task_DD_L2,2021.2.3,MacIntel,60.0024001,,,,,,,,,,,0.8558,0,,,,,,,,,,,,,,,,,,,,,,,,0.197022705,-0.224614868,0,0,0,,,,,,,JAGUAR,HB,m,y,./images/JAGUARHB.png,,,,,,,,,,,,,,,,,,,,,z,0,0.8558,,,,,,,,0,67,67,18,1
,,,,,,,,,,,,,,,,,5fc7fb7982f3c510bb6e6b62,42,2022-02-12_12h48.02.611,lexical_decision_task_DD_L2,2021.2.3,MacIntel,60.0024001,,,,,,,,,,,0.8521,1,,,,,,,,,,,,,,,,,,,,,,,,0.197022705,-0.224614868,0,0,0,,,,,,,SAUNA,HB,z,y,./images/SAUNAHB.png,,,,,,,,,,,,,,,,,,,,,z,1,0.8521,,,,,,,,0,68,68,117,1
,,,,,,,,,,,,,,,,,5fc7fb7982f3c510bb6e6b62,42,2022-02-12_12h48.02.611,lexical_decision_task_DD_L2,2021.2.3,MacIntel,60.0024001,,,,,,,,,,,1.0032,1,,,,,,,,,,,,,,,,,,,,,,,,0.197022705,-0.224614868,0,0,0,,,,,,,PEARL,LB,m,y,./images/PEARLLB.png,,,,,,,,,,,,,,,,,,,,,m,1,1.0032,,,,,,,,0,69,69,46,1
,,,,,,,,,,,,,,,,,5fc7fb7982f3c510bb6e6b62,42,2022-02-12_12h48.02.611,lexical_decision_task_DD_L2,2021.2.3,MacIntel,60.0024001,,,,,,,,,,,0.753,1,,,,,,,,,,,,,,,,,,,,,,,,0.197022705,-0.224614868,0,0,0,,,,,,,LLAMA,C,z,y,./images/LLAMA.png,,,,,,,,,,,,,,,,,,,,,z,1,0.753,,,,,,,,0,70,70,119,1
,,,,,,,,,,,,,,,,,5fc7fb7982f3c510bb6e6b62,42,2022-02-12_12h48.02.611,lexical_decision_task_DD_L2,2021.2.3,MacIntel,60.0024001,,,,,,,,,,,0.7852,0,,,,,,,,,,,,,,,,,,,,,,,,0.197022705,-0.224614868,0,0,0,,,,,,,CRUST,LB,m,y,./images/CRUSTLB.png,,,,,,,,,,,,,,,,,,,,,z,0,0.7852,,,,,,,,0,71,71,79,1
,,,,,,,,,,,,,,,,,5fc7fb7982f3c510bb6e6b62,42,2022-02-12_12h48.02.611,lexical_decision_task_DD_L2,2021.2.3,MacIntel,60.0024001,,,,,,,,,,,0.802,1,,,,,,,,,,,,,,,,,,,,,,,,0.197022705,-0.224614868,0,0,0,,,,,,,STOOL,LB,z,y,./images/STOOLLB.png,,,,,,,,,,,,,,,,,,,,,z,1,0.802,,,,,,,,0,72,72,127,1
,,,,,,,,,,,,,,,,,5fc7fb7982f3c510bb6e6b62,42,2022-02-12_12h48.02.611,lexical_decision_task_DD_L2,2021.2.3,MacIntel,60.0024001,,,,,,,,,,,0.8217,1,,,,,,,,,,,,,,,,,,,,,,,,0.197022705,-0.224614868,0,0,0,,,,,,,BAMBOO,C,z,y,./images/BAMBOO.png,,,,,,,,,,,,,,,,,,,,,z,1,0.8217,,,,,,,,0,73,73,89,1
,,,,,,,,,,,,,,,,,5fc7fb7982f3c510bb6e6b62,42,2022-02-12_12h48.02.611,lexical_decision_task_DD_L2,2021.2.3,MacIntel,60.0024001,,,,,,,,,,,0.9689,1,,,,,,,,,,,,,,,,,,,,,,,,0.197022705,-0.224614868,0,0,0,,,,,,,BUNNY,LB,z,y,./images/BUNNYLB.png,,,,,,,,,,,,,,,,,,,,,z,1,0.9689,,,,,,,,0,74,74,97,1
,,,,,,,,,,,,,,,,,5fc7fb7982f3c510bb6e6b62,42,2022-02-12_12h48.02.611,lexical_decision_task_DD_L2,2021.2.3,MacIntel,60.0024001,,,,,,,,,,,1.0208,0,,,,,,,,,,,,,,,,,,,,,,,,0.197022705,-0.224614868,0,0,0,,,,,,,PEACH,C,m,y,./images/PEACH.png,,,,,,,,,,,,,,,,,,,,,z,0,1.0208,,,,,,,,0,75,75,35,1
,,,,,,,,,,,,,,,,,5fc7fb7982f3c510bb6e6b62,42,2022-02-12_12h48.02.611,lexical_decision_task_DD_L2,2021.2.3,MacIntel,60.0024001,,,,,,,,,,,0.6569,1,,,,,,,,,,,,,,,,,,,,,,,,0.197022705,-0.224614868,0,0,0,,,,,,,GRAPE,LB,z,y,./images/GRAPELB.png,,,,,,,,,,,,,,,,,,,,,z,1,0.6569,,,,,,,,0,76,76,100,1
,,,,,,,,,,,,,,,,,5fc7fb7982f3c510bb6e6b62,42,2022-02-12_12h48.02.611,lexical_decision_task_DD_L2,2021.2.3,MacIntel,60.0024001,,,,,,,,,,,0.9525,1,,,,,,,,,,,,,,,,,,,,,,,,0.197022705,-0.224614868,0,0,0,,,,,,,BASKET,C,z,y,./images/BASKET.png,,,,,,,,,,,,,,,,,,,,,z,1,0.9525,,,,,,,,0,77,77,128,1
,,,,,,,,,,,,,,,,,5fc7fb7982f3c510bb6e6b62,42,2022-02-12_12h48.02.611,lexical_decision_task_DD_L2,2021.2.3,MacIntel,60.0024001,,,,,,,,,,,0.7008,0,,,,,,,,,,,,,,,,,,,,,,,,0.197022705,-0.224614868,0,0,0,,,,,,,SUNSET,LB,m,y,./images/SUNSETLB.png,,,,,,,,,,,,,,,,,,,,,z,0,0.7008,,,,,,,,0,78,78,82,1
,,,,,,,,,,,,,,,,,5fc7fb7982f3c510bb6e6b62,42,2022-02-12_12h48.02.611,lexical_decision_task_DD_L2,2021.2.3,MacIntel,60.0024001,,,,,,,,,,,0.7693,1,,,,,,,,,,,,,,,,,,,,,,,,0.197022705,-0.224614868,0,0,0,,,,,,,QUILL,LB,m,y,./images/QUILLLB.png,,,,,,,,,,,,,,,,,,,,,m,1,0.7693,,,,,,,,0,79,79,31,1
,,,,,,,,,,,,,,,,,5fc7fb7982f3c510bb6e6b62,42,2022-02-12_12h48.02.611,lexical_decision_task_DD_L2,2021.2.3,MacIntel,60.0024001,,,,,,,,,,,0.77,1,,,,,,,,,,,,,,,,,,,,,,,,0.197022705,-0.224614868,0,0,0,,,,,,,DESERT,LB,z,y,./images/DESERTLB.png,,,,,,,,,,,,,,,,,,,,,z,1,0.77,,,,,,,,0,80,80,136,1
,,,,,,,,,,,,,,,,,5fc7fb7982f3c510bb6e6b62,42,2022-02-12_12h48.02.611,lexical_decision_task_DD_L2,2021.2.3,MacIntel,60.0024001,,,,,,,,,,,0.9709,1,,,,,,,,,,,,,,,,,,,,,,,,0.197022705,-0.224614868,0,0,0,,,,,,,BLOKE,HB,z,y,./images/BLOKEHB.png,,,,,,,,,,,,,,,,,,,,,z,1,0.9709,,,,,,,,0,81,81,96,1
,,,,,,,,,,,,,,,,,5fc7fb7982f3c510bb6e6b62,42,2022-02-12_12h48.02.611,lexical_decision_task_DD_L2,2021.2.3,MacIntel,60.0024001,,,,,,,,,,,0.7052,1,,,,,,,,,,,,,,,,,,,,,,,,0.197022705,-0.224614868,0,0,0,,,,,,,LAGOON,C,z,y,./images/LAGOON.png,,,,,,,,,,,,,,,,,,,,,z,1,0.7052,,,,,,,,0,82,82,131,1
,,,,,,,,,,,,,,,,,5fc7fb7982f3c510bb6e6b62,42,2022-02-12_12h48.02.611,lexical_decision_task_DD_L2,2021.2.3,MacIntel,60.0024001,,,,,,,,,,,1.1866,1,,,,,,,,,,,,,,,,,,,,,,,,0.197022705,-0.224614868,0,0,0,space,,,,,,GLOVE,LB,z,y,./images/GLOVELB.png,4.546,,,,,,,,,,,,,,,,,,,,z,1,1.1866,,,,,,,,0,83,83,157,1
,,,,,,,,,,,,,,,,,5fc7fb7982f3c510bb6e6b62,42,2022-02-12_12h48.02.611,lexical_decision_task_DD_L2,2021.2.3,MacIntel,60.0024001,,,,,,,,,,,1.0021,1,,,,,,,,,,,,,,,,,,,,,,,,0.197022705,-0.224614868,0,0,0,,,,,,,PLANET,C,z,y,./images/PLANET.png,,,,,,,,,,,,,,,,,,,,,z,1,1.0021,,,,,,,,0,84,84,164,1
,,,,,,,,,,,,,,,,,5fc7fb7982f3c510bb6e6b62,42,2022-02-12_12h48.02.611,lexical_decision_task_DD_L2,2021.2.3,MacIntel,60.0024001,,,,,,,,,,,0.9021,1,,,,,,,,,,,,,,,,,,,,,,,,0.197022705,-0.224614868,0,0,0,,,,,,,TRIPOD,HB,m,y,./images/TRIPODHB.png,,,,,,,,,,,,,,,,,,,,,m,1,0.9021,,,,,,,,0,85,85,54,1
,,,,,,,,,,,,,,,,,5fc7fb7982f3c510bb6e6b62,42,2022-02-12_12h48.02.611,lexical_decision_task_DD_L2,2021.2.3,MacIntel,60.0024001,,,,,,,,,,,1.2357,0,,,,,,,,,,,,,,,,,,,,,,,,0.197022705,-0.224614868,0,0,0,,,,,,,CANDLE,LB,m,y,./images/CANDLELB.png,,,,,,,,,,,,,,,,,,,,,z,0,1.2357,,,,,,,,0,86,86,61,1
,,,,,,,,,,,,,,,,,5fc7fb7982f3c510bb6e6b62,42,2022-02-12_12h48.02.611,lexical_decision_task_DD_L2,2021.2.3,MacIntel,60.0024001,,,,,,,,,,,1.2112,1,,,,,,,,,,,,,,,,,,,,,,,,0.197022705,-0.224614868,0,0,0,,,,,,,STREAM,C,z,y,./images/STREAM.png,,,,,,,,,,,,,,,,,,,,,z,1,1.2112,,,,,,,,0,87,87,125,1
,,,,,,,,,,,,,,,,,5fc7fb7982f3c510bb6e6b62,42,2022-02-12_12h48.02.611,lexical_decision_task_DD_L2,2021.2.3,MacIntel,60.0024001,,,,,,,,,,,0.823,1,,,,,,,,,,,,,,,,,,,,,,,,0.197022705,-0.224614868,0,0,0,,,,,,,MEDAL,C,z,y,./images/MEDAL.png,,,,,,,,,,,,,,,,,,,,,z,1,0.823,,,,,,,,0,88,88,95,1
,,,,,,,,,,,,,,,,,5fc7fb7982f3c510bb6e6b62,42,2022-02-12_12h48.02.611,lexical_decision_task_DD_L2,2021.2.3,MacIntel,60.0024001,,,,,,,,,,,0.7254,0,,,,,,,,,,,,,,,,,,,,,,,,0.197022705,-0.224614868,0,0,0,,,,,,,BELLY,LB,m,y,./images/BELLYLB.png,,,,,,,,,,,,,,,,,,,,,z,0,0.7254,,,,,,,,0,89,89,10,1
,,,,,,,,,,,,,,,,,5fc7fb7982f3c510bb6e6b62,42,2022-02-12_12h48.02.611,lexical_decision_task_DD_L2,2021.2.3,MacIntel,60.0024001,,,,,,,,,,,1.4233,1,,,,,,,,,,,,,,,,,,,,,,,,0.197022705,-0.224614868,0,0,0,,,,,,,WAGON,LB,z,y,./images/WAGONLB.png,,,,,,,,,,,,,,,,,,,,,z,1,1.4233,,,,,,,,0,90,90,91,1
,,,,,,,,,,,,,,,,,5fc7fb7982f3c510bb6e6b62,42,2022-02-12_12h48.02.611,lexical_decision_task_DD_L2,2021.2.3,MacIntel,60.0024001,,,,,,,,,,,0.8076,1,,,,,,,,,,,,,,,,,,,,,,,,0.197022705,-0.224614868,0,0,0,,,,,,,MUMMY,LB,z,y,./images/MUMMYLB.png,,,,,,,,,,,,,,,,,,,,,z,1,0.8076,,,,,,,,0,91,91,130,1
,,,,,,,,,,,,,,,,,5fc7fb7982f3c510bb6e6b62,42,2022-02-12_12h48.02.611,lexical_decision_task_DD_L2,2021.2.3,MacIntel,60.0024001,,,,,,,,,,,1.0211,1,,,,,,,,,,,,,,,,,,,,,,,,0.197022705,-0.224614868,0,0,0,,,,,,,STORM,HB,m,y,./images/STORMHB.png,,,,,,,,,,,,,,,,,,,,,m,1,1.0211,,,,,,,,0,92,92,30,1
,,,,,,,,,,,,,,,,,5fc7fb7982f3c510bb6e6b62,42,2022-02-12_12h48.02.611,lexical_decision_task_DD_L2,2021.2.3,MacIntel,60.0024001,,,,,,,,,,,0.7419,1,,,,,,,,,,,,,,,,,,,,,,,,0.197022705,-0.224614868,0,0,0,,,,,,,SPINE,C,z,y,./images/SPINE.png,,,,,,,,,,,,,,,,,,,,,z,1,0.7419,,,,,,,,0,93,93,149,1
,,,,,,,,,,,,,,,,,5fc7fb7982f3c510bb6e6b62,42,2022-02-12_12h48.02.611,lexical_decision_task_DD_L2,2021.2.3,MacIntel,60.0024001,,,,,,,,,,,0.7859,1,,,,,,,,,,,,,,,,,,,,,,,,0.197022705,-0.224614868,0,0,0,,,,,,,GRANNY,C,z,y,./images/GRANNY.png,,,,,,,,,,,,,,,,,,,,,z,1,0.7859,,,,,,,,0,94,94,104,1
,,,,,,,,,,,,,,,,,5fc7fb7982f3c510bb6e6b62,42,2022-02-12_12h48.02.611,lexical_decision_task_DD_L2,2021.2.3,MacIntel,60.0024001,,,,,,,,,,,1.487,1,,,,,,,,,,,,,,,,,,,,,,,,0.197022705,-0.224614868,0,0,0,,,,,,,BIRTH,LB,m,y,./images/BIRTHLB.png,,,,,,,,,,,,,,,,,,,,,m,1,1.487,,,,,,,,0,95,95,37,1
,,,,,,,,,,,,,,,,,5fc7fb7982f3c510bb6e6b62,42,2022-02-12_12h48.02.611,lexical_decision_task_DD_L2,2021.2.3,MacIntel,60.0024001,,,,,,,,,,,1.1189,0,,,,,,,,,,,,,,,,,,,,,,,,0.197022705,-0.224614868,0,0,0,,,,,,,FENCE,C,z,y,./images/FENCE.png,,,,,,,,,,,,,,,,,,,,,m,0,1.1189,,,,,,,,0,96,96,98,1
,,,,,,,,,,,,,,,,,5fc7fb7982f3c510bb6e6b62,42,2022-02-12_12h48.02.611,lexical_decision_task_DD_L2,2021.2.3,MacIntel,60.0024001,,,,,,,,,,,0.8258,1,,,,,,,,,,,,,,,,,,,,,,,,0.197022705,-0.224614868,0,0,0,,,,,,,MUFFIN,LB,m,y,./images/MUFFINLB.png,,,,,,,,,,,,,,,,,,,,,m,1,0.8258,,,,,,,,0,97,97,55,1
,,,,,,,,,,,,,,,,,5fc7fb7982f3c510bb6e6b62,42,2022-02-12_12h48.02.611,lexical_decision_task_DD_L2,2021.2.3,MacIntel,60.0024001,,,,,,,,,,,1.4597,1,,,,,,,,,,,,,,,,,,,,,,,,0.197022705,-0.224614868,0,0,0,,,,,,,STOVE,C,z,y,./images/STOVE.png,,,,,,,,,,,,,,,,,,,,,z,1,1.4597,,,,,,,,0,98,98,86,1
,,,,,,,,,,,,,,,,,5fc7fb7982f3c510bb6e6b62,42,2022-02-12_12h48.02.611,lexical_decision_task_DD_L2,2021.2.3,MacIntel,60.0024001,,,,,,,,,,,0.853,1,,,,,,,,,,,,,,,,,,,,,,,,0.197022705,-0.224614868,0,0,0,,,,,,,SWEAT,HB,m,y,./images/SWEATHB.png,,,,,,,,,,,,,,,,,,,,,m,1,0.853,,,,,,,,0,99,99,66,1
,,,,,,,,,,,,,,,,,5fc7fb7982f3c510bb6e6b62,42,2022-02-12_12h48.02.611,lexical_decision_task_DD_L2,2021.2.3,MacIntel,60.0024001,,,,,,,,,,,0.7058,1,,,,,,,,,,,,,,,,,,,,,,,,0.197022705,-0.224614868,0,0,0,,,,,,,BUBBLE,C,z,y,./images/BUBBLE.png,,,,,,,,,,,,,,,,,,,,,z,1,0.7058,,,,,,,,0,100,100,155,1
,,,,,,,,,,,,,,,,,5fc7fb7982f3c510bb6e6b62,42,2022-02-12_12h48.02.611,lexical_decision_task_DD_L2,2021.2.3,MacIntel,60.0024001,,,,,,,,,,,0.6391,1,,,,,,,,,,,,,,,,,,,,,,,,0.197022705,-0.224614868,0,0,0,,,,,,,BISHOP,LB,z,y,./images/BISHOPLB.png,,,,,,,,,,,,,,,,,,,,,z,1,0.6391,,,,,,,,0,101,101,133,1
,,,,,,,,,,,,,,,,,5fc7fb7982f3c510bb6e6b62,42,2022-02-12_12h48.02.611,lexical_decision_task_DD_L2,2021.2.3,MacIntel,60.0024001,,,,,,,,,,,1.0122,0,,,,,,,,,,,,,,,,,,,,,,,,0.197022705,-0.224614868,0,0,0,,,,,,,STAIN,HB,z,y,./images/STAINHB.png,,,,,,,,,,,,,,,,,,,,,m,0,1.0122,,,,,,,,0,102,102,90,1
,,,,,,,,,,,,,,,,,5fc7fb7982f3c510bb6e6b62,42,2022-02-12_12h48.02.611,lexical_decision_task_DD_L2,2021.2.3,MacIntel,60.0024001,,,,,,,,,,,0.9414,1,,,,,,,,,,,,,,,,,,,,,,,,0.197022705,-0.224614868,0,0,0,,,,,,,WHEEL,C,z,y,./images/WHEEL.png,,,,,,,,,,,,,,,,,,,,,z,1,0.9414,,,,,,,,0,103,103,161,1
,,,,,,,,,,,,,,,,,5fc7fb7982f3c510bb6e6b62,42,2022-02-12_12h48.02.611,lexical_decision_task_DD_L2,2021.2.3,MacIntel,60.0024001,,,,,,,,,,,0.8544,1,,,,,,,,,,,,,,,,,,,,,,,,0.197022705,-0.224614868,0,0,0,,,,,,,FARMER,C,m,y,./images/FARMER.png,,,,,,,,,,,,,,,,,,,,,m,1,0.8544,,,,,,,,0,104,104,65,1
,,,,,,,,,,,,,,,,,5fc7fb7982f3c510bb6e6b62,42,2022-02-12_12h48.02.611,lexical_decision_task_DD_L2,2021.2.3,MacIntel,60.0024001,,,,,,,,,,,0.824,1,,,,,,,,,,,,,,,,,,,,,,,,0.197022705,-0.224614868,0,0,0,,,,,,,PLANK,LB,m,y,./images/PLANKLB.png,,,,,,,,,,,,,,,,,,,,,m,1,0.824,,,,,,,,0,105,105,1,1
,,,,,,,,,,,,,,,,,5fc7fb7982f3c510bb6e6b62,42,2022-02-12_12h48.02.611,lexical_decision_task_DD_L2,2021.2.3,MacIntel,60.0024001,,,,,,,,,,,0.9211,1,,,,,,,,,,,,,,,,,,,,,,,,0.197022705,-0.224614868,0,0,0,,,,,,,SHELF,HB,m,y,./images/SHELFHB.png,,,,,,,,,,,,,,,,,,,,,m,1,0.9211,,,,,,,,0,106,106,39,1
,,,,,,,,,,,,,,,,,5fc7fb7982f3c510bb6e6b62,42,2022-02-12_12h48.02.611,lexical_decision_task_DD_L2,2021.2.3,MacIntel,60.0024001,,,,,,,,,,,0.9858,1,,,,,,,,,,,,,,,,,,,,,,,,0.197022705,-0.224614868,0,0,0,,,,,,,CARPET,C,m,y,./images/CARPET.png,,,,,,,,,,,,,,,,,,,,,m,1,0.9858,,,,,,,,0,107,107,53,1
,,,,,,,,,,,,,,,,,5fc7fb7982f3c510bb6e6b62,42,2022-02-12_12h48.02.611,lexical_decision_task_DD_L2,2021.2.3,MacIntel,60.0024001,,,,,,,,,,,1.1037,0,,,,,,,,,,,,,,,,,,,,,,,,0.197022705,-0.224614868,0,0,0,,,,,,,COUCH,C,m,y,./images/COUCH.png,,,,,,,,,,,,,,,,,,,,,z,0,1.1037,,,,,,,,0,108,108,77,1
,,,,,,,,,,,,,,,,,5fc7fb7982f3c510bb6e6b62,42,2022-02-12_12h48.02.611,lexical_decision_task_DD_L2,2021.2.3,MacIntel,60.0024001,,,,,,,,,,,0.8552,1,,,,,,,,,,,,,,,,,,,,,,,,0.197022705,-0.224614868,0,0,0,,,,,,,CANOE,LB,z,y,./images/CANOELB.png,,,,,,,,,,,,,,,,,,,,,z,1,0.8552,,,,,,,,0,109,109,142,1
,,,,,,,,,,,,,,,,,5fc7fb7982f3c510bb6e6b62,42,2022-02-12_12h48.02.611,lexical_decision_task_DD_L2,2021.2.3,MacIntel,60.0024001,,,,,,,,,,,1.6088,1,,,,,,,,,,,,,,,,,,,,,,,,0.197022705,-0.224614868,0,0,0,,,,,,,DRUMS,LB,m,y,./images/DRUMSLB.png,,,,,,,,,,,,,,,,,,,,,m,1,1.6088,,,,,,,,0,110,110,49,1
,,,,,,,,,,,,,,,,,5fc7fb7982f3c510bb6e6b62,42,2022-02-12_12h48.02.611,lexical_decision_task_DD_L2,2021.2.3,MacIntel,60.0024001,,,,,,,,,,,0.8035,1,,,,,,,,,,,,,,,,,,,,,,,,0.197022705,-0.224614868,0,0,0,,,,,,,SLOPE,HB,z,y,./images/SLOPEHB.png,,,,,,,,,,,,,,,,,,,,,z,1,0.8035,,,,,,,,0,111,111,114,1
,,,,,,,,,,,,,,,,,5fc7fb7982f3c510bb6e6b62,42,2022-02-12_12h48.02.611,lexical_decision_task_DD_L2,2021.2.3,MacIntel,60.0024001,,,,,,,,,,,0.8049,1,,,,,,,,,,,,,,,,,,,,,,,,0.197022705,-0.224614868,0,0,0,,,,,,,DANCER,HB,z,y,./images/DANCERHB.png,,,,,,,,,,,,,,,,,,,,,z,1,0.8049,,,,,,,,0,112,112,105,1
,,,,,,,,,,,,,,,,,5fc7fb7982f3c510bb6e6b62,42,2022-02-12_12h48.02.611,lexical_decision_task_DD_L2,2021.2.3,MacIntel,60.0024001,,,,,,,,,,,1.0233,1,,,,,,,,,,,,,,,,,,,,,,,,0.197022705,-0.224614868,0,0,0,,,,,,,CRUMB,C,m,y,./images/CRUMB.png,,,,,,,,,,,,,,,,,,,,,m,1,1.0233,,,,,,,,0,113,113,29,1
,,,,,,,,,,,,,,,,,5fc7fb7982f3c510bb6e6b62,42,2022-02-12_12h48.02.611,lexical_decision_task_DD_L2,2021.2.3,MacIntel,60.0024001,,,,,,,,,,,0.9572,1,,,,,,,,,,,,,,,,,,,,,,,,0.197022705,-0.224614868,0,0,0,,,,,,,TIGER,LB,z,y,./images/TIGERLB.png,,,,,,,,,,,,,,,,,,,,,z,1,0.9572,,,,,,,,0,114,114,121,1
,,,,,,,,,,,,,,,,,5fc7fb7982f3c510bb6e6b62,42,2022-02-12_12h48.02.611,lexical_decision_task_DD_L2,2021.2.3,MacIntel,60.0024001,,,,,,,,,,,0.7608,1,,,,,,,,,,,,,,,,,,,,,,,,0.197022705,-0.224614868,0,0,0,,,,,,,PICKLE,C,m,y,./images/PICKLE.png,,,,,,,,,,,,,,,,,,,,,m,1,0.7608,,,,,,,,0,115,115,14,1
,,,,,,,,,,,,,,,,,5fc7fb7982f3c510bb6e6b62,42,2022-02-12_12h48.02.611,lexical_decision_task_DD_L2,2021.2.3,MacIntel,60.0024001,,,,,,,,,,,0.8023,1,,,,,,,,,,,,,,,,,,,,,,,,0.197022705,-0.224614868,0,0,0,,,,,,,POSTER,C,z,y,./images/POSTER.png,,,,,,,,,,,,,,,,,,,,,z,1,0.8023,,,,,,,,0,116,116,137,1
,,,,,,,,,,,,,,,,,5fc7fb7982f3c510bb6e6b62,42,2022-02-12_12h48.02.611,lexical_decision_task_DD_L2,2021.2.3,MacIntel,60.0024001,,,,,,,,,,,0.8557,1,,,,,,,,,,,,,,,,,,,,,,,,0.197022705,-0.224614868,0,0,0,,,,,,,BANANA,LB,z,y,./images/BANANALB.png,,,,,,,,,,,,,,,,,,,,,z,1,0.8557,,,,,,,,0,117,117,154,1
,,,,,,,,,,,,,,,,,5fc7fb7982f3c510bb6e6b62,42,2022-02-12_12h48.02.611,lexical_decision_task_DD_L2,2021.2.3,MacIntel,60.0024001,,,,,,,,,,,0.8065,0,,,,,,,,,,,,,,,,,,,,,,,,0.197022705,-0.224614868,0,0,0,,,,,,,INFANT,LB,m,y,./images/INFANTLB.png,,,,,,,,,,,,,,,,,,,,,z,0,0.8065,,,,,,,,0,118,118,76,1
,,,,,,,,,,,,,,,,,5fc7fb7982f3c510bb6e6b62,42,2022-02-12_12h48.02.611,lexical_decision_task_DD_L2,2021.2.3,MacIntel,60.0024001,,,,,,,,,,,0.7677,1,,,,,,,,,,,,,,,,,,,,,,,,0.197022705,-0.224614868,0,0,0,,,,,,,WHISKY,C,z,y,./images/WHISKY.png,,,,,,,,,,,,,,,,,,,,,z,1,0.7677,,,,,,,,0,119,119,167,1
,,,,,,,,,,,,,,,,,5fc7fb7982f3c510bb6e6b62,42,2022-02-12_12h48.02.611,lexical_decision_task_DD_L2,2021.2.3,MacIntel,60.0024001,,,,,,,,,,,0.8697,1,,,,,,,,,,,,,,,,,,,,,,,,0.197022705,-0.224614868,0,0,0,,,,,,,BABOON,LB,m,y,./images/BABOONLB.png,,,,,,,,,,,,,,,,,,,,,m,1,0.8697,,,,,,,,0,120,120,58,1
,,,,,,,,,,,,,,,,,5fc7fb7982f3c510bb6e6b62,42,2022-02-12_12h48.02.611,lexical_decision_task_DD_L2,2021.2.3,MacIntel,60.0024001,,,,,,,,,,,0.9357,0,,,,,,,,,,,,,,,,,,,,,,,,0.197022705,-0.224614868,0,0,0,,,,,,,SHIELD,HB,z,y,./images/SHIELDHB.png,,,,,,,,,,,,,,,,,,,,,m,0,0.9357,,,,,,,,0,121,121,132,1
,,,,,,,,,,,,,,,,,5fc7fb7982f3c510bb6e6b62,42,2022-02-12_12h48.02.611,lexical_decision_task_DD_L2,2021.2.3,MacIntel,60.0024001,,,,,,,,,,,0.9201,1,,,,,,,,,,,,,,,,,,,,,,,,0.197022705,-0.224614868,0,0,0,,,,,,,VALLEY,C,z,y,./images/VALLEY.png,,,,,,,,,,,,,,,,,,,,,z,1,0.9201,,,,,,,,0,122,122,152,1
,,,,,,,,,,,,,,,,,5fc7fb7982f3c510bb6e6b62,42,2022-02-12_12h48.02.611,lexical_decision_task_DD_L2,2021.2.3,MacIntel,60.0024001,,,,,,,,,,,0.9865,0,,,,,,,,,,,,,,,,,,,,,,,,0.197022705,-0.224614868,0,0,0,,,,,,,SWING,LB,m,y,./images/SWINGLB.png,,,,,,,,,,,,,,,,,,,,,z,0,0.9865,,,,,,,,0,123,123,40,1
,,,,,,,,,,,,,,,,,5fc7fb7982f3c510bb6e6b62,42,2022-02-12_12h48.02.611,lexical_decision_task_DD_L2,2021.2.3,MacIntel,60.0024001,,,,,,,,,,,0.8531,0,,,,,,,,,,,,,,,,,,,,,,,,0.197022705,-0.224614868,0,0,0,,,,,,,JELLY,LB,m,y,./images/JELLYLB.png,,,,,,,,,,,,,,,,,,,,,z,0,0.8531,,,,,,,,0,124,124,64,1
,,,,,,,,,,,,,,,,,5fc7fb7982f3c510bb6e6b62,42,2022-02-12_12h48.02.611,lexical_decision_task_DD_L2,2021.2.3,MacIntel,60.0024001,,,,,,,,,,,1.2203,1,,,,,,,,,,,,,,,,,,,,,,,,0.197022705,-0.224614868,0,0,0,space,,,,,,URINE,LB,m,y,./images/URINELB.png,11.3366,,,,,,,,,,,,,,,,,,,,m,1,1.2203,,,,,,,,0,125,125,70,1
,,,,,,,,,,,,,,,,,5fc7fb7982f3c510bb6e6b62,42,2022-02-12_12h48.02.611,lexical_decision_task_DD_L2,2021.2.3,MacIntel,60.0024001,,,,,,,,,,,1.0101,1,,,,,,,,,,,,,,,,,,,,,,,,0.197022705,-0.224614868,0,0,0,,,,,,,MOSQUE,LB,m,y,./images/MOSQUELB.png,,,,,,,,,,,,,,,,,,,,,m,1,1.0101,,,,,,,,0,126,126,43,1
,,,,,,,,,,,,,,,,,5fc7fb7982f3c510bb6e6b62,42,2022-02-12_12h48.02.611,lexical_decision_task_DD_L2,2021.2.3,MacIntel,60.0024001,,,,,,,,,,,1.771,0,,,,,,,,,,,,,,,,,,,,,,,,0.197022705,-0.224614868,0,0,0,,,,,,,CLIFF,C,z,y,./images/CLIFF.png,,,,,,,,,,,,,,,,,,,,,m,0,1.771,,,,,,,,0,127,127,92,1
,,,,,,,,,,,,,,,,,5fc7fb7982f3c510bb6e6b62,42,2022-02-12_12h48.02.611,lexical_decision_task_DD_L2,2021.2.3,MacIntel,60.0024001,,,,,,,,,,,1.9717,0,,,,,,,,,,,,,,,,,,,,,,,,0.197022705,-0.224614868,0,0,0,,,,,,,CANYON,LB,m,y,./images/CANYONLB.png,,,,,,,,,,,,,,,,,,,,,z,0,1.9717,,,,,,,,0,128,128,34,1
