key_resp.keys,instr_done_touch.x,instr_done_touch.y,instr_done_touch.leftButton,instr_done_touch.midButton,instr_done_touch.rightButton,instr_done_touch.clicked_name,instruction_pages.thisRepN,instruction_pages.thisTrialN,instruction_pages.thisN,instruction_pages.thisIndex,instruction_pages.ran,pageN,phase,instruct_text,has_image,instruct_image,participant,age,date,expName,psychopyVersion,OS,frameRate,key_resp.rt,response.keys,response.corr,response.rt,touch_resp.x,touch_resp.y,touch_resp.leftButton,touch_resp.midButton,touch_resp.rightButton,touch_resp.time,touch_resp.clicked_name,rt,corr,practrials.thisRepN,practrials.thisTrialN,practrials.thisN,practrials.thisIndex,practrials.ran,TrialID,Target,corrAns,end_of_practice_trials_pages.thisRepN,end_of_practice_trials_pages.thisTrialN,end_of_practice_trials_pages.thisN,end_of_practice_trials_pages.thisIndex,end_of_practice_trials_pages.ran,key_resp_2.keys,key_resp_2.corr,key_resp_2.rt,targ_click.x,targ_click.y,targ_click.leftButton,targ_click.midButton,targ_click.rightButton,targ_click.time,targ_click.clicked_name,break_done_touch.x,break_done_touch.y,break_done_touch.leftButton,break_done_touch.midButton,break_done_touch.rightButton,break_done_keyboard.keys,maintrials.thisRepN,maintrials.thisTrialN,maintrials.thisN,maintrials.thisIndex,maintrials.ran,string,blur,study,lex,stim_path,break_done_keyboard.rt,mouse_2.x,mouse_2.y,mouse_2.leftButton,mouse_2.midButton,mouse_2.rightButton,mouse_2.clicked_name,slider.response,slider.rt,trials.thisRepN,trials.thisTrialN,trials.thisN,trials.thisIndex,trials.ran,test_instructions.thisRepN,test_instructions.thisTrialN,test_instructions.thisN,test_instructions.thisIndex,test_instructions.ran,key_resp_3.keys,key_resp_3.corr,test_click.x,test_click.y,test_click.leftButton,test_click.midButton,test_click.rightButton,test_click.time,test_click.clicked_name,test_phase.thisRepN,test_phase.thisTrialN,test_phase.thisN,test_phase.thisIndex,test_phase.ran,key_resp_3.rt
,0.026851852,-0.401851852,1,0,0,instr_done_button,0,0,0,0,1,1,instructions,"INSTRUCTIONS
At the start of each trial, look at the plus sign  (+) in the center of the screen.  This tells you that a trial is about to begin and where to look. Second, the plus sign will disappear and a string of letters will appear. Your task is to determine if the string of letters is a word or not. If the item is a word press the M key (on keyboard)  or touch the word button (phone/tablet).  If the item is not a word,  press the  Z key (on keyboard)  or touch the nonword button (on phone/tablet). 
Press the space bar or touch  continue.",0,,5fc8a956800c80232e0b7a32,27,2022-02-12_14h43.09.189,lexical_decision_task_DD_L4,2021.2.3,Win32,59.95203837,,,,,,,,,,,,,,,,,,,,,,,,,,,,,,,,,,,,,,,,,,,,,,,,,,,,,,,,,,,,,,,,,,,,,,,,,,,,,,,,,,,,,,
,0.136111111,-0.419444444,1,0,0,instr_done_button,0,1,1,1,1,2,instructions,"If your device has a keyboard, press the 'Z' key for nonwords and the 'M' key for words.





Press the space bar or touch the button below to continue.",0,keyboard-example.gif,5fc8a956800c80232e0b7a32,27,2022-02-12_14h43.09.189,lexical_decision_task_DD_L4,2021.2.3,Win32,59.95203837,,,,,,,,,,,,,,,,,,,,,,,,,,,,,,,,,,,,,,,,,,,,,,,,,,,,,,,,,,,,,,,,,,,,,,,,,,,,,,,,,,,,,,
,0.136111111,-0.417592593,1,0,0,instr_done_button,0,2,2,2,1,3,instructions,"If you are using a touchscreen only device, use the buttons on the screen. Do not use the mouse.





Press the space bar or touch the button below to continue.",0,touchscreen-example.gif,5fc8a956800c80232e0b7a32,27,2022-02-12_14h43.09.189,lexical_decision_task_DD_L4,2021.2.3,Win32,59.95203837,,,,,,,,,,,,,,,,,,,,,,,,,,,,,,,,,,,,,,,,,,,,,,,,,,,,,,,,,,,,,,,,,,,,,,,,,,,,,,,,,,,,,,
space,0.85462963,-0.29537037,0,0,0,,0,3,3,3,1,4,instructions,"It is very important that you respond as quickly and accurately as possible, as each letter string will only be on the screen for two seconds. If you do not respond within this time, the message 'Too slow!' will be displayed and the experiment will progress to the next letter string. The first 20 trials will be practice trials and you will receive feedback on your answers. 

Press the space bar or touch the button below to start the practice trials.",0,,5fc8a956800c80232e0b7a32,27,2022-02-12_14h43.09.189,lexical_decision_task_DD_L4,2021.2.3,Win32,59.95203837,8.931,,,,,,,,,,,,,,,,,,,,,,,,,,,,,,,,,,,,,,,,,,,,,,,,,,,,,,,,,,,,,,,,,,,,,,,,,,,,,,,,,,,,,
,,,,,,,,,,,,,,,,,5fc8a956800c80232e0b7a32,27,2022-02-12_14h43.09.189,lexical_decision_task_DD_L4,2021.2.3,Win32,59.95203837,,m,1,2.115,,,,,,,,2.115,1,0,0,0,0,1,1001,UTOPIA,m,,,,,,,,,,,,,,,,,,,,,,,,,,,,,,,,,,,,,,,,,,,,,,,,,,,,,,,,,,,,,,,,,
,,,,,,,,,,,,,,,,,5fc8a956800c80232e0b7a32,27,2022-02-12_14h43.09.189,lexical_decision_task_DD_L4,2021.2.3,Win32,59.95203837,,z,1,1.026,,,,,,,,1.026,1,0,1,1,9,1,1001,FARINY,z,,,,,,,,,,,,,,,,,,,,,,,,,,,,,,,,,,,,,,,,,,,,,,,,,,,,,,,,,,,,,,,,,
,,,,,,,,,,,,,,,,,5fc8a956800c80232e0b7a32,27,2022-02-12_14h43.09.189,lexical_decision_task_DD_L4,2021.2.3,Win32,59.95203837,,z,1,0.721,,,,,,,,0.721,1,0,2,2,8,1,1001,ASLERT,z,,,,,,,,,,,,,,,,,,,,,,,,,,,,,,,,,,,,,,,,,,,,,,,,,,,,,,,,,,,,,,,,,
,,,,,,,,,,,,,,,,,5fc8a956800c80232e0b7a32,27,2022-02-12_14h43.09.189,lexical_decision_task_DD_L4,2021.2.3,Win32,59.95203837,,z,1,0.704,,,,,,,,0.704,1,0,3,3,11,1,1001,RASHET,z,,,,,,,,,,,,,,,,,,,,,,,,,,,,,,,,,,,,,,,,,,,,,,,,,,,,,,,,,,,,,,,,,
,,,,,,,,,,,,,,,,,5fc8a956800c80232e0b7a32,27,2022-02-12_14h43.09.189,lexical_decision_task_DD_L4,2021.2.3,Win32,59.95203837,,m,1,0.585,,,,,,,,0.585,1,0,4,4,2,1,1001,ALMOND,m,,,,,,,,,,,,,,,,,,,,,,,,,,,,,,,,,,,,,,,,,,,,,,,,,,,,,,,,,,,,,,,,,
,,,,,,,,,,,,,,,,,5fc8a956800c80232e0b7a32,27,2022-02-12_14h43.09.189,lexical_decision_task_DD_L4,2021.2.3,Win32,59.95203837,,z,1,1.219,,,,,,,,1.219,1,0,5,5,14,1,1001,THRALE,z,,,,,,,,,,,,,,,,,,,,,,,,,,,,,,,,,,,,,,,,,,,,,,,,,,,,,,,,,,,,,,,,,
,,,,,,,,,,,,,,,,,5fc8a956800c80232e0b7a32,27,2022-02-12_14h43.09.189,lexical_decision_task_DD_L4,2021.2.3,Win32,59.95203837,,z,1,0.839,,,,,,,,0.839,1,0,6,6,13,1,1001,ROUPET,z,,,,,,,,,,,,,,,,,,,,,,,,,,,,,,,,,,,,,,,,,,,,,,,,,,,,,,,,,,,,,,,,,
,,,,,,,,,,,,,,,,,5fc8a956800c80232e0b7a32,27,2022-02-12_14h43.09.189,lexical_decision_task_DD_L4,2021.2.3,Win32,59.95203837,,z,1,1.218,,,,,,,,1.218,1,0,7,7,10,1,1001,INLADE,z,,,,,,,,,,,,,,,,,,,,,,,,,,,,,,,,,,,,,,,,,,,,,,,,,,,,,,,,,,,,,,,,,
,,,,,,,,,,,,,,,,,5fc8a956800c80232e0b7a32,27,2022-02-12_14h43.09.189,lexical_decision_task_DD_L4,2021.2.3,Win32,59.95203837,,m,1,0.587,,,,,,,,0.587,1,0,8,8,5,1,1001,OBTAIN,m,,,,,,,,,,,,,,,,,,,,,,,,,,,,,,,,,,,,,,,,,,,,,,,,,,,,,,,,,,,,,,,,,
,,,,,,,,,,,,,,,,,5fc8a956800c80232e0b7a32,27,2022-02-12_14h43.09.189,lexical_decision_task_DD_L4,2021.2.3,Win32,59.95203837,,m,1,0.634,,,,,,,,0.634,1,0,9,9,1,1,1001,ADJUST,m,,,,,,,,,,,,,,,,,,,,,,,,,,,,,,,,,,,,,,,,,,,,,,,,,,,,,,,,,,,,,,,,,
,,,,,,,,,,,,,,,,,5fc8a956800c80232e0b7a32,27,2022-02-12_14h43.09.189,lexical_decision_task_DD_L4,2021.2.3,Win32,59.95203837,,z,1,0.801,,,,,,,,0.801,1,0,10,10,12,1,1001,SPRINY,z,,,,,,,,,,,,,,,,,,,,,,,,,,,,,,,,,,,,,,,,,,,,,,,,,,,,,,,,,,,,,,,,,
,,,,,,,,,,,,,,,,,5fc8a956800c80232e0b7a32,27,2022-02-12_14h43.09.189,lexical_decision_task_DD_L4,2021.2.3,Win32,59.95203837,,m,1,0.605,,,,,,,,0.605,1,0,11,11,7,1,1001,VOLUME,m,,,,,,,,,,,,,,,,,,,,,,,,,,,,,,,,,,,,,,,,,,,,,,,,,,,,,,,,,,,,,,,,,
,,,,,,,,,,,,,,,,,5fc8a956800c80232e0b7a32,27,2022-02-12_14h43.09.189,lexical_decision_task_DD_L4,2021.2.3,Win32,59.95203837,,m,1,0.616,,,,,,,,0.616,1,0,12,12,6,1,1001,ZOMBIE,m,,,,,,,,,,,,,,,,,,,,,,,,,,,,,,,,,,,,,,,,,,,,,,,,,,,,,,,,,,,,,,,,,
,,,,,,,,,,,,,,,,,5fc8a956800c80232e0b7a32,27,2022-02-12_14h43.09.189,lexical_decision_task_DD_L4,2021.2.3,Win32,59.95203837,,m,1,0.537,,,,,,,,0.537,1,0,13,13,3,1,1001,MATRIX,m,,,,,,,,,,,,,,,,,,,,,,,,,,,,,,,,,,,,,,,,,,,,,,,,,,,,,,,,,,,,,,,,,
,,,,,,,,,,,,,,,,,5fc8a956800c80232e0b7a32,27,2022-02-12_14h43.09.189,lexical_decision_task_DD_L4,2021.2.3,Win32,59.95203837,,m,1,0.553,,,,,,,,0.553,1,0,14,14,4,1,1001,SQUEAK,m,,,,,,,,,,,,,,,,,,,,,,,,,,,,,,,,,,,,,,,,,,,,,,,,,,,,,,,,,,,,,,,,,
,,,,,,,,,,,,,,,,,5fc8a956800c80232e0b7a32,27,2022-02-12_14h43.09.189,lexical_decision_task_DD_L4,2021.2.3,Win32,59.95203837,,z,1,0.831,,,,,,,,0.831,1,0,15,15,15,1,1001,WHAISE,z,,,,,,,,,,,,,,,,,,,,,,,,,,,,,,,,,,,,,,,,,,,,,,,,,,,,,,,,,,,,,,,,,
space,0.85462963,-0.29537037,0,0,0,,,,,,,1,end_of_practice,"You have completed the practice trials. During the experimental trials, you will not receive feedback. 
Before you begin, please ensure that you are in a comfortable and quiet location and will not be disturbed for about 15 minutes, as we cannot use your data if you do not complete all the trials. 
 When you are ready to start the experimental trials, please press space or touch the button below.",,,5fc8a956800c80232e0b7a32,27,2022-02-12_14h43.09.189,lexical_decision_task_DD_L4,2021.2.3,Win32,59.95203837,5.274,,,,,,,,,,,,,,,,,,,,,0,0,0,0,1,,,,,,,,,,,,,,,,,,,,,,,,,,,,,,,,,,,,,,,,,,,,,,,,,,,,,,,,,,,,
,,,,,,,,,,,,,,,,,5fc8a956800c80232e0b7a32,27,2022-02-12_14h43.09.189,lexical_decision_task_DD_L4,2021.2.3,Win32,59.95203837,,,,,,,,,,,,3.083,1,,,,,,,,,,,,,,z,1,3.083,,,,,,,,0.85462963,-0.29537037,0,0,0,,0,0,0,97,1,CHIDS,HB,old,z,./images/CHIDSHB.png,,,,,,,,,,,,,,,,,,,,,,,,,,,,,,,,,,
,,,,,,,,,,,,,,,,,5fc8a956800c80232e0b7a32,27,2022-02-12_14h43.09.189,lexical_decision_task_DD_L4,2021.2.3,Win32,59.95203837,,,,,,,,,,,,0.919,1,,,,,,,,,,,,,,z,1,0.919,,,,,,,,0.85462963,-0.29537037,0,0,0,,0,1,1,113,1,LINEW,LB,old,z,./images/LINEWLB.png,,,,,,,,,,,,,,,,,,,,,,,,,,,,,,,,,,
,,,,,,,,,,,,,,,,,5fc8a956800c80232e0b7a32,27,2022-02-12_14h43.09.189,lexical_decision_task_DD_L4,2021.2.3,Win32,59.95203837,,,,,,,,,,,,1.469,1,,,,,,,,,,,,,,z,1,1.469,,,,,,,,0.85462963,-0.29537037,0,0,0,,0,2,2,166,1,SHORY,HB,old,z,./images/SHORYHB.png,,,,,,,,,,,,,,,,,,,,,,,,,,,,,,,,,,
,,,,,,,,,,,,,,,,,5fc8a956800c80232e0b7a32,27,2022-02-12_14h43.09.189,lexical_decision_task_DD_L4,2021.2.3,Win32,59.95203837,,,,,,,,,,,,0.587,1,,,,,,,,,,,,,,m,1,0.587,,,,,,,,0.85462963,-0.29537037,0,0,0,,0,3,3,63,1,BAKER,C,old,m,./images/BAKER.png,,,,,,,,,,,,,,,,,,,,,,,,,,,,,,,,,,
,,,,,,,,,,,,,,,,,5fc8a956800c80232e0b7a32,27,2022-02-12_14h43.09.189,lexical_decision_task_DD_L4,2021.2.3,Win32,59.95203837,,,,,,,,,,,,0.668,1,,,,,,,,,,,,,,z,1,0.668,,,,,,,,0.85462963,-0.29537037,0,0,0,,0,4,4,162,1,LEICH,C,old,z,./images/LEICH.png,,,,,,,,,,,,,,,,,,,,,,,,,,,,,,,,,,
,,,,,,,,,,,,,,,,,5fc8a956800c80232e0b7a32,27,2022-02-12_14h43.09.189,lexical_decision_task_DD_L4,2021.2.3,Win32,59.95203837,,,,,,,,,,,,0.634,1,,,,,,,,,,,,,,m,1,0.634,,,,,,,,0.85462963,-0.29537037,0,0,0,,0,5,5,47,1,LAGOON,LB,old,m,./images/LAGOONLB.png,,,,,,,,,,,,,,,,,,,,,,,,,,,,,,,,,,
,,,,,,,,,,,,,,,,,5fc8a956800c80232e0b7a32,27,2022-02-12_14h43.09.189,lexical_decision_task_DD_L4,2021.2.3,Win32,59.95203837,,,,,,,,,,,,0.654,0,,,,,,,,,,,,,,z,0,0.654,,,,,,,,0.85462963,-0.29537037,0,0,0,,0,6,6,52,1,DESERT,HB,old,m,./images/DESERTHB.png,,,,,,,,,,,,,,,,,,,,,,,,,,,,,,,,,,
,,,,,,,,,,,,,,,,,5fc8a956800c80232e0b7a32,27,2022-02-12_14h43.09.189,lexical_decision_task_DD_L4,2021.2.3,Win32,59.95203837,,,,,,,,,,,,0.533,1,,,,,,,,,,,,,,m,1,0.533,,,,,,,,0.85462963,-0.29537037,0,0,0,,0,7,7,69,1,ARROW,C,old,m,./images/ARROW.png,,,,,,,,,,,,,,,,,,,,,,,,,,,,,,,,,,
,,,,,,,,,,,,,,,,,5fc8a956800c80232e0b7a32,27,2022-02-12_14h43.09.189,lexical_decision_task_DD_L4,2021.2.3,Win32,59.95203837,,,,,,,,,,,,0.771,1,,,,,,,,,,,,,,m,1,0.771,,,,,,,,0.85462963,-0.29537037,0,0,0,,0,8,8,40,1,SNAKE,HB,old,m,./images/SNAKEHB.png,,,,,,,,,,,,,,,,,,,,,,,,,,,,,,,,,,
,,,,,,,,,,,,,,,,,5fc8a956800c80232e0b7a32,27,2022-02-12_14h43.09.189,lexical_decision_task_DD_L4,2021.2.3,Win32,59.95203837,,,,,,,,,,,,0.457,1,,,,,,,,,,,,,,m,1,0.457,,,,,,,,0.85462963,-0.29537037,0,0,0,,0,9,9,42,1,CHAIN,C,old,m,./images/CHAIN.png,,,,,,,,,,,,,,,,,,,,,,,,,,,,,,,,,,
,,,,,,,,,,,,,,,,,5fc8a956800c80232e0b7a32,27,2022-02-12_14h43.09.189,lexical_decision_task_DD_L4,2021.2.3,Win32,59.95203837,,,,,,,,,,,,0.717,1,,,,,,,,,,,,,,z,1,0.717,,,,,,,,0.85462963,-0.29537037,0,0,0,,0,10,10,156,1,HIXES,C,old,z,./images/HIXES.png,,,,,,,,,,,,,,,,,,,,,,,,,,,,,,,,,,
,,,,,,,,,,,,,,,,,5fc8a956800c80232e0b7a32,27,2022-02-12_14h43.09.189,lexical_decision_task_DD_L4,2021.2.3,Win32,59.95203837,,,,,,,,,,,,0.817,1,,,,,,,,,,,,,,z,1,0.817,,,,,,,,0.85462963,-0.29537037,0,0,0,,0,11,11,137,1,JOOST,LB,old,z,./images/JOOSTLB.png,,,,,,,,,,,,,,,,,,,,,,,,,,,,,,,,,,
,,,,,,,,,,,,,,,,,5fc8a956800c80232e0b7a32,27,2022-02-12_14h43.09.189,lexical_decision_task_DD_L4,2021.2.3,Win32,59.95203837,,,,,,,,,,,,0.68,1,,,,,,,,,,,,,,m,1,0.68,,,,,,,,0.85462963,-0.29537037,0,0,0,,0,12,12,6,1,STAIN,C,old,m,./images/STAIN.png,,,,,,,,,,,,,,,,,,,,,,,,,,,,,,,,,,
,,,,,,,,,,,,,,,,,5fc8a956800c80232e0b7a32,27,2022-02-12_14h43.09.189,lexical_decision_task_DD_L4,2021.2.3,Win32,59.95203837,,,,,,,,,,,,0.516,1,,,,,,,,,,,,,,z,1,0.516,,,,,,,,0.85462963,-0.29537037,0,0,0,,0,13,13,102,1,DULLE,C,old,z,./images/DULLE.png,,,,,,,,,,,,,,,,,,,,,,,,,,,,,,,,,,
,,,,,,,,,,,,,,,,,5fc8a956800c80232e0b7a32,27,2022-02-12_14h43.09.189,lexical_decision_task_DD_L4,2021.2.3,Win32,59.95203837,,,,,,,,,,,,0.715,1,,,,,,,,,,,,,,m,1,0.715,,,,,,,,0.85462963,-0.29537037,0,0,0,,0,14,14,61,1,ARTIST,HB,old,m,./images/ARTISTHB.png,,,,,,,,,,,,,,,,,,,,,,,,,,,,,,,,,,
,,,,,,,,,,,,,,,,,5fc8a956800c80232e0b7a32,27,2022-02-12_14h43.09.189,lexical_decision_task_DD_L4,2021.2.3,Win32,59.95203837,,,,,,,,,,,,0.551,1,,,,,,,,,,,,,,m,1,0.551,,,,,,,,0.85462963,-0.29537037,0,0,0,,0,15,15,45,1,MONKEY,C,old,m,./images/MONKEY.png,,,,,,,,,,,,,,,,,,,,,,,,,,,,,,,,,,
,,,,,,,,,,,,,,,,,5fc8a956800c80232e0b7a32,27,2022-02-12_14h43.09.189,lexical_decision_task_DD_L4,2021.2.3,Win32,59.95203837,,,,,,,,,,,,0.586,1,,,,,,,,,,,,,,z,1,0.586,,,,,,,,0.85462963,-0.29537037,0,0,0,,0,16,16,138,1,PLICE,C,old,z,./images/PLICE.png,,,,,,,,,,,,,,,,,,,,,,,,,,,,,,,,,,
,,,,,,,,,,,,,,,,,5fc8a956800c80232e0b7a32,27,2022-02-12_14h43.09.189,lexical_decision_task_DD_L4,2021.2.3,Win32,59.95203837,,,,,,,,,,,,0.584,1,,,,,,,,,,,,,,z,1,0.584,,,,,,,,0.85462963,-0.29537037,0,0,0,,0,17,17,116,1,BALGY,LB,old,z,./images/BALGYLB.png,,,,,,,,,,,,,,,,,,,,,,,,,,,,,,,,,,
,,,,,,,,,,,,,,,,,5fc8a956800c80232e0b7a32,27,2022-02-12_14h43.09.189,lexical_decision_task_DD_L4,2021.2.3,Win32,59.95203837,,,,,,,,,,,,0.489,1,,,,,,,,,,,,,,z,1,0.489,,,,,,,,0.85462963,-0.29537037,0,0,0,,0,18,18,143,1,MONGS,LB,old,z,./images/MONGSLB.png,,,,,,,,,,,,,,,,,,,,,,,,,,,,,,,,,,
,,,,,,,,,,,,,,,,,5fc8a956800c80232e0b7a32,27,2022-02-12_14h43.09.189,lexical_decision_task_DD_L4,2021.2.3,Win32,59.95203837,,,,,,,,,,,,0.583,1,,,,,,,,,,,,,,m,1,0.583,,,,,,,,0.85462963,-0.29537037,0,0,0,,0,19,19,19,1,DONKEY,HB,old,m,./images/DONKEYHB.png,,,,,,,,,,,,,,,,,,,,,,,,,,,,,,,,,,
,,,,,,,,,,,,,,,,,5fc8a956800c80232e0b7a32,27,2022-02-12_14h43.09.189,lexical_decision_task_DD_L4,2021.2.3,Win32,59.95203837,,,,,,,,,,,,0.748,1,,,,,,,,,,,,,,z,1,0.748,,,,,,,,0.85462963,-0.29537037,0,0,0,,0,20,20,159,1,CUDDY,C,old,z,./images/CUDDY.png,,,,,,,,,,,,,,,,,,,,,,,,,,,,,,,,,,
,,,,,,,,,,,,,,,,,5fc8a956800c80232e0b7a32,27,2022-02-12_14h43.09.189,lexical_decision_task_DD_L4,2021.2.3,Win32,59.95203837,,,,,,,,,,,,0.73,0,,,,,,,,,,,,,,m,0,0.73,,,,,,,,0.85462963,-0.29537037,0,0,0,,0,21,21,122,1,BLOOT,LB,old,z,./images/BLOOTLB.png,,,,,,,,,,,,,,,,,,,,,,,,,,,,,,,,,,
,,,,,,,,,,,,,,,,,5fc8a956800c80232e0b7a32,27,2022-02-12_14h43.09.189,lexical_decision_task_DD_L4,2021.2.3,Win32,59.95203837,,,,,,,,,,,,0.681,1,,,,,,,,,,,,,,m,1,0.681,,,,,,,,0.85462963,-0.29537037,0,0,0,,0,22,22,68,1,VALLEY,LB,old,m,./images/VALLEYLB.png,,,,,,,,,,,,,,,,,,,,,,,,,,,,,,,,,,
,,,,,,,,,,,,,,,,,5fc8a956800c80232e0b7a32,27,2022-02-12_14h43.09.189,lexical_decision_task_DD_L4,2021.2.3,Win32,59.95203837,,,,,,,,,,,,0.637,1,,,,,,,,,,,,,,m,1,0.637,,,,,,,,0.85462963,-0.29537037,0,0,0,,0,23,23,41,1,STREAM,LB,old,m,./images/STREAMLB.png,,,,,,,,,,,,,,,,,,,,,,,,,,,,,,,,,,
,,,,,,,,,,,,,,,,,5fc8a956800c80232e0b7a32,27,2022-02-12_14h43.09.189,lexical_decision_task_DD_L4,2021.2.3,Win32,59.95203837,,,,,,,,,,,,0.554,1,,,,,,,,,,,,,,z,1,0.554,,,,,,,,0.85462963,-0.29537037,0,0,0,,0,24,24,105,1,MOKER,C,old,z,./images/MOKER.png,,,,,,,,,,,,,,,,,,,,,,,,,,,,,,,,,,
,,,,,,,,,,,,,,,,,5fc8a956800c80232e0b7a32,27,2022-02-12_14h43.09.189,lexical_decision_task_DD_L4,2021.2.3,Win32,59.95203837,,,,,,,,,,,,0.748,1,,,,,,,,,,,,,,z,1,0.748,,,,,,,,0.85462963,-0.29537037,0,0,0,,0,25,25,121,1,CEERS,HB,old,z,./images/CEERSHB.png,,,,,,,,,,,,,,,,,,,,,,,,,,,,,,,,,,
,,,,,,,,,,,,,,,,,5fc8a956800c80232e0b7a32,27,2022-02-12_14h43.09.189,lexical_decision_task_DD_L4,2021.2.3,Win32,59.95203837,,,,,,,,,,,,0.665,1,,,,,,,,,,,,,,z,1,0.665,,,,,,,,0.85462963,-0.29537037,0,0,0,,0,26,26,124,1,TUNCH,HB,old,z,./images/TUNCHHB.png,,,,,,,,,,,,,,,,,,,,,,,,,,,,,,,,,,
,,,,,,,,,,,,,,,,,5fc8a956800c80232e0b7a32,27,2022-02-12_14h43.09.189,lexical_decision_task_DD_L4,2021.2.3,Win32,59.95203837,,,,,,,,,,,,0.797,1,,,,,,,,,,,,,,z,1,0.797,,,,,,,,0.85462963,-0.29537037,0,0,0,,0,27,27,94,1,BLANS,HB,old,z,./images/BLANSHB.png,,,,,,,,,,,,,,,,,,,,,,,,,,,,,,,,,,
,,,,,,,,,,,,,,,,,5fc8a956800c80232e0b7a32,27,2022-02-12_14h43.09.189,lexical_decision_task_DD_L4,2021.2.3,Win32,59.95203837,,,,,,,,,,,,0.615,1,,,,,,,,,,,,,,m,1,0.615,,,,,,,,0.85462963,-0.29537037,0,0,0,,0,28,28,37,1,TIGER,HB,old,m,./images/TIGERHB.png,,,,,,,,,,,,,,,,,,,,,,,,,,,,,,,,,,
,,,,,,,,,,,,,,,,,5fc8a956800c80232e0b7a32,27,2022-02-12_14h43.09.189,lexical_decision_task_DD_L4,2021.2.3,Win32,59.95203837,,,,,,,,,,,,0.628,1,,,,,,,,,,,,,,z,1,0.628,,,,,,,,0.85462963,-0.29537037,0,0,0,,0,29,29,101,1,GLEET,LB,old,z,./images/GLEETLB.png,,,,,,,,,,,,,,,,,,,,,,,,,,,,,,,,,,
,,,,,,,,,,,,,,,,,5fc8a956800c80232e0b7a32,27,2022-02-12_14h43.09.189,lexical_decision_task_DD_L4,2021.2.3,Win32,59.95203837,,,,,,,,,,,,0.531,1,,,,,,,,,,,,,,z,1,0.531,,,,,,,,0.85462963,-0.29537037,0,0,0,,0,30,30,99,1,BACKY,C,old,z,./images/BACKY.png,,,,,,,,,,,,,,,,,,,,,,,,,,,,,,,,,,
,,,,,,,,,,,,,,,,,5fc8a956800c80232e0b7a32,27,2022-02-12_14h43.09.189,lexical_decision_task_DD_L4,2021.2.3,Win32,59.95203837,,,,,,,,,,,,0.782,1,,,,,,,,,,,,,,m,1,0.782,,,,,,,,0.85462963,-0.29537037,0,0,0,,0,31,31,82,1,PEBBLE,HB,old,m,./images/PEBBLEHB.png,,,,,,,,,,,,,,,,,,,,,,,,,,,,,,,,,,
,,,,,,,,,,,,,,,,,5fc8a956800c80232e0b7a32,27,2022-02-12_14h43.09.189,lexical_decision_task_DD_L4,2021.2.3,Win32,59.95203837,,,,,,,,,,,,0.705,1,,,,,,,,,,,,,,z,1,0.705,,,,,,,,0.85462963,-0.29537037,0,0,0,,0,32,32,153,1,CLUPS,C,old,z,./images/CLUPS.png,,,,,,,,,,,,,,,,,,,,,,,,,,,,,,,,,,
,,,,,,,,,,,,,,,,,5fc8a956800c80232e0b7a32,27,2022-02-12_14h43.09.189,lexical_decision_task_DD_L4,2021.2.3,Win32,59.95203837,,,,,,,,,,,,0.752,1,,,,,,,,,,,,,,m,1,0.752,,,,,,,,0.85462963,-0.29537037,0,0,0,,0,33,33,44,1,BASKET,LB,old,m,./images/BASKETLB.png,,,,,,,,,,,,,,,,,,,,,,,,,,,,,,,,,,
,,,,,,,,,,,,,,,,,5fc8a956800c80232e0b7a32,27,2022-02-12_14h43.09.189,lexical_decision_task_DD_L4,2021.2.3,Win32,59.95203837,,,,,,,,,,,,0.588,0,,,,,,,,,,,,,,z,0,0.588,,,,,,,,0.85462963,-0.29537037,0,0,0,,0,34,34,58,1,CANOE,HB,old,m,./images/CANOEHB.png,,,,,,,,,,,,,,,,,,,,,,,,,,,,,,,,,,
,,,,,,,,,,,,,,,,,5fc8a956800c80232e0b7a32,27,2022-02-12_14h43.09.189,lexical_decision_task_DD_L4,2021.2.3,Win32,59.95203837,,,,,,,,,,,,0.548,1,,,,,,,,,,,,,,z,1,0.548,,,,,,,,0.85462963,-0.29537037,0,0,0,,0,35,35,114,1,RIKES,C,old,z,./images/RIKES.png,,,,,,,,,,,,,,,,,,,,,,,,,,,,,,,,,,
,,,,,,,,,,,,,,,,,5fc8a956800c80232e0b7a32,27,2022-02-12_14h43.09.189,lexical_decision_task_DD_L4,2021.2.3,Win32,59.95203837,,,,,,,,,,,,0.485,1,,,,,,,,,,,,,,m,1,0.485,,,,,,,,0.85462963,-0.29537037,0,0,0,,0,36,36,66,1,STATUE,C,old,m,./images/STATUE.png,,,,,,,,,,,,,,,,,,,,,,,,,,,,,,,,,,
,,,,,,,,,,,,,,,,,5fc8a956800c80232e0b7a32,27,2022-02-12_14h43.09.189,lexical_decision_task_DD_L4,2021.2.3,Win32,59.95203837,,,,,,,,,,,,1.468,0,,,,,,,,,,,,,,m,0,1.468,,,,,,,,0.85462963,-0.29537037,0,0,0,,0,37,37,148,1,JOMS,HB,old,z,./images/JOMSHB.png,,,,,,,,,,,,,,,,,,,,,,,,,,,,,,,,,,
,,,,,,,,,,,,,,,,,5fc8a956800c80232e0b7a32,27,2022-02-12_14h43.09.189,lexical_decision_task_DD_L4,2021.2.3,Win32,59.95203837,,,,,,,,,,,,0.599,1,,,,,,,,,,,,,,m,1,0.599,,,,,,,,0.85462963,-0.29537037,0,0,0,,0,38,38,2,1,STOVE,LB,old,m,./images/STOVELB.png,,,,,,,,,,,,,,,,,,,,,,,,,,,,,,,,,,
,,,,,,,,,,,,,,,,,5fc8a956800c80232e0b7a32,27,2022-02-12_14h43.09.189,lexical_decision_task_DD_L4,2021.2.3,Win32,59.95203837,,,,,,,,,,,,0.631,1,,,,,,,,,,,,,,z,1,0.631,,,,,,,,0.85462963,-0.29537037,0,0,0,,0,39,39,150,1,NOOLS,C,old,z,./images/NOOLS.png,,,,,,,,,,,,,,,,,,,,,,,,,,,,,,,,,,
,,,,,,,,,,,,,,,,,5fc8a956800c80232e0b7a32,27,2022-02-12_14h43.09.189,lexical_decision_task_DD_L4,2021.2.3,Win32,59.95203837,,,,,,,,,,,,0.579,1,,,,,,,,,,,,,,z,1,0.579,,,,,,,,0.85462963,-0.29537037,0,0,0,,0,40,40,155,1,CANGY,LB,old,z,./images/CANGYLB.png,,,,,,,,,,,,,,,,,,,,,,,,,,,,,,,,,,
,,,,,,,,,,,,,,,,,5fc8a956800c80232e0b7a32,27,2022-02-12_14h43.09.189,lexical_decision_task_DD_L4,2021.2.3,Win32,59.95203837,,,,,,,,,,,,0.571,1,,,,,,,,,,,,,,m,1,0.571,,,,,,,,0.85462963,-0.29537037,0,0,0,space,0,41,41,29,1,PISTOL,LB,old,m,./images/PISTOLLB.png,2.038,,,,,,,,,,,,,,,,,,,,,,,,,,,,,,,,,
,,,,,,,,,,,,,,,,,5fc8a956800c80232e0b7a32,27,2022-02-12_14h43.09.189,lexical_decision_task_DD_L4,2021.2.3,Win32,59.95203837,,,,,,,,,,,,0.771,1,,,,,,,,,,,,,,z,1,0.771,,,,,,,,0.85462963,-0.29537037,0,0,0,,0,42,42,112,1,MYING,HB,old,z,./images/MYINGHB.png,,,,,,,,,,,,,,,,,,,,,,,,,,,,,,,,,,
,,,,,,,,,,,,,,,,,5fc8a956800c80232e0b7a32,27,2022-02-12_14h43.09.189,lexical_decision_task_DD_L4,2021.2.3,Win32,59.95203837,,,,,,,,,,,,0.538,1,,,,,,,,,,,,,,z,1,0.538,,,,,,,,0.85462963,-0.29537037,0,0,0,,0,43,43,120,1,RINED,C,old,z,./images/RINED.png,,,,,,,,,,,,,,,,,,,,,,,,,,,,,,,,,,
,,,,,,,,,,,,,,,,,5fc8a956800c80232e0b7a32,27,2022-02-12_14h43.09.189,lexical_decision_task_DD_L4,2021.2.3,Win32,59.95203837,,,,,,,,,,,,0.503,1,,,,,,,,,,,,,,z,1,0.503,,,,,,,,0.85462963,-0.29537037,0,0,0,,0,44,44,108,1,GRUET,C,old,z,./images/GRUET.png,,,,,,,,,,,,,,,,,,,,,,,,,,,,,,,,,,
,,,,,,,,,,,,,,,,,5fc8a956800c80232e0b7a32,27,2022-02-12_14h43.09.189,lexical_decision_task_DD_L4,2021.2.3,Win32,59.95203837,,,,,,,,,,,,0.752,1,,,,,,,,,,,,,,z,1,0.752,,,,,,,,0.85462963,-0.29537037,0,0,0,,0,45,45,103,1,FLORT,HB,old,z,./images/FLORTHB.png,,,,,,,,,,,,,,,,,,,,,,,,,,,,,,,,,,
,,,,,,,,,,,,,,,,,5fc8a956800c80232e0b7a32,27,2022-02-12_14h43.09.189,lexical_decision_task_DD_L4,2021.2.3,Win32,59.95203837,,,,,,,,,,,,1.034,0,,,,,,,,,,,,,,m,0,1.034,,,,,,,,0.85462963,-0.29537037,0,0,0,,0,46,46,130,1,CRILL,HB,old,z,./images/CRILLHB.png,,,,,,,,,,,,,,,,,,,,,,,,,,,,,,,,,,
,,,,,,,,,,,,,,,,,5fc8a956800c80232e0b7a32,27,2022-02-12_14h43.09.189,lexical_decision_task_DD_L4,2021.2.3,Win32,59.95203837,,,,,,,,,,,,0.519,1,,,,,,,,,,,,,,m,1,0.519,,,,,,,,0.85462963,-0.29537037,0,0,0,,0,47,47,74,1,JUMPER,LB,old,m,./images/JUMPERLB.png,,,,,,,,,,,,,,,,,,,,,,,,,,,,,,,,,,
,,,,,,,,,,,,,,,,,5fc8a956800c80232e0b7a32,27,2022-02-12_14h43.09.189,lexical_decision_task_DD_L4,2021.2.3,Win32,59.95203837,,,,,,,,,,,,0.565,1,,,,,,,,,,,,,,z,1,0.565,,,,,,,,0.85462963,-0.29537037,0,0,0,,0,48,48,149,1,VEASE,LB,old,z,./images/VEASELB.png,,,,,,,,,,,,,,,,,,,,,,,,,,,,,,,,,,
,,,,,,,,,,,,,,,,,5fc8a956800c80232e0b7a32,27,2022-02-12_14h43.09.189,lexical_decision_task_DD_L4,2021.2.3,Win32,59.95203837,,,,,,,,,,,,0.888,1,,,,,,,,,,,,,,z,1,0.888,,,,,,,,0.85462963,-0.29537037,0,0,0,,0,49,49,86,1,AIFED,LB,old,z,./images/AIFEDLB.png,,,,,,,,,,,,,,,,,,,,,,,,,,,,,,,,,,
,,,,,,,,,,,,,,,,,5fc8a956800c80232e0b7a32,27,2022-02-12_14h43.09.189,lexical_decision_task_DD_L4,2021.2.3,Win32,59.95203837,,,,,,,,,,,,0.486,0,,,,,,,,,,,,,,z,0,0.486,,,,,,,,0.85462963,-0.29537037,0,0,0,,0,50,50,18,1,PARCEL,C,old,m,./images/PARCEL.png,,,,,,,,,,,,,,,,,,,,,,,,,,,,,,,,,,
,,,,,,,,,,,,,,,,,5fc8a956800c80232e0b7a32,27,2022-02-12_14h43.09.189,lexical_decision_task_DD_L4,2021.2.3,Win32,59.95203837,,,,,,,,,,,,0.663,1,,,,,,,,,,,,,,z,1,0.663,,,,,,,,0.85462963,-0.29537037,0,0,0,,0,51,51,136,1,WERVE,HB,old,z,./images/WERVEHB.png,,,,,,,,,,,,,,,,,,,,,,,,,,,,,,,,,,
,,,,,,,,,,,,,,,,,5fc8a956800c80232e0b7a32,27,2022-02-12_14h43.09.189,lexical_decision_task_DD_L4,2021.2.3,Win32,59.95203837,,,,,,,,,,,,0.524,1,,,,,,,,,,,,,,m,1,0.524,,,,,,,,0.85462963,-0.29537037,0,0,0,,0,52,52,15,1,COLLAR,C,old,m,./images/COLLAR.png,,,,,,,,,,,,,,,,,,,,,,,,,,,,,,,,,,
,,,,,,,,,,,,,,,,,5fc8a956800c80232e0b7a32,27,2022-02-12_14h43.09.189,lexical_decision_task_DD_L4,2021.2.3,Win32,59.95203837,,,,,,,,,,,,0.615,1,,,,,,,,,,,,,,z,1,0.615,,,,,,,,0.85462963,-0.29537037,0,0,0,,0,53,53,165,1,TROWN,C,old,z,./images/TROWN.png,,,,,,,,,,,,,,,,,,,,,,,,,,,,,,,,,,
,,,,,,,,,,,,,,,,,5fc8a956800c80232e0b7a32,27,2022-02-12_14h43.09.189,lexical_decision_task_DD_L4,2021.2.3,Win32,59.95203837,,,,,,,,,,,,0.519,1,,,,,,,,,,,,,,z,1,0.519,,,,,,,,0.85462963,-0.29537037,0,0,0,,0,54,54,147,1,ZOLES,C,old,z,./images/ZOLES.png,,,,,,,,,,,,,,,,,,,,,,,,,,,,,,,,,,
,,,,,,,,,,,,,,,,,5fc8a956800c80232e0b7a32,27,2022-02-12_14h43.09.189,lexical_decision_task_DD_L4,2021.2.3,Win32,59.95203837,,,,,,,,,,,,0.548,1,,,,,,,,,,,,,,m,1,0.548,,,,,,,,0.85462963,-0.29537037,0,0,0,,0,55,55,5,1,BAMBOO,LB,old,m,./images/BAMBOOLB.png,,,,,,,,,,,,,,,,,,,,,,,,,,,,,,,,,,
,,,,,,,,,,,,,,,,,5fc8a956800c80232e0b7a32,27,2022-02-12_14h43.09.189,lexical_decision_task_DD_L4,2021.2.3,Win32,59.95203837,,,,,,,,,,,,0.532,1,,,,,,,,,,,,,,z,1,0.532,,,,,,,,0.85462963,-0.29537037,0,0,0,,0,56,56,96,1,KEAMS,C,old,z,./images/KEAMS.png,,,,,,,,,,,,,,,,,,,,,,,,,,,,,,,,,,
,,,,,,,,,,,,,,,,,5fc8a956800c80232e0b7a32,27,2022-02-12_14h43.09.189,lexical_decision_task_DD_L4,2021.2.3,Win32,59.95203837,,,,,,,,,,,,0.551,1,,,,,,,,,,,,,,z,1,0.551,,,,,,,,0.85462963,-0.29537037,0,0,0,,0,57,57,134,1,TROSS,LB,old,z,./images/TROSSLB.png,,,,,,,,,,,,,,,,,,,,,,,,,,,,,,,,,,
,,,,,,,,,,,,,,,,,5fc8a956800c80232e0b7a32,27,2022-02-12_14h43.09.189,lexical_decision_task_DD_L4,2021.2.3,Win32,59.95203837,,,,,,,,,,,,0.679,1,,,,,,,,,,,,,,m,1,0.679,,,,,,,,0.85462963,-0.29537037,0,0,0,,0,58,58,72,1,FLASK,C,old,m,./images/FLASK.png,,,,,,,,,,,,,,,,,,,,,,,,,,,,,,,,,,
,,,,,,,,,,,,,,,,,5fc8a956800c80232e0b7a32,27,2022-02-12_14h43.09.189,lexical_decision_task_DD_L4,2021.2.3,Win32,59.95203837,,,,,,,,,,,,0.665,1,,,,,,,,,,,,,,z,1,0.665,,,,,,,,0.85462963,-0.29537037,0,0,0,,0,59,59,111,1,HOSSE,C,old,z,./images/HOSSE.png,,,,,,,,,,,,,,,,,,,,,,,,,,,,,,,,,,
,,,,,,,,,,,,,,,,,5fc8a956800c80232e0b7a32,27,2022-02-12_14h43.09.189,lexical_decision_task_DD_L4,2021.2.3,Win32,59.95203837,,,,,,,,,,,,1.316,1,,,,,,,,,,,,,,z,1,1.316,,,,,,,,0.85462963,-0.29537037,0,0,0,,0,60,60,133,1,POWDY,HB,old,z,./images/POWDYHB.png,,,,,,,,,,,,,,,,,,,,,,,,,,,,,,,,,,
,,,,,,,,,,,,,,,,,5fc8a956800c80232e0b7a32,27,2022-02-12_14h43.09.189,lexical_decision_task_DD_L4,2021.2.3,Win32,59.95203837,,,,,,,,,,,,0.523,1,,,,,,,,,,,,,,m,1,0.523,,,,,,,,0.85462963,-0.29537037,0,0,0,,0,61,61,26,1,CLOUD,LB,old,m,./images/CLOUDLB.png,,,,,,,,,,,,,,,,,,,,,,,,,,,,,,,,,,
,,,,,,,,,,,,,,,,,5fc8a956800c80232e0b7a32,27,2022-02-12_14h43.09.189,lexical_decision_task_DD_L4,2021.2.3,Win32,59.95203837,,,,,,,,,,,,0.915,0,,,,,,,,,,,,,,z,0,0.915,,,,,,,,0.85462963,-0.29537037,0,0,0,,0,62,62,73,1,GLOVE,HB,old,m,./images/GLOVEHB.png,,,,,,,,,,,,,,,,,,,,,,,,,,,,,,,,,,
,,,,,,,,,,,,,,,,,5fc8a956800c80232e0b7a32,27,2022-02-12_14h43.09.189,lexical_decision_task_DD_L4,2021.2.3,Win32,59.95203837,,,,,,,,,,,,0.549,1,,,,,,,,,,,,,,m,1,0.549,,,,,,,,0.85462963,-0.29537037,0,0,0,,0,63,63,53,1,POSTER,LB,old,m,./images/POSTERLB.png,,,,,,,,,,,,,,,,,,,,,,,,,,,,,,,,,,
,,,,,,,,,,,,,,,,,5fc8a956800c80232e0b7a32,27,2022-02-12_14h43.09.189,lexical_decision_task_DD_L4,2021.2.3,Win32,59.95203837,,,,,,,,,,,,1.131,1,,,,,,,,,,,,,,z,1,1.131,,,,,,,,0.85462963,-0.29537037,0,0,0,,0,64,64,91,1,SHENS,HB,old,z,./images/SHENSHB.png,,,,,,,,,,,,,,,,,,,,,,,,,,,,,,,,,,
,,,,,,,,,,,,,,,,,5fc8a956800c80232e0b7a32,27,2022-02-12_14h43.09.189,lexical_decision_task_DD_L4,2021.2.3,Win32,59.95203837,,,,,,,,,,,,0.83,1,,,,,,,,,,,,,,m,1,0.83,,,,,,,,0.85462963,-0.29537037,0,0,0,,0,65,65,67,1,POKER,HB,old,m,./images/POKERHB.png,,,,,,,,,,,,,,,,,,,,,,,,,,,,,,,,,,
,,,,,,,,,,,,,,,,,5fc8a956800c80232e0b7a32,27,2022-02-12_14h43.09.189,lexical_decision_task_DD_L4,2021.2.3,Win32,59.95203837,,,,,,,,,,,,0.613,0,,,,,,,,,,,,,,z,0,0.613,,,,,,,,0.85462963,-0.29537037,0,0,0,,0,66,66,12,1,BLOKE,C,old,m,./images/BLOKE.png,,,,,,,,,,,,,,,,,,,,,,,,,,,,,,,,,,
,,,,,,,,,,,,,,,,,5fc8a956800c80232e0b7a32,27,2022-02-12_14h43.09.189,lexical_decision_task_DD_L4,2021.2.3,Win32,59.95203837,,,,,,,,,,,,0.468,1,,,,,,,,,,,,,,m,1,0.468,,,,,,,,0.85462963,-0.29537037,0,0,0,,0,67,67,59,1,BRUSH,LB,old,m,./images/BRUSHLB.png,,,,,,,,,,,,,,,,,,,,,,,,,,,,,,,,,,
,,,,,,,,,,,,,,,,,5fc8a956800c80232e0b7a32,27,2022-02-12_14h43.09.189,lexical_decision_task_DD_L4,2021.2.3,Win32,59.95203837,,,,,,,,,,,,0.835,1,,,,,,,,,,,,,,z,1,0.835,,,,,,,,0.85462963,-0.29537037,0,0,0,,0,68,68,100,1,DRIBS,HB,old,z,./images/DRIBSHB.png,,,,,,,,,,,,,,,,,,,,,,,,,,,,,,,,,,
,,,,,,,,,,,,,,,,,5fc8a956800c80232e0b7a32,27,2022-02-12_14h43.09.189,lexical_decision_task_DD_L4,2021.2.3,Win32,59.95203837,,,,,,,,,,,,1.217,1,,,,,,,,,,,,,,z,1,1.217,,,,,,,,0.85462963,-0.29537037,0,0,0,,0,69,69,115,1,MAWNS,HB,old,z,./images/MAWNSHB.png,,,,,,,,,,,,,,,,,,,,,,,,,,,,,,,,,,
,,,,,,,,,,,,,,,,,5fc8a956800c80232e0b7a32,27,2022-02-12_14h43.09.189,lexical_decision_task_DD_L4,2021.2.3,Win32,59.95203837,,,,,,,,,,,,0.637,1,,,,,,,,,,,,,,m,1,0.637,,,,,,,,0.85462963,-0.29537037,0,0,0,,0,70,70,62,1,MAMMAL,LB,old,m,./images/MAMMALLB.png,,,,,,,,,,,,,,,,,,,,,,,,,,,,,,,,,,
,,,,,,,,,,,,,,,,,5fc8a956800c80232e0b7a32,27,2022-02-12_14h43.09.189,lexical_decision_task_DD_L4,2021.2.3,Win32,59.95203837,,,,,,,,,,,,1.05,1,,,,,,,,,,,,,,z,1,1.05,,,,,,,,0.85462963,-0.29537037,0,0,0,,0,71,71,109,1,BURGE,HB,old,z,./images/BURGEHB.png,,,,,,,,,,,,,,,,,,,,,,,,,,,,,,,,,,
,,,,,,,,,,,,,,,,,5fc8a956800c80232e0b7a32,27,2022-02-12_14h43.09.189,lexical_decision_task_DD_L4,2021.2.3,Win32,59.95203837,,,,,,,,,,,,0.661,1,,,,,,,,,,,,,,m,1,0.661,,,,,,,,0.85462963,-0.29537037,0,0,0,,0,72,72,24,1,FLESH,C,old,m,./images/FLESH.png,,,,,,,,,,,,,,,,,,,,,,,,,,,,,,,,,,
,,,,,,,,,,,,,,,,,5fc8a956800c80232e0b7a32,27,2022-02-12_14h43.09.189,lexical_decision_task_DD_L4,2021.2.3,Win32,59.95203837,,,,,,,,,,,,0.564,1,,,,,,,,,,,,,,m,1,0.564,,,,,,,,0.85462963,-0.29537037,0,0,0,,0,73,73,9,1,DIVER,C,old,m,./images/DIVER.png,,,,,,,,,,,,,,,,,,,,,,,,,,,,,,,,,,
,,,,,,,,,,,,,,,,,5fc8a956800c80232e0b7a32,27,2022-02-12_14h43.09.189,lexical_decision_task_DD_L4,2021.2.3,Win32,59.95203837,,,,,,,,,,,,0.687,1,,,,,,,,,,,,,,z,1,0.687,,,,,,,,0.85462963,-0.29537037,0,0,0,,0,74,74,98,1,BAMPS,LB,old,z,./images/BAMPSLB.png,,,,,,,,,,,,,,,,,,,,,,,,,,,,,,,,,,
,,,,,,,,,,,,,,,,,5fc8a956800c80232e0b7a32,27,2022-02-12_14h43.09.189,lexical_decision_task_DD_L4,2021.2.3,Win32,59.95203837,,,,,,,,,,,,0.669,1,,,,,,,,,,,,,,z,1,0.669,,,,,,,,0.85462963,-0.29537037,0,0,0,,0,75,75,140,1,DOVET,LB,old,z,./images/DOVETLB.png,,,,,,,,,,,,,,,,,,,,,,,,,,,,,,,,,,
,,,,,,,,,,,,,,,,,5fc8a956800c80232e0b7a32,27,2022-02-12_14h43.09.189,lexical_decision_task_DD_L4,2021.2.3,Win32,59.95203837,,,,,,,,,,,,0.472,1,,,,,,,,,,,,,,z,1,0.472,,,,,,,,0.85462963,-0.29537037,0,0,0,,0,76,76,146,1,MOOST,LB,old,z,./images/MOOSTLB.png,,,,,,,,,,,,,,,,,,,,,,,,,,,,,,,,,,
,,,,,,,,,,,,,,,,,5fc8a956800c80232e0b7a32,27,2022-02-12_14h43.09.189,lexical_decision_task_DD_L4,2021.2.3,Win32,59.95203837,,,,,,,,,,,,0.439,0,,,,,,,,,,,,,,z,0,0.439,,,,,,,,0.85462963,-0.29537037,0,0,0,,0,77,77,33,1,SAUNA,C,old,m,./images/SAUNA.png,,,,,,,,,,,,,,,,,,,,,,,,,,,,,,,,,,
,,,,,,,,,,,,,,,,,5fc8a956800c80232e0b7a32,27,2022-02-12_14h43.09.189,lexical_decision_task_DD_L4,2021.2.3,Win32,59.95203837,,,,,,,,,,,,0.501,1,,,,,,,,,,,,,,z,1,0.501,,,,,,,,0.85462963,-0.29537037,0,0,0,,0,78,78,141,1,PLEET,C,old,z,./images/PLEET.png,,,,,,,,,,,,,,,,,,,,,,,,,,,,,,,,,,
,,,,,,,,,,,,,,,,,5fc8a956800c80232e0b7a32,27,2022-02-12_14h43.09.189,lexical_decision_task_DD_L4,2021.2.3,Win32,59.95203837,,,,,,,,,,,,0.515,1,,,,,,,,,,,,,,m,1,0.515,,,,,,,,0.85462963,-0.29537037,0,0,0,,0,79,79,1,1,TOWEL,HB,old,m,./images/TOWELHB.png,,,,,,,,,,,,,,,,,,,,,,,,,,,,,,,,,,
,,,,,,,,,,,,,,,,,5fc8a956800c80232e0b7a32,27,2022-02-12_14h43.09.189,lexical_decision_task_DD_L4,2021.2.3,Win32,59.95203837,,,,,,,,,,,,0.487,1,,,,,,,,,,,,,,m,1,0.487,,,,,,,,0.85462963,-0.29537037,0,0,0,,0,80,80,7,1,WAGON,HB,old,m,./images/WAGONHB.png,,,,,,,,,,,,,,,,,,,,,,,,,,,,,,,,,,
,,,,,,,,,,,,,,,,,5fc8a956800c80232e0b7a32,27,2022-02-12_14h43.09.189,lexical_decision_task_DD_L4,2021.2.3,Win32,59.95203837,,,,,,,,,,,,0.634,1,,,,,,,,,,,,,,z,1,0.634,,,,,,,,0.85462963,-0.29537037,0,0,0,,0,81,81,93,1,SMONE,C,old,z,./images/SMONE.png,,,,,,,,,,,,,,,,,,,,,,,,,,,,,,,,,,
,,,,,,,,,,,,,,,,,5fc8a956800c80232e0b7a32,27,2022-02-12_14h43.09.189,lexical_decision_task_DD_L4,2021.2.3,Win32,59.95203837,,,,,,,,,,,,0.504,1,,,,,,,,,,,,,,z,1,0.504,,,,,,,,0.85462963,-0.29537037,0,0,0,,0,82,82,131,1,NACES,LB,old,z,./images/NACESLB.png,,,,,,,,,,,,,,,,,,,,,,,,,,,,,,,,,,
,,,,,,,,,,,,,,,,,5fc8a956800c80232e0b7a32,27,2022-02-12_14h43.09.189,lexical_decision_task_DD_L4,2021.2.3,Win32,59.95203837,,,,,,,,,,,,0.481,1,,,,,,,,,,,,,,z,1,0.481,,,,,,,,0.85462963,-0.29537037,0,0,0,space,0,83,83,119,1,PAFER,LB,old,z,./images/PAFERLB.png,1.015,,,,,,,,,,,,,,,,,,,,,,,,,,,,,,,,,
,,,,,,,,,,,,,,,,,5fc8a956800c80232e0b7a32,27,2022-02-12_14h43.09.189,lexical_decision_task_DD_L4,2021.2.3,Win32,59.95203837,,,,,,,,,,,,0.485,1,,,,,,,,,,,,,,m,1,0.485,,,,,,,,0.85462963,-0.29537037,0,0,0,,0,84,84,11,1,MEDAL,LB,old,m,./images/MEDALLB.png,,,,,,,,,,,,,,,,,,,,,,,,,,,,,,,,,,
,,,,,,,,,,,,,,,,,5fc8a956800c80232e0b7a32,27,2022-02-12_14h43.09.189,lexical_decision_task_DD_L4,2021.2.3,Win32,59.95203837,,,,,,,,,,,,1.115,1,,,,,,,,,,,,,,m,1,1.115,,,,,,,,0.85462963,-0.29537037,0,0,0,,0,85,85,34,1,RAZOR,HB,old,m,./images/RAZORHB.png,,,,,,,,,,,,,,,,,,,,,,,,,,,,,,,,,,
,,,,,,,,,,,,,,,,,5fc8a956800c80232e0b7a32,27,2022-02-12_14h43.09.189,lexical_decision_task_DD_L4,2021.2.3,Win32,59.95203837,,,,,,,,,,,,0.615,1,,,,,,,,,,,,,,z,1,0.615,,,,,,,,0.85462963,-0.29537037,0,0,0,,0,86,86,164,1,SGREW,LB,old,z,./images/SGREWLB.png,,,,,,,,,,,,,,,,,,,,,,,,,,,,,,,,,,
,,,,,,,,,,,,,,,,,5fc8a956800c80232e0b7a32,27,2022-02-12_14h43.09.189,lexical_decision_task_DD_L4,2021.2.3,Win32,59.95203837,,,,,,,,,,,,0.574,1,,,,,,,,,,,,,,m,1,0.574,,,,,,,,0.85462963,-0.29537037,0,0,0,,0,87,87,77,1,WHEEL,LB,old,m,./images/WHEELLB.png,,,,,,,,,,,,,,,,,,,,,,,,,,,,,,,,,,
,,,,,,,,,,,,,,,,,5fc8a956800c80232e0b7a32,27,2022-02-12_14h43.09.189,lexical_decision_task_DD_L4,2021.2.3,Win32,59.95203837,,,,,,,,,,,,0.463,1,,,,,,,,,,,,,,z,1,0.463,,,,,,,,0.85462963,-0.29537037,0,0,0,,0,88,88,129,1,PRANS,C,old,z,./images/PRANS.png,,,,,,,,,,,,,,,,,,,,,,,,,,,,,,,,,,
,,,,,,,,,,,,,,,,,5fc8a956800c80232e0b7a32,27,2022-02-12_14h43.09.189,lexical_decision_task_DD_L4,2021.2.3,Win32,59.95203837,,,,,,,,,,,,0.482,1,,,,,,,,,,,,,,z,1,0.482,,,,,,,,0.85462963,-0.29537037,0,0,0,,0,89,89,89,1,DRIEK,LB,old,z,./images/DRIEKLB.png,,,,,,,,,,,,,,,,,,,,,,,,,,,,,,,,,,
,,,,,,,,,,,,,,,,,5fc8a956800c80232e0b7a32,27,2022-02-12_14h43.09.189,lexical_decision_task_DD_L4,2021.2.3,Win32,59.95203837,,,,,,,,,,,,0.442,1,,,,,,,,,,,,,,z,1,0.442,,,,,,,,0.85462963,-0.29537037,0,0,0,,0,90,90,123,1,SEDGE,C,old,z,./images/SEDGE.png,,,,,,,,,,,,,,,,,,,,,,,,,,,,,,,,,,
,,,,,,,,,,,,,,,,,5fc8a956800c80232e0b7a32,27,2022-02-12_14h43.09.189,lexical_decision_task_DD_L4,2021.2.3,Win32,59.95203837,,,,,,,,,,,,0.598,1,,,,,,,,,,,,,,m,1,0.598,,,,,,,,0.85462963,-0.29537037,0,0,0,,0,91,91,32,1,HOCKEY,LB,old,m,./images/HOCKEYLB.png,,,,,,,,,,,,,,,,,,,,,,,,,,,,,,,,,,
,,,,,,,,,,,,,,,,,5fc8a956800c80232e0b7a32,27,2022-02-12_14h43.09.189,lexical_decision_task_DD_L4,2021.2.3,Win32,59.95203837,,,,,,,,,,,,0.496,1,,,,,,,,,,,,,,m,1,0.496,,,,,,,,0.85462963,-0.29537037,0,0,0,,0,92,92,21,1,DANCER,C,old,m,./images/DANCER.png,,,,,,,,,,,,,,,,,,,,,,,,,,,,,,,,,,
,,,,,,,,,,,,,,,,,5fc8a956800c80232e0b7a32,27,2022-02-12_14h43.09.189,lexical_decision_task_DD_L4,2021.2.3,Win32,59.95203837,,,,,,,,,,,,0.501,0,,,,,,,,,,,,,,z,0,0.501,,,,,,,,0.85462963,-0.29537037,0,0,0,,0,93,93,30,1,SLOPE,C,old,m,./images/SLOPE.png,,,,,,,,,,,,,,,,,,,,,,,,,,,,,,,,,,
,,,,,,,,,,,,,,,,,5fc8a956800c80232e0b7a32,27,2022-02-12_14h43.09.189,lexical_decision_task_DD_L4,2021.2.3,Win32,59.95203837,,,,,,,,,,,,1.089,0,,,,,,,,,,,,,,z,0,1.089,,,,,,,,0.85462963,-0.29537037,0,0,0,,0,94,94,20,1,GRANNY,LB,old,m,./images/GRANNYLB.png,,,,,,,,,,,,,,,,,,,,,,,,,,,,,,,,,,
,,,,,,,,,,,,,,,,,5fc8a956800c80232e0b7a32,27,2022-02-12_14h43.09.189,lexical_decision_task_DD_L4,2021.2.3,Win32,59.95203837,,,,,,,,,,,,0.971,1,,,,,,,,,,,,,,z,1,0.971,,,,,,,,0.85462963,-0.29537037,0,0,0,,0,95,95,85,1,CHULK,HB,old,z,./images/CHULKHB.png,,,,,,,,,,,,,,,,,,,,,,,,,,,,,,,,,,
,,,,,,,,,,,,,,,,,5fc8a956800c80232e0b7a32,27,2022-02-12_14h43.09.189,lexical_decision_task_DD_L4,2021.2.3,Win32,59.95203837,,,,,,,,,,,,0.903,1,,,,,,,,,,,,,,z,1,0.903,,,,,,,,0.85462963,-0.29537037,0,0,0,,0,96,96,106,1,CLUMS,HB,old,z,./images/CLUMSHB.png,,,,,,,,,,,,,,,,,,,,,,,,,,,,,,,,,,
,,,,,,,,,,,,,,,,,5fc8a956800c80232e0b7a32,27,2022-02-12_14h43.09.189,lexical_decision_task_DD_L4,2021.2.3,Win32,59.95203837,,,,,,,,,,,,0.546,1,,,,,,,,,,,,,,z,1,0.546,,,,,,,,0.85462963,-0.29537037,0,0,0,,0,97,97,135,1,JOODY,C,old,z,./images/JOODY.png,,,,,,,,,,,,,,,,,,,,,,,,,,,,,,,,,,
,,,,,,,,,,,,,,,,,5fc8a956800c80232e0b7a32,27,2022-02-12_14h43.09.189,lexical_decision_task_DD_L4,2021.2.3,Win32,59.95203837,,,,,,,,,,,,0.697,1,,,,,,,,,,,,,,m,1,0.697,,,,,,,,0.85462963,-0.29537037,0,0,0,,0,98,98,39,1,CANDY,C,old,m,./images/CANDY.png,,,,,,,,,,,,,,,,,,,,,,,,,,,,,,,,,,
,,,,,,,,,,,,,,,,,5fc8a956800c80232e0b7a32,27,2022-02-12_14h43.09.189,lexical_decision_task_DD_L4,2021.2.3,Win32,59.95203837,,,,,,,,,,,,0.564,1,,,,,,,,,,,,,,z,1,0.564,,,,,,,,0.85462963,-0.29537037,0,0,0,,0,99,99,144,1,NAIRY,C,old,z,./images/NAIRY.png,,,,,,,,,,,,,,,,,,,,,,,,,,,,,,,,,,
,,,,,,,,,,,,,,,,,5fc8a956800c80232e0b7a32,27,2022-02-12_14h43.09.189,lexical_decision_task_DD_L4,2021.2.3,Win32,59.95203837,,,,,,,,,,,,0.517,1,,,,,,,,,,,,,,m,1,0.517,,,,,,,,0.85462963,-0.29537037,0,0,0,,0,100,100,83,1,WHISKY,LB,old,m,./images/WHISKYLB.png,,,,,,,,,,,,,,,,,,,,,,,,,,,,,,,,,,
,,,,,,,,,,,,,,,,,5fc8a956800c80232e0b7a32,27,2022-02-12_14h43.09.189,lexical_decision_task_DD_L4,2021.2.3,Win32,59.95203837,,,,,,,,,,,,0.553,1,,,,,,,,,,,,,,z,1,0.553,,,,,,,,0.85462963,-0.29537037,0,0,0,,0,101,101,117,1,STEEG,C,old,z,./images/STEEG.png,,,,,,,,,,,,,,,,,,,,,,,,,,,,,,,,,,
,,,,,,,,,,,,,,,,,5fc8a956800c80232e0b7a32,27,2022-02-12_14h43.09.189,lexical_decision_task_DD_L4,2021.2.3,Win32,59.95203837,,,,,,,,,,,,0.549,1,,,,,,,,,,,,,,m,1,0.549,,,,,,,,0.85462963,-0.29537037,0,0,0,,0,102,102,48,1,SHIELD,C,old,m,./images/SHIELD.png,,,,,,,,,,,,,,,,,,,,,,,,,,,,,,,,,,
,,,,,,,,,,,,,,,,,5fc8a956800c80232e0b7a32,27,2022-02-12_14h43.09.189,lexical_decision_task_DD_L4,2021.2.3,Win32,59.95203837,,,,,,,,,,,,0.537,1,,,,,,,,,,,,,,m,1,0.537,,,,,,,,0.85462963,-0.29537037,0,0,0,,0,103,103,27,1,BUTTER,C,old,m,./images/BUTTER.png,,,,,,,,,,,,,,,,,,,,,,,,,,,,,,,,,,
,,,,,,,,,,,,,,,,,5fc8a956800c80232e0b7a32,27,2022-02-12_14h43.09.189,lexical_decision_task_DD_L4,2021.2.3,Win32,59.95203837,,,,,,,,,,,,0.694,1,,,,,,,,,,,,,,m,1,0.694,,,,,,,,0.85462963,-0.29537037,0,0,0,,0,104,104,28,1,CASINO,HB,old,m,./images/CASINOHB.png,,,,,,,,,,,,,,,,,,,,,,,,,,,,,,,,,,
,,,,,,,,,,,,,,,,,5fc8a956800c80232e0b7a32,27,2022-02-12_14h43.09.189,lexical_decision_task_DD_L4,2021.2.3,Win32,59.95203837,,,,,,,,,,,,0.504,1,,,,,,,,,,,,,,m,1,0.504,,,,,,,,0.85462963,-0.29537037,0,0,0,,0,105,105,38,1,ENGINE,LB,old,m,./images/ENGINELB.png,,,,,,,,,,,,,,,,,,,,,,,,,,,,,,,,,,
,,,,,,,,,,,,,,,,,5fc8a956800c80232e0b7a32,27,2022-02-12_14h43.09.189,lexical_decision_task_DD_L4,2021.2.3,Win32,59.95203837,,,,,,,,,,,,0.632,1,,,,,,,,,,,,,,z,1,0.632,,,,,,,,0.85462963,-0.29537037,0,0,0,,0,106,106,88,1,GLUSH,HB,old,z,./images/GLUSHHB.png,,,,,,,,,,,,,,,,,,,,,,,,,,,,,,,,,,
,,,,,,,,,,,,,,,,,5fc8a956800c80232e0b7a32,27,2022-02-12_14h43.09.189,lexical_decision_task_DD_L4,2021.2.3,Win32,59.95203837,,,,,,,,,,,,0.449,1,,,,,,,,,,,,,,m,1,0.449,,,,,,,,0.85462963,-0.29537037,0,0,0,,0,107,107,81,1,DRILL,C,old,m,./images/DRILL.png,,,,,,,,,,,,,,,,,,,,,,,,,,,,,,,,,,
,,,,,,,,,,,,,,,,,5fc8a956800c80232e0b7a32,27,2022-02-12_14h43.09.189,lexical_decision_task_DD_L4,2021.2.3,Win32,59.95203837,,,,,,,,,,,,0.503,1,,,,,,,,,,,,,,m,1,0.503,,,,,,,,0.85462963,-0.29537037,0,0,0,,0,108,108,54,1,CHERRY,C,old,m,./images/CHERRY.png,,,,,,,,,,,,,,,,,,,,,,,,,,,,,,,,,,
,,,,,,,,,,,,,,,,,5fc8a956800c80232e0b7a32,27,2022-02-12_14h43.09.189,lexical_decision_task_DD_L4,2021.2.3,Win32,59.95203837,,,,,,,,,,,,1.369,1,,,,,,,,,,,,,,z,1,1.369,,,,,,,,0.85462963,-0.29537037,0,0,0,,0,109,109,163,1,GAMBA,HB,old,z,./images/GAMBAHB.png,,,,,,,,,,,,,,,,,,,,,,,,,,,,,,,,,,
,,,,,,,,,,,,,,,,,5fc8a956800c80232e0b7a32,27,2022-02-12_14h43.09.189,lexical_decision_task_DD_L4,2021.2.3,Win32,59.95203837,,,,,,,,,,,,0.534,1,,,,,,,,,,,,,,z,1,0.534,,,,,,,,0.85462963,-0.29537037,0,0,0,,0,110,110,87,1,TRING,C,old,z,./images/TRING.png,,,,,,,,,,,,,,,,,,,,,,,,,,,,,,,,,,
,,,,,,,,,,,,,,,,,5fc8a956800c80232e0b7a32,27,2022-02-12_14h43.09.189,lexical_decision_task_DD_L4,2021.2.3,Win32,59.95203837,,,,,,,,,,,,0.644,1,,,,,,,,,,,,,,m,1,0.644,,,,,,,,0.85462963,-0.29537037,0,0,0,,0,111,111,14,1,FENCE,LB,old,m,./images/FENCELB.png,,,,,,,,,,,,,,,,,,,,,,,,,,,,,,,,,,
,,,,,,,,,,,,,,,,,5fc8a956800c80232e0b7a32,27,2022-02-12_14h43.09.189,lexical_decision_task_DD_L4,2021.2.3,Win32,59.95203837,,,,,,,,,,,,0.451,1,,,,,,,,,,,,,,m,1,0.451,,,,,,,,0.85462963,-0.29537037,0,0,0,,0,112,112,65,1,SPINE,LB,old,m,./images/SPINELB.png,,,,,,,,,,,,,,,,,,,,,,,,,,,,,,,,,,
,,,,,,,,,,,,,,,,,5fc8a956800c80232e0b7a32,27,2022-02-12_14h43.09.189,lexical_decision_task_DD_L4,2021.2.3,Win32,59.95203837,,,,,,,,,,,,0.815,1,,,,,,,,,,,,,,z,1,0.815,,,,,,,,0.85462963,-0.29537037,0,0,0,,0,113,113,157,1,INLER,HB,old,z,./images/INLERHB.png,,,,,,,,,,,,,,,,,,,,,,,,,,,,,,,,,,
,,,,,,,,,,,,,,,,,5fc8a956800c80232e0b7a32,27,2022-02-12_14h43.09.189,lexical_decision_task_DD_L4,2021.2.3,Win32,59.95203837,,,,,,,,,,,,0.6,0,,,,,,,,,,,,,,m,0,0.6,,,,,,,,0.85462963,-0.29537037,0,0,0,,0,114,114,142,1,PLASK,HB,old,z,./images/PLASKHB.png,,,,,,,,,,,,,,,,,,,,,,,,,,,,,,,,,,
,,,,,,,,,,,,,,,,,5fc8a956800c80232e0b7a32,27,2022-02-12_14h43.09.189,lexical_decision_task_DD_L4,2021.2.3,Win32,59.95203837,,,,,,,,,,,,0.615,1,,,,,,,,,,,,,,m,1,0.615,,,,,,,,0.85462963,-0.29537037,0,0,0,,0,115,115,16,1,GRAPE,HB,old,m,./images/GRAPEHB.png,,,,,,,,,,,,,,,,,,,,,,,,,,,,,,,,,,
,,,,,,,,,,,,,,,,,5fc8a956800c80232e0b7a32,27,2022-02-12_14h43.09.189,lexical_decision_task_DD_L4,2021.2.3,Win32,59.95203837,,,,,,,,,,,,0.681,1,,,,,,,,,,,,,,m,1,0.681,,,,,,,,0.85462963,-0.29537037,0,0,0,,0,116,116,46,1,MUMMY,HB,old,m,./images/MUMMYHB.png,,,,,,,,,,,,,,,,,,,,,,,,,,,,,,,,,,
,,,,,,,,,,,,,,,,,5fc8a956800c80232e0b7a32,27,2022-02-12_14h43.09.189,lexical_decision_task_DD_L4,2021.2.3,Win32,59.95203837,,,,,,,,,,,,0.463,1,,,,,,,,,,,,,,m,1,0.463,,,,,,,,0.85462963,-0.29537037,0,0,0,,0,117,117,71,1,BUBBLE,LB,old,m,./images/BUBBLELB.png,,,,,,,,,,,,,,,,,,,,,,,,,,,,,,,,,,
,,,,,,,,,,,,,,,,,5fc8a956800c80232e0b7a32,27,2022-02-12_14h43.09.189,lexical_decision_task_DD_L4,2021.2.3,Win32,59.95203837,,,,,,,,,,,,0.781,1,,,,,,,,,,,,,,z,1,0.781,,,,,,,,0.85462963,-0.29537037,0,0,0,,0,118,118,104,1,GITTY,LB,old,z,./images/GITTYLB.png,,,,,,,,,,,,,,,,,,,,,,,,,,,,,,,,,,
,,,,,,,,,,,,,,,,,5fc8a956800c80232e0b7a32,27,2022-02-12_14h43.09.189,lexical_decision_task_DD_L4,2021.2.3,Win32,59.95203837,,,,,,,,,,,,0.598,1,,,,,,,,,,,,,,m,1,0.598,,,,,,,,0.85462963,-0.29537037,0,0,0,,0,119,119,56,1,HEATER,LB,old,m,./images/HEATERLB.png,,,,,,,,,,,,,,,,,,,,,,,,,,,,,,,,,,
,,,,,,,,,,,,,,,,,5fc8a956800c80232e0b7a32,27,2022-02-12_14h43.09.189,lexical_decision_task_DD_L4,2021.2.3,Win32,59.95203837,,,,,,,,,,,,0.467,0,,,,,,,,,,,,,,m,0,0.467,,,,,,,,0.85462963,-0.29537037,0,0,0,,0,120,120,107,1,FASKS,LB,old,z,./images/FASKSLB.png,,,,,,,,,,,,,,,,,,,,,,,,,,,,,,,,,,
,,,,,,,,,,,,,,,,,5fc8a956800c80232e0b7a32,27,2022-02-12_14h43.09.189,lexical_decision_task_DD_L4,2021.2.3,Win32,59.95203837,,,,,,,,,,,,0.581,1,,,,,,,,,,,,,,z,1,0.581,,,,,,,,0.85462963,-0.29537037,0,0,0,,0,121,121,158,1,EGECT,LB,old,z,./images/EGECTLB.png,,,,,,,,,,,,,,,,,,,,,,,,,,,,,,,,,,
,,,,,,,,,,,,,,,,,5fc8a956800c80232e0b7a32,27,2022-02-12_14h43.09.189,lexical_decision_task_DD_L4,2021.2.3,Win32,59.95203837,,,,,,,,,,,,0.459,1,,,,,,,,,,,,,,m,1,0.459,,,,,,,,0.85462963,-0.29537037,0,0,0,,0,122,122,75,1,HAMMER,C,old,m,./images/HAMMER.png,,,,,,,,,,,,,,,,,,,,,,,,,,,,,,,,,,
,,,,,,,,,,,,,,,,,5fc8a956800c80232e0b7a32,27,2022-02-12_14h43.09.189,lexical_decision_task_DD_L4,2021.2.3,Win32,59.95203837,,,,,,,,,,,,0.591,1,,,,,,,,,,,,,,z,1,0.591,,,,,,,,0.85462963,-0.29537037,0,0,0,,0,123,123,152,1,FRAIN,LB,old,z,./images/FRAINLB.png,,,,,,,,,,,,,,,,,,,,,,,,,,,,,,,,,,
,,,,,,,,,,,,,,,,,5fc8a956800c80232e0b7a32,27,2022-02-12_14h43.09.189,lexical_decision_task_DD_L4,2021.2.3,Win32,59.95203837,,,,,,,,,,,,0.716,1,,,,,,,,,,,,,,z,1,0.716,,,,,,,,0.85462963,-0.29537037,0,0,0,,0,124,124,90,1,NEAST,C,old,z,./images/NEAST.png,,,,,,,,,,,,,,,,,,,,,,,,,,,,,,,,,,
,,,,,,,,,,,,,,,,,5fc8a956800c80232e0b7a32,27,2022-02-12_14h43.09.189,lexical_decision_task_DD_L4,2021.2.3,Win32,59.95203837,,,,,,,,,,,,0.597,1,,,,,,,,,,,,,,z,1,0.597,,,,,,,,0.85462963,-0.29537037,0,0,0,space,0,125,125,92,1,PAIMS,LB,old,z,./images/PAIMSLB.png,1.147,,,,,,,,,,,,,,,,,,,,,,,,,,,,,,,,,
,,,,,,,,,,,,,,,,,5fc8a956800c80232e0b7a32,27,2022-02-12_14h43.09.189,lexical_decision_task_DD_L4,2021.2.3,Win32,59.95203837,,,,,,,,,,,,0.849,1,,,,,,,,,,,,,,m,1,0.849,,,,,,,,0.85462963,-0.29537037,0,0,0,,0,126,126,76,1,MIDGET,HB,old,m,./images/MIDGETHB.png,,,,,,,,,,,,,,,,,,,,,,,,,,,,,,,,,,
,,,,,,,,,,,,,,,,,5fc8a956800c80232e0b7a32,27,2022-02-12_14h43.09.189,lexical_decision_task_DD_L4,2021.2.3,Win32,59.95203837,,,,,,,,,,,,0.653,0,,,,,,,,,,,,,,z,0,0.653,,,,,,,,0.85462963,-0.29537037,0,0,0,,0,127,127,25,1,CHALK,HB,old,m,./images/CHALKHB.png,,,,,,,,,,,,,,,,,,,,,,,,,,,,,,,,,,
,,,,,,,,,,,,,,,,,5fc8a956800c80232e0b7a32,27,2022-02-12_14h43.09.189,lexical_decision_task_DD_L4,2021.2.3,Win32,59.95203837,,,,,,,,,,,,0.557,1,,,,,,,,,,,,,,z,1,0.557,,,,,,,,0.85462963,-0.29537037,0,0,0,,0,128,128,161,1,BLAPS,LB,old,z,./images/BLAPSLB.png,,,,,,,,,,,,,,,,,,,,,,,,,,,,,,,,,,
,,,,,,,,,,,,,,,,,5fc8a956800c80232e0b7a32,27,2022-02-12_14h43.09.189,lexical_decision_task_DD_L4,2021.2.3,Win32,59.95203837,,,,,,,,,,,,0.486,1,,,,,,,,,,,,,,m,1,0.486,,,,,,,,0.85462963,-0.29537037,0,0,0,,0,129,129,36,1,BOILER,C,old,m,./images/BOILER.png,,,,,,,,,,,,,,,,,,,,,,,,,,,,,,,,,,
,,,,,,,,,,,,,,,,,5fc8a956800c80232e0b7a32,27,2022-02-12_14h43.09.189,lexical_decision_task_DD_L4,2021.2.3,Win32,59.95203837,,,,,,,,,,,,0.832,1,,,,,,,,,,,,,,z,1,0.832,,,,,,,,0.85462963,-0.29537037,0,0,0,,0,130,130,110,1,CRUNK,LB,old,z,./images/CRUNKLB.png,,,,,,,,,,,,,,,,,,,,,,,,,,,,,,,,,,
,,,,,,,,,,,,,,,,,5fc8a956800c80232e0b7a32,27,2022-02-12_14h43.09.189,lexical_decision_task_DD_L4,2021.2.3,Win32,59.95203837,,,,,,,,,,,,0.551,1,,,,,,,,,,,,,,z,1,0.551,,,,,,,,0.85462963,-0.29537037,0,0,0,,0,131,131,95,1,HANTY,LB,old,z,./images/HANTYLB.png,,,,,,,,,,,,,,,,,,,,,,,,,,,,,,,,,,
,,,,,,,,,,,,,,,,,5fc8a956800c80232e0b7a32,27,2022-02-12_14h43.09.189,lexical_decision_task_DD_L4,2021.2.3,Win32,59.95203837,,,,,,,,,,,,0.719,1,,,,,,,,,,,,,,z,1,0.719,,,,,,,,0.85462963,-0.29537037,0,0,0,,0,132,132,145,1,LAMEL,HB,old,z,./images/LAMELHB.png,,,,,,,,,,,,,,,,,,,,,,,,,,,,,,,,,,
,,,,,,,,,,,,,,,,,5fc8a956800c80232e0b7a32,27,2022-02-12_14h43.09.189,lexical_decision_task_DD_L4,2021.2.3,Win32,59.95203837,,,,,,,,,,,,0.554,1,,,,,,,,,,,,,,m,1,0.554,,,,,,,,0.85462963,-0.29537037,0,0,0,,0,133,133,51,1,SAUCE,C,old,m,./images/SAUCE.png,,,,,,,,,,,,,,,,,,,,,,,,,,,,,,,,,,
,,,,,,,,,,,,,,,,,5fc8a956800c80232e0b7a32,27,2022-02-12_14h43.09.189,lexical_decision_task_DD_L4,2021.2.3,Win32,59.95203837,,,,,,,,,,,,1.571,1,,,,,,,,,,,,,,m,1,1.571,,,,,,,,0.85462963,-0.29537037,0,0,0,,0,134,134,35,1,LLAMA,LB,old,m,./images/LLAMALB.png,,,,,,,,,,,,,,,,,,,,,,,,,,,,,,,,,,
,,,,,,,,,,,,,,,,,5fc8a956800c80232e0b7a32,27,2022-02-12_14h43.09.189,lexical_decision_task_DD_L4,2021.2.3,Win32,59.95203837,,,,,,,,,,,,0.863,1,,,,,,,,,,,,,,m,1,0.863,,,,,,,,0.85462963,-0.29537037,0,0,0,,0,135,135,13,1,BUNNY,HB,old,m,./images/BUNNYHB.png,,,,,,,,,,,,,,,,,,,,,,,,,,,,,,,,,,
,,,,,,,,,,,,,,,,,5fc8a956800c80232e0b7a32,27,2022-02-12_14h43.09.189,lexical_decision_task_DD_L4,2021.2.3,Win32,59.95203837,,,,,,,,,,,,0.521,1,,,,,,,,,,,,,,m,1,0.521,,,,,,,,0.85462963,-0.29537037,0,0,0,,0,136,136,17,1,PARADE,LB,old,m,./images/PARADELB.png,,,,,,,,,,,,,,,,,,,,,,,,,,,,,,,,,,
,,,,,,,,,,,,,,,,,5fc8a956800c80232e0b7a32,27,2022-02-12_14h43.09.189,lexical_decision_task_DD_L4,2021.2.3,Win32,59.95203837,,,,,,,,,,,,0.95,1,,,,,,,,,,,,,,z,1,0.95,,,,,,,,0.85462963,-0.29537037,0,0,0,,0,137,137,127,1,NINDY,HB,old,z,./images/NINDYHB.png,,,,,,,,,,,,,,,,,,,,,,,,,,,,,,,,,,
,,,,,,,,,,,,,,,,,5fc8a956800c80232e0b7a32,27,2022-02-12_14h43.09.189,lexical_decision_task_DD_L4,2021.2.3,Win32,59.95203837,,,,,,,,,,,,0.701,1,,,,,,,,,,,,,,m,1,0.701,,,,,,,,0.85462963,-0.29537037,0,0,0,,0,138,138,43,1,STOOL,HB,old,m,./images/STOOLHB.png,,,,,,,,,,,,,,,,,,,,,,,,,,,,,,,,,,
,,,,,,,,,,,,,,,,,5fc8a956800c80232e0b7a32,27,2022-02-12_14h43.09.189,lexical_decision_task_DD_L4,2021.2.3,Win32,59.95203837,,,,,,,,,,,,0.633,0,,,,,,,,,,,,,,z,0,0.633,,,,,,,,0.85462963,-0.29537037,0,0,0,,0,139,139,3,1,CRATER,C,old,m,./images/CRATER.png,,,,,,,,,,,,,,,,,,,,,,,,,,,,,,,,,,
,,,,,,,,,,,,,,,,,5fc8a956800c80232e0b7a32,27,2022-02-12_14h43.09.189,lexical_decision_task_DD_L4,2021.2.3,Win32,59.95203837,,,,,,,,,,,,0.777,1,,,,,,,,,,,,,,z,1,0.777,,,,,,,,0.85462963,-0.29537037,0,0,0,,0,140,140,118,1,BAVEL,HB,old,z,./images/BAVELHB.png,,,,,,,,,,,,,,,,,,,,,,,,,,,,,,,,,,
,,,,,,,,,,,,,,,,,5fc8a956800c80232e0b7a32,27,2022-02-12_14h43.09.189,lexical_decision_task_DD_L4,2021.2.3,Win32,59.95203837,,,,,,,,,,,,0.499,1,,,,,,,,,,,,,,m,1,0.499,,,,,,,,0.85462963,-0.29537037,0,0,0,,0,141,141,70,1,BANANA,HB,old,m,./images/BANANAHB.png,,,,,,,,,,,,,,,,,,,,,,,,,,,,,,,,,,
,,,,,,,,,,,,,,,,,5fc8a956800c80232e0b7a32,27,2022-02-12_14h43.09.189,lexical_decision_task_DD_L4,2021.2.3,Win32,59.95203837,,,,,,,,,,,,0.588,1,,,,,,,,,,,,,,m,1,0.588,,,,,,,,0.85462963,-0.29537037,0,0,0,,0,142,142,57,1,FERRY,C,old,m,./images/FERRY.png,,,,,,,,,,,,,,,,,,,,,,,,,,,,,,,,,,
,,,,,,,,,,,,,,,,,5fc8a956800c80232e0b7a32,27,2022-02-12_14h43.09.189,lexical_decision_task_DD_L4,2021.2.3,Win32,59.95203837,,,,,,,,,,,,0.599,1,,,,,,,,,,,,,,m,1,0.599,,,,,,,,0.85462963,-0.29537037,0,0,0,,0,143,143,4,1,BOXER,HB,old,m,./images/BOXERHB.png,,,,,,,,,,,,,,,,,,,,,,,,,,,,,,,,,,
,,,,,,,,,,,,,,,,,5fc8a956800c80232e0b7a32,27,2022-02-12_14h43.09.189,lexical_decision_task_DD_L4,2021.2.3,Win32,59.95203837,,,,,,,,,,,,0.766,1,,,,,,,,,,,,,,z,1,0.766,,,,,,,,0.85462963,-0.29537037,0,0,0,,0,144,144,128,1,GRIFT,LB,old,z,./images/GRIFTLB.png,,,,,,,,,,,,,,,,,,,,,,,,,,,,,,,,,,
,,,,,,,,,,,,,,,,,5fc8a956800c80232e0b7a32,27,2022-02-12_14h43.09.189,lexical_decision_task_DD_L4,2021.2.3,Win32,59.95203837,,,,,,,,,,,,0.582,1,,,,,,,,,,,,,,z,1,0.582,,,,,,,,0.85462963,-0.29537037,0,0,0,,0,145,145,125,1,MOOKY,LB,old,z,./images/MOOKYLB.png,,,,,,,,,,,,,,,,,,,,,,,,,,,,,,,,,,
,,,,,,,,,,,,,,,,,5fc8a956800c80232e0b7a32,27,2022-02-12_14h43.09.189,lexical_decision_task_DD_L4,2021.2.3,Win32,59.95203837,,,,,,,,,,,,0.581,1,,,,,,,,,,,,,,z,1,0.581,,,,,,,,0.85462963,-0.29537037,0,0,0,,0,146,146,132,1,SCIFF,C,old,z,./images/SCIFF.png,,,,,,,,,,,,,,,,,,,,,,,,,,,,,,,,,,
,,,,,,,,,,,,,,,,,5fc8a956800c80232e0b7a32,27,2022-02-12_14h43.09.189,lexical_decision_task_DD_L4,2021.2.3,Win32,59.95203837,,,,,,,,,,,,0.548,1,,,,,,,,,,,,,,m,1,0.548,,,,,,,,0.85462963,-0.29537037,0,0,0,,0,147,147,50,1,PILOT,LB,old,m,./images/PILOTLB.png,,,,,,,,,,,,,,,,,,,,,,,,,,,,,,,,,,
,,,,,,,,,,,,,,,,,5fc8a956800c80232e0b7a32,27,2022-02-12_14h43.09.189,lexical_decision_task_DD_L4,2021.2.3,Win32,59.95203837,,,,,,,,,,,,0.73,1,,,,,,,,,,,,,,m,1,0.73,,,,,,,,0.85462963,-0.29537037,0,0,0,,0,148,148,10,1,GARDEN,HB,old,m,./images/GARDENHB.png,,,,,,,,,,,,,,,,,,,,,,,,,,,,,,,,,,
,,,,,,,,,,,,,,,,,5fc8a956800c80232e0b7a32,27,2022-02-12_14h43.09.189,lexical_decision_task_DD_L4,2021.2.3,Win32,59.95203837,,,,,,,,,,,,0.564,1,,,,,,,,,,,,,,z,1,0.564,,,,,,,,0.85462963,-0.29537037,0,0,0,,0,149,149,154,1,THINT,HB,old,z,./images/THINTHB.png,,,,,,,,,,,,,,,,,,,,,,,,,,,,,,,,,,
,,,,,,,,,,,,,,,,,5fc8a956800c80232e0b7a32,27,2022-02-12_14h43.09.189,lexical_decision_task_DD_L4,2021.2.3,Win32,59.95203837,,,,,,,,,,,,0.501,1,,,,,,,,,,,,,,z,1,0.501,,,,,,,,0.85462963,-0.29537037,0,0,0,,0,150,150,126,1,GUELS,C,old,z,./images/GUELS.png,,,,,,,,,,,,,,,,,,,,,,,,,,,,,,,,,,
,,,,,,,,,,,,,,,,,5fc8a956800c80232e0b7a32,27,2022-02-12_14h43.09.189,lexical_decision_task_DD_L4,2021.2.3,Win32,59.95203837,,,,,,,,,,,,0.538,0,,,,,,,,,,,,,,z,0,0.538,,,,,,,,0.85462963,-0.29537037,0,0,0,,0,151,151,55,1,ALLEY,HB,old,m,./images/ALLEYHB.png,,,,,,,,,,,,,,,,,,,,,,,,,,,,,,,,,,
,,,,,,,,,,,,,,,,,5fc8a956800c80232e0b7a32,27,2022-02-12_14h43.09.189,lexical_decision_task_DD_L4,2021.2.3,Win32,59.95203837,,,,,,,,,,,,0.666,1,,,,,,,,,,,,,,m,1,0.666,,,,,,,,0.85462963,-0.29537037,0,0,0,,0,152,152,80,1,PLANET,LB,old,m,./images/PLANETLB.png,,,,,,,,,,,,,,,,,,,,,,,,,,,,,,,,,,
,,,,,,,,,,,,,,,,,5fc8a956800c80232e0b7a32,27,2022-02-12_14h43.09.189,lexical_decision_task_DD_L4,2021.2.3,Win32,59.95203837,,,,,,,,,,,,0.597,1,,,,,,,,,,,,,,m,1,0.597,,,,,,,,0.85462963,-0.29537037,0,0,0,,0,153,153,78,1,BROOM,C,old,m,./images/BROOM.png,,,,,,,,,,,,,,,,,,,,,,,,,,,,,,,,,,
,,,,,,,,,,,,,,,,,5fc8a956800c80232e0b7a32,27,2022-02-12_14h43.09.189,lexical_decision_task_DD_L4,2021.2.3,Win32,59.95203837,,,,,,,,,,,,0.519,1,,,,,,,,,,,,,,m,1,0.519,,,,,,,,0.85462963,-0.29537037,0,0,0,,0,154,154,23,1,CLOTH,LB,old,m,./images/CLOTHLB.png,,,,,,,,,,,,,,,,,,,,,,,,,,,,,,,,,,
,,,,,,,,,,,,,,,,,5fc8a956800c80232e0b7a32,27,2022-02-12_14h43.09.189,lexical_decision_task_DD_L4,2021.2.3,Win32,59.95203837,,,,,,,,,,,,0.947,1,,,,,,,,,,,,,,z,1,0.947,,,,,,,,0.85462963,-0.29537037,0,0,0,,0,155,155,151,1,TINKY,HB,old,z,./images/TINKYHB.png,,,,,,,,,,,,,,,,,,,,,,,,,,,,,,,,,,
,,,,,,,,,,,,,,,,,5fc8a956800c80232e0b7a32,27,2022-02-12_14h43.09.189,lexical_decision_task_DD_L4,2021.2.3,Win32,59.95203837,,,,,,,,,,,,0.75,1,,,,,,,,,,,,,,m,1,0.75,,,,,,,,0.85462963,-0.29537037,0,0,0,,0,156,156,79,1,RULER,HB,old,m,./images/RULERHB.png,,,,,,,,,,,,,,,,,,,,,,,,,,,,,,,,,,
,,,,,,,,,,,,,,,,,5fc8a956800c80232e0b7a32,27,2022-02-12_14h43.09.189,lexical_decision_task_DD_L4,2021.2.3,Win32,59.95203837,,,,,,,,,,,,0.621,1,,,,,,,,,,,,,,z,1,0.621,,,,,,,,0.85462963,-0.29537037,0,0,0,,0,157,157,84,1,HAXES,C,old,z,./images/HAXES.png,,,,,,,,,,,,,,,,,,,,,,,,,,,,,,,,,,
,,,,,,,,,,,,,,,,,5fc8a956800c80232e0b7a32,27,2022-02-12_14h43.09.189,lexical_decision_task_DD_L4,2021.2.3,Win32,59.95203837,,,,,,,,,,,,0.684,1,,,,,,,,,,,,,,m,1,0.684,,,,,,,,0.85462963,-0.29537037,0,0,0,,0,158,158,8,1,CLIFF,LB,old,m,./images/CLIFFLB.png,,,,,,,,,,,,,,,,,,,,,,,,,,,,,,,,,,
,,,,,,,,,,,,,,,,,5fc8a956800c80232e0b7a32,27,2022-02-12_14h43.09.189,lexical_decision_task_DD_L4,2021.2.3,Win32,59.95203837,,,,,,,,,,,,0.686,1,,,,,,,,,,,,,,z,1,0.686,,,,,,,,0.85462963,-0.29537037,0,0,0,,0,159,159,139,1,BLEAR,HB,old,z,./images/BLEARHB.png,,,,,,,,,,,,,,,,,,,,,,,,,,,,,,,,,,
,,,,,,,,,,,,,,,,,5fc8a956800c80232e0b7a32,27,2022-02-12_14h43.09.189,lexical_decision_task_DD_L4,2021.2.3,Win32,59.95203837,,,,,,,,,,,,0.668,1,,,,,,,,,,,,,,m,1,0.668,,,,,,,,0.85462963,-0.29537037,0,0,0,,0,160,160,49,1,BISHOP,HB,old,m,./images/BISHOPHB.png,,,,,,,,,,,,,,,,,,,,,,,,,,,,,,,,,,
,,,,,,,,,,,,,,,,,5fc8a956800c80232e0b7a32,27,2022-02-12_14h43.09.189,lexical_decision_task_DD_L4,2021.2.3,Win32,59.95203837,,,,,,,,,,,,0.584,1,,,,,,,,,,,,,,m,1,0.584,,,,,,,,0.85462963,-0.29537037,0,0,0,,0,161,161,31,1,STEAK,HB,old,m,./images/STEAKHB.png,,,,,,,,,,,,,,,,,,,,,,,,,,,,,,,,,,
,,,,,,,,,,,,,,,,,5fc8a956800c80232e0b7a32,27,2022-02-12_14h43.09.189,lexical_decision_task_DD_L4,2021.2.3,Win32,59.95203837,,,,,,,,,,,,0.899,1,,,,,,,,,,,,,,m,1,0.899,,,,,,,,0.85462963,-0.29537037,0,0,0,,0,162,162,64,1,BRIDE,HB,old,m,./images/BRIDEHB.png,,,,,,,,,,,,,,,,,,,,,,,,,,,,,,,,,,
,,,,,,,,,,,,,,,,,5fc8a956800c80232e0b7a32,27,2022-02-12_14h43.09.189,lexical_decision_task_DD_L4,2021.2.3,Win32,59.95203837,,,,,,,,,,,,0.903,1,,,,,,,,,,,,,,m,1,0.903,,,,,,,,0.85462963,-0.29537037,0,0,0,,0,163,163,0,1,WALNUT,C,old,m,./images/WALNUT.png,,,,,,,,,,,,,,,,,,,,,,,,,,,,,,,,,,
,,,,,,,,,,,,,,,,,5fc8a956800c80232e0b7a32,27,2022-02-12_14h43.09.189,lexical_decision_task_DD_L4,2021.2.3,Win32,59.95203837,,,,,,,,,,,,0.534,1,,,,,,,,,,,,,,m,1,0.534,,,,,,,,0.85462963,-0.29537037,0,0,0,,0,164,164,60,1,CURRY,C,old,m,./images/CURRY.png,,,,,,,,,,,,,,,,,,,,,,,,,,,,,,,,,,
,,,,,,,,,,,,,,,,,5fc8a956800c80232e0b7a32,27,2022-02-12_14h43.09.189,lexical_decision_task_DD_L4,2021.2.3,Win32,59.95203837,,,,,,,,,,,,0.585,1,,,,,,,,,,,,,,z,1,0.585,,,,,,,,0.85462963,-0.29537037,0,0,0,,0,165,165,167,1,ZONET,LB,old,z,./images/ZONETLB.png,,,,,,,,,,,,,,,,,,,,,,,,,,,,,,,,,,
,,,,,,,,,,,,,,,,,5fc8a956800c80232e0b7a32,27,2022-02-12_14h43.09.189,lexical_decision_task_DD_L4,2021.2.3,Win32,59.95203837,,,,,,,,,,,,0.533,1,,,,,,,,,,,,,,m,1,0.533,,,,,,,,0.85462963,-0.29537037,0,0,0,,0,166,166,22,1,CLOWN,HB,old,m,./images/CLOWNHB.png,,,,,,,,,,,,,,,,,,,,,,,,,,,,,,,,,,
,,,,,,,,,,,,,,,,,5fc8a956800c80232e0b7a32,27,2022-02-12_14h43.09.189,lexical_decision_task_DD_L4,2021.2.3,Win32,59.95203837,,,,,,,,,,,,0.755,1,,,,,,,,,,,,,,z,1,0.755,,,,,,,,0.85462963,-0.29537037,0,0,0,,0,167,167,160,1,VEETS,HB,old,z,./images/VEETSHB.png,,,,,,,,,,,,,,,,,,,,,,,,,,,,,,,,,,
,,,,,,,,,,,,,,,,,5fc8a956800c80232e0b7a32,27,2022-02-12_14h43.09.189,lexical_decision_task_DD_L4,2021.2.3,Win32,59.95203837,,,,,,,,,,,,,,,,,,,,,,,,,,,,,,,,,,,,,,,,,,,,,,,,,How likely will it be that you will recognize the words presented clearly on a scale of 0 (not likely) to 100 (most likely)?,,,,,0.005555556,-0.400925926,1,0,0,jol_adv,6,11.714,0,0,0,0,1,,,,,,,,,,,,,,,,,,,,
,,,,,,,,,,,,,,,,,5fc8a956800c80232e0b7a32,27,2022-02-12_14h43.09.189,lexical_decision_task_DD_L4,2021.2.3,Win32,59.95203837,,,,,,,,,,,,,,,,,,,,,,,,,,,,,,,,,,,,,,,,,,,,,,,,,How likely will it be that you will recognize the words presented very blurred on a scale of 0 (not likely) to 100 (most likely)?,,,,,,,,,,,1,4.025,0,1,1,2,1,,,,,,,,,,,,,,,,,,,,
,,,,,,,,,,,,,,,,,5fc8a956800c80232e0b7a32,27,2022-02-12_14h43.09.189,lexical_decision_task_DD_L4,2021.2.3,Win32,59.95203837,,,,,,,,,,,,,,,,,,,,,,,,,,,,,,,,,,,,,,,,,,,,,,,,,How likely will it be that you will recognize the words presented slighly blurred on a scale of 0 (not likely) to 100 (most likely)?,,,,,,,,,,,2,5.009,0,2,2,1,1,,,,,,,,,,,,,,,,,,,,
,-0.131481481,-0.377777778,1,0,0,instr_done_button,,,,,,1,test,"In the next phase you will be presented with the words from the the first phase. Your job is to decide whether you remember seeing the word or not. If you remember seeing the word press ""old"" or type ""m"". If you do not remember seeing the word press ""new"" or type ""z"". Please press the space bar or click on continue to begin. ",,,5fc8a956800c80232e0b7a32,27,2022-02-12_14h43.09.189,lexical_decision_task_DD_L4,2021.2.3,Win32,59.95203837,,,,,,,,,,,,,,,,,,,,,,,,,,,,,,,,,,,,,,,,,,,,,,,,,,,,,,,,,,,,,,,,,,,0,0,0,0,1,,,,,,,,,,,,,,,
,0.018518519,-0.401851852,1,0,0,instr_done_button,,,,,,1,test,"In the next phase you will be presented with the words from the the first phase. Your job is to decide whether you remember seeing the word or not. If you remember seeing the word press ""old"" or type ""m"". If you do not remember seeing the word press ""new"" or type ""z"". Please press the space bar or click on continue to begin. ",,,5fc8a956800c80232e0b7a32,27,2022-02-12_14h43.09.189,lexical_decision_task_DD_L4,2021.2.3,Win32,59.95203837,,,,,,,,,,,,,,,,,,,,,,,,,,,,,,,,,,,,,,,,,,,,,,,,,,,,,,,,,,,,,,,,,,,1,0,1,0,1,,,,,,,,,,,,,,,
space,0.153703704,-0.213888889,0,0,0,,,,,,,1,test,"In the next phase you will be presented with the words from the the first phase. Your job is to decide whether you remember seeing the word or not. If you remember seeing the word press ""old"" or type ""m"". If you do not remember seeing the word press ""new"" or type ""z"". Please press the space bar or click on continue to begin. ",,,5fc8a956800c80232e0b7a32,27,2022-02-12_14h43.09.189,lexical_decision_task_DD_L4,2021.2.3,Win32,59.95203837,1.364,,,,,,,,,,,,,,,,,,,,,,,,,,,,,,,,,,,,,,,,,,,,,,,,,,,,,,,,,,,,,,,,,,2,0,2,0,1,,,,,,,,,,,,,,,
,0.025925926,-0.413888889,1,0,0,instr_done_button,,,,,,1,test,"In the next phase you will be presented with the words from the the first phase. Your job is to decide whether you remember seeing the word or not. If you remember seeing the word press ""old"" or type ""m"". If you do not remember seeing the word press ""new"" or type ""z"". Please press the space bar or click on continue to begin. ",,,5fc8a956800c80232e0b7a32,27,2022-02-12_14h43.09.189,lexical_decision_task_DD_L4,2021.2.3,Win32,59.95203837,,,,,,,,,,,,,,,,,,,,,,,,,,,,,,,,,,,,,,,,,,,,,,,,,,,,,,,,,,,,,,,,,,,3,0,3,0,1,,,,,,,,,,,,,,,
,0.00621118,-0.427536232,1,0,0,instr_done_button,,,,,,1,test,"In the next phase you will be presented with the words from the the first phase. Your job is to decide whether you remember seeing the word or not. If you remember seeing the word press ""old"" or type ""m"". If you do not remember seeing the word press ""new"" or type ""z"". Please press the space bar or click on continue to begin. ",,,5fc8a956800c80232e0b7a32,27,2022-02-12_14h43.09.189,lexical_decision_task_DD_L4,2021.2.3,Win32,59.95203837,,,,,,,,,,,,,,,,,,,,,,,,,,,,,,,,,,,,,,,,,,,,,,,,,,,,,,,,,,,,,,,,,,,4,0,4,0,1,,,,,,,,,,,,,,,
,,,,,,,,,,,,,,,,,5fc8a956800c80232e0b7a32,27,2022-02-12_14h43.09.189,lexical_decision_task_DD_L4,2021.2.3,Win32,59.95203837,,,,,,,,,,,,3.438,1,,,,,,,,,,,,,,,,,,,,,,,,-0.300925926,-0.359259259,1,0,0,,,,,,,SNACK,HB,z,y,./images/SNACKHB.png,,,,,,,,,,,,,,,,,,,,,0,-0.300925926,-0.359259259,1,0,0,3.438,button_left_test,0,0,0,157,1,
,,,,,,,,,,,,,,,,,5fc8a956800c80232e0b7a32,27,2022-02-12_14h43.09.189,lexical_decision_task_DD_L4,2021.2.3,Win32,59.95203837,,,,,,,,,,,,1.63,1,,,,,,,,,,,,,,,,,,,,,,,,0.459259259,-0.292592593,1,0,0,,,,,,,ENGINE,LB,m,y,./images/ENGINELB.png,,,,,,,,,,,,,,,,,,,,,0,0.459259259,-0.292592593,1,0,0,1.63,button_right_test,0,1,1,38,1,
,,,,,,,,,,,,,,,,,5fc8a956800c80232e0b7a32,27,2022-02-12_14h43.09.189,lexical_decision_task_DD_L4,2021.2.3,Win32,59.95203837,,,,,,,,,,,,1.433,1,,,,,,,,,,,,,,,,,,,,,,,,0.773148148,-0.006481481,0,0,0,,,,,,,PEBBLE,HB,m,y,./images/PEBBLEHB.png,,,,,,,,,,,,,,,,,,,,m,1,,,,,,,,0,2,2,82,1,1.433
,,,,,,,,,,,,,,,,,5fc8a956800c80232e0b7a32,27,2022-02-12_14h43.09.189,lexical_decision_task_DD_L4,2021.2.3,Win32,59.95203837,,,,,,,,,,,,0.704,0,,,,,,,,,,,,,,,,,,,,,,,,0.773148148,-0.006481481,0,0,0,,,,,,,SQUARE,C,z,y,./images/SQUARE.png,,,,,,,,,,,,,,,,,,,,m,0,,,,,,,,0,3,3,90,1,0.704
,,,,,,,,,,,,,,,,,5fc8a956800c80232e0b7a32,27,2022-02-12_14h43.09.189,lexical_decision_task_DD_L4,2021.2.3,Win32,59.95203837,,,,,,,,,,,,0.555,1,,,,,,,,,,,,,,,,,,,,,,,,0.773148148,-0.006481481,0,0,0,,,,,,,TIGER,HB,m,y,./images/TIGERHB.png,,,,,,,,,,,,,,,,,,,,m,1,,,,,,,,0,4,4,37,1,0.555
,,,,,,,,,,,,,,,,,5fc8a956800c80232e0b7a32,27,2022-02-12_14h43.09.189,lexical_decision_task_DD_L4,2021.2.3,Win32,59.95203837,,,,,,,,,,,,0.669,1,,,,,,,,,,,,,,,,,,,,,,,,0.773148148,-0.006481481,0,0,0,,,,,,,JUMPER,LB,m,y,./images/JUMPERLB.png,,,,,,,,,,,,,,,,,,,,m,1,,,,,,,,0,5,5,74,1,0.669
,,,,,,,,,,,,,,,,,5fc8a956800c80232e0b7a32,27,2022-02-12_14h43.09.189,lexical_decision_task_DD_L4,2021.2.3,Win32,59.95203837,,,,,,,,,,,,0.655,1,,,,,,,,,,,,,,,,,,,,,,,,0.773148148,-0.006481481,0,0,0,,,,,,,DESERT,HB,m,y,./images/DESERTHB.png,,,,,,,,,,,,,,,,,,,,m,1,,,,,,,,0,6,6,52,1,0.655
,,,,,,,,,,,,,,,,,5fc8a956800c80232e0b7a32,27,2022-02-12_14h43.09.189,lexical_decision_task_DD_L4,2021.2.3,Win32,59.95203837,,,,,,,,,,,,0.97,1,,,,,,,,,,,,,,,,,,,,,,,,0.773148148,-0.006481481,0,0,0,,,,,,,SWING,HB,z,y,./images/SWINGHB.png,,,,,,,,,,,,,,,,,,,,z,1,,,,,,,,0,7,7,124,1,0.97
,,,,,,,,,,,,,,,,,5fc8a956800c80232e0b7a32,27,2022-02-12_14h43.09.189,lexical_decision_task_DD_L4,2021.2.3,Win32,59.95203837,,,,,,,,,,,,0.753,1,,,,,,,,,,,,,,,,,,,,,,,,0.773148148,-0.006481481,0,0,0,,,,,,,TULIP,LB,z,y,./images/TULIPLB.png,,,,,,,,,,,,,,,,,,,,z,1,,,,,,,,0,8,8,92,1,0.753
,,,,,,,,,,,,,,,,,5fc8a956800c80232e0b7a32,27,2022-02-12_14h43.09.189,lexical_decision_task_DD_L4,2021.2.3,Win32,59.95203837,,,,,,,,,,,,0.736,0,,,,,,,,,,,,,,,,,,,,,,,,0.773148148,-0.006481481,0,0,0,,,,,,,HEATER,LB,m,y,./images/HEATERLB.png,,,,,,,,,,,,,,,,,,,,z,0,,,,,,,,0,9,9,56,1,0.736
,,,,,,,,,,,,,,,,,5fc8a956800c80232e0b7a32,27,2022-02-12_14h43.09.189,lexical_decision_task_DD_L4,2021.2.3,Win32,59.95203837,,,,,,,,,,,,0.734,0,,,,,,,,,,,,,,,,,,,,,,,,0.773148148,-0.006481481,0,0,0,,,,,,,BOXER,HB,m,y,./images/BOXERHB.png,,,,,,,,,,,,,,,,,,,,z,0,,,,,,,,0,10,10,4,1,0.734
,,,,,,,,,,,,,,,,,5fc8a956800c80232e0b7a32,27,2022-02-12_14h43.09.189,lexical_decision_task_DD_L4,2021.2.3,Win32,59.95203837,,,,,,,,,,,,0.573,1,,,,,,,,,,,,,,,,,,,,,,,,0.773148148,-0.006481481,0,0,0,,,,,,,DANCER,C,m,y,./images/DANCER.png,,,,,,,,,,,,,,,,,,,,m,1,,,,,,,,0,11,11,21,1,0.573
,,,,,,,,,,,,,,,,,5fc8a956800c80232e0b7a32,27,2022-02-12_14h43.09.189,lexical_decision_task_DD_L4,2021.2.3,Win32,59.95203837,,,,,,,,,,,,0.886,1,,,,,,,,,,,,,,,,,,,,,,,,0.773148148,-0.006481481,0,0,0,,,,,,,BIRTH,HB,z,y,./images/BIRTHHB.png,,,,,,,,,,,,,,,,,,,,z,1,,,,,,,,0,12,12,121,1,0.886
,,,,,,,,,,,,,,,,,5fc8a956800c80232e0b7a32,27,2022-02-12_14h43.09.189,lexical_decision_task_DD_L4,2021.2.3,Win32,59.95203837,,,,,,,,,,,,0.588,1,,,,,,,,,,,,,,,,,,,,,,,,0.773148148,-0.006481481,0,0,0,,,,,,,LIZARD,LB,z,y,./images/LIZARDLB.png,,,,,,,,,,,,,,,,,,,,z,1,,,,,,,,0,13,13,128,1,0.588
,,,,,,,,,,,,,,,,,5fc8a956800c80232e0b7a32,27,2022-02-12_14h43.09.189,lexical_decision_task_DD_L4,2021.2.3,Win32,59.95203837,,,,,,,,,,,,0.582,1,,,,,,,,,,,,,,,,,,,,,,,,0.773148148,-0.006481481,0,0,0,,,,,,,WHISKY,LB,m,y,./images/WHISKYLB.png,,,,,,,,,,,,,,,,,,,,m,1,,,,,,,,0,14,14,83,1,0.582
,,,,,,,,,,,,,,,,,5fc8a956800c80232e0b7a32,27,2022-02-12_14h43.09.189,lexical_decision_task_DD_L4,2021.2.3,Win32,59.95203837,,,,,,,,,,,,0.515,0,,,,,,,,,,,,,,,,,,,,,,,,0.773148148,-0.006481481,0,0,0,,,,,,,DRUMS,HB,z,y,./images/DRUMSHB.png,,,,,,,,,,,,,,,,,,,,m,0,,,,,,,,0,15,15,133,1,0.515
,,,,,,,,,,,,,,,,,5fc8a956800c80232e0b7a32,27,2022-02-12_14h43.09.189,lexical_decision_task_DD_L4,2021.2.3,Win32,59.95203837,,,,,,,,,,,,0.899,1,,,,,,,,,,,,,,,,,,,,,,,,0.773148148,-0.006481481,0,0,0,,,,,,,SAILOR,HB,z,y,./images/SAILORHB.png,,,,,,,,,,,,,,,,,,,,z,1,,,,,,,,0,16,16,151,1,0.899
,,,,,,,,,,,,,,,,,5fc8a956800c80232e0b7a32,27,2022-02-12_14h43.09.189,lexical_decision_task_DD_L4,2021.2.3,Win32,59.95203837,,,,,,,,,,,,1.255,1,,,,,,,,,,,,,,,,,,,,,,,,0.773148148,-0.006481481,0,0,0,,,,,,,CLOUD,LB,m,y,./images/CLOUDLB.png,,,,,,,,,,,,,,,,,,,,m,1,,,,,,,,0,17,17,26,1,1.255
,,,,,,,,,,,,,,,,,5fc8a956800c80232e0b7a32,27,2022-02-12_14h43.09.189,lexical_decision_task_DD_L4,2021.2.3,Win32,59.95203837,,,,,,,,,,,,0.561,0,,,,,,,,,,,,,,,,,,,,,,,,0.773148148,-0.006481481,0,0,0,,,,,,,CANDLE,HB,z,y,./images/CANDLEHB.png,,,,,,,,,,,,,,,,,,,,m,0,,,,,,,,0,18,18,145,1,0.561
,,,,,,,,,,,,,,,,,5fc8a956800c80232e0b7a32,27,2022-02-12_14h43.09.189,lexical_decision_task_DD_L4,2021.2.3,Win32,59.95203837,,,,,,,,,,,,0.933,0,,,,,,,,,,,,,,,,,,,,,,,,0.773148148,-0.006481481,0,0,0,,,,,,,PICKLE,LB,z,y,./images/PICKLELB.png,,,,,,,,,,,,,,,,,,,,m,0,,,,,,,,0,19,19,98,1,0.933
,,,,,,,,,,,,,,,,,5fc8a956800c80232e0b7a32,27,2022-02-12_14h43.09.189,lexical_decision_task_DD_L4,2021.2.3,Win32,59.95203837,,,,,,,,,,,,0.658,1,,,,,,,,,,,,,,,,,,,,,,,,0.773148148,-0.006481481,0,0,0,,,,,,,WEASEL,LB,z,y,./images/WEASELLB.png,,,,,,,,,,,,,,,,,,,,z,1,,,,,,,,0,20,20,164,1,0.658
,,,,,,,,,,,,,,,,,5fc8a956800c80232e0b7a32,27,2022-02-12_14h43.09.189,lexical_decision_task_DD_L4,2021.2.3,Win32,59.95203837,,,,,,,,,,,,0.619,1,,,,,,,,,,,,,,,,,,,,,,,,0.773148148,-0.006481481,0,0,0,,,,,,,BERRY,LB,z,y,./images/BERRYLB.png,,,,,,,,,,,,,,,,,,,,z,1,,,,,,,,0,21,21,131,1,0.619
,,,,,,,,,,,,,,,,,5fc8a956800c80232e0b7a32,27,2022-02-12_14h43.09.189,lexical_decision_task_DD_L4,2021.2.3,Win32,59.95203837,,,,,,,,,,,,0.474,0,,,,,,,,,,,,,,,,,,,,,,,,0.773148148,-0.006481481,0,0,0,,,,,,,ALLEY,HB,m,y,./images/ALLEYHB.png,,,,,,,,,,,,,,,,,,,,z,0,,,,,,,,0,22,22,55,1,0.474
,,,,,,,,,,,,,,,,,5fc8a956800c80232e0b7a32,27,2022-02-12_14h43.09.189,lexical_decision_task_DD_L4,2021.2.3,Win32,59.95203837,,,,,,,,,,,,0.983,1,,,,,,,,,,,,,,,,,,,,,,,,0.773148148,-0.006481481,0,0,0,,,,,,,MALLET,LB,z,y,./images/MALLETLB.png,,,,,,,,,,,,,,,,,,,,z,1,,,,,,,,0,23,23,134,1,0.983
,,,,,,,,,,,,,,,,,5fc8a956800c80232e0b7a32,27,2022-02-12_14h43.09.189,lexical_decision_task_DD_L4,2021.2.3,Win32,59.95203837,,,,,,,,,,,,0.535,1,,,,,,,,,,,,,,,,,,,,,,,,0.773148148,-0.006481481,0,0,0,,,,,,,CLOWN,HB,m,y,./images/CLOWNHB.png,,,,,,,,,,,,,,,,,,,,m,1,,,,,,,,0,24,24,22,1,0.535
,,,,,,,,,,,,,,,,,5fc8a956800c80232e0b7a32,27,2022-02-12_14h43.09.189,lexical_decision_task_DD_L4,2021.2.3,Win32,59.95203837,,,,,,,,,,,,0.601,1,,,,,,,,,,,,,,,,,,,,,,,,0.773148148,-0.006481481,0,0,0,,,,,,,COLLAR,C,m,y,./images/COLLAR.png,,,,,,,,,,,,,,,,,,,,m,1,,,,,,,,0,25,25,15,1,0.601
,,,,,,,,,,,,,,,,,5fc8a956800c80232e0b7a32,27,2022-02-12_14h43.09.189,lexical_decision_task_DD_L4,2021.2.3,Win32,59.95203837,,,,,,,,,,,,0.504,1,,,,,,,,,,,,,,,,,,,,,,,,0.773148148,-0.006481481,0,0,0,,,,,,,MAMMAL,LB,m,y,./images/MAMMALLB.png,,,,,,,,,,,,,,,,,,,,m,1,,,,,,,,0,26,26,62,1,0.504
,,,,,,,,,,,,,,,,,5fc8a956800c80232e0b7a32,27,2022-02-12_14h43.09.189,lexical_decision_task_DD_L4,2021.2.3,Win32,59.95203837,,,,,,,,,,,,0.816,1,,,,,,,,,,,,,,,,,,,,,,,,0.773148148,-0.006481481,0,0,0,,,,,,,NOOSE,C,z,y,./images/NOOSE.png,,,,,,,,,,,,,,,,,,,,z,1,,,,,,,,0,27,27,156,1,0.816
,,,,,,,,,,,,,,,,,5fc8a956800c80232e0b7a32,27,2022-02-12_14h43.09.189,lexical_decision_task_DD_L4,2021.2.3,Win32,59.95203837,,,,,,,,,,,,0.816,1,,,,,,,,,,,,,,,,,,,,,,,,0.773148148,-0.006481481,0,0,0,,,,,,,PURSE,LB,z,y,./images/PURSELB.png,,,,,,,,,,,,,,,,,,,,z,1,,,,,,,,0,28,28,146,1,0.816
,,,,,,,,,,,,,,,,,5fc8a956800c80232e0b7a32,27,2022-02-12_14h43.09.189,lexical_decision_task_DD_L4,2021.2.3,Win32,59.95203837,,,,,,,,,,,,0.682,1,,,,,,,,,,,,,,,,,,,,,,,,0.773148148,-0.006481481,0,0,0,,,,,,,FERRY,C,m,y,./images/FERRY.png,,,,,,,,,,,,,,,,,,,,m,1,,,,,,,,0,29,29,57,1,0.682
,,,,,,,,,,,,,,,,,5fc8a956800c80232e0b7a32,27,2022-02-12_14h43.09.189,lexical_decision_task_DD_L4,2021.2.3,Win32,59.95203837,,,,,,,,,,,,2.794,1,,,,,,,,,,,,,,,,,,,,,,,,0.773148148,-0.006481481,0,0,0,,,,,,,CEMENT,LB,z,y,./images/CEMENTLB.png,,,,,,,,,,,,,,,,,,,,z,1,,,,,,,,0,30,30,158,1,2.794
,,,,,,,,,,,,,,,,,5fc8a956800c80232e0b7a32,27,2022-02-12_14h43.09.189,lexical_decision_task_DD_L4,2021.2.3,Win32,59.95203837,,,,,,,,,,,,0.588,1,,,,,,,,,,,,,,,,,,,,,,,,0.773148148,-0.006481481,0,0,0,,,,,,,SCREW,C,z,y,./images/SCREW.png,,,,,,,,,,,,,,,,,,,,z,1,,,,,,,,0,31,31,108,1,0.588
,,,,,,,,,,,,,,,,,5fc8a956800c80232e0b7a32,27,2022-02-12_14h43.09.189,lexical_decision_task_DD_L4,2021.2.3,Win32,59.95203837,,,,,,,,,,,,0.805,0,,,,,,,,,,,,,,,,,,,,,,,,0.773148148,-0.006481481,0,0,0,,,,,,,CANOE,HB,m,y,./images/CANOEHB.png,,,,,,,,,,,,,,,,,,,,z,0,,,,,,,,0,32,32,58,1,0.805
,,,,,,,,,,,,,,,,,5fc8a956800c80232e0b7a32,27,2022-02-12_14h43.09.189,lexical_decision_task_DD_L4,2021.2.3,Win32,59.95203837,,,,,,,,,,,,0.653,0,,,,,,,,,,,,,,,,,,,,,,,,0.773148148,-0.006481481,0,0,0,,,,,,,POSTER,LB,m,y,./images/POSTERLB.png,,,,,,,,,,,,,,,,,,,,z,0,,,,,,,,0,33,33,53,1,0.653
,,,,,,,,,,,,,,,,,5fc8a956800c80232e0b7a32,27,2022-02-12_14h43.09.189,lexical_decision_task_DD_L4,2021.2.3,Win32,59.95203837,,,,,,,,,,,,0.632,1,,,,,,,,,,,,,,,,,,,,,,,,0.773148148,-0.006481481,0,0,0,,,,,,,KIDNEY,C,z,y,./images/KIDNEY.png,,,,,,,,,,,,,,,,,,,,z,1,,,,,,,,0,34,34,105,1,0.632
,,,,,,,,,,,,,,,,,5fc8a956800c80232e0b7a32,27,2022-02-12_14h43.09.189,lexical_decision_task_DD_L4,2021.2.3,Win32,59.95203837,,,,,,,,,,,,1.115,1,,,,,,,,,,,,,,,,,,,,,,,,0.773148148,-0.006481481,0,0,0,,,,,,,STAIN,C,m,y,./images/STAIN.png,,,,,,,,,,,,,,,,,,,,m,1,,,,,,,,0,35,35,6,1,1.115
,,,,,,,,,,,,,,,,,5fc8a956800c80232e0b7a32,27,2022-02-12_14h43.09.189,lexical_decision_task_DD_L4,2021.2.3,Win32,59.95203837,,,,,,,,,,,,0.684,1,,,,,,,,,,,,,,,,,,,,,,,,0.773148148,-0.006481481,0,0,0,,,,,,,SUNSET,HB,z,y,./images/SUNSETHB.png,,,,,,,,,,,,,,,,,,,,z,1,,,,,,,,0,36,36,166,1,0.684
,,,,,,,,,,,,,,,,,5fc8a956800c80232e0b7a32,27,2022-02-12_14h43.09.189,lexical_decision_task_DD_L4,2021.2.3,Win32,59.95203837,,,,,,,,,,,,0.592,1,,,,,,,,,,,,,,,,,,,,,,,,0.773148148,-0.006481481,0,0,0,,,,,,,WALNUT,C,m,y,./images/WALNUT.png,,,,,,,,,,,,,,,,,,,,m,1,,,,,,,,0,37,37,0,1,0.592
,,,,,,,,,,,,,,,,,5fc8a956800c80232e0b7a32,27,2022-02-12_14h43.09.189,lexical_decision_task_DD_L4,2021.2.3,Win32,59.95203837,,,,,,,,,,,,0.566,1,,,,,,,,,,,,,,,,,,,,,,,,0.773148148,-0.006481481,0,0,0,,,,,,,MELON,HB,z,y,./images/MELONHB.png,,,,,,,,,,,,,,,,,,,,z,1,,,,,,,,0,38,38,106,1,0.566
,,,,,,,,,,,,,,,,,5fc8a956800c80232e0b7a32,27,2022-02-12_14h43.09.189,lexical_decision_task_DD_L4,2021.2.3,Win32,59.95203837,,,,,,,,,,,,0.956,1,,,,,,,,,,,,,,,,,,,,,,,,0.773148148,-0.006481481,0,0,0,,,,,,,HAMMER,C,m,y,./images/HAMMER.png,,,,,,,,,,,,,,,,,,,,m,1,,,,,,,,0,39,39,75,1,0.956
,,,,,,,,,,,,,,,,,5fc8a956800c80232e0b7a32,27,2022-02-12_14h43.09.189,lexical_decision_task_DD_L4,2021.2.3,Win32,59.95203837,,,,,,,,,,,,0.701,1,,,,,,,,,,,,,,,,,,,,,,,,0.773148148,-0.006481481,0,0,0,,,,,,,RHINO,C,z,y,./images/RHINO.png,,,,,,,,,,,,,,,,,,,,z,1,,,,,,,,0,40,40,93,1,0.701
,,,,,,,,,,,,,,,,,5fc8a956800c80232e0b7a32,27,2022-02-12_14h43.09.189,lexical_decision_task_DD_L4,2021.2.3,Win32,59.95203837,,,,,,,,,,,,0.516,1,,,,,,,,,,,,,,,,,,,,,,,,0.773148148,-0.006481481,0,0,0,space,,,,,,FOLDER,C,z,y,./images/FOLDER.png,0.882,,,,,,,,,,,,,,,,,,,z,1,,,,,,,,0,41,41,126,1,0.516
,,,,,,,,,,,,,,,,,5fc8a956800c80232e0b7a32,27,2022-02-12_14h43.09.189,lexical_decision_task_DD_L4,2021.2.3,Win32,59.95203837,,,,,,,,,,,,0.821,1,,,,,,,,,,,,,,,,,,,,,,,,0.773148148,-0.006481481,0,0,0,,,,,,,DONKEY,HB,m,y,./images/DONKEYHB.png,,,,,,,,,,,,,,,,,,,,m,1,,,,,,,,0,42,42,19,1,0.821
,,,,,,,,,,,,,,,,,5fc8a956800c80232e0b7a32,27,2022-02-12_14h43.09.189,lexical_decision_task_DD_L4,2021.2.3,Win32,59.95203837,,,,,,,,,,,,0.583,1,,,,,,,,,,,,,,,,,,,,,,,,0.773148148,-0.006481481,0,0,0,,,,,,,WAGON,HB,m,y,./images/WAGONHB.png,,,,,,,,,,,,,,,,,,,,m,1,,,,,,,,0,43,43,7,1,0.583
,,,,,,,,,,,,,,,,,5fc8a956800c80232e0b7a32,27,2022-02-12_14h43.09.189,lexical_decision_task_DD_L4,2021.2.3,Win32,59.95203837,,,,,,,,,,,,0.583,1,,,,,,,,,,,,,,,,,,,,,,,,0.773148148,-0.006481481,0,0,0,,,,,,,BROOM,C,m,y,./images/BROOM.png,,,,,,,,,,,,,,,,,,,,m,1,,,,,,,,0,44,44,78,1,0.583
,,,,,,,,,,,,,,,,,5fc8a956800c80232e0b7a32,27,2022-02-12_14h43.09.189,lexical_decision_task_DD_L4,2021.2.3,Win32,59.95203837,,,,,,,,,,,,0.549,1,,,,,,,,,,,,,,,,,,,,,,,,0.773148148,-0.006481481,0,0,0,,,,,,,TOWEL,HB,m,y,./images/TOWELHB.png,,,,,,,,,,,,,,,,,,,,m,1,,,,,,,,0,45,45,1,1,0.549
,,,,,,,,,,,,,,,,,5fc8a956800c80232e0b7a32,27,2022-02-12_14h43.09.189,lexical_decision_task_DD_L4,2021.2.3,Win32,59.95203837,,,,,,,,,,,,0.766,1,,,,,,,,,,,,,,,,,,,,,,,,0.773148148,-0.006481481,0,0,0,,,,,,,BANNER,HB,z,y,./images/BANNERHB.png,,,,,,,,,,,,,,,,,,,,z,1,,,,,,,,0,46,46,136,1,0.766
,,,,,,,,,,,,,,,,,5fc8a956800c80232e0b7a32,27,2022-02-12_14h43.09.189,lexical_decision_task_DD_L4,2021.2.3,Win32,59.95203837,,,,,,,,,,,,0.521,0,,,,,,,,,,,,,,,,,,,,,,,,0.773148148,-0.006481481,0,0,0,,,,,,,BABOON,HB,z,y,./images/BABOONHB.png,,,,,,,,,,,,,,,,,,,,m,0,,,,,,,,0,47,47,142,1,0.521
,,,,,,,,,,,,,,,,,5fc8a956800c80232e0b7a32,27,2022-02-12_14h43.09.189,lexical_decision_task_DD_L4,2021.2.3,Win32,59.95203837,,,,,,,,,,,,0.602,1,,,,,,,,,,,,,,,,,,,,,,,,0.773148148,-0.006481481,0,0,0,,,,,,,SHELF,C,z,y,./images/SHELF.png,,,,,,,,,,,,,,,,,,,,z,1,,,,,,,,0,48,48,123,1,0.602
,,,,,,,,,,,,,,,,,5fc8a956800c80232e0b7a32,27,2022-02-12_14h43.09.189,lexical_decision_task_DD_L4,2021.2.3,Win32,59.95203837,,,,,,,,,,,,0.436,1,,,,,,,,,,,,,,,,,,,,,,,,0.773148148,-0.006481481,0,0,0,,,,,,,ONION,C,z,y,./images/ONION.png,,,,,,,,,,,,,,,,,,,,z,1,,,,,,,,0,49,49,135,1,0.436
,,,,,,,,,,,,,,,,,5fc8a956800c80232e0b7a32,27,2022-02-12_14h43.09.189,lexical_decision_task_DD_L4,2021.2.3,Win32,59.95203837,,,,,,,,,,,,0.432,0,,,,,,,,,,,,,,,,,,,,,,,,0.773148148,-0.006481481,0,0,0,,,,,,,RULER,HB,m,y,./images/RULERHB.png,,,,,,,,,,,,,,,,,,,,z,0,,,,,,,,0,50,50,79,1,0.432
,,,,,,,,,,,,,,,,,5fc8a956800c80232e0b7a32,27,2022-02-12_14h43.09.189,lexical_decision_task_DD_L4,2021.2.3,Win32,59.95203837,,,,,,,,,,,,1.238,0,,,,,,,,,,,,,,,,,,,,,,,,0.773148148,-0.006481481,0,0,0,,,,,,,BUBBLE,LB,m,y,./images/BUBBLELB.png,,,,,,,,,,,,,,,,,,,,z,0,,,,,,,,0,51,51,71,1,1.238
,,,,,,,,,,,,,,,,,5fc8a956800c80232e0b7a32,27,2022-02-12_14h43.09.189,lexical_decision_task_DD_L4,2021.2.3,Win32,59.95203837,,,,,,,,,,,,0.58,1,,,,,,,,,,,,,,,,,,,,,,,,0.773148148,-0.006481481,0,0,0,,,,,,,WHEEL,LB,m,y,./images/WHEELLB.png,,,,,,,,,,,,,,,,,,,,m,1,,,,,,,,0,52,52,77,1,0.58
,,,,,,,,,,,,,,,,,5fc8a956800c80232e0b7a32,27,2022-02-12_14h43.09.189,lexical_decision_task_DD_L4,2021.2.3,Win32,59.95203837,,,,,,,,,,,,0.855,1,,,,,,,,,,,,,,,,,,,,,,,,0.773148148,-0.006481481,0,0,0,,,,,,,GRANNY,LB,m,y,./images/GRANNYLB.png,,,,,,,,,,,,,,,,,,,,m,1,,,,,,,,0,53,53,20,1,0.855
,,,,,,,,,,,,,,,,,5fc8a956800c80232e0b7a32,27,2022-02-12_14h43.09.189,lexical_decision_task_DD_L4,2021.2.3,Win32,59.95203837,,,,,,,,,,,,0.88,1,,,,,,,,,,,,,,,,,,,,,,,,0.773148148,-0.006481481,0,0,0,,,,,,,MIRROR,C,z,y,./images/MIRROR.png,,,,,,,,,,,,,,,,,,,,z,1,,,,,,,,0,54,54,147,1,0.88
,,,,,,,,,,,,,,,,,5fc8a956800c80232e0b7a32,27,2022-02-12_14h43.09.189,lexical_decision_task_DD_L4,2021.2.3,Win32,59.95203837,,,,,,,,,,,,0.734,0,,,,,,,,,,,,,,,,,,,,,,,,0.773148148,-0.006481481,0,0,0,,,,,,,GRAPE,HB,m,y,./images/GRAPEHB.png,,,,,,,,,,,,,,,,,,,,z,0,,,,,,,,0,55,55,16,1,0.734
,,,,,,,,,,,,,,,,,5fc8a956800c80232e0b7a32,27,2022-02-12_14h43.09.189,lexical_decision_task_DD_L4,2021.2.3,Win32,59.95203837,,,,,,,,,,,,0.483,1,,,,,,,,,,,,,,,,,,,,,,,,0.773148148,-0.006481481,0,0,0,,,,,,,INFANT,HB,z,y,./images/INFANTHB.png,,,,,,,,,,,,,,,,,,,,z,1,,,,,,,,0,56,56,160,1,0.483
,,,,,,,,,,,,,,,,,5fc8a956800c80232e0b7a32,27,2022-02-12_14h43.09.189,lexical_decision_task_DD_L4,2021.2.3,Win32,59.95203837,,,,,,,,,,,,0.573,1,,,,,,,,,,,,,,,,,,,,,,,,0.773148148,-0.006481481,0,0,0,,,,,,,PISTOL,LB,m,y,./images/PISTOLLB.png,,,,,,,,,,,,,,,,,,,,m,1,,,,,,,,0,57,57,29,1,0.573
,,,,,,,,,,,,,,,,,5fc8a956800c80232e0b7a32,27,2022-02-12_14h43.09.189,lexical_decision_task_DD_L4,2021.2.3,Win32,59.95203837,,,,,,,,,,,,0.769,1,,,,,,,,,,,,,,,,,,,,,,,,0.773148148,-0.006481481,0,0,0,,,,,,,GREASE,C,z,y,./images/GREASE.png,,,,,,,,,,,,,,,,,,,,z,1,,,,,,,,0,58,58,99,1,0.769
,,,,,,,,,,,,,,,,,5fc8a956800c80232e0b7a32,27,2022-02-12_14h43.09.189,lexical_decision_task_DD_L4,2021.2.3,Win32,59.95203837,,,,,,,,,,,,0.468,1,,,,,,,,,,,,,,,,,,,,,,,,0.773148148,-0.006481481,0,0,0,,,,,,,PEACH,LB,z,y,./images/PEACHLB.png,,,,,,,,,,,,,,,,,,,,z,1,,,,,,,,0,59,59,119,1,0.468
,,,,,,,,,,,,,,,,,5fc8a956800c80232e0b7a32,27,2022-02-12_14h43.09.189,lexical_decision_task_DD_L4,2021.2.3,Win32,59.95203837,,,,,,,,,,,,0.586,1,,,,,,,,,,,,,,,,,,,,,,,,0.773148148,-0.006481481,0,0,0,,,,,,,GLOVE,HB,m,y,./images/GLOVEHB.png,,,,,,,,,,,,,,,,,,,,m,1,,,,,,,,0,60,60,73,1,0.586
,,,,,,,,,,,,,,,,,5fc8a956800c80232e0b7a32,27,2022-02-12_14h43.09.189,lexical_decision_task_DD_L4,2021.2.3,Win32,59.95203837,,,,,,,,,,,,0.715,1,,,,,,,,,,,,,,,,,,,,,,,,0.773148148,-0.006481481,0,0,0,,,,,,,PILOT,LB,m,y,./images/PILOTLB.png,,,,,,,,,,,,,,,,,,,,m,1,,,,,,,,0,61,61,50,1,0.715
,,,,,,,,,,,,,,,,,5fc8a956800c80232e0b7a32,27,2022-02-12_14h43.09.189,lexical_decision_task_DD_L4,2021.2.3,Win32,59.95203837,,,,,,,,,,,,0.677,0,,,,,,,,,,,,,,,,,,,,,,,,0.773148148,-0.006481481,0,0,0,,,,,,,SMOKER,LB,z,y,./images/SMOKERLB.png,,,,,,,,,,,,,,,,,,,,m,0,,,,,,,,0,62,62,110,1,0.677
,,,,,,,,,,,,,,,,,5fc8a956800c80232e0b7a32,27,2022-02-12_14h43.09.189,lexical_decision_task_DD_L4,2021.2.3,Win32,59.95203837,,,,,,,,,,,,0.616,1,,,,,,,,,,,,,,,,,,,,,,,,0.773148148,-0.006481481,0,0,0,,,,,,,LLAMA,LB,m,y,./images/LLAMALB.png,,,,,,,,,,,,,,,,,,,,m,1,,,,,,,,0,63,63,35,1,0.616
,,,,,,,,,,,,,,,,,5fc8a956800c80232e0b7a32,27,2022-02-12_14h43.09.189,lexical_decision_task_DD_L4,2021.2.3,Win32,59.95203837,,,,,,,,,,,,0.509,1,,,,,,,,,,,,,,,,,,,,,,,,0.773148148,-0.006481481,0,0,0,,,,,,,JUNGLE,LB,z,y,./images/JUNGLELB.png,,,,,,,,,,,,,,,,,,,,z,1,,,,,,,,0,64,64,167,1,0.509
,,,,,,,,,,,,,,,,,5fc8a956800c80232e0b7a32,27,2022-02-12_14h43.09.189,lexical_decision_task_DD_L4,2021.2.3,Win32,59.95203837,,,,,,,,,,,,0.449,1,,,,,,,,,,,,,,,,,,,,,,,,0.773148148,-0.006481481,0,0,0,,,,,,,LITTER,C,z,y,./images/LITTER.png,,,,,,,,,,,,,,,,,,,,z,1,,,,,,,,0,65,65,162,1,0.449
,,,,,,,,,,,,,,,,,5fc8a956800c80232e0b7a32,27,2022-02-12_14h43.09.189,lexical_decision_task_DD_L4,2021.2.3,Win32,59.95203837,,,,,,,,,,,,0.538,0,,,,,,,,,,,,,,,,,,,,,,,,0.773148148,-0.006481481,0,0,0,,,,,,,SNAKE,HB,m,y,./images/SNAKEHB.png,,,,,,,,,,,,,,,,,,,,z,0,,,,,,,,0,66,66,40,1,0.538
,,,,,,,,,,,,,,,,,5fc8a956800c80232e0b7a32,27,2022-02-12_14h43.09.189,lexical_decision_task_DD_L4,2021.2.3,Win32,59.95203837,,,,,,,,,,,,0.804,1,,,,,,,,,,,,,,,,,,,,,,,,0.773148148,-0.006481481,0,0,0,,,,,,,DOUGH,HB,z,y,./images/DOUGHHB.png,,,,,,,,,,,,,,,,,,,,z,1,,,,,,,,0,67,67,103,1,0.804
,,,,,,,,,,,,,,,,,5fc8a956800c80232e0b7a32,27,2022-02-12_14h43.09.189,lexical_decision_task_DD_L4,2021.2.3,Win32,59.95203837,,,,,,,,,,,,0.611,0,,,,,,,,,,,,,,,,,,,,,,,,0.773148148,-0.006481481,0,0,0,,,,,,,BOILER,C,m,y,./images/BOILER.png,,,,,,,,,,,,,,,,,,,,z,0,,,,,,,,0,68,68,36,1,0.611
,,,,,,,,,,,,,,,,,5fc8a956800c80232e0b7a32,27,2022-02-12_14h43.09.189,lexical_decision_task_DD_L4,2021.2.3,Win32,59.95203837,,,,,,,,,,,,0.622,1,,,,,,,,,,,,,,,,,,,,,,,,0.773148148,-0.006481481,0,0,0,,,,,,,BASKET,LB,m,y,./images/BASKETLB.png,,,,,,,,,,,,,,,,,,,,m,1,,,,,,,,0,69,69,44,1,0.622
,,,,,,,,,,,,,,,,,5fc8a956800c80232e0b7a32,27,2022-02-12_14h43.09.189,lexical_decision_task_DD_L4,2021.2.3,Win32,59.95203837,,,,,,,,,,,,0.585,1,,,,,,,,,,,,,,,,,,,,,,,,0.773148148,-0.006481481,0,0,0,,,,,,,FALCON,HB,z,y,./images/FALCONHB.png,,,,,,,,,,,,,,,,,,,,z,1,,,,,,,,0,70,70,112,1,0.585
,,,,,,,,,,,,,,,,,5fc8a956800c80232e0b7a32,27,2022-02-12_14h43.09.189,lexical_decision_task_DD_L4,2021.2.3,Win32,59.95203837,,,,,,,,,,,,0.421,1,,,,,,,,,,,,,,,,,,,,,,,,0.773148148,-0.006481481,0,0,0,,,,,,,KITTEN,C,z,y,./images/KITTEN.png,,,,,,,,,,,,,,,,,,,,z,1,,,,,,,,0,71,71,129,1,0.421
,,,,,,,,,,,,,,,,,5fc8a956800c80232e0b7a32,27,2022-02-12_14h43.09.189,lexical_decision_task_DD_L4,2021.2.3,Win32,59.95203837,,,,,,,,,,,,0.567,1,,,,,,,,,,,,,,,,,,,,,,,,0.773148148,-0.006481481,0,0,0,,,,,,,MOTOR,HB,z,y,./images/MOTORHB.png,,,,,,,,,,,,,,,,,,,,z,1,,,,,,,,0,72,72,97,1,0.567
,,,,,,,,,,,,,,,,,5fc8a956800c80232e0b7a32,27,2022-02-12_14h43.09.189,lexical_decision_task_DD_L4,2021.2.3,Win32,59.95203837,,,,,,,,,,,,0.568,1,,,,,,,,,,,,,,,,,,,,,,,,0.773148148,-0.006481481,0,0,0,,,,,,,SPINE,LB,m,y,./images/SPINELB.png,,,,,,,,,,,,,,,,,,,,m,1,,,,,,,,0,73,73,65,1,0.568
,,,,,,,,,,,,,,,,,5fc8a956800c80232e0b7a32,27,2022-02-12_14h43.09.189,lexical_decision_task_DD_L4,2021.2.3,Win32,59.95203837,,,,,,,,,,,,0.55,1,,,,,,,,,,,,,,,,,,,,,,,,0.773148148,-0.006481481,0,0,0,,,,,,,BUNNY,HB,m,y,./images/BUNNYHB.png,,,,,,,,,,,,,,,,,,,,m,1,,,,,,,,0,74,74,13,1,0.55
,,,,,,,,,,,,,,,,,5fc8a956800c80232e0b7a32,27,2022-02-12_14h43.09.189,lexical_decision_task_DD_L4,2021.2.3,Win32,59.95203837,,,,,,,,,,,,0.505,0,,,,,,,,,,,,,,,,,,,,,,,,0.773148148,-0.006481481,0,0,0,,,,,,,CLIFF,LB,m,y,./images/CLIFFLB.png,,,,,,,,,,,,,,,,,,,,z,0,,,,,,,,0,75,75,8,1,0.505
,,,,,,,,,,,,,,,,,5fc8a956800c80232e0b7a32,27,2022-02-12_14h43.09.189,lexical_decision_task_DD_L4,2021.2.3,Win32,59.95203837,,,,,,,,,,,,0.65,1,,,,,,,,,,,,,,,,,,,,,,,,0.773148148,-0.006481481,0,0,0,,,,,,,STEAK,HB,m,y,./images/STEAKHB.png,,,,,,,,,,,,,,,,,,,,m,1,,,,,,,,0,76,76,31,1,0.65
,,,,,,,,,,,,,,,,,5fc8a956800c80232e0b7a32,27,2022-02-12_14h43.09.189,lexical_decision_task_DD_L4,2021.2.3,Win32,59.95203837,,,,,,,,,,,,0.473,1,,,,,,,,,,,,,,,,,,,,,,,,0.773148148,-0.006481481,0,0,0,,,,,,,BAMBOO,LB,m,y,./images/BAMBOOLB.png,,,,,,,,,,,,,,,,,,,,m,1,,,,,,,,0,77,77,5,1,0.473
,,,,,,,,,,,,,,,,,5fc8a956800c80232e0b7a32,27,2022-02-12_14h43.09.189,lexical_decision_task_DD_L4,2021.2.3,Win32,59.95203837,,,,,,,,,,,,0.803,1,,,,,,,,,,,,,,,,,,,,,,,,0.773148148,-0.006481481,0,0,0,,,,,,,BUTTER,C,m,y,./images/BUTTER.png,,,,,,,,,,,,,,,,,,,,m,1,,,,,,,,0,78,78,27,1,0.803
,,,,,,,,,,,,,,,,,5fc8a956800c80232e0b7a32,27,2022-02-12_14h43.09.189,lexical_decision_task_DD_L4,2021.2.3,Win32,59.95203837,,,,,,,,,,,,0.756,1,,,,,,,,,,,,,,,,,,,,,,,,0.773148148,-0.006481481,0,0,0,,,,,,,WALRUS,LB,z,y,./images/WALRUSLB.png,,,,,,,,,,,,,,,,,,,,z,1,,,,,,,,0,79,79,107,1,0.756
,,,,,,,,,,,,,,,,,5fc8a956800c80232e0b7a32,27,2022-02-12_14h43.09.189,lexical_decision_task_DD_L4,2021.2.3,Win32,59.95203837,,,,,,,,,,,,0.448,1,,,,,,,,,,,,,,,,,,,,,,,,0.773148148,-0.006481481,0,0,0,,,,,,,BURIAL,LB,z,y,./images/BURIALLB.png,,,,,,,,,,,,,,,,,,,,z,1,,,,,,,,0,80,80,143,1,0.448
,,,,,,,,,,,,,,,,,5fc8a956800c80232e0b7a32,27,2022-02-12_14h43.09.189,lexical_decision_task_DD_L4,2021.2.3,Win32,59.95203837,,,,,,,,,,,,0.419,1,,,,,,,,,,,,,,,,,,,,,,,,0.773148148,-0.006481481,0,0,0,,,,,,,THROAT,C,z,y,./images/THROAT.png,,,,,,,,,,,,,,,,,,,,z,1,,,,,,,,0,81,81,120,1,0.419
,,,,,,,,,,,,,,,,,5fc8a956800c80232e0b7a32,27,2022-02-12_14h43.09.189,lexical_decision_task_DD_L4,2021.2.3,Win32,59.95203837,,,,,,,,,,,,0.666,1,,,,,,,,,,,,,,,,,,,,,,,,0.773148148,-0.006481481,0,0,0,,,,,,,MOSQUE,HB,z,y,./images/MOSQUEHB.png,,,,,,,,,,,,,,,,,,,,z,1,,,,,,,,0,82,82,127,1,0.666
,,,,,,,,,,,,,,,,,5fc8a956800c80232e0b7a32,27,2022-02-12_14h43.09.189,lexical_decision_task_DD_L4,2021.2.3,Win32,59.95203837,,,,,,,,,,,,0.853,1,,,,,,,,,,,,,,,,,,,,,,,,0.773148148,-0.006481481,0,0,0,space,,,,,,MOOSE,C,z,y,./images/MOOSE.png,0.834,,,,,,,,,,,,,,,,,,,z,1,,,,,,,,0,83,83,141,1,0.853
,,,,,,,,,,,,,,,,,5fc8a956800c80232e0b7a32,27,2022-02-12_14h43.09.189,lexical_decision_task_DD_L4,2021.2.3,Win32,59.95203837,,,,,,,,,,,,0.664,0,,,,,,,,,,,,,,,,,,,,,,,,0.773148148,-0.006481481,0,0,0,,,,,,,BARREL,LB,z,y,./images/BARRELLB.png,,,,,,,,,,,,,,,,,,,,m,0,,,,,,,,0,84,84,116,1,0.664
,,,,,,,,,,,,,,,,,5fc8a956800c80232e0b7a32,27,2022-02-12_14h43.09.189,lexical_decision_task_DD_L4,2021.2.3,Win32,59.95203837,,,,,,,,,,,,0.418,1,,,,,,,,,,,,,,,,,,,,,,,,0.773148148,-0.006481481,0,0,0,,,,,,,PASTA,LB,z,y,./images/PASTALB.png,,,,,,,,,,,,,,,,,,,,z,1,,,,,,,,0,85,85,89,1,0.418
,,,,,,,,,,,,,,,,,5fc8a956800c80232e0b7a32,27,2022-02-12_14h43.09.189,lexical_decision_task_DD_L4,2021.2.3,Win32,59.95203837,,,,,,,,,,,,0.42,0,,,,,,,,,,,,,,,,,,,,,,,,0.773148148,-0.006481481,0,0,0,,,,,,,MUMMY,HB,m,y,./images/MUMMYHB.png,,,,,,,,,,,,,,,,,,,,z,0,,,,,,,,0,86,86,46,1,0.42
,,,,,,,,,,,,,,,,,5fc8a956800c80232e0b7a32,27,2022-02-12_14h43.09.189,lexical_decision_task_DD_L4,2021.2.3,Win32,59.95203837,,,,,,,,,,,,0.554,1,,,,,,,,,,,,,,,,,,,,,,,,0.773148148,-0.006481481,0,0,0,,,,,,,JAGUAR,C,z,y,./images/JAGUAR.png,,,,,,,,,,,,,,,,,,,,z,1,,,,,,,,0,87,87,102,1,0.554
,,,,,,,,,,,,,,,,,5fc8a956800c80232e0b7a32,27,2022-02-12_14h43.09.189,lexical_decision_task_DD_L4,2021.2.3,Win32,59.95203837,,,,,,,,,,,,0.433,1,,,,,,,,,,,,,,,,,,,,,,,,0.773148148,-0.006481481,0,0,0,,,,,,,TWINS,C,z,y,./images/TWINS.png,,,,,,,,,,,,,,,,,,,,z,1,,,,,,,,0,88,88,144,1,0.433
,,,,,,,,,,,,,,,,,5fc8a956800c80232e0b7a32,27,2022-02-12_14h43.09.189,lexical_decision_task_DD_L4,2021.2.3,Win32,59.95203837,,,,,,,,,,,,0.63,1,,,,,,,,,,,,,,,,,,,,,,,,0.773148148,-0.006481481,0,0,0,,,,,,,STOVE,LB,m,y,./images/STOVELB.png,,,,,,,,,,,,,,,,,,,,m,1,,,,,,,,0,89,89,2,1,0.63
,,,,,,,,,,,,,,,,,5fc8a956800c80232e0b7a32,27,2022-02-12_14h43.09.189,lexical_decision_task_DD_L4,2021.2.3,Win32,59.95203837,,,,,,,,,,,,0.985,0,,,,,,,,,,,,,,,,,,,,,,,,0.773148148,-0.006481481,0,0,0,,,,,,,CLOTH,LB,m,y,./images/CLOTHLB.png,,,,,,,,,,,,,,,,,,,,z,0,,,,,,,,0,90,90,23,1,0.985
,,,,,,,,,,,,,,,,,5fc8a956800c80232e0b7a32,27,2022-02-12_14h43.09.189,lexical_decision_task_DD_L4,2021.2.3,Win32,59.95203837,,,,,,,,,,,,0.888,0,,,,,,,,,,,,,,,,,,,,,,,,0.773148148,-0.006481481,0,0,0,,,,,,,BISHOP,HB,m,y,./images/BISHOPHB.png,,,,,,,,,,,,,,,,,,,,z,0,,,,,,,,0,91,91,49,1,0.888
,,,,,,,,,,,,,,,,,5fc8a956800c80232e0b7a32,27,2022-02-12_14h43.09.189,lexical_decision_task_DD_L4,2021.2.3,Win32,59.95203837,,,,,,,,,,,,0.488,1,,,,,,,,,,,,,,,,,,,,,,,,0.773148148,-0.006481481,0,0,0,,,,,,,PIMPLE,LB,z,y,./images/PIMPLELB.png,,,,,,,,,,,,,,,,,,,,z,1,,,,,,,,0,92,92,155,1,0.488
,,,,,,,,,,,,,,,,,5fc8a956800c80232e0b7a32,27,2022-02-12_14h43.09.189,lexical_decision_task_DD_L4,2021.2.3,Win32,59.95203837,,,,,,,,,,,,0.733,0,,,,,,,,,,,,,,,,,,,,,,,,0.773148148,-0.006481481,0,0,0,,,,,,,FLESH,C,m,y,./images/FLESH.png,,,,,,,,,,,,,,,,,,,,z,0,,,,,,,,0,93,93,24,1,0.733
,,,,,,,,,,,,,,,,,5fc8a956800c80232e0b7a32,27,2022-02-12_14h43.09.189,lexical_decision_task_DD_L4,2021.2.3,Win32,59.95203837,,,,,,,,,,,,0.62,0,,,,,,,,,,,,,,,,,,,,,,,,0.773148148,-0.006481481,0,0,0,,,,,,,POKER,HB,m,y,./images/POKERHB.png,,,,,,,,,,,,,,,,,,,,z,0,,,,,,,,0,94,94,67,1,0.62
,,,,,,,,,,,,,,,,,5fc8a956800c80232e0b7a32,27,2022-02-12_14h43.09.189,lexical_decision_task_DD_L4,2021.2.3,Win32,59.95203837,,,,,,,,,,,,0.483,1,,,,,,,,,,,,,,,,,,,,,,,,0.773148148,-0.006481481,0,0,0,,,,,,,QUILL,HB,z,y,./images/QUILLHB.png,,,,,,,,,,,,,,,,,,,,z,1,,,,,,,,0,95,95,115,1,0.483
,,,,,,,,,,,,,,,,,5fc8a956800c80232e0b7a32,27,2022-02-12_14h43.09.189,lexical_decision_task_DD_L4,2021.2.3,Win32,59.95203837,,,,,,,,,,,,0.609,1,,,,,,,,,,,,,,,,,,,,,,,,0.773148148,-0.006481481,0,0,0,,,,,,,SPORT,C,z,y,./images/SPORT.png,,,,,,,,,,,,,,,,,,,,z,1,,,,,,,,0,96,96,132,1,0.609
,,,,,,,,,,,,,,,,,5fc8a956800c80232e0b7a32,27,2022-02-12_14h43.09.189,lexical_decision_task_DD_L4,2021.2.3,Win32,59.95203837,,,,,,,,,,,,0.501,0,,,,,,,,,,,,,,,,,,,,,,,,0.773148148,-0.006481481,0,0,0,,,,,,,ATTIC,C,z,y,./images/ATTIC.png,,,,,,,,,,,,,,,,,,,,m,0,,,,,,,,0,97,97,111,1,0.501
,,,,,,,,,,,,,,,,,5fc8a956800c80232e0b7a32,27,2022-02-12_14h43.09.189,lexical_decision_task_DD_L4,2021.2.3,Win32,59.95203837,,,,,,,,,,,,0.638,1,,,,,,,,,,,,,,,,,,,,,,,,0.773148148,-0.006481481,0,0,0,,,,,,,ARTIST,HB,m,y,./images/ARTISTHB.png,,,,,,,,,,,,,,,,,,,,m,1,,,,,,,,0,98,98,61,1,0.638
,,,,,,,,,,,,,,,,,5fc8a956800c80232e0b7a32,27,2022-02-12_14h43.09.189,lexical_decision_task_DD_L4,2021.2.3,Win32,59.95203837,,,,,,,,,,,,0.503,1,,,,,,,,,,,,,,,,,,,,,,,,0.773148148,-0.006481481,0,0,0,,,,,,,BEARD,LB,z,y,./images/BEARDLB.png,,,,,,,,,,,,,,,,,,,,z,1,,,,,,,,0,99,99,86,1,0.503
,,,,,,,,,,,,,,,,,5fc8a956800c80232e0b7a32,27,2022-02-12_14h43.09.189,lexical_decision_task_DD_L4,2021.2.3,Win32,59.95203837,,,,,,,,,,,,0.417,0,,,,,,,,,,,,,,,,,,,,,,,,0.773148148,-0.006481481,0,0,0,,,,,,,BRUSH,LB,m,y,./images/BRUSHLB.png,,,,,,,,,,,,,,,,,,,,z,0,,,,,,,,0,100,100,59,1,0.417
,,,,,,,,,,,,,,,,,5fc8a956800c80232e0b7a32,27,2022-02-12_14h43.09.189,lexical_decision_task_DD_L4,2021.2.3,Win32,59.95203837,,,,,,,,,,,,0.617,1,,,,,,,,,,,,,,,,,,,,,,,,0.773148148,-0.006481481,0,0,0,,,,,,,MUSCLE,HB,z,y,./images/MUSCLEHB.png,,,,,,,,,,,,,,,,,,,,z,1,,,,,,,,0,101,101,88,1,0.617
,,,,,,,,,,,,,,,,,5fc8a956800c80232e0b7a32,27,2022-02-12_14h43.09.189,lexical_decision_task_DD_L4,2021.2.3,Win32,59.95203837,,,,,,,,,,,,0.569,1,,,,,,,,,,,,,,,,,,,,,,,,0.773148148,-0.006481481,0,0,0,,,,,,,FLASK,C,m,y,./images/FLASK.png,,,,,,,,,,,,,,,,,,,,m,1,,,,,,,,0,102,102,72,1,0.569
,,,,,,,,,,,,,,,,,5fc8a956800c80232e0b7a32,27,2022-02-12_14h43.09.189,lexical_decision_task_DD_L4,2021.2.3,Win32,59.95203837,,,,,,,,,,,,0.425,0,,,,,,,,,,,,,,,,,,,,,,,,0.773148148,-0.006481481,0,0,0,,,,,,,STOOL,HB,m,y,./images/STOOLHB.png,,,,,,,,,,,,,,,,,,,,z,0,,,,,,,,0,103,103,43,1,0.425
,,,,,,,,,,,,,,,,,5fc8a956800c80232e0b7a32,27,2022-02-12_14h43.09.189,lexical_decision_task_DD_L4,2021.2.3,Win32,59.95203837,,,,,,,,,,,,0.549,1,,,,,,,,,,,,,,,,,,,,,,,,0.773148148,-0.006481481,0,0,0,,,,,,,CASINO,HB,m,y,./images/CASINOHB.png,,,,,,,,,,,,,,,,,,,,m,1,,,,,,,,0,104,104,28,1,0.549
,,,,,,,,,,,,,,,,,5fc8a956800c80232e0b7a32,27,2022-02-12_14h43.09.189,lexical_decision_task_DD_L4,2021.2.3,Win32,59.95203837,,,,,,,,,,,,0.608,1,,,,,,,,,,,,,,,,,,,,,,,,0.773148148,-0.006481481,0,0,0,,,,,,,LADDER,LB,z,y,./images/LADDERLB.png,,,,,,,,,,,,,,,,,,,,z,1,,,,,,,,0,105,105,122,1,0.608
,,,,,,,,,,,,,,,,,5fc8a956800c80232e0b7a32,27,2022-02-12_14h43.09.189,lexical_decision_task_DD_L4,2021.2.3,Win32,59.95203837,,,,,,,,,,,,0.499,1,,,,,,,,,,,,,,,,,,,,,,,,0.773148148,-0.006481481,0,0,0,,,,,,,TRIPOD,C,z,y,./images/TRIPOD.png,,,,,,,,,,,,,,,,,,,,z,1,,,,,,,,0,106,106,138,1,0.499
,,,,,,,,,,,,,,,,,5fc8a956800c80232e0b7a32,27,2022-02-12_14h43.09.189,lexical_decision_task_DD_L4,2021.2.3,Win32,59.95203837,,,,,,,,,,,,0.52,0,,,,,,,,,,,,,,,,,,,,,,,,0.773148148,-0.006481481,0,0,0,,,,,,,CHALK,HB,m,y,./images/CHALKHB.png,,,,,,,,,,,,,,,,,,,,z,0,,,,,,,,0,107,107,25,1,0.52
,,,,,,,,,,,,,,,,,5fc8a956800c80232e0b7a32,27,2022-02-12_14h43.09.189,lexical_decision_task_DD_L4,2021.2.3,Win32,59.95203837,,,,,,,,,,,,1.834,0,,,,,,,,,,,,,,,,,,,,,,,,0.773148148,-0.006481481,0,0,0,,,,,,,SHIELD,C,m,y,./images/SHIELD.png,,,,,,,,,,,,,,,,,,,,z,0,,,,,,,,0,108,108,48,1,1.834
,,,,,,,,,,,,,,,,,5fc8a956800c80232e0b7a32,27,2022-02-12_14h43.09.189,lexical_decision_task_DD_L4,2021.2.3,Win32,59.95203837,,,,,,,,,,,,0.665,1,,,,,,,,,,,,,,,,,,,,,,,,0.773148148,-0.006481481,0,0,0,,,,,,,MUFFIN,HB,z,y,./images/MUFFINHB.png,,,,,,,,,,,,,,,,,,,,z,1,,,,,,,,0,109,109,139,1,0.665
,,,,,,,,,,,,,,,,,5fc8a956800c80232e0b7a32,27,2022-02-12_14h43.09.189,lexical_decision_task_DD_L4,2021.2.3,Win32,59.95203837,,,,,,,,,,,,1.053,1,,,,,,,,,,,,,,,,,,,,,,,,0.773148148,-0.006481481,0,0,0,,,,,,,BANANA,HB,m,y,./images/BANANAHB.png,,,,,,,,,,,,,,,,,,,,m,1,,,,,,,,0,110,110,70,1,1.053
,,,,,,,,,,,,,,,,,5fc8a956800c80232e0b7a32,27,2022-02-12_14h43.09.189,lexical_decision_task_DD_L4,2021.2.3,Win32,59.95203837,,,,,,,,,,,,0.583,1,,,,,,,,,,,,,,,,,,,,,,,,0.773148148,-0.006481481,0,0,0,,,,,,,CRUMB,LB,z,y,./images/CRUMBLB.png,,,,,,,,,,,,,,,,,,,,z,1,,,,,,,,0,111,111,113,1,0.583
,,,,,,,,,,,,,,,,,5fc8a956800c80232e0b7a32,27,2022-02-12_14h43.09.189,lexical_decision_task_DD_L4,2021.2.3,Win32,59.95203837,,,,,,,,,,,,0.463,0,,,,,,,,,,,,,,,,,,,,,,,,0.773148148,-0.006481481,0,0,0,,,,,,,VALLEY,LB,m,y,./images/VALLEYLB.png,,,,,,,,,,,,,,,,,,,,z,0,,,,,,,,0,112,112,68,1,0.463
,,,,,,,,,,,,,,,,,5fc8a956800c80232e0b7a32,27,2022-02-12_14h43.09.189,lexical_decision_task_DD_L4,2021.2.3,Win32,59.95203837,,,,,,,,,,,,0.43,1,,,,,,,,,,,,,,,,,,,,,,,,0.773148148,-0.006481481,0,0,0,,,,,,,PEARL,HB,z,y,./images/PEARLHB.png,,,,,,,,,,,,,,,,,,,,z,1,,,,,,,,0,113,113,130,1,0.43
,,,,,,,,,,,,,,,,,5fc8a956800c80232e0b7a32,27,2022-02-12_14h43.09.189,lexical_decision_task_DD_L4,2021.2.3,Win32,59.95203837,,,,,,,,,,,,0.671,0,,,,,,,,,,,,,,,,,,,,,,,,0.773148148,-0.006481481,0,0,0,,,,,,,PARCEL,C,m,y,./images/PARCEL.png,,,,,,,,,,,,,,,,,,,,z,0,,,,,,,,0,114,114,18,1,0.671
,,,,,,,,,,,,,,,,,5fc8a956800c80232e0b7a32,27,2022-02-12_14h43.09.189,lexical_decision_task_DD_L4,2021.2.3,Win32,59.95203837,,,,,,,,,,,,0.847,0,,,,,,,,,,,,,,,,,,,,,,,,0.773148148,-0.006481481,0,0,0,,,,,,,BRIDE,HB,m,y,./images/BRIDEHB.png,,,,,,,,,,,,,,,,,,,,z,0,,,,,,,,0,115,115,64,1,0.847
,,,,,,,,,,,,,,,,,5fc8a956800c80232e0b7a32,27,2022-02-12_14h43.09.189,lexical_decision_task_DD_L4,2021.2.3,Win32,59.95203837,,,,,,,,,,,,0.815,1,,,,,,,,,,,,,,,,,,,,,,,,0.773148148,-0.006481481,0,0,0,,,,,,,STORM,C,z,y,./images/STORM.png,,,,,,,,,,,,,,,,,,,,z,1,,,,,,,,0,116,116,114,1,0.815
,,,,,,,,,,,,,,,,,5fc8a956800c80232e0b7a32,27,2022-02-12_14h43.09.189,lexical_decision_task_DD_L4,2021.2.3,Win32,59.95203837,,,,,,,,,,,,0.458,1,,,,,,,,,,,,,,,,,,,,,,,,0.773148148,-0.006481481,0,0,0,,,,,,,PAINT,HB,z,y,./images/PAINTHB.png,,,,,,,,,,,,,,,,,,,,z,1,,,,,,,,0,117,117,91,1,0.458
,,,,,,,,,,,,,,,,,5fc8a956800c80232e0b7a32,27,2022-02-12_14h43.09.189,lexical_decision_task_DD_L4,2021.2.3,Win32,59.95203837,,,,,,,,,,,,0.532,1,,,,,,,,,,,,,,,,,,,,,,,,0.773148148,-0.006481481,0,0,0,,,,,,,PLANK,HB,z,y,./images/PLANKHB.png,,,,,,,,,,,,,,,,,,,,z,1,,,,,,,,0,118,118,85,1,0.532
,,,,,,,,,,,,,,,,,5fc8a956800c80232e0b7a32,27,2022-02-12_14h43.09.189,lexical_decision_task_DD_L4,2021.2.3,Win32,59.95203837,,,,,,,,,,,,0.5,1,,,,,,,,,,,,,,,,,,,,,,,,0.773148148,-0.006481481,0,0,0,,,,,,,SKIING,LB,z,y,./images/SKIINGLB.png,,,,,,,,,,,,,,,,,,,,z,1,,,,,,,,0,119,119,101,1,0.5
,,,,,,,,,,,,,,,,,5fc8a956800c80232e0b7a32,27,2022-02-12_14h43.09.189,lexical_decision_task_DD_L4,2021.2.3,Win32,59.95203837,,,,,,,,,,,,0.532,0,,,,,,,,,,,,,,,,,,,,,,,,0.773148148,-0.006481481,0,0,0,,,,,,,BLOKE,C,m,y,./images/BLOKE.png,,,,,,,,,,,,,,,,,,,,z,0,,,,,,,,0,120,120,12,1,0.532
,,,,,,,,,,,,,,,,,5fc8a956800c80232e0b7a32,27,2022-02-12_14h43.09.189,lexical_decision_task_DD_L4,2021.2.3,Win32,59.95203837,,,,,,,,,,,,0.605,0,,,,,,,,,,,,,,,,,,,,,,,,0.773148148,-0.006481481,0,0,0,,,,,,,ARROW,C,m,y,./images/ARROW.png,,,,,,,,,,,,,,,,,,,,z,0,,,,,,,,0,121,121,69,1,0.605
,,,,,,,,,,,,,,,,,5fc8a956800c80232e0b7a32,27,2022-02-12_14h43.09.189,lexical_decision_task_DD_L4,2021.2.3,Win32,59.95203837,,,,,,,,,,,,0.566,1,,,,,,,,,,,,,,,,,,,,,,,,0.773148148,-0.006481481,0,0,0,,,,,,,MIDGET,HB,m,y,./images/MIDGETHB.png,,,,,,,,,,,,,,,,,,,,m,1,,,,,,,,0,122,122,76,1,0.566
,,,,,,,,,,,,,,,,,5fc8a956800c80232e0b7a32,27,2022-02-12_14h43.09.189,lexical_decision_task_DD_L4,2021.2.3,Win32,59.95203837,,,,,,,,,,,,0.516,1,,,,,,,,,,,,,,,,,,,,,,,,0.773148148,-0.006481481,0,0,0,,,,,,,MONKEY,C,m,y,./images/MONKEY.png,,,,,,,,,,,,,,,,,,,,m,1,,,,,,,,0,123,123,45,1,0.516
,,,,,,,,,,,,,,,,,5fc8a956800c80232e0b7a32,27,2022-02-12_14h43.09.189,lexical_decision_task_DD_L4,2021.2.3,Win32,59.95203837,,,,,,,,,,,,0.754,1,,,,,,,,,,,,,,,,,,,,,,,,0.773148148,-0.006481481,0,0,0,,,,,,,CANYON,HB,z,y,./images/CANYONHB.png,,,,,,,,,,,,,,,,,,,,z,1,,,,,,,,0,124,124,118,1,0.754
,,,,,,,,,,,,,,,,,5fc8a956800c80232e0b7a32,27,2022-02-12_14h43.09.189,lexical_decision_task_DD_L4,2021.2.3,Win32,59.95203837,,,,,,,,,,,,0.517,0,,,,,,,,,,,,,,,,,,,,,,,,0.773148148,-0.006481481,0,0,0,space,,,,,,CANDY,C,m,y,./images/CANDY.png,0.681,,,,,,,,,,,,,,,,,,,z,0,,,,,,,,0,125,125,39,1,0.517
,,,,,,,,,,,,,,,,,5fc8a956800c80232e0b7a32,27,2022-02-12_14h43.09.189,lexical_decision_task_DD_L4,2021.2.3,Win32,59.95203837,,,,,,,,,,,,0.655,1,,,,,,,,,,,,,,,,,,,,,,,,0.773148148,-0.006481481,0,0,0,,,,,,,COOKER,C,z,y,./images/COOKER.png,,,,,,,,,,,,,,,,,,,,z,1,,,,,,,,0,126,126,153,1,0.655
,,,,,,,,,,,,,,,,,5fc8a956800c80232e0b7a32,27,2022-02-12_14h43.09.189,lexical_decision_task_DD_L4,2021.2.3,Win32,59.95203837,,,,,,,,,,,,0.603,1,,,,,,,,,,,,,,,,,,,,,,,,0.773148148,-0.006481481,0,0,0,,,,,,,FINGER,C,z,y,./images/FINGER.png,,,,,,,,,,,,,,,,,,,,z,1,,,,,,,,0,127,127,87,1,0.603
,,,,,,,,,,,,,,,,,5fc8a956800c80232e0b7a32,27,2022-02-12_14h43.09.189,lexical_decision_task_DD_L4,2021.2.3,Win32,59.95203837,,,,,,,,,,,,0.6,1,,,,,,,,,,,,,,,,,,,,,,,,0.773148148,-0.006481481,0,0,0,,,,,,,LAGOON,LB,m,y,./images/LAGOONLB.png,,,,,,,,,,,,,,,,,,,,m,1,,,,,,,,0,128,128,47,1,0.6
,,,,,,,,,,,,,,,,,5fc8a956800c80232e0b7a32,27,2022-02-12_14h43.09.189,lexical_decision_task_DD_L4,2021.2.3,Win32,59.95203837,,,,,,,,,,,,0.584,1,,,,,,,,,,,,,,,,,,,,,,,,0.773148148,-0.006481481,0,0,0,,,,,,,GARDEN,HB,m,y,./images/GARDENHB.png,,,,,,,,,,,,,,,,,,,,m,1,,,,,,,,0,129,129,10,1,0.584
,,,,,,,,,,,,,,,,,5fc8a956800c80232e0b7a32,27,2022-02-12_14h43.09.189,lexical_decision_task_DD_L4,2021.2.3,Win32,59.95203837,,,,,,,,,,,,0.537,1,,,,,,,,,,,,,,,,,,,,,,,,0.773148148,-0.006481481,0,0,0,,,,,,,URINE,HB,z,y,./images/URINEHB.png,,,,,,,,,,,,,,,,,,,,z,1,,,,,,,,0,130,130,154,1,0.537
,,,,,,,,,,,,,,,,,5fc8a956800c80232e0b7a32,27,2022-02-12_14h43.09.189,lexical_decision_task_DD_L4,2021.2.3,Win32,59.95203837,,,,,,,,,,,,0.954,0,,,,,,,,,,,,,,,,,,,,,,,,0.773148148,-0.006481481,0,0,0,,,,,,,CHAIN,C,m,y,./images/CHAIN.png,,,,,,,,,,,,,,,,,,,,z,0,,,,,,,,0,131,131,42,1,0.954
,,,,,,,,,,,,,,,,,5fc8a956800c80232e0b7a32,27,2022-02-12_14h43.09.189,lexical_decision_task_DD_L4,2021.2.3,Win32,59.95203837,,,,,,,,,,,,1.331,1,,,,,,,,,,,,,,,,,,,,,,,,0.773148148,-0.006481481,0,0,0,,,,,,,STRING,LB,z,y,./images/STRINGLB.png,,,,,,,,,,,,,,,,,,,,z,1,,,,,,,,0,132,132,125,1,1.331
,,,,,,,,,,,,,,,,,5fc8a956800c80232e0b7a32,27,2022-02-12_14h43.09.189,lexical_decision_task_DD_L4,2021.2.3,Win32,59.95203837,,,,,,,,,,,,0.549,1,,,,,,,,,,,,,,,,,,,,,,,,0.773148148,-0.006481481,0,0,0,,,,,,,SWEAT,C,z,y,./images/SWEAT.png,,,,,,,,,,,,,,,,,,,,z,1,,,,,,,,0,133,133,150,1,0.549
,,,,,,,,,,,,,,,,,5fc8a956800c80232e0b7a32,27,2022-02-12_14h43.09.189,lexical_decision_task_DD_L4,2021.2.3,Win32,59.95203837,,,,,,,,,,,,0.632,1,,,,,,,,,,,,,,,,,,,,,,,,0.773148148,-0.006481481,0,0,0,,,,,,,CURRY,C,m,y,./images/CURRY.png,,,,,,,,,,,,,,,,,,,,m,1,,,,,,,,0,134,134,60,1,0.632
