key_resp.keys,instr_done_touch.x,instr_done_touch.y,instr_done_touch.leftButton,instr_done_touch.midButton,instr_done_touch.rightButton,instr_done_touch.clicked_name,instruction_pages.thisRepN,instruction_pages.thisTrialN,instruction_pages.thisN,instruction_pages.thisIndex,instruction_pages.ran,pageN,phase,instruct_text,has_image,instruct_image,participant,age,date,expName,psychopyVersion,OS,frameRate,response.keys,response.corr,touch_resp.x,touch_resp.y,touch_resp.leftButton,touch_resp.midButton,touch_resp.rightButton,touch_resp.time,touch_resp.clicked_name,rt,corr,practrials.thisRepN,practrials.thisTrialN,practrials.thisN,practrials.thisIndex,practrials.ran,TrialID,Target,corrAns,end_of_practice_trials_pages.thisRepN,end_of_practice_trials_pages.thisTrialN,end_of_practice_trials_pages.thisN,end_of_practice_trials_pages.thisIndex,end_of_practice_trials_pages.ran,key_resp_2.keys,key_resp_2.corr,targ_click.x,targ_click.y,targ_click.leftButton,targ_click.midButton,targ_click.rightButton,targ_click.time,targ_click.clicked_name,break_done_touch.x,break_done_touch.y,break_done_touch.leftButton,break_done_touch.midButton,break_done_touch.rightButton,break_done_keyboard.keys,maintrials.thisRepN,maintrials.thisTrialN,maintrials.thisN,maintrials.thisIndex,maintrials.ran,string,blur,study,lex,stim_path,break_done_touch.clicked_name,mouse_2.x,mouse_2.y,mouse_2.leftButton,mouse_2.midButton,mouse_2.rightButton,mouse_2.clicked_name,slider.response,slider.rt,trials.thisRepN,trials.thisTrialN,trials.thisN,trials.thisIndex,trials.ran,test_instructions.thisRepN,test_instructions.thisTrialN,test_instructions.thisN,test_instructions.thisIndex,test_instructions.ran,key_resp_3.keys,key_resp_3.corr,test_click.x,test_click.y,test_click.leftButton,test_click.midButton,test_click.rightButton,test_click.time,test_click.clicked_name,test_phase.thisRepN,test_phase.thisTrialN,test_phase.thisN,test_phase.thisIndex,test_phase.ran
,0.05859375,-0.399768575,1,0,0,instr_done_button,0,0,0,0,1,1,instructions,"INSTRUCTIONS
At the start of each trial, look at the plus sign  (+) in the center of the screen.  This tells you that a trial is about to begin and where to look. Second, the plus sign will disappear and a string of letters will appear. Your task is to determine if the string of letters is a word or not. If the item is a word press the M key (on keyboard)  or touch the word button (phone/tablet).  If the item is not a word,  press the  Z key (on keyboard)  or touch the nonword button (on phone/tablet). 
Press the space bar or touch  continue.",0,,5fd59761251e25405b7671df,27,2022-02-12_16h46.33.638,lexical_decision_task_DD_L4,2021.2.3,Linux aarch64,60.18295619,,,,,,,,,,,,,,,,,,,,,,,,,,,,,,,,,,,,,,,,,,,,,,,,,,,,,,,,,,,,,,,,,,,,,,,,,,,,,,,,,,
,0.126708984,-0.405736457,1,0,0,instr_done_button,0,1,1,1,1,2,instructions,"If your device has a keyboard, press the 'Z' key for nonwords and the 'M' key for words.





Press the space bar or touch the button below to continue.",0,keyboard-example.gif,5fd59761251e25405b7671df,27,2022-02-12_16h46.33.638,lexical_decision_task_DD_L4,2021.2.3,Linux aarch64,60.18295619,,,,,,,,,,,,,,,,,,,,,,,,,,,,,,,,,,,,,,,,,,,,,,,,,,,,,,,,,,,,,,,,,,,,,,,,,,,,,,,,,,
,0.114257813,-0.391088019,1,0,0,instr_done_button,0,2,2,2,1,3,instructions,"If you are using a touchscreen only device, use the buttons on the screen. Do not use the mouse.





Press the space bar or touch the button below to continue.",0,touchscreen-example.gif,5fd59761251e25405b7671df,27,2022-02-12_16h46.33.638,lexical_decision_task_DD_L4,2021.2.3,Linux aarch64,60.18295619,,,,,,,,,,,,,,,,,,,,,,,,,,,,,,,,,,,,,,,,,,,,,,,,,,,,,,,,,,,,,,,,,,,,,,,,,,,,,,,,,,
,0.14453125,-0.387832811,1,0,0,instr_done_button,0,3,3,3,1,4,instructions,"It is very important that you respond as quickly and accurately as possible, as each letter string will only be on the screen for two seconds. If you do not respond within this time, the message 'Too slow!' will be displayed and the experiment will progress to the next letter string. The first 20 trials will be practice trials and you will receive feedback on your answers. 

Press the space bar or touch the button below to start the practice trials.",0,,5fd59761251e25405b7671df,27,2022-02-12_16h46.33.638,lexical_decision_task_DD_L4,2021.2.3,Linux aarch64,60.18295619,,,,,,,,,,,,,,,,,,,,,,,,,,,,,,,,,,,,,,,,,,,,,,,,,,,,,,,,,,,,,,,,,,,,,,,,,,,,,,,,,,
,,,,,,,,,,,,,,,,,5fd59761251e25405b7671df,27,2022-02-12_16h46.33.638,lexical_decision_task_DD_L4,2021.2.3,Linux aarch64,60.18295619,,0,-0.357177734,-0.369386631,1,0,0,1.8859,button_left,1.8859,1,0,0,0,9,1,1001,FARINY,z,,,,,,,,,,,,,,,,,,,,,,,,,,,,,,,,,,,,,,,,,,,,,,,,,,,,,,,,,,,,,,,
,,,,,,,,,,,,,,,,,5fd59761251e25405b7671df,27,2022-02-12_16h46.33.638,lexical_decision_task_DD_L4,2021.2.3,Linux aarch64,60.18295619,,0,-0.347412109,-0.394343228,1,0,0,0.7769,button_left,0.7769,1,0,1,1,15,1,1001,WHAISE,z,,,,,,,,,,,,,,,,,,,,,,,,,,,,,,,,,,,,,,,,,,,,,,,,,,,,,,,,,,,,,,,
,,,,,,,,,,,,,,,,,5fd59761251e25405b7671df,27,2022-02-12_16h46.33.638,lexical_decision_task_DD_L4,2021.2.3,Linux aarch64,60.18295619,,0,-0.336181641,-0.401396179,1,0,0,0.8602,button_left,0.8602,1,0,2,2,12,1,1001,SPRINY,z,,,,,,,,,,,,,,,,,,,,,,,,,,,,,,,,,,,,,,,,,,,,,,,,,,,,,,,,,,,,,,,
,,,,,,,,,,,,,,,,,5fd59761251e25405b7671df,27,2022-02-12_16h46.33.638,lexical_decision_task_DD_L4,2021.2.3,Linux aarch64,60.18295619,,0,0.391357422,-0.303739929,1,0,0,0.5437,button_right,0.5437,1,0,3,3,4,1,1001,SQUEAK,m,,,,,,,,,,,,,,,,,,,,,,,,,,,,,,,,,,,,,,,,,,,,,,,,,,,,,,,,,,,,,,,
,,,,,,,,,,,,,,,,,5fd59761251e25405b7671df,27,2022-02-12_16h46.33.638,lexical_decision_task_DD_L4,2021.2.3,Linux aarch64,60.18295619,,0,0.402832031,-0.295059374,1,0,0,0.5274,button_right,0.5274,1,0,4,4,7,1,1001,VOLUME,m,,,,,,,,,,,,,,,,,,,,,,,,,,,,,,,,,,,,,,,,,,,,,,,,,,,,,,,,,,,,,,,
,,,,,,,,,,,,,,,,,5fd59761251e25405b7671df,27,2022-02-12_16h46.33.638,lexical_decision_task_DD_L4,2021.2.3,Linux aarch64,60.18295619,,0,0.396972656,-0.292889235,1,0,0,0.662,button_right,0.662,1,0,5,5,0,1,1001,UTOPIA,m,,,,,,,,,,,,,,,,,,,,,,,,,,,,,,,,,,,,,,,,,,,,,,,,,,,,,,,,,,,,,,,
,,,,,,,,,,,,,,,,,5fd59761251e25405b7671df,27,2022-02-12_16h46.33.638,lexical_decision_task_DD_L4,2021.2.3,Linux aarch64,60.18295619,,0,-0.337158203,-0.375897047,1,0,0,0.7786,button_left,0.7786,1,0,6,6,13,1,1001,ROUPET,z,,,,,,,,,,,,,,,,,,,,,,,,,,,,,,,,,,,,,,,,,,,,,,,,,,,,,,,,,,,,,,,
,,,,,,,,,,,,,,,,,5fd59761251e25405b7671df,27,2022-02-12_16h46.33.638,lexical_decision_task_DD_L4,2021.2.3,Linux aarch64,60.18295619,,0,-0.349121094,-0.361791144,1,0,0,0.959,button_left,0.959,1,0,7,7,10,1,1001,INLADE,z,,,,,,,,,,,,,,,,,,,,,,,,,,,,,,,,,,,,,,,,,,,,,,,,,,,,,,,,,,,,,,,
,,,,,,,,,,,,,,,,,5fd59761251e25405b7671df,27,2022-02-12_16h46.33.638,lexical_decision_task_DD_L4,2021.2.3,Linux aarch64,60.18295619,,0,0.366210938,-0.327068922,1,0,0,0.6605,button_right,0.6605,1,0,8,8,3,1,1001,MATRIX,m,,,,,,,,,,,,,,,,,,,,,,,,,,,,,,,,,,,,,,,,,,,,,,,,,,,,,,,,,,,,,,,
,,,,,,,,,,,,,,,,,5fd59761251e25405b7671df,27,2022-02-12_16h46.33.638,lexical_decision_task_DD_L4,2021.2.3,Linux aarch64,60.18295619,,0,0.359863281,-0.312420485,1,0,0,0.5765,button_right,0.5765,1,0,9,9,2,1,1001,ALMOND,m,,,,,,,,,,,,,,,,,,,,,,,,,,,,,,,,,,,,,,,,,,,,,,,,,,,,,,,,,,,,,,,
,,,,,,,,,,,,,,,,,5fd59761251e25405b7671df,27,2022-02-12_16h46.33.638,lexical_decision_task_DD_L4,2021.2.3,Linux aarch64,60.18295619,,0,0.35546875,-0.288548957,1,0,0,0.5766,button_right,0.5766,1,0,10,10,5,1,1001,OBTAIN,m,,,,,,,,,,,,,,,,,,,,,,,,,,,,,,,,,,,,,,,,,,,,,,,,,,,,,,,,,,,,,,,
,,,,,,,,,,,,,,,,,5fd59761251e25405b7671df,27,2022-02-12_16h46.33.638,lexical_decision_task_DD_L4,2021.2.3,Linux aarch64,60.18295619,,0,0.379882813,-0.312963019,1,0,0,0.5617,button_right,0.5617,1,0,11,11,6,1,1001,ZOMBIE,m,,,,,,,,,,,,,,,,,,,,,,,,,,,,,,,,,,,,,,,,,,,,,,,,,,,,,,,,,,,,,,,
,,,,,,,,,,,,,,,,,5fd59761251e25405b7671df,27,2022-02-12_16h46.33.638,lexical_decision_task_DD_L4,2021.2.3,Linux aarch64,60.18295619,,0,-0.328369141,-0.366131422,1,0,0,0.6119,button_left,0.6119,1,0,12,12,14,1,1001,THRALE,z,,,,,,,,,,,,,,,,,,,,,,,,,,,,,,,,,,,,,,,,,,,,,,,,,,,,,,,,,,,,,,,
,,,,,,,,,,,,,,,,,5fd59761251e25405b7671df,27,2022-02-12_16h46.33.638,lexical_decision_task_DD_L4,2021.2.3,Linux aarch64,60.18295619,,0,0.348876953,-0.324356249,1,0,0,0.6627,button_right,0.6627,1,0,13,13,1,1,1001,ADJUST,m,,,,,,,,,,,,,,,,,,,,,,,,,,,,,,,,,,,,,,,,,,,,,,,,,,,,,,,,,,,,,,,
,,,,,,,,,,,,,,,,,5fd59761251e25405b7671df,27,2022-02-12_16h46.33.638,lexical_decision_task_DD_L4,2021.2.3,Linux aarch64,60.18295619,,0,-0.320556641,-0.357450867,1,0,0,0.5004,button_left,0.5004,1,0,14,14,11,1,1001,RASHET,z,,,,,,,,,,,,,,,,,,,,,,,,,,,,,,,,,,,,,,,,,,,,,,,,,,,,,,,,,,,,,,,
,,,,,,,,,,,,,,,,,5fd59761251e25405b7671df,27,2022-02-12_16h46.33.638,lexical_decision_task_DD_L4,2021.2.3,Linux aarch64,60.18295619,,0,-0.317871094,-0.347685242,1,0,0,0.7596,button_left,0.7596,1,0,15,15,8,1,1001,ASLERT,z,,,,,,,,,,,,,,,,,,,,,,,,,,,,,,,,,,,,,,,,,,,,,,,,,,,,,,,,,,,,,,,
,0.098144531,-0.396513367,1,0,0,instr_done_button,,,,,,1,end_of_practice,"You have completed the practice trials. During the experimental trials, you will not receive feedback. 
Before you begin, please ensure that you are in a comfortable and quiet location and will not be disturbed for about 15 minutes, as we cannot use your data if you do not complete all the trials. 
 When you are ready to start the experimental trials, please press space or touch the button below.",,,5fd59761251e25405b7671df,27,2022-02-12_16h46.33.638,lexical_decision_task_DD_L4,2021.2.3,Linux aarch64,60.18295619,,,,,,,,,,,,,,,,,,,,0,0,0,0,1,,,,,,,,,,,,,,,,,,,,,,,,,,,,,,,,,,,,,,,,,,,,,,,,,,,,,,,,,,
,,,,,,,,,,,,,,,,,5fd59761251e25405b7671df,27,2022-02-12_16h46.33.638,lexical_decision_task_DD_L4,2021.2.3,Linux aarch64,60.18295619,,,,,,,,,,1.8644,1,,,,,,,,,,,,,,,0,0.385253906,-0.310792881,1,0,0,1.8644,button_right_main,0.385253906,-0.310792881,1,0,0,,0,0,0,43,1,STOOL,HB,old,m,./images/STOOLHB.png,,,,,,,,,,,,,,,,,,,,,,,,,,,,,,,,,
,,,,,,,,,,,,,,,,,5fd59761251e25405b7671df,27,2022-02-12_16h46.33.638,lexical_decision_task_DD_L4,2021.2.3,Linux aarch64,60.18295619,,,,,,,,,,0.8961,1,,,,,,,,,,,,,,,0,-0.341308594,-0.374269443,1,0,0,0.8961,button_left_main,-0.341308594,-0.374269443,1,0,0,,0,1,1,84,1,HAXES,C,old,z,./images/HAXES.png,,,,,,,,,,,,,,,,,,,,,,,,,,,,,,,,,
,,,,,,,,,,,,,,,,,5fd59761251e25405b7671df,27,2022-02-12_16h46.33.638,lexical_decision_task_DD_L4,2021.2.3,Linux aarch64,60.18295619,,,,,,,,,,0.9447,1,,,,,,,,,,,,,,,0,-0.348632813,-0.356365797,1,0,0,0.9447,button_left_main,-0.348632813,-0.356365797,1,0,0,,0,2,2,122,1,BLOOT,LB,old,z,./images/BLOOTLB.png,,,,,,,,,,,,,,,,,,,,,,,,,,,,,,,,,
,,,,,,,,,,,,,,,,,5fd59761251e25405b7671df,27,2022-02-12_16h46.33.638,lexical_decision_task_DD_L4,2021.2.3,Linux aarch64,60.18295619,,,,,,,,,,0.6307,1,,,,,,,,,,,,,,,0,0.3671875,-0.305910068,1,0,0,0.6307,button_right_main,0.3671875,-0.305910068,1,0,0,,0,3,3,2,1,STOVE,LB,old,m,./images/STOVELB.png,,,,,,,,,,,,,,,,,,,,,,,,,,,,,,,,,
,,,,,,,,,,,,,,,,,5fd59761251e25405b7671df,27,2022-02-12_16h46.33.638,lexical_decision_task_DD_L4,2021.2.3,Linux aarch64,60.18295619,,,,,,,,,,1.2637,1,,,,,,,,,,,,,,,0,-0.343261719,-0.34063229,1,0,0,1.2637,button_left_main,-0.343261719,-0.34063229,1,0,0,,0,4,4,139,1,BLEAR,HB,old,z,./images/BLEARHB.png,,,,,,,,,,,,,,,,,,,,,,,,,,,,,,,,,
,,,,,,,,,,,,,,,,,5fd59761251e25405b7671df,27,2022-02-12_16h46.33.638,lexical_decision_task_DD_L4,2021.2.3,Linux aarch64,60.18295619,,,,,,,,,,0.9306,1,,,,,,,,,,,,,,,0,-0.332519531,-0.338462151,1,0,0,0.9306,button_left_main,-0.332519531,-0.338462151,1,0,0,,0,5,5,133,1,POWDY,HB,old,z,./images/POWDYHB.png,,,,,,,,,,,,,,,,,,,,,,,,,,,,,,,,,
,,,,,,,,,,,,,,,,,5fd59761251e25405b7671df,27,2022-02-12_16h46.33.638,lexical_decision_task_DD_L4,2021.2.3,Linux aarch64,60.18295619,,,,,,,,,,1.5933,1,,,,,,,,,,,,,,,0,-0.335693359,-0.34171736,1,0,0,1.5933,button_left_main,-0.335693359,-0.34171736,1,0,0,,0,6,6,97,1,CHIDS,HB,old,z,./images/CHIDSHB.png,,,,,,,,,,,,,,,,,,,,,,,,,,,,,,,,,
,,,,,,,,,,,,,,,,,5fd59761251e25405b7671df,27,2022-02-12_16h46.33.638,lexical_decision_task_DD_L4,2021.2.3,Linux aarch64,60.18295619,,,,,,,,,,0.7293,1,,,,,,,,,,,,,,,0,-0.344970703,-0.341174825,1,0,0,0.7293,button_left_main,-0.344970703,-0.341174825,1,0,0,,0,7,7,147,1,ZOLES,C,old,z,./images/ZOLES.png,,,,,,,,,,,,,,,,,,,,,,,,,,,,,,,,,
,,,,,,,,,,,,,,,,,5fd59761251e25405b7671df,27,2022-02-12_16h46.33.638,lexical_decision_task_DD_L4,2021.2.3,Linux aarch64,60.18295619,,,,,,,,,,0.5958,1,,,,,,,,,,,,,,,0,0.34765625,-0.322728644,1,0,0,0.5958,button_right_main,0.34765625,-0.322728644,1,0,0,,0,8,8,73,1,GLOVE,HB,old,m,./images/GLOVEHB.png,,,,,,,,,,,,,,,,,,,,,,,,,,,,,,,,,
,,,,,,,,,,,,,,,,,5fd59761251e25405b7671df,27,2022-02-12_16h46.33.638,lexical_decision_task_DD_L4,2021.2.3,Linux aarch64,60.18295619,,,,,,,,,,0.4793,1,,,,,,,,,,,,,,,0,-0.339599609,-0.343887499,1,0,0,0.4793,button_left_main,-0.339599609,-0.343887499,1,0,0,,0,9,9,111,1,HOSSE,C,old,z,./images/HOSSE.png,,,,,,,,,,,,,,,,,,,,,,,,,,,,,,,,,
,,,,,,,,,,,,,,,,,5fd59761251e25405b7671df,27,2022-02-12_16h46.33.638,lexical_decision_task_DD_L4,2021.2.3,Linux aarch64,60.18295619,,,,,,,,,,1.0293,1,,,,,,,,,,,,,,,0,0.373779297,-0.294516839,1,0,0,1.0293,button_right_main,0.373779297,-0.294516839,1,0,0,,0,10,10,46,1,MUMMY,HB,old,m,./images/MUMMYHB.png,,,,,,,,,,,,,,,,,,,,,,,,,,,,,,,,,
,,,,,,,,,,,,,,,,,5fd59761251e25405b7671df,27,2022-02-12_16h46.33.638,lexical_decision_task_DD_L4,2021.2.3,Linux aarch64,60.18295619,,,,,,,,,,0.7291,1,,,,,,,,,,,,,,,0,-0.33984375,-0.357450867,1,0,0,0.7291,button_left_main,-0.33984375,-0.357450867,1,0,0,,0,11,11,131,1,NACES,LB,old,z,./images/NACESLB.png,,,,,,,,,,,,,,,,,,,,,,,,,,,,,,,,,
,,,,,,,,,,,,,,,,,5fd59761251e25405b7671df,27,2022-02-12_16h46.33.638,lexical_decision_task_DD_L4,2021.2.3,Linux aarch64,60.18295619,,,,,,,,,,0.797,1,,,,,,,,,,,,,,,0,-0.337402344,-0.356908332,1,0,0,0.797,button_left_main,-0.337402344,-0.356908332,1,0,0,,0,12,12,114,1,RIKES,C,old,z,./images/RIKES.png,,,,,,,,,,,,,,,,,,,,,,,,,,,,,,,,,
,,,,,,,,,,,,,,,,,5fd59761251e25405b7671df,27,2022-02-12_16h46.33.638,lexical_decision_task_DD_L4,2021.2.3,Linux aarch64,60.18295619,,,,,,,,,,0.6302,1,,,,,,,,,,,,,,,0,0.345458984,-0.290719096,1,0,0,0.6302,button_right_main,0.345458984,-0.290719096,1,0,0,,0,13,13,18,1,PARCEL,C,old,m,./images/PARCEL.png,,,,,,,,,,,,,,,,,,,,,,,,,,,,,,,,,
,,,,,,,,,,,,,,,,,5fd59761251e25405b7671df,27,2022-02-12_16h46.33.638,lexical_decision_task_DD_L4,2021.2.3,Linux aarch64,60.18295619,,,,,,,,,,0.5468,1,,,,,,,,,,,,,,,0,0.360595703,-0.285836283,1,0,0,0.5468,button_right_main,0.360595703,-0.285836283,1,0,0,,0,14,14,6,1,STAIN,C,old,m,./images/STAIN.png,,,,,,,,,,,,,,,,,,,,,,,,,,,,,,,,,
,,,,,,,,,,,,,,,,,5fd59761251e25405b7671df,27,2022-02-12_16h46.33.638,lexical_decision_task_DD_L4,2021.2.3,Linux aarch64,60.18295619,,,,,,,,,,0.6283,1,,,,,,,,,,,,,,,0,-0.341308594,-0.347142707,1,0,0,0.6283,button_left_main,-0.341308594,-0.347142707,1,0,0,,0,15,15,98,1,BAMPS,LB,old,z,./images/BAMPSLB.png,,,,,,,,,,,,,,,,,,,,,,,,,,,,,,,,,
,,,,,,,,,,,,,,,,,5fd59761251e25405b7671df,27,2022-02-12_16h46.33.638,lexical_decision_task_DD_L4,2021.2.3,Linux aarch64,60.18295619,,,,,,,,,,0.6633,1,,,,,,,,,,,,,,,0,-0.338134766,-0.343344964,1,0,0,0.6633,button_left_main,-0.338134766,-0.343344964,1,0,0,,0,16,16,117,1,STEEG,C,old,z,./images/STEEG.png,,,,,,,,,,,,,,,,,,,,,,,,,,,,,,,,,
,,,,,,,,,,,,,,,,,5fd59761251e25405b7671df,27,2022-02-12_16h46.33.638,lexical_decision_task_DD_L4,2021.2.3,Linux aarch64,60.18295619,,,,,,,,,,0.664,1,,,,,,,,,,,,,,,0,-0.3359375,-0.346600172,1,0,0,0.664,button_left_main,-0.3359375,-0.346600172,1,0,0,,0,17,17,105,1,MOKER,C,old,z,./images/MOKER.png,,,,,,,,,,,,,,,,,,,,,,,,,,,,,,,,,
,,,,,,,,,,,,,,,,,5fd59761251e25405b7671df,27,2022-02-12_16h46.33.638,lexical_decision_task_DD_L4,2021.2.3,Linux aarch64,60.18295619,,,,,,,,,,0.7474,1,,,,,,,,,,,,,,,0,-0.328125,-0.331951735,1,0,0,0.7474,button_left_main,-0.328125,-0.331951735,1,0,0,,0,18,18,148,1,JOMS,HB,old,z,./images/JOMSHB.png,,,,,,,,,,,,,,,,,,,,,,,,,,,,,,,,,
,,,,,,,,,,,,,,,,,5fd59761251e25405b7671df,27,2022-02-12_16h46.33.638,lexical_decision_task_DD_L4,2021.2.3,Linux aarch64,60.18295619,,,,,,,,,,0.8798,1,,,,,,,,,,,,,,,0,0.347412109,-0.293974304,1,0,0,0.8798,button_right_main,0.347412109,-0.293974304,1,0,0,,0,19,19,34,1,RAZOR,HB,old,m,./images/RAZORHB.png,,,,,,,,,,,,,,,,,,,,,,,,,,,,,,,,,
,,,,,,,,,,,,,,,,,5fd59761251e25405b7671df,27,2022-02-12_16h46.33.638,lexical_decision_task_DD_L4,2021.2.3,Linux aarch64,60.18295619,,,,,,,,,,0.6973,1,,,,,,,,,,,,,,,0,0.32421875,-0.298314582,1,0,0,0.6973,button_right_main,0.32421875,-0.298314582,1,0,0,,0,20,20,58,1,CANOE,HB,old,m,./images/CANOEHB.png,,,,,,,,,,,,,,,,,,,,,,,,,,,,,,,,,
,,,,,,,,,,,,,,,,,5fd59761251e25405b7671df,27,2022-02-12_16h46.33.638,lexical_decision_task_DD_L4,2021.2.3,Linux aarch64,60.18295619,,,,,,,,,,0.6834,1,,,,,,,,,,,,,,,0,-0.341064453,-0.347142707,1,0,0,0.6834,button_left_main,-0.341064453,-0.347142707,1,0,0,,0,21,21,96,1,KEAMS,C,old,z,./images/KEAMS.png,,,,,,,,,,,,,,,,,,,,,,,,,,,,,,,,,
,,,,,,,,,,,,,,,,,5fd59761251e25405b7671df,27,2022-02-12_16h46.33.638,lexical_decision_task_DD_L4,2021.2.3,Linux aarch64,60.18295619,,,,,,,,,,0.4798,1,,,,,,,,,,,,,,,0,0.372314453,-0.288548957,1,0,0,0.4798,button_right_main,0.372314453,-0.288548957,1,0,0,,0,22,22,39,1,CANDY,C,old,m,./images/CANDY.png,,,,,,,,,,,,,,,,,,,,,,,,,,,,,,,,,
,,,,,,,,,,,,,,,,,5fd59761251e25405b7671df,27,2022-02-12_16h46.33.638,lexical_decision_task_DD_L4,2021.2.3,Linux aarch64,60.18295619,,,,,,,,,,0.5292,0,,,,,,,,,,,,,,,0,-0.335205078,-0.345515103,1,0,0,0.5292,button_left_main,-0.335205078,-0.345515103,1,0,0,,0,23,23,20,1,GRANNY,LB,old,m,./images/GRANNYLB.png,,,,,,,,,,,,,,,,,,,,,,,,,,,,,,,,,
,,,,,,,,,,,,,,,,,5fd59761251e25405b7671df,27,2022-02-12_16h46.33.638,lexical_decision_task_DD_L4,2021.2.3,Linux aarch64,60.18295619,,,,,,,,,,0.6129,0,,,,,,,,,,,,,,,0,-0.346679688,-0.339004686,1,0,0,0.6129,button_left_main,-0.346679688,-0.339004686,1,0,0,,0,24,24,23,1,CLOTH,LB,old,m,./images/CLOTHLB.png,,,,,,,,,,,,,,,,,,,,,,,,,,,,,,,,,
,,,,,,,,,,,,,,,,,5fd59761251e25405b7671df,27,2022-02-12_16h46.33.638,lexical_decision_task_DD_L4,2021.2.3,Linux aarch64,60.18295619,,,,,,,,,,0.7778,1,,,,,,,,,,,,,,,0,-0.346679688,-0.393800693,1,0,0,0.7778,button_left_main,-0.346679688,-0.393800693,1,0,0,,0,25,25,149,1,VEASE,LB,old,z,./images/VEASELB.png,,,,,,,,,,,,,,,,,,,,,,,,,,,,,,,,,
,,,,,,,,,,,,,,,,,5fd59761251e25405b7671df,27,2022-02-12_16h46.33.638,lexical_decision_task_DD_L4,2021.2.3,Linux aarch64,60.18295619,,,,,,,,,,0.5636,1,,,,,,,,,,,,,,,0,0.369140625,-0.306995138,1,0,0,0.5636,button_right_main,0.369140625,-0.306995138,1,0,0,,0,26,26,51,1,SAUCE,C,old,m,./images/SAUCE.png,,,,,,,,,,,,,,,,,,,,,,,,,,,,,,,,,
,,,,,,,,,,,,,,,,,5fd59761251e25405b7671df,27,2022-02-12_16h46.33.638,lexical_decision_task_DD_L4,2021.2.3,Linux aarch64,60.18295619,,,,,,,,,,0.7792,1,,,,,,,,,,,,,,,0,0.365478516,-0.278783332,1,0,0,0.7792,button_right_main,0.365478516,-0.278783332,1,0,0,,0,27,27,72,1,FLASK,C,old,m,./images/FLASK.png,,,,,,,,,,,,,,,,,,,,,,,,,,,,,,,,,
,,,,,,,,,,,,,,,,,5fd59761251e25405b7671df,27,2022-02-12_16h46.33.638,lexical_decision_task_DD_L4,2021.2.3,Linux aarch64,60.18295619,,,,,,,,,,0.8458,1,,,,,,,,,,,,,,,0,0.367431641,-0.302112325,1,0,0,0.8458,button_right_main,0.367431641,-0.302112325,1,0,0,,0,28,28,4,1,BOXER,HB,old,m,./images/BOXERHB.png,,,,,,,,,,,,,,,,,,,,,,,,,,,,,,,,,
,,,,,,,,,,,,,,,,,5fd59761251e25405b7671df,27,2022-02-12_16h46.33.638,lexical_decision_task_DD_L4,2021.2.3,Linux aarch64,60.18295619,,,,,,,,,,0.6123,1,,,,,,,,,,,,,,,0,-0.367919922,-0.369386631,1,0,0,0.6123,button_left_main,-0.367919922,-0.369386631,1,0,0,,0,29,29,134,1,TROSS,LB,old,z,./images/TROSSLB.png,,,,,,,,,,,,,,,,,,,,,,,,,,,,,,,,,
,,,,,,,,,,,,,,,,,5fd59761251e25405b7671df,27,2022-02-12_16h46.33.638,lexical_decision_task_DD_L4,2021.2.3,Linux aarch64,60.18295619,,,,,,,,,,0.4626,1,,,,,,,,,,,,,,,0,0.363769531,-0.286378818,1,0,0,0.4626,button_right_main,0.363769531,-0.286378818,1,0,0,,0,30,30,42,1,CHAIN,C,old,m,./images/CHAIN.png,,,,,,,,,,,,,,,,,,,,,,,,,,,,,,,,,
,,,,,,,,,,,,,,,,,5fd59761251e25405b7671df,27,2022-02-12_16h46.33.638,lexical_decision_task_DD_L4,2021.2.3,Linux aarch64,60.18295619,,,,,,,,,,1.1099,1,,,,,,,,,,,,,,,0,-0.366455078,-0.376982117,1,0,0,1.1099,button_left_main,-0.366455078,-0.376982117,1,0,0,,0,31,31,121,1,CEERS,HB,old,z,./images/CEERSHB.png,,,,,,,,,,,,,,,,,,,,,,,,,,,,,,,,,
,,,,,,,,,,,,,,,,,5fd59761251e25405b7671df,27,2022-02-12_16h46.33.638,lexical_decision_task_DD_L4,2021.2.3,Linux aarch64,60.18295619,,,,,,,,,,0.813,1,,,,,,,,,,,,,,,0,-0.362792969,-0.375897047,1,0,0,0.813,button_left_main,-0.362792969,-0.375897047,1,0,0,,0,32,32,107,1,FASKS,LB,old,z,./images/FASKSLB.png,,,,,,,,,,,,,,,,,,,,,,,,,,,,,,,,,
,,,,,,,,,,,,,,,,,5fd59761251e25405b7671df,27,2022-02-12_16h46.33.638,lexical_decision_task_DD_L4,2021.2.3,Linux aarch64,60.18295619,,,,,,,,,,0.6284,1,,,,,,,,,,,,,,,0,0.347412109,-0.289634026,1,0,0,0.6284,button_right_main,0.347412109,-0.289634026,1,0,0,,0,33,33,83,1,WHISKY,LB,old,m,./images/WHISKYLB.png,,,,,,,,,,,,,,,,,,,,,,,,,,,,,,,,,
,,,,,,,,,,,,,,,,,5fd59761251e25405b7671df,27,2022-02-12_16h46.33.638,lexical_decision_task_DD_L4,2021.2.3,Linux aarch64,60.18295619,,,,,,,,,,0.6631,1,,,,,,,,,,,,,,,0,-0.365966797,-0.368844096,1,0,0,0.6631,button_left_main,-0.365966797,-0.368844096,1,0,0,,0,34,34,126,1,GUELS,C,old,z,./images/GUELS.png,,,,,,,,,,,,,,,,,,,,,,,,,,,,,,,,,
,,,,,,,,,,,,,,,,,5fd59761251e25405b7671df,27,2022-02-12_16h46.33.638,lexical_decision_task_DD_L4,2021.2.3,Linux aarch64,60.18295619,,,,,,,,,,0.9283,1,,,,,,,,,,,,,,,0,0.343505859,-0.298857117,1,0,0,0.9283,button_right_main,0.343505859,-0.298857117,1,0,0,,0,35,35,12,1,BLOKE,C,old,m,./images/BLOKE.png,,,,,,,,,,,,,,,,,,,,,,,,,,,,,,,,,
,,,,,,,,,,,,,,,,,5fd59761251e25405b7671df,27,2022-02-12_16h46.33.638,lexical_decision_task_DD_L4,2021.2.3,Linux aarch64,60.18295619,,,,,,,,,,0.9289,1,,,,,,,,,,,,,,,0,0.372314453,-0.295601908,1,0,0,0.9289,button_right_main,0.372314453,-0.295601908,1,0,0,,0,36,36,19,1,DONKEY,HB,old,m,./images/DONKEYHB.png,,,,,,,,,,,,,,,,,,,,,,,,,,,,,,,,,
,,,,,,,,,,,,,,,,,5fd59761251e25405b7671df,27,2022-02-12_16h46.33.638,lexical_decision_task_DD_L4,2021.2.3,Linux aarch64,60.18295619,,,,,,,,,,0.6287,1,,,,,,,,,,,,,,,0,0.378417969,-0.286921353,1,0,0,0.6287,button_right_main,0.378417969,-0.286921353,1,0,0,,0,37,37,32,1,HOCKEY,LB,old,m,./images/HOCKEYLB.png,,,,,,,,,,,,,,,,,,,,,,,,,,,,,,,,,
,,,,,,,,,,,,,,,,,5fd59761251e25405b7671df,27,2022-02-12_16h46.33.638,lexical_decision_task_DD_L4,2021.2.3,Linux aarch64,60.18295619,,,,,,,,,,0.7967,1,,,,,,,,,,,,,,,0,-0.350830078,-0.36124861,1,0,0,0.7967,button_left_main,-0.350830078,-0.36124861,1,0,0,,0,38,38,109,1,BURGE,HB,old,z,./images/BURGEHB.png,,,,,,,,,,,,,,,,,,,,,,,,,,,,,,,,,
,,,,,,,,,,,,,,,,,5fd59761251e25405b7671df,27,2022-02-12_16h46.33.638,lexical_decision_task_DD_L4,2021.2.3,Linux aarch64,60.18295619,,,,,,,,,,0.7448,1,,,,,,,,,,,,,,,0,-0.348144531,-0.371014235,1,0,0,0.7448,button_left_main,-0.348144531,-0.371014235,1,0,0,,0,39,39,156,1,HIXES,C,old,z,./images/HIXES.png,,,,,,,,,,,,,,,,,,,,,,,,,,,,,,,,,
,,,,,,,,,,,,,,,,,5fd59761251e25405b7671df,27,2022-02-12_16h46.33.638,lexical_decision_task_DD_L4,2021.2.3,Linux aarch64,60.18295619,,,,,,,,,,0.7436,1,,,,,,,,,,,,,,,0,-0.342285156,-0.374269443,1,0,0,0.7436,button_left_main,-0.342285156,-0.374269443,1,0,0,,0,40,40,101,1,GLEET,LB,old,z,./images/GLEETLB.png,,,,,,,,,,,,,,,,,,,,,,,,,,,,,,,,,
,,,,,,,,,,,,,,,,,5fd59761251e25405b7671df,27,2022-02-12_16h46.33.638,lexical_decision_task_DD_L4,2021.2.3,Linux aarch64,60.18295619,,,,,,,,,,0.6967,1,,,,,,,,,,,,,,,0,-0.3515625,-0.368844096,1,0,0,0.6967,button_left_main,0.108398438,-0.379152256,1,0,0,,0,41,41,161,1,BLAPS,LB,old,z,./images/BLAPSLB.png,break_done_button,,,,,,,,,,,,,,,,,,,,,,,,,,,,,,,,
,,,,,,,,,,,,,,,,,5fd59761251e25405b7671df,27,2022-02-12_16h46.33.638,lexical_decision_task_DD_L4,2021.2.3,Linux aarch64,60.18295619,,,,,,,,,,0.6844,1,,,,,,,,,,,,,,,0,-0.366699219,-0.344430033,1,0,0,0.6844,button_left_main,-0.366699219,-0.344430033,1,0,0,,0,42,42,95,1,HANTY,LB,old,z,./images/HANTYLB.png,,,,,,,,,,,,,,,,,,,,,,,,,,,,,,,,,
,,,,,,,,,,,,,,,,,5fd59761251e25405b7671df,27,2022-02-12_16h46.33.638,lexical_decision_task_DD_L4,2021.2.3,Linux aarch64,60.18295619,,,,,,,,,,0.53,1,,,,,,,,,,,,,,,0,0.353027344,-0.296144443,1,0,0,0.53,button_right_main,0.353027344,-0.296144443,1,0,0,,0,43,43,14,1,FENCE,LB,old,m,./images/FENCELB.png,,,,,,,,,,,,,,,,,,,,,,,,,,,,,,,,,
,,,,,,,,,,,,,,,,,5fd59761251e25405b7671df,27,2022-02-12_16h46.33.638,lexical_decision_task_DD_L4,2021.2.3,Linux aarch64,60.18295619,,,,,,,,,,0.4949,1,,,,,,,,,,,,,,,0,-0.358154297,-0.357993401,1,0,0,0.4949,button_left_main,-0.358154297,-0.357993401,1,0,0,,0,44,44,102,1,DULLE,C,old,z,./images/DULLE.png,,,,,,,,,,,,,,,,,,,,,,,,,,,,,,,,,
,,,,,,,,,,,,,,,,,5fd59761251e25405b7671df,27,2022-02-12_16h46.33.638,lexical_decision_task_DD_L4,2021.2.3,Linux aarch64,60.18295619,,,,,,,,,,0.7613,1,,,,,,,,,,,,,,,0,-0.35546875,-0.349855381,1,0,0,0.7613,button_left_main,-0.35546875,-0.349855381,1,0,0,,0,45,45,88,1,GLUSH,HB,old,z,./images/GLUSHHB.png,,,,,,,,,,,,,,,,,,,,,,,,,,,,,,,,,
,,,,,,,,,,,,,,,,,5fd59761251e25405b7671df,27,2022-02-12_16h46.33.638,lexical_decision_task_DD_L4,2021.2.3,Linux aarch64,60.18295619,,,,,,,,,,1.0996,1,,,,,,,,,,,,,,,0,-0.344482422,-0.346057638,1,0,0,1.0996,button_left_main,-0.344482422,-0.346057638,1,0,0,,0,46,46,115,1,MAWNS,HB,old,z,./images/MAWNSHB.png,,,,,,,,,,,,,,,,,,,,,,,,,,,,,,,,,
,,,,,,,,,,,,,,,,,5fd59761251e25405b7671df,27,2022-02-12_16h46.33.638,lexical_decision_task_DD_L4,2021.2.3,Linux aarch64,60.18295619,,,,,,,,,,0.9813,1,,,,,,,,,,,,,,,0,-0.343505859,-0.338462151,1,0,0,0.9813,button_left_main,-0.343505859,-0.338462151,1,0,0,,0,47,47,151,1,TINKY,HB,old,z,./images/TINKYHB.png,,,,,,,,,,,,,,,,,,,,,,,,,,,,,,,,,
,,,,,,,,,,,,,,,,,5fd59761251e25405b7671df,27,2022-02-12_16h46.33.638,lexical_decision_task_DD_L4,2021.2.3,Linux aarch64,60.18295619,,,,,,,,,,0.6959,1,,,,,,,,,,,,,,,0,-0.346191406,-0.356365797,1,0,0,0.6959,button_left_main,-0.346191406,-0.356365797,1,0,0,,0,48,48,165,1,TROWN,C,old,z,./images/TROWN.png,,,,,,,,,,,,,,,,,,,,,,,,,,,,,,,,,
,,,,,,,,,,,,,,,,,5fd59761251e25405b7671df,27,2022-02-12_16h46.33.638,lexical_decision_task_DD_L4,2021.2.3,Linux aarch64,60.18295619,,,,,,,,,,1.3113,1,,,,,,,,,,,,,,,0,-0.336425781,-0.350397915,1,0,0,1.3113,button_left_main,-0.336425781,-0.350397915,1,0,0,,0,49,49,157,1,INLER,HB,old,z,./images/INLERHB.png,,,,,,,,,,,,,,,,,,,,,,,,,,,,,,,,,
,,,,,,,,,,,,,,,,,5fd59761251e25405b7671df,27,2022-02-12_16h46.33.638,lexical_decision_task_DD_L4,2021.2.3,Linux aarch64,60.18295619,,,,,,,,,,0.7659,1,,,,,,,,,,,,,,,0,-0.346923828,-0.352568054,1,0,0,0.7659,button_left_main,-0.346923828,-0.352568054,1,0,0,,0,50,50,113,1,LINEW,LB,old,z,./images/LINEWLB.png,,,,,,,,,,,,,,,,,,,,,,,,,,,,,,,,,
,,,,,,,,,,,,,,,,,5fd59761251e25405b7671df,27,2022-02-12_16h46.33.638,lexical_decision_task_DD_L4,2021.2.3,Linux aarch64,60.18295619,,,,,,,,,,0.7296,1,,,,,,,,,,,,,,,0,0.330810547,-0.327068922,1,0,0,0.7296,button_right_main,0.330810547,-0.327068922,1,0,0,,0,51,51,40,1,SNAKE,HB,old,m,./images/SNAKEHB.png,,,,,,,,,,,,,,,,,,,,,,,,,,,,,,,,,
,,,,,,,,,,,,,,,,,5fd59761251e25405b7671df,27,2022-02-12_16h46.33.638,lexical_decision_task_DD_L4,2021.2.3,Linux aarch64,60.18295619,,,,,,,,,,0.9967,1,,,,,,,,,,,,,,,0,0.380859375,-0.293974304,1,0,0,0.9967,button_right_main,0.380859375,-0.293974304,1,0,0,,0,52,52,49,1,BISHOP,HB,old,m,./images/BISHOPHB.png,,,,,,,,,,,,,,,,,,,,,,,,,,,,,,,,,
,,,,,,,,,,,,,,,,,5fd59761251e25405b7671df,27,2022-02-12_16h46.33.638,lexical_decision_task_DD_L4,2021.2.3,Linux aarch64,60.18295619,,,,,,,,,,0.7788,1,,,,,,,,,,,,,,,0,-0.334960938,-0.344972568,1,0,0,0.7788,button_left_main,-0.334960938,-0.344972568,1,0,0,,0,53,53,124,1,TUNCH,HB,old,z,./images/TUNCHHB.png,,,,,,,,,,,,,,,,,,,,,,,,,,,,,,,,,
,,,,,,,,,,,,,,,,,5fd59761251e25405b7671df,27,2022-02-12_16h46.33.638,lexical_decision_task_DD_L4,2021.2.3,Linux aarch64,60.18295619,,,,,,,,,,0.664,1,,,,,,,,,,,,,,,0,-0.33984375,-0.335749478,1,0,0,0.664,button_left_main,-0.33984375,-0.335749478,1,0,0,,0,54,54,108,1,GRUET,C,old,z,./images/GRUET.png,,,,,,,,,,,,,,,,,,,,,,,,,,,,,,,,,
,,,,,,,,,,,,,,,,,5fd59761251e25405b7671df,27,2022-02-12_16h46.33.638,lexical_decision_task_DD_L4,2021.2.3,Linux aarch64,60.18295619,,,,,,,,,,0.7431,1,,,,,,,,,,,,,,,0,0.358886719,-0.295601908,1,0,0,0.7431,button_right_main,0.358886719,-0.295601908,1,0,0,,0,55,55,13,1,BUNNY,HB,old,m,./images/BUNNYHB.png,,,,,,,,,,,,,,,,,,,,,,,,,,,,,,,,,
,,,,,,,,,,,,,,,,,5fd59761251e25405b7671df,27,2022-02-12_16h46.33.638,lexical_decision_task_DD_L4,2021.2.3,Linux aarch64,60.18295619,,,,,,,,,,0.6128,1,,,,,,,,,,,,,,,0,0.374023438,-0.269560242,1,0,0,0.6128,button_right_main,0.374023438,-0.269560242,1,0,0,,0,56,56,16,1,GRAPE,HB,old,m,./images/GRAPEHB.png,,,,,,,,,,,,,,,,,,,,,,,,,,,,,,,,,
,,,,,,,,,,,,,,,,,5fd59761251e25405b7671df,27,2022-02-12_16h46.33.638,lexical_decision_task_DD_L4,2021.2.3,Linux aarch64,60.18295619,,,,,,,,,,0.5309,1,,,,,,,,,,,,,,,0,-0.34375,-0.342259894,1,0,0,0.5309,button_left_main,-0.34375,-0.342259894,1,0,0,,0,57,57,167,1,ZONET,LB,old,z,./images/ZONETLB.png,,,,,,,,,,,,,,,,,,,,,,,,,,,,,,,,,
,,,,,,,,,,,,,,,,,5fd59761251e25405b7671df,27,2022-02-12_16h46.33.638,lexical_decision_task_DD_L4,2021.2.3,Linux aarch64,60.18295619,,,,,,,,,,0.5102,1,,,,,,,,,,,,,,,0,0.373291016,-0.274443054,1,0,0,0.5102,button_right_main,0.373291016,-0.274443054,1,0,0,,0,58,58,41,1,STREAM,LB,old,m,./images/STREAMLB.png,,,,,,,,,,,,,,,,,,,,,,,,,,,,,,,,,
,,,,,,,,,,,,,,,,,5fd59761251e25405b7671df,27,2022-02-12_16h46.33.638,lexical_decision_task_DD_L4,2021.2.3,Linux aarch64,60.18295619,,,,,,,,,,0.5467,1,,,,,,,,,,,,,,,0,0.372314453,-0.268475172,1,0,0,0.5467,button_right_main,0.372314453,-0.268475172,1,0,0,,0,59,59,11,1,MEDAL,LB,old,m,./images/MEDALLB.png,,,,,,,,,,,,,,,,,,,,,,,,,,,,,,,,,
,,,,,,,,,,,,,,,,,5fd59761251e25405b7671df,27,2022-02-12_16h46.33.638,lexical_decision_task_DD_L4,2021.2.3,Linux aarch64,60.18295619,,,,,,,,,,0.4793,1,,,,,,,,,,,,,,,0,0.376708984,-0.271730381,1,0,0,0.4793,button_right_main,0.376708984,-0.271730381,1,0,0,,0,60,60,26,1,CLOUD,LB,old,m,./images/CLOUDLB.png,,,,,,,,,,,,,,,,,,,,,,,,,,,,,,,,,
,,,,,,,,,,,,,,,,,5fd59761251e25405b7671df,27,2022-02-12_16h46.33.638,lexical_decision_task_DD_L4,2021.2.3,Linux aarch64,60.18295619,,,,,,,,,,0.5958,1,,,,,,,,,,,,,,,0,0.362060547,-0.280410936,1,0,0,0.5958,button_right_main,0.362060547,-0.280410936,1,0,0,,0,61,61,35,1,LLAMA,LB,old,m,./images/LLAMALB.png,,,,,,,,,,,,,,,,,,,,,,,,,,,,,,,,,
,,,,,,,,,,,,,,,,,5fd59761251e25405b7671df,27,2022-02-12_16h46.33.638,lexical_decision_task_DD_L4,2021.2.3,Linux aarch64,60.18295619,,,,,,,,,,0.5476,1,,,,,,,,,,,,,,,0,-0.345458984,-0.341174825,1,0,0,0.5476,button_left_main,-0.345458984,-0.341174825,1,0,0,,0,62,62,103,1,FLORT,HB,old,z,./images/FLORTHB.png,,,,,,,,,,,,,,,,,,,,,,,,,,,,,,,,,
,,,,,,,,,,,,,,,,,5fd59761251e25405b7671df,27,2022-02-12_16h46.33.638,lexical_decision_task_DD_L4,2021.2.3,Linux aarch64,60.18295619,,,,,,,,,,0.5083,1,,,,,,,,,,,,,,,0,-0.331054688,-0.335206943,1,0,0,0.5083,button_left_main,-0.331054688,-0.335206943,1,0,0,,0,63,63,86,1,AIFED,LB,old,z,./images/AIFEDLB.png,,,,,,,,,,,,,,,,,,,,,,,,,,,,,,,,,
,,,,,,,,,,,,,,,,,5fd59761251e25405b7671df,27,2022-02-12_16h46.33.638,lexical_decision_task_DD_L4,2021.2.3,Linux aarch64,60.18295619,,,,,,,,,,0.8134,1,,,,,,,,,,,,,,,0,-0.341552734,-0.326526388,1,0,0,0.8134,button_left_main,-0.341552734,-0.326526388,1,0,0,,0,64,64,119,1,PAFER,LB,old,z,./images/PAFERLB.png,,,,,,,,,,,,,,,,,,,,,,,,,,,,,,,,,
,,,,,,,,,,,,,,,,,5fd59761251e25405b7671df,27,2022-02-12_16h46.33.638,lexical_decision_task_DD_L4,2021.2.3,Linux aarch64,60.18295619,,,,,,,,,,0.5968,1,,,,,,,,,,,,,,,0,0.358398438,-0.293974304,1,0,0,0.5968,button_right_main,0.358398438,-0.293974304,1,0,0,,0,65,65,22,1,CLOWN,HB,old,m,./images/CLOWNHB.png,,,,,,,,,,,,,,,,,,,,,,,,,,,,,,,,,
,,,,,,,,,,,,,,,,,5fd59761251e25405b7671df,27,2022-02-12_16h46.33.638,lexical_decision_task_DD_L4,2021.2.3,Linux aarch64,60.18295619,,,,,,,,,,0.6453,1,,,,,,,,,,,,,,,0,-0.329101563,-0.330324131,1,0,0,0.6453,button_left_main,-0.329101563,-0.330324131,1,0,0,,0,66,66,112,1,MYING,HB,old,z,./images/MYINGHB.png,,,,,,,,,,,,,,,,,,,,,,,,,,,,,,,,,
,,,,,,,,,,,,,,,,,5fd59761251e25405b7671df,27,2022-02-12_16h46.33.638,lexical_decision_task_DD_L4,2021.2.3,Linux aarch64,60.18295619,,,,,,,,,,0.8787,1,,,,,,,,,,,,,,,0,-0.330810547,-0.326526388,1,0,0,0.8787,button_left_main,-0.330810547,-0.326526388,1,0,0,,0,67,67,94,1,BLANS,HB,old,z,./images/BLANSHB.png,,,,,,,,,,,,,,,,,,,,,,,,,,,,,,,,,
,,,,,,,,,,,,,,,,,5fd59761251e25405b7671df,27,2022-02-12_16h46.33.638,lexical_decision_task_DD_L4,2021.2.3,Linux aarch64,60.18295619,,,,,,,,,,0.5609,1,,,,,,,,,,,,,,,0,0.354492188,-0.280953471,1,0,0,0.5609,button_right_main,0.354492188,-0.280953471,1,0,0,,0,68,68,44,1,BASKET,LB,old,m,./images/BASKETLB.png,,,,,,,,,,,,,,,,,,,,,,,,,,,,,,,,,
,,,,,,,,,,,,,,,,,5fd59761251e25405b7671df,27,2022-02-12_16h46.33.638,lexical_decision_task_DD_L4,2021.2.3,Linux aarch64,60.18295619,,,,,,,,,,0.5634,1,,,,,,,,,,,,,,,0,0.347900391,-0.280410936,1,0,0,0.5634,button_right_main,0.347900391,-0.280410936,1,0,0,,0,69,69,70,1,BANANA,HB,old,m,./images/BANANAHB.png,,,,,,,,,,,,,,,,,,,,,,,,,,,,,,,,,
,,,,,,,,,,,,,,,,,5fd59761251e25405b7671df,27,2022-02-12_16h46.33.638,lexical_decision_task_DD_L4,2021.2.3,Linux aarch64,60.18295619,,,,,,,,,,0.9136,1,,,,,,,,,,,,,,,0,-0.317626953,-0.321643575,1,0,0,0.9136,button_left_main,-0.317626953,-0.321643575,1,0,0,,0,70,70,85,1,CHULK,HB,old,z,./images/CHULKHB.png,,,,,,,,,,,,,,,,,,,,,,,,,,,,,,,,,
,,,,,,,,,,,,,,,,,5fd59761251e25405b7671df,27,2022-02-12_16h46.33.638,lexical_decision_task_DD_L4,2021.2.3,Linux aarch64,60.18295619,,,,,,,,,,0.5349,1,,,,,,,,,,,,,,,0,0.337890625,-0.277155728,1,0,0,0.5349,button_right_main,0.337890625,-0.277155728,1,0,0,,0,71,71,66,1,STATUE,C,old,m,./images/STATUE.png,,,,,,,,,,,,,,,,,,,,,,,,,,,,,,,,,
,,,,,,,,,,,,,,,,,5fd59761251e25405b7671df,27,2022-02-12_16h46.33.638,lexical_decision_task_DD_L4,2021.2.3,Linux aarch64,60.18295619,,,,,,,,,,0.6146,1,,,,,,,,,,,,,,,0,-0.318115234,-0.326526388,1,0,0,0.6146,button_left_main,-0.318115234,-0.326526388,1,0,0,,0,72,72,125,1,MOOKY,LB,old,z,./images/MOOKYLB.png,,,,,,,,,,,,,,,,,,,,,,,,,,,,,,,,,
,,,,,,,,,,,,,,,,,5fd59761251e25405b7671df,27,2022-02-12_16h46.33.638,lexical_decision_task_DD_L4,2021.2.3,Linux aarch64,60.18295619,,,,,,,,,,0.5113,1,,,,,,,,,,,,,,,0,-0.320068359,-0.320558506,1,0,0,0.5113,button_left_main,-0.320068359,-0.320558506,1,0,0,,0,73,73,128,1,GRIFT,LB,old,z,./images/GRIFTLB.png,,,,,,,,,,,,,,,,,,,,,,,,,,,,,,,,,
,,,,,,,,,,,,,,,,,5fd59761251e25405b7671df,27,2022-02-12_16h46.33.638,lexical_decision_task_DD_L4,2021.2.3,Linux aarch64,60.18295619,,,,,,,,,,0.6624,0,,,,,,,,,,,,,,,0,-0.318603516,-0.32110104,1,0,0,0.6624,button_left_main,-0.318603516,-0.32110104,1,0,0,,0,74,74,7,1,WAGON,HB,old,m,./images/WAGONHB.png,,,,,,,,,,,,,,,,,,,,,,,,,,,,,,,,,
,,,,,,,,,,,,,,,,,5fd59761251e25405b7671df,27,2022-02-12_16h46.33.638,lexical_decision_task_DD_L4,2021.2.3,Linux aarch64,60.18295619,,,,,,,,,,0.5827,1,,,,,,,,,,,,,,,0,0.34375,-0.284208679,1,0,0,0.5827,button_right_main,0.34375,-0.284208679,1,0,0,,0,75,75,29,1,PISTOL,LB,old,m,./images/PISTOLLB.png,,,,,,,,,,,,,,,,,,,,,,,,,,,,,,,,,
,,,,,,,,,,,,,,,,,5fd59761251e25405b7671df,27,2022-02-12_16h46.33.638,lexical_decision_task_DD_L4,2021.2.3,Linux aarch64,60.18295619,,,,,,,,,,1.0468,1,,,,,,,,,,,,,,,0,-0.309814453,-0.319473436,1,0,0,1.0468,button_left_main,-0.309814453,-0.319473436,1,0,0,,0,76,76,127,1,NINDY,HB,old,z,./images/NINDYHB.png,,,,,,,,,,,,,,,,,,,,,,,,,,,,,,,,,
,,,,,,,,,,,,,,,,,5fd59761251e25405b7671df,27,2022-02-12_16h46.33.638,lexical_decision_task_DD_L4,2021.2.3,Linux aarch64,60.18295619,,,,,,,,,,0.7125,1,,,,,,,,,,,,,,,0,-0.313476563,-0.314590624,1,0,0,0.7125,button_left_main,-0.313476563,-0.314590624,1,0,0,,0,77,77,155,1,CANGY,LB,old,z,./images/CANGYLB.png,,,,,,,,,,,,,,,,,,,,,,,,,,,,,,,,,
,,,,,,,,,,,,,,,,,5fd59761251e25405b7671df,27,2022-02-12_16h46.33.638,lexical_decision_task_DD_L4,2021.2.3,Linux aarch64,60.18295619,,,,,,,,,,0.6481,0,,,,,,,,,,,,,,,0,0.358398438,-0.285836283,1,0,0,0.6481,button_right_main,0.358398438,-0.285836283,1,0,0,,0,78,78,166,1,SHORY,HB,old,z,./images/SHORYHB.png,,,,,,,,,,,,,,,,,,,,,,,,,,,,,,,,,
,,,,,,,,,,,,,,,,,5fd59761251e25405b7671df,27,2022-02-12_16h46.33.638,lexical_decision_task_DD_L4,2021.2.3,Linux aarch64,60.18295619,,,,,,,,,,0.9284,1,,,,,,,,,,,,,,,0,0.348144531,-0.277698263,1,0,0,0.9284,button_right_main,0.348144531,-0.277698263,1,0,0,,0,79,79,63,1,BAKER,C,old,m,./images/BAKER.png,,,,,,,,,,,,,,,,,,,,,,,,,,,,,,,,,
,,,,,,,,,,,,,,,,,5fd59761251e25405b7671df,27,2022-02-12_16h46.33.638,lexical_decision_task_DD_L4,2021.2.3,Linux aarch64,60.18295619,,,,,,,,,,0.8789,0,,,,,,,,,,,,,,,0,0.344238281,-0.263049825,1,0,0,0.8789,button_right_main,0.344238281,-0.263049825,1,0,0,,0,80,80,140,1,DOVET,LB,old,z,./images/DOVETLB.png,,,,,,,,,,,,,,,,,,,,,,,,,,,,,,,,,
,,,,,,,,,,,,,,,,,5fd59761251e25405b7671df,27,2022-02-12_16h46.33.638,lexical_decision_task_DD_L4,2021.2.3,Linux aarch64,60.18295619,,,,,,,,,,0.7169,1,,,,,,,,,,,,,,,0,-0.311767578,-0.316218228,1,0,0,0.7169,button_left_main,-0.311767578,-0.316218228,1,0,0,,0,81,81,132,1,SCIFF,C,old,z,./images/SCIFF.png,,,,,,,,,,,,,,,,,,,,,,,,,,,,,,,,,
,,,,,,,,,,,,,,,,,5fd59761251e25405b7671df,27,2022-02-12_16h46.33.638,lexical_decision_task_DD_L4,2021.2.3,Linux aarch64,60.18295619,,,,,,,,,,1.1618,1,,,,,,,,,,,,,,,0,-0.299316406,-0.308622742,1,0,0,1.1618,button_left_main,-0.299316406,-0.308622742,1,0,0,,0,82,82,116,1,BALGY,LB,old,z,./images/BALGYLB.png,,,,,,,,,,,,,,,,,,,,,,,,,,,,,,,,,
,,,,,,,,,,,,,,,,,5fd59761251e25405b7671df,27,2022-02-12_16h46.33.638,lexical_decision_task_DD_L4,2021.2.3,Linux aarch64,60.18295619,,,,,,,,,,0.8958,1,,,,,,,,,,,,,,,0,-0.306152344,-0.306995138,1,0,0,0.8958,button_left_main,0.086914063,-0.408991665,1,0,0,,0,83,83,160,1,VEETS,HB,old,z,./images/VEETSHB.png,break_done_button,,,,,,,,,,,,,,,,,,,,,,,,,,,,,,,,
,,,,,,,,,,,,,,,,,5fd59761251e25405b7671df,27,2022-02-12_16h46.33.638,lexical_decision_task_DD_L4,2021.2.3,Linux aarch64,60.18295619,,,,,,,,,,0.6936,1,,,,,,,,,,,,,,,0,-0.329833984,-0.374269443,1,0,0,0.6936,button_left_main,-0.329833984,-0.374269443,1,0,0,,0,84,84,158,1,EGECT,LB,old,z,./images/EGECTLB.png,,,,,,,,,,,,,,,,,,,,,,,,,,,,,,,,,
,,,,,,,,,,,,,,,,,5fd59761251e25405b7671df,27,2022-02-12_16h46.33.638,lexical_decision_task_DD_L4,2021.2.3,Linux aarch64,60.18295619,,,,,,,,,,0.5154,1,,,,,,,,,,,,,,,0,0.375976563,-0.297229513,1,0,0,0.5154,button_right_main,0.375976563,-0.297229513,1,0,0,,0,85,85,62,1,MAMMAL,LB,old,m,./images/MAMMALLB.png,,,,,,,,,,,,,,,,,,,,,,,,,,,,,,,,,
,,,,,,,,,,,,,,,,,5fd59761251e25405b7671df,27,2022-02-12_16h46.33.638,lexical_decision_task_DD_L4,2021.2.3,Linux aarch64,60.18295619,,,,,,,,,,0.5026,1,,,,,,,,,,,,,,,0,0.384521484,-0.271187846,1,0,0,0.5026,button_right_main,0.384521484,-0.271187846,1,0,0,,0,86,86,15,1,COLLAR,C,old,m,./images/COLLAR.png,,,,,,,,,,,,,,,,,,,,,,,,,,,,,,,,,
,,,,,,,,,,,,,,,,,5fd59761251e25405b7671df,27,2022-02-12_16h46.33.638,lexical_decision_task_DD_L4,2021.2.3,Linux aarch64,60.18295619,,,,,,,,,,0.5956,0,,,,,,,,,,,,,,,0,-0.313476563,-0.36016354,1,0,0,0.5956,button_left_main,-0.313476563,-0.36016354,1,0,0,,0,87,87,55,1,ALLEY,HB,old,m,./images/ALLEYHB.png,,,,,,,,,,,,,,,,,,,,,,,,,,,,,,,,,
,,,,,,,,,,,,,,,,,5fd59761251e25405b7671df,27,2022-02-12_16h46.33.638,lexical_decision_task_DD_L4,2021.2.3,Linux aarch64,60.18295619,,,,,,,,,,0.9936,1,,,,,,,,,,,,,,,0,0.312744141,-0.320558506,1,0,0,0.9936,button_right_main,0.312744141,-0.320558506,1,0,0,,0,88,88,31,1,STEAK,HB,old,m,./images/STEAKHB.png,,,,,,,,,,,,,,,,,,,,,,,,,,,,,,,,,
,,,,,,,,,,,,,,,,,5fd59761251e25405b7671df,27,2022-02-12_16h46.33.638,lexical_decision_task_DD_L4,2021.2.3,Linux aarch64,60.18295619,,,,,,,,,,0.6137,1,,,,,,,,,,,,,,,0,-0.302490234,-0.361791144,1,0,0,0.6137,button_left_main,-0.302490234,-0.361791144,1,0,0,,0,89,89,153,1,CLUPS,C,old,z,./images/CLUPS.png,,,,,,,,,,,,,,,,,,,,,,,,,,,,,,,,,
,,,,,,,,,,,,,,,,,5fd59761251e25405b7671df,27,2022-02-12_16h46.33.638,lexical_decision_task_DD_L4,2021.2.3,Linux aarch64,60.18295619,,,,,,,,,,0.9127,1,,,,,,,,,,,,,,,0,-0.377441406,-0.355823263,1,0,0,0.9127,button_left_main,-0.377441406,-0.355823263,1,0,0,,0,90,90,137,1,JOOST,LB,old,z,./images/JOOSTLB.png,,,,,,,,,,,,,,,,,,,,,,,,,,,,,,,,,
,,,,,,,,,,,,,,,,,5fd59761251e25405b7671df,27,2022-02-12_16h46.33.638,lexical_decision_task_DD_L4,2021.2.3,Linux aarch64,60.18295619,,,,,,,,,,0.998,1,,,,,,,,,,,,,,,0,0.334716797,-0.324898783,1,0,0,0.998,button_right_main,0.334716797,-0.324898783,1,0,0,,0,91,91,69,1,ARROW,C,old,m,./images/ARROW.png,,,,,,,,,,,,,,,,,,,,,,,,,,,,,,,,,
,,,,,,,,,,,,,,,,,5fd59761251e25405b7671df,27,2022-02-12_16h46.33.638,lexical_decision_task_DD_L4,2021.2.3,Linux aarch64,60.18295619,,,,,,,,,,1.0621,1,,,,,,,,,,,,,,,0,0.347412109,-0.316760763,1,0,0,1.0621,button_right_main,0.347412109,-0.316760763,1,0,0,,0,92,92,79,1,RULER,HB,old,m,./images/RULERHB.png,,,,,,,,,,,,,,,,,,,,,,,,,,,,,,,,,
,,,,,,,,,,,,,,,,,5fd59761251e25405b7671df,27,2022-02-12_16h46.33.638,lexical_decision_task_DD_L4,2021.2.3,Linux aarch64,60.18295619,,,,,,,,,,0.5965,1,,,,,,,,,,,,,,,0,-0.309082031,-0.395970832,1,0,0,0.5965,button_left_main,-0.309082031,-0.395970832,1,0,0,,0,93,93,90,1,NEAST,C,old,z,./images/NEAST.png,,,,,,,,,,,,,,,,,,,,,,,,,,,,,,,,,
,,,,,,,,,,,,,,,,,5fd59761251e25405b7671df,27,2022-02-12_16h46.33.638,lexical_decision_task_DD_L4,2021.2.3,Linux aarch64,60.18295619,,,,,,,,,,1.0121,1,,,,,,,,,,,,,,,0,-0.310791016,-0.372099304,1,0,0,1.0121,button_left_main,-0.310791016,-0.372099304,1,0,0,,0,94,94,118,1,BAVEL,HB,old,z,./images/BAVELHB.png,,,,,,,,,,,,,,,,,,,,,,,,,,,,,,,,,
,,,,,,,,,,,,,,,,,5fd59761251e25405b7671df,27,2022-02-12_16h46.33.638,lexical_decision_task_DD_L4,2021.2.3,Linux aarch64,60.18295619,,,,,,,,,,1.1126,1,,,,,,,,,,,,,,,0,-0.306152344,-0.367216492,1,0,0,1.1126,button_left_main,-0.306152344,-0.367216492,1,0,0,,0,95,95,120,1,RINED,C,old,z,./images/RINED.png,,,,,,,,,,,,,,,,,,,,,,,,,,,,,,,,,
,,,,,,,,,,,,,,,,,5fd59761251e25405b7671df,27,2022-02-12_16h46.33.638,lexical_decision_task_DD_L4,2021.2.3,Linux aarch64,60.18295619,,,,,,,,,,0.5639,0,,,,,,,,,,,,,,,0,0.328369141,-0.303739929,1,0,0,0.5639,button_right_main,0.328369141,-0.303739929,1,0,0,,0,96,96,138,1,PLICE,C,old,z,./images/PLICE.png,,,,,,,,,,,,,,,,,,,,,,,,,,,,,,,,,
,,,,,,,,,,,,,,,,,5fd59761251e25405b7671df,27,2022-02-12_16h46.33.638,lexical_decision_task_DD_L4,2021.2.3,Linux aarch64,60.18295619,,,,,,,,,,0.7114,1,,,,,,,,,,,,,,,0,0.333496094,-0.288548957,1,0,0,0.7114,button_right_main,0.333496094,-0.288548957,1,0,0,,0,97,97,52,1,DESERT,HB,old,m,./images/DESERTHB.png,,,,,,,,,,,,,,,,,,,,,,,,,,,,,,,,,
,,,,,,,,,,,,,,,,,5fd59761251e25405b7671df,27,2022-02-12_16h46.33.638,lexical_decision_task_DD_L4,2021.2.3,Linux aarch64,60.18295619,,,,,,,,,,0.5322,1,,,,,,,,,,,,,,,0,0.333007813,-0.281496006,1,0,0,0.5322,button_right_main,0.333007813,-0.281496006,1,0,0,,0,98,98,45,1,MONKEY,C,old,m,./images/MONKEY.png,,,,,,,,,,,,,,,,,,,,,,,,,,,,,,,,,
,,,,,,,,,,,,,,,,,5fd59761251e25405b7671df,27,2022-02-12_16h46.33.638,lexical_decision_task_DD_L4,2021.2.3,Linux aarch64,60.18295619,,,,,,,,,,0.616,1,,,,,,,,,,,,,,,0,0.347900391,-0.274443054,1,0,0,0.616,button_right_main,0.347900391,-0.274443054,1,0,0,,0,99,99,80,1,PLANET,LB,old,m,./images/PLANETLB.png,,,,,,,,,,,,,,,,,,,,,,,,,,,,,,,,,
,,,,,,,,,,,,,,,,,5fd59761251e25405b7671df,27,2022-02-12_16h46.33.638,lexical_decision_task_DD_L4,2021.2.3,Linux aarch64,60.18295619,,,,,,,,,,0.6615,1,,,,,,,,,,,,,,,0,0.349853516,-0.277155728,1,0,0,0.6615,button_right_main,0.349853516,-0.277155728,1,0,0,,0,100,100,33,1,SAUNA,C,old,m,./images/SAUNA.png,,,,,,,,,,,,,,,,,,,,,,,,,,,,,,,,,
,,,,,,,,,,,,,,,,,5fd59761251e25405b7671df,27,2022-02-12_16h46.33.638,lexical_decision_task_DD_L4,2021.2.3,Linux aarch64,60.18295619,,,,,,,,,,0.6623,1,,,,,,,,,,,,,,,0,0.347900391,-0.274985589,1,0,0,0.6623,button_right_main,0.347900391,-0.274985589,1,0,0,,0,101,101,59,1,BRUSH,LB,old,m,./images/BRUSHLB.png,,,,,,,,,,,,,,,,,,,,,,,,,,,,,,,,,
,,,,,,,,,,,,,,,,,5fd59761251e25405b7671df,27,2022-02-12_16h46.33.638,lexical_decision_task_DD_L4,2021.2.3,Linux aarch64,60.18295619,,,,,,,,,,1.0455,1,,,,,,,,,,,,,,,0,-0.309814453,-0.334121874,1,0,0,1.0455,button_left_main,-0.309814453,-0.334121874,1,0,0,,0,102,102,106,1,CLUMS,HB,old,z,./images/CLUMSHB.png,,,,,,,,,,,,,,,,,,,,,,,,,,,,,,,,,
,,,,,,,,,,,,,,,,,5fd59761251e25405b7671df,27,2022-02-12_16h46.33.638,lexical_decision_task_DD_L4,2021.2.3,Linux aarch64,60.18295619,,,,,,,,,,0.714,1,,,,,,,,,,,,,,,0,-0.286865234,-0.319473436,1,0,0,0.714,button_left_main,-0.286865234,-0.319473436,1,0,0,,0,103,103,150,1,NOOLS,C,old,z,./images/NOOLS.png,,,,,,,,,,,,,,,,,,,,,,,,,,,,,,,,,
,,,,,,,,,,,,,,,,,5fd59761251e25405b7671df,27,2022-02-12_16h46.33.638,lexical_decision_task_DD_L4,2021.2.3,Linux aarch64,60.18295619,,,,,,,,,,0.8614,1,,,,,,,,,,,,,,,0,0.33203125,-0.26359236,1,0,0,0.8614,button_right_main,0.33203125,-0.26359236,1,0,0,,0,104,104,60,1,CURRY,C,old,m,./images/CURRY.png,,,,,,,,,,,,,,,,,,,,,,,,,,,,,,,,,
,,,,,,,,,,,,,,,,,5fd59761251e25405b7671df,27,2022-02-12_16h46.33.638,lexical_decision_task_DD_L4,2021.2.3,Linux aarch64,60.18295619,,,,,,,,,,0.5962,1,,,,,,,,,,,,,,,0,0.324707031,-0.300484721,1,0,0,0.5962,button_right_main,0.324707031,-0.300484721,1,0,0,,0,105,105,81,1,DRILL,C,old,m,./images/DRILL.png,,,,,,,,,,,,,,,,,,,,,,,,,,,,,,,,,
,,,,,,,,,,,,,,,,,5fd59761251e25405b7671df,27,2022-02-12_16h46.33.638,lexical_decision_task_DD_L4,2021.2.3,Linux aarch64,60.18295619,,,,,,,,,,0.4789,1,,,,,,,,,,,,,,,0,0.331054688,-0.279868401,1,0,0,0.4789,button_right_main,0.331054688,-0.279868401,1,0,0,,0,106,106,75,1,HAMMER,C,old,m,./images/HAMMER.png,,,,,,,,,,,,,,,,,,,,,,,,,,,,,,,,,
,,,,,,,,,,,,,,,,,5fd59761251e25405b7671df,27,2022-02-12_16h46.33.638,lexical_decision_task_DD_L4,2021.2.3,Linux aarch64,60.18295619,,,,,,,,,,0.8616,1,,,,,,,,,,,,,,,0,0.327880859,-0.271730381,1,0,0,0.8616,button_right_main,0.327880859,-0.271730381,1,0,0,,0,107,107,68,1,VALLEY,LB,old,m,./images/VALLEYLB.png,,,,,,,,,,,,,,,,,,,,,,,,,,,,,,,,,
,,,,,,,,,,,,,,,,,5fd59761251e25405b7671df,27,2022-02-12_16h46.33.638,lexical_decision_task_DD_L4,2021.2.3,Linux aarch64,60.18295619,,,,,,,,,,0.5955,1,,,,,,,,,,,,,,,0,0.332763672,-0.274985589,1,0,0,0.5955,button_right_main,0.332763672,-0.274985589,1,0,0,,0,108,108,65,1,SPINE,LB,old,m,./images/SPINELB.png,,,,,,,,,,,,,,,,,,,,,,,,,,,,,,,,,
,,,,,,,,,,,,,,,,,5fd59761251e25405b7671df,27,2022-02-12_16h46.33.638,lexical_decision_task_DD_L4,2021.2.3,Linux aarch64,60.18295619,,,,,,,,,,0.7123,1,,,,,,,,,,,,,,,0,-0.308105469,-0.320558506,1,0,0,0.7123,button_left_main,-0.308105469,-0.320558506,1,0,0,,0,109,109,92,1,PAIMS,LB,old,z,./images/PAIMSLB.png,,,,,,,,,,,,,,,,,,,,,,,,,,,,,,,,,
,,,,,,,,,,,,,,,,,5fd59761251e25405b7671df,27,2022-02-12_16h46.33.638,lexical_decision_task_DD_L4,2021.2.3,Linux aarch64,60.18295619,,,,,,,,,,0.4967,0,,,,,,,,,,,,,,,0,0.33203125,-0.271730381,1,0,0,0.4967,button_right_main,0.33203125,-0.271730381,1,0,0,,0,110,110,144,1,NAIRY,C,old,z,./images/NAIRY.png,,,,,,,,,,,,,,,,,,,,,,,,,,,,,,,,,
,,,,,,,,,,,,,,,,,5fd59761251e25405b7671df,27,2022-02-12_16h46.33.638,lexical_decision_task_DD_L4,2021.2.3,Linux aarch64,60.18295619,,,,,,,,,,1.1635,1,,,,,,,,,,,,,,,0,-0.307128906,-0.321643575,1,0,0,1.1635,button_left_main,-0.307128906,-0.321643575,1,0,0,,0,111,111,142,1,PLASK,HB,old,z,./images/PLASKHB.png,,,,,,,,,,,,,,,,,,,,,,,,,,,,,,,,,
,,,,,,,,,,,,,,,,,5fd59761251e25405b7671df,27,2022-02-12_16h46.33.638,lexical_decision_task_DD_L4,2021.2.3,Linux aarch64,60.18295619,,,,,,,,,,0.646,1,,,,,,,,,,,,,,,0,0.337158203,-0.276070658,1,0,0,0.646,button_right_main,0.337158203,-0.276070658,1,0,0,,0,112,112,38,1,ENGINE,LB,old,m,./images/ENGINELB.png,,,,,,,,,,,,,,,,,,,,,,,,,,,,,,,,,
,,,,,,,,,,,,,,,,,5fd59761251e25405b7671df,27,2022-02-12_16h46.33.638,lexical_decision_task_DD_L4,2021.2.3,Linux aarch64,60.18295619,,,,,,,,,,0.6964,1,,,,,,,,,,,,,,,0,-0.307617188,-0.323813714,1,0,0,0.6964,button_left_main,-0.307617188,-0.323813714,1,0,0,,0,113,113,104,1,GITTY,LB,old,z,./images/GITTYLB.png,,,,,,,,,,,,,,,,,,,,,,,,,,,,,,,,,
,,,,,,,,,,,,,,,,,5fd59761251e25405b7671df,27,2022-02-12_16h46.33.638,lexical_decision_task_DD_L4,2021.2.3,Linux aarch64,60.18295619,,,,,,,,,,0.7468,1,,,,,,,,,,,,,,,0,0.336669922,-0.276070658,1,0,0,0.7468,button_right_main,0.336669922,-0.276070658,1,0,0,,0,114,114,64,1,BRIDE,HB,old,m,./images/BRIDEHB.png,,,,,,,,,,,,,,,,,,,,,,,,,,,,,,,,,
,,,,,,,,,,,,,,,,,5fd59761251e25405b7671df,27,2022-02-12_16h46.33.638,lexical_decision_task_DD_L4,2021.2.3,Linux aarch64,60.18295619,,,,,,,,,,0.5964,1,,,,,,,,,,,,,,,0,-0.291259766,-0.327611457,1,0,0,0.5964,button_left_main,-0.291259766,-0.327611457,1,0,0,,0,115,115,129,1,PRANS,C,old,z,./images/PRANS.png,,,,,,,,,,,,,,,,,,,,,,,,,,,,,,,,,
,,,,,,,,,,,,,,,,,5fd59761251e25405b7671df,27,2022-02-12_16h46.33.638,lexical_decision_task_DD_L4,2021.2.3,Linux aarch64,60.18295619,,,,,,,,,,1.1569,1,,,,,,,,,,,,,,,0,-0.291992188,-0.319473436,1,0,0,1.1569,button_left_main,-0.291992188,-0.319473436,1,0,0,,0,116,116,154,1,THINT,HB,old,z,./images/THINTHB.png,,,,,,,,,,,,,,,,,,,,,,,,,,,,,,,,,
,,,,,,,,,,,,,,,,,5fd59761251e25405b7671df,27,2022-02-12_16h46.33.638,lexical_decision_task_DD_L4,2021.2.3,Linux aarch64,60.18295619,,,,,,,,,,0.6143,1,,,,,,,,,,,,,,,0,0.344482422,-0.261964756,1,0,0,0.6143,button_right_main,0.344482422,-0.261964756,1,0,0,,0,117,117,8,1,CLIFF,LB,old,m,./images/CLIFFLB.png,,,,,,,,,,,,,,,,,,,,,,,,,,,,,,,,,
,,,,,,,,,,,,,,,,,5fd59761251e25405b7671df,27,2022-02-12_16h46.33.638,lexical_decision_task_DD_L4,2021.2.3,Linux aarch64,60.18295619,,,,,,,,,,0.5791,1,,,,,,,,,,,,,,,0,-0.314208984,-0.327068922,1,0,0,0.5791,button_left_main,-0.314208984,-0.327068922,1,0,0,,0,118,118,89,1,DRIEK,LB,old,z,./images/DRIEKLB.png,,,,,,,,,,,,,,,,,,,,,,,,,,,,,,,,,
,,,,,,,,,,,,,,,,,5fd59761251e25405b7671df,27,2022-02-12_16h46.33.638,lexical_decision_task_DD_L4,2021.2.3,Linux aarch64,60.18295619,,,,,,,,,,0.5125,1,,,,,,,,,,,,,,,0,0.331054688,-0.274443054,1,0,0,0.5125,button_right_main,0.331054688,-0.274443054,1,0,0,,0,119,119,54,1,CHERRY,C,old,m,./images/CHERRY.png,,,,,,,,,,,,,,,,,,,,,,,,,,,,,,,,,
,,,,,,,,,,,,,,,,,5fd59761251e25405b7671df,27,2022-02-12_16h46.33.638,lexical_decision_task_DD_L4,2021.2.3,Linux aarch64,60.18295619,,,,,,,,,,1.0124,1,,,,,,,,,,,,,,,0,0.332275391,-0.288006422,1,0,0,1.0124,button_right_main,0.332275391,-0.288006422,1,0,0,,0,120,120,82,1,PEBBLE,HB,old,m,./images/PEBBLEHB.png,,,,,,,,,,,,,,,,,,,,,,,,,,,,,,,,,
,,,,,,,,,,,,,,,,,5fd59761251e25405b7671df,27,2022-02-12_16h46.33.638,lexical_decision_task_DD_L4,2021.2.3,Linux aarch64,60.18295619,,,,,,,,,,0.9622,1,,,,,,,,,,,,,,,0,-0.304931641,-0.3314092,1,0,0,0.9622,button_left_main,-0.304931641,-0.3314092,1,0,0,,0,121,121,145,1,LAMEL,HB,old,z,./images/LAMELHB.png,,,,,,,,,,,,,,,,,,,,,,,,,,,,,,,,,
,,,,,,,,,,,,,,,,,5fd59761251e25405b7671df,27,2022-02-12_16h46.33.638,lexical_decision_task_DD_L4,2021.2.3,Linux aarch64,60.18295619,,,,,,,,,,0.5951,1,,,,,,,,,,,,,,,0,-0.303955078,-0.323813714,1,0,0,0.5951,button_left_main,-0.303955078,-0.323813714,1,0,0,,0,122,122,135,1,JOODY,C,old,z,./images/JOODY.png,,,,,,,,,,,,,,,,,,,,,,,,,,,,,,,,,
,,,,,,,,,,,,,,,,,5fd59761251e25405b7671df,27,2022-02-12_16h46.33.638,lexical_decision_task_DD_L4,2021.2.3,Linux aarch64,60.18295619,,,,,,,,,,0.5137,0,,,,,,,,,,,,,,,0,-0.289306641,-0.323271179,1,0,0,0.5137,button_left_main,-0.289306641,-0.323271179,1,0,0,,0,123,123,57,1,FERRY,C,old,m,./images/FERRY.png,,,,,,,,,,,,,,,,,,,,,,,,,,,,,,,,,
,,,,,,,,,,,,,,,,,5fd59761251e25405b7671df,27,2022-02-12_16h46.33.638,lexical_decision_task_DD_L4,2021.2.3,Linux aarch64,60.18295619,,,,,,,,,,0.5338,1,,,,,,,,,,,,,,,0,0.321533203,-0.283666144,1,0,0,0.5338,button_right_main,0.321533203,-0.283666144,1,0,0,,0,124,124,9,1,DIVER,C,old,m,./images/DIVER.png,,,,,,,,,,,,,,,,,,,,,,,,,,,,,,,,,
,,,,,,,,,,,,,,,,,5fd59761251e25405b7671df,27,2022-02-12_16h46.33.638,lexical_decision_task_DD_L4,2021.2.3,Linux aarch64,60.18295619,,,,,,,,,,0.6619,1,,,,,,,,,,,,,,,0,0.327392578,-0.282581075,1,0,0,0.6619,button_right_main,0.132324219,-0.406821526,1,0,0,,0,125,125,53,1,POSTER,LB,old,m,./images/POSTERLB.png,break_done_button,,,,,,,,,,,,,,,,,,,,,,,,,,,,,,,,
,,,,,,,,,,,,,,,,,5fd59761251e25405b7671df,27,2022-02-12_16h46.33.638,lexical_decision_task_DD_L4,2021.2.3,Linux aarch64,60.18295619,,,,,,,,,,0.8809,1,,,,,,,,,,,,,,,0,-0.329101563,-0.392173089,1,0,0,0.8809,button_left_main,-0.329101563,-0.392173089,1,0,0,,0,126,126,164,1,SGREW,LB,old,z,./images/SGREWLB.png,,,,,,,,,,,,,,,,,,,,,,,,,,,,,,,,,
,,,,,,,,,,,,,,,,,5fd59761251e25405b7671df,27,2022-02-12_16h46.33.638,lexical_decision_task_DD_L4,2021.2.3,Linux aarch64,60.18295619,,,,,,,,,,0.6127,1,,,,,,,,,,,,,,,0,0.427001953,-0.289634026,1,0,0,0.6127,button_right_main,0.427001953,-0.289634026,1,0,0,,0,127,127,30,1,SLOPE,C,old,m,./images/SLOPE.png,,,,,,,,,,,,,,,,,,,,,,,,,,,,,,,,,
,,,,,,,,,,,,,,,,,5fd59761251e25405b7671df,27,2022-02-12_16h46.33.638,lexical_decision_task_DD_L4,2021.2.3,Linux aarch64,60.18295619,,,,,,,,,,0.5175,1,,,,,,,,,,,,,,,0,-0.33203125,-0.391630554,1,0,0,0.5175,button_left_main,-0.33203125,-0.391630554,1,0,0,,0,128,128,93,1,SMONE,C,old,z,./images/SMONE.png,,,,,,,,,,,,,,,,,,,,,,,,,,,,,,,,,
,,,,,,,,,,,,,,,,,5fd59761251e25405b7671df,27,2022-02-12_16h46.33.638,lexical_decision_task_DD_L4,2021.2.3,Linux aarch64,60.18295619,,,,,,,,,,0.6798,1,,,,,,,,,,,,,,,0,0.404541016,-0.303739929,1,0,0,0.6798,button_right_main,0.404541016,-0.303739929,1,0,0,,0,129,129,1,1,TOWEL,HB,old,m,./images/TOWELHB.png,,,,,,,,,,,,,,,,,,,,,,,,,,,,,,,,,
,,,,,,,,,,,,,,,,,5fd59761251e25405b7671df,27,2022-02-12_16h46.33.638,lexical_decision_task_DD_L4,2021.2.3,Linux aarch64,60.18295619,,,,,,,,,,0.7621,1,,,,,,,,,,,,,,,0,-0.328613281,-0.390545485,1,0,0,0.7621,button_left_main,-0.328613281,-0.390545485,1,0,0,,0,130,130,152,1,FRAIN,LB,old,z,./images/FRAINLB.png,,,,,,,,,,,,,,,,,,,,,,,,,,,,,,,,,
,,,,,,,,,,,,,,,,,5fd59761251e25405b7671df,27,2022-02-12_16h46.33.638,lexical_decision_task_DD_L4,2021.2.3,Linux aarch64,60.18295619,,,,,,,,,,0.6642,0,,,,,,,,,,,,,,,0,-0.319335938,-0.389460415,1,0,0,0.6642,button_left_main,-0.319335938,-0.389460415,1,0,0,,0,131,131,78,1,BROOM,C,old,m,./images/BROOM.png,,,,,,,,,,,,,,,,,,,,,,,,,,,,,,,,,
,,,,,,,,,,,,,,,,,5fd59761251e25405b7671df,27,2022-02-12_16h46.33.638,lexical_decision_task_DD_L4,2021.2.3,Linux aarch64,60.18295619,,,,,,,,,,0.6634,1,,,,,,,,,,,,,,,0,0.379638672,-0.297229513,1,0,0,0.6634,button_right_main,0.379638672,-0.297229513,1,0,0,,0,132,132,56,1,HEATER,LB,old,m,./images/HEATERLB.png,,,,,,,,,,,,,,,,,,,,,,,,,,,,,,,,,
,,,,,,,,,,,,,,,,,5fd59761251e25405b7671df,27,2022-02-12_16h46.33.638,lexical_decision_task_DD_L4,2021.2.3,Linux aarch64,60.18295619,,,,,,,,,,0.7458,1,,,,,,,,,,,,,,,0,0.386962891,-0.304282464,1,0,0,0.7458,button_right_main,0.386962891,-0.304282464,1,0,0,,0,133,133,25,1,CHALK,HB,old,m,./images/CHALKHB.png,,,,,,,,,,,,,,,,,,,,,,,,,,,,,,,,,
,,,,,,,,,,,,,,,,,5fd59761251e25405b7671df,27,2022-02-12_16h46.33.638,lexical_decision_task_DD_L4,2021.2.3,Linux aarch64,60.18295619,,,,,,,,,,0.6456,1,,,,,,,,,,,,,,,0,-0.332275391,-0.373726908,1,0,0,0.6456,button_left_main,-0.332275391,-0.373726908,1,0,0,,0,134,134,146,1,MOOST,LB,old,z,./images/MOOSTLB.png,,,,,,,,,,,,,,,,,,,,,,,,,,,,,,,,,
,,,,,,,,,,,,,,,,,5fd59761251e25405b7671df,27,2022-02-12_16h46.33.638,lexical_decision_task_DD_L4,2021.2.3,Linux aarch64,60.18295619,,,,,,,,,,0.5653,1,,,,,,,,,,,,,,,0,0.389892578,-0.280410936,1,0,0,0.5653,button_right_main,0.389892578,-0.280410936,1,0,0,,0,135,135,47,1,LAGOON,LB,old,m,./images/LAGOONLB.png,,,,,,,,,,,,,,,,,,,,,,,,,,,,,,,,,
,,,,,,,,,,,,,,,,,5fd59761251e25405b7671df,27,2022-02-12_16h46.33.638,lexical_decision_task_DD_L4,2021.2.3,Linux aarch64,60.18295619,,,,,,,,,,0.6128,1,,,,,,,,,,,,,,,0,-0.319824219,-0.372099304,1,0,0,0.6128,button_left_main,-0.319824219,-0.372099304,1,0,0,,0,136,136,99,1,BACKY,C,old,z,./images/BACKY.png,,,,,,,,,,,,,,,,,,,,,,,,,,,,,,,,,
,,,,,,,,,,,,,,,,,5fd59761251e25405b7671df,27,2022-02-12_16h46.33.638,lexical_decision_task_DD_L4,2021.2.3,Linux aarch64,60.18295619,,,,,,,,,,1.1446,1,,,,,,,,,,,,,,,0,-0.323486328,-0.365046353,1,0,0,1.1446,button_left_main,-0.323486328,-0.365046353,1,0,0,,0,137,137,163,1,GAMBA,HB,old,z,./images/GAMBAHB.png,,,,,,,,,,,,,,,,,,,,,,,,,,,,,,,,,
,,,,,,,,,,,,,,,,,5fd59761251e25405b7671df,27,2022-02-12_16h46.33.638,lexical_decision_task_DD_L4,2021.2.3,Linux aarch64,60.18295619,,,,,,,,,,0.6622,1,,,,,,,,,,,,,,,0,0.391113281,-0.275528124,1,0,0,0.6622,button_right_main,0.391113281,-0.275528124,1,0,0,,0,138,138,27,1,BUTTER,C,old,m,./images/BUTTER.png,,,,,,,,,,,,,,,,,,,,,,,,,,,,,,,,,
,,,,,,,,,,,,,,,,,5fd59761251e25405b7671df,27,2022-02-12_16h46.33.638,lexical_decision_task_DD_L4,2021.2.3,Linux aarch64,60.18295619,,,,,,,,,,0.7947,1,,,,,,,,,,,,,,,0,0.381835938,-0.271730381,1,0,0,0.7947,button_right_main,0.381835938,-0.271730381,1,0,0,,0,139,139,21,1,DANCER,C,old,m,./images/DANCER.png,,,,,,,,,,,,,,,,,,,,,,,,,,,,,,,,,
,,,,,,,,,,,,,,,,,5fd59761251e25405b7671df,27,2022-02-12_16h46.33.638,lexical_decision_task_DD_L4,2021.2.3,Linux aarch64,60.18295619,,,,,,,,,,1.1113,1,,,,,,,,,,,,,,,0,-0.323730469,-0.378067186,1,0,0,1.1113,button_left_main,-0.323730469,-0.378067186,1,0,0,,0,140,140,136,1,WERVE,HB,old,z,./images/WERVEHB.png,,,,,,,,,,,,,,,,,,,,,,,,,,,,,,,,,
,,,,,,,,,,,,,,,,,5fd59761251e25405b7671df,27,2022-02-12_16h46.33.638,lexical_decision_task_DD_L4,2021.2.3,Linux aarch64,60.18295619,,,,,,,,,,0.6453,1,,,,,,,,,,,,,,,0,-0.314453125,-0.36016354,1,0,0,0.6453,button_left_main,-0.314453125,-0.36016354,1,0,0,,0,141,141,141,1,PLEET,C,old,z,./images/PLEET.png,,,,,,,,,,,,,,,,,,,,,,,,,,,,,,,,,
,,,,,,,,,,,,,,,,,5fd59761251e25405b7671df,27,2022-02-12_16h46.33.638,lexical_decision_task_DD_L4,2021.2.3,Linux aarch64,60.18295619,,,,,,,,,,0.6136,1,,,,,,,,,,,,,,,0,-0.314453125,-0.362876214,1,0,0,0.6136,button_left_main,-0.314453125,-0.362876214,1,0,0,,0,142,142,87,1,TRING,C,old,z,./images/TRING.png,,,,,,,,,,,,,,,,,,,,,,,,,,,,,,,,,
,,,,,,,,,,,,,,,,,5fd59761251e25405b7671df,27,2022-02-12_16h46.33.638,lexical_decision_task_DD_L4,2021.2.3,Linux aarch64,60.18295619,,,,,,,,,,0.6296,1,,,,,,,,,,,,,,,0,0.384765625,-0.283666144,1,0,0,0.6296,button_right_main,0.384765625,-0.283666144,1,0,0,,0,143,143,50,1,PILOT,LB,old,m,./images/PILOTLB.png,,,,,,,,,,,,,,,,,,,,,,,,,,,,,,,,,
,,,,,,,,,,,,,,,,,5fd59761251e25405b7671df,27,2022-02-12_16h46.33.638,lexical_decision_task_DD_L4,2021.2.3,Linux aarch64,60.18295619,,,,,,,,,,0.8476,1,,,,,,,,,,,,,,,0,0.404052734,-0.28203854,1,0,0,0.8476,button_right_main,0.404052734,-0.28203854,1,0,0,,0,144,144,76,1,MIDGET,HB,old,m,./images/MIDGETHB.png,,,,,,,,,,,,,,,,,,,,,,,,,,,,,,,,,
,,,,,,,,,,,,,,,,,5fd59761251e25405b7671df,27,2022-02-12_16h46.33.638,lexical_decision_task_DD_L4,2021.2.3,Linux aarch64,60.18295619,,,,,,,,,,0.8106,1,,,,,,,,,,,,,,,0,0.379882813,-0.280953471,1,0,0,0.8106,button_right_main,0.379882813,-0.280953471,1,0,0,,0,145,145,10,1,GARDEN,HB,old,m,./images/GARDENHB.png,,,,,,,,,,,,,,,,,,,,,,,,,,,,,,,,,
,,,,,,,,,,,,,,,,,5fd59761251e25405b7671df,27,2022-02-12_16h46.33.638,lexical_decision_task_DD_L4,2021.2.3,Linux aarch64,60.18295619,,,,,,,,,,0.5648,1,,,,,,,,,,,,,,,0,0.393554688,-0.285836283,1,0,0,0.5648,button_right_main,0.393554688,-0.285836283,1,0,0,,0,146,146,24,1,FLESH,C,old,m,./images/FLESH.png,,,,,,,,,,,,,,,,,,,,,,,,,,,,,,,,,
,,,,,,,,,,,,,,,,,5fd59761251e25405b7671df,27,2022-02-12_16h46.33.638,lexical_decision_task_DD_L4,2021.2.3,Linux aarch64,60.18295619,,,,,,,,,,0.5991,1,,,,,,,,,,,,,,,0,0.386230469,-0.282581075,1,0,0,0.5991,button_right_main,0.386230469,-0.282581075,1,0,0,,0,147,147,17,1,PARADE,LB,old,m,./images/PARADELB.png,,,,,,,,,,,,,,,,,,,,,,,,,,,,,,,,,
,,,,,,,,,,,,,,,,,5fd59761251e25405b7671df,27,2022-02-12_16h46.33.638,lexical_decision_task_DD_L4,2021.2.3,Linux aarch64,60.18295619,,,,,,,,,,0.6955,1,,,,,,,,,,,,,,,0,-0.321533203,-0.356365797,1,0,0,0.6955,button_left_main,-0.321533203,-0.356365797,1,0,0,,0,148,148,123,1,SEDGE,C,old,z,./images/SEDGE.png,,,,,,,,,,,,,,,,,,,,,,,,,,,,,,,,,
,,,,,,,,,,,,,,,,,5fd59761251e25405b7671df,27,2022-02-12_16h46.33.638,lexical_decision_task_DD_L4,2021.2.3,Linux aarch64,60.18295619,,,,,,,,,,0.5985,1,,,,,,,,,,,,,,,0,0.392578125,-0.281496006,1,0,0,0.5985,button_right_main,0.392578125,-0.281496006,1,0,0,,0,149,149,0,1,WALNUT,C,old,m,./images/WALNUT.png,,,,,,,,,,,,,,,,,,,,,,,,,,,,,,,,,
,,,,,,,,,,,,,,,,,5fd59761251e25405b7671df,27,2022-02-12_16h46.33.638,lexical_decision_task_DD_L4,2021.2.3,Linux aarch64,60.18295619,,,,,,,,,,0.615,1,,,,,,,,,,,,,,,0,-0.313476563,-0.357993401,1,0,0,0.615,button_left_main,-0.313476563,-0.357993401,1,0,0,,0,150,150,143,1,MONGS,LB,old,z,./images/MONGSLB.png,,,,,,,,,,,,,,,,,,,,,,,,,,,,,,,,,
,,,,,,,,,,,,,,,,,5fd59761251e25405b7671df,27,2022-02-12_16h46.33.638,lexical_decision_task_DD_L4,2021.2.3,Linux aarch64,60.18295619,,,,,,,,,,0.7802,1,,,,,,,,,,,,,,,0,-0.311035156,-0.347685242,1,0,0,0.7802,button_left_main,-0.311035156,-0.347685242,1,0,0,,0,151,151,110,1,CRUNK,LB,old,z,./images/CRUNKLB.png,,,,,,,,,,,,,,,,,,,,,,,,,,,,,,,,,
,,,,,,,,,,,,,,,,,5fd59761251e25405b7671df,27,2022-02-12_16h46.33.638,lexical_decision_task_DD_L4,2021.2.3,Linux aarch64,60.18295619,,,,,,,,,,0.5467,1,,,,,,,,,,,,,,,0,0.386230469,-0.293974304,1,0,0,0.5467,button_right_main,0.386230469,-0.293974304,1,0,0,,0,152,152,77,1,WHEEL,LB,old,m,./images/WHEELLB.png,,,,,,,,,,,,,,,,,,,,,,,,,,,,,,,,,
,,,,,,,,,,,,,,,,,5fd59761251e25405b7671df,27,2022-02-12_16h46.33.638,lexical_decision_task_DD_L4,2021.2.3,Linux aarch64,60.18295619,,,,,,,,,,0.5297,1,,,,,,,,,,,,,,,0,0.378173828,-0.277155728,1,0,0,0.5297,button_right_main,0.378173828,-0.277155728,1,0,0,,0,153,153,36,1,BOILER,C,old,m,./images/BOILER.png,,,,,,,,,,,,,,,,,,,,,,,,,,,,,,,,,
,,,,,,,,,,,,,,,,,5fd59761251e25405b7671df,27,2022-02-12_16h46.33.638,lexical_decision_task_DD_L4,2021.2.3,Linux aarch64,60.18295619,,,,,,,,,,0.5473,1,,,,,,,,,,,,,,,0,0.385742188,-0.273900519,1,0,0,0.5473,button_right_main,0.385742188,-0.273900519,1,0,0,,0,154,154,74,1,JUMPER,LB,old,m,./images/JUMPERLB.png,,,,,,,,,,,,,,,,,,,,,,,,,,,,,,,,,
,,,,,,,,,,,,,,,,,5fd59761251e25405b7671df,27,2022-02-12_16h46.33.638,lexical_decision_task_DD_L4,2021.2.3,Linux aarch64,60.18295619,,,,,,,,,,0.5138,1,,,,,,,,,,,,,,,0,0.374511719,-0.276070658,1,0,0,0.5138,button_right_main,0.374511719,-0.276070658,1,0,0,,0,155,155,48,1,SHIELD,C,old,m,./images/SHIELD.png,,,,,,,,,,,,,,,,,,,,,,,,,,,,,,,,,
,,,,,,,,,,,,,,,,,5fd59761251e25405b7671df,27,2022-02-12_16h46.33.638,lexical_decision_task_DD_L4,2021.2.3,Linux aarch64,60.18295619,,,,,,,,,,0.6479,1,,,,,,,,,,,,,,,0,0.385742188,-0.278240797,1,0,0,0.6479,button_right_main,0.385742188,-0.278240797,1,0,0,,0,156,156,67,1,POKER,HB,old,m,./images/POKERHB.png,,,,,,,,,,,,,,,,,,,,,,,,,,,,,,,,,
,,,,,,,,,,,,,,,,,5fd59761251e25405b7671df,27,2022-02-12_16h46.33.638,lexical_decision_task_DD_L4,2021.2.3,Linux aarch64,60.18295619,,,,,,,,,,0.8666,1,,,,,,,,,,,,,,,0,0.370117188,-0.280953471,1,0,0,0.8666,button_right_main,0.370117188,-0.280953471,1,0,0,,0,157,157,61,1,ARTIST,HB,old,m,./images/ARTISTHB.png,,,,,,,,,,,,,,,,,,,,,,,,,,,,,,,,,
,,,,,,,,,,,,,,,,,5fd59761251e25405b7671df,27,2022-02-12_16h46.33.638,lexical_decision_task_DD_L4,2021.2.3,Linux aarch64,60.18295619,,,,,,,,,,0.5297,1,,,,,,,,,,,,,,,0,0.371582031,-0.275528124,1,0,0,0.5297,button_right_main,0.371582031,-0.275528124,1,0,0,,0,158,158,5,1,BAMBOO,LB,old,m,./images/BAMBOOLB.png,,,,,,,,,,,,,,,,,,,,,,,,,,,,,,,,,
,,,,,,,,,,,,,,,,,5fd59761251e25405b7671df,27,2022-02-12_16h46.33.638,lexical_decision_task_DD_L4,2021.2.3,Linux aarch64,60.18295619,,,,,,,,,,1.014,1,,,,,,,,,,,,,,,0,-0.317626953,-0.359078471,1,0,0,1.014,button_left_main,-0.317626953,-0.359078471,1,0,0,,0,159,159,91,1,SHENS,HB,old,z,./images/SHENSHB.png,,,,,,,,,,,,,,,,,,,,,,,,,,,,,,,,,
,,,,,,,,,,,,,,,,,5fd59761251e25405b7671df,27,2022-02-12_16h46.33.638,lexical_decision_task_DD_L4,2021.2.3,Linux aarch64,60.18295619,,,,,,,,,,1.3634,1,,,,,,,,,,,,,,,0,-0.320068359,-0.351482985,1,0,0,1.3634,button_left_main,-0.320068359,-0.351482985,1,0,0,,0,160,160,130,1,CRILL,HB,old,z,./images/CRILLHB.png,,,,,,,,,,,,,,,,,,,,,,,,,,,,,,,,,
,,,,,,,,,,,,,,,,,5fd59761251e25405b7671df,27,2022-02-12_16h46.33.638,lexical_decision_task_DD_L4,2021.2.3,Linux aarch64,60.18295619,,,,,,,,,,1.1788,1,,,,,,,,,,,,,,,0,-0.304931641,-0.345515103,1,0,0,1.1788,button_left_main,-0.304931641,-0.345515103,1,0,0,,0,161,161,100,1,DRIBS,HB,old,z,./images/DRIBSHB.png,,,,,,,,,,,,,,,,,,,,,,,,,,,,,,,,,
,,,,,,,,,,,,,,,,,5fd59761251e25405b7671df,27,2022-02-12_16h46.33.638,lexical_decision_task_DD_L4,2021.2.3,Linux aarch64,60.18295619,,,,,,,,,,0.8958,1,,,,,,,,,,,,,,,0,0.355712891,-0.297229513,1,0,0,0.8958,button_right_main,0.355712891,-0.297229513,1,0,0,,0,162,162,28,1,CASINO,HB,old,m,./images/CASINOHB.png,,,,,,,,,,,,,,,,,,,,,,,,,,,,,,,,,
,,,,,,,,,,,,,,,,,5fd59761251e25405b7671df,27,2022-02-12_16h46.33.638,lexical_decision_task_DD_L4,2021.2.3,Linux aarch64,60.18295619,,,,,,,,,,0.6962,1,,,,,,,,,,,,,,,0,0.367431641,-0.286921353,1,0,0,0.6962,button_right_main,0.367431641,-0.286921353,1,0,0,,0,163,163,37,1,TIGER,HB,old,m,./images/TIGERHB.png,,,,,,,,,,,,,,,,,,,,,,,,,,,,,,,,,
,,,,,,,,,,,,,,,,,5fd59761251e25405b7671df,27,2022-02-12_16h46.33.638,lexical_decision_task_DD_L4,2021.2.3,Linux aarch64,60.18295619,,,,,,,,,,0.5777,1,,,,,,,,,,,,,,,0,0.371582031,-0.276070658,1,0,0,0.5777,button_right_main,0.371582031,-0.276070658,1,0,0,,0,164,164,71,1,BUBBLE,LB,old,m,./images/BUBBLELB.png,,,,,,,,,,,,,,,,,,,,,,,,,,,,,,,,,
,,,,,,,,,,,,,,,,,5fd59761251e25405b7671df,27,2022-02-12_16h46.33.638,lexical_decision_task_DD_L4,2021.2.3,Linux aarch64,60.18295619,,,,,,,,,,0.6299,1,,,,,,,,,,,,,,,0,-0.340087891,-0.348227776,1,0,0,0.6299,button_left_main,-0.340087891,-0.348227776,1,0,0,,0,165,165,162,1,LEICH,C,old,z,./images/LEICH.png,,,,,,,,,,,,,,,,,,,,,,,,,,,,,,,,,
,,,,,,,,,,,,,,,,,5fd59761251e25405b7671df,27,2022-02-12_16h46.33.638,lexical_decision_task_DD_L4,2021.2.3,Linux aarch64,60.18295619,,,,,,,,,,0.631,1,,,,,,,,,,,,,,,0,-0.312988281,-0.351482985,1,0,0,0.631,button_left_main,-0.312988281,-0.351482985,1,0,0,,0,166,166,159,1,CUDDY,C,old,z,./images/CUDDY.png,,,,,,,,,,,,,,,,,,,,,,,,,,,,,,,,,
,,,,,,,,,,,,,,,,,5fd59761251e25405b7671df,27,2022-02-12_16h46.33.638,lexical_decision_task_DD_L4,2021.2.3,Linux aarch64,60.18295619,,,,,,,,,,0.93,1,,,,,,,,,,,,,,,0,0.383300781,-0.288006422,1,0,0,0.93,button_right_main,0.383300781,-0.288006422,1,0,0,,0,167,167,3,1,CRATER,C,old,m,./images/CRATER.png,,,,,,,,,,,,,,,,,,,,,,,,,,,,,,,,,
,,,,,,,,,,,,,,,,,5fd59761251e25405b7671df,27,2022-02-12_16h46.33.638,lexical_decision_task_DD_L4,2021.2.3,Linux aarch64,60.18295619,,,,,,,,,,,,,,,,,,,,,,,,,,,,,,,,,,,,,,,,,,,,,,How likely will it be that you will recognize the words presented slighly blurred on a scale of 0 (not likely) to 100 (most likely)?,,,,,-0.005126953,-0.441543749,1,0,0,jol_adv,5,6.9377,0,0,0,1,1,,,,,,,,,,,,,,,,,,,
,,,,,,,,,,,,,,,,,5fd59761251e25405b7671df,27,2022-02-12_16h46.33.638,lexical_decision_task_DD_L4,2021.2.3,Linux aarch64,60.18295619,,,,,,,,,,,,,,,,,,,,,,,,,,,,,,,,,,,,,,,,,,,,,,How likely will it be that you will recognize the words presented clearly on a scale of 0 (not likely) to 100 (most likely)?,,,,,,,,,,,5,5.9102,0,1,1,0,1,,,,,,,,,,,,,,,,,,,
,,,,,,,,,,,,,,,,,5fd59761251e25405b7671df,27,2022-02-12_16h46.33.638,lexical_decision_task_DD_L4,2021.2.3,Linux aarch64,60.18295619,,,,,,,,,,,,,,,,,,,,,,,,,,,,,,,,,,,,,,,,,,,,,,How likely will it be that you will recognize the words presented very blurred on a scale of 0 (not likely) to 100 (most likely)?,,,,,,,,,,,5,3.4164,0,2,2,2,1,,,,,,,,,,,,,,,,,,,
,0.14453125,-0.380237325,1,0,0,instr_done_button,,,,,,1,test,"In the next phase you will be presented with the words from the the first phase. Your job is to decide whether you remember seeing the word or not. If you remember seeing the word press ""old"" or type ""m"". If you do not remember seeing the word press ""new"" or type ""z"". Please press the space bar or click on continue to begin. ",,,5fd59761251e25405b7671df,27,2022-02-12_16h46.33.638,lexical_decision_task_DD_L4,2021.2.3,Linux aarch64,60.18295619,,,,,,,,,,,,,,,,,,,,,,,,,,,,,,,,,,,,,,,,,,,,,,,,,,,,,,,,,,,,,,,,0,0,0,0,1,,,,,,,,,,,,,,
,0.12890625,-0.416044617,1,0,0,instr_done_button,,,,,,1,test,"In the next phase you will be presented with the words from the the first phase. Your job is to decide whether you remember seeing the word or not. If you remember seeing the word press ""old"" or type ""m"". If you do not remember seeing the word press ""new"" or type ""z"". Please press the space bar or click on continue to begin. ",,,5fd59761251e25405b7671df,27,2022-02-12_16h46.33.638,lexical_decision_task_DD_L4,2021.2.3,Linux aarch64,60.18295619,,,,,,,,,,,,,,,,,,,,,,,,,,,,,,,,,,,,,,,,,,,,,,,,,,,,,,,,,,,,,,,,1,0,1,0,1,,,,,,,,,,,,,,
,0.132324219,-0.39922604,1,0,0,instr_done_button,,,,,,1,test,"In the next phase you will be presented with the words from the the first phase. Your job is to decide whether you remember seeing the word or not. If you remember seeing the word press ""old"" or type ""m"". If you do not remember seeing the word press ""new"" or type ""z"". Please press the space bar or click on continue to begin. ",,,5fd59761251e25405b7671df,27,2022-02-12_16h46.33.638,lexical_decision_task_DD_L4,2021.2.3,Linux aarch64,60.18295619,,,,,,,,,,,,,,,,,,,,,,,,,,,,,,,,,,,,,,,,,,,,,,,,,,,,,,,,,,,,,,,,2,0,2,0,1,,,,,,,,,,,,,,
,0.008789063,-0.385662672,1,0,0,instr_done_button,,,,,,1,test,"In the next phase you will be presented with the words from the the first phase. Your job is to decide whether you remember seeing the word or not. If you remember seeing the word press ""old"" or type ""m"". If you do not remember seeing the word press ""new"" or type ""z"". Please press the space bar or click on continue to begin. ",,,5fd59761251e25405b7671df,27,2022-02-12_16h46.33.638,lexical_decision_task_DD_L4,2021.2.3,Linux aarch64,60.18295619,,,,,,,,,,,,,,,,,,,,,,,,,,,,,,,,,,,,,,,,,,,,,,,,,,,,,,,,,,,,,,,,3,0,3,0,1,,,,,,,,,,,,,,
,0.010253906,-0.397598436,1,0,0,instr_done_button,,,,,,1,test,"In the next phase you will be presented with the words from the the first phase. Your job is to decide whether you remember seeing the word or not. If you remember seeing the word press ""old"" or type ""m"". If you do not remember seeing the word press ""new"" or type ""z"". Please press the space bar or click on continue to begin. ",,,5fd59761251e25405b7671df,27,2022-02-12_16h46.33.638,lexical_decision_task_DD_L4,2021.2.3,Linux aarch64,60.18295619,,,,,,,,,,,,,,,,,,,,,,,,,,,,,,,,,,,,,,,,,,,,,,,,,,,,,,,,,,,,,,,,4,0,4,0,1,,,,,,,,,,,,,,
,,,,,,,,,,,,,,,,,5fd59761251e25405b7671df,27,2022-02-12_16h46.33.638,lexical_decision_task_DD_L4,2021.2.3,Linux aarch64,60.18295619,,,,,,,,,,1.7057,0,,,,,,,,,,,,,,,,,,,,,,,-0.354980469,-0.390545485,1,0,0,,,,,,,POKER,HB,m,y,./images/POKERHB.png,,,,,,,,,,,,,,,,,,,,,0,-0.354980469,-0.390545485,1,0,0,1.7057,button_left_test,0,0,0,67,1
,,,,,,,,,,,,,,,,,5fd59761251e25405b7671df,27,2022-02-12_16h46.33.638,lexical_decision_task_DD_L4,2021.2.3,Linux aarch64,60.18295619,,,,,,,,,,0.9291,1,,,,,,,,,,,,,,,,,,,,,,,0.357177734,-0.310250346,1,0,0,,,,,,,FERRY,C,m,y,./images/FERRY.png,,,,,,,,,,,,,,,,,,,,,0,0.357177734,-0.310250346,1,0,0,0.9291,button_right_test,0,1,1,57,1
,,,,,,,,,,,,,,,,,5fd59761251e25405b7671df,27,2022-02-12_16h46.33.638,lexical_decision_task_DD_L4,2021.2.3,Linux aarch64,60.18295619,,,,,,,,,,0.7811,1,,,,,,,,,,,,,,,,,,,,,,,-0.326660156,-0.395970832,1,0,0,,,,,,,BELLY,HB,z,y,./images/BELLYHB.png,,,,,,,,,,,,,,,,,,,,,0,-0.326660156,-0.395970832,1,0,0,0.7811,button_left_test,0,2,2,94,1
,,,,,,,,,,,,,,,,,5fd59761251e25405b7671df,27,2022-02-12_16h46.33.638,lexical_decision_task_DD_L4,2021.2.3,Linux aarch64,60.18295619,,,,,,,,,,0.5773,1,,,,,,,,,,,,,,,,,,,,,,,0.389404297,-0.318930901,1,0,0,,,,,,,HAMMER,C,m,y,./images/HAMMER.png,,,,,,,,,,,,,,,,,,,,,0,0.389404297,-0.318930901,1,0,0,0.5773,button_right_test,0,3,3,75,1
,,,,,,,,,,,,,,,,,5fd59761251e25405b7671df,27,2022-02-12_16h46.33.638,lexical_decision_task_DD_L4,2021.2.3,Linux aarch64,60.18295619,,,,,,,,,,0.6637,1,,,,,,,,,,,,,,,,,,,,,,,-0.343505859,-0.381864929,1,0,0,,,,,,,URINE,HB,z,y,./images/URINEHB.png,,,,,,,,,,,,,,,,,,,,,0,-0.343505859,-0.381864929,1,0,0,0.6637,button_left_test,0,4,4,154,1
,,,,,,,,,,,,,,,,,5fd59761251e25405b7671df,27,2022-02-12_16h46.33.638,lexical_decision_task_DD_L4,2021.2.3,Linux aarch64,60.18295619,,,,,,,,,,0.9434,1,,,,,,,,,,,,,,,,,,,,,,,0.399658203,-0.322728644,1,0,0,,,,,,,BLOKE,C,m,y,./images/BLOKE.png,,,,,,,,,,,,,,,,,,,,,0,0.399658203,-0.322728644,1,0,0,0.9434,button_right_test,0,5,5,12,1
,,,,,,,,,,,,,,,,,5fd59761251e25405b7671df,27,2022-02-12_16h46.33.638,lexical_decision_task_DD_L4,2021.2.3,Linux aarch64,60.18295619,,,,,,,,,,0.5616,1,,,,,,,,,,,,,,,,,,,,,,,0.399169922,-0.320558506,1,0,0,,,,,,,FENCE,LB,m,y,./images/FENCELB.png,,,,,,,,,,,,,,,,,,,,,0,0.399169922,-0.320558506,1,0,0,0.5616,button_right_test,0,6,6,14,1
,,,,,,,,,,,,,,,,,5fd59761251e25405b7671df,27,2022-02-12_16h46.33.638,lexical_decision_task_DD_L4,2021.2.3,Linux aarch64,60.18295619,,,,,,,,,,0.5771,1,,,,,,,,,,,,,,,,,,,,,,,0.396240234,-0.302112325,1,0,0,,,,,,,STAIN,C,m,y,./images/STAIN.png,,,,,,,,,,,,,,,,,,,,,0,0.396240234,-0.302112325,1,0,0,0.5771,button_right_test,0,7,7,6,1
,,,,,,,,,,,,,,,,,5fd59761251e25405b7671df,27,2022-02-12_16h46.33.638,lexical_decision_task_DD_L4,2021.2.3,Linux aarch64,60.18295619,,,,,,,,,,0.8777,1,,,,,,,,,,,,,,,,,,,,,,,-0.37890625,-0.337377082,1,0,0,,,,,,,NOOSE,C,z,y,./images/NOOSE.png,,,,,,,,,,,,,,,,,,,,,0,-0.323730469,-0.411161804,1,0,0,0.8777,button_left_test,0,8,8,156,1
,,,,,,,,,,,,,,,,,5fd59761251e25405b7671df,27,2022-02-12_16h46.33.638,lexical_decision_task_DD_L4,2021.2.3,Linux aarch64,60.18295619,,,,,,,,,,0.5952,1,,,,,,,,,,,,,,,,,,,,,,,0.403076172,-0.284751214,1,0,0,,,,,,,HOCKEY,LB,m,y,./images/HOCKEYLB.png,,,,,,,,,,,,,,,,,,,,,0,0.403076172,-0.284751214,1,0,0,0.5952,button_right_test,0,9,9,32,1
,,,,,,,,,,,,,,,,,5fd59761251e25405b7671df,27,2022-02-12_16h46.33.638,lexical_decision_task_DD_L4,2021.2.3,Linux aarch64,60.18295619,,,,,,,,,,0.5309,1,,,,,,,,,,,,,,,,,,,,,,,0.400390625,-0.297229513,1,0,0,,,,,,,CLOUD,LB,m,y,./images/CLOUDLB.png,,,,,,,,,,,,,,,,,,,,,0,0.400390625,-0.297229513,1,0,0,0.5309,button_right_test,0,10,10,26,1
,,,,,,,,,,,,,,,,,5fd59761251e25405b7671df,27,2022-02-12_16h46.33.638,lexical_decision_task_DD_L4,2021.2.3,Linux aarch64,60.18295619,,,,,,,,,,0.6465,1,,,,,,,,,,,,,,,,,,,,,,,-0.335693359,-0.363418749,1,0,0,,,,,,,THROAT,C,z,y,./images/THROAT.png,,,,,,,,,,,,,,,,,,,,,0,-0.335693359,-0.363418749,1,0,0,0.6465,button_left_test,0,11,11,120,1
,,,,,,,,,,,,,,,,,5fd59761251e25405b7671df,27,2022-02-12_16h46.33.638,lexical_decision_task_DD_L4,2021.2.3,Linux aarch64,60.18295619,,,,,,,,,,0.5619,1,,,,,,,,,,,,,,,,,,,,,,,0.372314453,-0.289634026,1,0,0,,,,,,,STEAK,HB,m,y,./images/STEAKHB.png,,,,,,,,,,,,,,,,,,,,,0,0.372314453,-0.289634026,1,0,0,0.5619,button_right_test,0,12,12,31,1
,,,,,,,,,,,,,,,,,5fd59761251e25405b7671df,27,2022-02-12_16h46.33.638,lexical_decision_task_DD_L4,2021.2.3,Linux aarch64,60.18295619,,,,,,,,,,0.5662,1,,,,,,,,,,,,,,,,,,,,,,,0.382324219,-0.285293749,1,0,0,,,,,,,PEBBLE,HB,m,y,./images/PEBBLEHB.png,,,,,,,,,,,,,,,,,,,,,0,0.382324219,-0.285293749,1,0,0,0.5662,button_right_test,0,13,13,82,1
,,,,,,,,,,,,,,,,,5fd59761251e25405b7671df,27,2022-02-12_16h46.33.638,lexical_decision_task_DD_L4,2021.2.3,Linux aarch64,60.18295619,,,,,,,,,,0.5453,1,,,,,,,,,,,,,,,,,,,,,,,0.373046875,-0.28203854,1,0,0,,,,,,,BUNNY,HB,m,y,./images/BUNNYHB.png,,,,,,,,,,,,,,,,,,,,,0,0.373046875,-0.28203854,1,0,0,0.5453,button_right_test,0,14,14,13,1
,,,,,,,,,,,,,,,,,5fd59761251e25405b7671df,27,2022-02-12_16h46.33.638,lexical_decision_task_DD_L4,2021.2.3,Linux aarch64,60.18295619,,,,,,,,,,0.7129,1,,,,,,,,,,,,,,,,,,,,,,,-0.325439453,-0.355280728,1,0,0,,,,,,,BERRY,LB,z,y,./images/BERRYLB.png,,,,,,,,,,,,,,,,,,,,,0,-0.325439453,-0.355280728,1,0,0,0.7129,button_left_test,0,15,15,131,1
,,,,,,,,,,,,,,,,,5fd59761251e25405b7671df,27,2022-02-12_16h46.33.638,lexical_decision_task_DD_L4,2021.2.3,Linux aarch64,60.18295619,,,,,,,,,,0.5934,1,,,,,,,,,,,,,,,,,,,,,,,0.392333984,-0.271187846,1,0,0,,,,,,,RAZOR,HB,m,y,./images/RAZORHB.png,,,,,,,,,,,,,,,,,,,,,0,0.392333984,-0.271187846,1,0,0,0.5934,button_right_test,0,16,16,34,1
,,,,,,,,,,,,,,,,,5fd59761251e25405b7671df,27,2022-02-12_16h46.33.638,lexical_decision_task_DD_L4,2021.2.3,Linux aarch64,60.18295619,,,,,,,,,,0.4769,1,,,,,,,,,,,,,,,,,,,,,,,0.383789063,-0.266847568,1,0,0,,,,,,,PILOT,LB,m,y,./images/PILOTLB.png,,,,,,,,,,,,,,,,,,,,,0,0.383789063,-0.266847568,1,0,0,0.4769,button_right_test,0,17,17,50,1
,,,,,,,,,,,,,,,,,5fd59761251e25405b7671df,27,2022-02-12_16h46.33.638,lexical_decision_task_DD_L4,2021.2.3,Linux aarch64,60.18295619,,,,,,,,,,0.6265,1,,,,,,,,,,,,,,,,,,,,,,,-0.331787109,-0.359621006,1,0,0,,,,,,,COOKER,C,z,y,./images/COOKER.png,,,,,,,,,,,,,,,,,,,,,0,-0.331787109,-0.359621006,1,0,0,0.6265,button_left_test,0,18,18,153,1
,,,,,,,,,,,,,,,,,5fd59761251e25405b7671df,27,2022-02-12_16h46.33.638,lexical_decision_task_DD_L4,2021.2.3,Linux aarch64,60.18295619,,,,,,,,,,0.5111,1,,,,,,,,,,,,,,,,,,,,,,,0.385498047,-0.269560242,1,0,0,,,,,,,POSTER,LB,m,y,./images/POSTERLB.png,,,,,,,,,,,,,,,,,,,,,0,0.385498047,-0.269560242,1,0,0,0.5111,button_right_test,0,19,19,53,1
,,,,,,,,,,,,,,,,,5fd59761251e25405b7671df,27,2022-02-12_16h46.33.638,lexical_decision_task_DD_L4,2021.2.3,Linux aarch64,60.18295619,,,,,,,,,,0.6592,1,,,,,,,,,,,,,,,,,,,,,,,-0.330810547,-0.355280728,1,0,0,,,,,,,PENCE,HB,z,y,./images/PENCEHB.png,,,,,,,,,,,,,,,,,,,,,0,-0.330810547,-0.355280728,1,0,0,0.6592,button_left_test,0,20,20,100,1
,,,,,,,,,,,,,,,,,5fd59761251e25405b7671df,27,2022-02-12_16h46.33.638,lexical_decision_task_DD_L4,2021.2.3,Linux aarch64,60.18295619,,,,,,,,,,0.7284,1,,,,,,,,,,,,,,,,,,,,,,,0.372558594,-0.269017707,1,0,0,,,,,,,CHERRY,C,m,y,./images/CHERRY.png,,,,,,,,,,,,,,,,,,,,,0,0.372558594,-0.269017707,1,0,0,0.7284,button_right_test,0,21,21,54,1
,,,,,,,,,,,,,,,,,5fd59761251e25405b7671df,27,2022-02-12_16h46.33.638,lexical_decision_task_DD_L4,2021.2.3,Linux aarch64,60.18295619,,,,,,,,,,0.5462,1,,,,,,,,,,,,,,,,,,,,,,,0.342529297,-0.291261631,1,0,0,,,,,,,DIVER,C,m,y,./images/DIVER.png,,,,,,,,,,,,,,,,,,,,,0,0.342529297,-0.291261631,1,0,0,0.5462,button_right_test,0,22,22,9,1
,,,,,,,,,,,,,,,,,5fd59761251e25405b7671df,27,2022-02-12_16h46.33.638,lexical_decision_task_DD_L4,2021.2.3,Linux aarch64,60.18295619,,,,,,,,,,0.5609,1,,,,,,,,,,,,,,,,,,,,,,,0.367675781,-0.270645311,1,0,0,,,,,,,CHALK,HB,m,y,./images/CHALKHB.png,,,,,,,,,,,,,,,,,,,,,0,0.367675781,-0.270645311,1,0,0,0.5609,button_right_test,0,23,23,25,1
,,,,,,,,,,,,,,,,,5fd59761251e25405b7671df,27,2022-02-12_16h46.33.638,lexical_decision_task_DD_L4,2021.2.3,Linux aarch64,60.18295619,,,,,,,,,,0.5434,1,,,,,,,,,,,,,,,,,,,,,,,0.385986328,-0.266305033,1,0,0,,,,,,,WHEEL,LB,m,y,./images/WHEELLB.png,,,,,,,,,,,,,,,,,,,,,0,0.385986328,-0.266305033,1,0,0,0.5434,button_right_test,0,24,24,77,1
,,,,,,,,,,,,,,,,,5fd59761251e25405b7671df,27,2022-02-12_16h46.33.638,lexical_decision_task_DD_L4,2021.2.3,Linux aarch64,60.18295619,,,,,,,,,,0.727,1,,,,,,,,,,,,,,,,,,,,,,,-0.313964844,-0.347685242,1,0,0,,,,,,,CRADLE,LB,z,y,./images/CRADLELB.png,,,,,,,,,,,,,,,,,,,,,0,-0.313964844,-0.347685242,1,0,0,0.727,button_left_test,0,25,25,104,1
,,,,,,,,,,,,,,,,,5fd59761251e25405b7671df,27,2022-02-12_16h46.33.638,lexical_decision_task_DD_L4,2021.2.3,Linux aarch64,60.18295619,,,,,,,,,,0.595,1,,,,,,,,,,,,,,,,,,,,,,,0.377929688,-0.26359236,1,0,0,,,,,,,BOXER,HB,m,y,./images/BOXERHB.png,,,,,,,,,,,,,,,,,,,,,0,0.377929688,-0.26359236,1,0,0,0.595,button_right_test,0,26,26,4,1
,,,,,,,,,,,,,,,,,5fd59761251e25405b7671df,27,2022-02-12_16h46.33.638,lexical_decision_task_DD_L4,2021.2.3,Linux aarch64,60.18295619,,,,,,,,,,0.5284,1,,,,,,,,,,,,,,,,,,,,,,,0.361083984,-0.279325867,1,0,0,,,,,,,ALLEY,HB,m,y,./images/ALLEYHB.png,,,,,,,,,,,,,,,,,,,,,0,0.361083984,-0.279325867,1,0,0,0.5284,button_right_test,0,27,27,55,1
,,,,,,,,,,,,,,,,,5fd59761251e25405b7671df,27,2022-02-12_16h46.33.638,lexical_decision_task_DD_L4,2021.2.3,Linux aarch64,60.18295619,,,,,,,,,,0.63,0,,,,,,,,,,,,,,,,,,,,,,,0.356445313,-0.290176561,1,0,0,,,,,,,SCREW,C,z,y,./images/SCREW.png,,,,,,,,,,,,,,,,,,,,,0,0.356445313,-0.290176561,1,0,0,0.63,button_right_test,0,28,28,108,1
,,,,,,,,,,,,,,,,,5fd59761251e25405b7671df,27,2022-02-12_16h46.33.638,lexical_decision_task_DD_L4,2021.2.3,Linux aarch64,60.18295619,,,,,,,,,,0.5126,1,,,,,,,,,,,,,,,,,,,,,,,0.365966797,-0.266847568,1,0,0,,,,,,,DANCER,C,m,y,./images/DANCER.png,,,,,,,,,,,,,,,,,,,,,0,0.365966797,-0.266847568,1,0,0,0.5126,button_right_test,0,29,29,21,1
,,,,,,,,,,,,,,,,,5fd59761251e25405b7671df,27,2022-02-12_16h46.33.638,lexical_decision_task_DD_L4,2021.2.3,Linux aarch64,60.18295619,,,,,,,,,,0.7283,1,,,,,,,,,,,,,,,,,,,,,,,-0.323974609,-0.330324131,1,0,0,,,,,,,PIMPLE,LB,z,y,./images/PIMPLELB.png,,,,,,,,,,,,,,,,,,,,,0,-0.323974609,-0.330324131,1,0,0,0.7283,button_left_test,0,30,30,155,1
,,,,,,,,,,,,,,,,,5fd59761251e25405b7671df,27,2022-02-12_16h46.33.638,lexical_decision_task_DD_L4,2021.2.3,Linux aarch64,60.18295619,,,,,,,,,,0.7414,1,,,,,,,,,,,,,,,,,,,,,,,-0.325683594,-0.327068922,1,0,0,,,,,,,BARREL,LB,z,y,./images/BARRELLB.png,,,,,,,,,,,,,,,,,,,,,0,-0.325683594,-0.327068922,1,0,0,0.7414,button_left_test,0,31,31,116,1
,,,,,,,,,,,,,,,,,5fd59761251e25405b7671df,27,2022-02-12_16h46.33.638,lexical_decision_task_DD_L4,2021.2.3,Linux aarch64,60.18295619,,,,,,,,,,0.6097,0,,,,,,,,,,,,,,,,,,,,,,,0.362548828,-0.26250729,1,0,0,,,,,,,MAGGOT,C,z,y,./images/MAGGOT.png,,,,,,,,,,,,,,,,,,,,,0,0.362548828,-0.26250729,1,0,0,0.6097,button_right_test,0,32,32,117,1
,,,,,,,,,,,,,,,,,5fd59761251e25405b7671df,27,2022-02-12_16h46.33.638,lexical_decision_task_DD_L4,2021.2.3,Linux aarch64,60.18295619,,,,,,,,,,0.5274,1,,,,,,,,,,,,,,,,,,,,,,,0.348144531,-0.259252082,1,0,0,,,,,,,BISHOP,HB,m,y,./images/BISHOPHB.png,,,,,,,,,,,,,,,,,,,,,0,0.348144531,-0.259252082,1,0,0,0.5274,button_right_test,0,33,33,49,1
,,,,,,,,,,,,,,,,,5fd59761251e25405b7671df,27,2022-02-12_16h46.33.638,lexical_decision_task_DD_L4,2021.2.3,Linux aarch64,60.18295619,,,,,,,,,,1.0443,1,,,,,,,,,,,,,,,,,,,,,,,0.375732422,-0.264134894,1,0,0,,,,,,,CURRY,C,m,y,./images/CURRY.png,,,,,,,,,,,,,,,,,,,,,0,0.375732422,-0.264134894,1,0,0,1.0443,button_right_test,0,34,34,60,1
,,,,,,,,,,,,,,,,,5fd59761251e25405b7671df,27,2022-02-12_16h46.33.638,lexical_decision_task_DD_L4,2021.2.3,Linux aarch64,60.18295619,,,,,,,,,,0.7105,1,,,,,,,,,,,,,,,,,,,,,,,0.422607422,-0.303197394,1,0,0,,,,,,,MIDGET,HB,m,y,./images/MIDGETHB.png,,,,,,,,,,,,,,,,,,,,,0,0.422607422,-0.303197394,1,0,0,0.7105,button_right_test,0,35,35,76,1
,,,,,,,,,,,,,,,,,5fd59761251e25405b7671df,27,2022-02-12_16h46.33.638,lexical_decision_task_DD_L4,2021.2.3,Linux aarch64,60.18295619,,,,,,,,,,0.6763,1,,,,,,,,,,,,,,,,,,,,,,,-0.428955078,-0.307537672,1,0,0,,,,,,,JELLY,HB,z,y,./images/JELLYHB.png,,,,,,,,,,,,,,,,,,,,,0,-0.428955078,-0.307537672,1,0,0,0.6763,button_left_test,0,36,36,148,1
,,,,,,,,,,,,,,,,,5fd59761251e25405b7671df,27,2022-02-12_16h46.33.638,lexical_decision_task_DD_L4,2021.2.3,Linux aarch64,60.18295619,,,,,,,,,,0.6454,1,,,,,,,,,,,,,,,,,,,,,,,0.362548828,-0.284208679,1,0,0,,,,,,,BRIDE,HB,m,y,./images/BRIDEHB.png,,,,,,,,,,,,,,,,,,,,,0,0.362548828,-0.284208679,1,0,0,0.6454,button_right_test,0,37,37,64,1
,,,,,,,,,,,,,,,,,5fd59761251e25405b7671df,27,2022-02-12_16h46.33.638,lexical_decision_task_DD_L4,2021.2.3,Linux aarch64,60.18295619,,,,,,,,,,0.528,1,,,,,,,,,,,,,,,,,,,,,,,0.371582031,-0.257081943,1,0,0,,,,,,,PISTOL,LB,m,y,./images/PISTOLLB.png,,,,,,,,,,,,,,,,,,,,,0,0.371582031,-0.257081943,1,0,0,0.528,button_right_test,0,38,38,29,1
,,,,,,,,,,,,,,,,,5fd59761251e25405b7671df,27,2022-02-12_16h46.33.638,lexical_decision_task_DD_L4,2021.2.3,Linux aarch64,60.18295619,,,,,,,,,,0.5955,1,,,,,,,,,,,,,,,,,,,,,,,-0.380126953,-0.330866665,1,0,0,,,,,,,SHELF,C,z,y,./images/SHELF.png,,,,,,,,,,,,,,,,,,,,,0,-0.380126953,-0.330866665,1,0,0,0.5955,button_left_test,0,39,39,123,1
,,,,,,,,,,,,,,,,,5fd59761251e25405b7671df,27,2022-02-12_16h46.33.638,lexical_decision_task_DD_L4,2021.2.3,Linux aarch64,60.18295619,,,,,,,,,,0.5611,1,,,,,,,,,,,,,,,,,,,,,,,0.338623047,-0.276070658,1,0,0,,,,,,,FLESH,C,m,y,./images/FLESH.png,,,,,,,,,,,,,,,,,,,,,0,0.338623047,-0.276070658,1,0,0,0.5611,button_right_test,0,40,40,24,1
,,,,,,,,,,,,,,,,,5fd59761251e25405b7671df,27,2022-02-12_16h46.33.638,lexical_decision_task_DD_L4,2021.2.3,Linux aarch64,60.18295619,,,,,,,,,,0.6436,1,,,,,,,,,,,,,,,,,,,,,,,0.129150391,-0.41984236,1,0,0,,,,,,,GLOVE,HB,m,y,./images/GLOVEHB.png,break_done_button,,,,,,,,,,,,,,,,,,,,0,0.325195313,-0.288548957,1,0,0,0.6436,button_right_test,0,41,41,73,1
,,,,,,,,,,,,,,,,,5fd59761251e25405b7671df,27,2022-02-12_16h46.33.638,lexical_decision_task_DD_L4,2021.2.3,Linux aarch64,60.18295619,,,,,,,,,,0.8605,1,,,,,,,,,,,,,,,,,,,,,,,-0.362792969,-0.351482985,1,0,0,,,,,,,FINGER,C,z,y,./images/FINGER.png,,,,,,,,,,,,,,,,,,,,,0,-0.362792969,-0.351482985,1,0,0,0.8605,button_left_test,0,42,42,87,1
,,,,,,,,,,,,,,,,,5fd59761251e25405b7671df,27,2022-02-12_16h46.33.638,lexical_decision_task_DD_L4,2021.2.3,Linux aarch64,60.18295619,,,,,,,,,,0.5105,1,,,,,,,,,,,,,,,,,,,,,,,0.328613281,-0.309707811,1,0,0,,,,,,,BASKET,LB,m,y,./images/BASKETLB.png,,,,,,,,,,,,,,,,,,,,,0,0.328613281,-0.309707811,1,0,0,0.5105,button_right_test,0,43,43,44,1
,,,,,,,,,,,,,,,,,5fd59761251e25405b7671df,27,2022-02-12_16h46.33.638,lexical_decision_task_DD_L4,2021.2.3,Linux aarch64,60.18295619,,,,,,,,,,0.5434,1,,,,,,,,,,,,,,,,,,,,,,,0.321289063,-0.301027256,1,0,0,,,,,,,CRATER,C,m,y,./images/CRATER.png,,,,,,,,,,,,,,,,,,,,,0,0.321289063,-0.301027256,1,0,0,0.5434,button_right_test,0,44,44,3,1
,,,,,,,,,,,,,,,,,5fd59761251e25405b7671df,27,2022-02-12_16h46.33.638,lexical_decision_task_DD_L4,2021.2.3,Linux aarch64,60.18295619,,,,,,,,,,0.727,1,,,,,,,,,,,,,,,,,,,,,,,-0.34765625,-0.374269443,1,0,0,,,,,,,PEARL,HB,z,y,./images/PEARLHB.png,,,,,,,,,,,,,,,,,,,,,0,-0.34765625,-0.374269443,1,0,0,0.727,button_left_test,0,45,45,130,1
,,,,,,,,,,,,,,,,,5fd59761251e25405b7671df,27,2022-02-12_16h46.33.638,lexical_decision_task_DD_L4,2021.2.3,Linux aarch64,60.18295619,,,,,,,,,,0.5115,1,,,,,,,,,,,,,,,,,,,,,,,0.324707031,-0.307537672,1,0,0,,,,,,,VALLEY,LB,m,y,./images/VALLEYLB.png,,,,,,,,,,,,,,,,,,,,,0,0.324707031,-0.307537672,1,0,0,0.5115,button_right_test,0,46,46,68,1
,,,,,,,,,,,,,,,,,5fd59761251e25405b7671df,27,2022-02-12_16h46.33.638,lexical_decision_task_DD_L4,2021.2.3,Linux aarch64,60.18295619,,,,,,,,,,0.7452,1,,,,,,,,,,,,,,,,,,,,,,,-0.346679688,-0.346600172,1,0,0,,,,,,,RHINO,C,z,y,./images/RHINO.png,,,,,,,,,,,,,,,,,,,,,0,-0.346679688,-0.346600172,1,0,0,0.7452,button_left_test,0,47,47,93,1
,,,,,,,,,,,,,,,,,5fd59761251e25405b7671df,27,2022-02-12_16h46.33.638,lexical_decision_task_DD_L4,2021.2.3,Linux aarch64,60.18295619,,,,,,,,,,0.7114,1,,,,,,,,,,,,,,,,,,,,,,,-0.338623047,-0.343344964,1,0,0,,,,,,,LITTER,C,z,y,./images/LITTER.png,,,,,,,,,,,,,,,,,,,,,0,-0.338623047,-0.343344964,1,0,0,0.7114,button_left_test,0,48,48,162,1
,,,,,,,,,,,,,,,,,5fd59761251e25405b7671df,27,2022-02-12_16h46.33.638,lexical_decision_task_DD_L4,2021.2.3,Linux aarch64,60.18295619,,,,,,,,,,0.4954,1,,,,,,,,,,,,,,,,,,,,,,,0.329345703,-0.276070658,1,0,0,,,,,,,DONKEY,HB,m,y,./images/DONKEYHB.png,,,,,,,,,,,,,,,,,,,,,0,0.329345703,-0.276070658,1,0,0,0.4954,button_right_test,0,49,49,19,1
,,,,,,,,,,,,,,,,,5fd59761251e25405b7671df,27,2022-02-12_16h46.33.638,lexical_decision_task_DD_L4,2021.2.3,Linux aarch64,60.18295619,,,,,,,,,,0.6125,1,,,,,,,,,,,,,,,,,,,,,,,-0.331298828,-0.342259894,1,0,0,,,,,,,STORM,C,z,y,./images/STORM.png,,,,,,,,,,,,,,,,,,,,,0,-0.331298828,-0.342259894,1,0,0,0.6125,button_left_test,0,50,50,114,1
,,,,,,,,,,,,,,,,,5fd59761251e25405b7671df,27,2022-02-12_16h46.33.638,lexical_decision_task_DD_L4,2021.2.3,Linux aarch64,60.18295619,,,,,,,,,,0.495,0,,,,,,,,,,,,,,,,,,,,,,,0.424316406,-0.298857117,1,0,0,,,,,,,SNACK,HB,z,y,./images/SNACKHB.png,,,,,,,,,,,,,,,,,,,,,0,0.424316406,-0.298857117,1,0,0,0.495,button_right_test,0,51,51,157,1
,,,,,,,,,,,,,,,,,5fd59761251e25405b7671df,27,2022-02-12_16h46.33.638,lexical_decision_task_DD_L4,2021.2.3,Linux aarch64,60.18295619,,,,,,,,,,0.6143,1,,,,,,,,,,,,,,,,,,,,,,,0.419677734,-0.30265486,1,0,0,,,,,,,HEATER,LB,m,y,./images/HEATERLB.png,,,,,,,,,,,,,,,,,,,,,0,0.419677734,-0.30265486,1,0,0,0.6143,button_right_test,0,52,52,56,1
,,,,,,,,,,,,,,,,,5fd59761251e25405b7671df,27,2022-02-12_16h46.33.638,lexical_decision_task_DD_L4,2021.2.3,Linux aarch64,60.18295619,,,,,,,,,,0.5445,1,,,,,,,,,,,,,,,,,,,,,,,0.365966797,-0.292889235,1,0,0,,,,,,,BOILER,C,m,y,./images/BOILER.png,,,,,,,,,,,,,,,,,,,,,0,0.365966797,-0.292889235,1,0,0,0.5445,button_right_test,0,53,53,36,1
,,,,,,,,,,,,,,,,,5fd59761251e25405b7671df,27,2022-02-12_16h46.33.638,lexical_decision_task_DD_L4,2021.2.3,Linux aarch64,60.18295619,,,,,,,,,,0.5942,1,,,,,,,,,,,,,,,,,,,,,,,0.346679688,-0.297772047,1,0,0,,,,,,,CHAIN,C,m,y,./images/CHAIN.png,,,,,,,,,,,,,,,,,,,,,0,0.346679688,-0.297772047,1,0,0,0.5942,button_right_test,0,54,54,42,1
,,,,,,,,,,,,,,,,,5fd59761251e25405b7671df,27,2022-02-12_16h46.33.638,lexical_decision_task_DD_L4,2021.2.3,Linux aarch64,60.18295619,,,,,,,,,,0.5804,1,,,,,,,,,,,,,,,,,,,,,,,-0.398193359,-0.327611457,1,0,0,,,,,,,CANYON,HB,z,y,./images/CANYONHB.png,,,,,,,,,,,,,,,,,,,,,0,-0.398193359,-0.327611457,1,0,0,0.5804,button_left_test,0,55,55,118,1
,,,,,,,,,,,,,,,,,5fd59761251e25405b7671df,27,2022-02-12_16h46.33.638,lexical_decision_task_DD_L4,2021.2.3,Linux aarch64,60.18295619,,,,,,,,,,0.5284,1,,,,,,,,,,,,,,,,,,,,,,,0.359863281,-0.279325867,1,0,0,,,,,,,JUMPER,LB,m,y,./images/JUMPERLB.png,,,,,,,,,,,,,,,,,,,,,0,0.359863281,-0.279325867,1,0,0,0.5284,button_right_test,0,56,56,74,1
,,,,,,,,,,,,,,,,,5fd59761251e25405b7671df,27,2022-02-12_16h46.33.638,lexical_decision_task_DD_L4,2021.2.3,Linux aarch64,60.18295619,,,,,,,,,,0.5791,1,,,,,,,,,,,,,,,,,,,,,,,0.329833984,-0.273900519,1,0,0,,,,,,,WALNUT,C,m,y,./images/WALNUT.png,,,,,,,,,,,,,,,,,,,,,0,0.329833984,-0.273900519,1,0,0,0.5791,button_right_test,0,57,57,0,1
,,,,,,,,,,,,,,,,,5fd59761251e25405b7671df,27,2022-02-12_16h46.33.638,lexical_decision_task_DD_L4,2021.2.3,Linux aarch64,60.18295619,,,,,,,,,,0.7453,1,,,,,,,,,,,,,,,,,,,,,,,-0.360107422,-0.337377082,1,0,0,,,,,,,BEARD,LB,z,y,./images/BEARDLB.png,,,,,,,,,,,,,,,,,,,,,0,-0.360107422,-0.337377082,1,0,0,0.7453,button_left_test,0,58,58,86,1
,,,,,,,,,,,,,,,,,5fd59761251e25405b7671df,27,2022-02-12_16h46.33.638,lexical_decision_task_DD_L4,2021.2.3,Linux aarch64,60.18295619,,,,,,,,,,0.8596,1,,,,,,,,,,,,,,,,,,,,,,,-0.377685547,-0.323271179,1,0,0,,,,,,,WEASEL,LB,z,y,./images/WEASELLB.png,,,,,,,,,,,,,,,,,,,,,0,-0.377685547,-0.323271179,1,0,0,0.8596,button_left_test,0,59,59,164,1
,,,,,,,,,,,,,,,,,5fd59761251e25405b7671df,27,2022-02-12_16h46.33.638,lexical_decision_task_DD_L4,2021.2.3,Linux aarch64,60.18295619,,,,,,,,,,0.9452,1,,,,,,,,,,,,,,,,,,,,,,,-0.381347656,-0.316218228,1,0,0,,,,,,,SUNSET,HB,z,y,./images/SUNSETHB.png,,,,,,,,,,,,,,,,,,,,,0,-0.381347656,-0.316218228,1,0,0,0.9452,button_left_test,0,60,60,166,1
,,,,,,,,,,,,,,,,,5fd59761251e25405b7671df,27,2022-02-12_16h46.33.638,lexical_decision_task_DD_L4,2021.2.3,Linux aarch64,60.18295619,,,,,,,,,,0.6763,1,,,,,,,,,,,,,,,,,,,,,,,-0.374023438,-0.325441318,1,0,0,,,,,,,TRIPOD,C,z,y,./images/TRIPOD.png,,,,,,,,,,,,,,,,,,,,,0,-0.374023438,-0.325441318,1,0,0,0.6763,button_left_test,0,61,61,138,1
,,,,,,,,,,,,,,,,,5fd59761251e25405b7671df,27,2022-02-12_16h46.33.638,lexical_decision_task_DD_L4,2021.2.3,Linux aarch64,60.18295619,,,,,,,,,,0.6472,1,,,,,,,,,,,,,,,,,,,,,,,0.342285156,-0.285293749,1,0,0,,,,,,,MAMMAL,LB,m,y,./images/MAMMALLB.png,,,,,,,,,,,,,,,,,,,,,0,0.342285156,-0.285293749,1,0,0,0.6472,button_right_test,0,62,62,62,1
,,,,,,,,,,,,,,,,,5fd59761251e25405b7671df,27,2022-02-12_16h46.33.638,lexical_decision_task_DD_L4,2021.2.3,Linux aarch64,60.18295619,,,,,,,,,,1.8157,0,,,,,,,,,,,,,,,,,,,,,,,-0.373291016,-0.285293749,1,0,0,,,,,,,BRUSH,LB,m,y,./images/BRUSHLB.png,,,,,,,,,,,,,,,,,,,,,0,-0.373291016,-0.285293749,1,0,0,1.8157,button_left_test,0,63,63,59,1
,,,,,,,,,,,,,,,,,5fd59761251e25405b7671df,27,2022-02-12_16h46.33.638,lexical_decision_task_DD_L4,2021.2.3,Linux aarch64,60.18295619,,,,,,,,,,1.6275,1,,,,,,,,,,,,,,,,,,,,,,,0.349853516,-0.247858853,1,0,0,,,,,,,DRILL,C,m,y,./images/DRILL.png,,,,,,,,,,,,,,,,,,,,,0,0.349853516,-0.247858853,1,0,0,1.6275,button_right_test,0,64,64,81,1
,,,,,,,,,,,,,,,,,5fd59761251e25405b7671df,27,2022-02-12_16h46.33.638,lexical_decision_task_DD_L4,2021.2.3,Linux aarch64,60.18295619,,,,,,,,,,0.7102,1,,,,,,,,,,,,,,,,,,,,,,,-0.376953125,-0.316760763,1,0,0,,,,,,,BABOON,HB,z,y,./images/BABOONHB.png,,,,,,,,,,,,,,,,,,,,,0,-0.376953125,-0.316760763,1,0,0,0.7102,button_left_test,0,65,65,142,1
,,,,,,,,,,,,,,,,,5fd59761251e25405b7671df,27,2022-02-12_16h46.33.638,lexical_decision_task_DD_L4,2021.2.3,Linux aarch64,60.18295619,,,,,,,,,,0.6125,1,,,,,,,,,,,,,,,,,,,,,,,-0.380859375,-0.2923467,1,0,0,,,,,,,WRIST,HB,z,y,./images/WRISTHB.png,,,,,,,,,,,,,,,,,,,,,0,-0.380859375,-0.2923467,1,0,0,0.6125,button_left_test,0,66,66,109,1
,,,,,,,,,,,,,,,,,5fd59761251e25405b7671df,27,2022-02-12_16h46.33.638,lexical_decision_task_DD_L4,2021.2.3,Linux aarch64,60.18295619,,,,,,,,,,0.5446,1,,,,,,,,,,,,,,,,,,,,,,,0.361816406,-0.261964756,1,0,0,,,,,,,LLAMA,LB,m,y,./images/LLAMALB.png,,,,,,,,,,,,,,,,,,,,,0,0.361816406,-0.261964756,1,0,0,0.5446,button_right_test,0,67,67,35,1
,,,,,,,,,,,,,,,,,5fd59761251e25405b7671df,27,2022-02-12_16h46.33.638,lexical_decision_task_DD_L4,2021.2.3,Linux aarch64,60.18295619,,,,,,,,,,0.577,1,,,,,,,,,,,,,,,,,,,,,,,0.351074219,-0.261964756,1,0,0,,,,,,,CASINO,HB,m,y,./images/CASINOHB.png,,,,,,,,,,,,,,,,,,,,,0,0.351074219,-0.261964756,1,0,0,0.577,button_right_test,0,68,68,28,1
,,,,,,,,,,,,,,,,,5fd59761251e25405b7671df,27,2022-02-12_16h46.33.638,lexical_decision_task_DD_L4,2021.2.3,Linux aarch64,60.18295619,,,,,,,,,,0.4959,1,,,,,,,,,,,,,,,,,,,,,,,0.349609375,-0.270102776,1,0,0,,,,,,,MONKEY,C,m,y,./images/MONKEY.png,,,,,,,,,,,,,,,,,,,,,0,0.349609375,-0.270102776,1,0,0,0.4959,button_right_test,0,69,69,45,1
,,,,,,,,,,,,,,,,,5fd59761251e25405b7671df,27,2022-02-12_16h46.33.638,lexical_decision_task_DD_L4,2021.2.3,Linux aarch64,60.18295619,,,,,,,,,,0.6267,1,,,,,,,,,,,,,,,,,,,,,,,0.352050781,-0.277155728,1,0,0,,,,,,,TIGER,HB,m,y,./images/TIGERHB.png,,,,,,,,,,,,,,,,,,,,,0,0.352050781,-0.277155728,1,0,0,0.6267,button_right_test,0,70,70,37,1
,,,,,,,,,,,,,,,,,5fd59761251e25405b7671df,27,2022-02-12_16h46.33.638,lexical_decision_task_DD_L4,2021.2.3,Linux aarch64,60.18295619,,,,,,,,,,0.4122,0,,,,,,,,,,,,,,,,,,,,,,,0.344970703,-0.269560242,1,0,0,,,,,,,MALLET,LB,z,y,./images/MALLETLB.png,,,,,,,,,,,,,,,,,,,,,0,0.344970703,-0.269560242,1,0,0,0.4122,button_right_test,0,71,71,134,1
,,,,,,,,,,,,,,,,,5fd59761251e25405b7671df,27,2022-02-12_16h46.33.638,lexical_decision_task_DD_L4,2021.2.3,Linux aarch64,60.18295619,,,,,,,,,,1.0425,0,,,,,,,,,,,,,,,,,,,,,,,-0.366699219,-0.315133158,1,0,0,,,,,,,GRANNY,LB,m,y,./images/GRANNYLB.png,,,,,,,,,,,,,,,,,,,,,0,-0.366699219,-0.315133158,1,0,0,1.0425,button_left_test,0,72,72,20,1
,,,,,,,,,,,,,,,,,5fd59761251e25405b7671df,27,2022-02-12_16h46.33.638,lexical_decision_task_DD_L4,2021.2.3,Linux aarch64,60.18295619,,,,,,,,,,1.2466,1,,,,,,,,,,,,,,,,,,,,,,,0.339111328,-0.269560242,1,0,0,,,,,,,CANOE,HB,m,y,./images/CANOEHB.png,,,,,,,,,,,,,,,,,,,,,0,0.339111328,-0.269560242,1,0,0,1.2466,button_right_test,0,73,73,58,1
,,,,,,,,,,,,,,,,,5fd59761251e25405b7671df,27,2022-02-12_16h46.33.638,lexical_decision_task_DD_L4,2021.2.3,Linux aarch64,60.18295619,,,,,,,,,,0.6941,1,,,,,,,,,,,,,,,,,,,,,,,-0.372802734,-0.309165276,1,0,0,,,,,,,JAGUAR,C,z,y,./images/JAGUAR.png,,,,,,,,,,,,,,,,,,,,,0,-0.372802734,-0.309165276,1,0,0,0.6941,button_left_test,0,74,74,102,1
,,,,,,,,,,,,,,,,,5fd59761251e25405b7671df,27,2022-02-12_16h46.33.638,lexical_decision_task_DD_L4,2021.2.3,Linux aarch64,60.18295619,,,,,,,,,,0.9468,0,,,,,,,,,,,,,,,,,,,,,,,-0.369140625,-0.299942186,1,0,0,,,,,,,SPINE,LB,m,y,./images/SPINELB.png,,,,,,,,,,,,,,,,,,,,,0,-0.369140625,-0.299942186,1,0,0,0.9468,button_left_test,0,75,75,65,1
,,,,,,,,,,,,,,,,,5fd59761251e25405b7671df,27,2022-02-12_16h46.33.638,lexical_decision_task_DD_L4,2021.2.3,Linux aarch64,60.18295619,,,,,,,,,,0.4953,1,,,,,,,,,,,,,,,,,,,,,,,0.352050781,-0.269560242,1,0,0,,,,,,,STREAM,LB,m,y,./images/STREAMLB.png,,,,,,,,,,,,,,,,,,,,,0,0.352050781,-0.269560242,1,0,0,0.4953,button_right_test,0,76,76,41,1
,,,,,,,,,,,,,,,,,5fd59761251e25405b7671df,27,2022-02-12_16h46.33.638,lexical_decision_task_DD_L4,2021.2.3,Linux aarch64,60.18295619,,,,,,,,,,0.763,1,,,,,,,,,,,,,,,,,,,,,,,-0.372070313,-0.324356249,1,0,0,,,,,,,MUFFIN,HB,z,y,./images/MUFFINHB.png,,,,,,,,,,,,,,,,,,,,,0,-0.372070313,-0.324356249,1,0,0,0.763,button_left_test,0,77,77,139,1
,,,,,,,,,,,,,,,,,5fd59761251e25405b7671df,27,2022-02-12_16h46.33.638,lexical_decision_task_DD_L4,2021.2.3,Linux aarch64,60.18295619,,,,,,,,,,0.6448,1,,,,,,,,,,,,,,,,,,,,,,,0.383300781,-0.289634026,1,0,0,,,,,,,ARTIST,HB,m,y,./images/ARTISTHB.png,,,,,,,,,,,,,,,,,,,,,0,0.383300781,-0.289634026,1,0,0,0.6448,button_right_test,0,78,78,61,1
,,,,,,,,,,,,,,,,,5fd59761251e25405b7671df,27,2022-02-12_16h46.33.638,lexical_decision_task_DD_L4,2021.2.3,Linux aarch64,60.18295619,,,,,,,,,,0.6269,1,,,,,,,,,,,,,,,,,,,,,,,0.389648438,-0.293974304,1,0,0,,,,,,,SAUNA,C,m,y,./images/SAUNA.png,,,,,,,,,,,,,,,,,,,,,0,0.389648438,-0.293974304,1,0,0,0.6269,button_right_test,0,79,79,33,1
,,,,,,,,,,,,,,,,,5fd59761251e25405b7671df,27,2022-02-12_16h46.33.638,lexical_decision_task_DD_L4,2021.2.3,Linux aarch64,60.18295619,,,,,,,,,,0.6624,1,,,,,,,,,,,,,,,,,,,,,,,0.392333984,-0.303197394,1,0,0,,,,,,,SNAKE,HB,m,y,./images/SNAKEHB.png,,,,,,,,,,,,,,,,,,,,,0,0.392333984,-0.303197394,1,0,0,0.6624,button_right_test,0,80,80,40,1
,,,,,,,,,,,,,,,,,5fd59761251e25405b7671df,27,2022-02-12_16h46.33.638,lexical_decision_task_DD_L4,2021.2.3,Linux aarch64,60.18295619,,,,,,,,,,0.5801,1,,,,,,,,,,,,,,,,,,,,,,,0.3984375,-0.295601908,1,0,0,,,,,,,ARROW,C,m,y,./images/ARROW.png,,,,,,,,,,,,,,,,,,,,,0,0.3984375,-0.295601908,1,0,0,0.5801,button_right_test,0,81,81,69,1
,,,,,,,,,,,,,,,,,5fd59761251e25405b7671df,27,2022-02-12_16h46.33.638,lexical_decision_task_DD_L4,2021.2.3,Linux aarch64,60.18295619,,,,,,,,,,0.6116,1,,,,,,,,,,,,,,,,,,,,,,,-0.353515625,-0.381322394,1,0,0,,,,,,,SQUARE,C,z,y,./images/SQUARE.png,,,,,,,,,,,,,,,,,,,,,0,-0.353515625,-0.381322394,1,0,0,0.6116,button_left_test,0,82,82,90,1
,,,,,,,,,,,,,,,,,5fd59761251e25405b7671df,27,2022-02-12_16h46.33.638,lexical_decision_task_DD_L4,2021.2.3,Linux aarch64,60.18295619,,,,,,,,,,0.9094,1,,,,,,,,,,,,,,,,,,,,,,,0.047607422,-0.403566318,1,0,0,,,,,,,WAGON,HB,m,y,./images/WAGONHB.png,break_done_button,,,,,,,,,,,,,,,,,,,,0,0.380126953,-0.310792881,1,0,0,0.9094,button_right_test,0,83,83,7,1
,,,,,,,,,,,,,,,,,5fd59761251e25405b7671df,27,2022-02-12_16h46.33.638,lexical_decision_task_DD_L4,2021.2.3,Linux aarch64,60.18295619,,,,,,,,,,0.8424,1,,,,,,,,,,,,,,,,,,,,,,,-0.432128906,-0.343344964,1,0,0,,,,,,,KITTEN,C,z,y,./images/KITTEN.png,,,,,,,,,,,,,,,,,,,,,0,-0.432128906,-0.343344964,1,0,0,0.8424,button_left_test,0,84,84,129,1
,,,,,,,,,,,,,,,,,5fd59761251e25405b7671df,27,2022-02-12_16h46.33.638,lexical_decision_task_DD_L4,2021.2.3,Linux aarch64,60.18295619,,,,,,,,,,0.7102,1,,,,,,,,,,,,,,,,,,,,,,,-0.354248047,-0.375897047,1,0,0,,,,,,,BANNER,HB,z,y,./images/BANNERHB.png,,,,,,,,,,,,,,,,,,,,,0,-0.354248047,-0.375897047,1,0,0,0.7102,button_left_test,0,85,85,136,1
,,,,,,,,,,,,,,,,,5fd59761251e25405b7671df,27,2022-02-12_16h46.33.638,lexical_decision_task_DD_L4,2021.2.3,Linux aarch64,60.18295619,,,,,,,,,,0.5949,1,,,,,,,,,,,,,,,,,,,,,,,-0.345214844,-0.346600172,1,0,0,,,,,,,CARPET,LB,z,y,./images/CARPETLB.png,,,,,,,,,,,,,,,,,,,,,0,-0.345214844,-0.346600172,1,0,0,0.5949,button_left_test,0,86,86,137,1
,,,,,,,,,,,,,,,,,5fd59761251e25405b7671df,27,2022-02-12_16h46.33.638,lexical_decision_task_DD_L4,2021.2.3,Linux aarch64,60.18295619,,,,,,,,,,0.478,1,,,,,,,,,,,,,,,,,,,,,,,-0.340087891,-0.349312846,1,0,0,,,,,,,TWINS,C,z,y,./images/TWINS.png,,,,,,,,,,,,,,,,,,,,,0,-0.340087891,-0.349312846,1,0,0,0.478,button_left_test,0,87,87,144,1
