key_resp.keys,key_resp.rt,instr_done_touch.x,instr_done_touch.y,instr_done_touch.leftButton,instr_done_touch.midButton,instr_done_touch.rightButton,instruction_pages.thisRepN,instruction_pages.thisTrialN,instruction_pages.thisN,instruction_pages.thisIndex,instruction_pages.ran,pageN,phase,instruct_text,has_image,instruct_image,participant,age,date,expName,psychopyVersion,OS,frameRate,response.keys,response.corr,response.rt,touch_resp.x,touch_resp.y,touch_resp.leftButton,touch_resp.midButton,touch_resp.rightButton,touch_resp.time,touch_resp.clicked_name,rt,corr,practrials.thisRepN,practrials.thisTrialN,practrials.thisN,practrials.thisIndex,practrials.ran,TrialID,Target,corrAns,end_of_practice_trials_pages.thisRepN,end_of_practice_trials_pages.thisTrialN,end_of_practice_trials_pages.thisN,end_of_practice_trials_pages.thisIndex,end_of_practice_trials_pages.ran,key_resp_2.keys,key_resp_2.corr,key_resp_2.rt,targ_click.x,targ_click.y,targ_click.leftButton,targ_click.midButton,targ_click.rightButton,targ_click.time,targ_click.clicked_name,break_done_touch.x,break_done_touch.y,break_done_touch.leftButton,break_done_touch.midButton,break_done_touch.rightButton,break_done_keyboard.keys,maintrials.thisRepN,maintrials.thisTrialN,maintrials.thisN,maintrials.thisIndex,maintrials.ran,string,blur,study,lex,stim_path,break_done_keyboard.rt,mouse_2.x,mouse_2.y,mouse_2.leftButton,mouse_2.midButton,mouse_2.rightButton,mouse_2.clicked_name,slider.response,slider.rt,trials.thisRepN,trials.thisTrialN,trials.thisN,trials.thisIndex,trials.ran,instr_done_touch.clicked_name,test_instructions.thisRepN,test_instructions.thisTrialN,test_instructions.thisN,test_instructions.thisIndex,test_instructions.ran,key_resp_3.keys,key_resp_3.corr,key_resp_3.rt,test_click.x,test_click.y,test_click.leftButton,test_click.midButton,test_click.rightButton,test_click.time,test_click.clicked_name,test_phase.thisRepN,test_phase.thisTrialN,test_phase.thisN,test_phase.thisIndex,test_phase.ran
space,15.852,0.260416667,-0.25,0,0,0,0,0,0,0,1,1,instructions,"INSTRUCTIONS
At the start of each trial, look at the plus sign  (+) in the center of the screen.  This tells you that a trial is about to begin and where to look. Second, the plus sign will disappear and a string of letters will appear. Your task is to determine if the string of letters is a word or not. If the item is a word press the M key (on keyboard)  or touch the word button (phone/tablet).  If the item is not a word,  press the  Z key (on keyboard)  or touch the nonword button (on phone/tablet). 
Press the space bar or touch  continue.",0,,5fea7bd6c92395acf31ae3a7,47,2022-02-12_12h55.20.667,lexical_decision_task_DD_L3,2021.2.3,Win32,59.95203837,,,,,,,,,,,,,,,,,,,,,,,,,,,,,,,,,,,,,,,,,,,,,,,,,,,,,,,,,,,,,,,,,,,,,,,,,,,,,,,,,,,,,,
space,4.062,0.260416667,-0.25,0,0,0,0,1,1,1,1,2,instructions,"If your device has a keyboard, press the 'Z' key for nonwords and the 'M' key for words.





Press the space bar or touch the button below to continue.",0,keyboard-example.gif,5fea7bd6c92395acf31ae3a7,47,2022-02-12_12h55.20.667,lexical_decision_task_DD_L3,2021.2.3,Win32,59.95203837,,,,,,,,,,,,,,,,,,,,,,,,,,,,,,,,,,,,,,,,,,,,,,,,,,,,,,,,,,,,,,,,,,,,,,,,,,,,,,,,,,,,,,
space,3.703,0.260416667,-0.25,0,0,0,0,2,2,2,1,3,instructions,"If you are using a touchscreen only device, use the buttons on the screen. Do not use the mouse.





Press the space bar or touch the button below to continue.",0,touchscreen-example.gif,5fea7bd6c92395acf31ae3a7,47,2022-02-12_12h55.20.667,lexical_decision_task_DD_L3,2021.2.3,Win32,59.95203837,,,,,,,,,,,,,,,,,,,,,,,,,,,,,,,,,,,,,,,,,,,,,,,,,,,,,,,,,,,,,,,,,,,,,,,,,,,,,,,,,,,,,,
space,10.122,0.260416667,-0.25,0,0,0,0,3,3,3,1,4,instructions,"It is very important that you respond as quickly and accurately as possible, as each letter string will only be on the screen for two seconds. If you do not respond within this time, the message 'Too slow!' will be displayed and the experiment will progress to the next letter string. The first 20 trials will be practice trials and you will receive feedback on your answers. 

Press the space bar or touch the button below to start the practice trials.",0,,5fea7bd6c92395acf31ae3a7,47,2022-02-12_12h55.20.667,lexical_decision_task_DD_L3,2021.2.3,Win32,59.95203837,,,,,,,,,,,,,,,,,,,,,,,,,,,,,,,,,,,,,,,,,,,,,,,,,,,,,,,,,,,,,,,,,,,,,,,,,,,,,,,,,,,,,,
,,,,,,,,,,,,,,,,,5fea7bd6c92395acf31ae3a7,47,2022-02-12_12h55.20.667,lexical_decision_task_DD_L3,2021.2.3,Win32,59.95203837,z,1,1.978,,,,,,,,1.978,1,0,0,0,14,1,1001,THRALE,z,,,,,,,,,,,,,,,,,,,,,,,,,,,,,,,,,,,,,,,,,,,,,,,,,,,,,,,,,,,,,,,,,,
,,,,,,,,,,,,,,,,,5fea7bd6c92395acf31ae3a7,47,2022-02-12_12h55.20.667,lexical_decision_task_DD_L3,2021.2.3,Win32,59.95203837,z,1,1.022,,,,,,,,1.022,1,0,1,1,12,1,1001,SPRINY,z,,,,,,,,,,,,,,,,,,,,,,,,,,,,,,,,,,,,,,,,,,,,,,,,,,,,,,,,,,,,,,,,,,
,,,,,,,,,,,,,,,,,5fea7bd6c92395acf31ae3a7,47,2022-02-12_12h55.20.667,lexical_decision_task_DD_L3,2021.2.3,Win32,59.95203837,m,1,0.883,,,,,,,,0.883,1,0,2,2,2,1,1001,ALMOND,m,,,,,,,,,,,,,,,,,,,,,,,,,,,,,,,,,,,,,,,,,,,,,,,,,,,,,,,,,,,,,,,,,,
,,,,,,,,,,,,,,,,,5fea7bd6c92395acf31ae3a7,47,2022-02-12_12h55.20.667,lexical_decision_task_DD_L3,2021.2.3,Win32,59.95203837,m,1,0.731,,,,,,,,0.731,1,0,3,3,4,1,1001,SQUEAK,m,,,,,,,,,,,,,,,,,,,,,,,,,,,,,,,,,,,,,,,,,,,,,,,,,,,,,,,,,,,,,,,,,,
,,,,,,,,,,,,,,,,,5fea7bd6c92395acf31ae3a7,47,2022-02-12_12h55.20.667,lexical_decision_task_DD_L3,2021.2.3,Win32,59.95203837,m,1,0.848,,,,,,,,0.848,1,0,4,4,6,1,1001,ZOMBIE,m,,,,,,,,,,,,,,,,,,,,,,,,,,,,,,,,,,,,,,,,,,,,,,,,,,,,,,,,,,,,,,,,,,
,,,,,,,,,,,,,,,,,5fea7bd6c92395acf31ae3a7,47,2022-02-12_12h55.20.667,lexical_decision_task_DD_L3,2021.2.3,Win32,59.95203837,m,1,0.883,,,,,,,,0.883,1,0,5,5,0,1,1001,UTOPIA,m,,,,,,,,,,,,,,,,,,,,,,,,,,,,,,,,,,,,,,,,,,,,,,,,,,,,,,,,,,,,,,,,,,
,,,,,,,,,,,,,,,,,5fea7bd6c92395acf31ae3a7,47,2022-02-12_12h55.20.667,lexical_decision_task_DD_L3,2021.2.3,Win32,59.95203837,z,1,0.78,,,,,,,,0.78,1,0,6,6,11,1,1001,RASHET,z,,,,,,,,,,,,,,,,,,,,,,,,,,,,,,,,,,,,,,,,,,,,,,,,,,,,,,,,,,,,,,,,,,
,,,,,,,,,,,,,,,,,5fea7bd6c92395acf31ae3a7,47,2022-02-12_12h55.20.667,lexical_decision_task_DD_L3,2021.2.3,Win32,59.95203837,z,1,0.814,,,,,,,,0.814,1,0,7,7,10,1,1001,INLADE,z,,,,,,,,,,,,,,,,,,,,,,,,,,,,,,,,,,,,,,,,,,,,,,,,,,,,,,,,,,,,,,,,,,
,,,,,,,,,,,,,,,,,5fea7bd6c92395acf31ae3a7,47,2022-02-12_12h55.20.667,lexical_decision_task_DD_L3,2021.2.3,Win32,59.95203837,z,1,0.982,,,,,,,,0.982,1,0,8,8,8,1,1001,ASLERT,z,,,,,,,,,,,,,,,,,,,,,,,,,,,,,,,,,,,,,,,,,,,,,,,,,,,,,,,,,,,,,,,,,,
,,,,,,,,,,,,,,,,,5fea7bd6c92395acf31ae3a7,47,2022-02-12_12h55.20.667,lexical_decision_task_DD_L3,2021.2.3,Win32,59.95203837,z,1,0.923,,,,,,,,0.923,1,0,9,9,15,1,1001,WHAISE,z,,,,,,,,,,,,,,,,,,,,,,,,,,,,,,,,,,,,,,,,,,,,,,,,,,,,,,,,,,,,,,,,,,
,,,,,,,,,,,,,,,,,5fea7bd6c92395acf31ae3a7,47,2022-02-12_12h55.20.667,lexical_decision_task_DD_L3,2021.2.3,Win32,59.95203837,z,1,0.752,,,,,,,,0.752,1,0,10,10,13,1,1001,ROUPET,z,,,,,,,,,,,,,,,,,,,,,,,,,,,,,,,,,,,,,,,,,,,,,,,,,,,,,,,,,,,,,,,,,,
,,,,,,,,,,,,,,,,,5fea7bd6c92395acf31ae3a7,47,2022-02-12_12h55.20.667,lexical_decision_task_DD_L3,2021.2.3,Win32,59.95203837,m,1,0.784,,,,,,,,0.784,1,0,11,11,7,1,1001,VOLUME,m,,,,,,,,,,,,,,,,,,,,,,,,,,,,,,,,,,,,,,,,,,,,,,,,,,,,,,,,,,,,,,,,,,
,,,,,,,,,,,,,,,,,5fea7bd6c92395acf31ae3a7,47,2022-02-12_12h55.20.667,lexical_decision_task_DD_L3,2021.2.3,Win32,59.95203837,m,1,0.912,,,,,,,,0.912,1,0,12,12,3,1,1001,MATRIX,m,,,,,,,,,,,,,,,,,,,,,,,,,,,,,,,,,,,,,,,,,,,,,,,,,,,,,,,,,,,,,,,,,,
,,,,,,,,,,,,,,,,,5fea7bd6c92395acf31ae3a7,47,2022-02-12_12h55.20.667,lexical_decision_task_DD_L3,2021.2.3,Win32,59.95203837,m,1,0.847,,,,,,,,0.847,1,0,13,13,5,1,1001,OBTAIN,m,,,,,,,,,,,,,,,,,,,,,,,,,,,,,,,,,,,,,,,,,,,,,,,,,,,,,,,,,,,,,,,,,,
,,,,,,,,,,,,,,,,,5fea7bd6c92395acf31ae3a7,47,2022-02-12_12h55.20.667,lexical_decision_task_DD_L3,2021.2.3,Win32,59.95203837,z,1,0.886,,,,,,,,0.886,1,0,14,14,9,1,1001,FARINY,z,,,,,,,,,,,,,,,,,,,,,,,,,,,,,,,,,,,,,,,,,,,,,,,,,,,,,,,,,,,,,,,,,,
,,,,,,,,,,,,,,,,,5fea7bd6c92395acf31ae3a7,47,2022-02-12_12h55.20.667,lexical_decision_task_DD_L3,2021.2.3,Win32,59.95203837,m,1,0.805,,,,,,,,0.805,1,0,15,15,1,1,1001,ADJUST,m,,,,,,,,,,,,,,,,,,,,,,,,,,,,,,,,,,,,,,,,,,,,,,,,,,,,,,,,,,,,,,,,,,
space,4.37,0.260416667,-0.25,0,0,0,,,,,,1,end_of_practice,"You have completed the practice trials. During the experimental trials, you will not receive feedback. 
Before you begin, please ensure that you are in a comfortable and quiet location and will not be disturbed for about 15 minutes, as we cannot use your data if you do not complete all the trials. 
 When you are ready to start the experimental trials, please press space or touch the button below.",,,5fea7bd6c92395acf31ae3a7,47,2022-02-12_12h55.20.667,lexical_decision_task_DD_L3,2021.2.3,Win32,59.95203837,,,,,,,,,,,,,,,,,,,,,0,0,0,0,1,,,,,,,,,,,,,,,,,,,,,,,,,,,,,,,,,,,,,,,,,,,,,,,,,,,,,,,,,,,,,
,,,,,,,,,,,,,,,,,5fea7bd6c92395acf31ae3a7,47,2022-02-12_12h55.20.667,lexical_decision_task_DD_L3,2021.2.3,Win32,59.95203837,,,,,,,,,,,1.707,1,,,,,,,,,,,,,,m,1,1.707,,,,,,,,0.260416667,-0.25,0,0,0,,0,0,0,81,1,POODLE,LB,old,m,./images/POODLELB.png,,,,,,,,,,,,,,,,,,,,,,,,,,,,,,,,,,,
,,,,,,,,,,,,,,,,,5fea7bd6c92395acf31ae3a7,47,2022-02-12_12h55.20.667,lexical_decision_task_DD_L3,2021.2.3,Win32,59.95203837,,,,,,,,,,,0.921,1,,,,,,,,,,,,,,z,1,0.921,,,,,,,,0.260416667,-0.25,0,0,0,,0,1,1,152,1,FRAIN,LB,old,z,./images/FRAINLB.png,,,,,,,,,,,,,,,,,,,,,,,,,,,,,,,,,,,
,,,,,,,,,,,,,,,,,5fea7bd6c92395acf31ae3a7,47,2022-02-12_12h55.20.667,lexical_decision_task_DD_L3,2021.2.3,Win32,59.95203837,,,,,,,,,,,1.036,1,,,,,,,,,,,,,,z,1,1.036,,,,,,,,0.260416667,-0.25,0,0,0,,0,2,2,137,1,JOOST,LB,old,z,./images/JOOSTLB.png,,,,,,,,,,,,,,,,,,,,,,,,,,,,,,,,,,,
,,,,,,,,,,,,,,,,,5fea7bd6c92395acf31ae3a7,47,2022-02-12_12h55.20.667,lexical_decision_task_DD_L3,2021.2.3,Win32,59.95203837,,,,,,,,,,,2.785,1,,,,,,,,,,,,,,z,1,2.785,,,,,,,,0.260416667,-0.25,0,0,0,,0,3,3,94,1,BLANS,HB,old,z,./images/BLANSHB.png,,,,,,,,,,,,,,,,,,,,,,,,,,,,,,,,,,,
,,,,,,,,,,,,,,,,,5fea7bd6c92395acf31ae3a7,47,2022-02-12_12h55.20.667,lexical_decision_task_DD_L3,2021.2.3,Win32,59.95203837,,,,,,,,,,,1.123,1,,,,,,,,,,,,,,z,1,1.123,,,,,,,,0.260416667,-0.25,0,0,0,,0,4,4,88,1,GLUSH,HB,old,z,./images/GLUSHHB.png,,,,,,,,,,,,,,,,,,,,,,,,,,,,,,,,,,,
,,,,,,,,,,,,,,,,,5fea7bd6c92395acf31ae3a7,47,2022-02-12_12h55.20.667,lexical_decision_task_DD_L3,2021.2.3,Win32,59.95203837,,,,,,,,,,,1.235,1,,,,,,,,,,,,,,z,1,1.235,,,,,,,,0.260416667,-0.25,0,0,0,,0,5,5,116,1,BALGY,LB,old,z,./images/BALGYLB.png,,,,,,,,,,,,,,,,,,,,,,,,,,,,,,,,,,,
,,,,,,,,,,,,,,,,,5fea7bd6c92395acf31ae3a7,47,2022-02-12_12h55.20.667,lexical_decision_task_DD_L3,2021.2.3,Win32,59.95203837,,,,,,,,,,,1.76,1,,,,,,,,,,,,,,z,1,1.76,,,,,,,,0.260416667,-0.25,0,0,0,,0,6,6,133,1,POWDY,HB,old,z,./images/POWDYHB.png,,,,,,,,,,,,,,,,,,,,,,,,,,,,,,,,,,,
,,,,,,,,,,,,,,,,,5fea7bd6c92395acf31ae3a7,47,2022-02-12_12h55.20.667,lexical_decision_task_DD_L3,2021.2.3,Win32,59.95203837,,,,,,,,,,,1.31,1,,,,,,,,,,,,,,m,1,1.31,,,,,,,,0.260416667,-0.25,0,0,0,,0,7,7,50,1,MALLET,HB,old,m,./images/MALLETHB.png,,,,,,,,,,,,,,,,,,,,,,,,,,,,,,,,,,,
,,,,,,,,,,,,,,,,,5fea7bd6c92395acf31ae3a7,47,2022-02-12_12h55.20.667,lexical_decision_task_DD_L3,2021.2.3,Win32,59.95203837,,,,,,,,,,,0.847,1,,,,,,,,,,,,,,z,1,0.847,,,,,,,,0.260416667,-0.25,0,0,0,,0,8,8,95,1,HANTY,LB,old,z,./images/HANTYLB.png,,,,,,,,,,,,,,,,,,,,,,,,,,,,,,,,,,,
,,,,,,,,,,,,,,,,,5fea7bd6c92395acf31ae3a7,47,2022-02-12_12h55.20.667,lexical_decision_task_DD_L3,2021.2.3,Win32,59.95203837,,,,,,,,,,,1.278,1,,,,,,,,,,,,,,m,1,1.278,,,,,,,,0.260416667,-0.25,0,0,0,,0,9,9,38,1,LADDER,HB,old,m,./images/LADDERHB.png,,,,,,,,,,,,,,,,,,,,,,,,,,,,,,,,,,,
,,,,,,,,,,,,,,,,,5fea7bd6c92395acf31ae3a7,47,2022-02-12_12h55.20.667,lexical_decision_task_DD_L3,2021.2.3,Win32,59.95203837,,,,,,,,,,,1.126,1,,,,,,,,,,,,,,m,1,1.126,,,,,,,,0.260416667,-0.25,0,0,0,,0,10,10,6,1,SQUARE,LB,old,m,./images/SQUARELB.png,,,,,,,,,,,,,,,,,,,,,,,,,,,,,,,,,,,
,,,,,,,,,,,,,,,,,5fea7bd6c92395acf31ae3a7,47,2022-02-12_12h55.20.667,lexical_decision_task_DD_L3,2021.2.3,Win32,59.95203837,,,,,,,,,,,0.866,1,,,,,,,,,,,,,,m,1,0.866,,,,,,,,0.260416667,-0.25,0,0,0,,0,11,11,62,1,PURSE,HB,old,m,./images/PURSEHB.png,,,,,,,,,,,,,,,,,,,,,,,,,,,,,,,,,,,
,,,,,,,,,,,,,,,,,5fea7bd6c92395acf31ae3a7,47,2022-02-12_12h55.20.667,lexical_decision_task_DD_L3,2021.2.3,Win32,59.95203837,,,,,,,,,,,0.714,1,,,,,,,,,,,,,,m,1,0.714,,,,,,,,0.260416667,-0.25,0,0,0,,0,12,12,14,1,PICKLE,HB,old,m,./images/PICKLEHB.png,,,,,,,,,,,,,,,,,,,,,,,,,,,,,,,,,,,
,,,,,,,,,,,,,,,,,5fea7bd6c92395acf31ae3a7,47,2022-02-12_12h55.20.667,lexical_decision_task_DD_L3,2021.2.3,Win32,59.95203837,,,,,,,,,,,0.887,1,,,,,,,,,,,,,,z,1,0.887,,,,,,,,0.260416667,-0.25,0,0,0,,0,13,13,105,1,MOKER,C,old,z,./images/MOKER.png,,,,,,,,,,,,,,,,,,,,,,,,,,,,,,,,,,,
,,,,,,,,,,,,,,,,,5fea7bd6c92395acf31ae3a7,47,2022-02-12_12h55.20.667,lexical_decision_task_DD_L3,2021.2.3,Win32,59.95203837,,,,,,,,,,,1.105,1,,,,,,,,,,,,,,m,1,1.105,,,,,,,,0.260416667,-0.25,0,0,0,,0,14,14,5,1,PASTA,HB,old,m,./images/PASTAHB.png,,,,,,,,,,,,,,,,,,,,,,,,,,,,,,,,,,,
,,,,,,,,,,,,,,,,,5fea7bd6c92395acf31ae3a7,47,2022-02-12_12h55.20.667,lexical_decision_task_DD_L3,2021.2.3,Win32,59.95203837,,,,,,,,,,,0.862,1,,,,,,,,,,,,,,m,1,0.862,,,,,,,,0.260416667,-0.25,0,0,0,,0,15,15,64,1,JELLY,C,old,m,./images/JELLY.png,,,,,,,,,,,,,,,,,,,,,,,,,,,,,,,,,,,
,,,,,,,,,,,,,,,,,5fea7bd6c92395acf31ae3a7,47,2022-02-12_12h55.20.667,lexical_decision_task_DD_L3,2021.2.3,Win32,59.95203837,,,,,,,,,,,0.72,1,,,,,,,,,,,,,,m,1,0.72,,,,,,,,0.260416667,-0.25,0,0,0,,0,16,16,7,1,PAINT,C,old,m,./images/PAINT.png,,,,,,,,,,,,,,,,,,,,,,,,,,,,,,,,,,,
,,,,,,,,,,,,,,,,,5fea7bd6c92395acf31ae3a7,47,2022-02-12_12h55.20.667,lexical_decision_task_DD_L3,2021.2.3,Win32,59.95203837,,,,,,,,,,,2.189,1,,,,,,,,,,,,,,z,1,2.189,,,,,,,,0.260416667,-0.25,0,0,0,,0,17,17,85,1,CHULK,HB,old,z,./images/CHULKHB.png,,,,,,,,,,,,,,,,,,,,,,,,,,,,,,,,,,,
,,,,,,,,,,,,,,,,,5fea7bd6c92395acf31ae3a7,47,2022-02-12_12h55.20.667,lexical_decision_task_DD_L3,2021.2.3,Win32,59.95203837,,,,,,,,,,,1.035,1,,,,,,,,,,,,,,m,1,1.035,,,,,,,,0.260416667,-0.25,0,0,0,,0,18,18,25,1,WRIST,C,old,m,./images/WRIST.png,,,,,,,,,,,,,,,,,,,,,,,,,,,,,,,,,,,
,,,,,,,,,,,,,,,,,5fea7bd6c92395acf31ae3a7,47,2022-02-12_12h55.20.667,lexical_decision_task_DD_L3,2021.2.3,Win32,59.95203837,,,,,,,,,,,1.59,1,,,,,,,,,,,,,,z,1,1.59,,,,,,,,0.260416667,-0.25,0,0,0,,0,19,19,159,1,CUDDY,C,old,z,./images/CUDDY.png,,,,,,,,,,,,,,,,,,,,,,,,,,,,,,,,,,,
,,,,,,,,,,,,,,,,,5fea7bd6c92395acf31ae3a7,47,2022-02-12_12h55.20.667,lexical_decision_task_DD_L3,2021.2.3,Win32,59.95203837,,,,,,,,,,,0.987,1,,,,,,,,,,,,,,m,1,0.987,,,,,,,,0.260416667,-0.25,0,0,0,,0,20,20,36,1,THROAT,LB,old,m,./images/THROATLB.png,,,,,,,,,,,,,,,,,,,,,,,,,,,,,,,,,,,
,,,,,,,,,,,,,,,,,5fea7bd6c92395acf31ae3a7,47,2022-02-12_12h55.20.667,lexical_decision_task_DD_L3,2021.2.3,Win32,59.95203837,,,,,,,,,,,0.8,1,,,,,,,,,,,,,,m,1,0.8,,,,,,,,0.260416667,-0.25,0,0,0,,0,21,21,48,1,SPORT,LB,old,m,./images/SPORTLB.png,,,,,,,,,,,,,,,,,,,,,,,,,,,,,,,,,,,
,,,,,,,,,,,,,,,,,5fea7bd6c92395acf31ae3a7,47,2022-02-12_12h55.20.667,lexical_decision_task_DD_L3,2021.2.3,Win32,59.95203837,,,,,,,,,,,1.203,1,,,,,,,,,,,,,,m,1,1.203,,,,,,,,0.260416667,-0.25,0,0,0,,0,22,22,43,1,MOSQUE,C,old,m,./images/MOSQUE.png,,,,,,,,,,,,,,,,,,,,,,,,,,,,,,,,,,,
,,,,,,,,,,,,,,,,,5fea7bd6c92395acf31ae3a7,47,2022-02-12_12h55.20.667,lexical_decision_task_DD_L3,2021.2.3,Win32,59.95203837,,,,,,,,,,,0.95,1,,,,,,,,,,,,,,z,1,0.95,,,,,,,,0.260416667,-0.25,0,0,0,,0,23,23,135,1,JOODY,C,old,z,./images/JOODY.png,,,,,,,,,,,,,,,,,,,,,,,,,,,,,,,,,,,
,,,,,,,,,,,,,,,,,5fea7bd6c92395acf31ae3a7,47,2022-02-12_12h55.20.667,lexical_decision_task_DD_L3,2021.2.3,Win32,59.95203837,,,,,,,,,,,0.917,1,,,,,,,,,,,,,,z,1,0.917,,,,,,,,0.260416667,-0.25,0,0,0,,0,24,24,87,1,TRING,C,old,z,./images/TRING.png,,,,,,,,,,,,,,,,,,,,,,,,,,,,,,,,,,,
,,,,,,,,,,,,,,,,,5fea7bd6c92395acf31ae3a7,47,2022-02-12_12h55.20.667,lexical_decision_task_DD_L3,2021.2.3,Win32,59.95203837,,,,,,,,,,,1.516,1,,,,,,,,,,,,,,z,1,1.516,,,,,,,,0.260416667,-0.25,0,0,0,,0,25,25,136,1,WERVE,HB,old,z,./images/WERVEHB.png,,,,,,,,,,,,,,,,,,,,,,,,,,,,,,,,,,,
,,,,,,,,,,,,,,,,,5fea7bd6c92395acf31ae3a7,47,2022-02-12_12h55.20.667,lexical_decision_task_DD_L3,2021.2.3,Win32,59.95203837,,,,,,,,,,,1.037,1,,,,,,,,,,,,,,z,1,1.037,,,,,,,,0.260416667,-0.25,0,0,0,,0,26,26,119,1,PAFER,LB,old,z,./images/PAFERLB.png,,,,,,,,,,,,,,,,,,,,,,,,,,,,,,,,,,,
,,,,,,,,,,,,,,,,,5fea7bd6c92395acf31ae3a7,47,2022-02-12_12h55.20.667,lexical_decision_task_DD_L3,2021.2.3,Win32,59.95203837,,,,,,,,,,,0.822,1,,,,,,,,,,,,,,m,1,0.822,,,,,,,,0.260416667,-0.25,0,0,0,,0,27,27,27,1,ATTIC,LB,old,m,./images/ATTICLB.png,,,,,,,,,,,,,,,,,,,,,,,,,,,,,,,,,,,
,,,,,,,,,,,,,,,,,5fea7bd6c92395acf31ae3a7,47,2022-02-12_12h55.20.667,lexical_decision_task_DD_L3,2021.2.3,Win32,59.95203837,,,,,,,,,,,1.378,1,,,,,,,,,,,,,,m,1,1.378,,,,,,,,0.260416667,-0.25,0,0,0,,0,28,28,47,1,BERRY,HB,old,m,./images/BERRYHB.png,,,,,,,,,,,,,,,,,,,,,,,,,,,,,,,,,,,
,,,,,,,,,,,,,,,,,5fea7bd6c92395acf31ae3a7,47,2022-02-12_12h55.20.667,lexical_decision_task_DD_L3,2021.2.3,Win32,59.95203837,,,,,,,,,,,1.618,1,,,,,,,,,,,,,,m,1,1.618,,,,,,,,0.260416667,-0.25,0,0,0,,0,29,29,26,1,SMOKER,HB,old,m,./images/SMOKERHB.png,,,,,,,,,,,,,,,,,,,,,,,,,,,,,,,,,,,
,,,,,,,,,,,,,,,,,5fea7bd6c92395acf31ae3a7,47,2022-02-12_12h55.20.667,lexical_decision_task_DD_L3,2021.2.3,Win32,59.95203837,,,,,,,,,,,1.257,1,,,,,,,,,,,,,,m,1,1.257,,,,,,,,0.260416667,-0.25,0,0,0,,0,30,30,56,1,PACKET,HB,old,m,./images/PACKETHB.png,,,,,,,,,,,,,,,,,,,,,,,,,,,,,,,,,,,
,,,,,,,,,,,,,,,,,5fea7bd6c92395acf31ae3a7,47,2022-02-12_12h55.20.667,lexical_decision_task_DD_L3,2021.2.3,Win32,59.95203837,,,,,,,,,,,1.141,1,,,,,,,,,,,,,,z,1,1.141,,,,,,,,0.260416667,-0.25,0,0,0,,0,31,31,96,1,KEAMS,C,old,z,./images/KEAMS.png,,,,,,,,,,,,,,,,,,,,,,,,,,,,,,,,,,,
,,,,,,,,,,,,,,,,,5fea7bd6c92395acf31ae3a7,47,2022-02-12_12h55.20.667,lexical_decision_task_DD_L3,2021.2.3,Win32,59.95203837,,,,,,,,,,,1.372,1,,,,,,,,,,,,,,z,1,1.372,,,,,,,,0.260416667,-0.25,0,0,0,,0,32,32,158,1,EGECT,LB,old,z,./images/EGECTLB.png,,,,,,,,,,,,,,,,,,,,,,,,,,,,,,,,,,,
,,,,,,,,,,,,,,,,,5fea7bd6c92395acf31ae3a7,47,2022-02-12_12h55.20.667,lexical_decision_task_DD_L3,2021.2.3,Win32,59.95203837,,,,,,,,,,,1.105,1,,,,,,,,,,,,,,m,1,1.105,,,,,,,,0.260416667,-0.25,0,0,0,,0,33,33,54,1,TRIPOD,LB,old,m,./images/TRIPODLB.png,,,,,,,,,,,,,,,,,,,,,,,,,,,,,,,,,,,
,,,,,,,,,,,,,,,,,5fea7bd6c92395acf31ae3a7,47,2022-02-12_12h55.20.667,lexical_decision_task_DD_L3,2021.2.3,Win32,59.95203837,,,,,,,,,,,0.991,1,,,,,,,,,,,,,,m,1,0.991,,,,,,,,0.260416667,-0.25,0,0,0,,0,34,34,46,1,PEARL,C,old,m,./images/PEARL.png,,,,,,,,,,,,,,,,,,,,,,,,,,,,,,,,,,,
,,,,,,,,,,,,,,,,,5fea7bd6c92395acf31ae3a7,47,2022-02-12_12h55.20.667,lexical_decision_task_DD_L3,2021.2.3,Win32,59.95203837,,,,,,,,,,,1.076,1,,,,,,,,,,,,,,z,1,1.076,,,,,,,,0.260416667,-0.25,0,0,0,,0,35,35,104,1,GITTY,LB,old,z,./images/GITTYLB.png,,,,,,,,,,,,,,,,,,,,,,,,,,,,,,,,,,,
,,,,,,,,,,,,,,,,,5fea7bd6c92395acf31ae3a7,47,2022-02-12_12h55.20.667,lexical_decision_task_DD_L3,2021.2.3,Win32,59.95203837,,,,,,,,,,,1.096,1,,,,,,,,,,,,,,m,1,1.096,,,,,,,,0.260416667,-0.25,0,0,0,,0,36,36,60,1,TWINS,LB,old,m,./images/TWINSLB.png,,,,,,,,,,,,,,,,,,,,,,,,,,,,,,,,,,,
,,,,,,,,,,,,,,,,,5fea7bd6c92395acf31ae3a7,47,2022-02-12_12h55.20.667,lexical_decision_task_DD_L3,2021.2.3,Win32,59.95203837,,,,,,,,,,,0.89,1,,,,,,,,,,,,,,m,1,0.89,,,,,,,,0.260416667,-0.25,0,0,0,,0,37,37,10,1,BELLY,C,old,m,./images/BELLY.png,,,,,,,,,,,,,,,,,,,,,,,,,,,,,,,,,,,
,,,,,,,,,,,,,,,,,5fea7bd6c92395acf31ae3a7,47,2022-02-12_12h55.20.667,lexical_decision_task_DD_L3,2021.2.3,Win32,59.95203837,,,,,,,,,,,1.217,1,,,,,,,,,,,,,,m,1,1.217,,,,,,,,0.260416667,-0.25,0,0,0,,0,38,38,49,1,DRUMS,C,old,m,./images/DRUMS.png,,,,,,,,,,,,,,,,,,,,,,,,,,,,,,,,,,,
,,,,,,,,,,,,,,,,,5fea7bd6c92395acf31ae3a7,47,2022-02-12_12h55.20.667,lexical_decision_task_DD_L3,2021.2.3,Win32,59.95203837,,,,,,,,,,,1.768,1,,,,,,,,,,,,,,m,1,1.768,,,,,,,,0.260416667,-0.25,0,0,0,,0,39,39,8,1,TULIP,HB,old,m,./images/TULIPHB.png,,,,,,,,,,,,,,,,,,,,,,,,,,,,,,,,,,,
,,,,,,,,,,,,,,,,,5fea7bd6c92395acf31ae3a7,47,2022-02-12_12h55.20.667,lexical_decision_task_DD_L3,2021.2.3,Win32,59.95203837,,,,,,,,,,,0.807,1,,,,,,,,,,,,,,m,1,0.807,,,,,,,,0.260416667,-0.25,0,0,0,,0,40,40,78,1,LITTER,LB,old,m,./images/LITTERLB.png,,,,,,,,,,,,,,,,,,,,,,,,,,,,,,,,,,,
,,,,,,,,,,,,,,,,,5fea7bd6c92395acf31ae3a7,47,2022-02-12_12h55.20.667,lexical_decision_task_DD_L3,2021.2.3,Win32,59.95203837,,,,,,,,,,,0.734,1,,,,,,,,,,,,,,m,1,0.734,,,,,,,,0.260416667,-0.25,0,0,0,space,0,41,41,13,1,MOTOR,C,old,m,./images/MOTOR.png,7.891,,,,,,,,,,,,,,,,,,,,,,,,,,,,,,,,,,
,,,,,,,,,,,,,,,,,5fea7bd6c92395acf31ae3a7,47,2022-02-12_12h55.20.667,lexical_decision_task_DD_L3,2021.2.3,Win32,59.95203837,,,,,,,,,,,1.056,1,,,,,,,,,,,,,,m,1,1.056,,,,,,,,0.260416667,-0.25,0,0,0,,0,42,42,30,1,STORM,LB,old,m,./images/STORMLB.png,,,,,,,,,,,,,,,,,,,,,,,,,,,,,,,,,,,
,,,,,,,,,,,,,,,,,5fea7bd6c92395acf31ae3a7,47,2022-02-12_12h55.20.667,lexical_decision_task_DD_L3,2021.2.3,Win32,59.95203837,,,,,,,,,,,0.939,1,,,,,,,,,,,,,,m,1,0.939,,,,,,,,0.260416667,-0.25,0,0,0,,0,43,43,61,1,CANDLE,C,old,m,./images/CANDLE.png,,,,,,,,,,,,,,,,,,,,,,,,,,,,,,,,,,,
,,,,,,,,,,,,,,,,,5fea7bd6c92395acf31ae3a7,47,2022-02-12_12h55.20.667,lexical_decision_task_DD_L3,2021.2.3,Win32,59.95203837,,,,,,,,,,,1.52,1,,,,,,,,,,,,,,m,1,1.52,,,,,,,,0.260416667,-0.25,0,0,0,,0,44,44,65,1,FARMER,HB,old,m,./images/FARMERHB.png,,,,,,,,,,,,,,,,,,,,,,,,,,,,,,,,,,,
,,,,,,,,,,,,,,,,,5fea7bd6c92395acf31ae3a7,47,2022-02-12_12h55.20.667,lexical_decision_task_DD_L3,2021.2.3,Win32,59.95203837,,,,,,,,,,,0.877,1,,,,,,,,,,,,,,z,1,0.877,,,,,,,,0.260416667,-0.25,0,0,0,,0,45,45,93,1,SMONE,C,old,z,./images/SMONE.png,,,,,,,,,,,,,,,,,,,,,,,,,,,,,,,,,,,
,,,,,,,,,,,,,,,,,5fea7bd6c92395acf31ae3a7,47,2022-02-12_12h55.20.667,lexical_decision_task_DD_L3,2021.2.3,Win32,59.95203837,,,,,,,,,,,0.899,1,,,,,,,,,,,,,,m,1,0.899,,,,,,,,0.260416667,-0.25,0,0,0,,0,46,46,4,1,MUSCLE,C,old,m,./images/MUSCLE.png,,,,,,,,,,,,,,,,,,,,,,,,,,,,,,,,,,,
,,,,,,,,,,,,,,,,,5fea7bd6c92395acf31ae3a7,47,2022-02-12_12h55.20.667,lexical_decision_task_DD_L3,2021.2.3,Win32,59.95203837,,,,,,,,,,,0.82,1,,,,,,,,,,,,,,z,1,0.82,,,,,,,,0.260416667,-0.25,0,0,0,,0,47,47,167,1,ZONET,LB,old,z,./images/ZONETLB.png,,,,,,,,,,,,,,,,,,,,,,,,,,,,,,,,,,,
,,,,,,,,,,,,,,,,,5fea7bd6c92395acf31ae3a7,47,2022-02-12_12h55.20.667,lexical_decision_task_DD_L3,2021.2.3,Win32,59.95203837,,,,,,,,,,,1.034,1,,,,,,,,,,,,,,z,1,1.034,,,,,,,,0.260416667,-0.25,0,0,0,,0,48,48,162,1,LEICH,C,old,z,./images/LEICH.png,,,,,,,,,,,,,,,,,,,,,,,,,,,,,,,,,,,
,,,,,,,,,,,,,,,,,5fea7bd6c92395acf31ae3a7,47,2022-02-12_12h55.20.667,lexical_decision_task_DD_L3,2021.2.3,Win32,59.95203837,,,,,,,,,,,1.13,1,,,,,,,,,,,,,,m,1,1.13,,,,,,,,0.260416667,-0.25,0,0,0,,0,49,49,44,1,LIZARD,HB,old,m,./images/LIZARDHB.png,,,,,,,,,,,,,,,,,,,,,,,,,,,,,,,,,,,
,,,,,,,,,,,,,,,,,5fea7bd6c92395acf31ae3a7,47,2022-02-12_12h55.20.667,lexical_decision_task_DD_L3,2021.2.3,Win32,59.95203837,,,,,,,,,,,0.94,1,,,,,,,,,,,,,,m,1,0.94,,,,,,,,0.260416667,-0.25,0,0,0,,0,50,50,76,1,INFANT,C,old,m,./images/INFANT.png,,,,,,,,,,,,,,,,,,,,,,,,,,,,,,,,,,,
,,,,,,,,,,,,,,,,,5fea7bd6c92395acf31ae3a7,47,2022-02-12_12h55.20.667,lexical_decision_task_DD_L3,2021.2.3,Win32,59.95203837,,,,,,,,,,,0.757,1,,,,,,,,,,,,,,z,1,0.757,,,,,,,,0.260416667,-0.25,0,0,0,,0,51,51,90,1,NEAST,C,old,z,./images/NEAST.png,,,,,,,,,,,,,,,,,,,,,,,,,,,,,,,,,,,
,,,,,,,,,,,,,,,,,5fea7bd6c92395acf31ae3a7,47,2022-02-12_12h55.20.667,lexical_decision_task_DD_L3,2021.2.3,Win32,59.95203837,,,,,,,,,,,1.087,1,,,,,,,,,,,,,,z,1,1.087,,,,,,,,0.260416667,-0.25,0,0,0,,0,52,52,113,1,LINEW,LB,old,z,./images/LINEWLB.png,,,,,,,,,,,,,,,,,,,,,,,,,,,,,,,,,,,
,,,,,,,,,,,,,,,,,5fea7bd6c92395acf31ae3a7,47,2022-02-12_12h55.20.667,lexical_decision_task_DD_L3,2021.2.3,Win32,59.95203837,,,,,,,,,,,2.488,0,,,,,,,,,,,,,,m,0,2.488,,,,,,,,0.260416667,-0.25,0,0,0,,0,53,53,130,1,CRILL,HB,old,z,./images/CRILLHB.png,,,,,,,,,,,,,,,,,,,,,,,,,,,,,,,,,,,
,,,,,,,,,,,,,,,,,5fea7bd6c92395acf31ae3a7,47,2022-02-12_12h55.20.667,lexical_decision_task_DD_L3,2021.2.3,Win32,59.95203837,,,,,,,,,,,0.83,1,,,,,,,,,,,,,,m,1,0.83,,,,,,,,0.260416667,-0.25,0,0,0,,0,54,54,40,1,SWING,C,old,m,./images/SWING.png,,,,,,,,,,,,,,,,,,,,,,,,,,,,,,,,,,,
,,,,,,,,,,,,,,,,,5fea7bd6c92395acf31ae3a7,47,2022-02-12_12h55.20.667,lexical_decision_task_DD_L3,2021.2.3,Win32,59.95203837,,,,,,,,,,,1.051,1,,,,,,,,,,,,,,z,1,1.051,,,,,,,,0.260416667,-0.25,0,0,0,,0,55,55,117,1,STEEG,C,old,z,./images/STEEG.png,,,,,,,,,,,,,,,,,,,,,,,,,,,,,,,,,,,
,,,,,,,,,,,,,,,,,5fea7bd6c92395acf31ae3a7,47,2022-02-12_12h55.20.667,lexical_decision_task_DD_L3,2021.2.3,Win32,59.95203837,,,,,,,,,,,0.782,1,,,,,,,,,,,,,,m,1,0.782,,,,,,,,0.260416667,-0.25,0,0,0,,0,56,56,33,1,MAGGOT,LB,old,m,./images/MAGGOTLB.png,,,,,,,,,,,,,,,,,,,,,,,,,,,,,,,,,,,
,,,,,,,,,,,,,,,,,5fea7bd6c92395acf31ae3a7,47,2022-02-12_12h55.20.667,lexical_decision_task_DD_L3,2021.2.3,Win32,59.95203837,,,,,,,,,,,1.67,0,,,,,,,,,,,,,,m,0,1.67,,,,,,,,0.260416667,-0.25,0,0,0,,0,57,57,110,1,CRUNK,LB,old,z,./images/CRUNKLB.png,,,,,,,,,,,,,,,,,,,,,,,,,,,,,,,,,,,
,,,,,,,,,,,,,,,,,5fea7bd6c92395acf31ae3a7,47,2022-02-12_12h55.20.667,lexical_decision_task_DD_L3,2021.2.3,Win32,59.95203837,,,,,,,,,,,0.774,1,,,,,,,,,,,,,,z,1,0.774,,,,,,,,0.260416667,-0.25,0,0,0,,0,58,58,150,1,NOOLS,C,old,z,./images/NOOLS.png,,,,,,,,,,,,,,,,,,,,,,,,,,,,,,,,,,,
,,,,,,,,,,,,,,,,,5fea7bd6c92395acf31ae3a7,47,2022-02-12_12h55.20.667,lexical_decision_task_DD_L3,2021.2.3,Win32,59.95203837,,,,,,,,,,,1.315,1,,,,,,,,,,,,,,z,1,1.315,,,,,,,,0.260416667,-0.25,0,0,0,,0,59,59,112,1,MYING,HB,old,z,./images/MYINGHB.png,,,,,,,,,,,,,,,,,,,,,,,,,,,,,,,,,,,
,,,,,,,,,,,,,,,,,5fea7bd6c92395acf31ae3a7,47,2022-02-12_12h55.20.667,lexical_decision_task_DD_L3,2021.2.3,Win32,59.95203837,,,,,,,,,,,1.8,1,,,,,,,,,,,,,,m,1,1.8,,,,,,,,0.260416667,-0.25,0,0,0,,0,60,60,17,1,SKIING,HB,old,m,./images/SKIINGHB.png,,,,,,,,,,,,,,,,,,,,,,,,,,,,,,,,,,,
,,,,,,,,,,,,,,,,,5fea7bd6c92395acf31ae3a7,47,2022-02-12_12h55.20.667,lexical_decision_task_DD_L3,2021.2.3,Win32,59.95203837,,,,,,,,,,,0.872,1,,,,,,,,,,,,,,z,1,0.872,,,,,,,,0.260416667,-0.25,0,0,0,,0,61,61,164,1,SGREW,LB,old,z,./images/SGREWLB.png,,,,,,,,,,,,,,,,,,,,,,,,,,,,,,,,,,,
,,,,,,,,,,,,,,,,,5fea7bd6c92395acf31ae3a7,47,2022-02-12_12h55.20.667,lexical_decision_task_DD_L3,2021.2.3,Win32,59.95203837,,,,,,,,,,,0.804,1,,,,,,,,,,,,,,z,1,0.804,,,,,,,,0.260416667,-0.25,0,0,0,,0,62,62,102,1,DULLE,C,old,z,./images/DULLE.png,,,,,,,,,,,,,,,,,,,,,,,,,,,,,,,,,,,
,,,,,,,,,,,,,,,,,5fea7bd6c92395acf31ae3a7,47,2022-02-12_12h55.20.667,lexical_decision_task_DD_L3,2021.2.3,Win32,59.95203837,,,,,,,,,,,0.801,1,,,,,,,,,,,,,,z,1,0.801,,,,,,,,0.260416667,-0.25,0,0,0,,0,63,63,143,1,MONGS,LB,old,z,./images/MONGSLB.png,,,,,,,,,,,,,,,,,,,,,,,,,,,,,,,,,,,
,,,,,,,,,,,,,,,,,5fea7bd6c92395acf31ae3a7,47,2022-02-12_12h55.20.667,lexical_decision_task_DD_L3,2021.2.3,Win32,59.95203837,,,,,,,,,,,0.706,1,,,,,,,,,,,,,,m,1,0.706,,,,,,,,0.260416667,-0.25,0,0,0,,0,64,64,67,1,SAILOR,C,old,m,./images/SAILOR.png,,,,,,,,,,,,,,,,,,,,,,,,,,,,,,,,,,,
,,,,,,,,,,,,,,,,,5fea7bd6c92395acf31ae3a7,47,2022-02-12_12h55.20.667,lexical_decision_task_DD_L3,2021.2.3,Win32,59.95203837,,,,,,,,,,,1.306,1,,,,,,,,,,,,,,z,1,1.306,,,,,,,,0.260416667,-0.25,0,0,0,,0,65,65,131,1,NACES,LB,old,z,./images/NACESLB.png,,,,,,,,,,,,,,,,,,,,,,,,,,,,,,,,,,,
,,,,,,,,,,,,,,,,,5fea7bd6c92395acf31ae3a7,47,2022-02-12_12h55.20.667,lexical_decision_task_DD_L3,2021.2.3,Win32,59.95203837,,,,,,,,,,,1.918,1,,,,,,,,,,,,,,z,1,1.918,,,,,,,,0.260416667,-0.25,0,0,0,,0,66,66,97,1,CHIDS,HB,old,z,./images/CHIDSHB.png,,,,,,,,,,,,,,,,,,,,,,,,,,,,,,,,,,,
,,,,,,,,,,,,,,,,,5fea7bd6c92395acf31ae3a7,47,2022-02-12_12h55.20.667,lexical_decision_task_DD_L3,2021.2.3,Win32,59.95203837,,,,,,,,,,,0.762,1,,,,,,,,,,,,,,z,1,0.762,,,,,,,,0.260416667,-0.25,0,0,0,,0,67,67,147,1,ZOLES,C,old,z,./images/ZOLES.png,,,,,,,,,,,,,,,,,,,,,,,,,,,,,,,,,,,
,,,,,,,,,,,,,,,,,5fea7bd6c92395acf31ae3a7,47,2022-02-12_12h55.20.667,lexical_decision_task_DD_L3,2021.2.3,Win32,59.95203837,,,,,,,,,,,2.021,0,,,,,,,,,,,,,,m,0,2.021,,,,,,,,0.260416667,-0.25,0,0,0,,0,68,68,100,1,DRIBS,HB,old,z,./images/DRIBSHB.png,,,,,,,,,,,,,,,,,,,,,,,,,,,,,,,,,,,
,,,,,,,,,,,,,,,,,5fea7bd6c92395acf31ae3a7,47,2022-02-12_12h55.20.667,lexical_decision_task_DD_L3,2021.2.3,Win32,59.95203837,,,,,,,,,,,0.842,1,,,,,,,,,,,,,,z,1,0.842,,,,,,,,0.260416667,-0.25,0,0,0,,0,69,69,161,1,BLAPS,LB,old,z,./images/BLAPSLB.png,,,,,,,,,,,,,,,,,,,,,,,,,,,,,,,,,,,
,,,,,,,,,,,,,,,,,5fea7bd6c92395acf31ae3a7,47,2022-02-12_12h55.20.667,lexical_decision_task_DD_L3,2021.2.3,Win32,59.95203837,,,,,,,,,,,1.267,1,,,,,,,,,,,,,,z,1,1.267,,,,,,,,0.260416667,-0.25,0,0,0,,0,70,70,91,1,SHENS,HB,old,z,./images/SHENSHB.png,,,,,,,,,,,,,,,,,,,,,,,,,,,,,,,,,,,
,,,,,,,,,,,,,,,,,5fea7bd6c92395acf31ae3a7,47,2022-02-12_12h55.20.667,lexical_decision_task_DD_L3,2021.2.3,Win32,59.95203837,,,,,,,,,,,1.332,1,,,,,,,,,,,,,,z,1,1.332,,,,,,,,0.260416667,-0.25,0,0,0,,0,71,71,151,1,TINKY,HB,old,z,./images/TINKYHB.png,,,,,,,,,,,,,,,,,,,,,,,,,,,,,,,,,,,
,,,,,,,,,,,,,,,,,5fea7bd6c92395acf31ae3a7,47,2022-02-12_12h55.20.667,lexical_decision_task_DD_L3,2021.2.3,Win32,59.95203837,,,,,,,,,,,1.256,1,,,,,,,,,,,,,,m,1,1.256,,,,,,,,0.260416667,-0.25,0,0,0,,0,72,72,32,1,BARREL,HB,old,m,./images/BARRELHB.png,,,,,,,,,,,,,,,,,,,,,,,,,,,,,,,,,,,
,,,,,,,,,,,,,,,,,5fea7bd6c92395acf31ae3a7,47,2022-02-12_12h55.20.667,lexical_decision_task_DD_L3,2021.2.3,Win32,59.95203837,,,,,,,,,,,1.685,1,,,,,,,,,,,,,,m,1,1.685,,,,,,,,0.260416667,-0.25,0,0,0,,0,73,73,29,1,CRUMB,HB,old,m,./images/CRUMBHB.png,,,,,,,,,,,,,,,,,,,,,,,,,,,,,,,,,,,
,,,,,,,,,,,,,,,,,5fea7bd6c92395acf31ae3a7,47,2022-02-12_12h55.20.667,lexical_decision_task_DD_L3,2021.2.3,Win32,59.95203837,,,,,,,,,,,0.803,1,,,,,,,,,,,,,,m,1,0.803,,,,,,,,0.260416667,-0.25,0,0,0,,0,74,74,52,1,BANNER,C,old,m,./images/BANNER.png,,,,,,,,,,,,,,,,,,,,,,,,,,,,,,,,,,,
,,,,,,,,,,,,,,,,,5fea7bd6c92395acf31ae3a7,47,2022-02-12_12h55.20.667,lexical_decision_task_DD_L3,2021.2.3,Win32,59.95203837,,,,,,,,,,,1.073,1,,,,,,,,,,,,,,m,1,1.073,,,,,,,,0.260416667,-0.25,0,0,0,,0,75,75,21,1,KIDNEY,LB,old,m,./images/KIDNEYLB.png,,,,,,,,,,,,,,,,,,,,,,,,,,,,,,,,,,,
,,,,,,,,,,,,,,,,,5fea7bd6c92395acf31ae3a7,47,2022-02-12_12h55.20.667,lexical_decision_task_DD_L3,2021.2.3,Win32,59.95203837,,,,,,,,,,,0.698,1,,,,,,,,,,,,,,m,1,0.698,,,,,,,,0.260416667,-0.25,0,0,0,,0,76,76,15,1,GREASE,LB,old,m,./images/GREASELB.png,,,,,,,,,,,,,,,,,,,,,,,,,,,,,,,,,,,
,,,,,,,,,,,,,,,,,5fea7bd6c92395acf31ae3a7,47,2022-02-12_12h55.20.667,lexical_decision_task_DD_L3,2021.2.3,Win32,59.95203837,,,,,,,,,,,0.697,1,,,,,,,,,,,,,,m,1,0.697,,,,,,,,0.260416667,-0.25,0,0,0,,0,77,77,70,1,URINE,C,old,m,./images/URINE.png,,,,,,,,,,,,,,,,,,,,,,,,,,,,,,,,,,,
,,,,,,,,,,,,,,,,,5fea7bd6c92395acf31ae3a7,47,2022-02-12_12h55.20.667,lexical_decision_task_DD_L3,2021.2.3,Win32,59.95203837,,,,,,,,,,,0.634,1,,,,,,,,,,,,,,m,1,0.634,,,,,,,,0.260416667,-0.25,0,0,0,,0,78,78,22,1,MELON,C,old,m,./images/MELON.png,,,,,,,,,,,,,,,,,,,,,,,,,,,,,,,,,,,
,,,,,,,,,,,,,,,,,5fea7bd6c92395acf31ae3a7,47,2022-02-12_12h55.20.667,lexical_decision_task_DD_L3,2021.2.3,Win32,59.95203837,,,,,,,,,,,0.888,1,,,,,,,,,,,,,,m,1,0.888,,,,,,,,0.260416667,-0.25,0,0,0,,0,79,79,42,1,FOLDER,LB,old,m,./images/FOLDERLB.png,,,,,,,,,,,,,,,,,,,,,,,,,,,,,,,,,,,
,,,,,,,,,,,,,,,,,5fea7bd6c92395acf31ae3a7,47,2022-02-12_12h55.20.667,lexical_decision_task_DD_L3,2021.2.3,Win32,59.95203837,,,,,,,,,,,0.845,1,,,,,,,,,,,,,,m,1,0.845,,,,,,,,0.260416667,-0.25,0,0,0,,0,80,80,31,1,QUILL,C,old,m,./images/QUILL.png,,,,,,,,,,,,,,,,,,,,,,,,,,,,,,,,,,,
,,,,,,,,,,,,,,,,,5fea7bd6c92395acf31ae3a7,47,2022-02-12_12h55.20.667,lexical_decision_task_DD_L3,2021.2.3,Win32,59.95203837,,,,,,,,,,,0.669,1,,,,,,,,,,,,,,m,1,0.669,,,,,,,,0.260416667,-0.25,0,0,0,,0,81,81,73,1,SNACK,C,old,m,./images/SNACK.png,,,,,,,,,,,,,,,,,,,,,,,,,,,,,,,,,,,
,,,,,,,,,,,,,,,,,5fea7bd6c92395acf31ae3a7,47,2022-02-12_12h55.20.667,lexical_decision_task_DD_L3,2021.2.3,Win32,59.95203837,,,,,,,,,,,1.532,1,,,,,,,,,,,,,,z,1,1.532,,,,,,,,0.260416667,-0.25,0,0,0,,0,82,82,139,1,BLEAR,HB,old,z,./images/BLEARHB.png,,,,,,,,,,,,,,,,,,,,,,,,,,,,,,,,,,,
,,,,,,,,,,,,,,,,,5fea7bd6c92395acf31ae3a7,47,2022-02-12_12h55.20.667,lexical_decision_task_DD_L3,2021.2.3,Win32,59.95203837,,,,,,,,,,,0.859,1,,,,,,,,,,,,,,z,1,0.859,,,,,,,,0.260416667,-0.25,0,0,0,space,0,83,83,98,1,BAMPS,LB,old,z,./images/BAMPSLB.png,9.795,,,,,,,,,,,,,,,,,,,,,,,,,,,,,,,,,,
,,,,,,,,,,,,,,,,,5fea7bd6c92395acf31ae3a7,47,2022-02-12_12h55.20.667,lexical_decision_task_DD_L3,2021.2.3,Win32,59.95203837,,,,,,,,,,,2.231,1,,,,,,,,,,,,,,m,1,2.231,,,,,,,,0.260416667,-0.25,0,0,0,,0,84,84,2,1,BEARD,HB,old,m,./images/BEARDHB.png,,,,,,,,,,,,,,,,,,,,,,,,,,,,,,,,,,,
,,,,,,,,,,,,,,,,,5fea7bd6c92395acf31ae3a7,47,2022-02-12_12h55.20.667,lexical_decision_task_DD_L3,2021.2.3,Win32,59.95203837,,,,,,,,,,,0.915,1,,,,,,,,,,,,,,m,1,0.915,,,,,,,,0.260416667,-0.25,0,0,0,,0,85,85,69,1,COOKER,LB,old,m,./images/COOKERLB.png,,,,,,,,,,,,,,,,,,,,,,,,,,,,,,,,,,,
,,,,,,,,,,,,,,,,,5fea7bd6c92395acf31ae3a7,47,2022-02-12_12h55.20.667,lexical_decision_task_DD_L3,2021.2.3,Win32,59.95203837,,,,,,,,,,,0.706,1,,,,,,,,,,,,,,z,1,0.706,,,,,,,,0.260416667,-0.25,0,0,0,,0,86,86,86,1,AIFED,LB,old,z,./images/AIFEDLB.png,,,,,,,,,,,,,,,,,,,,,,,,,,,,,,,,,,,
,,,,,,,,,,,,,,,,,5fea7bd6c92395acf31ae3a7,47,2022-02-12_12h55.20.667,lexical_decision_task_DD_L3,2021.2.3,Win32,59.95203837,,,,,,,,,,,0.824,1,,,,,,,,,,,,,,z,1,0.824,,,,,,,,0.260416667,-0.25,0,0,0,,0,87,87,132,1,SCIFF,C,old,z,./images/SCIFF.png,,,,,,,,,,,,,,,,,,,,,,,,,,,,,,,,,,,
,,,,,,,,,,,,,,,,,5fea7bd6c92395acf31ae3a7,47,2022-02-12_12h55.20.667,lexical_decision_task_DD_L3,2021.2.3,Win32,59.95203837,,,,,,,,,,,1.416,1,,,,,,,,,,,,,,z,1,1.416,,,,,,,,0.260416667,-0.25,0,0,0,,0,88,88,157,1,INLER,HB,old,z,./images/INLERHB.png,,,,,,,,,,,,,,,,,,,,,,,,,,,,,,,,,,,
,,,,,,,,,,,,,,,,,5fea7bd6c92395acf31ae3a7,47,2022-02-12_12h55.20.667,lexical_decision_task_DD_L3,2021.2.3,Win32,59.95203837,,,,,,,,,,,1.321,1,,,,,,,,,,,,,,z,1,1.321,,,,,,,,0.260416667,-0.25,0,0,0,,0,89,89,148,1,JOMS,HB,old,z,./images/JOMSHB.png,,,,,,,,,,,,,,,,,,,,,,,,,,,,,,,,,,,
,,,,,,,,,,,,,,,,,5fea7bd6c92395acf31ae3a7,47,2022-02-12_12h55.20.667,lexical_decision_task_DD_L3,2021.2.3,Win32,59.95203837,,,,,,,,,,,1.398,1,,,,,,,,,,,,,,z,1,1.398,,,,,,,,0.260416667,-0.25,0,0,0,,0,90,90,115,1,MAWNS,HB,old,z,./images/MAWNSHB.png,,,,,,,,,,,,,,,,,,,,,,,,,,,,,,,,,,,
,,,,,,,,,,,,,,,,,5fea7bd6c92395acf31ae3a7,47,2022-02-12_12h55.20.667,lexical_decision_task_DD_L3,2021.2.3,Win32,59.95203837,,,,,,,,,,,0.752,1,,,,,,,,,,,,,,z,1,0.752,,,,,,,,0.260416667,-0.25,0,0,0,,0,91,91,134,1,TROSS,LB,old,z,./images/TROSSLB.png,,,,,,,,,,,,,,,,,,,,,,,,,,,,,,,,,,,
,,,,,,,,,,,,,,,,,5fea7bd6c92395acf31ae3a7,47,2022-02-12_12h55.20.667,lexical_decision_task_DD_L3,2021.2.3,Win32,59.95203837,,,,,,,,,,,0.814,1,,,,,,,,,,,,,,m,1,0.814,,,,,,,,0.260416667,-0.25,0,0,0,,0,92,92,71,1,PIMPLE,HB,old,m,./images/PIMPLEHB.png,,,,,,,,,,,,,,,,,,,,,,,,,,,,,,,,,,,
,,,,,,,,,,,,,,,,,5fea7bd6c92395acf31ae3a7,47,2022-02-12_12h55.20.667,lexical_decision_task_DD_L3,2021.2.3,Win32,59.95203837,,,,,,,,,,,0.807,1,,,,,,,,,,,,,,m,1,0.807,,,,,,,,0.260416667,-0.25,0,0,0,,0,93,93,37,1,BIRTH,C,old,m,./images/BIRTH.png,,,,,,,,,,,,,,,,,,,,,,,,,,,,,,,,,,,
,,,,,,,,,,,,,,,,,5fea7bd6c92395acf31ae3a7,47,2022-02-12_12h55.20.667,lexical_decision_task_DD_L3,2021.2.3,Win32,59.95203837,,,,,,,,,,,0.99,1,,,,,,,,,,,,,,z,1,0.99,,,,,,,,0.260416667,-0.25,0,0,0,,0,94,94,144,1,NAIRY,C,old,z,./images/NAIRY.png,,,,,,,,,,,,,,,,,,,,,,,,,,,,,,,,,,,
,,,,,,,,,,,,,,,,,5fea7bd6c92395acf31ae3a7,47,2022-02-12_12h55.20.667,lexical_decision_task_DD_L3,2021.2.3,Win32,59.95203837,,,,,,,,,,,1.307,1,,,,,,,,,,,,,,m,1,1.307,,,,,,,,0.260416667,-0.25,0,0,0,,0,95,95,0,1,TOMATO,LB,old,m,./images/TOMATOLB.png,,,,,,,,,,,,,,,,,,,,,,,,,,,,,,,,,,,
,,,,,,,,,,,,,,,,,5fea7bd6c92395acf31ae3a7,47,2022-02-12_12h55.20.667,lexical_decision_task_DD_L3,2021.2.3,Win32,59.95203837,,,,,,,,,,,0.812,1,,,,,,,,,,,,,,z,1,0.812,,,,,,,,0.260416667,-0.25,0,0,0,,0,96,96,146,1,MOOST,LB,old,z,./images/MOOSTLB.png,,,,,,,,,,,,,,,,,,,,,,,,,,,,,,,,,,,
,,,,,,,,,,,,,,,,,5fea7bd6c92395acf31ae3a7,47,2022-02-12_12h55.20.667,lexical_decision_task_DD_L3,2021.2.3,Win32,59.95203837,,,,,,,,,,,1.266,1,,,,,,,,,,,,,,m,1,1.266,,,,,,,,0.260416667,-0.25,0,0,0,,0,97,97,72,1,NOOSE,LB,old,m,./images/NOOSELB.png,,,,,,,,,,,,,,,,,,,,,,,,,,,,,,,,,,,
,,,,,,,,,,,,,,,,,5fea7bd6c92395acf31ae3a7,47,2022-02-12_12h55.20.667,lexical_decision_task_DD_L3,2021.2.3,Win32,59.95203837,,,,,,,,,,,0.834,1,,,,,,,,,,,,,,z,1,0.834,,,,,,,,0.260416667,-0.25,0,0,0,,0,98,98,149,1,VEASE,LB,old,z,./images/VEASELB.png,,,,,,,,,,,,,,,,,,,,,,,,,,,,,,,,,,,
,,,,,,,,,,,,,,,,,5fea7bd6c92395acf31ae3a7,47,2022-02-12_12h55.20.667,lexical_decision_task_DD_L3,2021.2.3,Win32,59.95203837,,,,,,,,,,,1.053,1,,,,,,,,,,,,,,m,1,1.053,,,,,,,,0.260416667,-0.25,0,0,0,,0,99,99,51,1,ONION,LB,old,m,./images/ONIONLB.png,,,,,,,,,,,,,,,,,,,,,,,,,,,,,,,,,,,
,,,,,,,,,,,,,,,,,5fea7bd6c92395acf31ae3a7,47,2022-02-12_12h55.20.667,lexical_decision_task_DD_L3,2021.2.3,Win32,59.95203837,,,,,,,,,,,1.223,0,,,,,,,,,,,,,,m,0,1.223,,,,,,,,0.260416667,-0.25,0,0,0,,0,100,100,128,1,GRIFT,LB,old,z,./images/GRIFTLB.png,,,,,,,,,,,,,,,,,,,,,,,,,,,,,,,,,,,
,,,,,,,,,,,,,,,,,5fea7bd6c92395acf31ae3a7,47,2022-02-12_12h55.20.667,lexical_decision_task_DD_L3,2021.2.3,Win32,59.95203837,,,,,,,,,,,0.715,1,,,,,,,,,,,,,,m,1,0.715,,,,,,,,0.260416667,-0.25,0,0,0,,0,101,101,18,1,JAGUAR,LB,old,m,./images/JAGUARLB.png,,,,,,,,,,,,,,,,,,,,,,,,,,,,,,,,,,,
,,,,,,,,,,,,,,,,,5fea7bd6c92395acf31ae3a7,47,2022-02-12_12h55.20.667,lexical_decision_task_DD_L3,2021.2.3,Win32,59.95203837,,,,,,,,,,,2.281,1,,,,,,,,,,,,,,m,1,2.281,,,,,,,,0.260416667,-0.25,0,0,0,,0,102,102,16,1,PENCE,C,old,m,./images/PENCE.png,,,,,,,,,,,,,,,,,,,,,,,,,,,,,,,,,,,
,,,,,,,,,,,,,,,,,5fea7bd6c92395acf31ae3a7,47,2022-02-12_12h55.20.667,lexical_decision_task_DD_L3,2021.2.3,Win32,59.95203837,,,,,,,,,,,0.746,1,,,,,,,,,,,,,,m,1,0.746,,,,,,,,0.260416667,-0.25,0,0,0,,0,103,103,83,1,JUNGLE,HB,old,m,./images/JUNGLEHB.png,,,,,,,,,,,,,,,,,,,,,,,,,,,,,,,,,,,
,,,,,,,,,,,,,,,,,5fea7bd6c92395acf31ae3a7,47,2022-02-12_12h55.20.667,lexical_decision_task_DD_L3,2021.2.3,Win32,59.95203837,,,,,,,,,,,1.005,1,,,,,,,,,,,,,,z,1,1.005,,,,,,,,0.260416667,-0.25,0,0,0,,0,104,104,125,1,MOOKY,LB,old,z,./images/MOOKYLB.png,,,,,,,,,,,,,,,,,,,,,,,,,,,,,,,,,,,
,,,,,,,,,,,,,,,,,5fea7bd6c92395acf31ae3a7,47,2022-02-12_12h55.20.667,lexical_decision_task_DD_L3,2021.2.3,Win32,59.95203837,,,,,,,,,,,0.972,1,,,,,,,,,,,,,,z,1,0.972,,,,,,,,0.260416667,-0.25,0,0,0,,0,105,105,89,1,DRIEK,LB,old,z,./images/DRIEKLB.png,,,,,,,,,,,,,,,,,,,,,,,,,,,,,,,,,,,
,,,,,,,,,,,,,,,,,5fea7bd6c92395acf31ae3a7,47,2022-02-12_12h55.20.667,lexical_decision_task_DD_L3,2021.2.3,Win32,59.95203837,,,,,,,,,,,1.097,1,,,,,,,,,,,,,,z,1,1.097,,,,,,,,0.260416667,-0.25,0,0,0,,0,106,106,145,1,LAMEL,HB,old,z,./images/LAMELHB.png,,,,,,,,,,,,,,,,,,,,,,,,,,,,,,,,,,,
,,,,,,,,,,,,,,,,,5fea7bd6c92395acf31ae3a7,47,2022-02-12_12h55.20.667,lexical_decision_task_DD_L3,2021.2.3,Win32,59.95203837,,,,,,,,,,,0.702,1,,,,,,,,,,,,,,z,1,0.702,,,,,,,,0.260416667,-0.25,0,0,0,,0,107,107,92,1,PAIMS,LB,old,z,./images/PAIMSLB.png,,,,,,,,,,,,,,,,,,,,,,,,,,,,,,,,,,,
,,,,,,,,,,,,,,,,,5fea7bd6c92395acf31ae3a7,47,2022-02-12_12h55.20.667,lexical_decision_task_DD_L3,2021.2.3,Win32,59.95203837,,,,,,,,,,,0.782,1,,,,,,,,,,,,,,m,1,0.782,,,,,,,,0.260416667,-0.25,0,0,0,,0,108,108,28,1,FALCON,C,old,m,./images/FALCON.png,,,,,,,,,,,,,,,,,,,,,,,,,,,,,,,,,,,
,,,,,,,,,,,,,,,,,5fea7bd6c92395acf31ae3a7,47,2022-02-12_12h55.20.667,lexical_decision_task_DD_L3,2021.2.3,Win32,59.95203837,,,,,,,,,,,1.871,1,,,,,,,,,,,,,,z,1,1.871,,,,,,,,0.260416667,-0.25,0,0,0,,0,109,109,142,1,PLASK,HB,old,z,./images/PLASKHB.png,,,,,,,,,,,,,,,,,,,,,,,,,,,,,,,,,,,
,,,,,,,,,,,,,,,,,5fea7bd6c92395acf31ae3a7,47,2022-02-12_12h55.20.667,lexical_decision_task_DD_L3,2021.2.3,Win32,59.95203837,,,,,,,,,,,1.911,1,,,,,,,,,,,,,,z,1,1.911,,,,,,,,0.260416667,-0.25,0,0,0,,0,110,110,138,1,PLICE,C,old,z,./images/PLICE.png,,,,,,,,,,,,,,,,,,,,,,,,,,,,,,,,,,,
,,,,,,,,,,,,,,,,,5fea7bd6c92395acf31ae3a7,47,2022-02-12_12h55.20.667,lexical_decision_task_DD_L3,2021.2.3,Win32,59.95203837,,,,,,,,,,,0.704,1,,,,,,,,,,,,,,m,1,0.704,,,,,,,,0.260416667,-0.25,0,0,0,,0,111,111,79,1,CRUST,C,old,m,./images/CRUST.png,,,,,,,,,,,,,,,,,,,,,,,,,,,,,,,,,,,
,,,,,,,,,,,,,,,,,5fea7bd6c92395acf31ae3a7,47,2022-02-12_12h55.20.667,lexical_decision_task_DD_L3,2021.2.3,Win32,59.95203837,,,,,,,,,,,0.717,1,,,,,,,,,,,,,,z,1,0.717,,,,,,,,0.260416667,-0.25,0,0,0,,0,112,112,111,1,HOSSE,C,old,z,./images/HOSSE.png,,,,,,,,,,,,,,,,,,,,,,,,,,,,,,,,,,,
,,,,,,,,,,,,,,,,,5fea7bd6c92395acf31ae3a7,47,2022-02-12_12h55.20.667,lexical_decision_task_DD_L3,2021.2.3,Win32,59.95203837,,,,,,,,,,,1.122,1,,,,,,,,,,,,,,m,1,1.122,,,,,,,,0.260416667,-0.25,0,0,0,,0,113,113,80,1,WEASEL,HB,old,m,./images/WEASELHB.png,,,,,,,,,,,,,,,,,,,,,,,,,,,,,,,,,,,
,,,,,,,,,,,,,,,,,5fea7bd6c92395acf31ae3a7,47,2022-02-12_12h55.20.667,lexical_decision_task_DD_L3,2021.2.3,Win32,59.95203837,,,,,,,,,,,0.856,1,,,,,,,,,,,,,,z,1,0.856,,,,,,,,0.260416667,-0.25,0,0,0,,0,114,114,156,1,HIXES,C,old,z,./images/HIXES.png,,,,,,,,,,,,,,,,,,,,,,,,,,,,,,,,,,,
,,,,,,,,,,,,,,,,,5fea7bd6c92395acf31ae3a7,47,2022-02-12_12h55.20.667,lexical_decision_task_DD_L3,2021.2.3,Win32,59.95203837,,,,,,,,,,,1.058,1,,,,,,,,,,,,,,m,1,1.058,,,,,,,,0.260416667,-0.25,0,0,0,,0,115,115,55,1,MUFFIN,C,old,m,./images/MUFFIN.png,,,,,,,,,,,,,,,,,,,,,,,,,,,,,,,,,,,
,,,,,,,,,,,,,,,,,5fea7bd6c92395acf31ae3a7,47,2022-02-12_12h55.20.667,lexical_decision_task_DD_L3,2021.2.3,Win32,59.95203837,,,,,,,,,,,2.807,1,,,,,,,,,,,,,,z,1,2.807,,,,,,,,0.260416667,-0.25,0,0,0,,0,116,116,124,1,TUNCH,HB,old,z,./images/TUNCHHB.png,,,,,,,,,,,,,,,,,,,,,,,,,,,,,,,,,,,
,,,,,,,,,,,,,,,,,5fea7bd6c92395acf31ae3a7,47,2022-02-12_12h55.20.667,lexical_decision_task_DD_L3,2021.2.3,Win32,59.95203837,,,,,,,,,,,0.758,1,,,,,,,,,,,,,,z,1,0.758,,,,,,,,0.260416667,-0.25,0,0,0,,0,117,117,126,1,GUELS,C,old,z,./images/GUELS.png,,,,,,,,,,,,,,,,,,,,,,,,,,,,,,,,,,,
,,,,,,,,,,,,,,,,,5fea7bd6c92395acf31ae3a7,47,2022-02-12_12h55.20.667,lexical_decision_task_DD_L3,2021.2.3,Win32,59.95203837,,,,,,,,,,,1.071,1,,,,,,,,,,,,,,m,1,1.071,,,,,,,,0.260416667,-0.25,0,0,0,,0,118,118,35,1,PEACH,HB,old,m,./images/PEACHHB.png,,,,,,,,,,,,,,,,,,,,,,,,,,,,,,,,,,,
,,,,,,,,,,,,,,,,,5fea7bd6c92395acf31ae3a7,47,2022-02-12_12h55.20.667,lexical_decision_task_DD_L3,2021.2.3,Win32,59.95203837,,,,,,,,,,,0.875,1,,,,,,,,,,,,,,m,1,0.875,,,,,,,,0.260416667,-0.25,0,0,0,,0,119,119,1,1,PLANK,C,old,m,./images/PLANK.png,,,,,,,,,,,,,,,,,,,,,,,,,,,,,,,,,,,
,,,,,,,,,,,,,,,,,5fea7bd6c92395acf31ae3a7,47,2022-02-12_12h55.20.667,lexical_decision_task_DD_L3,2021.2.3,Win32,59.95203837,,,,,,,,,,,0.854,1,,,,,,,,,,,,,,z,1,0.854,,,,,,,,0.260416667,-0.25,0,0,0,,0,120,120,155,1,CANGY,LB,old,z,./images/CANGYLB.png,,,,,,,,,,,,,,,,,,,,,,,,,,,,,,,,,,,
,,,,,,,,,,,,,,,,,5fea7bd6c92395acf31ae3a7,47,2022-02-12_12h55.20.667,lexical_decision_task_DD_L3,2021.2.3,Win32,59.95203837,,,,,,,,,,,0.788,1,,,,,,,,,,,,,,m,1,0.788,,,,,,,,0.260416667,-0.25,0,0,0,,0,121,121,75,1,GRAIN,LB,old,m,./images/GRAINLB.png,,,,,,,,,,,,,,,,,,,,,,,,,,,,,,,,,,,
,,,,,,,,,,,,,,,,,5fea7bd6c92395acf31ae3a7,47,2022-02-12_12h55.20.667,lexical_decision_task_DD_L3,2021.2.3,Win32,59.95203837,,,,,,,,,,,1.483,1,,,,,,,,,,,,,,z,1,1.483,,,,,,,,0.260416667,-0.25,0,0,0,,0,122,122,109,1,BURGE,HB,old,z,./images/BURGEHB.png,,,,,,,,,,,,,,,,,,,,,,,,,,,,,,,,,,,
,,,,,,,,,,,,,,,,,5fea7bd6c92395acf31ae3a7,47,2022-02-12_12h55.20.667,lexical_decision_task_DD_L3,2021.2.3,Win32,59.95203837,,,,,,,,,,,1.218,1,,,,,,,,,,,,,,m,1,1.218,,,,,,,,0.260416667,-0.25,0,0,0,,0,123,123,11,1,BONNET,HB,old,m,./images/BONNETHB.png,,,,,,,,,,,,,,,,,,,,,,,,,,,,,,,,,,,
,,,,,,,,,,,,,,,,,5fea7bd6c92395acf31ae3a7,47,2022-02-12_12h55.20.667,lexical_decision_task_DD_L3,2021.2.3,Win32,59.95203837,,,,,,,,,,,0.838,1,,,,,,,,,,,,,,z,1,0.838,,,,,,,,0.260416667,-0.25,0,0,0,,0,124,124,165,1,TROWN,C,old,z,./images/TROWN.png,,,,,,,,,,,,,,,,,,,,,,,,,,,,,,,,,,,
,,,,,,,,,,,,,,,,,5fea7bd6c92395acf31ae3a7,47,2022-02-12_12h55.20.667,lexical_decision_task_DD_L3,2021.2.3,Win32,59.95203837,,,,,,,,,,,0.786,1,,,,,,,,,,,,,,m,1,0.786,,,,,,,,0.260416667,-0.25,0,0,0,space,0,125,125,34,1,CANYON,C,old,m,./images/CANYON.png,9.202,,,,,,,,,,,,,,,,,,,,,,,,,,,,,,,,,,
,,,,,,,,,,,,,,,,,5fea7bd6c92395acf31ae3a7,47,2022-02-12_12h55.20.667,lexical_decision_task_DD_L3,2021.2.3,Win32,59.95203837,,,,,,,,,,,1.363,1,,,,,,,,,,,,,,m,1,1.363,,,,,,,,0.260416667,-0.25,0,0,0,,0,126,126,63,1,MIRROR,LB,old,m,./images/MIRRORLB.png,,,,,,,,,,,,,,,,,,,,,,,,,,,,,,,,,,,
,,,,,,,,,,,,,,,,,5fea7bd6c92395acf31ae3a7,47,2022-02-12_12h55.20.667,lexical_decision_task_DD_L3,2021.2.3,Win32,59.95203837,,,,,,,,,,,1.305,1,,,,,,,,,,,,,,z,1,1.305,,,,,,,,0.260416667,-0.25,0,0,0,,0,127,127,160,1,VEETS,HB,old,z,./images/VEETSHB.png,,,,,,,,,,,,,,,,,,,,,,,,,,,,,,,,,,,
,,,,,,,,,,,,,,,,,5fea7bd6c92395acf31ae3a7,47,2022-02-12_12h55.20.667,lexical_decision_task_DD_L3,2021.2.3,Win32,59.95203837,,,,,,,,,,,0.814,1,,,,,,,,,,,,,,m,1,0.814,,,,,,,,0.260416667,-0.25,0,0,0,,0,128,128,24,1,SCREW,LB,old,m,./images/SCREWLB.png,,,,,,,,,,,,,,,,,,,,,,,,,,,,,,,,,,,
,,,,,,,,,,,,,,,,,5fea7bd6c92395acf31ae3a7,47,2022-02-12_12h55.20.667,lexical_decision_task_DD_L3,2021.2.3,Win32,59.95203837,,,,,,,,,,,0.672,1,,,,,,,,,,,,,,m,1,0.672,,,,,,,,0.260416667,-0.25,0,0,0,,0,129,129,3,1,FINGER,LB,old,m,./images/FINGERLB.png,,,,,,,,,,,,,,,,,,,,,,,,,,,,,,,,,,,
,,,,,,,,,,,,,,,,,5fea7bd6c92395acf31ae3a7,47,2022-02-12_12h55.20.667,lexical_decision_task_DD_L3,2021.2.3,Win32,59.95203837,,,,,,,,,,,1.051,1,,,,,,,,,,,,,,z,1,1.051,,,,,,,,0.260416667,-0.25,0,0,0,,0,130,130,118,1,BAVEL,HB,old,z,./images/BAVELHB.png,,,,,,,,,,,,,,,,,,,,,,,,,,,,,,,,,,,
,,,,,,,,,,,,,,,,,5fea7bd6c92395acf31ae3a7,47,2022-02-12_12h55.20.667,lexical_decision_task_DD_L3,2021.2.3,Win32,59.95203837,,,,,,,,,,,0.734,1,,,,,,,,,,,,,,m,1,0.734,,,,,,,,0.260416667,-0.25,0,0,0,,0,131,131,19,1,DOUGH,C,old,m,./images/DOUGH.png,,,,,,,,,,,,,,,,,,,,,,,,,,,,,,,,,,,
,,,,,,,,,,,,,,,,,5fea7bd6c92395acf31ae3a7,47,2022-02-12_12h55.20.667,lexical_decision_task_DD_L3,2021.2.3,Win32,59.95203837,,,,,,,,,,,1.083,0,,,,,,,,,,,,,,m,0,1.083,,,,,,,,0.260416667,-0.25,0,0,0,,0,132,132,123,1,SEDGE,C,old,z,./images/SEDGE.png,,,,,,,,,,,,,,,,,,,,,,,,,,,,,,,,,,,
,,,,,,,,,,,,,,,,,5fea7bd6c92395acf31ae3a7,47,2022-02-12_12h55.20.667,lexical_decision_task_DD_L3,2021.2.3,Win32,59.95203837,,,,,,,,,,,0.836,1,,,,,,,,,,,,,,z,1,0.836,,,,,,,,0.260416667,-0.25,0,0,0,,0,133,133,122,1,BLOOT,LB,old,z,./images/BLOOTLB.png,,,,,,,,,,,,,,,,,,,,,,,,,,,,,,,,,,,
,,,,,,,,,,,,,,,,,5fea7bd6c92395acf31ae3a7,47,2022-02-12_12h55.20.667,lexical_decision_task_DD_L3,2021.2.3,Win32,59.95203837,,,,,,,,,,,0.888,1,,,,,,,,,,,,,,z,1,0.888,,,,,,,,0.260416667,-0.25,0,0,0,,0,134,134,99,1,BACKY,C,old,z,./images/BACKY.png,,,,,,,,,,,,,,,,,,,,,,,,,,,,,,,,,,,
,,,,,,,,,,,,,,,,,5fea7bd6c92395acf31ae3a7,47,2022-02-12_12h55.20.667,lexical_decision_task_DD_L3,2021.2.3,Win32,59.95203837,,,,,,,,,,,0.753,1,,,,,,,,,,,,,,m,1,0.753,,,,,,,,0.260416667,-0.25,0,0,0,,0,135,135,12,1,SHORE,LB,old,m,./images/SHORELB.png,,,,,,,,,,,,,,,,,,,,,,,,,,,,,,,,,,,
,,,,,,,,,,,,,,,,,5fea7bd6c92395acf31ae3a7,47,2022-02-12_12h55.20.667,lexical_decision_task_DD_L3,2021.2.3,Win32,59.95203837,,,,,,,,,,,1.005,1,,,,,,,,,,,,,,m,1,1.005,,,,,,,,0.260416667,-0.25,0,0,0,,0,136,136,41,1,STRING,HB,old,m,./images/STRINGHB.png,,,,,,,,,,,,,,,,,,,,,,,,,,,,,,,,,,,
,,,,,,,,,,,,,,,,,5fea7bd6c92395acf31ae3a7,47,2022-02-12_12h55.20.667,lexical_decision_task_DD_L3,2021.2.3,Win32,59.95203837,,,,,,,,,,,1.508,1,,,,,,,,,,,,,,z,1,1.508,,,,,,,,0.260416667,-0.25,0,0,0,,0,137,137,106,1,CLUMS,HB,old,z,./images/CLUMSHB.png,,,,,,,,,,,,,,,,,,,,,,,,,,,,,,,,,,,
,,,,,,,,,,,,,,,,,5fea7bd6c92395acf31ae3a7,47,2022-02-12_12h55.20.667,lexical_decision_task_DD_L3,2021.2.3,Win32,59.95203837,,,,,,,,,,,1.601,1,,,,,,,,,,,,,,m,1,1.601,,,,,,,,0.260416667,-0.25,0,0,0,,0,138,138,68,1,TORCH,HB,old,m,./images/TORCHHB.png,,,,,,,,,,,,,,,,,,,,,,,,,,,,,,,,,,,
,,,,,,,,,,,,,,,,,5fea7bd6c92395acf31ae3a7,47,2022-02-12_12h55.20.667,lexical_decision_task_DD_L3,2021.2.3,Win32,59.95203837,,,,,,,,,,,0.8,1,,,,,,,,,,,,,,m,1,0.8,,,,,,,,0.260416667,-0.25,0,0,0,,0,139,139,82,1,SUNSET,C,old,m,./images/SUNSET.png,,,,,,,,,,,,,,,,,,,,,,,,,,,,,,,,,,,
,,,,,,,,,,,,,,,,,5fea7bd6c92395acf31ae3a7,47,2022-02-12_12h55.20.667,lexical_decision_task_DD_L3,2021.2.3,Win32,59.95203837,,,,,,,,,,,0.61,1,,,,,,,,,,,,,,m,1,0.61,,,,,,,,0.260416667,-0.25,0,0,0,,0,140,140,45,1,KITTEN,LB,old,m,./images/KITTENLB.png,,,,,,,,,,,,,,,,,,,,,,,,,,,,,,,,,,,
,,,,,,,,,,,,,,,,,5fea7bd6c92395acf31ae3a7,47,2022-02-12_12h55.20.667,lexical_decision_task_DD_L3,2021.2.3,Win32,59.95203837,,,,,,,,,,,0.737,1,,,,,,,,,,,,,,z,1,0.737,,,,,,,,0.260416667,-0.25,0,0,0,,0,141,141,108,1,GRUET,C,old,z,./images/GRUET.png,,,,,,,,,,,,,,,,,,,,,,,,,,,,,,,,,,,
,,,,,,,,,,,,,,,,,5fea7bd6c92395acf31ae3a7,47,2022-02-12_12h55.20.667,lexical_decision_task_DD_L3,2021.2.3,Win32,59.95203837,,,,,,,,,,,1.069,1,,,,,,,,,,,,,,z,1,1.069,,,,,,,,0.260416667,-0.25,0,0,0,,0,142,142,103,1,FLORT,HB,old,z,./images/FLORTHB.png,,,,,,,,,,,,,,,,,,,,,,,,,,,,,,,,,,,
,,,,,,,,,,,,,,,,,5fea7bd6c92395acf31ae3a7,47,2022-02-12_12h55.20.667,lexical_decision_task_DD_L3,2021.2.3,Win32,59.95203837,,,,,,,,,,,1.586,1,,,,,,,,,,,,,,z,1,1.586,,,,,,,,0.260416667,-0.25,0,0,0,,0,143,143,166,1,SHORY,HB,old,z,./images/SHORYHB.png,,,,,,,,,,,,,,,,,,,,,,,,,,,,,,,,,,,
,,,,,,,,,,,,,,,,,5fea7bd6c92395acf31ae3a7,47,2022-02-12_12h55.20.667,lexical_decision_task_DD_L3,2021.2.3,Win32,59.95203837,,,,,,,,,,,1.072,1,,,,,,,,,,,,,,z,1,1.072,,,,,,,,0.260416667,-0.25,0,0,0,,0,144,144,163,1,GAMBA,HB,old,z,./images/GAMBAHB.png,,,,,,,,,,,,,,,,,,,,,,,,,,,,,,,,,,,
,,,,,,,,,,,,,,,,,5fea7bd6c92395acf31ae3a7,47,2022-02-12_12h55.20.667,lexical_decision_task_DD_L3,2021.2.3,Win32,59.95203837,,,,,,,,,,,0.705,1,,,,,,,,,,,,,,z,1,0.705,,,,,,,,0.260416667,-0.25,0,0,0,,0,145,145,129,1,PRANS,C,old,z,./images/PRANS.png,,,,,,,,,,,,,,,,,,,,,,,,,,,,,,,,,,,
,,,,,,,,,,,,,,,,,5fea7bd6c92395acf31ae3a7,47,2022-02-12_12h55.20.667,lexical_decision_task_DD_L3,2021.2.3,Win32,59.95203837,,,,,,,,,,,0.66,1,,,,,,,,,,,,,,m,1,0.66,,,,,,,,0.260416667,-0.25,0,0,0,,0,146,146,58,1,BABOON,C,old,m,./images/BABOON.png,,,,,,,,,,,,,,,,,,,,,,,,,,,,,,,,,,,
,,,,,,,,,,,,,,,,,5fea7bd6c92395acf31ae3a7,47,2022-02-12_12h55.20.667,lexical_decision_task_DD_L3,2021.2.3,Win32,59.95203837,,,,,,,,,,,0.797,1,,,,,,,,,,,,,,z,1,0.797,,,,,,,,0.260416667,-0.25,0,0,0,,0,147,147,101,1,GLEET,LB,old,z,./images/GLEETLB.png,,,,,,,,,,,,,,,,,,,,,,,,,,,,,,,,,,,
,,,,,,,,,,,,,,,,,5fea7bd6c92395acf31ae3a7,47,2022-02-12_12h55.20.667,lexical_decision_task_DD_L3,2021.2.3,Win32,59.95203837,,,,,,,,,,,1.633,1,,,,,,,,,,,,,,z,1,1.633,,,,,,,,0.260416667,-0.25,0,0,0,,0,148,148,107,1,FASKS,LB,old,z,./images/FASKSLB.png,,,,,,,,,,,,,,,,,,,,,,,,,,,,,,,,,,,
,,,,,,,,,,,,,,,,,5fea7bd6c92395acf31ae3a7,47,2022-02-12_12h55.20.667,lexical_decision_task_DD_L3,2021.2.3,Win32,59.95203837,,,,,,,,,,,0.724,1,,,,,,,,,,,,,,z,1,0.724,,,,,,,,0.260416667,-0.25,0,0,0,,0,149,149,141,1,PLEET,C,old,z,./images/PLEET.png,,,,,,,,,,,,,,,,,,,,,,,,,,,,,,,,,,,
,,,,,,,,,,,,,,,,,5fea7bd6c92395acf31ae3a7,47,2022-02-12_12h55.20.667,lexical_decision_task_DD_L3,2021.2.3,Win32,59.95203837,,,,,,,,,,,0.969,1,,,,,,,,,,,,,,m,1,0.969,,,,,,,,0.260416667,-0.25,0,0,0,,0,150,150,59,1,BURIAL,HB,old,m,./images/BURIALHB.png,,,,,,,,,,,,,,,,,,,,,,,,,,,,,,,,,,,
,,,,,,,,,,,,,,,,,5fea7bd6c92395acf31ae3a7,47,2022-02-12_12h55.20.667,lexical_decision_task_DD_L3,2021.2.3,Win32,59.95203837,,,,,,,,,,,0.812,1,,,,,,,,,,,,,,m,1,0.812,,,,,,,,0.260416667,-0.25,0,0,0,,0,151,151,39,1,SHELF,LB,old,m,./images/SHELFLB.png,,,,,,,,,,,,,,,,,,,,,,,,,,,,,,,,,,,
,,,,,,,,,,,,,,,,,5fea7bd6c92395acf31ae3a7,47,2022-02-12_12h55.20.667,lexical_decision_task_DD_L3,2021.2.3,Win32,59.95203837,,,,,,,,,,,0.986,1,,,,,,,,,,,,,,m,1,0.986,,,,,,,,0.260416667,-0.25,0,0,0,,0,152,152,20,1,CRADLE,HB,old,m,./images/CRADLEHB.png,,,,,,,,,,,,,,,,,,,,,,,,,,,,,,,,,,,
,,,,,,,,,,,,,,,,,5fea7bd6c92395acf31ae3a7,47,2022-02-12_12h55.20.667,lexical_decision_task_DD_L3,2021.2.3,Win32,59.95203837,,,,,,,,,,,0.655,1,,,,,,,,,,,,,,z,1,0.655,,,,,,,,0.260416667,-0.25,0,0,0,,0,153,153,84,1,HAXES,C,old,z,./images/HAXES.png,,,,,,,,,,,,,,,,,,,,,,,,,,,,,,,,,,,
,,,,,,,,,,,,,,,,,5fea7bd6c92395acf31ae3a7,47,2022-02-12_12h55.20.667,lexical_decision_task_DD_L3,2021.2.3,Win32,59.95203837,,,,,,,,,,,1.12,1,,,,,,,,,,,,,,m,1,1.12,,,,,,,,0.260416667,-0.25,0,0,0,,0,154,154,66,1,SWEAT,LB,old,m,./images/SWEATLB.png,,,,,,,,,,,,,,,,,,,,,,,,,,,,,,,,,,,
,,,,,,,,,,,,,,,,,5fea7bd6c92395acf31ae3a7,47,2022-02-12_12h55.20.667,lexical_decision_task_DD_L3,2021.2.3,Win32,59.95203837,,,,,,,,,,,1.603,1,,,,,,,,,,,,,,z,1,1.603,,,,,,,,0.260416667,-0.25,0,0,0,,0,155,155,121,1,CEERS,HB,old,z,./images/CEERSHB.png,,,,,,,,,,,,,,,,,,,,,,,,,,,,,,,,,,,
,,,,,,,,,,,,,,,,,5fea7bd6c92395acf31ae3a7,47,2022-02-12_12h55.20.667,lexical_decision_task_DD_L3,2021.2.3,Win32,59.95203837,,,,,,,,,,,0.755,1,,,,,,,,,,,,,,z,1,0.755,,,,,,,,0.260416667,-0.25,0,0,0,,0,156,156,153,1,CLUPS,C,old,z,./images/CLUPS.png,,,,,,,,,,,,,,,,,,,,,,,,,,,,,,,,,,,
,,,,,,,,,,,,,,,,,5fea7bd6c92395acf31ae3a7,47,2022-02-12_12h55.20.667,lexical_decision_task_DD_L3,2021.2.3,Win32,59.95203837,,,,,,,,,,,0.706,1,,,,,,,,,,,,,,m,1,0.706,,,,,,,,0.260416667,-0.25,0,0,0,,0,157,157,57,1,MOOSE,LB,old,m,./images/MOOSELB.png,,,,,,,,,,,,,,,,,,,,,,,,,,,,,,,,,,,
,,,,,,,,,,,,,,,,,5fea7bd6c92395acf31ae3a7,47,2022-02-12_12h55.20.667,lexical_decision_task_DD_L3,2021.2.3,Win32,59.95203837,,,,,,,,,,,1.151,1,,,,,,,,,,,,,,z,1,1.151,,,,,,,,0.260416667,-0.25,0,0,0,,0,158,158,154,1,THINT,HB,old,z,./images/THINTHB.png,,,,,,,,,,,,,,,,,,,,,,,,,,,,,,,,,,,
,,,,,,,,,,,,,,,,,5fea7bd6c92395acf31ae3a7,47,2022-02-12_12h55.20.667,lexical_decision_task_DD_L3,2021.2.3,Win32,59.95203837,,,,,,,,,,,0.785,1,,,,,,,,,,,,,,m,1,0.785,,,,,,,,0.260416667,-0.25,0,0,0,,0,159,159,53,1,CARPET,HB,old,m,./images/CARPETHB.png,,,,,,,,,,,,,,,,,,,,,,,,,,,,,,,,,,,
,,,,,,,,,,,,,,,,,5fea7bd6c92395acf31ae3a7,47,2022-02-12_12h55.20.667,lexical_decision_task_DD_L3,2021.2.3,Win32,59.95203837,,,,,,,,,,,0.723,1,,,,,,,,,,,,,,z,1,0.723,,,,,,,,0.260416667,-0.25,0,0,0,,0,160,160,120,1,RINED,C,old,z,./images/RINED.png,,,,,,,,,,,,,,,,,,,,,,,,,,,,,,,,,,,
,,,,,,,,,,,,,,,,,5fea7bd6c92395acf31ae3a7,47,2022-02-12_12h55.20.667,lexical_decision_task_DD_L3,2021.2.3,Win32,59.95203837,,,,,,,,,,,1.328,1,,,,,,,,,,,,,,z,1,1.328,,,,,,,,0.260416667,-0.25,0,0,0,,0,161,161,140,1,DOVET,LB,old,z,./images/DOVETLB.png,,,,,,,,,,,,,,,,,,,,,,,,,,,,,,,,,,,
,,,,,,,,,,,,,,,,,5fea7bd6c92395acf31ae3a7,47,2022-02-12_12h55.20.667,lexical_decision_task_DD_L3,2021.2.3,Win32,59.95203837,,,,,,,,,,,0.721,1,,,,,,,,,,,,,,z,1,0.721,,,,,,,,0.260416667,-0.25,0,0,0,,0,162,162,114,1,RIKES,C,old,z,./images/RIKES.png,,,,,,,,,,,,,,,,,,,,,,,,,,,,,,,,,,,
,,,,,,,,,,,,,,,,,5fea7bd6c92395acf31ae3a7,47,2022-02-12_12h55.20.667,lexical_decision_task_DD_L3,2021.2.3,Win32,59.95203837,,,,,,,,,,,0.967,1,,,,,,,,,,,,,,m,1,0.967,,,,,,,,0.260416667,-0.25,0,0,0,,0,163,163,74,1,CEMENT,HB,old,m,./images/CEMENTHB.png,,,,,,,,,,,,,,,,,,,,,,,,,,,,,,,,,,,
,,,,,,,,,,,,,,,,,5fea7bd6c92395acf31ae3a7,47,2022-02-12_12h55.20.667,lexical_decision_task_DD_L3,2021.2.3,Win32,59.95203837,,,,,,,,,,,0.666,1,,,,,,,,,,,,,,m,1,0.666,,,,,,,,0.260416667,-0.25,0,0,0,,0,164,164,77,1,COUCH,HB,old,m,./images/COUCHHB.png,,,,,,,,,,,,,,,,,,,,,,,,,,,,,,,,,,,
,,,,,,,,,,,,,,,,,5fea7bd6c92395acf31ae3a7,47,2022-02-12_12h55.20.667,lexical_decision_task_DD_L3,2021.2.3,Win32,59.95203837,,,,,,,,,,,0.743,1,,,,,,,,,,,,,,m,1,0.743,,,,,,,,0.260416667,-0.25,0,0,0,,0,165,165,23,1,WALRUS,HB,old,m,./images/WALRUSHB.png,,,,,,,,,,,,,,,,,,,,,,,,,,,,,,,,,,,
,,,,,,,,,,,,,,,,,5fea7bd6c92395acf31ae3a7,47,2022-02-12_12h55.20.667,lexical_decision_task_DD_L3,2021.2.3,Win32,59.95203837,,,,,,,,,,,0.836,1,,,,,,,,,,,,,,z,1,0.836,,,,,,,,0.260416667,-0.25,0,0,0,,0,166,166,127,1,NINDY,HB,old,z,./images/NINDYHB.png,,,,,,,,,,,,,,,,,,,,,,,,,,,,,,,,,,,
,,,,,,,,,,,,,,,,,5fea7bd6c92395acf31ae3a7,47,2022-02-12_12h55.20.667,lexical_decision_task_DD_L3,2021.2.3,Win32,59.95203837,,,,,,,,,,,0.968,1,,,,,,,,,,,,,,m,1,0.968,,,,,,,,0.260416667,-0.25,0,0,0,,0,167,167,9,1,RHINO,LB,old,m,./images/RHINOLB.png,,,,,,,,,,,,,,,,,,,,,,,,,,,,,,,,,,,
,,,,,,,,,,,,,,,,,5fea7bd6c92395acf31ae3a7,47,2022-02-12_12h55.20.667,lexical_decision_task_DD_L3,2021.2.3,Win32,59.95203837,,,,,,,,,,,,,,,,,,,,,,,,,,,,,,,,,,,,,,,,,,,,,,,,How likely will it be that you will recognize the words presented very blurred on a scale of 0 (not likely) to 100 (most likely)?,,,,,0.001302083,-0.416666667,1,0,0,jol_adv,2,6.658,0,0,0,2,1,,,,,,,,,,,,,,,,,,,,,
,,,,,,,,,,,,,,,,,5fea7bd6c92395acf31ae3a7,47,2022-02-12_12h55.20.667,lexical_decision_task_DD_L3,2021.2.3,Win32,59.95203837,,,,,,,,,,,,,,,,,,,,,,,,,,,,,,,,,,,,,,,,,,,,,,,,How likely will it be that you will recognize the words presented slighly blurred on a scale of 0 (not likely) to 100 (most likely)?,,,,,,,,,,,3,4.442,0,1,1,1,1,,,,,,,,,,,,,,,,,,,,,
,,,,,,,,,,,,,,,,,5fea7bd6c92395acf31ae3a7,47,2022-02-12_12h55.20.667,lexical_decision_task_DD_L3,2021.2.3,Win32,59.95203837,,,,,,,,,,,,,,,,,,,,,,,,,,,,,,,,,,,,,,,,,,,,,,,,How likely will it be that you will recognize the words presented clearly on a scale of 0 (not likely) to 100 (most likely)?,,,,,,,,,,,5,5.322,0,2,2,0,1,,,,,,,,,,,,,,,,,,,,,
,,0.1015625,-0.393229167,1,0,0,,,,,,1,test,"In the next phase you will be presented with the words from the the first phase. Your job is to decide whether you remember seeing the word or not. If you remember seeing the word press ""old"" or type ""m"". If you do not remember seeing the word press ""new"" or type ""z"". Please press the space bar or click on continue to begin. ",,,5fea7bd6c92395acf31ae3a7,47,2022-02-12_12h55.20.667,lexical_decision_task_DD_L3,2021.2.3,Win32,59.95203837,,,,,,,,,,,,,,,,,,,,,,,,,,,,,,,,,,,,,,,,,,,,,,,,,,,,,,,,,,,,,,,,,,instr_done_button,0,0,0,0,1,,,,,,,,,,,,,,,
space,3.44,0.1015625,-0.393229167,0,0,0,,,,,,1,test,"In the next phase you will be presented with the words from the the first phase. Your job is to decide whether you remember seeing the word or not. If you remember seeing the word press ""old"" or type ""m"". If you do not remember seeing the word press ""new"" or type ""z"". Please press the space bar or click on continue to begin. ",,,5fea7bd6c92395acf31ae3a7,47,2022-02-12_12h55.20.667,lexical_decision_task_DD_L3,2021.2.3,Win32,59.95203837,,,,,,,,,,,,,,,,,,,,,,,,,,,,,,,,,,,,,,,,,,,,,,,,,,,,,,,,,,,,,,,,,,,1,0,1,0,1,,,,,,,,,,,,,,,
,,0.1015625,-0.393229167,1,0,0,,,,,,1,test,"In the next phase you will be presented with the words from the the first phase. Your job is to decide whether you remember seeing the word or not. If you remember seeing the word press ""old"" or type ""m"". If you do not remember seeing the word press ""new"" or type ""z"". Please press the space bar or click on continue to begin. ",,,5fea7bd6c92395acf31ae3a7,47,2022-02-12_12h55.20.667,lexical_decision_task_DD_L3,2021.2.3,Win32,59.95203837,,,,,,,,,,,,,,,,,,,,,,,,,,,,,,,,,,,,,,,,,,,,,,,,,,,,,,,,,,,,,,,,,,instr_done_button,2,0,2,0,1,,,,,,,,,,,,,,,
,,0,-0.395833333,1,0,0,,,,,,1,test,"In the next phase you will be presented with the words from the the first phase. Your job is to decide whether you remember seeing the word or not. If you remember seeing the word press ""old"" or type ""m"". If you do not remember seeing the word press ""new"" or type ""z"". Please press the space bar or click on continue to begin. ",,,5fea7bd6c92395acf31ae3a7,47,2022-02-12_12h55.20.667,lexical_decision_task_DD_L3,2021.2.3,Win32,59.95203837,,,,,,,,,,,,,,,,,,,,,,,,,,,,,,,,,,,,,,,,,,,,,,,,,,,,,,,,,,,,,,,,,,instr_done_button,3,0,3,0,1,,,,,,,,,,,,,,,
,,0.0546875,-0.36328125,1,0,0,,,,,,1,test,"In the next phase you will be presented with the words from the the first phase. Your job is to decide whether you remember seeing the word or not. If you remember seeing the word press ""old"" or type ""m"". If you do not remember seeing the word press ""new"" or type ""z"". Please press the space bar or click on continue to begin. ",,,5fea7bd6c92395acf31ae3a7,47,2022-02-12_12h55.20.667,lexical_decision_task_DD_L3,2021.2.3,Win32,59.95203837,,,,,,,,,,,,,,,,,,,,,,,,,,,,,,,,,,,,,,,,,,,,,,,,,,,,,,,,,,,,,,,,,,instr_done_button,4,0,4,0,1,,,,,,,,,,,,,,,
,,,,,,,,,,,,,,,,,5fea7bd6c92395acf31ae3a7,47,2022-02-12_12h55.20.667,lexical_decision_task_DD_L3,2021.2.3,Win32,59.95203837,,,,,,,,,,,2.949,1,,,,,,,,,,,,,,,,,,,,,,,,0.0546875,-0.388020833,0,0,0,,,,,,,STORM,LB,m,m,./images/STORMLB.png,,,,,,,,,,,,,,,,,,,,,m,1,2.949,,,,,,,,0,0,0,30,1
,,,,,,,,,,,,,,,,,5fea7bd6c92395acf31ae3a7,47,2022-02-12_12h55.20.667,lexical_decision_task_DD_L3,2021.2.3,Win32,59.95203837,,,,,,,,,,,0.902,1,,,,,,,,,,,,,,,,,,,,,,,,0.0546875,-0.388020833,0,0,0,,,,,,,MAGGOT,LB,m,m,./images/MAGGOTLB.png,,,,,,,,,,,,,,,,,,,,,m,1,0.902,,,,,,,,0,1,1,33,1
,,,,,,,,,,,,,,,,,5fea7bd6c92395acf31ae3a7,47,2022-02-12_12h55.20.667,lexical_decision_task_DD_L3,2021.2.3,Win32,59.95203837,,,,,,,,,,,0.947,1,,,,,,,,,,,,,,,,,,,,,,,,0.0546875,-0.388020833,0,0,0,,,,,,,BUTTER,LB,z,m,./images/BUTTERLB.png,,,,,,,,,,,,,,,,,,,,,z,1,0.947,,,,,,,,0,2,2,111,1
,,,,,,,,,,,,,,,,,5fea7bd6c92395acf31ae3a7,47,2022-02-12_12h55.20.667,lexical_decision_task_DD_L3,2021.2.3,Win32,59.95203837,,,,,,,,,,,0.94,1,,,,,,,,,,,,,,,,,,,,,,,,0.0546875,-0.388020833,0,0,0,,,,,,,CRADLE,HB,m,m,./images/CRADLEHB.png,,,,,,,,,,,,,,,,,,,,,m,1,0.94,,,,,,,,0,3,3,20,1
,,,,,,,,,,,,,,,,,5fea7bd6c92395acf31ae3a7,47,2022-02-12_12h55.20.667,lexical_decision_task_DD_L3,2021.2.3,Win32,59.95203837,,,,,,,,,,,0.865,1,,,,,,,,,,,,,,,,,,,,,,,,0.0546875,-0.388020833,0,0,0,,,,,,,POKER,C,z,m,./images/POKER.png,,,,,,,,,,,,,,,,,,,,,z,1,0.865,,,,,,,,0,4,4,151,1
,,,,,,,,,,,,,,,,,5fea7bd6c92395acf31ae3a7,47,2022-02-12_12h55.20.667,lexical_decision_task_DD_L3,2021.2.3,Win32,59.95203837,,,,,,,,,,,0.682,1,,,,,,,,,,,,,,,,,,,,,,,,0.0546875,-0.388020833,0,0,0,,,,,,,GRANNY,HB,z,m,./images/GRANNYHB.png,,,,,,,,,,,,,,,,,,,,,z,1,0.682,,,,,,,,0,5,5,104,1
,,,,,,,,,,,,,,,,,5fea7bd6c92395acf31ae3a7,47,2022-02-12_12h55.20.667,lexical_decision_task_DD_L3,2021.2.3,Win32,59.95203837,,,,,,,,,,,0.784,1,,,,,,,,,,,,,,,,,,,,,,,,0.0546875,-0.388020833,0,0,0,,,,,,,PACKET,HB,m,m,./images/PACKETHB.png,,,,,,,,,,,,,,,,,,,,,m,1,0.784,,,,,,,,0,6,6,56,1
,,,,,,,,,,,,,,,,,5fea7bd6c92395acf31ae3a7,47,2022-02-12_12h55.20.667,lexical_decision_task_DD_L3,2021.2.3,Win32,59.95203837,,,,,,,,,,,1.218,1,,,,,,,,,,,,,,,,,,,,,,,,0.0546875,-0.388020833,0,0,0,,,,,,,BELLY,C,m,m,./images/BELLY.png,,,,,,,,,,,,,,,,,,,,,m,1,1.218,,,,,,,,0,7,7,10,1
,,,,,,,,,,,,,,,,,5fea7bd6c92395acf31ae3a7,47,2022-02-12_12h55.20.667,lexical_decision_task_DD_L3,2021.2.3,Win32,59.95203837,,,,,,,,,,,0.685,1,,,,,,,,,,,,,,,,,,,,,,,,0.0546875,-0.388020833,0,0,0,,,,,,,PLANK,C,m,m,./images/PLANK.png,,,,,,,,,,,,,,,,,,,,,m,1,0.685,,,,,,,,0,8,8,1,1
,,,,,,,,,,,,,,,,,5fea7bd6c92395acf31ae3a7,47,2022-02-12_12h55.20.667,lexical_decision_task_DD_L3,2021.2.3,Win32,59.95203837,,,,,,,,,,,0.737,1,,,,,,,,,,,,,,,,,,,,,,,,0.0546875,-0.388020833,0,0,0,,,,,,,BRUSH,HB,z,m,./images/BRUSHHB.png,,,,,,,,,,,,,,,,,,,,,z,1,0.737,,,,,,,,0,9,9,143,1
,,,,,,,,,,,,,,,,,5fea7bd6c92395acf31ae3a7,47,2022-02-12_12h55.20.667,lexical_decision_task_DD_L3,2021.2.3,Win32,59.95203837,,,,,,,,,,,0.766,1,,,,,,,,,,,,,,,,,,,,,,,,0.0546875,-0.388020833,0,0,0,,,,,,,PLANET,HB,z,m,./images/PLANETHB.png,,,,,,,,,,,,,,,,,,,,,z,1,0.766,,,,,,,,0,10,10,164,1
,,,,,,,,,,,,,,,,,5fea7bd6c92395acf31ae3a7,47,2022-02-12_12h55.20.667,lexical_decision_task_DD_L3,2021.2.3,Win32,59.95203837,,,,,,,,,,,0.805,1,,,,,,,,,,,,,,,,,,,,,,,,0.0546875,-0.388020833,0,0,0,,,,,,,PIMPLE,HB,m,m,./images/PIMPLEHB.png,,,,,,,,,,,,,,,,,,,,,m,1,0.805,,,,,,,,0,11,11,71,1
,,,,,,,,,,,,,,,,,5fea7bd6c92395acf31ae3a7,47,2022-02-12_12h55.20.667,lexical_decision_task_DD_L3,2021.2.3,Win32,59.95203837,,,,,,,,,,,0.998,0,,,,,,,,,,,,,,,,,,,,,,,,0.0546875,-0.388020833,0,0,0,,,,,,,MUFFIN,C,m,m,./images/MUFFIN.png,,,,,,,,,,,,,,,,,,,,,z,0,0.998,,,,,,,,0,12,12,55,1
,,,,,,,,,,,,,,,,,5fea7bd6c92395acf31ae3a7,47,2022-02-12_12h55.20.667,lexical_decision_task_DD_L3,2021.2.3,Win32,59.95203837,,,,,,,,,,,0.827,0,,,,,,,,,,,,,,,,,,,,,,,,0.0546875,-0.388020833,0,0,0,,,,,,,BROOM,LB,z,m,./images/BROOMLB.png,,,,,,,,,,,,,,,,,,,,,m,0,0.827,,,,,,,,0,13,13,162,1
,,,,,,,,,,,,,,,,,5fea7bd6c92395acf31ae3a7,47,2022-02-12_12h55.20.667,lexical_decision_task_DD_L3,2021.2.3,Win32,59.95203837,,,,,,,,,,,1.042,1,,,,,,,,,,,,,,,,,,,,,,,,0.0546875,-0.388020833,0,0,0,,,,,,,CASINO,C,z,m,./images/CASINO.png,,,,,,,,,,,,,,,,,,,,,z,1,1.042,,,,,,,,0,14,14,112,1
,,,,,,,,,,,,,,,,,5fea7bd6c92395acf31ae3a7,47,2022-02-12_12h55.20.667,lexical_decision_task_DD_L3,2021.2.3,Win32,59.95203837,,,,,,,,,,,0.768,0,,,,,,,,,,,,,,,,,,,,,,,,0.0546875,-0.388020833,0,0,0,,,,,,,SWING,C,m,m,./images/SWING.png,,,,,,,,,,,,,,,,,,,,,z,0,0.768,,,,,,,,0,15,15,40,1
,,,,,,,,,,,,,,,,,5fea7bd6c92395acf31ae3a7,47,2022-02-12_12h55.20.667,lexical_decision_task_DD_L3,2021.2.3,Win32,59.95203837,,,,,,,,,,,0.885,1,,,,,,,,,,,,,,,,,,,,,,,,0.0546875,-0.388020833,0,0,0,,,,,,,BERRY,HB,m,m,./images/BERRYHB.png,,,,,,,,,,,,,,,,,,,,,m,1,0.885,,,,,,,,0,16,16,47,1
,,,,,,,,,,,,,,,,,5fea7bd6c92395acf31ae3a7,47,2022-02-12_12h55.20.667,lexical_decision_task_DD_L3,2021.2.3,Win32,59.95203837,,,,,,,,,,,1.589,1,,,,,,,,,,,,,,,,,,,,,,,,0.0546875,-0.388020833,0,0,0,,,,,,,FLASK,LB,z,m,./images/FLASKLB.png,,,,,,,,,,,,,,,,,,,,,z,1,1.589,,,,,,,,0,17,17,156,1
,,,,,,,,,,,,,,,,,5fea7bd6c92395acf31ae3a7,47,2022-02-12_12h55.20.667,lexical_decision_task_DD_L3,2021.2.3,Win32,59.95203837,,,,,,,,,,,0.674,1,,,,,,,,,,,,,,,,,,,,,,,,0.0546875,-0.388020833,0,0,0,,,,,,,POSTER,HB,z,m,./images/POSTERHB.png,,,,,,,,,,,,,,,,,,,,,z,1,0.674,,,,,,,,0,18,18,137,1
,,,,,,,,,,,,,,,,,5fea7bd6c92395acf31ae3a7,47,2022-02-12_12h55.20.667,lexical_decision_task_DD_L3,2021.2.3,Win32,59.95203837,,,,,,,,,,,0.732,1,,,,,,,,,,,,,,,,,,,,,,,,0.0546875,-0.388020833,0,0,0,,,,,,,FLESH,LB,z,m,./images/FLESHLB.png,,,,,,,,,,,,,,,,,,,,,z,1,0.732,,,,,,,,0,19,19,108,1
,,,,,,,,,,,,,,,,,5fea7bd6c92395acf31ae3a7,47,2022-02-12_12h55.20.667,lexical_decision_task_DD_L3,2021.2.3,Win32,59.95203837,,,,,,,,,,,1.304,1,,,,,,,,,,,,,,,,,,,,,,,,0.0546875,-0.388020833,0,0,0,,,,,,,CLOUD,HB,z,m,./images/CLOUDHB.png,,,,,,,,,,,,,,,,,,,,,z,1,1.304,,,,,,,,0,20,20,110,1
,,,,,,,,,,,,,,,,,5fea7bd6c92395acf31ae3a7,47,2022-02-12_12h55.20.667,lexical_decision_task_DD_L3,2021.2.3,Win32,59.95203837,,,,,,,,,,,0.816,1,,,,,,,,,,,,,,,,,,,,,,,,0.0546875,-0.388020833,0,0,0,,,,,,,CANYON,C,m,m,./images/CANYON.png,,,,,,,,,,,,,,,,,,,,,m,1,0.816,,,,,,,,0,21,21,34,1
,,,,,,,,,,,,,,,,,5fea7bd6c92395acf31ae3a7,47,2022-02-12_12h55.20.667,lexical_decision_task_DD_L3,2021.2.3,Win32,59.95203837,,,,,,,,,,,1.328,1,,,,,,,,,,,,,,,,,,,,,,,,0.0546875,-0.388020833,0,0,0,,,,,,,MEDAL,HB,z,m,./images/MEDALHB.png,,,,,,,,,,,,,,,,,,,,,z,1,1.328,,,,,,,,0,22,22,95,1
,,,,,,,,,,,,,,,,,5fea7bd6c92395acf31ae3a7,47,2022-02-12_12h55.20.667,lexical_decision_task_DD_L3,2021.2.3,Win32,59.95203837,,,,,,,,,,,1.384,0,,,,,,,,,,,,,,,,,,,,,,,,0.0546875,-0.388020833,0,0,0,,,,,,,SCREW,LB,m,m,./images/SCREWLB.png,,,,,,,,,,,,,,,,,,,,,z,0,1.384,,,,,,,,0,23,23,24,1
,,,,,,,,,,,,,,,,,5fea7bd6c92395acf31ae3a7,47,2022-02-12_12h55.20.667,lexical_decision_task_DD_L3,2021.2.3,Win32,59.95203837,,,,,,,,,,,0.786,1,,,,,,,,,,,,,,,,,,,,,,,,0.0546875,-0.388020833,0,0,0,,,,,,,ONION,LB,m,m,./images/ONIONLB.png,,,,,,,,,,,,,,,,,,,,,m,1,0.786,,,,,,,,0,24,24,51,1
,,,,,,,,,,,,,,,,,5fea7bd6c92395acf31ae3a7,47,2022-02-12_12h55.20.667,lexical_decision_task_DD_L3,2021.2.3,Win32,59.95203837,,,,,,,,,,,1.087,0,,,,,,,,,,,,,,,,,,,,,,,,0.0546875,-0.388020833,0,0,0,,,,,,,HAMMER,LB,z,m,./images/HAMMERLB.png,,,,,,,,,,,,,,,,,,,,,m,0,1.087,,,,,,,,0,25,25,159,1
,,,,,,,,,,,,,,,,,5fea7bd6c92395acf31ae3a7,47,2022-02-12_12h55.20.667,lexical_decision_task_DD_L3,2021.2.3,Win32,59.95203837,,,,,,,,,,,1.073,1,,,,,,,,,,,,,,,,,,,,,,,,0.0546875,-0.388020833,0,0,0,,,,,,,ATTIC,LB,m,m,./images/ATTICLB.png,,,,,,,,,,,,,,,,,,,,,m,1,1.073,,,,,,,,0,26,26,27,1
,,,,,,,,,,,,,,,,,5fea7bd6c92395acf31ae3a7,47,2022-02-12_12h55.20.667,lexical_decision_task_DD_L3,2021.2.3,Win32,59.95203837,,,,,,,,,,,0.797,1,,,,,,,,,,,,,,,,,,,,,,,,0.0546875,-0.388020833,0,0,0,,,,,,,LAGOON,HB,z,m,./images/LAGOONHB.png,,,,,,,,,,,,,,,,,,,,,z,1,0.797,,,,,,,,0,27,27,131,1
,,,,,,,,,,,,,,,,,5fea7bd6c92395acf31ae3a7,47,2022-02-12_12h55.20.667,lexical_decision_task_DD_L3,2021.2.3,Win32,59.95203837,,,,,,,,,,,0.768,1,,,,,,,,,,,,,,,,,,,,,,,,0.0546875,-0.388020833,0,0,0,,,,,,,PENCE,C,m,m,./images/PENCE.png,,,,,,,,,,,,,,,,,,,,,m,1,0.768,,,,,,,,0,28,28,16,1
,,,,,,,,,,,,,,,,,5fea7bd6c92395acf31ae3a7,47,2022-02-12_12h55.20.667,lexical_decision_task_DD_L3,2021.2.3,Win32,59.95203837,,,,,,,,,,,0.728,0,,,,,,,,,,,,,,,,,,,,,,,,0.0546875,-0.388020833,0,0,0,,,,,,,LIZARD,HB,m,m,./images/LIZARDHB.png,,,,,,,,,,,,,,,,,,,,,z,0,0.728,,,,,,,,0,29,29,44,1
,,,,,,,,,,,,,,,,,5fea7bd6c92395acf31ae3a7,47,2022-02-12_12h55.20.667,lexical_decision_task_DD_L3,2021.2.3,Win32,59.95203837,,,,,,,,,,,0.82,1,,,,,,,,,,,,,,,,,,,,,,,,0.0546875,-0.388020833,0,0,0,,,,,,,SPINE,HB,z,m,./images/SPINEHB.png,,,,,,,,,,,,,,,,,,,,,z,1,0.82,,,,,,,,0,30,30,149,1
,,,,,,,,,,,,,,,,,5fea7bd6c92395acf31ae3a7,47,2022-02-12_12h55.20.667,lexical_decision_task_DD_L3,2021.2.3,Win32,59.95203837,,,,,,,,,,,1.81,0,,,,,,,,,,,,,,,,,,,,,,,,0.0546875,-0.388020833,0,0,0,,,,,,,PILOT,HB,z,m,./images/PILOTHB.png,,,,,,,,,,,,,,,,,,,,,m,0,1.81,,,,,,,,0,31,31,134,1
,,,,,,,,,,,,,,,,,5fea7bd6c92395acf31ae3a7,47,2022-02-12_12h55.20.667,lexical_decision_task_DD_L3,2021.2.3,Win32,59.95203837,,,,,,,,,,,1.348,1,,,,,,,,,,,,,,,,,,,,,,,,0.0546875,-0.388020833,0,0,0,,,,,,,MOOSE,LB,m,m,./images/MOOSELB.png,,,,,,,,,,,,,,,,,,,,,m,1,1.348,,,,,,,,0,32,32,57,1
,,,,,,,,,,,,,,,,,5fea7bd6c92395acf31ae3a7,47,2022-02-12_12h55.20.667,lexical_decision_task_DD_L3,2021.2.3,Win32,59.95203837,,,,,,,,,,,1.198,1,,,,,,,,,,,,,,,,,,,,,,,,0.0546875,-0.388020833,0,0,0,,,,,,,SHORE,LB,m,m,./images/SHORELB.png,,,,,,,,,,,,,,,,,,,,,m,1,1.198,,,,,,,,0,33,33,12,1
,,,,,,,,,,,,,,,,,5fea7bd6c92395acf31ae3a7,47,2022-02-12_12h55.20.667,lexical_decision_task_DD_L3,2021.2.3,Win32,59.95203837,,,,,,,,,,,0.782,0,,,,,,,,,,,,,,,,,,,,,,,,0.0546875,-0.388020833,0,0,0,,,,,,,PARADE,HB,z,m,./images/PARADEHB.png,,,,,,,,,,,,,,,,,,,,,m,0,0.782,,,,,,,,0,34,34,101,1
,,,,,,,,,,,,,,,,,5fea7bd6c92395acf31ae3a7,47,2022-02-12_12h55.20.667,lexical_decision_task_DD_L3,2021.2.3,Win32,59.95203837,,,,,,,,,,,0.795,0,,,,,,,,,,,,,,,,,,,,,,,,0.0546875,-0.388020833,0,0,0,,,,,,,BURIAL,HB,m,m,./images/BURIALHB.png,,,,,,,,,,,,,,,,,,,,,z,0,0.795,,,,,,,,0,35,35,59,1
,,,,,,,,,,,,,,,,,5fea7bd6c92395acf31ae3a7,47,2022-02-12_12h55.20.667,lexical_decision_task_DD_L3,2021.2.3,Win32,59.95203837,,,,,,,,,,,0.63,1,,,,,,,,,,,,,,,,,,,,,,,,0.0546875,-0.388020833,0,0,0,,,,,,,ALLEY,C,z,m,./images/ALLEY.png,,,,,,,,,,,,,,,,,,,,,z,1,0.63,,,,,,,,0,36,36,139,1
,,,,,,,,,,,,,,,,,5fea7bd6c92395acf31ae3a7,47,2022-02-12_12h55.20.667,lexical_decision_task_DD_L3,2021.2.3,Win32,59.95203837,,,,,,,,,,,0.532,1,,,,,,,,,,,,,,,,,,,,,,,,0.0546875,-0.388020833,0,0,0,,,,,,,TOWEL,C,z,m,./images/TOWEL.png,,,,,,,,,,,,,,,,,,,,,z,1,0.532,,,,,,,,0,37,37,85,1
,,,,,,,,,,,,,,,,,5fea7bd6c92395acf31ae3a7,47,2022-02-12_12h55.20.667,lexical_decision_task_DD_L3,2021.2.3,Win32,59.95203837,,,,,,,,,,,1.404,1,,,,,,,,,,,,,,,,,,,,,,,,0.0546875,-0.388020833,0,0,0,,,,,,,INFANT,C,m,m,./images/INFANT.png,,,,,,,,,,,,,,,,,,,,,m,1,1.404,,,,,,,,0,38,38,76,1
,,,,,,,,,,,,,,,,,5fea7bd6c92395acf31ae3a7,47,2022-02-12_12h55.20.667,lexical_decision_task_DD_L3,2021.2.3,Win32,59.95203837,,,,,,,,,,,0.981,1,,,,,,,,,,,,,,,,,,,,,,,,0.0546875,-0.388020833,0,0,0,,,,,,,MIRROR,LB,m,m,./images/MIRRORLB.png,,,,,,,,,,,,,,,,,,,,,m,1,0.981,,,,,,,,0,39,39,63,1
,,,,,,,,,,,,,,,,,5fea7bd6c92395acf31ae3a7,47,2022-02-12_12h55.20.667,lexical_decision_task_DD_L3,2021.2.3,Win32,59.95203837,,,,,,,,,,,0.788,1,,,,,,,,,,,,,,,,,,,,,,,,0.0546875,-0.388020833,0,0,0,,,,,,,QUILL,C,m,m,./images/QUILL.png,,,,,,,,,,,,,,,,,,,,,m,1,0.788,,,,,,,,0,40,40,31,1
,,,,,,,,,,,,,,,,,5fea7bd6c92395acf31ae3a7,47,2022-02-12_12h55.20.667,lexical_decision_task_DD_L3,2021.2.3,Win32,59.95203837,,,,,,,,,,,0.659,1,,,,,,,,,,,,,,,,,,,,,,,,0.0546875,-0.388020833,0,0,0,space,,,,,,VALLEY,HB,z,m,./images/VALLEYHB.png,5.464,,,,,,,,,,,,,,,,,,,,z,1,0.659,,,,,,,,0,41,41,152,1
,,,,,,,,,,,,,,,,,5fea7bd6c92395acf31ae3a7,47,2022-02-12_12h55.20.667,lexical_decision_task_DD_L3,2021.2.3,Win32,59.95203837,,,,,,,,,,,3.262,0,,,,,,,,,,,,,,,,,,,,,,,,0.0546875,-0.388020833,0,0,0,,,,,,,GREASE,LB,m,m,./images/GREASELB.png,,,,,,,,,,,,,,,,,,,,,z,0,3.262,,,,,,,,0,42,42,15,1
,,,,,,,,,,,,,,,,,5fea7bd6c92395acf31ae3a7,47,2022-02-12_12h55.20.667,lexical_decision_task_DD_L3,2021.2.3,Win32,59.95203837,,,,,,,,,,,0.775,1,,,,,,,,,,,,,,,,,,,,,,,,0.0546875,-0.388020833,0,0,0,,,,,,,HEATER,HB,z,m,./images/HEATERHB.png,,,,,,,,,,,,,,,,,,,,,z,1,0.775,,,,,,,,0,43,43,140,1
,,,,,,,,,,,,,,,,,5fea7bd6c92395acf31ae3a7,47,2022-02-12_12h55.20.667,lexical_decision_task_DD_L3,2021.2.3,Win32,59.95203837,,,,,,,,,,,0.758,1,,,,,,,,,,,,,,,,,,,,,,,,0.0546875,-0.388020833,0,0,0,,,,,,,PICKLE,HB,m,m,./images/PICKLEHB.png,,,,,,,,,,,,,,,,,,,,,m,1,0.758,,,,,,,,0,44,44,14,1
,,,,,,,,,,,,,,,,,5fea7bd6c92395acf31ae3a7,47,2022-02-12_12h55.20.667,lexical_decision_task_DD_L3,2021.2.3,Win32,59.95203837,,,,,,,,,,,0.988,1,,,,,,,,,,,,,,,,,,,,,,,,0.0546875,-0.388020833,0,0,0,,,,,,,BABOON,C,m,m,./images/BABOON.png,,,,,,,,,,,,,,,,,,,,,m,1,0.988,,,,,,,,0,45,45,58,1
,,,,,,,,,,,,,,,,,5fea7bd6c92395acf31ae3a7,47,2022-02-12_12h55.20.667,lexical_decision_task_DD_L3,2021.2.3,Win32,59.95203837,,,,,,,,,,,0.637,1,,,,,,,,,,,,,,,,,,,,,,,,0.0546875,-0.388020833,0,0,0,,,,,,,WAGON,C,z,m,./images/WAGON.png,,,,,,,,,,,,,,,,,,,,,z,1,0.637,,,,,,,,0,46,46,91,1
,,,,,,,,,,,,,,,,,5fea7bd6c92395acf31ae3a7,47,2022-02-12_12h55.20.667,lexical_decision_task_DD_L3,2021.2.3,Win32,59.95203837,,,,,,,,,,,1.044,1,,,,,,,,,,,,,,,,,,,,,,,,0.0546875,-0.388020833,0,0,0,,,,,,,RHINO,LB,m,m,./images/RHINOLB.png,,,,,,,,,,,,,,,,,,,,,m,1,1.044,,,,,,,,0,47,47,9,1
,,,,,,,,,,,,,,,,,5fea7bd6c92395acf31ae3a7,47,2022-02-12_12h55.20.667,lexical_decision_task_DD_L3,2021.2.3,Win32,59.95203837,,,,,,,,,,,0.817,1,,,,,,,,,,,,,,,,,,,,,,,,0.0546875,-0.388020833,0,0,0,,,,,,,BRIDE,C,z,m,./images/BRIDE.png,,,,,,,,,,,,,,,,,,,,,z,1,0.817,,,,,,,,0,48,48,148,1
,,,,,,,,,,,,,,,,,5fea7bd6c92395acf31ae3a7,47,2022-02-12_12h55.20.667,lexical_decision_task_DD_L3,2021.2.3,Win32,59.95203837,,,,,,,,,,,0.885,1,,,,,,,,,,,,,,,,,,,,,,,,0.0546875,-0.388020833,0,0,0,,,,,,,CARPET,HB,m,m,./images/CARPETHB.png,,,,,,,,,,,,,,,,,,,,,m,1,0.885,,,,,,,,0,49,49,53,1
,,,,,,,,,,,,,,,,,5fea7bd6c92395acf31ae3a7,47,2022-02-12_12h55.20.667,lexical_decision_task_DD_L3,2021.2.3,Win32,59.95203837,,,,,,,,,,,0.852,1,,,,,,,,,,,,,,,,,,,,,,,,0.0546875,-0.388020833,0,0,0,,,,,,,MONKEY,LB,z,m,./images/MONKEYLB.png,,,,,,,,,,,,,,,,,,,,,z,1,0.852,,,,,,,,0,50,50,129,1
,,,,,,,,,,,,,,,,,5fea7bd6c92395acf31ae3a7,47,2022-02-12_12h55.20.667,lexical_decision_task_DD_L3,2021.2.3,Win32,59.95203837,,,,,,,,,,,0.799,1,,,,,,,,,,,,,,,,,,,,,,,,0.0546875,-0.388020833,0,0,0,,,,,,,MIDGET,C,z,m,./images/MIDGET.png,,,,,,,,,,,,,,,,,,,,,z,1,0.799,,,,,,,,0,51,51,160,1
,,,,,,,,,,,,,,,,,5fea7bd6c92395acf31ae3a7,47,2022-02-12_12h55.20.667,lexical_decision_task_DD_L3,2021.2.3,Win32,59.95203837,,,,,,,,,,,0.67,1,,,,,,,,,,,,,,,,,,,,,,,,0.0546875,-0.388020833,0,0,0,,,,,,,CANDY,LB,z,m,./images/CANDYLB.png,,,,,,,,,,,,,,,,,,,,,z,1,0.67,,,,,,,,0,52,52,123,1
,,,,,,,,,,,,,,,,,5fea7bd6c92395acf31ae3a7,47,2022-02-12_12h55.20.667,lexical_decision_task_DD_L3,2021.2.3,Win32,59.95203837,,,,,,,,,,,0.718,1,,,,,,,,,,,,,,,,,,,,,,,,0.0546875,-0.388020833,0,0,0,,,,,,,TOMATO,LB,m,m,./images/TOMATOLB.png,,,,,,,,,,,,,,,,,,,,,m,1,0.718,,,,,,,,0,53,53,0,1
,,,,,,,,,,,,,,,,,5fea7bd6c92395acf31ae3a7,47,2022-02-12_12h55.20.667,lexical_decision_task_DD_L3,2021.2.3,Win32,59.95203837,,,,,,,,,,,0.685,1,,,,,,,,,,,,,,,,,,,,,,,,0.0546875,-0.388020833,0,0,0,,,,,,,SAUCE,LB,z,m,./images/SAUCELB.png,,,,,,,,,,,,,,,,,,,,,z,1,0.685,,,,,,,,0,54,54,135,1
,,,,,,,,,,,,,,,,,5fea7bd6c92395acf31ae3a7,47,2022-02-12_12h55.20.667,lexical_decision_task_DD_L3,2021.2.3,Win32,59.95203837,,,,,,,,,,,1.021,1,,,,,,,,,,,,,,,,,,,,,,,,0.0546875,-0.388020833,0,0,0,,,,,,,BOXER,C,z,m,./images/BOXER.png,,,,,,,,,,,,,,,,,,,,,z,1,1.021,,,,,,,,0,55,55,88,1
,,,,,,,,,,,,,,,,,5fea7bd6c92395acf31ae3a7,47,2022-02-12_12h55.20.667,lexical_decision_task_DD_L3,2021.2.3,Win32,59.95203837,,,,,,,,,,,0.657,0,,,,,,,,,,,,,,,,,,,,,,,,0.0546875,-0.388020833,0,0,0,,,,,,,GRAIN,LB,m,m,./images/GRAINLB.png,,,,,,,,,,,,,,,,,,,,,z,0,0.657,,,,,,,,0,56,56,75,1
,,,,,,,,,,,,,,,,,5fea7bd6c92395acf31ae3a7,47,2022-02-12_12h55.20.667,lexical_decision_task_DD_L3,2021.2.3,Win32,59.95203837,,,,,,,,,,,0.701,0,,,,,,,,,,,,,,,,,,,,,,,,0.0546875,-0.388020833,0,0,0,,,,,,,TWINS,LB,m,m,./images/TWINSLB.png,,,,,,,,,,,,,,,,,,,,,z,0,0.701,,,,,,,,0,57,57,60,1
,,,,,,,,,,,,,,,,,5fea7bd6c92395acf31ae3a7,47,2022-02-12_12h55.20.667,lexical_decision_task_DD_L3,2021.2.3,Win32,59.95203837,,,,,,,,,,,0.783,1,,,,,,,,,,,,,,,,,,,,,,,,0.0546875,-0.388020833,0,0,0,,,,,,,CRUMB,HB,m,m,./images/CRUMBHB.png,,,,,,,,,,,,,,,,,,,,,m,1,0.783,,,,,,,,0,58,58,29,1
,,,,,,,,,,,,,,,,,5fea7bd6c92395acf31ae3a7,47,2022-02-12_12h55.20.667,lexical_decision_task_DD_L3,2021.2.3,Win32,59.95203837,,,,,,,,,,,0.872,1,,,,,,,,,,,,,,,,,,,,,,,,0.0546875,-0.388020833,0,0,0,,,,,,,STAIN,LB,z,m,./images/STAINLB.png,,,,,,,,,,,,,,,,,,,,,z,1,0.872,,,,,,,,0,59,59,90,1
,,,,,,,,,,,,,,,,,5fea7bd6c92395acf31ae3a7,47,2022-02-12_12h55.20.667,lexical_decision_task_DD_L3,2021.2.3,Win32,59.95203837,,,,,,,,,,,0.668,1,,,,,,,,,,,,,,,,,,,,,,,,0.0546875,-0.388020833,0,0,0,,,,,,,BUBBLE,HB,z,m,./images/BUBBLEHB.png,,,,,,,,,,,,,,,,,,,,,z,1,0.668,,,,,,,,0,60,60,155,1
,,,,,,,,,,,,,,,,,5fea7bd6c92395acf31ae3a7,47,2022-02-12_12h55.20.667,lexical_decision_task_DD_L3,2021.2.3,Win32,59.95203837,,,,,,,,,,,0.491,0,,,,,,,,,,,,,,,,,,,,,,,,0.0546875,-0.388020833,0,0,0,,,,,,,FALCON,C,m,m,./images/FALCON.png,,,,,,,,,,,,,,,,,,,,,z,0,0.491,,,,,,,,0,61,61,28,1
,,,,,,,,,,,,,,,,,5fea7bd6c92395acf31ae3a7,47,2022-02-12_12h55.20.667,lexical_decision_task_DD_L3,2021.2.3,Win32,59.95203837,,,,,,,,,,,0.764,1,,,,,,,,,,,,,,,,,,,,,,,,0.0546875,-0.388020833,0,0,0,,,,,,,WALNUT,LB,z,m,./images/WALNUTLB.png,,,,,,,,,,,,,,,,,,,,,z,1,0.764,,,,,,,,0,62,62,84,1
,,,,,,,,,,,,,,,,,5fea7bd6c92395acf31ae3a7,47,2022-02-12_12h55.20.667,lexical_decision_task_DD_L3,2021.2.3,Win32,59.95203837,,,,,,,,,,,0.839,1,,,,,,,,,,,,,,,,,,,,,,,,0.0546875,-0.388020833,0,0,0,,,,,,,FENCE,HB,z,m,./images/FENCEHB.png,,,,,,,,,,,,,,,,,,,,,z,1,0.839,,,,,,,,0,63,63,98,1
,,,,,,,,,,,,,,,,,5fea7bd6c92395acf31ae3a7,47,2022-02-12_12h55.20.667,lexical_decision_task_DD_L3,2021.2.3,Win32,59.95203837,,,,,,,,,,,0.689,1,,,,,,,,,,,,,,,,,,,,,,,,0.0546875,-0.388020833,0,0,0,,,,,,,LADDER,HB,m,m,./images/LADDERHB.png,,,,,,,,,,,,,,,,,,,,,m,1,0.689,,,,,,,,0,64,64,38,1
,,,,,,,,,,,,,,,,,5fea7bd6c92395acf31ae3a7,47,2022-02-12_12h55.20.667,lexical_decision_task_DD_L3,2021.2.3,Win32,59.95203837,,,,,,,,,,,0.762,1,,,,,,,,,,,,,,,,,,,,,,,,0.0546875,-0.388020833,0,0,0,,,,,,,RAZOR,C,z,m,./images/RAZOR.png,,,,,,,,,,,,,,,,,,,,,z,1,0.762,,,,,,,,0,65,65,118,1
,,,,,,,,,,,,,,,,,5fea7bd6c92395acf31ae3a7,47,2022-02-12_12h55.20.667,lexical_decision_task_DD_L3,2021.2.3,Win32,59.95203837,,,,,,,,,,,0.652,1,,,,,,,,,,,,,,,,,,,,,,,,0.0546875,-0.388020833,0,0,0,,,,,,,COLLAR,LB,z,m,./images/COLLARLB.png,,,,,,,,,,,,,,,,,,,,,z,1,0.652,,,,,,,,0,66,66,99,1
,,,,,,,,,,,,,,,,,5fea7bd6c92395acf31ae3a7,47,2022-02-12_12h55.20.667,lexical_decision_task_DD_L3,2021.2.3,Win32,59.95203837,,,,,,,,,,,0.836,0,,,,,,,,,,,,,,,,,,,,,,,,0.0546875,-0.388020833,0,0,0,,,,,,,MUSCLE,C,m,m,./images/MUSCLE.png,,,,,,,,,,,,,,,,,,,,,z,0,0.836,,,,,,,,0,67,67,4,1
,,,,,,,,,,,,,,,,,5fea7bd6c92395acf31ae3a7,47,2022-02-12_12h55.20.667,lexical_decision_task_DD_L3,2021.2.3,Win32,59.95203837,,,,,,,,,,,0.621,1,,,,,,,,,,,,,,,,,,,,,,,,0.0546875,-0.388020833,0,0,0,,,,,,,WHISKY,HB,z,m,./images/WHISKYHB.png,,,,,,,,,,,,,,,,,,,,,z,1,0.621,,,,,,,,0,68,68,167,1
,,,,,,,,,,,,,,,,,5fea7bd6c92395acf31ae3a7,47,2022-02-12_12h55.20.667,lexical_decision_task_DD_L3,2021.2.3,Win32,59.95203837,,,,,,,,,,,0.735,1,,,,,,,,,,,,,,,,,,,,,,,,0.0546875,-0.388020833,0,0,0,,,,,,,WALRUS,HB,m,m,./images/WALRUSHB.png,,,,,,,,,,,,,,,,,,,,,m,1,0.735,,,,,,,,0,69,69,23,1
,,,,,,,,,,,,,,,,,5fea7bd6c92395acf31ae3a7,47,2022-02-12_12h55.20.667,lexical_decision_task_DD_L3,2021.2.3,Win32,59.95203837,,,,,,,,,,,0.845,1,,,,,,,,,,,,,,,,,,,,,,,,0.0546875,-0.388020833,0,0,0,,,,,,,STOVE,HB,z,m,./images/STOVEHB.png,,,,,,,,,,,,,,,,,,,,,z,1,0.845,,,,,,,,0,70,70,86,1
,,,,,,,,,,,,,,,,,5fea7bd6c92395acf31ae3a7,47,2022-02-12_12h55.20.667,lexical_decision_task_DD_L3,2021.2.3,Win32,59.95203837,,,,,,,,,,,0.921,1,,,,,,,,,,,,,,,,,,,,,,,,0.0546875,-0.388020833,0,0,0,,,,,,,PEARL,C,m,m,./images/PEARL.png,,,,,,,,,,,,,,,,,,,,,m,1,0.921,,,,,,,,0,71,71,46,1
,,,,,,,,,,,,,,,,,5fea7bd6c92395acf31ae3a7,47,2022-02-12_12h55.20.667,lexical_decision_task_DD_L3,2021.2.3,Win32,59.95203837,,,,,,,,,,,0.769,1,,,,,,,,,,,,,,,,,,,,,,,,0.0546875,-0.388020833,0,0,0,,,,,,,SKIING,HB,m,m,./images/SKIINGHB.png,,,,,,,,,,,,,,,,,,,,,m,1,0.769,,,,,,,,0,72,72,17,1
,,,,,,,,,,,,,,,,,5fea7bd6c92395acf31ae3a7,47,2022-02-12_12h55.20.667,lexical_decision_task_DD_L3,2021.2.3,Win32,59.95203837,,,,,,,,,,,0.731,1,,,,,,,,,,,,,,,,,,,,,,,,0.0546875,-0.388020833,0,0,0,,,,,,,BAKER,LB,z,m,./images/BAKERLB.png,,,,,,,,,,,,,,,,,,,,,z,1,0.731,,,,,,,,0,73,73,147,1
,,,,,,,,,,,,,,,,,5fea7bd6c92395acf31ae3a7,47,2022-02-12_12h55.20.667,lexical_decision_task_DD_L3,2021.2.3,Win32,59.95203837,,,,,,,,,,,0.969,1,,,,,,,,,,,,,,,,,,,,,,,,0.0546875,-0.388020833,0,0,0,,,,,,,STOOL,C,z,m,./images/STOOL.png,,,,,,,,,,,,,,,,,,,,,z,1,0.969,,,,,,,,0,74,74,127,1
,,,,,,,,,,,,,,,,,5fea7bd6c92395acf31ae3a7,47,2022-02-12_12h55.20.667,lexical_decision_task_DD_L3,2021.2.3,Win32,59.95203837,,,,,,,,,,,0.8,0,,,,,,,,,,,,,,,,,,,,,,,,0.0546875,-0.388020833,0,0,0,,,,,,,STRING,HB,m,m,./images/STRINGHB.png,,,,,,,,,,,,,,,,,,,,,z,0,0.8,,,,,,,,0,75,75,41,1
,,,,,,,,,,,,,,,,,5fea7bd6c92395acf31ae3a7,47,2022-02-12_12h55.20.667,lexical_decision_task_DD_L3,2021.2.3,Win32,59.95203837,,,,,,,,,,,0.811,1,,,,,,,,,,,,,,,,,,,,,,,,0.0546875,-0.388020833,0,0,0,,,,,,,SAUNA,LB,z,m,./images/SAUNALB.png,,,,,,,,,,,,,,,,,,,,,z,1,0.811,,,,,,,,0,76,76,117,1
,,,,,,,,,,,,,,,,,5fea7bd6c92395acf31ae3a7,47,2022-02-12_12h55.20.667,lexical_decision_task_DD_L3,2021.2.3,Win32,59.95203837,,,,,,,,,,,0.599,1,,,,,,,,,,,,,,,,,,,,,,,,0.0546875,-0.388020833,0,0,0,,,,,,,SHIELD,LB,z,m,./images/SHIELDLB.png,,,,,,,,,,,,,,,,,,,,,z,1,0.599,,,,,,,,0,77,77,132,1
,,,,,,,,,,,,,,,,,5fea7bd6c92395acf31ae3a7,47,2022-02-12_12h55.20.667,lexical_decision_task_DD_L3,2021.2.3,Win32,59.95203837,,,,,,,,,,,0.733,1,,,,,,,,,,,,,,,,,,,,,,,,0.0546875,-0.388020833,0,0,0,,,,,,,GARDEN,C,z,m,./images/GARDEN.png,,,,,,,,,,,,,,,,,,,,,z,1,0.733,,,,,,,,0,78,78,94,1
,,,,,,,,,,,,,,,,,5fea7bd6c92395acf31ae3a7,47,2022-02-12_12h55.20.667,lexical_decision_task_DD_L3,2021.2.3,Win32,59.95203837,,,,,,,,,,,0.965,0,,,,,,,,,,,,,,,,,,,,,,,,0.0546875,-0.388020833,0,0,0,,,,,,,CHALK,C,z,m,./images/CHALK.png,,,,,,,,,,,,,,,,,,,,,m,0,0.965,,,,,,,,0,79,79,109,1
,,,,,,,,,,,,,,,,,5fea7bd6c92395acf31ae3a7,47,2022-02-12_12h55.20.667,lexical_decision_task_DD_L3,2021.2.3,Win32,59.95203837,,,,,,,,,,,0.615,1,,,,,,,,,,,,,,,,,,,,,,,,0.0546875,-0.388020833,0,0,0,,,,,,,BISHOP,C,z,m,./images/BISHOP.png,,,,,,,,,,,,,,,,,,,,,z,1,0.615,,,,,,,,0,80,80,133,1
,,,,,,,,,,,,,,,,,5fea7bd6c92395acf31ae3a7,47,2022-02-12_12h55.20.667,lexical_decision_task_DD_L3,2021.2.3,Win32,59.95203837,,,,,,,,,,,0.548,0,,,,,,,,,,,,,,,,,,,,,,,,0.0546875,-0.388020833,0,0,0,,,,,,,PAINT,C,m,m,./images/PAINT.png,,,,,,,,,,,,,,,,,,,,,z,0,0.548,,,,,,,,0,81,81,7,1
,,,,,,,,,,,,,,,,,5fea7bd6c92395acf31ae3a7,47,2022-02-12_12h55.20.667,lexical_decision_task_DD_L3,2021.2.3,Win32,59.95203837,,,,,,,,,,,0.703,0,,,,,,,,,,,,,,,,,,,,,,,,0.0546875,-0.388020833,0,0,0,,,,,,,BARREL,HB,m,m,./images/BARRELHB.png,,,,,,,,,,,,,,,,,,,,,z,0,0.703,,,,,,,,0,82,82,32,1
,,,,,,,,,,,,,,,,,5fea7bd6c92395acf31ae3a7,47,2022-02-12_12h55.20.667,lexical_decision_task_DD_L3,2021.2.3,Win32,59.95203837,,,,,,,,,,,0.567,0,,,,,,,,,,,,,,,,,,,,,,,,0.0546875,-0.388020833,0,0,0,space,,,,,,FINGER,LB,m,m,./images/FINGERLB.png,10.712,,,,,,,,,,,,,,,,,,,,z,0,0.567,,,,,,,,0,83,83,3,1
,,,,,,,,,,,,,,,,,5fea7bd6c92395acf31ae3a7,47,2022-02-12_12h55.20.667,lexical_decision_task_DD_L3,2021.2.3,Win32,59.95203837,,,,,,,,,,,1.262,0,,,,,,,,,,,,,,,,,,,,,,,,0.0546875,-0.388020833,0,0,0,,,,,,,WHEEL,HB,z,m,./images/WHEELHB.png,,,,,,,,,,,,,,,,,,,,,m,0,1.262,,,,,,,,0,84,84,161,1
,,,,,,,,,,,,,,,,,5fea7bd6c92395acf31ae3a7,47,2022-02-12_12h55.20.667,lexical_decision_task_DD_L3,2021.2.3,Win32,59.95203837,,,,,,,,,,,0.664,1,,,,,,,,,,,,,,,,,,,,,,,,0.0546875,-0.388020833,0,0,0,,,,,,,JAGUAR,LB,m,m,./images/JAGUARLB.png,,,,,,,,,,,,,,,,,,,,,m,1,0.664,,,,,,,,0,85,85,18,1
,,,,,,,,,,,,,,,,,5fea7bd6c92395acf31ae3a7,47,2022-02-12_12h55.20.667,lexical_decision_task_DD_L3,2021.2.3,Win32,59.95203837,,,,,,,,,,,0.658,1,,,,,,,,,,,,,,,,,,,,,,,,0.0546875,-0.388020833,0,0,0,,,,,,,JUMPER,HB,z,m,./images/JUMPERHB.png,,,,,,,,,,,,,,,,,,,,,z,1,0.658,,,,,,,,0,86,86,158,1
,,,,,,,,,,,,,,,,,5fea7bd6c92395acf31ae3a7,47,2022-02-12_12h55.20.667,lexical_decision_task_DD_L3,2021.2.3,Win32,59.95203837,,,,,,,,,,,0.616,1,,,,,,,,,,,,,,,,,,,,,,,,0.0546875,-0.388020833,0,0,0,,,,,,,CLOTH,HB,z,m,./images/CLOTHHB.png,,,,,,,,,,,,,,,,,,,,,z,1,0.616,,,,,,,,0,87,87,107,1
,,,,,,,,,,,,,,,,,5fea7bd6c92395acf31ae3a7,47,2022-02-12_12h55.20.667,lexical_decision_task_DD_L3,2021.2.3,Win32,59.95203837,,,,,,,,,,,0.752,1,,,,,,,,,,,,,,,,,,,,,,,,0.0546875,-0.388020833,0,0,0,,,,,,,STEAK,C,z,m,./images/STEAK.png,,,,,,,,,,,,,,,,,,,,,z,1,0.752,,,,,,,,0,88,88,115,1
,,,,,,,,,,,,,,,,,5fea7bd6c92395acf31ae3a7,47,2022-02-12_12h55.20.667,lexical_decision_task_DD_L3,2021.2.3,Win32,59.95203837,,,,,,,,,,,0.666,1,,,,,,,,,,,,,,,,,,,,,,,,0.0546875,-0.388020833,0,0,0,,,,,,,PASTA,HB,m,m,./images/PASTAHB.png,,,,,,,,,,,,,,,,,,,,,m,1,0.666,,,,,,,,0,89,89,5,1
,,,,,,,,,,,,,,,,,5fea7bd6c92395acf31ae3a7,47,2022-02-12_12h55.20.667,lexical_decision_task_DD_L3,2021.2.3,Win32,59.95203837,,,,,,,,,,,1.051,0,,,,,,,,,,,,,,,,,,,,,,,,0.0546875,-0.388020833,0,0,0,,,,,,,DONKEY,C,z,m,./images/DONKEY.png,,,,,,,,,,,,,,,,,,,,,m,0,1.051,,,,,,,,0,90,90,103,1
,,,,,,,,,,,,,,,,,5fea7bd6c92395acf31ae3a7,47,2022-02-12_12h55.20.667,lexical_decision_task_DD_L3,2021.2.3,Win32,59.95203837,,,,,,,,,,,1.123,1,,,,,,,,,,,,,,,,,,,,,,,,0.0546875,-0.388020833,0,0,0,,,,,,,CHAIN,LB,z,m,./images/CHAINLB.png,,,,,,,,,,,,,,,,,,,,,z,1,1.123,,,,,,,,0,91,91,126,1
,,,,,,,,,,,,,,,,,5fea7bd6c92395acf31ae3a7,47,2022-02-12_12h55.20.667,lexical_decision_task_DD_L3,2021.2.3,Win32,59.95203837,,,,,,,,,,,0.735,1,,,,,,,,,,,,,,,,,,,,,,,,0.0546875,-0.388020833,0,0,0,,,,,,,WRIST,C,m,m,./images/WRIST.png,,,,,,,,,,,,,,,,,,,,,m,1,0.735,,,,,,,,0,92,92,25,1
,,,,,,,,,,,,,,,,,5fea7bd6c92395acf31ae3a7,47,2022-02-12_12h55.20.667,lexical_decision_task_DD_L3,2021.2.3,Win32,59.95203837,,,,,,,,,,,0.618,1,,,,,,,,,,,,,,,,,,,,,,,,0.0546875,-0.388020833,0,0,0,,,,,,,FERRY,LB,z,m,./images/FERRYLB.png,,,,,,,,,,,,,,,,,,,,,z,1,0.618,,,,,,,,0,93,93,141,1
,,,,,,,,,,,,,,,,,5fea7bd6c92395acf31ae3a7,47,2022-02-12_12h55.20.667,lexical_decision_task_DD_L3,2021.2.3,Win32,59.95203837,,,,,,,,,,,0.711,1,,,,,,,,,,,,,,,,,,,,,,,,0.0546875,-0.388020833,0,0,0,,,,,,,GRAPE,C,z,m,./images/GRAPE.png,,,,,,,,,,,,,,,,,,,,,z,1,0.711,,,,,,,,0,94,94,100,1
,,,,,,,,,,,,,,,,,5fea7bd6c92395acf31ae3a7,47,2022-02-12_12h55.20.667,lexical_decision_task_DD_L3,2021.2.3,Win32,59.95203837,,,,,,,,,,,0.878,1,,,,,,,,,,,,,,,,,,,,,,,,0.0546875,-0.388020833,0,0,0,,,,,,,MAMMAL,HB,z,m,./images/MAMMALHB.png,,,,,,,,,,,,,,,,,,,,,z,1,0.878,,,,,,,,0,95,95,146,1
,,,,,,,,,,,,,,,,,5fea7bd6c92395acf31ae3a7,47,2022-02-12_12h55.20.667,lexical_decision_task_DD_L3,2021.2.3,Win32,59.95203837,,,,,,,,,,,1.03,1,,,,,,,,,,,,,,,,,,,,,,,,0.0546875,-0.388020833,0,0,0,,,,,,,DRUMS,C,m,m,./images/DRUMS.png,,,,,,,,,,,,,,,,,,,,,m,1,1.03,,,,,,,,0,96,96,49,1
,,,,,,,,,,,,,,,,,5fea7bd6c92395acf31ae3a7,47,2022-02-12_12h55.20.667,lexical_decision_task_DD_L3,2021.2.3,Win32,59.95203837,,,,,,,,,,,0.83,1,,,,,,,,,,,,,,,,,,,,,,,,0.0546875,-0.388020833,0,0,0,,,,,,,HOCKEY,HB,z,m,./images/HOCKEYHB.png,,,,,,,,,,,,,,,,,,,,,z,1,0.83,,,,,,,,0,97,97,116,1
,,,,,,,,,,,,,,,,,5fea7bd6c92395acf31ae3a7,47,2022-02-12_12h55.20.667,lexical_decision_task_DD_L3,2021.2.3,Win32,59.95203837,,,,,,,,,,,0.728,1,,,,,,,,,,,,,,,,,,,,,,,,0.0546875,-0.388020833,0,0,0,,,,,,,SAILOR,C,m,m,./images/SAILOR.png,,,,,,,,,,,,,,,,,,,,,m,1,0.728,,,,,,,,0,98,98,67,1
,,,,,,,,,,,,,,,,,5fea7bd6c92395acf31ae3a7,47,2022-02-12_12h55.20.667,lexical_decision_task_DD_L3,2021.2.3,Win32,59.95203837,,,,,,,,,,,1.044,1,,,,,,,,,,,,,,,,,,,,,,,,0.0546875,-0.388020833,0,0,0,,,,,,,ARTIST,C,z,m,./images/ARTIST.png,,,,,,,,,,,,,,,,,,,,,z,1,1.044,,,,,,,,0,99,99,145,1
,,,,,,,,,,,,,,,,,5fea7bd6c92395acf31ae3a7,47,2022-02-12_12h55.20.667,lexical_decision_task_DD_L3,2021.2.3,Win32,59.95203837,,,,,,,,,,,0.761,1,,,,,,,,,,,,,,,,,,,,,,,,0.0546875,-0.388020833,0,0,0,,,,,,,CHERRY,LB,z,m,./images/CHERRYLB.png,,,,,,,,,,,,,,,,,,,,,z,1,0.761,,,,,,,,0,100,100,138,1
,,,,,,,,,,,,,,,,,5fea7bd6c92395acf31ae3a7,47,2022-02-12_12h55.20.667,lexical_decision_task_DD_L3,2021.2.3,Win32,59.95203837,,,,,,,,,,,0.75,0,,,,,,,,,,,,,,,,,,,,,,,,0.0546875,-0.388020833,0,0,0,,,,,,,TORCH,HB,m,m,./images/TORCHHB.png,,,,,,,,,,,,,,,,,,,,,z,0,0.75,,,,,,,,0,101,101,68,1
,,,,,,,,,,,,,,,,,5fea7bd6c92395acf31ae3a7,47,2022-02-12_12h55.20.667,lexical_decision_task_DD_L3,2021.2.3,Win32,59.95203837,,,,,,,,,,,0.871,1,,,,,,,,,,,,,,,,,,,,,,,,0.0546875,-0.388020833,0,0,0,,,,,,,CLIFF,HB,z,m,./images/CLIFFHB.png,,,,,,,,,,,,,,,,,,,,,z,1,0.871,,,,,,,,0,102,102,92,1
,,,,,,,,,,,,,,,,,5fea7bd6c92395acf31ae3a7,47,2022-02-12_12h55.20.667,lexical_decision_task_DD_L3,2021.2.3,Win32,59.95203837,,,,,,,,,,,0.876,1,,,,,,,,,,,,,,,,,,,,,,,,0.0546875,-0.388020833,0,0,0,,,,,,,CURRY,LB,z,m,./images/CURRYLB.png,,,,,,,,,,,,,,,,,,,,,z,1,0.876,,,,,,,,0,103,103,144,1
,,,,,,,,,,,,,,,,,5fea7bd6c92395acf31ae3a7,47,2022-02-12_12h55.20.667,lexical_decision_task_DD_L3,2021.2.3,Win32,59.95203837,,,,,,,,,,,1.409,0,,,,,,,,,,,,,,,,,,,,,,,,0.0546875,-0.388020833,0,0,0,,,,,,,DOUGH,C,m,m,./images/DOUGH.png,,,,,,,,,,,,,,,,,,,,,z,0,1.409,,,,,,,,0,104,104,19,1
,,,,,,,,,,,,,,,,,5fea7bd6c92395acf31ae3a7,47,2022-02-12_12h55.20.667,lexical_decision_task_DD_L3,2021.2.3,Win32,59.95203837,,,,,,,,,,,0.769,1,,,,,,,,,,,,,,,,,,,,,,,,0.0546875,-0.388020833,0,0,0,,,,,,,URINE,C,m,m,./images/URINE.png,,,,,,,,,,,,,,,,,,,,,m,1,0.769,,,,,,,,0,105,105,70,1
,,,,,,,,,,,,,,,,,5fea7bd6c92395acf31ae3a7,47,2022-02-12_12h55.20.667,lexical_decision_task_DD_L3,2021.2.3,Win32,59.95203837,,,,,,,,,,,1.184,0,,,,,,,,,,,,,,,,,,,,,,,,0.0546875,-0.388020833,0,0,0,,,,,,,CANOE,C,z,m,./images/CANOE.png,,,,,,,,,,,,,,,,,,,,,m,0,1.184,,,,,,,,0,106,106,142,1
,,,,,,,,,,,,,,,,,5fea7bd6c92395acf31ae3a7,47,2022-02-12_12h55.20.667,lexical_decision_task_DD_L3,2021.2.3,Win32,59.95203837,,,,,,,,,,,2.132,0,,,,,,,,,,,,,,,,,,,,,,,,0.0546875,-0.388020833,0,0,0,,,,,,,STATUE,LB,z,m,./images/STATUELB.png,,,,,,,,,,,,,,,,,,,,,m,0,2.132,,,,,,,,0,107,107,150,1
,,,,,,,,,,,,,,,,,5fea7bd6c92395acf31ae3a7,47,2022-02-12_12h55.20.667,lexical_decision_task_DD_L3,2021.2.3,Win32,59.95203837,,,,,,,,,,,0.727,1,,,,,,,,,,,,,,,,,,,,,,,,0.0546875,-0.388020833,0,0,0,,,,,,,CRUST,C,m,m,./images/CRUST.png,,,,,,,,,,,,,,,,,,,,,m,1,0.727,,,,,,,,0,108,108,79,1
,,,,,,,,,,,,,,,,,5fea7bd6c92395acf31ae3a7,47,2022-02-12_12h55.20.667,lexical_decision_task_DD_L3,2021.2.3,Win32,59.95203837,,,,,,,,,,,0.8,0,,,,,,,,,,,,,,,,,,,,,,,,0.0546875,-0.388020833,0,0,0,,,,,,,BONNET,HB,m,m,./images/BONNETHB.png,,,,,,,,,,,,,,,,,,,,,z,0,0.8,,,,,,,,0,109,109,11,1
,,,,,,,,,,,,,,,,,5fea7bd6c92395acf31ae3a7,47,2022-02-12_12h55.20.667,lexical_decision_task_DD_L3,2021.2.3,Win32,59.95203837,,,,,,,,,,,1.02,0,,,,,,,,,,,,,,,,,,,,,,,,0.0546875,-0.388020833,0,0,0,,,,,,,JELLY,C,m,m,./images/JELLY.png,,,,,,,,,,,,,,,,,,,,,z,0,1.02,,,,,,,,0,110,110,64,1
,,,,,,,,,,,,,,,,,5fea7bd6c92395acf31ae3a7,47,2022-02-12_12h55.20.667,lexical_decision_task_DD_L3,2021.2.3,Win32,59.95203837,,,,,,,,,,,0.614,1,,,,,,,,,,,,,,,,,,,,,,,,0.0546875,-0.388020833,0,0,0,,,,,,,PEBBLE,C,z,m,./images/PEBBLE.png,,,,,,,,,,,,,,,,,,,,,z,1,0.614,,,,,,,,0,111,111,166,1
,,,,,,,,,,,,,,,,,5fea7bd6c92395acf31ae3a7,47,2022-02-12_12h55.20.667,lexical_decision_task_DD_L3,2021.2.3,Win32,59.95203837,,,,,,,,,,,0.818,1,,,,,,,,,,,,,,,,,,,,,,,,0.0546875,-0.388020833,0,0,0,,,,,,,SHELF,LB,m,m,./images/SHELFLB.png,,,,,,,,,,,,,,,,,,,,,m,1,0.818,,,,,,,,0,112,112,39,1
,,,,,,,,,,,,,,,,,5fea7bd6c92395acf31ae3a7,47,2022-02-12_12h55.20.667,lexical_decision_task_DD_L3,2021.2.3,Win32,59.95203837,,,,,,,,,,,0.984,1,,,,,,,,,,,,,,,,,,,,,,,,0.0546875,-0.388020833,0,0,0,,,,,,,BANANA,C,z,m,./images/BANANA.png,,,,,,,,,,,,,,,,,,,,,z,1,0.984,,,,,,,,0,113,113,154,1
,,,,,,,,,,,,,,,,,5fea7bd6c92395acf31ae3a7,47,2022-02-12_12h55.20.667,lexical_decision_task_DD_L3,2021.2.3,Win32,59.95203837,,,,,,,,,,,0.874,1,,,,,,,,,,,,,,,,,,,,,,,,0.0546875,-0.388020833,0,0,0,,,,,,,BLOKE,LB,z,m,./images/BLOKELB.png,,,,,,,,,,,,,,,,,,,,,z,1,0.874,,,,,,,,0,114,114,96,1
,,,,,,,,,,,,,,,,,5fea7bd6c92395acf31ae3a7,47,2022-02-12_12h55.20.667,lexical_decision_task_DD_L3,2021.2.3,Win32,59.95203837,,,,,,,,,,,0.631,1,,,,,,,,,,,,,,,,,,,,,,,,0.0546875,-0.388020833,0,0,0,,,,,,,BOILER,LB,z,m,./images/BOILERLB.png,,,,,,,,,,,,,,,,,,,,,z,1,0.631,,,,,,,,0,115,115,120,1
,,,,,,,,,,,,,,,,,5fea7bd6c92395acf31ae3a7,47,2022-02-12_12h55.20.667,lexical_decision_task_DD_L3,2021.2.3,Win32,59.95203837,,,,,,,,,,,1.022,1,,,,,,,,,,,,,,,,,,,,,,,,0.0546875,-0.388020833,0,0,0,,,,,,,NOOSE,LB,m,m,./images/NOOSELB.png,,,,,,,,,,,,,,,,,,,,,m,1,1.022,,,,,,,,0,116,116,72,1
,,,,,,,,,,,,,,,,,5fea7bd6c92395acf31ae3a7,47,2022-02-12_12h55.20.667,lexical_decision_task_DD_L3,2021.2.3,Win32,59.95203837,,,,,,,,,,,0.693,1,,,,,,,,,,,,,,,,,,,,,,,,0.0546875,-0.388020833,0,0,0,,,,,,,CRATER,LB,z,m,./images/CRATERLB.png,,,,,,,,,,,,,,,,,,,,,z,1,0.693,,,,,,,,0,117,117,87,1
,,,,,,,,,,,,,,,,,5fea7bd6c92395acf31ae3a7,47,2022-02-12_12h55.20.667,lexical_decision_task_DD_L3,2021.2.3,Win32,59.95203837,,,,,,,,,,,0.729,1,,,,,,,,,,,,,,,,,,,,,,,,0.0546875,-0.388020833,0,0,0,,,,,,,DANCER,LB,z,m,./images/DANCERLB.png,,,,,,,,,,,,,,,,,,,,,z,1,0.729,,,,,,,,0,118,118,105,1
,,,,,,,,,,,,,,,,,5fea7bd6c92395acf31ae3a7,47,2022-02-12_12h55.20.667,lexical_decision_task_DD_L3,2021.2.3,Win32,59.95203837,,,,,,,,,,,0.931,1,,,,,,,,,,,,,,,,,,,,,,,,0.0546875,-0.388020833,0,0,0,,,,,,,DIVER,LB,z,m,./images/DIVERLB.png,,,,,,,,,,,,,,,,,,,,,z,1,0.931,,,,,,,,0,119,119,93,1
,,,,,,,,,,,,,,,,,5fea7bd6c92395acf31ae3a7,47,2022-02-12_12h55.20.667,lexical_decision_task_DD_L3,2021.2.3,Win32,59.95203837,,,,,,,,,,,0.953,0,,,,,,,,,,,,,,,,,,,,,,,,0.0546875,-0.388020833,0,0,0,,,,,,,SWEAT,LB,m,m,./images/SWEATLB.png,,,,,,,,,,,,,,,,,,,,,z,0,0.953,,,,,,,,0,120,120,66,1
,,,,,,,,,,,,,,,,,5fea7bd6c92395acf31ae3a7,47,2022-02-12_12h55.20.667,lexical_decision_task_DD_L3,2021.2.3,Win32,59.95203837,,,,,,,,,,,0.717,1,,,,,,,,,,,,,,,,,,,,,,,,0.0546875,-0.388020833,0,0,0,,,,,,,BUNNY,C,z,m,./images/BUNNY.png,,,,,,,,,,,,,,,,,,,,,z,1,0.717,,,,,,,,0,121,121,97,1
,,,,,,,,,,,,,,,,,5fea7bd6c92395acf31ae3a7,47,2022-02-12_12h55.20.667,lexical_decision_task_DD_L3,2021.2.3,Win32,59.95203837,,,,,,,,,,,0.766,1,,,,,,,,,,,,,,,,,,,,,,,,0.0546875,-0.388020833,0,0,0,,,,,,,SMOKER,HB,m,m,./images/SMOKERHB.png,,,,,,,,,,,,,,,,,,,,,m,1,0.766,,,,,,,,0,122,122,26,1
,,,,,,,,,,,,,,,,,5fea7bd6c92395acf31ae3a7,47,2022-02-12_12h55.20.667,lexical_decision_task_DD_L3,2021.2.3,Win32,59.95203837,,,,,,,,,,,1.1,0,,,,,,,,,,,,,,,,,,,,,,,,0.0546875,-0.388020833,0,0,0,,,,,,,SUNSET,C,m,m,./images/SUNSET.png,,,,,,,,,,,,,,,,,,,,,z,0,1.1,,,,,,,,0,123,123,82,1
,,,,,,,,,,,,,,,,,5fea7bd6c92395acf31ae3a7,47,2022-02-12_12h55.20.667,lexical_decision_task_DD_L3,2021.2.3,Win32,59.95203837,,,,,,,,,,,0.699,0,,,,,,,,,,,,,,,,,,,,,,,,0.0546875,-0.388020833,0,0,0,,,,,,,BANNER,C,m,m,./images/BANNER.png,,,,,,,,,,,,,,,,,,,,,z,0,0.699,,,,,,,,0,124,124,52,1
,,,,,,,,,,,,,,,,,5fea7bd6c92395acf31ae3a7,47,2022-02-12_12h55.20.667,lexical_decision_task_DD_L3,2021.2.3,Win32,59.95203837,,,,,,,,,,,0.717,1,,,,,,,,,,,,,,,,,,,,,,,,0.0546875,-0.388020833,0,0,0,space,,,,,,SNAKE,C,z,m,./images/SNAKE.png,9.599,,,,,,,,,,,,,,,,,,,,z,1,0.717,,,,,,,,0,125,125,124,1
,,,,,,,,,,,,,,,,,5fea7bd6c92395acf31ae3a7,47,2022-02-12_12h55.20.667,lexical_decision_task_DD_L3,2021.2.3,Win32,59.95203837,,,,,,,,,,,1.599,1,,,,,,,,,,,,,,,,,,,,,,,,0.0546875,-0.388020833,0,0,0,,,,,,,TULIP,HB,m,m,./images/TULIPHB.png,,,,,,,,,,,,,,,,,,,,,m,1,1.599,,,,,,,,0,126,126,8,1
,,,,,,,,,,,,,,,,,5fea7bd6c92395acf31ae3a7,47,2022-02-12_12h55.20.667,lexical_decision_task_DD_L3,2021.2.3,Win32,59.95203837,,,,,,,,,,,1.235,1,,,,,,,,,,,,,,,,,,,,,,,,0.0546875,-0.388020833,0,0,0,,,,,,,DRILL,LB,z,m,./images/DRILLLB.png,,,,,,,,,,,,,,,,,,,,,z,1,1.235,,,,,,,,0,127,127,165,1
,,,,,,,,,,,,,,,,,5fea7bd6c92395acf31ae3a7,47,2022-02-12_12h55.20.667,lexical_decision_task_DD_L3,2021.2.3,Win32,59.95203837,,,,,,,,,,,0.798,1,,,,,,,,,,,,,,,,,,,,,,,,0.0546875,-0.388020833,0,0,0,,,,,,,COUCH,HB,m,m,./images/COUCHHB.png,,,,,,,,,,,,,,,,,,,,,m,1,0.798,,,,,,,,0,128,128,77,1
,,,,,,,,,,,,,,,,,5fea7bd6c92395acf31ae3a7,47,2022-02-12_12h55.20.667,lexical_decision_task_DD_L3,2021.2.3,Win32,59.95203837,,,,,,,,,,,0.833,0,,,,,,,,,,,,,,,,,,,,,,,,0.0546875,-0.388020833,0,0,0,,,,,,,THROAT,LB,m,m,./images/THROATLB.png,,,,,,,,,,,,,,,,,,,,,z,0,0.833,,,,,,,,0,129,129,36,1
,,,,,,,,,,,,,,,,,5fea7bd6c92395acf31ae3a7,47,2022-02-12_12h55.20.667,lexical_decision_task_DD_L3,2021.2.3,Win32,59.95203837,,,,,,,,,,,0.766,0,,,,,,,,,,,,,,,,,,,,,,,,0.0546875,-0.388020833,0,0,0,,,,,,,MOTOR,C,m,m,./images/MOTOR.png,,,,,,,,,,,,,,,,,,,,,z,0,0.766,,,,,,,,0,130,130,13,1
,,,,,,,,,,,,,,,,,5fea7bd6c92395acf31ae3a7,47,2022-02-12_12h55.20.667,lexical_decision_task_DD_L3,2021.2.3,Win32,59.95203837,,,,,,,,,,,0.776,1,,,,,,,,,,,,,,,,,,,,,,,,0.0546875,-0.388020833,0,0,0,,,,,,,PURSE,HB,m,m,./images/PURSEHB.png,,,,,,,,,,,,,,,,,,,,,m,1,0.776,,,,,,,,0,131,131,62,1
,,,,,,,,,,,,,,,,,5fea7bd6c92395acf31ae3a7,47,2022-02-12_12h55.20.667,lexical_decision_task_DD_L3,2021.2.3,Win32,59.95203837,,,,,,,,,,,0.897,1,,,,,,,,,,,,,,,,,,,,,,,,0.0546875,-0.388020833,0,0,0,,,,,,,MUMMY,C,z,m,./images/MUMMY.png,,,,,,,,,,,,,,,,,,,,,z,1,0.897,,,,,,,,0,132,132,130,1
,,,,,,,,,,,,,,,,,5fea7bd6c92395acf31ae3a7,47,2022-02-12_12h55.20.667,lexical_decision_task_DD_L3,2021.2.3,Win32,59.95203837,,,,,,,,,,,0.757,1,,,,,,,,,,,,,,,,,,,,,,,,0.0546875,-0.388020833,0,0,0,,,,,,,MALLET,HB,m,m,./images/MALLETHB.png,,,,,,,,,,,,,,,,,,,,,m,1,0.757,,,,,,,,0,133,133,50,1
,,,,,,,,,,,,,,,,,5fea7bd6c92395acf31ae3a7,47,2022-02-12_12h55.20.667,lexical_decision_task_DD_L3,2021.2.3,Win32,59.95203837,,,,,,,,,,,0.821,0,,,,,,,,,,,,,,,,,,,,,,,,0.0546875,-0.388020833,0,0,0,,,,,,,SQUARE,LB,m,m,./images/SQUARELB.png,,,,,,,,,,,,,,,,,,,,,z,0,0.821,,,,,,,,0,134,134,6,1
,,,,,,,,,,,,,,,,,5fea7bd6c92395acf31ae3a7,47,2022-02-12_12h55.20.667,lexical_decision_task_DD_L3,2021.2.3,Win32,59.95203837,,,,,,,,,,,0.989,1,,,,,,,,,,,,,,,,,,,,,,,,0.0546875,-0.388020833,0,0,0,,,,,,,KITTEN,LB,m,m,./images/KITTENLB.png,,,,,,,,,,,,,,,,,,,,,m,1,0.989,,,,,,,,0,135,135,45,1
,,,,,,,,,,,,,,,,,5fea7bd6c92395acf31ae3a7,47,2022-02-12_12h55.20.667,lexical_decision_task_DD_L3,2021.2.3,Win32,59.95203837,,,,,,,,,,,0.849,0,,,,,,,,,,,,,,,,,,,,,,,,0.0546875,-0.388020833,0,0,0,,,,,,,BIRTH,C,m,m,./images/BIRTH.png,,,,,,,,,,,,,,,,,,,,,z,0,0.849,,,,,,,,0,136,136,37,1
,,,,,,,,,,,,,,,,,5fea7bd6c92395acf31ae3a7,47,2022-02-12_12h55.20.667,lexical_decision_task_DD_L3,2021.2.3,Win32,59.95203837,,,,,,,,,,,0.732,1,,,,,,,,,,,,,,,,,,,,,,,,0.0546875,-0.388020833,0,0,0,,,,,,,CLOWN,C,z,m,./images/CLOWN.png,,,,,,,,,,,,,,,,,,,,,z,1,0.732,,,,,,,,0,137,137,106,1
,,,,,,,,,,,,,,,,,5fea7bd6c92395acf31ae3a7,47,2022-02-12_12h55.20.667,lexical_decision_task_DD_L3,2021.2.3,Win32,59.95203837,,,,,,,,,,,0.8,0,,,,,,,,,,,,,,,,,,,,,,,,0.0546875,-0.388020833,0,0,0,,,,,,,POODLE,LB,m,m,./images/POODLELB.png,,,,,,,,,,,,,,,,,,,,,z,0,0.8,,,,,,,,0,138,138,81,1
