key_resp.keys,key_resp.rt,instr_done_touch.x,instr_done_touch.y,instr_done_touch.leftButton,instr_done_touch.midButton,instr_done_touch.rightButton,instruction_pages.thisRepN,instruction_pages.thisTrialN,instruction_pages.thisN,instruction_pages.thisIndex,instruction_pages.ran,pageN,phase,instruct_text,has_image,instruct_image,participant,age,date,expName,psychopyVersion,OS,frameRate,response.keys,response.corr,response.rt,touch_resp.x,touch_resp.y,touch_resp.leftButton,touch_resp.midButton,touch_resp.rightButton,touch_resp.time,touch_resp.clicked_name,rt,corr,practrials.thisRepN,practrials.thisTrialN,practrials.thisN,practrials.thisIndex,practrials.ran,TrialID,Target,corrAns,end_of_practice_trials_pages.thisRepN,end_of_practice_trials_pages.thisTrialN,end_of_practice_trials_pages.thisN,end_of_practice_trials_pages.thisIndex,end_of_practice_trials_pages.ran,key_resp_2.keys,key_resp_2.corr,key_resp_2.rt,targ_click.x,targ_click.y,targ_click.leftButton,targ_click.midButton,targ_click.rightButton,targ_click.time,targ_click.clicked_name,break_done_touch.x,break_done_touch.y,break_done_touch.leftButton,break_done_touch.midButton,break_done_touch.rightButton,break_done_keyboard.keys,maintrials.thisRepN,maintrials.thisTrialN,maintrials.thisN,maintrials.thisIndex,maintrials.ran,string,blur,study,lex,stim_path,break_done_keyboard.rt,mouse_2.x,mouse_2.y,mouse_2.leftButton,mouse_2.midButton,mouse_2.rightButton,mouse_2.clicked_name,slider.response,slider.rt,trials.thisRepN,trials.thisTrialN,trials.thisN,trials.thisIndex,trials.ran,test_instructions.thisRepN,test_instructions.thisTrialN,test_instructions.thisN,test_instructions.thisIndex,test_instructions.ran,instr_done_touch.clicked_name,key_resp_3.keys,key_resp_3.corr,key_resp_3.rt,test_click.x,test_click.y,test_click.leftButton,test_click.midButton,test_click.rightButton,test_click.time,test_click.clicked_name,test_phase.thisRepN,test_phase.thisTrialN,test_phase.thisN,test_phase.thisIndex,test_phase.ran
space,14.0874,0.140024821,-0.364954631,0,0,0,0,0,0,0,1,1,instructions,"INSTRUCTIONS
At the start of each trial, look at the plus sign  (+) in the center of the screen.  This tells you that a trial is about to begin and where to look. Second, the plus sign will disappear and a string of letters will appear. Your task is to determine if the string of letters is a word or not. If the item is a word press the M key (on keyboard)  or touch the word button (phone/tablet).  If the item is not a word,  press the  Z key (on keyboard)  or touch the nonword button (on phone/tablet). 
Press the space bar or touch  continue.",0,,5ffefaa56d69025c21c75e77,30,2022-02-12_13h28.59.969,lexical_decision_task_DD_L6,2021.2.3,MacIntel,60.0024001,,,,,,,,,,,,,,,,,,,,,,,,,,,,,,,,,,,,,,,,,,,,,,,,,,,,,,,,,,,,,,,,,,,,,,,,,,,,,,,,,,,,,,
space,5.7345,0.706939697,-0.162907918,0,0,0,0,1,1,1,1,2,instructions,"If your device has a keyboard, press the 'Z' key for nonwords and the 'M' key for words.





Press the space bar or touch the button below to continue.",0,keyboard-example.gif,5ffefaa56d69025c21c75e77,30,2022-02-12_13h28.59.969,lexical_decision_task_DD_L6,2021.2.3,MacIntel,60.0024001,,,,,,,,,,,,,,,,,,,,,,,,,,,,,,,,,,,,,,,,,,,,,,,,,,,,,,,,,,,,,,,,,,,,,,,,,,,,,,,,,,,,,,
space,1.5037,0.706939697,-0.162907918,0,0,0,0,2,2,2,1,3,instructions,"If you are using a touchscreen only device, use the buttons on the screen. Do not use the mouse.





Press the space bar or touch the button below to continue.",0,touchscreen-example.gif,5ffefaa56d69025c21c75e77,30,2022-02-12_13h28.59.969,lexical_decision_task_DD_L6,2021.2.3,MacIntel,60.0024001,,,,,,,,,,,,,,,,,,,,,,,,,,,,,,,,,,,,,,,,,,,,,,,,,,,,,,,,,,,,,,,,,,,,,,,,,,,,,,,,,,,,,,
space,3.2131,0.706939697,-0.162907918,0,0,0,0,3,3,3,1,4,instructions,"It is very important that you respond as quickly and accurately as possible, as each letter string will only be on the screen for two seconds. If you do not respond within this time, the message 'Too slow!' will be displayed and the experiment will progress to the next letter string. The first 20 trials will be practice trials and you will receive feedback on your answers. 

Press the space bar or touch the button below to start the practice trials.",0,,5ffefaa56d69025c21c75e77,30,2022-02-12_13h28.59.969,lexical_decision_task_DD_L6,2021.2.3,MacIntel,60.0024001,,,,,,,,,,,,,,,,,,,,,,,,,,,,,,,,,,,,,,,,,,,,,,,,,,,,,,,,,,,,,,,,,,,,,,,,,,,,,,,,,,,,,,
,,,,,,,,,,,,,,,,,5ffefaa56d69025c21c75e77,30,2022-02-12_13h28.59.969,lexical_decision_task_DD_L6,2021.2.3,MacIntel,60.0024001,z,1,1.2606,,,,,,,,1.2606,1,0,0,0,10,1,1001,INLADE,z,,,,,,,,,,,,,,,,,,,,,,,,,,,,,,,,,,,,,,,,,,,,,,,,,,,,,,,,,,,,,,,,,,
,,,,,,,,,,,,,,,,,5ffefaa56d69025c21c75e77,30,2022-02-12_13h28.59.969,lexical_decision_task_DD_L6,2021.2.3,MacIntel,60.0024001,z,1,0.7041,,,,,,,,0.7041,1,0,1,1,14,1,1001,THRALE,z,,,,,,,,,,,,,,,,,,,,,,,,,,,,,,,,,,,,,,,,,,,,,,,,,,,,,,,,,,,,,,,,,,
,,,,,,,,,,,,,,,,,5ffefaa56d69025c21c75e77,30,2022-02-12_13h28.59.969,lexical_decision_task_DD_L6,2021.2.3,MacIntel,60.0024001,m,1,0.4726,,,,,,,,0.4726,1,0,2,2,2,1,1001,ALMOND,m,,,,,,,,,,,,,,,,,,,,,,,,,,,,,,,,,,,,,,,,,,,,,,,,,,,,,,,,,,,,,,,,,,
,,,,,,,,,,,,,,,,,5ffefaa56d69025c21c75e77,30,2022-02-12_13h28.59.969,lexical_decision_task_DD_L6,2021.2.3,MacIntel,60.0024001,m,1,0.5499,,,,,,,,0.5499,1,0,3,3,0,1,1001,UTOPIA,m,,,,,,,,,,,,,,,,,,,,,,,,,,,,,,,,,,,,,,,,,,,,,,,,,,,,,,,,,,,,,,,,,,
,,,,,,,,,,,,,,,,,5ffefaa56d69025c21c75e77,30,2022-02-12_13h28.59.969,lexical_decision_task_DD_L6,2021.2.3,MacIntel,60.0024001,m,1,0.5656,,,,,,,,0.5656,1,0,4,4,6,1,1001,ZOMBIE,m,,,,,,,,,,,,,,,,,,,,,,,,,,,,,,,,,,,,,,,,,,,,,,,,,,,,,,,,,,,,,,,,,,
,,,,,,,,,,,,,,,,,5ffefaa56d69025c21c75e77,30,2022-02-12_13h28.59.969,lexical_decision_task_DD_L6,2021.2.3,MacIntel,60.0024001,z,1,0.5659,,,,,,,,0.5659,1,0,5,5,9,1,1001,FARINY,z,,,,,,,,,,,,,,,,,,,,,,,,,,,,,,,,,,,,,,,,,,,,,,,,,,,,,,,,,,,,,,,,,,
,,,,,,,,,,,,,,,,,5ffefaa56d69025c21c75e77,30,2022-02-12_13h28.59.969,lexical_decision_task_DD_L6,2021.2.3,MacIntel,60.0024001,m,1,0.5198,,,,,,,,0.5198,1,0,6,6,3,1,1001,MATRIX,m,,,,,,,,,,,,,,,,,,,,,,,,,,,,,,,,,,,,,,,,,,,,,,,,,,,,,,,,,,,,,,,,,,
,,,,,,,,,,,,,,,,,5ffefaa56d69025c21c75e77,30,2022-02-12_13h28.59.969,lexical_decision_task_DD_L6,2021.2.3,MacIntel,60.0024001,z,1,0.6153,,,,,,,,0.6153,1,0,7,7,12,1,1001,SPRINY,z,,,,,,,,,,,,,,,,,,,,,,,,,,,,,,,,,,,,,,,,,,,,,,,,,,,,,,,,,,,,,,,,,,
,,,,,,,,,,,,,,,,,5ffefaa56d69025c21c75e77,30,2022-02-12_13h28.59.969,lexical_decision_task_DD_L6,2021.2.3,MacIntel,60.0024001,z,1,0.7017,,,,,,,,0.7017,1,0,8,8,11,1,1001,RASHET,z,,,,,,,,,,,,,,,,,,,,,,,,,,,,,,,,,,,,,,,,,,,,,,,,,,,,,,,,,,,,,,,,,,
,,,,,,,,,,,,,,,,,5ffefaa56d69025c21c75e77,30,2022-02-12_13h28.59.969,lexical_decision_task_DD_L6,2021.2.3,MacIntel,60.0024001,m,1,0.4805,,,,,,,,0.4805,1,0,9,9,7,1,1001,VOLUME,m,,,,,,,,,,,,,,,,,,,,,,,,,,,,,,,,,,,,,,,,,,,,,,,,,,,,,,,,,,,,,,,,,,
,,,,,,,,,,,,,,,,,5ffefaa56d69025c21c75e77,30,2022-02-12_13h28.59.969,lexical_decision_task_DD_L6,2021.2.3,MacIntel,60.0024001,z,1,0.5894,,,,,,,,0.5894,1,0,10,10,15,1,1001,WHAISE,z,,,,,,,,,,,,,,,,,,,,,,,,,,,,,,,,,,,,,,,,,,,,,,,,,,,,,,,,,,,,,,,,,,
,,,,,,,,,,,,,,,,,5ffefaa56d69025c21c75e77,30,2022-02-12_13h28.59.969,lexical_decision_task_DD_L6,2021.2.3,MacIntel,60.0024001,m,1,0.63,,,,,,,,0.63,1,0,11,11,5,1,1001,OBTAIN,m,,,,,,,,,,,,,,,,,,,,,,,,,,,,,,,,,,,,,,,,,,,,,,,,,,,,,,,,,,,,,,,,,,
,,,,,,,,,,,,,,,,,5ffefaa56d69025c21c75e77,30,2022-02-12_13h28.59.969,lexical_decision_task_DD_L6,2021.2.3,MacIntel,60.0024001,m,1,0.5831,,,,,,,,0.5831,1,0,12,12,4,1,1001,SQUEAK,m,,,,,,,,,,,,,,,,,,,,,,,,,,,,,,,,,,,,,,,,,,,,,,,,,,,,,,,,,,,,,,,,,,
,,,,,,,,,,,,,,,,,5ffefaa56d69025c21c75e77,30,2022-02-12_13h28.59.969,lexical_decision_task_DD_L6,2021.2.3,MacIntel,60.0024001,m,1,0.5315,,,,,,,,0.5315,1,0,13,13,1,1,1001,ADJUST,m,,,,,,,,,,,,,,,,,,,,,,,,,,,,,,,,,,,,,,,,,,,,,,,,,,,,,,,,,,,,,,,,,,
,,,,,,,,,,,,,,,,,5ffefaa56d69025c21c75e77,30,2022-02-12_13h28.59.969,lexical_decision_task_DD_L6,2021.2.3,MacIntel,60.0024001,z,1,0.5318,,,,,,,,0.5318,1,0,14,14,13,1,1001,ROUPET,z,,,,,,,,,,,,,,,,,,,,,,,,,,,,,,,,,,,,,,,,,,,,,,,,,,,,,,,,,,,,,,,,,,
,,,,,,,,,,,,,,,,,5ffefaa56d69025c21c75e77,30,2022-02-12_13h28.59.969,lexical_decision_task_DD_L6,2021.2.3,MacIntel,60.0024001,z,1,0.7162,,,,,,,,0.7162,1,0,15,15,8,1,1001,ASLERT,z,,,,,,,,,,,,,,,,,,,,,,,,,,,,,,,,,,,,,,,,,,,,,,,,,,,,,,,,,,,,,,,,,,
space,3.8395,0.706598918,-0.15935262,0,0,0,,,,,,1,end_of_practice,"You have completed the practice trials. During the experimental trials, you will not receive feedback. 
Before you begin, please ensure that you are in a comfortable and quiet location and will not be disturbed for about 15 minutes, as we cannot use your data if you do not complete all the trials. 
 When you are ready to start the experimental trials, please press space or touch the button below.",,,5ffefaa56d69025c21c75e77,30,2022-02-12_13h28.59.969,lexical_decision_task_DD_L6,2021.2.3,MacIntel,60.0024001,,,,,,,,,,,,,,,,,,,,,0,0,0,0,1,,,,,,,,,,,,,,,,,,,,,,,,,,,,,,,,,,,,,,,,,,,,,,,,,,,,,,,,,,,,,
,,,,,,,,,,,,,,,,,5ffefaa56d69025c21c75e77,30,2022-02-12_13h28.59.969,lexical_decision_task_DD_L6,2021.2.3,MacIntel,60.0024001,,,,,,,,,,,0.5687,1,,,,,,,,,,,,,,z,1,0.5687,,,,,,,,0.706598918,-0.15935262,0,0,0,,0,0,0,111,1,HOSSE,C,z,z,./images/HOSSE.png,,,,,,,,,,,,,,,,,,,,,,,,,,,,,,,,,,,
,,,,,,,,,,,,,,,,,5ffefaa56d69025c21c75e77,30,2022-02-12_13h28.59.969,lexical_decision_task_DD_L6,2021.2.3,MacIntel,60.0024001,,,,,,,,,,,1.613,1,,,,,,,,,,,,,,m,1,1.613,,,,,,,,0.706598918,-0.15935262,0,0,0,,0,1,1,62,1,MAMMAL,HB,m,m,./images/MAMMALHB.png,,,,,,,,,,,,,,,,,,,,,,,,,,,,,,,,,,,
,,,,,,,,,,,,,,,,,5ffefaa56d69025c21c75e77,30,2022-02-12_13h28.59.969,lexical_decision_task_DD_L6,2021.2.3,MacIntel,60.0024001,,,,,,,,,,,0.7492,1,,,,,,,,,,,,,,z,1,0.7492,,,,,,,,0.706598918,-0.15935262,0,0,0,,0,2,2,141,1,PLEET,C,z,z,./images/PLEET.png,,,,,,,,,,,,,,,,,,,,,,,,,,,,,,,,,,,
,,,,,,,,,,,,,,,,,5ffefaa56d69025c21c75e77,30,2022-02-12_13h28.59.969,lexical_decision_task_DD_L6,2021.2.3,MacIntel,60.0024001,,,,,,,,,,,0.54,1,,,,,,,,,,,,,,m,1,0.54,,,,,,,,0.706598918,-0.15935262,0,0,0,,0,3,3,16,1,GRAPE,C,m,m,./images/GRAPE.png,,,,,,,,,,,,,,,,,,,,,,,,,,,,,,,,,,,
,,,,,,,,,,,,,,,,,5ffefaa56d69025c21c75e77,30,2022-02-12_13h28.59.969,lexical_decision_task_DD_L6,2021.2.3,MacIntel,60.0024001,,,,,,,,,,,0.5447,1,,,,,,,,,,,,,,m,1,0.5447,,,,,,,,0.706598918,-0.15935262,0,0,0,,0,4,4,70,1,BANANA,C,m,m,./images/BANANA.png,,,,,,,,,,,,,,,,,,,,,,,,,,,,,,,,,,,
,,,,,,,,,,,,,,,,,5ffefaa56d69025c21c75e77,30,2022-02-12_13h28.59.969,lexical_decision_task_DD_L6,2021.2.3,MacIntel,60.0024001,,,,,,,,,,,0.8091,1,,,,,,,,,,,,,,m,1,0.8091,,,,,,,,0.706598918,-0.15935262,0,0,0,,0,5,5,20,1,GRANNY,HB,m,m,./images/GRANNYHB.png,,,,,,,,,,,,,,,,,,,,,,,,,,,,,,,,,,,
,,,,,,,,,,,,,,,,,5ffefaa56d69025c21c75e77,30,2022-02-12_13h28.59.969,lexical_decision_task_DD_L6,2021.2.3,MacIntel,60.0024001,,,,,,,,,,,1.1133,1,,,,,,,,,,,,,,z,1,1.1133,,,,,,,,0.706598918,-0.15935262,0,0,0,,0,6,6,97,1,CHIDS,HB,z,z,./images/CHIDSHB.png,,,,,,,,,,,,,,,,,,,,,,,,,,,,,,,,,,,
,,,,,,,,,,,,,,,,,5ffefaa56d69025c21c75e77,30,2022-02-12_13h28.59.969,lexical_decision_task_DD_L6,2021.2.3,MacIntel,60.0024001,,,,,,,,,,,0.5766,1,,,,,,,,,,,,,,m,1,0.5766,,,,,,,,0.706598918,-0.15935262,0,0,0,,0,7,7,82,1,PEBBLE,C,m,m,./images/PEBBLE.png,,,,,,,,,,,,,,,,,,,,,,,,,,,,,,,,,,,
,,,,,,,,,,,,,,,,,5ffefaa56d69025c21c75e77,30,2022-02-12_13h28.59.969,lexical_decision_task_DD_L6,2021.2.3,MacIntel,60.0024001,,,,,,,,,,,0.5637,1,,,,,,,,,,,,,,m,1,0.5637,,,,,,,,0.706598918,-0.15935262,0,0,0,,0,8,8,24,1,FLESH,LB,m,m,./images/FLESHLB.png,,,,,,,,,,,,,,,,,,,,,,,,,,,,,,,,,,,
,,,,,,,,,,,,,,,,,5ffefaa56d69025c21c75e77,30,2022-02-12_13h28.59.969,lexical_decision_task_DD_L6,2021.2.3,MacIntel,60.0024001,,,,,,,,,,,0.6426,1,,,,,,,,,,,,,,z,1,0.6426,,,,,,,,0.706598918,-0.15935262,0,0,0,,0,9,9,122,1,BLOOT,LB,z,z,./images/BLOOTLB.png,,,,,,,,,,,,,,,,,,,,,,,,,,,,,,,,,,,
,,,,,,,,,,,,,,,,,5ffefaa56d69025c21c75e77,30,2022-02-12_13h28.59.969,lexical_decision_task_DD_L6,2021.2.3,MacIntel,60.0024001,,,,,,,,,,,0.7796,1,,,,,,,,,,,,,,z,1,0.7796,,,,,,,,0.706598918,-0.15935262,0,0,0,,0,10,10,99,1,BACKY,C,z,z,./images/BACKY.png,,,,,,,,,,,,,,,,,,,,,,,,,,,,,,,,,,,
,,,,,,,,,,,,,,,,,5ffefaa56d69025c21c75e77,30,2022-02-12_13h28.59.969,lexical_decision_task_DD_L6,2021.2.3,MacIntel,60.0024001,,,,,,,,,,,1.5467,0,,,,,,,,,,,,,,m,0,1.5467,,,,,,,,0.706598918,-0.15935262,0,0,0,,0,11,11,130,1,CRILL,HB,z,z,./images/CRILLHB.png,,,,,,,,,,,,,,,,,,,,,,,,,,,,,,,,,,,
,,,,,,,,,,,,,,,,,5ffefaa56d69025c21c75e77,30,2022-02-12_13h28.59.969,lexical_decision_task_DD_L6,2021.2.3,MacIntel,60.0024001,,,,,,,,,,,1.3142,1,,,,,,,,,,,,,,z,1,1.3142,,,,,,,,0.706598918,-0.15935262,0,0,0,,0,12,12,157,1,INLER,HB,z,z,./images/INLERHB.png,,,,,,,,,,,,,,,,,,,,,,,,,,,,,,,,,,,
,,,,,,,,,,,,,,,,,5ffefaa56d69025c21c75e77,30,2022-02-12_13h28.59.969,lexical_decision_task_DD_L6,2021.2.3,MacIntel,60.0024001,,,,,,,,,,,0.5095,1,,,,,,,,,,,,,,m,1,0.5095,,,,,,,,0.706598918,-0.15935262,0,0,0,,0,13,13,27,1,BUTTER,LB,m,m,./images/BUTTERLB.png,,,,,,,,,,,,,,,,,,,,,,,,,,,,,,,,,,,
,,,,,,,,,,,,,,,,,5ffefaa56d69025c21c75e77,30,2022-02-12_13h28.59.969,lexical_decision_task_DD_L6,2021.2.3,MacIntel,60.0024001,,,,,,,,,,,1.0444,1,,,,,,,,,,,,,,z,1,1.0444,,,,,,,,0.706598918,-0.15935262,0,0,0,,0,14,14,145,1,LAMEL,HB,z,z,./images/LAMELHB.png,,,,,,,,,,,,,,,,,,,,,,,,,,,,,,,,,,,
,,,,,,,,,,,,,,,,,5ffefaa56d69025c21c75e77,30,2022-02-12_13h28.59.969,lexical_decision_task_DD_L6,2021.2.3,MacIntel,60.0024001,,,,,,,,,,,0.5959,1,,,,,,,,,,,,,,z,1,0.5959,,,,,,,,0.706598918,-0.15935262,0,0,0,,0,15,15,155,1,CANGY,LB,z,z,./images/CANGYLB.png,,,,,,,,,,,,,,,,,,,,,,,,,,,,,,,,,,,
,,,,,,,,,,,,,,,,,5ffefaa56d69025c21c75e77,30,2022-02-12_13h28.59.969,lexical_decision_task_DD_L6,2021.2.3,MacIntel,60.0024001,,,,,,,,,,,0.6667,1,,,,,,,,,,,,,,m,1,0.6667,,,,,,,,0.706598918,-0.15935262,0,0,0,,0,16,16,11,1,MEDAL,HB,m,m,./images/MEDALHB.png,,,,,,,,,,,,,,,,,,,,,,,,,,,,,,,,,,,
,,,,,,,,,,,,,,,,,5ffefaa56d69025c21c75e77,30,2022-02-12_13h28.59.969,lexical_decision_task_DD_L6,2021.2.3,MacIntel,60.0024001,,,,,,,,,,,0.7191,1,,,,,,,,,,,,,,m,1,0.7191,,,,,,,,0.706598918,-0.15935262,0,0,0,,0,17,17,80,1,PLANET,HB,m,m,./images/PLANETHB.png,,,,,,,,,,,,,,,,,,,,,,,,,,,,,,,,,,,
,,,,,,,,,,,,,,,,,5ffefaa56d69025c21c75e77,30,2022-02-12_13h28.59.969,lexical_decision_task_DD_L6,2021.2.3,MacIntel,60.0024001,,,,,,,,,,,0.698,1,,,,,,,,,,,,,,m,1,0.698,,,,,,,,0.706598918,-0.15935262,0,0,0,,0,18,18,34,1,RAZOR,C,m,m,./images/RAZOR.png,,,,,,,,,,,,,,,,,,,,,,,,,,,,,,,,,,,
,,,,,,,,,,,,,,,,,5ffefaa56d69025c21c75e77,30,2022-02-12_13h28.59.969,lexical_decision_task_DD_L6,2021.2.3,MacIntel,60.0024001,,,,,,,,,,,0.872,1,,,,,,,,,,,,,,m,1,0.872,,,,,,,,0.706598918,-0.158330282,0,0,0,,0,19,19,74,1,JUMPER,HB,m,m,./images/JUMPERHB.png,,,,,,,,,,,,,,,,,,,,,,,,,,,,,,,,,,,
,,,,,,,,,,,,,,,,,5ffefaa56d69025c21c75e77,30,2022-02-12_13h28.59.969,lexical_decision_task_DD_L6,2021.2.3,MacIntel,60.0024001,,,,,,,,,,,0.515,1,,,,,,,,,,,,,,z,1,0.515,,,,,,,,0.706598918,-0.158330282,0,0,0,,0,20,20,161,1,BLAPS,LB,z,z,./images/BLAPSLB.png,,,,,,,,,,,,,,,,,,,,,,,,,,,,,,,,,,,
,,,,,,,,,,,,,,,,,5ffefaa56d69025c21c75e77,30,2022-02-12_13h28.59.969,lexical_decision_task_DD_L6,2021.2.3,MacIntel,60.0024001,,,,,,,,,,,0.5302,0,,,,,,,,,,,,,,m,0,0.5302,,,,,,,,0.706598918,-0.158330282,0,0,0,,0,21,21,137,1,JOOST,LB,z,z,./images/JOOSTLB.png,,,,,,,,,,,,,,,,,,,,,,,,,,,,,,,,,,,
,,,,,,,,,,,,,,,,,5ffefaa56d69025c21c75e77,30,2022-02-12_13h28.59.969,lexical_decision_task_DD_L6,2021.2.3,MacIntel,60.0024001,,,,,,,,,,,0.5324,1,,,,,,,,,,,,,,m,1,0.5324,,,,,,,,0.706598918,-0.158330282,0,0,0,,0,22,22,66,1,STATUE,LB,m,m,./images/STATUELB.png,,,,,,,,,,,,,,,,,,,,,,,,,,,,,,,,,,,
,,,,,,,,,,,,,,,,,5ffefaa56d69025c21c75e77,30,2022-02-12_13h28.59.969,lexical_decision_task_DD_L6,2021.2.3,MacIntel,60.0024001,,,,,,,,,,,0.5606,1,,,,,,,,,,,,,,m,1,0.5606,,,,,,,,0.706598918,-0.158330282,0,0,0,,0,23,23,15,1,COLLAR,LB,m,m,./images/COLLARLB.png,,,,,,,,,,,,,,,,,,,,,,,,,,,,,,,,,,,
,,,,,,,,,,,,,,,,,5ffefaa56d69025c21c75e77,30,2022-02-12_13h28.59.969,lexical_decision_task_DD_L6,2021.2.3,MacIntel,60.0024001,,,,,,,,,,,0.5434,1,,,,,,,,,,,,,,m,1,0.5434,,,,,,,,0.706598918,-0.158330282,0,0,0,,0,24,24,19,1,DONKEY,C,m,m,./images/DONKEY.png,,,,,,,,,,,,,,,,,,,,,,,,,,,,,,,,,,,
,,,,,,,,,,,,,,,,,5ffefaa56d69025c21c75e77,30,2022-02-12_13h28.59.969,lexical_decision_task_DD_L6,2021.2.3,MacIntel,60.0024001,,,,,,,,,,,0.478,1,,,,,,,,,,,,,,m,1,0.478,,,,,,,,0.706598918,-0.158330282,0,0,0,,0,25,25,4,1,BOXER,C,m,m,./images/BOXER.png,,,,,,,,,,,,,,,,,,,,,,,,,,,,,,,,,,,
,,,,,,,,,,,,,,,,,5ffefaa56d69025c21c75e77,30,2022-02-12_13h28.59.969,lexical_decision_task_DD_L6,2021.2.3,MacIntel,60.0024001,,,,,,,,,,,0.7314,1,,,,,,,,,,,,,,m,1,0.7314,,,,,,,,0.706598918,-0.158330282,0,0,0,,0,26,26,45,1,MONKEY,LB,m,m,./images/MONKEYLB.png,,,,,,,,,,,,,,,,,,,,,,,,,,,,,,,,,,,
,,,,,,,,,,,,,,,,,5ffefaa56d69025c21c75e77,30,2022-02-12_13h28.59.969,lexical_decision_task_DD_L6,2021.2.3,MacIntel,60.0024001,,,,,,,,,,,0.7574,1,,,,,,,,,,,,,,m,1,0.7574,,,,,,,,0.706598918,-0.158330282,0,0,0,,0,27,27,72,1,FLASK,LB,m,m,./images/FLASKLB.png,,,,,,,,,,,,,,,,,,,,,,,,,,,,,,,,,,,
,,,,,,,,,,,,,,,,,5ffefaa56d69025c21c75e77,30,2022-02-12_13h28.59.969,lexical_decision_task_DD_L6,2021.2.3,MacIntel,60.0024001,,,,,,,,,,,0.7138,1,,,,,,,,,,,,,,m,1,0.7138,,,,,,,,0.706598918,-0.158330282,0,0,0,,0,28,28,9,1,DIVER,LB,m,m,./images/DIVERLB.png,,,,,,,,,,,,,,,,,,,,,,,,,,,,,,,,,,,
,,,,,,,,,,,,,,,,,5ffefaa56d69025c21c75e77,30,2022-02-12_13h28.59.969,lexical_decision_task_DD_L6,2021.2.3,MacIntel,60.0024001,,,,,,,,,,,0.6609,1,,,,,,,,,,,,,,m,1,0.6609,,,,,,,,0.706598918,-0.158330282,0,0,0,,0,29,29,14,1,FENCE,HB,m,m,./images/FENCEHB.png,,,,,,,,,,,,,,,,,,,,,,,,,,,,,,,,,,,
,,,,,,,,,,,,,,,,,5ffefaa56d69025c21c75e77,30,2022-02-12_13h28.59.969,lexical_decision_task_DD_L6,2021.2.3,MacIntel,60.0024001,,,,,,,,,,,0.5911,1,,,,,,,,,,,,,,z,1,0.5911,,,,,,,,0.706598918,-0.158330282,0,0,0,,0,30,30,132,1,SCIFF,C,z,z,./images/SCIFF.png,,,,,,,,,,,,,,,,,,,,,,,,,,,,,,,,,,,
,,,,,,,,,,,,,,,,,5ffefaa56d69025c21c75e77,30,2022-02-12_13h28.59.969,lexical_decision_task_DD_L6,2021.2.3,MacIntel,60.0024001,,,,,,,,,,,0.6071,0,,,,,,,,,,,,,,m,0,0.6071,,,,,,,,0.706598918,-0.158330282,0,0,0,,0,31,31,110,1,CRUNK,LB,z,z,./images/CRUNKLB.png,,,,,,,,,,,,,,,,,,,,,,,,,,,,,,,,,,,
,,,,,,,,,,,,,,,,,5ffefaa56d69025c21c75e77,30,2022-02-12_13h28.59.969,lexical_decision_task_DD_L6,2021.2.3,MacIntel,60.0024001,,,,,,,,,,,0.6125,1,,,,,,,,,,,,,,z,1,0.6125,,,,,,,,0.706598918,-0.158330282,0,0,0,,0,32,32,167,1,ZONET,LB,z,z,./images/ZONETLB.png,,,,,,,,,,,,,,,,,,,,,,,,,,,,,,,,,,,
,,,,,,,,,,,,,,,,,5ffefaa56d69025c21c75e77,30,2022-02-12_13h28.59.969,lexical_decision_task_DD_L6,2021.2.3,MacIntel,60.0024001,,,,,,,,,,,0.6955,1,,,,,,,,,,,,,,m,1,0.6955,,,,,,,,0.706598918,-0.158330282,0,0,0,,0,33,33,81,1,DRILL,LB,m,m,./images/DRILLLB.png,,,,,,,,,,,,,,,,,,,,,,,,,,,,,,,,,,,
,,,,,,,,,,,,,,,,,5ffefaa56d69025c21c75e77,30,2022-02-12_13h28.59.969,lexical_decision_task_DD_L6,2021.2.3,MacIntel,60.0024001,,,,,,,,,,,1.3589,1,,,,,,,,,,,,,,z,1,1.3589,,,,,,,,0.706598918,-0.158330282,0,0,0,,0,34,34,151,1,TINKY,HB,z,z,./images/TINKYHB.png,,,,,,,,,,,,,,,,,,,,,,,,,,,,,,,,,,,
,,,,,,,,,,,,,,,,,5ffefaa56d69025c21c75e77,30,2022-02-12_13h28.59.969,lexical_decision_task_DD_L6,2021.2.3,MacIntel,60.0024001,,,,,,,,,,,1.0483,1,,,,,,,,,,,,,,m,1,1.0483,,,,,,,,0.706598918,-0.158330282,0,0,0,,0,35,35,50,1,PILOT,HB,m,m,./images/PILOTHB.png,,,,,,,,,,,,,,,,,,,,,,,,,,,,,,,,,,,
,,,,,,,,,,,,,,,,,5ffefaa56d69025c21c75e77,30,2022-02-12_13h28.59.969,lexical_decision_task_DD_L6,2021.2.3,MacIntel,60.0024001,,,,,,,,,,,0.5798,0,,,,,,,,,,,,,,z,0,0.5798,,,,,,,,0.706598918,-0.158330282,0,0,0,,0,36,36,12,1,BLOKE,LB,m,m,./images/BLOKELB.png,,,,,,,,,,,,,,,,,,,,,,,,,,,,,,,,,,,
,,,,,,,,,,,,,,,,,5ffefaa56d69025c21c75e77,30,2022-02-12_13h28.59.969,lexical_decision_task_DD_L6,2021.2.3,MacIntel,60.0024001,,,,,,,,,,,0.6493,1,,,,,,,,,,,,,,z,1,0.6493,,,,,,,,0.706598918,-0.158330282,0,0,0,,0,37,37,98,1,BAMPS,LB,z,z,./images/BAMPSLB.png,,,,,,,,,,,,,,,,,,,,,,,,,,,,,,,,,,,
,,,,,,,,,,,,,,,,,5ffefaa56d69025c21c75e77,30,2022-02-12_13h28.59.969,lexical_decision_task_DD_L6,2021.2.3,MacIntel,60.0024001,,,,,,,,,,,0.5819,1,,,,,,,,,,,,,,z,1,0.5819,,,,,,,,0.706598918,-0.158330282,0,0,0,,0,38,38,135,1,JOODY,C,z,z,./images/JOODY.png,,,,,,,,,,,,,,,,,,,,,,,,,,,,,,,,,,,
,,,,,,,,,,,,,,,,,5ffefaa56d69025c21c75e77,30,2022-02-12_13h28.59.969,lexical_decision_task_DD_L6,2021.2.3,MacIntel,60.0024001,,,,,,,,,,,0.6173,1,,,,,,,,,,,,,,z,1,0.6173,,,,,,,,0.706598918,-0.158330282,0,0,0,,0,39,39,96,1,KEAMS,C,z,z,./images/KEAMS.png,,,,,,,,,,,,,,,,,,,,,,,,,,,,,,,,,,,
,,,,,,,,,,,,,,,,,5ffefaa56d69025c21c75e77,30,2022-02-12_13h28.59.969,lexical_decision_task_DD_L6,2021.2.3,MacIntel,60.0024001,,,,,,,,,,,0.8448,1,,,,,,,,,,,,,,z,1,0.8448,,,,,,,,0.706598918,-0.158330282,0,0,0,,0,40,40,94,1,BLANS,HB,z,z,./images/BLANSHB.png,,,,,,,,,,,,,,,,,,,,,,,,,,,,,,,,,,,
,,,,,,,,,,,,,,,,,5ffefaa56d69025c21c75e77,30,2022-02-12_13h28.59.969,lexical_decision_task_DD_L6,2021.2.3,MacIntel,60.0024001,,,,,,,,,,,0.6504,1,,,,,,,,,,,,,,z,1,0.6504,,,,,,,,0.706598918,-0.158330282,0,0,0,space,0,41,41,131,1,NACES,LB,z,z,./images/NACESLB.png,5.9213,,,,,,,,,,,,,,,,,,,,,,,,,,,,,,,,,,
,,,,,,,,,,,,,,,,,5ffefaa56d69025c21c75e77,30,2022-02-12_13h28.59.969,lexical_decision_task_DD_L6,2021.2.3,MacIntel,60.0024001,,,,,,,,,,,1.175,1,,,,,,,,,,,,,,m,1,1.175,,,,,,,,0.706598918,-0.158330282,0,0,0,,0,42,42,28,1,CASINO,C,m,m,./images/CASINO.png,,,,,,,,,,,,,,,,,,,,,,,,,,,,,,,,,,,
,,,,,,,,,,,,,,,,,5ffefaa56d69025c21c75e77,30,2022-02-12_13h28.59.969,lexical_decision_task_DD_L6,2021.2.3,MacIntel,60.0024001,,,,,,,,,,,0.5609,1,,,,,,,,,,,,,,z,1,0.5609,,,,,,,,0.706598918,-0.158330282,0,0,0,,0,43,43,93,1,SMONE,C,z,z,./images/SMONE.png,,,,,,,,,,,,,,,,,,,,,,,,,,,,,,,,,,,
,,,,,,,,,,,,,,,,,5ffefaa56d69025c21c75e77,30,2022-02-12_13h28.59.969,lexical_decision_task_DD_L6,2021.2.3,MacIntel,60.0024001,,,,,,,,,,,1.0947,1,,,,,,,,,,,,,,z,1,1.0947,,,,,,,,0.706598918,-0.158330282,0,0,0,,0,44,44,121,1,CEERS,HB,z,z,./images/CEERSHB.png,,,,,,,,,,,,,,,,,,,,,,,,,,,,,,,,,,,
,,,,,,,,,,,,,,,,,5ffefaa56d69025c21c75e77,30,2022-02-12_13h28.59.969,lexical_decision_task_DD_L6,2021.2.3,MacIntel,60.0024001,,,,,,,,,,,0.6468,1,,,,,,,,,,,,,,z,1,0.6468,,,,,,,,0.706598918,-0.158330282,0,0,0,,0,45,45,143,1,MONGS,LB,z,z,./images/MONGSLB.png,,,,,,,,,,,,,,,,,,,,,,,,,,,,,,,,,,,
,,,,,,,,,,,,,,,,,5ffefaa56d69025c21c75e77,30,2022-02-12_13h28.59.969,lexical_decision_task_DD_L6,2021.2.3,MacIntel,60.0024001,,,,,,,,,,,1.0795,1,,,,,,,,,,,,,,z,1,1.0795,,,,,,,,0.706598918,-0.158330282,0,0,0,,0,46,46,133,1,POWDY,HB,z,z,./images/POWDYHB.png,,,,,,,,,,,,,,,,,,,,,,,,,,,,,,,,,,,
,,,,,,,,,,,,,,,,,5ffefaa56d69025c21c75e77,30,2022-02-12_13h28.59.969,lexical_decision_task_DD_L6,2021.2.3,MacIntel,60.0024001,,,,,,,,,,,0.8358,1,,,,,,,,,,,,,,m,1,0.8358,,,,,,,,0.706598918,-0.158330282,0,0,0,,0,47,47,3,1,CRATER,LB,m,m,./images/CRATERLB.png,,,,,,,,,,,,,,,,,,,,,,,,,,,,,,,,,,,
,,,,,,,,,,,,,,,,,5ffefaa56d69025c21c75e77,30,2022-02-12_13h28.59.969,lexical_decision_task_DD_L6,2021.2.3,MacIntel,60.0024001,,,,,,,,,,,1.0427,1,,,,,,,,,,,,,,z,1,1.0427,,,,,,,,0.706598918,-0.158330282,0,0,0,,0,48,48,118,1,BAVEL,HB,z,z,./images/BAVELHB.png,,,,,,,,,,,,,,,,,,,,,,,,,,,,,,,,,,,
,,,,,,,,,,,,,,,,,5ffefaa56d69025c21c75e77,30,2022-02-12_13h28.59.969,lexical_decision_task_DD_L6,2021.2.3,MacIntel,60.0024001,,,,,,,,,,,0.8796,1,,,,,,,,,,,,,,z,1,0.8796,,,,,,,,0.706598918,-0.158330282,0,0,0,,0,49,49,139,1,BLEAR,HB,z,z,./images/BLEARHB.png,,,,,,,,,,,,,,,,,,,,,,,,,,,,,,,,,,,
,,,,,,,,,,,,,,,,,5ffefaa56d69025c21c75e77,30,2022-02-12_13h28.59.969,lexical_decision_task_DD_L6,2021.2.3,MacIntel,60.0024001,,,,,,,,,,,0.6085,1,,,,,,,,,,,,,,z,1,0.6085,,,,,,,,0.706598918,-0.158330282,0,0,0,,0,50,50,87,1,TRING,C,z,z,./images/TRING.png,,,,,,,,,,,,,,,,,,,,,,,,,,,,,,,,,,,
,,,,,,,,,,,,,,,,,5ffefaa56d69025c21c75e77,30,2022-02-12_13h28.59.969,lexical_decision_task_DD_L6,2021.2.3,MacIntel,60.0024001,,,,,,,,,,,0.6121,1,,,,,,,,,,,,,,m,1,0.6121,,,,,,,,0.706598918,-0.158330282,0,0,0,,0,51,51,43,1,STOOL,C,m,m,./images/STOOL.png,,,,,,,,,,,,,,,,,,,,,,,,,,,,,,,,,,,
,,,,,,,,,,,,,,,,,5ffefaa56d69025c21c75e77,30,2022-02-12_13h28.59.969,lexical_decision_task_DD_L6,2021.2.3,MacIntel,60.0024001,,,,,,,,,,,0.5295,1,,,,,,,,,,,,,,m,1,0.5295,,,,,,,,0.706598918,-0.158330282,0,0,0,,0,52,52,13,1,BUNNY,C,m,m,./images/BUNNY.png,,,,,,,,,,,,,,,,,,,,,,,,,,,,,,,,,,,
,,,,,,,,,,,,,,,,,5ffefaa56d69025c21c75e77,30,2022-02-12_13h28.59.969,lexical_decision_task_DD_L6,2021.2.3,MacIntel,60.0024001,,,,,,,,,,,0.6692,1,,,,,,,,,,,,,,m,1,0.6692,,,,,,,,0.706598918,-0.158330282,0,0,0,,0,53,53,59,1,BRUSH,HB,m,m,./images/BRUSHHB.png,,,,,,,,,,,,,,,,,,,,,,,,,,,,,,,,,,,
,,,,,,,,,,,,,,,,,5ffefaa56d69025c21c75e77,30,2022-02-12_13h28.59.969,lexical_decision_task_DD_L6,2021.2.3,MacIntel,60.0024001,,,,,,,,,,,0.6431,1,,,,,,,,,,,,,,m,1,0.6431,,,,,,,,0.706598918,-0.158330282,0,0,0,,0,54,54,71,1,BUBBLE,HB,m,m,./images/BUBBLEHB.png,,,,,,,,,,,,,,,,,,,,,,,,,,,,,,,,,,,
,,,,,,,,,,,,,,,,,5ffefaa56d69025c21c75e77,30,2022-02-12_13h28.59.969,lexical_decision_task_DD_L6,2021.2.3,MacIntel,60.0024001,,,,,,,,,,,0.6836,1,,,,,,,,,,,,,,m,1,0.6836,,,,,,,,0.706598918,-0.158330282,0,0,0,,0,55,55,77,1,WHEEL,HB,m,m,./images/WHEELHB.png,,,,,,,,,,,,,,,,,,,,,,,,,,,,,,,,,,,
,,,,,,,,,,,,,,,,,5ffefaa56d69025c21c75e77,30,2022-02-12_13h28.59.969,lexical_decision_task_DD_L6,2021.2.3,MacIntel,60.0024001,,,,,,,,,,,0.8703,1,,,,,,,,,,,,,,z,1,0.8703,,,,,,,,0.706598918,-0.158330282,0,0,0,,0,56,56,154,1,THINT,HB,z,z,./images/THINTHB.png,,,,,,,,,,,,,,,,,,,,,,,,,,,,,,,,,,,
,,,,,,,,,,,,,,,,,5ffefaa56d69025c21c75e77,30,2022-02-12_13h28.59.969,lexical_decision_task_DD_L6,2021.2.3,MacIntel,60.0024001,,,,,,,,,,,0.5179,1,,,,,,,,,,,,,,m,1,0.5179,,,,,,,,0.706598918,-0.158330282,0,0,0,,0,57,57,76,1,MIDGET,C,m,m,./images/MIDGET.png,,,,,,,,,,,,,,,,,,,,,,,,,,,,,,,,,,,
,,,,,,,,,,,,,,,,,5ffefaa56d69025c21c75e77,30,2022-02-12_13h28.59.969,lexical_decision_task_DD_L6,2021.2.3,MacIntel,60.0024001,,,,,,,,,,,0.526,1,,,,,,,,,,,,,,m,1,0.526,,,,,,,,0.706598918,-0.158330282,0,0,0,,0,58,58,63,1,BAKER,LB,m,m,./images/BAKERLB.png,,,,,,,,,,,,,,,,,,,,,,,,,,,,,,,,,,,
,,,,,,,,,,,,,,,,,5ffefaa56d69025c21c75e77,30,2022-02-12_13h28.59.969,lexical_decision_task_DD_L6,2021.2.3,MacIntel,60.0024001,,,,,,,,,,,0.5149,1,,,,,,,,,,,,,,m,1,0.5149,,,,,,,,0.706598918,-0.158330282,0,0,0,,0,59,59,42,1,CHAIN,LB,m,m,./images/CHAINLB.png,,,,,,,,,,,,,,,,,,,,,,,,,,,,,,,,,,,
,,,,,,,,,,,,,,,,,5ffefaa56d69025c21c75e77,30,2022-02-12_13h28.59.969,lexical_decision_task_DD_L6,2021.2.3,MacIntel,60.0024001,,,,,,,,,,,0.5422,1,,,,,,,,,,,,,,z,1,0.5422,,,,,,,,0.706598918,-0.158330282,0,0,0,,0,60,60,150,1,NOOLS,C,z,z,./images/NOOLS.png,,,,,,,,,,,,,,,,,,,,,,,,,,,,,,,,,,,
,,,,,,,,,,,,,,,,,5ffefaa56d69025c21c75e77,30,2022-02-12_13h28.59.969,lexical_decision_task_DD_L6,2021.2.3,MacIntel,60.0024001,,,,,,,,,,,0.5643,1,,,,,,,,,,,,,,m,1,0.5643,,,,,,,,0.706598918,-0.158330282,0,0,0,,0,61,61,67,1,POKER,C,m,m,./images/POKER.png,,,,,,,,,,,,,,,,,,,,,,,,,,,,,,,,,,,
,,,,,,,,,,,,,,,,,5ffefaa56d69025c21c75e77,30,2022-02-12_13h28.59.969,lexical_decision_task_DD_L6,2021.2.3,MacIntel,60.0024001,,,,,,,,,,,0.5765,1,,,,,,,,,,,,,,m,1,0.5765,,,,,,,,0.706598918,-0.158330282,0,0,0,,0,62,62,56,1,HEATER,HB,m,m,./images/HEATERHB.png,,,,,,,,,,,,,,,,,,,,,,,,,,,,,,,,,,,
,,,,,,,,,,,,,,,,,5ffefaa56d69025c21c75e77,30,2022-02-12_13h28.59.969,lexical_decision_task_DD_L6,2021.2.3,MacIntel,60.0024001,,,,,,,,,,,0.6749,1,,,,,,,,,,,,,,m,1,0.6749,,,,,,,,0.706598918,-0.158330282,0,0,0,,0,63,63,49,1,BISHOP,C,m,m,./images/BISHOP.png,,,,,,,,,,,,,,,,,,,,,,,,,,,,,,,,,,,
,,,,,,,,,,,,,,,,,5ffefaa56d69025c21c75e77,30,2022-02-12_13h28.59.969,lexical_decision_task_DD_L6,2021.2.3,MacIntel,60.0024001,,,,,,,,,,,0.5827,1,,,,,,,,,,,,,,z,1,0.5827,,,,,,,,0.706598918,-0.158330282,0,0,0,,0,64,64,123,1,SEDGE,C,z,z,./images/SEDGE.png,,,,,,,,,,,,,,,,,,,,,,,,,,,,,,,,,,,
,,,,,,,,,,,,,,,,,5ffefaa56d69025c21c75e77,30,2022-02-12_13h28.59.969,lexical_decision_task_DD_L6,2021.2.3,MacIntel,60.0024001,,,,,,,,,,,0.5102,1,,,,,,,,,,,,,,m,1,0.5102,,,,,,,,0.706598918,-0.158330282,0,0,0,,0,65,65,58,1,CANOE,C,m,m,./images/CANOE.png,,,,,,,,,,,,,,,,,,,,,,,,,,,,,,,,,,,
,,,,,,,,,,,,,,,,,5ffefaa56d69025c21c75e77,30,2022-02-12_13h28.59.969,lexical_decision_task_DD_L6,2021.2.3,MacIntel,60.0024001,,,,,,,,,,,0.6153,1,,,,,,,,,,,,,,z,1,0.6153,,,,,,,,0.706598918,-0.158330282,0,0,0,,0,66,66,86,1,AIFED,LB,z,z,./images/AIFEDLB.png,,,,,,,,,,,,,,,,,,,,,,,,,,,,,,,,,,,
,,,,,,,,,,,,,,,,,5ffefaa56d69025c21c75e77,30,2022-02-12_13h28.59.969,lexical_decision_task_DD_L6,2021.2.3,MacIntel,60.0024001,,,,,,,,,,,0.775,1,,,,,,,,,,,,,,z,1,0.775,,,,,,,,0.706598918,-0.158330282,0,0,0,,0,67,67,127,1,NINDY,HB,z,z,./images/NINDYHB.png,,,,,,,,,,,,,,,,,,,,,,,,,,,,,,,,,,,
,,,,,,,,,,,,,,,,,5ffefaa56d69025c21c75e77,30,2022-02-12_13h28.59.969,lexical_decision_task_DD_L6,2021.2.3,MacIntel,60.0024001,,,,,,,,,,,0.6477,0,,,,,,,,,,,,,,m,0,0.6477,,,,,,,,0.706598918,-0.158330282,0,0,0,,0,68,68,160,1,VEETS,HB,z,z,./images/VEETSHB.png,,,,,,,,,,,,,,,,,,,,,,,,,,,,,,,,,,,
,,,,,,,,,,,,,,,,,5ffefaa56d69025c21c75e77,30,2022-02-12_13h28.59.969,lexical_decision_task_DD_L6,2021.2.3,MacIntel,60.0024001,,,,,,,,,,,0.6585,1,,,,,,,,,,,,,,z,1,0.6585,,,,,,,,0.706598918,-0.158330282,0,0,0,,0,69,69,125,1,MOOKY,LB,z,z,./images/MOOKYLB.png,,,,,,,,,,,,,,,,,,,,,,,,,,,,,,,,,,,
,,,,,,,,,,,,,,,,,5ffefaa56d69025c21c75e77,30,2022-02-12_13h28.59.969,lexical_decision_task_DD_L6,2021.2.3,MacIntel,60.0024001,,,,,,,,,,,0.6004,1,,,,,,,,,,,,,,m,1,0.6004,,,,,,,,0.706598918,-0.158330282,0,0,0,,0,70,70,33,1,SAUNA,LB,m,m,./images/SAUNALB.png,,,,,,,,,,,,,,,,,,,,,,,,,,,,,,,,,,,
,,,,,,,,,,,,,,,,,5ffefaa56d69025c21c75e77,30,2022-02-12_13h28.59.969,lexical_decision_task_DD_L6,2021.2.3,MacIntel,60.0024001,,,,,,,,,,,0.611,1,,,,,,,,,,,,,,m,1,0.611,,,,,,,,0.706598918,-0.158330282,0,0,0,,0,71,71,2,1,STOVE,HB,m,m,./images/STOVEHB.png,,,,,,,,,,,,,,,,,,,,,,,,,,,,,,,,,,,
,,,,,,,,,,,,,,,,,5ffefaa56d69025c21c75e77,30,2022-02-12_13h28.59.969,lexical_decision_task_DD_L6,2021.2.3,MacIntel,60.0024001,,,,,,,,,,,0.7702,1,,,,,,,,,,,,,,m,1,0.7702,,,,,,,,0.706598918,-0.158330282,0,0,0,,0,72,72,29,1,PISTOL,HB,m,m,./images/PISTOLHB.png,,,,,,,,,,,,,,,,,,,,,,,,,,,,,,,,,,,
,,,,,,,,,,,,,,,,,5ffefaa56d69025c21c75e77,30,2022-02-12_13h28.59.969,lexical_decision_task_DD_L6,2021.2.3,MacIntel,60.0024001,,,,,,,,,,,0.6635,1,,,,,,,,,,,,,,m,1,0.6635,,,,,,,,0.706598918,-0.158330282,0,0,0,,0,73,73,37,1,TIGER,C,m,m,./images/TIGER.png,,,,,,,,,,,,,,,,,,,,,,,,,,,,,,,,,,,
,,,,,,,,,,,,,,,,,5ffefaa56d69025c21c75e77,30,2022-02-12_13h28.59.969,lexical_decision_task_DD_L6,2021.2.3,MacIntel,60.0024001,,,,,,,,,,,1.3499,1,,,,,,,,,,,,,,z,1,1.3499,,,,,,,,0.706598918,-0.158330282,0,0,0,,0,74,74,115,1,MAWNS,HB,z,z,./images/MAWNSHB.png,,,,,,,,,,,,,,,,,,,,,,,,,,,,,,,,,,,
,,,,,,,,,,,,,,,,,5ffefaa56d69025c21c75e77,30,2022-02-12_13h28.59.969,lexical_decision_task_DD_L6,2021.2.3,MacIntel,60.0024001,,,,,,,,,,,0.6273,1,,,,,,,,,,,,,,m,1,0.6273,,,,,,,,0.706598918,-0.158330282,0,0,0,,0,75,75,23,1,CLOTH,HB,m,m,./images/CLOTHHB.png,,,,,,,,,,,,,,,,,,,,,,,,,,,,,,,,,,,
,,,,,,,,,,,,,,,,,5ffefaa56d69025c21c75e77,30,2022-02-12_13h28.59.969,lexical_decision_task_DD_L6,2021.2.3,MacIntel,60.0024001,,,,,,,,,,,0.5257,1,,,,,,,,,,,,,,m,1,0.5257,,,,,,,,0.706598918,-0.158330282,0,0,0,,0,76,76,25,1,CHALK,C,m,m,./images/CHALK.png,,,,,,,,,,,,,,,,,,,,,,,,,,,,,,,,,,,
,,,,,,,,,,,,,,,,,5ffefaa56d69025c21c75e77,30,2022-02-12_13h28.59.969,lexical_decision_task_DD_L6,2021.2.3,MacIntel,60.0024001,,,,,,,,,,,0.515,1,,,,,,,,,,,,,,m,1,0.515,,,,,,,,0.706598918,-0.158330282,0,0,0,,0,77,77,73,1,GLOVE,C,m,m,./images/GLOVE.png,,,,,,,,,,,,,,,,,,,,,,,,,,,,,,,,,,,
,,,,,,,,,,,,,,,,,5ffefaa56d69025c21c75e77,30,2022-02-12_13h28.59.969,lexical_decision_task_DD_L6,2021.2.3,MacIntel,60.0024001,,,,,,,,,,,0.9997,1,,,,,,,,,,,,,,z,1,0.9997,,,,,,,,0.706598918,-0.158330282,0,0,0,,0,78,78,91,1,SHENS,HB,z,z,./images/SHENSHB.png,,,,,,,,,,,,,,,,,,,,,,,,,,,,,,,,,,,
,,,,,,,,,,,,,,,,,5ffefaa56d69025c21c75e77,30,2022-02-12_13h28.59.969,lexical_decision_task_DD_L6,2021.2.3,MacIntel,60.0024001,,,,,,,,,,,0.7443,1,,,,,,,,,,,,,,m,1,0.7443,,,,,,,,0.706598918,-0.158330282,0,0,0,,0,79,79,8,1,CLIFF,HB,m,m,./images/CLIFFHB.png,,,,,,,,,,,,,,,,,,,,,,,,,,,,,,,,,,,
,,,,,,,,,,,,,,,,,5ffefaa56d69025c21c75e77,30,2022-02-12_13h28.59.969,lexical_decision_task_DD_L6,2021.2.3,MacIntel,60.0024001,,,,,,,,,,,0.5961,1,,,,,,,,,,,,,,m,1,0.5961,,,,,,,,0.706598918,-0.158330282,0,0,0,,0,80,80,5,1,BAMBOO,HB,m,m,./images/BAMBOOHB.png,,,,,,,,,,,,,,,,,,,,,,,,,,,,,,,,,,,
,,,,,,,,,,,,,,,,,5ffefaa56d69025c21c75e77,30,2022-02-12_13h28.59.969,lexical_decision_task_DD_L6,2021.2.3,MacIntel,60.0024001,,,,,,,,,,,0.5597,1,,,,,,,,,,,,,,m,1,0.5597,,,,,,,,0.706598918,-0.158330282,0,0,0,,0,81,81,31,1,STEAK,C,m,m,./images/STEAK.png,,,,,,,,,,,,,,,,,,,,,,,,,,,,,,,,,,,
,,,,,,,,,,,,,,,,,5ffefaa56d69025c21c75e77,30,2022-02-12_13h28.59.969,lexical_decision_task_DD_L6,2021.2.3,MacIntel,60.0024001,,,,,,,,,,,0.8228,1,,,,,,,,,,,,,,z,1,0.8228,,,,,,,,0.706598918,-0.158330282,0,0,0,,0,82,82,166,1,SHORY,HB,z,z,./images/SHORYHB.png,,,,,,,,,,,,,,,,,,,,,,,,,,,,,,,,,,,
,,,,,,,,,,,,,,,,,5ffefaa56d69025c21c75e77,30,2022-02-12_13h28.59.969,lexical_decision_task_DD_L6,2021.2.3,MacIntel,60.0024001,,,,,,,,,,,0.7237,1,,,,,,,,,,,,,,z,1,0.7237,,,,,,,,0.706598918,-0.158330282,0,0,0,space,0,83,83,103,1,FLORT,HB,z,z,./images/FLORTHB.png,1.1319,,,,,,,,,,,,,,,,,,,,,,,,,,,,,,,,,,
,,,,,,,,,,,,,,,,,5ffefaa56d69025c21c75e77,30,2022-02-12_13h28.59.969,lexical_decision_task_DD_L6,2021.2.3,MacIntel,60.0024001,,,,,,,,,,,0.5867,1,,,,,,,,,,,,,,z,1,0.5867,,,,,,,,0.706598918,-0.158330282,0,0,0,,0,84,84,126,1,GUELS,C,z,z,./images/GUELS.png,,,,,,,,,,,,,,,,,,,,,,,,,,,,,,,,,,,
,,,,,,,,,,,,,,,,,5ffefaa56d69025c21c75e77,30,2022-02-12_13h28.59.969,lexical_decision_task_DD_L6,2021.2.3,MacIntel,60.0024001,,,,,,,,,,,0.5722,1,,,,,,,,,,,,,,z,1,0.5722,,,,,,,,0.706598918,-0.158330282,0,0,0,,0,85,85,108,1,GRUET,C,z,z,./images/GRUET.png,,,,,,,,,,,,,,,,,,,,,,,,,,,,,,,,,,,
,,,,,,,,,,,,,,,,,5ffefaa56d69025c21c75e77,30,2022-02-12_13h28.59.969,lexical_decision_task_DD_L6,2021.2.3,MacIntel,60.0024001,,,,,,,,,,,0.6141,1,,,,,,,,,,,,,,m,1,0.6141,,,,,,,,0.706598918,-0.158330282,0,0,0,,0,86,86,18,1,PARCEL,LB,m,m,./images/PARCELLB.png,,,,,,,,,,,,,,,,,,,,,,,,,,,,,,,,,,,
,,,,,,,,,,,,,,,,,5ffefaa56d69025c21c75e77,30,2022-02-12_13h28.59.969,lexical_decision_task_DD_L6,2021.2.3,MacIntel,60.0024001,,,,,,,,,,,0.6008,1,,,,,,,,,,,,,,z,1,0.6008,,,,,,,,0.706598918,-0.158330282,0,0,0,,0,87,87,152,1,FRAIN,LB,z,z,./images/FRAINLB.png,,,,,,,,,,,,,,,,,,,,,,,,,,,,,,,,,,,
,,,,,,,,,,,,,,,,,5ffefaa56d69025c21c75e77,30,2022-02-12_13h28.59.969,lexical_decision_task_DD_L6,2021.2.3,MacIntel,60.0024001,,,,,,,,,,,0.5781,1,,,,,,,,,,,,,,m,1,0.5781,,,,,,,,0.706598918,-0.158330282,0,0,0,,0,88,88,26,1,CLOUD,HB,m,m,./images/CLOUDHB.png,,,,,,,,,,,,,,,,,,,,,,,,,,,,,,,,,,,
,,,,,,,,,,,,,,,,,5ffefaa56d69025c21c75e77,30,2022-02-12_13h28.59.969,lexical_decision_task_DD_L6,2021.2.3,MacIntel,60.0024001,,,,,,,,,,,0.5033,1,,,,,,,,,,,,,,m,1,0.5033,,,,,,,,0.706598918,-0.158330282,0,0,0,,0,89,89,39,1,CANDY,LB,m,m,./images/CANDYLB.png,,,,,,,,,,,,,,,,,,,,,,,,,,,,,,,,,,,
,,,,,,,,,,,,,,,,,5ffefaa56d69025c21c75e77,30,2022-02-12_13h28.59.969,lexical_decision_task_DD_L6,2021.2.3,MacIntel,60.0024001,,,,,,,,,,,0.5377,1,,,,,,,,,,,,,,z,1,0.5377,,,,,,,,0.706598918,-0.158330282,0,0,0,,0,90,90,156,1,HIXES,C,z,z,./images/HIXES.png,,,,,,,,,,,,,,,,,,,,,,,,,,,,,,,,,,,
,,,,,,,,,,,,,,,,,5ffefaa56d69025c21c75e77,30,2022-02-12_13h28.59.969,lexical_decision_task_DD_L6,2021.2.3,MacIntel,60.0024001,,,,,,,,,,,0.7277,1,,,,,,,,,,,,,,z,1,0.7277,,,,,,,,0.706598918,-0.158330282,0,0,0,,0,91,91,104,1,GITTY,LB,z,z,./images/GITTYLB.png,,,,,,,,,,,,,,,,,,,,,,,,,,,,,,,,,,,
,,,,,,,,,,,,,,,,,5ffefaa56d69025c21c75e77,30,2022-02-12_13h28.59.969,lexical_decision_task_DD_L6,2021.2.3,MacIntel,60.0024001,,,,,,,,,,,0.6363,1,,,,,,,,,,,,,,z,1,0.6363,,,,,,,,0.706598918,-0.158330282,0,0,0,,0,92,92,149,1,VEASE,LB,z,z,./images/VEASELB.png,,,,,,,,,,,,,,,,,,,,,,,,,,,,,,,,,,,
,,,,,,,,,,,,,,,,,5ffefaa56d69025c21c75e77,30,2022-02-12_13h28.59.969,lexical_decision_task_DD_L6,2021.2.3,MacIntel,60.0024001,,,,,,,,,,,0.5427,1,,,,,,,,,,,,,,z,1,0.5427,,,,,,,,0.706598918,-0.158330282,0,0,0,,0,93,93,89,1,DRIEK,LB,z,z,./images/DRIEKLB.png,,,,,,,,,,,,,,,,,,,,,,,,,,,,,,,,,,,
,,,,,,,,,,,,,,,,,5ffefaa56d69025c21c75e77,30,2022-02-12_13h28.59.969,lexical_decision_task_DD_L6,2021.2.3,MacIntel,60.0024001,,,,,,,,,,,0.5793,1,,,,,,,,,,,,,,m,1,0.5793,,,,,,,,0.706598918,-0.158330282,0,0,0,,0,94,94,10,1,GARDEN,C,m,m,./images/GARDEN.png,,,,,,,,,,,,,,,,,,,,,,,,,,,,,,,,,,,
,,,,,,,,,,,,,,,,,5ffefaa56d69025c21c75e77,30,2022-02-12_13h28.59.969,lexical_decision_task_DD_L6,2021.2.3,MacIntel,60.0024001,,,,,,,,,,,0.6018,1,,,,,,,,,,,,,,m,1,0.6018,,,,,,,,0.706598918,-0.158330282,0,0,0,,0,95,95,6,1,STAIN,LB,m,m,./images/STAINLB.png,,,,,,,,,,,,,,,,,,,,,,,,,,,,,,,,,,,
,,,,,,,,,,,,,,,,,5ffefaa56d69025c21c75e77,30,2022-02-12_13h28.59.969,lexical_decision_task_DD_L6,2021.2.3,MacIntel,60.0024001,,,,,,,,,,,0.6844,1,,,,,,,,,,,,,,z,1,0.6844,,,,,,,,0.706598918,-0.158330282,0,0,0,,0,96,96,92,1,PAIMS,LB,z,z,./images/PAIMSLB.png,,,,,,,,,,,,,,,,,,,,,,,,,,,,,,,,,,,
,,,,,,,,,,,,,,,,,5ffefaa56d69025c21c75e77,30,2022-02-12_13h28.59.969,lexical_decision_task_DD_L6,2021.2.3,MacIntel,60.0024001,,,,,,,,,,,0.5419,1,,,,,,,,,,,,,,m,1,0.5419,,,,,,,,0.706598918,-0.158330282,0,0,0,,0,97,97,40,1,SNAKE,C,m,m,./images/SNAKE.png,,,,,,,,,,,,,,,,,,,,,,,,,,,,,,,,,,,
,,,,,,,,,,,,,,,,,5ffefaa56d69025c21c75e77,30,2022-02-12_13h28.59.969,lexical_decision_task_DD_L6,2021.2.3,MacIntel,60.0024001,,,,,,,,,,,0.7977,1,,,,,,,,,,,,,,m,1,0.7977,,,,,,,,0.706598918,-0.158330282,0,0,0,,0,98,98,32,1,HOCKEY,HB,m,m,./images/HOCKEYHB.png,,,,,,,,,,,,,,,,,,,,,,,,,,,,,,,,,,,
,,,,,,,,,,,,,,,,,5ffefaa56d69025c21c75e77,30,2022-02-12_13h28.59.969,lexical_decision_task_DD_L6,2021.2.3,MacIntel,60.0024001,,,,,,,,,,,0.7094,1,,,,,,,,,,,,,,m,1,0.7094,,,,,,,,0.706598918,-0.158330282,0,0,0,,0,99,99,57,1,FERRY,LB,m,m,./images/FERRYLB.png,,,,,,,,,,,,,,,,,,,,,,,,,,,,,,,,,,,
,,,,,,,,,,,,,,,,,5ffefaa56d69025c21c75e77,30,2022-02-12_13h28.59.969,lexical_decision_task_DD_L6,2021.2.3,MacIntel,60.0024001,,,,,,,,,,,0.646,1,,,,,,,,,,,,,,z,1,0.646,,,,,,,,0.706598918,-0.158330282,0,0,0,,0,100,100,114,1,RIKES,C,z,z,./images/RIKES.png,,,,,,,,,,,,,,,,,,,,,,,,,,,,,,,,,,,
,,,,,,,,,,,,,,,,,5ffefaa56d69025c21c75e77,30,2022-02-12_13h28.59.969,lexical_decision_task_DD_L6,2021.2.3,MacIntel,60.0024001,,,,,,,,,,,0.6479,1,,,,,,,,,,,,,,z,1,0.6479,,,,,,,,0.706598918,-0.158330282,0,0,0,,0,101,101,120,1,RINED,C,z,z,./images/RINED.png,,,,,,,,,,,,,,,,,,,,,,,,,,,,,,,,,,,
,,,,,,,,,,,,,,,,,5ffefaa56d69025c21c75e77,30,2022-02-12_13h28.59.969,lexical_decision_task_DD_L6,2021.2.3,MacIntel,60.0024001,,,,,,,,,,,0.6632,1,,,,,,,,,,,,,,z,1,0.6632,,,,,,,,0.706598918,-0.158330282,0,0,0,,0,102,102,112,1,MYING,HB,z,z,./images/MYINGHB.png,,,,,,,,,,,,,,,,,,,,,,,,,,,,,,,,,,,
,,,,,,,,,,,,,,,,,5ffefaa56d69025c21c75e77,30,2022-02-12_13h28.59.969,lexical_decision_task_DD_L6,2021.2.3,MacIntel,60.0024001,,,,,,,,,,,0.8618,1,,,,,,,,,,,,,,z,1,0.8618,,,,,,,,0.706598918,-0.158330282,0,0,0,,0,103,103,85,1,CHULK,HB,z,z,./images/CHULKHB.png,,,,,,,,,,,,,,,,,,,,,,,,,,,,,,,,,,,
,,,,,,,,,,,,,,,,,5ffefaa56d69025c21c75e77,30,2022-02-12_13h28.59.969,lexical_decision_task_DD_L6,2021.2.3,MacIntel,60.0024001,,,,,,,,,,,0.6742,1,,,,,,,,,,,,,,z,1,0.6742,,,,,,,,0.706598918,-0.158330282,0,0,0,,0,104,104,129,1,PRANS,C,z,z,./images/PRANS.png,,,,,,,,,,,,,,,,,,,,,,,,,,,,,,,,,,,
,,,,,,,,,,,,,,,,,5ffefaa56d69025c21c75e77,30,2022-02-12_13h28.59.969,lexical_decision_task_DD_L6,2021.2.3,MacIntel,60.0024001,,,,,,,,,,,0.5451,1,,,,,,,,,,,,,,m,1,0.5451,,,,,,,,0.706598918,-0.158330282,0,0,0,,0,105,105,30,1,SLOPE,LB,m,m,./images/SLOPELB.png,,,,,,,,,,,,,,,,,,,,,,,,,,,,,,,,,,,
,,,,,,,,,,,,,,,,,5ffefaa56d69025c21c75e77,30,2022-02-12_13h28.59.969,lexical_decision_task_DD_L6,2021.2.3,MacIntel,60.0024001,,,,,,,,,,,0.6491,0,,,,,,,,,,,,,,m,0,0.6491,,,,,,,,0.706598918,-0.158330282,0,0,0,,0,106,106,140,1,DOVET,LB,z,z,./images/DOVETLB.png,,,,,,,,,,,,,,,,,,,,,,,,,,,,,,,,,,,
,,,,,,,,,,,,,,,,,5ffefaa56d69025c21c75e77,30,2022-02-12_13h28.59.969,lexical_decision_task_DD_L6,2021.2.3,MacIntel,60.0024001,,,,,,,,,,,0.6448,1,,,,,,,,,,,,,,z,1,0.6448,,,,,,,,0.706598918,-0.158330282,0,0,0,,0,107,107,134,1,TROSS,LB,z,z,./images/TROSSLB.png,,,,,,,,,,,,,,,,,,,,,,,,,,,,,,,,,,,
,,,,,,,,,,,,,,,,,5ffefaa56d69025c21c75e77,30,2022-02-12_13h28.59.969,lexical_decision_task_DD_L6,2021.2.3,MacIntel,60.0024001,,,,,,,,,,,0.5263,1,,,,,,,,,,,,,,z,1,0.5263,,,,,,,,0.706598918,-0.158330282,0,0,0,,0,108,108,117,1,STEEG,C,z,z,./images/STEEG.png,,,,,,,,,,,,,,,,,,,,,,,,,,,,,,,,,,,
,,,,,,,,,,,,,,,,,5ffefaa56d69025c21c75e77,30,2022-02-12_13h28.59.969,lexical_decision_task_DD_L6,2021.2.3,MacIntel,60.0024001,,,,,,,,,,,0.4728,1,,,,,,,,,,,,,,z,1,0.4728,,,,,,,,0.706598918,-0.158330282,0,0,0,,0,109,109,138,1,PLICE,C,z,z,./images/PLICE.png,,,,,,,,,,,,,,,,,,,,,,,,,,,,,,,,,,,
,,,,,,,,,,,,,,,,,5ffefaa56d69025c21c75e77,30,2022-02-12_13h28.59.969,lexical_decision_task_DD_L6,2021.2.3,MacIntel,60.0024001,,,,,,,,,,,0.7823,1,,,,,,,,,,,,,,m,1,0.7823,,,,,,,,0.706598918,-0.158330282,0,0,0,,0,110,110,69,1,ARROW,LB,m,m,./images/ARROWLB.png,,,,,,,,,,,,,,,,,,,,,,,,,,,,,,,,,,,
,,,,,,,,,,,,,,,,,5ffefaa56d69025c21c75e77,30,2022-02-12_13h28.59.969,lexical_decision_task_DD_L6,2021.2.3,MacIntel,60.0024001,,,,,,,,,,,0.5327,1,,,,,,,,,,,,,,m,1,0.5327,,,,,,,,0.706598918,-0.158330282,0,0,0,,0,111,111,22,1,CLOWN,C,m,m,./images/CLOWN.png,,,,,,,,,,,,,,,,,,,,,,,,,,,,,,,,,,,
,,,,,,,,,,,,,,,,,5ffefaa56d69025c21c75e77,30,2022-02-12_13h28.59.969,lexical_decision_task_DD_L6,2021.2.3,MacIntel,60.0024001,,,,,,,,,,,0.6552,1,,,,,,,,,,,,,,z,1,0.6552,,,,,,,,0.706598918,-0.158330282,0,0,0,,0,112,112,136,1,WERVE,HB,z,z,./images/WERVEHB.png,,,,,,,,,,,,,,,,,,,,,,,,,,,,,,,,,,,
,,,,,,,,,,,,,,,,,5ffefaa56d69025c21c75e77,30,2022-02-12_13h28.59.969,lexical_decision_task_DD_L6,2021.2.3,MacIntel,60.0024001,,,,,,,,,,,0.6111,1,,,,,,,,,,,,,,m,1,0.6111,,,,,,,,0.706598918,-0.158330282,0,0,0,,0,113,113,65,1,SPINE,HB,m,m,./images/SPINEHB.png,,,,,,,,,,,,,,,,,,,,,,,,,,,,,,,,,,,
,,,,,,,,,,,,,,,,,5ffefaa56d69025c21c75e77,30,2022-02-12_13h28.59.969,lexical_decision_task_DD_L6,2021.2.3,MacIntel,60.0024001,,,,,,,,,,,0.5747,1,,,,,,,,,,,,,,m,1,0.5747,,,,,,,,0.706598918,-0.158330282,0,0,0,,0,114,114,79,1,RULER,C,m,m,./images/RULER.png,,,,,,,,,,,,,,,,,,,,,,,,,,,,,,,,,,,
,,,,,,,,,,,,,,,,,5ffefaa56d69025c21c75e77,30,2022-02-12_13h28.59.969,lexical_decision_task_DD_L6,2021.2.3,MacIntel,60.0024001,,,,,,,,,,,0.5749,1,,,,,,,,,,,,,,z,1,0.5749,,,,,,,,0.706598918,-0.158330282,0,0,0,,0,115,115,113,1,LINEW,LB,z,z,./images/LINEWLB.png,,,,,,,,,,,,,,,,,,,,,,,,,,,,,,,,,,,
,,,,,,,,,,,,,,,,,5ffefaa56d69025c21c75e77,30,2022-02-12_13h28.59.969,lexical_decision_task_DD_L6,2021.2.3,MacIntel,60.0024001,,,,,,,,,,,0.5966,0,,,,,,,,,,,,,,z,0,0.5966,,,,,,,,0.706598918,-0.158330282,0,0,0,,0,116,116,47,1,LAGOON,HB,m,m,./images/LAGOONHB.png,,,,,,,,,,,,,,,,,,,,,,,,,,,,,,,,,,,
,,,,,,,,,,,,,,,,,5ffefaa56d69025c21c75e77,30,2022-02-12_13h28.59.969,lexical_decision_task_DD_L6,2021.2.3,MacIntel,60.0024001,,,,,,,,,,,0.8341,1,,,,,,,,,,,,,,m,1,0.8341,,,,,,,,0.706598918,-0.158330282,0,0,0,,0,117,117,38,1,ENGINE,HB,m,m,./images/ENGINEHB.png,,,,,,,,,,,,,,,,,,,,,,,,,,,,,,,,,,,
,,,,,,,,,,,,,,,,,5ffefaa56d69025c21c75e77,30,2022-02-12_13h28.59.969,lexical_decision_task_DD_L6,2021.2.3,MacIntel,60.0024001,,,,,,,,,,,0.8109,1,,,,,,,,,,,,,,z,1,0.8109,,,,,,,,0.706598918,-0.158330282,0,0,0,,0,118,118,163,1,GAMBA,HB,z,z,./images/GAMBAHB.png,,,,,,,,,,,,,,,,,,,,,,,,,,,,,,,,,,,
,,,,,,,,,,,,,,,,,5ffefaa56d69025c21c75e77,30,2022-02-12_13h28.59.969,lexical_decision_task_DD_L6,2021.2.3,MacIntel,60.0024001,,,,,,,,,,,0.5236,1,,,,,,,,,,,,,,m,1,0.5236,,,,,,,,0.706598918,-0.158330282,0,0,0,,0,119,119,46,1,MUMMY,C,m,m,./images/MUMMY.png,,,,,,,,,,,,,,,,,,,,,,,,,,,,,,,,,,,
,,,,,,,,,,,,,,,,,5ffefaa56d69025c21c75e77,30,2022-02-12_13h28.59.969,lexical_decision_task_DD_L6,2021.2.3,MacIntel,60.0024001,,,,,,,,,,,0.5417,1,,,,,,,,,,,,,,m,1,0.5417,,,,,,,,0.706598918,-0.158330282,0,0,0,,0,120,120,0,1,WALNUT,LB,m,m,./images/WALNUTLB.png,,,,,,,,,,,,,,,,,,,,,,,,,,,,,,,,,,,
,,,,,,,,,,,,,,,,,5ffefaa56d69025c21c75e77,30,2022-02-12_13h28.59.969,lexical_decision_task_DD_L6,2021.2.3,MacIntel,60.0024001,,,,,,,,,,,0.5447,1,,,,,,,,,,,,,,m,1,0.5447,,,,,,,,0.706598918,-0.158330282,0,0,0,,0,121,121,55,1,ALLEY,C,m,m,./images/ALLEY.png,,,,,,,,,,,,,,,,,,,,,,,,,,,,,,,,,,,
,,,,,,,,,,,,,,,,,5ffefaa56d69025c21c75e77,30,2022-02-12_13h28.59.969,lexical_decision_task_DD_L6,2021.2.3,MacIntel,60.0024001,,,,,,,,,,,0.5655,1,,,,,,,,,,,,,,z,1,0.5655,,,,,,,,0.706598918,-0.158330282,0,0,0,,0,122,122,153,1,CLUPS,C,z,z,./images/CLUPS.png,,,,,,,,,,,,,,,,,,,,,,,,,,,,,,,,,,,
,,,,,,,,,,,,,,,,,5ffefaa56d69025c21c75e77,30,2022-02-12_13h28.59.969,lexical_decision_task_DD_L6,2021.2.3,MacIntel,60.0024001,,,,,,,,,,,0.6057,1,,,,,,,,,,,,,,z,1,0.6057,,,,,,,,0.706598918,-0.158330282,0,0,0,,0,123,123,165,1,TROWN,C,z,z,./images/TROWN.png,,,,,,,,,,,,,,,,,,,,,,,,,,,,,,,,,,,
,,,,,,,,,,,,,,,,,5ffefaa56d69025c21c75e77,30,2022-02-12_13h28.59.969,lexical_decision_task_DD_L6,2021.2.3,MacIntel,60.0024001,,,,,,,,,,,0.5289,1,,,,,,,,,,,,,,m,1,0.5289,,,,,,,,0.706598918,-0.158330282,0,0,0,,0,124,124,7,1,WAGON,C,m,m,./images/WAGON.png,,,,,,,,,,,,,,,,,,,,,,,,,,,,,,,,,,,
,,,,,,,,,,,,,,,,,5ffefaa56d69025c21c75e77,30,2022-02-12_13h28.59.969,lexical_decision_task_DD_L6,2021.2.3,MacIntel,60.0024001,,,,,,,,,,,0.9249,1,,,,,,,,,,,,,,z,1,0.9249,,,,,,,,0.706598918,-0.158330282,0,0,0,space,0,125,125,159,1,CUDDY,C,z,z,./images/CUDDY.png,1.1525,,,,,,,,,,,,,,,,,,,,,,,,,,,,,,,,,,
,,,,,,,,,,,,,,,,,5ffefaa56d69025c21c75e77,30,2022-02-12_13h28.59.969,lexical_decision_task_DD_L6,2021.2.3,MacIntel,60.0024001,,,,,,,,,,,1.3195,1,,,,,,,,,,,,,,z,1,1.3195,,,,,,,,0.706598918,-0.158330282,0,0,0,,0,126,126,109,1,BURGE,HB,z,z,./images/BURGEHB.png,,,,,,,,,,,,,,,,,,,,,,,,,,,,,,,,,,,
,,,,,,,,,,,,,,,,,5ffefaa56d69025c21c75e77,30,2022-02-12_13h28.59.969,lexical_decision_task_DD_L6,2021.2.3,MacIntel,60.0024001,,,,,,,,,,,0.5423,1,,,,,,,,,,,,,,m,1,0.5423,,,,,,,,0.706598918,-0.158330282,0,0,0,,0,127,127,64,1,BRIDE,C,m,m,./images/BRIDE.png,,,,,,,,,,,,,,,,,,,,,,,,,,,,,,,,,,,
,,,,,,,,,,,,,,,,,5ffefaa56d69025c21c75e77,30,2022-02-12_13h28.59.969,lexical_decision_task_DD_L6,2021.2.3,MacIntel,60.0024001,,,,,,,,,,,0.6285,1,,,,,,,,,,,,,,z,1,0.6285,,,,,,,,0.706598918,-0.158330282,0,0,0,,0,128,128,164,1,SGREW,LB,z,z,./images/SGREWLB.png,,,,,,,,,,,,,,,,,,,,,,,,,,,,,,,,,,,
,,,,,,,,,,,,,,,,,5ffefaa56d69025c21c75e77,30,2022-02-12_13h28.59.969,lexical_decision_task_DD_L6,2021.2.3,MacIntel,60.0024001,,,,,,,,,,,0.7107,1,,,,,,,,,,,,,,z,1,0.7107,,,,,,,,0.706598918,-0.158330282,0,0,0,,0,129,129,119,1,PAFER,LB,z,z,./images/PAFERLB.png,,,,,,,,,,,,,,,,,,,,,,,,,,,,,,,,,,,
,,,,,,,,,,,,,,,,,5ffefaa56d69025c21c75e77,30,2022-02-12_13h28.59.969,lexical_decision_task_DD_L6,2021.2.3,MacIntel,60.0024001,,,,,,,,,,,0.7292,1,,,,,,,,,,,,,,z,1,0.7292,,,,,,,,0.706598918,-0.158330282,0,0,0,,0,130,130,106,1,CLUMS,HB,z,z,./images/CLUMSHB.png,,,,,,,,,,,,,,,,,,,,,,,,,,,,,,,,,,,
,,,,,,,,,,,,,,,,,5ffefaa56d69025c21c75e77,30,2022-02-12_13h28.59.969,lexical_decision_task_DD_L6,2021.2.3,MacIntel,60.0024001,,,,,,,,,,,1.2795,1,,,,,,,,,,,,,,m,1,1.2795,,,,,,,,0.706598918,-0.158330282,0,0,0,,0,131,131,68,1,VALLEY,HB,m,m,./images/VALLEYHB.png,,,,,,,,,,,,,,,,,,,,,,,,,,,,,,,,,,,
,,,,,,,,,,,,,,,,,5ffefaa56d69025c21c75e77,30,2022-02-12_13h28.59.969,lexical_decision_task_DD_L6,2021.2.3,MacIntel,60.0024001,,,,,,,,,,,0.6223,1,,,,,,,,,,,,,,m,1,0.6223,,,,,,,,0.706598918,-0.158330282,0,0,0,,0,132,132,78,1,BROOM,LB,m,m,./images/BROOMLB.png,,,,,,,,,,,,,,,,,,,,,,,,,,,,,,,,,,,
,,,,,,,,,,,,,,,,,5ffefaa56d69025c21c75e77,30,2022-02-12_13h28.59.969,lexical_decision_task_DD_L6,2021.2.3,MacIntel,60.0024001,,,,,,,,,,,0.4914,1,,,,,,,,,,,,,,z,1,0.4914,,,,,,,,0.706598918,-0.158330282,0,0,0,,0,133,133,147,1,ZOLES,C,z,z,./images/ZOLES.png,,,,,,,,,,,,,,,,,,,,,,,,,,,,,,,,,,,
,,,,,,,,,,,,,,,,,5ffefaa56d69025c21c75e77,30,2022-02-12_13h28.59.969,lexical_decision_task_DD_L6,2021.2.3,MacIntel,60.0024001,,,,,,,,,,,0.5641,1,,,,,,,,,,,,,,m,1,0.5641,,,,,,,,0.706598918,-0.158330282,0,0,0,,0,134,134,48,1,SHIELD,LB,m,m,./images/SHIELDLB.png,,,,,,,,,,,,,,,,,,,,,,,,,,,,,,,,,,,
,,,,,,,,,,,,,,,,,5ffefaa56d69025c21c75e77,30,2022-02-12_13h28.59.969,lexical_decision_task_DD_L6,2021.2.3,MacIntel,60.0024001,,,,,,,,,,,0.6346,1,,,,,,,,,,,,,,m,1,0.6346,,,,,,,,0.706598918,-0.158330282,0,0,0,,0,135,135,17,1,PARADE,HB,m,m,./images/PARADEHB.png,,,,,,,,,,,,,,,,,,,,,,,,,,,,,,,,,,,
,,,,,,,,,,,,,,,,,5ffefaa56d69025c21c75e77,30,2022-02-12_13h28.59.969,lexical_decision_task_DD_L6,2021.2.3,MacIntel,60.0024001,,,,,,,,,,,0.6292,1,,,,,,,,,,,,,,z,1,0.6292,,,,,,,,0.706598918,-0.158330282,0,0,0,,0,136,136,100,1,DRIBS,HB,z,z,./images/DRIBSHB.png,,,,,,,,,,,,,,,,,,,,,,,,,,,,,,,,,,,
,,,,,,,,,,,,,,,,,5ffefaa56d69025c21c75e77,30,2022-02-12_13h28.59.969,lexical_decision_task_DD_L6,2021.2.3,MacIntel,60.0024001,,,,,,,,,,,0.5602,1,,,,,,,,,,,,,,z,1,0.5602,,,,,,,,0.706598918,-0.158330282,0,0,0,,0,137,137,144,1,NAIRY,C,z,z,./images/NAIRY.png,,,,,,,,,,,,,,,,,,,,,,,,,,,,,,,,,,,
,,,,,,,,,,,,,,,,,5ffefaa56d69025c21c75e77,30,2022-02-12_13h28.59.969,lexical_decision_task_DD_L6,2021.2.3,MacIntel,60.0024001,,,,,,,,,,,0.7006,1,,,,,,,,,,,,,,m,1,0.7006,,,,,,,,0.706598918,-0.158330282,0,0,0,,0,138,138,51,1,SAUCE,LB,m,m,./images/SAUCELB.png,,,,,,,,,,,,,,,,,,,,,,,,,,,,,,,,,,,
,,,,,,,,,,,,,,,,,5ffefaa56d69025c21c75e77,30,2022-02-12_13h28.59.969,lexical_decision_task_DD_L6,2021.2.3,MacIntel,60.0024001,,,,,,,,,,,0.6471,1,,,,,,,,,,,,,,z,1,0.6471,,,,,,,,0.706598918,-0.158330282,0,0,0,,0,139,139,124,1,TUNCH,HB,z,z,./images/TUNCHHB.png,,,,,,,,,,,,,,,,,,,,,,,,,,,,,,,,,,,
,,,,,,,,,,,,,,,,,5ffefaa56d69025c21c75e77,30,2022-02-12_13h28.59.969,lexical_decision_task_DD_L6,2021.2.3,MacIntel,60.0024001,,,,,,,,,,,0.7148,1,,,,,,,,,,,,,,m,1,0.7148,,,,,,,,0.706598918,-0.158330282,0,0,0,,0,140,140,35,1,LLAMA,HB,m,m,./images/LLAMAHB.png,,,,,,,,,,,,,,,,,,,,,,,,,,,,,,,,,,,
,,,,,,,,,,,,,,,,,5ffefaa56d69025c21c75e77,30,2022-02-12_13h28.59.969,lexical_decision_task_DD_L6,2021.2.3,MacIntel,60.0024001,,,,,,,,,,,0.6294,1,,,,,,,,,,,,,,m,1,0.6294,,,,,,,,0.706598918,-0.158330282,0,0,0,,0,141,141,21,1,DANCER,LB,m,m,./images/DANCERLB.png,,,,,,,,,,,,,,,,,,,,,,,,,,,,,,,,,,,
,,,,,,,,,,,,,,,,,5ffefaa56d69025c21c75e77,30,2022-02-12_13h28.59.969,lexical_decision_task_DD_L6,2021.2.3,MacIntel,60.0024001,,,,,,,,,,,0.7458,1,,,,,,,,,,,,,,m,1,0.7458,,,,,,,,0.706598918,-0.158330282,0,0,0,,0,142,142,41,1,STREAM,HB,m,m,./images/STREAMHB.png,,,,,,,,,,,,,,,,,,,,,,,,,,,,,,,,,,,
,,,,,,,,,,,,,,,,,5ffefaa56d69025c21c75e77,30,2022-02-12_13h28.59.969,lexical_decision_task_DD_L6,2021.2.3,MacIntel,60.0024001,,,,,,,,,,,0.5917,1,,,,,,,,,,,,,,z,1,0.5917,,,,,,,,0.706598918,-0.158330282,0,0,0,,0,143,143,105,1,MOKER,C,z,z,./images/MOKER.png,,,,,,,,,,,,,,,,,,,,,,,,,,,,,,,,,,,
,,,,,,,,,,,,,,,,,5ffefaa56d69025c21c75e77,30,2022-02-12_13h28.59.969,lexical_decision_task_DD_L6,2021.2.3,MacIntel,60.0024001,,,,,,,,,,,0.8521,1,,,,,,,,,,,,,,z,1,0.8521,,,,,,,,0.706598918,-0.158330282,0,0,0,,0,144,144,148,1,JOMS,HB,z,z,./images/JOMSHB.png,,,,,,,,,,,,,,,,,,,,,,,,,,,,,,,,,,,
,,,,,,,,,,,,,,,,,5ffefaa56d69025c21c75e77,30,2022-02-12_13h28.59.969,lexical_decision_task_DD_L6,2021.2.3,MacIntel,60.0024001,,,,,,,,,,,0.563,1,,,,,,,,,,,,,,m,1,0.563,,,,,,,,0.706598918,-0.158330282,0,0,0,,0,145,145,60,1,CURRY,LB,m,m,./images/CURRYLB.png,,,,,,,,,,,,,,,,,,,,,,,,,,,,,,,,,,,
,,,,,,,,,,,,,,,,,5ffefaa56d69025c21c75e77,30,2022-02-12_13h28.59.969,lexical_decision_task_DD_L6,2021.2.3,MacIntel,60.0024001,,,,,,,,,,,0.7798,1,,,,,,,,,,,,,,m,1,0.7798,,,,,,,,0.706598918,-0.158330282,0,0,0,,0,146,146,83,1,WHISKY,HB,m,m,./images/WHISKYHB.png,,,,,,,,,,,,,,,,,,,,,,,,,,,,,,,,,,,
,,,,,,,,,,,,,,,,,5ffefaa56d69025c21c75e77,30,2022-02-12_13h28.59.969,lexical_decision_task_DD_L6,2021.2.3,MacIntel,60.0024001,,,,,,,,,,,0.5764,1,,,,,,,,,,,,,,m,1,0.5764,,,,,,,,0.706598918,-0.158330282,0,0,0,,0,147,147,75,1,HAMMER,LB,m,m,./images/HAMMERLB.png,,,,,,,,,,,,,,,,,,,,,,,,,,,,,,,,,,,
,,,,,,,,,,,,,,,,,5ffefaa56d69025c21c75e77,30,2022-02-12_13h28.59.969,lexical_decision_task_DD_L6,2021.2.3,MacIntel,60.0024001,,,,,,,,,,,0.8447,1,,,,,,,,,,,,,,m,1,0.8447,,,,,,,,0.706598918,-0.158330282,0,0,0,,0,148,148,53,1,POSTER,HB,m,m,./images/POSTERHB.png,,,,,,,,,,,,,,,,,,,,,,,,,,,,,,,,,,,
,,,,,,,,,,,,,,,,,5ffefaa56d69025c21c75e77,30,2022-02-12_13h28.59.969,lexical_decision_task_DD_L6,2021.2.3,MacIntel,60.0024001,,,,,,,,,,,0.9827,1,,,,,,,,,,,,,,z,1,0.9827,,,,,,,,0.706598918,-0.158330282,0,0,0,,0,149,149,84,1,HAXES,C,z,z,./images/HAXES.png,,,,,,,,,,,,,,,,,,,,,,,,,,,,,,,,,,,
,,,,,,,,,,,,,,,,,5ffefaa56d69025c21c75e77,30,2022-02-12_13h28.59.969,lexical_decision_task_DD_L6,2021.2.3,MacIntel,60.0024001,,,,,,,,,,,0.5413,1,,,,,,,,,,,,,,m,1,0.5413,,,,,,,,0.706598918,-0.158330282,0,0,0,,0,150,150,1,1,TOWEL,C,m,m,./images/TOWEL.png,,,,,,,,,,,,,,,,,,,,,,,,,,,,,,,,,,,
,,,,,,,,,,,,,,,,,5ffefaa56d69025c21c75e77,30,2022-02-12_13h28.59.969,lexical_decision_task_DD_L6,2021.2.3,MacIntel,60.0024001,,,,,,,,,,,0.573,1,,,,,,,,,,,,,,z,1,0.573,,,,,,,,0.706598918,-0.158330282,0,0,0,,0,151,151,162,1,LEICH,C,z,z,./images/LEICH.png,,,,,,,,,,,,,,,,,,,,,,,,,,,,,,,,,,,
,,,,,,,,,,,,,,,,,5ffefaa56d69025c21c75e77,30,2022-02-12_13h28.59.969,lexical_decision_task_DD_L6,2021.2.3,MacIntel,60.0024001,,,,,,,,,,,0.5105,1,,,,,,,,,,,,,,m,1,0.5105,,,,,,,,0.706598918,-0.158330282,0,0,0,,0,152,152,36,1,BOILER,LB,m,m,./images/BOILERLB.png,,,,,,,,,,,,,,,,,,,,,,,,,,,,,,,,,,,
,,,,,,,,,,,,,,,,,5ffefaa56d69025c21c75e77,30,2022-02-12_13h28.59.969,lexical_decision_task_DD_L6,2021.2.3,MacIntel,60.0024001,,,,,,,,,,,0.4733,1,,,,,,,,,,,,,,z,1,0.4733,,,,,,,,0.706598918,-0.158330282,0,0,0,,0,153,153,102,1,DULLE,C,z,z,./images/DULLE.png,,,,,,,,,,,,,,,,,,,,,,,,,,,,,,,,,,,
,,,,,,,,,,,,,,,,,5ffefaa56d69025c21c75e77,30,2022-02-12_13h28.59.969,lexical_decision_task_DD_L6,2021.2.3,MacIntel,60.0024001,,,,,,,,,,,0.5924,1,,,,,,,,,,,,,,z,1,0.5924,,,,,,,,0.706598918,-0.158330282,0,0,0,,0,154,154,101,1,GLEET,LB,z,z,./images/GLEETLB.png,,,,,,,,,,,,,,,,,,,,,,,,,,,,,,,,,,,
,,,,,,,,,,,,,,,,,5ffefaa56d69025c21c75e77,30,2022-02-12_13h28.59.969,lexical_decision_task_DD_L6,2021.2.3,MacIntel,60.0024001,,,,,,,,,,,0.5868,1,,,,,,,,,,,,,,z,1,0.5868,,,,,,,,0.706598918,-0.158330282,0,0,0,,0,155,155,95,1,HANTY,LB,z,z,./images/HANTYLB.png,,,,,,,,,,,,,,,,,,,,,,,,,,,,,,,,,,,
,,,,,,,,,,,,,,,,,5ffefaa56d69025c21c75e77,30,2022-02-12_13h28.59.969,lexical_decision_task_DD_L6,2021.2.3,MacIntel,60.0024001,,,,,,,,,,,1.5448,1,,,,,,,,,,,,,,m,1,1.5448,,,,,,,,0.706598918,-0.158330282,0,0,0,,0,156,156,44,1,BASKET,HB,m,m,./images/BASKETHB.png,,,,,,,,,,,,,,,,,,,,,,,,,,,,,,,,,,,
,,,,,,,,,,,,,,,,,5ffefaa56d69025c21c75e77,30,2022-02-12_13h28.59.969,lexical_decision_task_DD_L6,2021.2.3,MacIntel,60.0024001,,,,,,,,,,,0.6892,1,,,,,,,,,,,,,,m,1,0.6892,,,,,,,,0.706598918,-0.158330282,0,0,0,,0,157,157,52,1,DESERT,C,m,m,./images/DESERT.png,,,,,,,,,,,,,,,,,,,,,,,,,,,,,,,,,,,
,,,,,,,,,,,,,,,,,5ffefaa56d69025c21c75e77,30,2022-02-12_13h28.59.969,lexical_decision_task_DD_L6,2021.2.3,MacIntel,60.0024001,,,,,,,,,,,0.6338,1,,,,,,,,,,,,,,z,1,0.6338,,,,,,,,0.706598918,-0.158330282,0,0,0,,0,158,158,107,1,FASKS,LB,z,z,./images/FASKSLB.png,,,,,,,,,,,,,,,,,,,,,,,,,,,,,,,,,,,
,,,,,,,,,,,,,,,,,5ffefaa56d69025c21c75e77,30,2022-02-12_13h28.59.969,lexical_decision_task_DD_L6,2021.2.3,MacIntel,60.0024001,,,,,,,,,,,0.716,1,,,,,,,,,,,,,,m,1,0.716,,,,,,,,0.706598918,-0.158330282,0,0,0,,0,159,159,61,1,ARTIST,C,m,m,./images/ARTIST.png,,,,,,,,,,,,,,,,,,,,,,,,,,,,,,,,,,,
,,,,,,,,,,,,,,,,,5ffefaa56d69025c21c75e77,30,2022-02-12_13h28.59.969,lexical_decision_task_DD_L6,2021.2.3,MacIntel,60.0024001,,,,,,,,,,,0.6105,1,,,,,,,,,,,,,,z,1,0.6105,,,,,,,,0.706598918,-0.158330282,0,0,0,,0,160,160,88,1,GLUSH,HB,z,z,./images/GLUSHHB.png,,,,,,,,,,,,,,,,,,,,,,,,,,,,,,,,,,,
,,,,,,,,,,,,,,,,,5ffefaa56d69025c21c75e77,30,2022-02-12_13h28.59.969,lexical_decision_task_DD_L6,2021.2.3,MacIntel,60.0024001,,,,,,,,,,,0.9772,1,,,,,,,,,,,,,,z,1,0.9772,,,,,,,,0.706598918,-0.158330282,0,0,0,,0,161,161,142,1,PLASK,HB,z,z,./images/PLASKHB.png,,,,,,,,,,,,,,,,,,,,,,,,,,,,,,,,,,,
,,,,,,,,,,,,,,,,,5ffefaa56d69025c21c75e77,30,2022-02-12_13h28.59.969,lexical_decision_task_DD_L6,2021.2.3,MacIntel,60.0024001,,,,,,,,,,,0.5316,1,,,,,,,,,,,,,,m,1,0.5316,,,,,,,,0.706598918,-0.158330282,0,0,0,,0,162,162,54,1,CHERRY,LB,m,m,./images/CHERRYLB.png,,,,,,,,,,,,,,,,,,,,,,,,,,,,,,,,,,,
,,,,,,,,,,,,,,,,,5ffefaa56d69025c21c75e77,30,2022-02-12_13h28.59.969,lexical_decision_task_DD_L6,2021.2.3,MacIntel,60.0024001,,,,,,,,,,,0.6296,1,,,,,,,,,,,,,,z,1,0.6296,,,,,,,,0.706598918,-0.158330282,0,0,0,,0,163,163,146,1,MOOST,LB,z,z,./images/MOOSTLB.png,,,,,,,,,,,,,,,,,,,,,,,,,,,,,,,,,,,
,,,,,,,,,,,,,,,,,5ffefaa56d69025c21c75e77,30,2022-02-12_13h28.59.969,lexical_decision_task_DD_L6,2021.2.3,MacIntel,60.0024001,,,,,,,,,,,0.5034,1,,,,,,,,,,,,,,z,1,0.5034,,,,,,,,0.706598918,-0.158330282,0,0,0,,0,164,164,116,1,BALGY,LB,z,z,./images/BALGYLB.png,,,,,,,,,,,,,,,,,,,,,,,,,,,,,,,,,,,
,,,,,,,,,,,,,,,,,5ffefaa56d69025c21c75e77,30,2022-02-12_13h28.59.969,lexical_decision_task_DD_L6,2021.2.3,MacIntel,60.0024001,,,,,,,,,,,0.6285,1,,,,,,,,,,,,,,z,1,0.6285,,,,,,,,0.706598918,-0.158330282,0,0,0,,0,165,165,158,1,EGECT,LB,z,z,./images/EGECTLB.png,,,,,,,,,,,,,,,,,,,,,,,,,,,,,,,,,,,
,,,,,,,,,,,,,,,,,5ffefaa56d69025c21c75e77,30,2022-02-12_13h28.59.969,lexical_decision_task_DD_L6,2021.2.3,MacIntel,60.0024001,,,,,,,,,,,0.6043,0,,,,,,,,,,,,,,m,0,0.6043,,,,,,,,0.706598918,-0.158330282,0,0,0,,0,166,166,128,1,GRIFT,LB,z,z,./images/GRIFTLB.png,,,,,,,,,,,,,,,,,,,,,,,,,,,,,,,,,,,
,,,,,,,,,,,,,,,,,5ffefaa56d69025c21c75e77,30,2022-02-12_13h28.59.969,lexical_decision_task_DD_L6,2021.2.3,MacIntel,60.0024001,,,,,,,,,,,0.5077,1,,,,,,,,,,,,,,z,1,0.5077,,,,,,,,0.706598918,-0.158330282,0,0,0,,0,167,167,90,1,NEAST,C,z,z,./images/NEAST.png,,,,,,,,,,,,,,,,,,,,,,,,,,,,,,,,,,,
,,,,,,,,,,,,,,,,,5ffefaa56d69025c21c75e77,30,2022-02-12_13h28.59.969,lexical_decision_task_DD_L6,2021.2.3,MacIntel,60.0024001,,,,,,,,,,,,,,,,,,,,,,,,,,,,,,,,,,,,,,,,,,,,,,,,How likely will it be that you will recognize the words presented slighly blurred on a scale of 0 (not likely) to 100 (most likely)?,,,,,0.001581828,-0.407196045,1,0,0,jol_adv,5,6.6826,0,0,0,1,1,,,,,,,,,,,,,,,,,,,,,
,,,,,,,,,,,,,,,,,5ffefaa56d69025c21c75e77,30,2022-02-12_13h28.59.969,lexical_decision_task_DD_L6,2021.2.3,MacIntel,60.0024001,,,,,,,,,,,,,,,,,,,,,,,,,,,,,,,,,,,,,,,,,,,,,,,,How likely will it be that you will recognize the words presented very blurred on a scale of 0 (not likely) to 100 (most likely)?,,,,,,,,,,,3,4.1205,0,1,1,2,1,,,,,,,,,,,,,,,,,,,,,
,,,,,,,,,,,,,,,,,5ffefaa56d69025c21c75e77,30,2022-02-12_13h28.59.969,lexical_decision_task_DD_L6,2021.2.3,MacIntel,60.0024001,,,,,,,,,,,,,,,,,,,,,,,,,,,,,,,,,,,,,,,,,,,,,,,,How likely will it be that you will recognize the words presented clearly on a scale of 0 (not likely) to 100 (most likely)?,,,,,,,,,,,6,2.1559,0,2,2,0,1,,,,,,,,,,,,,,,,,,,,,
space,8.9094,0.162282308,-0.405181885,0,0,0,,,,,,1,test,"In the next phase you will be presented with the words from the the first phase. Your job is to decide whether you remember seeing the word or not. If you remember seeing the word press ""old"" or type ""m"". If you do not remember seeing the word press ""new"" or type ""z"". Please press the space bar or click on continue to begin. ",,,5ffefaa56d69025c21c75e77,30,2022-02-12_13h28.59.969,lexical_decision_task_DD_L6,2021.2.3,MacIntel,60.0024001,,,,,,,,,,,,,,,,,,,,,,,,,,,,,,,,,,,,,,,,,,,,,,,,,,,,,,,,,,,,,,,,,,0,0,0,0,1,,,,,,,,,,,,,,,,
space,1.1232,0.162282308,-0.405181885,0,0,0,,,,,,1,test,"In the next phase you will be presented with the words from the the first phase. Your job is to decide whether you remember seeing the word or not. If you remember seeing the word press ""old"" or type ""m"". If you do not remember seeing the word press ""new"" or type ""z"". Please press the space bar or click on continue to begin. ",,,5ffefaa56d69025c21c75e77,30,2022-02-12_13h28.59.969,lexical_decision_task_DD_L6,2021.2.3,MacIntel,60.0024001,,,,,,,,,,,,,,,,,,,,,,,,,,,,,,,,,,,,,,,,,,,,,,,,,,,,,,,,,,,,,,,,,,1,0,1,0,1,,,,,,,,,,,,,,,,
space,1.2032,0.162282308,-0.405181885,0,0,0,,,,,,1,test,"In the next phase you will be presented with the words from the the first phase. Your job is to decide whether you remember seeing the word or not. If you remember seeing the word press ""old"" or type ""m"". If you do not remember seeing the word press ""new"" or type ""z"". Please press the space bar or click on continue to begin. ",,,5ffefaa56d69025c21c75e77,30,2022-02-12_13h28.59.969,lexical_decision_task_DD_L6,2021.2.3,MacIntel,60.0024001,,,,,,,,,,,,,,,,,,,,,,,,,,,,,,,,,,,,,,,,,,,,,,,,,,,,,,,,,,,,,,,,,,2,0,2,0,1,,,,,,,,,,,,,,,,
,,0.162282308,-0.405181885,1,0,0,,,,,,1,test,"In the next phase you will be presented with the words from the the first phase. Your job is to decide whether you remember seeing the word or not. If you remember seeing the word press ""old"" or type ""m"". If you do not remember seeing the word press ""new"" or type ""z"". Please press the space bar or click on continue to begin. ",,,5ffefaa56d69025c21c75e77,30,2022-02-12_13h28.59.969,lexical_decision_task_DD_L6,2021.2.3,MacIntel,60.0024001,,,,,,,,,,,,,,,,,,,,,,,,,,,,,,,,,,,,,,,,,,,,,,,,,,,,,,,,,,,,,,,,,,3,0,3,0,1,instr_done_button,,,,,,,,,,,,,,,
space,1.2171,0.275227865,-0.117706299,0,0,0,,,,,,1,test,"In the next phase you will be presented with the words from the the first phase. Your job is to decide whether you remember seeing the word or not. If you remember seeing the word press ""old"" or type ""m"". If you do not remember seeing the word press ""new"" or type ""z"". Please press the space bar or click on continue to begin. ",,,5ffefaa56d69025c21c75e77,30,2022-02-12_13h28.59.969,lexical_decision_task_DD_L6,2021.2.3,MacIntel,60.0024001,,,,,,,,,,,,,,,,,,,,,,,,,,,,,,,,,,,,,,,,,,,,,,,,,,,,,,,,,,,,,,,,,,4,0,4,0,1,,,,,,,,,,,,,,,,
,,,,,,,,,,,,,,,,,5ffefaa56d69025c21c75e77,30,2022-02-12_13h28.59.969,lexical_decision_task_DD_L6,2021.2.3,MacIntel,60.0024001,,,,,,,,,,,2.2928,0,,,,,,,,,,,,,,,,,,,,,,,,0.275227865,-0.117706299,0,0,0,,,,,,,PENCE,C,z,y,./images/PENCE.png,,,,,,,,,,,,,,,,,,,,,m,0,2.2928,,,,,,,,0,0,0,100,1
,,,,,,,,,,,,,,,,,5ffefaa56d69025c21c75e77,30,2022-02-12_13h28.59.969,lexical_decision_task_DD_L6,2021.2.3,MacIntel,60.0024001,,,,,,,,,,,0.8985,1,,,,,,,,,,,,,,,,,,,,,,,,0.275227865,-0.117706299,0,0,0,,,,,,,THROAT,LB,z,y,./images/THROATLB.png,,,,,,,,,,,,,,,,,,,,,z,1,0.8985,,,,,,,,0,1,1,120,1
,,,,,,,,,,,,,,,,,5ffefaa56d69025c21c75e77,30,2022-02-12_13h28.59.969,lexical_decision_task_DD_L6,2021.2.3,MacIntel,60.0024001,,,,,,,,,,,1.2363,0,,,,,,,,,,,,,,,,,,,,,,,,0.275227865,-0.117706299,0,0,0,,,,,,,BABOON,C,z,y,./images/BABOON.png,,,,,,,,,,,,,,,,,,,,,m,0,1.2363,,,,,,,,0,2,2,142,1
,,,,,,,,,,,,,,,,,5ffefaa56d69025c21c75e77,30,2022-02-12_13h28.59.969,lexical_decision_task_DD_L6,2021.2.3,MacIntel,60.0024001,,,,,,,,,,,1.7315,0,,,,,,,,,,,,,,,,,,,,,,,,0.275227865,-0.117706299,0,0,0,,,,,,,BEARD,HB,z,y,./images/BEARDHB.png,,,,,,,,,,,,,,,,,,,,,m,0,1.7315,,,,,,,,0,3,3,86,1
,,,,,,,,,,,,,,,,,5ffefaa56d69025c21c75e77,30,2022-02-12_13h28.59.969,lexical_decision_task_DD_L6,2021.2.3,MacIntel,60.0024001,,,,,,,,,,,1.1827,1,,,,,,,,,,,,,,,,,,,,,,,,0.275227865,-0.117706299,0,0,0,,,,,,,DRILL,LB,m,y,./images/DRILLLB.png,,,,,,,,,,,,,,,,,,,,,m,1,1.1827,,,,,,,,0,4,4,81,1
,,,,,,,,,,,,,,,,,5ffefaa56d69025c21c75e77,30,2022-02-12_13h28.59.969,lexical_decision_task_DD_L6,2021.2.3,MacIntel,60.0024001,,,,,,,,,,,0.6105,1,,,,,,,,,,,,,,,,,,,,,,,,0.275227865,-0.117706299,0,0,0,,,,,,,TOWEL,C,m,y,./images/TOWEL.png,,,,,,,,,,,,,,,,,,,,,m,1,0.6105,,,,,,,,0,5,5,1,1
,,,,,,,,,,,,,,,,,5ffefaa56d69025c21c75e77,30,2022-02-12_13h28.59.969,lexical_decision_task_DD_L6,2021.2.3,MacIntel,60.0024001,,,,,,,,,,,0.7313,1,,,,,,,,,,,,,,,,,,,,,,,,0.275227865,-0.117706299,0,0,0,,,,,,,JELLY,C,z,y,./images/JELLY.png,,,,,,,,,,,,,,,,,,,,,z,1,0.7313,,,,,,,,0,6,6,148,1
,,,,,,,,,,,,,,,,,5ffefaa56d69025c21c75e77,30,2022-02-12_13h28.59.969,lexical_decision_task_DD_L6,2021.2.3,MacIntel,60.0024001,,,,,,,,,,,0.6433,1,,,,,,,,,,,,,,,,,,,,,,,,0.275227865,-0.117706299,0,0,0,,,,,,,WHISKY,HB,m,y,./images/WHISKYHB.png,,,,,,,,,,,,,,,,,,,,,m,1,0.6433,,,,,,,,0,7,7,83,1
,,,,,,,,,,,,,,,,,5ffefaa56d69025c21c75e77,30,2022-02-12_13h28.59.969,lexical_decision_task_DD_L6,2021.2.3,MacIntel,60.0024001,,,,,,,,,,,0.92,1,,,,,,,,,,,,,,,,,,,,,,,,0.275227865,-0.117706299,0,0,0,,,,,,,CHALK,C,m,y,./images/CHALK.png,,,,,,,,,,,,,,,,,,,,,m,1,0.92,,,,,,,,0,8,8,25,1
,,,,,,,,,,,,,,,,,5ffefaa56d69025c21c75e77,30,2022-02-12_13h28.59.969,lexical_decision_task_DD_L6,2021.2.3,MacIntel,60.0024001,,,,,,,,,,,0.9807,0,,,,,,,,,,,,,,,,,,,,,,,,0.275227865,-0.117706299,0,0,0,,,,,,,HOCKEY,HB,m,y,./images/HOCKEYHB.png,,,,,,,,,,,,,,,,,,,,,z,0,0.9807,,,,,,,,0,9,9,32,1
,,,,,,,,,,,,,,,,,5ffefaa56d69025c21c75e77,30,2022-02-12_13h28.59.969,lexical_decision_task_DD_L6,2021.2.3,MacIntel,60.0024001,,,,,,,,,,,0.8396,1,,,,,,,,,,,,,,,,,,,,,,,,0.275227865,-0.117706299,0,0,0,,,,,,,MUSCLE,C,z,y,./images/MUSCLE.png,,,,,,,,,,,,,,,,,,,,,z,1,0.8396,,,,,,,,0,10,10,88,1
,,,,,,,,,,,,,,,,,5ffefaa56d69025c21c75e77,30,2022-02-12_13h28.59.969,lexical_decision_task_DD_L6,2021.2.3,MacIntel,60.0024001,,,,,,,,,,,0.9477,1,,,,,,,,,,,,,,,,,,,,,,,,0.275227865,-0.117706299,0,0,0,,,,,,,HEATER,HB,m,y,./images/HEATERHB.png,,,,,,,,,,,,,,,,,,,,,m,1,0.9477,,,,,,,,0,11,11,56,1
,,,,,,,,,,,,,,,,,5ffefaa56d69025c21c75e77,30,2022-02-12_13h28.59.969,lexical_decision_task_DD_L6,2021.2.3,MacIntel,60.0024001,,,,,,,,,,,0.6313,1,,,,,,,,,,,,,,,,,,,,,,,,0.275227865,-0.117706299,0,0,0,,,,,,,STOOL,C,m,y,./images/STOOL.png,,,,,,,,,,,,,,,,,,,,,m,1,0.6313,,,,,,,,0,12,12,43,1
,,,,,,,,,,,,,,,,,5ffefaa56d69025c21c75e77,30,2022-02-12_13h28.59.969,lexical_decision_task_DD_L6,2021.2.3,MacIntel,60.0024001,,,,,,,,,,,0.686,1,,,,,,,,,,,,,,,,,,,,,,,,0.275227865,-0.117706299,0,0,0,,,,,,,DANCER,LB,m,y,./images/DANCERLB.png,,,,,,,,,,,,,,,,,,,,,m,1,0.686,,,,,,,,0,13,13,21,1
,,,,,,,,,,,,,,,,,5ffefaa56d69025c21c75e77,30,2022-02-12_13h28.59.969,lexical_decision_task_DD_L6,2021.2.3,MacIntel,60.0024001,,,,,,,,,,,0.6881,0,,,,,,,,,,,,,,,,,,,,,,,,0.275227865,-0.117706299,0,0,0,,,,,,,SCREW,LB,z,y,./images/SCREWLB.png,,,,,,,,,,,,,,,,,,,,,m,0,0.6881,,,,,,,,0,14,14,108,1
,,,,,,,,,,,,,,,,,5ffefaa56d69025c21c75e77,30,2022-02-12_13h28.59.969,lexical_decision_task_DD_L6,2021.2.3,MacIntel,60.0024001,,,,,,,,,,,0.6317,1,,,,,,,,,,,,,,,,,,,,,,,,0.275227865,-0.117706299,0,0,0,,,,,,,MUFFIN,C,z,y,./images/MUFFIN.png,,,,,,,,,,,,,,,,,,,,,z,1,0.6317,,,,,,,,0,15,15,139,1
,,,,,,,,,,,,,,,,,5ffefaa56d69025c21c75e77,30,2022-02-12_13h28.59.969,lexical_decision_task_DD_L6,2021.2.3,MacIntel,60.0024001,,,,,,,,,,,0.9341,1,,,,,,,,,,,,,,,,,,,,,,,,0.275227865,-0.117706299,0,0,0,,,,,,,DESERT,C,m,y,./images/DESERT.png,,,,,,,,,,,,,,,,,,,,,m,1,0.9341,,,,,,,,0,16,16,52,1
,,,,,,,,,,,,,,,,,5ffefaa56d69025c21c75e77,30,2022-02-12_13h28.59.969,lexical_decision_task_DD_L6,2021.2.3,MacIntel,60.0024001,,,,,,,,,,,0.6024,1,,,,,,,,,,,,,,,,,,,,,,,,0.275227865,-0.117706299,0,0,0,,,,,,,RAZOR,C,m,y,./images/RAZOR.png,,,,,,,,,,,,,,,,,,,,,m,1,0.6024,,,,,,,,0,17,17,34,1
,,,,,,,,,,,,,,,,,5ffefaa56d69025c21c75e77,30,2022-02-12_13h28.59.969,lexical_decision_task_DD_L6,2021.2.3,MacIntel,60.0024001,,,,,,,,,,,0.5676,1,,,,,,,,,,,,,,,,,,,,,,,,0.275227865,-0.117706299,0,0,0,,,,,,,TOMATO,LB,z,y,./images/TOMATOLB.png,,,,,,,,,,,,,,,,,,,,,z,1,0.5676,,,,,,,,0,18,18,84,1
,,,,,,,,,,,,,,,,,5ffefaa56d69025c21c75e77,30,2022-02-12_13h28.59.969,lexical_decision_task_DD_L6,2021.2.3,MacIntel,60.0024001,,,,,,,,,,,0.6478,1,,,,,,,,,,,,,,,,,,,,,,,,0.275227865,-0.117706299,0,0,0,,,,,,,PICKLE,HB,z,y,./images/PICKLEHB.png,,,,,,,,,,,,,,,,,,,,,z,1,0.6478,,,,,,,,0,19,19,98,1
,,,,,,,,,,,,,,,,,5ffefaa56d69025c21c75e77,30,2022-02-12_13h28.59.969,lexical_decision_task_DD_L6,2021.2.3,MacIntel,60.0024001,,,,,,,,,,,0.6553,1,,,,,,,,,,,,,,,,,,,,,,,,0.275227865,-0.117706299,0,0,0,,,,,,,PIMPLE,HB,z,y,./images/PIMPLEHB.png,,,,,,,,,,,,,,,,,,,,,z,1,0.6553,,,,,,,,0,20,20,155,1
,,,,,,,,,,,,,,,,,5ffefaa56d69025c21c75e77,30,2022-02-12_13h28.59.969,lexical_decision_task_DD_L6,2021.2.3,MacIntel,60.0024001,,,,,,,,,,,0.6801,0,,,,,,,,,,,,,,,,,,,,,,,,0.275227865,-0.117706299,0,0,0,,,,,,,MIRROR,LB,z,y,./images/MIRRORLB.png,,,,,,,,,,,,,,,,,,,,,m,0,0.6801,,,,,,,,0,21,21,147,1
,,,,,,,,,,,,,,,,,5ffefaa56d69025c21c75e77,30,2022-02-12_13h28.59.969,lexical_decision_task_DD_L6,2021.2.3,MacIntel,60.0024001,,,,,,,,,,,0.7832,1,,,,,,,,,,,,,,,,,,,,,,,,0.275227865,-0.117706299,0,0,0,,,,,,,WALNUT,LB,m,y,./images/WALNUTLB.png,,,,,,,,,,,,,,,,,,,,,m,1,0.7832,,,,,,,,0,22,22,0,1
,,,,,,,,,,,,,,,,,5ffefaa56d69025c21c75e77,30,2022-02-12_13h28.59.969,lexical_decision_task_DD_L6,2021.2.3,MacIntel,60.0024001,,,,,,,,,,,0.8969,1,,,,,,,,,,,,,,,,,,,,,,,,0.275227865,-0.117706299,0,0,0,,,,,,,TORCH,HB,z,y,./images/TORCHHB.png,,,,,,,,,,,,,,,,,,,,,z,1,0.8969,,,,,,,,0,23,23,152,1
,,,,,,,,,,,,,,,,,5ffefaa56d69025c21c75e77,30,2022-02-12_13h28.59.969,lexical_decision_task_DD_L6,2021.2.3,MacIntel,60.0024001,,,,,,,,,,,0.7665,0,,,,,,,,,,,,,,,,,,,,,,,,0.275227865,-0.117706299,0,0,0,,,,,,,BANANA,C,m,y,./images/BANANA.png,,,,,,,,,,,,,,,,,,,,,z,0,0.7665,,,,,,,,0,24,24,70,1
,,,,,,,,,,,,,,,,,5ffefaa56d69025c21c75e77,30,2022-02-12_13h28.59.969,lexical_decision_task_DD_L6,2021.2.3,MacIntel,60.0024001,,,,,,,,,,,0.7385,0,,,,,,,,,,,,,,,,,,,,,,,,0.275227865,-0.117706299,0,0,0,,,,,,,SNACK,C,z,y,./images/SNACK.png,,,,,,,,,,,,,,,,,,,,,m,0,0.7385,,,,,,,,0,25,25,157,1
,,,,,,,,,,,,,,,,,5ffefaa56d69025c21c75e77,30,2022-02-12_13h28.59.969,lexical_decision_task_DD_L6,2021.2.3,MacIntel,60.0024001,,,,,,,,,,,0.5821,1,,,,,,,,,,,,,,,,,,,,,,,,0.275227865,-0.117706299,0,0,0,,,,,,,COLLAR,LB,m,y,./images/COLLARLB.png,,,,,,,,,,,,,,,,,,,,,m,1,0.5821,,,,,,,,0,26,26,15,1
,,,,,,,,,,,,,,,,,5ffefaa56d69025c21c75e77,30,2022-02-12_13h28.59.969,lexical_decision_task_DD_L6,2021.2.3,MacIntel,60.0024001,,,,,,,,,,,0.5827,1,,,,,,,,,,,,,,,,,,,,,,,,0.275227865,-0.117706299,0,0,0,,,,,,,SKIING,HB,z,y,./images/SKIINGHB.png,,,,,,,,,,,,,,,,,,,,,z,1,0.5827,,,,,,,,0,27,27,101,1
,,,,,,,,,,,,,,,,,5ffefaa56d69025c21c75e77,30,2022-02-12_13h28.59.969,lexical_decision_task_DD_L6,2021.2.3,MacIntel,60.0024001,,,,,,,,,,,0.821,1,,,,,,,,,,,,,,,,,,,,,,,,0.275227865,-0.117706299,0,0,0,,,,,,,MEDAL,HB,m,y,./images/MEDALHB.png,,,,,,,,,,,,,,,,,,,,,m,1,0.821,,,,,,,,0,28,28,11,1
,,,,,,,,,,,,,,,,,5ffefaa56d69025c21c75e77,30,2022-02-12_13h28.59.969,lexical_decision_task_DD_L6,2021.2.3,MacIntel,60.0024001,,,,,,,,,,,0.5998,1,,,,,,,,,,,,,,,,,,,,,,,,0.275227865,-0.117706299,0,0,0,,,,,,,RULER,C,m,y,./images/RULER.png,,,,,,,,,,,,,,,,,,,,,m,1,0.5998,,,,,,,,0,29,29,79,1
,,,,,,,,,,,,,,,,,5ffefaa56d69025c21c75e77,30,2022-02-12_13h28.59.969,lexical_decision_task_DD_L6,2021.2.3,MacIntel,60.0024001,,,,,,,,,,,0.7005,1,,,,,,,,,,,,,,,,,,,,,,,,0.275227865,-0.117706299,0,0,0,,,,,,,CLOTH,HB,m,y,./images/CLOTHHB.png,,,,,,,,,,,,,,,,,,,,,m,1,0.7005,,,,,,,,0,30,30,23,1
,,,,,,,,,,,,,,,,,5ffefaa56d69025c21c75e77,30,2022-02-12_13h28.59.969,lexical_decision_task_DD_L6,2021.2.3,MacIntel,60.0024001,,,,,,,,,,,0.5861,1,,,,,,,,,,,,,,,,,,,,,,,,0.275227865,-0.117706299,0,0,0,,,,,,,MALLET,HB,z,y,./images/MALLETHB.png,,,,,,,,,,,,,,,,,,,,,z,1,0.5861,,,,,,,,0,31,31,134,1
,,,,,,,,,,,,,,,,,5ffefaa56d69025c21c75e77,30,2022-02-12_13h28.59.969,lexical_decision_task_DD_L6,2021.2.3,MacIntel,60.0024001,,,,,,,,,,,0.9015,1,,,,,,,,,,,,,,,,,,,,,,,,0.275227865,-0.117706299,0,0,0,,,,,,,SHELF,LB,z,y,./images/SHELFLB.png,,,,,,,,,,,,,,,,,,,,,z,1,0.9015,,,,,,,,0,32,32,123,1
,,,,,,,,,,,,,,,,,5ffefaa56d69025c21c75e77,30,2022-02-12_13h28.59.969,lexical_decision_task_DD_L6,2021.2.3,MacIntel,60.0024001,,,,,,,,,,,0.5856,1,,,,,,,,,,,,,,,,,,,,,,,,0.275227865,-0.117706299,0,0,0,,,,,,,SNAKE,C,m,y,./images/SNAKE.png,,,,,,,,,,,,,,,,,,,,,m,1,0.5856,,,,,,,,0,33,33,40,1
,,,,,,,,,,,,,,,,,5ffefaa56d69025c21c75e77,30,2022-02-12_13h28.59.969,lexical_decision_task_DD_L6,2021.2.3,MacIntel,60.0024001,,,,,,,,,,,0.8116,1,,,,,,,,,,,,,,,,,,,,,,,,0.275227865,-0.117706299,0,0,0,,,,,,,ENGINE,HB,m,y,./images/ENGINEHB.png,,,,,,,,,,,,,,,,,,,,,m,1,0.8116,,,,,,,,0,34,34,38,1
,,,,,,,,,,,,,,,,,5ffefaa56d69025c21c75e77,30,2022-02-12_13h28.59.969,lexical_decision_task_DD_L6,2021.2.3,MacIntel,60.0024001,,,,,,,,,,,0.6483,1,,,,,,,,,,,,,,,,,,,,,,,,0.275227865,-0.117706299,0,0,0,,,,,,,PARCEL,LB,m,y,./images/PARCELLB.png,,,,,,,,,,,,,,,,,,,,,m,1,0.6483,,,,,,,,0,35,35,18,1
,,,,,,,,,,,,,,,,,5ffefaa56d69025c21c75e77,30,2022-02-12_13h28.59.969,lexical_decision_task_DD_L6,2021.2.3,MacIntel,60.0024001,,,,,,,,,,,0.6968,1,,,,,,,,,,,,,,,,,,,,,,,,0.275227865,-0.117706299,0,0,0,,,,,,,MAMMAL,HB,m,y,./images/MAMMALHB.png,,,,,,,,,,,,,,,,,,,,,m,1,0.6968,,,,,,,,0,36,36,62,1
,,,,,,,,,,,,,,,,,5ffefaa56d69025c21c75e77,30,2022-02-12_13h28.59.969,lexical_decision_task_DD_L6,2021.2.3,MacIntel,60.0024001,,,,,,,,,,,0.5164,1,,,,,,,,,,,,,,,,,,,,,,,,0.275227865,-0.117706299,0,0,0,,,,,,,MOSQUE,C,z,y,./images/MOSQUE.png,,,,,,,,,,,,,,,,,,,,,z,1,0.5164,,,,,,,,0,37,37,127,1
,,,,,,,,,,,,,,,,,5ffefaa56d69025c21c75e77,30,2022-02-12_13h28.59.969,lexical_decision_task_DD_L6,2021.2.3,MacIntel,60.0024001,,,,,,,,,,,0.8299,1,,,,,,,,,,,,,,,,,,,,,,,,0.275227865,-0.117706299,0,0,0,,,,,,,PACKET,HB,z,y,./images/PACKETHB.png,,,,,,,,,,,,,,,,,,,,,z,1,0.8299,,,,,,,,0,38,38,140,1
,,,,,,,,,,,,,,,,,5ffefaa56d69025c21c75e77,30,2022-02-12_13h28.59.969,lexical_decision_task_DD_L6,2021.2.3,MacIntel,60.0024001,,,,,,,,,,,0.614,1,,,,,,,,,,,,,,,,,,,,,,,,0.275227865,-0.117706299,0,0,0,,,,,,,CHAIN,LB,m,y,./images/CHAINLB.png,,,,,,,,,,,,,,,,,,,,,m,1,0.614,,,,,,,,0,39,39,42,1
,,,,,,,,,,,,,,,,,5ffefaa56d69025c21c75e77,30,2022-02-12_13h28.59.969,lexical_decision_task_DD_L6,2021.2.3,MacIntel,60.0024001,,,,,,,,,,,0.584,1,,,,,,,,,,,,,,,,,,,,,,,,0.275227865,-0.117706299,0,0,0,,,,,,,LAGOON,HB,m,y,./images/LAGOONHB.png,,,,,,,,,,,,,,,,,,,,,m,1,0.584,,,,,,,,0,40,40,47,1
,,,,,,,,,,,,,,,,,5ffefaa56d69025c21c75e77,30,2022-02-12_13h28.59.969,lexical_decision_task_DD_L6,2021.2.3,MacIntel,60.0024001,,,,,,,,,,,0.6829,1,,,,,,,,,,,,,,,,,,,,,,,,0.275227865,-0.117706299,0,0,0,space,,,,,,FERRY,LB,m,y,./images/FERRYLB.png,1.4154,,,,,,,,,,,,,,,,,,,,m,1,0.6829,,,,,,,,0,41,41,57,1
,,,,,,,,,,,,,,,,,5ffefaa56d69025c21c75e77,30,2022-02-12_13h28.59.969,lexical_decision_task_DD_L6,2021.2.3,MacIntel,60.0024001,,,,,,,,,,,0.536,1,,,,,,,,,,,,,,,,,,,,,,,,0.275227865,-0.117706299,0,0,0,,,,,,,GRAIN,LB,z,y,./images/GRAINLB.png,,,,,,,,,,,,,,,,,,,,,z,1,0.536,,,,,,,,0,42,42,159,1
,,,,,,,,,,,,,,,,,5ffefaa56d69025c21c75e77,30,2022-02-12_13h28.59.969,lexical_decision_task_DD_L6,2021.2.3,MacIntel,60.0024001,,,,,,,,,,,0.5503,1,,,,,,,,,,,,,,,,,,,,,,,,0.275227865,-0.117706299,0,0,0,,,,,,,BOXER,C,m,y,./images/BOXER.png,,,,,,,,,,,,,,,,,,,,,m,1,0.5503,,,,,,,,0,43,43,4,1
,,,,,,,,,,,,,,,,,5ffefaa56d69025c21c75e77,30,2022-02-12_13h28.59.969,lexical_decision_task_DD_L6,2021.2.3,MacIntel,60.0024001,,,,,,,,,,,0.5807,0,,,,,,,,,,,,,,,,,,,,,,,,0.275227865,-0.117706299,0,0,0,,,,,,,BERRY,HB,z,y,./images/BERRYHB.png,,,,,,,,,,,,,,,,,,,,,m,0,0.5807,,,,,,,,0,44,44,131,1
,,,,,,,,,,,,,,,,,5ffefaa56d69025c21c75e77,30,2022-02-12_13h28.59.969,lexical_decision_task_DD_L6,2021.2.3,MacIntel,60.0024001,,,,,,,,,,,0.698,1,,,,,,,,,,,,,,,,,,,,,,,,0.275227865,-0.117706299,0,0,0,,,,,,,TWINS,LB,z,y,./images/TWINSLB.png,,,,,,,,,,,,,,,,,,,,,z,1,0.698,,,,,,,,0,45,45,144,1
,,,,,,,,,,,,,,,,,5ffefaa56d69025c21c75e77,30,2022-02-12_13h28.59.969,lexical_decision_task_DD_L6,2021.2.3,MacIntel,60.0024001,,,,,,,,,,,0.6164,0,,,,,,,,,,,,,,,,,,,,,,,,0.275227865,-0.117706299,0,0,0,,,,,,,CANDLE,C,z,y,./images/CANDLE.png,,,,,,,,,,,,,,,,,,,,,m,0,0.6164,,,,,,,,0,46,46,145,1
,,,,,,,,,,,,,,,,,5ffefaa56d69025c21c75e77,30,2022-02-12_13h28.59.969,lexical_decision_task_DD_L6,2021.2.3,MacIntel,60.0024001,,,,,,,,,,,0.6475,1,,,,,,,,,,,,,,,,,,,,,,,,0.275227865,-0.117706299,0,0,0,,,,,,,FOLDER,LB,z,y,./images/FOLDERLB.png,,,,,,,,,,,,,,,,,,,,,z,1,0.6475,,,,,,,,0,47,47,126,1
,,,,,,,,,,,,,,,,,5ffefaa56d69025c21c75e77,30,2022-02-12_13h28.59.969,lexical_decision_task_DD_L6,2021.2.3,MacIntel,60.0024001,,,,,,,,,,,0.6707,0,,,,,,,,,,,,,,,,,,,,,,,,0.275227865,-0.117706299,0,0,0,,,,,,,DIVER,LB,m,y,./images/DIVERLB.png,,,,,,,,,,,,,,,,,,,,,z,0,0.6707,,,,,,,,0,48,48,9,1
,,,,,,,,,,,,,,,,,5ffefaa56d69025c21c75e77,30,2022-02-12_13h28.59.969,lexical_decision_task_DD_L6,2021.2.3,MacIntel,60.0024001,,,,,,,,,,,0.587,1,,,,,,,,,,,,,,,,,,,,,,,,0.275227865,-0.117706299,0,0,0,,,,,,,MONKEY,LB,m,y,./images/MONKEYLB.png,,,,,,,,,,,,,,,,,,,,,m,1,0.587,,,,,,,,0,49,49,45,1
,,,,,,,,,,,,,,,,,5ffefaa56d69025c21c75e77,30,2022-02-12_13h28.59.969,lexical_decision_task_DD_L6,2021.2.3,MacIntel,60.0024001,,,,,,,,,,,0.7156,1,,,,,,,,,,,,,,,,,,,,,,,,0.275227865,-0.117706299,0,0,0,,,,,,,WHEEL,HB,m,y,./images/WHEELHB.png,,,,,,,,,,,,,,,,,,,,,m,1,0.7156,,,,,,,,0,50,50,77,1
,,,,,,,,,,,,,,,,,5ffefaa56d69025c21c75e77,30,2022-02-12_13h28.59.969,lexical_decision_task_DD_L6,2021.2.3,MacIntel,60.0024001,,,,,,,,,,,0.6479,1,,,,,,,,,,,,,,,,,,,,,,,,0.275227865,-0.117706299,0,0,0,,,,,,,GLOVE,C,m,y,./images/GLOVE.png,,,,,,,,,,,,,,,,,,,,,m,1,0.6479,,,,,,,,0,51,51,73,1
,,,,,,,,,,,,,,,,,5ffefaa56d69025c21c75e77,30,2022-02-12_13h28.59.969,lexical_decision_task_DD_L6,2021.2.3,MacIntel,60.0024001,,,,,,,,,,,0.8166,1,,,,,,,,,,,,,,,,,,,,,,,,0.275227865,-0.117706299,0,0,0,,,,,,,CLOUD,HB,m,y,./images/CLOUDHB.png,,,,,,,,,,,,,,,,,,,,,m,1,0.8166,,,,,,,,0,52,52,26,1
,,,,,,,,,,,,,,,,,5ffefaa56d69025c21c75e77,30,2022-02-12_13h28.59.969,lexical_decision_task_DD_L6,2021.2.3,MacIntel,60.0024001,,,,,,,,,,,0.5912,1,,,,,,,,,,,,,,,,,,,,,,,,0.275227865,-0.117706299,0,0,0,,,,,,,FALCON,C,z,y,./images/FALCON.png,,,,,,,,,,,,,,,,,,,,,z,1,0.5912,,,,,,,,0,53,53,112,1
,,,,,,,,,,,,,,,,,5ffefaa56d69025c21c75e77,30,2022-02-12_13h28.59.969,lexical_decision_task_DD_L6,2021.2.3,MacIntel,60.0024001,,,,,,,,,,,0.6828,0,,,,,,,,,,,,,,,,,,,,,,,,0.275227865,-0.117706299,0,0,0,,,,,,,VALLEY,HB,m,y,./images/VALLEYHB.png,,,,,,,,,,,,,,,,,,,,,z,0,0.6828,,,,,,,,0,54,54,68,1
,,,,,,,,,,,,,,,,,5ffefaa56d69025c21c75e77,30,2022-02-12_13h28.59.969,lexical_decision_task_DD_L6,2021.2.3,MacIntel,60.0024001,,,,,,,,,,,0.7216,0,,,,,,,,,,,,,,,,,,,,,,,,0.275227865,-0.117706299,0,0,0,,,,,,,BONNET,HB,z,y,./images/BONNETHB.png,,,,,,,,,,,,,,,,,,,,,m,0,0.7216,,,,,,,,0,55,55,95,1
,,,,,,,,,,,,,,,,,5ffefaa56d69025c21c75e77,30,2022-02-12_13h28.59.969,lexical_decision_task_DD_L6,2021.2.3,MacIntel,60.0024001,,,,,,,,,,,0.8215,0,,,,,,,,,,,,,,,,,,,,,,,,0.275227865,-0.117706299,0,0,0,,,,,,,PEBBLE,C,m,y,./images/PEBBLE.png,,,,,,,,,,,,,,,,,,,,,z,0,0.8215,,,,,,,,0,56,56,82,1
,,,,,,,,,,,,,,,,,5ffefaa56d69025c21c75e77,30,2022-02-12_13h28.59.969,lexical_decision_task_DD_L6,2021.2.3,MacIntel,60.0024001,,,,,,,,,,,0.687,1,,,,,,,,,,,,,,,,,,,,,,,,0.275227865,-0.117706299,0,0,0,,,,,,,PILOT,HB,m,y,./images/PILOTHB.png,,,,,,,,,,,,,,,,,,,,,m,1,0.687,,,,,,,,0,57,57,50,1
,,,,,,,,,,,,,,,,,5ffefaa56d69025c21c75e77,30,2022-02-12_13h28.59.969,lexical_decision_task_DD_L6,2021.2.3,MacIntel,60.0024001,,,,,,,,,,,0.6515,1,,,,,,,,,,,,,,,,,,,,,,,,0.275227865,-0.117706299,0,0,0,,,,,,,LIZARD,HB,z,y,./images/LIZARDHB.png,,,,,,,,,,,,,,,,,,,,,z,1,0.6515,,,,,,,,0,58,58,128,1
,,,,,,,,,,,,,,,,,5ffefaa56d69025c21c75e77,30,2022-02-12_13h28.59.969,lexical_decision_task_DD_L6,2021.2.3,MacIntel,60.0024001,,,,,,,,,,,0.6403,1,,,,,,,,,,,,,,,,,,,,,,,,0.275227865,-0.117706299,0,0,0,,,,,,,ONION,LB,z,y,./images/ONIONLB.png,,,,,,,,,,,,,,,,,,,,,z,1,0.6403,,,,,,,,0,59,59,135,1
,,,,,,,,,,,,,,,,,5ffefaa56d69025c21c75e77,30,2022-02-12_13h28.59.969,lexical_decision_task_DD_L6,2021.2.3,MacIntel,60.0024001,,,,,,,,,,,0.8977,0,,,,,,,,,,,,,,,,,,,,,,,,0.275227865,-0.117706299,0,0,0,,,,,,,BUBBLE,HB,m,y,./images/BUBBLEHB.png,,,,,,,,,,,,,,,,,,,,,z,0,0.8977,,,,,,,,0,60,60,71,1
,,,,,,,,,,,,,,,,,5ffefaa56d69025c21c75e77,30,2022-02-12_13h28.59.969,lexical_decision_task_DD_L6,2021.2.3,MacIntel,60.0024001,,,,,,,,,,,0.5904,1,,,,,,,,,,,,,,,,,,,,,,,,0.275227865,-0.117706299,0,0,0,,,,,,,BIRTH,C,z,y,./images/BIRTH.png,,,,,,,,,,,,,,,,,,,,,z,1,0.5904,,,,,,,,0,61,61,121,1
,,,,,,,,,,,,,,,,,5ffefaa56d69025c21c75e77,30,2022-02-12_13h28.59.969,lexical_decision_task_DD_L6,2021.2.3,MacIntel,60.0024001,,,,,,,,,,,0.6007,1,,,,,,,,,,,,,,,,,,,,,,,,0.275227865,-0.117706299,0,0,0,,,,,,,BELLY,C,z,y,./images/BELLY.png,,,,,,,,,,,,,,,,,,,,,z,1,0.6007,,,,,,,,0,62,62,94,1
,,,,,,,,,,,,,,,,,5ffefaa56d69025c21c75e77,30,2022-02-12_13h28.59.969,lexical_decision_task_DD_L6,2021.2.3,MacIntel,60.0024001,,,,,,,,,,,0.5977,1,,,,,,,,,,,,,,,,,,,,,,,,0.275227865,-0.117706299,0,0,0,,,,,,,GRAPE,C,m,y,./images/GRAPE.png,,,,,,,,,,,,,,,,,,,,,m,1,0.5977,,,,,,,,0,63,63,16,1
,,,,,,,,,,,,,,,,,5ffefaa56d69025c21c75e77,30,2022-02-12_13h28.59.969,lexical_decision_task_DD_L6,2021.2.3,MacIntel,60.0024001,,,,,,,,,,,0.6476,1,,,,,,,,,,,,,,,,,,,,,,,,0.275227865,-0.117706299,0,0,0,,,,,,,WEASEL,HB,z,y,./images/WEASELHB.png,,,,,,,,,,,,,,,,,,,,,z,1,0.6476,,,,,,,,0,64,64,164,1
,,,,,,,,,,,,,,,,,5ffefaa56d69025c21c75e77,30,2022-02-12_13h28.59.969,lexical_decision_task_DD_L6,2021.2.3,MacIntel,60.0024001,,,,,,,,,,,0.9015,1,,,,,,,,,,,,,,,,,,,,,,,,0.275227865,-0.117706299,0,0,0,,,,,,,CANOE,C,m,y,./images/CANOE.png,,,,,,,,,,,,,,,,,,,,,m,1,0.9015,,,,,,,,0,65,65,58,1
,,,,,,,,,,,,,,,,,5ffefaa56d69025c21c75e77,30,2022-02-12_13h28.59.969,lexical_decision_task_DD_L6,2021.2.3,MacIntel,60.0024001,,,,,,,,,,,0.6487,1,,,,,,,,,,,,,,,,,,,,,,,,0.275227865,-0.117706299,0,0,0,,,,,,,NOOSE,LB,z,y,./images/NOOSELB.png,,,,,,,,,,,,,,,,,,,,,z,1,0.6487,,,,,,,,0,66,66,156,1
,,,,,,,,,,,,,,,,,5ffefaa56d69025c21c75e77,30,2022-02-12_13h28.59.969,lexical_decision_task_DD_L6,2021.2.3,MacIntel,60.0024001,,,,,,,,,,,0.5853,0,,,,,,,,,,,,,,,,,,,,,,,,0.275227865,-0.117706299,0,0,0,,,,,,,BLOKE,LB,m,y,./images/BLOKELB.png,,,,,,,,,,,,,,,,,,,,,z,0,0.5853,,,,,,,,0,67,67,12,1
,,,,,,,,,,,,,,,,,5ffefaa56d69025c21c75e77,30,2022-02-12_13h28.59.969,lexical_decision_task_DD_L6,2021.2.3,MacIntel,60.0024001,,,,,,,,,,,0.6182,1,,,,,,,,,,,,,,,,,,,,,,,,0.275227865,-0.117706299,0,0,0,,,,,,,SAILOR,C,z,y,./images/SAILOR.png,,,,,,,,,,,,,,,,,,,,,z,1,0.6182,,,,,,,,0,68,68,151,1
,,,,,,,,,,,,,,,,,5ffefaa56d69025c21c75e77,30,2022-02-12_13h28.59.969,lexical_decision_task_DD_L6,2021.2.3,MacIntel,60.0024001,,,,,,,,,,,0.815,0,,,,,,,,,,,,,,,,,,,,,,,,0.275227865,-0.117706299,0,0,0,,,,,,,COUCH,HB,z,y,./images/COUCHHB.png,,,,,,,,,,,,,,,,,,,,,m,0,0.815,,,,,,,,0,69,69,161,1
,,,,,,,,,,,,,,,,,5ffefaa56d69025c21c75e77,30,2022-02-12_13h28.59.969,lexical_decision_task_DD_L6,2021.2.3,MacIntel,60.0024001,,,,,,,,,,,0.6548,1,,,,,,,,,,,,,,,,,,,,,,,,0.275227865,-0.117706299,0,0,0,,,,,,,BANNER,C,z,y,./images/BANNER.png,,,,,,,,,,,,,,,,,,,,,z,1,0.6548,,,,,,,,0,70,70,136,1
,,,,,,,,,,,,,,,,,5ffefaa56d69025c21c75e77,30,2022-02-12_13h28.59.969,lexical_decision_task_DD_L6,2021.2.3,MacIntel,60.0024001,,,,,,,,,,,0.5663,1,,,,,,,,,,,,,,,,,,,,,,,,0.275227865,-0.117706299,0,0,0,,,,,,,PURSE,HB,z,y,./images/PURSEHB.png,,,,,,,,,,,,,,,,,,,,,z,1,0.5663,,,,,,,,0,71,71,146,1
,,,,,,,,,,,,,,,,,5ffefaa56d69025c21c75e77,30,2022-02-12_13h28.59.969,lexical_decision_task_DD_L6,2021.2.3,MacIntel,60.0024001,,,,,,,,,,,0.6531,1,,,,,,,,,,,,,,,,,,,,,,,,0.275227865,-0.117706299,0,0,0,,,,,,,PLANK,C,z,y,./images/PLANK.png,,,,,,,,,,,,,,,,,,,,,z,1,0.6531,,,,,,,,0,72,72,85,1
,,,,,,,,,,,,,,,,,5ffefaa56d69025c21c75e77,30,2022-02-12_13h28.59.969,lexical_decision_task_DD_L6,2021.2.3,MacIntel,60.0024001,,,,,,,,,,,0.6157,0,,,,,,,,,,,,,,,,,,,,,,,,0.275227865,-0.117706299,0,0,0,,,,,,,PLANET,HB,m,y,./images/PLANETHB.png,,,,,,,,,,,,,,,,,,,,,z,0,0.6157,,,,,,,,0,73,73,80,1
,,,,,,,,,,,,,,,,,5ffefaa56d69025c21c75e77,30,2022-02-12_13h28.59.969,lexical_decision_task_DD_L6,2021.2.3,MacIntel,60.0024001,,,,,,,,,,,0.6186,0,,,,,,,,,,,,,,,,,,,,,,,,0.275227865,-0.117706299,0,0,0,,,,,,,SHORE,LB,z,y,./images/SHORELB.png,,,,,,,,,,,,,,,,,,,,,m,0,0.6186,,,,,,,,0,74,74,96,1
,,,,,,,,,,,,,,,,,5ffefaa56d69025c21c75e77,30,2022-02-12_13h28.59.969,lexical_decision_task_DD_L6,2021.2.3,MacIntel,60.0024001,,,,,,,,,,,0.7364,0,,,,,,,,,,,,,,,,,,,,,,,,0.275227865,-0.117706299,0,0,0,,,,,,,MELON,C,z,y,./images/MELON.png,,,,,,,,,,,,,,,,,,,,,m,0,0.7364,,,,,,,,0,75,75,106,1
,,,,,,,,,,,,,,,,,5ffefaa56d69025c21c75e77,30,2022-02-12_13h28.59.969,lexical_decision_task_DD_L6,2021.2.3,MacIntel,60.0024001,,,,,,,,,,,0.834,0,,,,,,,,,,,,,,,,,,,,,,,,0.275227865,-0.117706299,0,0,0,,,,,,,KITTEN,LB,z,y,./images/KITTENLB.png,,,,,,,,,,,,,,,,,,,,,m,0,0.834,,,,,,,,0,76,76,129,1
,,,,,,,,,,,,,,,,,5ffefaa56d69025c21c75e77,30,2022-02-12_13h28.59.969,lexical_decision_task_DD_L6,2021.2.3,MacIntel,60.0024001,,,,,,,,,,,0.659,1,,,,,,,,,,,,,,,,,,,,,,,,0.275227865,-0.117706299,0,0,0,,,,,,,FLASK,LB,m,y,./images/FLASKLB.png,,,,,,,,,,,,,,,,,,,,,m,1,0.659,,,,,,,,0,77,77,72,1
,,,,,,,,,,,,,,,,,5ffefaa56d69025c21c75e77,30,2022-02-12_13h28.59.969,lexical_decision_task_DD_L6,2021.2.3,MacIntel,60.0024001,,,,,,,,,,,0.6232,1,,,,,,,,,,,,,,,,,,,,,,,,0.275227865,-0.117706299,0,0,0,,,,,,,ARROW,LB,m,y,./images/ARROWLB.png,,,,,,,,,,,,,,,,,,,,,m,1,0.6232,,,,,,,,0,78,78,69,1
,,,,,,,,,,,,,,,,,5ffefaa56d69025c21c75e77,30,2022-02-12_13h28.59.969,lexical_decision_task_DD_L6,2021.2.3,MacIntel,60.0024001,,,,,,,,,,,0.9818,0,,,,,,,,,,,,,,,,,,,,,,,,0.275227865,-0.117706299,0,0,0,,,,,,,CEMENT,HB,z,y,./images/CEMENTHB.png,,,,,,,,,,,,,,,,,,,,,m,0,0.9818,,,,,,,,0,79,79,158,1
,,,,,,,,,,,,,,,,,5ffefaa56d69025c21c75e77,30,2022-02-12_13h28.59.969,lexical_decision_task_DD_L6,2021.2.3,MacIntel,60.0024001,,,,,,,,,,,0.8495,0,,,,,,,,,,,,,,,,,,,,,,,,0.275227865,-0.117706299,0,0,0,,,,,,,GARDEN,C,m,y,./images/GARDEN.png,,,,,,,,,,,,,,,,,,,,,z,0,0.8495,,,,,,,,0,80,80,10,1
,,,,,,,,,,,,,,,,,5ffefaa56d69025c21c75e77,30,2022-02-12_13h28.59.969,lexical_decision_task_DD_L6,2021.2.3,MacIntel,60.0024001,,,,,,,,,,,0.64,1,,,,,,,,,,,,,,,,,,,,,,,,0.275227865,-0.117706299,0,0,0,,,,,,,STAIN,LB,m,y,./images/STAINLB.png,,,,,,,,,,,,,,,,,,,,,m,1,0.64,,,,,,,,0,81,81,6,1
,,,,,,,,,,,,,,,,,5ffefaa56d69025c21c75e77,30,2022-02-12_13h28.59.969,lexical_decision_task_DD_L6,2021.2.3,MacIntel,60.0024001,,,,,,,,,,,0.7158,1,,,,,,,,,,,,,,,,,,,,,,,,0.275227865,-0.117706299,0,0,0,,,,,,,PASTA,HB,z,y,./images/PASTAHB.png,,,,,,,,,,,,,,,,,,,,,z,1,0.7158,,,,,,,,0,82,82,89,1
,,,,,,,,,,,,,,,,,5ffefaa56d69025c21c75e77,30,2022-02-12_13h28.59.969,lexical_decision_task_DD_L6,2021.2.3,MacIntel,60.0024001,,,,,,,,,,,0.7366,1,,,,,,,,,,,,,,,,,,,,,,,,0.275227865,-0.117706299,0,0,0,space,,,,,,ALLEY,C,m,y,./images/ALLEY.png,1.0925,,,,,,,,,,,,,,,,,,,,m,1,0.7366,,,,,,,,0,83,83,55,1
,,,,,,,,,,,,,,,,,5ffefaa56d69025c21c75e77,30,2022-02-12_13h28.59.969,lexical_decision_task_DD_L6,2021.2.3,MacIntel,60.0024001,,,,,,,,,,,0.9482,0,,,,,,,,,,,,,,,,,,,,,,,,0.275227865,-0.117706299,0,0,0,,,,,,,GREASE,LB,z,y,./images/GREASELB.png,,,,,,,,,,,,,,,,,,,,,m,0,0.9482,,,,,,,,0,84,84,99,1
,,,,,,,,,,,,,,,,,5ffefaa56d69025c21c75e77,30,2022-02-12_13h28.59.969,lexical_decision_task_DD_L6,2021.2.3,MacIntel,60.0024001,,,,,,,,,,,0.6998,1,,,,,,,,,,,,,,,,,,,,,,,,0.275227865,-0.117706299,0,0,0,,,,,,,BRIDE,C,m,y,./images/BRIDE.png,,,,,,,,,,,,,,,,,,,,,m,1,0.6998,,,,,,,,0,85,85,64,1
,,,,,,,,,,,,,,,,,5ffefaa56d69025c21c75e77,30,2022-02-12_13h28.59.969,lexical_decision_task_DD_L6,2021.2.3,MacIntel,60.0024001,,,,,,,,,,,0.6325,1,,,,,,,,,,,,,,,,,,,,,,,,0.275227865,-0.117706299,0,0,0,,,,,,,QUILL,C,z,y,./images/QUILL.png,,,,,,,,,,,,,,,,,,,,,z,1,0.6325,,,,,,,,0,86,86,115,1
,,,,,,,,,,,,,,,,,5ffefaa56d69025c21c75e77,30,2022-02-12_13h28.59.969,lexical_decision_task_DD_L6,2021.2.3,MacIntel,60.0024001,,,,,,,,,,,0.9008,0,,,,,,,,,,,,,,,,,,,,,,,,0.275227865,-0.117706299,0,0,0,,,,,,,HAMMER,LB,m,y,./images/HAMMERLB.png,,,,,,,,,,,,,,,,,,,,,z,0,0.9008,,,,,,,,0,87,87,75,1
,,,,,,,,,,,,,,,,,5ffefaa56d69025c21c75e77,30,2022-02-12_13h28.59.969,lexical_decision_task_DD_L6,2021.2.3,MacIntel,60.0024001,,,,,,,,,,,0.5654,1,,,,,,,,,,,,,,,,,,,,,,,,0.275227865,-0.117706299,0,0,0,,,,,,,CLOWN,C,m,y,./images/CLOWN.png,,,,,,,,,,,,,,,,,,,,,m,1,0.5654,,,,,,,,0,88,88,22,1
,,,,,,,,,,,,,,,,,5ffefaa56d69025c21c75e77,30,2022-02-12_13h28.59.969,lexical_decision_task_DD_L6,2021.2.3,MacIntel,60.0024001,,,,,,,,,,,0.7169,1,,,,,,,,,,,,,,,,,,,,,,,,0.275227865,-0.117706299,0,0,0,,,,,,,POODLE,LB,z,y,./images/POODLELB.png,,,,,,,,,,,,,,,,,,,,,z,1,0.7169,,,,,,,,0,89,89,165,1
,,,,,,,,,,,,,,,,,5ffefaa56d69025c21c75e77,30,2022-02-12_13h28.59.969,lexical_decision_task_DD_L6,2021.2.3,MacIntel,60.0024001,,,,,,,,,,,0.6293,1,,,,,,,,,,,,,,,,,,,,,,,,0.275227865,-0.117706299,0,0,0,,,,,,,DONKEY,C,m,y,./images/DONKEY.png,,,,,,,,,,,,,,,,,,,,,m,1,0.6293,,,,,,,,0,90,90,19,1
,,,,,,,,,,,,,,,,,5ffefaa56d69025c21c75e77,30,2022-02-12_13h28.59.969,lexical_decision_task_DD_L6,2021.2.3,MacIntel,60.0024001,,,,,,,,,,,0.688,1,,,,,,,,,,,,,,,,,,,,,,,,0.275227865,-0.117706299,0,0,0,,,,,,,JUMPER,HB,m,y,./images/JUMPERHB.png,,,,,,,,,,,,,,,,,,,,,m,1,0.688,,,,,,,,0,91,91,74,1
,,,,,,,,,,,,,,,,,5ffefaa56d69025c21c75e77,30,2022-02-12_13h28.59.969,lexical_decision_task_DD_L6,2021.2.3,MacIntel,60.0024001,,,,,,,,,,,0.6994,1,,,,,,,,,,,,,,,,,,,,,,,,0.275227865,-0.117706299,0,0,0,,,,,,,STREAM,HB,m,y,./images/STREAMHB.png,,,,,,,,,,,,,,,,,,,,,m,1,0.6994,,,,,,,,0,92,92,41,1
,,,,,,,,,,,,,,,,,5ffefaa56d69025c21c75e77,30,2022-02-12_13h28.59.969,lexical_decision_task_DD_L6,2021.2.3,MacIntel,60.0024001,,,,,,,,,,,0.6832,1,,,,,,,,,,,,,,,,,,,,,,,,0.275227865,-0.117706299,0,0,0,,,,,,,STEAK,C,m,y,./images/STEAK.png,,,,,,,,,,,,,,,,,,,,,m,1,0.6832,,,,,,,,0,93,93,31,1
,,,,,,,,,,,,,,,,,5ffefaa56d69025c21c75e77,30,2022-02-12_13h28.59.969,lexical_decision_task_DD_L6,2021.2.3,MacIntel,60.0024001,,,,,,,,,,,0.7223,1,,,,,,,,,,,,,,,,,,,,,,,,0.275227865,-0.117706299,0,0,0,,,,,,,CRUST,C,z,y,./images/CRUST.png,,,,,,,,,,,,,,,,,,,,,z,1,0.7223,,,,,,,,0,94,94,163,1
,,,,,,,,,,,,,,,,,5ffefaa56d69025c21c75e77,30,2022-02-12_13h28.59.969,lexical_decision_task_DD_L6,2021.2.3,MacIntel,60.0024001,,,,,,,,,,,0.7324,1,,,,,,,,,,,,,,,,,,,,,,,,0.275227865,-0.117706299,0,0,0,,,,,,,FENCE,HB,m,y,./images/FENCEHB.png,,,,,,,,,,,,,,,,,,,,,m,1,0.7324,,,,,,,,0,95,95,14,1
,,,,,,,,,,,,,,,,,5ffefaa56d69025c21c75e77,30,2022-02-12_13h28.59.969,lexical_decision_task_DD_L6,2021.2.3,MacIntel,60.0024001,,,,,,,,,,,0.6733,0,,,,,,,,,,,,,,,,,,,,,,,,0.275227865,-0.117706299,0,0,0,,,,,,,COOKER,LB,z,y,./images/COOKERLB.png,,,,,,,,,,,,,,,,,,,,,m,0,0.6733,,,,,,,,0,96,96,153,1
,,,,,,,,,,,,,,,,,5ffefaa56d69025c21c75e77,30,2022-02-12_13h28.59.969,lexical_decision_task_DD_L6,2021.2.3,MacIntel,60.0024001,,,,,,,,,,,0.7302,1,,,,,,,,,,,,,,,,,,,,,,,,0.275227865,-0.117706299,0,0,0,,,,,,,CRADLE,HB,z,y,./images/CRADLEHB.png,,,,,,,,,,,,,,,,,,,,,z,1,0.7302,,,,,,,,0,97,97,104,1
,,,,,,,,,,,,,,,,,5ffefaa56d69025c21c75e77,30,2022-02-12_13h28.59.969,lexical_decision_task_DD_L6,2021.2.3,MacIntel,60.0024001,,,,,,,,,,,0.6834,1,,,,,,,,,,,,,,,,,,,,,,,,0.275227865,-0.117706299,0,0,0,,,,,,,WRIST,C,z,y,./images/WRIST.png,,,,,,,,,,,,,,,,,,,,,z,1,0.6834,,,,,,,,0,98,98,109,1
,,,,,,,,,,,,,,,,,5ffefaa56d69025c21c75e77,30,2022-02-12_13h28.59.969,lexical_decision_task_DD_L6,2021.2.3,MacIntel,60.0024001,,,,,,,,,,,0.5837,1,,,,,,,,,,,,,,,,,,,,,,,,0.275227865,-0.117706299,0,0,0,,,,,,,FINGER,LB,z,y,./images/FINGERLB.png,,,,,,,,,,,,,,,,,,,,,z,1,0.5837,,,,,,,,0,99,99,87,1
,,,,,,,,,,,,,,,,,5ffefaa56d69025c21c75e77,30,2022-02-12_13h28.59.969,lexical_decision_task_DD_L6,2021.2.3,MacIntel,60.0024001,,,,,,,,,,,0.7696,0,,,,,,,,,,,,,,,,,,,,,,,,0.275227865,-0.117706299,0,0,0,,,,,,,LADDER,HB,z,y,./images/LADDERHB.png,,,,,,,,,,,,,,,,,,,,,m,0,0.7696,,,,,,,,0,100,100,122,1
,,,,,,,,,,,,,,,,,5ffefaa56d69025c21c75e77,30,2022-02-12_13h28.59.969,lexical_decision_task_DD_L6,2021.2.3,MacIntel,60.0024001,,,,,,,,,,,0.7374,1,,,,,,,,,,,,,,,,,,,,,,,,0.275227865,-0.117706299,0,0,0,,,,,,,MOOSE,LB,z,y,./images/MOOSELB.png,,,,,,,,,,,,,,,,,,,,,z,1,0.7374,,,,,,,,0,101,101,141,1
,,,,,,,,,,,,,,,,,5ffefaa56d69025c21c75e77,30,2022-02-12_13h28.59.969,lexical_decision_task_DD_L6,2021.2.3,MacIntel,60.0024001,,,,,,,,,,,0.6295,1,,,,,,,,,,,,,,,,,,,,,,,,0.275227865,-0.117706299,0,0,0,,,,,,,BROOM,LB,m,y,./images/BROOMLB.png,,,,,,,,,,,,,,,,,,,,,m,1,0.6295,,,,,,,,0,102,102,78,1
,,,,,,,,,,,,,,,,,5ffefaa56d69025c21c75e77,30,2022-02-12_13h28.59.969,lexical_decision_task_DD_L6,2021.2.3,MacIntel,60.0024001,,,,,,,,,,,0.6476,0,,,,,,,,,,,,,,,,,,,,,,,,0.275227865,-0.117706299,0,0,0,,,,,,,BURIAL,HB,z,y,./images/BURIALHB.png,,,,,,,,,,,,,,,,,,,,,m,0,0.6476,,,,,,,,0,103,103,143,1
,,,,,,,,,,,,,,,,,5ffefaa56d69025c21c75e77,30,2022-02-12_13h28.59.969,lexical_decision_task_DD_L6,2021.2.3,MacIntel,60.0024001,,,,,,,,,,,0.6473,0,,,,,,,,,,,,,,,,,,,,,,,,0.275227865,-0.117706299,0,0,0,,,,,,,FARMER,HB,z,y,./images/FARMERHB.png,,,,,,,,,,,,,,,,,,,,,m,0,0.6473,,,,,,,,0,104,104,149,1
,,,,,,,,,,,,,,,,,5ffefaa56d69025c21c75e77,30,2022-02-12_13h28.59.969,lexical_decision_task_DD_L6,2021.2.3,MacIntel,60.0024001,,,,,,,,,,,0.5827,1,,,,,,,,,,,,,,,,,,,,,,,,0.275227865,-0.117706299,0,0,0,,,,,,,TRIPOD,LB,z,y,./images/TRIPODLB.png,,,,,,,,,,,,,,,,,,,,,z,1,0.5827,,,,,,,,0,105,105,138,1
,,,,,,,,,,,,,,,,,5ffefaa56d69025c21c75e77,30,2022-02-12_13h28.59.969,lexical_decision_task_DD_L6,2021.2.3,MacIntel,60.0024001,,,,,,,,,,,0.8353,1,,,,,,,,,,,,,,,,,,,,,,,,0.275227865,-0.117706299,0,0,0,,,,,,,PARADE,HB,m,y,./images/PARADEHB.png,,,,,,,,,,,,,,,,,,,,,m,1,0.8353,,,,,,,,0,106,106,17,1
,,,,,,,,,,,,,,,,,5ffefaa56d69025c21c75e77,30,2022-02-12_13h28.59.969,lexical_decision_task_DD_L6,2021.2.3,MacIntel,60.0024001,,,,,,,,,,,0.688,0,,,,,,,,,,,,,,,,,,,,,,,,0.275227865,-0.117706299,0,0,0,,,,,,,LLAMA,HB,m,y,./images/LLAMAHB.png,,,,,,,,,,,,,,,,,,,,,z,0,0.688,,,,,,,,0,107,107,35,1
,,,,,,,,,,,,,,,,,5ffefaa56d69025c21c75e77,30,2022-02-12_13h28.59.969,lexical_decision_task_DD_L6,2021.2.3,MacIntel,60.0024001,,,,,,,,,,,0.8464,1,,,,,,,,,,,,,,,,,,,,,,,,0.275227865,-0.117706299,0,0,0,,,,,,,SAUCE,LB,m,y,./images/SAUCELB.png,,,,,,,,,,,,,,,,,,,,,m,1,0.8464,,,,,,,,0,108,108,51,1
,,,,,,,,,,,,,,,,,5ffefaa56d69025c21c75e77,30,2022-02-12_13h28.59.969,lexical_decision_task_DD_L6,2021.2.3,MacIntel,60.0024001,,,,,,,,,,,0.7905,1,,,,,,,,,,,,,,,,,,,,,,,,0.275227865,-0.117706299,0,0,0,,,,,,,TIGER,C,m,y,./images/TIGER.png,,,,,,,,,,,,,,,,,,,,,m,1,0.7905,,,,,,,,0,109,109,37,1
,,,,,,,,,,,,,,,,,5ffefaa56d69025c21c75e77,30,2022-02-12_13h28.59.969,lexical_decision_task_DD_L6,2021.2.3,MacIntel,60.0024001,,,,,,,,,,,1.0022,1,,,,,,,,,,,,,,,,,,,,,,,,0.275227865,-0.117706299,0,0,0,,,,,,,POSTER,HB,m,y,./images/POSTERHB.png,,,,,,,,,,,,,,,,,,,,,m,1,1.0022,,,,,,,,0,110,110,53,1
,,,,,,,,,,,,,,,,,5ffefaa56d69025c21c75e77,30,2022-02-12_13h28.59.969,lexical_decision_task_DD_L6,2021.2.3,MacIntel,60.0024001,,,,,,,,,,,0.733,1,,,,,,,,,,,,,,,,,,,,,,,,0.275227865,-0.117706299,0,0,0,,,,,,,CANYON,C,z,y,./images/CANYON.png,,,,,,,,,,,,,,,,,,,,,z,1,0.733,,,,,,,,0,111,111,118,1
,,,,,,,,,,,,,,,,,5ffefaa56d69025c21c75e77,30,2022-02-12_13h28.59.969,lexical_decision_task_DD_L6,2021.2.3,MacIntel,60.0024001,,,,,,,,,,,0.8145,1,,,,,,,,,,,,,,,,,,,,,,,,0.275227865,-0.117706299,0,0,0,,,,,,,LITTER,LB,z,y,./images/LITTERLB.png,,,,,,,,,,,,,,,,,,,,,z,1,0.8145,,,,,,,,0,112,112,162,1
,,,,,,,,,,,,,,,,,5ffefaa56d69025c21c75e77,30,2022-02-12_13h28.59.969,lexical_decision_task_DD_L6,2021.2.3,MacIntel,60.0024001,,,,,,,,,,,0.8385,1,,,,,,,,,,,,,,,,,,,,,,,,0.275227865,-0.117706299,0,0,0,,,,,,,WALRUS,HB,z,y,./images/WALRUSHB.png,,,,,,,,,,,,,,,,,,,,,z,1,0.8385,,,,,,,,0,113,113,107,1
,,,,,,,,,,,,,,,,,5ffefaa56d69025c21c75e77,30,2022-02-12_13h28.59.969,lexical_decision_task_DD_L6,2021.2.3,MacIntel,60.0024001,,,,,,,,,,,0.7317,1,,,,,,,,,,,,,,,,,,,,,,,,0.275227865,-0.117706299,0,0,0,,,,,,,INFANT,C,z,y,./images/INFANT.png,,,,,,,,,,,,,,,,,,,,,z,1,0.7317,,,,,,,,0,114,114,160,1
,,,,,,,,,,,,,,,,,5ffefaa56d69025c21c75e77,30,2022-02-12_13h28.59.969,lexical_decision_task_DD_L6,2021.2.3,MacIntel,60.0024001,,,,,,,,,,,0.6318,1,,,,,,,,,,,,,,,,,,,,,,,,0.275227865,-0.117706299,0,0,0,,,,,,,SWING,C,z,y,./images/SWING.png,,,,,,,,,,,,,,,,,,,,,z,1,0.6318,,,,,,,,0,115,115,124,1
,,,,,,,,,,,,,,,,,5ffefaa56d69025c21c75e77,30,2022-02-12_13h28.59.969,lexical_decision_task_DD_L6,2021.2.3,MacIntel,60.0024001,,,,,,,,,,,0.8661,0,,,,,,,,,,,,,,,,,,,,,,,,0.275227865,-0.117706299,0,0,0,,,,,,,BOILER,LB,m,y,./images/BOILERLB.png,,,,,,,,,,,,,,,,,,,,,z,0,0.8661,,,,,,,,0,116,116,36,1
,,,,,,,,,,,,,,,,,5ffefaa56d69025c21c75e77,30,2022-02-12_13h28.59.969,lexical_decision_task_DD_L6,2021.2.3,MacIntel,60.0024001,,,,,,,,,,,0.6668,1,,,,,,,,,,,,,,,,,,,,,,,,0.275227865,-0.117706299,0,0,0,,,,,,,WAGON,C,m,y,./images/WAGON.png,,,,,,,,,,,,,,,,,,,,,m,1,0.6668,,,,,,,,0,117,117,7,1
,,,,,,,,,,,,,,,,,5ffefaa56d69025c21c75e77,30,2022-02-12_13h28.59.969,lexical_decision_task_DD_L6,2021.2.3,MacIntel,60.0024001,,,,,,,,,,,0.9663,1,,,,,,,,,,,,,,,,,,,,,,,,0.275227865,-0.117706299,0,0,0,,,,,,,SMOKER,HB,z,y,./images/SMOKERHB.png,,,,,,,,,,,,,,,,,,,,,z,1,0.9663,,,,,,,,0,118,118,110,1
,,,,,,,,,,,,,,,,,5ffefaa56d69025c21c75e77,30,2022-02-12_13h28.59.969,lexical_decision_task_DD_L6,2021.2.3,MacIntel,60.0024001,,,,,,,,,,,0.7041,0,,,,,,,,,,,,,,,,,,,,,,,,0.275227865,-0.117706299,0,0,0,,,,,,,SHIELD,LB,m,y,./images/SHIELDLB.png,,,,,,,,,,,,,,,,,,,,,z,0,0.7041,,,,,,,,0,119,119,48,1
,,,,,,,,,,,,,,,,,5ffefaa56d69025c21c75e77,30,2022-02-12_13h28.59.969,lexical_decision_task_DD_L6,2021.2.3,MacIntel,60.0024001,,,,,,,,,,,0.7379,1,,,,,,,,,,,,,,,,,,,,,,,,0.275227865,-0.117706299,0,0,0,,,,,,,JAGUAR,LB,z,y,./images/JAGUARLB.png,,,,,,,,,,,,,,,,,,,,,z,1,0.7379,,,,,,,,0,120,120,102,1
,,,,,,,,,,,,,,,,,5ffefaa56d69025c21c75e77,30,2022-02-12_13h28.59.969,lexical_decision_task_DD_L6,2021.2.3,MacIntel,60.0024001,,,,,,,,,,,0.6077,0,,,,,,,,,,,,,,,,,,,,,,,,0.275227865,-0.117706299,0,0,0,,,,,,,MIDGET,C,m,y,./images/MIDGET.png,,,,,,,,,,,,,,,,,,,,,z,0,0.6077,,,,,,,,0,121,121,76,1
,,,,,,,,,,,,,,,,,5ffefaa56d69025c21c75e77,30,2022-02-12_13h28.59.969,lexical_decision_task_DD_L6,2021.2.3,MacIntel,60.0024001,,,,,,,,,,,0.7214,0,,,,,,,,,,,,,,,,,,,,,,,,0.275227865,-0.117706299,0,0,0,,,,,,,PEARL,C,z,y,./images/PEARL.png,,,,,,,,,,,,,,,,,,,,,m,0,0.7214,,,,,,,,0,122,122,130,1
,,,,,,,,,,,,,,,,,5ffefaa56d69025c21c75e77,30,2022-02-12_13h28.59.969,lexical_decision_task_DD_L6,2021.2.3,MacIntel,60.0024001,,,,,,,,,,,0.64,1,,,,,,,,,,,,,,,,,,,,,,,,0.275227865,-0.117706299,0,0,0,,,,,,,SPORT,LB,z,y,./images/SPORTLB.png,,,,,,,,,,,,,,,,,,,,,z,1,0.64,,,,,,,,0,123,123,132,1
,,,,,,,,,,,,,,,,,5ffefaa56d69025c21c75e77,30,2022-02-12_13h28.59.969,lexical_decision_task_DD_L6,2021.2.3,MacIntel,60.0024001,,,,,,,,,,,0.8316,0,,,,,,,,,,,,,,,,,,,,,,,,0.275227865,-0.117706299,0,0,0,,,,,,,PEACH,HB,z,y,./images/PEACHHB.png,,,,,,,,,,,,,,,,,,,,,m,0,0.8316,,,,,,,,0,124,124,119,1
,,,,,,,,,,,,,,,,,5ffefaa56d69025c21c75e77,30,2022-02-12_13h28.59.969,lexical_decision_task_DD_L6,2021.2.3,MacIntel,60.0024001,,,,,,,,,,,0.7682,1,,,,,,,,,,,,,,,,,,,,,,,,0.275227865,-0.117706299,0,0,0,space,,,,,,DRUMS,C,z,y,./images/DRUMS.png,0.9232,,,,,,,,,,,,,,,,,,,,z,1,0.7682,,,,,,,,0,125,125,133,1
,,,,,,,,,,,,,,,,,5ffefaa56d69025c21c75e77,30,2022-02-12_13h28.59.969,lexical_decision_task_DD_L6,2021.2.3,MacIntel,60.0024001,,,,,,,,,,,0.6383,1,,,,,,,,,,,,,,,,,,,,,,,,0.275227865,-0.117706299,0,0,0,,,,,,,CASINO,C,m,y,./images/CASINO.png,,,,,,,,,,,,,,,,,,,,,m,1,0.6383,,,,,,,,0,126,126,28,1
,,,,,,,,,,,,,,,,,5ffefaa56d69025c21c75e77,30,2022-02-12_13h28.59.969,lexical_decision_task_DD_L6,2021.2.3,MacIntel,60.0024001,,,,,,,,,,,0.6144,1,,,,,,,,,,,,,,,,,,,,,,,,0.275227865,-0.117706299,0,0,0,,,,,,,URINE,C,z,y,./images/URINE.png,,,,,,,,,,,,,,,,,,,,,z,1,0.6144,,,,,,,,0,127,127,154,1
,,,,,,,,,,,,,,,,,5ffefaa56d69025c21c75e77,30,2022-02-12_13h28.59.969,lexical_decision_task_DD_L6,2021.2.3,MacIntel,60.0024001,,,,,,,,,,,0.6828,1,,,,,,,,,,,,,,,,,,,,,,,,0.275227865,-0.117706299,0,0,0,,,,,,,BAKER,LB,m,y,./images/BAKERLB.png,,,,,,,,,,,,,,,,,,,,,m,1,0.6828,,,,,,,,0,128,128,63,1
,,,,,,,,,,,,,,,,,5ffefaa56d69025c21c75e77,30,2022-02-12_13h28.59.969,lexical_decision_task_DD_L6,2021.2.3,MacIntel,60.0024001,,,,,,,,,,,0.6165,0,,,,,,,,,,,,,,,,,,,,,,,,0.275227865,-0.117706299,0,0,0,,,,,,,GRANNY,HB,m,y,./images/GRANNYHB.png,,,,,,,,,,,,,,,,,,,,,z,0,0.6165,,,,,,,,0,129,129,20,1
,,,,,,,,,,,,,,,,,5ffefaa56d69025c21c75e77,30,2022-02-12_13h28.59.969,lexical_decision_task_DD_L6,2021.2.3,MacIntel,60.0024001,,,,,,,,,,,0.5988,1,,,,,,,,,,,,,,,,,,,,,,,,0.275227865,-0.117706299,0,0,0,,,,,,,SAUNA,LB,m,y,./images/SAUNALB.png,,,,,,,,,,,,,,,,,,,,,m,1,0.5988,,,,,,,,0,130,130,33,1
