key_resp.keys,key_resp.rt,instr_done_touch.x,instr_done_touch.y,instr_done_touch.leftButton,instr_done_touch.midButton,instr_done_touch.rightButton,instruction_pages.thisRepN,instruction_pages.thisTrialN,instruction_pages.thisN,instruction_pages.thisIndex,instruction_pages.ran,pageN,phase,instruct_text,has_image,instruct_image,participant,age,date,expName,psychopyVersion,OS,frameRate,response.keys,response.corr,response.rt,touch_resp.x,touch_resp.y,touch_resp.leftButton,touch_resp.midButton,touch_resp.rightButton,touch_resp.time,touch_resp.clicked_name,rt,corr,practrials.thisRepN,practrials.thisTrialN,practrials.thisN,practrials.thisIndex,practrials.ran,TrialID,Target,corrAns,end_of_practice_trials_pages.thisRepN,end_of_practice_trials_pages.thisTrialN,end_of_practice_trials_pages.thisN,end_of_practice_trials_pages.thisIndex,end_of_practice_trials_pages.ran,key_resp_2.keys,key_resp_2.corr,key_resp_2.rt,targ_click.x,targ_click.y,targ_click.leftButton,targ_click.midButton,targ_click.rightButton,targ_click.time,targ_click.clicked_name,break_done_touch.x,break_done_touch.y,break_done_touch.leftButton,break_done_touch.midButton,break_done_touch.rightButton,break_done_keyboard.keys,maintrials.thisRepN,maintrials.thisTrialN,maintrials.thisN,maintrials.thisIndex,maintrials.ran,string,blur,study,lex,stim_path,break_done_keyboard.rt,mouse_2.x,mouse_2.y,mouse_2.leftButton,mouse_2.midButton,mouse_2.rightButton,mouse_2.clicked_name,slider.response,slider.rt,trials.thisRepN,trials.thisTrialN,trials.thisN,trials.thisIndex,trials.ran,test_instructions.thisRepN,test_instructions.thisTrialN,test_instructions.thisN,test_instructions.thisIndex,test_instructions.ran,instr_done_touch.clicked_name,key_resp_3.keys,key_resp_3.corr,key_resp_3.rt,test_click.x,test_click.y,test_click.leftButton,test_click.midButton,test_click.rightButton,test_click.time,test_click.clicked_name,test_phase.thisRepN,test_phase.thisTrialN,test_phase.thisN,test_phase.thisIndex,test_phase.ran
space,15.7224,0.165798611,-0.268025174,0,0,0,0,0,0,0,1,1,instructions,"INSTRUCTIONS
At the start of each trial, look at the plus sign  (+) in the center of the screen.  This tells you that a trial is about to begin and where to look. Second, the plus sign will disappear and a string of letters will appear. Your task is to determine if the string of letters is a word or not. If the item is a word press the M key (on keyboard)  or touch the word button (phone/tablet).  If the item is not a word,  press the  Z key (on keyboard)  or touch the nonword button (on phone/tablet). 
Press the space bar or touch  continue.",0,,60136d792b03b2251aeec5aa,30,2022-02-12_11h44.35.663,lexical_decision_task_DD,2021.2.3,MacIntel,59.99880002,,,,,,,,,,,,,,,,,,,,,,,,,,,,,,,,,,,,,,,,,,,,,,,,,,,,,,,,,,,,,,,,,,,,,,,,,,,,,,,,,,,,,,
space,3.8007,0.157521701,-0.137200521,0,0,0,0,1,1,1,1,2,instructions,"If your device has a keyboard, press the 'Z' key for nonwords and the 'M' key for words.





Press the space bar or touch the button below to continue.",0,keyboard-example.gif,60136d792b03b2251aeec5aa,30,2022-02-12_11h44.35.663,lexical_decision_task_DD,2021.2.3,MacIntel,59.99880002,,,,,,,,,,,,,,,,,,,,,,,,,,,,,,,,,,,,,,,,,,,,,,,,,,,,,,,,,,,,,,,,,,,,,,,,,,,,,,,,,,,,,,
space,1.2043,0.157521701,-0.137200521,0,0,0,0,2,2,2,1,3,instructions,"If you are using a touchscreen only device, use the buttons on the screen. Do not use the mouse.





Press the space bar or touch the button below to continue.",0,touchscreen-example.gif,60136d792b03b2251aeec5aa,30,2022-02-12_11h44.35.663,lexical_decision_task_DD,2021.2.3,MacIntel,59.99880002,,,,,,,,,,,,,,,,,,,,,,,,,,,,,,,,,,,,,,,,,,,,,,,,,,,,,,,,,,,,,,,,,,,,,,,,,,,,,,,,,,,,,,
space,2.3157,0.157521701,-0.137200521,0,0,0,0,3,3,3,1,4,instructions,"It is very important that you respond as quickly and accurately as possible, as each letter string will only be on the screen for two seconds. If you do not respond within this time, the message 'Too slow!' will be displayed and the experiment will progress to the next letter string. The first 20 trials will be practice trials and you will receive feedback on your answers. 

Press the space bar or touch the button below to start the practice trials.",0,,60136d792b03b2251aeec5aa,30,2022-02-12_11h44.35.663,lexical_decision_task_DD,2021.2.3,MacIntel,59.99880002,,,,,,,,,,,,,,,,,,,,,,,,,,,,,,,,,,,,,,,,,,,,,,,,,,,,,,,,,,,,,,,,,,,,,,,,,,,,,,,,,,,,,,
,,,,,,,,,,,,,,,,,60136d792b03b2251aeec5aa,30,2022-02-12_11h44.35.663,lexical_decision_task_DD,2021.2.3,MacIntel,59.99880002,m,1,1.2272,,,,,,,,1.2272,1,0,0,0,5,1,1001,OBTAIN,m,,,,,,,,,,,,,,,,,,,,,,,,,,,,,,,,,,,,,,,,,,,,,,,,,,,,,,,,,,,,,,,,,,
,,,,,,,,,,,,,,,,,60136d792b03b2251aeec5aa,30,2022-02-12_11h44.35.663,lexical_decision_task_DD,2021.2.3,MacIntel,59.99880002,m,1,1.0034,,,,,,,,1.0034,1,0,1,1,4,1,1001,SQUEAK,m,,,,,,,,,,,,,,,,,,,,,,,,,,,,,,,,,,,,,,,,,,,,,,,,,,,,,,,,,,,,,,,,,,
,,,,,,,,,,,,,,,,,60136d792b03b2251aeec5aa,30,2022-02-12_11h44.35.663,lexical_decision_task_DD,2021.2.3,MacIntel,59.99880002,m,1,0.599,,,,,,,,0.599,1,0,2,2,2,1,1001,ALMOND,m,,,,,,,,,,,,,,,,,,,,,,,,,,,,,,,,,,,,,,,,,,,,,,,,,,,,,,,,,,,,,,,,,,
,,,,,,,,,,,,,,,,,60136d792b03b2251aeec5aa,30,2022-02-12_11h44.35.663,lexical_decision_task_DD,2021.2.3,MacIntel,59.99880002,z,1,0.8785,,,,,,,,0.8785,1,0,3,3,9,1,1001,FARINY,z,,,,,,,,,,,,,,,,,,,,,,,,,,,,,,,,,,,,,,,,,,,,,,,,,,,,,,,,,,,,,,,,,,
,,,,,,,,,,,,,,,,,60136d792b03b2251aeec5aa,30,2022-02-12_11h44.35.663,lexical_decision_task_DD,2021.2.3,MacIntel,59.99880002,z,1,0.9484,,,,,,,,0.9484,1,0,4,4,10,1,1001,INLADE,z,,,,,,,,,,,,,,,,,,,,,,,,,,,,,,,,,,,,,,,,,,,,,,,,,,,,,,,,,,,,,,,,,,
,,,,,,,,,,,,,,,,,60136d792b03b2251aeec5aa,30,2022-02-12_11h44.35.663,lexical_decision_task_DD,2021.2.3,MacIntel,59.99880002,m,0,1.0945,,,,,,,,1.0945,0,0,5,5,14,1,1001,THRALE,z,,,,,,,,,,,,,,,,,,,,,,,,,,,,,,,,,,,,,,,,,,,,,,,,,,,,,,,,,,,,,,,,,,
,,,,,,,,,,,,,,,,,60136d792b03b2251aeec5aa,30,2022-02-12_11h44.35.663,lexical_decision_task_DD,2021.2.3,MacIntel,59.99880002,m,1,0.7139,,,,,,,,0.7139,1,0,6,6,3,1,1001,MATRIX,m,,,,,,,,,,,,,,,,,,,,,,,,,,,,,,,,,,,,,,,,,,,,,,,,,,,,,,,,,,,,,,,,,,
,,,,,,,,,,,,,,,,,60136d792b03b2251aeec5aa,30,2022-02-12_11h44.35.663,lexical_decision_task_DD,2021.2.3,MacIntel,59.99880002,m,0,1.5785,,,,,,,,1.5785,0,0,7,7,12,1,1001,SPRINY,z,,,,,,,,,,,,,,,,,,,,,,,,,,,,,,,,,,,,,,,,,,,,,,,,,,,,,,,,,,,,,,,,,,
,,,,,,,,,,,,,,,,,60136d792b03b2251aeec5aa,30,2022-02-12_11h44.35.663,lexical_decision_task_DD,2021.2.3,MacIntel,59.99880002,m,0,1.0483,,,,,,,,1.0483,0,0,8,8,13,1,1001,ROUPET,z,,,,,,,,,,,,,,,,,,,,,,,,,,,,,,,,,,,,,,,,,,,,,,,,,,,,,,,,,,,,,,,,,,
,,,,,,,,,,,,,,,,,60136d792b03b2251aeec5aa,30,2022-02-12_11h44.35.663,lexical_decision_task_DD,2021.2.3,MacIntel,59.99880002,z,1,0.9487,,,,,,,,0.9487,1,0,9,9,8,1,1001,ASLERT,z,,,,,,,,,,,,,,,,,,,,,,,,,,,,,,,,,,,,,,,,,,,,,,,,,,,,,,,,,,,,,,,,,,
,,,,,,,,,,,,,,,,,60136d792b03b2251aeec5aa,30,2022-02-12_11h44.35.663,lexical_decision_task_DD,2021.2.3,MacIntel,59.99880002,z,1,0.8,,,,,,,,0.8,1,0,10,10,15,1,1001,WHAISE,z,,,,,,,,,,,,,,,,,,,,,,,,,,,,,,,,,,,,,,,,,,,,,,,,,,,,,,,,,,,,,,,,,,
,,,,,,,,,,,,,,,,,60136d792b03b2251aeec5aa,30,2022-02-12_11h44.35.663,lexical_decision_task_DD,2021.2.3,MacIntel,59.99880002,m,1,0.6479,,,,,,,,0.6479,1,0,11,11,0,1,1001,UTOPIA,m,,,,,,,,,,,,,,,,,,,,,,,,,,,,,,,,,,,,,,,,,,,,,,,,,,,,,,,,,,,,,,,,,,
,,,,,,,,,,,,,,,,,60136d792b03b2251aeec5aa,30,2022-02-12_11h44.35.663,lexical_decision_task_DD,2021.2.3,MacIntel,59.99880002,m,1,0.5903,,,,,,,,0.5903,1,0,12,12,1,1,1001,ADJUST,m,,,,,,,,,,,,,,,,,,,,,,,,,,,,,,,,,,,,,,,,,,,,,,,,,,,,,,,,,,,,,,,,,,
,,,,,,,,,,,,,,,,,60136d792b03b2251aeec5aa,30,2022-02-12_11h44.35.663,lexical_decision_task_DD,2021.2.3,MacIntel,59.99880002,m,1,0.6343,,,,,,,,0.6343,1,0,13,13,6,1,1001,ZOMBIE,m,,,,,,,,,,,,,,,,,,,,,,,,,,,,,,,,,,,,,,,,,,,,,,,,,,,,,,,,,,,,,,,,,,
,,,,,,,,,,,,,,,,,60136d792b03b2251aeec5aa,30,2022-02-12_11h44.35.663,lexical_decision_task_DD,2021.2.3,MacIntel,59.99880002,z,1,0.8476,,,,,,,,0.8476,1,0,14,14,11,1,1001,RASHET,z,,,,,,,,,,,,,,,,,,,,,,,,,,,,,,,,,,,,,,,,,,,,,,,,,,,,,,,,,,,,,,,,,,
,,,,,,,,,,,,,,,,,60136d792b03b2251aeec5aa,30,2022-02-12_11h44.35.663,lexical_decision_task_DD,2021.2.3,MacIntel,59.99880002,m,1,0.5505,,,,,,,,0.5505,1,0,15,15,7,1,1001,VOLUME,m,,,,,,,,,,,,,,,,,,,,,,,,,,,,,,,,,,,,,,,,,,,,,,,,,,,,,,,,,,,,,,,,,,
space,2.5866,0.158085937,-0.136137153,0,0,0,,,,,,1,end_of_practice,"You have completed the practice trials. During the experimental trials, you will not receive feedback. 
Before you begin, please ensure that you are in a comfortable and quiet location and will not be disturbed for about 15 minutes, as we cannot use your data if you do not complete all the trials. 
 When you are ready to start the experimental trials, please press space or touch the button below.",,,60136d792b03b2251aeec5aa,30,2022-02-12_11h44.35.663,lexical_decision_task_DD,2021.2.3,MacIntel,59.99880002,,,,,,,,,,,,,,,,,,,,,0,0,0,0,1,,,,,,,,,,,,,,,,,,,,,,,,,,,,,,,,,,,,,,,,,,,,,,,,,,,,,,,,,,,,,
,,,,,,,,,,,,,,,,,60136d792b03b2251aeec5aa,30,2022-02-12_11h44.35.663,lexical_decision_task_DD,2021.2.3,MacIntel,59.99880002,,,,,,,,,,,1.6925,1,,,,,,,,,,,,,,m,1,1.6925,,,,,,,,0.158085937,-0.136137153,0,0,0,,0,0,0,19,1,DOUGH,HB,old,m,./images/DOUGHHB.png,,,,,,,,,,,,,,,,,,,,,,,,,,,,,,,,,,,
,,,,,,,,,,,,,,,,,60136d792b03b2251aeec5aa,30,2022-02-12_11h44.35.663,lexical_decision_task_DD,2021.2.3,MacIntel,59.99880002,,,,,,,,,,,0.5797,1,,,,,,,,,,,,,,m,1,0.5797,,,,,,,,0.158085937,-0.136137153,0,0,0,,0,1,1,29,1,CRUMB,LB,old,m,./images/CRUMBLB.png,,,,,,,,,,,,,,,,,,,,,,,,,,,,,,,,,,,
,,,,,,,,,,,,,,,,,60136d792b03b2251aeec5aa,30,2022-02-12_11h44.35.663,lexical_decision_task_DD,2021.2.3,MacIntel,59.99880002,,,,,,,,,,,0.5346,0,,,,,,,,,,,,,,m,0,0.5346,,,,,,,,0.158085937,-0.136137153,0,0,0,,0,2,2,89,1,DRIEK,LB,old,z,./images/DRIEKLB.png,,,,,,,,,,,,,,,,,,,,,,,,,,,,,,,,,,,
,,,,,,,,,,,,,,,,,60136d792b03b2251aeec5aa,30,2022-02-12_11h44.35.663,lexical_decision_task_DD,2021.2.3,MacIntel,59.99880002,,,,,,,,,,,0.635,1,,,,,,,,,,,,,,m,1,0.635,,,,,,,,0.158085937,-0.136137153,0,0,0,,0,3,3,78,1,LITTER,C,old,m,./images/LITTER.png,,,,,,,,,,,,,,,,,,,,,,,,,,,,,,,,,,,
,,,,,,,,,,,,,,,,,60136d792b03b2251aeec5aa,30,2022-02-12_11h44.35.663,lexical_decision_task_DD,2021.2.3,MacIntel,59.99880002,,,,,,,,,,,0.7486,1,,,,,,,,,,,,,,m,1,0.7486,,,,,,,,0.158085937,-0.136137153,0,0,0,,0,4,4,65,1,FARMER,LB,old,m,./images/FARMERLB.png,,,,,,,,,,,,,,,,,,,,,,,,,,,,,,,,,,,
,,,,,,,,,,,,,,,,,60136d792b03b2251aeec5aa,30,2022-02-12_11h44.35.663,lexical_decision_task_DD,2021.2.3,MacIntel,59.99880002,,,,,,,,,,,0.5707,1,,,,,,,,,,,,,,m,1,0.5707,,,,,,,,0.158085937,-0.136137153,0,0,0,,0,5,5,60,1,TWINS,C,old,m,./images/TWINS.png,,,,,,,,,,,,,,,,,,,,,,,,,,,,,,,,,,,
,,,,,,,,,,,,,,,,,60136d792b03b2251aeec5aa,30,2022-02-12_11h44.35.663,lexical_decision_task_DD,2021.2.3,MacIntel,59.99880002,,,,,,,,,,,1.6032,1,,,,,,,,,,,,,,z,1,1.6032,,,,,,,,0.158085937,-0.136137153,0,0,0,,0,6,6,151,1,TINKY,HB,old,z,./images/TINKYHB.png,,,,,,,,,,,,,,,,,,,,,,,,,,,,,,,,,,,
,,,,,,,,,,,,,,,,,60136d792b03b2251aeec5aa,30,2022-02-12_11h44.35.663,lexical_decision_task_DD,2021.2.3,MacIntel,59.99880002,,,,,,,,,,,0.8191,1,,,,,,,,,,,,,,m,1,0.8191,,,,,,,,0.158085937,-0.136137153,0,0,0,,0,7,7,22,1,MELON,HB,old,m,./images/MELONHB.png,,,,,,,,,,,,,,,,,,,,,,,,,,,,,,,,,,,
,,,,,,,,,,,,,,,,,60136d792b03b2251aeec5aa,30,2022-02-12_11h44.35.663,lexical_decision_task_DD,2021.2.3,MacIntel,59.99880002,,,,,,,,,,,0.8724,1,,,,,,,,,,,,,,z,1,0.8724,,,,,,,,0.158085937,-0.136137153,0,0,0,,0,8,8,138,1,PLICE,C,old,z,./images/PLICE.png,,,,,,,,,,,,,,,,,,,,,,,,,,,,,,,,,,,
,,,,,,,,,,,,,,,,,60136d792b03b2251aeec5aa,30,2022-02-12_11h44.35.663,lexical_decision_task_DD,2021.2.3,MacIntel,59.99880002,,,,,,,,,,,0.6542,1,,,,,,,,,,,,,,m,1,0.6542,,,,,,,,0.158085937,-0.136137153,0,0,0,,0,9,9,79,1,CRUST,HB,old,m,./images/CRUSTHB.png,,,,,,,,,,,,,,,,,,,,,,,,,,,,,,,,,,,
,,,,,,,,,,,,,,,,,60136d792b03b2251aeec5aa,30,2022-02-12_11h44.35.663,lexical_decision_task_DD,2021.2.3,MacIntel,59.99880002,,,,,,,,,,,0.4977,1,,,,,,,,,,,,,,m,1,0.4977,,,,,,,,0.158085937,-0.136137153,0,0,0,,0,10,10,41,1,STRING,LB,old,m,./images/STRINGLB.png,,,,,,,,,,,,,,,,,,,,,,,,,,,,,,,,,,,
,,,,,,,,,,,,,,,,,60136d792b03b2251aeec5aa,30,2022-02-12_11h44.35.663,lexical_decision_task_DD,2021.2.3,MacIntel,59.99880002,,,,,,,,,,,0.6321,1,,,,,,,,,,,,,,m,1,0.6321,,,,,,,,0.158085937,-0.136137153,0,0,0,,0,11,11,55,1,MUFFIN,HB,old,m,./images/MUFFINHB.png,,,,,,,,,,,,,,,,,,,,,,,,,,,,,,,,,,,
,,,,,,,,,,,,,,,,,60136d792b03b2251aeec5aa,30,2022-02-12_11h44.35.663,lexical_decision_task_DD,2021.2.3,MacIntel,59.99880002,,,,,,,,,,,0.67,1,,,,,,,,,,,,,,m,1,0.67,,,,,,,,0.158085937,-0.136137153,0,0,0,,0,12,12,37,1,BIRTH,HB,old,m,./images/BIRTHHB.png,,,,,,,,,,,,,,,,,,,,,,,,,,,,,,,,,,,
,,,,,,,,,,,,,,,,,60136d792b03b2251aeec5aa,30,2022-02-12_11h44.35.663,lexical_decision_task_DD,2021.2.3,MacIntel,59.99880002,,,,,,,,,,,0.954,1,,,,,,,,,,,,,,m,1,0.954,,,,,,,,0.158085937,-0.136137153,0,0,0,,0,13,13,50,1,MALLET,LB,old,m,./images/MALLETLB.png,,,,,,,,,,,,,,,,,,,,,,,,,,,,,,,,,,,
,,,,,,,,,,,,,,,,,60136d792b03b2251aeec5aa,30,2022-02-12_11h44.35.663,lexical_decision_task_DD,2021.2.3,MacIntel,59.99880002,,,,,,,,,,,0.5475,1,,,,,,,,,,,,,,m,1,0.5475,,,,,,,,0.158085937,-0.136137153,0,0,0,,0,14,14,68,1,TORCH,LB,old,m,./images/TORCHLB.png,,,,,,,,,,,,,,,,,,,,,,,,,,,,,,,,,,,
,,,,,,,,,,,,,,,,,60136d792b03b2251aeec5aa,30,2022-02-12_11h44.35.663,lexical_decision_task_DD,2021.2.3,MacIntel,59.99880002,,,,,,,,,,,0.649,1,,,,,,,,,,,,,,m,1,0.649,,,,,,,,0.158085937,-0.136137153,0,0,0,,0,15,15,20,1,CRADLE,LB,old,m,./images/CRADLELB.png,,,,,,,,,,,,,,,,,,,,,,,,,,,,,,,,,,,
,,,,,,,,,,,,,,,,,60136d792b03b2251aeec5aa,30,2022-02-12_11h44.35.663,lexical_decision_task_DD,2021.2.3,MacIntel,59.99880002,,,,,,,,,,,1.0316,1,,,,,,,,,,,,,,z,1,1.0316,,,,,,,,0.158085937,-0.136137153,0,0,0,,0,16,16,142,1,PLASK,HB,old,z,./images/PLASKHB.png,,,,,,,,,,,,,,,,,,,,,,,,,,,,,,,,,,,
,,,,,,,,,,,,,,,,,60136d792b03b2251aeec5aa,30,2022-02-12_11h44.35.663,lexical_decision_task_DD,2021.2.3,MacIntel,59.99880002,,,,,,,,,,,0.9072,1,,,,,,,,,,,,,,z,1,0.9072,,,,,,,,0.158085937,-0.136137153,0,0,0,,0,17,17,136,1,WERVE,HB,old,z,./images/WERVEHB.png,,,,,,,,,,,,,,,,,,,,,,,,,,,,,,,,,,,
,,,,,,,,,,,,,,,,,60136d792b03b2251aeec5aa,30,2022-02-12_11h44.35.663,lexical_decision_task_DD,2021.2.3,MacIntel,59.99880002,,,,,,,,,,,0.5912,1,,,,,,,,,,,,,,m,1,0.5912,,,,,,,,0.158085937,-0.136137153,0,0,0,,0,18,18,23,1,WALRUS,LB,old,m,./images/WALRUSLB.png,,,,,,,,,,,,,,,,,,,,,,,,,,,,,,,,,,,
,,,,,,,,,,,,,,,,,60136d792b03b2251aeec5aa,30,2022-02-12_11h44.35.663,lexical_decision_task_DD,2021.2.3,MacIntel,59.99880002,,,,,,,,,,,0.9484,0,,,,,,,,,,,,,,m,0,0.9484,,,,,,,,0.158085937,-0.136137153,0,0,0,,0,19,19,104,1,GITTY,LB,old,z,./images/GITTYLB.png,,,,,,,,,,,,,,,,,,,,,,,,,,,,,,,,,,,
,,,,,,,,,,,,,,,,,60136d792b03b2251aeec5aa,30,2022-02-12_11h44.35.663,lexical_decision_task_DD,2021.2.3,MacIntel,59.99880002,,,,,,,,,,,0.6905,1,,,,,,,,,,,,,,m,1,0.6905,,,,,,,,0.158085937,-0.136137153,0,0,0,,0,20,20,64,1,JELLY,HB,old,m,./images/JELLYHB.png,,,,,,,,,,,,,,,,,,,,,,,,,,,,,,,,,,,
,,,,,,,,,,,,,,,,,60136d792b03b2251aeec5aa,30,2022-02-12_11h44.35.663,lexical_decision_task_DD,2021.2.3,MacIntel,59.99880002,,,,,,,,,,,0.6059,1,,,,,,,,,,,,,,m,1,0.6059,,,,,,,,0.158085937,-0.136137153,0,0,0,,0,21,21,62,1,PURSE,LB,old,m,./images/PURSELB.png,,,,,,,,,,,,,,,,,,,,,,,,,,,,,,,,,,,
,,,,,,,,,,,,,,,,,60136d792b03b2251aeec5aa,30,2022-02-12_11h44.35.663,lexical_decision_task_DD,2021.2.3,MacIntel,59.99880002,,,,,,,,,,,1.2215,1,,,,,,,,,,,,,,z,1,1.2215,,,,,,,,0.158085937,-0.136137153,0,0,0,,0,22,22,90,1,NEAST,C,old,z,./images/NEAST.png,,,,,,,,,,,,,,,,,,,,,,,,,,,,,,,,,,,
,,,,,,,,,,,,,,,,,60136d792b03b2251aeec5aa,30,2022-02-12_11h44.35.663,lexical_decision_task_DD,2021.2.3,MacIntel,59.99880002,,,,,,,,,,,0.5212,1,,,,,,,,,,,,,,m,1,0.5212,,,,,,,,0.158085937,-0.136137153,0,0,0,,0,23,23,30,1,STORM,C,old,m,./images/STORM.png,,,,,,,,,,,,,,,,,,,,,,,,,,,,,,,,,,,
,,,,,,,,,,,,,,,,,60136d792b03b2251aeec5aa,30,2022-02-12_11h44.35.663,lexical_decision_task_DD,2021.2.3,MacIntel,59.99880002,,,,,,,,,,,0.5989,1,,,,,,,,,,,,,,m,1,0.5989,,,,,,,,0.158085937,-0.136137153,0,0,0,,0,24,24,74,1,CEMENT,LB,old,m,./images/CEMENTLB.png,,,,,,,,,,,,,,,,,,,,,,,,,,,,,,,,,,,
,,,,,,,,,,,,,,,,,60136d792b03b2251aeec5aa,30,2022-02-12_11h44.35.663,lexical_decision_task_DD,2021.2.3,MacIntel,59.99880002,,,,,,,,,,,0.7271,1,,,,,,,,,,,,,,z,1,0.7271,,,,,,,,0.158085937,-0.136137153,0,0,0,,0,25,25,108,1,GRUET,C,old,z,./images/GRUET.png,,,,,,,,,,,,,,,,,,,,,,,,,,,,,,,,,,,
,,,,,,,,,,,,,,,,,60136d792b03b2251aeec5aa,30,2022-02-12_11h44.35.663,lexical_decision_task_DD,2021.2.3,MacIntel,59.99880002,,,,,,,,,,,0.5309,1,,,,,,,,,,,,,,m,1,0.5309,,,,,,,,0.158085937,-0.136137153,0,0,0,,0,26,26,2,1,BEARD,LB,old,m,./images/BEARDLB.png,,,,,,,,,,,,,,,,,,,,,,,,,,,,,,,,,,,
,,,,,,,,,,,,,,,,,60136d792b03b2251aeec5aa,30,2022-02-12_11h44.35.663,lexical_decision_task_DD,2021.2.3,MacIntel,59.99880002,,,,,,,,,,,0.6199,1,,,,,,,,,,,,,,m,1,0.6199,,,,,,,,0.158085937,-0.136137153,0,0,0,,0,27,27,4,1,MUSCLE,HB,old,m,./images/MUSCLEHB.png,,,,,,,,,,,,,,,,,,,,,,,,,,,,,,,,,,,
,,,,,,,,,,,,,,,,,60136d792b03b2251aeec5aa,30,2022-02-12_11h44.35.663,lexical_decision_task_DD,2021.2.3,MacIntel,59.99880002,,,,,,,,,,,0.8773,1,,,,,,,,,,,,,,z,1,0.8773,,,,,,,,0.158085937,-0.136137153,0,0,0,,0,28,28,99,1,BACKY,C,old,z,./images/BACKY.png,,,,,,,,,,,,,,,,,,,,,,,,,,,,,,,,,,,
,,,,,,,,,,,,,,,,,60136d792b03b2251aeec5aa,30,2022-02-12_11h44.35.663,lexical_decision_task_DD,2021.2.3,MacIntel,59.99880002,,,,,,,,,,,0.5619,1,,,,,,,,,,,,,,m,1,0.5619,,,,,,,,0.158085937,-0.136137153,0,0,0,,0,29,29,83,1,JUNGLE,LB,old,m,./images/JUNGLELB.png,,,,,,,,,,,,,,,,,,,,,,,,,,,,,,,,,,,
,,,,,,,,,,,,,,,,,60136d792b03b2251aeec5aa,30,2022-02-12_11h44.35.663,lexical_decision_task_DD,2021.2.3,MacIntel,59.99880002,,,,,,,,,,,0.5073,1,,,,,,,,,,,,,,m,1,0.5073,,,,,,,,0.158085937,-0.136137153,0,0,0,,0,30,30,75,1,GRAIN,C,old,m,./images/GRAIN.png,,,,,,,,,,,,,,,,,,,,,,,,,,,,,,,,,,,
,,,,,,,,,,,,,,,,,60136d792b03b2251aeec5aa,30,2022-02-12_11h44.35.663,lexical_decision_task_DD,2021.2.3,MacIntel,59.99880002,,,,,,,,,,,0.7889,1,,,,,,,,,,,,,,z,1,0.7889,,,,,,,,0.158085937,-0.136137153,0,0,0,,0,31,31,153,1,CLUPS,C,old,z,./images/CLUPS.png,,,,,,,,,,,,,,,,,,,,,,,,,,,,,,,,,,,
,,,,,,,,,,,,,,,,,60136d792b03b2251aeec5aa,30,2022-02-12_11h44.35.663,lexical_decision_task_DD,2021.2.3,MacIntel,59.99880002,,,,,,,,,,,0.5053,1,,,,,,,,,,,,,,m,1,0.5053,,,,,,,,0.158085937,-0.136137153,0,0,0,,0,32,32,81,1,POODLE,C,old,m,./images/POODLE.png,,,,,,,,,,,,,,,,,,,,,,,,,,,,,,,,,,,
,,,,,,,,,,,,,,,,,60136d792b03b2251aeec5aa,30,2022-02-12_11h44.35.663,lexical_decision_task_DD,2021.2.3,MacIntel,59.99880002,,,,,,,,,,,2.0895,1,,,,,,,,,,,,,,m,1,2.0895,,,,,,,,0.158085937,-0.136137153,0,0,0,,0,33,33,46,1,PEARL,HB,old,m,./images/PEARLHB.png,,,,,,,,,,,,,,,,,,,,,,,,,,,,,,,,,,,
,,,,,,,,,,,,,,,,,60136d792b03b2251aeec5aa,30,2022-02-12_11h44.35.663,lexical_decision_task_DD,2021.2.3,MacIntel,59.99880002,,,,,,,,,,,0.6318,1,,,,,,,,,,,,,,m,1,0.6318,,,,,,,,0.158085937,-0.136137153,0,0,0,,0,34,34,82,1,SUNSET,HB,old,m,./images/SUNSETHB.png,,,,,,,,,,,,,,,,,,,,,,,,,,,,,,,,,,,
,,,,,,,,,,,,,,,,,60136d792b03b2251aeec5aa,30,2022-02-12_11h44.35.663,lexical_decision_task_DD,2021.2.3,MacIntel,59.99880002,,,,,,,,,,,0.6572,1,,,,,,,,,,,,,,z,1,0.6572,,,,,,,,0.158085937,-0.136137153,0,0,0,,0,35,35,116,1,BALGY,LB,old,z,./images/BALGYLB.png,,,,,,,,,,,,,,,,,,,,,,,,,,,,,,,,,,,
,,,,,,,,,,,,,,,,,60136d792b03b2251aeec5aa,30,2022-02-12_11h44.35.663,lexical_decision_task_DD,2021.2.3,MacIntel,59.99880002,,,,,,,,,,,0.4841,1,,,,,,,,,,,,,,m,1,0.4841,,,,,,,,0.158085937,-0.136137153,0,0,0,,0,36,36,44,1,LIZARD,LB,old,m,./images/LIZARDLB.png,,,,,,,,,,,,,,,,,,,,,,,,,,,,,,,,,,,
,,,,,,,,,,,,,,,,,60136d792b03b2251aeec5aa,30,2022-02-12_11h44.35.663,lexical_decision_task_DD,2021.2.3,MacIntel,59.99880002,,,,,,,,,,,0.6536,1,,,,,,,,,,,,,,z,1,0.6536,,,,,,,,0.158085937,-0.136137153,0,0,0,,0,37,37,167,1,ZONET,LB,old,z,./images/ZONETLB.png,,,,,,,,,,,,,,,,,,,,,,,,,,,,,,,,,,,
,,,,,,,,,,,,,,,,,60136d792b03b2251aeec5aa,30,2022-02-12_11h44.35.663,lexical_decision_task_DD,2021.2.3,MacIntel,59.99880002,,,,,,,,,,,0.9304,1,,,,,,,,,,,,,,z,1,0.9304,,,,,,,,0.158085937,-0.136137153,0,0,0,,0,38,38,140,1,DOVET,LB,old,z,./images/DOVETLB.png,,,,,,,,,,,,,,,,,,,,,,,,,,,,,,,,,,,
,,,,,,,,,,,,,,,,,60136d792b03b2251aeec5aa,30,2022-02-12_11h44.35.663,lexical_decision_task_DD,2021.2.3,MacIntel,59.99880002,,,,,,,,,,,0.9404,1,,,,,,,,,,,,,,z,1,0.9404,,,,,,,,0.158085937,-0.136137153,0,0,0,,0,39,39,148,1,JOMS,HB,old,z,./images/JOMSHB.png,,,,,,,,,,,,,,,,,,,,,,,,,,,,,,,,,,,
,,,,,,,,,,,,,,,,,60136d792b03b2251aeec5aa,30,2022-02-12_11h44.35.663,lexical_decision_task_DD,2021.2.3,MacIntel,59.99880002,,,,,,,,,,,0.7145,1,,,,,,,,,,,,,,z,1,0.7145,,,,,,,,0.158085937,-0.136137153,0,0,0,,0,40,40,161,1,BLAPS,LB,old,z,./images/BLAPSLB.png,,,,,,,,,,,,,,,,,,,,,,,,,,,,,,,,,,,
,,,,,,,,,,,,,,,,,60136d792b03b2251aeec5aa,30,2022-02-12_11h44.35.663,lexical_decision_task_DD,2021.2.3,MacIntel,59.99880002,,,,,,,,,,,0.6763,1,,,,,,,,,,,,,,m,1,0.6763,,,,,,,,0.158085937,-0.136137153,0,0,0,space,0,41,41,58,1,BABOON,HB,old,m,./images/BABOONHB.png,6.1771,,,,,,,,,,,,,,,,,,,,,,,,,,,,,,,,,,
,,,,,,,,,,,,,,,,,60136d792b03b2251aeec5aa,30,2022-02-12_11h44.35.663,lexical_decision_task_DD,2021.2.3,MacIntel,59.99880002,,,,,,,,,,,0.6965,1,,,,,,,,,,,,,,z,1,0.6965,,,,,,,,0.158085937,-0.136137153,0,0,0,,0,42,42,101,1,GLEET,LB,old,z,./images/GLEETLB.png,,,,,,,,,,,,,,,,,,,,,,,,,,,,,,,,,,,
,,,,,,,,,,,,,,,,,60136d792b03b2251aeec5aa,30,2022-02-12_11h44.35.663,lexical_decision_task_DD,2021.2.3,MacIntel,59.99880002,,,,,,,,,,,0.686,1,,,,,,,,,,,,,,z,1,0.686,,,,,,,,0.158085937,-0.136137153,0,0,0,,0,43,43,96,1,KEAMS,C,old,z,./images/KEAMS.png,,,,,,,,,,,,,,,,,,,,,,,,,,,,,,,,,,,
,,,,,,,,,,,,,,,,,60136d792b03b2251aeec5aa,30,2022-02-12_11h44.35.663,lexical_decision_task_DD,2021.2.3,MacIntel,59.99880002,,,,,,,,,,,1.3464,1,,,,,,,,,,,,,,z,1,1.3464,,,,,,,,0.158085937,-0.136137153,0,0,0,,0,44,44,107,1,FASKS,LB,old,z,./images/FASKSLB.png,,,,,,,,,,,,,,,,,,,,,,,,,,,,,,,,,,,
,,,,,,,,,,,,,,,,,60136d792b03b2251aeec5aa,30,2022-02-12_11h44.35.663,lexical_decision_task_DD,2021.2.3,MacIntel,59.99880002,,,,,,,,,,,1.0117,1,,,,,,,,,,,,,,z,1,1.0117,,,,,,,,0.158085937,-0.136137153,0,0,0,,0,45,45,164,1,SGREW,LB,old,z,./images/SGREWLB.png,,,,,,,,,,,,,,,,,,,,,,,,,,,,,,,,,,,
,,,,,,,,,,,,,,,,,60136d792b03b2251aeec5aa,30,2022-02-12_11h44.35.663,lexical_decision_task_DD,2021.2.3,MacIntel,59.99880002,,,,,,,,,,,0.7412,1,,,,,,,,,,,,,,z,1,0.7412,,,,,,,,0.158085937,-0.136137153,0,0,0,,0,46,46,93,1,SMONE,C,old,z,./images/SMONE.png,,,,,,,,,,,,,,,,,,,,,,,,,,,,,,,,,,,
,,,,,,,,,,,,,,,,,60136d792b03b2251aeec5aa,30,2022-02-12_11h44.35.663,lexical_decision_task_DD,2021.2.3,MacIntel,59.99880002,,,,,,,,,,,1.0689,0,,,,,,,,,,,,,,m,0,1.0689,,,,,,,,0.158085937,-0.136137153,0,0,0,,0,47,47,147,1,ZOLES,C,old,z,./images/ZOLES.png,,,,,,,,,,,,,,,,,,,,,,,,,,,,,,,,,,,
,,,,,,,,,,,,,,,,,60136d792b03b2251aeec5aa,30,2022-02-12_11h44.35.663,lexical_decision_task_DD,2021.2.3,MacIntel,59.99880002,,,,,,,,,,,1.0521,1,,,,,,,,,,,,,,z,1,1.0521,,,,,,,,0.158085937,-0.136137153,0,0,0,,0,48,48,126,1,GUELS,C,old,z,./images/GUELS.png,,,,,,,,,,,,,,,,,,,,,,,,,,,,,,,,,,,
,,,,,,,,,,,,,,,,,60136d792b03b2251aeec5aa,30,2022-02-12_11h44.35.663,lexical_decision_task_DD,2021.2.3,MacIntel,59.99880002,,,,,,,,,,,1.168,1,,,,,,,,,,,,,,z,1,1.168,,,,,,,,0.158085937,-0.136137153,0,0,0,,0,49,49,115,1,MAWNS,HB,old,z,./images/MAWNSHB.png,,,,,,,,,,,,,,,,,,,,,,,,,,,,,,,,,,,
,,,,,,,,,,,,,,,,,60136d792b03b2251aeec5aa,30,2022-02-12_11h44.35.663,lexical_decision_task_DD,2021.2.3,MacIntel,59.99880002,,,,,,,,,,,0.602,1,,,,,,,,,,,,,,m,1,0.602,,,,,,,,0.158085937,-0.136137153,0,0,0,,0,50,50,27,1,ATTIC,C,old,m,./images/ATTIC.png,,,,,,,,,,,,,,,,,,,,,,,,,,,,,,,,,,,
,,,,,,,,,,,,,,,,,60136d792b03b2251aeec5aa,30,2022-02-12_11h44.35.663,lexical_decision_task_DD,2021.2.3,MacIntel,59.99880002,,,,,,,,,,,0.8316,0,,,,,,,,,,,,,,z,0,0.8316,,,,,,,,0.158085937,-0.136137153,0,0,0,,0,51,51,67,1,SAILOR,HB,old,m,./images/SAILORHB.png,,,,,,,,,,,,,,,,,,,,,,,,,,,,,,,,,,,
,,,,,,,,,,,,,,,,,60136d792b03b2251aeec5aa,30,2022-02-12_11h44.35.663,lexical_decision_task_DD,2021.2.3,MacIntel,59.99880002,,,,,,,,,,,0.5091,1,,,,,,,,,,,,,,m,1,0.5091,,,,,,,,0.158085937,-0.136137153,0,0,0,,0,52,52,36,1,THROAT,C,old,m,./images/THROAT.png,,,,,,,,,,,,,,,,,,,,,,,,,,,,,,,,,,,
,,,,,,,,,,,,,,,,,60136d792b03b2251aeec5aa,30,2022-02-12_11h44.35.663,lexical_decision_task_DD,2021.2.3,MacIntel,59.99880002,,,,,,,,,,,0.8866,1,,,,,,,,,,,,,,m,1,0.8866,,,,,,,,0.158085937,-0.136137153,0,0,0,,0,53,53,61,1,CANDLE,HB,old,m,./images/CANDLEHB.png,,,,,,,,,,,,,,,,,,,,,,,,,,,,,,,,,,,
,,,,,,,,,,,,,,,,,60136d792b03b2251aeec5aa,30,2022-02-12_11h44.35.663,lexical_decision_task_DD,2021.2.3,MacIntel,59.99880002,,,,,,,,,,,0.6621,1,,,,,,,,,,,,,,z,1,0.6621,,,,,,,,0.158085937,-0.136137153,0,0,0,,0,54,54,84,1,HAXES,C,old,z,./images/HAXES.png,,,,,,,,,,,,,,,,,,,,,,,,,,,,,,,,,,,
,,,,,,,,,,,,,,,,,60136d792b03b2251aeec5aa,30,2022-02-12_11h44.35.663,lexical_decision_task_DD,2021.2.3,MacIntel,59.99880002,,,,,,,,,,,0.8198,0,,,,,,,,,,,,,,m,0,0.8198,,,,,,,,0.158085937,-0.136137153,0,0,0,,0,55,55,128,1,GRIFT,LB,old,z,./images/GRIFTLB.png,,,,,,,,,,,,,,,,,,,,,,,,,,,,,,,,,,,
,,,,,,,,,,,,,,,,,60136d792b03b2251aeec5aa,30,2022-02-12_11h44.35.663,lexical_decision_task_DD,2021.2.3,MacIntel,59.99880002,,,,,,,,,,,1.5031,1,,,,,,,,,,,,,,z,1,1.5031,,,,,,,,0.158085937,-0.136137153,0,0,0,,0,56,56,127,1,NINDY,HB,old,z,./images/NINDYHB.png,,,,,,,,,,,,,,,,,,,,,,,,,,,,,,,,,,,
,,,,,,,,,,,,,,,,,60136d792b03b2251aeec5aa,30,2022-02-12_11h44.35.663,lexical_decision_task_DD,2021.2.3,MacIntel,59.99880002,,,,,,,,,,,1.147,1,,,,,,,,,,,,,,z,1,1.147,,,,,,,,0.158085937,-0.136137153,0,0,0,,0,57,57,106,1,CLUMS,HB,old,z,./images/CLUMSHB.png,,,,,,,,,,,,,,,,,,,,,,,,,,,,,,,,,,,
,,,,,,,,,,,,,,,,,60136d792b03b2251aeec5aa,30,2022-02-12_11h44.35.663,lexical_decision_task_DD,2021.2.3,MacIntel,59.99880002,,,,,,,,,,,0.5881,1,,,,,,,,,,,,,,m,1,0.5881,,,,,,,,0.158085937,-0.136137153,0,0,0,,0,58,58,77,1,COUCH,LB,old,m,./images/COUCHLB.png,,,,,,,,,,,,,,,,,,,,,,,,,,,,,,,,,,,
,,,,,,,,,,,,,,,,,60136d792b03b2251aeec5aa,30,2022-02-12_11h44.35.663,lexical_decision_task_DD,2021.2.3,MacIntel,59.99880002,,,,,,,,,,,0.681,1,,,,,,,,,,,,,,z,1,0.681,,,,,,,,0.158085937,-0.136137153,0,0,0,,0,59,59,122,1,BLOOT,LB,old,z,./images/BLOOTLB.png,,,,,,,,,,,,,,,,,,,,,,,,,,,,,,,,,,,
,,,,,,,,,,,,,,,,,60136d792b03b2251aeec5aa,30,2022-02-12_11h44.35.663,lexical_decision_task_DD,2021.2.3,MacIntel,59.99880002,,,,,,,,,,,0.768,1,,,,,,,,,,,,,,z,1,0.768,,,,,,,,0.158085937,-0.136137153,0,0,0,,0,60,60,87,1,TRING,C,old,z,./images/TRING.png,,,,,,,,,,,,,,,,,,,,,,,,,,,,,,,,,,,
,,,,,,,,,,,,,,,,,60136d792b03b2251aeec5aa,30,2022-02-12_11h44.35.663,lexical_decision_task_DD,2021.2.3,MacIntel,59.99880002,,,,,,,,,,,0.5077,1,,,,,,,,,,,,,,m,1,0.5077,,,,,,,,0.158085937,-0.136137153,0,0,0,,0,61,61,51,1,ONION,C,old,m,./images/ONION.png,,,,,,,,,,,,,,,,,,,,,,,,,,,,,,,,,,,
,,,,,,,,,,,,,,,,,60136d792b03b2251aeec5aa,30,2022-02-12_11h44.35.663,lexical_decision_task_DD,2021.2.3,MacIntel,59.99880002,,,,,,,,,,,0.7169,1,,,,,,,,,,,,,,z,1,0.7169,,,,,,,,0.158085937,-0.136137153,0,0,0,,0,62,62,103,1,FLORT,HB,old,z,./images/FLORTHB.png,,,,,,,,,,,,,,,,,,,,,,,,,,,,,,,,,,,
,,,,,,,,,,,,,,,,,60136d792b03b2251aeec5aa,30,2022-02-12_11h44.35.663,lexical_decision_task_DD,2021.2.3,MacIntel,59.99880002,,,,,,,,,,,0.4887,1,,,,,,,,,,,,,,m,1,0.4887,,,,,,,,0.158085937,-0.136137153,0,0,0,,0,63,63,15,1,GREASE,C,old,m,./images/GREASE.png,,,,,,,,,,,,,,,,,,,,,,,,,,,,,,,,,,,
,,,,,,,,,,,,,,,,,60136d792b03b2251aeec5aa,30,2022-02-12_11h44.35.663,lexical_decision_task_DD,2021.2.3,MacIntel,59.99880002,,,,,,,,,,,0.6038,1,,,,,,,,,,,,,,m,1,0.6038,,,,,,,,0.158085937,-0.136137153,0,0,0,,0,64,64,1,1,PLANK,HB,old,m,./images/PLANKHB.png,,,,,,,,,,,,,,,,,,,,,,,,,,,,,,,,,,,
,,,,,,,,,,,,,,,,,60136d792b03b2251aeec5aa,30,2022-02-12_11h44.35.663,lexical_decision_task_DD,2021.2.3,MacIntel,59.99880002,,,,,,,,,,,0.5744,1,,,,,,,,,,,,,,z,1,0.5744,,,,,,,,0.158085937,-0.136137153,0,0,0,,0,65,65,150,1,NOOLS,C,old,z,./images/NOOLS.png,,,,,,,,,,,,,,,,,,,,,,,,,,,,,,,,,,,
,,,,,,,,,,,,,,,,,60136d792b03b2251aeec5aa,30,2022-02-12_11h44.35.663,lexical_decision_task_DD,2021.2.3,MacIntel,59.99880002,,,,,,,,,,,0.5645,1,,,,,,,,,,,,,,m,1,0.5645,,,,,,,,0.158085937,-0.136137153,0,0,0,,0,66,66,49,1,DRUMS,HB,old,m,./images/DRUMSHB.png,,,,,,,,,,,,,,,,,,,,,,,,,,,,,,,,,,,
,,,,,,,,,,,,,,,,,60136d792b03b2251aeec5aa,30,2022-02-12_11h44.35.663,lexical_decision_task_DD,2021.2.3,MacIntel,59.99880002,,,,,,,,,,,0.6347,1,,,,,,,,,,,,,,z,1,0.6347,,,,,,,,0.158085937,-0.136137153,0,0,0,,0,67,67,131,1,NACES,LB,old,z,./images/NACESLB.png,,,,,,,,,,,,,,,,,,,,,,,,,,,,,,,,,,,
,,,,,,,,,,,,,,,,,60136d792b03b2251aeec5aa,30,2022-02-12_11h44.35.663,lexical_decision_task_DD,2021.2.3,MacIntel,59.99880002,,,,,,,,,,,0.5193,1,,,,,,,,,,,,,,m,1,0.5193,,,,,,,,0.158085937,-0.136137153,0,0,0,,0,68,68,71,1,PIMPLE,LB,old,m,./images/PIMPLELB.png,,,,,,,,,,,,,,,,,,,,,,,,,,,,,,,,,,,
,,,,,,,,,,,,,,,,,60136d792b03b2251aeec5aa,30,2022-02-12_11h44.35.663,lexical_decision_task_DD,2021.2.3,MacIntel,59.99880002,,,,,,,,,,,0.5854,1,,,,,,,,,,,,,,z,1,0.5854,,,,,,,,0.158085937,-0.136137153,0,0,0,,0,69,69,135,1,JOODY,C,old,z,./images/JOODY.png,,,,,,,,,,,,,,,,,,,,,,,,,,,,,,,,,,,
,,,,,,,,,,,,,,,,,60136d792b03b2251aeec5aa,30,2022-02-12_11h44.35.663,lexical_decision_task_DD,2021.2.3,MacIntel,59.99880002,,,,,,,,,,,0.5506,1,,,,,,,,,,,,,,m,1,0.5506,,,,,,,,0.158085937,-0.136137153,0,0,0,,0,70,70,47,1,BERRY,LB,old,m,./images/BERRYLB.png,,,,,,,,,,,,,,,,,,,,,,,,,,,,,,,,,,,
,,,,,,,,,,,,,,,,,60136d792b03b2251aeec5aa,30,2022-02-12_11h44.35.663,lexical_decision_task_DD,2021.2.3,MacIntel,59.99880002,,,,,,,,,,,0.732,1,,,,,,,,,,,,,,z,1,0.732,,,,,,,,0.158085937,-0.136137153,0,0,0,,0,71,71,86,1,AIFED,LB,old,z,./images/AIFEDLB.png,,,,,,,,,,,,,,,,,,,,,,,,,,,,,,,,,,,
,,,,,,,,,,,,,,,,,60136d792b03b2251aeec5aa,30,2022-02-12_11h44.35.663,lexical_decision_task_DD,2021.2.3,MacIntel,59.99880002,,,,,,,,,,,0.6214,1,,,,,,,,,,,,,,m,1,0.6214,,,,,,,,0.158085937,-0.136137153,0,0,0,,0,72,72,18,1,JAGUAR,C,old,m,./images/JAGUAR.png,,,,,,,,,,,,,,,,,,,,,,,,,,,,,,,,,,,
,,,,,,,,,,,,,,,,,60136d792b03b2251aeec5aa,30,2022-02-12_11h44.35.663,lexical_decision_task_DD,2021.2.3,MacIntel,59.99880002,,,,,,,,,,,0.6498,0,,,,,,,,,,,,,,z,0,0.6498,,,,,,,,0.158085937,-0.136137153,0,0,0,,0,73,73,17,1,SKIING,LB,old,m,./images/SKIINGLB.png,,,,,,,,,,,,,,,,,,,,,,,,,,,,,,,,,,,
,,,,,,,,,,,,,,,,,60136d792b03b2251aeec5aa,30,2022-02-12_11h44.35.663,lexical_decision_task_DD,2021.2.3,MacIntel,59.99880002,,,,,,,,,,,0.6631,1,,,,,,,,,,,,,,z,1,0.6631,,,,,,,,0.158085937,-0.136137153,0,0,0,,0,74,74,134,1,TROSS,LB,old,z,./images/TROSSLB.png,,,,,,,,,,,,,,,,,,,,,,,,,,,,,,,,,,,
,,,,,,,,,,,,,,,,,60136d792b03b2251aeec5aa,30,2022-02-12_11h44.35.663,lexical_decision_task_DD,2021.2.3,MacIntel,59.99880002,,,,,,,,,,,0.6963,1,,,,,,,,,,,,,,z,1,0.6963,,,,,,,,0.158085937,-0.136137153,0,0,0,,0,75,75,95,1,HANTY,LB,old,z,./images/HANTYLB.png,,,,,,,,,,,,,,,,,,,,,,,,,,,,,,,,,,,
,,,,,,,,,,,,,,,,,60136d792b03b2251aeec5aa,30,2022-02-12_11h44.35.663,lexical_decision_task_DD,2021.2.3,MacIntel,59.99880002,,,,,,,,,,,0.8574,1,,,,,,,,,,,,,,m,1,0.8574,,,,,,,,0.158085937,-0.136137153,0,0,0,,0,76,76,31,1,QUILL,HB,old,m,./images/QUILLHB.png,,,,,,,,,,,,,,,,,,,,,,,,,,,,,,,,,,,
,,,,,,,,,,,,,,,,,60136d792b03b2251aeec5aa,30,2022-02-12_11h44.35.663,lexical_decision_task_DD,2021.2.3,MacIntel,59.99880002,,,,,,,,,,,0.6718,1,,,,,,,,,,,,,,z,1,0.6718,,,,,,,,0.158085937,-0.136137153,0,0,0,,0,77,77,113,1,LINEW,LB,old,z,./images/LINEWLB.png,,,,,,,,,,,,,,,,,,,,,,,,,,,,,,,,,,,
,,,,,,,,,,,,,,,,,60136d792b03b2251aeec5aa,30,2022-02-12_11h44.35.663,lexical_decision_task_DD,2021.2.3,MacIntel,59.99880002,,,,,,,,,,,0.5591,0,,,,,,,,,,,,,,m,0,0.5591,,,,,,,,0.158085937,-0.136137153,0,0,0,,0,78,78,110,1,CRUNK,LB,old,z,./images/CRUNKLB.png,,,,,,,,,,,,,,,,,,,,,,,,,,,,,,,,,,,
,,,,,,,,,,,,,,,,,60136d792b03b2251aeec5aa,30,2022-02-12_11h44.35.663,lexical_decision_task_DD,2021.2.3,MacIntel,59.99880002,,,,,,,,,,,0.7057,1,,,,,,,,,,,,,,z,1,0.7057,,,,,,,,0.158085937,-0.136137153,0,0,0,,0,79,79,149,1,VEASE,LB,old,z,./images/VEASELB.png,,,,,,,,,,,,,,,,,,,,,,,,,,,,,,,,,,,
,,,,,,,,,,,,,,,,,60136d792b03b2251aeec5aa,30,2022-02-12_11h44.35.663,lexical_decision_task_DD,2021.2.3,MacIntel,59.99880002,,,,,,,,,,,0.617,1,,,,,,,,,,,,,,z,1,0.617,,,,,,,,0.158085937,-0.136137153,0,0,0,,0,80,80,137,1,JOOST,LB,old,z,./images/JOOSTLB.png,,,,,,,,,,,,,,,,,,,,,,,,,,,,,,,,,,,
,,,,,,,,,,,,,,,,,60136d792b03b2251aeec5aa,30,2022-02-12_11h44.35.663,lexical_decision_task_DD,2021.2.3,MacIntel,59.99880002,,,,,,,,,,,0.6623,1,,,,,,,,,,,,,,z,1,0.6623,,,,,,,,0.158085937,-0.136137153,0,0,0,,0,81,81,141,1,PLEET,C,old,z,./images/PLEET.png,,,,,,,,,,,,,,,,,,,,,,,,,,,,,,,,,,,
,,,,,,,,,,,,,,,,,60136d792b03b2251aeec5aa,30,2022-02-12_11h44.35.663,lexical_decision_task_DD,2021.2.3,MacIntel,59.99880002,,,,,,,,,,,0.6561,1,,,,,,,,,,,,,,z,1,0.6561,,,,,,,,0.158085937,-0.136137153,0,0,0,,0,82,82,160,1,VEETS,HB,old,z,./images/VEETSHB.png,,,,,,,,,,,,,,,,,,,,,,,,,,,,,,,,,,,
,,,,,,,,,,,,,,,,,60136d792b03b2251aeec5aa,30,2022-02-12_11h44.35.663,lexical_decision_task_DD,2021.2.3,MacIntel,59.99880002,,,,,,,,,,,1.728,1,,,,,,,,,,,,,,z,1,1.728,,,,,,,,0.158085937,-0.136137153,0,0,0,space,0,83,83,130,1,CRILL,HB,old,z,./images/CRILLHB.png,3.8251,,,,,,,,,,,,,,,,,,,,,,,,,,,,,,,,,,
,,,,,,,,,,,,,,,,,60136d792b03b2251aeec5aa,30,2022-02-12_11h44.35.663,lexical_decision_task_DD,2021.2.3,MacIntel,59.99880002,,,,,,,,,,,1.7004,1,,,,,,,,,,,,,,z,1,1.7004,,,,,,,,0.158085937,-0.136137153,0,0,0,,0,84,84,158,1,EGECT,LB,old,z,./images/EGECTLB.png,,,,,,,,,,,,,,,,,,,,,,,,,,,,,,,,,,,
,,,,,,,,,,,,,,,,,60136d792b03b2251aeec5aa,30,2022-02-12_11h44.35.663,lexical_decision_task_DD,2021.2.3,MacIntel,59.99880002,,,,,,,,,,,0.5813,1,,,,,,,,,,,,,,m,1,0.5813,,,,,,,,0.158085937,-0.136137153,0,0,0,,0,85,85,53,1,CARPET,LB,old,m,./images/CARPETLB.png,,,,,,,,,,,,,,,,,,,,,,,,,,,,,,,,,,,
,,,,,,,,,,,,,,,,,60136d792b03b2251aeec5aa,30,2022-02-12_11h44.35.663,lexical_decision_task_DD,2021.2.3,MacIntel,59.99880002,,,,,,,,,,,0.6562,1,,,,,,,,,,,,,,m,1,0.6562,,,,,,,,0.158085937,-0.136137153,0,0,0,,0,86,86,73,1,SNACK,HB,old,m,./images/SNACKHB.png,,,,,,,,,,,,,,,,,,,,,,,,,,,,,,,,,,,
,,,,,,,,,,,,,,,,,60136d792b03b2251aeec5aa,30,2022-02-12_11h44.35.663,lexical_decision_task_DD,2021.2.3,MacIntel,59.99880002,,,,,,,,,,,0.8221,1,,,,,,,,,,,,,,z,1,0.8221,,,,,,,,0.158085937,-0.136137153,0,0,0,,0,87,87,112,1,MYING,HB,old,z,./images/MYINGHB.png,,,,,,,,,,,,,,,,,,,,,,,,,,,,,,,,,,,
,,,,,,,,,,,,,,,,,60136d792b03b2251aeec5aa,30,2022-02-12_11h44.35.663,lexical_decision_task_DD,2021.2.3,MacIntel,59.99880002,,,,,,,,,,,0.6993,1,,,,,,,,,,,,,,m,1,0.6993,,,,,,,,0.158085937,-0.136137153,0,0,0,,0,88,88,43,1,MOSQUE,HB,old,m,./images/MOSQUEHB.png,,,,,,,,,,,,,,,,,,,,,,,,,,,,,,,,,,,
,,,,,,,,,,,,,,,,,60136d792b03b2251aeec5aa,30,2022-02-12_11h44.35.663,lexical_decision_task_DD,2021.2.3,MacIntel,59.99880002,,,,,,,,,,,0.7063,1,,,,,,,,,,,,,,z,1,0.7063,,,,,,,,0.158085937,-0.136137153,0,0,0,,0,89,89,125,1,MOOKY,LB,old,z,./images/MOOKYLB.png,,,,,,,,,,,,,,,,,,,,,,,,,,,,,,,,,,,
,,,,,,,,,,,,,,,,,60136d792b03b2251aeec5aa,30,2022-02-12_11h44.35.663,lexical_decision_task_DD,2021.2.3,MacIntel,59.99880002,,,,,,,,,,,0.8113,1,,,,,,,,,,,,,,z,1,0.8113,,,,,,,,0.158085937,-0.136137153,0,0,0,,0,90,90,119,1,PAFER,LB,old,z,./images/PAFERLB.png,,,,,,,,,,,,,,,,,,,,,,,,,,,,,,,,,,,
,,,,,,,,,,,,,,,,,60136d792b03b2251aeec5aa,30,2022-02-12_11h44.35.663,lexical_decision_task_DD,2021.2.3,MacIntel,59.99880002,,,,,,,,,,,0.5353,1,,,,,,,,,,,,,,m,1,0.5353,,,,,,,,0.158085937,-0.136137153,0,0,0,,0,91,91,57,1,MOOSE,C,old,m,./images/MOOSE.png,,,,,,,,,,,,,,,,,,,,,,,,,,,,,,,,,,,
,,,,,,,,,,,,,,,,,60136d792b03b2251aeec5aa,30,2022-02-12_11h44.35.663,lexical_decision_task_DD,2021.2.3,MacIntel,59.99880002,,,,,,,,,,,1.1756,0,,,,,,,,,,,,,,z,0,1.1756,,,,,,,,0.158085937,-0.136137153,0,0,0,,0,92,92,16,1,PENCE,HB,old,m,./images/PENCEHB.png,,,,,,,,,,,,,,,,,,,,,,,,,,,,,,,,,,,
,,,,,,,,,,,,,,,,,60136d792b03b2251aeec5aa,30,2022-02-12_11h44.35.663,lexical_decision_task_DD,2021.2.3,MacIntel,59.99880002,,,,,,,,,,,0.6978,1,,,,,,,,,,,,,,z,1,0.6978,,,,,,,,0.158085937,-0.136137153,0,0,0,,0,93,93,143,1,MONGS,LB,old,z,./images/MONGSLB.png,,,,,,,,,,,,,,,,,,,,,,,,,,,,,,,,,,,
,,,,,,,,,,,,,,,,,60136d792b03b2251aeec5aa,30,2022-02-12_11h44.35.663,lexical_decision_task_DD,2021.2.3,MacIntel,59.99880002,,,,,,,,,,,0.752,1,,,,,,,,,,,,,,z,1,0.752,,,,,,,,0.158085937,-0.136137153,0,0,0,,0,94,94,124,1,TUNCH,HB,old,z,./images/TUNCHHB.png,,,,,,,,,,,,,,,,,,,,,,,,,,,,,,,,,,,
,,,,,,,,,,,,,,,,,60136d792b03b2251aeec5aa,30,2022-02-12_11h44.35.663,lexical_decision_task_DD,2021.2.3,MacIntel,59.99880002,,,,,,,,,,,0.614,1,,,,,,,,,,,,,,m,1,0.614,,,,,,,,0.158085937,-0.136137153,0,0,0,,0,95,95,13,1,MOTOR,HB,old,m,./images/MOTORHB.png,,,,,,,,,,,,,,,,,,,,,,,,,,,,,,,,,,,
,,,,,,,,,,,,,,,,,60136d792b03b2251aeec5aa,30,2022-02-12_11h44.35.663,lexical_decision_task_DD,2021.2.3,MacIntel,59.99880002,,,,,,,,,,,0.6378,1,,,,,,,,,,,,,,z,1,0.6378,,,,,,,,0.158085937,-0.136137153,0,0,0,,0,96,96,144,1,NAIRY,C,old,z,./images/NAIRY.png,,,,,,,,,,,,,,,,,,,,,,,,,,,,,,,,,,,
,,,,,,,,,,,,,,,,,60136d792b03b2251aeec5aa,30,2022-02-12_11h44.35.663,lexical_decision_task_DD,2021.2.3,MacIntel,59.99880002,,,,,,,,,,,0.9304,1,,,,,,,,,,,,,,z,1,0.9304,,,,,,,,0.158085937,-0.136137153,0,0,0,,0,97,97,85,1,CHULK,HB,old,z,./images/CHULKHB.png,,,,,,,,,,,,,,,,,,,,,,,,,,,,,,,,,,,
,,,,,,,,,,,,,,,,,60136d792b03b2251aeec5aa,30,2022-02-12_11h44.35.663,lexical_decision_task_DD,2021.2.3,MacIntel,59.99880002,,,,,,,,,,,0.6,1,,,,,,,,,,,,,,m,1,0.6,,,,,,,,0.158085937,-0.136137153,0,0,0,,0,98,98,32,1,BARREL,LB,old,m,./images/BARRELLB.png,,,,,,,,,,,,,,,,,,,,,,,,,,,,,,,,,,,
,,,,,,,,,,,,,,,,,60136d792b03b2251aeec5aa,30,2022-02-12_11h44.35.663,lexical_decision_task_DD,2021.2.3,MacIntel,59.99880002,,,,,,,,,,,0.5666,1,,,,,,,,,,,,,,m,1,0.5666,,,,,,,,0.158085937,-0.136137153,0,0,0,,0,99,99,59,1,BURIAL,LB,old,m,./images/BURIALLB.png,,,,,,,,,,,,,,,,,,,,,,,,,,,,,,,,,,,
,,,,,,,,,,,,,,,,,60136d792b03b2251aeec5aa,30,2022-02-12_11h44.35.663,lexical_decision_task_DD,2021.2.3,MacIntel,59.99880002,,,,,,,,,,,0.4957,1,,,,,,,,,,,,,,m,1,0.4957,,,,,,,,0.158085937,-0.136137153,0,0,0,,0,100,100,45,1,KITTEN,C,old,m,./images/KITTEN.png,,,,,,,,,,,,,,,,,,,,,,,,,,,,,,,,,,,
,,,,,,,,,,,,,,,,,60136d792b03b2251aeec5aa,30,2022-02-12_11h44.35.663,lexical_decision_task_DD,2021.2.3,MacIntel,59.99880002,,,,,,,,,,,0.6427,1,,,,,,,,,,,,,,z,1,0.6427,,,,,,,,0.158085937,-0.136137153,0,0,0,,0,101,101,117,1,STEEG,C,old,z,./images/STEEG.png,,,,,,,,,,,,,,,,,,,,,,,,,,,,,,,,,,,
,,,,,,,,,,,,,,,,,60136d792b03b2251aeec5aa,30,2022-02-12_11h44.35.663,lexical_decision_task_DD,2021.2.3,MacIntel,59.99880002,,,,,,,,,,,0.5004,1,,,,,,,,,,,,,,m,1,0.5004,,,,,,,,0.158085937,-0.136137153,0,0,0,,0,102,102,11,1,BONNET,LB,old,m,./images/BONNETLB.png,,,,,,,,,,,,,,,,,,,,,,,,,,,,,,,,,,,
,,,,,,,,,,,,,,,,,60136d792b03b2251aeec5aa,30,2022-02-12_11h44.35.663,lexical_decision_task_DD,2021.2.3,MacIntel,59.99880002,,,,,,,,,,,0.6316,1,,,,,,,,,,,,,,m,1,0.6316,,,,,,,,0.158085937,-0.136137153,0,0,0,,0,103,103,52,1,BANNER,HB,old,m,./images/BANNERHB.png,,,,,,,,,,,,,,,,,,,,,,,,,,,,,,,,,,,
,,,,,,,,,,,,,,,,,60136d792b03b2251aeec5aa,30,2022-02-12_11h44.35.663,lexical_decision_task_DD,2021.2.3,MacIntel,59.99880002,,,,,,,,,,,0.6372,1,,,,,,,,,,,,,,z,1,0.6372,,,,,,,,0.158085937,-0.136137153,0,0,0,,0,104,104,165,1,TROWN,C,old,z,./images/TROWN.png,,,,,,,,,,,,,,,,,,,,,,,,,,,,,,,,,,,
,,,,,,,,,,,,,,,,,60136d792b03b2251aeec5aa,30,2022-02-12_11h44.35.663,lexical_decision_task_DD,2021.2.3,MacIntel,59.99880002,,,,,,,,,,,0.5555,1,,,,,,,,,,,,,,m,1,0.5555,,,,,,,,0.158085937,-0.136137153,0,0,0,,0,105,105,39,1,SHELF,C,old,m,./images/SHELF.png,,,,,,,,,,,,,,,,,,,,,,,,,,,,,,,,,,,
,,,,,,,,,,,,,,,,,60136d792b03b2251aeec5aa,30,2022-02-12_11h44.35.663,lexical_decision_task_DD,2021.2.3,MacIntel,59.99880002,,,,,,,,,,,0.9988,1,,,,,,,,,,,,,,z,1,0.9988,,,,,,,,0.158085937,-0.136137153,0,0,0,,0,106,106,152,1,FRAIN,LB,old,z,./images/FRAINLB.png,,,,,,,,,,,,,,,,,,,,,,,,,,,,,,,,,,,
,,,,,,,,,,,,,,,,,60136d792b03b2251aeec5aa,30,2022-02-12_11h44.35.663,lexical_decision_task_DD,2021.2.3,MacIntel,59.99880002,,,,,,,,,,,0.589,1,,,,,,,,,,,,,,m,1,0.589,,,,,,,,0.158085937,-0.136137153,0,0,0,,0,107,107,35,1,PEACH,LB,old,m,./images/PEACHLB.png,,,,,,,,,,,,,,,,,,,,,,,,,,,,,,,,,,,
,,,,,,,,,,,,,,,,,60136d792b03b2251aeec5aa,30,2022-02-12_11h44.35.663,lexical_decision_task_DD,2021.2.3,MacIntel,59.99880002,,,,,,,,,,,0.6533,1,,,,,,,,,,,,,,m,1,0.6533,,,,,,,,0.158085937,-0.136137153,0,0,0,,0,108,108,5,1,PASTA,LB,old,m,./images/PASTALB.png,,,,,,,,,,,,,,,,,,,,,,,,,,,,,,,,,,,
,,,,,,,,,,,,,,,,,60136d792b03b2251aeec5aa,30,2022-02-12_11h44.35.663,lexical_decision_task_DD,2021.2.3,MacIntel,59.99880002,,,,,,,,,,,0.6458,0,,,,,,,,,,,,,,z,0,0.6458,,,,,,,,0.158085937,-0.136137153,0,0,0,,0,109,109,28,1,FALCON,HB,old,m,./images/FALCONHB.png,,,,,,,,,,,,,,,,,,,,,,,,,,,,,,,,,,,
,,,,,,,,,,,,,,,,,60136d792b03b2251aeec5aa,30,2022-02-12_11h44.35.663,lexical_decision_task_DD,2021.2.3,MacIntel,59.99880002,,,,,,,,,,,0.8209,1,,,,,,,,,,,,,,z,1,0.8209,,,,,,,,0.158085937,-0.136137153,0,0,0,,0,110,110,145,1,LAMEL,HB,old,z,./images/LAMELHB.png,,,,,,,,,,,,,,,,,,,,,,,,,,,,,,,,,,,
,,,,,,,,,,,,,,,,,60136d792b03b2251aeec5aa,30,2022-02-12_11h44.35.663,lexical_decision_task_DD,2021.2.3,MacIntel,59.99880002,,,,,,,,,,,1.2307,1,,,,,,,,,,,,,,z,1,1.2307,,,,,,,,0.158085937,-0.136137153,0,0,0,,0,111,111,94,1,BLANS,HB,old,z,./images/BLANSHB.png,,,,,,,,,,,,,,,,,,,,,,,,,,,,,,,,,,,
,,,,,,,,,,,,,,,,,60136d792b03b2251aeec5aa,30,2022-02-12_11h44.35.663,lexical_decision_task_DD,2021.2.3,MacIntel,59.99880002,,,,,,,,,,,0.5185,1,,,,,,,,,,,,,,m,1,0.5185,,,,,,,,0.158085937,-0.136137153,0,0,0,,0,112,112,0,1,TOMATO,C,old,m,./images/TOMATO.png,,,,,,,,,,,,,,,,,,,,,,,,,,,,,,,,,,,
,,,,,,,,,,,,,,,,,60136d792b03b2251aeec5aa,30,2022-02-12_11h44.35.663,lexical_decision_task_DD,2021.2.3,MacIntel,59.99880002,,,,,,,,,,,0.8804,1,,,,,,,,,,,,,,m,1,0.8804,,,,,,,,0.158085937,-0.136137153,0,0,0,,0,113,113,25,1,WRIST,HB,old,m,./images/WRISTHB.png,,,,,,,,,,,,,,,,,,,,,,,,,,,,,,,,,,,
,,,,,,,,,,,,,,,,,60136d792b03b2251aeec5aa,30,2022-02-12_11h44.35.663,lexical_decision_task_DD,2021.2.3,MacIntel,59.99880002,,,,,,,,,,,0.6267,1,,,,,,,,,,,,,,z,1,0.6267,,,,,,,,0.158085937,-0.136137153,0,0,0,,0,114,114,111,1,HOSSE,C,old,z,./images/HOSSE.png,,,,,,,,,,,,,,,,,,,,,,,,,,,,,,,,,,,
,,,,,,,,,,,,,,,,,60136d792b03b2251aeec5aa,30,2022-02-12_11h44.35.663,lexical_decision_task_DD,2021.2.3,MacIntel,59.99880002,,,,,,,,,,,0.6208,1,,,,,,,,,,,,,,z,1,0.6208,,,,,,,,0.158085937,-0.136137153,0,0,0,,0,115,115,132,1,SCIFF,C,old,z,./images/SCIFF.png,,,,,,,,,,,,,,,,,,,,,,,,,,,,,,,,,,,
,,,,,,,,,,,,,,,,,60136d792b03b2251aeec5aa,30,2022-02-12_11h44.35.663,lexical_decision_task_DD,2021.2.3,MacIntel,59.99880002,,,,,,,,,,,0.6797,1,,,,,,,,,,,,,,m,1,0.6797,,,,,,,,0.158085937,-0.136137153,0,0,0,,0,116,116,48,1,SPORT,C,old,m,./images/SPORT.png,,,,,,,,,,,,,,,,,,,,,,,,,,,,,,,,,,,
,,,,,,,,,,,,,,,,,60136d792b03b2251aeec5aa,30,2022-02-12_11h44.35.663,lexical_decision_task_DD,2021.2.3,MacIntel,59.99880002,,,,,,,,,,,0.7055,1,,,,,,,,,,,,,,m,1,0.7055,,,,,,,,0.158085937,-0.136137153,0,0,0,,0,117,117,10,1,BELLY,HB,old,m,./images/BELLYHB.png,,,,,,,,,,,,,,,,,,,,,,,,,,,,,,,,,,,
,,,,,,,,,,,,,,,,,60136d792b03b2251aeec5aa,30,2022-02-12_11h44.35.663,lexical_decision_task_DD,2021.2.3,MacIntel,59.99880002,,,,,,,,,,,1.1718,1,,,,,,,,,,,,,,z,1,1.1718,,,,,,,,0.158085937,-0.136137153,0,0,0,,0,118,118,97,1,CHIDS,HB,old,z,./images/CHIDSHB.png,,,,,,,,,,,,,,,,,,,,,,,,,,,,,,,,,,,
,,,,,,,,,,,,,,,,,60136d792b03b2251aeec5aa,30,2022-02-12_11h44.35.663,lexical_decision_task_DD,2021.2.3,MacIntel,59.99880002,,,,,,,,,,,0.6322,1,,,,,,,,,,,,,,m,1,0.6322,,,,,,,,0.158085937,-0.136137153,0,0,0,,0,119,119,7,1,PAINT,HB,old,m,./images/PAINTHB.png,,,,,,,,,,,,,,,,,,,,,,,,,,,,,,,,,,,
,,,,,,,,,,,,,,,,,60136d792b03b2251aeec5aa,30,2022-02-12_11h44.35.663,lexical_decision_task_DD,2021.2.3,MacIntel,59.99880002,,,,,,,,,,,0.6022,1,,,,,,,,,,,,,,m,1,0.6022,,,,,,,,0.158085937,-0.136137153,0,0,0,,0,120,120,12,1,SHORE,C,old,m,./images/SHORE.png,,,,,,,,,,,,,,,,,,,,,,,,,,,,,,,,,,,
,,,,,,,,,,,,,,,,,60136d792b03b2251aeec5aa,30,2022-02-12_11h44.35.663,lexical_decision_task_DD,2021.2.3,MacIntel,59.99880002,,,,,,,,,,,0.6986,1,,,,,,,,,,,,,,z,1,0.6986,,,,,,,,0.158085937,-0.136137153,0,0,0,,0,121,121,146,1,MOOST,LB,old,z,./images/MOOSTLB.png,,,,,,,,,,,,,,,,,,,,,,,,,,,,,,,,,,,
,,,,,,,,,,,,,,,,,60136d792b03b2251aeec5aa,30,2022-02-12_11h44.35.663,lexical_decision_task_DD,2021.2.3,MacIntel,59.99880002,,,,,,,,,,,0.6892,1,,,,,,,,,,,,,,m,1,0.6892,,,,,,,,0.158085937,-0.136137153,0,0,0,,0,122,122,69,1,COOKER,C,old,m,./images/COOKER.png,,,,,,,,,,,,,,,,,,,,,,,,,,,,,,,,,,,
,,,,,,,,,,,,,,,,,60136d792b03b2251aeec5aa,30,2022-02-12_11h44.35.663,lexical_decision_task_DD,2021.2.3,MacIntel,59.99880002,,,,,,,,,,,0.6381,1,,,,,,,,,,,,,,m,1,0.6381,,,,,,,,0.158085937,-0.136137153,0,0,0,,0,123,123,72,1,NOOSE,C,old,m,./images/NOOSE.png,,,,,,,,,,,,,,,,,,,,,,,,,,,,,,,,,,,
,,,,,,,,,,,,,,,,,60136d792b03b2251aeec5aa,30,2022-02-12_11h44.35.663,lexical_decision_task_DD,2021.2.3,MacIntel,59.99880002,,,,,,,,,,,0.4917,1,,,,,,,,,,,,,,m,1,0.4917,,,,,,,,0.158085937,-0.136137153,0,0,0,,0,124,124,42,1,FOLDER,C,old,m,./images/FOLDER.png,,,,,,,,,,,,,,,,,,,,,,,,,,,,,,,,,,,
,,,,,,,,,,,,,,,,,60136d792b03b2251aeec5aa,30,2022-02-12_11h44.35.663,lexical_decision_task_DD,2021.2.3,MacIntel,59.99880002,,,,,,,,,,,0.8469,1,,,,,,,,,,,,,,z,1,0.8469,,,,,,,,0.158085937,-0.136137153,0,0,0,space,0,125,125,133,1,POWDY,HB,old,z,./images/POWDYHB.png,1.8864,,,,,,,,,,,,,,,,,,,,,,,,,,,,,,,,,,
,,,,,,,,,,,,,,,,,60136d792b03b2251aeec5aa,30,2022-02-12_11h44.35.663,lexical_decision_task_DD,2021.2.3,MacIntel,59.99880002,,,,,,,,,,,1.07,0,,,,,,,,,,,,,,m,0,1.07,,,,,,,,0.158085937,-0.136137153,0,0,0,,0,126,126,109,1,BURGE,HB,old,z,./images/BURGEHB.png,,,,,,,,,,,,,,,,,,,,,,,,,,,,,,,,,,,
,,,,,,,,,,,,,,,,,60136d792b03b2251aeec5aa,30,2022-02-12_11h44.35.663,lexical_decision_task_DD,2021.2.3,MacIntel,59.99880002,,,,,,,,,,,0.5746,1,,,,,,,,,,,,,,m,1,0.5746,,,,,,,,0.158085937,-0.136137153,0,0,0,,0,127,127,8,1,TULIP,LB,old,m,./images/TULIPLB.png,,,,,,,,,,,,,,,,,,,,,,,,,,,,,,,,,,,
,,,,,,,,,,,,,,,,,60136d792b03b2251aeec5aa,30,2022-02-12_11h44.35.663,lexical_decision_task_DD,2021.2.3,MacIntel,59.99880002,,,,,,,,,,,0.546,1,,,,,,,,,,,,,,m,1,0.546,,,,,,,,0.158085937,-0.136137153,0,0,0,,0,128,128,3,1,FINGER,C,old,m,./images/FINGER.png,,,,,,,,,,,,,,,,,,,,,,,,,,,,,,,,,,,
,,,,,,,,,,,,,,,,,60136d792b03b2251aeec5aa,30,2022-02-12_11h44.35.663,lexical_decision_task_DD,2021.2.3,MacIntel,59.99880002,,,,,,,,,,,0.6348,1,,,,,,,,,,,,,,z,1,0.6348,,,,,,,,0.158085937,-0.136137153,0,0,0,,0,129,129,120,1,RINED,C,old,z,./images/RINED.png,,,,,,,,,,,,,,,,,,,,,,,,,,,,,,,,,,,
,,,,,,,,,,,,,,,,,60136d792b03b2251aeec5aa,30,2022-02-12_11h44.35.663,lexical_decision_task_DD,2021.2.3,MacIntel,59.99880002,,,,,,,,,,,0.8858,1,,,,,,,,,,,,,,z,1,0.8858,,,,,,,,0.158085937,-0.136137153,0,0,0,,0,130,130,91,1,SHENS,HB,old,z,./images/SHENSHB.png,,,,,,,,,,,,,,,,,,,,,,,,,,,,,,,,,,,
,,,,,,,,,,,,,,,,,60136d792b03b2251aeec5aa,30,2022-02-12_11h44.35.663,lexical_decision_task_DD,2021.2.3,MacIntel,59.99880002,,,,,,,,,,,0.5058,1,,,,,,,,,,,,,,m,1,0.5058,,,,,,,,0.158085937,-0.136137153,0,0,0,,0,131,131,38,1,LADDER,LB,old,m,./images/LADDERLB.png,,,,,,,,,,,,,,,,,,,,,,,,,,,,,,,,,,,
,,,,,,,,,,,,,,,,,60136d792b03b2251aeec5aa,30,2022-02-12_11h44.35.663,lexical_decision_task_DD,2021.2.3,MacIntel,59.99880002,,,,,,,,,,,0.5551,1,,,,,,,,,,,,,,m,1,0.5551,,,,,,,,0.158085937,-0.136137153,0,0,0,,0,132,132,63,1,MIRROR,C,old,m,./images/MIRROR.png,,,,,,,,,,,,,,,,,,,,,,,,,,,,,,,,,,,
,,,,,,,,,,,,,,,,,60136d792b03b2251aeec5aa,30,2022-02-12_11h44.35.663,lexical_decision_task_DD,2021.2.3,MacIntel,59.99880002,,,,,,,,,,,0.6366,1,,,,,,,,,,,,,,z,1,0.6366,,,,,,,,0.158085937,-0.136137153,0,0,0,,0,133,133,155,1,CANGY,LB,old,z,./images/CANGYLB.png,,,,,,,,,,,,,,,,,,,,,,,,,,,,,,,,,,,
,,,,,,,,,,,,,,,,,60136d792b03b2251aeec5aa,30,2022-02-12_11h44.35.663,lexical_decision_task_DD,2021.2.3,MacIntel,59.99880002,,,,,,,,,,,0.5357,1,,,,,,,,,,,,,,m,1,0.5357,,,,,,,,0.158085937,-0.136137153,0,0,0,,0,134,134,24,1,SCREW,C,old,m,./images/SCREW.png,,,,,,,,,,,,,,,,,,,,,,,,,,,,,,,,,,,
,,,,,,,,,,,,,,,,,60136d792b03b2251aeec5aa,30,2022-02-12_11h44.35.663,lexical_decision_task_DD,2021.2.3,MacIntel,59.99880002,,,,,,,,,,,0.7232,1,,,,,,,,,,,,,,m,1,0.7232,,,,,,,,0.158085937,-0.136137153,0,0,0,,0,135,135,14,1,PICKLE,LB,old,m,./images/PICKLELB.png,,,,,,,,,,,,,,,,,,,,,,,,,,,,,,,,,,,
,,,,,,,,,,,,,,,,,60136d792b03b2251aeec5aa,30,2022-02-12_11h44.35.663,lexical_decision_task_DD,2021.2.3,MacIntel,59.99880002,,,,,,,,,,,0.7354,1,,,,,,,,,,,,,,z,1,0.7354,,,,,,,,0.158085937,-0.136137153,0,0,0,,0,136,136,92,1,PAIMS,LB,old,z,./images/PAIMSLB.png,,,,,,,,,,,,,,,,,,,,,,,,,,,,,,,,,,,
,,,,,,,,,,,,,,,,,60136d792b03b2251aeec5aa,30,2022-02-12_11h44.35.663,lexical_decision_task_DD,2021.2.3,MacIntel,59.99880002,,,,,,,,,,,1.4501,1,,,,,,,,,,,,,,z,1,1.4501,,,,,,,,0.158085937,-0.136137153,0,0,0,,0,137,137,166,1,SHORY,HB,old,z,./images/SHORYHB.png,,,,,,,,,,,,,,,,,,,,,,,,,,,,,,,,,,,
,,,,,,,,,,,,,,,,,60136d792b03b2251aeec5aa,30,2022-02-12_11h44.35.663,lexical_decision_task_DD,2021.2.3,MacIntel,59.99880002,,,,,,,,,,,0.7237,1,,,,,,,,,,,,,,z,1,0.7237,,,,,,,,0.158085937,-0.136137153,0,0,0,,0,138,138,154,1,THINT,HB,old,z,./images/THINTHB.png,,,,,,,,,,,,,,,,,,,,,,,,,,,,,,,,,,,
,,,,,,,,,,,,,,,,,60136d792b03b2251aeec5aa,30,2022-02-12_11h44.35.663,lexical_decision_task_DD,2021.2.3,MacIntel,59.99880002,,,,,,,,,,,0.6516,1,,,,,,,,,,,,,,z,1,0.6516,,,,,,,,0.158085937,-0.136137153,0,0,0,,0,139,139,156,1,HIXES,C,old,z,./images/HIXES.png,,,,,,,,,,,,,,,,,,,,,,,,,,,,,,,,,,,
,,,,,,,,,,,,,,,,,60136d792b03b2251aeec5aa,30,2022-02-12_11h44.35.663,lexical_decision_task_DD,2021.2.3,MacIntel,59.99880002,,,,,,,,,,,0.5693,1,,,,,,,,,,,,,,m,1,0.5693,,,,,,,,0.158085937,-0.136137153,0,0,0,,0,140,140,9,1,RHINO,C,old,m,./images/RHINO.png,,,,,,,,,,,,,,,,,,,,,,,,,,,,,,,,,,,
,,,,,,,,,,,,,,,,,60136d792b03b2251aeec5aa,30,2022-02-12_11h44.35.663,lexical_decision_task_DD,2021.2.3,MacIntel,59.99880002,,,,,,,,,,,0.8846,0,,,,,,,,,,,,,,m,0,0.8846,,,,,,,,0.158085937,-0.136137153,0,0,0,,0,141,141,123,1,SEDGE,C,old,z,./images/SEDGE.png,,,,,,,,,,,,,,,,,,,,,,,,,,,,,,,,,,,
,,,,,,,,,,,,,,,,,60136d792b03b2251aeec5aa,30,2022-02-12_11h44.35.663,lexical_decision_task_DD,2021.2.3,MacIntel,59.99880002,,,,,,,,,,,0.5305,1,,,,,,,,,,,,,,m,1,0.5305,,,,,,,,0.158085937,-0.136137153,0,0,0,,0,142,142,80,1,WEASEL,LB,old,m,./images/WEASELLB.png,,,,,,,,,,,,,,,,,,,,,,,,,,,,,,,,,,,
,,,,,,,,,,,,,,,,,60136d792b03b2251aeec5aa,30,2022-02-12_11h44.35.663,lexical_decision_task_DD,2021.2.3,MacIntel,59.99880002,,,,,,,,,,,0.9846,1,,,,,,,,,,,,,,z,1,0.9846,,,,,,,,0.158085937,-0.136137153,0,0,0,,0,143,143,163,1,GAMBA,HB,old,z,./images/GAMBAHB.png,,,,,,,,,,,,,,,,,,,,,,,,,,,,,,,,,,,
,,,,,,,,,,,,,,,,,60136d792b03b2251aeec5aa,30,2022-02-12_11h44.35.663,lexical_decision_task_DD,2021.2.3,MacIntel,59.99880002,,,,,,,,,,,0.7134,1,,,,,,,,,,,,,,m,1,0.7134,,,,,,,,0.158085937,-0.136137153,0,0,0,,0,144,144,34,1,CANYON,HB,old,m,./images/CANYONHB.png,,,,,,,,,,,,,,,,,,,,,,,,,,,,,,,,,,,
,,,,,,,,,,,,,,,,,60136d792b03b2251aeec5aa,30,2022-02-12_11h44.35.663,lexical_decision_task_DD,2021.2.3,MacIntel,59.99880002,,,,,,,,,,,0.4886,1,,,,,,,,,,,,,,m,1,0.4886,,,,,,,,0.158085937,-0.136137153,0,0,0,,0,145,145,21,1,KIDNEY,C,old,m,./images/KIDNEY.png,,,,,,,,,,,,,,,,,,,,,,,,,,,,,,,,,,,
,,,,,,,,,,,,,,,,,60136d792b03b2251aeec5aa,30,2022-02-12_11h44.35.663,lexical_decision_task_DD,2021.2.3,MacIntel,59.99880002,,,,,,,,,,,1.1633,1,,,,,,,,,,,,,,z,1,1.1633,,,,,,,,0.158085937,-0.136137153,0,0,0,,0,146,146,139,1,BLEAR,HB,old,z,./images/BLEARHB.png,,,,,,,,,,,,,,,,,,,,,,,,,,,,,,,,,,,
,,,,,,,,,,,,,,,,,60136d792b03b2251aeec5aa,30,2022-02-12_11h44.35.663,lexical_decision_task_DD,2021.2.3,MacIntel,59.99880002,,,,,,,,,,,1.2496,0,,,,,,,,,,,,,,m,0,1.2496,,,,,,,,0.158085937,-0.136137153,0,0,0,,0,147,147,88,1,GLUSH,HB,old,z,./images/GLUSHHB.png,,,,,,,,,,,,,,,,,,,,,,,,,,,,,,,,,,,
,,,,,,,,,,,,,,,,,60136d792b03b2251aeec5aa,30,2022-02-12_11h44.35.663,lexical_decision_task_DD,2021.2.3,MacIntel,59.99880002,,,,,,,,,,,0.5383,1,,,,,,,,,,,,,,m,1,0.5383,,,,,,,,0.158085937,-0.136137153,0,0,0,,0,148,148,54,1,TRIPOD,C,old,m,./images/TRIPOD.png,,,,,,,,,,,,,,,,,,,,,,,,,,,,,,,,,,,
,,,,,,,,,,,,,,,,,60136d792b03b2251aeec5aa,30,2022-02-12_11h44.35.663,lexical_decision_task_DD,2021.2.3,MacIntel,59.99880002,,,,,,,,,,,0.5357,1,,,,,,,,,,,,,,m,1,0.5357,,,,,,,,0.158085937,-0.136137153,0,0,0,,0,149,149,33,1,MAGGOT,C,old,m,./images/MAGGOT.png,,,,,,,,,,,,,,,,,,,,,,,,,,,,,,,,,,,
,,,,,,,,,,,,,,,,,60136d792b03b2251aeec5aa,30,2022-02-12_11h44.35.663,lexical_decision_task_DD,2021.2.3,MacIntel,59.99880002,,,,,,,,,,,0.4601,1,,,,,,,,,,,,,,m,1,0.4601,,,,,,,,0.158085937,-0.136137153,0,0,0,,0,150,150,66,1,SWEAT,C,old,m,./images/SWEAT.png,,,,,,,,,,,,,,,,,,,,,,,,,,,,,,,,,,,
,,,,,,,,,,,,,,,,,60136d792b03b2251aeec5aa,30,2022-02-12_11h44.35.663,lexical_decision_task_DD,2021.2.3,MacIntel,59.99880002,,,,,,,,,,,0.7659,1,,,,,,,,,,,,,,z,1,0.7659,,,,,,,,0.158085937,-0.136137153,0,0,0,,0,151,151,98,1,BAMPS,LB,old,z,./images/BAMPSLB.png,,,,,,,,,,,,,,,,,,,,,,,,,,,,,,,,,,,
,,,,,,,,,,,,,,,,,60136d792b03b2251aeec5aa,30,2022-02-12_11h44.35.663,lexical_decision_task_DD,2021.2.3,MacIntel,59.99880002,,,,,,,,,,,0.8393,1,,,,,,,,,,,,,,z,1,0.8393,,,,,,,,0.158085937,-0.136137153,0,0,0,,0,152,152,162,1,LEICH,C,old,z,./images/LEICH.png,,,,,,,,,,,,,,,,,,,,,,,,,,,,,,,,,,,
,,,,,,,,,,,,,,,,,60136d792b03b2251aeec5aa,30,2022-02-12_11h44.35.663,lexical_decision_task_DD,2021.2.3,MacIntel,59.99880002,,,,,,,,,,,0.9645,0,,,,,,,,,,,,,,m,0,0.9645,,,,,,,,0.158085937,-0.136137153,0,0,0,,0,153,153,118,1,BAVEL,HB,old,z,./images/BAVELHB.png,,,,,,,,,,,,,,,,,,,,,,,,,,,,,,,,,,,
,,,,,,,,,,,,,,,,,60136d792b03b2251aeec5aa,30,2022-02-12_11h44.35.663,lexical_decision_task_DD,2021.2.3,MacIntel,59.99880002,,,,,,,,,,,0.7896,1,,,,,,,,,,,,,,z,1,0.7896,,,,,,,,0.158085937,-0.136137153,0,0,0,,0,154,154,121,1,CEERS,HB,old,z,./images/CEERSHB.png,,,,,,,,,,,,,,,,,,,,,,,,,,,,,,,,,,,
,,,,,,,,,,,,,,,,,60136d792b03b2251aeec5aa,30,2022-02-12_11h44.35.663,lexical_decision_task_DD,2021.2.3,MacIntel,59.99880002,,,,,,,,,,,0.4542,0,,,,,,,,,,,,,,m,0,0.4542,,,,,,,,0.158085937,-0.136137153,0,0,0,,0,155,155,114,1,RIKES,C,old,z,./images/RIKES.png,,,,,,,,,,,,,,,,,,,,,,,,,,,,,,,,,,,
,,,,,,,,,,,,,,,,,60136d792b03b2251aeec5aa,30,2022-02-12_11h44.35.663,lexical_decision_task_DD,2021.2.3,MacIntel,59.99880002,,,,,,,,,,,1.5514,1,,,,,,,,,,,,,,z,1,1.5514,,,,,,,,0.158085937,-0.136137153,0,0,0,,0,156,156,105,1,MOKER,C,old,z,./images/MOKER.png,,,,,,,,,,,,,,,,,,,,,,,,,,,,,,,,,,,
,,,,,,,,,,,,,,,,,60136d792b03b2251aeec5aa,30,2022-02-12_11h44.35.663,lexical_decision_task_DD,2021.2.3,MacIntel,59.99880002,,,,,,,,,,,0.8576,1,,,,,,,,,,,,,,z,1,0.8576,,,,,,,,0.158085937,-0.136137153,0,0,0,,0,157,157,102,1,DULLE,C,old,z,./images/DULLE.png,,,,,,,,,,,,,,,,,,,,,,,,,,,,,,,,,,,
,,,,,,,,,,,,,,,,,60136d792b03b2251aeec5aa,30,2022-02-12_11h44.35.663,lexical_decision_task_DD,2021.2.3,MacIntel,59.99880002,,,,,,,,,,,0.6051,1,,,,,,,,,,,,,,m,1,0.6051,,,,,,,,0.158085937,-0.136137153,0,0,0,,0,158,158,40,1,SWING,HB,old,m,./images/SWINGHB.png,,,,,,,,,,,,,,,,,,,,,,,,,,,,,,,,,,,
,,,,,,,,,,,,,,,,,60136d792b03b2251aeec5aa,30,2022-02-12_11h44.35.663,lexical_decision_task_DD,2021.2.3,MacIntel,59.99880002,,,,,,,,,,,0.4993,1,,,,,,,,,,,,,,m,1,0.4993,,,,,,,,0.158085937,-0.136137153,0,0,0,,0,159,159,6,1,SQUARE,C,old,m,./images/SQUARE.png,,,,,,,,,,,,,,,,,,,,,,,,,,,,,,,,,,,
,,,,,,,,,,,,,,,,,60136d792b03b2251aeec5aa,30,2022-02-12_11h44.35.663,lexical_decision_task_DD,2021.2.3,MacIntel,59.99880002,,,,,,,,,,,0.813,1,,,,,,,,,,,,,,m,1,0.813,,,,,,,,0.158085937,-0.136137153,0,0,0,,0,160,160,76,1,INFANT,HB,old,m,./images/INFANTHB.png,,,,,,,,,,,,,,,,,,,,,,,,,,,,,,,,,,,
,,,,,,,,,,,,,,,,,60136d792b03b2251aeec5aa,30,2022-02-12_11h44.35.663,lexical_decision_task_DD,2021.2.3,MacIntel,59.99880002,,,,,,,,,,,0.7184,1,,,,,,,,,,,,,,z,1,0.7184,,,,,,,,0.158085937,-0.136137153,0,0,0,,0,161,161,157,1,INLER,HB,old,z,./images/INLERHB.png,,,,,,,,,,,,,,,,,,,,,,,,,,,,,,,,,,,
,,,,,,,,,,,,,,,,,60136d792b03b2251aeec5aa,30,2022-02-12_11h44.35.663,lexical_decision_task_DD,2021.2.3,MacIntel,59.99880002,,,,,,,,,,,1.1943,1,,,,,,,,,,,,,,z,1,1.1943,,,,,,,,0.158085937,-0.136137153,0,0,0,,0,162,162,129,1,PRANS,C,old,z,./images/PRANS.png,,,,,,,,,,,,,,,,,,,,,,,,,,,,,,,,,,,
,,,,,,,,,,,,,,,,,60136d792b03b2251aeec5aa,30,2022-02-12_11h44.35.663,lexical_decision_task_DD,2021.2.3,MacIntel,59.99880002,,,,,,,,,,,1.021,1,,,,,,,,,,,,,,m,1,1.021,,,,,,,,0.158085937,-0.136137153,0,0,0,,0,163,163,70,1,URINE,HB,old,m,./images/URINEHB.png,,,,,,,,,,,,,,,,,,,,,,,,,,,,,,,,,,,
,,,,,,,,,,,,,,,,,60136d792b03b2251aeec5aa,30,2022-02-12_11h44.35.663,lexical_decision_task_DD,2021.2.3,MacIntel,59.99880002,,,,,,,,,,,1.469,1,,,,,,,,,,,,,,z,1,1.469,,,,,,,,0.158085937,-0.136137153,0,0,0,,0,164,164,100,1,DRIBS,HB,old,z,./images/DRIBSHB.png,,,,,,,,,,,,,,,,,,,,,,,,,,,,,,,,,,,
,,,,,,,,,,,,,,,,,60136d792b03b2251aeec5aa,30,2022-02-12_11h44.35.663,lexical_decision_task_DD,2021.2.3,MacIntel,59.99880002,,,,,,,,,,,0.5053,1,,,,,,,,,,,,,,m,1,0.5053,,,,,,,,0.158085937,-0.136137153,0,0,0,,0,165,165,26,1,SMOKER,LB,old,m,./images/SMOKERLB.png,,,,,,,,,,,,,,,,,,,,,,,,,,,,,,,,,,,
,,,,,,,,,,,,,,,,,60136d792b03b2251aeec5aa,30,2022-02-12_11h44.35.663,lexical_decision_task_DD,2021.2.3,MacIntel,59.99880002,,,,,,,,,,,0.8183,1,,,,,,,,,,,,,,z,1,0.8183,,,,,,,,0.158085937,-0.136137153,0,0,0,,0,166,166,159,1,CUDDY,C,old,z,./images/CUDDY.png,,,,,,,,,,,,,,,,,,,,,,,,,,,,,,,,,,,
,,,,,,,,,,,,,,,,,60136d792b03b2251aeec5aa,30,2022-02-12_11h44.35.663,lexical_decision_task_DD,2021.2.3,MacIntel,59.99880002,,,,,,,,,,,1.0554,1,,,,,,,,,,,,,,m,1,1.0554,,,,,,,,0.158085937,-0.136137153,0,0,0,,0,167,167,56,1,PACKET,LB,old,m,./images/PACKETLB.png,,,,,,,,,,,,,,,,,,,,,,,,,,,,,,,,,,,
,,,,,,,,,,,,,,,,,60136d792b03b2251aeec5aa,30,2022-02-12_11h44.35.663,lexical_decision_task_DD,2021.2.3,MacIntel,59.99880002,,,,,,,,,,,,,,,,,,,,,,,,,,,,,,,,,,,,,,,,,,,,,,,,How likely will it be that you will recognize the words presented clearly on a scale of 0 (not likely) to 100 (most likely)?,,,,,-0.00047309,-0.390212674,1,0,0,jol_adv,3,5.8559,0,0,0,0,1,,,,,,,,,,,,,,,,,,,,,
,,,,,,,,,,,,,,,,,60136d792b03b2251aeec5aa,30,2022-02-12_11h44.35.663,lexical_decision_task_DD,2021.2.3,MacIntel,59.99880002,,,,,,,,,,,,,,,,,,,,,,,,,,,,,,,,,,,,,,,,,,,,,,,,How likely will it be that you will recognize the words presented slighly blurred on a scale of 0 (not likely) to 100 (most likely)?,,,,,,,,,,,4,3.9554,0,1,1,1,1,,,,,,,,,,,,,,,,,,,,,
,,,,,,,,,,,,,,,,,60136d792b03b2251aeec5aa,30,2022-02-12_11h44.35.663,lexical_decision_task_DD,2021.2.3,MacIntel,59.99880002,,,,,,,,,,,,,,,,,,,,,,,,,,,,,,,,,,,,,,,,,,,,,,,,How likely will it be that you will recognize the words presented very blurred on a scale of 0 (not likely) to 100 (most likely)?,,,,,,,,,,,4,2.2754,0,2,2,2,1,,,,,,,,,,,,,,,,,,,,,
space,4.4068,0.090985243,-0.200347222,0,0,0,,,,,,1,test,"In the next phase you will be presented with the words from the the first phase. Your job is to decide whether you remember seeing the word or not. If you remember seeing the word press ""old"" or type ""m"". If you do not remember seeing the word press ""new"" or type ""z"". Please press the space bar or click on continue to begin. ",,,60136d792b03b2251aeec5aa,30,2022-02-12_11h44.35.663,lexical_decision_task_DD,2021.2.3,MacIntel,59.99880002,,,,,,,,,,,,,,,,,,,,,,,,,,,,,,,,,,,,,,,,,,,,,,,,,,,,,,,,,,,,,,,,,,0,0,0,0,1,,,,,,,,,,,,,,,,
space,2.7063,0.090720486,-0.200347222,0,0,0,,,,,,1,test,"In the next phase you will be presented with the words from the the first phase. Your job is to decide whether you remember seeing the word or not. If you remember seeing the word press ""old"" or type ""m"". If you do not remember seeing the word press ""new"" or type ""z"". Please press the space bar or click on continue to begin. ",,,60136d792b03b2251aeec5aa,30,2022-02-12_11h44.35.663,lexical_decision_task_DD,2021.2.3,MacIntel,59.99880002,,,,,,,,,,,,,,,,,,,,,,,,,,,,,,,,,,,,,,,,,,,,,,,,,,,,,,,,,,,,,,,,,,1,0,1,0,1,,,,,,,,,,,,,,,,
,,0.017126736,-0.427222222,1,0,0,,,,,,1,test,"In the next phase you will be presented with the words from the the first phase. Your job is to decide whether you remember seeing the word or not. If you remember seeing the word press ""old"" or type ""m"". If you do not remember seeing the word press ""new"" or type ""z"". Please press the space bar or click on continue to begin. ",,,60136d792b03b2251aeec5aa,30,2022-02-12_11h44.35.663,lexical_decision_task_DD,2021.2.3,MacIntel,59.99880002,,,,,,,,,,,,,,,,,,,,,,,,,,,,,,,,,,,,,,,,,,,,,,,,,,,,,,,,,,,,,,,,,,2,0,2,0,1,instr_done_button,,,,,,,,,,,,,,,
,,0.013216146,-0.383242187,1,0,0,,,,,,1,test,"In the next phase you will be presented with the words from the the first phase. Your job is to decide whether you remember seeing the word or not. If you remember seeing the word press ""old"" or type ""m"". If you do not remember seeing the word press ""new"" or type ""z"". Please press the space bar or click on continue to begin. ",,,60136d792b03b2251aeec5aa,30,2022-02-12_11h44.35.663,lexical_decision_task_DD,2021.2.3,MacIntel,59.99880002,,,,,,,,,,,,,,,,,,,,,,,,,,,,,,,,,,,,,,,,,,,,,,,,,,,,,,,,,,,,,,,,,,3,0,3,0,1,instr_done_button,,,,,,,,,,,,,,,
,,0.020798611,-0.387421875,1,0,0,,,,,,1,test,"In the next phase you will be presented with the words from the the first phase. Your job is to decide whether you remember seeing the word or not. If you remember seeing the word press ""old"" or type ""m"". If you do not remember seeing the word press ""new"" or type ""z"". Please press the space bar or click on continue to begin. ",,,60136d792b03b2251aeec5aa,30,2022-02-12_11h44.35.663,lexical_decision_task_DD,2021.2.3,MacIntel,59.99880002,,,,,,,,,,,,,,,,,,,,,,,,,,,,,,,,,,,,,,,,,,,,,,,,,,,,,,,,,,,,,,,,,,4,0,4,0,1,instr_done_button,,,,,,,,,,,,,,,
,,,,,,,,,,,,,,,,,60136d792b03b2251aeec5aa,30,2022-02-12_11h44.35.663,lexical_decision_task_DD,2021.2.3,MacIntel,59.99880002,,,,,,,,,,,2.6581,1,,,,,,,,,,,,,,,,,,,,,,,,0.023216146,-0.385286458,0,0,0,,,,,,,TOWEL,HB,z,m,./images/TOWELHB.png,,,,,,,,,,,,,,,,,,,,,z,1,2.6581,,,,,,,,0,0,0,85,1
,,,,,,,,,,,,,,,,,60136d792b03b2251aeec5aa,30,2022-02-12_11h44.35.663,lexical_decision_task_DD,2021.2.3,MacIntel,59.99880002,,,,,,,,,,,1.0207,0,,,,,,,,,,,,,,,,,,,,,,,,0.023216146,-0.385286458,0,0,0,,,,,,,MIRROR,C,m,m,./images/MIRROR.png,,,,,,,,,,,,,,,,,,,,,z,0,1.0207,,,,,,,,0,1,1,63,1
,,,,,,,,,,,,,,,,,60136d792b03b2251aeec5aa,30,2022-02-12_11h44.35.663,lexical_decision_task_DD,2021.2.3,MacIntel,59.99880002,,,,,,,,,,,1.0635,0,,,,,,,,,,,,,,,,,,,,,,,,0.023216146,-0.385286458,0,0,0,,,,,,,PASTA,LB,m,m,./images/PASTALB.png,,,,,,,,,,,,,,,,,,,,,z,0,1.0635,,,,,,,,0,2,2,5,1
,,,,,,,,,,,,,,,,,60136d792b03b2251aeec5aa,30,2022-02-12_11h44.35.663,lexical_decision_task_DD,2021.2.3,MacIntel,59.99880002,,,,,,,,,,,1.2628,0,,,,,,,,,,,,,,,,,,,,,,,,0.023216146,-0.385286458,0,0,0,,,,,,,PARCEL,C,z,m,./images/PARCEL.png,,,,,,,,,,,,,,,,,,,,,m,0,1.2628,,,,,,,,0,3,3,102,1
,,,,,,,,,,,,,,,,,60136d792b03b2251aeec5aa,30,2022-02-12_11h44.35.663,lexical_decision_task_DD,2021.2.3,MacIntel,59.99880002,,,,,,,,,,,2.482,1,,,,,,,,,,,,,,,,,,,,,,,,0.023216146,-0.385286458,0,0,0,,,,,,,SAUNA,C,z,m,./images/SAUNA.png,,,,,,,,,,,,,,,,,,,,,z,1,2.482,,,,,,,,0,4,4,117,1
,,,,,,,,,,,,,,,,,60136d792b03b2251aeec5aa,30,2022-02-12_11h44.35.663,lexical_decision_task_DD,2021.2.3,MacIntel,59.99880002,,,,,,,,,,,1.0652,1,,,,,,,,,,,,,,,,,,,,,,,,0.023216146,-0.385286458,0,0,0,,,,,,,COUCH,LB,m,m,./images/COUCHLB.png,,,,,,,,,,,,,,,,,,,,,m,1,1.0652,,,,,,,,0,5,5,77,1
,,,,,,,,,,,,,,,,,60136d792b03b2251aeec5aa,30,2022-02-12_11h44.35.663,lexical_decision_task_DD,2021.2.3,MacIntel,59.99880002,,,,,,,,,,,1.0295,0,,,,,,,,,,,,,,,,,,,,,,,,0.023216146,-0.385286458,0,0,0,,,,,,,POSTER,LB,z,m,./images/POSTERLB.png,,,,,,,,,,,,,,,,,,,,,m,0,1.0295,,,,,,,,0,6,6,137,1
,,,,,,,,,,,,,,,,,60136d792b03b2251aeec5aa,30,2022-02-12_11h44.35.663,lexical_decision_task_DD,2021.2.3,MacIntel,59.99880002,,,,,,,,,,,0.7983,0,,,,,,,,,,,,,,,,,,,,,,,,0.023216146,-0.385286458,0,0,0,,,,,,,QUILL,HB,m,m,./images/QUILLHB.png,,,,,,,,,,,,,,,,,,,,,z,0,0.7983,,,,,,,,0,7,7,31,1
,,,,,,,,,,,,,,,,,60136d792b03b2251aeec5aa,30,2022-02-12_11h44.35.663,lexical_decision_task_DD,2021.2.3,MacIntel,59.99880002,,,,,,,,,,,0.9652,0,,,,,,,,,,,,,,,,,,,,,,,,0.023216146,-0.385286458,0,0,0,,,,,,,PEBBLE,HB,z,m,./images/PEBBLEHB.png,,,,,,,,,,,,,,,,,,,,,m,0,0.9652,,,,,,,,0,8,8,166,1
,,,,,,,,,,,,,,,,,60136d792b03b2251aeec5aa,30,2022-02-12_11h44.35.663,lexical_decision_task_DD,2021.2.3,MacIntel,59.99880002,,,,,,,,,,,1.3582,0,,,,,,,,,,,,,,,,,,,,,,,,0.023216146,-0.385286458,0,0,0,,,,,,,RAZOR,HB,z,m,./images/RAZORHB.png,,,,,,,,,,,,,,,,,,,,,m,0,1.3582,,,,,,,,0,9,9,118,1
,,,,,,,,,,,,,,,,,60136d792b03b2251aeec5aa,30,2022-02-12_11h44.35.663,lexical_decision_task_DD,2021.2.3,MacIntel,59.99880002,,,,,,,,,,,0.7585,0,,,,,,,,,,,,,,,,,,,,,,,,0.023216146,-0.385286458,0,0,0,,,,,,,FERRY,C,z,m,./images/FERRY.png,,,,,,,,,,,,,,,,,,,,,m,0,0.7585,,,,,,,,0,10,10,141,1
,,,,,,,,,,,,,,,,,60136d792b03b2251aeec5aa,30,2022-02-12_11h44.35.663,lexical_decision_task_DD,2021.2.3,MacIntel,59.99880002,,,,,,,,,,,0.9201,0,,,,,,,,,,,,,,,,,,,,,,,,0.023216146,-0.385286458,0,0,0,,,,,,,KIDNEY,C,m,m,./images/KIDNEY.png,,,,,,,,,,,,,,,,,,,,,z,0,0.9201,,,,,,,,0,11,11,21,1
,,,,,,,,,,,,,,,,,60136d792b03b2251aeec5aa,30,2022-02-12_11h44.35.663,lexical_decision_task_DD,2021.2.3,MacIntel,59.99880002,,,,,,,,,,,1.1855,0,,,,,,,,,,,,,,,,,,,,,,,,0.023216146,-0.385286458,0,0,0,,,,,,,WAGON,HB,z,m,./images/WAGONHB.png,,,,,,,,,,,,,,,,,,,,,m,0,1.1855,,,,,,,,0,12,12,91,1
,,,,,,,,,,,,,,,,,60136d792b03b2251aeec5aa,30,2022-02-12_11h44.35.663,lexical_decision_task_DD,2021.2.3,MacIntel,59.99880002,,,,,,,,,,,0.7862,0,,,,,,,,,,,,,,,,,,,,,,,,0.023216146,-0.385286458,0,0,0,,,,,,,SCREW,C,m,m,./images/SCREW.png,,,,,,,,,,,,,,,,,,,,,z,0,0.7862,,,,,,,,0,13,13,24,1
,,,,,,,,,,,,,,,,,60136d792b03b2251aeec5aa,30,2022-02-12_11h44.35.663,lexical_decision_task_DD,2021.2.3,MacIntel,59.99880002,,,,,,,,,,,1.231,0,,,,,,,,,,,,,,,,,,,,,,,,0.023216146,-0.385286458,0,0,0,,,,,,,SHIELD,C,z,m,./images/SHIELD.png,,,,,,,,,,,,,,,,,,,,,m,0,1.231,,,,,,,,0,14,14,132,1
,,,,,,,,,,,,,,,,,60136d792b03b2251aeec5aa,30,2022-02-12_11h44.35.663,lexical_decision_task_DD,2021.2.3,MacIntel,59.99880002,,,,,,,,,,,0.7302,1,,,,,,,,,,,,,,,,,,,,,,,,0.023216146,-0.385286458,0,0,0,,,,,,,TIGER,HB,z,m,./images/TIGERHB.png,,,,,,,,,,,,,,,,,,,,,z,1,0.7302,,,,,,,,0,15,15,121,1
,,,,,,,,,,,,,,,,,60136d792b03b2251aeec5aa,30,2022-02-12_11h44.35.663,lexical_decision_task_DD,2021.2.3,MacIntel,59.99880002,,,,,,,,,,,1.1499,1,,,,,,,,,,,,,,,,,,,,,,,,0.023216146,-0.385286458,0,0,0,,,,,,,MUMMY,HB,z,m,./images/MUMMYHB.png,,,,,,,,,,,,,,,,,,,,,z,1,1.1499,,,,,,,,0,16,16,130,1
,,,,,,,,,,,,,,,,,60136d792b03b2251aeec5aa,30,2022-02-12_11h44.35.663,lexical_decision_task_DD,2021.2.3,MacIntel,59.99880002,,,,,,,,,,,1.7516,1,,,,,,,,,,,,,,,,,,,,,,,,0.023216146,-0.385286458,0,0,0,,,,,,,LIZARD,LB,m,m,./images/LIZARDLB.png,,,,,,,,,,,,,,,,,,,,,m,1,1.7516,,,,,,,,0,17,17,44,1
,,,,,,,,,,,,,,,,,60136d792b03b2251aeec5aa,30,2022-02-12_11h44.35.663,lexical_decision_task_DD,2021.2.3,MacIntel,59.99880002,,,,,,,,,,,1.2143,0,,,,,,,,,,,,,,,,,,,,,,,,0.023216146,-0.385286458,0,0,0,,,,,,,SAUCE,C,z,m,./images/SAUCE.png,,,,,,,,,,,,,,,,,,,,,m,0,1.2143,,,,,,,,0,18,18,135,1
,,,,,,,,,,,,,,,,,60136d792b03b2251aeec5aa,30,2022-02-12_11h44.35.663,lexical_decision_task_DD,2021.2.3,MacIntel,59.99880002,,,,,,,,,,,1.5729,0,,,,,,,,,,,,,,,,,,,,,,,,0.023216146,-0.385286458,0,0,0,,,,,,,MALLET,LB,m,m,./images/MALLETLB.png,,,,,,,,,,,,,,,,,,,,,z,0,1.5729,,,,,,,,0,19,19,50,1
,,,,,,,,,,,,,,,,,60136d792b03b2251aeec5aa,30,2022-02-12_11h44.35.663,lexical_decision_task_DD,2021.2.3,MacIntel,59.99880002,,,,,,,,,,,0.821,1,,,,,,,,,,,,,,,,,,,,,,,,0.023216146,-0.385286458,0,0,0,,,,,,,FINGER,C,m,m,./images/FINGER.png,,,,,,,,,,,,,,,,,,,,,m,1,0.821,,,,,,,,0,20,20,3,1
,,,,,,,,,,,,,,,,,60136d792b03b2251aeec5aa,30,2022-02-12_11h44.35.663,lexical_decision_task_DD,2021.2.3,MacIntel,59.99880002,,,,,,,,,,,1.288,0,,,,,,,,,,,,,,,,,,,,,,,,0.023216146,-0.385286458,0,0,0,,,,,,,CLOWN,HB,z,m,./images/CLOWNHB.png,,,,,,,,,,,,,,,,,,,,,m,0,1.288,,,,,,,,0,21,21,106,1
,,,,,,,,,,,,,,,,,60136d792b03b2251aeec5aa,30,2022-02-12_11h44.35.663,lexical_decision_task_DD,2021.2.3,MacIntel,59.99880002,,,,,,,,,,,1.1645,1,,,,,,,,,,,,,,,,,,,,,,,,0.023216146,-0.385286458,0,0,0,,,,,,,BAMBOO,LB,z,m,./images/BAMBOOLB.png,,,,,,,,,,,,,,,,,,,,,z,1,1.1645,,,,,,,,0,22,22,89,1
,,,,,,,,,,,,,,,,,60136d792b03b2251aeec5aa,30,2022-02-12_11h44.35.663,lexical_decision_task_DD,2021.2.3,MacIntel,59.99880002,,,,,,,,,,,0.9895,0,,,,,,,,,,,,,,,,,,,,,,,,0.023216146,-0.385286458,0,0,0,,,,,,,PLANET,LB,z,m,./images/PLANETLB.png,,,,,,,,,,,,,,,,,,,,,m,0,0.9895,,,,,,,,0,23,23,164,1
,,,,,,,,,,,,,,,,,60136d792b03b2251aeec5aa,30,2022-02-12_11h44.35.663,lexical_decision_task_DD,2021.2.3,MacIntel,59.99880002,,,,,,,,,,,0.9237,0,,,,,,,,,,,,,,,,,,,,,,,,0.023216146,-0.385286458,0,0,0,,,,,,,PIMPLE,LB,m,m,./images/PIMPLELB.png,,,,,,,,,,,,,,,,,,,,,z,0,0.9237,,,,,,,,0,24,24,71,1
,,,,,,,,,,,,,,,,,60136d792b03b2251aeec5aa,30,2022-02-12_11h44.35.663,lexical_decision_task_DD,2021.2.3,MacIntel,59.99880002,,,,,,,,,,,0.9502,0,,,,,,,,,,,,,,,,,,,,,,,,0.023216146,-0.385286458,0,0,0,,,,,,,BLOKE,C,z,m,./images/BLOKE.png,,,,,,,,,,,,,,,,,,,,,m,0,0.9502,,,,,,,,0,25,25,96,1
,,,,,,,,,,,,,,,,,60136d792b03b2251aeec5aa,30,2022-02-12_11h44.35.663,lexical_decision_task_DD,2021.2.3,MacIntel,59.99880002,,,,,,,,,,,1.0045,0,,,,,,,,,,,,,,,,,,,,,,,,0.023216146,-0.385286458,0,0,0,,,,,,,FLESH,C,z,m,./images/FLESH.png,,,,,,,,,,,,,,,,,,,,,m,0,1.0045,,,,,,,,0,26,26,108,1
,,,,,,,,,,,,,,,,,60136d792b03b2251aeec5aa,30,2022-02-12_11h44.35.663,lexical_decision_task_DD,2021.2.3,MacIntel,59.99880002,,,,,,,,,,,0.8568,1,,,,,,,,,,,,,,,,,,,,,,,,0.023216146,-0.385286458,0,0,0,,,,,,,STAIN,C,z,m,./images/STAIN.png,,,,,,,,,,,,,,,,,,,,,z,1,0.8568,,,,,,,,0,27,27,90,1
,,,,,,,,,,,,,,,,,60136d792b03b2251aeec5aa,30,2022-02-12_11h44.35.663,lexical_decision_task_DD,2021.2.3,MacIntel,59.99880002,,,,,,,,,,,0.6486,0,,,,,,,,,,,,,,,,,,,,,,,,0.023216146,-0.385286458,0,0,0,,,,,,,BOILER,C,z,m,./images/BOILER.png,,,,,,,,,,,,,,,,,,,,,m,0,0.6486,,,,,,,,0,28,28,120,1
,,,,,,,,,,,,,,,,,60136d792b03b2251aeec5aa,30,2022-02-12_11h44.35.663,lexical_decision_task_DD,2021.2.3,MacIntel,59.99880002,,,,,,,,,,,1.381,0,,,,,,,,,,,,,,,,,,,,,,,,0.023216146,-0.385286458,0,0,0,,,,,,,BUBBLE,LB,z,m,./images/BUBBLELB.png,,,,,,,,,,,,,,,,,,,,,m,0,1.381,,,,,,,,0,29,29,155,1
,,,,,,,,,,,,,,,,,60136d792b03b2251aeec5aa,30,2022-02-12_11h44.35.663,lexical_decision_task_DD,2021.2.3,MacIntel,59.99880002,,,,,,,,,,,0.8206,1,,,,,,,,,,,,,,,,,,,,,,,,0.023216146,-0.385286458,0,0,0,,,,,,,CHERRY,C,z,m,./images/CHERRY.png,,,,,,,,,,,,,,,,,,,,,z,1,0.8206,,,,,,,,0,30,30,138,1
,,,,,,,,,,,,,,,,,60136d792b03b2251aeec5aa,30,2022-02-12_11h44.35.663,lexical_decision_task_DD,2021.2.3,MacIntel,59.99880002,,,,,,,,,,,0.9815,0,,,,,,,,,,,,,,,,,,,,,,,,0.023216146,-0.385286458,0,0,0,,,,,,,STOOL,HB,z,m,./images/STOOLHB.png,,,,,,,,,,,,,,,,,,,,,m,0,0.9815,,,,,,,,0,31,31,127,1
,,,,,,,,,,,,,,,,,60136d792b03b2251aeec5aa,30,2022-02-12_11h44.35.663,lexical_decision_task_DD,2021.2.3,MacIntel,59.99880002,,,,,,,,,,,1.0345,0,,,,,,,,,,,,,,,,,,,,,,,,0.023216146,-0.385286458,0,0,0,,,,,,,MAMMAL,LB,z,m,./images/MAMMALLB.png,,,,,,,,,,,,,,,,,,,,,m,0,1.0345,,,,,,,,0,32,32,146,1
,,,,,,,,,,,,,,,,,60136d792b03b2251aeec5aa,30,2022-02-12_11h44.35.663,lexical_decision_task_DD,2021.2.3,MacIntel,59.99880002,,,,,,,,,,,0.8162,0,,,,,,,,,,,,,,,,,,,,,,,,0.023216146,-0.385286458,0,0,0,,,,,,,PLANK,HB,m,m,./images/PLANKHB.png,,,,,,,,,,,,,,,,,,,,,z,0,0.8162,,,,,,,,0,33,33,1,1
,,,,,,,,,,,,,,,,,60136d792b03b2251aeec5aa,30,2022-02-12_11h44.35.663,lexical_decision_task_DD,2021.2.3,MacIntel,59.99880002,,,,,,,,,,,0.6824,0,,,,,,,,,,,,,,,,,,,,,,,,0.023216146,-0.385286458,0,0,0,,,,,,,CRUST,HB,m,m,./images/CRUSTHB.png,,,,,,,,,,,,,,,,,,,,,z,0,0.6824,,,,,,,,0,34,34,79,1
,,,,,,,,,,,,,,,,,60136d792b03b2251aeec5aa,30,2022-02-12_11h44.35.663,lexical_decision_task_DD,2021.2.3,MacIntel,59.99880002,,,,,,,,,,,0.8824,0,,,,,,,,,,,,,,,,,,,,,,,,0.023216146,-0.385286458,0,0,0,,,,,,,CRATER,C,z,m,./images/CRATER.png,,,,,,,,,,,,,,,,,,,,,m,0,0.8824,,,,,,,,0,35,35,87,1
,,,,,,,,,,,,,,,,,60136d792b03b2251aeec5aa,30,2022-02-12_11h44.35.663,lexical_decision_task_DD,2021.2.3,MacIntel,59.99880002,,,,,,,,,,,1.0547,0,,,,,,,,,,,,,,,,,,,,,,,,0.023216146,-0.385286458,0,0,0,,,,,,,DESERT,HB,z,m,./images/DESERTHB.png,,,,,,,,,,,,,,,,,,,,,m,0,1.0547,,,,,,,,0,36,36,136,1
,,,,,,,,,,,,,,,,,60136d792b03b2251aeec5aa,30,2022-02-12_11h44.35.663,lexical_decision_task_DD,2021.2.3,MacIntel,59.99880002,,,,,,,,,,,0.6337,0,,,,,,,,,,,,,,,,,,,,,,,,0.023216146,-0.385286458,0,0,0,,,,,,,URINE,HB,m,m,./images/URINEHB.png,,,,,,,,,,,,,,,,,,,,,z,0,0.6337,,,,,,,,0,37,37,70,1
,,,,,,,,,,,,,,,,,60136d792b03b2251aeec5aa,30,2022-02-12_11h44.35.663,lexical_decision_task_DD,2021.2.3,MacIntel,59.99880002,,,,,,,,,,,0.8419,1,,,,,,,,,,,,,,,,,,,,,,,,0.023216146,-0.385286458,0,0,0,,,,,,,CRADLE,LB,m,m,./images/CRADLELB.png,,,,,,,,,,,,,,,,,,,,,m,1,0.8419,,,,,,,,0,38,38,20,1
,,,,,,,,,,,,,,,,,60136d792b03b2251aeec5aa,30,2022-02-12_11h44.35.663,lexical_decision_task_DD,2021.2.3,MacIntel,59.99880002,,,,,,,,,,,0.8314,0,,,,,,,,,,,,,,,,,,,,,,,,0.023216146,-0.385286458,0,0,0,,,,,,,FARMER,LB,m,m,./images/FARMERLB.png,,,,,,,,,,,,,,,,,,,,,z,0,0.8314,,,,,,,,0,39,39,65,1
,,,,,,,,,,,,,,,,,60136d792b03b2251aeec5aa,30,2022-02-12_11h44.35.663,lexical_decision_task_DD,2021.2.3,MacIntel,59.99880002,,,,,,,,,,,0.7547,1,,,,,,,,,,,,,,,,,,,,,,,,0.023216146,-0.385286458,0,0,0,,,,,,,MUFFIN,HB,m,m,./images/MUFFINHB.png,,,,,,,,,,,,,,,,,,,,,m,1,0.7547,,,,,,,,0,40,40,55,1
,,,,,,,,,,,,,,,,,60136d792b03b2251aeec5aa,30,2022-02-12_11h44.35.663,lexical_decision_task_DD,2021.2.3,MacIntel,59.99880002,,,,,,,,,,,0.984,1,,,,,,,,,,,,,,,,,,,,,,,,0.023216146,-0.385286458,0,0,0,space,,,,,,POODLE,C,m,m,./images/POODLE.png,8.7381,,,,,,,,,,,,,,,,,,,,m,1,0.984,,,,,,,,0,41,41,81,1
,,,,,,,,,,,,,,,,,60136d792b03b2251aeec5aa,30,2022-02-12_11h44.35.663,lexical_decision_task_DD,2021.2.3,MacIntel,59.99880002,,,,,,,,,,,0.9688,0,,,,,,,,,,,,,,,,,,,,,,,,0.023216146,-0.385286458,0,0,0,,,,,,,STOVE,LB,z,m,./images/STOVELB.png,,,,,,,,,,,,,,,,,,,,,m,0,0.9688,,,,,,,,0,42,42,86,1
,,,,,,,,,,,,,,,,,60136d792b03b2251aeec5aa,30,2022-02-12_11h44.35.663,lexical_decision_task_DD,2021.2.3,MacIntel,59.99880002,,,,,,,,,,,0.7476,0,,,,,,,,,,,,,,,,,,,,,,,,0.023216146,-0.385286458,0,0,0,,,,,,,MAGGOT,C,m,m,./images/MAGGOT.png,,,,,,,,,,,,,,,,,,,,,z,0,0.7476,,,,,,,,0,43,43,33,1
,,,,,,,,,,,,,,,,,60136d792b03b2251aeec5aa,30,2022-02-12_11h44.35.663,lexical_decision_task_DD,2021.2.3,MacIntel,59.99880002,,,,,,,,,,,0.7148,1,,,,,,,,,,,,,,,,,,,,,,,,0.023216146,-0.385286458,0,0,0,,,,,,,SKIING,LB,m,m,./images/SKIINGLB.png,,,,,,,,,,,,,,,,,,,,,m,1,0.7148,,,,,,,,0,44,44,17,1
,,,,,,,,,,,,,,,,,60136d792b03b2251aeec5aa,30,2022-02-12_11h44.35.663,lexical_decision_task_DD,2021.2.3,MacIntel,59.99880002,,,,,,,,,,,0.9583,0,,,,,,,,,,,,,,,,,,,,,,,,0.023216146,-0.385286458,0,0,0,,,,,,,SWING,HB,m,m,./images/SWINGHB.png,,,,,,,,,,,,,,,,,,,,,z,0,0.9583,,,,,,,,0,45,45,40,1
,,,,,,,,,,,,,,,,,60136d792b03b2251aeec5aa,30,2022-02-12_11h44.35.663,lexical_decision_task_DD,2021.2.3,MacIntel,59.99880002,,,,,,,,,,,0.7166,1,,,,,,,,,,,,,,,,,,,,,,,,0.023216146,-0.385286458,0,0,0,,,,,,,PEACH,LB,m,m,./images/PEACHLB.png,,,,,,,,,,,,,,,,,,,,,m,1,0.7166,,,,,,,,0,46,46,35,1
,,,,,,,,,,,,,,,,,60136d792b03b2251aeec5aa,30,2022-02-12_11h44.35.663,lexical_decision_task_DD,2021.2.3,MacIntel,59.99880002,,,,,,,,,,,1.2168,0,,,,,,,,,,,,,,,,,,,,,,,,0.023216146,-0.385286458,0,0,0,,,,,,,CANOE,HB,z,m,./images/CANOEHB.png,,,,,,,,,,,,,,,,,,,,,m,0,1.2168,,,,,,,,0,47,47,142,1
,,,,,,,,,,,,,,,,,60136d792b03b2251aeec5aa,30,2022-02-12_11h44.35.663,lexical_decision_task_DD,2021.2.3,MacIntel,59.99880002,,,,,,,,,,,1.1824,0,,,,,,,,,,,,,,,,,,,,,,,,0.023216146,-0.385286458,0,0,0,,,,,,,CHALK,HB,z,m,./images/CHALKHB.png,,,,,,,,,,,,,,,,,,,,,m,0,1.1824,,,,,,,,0,48,48,109,1
,,,,,,,,,,,,,,,,,60136d792b03b2251aeec5aa,30,2022-02-12_11h44.35.663,lexical_decision_task_DD,2021.2.3,MacIntel,59.99880002,,,,,,,,,,,0.6143,0,,,,,,,,,,,,,,,,,,,,,,,,0.023216146,-0.385286458,0,0,0,,,,,,,BASKET,LB,z,m,./images/BASKETLB.png,,,,,,,,,,,,,,,,,,,,,m,0,0.6143,,,,,,,,0,49,49,128,1
,,,,,,,,,,,,,,,,,60136d792b03b2251aeec5aa,30,2022-02-12_11h44.35.663,lexical_decision_task_DD,2021.2.3,MacIntel,59.99880002,,,,,,,,,,,0.6485,1,,,,,,,,,,,,,,,,,,,,,,,,0.023216146,-0.385286458,0,0,0,,,,,,,BIRTH,HB,m,m,./images/BIRTHHB.png,,,,,,,,,,,,,,,,,,,,,m,1,0.6485,,,,,,,,0,50,50,37,1
,,,,,,,,,,,,,,,,,60136d792b03b2251aeec5aa,30,2022-02-12_11h44.35.663,lexical_decision_task_DD,2021.2.3,MacIntel,59.99880002,,,,,,,,,,,1.0575,1,,,,,,,,,,,,,,,,,,,,,,,,0.023216146,-0.385286458,0,0,0,,,,,,,LADDER,LB,m,m,./images/LADDERLB.png,,,,,,,,,,,,,,,,,,,,,m,1,1.0575,,,,,,,,0,51,51,38,1
,,,,,,,,,,,,,,,,,60136d792b03b2251aeec5aa,30,2022-02-12_11h44.35.663,lexical_decision_task_DD,2021.2.3,MacIntel,59.99880002,,,,,,,,,,,0.591,0,,,,,,,,,,,,,,,,,,,,,,,,0.023216146,-0.385286458,0,0,0,,,,,,,LAGOON,LB,z,m,./images/LAGOONLB.png,,,,,,,,,,,,,,,,,,,,,m,0,0.591,,,,,,,,0,52,52,131,1
,,,,,,,,,,,,,,,,,60136d792b03b2251aeec5aa,30,2022-02-12_11h44.35.663,lexical_decision_task_DD,2021.2.3,MacIntel,59.99880002,,,,,,,,,,,0.705,0,,,,,,,,,,,,,,,,,,,,,,,,0.023216146,-0.385286458,0,0,0,,,,,,,SHORE,C,m,m,./images/SHORE.png,,,,,,,,,,,,,,,,,,,,,z,0,0.705,,,,,,,,0,53,53,12,1
,,,,,,,,,,,,,,,,,60136d792b03b2251aeec5aa,30,2022-02-12_11h44.35.663,lexical_decision_task_DD,2021.2.3,MacIntel,59.99880002,,,,,,,,,,,0.6719,0,,,,,,,,,,,,,,,,,,,,,,,,0.023216146,-0.385286458,0,0,0,,,,,,,PARADE,LB,z,m,./images/PARADELB.png,,,,,,,,,,,,,,,,,,,,,m,0,0.6719,,,,,,,,0,54,54,101,1
,,,,,,,,,,,,,,,,,60136d792b03b2251aeec5aa,30,2022-02-12_11h44.35.663,lexical_decision_task_DD,2021.2.3,MacIntel,59.99880002,,,,,,,,,,,0.9497,1,,,,,,,,,,,,,,,,,,,,,,,,0.023216146,-0.385286458,0,0,0,,,,,,,BAKER,C,z,m,./images/BAKER.png,,,,,,,,,,,,,,,,,,,,,z,1,0.9497,,,,,,,,0,55,55,147,1
,,,,,,,,,,,,,,,,,60136d792b03b2251aeec5aa,30,2022-02-12_11h44.35.663,lexical_decision_task_DD,2021.2.3,MacIntel,59.99880002,,,,,,,,,,,0.9152,1,,,,,,,,,,,,,,,,,,,,,,,,0.023216146,-0.385286458,0,0,0,,,,,,,MOOSE,C,m,m,./images/MOOSE.png,,,,,,,,,,,,,,,,,,,,,m,1,0.9152,,,,,,,,0,56,56,57,1
,,,,,,,,,,,,,,,,,60136d792b03b2251aeec5aa,30,2022-02-12_11h44.35.663,lexical_decision_task_DD,2021.2.3,MacIntel,59.99880002,,,,,,,,,,,0.5816,0,,,,,,,,,,,,,,,,,,,,,,,,0.023216146,-0.385286458,0,0,0,,,,,,,WALNUT,C,z,m,./images/WALNUT.png,,,,,,,,,,,,,,,,,,,,,m,0,0.5816,,,,,,,,0,57,57,84,1
,,,,,,,,,,,,,,,,,60136d792b03b2251aeec5aa,30,2022-02-12_11h44.35.663,lexical_decision_task_DD,2021.2.3,MacIntel,59.99880002,,,,,,,,,,,0.6152,0,,,,,,,,,,,,,,,,,,,,,,,,0.023216146,-0.385286458,0,0,0,,,,,,,BELLY,HB,m,m,./images/BELLYHB.png,,,,,,,,,,,,,,,,,,,,,z,0,0.6152,,,,,,,,0,58,58,10,1
,,,,,,,,,,,,,,,,,60136d792b03b2251aeec5aa,30,2022-02-12_11h44.35.663,lexical_decision_task_DD,2021.2.3,MacIntel,59.99880002,,,,,,,,,,,0.5983,0,,,,,,,,,,,,,,,,,,,,,,,,0.023216146,-0.385286458,0,0,0,,,,,,,DONKEY,HB,z,m,./images/DONKEYHB.png,,,,,,,,,,,,,,,,,,,,,m,0,0.5983,,,,,,,,0,59,59,103,1
,,,,,,,,,,,,,,,,,60136d792b03b2251aeec5aa,30,2022-02-12_11h44.35.663,lexical_decision_task_DD,2021.2.3,MacIntel,59.99880002,,,,,,,,,,,1.2486,0,,,,,,,,,,,,,,,,,,,,,,,,0.023216146,-0.385286458,0,0,0,,,,,,,POKER,HB,z,m,./images/POKERHB.png,,,,,,,,,,,,,,,,,,,,,m,0,1.2486,,,,,,,,0,60,60,151,1
,,,,,,,,,,,,,,,,,60136d792b03b2251aeec5aa,30,2022-02-12_11h44.35.663,lexical_decision_task_DD,2021.2.3,MacIntel,59.99880002,,,,,,,,,,,0.7252,1,,,,,,,,,,,,,,,,,,,,,,,,0.023216146,-0.385286458,0,0,0,,,,,,,COOKER,C,m,m,./images/COOKER.png,,,,,,,,,,,,,,,,,,,,,m,1,0.7252,,,,,,,,0,61,61,69,1
,,,,,,,,,,,,,,,,,60136d792b03b2251aeec5aa,30,2022-02-12_11h44.35.663,lexical_decision_task_DD,2021.2.3,MacIntel,59.99880002,,,,,,,,,,,0.6806,0,,,,,,,,,,,,,,,,,,,,,,,,0.023216146,-0.385286458,0,0,0,,,,,,,SLOPE,C,z,m,./images/SLOPE.png,,,,,,,,,,,,,,,,,,,,,m,0,0.6806,,,,,,,,0,62,62,114,1
,,,,,,,,,,,,,,,,,60136d792b03b2251aeec5aa,30,2022-02-12_11h44.35.663,lexical_decision_task_DD,2021.2.3,MacIntel,59.99880002,,,,,,,,,,,0.4843,1,,,,,,,,,,,,,,,,,,,,,,,,0.023216146,-0.385286458,0,0,0,,,,,,,SUNSET,HB,m,m,./images/SUNSETHB.png,,,,,,,,,,,,,,,,,,,,,m,1,0.4843,,,,,,,,0,63,63,82,1
,,,,,,,,,,,,,,,,,60136d792b03b2251aeec5aa,30,2022-02-12_11h44.35.663,lexical_decision_task_DD,2021.2.3,MacIntel,59.99880002,,,,,,,,,,,0.3757,0,,,,,,,,,,,,,,,,,,,,,,,,0.023216146,-0.385286458,0,0,0,,,,,,,BROOM,C,z,m,./images/BROOM.png,,,,,,,,,,,,,,,,,,,,,m,0,0.3757,,,,,,,,0,64,64,162,1
,,,,,,,,,,,,,,,,,60136d792b03b2251aeec5aa,30,2022-02-12_11h44.35.663,lexical_decision_task_DD,2021.2.3,MacIntel,59.99880002,,,,,,,,,,,0.3314,1,,,,,,,,,,,,,,,,,,,,,,,,0.023216146,-0.385286458,0,0,0,,,,,,,SNACK,HB,m,m,./images/SNACKHB.png,,,,,,,,,,,,,,,,,,,,,m,1,0.3314,,,,,,,,0,65,65,73,1
,,,,,,,,,,,,,,,,,60136d792b03b2251aeec5aa,30,2022-02-12_11h44.35.663,lexical_decision_task_DD,2021.2.3,MacIntel,59.99880002,,,,,,,,,,,0.603,0,,,,,,,,,,,,,,,,,,,,,,,,0.023216146,-0.385286458,0,0,0,,,,,,,GRANNY,LB,z,m,./images/GRANNYLB.png,,,,,,,,,,,,,,,,,,,,,m,0,0.603,,,,,,,,0,66,66,104,1
,,,,,,,,,,,,,,,,,60136d792b03b2251aeec5aa,30,2022-02-12_11h44.35.663,lexical_decision_task_DD,2021.2.3,MacIntel,59.99880002,,,,,,,,,,,0.5816,0,,,,,,,,,,,,,,,,,,,,,,,,0.023216146,-0.385286458,0,0,0,,,,,,,WALRUS,LB,m,m,./images/WALRUSLB.png,,,,,,,,,,,,,,,,,,,,,z,0,0.5816,,,,,,,,0,67,67,23,1
,,,,,,,,,,,,,,,,,60136d792b03b2251aeec5aa,30,2022-02-12_11h44.35.663,lexical_decision_task_DD,2021.2.3,MacIntel,59.99880002,,,,,,,,,,,0.5657,0,,,,,,,,,,,,,,,,,,,,,,,,0.023216146,-0.385286458,0,0,0,,,,,,,PISTOL,LB,z,m,./images/PISTOLLB.png,,,,,,,,,,,,,,,,,,,,,m,0,0.5657,,,,,,,,0,68,68,113,1
,,,,,,,,,,,,,,,,,60136d792b03b2251aeec5aa,30,2022-02-12_11h44.35.663,lexical_decision_task_DD,2021.2.3,MacIntel,59.99880002,,,,,,,,,,,0.7374,0,,,,,,,,,,,,,,,,,,,,,,,,0.023216146,-0.385286458,0,0,0,,,,,,,THROAT,C,m,m,./images/THROAT.png,,,,,,,,,,,,,,,,,,,,,z,0,0.7374,,,,,,,,0,69,69,36,1
,,,,,,,,,,,,,,,,,60136d792b03b2251aeec5aa,30,2022-02-12_11h44.35.663,lexical_decision_task_DD,2021.2.3,MacIntel,59.99880002,,,,,,,,,,,0.7553,1,,,,,,,,,,,,,,,,,,,,,,,,0.023216146,-0.385286458,0,0,0,,,,,,,SHELF,C,m,m,./images/SHELF.png,,,,,,,,,,,,,,,,,,,,,m,1,0.7553,,,,,,,,0,70,70,39,1
,,,,,,,,,,,,,,,,,60136d792b03b2251aeec5aa,30,2022-02-12_11h44.35.663,lexical_decision_task_DD,2021.2.3,MacIntel,59.99880002,,,,,,,,,,,0.5749,1,,,,,,,,,,,,,,,,,,,,,,,,0.023216146,-0.385286458,0,0,0,,,,,,,PENCE,HB,m,m,./images/PENCEHB.png,,,,,,,,,,,,,,,,,,,,,m,1,0.5749,,,,,,,,0,71,71,16,1
,,,,,,,,,,,,,,,,,60136d792b03b2251aeec5aa,30,2022-02-12_11h44.35.663,lexical_decision_task_DD,2021.2.3,MacIntel,59.99880002,,,,,,,,,,,0.8889,1,,,,,,,,,,,,,,,,,,,,,,,,0.023216146,-0.385286458,0,0,0,,,,,,,STATUE,C,z,m,./images/STATUE.png,,,,,,,,,,,,,,,,,,,,,z,1,0.8889,,,,,,,,0,72,72,150,1
,,,,,,,,,,,,,,,,,60136d792b03b2251aeec5aa,30,2022-02-12_11h44.35.663,lexical_decision_task_DD,2021.2.3,MacIntel,59.99880002,,,,,,,,,,,0.6021,1,,,,,,,,,,,,,,,,,,,,,,,,0.023216146,-0.385286458,0,0,0,,,,,,,CANDLE,HB,m,m,./images/CANDLEHB.png,,,,,,,,,,,,,,,,,,,,,m,1,0.6021,,,,,,,,0,73,73,61,1
,,,,,,,,,,,,,,,,,60136d792b03b2251aeec5aa,30,2022-02-12_11h44.35.663,lexical_decision_task_DD,2021.2.3,MacIntel,59.99880002,,,,,,,,,,,0.5979,1,,,,,,,,,,,,,,,,,,,,,,,,0.023216146,-0.385286458,0,0,0,,,,,,,BUNNY,HB,z,m,./images/BUNNYHB.png,,,,,,,,,,,,,,,,,,,,,z,1,0.5979,,,,,,,,0,74,74,97,1
,,,,,,,,,,,,,,,,,60136d792b03b2251aeec5aa,30,2022-02-12_11h44.35.663,lexical_decision_task_DD,2021.2.3,MacIntel,59.99880002,,,,,,,,,,,0.5706,1,,,,,,,,,,,,,,,,,,,,,,,,0.023216146,-0.385286458,0,0,0,,,,,,,GRAIN,C,m,m,./images/GRAIN.png,,,,,,,,,,,,,,,,,,,,,m,1,0.5706,,,,,,,,0,75,75,75,1
,,,,,,,,,,,,,,,,,60136d792b03b2251aeec5aa,30,2022-02-12_11h44.35.663,lexical_decision_task_DD,2021.2.3,MacIntel,59.99880002,,,,,,,,,,,0.604,1,,,,,,,,,,,,,,,,,,,,,,,,0.023216146,-0.385286458,0,0,0,,,,,,,PACKET,LB,m,m,./images/PACKETLB.png,,,,,,,,,,,,,,,,,,,,,m,1,0.604,,,,,,,,0,76,76,56,1
,,,,,,,,,,,,,,,,,60136d792b03b2251aeec5aa,30,2022-02-12_11h44.35.663,lexical_decision_task_DD,2021.2.3,MacIntel,59.99880002,,,,,,,,,,,0.6079,0,,,,,,,,,,,,,,,,,,,,,,,,0.023216146,-0.385286458,0,0,0,,,,,,,MUSCLE,HB,m,m,./images/MUSCLEHB.png,,,,,,,,,,,,,,,,,,,,,z,0,0.6079,,,,,,,,0,77,77,4,1
,,,,,,,,,,,,,,,,,60136d792b03b2251aeec5aa,30,2022-02-12_11h44.35.663,lexical_decision_task_DD,2021.2.3,MacIntel,59.99880002,,,,,,,,,,,0.5814,0,,,,,,,,,,,,,,,,,,,,,,,,0.023216146,-0.385286458,0,0,0,,,,,,,SAILOR,HB,m,m,./images/SAILORHB.png,,,,,,,,,,,,,,,,,,,,,z,0,0.5814,,,,,,,,0,78,78,67,1
,,,,,,,,,,,,,,,,,60136d792b03b2251aeec5aa,30,2022-02-12_11h44.35.663,lexical_decision_task_DD,2021.2.3,MacIntel,59.99880002,,,,,,,,,,,0.5865,0,,,,,,,,,,,,,,,,,,,,,,,,0.023216146,-0.385286458,0,0,0,,,,,,,CLOUD,LB,z,m,./images/CLOUDLB.png,,,,,,,,,,,,,,,,,,,,,m,0,0.5865,,,,,,,,0,79,79,110,1
,,,,,,,,,,,,,,,,,60136d792b03b2251aeec5aa,30,2022-02-12_11h44.35.663,lexical_decision_task_DD,2021.2.3,MacIntel,59.99880002,,,,,,,,,,,0.3323,0,,,,,,,,,,,,,,,,,,,,,,,,0.023216146,-0.385286458,0,0,0,,,,,,,SWEAT,C,m,m,./images/SWEAT.png,,,,,,,,,,,,,,,,,,,,,z,0,0.3323,,,,,,,,0,80,80,66,1
,,,,,,,,,,,,,,,,,60136d792b03b2251aeec5aa,30,2022-02-12_11h44.35.663,lexical_decision_task_DD,2021.2.3,MacIntel,59.99880002,,,,,,,,,,,0.481,0,,,,,,,,,,,,,,,,,,,,,,,,0.023216146,-0.385286458,0,0,0,,,,,,,PILOT,LB,z,m,./images/PILOTLB.png,,,,,,,,,,,,,,,,,,,,,m,0,0.481,,,,,,,,0,81,81,134,1
,,,,,,,,,,,,,,,,,60136d792b03b2251aeec5aa,30,2022-02-12_11h44.35.663,lexical_decision_task_DD,2021.2.3,MacIntel,59.99880002,,,,,,,,,,,0.58,0,,,,,,,,,,,,,,,,,,,,,,,,0.023216146,-0.385286458,0,0,0,,,,,,,WRIST,HB,m,m,./images/WRISTHB.png,,,,,,,,,,,,,,,,,,,,,z,0,0.58,,,,,,,,0,82,82,25,1
,,,,,,,,,,,,,,,,,60136d792b03b2251aeec5aa,30,2022-02-12_11h44.35.663,lexical_decision_task_DD,2021.2.3,MacIntel,59.99880002,,,,,,,,,,,0.6984,1,,,,,,,,,,,,,,,,,,,,,,,,0.023216146,-0.385286458,0,0,0,space,,,,,,BABOON,HB,m,m,./images/BABOONHB.png,5.1456,,,,,,,,,,,,,,,,,,,,m,1,0.6984,,,,,,,,0,83,83,58,1
,,,,,,,,,,,,,,,,,60136d792b03b2251aeec5aa,30,2022-02-12_11h44.35.663,lexical_decision_task_DD,2021.2.3,MacIntel,59.99880002,,,,,,,,,,,0.8493,0,,,,,,,,,,,,,,,,,,,,,,,,0.023216146,-0.385286458,0,0,0,,,,,,,RULER,HB,z,m,./images/RULERHB.png,,,,,,,,,,,,,,,,,,,,,m,0,0.8493,,,,,,,,0,84,84,163,1
,,,,,,,,,,,,,,,,,60136d792b03b2251aeec5aa,30,2022-02-12_11h44.35.663,lexical_decision_task_DD,2021.2.3,MacIntel,59.99880002,,,,,,,,,,,0.6343,0,,,,,,,,,,,,,,,,,,,,,,,,0.023216146,-0.385286458,0,0,0,,,,,,,ONION,C,m,m,./images/ONION.png,,,,,,,,,,,,,,,,,,,,,z,0,0.6343,,,,,,,,0,85,85,51,1
,,,,,,,,,,,,,,,,,60136d792b03b2251aeec5aa,30,2022-02-12_11h44.35.663,lexical_decision_task_DD,2021.2.3,MacIntel,59.99880002,,,,,,,,,,,0.6159,0,,,,,,,,,,,,,,,,,,,,,,,,0.023216146,-0.385286458,0,0,0,,,,,,,BURIAL,LB,m,m,./images/BURIALLB.png,,,,,,,,,,,,,,,,,,,,,z,0,0.6159,,,,,,,,0,86,86,59,1
,,,,,,,,,,,,,,,,,60136d792b03b2251aeec5aa,30,2022-02-12_11h44.35.663,lexical_decision_task_DD,2021.2.3,MacIntel,59.99880002,,,,,,,,,,,0.5918,0,,,,,,,,,,,,,,,,,,,,,,,,0.023216146,-0.385286458,0,0,0,,,,,,,TORCH,LB,m,m,./images/TORCHLB.png,,,,,,,,,,,,,,,,,,,,,z,0,0.5918,,,,,,,,0,87,87,68,1
,,,,,,,,,,,,,,,,,60136d792b03b2251aeec5aa,30,2022-02-12_11h44.35.663,lexical_decision_task_DD,2021.2.3,MacIntel,59.99880002,,,,,,,,,,,0.7155,0,,,,,,,,,,,,,,,,,,,,,,,,0.023216146,-0.385286458,0,0,0,,,,,,,CURRY,C,z,m,./images/CURRY.png,,,,,,,,,,,,,,,,,,,,,m,0,0.7155,,,,,,,,0,88,88,144,1
,,,,,,,,,,,,,,,,,60136d792b03b2251aeec5aa,30,2022-02-12_11h44.35.663,lexical_decision_task_DD,2021.2.3,MacIntel,59.99880002,,,,,,,,,,,0.5821,1,,,,,,,,,,,,,,,,,,,,,,,,0.023216146,-0.385286458,0,0,0,,,,,,,CRUMB,LB,m,m,./images/CRUMBLB.png,,,,,,,,,,,,,,,,,,,,,m,1,0.5821,,,,,,,,0,89,89,29,1
,,,,,,,,,,,,,,,,,60136d792b03b2251aeec5aa,30,2022-02-12_11h44.35.663,lexical_decision_task_DD,2021.2.3,MacIntel,59.99880002,,,,,,,,,,,0.6535,0,,,,,,,,,,,,,,,,,,,,,,,,0.023216146,-0.385286458,0,0,0,,,,,,,TRIPOD,C,m,m,./images/TRIPOD.png,,,,,,,,,,,,,,,,,,,,,z,0,0.6535,,,,,,,,0,90,90,54,1
,,,,,,,,,,,,,,,,,60136d792b03b2251aeec5aa,30,2022-02-12_11h44.35.663,lexical_decision_task_DD,2021.2.3,MacIntel,59.99880002,,,,,,,,,,,0.6332,0,,,,,,,,,,,,,,,,,,,,,,,,0.023216146,-0.385286458,0,0,0,,,,,,,ATTIC,C,m,m,./images/ATTIC.png,,,,,,,,,,,,,,,,,,,,,z,0,0.6332,,,,,,,,0,91,91,27,1
,,,,,,,,,,,,,,,,,60136d792b03b2251aeec5aa,30,2022-02-12_11h44.35.663,lexical_decision_task_DD,2021.2.3,MacIntel,59.99880002,,,,,,,,,,,0.7836,0,,,,,,,,,,,,,,,,,,,,,,,,0.023216146,-0.385286458,0,0,0,,,,,,,BRIDE,HB,z,m,./images/BRIDEHB.png,,,,,,,,,,,,,,,,,,,,,m,0,0.7836,,,,,,,,0,92,92,148,1
,,,,,,,,,,,,,,,,,60136d792b03b2251aeec5aa,30,2022-02-12_11h44.35.663,lexical_decision_task_DD,2021.2.3,MacIntel,59.99880002,,,,,,,,,,,0.8428,0,,,,,,,,,,,,,,,,,,,,,,,,0.023216146,-0.385286458,0,0,0,,,,,,,GRAPE,HB,z,m,./images/GRAPEHB.png,,,,,,,,,,,,,,,,,,,,,m,0,0.8428,,,,,,,,0,93,93,100,1
,,,,,,,,,,,,,,,,,60136d792b03b2251aeec5aa,30,2022-02-12_11h44.35.663,lexical_decision_task_DD,2021.2.3,MacIntel,59.99880002,,,,,,,,,,,0.5759,1,,,,,,,,,,,,,,,,,,,,,,,,0.023216146,-0.385286458,0,0,0,,,,,,,GLOVE,HB,z,m,./images/GLOVEHB.png,,,,,,,,,,,,,,,,,,,,,z,1,0.5759,,,,,,,,0,94,94,157,1
,,,,,,,,,,,,,,,,,60136d792b03b2251aeec5aa,30,2022-02-12_11h44.35.663,lexical_decision_task_DD,2021.2.3,MacIntel,59.99880002,,,,,,,,,,,0.5651,0,,,,,,,,,,,,,,,,,,,,,,,,0.023216146,-0.385286458,0,0,0,,,,,,,BOXER,HB,z,m,./images/BOXERHB.png,,,,,,,,,,,,,,,,,,,,,m,0,0.5651,,,,,,,,0,95,95,88,1
,,,,,,,,,,,,,,,,,60136d792b03b2251aeec5aa,30,2022-02-12_11h44.35.663,lexical_decision_task_DD,2021.2.3,MacIntel,59.99880002,,,,,,,,,,,0.6929,1,,,,,,,,,,,,,,,,,,,,,,,,0.023216146,-0.385286458,0,0,0,,,,,,,SNAKE,HB,z,m,./images/SNAKEHB.png,,,,,,,,,,,,,,,,,,,,,z,1,0.6929,,,,,,,,0,96,96,124,1
,,,,,,,,,,,,,,,,,60136d792b03b2251aeec5aa,30,2022-02-12_11h44.35.663,lexical_decision_task_DD,2021.2.3,MacIntel,59.99880002,,,,,,,,,,,0.5501,0,,,,,,,,,,,,,,,,,,,,,,,,0.023216146,-0.385286458,0,0,0,,,,,,,LLAMA,LB,z,m,./images/LLAMALB.png,,,,,,,,,,,,,,,,,,,,,m,0,0.5501,,,,,,,,0,97,97,119,1
,,,,,,,,,,,,,,,,,60136d792b03b2251aeec5aa,30,2022-02-12_11h44.35.663,lexical_decision_task_DD,2021.2.3,MacIntel,59.99880002,,,,,,,,,,,0.5194,0,,,,,,,,,,,,,,,,,,,,,,,,0.023216146,-0.385286458,0,0,0,,,,,,,FLASK,C,z,m,./images/FLASK.png,,,,,,,,,,,,,,,,,,,,,m,0,0.5194,,,,,,,,0,98,98,156,1
,,,,,,,,,,,,,,,,,60136d792b03b2251aeec5aa,30,2022-02-12_11h44.35.663,lexical_decision_task_DD,2021.2.3,MacIntel,59.99880002,,,,,,,,,,,0.8565,0,,,,,,,,,,,,,,,,,,,,,,,,0.023216146,-0.385286458,0,0,0,,,,,,,MOSQUE,HB,m,m,./images/MOSQUEHB.png,,,,,,,,,,,,,,,,,,,,,z,0,0.8565,,,,,,,,0,99,99,43,1
,,,,,,,,,,,,,,,,,60136d792b03b2251aeec5aa,30,2022-02-12_11h44.35.663,lexical_decision_task_DD,2021.2.3,MacIntel,59.99880002,,,,,,,,,,,0.6557,0,,,,,,,,,,,,,,,,,,,,,,,,0.023216146,-0.385286458,0,0,0,,,,,,,SPINE,LB,z,m,./images/SPINELB.png,,,,,,,,,,,,,,,,,,,,,m,0,0.6557,,,,,,,,0,100,100,149,1
,,,,,,,,,,,,,,,,,60136d792b03b2251aeec5aa,30,2022-02-12_11h44.35.663,lexical_decision_task_DD,2021.2.3,MacIntel,59.99880002,,,,,,,,,,,0.8489,0,,,,,,,,,,,,,,,,,,,,,,,,0.023216146,-0.385286458,0,0,0,,,,,,,COLLAR,C,z,m,./images/COLLAR.png,,,,,,,,,,,,,,,,,,,,,m,0,0.8489,,,,,,,,0,101,101,99,1
,,,,,,,,,,,,,,,,,60136d792b03b2251aeec5aa,30,2022-02-12_11h44.35.663,lexical_decision_task_DD,2021.2.3,MacIntel,59.99880002,,,,,,,,,,,0.6164,0,,,,,,,,,,,,,,,,,,,,,,,,0.023216146,-0.385286458,0,0,0,,,,,,,TULIP,LB,m,m,./images/TULIPLB.png,,,,,,,,,,,,,,,,,,,,,z,0,0.6164,,,,,,,,0,102,102,8,1
,,,,,,,,,,,,,,,,,60136d792b03b2251aeec5aa,30,2022-02-12_11h44.35.663,lexical_decision_task_DD,2021.2.3,MacIntel,59.99880002,,,,,,,,,,,0.6492,1,,,,,,,,,,,,,,,,,,,,,,,,0.023216146,-0.385286458,0,0,0,,,,,,,GREASE,C,m,m,./images/GREASE.png,,,,,,,,,,,,,,,,,,,,,m,1,0.6492,,,,,,,,0,103,103,15,1
,,,,,,,,,,,,,,,,,60136d792b03b2251aeec5aa,30,2022-02-12_11h44.35.663,lexical_decision_task_DD,2021.2.3,MacIntel,59.99880002,,,,,,,,,,,0.6189,0,,,,,,,,,,,,,,,,,,,,,,,,0.023216146,-0.385286458,0,0,0,,,,,,,PICKLE,LB,m,m,./images/PICKLELB.png,,,,,,,,,,,,,,,,,,,,,z,0,0.6189,,,,,,,,0,104,104,14,1
,,,,,,,,,,,,,,,,,60136d792b03b2251aeec5aa,30,2022-02-12_11h44.35.663,lexical_decision_task_DD,2021.2.3,MacIntel,59.99880002,,,,,,,,,,,0.8493,1,,,,,,,,,,,,,,,,,,,,,,,,0.023216146,-0.385286458,0,0,0,,,,,,,CASINO,HB,z,m,./images/CASINOHB.png,,,,,,,,,,,,,,,,,,,,,z,1,0.8493,,,,,,,,0,105,105,112,1
,,,,,,,,,,,,,,,,,60136d792b03b2251aeec5aa,30,2022-02-12_11h44.35.663,lexical_decision_task_DD,2021.2.3,MacIntel,59.99880002,,,,,,,,,,,0.5889,1,,,,,,,,,,,,,,,,,,,,,,,,0.023216146,-0.385286458,0,0,0,,,,,,,DOUGH,HB,m,m,./images/DOUGHHB.png,,,,,,,,,,,,,,,,,,,,,m,1,0.5889,,,,,,,,0,106,106,19,1
,,,,,,,,,,,,,,,,,60136d792b03b2251aeec5aa,30,2022-02-12_11h44.35.663,lexical_decision_task_DD,2021.2.3,MacIntel,59.99880002,,,,,,,,,,,1.0307,0,,,,,,,,,,,,,,,,,,,,,,,,0.023216146,-0.385286458,0,0,0,,,,,,,STREAM,LB,z,m,./images/STREAMLB.png,,,,,,,,,,,,,,,,,,,,,m,0,1.0307,,,,,,,,0,107,107,125,1
,,,,,,,,,,,,,,,,,60136d792b03b2251aeec5aa,30,2022-02-12_11h44.35.663,lexical_decision_task_DD,2021.2.3,MacIntel,59.99880002,,,,,,,,,,,0.8753,1,,,,,,,,,,,,,,,,,,,,,,,,0.023216146,-0.385286458,0,0,0,,,,,,,BEARD,LB,m,m,./images/BEARDLB.png,,,,,,,,,,,,,,,,,,,,,m,1,0.8753,,,,,,,,0,108,108,2,1
,,,,,,,,,,,,,,,,,60136d792b03b2251aeec5aa,30,2022-02-12_11h44.35.663,lexical_decision_task_DD,2021.2.3,MacIntel,59.99880002,,,,,,,,,,,0.9989,0,,,,,,,,,,,,,,,,,,,,,,,,0.023216146,-0.385286458,0,0,0,,,,,,,VALLEY,LB,z,m,./images/VALLEYLB.png,,,,,,,,,,,,,,,,,,,,,m,0,0.9989,,,,,,,,0,109,109,152,1
,,,,,,,,,,,,,,,,,60136d792b03b2251aeec5aa,30,2022-02-12_11h44.35.663,lexical_decision_task_DD,2021.2.3,MacIntel,59.99880002,,,,,,,,,,,0.8817,1,,,,,,,,,,,,,,,,,,,,,,,,0.023216146,-0.385286458,0,0,0,,,,,,,PAINT,HB,m,m,./images/PAINTHB.png,,,,,,,,,,,,,,,,,,,,,m,1,0.8817,,,,,,,,0,110,110,7,1
,,,,,,,,,,,,,,,,,60136d792b03b2251aeec5aa,30,2022-02-12_11h44.35.663,lexical_decision_task_DD,2021.2.3,MacIntel,59.99880002,,,,,,,,,,,0.6542,0,,,,,,,,,,,,,,,,,,,,,,,,0.023216146,-0.385286458,0,0,0,,,,,,,JUNGLE,LB,m,m,./images/JUNGLELB.png,,,,,,,,,,,,,,,,,,,,,z,0,0.6542,,,,,,,,0,111,111,83,1
,,,,,,,,,,,,,,,,,60136d792b03b2251aeec5aa,30,2022-02-12_11h44.35.663,lexical_decision_task_DD,2021.2.3,MacIntel,59.99880002,,,,,,,,,,,0.6229,1,,,,,,,,,,,,,,,,,,,,,,,,0.023216146,-0.385286458,0,0,0,,,,,,,INFANT,HB,m,m,./images/INFANTHB.png,,,,,,,,,,,,,,,,,,,,,m,1,0.6229,,,,,,,,0,112,112,76,1
,,,,,,,,,,,,,,,,,60136d792b03b2251aeec5aa,30,2022-02-12_11h44.35.663,lexical_decision_task_DD,2021.2.3,MacIntel,59.99880002,,,,,,,,,,,0.4966,1,,,,,,,,,,,,,,,,,,,,,,,,0.023216146,-0.385286458,0,0,0,,,,,,,ENGINE,LB,z,m,./images/ENGINELB.png,,,,,,,,,,,,,,,,,,,,,z,1,0.4966,,,,,,,,0,113,113,122,1
,,,,,,,,,,,,,,,,,60136d792b03b2251aeec5aa,30,2022-02-12_11h44.35.663,lexical_decision_task_DD,2021.2.3,MacIntel,59.99880002,,,,,,,,,,,0.7011,0,,,,,,,,,,,,,,,,,,,,,,,,0.023216146,-0.385286458,0,0,0,,,,,,,WHEEL,LB,z,m,./images/WHEELLB.png,,,,,,,,,,,,,,,,,,,,,m,0,0.7011,,,,,,,,0,114,114,161,1
,,,,,,,,,,,,,,,,,60136d792b03b2251aeec5aa,30,2022-02-12_11h44.35.663,lexical_decision_task_DD,2021.2.3,MacIntel,59.99880002,,,,,,,,,,,0.6656,1,,,,,,,,,,,,,,,,,,,,,,,,0.023216146,-0.385286458,0,0,0,,,,,,,SMOKER,LB,m,m,./images/SMOKERLB.png,,,,,,,,,,,,,,,,,,,,,m,1,0.6656,,,,,,,,0,115,115,26,1
,,,,,,,,,,,,,,,,,60136d792b03b2251aeec5aa,30,2022-02-12_11h44.35.663,lexical_decision_task_DD,2021.2.3,MacIntel,59.99880002,,,,,,,,,,,1.3174,1,,,,,,,,,,,,,,,,,,,,,,,,0.023216146,-0.385286458,0,0,0,,,,,,,NOOSE,C,m,m,./images/NOOSE.png,,,,,,,,,,,,,,,,,,,,,m,1,1.3174,,,,,,,,0,116,116,72,1
,,,,,,,,,,,,,,,,,60136d792b03b2251aeec5aa,30,2022-02-12_11h44.35.663,lexical_decision_task_DD,2021.2.3,MacIntel,59.99880002,,,,,,,,,,,0.6011,1,,,,,,,,,,,,,,,,,,,,,,,,0.023216146,-0.385286458,0,0,0,,,,,,,STRING,LB,m,m,./images/STRINGLB.png,,,,,,,,,,,,,,,,,,,,,m,1,0.6011,,,,,,,,0,117,117,41,1
,,,,,,,,,,,,,,,,,60136d792b03b2251aeec5aa,30,2022-02-12_11h44.35.663,lexical_decision_task_DD,2021.2.3,MacIntel,59.99880002,,,,,,,,,,,0.8326,1,,,,,,,,,,,,,,,,,,,,,,,,0.023216146,-0.385286458,0,0,0,,,,,,,BERRY,LB,m,m,./images/BERRYLB.png,,,,,,,,,,,,,,,,,,,,,m,1,0.8326,,,,,,,,0,118,118,47,1
,,,,,,,,,,,,,,,,,60136d792b03b2251aeec5aa,30,2022-02-12_11h44.35.663,lexical_decision_task_DD,2021.2.3,MacIntel,59.99880002,,,,,,,,,,,0.7645,1,,,,,,,,,,,,,,,,,,,,,,,,0.023216146,-0.385286458,0,0,0,,,,,,,SPORT,C,m,m,./images/SPORT.png,,,,,,,,,,,,,,,,,,,,,m,1,0.7645,,,,,,,,0,119,119,48,1
,,,,,,,,,,,,,,,,,60136d792b03b2251aeec5aa,30,2022-02-12_11h44.35.663,lexical_decision_task_DD,2021.2.3,MacIntel,59.99880002,,,,,,,,,,,0.622,0,,,,,,,,,,,,,,,,,,,,,,,,0.023216146,-0.385286458,0,0,0,,,,,,,ARROW,C,z,m,./images/ARROW.png,,,,,,,,,,,,,,,,,,,,,m,0,0.622,,,,,,,,0,120,120,153,1
,,,,,,,,,,,,,,,,,60136d792b03b2251aeec5aa,30,2022-02-12_11h44.35.663,lexical_decision_task_DD,2021.2.3,MacIntel,59.99880002,,,,,,,,,,,0.7487,0,,,,,,,,,,,,,,,,,,,,,,,,0.023216146,-0.385286458,0,0,0,,,,,,,CEMENT,LB,m,m,./images/CEMENTLB.png,,,,,,,,,,,,,,,,,,,,,z,0,0.7487,,,,,,,,0,121,121,74,1
,,,,,,,,,,,,,,,,,60136d792b03b2251aeec5aa,30,2022-02-12_11h44.35.663,lexical_decision_task_DD,2021.2.3,MacIntel,59.99880002,,,,,,,,,,,1.3355,1,,,,,,,,,,,,,,,,,,,,,,,,0.023216146,-0.385286458,0,0,0,,,,,,,MELON,HB,m,m,./images/MELONHB.png,,,,,,,,,,,,,,,,,,,,,m,1,1.3355,,,,,,,,0,122,122,22,1
,,,,,,,,,,,,,,,,,60136d792b03b2251aeec5aa,30,2022-02-12_11h44.35.663,lexical_decision_task_DD,2021.2.3,MacIntel,59.99880002,,,,,,,,,,,0.9322,1,,,,,,,,,,,,,,,,,,,,,,,,0.023216146,-0.385286458,0,0,0,,,,,,,CARPET,LB,m,m,./images/CARPETLB.png,,,,,,,,,,,,,,,,,,,,,m,1,0.9322,,,,,,,,0,123,123,53,1
,,,,,,,,,,,,,,,,,60136d792b03b2251aeec5aa,30,2022-02-12_11h44.35.663,lexical_decision_task_DD,2021.2.3,MacIntel,59.99880002,,,,,,,,,,,0.7052,0,,,,,,,,,,,,,,,,,,,,,,,,0.023216146,-0.385286458,0,0,0,,,,,,,JAGUAR,C,m,m,./images/JAGUAR.png,,,,,,,,,,,,,,,,,,,,,z,0,0.7052,,,,,,,,0,124,124,18,1
,,,,,,,,,,,,,,,,,60136d792b03b2251aeec5aa,30,2022-02-12_11h44.35.663,lexical_decision_task_DD,2021.2.3,MacIntel,59.99880002,,,,,,,,,,,0.7078,1,,,,,,,,,,,,,,,,,,,,,,,,0.023216146,-0.385286458,0,0,0,space,,,,,,TWINS,C,m,m,./images/TWINS.png,6.8847,,,,,,,,,,,,,,,,,,,,m,1,0.7078,,,,,,,,0,125,125,60,1
,,,,,,,,,,,,,,,,,60136d792b03b2251aeec5aa,30,2022-02-12_11h44.35.663,lexical_decision_task_DD,2021.2.3,MacIntel,59.99880002,,,,,,,,,,,0.9161,0,,,,,,,,,,,,,,,,,,,,,,,,0.023216146,-0.385286458,0,0,0,,,,,,,CLIFF,LB,z,m,./images/CLIFFLB.png,,,,,,,,,,,,,,,,,,,,,m,0,0.9161,,,,,,,,0,126,126,92,1
,,,,,,,,,,,,,,,,,60136d792b03b2251aeec5aa,30,2022-02-12_11h44.35.663,lexical_decision_task_DD,2021.2.3,MacIntel,59.99880002,,,,,,,,,,,0.6811,0,,,,,,,,,,,,,,,,,,,,,,,,0.023216146,-0.385286458,0,0,0,,,,,,,CLOTH,LB,z,m,./images/CLOTHLB.png,,,,,,,,,,,,,,,,,,,,,m,0,0.6811,,,,,,,,0,127,127,107,1
,,,,,,,,,,,,,,,,,60136d792b03b2251aeec5aa,30,2022-02-12_11h44.35.663,lexical_decision_task_DD,2021.2.3,MacIntel,59.99880002,,,,,,,,,,,0.7994,0,,,,,,,,,,,,,,,,,,,,,,,,0.023216146,-0.385286458,0,0,0,,,,,,,DANCER,C,z,m,./images/DANCER.png,,,,,,,,,,,,,,,,,,,,,m,0,0.7994,,,,,,,,0,128,128,105,1
,,,,,,,,,,,,,,,,,60136d792b03b2251aeec5aa,30,2022-02-12_11h44.35.663,lexical_decision_task_DD,2021.2.3,MacIntel,59.99880002,,,,,,,,,,,0.569,0,,,,,,,,,,,,,,,,,,,,,,,,0.023216146,-0.385286458,0,0,0,,,,,,,CANDY,C,z,m,./images/CANDY.png,,,,,,,,,,,,,,,,,,,,,m,0,0.569,,,,,,,,0,129,129,123,1
,,,,,,,,,,,,,,,,,60136d792b03b2251aeec5aa,30,2022-02-12_11h44.35.663,lexical_decision_task_DD,2021.2.3,MacIntel,59.99880002,,,,,,,,,,,0.5728,0,,,,,,,,,,,,,,,,,,,,,,,,0.023216146,-0.385286458,0,0,0,,,,,,,WHISKY,LB,z,m,./images/WHISKYLB.png,,,,,,,,,,,,,,,,,,,,,m,0,0.5728,,,,,,,,0,130,130,167,1
,,,,,,,,,,,,,,,,,60136d792b03b2251aeec5aa,30,2022-02-12_11h44.35.663,lexical_decision_task_DD,2021.2.3,MacIntel,59.99880002,,,,,,,,,,,0.7651,0,,,,,,,,,,,,,,,,,,,,,,,,0.023216146,-0.385286458,0,0,0,,,,,,,KITTEN,C,m,m,./images/KITTEN.png,,,,,,,,,,,,,,,,,,,,,z,0,0.7651,,,,,,,,0,131,131,45,1
