key_resp.keys,key_resp.rt,instr_done_touch.x,instr_done_touch.y,instr_done_touch.leftButton,instr_done_touch.midButton,instr_done_touch.rightButton,instruction_pages.thisRepN,instruction_pages.thisTrialN,instruction_pages.thisN,instruction_pages.thisIndex,instruction_pages.ran,pageN,phase,instruct_text,has_image,instruct_image,participant,age,date,expName,psychopyVersion,OS,frameRate,instr_done_touch.clicked_name,response.keys,response.corr,response.rt,touch_resp.x,touch_resp.y,touch_resp.leftButton,touch_resp.midButton,touch_resp.rightButton,touch_resp.time,touch_resp.clicked_name,rt,corr,practrials.thisRepN,practrials.thisTrialN,practrials.thisN,practrials.thisIndex,practrials.ran,TrialID,Target,corrAns,end_of_practice_trials_pages.thisRepN,end_of_practice_trials_pages.thisTrialN,end_of_practice_trials_pages.thisN,end_of_practice_trials_pages.thisIndex,end_of_practice_trials_pages.ran,key_resp_2.keys,key_resp_2.corr,key_resp_2.rt,targ_click.x,targ_click.y,targ_click.leftButton,targ_click.midButton,targ_click.rightButton,targ_click.time,targ_click.clicked_name,break_done_touch.x,break_done_touch.y,break_done_touch.leftButton,break_done_touch.midButton,break_done_touch.rightButton,break_done_keyboard.keys,maintrials.thisRepN,maintrials.thisTrialN,maintrials.thisN,maintrials.thisIndex,maintrials.ran,string,blur,study,lex,stim_path,break_done_keyboard.rt,mouse_2.x,mouse_2.y,mouse_2.leftButton,mouse_2.midButton,mouse_2.rightButton,mouse_2.clicked_name,slider.response,slider.rt,trials.thisRepN,trials.thisTrialN,trials.thisN,trials.thisIndex,trials.ran,test_instructions.thisRepN,test_instructions.thisTrialN,test_instructions.thisN,test_instructions.thisIndex,test_instructions.ran,key_resp_3.keys,key_resp_3.corr,key_resp_3.rt,test_click.x,test_click.y,test_click.leftButton,test_click.midButton,test_click.rightButton,test_click.time,test_click.clicked_name,test_phase.thisRepN,test_phase.thisTrialN,test_phase.thisN,test_phase.thisIndex,test_phase.ran
space,28.5416,0.315740741,-0.244444444,0,0,0,0,0,0,0,1,1,instructions,"INSTRUCTIONS
At the start of each trial, look at the plus sign  (+) in the center of the screen.  This tells you that a trial is about to begin and where to look. Second, the plus sign will disappear and a string of letters will appear. Your task is to determine if the string of letters is a word or not. If the item is a word press the M key (on keyboard)  or touch the word button (phone/tablet).  If the item is not a word,  press the  Z key (on keyboard)  or touch the nonword button (on phone/tablet). 
Press the space bar or touch  continue.",0,,607331e66524baf7ddfaae21,44,2022-02-12_13h48.41.588,lexical_decision_task_DD_L6,2021.2.3,Win32,59.52735282,,,,,,,,,,,,,,,,,,,,,,,,,,,,,,,,,,,,,,,,,,,,,,,,,,,,,,,,,,,,,,,,,,,,,,,,,,,,,,,,,,,,,,
space,8.3879,0.315740741,-0.244444444,0,0,0,0,1,1,1,1,2,instructions,"If your device has a keyboard, press the 'Z' key for nonwords and the 'M' key for words.





Press the space bar or touch the button below to continue.",0,keyboard-example.gif,607331e66524baf7ddfaae21,44,2022-02-12_13h48.41.588,lexical_decision_task_DD_L6,2021.2.3,Win32,59.52735282,,,,,,,,,,,,,,,,,,,,,,,,,,,,,,,,,,,,,,,,,,,,,,,,,,,,,,,,,,,,,,,,,,,,,,,,,,,,,,,,,,,,,,
,,-0.016666667,-0.403703704,1,0,0,0,2,2,2,1,3,instructions,"If you are using a touchscreen only device, use the buttons on the screen. Do not use the mouse.





Press the space bar or touch the button below to continue.",0,touchscreen-example.gif,607331e66524baf7ddfaae21,44,2022-02-12_13h48.41.588,lexical_decision_task_DD_L6,2021.2.3,Win32,59.52735282,instr_done_button,,,,,,,,,,,,,,,,,,,,,,,,,,,,,,,,,,,,,,,,,,,,,,,,,,,,,,,,,,,,,,,,,,,,,,,,,,,,,,,,,,,,,
,,0.076851852,-0.402777778,1,0,0,0,3,3,3,1,4,instructions,"It is very important that you respond as quickly and accurately as possible, as each letter string will only be on the screen for two seconds. If you do not respond within this time, the message 'Too slow!' will be displayed and the experiment will progress to the next letter string. The first 20 trials will be practice trials and you will receive feedback on your answers. 

Press the space bar or touch the button below to start the practice trials.",0,,607331e66524baf7ddfaae21,44,2022-02-12_13h48.41.588,lexical_decision_task_DD_L6,2021.2.3,Win32,59.52735282,instr_done_button,,,,,,,,,,,,,,,,,,,,,,,,,,,,,,,,,,,,,,,,,,,,,,,,,,,,,,,,,,,,,,,,,,,,,,,,,,,,,,,,,,,,,
,,,,,,,,,,,,,,,,,607331e66524baf7ddfaae21,44,2022-02-12_13h48.41.588,lexical_decision_task_DD_L6,2021.2.3,Win32,59.52735282,,z,1,1.6416,,,,,,,,1.6416,1,0,0,0,13,1,1001,ROUPET,z,,,,,,,,,,,,,,,,,,,,,,,,,,,,,,,,,,,,,,,,,,,,,,,,,,,,,,,,,,,,,,,,,
,,,,,,,,,,,,,,,,,607331e66524baf7ddfaae21,44,2022-02-12_13h48.41.588,lexical_decision_task_DD_L6,2021.2.3,Win32,59.52735282,,z,1,0.6842,,,,,,,,0.6842,1,0,1,1,10,1,1001,INLADE,z,,,,,,,,,,,,,,,,,,,,,,,,,,,,,,,,,,,,,,,,,,,,,,,,,,,,,,,,,,,,,,,,,
,,,,,,,,,,,,,,,,,607331e66524baf7ddfaae21,44,2022-02-12_13h48.41.588,lexical_decision_task_DD_L6,2021.2.3,Win32,59.52735282,,m,1,0.5917,,,,,,,,0.5917,1,0,2,2,1,1,1001,ADJUST,m,,,,,,,,,,,,,,,,,,,,,,,,,,,,,,,,,,,,,,,,,,,,,,,,,,,,,,,,,,,,,,,,,
,,,,,,,,,,,,,,,,,607331e66524baf7ddfaae21,44,2022-02-12_13h48.41.588,lexical_decision_task_DD_L6,2021.2.3,Win32,59.52735282,,m,1,0.7126,,,,,,,,0.7126,1,0,3,3,4,1,1001,SQUEAK,m,,,,,,,,,,,,,,,,,,,,,,,,,,,,,,,,,,,,,,,,,,,,,,,,,,,,,,,,,,,,,,,,,
,,,,,,,,,,,,,,,,,607331e66524baf7ddfaae21,44,2022-02-12_13h48.41.588,lexical_decision_task_DD_L6,2021.2.3,Win32,59.52735282,,z,1,0.8346,,,,,,,,0.8346,1,0,4,4,9,1,1001,FARINY,z,,,,,,,,,,,,,,,,,,,,,,,,,,,,,,,,,,,,,,,,,,,,,,,,,,,,,,,,,,,,,,,,,
,,,,,,,,,,,,,,,,,607331e66524baf7ddfaae21,44,2022-02-12_13h48.41.588,lexical_decision_task_DD_L6,2021.2.3,Win32,59.52735282,,z,1,0.6275,,,,,,,,0.6275,1,0,5,5,14,1,1001,THRALE,z,,,,,,,,,,,,,,,,,,,,,,,,,,,,,,,,,,,,,,,,,,,,,,,,,,,,,,,,,,,,,,,,,
,,,,,,,,,,,,,,,,,607331e66524baf7ddfaae21,44,2022-02-12_13h48.41.588,lexical_decision_task_DD_L6,2021.2.3,Win32,59.52735282,,z,1,0.7355,,,,,,,,0.7355,1,0,6,6,8,1,1001,ASLERT,z,,,,,,,,,,,,,,,,,,,,,,,,,,,,,,,,,,,,,,,,,,,,,,,,,,,,,,,,,,,,,,,,,
,,,,,,,,,,,,,,,,,607331e66524baf7ddfaae21,44,2022-02-12_13h48.41.588,lexical_decision_task_DD_L6,2021.2.3,Win32,59.52735282,,z,1,0.7128,,,,,,,,0.7128,1,0,7,7,12,1,1001,SPRINY,z,,,,,,,,,,,,,,,,,,,,,,,,,,,,,,,,,,,,,,,,,,,,,,,,,,,,,,,,,,,,,,,,,
,,,,,,,,,,,,,,,,,607331e66524baf7ddfaae21,44,2022-02-12_13h48.41.588,lexical_decision_task_DD_L6,2021.2.3,Win32,59.52735282,,m,1,0.6293,,,,,,,,0.6293,1,0,8,8,3,1,1001,MATRIX,m,,,,,,,,,,,,,,,,,,,,,,,,,,,,,,,,,,,,,,,,,,,,,,,,,,,,,,,,,,,,,,,,,
,,,,,,,,,,,,,,,,,607331e66524baf7ddfaae21,44,2022-02-12_13h48.41.588,lexical_decision_task_DD_L6,2021.2.3,Win32,59.52735282,,m,1,0.5356,,,,,,,,0.5356,1,0,9,9,5,1,1001,OBTAIN,m,,,,,,,,,,,,,,,,,,,,,,,,,,,,,,,,,,,,,,,,,,,,,,,,,,,,,,,,,,,,,,,,,
,,,,,,,,,,,,,,,,,607331e66524baf7ddfaae21,44,2022-02-12_13h48.41.588,lexical_decision_task_DD_L6,2021.2.3,Win32,59.52735282,,z,1,0.644,,,,,,,,0.644,1,0,10,10,15,1,1001,WHAISE,z,,,,,,,,,,,,,,,,,,,,,,,,,,,,,,,,,,,,,,,,,,,,,,,,,,,,,,,,,,,,,,,,,
,,,,,,,,,,,,,,,,,607331e66524baf7ddfaae21,44,2022-02-12_13h48.41.588,lexical_decision_task_DD_L6,2021.2.3,Win32,59.52735282,,m,1,1.0105,,,,,,,,1.0105,1,0,11,11,6,1,1001,ZOMBIE,m,,,,,,,,,,,,,,,,,,,,,,,,,,,,,,,,,,,,,,,,,,,,,,,,,,,,,,,,,,,,,,,,,
,,,,,,,,,,,,,,,,,607331e66524baf7ddfaae21,44,2022-02-12_13h48.41.588,lexical_decision_task_DD_L6,2021.2.3,Win32,59.52735282,,z,1,0.8667,,,,,,,,0.8667,1,0,12,12,11,1,1001,RASHET,z,,,,,,,,,,,,,,,,,,,,,,,,,,,,,,,,,,,,,,,,,,,,,,,,,,,,,,,,,,,,,,,,,
,,,,,,,,,,,,,,,,,607331e66524baf7ddfaae21,44,2022-02-12_13h48.41.588,lexical_decision_task_DD_L6,2021.2.3,Win32,59.52735282,,m,1,0.5763,,,,,,,,0.5763,1,0,13,13,7,1,1001,VOLUME,m,,,,,,,,,,,,,,,,,,,,,,,,,,,,,,,,,,,,,,,,,,,,,,,,,,,,,,,,,,,,,,,,,
,,,,,,,,,,,,,,,,,607331e66524baf7ddfaae21,44,2022-02-12_13h48.41.588,lexical_decision_task_DD_L6,2021.2.3,Win32,59.52735282,,m,1,1.057,,,,,,,,1.057,1,0,14,14,0,1,1001,UTOPIA,m,,,,,,,,,,,,,,,,,,,,,,,,,,,,,,,,,,,,,,,,,,,,,,,,,,,,,,,,,,,,,,,,,
,,,,,,,,,,,,,,,,,607331e66524baf7ddfaae21,44,2022-02-12_13h48.41.588,lexical_decision_task_DD_L6,2021.2.3,Win32,59.52735282,,m,1,0.5662,,,,,,,,0.5662,1,0,15,15,2,1,1001,ALMOND,m,,,,,,,,,,,,,,,,,,,,,,,,,,,,,,,,,,,,,,,,,,,,,,,,,,,,,,,,,,,,,,,,,
,,0.15462963,-0.410185185,1,0,0,,,,,,1,end_of_practice,"You have completed the practice trials. During the experimental trials, you will not receive feedback. 
Before you begin, please ensure that you are in a comfortable and quiet location and will not be disturbed for about 15 minutes, as we cannot use your data if you do not complete all the trials. 
 When you are ready to start the experimental trials, please press space or touch the button below.",,,607331e66524baf7ddfaae21,44,2022-02-12_13h48.41.588,lexical_decision_task_DD_L6,2021.2.3,Win32,59.52735282,instr_done_button,,,,,,,,,,,,,,,,,,,,,0,0,0,0,1,,,,,,,,,,,,,,,,,,,,,,,,,,,,,,,,,,,,,,,,,,,,,,,,,,,,,,,,,,,,
,,,,,,,,,,,,,,,,,607331e66524baf7ddfaae21,44,2022-02-12_13h48.41.588,lexical_decision_task_DD_L6,2021.2.3,Win32,59.52735282,,,,,,,,,,,,2.1615,1,,,,,,,,,,,,,,m,1,2.1615,,,,,,,,0.15462963,-0.410185185,0,0,0,,0,0,0,65,1,SPINE,HB,m,m,./images/SPINEHB.png,,,,,,,,,,,,,,,,,,,,,,,,,,,,,,,,,,
,,,,,,,,,,,,,,,,,607331e66524baf7ddfaae21,44,2022-02-12_13h48.41.588,lexical_decision_task_DD_L6,2021.2.3,Win32,59.52735282,,,,,,,,,,,,1.1697,1,,,,,,,,,,,,,,z,1,1.1697,,,,,,,,0.15462963,-0.410185185,0,0,0,,0,1,1,145,1,LAMEL,HB,z,z,./images/LAMELHB.png,,,,,,,,,,,,,,,,,,,,,,,,,,,,,,,,,,
,,,,,,,,,,,,,,,,,607331e66524baf7ddfaae21,44,2022-02-12_13h48.41.588,lexical_decision_task_DD_L6,2021.2.3,Win32,59.52735282,,,,,,,,,,,,0.8764,1,,,,,,,,,,,,,,m,1,0.8764,,,,,,,,0.15462963,-0.410185185,0,0,0,,0,2,2,72,1,FLASK,LB,m,m,./images/FLASKLB.png,,,,,,,,,,,,,,,,,,,,,,,,,,,,,,,,,,
,,,,,,,,,,,,,,,,,607331e66524baf7ddfaae21,44,2022-02-12_13h48.41.588,lexical_decision_task_DD_L6,2021.2.3,Win32,59.52735282,,,,,,,,,,,,0.9125,1,,,,,,,,,,,,,,m,1,0.9125,,,,,,,,0.15462963,-0.410185185,0,0,0,,0,3,3,2,1,STOVE,HB,m,m,./images/STOVEHB.png,,,,,,,,,,,,,,,,,,,,,,,,,,,,,,,,,,
,,,,,,,,,,,,,,,,,607331e66524baf7ddfaae21,44,2022-02-12_13h48.41.588,lexical_decision_task_DD_L6,2021.2.3,Win32,59.52735282,,,,,,,,,,,,0.8788,1,,,,,,,,,,,,,,z,1,0.8788,,,,,,,,0.15462963,-0.410185185,0,0,0,,0,4,4,147,1,ZOLES,C,z,z,./images/ZOLES.png,,,,,,,,,,,,,,,,,,,,,,,,,,,,,,,,,,
,,,,,,,,,,,,,,,,,607331e66524baf7ddfaae21,44,2022-02-12_13h48.41.588,lexical_decision_task_DD_L6,2021.2.3,Win32,59.52735282,,,,,,,,,,,,0.8422,1,,,,,,,,,,,,,,z,1,0.8422,,,,,,,,0.15462963,-0.410185185,0,0,0,,0,5,5,92,1,PAIMS,LB,z,z,./images/PAIMSLB.png,,,,,,,,,,,,,,,,,,,,,,,,,,,,,,,,,,
,,,,,,,,,,,,,,,,,607331e66524baf7ddfaae21,44,2022-02-12_13h48.41.588,lexical_decision_task_DD_L6,2021.2.3,Win32,59.52735282,,,,,,,,,,,,1.3204,1,,,,,,,,,,,,,,z,1,1.3204,,,,,,,,0.15462963,-0.410185185,0,0,0,,0,6,6,160,1,VEETS,HB,z,z,./images/VEETSHB.png,,,,,,,,,,,,,,,,,,,,,,,,,,,,,,,,,,
,,,,,,,,,,,,,,,,,607331e66524baf7ddfaae21,44,2022-02-12_13h48.41.588,lexical_decision_task_DD_L6,2021.2.3,Win32,59.52735282,,,,,,,,,,,,0.7566,1,,,,,,,,,,,,,,m,1,0.7566,,,,,,,,0.15462963,-0.410185185,0,0,0,,0,7,7,62,1,MAMMAL,HB,m,m,./images/MAMMALHB.png,,,,,,,,,,,,,,,,,,,,,,,,,,,,,,,,,,
,,,,,,,,,,,,,,,,,607331e66524baf7ddfaae21,44,2022-02-12_13h48.41.588,lexical_decision_task_DD_L6,2021.2.3,Win32,59.52735282,,,,,,,,,,,,1.1565,1,,,,,,,,,,,,,,m,1,1.1565,,,,,,,,0.15462963,-0.410185185,0,0,0,,0,8,8,35,1,LLAMA,HB,m,m,./images/LLAMAHB.png,,,,,,,,,,,,,,,,,,,,,,,,,,,,,,,,,,
,,,,,,,,,,,,,,,,,607331e66524baf7ddfaae21,44,2022-02-12_13h48.41.588,lexical_decision_task_DD_L6,2021.2.3,Win32,59.52735282,,,,,,,,,,,,0.741,1,,,,,,,,,,,,,,m,1,0.741,,,,,,,,0.15462963,-0.410185185,0,0,0,,0,9,9,24,1,FLESH,LB,m,m,./images/FLESHLB.png,,,,,,,,,,,,,,,,,,,,,,,,,,,,,,,,,,
,,,,,,,,,,,,,,,,,607331e66524baf7ddfaae21,44,2022-02-12_13h48.41.588,lexical_decision_task_DD_L6,2021.2.3,Win32,59.52735282,,,,,,,,,,,,1.319,1,,,,,,,,,,,,,,m,1,1.319,,,,,,,,0.15462963,-0.410185185,0,0,0,,0,10,10,52,1,DESERT,C,m,m,./images/DESERT.png,,,,,,,,,,,,,,,,,,,,,,,,,,,,,,,,,,
,,,,,,,,,,,,,,,,,607331e66524baf7ddfaae21,44,2022-02-12_13h48.41.588,lexical_decision_task_DD_L6,2021.2.3,Win32,59.52735282,,,,,,,,,,,,0.8075,1,,,,,,,,,,,,,,z,1,0.8075,,,,,,,,0.15462963,-0.410185185,0,0,0,,0,11,11,143,1,MONGS,LB,z,z,./images/MONGSLB.png,,,,,,,,,,,,,,,,,,,,,,,,,,,,,,,,,,
,,,,,,,,,,,,,,,,,607331e66524baf7ddfaae21,44,2022-02-12_13h48.41.588,lexical_decision_task_DD_L6,2021.2.3,Win32,59.52735282,,,,,,,,,,,,0.7898,1,,,,,,,,,,,,,,m,1,0.7898,,,,,,,,0.15462963,-0.410185185,0,0,0,,0,12,12,33,1,SAUNA,LB,m,m,./images/SAUNALB.png,,,,,,,,,,,,,,,,,,,,,,,,,,,,,,,,,,
,,,,,,,,,,,,,,,,,607331e66524baf7ddfaae21,44,2022-02-12_13h48.41.588,lexical_decision_task_DD_L6,2021.2.3,Win32,59.52735282,,,,,,,,,,,,0.8506,1,,,,,,,,,,,,,,z,1,0.8506,,,,,,,,0.15462963,-0.410185185,0,0,0,,0,13,13,146,1,MOOST,LB,z,z,./images/MOOSTLB.png,,,,,,,,,,,,,,,,,,,,,,,,,,,,,,,,,,
,,,,,,,,,,,,,,,,,607331e66524baf7ddfaae21,44,2022-02-12_13h48.41.588,lexical_decision_task_DD_L6,2021.2.3,Win32,59.52735282,,,,,,,,,,,,0.7607,1,,,,,,,,,,,,,,m,1,0.7607,,,,,,,,0.15462963,-0.410185185,0,0,0,,0,14,14,82,1,PEBBLE,C,m,m,./images/PEBBLE.png,,,,,,,,,,,,,,,,,,,,,,,,,,,,,,,,,,
,,,,,,,,,,,,,,,,,607331e66524baf7ddfaae21,44,2022-02-12_13h48.41.588,lexical_decision_task_DD_L6,2021.2.3,Win32,59.52735282,,,,,,,,,,,,0.6701,1,,,,,,,,,,,,,,m,1,0.6701,,,,,,,,0.15462963,-0.410185185,0,0,0,,0,15,15,57,1,FERRY,LB,m,m,./images/FERRYLB.png,,,,,,,,,,,,,,,,,,,,,,,,,,,,,,,,,,
,,,,,,,,,,,,,,,,,607331e66524baf7ddfaae21,44,2022-02-12_13h48.41.588,lexical_decision_task_DD_L6,2021.2.3,Win32,59.52735282,,,,,,,,,,,,0.6756,1,,,,,,,,,,,,,,z,1,0.6756,,,,,,,,0.15462963,-0.410185185,0,0,0,,0,16,16,161,1,BLAPS,LB,z,z,./images/BLAPSLB.png,,,,,,,,,,,,,,,,,,,,,,,,,,,,,,,,,,
,,,,,,,,,,,,,,,,,607331e66524baf7ddfaae21,44,2022-02-12_13h48.41.588,lexical_decision_task_DD_L6,2021.2.3,Win32,59.52735282,,,,,,,,,,,,0.6723,1,,,,,,,,,,,,,,m,1,0.6723,,,,,,,,0.15462963,-0.410185185,0,0,0,,0,17,17,19,1,DONKEY,C,m,m,./images/DONKEY.png,,,,,,,,,,,,,,,,,,,,,,,,,,,,,,,,,,
,,,,,,,,,,,,,,,,,607331e66524baf7ddfaae21,44,2022-02-12_13h48.41.588,lexical_decision_task_DD_L6,2021.2.3,Win32,59.52735282,,,,,,,,,,,,0.6034,1,,,,,,,,,,,,,,m,1,0.6034,,,,,,,,0.15462963,-0.410185185,0,0,0,,0,18,18,55,1,ALLEY,C,m,m,./images/ALLEY.png,,,,,,,,,,,,,,,,,,,,,,,,,,,,,,,,,,
,,,,,,,,,,,,,,,,,607331e66524baf7ddfaae21,44,2022-02-12_13h48.41.588,lexical_decision_task_DD_L6,2021.2.3,Win32,59.52735282,,,,,,,,,,,,0.6439,1,,,,,,,,,,,,,,m,1,0.6439,,,,,,,,0.15462963,-0.410185185,0,0,0,,0,19,19,3,1,CRATER,LB,m,m,./images/CRATERLB.png,,,,,,,,,,,,,,,,,,,,,,,,,,,,,,,,,,
,,,,,,,,,,,,,,,,,607331e66524baf7ddfaae21,44,2022-02-12_13h48.41.588,lexical_decision_task_DD_L6,2021.2.3,Win32,59.52735282,,,,,,,,,,,,0.5213,1,,,,,,,,,,,,,,m,1,0.5213,,,,,,,,0.15462963,-0.410185185,0,0,0,,0,20,20,73,1,GLOVE,C,m,m,./images/GLOVE.png,,,,,,,,,,,,,,,,,,,,,,,,,,,,,,,,,,
,,,,,,,,,,,,,,,,,607331e66524baf7ddfaae21,44,2022-02-12_13h48.41.588,lexical_decision_task_DD_L6,2021.2.3,Win32,59.52735282,,,,,,,,,,,,0.5998,1,,,,,,,,,,,,,,m,1,0.5998,,,,,,,,0.15462963,-0.410185185,0,0,0,,0,21,21,81,1,DRILL,LB,m,m,./images/DRILLLB.png,,,,,,,,,,,,,,,,,,,,,,,,,,,,,,,,,,
,,,,,,,,,,,,,,,,,607331e66524baf7ddfaae21,44,2022-02-12_13h48.41.588,lexical_decision_task_DD_L6,2021.2.3,Win32,59.52735282,,,,,,,,,,,,0.565,1,,,,,,,,,,,,,,m,1,0.565,,,,,,,,0.15462963,-0.410185185,0,0,0,,0,22,22,75,1,HAMMER,LB,m,m,./images/HAMMERLB.png,,,,,,,,,,,,,,,,,,,,,,,,,,,,,,,,,,
,,,,,,,,,,,,,,,,,607331e66524baf7ddfaae21,44,2022-02-12_13h48.41.588,lexical_decision_task_DD_L6,2021.2.3,Win32,59.52735282,,,,,,,,,,,,0.8383,1,,,,,,,,,,,,,,m,1,0.8383,,,,,,,,0.15462963,-0.410185185,0,0,0,,0,23,23,20,1,GRANNY,HB,m,m,./images/GRANNYHB.png,,,,,,,,,,,,,,,,,,,,,,,,,,,,,,,,,,
,,,,,,,,,,,,,,,,,607331e66524baf7ddfaae21,44,2022-02-12_13h48.41.588,lexical_decision_task_DD_L6,2021.2.3,Win32,59.52735282,,,,,,,,,,,,0.5325,1,,,,,,,,,,,,,,m,1,0.5325,,,,,,,,0.15462963,-0.410185185,0,0,0,,0,24,24,22,1,CLOWN,C,m,m,./images/CLOWN.png,,,,,,,,,,,,,,,,,,,,,,,,,,,,,,,,,,
,,,,,,,,,,,,,,,,,607331e66524baf7ddfaae21,44,2022-02-12_13h48.41.588,lexical_decision_task_DD_L6,2021.2.3,Win32,59.52735282,,,,,,,,,,,,0.87,1,,,,,,,,,,,,,,z,1,0.87,,,,,,,,0.15462963,-0.410185185,0,0,0,,0,25,25,122,1,BLOOT,LB,z,z,./images/BLOOTLB.png,,,,,,,,,,,,,,,,,,,,,,,,,,,,,,,,,,
,,,,,,,,,,,,,,,,,607331e66524baf7ddfaae21,44,2022-02-12_13h48.41.588,lexical_decision_task_DD_L6,2021.2.3,Win32,59.52735282,,,,,,,,,,,,0.7901,1,,,,,,,,,,,,,,m,1,0.7901,,,,,,,,0.15462963,-0.410185185,0,0,0,,0,26,26,8,1,CLIFF,HB,m,m,./images/CLIFFHB.png,,,,,,,,,,,,,,,,,,,,,,,,,,,,,,,,,,
,,,,,,,,,,,,,,,,,607331e66524baf7ddfaae21,44,2022-02-12_13h48.41.588,lexical_decision_task_DD_L6,2021.2.3,Win32,59.52735282,,,,,,,,,,,,0.63,1,,,,,,,,,,,,,,m,1,0.63,,,,,,,,0.15462963,-0.410185185,0,0,0,,0,27,27,26,1,CLOUD,HB,m,m,./images/CLOUDHB.png,,,,,,,,,,,,,,,,,,,,,,,,,,,,,,,,,,
,,,,,,,,,,,,,,,,,607331e66524baf7ddfaae21,44,2022-02-12_13h48.41.588,lexical_decision_task_DD_L6,2021.2.3,Win32,59.52735282,,,,,,,,,,,,0.8135,1,,,,,,,,,,,,,,z,1,0.8135,,,,,,,,0.15462963,-0.410185185,0,0,0,,0,28,28,165,1,TROWN,C,z,z,./images/TROWN.png,,,,,,,,,,,,,,,,,,,,,,,,,,,,,,,,,,
,,,,,,,,,,,,,,,,,607331e66524baf7ddfaae21,44,2022-02-12_13h48.41.588,lexical_decision_task_DD_L6,2021.2.3,Win32,59.52735282,,,,,,,,,,,,1.2881,0,,,,,,,,,,,,,,m,0,1.2881,,,,,,,,0.15462963,-0.410185185,0,0,0,,0,29,29,110,1,CRUNK,LB,z,z,./images/CRUNKLB.png,,,,,,,,,,,,,,,,,,,,,,,,,,,,,,,,,,
,,,,,,,,,,,,,,,,,607331e66524baf7ddfaae21,44,2022-02-12_13h48.41.588,lexical_decision_task_DD_L6,2021.2.3,Win32,59.52735282,,,,,,,,,,,,0.7688,1,,,,,,,,,,,,,,z,1,0.7688,,,,,,,,0.15462963,-0.410185185,0,0,0,,0,30,30,114,1,RIKES,C,z,z,./images/RIKES.png,,,,,,,,,,,,,,,,,,,,,,,,,,,,,,,,,,
,,,,,,,,,,,,,,,,,607331e66524baf7ddfaae21,44,2022-02-12_13h48.41.588,lexical_decision_task_DD_L6,2021.2.3,Win32,59.52735282,,,,,,,,,,,,1.2173,1,,,,,,,,,,,,,,z,1,1.2173,,,,,,,,0.15462963,-0.410185185,0,0,0,,0,31,31,139,1,BLEAR,HB,z,z,./images/BLEARHB.png,,,,,,,,,,,,,,,,,,,,,,,,,,,,,,,,,,
,,,,,,,,,,,,,,,,,607331e66524baf7ddfaae21,44,2022-02-12_13h48.41.588,lexical_decision_task_DD_L6,2021.2.3,Win32,59.52735282,,,,,,,,,,,,1.005,1,,,,,,,,,,,,,,z,1,1.005,,,,,,,,0.15462963,-0.410185185,0,0,0,,0,32,32,149,1,VEASE,LB,z,z,./images/VEASELB.png,,,,,,,,,,,,,,,,,,,,,,,,,,,,,,,,,,
,,,,,,,,,,,,,,,,,607331e66524baf7ddfaae21,44,2022-02-12_13h48.41.588,lexical_decision_task_DD_L6,2021.2.3,Win32,59.52735282,,,,,,,,,,,,0.8351,1,,,,,,,,,,,,,,m,1,0.8351,,,,,,,,0.15462963,-0.410185185,0,0,0,,0,33,33,56,1,HEATER,HB,m,m,./images/HEATERHB.png,,,,,,,,,,,,,,,,,,,,,,,,,,,,,,,,,,
,,,,,,,,,,,,,,,,,607331e66524baf7ddfaae21,44,2022-02-12_13h48.41.588,lexical_decision_task_DD_L6,2021.2.3,Win32,59.52735282,,,,,,,,,,,,0.6623,1,,,,,,,,,,,,,,m,1,0.6623,,,,,,,,0.15462963,-0.410185185,0,0,0,,0,34,34,49,1,BISHOP,C,m,m,./images/BISHOP.png,,,,,,,,,,,,,,,,,,,,,,,,,,,,,,,,,,
,,,,,,,,,,,,,,,,,607331e66524baf7ddfaae21,44,2022-02-12_13h48.41.588,lexical_decision_task_DD_L6,2021.2.3,Win32,59.52735282,,,,,,,,,,,,1.0522,1,,,,,,,,,,,,,,z,1,1.0522,,,,,,,,0.15462963,-0.410185185,0,0,0,,0,35,35,166,1,SHORY,HB,z,z,./images/SHORYHB.png,,,,,,,,,,,,,,,,,,,,,,,,,,,,,,,,,,
,,,,,,,,,,,,,,,,,607331e66524baf7ddfaae21,44,2022-02-12_13h48.41.588,lexical_decision_task_DD_L6,2021.2.3,Win32,59.52735282,,,,,,,,,,,,0.899,1,,,,,,,,,,,,,,z,1,0.899,,,,,,,,0.15462963,-0.410185185,0,0,0,,0,36,36,148,1,JOMS,HB,z,z,./images/JOMSHB.png,,,,,,,,,,,,,,,,,,,,,,,,,,,,,,,,,,
,,,,,,,,,,,,,,,,,607331e66524baf7ddfaae21,44,2022-02-12_13h48.41.588,lexical_decision_task_DD_L6,2021.2.3,Win32,59.52735282,,,,,,,,,,,,0.5872,1,,,,,,,,,,,,,,m,1,0.5872,,,,,,,,0.15462963,-0.410185185,0,0,0,,0,37,37,67,1,POKER,C,m,m,./images/POKER.png,,,,,,,,,,,,,,,,,,,,,,,,,,,,,,,,,,
,,,,,,,,,,,,,,,,,607331e66524baf7ddfaae21,44,2022-02-12_13h48.41.588,lexical_decision_task_DD_L6,2021.2.3,Win32,59.52735282,,,,,,,,,,,,0.9406,1,,,,,,,,,,,,,,z,1,0.9406,,,,,,,,0.15462963,-0.410185185,0,0,0,,0,38,38,111,1,HOSSE,C,z,z,./images/HOSSE.png,,,,,,,,,,,,,,,,,,,,,,,,,,,,,,,,,,
,,,,,,,,,,,,,,,,,607331e66524baf7ddfaae21,44,2022-02-12_13h48.41.588,lexical_decision_task_DD_L6,2021.2.3,Win32,59.52735282,,,,,,,,,,,,1.0659,1,,,,,,,,,,,,,,m,1,1.0659,,,,,,,,0.15462963,-0.410185185,0,0,0,,0,39,39,38,1,ENGINE,HB,m,m,./images/ENGINEHB.png,,,,,,,,,,,,,,,,,,,,,,,,,,,,,,,,,,
,,,,,,,,,,,,,,,,,607331e66524baf7ddfaae21,44,2022-02-12_13h48.41.588,lexical_decision_task_DD_L6,2021.2.3,Win32,59.52735282,,,,,,,,,,,,0.8409,1,,,,,,,,,,,,,,z,1,0.8409,,,,,,,,0.15462963,-0.410185185,0,0,0,,0,40,40,153,1,CLUPS,C,z,z,./images/CLUPS.png,,,,,,,,,,,,,,,,,,,,,,,,,,,,,,,,,,
,,,,,,,,,,,,,,,,,607331e66524baf7ddfaae21,44,2022-02-12_13h48.41.588,lexical_decision_task_DD_L6,2021.2.3,Win32,59.52735282,,,,,,,,,,,,0.8196,1,,,,,,,,,,,,,,m,1,0.8196,,,,,,,,0.15462963,-0.410185185,0,0,0,space,0,41,41,78,1,BROOM,LB,m,m,./images/BROOMLB.png,9.385,,,,,,,,,,,,,,,,,,,,,,,,,,,,,,,,,
,,,,,,,,,,,,,,,,,607331e66524baf7ddfaae21,44,2022-02-12_13h48.41.588,lexical_decision_task_DD_L6,2021.2.3,Win32,59.52735282,,,,,,,,,,,,0.6849,1,,,,,,,,,,,,,,m,1,0.6849,,,,,,,,0.15462963,-0.410185185,0,0,0,,0,42,42,61,1,ARTIST,C,m,m,./images/ARTIST.png,,,,,,,,,,,,,,,,,,,,,,,,,,,,,,,,,,
,,,,,,,,,,,,,,,,,607331e66524baf7ddfaae21,44,2022-02-12_13h48.41.588,lexical_decision_task_DD_L6,2021.2.3,Win32,59.52735282,,,,,,,,,,,,0.534,1,,,,,,,,,,,,,,m,1,0.534,,,,,,,,0.15462963,-0.410185185,0,0,0,,0,43,43,79,1,RULER,C,m,m,./images/RULER.png,,,,,,,,,,,,,,,,,,,,,,,,,,,,,,,,,,
,,,,,,,,,,,,,,,,,607331e66524baf7ddfaae21,44,2022-02-12_13h48.41.588,lexical_decision_task_DD_L6,2021.2.3,Win32,59.52735282,,,,,,,,,,,,0.6058,1,,,,,,,,,,,,,,z,1,0.6058,,,,,,,,0.15462963,-0.410185185,0,0,0,,0,44,44,117,1,STEEG,C,z,z,./images/STEEG.png,,,,,,,,,,,,,,,,,,,,,,,,,,,,,,,,,,
,,,,,,,,,,,,,,,,,607331e66524baf7ddfaae21,44,2022-02-12_13h48.41.588,lexical_decision_task_DD_L6,2021.2.3,Win32,59.52735282,,,,,,,,,,,,0.6552,1,,,,,,,,,,,,,,m,1,0.6552,,,,,,,,0.15462963,-0.410185185,0,0,0,,0,45,45,16,1,GRAPE,C,m,m,./images/GRAPE.png,,,,,,,,,,,,,,,,,,,,,,,,,,,,,,,,,,
,,,,,,,,,,,,,,,,,607331e66524baf7ddfaae21,44,2022-02-12_13h48.41.588,lexical_decision_task_DD_L6,2021.2.3,Win32,59.52735282,,,,,,,,,,,,0.6951,1,,,,,,,,,,,,,,z,1,0.6951,,,,,,,,0.15462963,-0.410185185,0,0,0,,0,46,46,95,1,HANTY,LB,z,z,./images/HANTYLB.png,,,,,,,,,,,,,,,,,,,,,,,,,,,,,,,,,,
,,,,,,,,,,,,,,,,,607331e66524baf7ddfaae21,44,2022-02-12_13h48.41.588,lexical_decision_task_DD_L6,2021.2.3,Win32,59.52735282,,,,,,,,,,,,0.9994,1,,,,,,,,,,,,,,z,1,0.9994,,,,,,,,0.15462963,-0.410185185,0,0,0,,0,47,47,108,1,GRUET,C,z,z,./images/GRUET.png,,,,,,,,,,,,,,,,,,,,,,,,,,,,,,,,,,
,,,,,,,,,,,,,,,,,607331e66524baf7ddfaae21,44,2022-02-12_13h48.41.588,lexical_decision_task_DD_L6,2021.2.3,Win32,59.52735282,,,,,,,,,,,,0.7052,1,,,,,,,,,,,,,,m,1,0.7052,,,,,,,,0.15462963,-0.410185185,0,0,0,,0,48,48,25,1,CHALK,C,m,m,./images/CHALK.png,,,,,,,,,,,,,,,,,,,,,,,,,,,,,,,,,,
,,,,,,,,,,,,,,,,,607331e66524baf7ddfaae21,44,2022-02-12_13h48.41.588,lexical_decision_task_DD_L6,2021.2.3,Win32,59.52735282,,,,,,,,,,,,0.8518,1,,,,,,,,,,,,,,m,1,0.8518,,,,,,,,0.15462963,-0.410185185,0,0,0,,0,49,49,11,1,MEDAL,HB,m,m,./images/MEDALHB.png,,,,,,,,,,,,,,,,,,,,,,,,,,,,,,,,,,
,,,,,,,,,,,,,,,,,607331e66524baf7ddfaae21,44,2022-02-12_13h48.41.588,lexical_decision_task_DD_L6,2021.2.3,Win32,59.52735282,,,,,,,,,,,,0.574,1,,,,,,,,,,,,,,m,1,0.574,,,,,,,,0.15462963,-0.410185185,0,0,0,,0,50,50,45,1,MONKEY,LB,m,m,./images/MONKEYLB.png,,,,,,,,,,,,,,,,,,,,,,,,,,,,,,,,,,
,,,,,,,,,,,,,,,,,607331e66524baf7ddfaae21,44,2022-02-12_13h48.41.588,lexical_decision_task_DD_L6,2021.2.3,Win32,59.52735282,,,,,,,,,,,,0.5752,1,,,,,,,,,,,,,,m,1,0.5752,,,,,,,,0.15462963,-0.410185185,0,0,0,,0,51,51,64,1,BRIDE,C,m,m,./images/BRIDE.png,,,,,,,,,,,,,,,,,,,,,,,,,,,,,,,,,,
,,,,,,,,,,,,,,,,,607331e66524baf7ddfaae21,44,2022-02-12_13h48.41.588,lexical_decision_task_DD_L6,2021.2.3,Win32,59.52735282,,,,,,,,,,,,0.5799,1,,,,,,,,,,,,,,m,1,0.5799,,,,,,,,0.15462963,-0.410185185,0,0,0,,0,52,52,1,1,TOWEL,C,m,m,./images/TOWEL.png,,,,,,,,,,,,,,,,,,,,,,,,,,,,,,,,,,
,,,,,,,,,,,,,,,,,607331e66524baf7ddfaae21,44,2022-02-12_13h48.41.588,lexical_decision_task_DD_L6,2021.2.3,Win32,59.52735282,,,,,,,,,,,,0.5585,1,,,,,,,,,,,,,,m,1,0.5585,,,,,,,,0.15462963,-0.410185185,0,0,0,,0,53,53,34,1,RAZOR,C,m,m,./images/RAZOR.png,,,,,,,,,,,,,,,,,,,,,,,,,,,,,,,,,,
,,,,,,,,,,,,,,,,,607331e66524baf7ddfaae21,44,2022-02-12_13h48.41.588,lexical_decision_task_DD_L6,2021.2.3,Win32,59.52735282,,,,,,,,,,,,0.6737,1,,,,,,,,,,,,,,z,1,0.6737,,,,,,,,0.15462963,-0.410185185,0,0,0,,0,54,54,96,1,KEAMS,C,z,z,./images/KEAMS.png,,,,,,,,,,,,,,,,,,,,,,,,,,,,,,,,,,
,,,,,,,,,,,,,,,,,607331e66524baf7ddfaae21,44,2022-02-12_13h48.41.588,lexical_decision_task_DD_L6,2021.2.3,Win32,59.52735282,,,,,,,,,,,,0.6361,1,,,,,,,,,,,,,,m,1,0.6361,,,,,,,,0.15462963,-0.410185185,0,0,0,,0,55,55,80,1,PLANET,HB,m,m,./images/PLANETHB.png,,,,,,,,,,,,,,,,,,,,,,,,,,,,,,,,,,
,,,,,,,,,,,,,,,,,607331e66524baf7ddfaae21,44,2022-02-12_13h48.41.588,lexical_decision_task_DD_L6,2021.2.3,Win32,59.52735282,,,,,,,,,,,,0.8632,1,,,,,,,,,,,,,,z,1,0.8632,,,,,,,,0.15462963,-0.410185185,0,0,0,,0,56,56,162,1,LEICH,C,z,z,./images/LEICH.png,,,,,,,,,,,,,,,,,,,,,,,,,,,,,,,,,,
,,,,,,,,,,,,,,,,,607331e66524baf7ddfaae21,44,2022-02-12_13h48.41.588,lexical_decision_task_DD_L6,2021.2.3,Win32,59.52735282,,,,,,,,,,,,0.6973,1,,,,,,,,,,,,,,z,1,0.6973,,,,,,,,0.15462963,-0.410185185,0,0,0,,0,57,57,84,1,HAXES,C,z,z,./images/HAXES.png,,,,,,,,,,,,,,,,,,,,,,,,,,,,,,,,,,
,,,,,,,,,,,,,,,,,607331e66524baf7ddfaae21,44,2022-02-12_13h48.41.588,lexical_decision_task_DD_L6,2021.2.3,Win32,59.52735282,,,,,,,,,,,,1.815,1,,,,,,,,,,,,,,z,1,1.815,,,,,,,,0.15462963,-0.410185185,0,0,0,,0,58,58,101,1,GLEET,LB,z,z,./images/GLEETLB.png,,,,,,,,,,,,,,,,,,,,,,,,,,,,,,,,,,
,,,,,,,,,,,,,,,,,607331e66524baf7ddfaae21,44,2022-02-12_13h48.41.588,lexical_decision_task_DD_L6,2021.2.3,Win32,59.52735282,,,,,,,,,,,,1.0391,1,,,,,,,,,,,,,,m,1,1.0391,,,,,,,,0.15462963,-0.410185185,0,0,0,,0,59,59,54,1,CHERRY,LB,m,m,./images/CHERRYLB.png,,,,,,,,,,,,,,,,,,,,,,,,,,,,,,,,,,
,,,,,,,,,,,,,,,,,607331e66524baf7ddfaae21,44,2022-02-12_13h48.41.588,lexical_decision_task_DD_L6,2021.2.3,Win32,59.52735282,,,,,,,,,,,,0.7749,1,,,,,,,,,,,,,,m,1,0.7749,,,,,,,,0.15462963,-0.410185185,0,0,0,,0,60,60,47,1,LAGOON,HB,m,m,./images/LAGOONHB.png,,,,,,,,,,,,,,,,,,,,,,,,,,,,,,,,,,
,,,,,,,,,,,,,,,,,607331e66524baf7ddfaae21,44,2022-02-12_13h48.41.588,lexical_decision_task_DD_L6,2021.2.3,Win32,59.52735282,,,,,,,,,,,,1.0088,1,,,,,,,,,,,,,,z,1,1.0088,,,,,,,,0.15462963,-0.410185185,0,0,0,,0,61,61,112,1,MYING,HB,z,z,./images/MYINGHB.png,,,,,,,,,,,,,,,,,,,,,,,,,,,,,,,,,,
,,,,,,,,,,,,,,,,,607331e66524baf7ddfaae21,44,2022-02-12_13h48.41.588,lexical_decision_task_DD_L6,2021.2.3,Win32,59.52735282,,,,,,,,,,,,0.8891,1,,,,,,,,,,,,,,z,1,0.8891,,,,,,,,0.15462963,-0.410185185,0,0,0,,0,62,62,125,1,MOOKY,LB,z,z,./images/MOOKYLB.png,,,,,,,,,,,,,,,,,,,,,,,,,,,,,,,,,,
,,,,,,,,,,,,,,,,,607331e66524baf7ddfaae21,44,2022-02-12_13h48.41.588,lexical_decision_task_DD_L6,2021.2.3,Win32,59.52735282,,,,,,,,,,,,0.8437,1,,,,,,,,,,,,,,z,1,0.8437,,,,,,,,0.15462963,-0.410185185,0,0,0,,0,63,63,135,1,JOODY,C,z,z,./images/JOODY.png,,,,,,,,,,,,,,,,,,,,,,,,,,,,,,,,,,
,,,,,,,,,,,,,,,,,607331e66524baf7ddfaae21,44,2022-02-12_13h48.41.588,lexical_decision_task_DD_L6,2021.2.3,Win32,59.52735282,,,,,,,,,,,,0.6511,1,,,,,,,,,,,,,,m,1,0.6511,,,,,,,,0.15462963,-0.410185185,0,0,0,,0,64,64,0,1,WALNUT,LB,m,m,./images/WALNUTLB.png,,,,,,,,,,,,,,,,,,,,,,,,,,,,,,,,,,
,,,,,,,,,,,,,,,,,607331e66524baf7ddfaae21,44,2022-02-12_13h48.41.588,lexical_decision_task_DD_L6,2021.2.3,Win32,59.52735282,,,,,,,,,,,,0.7443,1,,,,,,,,,,,,,,z,1,0.7443,,,,,,,,0.15462963,-0.410185185,0,0,0,,0,65,65,136,1,WERVE,HB,z,z,./images/WERVEHB.png,,,,,,,,,,,,,,,,,,,,,,,,,,,,,,,,,,
,,,,,,,,,,,,,,,,,607331e66524baf7ddfaae21,44,2022-02-12_13h48.41.588,lexical_decision_task_DD_L6,2021.2.3,Win32,59.52735282,,,,,,,,,,,,1.0093,1,,,,,,,,,,,,,,z,1,1.0093,,,,,,,,0.15462963,-0.410185185,0,0,0,,0,66,66,118,1,BAVEL,HB,z,z,./images/BAVELHB.png,,,,,,,,,,,,,,,,,,,,,,,,,,,,,,,,,,
,,,,,,,,,,,,,,,,,607331e66524baf7ddfaae21,44,2022-02-12_13h48.41.588,lexical_decision_task_DD_L6,2021.2.3,Win32,59.52735282,,,,,,,,,,,,0.7647,1,,,,,,,,,,,,,,m,1,0.7647,,,,,,,,0.15462963,-0.410185185,0,0,0,,0,67,67,68,1,VALLEY,HB,m,m,./images/VALLEYHB.png,,,,,,,,,,,,,,,,,,,,,,,,,,,,,,,,,,
,,,,,,,,,,,,,,,,,607331e66524baf7ddfaae21,44,2022-02-12_13h48.41.588,lexical_decision_task_DD_L6,2021.2.3,Win32,59.52735282,,,,,,,,,,,,1.2579,1,,,,,,,,,,,,,,z,1,1.2579,,,,,,,,0.15462963,-0.410185185,0,0,0,,0,68,68,154,1,THINT,HB,z,z,./images/THINTHB.png,,,,,,,,,,,,,,,,,,,,,,,,,,,,,,,,,,
,,,,,,,,,,,,,,,,,607331e66524baf7ddfaae21,44,2022-02-12_13h48.41.588,lexical_decision_task_DD_L6,2021.2.3,Win32,59.52735282,,,,,,,,,,,,0.6721,1,,,,,,,,,,,,,,m,1,0.6721,,,,,,,,0.15462963,-0.410185185,0,0,0,,0,69,69,30,1,SLOPE,LB,m,m,./images/SLOPELB.png,,,,,,,,,,,,,,,,,,,,,,,,,,,,,,,,,,
,,,,,,,,,,,,,,,,,607331e66524baf7ddfaae21,44,2022-02-12_13h48.41.588,lexical_decision_task_DD_L6,2021.2.3,Win32,59.52735282,,,,,,,,,,,,0.9526,1,,,,,,,,,,,,,,z,1,0.9526,,,,,,,,0.15462963,-0.410185185,0,0,0,,0,70,70,130,1,CRILL,HB,z,z,./images/CRILLHB.png,,,,,,,,,,,,,,,,,,,,,,,,,,,,,,,,,,
,,,,,,,,,,,,,,,,,607331e66524baf7ddfaae21,44,2022-02-12_13h48.41.588,lexical_decision_task_DD_L6,2021.2.3,Win32,59.52735282,,,,,,,,,,,,1.0063,1,,,,,,,,,,,,,,z,1,1.0063,,,,,,,,0.15462963,-0.410185185,0,0,0,,0,71,71,123,1,SEDGE,C,z,z,./images/SEDGE.png,,,,,,,,,,,,,,,,,,,,,,,,,,,,,,,,,,
,,,,,,,,,,,,,,,,,607331e66524baf7ddfaae21,44,2022-02-12_13h48.41.588,lexical_decision_task_DD_L6,2021.2.3,Win32,59.52735282,,,,,,,,,,,,0.9619,1,,,,,,,,,,,,,,m,1,0.9619,,,,,,,,0.15462963,-0.410185185,0,0,0,,0,72,72,12,1,BLOKE,LB,m,m,./images/BLOKELB.png,,,,,,,,,,,,,,,,,,,,,,,,,,,,,,,,,,
,,,,,,,,,,,,,,,,,607331e66524baf7ddfaae21,44,2022-02-12_13h48.41.588,lexical_decision_task_DD_L6,2021.2.3,Win32,59.52735282,,,,,,,,,,,,0.655,1,,,,,,,,,,,,,,m,1,0.655,,,,,,,,0.15462963,-0.410185185,0,0,0,,0,73,73,50,1,PILOT,HB,m,m,./images/PILOTHB.png,,,,,,,,,,,,,,,,,,,,,,,,,,,,,,,,,,
,,,,,,,,,,,,,,,,,607331e66524baf7ddfaae21,44,2022-02-12_13h48.41.588,lexical_decision_task_DD_L6,2021.2.3,Win32,59.52735282,,,,,,,,,,,,0.656,1,,,,,,,,,,,,,,m,1,0.656,,,,,,,,0.15462963,-0.410185185,0,0,0,,0,74,74,46,1,MUMMY,C,m,m,./images/MUMMY.png,,,,,,,,,,,,,,,,,,,,,,,,,,,,,,,,,,
,,,,,,,,,,,,,,,,,607331e66524baf7ddfaae21,44,2022-02-12_13h48.41.588,lexical_decision_task_DD_L6,2021.2.3,Win32,59.52735282,,,,,,,,,,,,0.773,1,,,,,,,,,,,,,,z,1,0.773,,,,,,,,0.15462963,-0.410185185,0,0,0,,0,75,75,159,1,CUDDY,C,z,z,./images/CUDDY.png,,,,,,,,,,,,,,,,,,,,,,,,,,,,,,,,,,
,,,,,,,,,,,,,,,,,607331e66524baf7ddfaae21,44,2022-02-12_13h48.41.588,lexical_decision_task_DD_L6,2021.2.3,Win32,59.52735282,,,,,,,,,,,,1.0556,1,,,,,,,,,,,,,,z,1,1.0556,,,,,,,,0.15462963,-0.410185185,0,0,0,,0,76,76,164,1,SGREW,LB,z,z,./images/SGREWLB.png,,,,,,,,,,,,,,,,,,,,,,,,,,,,,,,,,,
,,,,,,,,,,,,,,,,,607331e66524baf7ddfaae21,44,2022-02-12_13h48.41.588,lexical_decision_task_DD_L6,2021.2.3,Win32,59.52735282,,,,,,,,,,,,1.0828,0,,,,,,,,,,,,,,m,0,1.0828,,,,,,,,0.15462963,-0.410185185,0,0,0,,0,77,77,140,1,DOVET,LB,z,z,./images/DOVETLB.png,,,,,,,,,,,,,,,,,,,,,,,,,,,,,,,,,,
,,,,,,,,,,,,,,,,,607331e66524baf7ddfaae21,44,2022-02-12_13h48.41.588,lexical_decision_task_DD_L6,2021.2.3,Win32,59.52735282,,,,,,,,,,,,0.8739,1,,,,,,,,,,,,,,z,1,0.8739,,,,,,,,0.15462963,-0.410185185,0,0,0,,0,78,78,93,1,SMONE,C,z,z,./images/SMONE.png,,,,,,,,,,,,,,,,,,,,,,,,,,,,,,,,,,
,,,,,,,,,,,,,,,,,607331e66524baf7ddfaae21,44,2022-02-12_13h48.41.588,lexical_decision_task_DD_L6,2021.2.3,Win32,59.52735282,,,,,,,,,,,,1.7502,1,,,,,,,,,,,,,,z,1,1.7502,,,,,,,,0.15462963,-0.410185185,0,0,0,,0,79,79,151,1,TINKY,HB,z,z,./images/TINKYHB.png,,,,,,,,,,,,,,,,,,,,,,,,,,,,,,,,,,
,,,,,,,,,,,,,,,,,607331e66524baf7ddfaae21,44,2022-02-12_13h48.41.588,lexical_decision_task_DD_L6,2021.2.3,Win32,59.52735282,,,,,,,,,,,,0.8267,1,,,,,,,,,,,,,,z,1,0.8267,,,,,,,,0.15462963,-0.410185185,0,0,0,,0,80,80,99,1,BACKY,C,z,z,./images/BACKY.png,,,,,,,,,,,,,,,,,,,,,,,,,,,,,,,,,,
,,,,,,,,,,,,,,,,,607331e66524baf7ddfaae21,44,2022-02-12_13h48.41.588,lexical_decision_task_DD_L6,2021.2.3,Win32,59.52735282,,,,,,,,,,,,1.6472,1,,,,,,,,,,,,,,z,1,1.6472,,,,,,,,0.15462963,-0.410185185,0,0,0,,0,81,81,91,1,SHENS,HB,z,z,./images/SHENSHB.png,,,,,,,,,,,,,,,,,,,,,,,,,,,,,,,,,,
,,,,,,,,,,,,,,,,,607331e66524baf7ddfaae21,44,2022-02-12_13h48.41.588,lexical_decision_task_DD_L6,2021.2.3,Win32,59.52735282,,,,,,,,,,,,1.222,1,,,,,,,,,,,,,,z,1,1.222,,,,,,,,0.15462963,-0.410185185,0,0,0,,0,82,82,88,1,GLUSH,HB,z,z,./images/GLUSHHB.png,,,,,,,,,,,,,,,,,,,,,,,,,,,,,,,,,,
,,,,,,,,,,,,,,,,,607331e66524baf7ddfaae21,44,2022-02-12_13h48.41.588,lexical_decision_task_DD_L6,2021.2.3,Win32,59.52735282,,,,,,,,,,,,0.7051,1,,,,,,,,,,,,,,m,1,0.7051,,,,,,,,0.15462963,-0.410185185,0,0,0,space,0,83,83,76,1,MIDGET,C,m,m,./images/MIDGET.png,4.1659,,,,,,,,,,,,,,,,,,,,,,,,,,,,,,,,,
,,,,,,,,,,,,,,,,,607331e66524baf7ddfaae21,44,2022-02-12_13h48.41.588,lexical_decision_task_DD_L6,2021.2.3,Win32,59.52735282,,,,,,,,,,,,0.636,1,,,,,,,,,,,,,,m,1,0.636,,,,,,,,0.15462963,-0.410185185,0,0,0,,0,84,84,48,1,SHIELD,LB,m,m,./images/SHIELDLB.png,,,,,,,,,,,,,,,,,,,,,,,,,,,,,,,,,,
,,,,,,,,,,,,,,,,,607331e66524baf7ddfaae21,44,2022-02-12_13h48.41.588,lexical_decision_task_DD_L6,2021.2.3,Win32,59.52735282,,,,,,,,,,,,0.7529,1,,,,,,,,,,,,,,z,1,0.7529,,,,,,,,0.15462963,-0.410185185,0,0,0,,0,85,85,167,1,ZONET,LB,z,z,./images/ZONETLB.png,,,,,,,,,,,,,,,,,,,,,,,,,,,,,,,,,,
,,,,,,,,,,,,,,,,,607331e66524baf7ddfaae21,44,2022-02-12_13h48.41.588,lexical_decision_task_DD_L6,2021.2.3,Win32,59.52735282,,,,,,,,,,,,0.686,1,,,,,,,,,,,,,,m,1,0.686,,,,,,,,0.15462963,-0.410185185,0,0,0,,0,86,86,39,1,CANDY,LB,m,m,./images/CANDYLB.png,,,,,,,,,,,,,,,,,,,,,,,,,,,,,,,,,,
,,,,,,,,,,,,,,,,,607331e66524baf7ddfaae21,44,2022-02-12_13h48.41.588,lexical_decision_task_DD_L6,2021.2.3,Win32,59.52735282,,,,,,,,,,,,1.1908,0,,,,,,,,,,,,,,m,0,1.1908,,,,,,,,0.15462963,-0.410185185,0,0,0,,0,87,87,128,1,GRIFT,LB,z,z,./images/GRIFTLB.png,,,,,,,,,,,,,,,,,,,,,,,,,,,,,,,,,,
,,,,,,,,,,,,,,,,,607331e66524baf7ddfaae21,44,2022-02-12_13h48.41.588,lexical_decision_task_DD_L6,2021.2.3,Win32,59.52735282,,,,,,,,,,,,0.9928,1,,,,,,,,,,,,,,m,1,0.9928,,,,,,,,0.15462963,-0.410185185,0,0,0,,0,88,88,14,1,FENCE,HB,m,m,./images/FENCEHB.png,,,,,,,,,,,,,,,,,,,,,,,,,,,,,,,,,,
,,,,,,,,,,,,,,,,,607331e66524baf7ddfaae21,44,2022-02-12_13h48.41.588,lexical_decision_task_DD_L6,2021.2.3,Win32,59.52735282,,,,,,,,,,,,0.5267,1,,,,,,,,,,,,,,m,1,0.5267,,,,,,,,0.15462963,-0.410185185,0,0,0,,0,89,89,31,1,STEAK,C,m,m,./images/STEAK.png,,,,,,,,,,,,,,,,,,,,,,,,,,,,,,,,,,
,,,,,,,,,,,,,,,,,607331e66524baf7ddfaae21,44,2022-02-12_13h48.41.588,lexical_decision_task_DD_L6,2021.2.3,Win32,59.52735282,,,,,,,,,,,,0.6409,1,,,,,,,,,,,,,,z,1,0.6409,,,,,,,,0.15462963,-0.410185185,0,0,0,,0,90,90,89,1,DRIEK,LB,z,z,./images/DRIEKLB.png,,,,,,,,,,,,,,,,,,,,,,,,,,,,,,,,,,
,,,,,,,,,,,,,,,,,607331e66524baf7ddfaae21,44,2022-02-12_13h48.41.588,lexical_decision_task_DD_L6,2021.2.3,Win32,59.52735282,,,,,,,,,,,,1.3583,1,,,,,,,,,,,,,,z,1,1.3583,,,,,,,,0.15462963,-0.410185185,0,0,0,,0,91,91,155,1,CANGY,LB,z,z,./images/CANGYLB.png,,,,,,,,,,,,,,,,,,,,,,,,,,,,,,,,,,
,,,,,,,,,,,,,,,,,607331e66524baf7ddfaae21,44,2022-02-12_13h48.41.588,lexical_decision_task_DD_L6,2021.2.3,Win32,59.52735282,,,,,,,,,,,,0.7433,1,,,,,,,,,,,,,,m,1,0.7433,,,,,,,,0.15462963,-0.410185185,0,0,0,,0,92,92,18,1,PARCEL,LB,m,m,./images/PARCELLB.png,,,,,,,,,,,,,,,,,,,,,,,,,,,,,,,,,,
,,,,,,,,,,,,,,,,,607331e66524baf7ddfaae21,44,2022-02-12_13h48.41.588,lexical_decision_task_DD_L6,2021.2.3,Win32,59.52735282,,,,,,,,,,,,1.1785,1,,,,,,,,,,,,,,z,1,1.1785,,,,,,,,0.15462963,-0.410185185,0,0,0,,0,93,93,85,1,CHULK,HB,z,z,./images/CHULKHB.png,,,,,,,,,,,,,,,,,,,,,,,,,,,,,,,,,,
,,,,,,,,,,,,,,,,,607331e66524baf7ddfaae21,44,2022-02-12_13h48.41.588,lexical_decision_task_DD_L6,2021.2.3,Win32,59.52735282,,,,,,,,,,,,0.6484,1,,,,,,,,,,,,,,m,1,0.6484,,,,,,,,0.15462963,-0.410185185,0,0,0,,0,94,94,13,1,BUNNY,C,m,m,./images/BUNNY.png,,,,,,,,,,,,,,,,,,,,,,,,,,,,,,,,,,
,,,,,,,,,,,,,,,,,607331e66524baf7ddfaae21,44,2022-02-12_13h48.41.588,lexical_decision_task_DD_L6,2021.2.3,Win32,59.52735282,,,,,,,,,,,,0.7258,1,,,,,,,,,,,,,,z,1,0.7258,,,,,,,,0.15462963,-0.410185185,0,0,0,,0,95,95,116,1,BALGY,LB,z,z,./images/BALGYLB.png,,,,,,,,,,,,,,,,,,,,,,,,,,,,,,,,,,
,,,,,,,,,,,,,,,,,607331e66524baf7ddfaae21,44,2022-02-12_13h48.41.588,lexical_decision_task_DD_L6,2021.2.3,Win32,59.52735282,,,,,,,,,,,,0.6738,1,,,,,,,,,,,,,,m,1,0.6738,,,,,,,,0.15462963,-0.410185185,0,0,0,,0,96,96,70,1,BANANA,C,m,m,./images/BANANA.png,,,,,,,,,,,,,,,,,,,,,,,,,,,,,,,,,,
,,,,,,,,,,,,,,,,,607331e66524baf7ddfaae21,44,2022-02-12_13h48.41.588,lexical_decision_task_DD_L6,2021.2.3,Win32,59.52735282,,,,,,,,,,,,0.7705,1,,,,,,,,,,,,,,z,1,0.7705,,,,,,,,0.15462963,-0.410185185,0,0,0,,0,97,97,150,1,NOOLS,C,z,z,./images/NOOLS.png,,,,,,,,,,,,,,,,,,,,,,,,,,,,,,,,,,
,,,,,,,,,,,,,,,,,607331e66524baf7ddfaae21,44,2022-02-12_13h48.41.588,lexical_decision_task_DD_L6,2021.2.3,Win32,59.52735282,,,,,,,,,,,,0.8452,1,,,,,,,,,,,,,,m,1,0.8452,,,,,,,,0.15462963,-0.410185185,0,0,0,,0,98,98,53,1,POSTER,HB,m,m,./images/POSTERHB.png,,,,,,,,,,,,,,,,,,,,,,,,,,,,,,,,,,
,,,,,,,,,,,,,,,,,607331e66524baf7ddfaae21,44,2022-02-12_13h48.41.588,lexical_decision_task_DD_L6,2021.2.3,Win32,59.52735282,,,,,,,,,,,,0.71,1,,,,,,,,,,,,,,m,1,0.71,,,,,,,,0.15462963,-0.410185185,0,0,0,,0,99,99,15,1,COLLAR,LB,m,m,./images/COLLARLB.png,,,,,,,,,,,,,,,,,,,,,,,,,,,,,,,,,,
,,,,,,,,,,,,,,,,,607331e66524baf7ddfaae21,44,2022-02-12_13h48.41.588,lexical_decision_task_DD_L6,2021.2.3,Win32,59.52735282,,,,,,,,,,,,0.7988,1,,,,,,,,,,,,,,m,1,0.7988,,,,,,,,0.15462963,-0.410185185,0,0,0,,0,100,100,29,1,PISTOL,HB,m,m,./images/PISTOLHB.png,,,,,,,,,,,,,,,,,,,,,,,,,,,,,,,,,,
,,,,,,,,,,,,,,,,,607331e66524baf7ddfaae21,44,2022-02-12_13h48.41.588,lexical_decision_task_DD_L6,2021.2.3,Win32,59.52735282,,,,,,,,,,,,0.7062,1,,,,,,,,,,,,,,z,1,0.7062,,,,,,,,0.15462963,-0.410185185,0,0,0,,0,101,101,132,1,SCIFF,C,z,z,./images/SCIFF.png,,,,,,,,,,,,,,,,,,,,,,,,,,,,,,,,,,
,,,,,,,,,,,,,,,,,607331e66524baf7ddfaae21,44,2022-02-12_13h48.41.588,lexical_decision_task_DD_L6,2021.2.3,Win32,59.52735282,,,,,,,,,,,,0.687,1,,,,,,,,,,,,,,z,1,0.687,,,,,,,,0.15462963,-0.410185185,0,0,0,,0,102,102,86,1,AIFED,LB,z,z,./images/AIFEDLB.png,,,,,,,,,,,,,,,,,,,,,,,,,,,,,,,,,,
,,,,,,,,,,,,,,,,,607331e66524baf7ddfaae21,44,2022-02-12_13h48.41.588,lexical_decision_task_DD_L6,2021.2.3,Win32,59.52735282,,,,,,,,,,,,0.8413,1,,,,,,,,,,,,,,m,1,0.8413,,,,,,,,0.15462963,-0.410185185,0,0,0,,0,103,103,5,1,BAMBOO,HB,m,m,./images/BAMBOOHB.png,,,,,,,,,,,,,,,,,,,,,,,,,,,,,,,,,,
,,,,,,,,,,,,,,,,,607331e66524baf7ddfaae21,44,2022-02-12_13h48.41.588,lexical_decision_task_DD_L6,2021.2.3,Win32,59.52735282,,,,,,,,,,,,0.9333,1,,,,,,,,,,,,,,z,1,0.9333,,,,,,,,0.15462963,-0.410185185,0,0,0,,0,104,104,133,1,POWDY,HB,z,z,./images/POWDYHB.png,,,,,,,,,,,,,,,,,,,,,,,,,,,,,,,,,,
,,,,,,,,,,,,,,,,,607331e66524baf7ddfaae21,44,2022-02-12_13h48.41.588,lexical_decision_task_DD_L6,2021.2.3,Win32,59.52735282,,,,,,,,,,,,0.8119,1,,,,,,,,,,,,,,m,1,0.8119,,,,,,,,0.15462963,-0.410185185,0,0,0,,0,105,105,41,1,STREAM,HB,m,m,./images/STREAMHB.png,,,,,,,,,,,,,,,,,,,,,,,,,,,,,,,,,,
,,,,,,,,,,,,,,,,,607331e66524baf7ddfaae21,44,2022-02-12_13h48.41.588,lexical_decision_task_DD_L6,2021.2.3,Win32,59.52735282,,,,,,,,,,,,1.1887,1,,,,,,,,,,,,,,z,1,1.1887,,,,,,,,0.15462963,-0.410185185,0,0,0,,0,106,106,127,1,NINDY,HB,z,z,./images/NINDYHB.png,,,,,,,,,,,,,,,,,,,,,,,,,,,,,,,,,,
,,,,,,,,,,,,,,,,,607331e66524baf7ddfaae21,44,2022-02-12_13h48.41.588,lexical_decision_task_DD_L6,2021.2.3,Win32,59.52735282,,,,,,,,,,,,0.8467,1,,,,,,,,,,,,,,z,1,0.8467,,,,,,,,0.15462963,-0.410185185,0,0,0,,0,107,107,107,1,FASKS,LB,z,z,./images/FASKSLB.png,,,,,,,,,,,,,,,,,,,,,,,,,,,,,,,,,,
,,,,,,,,,,,,,,,,,607331e66524baf7ddfaae21,44,2022-02-12_13h48.41.588,lexical_decision_task_DD_L6,2021.2.3,Win32,59.52735282,,,,,,,,,,,,0.929,1,,,,,,,,,,,,,,z,1,0.929,,,,,,,,0.15462963,-0.410185185,0,0,0,,0,108,108,120,1,RINED,C,z,z,./images/RINED.png,,,,,,,,,,,,,,,,,,,,,,,,,,,,,,,,,,
,,,,,,,,,,,,,,,,,607331e66524baf7ddfaae21,44,2022-02-12_13h48.41.588,lexical_decision_task_DD_L6,2021.2.3,Win32,59.52735282,,,,,,,,,,,,0.7019,1,,,,,,,,,,,,,,m,1,0.7019,,,,,,,,0.15462963,-0.410185185,0,0,0,,0,109,109,44,1,BASKET,HB,m,m,./images/BASKETHB.png,,,,,,,,,,,,,,,,,,,,,,,,,,,,,,,,,,
,,,,,,,,,,,,,,,,,607331e66524baf7ddfaae21,44,2022-02-12_13h48.41.588,lexical_decision_task_DD_L6,2021.2.3,Win32,59.52735282,,,,,,,,,,,,0.9112,1,,,,,,,,,,,,,,z,1,0.9112,,,,,,,,0.15462963,-0.410185185,0,0,0,,0,110,110,97,1,CHIDS,HB,z,z,./images/CHIDSHB.png,,,,,,,,,,,,,,,,,,,,,,,,,,,,,,,,,,
,,,,,,,,,,,,,,,,,607331e66524baf7ddfaae21,44,2022-02-12_13h48.41.588,lexical_decision_task_DD_L6,2021.2.3,Win32,59.52735282,,,,,,,,,,,,0.8543,1,,,,,,,,,,,,,,m,1,0.8543,,,,,,,,0.15462963,-0.410185185,0,0,0,,0,111,111,77,1,WHEEL,HB,m,m,./images/WHEELHB.png,,,,,,,,,,,,,,,,,,,,,,,,,,,,,,,,,,
,,,,,,,,,,,,,,,,,607331e66524baf7ddfaae21,44,2022-02-12_13h48.41.588,lexical_decision_task_DD_L6,2021.2.3,Win32,59.52735282,,,,,,,,,,,,0.583,1,,,,,,,,,,,,,,m,1,0.583,,,,,,,,0.15462963,-0.410185185,0,0,0,,0,112,112,36,1,BOILER,LB,m,m,./images/BOILERLB.png,,,,,,,,,,,,,,,,,,,,,,,,,,,,,,,,,,
,,,,,,,,,,,,,,,,,607331e66524baf7ddfaae21,44,2022-02-12_13h48.41.588,lexical_decision_task_DD_L6,2021.2.3,Win32,59.52735282,,,,,,,,,,,,0.6811,1,,,,,,,,,,,,,,m,1,0.6811,,,,,,,,0.15462963,-0.410185185,0,0,0,,0,113,113,6,1,STAIN,LB,m,m,./images/STAINLB.png,,,,,,,,,,,,,,,,,,,,,,,,,,,,,,,,,,
,,,,,,,,,,,,,,,,,607331e66524baf7ddfaae21,44,2022-02-12_13h48.41.588,lexical_decision_task_DD_L6,2021.2.3,Win32,59.52735282,,,,,,,,,,,,0.8055,1,,,,,,,,,,,,,,z,1,0.8055,,,,,,,,0.15462963,-0.410185185,0,0,0,,0,114,114,100,1,DRIBS,HB,z,z,./images/DRIBSHB.png,,,,,,,,,,,,,,,,,,,,,,,,,,,,,,,,,,
,,,,,,,,,,,,,,,,,607331e66524baf7ddfaae21,44,2022-02-12_13h48.41.588,lexical_decision_task_DD_L6,2021.2.3,Win32,59.52735282,,,,,,,,,,,,0.6327,1,,,,,,,,,,,,,,m,1,0.6327,,,,,,,,0.15462963,-0.410185185,0,0,0,,0,115,115,63,1,BAKER,LB,m,m,./images/BAKERLB.png,,,,,,,,,,,,,,,,,,,,,,,,,,,,,,,,,,
,,,,,,,,,,,,,,,,,607331e66524baf7ddfaae21,44,2022-02-12_13h48.41.588,lexical_decision_task_DD_L6,2021.2.3,Win32,59.52735282,,,,,,,,,,,,0.7811,1,,,,,,,,,,,,,,z,1,0.7811,,,,,,,,0.15462963,-0.410185185,0,0,0,,0,116,116,103,1,FLORT,HB,z,z,./images/FLORTHB.png,,,,,,,,,,,,,,,,,,,,,,,,,,,,,,,,,,
,,,,,,,,,,,,,,,,,607331e66524baf7ddfaae21,44,2022-02-12_13h48.41.588,lexical_decision_task_DD_L6,2021.2.3,Win32,59.52735282,,,,,,,,,,,,1.3513,1,,,,,,,,,,,,,,z,1,1.3513,,,,,,,,0.15462963,-0.410185185,0,0,0,,0,117,117,102,1,DULLE,C,z,z,./images/DULLE.png,,,,,,,,,,,,,,,,,,,,,,,,,,,,,,,,,,
,,,,,,,,,,,,,,,,,607331e66524baf7ddfaae21,44,2022-02-12_13h48.41.588,lexical_decision_task_DD_L6,2021.2.3,Win32,59.52735282,,,,,,,,,,,,0.9007,1,,,,,,,,,,,,,,z,1,0.9007,,,,,,,,0.15462963,-0.410185185,0,0,0,,0,118,118,105,1,MOKER,C,z,z,./images/MOKER.png,,,,,,,,,,,,,,,,,,,,,,,,,,,,,,,,,,
,,,,,,,,,,,,,,,,,607331e66524baf7ddfaae21,44,2022-02-12_13h48.41.588,lexical_decision_task_DD_L6,2021.2.3,Win32,59.52735282,,,,,,,,,,,,0.7757,1,,,,,,,,,,,,,,m,1,0.7757,,,,,,,,0.15462963,-0.410185185,0,0,0,,0,119,119,9,1,DIVER,LB,m,m,./images/DIVERLB.png,,,,,,,,,,,,,,,,,,,,,,,,,,,,,,,,,,
,,,,,,,,,,,,,,,,,607331e66524baf7ddfaae21,44,2022-02-12_13h48.41.588,lexical_decision_task_DD_L6,2021.2.3,Win32,59.52735282,,,,,,,,,,,,1.0245,1,,,,,,,,,,,,,,z,1,1.0245,,,,,,,,0.15462963,-0.410185185,0,0,0,,0,120,120,131,1,NACES,LB,z,z,./images/NACESLB.png,,,,,,,,,,,,,,,,,,,,,,,,,,,,,,,,,,
,,,,,,,,,,,,,,,,,607331e66524baf7ddfaae21,44,2022-02-12_13h48.41.588,lexical_decision_task_DD_L6,2021.2.3,Win32,59.52735282,,,,,,,,,,,,1.2305,1,,,,,,,,,,,,,,z,1,1.2305,,,,,,,,0.15462963,-0.410185185,0,0,0,,0,121,121,137,1,JOOST,LB,z,z,./images/JOOSTLB.png,,,,,,,,,,,,,,,,,,,,,,,,,,,,,,,,,,
,,,,,,,,,,,,,,,,,607331e66524baf7ddfaae21,44,2022-02-12_13h48.41.588,lexical_decision_task_DD_L6,2021.2.3,Win32,59.52735282,,,,,,,,,,,,0.8751,1,,,,,,,,,,,,,,m,1,0.8751,,,,,,,,0.15462963,-0.410185185,0,0,0,,0,122,122,71,1,BUBBLE,HB,m,m,./images/BUBBLEHB.png,,,,,,,,,,,,,,,,,,,,,,,,,,,,,,,,,,
,,,,,,,,,,,,,,,,,607331e66524baf7ddfaae21,44,2022-02-12_13h48.41.588,lexical_decision_task_DD_L6,2021.2.3,Win32,59.52735282,,,,,,,,,,,,0.7949,1,,,,,,,,,,,,,,z,1,0.7949,,,,,,,,0.15462963,-0.410185185,0,0,0,,0,123,123,113,1,LINEW,LB,z,z,./images/LINEWLB.png,,,,,,,,,,,,,,,,,,,,,,,,,,,,,,,,,,
,,,,,,,,,,,,,,,,,607331e66524baf7ddfaae21,44,2022-02-12_13h48.41.588,lexical_decision_task_DD_L6,2021.2.3,Win32,59.52735282,,,,,,,,,,,,0.7725,1,,,,,,,,,,,,,,m,1,0.7725,,,,,,,,0.15462963,-0.410185185,0,0,0,,0,124,124,59,1,BRUSH,HB,m,m,./images/BRUSHHB.png,,,,,,,,,,,,,,,,,,,,,,,,,,,,,,,,,,
,,,,,,,,,,,,,,,,,607331e66524baf7ddfaae21,44,2022-02-12_13h48.41.588,lexical_decision_task_DD_L6,2021.2.3,Win32,59.52735282,,,,,,,,,,,,0.6897,1,,,,,,,,,,,,,,m,1,0.6897,,,,,,,,0.15462963,-0.410185185,0,0,0,space,0,125,125,10,1,GARDEN,C,m,m,./images/GARDEN.png,3.2557,,,,,,,,,,,,,,,,,,,,,,,,,,,,,,,,,
,,,,,,,,,,,,,,,,,607331e66524baf7ddfaae21,44,2022-02-12_13h48.41.588,lexical_decision_task_DD_L6,2021.2.3,Win32,59.52735282,,,,,,,,,,,,0.6365,1,,,,,,,,,,,,,,m,1,0.6365,,,,,,,,0.15462963,-0.410185185,0,0,0,,0,126,126,60,1,CURRY,LB,m,m,./images/CURRYLB.png,,,,,,,,,,,,,,,,,,,,,,,,,,,,,,,,,,
,,,,,,,,,,,,,,,,,607331e66524baf7ddfaae21,44,2022-02-12_13h48.41.588,lexical_decision_task_DD_L6,2021.2.3,Win32,59.52735282,,,,,,,,,,,,0.7805,1,,,,,,,,,,,,,,z,1,0.7805,,,,,,,,0.15462963,-0.410185185,0,0,0,,0,127,127,124,1,TUNCH,HB,z,z,./images/TUNCHHB.png,,,,,,,,,,,,,,,,,,,,,,,,,,,,,,,,,,
,,,,,,,,,,,,,,,,,607331e66524baf7ddfaae21,44,2022-02-12_13h48.41.588,lexical_decision_task_DD_L6,2021.2.3,Win32,59.52735282,,,,,,,,,,,,0.6094,1,,,,,,,,,,,,,,z,1,0.6094,,,,,,,,0.15462963,-0.410185185,0,0,0,,0,128,128,156,1,HIXES,C,z,z,./images/HIXES.png,,,,,,,,,,,,,,,,,,,,,,,,,,,,,,,,,,
,,,,,,,,,,,,,,,,,607331e66524baf7ddfaae21,44,2022-02-12_13h48.41.588,lexical_decision_task_DD_L6,2021.2.3,Win32,59.52735282,,,,,,,,,,,,0.8063,1,,,,,,,,,,,,,,z,1,0.8063,,,,,,,,0.15462963,-0.410185185,0,0,0,,0,129,129,87,1,TRING,C,z,z,./images/TRING.png,,,,,,,,,,,,,,,,,,,,,,,,,,,,,,,,,,
,,,,,,,,,,,,,,,,,607331e66524baf7ddfaae21,44,2022-02-12_13h48.41.588,lexical_decision_task_DD_L6,2021.2.3,Win32,59.52735282,,,,,,,,,,,,1.1177,1,,,,,,,,,,,,,,z,1,1.1177,,,,,,,,0.15462963,-0.410185185,0,0,0,,0,130,130,134,1,TROSS,LB,z,z,./images/TROSSLB.png,,,,,,,,,,,,,,,,,,,,,,,,,,,,,,,,,,
,,,,,,,,,,,,,,,,,607331e66524baf7ddfaae21,44,2022-02-12_13h48.41.588,lexical_decision_task_DD_L6,2021.2.3,Win32,59.52735282,,,,,,,,,,,,0.6129,1,,,,,,,,,,,,,,z,1,0.6129,,,,,,,,0.15462963,-0.410185185,0,0,0,,0,131,131,129,1,PRANS,C,z,z,./images/PRANS.png,,,,,,,,,,,,,,,,,,,,,,,,,,,,,,,,,,
,,,,,,,,,,,,,,,,,607331e66524baf7ddfaae21,44,2022-02-12_13h48.41.588,lexical_decision_task_DD_L6,2021.2.3,Win32,59.52735282,,,,,,,,,,,,0.5627,1,,,,,,,,,,,,,,m,1,0.5627,,,,,,,,0.15462963,-0.410185185,0,0,0,,0,132,132,69,1,ARROW,LB,m,m,./images/ARROWLB.png,,,,,,,,,,,,,,,,,,,,,,,,,,,,,,,,,,
,,,,,,,,,,,,,,,,,607331e66524baf7ddfaae21,44,2022-02-12_13h48.41.588,lexical_decision_task_DD_L6,2021.2.3,Win32,59.52735282,,,,,,,,,,,,0.614,1,,,,,,,,,,,,,,m,1,0.614,,,,,,,,0.15462963,-0.410185185,0,0,0,,0,133,133,43,1,STOOL,C,m,m,./images/STOOL.png,,,,,,,,,,,,,,,,,,,,,,,,,,,,,,,,,,
,,,,,,,,,,,,,,,,,607331e66524baf7ddfaae21,44,2022-02-12_13h48.41.588,lexical_decision_task_DD_L6,2021.2.3,Win32,59.52735282,,,,,,,,,,,,0.5436,1,,,,,,,,,,,,,,m,1,0.5436,,,,,,,,0.15462963,-0.410185185,0,0,0,,0,134,134,42,1,CHAIN,LB,m,m,./images/CHAINLB.png,,,,,,,,,,,,,,,,,,,,,,,,,,,,,,,,,,
,,,,,,,,,,,,,,,,,607331e66524baf7ddfaae21,44,2022-02-12_13h48.41.588,lexical_decision_task_DD_L6,2021.2.3,Win32,59.52735282,,,,,,,,,,,,0.6244,1,,,,,,,,,,,,,,m,1,0.6244,,,,,,,,0.15462963,-0.410185185,0,0,0,,0,135,135,58,1,CANOE,C,m,m,./images/CANOE.png,,,,,,,,,,,,,,,,,,,,,,,,,,,,,,,,,,
,,,,,,,,,,,,,,,,,607331e66524baf7ddfaae21,44,2022-02-12_13h48.41.588,lexical_decision_task_DD_L6,2021.2.3,Win32,59.52735282,,,,,,,,,,,,1.1303,1,,,,,,,,,,,,,,z,1,1.1303,,,,,,,,0.15462963,-0.410185185,0,0,0,,0,136,136,115,1,MAWNS,HB,z,z,./images/MAWNSHB.png,,,,,,,,,,,,,,,,,,,,,,,,,,,,,,,,,,
,,,,,,,,,,,,,,,,,607331e66524baf7ddfaae21,44,2022-02-12_13h48.41.588,lexical_decision_task_DD_L6,2021.2.3,Win32,59.52735282,,,,,,,,,,,,0.6005,1,,,,,,,,,,,,,,m,1,0.6005,,,,,,,,0.15462963,-0.410185185,0,0,0,,0,137,137,4,1,BOXER,C,m,m,./images/BOXER.png,,,,,,,,,,,,,,,,,,,,,,,,,,,,,,,,,,
,,,,,,,,,,,,,,,,,607331e66524baf7ddfaae21,44,2022-02-12_13h48.41.588,lexical_decision_task_DD_L6,2021.2.3,Win32,59.52735282,,,,,,,,,,,,0.8548,1,,,,,,,,,,,,,,z,1,0.8548,,,,,,,,0.15462963,-0.410185185,0,0,0,,0,138,138,138,1,PLICE,C,z,z,./images/PLICE.png,,,,,,,,,,,,,,,,,,,,,,,,,,,,,,,,,,
,,,,,,,,,,,,,,,,,607331e66524baf7ddfaae21,44,2022-02-12_13h48.41.588,lexical_decision_task_DD_L6,2021.2.3,Win32,59.52735282,,,,,,,,,,,,0.9075,1,,,,,,,,,,,,,,z,1,0.9075,,,,,,,,0.15462963,-0.410185185,0,0,0,,0,139,139,157,1,INLER,HB,z,z,./images/INLERHB.png,,,,,,,,,,,,,,,,,,,,,,,,,,,,,,,,,,
,,,,,,,,,,,,,,,,,607331e66524baf7ddfaae21,44,2022-02-12_13h48.41.588,lexical_decision_task_DD_L6,2021.2.3,Win32,59.52735282,,,,,,,,,,,,0.6394,1,,,,,,,,,,,,,,m,1,0.6394,,,,,,,,0.15462963,-0.410185185,0,0,0,,0,140,140,28,1,CASINO,C,m,m,./images/CASINO.png,,,,,,,,,,,,,,,,,,,,,,,,,,,,,,,,,,
,,,,,,,,,,,,,,,,,607331e66524baf7ddfaae21,44,2022-02-12_13h48.41.588,lexical_decision_task_DD_L6,2021.2.3,Win32,59.52735282,,,,,,,,,,,,1.5465,1,,,,,,,,,,,,,,z,1,1.5465,,,,,,,,0.15462963,-0.410185185,0,0,0,,0,141,141,109,1,BURGE,HB,z,z,./images/BURGEHB.png,,,,,,,,,,,,,,,,,,,,,,,,,,,,,,,,,,
,,,,,,,,,,,,,,,,,607331e66524baf7ddfaae21,44,2022-02-12_13h48.41.588,lexical_decision_task_DD_L6,2021.2.3,Win32,59.52735282,,,,,,,,,,,,0.8423,1,,,,,,,,,,,,,,z,1,0.8423,,,,,,,,0.15462963,-0.410185185,0,0,0,,0,142,142,98,1,BAMPS,LB,z,z,./images/BAMPSLB.png,,,,,,,,,,,,,,,,,,,,,,,,,,,,,,,,,,
,,,,,,,,,,,,,,,,,607331e66524baf7ddfaae21,44,2022-02-12_13h48.41.588,lexical_decision_task_DD_L6,2021.2.3,Win32,59.52735282,,,,,,,,,,,,0.6596,1,,,,,,,,,,,,,,m,1,0.6596,,,,,,,,0.15462963,-0.410185185,0,0,0,,0,143,143,21,1,DANCER,LB,m,m,./images/DANCERLB.png,,,,,,,,,,,,,,,,,,,,,,,,,,,,,,,,,,
,,,,,,,,,,,,,,,,,607331e66524baf7ddfaae21,44,2022-02-12_13h48.41.588,lexical_decision_task_DD_L6,2021.2.3,Win32,59.52735282,,,,,,,,,,,,1.1444,1,,,,,,,,,,,,,,z,1,1.1444,,,,,,,,0.15462963,-0.410185185,0,0,0,,0,144,144,141,1,PLEET,C,z,z,./images/PLEET.png,,,,,,,,,,,,,,,,,,,,,,,,,,,,,,,,,,
,,,,,,,,,,,,,,,,,607331e66524baf7ddfaae21,44,2022-02-12_13h48.41.588,lexical_decision_task_DD_L6,2021.2.3,Win32,59.52735282,,,,,,,,,,,,0.9937,1,,,,,,,,,,,,,,z,1,0.9937,,,,,,,,0.15462963,-0.410185185,0,0,0,,0,145,145,121,1,CEERS,HB,z,z,./images/CEERSHB.png,,,,,,,,,,,,,,,,,,,,,,,,,,,,,,,,,,
,,,,,,,,,,,,,,,,,607331e66524baf7ddfaae21,44,2022-02-12_13h48.41.588,lexical_decision_task_DD_L6,2021.2.3,Win32,59.52735282,,,,,,,,,,,,0.8189,1,,,,,,,,,,,,,,m,1,0.8189,,,,,,,,0.15462963,-0.410185185,0,0,0,,0,146,146,74,1,JUMPER,HB,m,m,./images/JUMPERHB.png,,,,,,,,,,,,,,,,,,,,,,,,,,,,,,,,,,
,,,,,,,,,,,,,,,,,607331e66524baf7ddfaae21,44,2022-02-12_13h48.41.588,lexical_decision_task_DD_L6,2021.2.3,Win32,59.52735282,,,,,,,,,,,,0.7848,1,,,,,,,,,,,,,,z,1,0.7848,,,,,,,,0.15462963,-0.410185185,0,0,0,,0,147,147,126,1,GUELS,C,z,z,./images/GUELS.png,,,,,,,,,,,,,,,,,,,,,,,,,,,,,,,,,,
,,,,,,,,,,,,,,,,,607331e66524baf7ddfaae21,44,2022-02-12_13h48.41.588,lexical_decision_task_DD_L6,2021.2.3,Win32,59.52735282,,,,,,,,,,,,0.7093,1,,,,,,,,,,,,,,m,1,0.7093,,,,,,,,0.15462963,-0.410185185,0,0,0,,0,148,148,32,1,HOCKEY,HB,m,m,./images/HOCKEYHB.png,,,,,,,,,,,,,,,,,,,,,,,,,,,,,,,,,,
,,,,,,,,,,,,,,,,,607331e66524baf7ddfaae21,44,2022-02-12_13h48.41.588,lexical_decision_task_DD_L6,2021.2.3,Win32,59.52735282,,,,,,,,,,,,0.5839,1,,,,,,,,,,,,,,m,1,0.5839,,,,,,,,0.15462963,-0.410185185,0,0,0,,0,149,149,40,1,SNAKE,C,m,m,./images/SNAKE.png,,,,,,,,,,,,,,,,,,,,,,,,,,,,,,,,,,
,,,,,,,,,,,,,,,,,607331e66524baf7ddfaae21,44,2022-02-12_13h48.41.588,lexical_decision_task_DD_L6,2021.2.3,Win32,59.52735282,,,,,,,,,,,,0.5531,1,,,,,,,,,,,,,,m,1,0.5531,,,,,,,,0.15462963,-0.410185185,0,0,0,,0,150,150,66,1,STATUE,LB,m,m,./images/STATUELB.png,,,,,,,,,,,,,,,,,,,,,,,,,,,,,,,,,,
,,,,,,,,,,,,,,,,,607331e66524baf7ddfaae21,44,2022-02-12_13h48.41.588,lexical_decision_task_DD_L6,2021.2.3,Win32,59.52735282,,,,,,,,,,,,0.7188,1,,,,,,,,,,,,,,z,1,0.7188,,,,,,,,0.15462963,-0.410185185,0,0,0,,0,151,151,94,1,BLANS,HB,z,z,./images/BLANSHB.png,,,,,,,,,,,,,,,,,,,,,,,,,,,,,,,,,,
,,,,,,,,,,,,,,,,,607331e66524baf7ddfaae21,44,2022-02-12_13h48.41.588,lexical_decision_task_DD_L6,2021.2.3,Win32,59.52735282,,,,,,,,,,,,1.1058,1,,,,,,,,,,,,,,m,1,1.1058,,,,,,,,0.15462963,-0.410185185,0,0,0,,0,152,152,37,1,TIGER,C,m,m,./images/TIGER.png,,,,,,,,,,,,,,,,,,,,,,,,,,,,,,,,,,
,,,,,,,,,,,,,,,,,607331e66524baf7ddfaae21,44,2022-02-12_13h48.41.588,lexical_decision_task_DD_L6,2021.2.3,Win32,59.52735282,,,,,,,,,,,,0.5603,1,,,,,,,,,,,,,,m,1,0.5603,,,,,,,,0.15462963,-0.410185185,0,0,0,,0,153,153,7,1,WAGON,C,m,m,./images/WAGON.png,,,,,,,,,,,,,,,,,,,,,,,,,,,,,,,,,,
,,,,,,,,,,,,,,,,,607331e66524baf7ddfaae21,44,2022-02-12_13h48.41.588,lexical_decision_task_DD_L6,2021.2.3,Win32,59.52735282,,,,,,,,,,,,0.7194,1,,,,,,,,,,,,,,m,1,0.7194,,,,,,,,0.15462963,-0.410185185,0,0,0,,0,154,154,17,1,PARADE,HB,m,m,./images/PARADEHB.png,,,,,,,,,,,,,,,,,,,,,,,,,,,,,,,,,,
,,,,,,,,,,,,,,,,,607331e66524baf7ddfaae21,44,2022-02-12_13h48.41.588,lexical_decision_task_DD_L6,2021.2.3,Win32,59.52735282,,,,,,,,,,,,0.7519,1,,,,,,,,,,,,,,z,1,0.7519,,,,,,,,0.15462963,-0.410185185,0,0,0,,0,155,155,104,1,GITTY,LB,z,z,./images/GITTYLB.png,,,,,,,,,,,,,,,,,,,,,,,,,,,,,,,,,,
,,,,,,,,,,,,,,,,,607331e66524baf7ddfaae21,44,2022-02-12_13h48.41.588,lexical_decision_task_DD_L6,2021.2.3,Win32,59.52735282,,,,,,,,,,,,0.6631,1,,,,,,,,,,,,,,m,1,0.6631,,,,,,,,0.15462963,-0.410185185,0,0,0,,0,156,156,27,1,BUTTER,LB,m,m,./images/BUTTERLB.png,,,,,,,,,,,,,,,,,,,,,,,,,,,,,,,,,,
,,,,,,,,,,,,,,,,,607331e66524baf7ddfaae21,44,2022-02-12_13h48.41.588,lexical_decision_task_DD_L6,2021.2.3,Win32,59.52735282,,,,,,,,,,,,1.2698,1,,,,,,,,,,,,,,z,1,1.2698,,,,,,,,0.15462963,-0.410185185,0,0,0,,0,157,157,163,1,GAMBA,HB,z,z,./images/GAMBAHB.png,,,,,,,,,,,,,,,,,,,,,,,,,,,,,,,,,,
,,,,,,,,,,,,,,,,,607331e66524baf7ddfaae21,44,2022-02-12_13h48.41.588,lexical_decision_task_DD_L6,2021.2.3,Win32,59.52735282,,,,,,,,,,,,1.0487,1,,,,,,,,,,,,,,z,1,1.0487,,,,,,,,0.15462963,-0.410185185,0,0,0,,0,158,158,142,1,PLASK,HB,z,z,./images/PLASKHB.png,,,,,,,,,,,,,,,,,,,,,,,,,,,,,,,,,,
,,,,,,,,,,,,,,,,,607331e66524baf7ddfaae21,44,2022-02-12_13h48.41.588,lexical_decision_task_DD_L6,2021.2.3,Win32,59.52735282,,,,,,,,,,,,0.6422,1,,,,,,,,,,,,,,z,1,0.6422,,,,,,,,0.15462963,-0.410185185,0,0,0,,0,159,159,119,1,PAFER,LB,z,z,./images/PAFERLB.png,,,,,,,,,,,,,,,,,,,,,,,,,,,,,,,,,,
,,,,,,,,,,,,,,,,,607331e66524baf7ddfaae21,44,2022-02-12_13h48.41.588,lexical_decision_task_DD_L6,2021.2.3,Win32,59.52735282,,,,,,,,,,,,0.9999,1,,,,,,,,,,,,,,z,1,0.9999,,,,,,,,0.15462963,-0.410185185,0,0,0,,0,160,160,152,1,FRAIN,LB,z,z,./images/FRAINLB.png,,,,,,,,,,,,,,,,,,,,,,,,,,,,,,,,,,
,,,,,,,,,,,,,,,,,607331e66524baf7ddfaae21,44,2022-02-12_13h48.41.588,lexical_decision_task_DD_L6,2021.2.3,Win32,59.52735282,,,,,,,,,,,,0.7249,1,,,,,,,,,,,,,,z,1,0.7249,,,,,,,,0.15462963,-0.410185185,0,0,0,,0,161,161,144,1,NAIRY,C,z,z,./images/NAIRY.png,,,,,,,,,,,,,,,,,,,,,,,,,,,,,,,,,,
,,,,,,,,,,,,,,,,,607331e66524baf7ddfaae21,44,2022-02-12_13h48.41.588,lexical_decision_task_DD_L6,2021.2.3,Win32,59.52735282,,,,,,,,,,,,0.6695,1,,,,,,,,,,,,,,m,1,0.6695,,,,,,,,0.15462963,-0.410185185,0,0,0,,0,162,162,51,1,SAUCE,LB,m,m,./images/SAUCELB.png,,,,,,,,,,,,,,,,,,,,,,,,,,,,,,,,,,
,,,,,,,,,,,,,,,,,607331e66524baf7ddfaae21,44,2022-02-12_13h48.41.588,lexical_decision_task_DD_L6,2021.2.3,Win32,59.52735282,,,,,,,,,,,,0.8022,1,,,,,,,,,,,,,,z,1,0.8022,,,,,,,,0.15462963,-0.410185185,0,0,0,,0,163,163,158,1,EGECT,LB,z,z,./images/EGECTLB.png,,,,,,,,,,,,,,,,,,,,,,,,,,,,,,,,,,
,,,,,,,,,,,,,,,,,607331e66524baf7ddfaae21,44,2022-02-12_13h48.41.588,lexical_decision_task_DD_L6,2021.2.3,Win32,59.52735282,,,,,,,,,,,,1.0568,1,,,,,,,,,,,,,,z,1,1.0568,,,,,,,,0.15462963,-0.410185185,0,0,0,,0,164,164,106,1,CLUMS,HB,z,z,./images/CLUMSHB.png,,,,,,,,,,,,,,,,,,,,,,,,,,,,,,,,,,
,,,,,,,,,,,,,,,,,607331e66524baf7ddfaae21,44,2022-02-12_13h48.41.588,lexical_decision_task_DD_L6,2021.2.3,Win32,59.52735282,,,,,,,,,,,,0.8422,1,,,,,,,,,,,,,,m,1,0.8422,,,,,,,,0.15462963,-0.410185185,0,0,0,,0,165,165,83,1,WHISKY,HB,m,m,./images/WHISKYHB.png,,,,,,,,,,,,,,,,,,,,,,,,,,,,,,,,,,
,,,,,,,,,,,,,,,,,607331e66524baf7ddfaae21,44,2022-02-12_13h48.41.588,lexical_decision_task_DD_L6,2021.2.3,Win32,59.52735282,,,,,,,,,,,,0.6687,1,,,,,,,,,,,,,,m,1,0.6687,,,,,,,,0.15462963,-0.410185185,0,0,0,,0,166,166,23,1,CLOTH,HB,m,m,./images/CLOTHHB.png,,,,,,,,,,,,,,,,,,,,,,,,,,,,,,,,,,
,,,,,,,,,,,,,,,,,607331e66524baf7ddfaae21,44,2022-02-12_13h48.41.588,lexical_decision_task_DD_L6,2021.2.3,Win32,59.52735282,,,,,,,,,,,,1.8715,1,,,,,,,,,,,,,,z,1,1.8715,,,,,,,,0.15462963,-0.410185185,0,0,0,,0,167,167,90,1,NEAST,C,z,z,./images/NEAST.png,,,,,,,,,,,,,,,,,,,,,,,,,,,,,,,,,,
,,,,,,,,,,,,,,,,,607331e66524baf7ddfaae21,44,2022-02-12_13h48.41.588,lexical_decision_task_DD_L6,2021.2.3,Win32,59.52735282,,,,,,,,,,,,,,,,,,,,,,,,,,,,,,,,,,,,,,,,,,,,,,,,,How likely will it be that you will recognize the words presented very blurred on a scale of 0 (not likely) to 100 (most likely)?,,,,,0.014814815,-0.413888889,1,0,0,jol_adv,5,6.319,0,0,0,2,1,,,,,,,,,,,,,,,,,,,,
,,,,,,,,,,,,,,,,,607331e66524baf7ddfaae21,44,2022-02-12_13h48.41.588,lexical_decision_task_DD_L6,2021.2.3,Win32,59.52735282,,,,,,,,,,,,,,,,,,,,,,,,,,,,,,,,,,,,,,,,,,,,,,,,,How likely will it be that you will recognize the words presented slighly blurred on a scale of 0 (not likely) to 100 (most likely)?,,,,,,,,,,,5,6.962,0,1,1,1,1,,,,,,,,,,,,,,,,,,,,
,,,,,,,,,,,,,,,,,607331e66524baf7ddfaae21,44,2022-02-12_13h48.41.588,lexical_decision_task_DD_L6,2021.2.3,Win32,59.52735282,,,,,,,,,,,,,,,,,,,,,,,,,,,,,,,,,,,,,,,,,,,,,,,,,How likely will it be that you will recognize the words presented clearly on a scale of 0 (not likely) to 100 (most likely)?,,,,,,,,,,,5,4.0784,0,2,2,0,1,,,,,,,,,,,,,,,,,,,,
,,0.153703704,-0.398148148,1,0,0,,,,,,1,test,"In the next phase you will be presented with the words from the the first phase. Your job is to decide whether you remember seeing the word or not. If you remember seeing the word press ""old"" or type ""m"". If you do not remember seeing the word press ""new"" or type ""z"". Please press the space bar or click on continue to begin. ",,,607331e66524baf7ddfaae21,44,2022-02-12_13h48.41.588,lexical_decision_task_DD_L6,2021.2.3,Win32,59.52735282,instr_done_button,,,,,,,,,,,,,,,,,,,,,,,,,,,,,,,,,,,,,,,,,,,,,,,,,,,,,,,,,,,,,,,,,,0,0,0,0,1,,,,,,,,,,,,,,,
,,0.099074074,-0.403703704,1,0,0,,,,,,1,test,"In the next phase you will be presented with the words from the the first phase. Your job is to decide whether you remember seeing the word or not. If you remember seeing the word press ""old"" or type ""m"". If you do not remember seeing the word press ""new"" or type ""z"". Please press the space bar or click on continue to begin. ",,,607331e66524baf7ddfaae21,44,2022-02-12_13h48.41.588,lexical_decision_task_DD_L6,2021.2.3,Win32,59.52735282,instr_done_button,,,,,,,,,,,,,,,,,,,,,,,,,,,,,,,,,,,,,,,,,,,,,,,,,,,,,,,,,,,,,,,,,,1,0,1,0,1,,,,,,,,,,,,,,,
space,3.6331,0.056481481,-0.335185185,0,0,0,,,,,,1,test,"In the next phase you will be presented with the words from the the first phase. Your job is to decide whether you remember seeing the word or not. If you remember seeing the word press ""old"" or type ""m"". If you do not remember seeing the word press ""new"" or type ""z"". Please press the space bar or click on continue to begin. ",,,607331e66524baf7ddfaae21,44,2022-02-12_13h48.41.588,lexical_decision_task_DD_L6,2021.2.3,Win32,59.52735282,,,,,,,,,,,,,,,,,,,,,,,,,,,,,,,,,,,,,,,,,,,,,,,,,,,,,,,,,,,,,,,,,,,2,0,2,0,1,,,,,,,,,,,,,,,
,,0.003703704,-0.419444444,1,0,0,,,,,,1,test,"In the next phase you will be presented with the words from the the first phase. Your job is to decide whether you remember seeing the word or not. If you remember seeing the word press ""old"" or type ""m"". If you do not remember seeing the word press ""new"" or type ""z"". Please press the space bar or click on continue to begin. ",,,607331e66524baf7ddfaae21,44,2022-02-12_13h48.41.588,lexical_decision_task_DD_L6,2021.2.3,Win32,59.52735282,instr_done_button,,,,,,,,,,,,,,,,,,,,,,,,,,,,,,,,,,,,,,,,,,,,,,,,,,,,,,,,,,,,,,,,,,3,0,3,0,1,,,,,,,,,,,,,,,
,,0.003703704,-0.398148148,1,0,0,,,,,,1,test,"In the next phase you will be presented with the words from the the first phase. Your job is to decide whether you remember seeing the word or not. If you remember seeing the word press ""old"" or type ""m"". If you do not remember seeing the word press ""new"" or type ""z"". Please press the space bar or click on continue to begin. ",,,607331e66524baf7ddfaae21,44,2022-02-12_13h48.41.588,lexical_decision_task_DD_L6,2021.2.3,Win32,59.52735282,instr_done_button,,,,,,,,,,,,,,,,,,,,,,,,,,,,,,,,,,,,,,,,,,,,,,,,,,,,,,,,,,,,,,,,,,4,0,4,0,1,,,,,,,,,,,,,,,
,,,,,,,,,,,,,,,,,607331e66524baf7ddfaae21,44,2022-02-12_13h48.41.588,lexical_decision_task_DD_L6,2021.2.3,Win32,59.52735282,,,,,,,,,,,,2.8552,1,,,,,,,,,,,,,,,,,,,,,,,,0.521296296,-0.114814815,0,0,0,,,,,,,DESERT,C,m,y,./images/DESERT.png,,,,,,,,,,,,,,,,,,,,m,1,2.8552,,,,,,,,0,0,0,52,1
,,,,,,,,,,,,,,,,,607331e66524baf7ddfaae21,44,2022-02-12_13h48.41.588,lexical_decision_task_DD_L6,2021.2.3,Win32,59.52735282,,,,,,,,,,,,2.6944,1,,,,,,,,,,,,,,,,,,,,,,,,0.521296296,-0.114814815,0,0,0,,,,,,,SQUARE,LB,z,y,./images/SQUARELB.png,,,,,,,,,,,,,,,,,,,,z,1,2.6944,,,,,,,,0,1,1,90,1
,,,,,,,,,,,,,,,,,607331e66524baf7ddfaae21,44,2022-02-12_13h48.41.588,lexical_decision_task_DD_L6,2021.2.3,Win32,59.52735282,,,,,,,,,,,,1.4907,0,,,,,,,,,,,,,,,,,,,,,,,,0.521296296,-0.114814815,0,0,0,,,,,,,DRUMS,C,z,y,./images/DRUMS.png,,,,,,,,,,,,,,,,,,,,m,0,1.4907,,,,,,,,0,2,2,133,1
,,,,,,,,,,,,,,,,,607331e66524baf7ddfaae21,44,2022-02-12_13h48.41.588,lexical_decision_task_DD_L6,2021.2.3,Win32,59.52735282,,,,,,,,,,,,0.9685,1,,,,,,,,,,,,,,,,,,,,,,,,0.521296296,-0.114814815,0,0,0,,,,,,,FENCE,HB,m,y,./images/FENCEHB.png,,,,,,,,,,,,,,,,,,,,m,1,0.9685,,,,,,,,0,3,3,14,1
,,,,,,,,,,,,,,,,,607331e66524baf7ddfaae21,44,2022-02-12_13h48.41.588,lexical_decision_task_DD_L6,2021.2.3,Win32,59.52735282,,,,,,,,,,,,0.7617,1,,,,,,,,,,,,,,,,,,,,,,,,0.521296296,-0.114814815,0,0,0,,,,,,,SPINE,HB,m,y,./images/SPINEHB.png,,,,,,,,,,,,,,,,,,,,m,1,0.7617,,,,,,,,0,4,4,65,1
,,,,,,,,,,,,,,,,,607331e66524baf7ddfaae21,44,2022-02-12_13h48.41.588,lexical_decision_task_DD_L6,2021.2.3,Win32,59.52735282,,,,,,,,,,,,0.6102,1,,,,,,,,,,,,,,,,,,,,,,,,0.521296296,-0.114814815,0,0,0,,,,,,,ARTIST,C,m,y,./images/ARTIST.png,,,,,,,,,,,,,,,,,,,,m,1,0.6102,,,,,,,,0,5,5,61,1
,,,,,,,,,,,,,,,,,607331e66524baf7ddfaae21,44,2022-02-12_13h48.41.588,lexical_decision_task_DD_L6,2021.2.3,Win32,59.52735282,,,,,,,,,,,,0.5037,1,,,,,,,,,,,,,,,,,,,,,,,,0.521296296,-0.114814815,0,0,0,,,,,,,PILOT,HB,m,y,./images/PILOTHB.png,,,,,,,,,,,,,,,,,,,,m,1,0.5037,,,,,,,,0,6,6,50,1
,,,,,,,,,,,,,,,,,607331e66524baf7ddfaae21,44,2022-02-12_13h48.41.588,lexical_decision_task_DD_L6,2021.2.3,Win32,59.52735282,,,,,,,,,,,,0.7666,1,,,,,,,,,,,,,,,,,,,,,,,,0.521296296,-0.114814815,0,0,0,,,,,,,ONION,LB,z,y,./images/ONIONLB.png,,,,,,,,,,,,,,,,,,,,z,1,0.7666,,,,,,,,0,7,7,135,1
,,,,,,,,,,,,,,,,,607331e66524baf7ddfaae21,44,2022-02-12_13h48.41.588,lexical_decision_task_DD_L6,2021.2.3,Win32,59.52735282,,,,,,,,,,,,1.3252,1,,,,,,,,,,,,,,,,,,,,,,,,0.521296296,-0.114814815,0,0,0,,,,,,,PAINT,C,z,y,./images/PAINT.png,,,,,,,,,,,,,,,,,,,,z,1,1.3252,,,,,,,,0,8,8,91,1
,,,,,,,,,,,,,,,,,607331e66524baf7ddfaae21,44,2022-02-12_13h48.41.588,lexical_decision_task_DD_L6,2021.2.3,Win32,59.52735282,,,,,,,,,,,,0.6118,1,,,,,,,,,,,,,,,,,,,,,,,,0.521296296,-0.114814815,0,0,0,,,,,,,GLOVE,C,m,y,./images/GLOVE.png,,,,,,,,,,,,,,,,,,,,m,1,0.6118,,,,,,,,0,9,9,73,1
,,,,,,,,,,,,,,,,,607331e66524baf7ddfaae21,44,2022-02-12_13h48.41.588,lexical_decision_task_DD_L6,2021.2.3,Win32,59.52735282,,,,,,,,,,,,0.7655,1,,,,,,,,,,,,,,,,,,,,,,,,0.521296296,-0.114814815,0,0,0,,,,,,,MOSQUE,C,z,y,./images/MOSQUE.png,,,,,,,,,,,,,,,,,,,,z,1,0.7655,,,,,,,,0,10,10,127,1
,,,,,,,,,,,,,,,,,607331e66524baf7ddfaae21,44,2022-02-12_13h48.41.588,lexical_decision_task_DD_L6,2021.2.3,Win32,59.52735282,,,,,,,,,,,,2.1684,0,,,,,,,,,,,,,,,,,,,,,,,,0.521296296,-0.114814815,0,0,0,,,,,,,BABOON,C,z,y,./images/BABOON.png,,,,,,,,,,,,,,,,,,,,m,0,2.1684,,,,,,,,0,11,11,142,1
,,,,,,,,,,,,,,,,,607331e66524baf7ddfaae21,44,2022-02-12_13h48.41.588,lexical_decision_task_DD_L6,2021.2.3,Win32,59.52735282,,,,,,,,,,,,1.0072,1,,,,,,,,,,,,,,,,,,,,,,,,0.521296296,-0.114814815,0,0,0,,,,,,,STORM,LB,z,y,./images/STORMLB.png,,,,,,,,,,,,,,,,,,,,z,1,1.0072,,,,,,,,0,12,12,114,1
,,,,,,,,,,,,,,,,,607331e66524baf7ddfaae21,44,2022-02-12_13h48.41.588,lexical_decision_task_DD_L6,2021.2.3,Win32,59.52735282,,,,,,,,,,,,1.2734,1,,,,,,,,,,,,,,,,,,,,,,,,0.521296296,-0.114814815,0,0,0,,,,,,,SAUCE,LB,m,y,./images/SAUCELB.png,,,,,,,,,,,,,,,,,,,,m,1,1.2734,,,,,,,,0,13,13,51,1
,,,,,,,,,,,,,,,,,607331e66524baf7ddfaae21,44,2022-02-12_13h48.41.588,lexical_decision_task_DD_L6,2021.2.3,Win32,59.52735282,,,,,,,,,,,,0.6316,1,,,,,,,,,,,,,,,,,,,,,,,,0.521296296,-0.114814815,0,0,0,,,,,,,JUMPER,HB,m,y,./images/JUMPERHB.png,,,,,,,,,,,,,,,,,,,,m,1,0.6316,,,,,,,,0,14,14,74,1
,,,,,,,,,,,,,,,,,607331e66524baf7ddfaae21,44,2022-02-12_13h48.41.588,lexical_decision_task_DD_L6,2021.2.3,Win32,59.52735282,,,,,,,,,,,,0.6449,0,,,,,,,,,,,,,,,,,,,,,,,,0.521296296,-0.114814815,0,0,0,,,,,,,PACKET,HB,z,y,./images/PACKETHB.png,,,,,,,,,,,,,,,,,,,,m,0,0.6449,,,,,,,,0,15,15,140,1
,,,,,,,,,,,,,,,,,607331e66524baf7ddfaae21,44,2022-02-12_13h48.41.588,lexical_decision_task_DD_L6,2021.2.3,Win32,59.52735282,,,,,,,,,,,,0.5795,0,,,,,,,,,,,,,,,,,,,,,,,,0.521296296,-0.114814815,0,0,0,,,,,,,MOOSE,LB,z,y,./images/MOOSELB.png,,,,,,,,,,,,,,,,,,,,m,0,0.5795,,,,,,,,0,16,16,141,1
,,,,,,,,,,,,,,,,,607331e66524baf7ddfaae21,44,2022-02-12_13h48.41.588,lexical_decision_task_DD_L6,2021.2.3,Win32,59.52735282,,,,,,,,,,,,1.4213,1,,,,,,,,,,,,,,,,,,,,,,,,0.521296296,-0.114814815,0,0,0,,,,,,,WHISKY,HB,m,y,./images/WHISKYHB.png,,,,,,,,,,,,,,,,,,,,m,1,1.4213,,,,,,,,0,17,17,83,1
,,,,,,,,,,,,,,,,,607331e66524baf7ddfaae21,44,2022-02-12_13h48.41.588,lexical_decision_task_DD_L6,2021.2.3,Win32,59.52735282,,,,,,,,,,,,1.0096,1,,,,,,,,,,,,,,,,,,,,,,,,0.521296296,-0.114814815,0,0,0,,,,,,,BRIDE,C,m,y,./images/BRIDE.png,,,,,,,,,,,,,,,,,,,,m,1,1.0096,,,,,,,,0,18,18,64,1
,,,,,,,,,,,,,,,,,607331e66524baf7ddfaae21,44,2022-02-12_13h48.41.588,lexical_decision_task_DD_L6,2021.2.3,Win32,59.52735282,,,,,,,,,,,,1.1288,1,,,,,,,,,,,,,,,,,,,,,,,,0.521296296,-0.114814815,0,0,0,,,,,,,SCREW,LB,z,y,./images/SCREWLB.png,,,,,,,,,,,,,,,,,,,,z,1,1.1288,,,,,,,,0,19,19,108,1
,,,,,,,,,,,,,,,,,607331e66524baf7ddfaae21,44,2022-02-12_13h48.41.588,lexical_decision_task_DD_L6,2021.2.3,Win32,59.52735282,,,,,,,,,,,,1.9443,1,,,,,,,,,,,,,,,,,,,,,,,,0.521296296,-0.114814815,0,0,0,,,,,,,CRUST,C,z,y,./images/CRUST.png,,,,,,,,,,,,,,,,,,,,z,1,1.9443,,,,,,,,0,20,20,163,1
,,,,,,,,,,,,,,,,,607331e66524baf7ddfaae21,44,2022-02-12_13h48.41.588,lexical_decision_task_DD_L6,2021.2.3,Win32,59.52735282,,,,,,,,,,,,0.8135,1,,,,,,,,,,,,,,,,,,,,,,,,0.521296296,-0.114814815,0,0,0,,,,,,,MIDGET,C,m,y,./images/MIDGET.png,,,,,,,,,,,,,,,,,,,,m,1,0.8135,,,,,,,,0,21,21,76,1
,,,,,,,,,,,,,,,,,607331e66524baf7ddfaae21,44,2022-02-12_13h48.41.588,lexical_decision_task_DD_L6,2021.2.3,Win32,59.52735282,,,,,,,,,,,,0.6492,1,,,,,,,,,,,,,,,,,,,,,,,,0.521296296,-0.114814815,0,0,0,,,,,,,RULER,C,m,y,./images/RULER.png,,,,,,,,,,,,,,,,,,,,m,1,0.6492,,,,,,,,0,22,22,79,1
,,,,,,,,,,,,,,,,,607331e66524baf7ddfaae21,44,2022-02-12_13h48.41.588,lexical_decision_task_DD_L6,2021.2.3,Win32,59.52735282,,,,,,,,,,,,0.5594,0,,,,,,,,,,,,,,,,,,,,,,,,0.521296296,-0.114814815,0,0,0,,,,,,,FOLDER,LB,z,y,./images/FOLDERLB.png,,,,,,,,,,,,,,,,,,,,m,0,0.5594,,,,,,,,0,23,23,126,1
,,,,,,,,,,,,,,,,,607331e66524baf7ddfaae21,44,2022-02-12_13h48.41.588,lexical_decision_task_DD_L6,2021.2.3,Win32,59.52735282,,,,,,,,,,,,0.509,1,,,,,,,,,,,,,,,,,,,,,,,,0.521296296,-0.114814815,0,0,0,,,,,,,BUNNY,C,m,y,./images/BUNNY.png,,,,,,,,,,,,,,,,,,,,m,1,0.509,,,,,,,,0,24,24,13,1
,,,,,,,,,,,,,,,,,607331e66524baf7ddfaae21,44,2022-02-12_13h48.41.588,lexical_decision_task_DD_L6,2021.2.3,Win32,59.52735282,,,,,,,,,,,,1.2624,1,,,,,,,,,,,,,,,,,,,,,,,,0.521296296,-0.114814815,0,0,0,,,,,,,BONNET,HB,z,y,./images/BONNETHB.png,,,,,,,,,,,,,,,,,,,,z,1,1.2624,,,,,,,,0,25,25,95,1
,,,,,,,,,,,,,,,,,607331e66524baf7ddfaae21,44,2022-02-12_13h48.41.588,lexical_decision_task_DD_L6,2021.2.3,Win32,59.52735282,,,,,,,,,,,,0.6973,1,,,,,,,,,,,,,,,,,,,,,,,,0.521296296,-0.114814815,0,0,0,,,,,,,DIVER,LB,m,y,./images/DIVERLB.png,,,,,,,,,,,,,,,,,,,,m,1,0.6973,,,,,,,,0,26,26,9,1
,,,,,,,,,,,,,,,,,607331e66524baf7ddfaae21,44,2022-02-12_13h48.41.588,lexical_decision_task_DD_L6,2021.2.3,Win32,59.52735282,,,,,,,,,,,,0.6507,1,,,,,,,,,,,,,,,,,,,,,,,,0.521296296,-0.114814815,0,0,0,,,,,,,CRATER,LB,m,y,./images/CRATERLB.png,,,,,,,,,,,,,,,,,,,,m,1,0.6507,,,,,,,,0,27,27,3,1
,,,,,,,,,,,,,,,,,607331e66524baf7ddfaae21,44,2022-02-12_13h48.41.588,lexical_decision_task_DD_L6,2021.2.3,Win32,59.52735282,,,,,,,,,,,,0.6281,1,,,,,,,,,,,,,,,,,,,,,,,,0.521296296,-0.114814815,0,0,0,,,,,,,BOILER,LB,m,y,./images/BOILERLB.png,,,,,,,,,,,,,,,,,,,,m,1,0.6281,,,,,,,,0,28,28,36,1
,,,,,,,,,,,,,,,,,607331e66524baf7ddfaae21,44,2022-02-12_13h48.41.588,lexical_decision_task_DD_L6,2021.2.3,Win32,59.52735282,,,,,,,,,,,,0.461,0,,,,,,,,,,,,,,,,,,,,,,,,0.521296296,-0.114814815,0,0,0,,,,,,,SHORE,LB,z,y,./images/SHORELB.png,,,,,,,,,,,,,,,,,,,,m,0,0.461,,,,,,,,0,29,29,96,1
,,,,,,,,,,,,,,,,,607331e66524baf7ddfaae21,44,2022-02-12_13h48.41.588,lexical_decision_task_DD_L6,2021.2.3,Win32,59.52735282,,,,,,,,,,,,0.576,1,,,,,,,,,,,,,,,,,,,,,,,,0.521296296,-0.114814815,0,0,0,,,,,,,WAGON,C,m,y,./images/WAGON.png,,,,,,,,,,,,,,,,,,,,m,1,0.576,,,,,,,,0,30,30,7,1
,,,,,,,,,,,,,,,,,607331e66524baf7ddfaae21,44,2022-02-12_13h48.41.588,lexical_decision_task_DD_L6,2021.2.3,Win32,59.52735282,,,,,,,,,,,,0.9643,1,,,,,,,,,,,,,,,,,,,,,,,,0.521296296,-0.114814815,0,0,0,,,,,,,CANYON,C,z,y,./images/CANYON.png,,,,,,,,,,,,,,,,,,,,z,1,0.9643,,,,,,,,0,31,31,118,1
,,,,,,,,,,,,,,,,,607331e66524baf7ddfaae21,44,2022-02-12_13h48.41.588,lexical_decision_task_DD_L6,2021.2.3,Win32,59.52735282,,,,,,,,,,,,0.7316,1,,,,,,,,,,,,,,,,,,,,,,,,0.521296296,-0.114814815,0,0,0,,,,,,,HOCKEY,HB,m,y,./images/HOCKEYHB.png,,,,,,,,,,,,,,,,,,,,m,1,0.7316,,,,,,,,0,32,32,32,1
,,,,,,,,,,,,,,,,,607331e66524baf7ddfaae21,44,2022-02-12_13h48.41.588,lexical_decision_task_DD_L6,2021.2.3,Win32,59.52735282,,,,,,,,,,,,0.9489,1,,,,,,,,,,,,,,,,,,,,,,,,0.521296296,-0.114814815,0,0,0,,,,,,,BROOM,LB,m,y,./images/BROOMLB.png,,,,,,,,,,,,,,,,,,,,m,1,0.9489,,,,,,,,0,33,33,78,1
,,,,,,,,,,,,,,,,,607331e66524baf7ddfaae21,44,2022-02-12_13h48.41.588,lexical_decision_task_DD_L6,2021.2.3,Win32,59.52735282,,,,,,,,,,,,1.3067,0,,,,,,,,,,,,,,,,,,,,,,,,0.521296296,-0.114814815,0,0,0,,,,,,,CEMENT,HB,z,y,./images/CEMENTHB.png,,,,,,,,,,,,,,,,,,,,m,0,1.3067,,,,,,,,0,34,34,158,1
,,,,,,,,,,,,,,,,,607331e66524baf7ddfaae21,44,2022-02-12_13h48.41.588,lexical_decision_task_DD_L6,2021.2.3,Win32,59.52735282,,,,,,,,,,,,1.2983,0,,,,,,,,,,,,,,,,,,,,,,,,0.521296296,-0.114814815,0,0,0,,,,,,,MEDAL,HB,m,y,./images/MEDALHB.png,,,,,,,,,,,,,,,,,,,,z,0,1.2983,,,,,,,,0,35,35,11,1
,,,,,,,,,,,,,,,,,607331e66524baf7ddfaae21,44,2022-02-12_13h48.41.588,lexical_decision_task_DD_L6,2021.2.3,Win32,59.52735282,,,,,,,,,,,,0.878,1,,,,,,,,,,,,,,,,,,,,,,,,0.521296296,-0.114814815,0,0,0,,,,,,,SKIING,HB,z,y,./images/SKIINGHB.png,,,,,,,,,,,,,,,,,,,,z,1,0.878,,,,,,,,0,36,36,101,1
,,,,,,,,,,,,,,,,,607331e66524baf7ddfaae21,44,2022-02-12_13h48.41.588,lexical_decision_task_DD_L6,2021.2.3,Win32,59.52735282,,,,,,,,,,,,0.9151,0,,,,,,,,,,,,,,,,,,,,,,,,0.521296296,-0.114814815,0,0,0,,,,,,,WALRUS,HB,z,y,./images/WALRUSHB.png,,,,,,,,,,,,,,,,,,,,m,0,0.9151,,,,,,,,0,37,37,107,1
,,,,,,,,,,,,,,,,,607331e66524baf7ddfaae21,44,2022-02-12_13h48.41.588,lexical_decision_task_DD_L6,2021.2.3,Win32,59.52735282,,,,,,,,,,,,1.5259,1,,,,,,,,,,,,,,,,,,,,,,,,0.521296296,-0.114814815,0,0,0,,,,,,,JAGUAR,LB,z,y,./images/JAGUARLB.png,,,,,,,,,,,,,,,,,,,,z,1,1.5259,,,,,,,,0,38,38,102,1
,,,,,,,,,,,,,,,,,607331e66524baf7ddfaae21,44,2022-02-12_13h48.41.588,lexical_decision_task_DD_L6,2021.2.3,Win32,59.52735282,,,,,,,,,,,,0.6539,1,,,,,,,,,,,,,,,,,,,,,,,,0.521296296,-0.114814815,0,0,0,,,,,,,BRUSH,HB,m,y,./images/BRUSHHB.png,,,,,,,,,,,,,,,,,,,,m,1,0.6539,,,,,,,,0,39,39,59,1
,,,,,,,,,,,,,,,,,607331e66524baf7ddfaae21,44,2022-02-12_13h48.41.588,lexical_decision_task_DD_L6,2021.2.3,Win32,59.52735282,,,,,,,,,,,,1.3674,1,,,,,,,,,,,,,,,,,,,,,,,,0.521296296,-0.114814815,0,0,0,,,,,,,RAZOR,C,m,y,./images/RAZOR.png,,,,,,,,,,,,,,,,,,,,m,1,1.3674,,,,,,,,0,40,40,34,1
,,,,,,,,,,,,,,,,,607331e66524baf7ddfaae21,44,2022-02-12_13h48.41.588,lexical_decision_task_DD_L6,2021.2.3,Win32,59.52735282,,,,,,,,,,,,0.6322,1,,,,,,,,,,,,,,,,,,,,,,,,0.521296296,-0.114814815,0,0,0,space,,,,,,STOVE,HB,m,y,./images/STOVEHB.png,1.5348,,,,,,,,,,,,,,,,,,,m,1,0.6322,,,,,,,,0,41,41,2,1
,,,,,,,,,,,,,,,,,607331e66524baf7ddfaae21,44,2022-02-12_13h48.41.588,lexical_decision_task_DD_L6,2021.2.3,Win32,59.52735282,,,,,,,,,,,,0.9842,1,,,,,,,,,,,,,,,,,,,,,,,,0.521296296,-0.114814815,0,0,0,,,,,,,STAIN,LB,m,y,./images/STAINLB.png,,,,,,,,,,,,,,,,,,,,m,1,0.9842,,,,,,,,0,42,42,6,1
,,,,,,,,,,,,,,,,,607331e66524baf7ddfaae21,44,2022-02-12_13h48.41.588,lexical_decision_task_DD_L6,2021.2.3,Win32,59.52735282,,,,,,,,,,,,0.5744,1,,,,,,,,,,,,,,,,,,,,,,,,0.521296296,-0.114814815,0,0,0,,,,,,,PARCEL,LB,m,y,./images/PARCELLB.png,,,,,,,,,,,,,,,,,,,,m,1,0.5744,,,,,,,,0,43,43,18,1
,,,,,,,,,,,,,,,,,607331e66524baf7ddfaae21,44,2022-02-12_13h48.41.588,lexical_decision_task_DD_L6,2021.2.3,Win32,59.52735282,,,,,,,,,,,,0.6225,0,,,,,,,,,,,,,,,,,,,,,,,,0.521296296,-0.114814815,0,0,0,,,,,,,CRUMB,HB,z,y,./images/CRUMBHB.png,,,,,,,,,,,,,,,,,,,,m,0,0.6225,,,,,,,,0,44,44,113,1
,,,,,,,,,,,,,,,,,607331e66524baf7ddfaae21,44,2022-02-12_13h48.41.588,lexical_decision_task_DD_L6,2021.2.3,Win32,59.52735282,,,,,,,,,,,,0.6576,1,,,,,,,,,,,,,,,,,,,,,,,,0.521296296,-0.114814815,0,0,0,,,,,,,BUBBLE,HB,m,y,./images/BUBBLEHB.png,,,,,,,,,,,,,,,,,,,,m,1,0.6576,,,,,,,,0,45,45,71,1
,,,,,,,,,,,,,,,,,607331e66524baf7ddfaae21,44,2022-02-12_13h48.41.588,lexical_decision_task_DD_L6,2021.2.3,Win32,59.52735282,,,,,,,,,,,,1.0294,0,,,,,,,,,,,,,,,,,,,,,,,,0.521296296,-0.114814815,0,0,0,,,,,,,STEAK,C,m,y,./images/STEAK.png,,,,,,,,,,,,,,,,,,,,z,0,1.0294,,,,,,,,0,46,46,31,1
,,,,,,,,,,,,,,,,,607331e66524baf7ddfaae21,44,2022-02-12_13h48.41.588,lexical_decision_task_DD_L6,2021.2.3,Win32,59.52735282,,,,,,,,,,,,0.8794,0,,,,,,,,,,,,,,,,,,,,,,,,0.521296296,-0.114814815,0,0,0,,,,,,,POODLE,LB,z,y,./images/POODLELB.png,,,,,,,,,,,,,,,,,,,,m,0,0.8794,,,,,,,,0,47,47,165,1
,,,,,,,,,,,,,,,,,607331e66524baf7ddfaae21,44,2022-02-12_13h48.41.588,lexical_decision_task_DD_L6,2021.2.3,Win32,59.52735282,,,,,,,,,,,,0.8156,1,,,,,,,,,,,,,,,,,,,,,,,,0.521296296,-0.114814815,0,0,0,,,,,,,BERRY,HB,z,y,./images/BERRYHB.png,,,,,,,,,,,,,,,,,,,,z,1,0.8156,,,,,,,,0,48,48,131,1
,,,,,,,,,,,,,,,,,607331e66524baf7ddfaae21,44,2022-02-12_13h48.41.588,lexical_decision_task_DD_L6,2021.2.3,Win32,59.52735282,,,,,,,,,,,,2.1721,1,,,,,,,,,,,,,,,,,,,,,,,,0.521296296,-0.114814815,0,0,0,,,,,,,MIRROR,LB,z,y,./images/MIRRORLB.png,,,,,,,,,,,,,,,,,,,,z,1,2.1721,,,,,,,,0,49,49,147,1
,,,,,,,,,,,,,,,,,607331e66524baf7ddfaae21,44,2022-02-12_13h48.41.588,lexical_decision_task_DD_L6,2021.2.3,Win32,59.52735282,,,,,,,,,,,,1.3043,1,,,,,,,,,,,,,,,,,,,,,,,,0.521296296,-0.114814815,0,0,0,,,,,,,MUFFIN,C,z,y,./images/MUFFIN.png,,,,,,,,,,,,,,,,,,,,z,1,1.3043,,,,,,,,0,50,50,139,1
,,,,,,,,,,,,,,,,,607331e66524baf7ddfaae21,44,2022-02-12_13h48.41.588,lexical_decision_task_DD_L6,2021.2.3,Win32,59.52735282,,,,,,,,,,,,0.9998,1,,,,,,,,,,,,,,,,,,,,,,,,0.521296296,-0.114814815,0,0,0,,,,,,,LLAMA,HB,m,y,./images/LLAMAHB.png,,,,,,,,,,,,,,,,,,,,m,1,0.9998,,,,,,,,0,51,51,35,1
,,,,,,,,,,,,,,,,,607331e66524baf7ddfaae21,44,2022-02-12_13h48.41.588,lexical_decision_task_DD_L6,2021.2.3,Win32,59.52735282,,,,,,,,,,,,1.2616,1,,,,,,,,,,,,,,,,,,,,,,,,0.521296296,-0.114814815,0,0,0,,,,,,,SHELF,LB,z,y,./images/SHELFLB.png,,,,,,,,,,,,,,,,,,,,z,1,1.2616,,,,,,,,0,52,52,123,1
,,,,,,,,,,,,,,,,,607331e66524baf7ddfaae21,44,2022-02-12_13h48.41.588,lexical_decision_task_DD_L6,2021.2.3,Win32,59.52735282,,,,,,,,,,,,0.6534,1,,,,,,,,,,,,,,,,,,,,,,,,0.521296296,-0.114814815,0,0,0,,,,,,,CASINO,C,m,y,./images/CASINO.png,,,,,,,,,,,,,,,,,,,,m,1,0.6534,,,,,,,,0,53,53,28,1
,,,,,,,,,,,,,,,,,607331e66524baf7ddfaae21,44,2022-02-12_13h48.41.588,lexical_decision_task_DD_L6,2021.2.3,Win32,59.52735282,,,,,,,,,,,,0.6484,0,,,,,,,,,,,,,,,,,,,,,,,,0.521296296,-0.114814815,0,0,0,,,,,,,LADDER,HB,z,y,./images/LADDERHB.png,,,,,,,,,,,,,,,,,,,,m,0,0.6484,,,,,,,,0,54,54,122,1
,,,,,,,,,,,,,,,,,607331e66524baf7ddfaae21,44,2022-02-12_13h48.41.588,lexical_decision_task_DD_L6,2021.2.3,Win32,59.52735282,,,,,,,,,,,,0.8421,0,,,,,,,,,,,,,,,,,,,,,,,,0.521296296,-0.114814815,0,0,0,,,,,,,GRAIN,LB,z,y,./images/GRAINLB.png,,,,,,,,,,,,,,,,,,,,m,0,0.8421,,,,,,,,0,55,55,159,1
,,,,,,,,,,,,,,,,,607331e66524baf7ddfaae21,44,2022-02-12_13h48.41.588,lexical_decision_task_DD_L6,2021.2.3,Win32,59.52735282,,,,,,,,,,,,0.7766,1,,,,,,,,,,,,,,,,,,,,,,,,0.521296296,-0.114814815,0,0,0,,,,,,,HEATER,HB,m,y,./images/HEATERHB.png,,,,,,,,,,,,,,,,,,,,m,1,0.7766,,,,,,,,0,56,56,56,1
,,,,,,,,,,,,,,,,,607331e66524baf7ddfaae21,44,2022-02-12_13h48.41.588,lexical_decision_task_DD_L6,2021.2.3,Win32,59.52735282,,,,,,,,,,,,0.6131,1,,,,,,,,,,,,,,,,,,,,,,,,0.521296296,-0.114814815,0,0,0,,,,,,,POSTER,HB,m,y,./images/POSTERHB.png,,,,,,,,,,,,,,,,,,,,m,1,0.6131,,,,,,,,0,57,57,53,1
,,,,,,,,,,,,,,,,,607331e66524baf7ddfaae21,44,2022-02-12_13h48.41.588,lexical_decision_task_DD_L6,2021.2.3,Win32,59.52735282,,,,,,,,,,,,0.5798,1,,,,,,,,,,,,,,,,,,,,,,,,0.521296296,-0.114814815,0,0,0,,,,,,,BASKET,HB,m,y,./images/BASKETHB.png,,,,,,,,,,,,,,,,,,,,m,1,0.5798,,,,,,,,0,58,58,44,1
,,,,,,,,,,,,,,,,,607331e66524baf7ddfaae21,44,2022-02-12_13h48.41.588,lexical_decision_task_DD_L6,2021.2.3,Win32,59.52735282,,,,,,,,,,,,0.6102,1,,,,,,,,,,,,,,,,,,,,,,,,0.521296296,-0.114814815,0,0,0,,,,,,,CLOTH,HB,m,y,./images/CLOTHHB.png,,,,,,,,,,,,,,,,,,,,m,1,0.6102,,,,,,,,0,59,59,23,1
,,,,,,,,,,,,,,,,,607331e66524baf7ddfaae21,44,2022-02-12_13h48.41.588,lexical_decision_task_DD_L6,2021.2.3,Win32,59.52735282,,,,,,,,,,,,0.6156,0,,,,,,,,,,,,,,,,,,,,,,,,0.521296296,-0.114814815,0,0,0,,,,,,,CRADLE,HB,z,y,./images/CRADLEHB.png,,,,,,,,,,,,,,,,,,,,m,0,0.6156,,,,,,,,0,60,60,104,1
,,,,,,,,,,,,,,,,,607331e66524baf7ddfaae21,44,2022-02-12_13h48.41.588,lexical_decision_task_DD_L6,2021.2.3,Win32,59.52735282,,,,,,,,,,,,0.6252,1,,,,,,,,,,,,,,,,,,,,,,,,0.521296296,-0.114814815,0,0,0,,,,,,,FLASK,LB,m,y,./images/FLASKLB.png,,,,,,,,,,,,,,,,,,,,m,1,0.6252,,,,,,,,0,61,61,72,1
,,,,,,,,,,,,,,,,,607331e66524baf7ddfaae21,44,2022-02-12_13h48.41.588,lexical_decision_task_DD_L6,2021.2.3,Win32,59.52735282,,,,,,,,,,,,0.9295,1,,,,,,,,,,,,,,,,,,,,,,,,0.521296296,-0.114814815,0,0,0,,,,,,,TULIP,HB,z,y,./images/TULIPHB.png,,,,,,,,,,,,,,,,,,,,z,1,0.9295,,,,,,,,0,62,62,92,1
,,,,,,,,,,,,,,,,,607331e66524baf7ddfaae21,44,2022-02-12_13h48.41.588,lexical_decision_task_DD_L6,2021.2.3,Win32,59.52735282,,,,,,,,,,,,0.6983,1,,,,,,,,,,,,,,,,,,,,,,,,0.521296296,-0.114814815,0,0,0,,,,,,,BANANA,C,m,y,./images/BANANA.png,,,,,,,,,,,,,,,,,,,,m,1,0.6983,,,,,,,,0,63,63,70,1
,,,,,,,,,,,,,,,,,607331e66524baf7ddfaae21,44,2022-02-12_13h48.41.588,lexical_decision_task_DD_L6,2021.2.3,Win32,59.52735282,,,,,,,,,,,,0.7672,1,,,,,,,,,,,,,,,,,,,,,,,,0.521296296,-0.114814815,0,0,0,,,,,,,HAMMER,LB,m,y,./images/HAMMERLB.png,,,,,,,,,,,,,,,,,,,,m,1,0.7672,,,,,,,,0,64,64,75,1
,,,,,,,,,,,,,,,,,607331e66524baf7ddfaae21,44,2022-02-12_13h48.41.588,lexical_decision_task_DD_L6,2021.2.3,Win32,59.52735282,,,,,,,,,,,,1.1569,0,,,,,,,,,,,,,,,,,,,,,,,,0.521296296,-0.114814815,0,0,0,,,,,,,MAGGOT,LB,z,y,./images/MAGGOTLB.png,,,,,,,,,,,,,,,,,,,,m,0,1.1569,,,,,,,,0,65,65,117,1
,,,,,,,,,,,,,,,,,607331e66524baf7ddfaae21,44,2022-02-12_13h48.41.588,lexical_decision_task_DD_L6,2021.2.3,Win32,59.52735282,,,,,,,,,,,,1.2001,1,,,,,,,,,,,,,,,,,,,,,,,,0.521296296,-0.114814815,0,0,0,,,,,,,TIGER,C,m,y,./images/TIGER.png,,,,,,,,,,,,,,,,,,,,m,1,1.2001,,,,,,,,0,66,66,37,1
,,,,,,,,,,,,,,,,,607331e66524baf7ddfaae21,44,2022-02-12_13h48.41.588,lexical_decision_task_DD_L6,2021.2.3,Win32,59.52735282,,,,,,,,,,,,0.5679,1,,,,,,,,,,,,,,,,,,,,,,,,0.521296296,-0.114814815,0,0,0,,,,,,,POKER,C,m,y,./images/POKER.png,,,,,,,,,,,,,,,,,,,,m,1,0.5679,,,,,,,,0,67,67,67,1
,,,,,,,,,,,,,,,,,607331e66524baf7ddfaae21,44,2022-02-12_13h48.41.588,lexical_decision_task_DD_L6,2021.2.3,Win32,59.52735282,,,,,,,,,,,,0.9324,0,,,,,,,,,,,,,,,,,,,,,,,,0.521296296,-0.114814815,0,0,0,,,,,,,MELON,C,z,y,./images/MELON.png,,,,,,,,,,,,,,,,,,,,m,0,0.9324,,,,,,,,0,68,68,106,1
,,,,,,,,,,,,,,,,,607331e66524baf7ddfaae21,44,2022-02-12_13h48.41.588,lexical_decision_task_DD_L6,2021.2.3,Win32,59.52735282,,,,,,,,,,,,0.5717,0,,,,,,,,,,,,,,,,,,,,,,,,0.521296296,-0.114814815,0,0,0,,,,,,,BANNER,C,z,y,./images/BANNER.png,,,,,,,,,,,,,,,,,,,,m,0,0.5717,,,,,,,,0,69,69,136,1
,,,,,,,,,,,,,,,,,607331e66524baf7ddfaae21,44,2022-02-12_13h48.41.588,lexical_decision_task_DD_L6,2021.2.3,Win32,59.52735282,,,,,,,,,,,,0.4182,0,,,,,,,,,,,,,,,,,,,,,,,,0.521296296,-0.114814815,0,0,0,,,,,,,FARMER,HB,z,y,./images/FARMERHB.png,,,,,,,,,,,,,,,,,,,,m,0,0.4182,,,,,,,,0,70,70,149,1
,,,,,,,,,,,,,,,,,607331e66524baf7ddfaae21,44,2022-02-12_13h48.41.588,lexical_decision_task_DD_L6,2021.2.3,Win32,59.52735282,,,,,,,,,,,,0.8256,0,,,,,,,,,,,,,,,,,,,,,,,,0.521296296,-0.114814815,0,0,0,,,,,,,PASTA,HB,z,y,./images/PASTAHB.png,,,,,,,,,,,,,,,,,,,,m,0,0.8256,,,,,,,,0,71,71,89,1
,,,,,,,,,,,,,,,,,607331e66524baf7ddfaae21,44,2022-02-12_13h48.41.588,lexical_decision_task_DD_L6,2021.2.3,Win32,59.52735282,,,,,,,,,,,,1.8632,1,,,,,,,,,,,,,,,,,,,,,,,,0.521296296,-0.114814815,0,0,0,,,,,,,KIDNEY,LB,z,y,./images/KIDNEYLB.png,,,,,,,,,,,,,,,,,,,,z,1,1.8632,,,,,,,,0,72,72,105,1
,,,,,,,,,,,,,,,,,607331e66524baf7ddfaae21,44,2022-02-12_13h48.41.588,lexical_decision_task_DD_L6,2021.2.3,Win32,59.52735282,,,,,,,,,,,,1.229,1,,,,,,,,,,,,,,,,,,,,,,,,0.521296296,-0.114814815,0,0,0,,,,,,,PLANK,C,z,y,./images/PLANK.png,,,,,,,,,,,,,,,,,,,,z,1,1.229,,,,,,,,0,73,73,85,1
,,,,,,,,,,,,,,,,,607331e66524baf7ddfaae21,44,2022-02-12_13h48.41.588,lexical_decision_task_DD_L6,2021.2.3,Win32,59.52735282,,,,,,,,,,,,0.834,1,,,,,,,,,,,,,,,,,,,,,,,,0.521296296,-0.114814815,0,0,0,,,,,,,SUNSET,C,z,y,./images/SUNSET.png,,,,,,,,,,,,,,,,,,,,z,1,0.834,,,,,,,,0,74,74,166,1
,,,,,,,,,,,,,,,,,607331e66524baf7ddfaae21,44,2022-02-12_13h48.41.588,lexical_decision_task_DD_L6,2021.2.3,Win32,59.52735282,,,,,,,,,,,,0.6883,0,,,,,,,,,,,,,,,,,,,,,,,,0.521296296,-0.114814815,0,0,0,,,,,,,SNACK,C,z,y,./images/SNACK.png,,,,,,,,,,,,,,,,,,,,m,0,0.6883,,,,,,,,0,75,75,157,1
,,,,,,,,,,,,,,,,,607331e66524baf7ddfaae21,44,2022-02-12_13h48.41.588,lexical_decision_task_DD_L6,2021.2.3,Win32,59.52735282,,,,,,,,,,,,0.5435,0,,,,,,,,,,,,,,,,,,,,,,,,0.521296296,-0.114814815,0,0,0,,,,,,,THROAT,LB,z,y,./images/THROATLB.png,,,,,,,,,,,,,,,,,,,,m,0,0.5435,,,,,,,,0,76,76,120,1
,,,,,,,,,,,,,,,,,607331e66524baf7ddfaae21,44,2022-02-12_13h48.41.588,lexical_decision_task_DD_L6,2021.2.3,Win32,59.52735282,,,,,,,,,,,,0.6445,1,,,,,,,,,,,,,,,,,,,,,,,,0.521296296,-0.114814815,0,0,0,,,,,,,ENGINE,HB,m,y,./images/ENGINEHB.png,,,,,,,,,,,,,,,,,,,,m,1,0.6445,,,,,,,,0,77,77,38,1
,,,,,,,,,,,,,,,,,607331e66524baf7ddfaae21,44,2022-02-12_13h48.41.588,lexical_decision_task_DD_L6,2021.2.3,Win32,59.52735282,,,,,,,,,,,,0.6846,1,,,,,,,,,,,,,,,,,,,,,,,,0.521296296,-0.114814815,0,0,0,,,,,,,ATTIC,LB,z,y,./images/ATTICLB.png,,,,,,,,,,,,,,,,,,,,z,1,0.6846,,,,,,,,0,78,78,111,1
,,,,,,,,,,,,,,,,,607331e66524baf7ddfaae21,44,2022-02-12_13h48.41.588,lexical_decision_task_DD_L6,2021.2.3,Win32,59.52735282,,,,,,,,,,,,1.2776,1,,,,,,,,,,,,,,,,,,,,,,,,0.521296296,-0.114814815,0,0,0,,,,,,,BOXER,C,m,y,./images/BOXER.png,,,,,,,,,,,,,,,,,,,,m,1,1.2776,,,,,,,,0,79,79,4,1
,,,,,,,,,,,,,,,,,607331e66524baf7ddfaae21,44,2022-02-12_13h48.41.588,lexical_decision_task_DD_L6,2021.2.3,Win32,59.52735282,,,,,,,,,,,,0.652,0,,,,,,,,,,,,,,,,,,,,,,,,0.521296296,-0.114814815,0,0,0,,,,,,,MUSCLE,C,z,y,./images/MUSCLE.png,,,,,,,,,,,,,,,,,,,,m,0,0.652,,,,,,,,0,80,80,88,1
,,,,,,,,,,,,,,,,,607331e66524baf7ddfaae21,44,2022-02-12_13h48.41.588,lexical_decision_task_DD_L6,2021.2.3,Win32,59.52735282,,,,,,,,,,,,1.0222,1,,,,,,,,,,,,,,,,,,,,,,,,0.521296296,-0.114814815,0,0,0,,,,,,,TOMATO,LB,z,y,./images/TOMATOLB.png,,,,,,,,,,,,,,,,,,,,z,1,1.0222,,,,,,,,0,81,81,84,1
,,,,,,,,,,,,,,,,,607331e66524baf7ddfaae21,44,2022-02-12_13h48.41.588,lexical_decision_task_DD_L6,2021.2.3,Win32,59.52735282,,,,,,,,,,,,0.7329,1,,,,,,,,,,,,,,,,,,,,,,,,0.521296296,-0.114814815,0,0,0,,,,,,,MAMMAL,HB,m,y,./images/MAMMALHB.png,,,,,,,,,,,,,,,,,,,,m,1,0.7329,,,,,,,,0,82,82,62,1
,,,,,,,,,,,,,,,,,607331e66524baf7ddfaae21,44,2022-02-12_13h48.41.588,lexical_decision_task_DD_L6,2021.2.3,Win32,59.52735282,,,,,,,,,,,,0.668,1,,,,,,,,,,,,,,,,,,,,,,,,0.521296296,-0.114814815,0,0,0,space,,,,,,LAGOON,HB,m,y,./images/LAGOONHB.png,7.6131,,,,,,,,,,,,,,,,,,,m,1,0.668,,,,,,,,0,83,83,47,1
,,,,,,,,,,,,,,,,,607331e66524baf7ddfaae21,44,2022-02-12_13h48.41.588,lexical_decision_task_DD_L6,2021.2.3,Win32,59.52735282,,,,,,,,,,,,0.8287,1,,,,,,,,,,,,,,,,,,,,,,,,0.521296296,-0.114814815,0,0,0,,,,,,,GARDEN,C,m,y,./images/GARDEN.png,,,,,,,,,,,,,,,,,,,,m,1,0.8287,,,,,,,,0,84,84,10,1
,,,,,,,,,,,,,,,,,607331e66524baf7ddfaae21,44,2022-02-12_13h48.41.588,lexical_decision_task_DD_L6,2021.2.3,Win32,59.52735282,,,,,,,,,,,,0.5939,1,,,,,,,,,,,,,,,,,,,,,,,,0.521296296,-0.114814815,0,0,0,,,,,,,STOOL,C,m,y,./images/STOOL.png,,,,,,,,,,,,,,,,,,,,m,1,0.5939,,,,,,,,0,85,85,43,1
,,,,,,,,,,,,,,,,,607331e66524baf7ddfaae21,44,2022-02-12_13h48.41.588,lexical_decision_task_DD_L6,2021.2.3,Win32,59.52735282,,,,,,,,,,,,0.5922,1,,,,,,,,,,,,,,,,,,,,,,,,0.521296296,-0.114814815,0,0,0,,,,,,,CLOWN,C,m,y,./images/CLOWN.png,,,,,,,,,,,,,,,,,,,,m,1,0.5922,,,,,,,,0,86,86,22,1
,,,,,,,,,,,,,,,,,607331e66524baf7ddfaae21,44,2022-02-12_13h48.41.588,lexical_decision_task_DD_L6,2021.2.3,Win32,59.52735282,,,,,,,,,,,,0.5515,1,,,,,,,,,,,,,,,,,,,,,,,,0.521296296,-0.114814815,0,0,0,,,,,,,BUTTER,LB,m,y,./images/BUTTERLB.png,,,,,,,,,,,,,,,,,,,,m,1,0.5515,,,,,,,,0,87,87,27,1
,,,,,,,,,,,,,,,,,607331e66524baf7ddfaae21,44,2022-02-12_13h48.41.588,lexical_decision_task_DD_L6,2021.2.3,Win32,59.52735282,,,,,,,,,,,,0.6433,1,,,,,,,,,,,,,,,,,,,,,,,,0.521296296,-0.114814815,0,0,0,,,,,,,TWINS,LB,z,y,./images/TWINSLB.png,,,,,,,,,,,,,,,,,,,,z,1,0.6433,,,,,,,,0,88,88,144,1
,,,,,,,,,,,,,,,,,607331e66524baf7ddfaae21,44,2022-02-12_13h48.41.588,lexical_decision_task_DD_L6,2021.2.3,Win32,59.52735282,,,,,,,,,,,,0.8754,1,,,,,,,,,,,,,,,,,,,,,,,,0.521296296,-0.114814815,0,0,0,,,,,,,CHAIN,LB,m,y,./images/CHAINLB.png,,,,,,,,,,,,,,,,,,,,m,1,0.8754,,,,,,,,0,89,89,42,1
,,,,,,,,,,,,,,,,,607331e66524baf7ddfaae21,44,2022-02-12_13h48.41.588,lexical_decision_task_DD_L6,2021.2.3,Win32,59.52735282,,,,,,,,,,,,0.5947,1,,,,,,,,,,,,,,,,,,,,,,,,0.521296296,-0.114814815,0,0,0,,,,,,,CURRY,LB,m,y,./images/CURRYLB.png,,,,,,,,,,,,,,,,,,,,m,1,0.5947,,,,,,,,0,90,90,60,1
,,,,,,,,,,,,,,,,,607331e66524baf7ddfaae21,44,2022-02-12_13h48.41.588,lexical_decision_task_DD_L6,2021.2.3,Win32,59.52735282,,,,,,,,,,,,0.8287,1,,,,,,,,,,,,,,,,,,,,,,,,0.521296296,-0.114814815,0,0,0,,,,,,,URINE,C,z,y,./images/URINE.png,,,,,,,,,,,,,,,,,,,,z,1,0.8287,,,,,,,,0,91,91,154,1
,,,,,,,,,,,,,,,,,607331e66524baf7ddfaae21,44,2022-02-12_13h48.41.588,lexical_decision_task_DD_L6,2021.2.3,Win32,59.52735282,,,,,,,,,,,,0.5171,1,,,,,,,,,,,,,,,,,,,,,,,,0.521296296,-0.114814815,0,0,0,,,,,,,CHALK,C,m,y,./images/CHALK.png,,,,,,,,,,,,,,,,,,,,m,1,0.5171,,,,,,,,0,92,92,25,1
,,,,,,,,,,,,,,,,,607331e66524baf7ddfaae21,44,2022-02-12_13h48.41.588,lexical_decision_task_DD_L6,2021.2.3,Win32,59.52735282,,,,,,,,,,,,0.5182,1,,,,,,,,,,,,,,,,,,,,,,,,0.521296296,-0.114814815,0,0,0,,,,,,,ALLEY,C,m,y,./images/ALLEY.png,,,,,,,,,,,,,,,,,,,,m,1,0.5182,,,,,,,,0,93,93,55,1
,,,,,,,,,,,,,,,,,607331e66524baf7ddfaae21,44,2022-02-12_13h48.41.588,lexical_decision_task_DD_L6,2021.2.3,Win32,59.52735282,,,,,,,,,,,,0.6351,0,,,,,,,,,,,,,,,,,,,,,,,,0.521296296,-0.114814815,0,0,0,,,,,,,FALCON,C,z,y,./images/FALCON.png,,,,,,,,,,,,,,,,,,,,m,0,0.6351,,,,,,,,0,94,94,112,1
,,,,,,,,,,,,,,,,,607331e66524baf7ddfaae21,44,2022-02-12_13h48.41.588,lexical_decision_task_DD_L6,2021.2.3,Win32,59.52735282,,,,,,,,,,,,0.6898,1,,,,,,,,,,,,,,,,,,,,,,,,0.521296296,-0.114814815,0,0,0,,,,,,,SPORT,LB,z,y,./images/SPORTLB.png,,,,,,,,,,,,,,,,,,,,z,1,0.6898,,,,,,,,0,95,95,132,1
,,,,,,,,,,,,,,,,,607331e66524baf7ddfaae21,44,2022-02-12_13h48.41.588,lexical_decision_task_DD_L6,2021.2.3,Win32,59.52735282,,,,,,,,,,,,1.0259,0,,,,,,,,,,,,,,,,,,,,,,,,0.521296296,-0.114814815,0,0,0,,,,,,,GRAPE,C,m,y,./images/GRAPE.png,,,,,,,,,,,,,,,,,,,,z,0,1.0259,,,,,,,,0,96,96,16,1
,,,,,,,,,,,,,,,,,607331e66524baf7ddfaae21,44,2022-02-12_13h48.41.588,lexical_decision_task_DD_L6,2021.2.3,Win32,59.52735282,,,,,,,,,,,,0.5829,1,,,,,,,,,,,,,,,,,,,,,,,,0.521296296,-0.114814815,0,0,0,,,,,,,WALNUT,LB,m,y,./images/WALNUTLB.png,,,,,,,,,,,,,,,,,,,,m,1,0.5829,,,,,,,,0,97,97,0,1
,,,,,,,,,,,,,,,,,607331e66524baf7ddfaae21,44,2022-02-12_13h48.41.588,lexical_decision_task_DD_L6,2021.2.3,Win32,59.52735282,,,,,,,,,,,,0.4949,1,,,,,,,,,,,,,,,,,,,,,,,,0.521296296,-0.114814815,0,0,0,,,,,,,CLIFF,HB,m,y,./images/CLIFFHB.png,,,,,,,,,,,,,,,,,,,,m,1,0.4949,,,,,,,,0,98,98,8,1
,,,,,,,,,,,,,,,,,607331e66524baf7ddfaae21,44,2022-02-12_13h48.41.588,lexical_decision_task_DD_L6,2021.2.3,Win32,59.52735282,,,,,,,,,,,,0.6763,1,,,,,,,,,,,,,,,,,,,,,,,,0.521296296,-0.114814815,0,0,0,,,,,,,SNAKE,C,m,y,./images/SNAKE.png,,,,,,,,,,,,,,,,,,,,m,1,0.6763,,,,,,,,0,99,99,40,1
,,,,,,,,,,,,,,,,,607331e66524baf7ddfaae21,44,2022-02-12_13h48.41.588,lexical_decision_task_DD_L6,2021.2.3,Win32,59.52735282,,,,,,,,,,,,0.5399,1,,,,,,,,,,,,,,,,,,,,,,,,0.521296296,-0.114814815,0,0,0,,,,,,,CANDY,LB,m,y,./images/CANDYLB.png,,,,,,,,,,,,,,,,,,,,m,1,0.5399,,,,,,,,0,100,100,39,1
,,,,,,,,,,,,,,,,,607331e66524baf7ddfaae21,44,2022-02-12_13h48.41.588,lexical_decision_task_DD_L6,2021.2.3,Win32,59.52735282,,,,,,,,,,,,0.9046,1,,,,,,,,,,,,,,,,,,,,,,,,0.521296296,-0.114814815,0,0,0,,,,,,,PARADE,HB,m,y,./images/PARADEHB.png,,,,,,,,,,,,,,,,,,,,m,1,0.9046,,,,,,,,0,101,101,17,1
,,,,,,,,,,,,,,,,,607331e66524baf7ddfaae21,44,2022-02-12_13h48.41.588,lexical_decision_task_DD_L6,2021.2.3,Win32,59.52735282,,,,,,,,,,,,0.5333,1,,,,,,,,,,,,,,,,,,,,,,,,0.521296296,-0.114814815,0,0,0,,,,,,,COLLAR,LB,m,y,./images/COLLARLB.png,,,,,,,,,,,,,,,,,,,,m,1,0.5333,,,,,,,,0,102,102,15,1
,,,,,,,,,,,,,,,,,607331e66524baf7ddfaae21,44,2022-02-12_13h48.41.588,lexical_decision_task_DD_L6,2021.2.3,Win32,59.52735282,,,,,,,,,,,,0.5604,1,,,,,,,,,,,,,,,,,,,,,,,,0.521296296,-0.114814815,0,0,0,,,,,,,DRILL,LB,m,y,./images/DRILLLB.png,,,,,,,,,,,,,,,,,,,,m,1,0.5604,,,,,,,,0,103,103,81,1
,,,,,,,,,,,,,,,,,607331e66524baf7ddfaae21,44,2022-02-12_13h48.41.588,lexical_decision_task_DD_L6,2021.2.3,Win32,59.52735282,,,,,,,,,,,,0.7873,1,,,,,,,,,,,,,,,,,,,,,,,,0.521296296,-0.114814815,0,0,0,,,,,,,PICKLE,HB,z,y,./images/PICKLEHB.png,,,,,,,,,,,,,,,,,,,,z,1,0.7873,,,,,,,,0,104,104,98,1
,,,,,,,,,,,,,,,,,607331e66524baf7ddfaae21,44,2022-02-12_13h48.41.588,lexical_decision_task_DD_L6,2021.2.3,Win32,59.52735282,,,,,,,,,,,,0.6764,1,,,,,,,,,,,,,,,,,,,,,,,,0.521296296,-0.114814815,0,0,0,,,,,,,TORCH,HB,z,y,./images/TORCHHB.png,,,,,,,,,,,,,,,,,,,,z,1,0.6764,,,,,,,,0,105,105,152,1
,,,,,,,,,,,,,,,,,607331e66524baf7ddfaae21,44,2022-02-12_13h48.41.588,lexical_decision_task_DD_L6,2021.2.3,Win32,59.52735282,,,,,,,,,,,,0.736,1,,,,,,,,,,,,,,,,,,,,,,,,0.521296296,-0.114814815,0,0,0,,,,,,,PEBBLE,C,m,y,./images/PEBBLE.png,,,,,,,,,,,,,,,,,,,,m,1,0.736,,,,,,,,0,106,106,82,1
,,,,,,,,,,,,,,,,,607331e66524baf7ddfaae21,44,2022-02-12_13h48.41.588,lexical_decision_task_DD_L6,2021.2.3,Win32,59.52735282,,,,,,,,,,,,0.4454,0,,,,,,,,,,,,,,,,,,,,,,,,0.521296296,-0.114814815,0,0,0,,,,,,,BEARD,HB,z,y,./images/BEARDHB.png,,,,,,,,,,,,,,,,,,,,m,0,0.4454,,,,,,,,0,107,107,86,1
,,,,,,,,,,,,,,,,,607331e66524baf7ddfaae21,44,2022-02-12_13h48.41.588,lexical_decision_task_DD_L6,2021.2.3,Win32,59.52735282,,,,,,,,,,,,0.6885,1,,,,,,,,,,,,,,,,,,,,,,,,0.521296296,-0.114814815,0,0,0,,,,,,,PIMPLE,HB,z,y,./images/PIMPLEHB.png,,,,,,,,,,,,,,,,,,,,z,1,0.6885,,,,,,,,0,108,108,155,1
,,,,,,,,,,,,,,,,,607331e66524baf7ddfaae21,44,2022-02-12_13h48.41.588,lexical_decision_task_DD_L6,2021.2.3,Win32,59.52735282,,,,,,,,,,,,0.6852,1,,,,,,,,,,,,,,,,,,,,,,,,0.521296296,-0.114814815,0,0,0,,,,,,,SHIELD,LB,m,y,./images/SHIELDLB.png,,,,,,,,,,,,,,,,,,,,m,1,0.6852,,,,,,,,0,109,109,48,1
,,,,,,,,,,,,,,,,,607331e66524baf7ddfaae21,44,2022-02-12_13h48.41.588,lexical_decision_task_DD_L6,2021.2.3,Win32,59.52735282,,,,,,,,,,,,0.5462,1,,,,,,,,,,,,,,,,,,,,,,,,0.521296296,-0.114814815,0,0,0,,,,,,,MUMMY,C,m,y,./images/MUMMY.png,,,,,,,,,,,,,,,,,,,,m,1,0.5462,,,,,,,,0,110,110,46,1
,,,,,,,,,,,,,,,,,607331e66524baf7ddfaae21,44,2022-02-12_13h48.41.588,lexical_decision_task_DD_L6,2021.2.3,Win32,59.52735282,,,,,,,,,,,,0.9177,0,,,,,,,,,,,,,,,,,,,,,,,,0.521296296,-0.114814815,0,0,0,,,,,,,PLANET,HB,m,y,./images/PLANETHB.png,,,,,,,,,,,,,,,,,,,,z,0,0.9177,,,,,,,,0,111,111,80,1
,,,,,,,,,,,,,,,,,607331e66524baf7ddfaae21,44,2022-02-12_13h48.41.588,lexical_decision_task_DD_L6,2021.2.3,Win32,59.52735282,,,,,,,,,,,,0.4931,0,,,,,,,,,,,,,,,,,,,,,,,,0.521296296,-0.114814815,0,0,0,,,,,,,SAILOR,C,z,y,./images/SAILOR.png,,,,,,,,,,,,,,,,,,,,m,0,0.4931,,,,,,,,0,112,112,151,1
,,,,,,,,,,,,,,,,,607331e66524baf7ddfaae21,44,2022-02-12_13h48.41.588,lexical_decision_task_DD_L6,2021.2.3,Win32,59.52735282,,,,,,,,,,,,1.5688,1,,,,,,,,,,,,,,,,,,,,,,,,0.521296296,-0.114814815,0,0,0,,,,,,,BELLY,C,z,y,./images/BELLY.png,,,,,,,,,,,,,,,,,,,,z,1,1.5688,,,,,,,,0,113,113,94,1
,,,,,,,,,,,,,,,,,607331e66524baf7ddfaae21,44,2022-02-12_13h48.41.588,lexical_decision_task_DD_L6,2021.2.3,Win32,59.52735282,,,,,,,,,,,,0.6895,1,,,,,,,,,,,,,,,,,,,,,,,,0.521296296,-0.114814815,0,0,0,,,,,,,MALLET,HB,z,y,./images/MALLETHB.png,,,,,,,,,,,,,,,,,,,,z,1,0.6895,,,,,,,,0,114,114,134,1
,,,,,,,,,,,,,,,,,607331e66524baf7ddfaae21,44,2022-02-12_13h48.41.588,lexical_decision_task_DD_L6,2021.2.3,Win32,59.52735282,,,,,,,,,,,,0.7042,1,,,,,,,,,,,,,,,,,,,,,,,,0.521296296,-0.114814815,0,0,0,,,,,,,QUILL,C,z,y,./images/QUILL.png,,,,,,,,,,,,,,,,,,,,z,1,0.7042,,,,,,,,0,115,115,115,1
,,,,,,,,,,,,,,,,,607331e66524baf7ddfaae21,44,2022-02-12_13h48.41.588,lexical_decision_task_DD_L6,2021.2.3,Win32,59.52735282,,,,,,,,,,,,1.4221,1,,,,,,,,,,,,,,,,,,,,,,,,0.521296296,-0.114814815,0,0,0,,,,,,,LITTER,LB,z,y,./images/LITTERLB.png,,,,,,,,,,,,,,,,,,,,z,1,1.4221,,,,,,,,0,116,116,162,1
,,,,,,,,,,,,,,,,,607331e66524baf7ddfaae21,44,2022-02-12_13h48.41.588,lexical_decision_task_DD_L6,2021.2.3,Win32,59.52735282,,,,,,,,,,,,0.6197,0,,,,,,,,,,,,,,,,,,,,,,,,0.521296296,-0.114814815,0,0,0,,,,,,,SWEAT,LB,z,y,./images/SWEATLB.png,,,,,,,,,,,,,,,,,,,,m,0,0.6197,,,,,,,,0,117,117,150,1
,,,,,,,,,,,,,,,,,607331e66524baf7ddfaae21,44,2022-02-12_13h48.41.588,lexical_decision_task_DD_L6,2021.2.3,Win32,59.52735282,,,,,,,,,,,,0.5468,1,,,,,,,,,,,,,,,,,,,,,,,,0.521296296,-0.114814815,0,0,0,,,,,,,SLOPE,LB,m,y,./images/SLOPELB.png,,,,,,,,,,,,,,,,,,,,m,1,0.5468,,,,,,,,0,118,118,30,1
,,,,,,,,,,,,,,,,,607331e66524baf7ddfaae21,44,2022-02-12_13h48.41.588,lexical_decision_task_DD_L6,2021.2.3,Win32,59.52735282,,,,,,,,,,,,0.786,1,,,,,,,,,,,,,,,,,,,,,,,,0.521296296,-0.114814815,0,0,0,,,,,,,RHINO,LB,z,y,./images/RHINOLB.png,,,,,,,,,,,,,,,,,,,,z,1,0.786,,,,,,,,0,119,119,93,1
,,,,,,,,,,,,,,,,,607331e66524baf7ddfaae21,44,2022-02-12_13h48.41.588,lexical_decision_task_DD_L6,2021.2.3,Win32,59.52735282,,,,,,,,,,,,1.0534,1,,,,,,,,,,,,,,,,,,,,,,,,0.521296296,-0.114814815,0,0,0,,,,,,,CANOE,C,m,y,./images/CANOE.png,,,,,,,,,,,,,,,,,,,,m,1,1.0534,,,,,,,,0,120,120,58,1
,,,,,,,,,,,,,,,,,607331e66524baf7ddfaae21,44,2022-02-12_13h48.41.588,lexical_decision_task_DD_L6,2021.2.3,Win32,59.52735282,,,,,,,,,,,,0.6096,1,,,,,,,,,,,,,,,,,,,,,,,,0.521296296,-0.114814815,0,0,0,,,,,,,BLOKE,LB,m,y,./images/BLOKELB.png,,,,,,,,,,,,,,,,,,,,m,1,0.6096,,,,,,,,0,121,121,12,1
,,,,,,,,,,,,,,,,,607331e66524baf7ddfaae21,44,2022-02-12_13h48.41.588,lexical_decision_task_DD_L6,2021.2.3,Win32,59.52735282,,,,,,,,,,,,0.8317,1,,,,,,,,,,,,,,,,,,,,,,,,0.521296296,-0.114814815,0,0,0,,,,,,,COUCH,HB,z,y,./images/COUCHHB.png,,,,,,,,,,,,,,,,,,,,z,1,0.8317,,,,,,,,0,122,122,161,1
,,,,,,,,,,,,,,,,,607331e66524baf7ddfaae21,44,2022-02-12_13h48.41.588,lexical_decision_task_DD_L6,2021.2.3,Win32,59.52735282,,,,,,,,,,,,0.6435,0,,,,,,,,,,,,,,,,,,,,,,,,0.521296296,-0.114814815,0,0,0,,,,,,,BARREL,HB,z,y,./images/BARRELHB.png,,,,,,,,,,,,,,,,,,,,m,0,0.6435,,,,,,,,0,123,123,116,1
,,,,,,,,,,,,,,,,,607331e66524baf7ddfaae21,44,2022-02-12_13h48.41.588,lexical_decision_task_DD_L6,2021.2.3,Win32,59.52735282,,,,,,,,,,,,0.7075,0,,,,,,,,,,,,,,,,,,,,,,,,0.521296296,-0.114814815,0,0,0,,,,,,,JELLY,C,z,y,./images/JELLY.png,,,,,,,,,,,,,,,,,,,,m,0,0.7075,,,,,,,,0,124,124,148,1
,,,,,,,,,,,,,,,,,607331e66524baf7ddfaae21,44,2022-02-12_13h48.41.588,lexical_decision_task_DD_L6,2021.2.3,Win32,59.52735282,,,,,,,,,,,,0.5324,0,,,,,,,,,,,,,,,,,,,,,,,,0.521296296,-0.114814815,0,0,0,space,,,,,,JUNGLE,HB,z,y,./images/JUNGLEHB.png,1.5139,,,,,,,,,,,,,,,,,,,m,0,0.5324,,,,,,,,0,125,125,167,1
,,,,,,,,,,,,,,,,,607331e66524baf7ddfaae21,44,2022-02-12_13h48.41.588,lexical_decision_task_DD_L6,2021.2.3,Win32,59.52735282,,,,,,,,,,,,0.7672,1,,,,,,,,,,,,,,,,,,,,,,,,0.521296296,-0.114814815,0,0,0,,,,,,,FINGER,LB,z,y,./images/FINGERLB.png,,,,,,,,,,,,,,,,,,,,z,1,0.7672,,,,,,,,0,126,126,87,1
,,,,,,,,,,,,,,,,,607331e66524baf7ddfaae21,44,2022-02-12_13h48.41.588,lexical_decision_task_DD_L6,2021.2.3,Win32,59.52735282,,,,,,,,,,,,0.7572,0,,,,,,,,,,,,,,,,,,,,,,,,0.521296296,-0.114814815,0,0,0,,,,,,,CARPET,HB,z,y,./images/CARPETHB.png,,,,,,,,,,,,,,,,,,,,m,0,0.7572,,,,,,,,0,127,127,137,1
,,,,,,,,,,,,,,,,,607331e66524baf7ddfaae21,44,2022-02-12_13h48.41.588,lexical_decision_task_DD_L6,2021.2.3,Win32,59.52735282,,,,,,,,,,,,1.0937,1,,,,,,,,,,,,,,,,,,,,,,,,0.521296296,-0.114814815,0,0,0,,,,,,,BURIAL,HB,z,y,./images/BURIALHB.png,,,,,,,,,,,,,,,,,,,,z,1,1.0937,,,,,,,,0,128,128,143,1
,,,,,,,,,,,,,,,,,607331e66524baf7ddfaae21,44,2022-02-12_13h48.41.588,lexical_decision_task_DD_L6,2021.2.3,Win32,59.52735282,,,,,,,,,,,,0.6402,1,,,,,,,,,,,,,,,,,,,,,,,,0.521296296,-0.114814815,0,0,0,,,,,,,PISTOL,HB,m,y,./images/PISTOLHB.png,,,,,,,,,,,,,,,,,,,,m,1,0.6402,,,,,,,,0,129,129,29,1
,,,,,,,,,,,,,,,,,607331e66524baf7ddfaae21,44,2022-02-12_13h48.41.588,lexical_decision_task_DD_L6,2021.2.3,Win32,59.52735282,,,,,,,,,,,,0.8199,1,,,,,,,,,,,,,,,,,,,,,,,,0.521296296,-0.114814815,0,0,0,,,,,,,TRIPOD,LB,z,y,./images/TRIPODLB.png,,,,,,,,,,,,,,,,,,,,z,1,0.8199,,,,,,,,0,130,130,138,1
,,,,,,,,,,,,,,,,,607331e66524baf7ddfaae21,44,2022-02-12_13h48.41.588,lexical_decision_task_DD_L6,2021.2.3,Win32,59.52735282,,,,,,,,,,,,0.7041,1,,,,,,,,,,,,,,,,,,,,,,,,0.521296296,-0.114814815,0,0,0,,,,,,,CHERRY,LB,m,y,./images/CHERRYLB.png,,,,,,,,,,,,,,,,,,,,m,1,0.7041,,,,,,,,0,131,131,54,1
,,,,,,,,,,,,,,,,,607331e66524baf7ddfaae21,44,2022-02-12_13h48.41.588,lexical_decision_task_DD_L6,2021.2.3,Win32,59.52735282,,,,,,,,,,,,0.9319,0,,,,,,,,,,,,,,,,,,,,,,,,0.521296296,-0.114814815,0,0,0,,,,,,,DOUGH,C,z,y,./images/DOUGH.png,,,,,,,,,,,,,,,,,,,,m,0,0.9319,,,,,,,,0,132,132,103,1
