key_resp.keys,instr_done_touch.x,instr_done_touch.y,instr_done_touch.leftButton,instr_done_touch.midButton,instr_done_touch.rightButton,instr_done_touch.clicked_name,instruction_pages.thisRepN,instruction_pages.thisTrialN,instruction_pages.thisN,instruction_pages.thisIndex,instruction_pages.ran,pageN,phase,instruct_text,has_image,instruct_image,participant,age,date,expName,psychopyVersion,OS,frameRate,key_resp.rt,response.keys,response.corr,response.rt,touch_resp.x,touch_resp.y,touch_resp.leftButton,touch_resp.midButton,touch_resp.rightButton,touch_resp.time,touch_resp.clicked_name,rt,corr,practrials.thisRepN,practrials.thisTrialN,practrials.thisN,practrials.thisIndex,practrials.ran,TrialID,Target,corrAns,end_of_practice_trials_pages.thisRepN,end_of_practice_trials_pages.thisTrialN,end_of_practice_trials_pages.thisN,end_of_practice_trials_pages.thisIndex,end_of_practice_trials_pages.ran,key_resp_2.keys,key_resp_2.corr,key_resp_2.rt,targ_click.x,targ_click.y,targ_click.leftButton,targ_click.midButton,targ_click.rightButton,targ_click.time,targ_click.clicked_name,break_done_touch.x,break_done_touch.y,break_done_touch.leftButton,break_done_touch.midButton,break_done_touch.rightButton,break_done_keyboard.keys,maintrials.thisRepN,maintrials.thisTrialN,maintrials.thisN,maintrials.thisIndex,maintrials.ran,string,blur,study,lex,stim_path,break_done_keyboard.rt,mouse_2.x,mouse_2.y,mouse_2.leftButton,mouse_2.midButton,mouse_2.rightButton,mouse_2.clicked_name,slider.response,slider.rt,trials.thisRepN,trials.thisTrialN,trials.thisN,trials.thisIndex,trials.ran,test_instructions.thisRepN,test_instructions.thisTrialN,test_instructions.thisN,test_instructions.thisIndex,test_instructions.ran,key_resp_3.keys,key_resp_3.corr,key_resp_3.rt,test_click.x,test_click.y,test_click.leftButton,test_click.midButton,test_click.rightButton,test_click.time,test_click.clicked_name,test_phase.thisRepN,test_phase.thisTrialN,test_phase.thisN,test_phase.thisIndex,test_phase.ran
,-0.007777778,-0.391111111,1,0,0,instr_done_button,0,0,0,0,1,1,instructions,"INSTRUCTIONS
At the start of each trial, look at the plus sign  (+) in the center of the screen.  This tells you that a trial is about to begin and where to look. Second, the plus sign will disappear and a string of letters will appear. Your task is to determine if the string of letters is a word or not. If the item is a word press the M key (on keyboard)  or touch the word button (phone/tablet).  If the item is not a word,  press the  Z key (on keyboard)  or touch the nonword button (on phone/tablet). 
Press the space bar or touch  continue.",0,,60805973b343054738e6bf29,41,2022-02-12_13h23.07.650,lexical_decision_task_DD_L3,2021.2.3,MacIntel,30.3030303,,,,,,,,,,,,,,,,,,,,,,,,,,,,,,,,,,,,,,,,,,,,,,,,,,,,,,,,,,,,,,,,,,,,,,,,,,,,,,,,,,,,,,
space,-0.268888889,-0.385555556,0,0,0,,0,1,1,1,1,2,instructions,"If your device has a keyboard, press the 'Z' key for nonwords and the 'M' key for words.





Press the space bar or touch the button below to continue.",0,keyboard-example.gif,60805973b343054738e6bf29,41,2022-02-12_13h23.07.650,lexical_decision_task_DD_L3,2021.2.3,MacIntel,30.3030303,10.997,,,,,,,,,,,,,,,,,,,,,,,,,,,,,,,,,,,,,,,,,,,,,,,,,,,,,,,,,,,,,,,,,,,,,,,,,,,,,,,,,,,,,
space,-0.268888889,-0.385555556,0,0,0,,0,2,2,2,1,3,instructions,"If you are using a touchscreen only device, use the buttons on the screen. Do not use the mouse.





Press the space bar or touch the button below to continue.",0,touchscreen-example.gif,60805973b343054738e6bf29,41,2022-02-12_13h23.07.650,lexical_decision_task_DD_L3,2021.2.3,MacIntel,30.3030303,4.846,,,,,,,,,,,,,,,,,,,,,,,,,,,,,,,,,,,,,,,,,,,,,,,,,,,,,,,,,,,,,,,,,,,,,,,,,,,,,,,,,,,,,
space,-0.268888889,-0.385555556,0,0,0,,0,3,3,3,1,4,instructions,"It is very important that you respond as quickly and accurately as possible, as each letter string will only be on the screen for two seconds. If you do not respond within this time, the message 'Too slow!' will be displayed and the experiment will progress to the next letter string. The first 20 trials will be practice trials and you will receive feedback on your answers. 

Press the space bar or touch the button below to start the practice trials.",0,,60805973b343054738e6bf29,41,2022-02-12_13h23.07.650,lexical_decision_task_DD_L3,2021.2.3,MacIntel,30.3030303,15.897,,,,,,,,,,,,,,,,,,,,,,,,,,,,,,,,,,,,,,,,,,,,,,,,,,,,,,,,,,,,,,,,,,,,,,,,,,,,,,,,,,,,,
,,,,,,,,,,,,,,,,,60805973b343054738e6bf29,41,2022-02-12_13h23.07.650,lexical_decision_task_DD_L3,2021.2.3,MacIntel,30.3030303,,z,1,1.211,,,,,,,,1.211,1,0,0,0,10,1,1001,INLADE,z,,,,,,,,,,,,,,,,,,,,,,,,,,,,,,,,,,,,,,,,,,,,,,,,,,,,,,,,,,,,,,,,,
,,,,,,,,,,,,,,,,,60805973b343054738e6bf29,41,2022-02-12_13h23.07.650,lexical_decision_task_DD_L3,2021.2.3,MacIntel,30.3030303,,z,1,0.683,,,,,,,,0.683,1,0,1,1,11,1,1001,RASHET,z,,,,,,,,,,,,,,,,,,,,,,,,,,,,,,,,,,,,,,,,,,,,,,,,,,,,,,,,,,,,,,,,,
,,,,,,,,,,,,,,,,,60805973b343054738e6bf29,41,2022-02-12_13h23.07.650,lexical_decision_task_DD_L3,2021.2.3,MacIntel,30.3030303,,z,1,0.676,,,,,,,,0.676,1,0,2,2,14,1,1001,THRALE,z,,,,,,,,,,,,,,,,,,,,,,,,,,,,,,,,,,,,,,,,,,,,,,,,,,,,,,,,,,,,,,,,,
,,,,,,,,,,,,,,,,,60805973b343054738e6bf29,41,2022-02-12_13h23.07.650,lexical_decision_task_DD_L3,2021.2.3,MacIntel,30.3030303,,m,1,0.73,,,,,,,,0.73,1,0,3,3,6,1,1001,ZOMBIE,m,,,,,,,,,,,,,,,,,,,,,,,,,,,,,,,,,,,,,,,,,,,,,,,,,,,,,,,,,,,,,,,,,
,,,,,,,,,,,,,,,,,60805973b343054738e6bf29,41,2022-02-12_13h23.07.650,lexical_decision_task_DD_L3,2021.2.3,MacIntel,30.3030303,,z,1,0.742,,,,,,,,0.742,1,0,4,4,12,1,1001,SPRINY,z,,,,,,,,,,,,,,,,,,,,,,,,,,,,,,,,,,,,,,,,,,,,,,,,,,,,,,,,,,,,,,,,,
,,,,,,,,,,,,,,,,,60805973b343054738e6bf29,41,2022-02-12_13h23.07.650,lexical_decision_task_DD_L3,2021.2.3,MacIntel,30.3030303,,m,1,0.907,,,,,,,,0.907,1,0,5,5,0,1,1001,UTOPIA,m,,,,,,,,,,,,,,,,,,,,,,,,,,,,,,,,,,,,,,,,,,,,,,,,,,,,,,,,,,,,,,,,,
,,,,,,,,,,,,,,,,,60805973b343054738e6bf29,41,2022-02-12_13h23.07.650,lexical_decision_task_DD_L3,2021.2.3,MacIntel,30.3030303,,m,1,0.851,,,,,,,,0.851,1,0,6,6,4,1,1001,SQUEAK,m,,,,,,,,,,,,,,,,,,,,,,,,,,,,,,,,,,,,,,,,,,,,,,,,,,,,,,,,,,,,,,,,,
,,,,,,,,,,,,,,,,,60805973b343054738e6bf29,41,2022-02-12_13h23.07.650,lexical_decision_task_DD_L3,2021.2.3,MacIntel,30.3030303,,z,1,0.741,,,,,,,,0.741,1,0,7,7,9,1,1001,FARINY,z,,,,,,,,,,,,,,,,,,,,,,,,,,,,,,,,,,,,,,,,,,,,,,,,,,,,,,,,,,,,,,,,,
,,,,,,,,,,,,,,,,,60805973b343054738e6bf29,41,2022-02-12_13h23.07.650,lexical_decision_task_DD_L3,2021.2.3,MacIntel,30.3030303,,m,1,0.621,,,,,,,,0.621,1,0,8,8,2,1,1001,ALMOND,m,,,,,,,,,,,,,,,,,,,,,,,,,,,,,,,,,,,,,,,,,,,,,,,,,,,,,,,,,,,,,,,,,
,,,,,,,,,,,,,,,,,60805973b343054738e6bf29,41,2022-02-12_13h23.07.650,lexical_decision_task_DD_L3,2021.2.3,MacIntel,30.3030303,,m,1,0.83,,,,,,,,0.83,1,0,9,9,3,1,1001,MATRIX,m,,,,,,,,,,,,,,,,,,,,,,,,,,,,,,,,,,,,,,,,,,,,,,,,,,,,,,,,,,,,,,,,,
,,,,,,,,,,,,,,,,,60805973b343054738e6bf29,41,2022-02-12_13h23.07.650,lexical_decision_task_DD_L3,2021.2.3,MacIntel,30.3030303,,z,1,0.728,,,,,,,,0.728,1,0,10,10,8,1,1001,ASLERT,z,,,,,,,,,,,,,,,,,,,,,,,,,,,,,,,,,,,,,,,,,,,,,,,,,,,,,,,,,,,,,,,,,
,,,,,,,,,,,,,,,,,60805973b343054738e6bf29,41,2022-02-12_13h23.07.650,lexical_decision_task_DD_L3,2021.2.3,MacIntel,30.3030303,,m,1,0.638,,,,,,,,0.638,1,0,11,11,1,1,1001,ADJUST,m,,,,,,,,,,,,,,,,,,,,,,,,,,,,,,,,,,,,,,,,,,,,,,,,,,,,,,,,,,,,,,,,,
,,,,,,,,,,,,,,,,,60805973b343054738e6bf29,41,2022-02-12_13h23.07.650,lexical_decision_task_DD_L3,2021.2.3,MacIntel,30.3030303,,z,1,0.698,,,,,,,,0.698,1,0,12,12,13,1,1001,ROUPET,z,,,,,,,,,,,,,,,,,,,,,,,,,,,,,,,,,,,,,,,,,,,,,,,,,,,,,,,,,,,,,,,,,
,,,,,,,,,,,,,,,,,60805973b343054738e6bf29,41,2022-02-12_13h23.07.650,lexical_decision_task_DD_L3,2021.2.3,MacIntel,30.3030303,,m,1,0.593,,,,,,,,0.593,1,0,13,13,7,1,1001,VOLUME,m,,,,,,,,,,,,,,,,,,,,,,,,,,,,,,,,,,,,,,,,,,,,,,,,,,,,,,,,,,,,,,,,,
,,,,,,,,,,,,,,,,,60805973b343054738e6bf29,41,2022-02-12_13h23.07.650,lexical_decision_task_DD_L3,2021.2.3,MacIntel,30.3030303,,z,1,0.7,,,,,,,,0.7,1,0,14,14,15,1,1001,WHAISE,z,,,,,,,,,,,,,,,,,,,,,,,,,,,,,,,,,,,,,,,,,,,,,,,,,,,,,,,,,,,,,,,,,
,,,,,,,,,,,,,,,,,60805973b343054738e6bf29,41,2022-02-12_13h23.07.650,lexical_decision_task_DD_L3,2021.2.3,MacIntel,30.3030303,,m,1,0.585,,,,,,,,0.585,1,0,15,15,5,1,1001,OBTAIN,m,,,,,,,,,,,,,,,,,,,,,,,,,,,,,,,,,,,,,,,,,,,,,,,,,,,,,,,,,,,,,,,,,
space,-0.268888889,-0.385555556,0,0,0,,,,,,,1,end_of_practice,"You have completed the practice trials. During the experimental trials, you will not receive feedback. 
Before you begin, please ensure that you are in a comfortable and quiet location and will not be disturbed for about 15 minutes, as we cannot use your data if you do not complete all the trials. 
 When you are ready to start the experimental trials, please press space or touch the button below.",,,60805973b343054738e6bf29,41,2022-02-12_13h23.07.650,lexical_decision_task_DD_L3,2021.2.3,MacIntel,30.3030303,12.782,,,,,,,,,,,,,,,,,,,,,0,0,0,0,1,,,,,,,,,,,,,,,,,,,,,,,,,,,,,,,,,,,,,,,,,,,,,,,,,,,,,,,,,,,,
,,,,,,,,,,,,,,,,,60805973b343054738e6bf29,41,2022-02-12_13h23.07.650,lexical_decision_task_DD_L3,2021.2.3,MacIntel,30.3030303,,,,,,,,,,,,1.764,1,,,,,,,,,,,,,,z,1,1.764,,,,,,,,-0.268888889,-0.385555556,0,0,0,,0,0,0,85,1,CHULK,HB,old,z,./images/CHULKHB.png,,,,,,,,,,,,,,,,,,,,,,,,,,,,,,,,,,
,,,,,,,,,,,,,,,,,60805973b343054738e6bf29,41,2022-02-12_13h23.07.650,lexical_decision_task_DD_L3,2021.2.3,MacIntel,30.3030303,,,,,,,,,,,,0.713,1,,,,,,,,,,,,,,m,1,0.713,,,,,,,,-0.268888889,-0.385555556,0,0,0,,0,1,1,52,1,BANNER,C,old,m,./images/BANNER.png,,,,,,,,,,,,,,,,,,,,,,,,,,,,,,,,,,
,,,,,,,,,,,,,,,,,60805973b343054738e6bf29,41,2022-02-12_13h23.07.650,lexical_decision_task_DD_L3,2021.2.3,MacIntel,30.3030303,,,,,,,,,,,,0.758,1,,,,,,,,,,,,,,m,1,0.758,,,,,,,,-0.268888889,-0.385555556,0,0,0,,0,2,2,42,1,FOLDER,LB,old,m,./images/FOLDERLB.png,,,,,,,,,,,,,,,,,,,,,,,,,,,,,,,,,,
,,,,,,,,,,,,,,,,,60805973b343054738e6bf29,41,2022-02-12_13h23.07.650,lexical_decision_task_DD_L3,2021.2.3,MacIntel,30.3030303,,,,,,,,,,,,0.583,1,,,,,,,,,,,,,,m,1,0.583,,,,,,,,-0.268888889,-0.385555556,0,0,0,,0,3,3,57,1,MOOSE,LB,old,m,./images/MOOSELB.png,,,,,,,,,,,,,,,,,,,,,,,,,,,,,,,,,,
,,,,,,,,,,,,,,,,,60805973b343054738e6bf29,41,2022-02-12_13h23.07.650,lexical_decision_task_DD_L3,2021.2.3,MacIntel,30.3030303,,,,,,,,,,,,0.696,1,,,,,,,,,,,,,,z,1,0.696,,,,,,,,-0.268888889,-0.385555556,0,0,0,,0,4,4,113,1,LINEW,LB,old,z,./images/LINEWLB.png,,,,,,,,,,,,,,,,,,,,,,,,,,,,,,,,,,
,,,,,,,,,,,,,,,,,60805973b343054738e6bf29,41,2022-02-12_13h23.07.650,lexical_decision_task_DD_L3,2021.2.3,MacIntel,30.3030303,,,,,,,,,,,,0.639,1,,,,,,,,,,,,,,z,1,0.639,,,,,,,,-0.268888889,-0.385555556,0,0,0,,0,5,5,86,1,AIFED,LB,old,z,./images/AIFEDLB.png,,,,,,,,,,,,,,,,,,,,,,,,,,,,,,,,,,
,,,,,,,,,,,,,,,,,60805973b343054738e6bf29,41,2022-02-12_13h23.07.650,lexical_decision_task_DD_L3,2021.2.3,MacIntel,30.3030303,,,,,,,,,,,,0.588,1,,,,,,,,,,,,,,m,1,0.588,,,,,,,,-0.268888889,-0.385555556,0,0,0,,0,6,6,64,1,JELLY,C,old,m,./images/JELLY.png,,,,,,,,,,,,,,,,,,,,,,,,,,,,,,,,,,
,,,,,,,,,,,,,,,,,60805973b343054738e6bf29,41,2022-02-12_13h23.07.650,lexical_decision_task_DD_L3,2021.2.3,MacIntel,30.3030303,,,,,,,,,,,,0.626,1,,,,,,,,,,,,,,z,1,0.626,,,,,,,,-0.268888889,-0.385555556,0,0,0,,0,7,7,90,1,NEAST,C,old,z,./images/NEAST.png,,,,,,,,,,,,,,,,,,,,,,,,,,,,,,,,,,
,,,,,,,,,,,,,,,,,60805973b343054738e6bf29,41,2022-02-12_13h23.07.650,lexical_decision_task_DD_L3,2021.2.3,MacIntel,30.3030303,,,,,,,,,,,,1.126,1,,,,,,,,,,,,,,z,1,1.126,,,,,,,,-0.268888889,-0.385555556,0,0,0,,0,8,8,121,1,CEERS,HB,old,z,./images/CEERSHB.png,,,,,,,,,,,,,,,,,,,,,,,,,,,,,,,,,,
,,,,,,,,,,,,,,,,,60805973b343054738e6bf29,41,2022-02-12_13h23.07.650,lexical_decision_task_DD_L3,2021.2.3,MacIntel,30.3030303,,,,,,,,,,,,0.817,1,,,,,,,,,,,,,,m,1,0.817,,,,,,,,-0.268888889,-0.385555556,0,0,0,,0,9,9,32,1,BARREL,HB,old,m,./images/BARRELHB.png,,,,,,,,,,,,,,,,,,,,,,,,,,,,,,,,,,
,,,,,,,,,,,,,,,,,60805973b343054738e6bf29,41,2022-02-12_13h23.07.650,lexical_decision_task_DD_L3,2021.2.3,MacIntel,30.3030303,,,,,,,,,,,,0.728,1,,,,,,,,,,,,,,m,1,0.728,,,,,,,,-0.268888889,-0.385555556,0,0,0,,0,10,10,41,1,STRING,HB,old,m,./images/STRINGHB.png,,,,,,,,,,,,,,,,,,,,,,,,,,,,,,,,,,
,,,,,,,,,,,,,,,,,60805973b343054738e6bf29,41,2022-02-12_13h23.07.650,lexical_decision_task_DD_L3,2021.2.3,MacIntel,30.3030303,,,,,,,,,,,,1.013,1,,,,,,,,,,,,,,m,1,1.013,,,,,,,,-0.268888889,-0.385555556,0,0,0,,0,11,11,50,1,MALLET,HB,old,m,./images/MALLETHB.png,,,,,,,,,,,,,,,,,,,,,,,,,,,,,,,,,,
,,,,,,,,,,,,,,,,,60805973b343054738e6bf29,41,2022-02-12_13h23.07.650,lexical_decision_task_DD_L3,2021.2.3,MacIntel,30.3030303,,,,,,,,,,,,1.042,1,,,,,,,,,,,,,,m,1,1.042,,,,,,,,-0.268888889,-0.385555556,0,0,0,,0,12,12,2,1,BEARD,HB,old,m,./images/BEARDHB.png,,,,,,,,,,,,,,,,,,,,,,,,,,,,,,,,,,
,,,,,,,,,,,,,,,,,60805973b343054738e6bf29,41,2022-02-12_13h23.07.650,lexical_decision_task_DD_L3,2021.2.3,MacIntel,30.3030303,,,,,,,,,,,,0.88,1,,,,,,,,,,,,,,z,1,0.88,,,,,,,,-0.268888889,-0.385555556,0,0,0,,0,13,13,122,1,BLOOT,LB,old,z,./images/BLOOTLB.png,,,,,,,,,,,,,,,,,,,,,,,,,,,,,,,,,,
,,,,,,,,,,,,,,,,,60805973b343054738e6bf29,41,2022-02-12_13h23.07.650,lexical_decision_task_DD_L3,2021.2.3,MacIntel,30.3030303,,,,,,,,,,,,0.675,1,,,,,,,,,,,,,,m,1,0.675,,,,,,,,-0.268888889,-0.385555556,0,0,0,,0,14,14,9,1,RHINO,LB,old,m,./images/RHINOLB.png,,,,,,,,,,,,,,,,,,,,,,,,,,,,,,,,,,
,,,,,,,,,,,,,,,,,60805973b343054738e6bf29,41,2022-02-12_13h23.07.650,lexical_decision_task_DD_L3,2021.2.3,MacIntel,30.3030303,,,,,,,,,,,,0.596,1,,,,,,,,,,,,,,m,1,0.596,,,,,,,,-0.268888889,-0.385555556,0,0,0,,0,15,15,39,1,SHELF,LB,old,m,./images/SHELFLB.png,,,,,,,,,,,,,,,,,,,,,,,,,,,,,,,,,,
,,,,,,,,,,,,,,,,,60805973b343054738e6bf29,41,2022-02-12_13h23.07.650,lexical_decision_task_DD_L3,2021.2.3,MacIntel,30.3030303,,,,,,,,,,,,0.736,1,,,,,,,,,,,,,,z,1,0.736,,,,,,,,-0.268888889,-0.385555556,0,0,0,,0,16,16,88,1,GLUSH,HB,old,z,./images/GLUSHHB.png,,,,,,,,,,,,,,,,,,,,,,,,,,,,,,,,,,
,,,,,,,,,,,,,,,,,60805973b343054738e6bf29,41,2022-02-12_13h23.07.650,lexical_decision_task_DD_L3,2021.2.3,MacIntel,30.3030303,,,,,,,,,,,,0.635,1,,,,,,,,,,,,,,z,1,0.635,,,,,,,,-0.268888889,-0.385555556,0,0,0,,0,17,17,141,1,PLEET,C,old,z,./images/PLEET.png,,,,,,,,,,,,,,,,,,,,,,,,,,,,,,,,,,
,,,,,,,,,,,,,,,,,60805973b343054738e6bf29,41,2022-02-12_13h23.07.650,lexical_decision_task_DD_L3,2021.2.3,MacIntel,30.3030303,,,,,,,,,,,,0.652,1,,,,,,,,,,,,,,z,1,0.652,,,,,,,,-0.268888889,-0.385555556,0,0,0,,0,18,18,162,1,LEICH,C,old,z,./images/LEICH.png,,,,,,,,,,,,,,,,,,,,,,,,,,,,,,,,,,
,,,,,,,,,,,,,,,,,60805973b343054738e6bf29,41,2022-02-12_13h23.07.650,lexical_decision_task_DD_L3,2021.2.3,MacIntel,30.3030303,,,,,,,,,,,,0.567,1,,,,,,,,,,,,,,m,1,0.567,,,,,,,,-0.268888889,-0.385555556,0,0,0,,0,19,19,60,1,TWINS,LB,old,m,./images/TWINSLB.png,,,,,,,,,,,,,,,,,,,,,,,,,,,,,,,,,,
,,,,,,,,,,,,,,,,,60805973b343054738e6bf29,41,2022-02-12_13h23.07.650,lexical_decision_task_DD_L3,2021.2.3,MacIntel,30.3030303,,,,,,,,,,,,0.699,1,,,,,,,,,,,,,,m,1,0.699,,,,,,,,-0.268888889,-0.385555556,0,0,0,,0,20,20,59,1,BURIAL,HB,old,m,./images/BURIALHB.png,,,,,,,,,,,,,,,,,,,,,,,,,,,,,,,,,,
,,,,,,,,,,,,,,,,,60805973b343054738e6bf29,41,2022-02-12_13h23.07.650,lexical_decision_task_DD_L3,2021.2.3,MacIntel,30.3030303,,,,,,,,,,,,0.652,1,,,,,,,,,,,,,,m,1,0.652,,,,,,,,-0.268888889,-0.385555556,0,0,0,,0,21,21,79,1,CRUST,C,old,m,./images/CRUST.png,,,,,,,,,,,,,,,,,,,,,,,,,,,,,,,,,,
,,,,,,,,,,,,,,,,,60805973b343054738e6bf29,41,2022-02-12_13h23.07.650,lexical_decision_task_DD_L3,2021.2.3,MacIntel,30.3030303,,,,,,,,,,,,0.571,1,,,,,,,,,,,,,,m,1,0.571,,,,,,,,-0.268888889,-0.385555556,0,0,0,,0,22,22,55,1,MUFFIN,C,old,m,./images/MUFFIN.png,,,,,,,,,,,,,,,,,,,,,,,,,,,,,,,,,,
,,,,,,,,,,,,,,,,,60805973b343054738e6bf29,41,2022-02-12_13h23.07.650,lexical_decision_task_DD_L3,2021.2.3,MacIntel,30.3030303,,,,,,,,,,,,0.803,1,,,,,,,,,,,,,,z,1,0.803,,,,,,,,-0.268888889,-0.385555556,0,0,0,,0,23,23,99,1,BACKY,C,old,z,./images/BACKY.png,,,,,,,,,,,,,,,,,,,,,,,,,,,,,,,,,,
,,,,,,,,,,,,,,,,,60805973b343054738e6bf29,41,2022-02-12_13h23.07.650,lexical_decision_task_DD_L3,2021.2.3,MacIntel,30.3030303,,,,,,,,,,,,0.549,1,,,,,,,,,,,,,,m,1,0.549,,,,,,,,-0.268888889,-0.385555556,0,0,0,,0,24,24,45,1,KITTEN,LB,old,m,./images/KITTENLB.png,,,,,,,,,,,,,,,,,,,,,,,,,,,,,,,,,,
,,,,,,,,,,,,,,,,,60805973b343054738e6bf29,41,2022-02-12_13h23.07.650,lexical_decision_task_DD_L3,2021.2.3,MacIntel,30.3030303,,,,,,,,,,,,0.743,1,,,,,,,,,,,,,,m,1,0.743,,,,,,,,-0.268888889,-0.385555556,0,0,0,,0,25,25,61,1,CANDLE,C,old,m,./images/CANDLE.png,,,,,,,,,,,,,,,,,,,,,,,,,,,,,,,,,,
,,,,,,,,,,,,,,,,,60805973b343054738e6bf29,41,2022-02-12_13h23.07.650,lexical_decision_task_DD_L3,2021.2.3,MacIntel,30.3030303,,,,,,,,,,,,0.611,1,,,,,,,,,,,,,,z,1,0.611,,,,,,,,-0.268888889,-0.385555556,0,0,0,,0,26,26,135,1,JOODY,C,old,z,./images/JOODY.png,,,,,,,,,,,,,,,,,,,,,,,,,,,,,,,,,,
,,,,,,,,,,,,,,,,,60805973b343054738e6bf29,41,2022-02-12_13h23.07.650,lexical_decision_task_DD_L3,2021.2.3,MacIntel,30.3030303,,,,,,,,,,,,0.571,1,,,,,,,,,,,,,,m,1,0.571,,,,,,,,-0.268888889,-0.385555556,0,0,0,,0,27,27,7,1,PAINT,C,old,m,./images/PAINT.png,,,,,,,,,,,,,,,,,,,,,,,,,,,,,,,,,,
,,,,,,,,,,,,,,,,,60805973b343054738e6bf29,41,2022-02-12_13h23.07.650,lexical_decision_task_DD_L3,2021.2.3,MacIntel,30.3030303,,,,,,,,,,,,0.639,1,,,,,,,,,,,,,,z,1,0.639,,,,,,,,-0.268888889,-0.385555556,0,0,0,,0,28,28,147,1,ZOLES,C,old,z,./images/ZOLES.png,,,,,,,,,,,,,,,,,,,,,,,,,,,,,,,,,,
,,,,,,,,,,,,,,,,,60805973b343054738e6bf29,41,2022-02-12_13h23.07.650,lexical_decision_task_DD_L3,2021.2.3,MacIntel,30.3030303,,,,,,,,,,,,0.659,1,,,,,,,,,,,,,,z,1,0.659,,,,,,,,-0.268888889,-0.385555556,0,0,0,,0,29,29,108,1,GRUET,C,old,z,./images/GRUET.png,,,,,,,,,,,,,,,,,,,,,,,,,,,,,,,,,,
,,,,,,,,,,,,,,,,,60805973b343054738e6bf29,41,2022-02-12_13h23.07.650,lexical_decision_task_DD_L3,2021.2.3,MacIntel,30.3030303,,,,,,,,,,,,0.644,1,,,,,,,,,,,,,,z,1,0.644,,,,,,,,-0.268888889,-0.385555556,0,0,0,,0,30,30,87,1,TRING,C,old,z,./images/TRING.png,,,,,,,,,,,,,,,,,,,,,,,,,,,,,,,,,,
,,,,,,,,,,,,,,,,,60805973b343054738e6bf29,41,2022-02-12_13h23.07.650,lexical_decision_task_DD_L3,2021.2.3,MacIntel,30.3030303,,,,,,,,,,,,0.635,1,,,,,,,,,,,,,,m,1,0.635,,,,,,,,-0.268888889,-0.385555556,0,0,0,,0,31,31,27,1,ATTIC,LB,old,m,./images/ATTICLB.png,,,,,,,,,,,,,,,,,,,,,,,,,,,,,,,,,,
,,,,,,,,,,,,,,,,,60805973b343054738e6bf29,41,2022-02-12_13h23.07.650,lexical_decision_task_DD_L3,2021.2.3,MacIntel,30.3030303,,,,,,,,,,,,0.567,1,,,,,,,,,,,,,,z,1,0.567,,,,,,,,-0.268888889,-0.385555556,0,0,0,,0,32,32,128,1,GRIFT,LB,old,z,./images/GRIFTLB.png,,,,,,,,,,,,,,,,,,,,,,,,,,,,,,,,,,
,,,,,,,,,,,,,,,,,60805973b343054738e6bf29,41,2022-02-12_13h23.07.650,lexical_decision_task_DD_L3,2021.2.3,MacIntel,30.3030303,,,,,,,,,,,,0.566,1,,,,,,,,,,,,,,m,1,0.566,,,,,,,,-0.268888889,-0.385555556,0,0,0,,0,33,33,63,1,MIRROR,LB,old,m,./images/MIRRORLB.png,,,,,,,,,,,,,,,,,,,,,,,,,,,,,,,,,,
,,,,,,,,,,,,,,,,,60805973b343054738e6bf29,41,2022-02-12_13h23.07.650,lexical_decision_task_DD_L3,2021.2.3,MacIntel,30.3030303,,,,,,,,,,,,0.855,1,,,,,,,,,,,,,,m,1,0.855,,,,,,,,-0.268888889,-0.385555556,0,0,0,,0,34,34,26,1,SMOKER,HB,old,m,./images/SMOKERHB.png,,,,,,,,,,,,,,,,,,,,,,,,,,,,,,,,,,
,,,,,,,,,,,,,,,,,60805973b343054738e6bf29,41,2022-02-12_13h23.07.650,lexical_decision_task_DD_L3,2021.2.3,MacIntel,30.3030303,,,,,,,,,,,,1.358,1,,,,,,,,,,,,,,z,1,1.358,,,,,,,,-0.268888889,-0.385555556,0,0,0,,0,35,35,142,1,PLASK,HB,old,z,./images/PLASKHB.png,,,,,,,,,,,,,,,,,,,,,,,,,,,,,,,,,,
,,,,,,,,,,,,,,,,,60805973b343054738e6bf29,41,2022-02-12_13h23.07.650,lexical_decision_task_DD_L3,2021.2.3,MacIntel,30.3030303,,,,,,,,,,,,0.774,1,,,,,,,,,,,,,,m,1,0.774,,,,,,,,-0.268888889,-0.385555556,0,0,0,,0,36,36,83,1,JUNGLE,HB,old,m,./images/JUNGLEHB.png,,,,,,,,,,,,,,,,,,,,,,,,,,,,,,,,,,
,,,,,,,,,,,,,,,,,60805973b343054738e6bf29,41,2022-02-12_13h23.07.650,lexical_decision_task_DD_L3,2021.2.3,MacIntel,30.3030303,,,,,,,,,,,,1.019,1,,,,,,,,,,,,,,z,1,1.019,,,,,,,,-0.268888889,-0.385555556,0,0,0,,0,37,37,145,1,LAMEL,HB,old,z,./images/LAMELHB.png,,,,,,,,,,,,,,,,,,,,,,,,,,,,,,,,,,
,,,,,,,,,,,,,,,,,60805973b343054738e6bf29,41,2022-02-12_13h23.07.650,lexical_decision_task_DD_L3,2021.2.3,MacIntel,30.3030303,,,,,,,,,,,,0.701,1,,,,,,,,,,,,,,m,1,0.701,,,,,,,,-0.268888889,-0.385555556,0,0,0,,0,38,38,3,1,FINGER,LB,old,m,./images/FINGERLB.png,,,,,,,,,,,,,,,,,,,,,,,,,,,,,,,,,,
,,,,,,,,,,,,,,,,,60805973b343054738e6bf29,41,2022-02-12_13h23.07.650,lexical_decision_task_DD_L3,2021.2.3,MacIntel,30.3030303,,,,,,,,,,,,0.657,1,,,,,,,,,,,,,,z,1,0.657,,,,,,,,-0.268888889,-0.385555556,0,0,0,,0,39,39,157,1,INLER,HB,old,z,./images/INLERHB.png,,,,,,,,,,,,,,,,,,,,,,,,,,,,,,,,,,
,,,,,,,,,,,,,,,,,60805973b343054738e6bf29,41,2022-02-12_13h23.07.650,lexical_decision_task_DD_L3,2021.2.3,MacIntel,30.3030303,,,,,,,,,,,,0.547,1,,,,,,,,,,,,,,m,1,0.547,,,,,,,,-0.268888889,-0.385555556,0,0,0,,0,40,40,30,1,STORM,LB,old,m,./images/STORMLB.png,,,,,,,,,,,,,,,,,,,,,,,,,,,,,,,,,,
,,,,,,,,,,,,,,,,,60805973b343054738e6bf29,41,2022-02-12_13h23.07.650,lexical_decision_task_DD_L3,2021.2.3,MacIntel,30.3030303,,,,,,,,,,,,0.74,1,,,,,,,,,,,,,,z,1,0.74,,,,,,,,-0.268888889,-0.385555556,0,0,0,space,0,41,41,95,1,HANTY,LB,old,z,./images/HANTYLB.png,6.584,,,,,,,,,,,,,,,,,,,,,,,,,,,,,,,,,
,,,,,,,,,,,,,,,,,60805973b343054738e6bf29,41,2022-02-12_13h23.07.650,lexical_decision_task_DD_L3,2021.2.3,MacIntel,30.3030303,,,,,,,,,,,,0.627,0,,,,,,,,,,,,,,z,0,0.627,,,,,,,,-0.268888889,-0.385555556,0,0,0,,0,42,42,11,1,BONNET,HB,old,m,./images/BONNETHB.png,,,,,,,,,,,,,,,,,,,,,,,,,,,,,,,,,,
,,,,,,,,,,,,,,,,,60805973b343054738e6bf29,41,2022-02-12_13h23.07.650,lexical_decision_task_DD_L3,2021.2.3,MacIntel,30.3030303,,,,,,,,,,,,0.715,1,,,,,,,,,,,,,,z,1,0.715,,,,,,,,-0.268888889,-0.385555556,0,0,0,,0,43,43,153,1,CLUPS,C,old,z,./images/CLUPS.png,,,,,,,,,,,,,,,,,,,,,,,,,,,,,,,,,,
,,,,,,,,,,,,,,,,,60805973b343054738e6bf29,41,2022-02-12_13h23.07.650,lexical_decision_task_DD_L3,2021.2.3,MacIntel,30.3030303,,,,,,,,,,,,0.713,1,,,,,,,,,,,,,,z,1,0.713,,,,,,,,-0.268888889,-0.385555556,0,0,0,,0,44,44,125,1,MOOKY,LB,old,z,./images/MOOKYLB.png,,,,,,,,,,,,,,,,,,,,,,,,,,,,,,,,,,
,,,,,,,,,,,,,,,,,60805973b343054738e6bf29,41,2022-02-12_13h23.07.650,lexical_decision_task_DD_L3,2021.2.3,MacIntel,30.3030303,,,,,,,,,,,,0.612,1,,,,,,,,,,,,,,m,1,0.612,,,,,,,,-0.268888889,-0.385555556,0,0,0,,0,45,45,16,1,PENCE,C,old,m,./images/PENCE.png,,,,,,,,,,,,,,,,,,,,,,,,,,,,,,,,,,
,,,,,,,,,,,,,,,,,60805973b343054738e6bf29,41,2022-02-12_13h23.07.650,lexical_decision_task_DD_L3,2021.2.3,MacIntel,30.3030303,,,,,,,,,,,,0.621,1,,,,,,,,,,,,,,m,1,0.621,,,,,,,,-0.268888889,-0.385555556,0,0,0,,0,46,46,37,1,BIRTH,C,old,m,./images/BIRTH.png,,,,,,,,,,,,,,,,,,,,,,,,,,,,,,,,,,
,,,,,,,,,,,,,,,,,60805973b343054738e6bf29,41,2022-02-12_13h23.07.650,lexical_decision_task_DD_L3,2021.2.3,MacIntel,30.3030303,,,,,,,,,,,,0.641,1,,,,,,,,,,,,,,z,1,0.641,,,,,,,,-0.268888889,-0.385555556,0,0,0,,0,47,47,167,1,ZONET,LB,old,z,./images/ZONETLB.png,,,,,,,,,,,,,,,,,,,,,,,,,,,,,,,,,,
,,,,,,,,,,,,,,,,,60805973b343054738e6bf29,41,2022-02-12_13h23.07.650,lexical_decision_task_DD_L3,2021.2.3,MacIntel,30.3030303,,,,,,,,,,,,0.642,1,,,,,,,,,,,,,,m,1,0.642,,,,,,,,-0.268888889,-0.385555556,0,0,0,,0,48,48,5,1,PASTA,HB,old,m,./images/PASTAHB.png,,,,,,,,,,,,,,,,,,,,,,,,,,,,,,,,,,
,,,,,,,,,,,,,,,,,60805973b343054738e6bf29,41,2022-02-12_13h23.07.650,lexical_decision_task_DD_L3,2021.2.3,MacIntel,30.3030303,,,,,,,,,,,,0.588,1,,,,,,,,,,,,,,z,1,0.588,,,,,,,,-0.268888889,-0.385555556,0,0,0,,0,49,49,114,1,RIKES,C,old,z,./images/RIKES.png,,,,,,,,,,,,,,,,,,,,,,,,,,,,,,,,,,
,,,,,,,,,,,,,,,,,60805973b343054738e6bf29,41,2022-02-12_13h23.07.650,lexical_decision_task_DD_L3,2021.2.3,MacIntel,30.3030303,,,,,,,,,,,,0.625,1,,,,,,,,,,,,,,z,1,0.625,,,,,,,,-0.268888889,-0.385555556,0,0,0,,0,50,50,97,1,CHIDS,HB,old,z,./images/CHIDSHB.png,,,,,,,,,,,,,,,,,,,,,,,,,,,,,,,,,,
,,,,,,,,,,,,,,,,,60805973b343054738e6bf29,41,2022-02-12_13h23.07.650,lexical_decision_task_DD_L3,2021.2.3,MacIntel,30.3030303,,,,,,,,,,,,0.884,1,,,,,,,,,,,,,,m,1,0.884,,,,,,,,-0.268888889,-0.385555556,0,0,0,,0,51,51,8,1,TULIP,HB,old,m,./images/TULIPHB.png,,,,,,,,,,,,,,,,,,,,,,,,,,,,,,,,,,
,,,,,,,,,,,,,,,,,60805973b343054738e6bf29,41,2022-02-12_13h23.07.650,lexical_decision_task_DD_L3,2021.2.3,MacIntel,30.3030303,,,,,,,,,,,,0.66,1,,,,,,,,,,,,,,m,1,0.66,,,,,,,,-0.268888889,-0.385555556,0,0,0,,0,52,52,34,1,CANYON,C,old,m,./images/CANYON.png,,,,,,,,,,,,,,,,,,,,,,,,,,,,,,,,,,
,,,,,,,,,,,,,,,,,60805973b343054738e6bf29,41,2022-02-12_13h23.07.650,lexical_decision_task_DD_L3,2021.2.3,MacIntel,30.3030303,,,,,,,,,,,,0.715,1,,,,,,,,,,,,,,m,1,0.715,,,,,,,,-0.268888889,-0.385555556,0,0,0,,0,53,53,14,1,PICKLE,HB,old,m,./images/PICKLEHB.png,,,,,,,,,,,,,,,,,,,,,,,,,,,,,,,,,,
,,,,,,,,,,,,,,,,,60805973b343054738e6bf29,41,2022-02-12_13h23.07.650,lexical_decision_task_DD_L3,2021.2.3,MacIntel,30.3030303,,,,,,,,,,,,0.804,1,,,,,,,,,,,,,,z,1,0.804,,,,,,,,-0.268888889,-0.385555556,0,0,0,,0,54,54,107,1,FASKS,LB,old,z,./images/FASKSLB.png,,,,,,,,,,,,,,,,,,,,,,,,,,,,,,,,,,
,,,,,,,,,,,,,,,,,60805973b343054738e6bf29,41,2022-02-12_13h23.07.650,lexical_decision_task_DD_L3,2021.2.3,MacIntel,30.3030303,,,,,,,,,,,,0.635,1,,,,,,,,,,,,,,m,1,0.635,,,,,,,,-0.268888889,-0.385555556,0,0,0,,0,55,55,46,1,PEARL,C,old,m,./images/PEARL.png,,,,,,,,,,,,,,,,,,,,,,,,,,,,,,,,,,
,,,,,,,,,,,,,,,,,60805973b343054738e6bf29,41,2022-02-12_13h23.07.650,lexical_decision_task_DD_L3,2021.2.3,MacIntel,30.3030303,,,,,,,,,,,,0.584,1,,,,,,,,,,,,,,z,1,0.584,,,,,,,,-0.268888889,-0.385555556,0,0,0,,0,56,56,116,1,BALGY,LB,old,z,./images/BALGYLB.png,,,,,,,,,,,,,,,,,,,,,,,,,,,,,,,,,,
,,,,,,,,,,,,,,,,,60805973b343054738e6bf29,41,2022-02-12_13h23.07.650,lexical_decision_task_DD_L3,2021.2.3,MacIntel,30.3030303,,,,,,,,,,,,0.537,1,,,,,,,,,,,,,,z,1,0.537,,,,,,,,-0.268888889,-0.385555556,0,0,0,,0,57,57,119,1,PAFER,LB,old,z,./images/PAFERLB.png,,,,,,,,,,,,,,,,,,,,,,,,,,,,,,,,,,
,,,,,,,,,,,,,,,,,60805973b343054738e6bf29,41,2022-02-12_13h23.07.650,lexical_decision_task_DD_L3,2021.2.3,MacIntel,30.3030303,,,,,,,,,,,,0.918,1,,,,,,,,,,,,,,z,1,0.918,,,,,,,,-0.268888889,-0.385555556,0,0,0,,0,58,58,106,1,CLUMS,HB,old,z,./images/CLUMSHB.png,,,,,,,,,,,,,,,,,,,,,,,,,,,,,,,,,,
,,,,,,,,,,,,,,,,,60805973b343054738e6bf29,41,2022-02-12_13h23.07.650,lexical_decision_task_DD_L3,2021.2.3,MacIntel,30.3030303,,,,,,,,,,,,0.571,1,,,,,,,,,,,,,,m,1,0.571,,,,,,,,-0.268888889,-0.385555556,0,0,0,,0,59,59,25,1,WRIST,C,old,m,./images/WRIST.png,,,,,,,,,,,,,,,,,,,,,,,,,,,,,,,,,,
,,,,,,,,,,,,,,,,,60805973b343054738e6bf29,41,2022-02-12_13h23.07.650,lexical_decision_task_DD_L3,2021.2.3,MacIntel,30.3030303,,,,,,,,,,,,0.863,1,,,,,,,,,,,,,,z,1,0.863,,,,,,,,-0.268888889,-0.385555556,0,0,0,,0,60,60,139,1,BLEAR,HB,old,z,./images/BLEARHB.png,,,,,,,,,,,,,,,,,,,,,,,,,,,,,,,,,,
,,,,,,,,,,,,,,,,,60805973b343054738e6bf29,41,2022-02-12_13h23.07.650,lexical_decision_task_DD_L3,2021.2.3,MacIntel,30.3030303,,,,,,,,,,,,0.65,1,,,,,,,,,,,,,,m,1,0.65,,,,,,,,-0.268888889,-0.385555556,0,0,0,,0,61,61,35,1,PEACH,HB,old,m,./images/PEACHHB.png,,,,,,,,,,,,,,,,,,,,,,,,,,,,,,,,,,
,,,,,,,,,,,,,,,,,60805973b343054738e6bf29,41,2022-02-12_13h23.07.650,lexical_decision_task_DD_L3,2021.2.3,MacIntel,30.3030303,,,,,,,,,,,,0.696,1,,,,,,,,,,,,,,m,1,0.696,,,,,,,,-0.268888889,-0.385555556,0,0,0,,0,62,62,6,1,SQUARE,LB,old,m,./images/SQUARELB.png,,,,,,,,,,,,,,,,,,,,,,,,,,,,,,,,,,
,,,,,,,,,,,,,,,,,60805973b343054738e6bf29,41,2022-02-12_13h23.07.650,lexical_decision_task_DD_L3,2021.2.3,MacIntel,30.3030303,,,,,,,,,,,,0.741,1,,,,,,,,,,,,,,z,1,0.741,,,,,,,,-0.268888889,-0.385555556,0,0,0,,0,63,63,151,1,TINKY,HB,old,z,./images/TINKYHB.png,,,,,,,,,,,,,,,,,,,,,,,,,,,,,,,,,,
,,,,,,,,,,,,,,,,,60805973b343054738e6bf29,41,2022-02-12_13h23.07.650,lexical_decision_task_DD_L3,2021.2.3,MacIntel,30.3030303,,,,,,,,,,,,0.651,1,,,,,,,,,,,,,,z,1,0.651,,,,,,,,-0.268888889,-0.385555556,0,0,0,,0,64,64,158,1,EGECT,LB,old,z,./images/EGECTLB.png,,,,,,,,,,,,,,,,,,,,,,,,,,,,,,,,,,
,,,,,,,,,,,,,,,,,60805973b343054738e6bf29,41,2022-02-12_13h23.07.650,lexical_decision_task_DD_L3,2021.2.3,MacIntel,30.3030303,,,,,,,,,,,,0.787,1,,,,,,,,,,,,,,m,1,0.787,,,,,,,,-0.268888889,-0.385555556,0,0,0,,0,65,65,38,1,LADDER,HB,old,m,./images/LADDERHB.png,,,,,,,,,,,,,,,,,,,,,,,,,,,,,,,,,,
,,,,,,,,,,,,,,,,,60805973b343054738e6bf29,41,2022-02-12_13h23.07.650,lexical_decision_task_DD_L3,2021.2.3,MacIntel,30.3030303,,,,,,,,,,,,0.634,1,,,,,,,,,,,,,,m,1,0.634,,,,,,,,-0.268888889,-0.385555556,0,0,0,,0,66,66,51,1,ONION,LB,old,m,./images/ONIONLB.png,,,,,,,,,,,,,,,,,,,,,,,,,,,,,,,,,,
,,,,,,,,,,,,,,,,,60805973b343054738e6bf29,41,2022-02-12_13h23.07.650,lexical_decision_task_DD_L3,2021.2.3,MacIntel,30.3030303,,,,,,,,,,,,0.753,1,,,,,,,,,,,,,,z,1,0.753,,,,,,,,-0.268888889,-0.385555556,0,0,0,,0,67,67,138,1,PLICE,C,old,z,./images/PLICE.png,,,,,,,,,,,,,,,,,,,,,,,,,,,,,,,,,,
,,,,,,,,,,,,,,,,,60805973b343054738e6bf29,41,2022-02-12_13h23.07.650,lexical_decision_task_DD_L3,2021.2.3,MacIntel,30.3030303,,,,,,,,,,,,0.613,1,,,,,,,,,,,,,,m,1,0.613,,,,,,,,-0.268888889,-0.385555556,0,0,0,,0,68,68,10,1,BELLY,C,old,m,./images/BELLY.png,,,,,,,,,,,,,,,,,,,,,,,,,,,,,,,,,,
,,,,,,,,,,,,,,,,,60805973b343054738e6bf29,41,2022-02-12_13h23.07.650,lexical_decision_task_DD_L3,2021.2.3,MacIntel,30.3030303,,,,,,,,,,,,0.589,1,,,,,,,,,,,,,,z,1,0.589,,,,,,,,-0.268888889,-0.385555556,0,0,0,,0,69,69,126,1,GUELS,C,old,z,./images/GUELS.png,,,,,,,,,,,,,,,,,,,,,,,,,,,,,,,,,,
,,,,,,,,,,,,,,,,,60805973b343054738e6bf29,41,2022-02-12_13h23.07.650,lexical_decision_task_DD_L3,2021.2.3,MacIntel,30.3030303,,,,,,,,,,,,0.958,1,,,,,,,,,,,,,,z,1,0.958,,,,,,,,-0.268888889,-0.385555556,0,0,0,,0,70,70,163,1,GAMBA,HB,old,z,./images/GAMBAHB.png,,,,,,,,,,,,,,,,,,,,,,,,,,,,,,,,,,
,,,,,,,,,,,,,,,,,60805973b343054738e6bf29,41,2022-02-12_13h23.07.650,lexical_decision_task_DD_L3,2021.2.3,MacIntel,30.3030303,,,,,,,,,,,,0.837,1,,,,,,,,,,,,,,m,1,0.837,,,,,,,,-0.268888889,-0.385555556,0,0,0,,0,71,71,43,1,MOSQUE,C,old,m,./images/MOSQUE.png,,,,,,,,,,,,,,,,,,,,,,,,,,,,,,,,,,
,,,,,,,,,,,,,,,,,60805973b343054738e6bf29,41,2022-02-12_13h23.07.650,lexical_decision_task_DD_L3,2021.2.3,MacIntel,30.3030303,,,,,,,,,,,,0.561,1,,,,,,,,,,,,,,m,1,0.561,,,,,,,,-0.268888889,-0.385555556,0,0,0,,0,72,72,13,1,MOTOR,C,old,m,./images/MOTOR.png,,,,,,,,,,,,,,,,,,,,,,,,,,,,,,,,,,
,,,,,,,,,,,,,,,,,60805973b343054738e6bf29,41,2022-02-12_13h23.07.650,lexical_decision_task_DD_L3,2021.2.3,MacIntel,30.3030303,,,,,,,,,,,,0.579,1,,,,,,,,,,,,,,m,1,0.579,,,,,,,,-0.268888889,-0.385555556,0,0,0,,0,73,73,48,1,SPORT,LB,old,m,./images/SPORTLB.png,,,,,,,,,,,,,,,,,,,,,,,,,,,,,,,,,,
,,,,,,,,,,,,,,,,,60805973b343054738e6bf29,41,2022-02-12_13h23.07.650,lexical_decision_task_DD_L3,2021.2.3,MacIntel,30.3030303,,,,,,,,,,,,0.671,1,,,,,,,,,,,,,,m,1,0.671,,,,,,,,-0.268888889,-0.385555556,0,0,0,,0,74,74,66,1,SWEAT,LB,old,m,./images/SWEATLB.png,,,,,,,,,,,,,,,,,,,,,,,,,,,,,,,,,,
,,,,,,,,,,,,,,,,,60805973b343054738e6bf29,41,2022-02-12_13h23.07.650,lexical_decision_task_DD_L3,2021.2.3,MacIntel,30.3030303,,,,,,,,,,,,0.575,1,,,,,,,,,,,,,,m,1,0.575,,,,,,,,-0.268888889,-0.385555556,0,0,0,,0,75,75,0,1,TOMATO,LB,old,m,./images/TOMATOLB.png,,,,,,,,,,,,,,,,,,,,,,,,,,,,,,,,,,
,,,,,,,,,,,,,,,,,60805973b343054738e6bf29,41,2022-02-12_13h23.07.650,lexical_decision_task_DD_L3,2021.2.3,MacIntel,30.3030303,,,,,,,,,,,,0.683,1,,,,,,,,,,,,,,z,1,0.683,,,,,,,,-0.268888889,-0.385555556,0,0,0,,0,76,76,100,1,DRIBS,HB,old,z,./images/DRIBSHB.png,,,,,,,,,,,,,,,,,,,,,,,,,,,,,,,,,,
,,,,,,,,,,,,,,,,,60805973b343054738e6bf29,41,2022-02-12_13h23.07.650,lexical_decision_task_DD_L3,2021.2.3,MacIntel,30.3030303,,,,,,,,,,,,0.527,0,,,,,,,,,,,,,,m,0,0.527,,,,,,,,-0.268888889,-0.385555556,0,0,0,,0,77,77,110,1,CRUNK,LB,old,z,./images/CRUNKLB.png,,,,,,,,,,,,,,,,,,,,,,,,,,,,,,,,,,
,,,,,,,,,,,,,,,,,60805973b343054738e6bf29,41,2022-02-12_13h23.07.650,lexical_decision_task_DD_L3,2021.2.3,MacIntel,30.3030303,,,,,,,,,,,,0.593,1,,,,,,,,,,,,,,m,1,0.593,,,,,,,,-0.268888889,-0.385555556,0,0,0,,0,78,78,76,1,INFANT,C,old,m,./images/INFANT.png,,,,,,,,,,,,,,,,,,,,,,,,,,,,,,,,,,
,,,,,,,,,,,,,,,,,60805973b343054738e6bf29,41,2022-02-12_13h23.07.650,lexical_decision_task_DD_L3,2021.2.3,MacIntel,30.3030303,,,,,,,,,,,,0.561,1,,,,,,,,,,,,,,z,1,0.561,,,,,,,,-0.268888889,-0.385555556,0,0,0,,0,79,79,104,1,GITTY,LB,old,z,./images/GITTYLB.png,,,,,,,,,,,,,,,,,,,,,,,,,,,,,,,,,,
,,,,,,,,,,,,,,,,,60805973b343054738e6bf29,41,2022-02-12_13h23.07.650,lexical_decision_task_DD_L3,2021.2.3,MacIntel,30.3030303,,,,,,,,,,,,0.65,1,,,,,,,,,,,,,,m,1,0.65,,,,,,,,-0.268888889,-0.385555556,0,0,0,,0,80,80,28,1,FALCON,C,old,m,./images/FALCON.png,,,,,,,,,,,,,,,,,,,,,,,,,,,,,,,,,,
,,,,,,,,,,,,,,,,,60805973b343054738e6bf29,41,2022-02-12_13h23.07.650,lexical_decision_task_DD_L3,2021.2.3,MacIntel,30.3030303,,,,,,,,,,,,0.947,1,,,,,,,,,,,,,,z,1,0.947,,,,,,,,-0.268888889,-0.385555556,0,0,0,,0,81,81,124,1,TUNCH,HB,old,z,./images/TUNCHHB.png,,,,,,,,,,,,,,,,,,,,,,,,,,,,,,,,,,
,,,,,,,,,,,,,,,,,60805973b343054738e6bf29,41,2022-02-12_13h23.07.650,lexical_decision_task_DD_L3,2021.2.3,MacIntel,30.3030303,,,,,,,,,,,,0.625,1,,,,,,,,,,,,,,z,1,0.625,,,,,,,,-0.268888889,-0.385555556,0,0,0,,0,82,82,101,1,GLEET,LB,old,z,./images/GLEETLB.png,,,,,,,,,,,,,,,,,,,,,,,,,,,,,,,,,,
,,,,,,,,,,,,,,,,,60805973b343054738e6bf29,41,2022-02-12_13h23.07.650,lexical_decision_task_DD_L3,2021.2.3,MacIntel,30.3030303,,,,,,,,,,,,0.558,1,,,,,,,,,,,,,,m,1,0.558,,,,,,,,-0.268888889,-0.385555556,0,0,0,space,0,83,83,12,1,SHORE,LB,old,m,./images/SHORELB.png,7.135,,,,,,,,,,,,,,,,,,,,,,,,,,,,,,,,,
,,,,,,,,,,,,,,,,,60805973b343054738e6bf29,41,2022-02-12_13h23.07.650,lexical_decision_task_DD_L3,2021.2.3,MacIntel,30.3030303,,,,,,,,,,,,3.764,1,,,,,,,,,,,,,,m,1,3.764,,,,,,,,-0.268888889,-0.385555556,0,0,0,,0,84,84,71,1,PIMPLE,HB,old,m,./images/PIMPLEHB.png,,,,,,,,,,,,,,,,,,,,,,,,,,,,,,,,,,
,,,,,,,,,,,,,,,,,60805973b343054738e6bf29,41,2022-02-12_13h23.07.650,lexical_decision_task_DD_L3,2021.2.3,MacIntel,30.3030303,,,,,,,,,,,,0.626,1,,,,,,,,,,,,,,z,1,0.626,,,,,,,,-0.268888889,-0.385555556,0,0,0,,0,85,85,159,1,CUDDY,C,old,z,./images/CUDDY.png,,,,,,,,,,,,,,,,,,,,,,,,,,,,,,,,,,
,,,,,,,,,,,,,,,,,60805973b343054738e6bf29,41,2022-02-12_13h23.07.650,lexical_decision_task_DD_L3,2021.2.3,MacIntel,30.3030303,,,,,,,,,,,,1.069,0,,,,,,,,,,,,,,z,0,1.069,,,,,,,,-0.268888889,-0.385555556,0,0,0,,0,86,86,17,1,SKIING,HB,old,m,./images/SKIINGHB.png,,,,,,,,,,,,,,,,,,,,,,,,,,,,,,,,,,
,,,,,,,,,,,,,,,,,60805973b343054738e6bf29,41,2022-02-12_13h23.07.650,lexical_decision_task_DD_L3,2021.2.3,MacIntel,30.3030303,,,,,,,,,,,,0.796,1,,,,,,,,,,,,,,m,1,0.796,,,,,,,,-0.268888889,-0.385555556,0,0,0,,0,87,87,44,1,LIZARD,HB,old,m,./images/LIZARDHB.png,,,,,,,,,,,,,,,,,,,,,,,,,,,,,,,,,,
,,,,,,,,,,,,,,,,,60805973b343054738e6bf29,41,2022-02-12_13h23.07.650,lexical_decision_task_DD_L3,2021.2.3,MacIntel,30.3030303,,,,,,,,,,,,0.674,1,,,,,,,,,,,,,,z,1,0.674,,,,,,,,-0.268888889,-0.385555556,0,0,0,,0,88,88,155,1,CANGY,LB,old,z,./images/CANGYLB.png,,,,,,,,,,,,,,,,,,,,,,,,,,,,,,,,,,
,,,,,,,,,,,,,,,,,60805973b343054738e6bf29,41,2022-02-12_13h23.07.650,lexical_decision_task_DD_L3,2021.2.3,MacIntel,30.3030303,,,,,,,,,,,,1.738,1,,,,,,,,,,,,,,z,1,1.738,,,,,,,,-0.268888889,-0.385555556,0,0,0,,0,89,89,130,1,CRILL,HB,old,z,./images/CRILLHB.png,,,,,,,,,,,,,,,,,,,,,,,,,,,,,,,,,,
,,,,,,,,,,,,,,,,,60805973b343054738e6bf29,41,2022-02-12_13h23.07.650,lexical_decision_task_DD_L3,2021.2.3,MacIntel,30.3030303,,,,,,,,,,,,0.845,1,,,,,,,,,,,,,,m,1,0.845,,,,,,,,-0.268888889,-0.385555556,0,0,0,,0,90,90,23,1,WALRUS,HB,old,m,./images/WALRUSHB.png,,,,,,,,,,,,,,,,,,,,,,,,,,,,,,,,,,
,,,,,,,,,,,,,,,,,60805973b343054738e6bf29,41,2022-02-12_13h23.07.650,lexical_decision_task_DD_L3,2021.2.3,MacIntel,30.3030303,,,,,,,,,,,,0.968,1,,,,,,,,,,,,,,z,1,0.968,,,,,,,,-0.268888889,-0.385555556,0,0,0,,0,91,91,115,1,MAWNS,HB,old,z,./images/MAWNSHB.png,,,,,,,,,,,,,,,,,,,,,,,,,,,,,,,,,,
,,,,,,,,,,,,,,,,,60805973b343054738e6bf29,41,2022-02-12_13h23.07.650,lexical_decision_task_DD_L3,2021.2.3,MacIntel,30.3030303,,,,,,,,,,,,0.576,1,,,,,,,,,,,,,,m,1,0.576,,,,,,,,-0.268888889,-0.385555556,0,0,0,,0,92,92,67,1,SAILOR,C,old,m,./images/SAILOR.png,,,,,,,,,,,,,,,,,,,,,,,,,,,,,,,,,,
,,,,,,,,,,,,,,,,,60805973b343054738e6bf29,41,2022-02-12_13h23.07.650,lexical_decision_task_DD_L3,2021.2.3,MacIntel,30.3030303,,,,,,,,,,,,0.683,1,,,,,,,,,,,,,,z,1,0.683,,,,,,,,-0.268888889,-0.385555556,0,0,0,,0,93,93,133,1,POWDY,HB,old,z,./images/POWDYHB.png,,,,,,,,,,,,,,,,,,,,,,,,,,,,,,,,,,
,,,,,,,,,,,,,,,,,60805973b343054738e6bf29,41,2022-02-12_13h23.07.650,lexical_decision_task_DD_L3,2021.2.3,MacIntel,30.3030303,,,,,,,,,,,,1.006,1,,,,,,,,,,,,,,z,1,1.006,,,,,,,,-0.268888889,-0.385555556,0,0,0,,0,94,94,127,1,NINDY,HB,old,z,./images/NINDYHB.png,,,,,,,,,,,,,,,,,,,,,,,,,,,,,,,,,,
,,,,,,,,,,,,,,,,,60805973b343054738e6bf29,41,2022-02-12_13h23.07.650,lexical_decision_task_DD_L3,2021.2.3,MacIntel,30.3030303,,,,,,,,,,,,0.98,0,,,,,,,,,,,,,,m,0,0.98,,,,,,,,-0.268888889,-0.385555556,0,0,0,,0,95,95,120,1,RINED,C,old,z,./images/RINED.png,,,,,,,,,,,,,,,,,,,,,,,,,,,,,,,,,,
,,,,,,,,,,,,,,,,,60805973b343054738e6bf29,41,2022-02-12_13h23.07.650,lexical_decision_task_DD_L3,2021.2.3,MacIntel,30.3030303,,,,,,,,,,,,0.668,1,,,,,,,,,,,,,,m,1,0.668,,,,,,,,-0.268888889,-0.385555556,0,0,0,,0,96,96,33,1,MAGGOT,LB,old,m,./images/MAGGOTLB.png,,,,,,,,,,,,,,,,,,,,,,,,,,,,,,,,,,
,,,,,,,,,,,,,,,,,60805973b343054738e6bf29,41,2022-02-12_13h23.07.650,lexical_decision_task_DD_L3,2021.2.3,MacIntel,30.3030303,,,,,,,,,,,,0.865,1,,,,,,,,,,,,,,m,1,0.865,,,,,,,,-0.268888889,-0.385555556,0,0,0,,0,97,97,18,1,JAGUAR,LB,old,m,./images/JAGUARLB.png,,,,,,,,,,,,,,,,,,,,,,,,,,,,,,,,,,
,,,,,,,,,,,,,,,,,60805973b343054738e6bf29,41,2022-02-12_13h23.07.650,lexical_decision_task_DD_L3,2021.2.3,MacIntel,30.3030303,,,,,,,,,,,,0.858,1,,,,,,,,,,,,,,m,1,0.858,,,,,,,,-0.268888889,-0.385555556,0,0,0,,0,98,98,47,1,BERRY,HB,old,m,./images/BERRYHB.png,,,,,,,,,,,,,,,,,,,,,,,,,,,,,,,,,,
,,,,,,,,,,,,,,,,,60805973b343054738e6bf29,41,2022-02-12_13h23.07.650,lexical_decision_task_DD_L3,2021.2.3,MacIntel,30.3030303,,,,,,,,,,,,1.026,1,,,,,,,,,,,,,,m,1,1.026,,,,,,,,-0.268888889,-0.385555556,0,0,0,,0,99,99,80,1,WEASEL,HB,old,m,./images/WEASELHB.png,,,,,,,,,,,,,,,,,,,,,,,,,,,,,,,,,,
,,,,,,,,,,,,,,,,,60805973b343054738e6bf29,41,2022-02-12_13h23.07.650,lexical_decision_task_DD_L3,2021.2.3,MacIntel,30.3030303,,,,,,,,,,,,0.603,1,,,,,,,,,,,,,,z,1,0.603,,,,,,,,-0.268888889,-0.385555556,0,0,0,,0,100,100,111,1,HOSSE,C,old,z,./images/HOSSE.png,,,,,,,,,,,,,,,,,,,,,,,,,,,,,,,,,,
,,,,,,,,,,,,,,,,,60805973b343054738e6bf29,41,2022-02-12_13h23.07.650,lexical_decision_task_DD_L3,2021.2.3,MacIntel,30.3030303,,,,,,,,,,,,0.876,1,,,,,,,,,,,,,,m,1,0.876,,,,,,,,-0.268888889,-0.385555556,0,0,0,,0,101,101,31,1,QUILL,C,old,m,./images/QUILL.png,,,,,,,,,,,,,,,,,,,,,,,,,,,,,,,,,,
,,,,,,,,,,,,,,,,,60805973b343054738e6bf29,41,2022-02-12_13h23.07.650,lexical_decision_task_DD_L3,2021.2.3,MacIntel,30.3030303,,,,,,,,,,,,0.625,1,,,,,,,,,,,,,,z,1,0.625,,,,,,,,-0.268888889,-0.385555556,0,0,0,,0,102,102,144,1,NAIRY,C,old,z,./images/NAIRY.png,,,,,,,,,,,,,,,,,,,,,,,,,,,,,,,,,,
,,,,,,,,,,,,,,,,,60805973b343054738e6bf29,41,2022-02-12_13h23.07.650,lexical_decision_task_DD_L3,2021.2.3,MacIntel,30.3030303,,,,,,,,,,,,0.813,1,,,,,,,,,,,,,,m,1,0.813,,,,,,,,-0.268888889,-0.385555556,0,0,0,,0,103,103,21,1,KIDNEY,LB,old,m,./images/KIDNEYLB.png,,,,,,,,,,,,,,,,,,,,,,,,,,,,,,,,,,
,,,,,,,,,,,,,,,,,60805973b343054738e6bf29,41,2022-02-12_13h23.07.650,lexical_decision_task_DD_L3,2021.2.3,MacIntel,30.3030303,,,,,,,,,,,,0.593,1,,,,,,,,,,,,,,m,1,0.593,,,,,,,,-0.268888889,-0.385555556,0,0,0,,0,104,104,24,1,SCREW,LB,old,m,./images/SCREWLB.png,,,,,,,,,,,,,,,,,,,,,,,,,,,,,,,,,,
,,,,,,,,,,,,,,,,,60805973b343054738e6bf29,41,2022-02-12_13h23.07.650,lexical_decision_task_DD_L3,2021.2.3,MacIntel,30.3030303,,,,,,,,,,,,0.913,1,,,,,,,,,,,,,,z,1,0.913,,,,,,,,-0.268888889,-0.385555556,0,0,0,,0,105,105,154,1,THINT,HB,old,z,./images/THINTHB.png,,,,,,,,,,,,,,,,,,,,,,,,,,,,,,,,,,
,,,,,,,,,,,,,,,,,60805973b343054738e6bf29,41,2022-02-12_13h23.07.650,lexical_decision_task_DD_L3,2021.2.3,MacIntel,30.3030303,,,,,,,,,,,,1.1,1,,,,,,,,,,,,,,z,1,1.1,,,,,,,,-0.268888889,-0.385555556,0,0,0,,0,106,106,166,1,SHORY,HB,old,z,./images/SHORYHB.png,,,,,,,,,,,,,,,,,,,,,,,,,,,,,,,,,,
,,,,,,,,,,,,,,,,,60805973b343054738e6bf29,41,2022-02-12_13h23.07.650,lexical_decision_task_DD_L3,2021.2.3,MacIntel,30.3030303,,,,,,,,,,,,0.563,1,,,,,,,,,,,,,,z,1,0.563,,,,,,,,-0.268888889,-0.385555556,0,0,0,,0,107,107,96,1,KEAMS,C,old,z,./images/KEAMS.png,,,,,,,,,,,,,,,,,,,,,,,,,,,,,,,,,,
,,,,,,,,,,,,,,,,,60805973b343054738e6bf29,41,2022-02-12_13h23.07.650,lexical_decision_task_DD_L3,2021.2.3,MacIntel,30.3030303,,,,,,,,,,,,0.695,1,,,,,,,,,,,,,,z,1,0.695,,,,,,,,-0.268888889,-0.385555556,0,0,0,,0,108,108,123,1,SEDGE,C,old,z,./images/SEDGE.png,,,,,,,,,,,,,,,,,,,,,,,,,,,,,,,,,,
,,,,,,,,,,,,,,,,,60805973b343054738e6bf29,41,2022-02-12_13h23.07.650,lexical_decision_task_DD_L3,2021.2.3,MacIntel,30.3030303,,,,,,,,,,,,0.612,1,,,,,,,,,,,,,,m,1,0.612,,,,,,,,-0.268888889,-0.385555556,0,0,0,,0,109,109,70,1,URINE,C,old,m,./images/URINE.png,,,,,,,,,,,,,,,,,,,,,,,,,,,,,,,,,,
,,,,,,,,,,,,,,,,,60805973b343054738e6bf29,41,2022-02-12_13h23.07.650,lexical_decision_task_DD_L3,2021.2.3,MacIntel,30.3030303,,,,,,,,,,,,0.744,1,,,,,,,,,,,,,,z,1,0.744,,,,,,,,-0.268888889,-0.385555556,0,0,0,,0,110,110,143,1,MONGS,LB,old,z,./images/MONGSLB.png,,,,,,,,,,,,,,,,,,,,,,,,,,,,,,,,,,
,,,,,,,,,,,,,,,,,60805973b343054738e6bf29,41,2022-02-12_13h23.07.650,lexical_decision_task_DD_L3,2021.2.3,MacIntel,30.3030303,,,,,,,,,,,,0.751,1,,,,,,,,,,,,,,z,1,0.751,,,,,,,,-0.268888889,-0.385555556,0,0,0,,0,111,111,156,1,HIXES,C,old,z,./images/HIXES.png,,,,,,,,,,,,,,,,,,,,,,,,,,,,,,,,,,
,,,,,,,,,,,,,,,,,60805973b343054738e6bf29,41,2022-02-12_13h23.07.650,lexical_decision_task_DD_L3,2021.2.3,MacIntel,30.3030303,,,,,,,,,,,,0.65,1,,,,,,,,,,,,,,z,1,0.65,,,,,,,,-0.268888889,-0.385555556,0,0,0,,0,112,112,102,1,DULLE,C,old,z,./images/DULLE.png,,,,,,,,,,,,,,,,,,,,,,,,,,,,,,,,,,
,,,,,,,,,,,,,,,,,60805973b343054738e6bf29,41,2022-02-12_13h23.07.650,lexical_decision_task_DD_L3,2021.2.3,MacIntel,30.3030303,,,,,,,,,,,,0.681,1,,,,,,,,,,,,,,z,1,0.681,,,,,,,,-0.268888889,-0.385555556,0,0,0,,0,113,113,103,1,FLORT,HB,old,z,./images/FLORTHB.png,,,,,,,,,,,,,,,,,,,,,,,,,,,,,,,,,,
,,,,,,,,,,,,,,,,,60805973b343054738e6bf29,41,2022-02-12_13h23.07.650,lexical_decision_task_DD_L3,2021.2.3,MacIntel,30.3030303,,,,,,,,,,,,0.834,1,,,,,,,,,,,,,,m,1,0.834,,,,,,,,-0.268888889,-0.385555556,0,0,0,,0,114,114,56,1,PACKET,HB,old,m,./images/PACKETHB.png,,,,,,,,,,,,,,,,,,,,,,,,,,,,,,,,,,
,,,,,,,,,,,,,,,,,60805973b343054738e6bf29,41,2022-02-12_13h23.07.650,lexical_decision_task_DD_L3,2021.2.3,MacIntel,30.3030303,,,,,,,,,,,,0.602,1,,,,,,,,,,,,,,m,1,0.602,,,,,,,,-0.268888889,-0.385555556,0,0,0,,0,115,115,4,1,MUSCLE,C,old,m,./images/MUSCLE.png,,,,,,,,,,,,,,,,,,,,,,,,,,,,,,,,,,
,,,,,,,,,,,,,,,,,60805973b343054738e6bf29,41,2022-02-12_13h23.07.650,lexical_decision_task_DD_L3,2021.2.3,MacIntel,30.3030303,,,,,,,,,,,,0.62,1,,,,,,,,,,,,,,z,1,0.62,,,,,,,,-0.268888889,-0.385555556,0,0,0,,0,116,116,134,1,TROSS,LB,old,z,./images/TROSSLB.png,,,,,,,,,,,,,,,,,,,,,,,,,,,,,,,,,,
,,,,,,,,,,,,,,,,,60805973b343054738e6bf29,41,2022-02-12_13h23.07.650,lexical_decision_task_DD_L3,2021.2.3,MacIntel,30.3030303,,,,,,,,,,,,0.544,1,,,,,,,,,,,,,,z,1,0.544,,,,,,,,-0.268888889,-0.385555556,0,0,0,,0,117,117,131,1,NACES,LB,old,z,./images/NACESLB.png,,,,,,,,,,,,,,,,,,,,,,,,,,,,,,,,,,
,,,,,,,,,,,,,,,,,60805973b343054738e6bf29,41,2022-02-12_13h23.07.650,lexical_decision_task_DD_L3,2021.2.3,MacIntel,30.3030303,,,,,,,,,,,,0.657,1,,,,,,,,,,,,,,m,1,0.657,,,,,,,,-0.268888889,-0.385555556,0,0,0,,0,118,118,22,1,MELON,C,old,m,./images/MELON.png,,,,,,,,,,,,,,,,,,,,,,,,,,,,,,,,,,
,,,,,,,,,,,,,,,,,60805973b343054738e6bf29,41,2022-02-12_13h23.07.650,lexical_decision_task_DD_L3,2021.2.3,MacIntel,30.3030303,,,,,,,,,,,,0.652,1,,,,,,,,,,,,,,z,1,0.652,,,,,,,,-0.268888889,-0.385555556,0,0,0,,0,119,119,112,1,MYING,HB,old,z,./images/MYINGHB.png,,,,,,,,,,,,,,,,,,,,,,,,,,,,,,,,,,
,,,,,,,,,,,,,,,,,60805973b343054738e6bf29,41,2022-02-12_13h23.07.650,lexical_decision_task_DD_L3,2021.2.3,MacIntel,30.3030303,,,,,,,,,,,,0.562,1,,,,,,,,,,,,,,z,1,0.562,,,,,,,,-0.268888889,-0.385555556,0,0,0,,0,120,120,161,1,BLAPS,LB,old,z,./images/BLAPSLB.png,,,,,,,,,,,,,,,,,,,,,,,,,,,,,,,,,,
,,,,,,,,,,,,,,,,,60805973b343054738e6bf29,41,2022-02-12_13h23.07.650,lexical_decision_task_DD_L3,2021.2.3,MacIntel,30.3030303,,,,,,,,,,,,0.585,1,,,,,,,,,,,,,,z,1,0.585,,,,,,,,-0.268888889,-0.385555556,0,0,0,,0,121,121,84,1,HAXES,C,old,z,./images/HAXES.png,,,,,,,,,,,,,,,,,,,,,,,,,,,,,,,,,,
,,,,,,,,,,,,,,,,,60805973b343054738e6bf29,41,2022-02-12_13h23.07.650,lexical_decision_task_DD_L3,2021.2.3,MacIntel,30.3030303,,,,,,,,,,,,0.713,1,,,,,,,,,,,,,,z,1,0.713,,,,,,,,-0.268888889,-0.385555556,0,0,0,,0,122,122,118,1,BAVEL,HB,old,z,./images/BAVELHB.png,,,,,,,,,,,,,,,,,,,,,,,,,,,,,,,,,,
,,,,,,,,,,,,,,,,,60805973b343054738e6bf29,41,2022-02-12_13h23.07.650,lexical_decision_task_DD_L3,2021.2.3,MacIntel,30.3030303,,,,,,,,,,,,0.622,1,,,,,,,,,,,,,,z,1,0.622,,,,,,,,-0.268888889,-0.385555556,0,0,0,,0,123,123,109,1,BURGE,HB,old,z,./images/BURGEHB.png,,,,,,,,,,,,,,,,,,,,,,,,,,,,,,,,,,
,,,,,,,,,,,,,,,,,60805973b343054738e6bf29,41,2022-02-12_13h23.07.650,lexical_decision_task_DD_L3,2021.2.3,MacIntel,30.3030303,,,,,,,,,,,,0.6,0,,,,,,,,,,,,,,z,0,0.6,,,,,,,,-0.268888889,-0.385555556,0,0,0,,0,124,124,74,1,CEMENT,HB,old,m,./images/CEMENTHB.png,,,,,,,,,,,,,,,,,,,,,,,,,,,,,,,,,,
,,,,,,,,,,,,,,,,,60805973b343054738e6bf29,41,2022-02-12_13h23.07.650,lexical_decision_task_DD_L3,2021.2.3,MacIntel,30.3030303,,,,,,,,,,,,0.702,1,,,,,,,,,,,,,,z,1,0.702,,,,,,,,-0.268888889,-0.385555556,0,0,0,space,0,125,125,105,1,MOKER,C,old,z,./images/MOKER.png,7.903,,,,,,,,,,,,,,,,,,,,,,,,,,,,,,,,,
,,,,,,,,,,,,,,,,,60805973b343054738e6bf29,41,2022-02-12_13h23.07.650,lexical_decision_task_DD_L3,2021.2.3,MacIntel,30.3030303,,,,,,,,,,,,0.6,1,,,,,,,,,,,,,,m,1,0.6,,,,,,,,-0.268888889,-0.385555556,0,0,0,,0,126,126,69,1,COOKER,LB,old,m,./images/COOKERLB.png,,,,,,,,,,,,,,,,,,,,,,,,,,,,,,,,,,
,,,,,,,,,,,,,,,,,60805973b343054738e6bf29,41,2022-02-12_13h23.07.650,lexical_decision_task_DD_L3,2021.2.3,MacIntel,30.3030303,,,,,,,,,,,,0.799,1,,,,,,,,,,,,,,m,1,0.799,,,,,,,,-0.268888889,-0.385555556,0,0,0,,0,127,127,58,1,BABOON,C,old,m,./images/BABOON.png,,,,,,,,,,,,,,,,,,,,,,,,,,,,,,,,,,
,,,,,,,,,,,,,,,,,60805973b343054738e6bf29,41,2022-02-12_13h23.07.650,lexical_decision_task_DD_L3,2021.2.3,MacIntel,30.3030303,,,,,,,,,,,,1.041,1,,,,,,,,,,,,,,m,1,1.041,,,,,,,,-0.268888889,-0.385555556,0,0,0,,0,128,128,77,1,COUCH,HB,old,m,./images/COUCHHB.png,,,,,,,,,,,,,,,,,,,,,,,,,,,,,,,,,,
,,,,,,,,,,,,,,,,,60805973b343054738e6bf29,41,2022-02-12_13h23.07.650,lexical_decision_task_DD_L3,2021.2.3,MacIntel,30.3030303,,,,,,,,,,,,0.626,1,,,,,,,,,,,,,,m,1,0.626,,,,,,,,-0.268888889,-0.385555556,0,0,0,,0,129,129,81,1,POODLE,LB,old,m,./images/POODLELB.png,,,,,,,,,,,,,,,,,,,,,,,,,,,,,,,,,,
,,,,,,,,,,,,,,,,,60805973b343054738e6bf29,41,2022-02-12_13h23.07.650,lexical_decision_task_DD_L3,2021.2.3,MacIntel,30.3030303,,,,,,,,,,,,0.678,1,,,,,,,,,,,,,,z,1,0.678,,,,,,,,-0.268888889,-0.385555556,0,0,0,,0,130,130,149,1,VEASE,LB,old,z,./images/VEASELB.png,,,,,,,,,,,,,,,,,,,,,,,,,,,,,,,,,,
,,,,,,,,,,,,,,,,,60805973b343054738e6bf29,41,2022-02-12_13h23.07.650,lexical_decision_task_DD_L3,2021.2.3,MacIntel,30.3030303,,,,,,,,,,,,0.665,1,,,,,,,,,,,,,,m,1,0.665,,,,,,,,-0.268888889,-0.385555556,0,0,0,,0,131,131,19,1,DOUGH,C,old,m,./images/DOUGH.png,,,,,,,,,,,,,,,,,,,,,,,,,,,,,,,,,,
,,,,,,,,,,,,,,,,,60805973b343054738e6bf29,41,2022-02-12_13h23.07.650,lexical_decision_task_DD_L3,2021.2.3,MacIntel,30.3030303,,,,,,,,,,,,0.603,1,,,,,,,,,,,,,,m,1,0.603,,,,,,,,-0.268888889,-0.385555556,0,0,0,,0,132,132,72,1,NOOSE,LB,old,m,./images/NOOSELB.png,,,,,,,,,,,,,,,,,,,,,,,,,,,,,,,,,,
,,,,,,,,,,,,,,,,,60805973b343054738e6bf29,41,2022-02-12_13h23.07.650,lexical_decision_task_DD_L3,2021.2.3,MacIntel,30.3030303,,,,,,,,,,,,0.7,1,,,,,,,,,,,,,,z,1,0.7,,,,,,,,-0.268888889,-0.385555556,0,0,0,,0,133,133,94,1,BLANS,HB,old,z,./images/BLANSHB.png,,,,,,,,,,,,,,,,,,,,,,,,,,,,,,,,,,
,,,,,,,,,,,,,,,,,60805973b343054738e6bf29,41,2022-02-12_13h23.07.650,lexical_decision_task_DD_L3,2021.2.3,MacIntel,30.3030303,,,,,,,,,,,,0.576,1,,,,,,,,,,,,,,m,1,0.576,,,,,,,,-0.268888889,-0.385555556,0,0,0,,0,134,134,78,1,LITTER,LB,old,m,./images/LITTERLB.png,,,,,,,,,,,,,,,,,,,,,,,,,,,,,,,,,,
,,,,,,,,,,,,,,,,,60805973b343054738e6bf29,41,2022-02-12_13h23.07.650,lexical_decision_task_DD_L3,2021.2.3,MacIntel,30.3030303,,,,,,,,,,,,0.73,1,,,,,,,,,,,,,,z,1,0.73,,,,,,,,-0.268888889,-0.385555556,0,0,0,,0,135,135,91,1,SHENS,HB,old,z,./images/SHENSHB.png,,,,,,,,,,,,,,,,,,,,,,,,,,,,,,,,,,
,,,,,,,,,,,,,,,,,60805973b343054738e6bf29,41,2022-02-12_13h23.07.650,lexical_decision_task_DD_L3,2021.2.3,MacIntel,30.3030303,,,,,,,,,,,,0.667,1,,,,,,,,,,,,,,z,1,0.667,,,,,,,,-0.268888889,-0.385555556,0,0,0,,0,136,136,140,1,DOVET,LB,old,z,./images/DOVETLB.png,,,,,,,,,,,,,,,,,,,,,,,,,,,,,,,,,,
,,,,,,,,,,,,,,,,,60805973b343054738e6bf29,41,2022-02-12_13h23.07.650,lexical_decision_task_DD_L3,2021.2.3,MacIntel,30.3030303,,,,,,,,,,,,0.778,1,,,,,,,,,,,,,,z,1,0.778,,,,,,,,-0.268888889,-0.385555556,0,0,0,,0,137,137,150,1,NOOLS,C,old,z,./images/NOOLS.png,,,,,,,,,,,,,,,,,,,,,,,,,,,,,,,,,,
,,,,,,,,,,,,,,,,,60805973b343054738e6bf29,41,2022-02-12_13h23.07.650,lexical_decision_task_DD_L3,2021.2.3,MacIntel,30.3030303,,,,,,,,,,,,0.66,1,,,,,,,,,,,,,,m,1,0.66,,,,,,,,-0.268888889,-0.385555556,0,0,0,,0,138,138,54,1,TRIPOD,LB,old,m,./images/TRIPODLB.png,,,,,,,,,,,,,,,,,,,,,,,,,,,,,,,,,,
,,,,,,,,,,,,,,,,,60805973b343054738e6bf29,41,2022-02-12_13h23.07.650,lexical_decision_task_DD_L3,2021.2.3,MacIntel,30.3030303,,,,,,,,,,,,0.667,1,,,,,,,,,,,,,,z,1,0.667,,,,,,,,-0.268888889,-0.385555556,0,0,0,,0,139,139,136,1,WERVE,HB,old,z,./images/WERVEHB.png,,,,,,,,,,,,,,,,,,,,,,,,,,,,,,,,,,
,,,,,,,,,,,,,,,,,60805973b343054738e6bf29,41,2022-02-12_13h23.07.650,lexical_decision_task_DD_L3,2021.2.3,MacIntel,30.3030303,,,,,,,,,,,,0.557,1,,,,,,,,,,,,,,m,1,0.557,,,,,,,,-0.268888889,-0.385555556,0,0,0,,0,140,140,40,1,SWING,C,old,m,./images/SWING.png,,,,,,,,,,,,,,,,,,,,,,,,,,,,,,,,,,
,,,,,,,,,,,,,,,,,60805973b343054738e6bf29,41,2022-02-12_13h23.07.650,lexical_decision_task_DD_L3,2021.2.3,MacIntel,30.3030303,,,,,,,,,,,,0.619,1,,,,,,,,,,,,,,m,1,0.619,,,,,,,,-0.268888889,-0.385555556,0,0,0,,0,141,141,82,1,SUNSET,C,old,m,./images/SUNSET.png,,,,,,,,,,,,,,,,,,,,,,,,,,,,,,,,,,
,,,,,,,,,,,,,,,,,60805973b343054738e6bf29,41,2022-02-12_13h23.07.650,lexical_decision_task_DD_L3,2021.2.3,MacIntel,30.3030303,,,,,,,,,,,,0.683,1,,,,,,,,,,,,,,z,1,0.683,,,,,,,,-0.268888889,-0.385555556,0,0,0,,0,142,142,165,1,TROWN,C,old,z,./images/TROWN.png,,,,,,,,,,,,,,,,,,,,,,,,,,,,,,,,,,
,,,,,,,,,,,,,,,,,60805973b343054738e6bf29,41,2022-02-12_13h23.07.650,lexical_decision_task_DD_L3,2021.2.3,MacIntel,30.3030303,,,,,,,,,,,,0.704,1,,,,,,,,,,,,,,z,1,0.704,,,,,,,,-0.268888889,-0.385555556,0,0,0,,0,143,143,92,1,PAIMS,LB,old,z,./images/PAIMSLB.png,,,,,,,,,,,,,,,,,,,,,,,,,,,,,,,,,,
,,,,,,,,,,,,,,,,,60805973b343054738e6bf29,41,2022-02-12_13h23.07.650,lexical_decision_task_DD_L3,2021.2.3,MacIntel,30.3030303,,,,,,,,,,,,0.667,0,,,,,,,,,,,,,,z,0,0.667,,,,,,,,-0.268888889,-0.385555556,0,0,0,,0,144,144,20,1,CRADLE,HB,old,m,./images/CRADLEHB.png,,,,,,,,,,,,,,,,,,,,,,,,,,,,,,,,,,
,,,,,,,,,,,,,,,,,60805973b343054738e6bf29,41,2022-02-12_13h23.07.650,lexical_decision_task_DD_L3,2021.2.3,MacIntel,30.3030303,,,,,,,,,,,,0.636,1,,,,,,,,,,,,,,z,1,0.636,,,,,,,,-0.268888889,-0.385555556,0,0,0,,0,145,145,132,1,SCIFF,C,old,z,./images/SCIFF.png,,,,,,,,,,,,,,,,,,,,,,,,,,,,,,,,,,
,,,,,,,,,,,,,,,,,60805973b343054738e6bf29,41,2022-02-12_13h23.07.650,lexical_decision_task_DD_L3,2021.2.3,MacIntel,30.3030303,,,,,,,,,,,,0.859,1,,,,,,,,,,,,,,m,1,0.859,,,,,,,,-0.268888889,-0.385555556,0,0,0,,0,146,146,49,1,DRUMS,C,old,m,./images/DRUMS.png,,,,,,,,,,,,,,,,,,,,,,,,,,,,,,,,,,
,,,,,,,,,,,,,,,,,60805973b343054738e6bf29,41,2022-02-12_13h23.07.650,lexical_decision_task_DD_L3,2021.2.3,MacIntel,30.3030303,,,,,,,,,,,,0.524,1,,,,,,,,,,,,,,z,1,0.524,,,,,,,,-0.268888889,-0.385555556,0,0,0,,0,147,147,137,1,JOOST,LB,old,z,./images/JOOSTLB.png,,,,,,,,,,,,,,,,,,,,,,,,,,,,,,,,,,
,,,,,,,,,,,,,,,,,60805973b343054738e6bf29,41,2022-02-12_13h23.07.650,lexical_decision_task_DD_L3,2021.2.3,MacIntel,30.3030303,,,,,,,,,,,,0.593,1,,,,,,,,,,,,,,z,1,0.593,,,,,,,,-0.268888889,-0.385555556,0,0,0,,0,148,148,129,1,PRANS,C,old,z,./images/PRANS.png,,,,,,,,,,,,,,,,,,,,,,,,,,,,,,,,,,
,,,,,,,,,,,,,,,,,60805973b343054738e6bf29,41,2022-02-12_13h23.07.650,lexical_decision_task_DD_L3,2021.2.3,MacIntel,30.3030303,,,,,,,,,,,,0.518,0,,,,,,,,,,,,,,z,0,0.518,,,,,,,,-0.268888889,-0.385555556,0,0,0,,0,149,149,75,1,GRAIN,LB,old,m,./images/GRAINLB.png,,,,,,,,,,,,,,,,,,,,,,,,,,,,,,,,,,
,,,,,,,,,,,,,,,,,60805973b343054738e6bf29,41,2022-02-12_13h23.07.650,lexical_decision_task_DD_L3,2021.2.3,MacIntel,30.3030303,,,,,,,,,,,,0.558,1,,,,,,,,,,,,,,m,1,0.558,,,,,,,,-0.268888889,-0.385555556,0,0,0,,0,150,150,36,1,THROAT,LB,old,m,./images/THROATLB.png,,,,,,,,,,,,,,,,,,,,,,,,,,,,,,,,,,
,,,,,,,,,,,,,,,,,60805973b343054738e6bf29,41,2022-02-12_13h23.07.650,lexical_decision_task_DD_L3,2021.2.3,MacIntel,30.3030303,,,,,,,,,,,,0.578,1,,,,,,,,,,,,,,z,1,0.578,,,,,,,,-0.268888889,-0.385555556,0,0,0,,0,151,151,148,1,JOMS,HB,old,z,./images/JOMSHB.png,,,,,,,,,,,,,,,,,,,,,,,,,,,,,,,,,,
,,,,,,,,,,,,,,,,,60805973b343054738e6bf29,41,2022-02-12_13h23.07.650,lexical_decision_task_DD_L3,2021.2.3,MacIntel,30.3030303,,,,,,,,,,,,0.576,0,,,,,,,,,,,,,,z,0,0.576,,,,,,,,-0.268888889,-0.385555556,0,0,0,,0,152,152,29,1,CRUMB,HB,old,m,./images/CRUMBHB.png,,,,,,,,,,,,,,,,,,,,,,,,,,,,,,,,,,
,,,,,,,,,,,,,,,,,60805973b343054738e6bf29,41,2022-02-12_13h23.07.650,lexical_decision_task_DD_L3,2021.2.3,MacIntel,30.3030303,,,,,,,,,,,,0.796,1,,,,,,,,,,,,,,m,1,0.796,,,,,,,,-0.268888889,-0.385555556,0,0,0,,0,153,153,53,1,CARPET,HB,old,m,./images/CARPETHB.png,,,,,,,,,,,,,,,,,,,,,,,,,,,,,,,,,,
,,,,,,,,,,,,,,,,,60805973b343054738e6bf29,41,2022-02-12_13h23.07.650,lexical_decision_task_DD_L3,2021.2.3,MacIntel,30.3030303,,,,,,,,,,,,0.804,1,,,,,,,,,,,,,,m,1,0.804,,,,,,,,-0.268888889,-0.385555556,0,0,0,,0,154,154,1,1,PLANK,C,old,m,./images/PLANK.png,,,,,,,,,,,,,,,,,,,,,,,,,,,,,,,,,,
,,,,,,,,,,,,,,,,,60805973b343054738e6bf29,41,2022-02-12_13h23.07.650,lexical_decision_task_DD_L3,2021.2.3,MacIntel,30.3030303,,,,,,,,,,,,0.609,1,,,,,,,,,,,,,,z,1,0.609,,,,,,,,-0.268888889,-0.385555556,0,0,0,,0,155,155,164,1,SGREW,LB,old,z,./images/SGREWLB.png,,,,,,,,,,,,,,,,,,,,,,,,,,,,,,,,,,
,,,,,,,,,,,,,,,,,60805973b343054738e6bf29,41,2022-02-12_13h23.07.650,lexical_decision_task_DD_L3,2021.2.3,MacIntel,30.3030303,,,,,,,,,,,,0.552,1,,,,,,,,,,,,,,z,1,0.552,,,,,,,,-0.268888889,-0.385555556,0,0,0,,0,156,156,117,1,STEEG,C,old,z,./images/STEEG.png,,,,,,,,,,,,,,,,,,,,,,,,,,,,,,,,,,
,,,,,,,,,,,,,,,,,60805973b343054738e6bf29,41,2022-02-12_13h23.07.650,lexical_decision_task_DD_L3,2021.2.3,MacIntel,30.3030303,,,,,,,,,,,,0.642,1,,,,,,,,,,,,,,m,1,0.642,,,,,,,,-0.268888889,-0.385555556,0,0,0,,0,157,157,73,1,SNACK,C,old,m,./images/SNACK.png,,,,,,,,,,,,,,,,,,,,,,,,,,,,,,,,,,
,,,,,,,,,,,,,,,,,60805973b343054738e6bf29,41,2022-02-12_13h23.07.650,lexical_decision_task_DD_L3,2021.2.3,MacIntel,30.3030303,,,,,,,,,,,,0.767,1,,,,,,,,,,,,,,m,1,0.767,,,,,,,,-0.268888889,-0.385555556,0,0,0,,0,158,158,62,1,PURSE,HB,old,m,./images/PURSEHB.png,,,,,,,,,,,,,,,,,,,,,,,,,,,,,,,,,,
,,,,,,,,,,,,,,,,,60805973b343054738e6bf29,41,2022-02-12_13h23.07.650,lexical_decision_task_DD_L3,2021.2.3,MacIntel,30.3030303,,,,,,,,,,,,0.591,1,,,,,,,,,,,,,,m,1,0.591,,,,,,,,-0.268888889,-0.385555556,0,0,0,,0,159,159,15,1,GREASE,LB,old,m,./images/GREASELB.png,,,,,,,,,,,,,,,,,,,,,,,,,,,,,,,,,,
,,,,,,,,,,,,,,,,,60805973b343054738e6bf29,41,2022-02-12_13h23.07.650,lexical_decision_task_DD_L3,2021.2.3,MacIntel,30.3030303,,,,,,,,,,,,0.625,1,,,,,,,,,,,,,,z,1,0.625,,,,,,,,-0.268888889,-0.385555556,0,0,0,,0,160,160,146,1,MOOST,LB,old,z,./images/MOOSTLB.png,,,,,,,,,,,,,,,,,,,,,,,,,,,,,,,,,,
,,,,,,,,,,,,,,,,,60805973b343054738e6bf29,41,2022-02-12_13h23.07.650,lexical_decision_task_DD_L3,2021.2.3,MacIntel,30.3030303,,,,,,,,,,,,0.578,1,,,,,,,,,,,,,,z,1,0.578,,,,,,,,-0.268888889,-0.385555556,0,0,0,,0,161,161,152,1,FRAIN,LB,old,z,./images/FRAINLB.png,,,,,,,,,,,,,,,,,,,,,,,,,,,,,,,,,,
,,,,,,,,,,,,,,,,,60805973b343054738e6bf29,41,2022-02-12_13h23.07.650,lexical_decision_task_DD_L3,2021.2.3,MacIntel,30.3030303,,,,,,,,,,,,0.885,1,,,,,,,,,,,,,,m,1,0.885,,,,,,,,-0.268888889,-0.385555556,0,0,0,,0,162,162,68,1,TORCH,HB,old,m,./images/TORCHHB.png,,,,,,,,,,,,,,,,,,,,,,,,,,,,,,,,,,
,,,,,,,,,,,,,,,,,60805973b343054738e6bf29,41,2022-02-12_13h23.07.650,lexical_decision_task_DD_L3,2021.2.3,MacIntel,30.3030303,,,,,,,,,,,,0.595,1,,,,,,,,,,,,,,z,1,0.595,,,,,,,,-0.268888889,-0.385555556,0,0,0,,0,163,163,89,1,DRIEK,LB,old,z,./images/DRIEKLB.png,,,,,,,,,,,,,,,,,,,,,,,,,,,,,,,,,,
,,,,,,,,,,,,,,,,,60805973b343054738e6bf29,41,2022-02-12_13h23.07.650,lexical_decision_task_DD_L3,2021.2.3,MacIntel,30.3030303,,,,,,,,,,,,0.998,1,,,,,,,,,,,,,,m,1,0.998,,,,,,,,-0.268888889,-0.385555556,0,0,0,,0,164,164,65,1,FARMER,HB,old,m,./images/FARMERHB.png,,,,,,,,,,,,,,,,,,,,,,,,,,,,,,,,,,
,,,,,,,,,,,,,,,,,60805973b343054738e6bf29,41,2022-02-12_13h23.07.650,lexical_decision_task_DD_L3,2021.2.3,MacIntel,30.3030303,,,,,,,,,,,,0.79,1,,,,,,,,,,,,,,z,1,0.79,,,,,,,,-0.268888889,-0.385555556,0,0,0,,0,165,165,98,1,BAMPS,LB,old,z,./images/BAMPSLB.png,,,,,,,,,,,,,,,,,,,,,,,,,,,,,,,,,,
,,,,,,,,,,,,,,,,,60805973b343054738e6bf29,41,2022-02-12_13h23.07.650,lexical_decision_task_DD_L3,2021.2.3,MacIntel,30.3030303,,,,,,,,,,,,0.676,1,,,,,,,,,,,,,,z,1,0.676,,,,,,,,-0.268888889,-0.385555556,0,0,0,,0,166,166,93,1,SMONE,C,old,z,./images/SMONE.png,,,,,,,,,,,,,,,,,,,,,,,,,,,,,,,,,,
,,,,,,,,,,,,,,,,,60805973b343054738e6bf29,41,2022-02-12_13h23.07.650,lexical_decision_task_DD_L3,2021.2.3,MacIntel,30.3030303,,,,,,,,,,,,1.01,1,,,,,,,,,,,,,,z,1,1.01,,,,,,,,-0.268888889,-0.385555556,0,0,0,,0,167,167,160,1,VEETS,HB,old,z,./images/VEETSHB.png,,,,,,,,,,,,,,,,,,,,,,,,,,,,,,,,,,
,,,,,,,,,,,,,,,,,60805973b343054738e6bf29,41,2022-02-12_13h23.07.650,lexical_decision_task_DD_L3,2021.2.3,MacIntel,30.3030303,,,,,,,,,,,,,,,,,,,,,,,,,,,,,,,,,,,,,,,,,,,,,,,,,How likely will it be that you will recognize the words presented very blurred on a scale of 0 (not likely) to 100 (most likely)?,,,,,-0.005555556,-0.417777778,1,0,0,jol_adv,4,9.991,0,0,0,2,1,,,,,,,,,,,,,,,,,,,,
,,,,,,,,,,,,,,,,,60805973b343054738e6bf29,41,2022-02-12_13h23.07.650,lexical_decision_task_DD_L3,2021.2.3,MacIntel,30.3030303,,,,,,,,,,,,,,,,,,,,,,,,,,,,,,,,,,,,,,,,,,,,,,,,,How likely will it be that you will recognize the words presented clearly on a scale of 0 (not likely) to 100 (most likely)?,,,,,,,,,,,5,9.637,0,1,1,0,1,,,,,,,,,,,,,,,,,,,,
,,,,,,,,,,,,,,,,,60805973b343054738e6bf29,41,2022-02-12_13h23.07.650,lexical_decision_task_DD_L3,2021.2.3,MacIntel,30.3030303,,,,,,,,,,,,,,,,,,,,,,,,,,,,,,,,,,,,,,,,,,,,,,,,,How likely will it be that you will recognize the words presented slighly blurred on a scale of 0 (not likely) to 100 (most likely)?,,,,,,,,,,,4,11.956,0,2,2,1,1,,,,,,,,,,,,,,,,,,,,
,0.006666667,-0.406666667,1,0,0,instr_done_button,,,,,,1,test,"In the next phase you will be presented with the words from the the first phase. Your job is to decide whether you remember seeing the word or not. If you remember seeing the word press ""old"" or type ""m"". If you do not remember seeing the word press ""new"" or type ""z"". Please press the space bar or click on continue to begin. ",,,60805973b343054738e6bf29,41,2022-02-12_13h23.07.650,lexical_decision_task_DD_L3,2021.2.3,MacIntel,30.3030303,,,,,,,,,,,,,,,,,,,,,,,,,,,,,,,,,,,,,,,,,,,,,,,,,,,,,,,,,,,,,,,,,,,0,0,0,0,1,,,,,,,,,,,,,,,
space,0.006666667,-0.406666667,0,0,0,,,,,,,1,test,"In the next phase you will be presented with the words from the the first phase. Your job is to decide whether you remember seeing the word or not. If you remember seeing the word press ""old"" or type ""m"". If you do not remember seeing the word press ""new"" or type ""z"". Please press the space bar or click on continue to begin. ",,,60805973b343054738e6bf29,41,2022-02-12_13h23.07.650,lexical_decision_task_DD_L3,2021.2.3,MacIntel,30.3030303,1.05,,,,,,,,,,,,,,,,,,,,,,,,,,,,,,,,,,,,,,,,,,,,,,,,,,,,,,,,,,,,,,,,,,1,0,1,0,1,,,,,,,,,,,,,,,
,-0.011111111,-0.386666667,1,0,0,instr_done_button,,,,,,1,test,"In the next phase you will be presented with the words from the the first phase. Your job is to decide whether you remember seeing the word or not. If you remember seeing the word press ""old"" or type ""m"". If you do not remember seeing the word press ""new"" or type ""z"". Please press the space bar or click on continue to begin. ",,,60805973b343054738e6bf29,41,2022-02-12_13h23.07.650,lexical_decision_task_DD_L3,2021.2.3,MacIntel,30.3030303,,,,,,,,,,,,,,,,,,,,,,,,,,,,,,,,,,,,,,,,,,,,,,,,,,,,,,,,,,,,,,,,,,,2,0,2,0,1,,,,,,,,,,,,,,,
space,-0.061111111,-0.207777778,0,0,0,,,,,,,1,test,"In the next phase you will be presented with the words from the the first phase. Your job is to decide whether you remember seeing the word or not. If you remember seeing the word press ""old"" or type ""m"". If you do not remember seeing the word press ""new"" or type ""z"". Please press the space bar or click on continue to begin. ",,,60805973b343054738e6bf29,41,2022-02-12_13h23.07.650,lexical_decision_task_DD_L3,2021.2.3,MacIntel,30.3030303,1.438,,,,,,,,,,,,,,,,,,,,,,,,,,,,,,,,,,,,,,,,,,,,,,,,,,,,,,,,,,,,,,,,,,3,0,3,0,1,,,,,,,,,,,,,,,
,0.081111111,-0.391111111,1,0,0,instr_done_button,,,,,,1,test,"In the next phase you will be presented with the words from the the first phase. Your job is to decide whether you remember seeing the word or not. If you remember seeing the word press ""old"" or type ""m"". If you do not remember seeing the word press ""new"" or type ""z"". Please press the space bar or click on continue to begin. ",,,60805973b343054738e6bf29,41,2022-02-12_13h23.07.650,lexical_decision_task_DD_L3,2021.2.3,MacIntel,30.3030303,,,,,,,,,,,,,,,,,,,,,,,,,,,,,,,,,,,,,,,,,,,,,,,,,,,,,,,,,,,,,,,,,,,4,0,4,0,1,,,,,,,,,,,,,,,
,,,,,,,,,,,,,,,,,60805973b343054738e6bf29,41,2022-02-12_13h23.07.650,lexical_decision_task_DD_L3,2021.2.3,MacIntel,30.3030303,,,,,,,,,,,,1.061,0,,,,,,,,,,,,,,,,,,,,,,,,0.081111111,-0.391111111,0,0,0,,,,,,,CANOE,C,z,m,./images/CANOE.png,,,,,,,,,,,,,,,,,,,,m,0,1.061,,,,,,,,0,0,0,142,1
,,,,,,,,,,,,,,,,,60805973b343054738e6bf29,41,2022-02-12_13h23.07.650,lexical_decision_task_DD_L3,2021.2.3,MacIntel,30.3030303,,,,,,,,,,,,1.545,1,,,,,,,,,,,,,,,,,,,,,,,,0.081111111,-0.391111111,0,0,0,,,,,,,STOOL,C,z,m,./images/STOOL.png,,,,,,,,,,,,,,,,,,,,z,1,1.545,,,,,,,,0,1,1,127,1
,,,,,,,,,,,,,,,,,60805973b343054738e6bf29,41,2022-02-12_13h23.07.650,lexical_decision_task_DD_L3,2021.2.3,MacIntel,30.3030303,,,,,,,,,,,,0.952,1,,,,,,,,,,,,,,,,,,,,,,,,0.081111111,-0.391111111,0,0,0,,,,,,,RULER,C,z,m,./images/RULER.png,,,,,,,,,,,,,,,,,,,,z,1,0.952,,,,,,,,0,2,2,163,1
,,,,,,,,,,,,,,,,,60805973b343054738e6bf29,41,2022-02-12_13h23.07.650,lexical_decision_task_DD_L3,2021.2.3,MacIntel,30.3030303,,,,,,,,,,,,0.746,1,,,,,,,,,,,,,,,,,,,,,,,,0.081111111,-0.391111111,0,0,0,,,,,,,JELLY,C,m,m,./images/JELLY.png,,,,,,,,,,,,,,,,,,,,m,1,0.746,,,,,,,,0,3,3,64,1
,,,,,,,,,,,,,,,,,60805973b343054738e6bf29,41,2022-02-12_13h23.07.650,lexical_decision_task_DD_L3,2021.2.3,MacIntel,30.3030303,,,,,,,,,,,,1.468,1,,,,,,,,,,,,,,,,,,,,,,,,0.081111111,-0.391111111,0,0,0,,,,,,,SQUARE,LB,m,m,./images/SQUARELB.png,,,,,,,,,,,,,,,,,,,,m,1,1.468,,,,,,,,0,4,4,6,1
,,,,,,,,,,,,,,,,,60805973b343054738e6bf29,41,2022-02-12_13h23.07.650,lexical_decision_task_DD_L3,2021.2.3,MacIntel,30.3030303,,,,,,,,,,,,0.71,1,,,,,,,,,,,,,,,,,,,,,,,,0.081111111,-0.391111111,0,0,0,,,,,,,PLANET,HB,z,m,./images/PLANETHB.png,,,,,,,,,,,,,,,,,,,,z,1,0.71,,,,,,,,0,5,5,164,1
,,,,,,,,,,,,,,,,,60805973b343054738e6bf29,41,2022-02-12_13h23.07.650,lexical_decision_task_DD_L3,2021.2.3,MacIntel,30.3030303,,,,,,,,,,,,0.705,1,,,,,,,,,,,,,,,,,,,,,,,,0.081111111,-0.391111111,0,0,0,,,,,,,JAGUAR,LB,m,m,./images/JAGUARLB.png,,,,,,,,,,,,,,,,,,,,m,1,0.705,,,,,,,,0,6,6,18,1
,,,,,,,,,,,,,,,,,60805973b343054738e6bf29,41,2022-02-12_13h23.07.650,lexical_decision_task_DD_L3,2021.2.3,MacIntel,30.3030303,,,,,,,,,,,,0.75,1,,,,,,,,,,,,,,,,,,,,,,,,0.081111111,-0.391111111,0,0,0,,,,,,,BLOKE,LB,z,m,./images/BLOKELB.png,,,,,,,,,,,,,,,,,,,,z,1,0.75,,,,,,,,0,7,7,96,1
,,,,,,,,,,,,,,,,,60805973b343054738e6bf29,41,2022-02-12_13h23.07.650,lexical_decision_task_DD_L3,2021.2.3,MacIntel,30.3030303,,,,,,,,,,,,0.803,1,,,,,,,,,,,,,,,,,,,,,,,,0.081111111,-0.391111111,0,0,0,,,,,,,BISHOP,C,z,m,./images/BISHOP.png,,,,,,,,,,,,,,,,,,,,z,1,0.803,,,,,,,,0,8,8,133,1
,,,,,,,,,,,,,,,,,60805973b343054738e6bf29,41,2022-02-12_13h23.07.650,lexical_decision_task_DD_L3,2021.2.3,MacIntel,30.3030303,,,,,,,,,,,,0.605,1,,,,,,,,,,,,,,,,,,,,,,,,0.081111111,-0.391111111,0,0,0,,,,,,,WHEEL,HB,z,m,./images/WHEELHB.png,,,,,,,,,,,,,,,,,,,,z,1,0.605,,,,,,,,0,9,9,161,1
,,,,,,,,,,,,,,,,,60805973b343054738e6bf29,41,2022-02-12_13h23.07.650,lexical_decision_task_DD_L3,2021.2.3,MacIntel,30.3030303,,,,,,,,,,,,0.738,1,,,,,,,,,,,,,,,,,,,,,,,,0.081111111,-0.391111111,0,0,0,,,,,,,CANDLE,C,m,m,./images/CANDLE.png,,,,,,,,,,,,,,,,,,,,m,1,0.738,,,,,,,,0,10,10,61,1
,,,,,,,,,,,,,,,,,60805973b343054738e6bf29,41,2022-02-12_13h23.07.650,lexical_decision_task_DD_L3,2021.2.3,MacIntel,30.3030303,,,,,,,,,,,,1.152,0,,,,,,,,,,,,,,,,,,,,,,,,0.081111111,-0.391111111,0,0,0,,,,,,,PACKET,HB,m,m,./images/PACKETHB.png,,,,,,,,,,,,,,,,,,,,z,0,1.152,,,,,,,,0,11,11,56,1
,,,,,,,,,,,,,,,,,60805973b343054738e6bf29,41,2022-02-12_13h23.07.650,lexical_decision_task_DD_L3,2021.2.3,MacIntel,30.3030303,,,,,,,,,,,,0.71,1,,,,,,,,,,,,,,,,,,,,,,,,0.081111111,-0.391111111,0,0,0,,,,,,,SHORE,LB,m,m,./images/SHORELB.png,,,,,,,,,,,,,,,,,,,,m,1,0.71,,,,,,,,0,12,12,12,1
,,,,,,,,,,,,,,,,,60805973b343054738e6bf29,41,2022-02-12_13h23.07.650,lexical_decision_task_DD_L3,2021.2.3,MacIntel,30.3030303,,,,,,,,,,,,0.799,1,,,,,,,,,,,,,,,,,,,,,,,,0.081111111,-0.391111111,0,0,0,,,,,,,SHIELD,LB,z,m,./images/SHIELDLB.png,,,,,,,,,,,,,,,,,,,,z,1,0.799,,,,,,,,0,13,13,132,1
,,,,,,,,,,,,,,,,,60805973b343054738e6bf29,41,2022-02-12_13h23.07.650,lexical_decision_task_DD_L3,2021.2.3,MacIntel,30.3030303,,,,,,,,,,,,1.58,0,,,,,,,,,,,,,,,,,,,,,,,,0.081111111,-0.391111111,0,0,0,,,,,,,BASKET,HB,z,m,./images/BASKETHB.png,,,,,,,,,,,,,,,,,,,,m,0,1.58,,,,,,,,0,14,14,128,1
,,,,,,,,,,,,,,,,,60805973b343054738e6bf29,41,2022-02-12_13h23.07.650,lexical_decision_task_DD_L3,2021.2.3,MacIntel,30.3030303,,,,,,,,,,,,0.751,1,,,,,,,,,,,,,,,,,,,,,,,,0.081111111,-0.391111111,0,0,0,,,,,,,DOUGH,C,m,m,./images/DOUGH.png,,,,,,,,,,,,,,,,,,,,m,1,0.751,,,,,,,,0,15,15,19,1
,,,,,,,,,,,,,,,,,60805973b343054738e6bf29,41,2022-02-12_13h23.07.650,lexical_decision_task_DD_L3,2021.2.3,MacIntel,30.3030303,,,,,,,,,,,,1.114,1,,,,,,,,,,,,,,,,,,,,,,,,0.081111111,-0.391111111,0,0,0,,,,,,,PEARL,C,m,m,./images/PEARL.png,,,,,,,,,,,,,,,,,,,,m,1,1.114,,,,,,,,0,16,16,46,1
,,,,,,,,,,,,,,,,,60805973b343054738e6bf29,41,2022-02-12_13h23.07.650,lexical_decision_task_DD_L3,2021.2.3,MacIntel,30.3030303,,,,,,,,,,,,0.947,0,,,,,,,,,,,,,,,,,,,,,,,,0.081111111,-0.391111111,0,0,0,,,,,,,PARADE,HB,z,m,./images/PARADEHB.png,,,,,,,,,,,,,,,,,,,,m,0,0.947,,,,,,,,0,17,17,101,1
,,,,,,,,,,,,,,,,,60805973b343054738e6bf29,41,2022-02-12_13h23.07.650,lexical_decision_task_DD_L3,2021.2.3,MacIntel,30.3030303,,,,,,,,,,,,0.972,1,,,,,,,,,,,,,,,,,,,,,,,,0.081111111,-0.391111111,0,0,0,,,,,,,SLOPE,LB,z,m,./images/SLOPELB.png,,,,,,,,,,,,,,,,,,,,z,1,0.972,,,,,,,,0,18,18,114,1
,,,,,,,,,,,,,,,,,60805973b343054738e6bf29,41,2022-02-12_13h23.07.650,lexical_decision_task_DD_L3,2021.2.3,MacIntel,30.3030303,,,,,,,,,,,,0.896,1,,,,,,,,,,,,,,,,,,,,,,,,0.081111111,-0.391111111,0,0,0,,,,,,,SHELF,LB,m,m,./images/SHELFLB.png,,,,,,,,,,,,,,,,,,,,m,1,0.896,,,,,,,,0,19,19,39,1
,,,,,,,,,,,,,,,,,60805973b343054738e6bf29,41,2022-02-12_13h23.07.650,lexical_decision_task_DD_L3,2021.2.3,MacIntel,30.3030303,,,,,,,,,,,,0.735,0,,,,,,,,,,,,,,,,,,,,,,,,0.081111111,-0.391111111,0,0,0,,,,,,,GLOVE,C,z,m,./images/GLOVE.png,,,,,,,,,,,,,,,,,,,,m,0,0.735,,,,,,,,0,20,20,157,1
,,,,,,,,,,,,,,,,,60805973b343054738e6bf29,41,2022-02-12_13h23.07.650,lexical_decision_task_DD_L3,2021.2.3,MacIntel,30.3030303,,,,,,,,,,,,0.698,0,,,,,,,,,,,,,,,,,,,,,,,,0.081111111,-0.391111111,0,0,0,,,,,,,TOWEL,C,z,m,./images/TOWEL.png,,,,,,,,,,,,,,,,,,,,m,0,0.698,,,,,,,,0,21,21,85,1
,,,,,,,,,,,,,,,,,60805973b343054738e6bf29,41,2022-02-12_13h23.07.650,lexical_decision_task_DD_L3,2021.2.3,MacIntel,30.3030303,,,,,,,,,,,,0.772,1,,,,,,,,,,,,,,,,,,,,,,,,0.081111111,-0.391111111,0,0,0,,,,,,,MELON,C,m,m,./images/MELON.png,,,,,,,,,,,,,,,,,,,,m,1,0.772,,,,,,,,0,22,22,22,1
,,,,,,,,,,,,,,,,,60805973b343054738e6bf29,41,2022-02-12_13h23.07.650,lexical_decision_task_DD_L3,2021.2.3,MacIntel,30.3030303,,,,,,,,,,,,0.866,1,,,,,,,,,,,,,,,,,,,,,,,,0.081111111,-0.391111111,0,0,0,,,,,,,CEMENT,HB,m,m,./images/CEMENTHB.png,,,,,,,,,,,,,,,,,,,,m,1,0.866,,,,,,,,0,23,23,74,1
,,,,,,,,,,,,,,,,,60805973b343054738e6bf29,41,2022-02-12_13h23.07.650,lexical_decision_task_DD_L3,2021.2.3,MacIntel,30.3030303,,,,,,,,,,,,0.764,1,,,,,,,,,,,,,,,,,,,,,,,,0.081111111,-0.391111111,0,0,0,,,,,,,TORCH,HB,m,m,./images/TORCHHB.png,,,,,,,,,,,,,,,,,,,,m,1,0.764,,,,,,,,0,24,24,68,1
,,,,,,,,,,,,,,,,,60805973b343054738e6bf29,41,2022-02-12_13h23.07.650,lexical_decision_task_DD_L3,2021.2.3,MacIntel,30.3030303,,,,,,,,,,,,0.651,1,,,,,,,,,,,,,,,,,,,,,,,,0.081111111,-0.391111111,0,0,0,,,,,,,PICKLE,HB,m,m,./images/PICKLEHB.png,,,,,,,,,,,,,,,,,,,,m,1,0.651,,,,,,,,0,25,25,14,1
,,,,,,,,,,,,,,,,,60805973b343054738e6bf29,41,2022-02-12_13h23.07.650,lexical_decision_task_DD_L3,2021.2.3,MacIntel,30.3030303,,,,,,,,,,,,0.769,1,,,,,,,,,,,,,,,,,,,,,,,,0.081111111,-0.391111111,0,0,0,,,,,,,DESERT,C,z,m,./images/DESERT.png,,,,,,,,,,,,,,,,,,,,z,1,0.769,,,,,,,,0,26,26,136,1
,,,,,,,,,,,,,,,,,60805973b343054738e6bf29,41,2022-02-12_13h23.07.650,lexical_decision_task_DD_L3,2021.2.3,MacIntel,30.3030303,,,,,,,,,,,,1.185,0,,,,,,,,,,,,,,,,,,,,,,,,0.081111111,-0.391111111,0,0,0,,,,,,,FENCE,HB,z,m,./images/FENCEHB.png,,,,,,,,,,,,,,,,,,,,m,0,1.185,,,,,,,,0,27,27,98,1
,,,,,,,,,,,,,,,,,60805973b343054738e6bf29,41,2022-02-12_13h23.07.650,lexical_decision_task_DD_L3,2021.2.3,MacIntel,30.3030303,,,,,,,,,,,,0.659,1,,,,,,,,,,,,,,,,,,,,,,,,0.081111111,-0.391111111,0,0,0,,,,,,,MUMMY,C,z,m,./images/MUMMY.png,,,,,,,,,,,,,,,,,,,,z,1,0.659,,,,,,,,0,28,28,130,1
,,,,,,,,,,,,,,,,,60805973b343054738e6bf29,41,2022-02-12_13h23.07.650,lexical_decision_task_DD_L3,2021.2.3,MacIntel,30.3030303,,,,,,,,,,,,1.092,1,,,,,,,,,,,,,,,,,,,,,,,,0.081111111,-0.391111111,0,0,0,,,,,,,VALLEY,HB,z,m,./images/VALLEYHB.png,,,,,,,,,,,,,,,,,,,,z,1,1.092,,,,,,,,0,29,29,152,1
,,,,,,,,,,,,,,,,,60805973b343054738e6bf29,41,2022-02-12_13h23.07.650,lexical_decision_task_DD_L3,2021.2.3,MacIntel,30.3030303,,,,,,,,,,,,0.777,1,,,,,,,,,,,,,,,,,,,,,,,,0.081111111,-0.391111111,0,0,0,,,,,,,LITTER,LB,m,m,./images/LITTERLB.png,,,,,,,,,,,,,,,,,,,,m,1,0.777,,,,,,,,0,30,30,78,1
,,,,,,,,,,,,,,,,,60805973b343054738e6bf29,41,2022-02-12_13h23.07.650,lexical_decision_task_DD_L3,2021.2.3,MacIntel,30.3030303,,,,,,,,,,,,0.695,1,,,,,,,,,,,,,,,,,,,,,,,,0.081111111,-0.391111111,0,0,0,,,,,,,HAMMER,LB,z,m,./images/HAMMERLB.png,,,,,,,,,,,,,,,,,,,,z,1,0.695,,,,,,,,0,31,31,159,1
,,,,,,,,,,,,,,,,,60805973b343054738e6bf29,41,2022-02-12_13h23.07.650,lexical_decision_task_DD_L3,2021.2.3,MacIntel,30.3030303,,,,,,,,,,,,1.046,1,,,,,,,,,,,,,,,,,,,,,,,,0.081111111,-0.391111111,0,0,0,,,,,,,BRUSH,HB,z,m,./images/BRUSHHB.png,,,,,,,,,,,,,,,,,,,,z,1,1.046,,,,,,,,0,32,32,143,1
,,,,,,,,,,,,,,,,,60805973b343054738e6bf29,41,2022-02-12_13h23.07.650,lexical_decision_task_DD_L3,2021.2.3,MacIntel,30.3030303,,,,,,,,,,,,2.059,1,,,,,,,,,,,,,,,,,,,,,,,,0.081111111,-0.391111111,0,0,0,,,,,,,POKER,C,z,m,./images/POKER.png,,,,,,,,,,,,,,,,,,,,z,1,2.059,,,,,,,,0,33,33,151,1
,,,,,,,,,,,,,,,,,60805973b343054738e6bf29,41,2022-02-12_13h23.07.650,lexical_decision_task_DD_L3,2021.2.3,MacIntel,30.3030303,,,,,,,,,,,,0.662,1,,,,,,,,,,,,,,,,,,,,,,,,0.081111111,-0.391111111,0,0,0,,,,,,,WHISKY,HB,z,m,./images/WHISKYHB.png,,,,,,,,,,,,,,,,,,,,z,1,0.662,,,,,,,,0,34,34,167,1
,,,,,,,,,,,,,,,,,60805973b343054738e6bf29,41,2022-02-12_13h23.07.650,lexical_decision_task_DD_L3,2021.2.3,MacIntel,30.3030303,,,,,,,,,,,,1.223,1,,,,,,,,,,,,,,,,,,,,,,,,0.081111111,-0.391111111,0,0,0,,,,,,,STAIN,LB,z,m,./images/STAINLB.png,,,,,,,,,,,,,,,,,,,,z,1,1.223,,,,,,,,0,35,35,90,1
,,,,,,,,,,,,,,,,,60805973b343054738e6bf29,41,2022-02-12_13h23.07.650,lexical_decision_task_DD_L3,2021.2.3,MacIntel,30.3030303,,,,,,,,,,,,0.631,1,,,,,,,,,,,,,,,,,,,,,,,,0.081111111,-0.391111111,0,0,0,,,,,,,KIDNEY,LB,m,m,./images/KIDNEYLB.png,,,,,,,,,,,,,,,,,,,,m,1,0.631,,,,,,,,0,36,36,21,1
,,,,,,,,,,,,,,,,,60805973b343054738e6bf29,41,2022-02-12_13h23.07.650,lexical_decision_task_DD_L3,2021.2.3,MacIntel,30.3030303,,,,,,,,,,,,0.835,1,,,,,,,,,,,,,,,,,,,,,,,,0.081111111,-0.391111111,0,0,0,,,,,,,STATUE,LB,z,m,./images/STATUELB.png,,,,,,,,,,,,,,,,,,,,z,1,0.835,,,,,,,,0,37,37,150,1
,,,,,,,,,,,,,,,,,60805973b343054738e6bf29,41,2022-02-12_13h23.07.650,lexical_decision_task_DD_L3,2021.2.3,MacIntel,30.3030303,,,,,,,,,,,,1.288,1,,,,,,,,,,,,,,,,,,,,,,,,0.081111111,-0.391111111,0,0,0,,,,,,,STRING,HB,m,m,./images/STRINGHB.png,,,,,,,,,,,,,,,,,,,,m,1,1.288,,,,,,,,0,38,38,41,1
,,,,,,,,,,,,,,,,,60805973b343054738e6bf29,41,2022-02-12_13h23.07.650,lexical_decision_task_DD_L3,2021.2.3,MacIntel,30.3030303,,,,,,,,,,,,0.649,1,,,,,,,,,,,,,,,,,,,,,,,,0.081111111,-0.391111111,0,0,0,,,,,,,ARTIST,C,z,m,./images/ARTIST.png,,,,,,,,,,,,,,,,,,,,z,1,0.649,,,,,,,,0,39,39,145,1
,,,,,,,,,,,,,,,,,60805973b343054738e6bf29,41,2022-02-12_13h23.07.650,lexical_decision_task_DD_L3,2021.2.3,MacIntel,30.3030303,,,,,,,,,,,,1.065,0,,,,,,,,,,,,,,,,,,,,,,,,0.081111111,-0.391111111,0,0,0,,,,,,,ATTIC,LB,m,m,./images/ATTICLB.png,,,,,,,,,,,,,,,,,,,,z,0,1.065,,,,,,,,0,40,40,27,1
,,,,,,,,,,,,,,,,,60805973b343054738e6bf29,41,2022-02-12_13h23.07.650,lexical_decision_task_DD_L3,2021.2.3,MacIntel,30.3030303,,,,,,,,,,,,0.669,1,,,,,,,,,,,,,,,,,,,,,,,,0.081111111,-0.391111111,0,0,0,space,,,,,,SAUCE,LB,z,m,./images/SAUCELB.png,6.747,,,,,,,,,,,,,,,,,,,z,1,0.669,,,,,,,,0,41,41,135,1
,,,,,,,,,,,,,,,,,60805973b343054738e6bf29,41,2022-02-12_13h23.07.650,lexical_decision_task_DD_L3,2021.2.3,MacIntel,30.3030303,,,,,,,,,,,,0.693,1,,,,,,,,,,,,,,,,,,,,,,,,0.081111111,-0.391111111,0,0,0,,,,,,,BUTTER,LB,z,m,./images/BUTTERLB.png,,,,,,,,,,,,,,,,,,,,z,1,0.693,,,,,,,,0,42,42,111,1
,,,,,,,,,,,,,,,,,60805973b343054738e6bf29,41,2022-02-12_13h23.07.650,lexical_decision_task_DD_L3,2021.2.3,MacIntel,30.3030303,,,,,,,,,,,,0.752,1,,,,,,,,,,,,,,,,,,,,,,,,0.081111111,-0.391111111,0,0,0,,,,,,,STOVE,HB,z,m,./images/STOVEHB.png,,,,,,,,,,,,,,,,,,,,z,1,0.752,,,,,,,,0,43,43,86,1
,,,,,,,,,,,,,,,,,60805973b343054738e6bf29,41,2022-02-12_13h23.07.650,lexical_decision_task_DD_L3,2021.2.3,MacIntel,30.3030303,,,,,,,,,,,,0.693,1,,,,,,,,,,,,,,,,,,,,,,,,0.081111111,-0.391111111,0,0,0,,,,,,,CRADLE,HB,m,m,./images/CRADLEHB.png,,,,,,,,,,,,,,,,,,,,m,1,0.693,,,,,,,,0,44,44,20,1
,,,,,,,,,,,,,,,,,60805973b343054738e6bf29,41,2022-02-12_13h23.07.650,lexical_decision_task_DD_L3,2021.2.3,MacIntel,30.3030303,,,,,,,,,,,,0.819,0,,,,,,,,,,,,,,,,,,,,,,,,0.081111111,-0.391111111,0,0,0,,,,,,,BAMBOO,HB,z,m,./images/BAMBOOHB.png,,,,,,,,,,,,,,,,,,,,m,0,0.819,,,,,,,,0,45,45,89,1
,,,,,,,,,,,,,,,,,60805973b343054738e6bf29,41,2022-02-12_13h23.07.650,lexical_decision_task_DD_L3,2021.2.3,MacIntel,30.3030303,,,,,,,,,,,,0.676,1,,,,,,,,,,,,,,,,,,,,,,,,0.081111111,-0.391111111,0,0,0,,,,,,,MOSQUE,C,m,m,./images/MOSQUE.png,,,,,,,,,,,,,,,,,,,,m,1,0.676,,,,,,,,0,46,46,43,1
,,,,,,,,,,,,,,,,,60805973b343054738e6bf29,41,2022-02-12_13h23.07.650,lexical_decision_task_DD_L3,2021.2.3,MacIntel,30.3030303,,,,,,,,,,,,0.944,1,,,,,,,,,,,,,,,,,,,,,,,,0.081111111,-0.391111111,0,0,0,,,,,,,SAUNA,LB,z,m,./images/SAUNALB.png,,,,,,,,,,,,,,,,,,,,z,1,0.944,,,,,,,,0,47,47,117,1
,,,,,,,,,,,,,,,,,60805973b343054738e6bf29,41,2022-02-12_13h23.07.650,lexical_decision_task_DD_L3,2021.2.3,MacIntel,30.3030303,,,,,,,,,,,,0.648,1,,,,,,,,,,,,,,,,,,,,,,,,0.081111111,-0.391111111,0,0,0,,,,,,,STORM,LB,m,m,./images/STORMLB.png,,,,,,,,,,,,,,,,,,,,m,1,0.648,,,,,,,,0,48,48,30,1
,,,,,,,,,,,,,,,,,60805973b343054738e6bf29,41,2022-02-12_13h23.07.650,lexical_decision_task_DD_L3,2021.2.3,MacIntel,30.3030303,,,,,,,,,,,,0.943,0,,,,,,,,,,,,,,,,,,,,,,,,0.081111111,-0.391111111,0,0,0,,,,,,,POSTER,HB,z,m,./images/POSTERHB.png,,,,,,,,,,,,,,,,,,,,m,0,0.943,,,,,,,,0,49,49,137,1
,,,,,,,,,,,,,,,,,60805973b343054738e6bf29,41,2022-02-12_13h23.07.650,lexical_decision_task_DD_L3,2021.2.3,MacIntel,30.3030303,,,,,,,,,,,,0.687,1,,,,,,,,,,,,,,,,,,,,,,,,0.081111111,-0.391111111,0,0,0,,,,,,,STEAK,C,z,m,./images/STEAK.png,,,,,,,,,,,,,,,,,,,,z,1,0.687,,,,,,,,0,50,50,115,1
,,,,,,,,,,,,,,,,,60805973b343054738e6bf29,41,2022-02-12_13h23.07.650,lexical_decision_task_DD_L3,2021.2.3,MacIntel,30.3030303,,,,,,,,,,,,0.686,0,,,,,,,,,,,,,,,,,,,,,,,,0.081111111,-0.391111111,0,0,0,,,,,,,BROOM,LB,z,m,./images/BROOMLB.png,,,,,,,,,,,,,,,,,,,,m,0,0.686,,,,,,,,0,51,51,162,1
,,,,,,,,,,,,,,,,,60805973b343054738e6bf29,41,2022-02-12_13h23.07.650,lexical_decision_task_DD_L3,2021.2.3,MacIntel,30.3030303,,,,,,,,,,,,0.71,1,,,,,,,,,,,,,,,,,,,,,,,,0.081111111,-0.391111111,0,0,0,,,,,,,LADDER,HB,m,m,./images/LADDERHB.png,,,,,,,,,,,,,,,,,,,,m,1,0.71,,,,,,,,0,52,52,38,1
,,,,,,,,,,,,,,,,,60805973b343054738e6bf29,41,2022-02-12_13h23.07.650,lexical_decision_task_DD_L3,2021.2.3,MacIntel,30.3030303,,,,,,,,,,,,0.735,1,,,,,,,,,,,,,,,,,,,,,,,,0.081111111,-0.391111111,0,0,0,,,,,,,RHINO,LB,m,m,./images/RHINOLB.png,,,,,,,,,,,,,,,,,,,,m,1,0.735,,,,,,,,0,53,53,9,1
,,,,,,,,,,,,,,,,,60805973b343054738e6bf29,41,2022-02-12_13h23.07.650,lexical_decision_task_DD_L3,2021.2.3,MacIntel,30.3030303,,,,,,,,,,,,0.689,1,,,,,,,,,,,,,,,,,,,,,,,,0.081111111,-0.391111111,0,0,0,,,,,,,MIDGET,C,z,m,./images/MIDGET.png,,,,,,,,,,,,,,,,,,,,z,1,0.689,,,,,,,,0,54,54,160,1
,,,,,,,,,,,,,,,,,60805973b343054738e6bf29,41,2022-02-12_13h23.07.650,lexical_decision_task_DD_L3,2021.2.3,MacIntel,30.3030303,,,,,,,,,,,,0.809,1,,,,,,,,,,,,,,,,,,,,,,,,0.081111111,-0.391111111,0,0,0,,,,,,,DONKEY,C,z,m,./images/DONKEY.png,,,,,,,,,,,,,,,,,,,,z,1,0.809,,,,,,,,0,55,55,103,1
,,,,,,,,,,,,,,,,,60805973b343054738e6bf29,41,2022-02-12_13h23.07.650,lexical_decision_task_DD_L3,2021.2.3,MacIntel,30.3030303,,,,,,,,,,,,0.744,0,,,,,,,,,,,,,,,,,,,,,,,,0.081111111,-0.391111111,0,0,0,,,,,,,WALNUT,LB,z,m,./images/WALNUTLB.png,,,,,,,,,,,,,,,,,,,,m,0,0.744,,,,,,,,0,56,56,84,1
,,,,,,,,,,,,,,,,,60805973b343054738e6bf29,41,2022-02-12_13h23.07.650,lexical_decision_task_DD_L3,2021.2.3,MacIntel,30.3030303,,,,,,,,,,,,1.036,1,,,,,,,,,,,,,,,,,,,,,,,,0.081111111,-0.391111111,0,0,0,,,,,,,WALRUS,HB,m,m,./images/WALRUSHB.png,,,,,,,,,,,,,,,,,,,,m,1,1.036,,,,,,,,0,57,57,23,1
,,,,,,,,,,,,,,,,,60805973b343054738e6bf29,41,2022-02-12_13h23.07.650,lexical_decision_task_DD_L3,2021.2.3,MacIntel,30.3030303,,,,,,,,,,,,0.692,1,,,,,,,,,,,,,,,,,,,,,,,,0.081111111,-0.391111111,0,0,0,,,,,,,ENGINE,HB,z,m,./images/ENGINEHB.png,,,,,,,,,,,,,,,,,,,,z,1,0.692,,,,,,,,0,58,58,122,1
,,,,,,,,,,,,,,,,,60805973b343054738e6bf29,41,2022-02-12_13h23.07.650,lexical_decision_task_DD_L3,2021.2.3,MacIntel,30.3030303,,,,,,,,,,,,1.135,0,,,,,,,,,,,,,,,,,,,,,,,,0.081111111,-0.391111111,0,0,0,,,,,,,SMOKER,HB,m,m,./images/SMOKERHB.png,,,,,,,,,,,,,,,,,,,,z,0,1.135,,,,,,,,0,59,59,26,1
,,,,,,,,,,,,,,,,,60805973b343054738e6bf29,41,2022-02-12_13h23.07.650,lexical_decision_task_DD_L3,2021.2.3,MacIntel,30.3030303,,,,,,,,,,,,0.681,1,,,,,,,,,,,,,,,,,,,,,,,,0.081111111,-0.391111111,0,0,0,,,,,,,TRIPOD,LB,m,m,./images/TRIPODLB.png,,,,,,,,,,,,,,,,,,,,m,1,0.681,,,,,,,,0,60,60,54,1
,,,,,,,,,,,,,,,,,60805973b343054738e6bf29,41,2022-02-12_13h23.07.650,lexical_decision_task_DD_L3,2021.2.3,MacIntel,30.3030303,,,,,,,,,,,,0.688,1,,,,,,,,,,,,,,,,,,,,,,,,0.081111111,-0.391111111,0,0,0,,,,,,,MUFFIN,C,m,m,./images/MUFFIN.png,,,,,,,,,,,,,,,,,,,,m,1,0.688,,,,,,,,0,61,61,55,1
,,,,,,,,,,,,,,,,,60805973b343054738e6bf29,41,2022-02-12_13h23.07.650,lexical_decision_task_DD_L3,2021.2.3,MacIntel,30.3030303,,,,,,,,,,,,0.744,1,,,,,,,,,,,,,,,,,,,,,,,,0.081111111,-0.391111111,0,0,0,,,,,,,PARCEL,LB,z,m,./images/PARCELLB.png,,,,,,,,,,,,,,,,,,,,z,1,0.744,,,,,,,,0,62,62,102,1
,,,,,,,,,,,,,,,,,60805973b343054738e6bf29,41,2022-02-12_13h23.07.650,lexical_decision_task_DD_L3,2021.2.3,MacIntel,30.3030303,,,,,,,,,,,,0.735,1,,,,,,,,,,,,,,,,,,,,,,,,0.081111111,-0.391111111,0,0,0,,,,,,,SWEAT,LB,m,m,./images/SWEATLB.png,,,,,,,,,,,,,,,,,,,,m,1,0.735,,,,,,,,0,63,63,66,1
,,,,,,,,,,,,,,,,,60805973b343054738e6bf29,41,2022-02-12_13h23.07.650,lexical_decision_task_DD_L3,2021.2.3,MacIntel,30.3030303,,,,,,,,,,,,0.698,1,,,,,,,,,,,,,,,,,,,,,,,,0.081111111,-0.391111111,0,0,0,,,,,,,MIRROR,LB,m,m,./images/MIRRORLB.png,,,,,,,,,,,,,,,,,,,,m,1,0.698,,,,,,,,0,64,64,63,1
,,,,,,,,,,,,,,,,,60805973b343054738e6bf29,41,2022-02-12_13h23.07.650,lexical_decision_task_DD_L3,2021.2.3,MacIntel,30.3030303,,,,,,,,,,,,0.753,0,,,,,,,,,,,,,,,,,,,,,,,,0.081111111,-0.391111111,0,0,0,,,,,,,CURRY,LB,z,m,./images/CURRYLB.png,,,,,,,,,,,,,,,,,,,,m,0,0.753,,,,,,,,0,65,65,144,1
,,,,,,,,,,,,,,,,,60805973b343054738e6bf29,41,2022-02-12_13h23.07.650,lexical_decision_task_DD_L3,2021.2.3,MacIntel,30.3030303,,,,,,,,,,,,0.696,1,,,,,,,,,,,,,,,,,,,,,,,,0.081111111,-0.391111111,0,0,0,,,,,,,BEARD,HB,m,m,./images/BEARDHB.png,,,,,,,,,,,,,,,,,,,,m,1,0.696,,,,,,,,0,66,66,2,1
,,,,,,,,,,,,,,,,,60805973b343054738e6bf29,41,2022-02-12_13h23.07.650,lexical_decision_task_DD_L3,2021.2.3,MacIntel,30.3030303,,,,,,,,,,,,1.126,0,,,,,,,,,,,,,,,,,,,,,,,,0.081111111,-0.391111111,0,0,0,,,,,,,ARROW,LB,z,m,./images/ARROWLB.png,,,,,,,,,,,,,,,,,,,,m,0,1.126,,,,,,,,0,67,67,153,1
,,,,,,,,,,,,,,,,,60805973b343054738e6bf29,41,2022-02-12_13h23.07.650,lexical_decision_task_DD_L3,2021.2.3,MacIntel,30.3030303,,,,,,,,,,,,0.747,0,,,,,,,,,,,,,,,,,,,,,,,,0.081111111,-0.391111111,0,0,0,,,,,,,BIRTH,C,m,m,./images/BIRTH.png,,,,,,,,,,,,,,,,,,,,z,0,0.747,,,,,,,,0,68,68,37,1
,,,,,,,,,,,,,,,,,60805973b343054738e6bf29,41,2022-02-12_13h23.07.650,lexical_decision_task_DD_L3,2021.2.3,MacIntel,30.3030303,,,,,,,,,,,,0.819,0,,,,,,,,,,,,,,,,,,,,,,,,0.081111111,-0.391111111,0,0,0,,,,,,,SPORT,LB,m,m,./images/SPORTLB.png,,,,,,,,,,,,,,,,,,,,z,0,0.819,,,,,,,,0,69,69,48,1
,,,,,,,,,,,,,,,,,60805973b343054738e6bf29,41,2022-02-12_13h23.07.650,lexical_decision_task_DD_L3,2021.2.3,MacIntel,30.3030303,,,,,,,,,,,,0.68,1,,,,,,,,,,,,,,,,,,,,,,,,0.081111111,-0.391111111,0,0,0,,,,,,,QUILL,C,m,m,./images/QUILL.png,,,,,,,,,,,,,,,,,,,,m,1,0.68,,,,,,,,0,70,70,31,1
,,,,,,,,,,,,,,,,,60805973b343054738e6bf29,41,2022-02-12_13h23.07.650,lexical_decision_task_DD_L3,2021.2.3,MacIntel,30.3030303,,,,,,,,,,,,0.859,1,,,,,,,,,,,,,,,,,,,,,,,,0.081111111,-0.391111111,0,0,0,,,,,,,FOLDER,LB,m,m,./images/FOLDERLB.png,,,,,,,,,,,,,,,,,,,,m,1,0.859,,,,,,,,0,71,71,42,1
,,,,,,,,,,,,,,,,,60805973b343054738e6bf29,41,2022-02-12_13h23.07.650,lexical_decision_task_DD_L3,2021.2.3,MacIntel,30.3030303,,,,,,,,,,,,0.702,1,,,,,,,,,,,,,,,,,,,,,,,,0.081111111,-0.391111111,0,0,0,,,,,,,CHERRY,LB,z,m,./images/CHERRYLB.png,,,,,,,,,,,,,,,,,,,,z,1,0.702,,,,,,,,0,72,72,138,1
,,,,,,,,,,,,,,,,,60805973b343054738e6bf29,41,2022-02-12_13h23.07.650,lexical_decision_task_DD_L3,2021.2.3,MacIntel,30.3030303,,,,,,,,,,,,0.878,1,,,,,,,,,,,,,,,,,,,,,,,,0.081111111,-0.391111111,0,0,0,,,,,,,SNAKE,C,z,m,./images/SNAKE.png,,,,,,,,,,,,,,,,,,,,z,1,0.878,,,,,,,,0,73,73,124,1
,,,,,,,,,,,,,,,,,60805973b343054738e6bf29,41,2022-02-12_13h23.07.650,lexical_decision_task_DD_L3,2021.2.3,MacIntel,30.3030303,,,,,,,,,,,,1.036,1,,,,,,,,,,,,,,,,,,,,,,,,0.081111111,-0.391111111,0,0,0,,,,,,,JUNGLE,HB,m,m,./images/JUNGLEHB.png,,,,,,,,,,,,,,,,,,,,m,1,1.036,,,,,,,,0,74,74,83,1
,,,,,,,,,,,,,,,,,60805973b343054738e6bf29,41,2022-02-12_13h23.07.650,lexical_decision_task_DD_L3,2021.2.3,MacIntel,30.3030303,,,,,,,,,,,,0.846,0,,,,,,,,,,,,,,,,,,,,,,,,0.081111111,-0.391111111,0,0,0,,,,,,,BURIAL,HB,m,m,./images/BURIALHB.png,,,,,,,,,,,,,,,,,,,,z,0,0.846,,,,,,,,0,75,75,59,1
,,,,,,,,,,,,,,,,,60805973b343054738e6bf29,41,2022-02-12_13h23.07.650,lexical_decision_task_DD_L3,2021.2.3,MacIntel,30.3030303,,,,,,,,,,,,0.793,0,,,,,,,,,,,,,,,,,,,,,,,,0.081111111,-0.391111111,0,0,0,,,,,,,MONKEY,LB,z,m,./images/MONKEYLB.png,,,,,,,,,,,,,,,,,,,,m,0,0.793,,,,,,,,0,76,76,129,1
,,,,,,,,,,,,,,,,,60805973b343054738e6bf29,41,2022-02-12_13h23.07.650,lexical_decision_task_DD_L3,2021.2.3,MacIntel,30.3030303,,,,,,,,,,,,0.769,1,,,,,,,,,,,,,,,,,,,,,,,,0.081111111,-0.391111111,0,0,0,,,,,,,PLANK,C,m,m,./images/PLANK.png,,,,,,,,,,,,,,,,,,,,m,1,0.769,,,,,,,,0,77,77,1,1
,,,,,,,,,,,,,,,,,60805973b343054738e6bf29,41,2022-02-12_13h23.07.650,lexical_decision_task_DD_L3,2021.2.3,MacIntel,30.3030303,,,,,,,,,,,,0.861,0,,,,,,,,,,,,,,,,,,,,,,,,0.081111111,-0.391111111,0,0,0,,,,,,,INFANT,C,m,m,./images/INFANT.png,,,,,,,,,,,,,,,,,,,,z,0,0.861,,,,,,,,0,78,78,76,1
,,,,,,,,,,,,,,,,,60805973b343054738e6bf29,41,2022-02-12_13h23.07.650,lexical_decision_task_DD_L3,2021.2.3,MacIntel,30.3030303,,,,,,,,,,,,0.705,1,,,,,,,,,,,,,,,,,,,,,,,,0.081111111,-0.391111111,0,0,0,,,,,,,GARDEN,C,z,m,./images/GARDEN.png,,,,,,,,,,,,,,,,,,,,z,1,0.705,,,,,,,,0,79,79,94,1
,,,,,,,,,,,,,,,,,60805973b343054738e6bf29,41,2022-02-12_13h23.07.650,lexical_decision_task_DD_L3,2021.2.3,MacIntel,30.3030303,,,,,,,,,,,,0.653,1,,,,,,,,,,,,,,,,,,,,,,,,0.081111111,-0.391111111,0,0,0,,,,,,,MOTOR,C,m,m,./images/MOTOR.png,,,,,,,,,,,,,,,,,,,,m,1,0.653,,,,,,,,0,80,80,13,1
,,,,,,,,,,,,,,,,,60805973b343054738e6bf29,41,2022-02-12_13h23.07.650,lexical_decision_task_DD_L3,2021.2.3,MacIntel,30.3030303,,,,,,,,,,,,1.077,0,,,,,,,,,,,,,,,,,,,,,,,,0.081111111,-0.391111111,0,0,0,,,,,,,LAGOON,HB,z,m,./images/LAGOONHB.png,,,,,,,,,,,,,,,,,,,,m,0,1.077,,,,,,,,0,81,81,131,1
,,,,,,,,,,,,,,,,,60805973b343054738e6bf29,41,2022-02-12_13h23.07.650,lexical_decision_task_DD_L3,2021.2.3,MacIntel,30.3030303,,,,,,,,,,,,0.776,0,,,,,,,,,,,,,,,,,,,,,,,,0.081111111,-0.391111111,0,0,0,,,,,,,PISTOL,HB,z,m,./images/PISTOLHB.png,,,,,,,,,,,,,,,,,,,,m,0,0.776,,,,,,,,0,82,82,113,1
,,,,,,,,,,,,,,,,,60805973b343054738e6bf29,41,2022-02-12_13h23.07.650,lexical_decision_task_DD_L3,2021.2.3,MacIntel,30.3030303,,,,,,,,,,,,0.794,1,,,,,,,,,,,,,,,,,,,,,,,,0.081111111,-0.391111111,0,0,0,space,,,,,,HEATER,HB,z,m,./images/HEATERHB.png,4.278,,,,,,,,,,,,,,,,,,,z,1,0.794,,,,,,,,0,83,83,140,1
,,,,,,,,,,,,,,,,,60805973b343054738e6bf29,41,2022-02-12_13h23.07.650,lexical_decision_task_DD_L3,2021.2.3,MacIntel,30.3030303,,,,,,,,,,,,0.755,1,,,,,,,,,,,,,,,,,,,,,,,,0.081111111,-0.391111111,0,0,0,,,,,,,PEACH,HB,m,m,./images/PEACHHB.png,,,,,,,,,,,,,,,,,,,,m,1,0.755,,,,,,,,0,84,84,35,1
,,,,,,,,,,,,,,,,,60805973b343054738e6bf29,41,2022-02-12_13h23.07.650,lexical_decision_task_DD_L3,2021.2.3,MacIntel,30.3030303,,,,,,,,,,,,0.712,1,,,,,,,,,,,,,,,,,,,,,,,,0.081111111,-0.391111111,0,0,0,,,,,,,GREASE,LB,m,m,./images/GREASELB.png,,,,,,,,,,,,,,,,,,,,m,1,0.712,,,,,,,,0,85,85,15,1
,,,,,,,,,,,,,,,,,60805973b343054738e6bf29,41,2022-02-12_13h23.07.650,lexical_decision_task_DD_L3,2021.2.3,MacIntel,30.3030303,,,,,,,,,,,,0.693,1,,,,,,,,,,,,,,,,,,,,,,,,0.081111111,-0.391111111,0,0,0,,,,,,,NOOSE,LB,m,m,./images/NOOSELB.png,,,,,,,,,,,,,,,,,,,,m,1,0.693,,,,,,,,0,86,86,72,1
,,,,,,,,,,,,,,,,,60805973b343054738e6bf29,41,2022-02-12_13h23.07.650,lexical_decision_task_DD_L3,2021.2.3,MacIntel,30.3030303,,,,,,,,,,,,0.611,1,,,,,,,,,,,,,,,,,,,,,,,,0.081111111,-0.391111111,0,0,0,,,,,,,SWING,C,m,m,./images/SWING.png,,,,,,,,,,,,,,,,,,,,m,1,0.611,,,,,,,,0,87,87,40,1
,,,,,,,,,,,,,,,,,60805973b343054738e6bf29,41,2022-02-12_13h23.07.650,lexical_decision_task_DD_L3,2021.2.3,MacIntel,30.3030303,,,,,,,,,,,,0.678,1,,,,,,,,,,,,,,,,,,,,,,,,0.081111111,-0.391111111,0,0,0,,,,,,,COUCH,HB,m,m,./images/COUCHHB.png,,,,,,,,,,,,,,,,,,,,m,1,0.678,,,,,,,,0,88,88,77,1
,,,,,,,,,,,,,,,,,60805973b343054738e6bf29,41,2022-02-12_13h23.07.650,lexical_decision_task_DD_L3,2021.2.3,MacIntel,30.3030303,,,,,,,,,,,,0.719,1,,,,,,,,,,,,,,,,,,,,,,,,0.081111111,-0.391111111,0,0,0,,,,,,,COLLAR,LB,z,m,./images/COLLARLB.png,,,,,,,,,,,,,,,,,,,,z,1,0.719,,,,,,,,0,89,89,99,1
,,,,,,,,,,,,,,,,,60805973b343054738e6bf29,41,2022-02-12_13h23.07.650,lexical_decision_task_DD_L3,2021.2.3,MacIntel,30.3030303,,,,,,,,,,,,0.733,1,,,,,,,,,,,,,,,,,,,,,,,,0.081111111,-0.391111111,0,0,0,,,,,,,CLOTH,HB,z,m,./images/CLOTHHB.png,,,,,,,,,,,,,,,,,,,,z,1,0.733,,,,,,,,0,90,90,107,1
,,,,,,,,,,,,,,,,,60805973b343054738e6bf29,41,2022-02-12_13h23.07.650,lexical_decision_task_DD_L3,2021.2.3,MacIntel,30.3030303,,,,,,,,,,,,0.626,1,,,,,,,,,,,,,,,,,,,,,,,,0.081111111,-0.391111111,0,0,0,,,,,,,LLAMA,HB,z,m,./images/LLAMAHB.png,,,,,,,,,,,,,,,,,,,,z,1,0.626,,,,,,,,0,91,91,119,1
,,,,,,,,,,,,,,,,,60805973b343054738e6bf29,41,2022-02-12_13h23.07.650,lexical_decision_task_DD_L3,2021.2.3,MacIntel,30.3030303,,,,,,,,,,,,0.585,0,,,,,,,,,,,,,,,,,,,,,,,,0.081111111,-0.391111111,0,0,0,,,,,,,POODLE,LB,m,m,./images/POODLELB.png,,,,,,,,,,,,,,,,,,,,z,0,0.585,,,,,,,,0,92,92,81,1
,,,,,,,,,,,,,,,,,60805973b343054738e6bf29,41,2022-02-12_13h23.07.650,lexical_decision_task_DD_L3,2021.2.3,MacIntel,30.3030303,,,,,,,,,,,,0.627,1,,,,,,,,,,,,,,,,,,,,,,,,0.081111111,-0.391111111,0,0,0,,,,,,,MUSCLE,C,m,m,./images/MUSCLE.png,,,,,,,,,,,,,,,,,,,,m,1,0.627,,,,,,,,0,93,93,4,1
,,,,,,,,,,,,,,,,,60805973b343054738e6bf29,41,2022-02-12_13h23.07.650,lexical_decision_task_DD_L3,2021.2.3,MacIntel,30.3030303,,,,,,,,,,,,0.919,1,,,,,,,,,,,,,,,,,,,,,,,,0.081111111,-0.391111111,0,0,0,,,,,,,BELLY,C,m,m,./images/BELLY.png,,,,,,,,,,,,,,,,,,,,m,1,0.919,,,,,,,,0,94,94,10,1
,,,,,,,,,,,,,,,,,60805973b343054738e6bf29,41,2022-02-12_13h23.07.650,lexical_decision_task_DD_L3,2021.2.3,MacIntel,30.3030303,,,,,,,,,,,,0.796,1,,,,,,,,,,,,,,,,,,,,,,,,0.081111111,-0.391111111,0,0,0,,,,,,,DRILL,LB,z,m,./images/DRILLLB.png,,,,,,,,,,,,,,,,,,,,z,1,0.796,,,,,,,,0,95,95,165,1
,,,,,,,,,,,,,,,,,60805973b343054738e6bf29,41,2022-02-12_13h23.07.650,lexical_decision_task_DD_L3,2021.2.3,MacIntel,30.3030303,,,,,,,,,,,,0.943,1,,,,,,,,,,,,,,,,,,,,,,,,0.081111111,-0.391111111,0,0,0,,,,,,,THROAT,LB,m,m,./images/THROATLB.png,,,,,,,,,,,,,,,,,,,,m,1,0.943,,,,,,,,0,96,96,36,1
,,,,,,,,,,,,,,,,,60805973b343054738e6bf29,41,2022-02-12_13h23.07.650,lexical_decision_task_DD_L3,2021.2.3,MacIntel,30.3030303,,,,,,,,,,,,0.752,1,,,,,,,,,,,,,,,,,,,,,,,,0.081111111,-0.391111111,0,0,0,,,,,,,SCREW,LB,m,m,./images/SCREWLB.png,,,,,,,,,,,,,,,,,,,,m,1,0.752,,,,,,,,0,97,97,24,1
,,,,,,,,,,,,,,,,,60805973b343054738e6bf29,41,2022-02-12_13h23.07.650,lexical_decision_task_DD_L3,2021.2.3,MacIntel,30.3030303,,,,,,,,,,,,0.821,1,,,,,,,,,,,,,,,,,,,,,,,,0.081111111,-0.391111111,0,0,0,,,,,,,SAILOR,C,m,m,./images/SAILOR.png,,,,,,,,,,,,,,,,,,,,m,1,0.821,,,,,,,,0,98,98,67,1
,,,,,,,,,,,,,,,,,60805973b343054738e6bf29,41,2022-02-12_13h23.07.650,lexical_decision_task_DD_L3,2021.2.3,MacIntel,30.3030303,,,,,,,,,,,,0.71,1,,,,,,,,,,,,,,,,,,,,,,,,0.081111111,-0.391111111,0,0,0,,,,,,,GRAPE,C,z,m,./images/GRAPE.png,,,,,,,,,,,,,,,,,,,,z,1,0.71,,,,,,,,0,99,99,100,1
,,,,,,,,,,,,,,,,,60805973b343054738e6bf29,41,2022-02-12_13h23.07.650,lexical_decision_task_DD_L3,2021.2.3,MacIntel,30.3030303,,,,,,,,,,,,0.919,1,,,,,,,,,,,,,,,,,,,,,,,,0.081111111,-0.391111111,0,0,0,,,,,,,FLASK,LB,z,m,./images/FLASKLB.png,,,,,,,,,,,,,,,,,,,,z,1,0.919,,,,,,,,0,100,100,156,1
,,,,,,,,,,,,,,,,,60805973b343054738e6bf29,41,2022-02-12_13h23.07.650,lexical_decision_task_DD_L3,2021.2.3,MacIntel,30.3030303,,,,,,,,,,,,1.036,1,,,,,,,,,,,,,,,,,,,,,,,,0.081111111,-0.391111111,0,0,0,,,,,,,FERRY,LB,z,m,./images/FERRYLB.png,,,,,,,,,,,,,,,,,,,,z,1,1.036,,,,,,,,0,101,101,141,1
,,,,,,,,,,,,,,,,,60805973b343054738e6bf29,41,2022-02-12_13h23.07.650,lexical_decision_task_DD_L3,2021.2.3,MacIntel,30.3030303,,,,,,,,,,,,0.714,1,,,,,,,,,,,,,,,,,,,,,,,,0.081111111,-0.391111111,0,0,0,,,,,,,STREAM,HB,z,m,./images/STREAMHB.png,,,,,,,,,,,,,,,,,,,,z,1,0.714,,,,,,,,0,102,102,125,1
,,,,,,,,,,,,,,,,,60805973b343054738e6bf29,41,2022-02-12_13h23.07.650,lexical_decision_task_DD_L3,2021.2.3,MacIntel,30.3030303,,,,,,,,,,,,0.636,1,,,,,,,,,,,,,,,,,,,,,,,,0.081111111,-0.391111111,0,0,0,,,,,,,TIGER,C,z,m,./images/TIGER.png,,,,,,,,,,,,,,,,,,,,z,1,0.636,,,,,,,,0,103,103,121,1
,,,,,,,,,,,,,,,,,60805973b343054738e6bf29,41,2022-02-12_13h23.07.650,lexical_decision_task_DD_L3,2021.2.3,MacIntel,30.3030303,,,,,,,,,,,,0.688,1,,,,,,,,,,,,,,,,,,,,,,,,0.081111111,-0.391111111,0,0,0,,,,,,,BUNNY,C,z,m,./images/BUNNY.png,,,,,,,,,,,,,,,,,,,,z,1,0.688,,,,,,,,0,104,104,97,1
,,,,,,,,,,,,,,,,,60805973b343054738e6bf29,41,2022-02-12_13h23.07.650,lexical_decision_task_DD_L3,2021.2.3,MacIntel,30.3030303,,,,,,,,,,,,0.977,0,,,,,,,,,,,,,,,,,,,,,,,,0.081111111,-0.391111111,0,0,0,,,,,,,ONION,LB,m,m,./images/ONIONLB.png,,,,,,,,,,,,,,,,,,,,z,0,0.977,,,,,,,,0,105,105,51,1
,,,,,,,,,,,,,,,,,60805973b343054738e6bf29,41,2022-02-12_13h23.07.650,lexical_decision_task_DD_L3,2021.2.3,MacIntel,30.3030303,,,,,,,,,,,,0.795,0,,,,,,,,,,,,,,,,,,,,,,,,0.081111111,-0.391111111,0,0,0,,,,,,,LIZARD,HB,m,m,./images/LIZARDHB.png,,,,,,,,,,,,,,,,,,,,z,0,0.795,,,,,,,,0,106,106,44,1
,,,,,,,,,,,,,,,,,60805973b343054738e6bf29,41,2022-02-12_13h23.07.650,lexical_decision_task_DD_L3,2021.2.3,MacIntel,30.3030303,,,,,,,,,,,,0.719,1,,,,,,,,,,,,,,,,,,,,,,,,0.081111111,-0.391111111,0,0,0,,,,,,,WEASEL,HB,m,m,./images/WEASELHB.png,,,,,,,,,,,,,,,,,,,,m,1,0.719,,,,,,,,0,107,107,80,1
,,,,,,,,,,,,,,,,,60805973b343054738e6bf29,41,2022-02-12_13h23.07.650,lexical_decision_task_DD_L3,2021.2.3,MacIntel,30.3030303,,,,,,,,,,,,0.899,0,,,,,,,,,,,,,,,,,,,,,,,,0.081111111,-0.391111111,0,0,0,,,,,,,CRUST,C,m,m,./images/CRUST.png,,,,,,,,,,,,,,,,,,,,z,0,0.899,,,,,,,,0,108,108,79,1
,,,,,,,,,,,,,,,,,60805973b343054738e6bf29,41,2022-02-12_13h23.07.650,lexical_decision_task_DD_L3,2021.2.3,MacIntel,30.3030303,,,,,,,,,,,,0.737,1,,,,,,,,,,,,,,,,,,,,,,,,0.081111111,-0.391111111,0,0,0,,,,,,,BERRY,HB,m,m,./images/BERRYHB.png,,,,,,,,,,,,,,,,,,,,m,1,0.737,,,,,,,,0,109,109,47,1
,,,,,,,,,,,,,,,,,60805973b343054738e6bf29,41,2022-02-12_13h23.07.650,lexical_decision_task_DD_L3,2021.2.3,MacIntel,30.3030303,,,,,,,,,,,,0.679,1,,,,,,,,,,,,,,,,,,,,,,,,0.081111111,-0.391111111,0,0,0,,,,,,,BUBBLE,HB,z,m,./images/BUBBLEHB.png,,,,,,,,,,,,,,,,,,,,z,1,0.679,,,,,,,,0,110,110,155,1
,,,,,,,,,,,,,,,,,60805973b343054738e6bf29,41,2022-02-12_13h23.07.650,lexical_decision_task_DD_L3,2021.2.3,MacIntel,30.3030303,,,,,,,,,,,,0.798,1,,,,,,,,,,,,,,,,,,,,,,,,0.081111111,-0.391111111,0,0,0,,,,,,,PILOT,HB,z,m,./images/PILOTHB.png,,,,,,,,,,,,,,,,,,,,z,1,0.798,,,,,,,,0,111,111,134,1
,,,,,,,,,,,,,,,,,60805973b343054738e6bf29,41,2022-02-12_13h23.07.650,lexical_decision_task_DD_L3,2021.2.3,MacIntel,30.3030303,,,,,,,,,,,,0.777,0,,,,,,,,,,,,,,,,,,,,,,,,0.081111111,-0.391111111,0,0,0,,,,,,,FINGER,LB,m,m,./images/FINGERLB.png,,,,,,,,,,,,,,,,,,,,z,0,0.777,,,,,,,,0,112,112,3,1
,,,,,,,,,,,,,,,,,60805973b343054738e6bf29,41,2022-02-12_13h23.07.650,lexical_decision_task_DD_L3,2021.2.3,MacIntel,30.3030303,,,,,,,,,,,,0.63,0,,,,,,,,,,,,,,,,,,,,,,,,0.081111111,-0.391111111,0,0,0,,,,,,,TWINS,LB,m,m,./images/TWINSLB.png,,,,,,,,,,,,,,,,,,,,z,0,0.63,,,,,,,,0,113,113,60,1
,,,,,,,,,,,,,,,,,60805973b343054738e6bf29,41,2022-02-12_13h23.07.650,lexical_decision_task_DD_L3,2021.2.3,MacIntel,30.3030303,,,,,,,,,,,,0.756,1,,,,,,,,,,,,,,,,,,,,,,,,0.081111111,-0.391111111,0,0,0,,,,,,,CASINO,C,z,m,./images/CASINO.png,,,,,,,,,,,,,,,,,,,,z,1,0.756,,,,,,,,0,114,114,112,1
,,,,,,,,,,,,,,,,,60805973b343054738e6bf29,41,2022-02-12_13h23.07.650,lexical_decision_task_DD_L3,2021.2.3,MacIntel,30.3030303,,,,,,,,,,,,1.055,0,,,,,,,,,,,,,,,,,,,,,,,,0.081111111,-0.391111111,0,0,0,,,,,,,SKIING,HB,m,m,./images/SKIINGHB.png,,,,,,,,,,,,,,,,,,,,z,0,1.055,,,,,,,,0,115,115,17,1
,,,,,,,,,,,,,,,,,60805973b343054738e6bf29,41,2022-02-12_13h23.07.650,lexical_decision_task_DD_L3,2021.2.3,MacIntel,30.3030303,,,,,,,,,,,,0.613,1,,,,,,,,,,,,,,,,,,,,,,,,0.081111111,-0.391111111,0,0,0,,,,,,,CLIFF,HB,z,m,./images/CLIFFHB.png,,,,,,,,,,,,,,,,,,,,z,1,0.613,,,,,,,,0,116,116,92,1
,,,,,,,,,,,,,,,,,60805973b343054738e6bf29,41,2022-02-12_13h23.07.650,lexical_decision_task_DD_L3,2021.2.3,MacIntel,30.3030303,,,,,,,,,,,,0.789,0,,,,,,,,,,,,,,,,,,,,,,,,0.081111111,-0.391111111,0,0,0,,,,,,,DIVER,LB,z,m,./images/DIVERLB.png,,,,,,,,,,,,,,,,,,,,m,0,0.789,,,,,,,,0,117,117,93,1
,,,,,,,,,,,,,,,,,60805973b343054738e6bf29,41,2022-02-12_13h23.07.650,lexical_decision_task_DD_L3,2021.2.3,MacIntel,30.3030303,,,,,,,,,,,,0.994,1,,,,,,,,,,,,,,,,,,,,,,,,0.081111111,-0.391111111,0,0,0,,,,,,,MAGGOT,LB,m,m,./images/MAGGOTLB.png,,,,,,,,,,,,,,,,,,,,m,1,0.994,,,,,,,,0,118,118,33,1
,,,,,,,,,,,,,,,,,60805973b343054738e6bf29,41,2022-02-12_13h23.07.650,lexical_decision_task_DD_L3,2021.2.3,MacIntel,30.3030303,,,,,,,,,,,,0.949,0,,,,,,,,,,,,,,,,,,,,,,,,0.081111111,-0.391111111,0,0,0,,,,,,,KITTEN,LB,m,m,./images/KITTENLB.png,,,,,,,,,,,,,,,,,,,,z,0,0.949,,,,,,,,0,119,119,45,1
,,,,,,,,,,,,,,,,,60805973b343054738e6bf29,41,2022-02-12_13h23.07.650,lexical_decision_task_DD_L3,2021.2.3,MacIntel,30.3030303,,,,,,,,,,,,0.741,0,,,,,,,,,,,,,,,,,,,,,,,,0.081111111,-0.391111111,0,0,0,,,,,,,BANNER,C,m,m,./images/BANNER.png,,,,,,,,,,,,,,,,,,,,z,0,0.741,,,,,,,,0,120,120,52,1
,,,,,,,,,,,,,,,,,60805973b343054738e6bf29,41,2022-02-12_13h23.07.650,lexical_decision_task_DD_L3,2021.2.3,MacIntel,30.3030303,,,,,,,,,,,,0.803,0,,,,,,,,,,,,,,,,,,,,,,,,0.081111111,-0.391111111,0,0,0,,,,,,,TOMATO,LB,m,m,./images/TOMATOLB.png,,,,,,,,,,,,,,,,,,,,z,0,0.803,,,,,,,,0,121,121,0,1
,,,,,,,,,,,,,,,,,60805973b343054738e6bf29,41,2022-02-12_13h23.07.650,lexical_decision_task_DD_L3,2021.2.3,MacIntel,30.3030303,,,,,,,,,,,,0.626,1,,,,,,,,,,,,,,,,,,,,,,,,0.081111111,-0.391111111,0,0,0,,,,,,,CLOUD,HB,z,m,./images/CLOUDHB.png,,,,,,,,,,,,,,,,,,,,z,1,0.626,,,,,,,,0,122,122,110,1
,,,,,,,,,,,,,,,,,60805973b343054738e6bf29,41,2022-02-12_13h23.07.650,lexical_decision_task_DD_L3,2021.2.3,MacIntel,30.3030303,,,,,,,,,,,,0.608,0,,,,,,,,,,,,,,,,,,,,,,,,0.081111111,-0.391111111,0,0,0,,,,,,,FARMER,HB,m,m,./images/FARMERHB.png,,,,,,,,,,,,,,,,,,,,z,0,0.608,,,,,,,,0,123,123,65,1
,,,,,,,,,,,,,,,,,60805973b343054738e6bf29,41,2022-02-12_13h23.07.650,lexical_decision_task_DD_L3,2021.2.3,MacIntel,30.3030303,,,,,,,,,,,,0.865,1,,,,,,,,,,,,,,,,,,,,,,,,0.081111111,-0.391111111,0,0,0,,,,,,,MALLET,HB,m,m,./images/MALLETHB.png,,,,,,,,,,,,,,,,,,,,m,1,0.865,,,,,,,,0,124,124,50,1
,,,,,,,,,,,,,,,,,60805973b343054738e6bf29,41,2022-02-12_13h23.07.650,lexical_decision_task_DD_L3,2021.2.3,MacIntel,30.3030303,,,,,,,,,,,,0.621,1,,,,,,,,,,,,,,,,,,,,,,,,0.081111111,-0.391111111,0,0,0,space,,,,,,JUMPER,HB,z,m,./images/JUMPERHB.png,6.712,,,,,,,,,,,,,,,,,,,z,1,0.621,,,,,,,,0,125,125,158,1
,,,,,,,,,,,,,,,,,60805973b343054738e6bf29,41,2022-02-12_13h23.07.650,lexical_decision_task_DD_L3,2021.2.3,MacIntel,30.3030303,,,,,,,,,,,,1.278,1,,,,,,,,,,,,,,,,,,,,,,,,0.081111111,-0.391111111,0,0,0,,,,,,,BABOON,C,m,m,./images/BABOON.png,,,,,,,,,,,,,,,,,,,,m,1,1.278,,,,,,,,0,126,126,58,1
,,,,,,,,,,,,,,,,,60805973b343054738e6bf29,41,2022-02-12_13h23.07.650,lexical_decision_task_DD_L3,2021.2.3,MacIntel,30.3030303,,,,,,,,,,,,0.863,1,,,,,,,,,,,,,,,,,,,,,,,,0.081111111,-0.391111111,0,0,0,,,,,,,PIMPLE,HB,m,m,./images/PIMPLEHB.png,,,,,,,,,,,,,,,,,,,,m,1,0.863,,,,,,,,0,127,127,71,1
,,,,,,,,,,,,,,,,,60805973b343054738e6bf29,41,2022-02-12_13h23.07.650,lexical_decision_task_DD_L3,2021.2.3,MacIntel,30.3030303,,,,,,,,,,,,0.606,1,,,,,,,,,,,,,,,,,,,,,,,,0.081111111,-0.391111111,0,0,0,,,,,,,BAKER,LB,z,m,./images/BAKERLB.png,,,,,,,,,,,,,,,,,,,,z,1,0.606,,,,,,,,0,128,128,147,1
,,,,,,,,,,,,,,,,,60805973b343054738e6bf29,41,2022-02-12_13h23.07.650,lexical_decision_task_DD_L3,2021.2.3,MacIntel,30.3030303,,,,,,,,,,,,0.742,1,,,,,,,,,,,,,,,,,,,,,,,,0.081111111,-0.391111111,0,0,0,,,,,,,PURSE,HB,m,m,./images/PURSEHB.png,,,,,,,,,,,,,,,,,,,,m,1,0.742,,,,,,,,0,129,129,62,1
,,,,,,,,,,,,,,,,,60805973b343054738e6bf29,41,2022-02-12_13h23.07.650,lexical_decision_task_DD_L3,2021.2.3,MacIntel,30.3030303,,,,,,,,,,,,0.722,1,,,,,,,,,,,,,,,,,,,,,,,,0.081111111,-0.391111111,0,0,0,,,,,,,DRUMS,C,m,m,./images/DRUMS.png,,,,,,,,,,,,,,,,,,,,m,1,0.722,,,,,,,,0,130,130,49,1
