key_resp.keys,instr_done_touch.x,instr_done_touch.y,instr_done_touch.leftButton,instr_done_touch.midButton,instr_done_touch.rightButton,instr_done_touch.clicked_name,instruction_pages.thisRepN,instruction_pages.thisTrialN,instruction_pages.thisN,instruction_pages.thisIndex,instruction_pages.ran,pageN,phase,instruct_text,has_image,instruct_image,participant,age,date,expName,psychopyVersion,OS,frameRate,key_resp.rt,response.keys,response.corr,response.rt,touch_resp.x,touch_resp.y,touch_resp.leftButton,touch_resp.midButton,touch_resp.rightButton,touch_resp.time,touch_resp.clicked_name,rt,corr,practrials.thisRepN,practrials.thisTrialN,practrials.thisN,practrials.thisIndex,practrials.ran,TrialID,Target,corrAns,end_of_practice_trials_pages.thisRepN,end_of_practice_trials_pages.thisTrialN,end_of_practice_trials_pages.thisN,end_of_practice_trials_pages.thisIndex,end_of_practice_trials_pages.ran,key_resp_2.keys,key_resp_2.corr,key_resp_2.rt,targ_click.x,targ_click.y,targ_click.leftButton,targ_click.midButton,targ_click.rightButton,targ_click.time,targ_click.clicked_name,break_done_touch.x,break_done_touch.y,break_done_touch.leftButton,break_done_touch.midButton,break_done_touch.rightButton,break_done_keyboard.keys,maintrials.thisRepN,maintrials.thisTrialN,maintrials.thisN,maintrials.thisIndex,maintrials.ran,string,blur,study,lex,stim_path,break_done_keyboard.rt,mouse_2.x,mouse_2.y,mouse_2.leftButton,mouse_2.midButton,mouse_2.rightButton,mouse_2.clicked_name,slider.response,slider.rt,trials.thisRepN,trials.thisTrialN,trials.thisN,trials.thisIndex,trials.ran,test_instructions.thisRepN,test_instructions.thisTrialN,test_instructions.thisN,test_instructions.thisIndex,test_instructions.ran,key_resp_3.keys,key_resp_3.corr,key_resp_3.rt,test_click.x,test_click.y,test_click.leftButton,test_click.midButton,test_click.rightButton,test_click.time,test_click.clicked_name,test_phase.thisRepN,test_phase.thisTrialN,test_phase.thisN,test_phase.thisIndex,test_phase.ran,break_done_touch.clicked_name
,-0.098958333,-0.393229167,1,0,0,instr_done_button,0,0,0,0,1,1,instructions,"INSTRUCTIONS
At the start of each trial, look at the plus sign  (+) in the center of the screen.  This tells you that a trial is about to begin and where to look. Second, the plus sign will disappear and a string of letters will appear. Your task is to determine if the string of letters is a word or not. If the item is a word press the M key (on keyboard)  or touch the word button (phone/tablet).  If the item is not a word,  press the  Z key (on keyboard)  or touch the nonword button (on phone/tablet). 
Press the space bar or touch  continue.",0,,60ace56a83e45642b22d9954,32,2022-02-12_13h47.05.643,lexical_decision_task_DD_L3,2021.2.3,Win32,60.50338819,,,,,,,,,,,,,,,,,,,,,,,,,,,,,,,,,,,,,,,,,,,,,,,,,,,,,,,,,,,,,,,,,,,,,,,,,,,,,,,,,,,,,,,
space,0.046875,-0.39453125,0,0,0,,0,1,1,1,1,2,instructions,"If your device has a keyboard, press the 'Z' key for nonwords and the 'M' key for words.





Press the space bar or touch the button below to continue.",0,keyboard-example.gif,60ace56a83e45642b22d9954,32,2022-02-12_13h47.05.643,lexical_decision_task_DD_L3,2021.2.3,Win32,60.50338819,67.8453,,,,,,,,,,,,,,,,,,,,,,,,,,,,,,,,,,,,,,,,,,,,,,,,,,,,,,,,,,,,,,,,,,,,,,,,,,,,,,,,,,,,,,
,0.122395833,-0.416666667,1,0,0,instr_done_button,0,2,2,2,1,3,instructions,"If you are using a touchscreen only device, use the buttons on the screen. Do not use the mouse.





Press the space bar or touch the button below to continue.",0,touchscreen-example.gif,60ace56a83e45642b22d9954,32,2022-02-12_13h47.05.643,lexical_decision_task_DD_L3,2021.2.3,Win32,60.50338819,,,,,,,,,,,,,,,,,,,,,,,,,,,,,,,,,,,,,,,,,,,,,,,,,,,,,,,,,,,,,,,,,,,,,,,,,,,,,,,,,,,,,,,
,0.083333333,-0.393229167,1,0,0,instr_done_button,0,3,3,3,1,4,instructions,"It is very important that you respond as quickly and accurately as possible, as each letter string will only be on the screen for two seconds. If you do not respond within this time, the message 'Too slow!' will be displayed and the experiment will progress to the next letter string. The first 20 trials will be practice trials and you will receive feedback on your answers. 

Press the space bar or touch the button below to start the practice trials.",0,,60ace56a83e45642b22d9954,32,2022-02-12_13h47.05.643,lexical_decision_task_DD_L3,2021.2.3,Win32,60.50338819,,,,,,,,,,,,,,,,,,,,,,,,,,,,,,,,,,,,,,,,,,,,,,,,,,,,,,,,,,,,,,,,,,,,,,,,,,,,,,,,,,,,,,,
,,,,,,,,,,,,,,,,,60ace56a83e45642b22d9954,32,2022-02-12_13h47.05.643,lexical_decision_task_DD_L3,2021.2.3,Win32,60.50338819,,z,1,4.4762,,,,,,,,4.4762,1,0,0,0,10,1,1001,INLADE,z,,,,,,,,,,,,,,,,,,,,,,,,,,,,,,,,,,,,,,,,,,,,,,,,,,,,,,,,,,,,,,,,,,
,,,,,,,,,,,,,,,,,60ace56a83e45642b22d9954,32,2022-02-12_13h47.05.643,lexical_decision_task_DD_L3,2021.2.3,Win32,60.50338819,,m,1,1.0488,,,,,,,,1.0488,1,0,1,1,5,1,1001,OBTAIN,m,,,,,,,,,,,,,,,,,,,,,,,,,,,,,,,,,,,,,,,,,,,,,,,,,,,,,,,,,,,,,,,,,,
,,,,,,,,,,,,,,,,,60ace56a83e45642b22d9954,32,2022-02-12_13h47.05.643,lexical_decision_task_DD_L3,2021.2.3,Win32,60.50338819,,m,1,0.6612,,,,,,,,0.6612,1,0,2,2,1,1,1001,ADJUST,m,,,,,,,,,,,,,,,,,,,,,,,,,,,,,,,,,,,,,,,,,,,,,,,,,,,,,,,,,,,,,,,,,,
,,,,,,,,,,,,,,,,,60ace56a83e45642b22d9954,32,2022-02-12_13h47.05.643,lexical_decision_task_DD_L3,2021.2.3,Win32,60.50338819,,m,1,0.6163,,,,,,,,0.6163,1,0,3,3,7,1,1001,VOLUME,m,,,,,,,,,,,,,,,,,,,,,,,,,,,,,,,,,,,,,,,,,,,,,,,,,,,,,,,,,,,,,,,,,,
,,,,,,,,,,,,,,,,,60ace56a83e45642b22d9954,32,2022-02-12_13h47.05.643,lexical_decision_task_DD_L3,2021.2.3,Win32,60.50338819,,m,1,0.6494,,,,,,,,0.6494,1,0,4,4,3,1,1001,MATRIX,m,,,,,,,,,,,,,,,,,,,,,,,,,,,,,,,,,,,,,,,,,,,,,,,,,,,,,,,,,,,,,,,,,,
,,,,,,,,,,,,,,,,,60ace56a83e45642b22d9954,32,2022-02-12_13h47.05.643,lexical_decision_task_DD_L3,2021.2.3,Win32,60.50338819,,m,1,0.7087,,,,,,,,0.7087,1,0,5,5,6,1,1001,ZOMBIE,m,,,,,,,,,,,,,,,,,,,,,,,,,,,,,,,,,,,,,,,,,,,,,,,,,,,,,,,,,,,,,,,,,,
,,,,,,,,,,,,,,,,,60ace56a83e45642b22d9954,32,2022-02-12_13h47.05.643,lexical_decision_task_DD_L3,2021.2.3,Win32,60.50338819,,z,1,0.6496,,,,,,,,0.6496,1,0,6,6,9,1,1001,FARINY,z,,,,,,,,,,,,,,,,,,,,,,,,,,,,,,,,,,,,,,,,,,,,,,,,,,,,,,,,,,,,,,,,,,
,,,,,,,,,,,,,,,,,60ace56a83e45642b22d9954,32,2022-02-12_13h47.05.643,lexical_decision_task_DD_L3,2021.2.3,Win32,60.50338819,,m,1,0.6536,,,,,,,,0.6536,1,0,7,7,0,1,1001,UTOPIA,m,,,,,,,,,,,,,,,,,,,,,,,,,,,,,,,,,,,,,,,,,,,,,,,,,,,,,,,,,,,,,,,,,,
,,,,,,,,,,,,,,,,,60ace56a83e45642b22d9954,32,2022-02-12_13h47.05.643,lexical_decision_task_DD_L3,2021.2.3,Win32,60.50338819,,z,1,0.7757,,,,,,,,0.7757,1,0,8,8,8,1,1001,ASLERT,z,,,,,,,,,,,,,,,,,,,,,,,,,,,,,,,,,,,,,,,,,,,,,,,,,,,,,,,,,,,,,,,,,,
,,,,,,,,,,,,,,,,,60ace56a83e45642b22d9954,32,2022-02-12_13h47.05.643,lexical_decision_task_DD_L3,2021.2.3,Win32,60.50338819,,z,1,1.0254,,,,,,,,1.0254,1,0,9,9,14,1,1001,THRALE,z,,,,,,,,,,,,,,,,,,,,,,,,,,,,,,,,,,,,,,,,,,,,,,,,,,,,,,,,,,,,,,,,,,
,,,,,,,,,,,,,,,,,60ace56a83e45642b22d9954,32,2022-02-12_13h47.05.643,lexical_decision_task_DD_L3,2021.2.3,Win32,60.50338819,,m,1,0.6912,,,,,,,,0.6912,1,0,10,10,4,1,1001,SQUEAK,m,,,,,,,,,,,,,,,,,,,,,,,,,,,,,,,,,,,,,,,,,,,,,,,,,,,,,,,,,,,,,,,,,,
,,,,,,,,,,,,,,,,,60ace56a83e45642b22d9954,32,2022-02-12_13h47.05.643,lexical_decision_task_DD_L3,2021.2.3,Win32,60.50338819,,z,1,0.7327,,,,,,,,0.7327,1,0,11,11,11,1,1001,RASHET,z,,,,,,,,,,,,,,,,,,,,,,,,,,,,,,,,,,,,,,,,,,,,,,,,,,,,,,,,,,,,,,,,,,
,,,,,,,,,,,,,,,,,60ace56a83e45642b22d9954,32,2022-02-12_13h47.05.643,lexical_decision_task_DD_L3,2021.2.3,Win32,60.50338819,,z,1,0.6514,,,,,,,,0.6514,1,0,12,12,15,1,1001,WHAISE,z,,,,,,,,,,,,,,,,,,,,,,,,,,,,,,,,,,,,,,,,,,,,,,,,,,,,,,,,,,,,,,,,,,
,,,,,,,,,,,,,,,,,60ace56a83e45642b22d9954,32,2022-02-12_13h47.05.643,lexical_decision_task_DD_L3,2021.2.3,Win32,60.50338819,,z,1,0.6936,,,,,,,,0.6936,1,0,13,13,12,1,1001,SPRINY,z,,,,,,,,,,,,,,,,,,,,,,,,,,,,,,,,,,,,,,,,,,,,,,,,,,,,,,,,,,,,,,,,,,
,,,,,,,,,,,,,,,,,60ace56a83e45642b22d9954,32,2022-02-12_13h47.05.643,lexical_decision_task_DD_L3,2021.2.3,Win32,60.50338819,,z,1,0.6663,,,,,,,,0.6663,1,0,14,14,13,1,1001,ROUPET,z,,,,,,,,,,,,,,,,,,,,,,,,,,,,,,,,,,,,,,,,,,,,,,,,,,,,,,,,,,,,,,,,,,
,,,,,,,,,,,,,,,,,60ace56a83e45642b22d9954,32,2022-02-12_13h47.05.643,lexical_decision_task_DD_L3,2021.2.3,Win32,60.50338819,,m,1,0.8158,,,,,,,,0.8158,1,0,15,15,2,1,1001,ALMOND,m,,,,,,,,,,,,,,,,,,,,,,,,,,,,,,,,,,,,,,,,,,,,,,,,,,,,,,,,,,,,,,,,,,
space,0.05078125,-0.290364583,0,0,0,,,,,,,1,end_of_practice,"You have completed the practice trials. During the experimental trials, you will not receive feedback. 
Before you begin, please ensure that you are in a comfortable and quiet location and will not be disturbed for about 15 minutes, as we cannot use your data if you do not complete all the trials. 
 When you are ready to start the experimental trials, please press space or touch the button below.",,,60ace56a83e45642b22d9954,32,2022-02-12_13h47.05.643,lexical_decision_task_DD_L3,2021.2.3,Win32,60.50338819,2.0251,,,,,,,,,,,,,,,,,,,,,0,0,0,0,1,,,,,,,,,,,,,,,,,,,,,,,,,,,,,,,,,,,,,,,,,,,,,,,,,,,,,,,,,,,,,
,,,,,,,,,,,,,,,,,60ace56a83e45642b22d9954,32,2022-02-12_13h47.05.643,lexical_decision_task_DD_L3,2021.2.3,Win32,60.50338819,,,,,,,,,,,,1.1504,1,,,,,,,,,,,,,,m,1,1.1504,,,,,,,,0.05078125,-0.290364583,0,0,0,,0,0,0,6,1,SQUARE,LB,old,m,./images/SQUARELB.png,,,,,,,,,,,,,,,,,,,,,,,,,,,,,,,,,,,
,,,,,,,,,,,,,,,,,60ace56a83e45642b22d9954,32,2022-02-12_13h47.05.643,lexical_decision_task_DD_L3,2021.2.3,Win32,60.50338819,,,,,,,,,,,,0.548,1,,,,,,,,,,,,,,m,1,0.548,,,,,,,,0.05078125,-0.290364583,0,0,0,,0,1,1,77,1,COUCH,HB,old,m,./images/COUCHHB.png,,,,,,,,,,,,,,,,,,,,,,,,,,,,,,,,,,,
,,,,,,,,,,,,,,,,,60ace56a83e45642b22d9954,32,2022-02-12_13h47.05.643,lexical_decision_task_DD_L3,2021.2.3,Win32,60.50338819,,,,,,,,,,,,0.6409,1,,,,,,,,,,,,,,z,1,0.6409,,,,,,,,0.05078125,-0.290364583,0,0,0,,0,2,2,150,1,NOOLS,C,old,z,./images/NOOLS.png,,,,,,,,,,,,,,,,,,,,,,,,,,,,,,,,,,,
,,,,,,,,,,,,,,,,,60ace56a83e45642b22d9954,32,2022-02-12_13h47.05.643,lexical_decision_task_DD_L3,2021.2.3,Win32,60.50338819,,,,,,,,,,,,1.6733,1,,,,,,,,,,,,,,z,1,1.6733,,,,,,,,0.05078125,-0.290364583,0,0,0,,0,3,3,106,1,CLUMS,HB,old,z,./images/CLUMSHB.png,,,,,,,,,,,,,,,,,,,,,,,,,,,,,,,,,,,
,,,,,,,,,,,,,,,,,60ace56a83e45642b22d9954,32,2022-02-12_13h47.05.643,lexical_decision_task_DD_L3,2021.2.3,Win32,60.50338819,,,,,,,,,,,,1.1465,1,,,,,,,,,,,,,,z,1,1.1465,,,,,,,,0.05078125,-0.290364583,0,0,0,,0,4,4,148,1,JOMS,HB,old,z,./images/JOMSHB.png,,,,,,,,,,,,,,,,,,,,,,,,,,,,,,,,,,,
,,,,,,,,,,,,,,,,,60ace56a83e45642b22d9954,32,2022-02-12_13h47.05.643,lexical_decision_task_DD_L3,2021.2.3,Win32,60.50338819,,,,,,,,,,,,0.632,0,,,,,,,,,,,,,,m,0,0.632,,,,,,,,0.05078125,-0.290364583,0,0,0,,0,5,5,110,1,CRUNK,LB,old,z,./images/CRUNKLB.png,,,,,,,,,,,,,,,,,,,,,,,,,,,,,,,,,,,
,,,,,,,,,,,,,,,,,60ace56a83e45642b22d9954,32,2022-02-12_13h47.05.643,lexical_decision_task_DD_L3,2021.2.3,Win32,60.50338819,,,,,,,,,,,,0.8815,1,,,,,,,,,,,,,,z,1,0.8815,,,,,,,,0.05078125,-0.290364583,0,0,0,,0,6,6,94,1,BLANS,HB,old,z,./images/BLANSHB.png,,,,,,,,,,,,,,,,,,,,,,,,,,,,,,,,,,,
,,,,,,,,,,,,,,,,,60ace56a83e45642b22d9954,32,2022-02-12_13h47.05.643,lexical_decision_task_DD_L3,2021.2.3,Win32,60.50338819,,,,,,,,,,,,1.124,1,,,,,,,,,,,,,,m,1,1.124,,,,,,,,0.05078125,-0.290364583,0,0,0,,0,7,7,65,1,FARMER,HB,old,m,./images/FARMERHB.png,,,,,,,,,,,,,,,,,,,,,,,,,,,,,,,,,,,
,,,,,,,,,,,,,,,,,60ace56a83e45642b22d9954,32,2022-02-12_13h47.05.643,lexical_decision_task_DD_L3,2021.2.3,Win32,60.50338819,,,,,,,,,,,,0.6551,1,,,,,,,,,,,,,,z,1,0.6551,,,,,,,,0.05078125,-0.290364583,0,0,0,,0,8,8,92,1,PAIMS,LB,old,z,./images/PAIMSLB.png,,,,,,,,,,,,,,,,,,,,,,,,,,,,,,,,,,,
,,,,,,,,,,,,,,,,,60ace56a83e45642b22d9954,32,2022-02-12_13h47.05.643,lexical_decision_task_DD_L3,2021.2.3,Win32,60.50338819,,,,,,,,,,,,0.6363,1,,,,,,,,,,,,,,z,1,0.6363,,,,,,,,0.05078125,-0.290364583,0,0,0,,0,9,9,126,1,GUELS,C,old,z,./images/GUELS.png,,,,,,,,,,,,,,,,,,,,,,,,,,,,,,,,,,,
,,,,,,,,,,,,,,,,,60ace56a83e45642b22d9954,32,2022-02-12_13h47.05.643,lexical_decision_task_DD_L3,2021.2.3,Win32,60.50338819,,,,,,,,,,,,0.5246,1,,,,,,,,,,,,,,m,1,0.5246,,,,,,,,0.05078125,-0.290364583,0,0,0,,0,10,10,69,1,COOKER,LB,old,m,./images/COOKERLB.png,,,,,,,,,,,,,,,,,,,,,,,,,,,,,,,,,,,
,,,,,,,,,,,,,,,,,60ace56a83e45642b22d9954,32,2022-02-12_13h47.05.643,lexical_decision_task_DD_L3,2021.2.3,Win32,60.50338819,,,,,,,,,,,,0.6192,1,,,,,,,,,,,,,,m,1,0.6192,,,,,,,,0.05078125,-0.290364583,0,0,0,,0,11,11,34,1,CANYON,C,old,m,./images/CANYON.png,,,,,,,,,,,,,,,,,,,,,,,,,,,,,,,,,,,
,,,,,,,,,,,,,,,,,60ace56a83e45642b22d9954,32,2022-02-12_13h47.05.643,lexical_decision_task_DD_L3,2021.2.3,Win32,60.50338819,,,,,,,,,,,,0.4973,1,,,,,,,,,,,,,,m,1,0.4973,,,,,,,,0.05078125,-0.290364583,0,0,0,,0,12,12,30,1,STORM,LB,old,m,./images/STORMLB.png,,,,,,,,,,,,,,,,,,,,,,,,,,,,,,,,,,,
,,,,,,,,,,,,,,,,,60ace56a83e45642b22d9954,32,2022-02-12_13h47.05.643,lexical_decision_task_DD_L3,2021.2.3,Win32,60.50338819,,,,,,,,,,,,1.136,1,,,,,,,,,,,,,,z,1,1.136,,,,,,,,0.05078125,-0.290364583,0,0,0,,0,13,13,136,1,WERVE,HB,old,z,./images/WERVEHB.png,,,,,,,,,,,,,,,,,,,,,,,,,,,,,,,,,,,
,,,,,,,,,,,,,,,,,60ace56a83e45642b22d9954,32,2022-02-12_13h47.05.643,lexical_decision_task_DD_L3,2021.2.3,Win32,60.50338819,,,,,,,,,,,,0.6653,1,,,,,,,,,,,,,,z,1,0.6653,,,,,,,,0.05078125,-0.290364583,0,0,0,,0,14,14,132,1,SCIFF,C,old,z,./images/SCIFF.png,,,,,,,,,,,,,,,,,,,,,,,,,,,,,,,,,,,
,,,,,,,,,,,,,,,,,60ace56a83e45642b22d9954,32,2022-02-12_13h47.05.643,lexical_decision_task_DD_L3,2021.2.3,Win32,60.50338819,,,,,,,,,,,,0.6292,1,,,,,,,,,,,,,,m,1,0.6292,,,,,,,,0.05078125,-0.290364583,0,0,0,,0,15,15,7,1,PAINT,C,old,m,./images/PAINT.png,,,,,,,,,,,,,,,,,,,,,,,,,,,,,,,,,,,
,,,,,,,,,,,,,,,,,60ace56a83e45642b22d9954,32,2022-02-12_13h47.05.643,lexical_decision_task_DD_L3,2021.2.3,Win32,60.50338819,,,,,,,,,,,,0.6046,1,,,,,,,,,,,,,,m,1,0.6046,,,,,,,,0.05078125,-0.290364583,0,0,0,,0,16,16,61,1,CANDLE,C,old,m,./images/CANDLE.png,,,,,,,,,,,,,,,,,,,,,,,,,,,,,,,,,,,
,,,,,,,,,,,,,,,,,60ace56a83e45642b22d9954,32,2022-02-12_13h47.05.643,lexical_decision_task_DD_L3,2021.2.3,Win32,60.50338819,,,,,,,,,,,,0.6505,1,,,,,,,,,,,,,,m,1,0.6505,,,,,,,,0.05078125,-0.290364583,0,0,0,,0,17,17,27,1,ATTIC,LB,old,m,./images/ATTICLB.png,,,,,,,,,,,,,,,,,,,,,,,,,,,,,,,,,,,
,,,,,,,,,,,,,,,,,60ace56a83e45642b22d9954,32,2022-02-12_13h47.05.643,lexical_decision_task_DD_L3,2021.2.3,Win32,60.50338819,,,,,,,,,,,,0.7743,1,,,,,,,,,,,,,,m,1,0.7743,,,,,,,,0.05078125,-0.290364583,0,0,0,,0,18,18,14,1,PICKLE,HB,old,m,./images/PICKLEHB.png,,,,,,,,,,,,,,,,,,,,,,,,,,,,,,,,,,,
,,,,,,,,,,,,,,,,,60ace56a83e45642b22d9954,32,2022-02-12_13h47.05.643,lexical_decision_task_DD_L3,2021.2.3,Win32,60.50338819,,,,,,,,,,,,2.1224,1,,,,,,,,,,,,,,m,1,2.1224,,,,,,,,0.05078125,-0.290364583,0,0,0,,0,19,19,50,1,MALLET,HB,old,m,./images/MALLETHB.png,,,,,,,,,,,,,,,,,,,,,,,,,,,,,,,,,,,
,,,,,,,,,,,,,,,,,60ace56a83e45642b22d9954,32,2022-02-12_13h47.05.643,lexical_decision_task_DD_L3,2021.2.3,Win32,60.50338819,,,,,,,,,,,,0.6214,1,,,,,,,,,,,,,,z,1,0.6214,,,,,,,,0.05078125,-0.290364583,0,0,0,,0,20,20,96,1,KEAMS,C,old,z,./images/KEAMS.png,,,,,,,,,,,,,,,,,,,,,,,,,,,,,,,,,,,
,,,,,,,,,,,,,,,,,60ace56a83e45642b22d9954,32,2022-02-12_13h47.05.643,lexical_decision_task_DD_L3,2021.2.3,Win32,60.50338819,,,,,,,,,,,,1.2218,1,,,,,,,,,,,,,,m,1,1.2218,,,,,,,,0.05078125,-0.290364583,0,0,0,,0,21,21,54,1,TRIPOD,LB,old,m,./images/TRIPODLB.png,,,,,,,,,,,,,,,,,,,,,,,,,,,,,,,,,,,
,,,,,,,,,,,,,,,,,60ace56a83e45642b22d9954,32,2022-02-12_13h47.05.643,lexical_decision_task_DD_L3,2021.2.3,Win32,60.50338819,,,,,,,,,,,,1.2126,1,,,,,,,,,,,,,,z,1,1.2126,,,,,,,,0.05078125,-0.290364583,0,0,0,,0,22,22,165,1,TROWN,C,old,z,./images/TROWN.png,,,,,,,,,,,,,,,,,,,,,,,,,,,,,,,,,,,
,,,,,,,,,,,,,,,,,60ace56a83e45642b22d9954,32,2022-02-12_13h47.05.643,lexical_decision_task_DD_L3,2021.2.3,Win32,60.50338819,,,,,,,,,,,,1.094,1,,,,,,,,,,,,,,z,1,1.094,,,,,,,,0.05078125,-0.290364583,0,0,0,,0,23,23,154,1,THINT,HB,old,z,./images/THINTHB.png,,,,,,,,,,,,,,,,,,,,,,,,,,,,,,,,,,,
,,,,,,,,,,,,,,,,,60ace56a83e45642b22d9954,32,2022-02-12_13h47.05.643,lexical_decision_task_DD_L3,2021.2.3,Win32,60.50338819,,,,,,,,,,,,1.523,1,,,,,,,,,,,,,,z,1,1.523,,,,,,,,0.05078125,-0.290364583,0,0,0,,0,24,24,107,1,FASKS,LB,old,z,./images/FASKSLB.png,,,,,,,,,,,,,,,,,,,,,,,,,,,,,,,,,,,
,,,,,,,,,,,,,,,,,60ace56a83e45642b22d9954,32,2022-02-12_13h47.05.643,lexical_decision_task_DD_L3,2021.2.3,Win32,60.50338819,,,,,,,,,,,,0.6242,1,,,,,,,,,,,,,,z,1,0.6242,,,,,,,,0.05078125,-0.290364583,0,0,0,,0,25,25,86,1,AIFED,LB,old,z,./images/AIFEDLB.png,,,,,,,,,,,,,,,,,,,,,,,,,,,,,,,,,,,
,,,,,,,,,,,,,,,,,60ace56a83e45642b22d9954,32,2022-02-12_13h47.05.643,lexical_decision_task_DD_L3,2021.2.3,Win32,60.50338819,,,,,,,,,,,,0.4627,1,,,,,,,,,,,,,,m,1,0.4627,,,,,,,,0.05078125,-0.290364583,0,0,0,,0,26,26,19,1,DOUGH,C,old,m,./images/DOUGH.png,,,,,,,,,,,,,,,,,,,,,,,,,,,,,,,,,,,
,,,,,,,,,,,,,,,,,60ace56a83e45642b22d9954,32,2022-02-12_13h47.05.643,lexical_decision_task_DD_L3,2021.2.3,Win32,60.50338819,,,,,,,,,,,,0.5282,1,,,,,,,,,,,,,,z,1,0.5282,,,,,,,,0.05078125,-0.290364583,0,0,0,,0,27,27,111,1,HOSSE,C,old,z,./images/HOSSE.png,,,,,,,,,,,,,,,,,,,,,,,,,,,,,,,,,,,
,,,,,,,,,,,,,,,,,60ace56a83e45642b22d9954,32,2022-02-12_13h47.05.643,lexical_decision_task_DD_L3,2021.2.3,Win32,60.50338819,,,,,,,,,,,,0.5385,1,,,,,,,,,,,,,,m,1,0.5385,,,,,,,,0.05078125,-0.290364583,0,0,0,,0,28,28,55,1,MUFFIN,C,old,m,./images/MUFFIN.png,,,,,,,,,,,,,,,,,,,,,,,,,,,,,,,,,,,
,,,,,,,,,,,,,,,,,60ace56a83e45642b22d9954,32,2022-02-12_13h47.05.643,lexical_decision_task_DD_L3,2021.2.3,Win32,60.50338819,,,,,,,,,,,,0.6266,1,,,,,,,,,,,,,,m,1,0.6266,,,,,,,,0.05078125,-0.290364583,0,0,0,,0,29,29,45,1,KITTEN,LB,old,m,./images/KITTENLB.png,,,,,,,,,,,,,,,,,,,,,,,,,,,,,,,,,,,
,,,,,,,,,,,,,,,,,60ace56a83e45642b22d9954,32,2022-02-12_13h47.05.643,lexical_decision_task_DD_L3,2021.2.3,Win32,60.50338819,,,,,,,,,,,,0.5677,1,,,,,,,,,,,,,,m,1,0.5677,,,,,,,,0.05078125,-0.290364583,0,0,0,,0,30,30,40,1,SWING,C,old,m,./images/SWING.png,,,,,,,,,,,,,,,,,,,,,,,,,,,,,,,,,,,
,,,,,,,,,,,,,,,,,60ace56a83e45642b22d9954,32,2022-02-12_13h47.05.643,lexical_decision_task_DD_L3,2021.2.3,Win32,60.50338819,,,,,,,,,,,,0.5831,1,,,,,,,,,,,,,,z,1,0.5831,,,,,,,,0.05078125,-0.290364583,0,0,0,,0,31,31,138,1,PLICE,C,old,z,./images/PLICE.png,,,,,,,,,,,,,,,,,,,,,,,,,,,,,,,,,,,
,,,,,,,,,,,,,,,,,60ace56a83e45642b22d9954,32,2022-02-12_13h47.05.643,lexical_decision_task_DD_L3,2021.2.3,Win32,60.50338819,,,,,,,,,,,,0.4268,1,,,,,,,,,,,,,,m,1,0.4268,,,,,,,,0.05078125,-0.290364583,0,0,0,,0,32,32,3,1,FINGER,LB,old,m,./images/FINGERLB.png,,,,,,,,,,,,,,,,,,,,,,,,,,,,,,,,,,,
,,,,,,,,,,,,,,,,,60ace56a83e45642b22d9954,32,2022-02-12_13h47.05.643,lexical_decision_task_DD_L3,2021.2.3,Win32,60.50338819,,,,,,,,,,,,0.5356,1,,,,,,,,,,,,,,z,1,0.5356,,,,,,,,0.05078125,-0.290364583,0,0,0,,0,33,33,135,1,JOODY,C,old,z,./images/JOODY.png,,,,,,,,,,,,,,,,,,,,,,,,,,,,,,,,,,,
,,,,,,,,,,,,,,,,,60ace56a83e45642b22d9954,32,2022-02-12_13h47.05.643,lexical_decision_task_DD_L3,2021.2.3,Win32,60.50338819,,,,,,,,,,,,0.859,1,,,,,,,,,,,,,,z,1,0.859,,,,,,,,0.05078125,-0.290364583,0,0,0,,0,34,34,137,1,JOOST,LB,old,z,./images/JOOSTLB.png,,,,,,,,,,,,,,,,,,,,,,,,,,,,,,,,,,,
,,,,,,,,,,,,,,,,,60ace56a83e45642b22d9954,32,2022-02-12_13h47.05.643,lexical_decision_task_DD_L3,2021.2.3,Win32,60.50338819,,,,,,,,,,,,0.7893,1,,,,,,,,,,,,,,m,1,0.7893,,,,,,,,0.05078125,-0.290364583,0,0,0,,0,35,35,58,1,BABOON,C,old,m,./images/BABOON.png,,,,,,,,,,,,,,,,,,,,,,,,,,,,,,,,,,,
,,,,,,,,,,,,,,,,,60ace56a83e45642b22d9954,32,2022-02-12_13h47.05.643,lexical_decision_task_DD_L3,2021.2.3,Win32,60.50338819,,,,,,,,,,,,0.664,1,,,,,,,,,,,,,,z,1,0.664,,,,,,,,0.05078125,-0.290364583,0,0,0,,0,36,36,155,1,CANGY,LB,old,z,./images/CANGYLB.png,,,,,,,,,,,,,,,,,,,,,,,,,,,,,,,,,,,
,,,,,,,,,,,,,,,,,60ace56a83e45642b22d9954,32,2022-02-12_13h47.05.643,lexical_decision_task_DD_L3,2021.2.3,Win32,60.50338819,,,,,,,,,,,,0.8165,1,,,,,,,,,,,,,,z,1,0.8165,,,,,,,,0.05078125,-0.290364583,0,0,0,,0,37,37,127,1,NINDY,HB,old,z,./images/NINDYHB.png,,,,,,,,,,,,,,,,,,,,,,,,,,,,,,,,,,,
,,,,,,,,,,,,,,,,,60ace56a83e45642b22d9954,32,2022-02-12_13h47.05.643,lexical_decision_task_DD_L3,2021.2.3,Win32,60.50338819,,,,,,,,,,,,0.5506,1,,,,,,,,,,,,,,z,1,0.5506,,,,,,,,0.05078125,-0.290364583,0,0,0,,0,38,38,87,1,TRING,C,old,z,./images/TRING.png,,,,,,,,,,,,,,,,,,,,,,,,,,,,,,,,,,,
,,,,,,,,,,,,,,,,,60ace56a83e45642b22d9954,32,2022-02-12_13h47.05.643,lexical_decision_task_DD_L3,2021.2.3,Win32,60.50338819,,,,,,,,,,,,0.6867,1,,,,,,,,,,,,,,m,1,0.6867,,,,,,,,0.05078125,-0.290364583,0,0,0,,0,39,39,74,1,CEMENT,HB,old,m,./images/CEMENTHB.png,,,,,,,,,,,,,,,,,,,,,,,,,,,,,,,,,,,
,,,,,,,,,,,,,,,,,60ace56a83e45642b22d9954,32,2022-02-12_13h47.05.643,lexical_decision_task_DD_L3,2021.2.3,Win32,60.50338819,,,,,,,,,,,,0.7793,0,,,,,,,,,,,,,,m,0,0.7793,,,,,,,,0.05078125,-0.290364583,0,0,0,,0,40,40,166,1,SHORY,HB,old,z,./images/SHORYHB.png,,,,,,,,,,,,,,,,,,,,,,,,,,,,,,,,,,,
,,,,,,,,,,,,,,,,,60ace56a83e45642b22d9954,32,2022-02-12_13h47.05.643,lexical_decision_task_DD_L3,2021.2.3,Win32,60.50338819,,,,,,,,,,,,0.5326,1,,,,,,,,,,,,,,m,1,0.5326,,,,,,,,0.05078125,-0.290364583,0,0,0,space,0,41,41,0,1,TOMATO,LB,old,m,./images/TOMATOLB.png,18.8281,,,,,,,,,,,,,,,,,,,,,,,,,,,,,,,,,,
,,,,,,,,,,,,,,,,,60ace56a83e45642b22d9954,32,2022-02-12_13h47.05.643,lexical_decision_task_DD_L3,2021.2.3,Win32,60.50338819,,,,,,,,,,,,0.967,1,,,,,,,,,,,,,,z,1,0.967,,,,,,,,0.05078125,-0.290364583,0,0,0,,0,42,42,134,1,TROSS,LB,old,z,./images/TROSSLB.png,,,,,,,,,,,,,,,,,,,,,,,,,,,,,,,,,,,
,,,,,,,,,,,,,,,,,60ace56a83e45642b22d9954,32,2022-02-12_13h47.05.643,lexical_decision_task_DD_L3,2021.2.3,Win32,60.50338819,,,,,,,,,,,,0.5561,1,,,,,,,,,,,,,,z,1,0.5561,,,,,,,,0.05078125,-0.290364583,0,0,0,,0,43,43,162,1,LEICH,C,old,z,./images/LEICH.png,,,,,,,,,,,,,,,,,,,,,,,,,,,,,,,,,,,
,,,,,,,,,,,,,,,,,60ace56a83e45642b22d9954,32,2022-02-12_13h47.05.643,lexical_decision_task_DD_L3,2021.2.3,Win32,60.50338819,,,,,,,,,,,,0.625,1,,,,,,,,,,,,,,m,1,0.625,,,,,,,,0.05078125,-0.290364583,0,0,0,,0,44,44,20,1,CRADLE,HB,old,m,./images/CRADLEHB.png,,,,,,,,,,,,,,,,,,,,,,,,,,,,,,,,,,,
,,,,,,,,,,,,,,,,,60ace56a83e45642b22d9954,32,2022-02-12_13h47.05.643,lexical_decision_task_DD_L3,2021.2.3,Win32,60.50338819,,,,,,,,,,,,0.4537,1,,,,,,,,,,,,,,m,1,0.4537,,,,,,,,0.05078125,-0.290364583,0,0,0,,0,45,45,16,1,PENCE,C,old,m,./images/PENCE.png,,,,,,,,,,,,,,,,,,,,,,,,,,,,,,,,,,,
,,,,,,,,,,,,,,,,,60ace56a83e45642b22d9954,32,2022-02-12_13h47.05.643,lexical_decision_task_DD_L3,2021.2.3,Win32,60.50338819,,,,,,,,,,,,0.4987,1,,,,,,,,,,,,,,m,1,0.4987,,,,,,,,0.05078125,-0.290364583,0,0,0,,0,46,46,66,1,SWEAT,LB,old,m,./images/SWEATLB.png,,,,,,,,,,,,,,,,,,,,,,,,,,,,,,,,,,,
,,,,,,,,,,,,,,,,,60ace56a83e45642b22d9954,32,2022-02-12_13h47.05.643,lexical_decision_task_DD_L3,2021.2.3,Win32,60.50338819,,,,,,,,,,,,0.4437,1,,,,,,,,,,,,,,m,1,0.4437,,,,,,,,0.05078125,-0.290364583,0,0,0,,0,47,47,48,1,SPORT,LB,old,m,./images/SPORTLB.png,,,,,,,,,,,,,,,,,,,,,,,,,,,,,,,,,,,
,,,,,,,,,,,,,,,,,60ace56a83e45642b22d9954,32,2022-02-12_13h47.05.643,lexical_decision_task_DD_L3,2021.2.3,Win32,60.50338819,,,,,,,,,,,,0.6747,1,,,,,,,,,,,,,,z,1,0.6747,,,,,,,,0.05078125,-0.290364583,0,0,0,,0,48,48,112,1,MYING,HB,old,z,./images/MYINGHB.png,,,,,,,,,,,,,,,,,,,,,,,,,,,,,,,,,,,
,,,,,,,,,,,,,,,,,60ace56a83e45642b22d9954,32,2022-02-12_13h47.05.643,lexical_decision_task_DD_L3,2021.2.3,Win32,60.50338819,,,,,,,,,,,,0.9156,1,,,,,,,,,,,,,,m,1,0.9156,,,,,,,,0.05078125,-0.290364583,0,0,0,,0,49,49,2,1,BEARD,HB,old,m,./images/BEARDHB.png,,,,,,,,,,,,,,,,,,,,,,,,,,,,,,,,,,,
,,,,,,,,,,,,,,,,,60ace56a83e45642b22d9954,32,2022-02-12_13h47.05.643,lexical_decision_task_DD_L3,2021.2.3,Win32,60.50338819,,,,,,,,,,,,0.9709,1,,,,,,,,,,,,,,z,1,0.9709,,,,,,,,0.05078125,-0.290364583,0,0,0,,0,50,50,91,1,SHENS,HB,old,z,./images/SHENSHB.png,,,,,,,,,,,,,,,,,,,,,,,,,,,,,,,,,,,
,,,,,,,,,,,,,,,,,60ace56a83e45642b22d9954,32,2022-02-12_13h47.05.643,lexical_decision_task_DD_L3,2021.2.3,Win32,60.50338819,,,,,,,,,,,,1.3079,1,,,,,,,,,,,,,,z,1,1.3079,,,,,,,,0.05078125,-0.290364583,0,0,0,,0,51,51,163,1,GAMBA,HB,old,z,./images/GAMBAHB.png,,,,,,,,,,,,,,,,,,,,,,,,,,,,,,,,,,,
,,,,,,,,,,,,,,,,,60ace56a83e45642b22d9954,32,2022-02-12_13h47.05.643,lexical_decision_task_DD_L3,2021.2.3,Win32,60.50338819,,,,,,,,,,,,0.7592,1,,,,,,,,,,,,,,m,1,0.7592,,,,,,,,0.05078125,-0.290364583,0,0,0,,0,52,52,23,1,WALRUS,HB,old,m,./images/WALRUSHB.png,,,,,,,,,,,,,,,,,,,,,,,,,,,,,,,,,,,
,,,,,,,,,,,,,,,,,60ace56a83e45642b22d9954,32,2022-02-12_13h47.05.643,lexical_decision_task_DD_L3,2021.2.3,Win32,60.50338819,,,,,,,,,,,,0.7158,1,,,,,,,,,,,,,,z,1,0.7158,,,,,,,,0.05078125,-0.290364583,0,0,0,,0,53,53,124,1,TUNCH,HB,old,z,./images/TUNCHHB.png,,,,,,,,,,,,,,,,,,,,,,,,,,,,,,,,,,,
,,,,,,,,,,,,,,,,,60ace56a83e45642b22d9954,32,2022-02-12_13h47.05.643,lexical_decision_task_DD_L3,2021.2.3,Win32,60.50338819,,,,,,,,,,,,0.8835,1,,,,,,,,,,,,,,z,1,0.8835,,,,,,,,0.05078125,-0.290364583,0,0,0,,0,54,54,84,1,HAXES,C,old,z,./images/HAXES.png,,,,,,,,,,,,,,,,,,,,,,,,,,,,,,,,,,,
,,,,,,,,,,,,,,,,,60ace56a83e45642b22d9954,32,2022-02-12_13h47.05.643,lexical_decision_task_DD_L3,2021.2.3,Win32,60.50338819,,,,,,,,,,,,0.7197,1,,,,,,,,,,,,,,z,1,0.7197,,,,,,,,0.05078125,-0.290364583,0,0,0,,0,55,55,98,1,BAMPS,LB,old,z,./images/BAMPSLB.png,,,,,,,,,,,,,,,,,,,,,,,,,,,,,,,,,,,
,,,,,,,,,,,,,,,,,60ace56a83e45642b22d9954,32,2022-02-12_13h47.05.643,lexical_decision_task_DD_L3,2021.2.3,Win32,60.50338819,,,,,,,,,,,,0.6279,1,,,,,,,,,,,,,,z,1,0.6279,,,,,,,,0.05078125,-0.290364583,0,0,0,,0,56,56,120,1,RINED,C,old,z,./images/RINED.png,,,,,,,,,,,,,,,,,,,,,,,,,,,,,,,,,,,
,,,,,,,,,,,,,,,,,60ace56a83e45642b22d9954,32,2022-02-12_13h47.05.643,lexical_decision_task_DD_L3,2021.2.3,Win32,60.50338819,,,,,,,,,,,,0.8078,0,,,,,,,,,,,,,,z,0,0.8078,,,,,,,,0.05078125,-0.290364583,0,0,0,,0,57,57,32,1,BARREL,HB,old,m,./images/BARRELHB.png,,,,,,,,,,,,,,,,,,,,,,,,,,,,,,,,,,,
,,,,,,,,,,,,,,,,,60ace56a83e45642b22d9954,32,2022-02-12_13h47.05.643,lexical_decision_task_DD_L3,2021.2.3,Win32,60.50338819,,,,,,,,,,,,1.1032,1,,,,,,,,,,,,,,m,1,1.1032,,,,,,,,0.05078125,-0.290364583,0,0,0,,0,58,58,26,1,SMOKER,HB,old,m,./images/SMOKERHB.png,,,,,,,,,,,,,,,,,,,,,,,,,,,,,,,,,,,
,,,,,,,,,,,,,,,,,60ace56a83e45642b22d9954,32,2022-02-12_13h47.05.643,lexical_decision_task_DD_L3,2021.2.3,Win32,60.50338819,,,,,,,,,,,,0.5812,1,,,,,,,,,,,,,,m,1,0.5812,,,,,,,,0.05078125,-0.290364583,0,0,0,,0,59,59,43,1,MOSQUE,C,old,m,./images/MOSQUE.png,,,,,,,,,,,,,,,,,,,,,,,,,,,,,,,,,,,
,,,,,,,,,,,,,,,,,60ace56a83e45642b22d9954,32,2022-02-12_13h47.05.643,lexical_decision_task_DD_L3,2021.2.3,Win32,60.50338819,,,,,,,,,,,,0.5921,1,,,,,,,,,,,,,,z,1,0.5921,,,,,,,,0.05078125,-0.290364583,0,0,0,,0,60,60,153,1,CLUPS,C,old,z,./images/CLUPS.png,,,,,,,,,,,,,,,,,,,,,,,,,,,,,,,,,,,
,,,,,,,,,,,,,,,,,60ace56a83e45642b22d9954,32,2022-02-12_13h47.05.643,lexical_decision_task_DD_L3,2021.2.3,Win32,60.50338819,,,,,,,,,,,,0.8842,1,,,,,,,,,,,,,,z,1,0.8842,,,,,,,,0.05078125,-0.290364583,0,0,0,,0,61,61,97,1,CHIDS,HB,old,z,./images/CHIDSHB.png,,,,,,,,,,,,,,,,,,,,,,,,,,,,,,,,,,,
,,,,,,,,,,,,,,,,,60ace56a83e45642b22d9954,32,2022-02-12_13h47.05.643,lexical_decision_task_DD_L3,2021.2.3,Win32,60.50338819,,,,,,,,,,,,0.4992,1,,,,,,,,,,,,,,m,1,0.4992,,,,,,,,0.05078125,-0.290364583,0,0,0,,0,62,62,57,1,MOOSE,LB,old,m,./images/MOOSELB.png,,,,,,,,,,,,,,,,,,,,,,,,,,,,,,,,,,,
,,,,,,,,,,,,,,,,,60ace56a83e45642b22d9954,32,2022-02-12_13h47.05.643,lexical_decision_task_DD_L3,2021.2.3,Win32,60.50338819,,,,,,,,,,,,0.47,1,,,,,,,,,,,,,,m,1,0.47,,,,,,,,0.05078125,-0.290364583,0,0,0,,0,63,63,63,1,MIRROR,LB,old,m,./images/MIRRORLB.png,,,,,,,,,,,,,,,,,,,,,,,,,,,,,,,,,,,
,,,,,,,,,,,,,,,,,60ace56a83e45642b22d9954,32,2022-02-12_13h47.05.643,lexical_decision_task_DD_L3,2021.2.3,Win32,60.50338819,,,,,,,,,,,,0.5755,1,,,,,,,,,,,,,,z,1,0.5755,,,,,,,,0.05078125,-0.290364583,0,0,0,,0,64,64,164,1,SGREW,LB,old,z,./images/SGREWLB.png,,,,,,,,,,,,,,,,,,,,,,,,,,,,,,,,,,,
,,,,,,,,,,,,,,,,,60ace56a83e45642b22d9954,32,2022-02-12_13h47.05.643,lexical_decision_task_DD_L3,2021.2.3,Win32,60.50338819,,,,,,,,,,,,0.6646,1,,,,,,,,,,,,,,m,1,0.6646,,,,,,,,0.05078125,-0.290364583,0,0,0,,0,65,65,80,1,WEASEL,HB,old,m,./images/WEASELHB.png,,,,,,,,,,,,,,,,,,,,,,,,,,,,,,,,,,,
,,,,,,,,,,,,,,,,,60ace56a83e45642b22d9954,32,2022-02-12_13h47.05.643,lexical_decision_task_DD_L3,2021.2.3,Win32,60.50338819,,,,,,,,,,,,0.4797,1,,,,,,,,,,,,,,z,1,0.4797,,,,,,,,0.05078125,-0.290364583,0,0,0,,0,66,66,156,1,HIXES,C,old,z,./images/HIXES.png,,,,,,,,,,,,,,,,,,,,,,,,,,,,,,,,,,,
,,,,,,,,,,,,,,,,,60ace56a83e45642b22d9954,32,2022-02-12_13h47.05.643,lexical_decision_task_DD_L3,2021.2.3,Win32,60.50338819,,,,,,,,,,,,0.6007,1,,,,,,,,,,,,,,m,1,0.6007,,,,,,,,0.05078125,-0.290364583,0,0,0,,0,67,67,62,1,PURSE,HB,old,m,./images/PURSEHB.png,,,,,,,,,,,,,,,,,,,,,,,,,,,,,,,,,,,
,,,,,,,,,,,,,,,,,60ace56a83e45642b22d9954,32,2022-02-12_13h47.05.643,lexical_decision_task_DD_L3,2021.2.3,Win32,60.50338819,,,,,,,,,,,,0.5817,1,,,,,,,,,,,,,,z,1,0.5817,,,,,,,,0.05078125,-0.290364583,0,0,0,,0,68,68,105,1,MOKER,C,old,z,./images/MOKER.png,,,,,,,,,,,,,,,,,,,,,,,,,,,,,,,,,,,
,,,,,,,,,,,,,,,,,60ace56a83e45642b22d9954,32,2022-02-12_13h47.05.643,lexical_decision_task_DD_L3,2021.2.3,Win32,60.50338819,,,,,,,,,,,,0.6654,1,,,,,,,,,,,,,,m,1,0.6654,,,,,,,,0.05078125,-0.290364583,0,0,0,,0,69,69,29,1,CRUMB,HB,old,m,./images/CRUMBHB.png,,,,,,,,,,,,,,,,,,,,,,,,,,,,,,,,,,,
,,,,,,,,,,,,,,,,,60ace56a83e45642b22d9954,32,2022-02-12_13h47.05.643,lexical_decision_task_DD_L3,2021.2.3,Win32,60.50338819,,,,,,,,,,,,0.5657,1,,,,,,,,,,,,,,z,1,0.5657,,,,,,,,0.05078125,-0.290364583,0,0,0,,0,70,70,140,1,DOVET,LB,old,z,./images/DOVETLB.png,,,,,,,,,,,,,,,,,,,,,,,,,,,,,,,,,,,
,,,,,,,,,,,,,,,,,60ace56a83e45642b22d9954,32,2022-02-12_13h47.05.643,lexical_decision_task_DD_L3,2021.2.3,Win32,60.50338819,,,,,,,,,,,,0.7608,1,,,,,,,,,,,,,,m,1,0.7608,,,,,,,,0.05078125,-0.290364583,0,0,0,,0,71,71,83,1,JUNGLE,HB,old,m,./images/JUNGLEHB.png,,,,,,,,,,,,,,,,,,,,,,,,,,,,,,,,,,,
,,,,,,,,,,,,,,,,,60ace56a83e45642b22d9954,32,2022-02-12_13h47.05.643,lexical_decision_task_DD_L3,2021.2.3,Win32,60.50338819,,,,,,,,,,,,0.5813,1,,,,,,,,,,,,,,z,1,0.5813,,,,,,,,0.05078125,-0.290364583,0,0,0,,0,72,72,131,1,NACES,LB,old,z,./images/NACESLB.png,,,,,,,,,,,,,,,,,,,,,,,,,,,,,,,,,,,
,,,,,,,,,,,,,,,,,60ace56a83e45642b22d9954,32,2022-02-12_13h47.05.643,lexical_decision_task_DD_L3,2021.2.3,Win32,60.50338819,,,,,,,,,,,,0.5667,1,,,,,,,,,,,,,,m,1,0.5667,,,,,,,,0.05078125,-0.290364583,0,0,0,,0,73,73,52,1,BANNER,C,old,m,./images/BANNER.png,,,,,,,,,,,,,,,,,,,,,,,,,,,,,,,,,,,
,,,,,,,,,,,,,,,,,60ace56a83e45642b22d9954,32,2022-02-12_13h47.05.643,lexical_decision_task_DD_L3,2021.2.3,Win32,60.50338819,,,,,,,,,,,,1.0037,1,,,,,,,,,,,,,,m,1,1.0037,,,,,,,,0.05078125,-0.290364583,0,0,0,,0,74,74,60,1,TWINS,LB,old,m,./images/TWINSLB.png,,,,,,,,,,,,,,,,,,,,,,,,,,,,,,,,,,,
,,,,,,,,,,,,,,,,,60ace56a83e45642b22d9954,32,2022-02-12_13h47.05.643,lexical_decision_task_DD_L3,2021.2.3,Win32,60.50338819,,,,,,,,,,,,1.4516,1,,,,,,,,,,,,,,z,1,1.4516,,,,,,,,0.05078125,-0.290364583,0,0,0,,0,75,75,109,1,BURGE,HB,old,z,./images/BURGEHB.png,,,,,,,,,,,,,,,,,,,,,,,,,,,,,,,,,,,
,,,,,,,,,,,,,,,,,60ace56a83e45642b22d9954,32,2022-02-12_13h47.05.643,lexical_decision_task_DD_L3,2021.2.3,Win32,60.50338819,,,,,,,,,,,,0.5041,1,,,,,,,,,,,,,,m,1,0.5041,,,,,,,,0.05078125,-0.290364583,0,0,0,,0,76,76,46,1,PEARL,C,old,m,./images/PEARL.png,,,,,,,,,,,,,,,,,,,,,,,,,,,,,,,,,,,
,,,,,,,,,,,,,,,,,60ace56a83e45642b22d9954,32,2022-02-12_13h47.05.643,lexical_decision_task_DD_L3,2021.2.3,Win32,60.50338819,,,,,,,,,,,,0.5968,1,,,,,,,,,,,,,,m,1,0.5968,,,,,,,,0.05078125,-0.290364583,0,0,0,,0,77,77,15,1,GREASE,LB,old,m,./images/GREASELB.png,,,,,,,,,,,,,,,,,,,,,,,,,,,,,,,,,,,
,,,,,,,,,,,,,,,,,60ace56a83e45642b22d9954,32,2022-02-12_13h47.05.643,lexical_decision_task_DD_L3,2021.2.3,Win32,60.50338819,,,,,,,,,,,,1.2809,1,,,,,,,,,,,,,,m,1,1.2809,,,,,,,,0.05078125,-0.290364583,0,0,0,,0,78,78,59,1,BURIAL,HB,old,m,./images/BURIALHB.png,,,,,,,,,,,,,,,,,,,,,,,,,,,,,,,,,,,
,,,,,,,,,,,,,,,,,60ace56a83e45642b22d9954,32,2022-02-12_13h47.05.643,lexical_decision_task_DD_L3,2021.2.3,Win32,60.50338819,,,,,,,,,,,,1.2222,1,,,,,,,,,,,,,,m,1,1.2222,,,,,,,,0.05078125,-0.290364583,0,0,0,,0,79,79,73,1,SNACK,C,old,m,./images/SNACK.png,,,,,,,,,,,,,,,,,,,,,,,,,,,,,,,,,,,
,,,,,,,,,,,,,,,,,60ace56a83e45642b22d9954,32,2022-02-12_13h47.05.643,lexical_decision_task_DD_L3,2021.2.3,Win32,60.50338819,,,,,,,,,,,,1.0533,1,,,,,,,,,,,,,,m,1,1.0533,,,,,,,,0.05078125,-0.290364583,0,0,0,,0,80,80,25,1,WRIST,C,old,m,./images/WRIST.png,,,,,,,,,,,,,,,,,,,,,,,,,,,,,,,,,,,
,,,,,,,,,,,,,,,,,60ace56a83e45642b22d9954,32,2022-02-12_13h47.05.643,lexical_decision_task_DD_L3,2021.2.3,Win32,60.50338819,,,,,,,,,,,,0.6354,1,,,,,,,,,,,,,,m,1,0.6354,,,,,,,,0.05078125,-0.290364583,0,0,0,,0,81,81,31,1,QUILL,C,old,m,./images/QUILL.png,,,,,,,,,,,,,,,,,,,,,,,,,,,,,,,,,,,
,,,,,,,,,,,,,,,,,60ace56a83e45642b22d9954,32,2022-02-12_13h47.05.643,lexical_decision_task_DD_L3,2021.2.3,Win32,60.50338819,,,,,,,,,,,,0.4833,1,,,,,,,,,,,,,,m,1,0.4833,,,,,,,,0.05078125,-0.290364583,0,0,0,,0,82,82,78,1,LITTER,LB,old,m,./images/LITTERLB.png,,,,,,,,,,,,,,,,,,,,,,,,,,,,,,,,,,,
,,,,,,,,,,,,,,,,,60ace56a83e45642b22d9954,32,2022-02-12_13h47.05.643,lexical_decision_task_DD_L3,2021.2.3,Win32,60.50338819,,,,,,,,,,,,0.9333,1,,,,,,,,,,,,,,z,1,0.9333,,,,,,,,0.05078125,-0.2890625,0,0,0,space,0,83,83,141,1,PLEET,C,old,z,./images/PLEET.png,308.2498,,,,,,,,,,,,,,,,,,,,,,,,,,,,,,,,,,
,,,,,,,,,,,,,,,,,60ace56a83e45642b22d9954,32,2022-02-12_13h47.05.643,lexical_decision_task_DD_L3,2021.2.3,Win32,60.50338819,,,,,,,,,,,,2.1782,1,,,,,,,,,,,,,,z,1,2.1782,,,,,,,,0.05078125,-0.2890625,0,0,0,,0,84,84,89,1,DRIEK,LB,old,z,./images/DRIEKLB.png,,,,,,,,,,,,,,,,,,,,,,,,,,,,,,,,,,,
,,,,,,,,,,,,,,,,,60ace56a83e45642b22d9954,32,2022-02-12_13h47.05.643,lexical_decision_task_DD_L3,2021.2.3,Win32,60.50338819,,,,,,,,,,,,0.6214,1,,,,,,,,,,,,,,m,1,0.6214,,,,,,,,0.05078125,-0.2890625,0,0,0,,0,85,85,67,1,SAILOR,C,old,m,./images/SAILOR.png,,,,,,,,,,,,,,,,,,,,,,,,,,,,,,,,,,,
,,,,,,,,,,,,,,,,,60ace56a83e45642b22d9954,32,2022-02-12_13h47.05.643,lexical_decision_task_DD_L3,2021.2.3,Win32,60.50338819,,,,,,,,,,,,0.6492,1,,,,,,,,,,,,,,m,1,0.6492,,,,,,,,0.05078125,-0.2890625,0,0,0,,0,86,86,53,1,CARPET,HB,old,m,./images/CARPETHB.png,,,,,,,,,,,,,,,,,,,,,,,,,,,,,,,,,,,
,,,,,,,,,,,,,,,,,60ace56a83e45642b22d9954,32,2022-02-12_13h47.05.643,lexical_decision_task_DD_L3,2021.2.3,Win32,60.50338819,,,,,,,,,,,,0.5003,0,,,,,,,,,,,,,,m,0,0.5003,,,,,,,,0.05078125,-0.2890625,0,0,0,,0,87,87,146,1,MOOST,LB,old,z,./images/MOOSTLB.png,,,,,,,,,,,,,,,,,,,,,,,,,,,,,,,,,,,
,,,,,,,,,,,,,,,,,60ace56a83e45642b22d9954,32,2022-02-12_13h47.05.643,lexical_decision_task_DD_L3,2021.2.3,Win32,60.50338819,,,,,,,,,,,,0.8186,1,,,,,,,,,,,,,,z,1,0.8186,,,,,,,,0.05078125,-0.2890625,0,0,0,,0,88,88,145,1,LAMEL,HB,old,z,./images/LAMELHB.png,,,,,,,,,,,,,,,,,,,,,,,,,,,,,,,,,,,
,,,,,,,,,,,,,,,,,60ace56a83e45642b22d9954,32,2022-02-12_13h47.05.643,lexical_decision_task_DD_L3,2021.2.3,Win32,60.50338819,,,,,,,,,,,,0.8602,1,,,,,,,,,,,,,,z,1,0.8602,,,,,,,,0.05078125,-0.2890625,0,0,0,,0,89,89,88,1,GLUSH,HB,old,z,./images/GLUSHHB.png,,,,,,,,,,,,,,,,,,,,,,,,,,,,,,,,,,,
,,,,,,,,,,,,,,,,,60ace56a83e45642b22d9954,32,2022-02-12_13h47.05.643,lexical_decision_task_DD_L3,2021.2.3,Win32,60.50338819,,,,,,,,,,,,0.6269,1,,,,,,,,,,,,,,m,1,0.6269,,,,,,,,0.05078125,-0.2890625,0,0,0,,0,90,90,5,1,PASTA,HB,old,m,./images/PASTAHB.png,,,,,,,,,,,,,,,,,,,,,,,,,,,,,,,,,,,
,,,,,,,,,,,,,,,,,60ace56a83e45642b22d9954,32,2022-02-12_13h47.05.643,lexical_decision_task_DD_L3,2021.2.3,Win32,60.50338819,,,,,,,,,,,,0.5648,1,,,,,,,,,,,,,,m,1,0.5648,,,,,,,,0.05078125,-0.2890625,0,0,0,,0,91,91,21,1,KIDNEY,LB,old,m,./images/KIDNEYLB.png,,,,,,,,,,,,,,,,,,,,,,,,,,,,,,,,,,,
,,,,,,,,,,,,,,,,,60ace56a83e45642b22d9954,32,2022-02-12_13h47.05.643,lexical_decision_task_DD_L3,2021.2.3,Win32,60.50338819,,,,,,,,,,,,0.813,0,,,,,,,,,,,,,,z,0,0.813,,,,,,,,0.05078125,-0.2890625,0,0,0,,0,92,92,38,1,LADDER,HB,old,m,./images/LADDERHB.png,,,,,,,,,,,,,,,,,,,,,,,,,,,,,,,,,,,
,,,,,,,,,,,,,,,,,60ace56a83e45642b22d9954,32,2022-02-12_13h47.05.643,lexical_decision_task_DD_L3,2021.2.3,Win32,60.50338819,,,,,,,,,,,,2.2883,1,,,,,,,,,,,,,,m,1,2.2883,,,,,,,,0.05078125,-0.2890625,0,0,0,,0,93,93,82,1,SUNSET,C,old,m,./images/SUNSET.png,,,,,,,,,,,,,,,,,,,,,,,,,,,,,,,,,,,
,,,,,,,,,,,,,,,,,60ace56a83e45642b22d9954,32,2022-02-12_13h47.05.643,lexical_decision_task_DD_L3,2021.2.3,Win32,60.50338819,,,,,,,,,,,,4.2395,1,,,,,,,,,,,,,,m,1,4.2395,,,,,,,,0.05078125,-0.2890625,0,0,0,,0,94,94,64,1,JELLY,C,old,m,./images/JELLY.png,,,,,,,,,,,,,,,,,,,,,,,,,,,,,,,,,,,
,,,,,,,,,,,,,,,,,60ace56a83e45642b22d9954,32,2022-02-12_13h47.05.643,lexical_decision_task_DD_L3,2021.2.3,Win32,60.50338819,,,,,,,,,,,,0.6776,1,,,,,,,,,,,,,,m,1,0.6776,,,,,,,,0.05078125,-0.2890625,0,0,0,,0,95,95,79,1,CRUST,C,old,m,./images/CRUST.png,,,,,,,,,,,,,,,,,,,,,,,,,,,,,,,,,,,
,,,,,,,,,,,,,,,,,60ace56a83e45642b22d9954,32,2022-02-12_13h47.05.643,lexical_decision_task_DD_L3,2021.2.3,Win32,60.50338819,,,,,,,,,,,,0.484,1,,,,,,,,,,,,,,m,1,0.484,,,,,,,,0.05078125,-0.2890625,0,0,0,,0,96,96,1,1,PLANK,C,old,m,./images/PLANK.png,,,,,,,,,,,,,,,,,,,,,,,,,,,,,,,,,,,
,,,,,,,,,,,,,,,,,60ace56a83e45642b22d9954,32,2022-02-12_13h47.05.643,lexical_decision_task_DD_L3,2021.2.3,Win32,60.50338819,,,,,,,,,,,,0.6809,1,,,,,,,,,,,,,,m,1,0.6809,,,,,,,,0.05078125,-0.2890625,0,0,0,,0,97,97,68,1,TORCH,HB,old,m,./images/TORCHHB.png,,,,,,,,,,,,,,,,,,,,,,,,,,,,,,,,,,,
,,,,,,,,,,,,,,,,,60ace56a83e45642b22d9954,32,2022-02-12_13h47.05.643,lexical_decision_task_DD_L3,2021.2.3,Win32,60.50338819,,,,,,,,,,,,0.5141,1,,,,,,,,,,,,,,z,1,0.5141,,,,,,,,0.05078125,-0.2890625,0,0,0,,0,98,98,99,1,BACKY,C,old,z,./images/BACKY.png,,,,,,,,,,,,,,,,,,,,,,,,,,,,,,,,,,,
,,,,,,,,,,,,,,,,,60ace56a83e45642b22d9954,32,2022-02-12_13h47.05.643,lexical_decision_task_DD_L3,2021.2.3,Win32,60.50338819,,,,,,,,,,,,0.6421,1,,,,,,,,,,,,,,z,1,0.6421,,,,,,,,0.05078125,-0.2890625,0,0,0,,0,99,99,101,1,GLEET,LB,old,z,./images/GLEETLB.png,,,,,,,,,,,,,,,,,,,,,,,,,,,,,,,,,,,
,,,,,,,,,,,,,,,,,60ace56a83e45642b22d9954,32,2022-02-12_13h47.05.643,lexical_decision_task_DD_L3,2021.2.3,Win32,60.50338819,,,,,,,,,,,,0.6013,1,,,,,,,,,,,,,,z,1,0.6013,,,,,,,,0.05078125,-0.2890625,0,0,0,,0,100,100,129,1,PRANS,C,old,z,./images/PRANS.png,,,,,,,,,,,,,,,,,,,,,,,,,,,,,,,,,,,
,,,,,,,,,,,,,,,,,60ace56a83e45642b22d9954,32,2022-02-12_13h47.05.643,lexical_decision_task_DD_L3,2021.2.3,Win32,60.50338819,,,,,,,,,,,,1.1653,1,,,,,,,,,,,,,,z,1,1.1653,,,,,,,,0.05078125,-0.2890625,0,0,0,,0,101,101,100,1,DRIBS,HB,old,z,./images/DRIBSHB.png,,,,,,,,,,,,,,,,,,,,,,,,,,,,,,,,,,,
,,,,,,,,,,,,,,,,,60ace56a83e45642b22d9954,32,2022-02-12_13h47.05.643,lexical_decision_task_DD_L3,2021.2.3,Win32,60.50338819,,,,,,,,,,,,1.1241,1,,,,,,,,,,,,,,z,1,1.1241,,,,,,,,0.05078125,-0.2890625,0,0,0,,0,102,102,157,1,INLER,HB,old,z,./images/INLERHB.png,,,,,,,,,,,,,,,,,,,,,,,,,,,,,,,,,,,
,,,,,,,,,,,,,,,,,60ace56a83e45642b22d9954,32,2022-02-12_13h47.05.643,lexical_decision_task_DD_L3,2021.2.3,Win32,60.50338819,,,,,,,,,,,,0.6089,1,,,,,,,,,,,,,,m,1,0.6089,,,,,,,,0.05078125,-0.2890625,0,0,0,,0,103,103,56,1,PACKET,HB,old,m,./images/PACKETHB.png,,,,,,,,,,,,,,,,,,,,,,,,,,,,,,,,,,,
,,,,,,,,,,,,,,,,,60ace56a83e45642b22d9954,32,2022-02-12_13h47.05.643,lexical_decision_task_DD_L3,2021.2.3,Win32,60.50338819,,,,,,,,,,,,0.5923,0,,,,,,,,,,,,,,m,0,0.5923,,,,,,,,0.05078125,-0.2890625,0,0,0,,0,104,104,128,1,GRIFT,LB,old,z,./images/GRIFTLB.png,,,,,,,,,,,,,,,,,,,,,,,,,,,,,,,,,,,
,,,,,,,,,,,,,,,,,60ace56a83e45642b22d9954,32,2022-02-12_13h47.05.643,lexical_decision_task_DD_L3,2021.2.3,Win32,60.50338819,,,,,,,,,,,,0.5031,0,,,,,,,,,,,,,,m,0,0.5031,,,,,,,,0.05078125,-0.2890625,0,0,0,,0,105,105,122,1,BLOOT,LB,old,z,./images/BLOOTLB.png,,,,,,,,,,,,,,,,,,,,,,,,,,,,,,,,,,,
,,,,,,,,,,,,,,,,,60ace56a83e45642b22d9954,32,2022-02-12_13h47.05.643,lexical_decision_task_DD_L3,2021.2.3,Win32,60.50338819,,,,,,,,,,,,1.7243,0,,,,,,,,,,,,,,m,0,1.7243,,,,,,,,0.05078125,-0.2890625,0,0,0,,0,106,106,130,1,CRILL,HB,old,z,./images/CRILLHB.png,,,,,,,,,,,,,,,,,,,,,,,,,,,,,,,,,,,
,,,,,,,,,,,,,,,,,60ace56a83e45642b22d9954,32,2022-02-12_13h47.05.643,lexical_decision_task_DD_L3,2021.2.3,Win32,60.50338819,,,,,,,,,,,,0.7246,1,,,,,,,,,,,,,,z,1,0.7246,,,,,,,,0.05078125,-0.2890625,0,0,0,,0,107,107,90,1,NEAST,C,old,z,./images/NEAST.png,,,,,,,,,,,,,,,,,,,,,,,,,,,,,,,,,,,
,,,,,,,,,,,,,,,,,60ace56a83e45642b22d9954,32,2022-02-12_13h47.05.643,lexical_decision_task_DD_L3,2021.2.3,Win32,60.50338819,,,,,,,,,,,,1.6331,1,,,,,,,,,,,,,,z,1,1.6331,,,,,,,,0.05078125,-0.2890625,0,0,0,,0,108,108,133,1,POWDY,HB,old,z,./images/POWDYHB.png,,,,,,,,,,,,,,,,,,,,,,,,,,,,,,,,,,,
,,,,,,,,,,,,,,,,,60ace56a83e45642b22d9954,32,2022-02-12_13h47.05.643,lexical_decision_task_DD_L3,2021.2.3,Win32,60.50338819,,,,,,,,,,,,0.509,1,,,,,,,,,,,,,,m,1,0.509,,,,,,,,0.05078125,-0.2890625,0,0,0,,0,109,109,75,1,GRAIN,LB,old,m,./images/GRAINLB.png,,,,,,,,,,,,,,,,,,,,,,,,,,,,,,,,,,,
,,,,,,,,,,,,,,,,,60ace56a83e45642b22d9954,32,2022-02-12_13h47.05.643,lexical_decision_task_DD_L3,2021.2.3,Win32,60.50338819,,,,,,,,,,,,0.9349,1,,,,,,,,,,,,,,z,1,0.9349,,,,,,,,0.05078125,-0.2890625,0,0,0,,0,110,110,118,1,BAVEL,HB,old,z,./images/BAVELHB.png,,,,,,,,,,,,,,,,,,,,,,,,,,,,,,,,,,,
,,,,,,,,,,,,,,,,,60ace56a83e45642b22d9954,32,2022-02-12_13h47.05.643,lexical_decision_task_DD_L3,2021.2.3,Win32,60.50338819,,,,,,,,,,,,0.6945,1,,,,,,,,,,,,,,z,1,0.6945,,,,,,,,0.05078125,-0.2890625,0,0,0,,0,111,111,149,1,VEASE,LB,old,z,./images/VEASELB.png,,,,,,,,,,,,,,,,,,,,,,,,,,,,,,,,,,,
,,,,,,,,,,,,,,,,,60ace56a83e45642b22d9954,32,2022-02-12_13h47.05.643,lexical_decision_task_DD_L3,2021.2.3,Win32,60.50338819,,,,,,,,,,,,1.2948,1,,,,,,,,,,,,,,m,1,1.2948,,,,,,,,0.05078125,-0.2890625,0,0,0,,0,112,112,41,1,STRING,HB,old,m,./images/STRINGHB.png,,,,,,,,,,,,,,,,,,,,,,,,,,,,,,,,,,,
,,,,,,,,,,,,,,,,,60ace56a83e45642b22d9954,32,2022-02-12_13h47.05.643,lexical_decision_task_DD_L3,2021.2.3,Win32,60.50338819,,,,,,,,,,,,0.7085,1,,,,,,,,,,,,,,m,1,0.7085,,,,,,,,0.05078125,-0.2890625,0,0,0,,0,113,113,51,1,ONION,LB,old,m,./images/ONIONLB.png,,,,,,,,,,,,,,,,,,,,,,,,,,,,,,,,,,,
,,,,,,,,,,,,,,,,,60ace56a83e45642b22d9954,32,2022-02-12_13h47.05.643,lexical_decision_task_DD_L3,2021.2.3,Win32,60.50338819,,,,,,,,,,,,0.8014,1,,,,,,,,,,,,,,z,1,0.8014,,,,,,,,0.05078125,-0.2890625,0,0,0,,0,114,114,116,1,BALGY,LB,old,z,./images/BALGYLB.png,,,,,,,,,,,,,,,,,,,,,,,,,,,,,,,,,,,
,,,,,,,,,,,,,,,,,60ace56a83e45642b22d9954,32,2022-02-12_13h47.05.643,lexical_decision_task_DD_L3,2021.2.3,Win32,60.50338819,,,,,,,,,,,,0.8636,1,,,,,,,,,,,,,,m,1,0.8636,,,,,,,,0.05078125,-0.2890625,0,0,0,,0,115,115,11,1,BONNET,HB,old,m,./images/BONNETHB.png,,,,,,,,,,,,,,,,,,,,,,,,,,,,,,,,,,,
,,,,,,,,,,,,,,,,,60ace56a83e45642b22d9954,32,2022-02-12_13h47.05.643,lexical_decision_task_DD_L3,2021.2.3,Win32,60.50338819,,,,,,,,,,,,0.518,1,,,,,,,,,,,,,,m,1,0.518,,,,,,,,0.05078125,-0.2890625,0,0,0,,0,116,116,22,1,MELON,C,old,m,./images/MELON.png,,,,,,,,,,,,,,,,,,,,,,,,,,,,,,,,,,,
,,,,,,,,,,,,,,,,,60ace56a83e45642b22d9954,32,2022-02-12_13h47.05.643,lexical_decision_task_DD_L3,2021.2.3,Win32,60.50338819,,,,,,,,,,,,0.4916,1,,,,,,,,,,,,,,z,1,0.4916,,,,,,,,0.05078125,-0.2890625,0,0,0,,0,117,117,95,1,HANTY,LB,old,z,./images/HANTYLB.png,,,,,,,,,,,,,,,,,,,,,,,,,,,,,,,,,,,
,,,,,,,,,,,,,,,,,60ace56a83e45642b22d9954,32,2022-02-12_13h47.05.643,lexical_decision_task_DD_L3,2021.2.3,Win32,60.50338819,,,,,,,,,,,,0.7688,1,,,,,,,,,,,,,,z,1,0.7688,,,,,,,,0.05078125,-0.2890625,0,0,0,,0,118,118,160,1,VEETS,HB,old,z,./images/VEETSHB.png,,,,,,,,,,,,,,,,,,,,,,,,,,,,,,,,,,,
,,,,,,,,,,,,,,,,,60ace56a83e45642b22d9954,32,2022-02-12_13h47.05.643,lexical_decision_task_DD_L3,2021.2.3,Win32,60.50338819,,,,,,,,,,,,0.5829,1,,,,,,,,,,,,,,m,1,0.5829,,,,,,,,0.05078125,-0.2890625,0,0,0,,0,119,119,18,1,JAGUAR,LB,old,m,./images/JAGUARLB.png,,,,,,,,,,,,,,,,,,,,,,,,,,,,,,,,,,,
,,,,,,,,,,,,,,,,,60ace56a83e45642b22d9954,32,2022-02-12_13h47.05.643,lexical_decision_task_DD_L3,2021.2.3,Win32,60.50338819,,,,,,,,,,,,0.7245,1,,,,,,,,,,,,,,m,1,0.7245,,,,,,,,0.05078125,-0.2890625,0,0,0,,0,120,120,72,1,NOOSE,LB,old,m,./images/NOOSELB.png,,,,,,,,,,,,,,,,,,,,,,,,,,,,,,,,,,,
,,,,,,,,,,,,,,,,,60ace56a83e45642b22d9954,32,2022-02-12_13h47.05.643,lexical_decision_task_DD_L3,2021.2.3,Win32,60.50338819,,,,,,,,,,,,0.4935,1,,,,,,,,,,,,,,m,1,0.4935,,,,,,,,0.05078125,-0.2890625,0,0,0,,0,121,121,12,1,SHORE,LB,old,m,./images/SHORELB.png,,,,,,,,,,,,,,,,,,,,,,,,,,,,,,,,,,,
,,,,,,,,,,,,,,,,,60ace56a83e45642b22d9954,32,2022-02-12_13h47.05.643,lexical_decision_task_DD_L3,2021.2.3,Win32,60.50338819,,,,,,,,,,,,0.6457,1,,,,,,,,,,,,,,m,1,0.6457,,,,,,,,0.05078125,-0.2890625,0,0,0,,0,122,122,4,1,MUSCLE,C,old,m,./images/MUSCLE.png,,,,,,,,,,,,,,,,,,,,,,,,,,,,,,,,,,,
,,,,,,,,,,,,,,,,,60ace56a83e45642b22d9954,32,2022-02-12_13h47.05.643,lexical_decision_task_DD_L3,2021.2.3,Win32,60.50338819,,,,,,,,,,,,0.5353,1,,,,,,,,,,,,,,m,1,0.5353,,,,,,,,0.05078125,-0.2890625,0,0,0,,0,123,123,33,1,MAGGOT,LB,old,m,./images/MAGGOTLB.png,,,,,,,,,,,,,,,,,,,,,,,,,,,,,,,,,,,
,,,,,,,,,,,,,,,,,60ace56a83e45642b22d9954,32,2022-02-12_13h47.05.643,lexical_decision_task_DD_L3,2021.2.3,Win32,60.50338819,,,,,,,,,,,,0.5033,1,,,,,,,,,,,,,,m,1,0.5033,,,,,,,,0.05078125,-0.2890625,0,0,0,,0,124,124,24,1,SCREW,LB,old,m,./images/SCREWLB.png,,,,,,,,,,,,,,,,,,,,,,,,,,,,,,,,,,,
,,,,,,,,,,,,,,,,,60ace56a83e45642b22d9954,32,2022-02-12_13h47.05.643,lexical_decision_task_DD_L3,2021.2.3,Win32,60.50338819,,,,,,,,,,,,0.5426,1,,,,,,,,,,,,,,m,1,0.5426,,,,,,,,0.044270833,-0.276041667,0,0,0,space,0,125,125,39,1,SHELF,LB,old,m,./images/SHELFLB.png,29.9527,,,,,,,,,,,,,,,,,,,,,,,,,,,,,,,,,,
,,,,,,,,,,,,,,,,,60ace56a83e45642b22d9954,32,2022-02-12_13h47.05.643,lexical_decision_task_DD_L3,2021.2.3,Win32,60.50338819,,,,,,,,,,,,1.1979,1,,,,,,,,,,,,,,z,1,1.1979,,,,,,,,0.044270833,-0.276041667,0,0,0,,0,126,126,167,1,ZONET,LB,old,z,./images/ZONETLB.png,,,,,,,,,,,,,,,,,,,,,,,,,,,,,,,,,,,
,,,,,,,,,,,,,,,,,60ace56a83e45642b22d9954,32,2022-02-12_13h47.05.643,lexical_decision_task_DD_L3,2021.2.3,Win32,60.50338819,,,,,,,,,,,,0.6272,1,,,,,,,,,,,,,,z,1,0.6272,,,,,,,,0.044270833,-0.276041667,0,0,0,,0,127,127,103,1,FLORT,HB,old,z,./images/FLORTHB.png,,,,,,,,,,,,,,,,,,,,,,,,,,,,,,,,,,,
,,,,,,,,,,,,,,,,,60ace56a83e45642b22d9954,32,2022-02-12_13h47.05.643,lexical_decision_task_DD_L3,2021.2.3,Win32,60.50338819,,,,,,,,,,,,0.4806,1,,,,,,,,,,,,,,z,1,0.4806,,,,,,,,0.044270833,-0.276041667,0,0,0,,0,128,128,147,1,ZOLES,C,old,z,./images/ZOLES.png,,,,,,,,,,,,,,,,,,,,,,,,,,,,,,,,,,,
,,,,,,,,,,,,,,,,,60ace56a83e45642b22d9954,32,2022-02-12_13h47.05.643,lexical_decision_task_DD_L3,2021.2.3,Win32,60.50338819,,,,,,,,,,,,0.4808,1,,,,,,,,,,,,,,m,1,0.4808,,,,,,,,0.044270833,-0.276041667,0,0,0,,0,129,129,37,1,BIRTH,C,old,m,./images/BIRTH.png,,,,,,,,,,,,,,,,,,,,,,,,,,,,,,,,,,,
,,,,,,,,,,,,,,,,,60ace56a83e45642b22d9954,32,2022-02-12_13h47.05.643,lexical_decision_task_DD_L3,2021.2.3,Win32,60.50338819,,,,,,,,,,,,0.7384,1,,,,,,,,,,,,,,m,1,0.7384,,,,,,,,0.044270833,-0.276041667,0,0,0,,0,130,130,71,1,PIMPLE,HB,old,m,./images/PIMPLEHB.png,,,,,,,,,,,,,,,,,,,,,,,,,,,,,,,,,,,
,,,,,,,,,,,,,,,,,60ace56a83e45642b22d9954,32,2022-02-12_13h47.05.643,lexical_decision_task_DD_L3,2021.2.3,Win32,60.50338819,,,,,,,,,,,,0.6443,1,,,,,,,,,,,,,,m,1,0.6443,,,,,,,,0.044270833,-0.276041667,0,0,0,,0,131,131,81,1,POODLE,LB,old,m,./images/POODLELB.png,,,,,,,,,,,,,,,,,,,,,,,,,,,,,,,,,,,
,,,,,,,,,,,,,,,,,60ace56a83e45642b22d9954,32,2022-02-12_13h47.05.643,lexical_decision_task_DD_L3,2021.2.3,Win32,60.50338819,,,,,,,,,,,,0.7432,1,,,,,,,,,,,,,,z,1,0.7432,,,,,,,,0.044270833,-0.276041667,0,0,0,,0,132,132,113,1,LINEW,LB,old,z,./images/LINEWLB.png,,,,,,,,,,,,,,,,,,,,,,,,,,,,,,,,,,,
,,,,,,,,,,,,,,,,,60ace56a83e45642b22d9954,32,2022-02-12_13h47.05.643,lexical_decision_task_DD_L3,2021.2.3,Win32,60.50338819,,,,,,,,,,,,1.4991,1,,,,,,,,,,,,,,m,1,1.4991,,,,,,,,0.044270833,-0.276041667,0,0,0,,0,133,133,17,1,SKIING,HB,old,m,./images/SKIINGHB.png,,,,,,,,,,,,,,,,,,,,,,,,,,,,,,,,,,,
,,,,,,,,,,,,,,,,,60ace56a83e45642b22d9954,32,2022-02-12_13h47.05.643,lexical_decision_task_DD_L3,2021.2.3,Win32,60.50338819,,,,,,,,,,,,0.7995,1,,,,,,,,,,,,,,z,1,0.7995,,,,,,,,0.044270833,-0.276041667,0,0,0,,0,134,134,151,1,TINKY,HB,old,z,./images/TINKYHB.png,,,,,,,,,,,,,,,,,,,,,,,,,,,,,,,,,,,
,,,,,,,,,,,,,,,,,60ace56a83e45642b22d9954,32,2022-02-12_13h47.05.643,lexical_decision_task_DD_L3,2021.2.3,Win32,60.50338819,,,,,,,,,,,,0.8891,1,,,,,,,,,,,,,,z,1,0.8891,,,,,,,,0.044270833,-0.276041667,0,0,0,,0,135,135,85,1,CHULK,HB,old,z,./images/CHULKHB.png,,,,,,,,,,,,,,,,,,,,,,,,,,,,,,,,,,,
,,,,,,,,,,,,,,,,,60ace56a83e45642b22d9954,32,2022-02-12_13h47.05.643,lexical_decision_task_DD_L3,2021.2.3,Win32,60.50338819,,,,,,,,,,,,0.6448,1,,,,,,,,,,,,,,m,1,0.6448,,,,,,,,0.044270833,-0.276041667,0,0,0,,0,136,136,35,1,PEACH,HB,old,m,./images/PEACHHB.png,,,,,,,,,,,,,,,,,,,,,,,,,,,,,,,,,,,
,,,,,,,,,,,,,,,,,60ace56a83e45642b22d9954,32,2022-02-12_13h47.05.643,lexical_decision_task_DD_L3,2021.2.3,Win32,60.50338819,,,,,,,,,,,,0.8462,1,,,,,,,,,,,,,,z,1,0.8462,,,,,,,,0.044270833,-0.276041667,0,0,0,,0,137,137,143,1,MONGS,LB,old,z,./images/MONGSLB.png,,,,,,,,,,,,,,,,,,,,,,,,,,,,,,,,,,,
,,,,,,,,,,,,,,,,,60ace56a83e45642b22d9954,32,2022-02-12_13h47.05.643,lexical_decision_task_DD_L3,2021.2.3,Win32,60.50338819,,,,,,,,,,,,1.0604,1,,,,,,,,,,,,,,m,1,1.0604,,,,,,,,0.044270833,-0.276041667,0,0,0,,0,138,138,42,1,FOLDER,LB,old,m,./images/FOLDERLB.png,,,,,,,,,,,,,,,,,,,,,,,,,,,,,,,,,,,
,,,,,,,,,,,,,,,,,60ace56a83e45642b22d9954,32,2022-02-12_13h47.05.643,lexical_decision_task_DD_L3,2021.2.3,Win32,60.50338819,,,,,,,,,,,,0.5396,1,,,,,,,,,,,,,,z,1,0.5396,,,,,,,,0.044270833,-0.276041667,0,0,0,,0,139,139,144,1,NAIRY,C,old,z,./images/NAIRY.png,,,,,,,,,,,,,,,,,,,,,,,,,,,,,,,,,,,
,,,,,,,,,,,,,,,,,60ace56a83e45642b22d9954,32,2022-02-12_13h47.05.643,lexical_decision_task_DD_L3,2021.2.3,Win32,60.50338819,,,,,,,,,,,,0.6755,1,,,,,,,,,,,,,,z,1,0.6755,,,,,,,,0.044270833,-0.276041667,0,0,0,,0,140,140,102,1,DULLE,C,old,z,./images/DULLE.png,,,,,,,,,,,,,,,,,,,,,,,,,,,,,,,,,,,
,,,,,,,,,,,,,,,,,60ace56a83e45642b22d9954,32,2022-02-12_13h47.05.643,lexical_decision_task_DD_L3,2021.2.3,Win32,60.50338819,,,,,,,,,,,,0.709,1,,,,,,,,,,,,,,z,1,0.709,,,,,,,,0.044270833,-0.276041667,0,0,0,,0,141,141,104,1,GITTY,LB,old,z,./images/GITTYLB.png,,,,,,,,,,,,,,,,,,,,,,,,,,,,,,,,,,,
,,,,,,,,,,,,,,,,,60ace56a83e45642b22d9954,32,2022-02-12_13h47.05.643,lexical_decision_task_DD_L3,2021.2.3,Win32,60.50338819,,,,,,,,,,,,0.5174,1,,,,,,,,,,,,,,m,1,0.5174,,,,,,,,0.044270833,-0.276041667,0,0,0,,0,142,142,36,1,THROAT,LB,old,m,./images/THROATLB.png,,,,,,,,,,,,,,,,,,,,,,,,,,,,,,,,,,,
,,,,,,,,,,,,,,,,,60ace56a83e45642b22d9954,32,2022-02-12_13h47.05.643,lexical_decision_task_DD_L3,2021.2.3,Win32,60.50338819,,,,,,,,,,,,1.1104,1,,,,,,,,,,,,,,m,1,1.1104,,,,,,,,0.044270833,-0.276041667,0,0,0,,0,143,143,8,1,TULIP,HB,old,m,./images/TULIPHB.png,,,,,,,,,,,,,,,,,,,,,,,,,,,,,,,,,,,
,,,,,,,,,,,,,,,,,60ace56a83e45642b22d9954,32,2022-02-12_13h47.05.643,lexical_decision_task_DD_L3,2021.2.3,Win32,60.50338819,,,,,,,,,,,,0.6106,1,,,,,,,,,,,,,,m,1,0.6106,,,,,,,,0.044270833,-0.276041667,0,0,0,,0,144,144,49,1,DRUMS,C,old,m,./images/DRUMS.png,,,,,,,,,,,,,,,,,,,,,,,,,,,,,,,,,,,
,,,,,,,,,,,,,,,,,60ace56a83e45642b22d9954,32,2022-02-12_13h47.05.643,lexical_decision_task_DD_L3,2021.2.3,Win32,60.50338819,,,,,,,,,,,,0.4939,1,,,,,,,,,,,,,,m,1,0.4939,,,,,,,,0.044270833,-0.276041667,0,0,0,,0,145,145,76,1,INFANT,C,old,m,./images/INFANT.png,,,,,,,,,,,,,,,,,,,,,,,,,,,,,,,,,,,
,,,,,,,,,,,,,,,,,60ace56a83e45642b22d9954,32,2022-02-12_13h47.05.643,lexical_decision_task_DD_L3,2021.2.3,Win32,60.50338819,,,,,,,,,,,,0.4685,1,,,,,,,,,,,,,,m,1,0.4685,,,,,,,,0.044270833,-0.276041667,0,0,0,,0,146,146,13,1,MOTOR,C,old,m,./images/MOTOR.png,,,,,,,,,,,,,,,,,,,,,,,,,,,,,,,,,,,
,,,,,,,,,,,,,,,,,60ace56a83e45642b22d9954,32,2022-02-12_13h47.05.643,lexical_decision_task_DD_L3,2021.2.3,Win32,60.50338819,,,,,,,,,,,,0.7333,1,,,,,,,,,,,,,,m,1,0.7333,,,,,,,,0.044270833,-0.276041667,0,0,0,,0,147,147,47,1,BERRY,HB,old,m,./images/BERRYHB.png,,,,,,,,,,,,,,,,,,,,,,,,,,,,,,,,,,,
,,,,,,,,,,,,,,,,,60ace56a83e45642b22d9954,32,2022-02-12_13h47.05.643,lexical_decision_task_DD_L3,2021.2.3,Win32,60.50338819,,,,,,,,,,,,0.816,1,,,,,,,,,,,,,,z,1,0.816,,,,,,,,0.044270833,-0.276041667,0,0,0,,0,148,148,121,1,CEERS,HB,old,z,./images/CEERSHB.png,,,,,,,,,,,,,,,,,,,,,,,,,,,,,,,,,,,
,,,,,,,,,,,,,,,,,60ace56a83e45642b22d9954,32,2022-02-12_13h47.05.643,lexical_decision_task_DD_L3,2021.2.3,Win32,60.50338819,,,,,,,,,,,,0.6377,1,,,,,,,,,,,,,,z,1,0.6377,,,,,,,,0.044270833,-0.276041667,0,0,0,,0,149,149,152,1,FRAIN,LB,old,z,./images/FRAINLB.png,,,,,,,,,,,,,,,,,,,,,,,,,,,,,,,,,,,
,,,,,,,,,,,,,,,,,60ace56a83e45642b22d9954,32,2022-02-12_13h47.05.643,lexical_decision_task_DD_L3,2021.2.3,Win32,60.50338819,,,,,,,,,,,,0.8416,1,,,,,,,,,,,,,,m,1,0.8416,,,,,,,,0.044270833,-0.276041667,0,0,0,,0,150,150,10,1,BELLY,C,old,m,./images/BELLY.png,,,,,,,,,,,,,,,,,,,,,,,,,,,,,,,,,,,
,,,,,,,,,,,,,,,,,60ace56a83e45642b22d9954,32,2022-02-12_13h47.05.643,lexical_decision_task_DD_L3,2021.2.3,Win32,60.50338819,,,,,,,,,,,,0.3959,0,,,,,,,,,,,,,,m,0,0.3959,,,,,,,,0.044270833,-0.276041667,0,0,0,,0,151,151,159,1,CUDDY,C,old,z,./images/CUDDY.png,,,,,,,,,,,,,,,,,,,,,,,,,,,,,,,,,,,
,,,,,,,,,,,,,,,,,60ace56a83e45642b22d9954,32,2022-02-12_13h47.05.643,lexical_decision_task_DD_L3,2021.2.3,Win32,60.50338819,,,,,,,,,,,,0.5806,1,,,,,,,,,,,,,,z,1,0.5806,,,,,,,,0.044270833,-0.276041667,0,0,0,,0,152,152,108,1,GRUET,C,old,z,./images/GRUET.png,,,,,,,,,,,,,,,,,,,,,,,,,,,,,,,,,,,
,,,,,,,,,,,,,,,,,60ace56a83e45642b22d9954,32,2022-02-12_13h47.05.643,lexical_decision_task_DD_L3,2021.2.3,Win32,60.50338819,,,,,,,,,,,,0.7132,1,,,,,,,,,,,,,,z,1,0.7132,,,,,,,,0.044270833,-0.276041667,0,0,0,,0,153,153,158,1,EGECT,LB,old,z,./images/EGECTLB.png,,,,,,,,,,,,,,,,,,,,,,,,,,,,,,,,,,,
,,,,,,,,,,,,,,,,,60ace56a83e45642b22d9954,32,2022-02-12_13h47.05.643,lexical_decision_task_DD_L3,2021.2.3,Win32,60.50338819,,,,,,,,,,,,0.5918,1,,,,,,,,,,,,,,m,1,0.5918,,,,,,,,0.044270833,-0.276041667,0,0,0,,0,154,154,28,1,FALCON,C,old,m,./images/FALCON.png,,,,,,,,,,,,,,,,,,,,,,,,,,,,,,,,,,,
,,,,,,,,,,,,,,,,,60ace56a83e45642b22d9954,32,2022-02-12_13h47.05.643,lexical_decision_task_DD_L3,2021.2.3,Win32,60.50338819,,,,,,,,,,,,0.9862,0,,,,,,,,,,,,,,m,0,0.9862,,,,,,,,0.044270833,-0.276041667,0,0,0,,0,155,155,142,1,PLASK,HB,old,z,./images/PLASKHB.png,,,,,,,,,,,,,,,,,,,,,,,,,,,,,,,,,,,
,,,,,,,,,,,,,,,,,60ace56a83e45642b22d9954,32,2022-02-12_13h47.05.643,lexical_decision_task_DD_L3,2021.2.3,Win32,60.50338819,,,,,,,,,,,,0.5502,1,,,,,,,,,,,,,,z,1,0.5502,,,,,,,,0.044270833,-0.276041667,0,0,0,,0,156,156,119,1,PAFER,LB,old,z,./images/PAFERLB.png,,,,,,,,,,,,,,,,,,,,,,,,,,,,,,,,,,,
,,,,,,,,,,,,,,,,,60ace56a83e45642b22d9954,32,2022-02-12_13h47.05.643,lexical_decision_task_DD_L3,2021.2.3,Win32,60.50338819,,,,,,,,,,,,0.7818,1,,,,,,,,,,,,,,m,1,0.7818,,,,,,,,0.044270833,-0.276041667,0,0,0,,0,157,157,44,1,LIZARD,HB,old,m,./images/LIZARDHB.png,,,,,,,,,,,,,,,,,,,,,,,,,,,,,,,,,,,
,,,,,,,,,,,,,,,,,60ace56a83e45642b22d9954,32,2022-02-12_13h47.05.643,lexical_decision_task_DD_L3,2021.2.3,Win32,60.50338819,,,,,,,,,,,,1.408,1,,,,,,,,,,,,,,z,1,1.408,,,,,,,,0.044270833,-0.276041667,0,0,0,,0,158,158,161,1,BLAPS,LB,old,z,./images/BLAPSLB.png,,,,,,,,,,,,,,,,,,,,,,,,,,,,,,,,,,,
,,,,,,,,,,,,,,,,,60ace56a83e45642b22d9954,32,2022-02-12_13h47.05.643,lexical_decision_task_DD_L3,2021.2.3,Win32,60.50338819,,,,,,,,,,,,0.6346,1,,,,,,,,,,,,,,z,1,0.6346,,,,,,,,0.044270833,-0.276041667,0,0,0,,0,159,159,117,1,STEEG,C,old,z,./images/STEEG.png,,,,,,,,,,,,,,,,,,,,,,,,,,,,,,,,,,,
,,,,,,,,,,,,,,,,,60ace56a83e45642b22d9954,32,2022-02-12_13h47.05.643,lexical_decision_task_DD_L3,2021.2.3,Win32,60.50338819,,,,,,,,,,,,0.9003,1,,,,,,,,,,,,,,z,1,0.9003,,,,,,,,0.044270833,-0.276041667,0,0,0,,0,160,160,139,1,BLEAR,HB,old,z,./images/BLEARHB.png,,,,,,,,,,,,,,,,,,,,,,,,,,,,,,,,,,,
,,,,,,,,,,,,,,,,,60ace56a83e45642b22d9954,32,2022-02-12_13h47.05.643,lexical_decision_task_DD_L3,2021.2.3,Win32,60.50338819,,,,,,,,,,,,0.7475,1,,,,,,,,,,,,,,z,1,0.7475,,,,,,,,0.044270833,-0.276041667,0,0,0,,0,161,161,114,1,RIKES,C,old,z,./images/RIKES.png,,,,,,,,,,,,,,,,,,,,,,,,,,,,,,,,,,,
,,,,,,,,,,,,,,,,,60ace56a83e45642b22d9954,32,2022-02-12_13h47.05.643,lexical_decision_task_DD_L3,2021.2.3,Win32,60.50338819,,,,,,,,,,,,0.5268,1,,,,,,,,,,,,,,m,1,0.5268,,,,,,,,0.044270833,-0.276041667,0,0,0,,0,162,162,70,1,URINE,C,old,m,./images/URINE.png,,,,,,,,,,,,,,,,,,,,,,,,,,,,,,,,,,,
,,,,,,,,,,,,,,,,,60ace56a83e45642b22d9954,32,2022-02-12_13h47.05.643,lexical_decision_task_DD_L3,2021.2.3,Win32,60.50338819,,,,,,,,,,,,0.8038,1,,,,,,,,,,,,,,z,1,0.8038,,,,,,,,0.044270833,-0.276041667,0,0,0,,0,163,163,123,1,SEDGE,C,old,z,./images/SEDGE.png,,,,,,,,,,,,,,,,,,,,,,,,,,,,,,,,,,,
,,,,,,,,,,,,,,,,,60ace56a83e45642b22d9954,32,2022-02-12_13h47.05.643,lexical_decision_task_DD_L3,2021.2.3,Win32,60.50338819,,,,,,,,,,,,0.632,1,,,,,,,,,,,,,,z,1,0.632,,,,,,,,0.044270833,-0.276041667,0,0,0,,0,164,164,93,1,SMONE,C,old,z,./images/SMONE.png,,,,,,,,,,,,,,,,,,,,,,,,,,,,,,,,,,,
,,,,,,,,,,,,,,,,,60ace56a83e45642b22d9954,32,2022-02-12_13h47.05.643,lexical_decision_task_DD_L3,2021.2.3,Win32,60.50338819,,,,,,,,,,,,0.6716,1,,,,,,,,,,,,,,z,1,0.6716,,,,,,,,0.044270833,-0.276041667,0,0,0,,0,165,165,125,1,MOOKY,LB,old,z,./images/MOOKYLB.png,,,,,,,,,,,,,,,,,,,,,,,,,,,,,,,,,,,
,,,,,,,,,,,,,,,,,60ace56a83e45642b22d9954,32,2022-02-12_13h47.05.643,lexical_decision_task_DD_L3,2021.2.3,Win32,60.50338819,,,,,,,,,,,,0.5605,1,,,,,,,,,,,,,,m,1,0.5605,,,,,,,,0.044270833,-0.276041667,0,0,0,,0,166,166,9,1,RHINO,LB,old,m,./images/RHINOLB.png,,,,,,,,,,,,,,,,,,,,,,,,,,,,,,,,,,,
,,,,,,,,,,,,,,,,,60ace56a83e45642b22d9954,32,2022-02-12_13h47.05.643,lexical_decision_task_DD_L3,2021.2.3,Win32,60.50338819,,,,,,,,,,,,2.0129,1,,,,,,,,,,,,,,z,1,2.0129,,,,,,,,0.044270833,-0.276041667,0,0,0,,0,167,167,115,1,MAWNS,HB,old,z,./images/MAWNSHB.png,,,,,,,,,,,,,,,,,,,,,,,,,,,,,,,,,,,
,,,,,,,,,,,,,,,,,60ace56a83e45642b22d9954,32,2022-02-12_13h47.05.643,lexical_decision_task_DD_L3,2021.2.3,Win32,60.50338819,,,,,,,,,,,,,,,,,,,,,,,,,,,,,,,,,,,,,,,,,,,,,,,,,How likely will it be that you will recognize the words presented slighly blurred on a scale of 0 (not likely) to 100 (most likely)?,,,,,0.006510417,-0.408854167,1,0,0,jol_adv,5,4.2639,0,0,0,1,1,,,,,,,,,,,,,,,,,,,,,
,,,,,,,,,,,,,,,,,60ace56a83e45642b22d9954,32,2022-02-12_13h47.05.643,lexical_decision_task_DD_L3,2021.2.3,Win32,60.50338819,,,,,,,,,,,,,,,,,,,,,,,,,,,,,,,,,,,,,,,,,,,,,,,,,How likely will it be that you will recognize the words presented very blurred on a scale of 0 (not likely) to 100 (most likely)?,,,,,,,,,,,5,8.7419,0,1,1,2,1,,,,,,,,,,,,,,,,,,,,,
,,,,,,,,,,,,,,,,,60ace56a83e45642b22d9954,32,2022-02-12_13h47.05.643,lexical_decision_task_DD_L3,2021.2.3,Win32,60.50338819,,,,,,,,,,,,,,,,,,,,,,,,,,,,,,,,,,,,,,,,,,,,,,,,,How likely will it be that you will recognize the words presented clearly on a scale of 0 (not likely) to 100 (most likely)?,,,,,,,,,,,6,2.5185,0,2,2,0,1,,,,,,,,,,,,,,,,,,,,,
,0.071614583,-0.404947917,1,0,0,instr_done_button,,,,,,1,test,"In the next phase you will be presented with the words from the the first phase. Your job is to decide whether you remember seeing the word or not. If you remember seeing the word press ""old"" or type ""m"". If you do not remember seeing the word press ""new"" or type ""z"". Please press the space bar or click on continue to begin. ",,,60ace56a83e45642b22d9954,32,2022-02-12_13h47.05.643,lexical_decision_task_DD_L3,2021.2.3,Win32,60.50338819,,,,,,,,,,,,,,,,,,,,,,,,,,,,,,,,,,,,,,,,,,,,,,,,,,,,,,,,,,,,,,,,,,,0,0,0,0,1,,,,,,,,,,,,,,,,
space,0.329427083,-0.268229167,0,0,0,,,,,,,1,test,"In the next phase you will be presented with the words from the the first phase. Your job is to decide whether you remember seeing the word or not. If you remember seeing the word press ""old"" or type ""m"". If you do not remember seeing the word press ""new"" or type ""z"". Please press the space bar or click on continue to begin. ",,,60ace56a83e45642b22d9954,32,2022-02-12_13h47.05.643,lexical_decision_task_DD_L3,2021.2.3,Win32,60.50338819,5.7671,,,,,,,,,,,,,,,,,,,,,,,,,,,,,,,,,,,,,,,,,,,,,,,,,,,,,,,,,,,,,,,,,,1,0,1,0,1,,,,,,,,,,,,,,,,
,0.05859375,-0.375,1,0,0,instr_done_button,,,,,,1,test,"In the next phase you will be presented with the words from the the first phase. Your job is to decide whether you remember seeing the word or not. If you remember seeing the word press ""old"" or type ""m"". If you do not remember seeing the word press ""new"" or type ""z"". Please press the space bar or click on continue to begin. ",,,60ace56a83e45642b22d9954,32,2022-02-12_13h47.05.643,lexical_decision_task_DD_L3,2021.2.3,Win32,60.50338819,,,,,,,,,,,,,,,,,,,,,,,,,,,,,,,,,,,,,,,,,,,,,,,,,,,,,,,,,,,,,,,,,,,2,0,2,0,1,,,,,,,,,,,,,,,,
,0.005208333,-0.412760417,1,0,0,instr_done_button,,,,,,1,test,"In the next phase you will be presented with the words from the the first phase. Your job is to decide whether you remember seeing the word or not. If you remember seeing the word press ""old"" or type ""m"". If you do not remember seeing the word press ""new"" or type ""z"". Please press the space bar or click on continue to begin. ",,,60ace56a83e45642b22d9954,32,2022-02-12_13h47.05.643,lexical_decision_task_DD_L3,2021.2.3,Win32,60.50338819,,,,,,,,,,,,,,,,,,,,,,,,,,,,,,,,,,,,,,,,,,,,,,,,,,,,,,,,,,,,,,,,,,,3,0,3,0,1,,,,,,,,,,,,,,,,
space,0.479166667,-0.33984375,0,0,0,,,,,,,1,test,"In the next phase you will be presented with the words from the the first phase. Your job is to decide whether you remember seeing the word or not. If you remember seeing the word press ""old"" or type ""m"". If you do not remember seeing the word press ""new"" or type ""z"". Please press the space bar or click on continue to begin. ",,,60ace56a83e45642b22d9954,32,2022-02-12_13h47.05.643,lexical_decision_task_DD_L3,2021.2.3,Win32,60.50338819,1.1804,,,,,,,,,,,,,,,,,,,,,,,,,,,,,,,,,,,,,,,,,,,,,,,,,,,,,,,,,,,,,,,,,,4,0,4,0,1,,,,,,,,,,,,,,,,
,,,,,,,,,,,,,,,,,60ace56a83e45642b22d9954,32,2022-02-12_13h47.05.643,lexical_decision_task_DD_L3,2021.2.3,Win32,60.50338819,,,,,,,,,,,,1.3483,1,,,,,,,,,,,,,,,,,,,,,,,,0.479166667,-0.33984375,0,0,0,,,,,,,BRIDE,C,z,m,./images/BRIDE.png,,,,,,,,,,,,,,,,,,,,z,1,1.3483,,,,,,,,0,0,0,148,1,
,,,,,,,,,,,,,,,,,60ace56a83e45642b22d9954,32,2022-02-12_13h47.05.643,lexical_decision_task_DD_L3,2021.2.3,Win32,60.50338819,,,,,,,,,,,,1.1078,1,,,,,,,,,,,,,,,,,,,,,,,,0.479166667,-0.33984375,0,0,0,,,,,,,CRATER,LB,z,m,./images/CRATERLB.png,,,,,,,,,,,,,,,,,,,,z,1,1.1078,,,,,,,,0,1,1,87,1,
,,,,,,,,,,,,,,,,,60ace56a83e45642b22d9954,32,2022-02-12_13h47.05.643,lexical_decision_task_DD_L3,2021.2.3,Win32,60.50338819,,,,,,,,,,,,0.8157,1,,,,,,,,,,,,,,,,,,,,,,,,0.479166667,-0.33984375,0,0,0,,,,,,,CANOE,C,z,m,./images/CANOE.png,,,,,,,,,,,,,,,,,,,,z,1,0.8157,,,,,,,,0,2,2,142,1,
,,,,,,,,,,,,,,,,,60ace56a83e45642b22d9954,32,2022-02-12_13h47.05.643,lexical_decision_task_DD_L3,2021.2.3,Win32,60.50338819,,,,,,,,,,,,0.6226,0,,,,,,,,,,,,,,,,,,,,,,,,0.479166667,-0.33984375,0,0,0,,,,,,,STREAM,HB,z,m,./images/STREAMHB.png,,,,,,,,,,,,,,,,,,,,m,0,0.6226,,,,,,,,0,3,3,125,1,
,,,,,,,,,,,,,,,,,60ace56a83e45642b22d9954,32,2022-02-12_13h47.05.643,lexical_decision_task_DD_L3,2021.2.3,Win32,60.50338819,,,,,,,,,,,,0.633,1,,,,,,,,,,,,,,,,,,,,,,,,0.479166667,-0.33984375,0,0,0,,,,,,,CRUST,C,m,m,./images/CRUST.png,,,,,,,,,,,,,,,,,,,,m,1,0.633,,,,,,,,0,4,4,79,1,
,,,,,,,,,,,,,,,,,60ace56a83e45642b22d9954,32,2022-02-12_13h47.05.643,lexical_decision_task_DD_L3,2021.2.3,Win32,60.50338819,,,,,,,,,,,,0.7707,1,,,,,,,,,,,,,,,,,,,,,,,,0.479166667,-0.33984375,0,0,0,,,,,,,HOCKEY,HB,z,m,./images/HOCKEYHB.png,,,,,,,,,,,,,,,,,,,,z,1,0.7707,,,,,,,,0,5,5,116,1,
,,,,,,,,,,,,,,,,,60ace56a83e45642b22d9954,32,2022-02-12_13h47.05.643,lexical_decision_task_DD_L3,2021.2.3,Win32,60.50338819,,,,,,,,,,,,0.7619,0,,,,,,,,,,,,,,,,,,,,,,,,0.479166667,-0.33984375,0,0,0,,,,,,,BEARD,HB,m,m,./images/BEARDHB.png,,,,,,,,,,,,,,,,,,,,z,0,0.7619,,,,,,,,0,6,6,2,1,
,,,,,,,,,,,,,,,,,60ace56a83e45642b22d9954,32,2022-02-12_13h47.05.643,lexical_decision_task_DD_L3,2021.2.3,Win32,60.50338819,,,,,,,,,,,,1.044,0,,,,,,,,,,,,,,,,,,,,,,,,0.479166667,-0.33984375,0,0,0,,,,,,,BIRTH,C,m,m,./images/BIRTH.png,,,,,,,,,,,,,,,,,,,,z,0,1.044,,,,,,,,0,7,7,37,1,
,,,,,,,,,,,,,,,,,60ace56a83e45642b22d9954,32,2022-02-12_13h47.05.643,lexical_decision_task_DD_L3,2021.2.3,Win32,60.50338819,,,,,,,,,,,,0.6493,1,,,,,,,,,,,,,,,,,,,,,,,,0.479166667,-0.33984375,0,0,0,,,,,,,PURSE,HB,m,m,./images/PURSEHB.png,,,,,,,,,,,,,,,,,,,,m,1,0.6493,,,,,,,,0,8,8,62,1,
,,,,,,,,,,,,,,,,,60ace56a83e45642b22d9954,32,2022-02-12_13h47.05.643,lexical_decision_task_DD_L3,2021.2.3,Win32,60.50338819,,,,,,,,,,,,0.7164,1,,,,,,,,,,,,,,,,,,,,,,,,0.479166667,-0.33984375,0,0,0,,,,,,,CLIFF,HB,z,m,./images/CLIFFHB.png,,,,,,,,,,,,,,,,,,,,z,1,0.7164,,,,,,,,0,9,9,92,1,
,,,,,,,,,,,,,,,,,60ace56a83e45642b22d9954,32,2022-02-12_13h47.05.643,lexical_decision_task_DD_L3,2021.2.3,Win32,60.50338819,,,,,,,,,,,,0.6661,0,,,,,,,,,,,,,,,,,,,,,,,,0.479166667,-0.33984375,0,0,0,,,,,,,FLASK,LB,z,m,./images/FLASKLB.png,,,,,,,,,,,,,,,,,,,,m,0,0.6661,,,,,,,,0,10,10,156,1,
,,,,,,,,,,,,,,,,,60ace56a83e45642b22d9954,32,2022-02-12_13h47.05.643,lexical_decision_task_DD_L3,2021.2.3,Win32,60.50338819,,,,,,,,,,,,0.5899,1,,,,,,,,,,,,,,,,,,,,,,,,0.479166667,-0.33984375,0,0,0,,,,,,,MOOSE,LB,m,m,./images/MOOSELB.png,,,,,,,,,,,,,,,,,,,,m,1,0.5899,,,,,,,,0,11,11,57,1,
,,,,,,,,,,,,,,,,,60ace56a83e45642b22d9954,32,2022-02-12_13h47.05.643,lexical_decision_task_DD_L3,2021.2.3,Win32,60.50338819,,,,,,,,,,,,0.5175,1,,,,,,,,,,,,,,,,,,,,,,,,0.479166667,-0.33984375,0,0,0,,,,,,,POODLE,LB,m,m,./images/POODLELB.png,,,,,,,,,,,,,,,,,,,,m,1,0.5175,,,,,,,,0,12,12,81,1,
,,,,,,,,,,,,,,,,,60ace56a83e45642b22d9954,32,2022-02-12_13h47.05.643,lexical_decision_task_DD_L3,2021.2.3,Win32,60.50338819,,,,,,,,,,,,0.7777,1,,,,,,,,,,,,,,,,,,,,,,,,0.479166667,-0.33984375,0,0,0,,,,,,,BANNER,C,m,m,./images/BANNER.png,,,,,,,,,,,,,,,,,,,,m,1,0.7777,,,,,,,,0,13,13,52,1,
,,,,,,,,,,,,,,,,,60ace56a83e45642b22d9954,32,2022-02-12_13h47.05.643,lexical_decision_task_DD_L3,2021.2.3,Win32,60.50338819,,,,,,,,,,,,1.6265,0,,,,,,,,,,,,,,,,,,,,,,,,0.479166667,-0.33984375,0,0,0,,,,,,,GRAIN,LB,m,m,./images/GRAINLB.png,,,,,,,,,,,,,,,,,,,,z,0,1.6265,,,,,,,,0,14,14,75,1,
,,,,,,,,,,,,,,,,,60ace56a83e45642b22d9954,32,2022-02-12_13h47.05.643,lexical_decision_task_DD_L3,2021.2.3,Win32,60.50338819,,,,,,,,,,,,0.6826,1,,,,,,,,,,,,,,,,,,,,,,,,0.479166667,-0.33984375,0,0,0,,,,,,,BUTTER,LB,z,m,./images/BUTTERLB.png,,,,,,,,,,,,,,,,,,,,z,1,0.6826,,,,,,,,0,15,15,111,1,
,,,,,,,,,,,,,,,,,60ace56a83e45642b22d9954,32,2022-02-12_13h47.05.643,lexical_decision_task_DD_L3,2021.2.3,Win32,60.50338819,,,,,,,,,,,,0.6594,0,,,,,,,,,,,,,,,,,,,,,,,,0.479166667,-0.33984375,0,0,0,,,,,,,DRILL,LB,z,m,./images/DRILLLB.png,,,,,,,,,,,,,,,,,,,,m,0,0.6594,,,,,,,,0,16,16,165,1,
,,,,,,,,,,,,,,,,,60ace56a83e45642b22d9954,32,2022-02-12_13h47.05.643,lexical_decision_task_DD_L3,2021.2.3,Win32,60.50338819,,,,,,,,,,,,0.8492,0,,,,,,,,,,,,,,,,,,,,,,,,0.479166667,-0.33984375,0,0,0,,,,,,,ONION,LB,m,m,./images/ONIONLB.png,,,,,,,,,,,,,,,,,,,,z,0,0.8492,,,,,,,,0,17,17,51,1,
,,,,,,,,,,,,,,,,,60ace56a83e45642b22d9954,32,2022-02-12_13h47.05.643,lexical_decision_task_DD_L3,2021.2.3,Win32,60.50338819,,,,,,,,,,,,0.6736,0,,,,,,,,,,,,,,,,,,,,,,,,0.479166667,-0.33984375,0,0,0,,,,,,,PICKLE,HB,m,m,./images/PICKLEHB.png,,,,,,,,,,,,,,,,,,,,z,0,0.6736,,,,,,,,0,18,18,14,1,
,,,,,,,,,,,,,,,,,60ace56a83e45642b22d9954,32,2022-02-12_13h47.05.643,lexical_decision_task_DD_L3,2021.2.3,Win32,60.50338819,,,,,,,,,,,,0.8112,1,,,,,,,,,,,,,,,,,,,,,,,,0.479166667,-0.33984375,0,0,0,,,,,,,DONKEY,C,z,m,./images/DONKEY.png,,,,,,,,,,,,,,,,,,,,z,1,0.8112,,,,,,,,0,19,19,103,1,
,,,,,,,,,,,,,,,,,60ace56a83e45642b22d9954,32,2022-02-12_13h47.05.643,lexical_decision_task_DD_L3,2021.2.3,Win32,60.50338819,,,,,,,,,,,,0.9851,1,,,,,,,,,,,,,,,,,,,,,,,,0.479166667,-0.33984375,0,0,0,,,,,,,RHINO,LB,m,m,./images/RHINOLB.png,,,,,,,,,,,,,,,,,,,,m,1,0.9851,,,,,,,,0,20,20,9,1,
,,,,,,,,,,,,,,,,,60ace56a83e45642b22d9954,32,2022-02-12_13h47.05.643,lexical_decision_task_DD_L3,2021.2.3,Win32,60.50338819,,,,,,,,,,,,0.9899,1,,,,,,,,,,,,,,,,,,,,,,,,0.479166667,-0.33984375,0,0,0,,,,,,,SHORE,LB,m,m,./images/SHORELB.png,,,,,,,,,,,,,,,,,,,,m,1,0.9899,,,,,,,,0,21,21,12,1,
,,,,,,,,,,,,,,,,,60ace56a83e45642b22d9954,32,2022-02-12_13h47.05.643,lexical_decision_task_DD_L3,2021.2.3,Win32,60.50338819,,,,,,,,,,,,0.6504,1,,,,,,,,,,,,,,,,,,,,,,,,0.479166667,-0.33984375,0,0,0,,,,,,,RULER,C,z,m,./images/RULER.png,,,,,,,,,,,,,,,,,,,,z,1,0.6504,,,,,,,,0,22,22,163,1,
,,,,,,,,,,,,,,,,,60ace56a83e45642b22d9954,32,2022-02-12_13h47.05.643,lexical_decision_task_DD_L3,2021.2.3,Win32,60.50338819,,,,,,,,,,,,0.5744,0,,,,,,,,,,,,,,,,,,,,,,,,0.479166667,-0.33984375,0,0,0,,,,,,,KIDNEY,LB,m,m,./images/KIDNEYLB.png,,,,,,,,,,,,,,,,,,,,z,0,0.5744,,,,,,,,0,23,23,21,1,
,,,,,,,,,,,,,,,,,60ace56a83e45642b22d9954,32,2022-02-12_13h47.05.643,lexical_decision_task_DD_L3,2021.2.3,Win32,60.50338819,,,,,,,,,,,,0.8217,1,,,,,,,,,,,,,,,,,,,,,,,,0.479166667,-0.33984375,0,0,0,,,,,,,WRIST,C,m,m,./images/WRIST.png,,,,,,,,,,,,,,,,,,,,m,1,0.8217,,,,,,,,0,24,24,25,1,
,,,,,,,,,,,,,,,,,60ace56a83e45642b22d9954,32,2022-02-12_13h47.05.643,lexical_decision_task_DD_L3,2021.2.3,Win32,60.50338819,,,,,,,,,,,,1.0848,1,,,,,,,,,,,,,,,,,,,,,,,,0.479166667,-0.33984375,0,0,0,,,,,,,SLOPE,LB,z,m,./images/SLOPELB.png,,,,,,,,,,,,,,,,,,,,z,1,1.0848,,,,,,,,0,25,25,114,1,
,,,,,,,,,,,,,,,,,60ace56a83e45642b22d9954,32,2022-02-12_13h47.05.643,lexical_decision_task_DD_L3,2021.2.3,Win32,60.50338819,,,,,,,,,,,,0.8584,1,,,,,,,,,,,,,,,,,,,,,,,,0.479166667,-0.33984375,0,0,0,,,,,,,MUSCLE,C,m,m,./images/MUSCLE.png,,,,,,,,,,,,,,,,,,,,m,1,0.8584,,,,,,,,0,26,26,4,1,
,,,,,,,,,,,,,,,,,60ace56a83e45642b22d9954,32,2022-02-12_13h47.05.643,lexical_decision_task_DD_L3,2021.2.3,Win32,60.50338819,,,,,,,,,,,,0.7784,1,,,,,,,,,,,,,,,,,,,,,,,,0.479166667,-0.33984375,0,0,0,,,,,,,DIVER,LB,z,m,./images/DIVERLB.png,,,,,,,,,,,,,,,,,,,,z,1,0.7784,,,,,,,,0,27,27,93,1,
,,,,,,,,,,,,,,,,,60ace56a83e45642b22d9954,32,2022-02-12_13h47.05.643,lexical_decision_task_DD_L3,2021.2.3,Win32,60.50338819,,,,,,,,,,,,0.633,1,,,,,,,,,,,,,,,,,,,,,,,,0.479166667,-0.33984375,0,0,0,,,,,,,STOVE,HB,z,m,./images/STOVEHB.png,,,,,,,,,,,,,,,,,,,,z,1,0.633,,,,,,,,0,28,28,86,1,
,,,,,,,,,,,,,,,,,60ace56a83e45642b22d9954,32,2022-02-12_13h47.05.643,lexical_decision_task_DD_L3,2021.2.3,Win32,60.50338819,,,,,,,,,,,,0.6786,1,,,,,,,,,,,,,,,,,,,,,,,,0.479166667,-0.33984375,0,0,0,,,,,,,PLANET,HB,z,m,./images/PLANETHB.png,,,,,,,,,,,,,,,,,,,,z,1,0.6786,,,,,,,,0,29,29,164,1,
,,,,,,,,,,,,,,,,,60ace56a83e45642b22d9954,32,2022-02-12_13h47.05.643,lexical_decision_task_DD_L3,2021.2.3,Win32,60.50338819,,,,,,,,,,,,1.2768,1,,,,,,,,,,,,,,,,,,,,,,,,0.479166667,-0.33984375,0,0,0,,,,,,,COLLAR,LB,z,m,./images/COLLARLB.png,,,,,,,,,,,,,,,,,,,,z,1,1.2768,,,,,,,,0,30,30,99,1,
,,,,,,,,,,,,,,,,,60ace56a83e45642b22d9954,32,2022-02-12_13h47.05.643,lexical_decision_task_DD_L3,2021.2.3,Win32,60.50338819,,,,,,,,,,,,0.7033,1,,,,,,,,,,,,,,,,,,,,,,,,0.479166667,-0.33984375,0,0,0,,,,,,,CASINO,C,z,m,./images/CASINO.png,,,,,,,,,,,,,,,,,,,,z,1,0.7033,,,,,,,,0,31,31,112,1,
,,,,,,,,,,,,,,,,,60ace56a83e45642b22d9954,32,2022-02-12_13h47.05.643,lexical_decision_task_DD_L3,2021.2.3,Win32,60.50338819,,,,,,,,,,,,1.5976,1,,,,,,,,,,,,,,,,,,,,,,,,0.479166667,-0.33984375,0,0,0,,,,,,,CLOUD,HB,z,m,./images/CLOUDHB.png,,,,,,,,,,,,,,,,,,,,z,1,1.5976,,,,,,,,0,32,32,110,1,
,,,,,,,,,,,,,,,,,60ace56a83e45642b22d9954,32,2022-02-12_13h47.05.643,lexical_decision_task_DD_L3,2021.2.3,Win32,60.50338819,,,,,,,,,,,,0.7877,1,,,,,,,,,,,,,,,,,,,,,,,,0.479166667,-0.33984375,0,0,0,,,,,,,FENCE,HB,z,m,./images/FENCEHB.png,,,,,,,,,,,,,,,,,,,,z,1,0.7877,,,,,,,,0,33,33,98,1,
,,,,,,,,,,,,,,,,,60ace56a83e45642b22d9954,32,2022-02-12_13h47.05.643,lexical_decision_task_DD_L3,2021.2.3,Win32,60.50338819,,,,,,,,,,,,0.5721,1,,,,,,,,,,,,,,,,,,,,,,,,0.479166667,-0.33984375,0,0,0,,,,,,,ARTIST,C,z,m,./images/ARTIST.png,,,,,,,,,,,,,,,,,,,,z,1,0.5721,,,,,,,,0,34,34,145,1,
,,,,,,,,,,,,,,,,,60ace56a83e45642b22d9954,32,2022-02-12_13h47.05.643,lexical_decision_task_DD_L3,2021.2.3,Win32,60.50338819,,,,,,,,,,,,0.583,1,,,,,,,,,,,,,,,,,,,,,,,,0.479166667,-0.33984375,0,0,0,,,,,,,URINE,C,m,m,./images/URINE.png,,,,,,,,,,,,,,,,,,,,m,1,0.583,,,,,,,,0,35,35,70,1,
,,,,,,,,,,,,,,,,,60ace56a83e45642b22d9954,32,2022-02-12_13h47.05.643,lexical_decision_task_DD_L3,2021.2.3,Win32,60.50338819,,,,,,,,,,,,0.5498,1,,,,,,,,,,,,,,,,,,,,,,,,0.479166667,-0.33984375,0,0,0,,,,,,,BABOON,C,m,m,./images/BABOON.png,,,,,,,,,,,,,,,,,,,,m,1,0.5498,,,,,,,,0,36,36,58,1,
,,,,,,,,,,,,,,,,,60ace56a83e45642b22d9954,32,2022-02-12_13h47.05.643,lexical_decision_task_DD_L3,2021.2.3,Win32,60.50338819,,,,,,,,,,,,0.6067,1,,,,,,,,,,,,,,,,,,,,,,,,0.479166667,-0.33984375,0,0,0,,,,,,,JAGUAR,LB,m,m,./images/JAGUARLB.png,,,,,,,,,,,,,,,,,,,,m,1,0.6067,,,,,,,,0,37,37,18,1,
,,,,,,,,,,,,,,,,,60ace56a83e45642b22d9954,32,2022-02-12_13h47.05.643,lexical_decision_task_DD_L3,2021.2.3,Win32,60.50338819,,,,,,,,,,,,0.7,1,,,,,,,,,,,,,,,,,,,,,,,,0.479166667,-0.33984375,0,0,0,,,,,,,DESERT,C,z,m,./images/DESERT.png,,,,,,,,,,,,,,,,,,,,z,1,0.7,,,,,,,,0,38,38,136,1,
,,,,,,,,,,,,,,,,,60ace56a83e45642b22d9954,32,2022-02-12_13h47.05.643,lexical_decision_task_DD_L3,2021.2.3,Win32,60.50338819,,,,,,,,,,,,0.6036,1,,,,,,,,,,,,,,,,,,,,,,,,0.479166667,-0.33984375,0,0,0,,,,,,,WEASEL,HB,m,m,./images/WEASELHB.png,,,,,,,,,,,,,,,,,,,,m,1,0.6036,,,,,,,,0,39,39,80,1,
,,,,,,,,,,,,,,,,,60ace56a83e45642b22d9954,32,2022-02-12_13h47.05.643,lexical_decision_task_DD_L3,2021.2.3,Win32,60.50338819,,,,,,,,,,,,0.7022,1,,,,,,,,,,,,,,,,,,,,,,,,0.479166667,-0.33984375,0,0,0,,,,,,,STATUE,LB,z,m,./images/STATUELB.png,,,,,,,,,,,,,,,,,,,,z,1,0.7022,,,,,,,,0,40,40,150,1,
,,,,,,,,,,,,,,,,,60ace56a83e45642b22d9954,32,2022-02-12_13h47.05.643,lexical_decision_task_DD_L3,2021.2.3,Win32,60.50338819,,,,,,,,,,,,1.1067,1,,,,,,,,,,,,,,,,,,,,,,,,0.1171875,-0.404947917,1,0,0,,,,,,,WHISKY,HB,z,m,./images/WHISKYHB.png,,,,,,,,,,,,,,,,,,,,z,1,1.1067,,,,,,,,0,41,41,167,1,break_done_button
,,,,,,,,,,,,,,,,,60ace56a83e45642b22d9954,32,2022-02-12_13h47.05.643,lexical_decision_task_DD_L3,2021.2.3,Win32,60.50338819,,,,,,,,,,,,1.8235,1,,,,,,,,,,,,,,,,,,,,,,,,0.1015625,-0.403645833,0,0,0,,,,,,,SNACK,C,m,m,./images/SNACK.png,,,,,,,,,,,,,,,,,,,,m,1,1.8235,,,,,,,,0,42,42,73,1,
,,,,,,,,,,,,,,,,,60ace56a83e45642b22d9954,32,2022-02-12_13h47.05.643,lexical_decision_task_DD_L3,2021.2.3,Win32,60.50338819,,,,,,,,,,,,0.5733,1,,,,,,,,,,,,,,,,,,,,,,,,0.1015625,-0.403645833,0,0,0,,,,,,,HEATER,HB,z,m,./images/HEATERHB.png,,,,,,,,,,,,,,,,,,,,z,1,0.5733,,,,,,,,0,43,43,140,1,
,,,,,,,,,,,,,,,,,60ace56a83e45642b22d9954,32,2022-02-12_13h47.05.643,lexical_decision_task_DD_L3,2021.2.3,Win32,60.50338819,,,,,,,,,,,,0.6163,0,,,,,,,,,,,,,,,,,,,,,,,,0.1015625,-0.403645833,0,0,0,,,,,,,COUCH,HB,m,m,./images/COUCHHB.png,,,,,,,,,,,,,,,,,,,,z,0,0.6163,,,,,,,,0,44,44,77,1,
,,,,,,,,,,,,,,,,,60ace56a83e45642b22d9954,32,2022-02-12_13h47.05.643,lexical_decision_task_DD_L3,2021.2.3,Win32,60.50338819,,,,,,,,,,,,0.4999,1,,,,,,,,,,,,,,,,,,,,,,,,0.1015625,-0.403645833,0,0,0,,,,,,,ALLEY,C,z,m,./images/ALLEY.png,,,,,,,,,,,,,,,,,,,,z,1,0.4999,,,,,,,,0,45,45,139,1,
,,,,,,,,,,,,,,,,,60ace56a83e45642b22d9954,32,2022-02-12_13h47.05.643,lexical_decision_task_DD_L3,2021.2.3,Win32,60.50338819,,,,,,,,,,,,0.6859,0,,,,,,,,,,,,,,,,,,,,,,,,0.1015625,-0.403645833,0,0,0,,,,,,,TWINS,LB,m,m,./images/TWINSLB.png,,,,,,,,,,,,,,,,,,,,z,0,0.6859,,,,,,,,0,46,46,60,1,
,,,,,,,,,,,,,,,,,60ace56a83e45642b22d9954,32,2022-02-12_13h47.05.643,lexical_decision_task_DD_L3,2021.2.3,Win32,60.50338819,,,,,,,,,,,,0.7725,1,,,,,,,,,,,,,,,,,,,,,,,,0.1015625,-0.403645833,0,0,0,,,,,,,BOILER,LB,z,m,./images/BOILERLB.png,,,,,,,,,,,,,,,,,,,,z,1,0.7725,,,,,,,,0,47,47,120,1,
,,,,,,,,,,,,,,,,,60ace56a83e45642b22d9954,32,2022-02-12_13h47.05.643,lexical_decision_task_DD_L3,2021.2.3,Win32,60.50338819,,,,,,,,,,,,0.7185,0,,,,,,,,,,,,,,,,,,,,,,,,0.1015625,-0.403645833,0,0,0,,,,,,,MALLET,HB,m,m,./images/MALLETHB.png,,,,,,,,,,,,,,,,,,,,z,0,0.7185,,,,,,,,0,48,48,50,1,
,,,,,,,,,,,,,,,,,60ace56a83e45642b22d9954,32,2022-02-12_13h47.05.643,lexical_decision_task_DD_L3,2021.2.3,Win32,60.50338819,,,,,,,,,,,,0.652,1,,,,,,,,,,,,,,,,,,,,,,,,0.1015625,-0.403645833,0,0,0,,,,,,,COOKER,LB,m,m,./images/COOKERLB.png,,,,,,,,,,,,,,,,,,,,m,1,0.652,,,,,,,,0,49,49,69,1,
,,,,,,,,,,,,,,,,,60ace56a83e45642b22d9954,32,2022-02-12_13h47.05.643,lexical_decision_task_DD_L3,2021.2.3,Win32,60.50338819,,,,,,,,,,,,0.5497,1,,,,,,,,,,,,,,,,,,,,,,,,0.1015625,-0.403645833,0,0,0,,,,,,,TOWEL,C,z,m,./images/TOWEL.png,,,,,,,,,,,,,,,,,,,,z,1,0.5497,,,,,,,,0,50,50,85,1,
,,,,,,,,,,,,,,,,,60ace56a83e45642b22d9954,32,2022-02-12_13h47.05.643,lexical_decision_task_DD_L3,2021.2.3,Win32,60.50338819,,,,,,,,,,,,0.6827,1,,,,,,,,,,,,,,,,,,,,,,,,0.1015625,-0.403645833,0,0,0,,,,,,,LIZARD,HB,m,m,./images/LIZARDHB.png,,,,,,,,,,,,,,,,,,,,m,1,0.6827,,,,,,,,0,51,51,44,1,
,,,,,,,,,,,,,,,,,60ace56a83e45642b22d9954,32,2022-02-12_13h47.05.643,lexical_decision_task_DD_L3,2021.2.3,Win32,60.50338819,,,,,,,,,,,,0.7705,1,,,,,,,,,,,,,,,,,,,,,,,,0.1015625,-0.403645833,0,0,0,,,,,,,SAILOR,C,m,m,./images/SAILOR.png,,,,,,,,,,,,,,,,,,,,m,1,0.7705,,,,,,,,0,52,52,67,1,
,,,,,,,,,,,,,,,,,60ace56a83e45642b22d9954,32,2022-02-12_13h47.05.643,lexical_decision_task_DD_L3,2021.2.3,Win32,60.50338819,,,,,,,,,,,,0.6175,0,,,,,,,,,,,,,,,,,,,,,,,,0.1015625,-0.403645833,0,0,0,,,,,,,MUMMY,C,z,m,./images/MUMMY.png,,,,,,,,,,,,,,,,,,,,m,0,0.6175,,,,,,,,0,53,53,130,1,
,,,,,,,,,,,,,,,,,60ace56a83e45642b22d9954,32,2022-02-12_13h47.05.643,lexical_decision_task_DD_L3,2021.2.3,Win32,60.50338819,,,,,,,,,,,,0.496,1,,,,,,,,,,,,,,,,,,,,,,,,0.1015625,-0.403645833,0,0,0,,,,,,,PEACH,HB,m,m,./images/PEACHHB.png,,,,,,,,,,,,,,,,,,,,m,1,0.496,,,,,,,,0,54,54,35,1,
,,,,,,,,,,,,,,,,,60ace56a83e45642b22d9954,32,2022-02-12_13h47.05.643,lexical_decision_task_DD_L3,2021.2.3,Win32,60.50338819,,,,,,,,,,,,0.6204,0,,,,,,,,,,,,,,,,,,,,,,,,0.1015625,-0.403645833,0,0,0,,,,,,,LAGOON,HB,z,m,./images/LAGOONHB.png,,,,,,,,,,,,,,,,,,,,m,0,0.6204,,,,,,,,0,55,55,131,1,
,,,,,,,,,,,,,,,,,60ace56a83e45642b22d9954,32,2022-02-12_13h47.05.643,lexical_decision_task_DD_L3,2021.2.3,Win32,60.50338819,,,,,,,,,,,,0.6276,0,,,,,,,,,,,,,,,,,,,,,,,,0.1015625,-0.403645833,0,0,0,,,,,,,POKER,C,z,m,./images/POKER.png,,,,,,,,,,,,,,,,,,,,m,0,0.6276,,,,,,,,0,56,56,151,1,
,,,,,,,,,,,,,,,,,60ace56a83e45642b22d9954,32,2022-02-12_13h47.05.643,lexical_decision_task_DD_L3,2021.2.3,Win32,60.50338819,,,,,,,,,,,,0.7363,0,,,,,,,,,,,,,,,,,,,,,,,,0.1015625,-0.403645833,0,0,0,,,,,,,WALNUT,LB,z,m,./images/WALNUTLB.png,,,,,,,,,,,,,,,,,,,,m,0,0.7363,,,,,,,,0,57,57,84,1,
,,,,,,,,,,,,,,,,,60ace56a83e45642b22d9954,32,2022-02-12_13h47.05.643,lexical_decision_task_DD_L3,2021.2.3,Win32,60.50338819,,,,,,,,,,,,0.8436,0,,,,,,,,,,,,,,,,,,,,,,,,0.1015625,-0.403645833,0,0,0,,,,,,,WALRUS,HB,m,m,./images/WALRUSHB.png,,,,,,,,,,,,,,,,,,,,z,0,0.8436,,,,,,,,0,58,58,23,1,
,,,,,,,,,,,,,,,,,60ace56a83e45642b22d9954,32,2022-02-12_13h47.05.643,lexical_decision_task_DD_L3,2021.2.3,Win32,60.50338819,,,,,,,,,,,,0.9933,1,,,,,,,,,,,,,,,,,,,,,,,,0.1015625,-0.403645833,0,0,0,,,,,,,CRADLE,HB,m,m,./images/CRADLEHB.png,,,,,,,,,,,,,,,,,,,,m,1,0.9933,,,,,,,,0,59,59,20,1,
,,,,,,,,,,,,,,,,,60ace56a83e45642b22d9954,32,2022-02-12_13h47.05.643,lexical_decision_task_DD_L3,2021.2.3,Win32,60.50338819,,,,,,,,,,,,0.7495,0,,,,,,,,,,,,,,,,,,,,,,,,0.1015625,-0.403645833,0,0,0,,,,,,,BELLY,C,m,m,./images/BELLY.png,,,,,,,,,,,,,,,,,,,,z,0,0.7495,,,,,,,,0,60,60,10,1,
,,,,,,,,,,,,,,,,,60ace56a83e45642b22d9954,32,2022-02-12_13h47.05.643,lexical_decision_task_DD_L3,2021.2.3,Win32,60.50338819,,,,,,,,,,,,0.8216,1,,,,,,,,,,,,,,,,,,,,,,,,0.1015625,-0.403645833,0,0,0,,,,,,,CHERRY,LB,z,m,./images/CHERRYLB.png,,,,,,,,,,,,,,,,,,,,z,1,0.8216,,,,,,,,0,61,61,138,1,
,,,,,,,,,,,,,,,,,60ace56a83e45642b22d9954,32,2022-02-12_13h47.05.643,lexical_decision_task_DD_L3,2021.2.3,Win32,60.50338819,,,,,,,,,,,,0.5622,1,,,,,,,,,,,,,,,,,,,,,,,,0.1015625,-0.403645833,0,0,0,,,,,,,PENCE,C,m,m,./images/PENCE.png,,,,,,,,,,,,,,,,,,,,m,1,0.5622,,,,,,,,0,62,62,16,1,
,,,,,,,,,,,,,,,,,60ace56a83e45642b22d9954,32,2022-02-12_13h47.05.643,lexical_decision_task_DD_L3,2021.2.3,Win32,60.50338819,,,,,,,,,,,,0.6329,1,,,,,,,,,,,,,,,,,,,,,,,,0.1015625,-0.403645833,0,0,0,,,,,,,CEMENT,HB,m,m,./images/CEMENTHB.png,,,,,,,,,,,,,,,,,,,,m,1,0.6329,,,,,,,,0,63,63,74,1,
,,,,,,,,,,,,,,,,,60ace56a83e45642b22d9954,32,2022-02-12_13h47.05.643,lexical_decision_task_DD_L3,2021.2.3,Win32,60.50338819,,,,,,,,,,,,1.1594,1,,,,,,,,,,,,,,,,,,,,,,,,0.1015625,-0.403645833,0,0,0,,,,,,,STAIN,LB,z,m,./images/STAINLB.png,,,,,,,,,,,,,,,,,,,,z,1,1.1594,,,,,,,,0,64,64,90,1,
,,,,,,,,,,,,,,,,,60ace56a83e45642b22d9954,32,2022-02-12_13h47.05.643,lexical_decision_task_DD_L3,2021.2.3,Win32,60.50338819,,,,,,,,,,,,2.8427,1,,,,,,,,,,,,,,,,,,,,,,,,0.1015625,-0.403645833,0,0,0,,,,,,,SAUCE,LB,z,m,./images/SAUCELB.png,,,,,,,,,,,,,,,,,,,,z,1,2.8427,,,,,,,,0,65,65,135,1,
,,,,,,,,,,,,,,,,,60ace56a83e45642b22d9954,32,2022-02-12_13h47.05.643,lexical_decision_task_DD_L3,2021.2.3,Win32,60.50338819,,,,,,,,,,,,0.6597,1,,,,,,,,,,,,,,,,,,,,,,,,0.1015625,-0.403645833,0,0,0,,,,,,,BUNNY,C,z,m,./images/BUNNY.png,,,,,,,,,,,,,,,,,,,,z,1,0.6597,,,,,,,,0,66,66,97,1,
,,,,,,,,,,,,,,,,,60ace56a83e45642b22d9954,32,2022-02-12_13h47.05.643,lexical_decision_task_DD_L3,2021.2.3,Win32,60.50338819,,,,,,,,,,,,0.551,0,,,,,,,,,,,,,,,,,,,,,,,,0.1015625,-0.403645833,0,0,0,,,,,,,MIRROR,LB,m,m,./images/MIRRORLB.png,,,,,,,,,,,,,,,,,,,,z,0,0.551,,,,,,,,0,67,67,63,1,
,,,,,,,,,,,,,,,,,60ace56a83e45642b22d9954,32,2022-02-12_13h47.05.643,lexical_decision_task_DD_L3,2021.2.3,Win32,60.50338819,,,,,,,,,,,,0.8088,1,,,,,,,,,,,,,,,,,,,,,,,,0.1015625,-0.403645833,0,0,0,,,,,,,LADDER,HB,m,m,./images/LADDERHB.png,,,,,,,,,,,,,,,,,,,,m,1,0.8088,,,,,,,,0,68,68,38,1,
,,,,,,,,,,,,,,,,,60ace56a83e45642b22d9954,32,2022-02-12_13h47.05.643,lexical_decision_task_DD_L3,2021.2.3,Win32,60.50338819,,,,,,,,,,,,0.5284,1,,,,,,,,,,,,,,,,,,,,,,,,0.1015625,-0.403645833,0,0,0,,,,,,,TULIP,HB,m,m,./images/TULIPHB.png,,,,,,,,,,,,,,,,,,,,m,1,0.5284,,,,,,,,0,69,69,8,1,
,,,,,,,,,,,,,,,,,60ace56a83e45642b22d9954,32,2022-02-12_13h47.05.643,lexical_decision_task_DD_L3,2021.2.3,Win32,60.50338819,,,,,,,,,,,,0.716,1,,,,,,,,,,,,,,,,,,,,,,,,0.1015625,-0.403645833,0,0,0,,,,,,,GREASE,LB,m,m,./images/GREASELB.png,,,,,,,,,,,,,,,,,,,,m,1,0.716,,,,,,,,0,70,70,15,1,
,,,,,,,,,,,,,,,,,60ace56a83e45642b22d9954,32,2022-02-12_13h47.05.643,lexical_decision_task_DD_L3,2021.2.3,Win32,60.50338819,,,,,,,,,,,,0.5451,1,,,,,,,,,,,,,,,,,,,,,,,,0.1015625,-0.403645833,0,0,0,,,,,,,MOSQUE,C,m,m,./images/MOSQUE.png,,,,,,,,,,,,,,,,,,,,m,1,0.5451,,,,,,,,0,71,71,43,1,
,,,,,,,,,,,,,,,,,60ace56a83e45642b22d9954,32,2022-02-12_13h47.05.643,lexical_decision_task_DD_L3,2021.2.3,Win32,60.50338819,,,,,,,,,,,,0.8004,1,,,,,,,,,,,,,,,,,,,,,,,,0.1015625,-0.403645833,0,0,0,,,,,,,TRIPOD,LB,m,m,./images/TRIPODLB.png,,,,,,,,,,,,,,,,,,,,m,1,0.8004,,,,,,,,0,72,72,54,1,
,,,,,,,,,,,,,,,,,60ace56a83e45642b22d9954,32,2022-02-12_13h47.05.643,lexical_decision_task_DD_L3,2021.2.3,Win32,60.50338819,,,,,,,,,,,,0.8671,0,,,,,,,,,,,,,,,,,,,,,,,,0.1015625,-0.403645833,0,0,0,,,,,,,FINGER,LB,m,m,./images/FINGERLB.png,,,,,,,,,,,,,,,,,,,,z,0,0.8671,,,,,,,,0,73,73,3,1,
,,,,,,,,,,,,,,,,,60ace56a83e45642b22d9954,32,2022-02-12_13h47.05.643,lexical_decision_task_DD_L3,2021.2.3,Win32,60.50338819,,,,,,,,,,,,3.401,0,,,,,,,,,,,,,,,,,,,,,,,,0.1015625,-0.403645833,0,0,0,,,,,,,CARPET,HB,m,m,./images/CARPETHB.png,,,,,,,,,,,,,,,,,,,,z,0,3.401,,,,,,,,0,74,74,53,1,
,,,,,,,,,,,,,,,,,60ace56a83e45642b22d9954,32,2022-02-12_13h47.05.643,lexical_decision_task_DD_L3,2021.2.3,Win32,60.50338819,,,,,,,,,,,,0.5753,0,,,,,,,,,,,,,,,,,,,,,,,,0.1015625,-0.403645833,0,0,0,,,,,,,BAMBOO,HB,z,m,./images/BAMBOOHB.png,,,,,,,,,,,,,,,,,,,,m,0,0.5753,,,,,,,,0,75,75,89,1,
,,,,,,,,,,,,,,,,,60ace56a83e45642b22d9954,32,2022-02-12_13h47.05.643,lexical_decision_task_DD_L3,2021.2.3,Win32,60.50338819,,,,,,,,,,,,0.6039,1,,,,,,,,,,,,,,,,,,,,,,,,0.1015625,-0.403645833,0,0,0,,,,,,,FARMER,HB,m,m,./images/FARMERHB.png,,,,,,,,,,,,,,,,,,,,m,1,0.6039,,,,,,,,0,76,76,65,1,
,,,,,,,,,,,,,,,,,60ace56a83e45642b22d9954,32,2022-02-12_13h47.05.643,lexical_decision_task_DD_L3,2021.2.3,Win32,60.50338819,,,,,,,,,,,,0.8994,1,,,,,,,,,,,,,,,,,,,,,,,,0.1015625,-0.403645833,0,0,0,,,,,,,GLOVE,C,z,m,./images/GLOVE.png,,,,,,,,,,,,,,,,,,,,z,1,0.8994,,,,,,,,0,77,77,157,1,
,,,,,,,,,,,,,,,,,60ace56a83e45642b22d9954,32,2022-02-12_13h47.05.643,lexical_decision_task_DD_L3,2021.2.3,Win32,60.50338819,,,,,,,,,,,,0.6892,0,,,,,,,,,,,,,,,,,,,,,,,,0.1015625,-0.403645833,0,0,0,,,,,,,CHAIN,LB,z,m,./images/CHAINLB.png,,,,,,,,,,,,,,,,,,,,m,0,0.6892,,,,,,,,0,78,78,126,1,
,,,,,,,,,,,,,,,,,60ace56a83e45642b22d9954,32,2022-02-12_13h47.05.643,lexical_decision_task_DD_L3,2021.2.3,Win32,60.50338819,,,,,,,,,,,,1.9143,1,,,,,,,,,,,,,,,,,,,,,,,,0.1015625,-0.403645833,0,0,0,,,,,,,ENGINE,HB,z,m,./images/ENGINEHB.png,,,,,,,,,,,,,,,,,,,,z,1,1.9143,,,,,,,,0,79,79,122,1,
,,,,,,,,,,,,,,,,,60ace56a83e45642b22d9954,32,2022-02-12_13h47.05.643,lexical_decision_task_DD_L3,2021.2.3,Win32,60.50338819,,,,,,,,,,,,1.5645,1,,,,,,,,,,,,,,,,,,,,,,,,0.1015625,-0.403645833,0,0,0,,,,,,,FLESH,LB,z,m,./images/FLESHLB.png,,,,,,,,,,,,,,,,,,,,z,1,1.5645,,,,,,,,0,80,80,108,1,
,,,,,,,,,,,,,,,,,60ace56a83e45642b22d9954,32,2022-02-12_13h47.05.643,lexical_decision_task_DD_L3,2021.2.3,Win32,60.50338819,,,,,,,,,,,,0.6163,1,,,,,,,,,,,,,,,,,,,,,,,,0.1015625,-0.403645833,0,0,0,,,,,,,THROAT,LB,m,m,./images/THROATLB.png,,,,,,,,,,,,,,,,,,,,m,1,0.6163,,,,,,,,0,81,81,36,1,
,,,,,,,,,,,,,,,,,60ace56a83e45642b22d9954,32,2022-02-12_13h47.05.643,lexical_decision_task_DD_L3,2021.2.3,Win32,60.50338819,,,,,,,,,,,,0.6048,0,,,,,,,,,,,,,,,,,,,,,,,,0.1015625,-0.403645833,0,0,0,,,,,,,WHEEL,HB,z,m,./images/WHEELHB.png,,,,,,,,,,,,,,,,,,,,m,0,0.6048,,,,,,,,0,82,82,161,1,
,,,,,,,,,,,,,,,,,60ace56a83e45642b22d9954,32,2022-02-12_13h47.05.643,lexical_decision_task_DD_L3,2021.2.3,Win32,60.50338819,,,,,,,,,,,,1.2149,0,,,,,,,,,,,,,,,,,,,,,,,,0.100260417,-0.403645833,0,0,0,space,,,,,,CLOTH,HB,z,m,./images/CLOTHHB.png,67.0214,,,,,,,,,,,,,,,,,,,m,0,1.2149,,,,,,,,0,83,83,107,1,
,,,,,,,,,,,,,,,,,60ace56a83e45642b22d9954,32,2022-02-12_13h47.05.643,lexical_decision_task_DD_L3,2021.2.3,Win32,60.50338819,,,,,,,,,,,,1.4059,1,,,,,,,,,,,,,,,,,,,,,,,,0.100260417,-0.403645833,0,0,0,,,,,,,BERRY,HB,m,m,./images/BERRYHB.png,,,,,,,,,,,,,,,,,,,,m,1,1.4059,,,,,,,,0,84,84,47,1,
,,,,,,,,,,,,,,,,,60ace56a83e45642b22d9954,32,2022-02-12_13h47.05.643,lexical_decision_task_DD_L3,2021.2.3,Win32,60.50338819,,,,,,,,,,,,0.6705,0,,,,,,,,,,,,,,,,,,,,,,,,0.100260417,-0.403645833,0,0,0,,,,,,,MELON,C,m,m,./images/MELON.png,,,,,,,,,,,,,,,,,,,,z,0,0.6705,,,,,,,,0,85,85,22,1,
,,,,,,,,,,,,,,,,,60ace56a83e45642b22d9954,32,2022-02-12_13h47.05.643,lexical_decision_task_DD_L3,2021.2.3,Win32,60.50338819,,,,,,,,,,,,0.5702,0,,,,,,,,,,,,,,,,,,,,,,,,0.100260417,-0.403645833,0,0,0,,,,,,,MONKEY,LB,z,m,./images/MONKEYLB.png,,,,,,,,,,,,,,,,,,,,m,0,0.5702,,,,,,,,0,86,86,129,1,
,,,,,,,,,,,,,,,,,60ace56a83e45642b22d9954,32,2022-02-12_13h47.05.643,lexical_decision_task_DD_L3,2021.2.3,Win32,60.50338819,,,,,,,,,,,,0.6165,1,,,,,,,,,,,,,,,,,,,,,,,,0.100260417,-0.403645833,0,0,0,,,,,,,BONNET,HB,m,m,./images/BONNETHB.png,,,,,,,,,,,,,,,,,,,,m,1,0.6165,,,,,,,,0,87,87,11,1,
,,,,,,,,,,,,,,,,,60ace56a83e45642b22d9954,32,2022-02-12_13h47.05.643,lexical_decision_task_DD_L3,2021.2.3,Win32,60.50338819,,,,,,,,,,,,0.8045,1,,,,,,,,,,,,,,,,,,,,,,,,0.100260417,-0.403645833,0,0,0,,,,,,,PLANK,C,m,m,./images/PLANK.png,,,,,,,,,,,,,,,,,,,,m,1,0.8045,,,,,,,,0,88,88,1,1,
,,,,,,,,,,,,,,,,,60ace56a83e45642b22d9954,32,2022-02-12_13h47.05.643,lexical_decision_task_DD_L3,2021.2.3,Win32,60.50338819,,,,,,,,,,,,0.604,1,,,,,,,,,,,,,,,,,,,,,,,,0.100260417,-0.403645833,0,0,0,,,,,,,NOOSE,LB,m,m,./images/NOOSELB.png,,,,,,,,,,,,,,,,,,,,m,1,0.604,,,,,,,,0,89,89,72,1,
,,,,,,,,,,,,,,,,,60ace56a83e45642b22d9954,32,2022-02-12_13h47.05.643,lexical_decision_task_DD_L3,2021.2.3,Win32,60.50338819,,,,,,,,,,,,0.9002,1,,,,,,,,,,,,,,,,,,,,,,,,0.100260417,-0.403645833,0,0,0,,,,,,,CRUMB,HB,m,m,./images/CRUMBHB.png,,,,,,,,,,,,,,,,,,,,m,1,0.9002,,,,,,,,0,90,90,29,1,
,,,,,,,,,,,,,,,,,60ace56a83e45642b22d9954,32,2022-02-12_13h47.05.643,lexical_decision_task_DD_L3,2021.2.3,Win32,60.50338819,,,,,,,,,,,,0.6425,0,,,,,,,,,,,,,,,,,,,,,,,,0.100260417,-0.403645833,0,0,0,,,,,,,CHALK,C,z,m,./images/CHALK.png,,,,,,,,,,,,,,,,,,,,m,0,0.6425,,,,,,,,0,91,91,109,1,
,,,,,,,,,,,,,,,,,60ace56a83e45642b22d9954,32,2022-02-12_13h47.05.643,lexical_decision_task_DD_L3,2021.2.3,Win32,60.50338819,,,,,,,,,,,,0.5731,1,,,,,,,,,,,,,,,,,,,,,,,,0.100260417,-0.403645833,0,0,0,,,,,,,JUNGLE,HB,m,m,./images/JUNGLEHB.png,,,,,,,,,,,,,,,,,,,,m,1,0.5731,,,,,,,,0,92,92,83,1,
,,,,,,,,,,,,,,,,,60ace56a83e45642b22d9954,32,2022-02-12_13h47.05.643,lexical_decision_task_DD_L3,2021.2.3,Win32,60.50338819,,,,,,,,,,,,0.7867,1,,,,,,,,,,,,,,,,,,,,,,,,0.100260417,-0.403645833,0,0,0,,,,,,,SHELF,LB,m,m,./images/SHELFLB.png,,,,,,,,,,,,,,,,,,,,m,1,0.7867,,,,,,,,0,93,93,39,1,
,,,,,,,,,,,,,,,,,60ace56a83e45642b22d9954,32,2022-02-12_13h47.05.643,lexical_decision_task_DD_L3,2021.2.3,Win32,60.50338819,,,,,,,,,,,,1.0319,1,,,,,,,,,,,,,,,,,,,,,,,,0.100260417,-0.403645833,0,0,0,,,,,,,SQUARE,LB,m,m,./images/SQUARELB.png,,,,,,,,,,,,,,,,,,,,m,1,1.0319,,,,,,,,0,94,94,6,1,
,,,,,,,,,,,,,,,,,60ace56a83e45642b22d9954,32,2022-02-12_13h47.05.643,lexical_decision_task_DD_L3,2021.2.3,Win32,60.50338819,,,,,,,,,,,,0.6016,1,,,,,,,,,,,,,,,,,,,,,,,,0.100260417,-0.403645833,0,0,0,,,,,,,ARROW,LB,z,m,./images/ARROWLB.png,,,,,,,,,,,,,,,,,,,,z,1,0.6016,,,,,,,,0,95,95,153,1,
,,,,,,,,,,,,,,,,,60ace56a83e45642b22d9954,32,2022-02-12_13h47.05.643,lexical_decision_task_DD_L3,2021.2.3,Win32,60.50338819,,,,,,,,,,,,0.9525,1,,,,,,,,,,,,,,,,,,,,,,,,0.100260417,-0.403645833,0,0,0,,,,,,,SKIING,HB,m,m,./images/SKIINGHB.png,,,,,,,,,,,,,,,,,,,,m,1,0.9525,,,,,,,,0,96,96,17,1,
,,,,,,,,,,,,,,,,,60ace56a83e45642b22d9954,32,2022-02-12_13h47.05.643,lexical_decision_task_DD_L3,2021.2.3,Win32,60.50338819,,,,,,,,,,,,0.6828,1,,,,,,,,,,,,,,,,,,,,,,,,0.100260417,-0.403645833,0,0,0,,,,,,,LITTER,LB,m,m,./images/LITTERLB.png,,,,,,,,,,,,,,,,,,,,m,1,0.6828,,,,,,,,0,97,97,78,1,
,,,,,,,,,,,,,,,,,60ace56a83e45642b22d9954,32,2022-02-12_13h47.05.643,lexical_decision_task_DD_L3,2021.2.3,Win32,60.50338819,,,,,,,,,,,,0.553,1,,,,,,,,,,,,,,,,,,,,,,,,0.100260417,-0.403645833,0,0,0,,,,,,,CANDY,LB,z,m,./images/CANDYLB.png,,,,,,,,,,,,,,,,,,,,z,1,0.553,,,,,,,,0,98,98,123,1,
,,,,,,,,,,,,,,,,,60ace56a83e45642b22d9954,32,2022-02-12_13h47.05.643,lexical_decision_task_DD_L3,2021.2.3,Win32,60.50338819,,,,,,,,,,,,1.5686,1,,,,,,,,,,,,,,,,,,,,,,,,0.100260417,-0.403645833,0,0,0,,,,,,,FALCON,C,m,m,./images/FALCON.png,,,,,,,,,,,,,,,,,,,,m,1,1.5686,,,,,,,,0,99,99,28,1,
,,,,,,,,,,,,,,,,,60ace56a83e45642b22d9954,32,2022-02-12_13h47.05.643,lexical_decision_task_DD_L3,2021.2.3,Win32,60.50338819,,,,,,,,,,,,0.553,1,,,,,,,,,,,,,,,,,,,,,,,,0.100260417,-0.403645833,0,0,0,,,,,,,BARREL,HB,m,m,./images/BARRELHB.png,,,,,,,,,,,,,,,,,,,,m,1,0.553,,,,,,,,0,100,100,32,1,
,,,,,,,,,,,,,,,,,60ace56a83e45642b22d9954,32,2022-02-12_13h47.05.643,lexical_decision_task_DD_L3,2021.2.3,Win32,60.50338819,,,,,,,,,,,,0.6167,1,,,,,,,,,,,,,,,,,,,,,,,,0.100260417,-0.403645833,0,0,0,,,,,,,DOUGH,C,m,m,./images/DOUGH.png,,,,,,,,,,,,,,,,,,,,m,1,0.6167,,,,,,,,0,101,101,19,1,
,,,,,,,,,,,,,,,,,60ace56a83e45642b22d9954,32,2022-02-12_13h47.05.643,lexical_decision_task_DD_L3,2021.2.3,Win32,60.50338819,,,,,,,,,,,,0.711,0,,,,,,,,,,,,,,,,,,,,,,,,0.100260417,-0.403645833,0,0,0,,,,,,,PASTA,HB,m,m,./images/PASTAHB.png,,,,,,,,,,,,,,,,,,,,z,0,0.711,,,,,,,,0,102,102,5,1,
,,,,,,,,,,,,,,,,,60ace56a83e45642b22d9954,32,2022-02-12_13h47.05.643,lexical_decision_task_DD_L3,2021.2.3,Win32,60.50338819,,,,,,,,,,,,0.8327,1,,,,,,,,,,,,,,,,,,,,,,,,0.100260417,-0.403645833,0,0,0,,,,,,,SCREW,LB,m,m,./images/SCREWLB.png,,,,,,,,,,,,,,,,,,,,m,1,0.8327,,,,,,,,0,103,103,24,1,
,,,,,,,,,,,,,,,,,60ace56a83e45642b22d9954,32,2022-02-12_13h47.05.643,lexical_decision_task_DD_L3,2021.2.3,Win32,60.50338819,,,,,,,,,,,,0.685,0,,,,,,,,,,,,,,,,,,,,,,,,0.100260417,-0.403645833,0,0,0,,,,,,,PIMPLE,HB,m,m,./images/PIMPLEHB.png,,,,,,,,,,,,,,,,,,,,z,0,0.685,,,,,,,,0,104,104,71,1,
,,,,,,,,,,,,,,,,,60ace56a83e45642b22d9954,32,2022-02-12_13h47.05.643,lexical_decision_task_DD_L3,2021.2.3,Win32,60.50338819,,,,,,,,,,,,0.6495,1,,,,,,,,,,,,,,,,,,,,,,,,0.100260417,-0.403645833,0,0,0,,,,,,,CLOWN,C,z,m,./images/CLOWN.png,,,,,,,,,,,,,,,,,,,,z,1,0.6495,,,,,,,,0,105,105,106,1,
,,,,,,,,,,,,,,,,,60ace56a83e45642b22d9954,32,2022-02-12_13h47.05.643,lexical_decision_task_DD_L3,2021.2.3,Win32,60.50338819,,,,,,,,,,,,0.8251,0,,,,,,,,,,,,,,,,,,,,,,,,0.100260417,-0.403645833,0,0,0,,,,,,,TORCH,HB,m,m,./images/TORCHHB.png,,,,,,,,,,,,,,,,,,,,z,0,0.8251,,,,,,,,0,106,106,68,1,
,,,,,,,,,,,,,,,,,60ace56a83e45642b22d9954,32,2022-02-12_13h47.05.643,lexical_decision_task_DD_L3,2021.2.3,Win32,60.50338819,,,,,,,,,,,,1.4598,1,,,,,,,,,,,,,,,,,,,,,,,,0.100260417,-0.403645833,0,0,0,,,,,,,POSTER,HB,z,m,./images/POSTERHB.png,,,,,,,,,,,,,,,,,,,,z,1,1.4598,,,,,,,,0,107,107,137,1,
,,,,,,,,,,,,,,,,,60ace56a83e45642b22d9954,32,2022-02-12_13h47.05.643,lexical_decision_task_DD_L3,2021.2.3,Win32,60.50338819,,,,,,,,,,,,0.5108,0,,,,,,,,,,,,,,,,,,,,,,,,0.100260417,-0.403645833,0,0,0,,,,,,,DRUMS,C,m,m,./images/DRUMS.png,,,,,,,,,,,,,,,,,,,,z,0,0.5108,,,,,,,,0,108,108,49,1,
,,,,,,,,,,,,,,,,,60ace56a83e45642b22d9954,32,2022-02-12_13h47.05.643,lexical_decision_task_DD_L3,2021.2.3,Win32,60.50338819,,,,,,,,,,,,0.8403,1,,,,,,,,,,,,,,,,,,,,,,,,0.100260417,-0.403645833,0,0,0,,,,,,,PISTOL,HB,z,m,./images/PISTOLHB.png,,,,,,,,,,,,,,,,,,,,z,1,0.8403,,,,,,,,0,109,109,113,1,
,,,,,,,,,,,,,,,,,60ace56a83e45642b22d9954,32,2022-02-12_13h47.05.643,lexical_decision_task_DD_L3,2021.2.3,Win32,60.50338819,,,,,,,,,,,,0.9772,0,,,,,,,,,,,,,,,,,,,,,,,,0.100260417,-0.403645833,0,0,0,,,,,,,PILOT,HB,z,m,./images/PILOTHB.png,,,,,,,,,,,,,,,,,,,,m,0,0.9772,,,,,,,,0,110,110,134,1,
,,,,,,,,,,,,,,,,,60ace56a83e45642b22d9954,32,2022-02-12_13h47.05.643,lexical_decision_task_DD_L3,2021.2.3,Win32,60.50338819,,,,,,,,,,,,0.8492,1,,,,,,,,,,,,,,,,,,,,,,,,0.100260417,-0.403645833,0,0,0,,,,,,,STEAK,C,z,m,./images/STEAK.png,,,,,,,,,,,,,,,,,,,,z,1,0.8492,,,,,,,,0,111,111,115,1,
,,,,,,,,,,,,,,,,,60ace56a83e45642b22d9954,32,2022-02-12_13h47.05.643,lexical_decision_task_DD_L3,2021.2.3,Win32,60.50338819,,,,,,,,,,,,0.5882,1,,,,,,,,,,,,,,,,,,,,,,,,0.100260417,-0.403645833,0,0,0,,,,,,,BRUSH,HB,z,m,./images/BRUSHHB.png,,,,,,,,,,,,,,,,,,,,z,1,0.5882,,,,,,,,0,112,112,143,1,
,,,,,,,,,,,,,,,,,60ace56a83e45642b22d9954,32,2022-02-12_13h47.05.643,lexical_decision_task_DD_L3,2021.2.3,Win32,60.50338819,,,,,,,,,,,,0.5799,1,,,,,,,,,,,,,,,,,,,,,,,,0.100260417,-0.403645833,0,0,0,,,,,,,BUBBLE,HB,z,m,./images/BUBBLEHB.png,,,,,,,,,,,,,,,,,,,,z,1,0.5799,,,,,,,,0,113,113,155,1,
,,,,,,,,,,,,,,,,,60ace56a83e45642b22d9954,32,2022-02-12_13h47.05.643,lexical_decision_task_DD_L3,2021.2.3,Win32,60.50338819,,,,,,,,,,,,0.5846,1,,,,,,,,,,,,,,,,,,,,,,,,0.100260417,-0.403645833,0,0,0,,,,,,,GARDEN,C,z,m,./images/GARDEN.png,,,,,,,,,,,,,,,,,,,,z,1,0.5846,,,,,,,,0,114,114,94,1,
,,,,,,,,,,,,,,,,,60ace56a83e45642b22d9954,32,2022-02-12_13h47.05.643,lexical_decision_task_DD_L3,2021.2.3,Win32,60.50338819,,,,,,,,,,,,0.3774,0,,,,,,,,,,,,,,,,,,,,,,,,0.100260417,-0.403645833,0,0,0,,,,,,,BURIAL,HB,m,m,./images/BURIALHB.png,,,,,,,,,,,,,,,,,,,,z,0,0.3774,,,,,,,,0,115,115,59,1,
,,,,,,,,,,,,,,,,,60ace56a83e45642b22d9954,32,2022-02-12_13h47.05.643,lexical_decision_task_DD_L3,2021.2.3,Win32,60.50338819,,,,,,,,,,,,0.583,0,,,,,,,,,,,,,,,,,,,,,,,,0.100260417,-0.403645833,0,0,0,,,,,,,JELLY,C,m,m,./images/JELLY.png,,,,,,,,,,,,,,,,,,,,z,0,0.583,,,,,,,,0,116,116,64,1,
,,,,,,,,,,,,,,,,,60ace56a83e45642b22d9954,32,2022-02-12_13h47.05.643,lexical_decision_task_DD_L3,2021.2.3,Win32,60.50338819,,,,,,,,,,,,0.479,0,,,,,,,,,,,,,,,,,,,,,,,,0.100260417,-0.403645833,0,0,0,,,,,,,SWING,C,m,m,./images/SWING.png,,,,,,,,,,,,,,,,,,,,z,0,0.479,,,,,,,,0,117,117,40,1,
,,,,,,,,,,,,,,,,,60ace56a83e45642b22d9954,32,2022-02-12_13h47.05.643,lexical_decision_task_DD_L3,2021.2.3,Win32,60.50338819,,,,,,,,,,,,0.5026,1,,,,,,,,,,,,,,,,,,,,,,,,0.100260417,-0.403645833,0,0,0,,,,,,,JUMPER,HB,z,m,./images/JUMPERHB.png,,,,,,,,,,,,,,,,,,,,z,1,0.5026,,,,,,,,0,118,118,158,1,
,,,,,,,,,,,,,,,,,60ace56a83e45642b22d9954,32,2022-02-12_13h47.05.643,lexical_decision_task_DD_L3,2021.2.3,Win32,60.50338819,,,,,,,,,,,,0.9657,1,,,,,,,,,,,,,,,,,,,,,,,,0.100260417,-0.403645833,0,0,0,,,,,,,SMOKER,HB,m,m,./images/SMOKERHB.png,,,,,,,,,,,,,,,,,,,,m,1,0.9657,,,,,,,,0,119,119,26,1,
,,,,,,,,,,,,,,,,,60ace56a83e45642b22d9954,32,2022-02-12_13h47.05.643,lexical_decision_task_DD_L3,2021.2.3,Win32,60.50338819,,,,,,,,,,,,0.836,0,,,,,,,,,,,,,,,,,,,,,,,,0.100260417,-0.403645833,0,0,0,,,,,,,PAINT,C,m,m,./images/PAINT.png,,,,,,,,,,,,,,,,,,,,z,0,0.836,,,,,,,,0,120,120,7,1,
,,,,,,,,,,,,,,,,,60ace56a83e45642b22d9954,32,2022-02-12_13h47.05.643,lexical_decision_task_DD_L3,2021.2.3,Win32,60.50338819,,,,,,,,,,,,0.9766,1,,,,,,,,,,,,,,,,,,,,,,,,0.100260417,-0.403645833,0,0,0,,,,,,,TIGER,C,z,m,./images/TIGER.png,,,,,,,,,,,,,,,,,,,,z,1,0.9766,,,,,,,,0,121,121,121,1,
,,,,,,,,,,,,,,,,,60ace56a83e45642b22d9954,32,2022-02-12_13h47.05.643,lexical_decision_task_DD_L3,2021.2.3,Win32,60.50338819,,,,,,,,,,,,0.4773,0,,,,,,,,,,,,,,,,,,,,,,,,0.100260417,-0.403645833,0,0,0,,,,,,,STORM,LB,m,m,./images/STORMLB.png,,,,,,,,,,,,,,,,,,,,z,0,0.4773,,,,,,,,0,122,122,30,1,
,,,,,,,,,,,,,,,,,60ace56a83e45642b22d9954,32,2022-02-12_13h47.05.643,lexical_decision_task_DD_L3,2021.2.3,Win32,60.50338819,,,,,,,,,,,,0.6666,0,,,,,,,,,,,,,,,,,,,,,,,,0.100260417,-0.403645833,0,0,0,,,,,,,SHIELD,LB,z,m,./images/SHIELDLB.png,,,,,,,,,,,,,,,,,,,,m,0,0.6666,,,,,,,,0,123,123,132,1,
,,,,,,,,,,,,,,,,,60ace56a83e45642b22d9954,32,2022-02-12_13h47.05.643,lexical_decision_task_DD_L3,2021.2.3,Win32,60.50338819,,,,,,,,,,,,0.5429,0,,,,,,,,,,,,,,,,,,,,,,,,0.100260417,-0.403645833,0,0,0,,,,,,,FOLDER,LB,m,m,./images/FOLDERLB.png,,,,,,,,,,,,,,,,,,,,z,0,0.5429,,,,,,,,0,124,124,42,1,
,,,,,,,,,,,,,,,,,60ace56a83e45642b22d9954,32,2022-02-12_13h47.05.643,lexical_decision_task_DD_L3,2021.2.3,Win32,60.50338819,,,,,,,,,,,,0.4889,1,,,,,,,,,,,,,,,,,,,,,,,,0.100260417,-0.403645833,0,0,0,space,,,,,,BAKER,LB,z,m,./images/BAKERLB.png,17.8971,,,,,,,,,,,,,,,,,,,z,1,0.4889,,,,,,,,0,125,125,147,1,
,,,,,,,,,,,,,,,,,60ace56a83e45642b22d9954,32,2022-02-12_13h47.05.643,lexical_decision_task_DD_L3,2021.2.3,Win32,60.50338819,,,,,,,,,,,,1.1944,1,,,,,,,,,,,,,,,,,,,,,,,,0.100260417,-0.403645833,0,0,0,,,,,,,BLOKE,LB,z,m,./images/BLOKELB.png,,,,,,,,,,,,,,,,,,,,z,1,1.1944,,,,,,,,0,126,126,96,1,
,,,,,,,,,,,,,,,,,60ace56a83e45642b22d9954,32,2022-02-12_13h47.05.643,lexical_decision_task_DD_L3,2021.2.3,Win32,60.50338819,,,,,,,,,,,,0.6926,0,,,,,,,,,,,,,,,,,,,,,,,,0.100260417,-0.403645833,0,0,0,,,,,,,BROOM,LB,z,m,./images/BROOMLB.png,,,,,,,,,,,,,,,,,,,,m,0,0.6926,,,,,,,,0,127,127,162,1,
,,,,,,,,,,,,,,,,,60ace56a83e45642b22d9954,32,2022-02-12_13h47.05.643,lexical_decision_task_DD_L3,2021.2.3,Win32,60.50338819,,,,,,,,,,,,1.0746,1,,,,,,,,,,,,,,,,,,,,,,,,0.100260417,-0.403645833,0,0,0,,,,,,,SNAKE,C,z,m,./images/SNAKE.png,,,,,,,,,,,,,,,,,,,,z,1,1.0746,,,,,,,,0,128,128,124,1,
,,,,,,,,,,,,,,,,,60ace56a83e45642b22d9954,32,2022-02-12_13h47.05.643,lexical_decision_task_DD_L3,2021.2.3,Win32,60.50338819,,,,,,,,,,,,0.7162,0,,,,,,,,,,,,,,,,,,,,,,,,0.100260417,-0.403645833,0,0,0,,,,,,,SUNSET,C,m,m,./images/SUNSET.png,,,,,,,,,,,,,,,,,,,,z,0,0.7162,,,,,,,,0,129,129,82,1,
,,,,,,,,,,,,,,,,,60ace56a83e45642b22d9954,32,2022-02-12_13h47.05.643,lexical_decision_task_DD_L3,2021.2.3,Win32,60.50338819,,,,,,,,,,,,0.6619,0,,,,,,,,,,,,,,,,,,,,,,,,0.100260417,-0.403645833,0,0,0,,,,,,,BASKET,HB,z,m,./images/BASKETHB.png,,,,,,,,,,,,,,,,,,,,m,0,0.6619,,,,,,,,0,130,130,128,1,
,,,,,,,,,,,,,,,,,60ace56a83e45642b22d9954,32,2022-02-12_13h47.05.643,lexical_decision_task_DD_L3,2021.2.3,Win32,60.50338819,,,,,,,,,,,,1.0244,1,,,,,,,,,,,,,,,,,,,,,,,,0.100260417,-0.403645833,0,0,0,,,,,,,MEDAL,HB,z,m,./images/MEDALHB.png,,,,,,,,,,,,,,,,,,,,z,1,1.0244,,,,,,,,0,131,131,95,1,
