key_resp.keys,instr_done_touch.x,instr_done_touch.y,instr_done_touch.leftButton,instr_done_touch.midButton,instr_done_touch.rightButton,instr_done_touch.clicked_name,instruction_pages.thisRepN,instruction_pages.thisTrialN,instruction_pages.thisN,instruction_pages.thisIndex,instruction_pages.ran,pageN,phase,instruct_text,has_image,instruct_image,participant,age,date,expName,psychopyVersion,OS,frameRate,key_resp.rt,response.keys,response.corr,response.rt,touch_resp.x,touch_resp.y,touch_resp.leftButton,touch_resp.midButton,touch_resp.rightButton,touch_resp.time,touch_resp.clicked_name,rt,corr,practrials.thisRepN,practrials.thisTrialN,practrials.thisN,practrials.thisIndex,practrials.ran,TrialID,Target,corrAns,end_of_practice_trials_pages.thisRepN,end_of_practice_trials_pages.thisTrialN,end_of_practice_trials_pages.thisN,end_of_practice_trials_pages.thisIndex,end_of_practice_trials_pages.ran,key_resp_2.keys,key_resp_2.corr,key_resp_2.rt,targ_click.x,targ_click.y,targ_click.leftButton,targ_click.midButton,targ_click.rightButton,targ_click.time,targ_click.clicked_name,break_done_touch.x,break_done_touch.y,break_done_touch.leftButton,break_done_touch.midButton,break_done_touch.rightButton,break_done_keyboard.keys,maintrials.thisRepN,maintrials.thisTrialN,maintrials.thisN,maintrials.thisIndex,maintrials.ran,string,blur,study,lex,stim_path,break_done_keyboard.rt,mouse_2.x,mouse_2.y,mouse_2.leftButton,mouse_2.midButton,mouse_2.rightButton,mouse_2.clicked_name,slider.response,slider.rt,trials.thisRepN,trials.thisTrialN,trials.thisN,trials.thisIndex,trials.ran,test_instructions.thisRepN,test_instructions.thisTrialN,test_instructions.thisN,test_instructions.thisIndex,test_instructions.ran,key_resp_3.keys,key_resp_3.corr,key_resp_3.rt,test_click.x,test_click.y,test_click.leftButton,test_click.midButton,test_click.rightButton,test_click.time,test_click.clicked_name,test_phase.thisRepN,test_phase.thisTrialN,test_phase.thisN,test_phase.thisIndex,test_phase.ran
,0.115740741,-0.399074074,1,0,0,instr_done_button,0,0,0,0,1,1,instructions,"INSTRUCTIONS
At the start of each trial, look at the plus sign  (+) in the center of the screen.  This tells you that a trial is about to begin and where to look. Second, the plus sign will disappear and a string of letters will appear. Your task is to determine if the string of letters is a word or not. If the item is a word press the M key (on keyboard)  or touch the word button (phone/tablet).  If the item is not a word,  press the  Z key (on keyboard)  or touch the nonword button (on phone/tablet). 
Press the space bar or touch  continue.",0,,60b7f09a4462d1d1aa6bbcf6,20,2022-02-12_17h36.28.076,lexical_decision_task_DD_L3,2021.2.3,Linux x86_64,59.88023952,,,,,,,,,,,,,,,,,,,,,,,,,,,,,,,,,,,,,,,,,,,,,,,,,,,,,,,,,,,,,,,,,,,,,,,,,,,,,,,,,,,,,,
space,0.113888889,-0.4,0,0,0,,0,1,1,1,1,2,instructions,"If your device has a keyboard, press the 'Z' key for nonwords and the 'M' key for words.





Press the space bar or touch the button below to continue.",0,keyboard-example.gif,60b7f09a4462d1d1aa6bbcf6,20,2022-02-12_17h36.28.076,lexical_decision_task_DD_L3,2021.2.3,Linux x86_64,59.88023952,9.216,,,,,,,,,,,,,,,,,,,,,,,,,,,,,,,,,,,,,,,,,,,,,,,,,,,,,,,,,,,,,,,,,,,,,,,,,,,,,,,,,,,,,
space,0.113888889,-0.4,0,0,0,,0,2,2,2,1,3,instructions,"If you are using a touchscreen only device, use the buttons on the screen. Do not use the mouse.





Press the space bar or touch the button below to continue.",0,touchscreen-example.gif,60b7f09a4462d1d1aa6bbcf6,20,2022-02-12_17h36.28.076,lexical_decision_task_DD_L3,2021.2.3,Linux x86_64,59.88023952,3.439,,,,,,,,,,,,,,,,,,,,,,,,,,,,,,,,,,,,,,,,,,,,,,,,,,,,,,,,,,,,,,,,,,,,,,,,,,,,,,,,,,,,,
space,0.113888889,-0.4,0,0,0,,0,3,3,3,1,4,instructions,"It is very important that you respond as quickly and accurately as possible, as each letter string will only be on the screen for two seconds. If you do not respond within this time, the message 'Too slow!' will be displayed and the experiment will progress to the next letter string. The first 20 trials will be practice trials and you will receive feedback on your answers. 

Press the space bar or touch the button below to start the practice trials.",0,,60b7f09a4462d1d1aa6bbcf6,20,2022-02-12_17h36.28.076,lexical_decision_task_DD_L3,2021.2.3,Linux x86_64,59.88023952,5.974,,,,,,,,,,,,,,,,,,,,,,,,,,,,,,,,,,,,,,,,,,,,,,,,,,,,,,,,,,,,,,,,,,,,,,,,,,,,,,,,,,,,,
,,,,,,,,,,,,,,,,,60b7f09a4462d1d1aa6bbcf6,20,2022-02-12_17h36.28.076,lexical_decision_task_DD_L3,2021.2.3,Linux x86_64,59.88023952,,z,1,1.876,,,,,,,,1.876,1,0,0,0,9,1,1001,FARINY,z,,,,,,,,,,,,,,,,,,,,,,,,,,,,,,,,,,,,,,,,,,,,,,,,,,,,,,,,,,,,,,,,,
,,,,,,,,,,,,,,,,,60b7f09a4462d1d1aa6bbcf6,20,2022-02-12_17h36.28.076,lexical_decision_task_DD_L3,2021.2.3,Linux x86_64,59.88023952,,z,1,1.457,,,,,,,,1.457,1,0,1,1,14,1,1001,THRALE,z,,,,,,,,,,,,,,,,,,,,,,,,,,,,,,,,,,,,,,,,,,,,,,,,,,,,,,,,,,,,,,,,,
,,,,,,,,,,,,,,,,,60b7f09a4462d1d1aa6bbcf6,20,2022-02-12_17h36.28.076,lexical_decision_task_DD_L3,2021.2.3,Linux x86_64,59.88023952,,z,1,1.908,,,,,,,,1.908,1,0,2,2,13,1,1001,ROUPET,z,,,,,,,,,,,,,,,,,,,,,,,,,,,,,,,,,,,,,,,,,,,,,,,,,,,,,,,,,,,,,,,,,
,,,,,,,,,,,,,,,,,60b7f09a4462d1d1aa6bbcf6,20,2022-02-12_17h36.28.076,lexical_decision_task_DD_L3,2021.2.3,Linux x86_64,59.88023952,,m,1,0.945,,,,,,,,0.945,1,0,3,3,4,1,1001,SQUEAK,m,,,,,,,,,,,,,,,,,,,,,,,,,,,,,,,,,,,,,,,,,,,,,,,,,,,,,,,,,,,,,,,,,
,,,,,,,,,,,,,,,,,60b7f09a4462d1d1aa6bbcf6,20,2022-02-12_17h36.28.076,lexical_decision_task_DD_L3,2021.2.3,Linux x86_64,59.88023952,,z,1,1.209,,,,,,,,1.209,1,0,4,4,8,1,1001,ASLERT,z,,,,,,,,,,,,,,,,,,,,,,,,,,,,,,,,,,,,,,,,,,,,,,,,,,,,,,,,,,,,,,,,,
,,,,,,,,,,,,,,,,,60b7f09a4462d1d1aa6bbcf6,20,2022-02-12_17h36.28.076,lexical_decision_task_DD_L3,2021.2.3,Linux x86_64,59.88023952,,m,1,1.427,,,,,,,,1.427,1,0,5,5,7,1,1001,VOLUME,m,,,,,,,,,,,,,,,,,,,,,,,,,,,,,,,,,,,,,,,,,,,,,,,,,,,,,,,,,,,,,,,,,
,,,,,,,,,,,,,,,,,60b7f09a4462d1d1aa6bbcf6,20,2022-02-12_17h36.28.076,lexical_decision_task_DD_L3,2021.2.3,Linux x86_64,59.88023952,,m,1,0.775,,,,,,,,0.775,1,0,6,6,1,1,1001,ADJUST,m,,,,,,,,,,,,,,,,,,,,,,,,,,,,,,,,,,,,,,,,,,,,,,,,,,,,,,,,,,,,,,,,,
,,,,,,,,,,,,,,,,,60b7f09a4462d1d1aa6bbcf6,20,2022-02-12_17h36.28.076,lexical_decision_task_DD_L3,2021.2.3,Linux x86_64,59.88023952,,m,1,1.76,,,,,,,,1.76,1,0,7,7,3,1,1001,MATRIX,m,,,,,,,,,,,,,,,,,,,,,,,,,,,,,,,,,,,,,,,,,,,,,,,,,,,,,,,,,,,,,,,,,
,,,,,,,,,,,,,,,,,60b7f09a4462d1d1aa6bbcf6,20,2022-02-12_17h36.28.076,lexical_decision_task_DD_L3,2021.2.3,Linux x86_64,59.88023952,,m,1,1.964,,,,,,,,1.964,1,0,8,8,2,1,1001,ALMOND,m,,,,,,,,,,,,,,,,,,,,,,,,,,,,,,,,,,,,,,,,,,,,,,,,,,,,,,,,,,,,,,,,,
,,,,,,,,,,,,,,,,,60b7f09a4462d1d1aa6bbcf6,20,2022-02-12_17h36.28.076,lexical_decision_task_DD_L3,2021.2.3,Linux x86_64,59.88023952,,z,1,1.526,,,,,,,,1.526,1,0,9,9,12,1,1001,SPRINY,z,,,,,,,,,,,,,,,,,,,,,,,,,,,,,,,,,,,,,,,,,,,,,,,,,,,,,,,,,,,,,,,,,
,,,,,,,,,,,,,,,,,60b7f09a4462d1d1aa6bbcf6,20,2022-02-12_17h36.28.076,lexical_decision_task_DD_L3,2021.2.3,Linux x86_64,59.88023952,,z,1,2.709,,,,,,,,2.709,1,0,10,10,11,1,1001,RASHET,z,,,,,,,,,,,,,,,,,,,,,,,,,,,,,,,,,,,,,,,,,,,,,,,,,,,,,,,,,,,,,,,,,
,,,,,,,,,,,,,,,,,60b7f09a4462d1d1aa6bbcf6,20,2022-02-12_17h36.28.076,lexical_decision_task_DD_L3,2021.2.3,Linux x86_64,59.88023952,,m,1,0.976,,,,,,,,0.976,1,0,11,11,5,1,1001,OBTAIN,m,,,,,,,,,,,,,,,,,,,,,,,,,,,,,,,,,,,,,,,,,,,,,,,,,,,,,,,,,,,,,,,,,
,,,,,,,,,,,,,,,,,60b7f09a4462d1d1aa6bbcf6,20,2022-02-12_17h36.28.076,lexical_decision_task_DD_L3,2021.2.3,Linux x86_64,59.88023952,,z,1,2.24,,,,,,,,2.24,1,0,12,12,10,1,1001,INLADE,z,,,,,,,,,,,,,,,,,,,,,,,,,,,,,,,,,,,,,,,,,,,,,,,,,,,,,,,,,,,,,,,,,
,,,,,,,,,,,,,,,,,60b7f09a4462d1d1aa6bbcf6,20,2022-02-12_17h36.28.076,lexical_decision_task_DD_L3,2021.2.3,Linux x86_64,59.88023952,,z,1,1.38,,,,,,,,1.38,1,0,13,13,15,1,1001,WHAISE,z,,,,,,,,,,,,,,,,,,,,,,,,,,,,,,,,,,,,,,,,,,,,,,,,,,,,,,,,,,,,,,,,,
,,,,,,,,,,,,,,,,,60b7f09a4462d1d1aa6bbcf6,20,2022-02-12_17h36.28.076,lexical_decision_task_DD_L3,2021.2.3,Linux x86_64,59.88023952,,m,1,0.991,,,,,,,,0.991,1,0,14,14,0,1,1001,UTOPIA,m,,,,,,,,,,,,,,,,,,,,,,,,,,,,,,,,,,,,,,,,,,,,,,,,,,,,,,,,,,,,,,,,,
,,,,,,,,,,,,,,,,,60b7f09a4462d1d1aa6bbcf6,20,2022-02-12_17h36.28.076,lexical_decision_task_DD_L3,2021.2.3,Linux x86_64,59.88023952,,m,1,0.694,,,,,,,,0.694,1,0,15,15,6,1,1001,ZOMBIE,m,,,,,,,,,,,,,,,,,,,,,,,,,,,,,,,,,,,,,,,,,,,,,,,,,,,,,,,,,,,,,,,,,
space,0.113888889,-0.4,0,0,0,,,,,,,1,end_of_practice,"You have completed the practice trials. During the experimental trials, you will not receive feedback. 
Before you begin, please ensure that you are in a comfortable and quiet location and will not be disturbed for about 15 minutes, as we cannot use your data if you do not complete all the trials. 
 When you are ready to start the experimental trials, please press space or touch the button below.",,,60b7f09a4462d1d1aa6bbcf6,20,2022-02-12_17h36.28.076,lexical_decision_task_DD_L3,2021.2.3,Linux x86_64,59.88023952,8.616,,,,,,,,,,,,,,,,,,,,,0,0,0,0,1,,,,,,,,,,,,,,,,,,,,,,,,,,,,,,,,,,,,,,,,,,,,,,,,,,,,,,,,,,,,
,,,,,,,,,,,,,,,,,60b7f09a4462d1d1aa6bbcf6,20,2022-02-12_17h36.28.076,lexical_decision_task_DD_L3,2021.2.3,Linux x86_64,59.88023952,,,,,,,,,,,,2.07,1,,,,,,,,,,,,,,z,1,2.07,,,,,,,,0.113888889,-0.4,0,0,0,,0,0,0,113,1,LINEW,LB,old,z,./images/LINEWLB.png,,,,,,,,,,,,,,,,,,,,,,,,,,,,,,,,,,
,,,,,,,,,,,,,,,,,60b7f09a4462d1d1aa6bbcf6,20,2022-02-12_17h36.28.076,lexical_decision_task_DD_L3,2021.2.3,Linux x86_64,59.88023952,,,,,,,,,,,,1.294,1,,,,,,,,,,,,,,m,1,1.294,,,,,,,,0.113888889,-0.4,0,0,0,,0,1,1,53,1,CARPET,HB,old,m,./images/CARPETHB.png,,,,,,,,,,,,,,,,,,,,,,,,,,,,,,,,,,
,,,,,,,,,,,,,,,,,60b7f09a4462d1d1aa6bbcf6,20,2022-02-12_17h36.28.076,lexical_decision_task_DD_L3,2021.2.3,Linux x86_64,59.88023952,,,,,,,,,,,,1.212,0,,,,,,,,,,,,,,m,0,1.212,,,,,,,,0.113888889,-0.4,0,0,0,,0,2,2,163,1,GAMBA,HB,old,z,./images/GAMBAHB.png,,,,,,,,,,,,,,,,,,,,,,,,,,,,,,,,,,
,,,,,,,,,,,,,,,,,60b7f09a4462d1d1aa6bbcf6,20,2022-02-12_17h36.28.076,lexical_decision_task_DD_L3,2021.2.3,Linux x86_64,59.88023952,,,,,,,,,,,,0.771,1,,,,,,,,,,,,,,m,1,0.771,,,,,,,,0.113888889,-0.4,0,0,0,,0,3,3,45,1,KITTEN,LB,old,m,./images/KITTENLB.png,,,,,,,,,,,,,,,,,,,,,,,,,,,,,,,,,,
,,,,,,,,,,,,,,,,,60b7f09a4462d1d1aa6bbcf6,20,2022-02-12_17h36.28.076,lexical_decision_task_DD_L3,2021.2.3,Linux x86_64,59.88023952,,,,,,,,,,,,0.985,1,,,,,,,,,,,,,,z,1,0.985,,,,,,,,0.113888889,-0.4,0,0,0,,0,4,4,167,1,ZONET,LB,old,z,./images/ZONETLB.png,,,,,,,,,,,,,,,,,,,,,,,,,,,,,,,,,,
,,,,,,,,,,,,,,,,,60b7f09a4462d1d1aa6bbcf6,20,2022-02-12_17h36.28.076,lexical_decision_task_DD_L3,2021.2.3,Linux x86_64,59.88023952,,,,,,,,,,,,2.358,1,,,,,,,,,,,,,,z,1,2.358,,,,,,,,0.113888889,-0.4,0,0,0,,0,5,5,84,1,HAXES,C,old,z,./images/HAXES.png,,,,,,,,,,,,,,,,,,,,,,,,,,,,,,,,,,
,,,,,,,,,,,,,,,,,60b7f09a4462d1d1aa6bbcf6,20,2022-02-12_17h36.28.076,lexical_decision_task_DD_L3,2021.2.3,Linux x86_64,59.88023952,,,,,,,,,,,,2.211,1,,,,,,,,,,,,,,m,1,2.211,,,,,,,,0.113888889,-0.4,0,0,0,,0,6,6,17,1,SKIING,HB,old,m,./images/SKIINGHB.png,,,,,,,,,,,,,,,,,,,,,,,,,,,,,,,,,,
,,,,,,,,,,,,,,,,,60b7f09a4462d1d1aa6bbcf6,20,2022-02-12_17h36.28.076,lexical_decision_task_DD_L3,2021.2.3,Linux x86_64,59.88023952,,,,,,,,,,,,1.077,1,,,,,,,,,,,,,,z,1,1.077,,,,,,,,0.113888889,-0.4,0,0,0,,0,7,7,111,1,HOSSE,C,old,z,./images/HOSSE.png,,,,,,,,,,,,,,,,,,,,,,,,,,,,,,,,,,
,,,,,,,,,,,,,,,,,60b7f09a4462d1d1aa6bbcf6,20,2022-02-12_17h36.28.076,lexical_decision_task_DD_L3,2021.2.3,Linux x86_64,59.88023952,,,,,,,,,,,,1.292,1,,,,,,,,,,,,,,m,1,1.292,,,,,,,,0.113888889,-0.4,0,0,0,,0,8,8,80,1,WEASEL,HB,old,m,./images/WEASELHB.png,,,,,,,,,,,,,,,,,,,,,,,,,,,,,,,,,,
,,,,,,,,,,,,,,,,,60b7f09a4462d1d1aa6bbcf6,20,2022-02-12_17h36.28.076,lexical_decision_task_DD_L3,2021.2.3,Linux x86_64,59.88023952,,,,,,,,,,,,3.788,1,,,,,,,,,,,,,,z,1,3.788,,,,,,,,0.113888889,-0.4,0,0,0,,0,9,9,85,1,CHULK,HB,old,z,./images/CHULKHB.png,,,,,,,,,,,,,,,,,,,,,,,,,,,,,,,,,,
,,,,,,,,,,,,,,,,,60b7f09a4462d1d1aa6bbcf6,20,2022-02-12_17h36.28.076,lexical_decision_task_DD_L3,2021.2.3,Linux x86_64,59.88023952,,,,,,,,,,,,1.724,1,,,,,,,,,,,,,,z,1,1.724,,,,,,,,0.113888889,-0.4,0,0,0,,0,10,10,102,1,DULLE,C,old,z,./images/DULLE.png,,,,,,,,,,,,,,,,,,,,,,,,,,,,,,,,,,
,,,,,,,,,,,,,,,,,60b7f09a4462d1d1aa6bbcf6,20,2022-02-12_17h36.28.076,lexical_decision_task_DD_L3,2021.2.3,Linux x86_64,59.88023952,,,,,,,,,,,,1.921,1,,,,,,,,,,,,,,m,1,1.921,,,,,,,,0.113888889,-0.4,0,0,0,,0,11,11,59,1,BURIAL,HB,old,m,./images/BURIALHB.png,,,,,,,,,,,,,,,,,,,,,,,,,,,,,,,,,,
,,,,,,,,,,,,,,,,,60b7f09a4462d1d1aa6bbcf6,20,2022-02-12_17h36.28.076,lexical_decision_task_DD_L3,2021.2.3,Linux x86_64,59.88023952,,,,,,,,,,,,1.092,1,,,,,,,,,,,,,,m,1,1.092,,,,,,,,0.113888889,-0.4,0,0,0,,0,12,12,49,1,DRUMS,C,old,m,./images/DRUMS.png,,,,,,,,,,,,,,,,,,,,,,,,,,,,,,,,,,
,,,,,,,,,,,,,,,,,60b7f09a4462d1d1aa6bbcf6,20,2022-02-12_17h36.28.076,lexical_decision_task_DD_L3,2021.2.3,Linux x86_64,59.88023952,,,,,,,,,,,,2.708,1,,,,,,,,,,,,,,z,1,2.708,,,,,,,,0.113888889,-0.4,0,0,0,,0,13,13,145,1,LAMEL,HB,old,z,./images/LAMELHB.png,,,,,,,,,,,,,,,,,,,,,,,,,,,,,,,,,,
,,,,,,,,,,,,,,,,,60b7f09a4462d1d1aa6bbcf6,20,2022-02-12_17h36.28.076,lexical_decision_task_DD_L3,2021.2.3,Linux x86_64,59.88023952,,,,,,,,,,,,4.46,1,,,,,,,,,,,,,,z,1,4.46,,,,,,,,0.113888889,-0.4,0,0,0,,0,14,14,116,1,BALGY,LB,old,z,./images/BALGYLB.png,,,,,,,,,,,,,,,,,,,,,,,,,,,,,,,,,,
,,,,,,,,,,,,,,,,,60b7f09a4462d1d1aa6bbcf6,20,2022-02-12_17h36.28.076,lexical_decision_task_DD_L3,2021.2.3,Linux x86_64,59.88023952,,,,,,,,,,,,1.155,1,,,,,,,,,,,,,,m,1,1.155,,,,,,,,0.113888889,-0.4,0,0,0,,0,15,15,62,1,PURSE,HB,old,m,./images/PURSEHB.png,,,,,,,,,,,,,,,,,,,,,,,,,,,,,,,,,,
,,,,,,,,,,,,,,,,,60b7f09a4462d1d1aa6bbcf6,20,2022-02-12_17h36.28.076,lexical_decision_task_DD_L3,2021.2.3,Linux x86_64,59.88023952,,,,,,,,,,,,2.612,1,,,,,,,,,,,,,,z,1,2.612,,,,,,,,0.113888889,-0.4,0,0,0,,0,16,16,118,1,BAVEL,HB,old,z,./images/BAVELHB.png,,,,,,,,,,,,,,,,,,,,,,,,,,,,,,,,,,
,,,,,,,,,,,,,,,,,60b7f09a4462d1d1aa6bbcf6,20,2022-02-12_17h36.28.076,lexical_decision_task_DD_L3,2021.2.3,Linux x86_64,59.88023952,,,,,,,,,,,,2.05,1,,,,,,,,,,,,,,z,1,2.05,,,,,,,,0.113888889,-0.4,0,0,0,,0,17,17,134,1,TROSS,LB,old,z,./images/TROSSLB.png,,,,,,,,,,,,,,,,,,,,,,,,,,,,,,,,,,
,,,,,,,,,,,,,,,,,60b7f09a4462d1d1aa6bbcf6,20,2022-02-12_17h36.28.076,lexical_decision_task_DD_L3,2021.2.3,Linux x86_64,59.88023952,,,,,,,,,,,,1.044,1,,,,,,,,,,,,,,m,1,1.044,,,,,,,,0.113888889,-0.4,0,0,0,,0,18,18,56,1,PACKET,HB,old,m,./images/PACKETHB.png,,,,,,,,,,,,,,,,,,,,,,,,,,,,,,,,,,
,,,,,,,,,,,,,,,,,60b7f09a4462d1d1aa6bbcf6,20,2022-02-12_17h36.28.076,lexical_decision_task_DD_L3,2021.2.3,Linux x86_64,59.88023952,,,,,,,,,,,,1.66,1,,,,,,,,,,,,,,z,1,1.66,,,,,,,,0.113888889,-0.4,0,0,0,,0,19,19,93,1,SMONE,C,old,z,./images/SMONE.png,,,,,,,,,,,,,,,,,,,,,,,,,,,,,,,,,,
,,,,,,,,,,,,,,,,,60b7f09a4462d1d1aa6bbcf6,20,2022-02-12_17h36.28.076,lexical_decision_task_DD_L3,2021.2.3,Linux x86_64,59.88023952,,,,,,,,,,,,0.876,1,,,,,,,,,,,,,,m,1,0.876,,,,,,,,0.113888889,-0.4,0,0,0,,0,20,20,12,1,SHORE,LB,old,m,./images/SHORELB.png,,,,,,,,,,,,,,,,,,,,,,,,,,,,,,,,,,
,,,,,,,,,,,,,,,,,60b7f09a4462d1d1aa6bbcf6,20,2022-02-12_17h36.28.076,lexical_decision_task_DD_L3,2021.2.3,Linux x86_64,59.88023952,,,,,,,,,,,,2.628,1,,,,,,,,,,,,,,z,1,2.628,,,,,,,,0.113888889,-0.4,0,0,0,,0,21,21,110,1,CRUNK,LB,old,z,./images/CRUNKLB.png,,,,,,,,,,,,,,,,,,,,,,,,,,,,,,,,,,
,,,,,,,,,,,,,,,,,60b7f09a4462d1d1aa6bbcf6,20,2022-02-12_17h36.28.076,lexical_decision_task_DD_L3,2021.2.3,Linux x86_64,59.88023952,,,,,,,,,,,,1.254,1,,,,,,,,,,,,,,m,1,1.254,,,,,,,,0.113888889,-0.4,0,0,0,,0,22,22,43,1,MOSQUE,C,old,m,./images/MOSQUE.png,,,,,,,,,,,,,,,,,,,,,,,,,,,,,,,,,,
,,,,,,,,,,,,,,,,,60b7f09a4462d1d1aa6bbcf6,20,2022-02-12_17h36.28.076,lexical_decision_task_DD_L3,2021.2.3,Linux x86_64,59.88023952,,,,,,,,,,,,2.688,1,,,,,,,,,,,,,,z,1,2.688,,,,,,,,0.113888889,-0.4,0,0,0,,0,23,23,144,1,NAIRY,C,old,z,./images/NAIRY.png,,,,,,,,,,,,,,,,,,,,,,,,,,,,,,,,,,
,,,,,,,,,,,,,,,,,60b7f09a4462d1d1aa6bbcf6,20,2022-02-12_17h36.28.076,lexical_decision_task_DD_L3,2021.2.3,Linux x86_64,59.88023952,,,,,,,,,,,,0.977,1,,,,,,,,,,,,,,m,1,0.977,,,,,,,,0.113888889,-0.4,0,0,0,,0,24,24,34,1,CANYON,C,old,m,./images/CANYON.png,,,,,,,,,,,,,,,,,,,,,,,,,,,,,,,,,,
,,,,,,,,,,,,,,,,,60b7f09a4462d1d1aa6bbcf6,20,2022-02-12_17h36.28.076,lexical_decision_task_DD_L3,2021.2.3,Linux x86_64,59.88023952,,,,,,,,,,,,1.539,1,,,,,,,,,,,,,,z,1,1.539,,,,,,,,0.113888889,-0.4,0,0,0,,0,25,25,158,1,EGECT,LB,old,z,./images/EGECTLB.png,,,,,,,,,,,,,,,,,,,,,,,,,,,,,,,,,,
,,,,,,,,,,,,,,,,,60b7f09a4462d1d1aa6bbcf6,20,2022-02-12_17h36.28.076,lexical_decision_task_DD_L3,2021.2.3,Linux x86_64,59.88023952,,,,,,,,,,,,1.208,1,,,,,,,,,,,,,,m,1,1.208,,,,,,,,0.113888889,-0.4,0,0,0,,0,26,26,2,1,BEARD,HB,old,m,./images/BEARDHB.png,,,,,,,,,,,,,,,,,,,,,,,,,,,,,,,,,,
,,,,,,,,,,,,,,,,,60b7f09a4462d1d1aa6bbcf6,20,2022-02-12_17h36.28.076,lexical_decision_task_DD_L3,2021.2.3,Linux x86_64,59.88023952,,,,,,,,,,,,6.541,1,,,,,,,,,,,,,,m,1,6.541,,,,,,,,0.113888889,-0.4,0,0,0,,0,27,27,81,1,POODLE,LB,old,m,./images/POODLELB.png,,,,,,,,,,,,,,,,,,,,,,,,,,,,,,,,,,
,,,,,,,,,,,,,,,,,60b7f09a4462d1d1aa6bbcf6,20,2022-02-12_17h36.28.076,lexical_decision_task_DD_L3,2021.2.3,Linux x86_64,59.88023952,,,,,,,,,,,,2.239,1,,,,,,,,,,,,,,m,1,2.239,,,,,,,,0.113888889,-0.4,0,0,0,,0,28,28,60,1,TWINS,LB,old,m,./images/TWINSLB.png,,,,,,,,,,,,,,,,,,,,,,,,,,,,,,,,,,
,,,,,,,,,,,,,,,,,60b7f09a4462d1d1aa6bbcf6,20,2022-02-12_17h36.28.076,lexical_decision_task_DD_L3,2021.2.3,Linux x86_64,59.88023952,,,,,,,,,,,,2.792,1,,,,,,,,,,,,,,z,1,2.792,,,,,,,,0.113888889,-0.4,0,0,0,,0,29,29,117,1,STEEG,C,old,z,./images/STEEG.png,,,,,,,,,,,,,,,,,,,,,,,,,,,,,,,,,,
,,,,,,,,,,,,,,,,,60b7f09a4462d1d1aa6bbcf6,20,2022-02-12_17h36.28.076,lexical_decision_task_DD_L3,2021.2.3,Linux x86_64,59.88023952,,,,,,,,,,,,0.943,1,,,,,,,,,,,,,,m,1,0.943,,,,,,,,0.113888889,-0.4,0,0,0,,0,30,30,19,1,DOUGH,C,old,m,./images/DOUGH.png,,,,,,,,,,,,,,,,,,,,,,,,,,,,,,,,,,
,,,,,,,,,,,,,,,,,60b7f09a4462d1d1aa6bbcf6,20,2022-02-12_17h36.28.076,lexical_decision_task_DD_L3,2021.2.3,Linux x86_64,59.88023952,,,,,,,,,,,,4.212,1,,,,,,,,,,,,,,z,1,4.212,,,,,,,,0.113888889,-0.4,0,0,0,,0,31,31,131,1,NACES,LB,old,z,./images/NACESLB.png,,,,,,,,,,,,,,,,,,,,,,,,,,,,,,,,,,
,,,,,,,,,,,,,,,,,60b7f09a4462d1d1aa6bbcf6,20,2022-02-12_17h36.28.076,lexical_decision_task_DD_L3,2021.2.3,Linux x86_64,59.88023952,,,,,,,,,,,,2.596,1,,,,,,,,,,,,,,z,1,2.596,,,,,,,,0.113888889,-0.4,0,0,0,,0,32,32,112,1,MYING,HB,old,z,./images/MYINGHB.png,,,,,,,,,,,,,,,,,,,,,,,,,,,,,,,,,,
,,,,,,,,,,,,,,,,,60b7f09a4462d1d1aa6bbcf6,20,2022-02-12_17h36.28.076,lexical_decision_task_DD_L3,2021.2.3,Linux x86_64,59.88023952,,,,,,,,,,,,1.104,1,,,,,,,,,,,,,,m,1,1.104,,,,,,,,0.113888889,-0.4,0,0,0,,0,33,33,22,1,MELON,C,old,m,./images/MELON.png,,,,,,,,,,,,,,,,,,,,,,,,,,,,,,,,,,
,,,,,,,,,,,,,,,,,60b7f09a4462d1d1aa6bbcf6,20,2022-02-12_17h36.28.076,lexical_decision_task_DD_L3,2021.2.3,Linux x86_64,59.88023952,,,,,,,,,,,,2.575,1,,,,,,,,,,,,,,z,1,2.575,,,,,,,,0.113888889,-0.4,0,0,0,,0,34,34,129,1,PRANS,C,old,z,./images/PRANS.png,,,,,,,,,,,,,,,,,,,,,,,,,,,,,,,,,,
,,,,,,,,,,,,,,,,,60b7f09a4462d1d1aa6bbcf6,20,2022-02-12_17h36.28.076,lexical_decision_task_DD_L3,2021.2.3,Linux x86_64,59.88023952,,,,,,,,,,,,1.024,1,,,,,,,,,,,,,,m,1,1.024,,,,,,,,0.113888889,-0.4,0,0,0,,0,35,35,6,1,SQUARE,LB,old,m,./images/SQUARELB.png,,,,,,,,,,,,,,,,,,,,,,,,,,,,,,,,,,
,,,,,,,,,,,,,,,,,60b7f09a4462d1d1aa6bbcf6,20,2022-02-12_17h36.28.076,lexical_decision_task_DD_L3,2021.2.3,Linux x86_64,59.88023952,,,,,,,,,,,,2.076,1,,,,,,,,,,,,,,m,1,2.076,,,,,,,,0.113888889,-0.4,0,0,0,,0,36,36,4,1,MUSCLE,C,old,m,./images/MUSCLE.png,,,,,,,,,,,,,,,,,,,,,,,,,,,,,,,,,,
,,,,,,,,,,,,,,,,,60b7f09a4462d1d1aa6bbcf6,20,2022-02-12_17h36.28.076,lexical_decision_task_DD_L3,2021.2.3,Linux x86_64,59.88023952,,,,,,,,,,,,0.961,1,,,,,,,,,,,,,,z,1,0.961,,,,,,,,0.113888889,-0.4,0,0,0,,0,37,37,87,1,TRING,C,old,z,./images/TRING.png,,,,,,,,,,,,,,,,,,,,,,,,,,,,,,,,,,
,,,,,,,,,,,,,,,,,60b7f09a4462d1d1aa6bbcf6,20,2022-02-12_17h36.28.076,lexical_decision_task_DD_L3,2021.2.3,Linux x86_64,59.88023952,,,,,,,,,,,,2.041,1,,,,,,,,,,,,,,z,1,2.041,,,,,,,,0.113888889,-0.4,0,0,0,,0,38,38,115,1,MAWNS,HB,old,z,./images/MAWNSHB.png,,,,,,,,,,,,,,,,,,,,,,,,,,,,,,,,,,
,,,,,,,,,,,,,,,,,60b7f09a4462d1d1aa6bbcf6,20,2022-02-12_17h36.28.076,lexical_decision_task_DD_L3,2021.2.3,Linux x86_64,59.88023952,,,,,,,,,,,,2.464,1,,,,,,,,,,,,,,z,1,2.464,,,,,,,,0.113888889,-0.4,0,0,0,,0,39,39,109,1,BURGE,HB,old,z,./images/BURGEHB.png,,,,,,,,,,,,,,,,,,,,,,,,,,,,,,,,,,
,,,,,,,,,,,,,,,,,60b7f09a4462d1d1aa6bbcf6,20,2022-02-12_17h36.28.076,lexical_decision_task_DD_L3,2021.2.3,Linux x86_64,59.88023952,,,,,,,,,,,,1.076,1,,,,,,,,,,,,,,z,1,1.076,,,,,,,,0.113888889,-0.4,0,0,0,,0,40,40,95,1,HANTY,LB,old,z,./images/HANTYLB.png,,,,,,,,,,,,,,,,,,,,,,,,,,,,,,,,,,
,,,,,,,,,,,,,,,,,60b7f09a4462d1d1aa6bbcf6,20,2022-02-12_17h36.28.076,lexical_decision_task_DD_L3,2021.2.3,Linux x86_64,59.88023952,,,,,,,,,,,,2.944,1,,,,,,,,,,,,,,z,1,2.944,,,,,,,,0.113888889,-0.4,0,0,0,space,0,41,41,136,1,WERVE,HB,old,z,./images/WERVEHB.png,3.478,,,,,,,,,,,,,,,,,,,,,,,,,,,,,,,,,
,,,,,,,,,,,,,,,,,60b7f09a4462d1d1aa6bbcf6,20,2022-02-12_17h36.28.076,lexical_decision_task_DD_L3,2021.2.3,Linux x86_64,59.88023952,,,,,,,,,,,,1.093,1,,,,,,,,,,,,,,m,1,1.093,,,,,,,,0.113888889,-0.4,0,0,0,,0,42,42,79,1,CRUST,C,old,m,./images/CRUST.png,,,,,,,,,,,,,,,,,,,,,,,,,,,,,,,,,,
,,,,,,,,,,,,,,,,,60b7f09a4462d1d1aa6bbcf6,20,2022-02-12_17h36.28.076,lexical_decision_task_DD_L3,2021.2.3,Linux x86_64,59.88023952,,,,,,,,,,,,1.675,1,,,,,,,,,,,,,,z,1,1.675,,,,,,,,0.113888889,-0.4,0,0,0,,0,43,43,120,1,RINED,C,old,z,./images/RINED.png,,,,,,,,,,,,,,,,,,,,,,,,,,,,,,,,,,
,,,,,,,,,,,,,,,,,60b7f09a4462d1d1aa6bbcf6,20,2022-02-12_17h36.28.076,lexical_decision_task_DD_L3,2021.2.3,Linux x86_64,59.88023952,,,,,,,,,,,,0.942,1,,,,,,,,,,,,,,m,1,0.942,,,,,,,,0.113888889,-0.4,0,0,0,,0,44,44,35,1,PEACH,HB,old,m,./images/PEACHHB.png,,,,,,,,,,,,,,,,,,,,,,,,,,,,,,,,,,
,,,,,,,,,,,,,,,,,60b7f09a4462d1d1aa6bbcf6,20,2022-02-12_17h36.28.076,lexical_decision_task_DD_L3,2021.2.3,Linux x86_64,59.88023952,,,,,,,,,,,,0.845,1,,,,,,,,,,,,,,m,1,0.845,,,,,,,,0.113888889,-0.4,0,0,0,,0,45,45,18,1,JAGUAR,LB,old,m,./images/JAGUARLB.png,,,,,,,,,,,,,,,,,,,,,,,,,,,,,,,,,,
,,,,,,,,,,,,,,,,,60b7f09a4462d1d1aa6bbcf6,20,2022-02-12_17h36.28.076,lexical_decision_task_DD_L3,2021.2.3,Linux x86_64,59.88023952,,,,,,,,,,,,1.26,1,,,,,,,,,,,,,,m,1,1.26,,,,,,,,0.113888889,-0.4,0,0,0,,0,46,46,28,1,FALCON,C,old,m,./images/FALCON.png,,,,,,,,,,,,,,,,,,,,,,,,,,,,,,,,,,
,,,,,,,,,,,,,,,,,60b7f09a4462d1d1aa6bbcf6,20,2022-02-12_17h36.28.076,lexical_decision_task_DD_L3,2021.2.3,Linux x86_64,59.88023952,,,,,,,,,,,,2.442,1,,,,,,,,,,,,,,z,1,2.442,,,,,,,,0.113888889,-0.4,0,0,0,,0,47,47,162,1,LEICH,C,old,z,./images/LEICH.png,,,,,,,,,,,,,,,,,,,,,,,,,,,,,,,,,,
,,,,,,,,,,,,,,,,,60b7f09a4462d1d1aa6bbcf6,20,2022-02-12_17h36.28.076,lexical_decision_task_DD_L3,2021.2.3,Linux x86_64,59.88023952,,,,,,,,,,,,0.84,1,,,,,,,,,,,,,,m,1,0.84,,,,,,,,0.113888889,-0.4,0,0,0,,0,48,48,82,1,SUNSET,C,old,m,./images/SUNSET.png,,,,,,,,,,,,,,,,,,,,,,,,,,,,,,,,,,
,,,,,,,,,,,,,,,,,60b7f09a4462d1d1aa6bbcf6,20,2022-02-12_17h36.28.076,lexical_decision_task_DD_L3,2021.2.3,Linux x86_64,59.88023952,,,,,,,,,,,,1.234,1,,,,,,,,,,,,,,m,1,1.234,,,,,,,,0.113888889,-0.4,0,0,0,,0,49,49,76,1,INFANT,C,old,m,./images/INFANT.png,,,,,,,,,,,,,,,,,,,,,,,,,,,,,,,,,,
,,,,,,,,,,,,,,,,,60b7f09a4462d1d1aa6bbcf6,20,2022-02-12_17h36.28.076,lexical_decision_task_DD_L3,2021.2.3,Linux x86_64,59.88023952,,,,,,,,,,,,1.592,1,,,,,,,,,,,,,,z,1,1.592,,,,,,,,0.113888889,-0.4,0,0,0,,0,50,50,137,1,JOOST,LB,old,z,./images/JOOSTLB.png,,,,,,,,,,,,,,,,,,,,,,,,,,,,,,,,,,
,,,,,,,,,,,,,,,,,60b7f09a4462d1d1aa6bbcf6,20,2022-02-12_17h36.28.076,lexical_decision_task_DD_L3,2021.2.3,Linux x86_64,59.88023952,,,,,,,,,,,,1.361,1,,,,,,,,,,,,,,z,1,1.361,,,,,,,,0.113888889,-0.4,0,0,0,,0,51,51,153,1,CLUPS,C,old,z,./images/CLUPS.png,,,,,,,,,,,,,,,,,,,,,,,,,,,,,,,,,,
,,,,,,,,,,,,,,,,,60b7f09a4462d1d1aa6bbcf6,20,2022-02-12_17h36.28.076,lexical_decision_task_DD_L3,2021.2.3,Linux x86_64,59.88023952,,,,,,,,,,,,1.324,1,,,,,,,,,,,,,,z,1,1.324,,,,,,,,0.113888889,-0.4,0,0,0,,0,52,52,114,1,RIKES,C,old,z,./images/RIKES.png,,,,,,,,,,,,,,,,,,,,,,,,,,,,,,,,,,
,,,,,,,,,,,,,,,,,60b7f09a4462d1d1aa6bbcf6,20,2022-02-12_17h36.28.076,lexical_decision_task_DD_L3,2021.2.3,Linux x86_64,59.88023952,,,,,,,,,,,,0.927,1,,,,,,,,,,,,,,m,1,0.927,,,,,,,,0.113888889,-0.4,0,0,0,,0,53,53,68,1,TORCH,HB,old,m,./images/TORCHHB.png,,,,,,,,,,,,,,,,,,,,,,,,,,,,,,,,,,
,,,,,,,,,,,,,,,,,60b7f09a4462d1d1aa6bbcf6,20,2022-02-12_17h36.28.076,lexical_decision_task_DD_L3,2021.2.3,Linux x86_64,59.88023952,,,,,,,,,,,,1.459,1,,,,,,,,,,,,,,z,1,1.459,,,,,,,,0.113888889,-0.4,0,0,0,,0,54,54,132,1,SCIFF,C,old,z,./images/SCIFF.png,,,,,,,,,,,,,,,,,,,,,,,,,,,,,,,,,,
,,,,,,,,,,,,,,,,,60b7f09a4462d1d1aa6bbcf6,20,2022-02-12_17h36.28.076,lexical_decision_task_DD_L3,2021.2.3,Linux x86_64,59.88023952,,,,,,,,,,,,0.956,1,,,,,,,,,,,,,,m,1,0.956,,,,,,,,0.113888889,-0.4,0,0,0,,0,55,55,25,1,WRIST,C,old,m,./images/WRIST.png,,,,,,,,,,,,,,,,,,,,,,,,,,,,,,,,,,
,,,,,,,,,,,,,,,,,60b7f09a4462d1d1aa6bbcf6,20,2022-02-12_17h36.28.076,lexical_decision_task_DD_L3,2021.2.3,Linux x86_64,59.88023952,,,,,,,,,,,,1.041,1,,,,,,,,,,,,,,m,1,1.041,,,,,,,,0.113888889,-0.4,0,0,0,,0,56,56,24,1,SCREW,LB,old,m,./images/SCREWLB.png,,,,,,,,,,,,,,,,,,,,,,,,,,,,,,,,,,
,,,,,,,,,,,,,,,,,60b7f09a4462d1d1aa6bbcf6,20,2022-02-12_17h36.28.076,lexical_decision_task_DD_L3,2021.2.3,Linux x86_64,59.88023952,,,,,,,,,,,,1.624,1,,,,,,,,,,,,,,z,1,1.624,,,,,,,,0.113888889,-0.4,0,0,0,,0,57,57,92,1,PAIMS,LB,old,z,./images/PAIMSLB.png,,,,,,,,,,,,,,,,,,,,,,,,,,,,,,,,,,
,,,,,,,,,,,,,,,,,60b7f09a4462d1d1aa6bbcf6,20,2022-02-12_17h36.28.076,lexical_decision_task_DD_L3,2021.2.3,Linux x86_64,59.88023952,,,,,,,,,,,,2.743,1,,,,,,,,,,,,,,z,1,2.743,,,,,,,,0.113888889,-0.4,0,0,0,,0,58,58,128,1,GRIFT,LB,old,z,./images/GRIFTLB.png,,,,,,,,,,,,,,,,,,,,,,,,,,,,,,,,,,
,,,,,,,,,,,,,,,,,60b7f09a4462d1d1aa6bbcf6,20,2022-02-12_17h36.28.076,lexical_decision_task_DD_L3,2021.2.3,Linux x86_64,59.88023952,,,,,,,,,,,,1.839,1,,,,,,,,,,,,,,z,1,1.839,,,,,,,,0.113888889,-0.4,0,0,0,,0,59,59,165,1,TROWN,C,old,z,./images/TROWN.png,,,,,,,,,,,,,,,,,,,,,,,,,,,,,,,,,,
,,,,,,,,,,,,,,,,,60b7f09a4462d1d1aa6bbcf6,20,2022-02-12_17h36.28.076,lexical_decision_task_DD_L3,2021.2.3,Linux x86_64,59.88023952,,,,,,,,,,,,3.108,1,,,,,,,,,,,,,,m,1,3.108,,,,,,,,0.113888889,-0.4,0,0,0,,0,60,60,37,1,BIRTH,C,old,m,./images/BIRTH.png,,,,,,,,,,,,,,,,,,,,,,,,,,,,,,,,,,
,,,,,,,,,,,,,,,,,60b7f09a4462d1d1aa6bbcf6,20,2022-02-12_17h36.28.076,lexical_decision_task_DD_L3,2021.2.3,Linux x86_64,59.88023952,,,,,,,,,,,,0.841,1,,,,,,,,,,,,,,m,1,0.841,,,,,,,,0.113888889,-0.4,0,0,0,,0,61,61,51,1,ONION,LB,old,m,./images/ONIONLB.png,,,,,,,,,,,,,,,,,,,,,,,,,,,,,,,,,,
,,,,,,,,,,,,,,,,,60b7f09a4462d1d1aa6bbcf6,20,2022-02-12_17h36.28.076,lexical_decision_task_DD_L3,2021.2.3,Linux x86_64,59.88023952,,,,,,,,,,,,1.772,1,,,,,,,,,,,,,,z,1,1.772,,,,,,,,0.113888889,-0.4,0,0,0,,0,62,62,106,1,CLUMS,HB,old,z,./images/CLUMSHB.png,,,,,,,,,,,,,,,,,,,,,,,,,,,,,,,,,,
,,,,,,,,,,,,,,,,,60b7f09a4462d1d1aa6bbcf6,20,2022-02-12_17h36.28.076,lexical_decision_task_DD_L3,2021.2.3,Linux x86_64,59.88023952,,,,,,,,,,,,1.145,1,,,,,,,,,,,,,,m,1,1.145,,,,,,,,0.113888889,-0.4,0,0,0,,0,63,63,73,1,SNACK,C,old,m,./images/SNACK.png,,,,,,,,,,,,,,,,,,,,,,,,,,,,,,,,,,
,,,,,,,,,,,,,,,,,60b7f09a4462d1d1aa6bbcf6,20,2022-02-12_17h36.28.076,lexical_decision_task_DD_L3,2021.2.3,Linux x86_64,59.88023952,,,,,,,,,,,,0.739,1,,,,,,,,,,,,,,m,1,0.739,,,,,,,,0.113888889,-0.4,0,0,0,,0,64,64,57,1,MOOSE,LB,old,m,./images/MOOSELB.png,,,,,,,,,,,,,,,,,,,,,,,,,,,,,,,,,,
,,,,,,,,,,,,,,,,,60b7f09a4462d1d1aa6bbcf6,20,2022-02-12_17h36.28.076,lexical_decision_task_DD_L3,2021.2.3,Linux x86_64,59.88023952,,,,,,,,,,,,0.827,1,,,,,,,,,,,,,,z,1,0.827,,,,,,,,0.113888889,-0.4,0,0,0,,0,65,65,104,1,GITTY,LB,old,z,./images/GITTYLB.png,,,,,,,,,,,,,,,,,,,,,,,,,,,,,,,,,,
,,,,,,,,,,,,,,,,,60b7f09a4462d1d1aa6bbcf6,20,2022-02-12_17h36.28.076,lexical_decision_task_DD_L3,2021.2.3,Linux x86_64,59.88023952,,,,,,,,,,,,0.856,1,,,,,,,,,,,,,,z,1,0.856,,,,,,,,0.113888889,-0.4,0,0,0,,0,66,66,123,1,SEDGE,C,old,z,./images/SEDGE.png,,,,,,,,,,,,,,,,,,,,,,,,,,,,,,,,,,
,,,,,,,,,,,,,,,,,60b7f09a4462d1d1aa6bbcf6,20,2022-02-12_17h36.28.076,lexical_decision_task_DD_L3,2021.2.3,Linux x86_64,59.88023952,,,,,,,,,,,,0.777,1,,,,,,,,,,,,,,m,1,0.777,,,,,,,,0.113888889,-0.4,0,0,0,,0,67,67,40,1,SWING,C,old,m,./images/SWING.png,,,,,,,,,,,,,,,,,,,,,,,,,,,,,,,,,,
,,,,,,,,,,,,,,,,,60b7f09a4462d1d1aa6bbcf6,20,2022-02-12_17h36.28.076,lexical_decision_task_DD_L3,2021.2.3,Linux x86_64,59.88023952,,,,,,,,,,,,1.159,1,,,,,,,,,,,,,,z,1,1.159,,,,,,,,0.113888889,-0.4,0,0,0,,0,68,68,91,1,SHENS,HB,old,z,./images/SHENSHB.png,,,,,,,,,,,,,,,,,,,,,,,,,,,,,,,,,,
,,,,,,,,,,,,,,,,,60b7f09a4462d1d1aa6bbcf6,20,2022-02-12_17h36.28.076,lexical_decision_task_DD_L3,2021.2.3,Linux x86_64,59.88023952,,,,,,,,,,,,1.71,1,,,,,,,,,,,,,,z,1,1.71,,,,,,,,0.113888889,-0.4,0,0,0,,0,69,69,127,1,NINDY,HB,old,z,./images/NINDYHB.png,,,,,,,,,,,,,,,,,,,,,,,,,,,,,,,,,,
,,,,,,,,,,,,,,,,,60b7f09a4462d1d1aa6bbcf6,20,2022-02-12_17h36.28.076,lexical_decision_task_DD_L3,2021.2.3,Linux x86_64,59.88023952,,,,,,,,,,,,0.808,1,,,,,,,,,,,,,,z,1,0.808,,,,,,,,0.113888889,-0.4,0,0,0,,0,70,70,122,1,BLOOT,LB,old,z,./images/BLOOTLB.png,,,,,,,,,,,,,,,,,,,,,,,,,,,,,,,,,,
,,,,,,,,,,,,,,,,,60b7f09a4462d1d1aa6bbcf6,20,2022-02-12_17h36.28.076,lexical_decision_task_DD_L3,2021.2.3,Linux x86_64,59.88023952,,,,,,,,,,,,1.298,1,,,,,,,,,,,,,,m,1,1.298,,,,,,,,0.113888889,-0.4,0,0,0,,0,71,71,83,1,JUNGLE,HB,old,m,./images/JUNGLEHB.png,,,,,,,,,,,,,,,,,,,,,,,,,,,,,,,,,,
,,,,,,,,,,,,,,,,,60b7f09a4462d1d1aa6bbcf6,20,2022-02-12_17h36.28.076,lexical_decision_task_DD_L3,2021.2.3,Linux x86_64,59.88023952,,,,,,,,,,,,0.877,1,,,,,,,,,,,,,,z,1,0.877,,,,,,,,0.113888889,-0.4,0,0,0,,0,72,72,98,1,BAMPS,LB,old,z,./images/BAMPSLB.png,,,,,,,,,,,,,,,,,,,,,,,,,,,,,,,,,,
,,,,,,,,,,,,,,,,,60b7f09a4462d1d1aa6bbcf6,20,2022-02-12_17h36.28.076,lexical_decision_task_DD_L3,2021.2.3,Linux x86_64,59.88023952,,,,,,,,,,,,1.308,1,,,,,,,,,,,,,,z,1,1.308,,,,,,,,0.113888889,-0.4,0,0,0,,0,73,73,101,1,GLEET,LB,old,z,./images/GLEETLB.png,,,,,,,,,,,,,,,,,,,,,,,,,,,,,,,,,,
,,,,,,,,,,,,,,,,,60b7f09a4462d1d1aa6bbcf6,20,2022-02-12_17h36.28.076,lexical_decision_task_DD_L3,2021.2.3,Linux x86_64,59.88023952,,,,,,,,,,,,1.407,1,,,,,,,,,,,,,,m,1,1.407,,,,,,,,0.113888889,-0.4,0,0,0,,0,74,74,33,1,MAGGOT,LB,old,m,./images/MAGGOTLB.png,,,,,,,,,,,,,,,,,,,,,,,,,,,,,,,,,,
,,,,,,,,,,,,,,,,,60b7f09a4462d1d1aa6bbcf6,20,2022-02-12_17h36.28.076,lexical_decision_task_DD_L3,2021.2.3,Linux x86_64,59.88023952,,,,,,,,,,,,1.159,1,,,,,,,,,,,,,,m,1,1.159,,,,,,,,0.113888889,-0.4,0,0,0,,0,75,75,26,1,SMOKER,HB,old,m,./images/SMOKERHB.png,,,,,,,,,,,,,,,,,,,,,,,,,,,,,,,,,,
,,,,,,,,,,,,,,,,,60b7f09a4462d1d1aa6bbcf6,20,2022-02-12_17h36.28.076,lexical_decision_task_DD_L3,2021.2.3,Linux x86_64,59.88023952,,,,,,,,,,,,1.009,1,,,,,,,,,,,,,,m,1,1.009,,,,,,,,0.113888889,-0.4,0,0,0,,0,76,76,29,1,CRUMB,HB,old,m,./images/CRUMBHB.png,,,,,,,,,,,,,,,,,,,,,,,,,,,,,,,,,,
,,,,,,,,,,,,,,,,,60b7f09a4462d1d1aa6bbcf6,20,2022-02-12_17h36.28.076,lexical_decision_task_DD_L3,2021.2.3,Linux x86_64,59.88023952,,,,,,,,,,,,1.176,1,,,,,,,,,,,,,,m,1,1.176,,,,,,,,0.113888889,-0.4,0,0,0,,0,77,77,38,1,LADDER,HB,old,m,./images/LADDERHB.png,,,,,,,,,,,,,,,,,,,,,,,,,,,,,,,,,,
,,,,,,,,,,,,,,,,,60b7f09a4462d1d1aa6bbcf6,20,2022-02-12_17h36.28.076,lexical_decision_task_DD_L3,2021.2.3,Linux x86_64,59.88023952,,,,,,,,,,,,1.275,1,,,,,,,,,,,,,,m,1,1.275,,,,,,,,0.113888889,-0.4,0,0,0,,0,78,78,8,1,TULIP,HB,old,m,./images/TULIPHB.png,,,,,,,,,,,,,,,,,,,,,,,,,,,,,,,,,,
,,,,,,,,,,,,,,,,,60b7f09a4462d1d1aa6bbcf6,20,2022-02-12_17h36.28.076,lexical_decision_task_DD_L3,2021.2.3,Linux x86_64,59.88023952,,,,,,,,,,,,0.886,1,,,,,,,,,,,,,,z,1,0.886,,,,,,,,0.113888889,-0.4,0,0,0,,0,79,79,155,1,CANGY,LB,old,z,./images/CANGYLB.png,,,,,,,,,,,,,,,,,,,,,,,,,,,,,,,,,,
,,,,,,,,,,,,,,,,,60b7f09a4462d1d1aa6bbcf6,20,2022-02-12_17h36.28.076,lexical_decision_task_DD_L3,2021.2.3,Linux x86_64,59.88023952,,,,,,,,,,,,1.26,1,,,,,,,,,,,,,,m,1,1.26,,,,,,,,0.113888889,-0.4,0,0,0,,0,80,80,30,1,STORM,LB,old,m,./images/STORMLB.png,,,,,,,,,,,,,,,,,,,,,,,,,,,,,,,,,,
,,,,,,,,,,,,,,,,,60b7f09a4462d1d1aa6bbcf6,20,2022-02-12_17h36.28.076,lexical_decision_task_DD_L3,2021.2.3,Linux x86_64,59.88023952,,,,,,,,,,,,0.876,1,,,,,,,,,,,,,,m,1,0.876,,,,,,,,0.113888889,-0.4,0,0,0,,0,81,81,70,1,URINE,C,old,m,./images/URINE.png,,,,,,,,,,,,,,,,,,,,,,,,,,,,,,,,,,
,,,,,,,,,,,,,,,,,60b7f09a4462d1d1aa6bbcf6,20,2022-02-12_17h36.28.076,lexical_decision_task_DD_L3,2021.2.3,Linux x86_64,59.88023952,,,,,,,,,,,,1.151,1,,,,,,,,,,,,,,z,1,1.151,,,,,,,,0.113888889,-0.4,0,0,0,,0,82,82,86,1,AIFED,LB,old,z,./images/AIFEDLB.png,,,,,,,,,,,,,,,,,,,,,,,,,,,,,,,,,,
,,,,,,,,,,,,,,,,,60b7f09a4462d1d1aa6bbcf6,20,2022-02-12_17h36.28.076,lexical_decision_task_DD_L3,2021.2.3,Linux x86_64,59.88023952,,,,,,,,,,,,0.706,1,,,,,,,,,,,,,,m,1,0.706,,,,,,,,0.113888889,-0.4,0,0,0,space,0,83,83,0,1,TOMATO,LB,old,m,./images/TOMATOLB.png,1.462,,,,,,,,,,,,,,,,,,,,,,,,,,,,,,,,,
,,,,,,,,,,,,,,,,,60b7f09a4462d1d1aa6bbcf6,20,2022-02-12_17h36.28.076,lexical_decision_task_DD_L3,2021.2.3,Linux x86_64,59.88023952,,,,,,,,,,,,1.006,1,,,,,,,,,,,,,,m,1,1.006,,,,,,,,0.113888889,-0.4,0,0,0,,0,84,84,69,1,COOKER,LB,old,m,./images/COOKERLB.png,,,,,,,,,,,,,,,,,,,,,,,,,,,,,,,,,,
,,,,,,,,,,,,,,,,,60b7f09a4462d1d1aa6bbcf6,20,2022-02-12_17h36.28.076,lexical_decision_task_DD_L3,2021.2.3,Linux x86_64,59.88023952,,,,,,,,,,,,1.026,1,,,,,,,,,,,,,,m,1,1.026,,,,,,,,0.113888889,-0.4,0,0,0,,0,85,85,74,1,CEMENT,HB,old,m,./images/CEMENTHB.png,,,,,,,,,,,,,,,,,,,,,,,,,,,,,,,,,,
,,,,,,,,,,,,,,,,,60b7f09a4462d1d1aa6bbcf6,20,2022-02-12_17h36.28.076,lexical_decision_task_DD_L3,2021.2.3,Linux x86_64,59.88023952,,,,,,,,,,,,0.608,1,,,,,,,,,,,,,,m,1,0.608,,,,,,,,0.113888889,-0.4,0,0,0,,0,86,86,67,1,SAILOR,C,old,m,./images/SAILOR.png,,,,,,,,,,,,,,,,,,,,,,,,,,,,,,,,,,
,,,,,,,,,,,,,,,,,60b7f09a4462d1d1aa6bbcf6,20,2022-02-12_17h36.28.076,lexical_decision_task_DD_L3,2021.2.3,Linux x86_64,59.88023952,,,,,,,,,,,,0.656,1,,,,,,,,,,,,,,m,1,0.656,,,,,,,,0.113888889,-0.4,0,0,0,,0,87,87,21,1,KIDNEY,LB,old,m,./images/KIDNEYLB.png,,,,,,,,,,,,,,,,,,,,,,,,,,,,,,,,,,
,,,,,,,,,,,,,,,,,60b7f09a4462d1d1aa6bbcf6,20,2022-02-12_17h36.28.076,lexical_decision_task_DD_L3,2021.2.3,Linux x86_64,59.88023952,,,,,,,,,,,,0.529,1,,,,,,,,,,,,,,m,1,0.529,,,,,,,,0.113888889,-0.4,0,0,0,,0,88,88,46,1,PEARL,C,old,m,./images/PEARL.png,,,,,,,,,,,,,,,,,,,,,,,,,,,,,,,,,,
,,,,,,,,,,,,,,,,,60b7f09a4462d1d1aa6bbcf6,20,2022-02-12_17h36.28.076,lexical_decision_task_DD_L3,2021.2.3,Linux x86_64,59.88023952,,,,,,,,,,,,0.617,1,,,,,,,,,,,,,,m,1,0.617,,,,,,,,0.113888889,-0.4,0,0,0,,0,89,89,72,1,NOOSE,LB,old,m,./images/NOOSELB.png,,,,,,,,,,,,,,,,,,,,,,,,,,,,,,,,,,
,,,,,,,,,,,,,,,,,60b7f09a4462d1d1aa6bbcf6,20,2022-02-12_17h36.28.076,lexical_decision_task_DD_L3,2021.2.3,Linux x86_64,59.88023952,,,,,,,,,,,,0.772,1,,,,,,,,,,,,,,z,1,0.772,,,,,,,,0.113888889,-0.4,0,0,0,,0,90,90,89,1,DRIEK,LB,old,z,./images/DRIEKLB.png,,,,,,,,,,,,,,,,,,,,,,,,,,,,,,,,,,
,,,,,,,,,,,,,,,,,60b7f09a4462d1d1aa6bbcf6,20,2022-02-12_17h36.28.076,lexical_decision_task_DD_L3,2021.2.3,Linux x86_64,59.88023952,,,,,,,,,,,,1.377,1,,,,,,,,,,,,,,z,1,1.377,,,,,,,,0.113888889,-0.4,0,0,0,,0,91,91,100,1,DRIBS,HB,old,z,./images/DRIBSHB.png,,,,,,,,,,,,,,,,,,,,,,,,,,,,,,,,,,
,,,,,,,,,,,,,,,,,60b7f09a4462d1d1aa6bbcf6,20,2022-02-12_17h36.28.076,lexical_decision_task_DD_L3,2021.2.3,Linux x86_64,59.88023952,,,,,,,,,,,,0.688,1,,,,,,,,,,,,,,m,1,0.688,,,,,,,,0.113888889,-0.4,0,0,0,,0,92,92,36,1,THROAT,LB,old,m,./images/THROATLB.png,,,,,,,,,,,,,,,,,,,,,,,,,,,,,,,,,,
,,,,,,,,,,,,,,,,,60b7f09a4462d1d1aa6bbcf6,20,2022-02-12_17h36.28.076,lexical_decision_task_DD_L3,2021.2.3,Linux x86_64,59.88023952,,,,,,,,,,,,1.593,1,,,,,,,,,,,,,,z,1,1.593,,,,,,,,0.113888889,-0.4,0,0,0,,0,93,93,157,1,INLER,HB,old,z,./images/INLERHB.png,,,,,,,,,,,,,,,,,,,,,,,,,,,,,,,,,,
,,,,,,,,,,,,,,,,,60b7f09a4462d1d1aa6bbcf6,20,2022-02-12_17h36.28.076,lexical_decision_task_DD_L3,2021.2.3,Linux x86_64,59.88023952,,,,,,,,,,,,0.727,1,,,,,,,,,,,,,,m,1,0.727,,,,,,,,0.113888889,-0.4,0,0,0,,0,94,94,1,1,PLANK,C,old,m,./images/PLANK.png,,,,,,,,,,,,,,,,,,,,,,,,,,,,,,,,,,
,,,,,,,,,,,,,,,,,60b7f09a4462d1d1aa6bbcf6,20,2022-02-12_17h36.28.076,lexical_decision_task_DD_L3,2021.2.3,Linux x86_64,59.88023952,,,,,,,,,,,,0.961,1,,,,,,,,,,,,,,z,1,0.961,,,,,,,,0.113888889,-0.4,0,0,0,,0,95,95,140,1,DOVET,LB,old,z,./images/DOVETLB.png,,,,,,,,,,,,,,,,,,,,,,,,,,,,,,,,,,
,,,,,,,,,,,,,,,,,60b7f09a4462d1d1aa6bbcf6,20,2022-02-12_17h36.28.076,lexical_decision_task_DD_L3,2021.2.3,Linux x86_64,59.88023952,,,,,,,,,,,,0.769,1,,,,,,,,,,,,,,m,1,0.769,,,,,,,,0.113888889,-0.4,0,0,0,,0,96,96,41,1,STRING,HB,old,m,./images/STRINGHB.png,,,,,,,,,,,,,,,,,,,,,,,,,,,,,,,,,,
,,,,,,,,,,,,,,,,,60b7f09a4462d1d1aa6bbcf6,20,2022-02-12_17h36.28.076,lexical_decision_task_DD_L3,2021.2.3,Linux x86_64,59.88023952,,,,,,,,,,,,0.725,1,,,,,,,,,,,,,,m,1,0.725,,,,,,,,0.113888889,-0.4,0,0,0,,0,97,97,78,1,LITTER,LB,old,m,./images/LITTERLB.png,,,,,,,,,,,,,,,,,,,,,,,,,,,,,,,,,,
,,,,,,,,,,,,,,,,,60b7f09a4462d1d1aa6bbcf6,20,2022-02-12_17h36.28.076,lexical_decision_task_DD_L3,2021.2.3,Linux x86_64,59.88023952,,,,,,,,,,,,0.823,1,,,,,,,,,,,,,,m,1,0.823,,,,,,,,0.113888889,-0.4,0,0,0,,0,98,98,16,1,PENCE,C,old,m,./images/PENCE.png,,,,,,,,,,,,,,,,,,,,,,,,,,,,,,,,,,
,,,,,,,,,,,,,,,,,60b7f09a4462d1d1aa6bbcf6,20,2022-02-12_17h36.28.076,lexical_decision_task_DD_L3,2021.2.3,Linux x86_64,59.88023952,,,,,,,,,,,,0.995,1,,,,,,,,,,,,,,z,1,0.995,,,,,,,,0.113888889,-0.4,0,0,0,,0,99,99,125,1,MOOKY,LB,old,z,./images/MOOKYLB.png,,,,,,,,,,,,,,,,,,,,,,,,,,,,,,,,,,
,,,,,,,,,,,,,,,,,60b7f09a4462d1d1aa6bbcf6,20,2022-02-12_17h36.28.076,lexical_decision_task_DD_L3,2021.2.3,Linux x86_64,59.88023952,,,,,,,,,,,,0.875,1,,,,,,,,,,,,,,m,1,0.875,,,,,,,,0.113888889,-0.4,0,0,0,,0,100,100,44,1,LIZARD,HB,old,m,./images/LIZARDHB.png,,,,,,,,,,,,,,,,,,,,,,,,,,,,,,,,,,
,,,,,,,,,,,,,,,,,60b7f09a4462d1d1aa6bbcf6,20,2022-02-12_17h36.28.076,lexical_decision_task_DD_L3,2021.2.3,Linux x86_64,59.88023952,,,,,,,,,,,,0.864,1,,,,,,,,,,,,,,z,1,0.864,,,,,,,,0.113888889,-0.4,0,0,0,,0,101,101,149,1,VEASE,LB,old,z,./images/VEASELB.png,,,,,,,,,,,,,,,,,,,,,,,,,,,,,,,,,,
,,,,,,,,,,,,,,,,,60b7f09a4462d1d1aa6bbcf6,20,2022-02-12_17h36.28.076,lexical_decision_task_DD_L3,2021.2.3,Linux x86_64,59.88023952,,,,,,,,,,,,0.759,1,,,,,,,,,,,,,,m,1,0.759,,,,,,,,0.113888889,-0.4,0,0,0,,0,102,102,13,1,MOTOR,C,old,m,./images/MOTOR.png,,,,,,,,,,,,,,,,,,,,,,,,,,,,,,,,,,
,,,,,,,,,,,,,,,,,60b7f09a4462d1d1aa6bbcf6,20,2022-02-12_17h36.28.076,lexical_decision_task_DD_L3,2021.2.3,Linux x86_64,59.88023952,,,,,,,,,,,,0.759,1,,,,,,,,,,,,,,z,1,0.759,,,,,,,,0.113888889,-0.4,0,0,0,,0,103,103,96,1,KEAMS,C,old,z,./images/KEAMS.png,,,,,,,,,,,,,,,,,,,,,,,,,,,,,,,,,,
,,,,,,,,,,,,,,,,,60b7f09a4462d1d1aa6bbcf6,20,2022-02-12_17h36.28.076,lexical_decision_task_DD_L3,2021.2.3,Linux x86_64,59.88023952,,,,,,,,,,,,0.743,1,,,,,,,,,,,,,,m,1,0.743,,,,,,,,0.113888889,-0.4,0,0,0,,0,104,104,77,1,COUCH,HB,old,m,./images/COUCHHB.png,,,,,,,,,,,,,,,,,,,,,,,,,,,,,,,,,,
,,,,,,,,,,,,,,,,,60b7f09a4462d1d1aa6bbcf6,20,2022-02-12_17h36.28.076,lexical_decision_task_DD_L3,2021.2.3,Linux x86_64,59.88023952,,,,,,,,,,,,1.056,1,,,,,,,,,,,,,,z,1,1.056,,,,,,,,0.113888889,-0.4,0,0,0,,0,105,105,90,1,NEAST,C,old,z,./images/NEAST.png,,,,,,,,,,,,,,,,,,,,,,,,,,,,,,,,,,
,,,,,,,,,,,,,,,,,60b7f09a4462d1d1aa6bbcf6,20,2022-02-12_17h36.28.076,lexical_decision_task_DD_L3,2021.2.3,Linux x86_64,59.88023952,,,,,,,,,,,,1.175,1,,,,,,,,,,,,,,z,1,1.175,,,,,,,,0.113888889,-0.4,0,0,0,,0,106,106,99,1,BACKY,C,old,z,./images/BACKY.png,,,,,,,,,,,,,,,,,,,,,,,,,,,,,,,,,,
,,,,,,,,,,,,,,,,,60b7f09a4462d1d1aa6bbcf6,20,2022-02-12_17h36.28.076,lexical_decision_task_DD_L3,2021.2.3,Linux x86_64,59.88023952,,,,,,,,,,,,1.443,1,,,,,,,,,,,,,,m,1,1.443,,,,,,,,0.113888889,-0.4,0,0,0,,0,107,107,20,1,CRADLE,HB,old,m,./images/CRADLEHB.png,,,,,,,,,,,,,,,,,,,,,,,,,,,,,,,,,,
,,,,,,,,,,,,,,,,,60b7f09a4462d1d1aa6bbcf6,20,2022-02-12_17h36.28.076,lexical_decision_task_DD_L3,2021.2.3,Linux x86_64,59.88023952,,,,,,,,,,,,0.892,1,,,,,,,,,,,,,,z,1,0.892,,,,,,,,0.113888889,-0.4,0,0,0,,0,108,108,146,1,MOOST,LB,old,z,./images/MOOSTLB.png,,,,,,,,,,,,,,,,,,,,,,,,,,,,,,,,,,
,,,,,,,,,,,,,,,,,60b7f09a4462d1d1aa6bbcf6,20,2022-02-12_17h36.28.076,lexical_decision_task_DD_L3,2021.2.3,Linux x86_64,59.88023952,,,,,,,,,,,,1.444,1,,,,,,,,,,,,,,z,1,1.444,,,,,,,,0.113888889,-0.4,0,0,0,,0,109,109,147,1,ZOLES,C,old,z,./images/ZOLES.png,,,,,,,,,,,,,,,,,,,,,,,,,,,,,,,,,,
,,,,,,,,,,,,,,,,,60b7f09a4462d1d1aa6bbcf6,20,2022-02-12_17h36.28.076,lexical_decision_task_DD_L3,2021.2.3,Linux x86_64,59.88023952,,,,,,,,,,,,1.972,1,,,,,,,,,,,,,,m,1,1.972,,,,,,,,0.113888889,-0.4,0,0,0,,0,110,110,39,1,SHELF,LB,old,m,./images/SHELFLB.png,,,,,,,,,,,,,,,,,,,,,,,,,,,,,,,,,,
,,,,,,,,,,,,,,,,,60b7f09a4462d1d1aa6bbcf6,20,2022-02-12_17h36.28.076,lexical_decision_task_DD_L3,2021.2.3,Linux x86_64,59.88023952,,,,,,,,,,,,0.692,1,,,,,,,,,,,,,,m,1,0.692,,,,,,,,0.113888889,-0.4,0,0,0,,0,111,111,66,1,SWEAT,LB,old,m,./images/SWEATLB.png,,,,,,,,,,,,,,,,,,,,,,,,,,,,,,,,,,
,,,,,,,,,,,,,,,,,60b7f09a4462d1d1aa6bbcf6,20,2022-02-12_17h36.28.076,lexical_decision_task_DD_L3,2021.2.3,Linux x86_64,59.88023952,,,,,,,,,,,,1.759,1,,,,,,,,,,,,,,z,1,1.759,,,,,,,,0.113888889,-0.4,0,0,0,,0,112,112,97,1,CHIDS,HB,old,z,./images/CHIDSHB.png,,,,,,,,,,,,,,,,,,,,,,,,,,,,,,,,,,
,,,,,,,,,,,,,,,,,60b7f09a4462d1d1aa6bbcf6,20,2022-02-12_17h36.28.076,lexical_decision_task_DD_L3,2021.2.3,Linux x86_64,59.88023952,,,,,,,,,,,,0.926,1,,,,,,,,,,,,,,z,1,0.926,,,,,,,,0.113888889,-0.4,0,0,0,,0,113,113,108,1,GRUET,C,old,z,./images/GRUET.png,,,,,,,,,,,,,,,,,,,,,,,,,,,,,,,,,,
,,,,,,,,,,,,,,,,,60b7f09a4462d1d1aa6bbcf6,20,2022-02-12_17h36.28.076,lexical_decision_task_DD_L3,2021.2.3,Linux x86_64,59.88023952,,,,,,,,,,,,1.392,1,,,,,,,,,,,,,,z,1,1.392,,,,,,,,0.113888889,-0.4,0,0,0,,0,114,114,142,1,PLASK,HB,old,z,./images/PLASKHB.png,,,,,,,,,,,,,,,,,,,,,,,,,,,,,,,,,,
,,,,,,,,,,,,,,,,,60b7f09a4462d1d1aa6bbcf6,20,2022-02-12_17h36.28.076,lexical_decision_task_DD_L3,2021.2.3,Linux x86_64,59.88023952,,,,,,,,,,,,0.945,1,,,,,,,,,,,,,,m,1,0.945,,,,,,,,0.113888889,-0.4,0,0,0,,0,115,115,23,1,WALRUS,HB,old,m,./images/WALRUSHB.png,,,,,,,,,,,,,,,,,,,,,,,,,,,,,,,,,,
,,,,,,,,,,,,,,,,,60b7f09a4462d1d1aa6bbcf6,20,2022-02-12_17h36.28.076,lexical_decision_task_DD_L3,2021.2.3,Linux x86_64,59.88023952,,,,,,,,,,,,2.122,1,,,,,,,,,,,,,,z,1,2.122,,,,,,,,0.113888889,-0.4,0,0,0,,0,116,116,161,1,BLAPS,LB,old,z,./images/BLAPSLB.png,,,,,,,,,,,,,,,,,,,,,,,,,,,,,,,,,,
,,,,,,,,,,,,,,,,,60b7f09a4462d1d1aa6bbcf6,20,2022-02-12_17h36.28.076,lexical_decision_task_DD_L3,2021.2.3,Linux x86_64,59.88023952,,,,,,,,,,,,2.303,1,,,,,,,,,,,,,,z,1,2.303,,,,,,,,0.113888889,-0.4,0,0,0,,0,117,117,94,1,BLANS,HB,old,z,./images/BLANSHB.png,,,,,,,,,,,,,,,,,,,,,,,,,,,,,,,,,,
,,,,,,,,,,,,,,,,,60b7f09a4462d1d1aa6bbcf6,20,2022-02-12_17h36.28.076,lexical_decision_task_DD_L3,2021.2.3,Linux x86_64,59.88023952,,,,,,,,,,,,0.767,1,,,,,,,,,,,,,,m,1,0.767,,,,,,,,0.113888889,-0.4,0,0,0,,0,118,118,52,1,BANNER,C,old,m,./images/BANNER.png,,,,,,,,,,,,,,,,,,,,,,,,,,,,,,,,,,
,,,,,,,,,,,,,,,,,60b7f09a4462d1d1aa6bbcf6,20,2022-02-12_17h36.28.076,lexical_decision_task_DD_L3,2021.2.3,Linux x86_64,59.88023952,,,,,,,,,,,,1.142,1,,,,,,,,,,,,,,m,1,1.142,,,,,,,,0.113888889,-0.4,0,0,0,,0,119,119,11,1,BONNET,HB,old,m,./images/BONNETHB.png,,,,,,,,,,,,,,,,,,,,,,,,,,,,,,,,,,
,,,,,,,,,,,,,,,,,60b7f09a4462d1d1aa6bbcf6,20,2022-02-12_17h36.28.076,lexical_decision_task_DD_L3,2021.2.3,Linux x86_64,59.88023952,,,,,,,,,,,,1.261,1,,,,,,,,,,,,,,z,1,1.261,,,,,,,,0.113888889,-0.4,0,0,0,,0,120,120,107,1,FASKS,LB,old,z,./images/FASKSLB.png,,,,,,,,,,,,,,,,,,,,,,,,,,,,,,,,,,
,,,,,,,,,,,,,,,,,60b7f09a4462d1d1aa6bbcf6,20,2022-02-12_17h36.28.076,lexical_decision_task_DD_L3,2021.2.3,Linux x86_64,59.88023952,,,,,,,,,,,,0.988,1,,,,,,,,,,,,,,m,1,0.988,,,,,,,,0.113888889,-0.4,0,0,0,,0,121,121,7,1,PAINT,C,old,m,./images/PAINT.png,,,,,,,,,,,,,,,,,,,,,,,,,,,,,,,,,,
,,,,,,,,,,,,,,,,,60b7f09a4462d1d1aa6bbcf6,20,2022-02-12_17h36.28.076,lexical_decision_task_DD_L3,2021.2.3,Linux x86_64,59.88023952,,,,,,,,,,,,2.789,1,,,,,,,,,,,,,,z,1,2.789,,,,,,,,0.113888889,-0.4,0,0,0,,0,122,122,166,1,SHORY,HB,old,z,./images/SHORYHB.png,,,,,,,,,,,,,,,,,,,,,,,,,,,,,,,,,,
,,,,,,,,,,,,,,,,,60b7f09a4462d1d1aa6bbcf6,20,2022-02-12_17h36.28.076,lexical_decision_task_DD_L3,2021.2.3,Linux x86_64,59.88023952,,,,,,,,,,,,1.144,1,,,,,,,,,,,,,,m,1,1.144,,,,,,,,0.113888889,-0.4,0,0,0,,0,123,123,61,1,CANDLE,C,old,m,./images/CANDLE.png,,,,,,,,,,,,,,,,,,,,,,,,,,,,,,,,,,
,,,,,,,,,,,,,,,,,60b7f09a4462d1d1aa6bbcf6,20,2022-02-12_17h36.28.076,lexical_decision_task_DD_L3,2021.2.3,Linux x86_64,59.88023952,,,,,,,,,,,,1.409,1,,,,,,,,,,,,,,z,1,1.409,,,,,,,,0.113888889,-0.4,0,0,0,,0,124,124,119,1,PAFER,LB,old,z,./images/PAFERLB.png,,,,,,,,,,,,,,,,,,,,,,,,,,,,,,,,,,
,,,,,,,,,,,,,,,,,60b7f09a4462d1d1aa6bbcf6,20,2022-02-12_17h36.28.076,lexical_decision_task_DD_L3,2021.2.3,Linux x86_64,59.88023952,,,,,,,,,,,,1.259,1,,,,,,,,,,,,,,z,1,1.259,,,,,,,,0.113888889,-0.4,0,0,0,space,0,125,125,164,1,SGREW,LB,old,z,./images/SGREWLB.png,1.536,,,,,,,,,,,,,,,,,,,,,,,,,,,,,,,,,
,,,,,,,,,,,,,,,,,60b7f09a4462d1d1aa6bbcf6,20,2022-02-12_17h36.28.076,lexical_decision_task_DD_L3,2021.2.3,Linux x86_64,59.88023952,,,,,,,,,,,,0.874,1,,,,,,,,,,,,,,m,1,0.874,,,,,,,,0.113888889,-0.4,0,0,0,,0,126,126,75,1,GRAIN,LB,old,m,./images/GRAINLB.png,,,,,,,,,,,,,,,,,,,,,,,,,,,,,,,,,,
,,,,,,,,,,,,,,,,,60b7f09a4462d1d1aa6bbcf6,20,2022-02-12_17h36.28.076,lexical_decision_task_DD_L3,2021.2.3,Linux x86_64,59.88023952,,,,,,,,,,,,1.509,1,,,,,,,,,,,,,,z,1,1.509,,,,,,,,0.113888889,-0.4,0,0,0,,0,127,127,121,1,CEERS,HB,old,z,./images/CEERSHB.png,,,,,,,,,,,,,,,,,,,,,,,,,,,,,,,,,,
,,,,,,,,,,,,,,,,,60b7f09a4462d1d1aa6bbcf6,20,2022-02-12_17h36.28.076,lexical_decision_task_DD_L3,2021.2.3,Linux x86_64,59.88023952,,,,,,,,,,,,2.158,1,,,,,,,,,,,,,,z,1,2.158,,,,,,,,0.113888889,-0.4,0,0,0,,0,128,128,152,1,FRAIN,LB,old,z,./images/FRAINLB.png,,,,,,,,,,,,,,,,,,,,,,,,,,,,,,,,,,
,,,,,,,,,,,,,,,,,60b7f09a4462d1d1aa6bbcf6,20,2022-02-12_17h36.28.076,lexical_decision_task_DD_L3,2021.2.3,Linux x86_64,59.88023952,,,,,,,,,,,,1.176,1,,,,,,,,,,,,,,z,1,1.176,,,,,,,,0.113888889,-0.4,0,0,0,,0,129,129,143,1,MONGS,LB,old,z,./images/MONGSLB.png,,,,,,,,,,,,,,,,,,,,,,,,,,,,,,,,,,
,,,,,,,,,,,,,,,,,60b7f09a4462d1d1aa6bbcf6,20,2022-02-12_17h36.28.076,lexical_decision_task_DD_L3,2021.2.3,Linux x86_64,59.88023952,,,,,,,,,,,,1.009,1,,,,,,,,,,,,,,z,1,1.009,,,,,,,,0.113888889,-0.4,0,0,0,,0,130,130,103,1,FLORT,HB,old,z,./images/FLORTHB.png,,,,,,,,,,,,,,,,,,,,,,,,,,,,,,,,,,
,,,,,,,,,,,,,,,,,60b7f09a4462d1d1aa6bbcf6,20,2022-02-12_17h36.28.076,lexical_decision_task_DD_L3,2021.2.3,Linux x86_64,59.88023952,,,,,,,,,,,,2.142,1,,,,,,,,,,,,,,m,1,2.142,,,,,,,,0.113888889,-0.4,0,0,0,,0,131,131,14,1,PICKLE,HB,old,m,./images/PICKLEHB.png,,,,,,,,,,,,,,,,,,,,,,,,,,,,,,,,,,
,,,,,,,,,,,,,,,,,60b7f09a4462d1d1aa6bbcf6,20,2022-02-12_17h36.28.076,lexical_decision_task_DD_L3,2021.2.3,Linux x86_64,59.88023952,,,,,,,,,,,,0.961,1,,,,,,,,,,,,,,m,1,0.961,,,,,,,,0.113888889,-0.4,0,0,0,,0,132,132,27,1,ATTIC,LB,old,m,./images/ATTICLB.png,,,,,,,,,,,,,,,,,,,,,,,,,,,,,,,,,,
,,,,,,,,,,,,,,,,,60b7f09a4462d1d1aa6bbcf6,20,2022-02-12_17h36.28.076,lexical_decision_task_DD_L3,2021.2.3,Linux x86_64,59.88023952,,,,,,,,,,,,0.625,1,,,,,,,,,,,,,,m,1,0.625,,,,,,,,0.113888889,-0.4,0,0,0,,0,133,133,3,1,FINGER,LB,old,m,./images/FINGERLB.png,,,,,,,,,,,,,,,,,,,,,,,,,,,,,,,,,,
,,,,,,,,,,,,,,,,,60b7f09a4462d1d1aa6bbcf6,20,2022-02-12_17h36.28.076,lexical_decision_task_DD_L3,2021.2.3,Linux x86_64,59.88023952,,,,,,,,,,,,0.776,1,,,,,,,,,,,,,,m,1,0.776,,,,,,,,0.113888889,-0.4,0,0,0,,0,134,134,64,1,JELLY,C,old,m,./images/JELLY.png,,,,,,,,,,,,,,,,,,,,,,,,,,,,,,,,,,
,,,,,,,,,,,,,,,,,60b7f09a4462d1d1aa6bbcf6,20,2022-02-12_17h36.28.076,lexical_decision_task_DD_L3,2021.2.3,Linux x86_64,59.88023952,,,,,,,,,,,,2.176,1,,,,,,,,,,,,,,z,1,2.176,,,,,,,,0.113888889,-0.4,0,0,0,,0,135,135,135,1,JOODY,C,old,z,./images/JOODY.png,,,,,,,,,,,,,,,,,,,,,,,,,,,,,,,,,,
,,,,,,,,,,,,,,,,,60b7f09a4462d1d1aa6bbcf6,20,2022-02-12_17h36.28.076,lexical_decision_task_DD_L3,2021.2.3,Linux x86_64,59.88023952,,,,,,,,,,,,2.046,1,,,,,,,,,,,,,,m,1,2.046,,,,,,,,0.113888889,-0.4,0,0,0,,0,136,136,58,1,BABOON,C,old,m,./images/BABOON.png,,,,,,,,,,,,,,,,,,,,,,,,,,,,,,,,,,
,,,,,,,,,,,,,,,,,60b7f09a4462d1d1aa6bbcf6,20,2022-02-12_17h36.28.076,lexical_decision_task_DD_L3,2021.2.3,Linux x86_64,59.88023952,,,,,,,,,,,,3.104,1,,,,,,,,,,,,,,z,1,3.104,,,,,,,,0.113888889,-0.4,0,0,0,,0,137,137,160,1,VEETS,HB,old,z,./images/VEETSHB.png,,,,,,,,,,,,,,,,,,,,,,,,,,,,,,,,,,
,,,,,,,,,,,,,,,,,60b7f09a4462d1d1aa6bbcf6,20,2022-02-12_17h36.28.076,lexical_decision_task_DD_L3,2021.2.3,Linux x86_64,59.88023952,,,,,,,,,,,,3.242,1,,,,,,,,,,,,,,m,1,3.242,,,,,,,,0.113888889,-0.4,0,0,0,,0,138,138,32,1,BARREL,HB,old,m,./images/BARRELHB.png,,,,,,,,,,,,,,,,,,,,,,,,,,,,,,,,,,
,,,,,,,,,,,,,,,,,60b7f09a4462d1d1aa6bbcf6,20,2022-02-12_17h36.28.076,lexical_decision_task_DD_L3,2021.2.3,Linux x86_64,59.88023952,,,,,,,,,,,,1.774,1,,,,,,,,,,,,,,z,1,1.774,,,,,,,,0.113888889,-0.4,0,0,0,,0,139,139,151,1,TINKY,HB,old,z,./images/TINKYHB.png,,,,,,,,,,,,,,,,,,,,,,,,,,,,,,,,,,
,,,,,,,,,,,,,,,,,60b7f09a4462d1d1aa6bbcf6,20,2022-02-12_17h36.28.076,lexical_decision_task_DD_L3,2021.2.3,Linux x86_64,59.88023952,,,,,,,,,,,,3.905,1,,,,,,,,,,,,,,z,1,3.905,,,,,,,,0.113888889,-0.4,0,0,0,,0,140,140,156,1,HIXES,C,old,z,./images/HIXES.png,,,,,,,,,,,,,,,,,,,,,,,,,,,,,,,,,,
,,,,,,,,,,,,,,,,,60b7f09a4462d1d1aa6bbcf6,20,2022-02-12_17h36.28.076,lexical_decision_task_DD_L3,2021.2.3,Linux x86_64,59.88023952,,,,,,,,,,,,0.942,1,,,,,,,,,,,,,,m,1,0.942,,,,,,,,0.113888889,-0.4,0,0,0,,0,141,141,63,1,MIRROR,LB,old,m,./images/MIRRORLB.png,,,,,,,,,,,,,,,,,,,,,,,,,,,,,,,,,,
,,,,,,,,,,,,,,,,,60b7f09a4462d1d1aa6bbcf6,20,2022-02-12_17h36.28.076,lexical_decision_task_DD_L3,2021.2.3,Linux x86_64,59.88023952,,,,,,,,,,,,1.323,1,,,,,,,,,,,,,,z,1,1.323,,,,,,,,0.113888889,-0.4,0,0,0,,0,142,142,133,1,POWDY,HB,old,z,./images/POWDYHB.png,,,,,,,,,,,,,,,,,,,,,,,,,,,,,,,,,,
,,,,,,,,,,,,,,,,,60b7f09a4462d1d1aa6bbcf6,20,2022-02-12_17h36.28.076,lexical_decision_task_DD_L3,2021.2.3,Linux x86_64,59.88023952,,,,,,,,,,,,1.839,1,,,,,,,,,,,,,,z,1,1.839,,,,,,,,0.113888889,-0.4,0,0,0,,0,143,143,124,1,TUNCH,HB,old,z,./images/TUNCHHB.png,,,,,,,,,,,,,,,,,,,,,,,,,,,,,,,,,,
,,,,,,,,,,,,,,,,,60b7f09a4462d1d1aa6bbcf6,20,2022-02-12_17h36.28.076,lexical_decision_task_DD_L3,2021.2.3,Linux x86_64,59.88023952,,,,,,,,,,,,0.776,1,,,,,,,,,,,,,,m,1,0.776,,,,,,,,0.113888889,-0.4,0,0,0,,0,144,144,48,1,SPORT,LB,old,m,./images/SPORTLB.png,,,,,,,,,,,,,,,,,,,,,,,,,,,,,,,,,,
,,,,,,,,,,,,,,,,,60b7f09a4462d1d1aa6bbcf6,20,2022-02-12_17h36.28.076,lexical_decision_task_DD_L3,2021.2.3,Linux x86_64,59.88023952,,,,,,,,,,,,0.776,1,,,,,,,,,,,,,,m,1,0.776,,,,,,,,0.113888889,-0.4,0,0,0,,0,145,145,5,1,PASTA,HB,old,m,./images/PASTAHB.png,,,,,,,,,,,,,,,,,,,,,,,,,,,,,,,,,,
,,,,,,,,,,,,,,,,,60b7f09a4462d1d1aa6bbcf6,20,2022-02-12_17h36.28.076,lexical_decision_task_DD_L3,2021.2.3,Linux x86_64,59.88023952,,,,,,,,,,,,1.289,1,,,,,,,,,,,,,,z,1,1.289,,,,,,,,0.113888889,-0.4,0,0,0,,0,146,146,139,1,BLEAR,HB,old,z,./images/BLEARHB.png,,,,,,,,,,,,,,,,,,,,,,,,,,,,,,,,,,
,,,,,,,,,,,,,,,,,60b7f09a4462d1d1aa6bbcf6,20,2022-02-12_17h36.28.076,lexical_decision_task_DD_L3,2021.2.3,Linux x86_64,59.88023952,,,,,,,,,,,,1.355,1,,,,,,,,,,,,,,m,1,1.355,,,,,,,,0.113888889,-0.4,0,0,0,,0,147,147,50,1,MALLET,HB,old,m,./images/MALLETHB.png,,,,,,,,,,,,,,,,,,,,,,,,,,,,,,,,,,
,,,,,,,,,,,,,,,,,60b7f09a4462d1d1aa6bbcf6,20,2022-02-12_17h36.28.076,lexical_decision_task_DD_L3,2021.2.3,Linux x86_64,59.88023952,,,,,,,,,,,,0.743,1,,,,,,,,,,,,,,m,1,0.743,,,,,,,,0.113888889,-0.4,0,0,0,,0,148,148,42,1,FOLDER,LB,old,m,./images/FOLDERLB.png,,,,,,,,,,,,,,,,,,,,,,,,,,,,,,,,,,
,,,,,,,,,,,,,,,,,60b7f09a4462d1d1aa6bbcf6,20,2022-02-12_17h36.28.076,lexical_decision_task_DD_L3,2021.2.3,Linux x86_64,59.88023952,,,,,,,,,,,,1.041,1,,,,,,,,,,,,,,m,1,1.041,,,,,,,,0.113888889,-0.4,0,0,0,,0,149,149,65,1,FARMER,HB,old,m,./images/FARMERHB.png,,,,,,,,,,,,,,,,,,,,,,,,,,,,,,,,,,
,,,,,,,,,,,,,,,,,60b7f09a4462d1d1aa6bbcf6,20,2022-02-12_17h36.28.076,lexical_decision_task_DD_L3,2021.2.3,Linux x86_64,59.88023952,,,,,,,,,,,,1.458,1,,,,,,,,,,,,,,z,1,1.458,,,,,,,,0.113888889,-0.4,0,0,0,,0,150,150,130,1,CRILL,HB,old,z,./images/CRILLHB.png,,,,,,,,,,,,,,,,,,,,,,,,,,,,,,,,,,
,,,,,,,,,,,,,,,,,60b7f09a4462d1d1aa6bbcf6,20,2022-02-12_17h36.28.076,lexical_decision_task_DD_L3,2021.2.3,Linux x86_64,59.88023952,,,,,,,,,,,,0.975,1,,,,,,,,,,,,,,m,1,0.975,,,,,,,,0.113888889,-0.4,0,0,0,,0,151,151,31,1,QUILL,C,old,m,./images/QUILL.png,,,,,,,,,,,,,,,,,,,,,,,,,,,,,,,,,,
,,,,,,,,,,,,,,,,,60b7f09a4462d1d1aa6bbcf6,20,2022-02-12_17h36.28.076,lexical_decision_task_DD_L3,2021.2.3,Linux x86_64,59.88023952,,,,,,,,,,,,2.692,1,,,,,,,,,,,,,,z,1,2.692,,,,,,,,0.113888889,-0.4,0,0,0,,0,152,152,154,1,THINT,HB,old,z,./images/THINTHB.png,,,,,,,,,,,,,,,,,,,,,,,,,,,,,,,,,,
,,,,,,,,,,,,,,,,,60b7f09a4462d1d1aa6bbcf6,20,2022-02-12_17h36.28.076,lexical_decision_task_DD_L3,2021.2.3,Linux x86_64,59.88023952,,,,,,,,,,,,0.922,1,,,,,,,,,,,,,,z,1,0.922,,,,,,,,0.113888889,-0.4,0,0,0,,0,153,153,150,1,NOOLS,C,old,z,./images/NOOLS.png,,,,,,,,,,,,,,,,,,,,,,,,,,,,,,,,,,
,,,,,,,,,,,,,,,,,60b7f09a4462d1d1aa6bbcf6,20,2022-02-12_17h36.28.076,lexical_decision_task_DD_L3,2021.2.3,Linux x86_64,59.88023952,,,,,,,,,,,,1.159,1,,,,,,,,,,,,,,z,1,1.159,,,,,,,,0.113888889,-0.4,0,0,0,,0,154,154,141,1,PLEET,C,old,z,./images/PLEET.png,,,,,,,,,,,,,,,,,,,,,,,,,,,,,,,,,,
,,,,,,,,,,,,,,,,,60b7f09a4462d1d1aa6bbcf6,20,2022-02-12_17h36.28.076,lexical_decision_task_DD_L3,2021.2.3,Linux x86_64,59.88023952,,,,,,,,,,,,0.973,1,,,,,,,,,,,,,,m,1,0.973,,,,,,,,0.113888889,-0.4,0,0,0,,0,155,155,9,1,RHINO,LB,old,m,./images/RHINOLB.png,,,,,,,,,,,,,,,,,,,,,,,,,,,,,,,,,,
,,,,,,,,,,,,,,,,,60b7f09a4462d1d1aa6bbcf6,20,2022-02-12_17h36.28.076,lexical_decision_task_DD_L3,2021.2.3,Linux x86_64,59.88023952,,,,,,,,,,,,0.808,1,,,,,,,,,,,,,,z,1,0.808,,,,,,,,0.113888889,-0.4,0,0,0,,0,156,156,138,1,PLICE,C,old,z,./images/PLICE.png,,,,,,,,,,,,,,,,,,,,,,,,,,,,,,,,,,
,,,,,,,,,,,,,,,,,60b7f09a4462d1d1aa6bbcf6,20,2022-02-12_17h36.28.076,lexical_decision_task_DD_L3,2021.2.3,Linux x86_64,59.88023952,,,,,,,,,,,,0.876,1,,,,,,,,,,,,,,m,1,0.876,,,,,,,,0.113888889,-0.4,0,0,0,,0,157,157,55,1,MUFFIN,C,old,m,./images/MUFFIN.png,,,,,,,,,,,,,,,,,,,,,,,,,,,,,,,,,,
,,,,,,,,,,,,,,,,,60b7f09a4462d1d1aa6bbcf6,20,2022-02-12_17h36.28.076,lexical_decision_task_DD_L3,2021.2.3,Linux x86_64,59.88023952,,,,,,,,,,,,2.372,1,,,,,,,,,,,,,,z,1,2.372,,,,,,,,0.113888889,-0.4,0,0,0,,0,158,158,88,1,GLUSH,HB,old,z,./images/GLUSHHB.png,,,,,,,,,,,,,,,,,,,,,,,,,,,,,,,,,,
,,,,,,,,,,,,,,,,,60b7f09a4462d1d1aa6bbcf6,20,2022-02-12_17h36.28.076,lexical_decision_task_DD_L3,2021.2.3,Linux x86_64,59.88023952,,,,,,,,,,,,0.843,1,,,,,,,,,,,,,,m,1,0.843,,,,,,,,0.113888889,-0.4,0,0,0,,0,159,159,15,1,GREASE,LB,old,m,./images/GREASELB.png,,,,,,,,,,,,,,,,,,,,,,,,,,,,,,,,,,
,,,,,,,,,,,,,,,,,60b7f09a4462d1d1aa6bbcf6,20,2022-02-12_17h36.28.076,lexical_decision_task_DD_L3,2021.2.3,Linux x86_64,59.88023952,,,,,,,,,,,,1.372,1,,,,,,,,,,,,,,m,1,1.372,,,,,,,,0.113888889,-0.4,0,0,0,,0,160,160,54,1,TRIPOD,LB,old,m,./images/TRIPODLB.png,,,,,,,,,,,,,,,,,,,,,,,,,,,,,,,,,,
,,,,,,,,,,,,,,,,,60b7f09a4462d1d1aa6bbcf6,20,2022-02-12_17h36.28.076,lexical_decision_task_DD_L3,2021.2.3,Linux x86_64,59.88023952,,,,,,,,,,,,1.125,1,,,,,,,,,,,,,,m,1,1.125,,,,,,,,0.113888889,-0.4,0,0,0,,0,161,161,71,1,PIMPLE,HB,old,m,./images/PIMPLEHB.png,,,,,,,,,,,,,,,,,,,,,,,,,,,,,,,,,,
,,,,,,,,,,,,,,,,,60b7f09a4462d1d1aa6bbcf6,20,2022-02-12_17h36.28.076,lexical_decision_task_DD_L3,2021.2.3,Linux x86_64,59.88023952,,,,,,,,,,,,0.94,1,,,,,,,,,,,,,,z,1,0.94,,,,,,,,0.113888889,-0.4,0,0,0,,0,162,162,159,1,CUDDY,C,old,z,./images/CUDDY.png,,,,,,,,,,,,,,,,,,,,,,,,,,,,,,,,,,
,,,,,,,,,,,,,,,,,60b7f09a4462d1d1aa6bbcf6,20,2022-02-12_17h36.28.076,lexical_decision_task_DD_L3,2021.2.3,Linux x86_64,59.88023952,,,,,,,,,,,,1.091,1,,,,,,,,,,,,,,z,1,1.091,,,,,,,,0.113888889,-0.4,0,0,0,,0,163,163,126,1,GUELS,C,old,z,./images/GUELS.png,,,,,,,,,,,,,,,,,,,,,,,,,,,,,,,,,,
,,,,,,,,,,,,,,,,,60b7f09a4462d1d1aa6bbcf6,20,2022-02-12_17h36.28.076,lexical_decision_task_DD_L3,2021.2.3,Linux x86_64,59.88023952,,,,,,,,,,,,6.476,1,,,,,,,,,,,,,,m,1,6.476,,,,,,,,0.113888889,-0.4,0,0,0,,0,164,164,10,1,BELLY,C,old,m,./images/BELLY.png,,,,,,,,,,,,,,,,,,,,,,,,,,,,,,,,,,
,,,,,,,,,,,,,,,,,60b7f09a4462d1d1aa6bbcf6,20,2022-02-12_17h36.28.076,lexical_decision_task_DD_L3,2021.2.3,Linux x86_64,59.88023952,,,,,,,,,,,,1.358,1,,,,,,,,,,,,,,m,1,1.358,,,,,,,,0.113888889,-0.4,0,0,0,,0,165,165,47,1,BERRY,HB,old,m,./images/BERRYHB.png,,,,,,,,,,,,,,,,,,,,,,,,,,,,,,,,,,
,,,,,,,,,,,,,,,,,60b7f09a4462d1d1aa6bbcf6,20,2022-02-12_17h36.28.076,lexical_decision_task_DD_L3,2021.2.3,Linux x86_64,59.88023952,,,,,,,,,,,,1.476,1,,,,,,,,,,,,,,z,1,1.476,,,,,,,,0.113888889,-0.4,0,0,0,,0,166,166,105,1,MOKER,C,old,z,./images/MOKER.png,,,,,,,,,,,,,,,,,,,,,,,,,,,,,,,,,,
,,,,,,,,,,,,,,,,,60b7f09a4462d1d1aa6bbcf6,20,2022-02-12_17h36.28.076,lexical_decision_task_DD_L3,2021.2.3,Linux x86_64,59.88023952,,,,,,,,,,,,1.322,1,,,,,,,,,,,,,,z,1,1.322,,,,,,,,0.113888889,-0.4,0,0,0,,0,167,167,148,1,JOMS,HB,old,z,./images/JOMSHB.png,,,,,,,,,,,,,,,,,,,,,,,,,,,,,,,,,,
,,,,,,,,,,,,,,,,,60b7f09a4462d1d1aa6bbcf6,20,2022-02-12_17h36.28.076,lexical_decision_task_DD_L3,2021.2.3,Linux x86_64,59.88023952,,,,,,,,,,,,,,,,,,,,,,,,,,,,,,,,,,,,,,,,,,,,,,,,,How likely will it be that you will recognize the words presented slighly blurred on a scale of 0 (not likely) to 100 (most likely)?,,,,,0.016666667,-0.409259259,1,0,0,jol_adv,5,10.372,0,0,0,1,1,,,,,,,,,,,,,,,,,,,,
,,,,,,,,,,,,,,,,,60b7f09a4462d1d1aa6bbcf6,20,2022-02-12_17h36.28.076,lexical_decision_task_DD_L3,2021.2.3,Linux x86_64,59.88023952,,,,,,,,,,,,,,,,,,,,,,,,,,,,,,,,,,,,,,,,,,,,,,,,,How likely will it be that you will recognize the words presented clearly on a scale of 0 (not likely) to 100 (most likely)?,,,,,,,,,,,6,11.01,0,1,1,0,1,,,,,,,,,,,,,,,,,,,,
,,,,,,,,,,,,,,,,,60b7f09a4462d1d1aa6bbcf6,20,2022-02-12_17h36.28.076,lexical_decision_task_DD_L3,2021.2.3,Linux x86_64,59.88023952,,,,,,,,,,,,,,,,,,,,,,,,,,,,,,,,,,,,,,,,,,,,,,,,,How likely will it be that you will recognize the words presented very blurred on a scale of 0 (not likely) to 100 (most likely)?,,,,,,,,,,,3,7.298,0,2,2,2,1,,,,,,,,,,,,,,,,,,,,
,-0.035185185,-0.387962963,1,0,0,instr_done_button,,,,,,1,test,"In the next phase you will be presented with the words from the the first phase. Your job is to decide whether you remember seeing the word or not. If you remember seeing the word press ""old"" or type ""m"". If you do not remember seeing the word press ""new"" or type ""z"". Please press the space bar or click on continue to begin. ",,,60b7f09a4462d1d1aa6bbcf6,20,2022-02-12_17h36.28.076,lexical_decision_task_DD_L3,2021.2.3,Linux x86_64,59.88023952,,,,,,,,,,,,,,,,,,,,,,,,,,,,,,,,,,,,,,,,,,,,,,,,,,,,,,,,,,,,,,,,,,,0,0,0,0,1,,,,,,,,,,,,,,,
,0.016666667,-0.407407407,1,0,0,instr_done_button,,,,,,1,test,"In the next phase you will be presented with the words from the the first phase. Your job is to decide whether you remember seeing the word or not. If you remember seeing the word press ""old"" or type ""m"". If you do not remember seeing the word press ""new"" or type ""z"". Please press the space bar or click on continue to begin. ",,,60b7f09a4462d1d1aa6bbcf6,20,2022-02-12_17h36.28.076,lexical_decision_task_DD_L3,2021.2.3,Linux x86_64,59.88023952,,,,,,,,,,,,,,,,,,,,,,,,,,,,,,,,,,,,,,,,,,,,,,,,,,,,,,,,,,,,,,,,,,,1,0,1,0,1,,,,,,,,,,,,,,,
space,0.016666667,-0.407407407,0,0,0,,,,,,,1,test,"In the next phase you will be presented with the words from the the first phase. Your job is to decide whether you remember seeing the word or not. If you remember seeing the word press ""old"" or type ""m"". If you do not remember seeing the word press ""new"" or type ""z"". Please press the space bar or click on continue to begin. ",,,60b7f09a4462d1d1aa6bbcf6,20,2022-02-12_17h36.28.076,lexical_decision_task_DD_L3,2021.2.3,Linux x86_64,59.88023952,0.742,,,,,,,,,,,,,,,,,,,,,,,,,,,,,,,,,,,,,,,,,,,,,,,,,,,,,,,,,,,,,,,,,,2,0,2,0,1,,,,,,,,,,,,,,,
space,-0.066666667,-0.102777778,0,0,0,,,,,,,1,test,"In the next phase you will be presented with the words from the the first phase. Your job is to decide whether you remember seeing the word or not. If you remember seeing the word press ""old"" or type ""m"". If you do not remember seeing the word press ""new"" or type ""z"". Please press the space bar or click on continue to begin. ",,,60b7f09a4462d1d1aa6bbcf6,20,2022-02-12_17h36.28.076,lexical_decision_task_DD_L3,2021.2.3,Linux x86_64,59.88023952,2.048,,,,,,,,,,,,,,,,,,,,,,,,,,,,,,,,,,,,,,,,,,,,,,,,,,,,,,,,,,,,,,,,,,3,0,3,0,1,,,,,,,,,,,,,,,
space,-0.066666667,-0.102777778,0,0,0,,,,,,,1,test,"In the next phase you will be presented with the words from the the first phase. Your job is to decide whether you remember seeing the word or not. If you remember seeing the word press ""old"" or type ""m"". If you do not remember seeing the word press ""new"" or type ""z"". Please press the space bar or click on continue to begin. ",,,60b7f09a4462d1d1aa6bbcf6,20,2022-02-12_17h36.28.076,lexical_decision_task_DD_L3,2021.2.3,Linux x86_64,59.88023952,0.99,,,,,,,,,,,,,,,,,,,,,,,,,,,,,,,,,,,,,,,,,,,,,,,,,,,,,,,,,,,,,,,,,,4,0,4,0,1,,,,,,,,,,,,,,,
,,,,,,,,,,,,,,,,,60b7f09a4462d1d1aa6bbcf6,20,2022-02-12_17h36.28.076,lexical_decision_task_DD_L3,2021.2.3,Linux x86_64,59.88023952,,,,,,,,,,,,3.622,1,,,,,,,,,,,,,,,,,,,,,,,,-0.066666667,-0.102777778,0,0,0,,,,,,,LADDER,HB,m,m,./images/LADDERHB.png,,,,,,,,,,,,,,,,,,,,m,1,3.622,,,,,,,,0,0,0,38,1
,,,,,,,,,,,,,,,,,60b7f09a4462d1d1aa6bbcf6,20,2022-02-12_17h36.28.076,lexical_decision_task_DD_L3,2021.2.3,Linux x86_64,59.88023952,,,,,,,,,,,,3.343,0,,,,,,,,,,,,,,,,,,,,,,,,-0.066666667,-0.102777778,0,0,0,,,,,,,COOKER,LB,m,m,./images/COOKERLB.png,,,,,,,,,,,,,,,,,,,,z,0,3.343,,,,,,,,0,1,1,69,1
,,,,,,,,,,,,,,,,,60b7f09a4462d1d1aa6bbcf6,20,2022-02-12_17h36.28.076,lexical_decision_task_DD_L3,2021.2.3,Linux x86_64,59.88023952,,,,,,,,,,,,1.905,1,,,,,,,,,,,,,,,,,,,,,,,,-0.066666667,-0.102777778,0,0,0,,,,,,,JUMPER,HB,z,m,./images/JUMPERHB.png,,,,,,,,,,,,,,,,,,,,z,1,1.905,,,,,,,,0,2,2,158,1
,,,,,,,,,,,,,,,,,60b7f09a4462d1d1aa6bbcf6,20,2022-02-12_17h36.28.076,lexical_decision_task_DD_L3,2021.2.3,Linux x86_64,59.88023952,,,,,,,,,,,,1.76,0,,,,,,,,,,,,,,,,,,,,,,,,-0.066666667,-0.102777778,0,0,0,,,,,,,FERRY,LB,z,m,./images/FERRYLB.png,,,,,,,,,,,,,,,,,,,,m,0,1.76,,,,,,,,0,3,3,141,1
,,,,,,,,,,,,,,,,,60b7f09a4462d1d1aa6bbcf6,20,2022-02-12_17h36.28.076,lexical_decision_task_DD_L3,2021.2.3,Linux x86_64,59.88023952,,,,,,,,,,,,2.012,0,,,,,,,,,,,,,,,,,,,,,,,,-0.066666667,-0.102777778,0,0,0,,,,,,,CLOUD,HB,z,m,./images/CLOUDHB.png,,,,,,,,,,,,,,,,,,,,m,0,2.012,,,,,,,,0,4,4,110,1
,,,,,,,,,,,,,,,,,60b7f09a4462d1d1aa6bbcf6,20,2022-02-12_17h36.28.076,lexical_decision_task_DD_L3,2021.2.3,Linux x86_64,59.88023952,,,,,,,,,,,,0.913,1,,,,,,,,,,,,,,,,,,,,,,,,-0.066666667,-0.102777778,0,0,0,,,,,,,THROAT,LB,m,m,./images/THROATLB.png,,,,,,,,,,,,,,,,,,,,m,1,0.913,,,,,,,,0,5,5,36,1
,,,,,,,,,,,,,,,,,60b7f09a4462d1d1aa6bbcf6,20,2022-02-12_17h36.28.076,lexical_decision_task_DD_L3,2021.2.3,Linux x86_64,59.88023952,,,,,,,,,,,,1.71,1,,,,,,,,,,,,,,,,,,,,,,,,-0.066666667,-0.102777778,0,0,0,,,,,,,SUNSET,C,m,m,./images/SUNSET.png,,,,,,,,,,,,,,,,,,,,m,1,1.71,,,,,,,,0,6,6,82,1
,,,,,,,,,,,,,,,,,60b7f09a4462d1d1aa6bbcf6,20,2022-02-12_17h36.28.076,lexical_decision_task_DD_L3,2021.2.3,Linux x86_64,59.88023952,,,,,,,,,,,,1.359,1,,,,,,,,,,,,,,,,,,,,,,,,-0.066666667,-0.102777778,0,0,0,,,,,,,BELLY,C,m,m,./images/BELLY.png,,,,,,,,,,,,,,,,,,,,m,1,1.359,,,,,,,,0,7,7,10,1
,,,,,,,,,,,,,,,,,60b7f09a4462d1d1aa6bbcf6,20,2022-02-12_17h36.28.076,lexical_decision_task_DD_L3,2021.2.3,Linux x86_64,59.88023952,,,,,,,,,,,,1.72,1,,,,,,,,,,,,,,,,,,,,,,,,-0.066666667,-0.102777778,0,0,0,,,,,,,HEATER,HB,z,m,./images/HEATERHB.png,,,,,,,,,,,,,,,,,,,,z,1,1.72,,,,,,,,0,8,8,140,1
,,,,,,,,,,,,,,,,,60b7f09a4462d1d1aa6bbcf6,20,2022-02-12_17h36.28.076,lexical_decision_task_DD_L3,2021.2.3,Linux x86_64,59.88023952,,,,,,,,,,,,2.145,1,,,,,,,,,,,,,,,,,,,,,,,,-0.066666667,-0.102777778,0,0,0,,,,,,,CHAIN,LB,z,m,./images/CHAINLB.png,,,,,,,,,,,,,,,,,,,,z,1,2.145,,,,,,,,0,9,9,126,1
,,,,,,,,,,,,,,,,,60b7f09a4462d1d1aa6bbcf6,20,2022-02-12_17h36.28.076,lexical_decision_task_DD_L3,2021.2.3,Linux x86_64,59.88023952,,,,,,,,,,,,1.519,0,,,,,,,,,,,,,,,,,,,,,,,,-0.066666667,-0.102777778,0,0,0,,,,,,,TOMATO,LB,m,m,./images/TOMATOLB.png,,,,,,,,,,,,,,,,,,,,z,0,1.519,,,,,,,,0,10,10,0,1
,,,,,,,,,,,,,,,,,60b7f09a4462d1d1aa6bbcf6,20,2022-02-12_17h36.28.076,lexical_decision_task_DD_L3,2021.2.3,Linux x86_64,59.88023952,,,,,,,,,,,,3.577,1,,,,,,,,,,,,,,,,,,,,,,,,-0.066666667,-0.102777778,0,0,0,,,,,,,COUCH,HB,m,m,./images/COUCHHB.png,,,,,,,,,,,,,,,,,,,,m,1,3.577,,,,,,,,0,11,11,77,1
,,,,,,,,,,,,,,,,,60b7f09a4462d1d1aa6bbcf6,20,2022-02-12_17h36.28.076,lexical_decision_task_DD_L3,2021.2.3,Linux x86_64,59.88023952,,,,,,,,,,,,1.926,0,,,,,,,,,,,,,,,,,,,,,,,,-0.066666667,-0.102777778,0,0,0,,,,,,,ARROW,LB,z,m,./images/ARROWLB.png,,,,,,,,,,,,,,,,,,,,m,0,1.926,,,,,,,,0,12,12,153,1
,,,,,,,,,,,,,,,,,60b7f09a4462d1d1aa6bbcf6,20,2022-02-12_17h36.28.076,lexical_decision_task_DD_L3,2021.2.3,Linux x86_64,59.88023952,,,,,,,,,,,,2.645,0,,,,,,,,,,,,,,,,,,,,,,,,-0.066666667,-0.102777778,0,0,0,,,,,,,TIGER,C,z,m,./images/TIGER.png,,,,,,,,,,,,,,,,,,,,m,0,2.645,,,,,,,,0,13,13,121,1
,,,,,,,,,,,,,,,,,60b7f09a4462d1d1aa6bbcf6,20,2022-02-12_17h36.28.076,lexical_decision_task_DD_L3,2021.2.3,Linux x86_64,59.88023952,,,,,,,,,,,,6.714,1,,,,,,,,,,,,,,,,,,,,,,,,0.512962963,-0.040740741,0,0,0,,,,,,,MUSCLE,C,m,m,./images/MUSCLE.png,,,,,,,,,,,,,,,,,,,,m,1,6.714,0.512962963,-0.040740741,1,0,0,4.715,,0,14,14,4,1
,,,,,,,,,,,,,,,,,60b7f09a4462d1d1aa6bbcf6,20,2022-02-12_17h36.28.076,lexical_decision_task_DD_L3,2021.2.3,Linux x86_64,59.88023952,,,,,,,,,,,,1.474,1,,,,,,,,,,,,,,,,,,,,,,,,0.512962963,-0.040740741,0,0,0,,,,,,,DANCER,LB,z,m,./images/DANCERLB.png,,,,,,,,,,,,,,,,,,,,z,1,1.474,,,,,,,,0,15,15,105,1
,,,,,,,,,,,,,,,,,60b7f09a4462d1d1aa6bbcf6,20,2022-02-12_17h36.28.076,lexical_decision_task_DD_L3,2021.2.3,Linux x86_64,59.88023952,,,,,,,,,,,,29.568,1,,,,,,,,,,,,,,,,,,,,,,,,0.569444444,0.069444444,0,0,0,,,,,,,GRAIN,LB,m,m,./images/GRAINLB.png,,,,,,,,,,,,,,,,,,,,m,1,29.568,0.569444444,0.069444444,1,0,0,28.342,,0,16,16,75,1
,,,,,,,,,,,,,,,,,60b7f09a4462d1d1aa6bbcf6,20,2022-02-12_17h36.28.076,lexical_decision_task_DD_L3,2021.2.3,Linux x86_64,59.88023952,,,,,,,,,,,,3.211,0,,,,,,,,,,,,,,,,,,,,,,,,0.569444444,0.069444444,0,0,0,,,,,,,STORM,LB,m,m,./images/STORMLB.png,,,,,,,,,,,,,,,,,,,,z,0,3.211,,,,,,,,0,17,17,30,1
,,,,,,,,,,,,,,,,,60b7f09a4462d1d1aa6bbcf6,20,2022-02-12_17h36.28.076,lexical_decision_task_DD_L3,2021.2.3,Linux x86_64,59.88023952,,,,,,,,,,,,6.56,0,,,,,,,,,,,,,,,,,,,,,,,,0.569444444,0.069444444,0,0,0,,,,,,,STOVE,HB,z,m,./images/STOVEHB.png,,,,,,,,,,,,,,,,,,,,m,0,6.56,,,,,,,,0,18,18,86,1
,,,,,,,,,,,,,,,,,60b7f09a4462d1d1aa6bbcf6,20,2022-02-12_17h36.28.076,lexical_decision_task_DD_L3,2021.2.3,Linux x86_64,59.88023952,,,,,,,,,,,,1.513,1,,,,,,,,,,,,,,,,,,,,,,,,0.569444444,0.069444444,0,0,0,,,,,,,WHISKY,HB,z,m,./images/WHISKYHB.png,,,,,,,,,,,,,,,,,,,,z,1,1.513,,,,,,,,0,19,19,167,1
,,,,,,,,,,,,,,,,,60b7f09a4462d1d1aa6bbcf6,20,2022-02-12_17h36.28.076,lexical_decision_task_DD_L3,2021.2.3,Linux x86_64,59.88023952,,,,,,,,,,,,1.026,1,,,,,,,,,,,,,,,,,,,,,,,,0.569444444,0.069444444,0,0,0,,,,,,,DONKEY,C,z,m,./images/DONKEY.png,,,,,,,,,,,,,,,,,,,,z,1,1.026,,,,,,,,0,20,20,103,1
,,,,,,,,,,,,,,,,,60b7f09a4462d1d1aa6bbcf6,20,2022-02-12_17h36.28.076,lexical_decision_task_DD_L3,2021.2.3,Linux x86_64,59.88023952,,,,,,,,,,,,0.924,1,,,,,,,,,,,,,,,,,,,,,,,,0.569444444,0.069444444,0,0,0,,,,,,,MAGGOT,LB,m,m,./images/MAGGOTLB.png,,,,,,,,,,,,,,,,,,,,m,1,0.924,,,,,,,,0,21,21,33,1
,,,,,,,,,,,,,,,,,60b7f09a4462d1d1aa6bbcf6,20,2022-02-12_17h36.28.076,lexical_decision_task_DD_L3,2021.2.3,Linux x86_64,59.88023952,,,,,,,,,,,,1.062,1,,,,,,,,,,,,,,,,,,,,,,,,0.569444444,0.069444444,0,0,0,,,,,,,FALCON,C,m,m,./images/FALCON.png,,,,,,,,,,,,,,,,,,,,m,1,1.062,,,,,,,,0,22,22,28,1
,,,,,,,,,,,,,,,,,60b7f09a4462d1d1aa6bbcf6,20,2022-02-12_17h36.28.076,lexical_decision_task_DD_L3,2021.2.3,Linux x86_64,59.88023952,,,,,,,,,,,,1.161,1,,,,,,,,,,,,,,,,,,,,,,,,0.569444444,0.069444444,0,0,0,,,,,,,SHELF,LB,m,m,./images/SHELFLB.png,,,,,,,,,,,,,,,,,,,,m,1,1.161,,,,,,,,0,23,23,39,1
,,,,,,,,,,,,,,,,,60b7f09a4462d1d1aa6bbcf6,20,2022-02-12_17h36.28.076,lexical_decision_task_DD_L3,2021.2.3,Linux x86_64,59.88023952,,,,,,,,,,,,0.745,1,,,,,,,,,,,,,,,,,,,,,,,,0.569444444,0.069444444,0,0,0,,,,,,,BIRTH,C,m,m,./images/BIRTH.png,,,,,,,,,,,,,,,,,,,,m,1,0.745,,,,,,,,0,24,24,37,1
,,,,,,,,,,,,,,,,,60b7f09a4462d1d1aa6bbcf6,20,2022-02-12_17h36.28.076,lexical_decision_task_DD_L3,2021.2.3,Linux x86_64,59.88023952,,,,,,,,,,,,1.011,1,,,,,,,,,,,,,,,,,,,,,,,,0.569444444,0.069444444,0,0,0,,,,,,,BANNER,C,m,m,./images/BANNER.png,,,,,,,,,,,,,,,,,,,,m,1,1.011,,,,,,,,0,25,25,52,1
,,,,,,,,,,,,,,,,,60b7f09a4462d1d1aa6bbcf6,20,2022-02-12_17h36.28.076,lexical_decision_task_DD_L3,2021.2.3,Linux x86_64,59.88023952,,,,,,,,,,,,1.025,1,,,,,,,,,,,,,,,,,,,,,,,,0.569444444,0.069444444,0,0,0,,,,,,,PISTOL,HB,z,m,./images/PISTOLHB.png,,,,,,,,,,,,,,,,,,,,z,1,1.025,,,,,,,,0,26,26,113,1
,,,,,,,,,,,,,,,,,60b7f09a4462d1d1aa6bbcf6,20,2022-02-12_17h36.28.076,lexical_decision_task_DD_L3,2021.2.3,Linux x86_64,59.88023952,,,,,,,,,,,,1.181,1,,,,,,,,,,,,,,,,,,,,,,,,0.569444444,0.069444444,0,0,0,,,,,,,MUMMY,C,z,m,./images/MUMMY.png,,,,,,,,,,,,,,,,,,,,z,1,1.181,,,,,,,,0,27,27,130,1
,,,,,,,,,,,,,,,,,60b7f09a4462d1d1aa6bbcf6,20,2022-02-12_17h36.28.076,lexical_decision_task_DD_L3,2021.2.3,Linux x86_64,59.88023952,,,,,,,,,,,,1.14,1,,,,,,,,,,,,,,,,,,,,,,,,0.569444444,0.069444444,0,0,0,,,,,,,HOCKEY,HB,z,m,./images/HOCKEYHB.png,,,,,,,,,,,,,,,,,,,,z,1,1.14,,,,,,,,0,28,28,116,1
,,,,,,,,,,,,,,,,,60b7f09a4462d1d1aa6bbcf6,20,2022-02-12_17h36.28.076,lexical_decision_task_DD_L3,2021.2.3,Linux x86_64,59.88023952,,,,,,,,,,,,1.36,1,,,,,,,,,,,,,,,,,,,,,,,,0.569444444,0.069444444,0,0,0,,,,,,,CANYON,C,m,m,./images/CANYON.png,,,,,,,,,,,,,,,,,,,,m,1,1.36,,,,,,,,0,29,29,34,1
,,,,,,,,,,,,,,,,,60b7f09a4462d1d1aa6bbcf6,20,2022-02-12_17h36.28.076,lexical_decision_task_DD_L3,2021.2.3,Linux x86_64,59.88023952,,,,,,,,,,,,1.323,0,,,,,,,,,,,,,,,,,,,,,,,,0.569444444,0.069444444,0,0,0,,,,,,,CHERRY,LB,z,m,./images/CHERRYLB.png,,,,,,,,,,,,,,,,,,,,m,0,1.323,,,,,,,,0,30,30,138,1
,,,,,,,,,,,,,,,,,60b7f09a4462d1d1aa6bbcf6,20,2022-02-12_17h36.28.076,lexical_decision_task_DD_L3,2021.2.3,Linux x86_64,59.88023952,,,,,,,,,,,,0.942,1,,,,,,,,,,,,,,,,,,,,,,,,0.569444444,0.069444444,0,0,0,,,,,,,BRIDE,C,z,m,./images/BRIDE.png,,,,,,,,,,,,,,,,,,,,z,1,0.942,,,,,,,,0,31,31,148,1
,,,,,,,,,,,,,,,,,60b7f09a4462d1d1aa6bbcf6,20,2022-02-12_17h36.28.076,lexical_decision_task_DD_L3,2021.2.3,Linux x86_64,59.88023952,,,,,,,,,,,,0.714,1,,,,,,,,,,,,,,,,,,,,,,,,0.569444444,0.069444444,0,0,0,,,,,,,CANOE,C,z,m,./images/CANOE.png,,,,,,,,,,,,,,,,,,,,z,1,0.714,,,,,,,,0,32,32,142,1
,,,,,,,,,,,,,,,,,60b7f09a4462d1d1aa6bbcf6,20,2022-02-12_17h36.28.076,lexical_decision_task_DD_L3,2021.2.3,Linux x86_64,59.88023952,,,,,,,,,,,,0.946,1,,,,,,,,,,,,,,,,,,,,,,,,0.569444444,0.069444444,0,0,0,,,,,,,PACKET,HB,m,m,./images/PACKETHB.png,,,,,,,,,,,,,,,,,,,,m,1,0.946,,,,,,,,0,33,33,56,1
,,,,,,,,,,,,,,,,,60b7f09a4462d1d1aa6bbcf6,20,2022-02-12_17h36.28.076,lexical_decision_task_DD_L3,2021.2.3,Linux x86_64,59.88023952,,,,,,,,,,,,1.793,1,,,,,,,,,,,,,,,,,,,,,,,,0.569444444,0.069444444,0,0,0,,,,,,,CRUST,C,m,m,./images/CRUST.png,,,,,,,,,,,,,,,,,,,,m,1,1.793,,,,,,,,0,34,34,79,1
,,,,,,,,,,,,,,,,,60b7f09a4462d1d1aa6bbcf6,20,2022-02-12_17h36.28.076,lexical_decision_task_DD_L3,2021.2.3,Linux x86_64,59.88023952,,,,,,,,,,,,0.979,1,,,,,,,,,,,,,,,,,,,,,,,,0.569444444,0.069444444,0,0,0,,,,,,,BONNET,HB,m,m,./images/BONNETHB.png,,,,,,,,,,,,,,,,,,,,m,1,0.979,,,,,,,,0,35,35,11,1
,,,,,,,,,,,,,,,,,60b7f09a4462d1d1aa6bbcf6,20,2022-02-12_17h36.28.076,lexical_decision_task_DD_L3,2021.2.3,Linux x86_64,59.88023952,,,,,,,,,,,,2.228,1,,,,,,,,,,,,,,,,,,,,,,,,0.569444444,0.069444444,0,0,0,,,,,,,TOWEL,C,z,m,./images/TOWEL.png,,,,,,,,,,,,,,,,,,,,z,1,2.228,,,,,,,,0,36,36,85,1
,,,,,,,,,,,,,,,,,60b7f09a4462d1d1aa6bbcf6,20,2022-02-12_17h36.28.076,lexical_decision_task_DD_L3,2021.2.3,Linux x86_64,59.88023952,,,,,,,,,,,,1.605,1,,,,,,,,,,,,,,,,,,,,,,,,0.569444444,0.069444444,0,0,0,,,,,,,BURIAL,HB,m,m,./images/BURIALHB.png,,,,,,,,,,,,,,,,,,,,m,1,1.605,,,,,,,,0,37,37,59,1
,,,,,,,,,,,,,,,,,60b7f09a4462d1d1aa6bbcf6,20,2022-02-12_17h36.28.076,lexical_decision_task_DD_L3,2021.2.3,Linux x86_64,59.88023952,,,,,,,,,,,,1.778,1,,,,,,,,,,,,,,,,,,,,,,,,0.569444444,0.069444444,0,0,0,,,,,,,BLOKE,LB,z,m,./images/BLOKELB.png,,,,,,,,,,,,,,,,,,,,z,1,1.778,,,,,,,,0,38,38,96,1
,,,,,,,,,,,,,,,,,60b7f09a4462d1d1aa6bbcf6,20,2022-02-12_17h36.28.076,lexical_decision_task_DD_L3,2021.2.3,Linux x86_64,59.88023952,,,,,,,,,,,,1.28,1,,,,,,,,,,,,,,,,,,,,,,,,0.569444444,0.069444444,0,0,0,,,,,,,MOSQUE,C,m,m,./images/MOSQUE.png,,,,,,,,,,,,,,,,,,,,m,1,1.28,,,,,,,,0,39,39,43,1
,,,,,,,,,,,,,,,,,60b7f09a4462d1d1aa6bbcf6,20,2022-02-12_17h36.28.076,lexical_decision_task_DD_L3,2021.2.3,Linux x86_64,59.88023952,,,,,,,,,,,,0.859,1,,,,,,,,,,,,,,,,,,,,,,,,0.569444444,0.069444444,0,0,0,,,,,,,TRIPOD,LB,m,m,./images/TRIPODLB.png,,,,,,,,,,,,,,,,,,,,m,1,0.859,,,,,,,,0,40,40,54,1
,,,,,,,,,,,,,,,,,60b7f09a4462d1d1aa6bbcf6,20,2022-02-12_17h36.28.076,lexical_decision_task_DD_L3,2021.2.3,Linux x86_64,59.88023952,,,,,,,,,,,,1.029,1,,,,,,,,,,,,,,,,,,,,,,,,0.569444444,0.069444444,0,0,0,space,,,,,,CANDLE,C,m,m,./images/CANDLE.png,1.538,,,,,,,,,,,,,,,,,,,m,1,1.029,,,,,,,,0,41,41,61,1
,,,,,,,,,,,,,,,,,60b7f09a4462d1d1aa6bbcf6,20,2022-02-12_17h36.28.076,lexical_decision_task_DD_L3,2021.2.3,Linux x86_64,59.88023952,,,,,,,,,,,,3.183,0,,,,,,,,,,,,,,,,,,,,,,,,0.569444444,0.069444444,0,0,0,,,,,,,QUILL,C,m,m,./images/QUILL.png,,,,,,,,,,,,,,,,,,,,z,0,3.183,,,,,,,,0,42,42,31,1
,,,,,,,,,,,,,,,,,60b7f09a4462d1d1aa6bbcf6,20,2022-02-12_17h36.28.076,lexical_decision_task_DD_L3,2021.2.3,Linux x86_64,59.88023952,,,,,,,,,,,,1.592,1,,,,,,,,,,,,,,,,,,,,,,,,0.569444444,0.069444444,0,0,0,,,,,,,STAIN,LB,z,m,./images/STAINLB.png,,,,,,,,,,,,,,,,,,,,z,1,1.592,,,,,,,,0,43,43,90,1
,,,,,,,,,,,,,,,,,60b7f09a4462d1d1aa6bbcf6,20,2022-02-12_17h36.28.076,lexical_decision_task_DD_L3,2021.2.3,Linux x86_64,59.88023952,,,,,,,,,,,,1.028,1,,,,,,,,,,,,,,,,,,,,,,,,0.569444444,0.069444444,0,0,0,,,,,,,SAILOR,C,m,m,./images/SAILOR.png,,,,,,,,,,,,,,,,,,,,m,1,1.028,,,,,,,,0,44,44,67,1
,,,,,,,,,,,,,,,,,60b7f09a4462d1d1aa6bbcf6,20,2022-02-12_17h36.28.076,lexical_decision_task_DD_L3,2021.2.3,Linux x86_64,59.88023952,,,,,,,,,,,,1.861,0,,,,,,,,,,,,,,,,,,,,,,,,0.569444444,0.069444444,0,0,0,,,,,,,ALLEY,C,z,m,./images/ALLEY.png,,,,,,,,,,,,,,,,,,,,m,0,1.861,,,,,,,,0,45,45,139,1
,,,,,,,,,,,,,,,,,60b7f09a4462d1d1aa6bbcf6,20,2022-02-12_17h36.28.076,lexical_decision_task_DD_L3,2021.2.3,Linux x86_64,59.88023952,,,,,,,,,,,,0.908,1,,,,,,,,,,,,,,,,,,,,,,,,0.569444444,0.069444444,0,0,0,,,,,,,FLASK,LB,z,m,./images/FLASKLB.png,,,,,,,,,,,,,,,,,,,,z,1,0.908,,,,,,,,0,46,46,156,1
,,,,,,,,,,,,,,,,,60b7f09a4462d1d1aa6bbcf6,20,2022-02-12_17h36.28.076,lexical_decision_task_DD_L3,2021.2.3,Linux x86_64,59.88023952,,,,,,,,,,,,1.256,1,,,,,,,,,,,,,,,,,,,,,,,,0.569444444,0.069444444,0,0,0,,,,,,,PICKLE,HB,m,m,./images/PICKLEHB.png,,,,,,,,,,,,,,,,,,,,m,1,1.256,,,,,,,,0,47,47,14,1
,,,,,,,,,,,,,,,,,60b7f09a4462d1d1aa6bbcf6,20,2022-02-12_17h36.28.076,lexical_decision_task_DD_L3,2021.2.3,Linux x86_64,59.88023952,,,,,,,,,,,,3.129,1,,,,,,,,,,,,,,,,,,,,,,,,0.569444444,0.069444444,0,0,0,,,,,,,CHALK,C,z,m,./images/CHALK.png,,,,,,,,,,,,,,,,,,,,z,1,3.129,,,,,,,,0,48,48,109,1
,,,,,,,,,,,,,,,,,60b7f09a4462d1d1aa6bbcf6,20,2022-02-12_17h36.28.076,lexical_decision_task_DD_L3,2021.2.3,Linux x86_64,59.88023952,,,,,,,,,,,,11.811,1,,,,,,,,,,,,,,,,,,,,,,,,0.569444444,0.069444444,0,0,0,,,,,,,GREASE,LB,m,m,./images/GREASELB.png,,,,,,,,,,,,,,,,,,,,m,1,11.811,,,,,,,,0,49,49,15,1
,,,,,,,,,,,,,,,,,60b7f09a4462d1d1aa6bbcf6,20,2022-02-12_17h36.28.076,lexical_decision_task_DD_L3,2021.2.3,Linux x86_64,59.88023952,,,,,,,,,,,,1.594,1,,,,,,,,,,,,,,,,,,,,,,,,0.569444444,0.069444444,0,0,0,,,,,,,CASINO,C,z,m,./images/CASINO.png,,,,,,,,,,,,,,,,,,,,z,1,1.594,,,,,,,,0,50,50,112,1
,,,,,,,,,,,,,,,,,60b7f09a4462d1d1aa6bbcf6,20,2022-02-12_17h36.28.076,lexical_decision_task_DD_L3,2021.2.3,Linux x86_64,59.88023952,,,,,,,,,,,,4.809,1,,,,,,,,,,,,,,,,,,,,,,,,0.569444444,0.069444444,0,0,0,,,,,,,BUBBLE,HB,z,m,./images/BUBBLEHB.png,,,,,,,,,,,,,,,,,,,,z,1,4.809,,,,,,,,0,51,51,155,1
,,,,,,,,,,,,,,,,,60b7f09a4462d1d1aa6bbcf6,20,2022-02-12_17h36.28.076,lexical_decision_task_DD_L3,2021.2.3,Linux x86_64,59.88023952,,,,,,,,,,,,2.389,0,,,,,,,,,,,,,,,,,,,,,,,,0.569444444,0.069444444,0,0,0,,,,,,,PARCEL,LB,z,m,./images/PARCELLB.png,,,,,,,,,,,,,,,,,,,,m,0,2.389,,,,,,,,0,52,52,102,1
,,,,,,,,,,,,,,,,,60b7f09a4462d1d1aa6bbcf6,20,2022-02-12_17h36.28.076,lexical_decision_task_DD_L3,2021.2.3,Linux x86_64,59.88023952,,,,,,,,,,,,5.511,1,,,,,,,,,,,,,,,,,,,,,,,,0.569444444,0.069444444,0,0,0,,,,,,,SPORT,LB,m,m,./images/SPORTLB.png,,,,,,,,,,,,,,,,,,,,m,1,5.511,,,,,,,,0,53,53,48,1
,,,,,,,,,,,,,,,,,60b7f09a4462d1d1aa6bbcf6,20,2022-02-12_17h36.28.076,lexical_decision_task_DD_L3,2021.2.3,Linux x86_64,59.88023952,,,,,,,,,,,,1.49,1,,,,,,,,,,,,,,,,,,,,,,,,0.569444444,0.069444444,0,0,0,,,,,,,BISHOP,C,z,m,./images/BISHOP.png,,,,,,,,,,,,,,,,,,,,z,1,1.49,,,,,,,,0,54,54,133,1
,,,,,,,,,,,,,,,,,60b7f09a4462d1d1aa6bbcf6,20,2022-02-12_17h36.28.076,lexical_decision_task_DD_L3,2021.2.3,Linux x86_64,59.88023952,,,,,,,,,,,,1.784,1,,,,,,,,,,,,,,,,,,,,,,,,0.569444444,0.069444444,0,0,0,,,,,,,MAMMAL,HB,z,m,./images/MAMMALHB.png,,,,,,,,,,,,,,,,,,,,z,1,1.784,,,,,,,,0,55,55,146,1
,,,,,,,,,,,,,,,,,60b7f09a4462d1d1aa6bbcf6,20,2022-02-12_17h36.28.076,lexical_decision_task_DD_L3,2021.2.3,Linux x86_64,59.88023952,,,,,,,,,,,,1.105,0,,,,,,,,,,,,,,,,,,,,,,,,0.569444444,0.069444444,0,0,0,,,,,,,FENCE,HB,z,m,./images/FENCEHB.png,,,,,,,,,,,,,,,,,,,,m,0,1.105,,,,,,,,0,56,56,98,1
,,,,,,,,,,,,,,,,,60b7f09a4462d1d1aa6bbcf6,20,2022-02-12_17h36.28.076,lexical_decision_task_DD_L3,2021.2.3,Linux x86_64,59.88023952,,,,,,,,,,,,1.428,0,,,,,,,,,,,,,,,,,,,,,,,,0.569444444,0.069444444,0,0,0,,,,,,,BASKET,HB,z,m,./images/BASKETHB.png,,,,,,,,,,,,,,,,,,,,m,0,1.428,,,,,,,,0,57,57,128,1
,,,,,,,,,,,,,,,,,60b7f09a4462d1d1aa6bbcf6,20,2022-02-12_17h36.28.076,lexical_decision_task_DD_L3,2021.2.3,Linux x86_64,59.88023952,,,,,,,,,,,,7.74,0,,,,,,,,,,,,,,,,,,,,,,,,0.569444444,0.069444444,0,0,0,,,,,,,BRUSH,HB,z,m,./images/BRUSHHB.png,,,,,,,,,,,,,,,,,,,,m,0,7.74,,,,,,,,0,58,58,143,1
,,,,,,,,,,,,,,,,,60b7f09a4462d1d1aa6bbcf6,20,2022-02-12_17h36.28.076,lexical_decision_task_DD_L3,2021.2.3,Linux x86_64,59.88023952,,,,,,,,,,,,0.926,1,,,,,,,,,,,,,,,,,,,,,,,,0.569444444,0.069444444,0,0,0,,,,,,,PLANK,C,m,m,./images/PLANK.png,,,,,,,,,,,,,,,,,,,,m,1,0.926,,,,,,,,0,59,59,1,1
,,,,,,,,,,,,,,,,,60b7f09a4462d1d1aa6bbcf6,20,2022-02-12_17h36.28.076,lexical_decision_task_DD_L3,2021.2.3,Linux x86_64,59.88023952,,,,,,,,,,,,1.194,0,,,,,,,,,,,,,,,,,,,,,,,,0.569444444,0.069444444,0,0,0,,,,,,,GRAPE,C,z,m,./images/GRAPE.png,,,,,,,,,,,,,,,,,,,,m,0,1.194,,,,,,,,0,60,60,100,1
,,,,,,,,,,,,,,,,,60b7f09a4462d1d1aa6bbcf6,20,2022-02-12_17h36.28.076,lexical_decision_task_DD_L3,2021.2.3,Linux x86_64,59.88023952,,,,,,,,,,,,0.673,1,,,,,,,,,,,,,,,,,,,,,,,,0.569444444,0.069444444,0,0,0,,,,,,,SWEAT,LB,m,m,./images/SWEATLB.png,,,,,,,,,,,,,,,,,,,,m,1,0.673,,,,,,,,0,61,61,66,1
,,,,,,,,,,,,,,,,,60b7f09a4462d1d1aa6bbcf6,20,2022-02-12_17h36.28.076,lexical_decision_task_DD_L3,2021.2.3,Linux x86_64,59.88023952,,,,,,,,,,,,0.832,1,,,,,,,,,,,,,,,,,,,,,,,,0.569444444,0.069444444,0,0,0,,,,,,,SHIELD,LB,z,m,./images/SHIELDLB.png,,,,,,,,,,,,,,,,,,,,z,1,0.832,,,,,,,,0,62,62,132,1
,,,,,,,,,,,,,,,,,60b7f09a4462d1d1aa6bbcf6,20,2022-02-12_17h36.28.076,lexical_decision_task_DD_L3,2021.2.3,Linux x86_64,59.88023952,,,,,,,,,,,,1.194,1,,,,,,,,,,,,,,,,,,,,,,,,0.569444444,0.069444444,0,0,0,,,,,,,WALNUT,LB,z,m,./images/WALNUTLB.png,,,,,,,,,,,,,,,,,,,,z,1,1.194,,,,,,,,0,63,63,84,1
,,,,,,,,,,,,,,,,,60b7f09a4462d1d1aa6bbcf6,20,2022-02-12_17h36.28.076,lexical_decision_task_DD_L3,2021.2.3,Linux x86_64,59.88023952,,,,,,,,,,,,0.824,1,,,,,,,,,,,,,,,,,,,,,,,,0.569444444,0.069444444,0,0,0,,,,,,,PASTA,HB,m,m,./images/PASTAHB.png,,,,,,,,,,,,,,,,,,,,m,1,0.824,,,,,,,,0,64,64,5,1
,,,,,,,,,,,,,,,,,60b7f09a4462d1d1aa6bbcf6,20,2022-02-12_17h36.28.076,lexical_decision_task_DD_L3,2021.2.3,Linux x86_64,59.88023952,,,,,,,,,,,,0.931,0,,,,,,,,,,,,,,,,,,,,,,,,0.569444444,0.069444444,0,0,0,,,,,,,HAMMER,LB,z,m,./images/HAMMERLB.png,,,,,,,,,,,,,,,,,,,,m,0,0.931,,,,,,,,0,65,65,159,1
,,,,,,,,,,,,,,,,,60b7f09a4462d1d1aa6bbcf6,20,2022-02-12_17h36.28.076,lexical_decision_task_DD_L3,2021.2.3,Linux x86_64,59.88023952,,,,,,,,,,,,1.04,0,,,,,,,,,,,,,,,,,,,,,,,,0.569444444,0.069444444,0,0,0,,,,,,,STREAM,HB,z,m,./images/STREAMHB.png,,,,,,,,,,,,,,,,,,,,m,0,1.04,,,,,,,,0,66,66,125,1
,,,,,,,,,,,,,,,,,60b7f09a4462d1d1aa6bbcf6,20,2022-02-12_17h36.28.076,lexical_decision_task_DD_L3,2021.2.3,Linux x86_64,59.88023952,,,,,,,,,,,,1.144,0,,,,,,,,,,,,,,,,,,,,,,,,0.569444444,0.069444444,0,0,0,,,,,,,CLIFF,HB,z,m,./images/CLIFFHB.png,,,,,,,,,,,,,,,,,,,,m,0,1.144,,,,,,,,0,67,67,92,1
,,,,,,,,,,,,,,,,,60b7f09a4462d1d1aa6bbcf6,20,2022-02-12_17h36.28.076,lexical_decision_task_DD_L3,2021.2.3,Linux x86_64,59.88023952,,,,,,,,,,,,0.976,1,,,,,,,,,,,,,,,,,,,,,,,,0.569444444,0.069444444,0,0,0,,,,,,,BABOON,C,m,m,./images/BABOON.png,,,,,,,,,,,,,,,,,,,,m,1,0.976,,,,,,,,0,68,68,58,1
,,,,,,,,,,,,,,,,,60b7f09a4462d1d1aa6bbcf6,20,2022-02-12_17h36.28.076,lexical_decision_task_DD_L3,2021.2.3,Linux x86_64,59.88023952,,,,,,,,,,,,0.923,1,,,,,,,,,,,,,,,,,,,,,,,,0.569444444,0.069444444,0,0,0,,,,,,,PURSE,HB,m,m,./images/PURSEHB.png,,,,,,,,,,,,,,,,,,,,m,1,0.923,,,,,,,,0,69,69,62,1
,,,,,,,,,,,,,,,,,60b7f09a4462d1d1aa6bbcf6,20,2022-02-12_17h36.28.076,lexical_decision_task_DD_L3,2021.2.3,Linux x86_64,59.88023952,,,,,,,,,,,,1.176,0,,,,,,,,,,,,,,,,,,,,,,,,0.569444444,0.069444444,0,0,0,,,,,,,PEBBLE,C,z,m,./images/PEBBLE.png,,,,,,,,,,,,,,,,,,,,m,0,1.176,,,,,,,,0,70,70,166,1
,,,,,,,,,,,,,,,,,60b7f09a4462d1d1aa6bbcf6,20,2022-02-12_17h36.28.076,lexical_decision_task_DD_L3,2021.2.3,Linux x86_64,59.88023952,,,,,,,,,,,,1.134,1,,,,,,,,,,,,,,,,,,,,,,,,0.569444444,0.069444444,0,0,0,,,,,,,BARREL,HB,m,m,./images/BARRELHB.png,,,,,,,,,,,,,,,,,,,,m,1,1.134,,,,,,,,0,71,71,32,1
,,,,,,,,,,,,,,,,,60b7f09a4462d1d1aa6bbcf6,20,2022-02-12_17h36.28.076,lexical_decision_task_DD_L3,2021.2.3,Linux x86_64,59.88023952,,,,,,,,,,,,1.911,1,,,,,,,,,,,,,,,,,,,,,,,,0.569444444,0.069444444,0,0,0,,,,,,,BUNNY,C,z,m,./images/BUNNY.png,,,,,,,,,,,,,,,,,,,,z,1,1.911,,,,,,,,0,72,72,97,1
,,,,,,,,,,,,,,,,,60b7f09a4462d1d1aa6bbcf6,20,2022-02-12_17h36.28.076,lexical_decision_task_DD_L3,2021.2.3,Linux x86_64,59.88023952,,,,,,,,,,,,1.308,1,,,,,,,,,,,,,,,,,,,,,,,,0.569444444,0.069444444,0,0,0,,,,,,,DRILL,LB,z,m,./images/DRILLLB.png,,,,,,,,,,,,,,,,,,,,z,1,1.308,,,,,,,,0,73,73,165,1
,,,,,,,,,,,,,,,,,60b7f09a4462d1d1aa6bbcf6,20,2022-02-12_17h36.28.076,lexical_decision_task_DD_L3,2021.2.3,Linux x86_64,59.88023952,,,,,,,,,,,,0.918,1,,,,,,,,,,,,,,,,,,,,,,,,0.569444444,0.069444444,0,0,0,,,,,,,BROOM,LB,z,m,./images/BROOMLB.png,,,,,,,,,,,,,,,,,,,,z,1,0.918,,,,,,,,0,74,74,162,1
,,,,,,,,,,,,,,,,,60b7f09a4462d1d1aa6bbcf6,20,2022-02-12_17h36.28.076,lexical_decision_task_DD_L3,2021.2.3,Linux x86_64,59.88023952,,,,,,,,,,,,1.652,0,,,,,,,,,,,,,,,,,,,,,,,,0.569444444,0.069444444,0,0,0,,,,,,,SAUCE,LB,z,m,./images/SAUCELB.png,,,,,,,,,,,,,,,,,,,,m,0,1.652,,,,,,,,0,75,75,135,1
,,,,,,,,,,,,,,,,,60b7f09a4462d1d1aa6bbcf6,20,2022-02-12_17h36.28.076,lexical_decision_task_DD_L3,2021.2.3,Linux x86_64,59.88023952,,,,,,,,,,,,1.842,1,,,,,,,,,,,,,,,,,,,,,,,,0.569444444,0.069444444,0,0,0,,,,,,,FARMER,HB,m,m,./images/FARMERHB.png,,,,,,,,,,,,,,,,,,,,m,1,1.842,,,,,,,,0,76,76,65,1
,,,,,,,,,,,,,,,,,60b7f09a4462d1d1aa6bbcf6,20,2022-02-12_17h36.28.076,lexical_decision_task_DD_L3,2021.2.3,Linux x86_64,59.88023952,,,,,,,,,,,,0.815,1,,,,,,,,,,,,,,,,,,,,,,,,0.569444444,0.069444444,0,0,0,,,,,,,TULIP,HB,m,m,./images/TULIPHB.png,,,,,,,,,,,,,,,,,,,,m,1,0.815,,,,,,,,0,77,77,8,1
,,,,,,,,,,,,,,,,,60b7f09a4462d1d1aa6bbcf6,20,2022-02-12_17h36.28.076,lexical_decision_task_DD_L3,2021.2.3,Linux x86_64,59.88023952,,,,,,,,,,,,1.06,0,,,,,,,,,,,,,,,,,,,,,,,,0.569444444,0.069444444,0,0,0,,,,,,,INFANT,C,m,m,./images/INFANT.png,,,,,,,,,,,,,,,,,,,,z,0,1.06,,,,,,,,0,78,78,76,1
,,,,,,,,,,,,,,,,,60b7f09a4462d1d1aa6bbcf6,20,2022-02-12_17h36.28.076,lexical_decision_task_DD_L3,2021.2.3,Linux x86_64,59.88023952,,,,,,,,,,,,1.029,1,,,,,,,,,,,,,,,,,,,,,,,,0.569444444,0.069444444,0,0,0,,,,,,,SNACK,C,m,m,./images/SNACK.png,,,,,,,,,,,,,,,,,,,,m,1,1.029,,,,,,,,0,79,79,73,1
,,,,,,,,,,,,,,,,,60b7f09a4462d1d1aa6bbcf6,20,2022-02-12_17h36.28.076,lexical_decision_task_DD_L3,2021.2.3,Linux x86_64,59.88023952,,,,,,,,,,,,1.028,0,,,,,,,,,,,,,,,,,,,,,,,,0.569444444,0.069444444,0,0,0,,,,,,,TWINS,LB,m,m,./images/TWINSLB.png,,,,,,,,,,,,,,,,,,,,z,0,1.028,,,,,,,,0,80,80,60,1
,,,,,,,,,,,,,,,,,60b7f09a4462d1d1aa6bbcf6,20,2022-02-12_17h36.28.076,lexical_decision_task_DD_L3,2021.2.3,Linux x86_64,59.88023952,,,,,,,,,,,,1.626,1,,,,,,,,,,,,,,,,,,,,,,,,0.569444444,0.069444444,0,0,0,,,,,,,BERRY,HB,m,m,./images/BERRYHB.png,,,,,,,,,,,,,,,,,,,,m,1,1.626,,,,,,,,0,81,81,47,1
,,,,,,,,,,,,,,,,,60b7f09a4462d1d1aa6bbcf6,20,2022-02-12_17h36.28.076,lexical_decision_task_DD_L3,2021.2.3,Linux x86_64,59.88023952,,,,,,,,,,,,4.329,1,,,,,,,,,,,,,,,,,,,,,,,,0.569444444,0.069444444,0,0,0,,,,,,,CRUMB,HB,m,m,./images/CRUMBHB.png,,,,,,,,,,,,,,,,,,,,m,1,4.329,,,,,,,,0,82,82,29,1
,,,,,,,,,,,,,,,,,60b7f09a4462d1d1aa6bbcf6,20,2022-02-12_17h36.28.076,lexical_decision_task_DD_L3,2021.2.3,Linux x86_64,59.88023952,,,,,,,,,,,,1.123,0,,,,,,,,,,,,,,,,,,,,,,,,0.569444444,0.069444444,0,0,0,space,,,,,,LITTER,LB,m,m,./images/LITTERLB.png,1.127,,,,,,,,,,,,,,,,,,,z,0,1.123,,,,,,,,0,83,83,78,1
,,,,,,,,,,,,,,,,,60b7f09a4462d1d1aa6bbcf6,20,2022-02-12_17h36.28.076,lexical_decision_task_DD_L3,2021.2.3,Linux x86_64,59.88023952,,,,,,,,,,,,7.396,1,,,,,,,,,,,,,,,,,,,,,,,,0.569444444,0.069444444,0,0,0,,,,,,,SWING,C,m,m,./images/SWING.png,,,,,,,,,,,,,,,,,,,,m,1,7.396,,,,,,,,0,84,84,40,1
,,,,,,,,,,,,,,,,,60b7f09a4462d1d1aa6bbcf6,20,2022-02-12_17h36.28.076,lexical_decision_task_DD_L3,2021.2.3,Linux x86_64,59.88023952,,,,,,,,,,,,1.096,1,,,,,,,,,,,,,,,,,,,,,,,,0.569444444,0.069444444,0,0,0,,,,,,,PILOT,HB,z,m,./images/PILOTHB.png,,,,,,,,,,,,,,,,,,,,z,1,1.096,,,,,,,,0,85,85,134,1
,,,,,,,,,,,,,,,,,60b7f09a4462d1d1aa6bbcf6,20,2022-02-12_17h36.28.076,lexical_decision_task_DD_L3,2021.2.3,Linux x86_64,59.88023952,,,,,,,,,,,,0.677,1,,,,,,,,,,,,,,,,,,,,,,,,0.569444444,0.069444444,0,0,0,,,,,,,ARTIST,C,z,m,./images/ARTIST.png,,,,,,,,,,,,,,,,,,,,z,1,0.677,,,,,,,,0,86,86,145,1
,,,,,,,,,,,,,,,,,60b7f09a4462d1d1aa6bbcf6,20,2022-02-12_17h36.28.076,lexical_decision_task_DD_L3,2021.2.3,Linux x86_64,59.88023952,,,,,,,,,,,,1.871,1,,,,,,,,,,,,,,,,,,,,,,,,0.569444444,0.069444444,0,0,0,,,,,,,BUTTER,LB,z,m,./images/BUTTERLB.png,,,,,,,,,,,,,,,,,,,,z,1,1.871,,,,,,,,0,87,87,111,1
,,,,,,,,,,,,,,,,,60b7f09a4462d1d1aa6bbcf6,20,2022-02-12_17h36.28.076,lexical_decision_task_DD_L3,2021.2.3,Linux x86_64,59.88023952,,,,,,,,,,,,1.043,1,,,,,,,,,,,,,,,,,,,,,,,,0.569444444,0.069444444,0,0,0,,,,,,,POODLE,LB,m,m,./images/POODLELB.png,,,,,,,,,,,,,,,,,,,,m,1,1.043,,,,,,,,0,88,88,81,1
,,,,,,,,,,,,,,,,,60b7f09a4462d1d1aa6bbcf6,20,2022-02-12_17h36.28.076,lexical_decision_task_DD_L3,2021.2.3,Linux x86_64,59.88023952,,,,,,,,,,,,1.226,1,,,,,,,,,,,,,,,,,,,,,,,,0.569444444,0.069444444,0,0,0,,,,,,,SKIING,HB,m,m,./images/SKIINGHB.png,,,,,,,,,,,,,,,,,,,,m,1,1.226,,,,,,,,0,89,89,17,1
,,,,,,,,,,,,,,,,,60b7f09a4462d1d1aa6bbcf6,20,2022-02-12_17h36.28.076,lexical_decision_task_DD_L3,2021.2.3,Linux x86_64,59.88023952,,,,,,,,,,,,2.538,1,,,,,,,,,,,,,,,,,,,,,,,,0.569444444,0.069444444,0,0,0,,,,,,,CRATER,LB,z,m,./images/CRATERLB.png,,,,,,,,,,,,,,,,,,,,z,1,2.538,,,,,,,,0,90,90,87,1
,,,,,,,,,,,,,,,,,60b7f09a4462d1d1aa6bbcf6,20,2022-02-12_17h36.28.076,lexical_decision_task_DD_L3,2021.2.3,Linux x86_64,59.88023952,,,,,,,,,,,,0.927,1,,,,,,,,,,,,,,,,,,,,,,,,0.569444444,0.069444444,0,0,0,,,,,,,RHINO,LB,m,m,./images/RHINOLB.png,,,,,,,,,,,,,,,,,,,,m,1,0.927,,,,,,,,0,91,91,9,1
,,,,,,,,,,,,,,,,,60b7f09a4462d1d1aa6bbcf6,20,2022-02-12_17h36.28.076,lexical_decision_task_DD_L3,2021.2.3,Linux x86_64,59.88023952,,,,,,,,,,,,0.995,1,,,,,,,,,,,,,,,,,,,,,,,,0.569444444,0.069444444,0,0,0,,,,,,,PAINT,C,m,m,./images/PAINT.png,,,,,,,,,,,,,,,,,,,,m,1,0.995,,,,,,,,0,92,92,7,1
,,,,,,,,,,,,,,,,,60b7f09a4462d1d1aa6bbcf6,20,2022-02-12_17h36.28.076,lexical_decision_task_DD_L3,2021.2.3,Linux x86_64,59.88023952,,,,,,,,,,,,0.763,1,,,,,,,,,,,,,,,,,,,,,,,,0.569444444,0.069444444,0,0,0,,,,,,,BEARD,HB,m,m,./images/BEARDHB.png,,,,,,,,,,,,,,,,,,,,m,1,0.763,,,,,,,,0,93,93,2,1
,,,,,,,,,,,,,,,,,60b7f09a4462d1d1aa6bbcf6,20,2022-02-12_17h36.28.076,lexical_decision_task_DD_L3,2021.2.3,Linux x86_64,59.88023952,,,,,,,,,,,,1.292,1,,,,,,,,,,,,,,,,,,,,,,,,0.569444444,0.069444444,0,0,0,,,,,,,RAZOR,C,z,m,./images/RAZOR.png,,,,,,,,,,,,,,,,,,,,z,1,1.292,,,,,,,,0,94,94,118,1
,,,,,,,,,,,,,,,,,60b7f09a4462d1d1aa6bbcf6,20,2022-02-12_17h36.28.076,lexical_decision_task_DD_L3,2021.2.3,Linux x86_64,59.88023952,,,,,,,,,,,,1.215,1,,,,,,,,,,,,,,,,,,,,,,,,0.569444444,0.069444444,0,0,0,,,,,,,SMOKER,HB,m,m,./images/SMOKERHB.png,,,,,,,,,,,,,,,,,,,,m,1,1.215,,,,,,,,0,95,95,26,1
,,,,,,,,,,,,,,,,,60b7f09a4462d1d1aa6bbcf6,20,2022-02-12_17h36.28.076,lexical_decision_task_DD_L3,2021.2.3,Linux x86_64,59.88023952,,,,,,,,,,,,1.024,1,,,,,,,,,,,,,,,,,,,,,,,,0.569444444,0.069444444,0,0,0,,,,,,,KIDNEY,LB,m,m,./images/KIDNEYLB.png,,,,,,,,,,,,,,,,,,,,m,1,1.024,,,,,,,,0,96,96,21,1
,,,,,,,,,,,,,,,,,60b7f09a4462d1d1aa6bbcf6,20,2022-02-12_17h36.28.076,lexical_decision_task_DD_L3,2021.2.3,Linux x86_64,59.88023952,,,,,,,,,,,,0.827,0,,,,,,,,,,,,,,,,,,,,,,,,0.569444444,0.069444444,0,0,0,,,,,,,JAGUAR,LB,m,m,./images/JAGUARLB.png,,,,,,,,,,,,,,,,,,,,z,0,0.827,,,,,,,,0,97,97,18,1
,,,,,,,,,,,,,,,,,60b7f09a4462d1d1aa6bbcf6,20,2022-02-12_17h36.28.076,lexical_decision_task_DD_L3,2021.2.3,Linux x86_64,59.88023952,,,,,,,,,,,,2.826,0,,,,,,,,,,,,,,,,,,,,,,,,0.569444444,0.069444444,0,0,0,,,,,,,DESERT,C,z,m,./images/DESERT.png,,,,,,,,,,,,,,,,,,,,m,0,2.826,,,,,,,,0,98,98,136,1
,,,,,,,,,,,,,,,,,60b7f09a4462d1d1aa6bbcf6,20,2022-02-12_17h36.28.076,lexical_decision_task_DD_L3,2021.2.3,Linux x86_64,59.88023952,,,,,,,,,,,,1.928,0,,,,,,,,,,,,,,,,,,,,,,,,0.569444444,0.069444444,0,0,0,,,,,,,MOOSE,LB,m,m,./images/MOOSELB.png,,,,,,,,,,,,,,,,,,,,z,0,1.928,,,,,,,,0,99,99,57,1
,,,,,,,,,,,,,,,,,60b7f09a4462d1d1aa6bbcf6,20,2022-02-12_17h36.28.076,lexical_decision_task_DD_L3,2021.2.3,Linux x86_64,59.88023952,,,,,,,,,,,,1.371,0,,,,,,,,,,,,,,,,,,,,,,,,0.569444444,0.069444444,0,0,0,,,,,,,DRUMS,C,m,m,./images/DRUMS.png,,,,,,,,,,,,,,,,,,,,z,0,1.371,,,,,,,,0,100,100,49,1
,,,,,,,,,,,,,,,,,60b7f09a4462d1d1aa6bbcf6,20,2022-02-12_17h36.28.076,lexical_decision_task_DD_L3,2021.2.3,Linux x86_64,59.88023952,,,,,,,,,,,,1.775,1,,,,,,,,,,,,,,,,,,,,,,,,0.569444444,0.069444444,0,0,0,,,,,,,DOUGH,C,m,m,./images/DOUGH.png,,,,,,,,,,,,,,,,,,,,m,1,1.775,,,,,,,,0,101,101,19,1
,,,,,,,,,,,,,,,,,60b7f09a4462d1d1aa6bbcf6,20,2022-02-12_17h36.28.076,lexical_decision_task_DD_L3,2021.2.3,Linux x86_64,59.88023952,,,,,,,,,,,,1.542,1,,,,,,,,,,,,,,,,,,,,,,,,0.569444444,0.069444444,0,0,0,,,,,,,BANANA,C,z,m,./images/BANANA.png,,,,,,,,,,,,,,,,,,,,z,1,1.542,,,,,,,,0,102,102,154,1
,,,,,,,,,,,,,,,,,60b7f09a4462d1d1aa6bbcf6,20,2022-02-12_17h36.28.076,lexical_decision_task_DD_L3,2021.2.3,Linux x86_64,59.88023952,,,,,,,,,,,,8.345,1,,,,,,,,,,,,,,,,,,,,,,,,0.569444444,0.069444444,0,0,0,,,,,,,MALLET,HB,m,m,./images/MALLETHB.png,,,,,,,,,,,,,,,,,,,,m,1,8.345,,,,,,,,0,103,103,50,1
,,,,,,,,,,,,,,,,,60b7f09a4462d1d1aa6bbcf6,20,2022-02-12_17h36.28.076,lexical_decision_task_DD_L3,2021.2.3,Linux x86_64,59.88023952,,,,,,,,,,,,1.859,1,,,,,,,,,,,,,,,,,,,,,,,,0.569444444,0.069444444,0,0,0,,,,,,,POKER,C,z,m,./images/POKER.png,,,,,,,,,,,,,,,,,,,,z,1,1.859,,,,,,,,0,104,104,151,1
,,,,,,,,,,,,,,,,,60b7f09a4462d1d1aa6bbcf6,20,2022-02-12_17h36.28.076,lexical_decision_task_DD_L3,2021.2.3,Linux x86_64,59.88023952,,,,,,,,,,,,2.541,1,,,,,,,,,,,,,,,,,,,,,,,,0.569444444,0.069444444,0,0,0,,,,,,,WAGON,C,z,m,./images/WAGON.png,,,,,,,,,,,,,,,,,,,,z,1,2.541,,,,,,,,0,105,105,91,1
,,,,,,,,,,,,,,,,,60b7f09a4462d1d1aa6bbcf6,20,2022-02-12_17h36.28.076,lexical_decision_task_DD_L3,2021.2.3,Linux x86_64,59.88023952,,,,,,,,,,,,2.208,1,,,,,,,,,,,,,,,,,,,,,,,,0.569444444,0.069444444,0,0,0,,,,,,,STEAK,C,z,m,./images/STEAK.png,,,,,,,,,,,,,,,,,,,,z,1,2.208,,,,,,,,0,106,106,115,1
,,,,,,,,,,,,,,,,,60b7f09a4462d1d1aa6bbcf6,20,2022-02-12_17h36.28.076,lexical_decision_task_DD_L3,2021.2.3,Linux x86_64,59.88023952,,,,,,,,,,,,0.892,1,,,,,,,,,,,,,,,,,,,,,,,,0.569444444,0.069444444,0,0,0,,,,,,,PLANET,HB,z,m,./images/PLANETHB.png,,,,,,,,,,,,,,,,,,,,z,1,0.892,,,,,,,,0,107,107,164,1
,,,,,,,,,,,,,,,,,60b7f09a4462d1d1aa6bbcf6,20,2022-02-12_17h36.28.076,lexical_decision_task_DD_L3,2021.2.3,Linux x86_64,59.88023952,,,,,,,,,,,,1.107,1,,,,,,,,,,,,,,,,,,,,,,,,0.569444444,0.069444444,0,0,0,,,,,,,URINE,C,m,m,./images/URINE.png,,,,,,,,,,,,,,,,,,,,m,1,1.107,,,,,,,,0,108,108,70,1
,,,,,,,,,,,,,,,,,60b7f09a4462d1d1aa6bbcf6,20,2022-02-12_17h36.28.076,lexical_decision_task_DD_L3,2021.2.3,Linux x86_64,59.88023952,,,,,,,,,,,,1.012,1,,,,,,,,,,,,,,,,,,,,,,,,0.569444444,0.069444444,0,0,0,,,,,,,CURRY,LB,z,m,./images/CURRYLB.png,,,,,,,,,,,,,,,,,,,,z,1,1.012,,,,,,,,0,109,109,144,1
,,,,,,,,,,,,,,,,,60b7f09a4462d1d1aa6bbcf6,20,2022-02-12_17h36.28.076,lexical_decision_task_DD_L3,2021.2.3,Linux x86_64,59.88023952,,,,,,,,,,,,2.857,0,,,,,,,,,,,,,,,,,,,,,,,,0.569444444,0.069444444,0,0,0,,,,,,,WEASEL,HB,m,m,./images/WEASELHB.png,,,,,,,,,,,,,,,,,,,,z,0,2.857,,,,,,,,0,110,110,80,1
,,,,,,,,,,,,,,,,,60b7f09a4462d1d1aa6bbcf6,20,2022-02-12_17h36.28.076,lexical_decision_task_DD_L3,2021.2.3,Linux x86_64,59.88023952,,,,,,,,,,,,1.142,1,,,,,,,,,,,,,,,,,,,,,,,,0.569444444,0.069444444,0,0,0,,,,,,,DIVER,LB,z,m,./images/DIVERLB.png,,,,,,,,,,,,,,,,,,,,z,1,1.142,,,,,,,,0,111,111,93,1
,,,,,,,,,,,,,,,,,60b7f09a4462d1d1aa6bbcf6,20,2022-02-12_17h36.28.076,lexical_decision_task_DD_L3,2021.2.3,Linux x86_64,59.88023952,,,,,,,,,,,,1.407,0,,,,,,,,,,,,,,,,,,,,,,,,0.569444444,0.069444444,0,0,0,,,,,,,BAMBOO,HB,z,m,./images/BAMBOOHB.png,,,,,,,,,,,,,,,,,,,,m,0,1.407,,,,,,,,0,112,112,89,1
,,,,,,,,,,,,,,,,,60b7f09a4462d1d1aa6bbcf6,20,2022-02-12_17h36.28.076,lexical_decision_task_DD_L3,2021.2.3,Linux x86_64,59.88023952,,,,,,,,,,,,1.173,1,,,,,,,,,,,,,,,,,,,,,,,,0.569444444,0.069444444,0,0,0,,,,,,,POSTER,HB,z,m,./images/POSTERHB.png,,,,,,,,,,,,,,,,,,,,z,1,1.173,,,,,,,,0,113,113,137,1
,,,,,,,,,,,,,,,,,60b7f09a4462d1d1aa6bbcf6,20,2022-02-12_17h36.28.076,lexical_decision_task_DD_L3,2021.2.3,Linux x86_64,59.88023952,,,,,,,,,,,,2.112,1,,,,,,,,,,,,,,,,,,,,,,,,0.569444444,0.069444444,0,0,0,,,,,,,SNAKE,C,z,m,./images/SNAKE.png,,,,,,,,,,,,,,,,,,,,z,1,2.112,,,,,,,,0,114,114,124,1
,,,,,,,,,,,,,,,,,60b7f09a4462d1d1aa6bbcf6,20,2022-02-12_17h36.28.076,lexical_decision_task_DD_L3,2021.2.3,Linux x86_64,59.88023952,,,,,,,,,,,,1.13,1,,,,,,,,,,,,,,,,,,,,,,,,0.569444444,0.069444444,0,0,0,,,,,,,MOTOR,C,m,m,./images/MOTOR.png,,,,,,,,,,,,,,,,,,,,m,1,1.13,,,,,,,,0,115,115,13,1
,,,,,,,,,,,,,,,,,60b7f09a4462d1d1aa6bbcf6,20,2022-02-12_17h36.28.076,lexical_decision_task_DD_L3,2021.2.3,Linux x86_64,59.88023952,,,,,,,,,,,,1.294,1,,,,,,,,,,,,,,,,,,,,,,,,0.569444444,0.069444444,0,0,0,,,,,,,CEMENT,HB,m,m,./images/CEMENTHB.png,,,,,,,,,,,,,,,,,,,,m,1,1.294,,,,,,,,0,116,116,74,1
,,,,,,,,,,,,,,,,,60b7f09a4462d1d1aa6bbcf6,20,2022-02-12_17h36.28.076,lexical_decision_task_DD_L3,2021.2.3,Linux x86_64,59.88023952,,,,,,,,,,,,2.002,1,,,,,,,,,,,,,,,,,,,,,,,,0.569444444,0.069444444,0,0,0,,,,,,,LIZARD,HB,m,m,./images/LIZARDHB.png,,,,,,,,,,,,,,,,,,,,m,1,2.002,,,,,,,,0,117,117,44,1
,,,,,,,,,,,,,,,,,60b7f09a4462d1d1aa6bbcf6,20,2022-02-12_17h36.28.076,lexical_decision_task_DD_L3,2021.2.3,Linux x86_64,59.88023952,,,,,,,,,,,,1.372,1,,,,,,,,,,,,,,,,,,,,,,,,0.569444444,0.069444444,0,0,0,,,,,,,MIDGET,C,z,m,./images/MIDGET.png,,,,,,,,,,,,,,,,,,,,z,1,1.372,,,,,,,,0,118,118,160,1
,,,,,,,,,,,,,,,,,60b7f09a4462d1d1aa6bbcf6,20,2022-02-12_17h36.28.076,lexical_decision_task_DD_L3,2021.2.3,Linux x86_64,59.88023952,,,,,,,,,,,,2.796,0,,,,,,,,,,,,,,,,,,,,,,,,0.569444444,0.069444444,0,0,0,,,,,,,CRADLE,HB,m,m,./images/CRADLEHB.png,,,,,,,,,,,,,,,,,,,,z,0,2.796,,,,,,,,0,119,119,20,1
,,,,,,,,,,,,,,,,,60b7f09a4462d1d1aa6bbcf6,20,2022-02-12_17h36.28.076,lexical_decision_task_DD_L3,2021.2.3,Linux x86_64,59.88023952,,,,,,,,,,,,2.512,0,,,,,,,,,,,,,,,,,,,,,,,,0.569444444,0.069444444,0,0,0,,,,,,,KITTEN,LB,m,m,./images/KITTENLB.png,,,,,,,,,,,,,,,,,,,,z,0,2.512,,,,,,,,0,120,120,45,1
,,,,,,,,,,,,,,,,,60b7f09a4462d1d1aa6bbcf6,20,2022-02-12_17h36.28.076,lexical_decision_task_DD_L3,2021.2.3,Linux x86_64,59.88023952,,,,,,,,,,,,4.541,0,,,,,,,,,,,,,,,,,,,,,,,,0.569444444,0.069444444,0,0,0,,,,,,,SPINE,HB,z,m,./images/SPINEHB.png,,,,,,,,,,,,,,,,,,,,m,0,4.541,,,,,,,,0,121,121,149,1
,,,,,,,,,,,,,,,,,60b7f09a4462d1d1aa6bbcf6,20,2022-02-12_17h36.28.076,lexical_decision_task_DD_L3,2021.2.3,Linux x86_64,59.88023952,,,,,,,,,,,,1.079,1,,,,,,,,,,,,,,,,,,,,,,,,0.569444444,0.069444444,0,0,0,,,,,,,GLOVE,C,z,m,./images/GLOVE.png,,,,,,,,,,,,,,,,,,,,z,1,1.079,,,,,,,,0,122,122,157,1
,,,,,,,,,,,,,,,,,60b7f09a4462d1d1aa6bbcf6,20,2022-02-12_17h36.28.076,lexical_decision_task_DD_L3,2021.2.3,Linux x86_64,59.88023952,,,,,,,,,,,,0.793,1,,,,,,,,,,,,,,,,,,,,,,,,0.569444444,0.069444444,0,0,0,,,,,,,TORCH,HB,m,m,./images/TORCHHB.png,,,,,,,,,,,,,,,,,,,,m,1,0.793,,,,,,,,0,123,123,68,1
,,,,,,,,,,,,,,,,,60b7f09a4462d1d1aa6bbcf6,20,2022-02-12_17h36.28.076,lexical_decision_task_DD_L3,2021.2.3,Linux x86_64,59.88023952,,,,,,,,,,,,2.361,0,,,,,,,,,,,,,,,,,,,,,,,,0.569444444,0.069444444,0,0,0,,,,,,,MONKEY,LB,z,m,./images/MONKEYLB.png,,,,,,,,,,,,,,,,,,,,m,0,2.361,,,,,,,,0,124,124,129,1
,,,,,,,,,,,,,,,,,60b7f09a4462d1d1aa6bbcf6,20,2022-02-12_17h36.28.076,lexical_decision_task_DD_L3,2021.2.3,Linux x86_64,59.88023952,,,,,,,,,,,,0.958,1,,,,,,,,,,,,,,,,,,,,,,,,0.569444444,0.069444444,0,0,0,space,,,,,,MUFFIN,C,m,m,./images/MUFFIN.png,1.112,,,,,,,,,,,,,,,,,,,m,1,0.958,,,,,,,,0,125,125,55,1
,,,,,,,,,,,,,,,,,60b7f09a4462d1d1aa6bbcf6,20,2022-02-12_17h36.28.076,lexical_decision_task_DD_L3,2021.2.3,Linux x86_64,59.88023952,,,,,,,,,,,,0.992,1,,,,,,,,,,,,,,,,,,,,,,,,0.569444444,0.069444444,0,0,0,,,,,,,FLESH,LB,z,m,./images/FLESHLB.png,,,,,,,,,,,,,,,,,,,,z,1,0.992,,,,,,,,0,126,126,108,1
,,,,,,,,,,,,,,,,,60b7f09a4462d1d1aa6bbcf6,20,2022-02-12_17h36.28.076,lexical_decision_task_DD_L3,2021.2.3,Linux x86_64,59.88023952,,,,,,,,,,,,1.356,1,,,,,,,,,,,,,,,,,,,,,,,,0.569444444,0.069444444,0,0,0,,,,,,,BAKER,LB,z,m,./images/BAKERLB.png,,,,,,,,,,,,,,,,,,,,z,1,1.356,,,,,,,,0,127,127,147,1
,,,,,,,,,,,,,,,,,60b7f09a4462d1d1aa6bbcf6,20,2022-02-12_17h36.28.076,lexical_decision_task_DD_L3,2021.2.3,Linux x86_64,59.88023952,,,,,,,,,,,,1.976,0,,,,,,,,,,,,,,,,,,,,,,,,0.569444444,0.069444444,0,0,0,,,,,,,WHEEL,HB,z,m,./images/WHEELHB.png,,,,,,,,,,,,,,,,,,,,m,0,1.976,,,,,,,,0,128,128,161,1
,,,,,,,,,,,,,,,,,60b7f09a4462d1d1aa6bbcf6,20,2022-02-12_17h36.28.076,lexical_decision_task_DD_L3,2021.2.3,Linux x86_64,59.88023952,,,,,,,,,,,,1.249,0,,,,,,,,,,,,,,,,,,,,,,,,0.569444444,0.069444444,0,0,0,,,,,,,GRANNY,HB,z,m,./images/GRANNYHB.png,,,,,,,,,,,,,,,,,,,,m,0,1.249,,,,,,,,0,129,129,104,1
,,,,,,,,,,,,,,,,,60b7f09a4462d1d1aa6bbcf6,20,2022-02-12_17h36.28.076,lexical_decision_task_DD_L3,2021.2.3,Linux x86_64,59.88023952,,,,,,,,,,,,1.112,1,,,,,,,,,,,,,,,,,,,,,,,,0.569444444,0.069444444,0,0,0,,,,,,,LAGOON,HB,z,m,./images/LAGOONHB.png,,,,,,,,,,,,,,,,,,,,z,1,1.112,,,,,,,,0,130,130,131,1
