key_resp.keys,key_resp.rt,instr_done_touch.x,instr_done_touch.y,instr_done_touch.leftButton,instr_done_touch.midButton,instr_done_touch.rightButton,instruction_pages.thisRepN,instruction_pages.thisTrialN,instruction_pages.thisN,instruction_pages.thisIndex,instruction_pages.ran,pageN,phase,instruct_text,has_image,instruct_image,participant,age,date,expName,psychopyVersion,OS,frameRate,response.keys,response.corr,response.rt,touch_resp.x,touch_resp.y,touch_resp.leftButton,touch_resp.midButton,touch_resp.rightButton,touch_resp.time,touch_resp.clicked_name,rt,corr,practrials.thisRepN,practrials.thisTrialN,practrials.thisN,practrials.thisIndex,practrials.ran,TrialID,Target,corrAns,end_of_practice_trials_pages.thisRepN,end_of_practice_trials_pages.thisTrialN,end_of_practice_trials_pages.thisN,end_of_practice_trials_pages.thisIndex,end_of_practice_trials_pages.ran,key_resp_2.keys,key_resp_2.corr,key_resp_2.rt,targ_click.x,targ_click.y,targ_click.leftButton,targ_click.midButton,targ_click.rightButton,targ_click.time,targ_click.clicked_name,break_done_touch.x,break_done_touch.y,break_done_touch.leftButton,break_done_touch.midButton,break_done_touch.rightButton,break_done_keyboard.keys,maintrials.thisRepN,maintrials.thisTrialN,maintrials.thisN,maintrials.thisIndex,maintrials.ran,string,blur,study,lex,stim_path,break_done_keyboard.rt,mouse_2.x,mouse_2.y,mouse_2.leftButton,mouse_2.midButton,mouse_2.rightButton,mouse_2.clicked_name,slider.response,slider.rt,trials.thisRepN,trials.thisTrialN,trials.thisN,trials.thisIndex,trials.ran,test_instructions.thisRepN,test_instructions.thisTrialN,test_instructions.thisN,test_instructions.thisIndex,test_instructions.ran,instr_done_touch.clicked_name,key_resp_3.keys,key_resp_3.corr,key_resp_3.rt,test_click.x,test_click.y,test_click.leftButton,test_click.midButton,test_click.rightButton,test_click.time,test_click.clicked_name,test_phase.thisRepN,test_phase.thisTrialN,test_phase.thisN,test_phase.thisIndex,test_phase.ran
space,48.7691,-0.007777778,-0.394444444,0,0,0,0,0,0,0,1,1,instructions,"INSTRUCTIONS
At the start of each trial, look at the plus sign  (+) in the center of the screen.  This tells you that a trial is about to begin and where to look. Second, the plus sign will disappear and a string of letters will appear. Your task is to determine if the string of letters is a word or not. If the item is a word press the M key (on keyboard)  or touch the word button (phone/tablet).  If the item is not a word,  press the  Z key (on keyboard)  or touch the nonword button (on phone/tablet). 
Press the space bar or touch  continue.",0,,60be1e056f39c387c4f02308,35,2022-02-12_10h28.56.258,lexical_decision_task_DD_L5,2021.2.3,Win32,59.76929054,,,,,,,,,,,,,,,,,,,,,,,,,,,,,,,,,,,,,,,,,,,,,,,,,,,,,,,,,,,,,,,,,,,,,,,,,,,,,,,,,,,,,,
space,8.6976,-0.007777778,-0.394444444,0,0,0,0,1,1,1,1,2,instructions,"If your device has a keyboard, press the 'Z' key for nonwords and the 'M' key for words.





Press the space bar or touch the button below to continue.",0,keyboard-example.gif,60be1e056f39c387c4f02308,35,2022-02-12_10h28.56.258,lexical_decision_task_DD_L5,2021.2.3,Win32,59.76929054,,,,,,,,,,,,,,,,,,,,,,,,,,,,,,,,,,,,,,,,,,,,,,,,,,,,,,,,,,,,,,,,,,,,,,,,,,,,,,,,,,,,,,
space,4.8691,-0.007777778,-0.39,0,0,0,0,2,2,2,1,3,instructions,"If you are using a touchscreen only device, use the buttons on the screen. Do not use the mouse.





Press the space bar or touch the button below to continue.",0,touchscreen-example.gif,60be1e056f39c387c4f02308,35,2022-02-12_10h28.56.258,lexical_decision_task_DD_L5,2021.2.3,Win32,59.76929054,,,,,,,,,,,,,,,,,,,,,,,,,,,,,,,,,,,,,,,,,,,,,,,,,,,,,,,,,,,,,,,,,,,,,,,,,,,,,,,,,,,,,,
space,21.7973,-0.007777778,-0.39,0,0,0,0,3,3,3,1,4,instructions,"It is very important that you respond as quickly and accurately as possible, as each letter string will only be on the screen for two seconds. If you do not respond within this time, the message 'Too slow!' will be displayed and the experiment will progress to the next letter string. The first 20 trials will be practice trials and you will receive feedback on your answers. 

Press the space bar or touch the button below to start the practice trials.",0,,60be1e056f39c387c4f02308,35,2022-02-12_10h28.56.258,lexical_decision_task_DD_L5,2021.2.3,Win32,59.76929054,,,,,,,,,,,,,,,,,,,,,,,,,,,,,,,,,,,,,,,,,,,,,,,,,,,,,,,,,,,,,,,,,,,,,,,,,,,,,,,,,,,,,,
,,,,,,,,,,,,,,,,,60be1e056f39c387c4f02308,35,2022-02-12_10h28.56.258,lexical_decision_task_DD_L5,2021.2.3,Win32,59.76929054,m,1,1.1793,,,,,,,,1.1793,1,0,0,0,6,1,1001,ZOMBIE,m,,,,,,,,,,,,,,,,,,,,,,,,,,,,,,,,,,,,,,,,,,,,,,,,,,,,,,,,,,,,,,,,,,
,,,,,,,,,,,,,,,,,60be1e056f39c387c4f02308,35,2022-02-12_10h28.56.258,lexical_decision_task_DD_L5,2021.2.3,Win32,59.76929054,m,1,0.8197,,,,,,,,0.8197,1,0,1,1,2,1,1001,ALMOND,m,,,,,,,,,,,,,,,,,,,,,,,,,,,,,,,,,,,,,,,,,,,,,,,,,,,,,,,,,,,,,,,,,,
,,,,,,,,,,,,,,,,,60be1e056f39c387c4f02308,35,2022-02-12_10h28.56.258,lexical_decision_task_DD_L5,2021.2.3,Win32,59.76929054,z,1,1.0533,,,,,,,,1.0533,1,0,2,2,14,1,1001,THRALE,z,,,,,,,,,,,,,,,,,,,,,,,,,,,,,,,,,,,,,,,,,,,,,,,,,,,,,,,,,,,,,,,,,,
,,,,,,,,,,,,,,,,,60be1e056f39c387c4f02308,35,2022-02-12_10h28.56.258,lexical_decision_task_DD_L5,2021.2.3,Win32,59.76929054,m,1,0.6844,,,,,,,,0.6844,1,0,3,3,7,1,1001,VOLUME,m,,,,,,,,,,,,,,,,,,,,,,,,,,,,,,,,,,,,,,,,,,,,,,,,,,,,,,,,,,,,,,,,,,
,,,,,,,,,,,,,,,,,60be1e056f39c387c4f02308,35,2022-02-12_10h28.56.258,lexical_decision_task_DD_L5,2021.2.3,Win32,59.76929054,m,1,1.2092,,,,,,,,1.2092,1,0,4,4,4,1,1001,SQUEAK,m,,,,,,,,,,,,,,,,,,,,,,,,,,,,,,,,,,,,,,,,,,,,,,,,,,,,,,,,,,,,,,,,,,
,,,,,,,,,,,,,,,,,60be1e056f39c387c4f02308,35,2022-02-12_10h28.56.258,lexical_decision_task_DD_L5,2021.2.3,Win32,59.76929054,z,1,0.9355,,,,,,,,0.9355,1,0,5,5,15,1,1001,WHAISE,z,,,,,,,,,,,,,,,,,,,,,,,,,,,,,,,,,,,,,,,,,,,,,,,,,,,,,,,,,,,,,,,,,,
,,,,,,,,,,,,,,,,,60be1e056f39c387c4f02308,35,2022-02-12_10h28.56.258,lexical_decision_task_DD_L5,2021.2.3,Win32,59.76929054,m,1,1.0702,,,,,,,,1.0702,1,0,6,6,5,1,1001,OBTAIN,m,,,,,,,,,,,,,,,,,,,,,,,,,,,,,,,,,,,,,,,,,,,,,,,,,,,,,,,,,,,,,,,,,,
,,,,,,,,,,,,,,,,,60be1e056f39c387c4f02308,35,2022-02-12_10h28.56.258,lexical_decision_task_DD_L5,2021.2.3,Win32,59.76929054,m,1,1.0878,,,,,,,,1.0878,1,0,7,7,3,1,1001,MATRIX,m,,,,,,,,,,,,,,,,,,,,,,,,,,,,,,,,,,,,,,,,,,,,,,,,,,,,,,,,,,,,,,,,,,
,,,,,,,,,,,,,,,,,60be1e056f39c387c4f02308,35,2022-02-12_10h28.56.258,lexical_decision_task_DD_L5,2021.2.3,Win32,59.76929054,z,1,1.1175,,,,,,,,1.1175,1,0,8,8,10,1,1001,INLADE,z,,,,,,,,,,,,,,,,,,,,,,,,,,,,,,,,,,,,,,,,,,,,,,,,,,,,,,,,,,,,,,,,,,
,,,,,,,,,,,,,,,,,60be1e056f39c387c4f02308,35,2022-02-12_10h28.56.258,lexical_decision_task_DD_L5,2021.2.3,Win32,59.76929054,m,0,0.9849,,,,,,,,0.9849,0,0,9,9,8,1,1001,ASLERT,z,,,,,,,,,,,,,,,,,,,,,,,,,,,,,,,,,,,,,,,,,,,,,,,,,,,,,,,,,,,,,,,,,,
,,,,,,,,,,,,,,,,,60be1e056f39c387c4f02308,35,2022-02-12_10h28.56.258,lexical_decision_task_DD_L5,2021.2.3,Win32,59.76929054,z,1,1.3876,,,,,,,,1.3876,1,0,10,10,9,1,1001,FARINY,z,,,,,,,,,,,,,,,,,,,,,,,,,,,,,,,,,,,,,,,,,,,,,,,,,,,,,,,,,,,,,,,,,,
,,,,,,,,,,,,,,,,,60be1e056f39c387c4f02308,35,2022-02-12_10h28.56.258,lexical_decision_task_DD_L5,2021.2.3,Win32,59.76929054,m,0,1.3623,,,,,,,,1.3623,0,0,11,11,12,1,1001,SPRINY,z,,,,,,,,,,,,,,,,,,,,,,,,,,,,,,,,,,,,,,,,,,,,,,,,,,,,,,,,,,,,,,,,,,
,,,,,,,,,,,,,,,,,60be1e056f39c387c4f02308,35,2022-02-12_10h28.56.258,lexical_decision_task_DD_L5,2021.2.3,Win32,59.76929054,m,0,1.8835,,,,,,,,1.8835,0,0,12,12,11,1,1001,RASHET,z,,,,,,,,,,,,,,,,,,,,,,,,,,,,,,,,,,,,,,,,,,,,,,,,,,,,,,,,,,,,,,,,,,
,,,,,,,,,,,,,,,,,60be1e056f39c387c4f02308,35,2022-02-12_10h28.56.258,lexical_decision_task_DD_L5,2021.2.3,Win32,59.76929054,m,1,1.1357,,,,,,,,1.1357,1,0,13,13,1,1,1001,ADJUST,m,,,,,,,,,,,,,,,,,,,,,,,,,,,,,,,,,,,,,,,,,,,,,,,,,,,,,,,,,,,,,,,,,,
,,,,,,,,,,,,,,,,,60be1e056f39c387c4f02308,35,2022-02-12_10h28.56.258,lexical_decision_task_DD_L5,2021.2.3,Win32,59.76929054,z,1,1.3886,,,,,,,,1.3886,1,0,14,14,13,1,1001,ROUPET,z,,,,,,,,,,,,,,,,,,,,,,,,,,,,,,,,,,,,,,,,,,,,,,,,,,,,,,,,,,,,,,,,,,
,,,,,,,,,,,,,,,,,60be1e056f39c387c4f02308,35,2022-02-12_10h28.56.258,lexical_decision_task_DD_L5,2021.2.3,Win32,59.76929054,m,1,1.5707,,,,,,,,1.5707,1,0,15,15,0,1,1001,UTOPIA,m,,,,,,,,,,,,,,,,,,,,,,,,,,,,,,,,,,,,,,,,,,,,,,,,,,,,,,,,,,,,,,,,,,
space,18.3064,-0.007777778,-0.39,0,0,0,,,,,,1,end_of_practice,"You have completed the practice trials. During the experimental trials, you will not receive feedback. 
Before you begin, please ensure that you are in a comfortable and quiet location and will not be disturbed for about 15 minutes, as we cannot use your data if you do not complete all the trials. 
 When you are ready to start the experimental trials, please press space or touch the button below.",,,60be1e056f39c387c4f02308,35,2022-02-12_10h28.56.258,lexical_decision_task_DD_L5,2021.2.3,Win32,59.76929054,,,,,,,,,,,,,,,,,,,,,0,0,0,0,1,,,,,,,,,,,,,,,,,,,,,,,,,,,,,,,,,,,,,,,,,,,,,,,,,,,,,,,,,,,,,
,,,,,,,,,,,,,,,,,60be1e056f39c387c4f02308,35,2022-02-12_10h28.56.258,lexical_decision_task_DD_L5,2021.2.3,Win32,59.76929054,,,,,,,,,,,0.7308,1,,,,,,,,,,,,,,m,1,0.7308,,,,,,,,-0.007777778,-0.39,0,0,0,,0,0,0,59,1,BRUSH,C,old,m,./images/BRUSH.png,,,,,,,,,,,,,,,,,,,,,,,,,,,,,,,,,,,
,,,,,,,,,,,,,,,,,60be1e056f39c387c4f02308,35,2022-02-12_10h28.56.258,lexical_decision_task_DD_L5,2021.2.3,Win32,59.76929054,,,,,,,,,,,0.6122,1,,,,,,,,,,,,,,m,1,0.6122,,,,,,,,-0.007777778,-0.39,0,0,0,,0,1,1,41,1,STREAM,C,old,m,./images/STREAM.png,,,,,,,,,,,,,,,,,,,,,,,,,,,,,,,,,,,
,,,,,,,,,,,,,,,,,60be1e056f39c387c4f02308,35,2022-02-12_10h28.56.258,lexical_decision_task_DD_L5,2021.2.3,Win32,59.76929054,,,,,,,,,,,1.1124,1,,,,,,,,,,,,,,z,1,1.1124,,,,,,,,-0.007777778,-0.39,0,0,0,,0,2,2,99,1,BACKY,C,old,z,./images/BACKY.png,,,,,,,,,,,,,,,,,,,,,,,,,,,,,,,,,,,
,,,,,,,,,,,,,,,,,60be1e056f39c387c4f02308,35,2022-02-12_10h28.56.258,lexical_decision_task_DD_L5,2021.2.3,Win32,59.76929054,,,,,,,,,,,0.94,1,,,,,,,,,,,,,,m,1,0.94,,,,,,,,-0.007777778,-0.39,0,0,0,,0,3,3,7,1,WAGON,LB,old,m,./images/WAGONLB.png,,,,,,,,,,,,,,,,,,,,,,,,,,,,,,,,,,,
,,,,,,,,,,,,,,,,,60be1e056f39c387c4f02308,35,2022-02-12_10h28.56.258,lexical_decision_task_DD_L5,2021.2.3,Win32,59.76929054,,,,,,,,,,,1.0037,1,,,,,,,,,,,,,,z,1,1.0037,,,,,,,,-0.007777778,-0.39,0,0,0,,0,4,4,92,1,PAIMS,LB,old,z,./images/PAIMSLB.png,,,,,,,,,,,,,,,,,,,,,,,,,,,,,,,,,,,
,,,,,,,,,,,,,,,,,60be1e056f39c387c4f02308,35,2022-02-12_10h28.56.258,lexical_decision_task_DD_L5,2021.2.3,Win32,59.76929054,,,,,,,,,,,1.159,0,,,,,,,,,,,,,,m,0,1.159,,,,,,,,-0.007777778,-0.39,0,0,0,,0,5,5,159,1,CUDDY,C,old,z,./images/CUDDY.png,,,,,,,,,,,,,,,,,,,,,,,,,,,,,,,,,,,
,,,,,,,,,,,,,,,,,60be1e056f39c387c4f02308,35,2022-02-12_10h28.56.258,lexical_decision_task_DD_L5,2021.2.3,Win32,59.76929054,,,,,,,,,,,1.3599,0,,,,,,,,,,,,,,m,0,1.3599,,,,,,,,-0.007777778,-0.39,0,0,0,,0,6,6,120,1,RINED,C,old,z,./images/RINED.png,,,,,,,,,,,,,,,,,,,,,,,,,,,,,,,,,,,
,,,,,,,,,,,,,,,,,60be1e056f39c387c4f02308,35,2022-02-12_10h28.56.258,lexical_decision_task_DD_L5,2021.2.3,Win32,59.76929054,,,,,,,,,,,1.3417,1,,,,,,,,,,,,,,z,1,1.3417,,,,,,,,-0.007777778,-0.39,0,0,0,,0,7,7,149,1,VEASE,LB,old,z,./images/VEASELB.png,,,,,,,,,,,,,,,,,,,,,,,,,,,,,,,,,,,
,,,,,,,,,,,,,,,,,60be1e056f39c387c4f02308,35,2022-02-12_10h28.56.258,lexical_decision_task_DD_L5,2021.2.3,Win32,59.76929054,,,,,,,,,,,0.7622,1,,,,,,,,,,,,,,m,1,0.7622,,,,,,,,-0.007777778,-0.39,0,0,0,,0,8,8,74,1,JUMPER,C,old,m,./images/JUMPER.png,,,,,,,,,,,,,,,,,,,,,,,,,,,,,,,,,,,
,,,,,,,,,,,,,,,,,60be1e056f39c387c4f02308,35,2022-02-12_10h28.56.258,lexical_decision_task_DD_L5,2021.2.3,Win32,59.76929054,,,,,,,,,,,1.1187,1,,,,,,,,,,,,,,m,1,1.1187,,,,,,,,-0.007777778,-0.39,0,0,0,,0,9,9,63,1,BAKER,HB,old,m,./images/BAKERHB.png,,,,,,,,,,,,,,,,,,,,,,,,,,,,,,,,,,,
,,,,,,,,,,,,,,,,,60be1e056f39c387c4f02308,35,2022-02-12_10h28.56.258,lexical_decision_task_DD_L5,2021.2.3,Win32,59.76929054,,,,,,,,,,,0.8008,1,,,,,,,,,,,,,,m,1,0.8008,,,,,,,,-0.007777778,-0.39,0,0,0,,0,10,10,82,1,PEBBLE,LB,old,m,./images/PEBBLELB.png,,,,,,,,,,,,,,,,,,,,,,,,,,,,,,,,,,,
,,,,,,,,,,,,,,,,,60be1e056f39c387c4f02308,35,2022-02-12_10h28.56.258,lexical_decision_task_DD_L5,2021.2.3,Win32,59.76929054,,,,,,,,,,,0.7197,1,,,,,,,,,,,,,,m,1,0.7197,,,,,,,,-0.007777778,-0.39,0,0,0,,0,11,11,31,1,STEAK,LB,old,m,./images/STEAKLB.png,,,,,,,,,,,,,,,,,,,,,,,,,,,,,,,,,,,
,,,,,,,,,,,,,,,,,60be1e056f39c387c4f02308,35,2022-02-12_10h28.56.258,lexical_decision_task_DD_L5,2021.2.3,Win32,59.76929054,,,,,,,,,,,0.5557,1,,,,,,,,,,,,,,m,1,0.5557,,,,,,,,-0.007777778,-0.39,0,0,0,,0,12,12,2,1,STOVE,C,old,m,./images/STOVE.png,,,,,,,,,,,,,,,,,,,,,,,,,,,,,,,,,,,
,,,,,,,,,,,,,,,,,60be1e056f39c387c4f02308,35,2022-02-12_10h28.56.258,lexical_decision_task_DD_L5,2021.2.3,Win32,59.76929054,,,,,,,,,,,1.1053,0,,,,,,,,,,,,,,m,0,1.1053,,,,,,,,-0.007777778,-0.39,0,0,0,,0,13,13,152,1,FRAIN,LB,old,z,./images/FRAINLB.png,,,,,,,,,,,,,,,,,,,,,,,,,,,,,,,,,,,
,,,,,,,,,,,,,,,,,60be1e056f39c387c4f02308,35,2022-02-12_10h28.56.258,lexical_decision_task_DD_L5,2021.2.3,Win32,59.76929054,,,,,,,,,,,1.1202,0,,,,,,,,,,,,,,m,0,1.1202,,,,,,,,-0.007777778,-0.39,0,0,0,,0,14,14,85,1,CHULK,HB,old,z,./images/CHULKHB.png,,,,,,,,,,,,,,,,,,,,,,,,,,,,,,,,,,,
,,,,,,,,,,,,,,,,,60be1e056f39c387c4f02308,35,2022-02-12_10h28.56.258,lexical_decision_task_DD_L5,2021.2.3,Win32,59.76929054,,,,,,,,,,,0.8399,1,,,,,,,,,,,,,,m,1,0.8399,,,,,,,,-0.007777778,-0.39,0,0,0,,0,15,15,81,1,DRILL,HB,old,m,./images/DRILLHB.png,,,,,,,,,,,,,,,,,,,,,,,,,,,,,,,,,,,
,,,,,,,,,,,,,,,,,60be1e056f39c387c4f02308,35,2022-02-12_10h28.56.258,lexical_decision_task_DD_L5,2021.2.3,Win32,59.76929054,,,,,,,,,,,1.0855,0,,,,,,,,,,,,,,m,0,1.0855,,,,,,,,-0.007777778,-0.39,0,0,0,,0,16,16,157,1,INLER,HB,old,z,./images/INLERHB.png,,,,,,,,,,,,,,,,,,,,,,,,,,,,,,,,,,,
,,,,,,,,,,,,,,,,,60be1e056f39c387c4f02308,35,2022-02-12_10h28.56.258,lexical_decision_task_DD_L5,2021.2.3,Win32,59.76929054,,,,,,,,,,,0.8339,1,,,,,,,,,,,,,,m,1,0.8339,,,,,,,,-0.007777778,-0.39,0,0,0,,0,17,17,29,1,PISTOL,C,old,m,./images/PISTOL.png,,,,,,,,,,,,,,,,,,,,,,,,,,,,,,,,,,,
,,,,,,,,,,,,,,,,,60be1e056f39c387c4f02308,35,2022-02-12_10h28.56.258,lexical_decision_task_DD_L5,2021.2.3,Win32,59.76929054,,,,,,,,,,,1.2828,0,,,,,,,,,,,,,,m,0,1.2828,,,,,,,,-0.007777778,-0.39,0,0,0,,0,18,18,103,1,FLORT,HB,old,z,./images/FLORTHB.png,,,,,,,,,,,,,,,,,,,,,,,,,,,,,,,,,,,
,,,,,,,,,,,,,,,,,60be1e056f39c387c4f02308,35,2022-02-12_10h28.56.258,lexical_decision_task_DD_L5,2021.2.3,Win32,59.76929054,,,,,,,,,,,1.2166,1,,,,,,,,,,,,,,m,1,1.2166,,,,,,,,-0.007777778,-0.39,0,0,0,,0,19,19,3,1,CRATER,HB,old,m,./images/CRATERHB.png,,,,,,,,,,,,,,,,,,,,,,,,,,,,,,,,,,,
,,,,,,,,,,,,,,,,,60be1e056f39c387c4f02308,35,2022-02-12_10h28.56.258,lexical_decision_task_DD_L5,2021.2.3,Win32,59.76929054,,,,,,,,,,,0.7518,1,,,,,,,,,,,,,,m,1,0.7518,,,,,,,,-0.007777778,-0.39,0,0,0,,0,20,20,52,1,DESERT,LB,old,m,./images/DESERTLB.png,,,,,,,,,,,,,,,,,,,,,,,,,,,,,,,,,,,
,,,,,,,,,,,,,,,,,60be1e056f39c387c4f02308,35,2022-02-12_10h28.56.258,lexical_decision_task_DD_L5,2021.2.3,Win32,59.76929054,,,,,,,,,,,0.7036,1,,,,,,,,,,,,,,m,1,0.7036,,,,,,,,-0.007777778,-0.39,0,0,0,,0,21,21,37,1,TIGER,LB,old,m,./images/TIGERLB.png,,,,,,,,,,,,,,,,,,,,,,,,,,,,,,,,,,,
,,,,,,,,,,,,,,,,,60be1e056f39c387c4f02308,35,2022-02-12_10h28.56.258,lexical_decision_task_DD_L5,2021.2.3,Win32,59.76929054,,,,,,,,,,,0.6837,1,,,,,,,,,,,,,,m,1,0.6837,,,,,,,,-0.007777778,-0.39,0,0,0,,0,22,22,16,1,GRAPE,LB,old,m,./images/GRAPELB.png,,,,,,,,,,,,,,,,,,,,,,,,,,,,,,,,,,,
,,,,,,,,,,,,,,,,,60be1e056f39c387c4f02308,35,2022-02-12_10h28.56.258,lexical_decision_task_DD_L5,2021.2.3,Win32,59.76929054,,,,,,,,,,,0.7394,1,,,,,,,,,,,,,,m,1,0.7394,,,,,,,,-0.007777778,-0.39,0,0,0,,0,23,23,27,1,BUTTER,HB,old,m,./images/BUTTERHB.png,,,,,,,,,,,,,,,,,,,,,,,,,,,,,,,,,,,
,,,,,,,,,,,,,,,,,60be1e056f39c387c4f02308,35,2022-02-12_10h28.56.258,lexical_decision_task_DD_L5,2021.2.3,Win32,59.76929054,,,,,,,,,,,0.5807,1,,,,,,,,,,,,,,m,1,0.5807,,,,,,,,-0.007777778,-0.39,0,0,0,,0,24,24,67,1,POKER,LB,old,m,./images/POKERLB.png,,,,,,,,,,,,,,,,,,,,,,,,,,,,,,,,,,,
,,,,,,,,,,,,,,,,,60be1e056f39c387c4f02308,35,2022-02-12_10h28.56.258,lexical_decision_task_DD_L5,2021.2.3,Win32,59.76929054,,,,,,,,,,,0.5695,1,,,,,,,,,,,,,,m,1,0.5695,,,,,,,,-0.007777778,-0.39,0,0,0,,0,25,25,46,1,MUMMY,LB,old,m,./images/MUMMYLB.png,,,,,,,,,,,,,,,,,,,,,,,,,,,,,,,,,,,
,,,,,,,,,,,,,,,,,60be1e056f39c387c4f02308,35,2022-02-12_10h28.56.258,lexical_decision_task_DD_L5,2021.2.3,Win32,59.76929054,,,,,,,,,,,0.7623,1,,,,,,,,,,,,,,m,1,0.7623,,,,,,,,-0.007777778,-0.39,0,0,0,,0,26,26,39,1,CANDY,HB,old,m,./images/CANDYHB.png,,,,,,,,,,,,,,,,,,,,,,,,,,,,,,,,,,,
,,,,,,,,,,,,,,,,,60be1e056f39c387c4f02308,35,2022-02-12_10h28.56.258,lexical_decision_task_DD_L5,2021.2.3,Win32,59.76929054,,,,,,,,,,,0.6705,1,,,,,,,,,,,,,,m,1,0.6705,,,,,,,,-0.007777778,-0.39,0,0,0,,0,27,27,69,1,ARROW,HB,old,m,./images/ARROWHB.png,,,,,,,,,,,,,,,,,,,,,,,,,,,,,,,,,,,
,,,,,,,,,,,,,,,,,60be1e056f39c387c4f02308,35,2022-02-12_10h28.56.258,lexical_decision_task_DD_L5,2021.2.3,Win32,59.76929054,,,,,,,,,,,1.9747,0,,,,,,,,,,,,,,m,0,1.9747,,,,,,,,-0.007777778,-0.39,0,0,0,,0,28,28,124,1,TUNCH,HB,old,z,./images/TUNCHHB.png,,,,,,,,,,,,,,,,,,,,,,,,,,,,,,,,,,,
,,,,,,,,,,,,,,,,,60be1e056f39c387c4f02308,35,2022-02-12_10h28.56.258,lexical_decision_task_DD_L5,2021.2.3,Win32,59.76929054,,,,,,,,,,,0.7251,1,,,,,,,,,,,,,,m,1,0.7251,,,,,,,,-0.007777778,-0.39,0,0,0,,0,29,29,43,1,STOOL,LB,old,m,./images/STOOLLB.png,,,,,,,,,,,,,,,,,,,,,,,,,,,,,,,,,,,
,,,,,,,,,,,,,,,,,60be1e056f39c387c4f02308,35,2022-02-12_10h28.56.258,lexical_decision_task_DD_L5,2021.2.3,Win32,59.76929054,,,,,,,,,,,1.2811,1,,,,,,,,,,,,,,z,1,1.2811,,,,,,,,-0.007777778,-0.39,0,0,0,,0,30,30,144,1,NAIRY,C,old,z,./images/NAIRY.png,,,,,,,,,,,,,,,,,,,,,,,,,,,,,,,,,,,
,,,,,,,,,,,,,,,,,60be1e056f39c387c4f02308,35,2022-02-12_10h28.56.258,lexical_decision_task_DD_L5,2021.2.3,Win32,59.76929054,,,,,,,,,,,0.7289,1,,,,,,,,,,,,,,m,1,0.7289,,,,,,,,-0.007777778,-0.39,0,0,0,,0,31,31,51,1,SAUCE,HB,old,m,./images/SAUCEHB.png,,,,,,,,,,,,,,,,,,,,,,,,,,,,,,,,,,,
,,,,,,,,,,,,,,,,,60be1e056f39c387c4f02308,35,2022-02-12_10h28.56.258,lexical_decision_task_DD_L5,2021.2.3,Win32,59.76929054,,,,,,,,,,,0.5501,1,,,,,,,,,,,,,,m,1,0.5501,,,,,,,,-0.007777778,-0.39,0,0,0,,0,32,32,28,1,CASINO,LB,old,m,./images/CASINOLB.png,,,,,,,,,,,,,,,,,,,,,,,,,,,,,,,,,,,
,,,,,,,,,,,,,,,,,60be1e056f39c387c4f02308,35,2022-02-12_10h28.56.258,lexical_decision_task_DD_L5,2021.2.3,Win32,59.76929054,,,,,,,,,,,0.5666,1,,,,,,,,,,,,,,m,1,0.5666,,,,,,,,-0.007777778,-0.39,0,0,0,,0,33,33,73,1,GLOVE,LB,old,m,./images/GLOVELB.png,,,,,,,,,,,,,,,,,,,,,,,,,,,,,,,,,,,
,,,,,,,,,,,,,,,,,60be1e056f39c387c4f02308,35,2022-02-12_10h28.56.258,lexical_decision_task_DD_L5,2021.2.3,Win32,59.76929054,,,,,,,,,,,1.3679,0,,,,,,,,,,,,,,m,0,1.3679,,,,,,,,-0.007777778,-0.39,0,0,0,,0,34,34,88,1,GLUSH,HB,old,z,./images/GLUSHHB.png,,,,,,,,,,,,,,,,,,,,,,,,,,,,,,,,,,,
,,,,,,,,,,,,,,,,,60be1e056f39c387c4f02308,35,2022-02-12_10h28.56.258,lexical_decision_task_DD_L5,2021.2.3,Win32,59.76929054,,,,,,,,,,,2.1328,1,,,,,,,,,,,,,,z,1,2.1328,,,,,,,,-0.007777778,-0.39,0,0,0,,0,35,35,118,1,BAVEL,HB,old,z,./images/BAVELHB.png,,,,,,,,,,,,,,,,,,,,,,,,,,,,,,,,,,,
,,,,,,,,,,,,,,,,,60be1e056f39c387c4f02308,35,2022-02-12_10h28.56.258,lexical_decision_task_DD_L5,2021.2.3,Win32,59.76929054,,,,,,,,,,,0.9361,1,,,,,,,,,,,,,,m,1,0.9361,,,,,,,,-0.007777778,-0.39,0,0,0,,0,36,36,30,1,SLOPE,HB,old,m,./images/SLOPEHB.png,,,,,,,,,,,,,,,,,,,,,,,,,,,,,,,,,,,
,,,,,,,,,,,,,,,,,60be1e056f39c387c4f02308,35,2022-02-12_10h28.56.258,lexical_decision_task_DD_L5,2021.2.3,Win32,59.76929054,,,,,,,,,,,0.671,1,,,,,,,,,,,,,,m,1,0.671,,,,,,,,-0.007777778,-0.39,0,0,0,,0,37,37,13,1,BUNNY,LB,old,m,./images/BUNNYLB.png,,,,,,,,,,,,,,,,,,,,,,,,,,,,,,,,,,,
,,,,,,,,,,,,,,,,,60be1e056f39c387c4f02308,35,2022-02-12_10h28.56.258,lexical_decision_task_DD_L5,2021.2.3,Win32,59.76929054,,,,,,,,,,,0.7894,1,,,,,,,,,,,,,,z,1,0.7894,,,,,,,,-0.007777778,-0.39,0,0,0,,0,38,38,135,1,JOODY,C,old,z,./images/JOODY.png,,,,,,,,,,,,,,,,,,,,,,,,,,,,,,,,,,,
,,,,,,,,,,,,,,,,,60be1e056f39c387c4f02308,35,2022-02-12_10h28.56.258,lexical_decision_task_DD_L5,2021.2.3,Win32,59.76929054,,,,,,,,,,,1.0501,1,,,,,,,,,,,,,,z,1,1.0501,,,,,,,,-0.007777778,-0.39,0,0,0,,0,39,39,147,1,ZOLES,C,old,z,./images/ZOLES.png,,,,,,,,,,,,,,,,,,,,,,,,,,,,,,,,,,,
,,,,,,,,,,,,,,,,,60be1e056f39c387c4f02308,35,2022-02-12_10h28.56.258,lexical_decision_task_DD_L5,2021.2.3,Win32,59.76929054,,,,,,,,,,,0.6308,1,,,,,,,,,,,,,,m,1,0.6308,,,,,,,,-0.007777778,-0.39,0,0,0,,0,40,40,19,1,DONKEY,LB,old,m,./images/DONKEYLB.png,,,,,,,,,,,,,,,,,,,,,,,,,,,,,,,,,,,
,,,,,,,,,,,,,,,,,60be1e056f39c387c4f02308,35,2022-02-12_10h28.56.258,lexical_decision_task_DD_L5,2021.2.3,Win32,59.76929054,,,,,,,,,,,1.6513,1,,,,,,,,,,,,,,m,1,1.6513,,,,,,,,-0.007777778,-0.39,0,0,0,space,0,41,41,45,1,MONKEY,HB,old,m,./images/MONKEYHB.png,3.6745,,,,,,,,,,,,,,,,,,,,,,,,,,,,,,,,,,
,,,,,,,,,,,,,,,,,60be1e056f39c387c4f02308,35,2022-02-12_10h28.56.258,lexical_decision_task_DD_L5,2021.2.3,Win32,59.76929054,,,,,,,,,,,0.7228,1,,,,,,,,,,,,,,m,1,0.7228,,,,,,,,-0.007777778,-0.39,0,0,0,,0,42,42,56,1,HEATER,C,old,m,./images/HEATER.png,,,,,,,,,,,,,,,,,,,,,,,,,,,,,,,,,,,
,,,,,,,,,,,,,,,,,60be1e056f39c387c4f02308,35,2022-02-12_10h28.56.258,lexical_decision_task_DD_L5,2021.2.3,Win32,59.76929054,,,,,,,,,,,0.9715,1,,,,,,,,,,,,,,z,1,0.9715,,,,,,,,-0.007777778,-0.39,0,0,0,,0,43,43,93,1,SMONE,C,old,z,./images/SMONE.png,,,,,,,,,,,,,,,,,,,,,,,,,,,,,,,,,,,
,,,,,,,,,,,,,,,,,60be1e056f39c387c4f02308,35,2022-02-12_10h28.56.258,lexical_decision_task_DD_L5,2021.2.3,Win32,59.76929054,,,,,,,,,,,1.7234,1,,,,,,,,,,,,,,z,1,1.7234,,,,,,,,-0.007777778,-0.39,0,0,0,,0,44,44,97,1,CHIDS,HB,old,z,./images/CHIDSHB.png,,,,,,,,,,,,,,,,,,,,,,,,,,,,,,,,,,,
,,,,,,,,,,,,,,,,,60be1e056f39c387c4f02308,35,2022-02-12_10h28.56.258,lexical_decision_task_DD_L5,2021.2.3,Win32,59.76929054,,,,,,,,,,,0.6633,1,,,,,,,,,,,,,,m,1,0.6633,,,,,,,,-0.007777778,-0.39,0,0,0,,0,45,45,17,1,PARADE,C,old,m,./images/PARADE.png,,,,,,,,,,,,,,,,,,,,,,,,,,,,,,,,,,,
,,,,,,,,,,,,,,,,,60be1e056f39c387c4f02308,35,2022-02-12_10h28.56.258,lexical_decision_task_DD_L5,2021.2.3,Win32,59.76929054,,,,,,,,,,,0.7586,1,,,,,,,,,,,,,,m,1,0.7586,,,,,,,,-0.007777778,-0.39,0,0,0,,0,46,46,72,1,FLASK,HB,old,m,./images/FLASKHB.png,,,,,,,,,,,,,,,,,,,,,,,,,,,,,,,,,,,
,,,,,,,,,,,,,,,,,60be1e056f39c387c4f02308,35,2022-02-12_10h28.56.258,lexical_decision_task_DD_L5,2021.2.3,Win32,59.76929054,,,,,,,,,,,0.4876,1,,,,,,,,,,,,,,m,1,0.4876,,,,,,,,-0.007777778,-0.39,0,0,0,,0,47,47,55,1,ALLEY,LB,old,m,./images/ALLEYLB.png,,,,,,,,,,,,,,,,,,,,,,,,,,,,,,,,,,,
,,,,,,,,,,,,,,,,,60be1e056f39c387c4f02308,35,2022-02-12_10h28.56.258,lexical_decision_task_DD_L5,2021.2.3,Win32,59.76929054,,,,,,,,,,,1.6654,1,,,,,,,,,,,,,,z,1,1.6654,,,,,,,,-0.007777778,-0.39,0,0,0,,0,48,48,90,1,NEAST,C,old,z,./images/NEAST.png,,,,,,,,,,,,,,,,,,,,,,,,,,,,,,,,,,,
,,,,,,,,,,,,,,,,,60be1e056f39c387c4f02308,35,2022-02-12_10h28.56.258,lexical_decision_task_DD_L5,2021.2.3,Win32,59.76929054,,,,,,,,,,,0.9724,1,,,,,,,,,,,,,,z,1,0.9724,,,,,,,,-0.007777778,-0.39,0,0,0,,0,49,49,132,1,SCIFF,C,old,z,./images/SCIFF.png,,,,,,,,,,,,,,,,,,,,,,,,,,,,,,,,,,,
,,,,,,,,,,,,,,,,,60be1e056f39c387c4f02308,35,2022-02-12_10h28.56.258,lexical_decision_task_DD_L5,2021.2.3,Win32,59.76929054,,,,,,,,,,,0.6404,1,,,,,,,,,,,,,,m,1,0.6404,,,,,,,,-0.007777778,-0.39,0,0,0,,0,50,50,34,1,RAZOR,LB,old,m,./images/RAZORLB.png,,,,,,,,,,,,,,,,,,,,,,,,,,,,,,,,,,,
,,,,,,,,,,,,,,,,,60be1e056f39c387c4f02308,35,2022-02-12_10h28.56.258,lexical_decision_task_DD_L5,2021.2.3,Win32,59.76929054,,,,,,,,,,,0.9616,0,,,,,,,,,,,,,,m,0,0.9616,,,,,,,,-0.007777778,-0.39,0,0,0,,0,51,51,105,1,MOKER,C,old,z,./images/MOKER.png,,,,,,,,,,,,,,,,,,,,,,,,,,,,,,,,,,,
,,,,,,,,,,,,,,,,,60be1e056f39c387c4f02308,35,2022-02-12_10h28.56.258,lexical_decision_task_DD_L5,2021.2.3,Win32,59.76929054,,,,,,,,,,,0.5794,1,,,,,,,,,,,,,,m,1,0.5794,,,,,,,,-0.007777778,-0.39,0,0,0,,0,52,52,38,1,ENGINE,C,old,m,./images/ENGINE.png,,,,,,,,,,,,,,,,,,,,,,,,,,,,,,,,,,,
,,,,,,,,,,,,,,,,,60be1e056f39c387c4f02308,35,2022-02-12_10h28.56.258,lexical_decision_task_DD_L5,2021.2.3,Win32,59.76929054,,,,,,,,,,,0.6065,0,,,,,,,,,,,,,,m,0,0.6065,,,,,,,,-0.007777778,-0.39,0,0,0,,0,53,53,128,1,GRIFT,LB,old,z,./images/GRIFTLB.png,,,,,,,,,,,,,,,,,,,,,,,,,,,,,,,,,,,
,,,,,,,,,,,,,,,,,60be1e056f39c387c4f02308,35,2022-02-12_10h28.56.258,lexical_decision_task_DD_L5,2021.2.3,Win32,59.76929054,,,,,,,,,,,0.7461,1,,,,,,,,,,,,,,m,1,0.7461,,,,,,,,-0.007777778,-0.39,0,0,0,,0,54,54,8,1,CLIFF,C,old,m,./images/CLIFF.png,,,,,,,,,,,,,,,,,,,,,,,,,,,,,,,,,,,
,,,,,,,,,,,,,,,,,60be1e056f39c387c4f02308,35,2022-02-12_10h28.56.258,lexical_decision_task_DD_L5,2021.2.3,Win32,59.76929054,,,,,,,,,,,2.0891,0,,,,,,,,,,,,,,m,0,2.0891,,,,,,,,-0.007777778,-0.39,0,0,0,,0,55,55,154,1,THINT,HB,old,z,./images/THINTHB.png,,,,,,,,,,,,,,,,,,,,,,,,,,,,,,,,,,,
,,,,,,,,,,,,,,,,,60be1e056f39c387c4f02308,35,2022-02-12_10h28.56.258,lexical_decision_task_DD_L5,2021.2.3,Win32,59.76929054,,,,,,,,,,,0.774,1,,,,,,,,,,,,,,m,1,0.774,,,,,,,,-0.007777778,-0.39,0,0,0,,0,56,56,5,1,BAMBOO,C,old,m,./images/BAMBOO.png,,,,,,,,,,,,,,,,,,,,,,,,,,,,,,,,,,,
,,,,,,,,,,,,,,,,,60be1e056f39c387c4f02308,35,2022-02-12_10h28.56.258,lexical_decision_task_DD_L5,2021.2.3,Win32,59.76929054,,,,,,,,,,,0.7307,1,,,,,,,,,,,,,,m,1,0.7307,,,,,,,,-0.007777778,-0.39,0,0,0,,0,57,57,78,1,BROOM,HB,old,m,./images/BROOMHB.png,,,,,,,,,,,,,,,,,,,,,,,,,,,,,,,,,,,
,,,,,,,,,,,,,,,,,60be1e056f39c387c4f02308,35,2022-02-12_10h28.56.258,lexical_decision_task_DD_L5,2021.2.3,Win32,59.76929054,,,,,,,,,,,2.1749,1,,,,,,,,,,,,,,z,1,2.1749,,,,,,,,-0.007777778,-0.39,0,0,0,,0,58,58,121,1,CEERS,HB,old,z,./images/CEERSHB.png,,,,,,,,,,,,,,,,,,,,,,,,,,,,,,,,,,,
,,,,,,,,,,,,,,,,,60be1e056f39c387c4f02308,35,2022-02-12_10h28.56.258,lexical_decision_task_DD_L5,2021.2.3,Win32,59.76929054,,,,,,,,,,,1.1658,0,,,,,,,,,,,,,,m,0,1.1658,,,,,,,,-0.007777778,-0.39,0,0,0,,0,59,59,141,1,PLEET,C,old,z,./images/PLEET.png,,,,,,,,,,,,,,,,,,,,,,,,,,,,,,,,,,,
,,,,,,,,,,,,,,,,,60be1e056f39c387c4f02308,35,2022-02-12_10h28.56.258,lexical_decision_task_DD_L5,2021.2.3,Win32,59.76929054,,,,,,,,,,,0.7808,0,,,,,,,,,,,,,,z,0,0.7808,,,,,,,,-0.007777778,-0.39,0,0,0,,0,60,60,35,1,LLAMA,C,old,m,./images/LLAMA.png,,,,,,,,,,,,,,,,,,,,,,,,,,,,,,,,,,,
,,,,,,,,,,,,,,,,,60be1e056f39c387c4f02308,35,2022-02-12_10h28.56.258,lexical_decision_task_DD_L5,2021.2.3,Win32,59.76929054,,,,,,,,,,,0.8706,1,,,,,,,,,,,,,,m,1,0.8706,,,,,,,,-0.007777778,-0.39,0,0,0,,0,61,61,9,1,DIVER,HB,old,m,./images/DIVERHB.png,,,,,,,,,,,,,,,,,,,,,,,,,,,,,,,,,,,
,,,,,,,,,,,,,,,,,60be1e056f39c387c4f02308,35,2022-02-12_10h28.56.258,lexical_decision_task_DD_L5,2021.2.3,Win32,59.76929054,,,,,,,,,,,2.7881,1,,,,,,,,,,,,,,z,1,2.7881,,,,,,,,-0.007777778,-0.39,0,0,0,,0,62,62,133,1,POWDY,HB,old,z,./images/POWDYHB.png,,,,,,,,,,,,,,,,,,,,,,,,,,,,,,,,,,,
,,,,,,,,,,,,,,,,,60be1e056f39c387c4f02308,35,2022-02-12_10h28.56.258,lexical_decision_task_DD_L5,2021.2.3,Win32,59.76929054,,,,,,,,,,,0.5891,1,,,,,,,,,,,,,,m,1,0.5891,,,,,,,,-0.007777778,-0.39,0,0,0,,0,63,63,77,1,WHEEL,C,old,m,./images/WHEEL.png,,,,,,,,,,,,,,,,,,,,,,,,,,,,,,,,,,,
,,,,,,,,,,,,,,,,,60be1e056f39c387c4f02308,35,2022-02-12_10h28.56.258,lexical_decision_task_DD_L5,2021.2.3,Win32,59.76929054,,,,,,,,,,,1.0352,1,,,,,,,,,,,,,,z,1,1.0352,,,,,,,,-0.007777778,-0.39,0,0,0,,0,64,64,95,1,HANTY,LB,old,z,./images/HANTYLB.png,,,,,,,,,,,,,,,,,,,,,,,,,,,,,,,,,,,
,,,,,,,,,,,,,,,,,60be1e056f39c387c4f02308,35,2022-02-12_10h28.56.258,lexical_decision_task_DD_L5,2021.2.3,Win32,59.76929054,,,,,,,,,,,1.1741,0,,,,,,,,,,,,,,m,0,1.1741,,,,,,,,-0.007777778,-0.39,0,0,0,,0,65,65,139,1,BLEAR,HB,old,z,./images/BLEARHB.png,,,,,,,,,,,,,,,,,,,,,,,,,,,,,,,,,,,
,,,,,,,,,,,,,,,,,60be1e056f39c387c4f02308,35,2022-02-12_10h28.56.258,lexical_decision_task_DD_L5,2021.2.3,Win32,59.76929054,,,,,,,,,,,2.5003,1,,,,,,,,,,,,,,z,1,2.5003,,,,,,,,-0.007777778,-0.39,0,0,0,,0,66,66,136,1,WERVE,HB,old,z,./images/WERVEHB.png,,,,,,,,,,,,,,,,,,,,,,,,,,,,,,,,,,,
,,,,,,,,,,,,,,,,,60be1e056f39c387c4f02308,35,2022-02-12_10h28.56.258,lexical_decision_task_DD_L5,2021.2.3,Win32,59.76929054,,,,,,,,,,,1.0472,0,,,,,,,,,,,,,,m,0,1.0472,,,,,,,,-0.007777778,-0.39,0,0,0,,0,67,67,142,1,PLASK,HB,old,z,./images/PLASKHB.png,,,,,,,,,,,,,,,,,,,,,,,,,,,,,,,,,,,
,,,,,,,,,,,,,,,,,60be1e056f39c387c4f02308,35,2022-02-12_10h28.56.258,lexical_decision_task_DD_L5,2021.2.3,Win32,59.76929054,,,,,,,,,,,1.6582,1,,,,,,,,,,,,,,z,1,1.6582,,,,,,,,-0.007777778,-0.39,0,0,0,,0,68,68,160,1,VEETS,HB,old,z,./images/VEETSHB.png,,,,,,,,,,,,,,,,,,,,,,,,,,,,,,,,,,,
,,,,,,,,,,,,,,,,,60be1e056f39c387c4f02308,35,2022-02-12_10h28.56.258,lexical_decision_task_DD_L5,2021.2.3,Win32,59.76929054,,,,,,,,,,,0.6022,1,,,,,,,,,,,,,,m,1,0.6022,,,,,,,,-0.007777778,-0.39,0,0,0,,0,69,69,10,1,GARDEN,LB,old,m,./images/GARDENLB.png,,,,,,,,,,,,,,,,,,,,,,,,,,,,,,,,,,,
,,,,,,,,,,,,,,,,,60be1e056f39c387c4f02308,35,2022-02-12_10h28.56.258,lexical_decision_task_DD_L5,2021.2.3,Win32,59.76929054,,,,,,,,,,,0.6835,0,,,,,,,,,,,,,,m,0,0.6835,,,,,,,,-0.007777778,-0.39,0,0,0,,0,70,70,134,1,TROSS,LB,old,z,./images/TROSSLB.png,,,,,,,,,,,,,,,,,,,,,,,,,,,,,,,,,,,
,,,,,,,,,,,,,,,,,60be1e056f39c387c4f02308,35,2022-02-12_10h28.56.258,lexical_decision_task_DD_L5,2021.2.3,Win32,59.76929054,,,,,,,,,,,0.5956,1,,,,,,,,,,,,,,m,1,0.5956,,,,,,,,-0.007777778,-0.39,0,0,0,,0,71,71,44,1,BASKET,C,old,m,./images/BASKET.png,,,,,,,,,,,,,,,,,,,,,,,,,,,,,,,,,,,
,,,,,,,,,,,,,,,,,60be1e056f39c387c4f02308,35,2022-02-12_10h28.56.258,lexical_decision_task_DD_L5,2021.2.3,Win32,59.76929054,,,,,,,,,,,0.7604,1,,,,,,,,,,,,,,m,1,0.7604,,,,,,,,-0.007777778,-0.39,0,0,0,,0,72,72,11,1,MEDAL,C,old,m,./images/MEDAL.png,,,,,,,,,,,,,,,,,,,,,,,,,,,,,,,,,,,
,,,,,,,,,,,,,,,,,60be1e056f39c387c4f02308,35,2022-02-12_10h28.56.258,lexical_decision_task_DD_L5,2021.2.3,Win32,59.76929054,,,,,,,,,,,0.8542,1,,,,,,,,,,,,,,m,1,0.8542,,,,,,,,-0.007777778,-0.39,0,0,0,,0,73,73,12,1,BLOKE,HB,old,m,./images/BLOKEHB.png,,,,,,,,,,,,,,,,,,,,,,,,,,,,,,,,,,,
,,,,,,,,,,,,,,,,,60be1e056f39c387c4f02308,35,2022-02-12_10h28.56.258,lexical_decision_task_DD_L5,2021.2.3,Win32,59.76929054,,,,,,,,,,,1.0384,1,,,,,,,,,,,,,,z,1,1.0384,,,,,,,,-0.007777778,-0.39,0,0,0,,0,74,74,91,1,SHENS,HB,old,z,./images/SHENSHB.png,,,,,,,,,,,,,,,,,,,,,,,,,,,,,,,,,,,
,,,,,,,,,,,,,,,,,60be1e056f39c387c4f02308,35,2022-02-12_10h28.56.258,lexical_decision_task_DD_L5,2021.2.3,Win32,59.76929054,,,,,,,,,,,0.5892,1,,,,,,,,,,,,,,m,1,0.5892,,,,,,,,-0.007777778,-0.39,0,0,0,,0,75,75,83,1,WHISKY,C,old,m,./images/WHISKY.png,,,,,,,,,,,,,,,,,,,,,,,,,,,,,,,,,,,
,,,,,,,,,,,,,,,,,60be1e056f39c387c4f02308,35,2022-02-12_10h28.56.258,lexical_decision_task_DD_L5,2021.2.3,Win32,59.76929054,,,,,,,,,,,0.5967,1,,,,,,,,,,,,,,m,1,0.5967,,,,,,,,-0.007777778,-0.39,0,0,0,,0,76,76,20,1,GRANNY,C,old,m,./images/GRANNY.png,,,,,,,,,,,,,,,,,,,,,,,,,,,,,,,,,,,
,,,,,,,,,,,,,,,,,60be1e056f39c387c4f02308,35,2022-02-12_10h28.56.258,lexical_decision_task_DD_L5,2021.2.3,Win32,59.76929054,,,,,,,,,,,0.8531,1,,,,,,,,,,,,,,z,1,0.8531,,,,,,,,-0.007777778,-0.39,0,0,0,,0,77,77,125,1,MOOKY,LB,old,z,./images/MOOKYLB.png,,,,,,,,,,,,,,,,,,,,,,,,,,,,,,,,,,,
,,,,,,,,,,,,,,,,,60be1e056f39c387c4f02308,35,2022-02-12_10h28.56.258,lexical_decision_task_DD_L5,2021.2.3,Win32,59.76929054,,,,,,,,,,,1.238,1,,,,,,,,,,,,,,m,1,1.238,,,,,,,,-0.007777778,-0.39,0,0,0,,0,78,78,75,1,HAMMER,HB,old,m,./images/HAMMERHB.png,,,,,,,,,,,,,,,,,,,,,,,,,,,,,,,,,,,
,,,,,,,,,,,,,,,,,60be1e056f39c387c4f02308,35,2022-02-12_10h28.56.258,lexical_decision_task_DD_L5,2021.2.3,Win32,59.76929054,,,,,,,,,,,0.7199,1,,,,,,,,,,,,,,m,1,0.7199,,,,,,,,-0.007777778,-0.39,0,0,0,,0,79,79,70,1,BANANA,LB,old,m,./images/BANANALB.png,,,,,,,,,,,,,,,,,,,,,,,,,,,,,,,,,,,
,,,,,,,,,,,,,,,,,60be1e056f39c387c4f02308,35,2022-02-12_10h28.56.258,lexical_decision_task_DD_L5,2021.2.3,Win32,59.76929054,,,,,,,,,,,0.7094,1,,,,,,,,,,,,,,m,1,0.7094,,,,,,,,-0.007777778,-0.39,0,0,0,,0,80,80,21,1,DANCER,HB,old,m,./images/DANCERHB.png,,,,,,,,,,,,,,,,,,,,,,,,,,,,,,,,,,,
,,,,,,,,,,,,,,,,,60be1e056f39c387c4f02308,35,2022-02-12_10h28.56.258,lexical_decision_task_DD_L5,2021.2.3,Win32,59.76929054,,,,,,,,,,,0.5333,1,,,,,,,,,,,,,,m,1,0.5333,,,,,,,,-0.007777778,-0.39,0,0,0,,0,81,81,53,1,POSTER,C,old,m,./images/POSTER.png,,,,,,,,,,,,,,,,,,,,,,,,,,,,,,,,,,,
,,,,,,,,,,,,,,,,,60be1e056f39c387c4f02308,35,2022-02-12_10h28.56.258,lexical_decision_task_DD_L5,2021.2.3,Win32,59.76929054,,,,,,,,,,,0.7995,1,,,,,,,,,,,,,,z,1,0.7995,,,,,,,,-0.007777778,-0.39,0,0,0,,0,82,82,113,1,LINEW,LB,old,z,./images/LINEWLB.png,,,,,,,,,,,,,,,,,,,,,,,,,,,,,,,,,,,
,,,,,,,,,,,,,,,,,60be1e056f39c387c4f02308,35,2022-02-12_10h28.56.258,lexical_decision_task_DD_L5,2021.2.3,Win32,59.76929054,,,,,,,,,,,1.0023,1,,,,,,,,,,,,,,z,1,1.0023,,,,,,,,-0.007777778,-0.39,0,0,0,space,0,83,83,117,1,STEEG,C,old,z,./images/STEEG.png,1.402,,,,,,,,,,,,,,,,,,,,,,,,,,,,,,,,,,
,,,,,,,,,,,,,,,,,60be1e056f39c387c4f02308,35,2022-02-12_10h28.56.258,lexical_decision_task_DD_L5,2021.2.3,Win32,59.76929054,,,,,,,,,,,0.6086,1,,,,,,,,,,,,,,m,1,0.6086,,,,,,,,-0.007777778,-0.39,0,0,0,,0,84,84,68,1,VALLEY,C,old,m,./images/VALLEY.png,,,,,,,,,,,,,,,,,,,,,,,,,,,,,,,,,,,
,,,,,,,,,,,,,,,,,60be1e056f39c387c4f02308,35,2022-02-12_10h28.56.258,lexical_decision_task_DD_L5,2021.2.3,Win32,59.76929054,,,,,,,,,,,0.8563,1,,,,,,,,,,,,,,z,1,0.8563,,,,,,,,-0.007777778,-0.39,0,0,0,,0,85,85,84,1,HAXES,C,old,z,./images/HAXES.png,,,,,,,,,,,,,,,,,,,,,,,,,,,,,,,,,,,
,,,,,,,,,,,,,,,,,60be1e056f39c387c4f02308,35,2022-02-12_10h28.56.258,lexical_decision_task_DD_L5,2021.2.3,Win32,59.76929054,,,,,,,,,,,0.6552,1,,,,,,,,,,,,,,m,1,0.6552,,,,,,,,-0.007777778,-0.39,0,0,0,,0,86,86,50,1,PILOT,C,old,m,./images/PILOT.png,,,,,,,,,,,,,,,,,,,,,,,,,,,,,,,,,,,
,,,,,,,,,,,,,,,,,60be1e056f39c387c4f02308,35,2022-02-12_10h28.56.258,lexical_decision_task_DD_L5,2021.2.3,Win32,59.76929054,,,,,,,,,,,1.8467,0,,,,,,,,,,,,,,z,0,1.8467,,,,,,,,-0.007777778,-0.39,0,0,0,,0,87,87,42,1,CHAIN,HB,old,m,./images/CHAINHB.png,,,,,,,,,,,,,,,,,,,,,,,,,,,,,,,,,,,
,,,,,,,,,,,,,,,,,60be1e056f39c387c4f02308,35,2022-02-12_10h28.56.258,lexical_decision_task_DD_L5,2021.2.3,Win32,59.76929054,,,,,,,,,,,2.729,1,,,,,,,,,,,,,,z,1,2.729,,,,,,,,-0.007777778,-0.39,0,0,0,,0,88,88,109,1,BURGE,HB,old,z,./images/BURGEHB.png,,,,,,,,,,,,,,,,,,,,,,,,,,,,,,,,,,,
,,,,,,,,,,,,,,,,,60be1e056f39c387c4f02308,35,2022-02-12_10h28.56.258,lexical_decision_task_DD_L5,2021.2.3,Win32,59.76929054,,,,,,,,,,,0.9466,1,,,,,,,,,,,,,,m,1,0.9466,,,,,,,,-0.007777778,-0.39,0,0,0,,0,89,89,18,1,PARCEL,HB,old,m,./images/PARCELHB.png,,,,,,,,,,,,,,,,,,,,,,,,,,,,,,,,,,,
,,,,,,,,,,,,,,,,,60be1e056f39c387c4f02308,35,2022-02-12_10h28.56.258,lexical_decision_task_DD_L5,2021.2.3,Win32,59.76929054,,,,,,,,,,,2.7244,1,,,,,,,,,,,,,,z,1,2.7244,,,,,,,,-0.007777778,-0.39,0,0,0,,0,90,90,145,1,LAMEL,HB,old,z,./images/LAMELHB.png,,,,,,,,,,,,,,,,,,,,,,,,,,,,,,,,,,,
,,,,,,,,,,,,,,,,,60be1e056f39c387c4f02308,35,2022-02-12_10h28.56.258,lexical_decision_task_DD_L5,2021.2.3,Win32,59.76929054,,,,,,,,,,,0.638,1,,,,,,,,,,,,,,m,1,0.638,,,,,,,,-0.007777778,-0.39,0,0,0,,0,91,91,76,1,MIDGET,LB,old,m,./images/MIDGETLB.png,,,,,,,,,,,,,,,,,,,,,,,,,,,,,,,,,,,
,,,,,,,,,,,,,,,,,60be1e056f39c387c4f02308,35,2022-02-12_10h28.56.258,lexical_decision_task_DD_L5,2021.2.3,Win32,59.76929054,,,,,,,,,,,0.622,1,,,,,,,,,,,,,,m,1,0.622,,,,,,,,-0.007777778,-0.39,0,0,0,,0,92,92,58,1,CANOE,LB,old,m,./images/CANOELB.png,,,,,,,,,,,,,,,,,,,,,,,,,,,,,,,,,,,
,,,,,,,,,,,,,,,,,60be1e056f39c387c4f02308,35,2022-02-12_10h28.56.258,lexical_decision_task_DD_L5,2021.2.3,Win32,59.76929054,,,,,,,,,,,1.6941,1,,,,,,,,,,,,,,z,1,1.6941,,,,,,,,-0.007777778,-0.39,0,0,0,,0,93,93,114,1,RIKES,C,old,z,./images/RIKES.png,,,,,,,,,,,,,,,,,,,,,,,,,,,,,,,,,,,
,,,,,,,,,,,,,,,,,60be1e056f39c387c4f02308,35,2022-02-12_10h28.56.258,lexical_decision_task_DD_L5,2021.2.3,Win32,59.76929054,,,,,,,,,,,0.7027,1,,,,,,,,,,,,,,m,1,0.7027,,,,,,,,-0.007777778,-0.39,0,0,0,,0,94,94,25,1,CHALK,LB,old,m,./images/CHALKLB.png,,,,,,,,,,,,,,,,,,,,,,,,,,,,,,,,,,,
,,,,,,,,,,,,,,,,,60be1e056f39c387c4f02308,35,2022-02-12_10h28.56.258,lexical_decision_task_DD_L5,2021.2.3,Win32,59.76929054,,,,,,,,,,,0.6175,1,,,,,,,,,,,,,,m,1,0.6175,,,,,,,,-0.007777778,-0.39,0,0,0,,0,95,95,62,1,MAMMAL,C,old,m,./images/MAMMAL.png,,,,,,,,,,,,,,,,,,,,,,,,,,,,,,,,,,,
,,,,,,,,,,,,,,,,,60be1e056f39c387c4f02308,35,2022-02-12_10h28.56.258,lexical_decision_task_DD_L5,2021.2.3,Win32,59.76929054,,,,,,,,,,,0.8359,1,,,,,,,,,,,,,,z,1,0.8359,,,,,,,,-0.007777778,-0.39,0,0,0,,0,96,96,96,1,KEAMS,C,old,z,./images/KEAMS.png,,,,,,,,,,,,,,,,,,,,,,,,,,,,,,,,,,,
,,,,,,,,,,,,,,,,,60be1e056f39c387c4f02308,35,2022-02-12_10h28.56.258,lexical_decision_task_DD_L5,2021.2.3,Win32,59.76929054,,,,,,,,,,,2.3714,0,,,,,,,,,,,,,,m,0,2.3714,,,,,,,,-0.007777778,-0.39,0,0,0,,0,97,97,148,1,JOMS,HB,old,z,./images/JOMSHB.png,,,,,,,,,,,,,,,,,,,,,,,,,,,,,,,,,,,
,,,,,,,,,,,,,,,,,60be1e056f39c387c4f02308,35,2022-02-12_10h28.56.258,lexical_decision_task_DD_L5,2021.2.3,Win32,59.76929054,,,,,,,,,,,3.3999,1,,,,,,,,,,,,,,z,1,3.3999,,,,,,,,-0.007777778,-0.39,0,0,0,,0,98,98,165,1,TROWN,C,old,z,./images/TROWN.png,,,,,,,,,,,,,,,,,,,,,,,,,,,,,,,,,,,
,,,,,,,,,,,,,,,,,60be1e056f39c387c4f02308,35,2022-02-12_10h28.56.258,lexical_decision_task_DD_L5,2021.2.3,Win32,59.76929054,,,,,,,,,,,0.6351,1,,,,,,,,,,,,,,m,1,0.6351,,,,,,,,-0.007777778,-0.39,0,0,0,,0,99,99,26,1,CLOUD,C,old,m,./images/CLOUD.png,,,,,,,,,,,,,,,,,,,,,,,,,,,,,,,,,,,
,,,,,,,,,,,,,,,,,60be1e056f39c387c4f02308,35,2022-02-12_10h28.56.258,lexical_decision_task_DD_L5,2021.2.3,Win32,59.76929054,,,,,,,,,,,1.4915,1,,,,,,,,,,,,,,z,1,1.4915,,,,,,,,-0.007777778,-0.39,0,0,0,,0,100,100,100,1,DRIBS,HB,old,z,./images/DRIBSHB.png,,,,,,,,,,,,,,,,,,,,,,,,,,,,,,,,,,,
,,,,,,,,,,,,,,,,,60be1e056f39c387c4f02308,35,2022-02-12_10h28.56.258,lexical_decision_task_DD_L5,2021.2.3,Win32,59.76929054,,,,,,,,,,,0.6039,0,,,,,,,,,,,,,,m,0,0.6039,,,,,,,,-0.007777778,-0.39,0,0,0,,0,101,101,167,1,ZONET,LB,old,z,./images/ZONETLB.png,,,,,,,,,,,,,,,,,,,,,,,,,,,,,,,,,,,
,,,,,,,,,,,,,,,,,60be1e056f39c387c4f02308,35,2022-02-12_10h28.56.258,lexical_decision_task_DD_L5,2021.2.3,Win32,59.76929054,,,,,,,,,,,0.5696,1,,,,,,,,,,,,,,m,1,0.5696,,,,,,,,-0.007777778,-0.39,0,0,0,,0,102,102,32,1,HOCKEY,C,old,m,./images/HOCKEY.png,,,,,,,,,,,,,,,,,,,,,,,,,,,,,,,,,,,
,,,,,,,,,,,,,,,,,60be1e056f39c387c4f02308,35,2022-02-12_10h28.56.258,lexical_decision_task_DD_L5,2021.2.3,Win32,59.76929054,,,,,,,,,,,0.5453,1,,,,,,,,,,,,,,m,1,0.5453,,,,,,,,-0.007777778,-0.39,0,0,0,,0,103,103,4,1,BOXER,LB,old,m,./images/BOXERLB.png,,,,,,,,,,,,,,,,,,,,,,,,,,,,,,,,,,,
,,,,,,,,,,,,,,,,,60be1e056f39c387c4f02308,35,2022-02-12_10h28.56.258,lexical_decision_task_DD_L5,2021.2.3,Win32,59.76929054,,,,,,,,,,,0.8351,1,,,,,,,,,,,,,,z,1,0.8351,,,,,,,,-0.007777778,-0.39,0,0,0,,0,104,104,137,1,JOOST,LB,old,z,./images/JOOSTLB.png,,,,,,,,,,,,,,,,,,,,,,,,,,,,,,,,,,,
,,,,,,,,,,,,,,,,,60be1e056f39c387c4f02308,35,2022-02-12_10h28.56.258,lexical_decision_task_DD_L5,2021.2.3,Win32,59.76929054,,,,,,,,,,,1.6558,1,,,,,,,,,,,,,,m,1,1.6558,,,,,,,,-0.007777778,-0.39,0,0,0,,0,105,105,57,1,FERRY,HB,old,m,./images/FERRYHB.png,,,,,,,,,,,,,,,,,,,,,,,,,,,,,,,,,,,
,,,,,,,,,,,,,,,,,60be1e056f39c387c4f02308,35,2022-02-12_10h28.56.258,lexical_decision_task_DD_L5,2021.2.3,Win32,59.76929054,,,,,,,,,,,2.702,0,,,,,,,,,,,,,,m,0,2.702,,,,,,,,-0.007777778,-0.39,0,0,0,,0,106,106,115,1,MAWNS,HB,old,z,./images/MAWNSHB.png,,,,,,,,,,,,,,,,,,,,,,,,,,,,,,,,,,,
,,,,,,,,,,,,,,,,,60be1e056f39c387c4f02308,35,2022-02-12_10h28.56.258,lexical_decision_task_DD_L5,2021.2.3,Win32,59.76929054,,,,,,,,,,,0.8664,1,,,,,,,,,,,,,,z,1,0.8664,,,,,,,,-0.007777778,-0.39,0,0,0,,0,107,107,138,1,PLICE,C,old,z,./images/PLICE.png,,,,,,,,,,,,,,,,,,,,,,,,,,,,,,,,,,,
,,,,,,,,,,,,,,,,,60be1e056f39c387c4f02308,35,2022-02-12_10h28.56.258,lexical_decision_task_DD_L5,2021.2.3,Win32,59.76929054,,,,,,,,,,,0.9018,1,,,,,,,,,,,,,,z,1,0.9018,,,,,,,,-0.007777778,-0.39,0,0,0,,0,108,108,89,1,DRIEK,LB,old,z,./images/DRIEKLB.png,,,,,,,,,,,,,,,,,,,,,,,,,,,,,,,,,,,
,,,,,,,,,,,,,,,,,60be1e056f39c387c4f02308,35,2022-02-12_10h28.56.258,lexical_decision_task_DD_L5,2021.2.3,Win32,59.76929054,,,,,,,,,,,1.4285,1,,,,,,,,,,,,,,z,1,1.4285,,,,,,,,-0.007777778,-0.39,0,0,0,,0,109,109,116,1,BALGY,LB,old,z,./images/BALGYLB.png,,,,,,,,,,,,,,,,,,,,,,,,,,,,,,,,,,,
,,,,,,,,,,,,,,,,,60be1e056f39c387c4f02308,35,2022-02-12_10h28.56.258,lexical_decision_task_DD_L5,2021.2.3,Win32,59.76929054,,,,,,,,,,,2.3257,1,,,,,,,,,,,,,,z,1,2.3257,,,,,,,,-0.007777778,-0.39,0,0,0,,0,110,110,143,1,MONGS,LB,old,z,./images/MONGSLB.png,,,,,,,,,,,,,,,,,,,,,,,,,,,,,,,,,,,
,,,,,,,,,,,,,,,,,60be1e056f39c387c4f02308,35,2022-02-12_10h28.56.258,lexical_decision_task_DD_L5,2021.2.3,Win32,59.76929054,,,,,,,,,,,0.7024,1,,,,,,,,,,,,,,m,1,0.7024,,,,,,,,-0.007777778,-0.39,0,0,0,,0,111,111,65,1,SPINE,C,old,m,./images/SPINE.png,,,,,,,,,,,,,,,,,,,,,,,,,,,,,,,,,,,
,,,,,,,,,,,,,,,,,60be1e056f39c387c4f02308,35,2022-02-12_10h28.56.258,lexical_decision_task_DD_L5,2021.2.3,Win32,59.76929054,,,,,,,,,,,0.7701,1,,,,,,,,,,,,,,m,1,0.7701,,,,,,,,-0.007777778,-0.39,0,0,0,,0,112,112,22,1,CLOWN,LB,old,m,./images/CLOWNLB.png,,,,,,,,,,,,,,,,,,,,,,,,,,,,,,,,,,,
,,,,,,,,,,,,,,,,,60be1e056f39c387c4f02308,35,2022-02-12_10h28.56.258,lexical_decision_task_DD_L5,2021.2.3,Win32,59.76929054,,,,,,,,,,,0.9174,1,,,,,,,,,,,,,,m,1,0.9174,,,,,,,,-0.007777778,-0.39,0,0,0,,0,113,113,6,1,STAIN,HB,old,m,./images/STAINHB.png,,,,,,,,,,,,,,,,,,,,,,,,,,,,,,,,,,,
,,,,,,,,,,,,,,,,,60be1e056f39c387c4f02308,35,2022-02-12_10h28.56.258,lexical_decision_task_DD_L5,2021.2.3,Win32,59.76929054,,,,,,,,,,,3.3921,1,,,,,,,,,,,,,,z,1,3.3921,,,,,,,,-0.007777778,-0.39,0,0,0,,0,114,114,166,1,SHORY,HB,old,z,./images/SHORYHB.png,,,,,,,,,,,,,,,,,,,,,,,,,,,,,,,,,,,
,,,,,,,,,,,,,,,,,60be1e056f39c387c4f02308,35,2022-02-12_10h28.56.258,lexical_decision_task_DD_L5,2021.2.3,Win32,59.76929054,,,,,,,,,,,0.9647,1,,,,,,,,,,,,,,z,1,0.9647,,,,,,,,-0.007777778,-0.39,0,0,0,,0,115,115,146,1,MOOST,LB,old,z,./images/MOOSTLB.png,,,,,,,,,,,,,,,,,,,,,,,,,,,,,,,,,,,
,,,,,,,,,,,,,,,,,60be1e056f39c387c4f02308,35,2022-02-12_10h28.56.258,lexical_decision_task_DD_L5,2021.2.3,Win32,59.76929054,,,,,,,,,,,0.864,1,,,,,,,,,,,,,,z,1,0.864,,,,,,,,-0.007777778,-0.39,0,0,0,,0,116,116,150,1,NOOLS,C,old,z,./images/NOOLS.png,,,,,,,,,,,,,,,,,,,,,,,,,,,,,,,,,,,
,,,,,,,,,,,,,,,,,60be1e056f39c387c4f02308,35,2022-02-12_10h28.56.258,lexical_decision_task_DD_L5,2021.2.3,Win32,59.76929054,,,,,,,,,,,2.3749,0,,,,,,,,,,,,,,m,0,2.3749,,,,,,,,-0.007777778,-0.39,0,0,0,,0,117,117,106,1,CLUMS,HB,old,z,./images/CLUMSHB.png,,,,,,,,,,,,,,,,,,,,,,,,,,,,,,,,,,,
,,,,,,,,,,,,,,,,,60be1e056f39c387c4f02308,35,2022-02-12_10h28.56.258,lexical_decision_task_DD_L5,2021.2.3,Win32,59.76929054,,,,,,,,,,,1.1443,1,,,,,,,,,,,,,,m,1,1.1443,,,,,,,,-0.007777778,-0.39,0,0,0,,0,118,118,24,1,FLESH,HB,old,m,./images/FLESHHB.png,,,,,,,,,,,,,,,,,,,,,,,,,,,,,,,,,,,
,,,,,,,,,,,,,,,,,60be1e056f39c387c4f02308,35,2022-02-12_10h28.56.258,lexical_decision_task_DD_L5,2021.2.3,Win32,59.76929054,,,,,,,,,,,1.1498,0,,,,,,,,,,,,,,z,0,1.1498,,,,,,,,-0.007777778,-0.39,0,0,0,,0,119,119,33,1,SAUNA,HB,old,m,./images/SAUNAHB.png,,,,,,,,,,,,,,,,,,,,,,,,,,,,,,,,,,,
,,,,,,,,,,,,,,,,,60be1e056f39c387c4f02308,35,2022-02-12_10h28.56.258,lexical_decision_task_DD_L5,2021.2.3,Win32,59.76929054,,,,,,,,,,,0.9206,0,,,,,,,,,,,,,,m,0,0.9206,,,,,,,,-0.007777778,-0.39,0,0,0,,0,120,120,140,1,DOVET,LB,old,z,./images/DOVETLB.png,,,,,,,,,,,,,,,,,,,,,,,,,,,,,,,,,,,
,,,,,,,,,,,,,,,,,60be1e056f39c387c4f02308,35,2022-02-12_10h28.56.258,lexical_decision_task_DD_L5,2021.2.3,Win32,59.76929054,,,,,,,,,,,0.6843,0,,,,,,,,,,,,,,m,0,0.6843,,,,,,,,-0.007777778,-0.39,0,0,0,,0,121,121,110,1,CRUNK,LB,old,z,./images/CRUNKLB.png,,,,,,,,,,,,,,,,,,,,,,,,,,,,,,,,,,,
,,,,,,,,,,,,,,,,,60be1e056f39c387c4f02308,35,2022-02-12_10h28.56.258,lexical_decision_task_DD_L5,2021.2.3,Win32,59.76929054,,,,,,,,,,,0.7688,1,,,,,,,,,,,,,,m,1,0.7688,,,,,,,,-0.007777778,-0.39,0,0,0,,0,122,122,15,1,COLLAR,HB,old,m,./images/COLLARHB.png,,,,,,,,,,,,,,,,,,,,,,,,,,,,,,,,,,,
,,,,,,,,,,,,,,,,,60be1e056f39c387c4f02308,35,2022-02-12_10h28.56.258,lexical_decision_task_DD_L5,2021.2.3,Win32,59.76929054,,,,,,,,,,,0.8711,1,,,,,,,,,,,,,,m,1,0.8711,,,,,,,,-0.007777778,-0.39,0,0,0,,0,123,123,79,1,RULER,LB,old,m,./images/RULERLB.png,,,,,,,,,,,,,,,,,,,,,,,,,,,,,,,,,,,
,,,,,,,,,,,,,,,,,60be1e056f39c387c4f02308,35,2022-02-12_10h28.56.258,lexical_decision_task_DD_L5,2021.2.3,Win32,59.76929054,,,,,,,,,,,1.5695,1,,,,,,,,,,,,,,z,1,1.5695,,,,,,,,-0.007777778,-0.39,0,0,0,,0,124,124,158,1,EGECT,LB,old,z,./images/EGECTLB.png,,,,,,,,,,,,,,,,,,,,,,,,,,,,,,,,,,,
,,,,,,,,,,,,,,,,,60be1e056f39c387c4f02308,35,2022-02-12_10h28.56.258,lexical_decision_task_DD_L5,2021.2.3,Win32,59.76929054,,,,,,,,,,,1.1832,1,,,,,,,,,,,,,,m,1,1.1832,,,,,,,,-0.007777778,-0.39,0,0,0,space,0,125,125,0,1,WALNUT,HB,old,m,./images/WALNUTHB.png,1.3745,,,,,,,,,,,,,,,,,,,,,,,,,,,,,,,,,,
,,,,,,,,,,,,,,,,,60be1e056f39c387c4f02308,35,2022-02-12_10h28.56.258,lexical_decision_task_DD_L5,2021.2.3,Win32,59.76929054,,,,,,,,,,,0.6864,1,,,,,,,,,,,,,,m,1,0.6864,,,,,,,,-0.007777778,-0.39,0,0,0,,0,126,126,40,1,SNAKE,LB,old,m,./images/SNAKELB.png,,,,,,,,,,,,,,,,,,,,,,,,,,,,,,,,,,,
,,,,,,,,,,,,,,,,,60be1e056f39c387c4f02308,35,2022-02-12_10h28.56.258,lexical_decision_task_DD_L5,2021.2.3,Win32,59.76929054,,,,,,,,,,,0.9194,1,,,,,,,,,,,,,,z,1,0.9194,,,,,,,,-0.007777778,-0.39,0,0,0,,0,127,127,87,1,TRING,C,old,z,./images/TRING.png,,,,,,,,,,,,,,,,,,,,,,,,,,,,,,,,,,,
,,,,,,,,,,,,,,,,,60be1e056f39c387c4f02308,35,2022-02-12_10h28.56.258,lexical_decision_task_DD_L5,2021.2.3,Win32,59.76929054,,,,,,,,,,,0.9304,1,,,,,,,,,,,,,,z,1,0.9304,,,,,,,,-0.007777778,-0.39,0,0,0,,0,128,128,164,1,SGREW,LB,old,z,./images/SGREWLB.png,,,,,,,,,,,,,,,,,,,,,,,,,,,,,,,,,,,
,,,,,,,,,,,,,,,,,60be1e056f39c387c4f02308,35,2022-02-12_10h28.56.258,lexical_decision_task_DD_L5,2021.2.3,Win32,59.76929054,,,,,,,,,,,0.6112,1,,,,,,,,,,,,,,m,1,0.6112,,,,,,,,-0.007777778,-0.39,0,0,0,,0,129,129,49,1,BISHOP,LB,old,m,./images/BISHOPLB.png,,,,,,,,,,,,,,,,,,,,,,,,,,,,,,,,,,,
,,,,,,,,,,,,,,,,,60be1e056f39c387c4f02308,35,2022-02-12_10h28.56.258,lexical_decision_task_DD_L5,2021.2.3,Win32,59.76929054,,,,,,,,,,,1.5523,1,,,,,,,,,,,,,,z,1,1.5523,,,,,,,,-0.007777778,-0.39,0,0,0,,0,130,130,129,1,PRANS,C,old,z,./images/PRANS.png,,,,,,,,,,,,,,,,,,,,,,,,,,,,,,,,,,,
,,,,,,,,,,,,,,,,,60be1e056f39c387c4f02308,35,2022-02-12_10h28.56.258,lexical_decision_task_DD_L5,2021.2.3,Win32,59.76929054,,,,,,,,,,,0.9161,1,,,,,,,,,,,,,,z,1,0.9161,,,,,,,,-0.007777778,-0.39,0,0,0,,0,131,131,155,1,CANGY,LB,old,z,./images/CANGYLB.png,,,,,,,,,,,,,,,,,,,,,,,,,,,,,,,,,,,
,,,,,,,,,,,,,,,,,60be1e056f39c387c4f02308,35,2022-02-12_10h28.56.258,lexical_decision_task_DD_L5,2021.2.3,Win32,59.76929054,,,,,,,,,,,0.9005,1,,,,,,,,,,,,,,z,1,0.9005,,,,,,,,-0.007777778,-0.39,0,0,0,,0,132,132,122,1,BLOOT,LB,old,z,./images/BLOOTLB.png,,,,,,,,,,,,,,,,,,,,,,,,,,,,,,,,,,,
,,,,,,,,,,,,,,,,,60be1e056f39c387c4f02308,35,2022-02-12_10h28.56.258,lexical_decision_task_DD_L5,2021.2.3,Win32,59.76929054,,,,,,,,,,,0.5677,1,,,,,,,,,,,,,,m,1,0.5677,,,,,,,,-0.007777778,-0.39,0,0,0,,0,133,133,23,1,CLOTH,C,old,m,./images/CLOTH.png,,,,,,,,,,,,,,,,,,,,,,,,,,,,,,,,,,,
,,,,,,,,,,,,,,,,,60be1e056f39c387c4f02308,35,2022-02-12_10h28.56.258,lexical_decision_task_DD_L5,2021.2.3,Win32,59.76929054,,,,,,,,,,,1.4501,1,,,,,,,,,,,,,,z,1,1.4501,,,,,,,,-0.007777778,-0.39,0,0,0,,0,134,134,126,1,GUELS,C,old,z,./images/GUELS.png,,,,,,,,,,,,,,,,,,,,,,,,,,,,,,,,,,,
,,,,,,,,,,,,,,,,,60be1e056f39c387c4f02308,35,2022-02-12_10h28.56.258,lexical_decision_task_DD_L5,2021.2.3,Win32,59.76929054,,,,,,,,,,,1.6018,1,,,,,,,,,,,,,,z,1,1.6018,,,,,,,,-0.007777778,-0.39,0,0,0,,0,135,135,101,1,GLEET,LB,old,z,./images/GLEETLB.png,,,,,,,,,,,,,,,,,,,,,,,,,,,,,,,,,,,
,,,,,,,,,,,,,,,,,60be1e056f39c387c4f02308,35,2022-02-12_10h28.56.258,lexical_decision_task_DD_L5,2021.2.3,Win32,59.76929054,,,,,,,,,,,1.0356,1,,,,,,,,,,,,,,m,1,1.0356,,,,,,,,-0.007777778,-0.39,0,0,0,,0,136,136,60,1,CURRY,HB,old,m,./images/CURRYHB.png,,,,,,,,,,,,,,,,,,,,,,,,,,,,,,,,,,,
,,,,,,,,,,,,,,,,,60be1e056f39c387c4f02308,35,2022-02-12_10h28.56.258,lexical_decision_task_DD_L5,2021.2.3,Win32,59.76929054,,,,,,,,,,,0.6897,1,,,,,,,,,,,,,,m,1,0.6897,,,,,,,,-0.007777778,-0.39,0,0,0,,0,137,137,61,1,ARTIST,LB,old,m,./images/ARTISTLB.png,,,,,,,,,,,,,,,,,,,,,,,,,,,,,,,,,,,
,,,,,,,,,,,,,,,,,60be1e056f39c387c4f02308,35,2022-02-12_10h28.56.258,lexical_decision_task_DD_L5,2021.2.3,Win32,59.76929054,,,,,,,,,,,1.3048,1,,,,,,,,,,,,,,z,1,1.3048,,,,,,,,-0.007777778,-0.39,0,0,0,,0,138,138,112,1,MYING,HB,old,z,./images/MYINGHB.png,,,,,,,,,,,,,,,,,,,,,,,,,,,,,,,,,,,
,,,,,,,,,,,,,,,,,60be1e056f39c387c4f02308,35,2022-02-12_10h28.56.258,lexical_decision_task_DD_L5,2021.2.3,Win32,59.76929054,,,,,,,,,,,1.0469,1,,,,,,,,,,,,,,z,1,1.0469,,,,,,,,-0.007777778,-0.39,0,0,0,,0,139,139,108,1,GRUET,C,old,z,./images/GRUET.png,,,,,,,,,,,,,,,,,,,,,,,,,,,,,,,,,,,
,,,,,,,,,,,,,,,,,60be1e056f39c387c4f02308,35,2022-02-12_10h28.56.258,lexical_decision_task_DD_L5,2021.2.3,Win32,59.76929054,,,,,,,,,,,1.5625,1,,,,,,,,,,,,,,z,1,1.5625,,,,,,,,-0.007777778,-0.39,0,0,0,,0,140,140,127,1,NINDY,HB,old,z,./images/NINDYHB.png,,,,,,,,,,,,,,,,,,,,,,,,,,,,,,,,,,,
,,,,,,,,,,,,,,,,,60be1e056f39c387c4f02308,35,2022-02-12_10h28.56.258,lexical_decision_task_DD_L5,2021.2.3,Win32,59.76929054,,,,,,,,,,,0.6976,1,,,,,,,,,,,,,,m,1,0.6976,,,,,,,,-0.007777778,-0.39,0,0,0,,0,141,141,14,1,FENCE,C,old,m,./images/FENCE.png,,,,,,,,,,,,,,,,,,,,,,,,,,,,,,,,,,,
,,,,,,,,,,,,,,,,,60be1e056f39c387c4f02308,35,2022-02-12_10h28.56.258,lexical_decision_task_DD_L5,2021.2.3,Win32,59.76929054,,,,,,,,,,,1.372,1,,,,,,,,,,,,,,z,1,1.372,,,,,,,,-0.007777778,-0.39,0,0,0,,0,142,142,131,1,NACES,LB,old,z,./images/NACESLB.png,,,,,,,,,,,,,,,,,,,,,,,,,,,,,,,,,,,
,,,,,,,,,,,,,,,,,60be1e056f39c387c4f02308,35,2022-02-12_10h28.56.258,lexical_decision_task_DD_L5,2021.2.3,Win32,59.76929054,,,,,,,,,,,0.7103,1,,,,,,,,,,,,,,m,1,0.7103,,,,,,,,-0.007777778,-0.39,0,0,0,,0,143,143,71,1,BUBBLE,C,old,m,./images/BUBBLE.png,,,,,,,,,,,,,,,,,,,,,,,,,,,,,,,,,,,
,,,,,,,,,,,,,,,,,60be1e056f39c387c4f02308,35,2022-02-12_10h28.56.258,lexical_decision_task_DD_L5,2021.2.3,Win32,59.76929054,,,,,,,,,,,1.6052,1,,,,,,,,,,,,,,z,1,1.6052,,,,,,,,-0.007777778,-0.39,0,0,0,,0,144,144,111,1,HOSSE,C,old,z,./images/HOSSE.png,,,,,,,,,,,,,,,,,,,,,,,,,,,,,,,,,,,
,,,,,,,,,,,,,,,,,60be1e056f39c387c4f02308,35,2022-02-12_10h28.56.258,lexical_decision_task_DD_L5,2021.2.3,Win32,59.76929054,,,,,,,,,,,1.1774,1,,,,,,,,,,,,,,m,1,1.1774,,,,,,,,-0.007777778,-0.39,0,0,0,,0,145,145,66,1,STATUE,HB,old,m,./images/STATUEHB.png,,,,,,,,,,,,,,,,,,,,,,,,,,,,,,,,,,,
,,,,,,,,,,,,,,,,,60be1e056f39c387c4f02308,35,2022-02-12_10h28.56.258,lexical_decision_task_DD_L5,2021.2.3,Win32,59.76929054,,,,,,,,,,,0.5846,1,,,,,,,,,,,,,,m,1,0.5846,,,,,,,,-0.007777778,-0.39,0,0,0,,0,146,146,64,1,BRIDE,LB,old,m,./images/BRIDELB.png,,,,,,,,,,,,,,,,,,,,,,,,,,,,,,,,,,,
,,,,,,,,,,,,,,,,,60be1e056f39c387c4f02308,35,2022-02-12_10h28.56.258,lexical_decision_task_DD_L5,2021.2.3,Win32,59.76929054,,,,,,,,,,,1.173,1,,,,,,,,,,,,,,z,1,1.173,,,,,,,,-0.007777778,-0.39,0,0,0,,0,147,147,130,1,CRILL,HB,old,z,./images/CRILLHB.png,,,,,,,,,,,,,,,,,,,,,,,,,,,,,,,,,,,
,,,,,,,,,,,,,,,,,60be1e056f39c387c4f02308,35,2022-02-12_10h28.56.258,lexical_decision_task_DD_L5,2021.2.3,Win32,59.76929054,,,,,,,,,,,0.9741,1,,,,,,,,,,,,,,z,1,0.9741,,,,,,,,-0.007777778,-0.39,0,0,0,,0,148,148,98,1,BAMPS,LB,old,z,./images/BAMPSLB.png,,,,,,,,,,,,,,,,,,,,,,,,,,,,,,,,,,,
,,,,,,,,,,,,,,,,,60be1e056f39c387c4f02308,35,2022-02-12_10h28.56.258,lexical_decision_task_DD_L5,2021.2.3,Win32,59.76929054,,,,,,,,,,,1.042,1,,,,,,,,,,,,,,z,1,1.042,,,,,,,,-0.007777778,-0.39,0,0,0,,0,149,149,102,1,DULLE,C,old,z,./images/DULLE.png,,,,,,,,,,,,,,,,,,,,,,,,,,,,,,,,,,,
,,,,,,,,,,,,,,,,,60be1e056f39c387c4f02308,35,2022-02-12_10h28.56.258,lexical_decision_task_DD_L5,2021.2.3,Win32,59.76929054,,,,,,,,,,,0.646,1,,,,,,,,,,,,,,m,1,0.646,,,,,,,,-0.007777778,-0.39,0,0,0,,0,150,150,80,1,PLANET,C,old,m,./images/PLANET.png,,,,,,,,,,,,,,,,,,,,,,,,,,,,,,,,,,,
,,,,,,,,,,,,,,,,,60be1e056f39c387c4f02308,35,2022-02-12_10h28.56.258,lexical_decision_task_DD_L5,2021.2.3,Win32,59.76929054,,,,,,,,,,,2.1581,1,,,,,,,,,,,,,,z,1,2.1581,,,,,,,,-0.007777778,-0.39,0,0,0,,0,151,151,163,1,GAMBA,HB,old,z,./images/GAMBAHB.png,,,,,,,,,,,,,,,,,,,,,,,,,,,,,,,,,,,
,,,,,,,,,,,,,,,,,60be1e056f39c387c4f02308,35,2022-02-12_10h28.56.258,lexical_decision_task_DD_L5,2021.2.3,Win32,59.76929054,,,,,,,,,,,0.6191,1,,,,,,,,,,,,,,m,1,0.6191,,,,,,,,-0.007777778,-0.39,0,0,0,,0,152,152,1,1,TOWEL,LB,old,m,./images/TOWELLB.png,,,,,,,,,,,,,,,,,,,,,,,,,,,,,,,,,,,
,,,,,,,,,,,,,,,,,60be1e056f39c387c4f02308,35,2022-02-12_10h28.56.258,lexical_decision_task_DD_L5,2021.2.3,Win32,59.76929054,,,,,,,,,,,1.3047,1,,,,,,,,,,,,,,z,1,1.3047,,,,,,,,-0.007777778,-0.39,0,0,0,,0,153,153,94,1,BLANS,HB,old,z,./images/BLANSHB.png,,,,,,,,,,,,,,,,,,,,,,,,,,,,,,,,,,,
,,,,,,,,,,,,,,,,,60be1e056f39c387c4f02308,35,2022-02-12_10h28.56.258,lexical_decision_task_DD_L5,2021.2.3,Win32,59.76929054,,,,,,,,,,,2.0203,1,,,,,,,,,,,,,,z,1,2.0203,,,,,,,,-0.007777778,-0.39,0,0,0,,0,154,154,151,1,TINKY,HB,old,z,./images/TINKYHB.png,,,,,,,,,,,,,,,,,,,,,,,,,,,,,,,,,,,
,,,,,,,,,,,,,,,,,60be1e056f39c387c4f02308,35,2022-02-12_10h28.56.258,lexical_decision_task_DD_L5,2021.2.3,Win32,59.76929054,,,,,,,,,,,1.7232,1,,,,,,,,,,,,,,m,1,1.7232,,,,,,,,-0.007777778,-0.39,0,0,0,,0,155,155,48,1,SHIELD,HB,old,m,./images/SHIELDHB.png,,,,,,,,,,,,,,,,,,,,,,,,,,,,,,,,,,,
,,,,,,,,,,,,,,,,,60be1e056f39c387c4f02308,35,2022-02-12_10h28.56.258,lexical_decision_task_DD_L5,2021.2.3,Win32,59.76929054,,,,,,,,,,,1.5347,1,,,,,,,,,,,,,,z,1,1.5347,,,,,,,,-0.007777778,-0.39,0,0,0,,0,156,156,119,1,PAFER,LB,old,z,./images/PAFERLB.png,,,,,,,,,,,,,,,,,,,,,,,,,,,,,,,,,,,
,,,,,,,,,,,,,,,,,60be1e056f39c387c4f02308,35,2022-02-12_10h28.56.258,lexical_decision_task_DD_L5,2021.2.3,Win32,59.76929054,,,,,,,,,,,0.8486,1,,,,,,,,,,,,,,z,1,0.8486,,,,,,,,-0.007777778,-0.39,0,0,0,,0,157,157,153,1,CLUPS,C,old,z,./images/CLUPS.png,,,,,,,,,,,,,,,,,,,,,,,,,,,,,,,,,,,
,,,,,,,,,,,,,,,,,60be1e056f39c387c4f02308,35,2022-02-12_10h28.56.258,lexical_decision_task_DD_L5,2021.2.3,Win32,59.76929054,,,,,,,,,,,1.1077,1,,,,,,,,,,,,,,z,1,1.1077,,,,,,,,-0.007777778,-0.39,0,0,0,,0,158,158,104,1,GITTY,LB,old,z,./images/GITTYLB.png,,,,,,,,,,,,,,,,,,,,,,,,,,,,,,,,,,,
,,,,,,,,,,,,,,,,,60be1e056f39c387c4f02308,35,2022-02-12_10h28.56.258,lexical_decision_task_DD_L5,2021.2.3,Win32,59.76929054,,,,,,,,,,,0.7833,1,,,,,,,,,,,,,,z,1,0.7833,,,,,,,,-0.007777778,-0.39,0,0,0,,0,159,159,162,1,LEICH,C,old,z,./images/LEICH.png,,,,,,,,,,,,,,,,,,,,,,,,,,,,,,,,,,,
,,,,,,,,,,,,,,,,,60be1e056f39c387c4f02308,35,2022-02-12_10h28.56.258,lexical_decision_task_DD_L5,2021.2.3,Win32,59.76929054,,,,,,,,,,,0.8421,1,,,,,,,,,,,,,,z,1,0.8421,,,,,,,,-0.007777778,-0.39,0,0,0,,0,160,160,161,1,BLAPS,LB,old,z,./images/BLAPSLB.png,,,,,,,,,,,,,,,,,,,,,,,,,,,,,,,,,,,
,,,,,,,,,,,,,,,,,60be1e056f39c387c4f02308,35,2022-02-12_10h28.56.258,lexical_decision_task_DD_L5,2021.2.3,Win32,59.76929054,,,,,,,,,,,0.6272,0,,,,,,,,,,,,,,m,0,0.6272,,,,,,,,-0.007777778,-0.39,0,0,0,,0,161,161,107,1,FASKS,LB,old,z,./images/FASKSLB.png,,,,,,,,,,,,,,,,,,,,,,,,,,,,,,,,,,,
,,,,,,,,,,,,,,,,,60be1e056f39c387c4f02308,35,2022-02-12_10h28.56.258,lexical_decision_task_DD_L5,2021.2.3,Win32,59.76929054,,,,,,,,,,,1.4721,0,,,,,,,,,,,,,,m,0,1.4721,,,,,,,,-0.007777778,-0.39,0,0,0,,0,162,162,156,1,HIXES,C,old,z,./images/HIXES.png,,,,,,,,,,,,,,,,,,,,,,,,,,,,,,,,,,,
,,,,,,,,,,,,,,,,,60be1e056f39c387c4f02308,35,2022-02-12_10h28.56.258,lexical_decision_task_DD_L5,2021.2.3,Win32,59.76929054,,,,,,,,,,,3.1099,1,,,,,,,,,,,,,,m,1,3.1099,,,,,,,,-0.007777778,-0.39,0,0,0,,0,163,163,36,1,BOILER,HB,old,m,./images/BOILERHB.png,,,,,,,,,,,,,,,,,,,,,,,,,,,,,,,,,,,
,,,,,,,,,,,,,,,,,60be1e056f39c387c4f02308,35,2022-02-12_10h28.56.258,lexical_decision_task_DD_L5,2021.2.3,Win32,59.76929054,,,,,,,,,,,0.9239,1,,,,,,,,,,,,,,z,1,0.9239,,,,,,,,-0.007777778,-0.39,0,0,0,,0,164,164,86,1,AIFED,LB,old,z,./images/AIFEDLB.png,,,,,,,,,,,,,,,,,,,,,,,,,,,,,,,,,,,
,,,,,,,,,,,,,,,,,60be1e056f39c387c4f02308,35,2022-02-12_10h28.56.258,lexical_decision_task_DD_L5,2021.2.3,Win32,59.76929054,,,,,,,,,,,0.9053,1,,,,,,,,,,,,,,m,1,0.9053,,,,,,,,-0.007777778,-0.39,0,0,0,,0,165,165,54,1,CHERRY,HB,old,m,./images/CHERRYHB.png,,,,,,,,,,,,,,,,,,,,,,,,,,,,,,,,,,,
,,,,,,,,,,,,,,,,,60be1e056f39c387c4f02308,35,2022-02-12_10h28.56.258,lexical_decision_task_DD_L5,2021.2.3,Win32,59.76929054,,,,,,,,,,,0.8662,1,,,,,,,,,,,,,,z,1,0.8662,,,,,,,,-0.007777778,-0.39,0,0,0,,0,166,166,123,1,SEDGE,C,old,z,./images/SEDGE.png,,,,,,,,,,,,,,,,,,,,,,,,,,,,,,,,,,,
,,,,,,,,,,,,,,,,,60be1e056f39c387c4f02308,35,2022-02-12_10h28.56.258,lexical_decision_task_DD_L5,2021.2.3,Win32,59.76929054,,,,,,,,,,,0.6886,1,,,,,,,,,,,,,,m,1,0.6886,,,,,,,,-0.007777778,-0.39,0,0,0,,0,167,167,47,1,LAGOON,C,old,m,./images/LAGOON.png,,,,,,,,,,,,,,,,,,,,,,,,,,,,,,,,,,,
,,,,,,,,,,,,,,,,,60be1e056f39c387c4f02308,35,2022-02-12_10h28.56.258,lexical_decision_task_DD_L5,2021.2.3,Win32,59.76929054,,,,,,,,,,,,,,,,,,,,,,,,,,,,,,,,,,,,,,,,,,,,,,,,How likely will it be that you will recognize the words presented slighly blurred on a scale of 0 (not likely) to 100 (most likely)?,,,,,0.001111111,-0.418888889,1,0,0,jol_adv,5,7.8464,0,0,0,1,1,,,,,,,,,,,,,,,,,,,,,
,,,,,,,,,,,,,,,,,60be1e056f39c387c4f02308,35,2022-02-12_10h28.56.258,lexical_decision_task_DD_L5,2021.2.3,Win32,59.76929054,,,,,,,,,,,,,,,,,,,,,,,,,,,,,,,,,,,,,,,,,,,,,,,,How likely will it be that you will recognize the words presented very blurred on a scale of 0 (not likely) to 100 (most likely)?,,,,,,,,,,,5,9.1684,0,1,1,2,1,,,,,,,,,,,,,,,,,,,,,
,,,,,,,,,,,,,,,,,60be1e056f39c387c4f02308,35,2022-02-12_10h28.56.258,lexical_decision_task_DD_L5,2021.2.3,Win32,59.76929054,,,,,,,,,,,,,,,,,,,,,,,,,,,,,,,,,,,,,,,,,,,,,,,,How likely will it be that you will recognize the words presented clearly on a scale of 0 (not likely) to 100 (most likely)?,,,,,,,,,,,6,8.8315,0,2,2,0,1,,,,,,,,,,,,,,,,,,,,,
space,20.9519,0.007777778,-0.273333333,0,0,0,,,,,,1,test,"In the next phase you will be presented with the words from the the first phase. Your job is to decide whether you remember seeing the word or not. If you remember seeing the word press ""old"" or type ""m"". If you do not remember seeing the word press ""new"" or type ""z"". Please press the space bar or click on continue to begin. ",,,60be1e056f39c387c4f02308,35,2022-02-12_10h28.56.258,lexical_decision_task_DD_L5,2021.2.3,Win32,59.76929054,,,,,,,,,,,,,,,,,,,,,,,,,,,,,,,,,,,,,,,,,,,,,,,,,,,,,,,,,,,,,,,,,,0,0,0,0,1,,,,,,,,,,,,,,,,
space,2.9031,0.007777778,-0.273333333,0,0,0,,,,,,1,test,"In the next phase you will be presented with the words from the the first phase. Your job is to decide whether you remember seeing the word or not. If you remember seeing the word press ""old"" or type ""m"". If you do not remember seeing the word press ""new"" or type ""z"". Please press the space bar or click on continue to begin. ",,,60be1e056f39c387c4f02308,35,2022-02-12_10h28.56.258,lexical_decision_task_DD_L5,2021.2.3,Win32,59.76929054,,,,,,,,,,,,,,,,,,,,,,,,,,,,,,,,,,,,,,,,,,,,,,,,,,,,,,,,,,,,,,,,,,1,0,1,0,1,,,,,,,,,,,,,,,,
,,0.002222222,-0.405555556,1,0,0,,,,,,1,test,"In the next phase you will be presented with the words from the the first phase. Your job is to decide whether you remember seeing the word or not. If you remember seeing the word press ""old"" or type ""m"". If you do not remember seeing the word press ""new"" or type ""z"". Please press the space bar or click on continue to begin. ",,,60be1e056f39c387c4f02308,35,2022-02-12_10h28.56.258,lexical_decision_task_DD_L5,2021.2.3,Win32,59.76929054,,,,,,,,,,,,,,,,,,,,,,,,,,,,,,,,,,,,,,,,,,,,,,,,,,,,,,,,,,,,,,,,,,2,0,2,0,1,instr_done_button,,,,,,,,,,,,,,,
space,2.627,0.002222222,-0.405555556,0,0,0,,,,,,1,test,"In the next phase you will be presented with the words from the the first phase. Your job is to decide whether you remember seeing the word or not. If you remember seeing the word press ""old"" or type ""m"". If you do not remember seeing the word press ""new"" or type ""z"". Please press the space bar or click on continue to begin. ",,,60be1e056f39c387c4f02308,35,2022-02-12_10h28.56.258,lexical_decision_task_DD_L5,2021.2.3,Win32,59.76929054,,,,,,,,,,,,,,,,,,,,,,,,,,,,,,,,,,,,,,,,,,,,,,,,,,,,,,,,,,,,,,,,,,3,0,3,0,1,,,,,,,,,,,,,,,,
,,-0.028888889,-0.396666667,1,0,0,,,,,,1,test,"In the next phase you will be presented with the words from the the first phase. Your job is to decide whether you remember seeing the word or not. If you remember seeing the word press ""old"" or type ""m"". If you do not remember seeing the word press ""new"" or type ""z"". Please press the space bar or click on continue to begin. ",,,60be1e056f39c387c4f02308,35,2022-02-12_10h28.56.258,lexical_decision_task_DD_L5,2021.2.3,Win32,59.76929054,,,,,,,,,,,,,,,,,,,,,,,,,,,,,,,,,,,,,,,,,,,,,,,,,,,,,,,,,,,,,,,,,,4,0,4,0,1,instr_done_button,,,,,,,,,,,,,,,
,,,,,,,,,,,,,,,,,60be1e056f39c387c4f02308,35,2022-02-12_10h28.56.258,lexical_decision_task_DD_L5,2021.2.3,Win32,59.76929054,,,,,,,,,,,2.4423,1,,,,,,,,,,,,,,,,,,,,,,,,-0.028888889,-0.396666667,0,0,0,,,,,,,GRAPE,LB,m,y,./images/GRAPELB.png,,,,,,,,,,,,,,,,,,,,,m,1,2.4423,,,,,,,,0,0,0,16,1
,,,,,,,,,,,,,,,,,60be1e056f39c387c4f02308,35,2022-02-12_10h28.56.258,lexical_decision_task_DD_L5,2021.2.3,Win32,59.76929054,,,,,,,,,,,0.761,1,,,,,,,,,,,,,,,,,,,,,,,,-0.028888889,-0.396666667,0,0,0,,,,,,,VALLEY,C,m,y,./images/VALLEY.png,,,,,,,,,,,,,,,,,,,,,m,1,0.761,,,,,,,,0,1,1,68,1
,,,,,,,,,,,,,,,,,60be1e056f39c387c4f02308,35,2022-02-12_10h28.56.258,lexical_decision_task_DD_L5,2021.2.3,Win32,59.76929054,,,,,,,,,,,0.8332,1,,,,,,,,,,,,,,,,,,,,,,,,-0.028888889,-0.396666667,0,0,0,,,,,,,PARCEL,HB,m,y,./images/PARCELHB.png,,,,,,,,,,,,,,,,,,,,,m,1,0.8332,,,,,,,,0,2,2,18,1
,,,,,,,,,,,,,,,,,60be1e056f39c387c4f02308,35,2022-02-12_10h28.56.258,lexical_decision_task_DD_L5,2021.2.3,Win32,59.76929054,,,,,,,,,,,1.5207,1,,,,,,,,,,,,,,,,,,,,,,,,-0.028888889,-0.396666667,0,0,0,,,,,,,BRUSH,C,m,y,./images/BRUSH.png,,,,,,,,,,,,,,,,,,,,,m,1,1.5207,,,,,,,,0,3,3,59,1
,,,,,,,,,,,,,,,,,60be1e056f39c387c4f02308,35,2022-02-12_10h28.56.258,lexical_decision_task_DD_L5,2021.2.3,Win32,59.76929054,,,,,,,,,,,1.1384,0,,,,,,,,,,,,,,,,,,,,,,,,-0.028888889,-0.396666667,0,0,0,,,,,,,FERRY,HB,m,y,./images/FERRYHB.png,,,,,,,,,,,,,,,,,,,,,z,0,1.1384,,,,,,,,0,4,4,57,1
,,,,,,,,,,,,,,,,,60be1e056f39c387c4f02308,35,2022-02-12_10h28.56.258,lexical_decision_task_DD_L5,2021.2.3,Win32,59.76929054,,,,,,,,,,,1.1701,1,,,,,,,,,,,,,,,,,,,,,,,,-0.028888889,-0.396666667,0,0,0,,,,,,,SQUARE,HB,z,y,./images/SQUAREHB.png,,,,,,,,,,,,,,,,,,,,,z,1,1.1701,,,,,,,,0,5,5,90,1
,,,,,,,,,,,,,,,,,60be1e056f39c387c4f02308,35,2022-02-12_10h28.56.258,lexical_decision_task_DD_L5,2021.2.3,Win32,59.76929054,,,,,,,,,,,2.0211,1,,,,,,,,,,,,,,,,,,,,,,,,-0.028888889,-0.396666667,0,0,0,,,,,,,GARDEN,LB,m,y,./images/GARDENLB.png,,,,,,,,,,,,,,,,,,,,,m,1,2.0211,,,,,,,,0,6,6,10,1
,,,,,,,,,,,,,,,,,60be1e056f39c387c4f02308,35,2022-02-12_10h28.56.258,lexical_decision_task_DD_L5,2021.2.3,Win32,59.76929054,,,,,,,,,,,1.3061,0,,,,,,,,,,,,,,,,,,,,,,,,-0.028888889,-0.396666667,0,0,0,,,,,,,SCREW,HB,z,y,./images/SCREWHB.png,,,,,,,,,,,,,,,,,,,,,m,0,1.3061,,,,,,,,0,7,7,108,1
,,,,,,,,,,,,,,,,,60be1e056f39c387c4f02308,35,2022-02-12_10h28.56.258,lexical_decision_task_DD_L5,2021.2.3,Win32,59.76929054,,,,,,,,,,,2.9065,1,,,,,,,,,,,,,,,,,,,,,,,,-0.028888889,-0.396666667,0,0,0,,,,,,,MALLET,C,z,y,./images/MALLET.png,,,,,,,,,,,,,,,,,,,,,z,1,2.9065,,,,,,,,0,8,8,134,1
,,,,,,,,,,,,,,,,,60be1e056f39c387c4f02308,35,2022-02-12_10h28.56.258,lexical_decision_task_DD_L5,2021.2.3,Win32,59.76929054,,,,,,,,,,,1.4529,0,,,,,,,,,,,,,,,,,,,,,,,,-0.028888889,-0.396666667,0,0,0,,,,,,,BELLY,LB,z,y,./images/BELLYLB.png,,,,,,,,,,,,,,,,,,,,,m,0,1.4529,,,,,,,,0,9,9,94,1
,,,,,,,,,,,,,,,,,60be1e056f39c387c4f02308,35,2022-02-12_10h28.56.258,lexical_decision_task_DD_L5,2021.2.3,Win32,59.76929054,,,,,,,,,,,1.1032,1,,,,,,,,,,,,,,,,,,,,,,,,-0.028888889,-0.396666667,0,0,0,,,,,,,STAIN,HB,m,y,./images/STAINHB.png,,,,,,,,,,,,,,,,,,,,,m,1,1.1032,,,,,,,,0,10,10,6,1
,,,,,,,,,,,,,,,,,60be1e056f39c387c4f02308,35,2022-02-12_10h28.56.258,lexical_decision_task_DD_L5,2021.2.3,Win32,59.76929054,,,,,,,,,,,0.7627,1,,,,,,,,,,,,,,,,,,,,,,,,-0.028888889,-0.396666667,0,0,0,,,,,,,STATUE,HB,m,y,./images/STATUEHB.png,,,,,,,,,,,,,,,,,,,,,m,1,0.7627,,,,,,,,0,11,11,66,1
,,,,,,,,,,,,,,,,,60be1e056f39c387c4f02308,35,2022-02-12_10h28.56.258,lexical_decision_task_DD_L5,2021.2.3,Win32,59.76929054,,,,,,,,,,,0.7691,1,,,,,,,,,,,,,,,,,,,,,,,,-0.028888889,-0.396666667,0,0,0,,,,,,,CASINO,LB,m,y,./images/CASINOLB.png,,,,,,,,,,,,,,,,,,,,,m,1,0.7691,,,,,,,,0,12,12,28,1
,,,,,,,,,,,,,,,,,60be1e056f39c387c4f02308,35,2022-02-12_10h28.56.258,lexical_decision_task_DD_L5,2021.2.3,Win32,59.76929054,,,,,,,,,,,1.3712,1,,,,,,,,,,,,,,,,,,,,,,,,-0.028888889,-0.396666667,0,0,0,,,,,,,CANDLE,LB,z,y,./images/CANDLELB.png,,,,,,,,,,,,,,,,,,,,,z,1,1.3712,,,,,,,,0,13,13,145,1
,,,,,,,,,,,,,,,,,60be1e056f39c387c4f02308,35,2022-02-12_10h28.56.258,lexical_decision_task_DD_L5,2021.2.3,Win32,59.76929054,,,,,,,,,,,1.221,1,,,,,,,,,,,,,,,,,,,,,,,,-0.028888889,-0.396666667,0,0,0,,,,,,,COOKER,HB,z,y,./images/COOKERHB.png,,,,,,,,,,,,,,,,,,,,,z,1,1.221,,,,,,,,0,14,14,153,1
,,,,,,,,,,,,,,,,,60be1e056f39c387c4f02308,35,2022-02-12_10h28.56.258,lexical_decision_task_DD_L5,2021.2.3,Win32,59.76929054,,,,,,,,,,,1.2243,1,,,,,,,,,,,,,,,,,,,,,,,,-0.028888889,-0.396666667,0,0,0,,,,,,,SHORE,HB,z,y,./images/SHOREHB.png,,,,,,,,,,,,,,,,,,,,,z,1,1.2243,,,,,,,,0,15,15,96,1
,,,,,,,,,,,,,,,,,60be1e056f39c387c4f02308,35,2022-02-12_10h28.56.258,lexical_decision_task_DD_L5,2021.2.3,Win32,59.76929054,,,,,,,,,,,1.0524,1,,,,,,,,,,,,,,,,,,,,,,,,-0.028888889,-0.396666667,0,0,0,,,,,,,FALCON,LB,z,y,./images/FALCONLB.png,,,,,,,,,,,,,,,,,,,,,z,1,1.0524,,,,,,,,0,16,16,112,1
,,,,,,,,,,,,,,,,,60be1e056f39c387c4f02308,35,2022-02-12_10h28.56.258,lexical_decision_task_DD_L5,2021.2.3,Win32,59.76929054,,,,,,,,,,,0.8533,1,,,,,,,,,,,,,,,,,,,,,,,,-0.028888889,-0.396666667,0,0,0,,,,,,,TRIPOD,HB,z,y,./images/TRIPODHB.png,,,,,,,,,,,,,,,,,,,,,z,1,0.8533,,,,,,,,0,17,17,138,1
,,,,,,,,,,,,,,,,,60be1e056f39c387c4f02308,35,2022-02-12_10h28.56.258,lexical_decision_task_DD_L5,2021.2.3,Win32,59.76929054,,,,,,,,,,,0.9555,1,,,,,,,,,,,,,,,,,,,,,,,,-0.028888889,-0.396666667,0,0,0,,,,,,,ONION,HB,z,y,./images/ONIONHB.png,,,,,,,,,,,,,,,,,,,,,z,1,0.9555,,,,,,,,0,18,18,135,1
,,,,,,,,,,,,,,,,,60be1e056f39c387c4f02308,35,2022-02-12_10h28.56.258,lexical_decision_task_DD_L5,2021.2.3,Win32,59.76929054,,,,,,,,,,,1.3048,1,,,,,,,,,,,,,,,,,,,,,,,,-0.028888889,-0.396666667,0,0,0,,,,,,,BONNET,C,z,y,./images/BONNET.png,,,,,,,,,,,,,,,,,,,,,z,1,1.3048,,,,,,,,0,19,19,95,1
,,,,,,,,,,,,,,,,,60be1e056f39c387c4f02308,35,2022-02-12_10h28.56.258,lexical_decision_task_DD_L5,2021.2.3,Win32,59.76929054,,,,,,,,,,,0.8023,0,,,,,,,,,,,,,,,,,,,,,,,,-0.028888889,-0.396666667,0,0,0,,,,,,,DONKEY,LB,m,y,./images/DONKEYLB.png,,,,,,,,,,,,,,,,,,,,,z,0,0.8023,,,,,,,,0,20,20,19,1
,,,,,,,,,,,,,,,,,60be1e056f39c387c4f02308,35,2022-02-12_10h28.56.258,lexical_decision_task_DD_L5,2021.2.3,Win32,59.76929054,,,,,,,,,,,1.2038,1,,,,,,,,,,,,,,,,,,,,,,,,-0.028888889,-0.396666667,0,0,0,,,,,,,LITTER,HB,z,y,./images/LITTERHB.png,,,,,,,,,,,,,,,,,,,,,z,1,1.2038,,,,,,,,0,21,21,162,1
,,,,,,,,,,,,,,,,,60be1e056f39c387c4f02308,35,2022-02-12_10h28.56.258,lexical_decision_task_DD_L5,2021.2.3,Win32,59.76929054,,,,,,,,,,,1.1193,1,,,,,,,,,,,,,,,,,,,,,,,,-0.028888889,-0.396666667,0,0,0,,,,,,,PASTA,C,z,y,./images/PASTA.png,,,,,,,,,,,,,,,,,,,,,z,1,1.1193,,,,,,,,0,22,22,89,1
,,,,,,,,,,,,,,,,,60be1e056f39c387c4f02308,35,2022-02-12_10h28.56.258,lexical_decision_task_DD_L5,2021.2.3,Win32,59.76929054,,,,,,,,,,,1.2361,0,,,,,,,,,,,,,,,,,,,,,,,,-0.028888889,-0.396666667,0,0,0,,,,,,,SAUNA,HB,m,y,./images/SAUNAHB.png,,,,,,,,,,,,,,,,,,,,,z,0,1.2361,,,,,,,,0,23,23,33,1
,,,,,,,,,,,,,,,,,60be1e056f39c387c4f02308,35,2022-02-12_10h28.56.258,lexical_decision_task_DD_L5,2021.2.3,Win32,59.76929054,,,,,,,,,,,1.1978,0,,,,,,,,,,,,,,,,,,,,,,,,-0.028888889,-0.396666667,0,0,0,,,,,,,NOOSE,HB,z,y,./images/NOOSEHB.png,,,,,,,,,,,,,,,,,,,,,m,0,1.1978,,,,,,,,0,24,24,156,1
,,,,,,,,,,,,,,,,,60be1e056f39c387c4f02308,35,2022-02-12_10h28.56.258,lexical_decision_task_DD_L5,2021.2.3,Win32,59.76929054,,,,,,,,,,,1.287,0,,,,,,,,,,,,,,,,,,,,,,,,-0.028888889,-0.396666667,0,0,0,,,,,,,ARROW,HB,m,y,./images/ARROWHB.png,,,,,,,,,,,,,,,,,,,,,z,0,1.287,,,,,,,,0,25,25,69,1
,,,,,,,,,,,,,,,,,60be1e056f39c387c4f02308,35,2022-02-12_10h28.56.258,lexical_decision_task_DD_L5,2021.2.3,Win32,59.76929054,,,,,,,,,,,1.4036,0,,,,,,,,,,,,,,,,,,,,,,,,-0.028888889,-0.396666667,0,0,0,,,,,,,FLESH,HB,m,y,./images/FLESHHB.png,,,,,,,,,,,,,,,,,,,,,z,0,1.4036,,,,,,,,0,26,26,24,1
,,,,,,,,,,,,,,,,,60be1e056f39c387c4f02308,35,2022-02-12_10h28.56.258,lexical_decision_task_DD_L5,2021.2.3,Win32,59.76929054,,,,,,,,,,,1.1028,1,,,,,,,,,,,,,,,,,,,,,,,,-0.028888889,-0.396666667,0,0,0,,,,,,,KITTEN,HB,z,y,./images/KITTENHB.png,,,,,,,,,,,,,,,,,,,,,z,1,1.1028,,,,,,,,0,27,27,129,1
,,,,,,,,,,,,,,,,,60be1e056f39c387c4f02308,35,2022-02-12_10h28.56.258,lexical_decision_task_DD_L5,2021.2.3,Win32,59.76929054,,,,,,,,,,,2.0051,1,,,,,,,,,,,,,,,,,,,,,,,,-0.028888889,-0.396666667,0,0,0,,,,,,,TWINS,HB,z,y,./images/TWINSHB.png,,,,,,,,,,,,,,,,,,,,,z,1,2.0051,,,,,,,,0,28,28,144,1
,,,,,,,,,,,,,,,,,60be1e056f39c387c4f02308,35,2022-02-12_10h28.56.258,lexical_decision_task_DD_L5,2021.2.3,Win32,59.76929054,,,,,,,,,,,1.1631,0,,,,,,,,,,,,,,,,,,,,,,,,-0.028888889,-0.396666667,0,0,0,,,,,,,WHEEL,C,m,y,./images/WHEEL.png,,,,,,,,,,,,,,,,,,,,,z,0,1.1631,,,,,,,,0,29,29,77,1
,,,,,,,,,,,,,,,,,60be1e056f39c387c4f02308,35,2022-02-12_10h28.56.258,lexical_decision_task_DD_L5,2021.2.3,Win32,59.76929054,,,,,,,,,,,0.836,1,,,,,,,,,,,,,,,,,,,,,,,,-0.028888889,-0.396666667,0,0,0,,,,,,,LAGOON,C,m,y,./images/LAGOON.png,,,,,,,,,,,,,,,,,,,,,m,1,0.836,,,,,,,,0,30,30,47,1
,,,,,,,,,,,,,,,,,60be1e056f39c387c4f02308,35,2022-02-12_10h28.56.258,lexical_decision_task_DD_L5,2021.2.3,Win32,59.76929054,,,,,,,,,,,2.2382,0,,,,,,,,,,,,,,,,,,,,,,,,-0.028888889,-0.396666667,0,0,0,,,,,,,STREAM,C,m,y,./images/STREAM.png,,,,,,,,,,,,,,,,,,,,,z,0,2.2382,,,,,,,,0,31,31,41,1
,,,,,,,,,,,,,,,,,60be1e056f39c387c4f02308,35,2022-02-12_10h28.56.258,lexical_decision_task_DD_L5,2021.2.3,Win32,59.76929054,,,,,,,,,,,0.7478,1,,,,,,,,,,,,,,,,,,,,,,,,-0.028888889,-0.396666667,0,0,0,,,,,,,BISHOP,LB,m,y,./images/BISHOPLB.png,,,,,,,,,,,,,,,,,,,,,m,1,0.7478,,,,,,,,0,32,32,49,1
,,,,,,,,,,,,,,,,,60be1e056f39c387c4f02308,35,2022-02-12_10h28.56.258,lexical_decision_task_DD_L5,2021.2.3,Win32,59.76929054,,,,,,,,,,,0.7453,1,,,,,,,,,,,,,,,,,,,,,,,,-0.028888889,-0.396666667,0,0,0,,,,,,,JUMPER,C,m,y,./images/JUMPER.png,,,,,,,,,,,,,,,,,,,,,m,1,0.7453,,,,,,,,0,33,33,74,1
,,,,,,,,,,,,,,,,,60be1e056f39c387c4f02308,35,2022-02-12_10h28.56.258,lexical_decision_task_DD_L5,2021.2.3,Win32,59.76929054,,,,,,,,,,,1.2605,0,,,,,,,,,,,,,,,,,,,,,,,,-0.028888889,-0.396666667,0,0,0,,,,,,,MOOSE,HB,z,y,./images/MOOSEHB.png,,,,,,,,,,,,,,,,,,,,,m,0,1.2605,,,,,,,,0,34,34,141,1
,,,,,,,,,,,,,,,,,60be1e056f39c387c4f02308,35,2022-02-12_10h28.56.258,lexical_decision_task_DD_L5,2021.2.3,Win32,59.76929054,,,,,,,,,,,0.7375,1,,,,,,,,,,,,,,,,,,,,,,,,-0.028888889,-0.396666667,0,0,0,,,,,,,FLASK,HB,m,y,./images/FLASKHB.png,,,,,,,,,,,,,,,,,,,,,m,1,0.7375,,,,,,,,0,35,35,72,1
,,,,,,,,,,,,,,,,,60be1e056f39c387c4f02308,35,2022-02-12_10h28.56.258,lexical_decision_task_DD_L5,2021.2.3,Win32,59.76929054,,,,,,,,,,,1.3585,1,,,,,,,,,,,,,,,,,,,,,,,,-0.028888889,-0.396666667,0,0,0,,,,,,,CANYON,LB,z,y,./images/CANYONLB.png,,,,,,,,,,,,,,,,,,,,,z,1,1.3585,,,,,,,,0,36,36,118,1
,,,,,,,,,,,,,,,,,60be1e056f39c387c4f02308,35,2022-02-12_10h28.56.258,lexical_decision_task_DD_L5,2021.2.3,Win32,59.76929054,,,,,,,,,,,0.8761,1,,,,,,,,,,,,,,,,,,,,,,,,-0.028888889,-0.396666667,0,0,0,,,,,,,BABOON,LB,z,y,./images/BABOONLB.png,,,,,,,,,,,,,,,,,,,,,z,1,0.8761,,,,,,,,0,37,37,142,1
,,,,,,,,,,,,,,,,,60be1e056f39c387c4f02308,35,2022-02-12_10h28.56.258,lexical_decision_task_DD_L5,2021.2.3,Win32,59.76929054,,,,,,,,,,,1.0531,1,,,,,,,,,,,,,,,,,,,,,,,,-0.028888889,-0.396666667,0,0,0,,,,,,,SNACK,LB,z,y,./images/SNACKLB.png,,,,,,,,,,,,,,,,,,,,,z,1,1.0531,,,,,,,,0,38,38,157,1
,,,,,,,,,,,,,,,,,60be1e056f39c387c4f02308,35,2022-02-12_10h28.56.258,lexical_decision_task_DD_L5,2021.2.3,Win32,59.76929054,,,,,,,,,,,0.9703,1,,,,,,,,,,,,,,,,,,,,,,,,-0.028888889,-0.396666667,0,0,0,,,,,,,MUFFIN,LB,z,y,./images/MUFFINLB.png,,,,,,,,,,,,,,,,,,,,,z,1,0.9703,,,,,,,,0,39,39,139,1
,,,,,,,,,,,,,,,,,60be1e056f39c387c4f02308,35,2022-02-12_10h28.56.258,lexical_decision_task_DD_L5,2021.2.3,Win32,59.76929054,,,,,,,,,,,2.0881,1,,,,,,,,,,,,,,,,,,,,,,,,-0.028888889,-0.396666667,0,0,0,,,,,,,MAGGOT,HB,z,y,./images/MAGGOTHB.png,,,,,,,,,,,,,,,,,,,,,z,1,2.0881,,,,,,,,0,40,40,117,1
,,,,,,,,,,,,,,,,,60be1e056f39c387c4f02308,35,2022-02-12_10h28.56.258,lexical_decision_task_DD_L5,2021.2.3,Win32,59.76929054,,,,,,,,,,,0.6733,1,,,,,,,,,,,,,,,,,,,,,,,,-0.028888889,-0.396666667,0,0,0,space,,,,,,BANANA,LB,m,y,./images/BANANALB.png,2.6718,,,,,,,,,,,,,,,,,,,,m,1,0.6733,,,,,,,,0,41,41,70,1
,,,,,,,,,,,,,,,,,60be1e056f39c387c4f02308,35,2022-02-12_10h28.56.258,lexical_decision_task_DD_L5,2021.2.3,Win32,59.76929054,,,,,,,,,,,1.0693,1,,,,,,,,,,,,,,,,,,,,,,,,-0.028888889,-0.396666667,0,0,0,,,,,,,MOTOR,LB,z,y,./images/MOTORLB.png,,,,,,,,,,,,,,,,,,,,,z,1,1.0693,,,,,,,,0,42,42,97,1
,,,,,,,,,,,,,,,,,60be1e056f39c387c4f02308,35,2022-02-12_10h28.56.258,lexical_decision_task_DD_L5,2021.2.3,Win32,59.76929054,,,,,,,,,,,0.8189,1,,,,,,,,,,,,,,,,,,,,,,,,-0.028888889,-0.396666667,0,0,0,,,,,,,FARMER,C,z,y,./images/FARMER.png,,,,,,,,,,,,,,,,,,,,,z,1,0.8189,,,,,,,,0,43,43,149,1
,,,,,,,,,,,,,,,,,60be1e056f39c387c4f02308,35,2022-02-12_10h28.56.258,lexical_decision_task_DD_L5,2021.2.3,Win32,59.76929054,,,,,,,,,,,0.7206,1,,,,,,,,,,,,,,,,,,,,,,,,-0.028888889,-0.396666667,0,0,0,,,,,,,LIZARD,C,z,y,./images/LIZARD.png,,,,,,,,,,,,,,,,,,,,,z,1,0.7206,,,,,,,,0,44,44,128,1
,,,,,,,,,,,,,,,,,60be1e056f39c387c4f02308,35,2022-02-12_10h28.56.258,lexical_decision_task_DD_L5,2021.2.3,Win32,59.76929054,,,,,,,,,,,1.4867,0,,,,,,,,,,,,,,,,,,,,,,,,-0.028888889,-0.396666667,0,0,0,,,,,,,GLOVE,LB,m,y,./images/GLOVELB.png,,,,,,,,,,,,,,,,,,,,,z,0,1.4867,,,,,,,,0,45,45,73,1
,,,,,,,,,,,,,,,,,60be1e056f39c387c4f02308,35,2022-02-12_10h28.56.258,lexical_decision_task_DD_L5,2021.2.3,Win32,59.76929054,,,,,,,,,,,0.8967,1,,,,,,,,,,,,,,,,,,,,,,,,-0.028888889,-0.396666667,0,0,0,,,,,,,SUNSET,LB,z,y,./images/SUNSETLB.png,,,,,,,,,,,,,,,,,,,,,z,1,0.8967,,,,,,,,0,46,46,166,1
,,,,,,,,,,,,,,,,,60be1e056f39c387c4f02308,35,2022-02-12_10h28.56.258,lexical_decision_task_DD_L5,2021.2.3,Win32,59.76929054,,,,,,,,,,,1.036,1,,,,,,,,,,,,,,,,,,,,,,,,-0.028888889,-0.396666667,0,0,0,,,,,,,CLOTH,C,m,y,./images/CLOTH.png,,,,,,,,,,,,,,,,,,,,,m,1,1.036,,,,,,,,0,47,47,23,1
,,,,,,,,,,,,,,,,,60be1e056f39c387c4f02308,35,2022-02-12_10h28.56.258,lexical_decision_task_DD_L5,2021.2.3,Win32,59.76929054,,,,,,,,,,,0.7616,1,,,,,,,,,,,,,,,,,,,,,,,,-0.028888889,-0.396666667,0,0,0,,,,,,,ARTIST,LB,m,y,./images/ARTISTLB.png,,,,,,,,,,,,,,,,,,,,,m,1,0.7616,,,,,,,,0,48,48,61,1
,,,,,,,,,,,,,,,,,60be1e056f39c387c4f02308,35,2022-02-12_10h28.56.258,lexical_decision_task_DD_L5,2021.2.3,Win32,59.76929054,,,,,,,,,,,0.8361,1,,,,,,,,,,,,,,,,,,,,,,,,-0.028888889,-0.396666667,0,0,0,,,,,,,PIMPLE,C,z,y,./images/PIMPLE.png,,,,,,,,,,,,,,,,,,,,,z,1,0.8361,,,,,,,,0,49,49,155,1
,,,,,,,,,,,,,,,,,60be1e056f39c387c4f02308,35,2022-02-12_10h28.56.258,lexical_decision_task_DD_L5,2021.2.3,Win32,59.76929054,,,,,,,,,,,0.7523,1,,,,,,,,,,,,,,,,,,,,,,,,-0.028888889,-0.396666667,0,0,0,,,,,,,MUMMY,LB,m,y,./images/MUMMYLB.png,,,,,,,,,,,,,,,,,,,,,m,1,0.7523,,,,,,,,0,50,50,46,1
,,,,,,,,,,,,,,,,,60be1e056f39c387c4f02308,35,2022-02-12_10h28.56.258,lexical_decision_task_DD_L5,2021.2.3,Win32,59.76929054,,,,,,,,,,,0.9031,0,,,,,,,,,,,,,,,,,,,,,,,,-0.028888889,-0.396666667,0,0,0,,,,,,,JUNGLE,C,z,y,./images/JUNGLE.png,,,,,,,,,,,,,,,,,,,,,m,0,0.9031,,,,,,,,0,51,51,167,1
,,,,,,,,,,,,,,,,,60be1e056f39c387c4f02308,35,2022-02-12_10h28.56.258,lexical_decision_task_DD_L5,2021.2.3,Win32,59.76929054,,,,,,,,,,,0.7695,1,,,,,,,,,,,,,,,,,,,,,,,,-0.028888889,-0.396666667,0,0,0,,,,,,,BUNNY,LB,m,y,./images/BUNNYLB.png,,,,,,,,,,,,,,,,,,,,,m,1,0.7695,,,,,,,,0,52,52,13,1
,,,,,,,,,,,,,,,,,60be1e056f39c387c4f02308,35,2022-02-12_10h28.56.258,lexical_decision_task_DD_L5,2021.2.3,Win32,59.76929054,,,,,,,,,,,1.2863,1,,,,,,,,,,,,,,,,,,,,,,,,-0.028888889,-0.396666667,0,0,0,,,,,,,GRAIN,HB,z,y,./images/GRAINHB.png,,,,,,,,,,,,,,,,,,,,,z,1,1.2863,,,,,,,,0,53,53,159,1
,,,,,,,,,,,,,,,,,60be1e056f39c387c4f02308,35,2022-02-12_10h28.56.258,lexical_decision_task_DD_L5,2021.2.3,Win32,59.76929054,,,,,,,,,,,2.4728,1,,,,,,,,,,,,,,,,,,,,,,,,-0.028888889,-0.396666667,0,0,0,,,,,,,PENCE,LB,z,y,./images/PENCELB.png,,,,,,,,,,,,,,,,,,,,,z,1,2.4728,,,,,,,,0,54,54,100,1
,,,,,,,,,,,,,,,,,60be1e056f39c387c4f02308,35,2022-02-12_10h28.56.258,lexical_decision_task_DD_L5,2021.2.3,Win32,59.76929054,,,,,,,,,,,0.7198,1,,,,,,,,,,,,,,,,,,,,,,,,-0.028888889,-0.396666667,0,0,0,,,,,,,PARADE,C,m,y,./images/PARADE.png,,,,,,,,,,,,,,,,,,,,,m,1,0.7198,,,,,,,,0,55,55,17,1
,,,,,,,,,,,,,,,,,60be1e056f39c387c4f02308,35,2022-02-12_10h28.56.258,lexical_decision_task_DD_L5,2021.2.3,Win32,59.76929054,,,,,,,,,,,1.8639,0,,,,,,,,,,,,,,,,,,,,,,,,-0.028888889,-0.396666667,0,0,0,,,,,,,SLOPE,HB,m,y,./images/SLOPEHB.png,,,,,,,,,,,,,,,,,,,,,z,0,1.8639,,,,,,,,0,56,56,30,1
,,,,,,,,,,,,,,,,,60be1e056f39c387c4f02308,35,2022-02-12_10h28.56.258,lexical_decision_task_DD_L5,2021.2.3,Win32,59.76929054,,,,,,,,,,,0.7003,1,,,,,,,,,,,,,,,,,,,,,,,,-0.028888889,-0.396666667,0,0,0,,,,,,,CANDY,HB,m,y,./images/CANDYHB.png,,,,,,,,,,,,,,,,,,,,,m,1,0.7003,,,,,,,,0,57,57,39,1
,,,,,,,,,,,,,,,,,60be1e056f39c387c4f02308,35,2022-02-12_10h28.56.258,lexical_decision_task_DD_L5,2021.2.3,Win32,59.76929054,,,,,,,,,,,0.7541,1,,,,,,,,,,,,,,,,,,,,,,,,-0.028888889,-0.396666667,0,0,0,,,,,,,MONKEY,HB,m,y,./images/MONKEYHB.png,,,,,,,,,,,,,,,,,,,,,m,1,0.7541,,,,,,,,0,58,58,45,1
,,,,,,,,,,,,,,,,,60be1e056f39c387c4f02308,35,2022-02-12_10h28.56.258,lexical_decision_task_DD_L5,2021.2.3,Win32,59.76929054,,,,,,,,,,,1.794,0,,,,,,,,,,,,,,,,,,,,,,,,-0.028888889,-0.396666667,0,0,0,,,,,,,CLIFF,C,m,y,./images/CLIFF.png,,,,,,,,,,,,,,,,,,,,,z,0,1.794,,,,,,,,0,59,59,8,1
,,,,,,,,,,,,,,,,,60be1e056f39c387c4f02308,35,2022-02-12_10h28.56.258,lexical_decision_task_DD_L5,2021.2.3,Win32,59.76929054,,,,,,,,,,,1.0183,1,,,,,,,,,,,,,,,,,,,,,,,,-0.028888889,-0.396666667,0,0,0,,,,,,,BIRTH,LB,z,y,./images/BIRTHLB.png,,,,,,,,,,,,,,,,,,,,,z,1,1.0183,,,,,,,,0,60,60,121,1
,,,,,,,,,,,,,,,,,60be1e056f39c387c4f02308,35,2022-02-12_10h28.56.258,lexical_decision_task_DD_L5,2021.2.3,Win32,59.76929054,,,,,,,,,,,0.7022,1,,,,,,,,,,,,,,,,,,,,,,,,-0.028888889,-0.396666667,0,0,0,,,,,,,BAKER,HB,m,y,./images/BAKERHB.png,,,,,,,,,,,,,,,,,,,,,m,1,0.7022,,,,,,,,0,61,61,63,1
,,,,,,,,,,,,,,,,,60be1e056f39c387c4f02308,35,2022-02-12_10h28.56.258,lexical_decision_task_DD_L5,2021.2.3,Win32,59.76929054,,,,,,,,,,,0.8042,1,,,,,,,,,,,,,,,,,,,,,,,,-0.028888889,-0.396666667,0,0,0,,,,,,,STOVE,C,m,y,./images/STOVE.png,,,,,,,,,,,,,,,,,,,,,m,1,0.8042,,,,,,,,0,62,62,2,1
,,,,,,,,,,,,,,,,,60be1e056f39c387c4f02308,35,2022-02-12_10h28.56.258,lexical_decision_task_DD_L5,2021.2.3,Win32,59.76929054,,,,,,,,,,,0.7024,0,,,,,,,,,,,,,,,,,,,,,,,,-0.028888889,-0.396666667,0,0,0,,,,,,,BARREL,C,z,y,./images/BARREL.png,,,,,,,,,,,,,,,,,,,,,m,0,0.7024,,,,,,,,0,63,63,116,1
,,,,,,,,,,,,,,,,,60be1e056f39c387c4f02308,35,2022-02-12_10h28.56.258,lexical_decision_task_DD_L5,2021.2.3,Win32,59.76929054,,,,,,,,,,,0.7518,1,,,,,,,,,,,,,,,,,,,,,,,,-0.028888889,-0.396666667,0,0,0,,,,,,,PEBBLE,LB,m,y,./images/PEBBLELB.png,,,,,,,,,,,,,,,,,,,,,m,1,0.7518,,,,,,,,0,64,64,82,1
,,,,,,,,,,,,,,,,,60be1e056f39c387c4f02308,35,2022-02-12_10h28.56.258,lexical_decision_task_DD_L5,2021.2.3,Win32,59.76929054,,,,,,,,,,,0.7525,1,,,,,,,,,,,,,,,,,,,,,,,,-0.028888889,-0.396666667,0,0,0,,,,,,,STEAK,LB,m,y,./images/STEAKLB.png,,,,,,,,,,,,,,,,,,,,,m,1,0.7525,,,,,,,,0,65,65,31,1
,,,,,,,,,,,,,,,,,60be1e056f39c387c4f02308,35,2022-02-12_10h28.56.258,lexical_decision_task_DD_L5,2021.2.3,Win32,59.76929054,,,,,,,,,,,1.221,1,,,,,,,,,,,,,,,,,,,,,,,,-0.028888889,-0.396666667,0,0,0,,,,,,,FINGER,HB,z,y,./images/FINGERHB.png,,,,,,,,,,,,,,,,,,,,,z,1,1.221,,,,,,,,0,66,66,87,1
,,,,,,,,,,,,,,,,,60be1e056f39c387c4f02308,35,2022-02-12_10h28.56.258,lexical_decision_task_DD_L5,2021.2.3,Win32,59.76929054,,,,,,,,,,,0.6844,1,,,,,,,,,,,,,,,,,,,,,,,,-0.028888889,-0.396666667,0,0,0,,,,,,,FENCE,C,m,y,./images/FENCE.png,,,,,,,,,,,,,,,,,,,,,m,1,0.6844,,,,,,,,0,67,67,14,1
,,,,,,,,,,,,,,,,,60be1e056f39c387c4f02308,35,2022-02-12_10h28.56.258,lexical_decision_task_DD_L5,2021.2.3,Win32,59.76929054,,,,,,,,,,,1.0745,0,,,,,,,,,,,,,,,,,,,,,,,,-0.028888889,-0.396666667,0,0,0,,,,,,,SWING,LB,z,y,./images/SWINGLB.png,,,,,,,,,,,,,,,,,,,,,m,0,1.0745,,,,,,,,0,68,68,124,1
,,,,,,,,,,,,,,,,,60be1e056f39c387c4f02308,35,2022-02-12_10h28.56.258,lexical_decision_task_DD_L5,2021.2.3,Win32,59.76929054,,,,,,,,,,,0.9914,1,,,,,,,,,,,,,,,,,,,,,,,,-0.028888889,-0.396666667,0,0,0,,,,,,,JELLY,LB,z,y,./images/JELLYLB.png,,,,,,,,,,,,,,,,,,,,,z,1,0.9914,,,,,,,,0,69,69,148,1
,,,,,,,,,,,,,,,,,60be1e056f39c387c4f02308,35,2022-02-12_10h28.56.258,lexical_decision_task_DD_L5,2021.2.3,Win32,59.76929054,,,,,,,,,,,1.1549,1,,,,,,,,,,,,,,,,,,,,,,,,-0.028888889,-0.396666667,0,0,0,,,,,,,POODLE,HB,z,y,./images/POODLEHB.png,,,,,,,,,,,,,,,,,,,,,z,1,1.1549,,,,,,,,0,70,70,165,1
,,,,,,,,,,,,,,,,,60be1e056f39c387c4f02308,35,2022-02-12_10h28.56.258,lexical_decision_task_DD_L5,2021.2.3,Win32,59.76929054,,,,,,,,,,,0.8061,0,,,,,,,,,,,,,,,,,,,,,,,,-0.028888889,-0.396666667,0,0,0,,,,,,,BERRY,C,z,y,./images/BERRY.png,,,,,,,,,,,,,,,,,,,,,m,0,0.8061,,,,,,,,0,71,71,131,1
,,,,,,,,,,,,,,,,,60be1e056f39c387c4f02308,35,2022-02-12_10h28.56.258,lexical_decision_task_DD_L5,2021.2.3,Win32,59.76929054,,,,,,,,,,,1.1631,0,,,,,,,,,,,,,,,,,,,,,,,,-0.028888889,-0.396666667,0,0,0,,,,,,,BAMBOO,C,m,y,./images/BAMBOO.png,,,,,,,,,,,,,,,,,,,,,z,0,1.1631,,,,,,,,0,72,72,5,1
,,,,,,,,,,,,,,,,,60be1e056f39c387c4f02308,35,2022-02-12_10h28.56.258,lexical_decision_task_DD_L5,2021.2.3,Win32,59.76929054,,,,,,,,,,,0.9861,1,,,,,,,,,,,,,,,,,,,,,,,,-0.028888889,-0.396666667,0,0,0,,,,,,,TULIP,C,z,y,./images/TULIP.png,,,,,,,,,,,,,,,,,,,,,z,1,0.9861,,,,,,,,0,73,73,92,1
,,,,,,,,,,,,,,,,,60be1e056f39c387c4f02308,35,2022-02-12_10h28.56.258,lexical_decision_task_DD_L5,2021.2.3,Win32,59.76929054,,,,,,,,,,,1.372,1,,,,,,,,,,,,,,,,,,,,,,,,-0.028888889,-0.396666667,0,0,0,,,,,,,PACKET,C,z,y,./images/PACKET.png,,,,,,,,,,,,,,,,,,,,,z,1,1.372,,,,,,,,0,74,74,140,1
,,,,,,,,,,,,,,,,,60be1e056f39c387c4f02308,35,2022-02-12_10h28.56.258,lexical_decision_task_DD_L5,2021.2.3,Win32,59.76929054,,,,,,,,,,,0.9531,1,,,,,,,,,,,,,,,,,,,,,,,,-0.028888889,-0.396666667,0,0,0,,,,,,,DRUMS,LB,z,y,./images/DRUMSLB.png,,,,,,,,,,,,,,,,,,,,,z,1,0.9531,,,,,,,,0,75,75,133,1
,,,,,,,,,,,,,,,,,60be1e056f39c387c4f02308,35,2022-02-12_10h28.56.258,lexical_decision_task_DD_L5,2021.2.3,Win32,59.76929054,,,,,,,,,,,0.9193,1,,,,,,,,,,,,,,,,,,,,,,,,-0.028888889,-0.396666667,0,0,0,,,,,,,PICKLE,C,z,y,./images/PICKLE.png,,,,,,,,,,,,,,,,,,,,,z,1,0.9193,,,,,,,,0,76,76,98,1
,,,,,,,,,,,,,,,,,60be1e056f39c387c4f02308,35,2022-02-12_10h28.56.258,lexical_decision_task_DD_L5,2021.2.3,Win32,59.76929054,,,,,,,,,,,0.7527,1,,,,,,,,,,,,,,,,,,,,,,,,-0.028888889,-0.396666667,0,0,0,,,,,,,DOUGH,LB,z,y,./images/DOUGHLB.png,,,,,,,,,,,,,,,,,,,,,z,1,0.7527,,,,,,,,0,77,77,103,1
,,,,,,,,,,,,,,,,,60be1e056f39c387c4f02308,35,2022-02-12_10h28.56.258,lexical_decision_task_DD_L5,2021.2.3,Win32,59.76929054,,,,,,,,,,,0.8864,1,,,,,,,,,,,,,,,,,,,,,,,,-0.028888889,-0.396666667,0,0,0,,,,,,,SWEAT,HB,z,y,./images/SWEATHB.png,,,,,,,,,,,,,,,,,,,,,z,1,0.8864,,,,,,,,0,78,78,150,1
,,,,,,,,,,,,,,,,,60be1e056f39c387c4f02308,35,2022-02-12_10h28.56.258,lexical_decision_task_DD_L5,2021.2.3,Win32,59.76929054,,,,,,,,,,,0.7854,1,,,,,,,,,,,,,,,,,,,,,,,,-0.028888889,-0.396666667,0,0,0,,,,,,,INFANT,LB,z,y,./images/INFANTLB.png,,,,,,,,,,,,,,,,,,,,,z,1,0.7854,,,,,,,,0,79,79,160,1
,,,,,,,,,,,,,,,,,60be1e056f39c387c4f02308,35,2022-02-12_10h28.56.258,lexical_decision_task_DD_L5,2021.2.3,Win32,59.76929054,,,,,,,,,,,0.934,0,,,,,,,,,,,,,,,,,,,,,,,,-0.028888889,-0.396666667,0,0,0,,,,,,,CANOE,LB,m,y,./images/CANOELB.png,,,,,,,,,,,,,,,,,,,,,z,0,0.934,,,,,,,,0,80,80,58,1
,,,,,,,,,,,,,,,,,60be1e056f39c387c4f02308,35,2022-02-12_10h28.56.258,lexical_decision_task_DD_L5,2021.2.3,Win32,59.76929054,,,,,,,,,,,0.8177,1,,,,,,,,,,,,,,,,,,,,,,,,-0.028888889,-0.396666667,0,0,0,,,,,,,BRIDE,LB,m,y,./images/BRIDELB.png,,,,,,,,,,,,,,,,,,,,,m,1,0.8177,,,,,,,,0,81,81,64,1
,,,,,,,,,,,,,,,,,60be1e056f39c387c4f02308,35,2022-02-12_10h28.56.258,lexical_decision_task_DD_L5,2021.2.3,Win32,59.76929054,,,,,,,,,,,0.6531,1,,,,,,,,,,,,,,,,,,,,,,,,-0.028888889,-0.396666667,0,0,0,,,,,,,POSTER,C,m,y,./images/POSTER.png,,,,,,,,,,,,,,,,,,,,,m,1,0.6531,,,,,,,,0,82,82,53,1
,,,,,,,,,,,,,,,,,60be1e056f39c387c4f02308,35,2022-02-12_10h28.56.258,lexical_decision_task_DD_L5,2021.2.3,Win32,59.76929054,,,,,,,,,,,0.7862,1,,,,,,,,,,,,,,,,,,,,,,,,-0.028888889,-0.396666667,0,0,0,space,,,,,,MOSQUE,LB,z,y,./images/MOSQUELB.png,1.356,,,,,,,,,,,,,,,,,,,,z,1,0.7862,,,,,,,,0,83,83,127,1
,,,,,,,,,,,,,,,,,60be1e056f39c387c4f02308,35,2022-02-12_10h28.56.258,lexical_decision_task_DD_L5,2021.2.3,Win32,59.76929054,,,,,,,,,,,0.8743,1,,,,,,,,,,,,,,,,,,,,,,,,-0.028888889,-0.396666667,0,0,0,,,,,,,SAUCE,HB,m,y,./images/SAUCEHB.png,,,,,,,,,,,,,,,,,,,,,m,1,0.8743,,,,,,,,0,84,84,51,1
,,,,,,,,,,,,,,,,,60be1e056f39c387c4f02308,35,2022-02-12_10h28.56.258,lexical_decision_task_DD_L5,2021.2.3,Win32,59.76929054,,,,,,,,,,,0.5537,0,,,,,,,,,,,,,,,,,,,,,,,,-0.028888889,-0.396666667,0,0,0,,,,,,,PEARL,LB,z,y,./images/PEARLLB.png,,,,,,,,,,,,,,,,,,,,,m,0,0.5537,,,,,,,,0,85,85,130,1
,,,,,,,,,,,,,,,,,60be1e056f39c387c4f02308,35,2022-02-12_10h28.56.258,lexical_decision_task_DD_L5,2021.2.3,Win32,59.76929054,,,,,,,,,,,0.6029,1,,,,,,,,,,,,,,,,,,,,,,,,-0.028888889,-0.396666667,0,0,0,,,,,,,DIVER,HB,m,y,./images/DIVERHB.png,,,,,,,,,,,,,,,,,,,,,m,1,0.6029,,,,,,,,0,86,86,9,1
,,,,,,,,,,,,,,,,,60be1e056f39c387c4f02308,35,2022-02-12_10h28.56.258,lexical_decision_task_DD_L5,2021.2.3,Win32,59.76929054,,,,,,,,,,,0.6902,1,,,,,,,,,,,,,,,,,,,,,,,,-0.028888889,-0.396666667,0,0,0,,,,,,,BLOKE,HB,m,y,./images/BLOKEHB.png,,,,,,,,,,,,,,,,,,,,,m,1,0.6902,,,,,,,,0,87,87,12,1
,,,,,,,,,,,,,,,,,60be1e056f39c387c4f02308,35,2022-02-12_10h28.56.258,lexical_decision_task_DD_L5,2021.2.3,Win32,59.76929054,,,,,,,,,,,0.8176,1,,,,,,,,,,,,,,,,,,,,,,,,-0.028888889,-0.396666667,0,0,0,,,,,,,WAGON,LB,m,y,./images/WAGONLB.png,,,,,,,,,,,,,,,,,,,,,m,1,0.8176,,,,,,,,0,88,88,7,1
,,,,,,,,,,,,,,,,,60be1e056f39c387c4f02308,35,2022-02-12_10h28.56.258,lexical_decision_task_DD_L5,2021.2.3,Win32,59.76929054,,,,,,,,,,,1.0365,1,,,,,,,,,,,,,,,,,,,,,,,,-0.028888889,-0.396666667,0,0,0,,,,,,,FOLDER,HB,z,y,./images/FOLDERHB.png,,,,,,,,,,,,,,,,,,,,,z,1,1.0365,,,,,,,,0,89,89,126,1
,,,,,,,,,,,,,,,,,60be1e056f39c387c4f02308,35,2022-02-12_10h28.56.258,lexical_decision_task_DD_L5,2021.2.3,Win32,59.76929054,,,,,,,,,,,0.9185,1,,,,,,,,,,,,,,,,,,,,,,,,-0.028888889,-0.396666667,0,0,0,,,,,,,GREASE,HB,z,y,./images/GREASEHB.png,,,,,,,,,,,,,,,,,,,,,z,1,0.9185,,,,,,,,0,90,90,99,1
,,,,,,,,,,,,,,,,,60be1e056f39c387c4f02308,35,2022-02-12_10h28.56.258,lexical_decision_task_DD_L5,2021.2.3,Win32,59.76929054,,,,,,,,,,,1.0358,1,,,,,,,,,,,,,,,,,,,,,,,,-0.028888889,-0.396666667,0,0,0,,,,,,,SMOKER,C,z,y,./images/SMOKER.png,,,,,,,,,,,,,,,,,,,,,z,1,1.0358,,,,,,,,0,91,91,110,1
,,,,,,,,,,,,,,,,,60be1e056f39c387c4f02308,35,2022-02-12_10h28.56.258,lexical_decision_task_DD_L5,2021.2.3,Win32,59.76929054,,,,,,,,,,,1.1341,1,,,,,,,,,,,,,,,,,,,,,,,,-0.028888889,-0.396666667,0,0,0,,,,,,,CRADLE,C,z,y,./images/CRADLE.png,,,,,,,,,,,,,,,,,,,,,z,1,1.1341,,,,,,,,0,92,92,104,1
,,,,,,,,,,,,,,,,,60be1e056f39c387c4f02308,35,2022-02-12_10h28.56.258,lexical_decision_task_DD_L5,2021.2.3,Win32,59.76929054,,,,,,,,,,,0.7189,0,,,,,,,,,,,,,,,,,,,,,,,,-0.028888889,-0.396666667,0,0,0,,,,,,,CRUST,LB,z,y,./images/CRUSTLB.png,,,,,,,,,,,,,,,,,,,,,m,0,0.7189,,,,,,,,0,93,93,163,1
,,,,,,,,,,,,,,,,,60be1e056f39c387c4f02308,35,2022-02-12_10h28.56.258,lexical_decision_task_DD_L5,2021.2.3,Win32,59.76929054,,,,,,,,,,,1.0193,1,,,,,,,,,,,,,,,,,,,,,,,,-0.028888889,-0.396666667,0,0,0,,,,,,,BURIAL,C,z,y,./images/BURIAL.png,,,,,,,,,,,,,,,,,,,,,z,1,1.0193,,,,,,,,0,94,94,143,1
,,,,,,,,,,,,,,,,,60be1e056f39c387c4f02308,35,2022-02-12_10h28.56.258,lexical_decision_task_DD_L5,2021.2.3,Win32,59.76929054,,,,,,,,,,,1.103,1,,,,,,,,,,,,,,,,,,,,,,,,-0.028888889,-0.396666667,0,0,0,,,,,,,SNAKE,LB,m,y,./images/SNAKELB.png,,,,,,,,,,,,,,,,,,,,,m,1,1.103,,,,,,,,0,95,95,40,1
,,,,,,,,,,,,,,,,,60be1e056f39c387c4f02308,35,2022-02-12_10h28.56.258,lexical_decision_task_DD_L5,2021.2.3,Win32,59.76929054,,,,,,,,,,,0.6022,1,,,,,,,,,,,,,,,,,,,,,,,,-0.028888889,-0.396666667,0,0,0,,,,,,,SPINE,C,m,y,./images/SPINE.png,,,,,,,,,,,,,,,,,,,,,m,1,0.6022,,,,,,,,0,96,96,65,1
,,,,,,,,,,,,,,,,,60be1e056f39c387c4f02308,35,2022-02-12_10h28.56.258,lexical_decision_task_DD_L5,2021.2.3,Win32,59.76929054,,,,,,,,,,,0.7366,0,,,,,,,,,,,,,,,,,,,,,,,,-0.028888889,-0.396666667,0,0,0,,,,,,,PLANK,LB,z,y,./images/PLANKLB.png,,,,,,,,,,,,,,,,,,,,,m,0,0.7366,,,,,,,,0,97,97,85,1
,,,,,,,,,,,,,,,,,60be1e056f39c387c4f02308,35,2022-02-12_10h28.56.258,lexical_decision_task_DD_L5,2021.2.3,Win32,59.76929054,,,,,,,,,,,0.8933,1,,,,,,,,,,,,,,,,,,,,,,,,-0.028888889,-0.396666667,0,0,0,,,,,,,SPORT,HB,z,y,./images/SPORTHB.png,,,,,,,,,,,,,,,,,,,,,z,1,0.8933,,,,,,,,0,98,98,132,1
,,,,,,,,,,,,,,,,,60be1e056f39c387c4f02308,35,2022-02-12_10h28.56.258,lexical_decision_task_DD_L5,2021.2.3,Win32,59.76929054,,,,,,,,,,,1.064,1,,,,,,,,,,,,,,,,,,,,,,,,-0.028888889,-0.396666667,0,0,0,,,,,,,RAZOR,LB,m,y,./images/RAZORLB.png,,,,,,,,,,,,,,,,,,,,,m,1,1.064,,,,,,,,0,99,99,34,1
,,,,,,,,,,,,,,,,,60be1e056f39c387c4f02308,35,2022-02-12_10h28.56.258,lexical_decision_task_DD_L5,2021.2.3,Win32,59.76929054,,,,,,,,,,,2.1221,0,,,,,,,,,,,,,,,,,,,,,,,,-0.028888889,-0.396666667,0,0,0,,,,,,,QUILL,LB,z,y,./images/QUILLLB.png,,,,,,,,,,,,,,,,,,,,,m,0,2.1221,,,,,,,,0,100,100,115,1
,,,,,,,,,,,,,,,,,60be1e056f39c387c4f02308,35,2022-02-12_10h28.56.258,lexical_decision_task_DD_L5,2021.2.3,Win32,59.76929054,,,,,,,,,,,0.8881,1,,,,,,,,,,,,,,,,,,,,,,,,-0.028888889,-0.396666667,0,0,0,,,,,,,THROAT,HB,z,y,./images/THROATHB.png,,,,,,,,,,,,,,,,,,,,,z,1,0.8881,,,,,,,,0,101,101,120,1
,,,,,,,,,,,,,,,,,60be1e056f39c387c4f02308,35,2022-02-12_10h28.56.258,lexical_decision_task_DD_L5,2021.2.3,Win32,59.76929054,,,,,,,,,,,0.8693,1,,,,,,,,,,,,,,,,,,,,,,,,-0.028888889,-0.396666667,0,0,0,,,,,,,HEATER,C,m,y,./images/HEATER.png,,,,,,,,,,,,,,,,,,,,,m,1,0.8693,,,,,,,,0,102,102,56,1
,,,,,,,,,,,,,,,,,60be1e056f39c387c4f02308,35,2022-02-12_10h28.56.258,lexical_decision_task_DD_L5,2021.2.3,Win32,59.76929054,,,,,,,,,,,0.668,1,,,,,,,,,,,,,,,,,,,,,,,,-0.028888889,-0.396666667,0,0,0,,,,,,,DANCER,HB,m,y,./images/DANCERHB.png,,,,,,,,,,,,,,,,,,,,,m,1,0.668,,,,,,,,0,103,103,21,1
,,,,,,,,,,,,,,,,,60be1e056f39c387c4f02308,35,2022-02-12_10h28.56.258,lexical_decision_task_DD_L5,2021.2.3,Win32,59.76929054,,,,,,,,,,,0.9044,1,,,,,,,,,,,,,,,,,,,,,,,,-0.028888889,-0.396666667,0,0,0,,,,,,,MIDGET,LB,m,y,./images/MIDGETLB.png,,,,,,,,,,,,,,,,,,,,,m,1,0.9044,,,,,,,,0,104,104,76,1
,,,,,,,,,,,,,,,,,60be1e056f39c387c4f02308,35,2022-02-12_10h28.56.258,lexical_decision_task_DD_L5,2021.2.3,Win32,59.76929054,,,,,,,,,,,0.9524,0,,,,,,,,,,,,,,,,,,,,,,,,-0.028888889,-0.396666667,0,0,0,,,,,,,ATTIC,HB,z,y,./images/ATTICHB.png,,,,,,,,,,,,,,,,,,,,,m,0,0.9524,,,,,,,,0,105,105,111,1
,,,,,,,,,,,,,,,,,60be1e056f39c387c4f02308,35,2022-02-12_10h28.56.258,lexical_decision_task_DD_L5,2021.2.3,Win32,59.76929054,,,,,,,,,,,0.6779,1,,,,,,,,,,,,,,,,,,,,,,,,-0.028888889,-0.396666667,0,0,0,,,,,,,CURRY,HB,m,y,./images/CURRYHB.png,,,,,,,,,,,,,,,,,,,,,m,1,0.6779,,,,,,,,0,106,106,60,1
,,,,,,,,,,,,,,,,,60be1e056f39c387c4f02308,35,2022-02-12_10h28.56.258,lexical_decision_task_DD_L5,2021.2.3,Win32,59.76929054,,,,,,,,,,,1.361,0,,,,,,,,,,,,,,,,,,,,,,,,-0.028888889,-0.396666667,0,0,0,,,,,,,MELON,LB,z,y,./images/MELONLB.png,,,,,,,,,,,,,,,,,,,,,m,0,1.361,,,,,,,,0,107,107,106,1
,,,,,,,,,,,,,,,,,60be1e056f39c387c4f02308,35,2022-02-12_10h28.56.258,lexical_decision_task_DD_L5,2021.2.3,Win32,59.76929054,,,,,,,,,,,0.8366,1,,,,,,,,,,,,,,,,,,,,,,,,-0.028888889,-0.396666667,0,0,0,,,,,,,MAMMAL,C,m,y,./images/MAMMAL.png,,,,,,,,,,,,,,,,,,,,,m,1,0.8366,,,,,,,,0,108,108,62,1
,,,,,,,,,,,,,,,,,60be1e056f39c387c4f02308,35,2022-02-12_10h28.56.258,lexical_decision_task_DD_L5,2021.2.3,Win32,59.76929054,,,,,,,,,,,0.6862,1,,,,,,,,,,,,,,,,,,,,,,,,-0.028888889,-0.396666667,0,0,0,,,,,,,CHAIN,HB,m,y,./images/CHAINHB.png,,,,,,,,,,,,,,,,,,,,,m,1,0.6862,,,,,,,,0,109,109,42,1
,,,,,,,,,,,,,,,,,60be1e056f39c387c4f02308,35,2022-02-12_10h28.56.258,lexical_decision_task_DD_L5,2021.2.3,Win32,59.76929054,,,,,,,,,,,1.9206,1,,,,,,,,,,,,,,,,,,,,,,,,-0.028888889,-0.396666667,0,0,0,,,,,,,CLOWN,LB,m,y,./images/CLOWNLB.png,,,,,,,,,,,,,,,,,,,,,m,1,1.9206,,,,,,,,0,110,110,22,1
,,,,,,,,,,,,,,,,,60be1e056f39c387c4f02308,35,2022-02-12_10h28.56.258,lexical_decision_task_DD_L5,2021.2.3,Win32,59.76929054,,,,,,,,,,,0.9098,0,,,,,,,,,,,,,,,,,,,,,,,,-0.028888889,-0.396666667,0,0,0,,,,,,,HOCKEY,C,m,y,./images/HOCKEY.png,,,,,,,,,,,,,,,,,,,,,z,0,0.9098,,,,,,,,0,111,111,32,1
,,,,,,,,,,,,,,,,,60be1e056f39c387c4f02308,35,2022-02-12_10h28.56.258,lexical_decision_task_DD_L5,2021.2.3,Win32,59.76929054,,,,,,,,,,,0.7173,0,,,,,,,,,,,,,,,,,,,,,,,,-0.028888889,-0.396666667,0,0,0,,,,,,,BANNER,LB,z,y,./images/BANNERLB.png,,,,,,,,,,,,,,,,,,,,,m,0,0.7173,,,,,,,,0,112,112,136,1
,,,,,,,,,,,,,,,,,60be1e056f39c387c4f02308,35,2022-02-12_10h28.56.258,lexical_decision_task_DD_L5,2021.2.3,Win32,59.76929054,,,,,,,,,,,0.6178,1,,,,,,,,,,,,,,,,,,,,,,,,-0.028888889,-0.396666667,0,0,0,,,,,,,TOWEL,LB,m,y,./images/TOWELLB.png,,,,,,,,,,,,,,,,,,,,,m,1,0.6178,,,,,,,,0,113,113,1,1
,,,,,,,,,,,,,,,,,60be1e056f39c387c4f02308,35,2022-02-12_10h28.56.258,lexical_decision_task_DD_L5,2021.2.3,Win32,59.76929054,,,,,,,,,,,0.6619,0,,,,,,,,,,,,,,,,,,,,,,,,-0.028888889,-0.396666667,0,0,0,,,,,,,PEACH,C,z,y,./images/PEACH.png,,,,,,,,,,,,,,,,,,,,,m,0,0.6619,,,,,,,,0,114,114,119,1
,,,,,,,,,,,,,,,,,60be1e056f39c387c4f02308,35,2022-02-12_10h28.56.258,lexical_decision_task_DD_L5,2021.2.3,Win32,59.76929054,,,,,,,,,,,0.687,1,,,,,,,,,,,,,,,,,,,,,,,,-0.028888889,-0.396666667,0,0,0,,,,,,,BOXER,LB,m,y,./images/BOXERLB.png,,,,,,,,,,,,,,,,,,,,,m,1,0.687,,,,,,,,0,115,115,4,1
,,,,,,,,,,,,,,,,,60be1e056f39c387c4f02308,35,2022-02-12_10h28.56.258,lexical_decision_task_DD_L5,2021.2.3,Win32,59.76929054,,,,,,,,,,,0.6355,1,,,,,,,,,,,,,,,,,,,,,,,,-0.028888889,-0.396666667,0,0,0,,,,,,,CLOUD,C,m,y,./images/CLOUD.png,,,,,,,,,,,,,,,,,,,,,m,1,0.6355,,,,,,,,0,116,116,26,1
,,,,,,,,,,,,,,,,,60be1e056f39c387c4f02308,35,2022-02-12_10h28.56.258,lexical_decision_task_DD_L5,2021.2.3,Win32,59.76929054,,,,,,,,,,,0.6351,1,,,,,,,,,,,,,,,,,,,,,,,,-0.028888889,-0.396666667,0,0,0,,,,,,,DESERT,LB,m,y,./images/DESERTLB.png,,,,,,,,,,,,,,,,,,,,,m,1,0.6351,,,,,,,,0,117,117,52,1
,,,,,,,,,,,,,,,,,60be1e056f39c387c4f02308,35,2022-02-12_10h28.56.258,lexical_decision_task_DD_L5,2021.2.3,Win32,59.76929054,,,,,,,,,,,0.6201,0,,,,,,,,,,,,,,,,,,,,,,,,-0.028888889,-0.396666667,0,0,0,,,,,,,CRUMB,C,z,y,./images/CRUMB.png,,,,,,,,,,,,,,,,,,,,,m,0,0.6201,,,,,,,,0,118,118,113,1
,,,,,,,,,,,,,,,,,60be1e056f39c387c4f02308,35,2022-02-12_10h28.56.258,lexical_decision_task_DD_L5,2021.2.3,Win32,59.76929054,,,,,,,,,,,0.6274,0,,,,,,,,,,,,,,,,,,,,,,,,-0.028888889,-0.396666667,0,0,0,,,,,,,MIRROR,HB,z,y,./images/MIRRORHB.png,,,,,,,,,,,,,,,,,,,,,m,0,0.6274,,,,,,,,0,119,119,147,1
,,,,,,,,,,,,,,,,,60be1e056f39c387c4f02308,35,2022-02-12_10h28.56.258,lexical_decision_task_DD_L5,2021.2.3,Win32,59.76929054,,,,,,,,,,,1.0029,1,,,,,,,,,,,,,,,,,,,,,,,,-0.028888889,-0.396666667,0,0,0,,,,,,,BEARD,C,z,y,./images/BEARD.png,,,,,,,,,,,,,,,,,,,,,z,1,1.0029,,,,,,,,0,120,120,86,1
,,,,,,,,,,,,,,,,,60be1e056f39c387c4f02308,35,2022-02-12_10h28.56.258,lexical_decision_task_DD_L5,2021.2.3,Win32,59.76929054,,,,,,,,,,,0.9427,1,,,,,,,,,,,,,,,,,,,,,,,,-0.028888889,-0.396666667,0,0,0,,,,,,,KIDNEY,HB,z,y,./images/KIDNEYHB.png,,,,,,,,,,,,,,,,,,,,,z,1,0.9427,,,,,,,,0,121,121,105,1
,,,,,,,,,,,,,,,,,60be1e056f39c387c4f02308,35,2022-02-12_10h28.56.258,lexical_decision_task_DD_L5,2021.2.3,Win32,59.76929054,,,,,,,,,,,0.8513,1,,,,,,,,,,,,,,,,,,,,,,,,-0.028888889,-0.396666667,0,0,0,,,,,,,TOMATO,HB,z,y,./images/TOMATOHB.png,,,,,,,,,,,,,,,,,,,,,z,1,0.8513,,,,,,,,0,122,122,84,1
,,,,,,,,,,,,,,,,,60be1e056f39c387c4f02308,35,2022-02-12_10h28.56.258,lexical_decision_task_DD_L5,2021.2.3,Win32,59.76929054,,,,,,,,,,,0.8114,1,,,,,,,,,,,,,,,,,,,,,,,,-0.028888889,-0.396666667,0,0,0,,,,,,,GRANNY,C,m,y,./images/GRANNY.png,,,,,,,,,,,,,,,,,,,,,m,1,0.8114,,,,,,,,0,123,123,20,1
,,,,,,,,,,,,,,,,,60be1e056f39c387c4f02308,35,2022-02-12_10h28.56.258,lexical_decision_task_DD_L5,2021.2.3,Win32,59.76929054,,,,,,,,,,,0.9199,1,,,,,,,,,,,,,,,,,,,,,,,,-0.028888889,-0.396666667,0,0,0,,,,,,,CEMENT,C,z,y,./images/CEMENT.png,,,,,,,,,,,,,,,,,,,,,z,1,0.9199,,,,,,,,0,124,124,158,1
,,,,,,,,,,,,,,,,,60be1e056f39c387c4f02308,35,2022-02-12_10h28.56.258,lexical_decision_task_DD_L5,2021.2.3,Win32,59.76929054,,,,,,,,,,,1.2027,1,,,,,,,,,,,,,,,,,,,,,,,,-0.028888889,-0.396666667,0,0,0,space,,,,,,STORM,HB,z,y,./images/STORMHB.png,1.6714,,,,,,,,,,,,,,,,,,,,z,1,1.2027,,,,,,,,0,125,125,114,1
,,,,,,,,,,,,,,,,,60be1e056f39c387c4f02308,35,2022-02-12_10h28.56.258,lexical_decision_task_DD_L5,2021.2.3,Win32,59.76929054,,,,,,,,,,,1.5238,1,,,,,,,,,,,,,,,,,,,,,,,,-0.028888889,-0.396666667,0,0,0,,,,,,,CARPET,C,z,y,./images/CARPET.png,,,,,,,,,,,,,,,,,,,,,z,1,1.5238,,,,,,,,0,126,126,137,1
,,,,,,,,,,,,,,,,,60be1e056f39c387c4f02308,35,2022-02-12_10h28.56.258,lexical_decision_task_DD_L5,2021.2.3,Win32,59.76929054,,,,,,,,,,,0.6361,1,,,,,,,,,,,,,,,,,,,,,,,,-0.028888889,-0.396666667,0,0,0,,,,,,,SHIELD,HB,m,y,./images/SHIELDHB.png,,,,,,,,,,,,,,,,,,,,,m,1,0.6361,,,,,,,,0,127,127,48,1
,,,,,,,,,,,,,,,,,60be1e056f39c387c4f02308,35,2022-02-12_10h28.56.258,lexical_decision_task_DD_L5,2021.2.3,Win32,59.76929054,,,,,,,,,,,0.6528,0,,,,,,,,,,,,,,,,,,,,,,,,-0.028888889,-0.396666667,0,0,0,,,,,,,MUSCLE,LB,z,y,./images/MUSCLELB.png,,,,,,,,,,,,,,,,,,,,,m,0,0.6528,,,,,,,,0,128,128,88,1
,,,,,,,,,,,,,,,,,60be1e056f39c387c4f02308,35,2022-02-12_10h28.56.258,lexical_decision_task_DD_L5,2021.2.3,Win32,59.76929054,,,,,,,,,,,0.6148,1,,,,,,,,,,,,,,,,,,,,,,,,-0.028888889,-0.396666667,0,0,0,,,,,,,BOILER,HB,m,y,./images/BOILERHB.png,,,,,,,,,,,,,,,,,,,,,m,1,0.6148,,,,,,,,0,129,129,36,1
,,,,,,,,,,,,,,,,,60be1e056f39c387c4f02308,35,2022-02-12_10h28.56.258,lexical_decision_task_DD_L5,2021.2.3,Win32,59.76929054,,,,,,,,,,,0.7523,1,,,,,,,,,,,,,,,,,,,,,,,,-0.028888889,-0.396666667,0,0,0,,,,,,,PISTOL,C,m,y,./images/PISTOL.png,,,,,,,,,,,,,,,,,,,,,m,1,0.7523,,,,,,,,0,130,130,29,1
,,,,,,,,,,,,,,,,,60be1e056f39c387c4f02308,35,2022-02-12_10h28.56.258,lexical_decision_task_DD_L5,2021.2.3,Win32,59.76929054,,,,,,,,,,,0.6847,1,,,,,,,,,,,,,,,,,,,,,,,,-0.028888889,-0.396666667,0,0,0,,,,,,,HAMMER,HB,m,y,./images/HAMMERHB.png,,,,,,,,,,,,,,,,,,,,,m,1,0.6847,,,,,,,,0,131,131,75,1
,,,,,,,,,,,,,,,,,60be1e056f39c387c4f02308,35,2022-02-12_10h28.56.258,lexical_decision_task_DD_L5,2021.2.3,Win32,59.76929054,,,,,,,,,,,2.0884,1,,,,,,,,,,,,,,,,,,,,,,,,-0.028888889,-0.396666667,0,0,0,,,,,,,STOOL,LB,m,y,./images/STOOLLB.png,,,,,,,,,,,,,,,,,,,,,m,1,2.0884,,,,,,,,0,132,132,43,1
,,,,,,,,,,,,,,,,,60be1e056f39c387c4f02308,35,2022-02-12_10h28.56.258,lexical_decision_task_DD_L5,2021.2.3,Win32,59.76929054,,,,,,,,,,,1.5109,1,,,,,,,,,,,,,,,,,,,,,,,,-0.028888889,-0.396666667,0,0,0,,,,,,,SHELF,HB,z,y,./images/SHELFHB.png,,,,,,,,,,,,,,,,,,,,,z,1,1.5109,,,,,,,,0,133,133,123,1
,,,,,,,,,,,,,,,,,60be1e056f39c387c4f02308,35,2022-02-12_10h28.56.258,lexical_decision_task_DD_L5,2021.2.3,Win32,59.76929054,,,,,,,,,,,1.854,1,,,,,,,,,,,,,,,,,,,,,,,,-0.028888889,-0.396666667,0,0,0,,,,,,,DRILL,HB,m,y,./images/DRILLHB.png,,,,,,,,,,,,,,,,,,,,,m,1,1.854,,,,,,,,0,134,134,81,1
