key_resp.keys,instr_done_touch.x,instr_done_touch.y,instr_done_touch.leftButton,instr_done_touch.midButton,instr_done_touch.rightButton,instr_done_touch.clicked_name,instruction_pages.thisRepN,instruction_pages.thisTrialN,instruction_pages.thisN,instruction_pages.thisIndex,instruction_pages.ran,pageN,phase,instruct_text,has_image,instruct_image,participant,age,date,expName,psychopyVersion,OS,frameRate,response.keys,response.corr,touch_resp.x,touch_resp.y,touch_resp.leftButton,touch_resp.midButton,touch_resp.rightButton,touch_resp.time,touch_resp.clicked_name,rt,corr,practrials.thisRepN,practrials.thisTrialN,practrials.thisN,practrials.thisIndex,practrials.ran,TrialID,Target,corrAns,end_of_practice_trials_pages.thisRepN,end_of_practice_trials_pages.thisTrialN,end_of_practice_trials_pages.thisN,end_of_practice_trials_pages.thisIndex,end_of_practice_trials_pages.ran,key_resp_2.keys,key_resp_2.corr,targ_click.x,targ_click.y,targ_click.leftButton,targ_click.midButton,targ_click.rightButton,targ_click.time,targ_click.clicked_name,break_done_touch.x,break_done_touch.y,break_done_touch.leftButton,break_done_touch.midButton,break_done_touch.rightButton,break_done_keyboard.keys,maintrials.thisRepN,maintrials.thisTrialN,maintrials.thisN,maintrials.thisIndex,maintrials.ran,string,blur,study,lex,stim_path,break_done_touch.clicked_name,mouse_2.x,mouse_2.y,mouse_2.leftButton,mouse_2.midButton,mouse_2.rightButton,mouse_2.clicked_name,slider.response,slider.rt,trials.thisRepN,trials.thisTrialN,trials.thisN,trials.thisIndex,trials.ran,test_instructions.thisRepN,test_instructions.thisTrialN,test_instructions.thisN,test_instructions.thisIndex,test_instructions.ran,key_resp_3.keys,key_resp_3.corr,test_click.x,test_click.y,test_click.leftButton,test_click.midButton,test_click.rightButton,test_click.time,test_click.clicked_name,test_phase.thisRepN,test_phase.thisTrialN,test_phase.thisN,test_phase.thisIndex,test_phase.ran
,0.089459095,-0.380963668,1,0,0,instr_done_button,0,0,0,0,1,1,instructions,"INSTRUCTIONS
At the start of each trial, look at the plus sign  (+) in the center of the screen.  This tells you that a trial is about to begin and where to look. Second, the plus sign will disappear and a string of letters will appear. Your task is to determine if the string of letters is a word or not. If the item is a word press the M key (on keyboard)  or touch the word button (phone/tablet).  If the item is not a word,  press the  Z key (on keyboard)  or touch the nonword button (on phone/tablet). 
Press the space bar or touch  continue.",0,,60d39bc8af5e01b7ab0e1ed5,36,2022-02-12_12h42.12.083,lexical_decision_task_DD_L2,2021.2.3,Linux armv7l,30.49245312,,,,,,,,,,,,,,,,,,,,,,,,,,,,,,,,,,,,,,,,,,,,,,,,,,,,,,,,,,,,,,,,,,,,,,,,,,,,,,,,,,
,0.047850229,-0.374033511,1,0,0,instr_done_button,0,1,1,1,1,2,instructions,"If your device has a keyboard, press the 'Z' key for nonwords and the 'M' key for words.





Press the space bar or touch the button below to continue.",0,keyboard-example.gif,60d39bc8af5e01b7ab0e1ed5,36,2022-02-12_12h42.12.083,lexical_decision_task_DD_L2,2021.2.3,Linux armv7l,30.49245312,,,,,,,,,,,,,,,,,,,,,,,,,,,,,,,,,,,,,,,,,,,,,,,,,,,,,,,,,,,,,,,,,,,,,,,,,,,,,,,,,,
,0.068654662,-0.404526646,1,0,0,instr_done_button,0,2,2,2,1,3,instructions,"If you are using a touchscreen only device, use the buttons on the screen. Do not use the mouse.





Press the space bar or touch the button below to continue.",0,touchscreen-example.gif,60d39bc8af5e01b7ab0e1ed5,36,2022-02-12_12h42.12.083,lexical_decision_task_DD_L2,2021.2.3,Linux armv7l,30.49245312,,,,,,,,,,,,,,,,,,,,,,,,,,,,,,,,,,,,,,,,,,,,,,,,,,,,,,,,,,,,,,,,,,,,,,,,,,,,,,,,,,
,0.018724016,-0.400368552,1,0,0,instr_done_button,0,3,3,3,1,4,instructions,"It is very important that you respond as quickly and accurately as possible, as each letter string will only be on the screen for two seconds. If you do not respond within this time, the message 'Too slow!' will be displayed and the experiment will progress to the next letter string. The first 20 trials will be practice trials and you will receive feedback on your answers. 

Press the space bar or touch the button below to start the practice trials.",0,,60d39bc8af5e01b7ab0e1ed5,36,2022-02-12_12h42.12.083,lexical_decision_task_DD_L2,2021.2.3,Linux armv7l,30.49245312,,,,,,,,,,,,,,,,,,,,,,,,,,,,,,,,,,,,,,,,,,,,,,,,,,,,,,,,,,,,,,,,,,,,,,,,,,,,,,,,,,
,,,,,,,,,,,,,,,,,60d39bc8af5e01b7ab0e1ed5,36,2022-02-12_12h42.12.083,lexical_decision_task_DD_L2,2021.2.3,Linux armv7l,30.49245312,,0,-0.382108179,-0.293642507,1,0,0,2.6186,button_left,2.6186,1,0,0,0,11,1,1001,RASHET,z,,,,,,,,,,,,,,,,,,,,,,,,,,,,,,,,,,,,,,,,,,,,,,,,,,,,,,,,,,,,,,,
,,,,,,,,,,,,,,,,,60d39bc8af5e01b7ab0e1ed5,36,2022-02-12_12h42.12.083,lexical_decision_task_DD_L2,2021.2.3,Linux armv7l,30.49245312,,0,0.395977946,-0.293642507,1,0,0,0.9503,button_right,0.9503,1,0,1,1,5,1,1001,OBTAIN,m,,,,,,,,,,,,,,,,,,,,,,,,,,,,,,,,,,,,,,,,,,,,,,,,,,,,,,,,,,,,,,,
,,,,,,,,,,,,,,,,,60d39bc8af5e01b7ab0e1ed5,36,2022-02-12_12h42.12.083,lexical_decision_task_DD_L2,2021.2.3,Linux armv7l,30.49245312,,0,-0.393203865,-0.307503117,1,0,0,0.7267,button_left,0.7267,1,0,2,2,12,1,1001,SPRINY,z,,,,,,,,,,,,,,,,,,,,,,,,,,,,,,,,,,,,,,,,,,,,,,,,,,,,,,,,,,,,,,,
,,,,,,,,,,,,,,,,,60d39bc8af5e01b7ab0e1ed5,36,2022-02-12_12h42.12.083,lexical_decision_task_DD_L2,2021.2.3,Linux armv7l,30.49245312,,0,-0.393203865,-0.293642507,1,0,0,0.6898,button_left,0.6898,1,0,3,3,9,1,1001,FARINY,z,,,,,,,,,,,,,,,,,,,,,,,,,,,,,,,,,,,,,,,,,,,,,,,,,,,,,,,,,,,,,,,
,,,,,,,,,,,,,,,,,60d39bc8af5e01b7ab0e1ed5,36,2022-02-12_12h42.12.083,lexical_decision_task_DD_L2,2021.2.3,Linux armv7l,30.49245312,,0,0.377947317,-0.30057296,1,0,0,1.1681,button_right,1.1681,0,0,4,4,10,1,1001,INLADE,z,,,,,,,,,,,,,,,,,,,,,,,,,,,,,,,,,,,,,,,,,,,,,,,,,,,,,,,,,,,,,,,
,,,,,,,,,,,,,,,,,60d39bc8af5e01b7ab0e1ed5,36,2022-02-12_12h42.12.083,lexical_decision_task_DD_L2,2021.2.3,Linux armv7l,30.49245312,,0,0.371012493,-0.295028538,1,0,0,0.8401,button_right,0.8401,1,0,5,5,7,1,1001,VOLUME,m,,,,,,,,,,,,,,,,,,,,,,,,,,,,,,,,,,,,,,,,,,,,,,,,,,,,,,,,,,,,,,,
,,,,,,,,,,,,,,,,,60d39bc8af5e01b7ab0e1ed5,36,2022-02-12_12h42.12.083,lexical_decision_task_DD_L2,2021.2.3,Linux armv7l,30.49245312,,0,-0.404299579,-0.292256476,1,0,0,0.7803,button_left,0.7803,1,0,6,6,13,1,1001,ROUPET,z,,,,,,,,,,,,,,,,,,,,,,,,,,,,,,,,,,,,,,,,,,,,,,,,,,,,,,,,,,,,,,,
,,,,,,,,,,,,,,,,,60d39bc8af5e01b7ab0e1ed5,36,2022-02-12_12h42.12.083,lexical_decision_task_DD_L2,2021.2.3,Linux armv7l,30.49245312,,0,0.390429969,-0.308889296,1,0,0,0.812,button_right,0.812,1,0,7,7,2,1,1001,ALMOND,m,,,,,,,,,,,,,,,,,,,,,,,,,,,,,,,,,,,,,,,,,,,,,,,,,,,,,,,,,,,,,,,
,,,,,,,,,,,,,,,,,60d39bc8af5e01b7ab0e1ed5,36,2022-02-12_12h42.12.083,lexical_decision_task_DD_L2,2021.2.3,Linux armv7l,30.49245312,,0,-0.394590841,-0.282554108,1,0,0,0.8409,button_left,0.8409,0,0,8,8,0,1,1001,UTOPIA,m,,,,,,,,,,,,,,,,,,,,,,,,,,,,,,,,,,,,,,,,,,,,,,,,,,,,,,,,,,,,,,,
,,,,,,,,,,,,,,,,,60d39bc8af5e01b7ab0e1ed5,36,2022-02-12_12h42.12.083,lexical_decision_task_DD_L2,2021.2.3,Linux armv7l,30.49245312,,0,-0.405686545,-0.299186929,1,0,0,0.7718,button_left,0.7718,1,0,9,9,15,1,1001,WHAISE,z,,,,,,,,,,,,,,,,,,,,,,,,,,,,,,,,,,,,,,,,,,,,,,,,,,,,,,,,,,,,,,,
,,,,,,,,,,,,,,,,,60d39bc8af5e01b7ab0e1ed5,36,2022-02-12_12h42.12.083,lexical_decision_task_DD_L2,2021.2.3,Linux armv7l,30.49245312,,0,0.397364792,-0.28671235,1,0,0,0.6917,button_right,0.6917,1,0,10,10,1,1,1001,ADJUST,m,,,,,,,,,,,,,,,,,,,,,,,,,,,,,,,,,,,,,,,,,,,,,,,,,,,,,,,,,,,,,,,
,,,,,,,,,,,,,,,,,60d39bc8af5e01b7ab0e1ed5,36,2022-02-12_12h42.12.083,lexical_decision_task_DD_L2,2021.2.3,Linux armv7l,30.49245312,,0,0.398751861,-0.27423792,1,0,0,0.6444,button_right,0.6444,1,0,11,11,3,1,1001,MATRIX,m,,,,,,,,,,,,,,,,,,,,,,,,,,,,,,,,,,,,,,,,,,,,,,,,,,,,,,,,,,,,,,,
,,,,,,,,,,,,,,,,,60d39bc8af5e01b7ab0e1ed5,36,2022-02-12_12h42.12.083,lexical_decision_task_DD_L2,2021.2.3,Linux armv7l,30.49245312,,0,-0.386269069,-0.288098382,1,0,0,0.7183,button_left,0.7183,1,0,12,12,8,1,1001,ASLERT,z,,,,,,,,,,,,,,,,,,,,,,,,,,,,,,,,,,,,,,,,,,,,,,,,,,,,,,,,,,,,,,,
,,,,,,,,,,,,,,,,,60d39bc8af5e01b7ab0e1ed5,36,2022-02-12_12h42.12.083,lexical_decision_task_DD_L2,2021.2.3,Linux armv7l,30.49245312,,0,0.40291277,-0.278396014,1,0,0,0.6593,button_right,0.6593,1,0,13,13,4,1,1001,SQUEAK,m,,,,,,,,,,,,,,,,,,,,,,,,,,,,,,,,,,,,,,,,,,,,,,,,,,,,,,,,,,,,,,,
,,,,,,,,,,,,,,,,,60d39bc8af5e01b7ab0e1ed5,36,2022-02-12_12h42.12.083,lexical_decision_task_DD_L2,2021.2.3,Linux armv7l,30.49245312,,0,0.408460599,-0.290870444,1,0,0,0.8286,button_right,0.8286,1,0,14,14,6,1,1001,ZOMBIE,m,,,,,,,,,,,,,,,,,,,,,,,,,,,,,,,,,,,,,,,,,,,,,,,,,,,,,,,,,,,,,,,
,,,,,,,,,,,,,,,,,60d39bc8af5e01b7ab0e1ed5,36,2022-02-12_12h42.12.083,lexical_decision_task_DD_L2,2021.2.3,Linux armv7l,30.49245312,,0,-0.395977807,-0.271465857,1,0,0,0.7268,button_left,0.7268,1,0,15,15,14,1,1001,THRALE,z,,,,,,,,,,,,,,,,,,,,,,,,,,,,,,,,,,,,,,,,,,,,,,,,,,,,,,,,,,,,,,,
,0.039528449,-0.380963668,1,0,0,instr_done_button,,,,,,1,end_of_practice,"You have completed the practice trials. During the experimental trials, you will not receive feedback. 
Before you begin, please ensure that you are in a comfortable and quiet location and will not be disturbed for about 15 minutes, as we cannot use your data if you do not complete all the trials. 
 When you are ready to start the experimental trials, please press space or touch the button below.",,,60d39bc8af5e01b7ab0e1ed5,36,2022-02-12_12h42.12.083,lexical_decision_task_DD_L2,2021.2.3,Linux armv7l,30.49245312,,,,,,,,,,,,,,,,,,,,0,0,0,0,1,,,,,,,,,,,,,,,,,,,,,,,,,,,,,,,,,,,,,,,,,,,,,,,,,,,,,,,,,,
,,,,,,,,,,,,,,,,,60d39bc8af5e01b7ab0e1ed5,36,2022-02-12_12h42.12.083,lexical_decision_task_DD_L2,2021.2.3,Linux armv7l,30.49245312,,,,,,,,,,1.3475,1,,,,,,,,,,,,,,,0,0.344660342,-0.29641457,1,0,0,1.3475,button_right_main,0.344660342,-0.29641457,1,0,0,,0,0,0,71,1,PIMPLE,C,old,m,./images/PIMPLE.png,,,,,,,,,,,,,,,,,,,,,,,,,,,,,,,,,
,,,,,,,,,,,,,,,,,60d39bc8af5e01b7ab0e1ed5,36,2022-02-12_12h42.12.083,lexical_decision_task_DD_L2,2021.2.3,Linux armv7l,30.49245312,,,,,,,,,,1.7807,1,,,,,,,,,,,,,,,0,-0.397364755,-0.277009983,1,0,0,1.7807,button_left_main,-0.397364755,-0.277009983,1,0,0,,0,1,1,91,1,SHENS,HB,old,z,./images/SHENSHB.png,,,,,,,,,,,,,,,,,,,,,,,,,,,,,,,,,
,,,,,,,,,,,,,,,,,60d39bc8af5e01b7ab0e1ed5,36,2022-02-12_12h42.12.083,lexical_decision_task_DD_L2,2021.2.3,Linux armv7l,30.49245312,,,,,,,,,,0.8483,1,,,,,,,,,,,,,,,0,-0.404299579,-0.277009983,1,0,0,0.8483,button_left_main,-0.404299579,-0.277009983,1,0,0,,0,2,2,117,1,STEEG,C,old,z,./images/STEEG.png,,,,,,,,,,,,,,,,,,,,,,,,,,,,,,,,,
,,,,,,,,,,,,,,,,,60d39bc8af5e01b7ab0e1ed5,36,2022-02-12_12h42.12.083,lexical_decision_task_DD_L2,2021.2.3,Linux armv7l,30.49245312,,,,,,,,,,0.9577,1,,,,,,,,,,,,,,,0,0.405686684,-0.285326319,1,0,0,0.9577,button_right_main,0.405686684,-0.285326319,1,0,0,,0,3,3,31,1,QUILL,LB,old,m,./images/QUILLLB.png,,,,,,,,,,,,,,,,,,,,,,,,,,,,,,,,,
,,,,,,,,,,,,,,,,,60d39bc8af5e01b7ab0e1ed5,36,2022-02-12_12h42.12.083,lexical_decision_task_DD_L2,2021.2.3,Linux armv7l,30.49245312,,,,,,,,,,0.9139,0,,,,,,,,,,,,,,,0,0.409847445,-0.292256476,1,0,0,0.9139,button_right_main,0.409847445,-0.292256476,1,0,0,,0,4,4,84,1,HAXES,C,old,z,./images/HAXES.png,,,,,,,,,,,,,,,,,,,,,,,,,,,,,,,,,
,,,,,,,,,,,,,,,,,60d39bc8af5e01b7ab0e1ed5,36,2022-02-12_12h42.12.083,lexical_decision_task_DD_L2,2021.2.3,Linux armv7l,30.49245312,,,,,,,,,,1.5885,1,,,,,,,,,,,,,,,0,-0.414008316,-0.271465857,1,0,0,1.5885,button_left_main,-0.414008316,-0.271465857,1,0,0,,0,5,5,159,1,CUDDY,C,old,z,./images/CUDDY.png,,,,,,,,,,,,,,,,,,,,,,,,,,,,,,,,,
,,,,,,,,,,,,,,,,,60d39bc8af5e01b7ab0e1ed5,36,2022-02-12_12h42.12.083,lexical_decision_task_DD_L2,2021.2.3,Linux armv7l,30.49245312,,,,,,,,,,1.1736,1,,,,,,,,,,,,,,,0,0.419556183,-0.293642507,1,0,0,1.1736,button_right_main,0.419556183,-0.293642507,1,0,0,,0,6,6,66,1,SWEAT,HB,old,m,./images/SWEATHB.png,,,,,,,,,,,,,,,,,,,,,,,,,,,,,,,,,
,,,,,,,,,,,,,,,,,60d39bc8af5e01b7ab0e1ed5,36,2022-02-12_12h42.12.083,lexical_decision_task_DD_L2,2021.2.3,Linux armv7l,30.49245312,,,,,,,,,,0.7325,1,,,,,,,,,,,,,,,0,0.419556183,-0.292256476,1,0,0,0.7325,button_right_main,0.419556183,-0.292256476,1,0,0,,0,7,7,0,1,TOMATO,HB,old,m,./images/TOMATOHB.png,,,,,,,,,,,,,,,,,,,,,,,,,,,,,,,,,
,,,,,,,,,,,,,,,,,60d39bc8af5e01b7ab0e1ed5,36,2022-02-12_12h42.12.083,lexical_decision_task_DD_L2,2021.2.3,Linux armv7l,30.49245312,,,,,,,,,,0.9762,1,,,,,,,,,,,,,,,0,-0.408460469,-0.278396014,1,0,0,0.9762,button_left_main,-0.408460469,-0.278396014,1,0,0,,0,8,8,129,1,PRANS,C,old,z,./images/PRANS.png,,,,,,,,,,,,,,,,,,,,,,,,,,,,,,,,,
,,,,,,,,,,,,,,,,,60d39bc8af5e01b7ab0e1ed5,36,2022-02-12_12h42.12.083,lexical_decision_task_DD_L2,2021.2.3,Linux armv7l,30.49245312,,,,,,,,,,0.9479,1,,,,,,,,,,,,,,,0,0.415395422,-0.295028538,1,0,0,0.9479,button_right_main,0.415395422,-0.295028538,1,0,0,,0,9,9,54,1,TRIPOD,HB,old,m,./images/TRIPODHB.png,,,,,,,,,,,,,,,,,,,,,,,,,,,,,,,,,
,,,,,,,,,,,,,,,,,60d39bc8af5e01b7ab0e1ed5,36,2022-02-12_12h42.12.083,lexical_decision_task_DD_L2,2021.2.3,Linux armv7l,30.49245312,,,,,,,,,,0.8773,1,,,,,,,,,,,,,,,0,0.419556183,-0.293642507,1,0,0,0.8773,button_right_main,0.419556183,-0.293642507,1,0,0,,0,10,10,20,1,CRADLE,C,old,m,./images/CRADLE.png,,,,,,,,,,,,,,,,,,,,,,,,,,,,,,,,,
,,,,,,,,,,,,,,,,,60d39bc8af5e01b7ab0e1ed5,36,2022-02-12_12h42.12.083,lexical_decision_task_DD_L2,2021.2.3,Linux armv7l,30.49245312,,,,,,,,,,0.9138,1,,,,,,,,,,,,,,,0,0.416782268,-0.29641457,1,0,0,0.9138,button_right_main,0.416782268,-0.29641457,1,0,0,,0,11,11,15,1,GREASE,HB,old,m,./images/GREASEHB.png,,,,,,,,,,,,,,,,,,,,,,,,,,,,,,,,,
,,,,,,,,,,,,,,,,,60d39bc8af5e01b7ab0e1ed5,36,2022-02-12_12h42.12.083,lexical_decision_task_DD_L2,2021.2.3,Linux armv7l,30.49245312,,,,,,,,,,0.8131,1,,,,,,,,,,,,,,,0,0.422330245,-0.29641457,1,0,0,0.8131,button_right_main,0.422330245,-0.29641457,1,0,0,,0,12,12,12,1,SHORE,HB,old,m,./images/SHOREHB.png,,,,,,,,,,,,,,,,,,,,,,,,,,,,,,,,,
,,,,,,,,,,,,,,,,,60d39bc8af5e01b7ab0e1ed5,36,2022-02-12_12h42.12.083,lexical_decision_task_DD_L2,2021.2.3,Linux armv7l,30.49245312,,,,,,,,,,0.9095,1,,,,,,,,,,,,,,,0,0.42510416,-0.29641457,1,0,0,0.9095,button_right_main,0.42510416,-0.29641457,1,0,0,,0,13,13,47,1,BERRY,C,old,m,./images/BERRY.png,,,,,,,,,,,,,,,,,,,,,,,,,,,,,,,,,
,,,,,,,,,,,,,,,,,60d39bc8af5e01b7ab0e1ed5,36,2022-02-12_12h42.12.083,lexical_decision_task_DD_L2,2021.2.3,Linux armv7l,30.49245312,,,,,,,,,,0.7301,1,,,,,,,,,,,,,,,0,0.434812898,-0.292256476,1,0,0,0.7301,button_right_main,0.434812898,-0.292256476,1,0,0,,0,14,14,52,1,BANNER,LB,old,m,./images/BANNERLB.png,,,,,,,,,,,,,,,,,,,,,,,,,,,,,,,,,
,,,,,,,,,,,,,,,,,60d39bc8af5e01b7ab0e1ed5,36,2022-02-12_12h42.12.083,lexical_decision_task_DD_L2,2021.2.3,Linux armv7l,30.49245312,,,,,,,,,,0.6941,1,,,,,,,,,,,,,,,0,0.426491006,-0.292256476,1,0,0,0.6941,button_right_main,0.426491006,-0.292256476,1,0,0,,0,15,15,24,1,SCREW,HB,old,m,./images/SCREWHB.png,,,,,,,,,,,,,,,,,,,,,,,,,,,,,,,,,
,,,,,,,,,,,,,,,,,60d39bc8af5e01b7ab0e1ed5,36,2022-02-12_12h42.12.083,lexical_decision_task_DD_L2,2021.2.3,Linux armv7l,30.49245312,,,,,,,,,,0.6471,1,,,,,,,,,,,,,,,0,-0.405686545,-0.289484413,1,0,0,0.6471,button_left_main,-0.405686545,-0.289484413,1,0,0,,0,16,16,125,1,MOOKY,LB,old,z,./images/MOOKYLB.png,,,,,,,,,,,,,,,,,,,,,,,,,,,,,,,,,
,,,,,,,,,,,,,,,,,60d39bc8af5e01b7ab0e1ed5,36,2022-02-12_12h42.12.083,lexical_decision_task_DD_L2,2021.2.3,Linux armv7l,30.49245312,,,,,,,,,,0.934,1,,,,,,,,,,,,,,,0,-0.400138679,-0.271465857,1,0,0,0.934,button_left_main,-0.400138679,-0.271465857,1,0,0,,0,17,17,110,1,CRUNK,LB,old,z,./images/CRUNKLB.png,,,,,,,,,,,,,,,,,,,,,,,,,,,,,,,,,
,,,,,,,,,,,,,,,,,60d39bc8af5e01b7ab0e1ed5,36,2022-02-12_12h42.12.083,lexical_decision_task_DD_L2,2021.2.3,Linux armv7l,30.49245312,,,,,,,,,,0.8768,1,,,,,,,,,,,,,,,0,-0.414008316,-0.279782045,1,0,0,0.8768,button_left_main,-0.414008316,-0.279782045,1,0,0,,0,18,18,147,1,ZOLES,C,old,z,./images/ZOLES.png,,,,,,,,,,,,,,,,,,,,,,,,,,,,,,,,,
,,,,,,,,,,,,,,,,,60d39bc8af5e01b7ab0e1ed5,36,2022-02-12_12h42.12.083,lexical_decision_task_DD_L2,2021.2.3,Linux armv7l,30.49245312,,,,,,,,,,1.1385,1,,,,,,,,,,,,,,,0,-0.404299579,-0.272851888,1,0,0,1.1385,button_left_main,-0.404299579,-0.272851888,1,0,0,,0,19,19,141,1,PLEET,C,old,z,./images/PLEET.png,,,,,,,,,,,,,,,,,,,,,,,,,,,,,,,,,
,,,,,,,,,,,,,,,,,60d39bc8af5e01b7ab0e1ed5,36,2022-02-12_12h42.12.083,lexical_decision_task_DD_L2,2021.2.3,Linux armv7l,30.49245312,,,,,,,,,,0.8235,1,,,,,,,,,,,,,,,0,0.387656054,-0.311661359,1,0,0,0.8235,button_right_main,0.387656054,-0.311661359,1,0,0,,0,20,20,27,1,ATTIC,HB,old,m,./images/ATTICHB.png,,,,,,,,,,,,,,,,,,,,,,,,,,,,,,,,,
,,,,,,,,,,,,,,,,,60d39bc8af5e01b7ab0e1ed5,36,2022-02-12_12h42.12.083,lexical_decision_task_DD_L2,2021.2.3,Linux armv7l,30.49245312,,,,,,,,,,0.8615,1,,,,,,,,,,,,,,,0,-0.325242718,-0.243744785,1,0,0,0.8615,button_left_main,-0.325242718,-0.243744785,1,0,0,,0,21,21,152,1,FRAIN,LB,old,z,./images/FRAINLB.png,,,,,,,,,,,,,,,,,,,,,,,,,,,,,,,,,
,,,,,,,,,,,,,,,,,60d39bc8af5e01b7ab0e1ed5,36,2022-02-12_12h42.12.083,lexical_decision_task_DD_L2,2021.2.3,Linux armv7l,30.49245312,,,,,,,,,,0.8914,1,,,,,,,,,,,,,,,0,-0.319694834,-0.243744785,1,0,0,0.8914,button_left_main,-0.319694834,-0.243744785,1,0,0,,0,22,22,99,1,BACKY,C,old,z,./images/BACKY.png,,,,,,,,,,,,,,,,,,,,,,,,,,,,,,,,,
,,,,,,,,,,,,,,,,,60d39bc8af5e01b7ab0e1ed5,36,2022-02-12_12h42.12.083,lexical_decision_task_DD_L2,2021.2.3,Linux armv7l,30.49245312,,,,,,,,,,1.1738,1,,,,,,,,,,,,,,,0,-0.358529804,-0.272851888,1,0,0,1.1738,button_left_main,-0.358529804,-0.272851888,1,0,0,,0,23,23,153,1,CLUPS,C,old,z,./images/CLUPS.png,,,,,,,,,,,,,,,,,,,,,,,,,,,,,,,,,
,,,,,,,,,,,,,,,,,60d39bc8af5e01b7ab0e1ed5,36,2022-02-12_12h42.12.083,lexical_decision_task_DD_L2,2021.2.3,Linux armv7l,30.49245312,,,,,,,,,,1.1486,1,,,,,,,,,,,,,,,0,-0.35159499,-0.306117234,1,0,0,1.1486,button_left_main,-0.35159499,-0.306117234,1,0,0,,0,24,24,154,1,THINT,HB,old,z,./images/THINTHB.png,,,,,,,,,,,,,,,,,,,,,,,,,,,,,,,,,
,,,,,,,,,,,,,,,,,60d39bc8af5e01b7ab0e1ed5,36,2022-02-12_12h42.12.083,lexical_decision_task_DD_L2,2021.2.3,Linux armv7l,30.49245312,,,,,,,,,,0.977,1,,,,,,,,,,,,,,,0,0.393204032,-0.271465857,1,0,0,0.977,button_right_main,0.393204032,-0.271465857,1,0,0,,0,25,25,77,1,COUCH,C,old,m,./images/COUCH.png,,,,,,,,,,,,,,,,,,,,,,,,,,,,,,,,,
,,,,,,,,,,,,,,,,,60d39bc8af5e01b7ab0e1ed5,36,2022-02-12_12h42.12.083,lexical_decision_task_DD_L2,2021.2.3,Linux armv7l,30.49245312,,,,,,,,,,0.8313,1,,,,,,,,,,,,,,,0,-0.393203865,-0.290870444,1,0,0,0.8313,button_left_main,-0.393203865,-0.290870444,1,0,0,,0,26,26,87,1,TRING,C,old,z,./images/TRING.png,,,,,,,,,,,,,,,,,,,,,,,,,,,,,,,,,
,,,,,,,,,,,,,,,,,60d39bc8af5e01b7ab0e1ed5,36,2022-02-12_12h42.12.083,lexical_decision_task_DD_L2,2021.2.3,Linux armv7l,30.49245312,,,,,,,,,,0.7987,1,,,,,,,,,,,,,,,0,-0.420943121,-0.28671235,1,0,0,0.7987,button_left_main,-0.420943121,-0.28671235,1,0,0,,0,27,27,107,1,FASKS,LB,old,z,./images/FASKSLB.png,,,,,,,,,,,,,,,,,,,,,,,,,,,,,,,,,
,,,,,,,,,,,,,,,,,60d39bc8af5e01b7ab0e1ed5,36,2022-02-12_12h42.12.083,lexical_decision_task_DD_L2,2021.2.3,Linux armv7l,30.49245312,,,,,,,,,,1.1397,1,,,,,,,,,,,,,,,0,0.414008354,-0.288098382,1,0,0,1.1397,button_right_main,0.414008354,-0.288098382,1,0,0,,0,28,28,43,1,MOSQUE,LB,old,m,./images/MOSQUELB.png,,,,,,,,,,,,,,,,,,,,,,,,,,,,,,,,,
,,,,,,,,,,,,,,,,,60d39bc8af5e01b7ab0e1ed5,36,2022-02-12_12h42.12.083,lexical_decision_task_DD_L2,2021.2.3,Linux armv7l,30.49245312,,,,,,,,,,1.0719,1,,,,,,,,,,,,,,,0,0.454230373,-0.279782045,1,0,0,1.0719,button_right_main,0.454230373,-0.279782045,1,0,0,,0,29,29,73,1,SNACK,LB,old,m,./images/SNACKLB.png,,,,,,,,,,,,,,,,,,,,,,,,,,,,,,,,,
,,,,,,,,,,,,,,,,,60d39bc8af5e01b7ab0e1ed5,36,2022-02-12_12h42.12.083,lexical_decision_task_DD_L2,2021.2.3,Linux armv7l,30.49245312,,,,,,,,,,0.8183,1,,,,,,,,,,,,,,,0,0.334951604,-0.318591516,1,0,0,0.8183,button_right_main,0.334951604,-0.318591516,1,0,0,,0,30,30,63,1,MIRROR,HB,old,m,./images/MIRRORHB.png,,,,,,,,,,,,,,,,,,,,,,,,,,,,,,,,,
,,,,,,,,,,,,,,,,,60d39bc8af5e01b7ab0e1ed5,36,2022-02-12_12h42.12.083,lexical_decision_task_DD_L2,2021.2.3,Linux armv7l,30.49245312,,,,,,,,,,0.8003,1,,,,,,,,,,,,,,,0,-0.411234393,-0.297800897,1,0,0,0.8003,button_left_main,-0.411234393,-0.297800897,1,0,0,,0,31,31,155,1,CANGY,LB,old,z,./images/CANGYLB.png,,,,,,,,,,,,,,,,,,,,,,,,,,,,,,,,,
,,,,,,,,,,,,,,,,,60d39bc8af5e01b7ab0e1ed5,36,2022-02-12_12h42.12.083,lexical_decision_task_DD_L2,2021.2.3,Linux armv7l,30.49245312,,,,,,,,,,0.7618,1,,,,,,,,,,,,,,,0,0.395977946,-0.315819453,1,0,0,0.7618,button_right_main,0.395977946,-0.315819453,1,0,0,,0,32,32,18,1,JAGUAR,HB,old,m,./images/JAGUARHB.png,,,,,,,,,,,,,,,,,,,,,,,,,,,,,,,,,
,,,,,,,,,,,,,,,,,60d39bc8af5e01b7ab0e1ed5,36,2022-02-12_12h42.12.083,lexical_decision_task_DD_L2,2021.2.3,Linux armv7l,30.49245312,,,,,,,,,,1.1378,1,,,,,,,,,,,,,,,0,-0.412621359,-0.282554108,1,0,0,1.1378,button_left_main,-0.412621359,-0.282554108,1,0,0,,0,33,33,127,1,NINDY,HB,old,z,./images/NINDYHB.png,,,,,,,,,,,,,,,,,,,,,,,,,,,,,,,,,
,,,,,,,,,,,,,,,,,60d39bc8af5e01b7ab0e1ed5,36,2022-02-12_12h42.12.083,lexical_decision_task_DD_L2,2021.2.3,Linux armv7l,30.49245312,,,,,,,,,,1.0575,1,,,,,,,,,,,,,,,0,-0.422330097,-0.288098382,1,0,0,1.0575,button_left_main,-0.422330097,-0.288098382,1,0,0,,0,34,34,103,1,FLORT,HB,old,z,./images/FLORTHB.png,,,,,,,,,,,,,,,,,,,,,,,,,,,,,,,,,
,,,,,,,,,,,,,,,,,60d39bc8af5e01b7ab0e1ed5,36,2022-02-12_12h42.12.083,lexical_decision_task_DD_L2,2021.2.3,Linux armv7l,30.49245312,,,,,,,,,,1.5475,1,,,,,,,,,,,,,,,0,-0.398751731,-0.285326319,1,0,0,1.5475,button_left_main,-0.398751731,-0.285326319,1,0,0,,0,35,35,106,1,CLUMS,HB,old,z,./images/CLUMSHB.png,,,,,,,,,,,,,,,,,,,,,,,,,,,,,,,,,
,,,,,,,,,,,,,,,,,60d39bc8af5e01b7ab0e1ed5,36,2022-02-12_12h42.12.083,lexical_decision_task_DD_L2,2021.2.3,Linux armv7l,30.49245312,,,,,,,,,,0.7609,0,,,,,,,,,,,,,,,0,0.397364792,-0.313047242,1,0,0,0.7609,button_right_main,0.397364792,-0.313047242,1,0,0,,0,36,36,166,1,SHORY,HB,old,z,./images/SHORYHB.png,,,,,,,,,,,,,,,,,,,,,,,,,,,,,,,,,
,,,,,,,,,,,,,,,,,60d39bc8af5e01b7ab0e1ed5,36,2022-02-12_12h42.12.083,lexical_decision_task_DD_L2,2021.2.3,Linux armv7l,30.49245312,,,,,,,,,,0.8298,1,,,,,,,,,,,,,,,0,0.401525701,-0.308889296,1,0,0,0.8298,button_right_main,0.401525701,-0.308889296,1,0,0,,0,37,37,2,1,BEARD,C,old,m,./images/BEARD.png,,,,,,,,,,,,,,,,,,,,,,,,,,,,,,,,,
,,,,,,,,,,,,,,,,,60d39bc8af5e01b7ab0e1ed5,36,2022-02-12_12h42.12.083,lexical_decision_task_DD_L2,2021.2.3,Linux armv7l,30.49245312,,,,,,,,,,0.8769,1,,,,,,,,,,,,,,,0,-0.42371705,-0.290870444,1,0,0,0.8769,button_left_main,-0.42371705,-0.290870444,1,0,0,,0,38,38,165,1,TROWN,C,old,z,./images/TROWN.png,,,,,,,,,,,,,,,,,,,,,,,,,,,,,,,,,
,,,,,,,,,,,,,,,,,60d39bc8af5e01b7ab0e1ed5,36,2022-02-12_12h42.12.083,lexical_decision_task_DD_L2,2021.2.3,Linux armv7l,30.49245312,,,,,,,,,,0.6791,1,,,,,,,,,,,,,,,0,0.415395422,-0.301958991,1,0,0,0.6791,button_right_main,0.415395422,-0.301958991,1,0,0,,0,39,39,57,1,MOOSE,HB,old,m,./images/MOOSEHB.png,,,,,,,,,,,,,,,,,,,,,,,,,,,,,,,,,
,,,,,,,,,,,,,,,,,60d39bc8af5e01b7ab0e1ed5,36,2022-02-12_12h42.12.083,lexical_decision_task_DD_L2,2021.2.3,Linux armv7l,30.49245312,,,,,,,,,,0.6651,1,,,,,,,,,,,,,,,0,0.415395422,-0.301958991,1,0,0,0.6651,button_right_main,0.415395422,-0.301958991,1,0,0,,0,40,40,49,1,DRUMS,LB,old,m,./images/DRUMSLB.png,,,,,,,,,,,,,,,,,,,,,,,,,,,,,,,,,
,,,,,,,,,,,,,,,,,60d39bc8af5e01b7ab0e1ed5,36,2022-02-12_12h42.12.083,lexical_decision_task_DD_L2,2021.2.3,Linux armv7l,30.49245312,,,,,,,,,,1.0554,1,,,,,,,,,,,,,,,0,0.418169336,-0.295028538,1,0,0,1.0554,button_right_main,0.027045833,-0.389280301,1,0,0,,0,41,41,69,1,COOKER,HB,old,m,./images/COOKERHB.png,break_done_button,,,,,,,,,,,,,,,,,,,,,,,,,,,,,,,,
,,,,,,,,,,,,,,,,,60d39bc8af5e01b7ab0e1ed5,36,2022-02-12_12h42.12.083,lexical_decision_task_DD_L2,2021.2.3,Linux armv7l,30.49245312,,,,,,,,,,1.1606,1,,,,,,,,,,,,,,,0,0.397364792,-0.270079678,1,0,0,1.1606,button_right_main,0.397364792,-0.270079678,1,0,0,,0,42,42,11,1,BONNET,C,old,m,./images/BONNET.png,,,,,,,,,,,,,,,,,,,,,,,,,,,,,,,,,
,,,,,,,,,,,,,,,,,60d39bc8af5e01b7ab0e1ed5,36,2022-02-12_12h42.12.083,lexical_decision_task_DD_L2,2021.2.3,Linux armv7l,30.49245312,,,,,,,,,,0.7704,1,,,,,,,,,,,,,,,0,0.415395422,-0.288098382,1,0,0,0.7704,button_right_main,0.415395422,-0.288098382,1,0,0,,0,43,43,7,1,PAINT,LB,old,m,./images/PAINTLB.png,,,,,,,,,,,,,,,,,,,,,,,,,,,,,,,,,
,,,,,,,,,,,,,,,,,60d39bc8af5e01b7ab0e1ed5,36,2022-02-12_12h42.12.083,lexical_decision_task_DD_L2,2021.2.3,Linux armv7l,30.49245312,,,,,,,,,,0.7164,1,,,,,,,,,,,,,,,0,-0.37794728,-0.295028538,1,0,0,0.7164,button_left_main,-0.37794728,-0.295028538,1,0,0,,0,44,44,108,1,GRUET,C,old,z,./images/GRUET.png,,,,,,,,,,,,,,,,,,,,,,,,,,,,,,,,,
,,,,,,,,,,,,,,,,,60d39bc8af5e01b7ab0e1ed5,36,2022-02-12_12h42.12.083,lexical_decision_task_DD_L2,2021.2.3,Linux armv7l,30.49245312,,,,,,,,,,0.9261,1,,,,,,,,,,,,,,,0,-0.394590841,-0.279782045,1,0,0,0.9261,button_left_main,-0.394590841,-0.279782045,1,0,0,,0,45,45,158,1,EGECT,LB,old,z,./images/EGECTLB.png,,,,,,,,,,,,,,,,,,,,,,,,,,,,,,,,,
,,,,,,,,,,,,,,,,,60d39bc8af5e01b7ab0e1ed5,36,2022-02-12_12h42.12.083,lexical_decision_task_DD_L2,2021.2.3,Linux armv7l,30.49245312,,,,,,,,,,1.041,1,,,,,,,,,,,,,,,0,-0.407073493,-0.282554108,1,0,0,1.041,button_left_main,-0.407073493,-0.282554108,1,0,0,,0,46,46,124,1,TUNCH,HB,old,z,./images/TUNCHHB.png,,,,,,,,,,,,,,,,,,,,,,,,,,,,,,,,,
,,,,,,,,,,,,,,,,,60d39bc8af5e01b7ab0e1ed5,36,2022-02-12_12h42.12.083,lexical_decision_task_DD_L2,2021.2.3,Linux armv7l,30.49245312,,,,,,,,,,0.9916,1,,,,,,,,,,,,,,,0,0.412621507,-0.301958991,1,0,0,0.9916,button_right_main,0.412621507,-0.301958991,1,0,0,,0,47,47,72,1,NOOSE,HB,old,m,./images/NOOSEHB.png,,,,,,,,,,,,,,,,,,,,,,,,,,,,,,,,,
,,,,,,,,,,,,,,,,,60d39bc8af5e01b7ab0e1ed5,36,2022-02-12_12h42.12.083,lexical_decision_task_DD_L2,2021.2.3,Linux armv7l,30.49245312,,,,,,,,,,0.9329,1,,,,,,,,,,,,,,,0,0.418169336,-0.295028538,1,0,0,0.9329,button_right_main,0.418169336,-0.295028538,1,0,0,,0,48,48,53,1,CARPET,C,old,m,./images/CARPET.png,,,,,,,,,,,,,,,,,,,,,,,,,,,,,,,,,
,,,,,,,,,,,,,,,,,60d39bc8af5e01b7ab0e1ed5,36,2022-02-12_12h42.12.083,lexical_decision_task_DD_L2,2021.2.3,Linux armv7l,30.49245312,,,,,,,,,,0.6939,1,,,,,,,,,,,,,,,0,0.412621507,-0.304731054,1,0,0,0.6939,button_right_main,0.412621507,-0.304731054,1,0,0,,0,49,49,76,1,INFANT,LB,old,m,./images/INFANTLB.png,,,,,,,,,,,,,,,,,,,,,,,,,,,,,,,,,
,,,,,,,,,,,,,,,,,60d39bc8af5e01b7ab0e1ed5,36,2022-02-12_12h42.12.083,lexical_decision_task_DD_L2,2021.2.3,Linux armv7l,30.49245312,,,,,,,,,,0.6968,1,,,,,,,,,,,,,,,0,-0.427877945,-0.268693794,1,0,0,0.6968,button_left_main,-0.427877945,-0.268693794,1,0,0,,0,50,50,116,1,BALGY,LB,old,z,./images/BALGYLB.png,,,,,,,,,,,,,,,,,,,,,,,,,,,,,,,,,
,,,,,,,,,,,,,,,,,60d39bc8af5e01b7ab0e1ed5,36,2022-02-12_12h42.12.083,lexical_decision_task_DD_L2,2021.2.3,Linux armv7l,30.49245312,,,,,,,,,,1.1215,1,,,,,,,,,,,,,,,0,-0.41678224,-0.271465857,1,0,0,1.1215,button_left_main,-0.41678224,-0.271465857,1,0,0,,0,51,51,93,1,SMONE,C,old,z,./images/SMONE.png,,,,,,,,,,,,,,,,,,,,,,,,,,,,,,,,,
,,,,,,,,,,,,,,,,,60d39bc8af5e01b7ab0e1ed5,36,2022-02-12_12h42.12.083,lexical_decision_task_DD_L2,2021.2.3,Linux armv7l,30.49245312,,,,,,,,,,0.8624,1,,,,,,,,,,,,,,,0,-0.426490983,-0.275623951,1,0,0,0.8624,button_left_main,-0.426490983,-0.275623951,1,0,0,,0,52,52,162,1,LEICH,C,old,z,./images/LEICH.png,,,,,,,,,,,,,,,,,,,,,,,,,,,,,,,,,
,,,,,,,,,,,,,,,,,60d39bc8af5e01b7ab0e1ed5,36,2022-02-12_12h42.12.083,lexical_decision_task_DD_L2,2021.2.3,Linux armv7l,30.49245312,,,,,,,,,,1.5507,1,,,,,,,,,,,,,,,0,0.40291277,-0.301958991,1,0,0,1.5507,button_right_main,0.40291277,-0.301958991,1,0,0,,0,53,53,17,1,SKIING,C,old,m,./images/SKIING.png,,,,,,,,,,,,,,,,,,,,,,,,,,,,,,,,,
,,,,,,,,,,,,,,,,,60d39bc8af5e01b7ab0e1ed5,36,2022-02-12_12h42.12.083,lexical_decision_task_DD_L2,2021.2.3,Linux armv7l,30.49245312,,,,,,,,,,0.7836,1,,,,,,,,,,,,,,,0,-0.427877945,-0.265921732,1,0,0,0.7836,button_left_main,-0.427877945,-0.265921732,1,0,0,,0,54,54,132,1,SCIFF,C,old,z,./images/SCIFF.png,,,,,,,,,,,,,,,,,,,,,,,,,,,,,,,,,
,,,,,,,,,,,,,,,,,60d39bc8af5e01b7ab0e1ed5,36,2022-02-12_12h42.12.083,lexical_decision_task_DD_L2,2021.2.3,Linux armv7l,30.49245312,,,,,,,,,,0.75,1,,,,,,,,,,,,,,,0,-0.425104021,-0.270079678,1,0,0,0.75,button_left_main,-0.425104021,-0.270079678,1,0,0,,0,55,55,92,1,PAIMS,LB,old,z,./images/PAIMSLB.png,,,,,,,,,,,,,,,,,,,,,,,,,,,,,,,,,
,,,,,,,,,,,,,,,,,60d39bc8af5e01b7ab0e1ed5,36,2022-02-12_12h42.12.083,lexical_decision_task_DD_L2,2021.2.3,Linux armv7l,30.49245312,,,,,,,,,,0.9262,1,,,,,,,,,,,,,,,0,-0.414008316,-0.275623951,1,0,0,0.9262,button_left_main,-0.414008316,-0.275623951,1,0,0,,0,56,56,148,1,JOMS,HB,old,z,./images/JOMSHB.png,,,,,,,,,,,,,,,,,,,,,,,,,,,,,,,,,
,,,,,,,,,,,,,,,,,60d39bc8af5e01b7ab0e1ed5,36,2022-02-12_12h42.12.083,lexical_decision_task_DD_L2,2021.2.3,Linux armv7l,30.49245312,,,,,,,,,,0.7477,1,,,,,,,,,,,,,,,0,0.40707353,-0.31027518,1,0,0,0.7477,button_right_main,0.40707353,-0.31027518,1,0,0,,0,57,57,25,1,WRIST,LB,old,m,./images/WRISTLB.png,,,,,,,,,,,,,,,,,,,,,,,,,,,,,,,,,
,,,,,,,,,,,,,,,,,60d39bc8af5e01b7ab0e1ed5,36,2022-02-12_12h42.12.083,lexical_decision_task_DD_L2,2021.2.3,Linux armv7l,30.49245312,,,,,,,,,,0.7167,1,,,,,,,,,,,,,,,0,0.382108225,-0.308889296,1,0,0,0.7167,button_right_main,0.382108225,-0.308889296,1,0,0,,0,58,58,6,1,SQUARE,HB,old,m,./images/SQUAREHB.png,,,,,,,,,,,,,,,,,,,,,,,,,,,,,,,,,
,,,,,,,,,,,,,,,,,60d39bc8af5e01b7ab0e1ed5,36,2022-02-12_12h42.12.083,lexical_decision_task_DD_L2,2021.2.3,Linux armv7l,30.49245312,,,,,,,,,,0.8252,1,,,,,,,,,,,,,,,0,0.398751861,-0.315819453,1,0,0,0.8252,button_right_main,0.398751861,-0.315819453,1,0,0,,0,59,59,14,1,PICKLE,C,old,m,./images/PICKLE.png,,,,,,,,,,,,,,,,,,,,,,,,,,,,,,,,,
,,,,,,,,,,,,,,,,,60d39bc8af5e01b7ab0e1ed5,36,2022-02-12_12h42.12.083,lexical_decision_task_DD_L2,2021.2.3,Linux armv7l,30.49245312,,,,,,,,,,0.8375,1,,,,,,,,,,,,,,,0,0.40707353,-0.319977547,1,0,0,0.8375,button_right_main,0.40707353,-0.319977547,1,0,0,,0,60,60,41,1,STRING,C,old,m,./images/STRING.png,,,,,,,,,,,,,,,,,,,,,,,,,,,,,,,,,
,,,,,,,,,,,,,,,,,60d39bc8af5e01b7ab0e1ed5,36,2022-02-12_12h42.12.083,lexical_decision_task_DD_L2,2021.2.3,Linux armv7l,30.49245312,,,,,,,,,,0.7933,1,,,,,,,,,,,,,,,0,-0.420943121,-0.279782045,1,0,0,0.7933,button_left_main,-0.420943121,-0.279782045,1,0,0,,0,61,61,160,1,VEETS,HB,old,z,./images/VEETSHB.png,,,,,,,,,,,,,,,,,,,,,,,,,,,,,,,,,
,,,,,,,,,,,,,,,,,60d39bc8af5e01b7ab0e1ed5,36,2022-02-12_12h42.12.083,lexical_decision_task_DD_L2,2021.2.3,Linux armv7l,30.49245312,,,,,,,,,,0.8428,1,,,,,,,,,,,,,,,0,0.414008354,-0.32274961,1,0,0,0.8428,button_right_main,0.414008354,-0.32274961,1,0,0,,0,62,62,38,1,LADDER,C,old,m,./images/LADDER.png,,,,,,,,,,,,,,,,,,,,,,,,,,,,,,,,,
,,,,,,,,,,,,,,,,,60d39bc8af5e01b7ab0e1ed5,36,2022-02-12_12h42.12.083,lexical_decision_task_DD_L2,2021.2.3,Linux armv7l,30.49245312,,,,,,,,,,0.7208,1,,,,,,,,,,,,,,,0,-0.412621359,-0.28671235,1,0,0,0.7208,button_left_main,-0.412621359,-0.28671235,1,0,0,,0,63,63,161,1,BLAPS,LB,old,z,./images/BLAPSLB.png,,,,,,,,,,,,,,,,,,,,,,,,,,,,,,,,,
,,,,,,,,,,,,,,,,,60d39bc8af5e01b7ab0e1ed5,36,2022-02-12_12h42.12.083,lexical_decision_task_DD_L2,2021.2.3,Linux armv7l,30.49245312,,,,,,,,,,0.7017,1,,,,,,,,,,,,,,,0,0.432038983,-0.304731054,1,0,0,0.7017,button_right_main,0.432038983,-0.304731054,1,0,0,,0,64,64,19,1,DOUGH,LB,old,m,./images/DOUGHLB.png,,,,,,,,,,,,,,,,,,,,,,,,,,,,,,,,,
,,,,,,,,,,,,,,,,,60d39bc8af5e01b7ab0e1ed5,36,2022-02-12_12h42.12.083,lexical_decision_task_DD_L2,2021.2.3,Linux armv7l,30.49245312,,,,,,,,,,0.8839,1,,,,,,,,,,,,,,,0,-0.415395283,-0.278396014,1,0,0,0.8839,button_left_main,-0.415395283,-0.278396014,1,0,0,,0,65,65,109,1,BURGE,HB,old,z,./images/BURGEHB.png,,,,,,,,,,,,,,,,,,,,,,,,,,,,,,,,,
,,,,,,,,,,,,,,,,,60d39bc8af5e01b7ab0e1ed5,36,2022-02-12_12h42.12.083,lexical_decision_task_DD_L2,2021.2.3,Linux armv7l,30.49245312,,,,,,,,,,0.796,1,,,,,,,,,,,,,,,0,-0.414008316,-0.281168077,1,0,0,0.796,button_left_main,-0.414008316,-0.281168077,1,0,0,,0,66,66,105,1,MOKER,C,old,z,./images/MOKER.png,,,,,,,,,,,,,,,,,,,,,,,,,,,,,,,,,
,,,,,,,,,,,,,,,,,60d39bc8af5e01b7ab0e1ed5,36,2022-02-12_12h42.12.083,lexical_decision_task_DD_L2,2021.2.3,Linux armv7l,30.49245312,,,,,,,,,,0.8088,1,,,,,,,,,,,,,,,0,0.412621507,-0.314433422,1,0,0,0.8088,button_right_main,0.412621507,-0.314433422,1,0,0,,0,67,67,32,1,BARREL,C,old,m,./images/BARREL.png,,,,,,,,,,,,,,,,,,,,,,,,,,,,,,,,,
,,,,,,,,,,,,,,,,,60d39bc8af5e01b7ab0e1ed5,36,2022-02-12_12h42.12.083,lexical_decision_task_DD_L2,2021.2.3,Linux armv7l,30.49245312,,,,,,,,,,0.9378,1,,,,,,,,,,,,,,,0,0.418169336,-0.313047242,1,0,0,0.9378,button_right_main,0.418169336,-0.313047242,1,0,0,,0,68,68,1,1,PLANK,LB,old,m,./images/PLANKLB.png,,,,,,,,,,,,,,,,,,,,,,,,,,,,,,,,,
,,,,,,,,,,,,,,,,,60d39bc8af5e01b7ab0e1ed5,36,2022-02-12_12h42.12.083,lexical_decision_task_DD_L2,2021.2.3,Linux armv7l,30.49245312,,,,,,,,,,0.8135,1,,,,,,,,,,,,,,,0,-0.427877945,-0.282554108,1,0,0,0.8135,button_left_main,-0.427877945,-0.282554108,1,0,0,,0,69,69,96,1,KEAMS,C,old,z,./images/KEAMS.png,,,,,,,,,,,,,,,,,,,,,,,,,,,,,,,,,
,,,,,,,,,,,,,,,,,60d39bc8af5e01b7ab0e1ed5,36,2022-02-12_12h42.12.083,lexical_decision_task_DD_L2,2021.2.3,Linux armv7l,30.49245312,,,,,,,,,,0.7675,1,,,,,,,,,,,,,,,0,0.405686684,-0.336610368,1,0,0,0.7675,button_right_main,0.405686684,-0.336610368,1,0,0,,0,70,70,51,1,ONION,HB,old,m,./images/ONIONHB.png,,,,,,,,,,,,,,,,,,,,,,,,,,,,,,,,,
,,,,,,,,,,,,,,,,,60d39bc8af5e01b7ab0e1ed5,36,2022-02-12_12h42.12.083,lexical_decision_task_DD_L2,2021.2.3,Linux armv7l,30.49245312,,,,,,,,,,0.748,1,,,,,,,,,,,,,,,0,-0.427877945,-0.277009983,1,0,0,0.748,button_left_main,-0.427877945,-0.277009983,1,0,0,,0,71,71,102,1,DULLE,C,old,z,./images/DULLE.png,,,,,,,,,,,,,,,,,,,,,,,,,,,,,,,,,
,,,,,,,,,,,,,,,,,60d39bc8af5e01b7ab0e1ed5,36,2022-02-12_12h42.12.083,lexical_decision_task_DD_L2,2021.2.3,Linux armv7l,30.49245312,,,,,,,,,,0.6816,1,,,,,,,,,,,,,,,0,0.397364792,-0.326907704,1,0,0,0.6816,button_right_main,0.397364792,-0.326907704,1,0,0,,0,72,72,37,1,BIRTH,LB,old,m,./images/BIRTHLB.png,,,,,,,,,,,,,,,,,,,,,,,,,,,,,,,,,
,,,,,,,,,,,,,,,,,60d39bc8af5e01b7ab0e1ed5,36,2022-02-12_12h42.12.083,lexical_decision_task_DD_L2,2021.2.3,Linux armv7l,30.49245312,,,,,,,,,,0.8131,1,,,,,,,,,,,,,,,0,-0.405686545,-0.290870444,1,0,0,0.8131,button_left_main,-0.405686545,-0.290870444,1,0,0,,0,73,73,146,1,MOOST,LB,old,z,./images/MOOSTLB.png,,,,,,,,,,,,,,,,,,,,,,,,,,,,,,,,,
,,,,,,,,,,,,,,,,,60d39bc8af5e01b7ab0e1ed5,36,2022-02-12_12h42.12.083,lexical_decision_task_DD_L2,2021.2.3,Linux armv7l,30.49245312,,,,,,,,,,0.8504,1,,,,,,,,,,,,,,,0,0.423717091,-0.317205485,1,0,0,0.8504,button_right_main,0.423717091,-0.317205485,1,0,0,,0,74,74,67,1,SAILOR,LB,old,m,./images/SAILORLB.png,,,,,,,,,,,,,,,,,,,,,,,,,,,,,,,,,
,,,,,,,,,,,,,,,,,60d39bc8af5e01b7ab0e1ed5,36,2022-02-12_12h42.12.083,lexical_decision_task_DD_L2,2021.2.3,Linux armv7l,30.49245312,,,,,,,,,,0.7324,1,,,,,,,,,,,,,,,0,-0.427877945,-0.268693794,1,0,0,0.7324,button_left_main,-0.427877945,-0.268693794,1,0,0,,0,75,75,164,1,SGREW,LB,old,z,./images/SGREWLB.png,,,,,,,,,,,,,,,,,,,,,,,,,,,,,,,,,
,,,,,,,,,,,,,,,,,60d39bc8af5e01b7ab0e1ed5,36,2022-02-12_12h42.12.083,lexical_decision_task_DD_L2,2021.2.3,Linux armv7l,30.49245312,,,,,,,,,,0.7669,1,,,,,,,,,,,,,,,0,0.412621507,-0.324135641,1,0,0,0.7669,button_right_main,0.412621507,-0.324135641,1,0,0,,0,76,76,80,1,WEASEL,C,old,m,./images/WEASEL.png,,,,,,,,,,,,,,,,,,,,,,,,,,,,,,,,,
,,,,,,,,,,,,,,,,,60d39bc8af5e01b7ab0e1ed5,36,2022-02-12_12h42.12.083,lexical_decision_task_DD_L2,2021.2.3,Linux armv7l,30.49245312,,,,,,,,,,0.6946,1,,,,,,,,,,,,,,,0,0.422330245,-0.319977547,1,0,0,0.6946,button_right_main,0.422330245,-0.319977547,1,0,0,,0,77,77,70,1,URINE,LB,old,m,./images/URINELB.png,,,,,,,,,,,,,,,,,,,,,,,,,,,,,,,,,
,,,,,,,,,,,,,,,,,60d39bc8af5e01b7ab0e1ed5,36,2022-02-12_12h42.12.083,lexical_decision_task_DD_L2,2021.2.3,Linux armv7l,30.49245312,,,,,,,,,,0.683,1,,,,,,,,,,,,,,,0,-0.414008316,-0.289484413,1,0,0,0.683,button_left_main,-0.414008316,-0.289484413,1,0,0,,0,78,78,134,1,TROSS,LB,old,z,./images/TROSSLB.png,,,,,,,,,,,,,,,,,,,,,,,,,,,,,,,,,
,,,,,,,,,,,,,,,,,60d39bc8af5e01b7ab0e1ed5,36,2022-02-12_12h42.12.083,lexical_decision_task_DD_L2,2021.2.3,Linux armv7l,30.49245312,,,,,,,,,,0.7495,1,,,,,,,,,,,,,,,0,-0.404299579,-0.288098382,1,0,0,0.7495,button_left_main,-0.404299579,-0.288098382,1,0,0,,0,79,79,90,1,NEAST,C,old,z,./images/NEAST.png,,,,,,,,,,,,,,,,,,,,,,,,,,,,,,,,,
,,,,,,,,,,,,,,,,,60d39bc8af5e01b7ab0e1ed5,36,2022-02-12_12h42.12.083,lexical_decision_task_DD_L2,2021.2.3,Linux armv7l,30.49245312,,,,,,,,,,0.8628,1,,,,,,,,,,,,,,,0,-0.411234393,-0.278396014,1,0,0,0.8628,button_left_main,-0.411234393,-0.278396014,1,0,0,,0,80,80,135,1,JOODY,C,old,z,./images/JOODY.png,,,,,,,,,,,,,,,,,,,,,,,,,,,,,,,,,
,,,,,,,,,,,,,,,,,60d39bc8af5e01b7ab0e1ed5,36,2022-02-12_12h42.12.083,lexical_decision_task_DD_L2,2021.2.3,Linux armv7l,30.49245312,,,,,,,,,,0.663,1,,,,,,,,,,,,,,,0,0.400138707,-0.333838009,1,0,0,0.663,button_right_main,0.400138707,-0.333838009,1,0,0,,0,81,81,55,1,MUFFIN,LB,old,m,./images/MUFFINLB.png,,,,,,,,,,,,,,,,,,,,,,,,,,,,,,,,,
,,,,,,,,,,,,,,,,,60d39bc8af5e01b7ab0e1ed5,36,2022-02-12_12h42.12.083,lexical_decision_task_DD_L2,2021.2.3,Linux armv7l,30.49245312,,,,,,,,,,1.0754,1,,,,,,,,,,,,,,,0,-0.398751731,-0.275623951,1,0,0,1.0754,button_left_main,-0.398751731,-0.275623951,1,0,0,,0,82,82,118,1,BAVEL,HB,old,z,./images/BAVELHB.png,,,,,,,,,,,,,,,,,,,,,,,,,,,,,,,,,
,,,,,,,,,,,,,,,,,60d39bc8af5e01b7ab0e1ed5,36,2022-02-12_12h42.12.083,lexical_decision_task_DD_L2,2021.2.3,Linux armv7l,30.49245312,,,,,,,,,,0.6969,1,,,,,,,,,,,,,,,0,0.408460599,-0.30057296,1,0,0,0.6969,button_right_main,0.057558967,-0.404526646,1,0,0,,0,83,83,39,1,SHELF,HB,old,m,./images/SHELFHB.png,break_done_button,,,,,,,,,,,,,,,,,,,,,,,,,,,,,,,,
,,,,,,,,,,,,,,,,,60d39bc8af5e01b7ab0e1ed5,36,2022-02-12_12h42.12.083,lexical_decision_task_DD_L2,2021.2.3,Linux armv7l,30.49245312,,,,,,,,,,0.7677,1,,,,,,,,,,,,,,,0,-0.37794728,-0.283940139,1,0,0,0.7677,button_left_main,-0.37794728,-0.283940139,1,0,0,,0,84,84,130,1,CRILL,HB,old,z,./images/CRILLHB.png,,,,,,,,,,,,,,,,,,,,,,,,,,,,,,,,,
,,,,,,,,,,,,,,,,,60d39bc8af5e01b7ab0e1ed5,36,2022-02-12_12h42.12.083,lexical_decision_task_DD_L2,2021.2.3,Linux armv7l,30.49245312,,,,,,,,,,0.6956,1,,,,,,,,,,,,,,,0,0.372399488,-0.317205485,1,0,0,0.6956,button_right_main,0.372399488,-0.317205485,1,0,0,,0,85,85,65,1,FARMER,C,old,m,./images/FARMER.png,,,,,,,,,,,,,,,,,,,,,,,,,,,,,,,,,
,,,,,,,,,,,,,,,,,60d39bc8af5e01b7ab0e1ed5,36,2022-02-12_12h42.12.083,lexical_decision_task_DD_L2,2021.2.3,Linux armv7l,30.49245312,,,,,,,,,,0.7334,1,,,,,,,,,,,,,,,0,0.390429969,-0.313047242,1,0,0,0.7334,button_right_main,0.390429969,-0.313047242,1,0,0,,0,86,86,56,1,PACKET,C,old,m,./images/PACKET.png,,,,,,,,,,,,,,,,,,,,,,,,,,,,,,,,,
,,,,,,,,,,,,,,,,,60d39bc8af5e01b7ab0e1ed5,36,2022-02-12_12h42.12.083,lexical_decision_task_DD_L2,2021.2.3,Linux armv7l,30.49245312,,,,,,,,,,0.7591,1,,,,,,,,,,,,,,,0,-0.408460469,-0.279782045,1,0,0,0.7591,button_left_main,-0.408460469,-0.279782045,1,0,0,,0,87,87,144,1,NAIRY,C,old,z,./images/NAIRY.png,,,,,,,,,,,,,,,,,,,,,,,,,,,,,,,,,
,,,,,,,,,,,,,,,,,60d39bc8af5e01b7ab0e1ed5,36,2022-02-12_12h42.12.083,lexical_decision_task_DD_L2,2021.2.3,Linux armv7l,30.49245312,,,,,,,,,,0.8314,1,,,,,,,,,,,,,,,0,0.387656054,-0.315819453,1,0,0,0.8314,button_right_main,0.387656054,-0.315819453,1,0,0,,0,88,88,42,1,FOLDER,HB,old,m,./images/FOLDERHB.png,,,,,,,,,,,,,,,,,,,,,,,,,,,,,,,,,
,,,,,,,,,,,,,,,,,60d39bc8af5e01b7ab0e1ed5,36,2022-02-12_12h42.12.083,lexical_decision_task_DD_L2,2021.2.3,Linux armv7l,30.49245312,,,,,,,,,,0.8131,1,,,,,,,,,,,,,,,0,0.38488214,-0.32274961,1,0,0,0.8131,button_right_main,0.38488214,-0.32274961,1,0,0,,0,89,89,8,1,TULIP,C,old,m,./images/TULIP.png,,,,,,,,,,,,,,,,,,,,,,,,,,,,,,,,,
,,,,,,,,,,,,,,,,,60d39bc8af5e01b7ab0e1ed5,36,2022-02-12_12h42.12.083,lexical_decision_task_DD_L2,2021.2.3,Linux armv7l,30.49245312,,,,,,,,,,1.0094,1,,,,,,,,,,,,,,,0,-0.395977807,-0.279782045,1,0,0,1.0094,button_left_main,-0.395977807,-0.279782045,1,0,0,,0,90,90,145,1,LAMEL,HB,old,z,./images/LAMELHB.png,,,,,,,,,,,,,,,,,,,,,,,,,,,,,,,,,
,,,,,,,,,,,,,,,,,60d39bc8af5e01b7ab0e1ed5,36,2022-02-12_12h42.12.083,lexical_decision_task_DD_L2,2021.2.3,Linux armv7l,30.49245312,,,,,,,,,,0.7925,1,,,,,,,,,,,,,,,0,0.373786556,-0.32274961,1,0,0,0.7925,button_right_main,0.373786556,-0.32274961,1,0,0,,0,91,91,23,1,WALRUS,C,old,m,./images/WALRUS.png,,,,,,,,,,,,,,,,,,,,,,,,,,,,,,,,,
,,,,,,,,,,,,,,,,,60d39bc8af5e01b7ab0e1ed5,36,2022-02-12_12h42.12.083,lexical_decision_task_DD_L2,2021.2.3,Linux armv7l,30.49245312,,,,,,,,,,0.8024,1,,,,,,,,,,,,,,,0,0.377947317,-0.324135641,1,0,0,0.8024,button_right_main,0.377947317,-0.324135641,1,0,0,,0,92,92,9,1,RHINO,HB,old,m,./images/RHINOHB.png,,,,,,,,,,,,,,,,,,,,,,,,,,,,,,,,,
,,,,,,,,,,,,,,,,,60d39bc8af5e01b7ab0e1ed5,36,2022-02-12_12h42.12.083,lexical_decision_task_DD_L2,2021.2.3,Linux armv7l,30.49245312,,,,,,,,,,2.6563,1,,,,,,,,,,,,,,,0,-0.394590841,-0.275623951,1,0,0,2.6563,button_left_main,-0.394590841,-0.275623951,1,0,0,,0,93,93,120,1,RINED,C,old,z,./images/RINED.png,,,,,,,,,,,,,,,,,,,,,,,,,,,,,,,,,
,,,,,,,,,,,,,,,,,60d39bc8af5e01b7ab0e1ed5,36,2022-02-12_12h42.12.083,lexical_decision_task_DD_L2,2021.2.3,Linux armv7l,30.49245312,,,,,,,,,,0.909,1,,,,,,,,,,,,,,,0,-0.402912621,-0.277009983,1,0,0,0.909,button_left_main,-0.402912621,-0.277009983,1,0,0,,0,94,94,138,1,PLICE,C,old,z,./images/PLICE.png,,,,,,,,,,,,,,,,,,,,,,,,,,,,,,,,,
,,,,,,,,,,,,,,,,,60d39bc8af5e01b7ab0e1ed5,36,2022-02-12_12h42.12.083,lexical_decision_task_DD_L2,2021.2.3,Linux armv7l,30.49245312,,,,,,,,,,0.9927,1,,,,,,,,,,,,,,,0,-0.400138679,-0.281168077,1,0,0,0.9927,button_left_main,-0.400138679,-0.281168077,1,0,0,,0,95,95,85,1,CHULK,HB,old,z,./images/CHULKHB.png,,,,,,,,,,,,,,,,,,,,,,,,,,,,,,,,,
,,,,,,,,,,,,,,,,,60d39bc8af5e01b7ab0e1ed5,36,2022-02-12_12h42.12.083,lexical_decision_task_DD_L2,2021.2.3,Linux armv7l,30.49245312,,,,,,,,,,0.8433,1,,,,,,,,,,,,,,,0,-0.404299579,-0.281168077,1,0,0,0.8433,button_left_main,-0.404299579,-0.281168077,1,0,0,,0,96,96,104,1,GITTY,LB,old,z,./images/GITTYLB.png,,,,,,,,,,,,,,,,,,,,,,,,,,,,,,,,,
,,,,,,,,,,,,,,,,,60d39bc8af5e01b7ab0e1ed5,36,2022-02-12_12h42.12.083,lexical_decision_task_DD_L2,2021.2.3,Linux armv7l,30.49245312,,,,,,,,,,0.8278,1,,,,,,,,,,,,,,,0,-0.400138679,-0.279782045,1,0,0,0.8278,button_left_main,-0.400138679,-0.279782045,1,0,0,,0,97,97,128,1,GRIFT,LB,old,z,./images/GRIFTLB.png,,,,,,,,,,,,,,,,,,,,,,,,,,,,,,,,,
,,,,,,,,,,,,,,,,,60d39bc8af5e01b7ab0e1ed5,36,2022-02-12_12h42.12.083,lexical_decision_task_DD_L2,2021.2.3,Linux armv7l,30.49245312,,,,,,,,,,1.29,1,,,,,,,,,,,,,,,0,-0.389042993,-0.283940139,1,0,0,1.29,button_left_main,-0.389042993,-0.283940139,1,0,0,,0,98,98,94,1,BLANS,HB,old,z,./images/BLANSHB.png,,,,,,,,,,,,,,,,,,,,,,,,,,,,,,,,,
,,,,,,,,,,,,,,,,,60d39bc8af5e01b7ab0e1ed5,36,2022-02-12_12h42.12.083,lexical_decision_task_DD_L2,2021.2.3,Linux armv7l,30.49245312,,,,,,,,,,0.665,1,,,,,,,,,,,,,,,0,-0.398751731,-0.283940139,1,0,0,0.665,button_left_main,-0.398751731,-0.283940139,1,0,0,,0,99,99,137,1,JOOST,LB,old,z,./images/JOOSTLB.png,,,,,,,,,,,,,,,,,,,,,,,,,,,,,,,,,
,,,,,,,,,,,,,,,,,60d39bc8af5e01b7ab0e1ed5,36,2022-02-12_12h42.12.083,lexical_decision_task_DD_L2,2021.2.3,Linux armv7l,30.49245312,,,,,,,,,,0.7461,1,,,,,,,,,,,,,,,0,0.369625647,-0.318591516,1,0,0,0.7461,button_right_main,0.369625647,-0.318591516,1,0,0,,0,100,100,74,1,CEMENT,C,old,m,./images/CEMENT.png,,,,,,,,,,,,,,,,,,,,,,,,,,,,,,,,,
,,,,,,,,,,,,,,,,,60d39bc8af5e01b7ab0e1ed5,36,2022-02-12_12h42.12.083,lexical_decision_task_DD_L2,2021.2.3,Linux armv7l,30.49245312,,,,,,,,,,0.7779,1,,,,,,,,,,,,,,,0,0.373786556,-0.306117234,1,0,0,0.7779,button_right_main,0.373786556,-0.306117234,1,0,0,,0,101,101,58,1,BABOON,LB,old,m,./images/BABOONLB.png,,,,,,,,,,,,,,,,,,,,,,,,,,,,,,,,,
,,,,,,,,,,,,,,,,,60d39bc8af5e01b7ab0e1ed5,36,2022-02-12_12h42.12.083,lexical_decision_task_DD_L2,2021.2.3,Linux armv7l,30.49245312,,,,,,,,,,0.7832,1,,,,,,,,,,,,,,,0,0.368238579,-0.307503117,1,0,0,0.7832,button_right_main,0.368238579,-0.307503117,1,0,0,,0,102,102,78,1,LITTER,HB,old,m,./images/LITTERHB.png,,,,,,,,,,,,,,,,,,,,,,,,,,,,,,,,,
,,,,,,,,,,,,,,,,,60d39bc8af5e01b7ab0e1ed5,36,2022-02-12_12h42.12.083,lexical_decision_task_DD_L2,2021.2.3,Linux armv7l,30.49245312,,,,,,,,,,0.898,1,,,,,,,,,,,,,,,0,-0.397364755,-0.282554108,1,0,0,0.898,button_left_main,-0.397364755,-0.282554108,1,0,0,,0,103,103,126,1,GUELS,C,old,z,./images/GUELS.png,,,,,,,,,,,,,,,,,,,,,,,,,,,,,,,,,
,,,,,,,,,,,,,,,,,60d39bc8af5e01b7ab0e1ed5,36,2022-02-12_12h42.12.083,lexical_decision_task_DD_L2,2021.2.3,Linux armv7l,30.49245312,,,,,,,,,,2.1403,1,,,,,,,,,,,,,,,0,-0.372399441,-0.277009983,1,0,0,2.1403,button_left_main,-0.372399441,-0.277009983,1,0,0,,0,104,104,97,1,CHIDS,HB,old,z,./images/CHIDSHB.png,,,,,,,,,,,,,,,,,,,,,,,,,,,,,,,,,
,,,,,,,,,,,,,,,,,60d39bc8af5e01b7ab0e1ed5,36,2022-02-12_12h42.12.083,lexical_decision_task_DD_L2,2021.2.3,Linux armv7l,30.49245312,,,,,,,,,,1.2888,1,,,,,,,,,,,,,,,0,-0.380721203,-0.279782045,1,0,0,1.2888,button_left_main,-0.380721203,-0.279782045,1,0,0,,0,105,105,139,1,BLEAR,HB,old,z,./images/BLEARHB.png,,,,,,,,,,,,,,,,,,,,,,,,,,,,,,,,,
,,,,,,,,,,,,,,,,,60d39bc8af5e01b7ab0e1ed5,36,2022-02-12_12h42.12.083,lexical_decision_task_DD_L2,2021.2.3,Linux armv7l,30.49245312,,,,,,,,,,0.6847,1,,,,,,,,,,,,,,,0,0.361303755,-0.32274961,1,0,0,0.6847,button_right_main,0.361303755,-0.32274961,1,0,0,,0,106,106,10,1,BELLY,LB,old,m,./images/BELLYLB.png,,,,,,,,,,,,,,,,,,,,,,,,,,,,,,,,,
,,,,,,,,,,,,,,,,,60d39bc8af5e01b7ab0e1ed5,36,2022-02-12_12h42.12.083,lexical_decision_task_DD_L2,2021.2.3,Linux armv7l,30.49245312,,,,,,,,,,1.1285,1,,,,,,,,,,,,,,,0,-0.380721203,-0.290870444,1,0,0,1.1285,button_left_main,-0.380721203,-0.290870444,1,0,0,,0,107,107,100,1,DRIBS,HB,old,z,./images/DRIBSHB.png,,,,,,,,,,,,,,,,,,,,,,,,,,,,,,,,,
,,,,,,,,,,,,,,,,,60d39bc8af5e01b7ab0e1ed5,36,2022-02-12_12h42.12.083,lexical_decision_task_DD_L2,2021.2.3,Linux armv7l,30.49245312,,,,,,,,,,0.7298,1,,,,,,,,,,,,,,,0,0.359916909,-0.317205485,1,0,0,0.7298,button_right_main,0.359916909,-0.317205485,1,0,0,,0,108,108,45,1,KITTEN,HB,old,m,./images/KITTENHB.png,,,,,,,,,,,,,,,,,,,,,,,,,,,,,,,,,
,,,,,,,,,,,,,,,,,60d39bc8af5e01b7ab0e1ed5,36,2022-02-12_12h42.12.083,lexical_decision_task_DD_L2,2021.2.3,Linux armv7l,30.49245312,,,,,,,,,,0.9131,1,,,,,,,,,,,,,,,0,0.359916909,-0.319977547,1,0,0,0.9131,button_right_main,0.359916909,-0.319977547,1,0,0,,0,109,109,50,1,MALLET,C,old,m,./images/MALLET.png,,,,,,,,,,,,,,,,,,,,,,,,,,,,,,,,,
,,,,,,,,,,,,,,,,,60d39bc8af5e01b7ab0e1ed5,36,2022-02-12_12h42.12.083,lexical_decision_task_DD_L2,2021.2.3,Linux armv7l,30.49245312,,,,,,,,,,0.7451,1,,,,,,,,,,,,,,,0,-0.394590841,-0.283940139,1,0,0,0.7451,button_left_main,-0.394590841,-0.283940139,1,0,0,,0,110,110,113,1,LINEW,LB,old,z,./images/LINEWLB.png,,,,,,,,,,,,,,,,,,,,,,,,,,,,,,,,,
,,,,,,,,,,,,,,,,,60d39bc8af5e01b7ab0e1ed5,36,2022-02-12_12h42.12.083,lexical_decision_task_DD_L2,2021.2.3,Linux armv7l,30.49245312,,,,,,,,,,0.6943,1,,,,,,,,,,,,,,,0,0.358529841,-0.335224041,1,0,0,0.6943,button_right_main,0.358529841,-0.335224041,1,0,0,,0,111,111,36,1,THROAT,HB,old,m,./images/THROATHB.png,,,,,,,,,,,,,,,,,,,,,,,,,,,,,,,,,
,,,,,,,,,,,,,,,,,60d39bc8af5e01b7ab0e1ed5,36,2022-02-12_12h42.12.083,lexical_decision_task_DD_L2,2021.2.3,Linux armv7l,30.49245312,,,,,,,,,,0.9019,1,,,,,,,,,,,,,,,0,0.35436908,-0.32274961,1,0,0,0.9019,button_right_main,0.35436908,-0.32274961,1,0,0,,0,112,112,81,1,POODLE,HB,old,m,./images/POODLEHB.png,,,,,,,,,,,,,,,,,,,,,,,,,,,,,,,,,
,,,,,,,,,,,,,,,,,60d39bc8af5e01b7ab0e1ed5,36,2022-02-12_12h42.12.083,lexical_decision_task_DD_L2,2021.2.3,Linux armv7l,30.49245312,,,,,,,,,,1.0729,1,,,,,,,,,,,,,,,0,0.336338451,-0.32274961,1,0,0,1.0729,button_right_main,0.336338451,-0.32274961,1,0,0,,0,113,113,68,1,TORCH,C,old,m,./images/TORCH.png,,,,,,,,,,,,,,,,,,,,,,,,,,,,,,,,,
,,,,,,,,,,,,,,,,,60d39bc8af5e01b7ab0e1ed5,36,2022-02-12_12h42.12.083,lexical_decision_task_DD_L2,2021.2.3,Linux armv7l,30.49245312,,,,,,,,,,0.8084,1,,,,,,,,,,,,,,,0,0.357142995,-0.304731054,1,0,0,0.8084,button_right_main,0.357142995,-0.304731054,1,0,0,,0,114,114,28,1,FALCON,LB,old,m,./images/FALCONLB.png,,,,,,,,,,,,,,,,,,,,,,,,,,,,,,,,,
,,,,,,,,,,,,,,,,,60d39bc8af5e01b7ab0e1ed5,36,2022-02-12_12h42.12.083,lexical_decision_task_DD_L2,2021.2.3,Linux armv7l,30.49245312,,,,,,,,,,0.8031,1,,,,,,,,,,,,,,,0,0.369625647,-0.308889296,1,0,0,0.8031,button_right_main,0.369625647,-0.308889296,1,0,0,,0,115,115,60,1,TWINS,HB,old,m,./images/TWINSHB.png,,,,,,,,,,,,,,,,,,,,,,,,,,,,,,,,,
,,,,,,,,,,,,,,,,,60d39bc8af5e01b7ab0e1ed5,36,2022-02-12_12h42.12.083,lexical_decision_task_DD_L2,2021.2.3,Linux armv7l,30.49245312,,,,,,,,,,0.763,1,,,,,,,,,,,,,,,0,0.346047188,-0.318591516,1,0,0,0.763,button_right_main,0.346047188,-0.318591516,1,0,0,,0,116,116,34,1,CANYON,LB,old,m,./images/CANYONLB.png,,,,,,,,,,,,,,,,,,,,,,,,,,,,,,,,,
,,,,,,,,,,,,,,,,,60d39bc8af5e01b7ab0e1ed5,36,2022-02-12_12h42.12.083,lexical_decision_task_DD_L2,2021.2.3,Linux armv7l,30.49245312,,,,,,,,,,0.6844,1,,,,,,,,,,,,,,,0,-0.398751731,-0.281168077,1,0,0,0.6844,button_left_main,-0.398751731,-0.281168077,1,0,0,,0,117,117,86,1,AIFED,LB,old,z,./images/AIFEDLB.png,,,,,,,,,,,,,,,,,,,,,,,,,,,,,,,,,
,,,,,,,,,,,,,,,,,60d39bc8af5e01b7ab0e1ed5,36,2022-02-12_12h42.12.083,lexical_decision_task_DD_L2,2021.2.3,Linux armv7l,30.49245312,,,,,,,,,,1.3549,0,,,,,,,,,,,,,,,0,-0.398751731,-0.281168077,1,0,0,1.3549,button_left_main,-0.398751731,-0.281168077,1,0,0,,0,118,118,16,1,PENCE,LB,old,m,./images/PENCELB.png,,,,,,,,,,,,,,,,,,,,,,,,,,,,,,,,,
,,,,,,,,,,,,,,,,,60d39bc8af5e01b7ab0e1ed5,36,2022-02-12_12h42.12.083,lexical_decision_task_DD_L2,2021.2.3,Linux armv7l,30.49245312,,,,,,,,,,1.0408,1,,,,,,,,,,,,,,,0,-0.384882103,-0.285326319,1,0,0,1.0408,button_left_main,-0.384882103,-0.285326319,1,0,0,,0,119,119,88,1,GLUSH,HB,old,z,./images/GLUSHHB.png,,,,,,,,,,,,,,,,,,,,,,,,,,,,,,,,,
,,,,,,,,,,,,,,,,,60d39bc8af5e01b7ab0e1ed5,36,2022-02-12_12h42.12.083,lexical_decision_task_DD_L2,2021.2.3,Linux armv7l,30.49245312,,,,,,,,,,0.6656,1,,,,,,,,,,,,,,,0,-0.404299579,-0.281168077,1,0,0,0.6656,button_left_main,-0.404299579,-0.281168077,1,0,0,,0,120,120,149,1,VEASE,LB,old,z,./images/VEASELB.png,,,,,,,,,,,,,,,,,,,,,,,,,,,,,,,,,
,,,,,,,,,,,,,,,,,60d39bc8af5e01b7ab0e1ed5,36,2022-02-12_12h42.12.083,lexical_decision_task_DD_L2,2021.2.3,Linux armv7l,30.49245312,,,,,,,,,,0.6338,1,,,,,,,,,,,,,,,0,0.336338451,-0.346312736,1,0,0,0.6338,button_right_main,0.336338451,-0.346312736,1,0,0,,0,121,121,30,1,STORM,HB,old,m,./images/STORMHB.png,,,,,,,,,,,,,,,,,,,,,,,,,,,,,,,,,
,,,,,,,,,,,,,,,,,60d39bc8af5e01b7ab0e1ed5,36,2022-02-12_12h42.12.083,lexical_decision_task_DD_L2,2021.2.3,Linux armv7l,30.49245312,,,,,,,,,,0.6141,1,,,,,,,,,,,,,,,0,0.334951604,-0.325521821,1,0,0,0.6141,button_right_main,0.334951604,-0.325521821,1,0,0,,0,122,122,40,1,SWING,LB,old,m,./images/SWINGLB.png,,,,,,,,,,,,,,,,,,,,,,,,,,,,,,,,,
,,,,,,,,,,,,,,,,,60d39bc8af5e01b7ab0e1ed5,36,2022-02-12_12h42.12.083,lexical_decision_task_DD_L2,2021.2.3,Linux armv7l,30.49245312,,,,,,,,,,0.7264,1,,,,,,,,,,,,,,,0,-0.402912621,-0.282554108,1,0,0,0.7264,button_left_main,-0.402912621,-0.282554108,1,0,0,,0,123,123,101,1,GLEET,LB,old,z,./images/GLEETLB.png,,,,,,,,,,,,,,,,,,,,,,,,,,,,,,,,,
,,,,,,,,,,,,,,,,,60d39bc8af5e01b7ab0e1ed5,36,2022-02-12_12h42.12.083,lexical_decision_task_DD_L2,2021.2.3,Linux armv7l,30.49245312,,,,,,,,,,0.7763,1,,,,,,,,,,,,,,,0,-0.405686545,-0.279782045,1,0,0,0.7763,button_left_main,-0.405686545,-0.279782045,1,0,0,,0,124,124,163,1,GAMBA,HB,old,z,./images/GAMBAHB.png,,,,,,,,,,,,,,,,,,,,,,,,,,,,,,,,,
,,,,,,,,,,,,,,,,,60d39bc8af5e01b7ab0e1ed5,36,2022-02-12_12h42.12.083,lexical_decision_task_DD_L2,2021.2.3,Linux armv7l,30.49245312,,,,,,,,,,0.8333,1,,,,,,,,,,,,,,,0,-0.402912621,-0.28671235,1,0,0,0.8333,button_left_main,0.097780876,-0.400368552,1,0,0,,0,125,125,112,1,MYING,HB,old,z,./images/MYINGHB.png,break_done_button,,,,,,,,,,,,,,,,,,,,,,,,,,,,,,,,
,,,,,,,,,,,,,,,,,60d39bc8af5e01b7ab0e1ed5,36,2022-02-12_12h42.12.083,lexical_decision_task_DD_L2,2021.2.3,Linux armv7l,30.49245312,,,,,,,,,,0.9259,1,,,,,,,,,,,,,,,0,-0.380721203,-0.283940139,1,0,0,0.9259,button_left_main,-0.380721203,-0.283940139,1,0,0,,0,126,126,140,1,DOVET,LB,old,z,./images/DOVETLB.png,,,,,,,,,,,,,,,,,,,,,,,,,,,,,,,,,
,,,,,,,,,,,,,,,,,60d39bc8af5e01b7ab0e1ed5,36,2022-02-12_12h42.12.083,lexical_decision_task_DD_L2,2021.2.3,Linux armv7l,30.49245312,,,,,,,,,,0.8263,1,,,,,,,,,,,,,,,0,0.358529841,-0.314433422,1,0,0,0.8263,button_right_main,0.358529841,-0.314433422,1,0,0,,0,127,127,13,1,MOTOR,LB,old,m,./images/MOTORLB.png,,,,,,,,,,,,,,,,,,,,,,,,,,,,,,,,,
,,,,,,,,,,,,,,,,,60d39bc8af5e01b7ab0e1ed5,36,2022-02-12_12h42.12.083,lexical_decision_task_DD_L2,2021.2.3,Linux armv7l,30.49245312,,,,,,,,,,0.6511,1,,,,,,,,,,,,,,,0,-0.408460469,-0.313047242,1,0,0,0.6511,button_left_main,-0.408460469,-0.313047242,1,0,0,,0,128,128,119,1,PAFER,LB,old,z,./images/PAFERLB.png,,,,,,,,,,,,,,,,,,,,,,,,,,,,,,,,,
,,,,,,,,,,,,,,,,,60d39bc8af5e01b7ab0e1ed5,36,2022-02-12_12h42.12.083,lexical_decision_task_DD_L2,2021.2.3,Linux armv7l,30.49245312,,,,,,,,,,0.6289,1,,,,,,,,,,,,,,,0,-0.414008316,-0.308889296,1,0,0,0.6289,button_left_main,-0.414008316,-0.308889296,1,0,0,,0,129,129,150,1,NOOLS,C,old,z,./images/NOOLS.png,,,,,,,,,,,,,,,,,,,,,,,,,,,,,,,,,
,,,,,,,,,,,,,,,,,60d39bc8af5e01b7ab0e1ed5,36,2022-02-12_12h42.12.083,lexical_decision_task_DD_L2,2021.2.3,Linux armv7l,30.49245312,,,,,,,,,,0.7109,1,,,,,,,,,,,,,,,0,0.369625647,-0.321363579,1,0,0,0.7109,button_right_main,0.369625647,-0.321363579,1,0,0,,0,130,130,82,1,SUNSET,LB,old,m,./images/SUNSETLB.png,,,,,,,,,,,,,,,,,,,,,,,,,,,,,,,,,
,,,,,,,,,,,,,,,,,60d39bc8af5e01b7ab0e1ed5,36,2022-02-12_12h42.12.083,lexical_decision_task_DD_L2,2021.2.3,Linux armv7l,30.49245312,,,,,,,,,,0.7929,1,,,,,,,,,,,,,,,0,0.373786556,-0.318591516,1,0,0,0.7929,button_right_main,0.373786556,-0.318591516,1,0,0,,0,131,131,48,1,SPORT,HB,old,m,./images/SPORTHB.png,,,,,,,,,,,,,,,,,,,,,,,,,,,,,,,,,
,,,,,,,,,,,,,,,,,60d39bc8af5e01b7ab0e1ed5,36,2022-02-12_12h42.12.083,lexical_decision_task_DD_L2,2021.2.3,Linux armv7l,30.49245312,,,,,,,,,,0.6584,1,,,,,,,,,,,,,,,0,0.365464664,-0.333838009,1,0,0,0.6584,button_right_main,0.365464664,-0.333838009,1,0,0,,0,132,132,4,1,MUSCLE,LB,old,m,./images/MUSCLELB.png,,,,,,,,,,,,,,,,,,,,,,,,,,,,,,,,,
,,,,,,,,,,,,,,,,,60d39bc8af5e01b7ab0e1ed5,36,2022-02-12_12h42.12.083,lexical_decision_task_DD_L2,2021.2.3,Linux armv7l,30.49245312,,,,,,,,,,0.7166,1,,,,,,,,,,,,,,,0,-0.404299579,-0.283940139,1,0,0,0.7166,button_left_main,-0.404299579,-0.283940139,1,0,0,,0,133,133,167,1,ZONET,LB,old,z,./images/ZONETLB.png,,,,,,,,,,,,,,,,,,,,,,,,,,,,,,,,,
,,,,,,,,,,,,,,,,,60d39bc8af5e01b7ab0e1ed5,36,2022-02-12_12h42.12.083,lexical_decision_task_DD_L2,2021.2.3,Linux armv7l,30.49245312,,,,,,,,,,0.8837,1,,,,,,,,,,,,,,,0,-0.394590841,-0.308889296,1,0,0,0.8837,button_left_main,-0.394590841,-0.308889296,1,0,0,,0,134,134,115,1,MAWNS,HB,old,z,./images/MAWNSHB.png,,,,,,,,,,,,,,,,,,,,,,,,,,,,,,,,,
,,,,,,,,,,,,,,,,,60d39bc8af5e01b7ab0e1ed5,36,2022-02-12_12h42.12.083,lexical_decision_task_DD_L2,2021.2.3,Linux armv7l,30.49245312,,,,,,,,,,0.8303,1,,,,,,,,,,,,,,,0,0.352982012,-0.314433422,1,0,0,0.8303,button_right_main,0.352982012,-0.314433422,1,0,0,,0,135,135,61,1,CANDLE,LB,old,m,./images/CANDLELB.png,,,,,,,,,,,,,,,,,,,,,,,,,,,,,,,,,
,,,,,,,,,,,,,,,,,60d39bc8af5e01b7ab0e1ed5,36,2022-02-12_12h42.12.083,lexical_decision_task_DD_L2,2021.2.3,Linux armv7l,30.49245312,,,,,,,,,,1.1859,1,,,,,,,,,,,,,,,0,-0.397364755,-0.289484413,1,0,0,1.1859,button_left_main,-0.397364755,-0.289484413,1,0,0,,0,136,136,98,1,BAMPS,LB,old,z,./images/BAMPSLB.png,,,,,,,,,,,,,,,,,,,,,,,,,,,,,,,,,
,,,,,,,,,,,,,,,,,60d39bc8af5e01b7ab0e1ed5,36,2022-02-12_12h42.12.083,lexical_decision_task_DD_L2,2021.2.3,Linux armv7l,30.49245312,,,,,,,,,,1.0975,1,,,,,,,,,,,,,,,0,-0.404299579,-0.285326319,1,0,0,1.0975,button_left_main,-0.404299579,-0.285326319,1,0,0,,0,137,137,133,1,POWDY,HB,old,z,./images/POWDYHB.png,,,,,,,,,,,,,,,,,,,,,,,,,,,,,,,,,
,,,,,,,,,,,,,,,,,60d39bc8af5e01b7ab0e1ed5,36,2022-02-12_12h42.12.083,lexical_decision_task_DD_L2,2021.2.3,Linux armv7l,30.49245312,,,,,,,,,,0.7779,1,,,,,,,,,,,,,,,0,0.358529841,-0.318591516,1,0,0,0.7779,button_right_main,0.358529841,-0.318591516,1,0,0,,0,138,138,44,1,LIZARD,C,old,m,./images/LIZARD.png,,,,,,,,,,,,,,,,,,,,,,,,,,,,,,,,,
,,,,,,,,,,,,,,,,,60d39bc8af5e01b7ab0e1ed5,36,2022-02-12_12h42.12.083,lexical_decision_task_DD_L2,2021.2.3,Linux armv7l,30.49245312,,,,,,,,,,0.7915,1,,,,,,,,,,,,,,,0,0.371012493,-0.307503117,1,0,0,0.7915,button_right_main,0.371012493,-0.307503117,1,0,0,,0,139,139,29,1,CRUMB,C,old,m,./images/CRUMB.png,,,,,,,,,,,,,,,,,,,,,,,,,,,,,,,,,
,,,,,,,,,,,,,,,,,60d39bc8af5e01b7ab0e1ed5,36,2022-02-12_12h42.12.083,lexical_decision_task_DD_L2,2021.2.3,Linux armv7l,30.49245312,,,,,,,,,,0.8266,1,,,,,,,,,,,,,,,0,0.359916909,-0.32274961,1,0,0,0.8266,button_right_main,0.359916909,-0.32274961,1,0,0,,0,140,140,75,1,GRAIN,HB,old,m,./images/GRAINHB.png,,,,,,,,,,,,,,,,,,,,,,,,,,,,,,,,,
,,,,,,,,,,,,,,,,,60d39bc8af5e01b7ab0e1ed5,36,2022-02-12_12h42.12.083,lexical_decision_task_DD_L2,2021.2.3,Linux armv7l,30.49245312,,,,,,,,,,1.3411,1,,,,,,,,,,,,,,,0,-0.37794728,-0.278396014,1,0,0,1.3411,button_left_main,-0.37794728,-0.278396014,1,0,0,,0,141,141,136,1,WERVE,HB,old,z,./images/WERVEHB.png,,,,,,,,,,,,,,,,,,,,,,,,,,,,,,,,,
,,,,,,,,,,,,,,,,,60d39bc8af5e01b7ab0e1ed5,36,2022-02-12_12h42.12.083,lexical_decision_task_DD_L2,2021.2.3,Linux armv7l,30.49245312,,,,,,,,,,0.6952,1,,,,,,,,,,,,,,,0,-0.390429941,-0.278396014,1,0,0,0.6952,button_left_main,-0.390429941,-0.278396014,1,0,0,,0,142,142,143,1,MONGS,LB,old,z,./images/MONGSLB.png,,,,,,,,,,,,,,,,,,,,,,,,,,,,,,,,,
,,,,,,,,,,,,,,,,,60d39bc8af5e01b7ab0e1ed5,36,2022-02-12_12h42.12.083,lexical_decision_task_DD_L2,2021.2.3,Linux armv7l,30.49245312,,,,,,,,,,0.6947,1,,,,,,,,,,,,,,,0,0.355755926,-0.328293884,1,0,0,0.6947,button_right_main,0.355755926,-0.328293884,1,0,0,,0,143,143,35,1,PEACH,C,old,m,./images/PEACH.png,,,,,,,,,,,,,,,,,,,,,,,,,,,,,,,,,
,,,,,,,,,,,,,,,,,60d39bc8af5e01b7ab0e1ed5,36,2022-02-12_12h42.12.083,lexical_decision_task_DD_L2,2021.2.3,Linux armv7l,30.49245312,,,,,,,,,,0.7512,1,,,,,,,,,,,,,,,0,0.359916909,-0.314433422,1,0,0,0.7512,button_right_main,0.359916909,-0.314433422,1,0,0,,0,144,144,5,1,PASTA,C,old,m,./images/PASTA.png,,,,,,,,,,,,,,,,,,,,,,,,,,,,,,,,,
,,,,,,,,,,,,,,,,,60d39bc8af5e01b7ab0e1ed5,36,2022-02-12_12h42.12.083,lexical_decision_task_DD_L2,2021.2.3,Linux armv7l,30.49245312,,,,,,,,,,0.9535,1,,,,,,,,,,,,,,,0,0.351595018,-0.321363579,1,0,0,0.9535,button_right_main,0.351595018,-0.321363579,1,0,0,,0,145,145,3,1,FINGER,HB,old,m,./images/FINGERHB.png,,,,,,,,,,,,,,,,,,,,,,,,,,,,,,,,,
,,,,,,,,,,,,,,,,,60d39bc8af5e01b7ab0e1ed5,36,2022-02-12_12h42.12.083,lexical_decision_task_DD_L2,2021.2.3,Linux armv7l,30.49245312,,,,,,,,,,1.128,1,,,,,,,,,,,,,,,0,-0.37794728,-0.28671235,1,0,0,1.128,button_left_main,-0.37794728,-0.28671235,1,0,0,,0,146,146,121,1,CEERS,HB,old,z,./images/CEERSHB.png,,,,,,,,,,,,,,,,,,,,,,,,,,,,,,,,,
,,,,,,,,,,,,,,,,,60d39bc8af5e01b7ab0e1ed5,36,2022-02-12_12h42.12.083,lexical_decision_task_DD_L2,2021.2.3,Linux armv7l,30.49245312,,,,,,,,,,0.7336,1,,,,,,,,,,,,,,,0,-0.394590841,-0.288098382,1,0,0,0.7336,button_left_main,-0.394590841,-0.288098382,1,0,0,,0,147,147,122,1,BLOOT,LB,old,z,./images/BLOOTLB.png,,,,,,,,,,,,,,,,,,,,,,,,,,,,,,,,,
,,,,,,,,,,,,,,,,,60d39bc8af5e01b7ab0e1ed5,36,2022-02-12_12h42.12.083,lexical_decision_task_DD_L2,2021.2.3,Linux armv7l,30.49245312,,,,,,,,,,1.7039,0,,,,,,,,,,,,,,,0,0.347434257,-0.317205485,1,0,0,1.7039,button_right_main,0.347434257,-0.317205485,1,0,0,,0,148,148,142,1,PLASK,HB,old,z,./images/PLASKHB.png,,,,,,,,,,,,,,,,,,,,,,,,,,,,,,,,,
,,,,,,,,,,,,,,,,,60d39bc8af5e01b7ab0e1ed5,36,2022-02-12_12h42.12.083,lexical_decision_task_DD_L2,2021.2.3,Linux armv7l,30.49245312,,,,,,,,,,0.9127,1,,,,,,,,,,,,,,,0,-0.387656017,-0.295028538,1,0,0,0.9127,button_left_main,-0.387656017,-0.295028538,1,0,0,,0,149,149,131,1,NACES,LB,old,z,./images/NACESLB.png,,,,,,,,,,,,,,,,,,,,,,,,,,,,,,,,,
,,,,,,,,,,,,,,,,,60d39bc8af5e01b7ab0e1ed5,36,2022-02-12_12h42.12.083,lexical_decision_task_DD_L2,2021.2.3,Linux armv7l,30.49245312,,,,,,,,,,0.7876,1,,,,,,,,,,,,,,,0,0.347434257,-0.329679767,1,0,0,0.7876,button_right_main,0.347434257,-0.329679767,1,0,0,,0,150,150,46,1,PEARL,LB,old,m,./images/PEARLLB.png,,,,,,,,,,,,,,,,,,,,,,,,,,,,,,,,,
,,,,,,,,,,,,,,,,,60d39bc8af5e01b7ab0e1ed5,36,2022-02-12_12h42.12.083,lexical_decision_task_DD_L2,2021.2.3,Linux armv7l,30.49245312,,,,,,,,,,1.1944,1,,,,,,,,,,,,,,,0,0.334951604,-0.307503117,1,0,0,1.1944,button_right_main,0.334951604,-0.307503117,1,0,0,,0,151,151,59,1,BURIAL,C,old,m,./images/BURIAL.png,,,,,,,,,,,,,,,,,,,,,,,,,,,,,,,,,
,,,,,,,,,,,,,,,,,60d39bc8af5e01b7ab0e1ed5,36,2022-02-12_12h42.12.083,lexical_decision_task_DD_L2,2021.2.3,Linux armv7l,30.49245312,,,,,,,,,,0.6946,1,,,,,,,,,,,,,,,0,0.337725519,-0.318591516,1,0,0,0.6946,button_right_main,0.337725519,-0.318591516,1,0,0,,0,152,152,62,1,PURSE,C,old,m,./images/PURSE.png,,,,,,,,,,,,,,,,,,,,,,,,,,,,,,,,,
,,,,,,,,,,,,,,,,,60d39bc8af5e01b7ab0e1ed5,36,2022-02-12_12h42.12.083,lexical_decision_task_DD_L2,2021.2.3,Linux armv7l,30.49245312,,,,,,,,,,0.8805,1,,,,,,,,,,,,,,,0,0.334951604,-0.32274961,1,0,0,0.8805,button_right_main,0.334951604,-0.32274961,1,0,0,,0,153,153,21,1,KIDNEY,HB,old,m,./images/KIDNEYHB.png,,,,,,,,,,,,,,,,,,,,,,,,,,,,,,,,,
,,,,,,,,,,,,,,,,,60d39bc8af5e01b7ab0e1ed5,36,2022-02-12_12h42.12.083,lexical_decision_task_DD_L2,2021.2.3,Linux armv7l,30.49245312,,,,,,,,,,1.0718,0,,,,,,,,,,,,,,,0,-0.373786389,-0.293642507,1,0,0,1.0718,button_left_main,-0.373786389,-0.293642507,1,0,0,,0,154,154,33,1,MAGGOT,HB,old,m,./images/MAGGOTHB.png,,,,,,,,,,,,,,,,,,,,,,,,,,,,,,,,,
,,,,,,,,,,,,,,,,,60d39bc8af5e01b7ab0e1ed5,36,2022-02-12_12h42.12.083,lexical_decision_task_DD_L2,2021.2.3,Linux armv7l,30.49245312,,,,,,,,,,0.7337,1,,,,,,,,,,,,,,,0,-0.387656017,-0.288098382,1,0,0,0.7337,button_left_main,-0.387656017,-0.288098382,1,0,0,,0,155,155,123,1,SEDGE,C,old,z,./images/SEDGE.png,,,,,,,,,,,,,,,,,,,,,,,,,,,,,,,,,
,,,,,,,,,,,,,,,,,60d39bc8af5e01b7ab0e1ed5,36,2022-02-12_12h42.12.083,lexical_decision_task_DD_L2,2021.2.3,Linux armv7l,30.49245312,,,,,,,,,,0.6497,1,,,,,,,,,,,,,,,0,-0.37794728,-0.295028538,1,0,0,0.6497,button_left_main,-0.37794728,-0.295028538,1,0,0,,0,156,156,114,1,RIKES,C,old,z,./images/RIKES.png,,,,,,,,,,,,,,,,,,,,,,,,,,,,,,,,,
,,,,,,,,,,,,,,,,,60d39bc8af5e01b7ab0e1ed5,36,2022-02-12_12h42.12.083,lexical_decision_task_DD_L2,2021.2.3,Linux armv7l,30.49245312,,,,,,,,,,0.5983,1,,,,,,,,,,,,,,,0,-0.390429941,-0.28671235,1,0,0,0.5983,button_left_main,-0.390429941,-0.28671235,1,0,0,,0,157,157,89,1,DRIEK,LB,old,z,./images/DRIEKLB.png,,,,,,,,,,,,,,,,,,,,,,,,,,,,,,,,,
,,,,,,,,,,,,,,,,,60d39bc8af5e01b7ab0e1ed5,36,2022-02-12_12h42.12.083,lexical_decision_task_DD_L2,2021.2.3,Linux armv7l,30.49245312,,,,,,,,,,0.8462,1,,,,,,,,,,,,,,,0,0.333564536,-0.326907704,1,0,0,0.8462,button_right_main,0.333564536,-0.326907704,1,0,0,,0,158,158,26,1,SMOKER,C,old,m,./images/SMOKER.png,,,,,,,,,,,,,,,,,,,,,,,,,,,,,,,,,
,,,,,,,,,,,,,,,,,60d39bc8af5e01b7ab0e1ed5,36,2022-02-12_12h42.12.083,lexical_decision_task_DD_L2,2021.2.3,Linux armv7l,30.49245312,,,,,,,,,,0.8174,1,,,,,,,,,,,,,,,0,0.344660342,-0.299186929,1,0,0,0.8174,button_right_main,0.344660342,-0.299186929,1,0,0,,0,159,159,64,1,JELLY,LB,old,m,./images/JELLYLB.png,,,,,,,,,,,,,,,,,,,,,,,,,,,,,,,,,
,,,,,,,,,,,,,,,,,60d39bc8af5e01b7ab0e1ed5,36,2022-02-12_12h42.12.083,lexical_decision_task_DD_L2,2021.2.3,Linux armv7l,30.49245312,,,,,,,,,,1.1899,1,,,,,,,,,,,,,,,0,0.346047188,-0.29641457,1,0,0,1.1899,button_right_main,0.346047188,-0.29641457,1,0,0,,0,160,160,79,1,CRUST,LB,old,m,./images/CRUSTLB.png,,,,,,,,,,,,,,,,,,,,,,,,,,,,,,,,,
,,,,,,,,,,,,,,,,,60d39bc8af5e01b7ab0e1ed5,36,2022-02-12_12h42.12.083,lexical_decision_task_DD_L2,2021.2.3,Linux armv7l,30.49245312,,,,,,,,,,0.7432,1,,,,,,,,,,,,,,,0,0.336338451,-0.303345171,1,0,0,0.7432,button_right_main,0.336338451,-0.303345171,1,0,0,,0,161,161,83,1,JUNGLE,C,old,m,./images/JUNGLE.png,,,,,,,,,,,,,,,,,,,,,,,,,,,,,,,,,
,,,,,,,,,,,,,,,,,60d39bc8af5e01b7ab0e1ed5,36,2022-02-12_12h42.12.083,lexical_decision_task_DD_L2,2021.2.3,Linux armv7l,30.49245312,,,,,,,,,,1.3062,1,,,,,,,,,,,,,,,0,-0.372399441,-0.289484413,1,0,0,1.3062,button_left_main,-0.372399441,-0.289484413,1,0,0,,0,162,162,151,1,TINKY,HB,old,z,./images/TINKYHB.png,,,,,,,,,,,,,,,,,,,,,,,,,,,,,,,,,
,,,,,,,,,,,,,,,,,60d39bc8af5e01b7ab0e1ed5,36,2022-02-12_12h42.12.083,lexical_decision_task_DD_L2,2021.2.3,Linux armv7l,30.49245312,,,,,,,,,,0.6658,1,,,,,,,,,,,,,,,0,0.332177542,-0.311661359,1,0,0,0.6658,button_right_main,0.332177542,-0.311661359,1,0,0,,0,163,163,22,1,MELON,LB,old,m,./images/MELONLB.png,,,,,,,,,,,,,,,,,,,,,,,,,,,,,,,,,
,,,,,,,,,,,,,,,,,60d39bc8af5e01b7ab0e1ed5,36,2022-02-12_12h42.12.083,lexical_decision_task_DD_L2,2021.2.3,Linux armv7l,30.49245312,,,,,,,,,,0.7304,1,,,,,,,,,,,,,,,0,-0.390429941,-0.288098382,1,0,0,0.7304,button_left_main,-0.390429941,-0.288098382,1,0,0,,0,164,164,95,1,HANTY,LB,old,z,./images/HANTYLB.png,,,,,,,,,,,,,,,,,,,,,,,,,,,,,,,,,
,,,,,,,,,,,,,,,,,60d39bc8af5e01b7ab0e1ed5,36,2022-02-12_12h42.12.083,lexical_decision_task_DD_L2,2021.2.3,Linux armv7l,30.49245312,,,,,,,,,,1.0603,1,,,,,,,,,,,,,,,0,-0.394590841,-0.283940139,1,0,0,1.0603,button_left_main,-0.394590841,-0.283940139,1,0,0,,0,165,165,156,1,HIXES,C,old,z,./images/HIXES.png,,,,,,,,,,,,,,,,,,,,,,,,,,,,,,,,,
,,,,,,,,,,,,,,,,,60d39bc8af5e01b7ab0e1ed5,36,2022-02-12_12h42.12.083,lexical_decision_task_DD_L2,2021.2.3,Linux armv7l,30.49245312,,,,,,,,,,2.0785,1,,,,,,,,,,,,,,,0,-0.366851575,-0.293642507,1,0,0,2.0785,button_left_main,-0.366851575,-0.293642507,1,0,0,,0,166,166,157,1,INLER,HB,old,z,./images/INLERHB.png,,,,,,,,,,,,,,,,,,,,,,,,,,,,,,,,,
,,,,,,,,,,,,,,,,,60d39bc8af5e01b7ab0e1ed5,36,2022-02-12_12h42.12.083,lexical_decision_task_DD_L2,2021.2.3,Linux armv7l,30.49245312,,,,,,,,,,0.8986,1,,,,,,,,,,,,,,,0,-0.390429941,-0.279782045,1,0,0,0.8986,button_left_main,-0.390429941,-0.279782045,1,0,0,,0,167,167,111,1,HOSSE,C,old,z,./images/HOSSE.png,,,,,,,,,,,,,,,,,,,,,,,,,,,,,,,,,
,,,,,,,,,,,,,,,,,60d39bc8af5e01b7ab0e1ed5,36,2022-02-12_12h42.12.083,lexical_decision_task_DD_L2,2021.2.3,Linux armv7l,30.49245312,,,,,,,,,,,,,,,,,,,,,,,,,,,,,,,,,,,,,,,,,,,,,,How likely will it be that you will recognize the words presented slighly blurred on a scale of 0 (not likely) to 100 (most likely)?,,,,,-0.017337021,-0.42115917,1,0,0,jol_adv,4,5.5235,0,0,0,1,1,,,,,,,,,,,,,,,,,,,
,,,,,,,,,,,,,,,,,60d39bc8af5e01b7ab0e1ed5,36,2022-02-12_12h42.12.083,lexical_decision_task_DD_L2,2021.2.3,Linux armv7l,30.49245312,,,,,,,,,,,,,,,,,,,,,,,,,,,,,,,,,,,,,,,,,,,,,,How likely will it be that you will recognize the words presented clearly on a scale of 0 (not likely) to 100 (most likely)?,,,,,,,,,,,4,0.9489,0,1,1,0,1,,,,,,,,,,,,,,,,,,,
,,,,,,,,,,,,,,,,,60d39bc8af5e01b7ab0e1ed5,36,2022-02-12_12h42.12.083,lexical_decision_task_DD_L2,2021.2.3,Linux armv7l,30.49245312,,,,,,,,,,,,,,,,,,,,,,,,,,,,,,,,,,,,,,,,,,,,,,How likely will it be that you will recognize the words presented very blurred on a scale of 0 (not likely) to 100 (most likely)?,,,,,,,,,,,4,5.7765,0,2,2,2,1,,,,,,,,,,,,,,,,,,,
,0.083911303,-0.392052363,1,0,0,instr_done_button,,,,,,1,test,"In the next phase you will be presented with the words from the the first phase. Your job is to decide whether you remember seeing the word or not. If you remember seeing the word press ""old"" or type ""m"". If you do not remember seeing the word press ""new"" or type ""z"". Please press the space bar or click on continue to begin. ",,,60d39bc8af5e01b7ab0e1ed5,36,2022-02-12_12h42.12.083,lexical_decision_task_DD_L2,2021.2.3,Linux armv7l,30.49245312,,,,,,,,,,,,,,,,,,,,,,,,,,,,,,,,,,,,,,,,,,,,,,,,,,,,,,,,,,,,,,,,0,0,0,0,1,,,,,,,,,,,,,,
,0.010402235,-0.390666184,1,0,0,instr_done_button,,,,,,1,test,"In the next phase you will be presented with the words from the the first phase. Your job is to decide whether you remember seeing the word or not. If you remember seeing the word press ""old"" or type ""m"". If you do not remember seeing the word press ""new"" or type ""z"". Please press the space bar or click on continue to begin. ",,,60d39bc8af5e01b7ab0e1ed5,36,2022-02-12_12h42.12.083,lexical_decision_task_DD_L2,2021.2.3,Linux armv7l,30.49245312,,,,,,,,,,,,,,,,,,,,,,,,,,,,,,,,,,,,,,,,,,,,,,,,,,,,,,,,,,,,,,,,1,0,1,0,1,,,,,,,,,,,,,,
,0.027045833,-0.374033511,1,0,0,instr_done_button,,,,,,1,test,"In the next phase you will be presented with the words from the the first phase. Your job is to decide whether you remember seeing the word or not. If you remember seeing the word press ""old"" or type ""m"". If you do not remember seeing the word press ""new"" or type ""z"". Please press the space bar or click on continue to begin. ",,,60d39bc8af5e01b7ab0e1ed5,36,2022-02-12_12h42.12.083,lexical_decision_task_DD_L2,2021.2.3,Linux armv7l,30.49245312,,,,,,,,,,,,,,,,,,,,,,,,,,,,,,,,,,,,,,,,,,,,,,,,,,,,,,,,,,,,,,,,2,0,2,0,1,,,,,,,,,,,,,,
,0.0062414,-0.375419543,1,0,0,instr_done_button,,,,,,1,test,"In the next phase you will be presented with the words from the the first phase. Your job is to decide whether you remember seeing the word or not. If you remember seeing the word press ""old"" or type ""m"". If you do not remember seeing the word press ""new"" or type ""z"". Please press the space bar or click on continue to begin. ",,,60d39bc8af5e01b7ab0e1ed5,36,2022-02-12_12h42.12.083,lexical_decision_task_DD_L2,2021.2.3,Linux armv7l,30.49245312,,,,,,,,,,,,,,,,,,,,,,,,,,,,,,,,,,,,,,,,,,,,,,,,,,,,,,,,,,,,,,,,3,0,3,0,1,,,,,,,,,,,,,,
,-0.011789118,-0.397596489,1,0,0,instr_done_button,,,,,,1,test,"In the next phase you will be presented with the words from the the first phase. Your job is to decide whether you remember seeing the word or not. If you remember seeing the word press ""old"" or type ""m"". If you do not remember seeing the word press ""new"" or type ""z"". Please press the space bar or click on continue to begin. ",,,60d39bc8af5e01b7ab0e1ed5,36,2022-02-12_12h42.12.083,lexical_decision_task_DD_L2,2021.2.3,Linux armv7l,30.49245312,,,,,,,,,,,,,,,,,,,,,,,,,,,,,,,,,,,,,,,,,,,,,,,,,,,,,,,,,,,,,,,,4,0,4,0,1,,,,,,,,,,,,,,
,,,,,,,,,,,,,,,,,60d39bc8af5e01b7ab0e1ed5,36,2022-02-12_12h42.12.083,lexical_decision_task_DD_L2,2021.2.3,Linux armv7l,30.49245312,,,,,,,,,,5.0926,1,,,,,,,,,,,,,,,,,,,,,,,-0.354368914,-0.27423792,1,0,0,,,,,,,DESERT,LB,z,y,./images/DESERTLB.png,,,,,,,,,,,,,,,,,,,,,0,-0.354368914,-0.27423792,1,0,0,5.0926,button_left_test,0,0,0,136,1
,,,,,,,,,,,,,,,,,60d39bc8af5e01b7ab0e1ed5,36,2022-02-12_12h42.12.083,lexical_decision_task_DD_L2,2021.2.3,Linux armv7l,30.49245312,,,,,,,,,,1.2663,1,,,,,,,,,,,,,,,,,,,,,,,0.337725519,-0.314433422,1,0,0,,,,,,,DRUMS,LB,m,y,./images/DRUMSLB.png,,,,,,,,,,,,,,,,,,,,,0,0.337725519,-0.314433422,1,0,0,1.2663,button_right_test,0,1,1,49,1
,,,,,,,,,,,,,,,,,60d39bc8af5e01b7ab0e1ed5,36,2022-02-12_12h42.12.083,lexical_decision_task_DD_L2,2021.2.3,Linux armv7l,30.49245312,,,,,,,,,,0.8887,1,,,,,,,,,,,,,,,,,,,,,,,-0.425104021,-0.315819453,1,0,0,,,,,,,CLOUD,C,z,y,./images/CLOUD.png,,,,,,,,,,,,,,,,,,,,,0,-0.425104021,-0.315819453,1,0,0,0.8887,button_left_test,0,2,2,110,1
,,,,,,,,,,,,,,,,,60d39bc8af5e01b7ab0e1ed5,36,2022-02-12_12h42.12.083,lexical_decision_task_DD_L2,2021.2.3,Linux armv7l,30.49245312,,,,,,,,,,0.7257,1,,,,,,,,,,,,,,,,,,,,,,,-0.425104021,-0.30057296,1,0,0,,,,,,,SLOPE,HB,z,y,./images/SLOPEHB.png,,,,,,,,,,,,,,,,,,,,,0,-0.425104021,-0.30057296,1,0,0,0.7257,button_left_test,0,3,3,114,1
,,,,,,,,,,,,,,,,,60d39bc8af5e01b7ab0e1ed5,36,2022-02-12_12h42.12.083,lexical_decision_task_DD_L2,2021.2.3,Linux armv7l,30.49245312,,,,,,,,,,1.4383,0,,,,,,,,,,,,,,,,,,,,,,,0.36269075,-0.293642507,1,0,0,,,,,,,JUMPER,C,z,y,./images/JUMPER.png,,,,,,,,,,,,,,,,,,,,,0,0.36269075,-0.293642507,1,0,0,1.4383,button_right_test,0,4,4,158,1
,,,,,,,,,,,,,,,,,60d39bc8af5e01b7ab0e1ed5,36,2022-02-12_12h42.12.083,lexical_decision_task_DD_L2,2021.2.3,Linux armv7l,30.49245312,,,,,,,,,,0.857,1,,,,,,,,,,,,,,,,,,,,,,,0.375173402,-0.297800897,1,0,0,,,,,,,TWINS,HB,m,y,./images/TWINSHB.png,,,,,,,,,,,,,,,,,,,,,0,0.375173402,-0.297800897,1,0,0,0.857,button_right_test,0,5,5,60,1
,,,,,,,,,,,,,,,,,60d39bc8af5e01b7ab0e1ed5,36,2022-02-12_12h42.12.083,lexical_decision_task_DD_L2,2021.2.3,Linux armv7l,30.49245312,,,,,,,,,,0.692,1,,,,,,,,,,,,,,,,,,,,,,,0.382108225,-0.30057296,1,0,0,,,,,,,PIMPLE,C,m,y,./images/PIMPLE.png,,,,,,,,,,,,,,,,,,,,,0,0.382108225,-0.30057296,1,0,0,0.692,button_right_test,0,6,6,71,1
,,,,,,,,,,,,,,,,,60d39bc8af5e01b7ab0e1ed5,36,2022-02-12_12h42.12.083,lexical_decision_task_DD_L2,2021.2.3,Linux armv7l,30.49245312,,,,,,,,,,0.7067,1,,,,,,,,,,,,,,,,,,,,,,,0.372399488,-0.306117234,1,0,0,,,,,,,LITTER,HB,m,y,./images/LITTERHB.png,,,,,,,,,,,,,,,,,,,,,0,0.372399488,-0.306117234,1,0,0,0.7067,button_right_test,0,7,7,78,1
,,,,,,,,,,,,,,,,,60d39bc8af5e01b7ab0e1ed5,36,2022-02-12_12h42.12.083,lexical_decision_task_DD_L2,2021.2.3,Linux armv7l,30.49245312,,,,,,,,,,1.4815,0,,,,,,,,,,,,,,,,,,,,,,,0.346047188,-0.299186929,1,0,0,,,,,,,CHALK,LB,z,y,./images/CHALKLB.png,,,,,,,,,,,,,,,,,,,,,0,0.346047188,-0.299186929,1,0,0,1.4815,button_right_test,0,8,8,109,1
,,,,,,,,,,,,,,,,,60d39bc8af5e01b7ab0e1ed5,36,2022-02-12_12h42.12.083,lexical_decision_task_DD_L2,2021.2.3,Linux armv7l,30.49245312,,,,,,,,,,0.912,0,,,,,,,,,,,,,,,,,,,,,,,0.364077818,-0.333838009,1,0,0,,,,,,,DIVER,HB,z,y,./images/DIVERHB.png,,,,,,,,,,,,,,,,,,,,,0,0.364077818,-0.333838009,1,0,0,0.912,button_right_test,0,9,9,93,1
,,,,,,,,,,,,,,,,,60d39bc8af5e01b7ab0e1ed5,36,2022-02-12_12h42.12.083,lexical_decision_task_DD_L2,2021.2.3,Linux armv7l,30.49245312,,,,,,,,,,0.8098,1,,,,,,,,,,,,,,,,,,,,,,,-0.37794728,-0.282554108,1,0,0,,,,,,,GRANNY,C,z,y,./images/GRANNY.png,,,,,,,,,,,,,,,,,,,,,0,-0.37794728,-0.282554108,1,0,0,0.8098,button_left_test,0,10,10,104,1
,,,,,,,,,,,,,,,,,60d39bc8af5e01b7ab0e1ed5,36,2022-02-12_12h42.12.083,lexical_decision_task_DD_L2,2021.2.3,Linux armv7l,30.49245312,,,,,,,,,,0.8567,0,,,,,,,,,,,,,,,,,,,,,,,0.35436908,-0.301958991,1,0,0,,,,,,,ALLEY,LB,z,y,./images/ALLEYLB.png,,,,,,,,,,,,,,,,,,,,,0,0.35436908,-0.301958991,1,0,0,0.8567,button_right_test,0,11,11,139,1
,,,,,,,,,,,,,,,,,60d39bc8af5e01b7ab0e1ed5,36,2022-02-12_12h42.12.083,lexical_decision_task_DD_L2,2021.2.3,Linux armv7l,30.49245312,,,,,,,,,,0.7576,1,,,,,,,,,,,,,,,,,,,,,,,0.357142995,-0.335224041,1,0,0,,,,,,,STRING,C,m,y,./images/STRING.png,,,,,,,,,,,,,,,,,,,,,0,0.357142995,-0.335224041,1,0,0,0.7576,button_right_test,0,12,12,41,1
,,,,,,,,,,,,,,,,,60d39bc8af5e01b7ab0e1ed5,36,2022-02-12_12h42.12.083,lexical_decision_task_DD_L2,2021.2.3,Linux armv7l,30.49245312,,,,,,,,,,0.7467,1,,,,,,,,,,,,,,,,,,,,,,,0.357142995,-0.307503117,1,0,0,,,,,,,MOTOR,LB,m,y,./images/MOTORLB.png,,,,,,,,,,,,,,,,,,,,,0,0.357142995,-0.307503117,1,0,0,0.7467,button_right_test,0,13,13,13,1
,,,,,,,,,,,,,,,,,60d39bc8af5e01b7ab0e1ed5,36,2022-02-12_12h42.12.083,lexical_decision_task_DD_L2,2021.2.3,Linux armv7l,30.49245312,,,,,,,,,,0.8752,0,,,,,,,,,,,,,,,,,,,,,,,0.343273274,-0.332451978,1,0,0,,,,,,,PILOT,C,z,y,./images/PILOT.png,,,,,,,,,,,,,,,,,,,,,0,0.343273274,-0.332451978,1,0,0,0.8752,button_right_test,0,14,14,134,1
,,,,,,,,,,,,,,,,,60d39bc8af5e01b7ab0e1ed5,36,2022-02-12_12h42.12.083,lexical_decision_task_DD_L2,2021.2.3,Linux armv7l,30.49245312,,,,,,,,,,0.9108,1,,,,,,,,,,,,,,,,,,,,,,,-0.380721203,-0.297800897,1,0,0,,,,,,,VALLEY,C,z,y,./images/VALLEY.png,,,,,,,,,,,,,,,,,,,,,0,-0.380721203,-0.297800897,1,0,0,0.9108,button_left_test,0,15,15,152,1
,,,,,,,,,,,,,,,,,60d39bc8af5e01b7ab0e1ed5,36,2022-02-12_12h42.12.083,lexical_decision_task_DD_L2,2021.2.3,Linux armv7l,30.49245312,,,,,,,,,,1.6114,1,,,,,,,,,,,,,,,,,,,,,,,-0.389042993,-0.281168077,1,0,0,,,,,,,PARADE,C,z,y,./images/PARADE.png,,,,,,,,,,,,,,,,,,,,,0,-0.389042993,-0.281168077,1,0,0,1.6114,button_left_test,0,16,16,101,1
,,,,,,,,,,,,,,,,,60d39bc8af5e01b7ab0e1ed5,36,2022-02-12_12h42.12.083,lexical_decision_task_DD_L2,2021.2.3,Linux armv7l,30.49245312,,,,,,,,,,1.4318,0,,,,,,,,,,,,,,,,,,,,,,,0.35436908,-0.326907704,1,0,0,,,,,,,SAUNA,HB,z,y,./images/SAUNAHB.png,,,,,,,,,,,,,,,,,,,,,0,0.35436908,-0.326907704,1,0,0,1.4318,button_right_test,0,17,17,117,1
,,,,,,,,,,,,,,,,,60d39bc8af5e01b7ab0e1ed5,36,2022-02-12_12h42.12.083,lexical_decision_task_DD_L2,2021.2.3,Linux armv7l,30.49245312,,,,,,,,,,0.9577,1,,,,,,,,,,,,,,,,,,,,,,,-0.37794728,-0.28671235,1,0,0,,,,,,,MEDAL,C,z,y,./images/MEDAL.png,,,,,,,,,,,,,,,,,,,,,0,-0.37794728,-0.28671235,1,0,0,0.9577,button_left_test,0,18,18,95,1
,,,,,,,,,,,,,,,,,60d39bc8af5e01b7ab0e1ed5,36,2022-02-12_12h42.12.083,lexical_decision_task_DD_L2,2021.2.3,Linux armv7l,30.49245312,,,,,,,,,,0.9941,0,,,,,,,,,,,,,,,,,,,,,,,-0.387656017,-0.283940139,1,0,0,,,,,,,MAGGOT,HB,m,y,./images/MAGGOTHB.png,,,,,,,,,,,,,,,,,,,,,0,-0.387656017,-0.283940139,1,0,0,0.9941,button_left_test,0,19,19,33,1
,,,,,,,,,,,,,,,,,60d39bc8af5e01b7ab0e1ed5,36,2022-02-12_12h42.12.083,lexical_decision_task_DD_L2,2021.2.3,Linux armv7l,30.49245312,,,,,,,,,,0.6528,1,,,,,,,,,,,,,,,,,,,,,,,0.348821103,-0.317205485,1,0,0,,,,,,,PEARL,LB,m,y,./images/PEARLLB.png,,,,,,,,,,,,,,,,,,,,,0,0.348821103,-0.317205485,1,0,0,0.6528,button_right_test,0,20,20,46,1
,,,,,,,,,,,,,,,,,60d39bc8af5e01b7ab0e1ed5,36,2022-02-12_12h42.12.083,lexical_decision_task_DD_L2,2021.2.3,Linux armv7l,30.49245312,,,,,,,,,,0.5939,1,,,,,,,,,,,,,,,,,,,,,,,0.357142995,-0.299186929,1,0,0,,,,,,,BANNER,LB,m,y,./images/BANNERLB.png,,,,,,,,,,,,,,,,,,,,,0,0.357142995,-0.299186929,1,0,0,0.5939,button_right_test,0,21,21,52,1
,,,,,,,,,,,,,,,,,60d39bc8af5e01b7ab0e1ed5,36,2022-02-12_12h42.12.083,lexical_decision_task_DD_L2,2021.2.3,Linux armv7l,30.49245312,,,,,,,,,,0.8584,1,,,,,,,,,,,,,,,,,,,,,,,0.357142995,-0.308889296,1,0,0,,,,,,,SQUARE,HB,m,y,./images/SQUAREHB.png,,,,,,,,,,,,,,,,,,,,,0,0.357142995,-0.308889296,1,0,0,0.8584,button_right_test,0,22,22,6,1
,,,,,,,,,,,,,,,,,60d39bc8af5e01b7ab0e1ed5,36,2022-02-12_12h42.12.083,lexical_decision_task_DD_L2,2021.2.3,Linux armv7l,30.49245312,,,,,,,,,,0.8051,1,,,,,,,,,,,,,,,,,,,,,,,-0.373786389,-0.27423792,1,0,0,,,,,,,CHERRY,HB,z,y,./images/CHERRYHB.png,,,,,,,,,,,,,,,,,,,,,0,-0.373786389,-0.27423792,1,0,0,0.8051,button_left_test,0,23,23,138,1
,,,,,,,,,,,,,,,,,60d39bc8af5e01b7ab0e1ed5,36,2022-02-12_12h42.12.083,lexical_decision_task_DD_L2,2021.2.3,Linux armv7l,30.49245312,,,,,,,,,,1.2078,1,,,,,,,,,,,,,,,,,,,,,,,0.332177542,-0.301958991,1,0,0,,,,,,,COUCH,C,m,y,./images/COUCH.png,,,,,,,,,,,,,,,,,,,,,0,0.332177542,-0.301958991,1,0,0,1.2078,button_right_test,0,24,24,77,1
,,,,,,,,,,,,,,,,,60d39bc8af5e01b7ab0e1ed5,36,2022-02-12_12h42.12.083,lexical_decision_task_DD_L2,2021.2.3,Linux armv7l,30.49245312,,,,,,,,,,0.7759,1,,,,,,,,,,,,,,,,,,,,,,,0.348821103,-0.32274961,1,0,0,,,,,,,MALLET,C,m,y,./images/MALLET.png,,,,,,,,,,,,,,,,,,,,,0,0.348821103,-0.32274961,1,0,0,0.7759,button_right_test,0,25,25,50,1
,,,,,,,,,,,,,,,,,60d39bc8af5e01b7ab0e1ed5,36,2022-02-12_12h42.12.083,lexical_decision_task_DD_L2,2021.2.3,Linux armv7l,30.49245312,,,,,,,,,,0.7581,1,,,,,,,,,,,,,,,,,,,,,,,0.358529841,-0.326907704,1,0,0,,,,,,,RHINO,HB,m,y,./images/RHINOHB.png,,,,,,,,,,,,,,,,,,,,,0,0.358529841,-0.326907704,1,0,0,0.7581,button_right_test,0,26,26,9,1
,,,,,,,,,,,,,,,,,60d39bc8af5e01b7ab0e1ed5,36,2022-02-12_12h42.12.083,lexical_decision_task_DD_L2,2021.2.3,Linux armv7l,30.49245312,,,,,,,,,,1.3687,1,,,,,,,,,,,,,,,,,,,,,,,-0.354368914,-0.285326319,1,0,0,,,,,,,BUBBLE,C,z,y,./images/BUBBLE.png,,,,,,,,,,,,,,,,,,,,,0,-0.354368914,-0.285326319,1,0,0,1.3687,button_left_test,0,27,27,155,1
,,,,,,,,,,,,,,,,,60d39bc8af5e01b7ab0e1ed5,36,2022-02-12_12h42.12.083,lexical_decision_task_DD_L2,2021.2.3,Linux armv7l,30.49245312,,,,,,,,,,1.1486,1,,,,,,,,,,,,,,,,,,,,,,,-0.369625517,-0.288098382,1,0,0,,,,,,,HOCKEY,C,z,y,./images/HOCKEY.png,,,,,,,,,,,,,,,,,,,,,0,-0.369625517,-0.288098382,1,0,0,1.1486,button_left_test,0,28,28,116,1
,,,,,,,,,,,,,,,,,60d39bc8af5e01b7ab0e1ed5,36,2022-02-12_12h42.12.083,lexical_decision_task_DD_L2,2021.2.3,Linux armv7l,30.49245312,,,,,,,,,,0.6629,1,,,,,,,,,,,,,,,,,,,,,,,0.343273274,-0.325521821,1,0,0,,,,,,,BIRTH,LB,m,y,./images/BIRTHLB.png,,,,,,,,,,,,,,,,,,,,,0,0.343273274,-0.325521821,1,0,0,0.6629,button_right_test,0,29,29,37,1
,,,,,,,,,,,,,,,,,60d39bc8af5e01b7ab0e1ed5,36,2022-02-12_12h42.12.083,lexical_decision_task_DD_L2,2021.2.3,Linux armv7l,30.49245312,,,,,,,,,,0.8402,0,,,,,,,,,,,,,,,,,,,,,,,0.340499433,-0.321363579,1,0,0,,,,,,,STREAM,C,z,y,./images/STREAM.png,,,,,,,,,,,,,,,,,,,,,0,0.340499433,-0.321363579,1,0,0,0.8402,button_right_test,0,30,30,125,1
,,,,,,,,,,,,,,,,,60d39bc8af5e01b7ab0e1ed5,36,2022-02-12_12h42.12.083,lexical_decision_task_DD_L2,2021.2.3,Linux armv7l,30.49245312,,,,,,,,,,0.6454,1,,,,,,,,,,,,,,,,,,,,,,,0.348821103,-0.321363579,1,0,0,,,,,,,JUNGLE,C,m,y,./images/JUNGLE.png,,,,,,,,,,,,,,,,,,,,,0,0.348821103,-0.321363579,1,0,0,0.6454,button_right_test,0,31,31,83,1
,,,,,,,,,,,,,,,,,60d39bc8af5e01b7ab0e1ed5,36,2022-02-12_12h42.12.083,lexical_decision_task_DD_L2,2021.2.3,Linux armv7l,30.49245312,,,,,,,,,,0.7733,1,,,,,,,,,,,,,,,,,,,,,,,0.332177542,-0.326907704,1,0,0,,,,,,,KITTEN,HB,m,y,./images/KITTENHB.png,,,,,,,,,,,,,,,,,,,,,0,0.332177542,-0.326907704,1,0,0,0.7733,button_right_test,0,32,32,45,1
,,,,,,,,,,,,,,,,,60d39bc8af5e01b7ab0e1ed5,36,2022-02-12_12h42.12.083,lexical_decision_task_DD_L2,2021.2.3,Linux armv7l,30.49245312,,,,,,,,,,1.0487,1,,,,,,,,,,,,,,,,,,,,,,,-0.372399441,-0.285326319,1,0,0,,,,,,,CLOTH,C,z,y,./images/CLOTH.png,,,,,,,,,,,,,,,,,,,,,0,-0.372399441,-0.285326319,1,0,0,1.0487,button_left_test,0,33,33,107,1
,,,,,,,,,,,,,,,,,60d39bc8af5e01b7ab0e1ed5,36,2022-02-12_12h42.12.083,lexical_decision_task_DD_L2,2021.2.3,Linux armv7l,30.49245312,,,,,,,,,,3.2252,1,,,,,,,,,,,,,,,,,,,,,,,0.351595018,-0.301958991,1,0,0,,,,,,,SHELF,HB,m,y,./images/SHELFHB.png,,,,,,,,,,,,,,,,,,,,,0,0.351595018,-0.301958991,1,0,0,3.2252,button_right_test,0,34,34,39,1
,,,,,,,,,,,,,,,,,60d39bc8af5e01b7ab0e1ed5,36,2022-02-12_12h42.12.083,lexical_decision_task_DD_L2,2021.2.3,Linux armv7l,30.49245312,,,,,,,,,,0.7774,1,,,,,,,,,,,,,,,,,,,,,,,0.35436908,-0.304731054,1,0,0,,,,,,,FINGER,HB,m,y,./images/FINGERHB.png,,,,,,,,,,,,,,,,,,,,,0,0.35436908,-0.304731054,1,0,0,0.7774,button_right_test,0,35,35,3,1
,,,,,,,,,,,,,,,,,60d39bc8af5e01b7ab0e1ed5,36,2022-02-12_12h42.12.083,lexical_decision_task_DD_L2,2021.2.3,Linux armv7l,30.49245312,,,,,,,,,,0.7886,1,,,,,,,,,,,,,,,,,,,,,,,-0.395977807,-0.299186929,1,0,0,,,,,,,LLAMA,C,z,y,./images/LLAMA.png,,,,,,,,,,,,,,,,,,,,,0,-0.395977807,-0.299186929,1,0,0,0.7886,button_left_test,0,36,36,119,1
,,,,,,,,,,,,,,,,,60d39bc8af5e01b7ab0e1ed5,36,2022-02-12_12h42.12.083,lexical_decision_task_DD_L2,2021.2.3,Linux armv7l,30.49245312,,,,,,,,,,1.241,0,,,,,,,,,,,,,,,,,,,,,,,0.355755926,-0.325521821,1,0,0,,,,,,,WHEEL,C,z,y,./images/WHEEL.png,,,,,,,,,,,,,,,,,,,,,0,0.355755926,-0.325521821,1,0,0,1.241,button_right_test,0,37,37,161,1
,,,,,,,,,,,,,,,,,60d39bc8af5e01b7ab0e1ed5,36,2022-02-12_12h42.12.083,lexical_decision_task_DD_L2,2021.2.3,Linux armv7l,30.49245312,,,,,,,,,,1.1295,0,,,,,,,,,,,,,,,,,,,,,,,0.355755926,-0.331065946,1,0,0,,,,,,,GARDEN,LB,z,y,./images/GARDENLB.png,,,,,,,,,,,,,,,,,,,,,0,0.355755926,-0.331065946,1,0,0,1.1295,button_right_test,0,38,38,94,1
,,,,,,,,,,,,,,,,,60d39bc8af5e01b7ab0e1ed5,36,2022-02-12_12h42.12.083,lexical_decision_task_DD_L2,2021.2.3,Linux armv7l,30.49245312,,,,,,,,,,1.2806,0,,,,,,,,,,,,,,,,,,,,,,,0.357142995,-0.31027518,1,0,0,,,,,,,ARTIST,LB,z,y,./images/ARTISTLB.png,,,,,,,,,,,,,,,,,,,,,0,0.357142995,-0.31027518,1,0,0,1.2806,button_right_test,0,39,39,145,1
,,,,,,,,,,,,,,,,,60d39bc8af5e01b7ab0e1ed5,36,2022-02-12_12h42.12.083,lexical_decision_task_DD_L2,2021.2.3,Linux armv7l,30.49245312,,,,,,,,,,1.0769,0,,,,,,,,,,,,,,,,,,,,,,,-0.375173365,-0.27423792,1,0,0,,,,,,,TOMATO,HB,m,y,./images/TOMATOHB.png,,,,,,,,,,,,,,,,,,,,,0,-0.375173365,-0.27423792,1,0,0,1.0769,button_left_test,0,40,40,0,1
,,,,,,,,,,,,,,,,,60d39bc8af5e01b7ab0e1ed5,36,2022-02-12_12h42.12.083,lexical_decision_task_DD_L2,2021.2.3,Linux armv7l,30.49245312,,,,,,,,,,0.9094,1,,,,,,,,,,,,,,,,,,,,,,,0.115811394,-0.403140614,1,0,0,,,,,,,FALCON,LB,m,y,./images/FALCONLB.png,break_done_button,,,,,,,,,,,,,,,,,,,,0,0.355755926,-0.314433422,1,0,0,0.9094,button_right_test,0,41,41,28,1
,,,,,,,,,,,,,,,,,60d39bc8af5e01b7ab0e1ed5,36,2022-02-12_12h42.12.083,lexical_decision_task_DD_L2,2021.2.3,Linux armv7l,30.49245312,,,,,,,,,,0.9296,0,,,,,,,,,,,,,,,,,,,,,,,0.358529841,-0.308889296,1,0,0,,,,,,,BRUSH,C,z,y,./images/BRUSH.png,,,,,,,,,,,,,,,,,,,,,0,0.358529841,-0.308889296,1,0,0,0.9296,button_right_test,0,42,42,143,1
,,,,,,,,,,,,,,,,,60d39bc8af5e01b7ab0e1ed5,36,2022-02-12_12h42.12.083,lexical_decision_task_DD_L2,2021.2.3,Linux armv7l,30.49245312,,,,,,,,,,0.7421,1,,,,,,,,,,,,,,,,,,,,,,,0.350208171,-0.331065946,1,0,0,,,,,,,SWEAT,HB,m,y,./images/SWEATHB.png,,,,,,,,,,,,,,,,,,,,,0,0.350208171,-0.331065946,1,0,0,0.7421,button_right_test,0,43,43,66,1
,,,,,,,,,,,,,,,,,60d39bc8af5e01b7ab0e1ed5,36,2022-02-12_12h42.12.083,lexical_decision_task_DD_L2,2021.2.3,Linux armv7l,30.49245312,,,,,,,,,,1.0397,1,,,,,,,,,,,,,,,,,,,,,,,0.34188628,-0.332451978,1,0,0,,,,,,,CARPET,C,m,y,./images/CARPET.png,,,,,,,,,,,,,,,,,,,,,0,0.34188628,-0.332451978,1,0,0,1.0397,button_right_test,0,44,44,53,1
,,,,,,,,,,,,,,,,,60d39bc8af5e01b7ab0e1ed5,36,2022-02-12_12h42.12.083,lexical_decision_task_DD_L2,2021.2.3,Linux armv7l,30.49245312,,,,,,,,,,0.7779,0,,,,,,,,,,,,,,,,,,,,,,,0.357142995,-0.299186929,1,0,0,,,,,,,BOXER,LB,z,y,./images/BOXERLB.png,,,,,,,,,,,,,,,,,,,,,0,0.357142995,-0.299186929,1,0,0,0.7779,button_right_test,0,45,45,88,1
,,,,,,,,,,,,,,,,,60d39bc8af5e01b7ab0e1ed5,36,2022-02-12_12h42.12.083,lexical_decision_task_DD_L2,2021.2.3,Linux armv7l,30.49245312,,,,,,,,,,1.3261,0,,,,,,,,,,,,,,,,,,,,,,,-0.386269069,-0.297800897,1,0,0,,,,,,,ONION,HB,m,y,./images/ONIONHB.png,,,,,,,,,,,,,,,,,,,,,0,-0.386269069,-0.297800897,1,0,0,1.3261,button_left_test,0,46,46,51,1
,,,,,,,,,,,,,,,,,60d39bc8af5e01b7ab0e1ed5,36,2022-02-12_12h42.12.083,lexical_decision_task_DD_L2,2021.2.3,Linux armv7l,30.49245312,,,,,,,,,,1.0818,1,,,,,,,,,,,,,,,,,,,,,,,0.369625647,-0.299186929,1,0,0,,,,,,,MIRROR,HB,m,y,./images/MIRRORHB.png,,,,,,,,,,,,,,,,,,,,,0,0.369625647,-0.299186929,1,0,0,1.0818,button_right_test,0,47,47,63,1
,,,,,,,,,,,,,,,,,60d39bc8af5e01b7ab0e1ed5,36,2022-02-12_12h42.12.083,lexical_decision_task_DD_L2,2021.2.3,Linux armv7l,30.49245312,,,,,,,,,,0.7466,1,,,,,,,,,,,,,,,,,,,,,,,0.352982012,-0.307503117,1,0,0,,,,,,,CANDLE,LB,m,y,./images/CANDLELB.png,,,,,,,,,,,,,,,,,,,,,0,0.352982012,-0.307503117,1,0,0,0.7466,button_right_test,0,48,48,61,1
,,,,,,,,,,,,,,,,,60d39bc8af5e01b7ab0e1ed5,36,2022-02-12_12h42.12.083,lexical_decision_task_DD_L2,2021.2.3,Linux armv7l,30.49245312,,,,,,,,,,1.0193,0,,,,,,,,,,,,,,,,,,,,,,,0.336338451,-0.344926556,1,0,0,,,,,,,SHIELD,HB,z,y,./images/SHIELDHB.png,,,,,,,,,,,,,,,,,,,,,0,0.336338451,-0.344926556,1,0,0,1.0193,button_right_test,0,49,49,132,1
,,,,,,,,,,,,,,,,,60d39bc8af5e01b7ab0e1ed5,36,2022-02-12_12h42.12.083,lexical_decision_task_DD_L2,2021.2.3,Linux armv7l,30.49245312,,,,,,,,,,0.7138,0,,,,,,,,,,,,,,,,,,,,,,,0.355755926,-0.328293884,1,0,0,,,,,,,DRILL,HB,z,y,./images/DRILLHB.png,,,,,,,,,,,,,,,,,,,,,0,0.355755926,-0.328293884,1,0,0,0.7138,button_right_test,0,50,50,165,1
,,,,,,,,,,,,,,,,,60d39bc8af5e01b7ab0e1ed5,36,2022-02-12_12h42.12.083,lexical_decision_task_DD_L2,2021.2.3,Linux armv7l,30.49245312,,,,,,,,,,0.6634,1,,,,,,,,,,,,,,,,,,,,,,,0.346047188,-0.311661359,1,0,0,,,,,,,MOSQUE,LB,m,y,./images/MOSQUELB.png,,,,,,,,,,,,,,,,,,,,,0,0.346047188,-0.311661359,1,0,0,0.6634,button_right_test,0,51,51,43,1
,,,,,,,,,,,,,,,,,60d39bc8af5e01b7ab0e1ed5,36,2022-02-12_12h42.12.083,lexical_decision_task_DD_L2,2021.2.3,Linux armv7l,30.49245312,,,,,,,,,,0.642,0,,,,,,,,,,,,,,,,,,,,,,,0.355755926,-0.306117234,1,0,0,,,,,,,FLASK,HB,z,y,./images/FLASKHB.png,,,,,,,,,,,,,,,,,,,,,0,0.355755926,-0.306117234,1,0,0,0.642,button_right_test,0,52,52,156,1
,,,,,,,,,,,,,,,,,60d39bc8af5e01b7ab0e1ed5,36,2022-02-12_12h42.12.083,lexical_decision_task_DD_L2,2021.2.3,Linux armv7l,30.49245312,,,,,,,,,,0.9273,0,,,,,,,,,,,,,,,,,,,,,,,0.34188628,-0.337996103,1,0,0,,,,,,,BOILER,HB,z,y,./images/BOILERHB.png,,,,,,,,,,,,,,,,,,,,,0,0.34188628,-0.337996103,1,0,0,0.9273,button_right_test,0,53,53,120,1
,,,,,,,,,,,,,,,,,60d39bc8af5e01b7ab0e1ed5,36,2022-02-12_12h42.12.083,lexical_decision_task_DD_L2,2021.2.3,Linux armv7l,30.49245312,,,,,,,,,,1.5964,0,,,,,,,,,,,,,,,,,,,,,,,-0.371012465,-0.295028538,1,0,0,,,,,,,BERRY,C,m,y,./images/BERRY.png,,,,,,,,,,,,,,,,,,,,,0,-0.371012465,-0.295028538,1,0,0,1.5964,button_left_test,0,54,54,47,1
,,,,,,,,,,,,,,,,,60d39bc8af5e01b7ab0e1ed5,36,2022-02-12_12h42.12.083,lexical_decision_task_DD_L2,2021.2.3,Linux armv7l,30.49245312,,,,,,,,,,0.8271,1,,,,,,,,,,,,,,,,,,,,,,,0.34188628,-0.360173049,1,0,0,,,,,,,THROAT,HB,m,y,./images/THROATHB.png,,,,,,,,,,,,,,,,,,,,,0,0.34188628,-0.360173049,1,0,0,0.8271,button_right_test,0,55,55,36,1
,,,,,,,,,,,,,,,,,60d39bc8af5e01b7ab0e1ed5,36,2022-02-12_12h42.12.083,lexical_decision_task_DD_L2,2021.2.3,Linux armv7l,30.49245312,,,,,,,,,,0.6567,0,,,,,,,,,,,,,,,,,,,,,,,0.375173402,-0.321363579,1,0,0,,,,,,,ARROW,HB,z,y,./images/ARROWHB.png,,,,,,,,,,,,,,,,,,,,,0,0.375173402,-0.321363579,1,0,0,0.6567,button_right_test,0,56,56,153,1
,,,,,,,,,,,,,,,,,60d39bc8af5e01b7ab0e1ed5,36,2022-02-12_12h42.12.083,lexical_decision_task_DD_L2,2021.2.3,Linux armv7l,30.49245312,,,,,,,,,,0.8081,1,,,,,,,,,,,,,,,,,,,,,,,0.377947317,-0.283940139,1,0,0,,,,,,,POODLE,HB,m,y,./images/POODLEHB.png,,,,,,,,,,,,,,,,,,,,,0,0.377947317,-0.283940139,1,0,0,0.8081,button_right_test,0,57,57,81,1
,,,,,,,,,,,,,,,,,60d39bc8af5e01b7ab0e1ed5,36,2022-02-12_12h42.12.083,lexical_decision_task_DD_L2,2021.2.3,Linux armv7l,30.49245312,,,,,,,,,,0.9691,1,,,,,,,,,,,,,,,,,,,,,,,-0.398751731,-0.28671235,1,0,0,,,,,,,MONKEY,HB,z,y,./images/MONKEYHB.png,,,,,,,,,,,,,,,,,,,,,0,-0.398751731,-0.28671235,1,0,0,0.9691,button_left_test,0,58,58,129,1
,,,,,,,,,,,,,,,,,60d39bc8af5e01b7ab0e1ed5,36,2022-02-12_12h42.12.083,lexical_decision_task_DD_L2,2021.2.3,Linux armv7l,30.49245312,,,,,,,,,,0.9049,1,,,,,,,,,,,,,,,,,,,,,,,-0.389042993,-0.297800897,1,0,0,,,,,,,CANDY,HB,z,y,./images/CANDYHB.png,,,,,,,,,,,,,,,,,,,,,0,-0.389042993,-0.297800897,1,0,0,0.9049,button_left_test,0,59,59,123,1
,,,,,,,,,,,,,,,,,60d39bc8af5e01b7ab0e1ed5,36,2022-02-12_12h42.12.083,lexical_decision_task_DD_L2,2021.2.3,Linux armv7l,30.49245312,,,,,,,,,,1.2486,1,,,,,,,,,,,,,,,,,,,,,,,0.351595018,-0.331065946,1,0,0,,,,,,,PAINT,LB,m,y,./images/PAINTLB.png,,,,,,,,,,,,,,,,,,,,,0,0.351595018,-0.331065946,1,0,0,1.2486,button_right_test,0,60,60,7,1
,,,,,,,,,,,,,,,,,60d39bc8af5e01b7ab0e1ed5,36,2022-02-12_12h42.12.083,lexical_decision_task_DD_L2,2021.2.3,Linux armv7l,30.49245312,,,,,,,,,,0.7946,0,,,,,,,,,,,,,,,,,,,,,,,0.351595018,-0.350470682,1,0,0,,,,,,,SAUCE,HB,z,y,./images/SAUCEHB.png,,,,,,,,,,,,,,,,,,,,,0,0.351595018,-0.350470682,1,0,0,0.7946,button_right_test,0,61,61,135,1
,,,,,,,,,,,,,,,,,60d39bc8af5e01b7ab0e1ed5,36,2022-02-12_12h42.12.083,lexical_decision_task_DD_L2,2021.2.3,Linux armv7l,30.49245312,,,,,,,,,,1.022,1,,,,,,,,,,,,,,,,,,,,,,,-0.401525655,-0.288098382,1,0,0,,,,,,,ENGINE,C,z,y,./images/ENGINE.png,,,,,,,,,,,,,,,,,,,,,0,-0.401525655,-0.288098382,1,0,0,1.022,button_left_test,0,62,62,122,1
,,,,,,,,,,,,,,,,,60d39bc8af5e01b7ab0e1ed5,36,2022-02-12_12h42.12.083,lexical_decision_task_DD_L2,2021.2.3,Linux armv7l,30.49245312,,,,,,,,,,2.1426,1,,,,,,,,,,,,,,,,,,,,,,,-0.393203865,-0.279782045,1,0,0,,,,,,,GRAPE,LB,z,y,./images/GRAPELB.png,,,,,,,,,,,,,,,,,,,,,0,-0.393203865,-0.279782045,1,0,0,2.1426,button_left_test,0,63,63,100,1
,,,,,,,,,,,,,,,,,60d39bc8af5e01b7ab0e1ed5,36,2022-02-12_12h42.12.083,lexical_decision_task_DD_L2,2021.2.3,Linux armv7l,30.49245312,,,,,,,,,,1.5471,1,,,,,,,,,,,,,,,,,,,,,,,-0.384882103,-0.289484413,1,0,0,,,,,,,BANANA,LB,z,y,./images/BANANALB.png,,,,,,,,,,,,,,,,,,,,,0,-0.384882103,-0.289484413,1,0,0,1.5471,button_left_test,0,64,64,154,1
,,,,,,,,,,,,,,,,,60d39bc8af5e01b7ab0e1ed5,36,2022-02-12_12h42.12.083,lexical_decision_task_DD_L2,2021.2.3,Linux armv7l,30.49245312,,,,,,,,,,0.8572,1,,,,,,,,,,,,,,,,,,,,,,,0.332177542,-0.304731054,1,0,0,,,,,,,PLANK,LB,m,y,./images/PLANKLB.png,,,,,,,,,,,,,,,,,,,,,0,0.332177542,-0.304731054,1,0,0,0.8572,button_right_test,0,65,65,1,1
,,,,,,,,,,,,,,,,,60d39bc8af5e01b7ab0e1ed5,36,2022-02-12_12h42.12.083,lexical_decision_task_DD_L2,2021.2.3,Linux armv7l,30.49245312,,,,,,,,,,1.1882,0,,,,,,,,,,,,,,,,,,,,,,,0.343273274,-0.317205485,1,0,0,,,,,,,FERRY,HB,z,y,./images/FERRYHB.png,,,,,,,,,,,,,,,,,,,,,0,0.343273274,-0.317205485,1,0,0,1.1882,button_right_test,0,66,66,141,1
,,,,,,,,,,,,,,,,,60d39bc8af5e01b7ab0e1ed5,36,2022-02-12_12h42.12.083,lexical_decision_task_DD_L2,2021.2.3,Linux armv7l,30.49245312,,,,,,,,,,0.6674,1,,,,,,,,,,,,,,,,,,,,,,,0.334951604,-0.32274961,1,0,0,,,,,,,URINE,LB,m,y,./images/URINELB.png,,,,,,,,,,,,,,,,,,,,,0,0.334951604,-0.32274961,1,0,0,0.6674,button_right_test,0,67,67,70,1
,,,,,,,,,,,,,,,,,60d39bc8af5e01b7ab0e1ed5,36,2022-02-12_12h42.12.083,lexical_decision_task_DD_L2,2021.2.3,Linux armv7l,30.49245312,,,,,,,,,,0.8546,0,,,,,,,,,,,,,,,,,,,,,,,0.344660342,-0.331065946,1,0,0,,,,,,,LAGOON,C,z,y,./images/LAGOON.png,,,,,,,,,,,,,,,,,,,,,0,0.344660342,-0.331065946,1,0,0,0.8546,button_right_test,0,68,68,131,1
,,,,,,,,,,,,,,,,,60d39bc8af5e01b7ab0e1ed5,36,2022-02-12_12h42.12.083,lexical_decision_task_DD_L2,2021.2.3,Linux armv7l,30.49245312,,,,,,,,,,0.696,1,,,,,,,,,,,,,,,,,,,,,,,0.343273274,-0.331065946,1,0,0,,,,,,,BONNET,C,m,y,./images/BONNET.png,,,,,,,,,,,,,,,,,,,,,0,0.343273274,-0.331065946,1,0,0,0.696,button_right_test,0,69,69,11,1
,,,,,,,,,,,,,,,,,60d39bc8af5e01b7ab0e1ed5,36,2022-02-12_12h42.12.083,lexical_decision_task_DD_L2,2021.2.3,Linux armv7l,30.49245312,,,,,,,,,,0.8969,1,,,,,,,,,,,,,,,,,,,,,,,0.339112365,-0.333838009,1,0,0,,,,,,,WRIST,LB,m,y,./images/WRISTLB.png,,,,,,,,,,,,,,,,,,,,,0,0.339112365,-0.333838009,1,0,0,0.8969,button_right_test,0,70,70,25,1
,,,,,,,,,,,,,,,,,60d39bc8af5e01b7ab0e1ed5,36,2022-02-12_12h42.12.083,lexical_decision_task_DD_L2,2021.2.3,Linux armv7l,30.49245312,,,,,,,,,,0.7312,0,,,,,,,,,,,,,,,,,,,,,,,0.35436908,-0.306117234,1,0,0,,,,,,,DANCER,HB,z,y,./images/DANCERHB.png,,,,,,,,,,,,,,,,,,,,,0,0.35436908,-0.306117234,1,0,0,0.7312,button_right_test,0,71,71,105,1
,,,,,,,,,,,,,,,,,60d39bc8af5e01b7ab0e1ed5,36,2022-02-12_12h42.12.083,lexical_decision_task_DD_L2,2021.2.3,Linux armv7l,30.49245312,,,,,,,,,,1.2472,0,,,,,,,,,,,,,,,,,,,,,,,0.358529841,-0.313047242,1,0,0,,,,,,,RULER,LB,z,y,./images/RULERLB.png,,,,,,,,,,,,,,,,,,,,,0,0.358529841,-0.313047242,1,0,0,1.2472,button_right_test,0,72,72,163,1
,,,,,,,,,,,,,,,,,60d39bc8af5e01b7ab0e1ed5,36,2022-02-12_12h42.12.083,lexical_decision_task_DD_L2,2021.2.3,Linux armv7l,30.49245312,,,,,,,,,,0.7624,1,,,,,,,,,,,,,,,,,,,,,,,0.347434257,-0.332451978,1,0,0,,,,,,,SWING,LB,m,y,./images/SWINGLB.png,,,,,,,,,,,,,,,,,,,,,0,0.347434257,-0.332451978,1,0,0,0.7624,button_right_test,0,73,73,40,1
,,,,,,,,,,,,,,,,,60d39bc8af5e01b7ab0e1ed5,36,2022-02-12_12h42.12.083,lexical_decision_task_DD_L2,2021.2.3,Linux armv7l,30.49245312,,,,,,,,,,1.6176,1,,,,,,,,,,,,,,,,,,,,,,,-0.354368914,-0.288098382,1,0,0,,,,,,,STATUE,HB,z,y,./images/STATUEHB.png,,,,,,,,,,,,,,,,,,,,,0,-0.354368914,-0.288098382,1,0,0,1.6176,button_left_test,0,74,74,150,1
,,,,,,,,,,,,,,,,,60d39bc8af5e01b7ab0e1ed5,36,2022-02-12_12h42.12.083,lexical_decision_task_DD_L2,2021.2.3,Linux armv7l,30.49245312,,,,,,,,,,0.842,1,,,,,,,,,,,,,,,,,,,,,,,-0.394590841,-0.292256476,1,0,0,,,,,,,RAZOR,LB,z,y,./images/RAZORLB.png,,,,,,,,,,,,,,,,,,,,,0,-0.394590841,-0.292256476,1,0,0,0.842,button_left_test,0,75,75,118,1
,,,,,,,,,,,,,,,,,60d39bc8af5e01b7ab0e1ed5,36,2022-02-12_12h42.12.083,lexical_decision_task_DD_L2,2021.2.3,Linux armv7l,30.49245312,,,,,,,,,,0.7712,1,,,,,,,,,,,,,,,,,,,,,,,0.346047188,-0.31027518,1,0,0,,,,,,,ATTIC,HB,m,y,./images/ATTICHB.png,,,,,,,,,,,,,,,,,,,,,0,0.346047188,-0.31027518,1,0,0,0.7712,button_right_test,0,76,76,27,1
,,,,,,,,,,,,,,,,,60d39bc8af5e01b7ab0e1ed5,36,2022-02-12_12h42.12.083,lexical_decision_task_DD_L2,2021.2.3,Linux armv7l,30.49245312,,,,,,,,,,0.7628,1,,,,,,,,,,,,,,,,,,,,,,,0.340499433,-0.308889296,1,0,0,,,,,,,TORCH,C,m,y,./images/TORCH.png,,,,,,,,,,,,,,,,,,,,,0,0.340499433,-0.308889296,1,0,0,0.7628,button_right_test,0,77,77,68,1
,,,,,,,,,,,,,,,,,60d39bc8af5e01b7ab0e1ed5,36,2022-02-12_12h42.12.083,lexical_decision_task_DD_L2,2021.2.3,Linux armv7l,30.49245312,,,,,,,,,,1.0155,1,,,,,,,,,,,,,,,,,,,,,,,-0.395977807,-0.292256476,1,0,0,,,,,,,BISHOP,LB,z,y,./images/BISHOPLB.png,,,,,,,,,,,,,,,,,,,,,0,-0.395977807,-0.292256476,1,0,0,1.0155,button_left_test,0,78,78,133,1
,,,,,,,,,,,,,,,,,60d39bc8af5e01b7ab0e1ed5,36,2022-02-12_12h42.12.083,lexical_decision_task_DD_L2,2021.2.3,Linux armv7l,30.49245312,,,,,,,,,,1.1337,1,,,,,,,,,,,,,,,,,,,,,,,0.336338451,-0.319977547,1,0,0,,,,,,,PENCE,LB,m,y,./images/PENCELB.png,,,,,,,,,,,,,,,,,,,,,0,0.336338451,-0.319977547,1,0,0,1.1337,button_right_test,0,79,79,16,1
,,,,,,,,,,,,,,,,,60d39bc8af5e01b7ab0e1ed5,36,2022-02-12_12h42.12.083,lexical_decision_task_DD_L2,2021.2.3,Linux armv7l,30.49245312,,,,,,,,,,1.2514,1,,,,,,,,,,,,,,,,,,,,,,,-0.386269069,-0.285326319,1,0,0,,,,,,,WHISKY,C,z,y,./images/WHISKY.png,,,,,,,,,,,,,,,,,,,,,0,-0.386269069,-0.285326319,1,0,0,1.2514,button_left_test,0,80,80,167,1
,,,,,,,,,,,,,,,,,60d39bc8af5e01b7ab0e1ed5,36,2022-02-12_12h42.12.083,lexical_decision_task_DD_L2,2021.2.3,Linux armv7l,30.49245312,,,,,,,,,,0.9089,1,,,,,,,,,,,,,,,,,,,,,,,0.361303755,-0.315819453,1,0,0,,,,,,,FARMER,C,m,y,./images/FARMER.png,,,,,,,,,,,,,,,,,,,,,0,0.361303755,-0.315819453,1,0,0,0.9089,button_right_test,0,81,81,65,1
,,,,,,,,,,,,,,,,,60d39bc8af5e01b7ab0e1ed5,36,2022-02-12_12h42.12.083,lexical_decision_task_DD_L2,2021.2.3,Linux armv7l,30.49245312,,,,,,,,,,1.1063,1,,,,,,,,,,,,,,,,,,,,,,,0.334951604,-0.301958991,1,0,0,,,,,,,SAILOR,LB,m,y,./images/SAILORLB.png,,,,,,,,,,,,,,,,,,,,,0,0.334951604,-0.301958991,1,0,0,1.1063,button_right_test,0,82,82,67,1
,,,,,,,,,,,,,,,,,60d39bc8af5e01b7ab0e1ed5,36,2022-02-12_12h42.12.083,lexical_decision_task_DD_L2,2021.2.3,Linux armv7l,30.49245312,,,,,,,,,,0.6835,1,,,,,,,,,,,,,,,,,,,,,,,0.093620041,-0.414229162,1,0,0,,,,,,,SMOKER,C,m,y,./images/SMOKER.png,break_done_button,,,,,,,,,,,,,,,,,,,,0,0.309986152,-0.347698619,1,0,0,0.6835,button_right_test,0,83,83,26,1
,,,,,,,,,,,,,,,,,60d39bc8af5e01b7ab0e1ed5,36,2022-02-12_12h42.12.083,lexical_decision_task_DD_L2,2021.2.3,Linux armv7l,30.49245312,,,,,,,,,,0.4173,0,,,,,,,,,,,,,,,,,,,,,,,0.340499433,-0.301958991,1,0,0,,,,,,,TOWEL,LB,z,y,./images/TOWELLB.png,,,,,,,,,,,,,,,,,,,,,0,0.340499433,-0.301958991,1,0,0,0.4173,button_right_test,0,84,84,85,1
,,,,,,,,,,,,,,,,,60d39bc8af5e01b7ab0e1ed5,36,2022-02-12_12h42.12.083,lexical_decision_task_DD_L2,2021.2.3,Linux armv7l,30.49245312,,,,,,,,,,1.564,1,,,,,,,,,,,,,,,,,,,,,,,0.339112365,-0.329679767,1,0,0,,,,,,,LIZARD,C,m,y,./images/LIZARD.png,,,,,,,,,,,,,,,,,,,,,0,0.339112365,-0.329679767,1,0,0,1.564,button_right_test,0,85,85,44,1
,,,,,,,,,,,,,,,,,60d39bc8af5e01b7ab0e1ed5,36,2022-02-12_12h42.12.083,lexical_decision_task_DD_L2,2021.2.3,Linux armv7l,30.49245312,,,,,,,,,,0.819,0,,,,,,,,,,,,,,,,,,,,,,,0.352982012,-0.306117234,1,0,0,,,,,,,BAMBOO,C,z,y,./images/BAMBOO.png,,,,,,,,,,,,,,,,,,,,,0,0.352982012,-0.306117234,1,0,0,0.819,button_right_test,0,86,86,89,1
,,,,,,,,,,,,,,,,,60d39bc8af5e01b7ab0e1ed5,36,2022-02-12_12h42.12.083,lexical_decision_task_DD_L2,2021.2.3,Linux armv7l,30.49245312,,,,,,,,,,0.7726,1,,,,,,,,,,,,,,,,,,,,,,,0.333564536,-0.318591516,1,0,0,,,,,,,BARREL,C,m,y,./images/BARREL.png,,,,,,,,,,,,,,,,,,,,,0,0.333564536,-0.318591516,1,0,0,0.7726,button_right_test,0,87,87,32,1
,,,,,,,,,,,,,,,,,60d39bc8af5e01b7ab0e1ed5,36,2022-02-12_12h42.12.083,lexical_decision_task_DD_L2,2021.2.3,Linux armv7l,30.49245312,,,,,,,,,,0.6986,1,,,,,,,,,,,,,,,,,,,,,,,0.304438322,-0.340768166,1,0,0,,,,,,,PICKLE,C,m,y,./images/PICKLE.png,,,,,,,,,,,,,,,,,,,,,0,0.304438322,-0.340768166,1,0,0,0.6986,button_right_test,0,88,88,14,1
