key_resp.keys,key_resp.rt,instr_done_touch.x,instr_done_touch.y,instr_done_touch.leftButton,instr_done_touch.midButton,instr_done_touch.rightButton,instruction_pages.thisRepN,instruction_pages.thisTrialN,instruction_pages.thisN,instruction_pages.thisIndex,instruction_pages.ran,pageN,phase,instruct_text,has_image,instruct_image,participant,age,date,expName,psychopyVersion,OS,frameRate,response.keys,response.corr,response.rt,touch_resp.x,touch_resp.y,touch_resp.leftButton,touch_resp.midButton,touch_resp.rightButton,touch_resp.time,touch_resp.clicked_name,rt,corr,practrials.thisRepN,practrials.thisTrialN,practrials.thisN,practrials.thisIndex,practrials.ran,TrialID,Target,corrAns,end_of_practice_trials_pages.thisRepN,end_of_practice_trials_pages.thisTrialN,end_of_practice_trials_pages.thisN,end_of_practice_trials_pages.thisIndex,end_of_practice_trials_pages.ran,key_resp_2.keys,key_resp_2.corr,key_resp_2.rt,targ_click.x,targ_click.y,targ_click.leftButton,targ_click.midButton,targ_click.rightButton,targ_click.time,targ_click.clicked_name,break_done_touch.x,break_done_touch.y,break_done_touch.leftButton,break_done_touch.midButton,break_done_touch.rightButton,break_done_keyboard.keys,maintrials.thisRepN,maintrials.thisTrialN,maintrials.thisN,maintrials.thisIndex,maintrials.ran,string,blur,study,lex,stim_path,break_done_keyboard.rt,mouse_2.x,mouse_2.y,mouse_2.leftButton,mouse_2.midButton,mouse_2.rightButton,mouse_2.clicked_name,slider.response,slider.rt,trials.thisRepN,trials.thisTrialN,trials.thisN,trials.thisIndex,trials.ran,test_instructions.thisRepN,test_instructions.thisTrialN,test_instructions.thisN,test_instructions.thisIndex,test_instructions.ran,instr_done_touch.clicked_name,key_resp_3.keys,key_resp_3.corr,key_resp_3.rt,test_click.x,test_click.y,test_click.leftButton,test_click.midButton,test_click.rightButton,test_click.time,test_click.clicked_name,test_phase.thisRepN,test_phase.thisTrialN,test_phase.thisN,test_phase.thisIndex,test_phase.ran
space,24.609,-0.100952381,-0.013333333,0,0,0,0,0,0,0,1,1,instructions,"INSTRUCTIONS
At the start of each trial, look at the plus sign  (+) in the center of the screen.  This tells you that a trial is about to begin and where to look. Second, the plus sign will disappear and a string of letters will appear. Your task is to determine if the string of letters is a word or not. If the item is a word press the M key (on keyboard)  or touch the word button (phone/tablet).  If the item is not a word,  press the  Z key (on keyboard)  or touch the nonword button (on phone/tablet). 
Press the space bar or touch  continue.",0,,60df9fdeab12699f246cab91,54,2022-02-12_13h34.41.079,lexical_decision_task_DD_L3,2021.2.3,Win32,59.95203837,,,,,,,,,,,,,,,,,,,,,,,,,,,,,,,,,,,,,,,,,,,,,,,,,,,,,,,,,,,,,,,,,,,,,,,,,,,,,,,,,,,,,,
space,6.362,-0.100952381,-0.013333333,0,0,0,0,1,1,1,1,2,instructions,"If your device has a keyboard, press the 'Z' key for nonwords and the 'M' key for words.





Press the space bar or touch the button below to continue.",0,keyboard-example.gif,60df9fdeab12699f246cab91,54,2022-02-12_13h34.41.079,lexical_decision_task_DD_L3,2021.2.3,Win32,59.95203837,,,,,,,,,,,,,,,,,,,,,,,,,,,,,,,,,,,,,,,,,,,,,,,,,,,,,,,,,,,,,,,,,,,,,,,,,,,,,,,,,,,,,,
space,4.099,-0.100952381,-0.013333333,0,0,0,0,2,2,2,1,3,instructions,"If you are using a touchscreen only device, use the buttons on the screen. Do not use the mouse.





Press the space bar or touch the button below to continue.",0,touchscreen-example.gif,60df9fdeab12699f246cab91,54,2022-02-12_13h34.41.079,lexical_decision_task_DD_L3,2021.2.3,Win32,59.95203837,,,,,,,,,,,,,,,,,,,,,,,,,,,,,,,,,,,,,,,,,,,,,,,,,,,,,,,,,,,,,,,,,,,,,,,,,,,,,,,,,,,,,,
space,13.373,0.511428571,0.323809524,0,0,0,0,3,3,3,1,4,instructions,"It is very important that you respond as quickly and accurately as possible, as each letter string will only be on the screen for two seconds. If you do not respond within this time, the message 'Too slow!' will be displayed and the experiment will progress to the next letter string. The first 20 trials will be practice trials and you will receive feedback on your answers. 

Press the space bar or touch the button below to start the practice trials.",0,,60df9fdeab12699f246cab91,54,2022-02-12_13h34.41.079,lexical_decision_task_DD_L3,2021.2.3,Win32,59.95203837,,,,,,,,,,,,,,,,,,,,,,,,,,,,,,,,,,,,,,,,,,,,,,,,,,,,,,,,,,,,,,,,,,,,,,,,,,,,,,,,,,,,,,
,,,,,,,,,,,,,,,,,60df9fdeab12699f246cab91,54,2022-02-12_13h34.41.079,lexical_decision_task_DD_L3,2021.2.3,Win32,59.95203837,m,1,0.902,,,,,,,,0.902,1,0,0,0,7,1,1001,VOLUME,m,,,,,,,,,,,,,,,,,,,,,,,,,,,,,,,,,,,,,,,,,,,,,,,,,,,,,,,,,,,,,,,,,,
,,,,,,,,,,,,,,,,,60df9fdeab12699f246cab91,54,2022-02-12_13h34.41.079,lexical_decision_task_DD_L3,2021.2.3,Win32,59.95203837,m,1,0.786,,,,,,,,0.786,1,0,1,1,0,1,1001,UTOPIA,m,,,,,,,,,,,,,,,,,,,,,,,,,,,,,,,,,,,,,,,,,,,,,,,,,,,,,,,,,,,,,,,,,,
,,,,,,,,,,,,,,,,,60df9fdeab12699f246cab91,54,2022-02-12_13h34.41.079,lexical_decision_task_DD_L3,2021.2.3,Win32,59.95203837,z,1,1.075,,,,,,,,1.075,1,0,2,2,13,1,1001,ROUPET,z,,,,,,,,,,,,,,,,,,,,,,,,,,,,,,,,,,,,,,,,,,,,,,,,,,,,,,,,,,,,,,,,,,
,,,,,,,,,,,,,,,,,60df9fdeab12699f246cab91,54,2022-02-12_13h34.41.079,lexical_decision_task_DD_L3,2021.2.3,Win32,59.95203837,z,1,0.968,,,,,,,,0.968,1,0,3,3,8,1,1001,ASLERT,z,,,,,,,,,,,,,,,,,,,,,,,,,,,,,,,,,,,,,,,,,,,,,,,,,,,,,,,,,,,,,,,,,,
,,,,,,,,,,,,,,,,,60df9fdeab12699f246cab91,54,2022-02-12_13h34.41.079,lexical_decision_task_DD_L3,2021.2.3,Win32,59.95203837,z,1,0.851,,,,,,,,0.851,1,0,4,4,11,1,1001,RASHET,z,,,,,,,,,,,,,,,,,,,,,,,,,,,,,,,,,,,,,,,,,,,,,,,,,,,,,,,,,,,,,,,,,,
,,,,,,,,,,,,,,,,,60df9fdeab12699f246cab91,54,2022-02-12_13h34.41.079,lexical_decision_task_DD_L3,2021.2.3,Win32,59.95203837,m,1,0.652,,,,,,,,0.652,1,0,5,5,3,1,1001,MATRIX,m,,,,,,,,,,,,,,,,,,,,,,,,,,,,,,,,,,,,,,,,,,,,,,,,,,,,,,,,,,,,,,,,,,
,,,,,,,,,,,,,,,,,60df9fdeab12699f246cab91,54,2022-02-12_13h34.41.079,lexical_decision_task_DD_L3,2021.2.3,Win32,59.95203837,z,1,1.135,,,,,,,,1.135,1,0,6,6,14,1,1001,THRALE,z,,,,,,,,,,,,,,,,,,,,,,,,,,,,,,,,,,,,,,,,,,,,,,,,,,,,,,,,,,,,,,,,,,
,,,,,,,,,,,,,,,,,60df9fdeab12699f246cab91,54,2022-02-12_13h34.41.079,lexical_decision_task_DD_L3,2021.2.3,Win32,59.95203837,z,1,0.922,,,,,,,,0.922,1,0,7,7,9,1,1001,FARINY,z,,,,,,,,,,,,,,,,,,,,,,,,,,,,,,,,,,,,,,,,,,,,,,,,,,,,,,,,,,,,,,,,,,
,,,,,,,,,,,,,,,,,60df9fdeab12699f246cab91,54,2022-02-12_13h34.41.079,lexical_decision_task_DD_L3,2021.2.3,Win32,59.95203837,m,1,0.607,,,,,,,,0.607,1,0,8,8,2,1,1001,ALMOND,m,,,,,,,,,,,,,,,,,,,,,,,,,,,,,,,,,,,,,,,,,,,,,,,,,,,,,,,,,,,,,,,,,,
,,,,,,,,,,,,,,,,,60df9fdeab12699f246cab91,54,2022-02-12_13h34.41.079,lexical_decision_task_DD_L3,2021.2.3,Win32,59.95203837,z,1,0.753,,,,,,,,0.753,1,0,9,9,10,1,1001,INLADE,z,,,,,,,,,,,,,,,,,,,,,,,,,,,,,,,,,,,,,,,,,,,,,,,,,,,,,,,,,,,,,,,,,,
,,,,,,,,,,,,,,,,,60df9fdeab12699f246cab91,54,2022-02-12_13h34.41.079,lexical_decision_task_DD_L3,2021.2.3,Win32,59.95203837,m,1,0.66,,,,,,,,0.66,1,0,10,10,1,1,1001,ADJUST,m,,,,,,,,,,,,,,,,,,,,,,,,,,,,,,,,,,,,,,,,,,,,,,,,,,,,,,,,,,,,,,,,,,
,,,,,,,,,,,,,,,,,60df9fdeab12699f246cab91,54,2022-02-12_13h34.41.079,lexical_decision_task_DD_L3,2021.2.3,Win32,59.95203837,m,1,0.793,,,,,,,,0.793,1,0,11,11,4,1,1001,SQUEAK,m,,,,,,,,,,,,,,,,,,,,,,,,,,,,,,,,,,,,,,,,,,,,,,,,,,,,,,,,,,,,,,,,,,
,,,,,,,,,,,,,,,,,60df9fdeab12699f246cab91,54,2022-02-12_13h34.41.079,lexical_decision_task_DD_L3,2021.2.3,Win32,59.95203837,z,1,1.02,,,,,,,,1.02,1,0,12,12,12,1,1001,SPRINY,z,,,,,,,,,,,,,,,,,,,,,,,,,,,,,,,,,,,,,,,,,,,,,,,,,,,,,,,,,,,,,,,,,,
,,,,,,,,,,,,,,,,,60df9fdeab12699f246cab91,54,2022-02-12_13h34.41.079,lexical_decision_task_DD_L3,2021.2.3,Win32,59.95203837,z,1,0.77,,,,,,,,0.77,1,0,13,13,15,1,1001,WHAISE,z,,,,,,,,,,,,,,,,,,,,,,,,,,,,,,,,,,,,,,,,,,,,,,,,,,,,,,,,,,,,,,,,,,
,,,,,,,,,,,,,,,,,60df9fdeab12699f246cab91,54,2022-02-12_13h34.41.079,lexical_decision_task_DD_L3,2021.2.3,Win32,59.95203837,m,1,0.642,,,,,,,,0.642,1,0,14,14,6,1,1001,ZOMBIE,m,,,,,,,,,,,,,,,,,,,,,,,,,,,,,,,,,,,,,,,,,,,,,,,,,,,,,,,,,,,,,,,,,,
,,,,,,,,,,,,,,,,,60df9fdeab12699f246cab91,54,2022-02-12_13h34.41.079,lexical_decision_task_DD_L3,2021.2.3,Win32,59.95203837,m,1,0.735,,,,,,,,0.735,1,0,15,15,5,1,1001,OBTAIN,m,,,,,,,,,,,,,,,,,,,,,,,,,,,,,,,,,,,,,,,,,,,,,,,,,,,,,,,,,,,,,,,,,,
space,13.41,0.511428571,0.323809524,0,0,0,,,,,,1,end_of_practice,"You have completed the practice trials. During the experimental trials, you will not receive feedback. 
Before you begin, please ensure that you are in a comfortable and quiet location and will not be disturbed for about 15 minutes, as we cannot use your data if you do not complete all the trials. 
 When you are ready to start the experimental trials, please press space or touch the button below.",,,60df9fdeab12699f246cab91,54,2022-02-12_13h34.41.079,lexical_decision_task_DD_L3,2021.2.3,Win32,59.95203837,,,,,,,,,,,,,,,,,,,,,0,0,0,0,1,,,,,,,,,,,,,,,,,,,,,,,,,,,,,,,,,,,,,,,,,,,,,,,,,,,,,,,,,,,,,
,,,,,,,,,,,,,,,,,60df9fdeab12699f246cab91,54,2022-02-12_13h34.41.079,lexical_decision_task_DD_L3,2021.2.3,Win32,59.95203837,,,,,,,,,,,0.759,1,,,,,,,,,,,,,,m,1,0.759,,,,,,,,0.511428571,0.323809524,0,0,0,,0,0,0,24,1,SCREW,LB,old,m,./images/SCREWLB.png,,,,,,,,,,,,,,,,,,,,,,,,,,,,,,,,,,,
,,,,,,,,,,,,,,,,,60df9fdeab12699f246cab91,54,2022-02-12_13h34.41.079,lexical_decision_task_DD_L3,2021.2.3,Win32,59.95203837,,,,,,,,,,,0.78,1,,,,,,,,,,,,,,z,1,0.78,,,,,,,,0.511428571,0.323809524,0,0,0,,0,1,1,95,1,HANTY,LB,old,z,./images/HANTYLB.png,,,,,,,,,,,,,,,,,,,,,,,,,,,,,,,,,,,
,,,,,,,,,,,,,,,,,60df9fdeab12699f246cab91,54,2022-02-12_13h34.41.079,lexical_decision_task_DD_L3,2021.2.3,Win32,59.95203837,,,,,,,,,,,0.748,1,,,,,,,,,,,,,,z,1,0.748,,,,,,,,0.511428571,0.323809524,0,0,0,,0,2,2,152,1,FRAIN,LB,old,z,./images/FRAINLB.png,,,,,,,,,,,,,,,,,,,,,,,,,,,,,,,,,,,
,,,,,,,,,,,,,,,,,60df9fdeab12699f246cab91,54,2022-02-12_13h34.41.079,lexical_decision_task_DD_L3,2021.2.3,Win32,59.95203837,,,,,,,,,,,0.64,1,,,,,,,,,,,,,,m,1,0.64,,,,,,,,0.511428571,0.323809524,0,0,0,,0,3,3,54,1,TRIPOD,LB,old,m,./images/TRIPODLB.png,,,,,,,,,,,,,,,,,,,,,,,,,,,,,,,,,,,
,,,,,,,,,,,,,,,,,60df9fdeab12699f246cab91,54,2022-02-12_13h34.41.079,lexical_decision_task_DD_L3,2021.2.3,Win32,59.95203837,,,,,,,,,,,0.659,1,,,,,,,,,,,,,,m,1,0.659,,,,,,,,0.511428571,0.323809524,0,0,0,,0,4,4,75,1,GRAIN,LB,old,m,./images/GRAINLB.png,,,,,,,,,,,,,,,,,,,,,,,,,,,,,,,,,,,
,,,,,,,,,,,,,,,,,60df9fdeab12699f246cab91,54,2022-02-12_13h34.41.079,lexical_decision_task_DD_L3,2021.2.3,Win32,59.95203837,,,,,,,,,,,0.749,1,,,,,,,,,,,,,,z,1,0.749,,,,,,,,0.511428571,0.323809524,0,0,0,,0,5,5,122,1,BLOOT,LB,old,z,./images/BLOOTLB.png,,,,,,,,,,,,,,,,,,,,,,,,,,,,,,,,,,,
,,,,,,,,,,,,,,,,,60df9fdeab12699f246cab91,54,2022-02-12_13h34.41.079,lexical_decision_task_DD_L3,2021.2.3,Win32,59.95203837,,,,,,,,,,,1.2,1,,,,,,,,,,,,,,z,1,1.2,,,,,,,,0.511428571,0.323809524,0,0,0,,0,6,6,91,1,SHENS,HB,old,z,./images/SHENSHB.png,,,,,,,,,,,,,,,,,,,,,,,,,,,,,,,,,,,
,,,,,,,,,,,,,,,,,60df9fdeab12699f246cab91,54,2022-02-12_13h34.41.079,lexical_decision_task_DD_L3,2021.2.3,Win32,59.95203837,,,,,,,,,,,0.868,1,,,,,,,,,,,,,,z,1,0.868,,,,,,,,0.511428571,0.323809524,0,0,0,,0,7,7,111,1,HOSSE,C,old,z,./images/HOSSE.png,,,,,,,,,,,,,,,,,,,,,,,,,,,,,,,,,,,
,,,,,,,,,,,,,,,,,60df9fdeab12699f246cab91,54,2022-02-12_13h34.41.079,lexical_decision_task_DD_L3,2021.2.3,Win32,59.95203837,,,,,,,,,,,0.653,1,,,,,,,,,,,,,,m,1,0.653,,,,,,,,0.511428571,0.323809524,0,0,0,,0,8,8,81,1,POODLE,LB,old,m,./images/POODLELB.png,,,,,,,,,,,,,,,,,,,,,,,,,,,,,,,,,,,
,,,,,,,,,,,,,,,,,60df9fdeab12699f246cab91,54,2022-02-12_13h34.41.079,lexical_decision_task_DD_L3,2021.2.3,Win32,59.95203837,,,,,,,,,,,0.831,1,,,,,,,,,,,,,,z,1,0.831,,,,,,,,0.511428571,0.323809524,0,0,0,,0,9,9,89,1,DRIEK,LB,old,z,./images/DRIEKLB.png,,,,,,,,,,,,,,,,,,,,,,,,,,,,,,,,,,,
,,,,,,,,,,,,,,,,,60df9fdeab12699f246cab91,54,2022-02-12_13h34.41.079,lexical_decision_task_DD_L3,2021.2.3,Win32,59.95203837,,,,,,,,,,,0.655,0,,,,,,,,,,,,,,m,0,0.655,,,,,,,,0.511428571,0.323809524,0,0,0,,0,10,10,128,1,GRIFT,LB,old,z,./images/GRIFTLB.png,,,,,,,,,,,,,,,,,,,,,,,,,,,,,,,,,,,
,,,,,,,,,,,,,,,,,60df9fdeab12699f246cab91,54,2022-02-12_13h34.41.079,lexical_decision_task_DD_L3,2021.2.3,Win32,59.95203837,,,,,,,,,,,0.767,1,,,,,,,,,,,,,,m,1,0.767,,,,,,,,0.511428571,0.323809524,0,0,0,,0,11,11,10,1,BELLY,C,old,m,./images/BELLY.png,,,,,,,,,,,,,,,,,,,,,,,,,,,,,,,,,,,
,,,,,,,,,,,,,,,,,60df9fdeab12699f246cab91,54,2022-02-12_13h34.41.079,lexical_decision_task_DD_L3,2021.2.3,Win32,59.95203837,,,,,,,,,,,1.717,1,,,,,,,,,,,,,,z,1,1.717,,,,,,,,0.511428571,0.323809524,0,0,0,,0,12,12,85,1,CHULK,HB,old,z,./images/CHULKHB.png,,,,,,,,,,,,,,,,,,,,,,,,,,,,,,,,,,,
,,,,,,,,,,,,,,,,,60df9fdeab12699f246cab91,54,2022-02-12_13h34.41.079,lexical_decision_task_DD_L3,2021.2.3,Win32,59.95203837,,,,,,,,,,,0.599,1,,,,,,,,,,,,,,m,1,0.599,,,,,,,,0.511428571,0.323809524,0,0,0,,0,13,13,6,1,SQUARE,LB,old,m,./images/SQUARELB.png,,,,,,,,,,,,,,,,,,,,,,,,,,,,,,,,,,,
,,,,,,,,,,,,,,,,,60df9fdeab12699f246cab91,54,2022-02-12_13h34.41.079,lexical_decision_task_DD_L3,2021.2.3,Win32,59.95203837,,,,,,,,,,,0.732,1,,,,,,,,,,,,,,z,1,0.732,,,,,,,,0.511428571,0.323809524,0,0,0,,0,14,14,161,1,BLAPS,LB,old,z,./images/BLAPSLB.png,,,,,,,,,,,,,,,,,,,,,,,,,,,,,,,,,,,
,,,,,,,,,,,,,,,,,60df9fdeab12699f246cab91,54,2022-02-12_13h34.41.079,lexical_decision_task_DD_L3,2021.2.3,Win32,59.95203837,,,,,,,,,,,0.62,1,,,,,,,,,,,,,,m,1,0.62,,,,,,,,0.511428571,0.323809524,0,0,0,,0,15,15,51,1,ONION,LB,old,m,./images/ONIONLB.png,,,,,,,,,,,,,,,,,,,,,,,,,,,,,,,,,,,
,,,,,,,,,,,,,,,,,60df9fdeab12699f246cab91,54,2022-02-12_13h34.41.079,lexical_decision_task_DD_L3,2021.2.3,Win32,59.95203837,,,,,,,,,,,0.934,1,,,,,,,,,,,,,,m,1,0.934,,,,,,,,0.511428571,0.323809524,0,0,0,,0,16,16,47,1,BERRY,HB,old,m,./images/BERRYHB.png,,,,,,,,,,,,,,,,,,,,,,,,,,,,,,,,,,,
,,,,,,,,,,,,,,,,,60df9fdeab12699f246cab91,54,2022-02-12_13h34.41.079,lexical_decision_task_DD_L3,2021.2.3,Win32,59.95203837,,,,,,,,,,,0.639,1,,,,,,,,,,,,,,m,1,0.639,,,,,,,,0.511428571,0.323809524,0,0,0,,0,17,17,46,1,PEARL,C,old,m,./images/PEARL.png,,,,,,,,,,,,,,,,,,,,,,,,,,,,,,,,,,,
,,,,,,,,,,,,,,,,,60df9fdeab12699f246cab91,54,2022-02-12_13h34.41.079,lexical_decision_task_DD_L3,2021.2.3,Win32,59.95203837,,,,,,,,,,,0.588,1,,,,,,,,,,,,,,m,1,0.588,,,,,,,,0.511428571,0.323809524,0,0,0,,0,18,18,52,1,BANNER,C,old,m,./images/BANNER.png,,,,,,,,,,,,,,,,,,,,,,,,,,,,,,,,,,,
,,,,,,,,,,,,,,,,,60df9fdeab12699f246cab91,54,2022-02-12_13h34.41.079,lexical_decision_task_DD_L3,2021.2.3,Win32,59.95203837,,,,,,,,,,,0.86,0,,,,,,,,,,,,,,z,0,0.86,,,,,,,,0.511428571,0.323809524,0,0,0,,0,19,19,44,1,LIZARD,HB,old,m,./images/LIZARDHB.png,,,,,,,,,,,,,,,,,,,,,,,,,,,,,,,,,,,
,,,,,,,,,,,,,,,,,60df9fdeab12699f246cab91,54,2022-02-12_13h34.41.079,lexical_decision_task_DD_L3,2021.2.3,Win32,59.95203837,,,,,,,,,,,0.649,0,,,,,,,,,,,,,,m,0,0.649,,,,,,,,0.511428571,0.323809524,0,0,0,,0,20,20,110,1,CRUNK,LB,old,z,./images/CRUNKLB.png,,,,,,,,,,,,,,,,,,,,,,,,,,,,,,,,,,,
,,,,,,,,,,,,,,,,,60df9fdeab12699f246cab91,54,2022-02-12_13h34.41.079,lexical_decision_task_DD_L3,2021.2.3,Win32,59.95203837,,,,,,,,,,,0.819,1,,,,,,,,,,,,,,m,1,0.819,,,,,,,,0.511428571,0.323809524,0,0,0,,0,21,21,33,1,MAGGOT,LB,old,m,./images/MAGGOTLB.png,,,,,,,,,,,,,,,,,,,,,,,,,,,,,,,,,,,
,,,,,,,,,,,,,,,,,60df9fdeab12699f246cab91,54,2022-02-12_13h34.41.079,lexical_decision_task_DD_L3,2021.2.3,Win32,59.95203837,,,,,,,,,,,0.643,1,,,,,,,,,,,,,,m,1,0.643,,,,,,,,0.511428571,0.323809524,0,0,0,,0,22,22,4,1,MUSCLE,C,old,m,./images/MUSCLE.png,,,,,,,,,,,,,,,,,,,,,,,,,,,,,,,,,,,
,,,,,,,,,,,,,,,,,60df9fdeab12699f246cab91,54,2022-02-12_13h34.41.079,lexical_decision_task_DD_L3,2021.2.3,Win32,59.95203837,,,,,,,,,,,0.8,1,,,,,,,,,,,,,,z,1,0.8,,,,,,,,0.511428571,0.323809524,0,0,0,,0,23,23,156,1,HIXES,C,old,z,./images/HIXES.png,,,,,,,,,,,,,,,,,,,,,,,,,,,,,,,,,,,
,,,,,,,,,,,,,,,,,60df9fdeab12699f246cab91,54,2022-02-12_13h34.41.079,lexical_decision_task_DD_L3,2021.2.3,Win32,59.95203837,,,,,,,,,,,0.666,1,,,,,,,,,,,,,,m,1,0.666,,,,,,,,0.511428571,0.323809524,0,0,0,,0,24,24,16,1,PENCE,C,old,m,./images/PENCE.png,,,,,,,,,,,,,,,,,,,,,,,,,,,,,,,,,,,
,,,,,,,,,,,,,,,,,60df9fdeab12699f246cab91,54,2022-02-12_13h34.41.079,lexical_decision_task_DD_L3,2021.2.3,Win32,59.95203837,,,,,,,,,,,1.543,1,,,,,,,,,,,,,,z,1,1.543,,,,,,,,0.511428571,0.323809524,0,0,0,,0,25,25,157,1,INLER,HB,old,z,./images/INLERHB.png,,,,,,,,,,,,,,,,,,,,,,,,,,,,,,,,,,,
,,,,,,,,,,,,,,,,,60df9fdeab12699f246cab91,54,2022-02-12_13h34.41.079,lexical_decision_task_DD_L3,2021.2.3,Win32,59.95203837,,,,,,,,,,,0.671,1,,,,,,,,,,,,,,m,1,0.671,,,,,,,,0.511428571,0.323809524,0,0,0,,0,26,26,57,1,MOOSE,LB,old,m,./images/MOOSELB.png,,,,,,,,,,,,,,,,,,,,,,,,,,,,,,,,,,,
,,,,,,,,,,,,,,,,,60df9fdeab12699f246cab91,54,2022-02-12_13h34.41.079,lexical_decision_task_DD_L3,2021.2.3,Win32,59.95203837,,,,,,,,,,,0.644,1,,,,,,,,,,,,,,m,1,0.644,,,,,,,,0.511428571,0.323809524,0,0,0,,0,27,27,76,1,INFANT,C,old,m,./images/INFANT.png,,,,,,,,,,,,,,,,,,,,,,,,,,,,,,,,,,,
,,,,,,,,,,,,,,,,,60df9fdeab12699f246cab91,54,2022-02-12_13h34.41.079,lexical_decision_task_DD_L3,2021.2.3,Win32,59.95203837,,,,,,,,,,,0.683,1,,,,,,,,,,,,,,m,1,0.683,,,,,,,,0.511428571,0.323809524,0,0,0,,0,28,28,12,1,SHORE,LB,old,m,./images/SHORELB.png,,,,,,,,,,,,,,,,,,,,,,,,,,,,,,,,,,,
,,,,,,,,,,,,,,,,,60df9fdeab12699f246cab91,54,2022-02-12_13h34.41.079,lexical_decision_task_DD_L3,2021.2.3,Win32,59.95203837,,,,,,,,,,,0.909,1,,,,,,,,,,,,,,z,1,0.909,,,,,,,,0.511428571,0.323809524,0,0,0,,0,29,29,104,1,GITTY,LB,old,z,./images/GITTYLB.png,,,,,,,,,,,,,,,,,,,,,,,,,,,,,,,,,,,
,,,,,,,,,,,,,,,,,60df9fdeab12699f246cab91,54,2022-02-12_13h34.41.079,lexical_decision_task_DD_L3,2021.2.3,Win32,59.95203837,,,,,,,,,,,0.667,1,,,,,,,,,,,,,,m,1,0.667,,,,,,,,0.511428571,0.323809524,0,0,0,,0,30,30,73,1,SNACK,C,old,m,./images/SNACK.png,,,,,,,,,,,,,,,,,,,,,,,,,,,,,,,,,,,
,,,,,,,,,,,,,,,,,60df9fdeab12699f246cab91,54,2022-02-12_13h34.41.079,lexical_decision_task_DD_L3,2021.2.3,Win32,59.95203837,,,,,,,,,,,0.689,1,,,,,,,,,,,,,,m,1,0.689,,,,,,,,0.511428571,0.323809524,0,0,0,,0,31,31,0,1,TOMATO,LB,old,m,./images/TOMATOLB.png,,,,,,,,,,,,,,,,,,,,,,,,,,,,,,,,,,,
,,,,,,,,,,,,,,,,,60df9fdeab12699f246cab91,54,2022-02-12_13h34.41.079,lexical_decision_task_DD_L3,2021.2.3,Win32,59.95203837,,,,,,,,,,,1.339,1,,,,,,,,,,,,,,z,1,1.339,,,,,,,,0.511428571,0.323809524,0,0,0,,0,32,32,136,1,WERVE,HB,old,z,./images/WERVEHB.png,,,,,,,,,,,,,,,,,,,,,,,,,,,,,,,,,,,
,,,,,,,,,,,,,,,,,60df9fdeab12699f246cab91,54,2022-02-12_13h34.41.079,lexical_decision_task_DD_L3,2021.2.3,Win32,59.95203837,,,,,,,,,,,0.682,1,,,,,,,,,,,,,,m,1,0.682,,,,,,,,0.511428571,0.323809524,0,0,0,,0,33,33,30,1,STORM,LB,old,m,./images/STORMLB.png,,,,,,,,,,,,,,,,,,,,,,,,,,,,,,,,,,,
,,,,,,,,,,,,,,,,,60df9fdeab12699f246cab91,54,2022-02-12_13h34.41.079,lexical_decision_task_DD_L3,2021.2.3,Win32,59.95203837,,,,,,,,,,,0.656,1,,,,,,,,,,,,,,m,1,0.656,,,,,,,,0.511428571,0.323809524,0,0,0,,0,34,34,7,1,PAINT,C,old,m,./images/PAINT.png,,,,,,,,,,,,,,,,,,,,,,,,,,,,,,,,,,,
,,,,,,,,,,,,,,,,,60df9fdeab12699f246cab91,54,2022-02-12_13h34.41.079,lexical_decision_task_DD_L3,2021.2.3,Win32,59.95203837,,,,,,,,,,,0.816,1,,,,,,,,,,,,,,z,1,0.816,,,,,,,,0.511428571,0.323809524,0,0,0,,0,35,35,158,1,EGECT,LB,old,z,./images/EGECTLB.png,,,,,,,,,,,,,,,,,,,,,,,,,,,,,,,,,,,
,,,,,,,,,,,,,,,,,60df9fdeab12699f246cab91,54,2022-02-12_13h34.41.079,lexical_decision_task_DD_L3,2021.2.3,Win32,59.95203837,,,,,,,,,,,0.809,1,,,,,,,,,,,,,,z,1,0.809,,,,,,,,0.511428571,0.323809524,0,0,0,,0,36,36,150,1,NOOLS,C,old,z,./images/NOOLS.png,,,,,,,,,,,,,,,,,,,,,,,,,,,,,,,,,,,
,,,,,,,,,,,,,,,,,60df9fdeab12699f246cab91,54,2022-02-12_13h34.41.079,lexical_decision_task_DD_L3,2021.2.3,Win32,59.95203837,,,,,,,,,,,0.799,1,,,,,,,,,,,,,,m,1,0.799,,,,,,,,0.511428571,0.323809524,0,0,0,,0,37,37,27,1,ATTIC,LB,old,m,./images/ATTICLB.png,,,,,,,,,,,,,,,,,,,,,,,,,,,,,,,,,,,
,,,,,,,,,,,,,,,,,60df9fdeab12699f246cab91,54,2022-02-12_13h34.41.079,lexical_decision_task_DD_L3,2021.2.3,Win32,59.95203837,,,,,,,,,,,0.933,1,,,,,,,,,,,,,,z,1,0.933,,,,,,,,0.511428571,0.323809524,0,0,0,,0,38,38,120,1,RINED,C,old,z,./images/RINED.png,,,,,,,,,,,,,,,,,,,,,,,,,,,,,,,,,,,
,,,,,,,,,,,,,,,,,60df9fdeab12699f246cab91,54,2022-02-12_13h34.41.079,lexical_decision_task_DD_L3,2021.2.3,Win32,59.95203837,,,,,,,,,,,1,1,,,,,,,,,,,,,,m,1,1,,,,,,,,0.511428571,0.323809524,0,0,0,,0,39,39,5,1,PASTA,HB,old,m,./images/PASTAHB.png,,,,,,,,,,,,,,,,,,,,,,,,,,,,,,,,,,,
,,,,,,,,,,,,,,,,,60df9fdeab12699f246cab91,54,2022-02-12_13h34.41.079,lexical_decision_task_DD_L3,2021.2.3,Win32,59.95203837,,,,,,,,,,,1.194,1,,,,,,,,,,,,,,z,1,1.194,,,,,,,,0.511428571,0.323809524,0,0,0,,0,40,40,139,1,BLEAR,HB,old,z,./images/BLEARHB.png,,,,,,,,,,,,,,,,,,,,,,,,,,,,,,,,,,,
,,,,,,,,,,,,,,,,,60df9fdeab12699f246cab91,54,2022-02-12_13h34.41.079,lexical_decision_task_DD_L3,2021.2.3,Win32,59.95203837,,,,,,,,,,,0.865,1,,,,,,,,,,,,,,z,1,0.865,,,,,,,,0.511428571,0.323809524,0,0,0,space,0,41,41,146,1,MOOST,LB,old,z,./images/MOOSTLB.png,9.809,,,,,,,,,,,,,,,,,,,,,,,,,,,,,,,,,,
,,,,,,,,,,,,,,,,,60df9fdeab12699f246cab91,54,2022-02-12_13h34.41.079,lexical_decision_task_DD_L3,2021.2.3,Win32,59.95203837,,,,,,,,,,,1,1,,,,,,,,,,,,,,z,1,1,,,,,,,,0.511428571,0.323809524,0,0,0,,0,42,42,132,1,SCIFF,C,old,z,./images/SCIFF.png,,,,,,,,,,,,,,,,,,,,,,,,,,,,,,,,,,,
,,,,,,,,,,,,,,,,,60df9fdeab12699f246cab91,54,2022-02-12_13h34.41.079,lexical_decision_task_DD_L3,2021.2.3,Win32,59.95203837,,,,,,,,,,,1.376,1,,,,,,,,,,,,,,z,1,1.376,,,,,,,,0.511428571,0.323809524,0,0,0,,0,43,43,106,1,CLUMS,HB,old,z,./images/CLUMSHB.png,,,,,,,,,,,,,,,,,,,,,,,,,,,,,,,,,,,
,,,,,,,,,,,,,,,,,60df9fdeab12699f246cab91,54,2022-02-12_13h34.41.079,lexical_decision_task_DD_L3,2021.2.3,Win32,59.95203837,,,,,,,,,,,1.317,1,,,,,,,,,,,,,,m,1,1.317,,,,,,,,0.511428571,0.323809524,0,0,0,,0,44,44,56,1,PACKET,HB,old,m,./images/PACKETHB.png,,,,,,,,,,,,,,,,,,,,,,,,,,,,,,,,,,,
,,,,,,,,,,,,,,,,,60df9fdeab12699f246cab91,54,2022-02-12_13h34.41.079,lexical_decision_task_DD_L3,2021.2.3,Win32,59.95203837,,,,,,,,,,,1.301,1,,,,,,,,,,,,,,m,1,1.301,,,,,,,,0.511428571,0.323809524,0,0,0,,0,45,45,50,1,MALLET,HB,old,m,./images/MALLETHB.png,,,,,,,,,,,,,,,,,,,,,,,,,,,,,,,,,,,
,,,,,,,,,,,,,,,,,60df9fdeab12699f246cab91,54,2022-02-12_13h34.41.079,lexical_decision_task_DD_L3,2021.2.3,Win32,59.95203837,,,,,,,,,,,0.733,1,,,,,,,,,,,,,,z,1,0.733,,,,,,,,0.511428571,0.323809524,0,0,0,,0,46,46,116,1,BALGY,LB,old,z,./images/BALGYLB.png,,,,,,,,,,,,,,,,,,,,,,,,,,,,,,,,,,,
,,,,,,,,,,,,,,,,,60df9fdeab12699f246cab91,54,2022-02-12_13h34.41.079,lexical_decision_task_DD_L3,2021.2.3,Win32,59.95203837,,,,,,,,,,,1.106,1,,,,,,,,,,,,,,m,1,1.106,,,,,,,,0.511428571,0.323809524,0,0,0,,0,47,47,8,1,TULIP,HB,old,m,./images/TULIPHB.png,,,,,,,,,,,,,,,,,,,,,,,,,,,,,,,,,,,
,,,,,,,,,,,,,,,,,60df9fdeab12699f246cab91,54,2022-02-12_13h34.41.079,lexical_decision_task_DD_L3,2021.2.3,Win32,59.95203837,,,,,,,,,,,1.317,1,,,,,,,,,,,,,,z,1,1.317,,,,,,,,0.511428571,0.323809524,0,0,0,,0,48,48,88,1,GLUSH,HB,old,z,./images/GLUSHHB.png,,,,,,,,,,,,,,,,,,,,,,,,,,,,,,,,,,,
,,,,,,,,,,,,,,,,,60df9fdeab12699f246cab91,54,2022-02-12_13h34.41.079,lexical_decision_task_DD_L3,2021.2.3,Win32,59.95203837,,,,,,,,,,,1.424,0,,,,,,,,,,,,,,z,0,1.424,,,,,,,,0.511428571,0.323809524,0,0,0,,0,49,49,26,1,SMOKER,HB,old,m,./images/SMOKERHB.png,,,,,,,,,,,,,,,,,,,,,,,,,,,,,,,,,,,
,,,,,,,,,,,,,,,,,60df9fdeab12699f246cab91,54,2022-02-12_13h34.41.079,lexical_decision_task_DD_L3,2021.2.3,Win32,59.95203837,,,,,,,,,,,0.905,1,,,,,,,,,,,,,,z,1,0.905,,,,,,,,0.511428571,0.323809524,0,0,0,,0,50,50,153,1,CLUPS,C,old,z,./images/CLUPS.png,,,,,,,,,,,,,,,,,,,,,,,,,,,,,,,,,,,
,,,,,,,,,,,,,,,,,60df9fdeab12699f246cab91,54,2022-02-12_13h34.41.079,lexical_decision_task_DD_L3,2021.2.3,Win32,59.95203837,,,,,,,,,,,1.413,1,,,,,,,,,,,,,,z,1,1.413,,,,,,,,0.511428571,0.323809524,0,0,0,,0,51,51,94,1,BLANS,HB,old,z,./images/BLANSHB.png,,,,,,,,,,,,,,,,,,,,,,,,,,,,,,,,,,,
,,,,,,,,,,,,,,,,,60df9fdeab12699f246cab91,54,2022-02-12_13h34.41.079,lexical_decision_task_DD_L3,2021.2.3,Win32,59.95203837,,,,,,,,,,,1.517,1,,,,,,,,,,,,,,m,1,1.517,,,,,,,,0.511428571,0.323809524,0,0,0,,0,52,52,65,1,FARMER,HB,old,m,./images/FARMERHB.png,,,,,,,,,,,,,,,,,,,,,,,,,,,,,,,,,,,
,,,,,,,,,,,,,,,,,60df9fdeab12699f246cab91,54,2022-02-12_13h34.41.079,lexical_decision_task_DD_L3,2021.2.3,Win32,59.95203837,,,,,,,,,,,0.87,1,,,,,,,,,,,,,,z,1,0.87,,,,,,,,0.511428571,0.323809524,0,0,0,,0,53,53,125,1,MOOKY,LB,old,z,./images/MOOKYLB.png,,,,,,,,,,,,,,,,,,,,,,,,,,,,,,,,,,,
,,,,,,,,,,,,,,,,,60df9fdeab12699f246cab91,54,2022-02-12_13h34.41.079,lexical_decision_task_DD_L3,2021.2.3,Win32,59.95203837,,,,,,,,,,,0.699,1,,,,,,,,,,,,,,m,1,0.699,,,,,,,,0.511428571,0.323809524,0,0,0,,0,54,54,79,1,CRUST,C,old,m,./images/CRUST.png,,,,,,,,,,,,,,,,,,,,,,,,,,,,,,,,,,,
,,,,,,,,,,,,,,,,,60df9fdeab12699f246cab91,54,2022-02-12_13h34.41.079,lexical_decision_task_DD_L3,2021.2.3,Win32,59.95203837,,,,,,,,,,,0.804,1,,,,,,,,,,,,,,z,1,0.804,,,,,,,,0.511428571,0.323809524,0,0,0,,0,55,55,167,1,ZONET,LB,old,z,./images/ZONETLB.png,,,,,,,,,,,,,,,,,,,,,,,,,,,,,,,,,,,
,,,,,,,,,,,,,,,,,60df9fdeab12699f246cab91,54,2022-02-12_13h34.41.079,lexical_decision_task_DD_L3,2021.2.3,Win32,59.95203837,,,,,,,,,,,0.642,1,,,,,,,,,,,,,,m,1,0.642,,,,,,,,0.511428571,0.323809524,0,0,0,,0,56,56,37,1,BIRTH,C,old,m,./images/BIRTH.png,,,,,,,,,,,,,,,,,,,,,,,,,,,,,,,,,,,
,,,,,,,,,,,,,,,,,60df9fdeab12699f246cab91,54,2022-02-12_13h34.41.079,lexical_decision_task_DD_L3,2021.2.3,Win32,59.95203837,,,,,,,,,,,1.343,1,,,,,,,,,,,,,,z,1,1.343,,,,,,,,0.511428571,0.323809524,0,0,0,,0,57,57,97,1,CHIDS,HB,old,z,./images/CHIDSHB.png,,,,,,,,,,,,,,,,,,,,,,,,,,,,,,,,,,,
,,,,,,,,,,,,,,,,,60df9fdeab12699f246cab91,54,2022-02-12_13h34.41.079,lexical_decision_task_DD_L3,2021.2.3,Win32,59.95203837,,,,,,,,,,,0.791,1,,,,,,,,,,,,,,z,1,0.791,,,,,,,,0.511428571,0.323809524,0,0,0,,0,58,58,138,1,PLICE,C,old,z,./images/PLICE.png,,,,,,,,,,,,,,,,,,,,,,,,,,,,,,,,,,,
,,,,,,,,,,,,,,,,,60df9fdeab12699f246cab91,54,2022-02-12_13h34.41.079,lexical_decision_task_DD_L3,2021.2.3,Win32,59.95203837,,,,,,,,,,,1.632,1,,,,,,,,,,,,,,z,1,1.632,,,,,,,,0.511428571,0.323809524,0,0,0,,0,59,59,100,1,DRIBS,HB,old,z,./images/DRIBSHB.png,,,,,,,,,,,,,,,,,,,,,,,,,,,,,,,,,,,
,,,,,,,,,,,,,,,,,60df9fdeab12699f246cab91,54,2022-02-12_13h34.41.079,lexical_decision_task_DD_L3,2021.2.3,Win32,59.95203837,,,,,,,,,,,0.835,1,,,,,,,,,,,,,,z,1,0.835,,,,,,,,0.511428571,0.323809524,0,0,0,,0,60,60,164,1,SGREW,LB,old,z,./images/SGREWLB.png,,,,,,,,,,,,,,,,,,,,,,,,,,,,,,,,,,,
,,,,,,,,,,,,,,,,,60df9fdeab12699f246cab91,54,2022-02-12_13h34.41.079,lexical_decision_task_DD_L3,2021.2.3,Win32,59.95203837,,,,,,,,,,,1.032,1,,,,,,,,,,,,,,m,1,1.032,,,,,,,,0.511428571,0.323809524,0,0,0,,0,61,61,71,1,PIMPLE,HB,old,m,./images/PIMPLEHB.png,,,,,,,,,,,,,,,,,,,,,,,,,,,,,,,,,,,
,,,,,,,,,,,,,,,,,60df9fdeab12699f246cab91,54,2022-02-12_13h34.41.079,lexical_decision_task_DD_L3,2021.2.3,Win32,59.95203837,,,,,,,,,,,0.769,1,,,,,,,,,,,,,,z,1,0.769,,,,,,,,0.511428571,0.323809524,0,0,0,,0,62,62,99,1,BACKY,C,old,z,./images/BACKY.png,,,,,,,,,,,,,,,,,,,,,,,,,,,,,,,,,,,
,,,,,,,,,,,,,,,,,60df9fdeab12699f246cab91,54,2022-02-12_13h34.41.079,lexical_decision_task_DD_L3,2021.2.3,Win32,59.95203837,,,,,,,,,,,0.765,1,,,,,,,,,,,,,,z,1,0.765,,,,,,,,0.511428571,0.323809524,0,0,0,,0,63,63,144,1,NAIRY,C,old,z,./images/NAIRY.png,,,,,,,,,,,,,,,,,,,,,,,,,,,,,,,,,,,
,,,,,,,,,,,,,,,,,60df9fdeab12699f246cab91,54,2022-02-12_13h34.41.079,lexical_decision_task_DD_L3,2021.2.3,Win32,59.95203837,,,,,,,,,,,0.671,1,,,,,,,,,,,,,,m,1,0.671,,,,,,,,0.511428571,0.323809524,0,0,0,,0,64,64,28,1,FALCON,C,old,m,./images/FALCON.png,,,,,,,,,,,,,,,,,,,,,,,,,,,,,,,,,,,
,,,,,,,,,,,,,,,,,60df9fdeab12699f246cab91,54,2022-02-12_13h34.41.079,lexical_decision_task_DD_L3,2021.2.3,Win32,59.95203837,,,,,,,,,,,0.682,1,,,,,,,,,,,,,,z,1,0.682,,,,,,,,0.511428571,0.323809524,0,0,0,,0,65,65,102,1,DULLE,C,old,z,./images/DULLE.png,,,,,,,,,,,,,,,,,,,,,,,,,,,,,,,,,,,
,,,,,,,,,,,,,,,,,60df9fdeab12699f246cab91,54,2022-02-12_13h34.41.079,lexical_decision_task_DD_L3,2021.2.3,Win32,59.95203837,,,,,,,,,,,1.254,1,,,,,,,,,,,,,,z,1,1.254,,,,,,,,0.511428571,0.323809524,0,0,0,,0,66,66,109,1,BURGE,HB,old,z,./images/BURGEHB.png,,,,,,,,,,,,,,,,,,,,,,,,,,,,,,,,,,,
,,,,,,,,,,,,,,,,,60df9fdeab12699f246cab91,54,2022-02-12_13h34.41.079,lexical_decision_task_DD_L3,2021.2.3,Win32,59.95203837,,,,,,,,,,,0.882,1,,,,,,,,,,,,,,m,1,0.882,,,,,,,,0.511428571,0.323809524,0,0,0,,0,67,67,69,1,COOKER,LB,old,m,./images/COOKERLB.png,,,,,,,,,,,,,,,,,,,,,,,,,,,,,,,,,,,
,,,,,,,,,,,,,,,,,60df9fdeab12699f246cab91,54,2022-02-12_13h34.41.079,lexical_decision_task_DD_L3,2021.2.3,Win32,59.95203837,,,,,,,,,,,0.975,1,,,,,,,,,,,,,,m,1,0.975,,,,,,,,0.511428571,0.323809524,0,0,0,,0,68,68,59,1,BURIAL,HB,old,m,./images/BURIALHB.png,,,,,,,,,,,,,,,,,,,,,,,,,,,,,,,,,,,
,,,,,,,,,,,,,,,,,60df9fdeab12699f246cab91,54,2022-02-12_13h34.41.079,lexical_decision_task_DD_L3,2021.2.3,Win32,59.95203837,,,,,,,,,,,1.352,0,,,,,,,,,,,,,,z,0,1.352,,,,,,,,0.511428571,0.323809524,0,0,0,,0,69,69,17,1,SKIING,HB,old,m,./images/SKIINGHB.png,,,,,,,,,,,,,,,,,,,,,,,,,,,,,,,,,,,
,,,,,,,,,,,,,,,,,60df9fdeab12699f246cab91,54,2022-02-12_13h34.41.079,lexical_decision_task_DD_L3,2021.2.3,Win32,59.95203837,,,,,,,,,,,1.033,1,,,,,,,,,,,,,,m,1,1.033,,,,,,,,0.511428571,0.323809524,0,0,0,,0,70,70,41,1,STRING,HB,old,m,./images/STRINGHB.png,,,,,,,,,,,,,,,,,,,,,,,,,,,,,,,,,,,
,,,,,,,,,,,,,,,,,60df9fdeab12699f246cab91,54,2022-02-12_13h34.41.079,lexical_decision_task_DD_L3,2021.2.3,Win32,59.95203837,,,,,,,,,,,0.726,1,,,,,,,,,,,,,,z,1,0.726,,,,,,,,0.511428571,0.323809524,0,0,0,,0,71,71,131,1,NACES,LB,old,z,./images/NACESLB.png,,,,,,,,,,,,,,,,,,,,,,,,,,,,,,,,,,,
,,,,,,,,,,,,,,,,,60df9fdeab12699f246cab91,54,2022-02-12_13h34.41.079,lexical_decision_task_DD_L3,2021.2.3,Win32,59.95203837,,,,,,,,,,,0.749,1,,,,,,,,,,,,,,z,1,0.749,,,,,,,,0.511428571,0.323809524,0,0,0,,0,72,72,84,1,HAXES,C,old,z,./images/HAXES.png,,,,,,,,,,,,,,,,,,,,,,,,,,,,,,,,,,,
,,,,,,,,,,,,,,,,,60df9fdeab12699f246cab91,54,2022-02-12_13h34.41.079,lexical_decision_task_DD_L3,2021.2.3,Win32,59.95203837,,,,,,,,,,,0.76,1,,,,,,,,,,,,,,z,1,0.76,,,,,,,,0.511428571,0.323809524,0,0,0,,0,73,73,90,1,NEAST,C,old,z,./images/NEAST.png,,,,,,,,,,,,,,,,,,,,,,,,,,,,,,,,,,,
,,,,,,,,,,,,,,,,,60df9fdeab12699f246cab91,54,2022-02-12_13h34.41.079,lexical_decision_task_DD_L3,2021.2.3,Win32,59.95203837,,,,,,,,,,,1.249,1,,,,,,,,,,,,,,z,1,1.249,,,,,,,,0.511428571,0.323809524,0,0,0,,0,74,74,154,1,THINT,HB,old,z,./images/THINTHB.png,,,,,,,,,,,,,,,,,,,,,,,,,,,,,,,,,,,
,,,,,,,,,,,,,,,,,60df9fdeab12699f246cab91,54,2022-02-12_13h34.41.079,lexical_decision_task_DD_L3,2021.2.3,Win32,59.95203837,,,,,,,,,,,0.884,1,,,,,,,,,,,,,,z,1,0.884,,,,,,,,0.511428571,0.323809524,0,0,0,,0,75,75,147,1,ZOLES,C,old,z,./images/ZOLES.png,,,,,,,,,,,,,,,,,,,,,,,,,,,,,,,,,,,
,,,,,,,,,,,,,,,,,60df9fdeab12699f246cab91,54,2022-02-12_13h34.41.079,lexical_decision_task_DD_L3,2021.2.3,Win32,59.95203837,,,,,,,,,,,1.052,1,,,,,,,,,,,,,,m,1,1.052,,,,,,,,0.511428571,0.323809524,0,0,0,,0,76,76,80,1,WEASEL,HB,old,m,./images/WEASELHB.png,,,,,,,,,,,,,,,,,,,,,,,,,,,,,,,,,,,
,,,,,,,,,,,,,,,,,60df9fdeab12699f246cab91,54,2022-02-12_13h34.41.079,lexical_decision_task_DD_L3,2021.2.3,Win32,59.95203837,,,,,,,,,,,1.069,1,,,,,,,,,,,,,,z,1,1.069,,,,,,,,0.511428571,0.323809524,0,0,0,,0,77,77,112,1,MYING,HB,old,z,./images/MYINGHB.png,,,,,,,,,,,,,,,,,,,,,,,,,,,,,,,,,,,
,,,,,,,,,,,,,,,,,60df9fdeab12699f246cab91,54,2022-02-12_13h34.41.079,lexical_decision_task_DD_L3,2021.2.3,Win32,59.95203837,,,,,,,,,,,0.726,1,,,,,,,,,,,,,,m,1,0.726,,,,,,,,0.511428571,0.323809524,0,0,0,,0,78,78,67,1,SAILOR,C,old,m,./images/SAILOR.png,,,,,,,,,,,,,,,,,,,,,,,,,,,,,,,,,,,
,,,,,,,,,,,,,,,,,60df9fdeab12699f246cab91,54,2022-02-12_13h34.41.079,lexical_decision_task_DD_L3,2021.2.3,Win32,59.95203837,,,,,,,,,,,0.966,1,,,,,,,,,,,,,,m,1,0.966,,,,,,,,0.511428571,0.323809524,0,0,0,,0,79,79,43,1,MOSQUE,C,old,m,./images/MOSQUE.png,,,,,,,,,,,,,,,,,,,,,,,,,,,,,,,,,,,
,,,,,,,,,,,,,,,,,60df9fdeab12699f246cab91,54,2022-02-12_13h34.41.079,lexical_decision_task_DD_L3,2021.2.3,Win32,59.95203837,,,,,,,,,,,0.716,1,,,,,,,,,,,,,,z,1,0.716,,,,,,,,0.511428571,0.323809524,0,0,0,,0,80,80,162,1,LEICH,C,old,z,./images/LEICH.png,,,,,,,,,,,,,,,,,,,,,,,,,,,,,,,,,,,
,,,,,,,,,,,,,,,,,60df9fdeab12699f246cab91,54,2022-02-12_13h34.41.079,lexical_decision_task_DD_L3,2021.2.3,Win32,59.95203837,,,,,,,,,,,0.868,1,,,,,,,,,,,,,,m,1,0.868,,,,,,,,0.511428571,0.323809524,0,0,0,,0,81,81,78,1,LITTER,LB,old,m,./images/LITTERLB.png,,,,,,,,,,,,,,,,,,,,,,,,,,,,,,,,,,,
,,,,,,,,,,,,,,,,,60df9fdeab12699f246cab91,54,2022-02-12_13h34.41.079,lexical_decision_task_DD_L3,2021.2.3,Win32,59.95203837,,,,,,,,,,,0.893,1,,,,,,,,,,,,,,z,1,0.893,,,,,,,,0.511428571,0.323809524,0,0,0,,0,82,82,159,1,CUDDY,C,old,z,./images/CUDDY.png,,,,,,,,,,,,,,,,,,,,,,,,,,,,,,,,,,,
,,,,,,,,,,,,,,,,,60df9fdeab12699f246cab91,54,2022-02-12_13h34.41.079,lexical_decision_task_DD_L3,2021.2.3,Win32,59.95203837,,,,,,,,,,,0.672,1,,,,,,,,,,,,,,m,1,0.672,,,,,,,,0.511428571,0.323809524,0,0,0,space,0,83,83,49,1,DRUMS,C,old,m,./images/DRUMS.png,10.978,,,,,,,,,,,,,,,,,,,,,,,,,,,,,,,,,,
,,,,,,,,,,,,,,,,,60df9fdeab12699f246cab91,54,2022-02-12_13h34.41.079,lexical_decision_task_DD_L3,2021.2.3,Win32,59.95203837,,,,,,,,,,,0.65,1,,,,,,,,,,,,,,m,1,0.65,,,,,,,,0.511428571,0.323809524,0,0,0,,0,84,84,64,1,JELLY,C,old,m,./images/JELLY.png,,,,,,,,,,,,,,,,,,,,,,,,,,,,,,,,,,,
,,,,,,,,,,,,,,,,,60df9fdeab12699f246cab91,54,2022-02-12_13h34.41.079,lexical_decision_task_DD_L3,2021.2.3,Win32,59.95203837,,,,,,,,,,,0.768,1,,,,,,,,,,,,,,z,1,0.768,,,,,,,,0.511428571,0.323809524,0,0,0,,0,85,85,129,1,PRANS,C,old,z,./images/PRANS.png,,,,,,,,,,,,,,,,,,,,,,,,,,,,,,,,,,,
,,,,,,,,,,,,,,,,,60df9fdeab12699f246cab91,54,2022-02-12_13h34.41.079,lexical_decision_task_DD_L3,2021.2.3,Win32,59.95203837,,,,,,,,,,,1.394,1,,,,,,,,,,,,,,z,1,1.394,,,,,,,,0.511428571,0.323809524,0,0,0,,0,86,86,142,1,PLASK,HB,old,z,./images/PLASKHB.png,,,,,,,,,,,,,,,,,,,,,,,,,,,,,,,,,,,
,,,,,,,,,,,,,,,,,60df9fdeab12699f246cab91,54,2022-02-12_13h34.41.079,lexical_decision_task_DD_L3,2021.2.3,Win32,59.95203837,,,,,,,,,,,0.699,1,,,,,,,,,,,,,,m,1,0.699,,,,,,,,0.511428571,0.323809524,0,0,0,,0,87,87,45,1,KITTEN,LB,old,m,./images/KITTENLB.png,,,,,,,,,,,,,,,,,,,,,,,,,,,,,,,,,,,
,,,,,,,,,,,,,,,,,60df9fdeab12699f246cab91,54,2022-02-12_13h34.41.079,lexical_decision_task_DD_L3,2021.2.3,Win32,59.95203837,,,,,,,,,,,0.932,1,,,,,,,,,,,,,,m,1,0.932,,,,,,,,0.511428571,0.323809524,0,0,0,,0,88,88,14,1,PICKLE,HB,old,m,./images/PICKLEHB.png,,,,,,,,,,,,,,,,,,,,,,,,,,,,,,,,,,,
,,,,,,,,,,,,,,,,,60df9fdeab12699f246cab91,54,2022-02-12_13h34.41.079,lexical_decision_task_DD_L3,2021.2.3,Win32,59.95203837,,,,,,,,,,,0.766,1,,,,,,,,,,,,,,z,1,0.766,,,,,,,,0.511428571,0.323809524,0,0,0,,0,89,89,126,1,GUELS,C,old,z,./images/GUELS.png,,,,,,,,,,,,,,,,,,,,,,,,,,,,,,,,,,,
,,,,,,,,,,,,,,,,,60df9fdeab12699f246cab91,54,2022-02-12_13h34.41.079,lexical_decision_task_DD_L3,2021.2.3,Win32,59.95203837,,,,,,,,,,,0.749,1,,,,,,,,,,,,,,m,1,0.749,,,,,,,,0.511428571,0.323809524,0,0,0,,0,90,90,83,1,JUNGLE,HB,old,m,./images/JUNGLEHB.png,,,,,,,,,,,,,,,,,,,,,,,,,,,,,,,,,,,
,,,,,,,,,,,,,,,,,60df9fdeab12699f246cab91,54,2022-02-12_13h34.41.079,lexical_decision_task_DD_L3,2021.2.3,Win32,59.95203837,,,,,,,,,,,0.933,1,,,,,,,,,,,,,,z,1,0.933,,,,,,,,0.511428571,0.323809524,0,0,0,,0,91,91,114,1,RIKES,C,old,z,./images/RIKES.png,,,,,,,,,,,,,,,,,,,,,,,,,,,,,,,,,,,
,,,,,,,,,,,,,,,,,60df9fdeab12699f246cab91,54,2022-02-12_13h34.41.079,lexical_decision_task_DD_L3,2021.2.3,Win32,59.95203837,,,,,,,,,,,1.175,0,,,,,,,,,,,,,,m,0,1.175,,,,,,,,0.511428571,0.323809524,0,0,0,,0,92,92,103,1,FLORT,HB,old,z,./images/FLORTHB.png,,,,,,,,,,,,,,,,,,,,,,,,,,,,,,,,,,,
,,,,,,,,,,,,,,,,,60df9fdeab12699f246cab91,54,2022-02-12_13h34.41.079,lexical_decision_task_DD_L3,2021.2.3,Win32,59.95203837,,,,,,,,,,,1.065,1,,,,,,,,,,,,,,z,1,1.065,,,,,,,,0.511428571,0.323809524,0,0,0,,0,93,93,141,1,PLEET,C,old,z,./images/PLEET.png,,,,,,,,,,,,,,,,,,,,,,,,,,,,,,,,,,,
,,,,,,,,,,,,,,,,,60df9fdeab12699f246cab91,54,2022-02-12_13h34.41.079,lexical_decision_task_DD_L3,2021.2.3,Win32,59.95203837,,,,,,,,,,,0.688,1,,,,,,,,,,,,,,m,1,0.688,,,,,,,,0.511428571,0.323809524,0,0,0,,0,94,94,61,1,CANDLE,C,old,m,./images/CANDLE.png,,,,,,,,,,,,,,,,,,,,,,,,,,,,,,,,,,,
,,,,,,,,,,,,,,,,,60df9fdeab12699f246cab91,54,2022-02-12_13h34.41.079,lexical_decision_task_DD_L3,2021.2.3,Win32,59.95203837,,,,,,,,,,,1.587,0,,,,,,,,,,,,,,z,0,1.587,,,,,,,,0.511428571,0.323809524,0,0,0,,0,95,95,62,1,PURSE,HB,old,m,./images/PURSEHB.png,,,,,,,,,,,,,,,,,,,,,,,,,,,,,,,,,,,
,,,,,,,,,,,,,,,,,60df9fdeab12699f246cab91,54,2022-02-12_13h34.41.079,lexical_decision_task_DD_L3,2021.2.3,Win32,59.95203837,,,,,,,,,,,0.84,1,,,,,,,,,,,,,,z,1,0.84,,,,,,,,0.511428571,0.323809524,0,0,0,,0,96,96,165,1,TROWN,C,old,z,./images/TROWN.png,,,,,,,,,,,,,,,,,,,,,,,,,,,,,,,,,,,
,,,,,,,,,,,,,,,,,60df9fdeab12699f246cab91,54,2022-02-12_13h34.41.079,lexical_decision_task_DD_L3,2021.2.3,Win32,59.95203837,,,,,,,,,,,0.854,1,,,,,,,,,,,,,,m,1,0.854,,,,,,,,0.511428571,0.323809524,0,0,0,,0,97,97,68,1,TORCH,HB,old,m,./images/TORCHHB.png,,,,,,,,,,,,,,,,,,,,,,,,,,,,,,,,,,,
,,,,,,,,,,,,,,,,,60df9fdeab12699f246cab91,54,2022-02-12_13h34.41.079,lexical_decision_task_DD_L3,2021.2.3,Win32,59.95203837,,,,,,,,,,,1.106,1,,,,,,,,,,,,,,m,1,1.106,,,,,,,,0.511428571,0.323809524,0,0,0,,0,98,98,20,1,CRADLE,HB,old,m,./images/CRADLEHB.png,,,,,,,,,,,,,,,,,,,,,,,,,,,,,,,,,,,
,,,,,,,,,,,,,,,,,60df9fdeab12699f246cab91,54,2022-02-12_13h34.41.079,lexical_decision_task_DD_L3,2021.2.3,Win32,59.95203837,,,,,,,,,,,0.763,1,,,,,,,,,,,,,,z,1,0.763,,,,,,,,0.511428571,0.323809524,0,0,0,,0,99,99,93,1,SMONE,C,old,z,./images/SMONE.png,,,,,,,,,,,,,,,,,,,,,,,,,,,,,,,,,,,
,,,,,,,,,,,,,,,,,60df9fdeab12699f246cab91,54,2022-02-12_13h34.41.079,lexical_decision_task_DD_L3,2021.2.3,Win32,59.95203837,,,,,,,,,,,0.699,1,,,,,,,,,,,,,,m,1,0.699,,,,,,,,0.511428571,0.323809524,0,0,0,,0,100,100,3,1,FINGER,LB,old,m,./images/FINGERLB.png,,,,,,,,,,,,,,,,,,,,,,,,,,,,,,,,,,,
,,,,,,,,,,,,,,,,,60df9fdeab12699f246cab91,54,2022-02-12_13h34.41.079,lexical_decision_task_DD_L3,2021.2.3,Win32,59.95203837,,,,,,,,,,,0.699,1,,,,,,,,,,,,,,m,1,0.699,,,,,,,,0.511428571,0.323809524,0,0,0,,0,101,101,18,1,JAGUAR,LB,old,m,./images/JAGUARLB.png,,,,,,,,,,,,,,,,,,,,,,,,,,,,,,,,,,,
,,,,,,,,,,,,,,,,,60df9fdeab12699f246cab91,54,2022-02-12_13h34.41.079,lexical_decision_task_DD_L3,2021.2.3,Win32,59.95203837,,,,,,,,,,,0.632,1,,,,,,,,,,,,,,m,1,0.632,,,,,,,,0.511428571,0.323809524,0,0,0,,0,102,102,21,1,KIDNEY,LB,old,m,./images/KIDNEYLB.png,,,,,,,,,,,,,,,,,,,,,,,,,,,,,,,,,,,
,,,,,,,,,,,,,,,,,60df9fdeab12699f246cab91,54,2022-02-12_13h34.41.079,lexical_decision_task_DD_L3,2021.2.3,Win32,59.95203837,,,,,,,,,,,1.181,1,,,,,,,,,,,,,,z,1,1.181,,,,,,,,0.511428571,0.323809524,0,0,0,,0,103,103,130,1,CRILL,HB,old,z,./images/CRILLHB.png,,,,,,,,,,,,,,,,,,,,,,,,,,,,,,,,,,,
,,,,,,,,,,,,,,,,,60df9fdeab12699f246cab91,54,2022-02-12_13h34.41.079,lexical_decision_task_DD_L3,2021.2.3,Win32,59.95203837,,,,,,,,,,,0.801,1,,,,,,,,,,,,,,z,1,0.801,,,,,,,,0.511428571,0.323809524,0,0,0,,0,104,104,108,1,GRUET,C,old,z,./images/GRUET.png,,,,,,,,,,,,,,,,,,,,,,,,,,,,,,,,,,,
,,,,,,,,,,,,,,,,,60df9fdeab12699f246cab91,54,2022-02-12_13h34.41.079,lexical_decision_task_DD_L3,2021.2.3,Win32,59.95203837,,,,,,,,,,,1.007,1,,,,,,,,,,,,,,m,1,1.007,,,,,,,,0.511428571,0.323809524,0,0,0,,0,105,105,38,1,LADDER,HB,old,m,./images/LADDERHB.png,,,,,,,,,,,,,,,,,,,,,,,,,,,,,,,,,,,
,,,,,,,,,,,,,,,,,60df9fdeab12699f246cab91,54,2022-02-12_13h34.41.079,lexical_decision_task_DD_L3,2021.2.3,Win32,59.95203837,,,,,,,,,,,1.258,1,,,,,,,,,,,,,,z,1,1.258,,,,,,,,0.511428571,0.323809524,0,0,0,,0,106,106,148,1,JOMS,HB,old,z,./images/JOMSHB.png,,,,,,,,,,,,,,,,,,,,,,,,,,,,,,,,,,,
,,,,,,,,,,,,,,,,,60df9fdeab12699f246cab91,54,2022-02-12_13h34.41.079,lexical_decision_task_DD_L3,2021.2.3,Win32,59.95203837,,,,,,,,,,,0.9,1,,,,,,,,,,,,,,z,1,0.9,,,,,,,,0.511428571,0.323809524,0,0,0,,0,107,107,134,1,TROSS,LB,old,z,./images/TROSSLB.png,,,,,,,,,,,,,,,,,,,,,,,,,,,,,,,,,,,
,,,,,,,,,,,,,,,,,60df9fdeab12699f246cab91,54,2022-02-12_13h34.41.079,lexical_decision_task_DD_L3,2021.2.3,Win32,59.95203837,,,,,,,,,,,1.218,1,,,,,,,,,,,,,,m,1,1.218,,,,,,,,0.511428571,0.323809524,0,0,0,,0,108,108,23,1,WALRUS,HB,old,m,./images/WALRUSHB.png,,,,,,,,,,,,,,,,,,,,,,,,,,,,,,,,,,,
,,,,,,,,,,,,,,,,,60df9fdeab12699f246cab91,54,2022-02-12_13h34.41.079,lexical_decision_task_DD_L3,2021.2.3,Win32,59.95203837,,,,,,,,,,,0.774,1,,,,,,,,,,,,,,m,1,0.774,,,,,,,,0.511428571,0.323809524,0,0,0,,0,109,109,19,1,DOUGH,C,old,m,./images/DOUGH.png,,,,,,,,,,,,,,,,,,,,,,,,,,,,,,,,,,,
,,,,,,,,,,,,,,,,,60df9fdeab12699f246cab91,54,2022-02-12_13h34.41.079,lexical_decision_task_DD_L3,2021.2.3,Win32,59.95203837,,,,,,,,,,,0.619,1,,,,,,,,,,,,,,m,1,0.619,,,,,,,,0.511428571,0.323809524,0,0,0,,0,110,110,34,1,CANYON,C,old,m,./images/CANYON.png,,,,,,,,,,,,,,,,,,,,,,,,,,,,,,,,,,,
,,,,,,,,,,,,,,,,,60df9fdeab12699f246cab91,54,2022-02-12_13h34.41.079,lexical_decision_task_DD_L3,2021.2.3,Win32,59.95203837,,,,,,,,,,,1.274,1,,,,,,,,,,,,,,m,1,1.274,,,,,,,,0.511428571,0.323809524,0,0,0,,0,111,111,2,1,BEARD,HB,old,m,./images/BEARDHB.png,,,,,,,,,,,,,,,,,,,,,,,,,,,,,,,,,,,
,,,,,,,,,,,,,,,,,60df9fdeab12699f246cab91,54,2022-02-12_13h34.41.079,lexical_decision_task_DD_L3,2021.2.3,Win32,59.95203837,,,,,,,,,,,1.269,0,,,,,,,,,,,,,,m,0,1.269,,,,,,,,0.511428571,0.323809524,0,0,0,,0,112,112,123,1,SEDGE,C,old,z,./images/SEDGE.png,,,,,,,,,,,,,,,,,,,,,,,,,,,,,,,,,,,
,,,,,,,,,,,,,,,,,60df9fdeab12699f246cab91,54,2022-02-12_13h34.41.079,lexical_decision_task_DD_L3,2021.2.3,Win32,59.95203837,,,,,,,,,,,1.006,1,,,,,,,,,,,,,,z,1,1.006,,,,,,,,0.511428571,0.323809524,0,0,0,,0,113,113,149,1,VEASE,LB,old,z,./images/VEASELB.png,,,,,,,,,,,,,,,,,,,,,,,,,,,,,,,,,,,
,,,,,,,,,,,,,,,,,60df9fdeab12699f246cab91,54,2022-02-12_13h34.41.079,lexical_decision_task_DD_L3,2021.2.3,Win32,59.95203837,,,,,,,,,,,1.335,1,,,,,,,,,,,,,,z,1,1.335,,,,,,,,0.511428571,0.323809524,0,0,0,,0,114,114,118,1,BAVEL,HB,old,z,./images/BAVELHB.png,,,,,,,,,,,,,,,,,,,,,,,,,,,,,,,,,,,
,,,,,,,,,,,,,,,,,60df9fdeab12699f246cab91,54,2022-02-12_13h34.41.079,lexical_decision_task_DD_L3,2021.2.3,Win32,59.95203837,,,,,,,,,,,0.639,1,,,,,,,,,,,,,,m,1,0.639,,,,,,,,0.511428571,0.323809524,0,0,0,,0,115,115,63,1,MIRROR,LB,old,m,./images/MIRRORLB.png,,,,,,,,,,,,,,,,,,,,,,,,,,,,,,,,,,,
,,,,,,,,,,,,,,,,,60df9fdeab12699f246cab91,54,2022-02-12_13h34.41.079,lexical_decision_task_DD_L3,2021.2.3,Win32,59.95203837,,,,,,,,,,,1.443,1,,,,,,,,,,,,,,z,1,1.443,,,,,,,,0.511428571,0.323809524,0,0,0,,0,116,116,151,1,TINKY,HB,old,z,./images/TINKYHB.png,,,,,,,,,,,,,,,,,,,,,,,,,,,,,,,,,,,
,,,,,,,,,,,,,,,,,60df9fdeab12699f246cab91,54,2022-02-12_13h34.41.079,lexical_decision_task_DD_L3,2021.2.3,Win32,59.95203837,,,,,,,,,,,1.408,0,,,,,,,,,,,,,,z,0,1.408,,,,,,,,0.511428571,0.323809524,0,0,0,,0,117,117,74,1,CEMENT,HB,old,m,./images/CEMENTHB.png,,,,,,,,,,,,,,,,,,,,,,,,,,,,,,,,,,,
,,,,,,,,,,,,,,,,,60df9fdeab12699f246cab91,54,2022-02-12_13h34.41.079,lexical_decision_task_DD_L3,2021.2.3,Win32,59.95203837,,,,,,,,,,,0.7,1,,,,,,,,,,,,,,m,1,0.7,,,,,,,,0.511428571,0.323809524,0,0,0,,0,118,118,70,1,URINE,C,old,m,./images/URINE.png,,,,,,,,,,,,,,,,,,,,,,,,,,,,,,,,,,,
,,,,,,,,,,,,,,,,,60df9fdeab12699f246cab91,54,2022-02-12_13h34.41.079,lexical_decision_task_DD_L3,2021.2.3,Win32,59.95203837,,,,,,,,,,,0.881,1,,,,,,,,,,,,,,z,1,0.881,,,,,,,,0.511428571,0.323809524,0,0,0,,0,119,119,101,1,GLEET,LB,old,z,./images/GLEETLB.png,,,,,,,,,,,,,,,,,,,,,,,,,,,,,,,,,,,
,,,,,,,,,,,,,,,,,60df9fdeab12699f246cab91,54,2022-02-12_13h34.41.079,lexical_decision_task_DD_L3,2021.2.3,Win32,59.95203837,,,,,,,,,,,0.889,1,,,,,,,,,,,,,,m,1,0.889,,,,,,,,0.511428571,0.323809524,0,0,0,,0,120,120,77,1,COUCH,HB,old,m,./images/COUCHHB.png,,,,,,,,,,,,,,,,,,,,,,,,,,,,,,,,,,,
,,,,,,,,,,,,,,,,,60df9fdeab12699f246cab91,54,2022-02-12_13h34.41.079,lexical_decision_task_DD_L3,2021.2.3,Win32,59.95203837,,,,,,,,,,,0.707,1,,,,,,,,,,,,,,m,1,0.707,,,,,,,,0.511428571,0.323809524,0,0,0,,0,121,121,25,1,WRIST,C,old,m,./images/WRIST.png,,,,,,,,,,,,,,,,,,,,,,,,,,,,,,,,,,,
,,,,,,,,,,,,,,,,,60df9fdeab12699f246cab91,54,2022-02-12_13h34.41.079,lexical_decision_task_DD_L3,2021.2.3,Win32,59.95203837,,,,,,,,,,,0.773,1,,,,,,,,,,,,,,z,1,0.773,,,,,,,,0.511428571,0.323809524,0,0,0,,0,122,122,135,1,JOODY,C,old,z,./images/JOODY.png,,,,,,,,,,,,,,,,,,,,,,,,,,,,,,,,,,,
,,,,,,,,,,,,,,,,,60df9fdeab12699f246cab91,54,2022-02-12_13h34.41.079,lexical_decision_task_DD_L3,2021.2.3,Win32,59.95203837,,,,,,,,,,,0.957,1,,,,,,,,,,,,,,m,1,0.957,,,,,,,,0.511428571,0.323809524,0,0,0,,0,123,123,35,1,PEACH,HB,old,m,./images/PEACHHB.png,,,,,,,,,,,,,,,,,,,,,,,,,,,,,,,,,,,
,,,,,,,,,,,,,,,,,60df9fdeab12699f246cab91,54,2022-02-12_13h34.41.079,lexical_decision_task_DD_L3,2021.2.3,Win32,59.95203837,,,,,,,,,,,0.7,1,,,,,,,,,,,,,,m,1,0.7,,,,,,,,0.511428571,0.323809524,0,0,0,,0,124,124,1,1,PLANK,C,old,m,./images/PLANK.png,,,,,,,,,,,,,,,,,,,,,,,,,,,,,,,,,,,
,,,,,,,,,,,,,,,,,60df9fdeab12699f246cab91,54,2022-02-12_13h34.41.079,lexical_decision_task_DD_L3,2021.2.3,Win32,59.95203837,,,,,,,,,,,0.684,1,,,,,,,,,,,,,,m,1,0.684,,,,,,,,0.511428571,0.323809524,0,0,0,space,0,125,125,39,1,SHELF,LB,old,m,./images/SHELFLB.png,3.634,,,,,,,,,,,,,,,,,,,,,,,,,,,,,,,,,,
,,,,,,,,,,,,,,,,,60df9fdeab12699f246cab91,54,2022-02-12_13h34.41.079,lexical_decision_task_DD_L3,2021.2.3,Win32,59.95203837,,,,,,,,,,,1.615,1,,,,,,,,,,,,,,m,1,1.615,,,,,,,,0.511428571,0.323809524,0,0,0,,0,126,126,29,1,CRUMB,HB,old,m,./images/CRUMBHB.png,,,,,,,,,,,,,,,,,,,,,,,,,,,,,,,,,,,
,,,,,,,,,,,,,,,,,60df9fdeab12699f246cab91,54,2022-02-12_13h34.41.079,lexical_decision_task_DD_L3,2021.2.3,Win32,59.95203837,,,,,,,,,,,0.815,1,,,,,,,,,,,,,,z,1,0.815,,,,,,,,0.511428571,0.323809524,0,0,0,,0,127,127,119,1,PAFER,LB,old,z,./images/PAFERLB.png,,,,,,,,,,,,,,,,,,,,,,,,,,,,,,,,,,,
,,,,,,,,,,,,,,,,,60df9fdeab12699f246cab91,54,2022-02-12_13h34.41.079,lexical_decision_task_DD_L3,2021.2.3,Win32,59.95203837,,,,,,,,,,,0.916,1,,,,,,,,,,,,,,z,1,0.916,,,,,,,,0.511428571,0.323809524,0,0,0,,0,128,128,92,1,PAIMS,LB,old,z,./images/PAIMSLB.png,,,,,,,,,,,,,,,,,,,,,,,,,,,,,,,,,,,
,,,,,,,,,,,,,,,,,60df9fdeab12699f246cab91,54,2022-02-12_13h34.41.079,lexical_decision_task_DD_L3,2021.2.3,Win32,59.95203837,,,,,,,,,,,0.702,1,,,,,,,,,,,,,,m,1,0.702,,,,,,,,0.511428571,0.323809524,0,0,0,,0,129,129,72,1,NOOSE,LB,old,m,./images/NOOSELB.png,,,,,,,,,,,,,,,,,,,,,,,,,,,,,,,,,,,
,,,,,,,,,,,,,,,,,60df9fdeab12699f246cab91,54,2022-02-12_13h34.41.079,lexical_decision_task_DD_L3,2021.2.3,Win32,59.95203837,,,,,,,,,,,0.681,1,,,,,,,,,,,,,,m,1,0.681,,,,,,,,0.511428571,0.323809524,0,0,0,,0,130,130,60,1,TWINS,LB,old,m,./images/TWINSLB.png,,,,,,,,,,,,,,,,,,,,,,,,,,,,,,,,,,,
,,,,,,,,,,,,,,,,,60df9fdeab12699f246cab91,54,2022-02-12_13h34.41.079,lexical_decision_task_DD_L3,2021.2.3,Win32,59.95203837,,,,,,,,,,,0.907,1,,,,,,,,,,,,,,m,1,0.907,,,,,,,,0.511428571,0.323809524,0,0,0,,0,131,131,42,1,FOLDER,LB,old,m,./images/FOLDERLB.png,,,,,,,,,,,,,,,,,,,,,,,,,,,,,,,,,,,
,,,,,,,,,,,,,,,,,60df9fdeab12699f246cab91,54,2022-02-12_13h34.41.079,lexical_decision_task_DD_L3,2021.2.3,Win32,59.95203837,,,,,,,,,,,1.108,1,,,,,,,,,,,,,,m,1,1.108,,,,,,,,0.511428571,0.323809524,0,0,0,,0,132,132,11,1,BONNET,HB,old,m,./images/BONNETHB.png,,,,,,,,,,,,,,,,,,,,,,,,,,,,,,,,,,,
,,,,,,,,,,,,,,,,,60df9fdeab12699f246cab91,54,2022-02-12_13h34.41.079,lexical_decision_task_DD_L3,2021.2.3,Win32,59.95203837,,,,,,,,,,,1.454,1,,,,,,,,,,,,,,z,1,1.454,,,,,,,,0.511428571,0.323809524,0,0,0,,0,133,133,115,1,MAWNS,HB,old,z,./images/MAWNSHB.png,,,,,,,,,,,,,,,,,,,,,,,,,,,,,,,,,,,
,,,,,,,,,,,,,,,,,60df9fdeab12699f246cab91,54,2022-02-12_13h34.41.079,lexical_decision_task_DD_L3,2021.2.3,Win32,59.95203837,,,,,,,,,,,1.766,1,,,,,,,,,,,,,,z,1,1.766,,,,,,,,0.511428571,0.323809524,0,0,0,,0,134,134,163,1,GAMBA,HB,old,z,./images/GAMBAHB.png,,,,,,,,,,,,,,,,,,,,,,,,,,,,,,,,,,,
,,,,,,,,,,,,,,,,,60df9fdeab12699f246cab91,54,2022-02-12_13h34.41.079,lexical_decision_task_DD_L3,2021.2.3,Win32,59.95203837,,,,,,,,,,,0.916,1,,,,,,,,,,,,,,z,1,0.916,,,,,,,,0.511428571,0.323809524,0,0,0,,0,135,135,155,1,CANGY,LB,old,z,./images/CANGYLB.png,,,,,,,,,,,,,,,,,,,,,,,,,,,,,,,,,,,
,,,,,,,,,,,,,,,,,60df9fdeab12699f246cab91,54,2022-02-12_13h34.41.079,lexical_decision_task_DD_L3,2021.2.3,Win32,59.95203837,,,,,,,,,,,0.919,1,,,,,,,,,,,,,,m,1,0.919,,,,,,,,0.511428571,0.323809524,0,0,0,,0,136,136,53,1,CARPET,HB,old,m,./images/CARPETHB.png,,,,,,,,,,,,,,,,,,,,,,,,,,,,,,,,,,,
,,,,,,,,,,,,,,,,,60df9fdeab12699f246cab91,54,2022-02-12_13h34.41.079,lexical_decision_task_DD_L3,2021.2.3,Win32,59.95203837,,,,,,,,,,,0.825,1,,,,,,,,,,,,,,m,1,0.825,,,,,,,,0.511428571,0.323809524,0,0,0,,0,137,137,15,1,GREASE,LB,old,m,./images/GREASELB.png,,,,,,,,,,,,,,,,,,,,,,,,,,,,,,,,,,,
,,,,,,,,,,,,,,,,,60df9fdeab12699f246cab91,54,2022-02-12_13h34.41.079,lexical_decision_task_DD_L3,2021.2.3,Win32,59.95203837,,,,,,,,,,,0.957,1,,,,,,,,,,,,,,z,1,0.957,,,,,,,,0.511428571,0.323809524,0,0,0,,0,138,138,124,1,TUNCH,HB,old,z,./images/TUNCHHB.png,,,,,,,,,,,,,,,,,,,,,,,,,,,,,,,,,,,
,,,,,,,,,,,,,,,,,60df9fdeab12699f246cab91,54,2022-02-12_13h34.41.079,lexical_decision_task_DD_L3,2021.2.3,Win32,59.95203837,,,,,,,,,,,0.853,1,,,,,,,,,,,,,,z,1,0.853,,,,,,,,0.511428571,0.323809524,0,0,0,,0,139,139,96,1,KEAMS,C,old,z,./images/KEAMS.png,,,,,,,,,,,,,,,,,,,,,,,,,,,,,,,,,,,
,,,,,,,,,,,,,,,,,60df9fdeab12699f246cab91,54,2022-02-12_13h34.41.079,lexical_decision_task_DD_L3,2021.2.3,Win32,59.95203837,,,,,,,,,,,0.749,1,,,,,,,,,,,,,,m,1,0.749,,,,,,,,0.511428571,0.323809524,0,0,0,,0,140,140,66,1,SWEAT,LB,old,m,./images/SWEATLB.png,,,,,,,,,,,,,,,,,,,,,,,,,,,,,,,,,,,
,,,,,,,,,,,,,,,,,60df9fdeab12699f246cab91,54,2022-02-12_13h34.41.079,lexical_decision_task_DD_L3,2021.2.3,Win32,59.95203837,,,,,,,,,,,1.341,1,,,,,,,,,,,,,,z,1,1.341,,,,,,,,0.511428571,0.323809524,0,0,0,,0,141,141,166,1,SHORY,HB,old,z,./images/SHORYHB.png,,,,,,,,,,,,,,,,,,,,,,,,,,,,,,,,,,,
,,,,,,,,,,,,,,,,,60df9fdeab12699f246cab91,54,2022-02-12_13h34.41.079,lexical_decision_task_DD_L3,2021.2.3,Win32,59.95203837,,,,,,,,,,,0.7,1,,,,,,,,,,,,,,m,1,0.7,,,,,,,,0.511428571,0.323809524,0,0,0,,0,142,142,22,1,MELON,C,old,m,./images/MELON.png,,,,,,,,,,,,,,,,,,,,,,,,,,,,,,,,,,,
,,,,,,,,,,,,,,,,,60df9fdeab12699f246cab91,54,2022-02-12_13h34.41.079,lexical_decision_task_DD_L3,2021.2.3,Win32,59.95203837,,,,,,,,,,,0.801,1,,,,,,,,,,,,,,z,1,0.801,,,,,,,,0.511428571,0.323809524,0,0,0,,0,143,143,107,1,FASKS,LB,old,z,./images/FASKSLB.png,,,,,,,,,,,,,,,,,,,,,,,,,,,,,,,,,,,
,,,,,,,,,,,,,,,,,60df9fdeab12699f246cab91,54,2022-02-12_13h34.41.079,lexical_decision_task_DD_L3,2021.2.3,Win32,59.95203837,,,,,,,,,,,0.786,1,,,,,,,,,,,,,,z,1,0.786,,,,,,,,0.511428571,0.323809524,0,0,0,,0,144,144,143,1,MONGS,LB,old,z,./images/MONGSLB.png,,,,,,,,,,,,,,,,,,,,,,,,,,,,,,,,,,,
,,,,,,,,,,,,,,,,,60df9fdeab12699f246cab91,54,2022-02-12_13h34.41.079,lexical_decision_task_DD_L3,2021.2.3,Win32,59.95203837,,,,,,,,,,,1.12,1,,,,,,,,,,,,,,z,1,1.12,,,,,,,,0.511428571,0.323809524,0,0,0,,0,145,145,121,1,CEERS,HB,old,z,./images/CEERSHB.png,,,,,,,,,,,,,,,,,,,,,,,,,,,,,,,,,,,
,,,,,,,,,,,,,,,,,60df9fdeab12699f246cab91,54,2022-02-12_13h34.41.079,lexical_decision_task_DD_L3,2021.2.3,Win32,59.95203837,,,,,,,,,,,0.778,1,,,,,,,,,,,,,,m,1,0.778,,,,,,,,0.511428571,0.323809524,0,0,0,,0,146,146,48,1,SPORT,LB,old,m,./images/SPORTLB.png,,,,,,,,,,,,,,,,,,,,,,,,,,,,,,,,,,,
,,,,,,,,,,,,,,,,,60df9fdeab12699f246cab91,54,2022-02-12_13h34.41.079,lexical_decision_task_DD_L3,2021.2.3,Win32,59.95203837,,,,,,,,,,,0.981,1,,,,,,,,,,,,,,z,1,0.981,,,,,,,,0.511428571,0.323809524,0,0,0,,0,147,147,160,1,VEETS,HB,old,z,./images/VEETSHB.png,,,,,,,,,,,,,,,,,,,,,,,,,,,,,,,,,,,
,,,,,,,,,,,,,,,,,60df9fdeab12699f246cab91,54,2022-02-12_13h34.41.079,lexical_decision_task_DD_L3,2021.2.3,Win32,59.95203837,,,,,,,,,,,0.698,1,,,,,,,,,,,,,,m,1,0.698,,,,,,,,0.511428571,0.323809524,0,0,0,,0,148,148,36,1,THROAT,LB,old,m,./images/THROATLB.png,,,,,,,,,,,,,,,,,,,,,,,,,,,,,,,,,,,
,,,,,,,,,,,,,,,,,60df9fdeab12699f246cab91,54,2022-02-12_13h34.41.079,lexical_decision_task_DD_L3,2021.2.3,Win32,59.95203837,,,,,,,,,,,1.16,1,,,,,,,,,,,,,,z,1,1.16,,,,,,,,0.511428571,0.323809524,0,0,0,,0,149,149,133,1,POWDY,HB,old,z,./images/POWDYHB.png,,,,,,,,,,,,,,,,,,,,,,,,,,,,,,,,,,,
,,,,,,,,,,,,,,,,,60df9fdeab12699f246cab91,54,2022-02-12_13h34.41.079,lexical_decision_task_DD_L3,2021.2.3,Win32,59.95203837,,,,,,,,,,,0.667,1,,,,,,,,,,,,,,m,1,0.667,,,,,,,,0.511428571,0.323809524,0,0,0,,0,150,150,55,1,MUFFIN,C,old,m,./images/MUFFIN.png,,,,,,,,,,,,,,,,,,,,,,,,,,,,,,,,,,,
,,,,,,,,,,,,,,,,,60df9fdeab12699f246cab91,54,2022-02-12_13h34.41.079,lexical_decision_task_DD_L3,2021.2.3,Win32,59.95203837,,,,,,,,,,,1.234,1,,,,,,,,,,,,,,z,1,1.234,,,,,,,,0.511428571,0.323809524,0,0,0,,0,151,151,127,1,NINDY,HB,old,z,./images/NINDYHB.png,,,,,,,,,,,,,,,,,,,,,,,,,,,,,,,,,,,
,,,,,,,,,,,,,,,,,60df9fdeab12699f246cab91,54,2022-02-12_13h34.41.079,lexical_decision_task_DD_L3,2021.2.3,Win32,59.95203837,,,,,,,,,,,0.885,1,,,,,,,,,,,,,,z,1,0.885,,,,,,,,0.511428571,0.323809524,0,0,0,,0,152,152,137,1,JOOST,LB,old,z,./images/JOOSTLB.png,,,,,,,,,,,,,,,,,,,,,,,,,,,,,,,,,,,
,,,,,,,,,,,,,,,,,60df9fdeab12699f246cab91,54,2022-02-12_13h34.41.079,lexical_decision_task_DD_L3,2021.2.3,Win32,59.95203837,,,,,,,,,,,0.72,1,,,,,,,,,,,,,,m,1,0.72,,,,,,,,0.511428571,0.323809524,0,0,0,,0,153,153,58,1,BABOON,C,old,m,./images/BABOON.png,,,,,,,,,,,,,,,,,,,,,,,,,,,,,,,,,,,
,,,,,,,,,,,,,,,,,60df9fdeab12699f246cab91,54,2022-02-12_13h34.41.079,lexical_decision_task_DD_L3,2021.2.3,Win32,59.95203837,,,,,,,,,,,0.719,1,,,,,,,,,,,,,,z,1,0.719,,,,,,,,0.511428571,0.323809524,0,0,0,,0,154,154,117,1,STEEG,C,old,z,./images/STEEG.png,,,,,,,,,,,,,,,,,,,,,,,,,,,,,,,,,,,
,,,,,,,,,,,,,,,,,60df9fdeab12699f246cab91,54,2022-02-12_13h34.41.079,lexical_decision_task_DD_L3,2021.2.3,Win32,59.95203837,,,,,,,,,,,0.801,1,,,,,,,,,,,,,,z,1,0.801,,,,,,,,0.511428571,0.323809524,0,0,0,,0,155,155,113,1,LINEW,LB,old,z,./images/LINEWLB.png,,,,,,,,,,,,,,,,,,,,,,,,,,,,,,,,,,,
,,,,,,,,,,,,,,,,,60df9fdeab12699f246cab91,54,2022-02-12_13h34.41.079,lexical_decision_task_DD_L3,2021.2.3,Win32,59.95203837,,,,,,,,,,,0.752,1,,,,,,,,,,,,,,m,1,0.752,,,,,,,,0.511428571,0.323809524,0,0,0,,0,156,156,31,1,QUILL,C,old,m,./images/QUILL.png,,,,,,,,,,,,,,,,,,,,,,,,,,,,,,,,,,,
,,,,,,,,,,,,,,,,,60df9fdeab12699f246cab91,54,2022-02-12_13h34.41.079,lexical_decision_task_DD_L3,2021.2.3,Win32,59.95203837,,,,,,,,,,,0.791,1,,,,,,,,,,,,,,m,1,0.791,,,,,,,,0.511428571,0.323809524,0,0,0,,0,157,157,9,1,RHINO,LB,old,m,./images/RHINOLB.png,,,,,,,,,,,,,,,,,,,,,,,,,,,,,,,,,,,
,,,,,,,,,,,,,,,,,60df9fdeab12699f246cab91,54,2022-02-12_13h34.41.079,lexical_decision_task_DD_L3,2021.2.3,Win32,59.95203837,,,,,,,,,,,0.821,1,,,,,,,,,,,,,,m,1,0.821,,,,,,,,0.511428571,0.323809524,0,0,0,,0,158,158,40,1,SWING,C,old,m,./images/SWING.png,,,,,,,,,,,,,,,,,,,,,,,,,,,,,,,,,,,
,,,,,,,,,,,,,,,,,60df9fdeab12699f246cab91,54,2022-02-12_13h34.41.079,lexical_decision_task_DD_L3,2021.2.3,Win32,59.95203837,,,,,,,,,,,0.691,1,,,,,,,,,,,,,,m,1,0.691,,,,,,,,0.511428571,0.323809524,0,0,0,,0,159,159,82,1,SUNSET,C,old,m,./images/SUNSET.png,,,,,,,,,,,,,,,,,,,,,,,,,,,,,,,,,,,
,,,,,,,,,,,,,,,,,60df9fdeab12699f246cab91,54,2022-02-12_13h34.41.079,lexical_decision_task_DD_L3,2021.2.3,Win32,59.95203837,,,,,,,,,,,0.957,1,,,,,,,,,,,,,,m,1,0.957,,,,,,,,0.511428571,0.323809524,0,0,0,,0,160,160,32,1,BARREL,HB,old,m,./images/BARRELHB.png,,,,,,,,,,,,,,,,,,,,,,,,,,,,,,,,,,,
,,,,,,,,,,,,,,,,,60df9fdeab12699f246cab91,54,2022-02-12_13h34.41.079,lexical_decision_task_DD_L3,2021.2.3,Win32,59.95203837,,,,,,,,,,,0.783,1,,,,,,,,,,,,,,z,1,0.783,,,,,,,,0.511428571,0.323809524,0,0,0,,0,161,161,86,1,AIFED,LB,old,z,./images/AIFEDLB.png,,,,,,,,,,,,,,,,,,,,,,,,,,,,,,,,,,,
,,,,,,,,,,,,,,,,,60df9fdeab12699f246cab91,54,2022-02-12_13h34.41.079,lexical_decision_task_DD_L3,2021.2.3,Win32,59.95203837,,,,,,,,,,,1.164,0,,,,,,,,,,,,,,m,0,1.164,,,,,,,,0.511428571,0.323809524,0,0,0,,0,162,162,140,1,DOVET,LB,old,z,./images/DOVETLB.png,,,,,,,,,,,,,,,,,,,,,,,,,,,,,,,,,,,
,,,,,,,,,,,,,,,,,60df9fdeab12699f246cab91,54,2022-02-12_13h34.41.079,lexical_decision_task_DD_L3,2021.2.3,Win32,59.95203837,,,,,,,,,,,0.6,1,,,,,,,,,,,,,,m,1,0.6,,,,,,,,0.511428571,0.323809524,0,0,0,,0,163,163,13,1,MOTOR,C,old,m,./images/MOTOR.png,,,,,,,,,,,,,,,,,,,,,,,,,,,,,,,,,,,
,,,,,,,,,,,,,,,,,60df9fdeab12699f246cab91,54,2022-02-12_13h34.41.079,lexical_decision_task_DD_L3,2021.2.3,Win32,59.95203837,,,,,,,,,,,1.001,1,,,,,,,,,,,,,,z,1,1.001,,,,,,,,0.511428571,0.323809524,0,0,0,,0,164,164,145,1,LAMEL,HB,old,z,./images/LAMELHB.png,,,,,,,,,,,,,,,,,,,,,,,,,,,,,,,,,,,
,,,,,,,,,,,,,,,,,60df9fdeab12699f246cab91,54,2022-02-12_13h34.41.079,lexical_decision_task_DD_L3,2021.2.3,Win32,59.95203837,,,,,,,,,,,0.774,1,,,,,,,,,,,,,,z,1,0.774,,,,,,,,0.511428571,0.323809524,0,0,0,,0,165,165,105,1,MOKER,C,old,z,./images/MOKER.png,,,,,,,,,,,,,,,,,,,,,,,,,,,,,,,,,,,
,,,,,,,,,,,,,,,,,60df9fdeab12699f246cab91,54,2022-02-12_13h34.41.079,lexical_decision_task_DD_L3,2021.2.3,Win32,59.95203837,,,,,,,,,,,0.789,1,,,,,,,,,,,,,,z,1,0.789,,,,,,,,0.511428571,0.323809524,0,0,0,,0,166,166,98,1,BAMPS,LB,old,z,./images/BAMPSLB.png,,,,,,,,,,,,,,,,,,,,,,,,,,,,,,,,,,,
,,,,,,,,,,,,,,,,,60df9fdeab12699f246cab91,54,2022-02-12_13h34.41.079,lexical_decision_task_DD_L3,2021.2.3,Win32,59.95203837,,,,,,,,,,,0.756,1,,,,,,,,,,,,,,z,1,0.756,,,,,,,,0.511428571,0.323809524,0,0,0,,0,167,167,87,1,TRING,C,old,z,./images/TRING.png,,,,,,,,,,,,,,,,,,,,,,,,,,,,,,,,,,,
,,,,,,,,,,,,,,,,,60df9fdeab12699f246cab91,54,2022-02-12_13h34.41.079,lexical_decision_task_DD_L3,2021.2.3,Win32,59.95203837,,,,,,,,,,,,,,,,,,,,,,,,,,,,,,,,,,,,,,,,,,,,,,,,How likely will it be that you will recognize the words presented very blurred on a scale of 0 (not likely) to 100 (most likely)?,,,,,0,-0.396190476,1,0,0,jol_adv,2,9.01,0,0,0,2,1,,,,,,,,,,,,,,,,,,,,,
,,,,,,,,,,,,,,,,,60df9fdeab12699f246cab91,54,2022-02-12_13h34.41.079,lexical_decision_task_DD_L3,2021.2.3,Win32,59.95203837,,,,,,,,,,,,,,,,,,,,,,,,,,,,,,,,,,,,,,,,,,,,,,,,How likely will it be that you will recognize the words presented slighly blurred on a scale of 0 (not likely) to 100 (most likely)?,,,,,,,,,,,5,10.128,0,1,1,1,1,,,,,,,,,,,,,,,,,,,,,
,,,,,,,,,,,,,,,,,60df9fdeab12699f246cab91,54,2022-02-12_13h34.41.079,lexical_decision_task_DD_L3,2021.2.3,Win32,59.95203837,,,,,,,,,,,,,,,,,,,,,,,,,,,,,,,,,,,,,,,,,,,,,,,,How likely will it be that you will recognize the words presented clearly on a scale of 0 (not likely) to 100 (most likely)?,,,,,,,,,,,6,4.826,0,2,2,0,1,,,,,,,,,,,,,,,,,,,,,
space,22.684,0.364761905,-0.322857143,0,0,0,,,,,,1,test,"In the next phase you will be presented with the words from the the first phase. Your job is to decide whether you remember seeing the word or not. If you remember seeing the word press ""old"" or type ""m"". If you do not remember seeing the word press ""new"" or type ""z"". Please press the space bar or click on continue to begin. ",,,60df9fdeab12699f246cab91,54,2022-02-12_13h34.41.079,lexical_decision_task_DD_L3,2021.2.3,Win32,59.95203837,,,,,,,,,,,,,,,,,,,,,,,,,,,,,,,,,,,,,,,,,,,,,,,,,,,,,,,,,,,,,,,,,,0,0,0,0,1,,,,,,,,,,,,,,,,
space,4.547,0.364761905,-0.322857143,0,0,0,,,,,,1,test,"In the next phase you will be presented with the words from the the first phase. Your job is to decide whether you remember seeing the word or not. If you remember seeing the word press ""old"" or type ""m"". If you do not remember seeing the word press ""new"" or type ""z"". Please press the space bar or click on continue to begin. ",,,60df9fdeab12699f246cab91,54,2022-02-12_13h34.41.079,lexical_decision_task_DD_L3,2021.2.3,Win32,59.95203837,,,,,,,,,,,,,,,,,,,,,,,,,,,,,,,,,,,,,,,,,,,,,,,,,,,,,,,,,,,,,,,,,,1,0,1,0,1,,,,,,,,,,,,,,,,
,,0.037142857,-0.396190476,1,0,0,,,,,,1,test,"In the next phase you will be presented with the words from the the first phase. Your job is to decide whether you remember seeing the word or not. If you remember seeing the word press ""old"" or type ""m"". If you do not remember seeing the word press ""new"" or type ""z"". Please press the space bar or click on continue to begin. ",,,60df9fdeab12699f246cab91,54,2022-02-12_13h34.41.079,lexical_decision_task_DD_L3,2021.2.3,Win32,59.95203837,,,,,,,,,,,,,,,,,,,,,,,,,,,,,,,,,,,,,,,,,,,,,,,,,,,,,,,,,,,,,,,,,,2,0,2,0,1,instr_done_button,,,,,,,,,,,,,,,
space,24.605,0.46952381,-0.353333333,0,0,0,,,,,,1,test,"In the next phase you will be presented with the words from the the first phase. Your job is to decide whether you remember seeing the word or not. If you remember seeing the word press ""old"" or type ""m"". If you do not remember seeing the word press ""new"" or type ""z"". Please press the space bar or click on continue to begin. ",,,60df9fdeab12699f246cab91,54,2022-02-12_13h34.41.079,lexical_decision_task_DD_L3,2021.2.3,Win32,59.95203837,,,,,,,,,,,,,,,,,,,,,,,,,,,,,,,,,,,,,,,,,,,,,,,,,,,,,,,,,,,,,,,,,,3,0,3,0,1,,,,,,,,,,,,,,,,
,,-0.019047619,-0.381904762,1,0,0,,,,,,1,test,"In the next phase you will be presented with the words from the the first phase. Your job is to decide whether you remember seeing the word or not. If you remember seeing the word press ""old"" or type ""m"". If you do not remember seeing the word press ""new"" or type ""z"". Please press the space bar or click on continue to begin. ",,,60df9fdeab12699f246cab91,54,2022-02-12_13h34.41.079,lexical_decision_task_DD_L3,2021.2.3,Win32,59.95203837,,,,,,,,,,,,,,,,,,,,,,,,,,,,,,,,,,,,,,,,,,,,,,,,,,,,,,,,,,,,,,,,,,4,0,4,0,1,instr_done_button,,,,,,,,,,,,,,,
,,,,,,,,,,,,,,,,,60df9fdeab12699f246cab91,54,2022-02-12_13h34.41.079,lexical_decision_task_DD_L3,2021.2.3,Win32,59.95203837,,,,,,,,,,,2.719,1,,,,,,,,,,,,,,,,,,,,,,,,-0.019047619,-0.381904762,0,0,0,,,,,,,FARMER,HB,m,m,./images/FARMERHB.png,,,,,,,,,,,,,,,,,,,,,m,1,2.719,,,,,,,,0,0,0,65,1
,,,,,,,,,,,,,,,,,60df9fdeab12699f246cab91,54,2022-02-12_13h34.41.079,lexical_decision_task_DD_L3,2021.2.3,Win32,59.95203837,,,,,,,,,,,2.785,1,,,,,,,,,,,,,,,,,,,,,,,,-0.019047619,-0.381904762,0,0,0,,,,,,,SLOPE,LB,z,m,./images/SLOPELB.png,,,,,,,,,,,,,,,,,,,,,z,1,2.785,,,,,,,,0,1,1,114,1
,,,,,,,,,,,,,,,,,60df9fdeab12699f246cab91,54,2022-02-12_13h34.41.079,lexical_decision_task_DD_L3,2021.2.3,Win32,59.95203837,,,,,,,,,,,2.25,0,,,,,,,,,,,,,,,,,,,,,,,,-0.019047619,-0.381904762,0,0,0,,,,,,,WEASEL,HB,m,m,./images/WEASELHB.png,,,,,,,,,,,,,,,,,,,,,z,0,2.25,,,,,,,,0,2,2,80,1
,,,,,,,,,,,,,,,,,60df9fdeab12699f246cab91,54,2022-02-12_13h34.41.079,lexical_decision_task_DD_L3,2021.2.3,Win32,59.95203837,,,,,,,,,,,0.902,1,,,,,,,,,,,,,,,,,,,,,,,,-0.019047619,-0.381904762,0,0,0,,,,,,,BANNER,C,m,m,./images/BANNER.png,,,,,,,,,,,,,,,,,,,,,m,1,0.902,,,,,,,,0,3,3,52,1
,,,,,,,,,,,,,,,,,60df9fdeab12699f246cab91,54,2022-02-12_13h34.41.079,lexical_decision_task_DD_L3,2021.2.3,Win32,59.95203837,,,,,,,,,,,0.951,1,,,,,,,,,,,,,,,,,,,,,,,,-0.019047619,-0.381904762,0,0,0,,,,,,,SNACK,C,m,m,./images/SNACK.png,,,,,,,,,,,,,,,,,,,,,m,1,0.951,,,,,,,,0,4,4,73,1
,,,,,,,,,,,,,,,,,60df9fdeab12699f246cab91,54,2022-02-12_13h34.41.079,lexical_decision_task_DD_L3,2021.2.3,Win32,59.95203837,,,,,,,,,,,2.687,1,,,,,,,,,,,,,,,,,,,,,,,,-0.019047619,-0.381904762,0,0,0,,,,,,,KIDNEY,LB,m,m,./images/KIDNEYLB.png,,,,,,,,,,,,,,,,,,,,,m,1,2.687,,,,,,,,0,5,5,21,1
,,,,,,,,,,,,,,,,,60df9fdeab12699f246cab91,54,2022-02-12_13h34.41.079,lexical_decision_task_DD_L3,2021.2.3,Win32,59.95203837,,,,,,,,,,,0.834,1,,,,,,,,,,,,,,,,,,,,,,,,-0.019047619,-0.381904762,0,0,0,,,,,,,ARROW,LB,z,m,./images/ARROWLB.png,,,,,,,,,,,,,,,,,,,,,z,1,0.834,,,,,,,,0,6,6,153,1
,,,,,,,,,,,,,,,,,60df9fdeab12699f246cab91,54,2022-02-12_13h34.41.079,lexical_decision_task_DD_L3,2021.2.3,Win32,59.95203837,,,,,,,,,,,2.037,1,,,,,,,,,,,,,,,,,,,,,,,,-0.019047619,-0.381904762,0,0,0,,,,,,,PACKET,HB,m,m,./images/PACKETHB.png,,,,,,,,,,,,,,,,,,,,,m,1,2.037,,,,,,,,0,7,7,56,1
,,,,,,,,,,,,,,,,,60df9fdeab12699f246cab91,54,2022-02-12_13h34.41.079,lexical_decision_task_DD_L3,2021.2.3,Win32,59.95203837,,,,,,,,,,,0.819,1,,,,,,,,,,,,,,,,,,,,,,,,-0.019047619,-0.381904762,0,0,0,,,,,,,DESERT,C,z,m,./images/DESERT.png,,,,,,,,,,,,,,,,,,,,,z,1,0.819,,,,,,,,0,8,8,136,1
,,,,,,,,,,,,,,,,,60df9fdeab12699f246cab91,54,2022-02-12_13h34.41.079,lexical_decision_task_DD_L3,2021.2.3,Win32,59.95203837,,,,,,,,,,,2.127,1,,,,,,,,,,,,,,,,,,,,,,,,-0.019047619,-0.381904762,0,0,0,,,,,,,WHEEL,HB,z,m,./images/WHEELHB.png,,,,,,,,,,,,,,,,,,,,,z,1,2.127,,,,,,,,0,9,9,161,1
,,,,,,,,,,,,,,,,,60df9fdeab12699f246cab91,54,2022-02-12_13h34.41.079,lexical_decision_task_DD_L3,2021.2.3,Win32,59.95203837,,,,,,,,,,,0.818,1,,,,,,,,,,,,,,,,,,,,,,,,-0.019047619,-0.381904762,0,0,0,,,,,,,MIDGET,C,z,m,./images/MIDGET.png,,,,,,,,,,,,,,,,,,,,,z,1,0.818,,,,,,,,0,10,10,160,1
,,,,,,,,,,,,,,,,,60df9fdeab12699f246cab91,54,2022-02-12_13h34.41.079,lexical_decision_task_DD_L3,2021.2.3,Win32,59.95203837,,,,,,,,,,,1.037,1,,,,,,,,,,,,,,,,,,,,,,,,-0.019047619,-0.381904762,0,0,0,,,,,,,MOSQUE,C,m,m,./images/MOSQUE.png,,,,,,,,,,,,,,,,,,,,,m,1,1.037,,,,,,,,0,11,11,43,1
,,,,,,,,,,,,,,,,,60df9fdeab12699f246cab91,54,2022-02-12_13h34.41.079,lexical_decision_task_DD_L3,2021.2.3,Win32,59.95203837,,,,,,,,,,,1.089,1,,,,,,,,,,,,,,,,,,,,,,,,-0.019047619,-0.381904762,0,0,0,,,,,,,STOOL,C,z,m,./images/STOOL.png,,,,,,,,,,,,,,,,,,,,,z,1,1.089,,,,,,,,0,12,12,127,1
,,,,,,,,,,,,,,,,,60df9fdeab12699f246cab91,54,2022-02-12_13h34.41.079,lexical_decision_task_DD_L3,2021.2.3,Win32,59.95203837,,,,,,,,,,,0.908,1,,,,,,,,,,,,,,,,,,,,,,,,-0.019047619,-0.381904762,0,0,0,,,,,,,SHIELD,LB,z,m,./images/SHIELDLB.png,,,,,,,,,,,,,,,,,,,,,z,1,0.908,,,,,,,,0,13,13,132,1
,,,,,,,,,,,,,,,,,60df9fdeab12699f246cab91,54,2022-02-12_13h34.41.079,lexical_decision_task_DD_L3,2021.2.3,Win32,59.95203837,,,,,,,,,,,1.52,0,,,,,,,,,,,,,,,,,,,,,,,,-0.019047619,-0.381904762,0,0,0,,,,,,,TOMATO,LB,m,m,./images/TOMATOLB.png,,,,,,,,,,,,,,,,,,,,,z,0,1.52,,,,,,,,0,14,14,0,1
,,,,,,,,,,,,,,,,,60df9fdeab12699f246cab91,54,2022-02-12_13h34.41.079,lexical_decision_task_DD_L3,2021.2.3,Win32,59.95203837,,,,,,,,,,,0.909,1,,,,,,,,,,,,,,,,,,,,,,,,-0.019047619,-0.381904762,0,0,0,,,,,,,PILOT,HB,z,m,./images/PILOTHB.png,,,,,,,,,,,,,,,,,,,,,z,1,0.909,,,,,,,,0,15,15,134,1
,,,,,,,,,,,,,,,,,60df9fdeab12699f246cab91,54,2022-02-12_13h34.41.079,lexical_decision_task_DD_L3,2021.2.3,Win32,59.95203837,,,,,,,,,,,0.81,1,,,,,,,,,,,,,,,,,,,,,,,,-0.019047619,-0.381904762,0,0,0,,,,,,,RULER,C,z,m,./images/RULER.png,,,,,,,,,,,,,,,,,,,,,z,1,0.81,,,,,,,,0,16,16,163,1
,,,,,,,,,,,,,,,,,60df9fdeab12699f246cab91,54,2022-02-12_13h34.41.079,lexical_decision_task_DD_L3,2021.2.3,Win32,59.95203837,,,,,,,,,,,1.146,1,,,,,,,,,,,,,,,,,,,,,,,,-0.019047619,-0.381904762,0,0,0,,,,,,,BERRY,HB,m,m,./images/BERRYHB.png,,,,,,,,,,,,,,,,,,,,,m,1,1.146,,,,,,,,0,17,17,47,1
,,,,,,,,,,,,,,,,,60df9fdeab12699f246cab91,54,2022-02-12_13h34.41.079,lexical_decision_task_DD_L3,2021.2.3,Win32,59.95203837,,,,,,,,,,,0.933,1,,,,,,,,,,,,,,,,,,,,,,,,-0.019047619,-0.381904762,0,0,0,,,,,,,MAMMAL,HB,z,m,./images/MAMMALHB.png,,,,,,,,,,,,,,,,,,,,,z,1,0.933,,,,,,,,0,18,18,146,1
,,,,,,,,,,,,,,,,,60df9fdeab12699f246cab91,54,2022-02-12_13h34.41.079,lexical_decision_task_DD_L3,2021.2.3,Win32,59.95203837,,,,,,,,,,,1.002,0,,,,,,,,,,,,,,,,,,,,,,,,-0.019047619,-0.381904762,0,0,0,,,,,,,STRING,HB,m,m,./images/STRINGHB.png,,,,,,,,,,,,,,,,,,,,,z,0,1.002,,,,,,,,0,19,19,41,1
,,,,,,,,,,,,,,,,,60df9fdeab12699f246cab91,54,2022-02-12_13h34.41.079,lexical_decision_task_DD_L3,2021.2.3,Win32,59.95203837,,,,,,,,,,,0.967,1,,,,,,,,,,,,,,,,,,,,,,,,-0.019047619,-0.381904762,0,0,0,,,,,,,CURRY,LB,z,m,./images/CURRYLB.png,,,,,,,,,,,,,,,,,,,,,z,1,0.967,,,,,,,,0,20,20,144,1
,,,,,,,,,,,,,,,,,60df9fdeab12699f246cab91,54,2022-02-12_13h34.41.079,lexical_decision_task_DD_L3,2021.2.3,Win32,59.95203837,,,,,,,,,,,0.722,1,,,,,,,,,,,,,,,,,,,,,,,,-0.019047619,-0.381904762,0,0,0,,,,,,,CANYON,C,m,m,./images/CANYON.png,,,,,,,,,,,,,,,,,,,,,m,1,0.722,,,,,,,,0,21,21,34,1
,,,,,,,,,,,,,,,,,60df9fdeab12699f246cab91,54,2022-02-12_13h34.41.079,lexical_decision_task_DD_L3,2021.2.3,Win32,59.95203837,,,,,,,,,,,0.783,1,,,,,,,,,,,,,,,,,,,,,,,,-0.019047619,-0.381904762,0,0,0,,,,,,,SUNSET,C,m,m,./images/SUNSET.png,,,,,,,,,,,,,,,,,,,,,m,1,0.783,,,,,,,,0,22,22,82,1
,,,,,,,,,,,,,,,,,60df9fdeab12699f246cab91,54,2022-02-12_13h34.41.079,lexical_decision_task_DD_L3,2021.2.3,Win32,59.95203837,,,,,,,,,,,1.224,1,,,,,,,,,,,,,,,,,,,,,,,,-0.019047619,-0.381904762,0,0,0,,,,,,,WALRUS,HB,m,m,./images/WALRUSHB.png,,,,,,,,,,,,,,,,,,,,,m,1,1.224,,,,,,,,0,23,23,23,1
,,,,,,,,,,,,,,,,,60df9fdeab12699f246cab91,54,2022-02-12_13h34.41.079,lexical_decision_task_DD_L3,2021.2.3,Win32,59.95203837,,,,,,,,,,,0.774,1,,,,,,,,,,,,,,,,,,,,,,,,-0.019047619,-0.381904762,0,0,0,,,,,,,GRANNY,HB,z,m,./images/GRANNYHB.png,,,,,,,,,,,,,,,,,,,,,z,1,0.774,,,,,,,,0,24,24,104,1
,,,,,,,,,,,,,,,,,60df9fdeab12699f246cab91,54,2022-02-12_13h34.41.079,lexical_decision_task_DD_L3,2021.2.3,Win32,59.95203837,,,,,,,,,,,1.584,1,,,,,,,,,,,,,,,,,,,,,,,,-0.019047619,-0.381904762,0,0,0,,,,,,,ONION,LB,m,m,./images/ONIONLB.png,,,,,,,,,,,,,,,,,,,,,m,1,1.584,,,,,,,,0,25,25,51,1
,,,,,,,,,,,,,,,,,60df9fdeab12699f246cab91,54,2022-02-12_13h34.41.079,lexical_decision_task_DD_L3,2021.2.3,Win32,59.95203837,,,,,,,,,,,0.88,1,,,,,,,,,,,,,,,,,,,,,,,,-0.019047619,-0.381904762,0,0,0,,,,,,,DIVER,LB,z,m,./images/DIVERLB.png,,,,,,,,,,,,,,,,,,,,,z,1,0.88,,,,,,,,0,26,26,93,1
,,,,,,,,,,,,,,,,,60df9fdeab12699f246cab91,54,2022-02-12_13h34.41.079,lexical_decision_task_DD_L3,2021.2.3,Win32,59.95203837,,,,,,,,,,,1.591,0,,,,,,,,,,,,,,,,,,,,,,,,-0.019047619,-0.381904762,0,0,0,,,,,,,TORCH,HB,m,m,./images/TORCHHB.png,,,,,,,,,,,,,,,,,,,,,z,0,1.591,,,,,,,,0,27,27,68,1
,,,,,,,,,,,,,,,,,60df9fdeab12699f246cab91,54,2022-02-12_13h34.41.079,lexical_decision_task_DD_L3,2021.2.3,Win32,59.95203837,,,,,,,,,,,0.869,1,,,,,,,,,,,,,,,,,,,,,,,,-0.019047619,-0.381904762,0,0,0,,,,,,,LAGOON,HB,z,m,./images/LAGOONHB.png,,,,,,,,,,,,,,,,,,,,,z,1,0.869,,,,,,,,0,28,28,131,1
,,,,,,,,,,,,,,,,,60df9fdeab12699f246cab91,54,2022-02-12_13h34.41.079,lexical_decision_task_DD_L3,2021.2.3,Win32,59.95203837,,,,,,,,,,,1.276,0,,,,,,,,,,,,,,,,,,,,,,,,-0.019047619,-0.381904762,0,0,0,,,,,,,KITTEN,LB,m,m,./images/KITTENLB.png,,,,,,,,,,,,,,,,,,,,,z,0,1.276,,,,,,,,0,29,29,45,1
,,,,,,,,,,,,,,,,,60df9fdeab12699f246cab91,54,2022-02-12_13h34.41.079,lexical_decision_task_DD_L3,2021.2.3,Win32,59.95203837,,,,,,,,,,,0.674,1,,,,,,,,,,,,,,,,,,,,,,,,-0.019047619,-0.381904762,0,0,0,,,,,,,RHINO,LB,m,m,./images/RHINOLB.png,,,,,,,,,,,,,,,,,,,,,m,1,0.674,,,,,,,,0,30,30,9,1
,,,,,,,,,,,,,,,,,60df9fdeab12699f246cab91,54,2022-02-12_13h34.41.079,lexical_decision_task_DD_L3,2021.2.3,Win32,59.95203837,,,,,,,,,,,1.038,0,,,,,,,,,,,,,,,,,,,,,,,,-0.019047619,-0.381904762,0,0,0,,,,,,,CASINO,C,z,m,./images/CASINO.png,,,,,,,,,,,,,,,,,,,,,m,0,1.038,,,,,,,,0,31,31,112,1
,,,,,,,,,,,,,,,,,60df9fdeab12699f246cab91,54,2022-02-12_13h34.41.079,lexical_decision_task_DD_L3,2021.2.3,Win32,59.95203837,,,,,,,,,,,1.338,1,,,,,,,,,,,,,,,,,,,,,,,,-0.019047619,-0.381904762,0,0,0,,,,,,,MEDAL,HB,z,m,./images/MEDALHB.png,,,,,,,,,,,,,,,,,,,,,z,1,1.338,,,,,,,,0,32,32,95,1
,,,,,,,,,,,,,,,,,60df9fdeab12699f246cab91,54,2022-02-12_13h34.41.079,lexical_decision_task_DD_L3,2021.2.3,Win32,59.95203837,,,,,,,,,,,0.809,1,,,,,,,,,,,,,,,,,,,,,,,,-0.019047619,-0.381904762,0,0,0,,,,,,,VALLEY,HB,z,m,./images/VALLEYHB.png,,,,,,,,,,,,,,,,,,,,,z,1,0.809,,,,,,,,0,33,33,152,1
,,,,,,,,,,,,,,,,,60df9fdeab12699f246cab91,54,2022-02-12_13h34.41.079,lexical_decision_task_DD_L3,2021.2.3,Win32,59.95203837,,,,,,,,,,,2.217,1,,,,,,,,,,,,,,,,,,,,,,,,-0.019047619,-0.381904762,0,0,0,,,,,,,FENCE,HB,z,m,./images/FENCEHB.png,,,,,,,,,,,,,,,,,,,,,z,1,2.217,,,,,,,,0,34,34,98,1
,,,,,,,,,,,,,,,,,60df9fdeab12699f246cab91,54,2022-02-12_13h34.41.079,lexical_decision_task_DD_L3,2021.2.3,Win32,59.95203837,,,,,,,,,,,0.918,1,,,,,,,,,,,,,,,,,,,,,,,,-0.019047619,-0.381904762,0,0,0,,,,,,,TRIPOD,LB,m,m,./images/TRIPODLB.png,,,,,,,,,,,,,,,,,,,,,m,1,0.918,,,,,,,,0,35,35,54,1
,,,,,,,,,,,,,,,,,60df9fdeab12699f246cab91,54,2022-02-12_13h34.41.079,lexical_decision_task_DD_L3,2021.2.3,Win32,59.95203837,,,,,,,,,,,0.912,1,,,,,,,,,,,,,,,,,,,,,,,,-0.019047619,-0.381904762,0,0,0,,,,,,,PEACH,HB,m,m,./images/PEACHHB.png,,,,,,,,,,,,,,,,,,,,,m,1,0.912,,,,,,,,0,36,36,35,1
,,,,,,,,,,,,,,,,,60df9fdeab12699f246cab91,54,2022-02-12_13h34.41.079,lexical_decision_task_DD_L3,2021.2.3,Win32,59.95203837,,,,,,,,,,,0.984,1,,,,,,,,,,,,,,,,,,,,,,,,-0.019047619,-0.381904762,0,0,0,,,,,,,BUTTER,LB,z,m,./images/BUTTERLB.png,,,,,,,,,,,,,,,,,,,,,z,1,0.984,,,,,,,,0,37,37,111,1
,,,,,,,,,,,,,,,,,60df9fdeab12699f246cab91,54,2022-02-12_13h34.41.079,lexical_decision_task_DD_L3,2021.2.3,Win32,59.95203837,,,,,,,,,,,0.805,1,,,,,,,,,,,,,,,,,,,,,,,,-0.019047619,-0.381904762,0,0,0,,,,,,,CANOE,C,z,m,./images/CANOE.png,,,,,,,,,,,,,,,,,,,,,z,1,0.805,,,,,,,,0,38,38,142,1
,,,,,,,,,,,,,,,,,60df9fdeab12699f246cab91,54,2022-02-12_13h34.41.079,lexical_decision_task_DD_L3,2021.2.3,Win32,59.95203837,,,,,,,,,,,1.228,1,,,,,,,,,,,,,,,,,,,,,,,,-0.019047619,-0.381904762,0,0,0,,,,,,,FINGER,LB,m,m,./images/FINGERLB.png,,,,,,,,,,,,,,,,,,,,,m,1,1.228,,,,,,,,0,39,39,3,1
,,,,,,,,,,,,,,,,,60df9fdeab12699f246cab91,54,2022-02-12_13h34.41.079,lexical_decision_task_DD_L3,2021.2.3,Win32,59.95203837,,,,,,,,,,,0.918,1,,,,,,,,,,,,,,,,,,,,,,,,-0.019047619,-0.381904762,0,0,0,,,,,,,CRADLE,HB,m,m,./images/CRADLEHB.png,,,,,,,,,,,,,,,,,,,,,m,1,0.918,,,,,,,,0,40,40,20,1
,,,,,,,,,,,,,,,,,60df9fdeab12699f246cab91,54,2022-02-12_13h34.41.079,lexical_decision_task_DD_L3,2021.2.3,Win32,59.95203837,,,,,,,,,,,1.12,1,,,,,,,,,,,,,,,,,,,,,,,,0.007619048,-0.387619048,0,0,0,space,,,,,,BOILER,LB,z,m,./images/BOILERLB.png,21.969,,,,,,,,,,,,,,,,,,,,z,1,1.12,,,,,,,,0,41,41,120,1
,,,,,,,,,,,,,,,,,60df9fdeab12699f246cab91,54,2022-02-12_13h34.41.079,lexical_decision_task_DD_L3,2021.2.3,Win32,59.95203837,,,,,,,,,,,0.935,1,,,,,,,,,,,,,,,,,,,,,,,,0.007619048,-0.387619048,0,0,0,,,,,,,PURSE,HB,m,m,./images/PURSEHB.png,,,,,,,,,,,,,,,,,,,,,m,1,0.935,,,,,,,,0,42,42,62,1
,,,,,,,,,,,,,,,,,60df9fdeab12699f246cab91,54,2022-02-12_13h34.41.079,lexical_decision_task_DD_L3,2021.2.3,Win32,59.95203837,,,,,,,,,,,0.81,1,,,,,,,,,,,,,,,,,,,,,,,,0.007619048,-0.387619048,0,0,0,,,,,,,PEBBLE,C,z,m,./images/PEBBLE.png,,,,,,,,,,,,,,,,,,,,,z,1,0.81,,,,,,,,0,43,43,166,1
,,,,,,,,,,,,,,,,,60df9fdeab12699f246cab91,54,2022-02-12_13h34.41.079,lexical_decision_task_DD_L3,2021.2.3,Win32,59.95203837,,,,,,,,,,,1.133,1,,,,,,,,,,,,,,,,,,,,,,,,0.007619048,-0.387619048,0,0,0,,,,,,,HOCKEY,HB,z,m,./images/HOCKEYHB.png,,,,,,,,,,,,,,,,,,,,,z,1,1.133,,,,,,,,0,44,44,116,1
,,,,,,,,,,,,,,,,,60df9fdeab12699f246cab91,54,2022-02-12_13h34.41.079,lexical_decision_task_DD_L3,2021.2.3,Win32,59.95203837,,,,,,,,,,,0.811,1,,,,,,,,,,,,,,,,,,,,,,,,0.007619048,-0.387619048,0,0,0,,,,,,,JUNGLE,HB,m,m,./images/JUNGLEHB.png,,,,,,,,,,,,,,,,,,,,,m,1,0.811,,,,,,,,0,45,45,83,1
,,,,,,,,,,,,,,,,,60df9fdeab12699f246cab91,54,2022-02-12_13h34.41.079,lexical_decision_task_DD_L3,2021.2.3,Win32,59.95203837,,,,,,,,,,,1.406,1,,,,,,,,,,,,,,,,,,,,,,,,0.007619048,-0.387619048,0,0,0,,,,,,,PARADE,HB,z,m,./images/PARADEHB.png,,,,,,,,,,,,,,,,,,,,,z,1,1.406,,,,,,,,0,46,46,101,1
,,,,,,,,,,,,,,,,,60df9fdeab12699f246cab91,54,2022-02-12_13h34.41.079,lexical_decision_task_DD_L3,2021.2.3,Win32,59.95203837,,,,,,,,,,,0.791,1,,,,,,,,,,,,,,,,,,,,,,,,0.007619048,-0.387619048,0,0,0,,,,,,,BLOKE,LB,z,m,./images/BLOKELB.png,,,,,,,,,,,,,,,,,,,,,z,1,0.791,,,,,,,,0,47,47,96,1
,,,,,,,,,,,,,,,,,60df9fdeab12699f246cab91,54,2022-02-12_13h34.41.079,lexical_decision_task_DD_L3,2021.2.3,Win32,59.95203837,,,,,,,,,,,1.251,1,,,,,,,,,,,,,,,,,,,,,,,,0.007619048,-0.387619048,0,0,0,,,,,,,JELLY,C,m,m,./images/JELLY.png,,,,,,,,,,,,,,,,,,,,,m,1,1.251,,,,,,,,0,48,48,64,1
,,,,,,,,,,,,,,,,,60df9fdeab12699f246cab91,54,2022-02-12_13h34.41.079,lexical_decision_task_DD_L3,2021.2.3,Win32,59.95203837,,,,,,,,,,,1.189,1,,,,,,,,,,,,,,,,,,,,,,,,0.007619048,-0.387619048,0,0,0,,,,,,,NOOSE,LB,m,m,./images/NOOSELB.png,,,,,,,,,,,,,,,,,,,,,m,1,1.189,,,,,,,,0,49,49,72,1
,,,,,,,,,,,,,,,,,60df9fdeab12699f246cab91,54,2022-02-12_13h34.41.079,lexical_decision_task_DD_L3,2021.2.3,Win32,59.95203837,,,,,,,,,,,0.723,1,,,,,,,,,,,,,,,,,,,,,,,,0.007619048,-0.387619048,0,0,0,,,,,,,CLOTH,HB,z,m,./images/CLOTHHB.png,,,,,,,,,,,,,,,,,,,,,z,1,0.723,,,,,,,,0,50,50,107,1
,,,,,,,,,,,,,,,,,60df9fdeab12699f246cab91,54,2022-02-12_13h34.41.079,lexical_decision_task_DD_L3,2021.2.3,Win32,59.95203837,,,,,,,,,,,1.436,0,,,,,,,,,,,,,,,,,,,,,,,,0.007619048,-0.387619048,0,0,0,,,,,,,INFANT,C,m,m,./images/INFANT.png,,,,,,,,,,,,,,,,,,,,,z,0,1.436,,,,,,,,0,51,51,76,1
,,,,,,,,,,,,,,,,,60df9fdeab12699f246cab91,54,2022-02-12_13h34.41.079,lexical_decision_task_DD_L3,2021.2.3,Win32,59.95203837,,,,,,,,,,,0.993,1,,,,,,,,,,,,,,,,,,,,,,,,0.007619048,-0.387619048,0,0,0,,,,,,,FLASK,LB,z,m,./images/FLASKLB.png,,,,,,,,,,,,,,,,,,,,,z,1,0.993,,,,,,,,0,52,52,156,1
,,,,,,,,,,,,,,,,,60df9fdeab12699f246cab91,54,2022-02-12_13h34.41.079,lexical_decision_task_DD_L3,2021.2.3,Win32,59.95203837,,,,,,,,,,,0.703,1,,,,,,,,,,,,,,,,,,,,,,,,0.007619048,-0.387619048,0,0,0,,,,,,,SWING,C,m,m,./images/SWING.png,,,,,,,,,,,,,,,,,,,,,m,1,0.703,,,,,,,,0,53,53,40,1
,,,,,,,,,,,,,,,,,60df9fdeab12699f246cab91,54,2022-02-12_13h34.41.079,lexical_decision_task_DD_L3,2021.2.3,Win32,59.95203837,,,,,,,,,,,0.69,1,,,,,,,,,,,,,,,,,,,,,,,,0.007619048,-0.387619048,0,0,0,,,,,,,FALCON,C,m,m,./images/FALCON.png,,,,,,,,,,,,,,,,,,,,,m,1,0.69,,,,,,,,0,54,54,28,1
,,,,,,,,,,,,,,,,,60df9fdeab12699f246cab91,54,2022-02-12_13h34.41.079,lexical_decision_task_DD_L3,2021.2.3,Win32,59.95203837,,,,,,,,,,,1.091,1,,,,,,,,,,,,,,,,,,,,,,,,0.007619048,-0.387619048,0,0,0,,,,,,,STEAK,C,z,m,./images/STEAK.png,,,,,,,,,,,,,,,,,,,,,z,1,1.091,,,,,,,,0,55,55,115,1
,,,,,,,,,,,,,,,,,60df9fdeab12699f246cab91,54,2022-02-12_13h34.41.079,lexical_decision_task_DD_L3,2021.2.3,Win32,59.95203837,,,,,,,,,,,1.126,0,,,,,,,,,,,,,,,,,,,,,,,,0.007619048,-0.387619048,0,0,0,,,,,,,MELON,C,m,m,./images/MELON.png,,,,,,,,,,,,,,,,,,,,,z,0,1.126,,,,,,,,0,56,56,22,1
,,,,,,,,,,,,,,,,,60df9fdeab12699f246cab91,54,2022-02-12_13h34.41.079,lexical_decision_task_DD_L3,2021.2.3,Win32,59.95203837,,,,,,,,,,,0.864,0,,,,,,,,,,,,,,,,,,,,,,,,0.007619048,-0.387619048,0,0,0,,,,,,,THROAT,LB,m,m,./images/THROATLB.png,,,,,,,,,,,,,,,,,,,,,z,0,0.864,,,,,,,,0,57,57,36,1
,,,,,,,,,,,,,,,,,60df9fdeab12699f246cab91,54,2022-02-12_13h34.41.079,lexical_decision_task_DD_L3,2021.2.3,Win32,59.95203837,,,,,,,,,,,1.166,0,,,,,,,,,,,,,,,,,,,,,,,,0.007619048,-0.387619048,0,0,0,,,,,,,PLANK,C,m,m,./images/PLANK.png,,,,,,,,,,,,,,,,,,,,,z,0,1.166,,,,,,,,0,58,58,1,1
,,,,,,,,,,,,,,,,,60df9fdeab12699f246cab91,54,2022-02-12_13h34.41.079,lexical_decision_task_DD_L3,2021.2.3,Win32,59.95203837,,,,,,,,,,,1.03,0,,,,,,,,,,,,,,,,,,,,,,,,0.007619048,-0.387619048,0,0,0,,,,,,,CRUST,C,m,m,./images/CRUST.png,,,,,,,,,,,,,,,,,,,,,z,0,1.03,,,,,,,,0,59,59,79,1
,,,,,,,,,,,,,,,,,60df9fdeab12699f246cab91,54,2022-02-12_13h34.41.079,lexical_decision_task_DD_L3,2021.2.3,Win32,59.95203837,,,,,,,,,,,1.103,1,,,,,,,,,,,,,,,,,,,,,,,,0.007619048,-0.387619048,0,0,0,,,,,,,DANCER,LB,z,m,./images/DANCERLB.png,,,,,,,,,,,,,,,,,,,,,z,1,1.103,,,,,,,,0,60,60,105,1
,,,,,,,,,,,,,,,,,60df9fdeab12699f246cab91,54,2022-02-12_13h34.41.079,lexical_decision_task_DD_L3,2021.2.3,Win32,59.95203837,,,,,,,,,,,1.273,1,,,,,,,,,,,,,,,,,,,,,,,,0.007619048,-0.387619048,0,0,0,,,,,,,SHORE,LB,m,m,./images/SHORELB.png,,,,,,,,,,,,,,,,,,,,,m,1,1.273,,,,,,,,0,61,61,12,1
,,,,,,,,,,,,,,,,,60df9fdeab12699f246cab91,54,2022-02-12_13h34.41.079,lexical_decision_task_DD_L3,2021.2.3,Win32,59.95203837,,,,,,,,,,,1.268,0,,,,,,,,,,,,,,,,,,,,,,,,0.007619048,-0.387619048,0,0,0,,,,,,,BABOON,C,m,m,./images/BABOON.png,,,,,,,,,,,,,,,,,,,,,z,0,1.268,,,,,,,,0,62,62,58,1
,,,,,,,,,,,,,,,,,60df9fdeab12699f246cab91,54,2022-02-12_13h34.41.079,lexical_decision_task_DD_L3,2021.2.3,Win32,59.95203837,,,,,,,,,,,0.838,1,,,,,,,,,,,,,,,,,,,,,,,,0.007619048,-0.387619048,0,0,0,,,,,,,COUCH,HB,m,m,./images/COUCHHB.png,,,,,,,,,,,,,,,,,,,,,m,1,0.838,,,,,,,,0,63,63,77,1
,,,,,,,,,,,,,,,,,60df9fdeab12699f246cab91,54,2022-02-12_13h34.41.079,lexical_decision_task_DD_L3,2021.2.3,Win32,59.95203837,,,,,,,,,,,0.825,1,,,,,,,,,,,,,,,,,,,,,,,,0.007619048,-0.387619048,0,0,0,,,,,,,CHAIN,LB,z,m,./images/CHAINLB.png,,,,,,,,,,,,,,,,,,,,,z,1,0.825,,,,,,,,0,64,64,126,1
,,,,,,,,,,,,,,,,,60df9fdeab12699f246cab91,54,2022-02-12_13h34.41.079,lexical_decision_task_DD_L3,2021.2.3,Win32,59.95203837,,,,,,,,,,,1.223,0,,,,,,,,,,,,,,,,,,,,,,,,0.007619048,-0.387619048,0,0,0,,,,,,,POODLE,LB,m,m,./images/POODLELB.png,,,,,,,,,,,,,,,,,,,,,z,0,1.223,,,,,,,,0,65,65,81,1
,,,,,,,,,,,,,,,,,60df9fdeab12699f246cab91,54,2022-02-12_13h34.41.079,lexical_decision_task_DD_L3,2021.2.3,Win32,59.95203837,,,,,,,,,,,1.078,1,,,,,,,,,,,,,,,,,,,,,,,,0.007619048,-0.387619048,0,0,0,,,,,,,STORM,LB,m,m,./images/STORMLB.png,,,,,,,,,,,,,,,,,,,,,m,1,1.078,,,,,,,,0,66,66,30,1
,,,,,,,,,,,,,,,,,60df9fdeab12699f246cab91,54,2022-02-12_13h34.41.079,lexical_decision_task_DD_L3,2021.2.3,Win32,59.95203837,,,,,,,,,,,0.758,1,,,,,,,,,,,,,,,,,,,,,,,,0.007619048,-0.387619048,0,0,0,,,,,,,CHALK,C,z,m,./images/CHALK.png,,,,,,,,,,,,,,,,,,,,,z,1,0.758,,,,,,,,0,67,67,109,1
,,,,,,,,,,,,,,,,,60df9fdeab12699f246cab91,54,2022-02-12_13h34.41.079,lexical_decision_task_DD_L3,2021.2.3,Win32,59.95203837,,,,,,,,,,,0.723,1,,,,,,,,,,,,,,,,,,,,,,,,0.007619048,-0.387619048,0,0,0,,,,,,,HEATER,HB,z,m,./images/HEATERHB.png,,,,,,,,,,,,,,,,,,,,,z,1,0.723,,,,,,,,0,68,68,140,1
,,,,,,,,,,,,,,,,,60df9fdeab12699f246cab91,54,2022-02-12_13h34.41.079,lexical_decision_task_DD_L3,2021.2.3,Win32,59.95203837,,,,,,,,,,,0.935,1,,,,,,,,,,,,,,,,,,,,,,,,0.007619048,-0.387619048,0,0,0,,,,,,,GRAPE,C,z,m,./images/GRAPE.png,,,,,,,,,,,,,,,,,,,,,z,1,0.935,,,,,,,,0,69,69,100,1
,,,,,,,,,,,,,,,,,60df9fdeab12699f246cab91,54,2022-02-12_13h34.41.079,lexical_decision_task_DD_L3,2021.2.3,Win32,59.95203837,,,,,,,,,,,0.905,1,,,,,,,,,,,,,,,,,,,,,,,,0.007619048,-0.387619048,0,0,0,,,,,,,BROOM,LB,z,m,./images/BROOMLB.png,,,,,,,,,,,,,,,,,,,,,z,1,0.905,,,,,,,,0,70,70,162,1
,,,,,,,,,,,,,,,,,60df9fdeab12699f246cab91,54,2022-02-12_13h34.41.079,lexical_decision_task_DD_L3,2021.2.3,Win32,59.95203837,,,,,,,,,,,0.942,1,,,,,,,,,,,,,,,,,,,,,,,,0.007619048,-0.387619048,0,0,0,,,,,,,BUBBLE,HB,z,m,./images/BUBBLEHB.png,,,,,,,,,,,,,,,,,,,,,z,1,0.942,,,,,,,,0,71,71,155,1
,,,,,,,,,,,,,,,,,60df9fdeab12699f246cab91,54,2022-02-12_13h34.41.079,lexical_decision_task_DD_L3,2021.2.3,Win32,59.95203837,,,,,,,,,,,0.834,1,,,,,,,,,,,,,,,,,,,,,,,,0.007619048,-0.387619048,0,0,0,,,,,,,URINE,C,m,m,./images/URINE.png,,,,,,,,,,,,,,,,,,,,,m,1,0.834,,,,,,,,0,72,72,70,1
,,,,,,,,,,,,,,,,,60df9fdeab12699f246cab91,54,2022-02-12_13h34.41.079,lexical_decision_task_DD_L3,2021.2.3,Win32,59.95203837,,,,,,,,,,,1.303,1,,,,,,,,,,,,,,,,,,,,,,,,0.007619048,-0.387619048,0,0,0,,,,,,,SMOKER,HB,m,m,./images/SMOKERHB.png,,,,,,,,,,,,,,,,,,,,,m,1,1.303,,,,,,,,0,73,73,26,1
,,,,,,,,,,,,,,,,,60df9fdeab12699f246cab91,54,2022-02-12_13h34.41.079,lexical_decision_task_DD_L3,2021.2.3,Win32,59.95203837,,,,,,,,,,,0.857,1,,,,,,,,,,,,,,,,,,,,,,,,0.007619048,-0.387619048,0,0,0,,,,,,,BURIAL,HB,m,m,./images/BURIALHB.png,,,,,,,,,,,,,,,,,,,,,m,1,0.857,,,,,,,,0,74,74,59,1
,,,,,,,,,,,,,,,,,60df9fdeab12699f246cab91,54,2022-02-12_13h34.41.079,lexical_decision_task_DD_L3,2021.2.3,Win32,59.95203837,,,,,,,,,,,0.709,1,,,,,,,,,,,,,,,,,,,,,,,,0.007619048,-0.387619048,0,0,0,,,,,,,TOWEL,C,z,m,./images/TOWEL.png,,,,,,,,,,,,,,,,,,,,,z,1,0.709,,,,,,,,0,75,75,85,1
,,,,,,,,,,,,,,,,,60df9fdeab12699f246cab91,54,2022-02-12_13h34.41.079,lexical_decision_task_DD_L3,2021.2.3,Win32,59.95203837,,,,,,,,,,,0.767,1,,,,,,,,,,,,,,,,,,,,,,,,0.007619048,-0.387619048,0,0,0,,,,,,,ENGINE,HB,z,m,./images/ENGINEHB.png,,,,,,,,,,,,,,,,,,,,,z,1,0.767,,,,,,,,0,76,76,122,1
,,,,,,,,,,,,,,,,,60df9fdeab12699f246cab91,54,2022-02-12_13h34.41.079,lexical_decision_task_DD_L3,2021.2.3,Win32,59.95203837,,,,,,,,,,,1.151,1,,,,,,,,,,,,,,,,,,,,,,,,0.007619048,-0.387619048,0,0,0,,,,,,,JUMPER,HB,z,m,./images/JUMPERHB.png,,,,,,,,,,,,,,,,,,,,,z,1,1.151,,,,,,,,0,77,77,158,1
,,,,,,,,,,,,,,,,,60df9fdeab12699f246cab91,54,2022-02-12_13h34.41.079,lexical_decision_task_DD_L3,2021.2.3,Win32,59.95203837,,,,,,,,,,,0.91,1,,,,,,,,,,,,,,,,,,,,,,,,0.007619048,-0.387619048,0,0,0,,,,,,,GLOVE,C,z,m,./images/GLOVE.png,,,,,,,,,,,,,,,,,,,,,z,1,0.91,,,,,,,,0,78,78,157,1
,,,,,,,,,,,,,,,,,60df9fdeab12699f246cab91,54,2022-02-12_13h34.41.079,lexical_decision_task_DD_L3,2021.2.3,Win32,59.95203837,,,,,,,,,,,0.728,1,,,,,,,,,,,,,,,,,,,,,,,,0.007619048,-0.387619048,0,0,0,,,,,,,BISHOP,C,z,m,./images/BISHOP.png,,,,,,,,,,,,,,,,,,,,,z,1,0.728,,,,,,,,0,79,79,133,1
,,,,,,,,,,,,,,,,,60df9fdeab12699f246cab91,54,2022-02-12_13h34.41.079,lexical_decision_task_DD_L3,2021.2.3,Win32,59.95203837,,,,,,,,,,,1.097,1,,,,,,,,,,,,,,,,,,,,,,,,0.007619048,-0.387619048,0,0,0,,,,,,,BRUSH,HB,z,m,./images/BRUSHHB.png,,,,,,,,,,,,,,,,,,,,,z,1,1.097,,,,,,,,0,80,80,143,1
,,,,,,,,,,,,,,,,,60df9fdeab12699f246cab91,54,2022-02-12_13h34.41.079,lexical_decision_task_DD_L3,2021.2.3,Win32,59.95203837,,,,,,,,,,,0.843,1,,,,,,,,,,,,,,,,,,,,,,,,0.007619048,-0.387619048,0,0,0,,,,,,,POKER,C,z,m,./images/POKER.png,,,,,,,,,,,,,,,,,,,,,z,1,0.843,,,,,,,,0,81,81,151,1
,,,,,,,,,,,,,,,,,60df9fdeab12699f246cab91,54,2022-02-12_13h34.41.079,lexical_decision_task_DD_L3,2021.2.3,Win32,59.95203837,,,,,,,,,,,0.885,0,,,,,,,,,,,,,,,,,,,,,,,,0.007619048,-0.387619048,0,0,0,,,,,,,LIZARD,HB,m,m,./images/LIZARDHB.png,,,,,,,,,,,,,,,,,,,,,z,0,0.885,,,,,,,,0,82,82,44,1
,,,,,,,,,,,,,,,,,60df9fdeab12699f246cab91,54,2022-02-12_13h34.41.079,lexical_decision_task_DD_L3,2021.2.3,Win32,59.95203837,,,,,,,,,,,0.858,0,,,,,,,,,,,,,,,,,,,,,,,,0.007619048,-0.387619048,0,0,0,space,,,,,,CEMENT,HB,m,m,./images/CEMENTHB.png,17.962,,,,,,,,,,,,,,,,,,,,z,0,0.858,,,,,,,,0,83,83,74,1
,,,,,,,,,,,,,,,,,60df9fdeab12699f246cab91,54,2022-02-12_13h34.41.079,lexical_decision_task_DD_L3,2021.2.3,Win32,59.95203837,,,,,,,,,,,1.184,1,,,,,,,,,,,,,,,,,,,,,,,,0.007619048,-0.387619048,0,0,0,,,,,,,HAMMER,LB,z,m,./images/HAMMERLB.png,,,,,,,,,,,,,,,,,,,,,z,1,1.184,,,,,,,,0,84,84,159,1
,,,,,,,,,,,,,,,,,60df9fdeab12699f246cab91,54,2022-02-12_13h34.41.079,lexical_decision_task_DD_L3,2021.2.3,Win32,59.95203837,,,,,,,,,,,0.897,0,,,,,,,,,,,,,,,,,,,,,,,,0.007619048,-0.387619048,0,0,0,,,,,,,GRAIN,LB,m,m,./images/GRAINLB.png,,,,,,,,,,,,,,,,,,,,,z,0,0.897,,,,,,,,0,85,85,75,1
,,,,,,,,,,,,,,,,,60df9fdeab12699f246cab91,54,2022-02-12_13h34.41.079,lexical_decision_task_DD_L3,2021.2.3,Win32,59.95203837,,,,,,,,,,,1.106,0,,,,,,,,,,,,,,,,,,,,,,,,0.007619048,-0.387619048,0,0,0,,,,,,,CARPET,HB,m,m,./images/CARPETHB.png,,,,,,,,,,,,,,,,,,,,,z,0,1.106,,,,,,,,0,86,86,53,1
,,,,,,,,,,,,,,,,,60df9fdeab12699f246cab91,54,2022-02-12_13h34.41.079,lexical_decision_task_DD_L3,2021.2.3,Win32,59.95203837,,,,,,,,,,,1.035,1,,,,,,,,,,,,,,,,,,,,,,,,0.007619048,-0.387619048,0,0,0,,,,,,,FERRY,LB,z,m,./images/FERRYLB.png,,,,,,,,,,,,,,,,,,,,,z,1,1.035,,,,,,,,0,87,87,141,1
,,,,,,,,,,,,,,,,,60df9fdeab12699f246cab91,54,2022-02-12_13h34.41.079,lexical_decision_task_DD_L3,2021.2.3,Win32,59.95203837,,,,,,,,,,,0.752,1,,,,,,,,,,,,,,,,,,,,,,,,0.007619048,-0.387619048,0,0,0,,,,,,,ARTIST,C,z,m,./images/ARTIST.png,,,,,,,,,,,,,,,,,,,,,z,1,0.752,,,,,,,,0,88,88,145,1
,,,,,,,,,,,,,,,,,60df9fdeab12699f246cab91,54,2022-02-12_13h34.41.079,lexical_decision_task_DD_L3,2021.2.3,Win32,59.95203837,,,,,,,,,,,0.808,1,,,,,,,,,,,,,,,,,,,,,,,,0.007619048,-0.387619048,0,0,0,,,,,,,BRIDE,C,z,m,./images/BRIDE.png,,,,,,,,,,,,,,,,,,,,,z,1,0.808,,,,,,,,0,89,89,148,1
,,,,,,,,,,,,,,,,,60df9fdeab12699f246cab91,54,2022-02-12_13h34.41.079,lexical_decision_task_DD_L3,2021.2.3,Win32,59.95203837,,,,,,,,,,,1.126,1,,,,,,,,,,,,,,,,,,,,,,,,0.007619048,-0.387619048,0,0,0,,,,,,,DRUMS,C,m,m,./images/DRUMS.png,,,,,,,,,,,,,,,,,,,,,m,1,1.126,,,,,,,,0,90,90,49,1
,,,,,,,,,,,,,,,,,60df9fdeab12699f246cab91,54,2022-02-12_13h34.41.079,lexical_decision_task_DD_L3,2021.2.3,Win32,59.95203837,,,,,,,,,,,0.767,0,,,,,,,,,,,,,,,,,,,,,,,,0.007619048,-0.387619048,0,0,0,,,,,,,SHELF,LB,m,m,./images/SHELFLB.png,,,,,,,,,,,,,,,,,,,,,z,0,0.767,,,,,,,,0,91,91,39,1
,,,,,,,,,,,,,,,,,60df9fdeab12699f246cab91,54,2022-02-12_13h34.41.079,lexical_decision_task_DD_L3,2021.2.3,Win32,59.95203837,,,,,,,,,,,0.768,1,,,,,,,,,,,,,,,,,,,,,,,,0.007619048,-0.387619048,0,0,0,,,,,,,PIMPLE,HB,m,m,./images/PIMPLEHB.png,,,,,,,,,,,,,,,,,,,,,m,1,0.768,,,,,,,,0,92,92,71,1
,,,,,,,,,,,,,,,,,60df9fdeab12699f246cab91,54,2022-02-12_13h34.41.079,lexical_decision_task_DD_L3,2021.2.3,Win32,59.95203837,,,,,,,,,,,1.605,1,,,,,,,,,,,,,,,,,,,,,,,,0.007619048,-0.387619048,0,0,0,,,,,,,DOUGH,C,m,m,./images/DOUGH.png,,,,,,,,,,,,,,,,,,,,,m,1,1.605,,,,,,,,0,93,93,19,1
,,,,,,,,,,,,,,,,,60df9fdeab12699f246cab91,54,2022-02-12_13h34.41.079,lexical_decision_task_DD_L3,2021.2.3,Win32,59.95203837,,,,,,,,,,,0.651,1,,,,,,,,,,,,,,,,,,,,,,,,0.007619048,-0.387619048,0,0,0,,,,,,,CANDLE,C,m,m,./images/CANDLE.png,,,,,,,,,,,,,,,,,,,,,m,1,0.651,,,,,,,,0,94,94,61,1
,,,,,,,,,,,,,,,,,60df9fdeab12699f246cab91,54,2022-02-12_13h34.41.079,lexical_decision_task_DD_L3,2021.2.3,Win32,59.95203837,,,,,,,,,,,0.808,1,,,,,,,,,,,,,,,,,,,,,,,,0.007619048,-0.387619048,0,0,0,,,,,,,STATUE,LB,z,m,./images/STATUELB.png,,,,,,,,,,,,,,,,,,,,,z,1,0.808,,,,,,,,0,95,95,150,1
,,,,,,,,,,,,,,,,,60df9fdeab12699f246cab91,54,2022-02-12_13h34.41.079,lexical_decision_task_DD_L3,2021.2.3,Win32,59.95203837,,,,,,,,,,,1.169,0,,,,,,,,,,,,,,,,,,,,,,,,0.007619048,-0.387619048,0,0,0,,,,,,,MALLET,HB,m,m,./images/MALLETHB.png,,,,,,,,,,,,,,,,,,,,,z,0,1.169,,,,,,,,0,96,96,50,1
,,,,,,,,,,,,,,,,,60df9fdeab12699f246cab91,54,2022-02-12_13h34.41.079,lexical_decision_task_DD_L3,2021.2.3,Win32,59.95203837,,,,,,,,,,,0.674,0,,,,,,,,,,,,,,,,,,,,,,,,0.007619048,-0.387619048,0,0,0,,,,,,,ATTIC,LB,m,m,./images/ATTICLB.png,,,,,,,,,,,,,,,,,,,,,z,0,0.674,,,,,,,,0,97,97,27,1
,,,,,,,,,,,,,,,,,60df9fdeab12699f246cab91,54,2022-02-12_13h34.41.079,lexical_decision_task_DD_L3,2021.2.3,Win32,59.95203837,,,,,,,,,,,0.942,0,,,,,,,,,,,,,,,,,,,,,,,,0.007619048,-0.387619048,0,0,0,,,,,,,MUFFIN,C,m,m,./images/MUFFIN.png,,,,,,,,,,,,,,,,,,,,,z,0,0.942,,,,,,,,0,98,98,55,1
,,,,,,,,,,,,,,,,,60df9fdeab12699f246cab91,54,2022-02-12_13h34.41.079,lexical_decision_task_DD_L3,2021.2.3,Win32,59.95203837,,,,,,,,,,,0.777,1,,,,,,,,,,,,,,,,,,,,,,,,0.007619048,-0.387619048,0,0,0,,,,,,,PARCEL,LB,z,m,./images/PARCELLB.png,,,,,,,,,,,,,,,,,,,,,z,1,0.777,,,,,,,,0,99,99,102,1
,,,,,,,,,,,,,,,,,60df9fdeab12699f246cab91,54,2022-02-12_13h34.41.079,lexical_decision_task_DD_L3,2021.2.3,Win32,59.95203837,,,,,,,,,,,1.302,1,,,,,,,,,,,,,,,,,,,,,,,,0.007619048,-0.387619048,0,0,0,,,,,,,GARDEN,C,z,m,./images/GARDEN.png,,,,,,,,,,,,,,,,,,,,,z,1,1.302,,,,,,,,0,100,100,94,1
,,,,,,,,,,,,,,,,,60df9fdeab12699f246cab91,54,2022-02-12_13h34.41.079,lexical_decision_task_DD_L3,2021.2.3,Win32,59.95203837,,,,,,,,,,,0.833,1,,,,,,,,,,,,,,,,,,,,,,,,0.007619048,-0.387619048,0,0,0,,,,,,,PISTOL,HB,z,m,./images/PISTOLHB.png,,,,,,,,,,,,,,,,,,,,,z,1,0.833,,,,,,,,0,101,101,113,1
,,,,,,,,,,,,,,,,,60df9fdeab12699f246cab91,54,2022-02-12_13h34.41.079,lexical_decision_task_DD_L3,2021.2.3,Win32,59.95203837,,,,,,,,,,,1.258,0,,,,,,,,,,,,,,,,,,,,,,,,0.007619048,-0.387619048,0,0,0,,,,,,,WRIST,C,m,m,./images/WRIST.png,,,,,,,,,,,,,,,,,,,,,z,0,1.258,,,,,,,,0,102,102,25,1
,,,,,,,,,,,,,,,,,60df9fdeab12699f246cab91,54,2022-02-12_13h34.41.079,lexical_decision_task_DD_L3,2021.2.3,Win32,59.95203837,,,,,,,,,,,1.3,1,,,,,,,,,,,,,,,,,,,,,,,,0.007619048,-0.387619048,0,0,0,,,,,,,WHISKY,HB,z,m,./images/WHISKYHB.png,,,,,,,,,,,,,,,,,,,,,z,1,1.3,,,,,,,,0,103,103,167,1
,,,,,,,,,,,,,,,,,60df9fdeab12699f246cab91,54,2022-02-12_13h34.41.079,lexical_decision_task_DD_L3,2021.2.3,Win32,59.95203837,,,,,,,,,,,0.827,1,,,,,,,,,,,,,,,,,,,,,,,,0.007619048,-0.387619048,0,0,0,,,,,,,TIGER,C,z,m,./images/TIGER.png,,,,,,,,,,,,,,,,,,,,,z,1,0.827,,,,,,,,0,104,104,121,1
,,,,,,,,,,,,,,,,,60df9fdeab12699f246cab91,54,2022-02-12_13h34.41.079,lexical_decision_task_DD_L3,2021.2.3,Win32,59.95203837,,,,,,,,,,,0.741,1,,,,,,,,,,,,,,,,,,,,,,,,0.007619048,-0.387619048,0,0,0,,,,,,,RAZOR,C,z,m,./images/RAZOR.png,,,,,,,,,,,,,,,,,,,,,z,1,0.741,,,,,,,,0,105,105,118,1
,,,,,,,,,,,,,,,,,60df9fdeab12699f246cab91,54,2022-02-12_13h34.41.079,lexical_decision_task_DD_L3,2021.2.3,Win32,59.95203837,,,,,,,,,,,0.805,1,,,,,,,,,,,,,,,,,,,,,,,,0.007619048,-0.387619048,0,0,0,,,,,,,FLESH,LB,z,m,./images/FLESHLB.png,,,,,,,,,,,,,,,,,,,,,z,1,0.805,,,,,,,,0,106,106,108,1
,,,,,,,,,,,,,,,,,60df9fdeab12699f246cab91,54,2022-02-12_13h34.41.079,lexical_decision_task_DD_L3,2021.2.3,Win32,59.95203837,,,,,,,,,,,0.819,1,,,,,,,,,,,,,,,,,,,,,,,,0.007619048,-0.387619048,0,0,0,,,,,,,BUNNY,C,z,m,./images/BUNNY.png,,,,,,,,,,,,,,,,,,,,,z,1,0.819,,,,,,,,0,107,107,97,1
,,,,,,,,,,,,,,,,,60df9fdeab12699f246cab91,54,2022-02-12_13h34.41.079,lexical_decision_task_DD_L3,2021.2.3,Win32,59.95203837,,,,,,,,,,,0.835,0,,,,,,,,,,,,,,,,,,,,,,,,0.007619048,-0.387619048,0,0,0,,,,,,,MUSCLE,C,m,m,./images/MUSCLE.png,,,,,,,,,,,,,,,,,,,,,z,0,0.835,,,,,,,,0,108,108,4,1
,,,,,,,,,,,,,,,,,60df9fdeab12699f246cab91,54,2022-02-12_13h34.41.079,lexical_decision_task_DD_L3,2021.2.3,Win32,59.95203837,,,,,,,,,,,0.908,1,,,,,,,,,,,,,,,,,,,,,,,,0.007619048,-0.387619048,0,0,0,,,,,,,BASKET,HB,z,m,./images/BASKETHB.png,,,,,,,,,,,,,,,,,,,,,z,1,0.908,,,,,,,,0,109,109,128,1
,,,,,,,,,,,,,,,,,60df9fdeab12699f246cab91,54,2022-02-12_13h34.41.079,lexical_decision_task_DD_L3,2021.2.3,Win32,59.95203837,,,,,,,,,,,0.757,1,,,,,,,,,,,,,,,,,,,,,,,,0.007619048,-0.387619048,0,0,0,,,,,,,BOXER,C,z,m,./images/BOXER.png,,,,,,,,,,,,,,,,,,,,,z,1,0.757,,,,,,,,0,110,110,88,1
,,,,,,,,,,,,,,,,,60df9fdeab12699f246cab91,54,2022-02-12_13h34.41.079,lexical_decision_task_DD_L3,2021.2.3,Win32,59.95203837,,,,,,,,,,,0.759,1,,,,,,,,,,,,,,,,,,,,,,,,0.007619048,-0.387619048,0,0,0,,,,,,,ALLEY,C,z,m,./images/ALLEY.png,,,,,,,,,,,,,,,,,,,,,z,1,0.759,,,,,,,,0,111,111,139,1
,,,,,,,,,,,,,,,,,60df9fdeab12699f246cab91,54,2022-02-12_13h34.41.079,lexical_decision_task_DD_L3,2021.2.3,Win32,59.95203837,,,,,,,,,,,0.822,1,,,,,,,,,,,,,,,,,,,,,,,,0.007619048,-0.387619048,0,0,0,,,,,,,BANANA,C,z,m,./images/BANANA.png,,,,,,,,,,,,,,,,,,,,,z,1,0.822,,,,,,,,0,112,112,154,1
,,,,,,,,,,,,,,,,,60df9fdeab12699f246cab91,54,2022-02-12_13h34.41.079,lexical_decision_task_DD_L3,2021.2.3,Win32,59.95203837,,,,,,,,,,,0.936,1,,,,,,,,,,,,,,,,,,,,,,,,0.007619048,-0.387619048,0,0,0,,,,,,,GREASE,LB,m,m,./images/GREASELB.png,,,,,,,,,,,,,,,,,,,,,m,1,0.936,,,,,,,,0,113,113,15,1
,,,,,,,,,,,,,,,,,60df9fdeab12699f246cab91,54,2022-02-12_13h34.41.079,lexical_decision_task_DD_L3,2021.2.3,Win32,59.95203837,,,,,,,,,,,0.955,1,,,,,,,,,,,,,,,,,,,,,,,,0.007619048,-0.387619048,0,0,0,,,,,,,LLAMA,HB,z,m,./images/LLAMAHB.png,,,,,,,,,,,,,,,,,,,,,z,1,0.955,,,,,,,,0,114,114,119,1
,,,,,,,,,,,,,,,,,60df9fdeab12699f246cab91,54,2022-02-12_13h34.41.079,lexical_decision_task_DD_L3,2021.2.3,Win32,59.95203837,,,,,,,,,,,1.068,1,,,,,,,,,,,,,,,,,,,,,,,,0.007619048,-0.387619048,0,0,0,,,,,,,MOOSE,LB,m,m,./images/MOOSELB.png,,,,,,,,,,,,,,,,,,,,,m,1,1.068,,,,,,,,0,115,115,57,1
,,,,,,,,,,,,,,,,,60df9fdeab12699f246cab91,54,2022-02-12_13h34.41.079,lexical_decision_task_DD_L3,2021.2.3,Win32,59.95203837,,,,,,,,,,,0.79,1,,,,,,,,,,,,,,,,,,,,,,,,0.007619048,-0.387619048,0,0,0,,,,,,,QUILL,C,m,m,./images/QUILL.png,,,,,,,,,,,,,,,,,,,,,m,1,0.79,,,,,,,,0,116,116,31,1
,,,,,,,,,,,,,,,,,60df9fdeab12699f246cab91,54,2022-02-12_13h34.41.079,lexical_decision_task_DD_L3,2021.2.3,Win32,59.95203837,,,,,,,,,,,0.899,0,,,,,,,,,,,,,,,,,,,,,,,,0.007619048,-0.387619048,0,0,0,,,,,,,PASTA,HB,m,m,./images/PASTAHB.png,,,,,,,,,,,,,,,,,,,,,z,0,0.899,,,,,,,,0,117,117,5,1
,,,,,,,,,,,,,,,,,60df9fdeab12699f246cab91,54,2022-02-12_13h34.41.079,lexical_decision_task_DD_L3,2021.2.3,Win32,59.95203837,,,,,,,,,,,1.144,0,,,,,,,,,,,,,,,,,,,,,,,,0.007619048,-0.387619048,0,0,0,,,,,,,PEARL,C,m,m,./images/PEARL.png,,,,,,,,,,,,,,,,,,,,,z,0,1.144,,,,,,,,0,118,118,46,1
,,,,,,,,,,,,,,,,,60df9fdeab12699f246cab91,54,2022-02-12_13h34.41.079,lexical_decision_task_DD_L3,2021.2.3,Win32,59.95203837,,,,,,,,,,,1.343,0,,,,,,,,,,,,,,,,,,,,,,,,0.007619048,-0.387619048,0,0,0,,,,,,,PICKLE,HB,m,m,./images/PICKLEHB.png,,,,,,,,,,,,,,,,,,,,,z,0,1.343,,,,,,,,0,119,119,14,1
,,,,,,,,,,,,,,,,,60df9fdeab12699f246cab91,54,2022-02-12_13h34.41.079,lexical_decision_task_DD_L3,2021.2.3,Win32,59.95203837,,,,,,,,,,,1.026,1,,,,,,,,,,,,,,,,,,,,,,,,0.007619048,-0.387619048,0,0,0,,,,,,,BAKER,LB,z,m,./images/BAKERLB.png,,,,,,,,,,,,,,,,,,,,,z,1,1.026,,,,,,,,0,120,120,147,1
,,,,,,,,,,,,,,,,,60df9fdeab12699f246cab91,54,2022-02-12_13h34.41.079,lexical_decision_task_DD_L3,2021.2.3,Win32,59.95203837,,,,,,,,,,,1.17,1,,,,,,,,,,,,,,,,,,,,,,,,0.007619048,-0.387619048,0,0,0,,,,,,,BARREL,HB,m,m,./images/BARRELHB.png,,,,,,,,,,,,,,,,,,,,,m,1,1.17,,,,,,,,0,121,121,32,1
,,,,,,,,,,,,,,,,,60df9fdeab12699f246cab91,54,2022-02-12_13h34.41.079,lexical_decision_task_DD_L3,2021.2.3,Win32,59.95203837,,,,,,,,,,,0.791,1,,,,,,,,,,,,,,,,,,,,,,,,0.007619048,-0.387619048,0,0,0,,,,,,,DRILL,LB,z,m,./images/DRILLLB.png,,,,,,,,,,,,,,,,,,,,,z,1,0.791,,,,,,,,0,122,122,165,1
,,,,,,,,,,,,,,,,,60df9fdeab12699f246cab91,54,2022-02-12_13h34.41.079,lexical_decision_task_DD_L3,2021.2.3,Win32,59.95203837,,,,,,,,,,,1.055,0,,,,,,,,,,,,,,,,,,,,,,,,0.007619048,-0.387619048,0,0,0,,,,,,,CLIFF,HB,z,m,./images/CLIFFHB.png,,,,,,,,,,,,,,,,,,,,,m,0,1.055,,,,,,,,0,123,123,92,1
,,,,,,,,,,,,,,,,,60df9fdeab12699f246cab91,54,2022-02-12_13h34.41.079,lexical_decision_task_DD_L3,2021.2.3,Win32,59.95203837,,,,,,,,,,,1.509,0,,,,,,,,,,,,,,,,,,,,,,,,0.007619048,-0.387619048,0,0,0,,,,,,,CLOUD,HB,z,m,./images/CLOUDHB.png,,,,,,,,,,,,,,,,,,,,,m,0,1.509,,,,,,,,0,124,124,110,1
,,,,,,,,,,,,,,,,,60df9fdeab12699f246cab91,54,2022-02-12_13h34.41.079,lexical_decision_task_DD_L3,2021.2.3,Win32,59.95203837,,,,,,,,,,,0.865,1,,,,,,,,,,,,,,,,,,,,,,,,0.007619048,-0.387619048,0,0,0,space,,,,,,CHERRY,LB,z,m,./images/CHERRYLB.png,15.279,,,,,,,,,,,,,,,,,,,,z,1,0.865,,,,,,,,0,125,125,138,1
,,,,,,,,,,,,,,,,,60df9fdeab12699f246cab91,54,2022-02-12_13h34.41.079,lexical_decision_task_DD_L3,2021.2.3,Win32,59.95203837,,,,,,,,,,,0.905,0,,,,,,,,,,,,,,,,,,,,,,,,0.007619048,-0.387619048,0,0,0,,,,,,,CANDY,LB,z,m,./images/CANDYLB.png,,,,,,,,,,,,,,,,,,,,,m,0,0.905,,,,,,,,0,126,126,123,1
,,,,,,,,,,,,,,,,,60df9fdeab12699f246cab91,54,2022-02-12_13h34.41.079,lexical_decision_task_DD_L3,2021.2.3,Win32,59.95203837,,,,,,,,,,,1.165,0,,,,,,,,,,,,,,,,,,,,,,,,0.007619048,-0.387619048,0,0,0,,,,,,,SPINE,HB,z,m,./images/SPINEHB.png,,,,,,,,,,,,,,,,,,,,,m,0,1.165,,,,,,,,0,127,127,149,1
,,,,,,,,,,,,,,,,,60df9fdeab12699f246cab91,54,2022-02-12_13h34.41.079,lexical_decision_task_DD_L3,2021.2.3,Win32,59.95203837,,,,,,,,,,,0.816,1,,,,,,,,,,,,,,,,,,,,,,,,0.007619048,-0.387619048,0,0,0,,,,,,,TULIP,HB,m,m,./images/TULIPHB.png,,,,,,,,,,,,,,,,,,,,,m,1,0.816,,,,,,,,0,128,128,8,1
,,,,,,,,,,,,,,,,,60df9fdeab12699f246cab91,54,2022-02-12_13h34.41.079,lexical_decision_task_DD_L3,2021.2.3,Win32,59.95203837,,,,,,,,,,,0.744,1,,,,,,,,,,,,,,,,,,,,,,,,0.007619048,-0.387619048,0,0,0,,,,,,,CRUMB,HB,m,m,./images/CRUMBHB.png,,,,,,,,,,,,,,,,,,,,,m,1,0.744,,,,,,,,0,129,129,29,1
,,,,,,,,,,,,,,,,,60df9fdeab12699f246cab91,54,2022-02-12_13h34.41.079,lexical_decision_task_DD_L3,2021.2.3,Win32,59.95203837,,,,,,,,,,,1.16,1,,,,,,,,,,,,,,,,,,,,,,,,0.007619048,-0.387619048,0,0,0,,,,,,,POSTER,HB,z,m,./images/POSTERHB.png,,,,,,,,,,,,,,,,,,,,,z,1,1.16,,,,,,,,0,130,130,137,1
,,,,,,,,,,,,,,,,,60df9fdeab12699f246cab91,54,2022-02-12_13h34.41.079,lexical_decision_task_DD_L3,2021.2.3,Win32,59.95203837,,,,,,,,,,,0.953,1,,,,,,,,,,,,,,,,,,,,,,,,0.007619048,-0.387619048,0,0,0,,,,,,,SAUCE,LB,z,m,./images/SAUCELB.png,,,,,,,,,,,,,,,,,,,,,z,1,0.953,,,,,,,,0,131,131,135,1
,,,,,,,,,,,,,,,,,60df9fdeab12699f246cab91,54,2022-02-12_13h34.41.079,lexical_decision_task_DD_L3,2021.2.3,Win32,59.95203837,,,,,,,,,,,1.451,0,,,,,,,,,,,,,,,,,,,,,,,,0.007619048,-0.387619048,0,0,0,,,,,,,FOLDER,LB,m,m,./images/FOLDERLB.png,,,,,,,,,,,,,,,,,,,,,z,0,1.451,,,,,,,,0,132,132,42,1
,,,,,,,,,,,,,,,,,60df9fdeab12699f246cab91,54,2022-02-12_13h34.41.079,lexical_decision_task_DD_L3,2021.2.3,Win32,59.95203837,,,,,,,,,,,1.084,0,,,,,,,,,,,,,,,,,,,,,,,,0.007619048,-0.387619048,0,0,0,,,,,,,MOTOR,C,m,m,./images/MOTOR.png,,,,,,,,,,,,,,,,,,,,,z,0,1.084,,,,,,,,0,133,133,13,1
