key_resp.keys,instr_done_touch.x,instr_done_touch.y,instr_done_touch.leftButton,instr_done_touch.midButton,instr_done_touch.rightButton,instr_done_touch.clicked_name,instruction_pages.thisRepN,instruction_pages.thisTrialN,instruction_pages.thisN,instruction_pages.thisIndex,instruction_pages.ran,pageN,phase,instruct_text,has_image,instruct_image,participant,age,date,expName,psychopyVersion,OS,frameRate,response.keys,response.corr,touch_resp.x,touch_resp.y,touch_resp.leftButton,touch_resp.midButton,touch_resp.rightButton,touch_resp.time,touch_resp.clicked_name,rt,corr,practrials.thisRepN,practrials.thisTrialN,practrials.thisN,practrials.thisIndex,practrials.ran,TrialID,Target,corrAns,end_of_practice_trials_pages.thisRepN,end_of_practice_trials_pages.thisTrialN,end_of_practice_trials_pages.thisN,end_of_practice_trials_pages.thisIndex,end_of_practice_trials_pages.ran,key_resp_2.keys,key_resp_2.corr,targ_click.x,targ_click.y,targ_click.leftButton,targ_click.midButton,targ_click.rightButton,targ_click.time,targ_click.clicked_name,break_done_touch.x,break_done_touch.y,break_done_touch.leftButton,break_done_touch.midButton,break_done_touch.rightButton,break_done_keyboard.keys,maintrials.thisRepN,maintrials.thisTrialN,maintrials.thisN,maintrials.thisIndex,maintrials.ran,string,blur,study,lex,stim_path,break_done_touch.clicked_name,mouse_2.x,mouse_2.y,mouse_2.leftButton,mouse_2.midButton,mouse_2.rightButton,mouse_2.clicked_name,slider.response,slider.rt,trials.thisRepN,trials.thisTrialN,trials.thisN,trials.thisIndex,trials.ran,test_instructions.thisRepN,test_instructions.thisTrialN,test_instructions.thisN,test_instructions.thisIndex,test_instructions.ran,key_resp_3.keys,key_resp_3.corr,test_click.x,test_click.y,test_click.leftButton,test_click.midButton,test_click.rightButton,test_click.time,test_click.clicked_name,test_phase.thisRepN,test_phase.thisTrialN,test_phase.thisN,test_phase.thisIndex,test_phase.ran
,-0.052001953,-0.39306275,1,0,0,instr_done_button,0,0,0,0,1,1,instructions,"INSTRUCTIONS
At the start of each trial, look at the plus sign  (+) in the center of the screen.  This tells you that a trial is about to begin and where to look. Second, the plus sign will disappear and a string of letters will appear. Your task is to determine if the string of letters is a word or not. If the item is a word press the M key (on keyboard)  or touch the word button (phone/tablet).  If the item is not a word,  press the  Z key (on keyboard)  or touch the nonword button (on phone/tablet). 
Press the space bar or touch  continue.",0,,60ebc02f8a63cb2f69fa3ae1,43,2022-02-12_16h53.52.659,lexical_decision_task_DD,2021.2.3,Linux aarch64,59.90534955,,,,,,,,,,,,,,,,,,,,,,,,,,,,,,,,,,,,,,,,,,,,,,,,,,,,,,,,,,,,,,,,,,,,,,,,,,,,,,,,,,
,-0.051757813,-0.401743571,1,0,0,instr_done_button,0,1,1,1,1,2,instructions,"If your device has a keyboard, press the 'Z' key for nonwords and the 'M' key for words.





Press the space bar or touch the button below to continue.",0,keyboard-example.gif,60ebc02f8a63cb2f69fa3ae1,43,2022-02-12_16h53.52.659,lexical_decision_task_DD,2021.2.3,Linux aarch64,59.90534955,,,,,,,,,,,,,,,,,,,,,,,,,,,,,,,,,,,,,,,,,,,,,,,,,,,,,,,,,,,,,,,,,,,,,,,,,,,,,,,,,,
,-0.046386719,-0.388179938,1,0,0,instr_done_button,0,2,2,2,1,3,instructions,"If you are using a touchscreen only device, use the buttons on the screen. Do not use the mouse.





Press the space bar or touch the button below to continue.",0,touchscreen-example.gif,60ebc02f8a63cb2f69fa3ae1,43,2022-02-12_16h53.52.659,lexical_decision_task_DD,2021.2.3,Linux aarch64,59.90534955,,,,,,,,,,,,,,,,,,,,,,,,,,,,,,,,,,,,,,,,,,,,,,,,,,,,,,,,,,,,,,,,,,,,,,,,,,,,,,,,,,
,-0.038085938,-0.394147873,1,0,0,instr_done_button,0,3,3,3,1,4,instructions,"It is very important that you respond as quickly and accurately as possible, as each letter string will only be on the screen for two seconds. If you do not respond within this time, the message 'Too slow!' will be displayed and the experiment will progress to the next letter string. The first 20 trials will be practice trials and you will receive feedback on your answers. 

Press the space bar or touch the button below to start the practice trials.",0,,60ebc02f8a63cb2f69fa3ae1,43,2022-02-12_16h53.52.659,lexical_decision_task_DD,2021.2.3,Linux aarch64,59.90534955,,,,,,,,,,,,,,,,,,,,,,,,,,,,,,,,,,,,,,,,,,,,,,,,,,,,,,,,,,,,,,,,,,,,,,,,,,,,,,,,,,
,,,,,,,,,,,,,,,,,60ebc02f8a63cb2f69fa3ae1,43,2022-02-12_16h53.52.659,lexical_decision_task_DD,2021.2.3,Linux aarch64,59.90534955,,0,-0.313964844,-0.298119227,1,0,0,2.4588,button_left,2.4588,1,0,0,0,10,1,1001,INLADE,z,,,,,,,,,,,,,,,,,,,,,,,,,,,,,,,,,,,,,,,,,,,,,,,,,,,,,,,,,,,,,,,
,,,,,,,,,,,,,,,,,60ebc02f8a63cb2f69fa3ae1,43,2022-02-12_16h53.52.659,lexical_decision_task_DD,2021.2.3,Linux aarch64,59.90534955,,0,0.372558594,-0.36159579,1,0,0,1.6457,button_right,1.6457,1,0,1,1,2,1,1001,ALMOND,m,,,,,,,,,,,,,,,,,,,,,,,,,,,,,,,,,,,,,,,,,,,,,,,,,,,,,,,,,,,,,,,
,,,,,,,,,,,,,,,,,60ebc02f8a63cb2f69fa3ae1,43,2022-02-12_16h53.52.659,lexical_decision_task_DD,2021.2.3,Linux aarch64,59.90534955,,0,0.331054688,-0.307884852,1,0,0,0.996,button_right,0.996,1,0,2,2,7,1,1001,VOLUME,m,,,,,,,,,,,,,,,,,,,,,,,,,,,,,,,,,,,,,,,,,,,,,,,,,,,,,,,,,,,,,,,
,,,,,,,,,,,,,,,,,60ebc02f8a63cb2f69fa3ae1,43,2022-02-12_16h53.52.659,lexical_decision_task_DD,2021.2.3,Linux aarch64,59.90534955,,0,0.385742188,-0.321448247,1,0,0,1.0436,button_right,1.0436,1,0,3,3,6,1,1001,ZOMBIE,m,,,,,,,,,,,,,,,,,,,,,,,,,,,,,,,,,,,,,,,,,,,,,,,,,,,,,,,,,,,,,,,
,,,,,,,,,,,,,,,,,60ebc02f8a63cb2f69fa3ae1,43,2022-02-12_16h53.52.659,lexical_decision_task_DD,2021.2.3,Linux aarch64,59.90534955,,0,-0.392089844,-0.298661788,1,0,0,0.813,button_left,0.813,1,0,4,4,14,1,1001,THRALE,z,,,,,,,,,,,,,,,,,,,,,,,,,,,,,,,,,,,,,,,,,,,,,,,,,,,,,,,,,,,,,,,
,,,,,,,,,,,,,,,,,60ebc02f8a63cb2f69fa3ae1,43,2022-02-12_16h53.52.659,lexical_decision_task_DD,2021.2.3,Linux aarch64,59.90534955,,0,0.389648438,-0.334469,1,0,0,0.8009,button_right,0.8009,1,0,5,5,4,1,1001,SQUEAK,m,,,,,,,,,,,,,,,,,,,,,,,,,,,,,,,,,,,,,,,,,,,,,,,,,,,,,,,,,,,,,,,
,,,,,,,,,,,,,,,,,60ebc02f8a63cb2f69fa3ae1,43,2022-02-12_16h53.52.659,lexical_decision_task_DD,2021.2.3,Linux aarch64,59.90534955,,0,0.407958984,-0.304087241,1,0,0,0.7428,button_right,0.7428,1,0,6,6,1,1,1001,ADJUST,m,,,,,,,,,,,,,,,,,,,,,,,,,,,,,,,,,,,,,,,,,,,,,,,,,,,,,,,,,,,,,,,
,,,,,,,,,,,,,,,,,60ebc02f8a63cb2f69fa3ae1,43,2022-02-12_16h53.52.659,lexical_decision_task_DD,2021.2.3,Linux aarch64,59.90534955,,0,0.416259766,-0.294321616,1,0,0,0.7801,button_right,0.7801,1,0,7,7,5,1,1001,OBTAIN,m,,,,,,,,,,,,,,,,,,,,,,,,,,,,,,,,,,,,,,,,,,,,,,,,,,,,,,,,,,,,,,,
,,,,,,,,,,,,,,,,,60ebc02f8a63cb2f69fa3ae1,43,2022-02-12_16h53.52.659,lexical_decision_task_DD,2021.2.3,Linux aarch64,59.90534955,,0,-0.407470703,-0.253631512,1,0,0,0.7167,button_left,0.7167,1,0,8,8,13,1,1001,ROUPET,z,,,,,,,,,,,,,,,,,,,,,,,,,,,,,,,,,,,,,,,,,,,,,,,,,,,,,,,,,,,,,,,
,,,,,,,,,,,,,,,,,60ebc02f8a63cb2f69fa3ae1,43,2022-02-12_16h53.52.659,lexical_decision_task_DD,2021.2.3,Linux aarch64,59.90534955,,0,-0.387939453,-0.261226892,1,0,0,0.9135,button_left,0.9135,1,0,9,9,11,1,1001,RASHET,z,,,,,,,,,,,,,,,,,,,,,,,,,,,,,,,,,,,,,,,,,,,,,,,,,,,,,,,,,,,,,,,
,,,,,,,,,,,,,,,,,60ebc02f8a63cb2f69fa3ae1,43,2022-02-12_16h53.52.659,lexical_decision_task_DD,2021.2.3,Linux aarch64,59.90534955,,0,-0.394287109,-0.244950851,1,0,0,0.8839,button_left,0.8839,1,0,10,10,8,1,1001,ASLERT,z,,,,,,,,,,,,,,,,,,,,,,,,,,,,,,,,,,,,,,,,,,,,,,,,,,,,,,,,,,,,,,,
,,,,,,,,,,,,,,,,,60ebc02f8a63cb2f69fa3ae1,43,2022-02-12_16h53.52.659,lexical_decision_task_DD,2021.2.3,Linux aarch64,59.90534955,,0,-0.360595703,-0.257971684,1,0,0,0.8634,button_left,0.8634,1,0,11,11,9,1,1001,FARINY,z,,,,,,,,,,,,,,,,,,,,,,,,,,,,,,,,,,,,,,,,,,,,,,,,,,,,,,,,,,,,,,,
,,,,,,,,,,,,,,,,,60ebc02f8a63cb2f69fa3ae1,43,2022-02-12_16h53.52.659,lexical_decision_task_DD,2021.2.3,Linux aarch64,59.90534955,,0,-0.375732422,-0.247663498,1,0,0,0.6979,button_left,0.6979,1,0,12,12,15,1,1001,WHAISE,z,,,,,,,,,,,,,,,,,,,,,,,,,,,,,,,,,,,,,,,,,,,,,,,,,,,,,,,,,,,,,,,
,,,,,,,,,,,,,,,,,60ebc02f8a63cb2f69fa3ae1,43,2022-02-12_16h53.52.659,lexical_decision_task_DD,2021.2.3,Linux aarch64,59.90534955,,0,0.435546875,-0.328501225,1,0,0,0.7127,button_right,0.7127,1,0,13,13,3,1,1001,MATRIX,m,,,,,,,,,,,,,,,,,,,,,,,,,,,,,,,,,,,,,,,,,,,,,,,,,,,,,,,,,,,,,,,
,,,,,,,,,,,,,,,,,60ebc02f8a63cb2f69fa3ae1,43,2022-02-12_16h53.52.659,lexical_decision_task_DD,2021.2.3,Linux aarch64,59.90534955,,0,0.397216797,-0.279673179,1,0,0,1.1304,button_right,1.1304,1,0,14,14,0,1,1001,UTOPIA,m,,,,,,,,,,,,,,,,,,,,,,,,,,,,,,,,,,,,,,,,,,,,,,,,,,,,,,,,,,,,,,,
,,,,,,,,,,,,,,,,,60ebc02f8a63cb2f69fa3ae1,43,2022-02-12_16h53.52.659,lexical_decision_task_DD,2021.2.3,Linux aarch64,59.90534955,,0,-0.386230469,-0.231930017,1,0,0,0.8723,button_left,0.8723,1,0,15,15,12,1,1001,SPRINY,z,,,,,,,,,,,,,,,,,,,,,,,,,,,,,,,,,,,,,,,,,,,,,,,,,,,,,,,,,,,,,,,
,-0.076660156,-0.380041917,1,0,0,instr_done_button,,,,,,1,end_of_practice,"You have completed the practice trials. During the experimental trials, you will not receive feedback. 
Before you begin, please ensure that you are in a comfortable and quiet location and will not be disturbed for about 15 minutes, as we cannot use your data if you do not complete all the trials. 
 When you are ready to start the experimental trials, please press space or touch the button below.",,,60ebc02f8a63cb2f69fa3ae1,43,2022-02-12_16h53.52.659,lexical_decision_task_DD,2021.2.3,Linux aarch64,59.90534955,,,,,,,,,,,,,,,,,,,,0,0,0,0,1,,,,,,,,,,,,,,,,,,,,,,,,,,,,,,,,,,,,,,,,,,,,,,,,,,,,,,,,,,
,,,,,,,,,,,,,,,,,60ebc02f8a63cb2f69fa3ae1,43,2022-02-12_16h53.52.659,lexical_decision_task_DD,2021.2.3,Linux aarch64,59.90534955,,,,,,,,,,2.1853,1,,,,,,,,,,,,,,,0,-0.371582031,-0.277502934,1,0,0,2.1853,button_left_main,-0.371582031,-0.277502934,1,0,0,,0,0,0,151,1,TINKY,HB,old,z,./images/TINKYHB.png,,,,,,,,,,,,,,,,,,,,,,,,,,,,,,,,,
,,,,,,,,,,,,,,,,,60ebc02f8a63cb2f69fa3ae1,43,2022-02-12_16h53.52.659,lexical_decision_task_DD,2021.2.3,Linux aarch64,59.90534955,,,,,,,,,,1.0138,1,,,,,,,,,,,,,,,0,0.413818359,-0.324160894,1,0,0,1.0138,button_right_main,0.413818359,-0.324160894,1,0,0,,0,1,1,18,1,JAGUAR,C,old,m,./images/JAGUAR.png,,,,,,,,,,,,,,,,,,,,,,,,,,,,,,,,,
,,,,,,,,,,,,,,,,,60ebc02f8a63cb2f69fa3ae1,43,2022-02-12_16h53.52.659,lexical_decision_task_DD,2021.2.3,Linux aarch64,59.90534955,,,,,,,,,,0.8772,1,,,,,,,,,,,,,,,0,0.432861328,-0.310055017,1,0,0,0.8772,button_right_main,0.432861328,-0.310055017,1,0,0,,0,2,2,24,1,SCREW,C,old,m,./images/SCREW.png,,,,,,,,,,,,,,,,,,,,,,,,,,,,,,,,,
,,,,,,,,,,,,,,,,,60ebc02f8a63cb2f69fa3ae1,43,2022-02-12_16h53.52.659,lexical_decision_task_DD,2021.2.3,Linux aarch64,59.90534955,,,,,,,,,,0.7755,1,,,,,,,,,,,,,,,0,0.435546875,-0.290523767,1,0,0,0.7755,button_right_main,0.435546875,-0.290523767,1,0,0,,0,3,3,54,1,TRIPOD,C,old,m,./images/TRIPOD.png,,,,,,,,,,,,,,,,,,,,,,,,,,,,,,,,,
,,,,,,,,,,,,,,,,,60ebc02f8a63cb2f69fa3ae1,43,2022-02-12_16h53.52.659,lexical_decision_task_DD,2021.2.3,Linux aarch64,59.90534955,,,,,,,,,,1.8459,1,,,,,,,,,,,,,,,0,0.390380859,-0.299746831,1,0,0,1.8459,button_right_main,0.390380859,-0.299746831,1,0,0,,0,4,4,1,1,PLANK,HB,old,m,./images/PLANKHB.png,,,,,,,,,,,,,,,,,,,,,,,,,,,,,,,,,
,,,,,,,,,,,,,,,,,60ebc02f8a63cb2f69fa3ae1,43,2022-02-12_16h53.52.659,lexical_decision_task_DD,2021.2.3,Linux aarch64,59.90534955,,,,,,,,,,0.9329,1,,,,,,,,,,,,,,,0,-0.383300781,-0.221079429,1,0,0,0.9329,button_left_main,-0.383300781,-0.221079429,1,0,0,,0,5,5,147,1,ZOLES,C,old,z,./images/ZOLES.png,,,,,,,,,,,,,,,,,,,,,,,,,,,,,,,,,
,,,,,,,,,,,,,,,,,60ebc02f8a63cb2f69fa3ae1,43,2022-02-12_16h53.52.659,lexical_decision_task_DD,2021.2.3,Linux aarch64,59.90534955,,,,,,,,,,1.2328,1,,,,,,,,,,,,,,,0,0.408935547,-0.301374435,1,0,0,1.2328,button_right_main,0.408935547,-0.301374435,1,0,0,,0,6,6,52,1,BANNER,HB,old,m,./images/BANNERHB.png,,,,,,,,,,,,,,,,,,,,,,,,,,,,,,,,,
,,,,,,,,,,,,,,,,,60ebc02f8a63cb2f69fa3ae1,43,2022-02-12_16h53.52.659,lexical_decision_task_DD,2021.2.3,Linux aarch64,59.90534955,,,,,,,,,,1.1054,1,,,,,,,,,,,,,,,0,-0.385009766,-0.279673179,1,0,0,1.1054,button_left_main,-0.385009766,-0.279673179,1,0,0,,0,7,7,154,1,THINT,HB,old,z,./images/THINTHB.png,,,,,,,,,,,,,,,,,,,,,,,,,,,,,,,,,
,,,,,,,,,,,,,,,,,60ebc02f8a63cb2f69fa3ae1,43,2022-02-12_16h53.52.659,lexical_decision_task_DD,2021.2.3,Linux aarch64,59.90534955,,,,,,,,,,0.7025,1,,,,,,,,,,,,,,,0,0.434570313,-0.306799809,1,0,0,0.7025,button_right_main,0.434570313,-0.306799809,1,0,0,,0,8,8,56,1,PACKET,LB,old,m,./images/PACKETLB.png,,,,,,,,,,,,,,,,,,,,,,,,,,,,,,,,,
,,,,,,,,,,,,,,,,,60ebc02f8a63cb2f69fa3ae1,43,2022-02-12_16h53.52.659,lexical_decision_task_DD,2021.2.3,Linux aarch64,59.90534955,,,,,,,,,,0.8359,1,,,,,,,,,,,,,,,0,-0.380126953,-0.232472658,1,0,0,0.8359,button_left_main,-0.380126953,-0.232472658,1,0,0,,0,9,9,149,1,VEASE,LB,old,z,./images/VEASELB.png,,,,,,,,,,,,,,,,,,,,,,,,,,,,,,,,,
,,,,,,,,,,,,,,,,,60ebc02f8a63cb2f69fa3ae1,43,2022-02-12_16h53.52.659,lexical_decision_task_DD,2021.2.3,Linux aarch64,59.90534955,,,,,,,,,,1.7305,1,,,,,,,,,,,,,,,0,-0.382324219,-0.278587977,1,0,0,1.7305,button_left_main,-0.382324219,-0.278587977,1,0,0,,0,10,10,166,1,SHORY,HB,old,z,./images/SHORYHB.png,,,,,,,,,,,,,,,,,,,,,,,,,,,,,,,,,
,,,,,,,,,,,,,,,,,60ebc02f8a63cb2f69fa3ae1,43,2022-02-12_16h53.52.659,lexical_decision_task_DD,2021.2.3,Linux aarch64,59.90534955,,,,,,,,,,1.0075,1,,,,,,,,,,,,,,,0,-0.391845703,-0.261226892,1,0,0,1.0075,button_left_main,-0.391845703,-0.261226892,1,0,0,,0,11,11,165,1,TROWN,C,old,z,./images/TROWN.png,,,,,,,,,,,,,,,,,,,,,,,,,,,,,,,,,
,,,,,,,,,,,,,,,,,60ebc02f8a63cb2f69fa3ae1,43,2022-02-12_16h53.52.659,lexical_decision_task_DD,2021.2.3,Linux aarch64,59.90534955,,,,,,,,,,0.9174,1,,,,,,,,,,,,,,,0,0.416992188,-0.293778976,1,0,0,0.9174,button_right_main,0.416992188,-0.293778976,1,0,0,,0,12,12,33,1,MAGGOT,C,old,m,./images/MAGGOT.png,,,,,,,,,,,,,,,,,,,,,,,,,,,,,,,,,
,,,,,,,,,,,,,,,,,60ebc02f8a63cb2f69fa3ae1,43,2022-02-12_16h53.52.659,lexical_decision_task_DD,2021.2.3,Linux aarch64,59.90534955,,,,,,,,,,2.2709,1,,,,,,,,,,,,,,,0,-0.359130859,-0.257429123,1,0,0,2.2709,button_left_main,-0.359130859,-0.257429123,1,0,0,,0,13,13,91,1,SHENS,HB,old,z,./images/SHENSHB.png,,,,,,,,,,,,,,,,,,,,,,,,,,,,,,,,,
,,,,,,,,,,,,,,,,,60ebc02f8a63cb2f69fa3ae1,43,2022-02-12_16h53.52.659,lexical_decision_task_DD,2021.2.3,Linux aarch64,59.90534955,,,,,,,,,,2.2023,1,,,,,,,,,,,,,,,0,-0.389892578,-0.247663498,1,0,0,2.2023,button_left_main,-0.389892578,-0.247663498,1,0,0,,0,14,14,159,1,CUDDY,C,old,z,./images/CUDDY.png,,,,,,,,,,,,,,,,,,,,,,,,,,,,,,,,,
,,,,,,,,,,,,,,,,,60ebc02f8a63cb2f69fa3ae1,43,2022-02-12_16h53.52.659,lexical_decision_task_DD,2021.2.3,Linux aarch64,59.90534955,,,,,,,,,,0.7481,1,,,,,,,,,,,,,,,0,0.398681641,-0.294864019,1,0,0,0.7481,button_right_main,0.398681641,-0.294864019,1,0,0,,0,15,15,44,1,LIZARD,LB,old,m,./images/LIZARDLB.png,,,,,,,,,,,,,,,,,,,,,,,,,,,,,,,,,
,,,,,,,,,,,,,,,,,60ebc02f8a63cb2f69fa3ae1,43,2022-02-12_16h53.52.659,lexical_decision_task_DD,2021.2.3,Linux aarch64,59.90534955,,,,,,,,,,0.9479,1,,,,,,,,,,,,,,,0,-0.387451172,-0.250918706,1,0,0,0.9479,button_left_main,-0.387451172,-0.250918706,1,0,0,,0,16,16,96,1,KEAMS,C,old,z,./images/KEAMS.png,,,,,,,,,,,,,,,,,,,,,,,,,,,,,,,,,
,,,,,,,,,,,,,,,,,60ebc02f8a63cb2f69fa3ae1,43,2022-02-12_16h53.52.659,lexical_decision_task_DD,2021.2.3,Linux aarch64,59.90534955,,,,,,,,,,0.8298,1,,,,,,,,,,,,,,,0,0.400878906,-0.331213792,1,0,0,0.8298,button_right_main,0.400878906,-0.331213792,1,0,0,,0,17,17,68,1,TORCH,LB,old,m,./images/TORCHLB.png,,,,,,,,,,,,,,,,,,,,,,,,,,,,,,,,,
,,,,,,,,,,,,,,,,,60ebc02f8a63cb2f69fa3ae1,43,2022-02-12_16h53.52.659,lexical_decision_task_DD,2021.2.3,Linux aarch64,59.90534955,,,,,,,,,,0.9153,1,,,,,,,,,,,,,,,0,0.41015625,-0.313852866,1,0,0,0.9153,button_right_main,0.41015625,-0.313852866,1,0,0,,0,18,18,63,1,MIRROR,C,old,m,./images/MIRROR.png,,,,,,,,,,,,,,,,,,,,,,,,,,,,,,,,,
,,,,,,,,,,,,,,,,,60ebc02f8a63cb2f69fa3ae1,43,2022-02-12_16h53.52.659,lexical_decision_task_DD,2021.2.3,Linux aarch64,59.90534955,,,,,,,,,,1.0996,1,,,,,,,,,,,,,,,0,-0.386962891,-0.251461267,1,0,0,1.0996,button_left_main,-0.386962891,-0.251461267,1,0,0,,0,19,19,115,1,MAWNS,HB,old,z,./images/MAWNSHB.png,,,,,,,,,,,,,,,,,,,,,,,,,,,,,,,,,
,,,,,,,,,,,,,,,,,60ebc02f8a63cb2f69fa3ae1,43,2022-02-12_16h53.52.659,lexical_decision_task_DD,2021.2.3,Linux aarch64,59.90534955,,,,,,,,,,0.9983,1,,,,,,,,,,,,,,,0,-0.391601563,-0.261226892,1,0,0,0.9983,button_left_main,-0.391601563,-0.261226892,1,0,0,,0,20,20,84,1,HAXES,C,old,z,./images/HAXES.png,,,,,,,,,,,,,,,,,,,,,,,,,,,,,,,,,
,,,,,,,,,,,,,,,,,60ebc02f8a63cb2f69fa3ae1,43,2022-02-12_16h53.52.659,lexical_decision_task_DD,2021.2.3,Linux aarch64,59.90534955,,,,,,,,,,0.7346,1,,,,,,,,,,,,,,,0,0.41796875,-0.307884852,1,0,0,0.7346,button_right_main,0.41796875,-0.307884852,1,0,0,,0,21,21,21,1,KIDNEY,C,old,m,./images/KIDNEY.png,,,,,,,,,,,,,,,,,,,,,,,,,,,,,,,,,
,,,,,,,,,,,,,,,,,60ebc02f8a63cb2f69fa3ae1,43,2022-02-12_16h53.52.659,lexical_decision_task_DD,2021.2.3,Linux aarch64,59.90534955,,,,,,,,,,0.8452,1,,,,,,,,,,,,,,,0,-0.388916016,-0.247121096,1,0,0,0.8452,button_left_main,-0.388916016,-0.247121096,1,0,0,,0,22,22,155,1,CANGY,LB,old,z,./images/CANGYLB.png,,,,,,,,,,,,,,,,,,,,,,,,,,,,,,,,,
,,,,,,,,,,,,,,,,,60ebc02f8a63cb2f69fa3ae1,43,2022-02-12_16h53.52.659,lexical_decision_task_DD,2021.2.3,Linux aarch64,59.90534955,,,,,,,,,,0.7985,1,,,,,,,,,,,,,,,0,0.398681641,-0.294321616,1,0,0,0.7985,button_right_main,0.398681641,-0.294321616,1,0,0,,0,23,23,8,1,TULIP,LB,old,m,./images/TULIPLB.png,,,,,,,,,,,,,,,,,,,,,,,,,,,,,,,,,
,,,,,,,,,,,,,,,,,60ebc02f8a63cb2f69fa3ae1,43,2022-02-12_16h53.52.659,lexical_decision_task_DD,2021.2.3,Linux aarch64,59.90534955,,,,,,,,,,0.6843,1,,,,,,,,,,,,,,,0,-0.399169922,-0.25634408,1,0,0,0.6843,button_left_main,-0.399169922,-0.25634408,1,0,0,,0,24,24,137,1,JOOST,LB,old,z,./images/JOOSTLB.png,,,,,,,,,,,,,,,,,,,,,,,,,,,,,,,,,
,,,,,,,,,,,,,,,,,60ebc02f8a63cb2f69fa3ae1,43,2022-02-12_16h53.52.659,lexical_decision_task_DD,2021.2.3,Linux aarch64,59.90534955,,,,,,,,,,1.1302,1,,,,,,,,,,,,,,,0,-0.395019531,-0.266652346,1,0,0,1.1302,button_left_main,-0.395019531,-0.266652346,1,0,0,,0,25,25,127,1,NINDY,HB,old,z,./images/NINDYHB.png,,,,,,,,,,,,,,,,,,,,,,,,,,,,,,,,,
,,,,,,,,,,,,,,,,,60ebc02f8a63cb2f69fa3ae1,43,2022-02-12_16h53.52.659,lexical_decision_task_DD,2021.2.3,Linux aarch64,59.90534955,,,,,,,,,,0.6989,1,,,,,,,,,,,,,,,0,0.403320313,-0.317108075,1,0,0,0.6989,button_right_main,0.403320313,-0.317108075,1,0,0,,0,26,26,51,1,ONION,C,old,m,./images/ONION.png,,,,,,,,,,,,,,,,,,,,,,,,,,,,,,,,,
,,,,,,,,,,,,,,,,,60ebc02f8a63cb2f69fa3ae1,43,2022-02-12_16h53.52.659,lexical_decision_task_DD,2021.2.3,Linux aarch64,59.90534955,,,,,,,,,,1.2022,1,,,,,,,,,,,,,,,0,-0.379394531,-0.257429123,1,0,0,1.2022,button_left_main,-0.379394531,-0.257429123,1,0,0,,0,27,27,109,1,BURGE,HB,old,z,./images/BURGEHB.png,,,,,,,,,,,,,,,,,,,,,,,,,,,,,,,,,
,,,,,,,,,,,,,,,,,60ebc02f8a63cb2f69fa3ae1,43,2022-02-12_16h53.52.659,lexical_decision_task_DD,2021.2.3,Linux aarch64,59.90534955,,,,,,,,,,0.8994,1,,,,,,,,,,,,,,,0,0.388427734,-0.343692144,1,0,0,0.8994,button_right_main,0.388427734,-0.343692144,1,0,0,,0,28,28,32,1,BARREL,LB,old,m,./images/BARRELLB.png,,,,,,,,,,,,,,,,,,,,,,,,,,,,,,,,,
,,,,,,,,,,,,,,,,,60ebc02f8a63cb2f69fa3ae1,43,2022-02-12_16h53.52.659,lexical_decision_task_DD,2021.2.3,Linux aarch64,59.90534955,,,,,,,,,,0.8131,1,,,,,,,,,,,,,,,0,-0.387939453,-0.261769533,1,0,0,0.8131,button_left_main,-0.387939453,-0.261769533,1,0,0,,0,29,29,114,1,RIKES,C,old,z,./images/RIKES.png,,,,,,,,,,,,,,,,,,,,,,,,,,,,,,,,,
,,,,,,,,,,,,,,,,,60ebc02f8a63cb2f69fa3ae1,43,2022-02-12_16h53.52.659,lexical_decision_task_DD,2021.2.3,Linux aarch64,59.90534955,,,,,,,,,,1.7484,1,,,,,,,,,,,,,,,0,-0.361083984,-0.281843185,1,0,0,1.7484,button_left_main,-0.361083984,-0.281843185,1,0,0,,0,30,30,100,1,DRIBS,HB,old,z,./images/DRIBSHB.png,,,,,,,,,,,,,,,,,,,,,,,,,,,,,,,,,
,,,,,,,,,,,,,,,,,60ebc02f8a63cb2f69fa3ae1,43,2022-02-12_16h53.52.659,lexical_decision_task_DD,2021.2.3,Linux aarch64,59.90534955,,,,,,,,,,0.9132,1,,,,,,,,,,,,,,,0,-0.381347656,-0.286725998,1,0,0,0.9132,button_left_main,-0.381347656,-0.286725998,1,0,0,,0,31,31,120,1,RINED,C,old,z,./images/RINED.png,,,,,,,,,,,,,,,,,,,,,,,,,,,,,,,,,
,,,,,,,,,,,,,,,,,60ebc02f8a63cb2f69fa3ae1,43,2022-02-12_16h53.52.659,lexical_decision_task_DD,2021.2.3,Linux aarch64,59.90534955,,,,,,,,,,1.4876,1,,,,,,,,,,,,,,,0,0.37109375,-0.294864019,1,0,0,1.4876,button_right_main,0.37109375,-0.294864019,1,0,0,,0,32,32,10,1,BELLY,HB,old,m,./images/BELLYHB.png,,,,,,,,,,,,,,,,,,,,,,,,,,,,,,,,,
,,,,,,,,,,,,,,,,,60ebc02f8a63cb2f69fa3ae1,43,2022-02-12_16h53.52.659,lexical_decision_task_DD,2021.2.3,Linux aarch64,59.90534955,,,,,,,,,,1.3216,1,,,,,,,,,,,,,,,0,0.355224609,-0.304087241,1,0,0,1.3216,button_right_main,0.355224609,-0.304087241,1,0,0,,0,33,33,43,1,MOSQUE,HB,old,m,./images/MOSQUEHB.png,,,,,,,,,,,,,,,,,,,,,,,,,,,,,,,,,
,,,,,,,,,,,,,,,,,60ebc02f8a63cb2f69fa3ae1,43,2022-02-12_16h53.52.659,lexical_decision_task_DD,2021.2.3,Linux aarch64,59.90534955,,,,,,,,,,0.7321,1,,,,,,,,,,,,,,,0,0.374755859,-0.301916997,1,0,0,0.7321,button_right_main,0.374755859,-0.301916997,1,0,0,,0,34,34,14,1,PICKLE,LB,old,m,./images/PICKLELB.png,,,,,,,,,,,,,,,,,,,,,,,,,,,,,,,,,
,,,,,,,,,,,,,,,,,60ebc02f8a63cb2f69fa3ae1,43,2022-02-12_16h53.52.659,lexical_decision_task_DD,2021.2.3,Linux aarch64,59.90534955,,,,,,,,,,0.8895,1,,,,,,,,,,,,,,,0,0.389892578,-0.279673179,1,0,0,0.8895,button_right_main,0.389892578,-0.279673179,1,0,0,,0,35,35,57,1,MOOSE,C,old,m,./images/MOOSE.png,,,,,,,,,,,,,,,,,,,,,,,,,,,,,,,,,
,,,,,,,,,,,,,,,,,60ebc02f8a63cb2f69fa3ae1,43,2022-02-12_16h53.52.659,lexical_decision_task_DD,2021.2.3,Linux aarch64,59.90534955,,,,,,,,,,0.863,1,,,,,,,,,,,,,,,0,0.360107422,-0.292694012,1,0,0,0.863,button_right_main,0.360107422,-0.292694012,1,0,0,,0,36,36,46,1,PEARL,HB,old,m,./images/PEARLHB.png,,,,,,,,,,,,,,,,,,,,,,,,,,,,,,,,,
,,,,,,,,,,,,,,,,,60ebc02f8a63cb2f69fa3ae1,43,2022-02-12_16h53.52.659,lexical_decision_task_DD,2021.2.3,Linux aarch64,59.90534955,,,,,,,,,,0.801,1,,,,,,,,,,,,,,,0,0.374023438,-0.273705165,1,0,0,0.801,button_right_main,0.374023438,-0.273705165,1,0,0,,0,37,37,22,1,MELON,HB,old,m,./images/MELONHB.png,,,,,,,,,,,,,,,,,,,,,,,,,,,,,,,,,
,,,,,,,,,,,,,,,,,60ebc02f8a63cb2f69fa3ae1,43,2022-02-12_16h53.52.659,lexical_decision_task_DD,2021.2.3,Linux aarch64,59.90534955,,,,,,,,,,0.9366,1,,,,,,,,,,,,,,,0,-0.377441406,-0.273705165,1,0,0,0.9366,button_left_main,-0.377441406,-0.273705165,1,0,0,,0,38,38,107,1,FASKS,LB,old,z,./images/FASKSLB.png,,,,,,,,,,,,,,,,,,,,,,,,,,,,,,,,,
,,,,,,,,,,,,,,,,,60ebc02f8a63cb2f69fa3ae1,43,2022-02-12_16h53.52.659,lexical_decision_task_DD,2021.2.3,Linux aarch64,59.90534955,,,,,,,,,,1.3147,1,,,,,,,,,,,,,,,0,-0.38671875,-0.277502934,1,0,0,1.3147,button_left_main,-0.38671875,-0.277502934,1,0,0,,0,39,39,122,1,BLOOT,LB,old,z,./images/BLOOTLB.png,,,,,,,,,,,,,,,,,,,,,,,,,,,,,,,,,
,,,,,,,,,,,,,,,,,60ebc02f8a63cb2f69fa3ae1,43,2022-02-12_16h53.52.659,lexical_decision_task_DD,2021.2.3,Linux aarch64,59.90534955,,,,,,,,,,0.9145,1,,,,,,,,,,,,,,,0,-0.385253906,-0.271535158,1,0,0,0.9145,button_left_main,-0.385253906,-0.271535158,1,0,0,,0,40,40,144,1,NAIRY,C,old,z,./images/NAIRY.png,,,,,,,,,,,,,,,,,,,,,,,,,,,,,,,,,
,,,,,,,,,,,,,,,,,60ebc02f8a63cb2f69fa3ae1,43,2022-02-12_16h53.52.659,lexical_decision_task_DD,2021.2.3,Linux aarch64,59.90534955,,,,,,,,,,3.3049,1,,,,,,,,,,,,,,,0,-0.378662109,-0.296491623,1,0,0,3.3049,button_left_main,-0.084960938,-0.38926506,1,0,0,,0,41,41,136,1,WERVE,HB,old,z,./images/WERVEHB.png,break_done_button,,,,,,,,,,,,,,,,,,,,,,,,,,,,,,,,
,,,,,,,,,,,,,,,,,60ebc02f8a63cb2f69fa3ae1,43,2022-02-12_16h53.52.659,lexical_decision_task_DD,2021.2.3,Linux aarch64,59.90534955,,,,,,,,,,0.9176,1,,,,,,,,,,,,,,,0,0.299560547,-0.36973381,1,0,0,0.9176,button_right_main,0.299560547,-0.36973381,1,0,0,,0,42,42,4,1,MUSCLE,HB,old,m,./images/MUSCLEHB.png,,,,,,,,,,,,,,,,,,,,,,,,,,,,,,,,,
,,,,,,,,,,,,,,,,,60ebc02f8a63cb2f69fa3ae1,43,2022-02-12_16h53.52.659,lexical_decision_task_DD,2021.2.3,Linux aarch64,59.90534955,,,,,,,,,,0.7654,1,,,,,,,,,,,,,,,0,-0.360351563,-0.293236415,1,0,0,0.7654,button_left_main,-0.360351563,-0.293236415,1,0,0,,0,43,43,126,1,GUELS,C,old,z,./images/GUELS.png,,,,,,,,,,,,,,,,,,,,,,,,,,,,,,,,,
,,,,,,,,,,,,,,,,,60ebc02f8a63cb2f69fa3ae1,43,2022-02-12_16h53.52.659,lexical_decision_task_DD,2021.2.3,Linux aarch64,59.90534955,,,,,,,,,,1.8704,1,,,,,,,,,,,,,,,0,-0.370117188,-0.305714846,1,0,0,1.8704,button_left_main,-0.370117188,-0.305714846,1,0,0,,0,44,44,88,1,GLUSH,HB,old,z,./images/GLUSHHB.png,,,,,,,,,,,,,,,,,,,,,,,,,,,,,,,,,
,,,,,,,,,,,,,,,,,60ebc02f8a63cb2f69fa3ae1,43,2022-02-12_16h53.52.659,lexical_decision_task_DD,2021.2.3,Linux aarch64,59.90534955,,,,,,,,,,1.1668,1,,,,,,,,,,,,,,,0,0.358642578,-0.281843185,1,0,0,1.1668,button_right_main,0.358642578,-0.281843185,1,0,0,,0,45,45,37,1,BIRTH,HB,old,m,./images/BIRTHHB.png,,,,,,,,,,,,,,,,,,,,,,,,,,,,,,,,,
,,,,,,,,,,,,,,,,,60ebc02f8a63cb2f69fa3ae1,43,2022-02-12_16h53.52.659,lexical_decision_task_DD,2021.2.3,Linux aarch64,59.90534955,,,,,,,,,,1.779,1,,,,,,,,,,,,,,,0,0.361572266,-0.293236415,1,0,0,1.779,button_right_main,0.361572266,-0.293236415,1,0,0,,0,46,46,6,1,SQUARE,C,old,m,./images/SQUARE.png,,,,,,,,,,,,,,,,,,,,,,,,,,,,,,,,,
,,,,,,,,,,,,,,,,,60ebc02f8a63cb2f69fa3ae1,43,2022-02-12_16h53.52.659,lexical_decision_task_DD,2021.2.3,Linux aarch64,59.90534955,,,,,,,,,,0.8009,1,,,,,,,,,,,,,,,0,-0.396972656,-0.267737309,1,0,0,0.8009,button_left_main,-0.396972656,-0.267737309,1,0,0,,0,47,47,148,1,JOMS,HB,old,z,./images/JOMSHB.png,,,,,,,,,,,,,,,,,,,,,,,,,,,,,,,,,
,,,,,,,,,,,,,,,,,60ebc02f8a63cb2f69fa3ae1,43,2022-02-12_16h53.52.659,lexical_decision_task_DD,2021.2.3,Linux aarch64,59.90534955,,,,,,,,,,0.7612,1,,,,,,,,,,,,,,,0,0.376220703,-0.289438804,1,0,0,0.7612,button_right_main,0.376220703,-0.289438804,1,0,0,,0,48,48,11,1,BONNET,LB,old,m,./images/BONNETLB.png,,,,,,,,,,,,,,,,,,,,,,,,,,,,,,,,,
,,,,,,,,,,,,,,,,,60ebc02f8a63cb2f69fa3ae1,43,2022-02-12_16h53.52.659,lexical_decision_task_DD,2021.2.3,Linux aarch64,59.90534955,,,,,,,,,,0.736,1,,,,,,,,,,,,,,,0,-0.387695313,-0.274247726,1,0,0,0.736,button_left_main,-0.387695313,-0.274247726,1,0,0,,0,49,49,141,1,PLEET,C,old,z,./images/PLEET.png,,,,,,,,,,,,,,,,,,,,,,,,,,,,,,,,,
,,,,,,,,,,,,,,,,,60ebc02f8a63cb2f69fa3ae1,43,2022-02-12_16h53.52.659,lexical_decision_task_DD,2021.2.3,Linux aarch64,59.90534955,,,,,,,,,,1.2562,1,,,,,,,,,,,,,,,0,-0.387451172,-0.280758142,1,0,0,1.2562,button_left_main,-0.387451172,-0.280758142,1,0,0,,0,50,50,85,1,CHULK,HB,old,z,./images/CHULKHB.png,,,,,,,,,,,,,,,,,,,,,,,,,,,,,,,,,
,,,,,,,,,,,,,,,,,60ebc02f8a63cb2f69fa3ae1,43,2022-02-12_16h53.52.659,lexical_decision_task_DD,2021.2.3,Linux aarch64,59.90534955,,,,,,,,,,0.9971,1,,,,,,,,,,,,,,,0,0.39453125,-0.27207756,1,0,0,0.9971,button_right_main,0.39453125,-0.27207756,1,0,0,,0,51,51,78,1,LITTER,C,old,m,./images/LITTER.png,,,,,,,,,,,,,,,,,,,,,,,,,,,,,,,,,
,,,,,,,,,,,,,,,,,60ebc02f8a63cb2f69fa3ae1,43,2022-02-12_16h53.52.659,lexical_decision_task_DD,2021.2.3,Linux aarch64,59.90534955,,,,,,,,,,0.8346,1,,,,,,,,,,,,,,,0,-0.385009766,-0.281300783,1,0,0,0.8346,button_left_main,-0.385009766,-0.281300783,1,0,0,,0,52,52,124,1,TUNCH,HB,old,z,./images/TUNCHHB.png,,,,,,,,,,,,,,,,,,,,,,,,,,,,,,,,,
,,,,,,,,,,,,,,,,,60ebc02f8a63cb2f69fa3ae1,43,2022-02-12_16h53.52.659,lexical_decision_task_DD,2021.2.3,Linux aarch64,59.90534955,,,,,,,,,,0.7315,1,,,,,,,,,,,,,,,0,-0.397216797,-0.280758142,1,0,0,0.7315,button_left_main,-0.397216797,-0.280758142,1,0,0,,0,53,53,102,1,DULLE,C,old,z,./images/DULLE.png,,,,,,,,,,,,,,,,,,,,,,,,,,,,,,,,,
,,,,,,,,,,,,,,,,,60ebc02f8a63cb2f69fa3ae1,43,2022-02-12_16h53.52.659,lexical_decision_task_DD,2021.2.3,Linux aarch64,59.90534955,,,,,,,,,,0.8688,1,,,,,,,,,,,,,,,0,0.415771484,-0.285098394,1,0,0,0.8688,button_right_main,0.415771484,-0.285098394,1,0,0,,0,54,54,12,1,SHORE,C,old,m,./images/SHORE.png,,,,,,,,,,,,,,,,,,,,,,,,,,,,,,,,,
,,,,,,,,,,,,,,,,,60ebc02f8a63cb2f69fa3ae1,43,2022-02-12_16h53.52.659,lexical_decision_task_DD,2021.2.3,Linux aarch64,59.90534955,,,,,,,,,,1.088,1,,,,,,,,,,,,,,,0,-0.387207031,-0.281843185,1,0,0,1.088,button_left_main,-0.387207031,-0.281843185,1,0,0,,0,55,55,89,1,DRIEK,LB,old,z,./images/DRIEKLB.png,,,,,,,,,,,,,,,,,,,,,,,,,,,,,,,,,
,,,,,,,,,,,,,,,,,60ebc02f8a63cb2f69fa3ae1,43,2022-02-12_16h53.52.659,lexical_decision_task_DD,2021.2.3,Linux aarch64,59.90534955,,,,,,,,,,0.9038,1,,,,,,,,,,,,,,,0,0.427001953,-0.292151372,1,0,0,0.9038,button_right_main,0.427001953,-0.292151372,1,0,0,,0,56,56,41,1,STRING,LB,old,m,./images/STRINGLB.png,,,,,,,,,,,,,,,,,,,,,,,,,,,,,,,,,
,,,,,,,,,,,,,,,,,60ebc02f8a63cb2f69fa3ae1,43,2022-02-12_16h53.52.659,lexical_decision_task_DD,2021.2.3,Linux aarch64,59.90534955,,,,,,,,,,0.7268,0,,,,,,,,,,,,,,,0,-0.397216797,-0.298119227,1,0,0,0.7268,button_left_main,-0.397216797,-0.298119227,1,0,0,,0,57,57,42,1,FOLDER,C,old,m,./images/FOLDER.png,,,,,,,,,,,,,,,,,,,,,,,,,,,,,,,,,
,,,,,,,,,,,,,,,,,60ebc02f8a63cb2f69fa3ae1,43,2022-02-12_16h53.52.659,lexical_decision_task_DD,2021.2.3,Linux aarch64,59.90534955,,,,,,,,,,1.8522,1,,,,,,,,,,,,,,,0,0.3125,-0.265567144,1,0,0,1.8522,button_right_main,0.3125,-0.265567144,1,0,0,,0,58,58,73,1,SNACK,HB,old,m,./images/SNACKHB.png,,,,,,,,,,,,,,,,,,,,,,,,,,,,,,,,,
,,,,,,,,,,,,,,,,,60ebc02f8a63cb2f69fa3ae1,43,2022-02-12_16h53.52.659,lexical_decision_task_DD,2021.2.3,Linux aarch64,59.90534955,,,,,,,,,,0.703,1,,,,,,,,,,,,,,,0,0.368652344,-0.299204429,1,0,0,0.703,button_right_main,0.368652344,-0.299204429,1,0,0,,0,59,59,29,1,CRUMB,LB,old,m,./images/CRUMBLB.png,,,,,,,,,,,,,,,,,,,,,,,,,,,,,,,,,
,,,,,,,,,,,,,,,,,60ebc02f8a63cb2f69fa3ae1,43,2022-02-12_16h53.52.659,lexical_decision_task_DD,2021.2.3,Linux aarch64,59.90534955,,,,,,,,,,1.1136,1,,,,,,,,,,,,,,,0,-0.371826172,-0.273162762,1,0,0,1.1136,button_left_main,-0.371826172,-0.273162762,1,0,0,,0,60,60,163,1,GAMBA,HB,old,z,./images/GAMBAHB.png,,,,,,,,,,,,,,,,,,,,,,,,,,,,,,,,,
,,,,,,,,,,,,,,,,,60ebc02f8a63cb2f69fa3ae1,43,2022-02-12_16h53.52.659,lexical_decision_task_DD,2021.2.3,Linux aarch64,59.90534955,,,,,,,,,,0.898,1,,,,,,,,,,,,,,,0,-0.392333984,-0.313310226,1,0,0,0.898,button_left_main,-0.392333984,-0.313310226,1,0,0,,0,61,61,152,1,FRAIN,LB,old,z,./images/FRAINLB.png,,,,,,,,,,,,,,,,,,,,,,,,,,,,,,,,,
,,,,,,,,,,,,,,,,,60ebc02f8a63cb2f69fa3ae1,43,2022-02-12_16h53.52.659,lexical_decision_task_DD,2021.2.3,Linux aarch64,59.90534955,,,,,,,,,,1.3798,0,,,,,,,,,,,,,,,0,0.405273438,-0.304629644,1,0,0,1.3798,button_right_main,0.405273438,-0.304629644,1,0,0,,0,62,62,101,1,GLEET,LB,old,z,./images/GLEETLB.png,,,,,,,,,,,,,,,,,,,,,,,,,,,,,,,,,
,,,,,,,,,,,,,,,,,60ebc02f8a63cb2f69fa3ae1,43,2022-02-12_16h53.52.659,lexical_decision_task_DD,2021.2.3,Linux aarch64,59.90534955,,,,,,,,,,1.3717,1,,,,,,,,,,,,,,,0,-0.379882813,-0.254716476,1,0,0,1.3717,button_left_main,-0.379882813,-0.254716476,1,0,0,,0,63,63,104,1,GITTY,LB,old,z,./images/GITTYLB.png,,,,,,,,,,,,,,,,,,,,,,,,,,,,,,,,,
,,,,,,,,,,,,,,,,,60ebc02f8a63cb2f69fa3ae1,43,2022-02-12_16h53.52.659,lexical_decision_task_DD,2021.2.3,Linux aarch64,59.90534955,,,,,,,,,,0.9981,1,,,,,,,,,,,,,,,0,-0.398681641,-0.302459637,1,0,0,0.9981,button_left_main,-0.398681641,-0.302459637,1,0,0,,0,64,64,132,1,SCIFF,C,old,z,./images/SCIFF.png,,,,,,,,,,,,,,,,,,,,,,,,,,,,,,,,,
,,,,,,,,,,,,,,,,,60ebc02f8a63cb2f69fa3ae1,43,2022-02-12_16h53.52.659,lexical_decision_task_DD,2021.2.3,Linux aarch64,59.90534955,,,,,,,,,,0.7422,1,,,,,,,,,,,,,,,0,0.383789063,-0.250376304,1,0,0,0.7422,button_right_main,0.383789063,-0.250376304,1,0,0,,0,65,65,3,1,FINGER,C,old,m,./images/FINGER.png,,,,,,,,,,,,,,,,,,,,,,,,,,,,,,,,,
,,,,,,,,,,,,,,,,,60ebc02f8a63cb2f69fa3ae1,43,2022-02-12_16h53.52.659,lexical_decision_task_DD,2021.2.3,Linux aarch64,59.90534955,,,,,,,,,,1.0009,1,,,,,,,,,,,,,,,0,-0.391601563,-0.251461267,1,0,0,1.0009,button_left_main,-0.391601563,-0.251461267,1,0,0,,0,66,66,90,1,NEAST,C,old,z,./images/NEAST.png,,,,,,,,,,,,,,,,,,,,,,,,,,,,,,,,,
,,,,,,,,,,,,,,,,,60ebc02f8a63cb2f69fa3ae1,43,2022-02-12_16h53.52.659,lexical_decision_task_DD,2021.2.3,Linux aarch64,59.90534955,,,,,,,,,,0.9519,1,,,,,,,,,,,,,,,0,0.389648438,-0.275332769,1,0,0,0.9519,button_right_main,0.389648438,-0.275332769,1,0,0,,0,67,67,7,1,PAINT,HB,old,m,./images/PAINTHB.png,,,,,,,,,,,,,,,,,,,,,,,,,,,,,,,,,
,,,,,,,,,,,,,,,,,60ebc02f8a63cb2f69fa3ae1,43,2022-02-12_16h53.52.659,lexical_decision_task_DD,2021.2.3,Linux aarch64,59.90534955,,,,,,,,,,0.7658,1,,,,,,,,,,,,,,,0,-0.40234375,-0.286725998,1,0,0,0.7658,button_left_main,-0.40234375,-0.286725998,1,0,0,,0,68,68,98,1,BAMPS,LB,old,z,./images/BAMPSLB.png,,,,,,,,,,,,,,,,,,,,,,,,,,,,,,,,,
,,,,,,,,,,,,,,,,,60ebc02f8a63cb2f69fa3ae1,43,2022-02-12_16h53.52.659,lexical_decision_task_DD,2021.2.3,Linux aarch64,59.90534955,,,,,,,,,,1.3524,0,,,,,,,,,,,,,,,0,0.421386719,-0.276417971,1,0,0,1.3524,button_right_main,0.421386719,-0.276417971,1,0,0,,0,69,69,125,1,MOOKY,LB,old,z,./images/MOOKYLB.png,,,,,,,,,,,,,,,,,,,,,,,,,,,,,,,,,
,,,,,,,,,,,,,,,,,60ebc02f8a63cb2f69fa3ae1,43,2022-02-12_16h53.52.659,lexical_decision_task_DD,2021.2.3,Linux aarch64,59.90534955,,,,,,,,,,0.9627,1,,,,,,,,,,,,,,,0,0.420654297,-0.278587977,1,0,0,0.9627,button_right_main,0.420654297,-0.278587977,1,0,0,,0,70,70,66,1,SWEAT,C,old,m,./images/SWEAT.png,,,,,,,,,,,,,,,,,,,,,,,,,,,,,,,,,
,,,,,,,,,,,,,,,,,60ebc02f8a63cb2f69fa3ae1,43,2022-02-12_16h53.52.659,lexical_decision_task_DD,2021.2.3,Linux aarch64,59.90534955,,,,,,,,,,0.9172,1,,,,,,,,,,,,,,,0,0.407470703,-0.290523767,1,0,0,0.9172,button_right_main,0.407470703,-0.290523767,1,0,0,,0,71,71,36,1,THROAT,C,old,m,./images/THROAT.png,,,,,,,,,,,,,,,,,,,,,,,,,,,,,,,,,
,,,,,,,,,,,,,,,,,60ebc02f8a63cb2f69fa3ae1,43,2022-02-12_16h53.52.659,lexical_decision_task_DD,2021.2.3,Linux aarch64,59.90534955,,,,,,,,,,0.7967,1,,,,,,,,,,,,,,,0,0.391357422,-0.309512456,1,0,0,0.7967,button_right_main,0.391357422,-0.309512456,1,0,0,,0,72,72,65,1,FARMER,LB,old,m,./images/FARMERLB.png,,,,,,,,,,,,,,,,,,,,,,,,,,,,,,,,,
,,,,,,,,,,,,,,,,,60ebc02f8a63cb2f69fa3ae1,43,2022-02-12_16h53.52.659,lexical_decision_task_DD,2021.2.3,Linux aarch64,59.90534955,,,,,,,,,,0.7851,1,,,,,,,,,,,,,,,0,-0.394042969,-0.30300204,1,0,0,0.7851,button_left_main,-0.394042969,-0.30300204,1,0,0,,0,73,73,167,1,ZONET,LB,old,z,./images/ZONETLB.png,,,,,,,,,,,,,,,,,,,,,,,,,,,,,,,,,
,,,,,,,,,,,,,,,,,60ebc02f8a63cb2f69fa3ae1,43,2022-02-12_16h53.52.659,lexical_decision_task_DD,2021.2.3,Linux aarch64,59.90534955,,,,,,,,,,0.6525,0,,,,,,,,,,,,,,,0,0.411621094,-0.251461267,1,0,0,0.6525,button_right_main,0.411621094,-0.251461267,1,0,0,,0,74,74,110,1,CRUNK,LB,old,z,./images/CRUNKLB.png,,,,,,,,,,,,,,,,,,,,,,,,,,,,,,,,,
,,,,,,,,,,,,,,,,,60ebc02f8a63cb2f69fa3ae1,43,2022-02-12_16h53.52.659,lexical_decision_task_DD,2021.2.3,Linux aarch64,59.90534955,,,,,,,,,,1.0991,0,,,,,,,,,,,,,,,0,0.391113281,-0.261769533,1,0,0,1.0991,button_right_main,0.391113281,-0.261769533,1,0,0,,0,75,75,140,1,DOVET,LB,old,z,./images/DOVETLB.png,,,,,,,,,,,,,,,,,,,,,,,,,,,,,,,,,
,,,,,,,,,,,,,,,,,60ebc02f8a63cb2f69fa3ae1,43,2022-02-12_16h53.52.659,lexical_decision_task_DD,2021.2.3,Linux aarch64,59.90534955,,,,,,,,,,0.95,1,,,,,,,,,,,,,,,0,-0.395019531,-0.285640955,1,0,0,0.95,button_left_main,-0.395019531,-0.285640955,1,0,0,,0,76,76,130,1,CRILL,HB,old,z,./images/CRILLHB.png,,,,,,,,,,,,,,,,,,,,,,,,,,,,,,,,,
,,,,,,,,,,,,,,,,,60ebc02f8a63cb2f69fa3ae1,43,2022-02-12_16h53.52.659,lexical_decision_task_DD,2021.2.3,Linux aarch64,59.90534955,,,,,,,,,,0.6469,1,,,,,,,,,,,,,,,0,0.404541016,-0.30734245,1,0,0,0.6469,button_right_main,0.404541016,-0.30734245,1,0,0,,0,77,77,0,1,TOMATO,C,old,m,./images/TOMATO.png,,,,,,,,,,,,,,,,,,,,,,,,,,,,,,,,,
,,,,,,,,,,,,,,,,,60ebc02f8a63cb2f69fa3ae1,43,2022-02-12_16h53.52.659,lexical_decision_task_DD,2021.2.3,Linux aarch64,59.90534955,,,,,,,,,,1.0187,1,,,,,,,,,,,,,,,0,0.382324219,-0.254716476,1,0,0,1.0187,button_right_main,0.382324219,-0.254716476,1,0,0,,0,78,78,40,1,SWING,HB,old,m,./images/SWINGHB.png,,,,,,,,,,,,,,,,,,,,,,,,,,,,,,,,,
,,,,,,,,,,,,,,,,,60ebc02f8a63cb2f69fa3ae1,43,2022-02-12_16h53.52.659,lexical_decision_task_DD,2021.2.3,Linux aarch64,59.90534955,,,,,,,,,,0.82,1,,,,,,,,,,,,,,,0,-0.399169922,-0.263397137,1,0,0,0.82,button_left_main,-0.399169922,-0.263397137,1,0,0,,0,79,79,158,1,EGECT,LB,old,z,./images/EGECTLB.png,,,,,,,,,,,,,,,,,,,,,,,,,,,,,,,,,
,,,,,,,,,,,,,,,,,60ebc02f8a63cb2f69fa3ae1,43,2022-02-12_16h53.52.659,lexical_decision_task_DD,2021.2.3,Linux aarch64,59.90534955,,,,,,,,,,0.999,1,,,,,,,,,,,,,,,0,-0.377685547,-0.292151372,1,0,0,0.999,button_left_main,-0.377685547,-0.292151372,1,0,0,,0,80,80,105,1,MOKER,C,old,z,./images/MOKER.png,,,,,,,,,,,,,,,,,,,,,,,,,,,,,,,,,
,,,,,,,,,,,,,,,,,60ebc02f8a63cb2f69fa3ae1,43,2022-02-12_16h53.52.659,lexical_decision_task_DD,2021.2.3,Linux aarch64,59.90534955,,,,,,,,,,0.6834,1,,,,,,,,,,,,,,,0,0.395507813,-0.299204429,1,0,0,0.6834,button_right_main,0.395507813,-0.299204429,1,0,0,,0,81,81,80,1,WEASEL,LB,old,m,./images/WEASELLB.png,,,,,,,,,,,,,,,,,,,,,,,,,,,,,,,,,
,,,,,,,,,,,,,,,,,60ebc02f8a63cb2f69fa3ae1,43,2022-02-12_16h53.52.659,lexical_decision_task_DD,2021.2.3,Linux aarch64,59.90534955,,,,,,,,,,1.3048,1,,,,,,,,,,,,,,,0,0.388671875,-0.2878112,1,0,0,1.3048,button_right_main,0.388671875,-0.2878112,1,0,0,,0,82,82,15,1,GREASE,C,old,m,./images/GREASE.png,,,,,,,,,,,,,,,,,,,,,,,,,,,,,,,,,
,,,,,,,,,,,,,,,,,60ebc02f8a63cb2f69fa3ae1,43,2022-02-12_16h53.52.659,lexical_decision_task_DD,2021.2.3,Linux aarch64,59.90534955,,,,,,,,,,0.9889,1,,,,,,,,,,,,,,,0,-0.379394531,-0.285098394,1,0,0,0.9889,button_left_main,-0.047119141,-0.417476813,1,0,0,,0,83,83,99,1,BACKY,C,old,z,./images/BACKY.png,break_done_button,,,,,,,,,,,,,,,,,,,,,,,,,,,,,,,,
,,,,,,,,,,,,,,,,,60ebc02f8a63cb2f69fa3ae1,43,2022-02-12_16h53.52.659,lexical_decision_task_DD,2021.2.3,Linux aarch64,59.90534955,,,,,,,,,,0.8974,1,,,,,,,,,,,,,,,0,0.325927734,-0.313852866,1,0,0,0.8974,button_right_main,0.325927734,-0.313852866,1,0,0,,0,84,84,2,1,BEARD,LB,old,m,./images/BEARDLB.png,,,,,,,,,,,,,,,,,,,,,,,,,,,,,,,,,
,,,,,,,,,,,,,,,,,60ebc02f8a63cb2f69fa3ae1,43,2022-02-12_16h53.52.659,lexical_decision_task_DD,2021.2.3,Linux aarch64,59.90534955,,,,,,,,,,0.7827,1,,,,,,,,,,,,,,,0,-0.364501953,-0.29160881,1,0,0,0.7827,button_left_main,-0.364501953,-0.29160881,1,0,0,,0,85,85,116,1,BALGY,LB,old,z,./images/BALGYLB.png,,,,,,,,,,,,,,,,,,,,,,,,,,,,,,,,,
,,,,,,,,,,,,,,,,,60ebc02f8a63cb2f69fa3ae1,43,2022-02-12_16h53.52.659,lexical_decision_task_DD,2021.2.3,Linux aarch64,59.90534955,,,,,,,,,,0.9527,1,,,,,,,,,,,,,,,0,0.325683594,-0.34206454,1,0,0,0.9527,button_right_main,0.325683594,-0.34206454,1,0,0,,0,86,86,71,1,PIMPLE,LB,old,m,./images/PIMPLELB.png,,,,,,,,,,,,,,,,,,,,,,,,,,,,,,,,,
,,,,,,,,,,,,,,,,,60ebc02f8a63cb2f69fa3ae1,43,2022-02-12_16h53.52.659,lexical_decision_task_DD,2021.2.3,Linux aarch64,59.90534955,,,,,,,,,,0.9763,1,,,,,,,,,,,,,,,0,0.334960938,-0.317108075,1,0,0,0.9763,button_right_main,0.334960938,-0.317108075,1,0,0,,0,87,87,38,1,LADDER,LB,old,m,./images/LADDERLB.png,,,,,,,,,,,,,,,,,,,,,,,,,,,,,,,,,
,,,,,,,,,,,,,,,,,60ebc02f8a63cb2f69fa3ae1,43,2022-02-12_16h53.52.659,lexical_decision_task_DD,2021.2.3,Linux aarch64,59.90534955,,,,,,,,,,2.1906,1,,,,,,,,,,,,,,,0,0.34375,-0.329043706,1,0,0,2.1906,button_right_main,0.34375,-0.329043706,1,0,0,,0,88,88,16,1,PENCE,HB,old,m,./images/PENCEHB.png,,,,,,,,,,,,,,,,,,,,,,,,,,,,,,,,,
,,,,,,,,,,,,,,,,,60ebc02f8a63cb2f69fa3ae1,43,2022-02-12_16h53.52.659,lexical_decision_task_DD,2021.2.3,Linux aarch64,59.90534955,,,,,,,,,,1.1809,1,,,,,,,,,,,,,,,0,0.323730469,-0.33826685,1,0,0,1.1809,button_right_main,0.323730469,-0.33826685,1,0,0,,0,89,89,76,1,INFANT,HB,old,m,./images/INFANTHB.png,,,,,,,,,,,,,,,,,,,,,,,,,,,,,,,,,
,,,,,,,,,,,,,,,,,60ebc02f8a63cb2f69fa3ae1,43,2022-02-12_16h53.52.659,lexical_decision_task_DD,2021.2.3,Linux aarch64,59.90534955,,,,,,,,,,0.7671,1,,,,,,,,,,,,,,,0,0.325927734,-0.304629644,1,0,0,0.7671,button_right_main,0.325927734,-0.304629644,1,0,0,,0,90,90,59,1,BURIAL,LB,old,m,./images/BURIALLB.png,,,,,,,,,,,,,,,,,,,,,,,,,,,,,,,,,
,,,,,,,,,,,,,,,,,60ebc02f8a63cb2f69fa3ae1,43,2022-02-12_16h53.52.659,lexical_decision_task_DD,2021.2.3,Linux aarch64,59.90534955,,,,,,,,,,1.483,1,,,,,,,,,,,,,,,0,-0.374023438,-0.255801519,1,0,0,1.483,button_left_main,-0.374023438,-0.255801519,1,0,0,,0,91,91,103,1,FLORT,HB,old,z,./images/FLORTHB.png,,,,,,,,,,,,,,,,,,,,,,,,,,,,,,,,,
,,,,,,,,,,,,,,,,,60ebc02f8a63cb2f69fa3ae1,43,2022-02-12_16h53.52.659,lexical_decision_task_DD,2021.2.3,Linux aarch64,59.90534955,,,,,,,,,,0.7878,1,,,,,,,,,,,,,,,0,-0.355224609,-0.26393954,1,0,0,0.7878,button_left_main,-0.355224609,-0.26393954,1,0,0,,0,92,92,108,1,GRUET,C,old,z,./images/GRUET.png,,,,,,,,,,,,,,,,,,,,,,,,,,,,,,,,,
,,,,,,,,,,,,,,,,,60ebc02f8a63cb2f69fa3ae1,43,2022-02-12_16h53.52.659,lexical_decision_task_DD,2021.2.3,Linux aarch64,59.90534955,,,,,,,,,,1.0591,1,,,,,,,,,,,,,,,0,0.370849609,-0.272620122,1,0,0,1.0591,button_right_main,0.370849609,-0.272620122,1,0,0,,0,93,93,70,1,URINE,HB,old,m,./images/URINEHB.png,,,,,,,,,,,,,,,,,,,,,,,,,,,,,,,,,
,,,,,,,,,,,,,,,,,60ebc02f8a63cb2f69fa3ae1,43,2022-02-12_16h53.52.659,lexical_decision_task_DD,2021.2.3,Linux aarch64,59.90534955,,,,,,,,,,0.7136,1,,,,,,,,,,,,,,,0,-0.390869141,-0.288353602,1,0,0,0.7136,button_left_main,-0.390869141,-0.288353602,1,0,0,,0,94,94,150,1,NOOLS,C,old,z,./images/NOOLS.png,,,,,,,,,,,,,,,,,,,,,,,,,,,,,,,,,
,,,,,,,,,,,,,,,,,60ebc02f8a63cb2f69fa3ae1,43,2022-02-12_16h53.52.659,lexical_decision_task_DD,2021.2.3,Linux aarch64,59.90534955,,,,,,,,,,2.0849,1,,,,,,,,,,,,,,,0,-0.353515625,-0.278587977,1,0,0,2.0849,button_left_main,-0.353515625,-0.278587977,1,0,0,,0,95,95,162,1,LEICH,C,old,z,./images/LEICH.png,,,,,,,,,,,,,,,,,,,,,,,,,,,,,,,,,
,,,,,,,,,,,,,,,,,60ebc02f8a63cb2f69fa3ae1,43,2022-02-12_16h53.52.659,lexical_decision_task_DD,2021.2.3,Linux aarch64,59.90534955,,,,,,,,,,1.5197,1,,,,,,,,,,,,,,,0,-0.353515625,-0.280215581,1,0,0,1.5197,button_left_main,-0.353515625,-0.280215581,1,0,0,,0,96,96,142,1,PLASK,HB,old,z,./images/PLASKHB.png,,,,,,,,,,,,,,,,,,,,,,,,,,,,,,,,,
,,,,,,,,,,,,,,,,,60ebc02f8a63cb2f69fa3ae1,43,2022-02-12_16h53.52.659,lexical_decision_task_DD,2021.2.3,Linux aarch64,59.90534955,,,,,,,,,,0.8424,1,,,,,,,,,,,,,,,0,0.406494141,-0.296491623,1,0,0,0.8424,button_right_main,0.406494141,-0.296491623,1,0,0,,0,97,97,53,1,CARPET,LB,old,m,./images/CARPETLB.png,,,,,,,,,,,,,,,,,,,,,,,,,,,,,,,,,
,,,,,,,,,,,,,,,,,60ebc02f8a63cb2f69fa3ae1,43,2022-02-12_16h53.52.659,lexical_decision_task_DD,2021.2.3,Linux aarch64,59.90534955,,,,,,,,,,1.0636,1,,,,,,,,,,,,,,,0,0.370849609,-0.317650477,1,0,0,1.0636,button_right_main,0.370849609,-0.317650477,1,0,0,,0,98,98,79,1,CRUST,HB,old,m,./images/CRUSTHB.png,,,,,,,,,,,,,,,,,,,,,,,,,,,,,,,,,
,,,,,,,,,,,,,,,,,60ebc02f8a63cb2f69fa3ae1,43,2022-02-12_16h53.52.659,lexical_decision_task_DD,2021.2.3,Linux aarch64,59.90534955,,,,,,,,,,0.9617,1,,,,,,,,,,,,,,,0,-0.357421875,-0.273162762,1,0,0,0.9617,button_left_main,-0.357421875,-0.273162762,1,0,0,,0,99,99,160,1,VEETS,HB,old,z,./images/VEETSHB.png,,,,,,,,,,,,,,,,,,,,,,,,,,,,,,,,,
,,,,,,,,,,,,,,,,,60ebc02f8a63cb2f69fa3ae1,43,2022-02-12_16h53.52.659,lexical_decision_task_DD,2021.2.3,Linux aarch64,59.90534955,,,,,,,,,,1.3559,1,,,,,,,,,,,,,,,0,0.375732422,-0.292694012,1,0,0,1.3559,button_right_main,0.375732422,-0.292694012,1,0,0,,0,100,100,58,1,BABOON,HB,old,m,./images/BABOONHB.png,,,,,,,,,,,,,,,,,,,,,,,,,,,,,,,,,
,,,,,,,,,,,,,,,,,60ebc02f8a63cb2f69fa3ae1,43,2022-02-12_16h53.52.659,lexical_decision_task_DD,2021.2.3,Linux aarch64,59.90534955,,,,,,,,,,0.7152,1,,,,,,,,,,,,,,,0,-0.359375,-0.299746831,1,0,0,0.7152,button_left_main,-0.359375,-0.299746831,1,0,0,,0,101,101,135,1,JOODY,C,old,z,./images/JOODY.png,,,,,,,,,,,,,,,,,,,,,,,,,,,,,,,,,
,,,,,,,,,,,,,,,,,60ebc02f8a63cb2f69fa3ae1,43,2022-02-12_16h53.52.659,lexical_decision_task_DD,2021.2.3,Linux aarch64,59.90534955,,,,,,,,,,1.1866,1,,,,,,,,,,,,,,,0,0.401855469,-0.307884852,1,0,0,1.1866,button_right_main,0.401855469,-0.307884852,1,0,0,,0,102,102,60,1,TWINS,C,old,m,./images/TWINS.png,,,,,,,,,,,,,,,,,,,,,,,,,,,,,,,,,
,,,,,,,,,,,,,,,,,60ebc02f8a63cb2f69fa3ae1,43,2022-02-12_16h53.52.659,lexical_decision_task_DD,2021.2.3,Linux aarch64,59.90534955,,,,,,,,,,0.8108,1,,,,,,,,,,,,,,,0,-0.376464844,-0.276417971,1,0,0,0.8108,button_left_main,-0.376464844,-0.276417971,1,0,0,,0,103,103,129,1,PRANS,C,old,z,./images/PRANS.png,,,,,,,,,,,,,,,,,,,,,,,,,,,,,,,,,
,,,,,,,,,,,,,,,,,60ebc02f8a63cb2f69fa3ae1,43,2022-02-12_16h53.52.659,lexical_decision_task_DD,2021.2.3,Linux aarch64,59.90534955,,,,,,,,,,2.2131,0,,,,,,,,,,,,,,,0,0.393066406,-0.265024741,1,0,0,2.2131,button_right_main,0.393066406,-0.265024741,1,0,0,,0,104,104,157,1,INLER,HB,old,z,./images/INLERHB.png,,,,,,,,,,,,,,,,,,,,,,,,,,,,,,,,,
,,,,,,,,,,,,,,,,,60ebc02f8a63cb2f69fa3ae1,43,2022-02-12_16h53.52.659,lexical_decision_task_DD,2021.2.3,Linux aarch64,59.90534955,,,,,,,,,,1.2367,1,,,,,,,,,,,,,,,0,-0.344482422,-0.294321616,1,0,0,1.2367,button_left_main,-0.344482422,-0.294321616,1,0,0,,0,105,105,112,1,MYING,HB,old,z,./images/MYINGHB.png,,,,,,,,,,,,,,,,,,,,,,,,,,,,,,,,,
,,,,,,,,,,,,,,,,,60ebc02f8a63cb2f69fa3ae1,43,2022-02-12_16h53.52.659,lexical_decision_task_DD,2021.2.3,Linux aarch64,59.90534955,,,,,,,,,,1.114,1,,,,,,,,,,,,,,,0,-0.34765625,-0.2878112,1,0,0,1.114,button_left_main,-0.34765625,-0.2878112,1,0,0,,0,106,106,146,1,MOOST,LB,old,z,./images/MOOSTLB.png,,,,,,,,,,,,,,,,,,,,,,,,,,,,,,,,,
,,,,,,,,,,,,,,,,,60ebc02f8a63cb2f69fa3ae1,43,2022-02-12_16h53.52.659,lexical_decision_task_DD,2021.2.3,Linux aarch64,59.90534955,,,,,,,,,,0.9353,1,,,,,,,,,,,,,,,0,-0.34765625,-0.290523767,1,0,0,0.9353,button_left_main,-0.34765625,-0.290523767,1,0,0,,0,107,107,123,1,SEDGE,C,old,z,./images/SEDGE.png,,,,,,,,,,,,,,,,,,,,,,,,,,,,,,,,,
,,,,,,,,,,,,,,,,,60ebc02f8a63cb2f69fa3ae1,43,2022-02-12_16h53.52.659,lexical_decision_task_DD,2021.2.3,Linux aarch64,59.90534955,,,,,,,,,,0.6493,0,,,,,,,,,,,,,,,0,-0.358398438,-0.263397137,1,0,0,0.6493,button_left_main,-0.358398438,-0.263397137,1,0,0,,0,108,108,77,1,COUCH,LB,old,m,./images/COUCHLB.png,,,,,,,,,,,,,,,,,,,,,,,,,,,,,,,,,
,,,,,,,,,,,,,,,,,60ebc02f8a63cb2f69fa3ae1,43,2022-02-12_16h53.52.659,lexical_decision_task_DD,2021.2.3,Linux aarch64,59.90534955,,,,,,,,,,0.8325,1,,,,,,,,,,,,,,,0,0.333740234,-0.324160894,1,0,0,0.8325,button_right_main,0.333740234,-0.324160894,1,0,0,,0,109,109,39,1,SHELF,C,old,m,./images/SHELF.png,,,,,,,,,,,,,,,,,,,,,,,,,,,,,,,,,
,,,,,,,,,,,,,,,,,60ebc02f8a63cb2f69fa3ae1,43,2022-02-12_16h53.52.659,lexical_decision_task_DD,2021.2.3,Linux aarch64,59.90534955,,,,,,,,,,0.8147,1,,,,,,,,,,,,,,,0,0.342041016,-0.296491623,1,0,0,0.8147,button_right_main,0.342041016,-0.296491623,1,0,0,,0,110,110,5,1,PASTA,LB,old,m,./images/PASTALB.png,,,,,,,,,,,,,,,,,,,,,,,,,,,,,,,,,
,,,,,,,,,,,,,,,,,60ebc02f8a63cb2f69fa3ae1,43,2022-02-12_16h53.52.659,lexical_decision_task_DD,2021.2.3,Linux aarch64,59.90534955,,,,,,,,,,1.5775,0,,,,,,,,,,,,,,,0,-0.384033203,-0.311682622,1,0,0,1.5775,button_left_main,-0.384033203,-0.311682622,1,0,0,,0,111,111,82,1,SUNSET,HB,old,m,./images/SUNSETHB.png,,,,,,,,,,,,,,,,,,,,,,,,,,,,,,,,,
,,,,,,,,,,,,,,,,,60ebc02f8a63cb2f69fa3ae1,43,2022-02-12_16h53.52.659,lexical_decision_task_DD,2021.2.3,Linux aarch64,59.90534955,,,,,,,,,,0.8986,1,,,,,,,,,,,,,,,0,0.332519531,-0.316565434,1,0,0,0.8986,button_right_main,0.332519531,-0.316565434,1,0,0,,0,112,112,27,1,ATTIC,C,old,m,./images/ATTIC.png,,,,,,,,,,,,,,,,,,,,,,,,,,,,,,,,,
,,,,,,,,,,,,,,,,,60ebc02f8a63cb2f69fa3ae1,43,2022-02-12_16h53.52.659,lexical_decision_task_DD,2021.2.3,Linux aarch64,59.90534955,,,,,,,,,,1.7106,1,,,,,,,,,,,,,,,0,-0.366699219,-0.276960373,1,0,0,1.7106,button_left_main,-0.366699219,-0.276960373,1,0,0,,0,113,113,106,1,CLUMS,HB,old,z,./images/CLUMSHB.png,,,,,,,,,,,,,,,,,,,,,,,,,,,,,,,,,
,,,,,,,,,,,,,,,,,60ebc02f8a63cb2f69fa3ae1,43,2022-02-12_16h53.52.659,lexical_decision_task_DD,2021.2.3,Linux aarch64,59.90534955,,,,,,,,,,1.1124,1,,,,,,,,,,,,,,,0,-0.354736328,-0.282385747,1,0,0,1.1124,button_left_main,-0.354736328,-0.282385747,1,0,0,,0,114,114,97,1,CHIDS,HB,old,z,./images/CHIDSHB.png,,,,,,,,,,,,,,,,,,,,,,,,,,,,,,,,,
,,,,,,,,,,,,,,,,,60ebc02f8a63cb2f69fa3ae1,43,2022-02-12_16h53.52.659,lexical_decision_task_DD,2021.2.3,Linux aarch64,59.90534955,,,,,,,,,,0.7795,1,,,,,,,,,,,,,,,0,-0.381347656,-0.286183596,1,0,0,0.7795,button_left_main,-0.381347656,-0.286183596,1,0,0,,0,115,115,86,1,AIFED,LB,old,z,./images/AIFEDLB.png,,,,,,,,,,,,,,,,,,,,,,,,,,,,,,,,,
,,,,,,,,,,,,,,,,,60ebc02f8a63cb2f69fa3ae1,43,2022-02-12_16h53.52.659,lexical_decision_task_DD,2021.2.3,Linux aarch64,59.90534955,,,,,,,,,,0.9166,1,,,,,,,,,,,,,,,0,0.325195313,-0.298119227,1,0,0,0.9166,button_right_main,0.325195313,-0.298119227,1,0,0,,0,116,116,26,1,SMOKER,LB,old,m,./images/SMOKERLB.png,,,,,,,,,,,,,,,,,,,,,,,,,,,,,,,,,
,,,,,,,,,,,,,,,,,60ebc02f8a63cb2f69fa3ae1,43,2022-02-12_16h53.52.659,lexical_decision_task_DD,2021.2.3,Linux aarch64,59.90534955,,,,,,,,,,1.5279,1,,,,,,,,,,,,,,,0,0.336669922,-0.32253329,1,0,0,1.5279,button_right_main,0.336669922,-0.32253329,1,0,0,,0,117,117,25,1,WRIST,HB,old,m,./images/WRISTHB.png,,,,,,,,,,,,,,,,,,,,,,,,,,,,,,,,,
,,,,,,,,,,,,,,,,,60ebc02f8a63cb2f69fa3ae1,43,2022-02-12_16h53.52.659,lexical_decision_task_DD,2021.2.3,Linux aarch64,59.90534955,,,,,,,,,,0.7771,1,,,,,,,,,,,,,,,0,-0.395507813,-0.314395269,1,0,0,0.7771,button_left_main,-0.395507813,-0.314395269,1,0,0,,0,118,118,93,1,SMONE,C,old,z,./images/SMONE.png,,,,,,,,,,,,,,,,,,,,,,,,,,,,,,,,,
,,,,,,,,,,,,,,,,,60ebc02f8a63cb2f69fa3ae1,43,2022-02-12_16h53.52.659,lexical_decision_task_DD,2021.2.3,Linux aarch64,59.90534955,,,,,,,,,,0.9485,1,,,,,,,,,,,,,,,0,0.326416016,-0.302459637,1,0,0,0.9485,button_right_main,0.326416016,-0.302459637,1,0,0,,0,119,119,47,1,BERRY,LB,old,m,./images/BERRYLB.png,,,,,,,,,,,,,,,,,,,,,,,,,,,,,,,,,
,,,,,,,,,,,,,,,,,60ebc02f8a63cb2f69fa3ae1,43,2022-02-12_16h53.52.659,lexical_decision_task_DD,2021.2.3,Linux aarch64,59.90534955,,,,,,,,,,1.2173,1,,,,,,,,,,,,,,,0,-0.361816406,-0.284013351,1,0,0,1.2173,button_left_main,-0.361816406,-0.284013351,1,0,0,,0,120,120,139,1,BLEAR,HB,old,z,./images/BLEARHB.png,,,,,,,,,,,,,,,,,,,,,,,,,,,,,,,,,
,,,,,,,,,,,,,,,,,60ebc02f8a63cb2f69fa3ae1,43,2022-02-12_16h53.52.659,lexical_decision_task_DD,2021.2.3,Linux aarch64,59.90534955,,,,,,,,,,0.8443,1,,,,,,,,,,,,,,,0,0.343261719,-0.309512456,1,0,0,0.8443,button_right_main,0.343261719,-0.309512456,1,0,0,,0,121,121,50,1,MALLET,LB,old,m,./images/MALLETLB.png,,,,,,,,,,,,,,,,,,,,,,,,,,,,,,,,,
,,,,,,,,,,,,,,,,,60ebc02f8a63cb2f69fa3ae1,43,2022-02-12_16h53.52.659,lexical_decision_task_DD,2021.2.3,Linux aarch64,59.90534955,,,,,,,,,,0.7809,1,,,,,,,,,,,,,,,0,-0.355712891,-0.285640955,1,0,0,0.7809,button_left_main,-0.355712891,-0.285640955,1,0,0,,0,122,122,87,1,TRING,C,old,z,./images/TRING.png,,,,,,,,,,,,,,,,,,,,,,,,,,,,,,,,,
,,,,,,,,,,,,,,,,,60ebc02f8a63cb2f69fa3ae1,43,2022-02-12_16h53.52.659,lexical_decision_task_DD,2021.2.3,Linux aarch64,59.90534955,,,,,,,,,,0.8181,1,,,,,,,,,,,,,,,0,0.322753906,-0.260684331,1,0,0,0.8181,button_right_main,0.322753906,-0.260684331,1,0,0,,0,123,123,62,1,PURSE,LB,old,m,./images/PURSELB.png,,,,,,,,,,,,,,,,,,,,,,,,,,,,,,,,,
,,,,,,,,,,,,,,,,,60ebc02f8a63cb2f69fa3ae1,43,2022-02-12_16h53.52.659,lexical_decision_task_DD,2021.2.3,Linux aarch64,59.90534955,,,,,,,,,,0.7851,1,,,,,,,,,,,,,,,0,0.310058594,-0.285640955,1,0,0,0.7851,button_right_main,0.310058594,-0.285640955,1,0,0,,0,124,124,35,1,PEACH,LB,old,m,./images/PEACHLB.png,,,,,,,,,,,,,,,,,,,,,,,,,,,,,,,,,
,,,,,,,,,,,,,,,,,60ebc02f8a63cb2f69fa3ae1,43,2022-02-12_16h53.52.659,lexical_decision_task_DD,2021.2.3,Linux aarch64,59.90534955,,,,,,,,,,0.8786,1,,,,,,,,,,,,,,,0,-0.366455078,-0.280758142,1,0,0,0.8786,button_left_main,-0.068359375,-0.407168706,1,0,0,,0,125,125,153,1,CLUPS,C,old,z,./images/CLUPS.png,break_done_button,,,,,,,,,,,,,,,,,,,,,,,,,,,,,,,,
,,,,,,,,,,,,,,,,,60ebc02f8a63cb2f69fa3ae1,43,2022-02-12_16h53.52.659,lexical_decision_task_DD,2021.2.3,Linux aarch64,59.90534955,,,,,,,,,,0.8882,1,,,,,,,,,,,,,,,0,0.321533203,-0.321448247,1,0,0,0.8882,button_right_main,0.321533203,-0.321448247,1,0,0,,0,126,126,28,1,FALCON,HB,old,m,./images/FALCONHB.png,,,,,,,,,,,,,,,,,,,,,,,,,,,,,,,,,
,,,,,,,,,,,,,,,,,60ebc02f8a63cb2f69fa3ae1,43,2022-02-12_16h53.52.659,lexical_decision_task_DD,2021.2.3,Linux aarch64,59.90534955,,,,,,,,,,1.0522,1,,,,,,,,,,,,,,,0,0.316650391,-0.301374435,1,0,0,1.0522,button_right_main,0.316650391,-0.301374435,1,0,0,,0,127,127,69,1,COOKER,C,old,m,./images/COOKER.png,,,,,,,,,,,,,,,,,,,,,,,,,,,,,,,,,
,,,,,,,,,,,,,,,,,60ebc02f8a63cb2f69fa3ae1,43,2022-02-12_16h53.52.659,lexical_decision_task_DD,2021.2.3,Linux aarch64,59.90534955,,,,,,,,,,0.7755,1,,,,,,,,,,,,,,,0,-0.397460938,-0.32687362,1,0,0,0.7755,button_left_main,-0.397460938,-0.32687362,1,0,0,,0,128,128,119,1,PAFER,LB,old,z,./images/PAFERLB.png,,,,,,,,,,,,,,,,,,,,,,,,,,,,,,,,,
,,,,,,,,,,,,,,,,,60ebc02f8a63cb2f69fa3ae1,43,2022-02-12_16h53.52.659,lexical_decision_task_DD,2021.2.3,Linux aarch64,59.90534955,,,,,,,,,,0.8005,1,,,,,,,,,,,,,,,0,-0.412841797,-0.293236415,1,0,0,0.8005,button_left_main,-0.412841797,-0.293236415,1,0,0,,0,129,129,161,1,BLAPS,LB,old,z,./images/BLAPSLB.png,,,,,,,,,,,,,,,,,,,,,,,,,,,,,,,,,
,,,,,,,,,,,,,,,,,60ebc02f8a63cb2f69fa3ae1,43,2022-02-12_16h53.52.659,lexical_decision_task_DD,2021.2.3,Linux aarch64,59.90534955,,,,,,,,,,1.6981,1,,,,,,,,,,,,,,,0,-0.378417969,-0.282385747,1,0,0,1.6981,button_left_main,-0.378417969,-0.282385747,1,0,0,,0,130,130,133,1,POWDY,HB,old,z,./images/POWDYHB.png,,,,,,,,,,,,,,,,,,,,,,,,,,,,,,,,,
,,,,,,,,,,,,,,,,,60ebc02f8a63cb2f69fa3ae1,43,2022-02-12_16h53.52.659,lexical_decision_task_DD,2021.2.3,Linux aarch64,59.90534955,,,,,,,,,,1.2111,1,,,,,,,,,,,,,,,0,0.313232422,-0.315480471,1,0,0,1.2111,button_right_main,0.313232422,-0.315480471,1,0,0,,0,131,131,81,1,POODLE,C,old,m,./images/POODLE.png,,,,,,,,,,,,,,,,,,,,,,,,,,,,,,,,,
,,,,,,,,,,,,,,,,,60ebc02f8a63cb2f69fa3ae1,43,2022-02-12_16h53.52.659,lexical_decision_task_DD,2021.2.3,Linux aarch64,59.90534955,,,,,,,,,,2.0093,1,,,,,,,,,,,,,,,0,-0.406005859,-0.266652346,1,0,0,2.0093,button_left_main,-0.406005859,-0.266652346,1,0,0,,0,132,132,156,1,HIXES,C,old,z,./images/HIXES.png,,,,,,,,,,,,,,,,,,,,,,,,,,,,,,,,,
,,,,,,,,,,,,,,,,,60ebc02f8a63cb2f69fa3ae1,43,2022-02-12_16h53.52.659,lexical_decision_task_DD,2021.2.3,Linux aarch64,59.90534955,,,,,,,,,,0.799,1,,,,,,,,,,,,,,,0,0.368652344,-0.298661788,1,0,0,0.799,button_right_main,0.368652344,-0.298661788,1,0,0,,0,133,133,48,1,SPORT,C,old,m,./images/SPORT.png,,,,,,,,,,,,,,,,,,,,,,,,,,,,,,,,,
,,,,,,,,,,,,,,,,,60ebc02f8a63cb2f69fa3ae1,43,2022-02-12_16h53.52.659,lexical_decision_task_DD,2021.2.3,Linux aarch64,59.90534955,,,,,,,,,,0.8472,1,,,,,,,,,,,,,,,0,-0.372070313,-0.242780685,1,0,0,0.8472,button_left_main,-0.372070313,-0.242780685,1,0,0,,0,134,134,92,1,PAIMS,LB,old,z,./images/PAIMSLB.png,,,,,,,,,,,,,,,,,,,,,,,,,,,,,,,,,
,,,,,,,,,,,,,,,,,60ebc02f8a63cb2f69fa3ae1,43,2022-02-12_16h53.52.659,lexical_decision_task_DD,2021.2.3,Linux aarch64,59.90534955,,,,,,,,,,1.0095,1,,,,,,,,,,,,,,,0,0.339599609,-0.329586188,1,0,0,1.0095,button_right_main,0.339599609,-0.329586188,1,0,0,,0,135,135,49,1,DRUMS,HB,old,m,./images/DRUMSHB.png,,,,,,,,,,,,,,,,,,,,,,,,,,,,,,,,,
,,,,,,,,,,,,,,,,,60ebc02f8a63cb2f69fa3ae1,43,2022-02-12_16h53.52.659,lexical_decision_task_DD,2021.2.3,Linux aarch64,59.90534955,,,,,,,,,,0.9778,1,,,,,,,,,,,,,,,0,0.333251953,-0.339351813,1,0,0,0.9778,button_right_main,0.333251953,-0.339351813,1,0,0,,0,136,136,75,1,GRAIN,C,old,m,./images/GRAIN.png,,,,,,,,,,,,,,,,,,,,,,,,,,,,,,,,,
,,,,,,,,,,,,,,,,,60ebc02f8a63cb2f69fa3ae1,43,2022-02-12_16h53.52.659,lexical_decision_task_DD,2021.2.3,Linux aarch64,59.90534955,,,,,,,,,,1.3275,1,,,,,,,,,,,,,,,0,0.341308594,-0.305172205,1,0,0,1.3275,button_right_main,0.341308594,-0.305172205,1,0,0,,0,137,137,45,1,KITTEN,C,old,m,./images/KITTEN.png,,,,,,,,,,,,,,,,,,,,,,,,,,,,,,,,,
,,,,,,,,,,,,,,,,,60ebc02f8a63cb2f69fa3ae1,43,2022-02-12_16h53.52.659,lexical_decision_task_DD,2021.2.3,Linux aarch64,59.90534955,,,,,,,,,,0.8809,1,,,,,,,,,,,,,,,0,0.310546875,-0.289438804,1,0,0,0.8809,button_right_main,0.310546875,-0.289438804,1,0,0,,0,138,138,34,1,CANYON,HB,old,m,./images/CANYONHB.png,,,,,,,,,,,,,,,,,,,,,,,,,,,,,,,,,
,,,,,,,,,,,,,,,,,60ebc02f8a63cb2f69fa3ae1,43,2022-02-12_16h53.52.659,lexical_decision_task_DD,2021.2.3,Linux aarch64,59.90534955,,,,,,,,,,1.6354,1,,,,,,,,,,,,,,,0,-0.376220703,-0.242238283,1,0,0,1.6354,button_left_main,-0.376220703,-0.242238283,1,0,0,,0,139,139,118,1,BAVEL,HB,old,z,./images/BAVELHB.png,,,,,,,,,,,,,,,,,,,,,,,,,,,,,,,,,
,,,,,,,,,,,,,,,,,60ebc02f8a63cb2f69fa3ae1,43,2022-02-12_16h53.52.659,lexical_decision_task_DD,2021.2.3,Linux aarch64,59.90534955,,,,,,,,,,0.8019,1,,,,,,,,,,,,,,,0,0.357910156,-0.284555991,1,0,0,0.8019,button_right_main,0.357910156,-0.284555991,1,0,0,,0,140,140,17,1,SKIING,LB,old,m,./images/SKIINGLB.png,,,,,,,,,,,,,,,,,,,,,,,,,,,,,,,,,
,,,,,,,,,,,,,,,,,60ebc02f8a63cb2f69fa3ae1,43,2022-02-12_16h53.52.659,lexical_decision_task_DD,2021.2.3,Linux aarch64,59.90534955,,,,,,,,,,0.715,1,,,,,,,,,,,,,,,0,-0.395507813,-0.291066408,1,0,0,0.715,button_left_main,-0.395507813,-0.291066408,1,0,0,,0,141,141,164,1,SGREW,LB,old,z,./images/SGREWLB.png,,,,,,,,,,,,,,,,,,,,,,,,,,,,,,,,,
,,,,,,,,,,,,,,,,,60ebc02f8a63cb2f69fa3ae1,43,2022-02-12_16h53.52.659,lexical_decision_task_DD,2021.2.3,Linux aarch64,59.90534955,,,,,,,,,,1.1231,1,,,,,,,,,,,,,,,0,-0.383544922,-0.287268559,1,0,0,1.1231,button_left_main,-0.383544922,-0.287268559,1,0,0,,0,142,142,145,1,LAMEL,HB,old,z,./images/LAMELHB.png,,,,,,,,,,,,,,,,,,,,,,,,,,,,,,,,,
,,,,,,,,,,,,,,,,,60ebc02f8a63cb2f69fa3ae1,43,2022-02-12_16h53.52.659,lexical_decision_task_DD,2021.2.3,Linux aarch64,59.90534955,,,,,,,,,,1.215,1,,,,,,,,,,,,,,,0,0.341552734,-0.299204429,1,0,0,1.215,button_right_main,0.341552734,-0.299204429,1,0,0,,0,143,143,9,1,RHINO,C,old,m,./images/RHINO.png,,,,,,,,,,,,,,,,,,,,,,,,,,,,,,,,,
,,,,,,,,,,,,,,,,,60ebc02f8a63cb2f69fa3ae1,43,2022-02-12_16h53.52.659,lexical_decision_task_DD,2021.2.3,Linux aarch64,59.90534955,,,,,,,,,,1.0726,1,,,,,,,,,,,,,,,0,-0.393554688,-0.255259116,1,0,0,1.0726,button_left_main,-0.393554688,-0.255259116,1,0,0,,0,144,144,94,1,BLANS,HB,old,z,./images/BLANSHB.png,,,,,,,,,,,,,,,,,,,,,,,,,,,,,,,,,
,,,,,,,,,,,,,,,,,60ebc02f8a63cb2f69fa3ae1,43,2022-02-12_16h53.52.659,lexical_decision_task_DD,2021.2.3,Linux aarch64,59.90534955,,,,,,,,,,0.9012,1,,,,,,,,,,,,,,,0,-0.348876953,-0.29160881,1,0,0,0.9012,button_left_main,-0.348876953,-0.29160881,1,0,0,,0,145,145,111,1,HOSSE,C,old,z,./images/HOSSE.png,,,,,,,,,,,,,,,,,,,,,,,,,,,,,,,,,
,,,,,,,,,,,,,,,,,60ebc02f8a63cb2f69fa3ae1,43,2022-02-12_16h53.52.659,lexical_decision_task_DD,2021.2.3,Linux aarch64,59.90534955,,,,,,,,,,0.8442,1,,,,,,,,,,,,,,,0,0.337158203,-0.320363283,1,0,0,0.8442,button_right_main,0.337158203,-0.320363283,1,0,0,,0,146,146,20,1,CRADLE,LB,old,m,./images/CRADLELB.png,,,,,,,,,,,,,,,,,,,,,,,,,,,,,,,,,
,,,,,,,,,,,,,,,,,60ebc02f8a63cb2f69fa3ae1,43,2022-02-12_16h53.52.659,lexical_decision_task_DD,2021.2.3,Linux aarch64,59.90534955,,,,,,,,,,0.9515,1,,,,,,,,,,,,,,,0,0.322265625,-0.270449956,1,0,0,0.9515,button_right_main,0.322265625,-0.270449956,1,0,0,,0,147,147,61,1,CANDLE,HB,old,m,./images/CANDLEHB.png,,,,,,,,,,,,,,,,,,,,,,,,,,,,,,,,,
,,,,,,,,,,,,,,,,,60ebc02f8a63cb2f69fa3ae1,43,2022-02-12_16h53.52.659,lexical_decision_task_DD,2021.2.3,Linux aarch64,59.90534955,,,,,,,,,,0.7036,1,,,,,,,,,,,,,,,0,-0.381835938,-0.298661788,1,0,0,0.7036,button_left_main,-0.381835938,-0.298661788,1,0,0,,0,148,148,95,1,HANTY,LB,old,z,./images/HANTYLB.png,,,,,,,,,,,,,,,,,,,,,,,,,,,,,,,,,
,,,,,,,,,,,,,,,,,60ebc02f8a63cb2f69fa3ae1,43,2022-02-12_16h53.52.659,lexical_decision_task_DD,2021.2.3,Linux aarch64,59.90534955,,,,,,,,,,1.3664,1,,,,,,,,,,,,,,,0,-0.359863281,-0.278045575,1,0,0,1.3664,button_left_main,-0.359863281,-0.278045575,1,0,0,,0,149,149,117,1,STEEG,C,old,z,./images/STEEG.png,,,,,,,,,,,,,,,,,,,,,,,,,,,,,,,,,
,,,,,,,,,,,,,,,,,60ebc02f8a63cb2f69fa3ae1,43,2022-02-12_16h53.52.659,lexical_decision_task_DD,2021.2.3,Linux aarch64,59.90534955,,,,,,,,,,0.9754,1,,,,,,,,,,,,,,,0,0.323242188,-0.293778976,1,0,0,0.9754,button_right_main,0.323242188,-0.293778976,1,0,0,,0,150,150,83,1,JUNGLE,LB,old,m,./images/JUNGLELB.png,,,,,,,,,,,,,,,,,,,,,,,,,,,,,,,,,
,,,,,,,,,,,,,,,,,60ebc02f8a63cb2f69fa3ae1,43,2022-02-12_16h53.52.659,lexical_decision_task_DD,2021.2.3,Linux aarch64,59.90534955,,,,,,,,,,1.0967,1,,,,,,,,,,,,,,,0,-0.401611328,-0.304087241,1,0,0,1.0967,button_left_main,-0.401611328,-0.304087241,1,0,0,,0,151,151,113,1,LINEW,LB,old,z,./images/LINEWLB.png,,,,,,,,,,,,,,,,,,,,,,,,,,,,,,,,,
,,,,,,,,,,,,,,,,,60ebc02f8a63cb2f69fa3ae1,43,2022-02-12_16h53.52.659,lexical_decision_task_DD,2021.2.3,Linux aarch64,59.90534955,,,,,,,,,,0.9836,1,,,,,,,,,,,,,,,0,-0.354980469,-0.319278081,1,0,0,0.9836,button_left_main,-0.354980469,-0.319278081,1,0,0,,0,152,152,143,1,MONGS,LB,old,z,./images/MONGSLB.png,,,,,,,,,,,,,,,,,,,,,,,,,,,,,,,,,
,,,,,,,,,,,,,,,,,60ebc02f8a63cb2f69fa3ae1,43,2022-02-12_16h53.52.659,lexical_decision_task_DD,2021.2.3,Linux aarch64,59.90534955,,,,,,,,,,1.0179,1,,,,,,,,,,,,,,,0,0.330810547,-0.260141929,1,0,0,1.0179,button_right_main,0.330810547,-0.260141929,1,0,0,,0,153,153,19,1,DOUGH,HB,old,m,./images/DOUGHHB.png,,,,,,,,,,,,,,,,,,,,,,,,,,,,,,,,,
,,,,,,,,,,,,,,,,,60ebc02f8a63cb2f69fa3ae1,43,2022-02-12_16h53.52.659,lexical_decision_task_DD,2021.2.3,Linux aarch64,59.90534955,,,,,,,,,,0.9999,1,,,,,,,,,,,,,,,0,0.325439453,-0.294864019,1,0,0,0.9999,button_right_main,0.325439453,-0.294864019,1,0,0,,0,154,154,74,1,CEMENT,LB,old,m,./images/CEMENTLB.png,,,,,,,,,,,,,,,,,,,,,,,,,,,,,,,,,
,,,,,,,,,,,,,,,,,60ebc02f8a63cb2f69fa3ae1,43,2022-02-12_16h53.52.659,lexical_decision_task_DD,2021.2.3,Linux aarch64,59.90534955,,,,,,,,,,1.2773,1,,,,,,,,,,,,,,,0,0.284423828,-0.292694012,1,0,0,1.2773,button_right_main,0.284423828,-0.292694012,1,0,0,,0,155,155,72,1,NOOSE,C,old,m,./images/NOOSE.png,,,,,,,,,,,,,,,,,,,,,,,,,,,,,,,,,
,,,,,,,,,,,,,,,,,60ebc02f8a63cb2f69fa3ae1,43,2022-02-12_16h53.52.659,lexical_decision_task_DD,2021.2.3,Linux aarch64,59.90534955,,,,,,,,,,0.8828,1,,,,,,,,,,,,,,,0,0.316650391,-0.29160881,1,0,0,0.8828,button_right_main,0.316650391,-0.29160881,1,0,0,,0,156,156,23,1,WALRUS,LB,old,m,./images/WALRUSLB.png,,,,,,,,,,,,,,,,,,,,,,,,,,,,,,,,,
,,,,,,,,,,,,,,,,,60ebc02f8a63cb2f69fa3ae1,43,2022-02-12_16h53.52.659,lexical_decision_task_DD,2021.2.3,Linux aarch64,59.90534955,,,,,,,,,,1.1942,1,,,,,,,,,,,,,,,0,0.341796875,-0.296491623,1,0,0,1.1942,button_right_main,0.341796875,-0.296491623,1,0,0,,0,157,157,64,1,JELLY,HB,old,m,./images/JELLYHB.png,,,,,,,,,,,,,,,,,,,,,,,,,,,,,,,,,
,,,,,,,,,,,,,,,,,60ebc02f8a63cb2f69fa3ae1,43,2022-02-12_16h53.52.659,lexical_decision_task_DD,2021.2.3,Linux aarch64,59.90534955,,,,,,,,,,0.846,1,,,,,,,,,,,,,,,0,-0.400390625,-0.268822352,1,0,0,0.846,button_left_main,-0.400390625,-0.268822352,1,0,0,,0,158,158,138,1,PLICE,C,old,z,./images/PLICE.png,,,,,,,,,,,,,,,,,,,,,,,,,,,,,,,,,
,,,,,,,,,,,,,,,,,60ebc02f8a63cb2f69fa3ae1,43,2022-02-12_16h53.52.659,lexical_decision_task_DD,2021.2.3,Linux aarch64,59.90534955,,,,,,,,,,1.8671,1,,,,,,,,,,,,,,,0,0.354003906,-0.30734245,1,0,0,1.8671,button_right_main,0.354003906,-0.30734245,1,0,0,,0,159,159,67,1,SAILOR,HB,old,m,./images/SAILORHB.png,,,,,,,,,,,,,,,,,,,,,,,,,,,,,,,,,
,,,,,,,,,,,,,,,,,60ebc02f8a63cb2f69fa3ae1,43,2022-02-12_16h53.52.659,lexical_decision_task_DD,2021.2.3,Linux aarch64,59.90534955,,,,,,,,,,1.0663,0,,,,,,,,,,,,,,,0,0.330078125,-0.281843185,1,0,0,1.0663,button_right_main,0.330078125,-0.281843185,1,0,0,,0,160,160,128,1,GRIFT,LB,old,z,./images/GRIFTLB.png,,,,,,,,,,,,,,,,,,,,,,,,,,,,,,,,,
,,,,,,,,,,,,,,,,,60ebc02f8a63cb2f69fa3ae1,43,2022-02-12_16h53.52.659,lexical_decision_task_DD,2021.2.3,Linux aarch64,59.90534955,,,,,,,,,,0.9655,1,,,,,,,,,,,,,,,0,-0.35546875,-0.282385747,1,0,0,0.9655,button_left_main,-0.35546875,-0.282385747,1,0,0,,0,161,161,134,1,TROSS,LB,old,z,./images/TROSSLB.png,,,,,,,,,,,,,,,,,,,,,,,,,,,,,,,,,
,,,,,,,,,,,,,,,,,60ebc02f8a63cb2f69fa3ae1,43,2022-02-12_16h53.52.659,lexical_decision_task_DD,2021.2.3,Linux aarch64,59.90534955,,,,,,,,,,1.0213,1,,,,,,,,,,,,,,,0,0.382324219,-0.32687362,1,0,0,1.0213,button_right_main,0.382324219,-0.32687362,1,0,0,,0,162,162,13,1,MOTOR,HB,old,m,./images/MOTORHB.png,,,,,,,,,,,,,,,,,,,,,,,,,,,,,,,,,
,,,,,,,,,,,,,,,,,60ebc02f8a63cb2f69fa3ae1,43,2022-02-12_16h53.52.659,lexical_decision_task_DD,2021.2.3,Linux aarch64,59.90534955,,,,,,,,,,1.1965,1,,,,,,,,,,,,,,,0,-0.383300781,-0.281843185,1,0,0,1.1965,button_left_main,-0.383300781,-0.281843185,1,0,0,,0,163,163,121,1,CEERS,HB,old,z,./images/CEERSHB.png,,,,,,,,,,,,,,,,,,,,,,,,,,,,,,,,,
,,,,,,,,,,,,,,,,,60ebc02f8a63cb2f69fa3ae1,43,2022-02-12_16h53.52.659,lexical_decision_task_DD,2021.2.3,Linux aarch64,59.90534955,,,,,,,,,,0.6972,1,,,,,,,,,,,,,,,0,-0.402832031,-0.288353602,1,0,0,0.6972,button_left_main,-0.402832031,-0.288353602,1,0,0,,0,164,164,131,1,NACES,LB,old,z,./images/NACESLB.png,,,,,,,,,,,,,,,,,,,,,,,,,,,,,,,,,
,,,,,,,,,,,,,,,,,60ebc02f8a63cb2f69fa3ae1,43,2022-02-12_16h53.52.659,lexical_decision_task_DD,2021.2.3,Linux aarch64,59.90534955,,,,,,,,,,0.8975,1,,,,,,,,,,,,,,,0,0.375976563,-0.312767665,1,0,0,0.8975,button_right_main,0.375976563,-0.312767665,1,0,0,,0,165,165,30,1,STORM,C,old,m,./images/STORM.png,,,,,,,,,,,,,,,,,,,,,,,,,,,,,,,,,
,,,,,,,,,,,,,,,,,60ebc02f8a63cb2f69fa3ae1,43,2022-02-12_16h53.52.659,lexical_decision_task_DD,2021.2.3,Linux aarch64,59.90534955,,,,,,,,,,1.0284,0,,,,,,,,,,,,,,,0,-0.384765625,-0.279130538,1,0,0,1.0284,button_left_main,-0.384765625,-0.279130538,1,0,0,,0,166,166,31,1,QUILL,HB,old,m,./images/QUILLHB.png,,,,,,,,,,,,,,,,,,,,,,,,,,,,,,,,,
,,,,,,,,,,,,,,,,,60ebc02f8a63cb2f69fa3ae1,43,2022-02-12_16h53.52.659,lexical_decision_task_DD,2021.2.3,Linux aarch64,59.90534955,,,,,,,,,,1.1145,1,,,,,,,,,,,,,,,0,0.354248047,-0.30734245,1,0,0,1.1145,button_right_main,0.354248047,-0.30734245,1,0,0,,0,167,167,55,1,MUFFIN,HB,old,m,./images/MUFFINHB.png,,,,,,,,,,,,,,,,,,,,,,,,,,,,,,,,,
,,,,,,,,,,,,,,,,,60ebc02f8a63cb2f69fa3ae1,43,2022-02-12_16h53.52.659,lexical_decision_task_DD,2021.2.3,Linux aarch64,59.90534955,,,,,,,,,,,,,,,,,,,,,,,,,,,,,,,,,,,,,,,,,,,,,,How likely will it be that you will recognize the words presented slighly blurred on a scale of 0 (not likely) to 100 (most likely)?,,,,,-0.008789063,-0.435923258,1,0,0,jol_adv,4,7.8139,0,0,0,1,1,,,,,,,,,,,,,,,,,,,
,,,,,,,,,,,,,,,,,60ebc02f8a63cb2f69fa3ae1,43,2022-02-12_16h53.52.659,lexical_decision_task_DD,2021.2.3,Linux aarch64,59.90534955,,,,,,,,,,,,,,,,,,,,,,,,,,,,,,,,,,,,,,,,,,,,,,How likely will it be that you will recognize the words presented clearly on a scale of 0 (not likely) to 100 (most likely)?,,,,,,,,,,,6,18.5814,0,1,1,0,1,,,,,,,,,,,,,,,,,,,
,,,,,,,,,,,,,,,,,60ebc02f8a63cb2f69fa3ae1,43,2022-02-12_16h53.52.659,lexical_decision_task_DD,2021.2.3,Linux aarch64,59.90534955,,,,,,,,,,,,,,,,,,,,,,,,,,,,,,,,,,,,,,,,,,,,,,How likely will it be that you will recognize the words presented very blurred on a scale of 0 (not likely) to 100 (most likely)?,,,,,,,,,,,1,2.8917,0,2,2,2,1,,,,,,,,,,,,,,,,,,,
,0.127929688,-0.385467529,1,0,0,instr_done_button,,,,,,1,test,"In the next phase you will be presented with the words from the the first phase. Your job is to decide whether you remember seeing the word or not. If you remember seeing the word press ""old"" or type ""m"". If you do not remember seeing the word press ""new"" or type ""z"". Please press the space bar or click on continue to begin. ",,,60ebc02f8a63cb2f69fa3ae1,43,2022-02-12_16h53.52.659,lexical_decision_task_DD,2021.2.3,Linux aarch64,59.90534955,,,,,,,,,,,,,,,,,,,,,,,,,,,,,,,,,,,,,,,,,,,,,,,,,,,,,,,,,,,,,,,,0,0,0,0,1,,,,,,,,,,,,,,
,0.101318359,-0.370818933,1,0,0,instr_done_button,,,,,,1,test,"In the next phase you will be presented with the words from the the first phase. Your job is to decide whether you remember seeing the word or not. If you remember seeing the word press ""old"" or type ""m"". If you do not remember seeing the word press ""new"" or type ""z"". Please press the space bar or click on continue to begin. ",,,60ebc02f8a63cb2f69fa3ae1,43,2022-02-12_16h53.52.659,lexical_decision_task_DD,2021.2.3,Linux aarch64,59.90534955,,,,,,,,,,,,,,,,,,,,,,,,,,,,,,,,,,,,,,,,,,,,,,,,,,,,,,,,,,,,,,,,1,0,1,0,1,,,,,,,,,,,,,,
,-0.037109375,-0.415306727,1,0,0,instr_done_button,,,,,,1,test,"In the next phase you will be presented with the words from the the first phase. Your job is to decide whether you remember seeing the word or not. If you remember seeing the word press ""old"" or type ""m"". If you do not remember seeing the word press ""new"" or type ""z"". Please press the space bar or click on continue to begin. ",,,60ebc02f8a63cb2f69fa3ae1,43,2022-02-12_16h53.52.659,lexical_decision_task_DD,2021.2.3,Linux aarch64,59.90534955,,,,,,,,,,,,,,,,,,,,,,,,,,,,,,,,,,,,,,,,,,,,,,,,,,,,,,,,,,,,,,,,2,0,2,0,1,,,,,,,,,,,,,,
,-0.053955078,-0.395775477,1,0,0,instr_done_button,,,,,,1,test,"In the next phase you will be presented with the words from the the first phase. Your job is to decide whether you remember seeing the word or not. If you remember seeing the word press ""old"" or type ""m"". If you do not remember seeing the word press ""new"" or type ""z"". Please press the space bar or click on continue to begin. ",,,60ebc02f8a63cb2f69fa3ae1,43,2022-02-12_16h53.52.659,lexical_decision_task_DD,2021.2.3,Linux aarch64,59.90534955,,,,,,,,,,,,,,,,,,,,,,,,,,,,,,,,,,,,,,,,,,,,,,,,,,,,,,,,,,,,,,,,3,0,3,0,1,,,,,,,,,,,,,,
,-0.047851563,-0.409338792,1,0,0,instr_done_button,,,,,,1,test,"In the next phase you will be presented with the words from the the first phase. Your job is to decide whether you remember seeing the word or not. If you remember seeing the word press ""old"" or type ""m"". If you do not remember seeing the word press ""new"" or type ""z"". Please press the space bar or click on continue to begin. ",,,60ebc02f8a63cb2f69fa3ae1,43,2022-02-12_16h53.52.659,lexical_decision_task_DD,2021.2.3,Linux aarch64,59.90534955,,,,,,,,,,,,,,,,,,,,,,,,,,,,,,,,,,,,,,,,,,,,,,,,,,,,,,,,,,,,,,,,4,0,4,0,1,,,,,,,,,,,,,,
,,,,,,,,,,,,,,,,,60ebc02f8a63cb2f69fa3ae1,43,2022-02-12_16h53.52.659,lexical_decision_task_DD,2021.2.3,Linux aarch64,59.90534955,,,,,,,,,,2.2699,0,,,,,,,,,,,,,,,,,,,,,,,0.344726563,-0.305714846,1,0,0,,,,,,,BISHOP,HB,z,m,./images/BISHOPHB.png,,,,,,,,,,,,,,,,,,,,,0,0.344726563,-0.305714846,1,0,0,2.2699,button_right_test,0,0,0,133,1
,,,,,,,,,,,,,,,,,60ebc02f8a63cb2f69fa3ae1,43,2022-02-12_16h53.52.659,lexical_decision_task_DD,2021.2.3,Linux aarch64,59.90534955,,,,,,,,,,1.3327,0,,,,,,,,,,,,,,,,,,,,,,,0.359619141,-0.315480471,1,0,0,,,,,,,RULER,HB,z,m,./images/RULERHB.png,,,,,,,,,,,,,,,,,,,,,0,0.359619141,-0.315480471,1,0,0,1.3327,button_right_test,0,1,1,163,1
,,,,,,,,,,,,,,,,,60ebc02f8a63cb2f69fa3ae1,43,2022-02-12_16h53.52.659,lexical_decision_task_DD,2021.2.3,Linux aarch64,59.90534955,,,,,,,,,,0.9251,0,,,,,,,,,,,,,,,,,,,,,,,0.336181641,-0.306799809,1,0,0,,,,,,,SPINE,LB,z,m,./images/SPINELB.png,,,,,,,,,,,,,,,,,,,,,0,0.336181641,-0.306799809,1,0,0,0.9251,button_right_test,0,2,2,149,1
,,,,,,,,,,,,,,,,,60ebc02f8a63cb2f69fa3ae1,43,2022-02-12_16h53.52.659,lexical_decision_task_DD,2021.2.3,Linux aarch64,59.90534955,,,,,,,,,,0.7749,1,,,,,,,,,,,,,,,,,,,,,,,0.323242188,-0.293236415,1,0,0,,,,,,,CEMENT,LB,m,m,./images/CEMENTLB.png,,,,,,,,,,,,,,,,,,,,,0,0.323242188,-0.293236415,1,0,0,0.7749,button_right_test,0,3,3,74,1
,,,,,,,,,,,,,,,,,60ebc02f8a63cb2f69fa3ae1,43,2022-02-12_16h53.52.659,lexical_decision_task_DD,2021.2.3,Linux aarch64,59.90534955,,,,,,,,,,0.9477,0,,,,,,,,,,,,,,,,,,,,,,,0.339111328,-0.291066408,1,0,0,,,,,,,STAIN,C,z,m,./images/STAIN.png,,,,,,,,,,,,,,,,,,,,,0,0.339111328,-0.291066408,1,0,0,0.9477,button_right_test,0,4,4,90,1
,,,,,,,,,,,,,,,,,60ebc02f8a63cb2f69fa3ae1,43,2022-02-12_16h53.52.659,lexical_decision_task_DD,2021.2.3,Linux aarch64,59.90534955,,,,,,,,,,0.8683,0,,,,,,,,,,,,,,,,,,,,,,,0.294189453,-0.265024741,1,0,0,,,,,,,BUBBLE,LB,z,m,./images/BUBBLELB.png,,,,,,,,,,,,,,,,,,,,,0,0.294189453,-0.265024741,1,0,0,0.8683,button_right_test,0,5,5,155,1
,,,,,,,,,,,,,,,,,60ebc02f8a63cb2f69fa3ae1,43,2022-02-12_16h53.52.659,lexical_decision_task_DD,2021.2.3,Linux aarch64,59.90534955,,,,,,,,,,1.0792,1,,,,,,,,,,,,,,,,,,,,,,,-0.406494141,-0.299746831,1,0,0,,,,,,,HAMMER,C,z,m,./images/HAMMER.png,,,,,,,,,,,,,,,,,,,,,0,-0.406494141,-0.299746831,1,0,0,1.0792,button_left_test,0,6,6,159,1
,,,,,,,,,,,,,,,,,60ebc02f8a63cb2f69fa3ae1,43,2022-02-12_16h53.52.659,lexical_decision_task_DD,2021.2.3,Linux aarch64,59.90534955,,,,,,,,,,0.6345,1,,,,,,,,,,,,,,,,,,,,,,,0.325683594,-0.314395269,1,0,0,,,,,,,ONION,C,m,m,./images/ONION.png,,,,,,,,,,,,,,,,,,,,,0,0.325683594,-0.314395269,1,0,0,0.6345,button_right_test,0,7,7,51,1
,,,,,,,,,,,,,,,,,60ebc02f8a63cb2f69fa3ae1,43,2022-02-12_16h53.52.659,lexical_decision_task_DD,2021.2.3,Linux aarch64,59.90534955,,,,,,,,,,1.4489,0,,,,,,,,,,,,,,,,,,,,,,,0.297851563,-0.281300783,1,0,0,,,,,,,PARCEL,C,z,m,./images/PARCEL.png,,,,,,,,,,,,,,,,,,,,,0,0.297851563,-0.281300783,1,0,0,1.4489,button_right_test,0,8,8,102,1
,,,,,,,,,,,,,,,,,60ebc02f8a63cb2f69fa3ae1,43,2022-02-12_16h53.52.659,lexical_decision_task_DD,2021.2.3,Linux aarch64,59.90534955,,,,,,,,,,1.0656,1,,,,,,,,,,,,,,,,,,,,,,,0.354980469,-0.286725998,1,0,0,,,,,,,MOSQUE,HB,m,m,./images/MOSQUEHB.png,,,,,,,,,,,,,,,,,,,,,0,0.354980469,-0.286725998,1,0,0,1.0656,button_right_test,0,9,9,43,1
,,,,,,,,,,,,,,,,,60ebc02f8a63cb2f69fa3ae1,43,2022-02-12_16h53.52.659,lexical_decision_task_DD,2021.2.3,Linux aarch64,59.90534955,,,,,,,,,,1.7657,1,,,,,,,,,,,,,,,,,,,,,,,0.358154297,-0.276417971,1,0,0,,,,,,,KITTEN,C,m,m,./images/KITTEN.png,,,,,,,,,,,,,,,,,,,,,0,0.358154297,-0.276417971,1,0,0,1.7657,button_right_test,0,10,10,45,1
,,,,,,,,,,,,,,,,,60ebc02f8a63cb2f69fa3ae1,43,2022-02-12_16h53.52.659,lexical_decision_task_DD,2021.2.3,Linux aarch64,59.90534955,,,,,,,,,,1.7158,1,,,,,,,,,,,,,,,,,,,,,,,-0.39453125,-0.267194748,1,0,0,,,,,,,MIDGET,HB,z,m,./images/MIDGETHB.png,,,,,,,,,,,,,,,,,,,,,0,-0.39453125,-0.267194748,1,0,0,1.7158,button_left_test,0,11,11,160,1
,,,,,,,,,,,,,,,,,60ebc02f8a63cb2f69fa3ae1,43,2022-02-12_16h53.52.659,lexical_decision_task_DD,2021.2.3,Linux aarch64,59.90534955,,,,,,,,,,2.3224,0,,,,,,,,,,,,,,,,,,,,,,,0.328369141,-0.268822352,1,0,0,,,,,,,CURRY,C,z,m,./images/CURRY.png,,,,,,,,,,,,,,,,,,,,,0,0.328369141,-0.268822352,1,0,0,2.3224,button_right_test,0,12,12,144,1
,,,,,,,,,,,,,,,,,60ebc02f8a63cb2f69fa3ae1,43,2022-02-12_16h53.52.659,lexical_decision_task_DD,2021.2.3,Linux aarch64,59.90534955,,,,,,,,,,0.9145,0,,,,,,,,,,,,,,,,,,,,,,,0.335693359,-0.319278081,1,0,0,,,,,,,CHAIN,C,z,m,./images/CHAIN.png,,,,,,,,,,,,,,,,,,,,,0,0.335693359,-0.319278081,1,0,0,0.9145,button_right_test,0,13,13,126,1
,,,,,,,,,,,,,,,,,60ebc02f8a63cb2f69fa3ae1,43,2022-02-12_16h53.52.659,lexical_decision_task_DD,2021.2.3,Linux aarch64,59.90534955,,,,,,,,,,1.18,0,,,,,,,,,,,,,,,,,,,,,,,0.373535156,-0.311682622,1,0,0,,,,,,,HEATER,LB,z,m,./images/HEATERLB.png,,,,,,,,,,,,,,,,,,,,,0,0.373535156,-0.311682622,1,0,0,1.18,button_right_test,0,14,14,140,1
,,,,,,,,,,,,,,,,,60ebc02f8a63cb2f69fa3ae1,43,2022-02-12_16h53.52.659,lexical_decision_task_DD,2021.2.3,Linux aarch64,59.90534955,,,,,,,,,,0.9497,0,,,,,,,,,,,,,,,,,,,,,,,0.377197266,-0.277502934,1,0,0,,,,,,,WAGON,HB,z,m,./images/WAGONHB.png,,,,,,,,,,,,,,,,,,,,,0,0.377197266,-0.277502934,1,0,0,0.9497,button_right_test,0,15,15,91,1
,,,,,,,,,,,,,,,,,60ebc02f8a63cb2f69fa3ae1,43,2022-02-12_16h53.52.659,lexical_decision_task_DD,2021.2.3,Linux aarch64,59.90534955,,,,,,,,,,0.8855,1,,,,,,,,,,,,,,,,,,,,,,,-0.358886719,-0.271535158,1,0,0,,,,,,,SHIELD,C,z,m,./images/SHIELD.png,,,,,,,,,,,,,,,,,,,,,0,-0.358886719,-0.271535158,1,0,0,0.8855,button_left_test,0,16,16,132,1
,,,,,,,,,,,,,,,,,60ebc02f8a63cb2f69fa3ae1,43,2022-02-12_16h53.52.659,lexical_decision_task_DD,2021.2.3,Linux aarch64,59.90534955,,,,,,,,,,1.5336,1,,,,,,,,,,,,,,,,,,,,,,,0.326171875,-0.311682622,1,0,0,,,,,,,CRADLE,LB,m,m,./images/CRADLELB.png,,,,,,,,,,,,,,,,,,,,,0,0.326171875,-0.311682622,1,0,0,1.5336,button_right_test,0,17,17,20,1
,,,,,,,,,,,,,,,,,60ebc02f8a63cb2f69fa3ae1,43,2022-02-12_16h53.52.659,lexical_decision_task_DD,2021.2.3,Linux aarch64,59.90534955,,,,,,,,,,0.975,0,,,,,,,,,,,,,,,,,,,,,,,0.320800781,-0.292694012,1,0,0,,,,,,,TOWEL,HB,z,m,./images/TOWELHB.png,,,,,,,,,,,,,,,,,,,,,0,0.320800781,-0.292694012,1,0,0,0.975,button_right_test,0,18,18,85,1
,,,,,,,,,,,,,,,,,60ebc02f8a63cb2f69fa3ae1,43,2022-02-12_16h53.52.659,lexical_decision_task_DD,2021.2.3,Linux aarch64,59.90534955,,,,,,,,,,0.9491,0,,,,,,,,,,,,,,,,,,,,,,,-0.407470703,-0.291066408,1,0,0,,,,,,,LIZARD,LB,m,m,./images/LIZARDLB.png,,,,,,,,,,,,,,,,,,,,,0,-0.407470703,-0.291066408,1,0,0,0.9491,button_left_test,0,19,19,44,1
,,,,,,,,,,,,,,,,,60ebc02f8a63cb2f69fa3ae1,43,2022-02-12_16h53.52.659,lexical_decision_task_DD,2021.2.3,Linux aarch64,59.90534955,,,,,,,,,,0.8826,0,,,,,,,,,,,,,,,,,,,,,,,0.3359375,-0.29160881,1,0,0,,,,,,,CRATER,C,z,m,./images/CRATER.png,,,,,,,,,,,,,,,,,,,,,0,0.3359375,-0.29160881,1,0,0,0.8826,button_right_test,0,20,20,87,1
,,,,,,,,,,,,,,,,,60ebc02f8a63cb2f69fa3ae1,43,2022-02-12_16h53.52.659,lexical_decision_task_DD,2021.2.3,Linux aarch64,59.90534955,,,,,,,,,,0.9016,1,,,,,,,,,,,,,,,,,,,,,,,0.3359375,-0.293236415,1,0,0,,,,,,,CRUST,HB,m,m,./images/CRUSTHB.png,,,,,,,,,,,,,,,,,,,,,0,0.3359375,-0.293236415,1,0,0,0.9016,button_right_test,0,21,21,79,1
,,,,,,,,,,,,,,,,,60ebc02f8a63cb2f69fa3ae1,43,2022-02-12_16h53.52.659,lexical_decision_task_DD,2021.2.3,Linux aarch64,59.90534955,,,,,,,,,,0.8597,1,,,,,,,,,,,,,,,,,,,,,,,0.366943359,-0.285098394,1,0,0,,,,,,,TOMATO,C,m,m,./images/TOMATO.png,,,,,,,,,,,,,,,,,,,,,0,0.366943359,-0.285098394,1,0,0,0.8597,button_right_test,0,22,22,0,1
,,,,,,,,,,,,,,,,,60ebc02f8a63cb2f69fa3ae1,43,2022-02-12_16h53.52.659,lexical_decision_task_DD,2021.2.3,Linux aarch64,59.90534955,,,,,,,,,,1.7491,1,,,,,,,,,,,,,,,,,,,,,,,-0.404541016,-0.298661788,1,0,0,,,,,,,SAUCE,C,z,m,./images/SAUCE.png,,,,,,,,,,,,,,,,,,,,,0,-0.404541016,-0.298661788,1,0,0,1.7491,button_left_test,0,23,23,135,1
,,,,,,,,,,,,,,,,,60ebc02f8a63cb2f69fa3ae1,43,2022-02-12_16h53.52.659,lexical_decision_task_DD,2021.2.3,Linux aarch64,59.90534955,,,,,,,,,,1.0598,1,,,,,,,,,,,,,,,,,,,,,,,0.356201172,-0.301916997,1,0,0,,,,,,,JELLY,HB,m,m,./images/JELLYHB.png,,,,,,,,,,,,,,,,,,,,,0,0.356201172,-0.301916997,1,0,0,1.0598,button_right_test,0,24,24,64,1
,,,,,,,,,,,,,,,,,60ebc02f8a63cb2f69fa3ae1,43,2022-02-12_16h53.52.659,lexical_decision_task_DD,2021.2.3,Linux aarch64,59.90534955,,,,,,,,,,1.3961,0,,,,,,,,,,,,,,,,,,,,,,,-0.341064453,-0.282385747,1,0,0,,,,,,,PIMPLE,LB,m,m,./images/PIMPLELB.png,,,,,,,,,,,,,,,,,,,,,0,-0.341064453,-0.282385747,1,0,0,1.3961,button_left_test,0,25,25,71,1
,,,,,,,,,,,,,,,,,60ebc02f8a63cb2f69fa3ae1,43,2022-02-12_16h53.52.659,lexical_decision_task_DD,2021.2.3,Linux aarch64,59.90534955,,,,,,,,,,0.9418,1,,,,,,,,,,,,,,,,,,,,,,,0.347412109,-0.294864019,1,0,0,,,,,,,SHELF,C,m,m,./images/SHELF.png,,,,,,,,,,,,,,,,,,,,,0,0.347412109,-0.294864019,1,0,0,0.9418,button_right_test,0,26,26,39,1
,,,,,,,,,,,,,,,,,60ebc02f8a63cb2f69fa3ae1,43,2022-02-12_16h53.52.659,lexical_decision_task_DD,2021.2.3,Linux aarch64,59.90534955,,,,,,,,,,0.9509,0,,,,,,,,,,,,,,,,,,,,,,,-0.307861328,-0.266109705,1,0,0,,,,,,,PEACH,LB,m,m,./images/PEACHLB.png,,,,,,,,,,,,,,,,,,,,,0,-0.307861328,-0.266109705,1,0,0,0.9509,button_left_test,0,27,27,35,1
,,,,,,,,,,,,,,,,,60ebc02f8a63cb2f69fa3ae1,43,2022-02-12_16h53.52.659,lexical_decision_task_DD,2021.2.3,Linux aarch64,59.90534955,,,,,,,,,,0.6986,1,,,,,,,,,,,,,,,,,,,,,,,0.321777344,-0.304629644,1,0,0,,,,,,,FOLDER,C,m,m,./images/FOLDER.png,,,,,,,,,,,,,,,,,,,,,0,0.321777344,-0.304629644,1,0,0,0.6986,button_right_test,0,28,28,42,1
,,,,,,,,,,,,,,,,,60ebc02f8a63cb2f69fa3ae1,43,2022-02-12_16h53.52.659,lexical_decision_task_DD,2021.2.3,Linux aarch64,59.90534955,,,,,,,,,,0.8493,1,,,,,,,,,,,,,,,,,,,,,,,-0.410400391,-0.267194748,1,0,0,,,,,,,WHISKY,LB,z,m,./images/WHISKYLB.png,,,,,,,,,,,,,,,,,,,,,0,-0.410400391,-0.267194748,1,0,0,0.8493,button_left_test,0,29,29,167,1
,,,,,,,,,,,,,,,,,60ebc02f8a63cb2f69fa3ae1,43,2022-02-12_16h53.52.659,lexical_decision_task_DD,2021.2.3,Linux aarch64,59.90534955,,,,,,,,,,0.8295,0,,,,,,,,,,,,,,,,,,,,,,,0.337890625,-0.31493783,1,0,0,,,,,,,BASKET,LB,z,m,./images/BASKETLB.png,,,,,,,,,,,,,,,,,,,,,0,0.337890625,-0.31493783,1,0,0,0.8295,button_right_test,0,30,30,128,1
,,,,,,,,,,,,,,,,,60ebc02f8a63cb2f69fa3ae1,43,2022-02-12_16h53.52.659,lexical_decision_task_DD,2021.2.3,Linux aarch64,59.90534955,,,,,,,,,,1.5524,1,,,,,,,,,,,,,,,,,,,,,,,-0.32421875,-0.261769533,1,0,0,,,,,,,RAZOR,HB,z,m,./images/RAZORHB.png,,,,,,,,,,,,,,,,,,,,,0,-0.32421875,-0.261769533,1,0,0,1.5524,button_left_test,0,31,31,118,1
,,,,,,,,,,,,,,,,,60ebc02f8a63cb2f69fa3ae1,43,2022-02-12_16h53.52.659,lexical_decision_task_DD,2021.2.3,Linux aarch64,59.90534955,,,,,,,,,,1.0236,0,,,,,,,,,,,,,,,,,,,,,,,0.349853516,-0.266652346,1,0,0,,,,,,,DIVER,C,z,m,./images/DIVER.png,,,,,,,,,,,,,,,,,,,,,0,0.349853516,-0.266652346,1,0,0,1.0236,button_right_test,0,32,32,93,1
,,,,,,,,,,,,,,,,,60ebc02f8a63cb2f69fa3ae1,43,2022-02-12_16h53.52.659,lexical_decision_task_DD,2021.2.3,Linux aarch64,59.90534955,,,,,,,,,,0.3279,0,,,,,,,,,,,,,,,,,,,,,,,0.340087891,-0.289438804,1,0,0,,,,,,,HOCKEY,LB,z,m,./images/HOCKEYLB.png,,,,,,,,,,,,,,,,,,,,,0,0.340087891,-0.289438804,1,0,0,0.3279,button_right_test,0,33,33,116,1
,,,,,,,,,,,,,,,,,60ebc02f8a63cb2f69fa3ae1,43,2022-02-12_16h53.52.659,lexical_decision_task_DD,2021.2.3,Linux aarch64,59.90534955,,,,,,,,,,0.3818,0,,,,,,,,,,,,,,,,,,,,,,,0.300048828,-0.316022873,1,0,0,,,,,,,COLLAR,C,z,m,./images/COLLAR.png,,,,,,,,,,,,,,,,,,,,,0,0.300048828,-0.316022873,1,0,0,0.3818,button_right_test,0,34,34,99,1
,,,,,,,,,,,,,,,,,60ebc02f8a63cb2f69fa3ae1,43,2022-02-12_16h53.52.659,lexical_decision_task_DD,2021.2.3,Linux aarch64,59.90534955,,,,,,,,,,0.3439,0,,,,,,,,,,,,,,,,,,,,,,,0.283447266,-0.323618491,1,0,0,,,,,,,BAMBOO,LB,z,m,./images/BAMBOOLB.png,,,,,,,,,,,,,,,,,,,,,0,0.283447266,-0.323618491,1,0,0,0.3439,button_right_test,0,35,35,89,1
,,,,,,,,,,,,,,,,,60ebc02f8a63cb2f69fa3ae1,43,2022-02-12_16h53.52.659,lexical_decision_task_DD,2021.2.3,Linux aarch64,59.90534955,,,,,,,,,,0.3039,0,,,,,,,,,,,,,,,,,,,,,,,0.275878906,-0.318735679,1,0,0,,,,,,,GRAPE,HB,z,m,./images/GRAPEHB.png,,,,,,,,,,,,,,,,,,,,,0,0.275878906,-0.318735679,1,0,0,0.3039,button_right_test,0,36,36,100,1
,,,,,,,,,,,,,,,,,60ebc02f8a63cb2f69fa3ae1,43,2022-02-12_16h53.52.659,lexical_decision_task_DD,2021.2.3,Linux aarch64,59.90534955,,,,,,,,,,0.2966,1,,,,,,,,,,,,,,,,,,,,,,,0.306396484,-0.275332769,1,0,0,,,,,,,BARREL,LB,m,m,./images/BARRELLB.png,,,,,,,,,,,,,,,,,,,,,0,0.306396484,-0.275332769,1,0,0,0.2966,button_right_test,0,37,37,32,1
,,,,,,,,,,,,,,,,,60ebc02f8a63cb2f69fa3ae1,43,2022-02-12_16h53.52.659,lexical_decision_task_DD,2021.2.3,Linux aarch64,59.90534955,,,,,,,,,,0.3588,0,,,,,,,,,,,,,,,,,,,,,,,0.314697266,-0.293236415,1,0,0,,,,,,,CLIFF,LB,z,m,./images/CLIFFLB.png,,,,,,,,,,,,,,,,,,,,,0,0.314697266,-0.293236415,1,0,0,0.3588,button_right_test,0,38,38,92,1
,,,,,,,,,,,,,,,,,60ebc02f8a63cb2f69fa3ae1,43,2022-02-12_16h53.52.659,lexical_decision_task_DD,2021.2.3,Linux aarch64,59.90534955,,,,,,,,,,1.0768,0,,,,,,,,,,,,,,,,,,,,,,,0.314941406,-0.310597658,1,0,0,,,,,,,DONKEY,HB,z,m,./images/DONKEYHB.png,,,,,,,,,,,,,,,,,,,,,0,0.314941406,-0.310597658,1,0,0,1.0768,button_right_test,0,39,39,103,1
,,,,,,,,,,,,,,,,,60ebc02f8a63cb2f69fa3ae1,43,2022-02-12_16h53.52.659,lexical_decision_task_DD,2021.2.3,Linux aarch64,59.90534955,,,,,,,,,,0.545,1,,,,,,,,,,,,,,,,,,,,,,,-0.368164063,-0.269907554,1,0,0,,,,,,,ALLEY,HB,z,m,./images/ALLEYHB.png,,,,,,,,,,,,,,,,,,,,,0,-0.368164063,-0.269907554,1,0,0,0.545,button_left_test,0,40,40,139,1
,,,,,,,,,,,,,,,,,60ebc02f8a63cb2f69fa3ae1,43,2022-02-12_16h53.52.659,lexical_decision_task_DD,2021.2.3,Linux aarch64,59.90534955,,,,,,,,,,0.431,1,,,,,,,,,,,,,,,,,,,,,,,-0.127685547,-0.388722738,1,0,0,,,,,,,PACKET,LB,m,m,./images/PACKETLB.png,break_done_button,,,,,,,,,,,,,,,,,,,,0,0.312988281,-0.2878112,1,0,0,0.431,button_right_test,0,41,41,56,1
,,,,,,,,,,,,,,,,,60ebc02f8a63cb2f69fa3ae1,43,2022-02-12_16h53.52.659,lexical_decision_task_DD,2021.2.3,Linux aarch64,59.90534955,,,,,,,,,,0.5077,0,,,,,,,,,,,,,,,,,,,,,,,0.310546875,-0.338809331,1,0,0,,,,,,,CLOUD,LB,z,m,./images/CLOUDLB.png,,,,,,,,,,,,,,,,,,,,,0,0.310546875,-0.338809331,1,0,0,0.5077,button_right_test,0,42,42,110,1
,,,,,,,,,,,,,,,,,60ebc02f8a63cb2f69fa3ae1,43,2022-02-12_16h53.52.659,lexical_decision_task_DD,2021.2.3,Linux aarch64,59.90534955,,,,,,,,,,0.2947,1,,,,,,,,,,,,,,,,,,,,,,,-0.380126953,-0.285098394,1,0,0,,,,,,,CANDY,C,z,m,./images/CANDY.png,,,,,,,,,,,,,,,,,,,,,0,-0.380126953,-0.285098394,1,0,0,0.2947,button_left_test,0,43,43,123,1
,,,,,,,,,,,,,,,,,60ebc02f8a63cb2f69fa3ae1,43,2022-02-12_16h53.52.659,lexical_decision_task_DD,2021.2.3,Linux aarch64,59.90534955,,,,,,,,,,0.3287,1,,,,,,,,,,,,,,,,,,,,,,,0.328125,-0.324703455,1,0,0,,,,,,,MOTOR,HB,m,m,./images/MOTORHB.png,,,,,,,,,,,,,,,,,,,,,0,0.328125,-0.324703455,1,0,0,0.3287,button_right_test,0,44,44,13,1
,,,,,,,,,,,,,,,,,60ebc02f8a63cb2f69fa3ae1,43,2022-02-12_16h53.52.659,lexical_decision_task_DD,2021.2.3,Linux aarch64,59.90534955,,,,,,,,,,0.3461,1,,,,,,,,,,,,,,,,,,,,,,,-0.364746094,-0.268822352,1,0,0,,,,,,,ARTIST,HB,z,m,./images/ARTISTHB.png,,,,,,,,,,,,,,,,,,,,,0,-0.364746094,-0.268822352,1,0,0,0.3461,button_left_test,0,45,45,145,1
,,,,,,,,,,,,,,,,,60ebc02f8a63cb2f69fa3ae1,43,2022-02-12_16h53.52.659,lexical_decision_task_DD,2021.2.3,Linux aarch64,59.90534955,,,,,,,,,,0.2976,0,,,,,,,,,,,,,,,,,,,,,,,0.274169922,-0.312767665,1,0,0,,,,,,,STEAK,HB,z,m,./images/STEAKHB.png,,,,,,,,,,,,,,,,,,,,,0,0.274169922,-0.312767665,1,0,0,0.2976,button_right_test,0,46,46,115,1
,,,,,,,,,,,,,,,,,60ebc02f8a63cb2f69fa3ae1,43,2022-02-12_16h53.52.659,lexical_decision_task_DD,2021.2.3,Linux aarch64,59.90534955,,,,,,,,,,0.3052,1,,,,,,,,,,,,,,,,,,,,,,,-0.381347656,-0.288353602,1,0,0,,,,,,,TIGER,HB,z,m,./images/TIGERHB.png,,,,,,,,,,,,,,,,,,,,,0,-0.381347656,-0.288353602,1,0,0,0.3052,button_left_test,0,47,47,121,1
,,,,,,,,,,,,,,,,,60ebc02f8a63cb2f69fa3ae1,43,2022-02-12_16h53.52.659,lexical_decision_task_DD,2021.2.3,Linux aarch64,59.90534955,,,,,,,,,,0.3805,1,,,,,,,,,,,,,,,,,,,,,,,-0.39453125,-0.286183596,1,0,0,,,,,,,BLOKE,C,z,m,./images/BLOKE.png,,,,,,,,,,,,,,,,,,,,,0,-0.39453125,-0.286183596,1,0,0,0.3805,button_left_test,0,48,48,96,1
,,,,,,,,,,,,,,,,,60ebc02f8a63cb2f69fa3ae1,43,2022-02-12_16h53.52.659,lexical_decision_task_DD,2021.2.3,Linux aarch64,59.90534955,,,,,,,,,,0.8067,0,,,,,,,,,,,,,,,,,,,,,,,0.329345703,-0.301374435,1,0,0,,,,,,,CHERRY,C,z,m,./images/CHERRY.png,,,,,,,,,,,,,,,,,,,,,0,0.329345703,-0.301374435,1,0,0,0.8067,button_right_test,0,49,49,138,1
,,,,,,,,,,,,,,,,,60ebc02f8a63cb2f69fa3ae1,43,2022-02-12_16h53.52.659,lexical_decision_task_DD,2021.2.3,Linux aarch64,59.90534955,,,,,,,,,,0.6421,1,,,,,,,,,,,,,,,,,,,,,,,-0.380615234,-0.242780685,1,0,0,,,,,,,BAKER,C,z,m,./images/BAKER.png,,,,,,,,,,,,,,,,,,,,,0,-0.380615234,-0.242780685,1,0,0,0.6421,button_left_test,0,50,50,147,1
,,,,,,,,,,,,,,,,,60ebc02f8a63cb2f69fa3ae1,43,2022-02-12_16h53.52.659,lexical_decision_task_DD,2021.2.3,Linux aarch64,59.90534955,,,,,,,,,,1.0639,1,,,,,,,,,,,,,,,,,,,,,,,0.387451172,-0.300832033,1,0,0,,,,,,,SCREW,C,m,m,./images/SCREW.png,,,,,,,,,,,,,,,,,,,,,0,0.387451172,-0.300832033,1,0,0,1.0639,button_right_test,0,51,51,24,1
,,,,,,,,,,,,,,,,,60ebc02f8a63cb2f69fa3ae1,43,2022-02-12_16h53.52.659,lexical_decision_task_DD,2021.2.3,Linux aarch64,59.90534955,,,,,,,,,,0.9152,0,,,,,,,,,,,,,,,,,,,,,,,0.367675781,-0.273162762,1,0,0,,,,,,,STOOL,HB,z,m,./images/STOOLHB.png,,,,,,,,,,,,,,,,,,,,,0,0.367675781,-0.273162762,1,0,0,0.9152,button_right_test,0,52,52,127,1
,,,,,,,,,,,,,,,,,60ebc02f8a63cb2f69fa3ae1,43,2022-02-12_16h53.52.659,lexical_decision_task_DD,2021.2.3,Linux aarch64,59.90534955,,,,,,,,,,0.6311,0,,,,,,,,,,,,,,,,,,,,,,,-0.374755859,-0.249833663,1,0,0,,,,,,,KIDNEY,C,m,m,./images/KIDNEY.png,,,,,,,,,,,,,,,,,,,,,0,-0.374755859,-0.249833663,1,0,0,0.6311,button_left_test,0,53,53,21,1
,,,,,,,,,,,,,,,,,60ebc02f8a63cb2f69fa3ae1,43,2022-02-12_16h53.52.659,lexical_decision_task_DD,2021.2.3,Linux aarch64,59.90534955,,,,,,,,,,0.9488,1,,,,,,,,,,,,,,,,,,,,,,,0.345947266,-0.309512456,1,0,0,,,,,,,FALCON,HB,m,m,./images/FALCONHB.png,,,,,,,,,,,,,,,,,,,,,0,0.345947266,-0.309512456,1,0,0,0.9488,button_right_test,0,54,54,28,1
,,,,,,,,,,,,,,,,,60ebc02f8a63cb2f69fa3ae1,43,2022-02-12_16h53.52.659,lexical_decision_task_DD,2021.2.3,Linux aarch64,59.90534955,,,,,,,,,,0.6505,0,,,,,,,,,,,,,,,,,,,,,,,0.356933594,-0.320363283,1,0,0,,,,,,,PARADE,LB,z,m,./images/PARADELB.png,,,,,,,,,,,,,,,,,,,,,0,0.356933594,-0.320363283,1,0,0,0.6505,button_right_test,0,55,55,101,1
,,,,,,,,,,,,,,,,,60ebc02f8a63cb2f69fa3ae1,43,2022-02-12_16h53.52.659,lexical_decision_task_DD,2021.2.3,Linux aarch64,59.90534955,,,,,,,,,,0.7428,1,,,,,,,,,,,,,,,,,,,,,,,-0.358154297,-0.288896163,1,0,0,,,,,,,GARDEN,HB,z,m,./images/GARDENHB.png,,,,,,,,,,,,,,,,,,,,,0,-0.358154297,-0.288896163,1,0,0,0.7428,button_left_test,0,56,56,94,1
,,,,,,,,,,,,,,,,,60ebc02f8a63cb2f69fa3ae1,43,2022-02-12_16h53.52.659,lexical_decision_task_DD,2021.2.3,Linux aarch64,59.90534955,,,,,,,,,,0.5464,0,,,,,,,,,,,,,,,,,,,,,,,0.356933594,-0.286725998,1,0,0,,,,,,,WHEEL,LB,z,m,./images/WHEELLB.png,,,,,,,,,,,,,,,,,,,,,0,0.356933594,-0.286725998,1,0,0,0.5464,button_right_test,0,57,57,161,1
,,,,,,,,,,,,,,,,,60ebc02f8a63cb2f69fa3ae1,43,2022-02-12_16h53.52.659,lexical_decision_task_DD,2021.2.3,Linux aarch64,59.90534955,,,,,,,,,,0.3284,0,,,,,,,,,,,,,,,,,,,,,,,-0.358154297,-0.308427413,1,0,0,,,,,,,PLANK,HB,m,m,./images/PLANKHB.png,,,,,,,,,,,,,,,,,,,,,0,-0.358154297,-0.308427413,1,0,0,0.3284,button_left_test,0,58,58,1,1
,,,,,,,,,,,,,,,,,60ebc02f8a63cb2f69fa3ae1,43,2022-02-12_16h53.52.659,lexical_decision_task_DD,2021.2.3,Linux aarch64,59.90534955,,,,,,,,,,0.3315,0,,,,,,,,,,,,,,,,,,,,,,,0.315429688,-0.288896163,1,0,0,,,,,,,STOVE,LB,z,m,./images/STOVELB.png,,,,,,,,,,,,,,,,,,,,,0,0.315429688,-0.288896163,1,0,0,0.3315,button_right_test,0,59,59,86,1
,,,,,,,,,,,,,,,,,60ebc02f8a63cb2f69fa3ae1,43,2022-02-12_16h53.52.659,lexical_decision_task_DD,2021.2.3,Linux aarch64,59.90534955,,,,,,,,,,0.2804,1,,,,,,,,,,,,,,,,,,,,,,,-0.384033203,-0.288353602,1,0,0,,,,,,,CLOWN,HB,z,m,./images/CLOWNHB.png,,,,,,,,,,,,,,,,,,,,,0,-0.384033203,-0.288353602,1,0,0,0.2804,button_left_test,0,60,60,106,1
,,,,,,,,,,,,,,,,,60ebc02f8a63cb2f69fa3ae1,43,2022-02-12_16h53.52.659,lexical_decision_task_DD,2021.2.3,Linux aarch64,59.90534955,,,,,,,,,,0.371,1,,,,,,,,,,,,,,,,,,,,,,,0.284912109,-0.284013351,1,0,0,,,,,,,BANNER,HB,m,m,./images/BANNERHB.png,,,,,,,,,,,,,,,,,,,,,0,0.284912109,-0.284013351,1,0,0,0.371,button_right_test,0,61,61,52,1
,,,,,,,,,,,,,,,,,60ebc02f8a63cb2f69fa3ae1,43,2022-02-12_16h53.52.659,lexical_decision_task_DD,2021.2.3,Linux aarch64,59.90534955,,,,,,,,,,0.3421,0,,,,,,,,,,,,,,,,,,,,,,,-0.357421875,-0.257971684,1,0,0,,,,,,,BONNET,LB,m,m,./images/BONNETLB.png,,,,,,,,,,,,,,,,,,,,,0,-0.357421875,-0.257971684,1,0,0,0.3421,button_left_test,0,62,62,11,1
,,,,,,,,,,,,,,,,,60ebc02f8a63cb2f69fa3ae1,43,2022-02-12_16h53.52.659,lexical_decision_task_DD,2021.2.3,Linux aarch64,59.90534955,,,,,,,,,,0.3955,1,,,,,,,,,,,,,,,,,,,,,,,0.316894531,-0.319278081,1,0,0,,,,,,,STRING,LB,m,m,./images/STRINGLB.png,,,,,,,,,,,,,,,,,,,,,0,0.316894531,-0.319278081,1,0,0,0.3955,button_right_test,0,63,63,41,1
,,,,,,,,,,,,,,,,,60ebc02f8a63cb2f69fa3ae1,43,2022-02-12_16h53.52.659,lexical_decision_task_DD,2021.2.3,Linux aarch64,59.90534955,,,,,,,,,,0.4279,0,,,,,,,,,,,,,,,,,,,,,,,0.299316406,-0.306799809,1,0,0,,,,,,,GLOVE,HB,z,m,./images/GLOVEHB.png,,,,,,,,,,,,,,,,,,,,,0,0.299316406,-0.306799809,1,0,0,0.4279,button_right_test,0,64,64,157,1
,,,,,,,,,,,,,,,,,60ebc02f8a63cb2f69fa3ae1,43,2022-02-12_16h53.52.659,lexical_decision_task_DD,2021.2.3,Linux aarch64,59.90534955,,,,,,,,,,0.4792,0,,,,,,,,,,,,,,,,,,,,,,,0.318847656,-0.300832033,1,0,0,,,,,,,SAUNA,C,z,m,./images/SAUNA.png,,,,,,,,,,,,,,,,,,,,,0,0.318847656,-0.300832033,1,0,0,0.4792,button_right_test,0,65,65,117,1
,,,,,,,,,,,,,,,,,60ebc02f8a63cb2f69fa3ae1,43,2022-02-12_16h53.52.659,lexical_decision_task_DD,2021.2.3,Linux aarch64,59.90534955,,,,,,,,,,1.3994,1,,,,,,,,,,,,,,,,,,,,,,,0.314941406,-0.330128829,1,0,0,,,,,,,SHORE,C,m,m,./images/SHORE.png,,,,,,,,,,,,,,,,,,,,,0,0.314941406,-0.330128829,1,0,0,1.3994,button_right_test,0,66,66,12,1
,,,,,,,,,,,,,,,,,60ebc02f8a63cb2f69fa3ae1,43,2022-02-12_16h53.52.659,lexical_decision_task_DD,2021.2.3,Linux aarch64,59.90534955,,,,,,,,,,0.4336,1,,,,,,,,,,,,,,,,,,,,,,,0.312744141,-0.275332769,1,0,0,,,,,,,SNACK,HB,m,m,./images/SNACKHB.png,,,,,,,,,,,,,,,,,,,,,0,0.312744141,-0.275332769,1,0,0,0.4336,button_right_test,0,67,67,73,1
,,,,,,,,,,,,,,,,,60ebc02f8a63cb2f69fa3ae1,43,2022-02-12_16h53.52.659,lexical_decision_task_DD,2021.2.3,Linux aarch64,59.90534955,,,,,,,,,,0.777,0,,,,,,,,,,,,,,,,,,,,,,,0.359375,-0.271535158,1,0,0,,,,,,,CANOE,HB,z,m,./images/CANOEHB.png,,,,,,,,,,,,,,,,,,,,,0,0.359375,-0.271535158,1,0,0,0.777,button_right_test,0,68,68,142,1
,,,,,,,,,,,,,,,,,60ebc02f8a63cb2f69fa3ae1,43,2022-02-12_16h53.52.659,lexical_decision_task_DD,2021.2.3,Linux aarch64,59.90534955,,,,,,,,,,0.7322,1,,,,,,,,,,,,,,,,,,,,,,,0.368408203,-0.269364913,1,0,0,,,,,,,SMOKER,LB,m,m,./images/SMOKERLB.png,,,,,,,,,,,,,,,,,,,,,0,0.368408203,-0.269364913,1,0,0,0.7322,button_right_test,0,69,69,26,1
,,,,,,,,,,,,,,,,,60ebc02f8a63cb2f69fa3ae1,43,2022-02-12_16h53.52.659,lexical_decision_task_DD,2021.2.3,Linux aarch64,59.90534955,,,,,,,,,,0.6098,0,,,,,,,,,,,,,,,,,,,,,,,0.37109375,-0.260684331,1,0,0,,,,,,,PEBBLE,HB,z,m,./images/PEBBLEHB.png,,,,,,,,,,,,,,,,,,,,,0,0.37109375,-0.260684331,1,0,0,0.6098,button_right_test,0,70,70,166,1
,,,,,,,,,,,,,,,,,60ebc02f8a63cb2f69fa3ae1,43,2022-02-12_16h53.52.659,lexical_decision_task_DD,2021.2.3,Linux aarch64,59.90534955,,,,,,,,,,2.0187,0,,,,,,,,,,,,,,,,,,,,,,,0.366455078,-0.235727866,1,0,0,,,,,,,PISTOL,LB,z,m,./images/PISTOLLB.png,,,,,,,,,,,,,,,,,,,,,0,0.366455078,-0.235727866,1,0,0,2.0187,button_right_test,0,71,71,113,1
,,,,,,,,,,,,,,,,,60ebc02f8a63cb2f69fa3ae1,43,2022-02-12_16h53.52.659,lexical_decision_task_DD,2021.2.3,Linux aarch64,59.90534955,,,,,,,,,,0.6623,0,,,,,,,,,,,,,,,,,,,,,,,0.359375,-0.326331059,1,0,0,,,,,,,FERRY,C,z,m,./images/FERRY.png,,,,,,,,,,,,,,,,,,,,,0,0.359375,-0.326331059,1,0,0,0.6623,button_right_test,0,72,72,141,1
,,,,,,,,,,,,,,,,,60ebc02f8a63cb2f69fa3ae1,43,2022-02-12_16h53.52.659,lexical_decision_task_DD,2021.2.3,Linux aarch64,59.90534955,,,,,,,,,,0.7626,1,,,,,,,,,,,,,,,,,,,,,,,0.361083984,-0.293778976,1,0,0,,,,,,,BEARD,LB,m,m,./images/BEARDLB.png,,,,,,,,,,,,,,,,,,,,,0,0.361083984,-0.293778976,1,0,0,0.7626,button_right_test,0,73,73,2,1
,,,,,,,,,,,,,,,,,60ebc02f8a63cb2f69fa3ae1,43,2022-02-12_16h53.52.659,lexical_decision_task_DD,2021.2.3,Linux aarch64,59.90534955,,,,,,,,,,0.4286,0,,,,,,,,,,,,,,,,,,,,,,,-0.353515625,-0.266109705,1,0,0,,,,,,,PENCE,HB,m,m,./images/PENCEHB.png,,,,,,,,,,,,,,,,,,,,,0,-0.353515625,-0.266109705,1,0,0,0.4286,button_left_test,0,74,74,16,1
,,,,,,,,,,,,,,,,,60ebc02f8a63cb2f69fa3ae1,43,2022-02-12_16h53.52.659,lexical_decision_task_DD,2021.2.3,Linux aarch64,59.90534955,,,,,,,,,,0.361,0,,,,,,,,,,,,,,,,,,,,,,,0.394042969,-0.284555991,1,0,0,,,,,,,ARROW,C,z,m,./images/ARROW.png,,,,,,,,,,,,,,,,,,,,,0,0.394042969,-0.284555991,1,0,0,0.361,button_right_test,0,75,75,153,1
,,,,,,,,,,,,,,,,,60ebc02f8a63cb2f69fa3ae1,43,2022-02-12_16h53.52.659,lexical_decision_task_DD,2021.2.3,Linux aarch64,59.90534955,,,,,,,,,,0.4749,1,,,,,,,,,,,,,,,,,,,,,,,-0.385253906,-0.291066408,1,0,0,,,,,,,MONKEY,C,z,m,./images/MONKEY.png,,,,,,,,,,,,,,,,,,,,,0,-0.385253906,-0.291066408,1,0,0,0.4749,button_left_test,0,76,76,129,1
,,,,,,,,,,,,,,,,,60ebc02f8a63cb2f69fa3ae1,43,2022-02-12_16h53.52.659,lexical_decision_task_DD,2021.2.3,Linux aarch64,59.90534955,,,,,,,,,,0.4932,1,,,,,,,,,,,,,,,,,,,,,,,0.397949219,-0.306257248,1,0,0,,,,,,,NOOSE,C,m,m,./images/NOOSE.png,,,,,,,,,,,,,,,,,,,,,0,0.397949219,-0.306257248,1,0,0,0.4932,button_right_test,0,77,77,72,1
,,,,,,,,,,,,,,,,,60ebc02f8a63cb2f69fa3ae1,43,2022-02-12_16h53.52.659,lexical_decision_task_DD,2021.2.3,Linux aarch64,59.90534955,,,,,,,,,,0.6115,0,,,,,,,,,,,,,,,,,,,,,,,0.385253906,-0.307884852,1,0,0,,,,,,,MEDAL,LB,z,m,./images/MEDALLB.png,,,,,,,,,,,,,,,,,,,,,0,0.385253906,-0.307884852,1,0,0,0.6115,button_right_test,0,78,78,95,1
,,,,,,,,,,,,,,,,,60ebc02f8a63cb2f69fa3ae1,43,2022-02-12_16h53.52.659,lexical_decision_task_DD,2021.2.3,Linux aarch64,59.90534955,,,,,,,,,,0.442,0,,,,,,,,,,,,,,,,,,,,,,,0.399169922,-0.323618491,1,0,0,,,,,,,FLESH,C,z,m,./images/FLESH.png,,,,,,,,,,,,,,,,,,,,,0,0.399169922,-0.323618491,1,0,0,0.442,button_right_test,0,79,79,108,1
,,,,,,,,,,,,,,,,,60ebc02f8a63cb2f69fa3ae1,43,2022-02-12_16h53.52.659,lexical_decision_task_DD,2021.2.3,Linux aarch64,59.90534955,,,,,,,,,,0.3809,0,,,,,,,,,,,,,,,,,,,,,,,-0.388916016,-0.308970054,1,0,0,,,,,,,COOKER,C,m,m,./images/COOKER.png,,,,,,,,,,,,,,,,,,,,,0,-0.388916016,-0.308970054,1,0,0,0.3809,button_left_test,0,80,80,69,1
,,,,,,,,,,,,,,,,,60ebc02f8a63cb2f69fa3ae1,43,2022-02-12_16h53.52.659,lexical_decision_task_DD,2021.2.3,Linux aarch64,59.90534955,,,,,,,,,,0.3076,1,,,,,,,,,,,,,,,,,,,,,,,0.392333984,-0.318735679,1,0,0,,,,,,,SUNSET,HB,m,m,./images/SUNSETHB.png,,,,,,,,,,,,,,,,,,,,,0,0.392333984,-0.318735679,1,0,0,0.3076,button_right_test,0,81,81,82,1
,,,,,,,,,,,,,,,,,60ebc02f8a63cb2f69fa3ae1,43,2022-02-12_16h53.52.659,lexical_decision_task_DD,2021.2.3,Linux aarch64,59.90534955,,,,,,,,,,0.3482,0,,,,,,,,,,,,,,,,,,,,,,,-0.388427734,-0.306799809,1,0,0,,,,,,,GREASE,C,m,m,./images/GREASE.png,,,,,,,,,,,,,,,,,,,,,0,-0.388427734,-0.306799809,1,0,0,0.3482,button_left_test,0,82,82,15,1
,,,,,,,,,,,,,,,,,60ebc02f8a63cb2f69fa3ae1,43,2022-02-12_16h53.52.659,lexical_decision_task_DD,2021.2.3,Linux aarch64,59.90534955,,,,,,,,,,0.3624,1,,,,,,,,,,,,,,,,,,,,,,,-0.078369141,-0.37732935,1,0,0,,,,,,,WEASEL,LB,m,m,./images/WEASELLB.png,break_done_button,,,,,,,,,,,,,,,,,,,,0,0.400390625,-0.349660079,1,0,0,0.3624,button_right_test,0,83,83,80,1
,,,,,,,,,,,,,,,,,60ebc02f8a63cb2f69fa3ae1,43,2022-02-12_16h53.52.659,lexical_decision_task_DD,2021.2.3,Linux aarch64,59.90534955,,,,,,,,,,0.4005,1,,,,,,,,,,,,,,,,,,,,,,,0.405029297,-0.292694012,1,0,0,,,,,,,PICKLE,LB,m,m,./images/PICKLELB.png,,,,,,,,,,,,,,,,,,,,,0,0.405029297,-0.292694012,1,0,0,0.4005,button_right_test,0,84,84,14,1
,,,,,,,,,,,,,,,,,60ebc02f8a63cb2f69fa3ae1,43,2022-02-12_16h53.52.659,lexical_decision_task_DD,2021.2.3,Linux aarch64,59.90534955,,,,,,,,,,0.6069,1,,,,,,,,,,,,,,,,,,,,,,,-0.383300781,-0.289981206,1,0,0,,,,,,,STREAM,LB,z,m,./images/STREAMLB.png,,,,,,,,,,,,,,,,,,,,,0,-0.383300781,-0.289981206,1,0,0,0.6069,button_left_test,0,85,85,125,1
,,,,,,,,,,,,,,,,,60ebc02f8a63cb2f69fa3ae1,43,2022-02-12_16h53.52.659,lexical_decision_task_DD,2021.2.3,Linux aarch64,59.90534955,,,,,,,,,,0.6185,0,,,,,,,,,,,,,,,,,,,,,,,0.430175781,-0.280758142,1,0,0,,,,,,,VALLEY,LB,z,m,./images/VALLEYLB.png,,,,,,,,,,,,,,,,,,,,,0,0.430175781,-0.280758142,1,0,0,0.6185,button_right_test,0,86,86,152,1
,,,,,,,,,,,,,,,,,60ebc02f8a63cb2f69fa3ae1,43,2022-02-12_16h53.52.659,lexical_decision_task_DD,2021.2.3,Linux aarch64,59.90534955,,,,,,,,,,0.4141,0,,,,,,,,,,,,,,,,,,,,,,,-0.364013672,-0.279673179,1,0,0,,,,,,,CANYON,HB,m,m,./images/CANYONHB.png,,,,,,,,,,,,,,,,,,,,,0,-0.364013672,-0.279673179,1,0,0,0.4141,button_left_test,0,87,87,34,1
,,,,,,,,,,,,,,,,,60ebc02f8a63cb2f69fa3ae1,43,2022-02-12_16h53.52.659,lexical_decision_task_DD,2021.2.3,Linux aarch64,59.90534955,,,,,,,,,,0.4095,1,,,,,,,,,,,,,,,,,,,,,,,0.422363281,-0.32253329,1,0,0,,,,,,,URINE,HB,m,m,./images/URINEHB.png,,,,,,,,,,,,,,,,,,,,,0,0.422363281,-0.32253329,1,0,0,0.4095,button_right_test,0,88,88,70,1
,,,,,,,,,,,,,,,,,60ebc02f8a63cb2f69fa3ae1,43,2022-02-12_16h53.52.659,lexical_decision_task_DD,2021.2.3,Linux aarch64,59.90534955,,,,,,,,,,0.3966,1,,,,,,,,,,,,,,,,,,,,,,,0.411865234,-0.329043706,1,0,0,,,,,,,JAGUAR,C,m,m,./images/JAGUAR.png,,,,,,,,,,,,,,,,,,,,,0,0.411865234,-0.329043706,1,0,0,0.3966,button_right_test,0,89,89,18,1
,,,,,,,,,,,,,,,,,60ebc02f8a63cb2f69fa3ae1,43,2022-02-12_16h53.52.659,lexical_decision_task_DD,2021.2.3,Linux aarch64,59.90534955,,,,,,,,,,0.4681,0,,,,,,,,,,,,,,,,,,,,,,,-0.373291016,-0.247121096,1,0,0,,,,,,,LADDER,LB,m,m,./images/LADDERLB.png,,,,,,,,,,,,,,,,,,,,,0,-0.373291016,-0.247121096,1,0,0,0.4681,button_left_test,0,90,90,38,1
