key_resp.keys,instr_done_touch.x,instr_done_touch.y,instr_done_touch.leftButton,instr_done_touch.midButton,instr_done_touch.rightButton,instr_done_touch.clicked_name,instruction_pages.thisRepN,instruction_pages.thisTrialN,instruction_pages.thisN,instruction_pages.thisIndex,instruction_pages.ran,pageN,phase,instruct_text,has_image,instruct_image,participant,age,date,expName,psychopyVersion,OS,frameRate,response.keys,response.corr,response.rt,touch_resp.x,touch_resp.y,touch_resp.leftButton,touch_resp.midButton,touch_resp.rightButton,touch_resp.time,touch_resp.clicked_name,rt,corr,practrials.thisRepN,practrials.thisTrialN,practrials.thisN,practrials.thisIndex,practrials.ran,TrialID,Target,corrAns,key_resp.rt,end_of_practice_trials_pages.thisRepN,end_of_practice_trials_pages.thisTrialN,end_of_practice_trials_pages.thisN,end_of_practice_trials_pages.thisIndex,end_of_practice_trials_pages.ran,key_resp_2.keys,key_resp_2.corr,key_resp_2.rt,targ_click.x,targ_click.y,targ_click.leftButton,targ_click.midButton,targ_click.rightButton,targ_click.time,targ_click.clicked_name,break_done_touch.x,break_done_touch.y,break_done_touch.leftButton,break_done_touch.midButton,break_done_touch.rightButton,break_done_keyboard.keys,maintrials.thisRepN,maintrials.thisTrialN,maintrials.thisN,maintrials.thisIndex,maintrials.ran,string,blur,study,lex,stim_path,break_done_keyboard.rt,break_done_touch.clicked_name,mouse_2.x,mouse_2.y,mouse_2.leftButton,mouse_2.midButton,mouse_2.rightButton,mouse_2.clicked_name,slider.response,slider.rt,trials.thisRepN,trials.thisTrialN,trials.thisN,trials.thisIndex,trials.ran,test_instructions.thisRepN,test_instructions.thisTrialN,test_instructions.thisN,test_instructions.thisIndex,test_instructions.ran,key_resp_3.keys,key_resp_3.corr,test_click.x,test_click.y,test_click.leftButton,test_click.midButton,test_click.rightButton,test_click.time,test_click.clicked_name,test_phase.thisRepN,test_phase.thisTrialN,test_phase.thisN,test_phase.thisIndex,test_phase.ran,key_resp_3.rt
,-0.013020833,-0.38671875,1,0,0,instr_done_button,0,0,0,0,1,1,instructions,"INSTRUCTIONS
At the start of each trial, look at the plus sign  (+) in the center of the screen.  This tells you that a trial is about to begin and where to look. Second, the plus sign will disappear and a string of letters will appear. Your task is to determine if the string of letters is a word or not. If the item is a word press the M key (on keyboard)  or touch the word button (phone/tablet).  If the item is not a word,  press the  Z key (on keyboard)  or touch the nonword button (on phone/tablet). 
Press the space bar or touch  continue.",0,,60ecba072cfc4af3b5f9a7e6,59,2022-02-12_13h30.08.532,lexical_decision_task_DD_L5,2021.2.3,Win32,60.51803437,,,,,,,,,,,,,,,,,,,,,,,,,,,,,,,,,,,,,,,,,,,,,,,,,,,,,,,,,,,,,,,,,,,,,,,,,,,,,,,,,,,,,,,
,-0.013020833,-0.38671875,1,0,0,instr_done_button,0,1,1,1,1,2,instructions,"If your device has a keyboard, press the 'Z' key for nonwords and the 'M' key for words.





Press the space bar or touch the button below to continue.",0,keyboard-example.gif,60ecba072cfc4af3b5f9a7e6,59,2022-02-12_13h30.08.532,lexical_decision_task_DD_L5,2021.2.3,Win32,60.51803437,,,,,,,,,,,,,,,,,,,,,,,,,,,,,,,,,,,,,,,,,,,,,,,,,,,,,,,,,,,,,,,,,,,,,,,,,,,,,,,,,,,,,,,
,-0.013020833,-0.38671875,1,0,0,instr_done_button,0,2,2,2,1,3,instructions,"If you are using a touchscreen only device, use the buttons on the screen. Do not use the mouse.





Press the space bar or touch the button below to continue.",0,touchscreen-example.gif,60ecba072cfc4af3b5f9a7e6,59,2022-02-12_13h30.08.532,lexical_decision_task_DD_L5,2021.2.3,Win32,60.51803437,,,,,,,,,,,,,,,,,,,,,,,,,,,,,,,,,,,,,,,,,,,,,,,,,,,,,,,,,,,,,,,,,,,,,,,,,,,,,,,,,,,,,,,
,-0.001302083,-0.412760417,1,0,0,instr_done_button,0,3,3,3,1,4,instructions,"It is very important that you respond as quickly and accurately as possible, as each letter string will only be on the screen for two seconds. If you do not respond within this time, the message 'Too slow!' will be displayed and the experiment will progress to the next letter string. The first 20 trials will be practice trials and you will receive feedback on your answers. 

Press the space bar or touch the button below to start the practice trials.",0,,60ecba072cfc4af3b5f9a7e6,59,2022-02-12_13h30.08.532,lexical_decision_task_DD_L5,2021.2.3,Win32,60.51803437,,,,,,,,,,,,,,,,,,,,,,,,,,,,,,,,,,,,,,,,,,,,,,,,,,,,,,,,,,,,,,,,,,,,,,,,,,,,,,,,,,,,,,,
,,,,,,,,,,,,,,,,,60ecba072cfc4af3b5f9a7e6,59,2022-02-12_13h30.08.532,lexical_decision_task_DD_L5,2021.2.3,Win32,60.51803437,m,1,0.9933,,,,,,,,0.9933,1,0,0,0,1,1,1001,ADJUST,m,,,,,,,,,,,,,,,,,,,,,,,,,,,,,,,,,,,,,,,,,,,,,,,,,,,,,,,,,,,,,,,,,,,
,,,,,,,,,,,,,,,,,60ecba072cfc4af3b5f9a7e6,59,2022-02-12_13h30.08.532,lexical_decision_task_DD_L5,2021.2.3,Win32,60.51803437,m,1,0.6341,,,,,,,,0.6341,1,0,1,1,4,1,1001,SQUEAK,m,,,,,,,,,,,,,,,,,,,,,,,,,,,,,,,,,,,,,,,,,,,,,,,,,,,,,,,,,,,,,,,,,,,
,,,,,,,,,,,,,,,,,60ecba072cfc4af3b5f9a7e6,59,2022-02-12_13h30.08.532,lexical_decision_task_DD_L5,2021.2.3,Win32,60.51803437,m,0,1.0915,,,,,,,,1.0915,0,0,2,2,11,1,1001,RASHET,z,,,,,,,,,,,,,,,,,,,,,,,,,,,,,,,,,,,,,,,,,,,,,,,,,,,,,,,,,,,,,,,,,,,
,,,,,,,,,,,,,,,,,60ecba072cfc4af3b5f9a7e6,59,2022-02-12_13h30.08.532,lexical_decision_task_DD_L5,2021.2.3,Win32,60.51803437,z,1,0.8912,,,,,,,,0.8912,1,0,3,3,15,1,1001,WHAISE,z,,,,,,,,,,,,,,,,,,,,,,,,,,,,,,,,,,,,,,,,,,,,,,,,,,,,,,,,,,,,,,,,,,,
,,,,,,,,,,,,,,,,,60ecba072cfc4af3b5f9a7e6,59,2022-02-12_13h30.08.532,lexical_decision_task_DD_L5,2021.2.3,Win32,60.51803437,z,1,0.9104,,,,,,,,0.9104,1,0,4,4,14,1,1001,THRALE,z,,,,,,,,,,,,,,,,,,,,,,,,,,,,,,,,,,,,,,,,,,,,,,,,,,,,,,,,,,,,,,,,,,,
,,,,,,,,,,,,,,,,,60ecba072cfc4af3b5f9a7e6,59,2022-02-12_13h30.08.532,lexical_decision_task_DD_L5,2021.2.3,Win32,60.51803437,m,1,0.738,,,,,,,,0.738,1,0,5,5,3,1,1001,MATRIX,m,,,,,,,,,,,,,,,,,,,,,,,,,,,,,,,,,,,,,,,,,,,,,,,,,,,,,,,,,,,,,,,,,,,
,,,,,,,,,,,,,,,,,60ecba072cfc4af3b5f9a7e6,59,2022-02-12_13h30.08.532,lexical_decision_task_DD_L5,2021.2.3,Win32,60.51803437,m,1,0.8499,,,,,,,,0.8499,1,0,6,6,6,1,1001,ZOMBIE,m,,,,,,,,,,,,,,,,,,,,,,,,,,,,,,,,,,,,,,,,,,,,,,,,,,,,,,,,,,,,,,,,,,,
,,,,,,,,,,,,,,,,,60ecba072cfc4af3b5f9a7e6,59,2022-02-12_13h30.08.532,lexical_decision_task_DD_L5,2021.2.3,Win32,60.51803437,z,1,0.7661,,,,,,,,0.7661,1,0,7,7,9,1,1001,FARINY,z,,,,,,,,,,,,,,,,,,,,,,,,,,,,,,,,,,,,,,,,,,,,,,,,,,,,,,,,,,,,,,,,,,,
,,,,,,,,,,,,,,,,,60ecba072cfc4af3b5f9a7e6,59,2022-02-12_13h30.08.532,lexical_decision_task_DD_L5,2021.2.3,Win32,60.51803437,z,1,1.066,,,,,,,,1.066,1,0,8,8,8,1,1001,ASLERT,z,,,,,,,,,,,,,,,,,,,,,,,,,,,,,,,,,,,,,,,,,,,,,,,,,,,,,,,,,,,,,,,,,,,
,,,,,,,,,,,,,,,,,60ecba072cfc4af3b5f9a7e6,59,2022-02-12_13h30.08.532,lexical_decision_task_DD_L5,2021.2.3,Win32,60.51803437,m,1,0.9045,,,,,,,,0.9045,1,0,9,9,5,1,1001,OBTAIN,m,,,,,,,,,,,,,,,,,,,,,,,,,,,,,,,,,,,,,,,,,,,,,,,,,,,,,,,,,,,,,,,,,,,
,,,,,,,,,,,,,,,,,60ecba072cfc4af3b5f9a7e6,59,2022-02-12_13h30.08.532,lexical_decision_task_DD_L5,2021.2.3,Win32,60.51803437,m,1,0.7524,,,,,,,,0.7524,1,0,10,10,2,1,1001,ALMOND,m,,,,,,,,,,,,,,,,,,,,,,,,,,,,,,,,,,,,,,,,,,,,,,,,,,,,,,,,,,,,,,,,,,,
,,,,,,,,,,,,,,,,,60ecba072cfc4af3b5f9a7e6,59,2022-02-12_13h30.08.532,lexical_decision_task_DD_L5,2021.2.3,Win32,60.51803437,z,1,0.821,,,,,,,,0.821,1,0,11,11,10,1,1001,INLADE,z,,,,,,,,,,,,,,,,,,,,,,,,,,,,,,,,,,,,,,,,,,,,,,,,,,,,,,,,,,,,,,,,,,,
,,,,,,,,,,,,,,,,,60ecba072cfc4af3b5f9a7e6,59,2022-02-12_13h30.08.532,lexical_decision_task_DD_L5,2021.2.3,Win32,60.51803437,m,1,0.6608,,,,,,,,0.6608,1,0,12,12,7,1,1001,VOLUME,m,,,,,,,,,,,,,,,,,,,,,,,,,,,,,,,,,,,,,,,,,,,,,,,,,,,,,,,,,,,,,,,,,,,
,,,,,,,,,,,,,,,,,60ecba072cfc4af3b5f9a7e6,59,2022-02-12_13h30.08.532,lexical_decision_task_DD_L5,2021.2.3,Win32,60.51803437,z,1,0.7663,,,,,,,,0.7663,1,0,13,13,12,1,1001,SPRINY,z,,,,,,,,,,,,,,,,,,,,,,,,,,,,,,,,,,,,,,,,,,,,,,,,,,,,,,,,,,,,,,,,,,,
,,,,,,,,,,,,,,,,,60ecba072cfc4af3b5f9a7e6,59,2022-02-12_13h30.08.532,lexical_decision_task_DD_L5,2021.2.3,Win32,60.51803437,m,1,0.6569,,,,,,,,0.6569,1,0,14,14,0,1,1001,UTOPIA,m,,,,,,,,,,,,,,,,,,,,,,,,,,,,,,,,,,,,,,,,,,,,,,,,,,,,,,,,,,,,,,,,,,,
,,,,,,,,,,,,,,,,,60ecba072cfc4af3b5f9a7e6,59,2022-02-12_13h30.08.532,lexical_decision_task_DD_L5,2021.2.3,Win32,60.51803437,z,1,0.9528,,,,,,,,0.9528,1,0,15,15,13,1,1001,ROUPET,z,,,,,,,,,,,,,,,,,,,,,,,,,,,,,,,,,,,,,,,,,,,,,,,,,,,,,,,,,,,,,,,,,,,
space,-0.067708333,-0.385416667,0,0,0,,,,,,,1,end_of_practice,"You have completed the practice trials. During the experimental trials, you will not receive feedback. 
Before you begin, please ensure that you are in a comfortable and quiet location and will not be disturbed for about 15 minutes, as we cannot use your data if you do not complete all the trials. 
 When you are ready to start the experimental trials, please press space or touch the button below.",,,60ecba072cfc4af3b5f9a7e6,59,2022-02-12_13h30.08.532,lexical_decision_task_DD_L5,2021.2.3,Win32,60.51803437,,,,,,,,,,,,,,,,,,,,,21.7486,0,0,0,0,1,,,,,,,,,,,,,,,,,,,,,,,,,,,,,,,,,,,,,,,,,,,,,,,,,,,,,,,,,,,,,
,,,,,,,,,,,,,,,,,60ecba072cfc4af3b5f9a7e6,59,2022-02-12_13h30.08.532,lexical_decision_task_DD_L5,2021.2.3,Win32,60.51803437,,,,,,,,,,,0.941,1,,,,,,,,,,,,,,,m,1,0.941,,,,,,,,-0.067708333,-0.385416667,0,0,0,,0,0,0,58,1,CANOE,LB,old,m,./images/CANOELB.png,,,,,,,,,,,,,,,,,,,,,,,,,,,,,,,,,,,
,,,,,,,,,,,,,,,,,60ecba072cfc4af3b5f9a7e6,59,2022-02-12_13h30.08.532,lexical_decision_task_DD_L5,2021.2.3,Win32,60.51803437,,,,,,,,,,,0.7411,1,,,,,,,,,,,,,,,m,1,0.7411,,,,,,,,-0.067708333,-0.385416667,0,0,0,,0,1,1,26,1,CLOUD,C,old,m,./images/CLOUD.png,,,,,,,,,,,,,,,,,,,,,,,,,,,,,,,,,,,
,,,,,,,,,,,,,,,,,60ecba072cfc4af3b5f9a7e6,59,2022-02-12_13h30.08.532,lexical_decision_task_DD_L5,2021.2.3,Win32,60.51803437,,,,,,,,,,,1.4943,1,,,,,,,,,,,,,,,m,1,1.4943,,,,,,,,-0.067708333,-0.385416667,0,0,0,,0,2,2,75,1,HAMMER,HB,old,m,./images/HAMMERHB.png,,,,,,,,,,,,,,,,,,,,,,,,,,,,,,,,,,,
,,,,,,,,,,,,,,,,,60ecba072cfc4af3b5f9a7e6,59,2022-02-12_13h30.08.532,lexical_decision_task_DD_L5,2021.2.3,Win32,60.51803437,,,,,,,,,,,0.9704,1,,,,,,,,,,,,,,,z,1,0.9704,,,,,,,,-0.067708333,-0.385416667,0,0,0,,0,3,3,114,1,RIKES,C,old,z,./images/RIKES.png,,,,,,,,,,,,,,,,,,,,,,,,,,,,,,,,,,,
,,,,,,,,,,,,,,,,,60ecba072cfc4af3b5f9a7e6,59,2022-02-12_13h30.08.532,lexical_decision_task_DD_L5,2021.2.3,Win32,60.51803437,,,,,,,,,,,1.2442,1,,,,,,,,,,,,,,,m,1,1.2442,,,,,,,,-0.067708333,-0.385416667,0,0,0,,0,4,4,63,1,BAKER,HB,old,m,./images/BAKERHB.png,,,,,,,,,,,,,,,,,,,,,,,,,,,,,,,,,,,
,,,,,,,,,,,,,,,,,60ecba072cfc4af3b5f9a7e6,59,2022-02-12_13h30.08.532,lexical_decision_task_DD_L5,2021.2.3,Win32,60.51803437,,,,,,,,,,,1.3613,1,,,,,,,,,,,,,,,z,1,1.3613,,,,,,,,-0.067708333,-0.385416667,0,0,0,,0,5,5,94,1,BLANS,HB,old,z,./images/BLANSHB.png,,,,,,,,,,,,,,,,,,,,,,,,,,,,,,,,,,,
,,,,,,,,,,,,,,,,,60ecba072cfc4af3b5f9a7e6,59,2022-02-12_13h30.08.532,lexical_decision_task_DD_L5,2021.2.3,Win32,60.51803437,,,,,,,,,,,0.7509,1,,,,,,,,,,,,,,,m,1,0.7509,,,,,,,,-0.067708333,-0.385416667,0,0,0,,0,6,6,15,1,COLLAR,HB,old,m,./images/COLLARHB.png,,,,,,,,,,,,,,,,,,,,,,,,,,,,,,,,,,,
,,,,,,,,,,,,,,,,,60ecba072cfc4af3b5f9a7e6,59,2022-02-12_13h30.08.532,lexical_decision_task_DD_L5,2021.2.3,Win32,60.51803437,,,,,,,,,,,0.7776,1,,,,,,,,,,,,,,,m,1,0.7776,,,,,,,,-0.067708333,-0.385416667,0,0,0,,0,7,7,10,1,GARDEN,LB,old,m,./images/GARDENLB.png,,,,,,,,,,,,,,,,,,,,,,,,,,,,,,,,,,,
,,,,,,,,,,,,,,,,,60ecba072cfc4af3b5f9a7e6,59,2022-02-12_13h30.08.532,lexical_decision_task_DD_L5,2021.2.3,Win32,60.51803437,,,,,,,,,,,0.7357,1,,,,,,,,,,,,,,,m,1,0.7357,,,,,,,,-0.067708333,-0.385416667,0,0,0,,0,8,8,68,1,VALLEY,C,old,m,./images/VALLEY.png,,,,,,,,,,,,,,,,,,,,,,,,,,,,,,,,,,,
,,,,,,,,,,,,,,,,,60ecba072cfc4af3b5f9a7e6,59,2022-02-12_13h30.08.532,lexical_decision_task_DD_L5,2021.2.3,Win32,60.51803437,,,,,,,,,,,0.8786,1,,,,,,,,,,,,,,,z,1,0.8786,,,,,,,,-0.067708333,-0.385416667,0,0,0,,0,9,9,111,1,HOSSE,C,old,z,./images/HOSSE.png,,,,,,,,,,,,,,,,,,,,,,,,,,,,,,,,,,,
,,,,,,,,,,,,,,,,,60ecba072cfc4af3b5f9a7e6,59,2022-02-12_13h30.08.532,lexical_decision_task_DD_L5,2021.2.3,Win32,60.51803437,,,,,,,,,,,0.9645,1,,,,,,,,,,,,,,,m,1,0.9645,,,,,,,,-0.067708333,-0.385416667,0,0,0,,0,10,10,81,1,DRILL,HB,old,m,./images/DRILLHB.png,,,,,,,,,,,,,,,,,,,,,,,,,,,,,,,,,,,
,,,,,,,,,,,,,,,,,60ecba072cfc4af3b5f9a7e6,59,2022-02-12_13h30.08.532,lexical_decision_task_DD_L5,2021.2.3,Win32,60.51803437,,,,,,,,,,,1.036,1,,,,,,,,,,,,,,,z,1,1.036,,,,,,,,-0.067708333,-0.385416667,0,0,0,,0,11,11,113,1,LINEW,LB,old,z,./images/LINEWLB.png,,,,,,,,,,,,,,,,,,,,,,,,,,,,,,,,,,,
,,,,,,,,,,,,,,,,,60ecba072cfc4af3b5f9a7e6,59,2022-02-12_13h30.08.532,lexical_decision_task_DD_L5,2021.2.3,Win32,60.51803437,,,,,,,,,,,1.2405,1,,,,,,,,,,,,,,,z,1,1.2405,,,,,,,,-0.067708333,-0.385416667,0,0,0,,0,12,12,118,1,BAVEL,HB,old,z,./images/BAVELHB.png,,,,,,,,,,,,,,,,,,,,,,,,,,,,,,,,,,,
,,,,,,,,,,,,,,,,,60ecba072cfc4af3b5f9a7e6,59,2022-02-12_13h30.08.532,lexical_decision_task_DD_L5,2021.2.3,Win32,60.51803437,,,,,,,,,,,1.3466,1,,,,,,,,,,,,,,,z,1,1.3466,,,,,,,,-0.067708333,-0.385416667,0,0,0,,0,13,13,139,1,BLEAR,HB,old,z,./images/BLEARHB.png,,,,,,,,,,,,,,,,,,,,,,,,,,,,,,,,,,,
,,,,,,,,,,,,,,,,,60ecba072cfc4af3b5f9a7e6,59,2022-02-12_13h30.08.532,lexical_decision_task_DD_L5,2021.2.3,Win32,60.51803437,,,,,,,,,,,0.7664,1,,,,,,,,,,,,,,,m,1,0.7664,,,,,,,,-0.067708333,-0.385416667,0,0,0,,0,14,14,28,1,CASINO,LB,old,m,./images/CASINOLB.png,,,,,,,,,,,,,,,,,,,,,,,,,,,,,,,,,,,
,,,,,,,,,,,,,,,,,60ecba072cfc4af3b5f9a7e6,59,2022-02-12_13h30.08.532,lexical_decision_task_DD_L5,2021.2.3,Win32,60.51803437,,,,,,,,,,,0.9511,1,,,,,,,,,,,,,,,m,1,0.9511,,,,,,,,-0.067708333,-0.385416667,0,0,0,,0,15,15,30,1,SLOPE,HB,old,m,./images/SLOPEHB.png,,,,,,,,,,,,,,,,,,,,,,,,,,,,,,,,,,,
,,,,,,,,,,,,,,,,,60ecba072cfc4af3b5f9a7e6,59,2022-02-12_13h30.08.532,lexical_decision_task_DD_L5,2021.2.3,Win32,60.51803437,,,,,,,,,,,0.8134,1,,,,,,,,,,,,,,,m,1,0.8134,,,,,,,,-0.067708333,-0.385416667,0,0,0,,0,16,16,74,1,JUMPER,C,old,m,./images/JUMPER.png,,,,,,,,,,,,,,,,,,,,,,,,,,,,,,,,,,,
,,,,,,,,,,,,,,,,,60ecba072cfc4af3b5f9a7e6,59,2022-02-12_13h30.08.532,lexical_decision_task_DD_L5,2021.2.3,Win32,60.51803437,,,,,,,,,,,0.8294,1,,,,,,,,,,,,,,,z,1,0.8294,,,,,,,,-0.067708333,-0.385416667,0,0,0,,0,17,17,105,1,MOKER,C,old,z,./images/MOKER.png,,,,,,,,,,,,,,,,,,,,,,,,,,,,,,,,,,,
,,,,,,,,,,,,,,,,,60ecba072cfc4af3b5f9a7e6,59,2022-02-12_13h30.08.532,lexical_decision_task_DD_L5,2021.2.3,Win32,60.51803437,,,,,,,,,,,0.7029,1,,,,,,,,,,,,,,,m,1,0.7029,,,,,,,,-0.067708333,-0.385416667,0,0,0,,0,18,18,44,1,BASKET,C,old,m,./images/BASKET.png,,,,,,,,,,,,,,,,,,,,,,,,,,,,,,,,,,,
,,,,,,,,,,,,,,,,,60ecba072cfc4af3b5f9a7e6,59,2022-02-12_13h30.08.532,lexical_decision_task_DD_L5,2021.2.3,Win32,60.51803437,,,,,,,,,,,0.8957,1,,,,,,,,,,,,,,,z,1,0.8957,,,,,,,,-0.067708333,-0.385416667,0,0,0,,0,19,19,84,1,HAXES,C,old,z,./images/HAXES.png,,,,,,,,,,,,,,,,,,,,,,,,,,,,,,,,,,,
,,,,,,,,,,,,,,,,,60ecba072cfc4af3b5f9a7e6,59,2022-02-12_13h30.08.532,lexical_decision_task_DD_L5,2021.2.3,Win32,60.51803437,,,,,,,,,,,0.6453,1,,,,,,,,,,,,,,,m,1,0.6453,,,,,,,,-0.067708333,-0.385416667,0,0,0,,0,20,20,2,1,STOVE,C,old,m,./images/STOVE.png,,,,,,,,,,,,,,,,,,,,,,,,,,,,,,,,,,,
,,,,,,,,,,,,,,,,,60ecba072cfc4af3b5f9a7e6,59,2022-02-12_13h30.08.532,lexical_decision_task_DD_L5,2021.2.3,Win32,60.51803437,,,,,,,,,,,0.8102,1,,,,,,,,,,,,,,,z,1,0.8102,,,,,,,,-0.067708333,-0.385416667,0,0,0,,0,21,21,132,1,SCIFF,C,old,z,./images/SCIFF.png,,,,,,,,,,,,,,,,,,,,,,,,,,,,,,,,,,,
,,,,,,,,,,,,,,,,,60ecba072cfc4af3b5f9a7e6,59,2022-02-12_13h30.08.532,lexical_decision_task_DD_L5,2021.2.3,Win32,60.51803437,,,,,,,,,,,0.6864,1,,,,,,,,,,,,,,,m,1,0.6864,,,,,,,,-0.067708333,-0.385416667,0,0,0,,0,22,22,35,1,LLAMA,C,old,m,./images/LLAMA.png,,,,,,,,,,,,,,,,,,,,,,,,,,,,,,,,,,,
,,,,,,,,,,,,,,,,,60ecba072cfc4af3b5f9a7e6,59,2022-02-12_13h30.08.532,lexical_decision_task_DD_L5,2021.2.3,Win32,60.51803437,,,,,,,,,,,0.8858,1,,,,,,,,,,,,,,,m,1,0.8858,,,,,,,,-0.067708333,-0.385416667,0,0,0,,0,23,23,66,1,STATUE,HB,old,m,./images/STATUEHB.png,,,,,,,,,,,,,,,,,,,,,,,,,,,,,,,,,,,
,,,,,,,,,,,,,,,,,60ecba072cfc4af3b5f9a7e6,59,2022-02-12_13h30.08.532,lexical_decision_task_DD_L5,2021.2.3,Win32,60.51803437,,,,,,,,,,,0.9108,1,,,,,,,,,,,,,,,m,1,0.9108,,,,,,,,-0.067708333,-0.385416667,0,0,0,,0,24,24,18,1,PARCEL,HB,old,m,./images/PARCELHB.png,,,,,,,,,,,,,,,,,,,,,,,,,,,,,,,,,,,
,,,,,,,,,,,,,,,,,60ecba072cfc4af3b5f9a7e6,59,2022-02-12_13h30.08.532,lexical_decision_task_DD_L5,2021.2.3,Win32,60.51803437,,,,,,,,,,,1.2552,1,,,,,,,,,,,,,,,z,1,1.2552,,,,,,,,-0.067708333,-0.385416667,0,0,0,,0,25,25,112,1,MYING,HB,old,z,./images/MYINGHB.png,,,,,,,,,,,,,,,,,,,,,,,,,,,,,,,,,,,
,,,,,,,,,,,,,,,,,60ecba072cfc4af3b5f9a7e6,59,2022-02-12_13h30.08.532,lexical_decision_task_DD_L5,2021.2.3,Win32,60.51803437,,,,,,,,,,,1.3128,1,,,,,,,,,,,,,,,z,1,1.3128,,,,,,,,-0.067708333,-0.385416667,0,0,0,,0,26,26,127,1,NINDY,HB,old,z,./images/NINDYHB.png,,,,,,,,,,,,,,,,,,,,,,,,,,,,,,,,,,,
,,,,,,,,,,,,,,,,,60ecba072cfc4af3b5f9a7e6,59,2022-02-12_13h30.08.532,lexical_decision_task_DD_L5,2021.2.3,Win32,60.51803437,,,,,,,,,,,0.7608,1,,,,,,,,,,,,,,,m,1,0.7608,,,,,,,,-0.067708333,-0.385416667,0,0,0,,0,27,27,17,1,PARADE,C,old,m,./images/PARADE.png,,,,,,,,,,,,,,,,,,,,,,,,,,,,,,,,,,,
,,,,,,,,,,,,,,,,,60ecba072cfc4af3b5f9a7e6,59,2022-02-12_13h30.08.532,lexical_decision_task_DD_L5,2021.2.3,Win32,60.51803437,,,,,,,,,,,0.8141,1,,,,,,,,,,,,,,,z,1,0.8141,,,,,,,,-0.067708333,-0.385416667,0,0,0,,0,28,28,120,1,RINED,C,old,z,./images/RINED.png,,,,,,,,,,,,,,,,,,,,,,,,,,,,,,,,,,,
,,,,,,,,,,,,,,,,,60ecba072cfc4af3b5f9a7e6,59,2022-02-12_13h30.08.532,lexical_decision_task_DD_L5,2021.2.3,Win32,60.51803437,,,,,,,,,,,1.1787,1,,,,,,,,,,,,,,,z,1,1.1787,,,,,,,,-0.067708333,-0.385416667,0,0,0,,0,29,29,85,1,CHULK,HB,old,z,./images/CHULKHB.png,,,,,,,,,,,,,,,,,,,,,,,,,,,,,,,,,,,
,,,,,,,,,,,,,,,,,60ecba072cfc4af3b5f9a7e6,59,2022-02-12_13h30.08.532,lexical_decision_task_DD_L5,2021.2.3,Win32,60.51803437,,,,,,,,,,,0.6581,1,,,,,,,,,,,,,,,m,1,0.6581,,,,,,,,-0.067708333,-0.385416667,0,0,0,,0,30,30,8,1,CLIFF,C,old,m,./images/CLIFF.png,,,,,,,,,,,,,,,,,,,,,,,,,,,,,,,,,,,
,,,,,,,,,,,,,,,,,60ecba072cfc4af3b5f9a7e6,59,2022-02-12_13h30.08.532,lexical_decision_task_DD_L5,2021.2.3,Win32,60.51803437,,,,,,,,,,,0.5953,1,,,,,,,,,,,,,,,m,1,0.5953,,,,,,,,-0.067708333,-0.385416667,0,0,0,,0,31,31,5,1,BAMBOO,C,old,m,./images/BAMBOO.png,,,,,,,,,,,,,,,,,,,,,,,,,,,,,,,,,,,
,,,,,,,,,,,,,,,,,60ecba072cfc4af3b5f9a7e6,59,2022-02-12_13h30.08.532,lexical_decision_task_DD_L5,2021.2.3,Win32,60.51803437,,,,,,,,,,,0.6449,1,,,,,,,,,,,,,,,m,1,0.6449,,,,,,,,-0.067708333,-0.385416667,0,0,0,,0,32,32,37,1,TIGER,LB,old,m,./images/TIGERLB.png,,,,,,,,,,,,,,,,,,,,,,,,,,,,,,,,,,,
,,,,,,,,,,,,,,,,,60ecba072cfc4af3b5f9a7e6,59,2022-02-12_13h30.08.532,lexical_decision_task_DD_L5,2021.2.3,Win32,60.51803437,,,,,,,,,,,1.1779,1,,,,,,,,,,,,,,,z,1,1.1779,,,,,,,,-0.067708333,-0.385416667,0,0,0,,0,33,33,107,1,FASKS,LB,old,z,./images/FASKSLB.png,,,,,,,,,,,,,,,,,,,,,,,,,,,,,,,,,,,
,,,,,,,,,,,,,,,,,60ecba072cfc4af3b5f9a7e6,59,2022-02-12_13h30.08.532,lexical_decision_task_DD_L5,2021.2.3,Win32,60.51803437,,,,,,,,,,,1.295,0,,,,,,,,,,,,,,,m,0,1.295,,,,,,,,-0.067708333,-0.385416667,0,0,0,,0,34,34,157,1,INLER,HB,old,z,./images/INLERHB.png,,,,,,,,,,,,,,,,,,,,,,,,,,,,,,,,,,,
,,,,,,,,,,,,,,,,,60ecba072cfc4af3b5f9a7e6,59,2022-02-12_13h30.08.532,lexical_decision_task_DD_L5,2021.2.3,Win32,60.51803437,,,,,,,,,,,1.121,1,,,,,,,,,,,,,,,m,1,1.121,,,,,,,,-0.067708333,-0.385416667,0,0,0,,0,35,35,78,1,BROOM,HB,old,m,./images/BROOMHB.png,,,,,,,,,,,,,,,,,,,,,,,,,,,,,,,,,,,
,,,,,,,,,,,,,,,,,60ecba072cfc4af3b5f9a7e6,59,2022-02-12_13h30.08.532,lexical_decision_task_DD_L5,2021.2.3,Win32,60.51803437,,,,,,,,,,,0.8492,1,,,,,,,,,,,,,,,z,1,0.8492,,,,,,,,-0.067708333,-0.385416667,0,0,0,,0,36,36,167,1,ZONET,LB,old,z,./images/ZONETLB.png,,,,,,,,,,,,,,,,,,,,,,,,,,,,,,,,,,,
,,,,,,,,,,,,,,,,,60ecba072cfc4af3b5f9a7e6,59,2022-02-12_13h30.08.532,lexical_decision_task_DD_L5,2021.2.3,Win32,60.51803437,,,,,,,,,,,0.9114,1,,,,,,,,,,,,,,,m,1,0.9114,,,,,,,,-0.067708333,-0.385416667,0,0,0,,0,37,37,21,1,DANCER,HB,old,m,./images/DANCERHB.png,,,,,,,,,,,,,,,,,,,,,,,,,,,,,,,,,,,
,,,,,,,,,,,,,,,,,60ecba072cfc4af3b5f9a7e6,59,2022-02-12_13h30.08.532,lexical_decision_task_DD_L5,2021.2.3,Win32,60.51803437,,,,,,,,,,,1.4031,1,,,,,,,,,,,,,,,z,1,1.4031,,,,,,,,-0.067708333,-0.385416667,0,0,0,,0,38,38,109,1,BURGE,HB,old,z,./images/BURGEHB.png,,,,,,,,,,,,,,,,,,,,,,,,,,,,,,,,,,,
,,,,,,,,,,,,,,,,,60ecba072cfc4af3b5f9a7e6,59,2022-02-12_13h30.08.532,lexical_decision_task_DD_L5,2021.2.3,Win32,60.51803437,,,,,,,,,,,1.1048,1,,,,,,,,,,,,,,,z,1,1.1048,,,,,,,,-0.067708333,-0.385416667,0,0,0,,0,39,39,91,1,SHENS,HB,old,z,./images/SHENSHB.png,,,,,,,,,,,,,,,,,,,,,,,,,,,,,,,,,,,
,,,,,,,,,,,,,,,,,60ecba072cfc4af3b5f9a7e6,59,2022-02-12_13h30.08.532,lexical_decision_task_DD_L5,2021.2.3,Win32,60.51803437,,,,,,,,,,,0.6819,1,,,,,,,,,,,,,,,m,1,0.6819,,,,,,,,-0.067708333,-0.385416667,0,0,0,,0,40,40,4,1,BOXER,LB,old,m,./images/BOXERLB.png,,,,,,,,,,,,,,,,,,,,,,,,,,,,,,,,,,,
,,,,,,,,,,,,,,,,,60ecba072cfc4af3b5f9a7e6,59,2022-02-12_13h30.08.532,lexical_decision_task_DD_L5,2021.2.3,Win32,60.51803437,,,,,,,,,,,0.6162,1,,,,,,,,,,,,,,,m,1,0.6162,,,,,,,,-0.071614583,-0.385416667,0,0,0,space,0,41,41,31,1,STEAK,LB,old,m,./images/STEAKLB.png,8.3889,,,,,,,,,,,,,,,,,,,,,,,,,,,,,,,,,,
,,,,,,,,,,,,,,,,,60ecba072cfc4af3b5f9a7e6,59,2022-02-12_13h30.08.532,lexical_decision_task_DD_L5,2021.2.3,Win32,60.51803437,,,,,,,,,,,0.6101,1,,,,,,,,,,,,,,,m,1,0.6101,,,,,,,,-0.071614583,-0.385416667,0,0,0,,0,42,42,32,1,HOCKEY,C,old,m,./images/HOCKEY.png,,,,,,,,,,,,,,,,,,,,,,,,,,,,,,,,,,,
,,,,,,,,,,,,,,,,,60ecba072cfc4af3b5f9a7e6,59,2022-02-12_13h30.08.532,lexical_decision_task_DD_L5,2021.2.3,Win32,60.51803437,,,,,,,,,,,0.6283,1,,,,,,,,,,,,,,,m,1,0.6283,,,,,,,,-0.071614583,-0.385416667,0,0,0,,0,43,43,79,1,RULER,LB,old,m,./images/RULERLB.png,,,,,,,,,,,,,,,,,,,,,,,,,,,,,,,,,,,
,,,,,,,,,,,,,,,,,60ecba072cfc4af3b5f9a7e6,59,2022-02-12_13h30.08.532,lexical_decision_task_DD_L5,2021.2.3,Win32,60.51803437,,,,,,,,,,,0.9668,1,,,,,,,,,,,,,,,z,1,0.9668,,,,,,,,-0.071614583,-0.385416667,0,0,0,,0,44,44,88,1,GLUSH,HB,old,z,./images/GLUSHHB.png,,,,,,,,,,,,,,,,,,,,,,,,,,,,,,,,,,,
,,,,,,,,,,,,,,,,,60ecba072cfc4af3b5f9a7e6,59,2022-02-12_13h30.08.532,lexical_decision_task_DD_L5,2021.2.3,Win32,60.51803437,,,,,,,,,,,0.9432,1,,,,,,,,,,,,,,,m,1,0.9432,,,,,,,,-0.071614583,-0.385416667,0,0,0,,0,45,45,72,1,FLASK,HB,old,m,./images/FLASKHB.png,,,,,,,,,,,,,,,,,,,,,,,,,,,,,,,,,,,
,,,,,,,,,,,,,,,,,60ecba072cfc4af3b5f9a7e6,59,2022-02-12_13h30.08.532,lexical_decision_task_DD_L5,2021.2.3,Win32,60.51803437,,,,,,,,,,,0.7963,1,,,,,,,,,,,,,,,z,1,0.7963,,,,,,,,-0.071614583,-0.385416667,0,0,0,,0,46,46,98,1,BAMPS,LB,old,z,./images/BAMPSLB.png,,,,,,,,,,,,,,,,,,,,,,,,,,,,,,,,,,,
,,,,,,,,,,,,,,,,,60ecba072cfc4af3b5f9a7e6,59,2022-02-12_13h30.08.532,lexical_decision_task_DD_L5,2021.2.3,Win32,60.51803437,,,,,,,,,,,0.797,1,,,,,,,,,,,,,,,z,1,0.797,,,,,,,,-0.071614583,-0.385416667,0,0,0,,0,47,47,145,1,LAMEL,HB,old,z,./images/LAMELHB.png,,,,,,,,,,,,,,,,,,,,,,,,,,,,,,,,,,,
,,,,,,,,,,,,,,,,,60ecba072cfc4af3b5f9a7e6,59,2022-02-12_13h30.08.532,lexical_decision_task_DD_L5,2021.2.3,Win32,60.51803437,,,,,,,,,,,0.8936,1,,,,,,,,,,,,,,,z,1,0.8936,,,,,,,,-0.071614583,-0.385416667,0,0,0,,0,48,48,144,1,NAIRY,C,old,z,./images/NAIRY.png,,,,,,,,,,,,,,,,,,,,,,,,,,,,,,,,,,,
,,,,,,,,,,,,,,,,,60ecba072cfc4af3b5f9a7e6,59,2022-02-12_13h30.08.532,lexical_decision_task_DD_L5,2021.2.3,Win32,60.51803437,,,,,,,,,,,0.6594,1,,,,,,,,,,,,,,,m,1,0.6594,,,,,,,,-0.071614583,-0.385416667,0,0,0,,0,49,49,34,1,RAZOR,LB,old,m,./images/RAZORLB.png,,,,,,,,,,,,,,,,,,,,,,,,,,,,,,,,,,,
,,,,,,,,,,,,,,,,,60ecba072cfc4af3b5f9a7e6,59,2022-02-12_13h30.08.532,lexical_decision_task_DD_L5,2021.2.3,Win32,60.51803437,,,,,,,,,,,0.7732,1,,,,,,,,,,,,,,,z,1,0.7732,,,,,,,,-0.071614583,-0.385416667,0,0,0,,0,50,50,138,1,PLICE,C,old,z,./images/PLICE.png,,,,,,,,,,,,,,,,,,,,,,,,,,,,,,,,,,,
,,,,,,,,,,,,,,,,,60ecba072cfc4af3b5f9a7e6,59,2022-02-12_13h30.08.532,lexical_decision_task_DD_L5,2021.2.3,Win32,60.51803437,,,,,,,,,,,0.6241,1,,,,,,,,,,,,,,,m,1,0.6241,,,,,,,,-0.071614583,-0.385416667,0,0,0,,0,51,51,14,1,FENCE,C,old,m,./images/FENCE.png,,,,,,,,,,,,,,,,,,,,,,,,,,,,,,,,,,,
,,,,,,,,,,,,,,,,,60ecba072cfc4af3b5f9a7e6,59,2022-02-12_13h30.08.532,lexical_decision_task_DD_L5,2021.2.3,Win32,60.51803437,,,,,,,,,,,1.0175,1,,,,,,,,,,,,,,,z,1,1.0175,,,,,,,,-0.071614583,-0.385416667,0,0,0,,0,52,52,117,1,STEEG,C,old,z,./images/STEEG.png,,,,,,,,,,,,,,,,,,,,,,,,,,,,,,,,,,,
,,,,,,,,,,,,,,,,,60ecba072cfc4af3b5f9a7e6,59,2022-02-12_13h30.08.532,lexical_decision_task_DD_L5,2021.2.3,Win32,60.51803437,,,,,,,,,,,0.9931,1,,,,,,,,,,,,,,,z,1,0.9931,,,,,,,,-0.071614583,-0.385416667,0,0,0,,0,53,53,123,1,SEDGE,C,old,z,./images/SEDGE.png,,,,,,,,,,,,,,,,,,,,,,,,,,,,,,,,,,,
,,,,,,,,,,,,,,,,,60ecba072cfc4af3b5f9a7e6,59,2022-02-12_13h30.08.532,lexical_decision_task_DD_L5,2021.2.3,Win32,60.51803437,,,,,,,,,,,0.8212,1,,,,,,,,,,,,,,,m,1,0.8212,,,,,,,,-0.071614583,-0.385416667,0,0,0,,0,54,54,3,1,CRATER,HB,old,m,./images/CRATERHB.png,,,,,,,,,,,,,,,,,,,,,,,,,,,,,,,,,,,
,,,,,,,,,,,,,,,,,60ecba072cfc4af3b5f9a7e6,59,2022-02-12_13h30.08.532,lexical_decision_task_DD_L5,2021.2.3,Win32,60.51803437,,,,,,,,,,,0.6408,1,,,,,,,,,,,,,,,m,1,0.6408,,,,,,,,-0.071614583,-0.385416667,0,0,0,,0,55,55,41,1,STREAM,C,old,m,./images/STREAM.png,,,,,,,,,,,,,,,,,,,,,,,,,,,,,,,,,,,
,,,,,,,,,,,,,,,,,60ecba072cfc4af3b5f9a7e6,59,2022-02-12_13h30.08.532,lexical_decision_task_DD_L5,2021.2.3,Win32,60.51803437,,,,,,,,,,,0.7092,1,,,,,,,,,,,,,,,z,1,0.7092,,,,,,,,-0.071614583,-0.385416667,0,0,0,,0,56,56,129,1,PRANS,C,old,z,./images/PRANS.png,,,,,,,,,,,,,,,,,,,,,,,,,,,,,,,,,,,
,,,,,,,,,,,,,,,,,60ecba072cfc4af3b5f9a7e6,59,2022-02-12_13h30.08.532,lexical_decision_task_DD_L5,2021.2.3,Win32,60.51803437,,,,,,,,,,,0.708,1,,,,,,,,,,,,,,,z,1,0.708,,,,,,,,-0.071614583,-0.385416667,0,0,0,,0,57,57,96,1,KEAMS,C,old,z,./images/KEAMS.png,,,,,,,,,,,,,,,,,,,,,,,,,,,,,,,,,,,
,,,,,,,,,,,,,,,,,60ecba072cfc4af3b5f9a7e6,59,2022-02-12_13h30.08.532,lexical_decision_task_DD_L5,2021.2.3,Win32,60.51803437,,,,,,,,,,,0.7322,1,,,,,,,,,,,,,,,z,1,0.7322,,,,,,,,-0.071614583,-0.385416667,0,0,0,,0,58,58,90,1,NEAST,C,old,z,./images/NEAST.png,,,,,,,,,,,,,,,,,,,,,,,,,,,,,,,,,,,
,,,,,,,,,,,,,,,,,60ecba072cfc4af3b5f9a7e6,59,2022-02-12_13h30.08.532,lexical_decision_task_DD_L5,2021.2.3,Win32,60.51803437,,,,,,,,,,,1.1513,1,,,,,,,,,,,,,,,z,1,1.1513,,,,,,,,-0.071614583,-0.385416667,0,0,0,,0,59,59,100,1,DRIBS,HB,old,z,./images/DRIBSHB.png,,,,,,,,,,,,,,,,,,,,,,,,,,,,,,,,,,,
,,,,,,,,,,,,,,,,,60ecba072cfc4af3b5f9a7e6,59,2022-02-12_13h30.08.532,lexical_decision_task_DD_L5,2021.2.3,Win32,60.51803437,,,,,,,,,,,0.6862,1,,,,,,,,,,,,,,,m,1,0.6862,,,,,,,,-0.071614583,-0.385416667,0,0,0,,0,60,60,20,1,GRANNY,C,old,m,./images/GRANNY.png,,,,,,,,,,,,,,,,,,,,,,,,,,,,,,,,,,,
,,,,,,,,,,,,,,,,,60ecba072cfc4af3b5f9a7e6,59,2022-02-12_13h30.08.532,lexical_decision_task_DD_L5,2021.2.3,Win32,60.51803437,,,,,,,,,,,0.6986,1,,,,,,,,,,,,,,,m,1,0.6986,,,,,,,,-0.071614583,-0.385416667,0,0,0,,0,61,61,82,1,PEBBLE,LB,old,m,./images/PEBBLELB.png,,,,,,,,,,,,,,,,,,,,,,,,,,,,,,,,,,,
,,,,,,,,,,,,,,,,,60ecba072cfc4af3b5f9a7e6,59,2022-02-12_13h30.08.532,lexical_decision_task_DD_L5,2021.2.3,Win32,60.51803437,,,,,,,,,,,1.2384,1,,,,,,,,,,,,,,,z,1,1.2384,,,,,,,,-0.071614583,-0.385416667,0,0,0,,0,62,62,151,1,TINKY,HB,old,z,./images/TINKYHB.png,,,,,,,,,,,,,,,,,,,,,,,,,,,,,,,,,,,
,,,,,,,,,,,,,,,,,60ecba072cfc4af3b5f9a7e6,59,2022-02-12_13h30.08.532,lexical_decision_task_DD_L5,2021.2.3,Win32,60.51803437,,,,,,,,,,,0.6208,1,,,,,,,,,,,,,,,m,1,0.6208,,,,,,,,-0.071614583,-0.385416667,0,0,0,,0,63,63,73,1,GLOVE,LB,old,m,./images/GLOVELB.png,,,,,,,,,,,,,,,,,,,,,,,,,,,,,,,,,,,
,,,,,,,,,,,,,,,,,60ecba072cfc4af3b5f9a7e6,59,2022-02-12_13h30.08.532,lexical_decision_task_DD_L5,2021.2.3,Win32,60.51803437,,,,,,,,,,,0.77,1,,,,,,,,,,,,,,,m,1,0.77,,,,,,,,-0.071614583,-0.385416667,0,0,0,,0,64,64,47,1,LAGOON,C,old,m,./images/LAGOON.png,,,,,,,,,,,,,,,,,,,,,,,,,,,,,,,,,,,
,,,,,,,,,,,,,,,,,60ecba072cfc4af3b5f9a7e6,59,2022-02-12_13h30.08.532,lexical_decision_task_DD_L5,2021.2.3,Win32,60.51803437,,,,,,,,,,,0.8051,1,,,,,,,,,,,,,,,z,1,0.8051,,,,,,,,-0.071614583,-0.385416667,0,0,0,,0,65,65,126,1,GUELS,C,old,z,./images/GUELS.png,,,,,,,,,,,,,,,,,,,,,,,,,,,,,,,,,,,
,,,,,,,,,,,,,,,,,60ecba072cfc4af3b5f9a7e6,59,2022-02-12_13h30.08.532,lexical_decision_task_DD_L5,2021.2.3,Win32,60.51803437,,,,,,,,,,,1.0627,1,,,,,,,,,,,,,,,z,1,1.0627,,,,,,,,-0.071614583,-0.385416667,0,0,0,,0,66,66,95,1,HANTY,LB,old,z,./images/HANTYLB.png,,,,,,,,,,,,,,,,,,,,,,,,,,,,,,,,,,,
,,,,,,,,,,,,,,,,,60ecba072cfc4af3b5f9a7e6,59,2022-02-12_13h30.08.532,lexical_decision_task_DD_L5,2021.2.3,Win32,60.51803437,,,,,,,,,,,0.8549,1,,,,,,,,,,,,,,,m,1,0.8549,,,,,,,,-0.071614583,-0.385416667,0,0,0,,0,67,67,50,1,PILOT,C,old,m,./images/PILOT.png,,,,,,,,,,,,,,,,,,,,,,,,,,,,,,,,,,,
,,,,,,,,,,,,,,,,,60ecba072cfc4af3b5f9a7e6,59,2022-02-12_13h30.08.532,lexical_decision_task_DD_L5,2021.2.3,Win32,60.51803437,,,,,,,,,,,0.9761,1,,,,,,,,,,,,,,,z,1,0.9761,,,,,,,,-0.071614583,-0.385416667,0,0,0,,0,68,68,165,1,TROWN,C,old,z,./images/TROWN.png,,,,,,,,,,,,,,,,,,,,,,,,,,,,,,,,,,,
,,,,,,,,,,,,,,,,,60ecba072cfc4af3b5f9a7e6,59,2022-02-12_13h30.08.532,lexical_decision_task_DD_L5,2021.2.3,Win32,60.51803437,,,,,,,,,,,1.1894,1,,,,,,,,,,,,,,,z,1,1.1894,,,,,,,,-0.071614583,-0.385416667,0,0,0,,0,69,69,134,1,TROSS,LB,old,z,./images/TROSSLB.png,,,,,,,,,,,,,,,,,,,,,,,,,,,,,,,,,,,
,,,,,,,,,,,,,,,,,60ecba072cfc4af3b5f9a7e6,59,2022-02-12_13h30.08.532,lexical_decision_task_DD_L5,2021.2.3,Win32,60.51803437,,,,,,,,,,,0.7421,1,,,,,,,,,,,,,,,m,1,0.7421,,,,,,,,-0.071614583,-0.385416667,0,0,0,,0,70,70,65,1,SPINE,C,old,m,./images/SPINE.png,,,,,,,,,,,,,,,,,,,,,,,,,,,,,,,,,,,
,,,,,,,,,,,,,,,,,60ecba072cfc4af3b5f9a7e6,59,2022-02-12_13h30.08.532,lexical_decision_task_DD_L5,2021.2.3,Win32,60.51803437,,,,,,,,,,,1.0912,1,,,,,,,,,,,,,,,m,1,1.0912,,,,,,,,-0.071614583,-0.385416667,0,0,0,,0,71,71,12,1,BLOKE,HB,old,m,./images/BLOKEHB.png,,,,,,,,,,,,,,,,,,,,,,,,,,,,,,,,,,,
,,,,,,,,,,,,,,,,,60ecba072cfc4af3b5f9a7e6,59,2022-02-12_13h30.08.532,lexical_decision_task_DD_L5,2021.2.3,Win32,60.51803437,,,,,,,,,,,0.7884,1,,,,,,,,,,,,,,,m,1,0.7884,,,,,,,,-0.071614583,-0.385416667,0,0,0,,0,72,72,25,1,CHALK,LB,old,m,./images/CHALKLB.png,,,,,,,,,,,,,,,,,,,,,,,,,,,,,,,,,,,
,,,,,,,,,,,,,,,,,60ecba072cfc4af3b5f9a7e6,59,2022-02-12_13h30.08.532,lexical_decision_task_DD_L5,2021.2.3,Win32,60.51803437,,,,,,,,,,,0.7216,1,,,,,,,,,,,,,,,m,1,0.7216,,,,,,,,-0.071614583,-0.385416667,0,0,0,,0,73,73,11,1,MEDAL,C,old,m,./images/MEDAL.png,,,,,,,,,,,,,,,,,,,,,,,,,,,,,,,,,,,
,,,,,,,,,,,,,,,,,60ecba072cfc4af3b5f9a7e6,59,2022-02-12_13h30.08.532,lexical_decision_task_DD_L5,2021.2.3,Win32,60.51803437,,,,,,,,,,,1.0459,1,,,,,,,,,,,,,,,z,1,1.0459,,,,,,,,-0.071614583,-0.385416667,0,0,0,,0,74,74,115,1,MAWNS,HB,old,z,./images/MAWNSHB.png,,,,,,,,,,,,,,,,,,,,,,,,,,,,,,,,,,,
,,,,,,,,,,,,,,,,,60ecba072cfc4af3b5f9a7e6,59,2022-02-12_13h30.08.532,lexical_decision_task_DD_L5,2021.2.3,Win32,60.51803437,,,,,,,,,,,1.3799,1,,,,,,,,,,,,,,,m,1,1.3799,,,,,,,,-0.071614583,-0.385416667,0,0,0,,0,75,75,6,1,STAIN,HB,old,m,./images/STAINHB.png,,,,,,,,,,,,,,,,,,,,,,,,,,,,,,,,,,,
,,,,,,,,,,,,,,,,,60ecba072cfc4af3b5f9a7e6,59,2022-02-12_13h30.08.532,lexical_decision_task_DD_L5,2021.2.3,Win32,60.51803437,,,,,,,,,,,0.8812,1,,,,,,,,,,,,,,,m,1,0.8812,,,,,,,,-0.071614583,-0.385416667,0,0,0,,0,76,76,48,1,SHIELD,HB,old,m,./images/SHIELDHB.png,,,,,,,,,,,,,,,,,,,,,,,,,,,,,,,,,,,
,,,,,,,,,,,,,,,,,60ecba072cfc4af3b5f9a7e6,59,2022-02-12_13h30.08.532,lexical_decision_task_DD_L5,2021.2.3,Win32,60.51803437,,,,,,,,,,,0.7555,1,,,,,,,,,,,,,,,m,1,0.7555,,,,,,,,-0.071614583,-0.385416667,0,0,0,,0,77,77,55,1,ALLEY,LB,old,m,./images/ALLEYLB.png,,,,,,,,,,,,,,,,,,,,,,,,,,,,,,,,,,,
,,,,,,,,,,,,,,,,,60ecba072cfc4af3b5f9a7e6,59,2022-02-12_13h30.08.532,lexical_decision_task_DD_L5,2021.2.3,Win32,60.51803437,,,,,,,,,,,0.7111,1,,,,,,,,,,,,,,,m,1,0.7111,,,,,,,,-0.071614583,-0.385416667,0,0,0,,0,78,78,22,1,CLOWN,LB,old,m,./images/CLOWNLB.png,,,,,,,,,,,,,,,,,,,,,,,,,,,,,,,,,,,
,,,,,,,,,,,,,,,,,60ecba072cfc4af3b5f9a7e6,59,2022-02-12_13h30.08.532,lexical_decision_task_DD_L5,2021.2.3,Win32,60.51803437,,,,,,,,,,,1.0451,1,,,,,,,,,,,,,,,z,1,1.0451,,,,,,,,-0.071614583,-0.385416667,0,0,0,,0,79,79,156,1,HIXES,C,old,z,./images/HIXES.png,,,,,,,,,,,,,,,,,,,,,,,,,,,,,,,,,,,
,,,,,,,,,,,,,,,,,60ecba072cfc4af3b5f9a7e6,59,2022-02-12_13h30.08.532,lexical_decision_task_DD_L5,2021.2.3,Win32,60.51803437,,,,,,,,,,,0.9903,1,,,,,,,,,,,,,,,m,1,0.9903,,,,,,,,-0.071614583,-0.385416667,0,0,0,,0,80,80,42,1,CHAIN,HB,old,m,./images/CHAINHB.png,,,,,,,,,,,,,,,,,,,,,,,,,,,,,,,,,,,
,,,,,,,,,,,,,,,,,60ecba072cfc4af3b5f9a7e6,59,2022-02-12_13h30.08.532,lexical_decision_task_DD_L5,2021.2.3,Win32,60.51803437,,,,,,,,,,,0.9945,1,,,,,,,,,,,,,,,z,1,0.9945,,,,,,,,-0.071614583,-0.385416667,0,0,0,,0,81,81,93,1,SMONE,C,old,z,./images/SMONE.png,,,,,,,,,,,,,,,,,,,,,,,,,,,,,,,,,,,
,,,,,,,,,,,,,,,,,60ecba072cfc4af3b5f9a7e6,59,2022-02-12_13h30.08.532,lexical_decision_task_DD_L5,2021.2.3,Win32,60.51803437,,,,,,,,,,,0.8609,1,,,,,,,,,,,,,,,m,1,0.8609,,,,,,,,-0.071614583,-0.385416667,0,0,0,,0,82,82,27,1,BUTTER,HB,old,m,./images/BUTTERHB.png,,,,,,,,,,,,,,,,,,,,,,,,,,,,,,,,,,,
,,,,,,,,,,,,,,,,,60ecba072cfc4af3b5f9a7e6,59,2022-02-12_13h30.08.532,lexical_decision_task_DD_L5,2021.2.3,Win32,60.51803437,,,,,,,,,,,0.7141,1,,,,,,,,,,,,,,,m,1,0.7141,,,,,,,,-0.071614583,-0.385416667,1,0,0,,0,83,83,67,1,POKER,LB,old,m,./images/POKERLB.png,,break_done_button,,,,,,,,,,,,,,,,,,,,,,,,,,,,,,,,,
,,,,,,,,,,,,,,,,,60ecba072cfc4af3b5f9a7e6,59,2022-02-12_13h30.08.532,lexical_decision_task_DD_L5,2021.2.3,Win32,60.51803437,,,,,,,,,,,0.9276,1,,,,,,,,,,,,,,,z,1,0.9276,,,,,,,,-0.071614583,-0.385416667,0,0,0,,0,84,84,143,1,MONGS,LB,old,z,./images/MONGSLB.png,,,,,,,,,,,,,,,,,,,,,,,,,,,,,,,,,,,
,,,,,,,,,,,,,,,,,60ecba072cfc4af3b5f9a7e6,59,2022-02-12_13h30.08.532,lexical_decision_task_DD_L5,2021.2.3,Win32,60.51803437,,,,,,,,,,,1.2028,1,,,,,,,,,,,,,,,z,1,1.2028,,,,,,,,-0.071614583,-0.385416667,0,0,0,,0,85,85,97,1,CHIDS,HB,old,z,./images/CHIDSHB.png,,,,,,,,,,,,,,,,,,,,,,,,,,,,,,,,,,,
,,,,,,,,,,,,,,,,,60ecba072cfc4af3b5f9a7e6,59,2022-02-12_13h30.08.532,lexical_decision_task_DD_L5,2021.2.3,Win32,60.51803437,,,,,,,,,,,0.6353,1,,,,,,,,,,,,,,,m,1,0.6353,,,,,,,,-0.071614583,-0.385416667,0,0,0,,0,86,86,59,1,BRUSH,C,old,m,./images/BRUSH.png,,,,,,,,,,,,,,,,,,,,,,,,,,,,,,,,,,,
,,,,,,,,,,,,,,,,,60ecba072cfc4af3b5f9a7e6,59,2022-02-12_13h30.08.532,lexical_decision_task_DD_L5,2021.2.3,Win32,60.51803437,,,,,,,,,,,0.8694,1,,,,,,,,,,,,,,,m,1,0.8694,,,,,,,,-0.071614583,-0.385416667,0,0,0,,0,87,87,54,1,CHERRY,HB,old,m,./images/CHERRYHB.png,,,,,,,,,,,,,,,,,,,,,,,,,,,,,,,,,,,
,,,,,,,,,,,,,,,,,60ecba072cfc4af3b5f9a7e6,59,2022-02-12_13h30.08.532,lexical_decision_task_DD_L5,2021.2.3,Win32,60.51803437,,,,,,,,,,,0.8309,1,,,,,,,,,,,,,,,z,1,0.8309,,,,,,,,-0.071614583,-0.385416667,0,0,0,,0,88,88,161,1,BLAPS,LB,old,z,./images/BLAPSLB.png,,,,,,,,,,,,,,,,,,,,,,,,,,,,,,,,,,,
,,,,,,,,,,,,,,,,,60ecba072cfc4af3b5f9a7e6,59,2022-02-12_13h30.08.532,lexical_decision_task_DD_L5,2021.2.3,Win32,60.51803437,,,,,,,,,,,1.1258,1,,,,,,,,,,,,,,,m,1,1.1258,,,,,,,,-0.071614583,-0.385416667,0,0,0,,0,89,89,57,1,FERRY,HB,old,m,./images/FERRYHB.png,,,,,,,,,,,,,,,,,,,,,,,,,,,,,,,,,,,
,,,,,,,,,,,,,,,,,60ecba072cfc4af3b5f9a7e6,59,2022-02-12_13h30.08.532,lexical_decision_task_DD_L5,2021.2.3,Win32,60.51803437,,,,,,,,,,,0.6299,1,,,,,,,,,,,,,,,m,1,0.6299,,,,,,,,-0.071614583,-0.385416667,0,0,0,,0,90,90,23,1,CLOTH,C,old,m,./images/CLOTH.png,,,,,,,,,,,,,,,,,,,,,,,,,,,,,,,,,,,
,,,,,,,,,,,,,,,,,60ecba072cfc4af3b5f9a7e6,59,2022-02-12_13h30.08.532,lexical_decision_task_DD_L5,2021.2.3,Win32,60.51803437,,,,,,,,,,,0.8345,1,,,,,,,,,,,,,,,z,1,0.8345,,,,,,,,-0.071614583,-0.385416667,0,0,0,,0,91,91,122,1,BLOOT,LB,old,z,./images/BLOOTLB.png,,,,,,,,,,,,,,,,,,,,,,,,,,,,,,,,,,,
,,,,,,,,,,,,,,,,,60ecba072cfc4af3b5f9a7e6,59,2022-02-12_13h30.08.532,lexical_decision_task_DD_L5,2021.2.3,Win32,60.51803437,,,,,,,,,,,0.6425,1,,,,,,,,,,,,,,,m,1,0.6425,,,,,,,,-0.071614583,-0.385416667,0,0,0,,0,92,92,61,1,ARTIST,LB,old,m,./images/ARTISTLB.png,,,,,,,,,,,,,,,,,,,,,,,,,,,,,,,,,,,
,,,,,,,,,,,,,,,,,60ecba072cfc4af3b5f9a7e6,59,2022-02-12_13h30.08.532,lexical_decision_task_DD_L5,2021.2.3,Win32,60.51803437,,,,,,,,,,,1.1281,1,,,,,,,,,,,,,,,z,1,1.1281,,,,,,,,-0.071614583,-0.385416667,0,0,0,,0,93,93,159,1,CUDDY,C,old,z,./images/CUDDY.png,,,,,,,,,,,,,,,,,,,,,,,,,,,,,,,,,,,
,,,,,,,,,,,,,,,,,60ecba072cfc4af3b5f9a7e6,59,2022-02-12_13h30.08.532,lexical_decision_task_DD_L5,2021.2.3,Win32,60.51803437,,,,,,,,,,,1.4176,1,,,,,,,,,,,,,,,z,1,1.4176,,,,,,,,-0.071614583,-0.385416667,0,0,0,,0,94,94,102,1,DULLE,C,old,z,./images/DULLE.png,,,,,,,,,,,,,,,,,,,,,,,,,,,,,,,,,,,
,,,,,,,,,,,,,,,,,60ecba072cfc4af3b5f9a7e6,59,2022-02-12_13h30.08.532,lexical_decision_task_DD_L5,2021.2.3,Win32,60.51803437,,,,,,,,,,,0.9453,0,,,,,,,,,,,,,,,m,0,0.9453,,,,,,,,-0.071614583,-0.385416667,0,0,0,,0,95,95,110,1,CRUNK,LB,old,z,./images/CRUNKLB.png,,,,,,,,,,,,,,,,,,,,,,,,,,,,,,,,,,,
,,,,,,,,,,,,,,,,,60ecba072cfc4af3b5f9a7e6,59,2022-02-12_13h30.08.532,lexical_decision_task_DD_L5,2021.2.3,Win32,60.51803437,,,,,,,,,,,0.8705,1,,,,,,,,,,,,,,,z,1,0.8705,,,,,,,,-0.071614583,-0.385416667,0,0,0,,0,96,96,89,1,DRIEK,LB,old,z,./images/DRIEKLB.png,,,,,,,,,,,,,,,,,,,,,,,,,,,,,,,,,,,
,,,,,,,,,,,,,,,,,60ecba072cfc4af3b5f9a7e6,59,2022-02-12_13h30.08.532,lexical_decision_task_DD_L5,2021.2.3,Win32,60.51803437,,,,,,,,,,,0.8384,1,,,,,,,,,,,,,,,z,1,0.8384,,,,,,,,-0.071614583,-0.385416667,0,0,0,,0,97,97,152,1,FRAIN,LB,old,z,./images/FRAINLB.png,,,,,,,,,,,,,,,,,,,,,,,,,,,,,,,,,,,
,,,,,,,,,,,,,,,,,60ecba072cfc4af3b5f9a7e6,59,2022-02-12_13h30.08.532,lexical_decision_task_DD_L5,2021.2.3,Win32,60.51803437,,,,,,,,,,,0.8386,1,,,,,,,,,,,,,,,m,1,0.8386,,,,,,,,-0.071614583,-0.385416667,0,0,0,,0,98,98,0,1,WALNUT,HB,old,m,./images/WALNUTHB.png,,,,,,,,,,,,,,,,,,,,,,,,,,,,,,,,,,,
,,,,,,,,,,,,,,,,,60ecba072cfc4af3b5f9a7e6,59,2022-02-12_13h30.08.532,lexical_decision_task_DD_L5,2021.2.3,Win32,60.51803437,,,,,,,,,,,1.1229,0,,,,,,,,,,,,,,,z,0,1.1229,,,,,,,,-0.071614583,-0.385416667,0,0,0,,0,99,99,36,1,BOILER,HB,old,m,./images/BOILERHB.png,,,,,,,,,,,,,,,,,,,,,,,,,,,,,,,,,,,
,,,,,,,,,,,,,,,,,60ecba072cfc4af3b5f9a7e6,59,2022-02-12_13h30.08.532,lexical_decision_task_DD_L5,2021.2.3,Win32,60.51803437,,,,,,,,,,,0.8135,1,,,,,,,,,,,,,,,z,1,0.8135,,,,,,,,-0.071614583,-0.384114583,0,0,0,,0,100,100,147,1,ZOLES,C,old,z,./images/ZOLES.png,,,,,,,,,,,,,,,,,,,,,,,,,,,,,,,,,,,
,,,,,,,,,,,,,,,,,60ecba072cfc4af3b5f9a7e6,59,2022-02-12_13h30.08.532,lexical_decision_task_DD_L5,2021.2.3,Win32,60.51803437,,,,,,,,,,,1.039,1,,,,,,,,,,,,,,,z,1,1.039,,,,,,,,-0.071614583,-0.384114583,0,0,0,,0,101,101,124,1,TUNCH,HB,old,z,./images/TUNCHHB.png,,,,,,,,,,,,,,,,,,,,,,,,,,,,,,,,,,,
,,,,,,,,,,,,,,,,,60ecba072cfc4af3b5f9a7e6,59,2022-02-12_13h30.08.532,lexical_decision_task_DD_L5,2021.2.3,Win32,60.51803437,,,,,,,,,,,0.8811,1,,,,,,,,,,,,,,,z,1,0.8811,,,,,,,,-0.071614583,-0.384114583,0,0,0,,0,102,102,158,1,EGECT,LB,old,z,./images/EGECTLB.png,,,,,,,,,,,,,,,,,,,,,,,,,,,,,,,,,,,
,,,,,,,,,,,,,,,,,60ecba072cfc4af3b5f9a7e6,59,2022-02-12_13h30.08.532,lexical_decision_task_DD_L5,2021.2.3,Win32,60.51803437,,,,,,,,,,,0.9164,1,,,,,,,,,,,,,,,z,1,0.9164,,,,,,,,-0.071614583,-0.384114583,0,0,0,,0,103,103,160,1,VEETS,HB,old,z,./images/VEETSHB.png,,,,,,,,,,,,,,,,,,,,,,,,,,,,,,,,,,,
,,,,,,,,,,,,,,,,,60ecba072cfc4af3b5f9a7e6,59,2022-02-12_13h30.08.532,lexical_decision_task_DD_L5,2021.2.3,Win32,60.51803437,,,,,,,,,,,0.8959,1,,,,,,,,,,,,,,,z,1,0.8959,,,,,,,,-0.071614583,-0.384114583,0,0,0,,0,104,104,136,1,WERVE,HB,old,z,./images/WERVEHB.png,,,,,,,,,,,,,,,,,,,,,,,,,,,,,,,,,,,
,,,,,,,,,,,,,,,,,60ecba072cfc4af3b5f9a7e6,59,2022-02-12_13h30.08.532,lexical_decision_task_DD_L5,2021.2.3,Win32,60.51803437,,,,,,,,,,,0.7071,1,,,,,,,,,,,,,,,z,1,0.7071,,,,,,,,-0.071614583,-0.384114583,0,0,0,,0,105,105,141,1,PLEET,C,old,z,./images/PLEET.png,,,,,,,,,,,,,,,,,,,,,,,,,,,,,,,,,,,
,,,,,,,,,,,,,,,,,60ecba072cfc4af3b5f9a7e6,59,2022-02-12_13h30.08.532,lexical_decision_task_DD_L5,2021.2.3,Win32,60.51803437,,,,,,,,,,,0.6797,1,,,,,,,,,,,,,,,m,1,0.6797,,,,,,,,-0.071614583,-0.384114583,0,0,0,,0,106,106,40,1,SNAKE,LB,old,m,./images/SNAKELB.png,,,,,,,,,,,,,,,,,,,,,,,,,,,,,,,,,,,
,,,,,,,,,,,,,,,,,60ecba072cfc4af3b5f9a7e6,59,2022-02-12_13h30.08.532,lexical_decision_task_DD_L5,2021.2.3,Win32,60.51803437,,,,,,,,,,,1.0378,1,,,,,,,,,,,,,,,z,1,1.0378,,,,,,,,-0.071614583,-0.384114583,0,0,0,,0,107,107,104,1,GITTY,LB,old,z,./images/GITTYLB.png,,,,,,,,,,,,,,,,,,,,,,,,,,,,,,,,,,,
,,,,,,,,,,,,,,,,,60ecba072cfc4af3b5f9a7e6,59,2022-02-12_13h30.08.532,lexical_decision_task_DD_L5,2021.2.3,Win32,60.51803437,,,,,,,,,,,0.9242,1,,,,,,,,,,,,,,,z,1,0.9242,,,,,,,,-0.071614583,-0.384114583,0,0,0,,0,108,108,103,1,FLORT,HB,old,z,./images/FLORTHB.png,,,,,,,,,,,,,,,,,,,,,,,,,,,,,,,,,,,
,,,,,,,,,,,,,,,,,60ecba072cfc4af3b5f9a7e6,59,2022-02-12_13h30.08.532,lexical_decision_task_DD_L5,2021.2.3,Win32,60.51803437,,,,,,,,,,,1.0197,1,,,,,,,,,,,,,,,m,1,1.0197,,,,,,,,-0.071614583,-0.384114583,0,0,0,,0,109,109,69,1,ARROW,HB,old,m,./images/ARROWHB.png,,,,,,,,,,,,,,,,,,,,,,,,,,,,,,,,,,,
,,,,,,,,,,,,,,,,,60ecba072cfc4af3b5f9a7e6,59,2022-02-12_13h30.08.532,lexical_decision_task_DD_L5,2021.2.3,Win32,60.51803437,,,,,,,,,,,0.6631,1,,,,,,,,,,,,,,,m,1,0.6631,,,,,,,,-0.071614583,-0.384114583,0,0,0,,0,110,110,43,1,STOOL,LB,old,m,./images/STOOLLB.png,,,,,,,,,,,,,,,,,,,,,,,,,,,,,,,,,,,
,,,,,,,,,,,,,,,,,60ecba072cfc4af3b5f9a7e6,59,2022-02-12_13h30.08.532,lexical_decision_task_DD_L5,2021.2.3,Win32,60.51803437,,,,,,,,,,,0.7422,1,,,,,,,,,,,,,,,z,1,0.7422,,,,,,,,-0.071614583,-0.384114583,0,0,0,,0,111,111,92,1,PAIMS,LB,old,z,./images/PAIMSLB.png,,,,,,,,,,,,,,,,,,,,,,,,,,,,,,,,,,,
,,,,,,,,,,,,,,,,,60ecba072cfc4af3b5f9a7e6,59,2022-02-12_13h30.08.532,lexical_decision_task_DD_L5,2021.2.3,Win32,60.51803437,,,,,,,,,,,0.7711,1,,,,,,,,,,,,,,,z,1,0.7711,,,,,,,,-0.071614583,-0.384114583,0,0,0,,0,112,112,153,1,CLUPS,C,old,z,./images/CLUPS.png,,,,,,,,,,,,,,,,,,,,,,,,,,,,,,,,,,,
,,,,,,,,,,,,,,,,,60ecba072cfc4af3b5f9a7e6,59,2022-02-12_13h30.08.532,lexical_decision_task_DD_L5,2021.2.3,Win32,60.51803437,,,,,,,,,,,0.6778,1,,,,,,,,,,,,,,,m,1,0.6778,,,,,,,,-0.071614583,-0.384114583,0,0,0,,0,113,113,7,1,WAGON,LB,old,m,./images/WAGONLB.png,,,,,,,,,,,,,,,,,,,,,,,,,,,,,,,,,,,
,,,,,,,,,,,,,,,,,60ecba072cfc4af3b5f9a7e6,59,2022-02-12_13h30.08.532,lexical_decision_task_DD_L5,2021.2.3,Win32,60.51803437,,,,,,,,,,,0.993,1,,,,,,,,,,,,,,,z,1,0.993,,,,,,,,-0.071614583,-0.384114583,0,0,0,,0,114,114,154,1,THINT,HB,old,z,./images/THINTHB.png,,,,,,,,,,,,,,,,,,,,,,,,,,,,,,,,,,,
,,,,,,,,,,,,,,,,,60ecba072cfc4af3b5f9a7e6,59,2022-02-12_13h30.08.532,lexical_decision_task_DD_L5,2021.2.3,Win32,60.51803437,,,,,,,,,,,1.0819,1,,,,,,,,,,,,,,,z,1,1.0819,,,,,,,,-0.071614583,-0.384114583,0,0,0,,0,115,115,137,1,JOOST,LB,old,z,./images/JOOSTLB.png,,,,,,,,,,,,,,,,,,,,,,,,,,,,,,,,,,,
,,,,,,,,,,,,,,,,,60ecba072cfc4af3b5f9a7e6,59,2022-02-12_13h30.08.532,lexical_decision_task_DD_L5,2021.2.3,Win32,60.51803437,,,,,,,,,,,1.0292,1,,,,,,,,,,,,,,,m,1,1.0292,,,,,,,,-0.071614583,-0.384114583,0,0,0,,0,116,116,45,1,MONKEY,HB,old,m,./images/MONKEYHB.png,,,,,,,,,,,,,,,,,,,,,,,,,,,,,,,,,,,
,,,,,,,,,,,,,,,,,60ecba072cfc4af3b5f9a7e6,59,2022-02-12_13h30.08.532,lexical_decision_task_DD_L5,2021.2.3,Win32,60.51803437,,,,,,,,,,,1.2821,1,,,,,,,,,,,,,,,m,1,1.2821,,,,,,,,-0.071614583,-0.384114583,0,0,0,,0,117,117,9,1,DIVER,HB,old,m,./images/DIVERHB.png,,,,,,,,,,,,,,,,,,,,,,,,,,,,,,,,,,,
,,,,,,,,,,,,,,,,,60ecba072cfc4af3b5f9a7e6,59,2022-02-12_13h30.08.532,lexical_decision_task_DD_L5,2021.2.3,Win32,60.51803437,,,,,,,,,,,0.8026,1,,,,,,,,,,,,,,,z,1,0.8026,,,,,,,,-0.071614583,-0.384114583,0,0,0,,0,118,118,155,1,CANGY,LB,old,z,./images/CANGYLB.png,,,,,,,,,,,,,,,,,,,,,,,,,,,,,,,,,,,
,,,,,,,,,,,,,,,,,60ecba072cfc4af3b5f9a7e6,59,2022-02-12_13h30.08.532,lexical_decision_task_DD_L5,2021.2.3,Win32,60.51803437,,,,,,,,,,,0.8624,1,,,,,,,,,,,,,,,m,1,0.8624,,,,,,,,-0.071614583,-0.384114583,0,0,0,,0,119,119,13,1,BUNNY,LB,old,m,./images/BUNNYLB.png,,,,,,,,,,,,,,,,,,,,,,,,,,,,,,,,,,,
,,,,,,,,,,,,,,,,,60ecba072cfc4af3b5f9a7e6,59,2022-02-12_13h30.08.532,lexical_decision_task_DD_L5,2021.2.3,Win32,60.51803437,,,,,,,,,,,1.1577,1,,,,,,,,,,,,,,,z,1,1.1577,,,,,,,,-0.071614583,-0.384114583,0,0,0,,0,120,120,99,1,BACKY,C,old,z,./images/BACKY.png,,,,,,,,,,,,,,,,,,,,,,,,,,,,,,,,,,,
,,,,,,,,,,,,,,,,,60ecba072cfc4af3b5f9a7e6,59,2022-02-12_13h30.08.532,lexical_decision_task_DD_L5,2021.2.3,Win32,60.51803437,,,,,,,,,,,1.0278,1,,,,,,,,,,,,,,,z,1,1.0278,,,,,,,,-0.071614583,-0.384114583,0,0,0,,0,121,121,146,1,MOOST,LB,old,z,./images/MOOSTLB.png,,,,,,,,,,,,,,,,,,,,,,,,,,,,,,,,,,,
,,,,,,,,,,,,,,,,,60ecba072cfc4af3b5f9a7e6,59,2022-02-12_13h30.08.532,lexical_decision_task_DD_L5,2021.2.3,Win32,60.51803437,,,,,,,,,,,0.7444,1,,,,,,,,,,,,,,,m,1,0.7444,,,,,,,,-0.071614583,-0.384114583,0,0,0,,0,122,122,64,1,BRIDE,LB,old,m,./images/BRIDELB.png,,,,,,,,,,,,,,,,,,,,,,,,,,,,,,,,,,,
,,,,,,,,,,,,,,,,,60ecba072cfc4af3b5f9a7e6,59,2022-02-12_13h30.08.532,lexical_decision_task_DD_L5,2021.2.3,Win32,60.51803437,,,,,,,,,,,1.5191,1,,,,,,,,,,,,,,,z,1,1.5191,,,,,,,,-0.071614583,-0.384114583,0,0,0,,0,123,123,133,1,POWDY,HB,old,z,./images/POWDYHB.png,,,,,,,,,,,,,,,,,,,,,,,,,,,,,,,,,,,
,,,,,,,,,,,,,,,,,60ecba072cfc4af3b5f9a7e6,59,2022-02-12_13h30.08.532,lexical_decision_task_DD_L5,2021.2.3,Win32,60.51803437,,,,,,,,,,,0.9746,1,,,,,,,,,,,,,,,z,1,0.9746,,,,,,,,-0.071614583,-0.384114583,0,0,0,,0,124,124,108,1,GRUET,C,old,z,./images/GRUET.png,,,,,,,,,,,,,,,,,,,,,,,,,,,,,,,,,,,
,,,,,,,,,,,,,,,,,60ecba072cfc4af3b5f9a7e6,59,2022-02-12_13h30.08.532,lexical_decision_task_DD_L5,2021.2.3,Win32,60.51803437,,,,,,,,,,,1.0183,1,,,,,,,,,,,,,,,z,1,1.0183,,,,,,,,-0.083333333,-0.372395833,0,0,0,space,0,125,125,140,1,DOVET,LB,old,z,./images/DOVETLB.png,44.2412,,,,,,,,,,,,,,,,,,,,,,,,,,,,,,,,,,
,,,,,,,,,,,,,,,,,60ecba072cfc4af3b5f9a7e6,59,2022-02-12_13h30.08.532,lexical_decision_task_DD_L5,2021.2.3,Win32,60.51803437,,,,,,,,,,,0.6859,1,,,,,,,,,,,,,,,m,1,0.6859,,,,,,,,-0.083333333,-0.372395833,0,0,0,,0,126,126,62,1,MAMMAL,C,old,m,./images/MAMMAL.png,,,,,,,,,,,,,,,,,,,,,,,,,,,,,,,,,,,
,,,,,,,,,,,,,,,,,60ecba072cfc4af3b5f9a7e6,59,2022-02-12_13h30.08.532,lexical_decision_task_DD_L5,2021.2.3,Win32,60.51803437,,,,,,,,,,,0.608,1,,,,,,,,,,,,,,,m,1,0.608,,,,,,,,-0.083333333,-0.372395833,0,0,0,,0,127,127,38,1,ENGINE,C,old,m,./images/ENGINE.png,,,,,,,,,,,,,,,,,,,,,,,,,,,,,,,,,,,
,,,,,,,,,,,,,,,,,60ecba072cfc4af3b5f9a7e6,59,2022-02-12_13h30.08.532,lexical_decision_task_DD_L5,2021.2.3,Win32,60.51803437,,,,,,,,,,,0.5912,1,,,,,,,,,,,,,,,m,1,0.5912,,,,,,,,-0.083333333,-0.372395833,0,0,0,,0,128,128,71,1,BUBBLE,C,old,m,./images/BUBBLE.png,,,,,,,,,,,,,,,,,,,,,,,,,,,,,,,,,,,
,,,,,,,,,,,,,,,,,60ecba072cfc4af3b5f9a7e6,59,2022-02-12_13h30.08.532,lexical_decision_task_DD_L5,2021.2.3,Win32,60.51803437,,,,,,,,,,,0.6703,1,,,,,,,,,,,,,,,m,1,0.6703,,,,,,,,-0.083333333,-0.372395833,0,0,0,,0,129,129,19,1,DONKEY,LB,old,m,./images/DONKEYLB.png,,,,,,,,,,,,,,,,,,,,,,,,,,,,,,,,,,,
,,,,,,,,,,,,,,,,,60ecba072cfc4af3b5f9a7e6,59,2022-02-12_13h30.08.532,lexical_decision_task_DD_L5,2021.2.3,Win32,60.51803437,,,,,,,,,,,0.7869,1,,,,,,,,,,,,,,,z,1,0.7869,,,,,,,,-0.083333333,-0.372395833,0,0,0,,0,130,130,135,1,JOODY,C,old,z,./images/JOODY.png,,,,,,,,,,,,,,,,,,,,,,,,,,,,,,,,,,,
,,,,,,,,,,,,,,,,,60ecba072cfc4af3b5f9a7e6,59,2022-02-12_13h30.08.532,lexical_decision_task_DD_L5,2021.2.3,Win32,60.51803437,,,,,,,,,,,0.6377,1,,,,,,,,,,,,,,,m,1,0.6377,,,,,,,,-0.083333333,-0.372395833,0,0,0,,0,131,131,70,1,BANANA,LB,old,m,./images/BANANALB.png,,,,,,,,,,,,,,,,,,,,,,,,,,,,,,,,,,,
,,,,,,,,,,,,,,,,,60ecba072cfc4af3b5f9a7e6,59,2022-02-12_13h30.08.532,lexical_decision_task_DD_L5,2021.2.3,Win32,60.51803437,,,,,,,,,,,0.683,1,,,,,,,,,,,,,,,z,1,0.683,,,,,,,,-0.083333333,-0.372395833,0,0,0,,0,132,132,162,1,LEICH,C,old,z,./images/LEICH.png,,,,,,,,,,,,,,,,,,,,,,,,,,,,,,,,,,,
,,,,,,,,,,,,,,,,,60ecba072cfc4af3b5f9a7e6,59,2022-02-12_13h30.08.532,lexical_decision_task_DD_L5,2021.2.3,Win32,60.51803437,,,,,,,,,,,0.8463,1,,,,,,,,,,,,,,,m,1,0.8463,,,,,,,,-0.083333333,-0.372395833,0,0,0,,0,133,133,60,1,CURRY,HB,old,m,./images/CURRYHB.png,,,,,,,,,,,,,,,,,,,,,,,,,,,,,,,,,,,
,,,,,,,,,,,,,,,,,60ecba072cfc4af3b5f9a7e6,59,2022-02-12_13h30.08.532,lexical_decision_task_DD_L5,2021.2.3,Win32,60.51803437,,,,,,,,,,,0.7097,1,,,,,,,,,,,,,,,z,1,0.7097,,,,,,,,-0.083333333,-0.372395833,0,0,0,,0,134,134,116,1,BALGY,LB,old,z,./images/BALGYLB.png,,,,,,,,,,,,,,,,,,,,,,,,,,,,,,,,,,,
,,,,,,,,,,,,,,,,,60ecba072cfc4af3b5f9a7e6,59,2022-02-12_13h30.08.532,lexical_decision_task_DD_L5,2021.2.3,Win32,60.51803437,,,,,,,,,,,1.0898,1,,,,,,,,,,,,,,,z,1,1.0898,,,,,,,,-0.083333333,-0.372395833,0,0,0,,0,135,135,163,1,GAMBA,HB,old,z,./images/GAMBAHB.png,,,,,,,,,,,,,,,,,,,,,,,,,,,,,,,,,,,
,,,,,,,,,,,,,,,,,60ecba072cfc4af3b5f9a7e6,59,2022-02-12_13h30.08.532,lexical_decision_task_DD_L5,2021.2.3,Win32,60.51803437,,,,,,,,,,,0.8633,1,,,,,,,,,,,,,,,z,1,0.8633,,,,,,,,-0.083333333,-0.372395833,0,0,0,,0,136,136,164,1,SGREW,LB,old,z,./images/SGREWLB.png,,,,,,,,,,,,,,,,,,,,,,,,,,,,,,,,,,,
,,,,,,,,,,,,,,,,,60ecba072cfc4af3b5f9a7e6,59,2022-02-12_13h30.08.532,lexical_decision_task_DD_L5,2021.2.3,Win32,60.51803437,,,,,,,,,,,0.6285,1,,,,,,,,,,,,,,,m,1,0.6285,,,,,,,,-0.083333333,-0.372395833,0,0,0,,0,137,137,1,1,TOWEL,LB,old,m,./images/TOWELLB.png,,,,,,,,,,,,,,,,,,,,,,,,,,,,,,,,,,,
,,,,,,,,,,,,,,,,,60ecba072cfc4af3b5f9a7e6,59,2022-02-12_13h30.08.532,lexical_decision_task_DD_L5,2021.2.3,Win32,60.51803437,,,,,,,,,,,0.6572,1,,,,,,,,,,,,,,,m,1,0.6572,,,,,,,,-0.083333333,-0.372395833,0,0,0,,0,138,138,56,1,HEATER,C,old,m,./images/HEATER.png,,,,,,,,,,,,,,,,,,,,,,,,,,,,,,,,,,,
,,,,,,,,,,,,,,,,,60ecba072cfc4af3b5f9a7e6,59,2022-02-12_13h30.08.532,lexical_decision_task_DD_L5,2021.2.3,Win32,60.51803437,,,,,,,,,,,0.7782,0,,,,,,,,,,,,,,,m,0,0.7782,,,,,,,,-0.083333333,-0.372395833,0,0,0,,0,139,139,142,1,PLASK,HB,old,z,./images/PLASKHB.png,,,,,,,,,,,,,,,,,,,,,,,,,,,,,,,,,,,
,,,,,,,,,,,,,,,,,60ecba072cfc4af3b5f9a7e6,59,2022-02-12_13h30.08.532,lexical_decision_task_DD_L5,2021.2.3,Win32,60.51803437,,,,,,,,,,,0.7716,1,,,,,,,,,,,,,,,z,1,0.7716,,,,,,,,-0.083333333,-0.372395833,0,0,0,,0,140,140,119,1,PAFER,LB,old,z,./images/PAFERLB.png,,,,,,,,,,,,,,,,,,,,,,,,,,,,,,,,,,,
,,,,,,,,,,,,,,,,,60ecba072cfc4af3b5f9a7e6,59,2022-02-12_13h30.08.532,lexical_decision_task_DD_L5,2021.2.3,Win32,60.51803437,,,,,,,,,,,0.5974,1,,,,,,,,,,,,,,,m,1,0.5974,,,,,,,,-0.083333333,-0.372395833,0,0,0,,0,141,141,49,1,BISHOP,LB,old,m,./images/BISHOPLB.png,,,,,,,,,,,,,,,,,,,,,,,,,,,,,,,,,,,
,,,,,,,,,,,,,,,,,60ecba072cfc4af3b5f9a7e6,59,2022-02-12_13h30.08.532,lexical_decision_task_DD_L5,2021.2.3,Win32,60.51803437,,,,,,,,,,,0.736,1,,,,,,,,,,,,,,,m,1,0.736,,,,,,,,-0.083333333,-0.372395833,0,0,0,,0,142,142,76,1,MIDGET,LB,old,m,./images/MIDGETLB.png,,,,,,,,,,,,,,,,,,,,,,,,,,,,,,,,,,,
,,,,,,,,,,,,,,,,,60ecba072cfc4af3b5f9a7e6,59,2022-02-12_13h30.08.532,lexical_decision_task_DD_L5,2021.2.3,Win32,60.51803437,,,,,,,,,,,0.7519,1,,,,,,,,,,,,,,,m,1,0.7519,,,,,,,,-0.083333333,-0.372395833,0,0,0,,0,143,143,53,1,POSTER,C,old,m,./images/POSTER.png,,,,,,,,,,,,,,,,,,,,,,,,,,,,,,,,,,,
,,,,,,,,,,,,,,,,,60ecba072cfc4af3b5f9a7e6,59,2022-02-12_13h30.08.532,lexical_decision_task_DD_L5,2021.2.3,Win32,60.51803437,,,,,,,,,,,0.7285,1,,,,,,,,,,,,,,,m,1,0.7285,,,,,,,,-0.083333333,-0.372395833,0,0,0,,0,144,144,39,1,CANDY,HB,old,m,./images/CANDYHB.png,,,,,,,,,,,,,,,,,,,,,,,,,,,,,,,,,,,
,,,,,,,,,,,,,,,,,60ecba072cfc4af3b5f9a7e6,59,2022-02-12_13h30.08.532,lexical_decision_task_DD_L5,2021.2.3,Win32,60.51803437,,,,,,,,,,,0.8918,1,,,,,,,,,,,,,,,z,1,0.8918,,,,,,,,-0.083333333,-0.372395833,0,0,0,,0,145,145,121,1,CEERS,HB,old,z,./images/CEERSHB.png,,,,,,,,,,,,,,,,,,,,,,,,,,,,,,,,,,,
,,,,,,,,,,,,,,,,,60ecba072cfc4af3b5f9a7e6,59,2022-02-12_13h30.08.532,lexical_decision_task_DD_L5,2021.2.3,Win32,60.51803437,,,,,,,,,,,0.7564,1,,,,,,,,,,,,,,,z,1,0.7564,,,,,,,,-0.083333333,-0.372395833,0,0,0,,0,146,146,86,1,AIFED,LB,old,z,./images/AIFEDLB.png,,,,,,,,,,,,,,,,,,,,,,,,,,,,,,,,,,,
,,,,,,,,,,,,,,,,,60ecba072cfc4af3b5f9a7e6,59,2022-02-12_13h30.08.532,lexical_decision_task_DD_L5,2021.2.3,Win32,60.51803437,,,,,,,,,,,0.9879,0,,,,,,,,,,,,,,,m,0,0.9879,,,,,,,,-0.083333333,-0.372395833,0,0,0,,0,147,147,128,1,GRIFT,LB,old,z,./images/GRIFTLB.png,,,,,,,,,,,,,,,,,,,,,,,,,,,,,,,,,,,
,,,,,,,,,,,,,,,,,60ecba072cfc4af3b5f9a7e6,59,2022-02-12_13h30.08.532,lexical_decision_task_DD_L5,2021.2.3,Win32,60.51803437,,,,,,,,,,,1.0847,0,,,,,,,,,,,,,,,m,0,1.0847,,,,,,,,-0.083333333,-0.372395833,0,0,0,,0,148,148,130,1,CRILL,HB,old,z,./images/CRILLHB.png,,,,,,,,,,,,,,,,,,,,,,,,,,,,,,,,,,,
,,,,,,,,,,,,,,,,,60ecba072cfc4af3b5f9a7e6,59,2022-02-12_13h30.08.532,lexical_decision_task_DD_L5,2021.2.3,Win32,60.51803437,,,,,,,,,,,1.2816,1,,,,,,,,,,,,,,,z,1,1.2816,,,,,,,,-0.083333333,-0.372395833,0,0,0,,0,149,149,166,1,SHORY,HB,old,z,./images/SHORYHB.png,,,,,,,,,,,,,,,,,,,,,,,,,,,,,,,,,,,
,,,,,,,,,,,,,,,,,60ecba072cfc4af3b5f9a7e6,59,2022-02-12_13h30.08.532,lexical_decision_task_DD_L5,2021.2.3,Win32,60.51803437,,,,,,,,,,,0.8995,1,,,,,,,,,,,,,,,z,1,0.8995,,,,,,,,-0.083333333,-0.372395833,0,0,0,,0,150,150,148,1,JOMS,HB,old,z,./images/JOMSHB.png,,,,,,,,,,,,,,,,,,,,,,,,,,,,,,,,,,,
,,,,,,,,,,,,,,,,,60ecba072cfc4af3b5f9a7e6,59,2022-02-12_13h30.08.532,lexical_decision_task_DD_L5,2021.2.3,Win32,60.51803437,,,,,,,,,,,0.8685,1,,,,,,,,,,,,,,,z,1,0.8685,,,,,,,,-0.083333333,-0.372395833,0,0,0,,0,151,151,87,1,TRING,C,old,z,./images/TRING.png,,,,,,,,,,,,,,,,,,,,,,,,,,,,,,,,,,,
,,,,,,,,,,,,,,,,,60ecba072cfc4af3b5f9a7e6,59,2022-02-12_13h30.08.532,lexical_decision_task_DD_L5,2021.2.3,Win32,60.51803437,,,,,,,,,,,0.7108,1,,,,,,,,,,,,,,,m,1,0.7108,,,,,,,,-0.083333333,-0.372395833,0,0,0,,0,152,152,83,1,WHISKY,C,old,m,./images/WHISKY.png,,,,,,,,,,,,,,,,,,,,,,,,,,,,,,,,,,,
,,,,,,,,,,,,,,,,,60ecba072cfc4af3b5f9a7e6,59,2022-02-12_13h30.08.532,lexical_decision_task_DD_L5,2021.2.3,Win32,60.51803437,,,,,,,,,,,0.9729,1,,,,,,,,,,,,,,,m,1,0.9729,,,,,,,,-0.083333333,-0.372395833,0,0,0,,0,153,153,33,1,SAUNA,HB,old,m,./images/SAUNAHB.png,,,,,,,,,,,,,,,,,,,,,,,,,,,,,,,,,,,
,,,,,,,,,,,,,,,,,60ecba072cfc4af3b5f9a7e6,59,2022-02-12_13h30.08.532,lexical_decision_task_DD_L5,2021.2.3,Win32,60.51803437,,,,,,,,,,,0.6424,1,,,,,,,,,,,,,,,m,1,0.6424,,,,,,,,-0.08203125,-0.372395833,0,0,0,,0,154,154,80,1,PLANET,C,old,m,./images/PLANET.png,,,,,,,,,,,,,,,,,,,,,,,,,,,,,,,,,,,
,,,,,,,,,,,,,,,,,60ecba072cfc4af3b5f9a7e6,59,2022-02-12_13h30.08.532,lexical_decision_task_DD_L5,2021.2.3,Win32,60.51803437,,,,,,,,,,,0.7914,1,,,,,,,,,,,,,,,z,1,0.7914,,,,,,,,-0.08203125,-0.372395833,0,0,0,,0,155,155,150,1,NOOLS,C,old,z,./images/NOOLS.png,,,,,,,,,,,,,,,,,,,,,,,,,,,,,,,,,,,
,,,,,,,,,,,,,,,,,60ecba072cfc4af3b5f9a7e6,59,2022-02-12_13h30.08.532,lexical_decision_task_DD_L5,2021.2.3,Win32,60.51803437,,,,,,,,,,,0.9495,1,,,,,,,,,,,,,,,z,1,0.9495,,,,,,,,-0.08203125,-0.372395833,0,0,0,,0,156,156,101,1,GLEET,LB,old,z,./images/GLEETLB.png,,,,,,,,,,,,,,,,,,,,,,,,,,,,,,,,,,,
,,,,,,,,,,,,,,,,,60ecba072cfc4af3b5f9a7e6,59,2022-02-12_13h30.08.532,lexical_decision_task_DD_L5,2021.2.3,Win32,60.51803437,,,,,,,,,,,0.5799,1,,,,,,,,,,,,,,,m,1,0.5799,,,,,,,,-0.08203125,-0.372395833,0,0,0,,0,157,157,46,1,MUMMY,LB,old,m,./images/MUMMYLB.png,,,,,,,,,,,,,,,,,,,,,,,,,,,,,,,,,,,
,,,,,,,,,,,,,,,,,60ecba072cfc4af3b5f9a7e6,59,2022-02-12_13h30.08.532,lexical_decision_task_DD_L5,2021.2.3,Win32,60.51803437,,,,,,,,,,,0.7781,1,,,,,,,,,,,,,,,z,1,0.7781,,,,,,,,-0.08203125,-0.372395833,0,0,0,,0,158,158,131,1,NACES,LB,old,z,./images/NACESLB.png,,,,,,,,,,,,,,,,,,,,,,,,,,,,,,,,,,,
,,,,,,,,,,,,,,,,,60ecba072cfc4af3b5f9a7e6,59,2022-02-12_13h30.08.532,lexical_decision_task_DD_L5,2021.2.3,Win32,60.51803437,,,,,,,,,,,0.6568,1,,,,,,,,,,,,,,,m,1,0.6568,,,,,,,,-0.08203125,-0.372395833,0,0,0,,0,159,159,29,1,PISTOL,C,old,m,./images/PISTOL.png,,,,,,,,,,,,,,,,,,,,,,,,,,,,,,,,,,,
,,,,,,,,,,,,,,,,,60ecba072cfc4af3b5f9a7e6,59,2022-02-12_13h30.08.532,lexical_decision_task_DD_L5,2021.2.3,Win32,60.51803437,,,,,,,,,,,0.7693,1,,,,,,,,,,,,,,,z,1,0.7693,,,,,,,,-0.08203125,-0.372395833,0,0,0,,0,160,160,125,1,MOOKY,LB,old,z,./images/MOOKYLB.png,,,,,,,,,,,,,,,,,,,,,,,,,,,,,,,,,,,
,,,,,,,,,,,,,,,,,60ecba072cfc4af3b5f9a7e6,59,2022-02-12_13h30.08.532,lexical_decision_task_DD_L5,2021.2.3,Win32,60.51803437,,,,,,,,,,,0.7282,1,,,,,,,,,,,,,,,m,1,0.7282,,,,,,,,-0.08203125,-0.372395833,0,0,0,,0,161,161,51,1,SAUCE,HB,old,m,./images/SAUCEHB.png,,,,,,,,,,,,,,,,,,,,,,,,,,,,,,,,,,,
,,,,,,,,,,,,,,,,,60ecba072cfc4af3b5f9a7e6,59,2022-02-12_13h30.08.532,lexical_decision_task_DD_L5,2021.2.3,Win32,60.51803437,,,,,,,,,,,0.8995,1,,,,,,,,,,,,,,,m,1,0.8995,,,,,,,,-0.08203125,-0.372395833,0,0,0,,0,162,162,24,1,FLESH,HB,old,m,./images/FLESHHB.png,,,,,,,,,,,,,,,,,,,,,,,,,,,,,,,,,,,
,,,,,,,,,,,,,,,,,60ecba072cfc4af3b5f9a7e6,59,2022-02-12_13h30.08.532,lexical_decision_task_DD_L5,2021.2.3,Win32,60.51803437,,,,,,,,,,,1.0309,1,,,,,,,,,,,,,,,m,1,1.0309,,,,,,,,-0.08203125,-0.372395833,0,0,0,,0,163,163,52,1,DESERT,LB,old,m,./images/DESERTLB.png,,,,,,,,,,,,,,,,,,,,,,,,,,,,,,,,,,,
,,,,,,,,,,,,,,,,,60ecba072cfc4af3b5f9a7e6,59,2022-02-12_13h30.08.532,lexical_decision_task_DD_L5,2021.2.3,Win32,60.51803437,,,,,,,,,,,0.9294,1,,,,,,,,,,,,,,,z,1,0.9294,,,,,,,,-0.0859375,-0.37109375,0,0,0,,0,164,164,149,1,VEASE,LB,old,z,./images/VEASELB.png,,,,,,,,,,,,,,,,,,,,,,,,,,,,,,,,,,,
,,,,,,,,,,,,,,,,,60ecba072cfc4af3b5f9a7e6,59,2022-02-12_13h30.08.532,lexical_decision_task_DD_L5,2021.2.3,Win32,60.51803437,,,,,,,,,,,0.5753,1,,,,,,,,,,,,,,,m,1,0.5753,,,,,,,,-0.0859375,-0.37109375,0,0,0,,0,165,165,77,1,WHEEL,C,old,m,./images/WHEEL.png,,,,,,,,,,,,,,,,,,,,,,,,,,,,,,,,,,,
,,,,,,,,,,,,,,,,,60ecba072cfc4af3b5f9a7e6,59,2022-02-12_13h30.08.532,lexical_decision_task_DD_L5,2021.2.3,Win32,60.51803437,,,,,,,,,,,0.613,1,,,,,,,,,,,,,,,m,1,0.613,,,,,,,,-0.0859375,-0.37109375,0,0,0,,0,166,166,16,1,GRAPE,LB,old,m,./images/GRAPELB.png,,,,,,,,,,,,,,,,,,,,,,,,,,,,,,,,,,,
,,,,,,,,,,,,,,,,,60ecba072cfc4af3b5f9a7e6,59,2022-02-12_13h30.08.532,lexical_decision_task_DD_L5,2021.2.3,Win32,60.51803437,,,,,,,,,,,0.9351,1,,,,,,,,,,,,,,,z,1,0.9351,,,,,,,,-0.0859375,-0.37109375,0,0,0,,0,167,167,106,1,CLUMS,HB,old,z,./images/CLUMSHB.png,,,,,,,,,,,,,,,,,,,,,,,,,,,,,,,,,,,
,,,,,,,,,,,,,,,,,60ecba072cfc4af3b5f9a7e6,59,2022-02-12_13h30.08.532,lexical_decision_task_DD_L5,2021.2.3,Win32,60.51803437,,,,,,,,,,,,,,,,,,,,,,,,,,,,,,,,,,,,,,,,,,,,,,,,,How likely will it be that you will recognize the words presented slighly blurred on a scale of 0 (not likely) to 100 (most likely)?,,,,,,0.002604167,-0.411458333,1,0,0,jol_adv,6,8.4651,0,0,0,1,1,,,,,,,,,,,,,,,,,,,,
,,,,,,,,,,,,,,,,,60ecba072cfc4af3b5f9a7e6,59,2022-02-12_13h30.08.532,lexical_decision_task_DD_L5,2021.2.3,Win32,60.51803437,,,,,,,,,,,,,,,,,,,,,,,,,,,,,,,,,,,,,,,,,,,,,,,,,How likely will it be that you will recognize the words presented clearly on a scale of 0 (not likely) to 100 (most likely)?,,,,,,,,,,,,6,8.9901,0,1,1,0,1,,,,,,,,,,,,,,,,,,,,
,,,,,,,,,,,,,,,,,60ecba072cfc4af3b5f9a7e6,59,2022-02-12_13h30.08.532,lexical_decision_task_DD_L5,2021.2.3,Win32,60.51803437,,,,,,,,,,,,,,,,,,,,,,,,,,,,,,,,,,,,,,,,,,,,,,,,,How likely will it be that you will recognize the words presented very blurred on a scale of 0 (not likely) to 100 (most likely)?,,,,,,,,,,,,5,4.7969,0,2,2,2,1,,,,,,,,,,,,,,,,,,,,
space,0.3203125,-0.11328125,0,0,0,,,,,,,1,test,"In the next phase you will be presented with the words from the the first phase. Your job is to decide whether you remember seeing the word or not. If you remember seeing the word press ""old"" or type ""m"". If you do not remember seeing the word press ""new"" or type ""z"". Please press the space bar or click on continue to begin. ",,,60ecba072cfc4af3b5f9a7e6,59,2022-02-12_13h30.08.532,lexical_decision_task_DD_L5,2021.2.3,Win32,60.51803437,,,,,,,,,,,,,,,,,,,,,38.0605,,,,,,,,,,,,,,,,,,,,,,,,,,,,,,,,,,,,,,,,,,,,,,,0,0,0,0,1,,,,,,,,,,,,,,,
,-0.00390625,-0.41015625,1,0,0,instr_done_button,,,,,,1,test,"In the next phase you will be presented with the words from the the first phase. Your job is to decide whether you remember seeing the word or not. If you remember seeing the word press ""old"" or type ""m"". If you do not remember seeing the word press ""new"" or type ""z"". Please press the space bar or click on continue to begin. ",,,60ecba072cfc4af3b5f9a7e6,59,2022-02-12_13h30.08.532,lexical_decision_task_DD_L5,2021.2.3,Win32,60.51803437,,,,,,,,,,,,,,,,,,,,,,,,,,,,,,,,,,,,,,,,,,,,,,,,,,,,,,,,,,,,,,,,,,,,1,0,1,0,1,,,,,,,,,,,,,,,
,-0.055989583,-0.381510417,1,0,0,instr_done_button,,,,,,1,test,"In the next phase you will be presented with the words from the the first phase. Your job is to decide whether you remember seeing the word or not. If you remember seeing the word press ""old"" or type ""m"". If you do not remember seeing the word press ""new"" or type ""z"". Please press the space bar or click on continue to begin. ",,,60ecba072cfc4af3b5f9a7e6,59,2022-02-12_13h30.08.532,lexical_decision_task_DD_L5,2021.2.3,Win32,60.51803437,,,,,,,,,,,,,,,,,,,,,,,,,,,,,,,,,,,,,,,,,,,,,,,,,,,,,,,,,,,,,,,,,,,,2,0,2,0,1,,,,,,,,,,,,,,,
,-0.016927083,-0.41015625,1,0,0,instr_done_button,,,,,,1,test,"In the next phase you will be presented with the words from the the first phase. Your job is to decide whether you remember seeing the word or not. If you remember seeing the word press ""old"" or type ""m"". If you do not remember seeing the word press ""new"" or type ""z"". Please press the space bar or click on continue to begin. ",,,60ecba072cfc4af3b5f9a7e6,59,2022-02-12_13h30.08.532,lexical_decision_task_DD_L5,2021.2.3,Win32,60.51803437,,,,,,,,,,,,,,,,,,,,,,,,,,,,,,,,,,,,,,,,,,,,,,,,,,,,,,,,,,,,,,,,,,,,3,0,3,0,1,,,,,,,,,,,,,,,
,-0.016927083,-0.41015625,1,0,0,instr_done_button,,,,,,1,test,"In the next phase you will be presented with the words from the the first phase. Your job is to decide whether you remember seeing the word or not. If you remember seeing the word press ""old"" or type ""m"". If you do not remember seeing the word press ""new"" or type ""z"". Please press the space bar or click on continue to begin. ",,,60ecba072cfc4af3b5f9a7e6,59,2022-02-12_13h30.08.532,lexical_decision_task_DD_L5,2021.2.3,Win32,60.51803437,,,,,,,,,,,,,,,,,,,,,,,,,,,,,,,,,,,,,,,,,,,,,,,,,,,,,,,,,,,,,,,,,,,,4,0,4,0,1,,,,,,,,,,,,,,,
,,,,,,,,,,,,,,,,,60ecba072cfc4af3b5f9a7e6,59,2022-02-12_13h30.08.532,lexical_decision_task_DD_L5,2021.2.3,Win32,60.51803437,,,,,,,,,,,4.4079,1,,,,,,,,,,,,,,,,,,,,,,,,,0.328125,-0.326822917,1,0,0,,,,,,,ENGINE,C,m,y,./images/ENGINE.png,,,,,,,,,,,,,,,,,,,,,,0,0.328125,-0.326822917,1,0,0,4.4079,button_right_test,0,0,0,38,1,
,,,,,,,,,,,,,,,,,60ecba072cfc4af3b5f9a7e6,59,2022-02-12_13h30.08.532,lexical_decision_task_DD_L5,2021.2.3,Win32,60.51803437,,,,,,,,,,,2.4785,1,,,,,,,,,,,,,,,,,,,,,,,,,0.322916667,-0.329427083,1,0,0,,,,,,,CLOTH,C,m,y,./images/CLOTH.png,,,,,,,,,,,,,,,,,,,,,,0,0.322916667,-0.329427083,1,0,0,2.4785,button_right_test,0,1,1,23,1,
,,,,,,,,,,,,,,,,,60ecba072cfc4af3b5f9a7e6,59,2022-02-12_13h30.08.532,lexical_decision_task_DD_L5,2021.2.3,Win32,60.51803437,,,,,,,,,,,0.8643,1,,,,,,,,,,,,,,,,,,,,,,,,,0.322916667,-0.329427083,1,0,0,,,,,,,MUMMY,LB,m,y,./images/MUMMYLB.png,,,,,,,,,,,,,,,,,,,,,,0,0.322916667,-0.329427083,1,0,0,0.8643,button_right_test,0,2,2,46,1,
,,,,,,,,,,,,,,,,,60ecba072cfc4af3b5f9a7e6,59,2022-02-12_13h30.08.532,lexical_decision_task_DD_L5,2021.2.3,Win32,60.51803437,,,,,,,,,,,0.98,0,,,,,,,,,,,,,,,,,,,,,,,,,0.322916667,-0.329427083,1,0,0,,,,,,,STRING,C,z,y,./images/STRING.png,,,,,,,,,,,,,,,,,,,,,,0,0.322916667,-0.329427083,1,0,0,0.98,button_right_test,0,3,3,125,1,
,,,,,,,,,,,,,,,,,60ecba072cfc4af3b5f9a7e6,59,2022-02-12_13h30.08.532,lexical_decision_task_DD_L5,2021.2.3,Win32,60.51803437,,,,,,,,,,,2.0129,1,,,,,,,,,,,,,,,,,,,,,,,,,-0.358072917,-0.329427083,1,0,0,,,,,,,QUILL,LB,z,y,./images/QUILLLB.png,,,,,,,,,,,,,,,,,,,,,,0,-0.358072917,-0.329427083,1,0,0,2.0129,button_left_test,0,4,4,115,1,
,,,,,,,,,,,,,,,,,60ecba072cfc4af3b5f9a7e6,59,2022-02-12_13h30.08.532,lexical_decision_task_DD_L5,2021.2.3,Win32,60.51803437,,,,,,,,,,,1.2803,1,,,,,,,,,,,,,,,,,,,,,,,,,0.33984375,-0.294270833,1,0,0,,,,,,,HEATER,C,m,y,./images/HEATER.png,,,,,,,,,,,,,,,,,,,,,,0,0.33984375,-0.294270833,1,0,0,1.2803,button_right_test,0,5,5,56,1,
,,,,,,,,,,,,,,,,,60ecba072cfc4af3b5f9a7e6,59,2022-02-12_13h30.08.532,lexical_decision_task_DD_L5,2021.2.3,Win32,60.51803437,,,,,,,,,,,1.2282,1,,,,,,,,,,,,,,,,,,,,,,,,,0.360677083,-0.305989583,1,0,0,,,,,,,BANANA,LB,m,y,./images/BANANALB.png,,,,,,,,,,,,,,,,,,,,,,0,0.360677083,-0.305989583,1,0,0,1.2282,button_right_test,0,6,6,70,1,
,,,,,,,,,,,,,,,,,60ecba072cfc4af3b5f9a7e6,59,2022-02-12_13h30.08.532,lexical_decision_task_DD_L5,2021.2.3,Win32,60.51803437,,,,,,,,,,,1.4804,1,,,,,,,,,,,,,,,,,,,,,,,,,0.360677083,-0.305989583,1,0,0,,,,,,,SAUCE,HB,m,y,./images/SAUCEHB.png,,,,,,,,,,,,,,,,,,,,,,0,0.360677083,-0.305989583,1,0,0,1.4804,button_right_test,0,7,7,51,1,
,,,,,,,,,,,,,,,,,60ecba072cfc4af3b5f9a7e6,59,2022-02-12_13h30.08.532,lexical_decision_task_DD_L5,2021.2.3,Win32,60.51803437,,,,,,,,,,,1.9297,1,,,,,,,,,,,,,,,,,,,,,,,,,-0.395833333,-0.302083333,1,0,0,,,,,,,TOMATO,HB,z,y,./images/TOMATOHB.png,,,,,,,,,,,,,,,,,,,,,,0,-0.395833333,-0.302083333,1,0,0,1.9297,button_left_test,0,8,8,84,1,
,,,,,,,,,,,,,,,,,60ecba072cfc4af3b5f9a7e6,59,2022-02-12_13h30.08.532,lexical_decision_task_DD_L5,2021.2.3,Win32,60.51803437,,,,,,,,,,,1.9631,1,,,,,,,,,,,,,,,,,,,,,,,,,-0.29296875,-0.32421875,1,0,0,,,,,,,PAINT,LB,z,y,./images/PAINTLB.png,,,,,,,,,,,,,,,,,,,,,,0,-0.29296875,-0.32421875,1,0,0,1.9631,button_left_test,0,9,9,91,1,
,,,,,,,,,,,,,,,,,60ecba072cfc4af3b5f9a7e6,59,2022-02-12_13h30.08.532,lexical_decision_task_DD_L5,2021.2.3,Win32,60.51803437,,,,,,,,,,,2.2963,1,,,,,,,,,,,,,,,,,,,,,,,,,-0.29296875,-0.32421875,1,0,0,,,,,,,KITTEN,HB,z,y,./images/KITTENHB.png,,,,,,,,,,,,,,,,,,,,,,0,-0.29296875,-0.32421875,1,0,0,2.2963,button_left_test,0,10,10,129,1,
,,,,,,,,,,,,,,,,,60ecba072cfc4af3b5f9a7e6,59,2022-02-12_13h30.08.532,lexical_decision_task_DD_L5,2021.2.3,Win32,60.51803437,,,,,,,,,,,3.5447,0,,,,,,,,,,,,,,,,,,,,,,,,,0.3671875,-0.305989583,1,0,0,,,,,,,MUFFIN,LB,z,y,./images/MUFFINLB.png,,,,,,,,,,,,,,,,,,,,,,0,0.3671875,-0.305989583,1,0,0,3.5447,button_right_test,0,11,11,139,1,
,,,,,,,,,,,,,,,,,60ecba072cfc4af3b5f9a7e6,59,2022-02-12_13h30.08.532,lexical_decision_task_DD_L5,2021.2.3,Win32,60.51803437,,,,,,,,,,,1.4645,1,,,,,,,,,,,,,,,,,,,,,,,,,0.36328125,-0.278645833,1,0,0,,,,,,,BRIDE,LB,m,y,./images/BRIDELB.png,,,,,,,,,,,,,,,,,,,,,,0,0.36328125,-0.278645833,1,0,0,1.4645,button_right_test,0,12,12,64,1,
,,,,,,,,,,,,,,,,,60ecba072cfc4af3b5f9a7e6,59,2022-02-12_13h30.08.532,lexical_decision_task_DD_L5,2021.2.3,Win32,60.51803437,,,,,,,,,,,1.4129,1,,,,,,,,,,,,,,,,,,,,,,,,,-0.381510417,-0.348958333,1,0,0,,,,,,,FINGER,HB,z,y,./images/FINGERHB.png,,,,,,,,,,,,,,,,,,,,,,0,-0.381510417,-0.348958333,1,0,0,1.4129,button_left_test,0,13,13,87,1,
,,,,,,,,,,,,,,,,,60ecba072cfc4af3b5f9a7e6,59,2022-02-12_13h30.08.532,lexical_decision_task_DD_L5,2021.2.3,Win32,60.51803437,,,,,,,,,,,2.1297,1,,,,,,,,,,,,,,,,,,,,,,,,,-0.381510417,-0.348958333,1,0,0,,,,,,,NOOSE,HB,z,y,./images/NOOSEHB.png,,,,,,,,,,,,,,,,,,,,,,0,-0.381510417,-0.348958333,1,0,0,2.1297,button_left_test,0,14,14,156,1,
,,,,,,,,,,,,,,,,,60ecba072cfc4af3b5f9a7e6,59,2022-02-12_13h30.08.532,lexical_decision_task_DD_L5,2021.2.3,Win32,60.51803437,,,,,,,,,,,2.5321,0,,,,,,,,,,,,,,,,,,,,,,,,,-0.381510417,-0.348958333,1,0,0,,,,,,,TOWEL,LB,m,y,./images/TOWELLB.png,,,,,,,,,,,,,,,,,,,,,,0,-0.381510417,-0.348958333,1,0,0,2.5321,button_left_test,0,15,15,1,1,
,,,,,,,,,,,,,,,,,60ecba072cfc4af3b5f9a7e6,59,2022-02-12_13h30.08.532,lexical_decision_task_DD_L5,2021.2.3,Win32,60.51803437,,,,,,,,,,,1.3117,1,,,,,,,,,,,,,,,,,,,,,,,,,-0.381510417,-0.348958333,1,0,0,,,,,,,BARREL,C,z,y,./images/BARREL.png,,,,,,,,,,,,,,,,,,,,,,0,-0.381510417,-0.348958333,1,0,0,1.3117,button_left_test,0,16,16,116,1,
,,,,,,,,,,,,,,,,,60ecba072cfc4af3b5f9a7e6,59,2022-02-12_13h30.08.532,lexical_decision_task_DD_L5,2021.2.3,Win32,60.51803437,,,,,,,,,,,1.0316,1,,,,,,,,,,,,,,,,,,,,,,,,,-0.381510417,-0.348958333,1,0,0,,,,,,,BIRTH,LB,z,y,./images/BIRTHLB.png,,,,,,,,,,,,,,,,,,,,,,0,-0.381510417,-0.348958333,1,0,0,1.0316,button_left_test,0,17,17,121,1,
,,,,,,,,,,,,,,,,,60ecba072cfc4af3b5f9a7e6,59,2022-02-12_13h30.08.532,lexical_decision_task_DD_L5,2021.2.3,Win32,60.51803437,,,,,,,,,,,1.4142,1,,,,,,,,,,,,,,,,,,,,,,,,,0.390625,-0.315104167,1,0,0,,,,,,,MIDGET,LB,m,y,./images/MIDGETLB.png,,,,,,,,,,,,,,,,,,,,,,0,0.390625,-0.315104167,1,0,0,1.4142,button_right_test,0,18,18,76,1,
,,,,,,,,,,,,,,,,,60ecba072cfc4af3b5f9a7e6,59,2022-02-12_13h30.08.532,lexical_decision_task_DD_L5,2021.2.3,Win32,60.51803437,,,,,,,,,,,1.3478,1,,,,,,,,,,,,,,,,,,,,,,,,,0.278645833,-0.30859375,1,0,0,,,,,,,FERRY,HB,m,y,./images/FERRYHB.png,,,,,,,,,,,,,,,,,,,,,,0,0.278645833,-0.30859375,1,0,0,1.3478,button_right_test,0,19,19,57,1,
,,,,,,,,,,,,,,,,,60ecba072cfc4af3b5f9a7e6,59,2022-02-12_13h30.08.532,lexical_decision_task_DD_L5,2021.2.3,Win32,60.51803437,,,,,,,,,,,1.4004,1,,,,,,,,,,,,,,,,,,,,,,,,,-0.342447917,-0.295572917,1,0,0,,,,,,,GRAIN,HB,z,y,./images/GRAINHB.png,,,,,,,,,,,,,,,,,,,,,,0,-0.342447917,-0.295572917,1,0,0,1.4004,button_left_test,0,20,20,159,1,
,,,,,,,,,,,,,,,,,60ecba072cfc4af3b5f9a7e6,59,2022-02-12_13h30.08.532,lexical_decision_task_DD_L5,2021.2.3,Win32,60.51803437,,,,,,,,,,,1.8805,1,,,,,,,,,,,,,,,,,,,,,,,,,-0.294270833,-0.290364583,1,0,0,,,,,,,CEMENT,C,z,y,./images/CEMENT.png,,,,,,,,,,,,,,,,,,,,,,0,-0.294270833,-0.290364583,1,0,0,1.8805,button_left_test,0,21,21,158,1,
,,,,,,,,,,,,,,,,,60ecba072cfc4af3b5f9a7e6,59,2022-02-12_13h30.08.532,lexical_decision_task_DD_L5,2021.2.3,Win32,60.51803437,,,,,,,,,,,1.4303,1,,,,,,,,,,,,,,,,,,,,,,,,,-0.407552083,-0.31640625,1,0,0,,,,,,,BURIAL,C,z,y,./images/BURIAL.png,,,,,,,,,,,,,,,,,,,,,,0,-0.407552083,-0.31640625,1,0,0,1.4303,button_left_test,0,22,22,143,1,
,,,,,,,,,,,,,,,,,60ecba072cfc4af3b5f9a7e6,59,2022-02-12_13h30.08.532,lexical_decision_task_DD_L5,2021.2.3,Win32,60.51803437,,,,,,,,,,,1.2806,1,,,,,,,,,,,,,,,,,,,,,,,,,0.291666667,-0.302083333,1,0,0,,,,,,,WHISKY,C,m,y,./images/WHISKY.png,,,,,,,,,,,,,,,,,,,,,,0,0.291666667,-0.302083333,1,0,0,1.2806,button_right_test,0,23,23,83,1,
,,,,,,,,,,,,,,,,,60ecba072cfc4af3b5f9a7e6,59,2022-02-12_13h30.08.532,lexical_decision_task_DD_L5,2021.2.3,Win32,60.51803437,,,,,,,,,,,1.4808,1,,,,,,,,,,,,,,,,,,,,,,,,,-0.326822917,-0.302083333,1,0,0,,,,,,,SKIING,C,z,y,./images/SKIING.png,,,,,,,,,,,,,,,,,,,,,,0,-0.326822917,-0.302083333,1,0,0,1.4808,button_left_test,0,24,24,101,1,
,,,,,,,,,,,,,,,,,60ecba072cfc4af3b5f9a7e6,59,2022-02-12_13h30.08.532,lexical_decision_task_DD_L5,2021.2.3,Win32,60.51803437,,,,,,,,,,,1.6642,1,,,,,,,,,,,,,,,,,,,,,,,,,-0.373697917,-0.3125,1,0,0,,,,,,,COUCH,C,z,y,./images/COUCH.png,,,,,,,,,,,,,,,,,,,,,,0,-0.373697917,-0.3125,1,0,0,1.6642,button_left_test,0,25,25,161,1,
,,,,,,,,,,,,,,,,,60ecba072cfc4af3b5f9a7e6,59,2022-02-12_13h30.08.532,lexical_decision_task_DD_L5,2021.2.3,Win32,60.51803437,,,,,,,,,,,1.3968,1,,,,,,,,,,,,,,,,,,,,,,,,,-0.391927083,-0.276041667,1,0,0,,,,,,,DOUGH,LB,z,y,./images/DOUGHLB.png,,,,,,,,,,,,,,,,,,,,,,0,-0.391927083,-0.276041667,1,0,0,1.3968,button_left_test,0,26,26,103,1,
,,,,,,,,,,,,,,,,,60ecba072cfc4af3b5f9a7e6,59,2022-02-12_13h30.08.532,lexical_decision_task_DD_L5,2021.2.3,Win32,60.51803437,,,,,,,,,,,1.8631,1,,,,,,,,,,,,,,,,,,,,,,,,,0.34375,-0.32421875,1,0,0,,,,,,,GRAPE,LB,m,y,./images/GRAPELB.png,,,,,,,,,,,,,,,,,,,,,,0,0.34375,-0.32421875,1,0,0,1.8631,button_right_test,0,27,27,16,1,
,,,,,,,,,,,,,,,,,60ecba072cfc4af3b5f9a7e6,59,2022-02-12_13h30.08.532,lexical_decision_task_DD_L5,2021.2.3,Win32,60.51803437,,,,,,,,,,,1.2476,1,,,,,,,,,,,,,,,,,,,,,,,,,0.376302083,-0.28515625,1,0,0,,,,,,,FENCE,C,m,y,./images/FENCE.png,,,,,,,,,,,,,,,,,,,,,,0,0.376302083,-0.28515625,1,0,0,1.2476,button_right_test,0,28,28,14,1,
,,,,,,,,,,,,,,,,,60ecba072cfc4af3b5f9a7e6,59,2022-02-12_13h30.08.532,lexical_decision_task_DD_L5,2021.2.3,Win32,60.51803437,,,,,,,,,,,1.4641,0,,,,,,,,,,,,,,,,,,,,,,,,,-0.358072917,-0.2734375,1,0,0,,,,,,,PLANET,C,m,y,./images/PLANET.png,,,,,,,,,,,,,,,,,,,,,,0,-0.358072917,-0.2734375,1,0,0,1.4641,button_left_test,0,29,29,80,1,
,,,,,,,,,,,,,,,,,60ecba072cfc4af3b5f9a7e6,59,2022-02-12_13h30.08.532,lexical_decision_task_DD_L5,2021.2.3,Win32,60.51803437,,,,,,,,,,,1.3473,1,,,,,,,,,,,,,,,,,,,,,,,,,0.377604167,-0.274739583,1,0,0,,,,,,,GRANNY,C,m,y,./images/GRANNY.png,,,,,,,,,,,,,,,,,,,,,,0,0.377604167,-0.274739583,1,0,0,1.3473,button_right_test,0,30,30,20,1,
,,,,,,,,,,,,,,,,,60ecba072cfc4af3b5f9a7e6,59,2022-02-12_13h30.08.532,lexical_decision_task_DD_L5,2021.2.3,Win32,60.51803437,,,,,,,,,,,1.2779,1,,,,,,,,,,,,,,,,,,,,,,,,,-0.42578125,-0.28125,1,0,0,,,,,,,KIDNEY,HB,z,y,./images/KIDNEYHB.png,,,,,,,,,,,,,,,,,,,,,,0,-0.42578125,-0.28125,1,0,0,1.2779,button_left_test,0,31,31,105,1,
,,,,,,,,,,,,,,,,,60ecba072cfc4af3b5f9a7e6,59,2022-02-12_13h30.08.532,lexical_decision_task_DD_L5,2021.2.3,Win32,60.51803437,,,,,,,,,,,1.6467,0,,,,,,,,,,,,,,,,,,,,,,,,,-0.373697917,-0.3125,1,0,0,,,,,,,STATUE,HB,m,y,./images/STATUEHB.png,,,,,,,,,,,,,,,,,,,,,,0,-0.373697917,-0.3125,1,0,0,1.6467,button_left_test,0,32,32,66,1,
,,,,,,,,,,,,,,,,,60ecba072cfc4af3b5f9a7e6,59,2022-02-12_13h30.08.532,lexical_decision_task_DD_L5,2021.2.3,Win32,60.51803437,,,,,,,,,,,1.6474,1,,,,,,,,,,,,,,,,,,,,,,,,,0.328125,-0.28515625,1,0,0,,,,,,,STAIN,HB,m,y,./images/STAINHB.png,,,,,,,,,,,,,,,,,,,,,,0,0.328125,-0.28515625,1,0,0,1.6474,button_right_test,0,33,33,6,1,
,,,,,,,,,,,,,,,,,60ecba072cfc4af3b5f9a7e6,59,2022-02-12_13h30.08.532,lexical_decision_task_DD_L5,2021.2.3,Win32,60.51803437,,,,,,,,,,,2.0637,1,,,,,,,,,,,,,,,,,,,,,,,,,-0.326822917,-0.3125,1,0,0,,,,,,,TORCH,C,z,y,./images/TORCH.png,,,,,,,,,,,,,,,,,,,,,,0,-0.326822917,-0.3125,1,0,0,2.0637,button_left_test,0,34,34,152,1,
,,,,,,,,,,,,,,,,,60ecba072cfc4af3b5f9a7e6,59,2022-02-12_13h30.08.532,lexical_decision_task_DD_L5,2021.2.3,Win32,60.51803437,,,,,,,,,,,5.1601,1,,,,,,,,,,,,,,,,,,,,,,,,,0.39453125,-0.298177083,1,0,0,,,,,,,PILOT,C,m,y,./images/PILOT.png,,,,,,,,,,,,,,,,,,,,,,0,0.39453125,-0.298177083,1,0,0,5.1601,button_right_test,0,35,35,50,1,
,,,,,,,,,,,,,,,,,60ecba072cfc4af3b5f9a7e6,59,2022-02-12_13h30.08.532,lexical_decision_task_DD_L5,2021.2.3,Win32,60.51803437,,,,,,,,,,,5.1248,0,,,,,,,,,,,,,,,,,,,,,,,,,0.376302083,-0.315104167,1,0,0,,,,,,,STORM,HB,z,y,./images/STORMHB.png,,,,,,,,,,,,,,,,,,,,,,0,0.376302083,-0.315104167,1,0,0,5.1248,button_right_test,0,36,36,114,1,
,,,,,,,,,,,,,,,,,60ecba072cfc4af3b5f9a7e6,59,2022-02-12_13h30.08.532,lexical_decision_task_DD_L5,2021.2.3,Win32,60.51803437,,,,,,,,,,,1.198,1,,,,,,,,,,,,,,,,,,,,,,,,,0.364583333,-0.291666667,1,0,0,,,,,,,BASKET,C,m,y,./images/BASKET.png,,,,,,,,,,,,,,,,,,,,,,0,0.364583333,-0.291666667,1,0,0,1.198,button_right_test,0,37,37,44,1,
,,,,,,,,,,,,,,,,,60ecba072cfc4af3b5f9a7e6,59,2022-02-12_13h30.08.532,lexical_decision_task_DD_L5,2021.2.3,Win32,60.51803437,,,,,,,,,,,1.0313,1,,,,,,,,,,,,,,,,,,,,,,,,,0.309895833,-0.29296875,1,0,0,,,,,,,FLASK,HB,m,y,./images/FLASKHB.png,,,,,,,,,,,,,,,,,,,,,,0,0.309895833,-0.29296875,1,0,0,1.0313,button_right_test,0,38,38,72,1,
,,,,,,,,,,,,,,,,,60ecba072cfc4af3b5f9a7e6,59,2022-02-12_13h30.08.532,lexical_decision_task_DD_L5,2021.2.3,Win32,60.51803437,,,,,,,,,,,1.6131,0,,,,,,,,,,,,,,,,,,,,,,,,,-0.330729167,-0.305989583,1,0,0,,,,,,,PARADE,C,m,y,./images/PARADE.png,,,,,,,,,,,,,,,,,,,,,,0,-0.330729167,-0.305989583,1,0,0,1.6131,button_left_test,0,39,39,17,1,
,,,,,,,,,,,,,,,,,60ecba072cfc4af3b5f9a7e6,59,2022-02-12_13h30.08.532,lexical_decision_task_DD_L5,2021.2.3,Win32,60.51803437,,,,,,,,,,,5.144,1,,,,,,,,,,,,,,,,,,,,,,,,,-0.330729167,-0.305989583,1,0,0,,,,,,,SWEAT,HB,z,y,./images/SWEATHB.png,,,,,,,,,,,,,,,,,,,,,,0,-0.330729167,-0.305989583,1,0,0,5.144,button_left_test,0,40,40,150,1,
,,,,,,,,,,,,,,,,,60ecba072cfc4af3b5f9a7e6,59,2022-02-12_13h30.08.532,lexical_decision_task_DD_L5,2021.2.3,Win32,60.51803437,,,,,,,,,,,10.3049,1,,,,,,,,,,,,,,,,,,,,,,,,,-0.0703125,-0.404947917,1,0,0,,,,,,,SPORT,HB,z,y,./images/SPORTHB.png,,break_done_button,,,,,,,,,,,,,,,,,,,,0,-0.450520833,-0.291666667,1,0,0,10.3049,button_left_test,0,41,41,132,1,
,,,,,,,,,,,,,,,,,60ecba072cfc4af3b5f9a7e6,59,2022-02-12_13h30.08.532,lexical_decision_task_DD_L5,2021.2.3,Win32,60.51803437,,,,,,,,,,,2.263,0,,,,,,,,,,,,,,,,,,,,,,,,,-0.354166667,-0.328125,1,0,0,,,,,,,RULER,LB,m,y,./images/RULERLB.png,,,,,,,,,,,,,,,,,,,,,,0,-0.354166667,-0.328125,1,0,0,2.263,button_left_test,0,42,42,79,1,
,,,,,,,,,,,,,,,,,60ecba072cfc4af3b5f9a7e6,59,2022-02-12_13h30.08.532,lexical_decision_task_DD_L5,2021.2.3,Win32,60.51803437,,,,,,,,,,,1.3301,1,,,,,,,,,,,,,,,,,,,,,,,,,0.294270833,-0.305989583,1,0,0,,,,,,,DONKEY,LB,m,y,./images/DONKEYLB.png,,,,,,,,,,,,,,,,,,,,,,0,0.294270833,-0.305989583,1,0,0,1.3301,button_right_test,0,43,43,19,1,
,,,,,,,,,,,,,,,,,60ecba072cfc4af3b5f9a7e6,59,2022-02-12_13h30.08.532,lexical_decision_task_DD_L5,2021.2.3,Win32,60.51803437,,,,,,,,,,,1.3142,1,,,,,,,,,,,,,,,,,,,,,,,,,-0.255208333,-0.307291667,1,0,0,,,,,,,RHINO,HB,z,y,./images/RHINOHB.png,,,,,,,,,,,,,,,,,,,,,,0,-0.255208333,-0.307291667,1,0,0,1.3142,button_left_test,0,44,44,93,1,
,,,,,,,,,,,,,,,,,60ecba072cfc4af3b5f9a7e6,59,2022-02-12_13h30.08.532,lexical_decision_task_DD_L5,2021.2.3,Win32,60.51803437,,,,,,,,,,,1.445,1,,,,,,,,,,,,,,,,,,,,,,,,,0.29296875,-0.296875,1,0,0,,,,,,,SLOPE,HB,m,y,./images/SLOPEHB.png,,,,,,,,,,,,,,,,,,,,,,0,0.29296875,-0.296875,1,0,0,1.445,button_right_test,0,45,45,30,1,
,,,,,,,,,,,,,,,,,60ecba072cfc4af3b5f9a7e6,59,2022-02-12_13h30.08.532,lexical_decision_task_DD_L5,2021.2.3,Win32,60.51803437,,,,,,,,,,,2.7459,0,,,,,,,,,,,,,,,,,,,,,,,,,-0.41796875,-0.283854167,1,0,0,,,,,,,DRILL,HB,m,y,./images/DRILLHB.png,,,,,,,,,,,,,,,,,,,,,,0,-0.41796875,-0.283854167,1,0,0,2.7459,button_left_test,0,46,46,81,1,
,,,,,,,,,,,,,,,,,60ecba072cfc4af3b5f9a7e6,59,2022-02-12_13h30.08.532,lexical_decision_task_DD_L5,2021.2.3,Win32,60.51803437,,,,,,,,,,,1.3303,1,,,,,,,,,,,,,,,,,,,,,,,,,-0.4765625,-0.25,1,0,0,,,,,,,PICKLE,C,z,y,./images/PICKLE.png,,,,,,,,,,,,,,,,,,,,,,0,-0.4765625,-0.25,1,0,0,1.3303,button_left_test,0,47,47,98,1,
,,,,,,,,,,,,,,,,,60ecba072cfc4af3b5f9a7e6,59,2022-02-12_13h30.08.532,lexical_decision_task_DD_L5,2021.2.3,Win32,60.51803437,,,,,,,,,,,1.6132,1,,,,,,,,,,,,,,,,,,,,,,,,,0.29296875,-0.3359375,1,0,0,,,,,,,ALLEY,LB,m,y,./images/ALLEYLB.png,,,,,,,,,,,,,,,,,,,,,,0,0.29296875,-0.3359375,1,0,0,1.6132,button_right_test,0,48,48,55,1,
,,,,,,,,,,,,,,,,,60ecba072cfc4af3b5f9a7e6,59,2022-02-12_13h30.08.532,lexical_decision_task_DD_L5,2021.2.3,Win32,60.51803437,,,,,,,,,,,1.5309,1,,,,,,,,,,,,,,,,,,,,,,,,,0.278645833,-0.30859375,1,0,0,,,,,,,COLLAR,HB,m,y,./images/COLLARHB.png,,,,,,,,,,,,,,,,,,,,,,0,0.278645833,-0.30859375,1,0,0,1.5309,button_right_test,0,49,49,15,1,
,,,,,,,,,,,,,,,,,60ecba072cfc4af3b5f9a7e6,59,2022-02-12_13h30.08.532,lexical_decision_task_DD_L5,2021.2.3,Win32,60.51803437,,,,,,,,,,,1.0979,1,,,,,,,,,,,,,,,,,,,,,,,,,0.3828125,-0.263020833,1,0,0,,,,,,,MONKEY,HB,m,y,./images/MONKEYHB.png,,,,,,,,,,,,,,,,,,,,,,0,0.3828125,-0.263020833,1,0,0,1.0979,button_right_test,0,50,50,45,1,
,,,,,,,,,,,,,,,,,60ecba072cfc4af3b5f9a7e6,59,2022-02-12_13h30.08.532,lexical_decision_task_DD_L5,2021.2.3,Win32,60.51803437,,,,,,,,,,,1.2338,1,,,,,,,,,,,,,,,,,,,,,,,,,-0.373697917,-0.31640625,1,0,0,,,,,,,ONION,HB,z,y,./images/ONIONHB.png,,,,,,,,,,,,,,,,,,,,,,0,-0.373697917,-0.31640625,1,0,0,1.2338,button_left_test,0,51,51,135,1,
,,,,,,,,,,,,,,,,,60ecba072cfc4af3b5f9a7e6,59,2022-02-12_13h30.08.532,lexical_decision_task_DD_L5,2021.2.3,Win32,60.51803437,,,,,,,,,,,1.4143,1,,,,,,,,,,,,,,,,,,,,,,,,,0.3828125,-0.276041667,1,0,0,,,,,,,CANOE,LB,m,y,./images/CANOELB.png,,,,,,,,,,,,,,,,,,,,,,0,0.3828125,-0.276041667,1,0,0,1.4143,button_right_test,0,52,52,58,1,
,,,,,,,,,,,,,,,,,60ecba072cfc4af3b5f9a7e6,59,2022-02-12_13h30.08.532,lexical_decision_task_DD_L5,2021.2.3,Win32,60.51803437,,,,,,,,,,,1.347,1,,,,,,,,,,,,,,,,,,,,,,,,,0.322916667,-0.290364583,1,0,0,,,,,,,CRATER,HB,m,y,./images/CRATERHB.png,,,,,,,,,,,,,,,,,,,,,,0,0.322916667,-0.290364583,1,0,0,1.347,button_right_test,0,53,53,3,1,
,,,,,,,,,,,,,,,,,60ecba072cfc4af3b5f9a7e6,59,2022-02-12_13h30.08.532,lexical_decision_task_DD_L5,2021.2.3,Win32,60.51803437,,,,,,,,,,,1.2644,1,,,,,,,,,,,,,,,,,,,,,,,,,-0.450520833,-0.30078125,1,0,0,,,,,,,PASTA,C,z,y,./images/PASTA.png,,,,,,,,,,,,,,,,,,,,,,0,-0.450520833,-0.30078125,1,0,0,1.2644,button_left_test,0,54,54,89,1,
,,,,,,,,,,,,,,,,,60ecba072cfc4af3b5f9a7e6,59,2022-02-12_13h30.08.532,lexical_decision_task_DD_L5,2021.2.3,Win32,60.51803437,,,,,,,,,,,1.3004,1,,,,,,,,,,,,,,,,,,,,,,,,,-0.35546875,-0.302083333,1,0,0,,,,,,,FALCON,LB,z,y,./images/FALCONLB.png,,,,,,,,,,,,,,,,,,,,,,0,-0.35546875,-0.302083333,1,0,0,1.3004,button_left_test,0,55,55,112,1,
,,,,,,,,,,,,,,,,,60ecba072cfc4af3b5f9a7e6,59,2022-02-12_13h30.08.532,lexical_decision_task_DD_L5,2021.2.3,Win32,60.51803437,,,,,,,,,,,1.1979,1,,,,,,,,,,,,,,,,,,,,,,,,,0.29296875,-0.279947917,1,0,0,,,,,,,CURRY,HB,m,y,./images/CURRYHB.png,,,,,,,,,,,,,,,,,,,,,,0,0.29296875,-0.279947917,1,0,0,1.1979,button_right_test,0,56,56,60,1,
,,,,,,,,,,,,,,,,,60ecba072cfc4af3b5f9a7e6,59,2022-02-12_13h30.08.532,lexical_decision_task_DD_L5,2021.2.3,Win32,60.51803437,,,,,,,,,,,1.2968,1,,,,,,,,,,,,,,,,,,,,,,,,,0.3828125,-0.307291667,1,0,0,,,,,,,ARROW,HB,m,y,./images/ARROWHB.png,,,,,,,,,,,,,,,,,,,,,,0,0.3828125,-0.307291667,1,0,0,1.2968,button_right_test,0,57,57,69,1,
,,,,,,,,,,,,,,,,,60ecba072cfc4af3b5f9a7e6,59,2022-02-12_13h30.08.532,lexical_decision_task_DD_L5,2021.2.3,Win32,60.51803437,,,,,,,,,,,1.4301,1,,,,,,,,,,,,,,,,,,,,,,,,,-0.302083333,-0.319010417,1,0,0,,,,,,,BANNER,LB,z,y,./images/BANNERLB.png,,,,,,,,,,,,,,,,,,,,,,0,-0.302083333,-0.319010417,1,0,0,1.4301,button_left_test,0,58,58,136,1,
,,,,,,,,,,,,,,,,,60ecba072cfc4af3b5f9a7e6,59,2022-02-12_13h30.08.532,lexical_decision_task_DD_L5,2021.2.3,Win32,60.51803437,,,,,,,,,,,1.2646,1,,,,,,,,,,,,,,,,,,,,,,,,,-0.3359375,-0.345052083,1,0,0,,,,,,,TWINS,HB,z,y,./images/TWINSHB.png,,,,,,,,,,,,,,,,,,,,,,0,-0.3359375,-0.345052083,1,0,0,1.2646,button_left_test,0,59,59,144,1,
,,,,,,,,,,,,,,,,,60ecba072cfc4af3b5f9a7e6,59,2022-02-12_13h30.08.532,lexical_decision_task_DD_L5,2021.2.3,Win32,60.51803437,,,,,,,,,,,2.6457,0,,,,,,,,,,,,,,,,,,,,,,,,,-0.3515625,-0.283854167,1,0,0,,,,,,,MEDAL,C,m,y,./images/MEDAL.png,,,,,,,,,,,,,,,,,,,,,,0,-0.3515625,-0.283854167,1,0,0,2.6457,button_left_test,0,60,60,11,1,
,,,,,,,,,,,,,,,,,60ecba072cfc4af3b5f9a7e6,59,2022-02-12_13h30.08.532,lexical_decision_task_DD_L5,2021.2.3,Win32,60.51803437,,,,,,,,,,,1.9304,1,,,,,,,,,,,,,,,,,,,,,,,,,0.375,-0.334635417,1,0,0,,,,,,,WHEEL,C,m,y,./images/WHEEL.png,,,,,,,,,,,,,,,,,,,,,,0,0.375,-0.334635417,1,0,0,1.9304,button_right_test,0,61,61,77,1,
,,,,,,,,,,,,,,,,,60ecba072cfc4af3b5f9a7e6,59,2022-02-12_13h30.08.532,lexical_decision_task_DD_L5,2021.2.3,Win32,60.51803437,,,,,,,,,,,1.9464,1,,,,,,,,,,,,,,,,,,,,,,,,,-0.325520833,-0.286458333,1,0,0,,,,,,,CRADLE,C,z,y,./images/CRADLE.png,,,,,,,,,,,,,,,,,,,,,,0,-0.325520833,-0.286458333,1,0,0,1.9464,button_left_test,0,62,62,104,1,
,,,,,,,,,,,,,,,,,60ecba072cfc4af3b5f9a7e6,59,2022-02-12_13h30.08.532,lexical_decision_task_DD_L5,2021.2.3,Win32,60.51803437,,,,,,,,,,,1.397,1,,,,,,,,,,,,,,,,,,,,,,,,,-0.389322917,-0.33203125,1,0,0,,,,,,,LITTER,HB,z,y,./images/LITTERHB.png,,,,,,,,,,,,,,,,,,,,,,0,-0.389322917,-0.33203125,1,0,0,1.397,button_left_test,0,63,63,162,1,
,,,,,,,,,,,,,,,,,60ecba072cfc4af3b5f9a7e6,59,2022-02-12_13h30.08.532,lexical_decision_task_DD_L5,2021.2.3,Win32,60.51803437,,,,,,,,,,,1.4146,1,,,,,,,,,,,,,,,,,,,,,,,,,0.30078125,-0.32421875,1,0,0,,,,,,,SPINE,C,m,y,./images/SPINE.png,,,,,,,,,,,,,,,,,,,,,,0,0.30078125,-0.32421875,1,0,0,1.4146,button_right_test,0,64,64,65,1,
,,,,,,,,,,,,,,,,,60ecba072cfc4af3b5f9a7e6,59,2022-02-12_13h30.08.532,lexical_decision_task_DD_L5,2021.2.3,Win32,60.51803437,,,,,,,,,,,1.131,1,,,,,,,,,,,,,,,,,,,,,,,,,0.3671875,-0.307291667,1,0,0,,,,,,,SNAKE,LB,m,y,./images/SNAKELB.png,,,,,,,,,,,,,,,,,,,,,,0,0.3671875,-0.307291667,1,0,0,1.131,button_right_test,0,65,65,40,1,
,,,,,,,,,,,,,,,,,60ecba072cfc4af3b5f9a7e6,59,2022-02-12_13h30.08.532,lexical_decision_task_DD_L5,2021.2.3,Win32,60.51803437,,,,,,,,,,,1.7133,1,,,,,,,,,,,,,,,,,,,,,,,,,-0.389322917,-0.356770833,1,0,0,,,,,,,JELLY,LB,z,y,./images/JELLYLB.png,,,,,,,,,,,,,,,,,,,,,,0,-0.389322917,-0.356770833,1,0,0,1.7133,button_left_test,0,66,66,148,1,
,,,,,,,,,,,,,,,,,60ecba072cfc4af3b5f9a7e6,59,2022-02-12_13h30.08.532,lexical_decision_task_DD_L5,2021.2.3,Win32,60.51803437,,,,,,,,,,,1.3337,1,,,,,,,,,,,,,,,,,,,,,,,,,-0.37890625,-0.317708333,1,0,0,,,,,,,SWING,LB,z,y,./images/SWINGLB.png,,,,,,,,,,,,,,,,,,,,,,0,-0.37890625,-0.317708333,1,0,0,1.3337,button_left_test,0,67,67,124,1,
,,,,,,,,,,,,,,,,,60ecba072cfc4af3b5f9a7e6,59,2022-02-12_13h30.08.532,lexical_decision_task_DD_L5,2021.2.3,Win32,60.51803437,,,,,,,,,,,1.3143,1,,,,,,,,,,,,,,,,,,,,,,,,,-0.385416667,-0.321614583,1,0,0,,,,,,,SUNSET,LB,z,y,./images/SUNSETLB.png,,,,,,,,,,,,,,,,,,,,,,0,-0.385416667,-0.321614583,1,0,0,1.3143,button_left_test,0,68,68,166,1,
,,,,,,,,,,,,,,,,,60ecba072cfc4af3b5f9a7e6,59,2022-02-12_13h30.08.532,lexical_decision_task_DD_L5,2021.2.3,Win32,60.51803437,,,,,,,,,,,1.9444,0,,,,,,,,,,,,,,,,,,,,,,,,,0.296875,-0.33203125,1,0,0,,,,,,,JUNGLE,C,z,y,./images/JUNGLE.png,,,,,,,,,,,,,,,,,,,,,,0,0.296875,-0.33203125,1,0,0,1.9444,button_right_test,0,69,69,167,1,
,,,,,,,,,,,,,,,,,60ecba072cfc4af3b5f9a7e6,59,2022-02-12_13h30.08.532,lexical_decision_task_DD_L5,2021.2.3,Win32,60.51803437,,,,,,,,,,,1.347,1,,,,,,,,,,,,,,,,,,,,,,,,,-0.364583333,-0.338541667,1,0,0,,,,,,,SQUARE,HB,z,y,./images/SQUAREHB.png,,,,,,,,,,,,,,,,,,,,,,0,-0.364583333,-0.338541667,1,0,0,1.347,button_left_test,0,70,70,90,1,
,,,,,,,,,,,,,,,,,60ecba072cfc4af3b5f9a7e6,59,2022-02-12_13h30.08.532,lexical_decision_task_DD_L5,2021.2.3,Win32,60.51803437,,,,,,,,,,,1.2635,1,,,,,,,,,,,,,,,,,,,,,,,,,0.40234375,-0.29296875,1,0,0,,,,,,,SAUNA,HB,m,y,./images/SAUNAHB.png,,,,,,,,,,,,,,,,,,,,,,0,0.40234375,-0.29296875,1,0,0,1.2635,button_right_test,0,71,71,33,1,
,,,,,,,,,,,,,,,,,60ecba072cfc4af3b5f9a7e6,59,2022-02-12_13h30.08.532,lexical_decision_task_DD_L5,2021.2.3,Win32,60.51803437,,,,,,,,,,,2.563,1,,,,,,,,,,,,,,,,,,,,,,,,,-0.27734375,-0.24609375,1,0,0,,,,,,,FOLDER,HB,z,y,./images/FOLDERHB.png,,,,,,,,,,,,,,,,,,,,,,0,-0.27734375,-0.24609375,1,0,0,2.563,button_left_test,0,72,72,126,1,
,,,,,,,,,,,,,,,,,60ecba072cfc4af3b5f9a7e6,59,2022-02-12_13h30.08.532,lexical_decision_task_DD_L5,2021.2.3,Win32,60.51803437,,,,,,,,,,,1.196,1,,,,,,,,,,,,,,,,,,,,,,,,,0.361979167,-0.31640625,1,0,0,,,,,,,BISHOP,LB,m,y,./images/BISHOPLB.png,,,,,,,,,,,,,,,,,,,,,,0,0.361979167,-0.31640625,1,0,0,1.196,button_right_test,0,73,73,49,1,
,,,,,,,,,,,,,,,,,60ecba072cfc4af3b5f9a7e6,59,2022-02-12_13h30.08.532,lexical_decision_task_DD_L5,2021.2.3,Win32,60.51803437,,,,,,,,,,,1.7771,1,,,,,,,,,,,,,,,,,,,,,,,,,-0.375,-0.283854167,1,0,0,,,,,,,PENCE,LB,z,y,./images/PENCELB.png,,,,,,,,,,,,,,,,,,,,,,0,-0.375,-0.283854167,1,0,0,1.7771,button_left_test,0,74,74,100,1,
,,,,,,,,,,,,,,,,,60ecba072cfc4af3b5f9a7e6,59,2022-02-12_13h30.08.532,lexical_decision_task_DD_L5,2021.2.3,Win32,60.51803437,,,,,,,,,,,1.5802,0,,,,,,,,,,,,,,,,,,,,,,,,,-0.3359375,-0.303385417,1,0,0,,,,,,,BRUSH,C,m,y,./images/BRUSH.png,,,,,,,,,,,,,,,,,,,,,,0,-0.3359375,-0.303385417,1,0,0,1.5802,button_left_test,0,75,75,59,1,
,,,,,,,,,,,,,,,,,60ecba072cfc4af3b5f9a7e6,59,2022-02-12_13h30.08.532,lexical_decision_task_DD_L5,2021.2.3,Win32,60.51803437,,,,,,,,,,,5.0939,1,,,,,,,,,,,,,,,,,,,,,,,,,0.268229167,-0.341145833,1,0,0,,,,,,,CLIFF,C,m,y,./images/CLIFF.png,,,,,,,,,,,,,,,,,,,,,,0,0.268229167,-0.341145833,1,0,0,5.0939,button_right_test,0,76,76,8,1,
,,,,,,,,,,,,,,,,,60ecba072cfc4af3b5f9a7e6,59,2022-02-12_13h30.08.532,lexical_decision_task_DD_L5,2021.2.3,Win32,60.51803437,,,,,,,,,,,1.3139,1,,,,,,,,,,,,,,,,,,,,,,,,,-0.372395833,-0.274739583,1,0,0,,,,,,,WALRUS,C,z,y,./images/WALRUS.png,,,,,,,,,,,,,,,,,,,,,,0,-0.372395833,-0.274739583,1,0,0,1.3139,button_left_test,0,77,77,107,1,
,,,,,,,,,,,,,,,,,60ecba072cfc4af3b5f9a7e6,59,2022-02-12_13h30.08.532,lexical_decision_task_DD_L5,2021.2.3,Win32,60.51803437,,,,,,,,,,,1.4301,1,,,,,,,,,,,,,,,,,,,,,,,,,-0.395833333,-0.294270833,1,0,0,,,,,,,CANDLE,LB,z,y,./images/CANDLELB.png,,,,,,,,,,,,,,,,,,,,,,0,-0.395833333,-0.294270833,1,0,0,1.4301,button_left_test,0,78,78,145,1,
,,,,,,,,,,,,,,,,,60ecba072cfc4af3b5f9a7e6,59,2022-02-12_13h30.08.532,lexical_decision_task_DD_L5,2021.2.3,Win32,60.51803437,,,,,,,,,,,1.6304,0,,,,,,,,,,,,,,,,,,,,,,,,,-0.319010417,-0.348958333,1,0,0,,,,,,,GARDEN,LB,m,y,./images/GARDENLB.png,,,,,,,,,,,,,,,,,,,,,,0,-0.319010417,-0.348958333,1,0,0,1.6304,button_left_test,0,79,79,10,1,
,,,,,,,,,,,,,,,,,60ecba072cfc4af3b5f9a7e6,59,2022-02-12_13h30.08.532,lexical_decision_task_DD_L5,2021.2.3,Win32,60.51803437,,,,,,,,,,,1.2647,1,,,,,,,,,,,,,,,,,,,,,,,,,0.333333333,-0.265625,1,0,0,,,,,,,CLOWN,LB,m,y,./images/CLOWNLB.png,,,,,,,,,,,,,,,,,,,,,,0,0.333333333,-0.265625,1,0,0,1.2647,button_right_test,0,80,80,22,1,
,,,,,,,,,,,,,,,,,60ecba072cfc4af3b5f9a7e6,59,2022-02-12_13h30.08.532,lexical_decision_task_DD_L5,2021.2.3,Win32,60.51803437,,,,,,,,,,,1.4644,0,,,,,,,,,,,,,,,,,,,,,,,,,-0.302083333,-0.263020833,1,0,0,,,,,,,TIGER,LB,m,y,./images/TIGERLB.png,,,,,,,,,,,,,,,,,,,,,,0,-0.302083333,-0.263020833,1,0,0,1.4644,button_left_test,0,81,81,37,1,
,,,,,,,,,,,,,,,,,60ecba072cfc4af3b5f9a7e6,59,2022-02-12_13h30.08.532,lexical_decision_task_DD_L5,2021.2.3,Win32,60.51803437,,,,,,,,,,,1.098,1,,,,,,,,,,,,,,,,,,,,,,,,,-0.356770833,-0.31640625,1,0,0,,,,,,,PIMPLE,C,z,y,./images/PIMPLE.png,,,,,,,,,,,,,,,,,,,,,,0,-0.356770833,-0.31640625,1,0,0,1.098,button_left_test,0,82,82,155,1,
,,,,,,,,,,,,,,,,,60ecba072cfc4af3b5f9a7e6,59,2022-02-12_13h30.08.532,lexical_decision_task_DD_L5,2021.2.3,Win32,60.51803437,,,,,,,,,,,1.3307,1,,,,,,,,,,,,,,,,,,,,,,,,,0.001302083,-0.397135417,1,0,0,,,,,,,MELON,LB,z,y,./images/MELONLB.png,,break_done_button,,,,,,,,,,,,,,,,,,,,0,-0.299479167,-0.338541667,1,0,0,1.3307,button_left_test,0,83,83,106,1,
,,,,,,,,,,,,,,,,,60ecba072cfc4af3b5f9a7e6,59,2022-02-12_13h30.08.532,lexical_decision_task_DD_L5,2021.2.3,Win32,60.51803437,,,,,,,,,,,3.7592,0,,,,,,,,,,,,,,,,,,,,,,,,,0.001302083,-0.397135417,0,0,0,,,,,,,THROAT,HB,z,y,./images/THROATHB.png,,,,,,,,,,,,,,,,,,,,,m,0,,,,,,,,0,84,84,120,1,3.7592
,,,,,,,,,,,,,,,,,60ecba072cfc4af3b5f9a7e6,59,2022-02-12_13h30.08.532,lexical_decision_task_DD_L5,2021.2.3,Win32,60.51803437,,,,,,,,,,,3.6225,0,,,,,,,,,,,,,,,,,,,,,,,,,0.001302083,-0.397135417,0,0,0,,,,,,,ATTIC,HB,z,y,./images/ATTICHB.png,,,,,,,,,,,,,,,,,,,,,m,0,,,,,,,,0,85,85,111,1,3.6225
,,,,,,,,,,,,,,,,,60ecba072cfc4af3b5f9a7e6,59,2022-02-12_13h30.08.532,lexical_decision_task_DD_L5,2021.2.3,Win32,60.51803437,,,,,,,,,,,1.1288,0,,,,,,,,,,,,,,,,,,,,,,,,,0.001302083,-0.397135417,0,0,0,,,,,,,BROOM,HB,m,y,./images/BROOMHB.png,,,,,,,,,,,,,,,,,,,,,z,0,,,,,,,,0,86,86,78,1,1.1288
,,,,,,,,,,,,,,,,,60ecba072cfc4af3b5f9a7e6,59,2022-02-12_13h30.08.532,lexical_decision_task_DD_L5,2021.2.3,Win32,60.51803437,,,,,,,,,,,0.833,1,,,,,,,,,,,,,,,,,,,,,,,,,0.001302083,-0.397135417,0,0,0,,,,,,,PEACH,C,z,y,./images/PEACH.png,,,,,,,,,,,,,,,,,,,,,z,1,,,,,,,,0,87,87,119,1,0.833
,,,,,,,,,,,,,,,,,60ecba072cfc4af3b5f9a7e6,59,2022-02-12_13h30.08.532,lexical_decision_task_DD_L5,2021.2.3,Win32,60.51803437,,,,,,,,,,,0.8495,1,,,,,,,,,,,,,,,,,,,,,,,,,0.001302083,-0.397135417,0,0,0,,,,,,,SCREW,HB,z,y,./images/SCREWHB.png,,,,,,,,,,,,,,,,,,,,,z,1,,,,,,,,0,88,88,108,1,0.8495
,,,,,,,,,,,,,,,,,60ecba072cfc4af3b5f9a7e6,59,2022-02-12_13h30.08.532,lexical_decision_task_DD_L5,2021.2.3,Win32,60.51803437,,,,,,,,,,,0.9584,1,,,,,,,,,,,,,,,,,,,,,,,,,0.001302083,-0.397135417,0,0,0,,,,,,,DESERT,LB,m,y,./images/DESERTLB.png,,,,,,,,,,,,,,,,,,,,,m,1,,,,,,,,0,89,89,52,1,0.9584
,,,,,,,,,,,,,,,,,60ecba072cfc4af3b5f9a7e6,59,2022-02-12_13h30.08.532,lexical_decision_task_DD_L5,2021.2.3,Win32,60.51803437,,,,,,,,,,,1.3357,1,,,,,,,,,,,,,,,,,,,,,,,,,0.001302083,-0.397135417,0,0,0,,,,,,,BUTTER,HB,m,y,./images/BUTTERHB.png,,,,,,,,,,,,,,,,,,,,,m,1,,,,,,,,0,90,90,27,1,1.3357
,,,,,,,,,,,,,,,,,60ecba072cfc4af3b5f9a7e6,59,2022-02-12_13h30.08.532,lexical_decision_task_DD_L5,2021.2.3,Win32,60.51803437,,,,,,,,,,,1.1323,1,,,,,,,,,,,,,,,,,,,,,,,,,0.001302083,-0.397135417,0,0,0,,,,,,,SHELF,HB,z,y,./images/SHELFHB.png,,,,,,,,,,,,,,,,,,,,,z,1,,,,,,,,0,91,91,123,1,1.1323
,,,,,,,,,,,,,,,,,60ecba072cfc4af3b5f9a7e6,59,2022-02-12_13h30.08.532,lexical_decision_task_DD_L5,2021.2.3,Win32,60.51803437,,,,,,,,,,,1.2663,1,,,,,,,,,,,,,,,,,,,,,,,,,0.001302083,-0.397135417,0,0,0,,,,,,,MIRROR,HB,z,y,./images/MIRRORHB.png,,,,,,,,,,,,,,,,,,,,,z,1,,,,,,,,0,92,92,147,1,1.2663
,,,,,,,,,,,,,,,,,60ecba072cfc4af3b5f9a7e6,59,2022-02-12_13h30.08.532,lexical_decision_task_DD_L5,2021.2.3,Win32,60.51803437,,,,,,,,,,,0.9279,1,,,,,,,,,,,,,,,,,,,,,,,,,0.001302083,-0.397135417,0,0,0,,,,,,,PEARL,LB,z,y,./images/PEARLLB.png,,,,,,,,,,,,,,,,,,,,,z,1,,,,,,,,0,93,93,130,1,0.9279
,,,,,,,,,,,,,,,,,60ecba072cfc4af3b5f9a7e6,59,2022-02-12_13h30.08.532,lexical_decision_task_DD_L5,2021.2.3,Win32,60.51803437,,,,,,,,,,,1.4084,1,,,,,,,,,,,,,,,,,,,,,,,,,0.001302083,-0.397135417,0,0,0,,,,,,,CLOUD,C,m,y,./images/CLOUD.png,,,,,,,,,,,,,,,,,,,,,m,1,,,,,,,,0,94,94,26,1,1.4084
,,,,,,,,,,,,,,,,,60ecba072cfc4af3b5f9a7e6,59,2022-02-12_13h30.08.532,lexical_decision_task_DD_L5,2021.2.3,Win32,60.51803437,,,,,,,,,,,0.8884,1,,,,,,,,,,,,,,,,,,,,,,,,,0.001302083,-0.397135417,0,0,0,,,,,,,MAGGOT,HB,z,y,./images/MAGGOTHB.png,,,,,,,,,,,,,,,,,,,,,z,1,,,,,,,,0,95,95,117,1,0.8884
,,,,,,,,,,,,,,,,,60ecba072cfc4af3b5f9a7e6,59,2022-02-12_13h30.08.532,lexical_decision_task_DD_L5,2021.2.3,Win32,60.51803437,,,,,,,,,,,0.8875,1,,,,,,,,,,,,,,,,,,,,,,,,,0.001302083,-0.397135417,0,0,0,,,,,,,MALLET,C,z,y,./images/MALLET.png,,,,,,,,,,,,,,,,,,,,,z,1,,,,,,,,0,96,96,134,1,0.8875
,,,,,,,,,,,,,,,,,60ecba072cfc4af3b5f9a7e6,59,2022-02-12_13h30.08.532,lexical_decision_task_DD_L5,2021.2.3,Win32,60.51803437,,,,,,,,,,,0.9266,1,,,,,,,,,,,,,,,,,,,,,,,,,0.001302083,-0.397135417,0,0,0,,,,,,,WRIST,LB,z,y,./images/WRISTLB.png,,,,,,,,,,,,,,,,,,,,,z,1,,,,,,,,0,97,97,109,1,0.9266
,,,,,,,,,,,,,,,,,60ecba072cfc4af3b5f9a7e6,59,2022-02-12_13h30.08.532,lexical_decision_task_DD_L5,2021.2.3,Win32,60.51803437,,,,,,,,,,,0.9345,1,,,,,,,,,,,,,,,,,,,,,,,,,0.001302083,-0.397135417,0,0,0,,,,,,,BOILER,HB,m,y,./images/BOILERHB.png,,,,,,,,,,,,,,,,,,,,,m,1,,,,,,,,0,98,98,36,1,0.9345
,,,,,,,,,,,,,,,,,60ecba072cfc4af3b5f9a7e6,59,2022-02-12_13h30.08.532,lexical_decision_task_DD_L5,2021.2.3,Win32,60.51803437,,,,,,,,,,,0.7862,1,,,,,,,,,,,,,,,,,,,,,,,,,0.001302083,-0.397135417,0,0,0,,,,,,,CARPET,C,z,y,./images/CARPET.png,,,,,,,,,,,,,,,,,,,,,z,1,,,,,,,,0,99,99,137,1,0.7862
,,,,,,,,,,,,,,,,,60ecba072cfc4af3b5f9a7e6,59,2022-02-12_13h30.08.532,lexical_decision_task_DD_L5,2021.2.3,Win32,60.51803437,,,,,,,,,,,1.2758,0,,,,,,,,,,,,,,,,,,,,,,,,,0.001302083,-0.397135417,0,0,0,,,,,,,CANDY,HB,m,y,./images/CANDYHB.png,,,,,,,,,,,,,,,,,,,,,z,0,,,,,,,,0,100,100,39,1,1.2758
,,,,,,,,,,,,,,,,,60ecba072cfc4af3b5f9a7e6,59,2022-02-12_13h30.08.532,lexical_decision_task_DD_L5,2021.2.3,Win32,60.51803437,,,,,,,,,,,0.9658,1,,,,,,,,,,,,,,,,,,,,,,,,,0.001302083,-0.397135417,0,0,0,,,,,,,POKER,LB,m,y,./images/POKERLB.png,,,,,,,,,,,,,,,,,,,,,m,1,,,,,,,,0,101,101,67,1,0.9658
,,,,,,,,,,,,,,,,,60ecba072cfc4af3b5f9a7e6,59,2022-02-12_13h30.08.532,lexical_decision_task_DD_L5,2021.2.3,Win32,60.51803437,,,,,,,,,,,0.6869,1,,,,,,,,,,,,,,,,,,,,,,,,,0.001302083,-0.397135417,0,0,0,,,,,,,URINE,LB,z,y,./images/URINELB.png,,,,,,,,,,,,,,,,,,,,,z,1,,,,,,,,0,102,102,154,1,0.6869
,,,,,,,,,,,,,,,,,60ecba072cfc4af3b5f9a7e6,59,2022-02-12_13h30.08.532,lexical_decision_task_DD_L5,2021.2.3,Win32,60.51803437,,,,,,,,,,,0.8014,0,,,,,,,,,,,,,,,,,,,,,,,,,0.001302083,-0.397135417,0,0,0,,,,,,,STREAM,C,m,y,./images/STREAM.png,,,,,,,,,,,,,,,,,,,,,z,0,,,,,,,,0,103,103,41,1,0.8014
,,,,,,,,,,,,,,,,,60ecba072cfc4af3b5f9a7e6,59,2022-02-12_13h30.08.532,lexical_decision_task_DD_L5,2021.2.3,Win32,60.51803437,,,,,,,,,,,1.0818,1,,,,,,,,,,,,,,,,,,,,,,,,,0.001302083,-0.397135417,0,0,0,,,,,,,BUBBLE,C,m,y,./images/BUBBLE.png,,,,,,,,,,,,,,,,,,,,,m,1,,,,,,,,0,104,104,71,1,1.0818
,,,,,,,,,,,,,,,,,60ecba072cfc4af3b5f9a7e6,59,2022-02-12_13h30.08.532,lexical_decision_task_DD_L5,2021.2.3,Win32,60.51803437,,,,,,,,,,,0.766,1,,,,,,,,,,,,,,,,,,,,,,,,,0.001302083,-0.397135417,0,0,0,,,,,,,POODLE,HB,z,y,./images/POODLEHB.png,,,,,,,,,,,,,,,,,,,,,z,1,,,,,,,,0,105,105,165,1,0.766
,,,,,,,,,,,,,,,,,60ecba072cfc4af3b5f9a7e6,59,2022-02-12_13h30.08.532,lexical_decision_task_DD_L5,2021.2.3,Win32,60.51803437,,,,,,,,,,,1.8854,0,,,,,,,,,,,,,,,,,,,,,,,,,0.001302083,-0.397135417,0,0,0,,,,,,,CHALK,LB,m,y,./images/CHALKLB.png,,,,,,,,,,,,,,,,,,,,,z,0,,,,,,,,0,106,106,25,1,1.8854
,,,,,,,,,,,,,,,,,60ecba072cfc4af3b5f9a7e6,59,2022-02-12_13h30.08.532,lexical_decision_task_DD_L5,2021.2.3,Win32,60.51803437,,,,,,,,,,,1.0126,1,,,,,,,,,,,,,,,,,,,,,,,,,0.001302083,-0.397135417,0,0,0,,,,,,,FLESH,HB,m,y,./images/FLESHHB.png,,,,,,,,,,,,,,,,,,,,,m,1,,,,,,,,0,107,107,24,1,1.0126
,,,,,,,,,,,,,,,,,60ecba072cfc4af3b5f9a7e6,59,2022-02-12_13h30.08.532,lexical_decision_task_DD_L5,2021.2.3,Win32,60.51803437,,,,,,,,,,,0.7666,1,,,,,,,,,,,,,,,,,,,,,,,,,0.001302083,-0.397135417,0,0,0,,,,,,,STOOL,LB,m,y,./images/STOOLLB.png,,,,,,,,,,,,,,,,,,,,,m,1,,,,,,,,0,108,108,43,1,0.7666
,,,,,,,,,,,,,,,,,60ecba072cfc4af3b5f9a7e6,59,2022-02-12_13h30.08.532,lexical_decision_task_DD_L5,2021.2.3,Win32,60.51803437,,,,,,,,,,,2.3479,1,,,,,,,,,,,,,,,,,,,,,,,,,0.001302083,-0.397135417,0,0,0,,,,,,,BERRY,C,z,y,./images/BERRY.png,,,,,,,,,,,,,,,,,,,,,z,1,,,,,,,,0,109,109,131,1,2.3479
,,,,,,,,,,,,,,,,,60ecba072cfc4af3b5f9a7e6,59,2022-02-12_13h30.08.532,lexical_decision_task_DD_L5,2021.2.3,Win32,60.51803437,,,,,,,,,,,0.9845,1,,,,,,,,,,,,,,,,,,,,,,,,,0.001302083,-0.397135417,0,0,0,,,,,,,POSTER,C,m,y,./images/POSTER.png,,,,,,,,,,,,,,,,,,,,,m,1,,,,,,,,0,110,110,53,1,0.9845
,,,,,,,,,,,,,,,,,60ecba072cfc4af3b5f9a7e6,59,2022-02-12_13h30.08.532,lexical_decision_task_DD_L5,2021.2.3,Win32,60.51803437,,,,,,,,,,,0.7386,0,,,,,,,,,,,,,,,,,,,,,,,,,0.001302083,-0.397135417,0,0,0,,,,,,,PISTOL,C,m,y,./images/PISTOL.png,,,,,,,,,,,,,,,,,,,,,z,0,,,,,,,,0,111,111,29,1,0.7386
,,,,,,,,,,,,,,,,,60ecba072cfc4af3b5f9a7e6,59,2022-02-12_13h30.08.532,lexical_decision_task_DD_L5,2021.2.3,Win32,60.51803437,,,,,,,,,,,1.4165,1,,,,,,,,,,,,,,,,,,,,,,,,,0.001302083,-0.397135417,0,0,0,,,,,,,DANCER,HB,m,y,./images/DANCERHB.png,,,,,,,,,,,,,,,,,,,,,m,1,,,,,,,,0,112,112,21,1,1.4165
,,,,,,,,,,,,,,,,,60ecba072cfc4af3b5f9a7e6,59,2022-02-12_13h30.08.532,lexical_decision_task_DD_L5,2021.2.3,Win32,60.51803437,,,,,,,,,,,0.6829,1,,,,,,,,,,,,,,,,,,,,,,,,,0.001302083,-0.397135417,0,0,0,,,,,,,WEASEL,C,z,y,./images/WEASEL.png,,,,,,,,,,,,,,,,,,,,,z,1,,,,,,,,0,113,113,164,1,0.6829
,,,,,,,,,,,,,,,,,60ecba072cfc4af3b5f9a7e6,59,2022-02-12_13h30.08.532,lexical_decision_task_DD_L5,2021.2.3,Win32,60.51803437,,,,,,,,,,,0.9326,1,,,,,,,,,,,,,,,,,,,,,,,,,0.001302083,-0.397135417,0,0,0,,,,,,,CRUST,LB,z,y,./images/CRUSTLB.png,,,,,,,,,,,,,,,,,,,,,z,1,,,,,,,,0,114,114,163,1,0.9326
,,,,,,,,,,,,,,,,,60ecba072cfc4af3b5f9a7e6,59,2022-02-12_13h30.08.532,lexical_decision_task_DD_L5,2021.2.3,Win32,60.51803437,,,,,,,,,,,0.7947,0,,,,,,,,,,,,,,,,,,,,,,,,,0.001302083,-0.397135417,0,0,0,,,,,,,CASINO,LB,m,y,./images/CASINOLB.png,,,,,,,,,,,,,,,,,,,,,z,0,,,,,,,,0,115,115,28,1,0.7947
,,,,,,,,,,,,,,,,,60ecba072cfc4af3b5f9a7e6,59,2022-02-12_13h30.08.532,lexical_decision_task_DD_L5,2021.2.3,Win32,60.51803437,,,,,,,,,,,0.6619,1,,,,,,,,,,,,,,,,,,,,,,,,,0.001302083,-0.397135417,0,0,0,,,,,,,MOSQUE,LB,z,y,./images/MOSQUELB.png,,,,,,,,,,,,,,,,,,,,,z,1,,,,,,,,0,116,116,127,1,0.6619
,,,,,,,,,,,,,,,,,60ecba072cfc4af3b5f9a7e6,59,2022-02-12_13h30.08.532,lexical_decision_task_DD_L5,2021.2.3,Win32,60.51803437,,,,,,,,,,,3.147,0,,,,,,,,,,,,,,,,,,,,,,,,,0.001302083,-0.397135417,0,0,0,,,,,,,WALNUT,HB,m,y,./images/WALNUTHB.png,,,,,,,,,,,,,,,,,,,,,z,0,,,,,,,,0,117,117,0,1,3.147
