key_resp.keys,key_resp.rt,instr_done_touch.x,instr_done_touch.y,instr_done_touch.leftButton,instr_done_touch.midButton,instr_done_touch.rightButton,instruction_pages.thisRepN,instruction_pages.thisTrialN,instruction_pages.thisN,instruction_pages.thisIndex,instruction_pages.ran,pageN,phase,instruct_text,has_image,instruct_image,participant,age,date,expName,psychopyVersion,OS,frameRate,response.keys,response.corr,response.rt,touch_resp.x,touch_resp.y,touch_resp.leftButton,touch_resp.midButton,touch_resp.rightButton,touch_resp.time,touch_resp.clicked_name,rt,corr,practrials.thisRepN,practrials.thisTrialN,practrials.thisN,practrials.thisIndex,practrials.ran,TrialID,Target,corrAns,end_of_practice_trials_pages.thisRepN,end_of_practice_trials_pages.thisTrialN,end_of_practice_trials_pages.thisN,end_of_practice_trials_pages.thisIndex,end_of_practice_trials_pages.ran,key_resp_2.keys,key_resp_2.corr,key_resp_2.rt,targ_click.x,targ_click.y,targ_click.leftButton,targ_click.midButton,targ_click.rightButton,targ_click.time,targ_click.clicked_name,break_done_touch.x,break_done_touch.y,break_done_touch.leftButton,break_done_touch.midButton,break_done_touch.rightButton,break_done_keyboard.keys,maintrials.thisRepN,maintrials.thisTrialN,maintrials.thisN,maintrials.thisIndex,maintrials.ran,string,blur,study,lex,stim_path,break_done_keyboard.rt,mouse_2.x,mouse_2.y,mouse_2.leftButton,mouse_2.midButton,mouse_2.rightButton,mouse_2.clicked_name,slider.response,slider.rt,trials.thisRepN,trials.thisTrialN,trials.thisN,trials.thisIndex,trials.ran,test_instructions.thisRepN,test_instructions.thisTrialN,test_instructions.thisN,test_instructions.thisIndex,test_instructions.ran,instr_done_touch.clicked_name,key_resp_3.keys,key_resp_3.corr,key_resp_3.rt,test_click.x,test_click.y,test_click.leftButton,test_click.midButton,test_click.rightButton,test_click.time,test_click.clicked_name,test_phase.thisRepN,test_phase.thisTrialN,test_phase.thisN,test_phase.thisIndex,test_phase.ran
space,19.9695,0.238563368,-0.253702257,0,0,0,0,0,0,0,1,1,instructions,"INSTRUCTIONS
At the start of each trial, look at the plus sign  (+) in the center of the screen.  This tells you that a trial is about to begin and where to look. Second, the plus sign will disappear and a string of letters will appear. Your task is to determine if the string of letters is a word or not. If the item is a word press the M key (on keyboard)  or touch the word button (phone/tablet).  If the item is not a word,  press the  Z key (on keyboard)  or touch the nonword button (on phone/tablet). 
Press the space bar or touch  continue.",0,,60fcdeff0f333add62b19471,19,2022-02-12_13h25.53.532,lexical_decision_task_DD_L6,2021.2.3,MacIntel,60.0024001,,,,,,,,,,,,,,,,,,,,,,,,,,,,,,,,,,,,,,,,,,,,,,,,,,,,,,,,,,,,,,,,,,,,,,,,,,,,,,,,,,,,,,
space,9.679,0.238563368,-0.253702257,0,0,0,0,1,1,1,1,2,instructions,"If your device has a keyboard, press the 'Z' key for nonwords and the 'M' key for words.





Press the space bar or touch the button below to continue.",0,keyboard-example.gif,60fcdeff0f333add62b19471,19,2022-02-12_13h25.53.532,lexical_decision_task_DD_L6,2021.2.3,MacIntel,60.0024001,,,,,,,,,,,,,,,,,,,,,,,,,,,,,,,,,,,,,,,,,,,,,,,,,,,,,,,,,,,,,,,,,,,,,,,,,,,,,,,,,,,,,,
space,2.1128,0.238563368,-0.253702257,0,0,0,0,2,2,2,1,3,instructions,"If you are using a touchscreen only device, use the buttons on the screen. Do not use the mouse.





Press the space bar or touch the button below to continue.",0,touchscreen-example.gif,60fcdeff0f333add62b19471,19,2022-02-12_13h25.53.532,lexical_decision_task_DD_L6,2021.2.3,MacIntel,60.0024001,,,,,,,,,,,,,,,,,,,,,,,,,,,,,,,,,,,,,,,,,,,,,,,,,,,,,,,,,,,,,,,,,,,,,,,,,,,,,,,,,,,,,,
space,15.0248,0.238563368,-0.253702257,0,0,0,0,3,3,3,1,4,instructions,"It is very important that you respond as quickly and accurately as possible, as each letter string will only be on the screen for two seconds. If you do not respond within this time, the message 'Too slow!' will be displayed and the experiment will progress to the next letter string. The first 20 trials will be practice trials and you will receive feedback on your answers. 

Press the space bar or touch the button below to start the practice trials.",0,,60fcdeff0f333add62b19471,19,2022-02-12_13h25.53.532,lexical_decision_task_DD_L6,2021.2.3,MacIntel,60.0024001,,,,,,,,,,,,,,,,,,,,,,,,,,,,,,,,,,,,,,,,,,,,,,,,,,,,,,,,,,,,,,,,,,,,,,,,,,,,,,,,,,,,,,
,,,,,,,,,,,,,,,,,60fcdeff0f333add62b19471,19,2022-02-12_13h25.53.532,lexical_decision_task_DD_L6,2021.2.3,MacIntel,60.0024001,m,1,0.7843,,,,,,,,0.7843,1,0,0,0,2,1,1001,ALMOND,m,,,,,,,,,,,,,,,,,,,,,,,,,,,,,,,,,,,,,,,,,,,,,,,,,,,,,,,,,,,,,,,,,,
,,,,,,,,,,,,,,,,,60fcdeff0f333add62b19471,19,2022-02-12_13h25.53.532,lexical_decision_task_DD_L6,2021.2.3,MacIntel,60.0024001,z,1,0.7744,,,,,,,,0.7744,1,0,1,1,10,1,1001,INLADE,z,,,,,,,,,,,,,,,,,,,,,,,,,,,,,,,,,,,,,,,,,,,,,,,,,,,,,,,,,,,,,,,,,,
,,,,,,,,,,,,,,,,,60fcdeff0f333add62b19471,19,2022-02-12_13h25.53.532,lexical_decision_task_DD_L6,2021.2.3,MacIntel,60.0024001,m,1,0.7035,,,,,,,,0.7035,1,0,2,2,0,1,1001,UTOPIA,m,,,,,,,,,,,,,,,,,,,,,,,,,,,,,,,,,,,,,,,,,,,,,,,,,,,,,,,,,,,,,,,,,,
,,,,,,,,,,,,,,,,,60fcdeff0f333add62b19471,19,2022-02-12_13h25.53.532,lexical_decision_task_DD_L6,2021.2.3,MacIntel,60.0024001,z,1,0.6031,,,,,,,,0.6031,1,0,3,3,8,1,1001,ASLERT,z,,,,,,,,,,,,,,,,,,,,,,,,,,,,,,,,,,,,,,,,,,,,,,,,,,,,,,,,,,,,,,,,,,
,,,,,,,,,,,,,,,,,60fcdeff0f333add62b19471,19,2022-02-12_13h25.53.532,lexical_decision_task_DD_L6,2021.2.3,MacIntel,60.0024001,z,1,0.5633,,,,,,,,0.5633,1,0,4,4,13,1,1001,ROUPET,z,,,,,,,,,,,,,,,,,,,,,,,,,,,,,,,,,,,,,,,,,,,,,,,,,,,,,,,,,,,,,,,,,,
,,,,,,,,,,,,,,,,,60fcdeff0f333add62b19471,19,2022-02-12_13h25.53.532,lexical_decision_task_DD_L6,2021.2.3,MacIntel,60.0024001,m,1,0.4986,,,,,,,,0.4986,1,0,5,5,1,1,1001,ADJUST,m,,,,,,,,,,,,,,,,,,,,,,,,,,,,,,,,,,,,,,,,,,,,,,,,,,,,,,,,,,,,,,,,,,
,,,,,,,,,,,,,,,,,60fcdeff0f333add62b19471,19,2022-02-12_13h25.53.532,lexical_decision_task_DD_L6,2021.2.3,MacIntel,60.0024001,m,1,0.4419,,,,,,,,0.4419,1,0,6,6,7,1,1001,VOLUME,m,,,,,,,,,,,,,,,,,,,,,,,,,,,,,,,,,,,,,,,,,,,,,,,,,,,,,,,,,,,,,,,,,,
,,,,,,,,,,,,,,,,,60fcdeff0f333add62b19471,19,2022-02-12_13h25.53.532,lexical_decision_task_DD_L6,2021.2.3,MacIntel,60.0024001,m,1,0.5075,,,,,,,,0.5075,1,0,7,7,5,1,1001,OBTAIN,m,,,,,,,,,,,,,,,,,,,,,,,,,,,,,,,,,,,,,,,,,,,,,,,,,,,,,,,,,,,,,,,,,,
,,,,,,,,,,,,,,,,,60fcdeff0f333add62b19471,19,2022-02-12_13h25.53.532,lexical_decision_task_DD_L6,2021.2.3,MacIntel,60.0024001,z,1,0.4689,,,,,,,,0.4689,1,0,8,8,11,1,1001,RASHET,z,,,,,,,,,,,,,,,,,,,,,,,,,,,,,,,,,,,,,,,,,,,,,,,,,,,,,,,,,,,,,,,,,,
,,,,,,,,,,,,,,,,,60fcdeff0f333add62b19471,19,2022-02-12_13h25.53.532,lexical_decision_task_DD_L6,2021.2.3,MacIntel,60.0024001,z,1,0.5943,,,,,,,,0.5943,1,0,9,9,9,1,1001,FARINY,z,,,,,,,,,,,,,,,,,,,,,,,,,,,,,,,,,,,,,,,,,,,,,,,,,,,,,,,,,,,,,,,,,,
,,,,,,,,,,,,,,,,,60fcdeff0f333add62b19471,19,2022-02-12_13h25.53.532,lexical_decision_task_DD_L6,2021.2.3,MacIntel,60.0024001,m,1,0.5065,,,,,,,,0.5065,1,0,10,10,6,1,1001,ZOMBIE,m,,,,,,,,,,,,,,,,,,,,,,,,,,,,,,,,,,,,,,,,,,,,,,,,,,,,,,,,,,,,,,,,,,
,,,,,,,,,,,,,,,,,60fcdeff0f333add62b19471,19,2022-02-12_13h25.53.532,lexical_decision_task_DD_L6,2021.2.3,MacIntel,60.0024001,m,1,0.4674,,,,,,,,0.4674,1,0,11,11,4,1,1001,SQUEAK,m,,,,,,,,,,,,,,,,,,,,,,,,,,,,,,,,,,,,,,,,,,,,,,,,,,,,,,,,,,,,,,,,,,
,,,,,,,,,,,,,,,,,60fcdeff0f333add62b19471,19,2022-02-12_13h25.53.532,lexical_decision_task_DD_L6,2021.2.3,MacIntel,60.0024001,z,1,0.5752,,,,,,,,0.5752,1,0,12,12,15,1,1001,WHAISE,z,,,,,,,,,,,,,,,,,,,,,,,,,,,,,,,,,,,,,,,,,,,,,,,,,,,,,,,,,,,,,,,,,,
,,,,,,,,,,,,,,,,,60fcdeff0f333add62b19471,19,2022-02-12_13h25.53.532,lexical_decision_task_DD_L6,2021.2.3,MacIntel,60.0024001,z,1,0.6401,,,,,,,,0.6401,1,0,13,13,12,1,1001,SPRINY,z,,,,,,,,,,,,,,,,,,,,,,,,,,,,,,,,,,,,,,,,,,,,,,,,,,,,,,,,,,,,,,,,,,
,,,,,,,,,,,,,,,,,60fcdeff0f333add62b19471,19,2022-02-12_13h25.53.532,lexical_decision_task_DD_L6,2021.2.3,MacIntel,60.0024001,z,1,0.4719,,,,,,,,0.4719,1,0,14,14,14,1,1001,THRALE,z,,,,,,,,,,,,,,,,,,,,,,,,,,,,,,,,,,,,,,,,,,,,,,,,,,,,,,,,,,,,,,,,,,
,,,,,,,,,,,,,,,,,60fcdeff0f333add62b19471,19,2022-02-12_13h25.53.532,lexical_decision_task_DD_L6,2021.2.3,MacIntel,60.0024001,m,1,0.547,,,,,,,,0.547,1,0,15,15,3,1,1001,MATRIX,m,,,,,,,,,,,,,,,,,,,,,,,,,,,,,,,,,,,,,,,,,,,,,,,,,,,,,,,,,,,,,,,,,,
space,14.7288,0.238563368,-0.253702257,0,0,0,,,,,,1,end_of_practice,"You have completed the practice trials. During the experimental trials, you will not receive feedback. 
Before you begin, please ensure that you are in a comfortable and quiet location and will not be disturbed for about 15 minutes, as we cannot use your data if you do not complete all the trials. 
 When you are ready to start the experimental trials, please press space or touch the button below.",,,60fcdeff0f333add62b19471,19,2022-02-12_13h25.53.532,lexical_decision_task_DD_L6,2021.2.3,MacIntel,60.0024001,,,,,,,,,,,,,,,,,,,,,0,0,0,0,1,,,,,,,,,,,,,,,,,,,,,,,,,,,,,,,,,,,,,,,,,,,,,,,,,,,,,,,,,,,,,
,,,,,,,,,,,,,,,,,60fcdeff0f333add62b19471,19,2022-02-12_13h25.53.532,lexical_decision_task_DD_L6,2021.2.3,MacIntel,60.0024001,,,,,,,,,,,0.9594,1,,,,,,,,,,,,,,z,1,0.9594,,,,,,,,0.238563368,-0.253702257,0,0,0,,0,0,0,131,1,NACES,LB,z,z,./images/NACESLB.png,,,,,,,,,,,,,,,,,,,,,,,,,,,,,,,,,,,
,,,,,,,,,,,,,,,,,60fcdeff0f333add62b19471,19,2022-02-12_13h25.53.532,lexical_decision_task_DD_L6,2021.2.3,MacIntel,60.0024001,,,,,,,,,,,0.5639,1,,,,,,,,,,,,,,m,1,0.5639,,,,,,,,0.238563368,-0.253702257,0,0,0,,0,1,1,61,1,ARTIST,C,m,m,./images/ARTIST.png,,,,,,,,,,,,,,,,,,,,,,,,,,,,,,,,,,,
,,,,,,,,,,,,,,,,,60fcdeff0f333add62b19471,19,2022-02-12_13h25.53.532,lexical_decision_task_DD_L6,2021.2.3,MacIntel,60.0024001,,,,,,,,,,,0.7853,1,,,,,,,,,,,,,,m,1,0.7853,,,,,,,,0.238563368,-0.253702257,0,0,0,,0,2,2,25,1,CHALK,C,m,m,./images/CHALK.png,,,,,,,,,,,,,,,,,,,,,,,,,,,,,,,,,,,
,,,,,,,,,,,,,,,,,60fcdeff0f333add62b19471,19,2022-02-12_13h25.53.532,lexical_decision_task_DD_L6,2021.2.3,MacIntel,60.0024001,,,,,,,,,,,0.7602,1,,,,,,,,,,,,,,m,1,0.7602,,,,,,,,0.238563368,-0.253702257,0,0,0,,0,3,3,60,1,CURRY,LB,m,m,./images/CURRYLB.png,,,,,,,,,,,,,,,,,,,,,,,,,,,,,,,,,,,
,,,,,,,,,,,,,,,,,60fcdeff0f333add62b19471,19,2022-02-12_13h25.53.532,lexical_decision_task_DD_L6,2021.2.3,MacIntel,60.0024001,,,,,,,,,,,0.6625,1,,,,,,,,,,,,,,m,1,0.6625,,,,,,,,0.238563368,-0.253702257,0,0,0,,0,4,4,5,1,BAMBOO,HB,m,m,./images/BAMBOOHB.png,,,,,,,,,,,,,,,,,,,,,,,,,,,,,,,,,,,
,,,,,,,,,,,,,,,,,60fcdeff0f333add62b19471,19,2022-02-12_13h25.53.532,lexical_decision_task_DD_L6,2021.2.3,MacIntel,60.0024001,,,,,,,,,,,0.6372,1,,,,,,,,,,,,,,z,1,0.6372,,,,,,,,0.238563368,-0.253702257,0,0,0,,0,5,5,99,1,BACKY,C,z,z,./images/BACKY.png,,,,,,,,,,,,,,,,,,,,,,,,,,,,,,,,,,,
,,,,,,,,,,,,,,,,,60fcdeff0f333add62b19471,19,2022-02-12_13h25.53.532,lexical_decision_task_DD_L6,2021.2.3,MacIntel,60.0024001,,,,,,,,,,,0.6531,1,,,,,,,,,,,,,,z,1,0.6531,,,,,,,,0.238563368,-0.253702257,0,0,0,,0,6,6,132,1,SCIFF,C,z,z,./images/SCIFF.png,,,,,,,,,,,,,,,,,,,,,,,,,,,,,,,,,,,
,,,,,,,,,,,,,,,,,60fcdeff0f333add62b19471,19,2022-02-12_13h25.53.532,lexical_decision_task_DD_L6,2021.2.3,MacIntel,60.0024001,,,,,,,,,,,0.6545,1,,,,,,,,,,,,,,m,1,0.6545,,,,,,,,0.238563368,-0.253702257,0,0,0,,0,7,7,58,1,CANOE,C,m,m,./images/CANOE.png,,,,,,,,,,,,,,,,,,,,,,,,,,,,,,,,,,,
,,,,,,,,,,,,,,,,,60fcdeff0f333add62b19471,19,2022-02-12_13h25.53.532,lexical_decision_task_DD_L6,2021.2.3,MacIntel,60.0024001,,,,,,,,,,,0.6126,1,,,,,,,,,,,,,,m,1,0.6126,,,,,,,,0.238563368,-0.253702257,0,0,0,,0,8,8,81,1,DRILL,LB,m,m,./images/DRILLLB.png,,,,,,,,,,,,,,,,,,,,,,,,,,,,,,,,,,,
,,,,,,,,,,,,,,,,,60fcdeff0f333add62b19471,19,2022-02-12_13h25.53.532,lexical_decision_task_DD_L6,2021.2.3,MacIntel,60.0024001,,,,,,,,,,,0.5439,1,,,,,,,,,,,,,,z,1,0.5439,,,,,,,,0.238563368,-0.253702257,0,0,0,,0,9,9,122,1,BLOOT,LB,z,z,./images/BLOOTLB.png,,,,,,,,,,,,,,,,,,,,,,,,,,,,,,,,,,,
,,,,,,,,,,,,,,,,,60fcdeff0f333add62b19471,19,2022-02-12_13h25.53.532,lexical_decision_task_DD_L6,2021.2.3,MacIntel,60.0024001,,,,,,,,,,,0.5338,1,,,,,,,,,,,,,,z,1,0.5338,,,,,,,,0.238563368,-0.253702257,0,0,0,,0,10,10,162,1,LEICH,C,z,z,./images/LEICH.png,,,,,,,,,,,,,,,,,,,,,,,,,,,,,,,,,,,
,,,,,,,,,,,,,,,,,60fcdeff0f333add62b19471,19,2022-02-12_13h25.53.532,lexical_decision_task_DD_L6,2021.2.3,MacIntel,60.0024001,,,,,,,,,,,0.6601,1,,,,,,,,,,,,,,z,1,0.6601,,,,,,,,0.238563368,-0.253702257,0,0,0,,0,11,11,113,1,LINEW,LB,z,z,./images/LINEWLB.png,,,,,,,,,,,,,,,,,,,,,,,,,,,,,,,,,,,
,,,,,,,,,,,,,,,,,60fcdeff0f333add62b19471,19,2022-02-12_13h25.53.532,lexical_decision_task_DD_L6,2021.2.3,MacIntel,60.0024001,,,,,,,,,,,0.7265,1,,,,,,,,,,,,,,z,1,0.7265,,,,,,,,0.238563368,-0.253702257,0,0,0,,0,12,12,85,1,CHULK,HB,z,z,./images/CHULKHB.png,,,,,,,,,,,,,,,,,,,,,,,,,,,,,,,,,,,
,,,,,,,,,,,,,,,,,60fcdeff0f333add62b19471,19,2022-02-12_13h25.53.532,lexical_decision_task_DD_L6,2021.2.3,MacIntel,60.0024001,,,,,,,,,,,0.7935,0,,,,,,,,,,,,,,z,0,0.7935,,,,,,,,0.238563368,-0.253702257,0,0,0,,0,13,13,83,1,WHISKY,HB,m,m,./images/WHISKYHB.png,,,,,,,,,,,,,,,,,,,,,,,,,,,,,,,,,,,
,,,,,,,,,,,,,,,,,60fcdeff0f333add62b19471,19,2022-02-12_13h25.53.532,lexical_decision_task_DD_L6,2021.2.3,MacIntel,60.0024001,,,,,,,,,,,0.7249,1,,,,,,,,,,,,,,z,1,0.7249,,,,,,,,0.238563368,-0.253702257,0,0,0,,0,14,14,165,1,TROWN,C,z,z,./images/TROWN.png,,,,,,,,,,,,,,,,,,,,,,,,,,,,,,,,,,,
,,,,,,,,,,,,,,,,,60fcdeff0f333add62b19471,19,2022-02-12_13h25.53.532,lexical_decision_task_DD_L6,2021.2.3,MacIntel,60.0024001,,,,,,,,,,,0.5155,1,,,,,,,,,,,,,,m,1,0.5155,,,,,,,,0.238563368,-0.253702257,0,0,0,,0,15,15,21,1,DANCER,LB,m,m,./images/DANCERLB.png,,,,,,,,,,,,,,,,,,,,,,,,,,,,,,,,,,,
,,,,,,,,,,,,,,,,,60fcdeff0f333add62b19471,19,2022-02-12_13h25.53.532,lexical_decision_task_DD_L6,2021.2.3,MacIntel,60.0024001,,,,,,,,,,,0.521,1,,,,,,,,,,,,,,m,1,0.521,,,,,,,,0.238563368,-0.253702257,0,0,0,,0,16,16,45,1,MONKEY,LB,m,m,./images/MONKEYLB.png,,,,,,,,,,,,,,,,,,,,,,,,,,,,,,,,,,,
,,,,,,,,,,,,,,,,,60fcdeff0f333add62b19471,19,2022-02-12_13h25.53.532,lexical_decision_task_DD_L6,2021.2.3,MacIntel,60.0024001,,,,,,,,,,,0.5885,1,,,,,,,,,,,,,,z,1,0.5885,,,,,,,,0.238563368,-0.253702257,0,0,0,,0,17,17,147,1,ZOLES,C,z,z,./images/ZOLES.png,,,,,,,,,,,,,,,,,,,,,,,,,,,,,,,,,,,
,,,,,,,,,,,,,,,,,60fcdeff0f333add62b19471,19,2022-02-12_13h25.53.532,lexical_decision_task_DD_L6,2021.2.3,MacIntel,60.0024001,,,,,,,,,,,0.4855,0,,,,,,,,,,,,,,z,0,0.4855,,,,,,,,0.238563368,-0.253702257,0,0,0,,0,18,18,82,1,PEBBLE,C,m,m,./images/PEBBLE.png,,,,,,,,,,,,,,,,,,,,,,,,,,,,,,,,,,,
,,,,,,,,,,,,,,,,,60fcdeff0f333add62b19471,19,2022-02-12_13h25.53.532,lexical_decision_task_DD_L6,2021.2.3,MacIntel,60.0024001,,,,,,,,,,,0.7613,1,,,,,,,,,,,,,,m,1,0.7613,,,,,,,,0.238563368,-0.253702257,0,0,0,,0,19,19,57,1,FERRY,LB,m,m,./images/FERRYLB.png,,,,,,,,,,,,,,,,,,,,,,,,,,,,,,,,,,,
,,,,,,,,,,,,,,,,,60fcdeff0f333add62b19471,19,2022-02-12_13h25.53.532,lexical_decision_task_DD_L6,2021.2.3,MacIntel,60.0024001,,,,,,,,,,,1.3298,1,,,,,,,,,,,,,,z,1,1.3298,,,,,,,,0.238563368,-0.253702257,0,0,0,,0,20,20,97,1,CHIDS,HB,z,z,./images/CHIDSHB.png,,,,,,,,,,,,,,,,,,,,,,,,,,,,,,,,,,,
,,,,,,,,,,,,,,,,,60fcdeff0f333add62b19471,19,2022-02-12_13h25.53.532,lexical_decision_task_DD_L6,2021.2.3,MacIntel,60.0024001,,,,,,,,,,,0.6859,1,,,,,,,,,,,,,,z,1,0.6859,,,,,,,,0.238563368,-0.253702257,0,0,0,,0,21,21,93,1,SMONE,C,z,z,./images/SMONE.png,,,,,,,,,,,,,,,,,,,,,,,,,,,,,,,,,,,
,,,,,,,,,,,,,,,,,60fcdeff0f333add62b19471,19,2022-02-12_13h25.53.532,lexical_decision_task_DD_L6,2021.2.3,MacIntel,60.0024001,,,,,,,,,,,0.6894,1,,,,,,,,,,,,,,z,1,0.6894,,,,,,,,0.238563368,-0.253702257,0,0,0,,0,22,22,164,1,SGREW,LB,z,z,./images/SGREWLB.png,,,,,,,,,,,,,,,,,,,,,,,,,,,,,,,,,,,
,,,,,,,,,,,,,,,,,60fcdeff0f333add62b19471,19,2022-02-12_13h25.53.532,lexical_decision_task_DD_L6,2021.2.3,MacIntel,60.0024001,,,,,,,,,,,0.7682,1,,,,,,,,,,,,,,m,1,0.7682,,,,,,,,0.238563368,-0.253702257,0,0,0,,0,23,23,8,1,CLIFF,HB,m,m,./images/CLIFFHB.png,,,,,,,,,,,,,,,,,,,,,,,,,,,,,,,,,,,
,,,,,,,,,,,,,,,,,60fcdeff0f333add62b19471,19,2022-02-12_13h25.53.532,lexical_decision_task_DD_L6,2021.2.3,MacIntel,60.0024001,,,,,,,,,,,0.4991,1,,,,,,,,,,,,,,m,1,0.4991,,,,,,,,0.238563368,-0.253702257,0,0,0,,0,24,24,42,1,CHAIN,LB,m,m,./images/CHAINLB.png,,,,,,,,,,,,,,,,,,,,,,,,,,,,,,,,,,,
,,,,,,,,,,,,,,,,,60fcdeff0f333add62b19471,19,2022-02-12_13h25.53.532,lexical_decision_task_DD_L6,2021.2.3,MacIntel,60.0024001,,,,,,,,,,,0.8783,1,,,,,,,,,,,,,,z,1,0.8783,,,,,,,,0.238563368,-0.253702257,0,0,0,,0,25,25,145,1,LAMEL,HB,z,z,./images/LAMELHB.png,,,,,,,,,,,,,,,,,,,,,,,,,,,,,,,,,,,
,,,,,,,,,,,,,,,,,60fcdeff0f333add62b19471,19,2022-02-12_13h25.53.532,lexical_decision_task_DD_L6,2021.2.3,MacIntel,60.0024001,,,,,,,,,,,0.5936,1,,,,,,,,,,,,,,m,1,0.5936,,,,,,,,0.238563368,-0.253702257,0,0,0,,0,26,26,39,1,CANDY,LB,m,m,./images/CANDYLB.png,,,,,,,,,,,,,,,,,,,,,,,,,,,,,,,,,,,
,,,,,,,,,,,,,,,,,60fcdeff0f333add62b19471,19,2022-02-12_13h25.53.532,lexical_decision_task_DD_L6,2021.2.3,MacIntel,60.0024001,,,,,,,,,,,0.4776,1,,,,,,,,,,,,,,m,1,0.4776,,,,,,,,0.238563368,-0.253702257,0,0,0,,0,27,27,37,1,TIGER,C,m,m,./images/TIGER.png,,,,,,,,,,,,,,,,,,,,,,,,,,,,,,,,,,,
,,,,,,,,,,,,,,,,,60fcdeff0f333add62b19471,19,2022-02-12_13h25.53.532,lexical_decision_task_DD_L6,2021.2.3,MacIntel,60.0024001,,,,,,,,,,,0.6054,1,,,,,,,,,,,,,,z,1,0.6054,,,,,,,,0.238563368,-0.253702257,0,0,0,,0,28,28,129,1,PRANS,C,z,z,./images/PRANS.png,,,,,,,,,,,,,,,,,,,,,,,,,,,,,,,,,,,
,,,,,,,,,,,,,,,,,60fcdeff0f333add62b19471,19,2022-02-12_13h25.53.532,lexical_decision_task_DD_L6,2021.2.3,MacIntel,60.0024001,,,,,,,,,,,0.5476,1,,,,,,,,,,,,,,m,1,0.5476,,,,,,,,0.238563368,-0.253702257,0,0,0,,0,29,29,23,1,CLOTH,HB,m,m,./images/CLOTHHB.png,,,,,,,,,,,,,,,,,,,,,,,,,,,,,,,,,,,
,,,,,,,,,,,,,,,,,60fcdeff0f333add62b19471,19,2022-02-12_13h25.53.532,lexical_decision_task_DD_L6,2021.2.3,MacIntel,60.0024001,,,,,,,,,,,0.6384,1,,,,,,,,,,,,,,m,1,0.6384,,,,,,,,0.238563368,-0.253702257,0,0,0,,0,30,30,43,1,STOOL,C,m,m,./images/STOOL.png,,,,,,,,,,,,,,,,,,,,,,,,,,,,,,,,,,,
,,,,,,,,,,,,,,,,,60fcdeff0f333add62b19471,19,2022-02-12_13h25.53.532,lexical_decision_task_DD_L6,2021.2.3,MacIntel,60.0024001,,,,,,,,,,,0.6005,1,,,,,,,,,,,,,,z,1,0.6005,,,,,,,,0.238563368,-0.253702257,0,0,0,,0,31,31,144,1,NAIRY,C,z,z,./images/NAIRY.png,,,,,,,,,,,,,,,,,,,,,,,,,,,,,,,,,,,
,,,,,,,,,,,,,,,,,60fcdeff0f333add62b19471,19,2022-02-12_13h25.53.532,lexical_decision_task_DD_L6,2021.2.3,MacIntel,60.0024001,,,,,,,,,,,0.5016,1,,,,,,,,,,,,,,m,1,0.5016,,,,,,,,0.238563368,-0.253702257,0,0,0,,0,32,32,16,1,GRAPE,C,m,m,./images/GRAPE.png,,,,,,,,,,,,,,,,,,,,,,,,,,,,,,,,,,,
,,,,,,,,,,,,,,,,,60fcdeff0f333add62b19471,19,2022-02-12_13h25.53.532,lexical_decision_task_DD_L6,2021.2.3,MacIntel,60.0024001,,,,,,,,,,,0.7696,1,,,,,,,,,,,,,,m,1,0.7696,,,,,,,,0.238563368,-0.253702257,0,0,0,,0,33,33,12,1,BLOKE,LB,m,m,./images/BLOKELB.png,,,,,,,,,,,,,,,,,,,,,,,,,,,,,,,,,,,
,,,,,,,,,,,,,,,,,60fcdeff0f333add62b19471,19,2022-02-12_13h25.53.532,lexical_decision_task_DD_L6,2021.2.3,MacIntel,60.0024001,,,,,,,,,,,1.1634,1,,,,,,,,,,,,,,z,1,1.1634,,,,,,,,0.238563368,-0.253702257,0,0,0,,0,34,34,115,1,MAWNS,HB,z,z,./images/MAWNSHB.png,,,,,,,,,,,,,,,,,,,,,,,,,,,,,,,,,,,
,,,,,,,,,,,,,,,,,60fcdeff0f333add62b19471,19,2022-02-12_13h25.53.532,lexical_decision_task_DD_L6,2021.2.3,MacIntel,60.0024001,,,,,,,,,,,0.6263,1,,,,,,,,,,,,,,m,1,0.6263,,,,,,,,0.238563368,-0.253702257,0,0,0,,0,35,35,54,1,CHERRY,LB,m,m,./images/CHERRYLB.png,,,,,,,,,,,,,,,,,,,,,,,,,,,,,,,,,,,
,,,,,,,,,,,,,,,,,60fcdeff0f333add62b19471,19,2022-02-12_13h25.53.532,lexical_decision_task_DD_L6,2021.2.3,MacIntel,60.0024001,,,,,,,,,,,0.4855,1,,,,,,,,,,,,,,z,1,0.4855,,,,,,,,0.238563368,-0.253702257,0,0,0,,0,36,36,126,1,GUELS,C,z,z,./images/GUELS.png,,,,,,,,,,,,,,,,,,,,,,,,,,,,,,,,,,,
,,,,,,,,,,,,,,,,,60fcdeff0f333add62b19471,19,2022-02-12_13h25.53.532,lexical_decision_task_DD_L6,2021.2.3,MacIntel,60.0024001,,,,,,,,,,,0.8791,1,,,,,,,,,,,,,,z,1,0.8791,,,,,,,,0.238563368,-0.253702257,0,0,0,,0,37,37,106,1,CLUMS,HB,z,z,./images/CLUMSHB.png,,,,,,,,,,,,,,,,,,,,,,,,,,,,,,,,,,,
,,,,,,,,,,,,,,,,,60fcdeff0f333add62b19471,19,2022-02-12_13h25.53.532,lexical_decision_task_DD_L6,2021.2.3,MacIntel,60.0024001,,,,,,,,,,,0.6313,1,,,,,,,,,,,,,,z,1,0.6313,,,,,,,,0.238563368,-0.253702257,0,0,0,,0,38,38,128,1,GRIFT,LB,z,z,./images/GRIFTLB.png,,,,,,,,,,,,,,,,,,,,,,,,,,,,,,,,,,,
,,,,,,,,,,,,,,,,,60fcdeff0f333add62b19471,19,2022-02-12_13h25.53.532,lexical_decision_task_DD_L6,2021.2.3,MacIntel,60.0024001,,,,,,,,,,,0.5685,1,,,,,,,,,,,,,,z,1,0.5685,,,,,,,,0.238563368,-0.253702257,0,0,0,,0,39,39,86,1,AIFED,LB,z,z,./images/AIFEDLB.png,,,,,,,,,,,,,,,,,,,,,,,,,,,,,,,,,,,
,,,,,,,,,,,,,,,,,60fcdeff0f333add62b19471,19,2022-02-12_13h25.53.532,lexical_decision_task_DD_L6,2021.2.3,MacIntel,60.0024001,,,,,,,,,,,0.5862,1,,,,,,,,,,,,,,m,1,0.5862,,,,,,,,0.238563368,-0.253702257,0,0,0,,0,40,40,70,1,BANANA,C,m,m,./images/BANANA.png,,,,,,,,,,,,,,,,,,,,,,,,,,,,,,,,,,,
,,,,,,,,,,,,,,,,,60fcdeff0f333add62b19471,19,2022-02-12_13h25.53.532,lexical_decision_task_DD_L6,2021.2.3,MacIntel,60.0024001,,,,,,,,,,,0.8458,1,,,,,,,,,,,,,,m,1,0.8458,,,,,,,,0.238563368,-0.253702257,0,0,0,space,0,41,41,38,1,ENGINE,HB,m,m,./images/ENGINEHB.png,67.2797,,,,,,,,,,,,,,,,,,,,,,,,,,,,,,,,,,
,,,,,,,,,,,,,,,,,60fcdeff0f333add62b19471,19,2022-02-12_13h25.53.532,lexical_decision_task_DD_L6,2021.2.3,MacIntel,60.0024001,,,,,,,,,,,0.6297,1,,,,,,,,,,,,,,z,1,0.6297,,,,,,,,0.238563368,-0.253702257,0,0,0,,0,42,42,167,1,ZONET,LB,z,z,./images/ZONETLB.png,,,,,,,,,,,,,,,,,,,,,,,,,,,,,,,,,,,
,,,,,,,,,,,,,,,,,60fcdeff0f333add62b19471,19,2022-02-12_13h25.53.532,lexical_decision_task_DD_L6,2021.2.3,MacIntel,60.0024001,,,,,,,,,,,0.5889,1,,,,,,,,,,,,,,z,1,0.5889,,,,,,,,0.238563368,-0.253702257,0,0,0,,0,43,43,108,1,GRUET,C,z,z,./images/GRUET.png,,,,,,,,,,,,,,,,,,,,,,,,,,,,,,,,,,,
,,,,,,,,,,,,,,,,,60fcdeff0f333add62b19471,19,2022-02-12_13h25.53.532,lexical_decision_task_DD_L6,2021.2.3,MacIntel,60.0024001,,,,,,,,,,,0.6479,1,,,,,,,,,,,,,,z,1,0.6479,,,,,,,,0.238563368,-0.253702257,0,0,0,,0,44,44,104,1,GITTY,LB,z,z,./images/GITTYLB.png,,,,,,,,,,,,,,,,,,,,,,,,,,,,,,,,,,,
,,,,,,,,,,,,,,,,,60fcdeff0f333add62b19471,19,2022-02-12_13h25.53.532,lexical_decision_task_DD_L6,2021.2.3,MacIntel,60.0024001,,,,,,,,,,,0.7046,1,,,,,,,,,,,,,,z,1,0.7046,,,,,,,,0.238563368,-0.253702257,0,0,0,,0,45,45,94,1,BLANS,HB,z,z,./images/BLANSHB.png,,,,,,,,,,,,,,,,,,,,,,,,,,,,,,,,,,,
,,,,,,,,,,,,,,,,,60fcdeff0f333add62b19471,19,2022-02-12_13h25.53.532,lexical_decision_task_DD_L6,2021.2.3,MacIntel,60.0024001,,,,,,,,,,,0.8782,1,,,,,,,,,,,,,,m,1,0.8782,,,,,,,,0.238563368,-0.253702257,0,0,0,,0,46,46,3,1,CRATER,LB,m,m,./images/CRATERLB.png,,,,,,,,,,,,,,,,,,,,,,,,,,,,,,,,,,,
,,,,,,,,,,,,,,,,,60fcdeff0f333add62b19471,19,2022-02-12_13h25.53.532,lexical_decision_task_DD_L6,2021.2.3,MacIntel,60.0024001,,,,,,,,,,,0.4878,1,,,,,,,,,,,,,,m,1,0.4878,,,,,,,,0.238563368,-0.253702257,0,0,0,,0,47,47,40,1,SNAKE,C,m,m,./images/SNAKE.png,,,,,,,,,,,,,,,,,,,,,,,,,,,,,,,,,,,
,,,,,,,,,,,,,,,,,60fcdeff0f333add62b19471,19,2022-02-12_13h25.53.532,lexical_decision_task_DD_L6,2021.2.3,MacIntel,60.0024001,,,,,,,,,,,0.6066,1,,,,,,,,,,,,,,m,1,0.6066,,,,,,,,0.238563368,-0.253702257,0,0,0,,0,48,48,78,1,BROOM,LB,m,m,./images/BROOMLB.png,,,,,,,,,,,,,,,,,,,,,,,,,,,,,,,,,,,
,,,,,,,,,,,,,,,,,60fcdeff0f333add62b19471,19,2022-02-12_13h25.53.532,lexical_decision_task_DD_L6,2021.2.3,MacIntel,60.0024001,,,,,,,,,,,0.5644,1,,,,,,,,,,,,,,m,1,0.5644,,,,,,,,0.238563368,-0.253702257,0,0,0,,0,49,49,6,1,STAIN,LB,m,m,./images/STAINLB.png,,,,,,,,,,,,,,,,,,,,,,,,,,,,,,,,,,,
,,,,,,,,,,,,,,,,,60fcdeff0f333add62b19471,19,2022-02-12_13h25.53.532,lexical_decision_task_DD_L6,2021.2.3,MacIntel,60.0024001,,,,,,,,,,,0.6348,1,,,,,,,,,,,,,,z,1,0.6348,,,,,,,,0.238563368,-0.253702257,0,0,0,,0,50,50,151,1,TINKY,HB,z,z,./images/TINKYHB.png,,,,,,,,,,,,,,,,,,,,,,,,,,,,,,,,,,,
,,,,,,,,,,,,,,,,,60fcdeff0f333add62b19471,19,2022-02-12_13h25.53.532,lexical_decision_task_DD_L6,2021.2.3,MacIntel,60.0024001,,,,,,,,,,,0.4968,1,,,,,,,,,,,,,,m,1,0.4968,,,,,,,,0.238563368,-0.253702257,0,0,0,,0,51,51,27,1,BUTTER,LB,m,m,./images/BUTTERLB.png,,,,,,,,,,,,,,,,,,,,,,,,,,,,,,,,,,,
,,,,,,,,,,,,,,,,,60fcdeff0f333add62b19471,19,2022-02-12_13h25.53.532,lexical_decision_task_DD_L6,2021.2.3,MacIntel,60.0024001,,,,,,,,,,,0.6453,1,,,,,,,,,,,,,,z,1,0.6453,,,,,,,,0.238563368,-0.253702257,0,0,0,,0,52,52,148,1,JOMS,HB,z,z,./images/JOMSHB.png,,,,,,,,,,,,,,,,,,,,,,,,,,,,,,,,,,,
,,,,,,,,,,,,,,,,,60fcdeff0f333add62b19471,19,2022-02-12_13h25.53.532,lexical_decision_task_DD_L6,2021.2.3,MacIntel,60.0024001,,,,,,,,,,,0.5812,1,,,,,,,,,,,,,,m,1,0.5812,,,,,,,,0.238563368,-0.253702257,0,0,0,,0,53,53,36,1,BOILER,LB,m,m,./images/BOILERLB.png,,,,,,,,,,,,,,,,,,,,,,,,,,,,,,,,,,,
,,,,,,,,,,,,,,,,,60fcdeff0f333add62b19471,19,2022-02-12_13h25.53.532,lexical_decision_task_DD_L6,2021.2.3,MacIntel,60.0024001,,,,,,,,,,,0.5832,1,,,,,,,,,,,,,,z,1,0.5832,,,,,,,,0.238563368,-0.253702257,0,0,0,,0,54,54,87,1,TRING,C,z,z,./images/TRING.png,,,,,,,,,,,,,,,,,,,,,,,,,,,,,,,,,,,
,,,,,,,,,,,,,,,,,60fcdeff0f333add62b19471,19,2022-02-12_13h25.53.532,lexical_decision_task_DD_L6,2021.2.3,MacIntel,60.0024001,,,,,,,,,,,0.5363,1,,,,,,,,,,,,,,z,1,0.5363,,,,,,,,0.238563368,-0.253702257,0,0,0,,0,55,55,111,1,HOSSE,C,z,z,./images/HOSSE.png,,,,,,,,,,,,,,,,,,,,,,,,,,,,,,,,,,,
,,,,,,,,,,,,,,,,,60fcdeff0f333add62b19471,19,2022-02-12_13h25.53.532,lexical_decision_task_DD_L6,2021.2.3,MacIntel,60.0024001,,,,,,,,,,,0.5819,1,,,,,,,,,,,,,,m,1,0.5819,,,,,,,,0.238563368,-0.253702257,0,0,0,,0,56,56,50,1,PILOT,HB,m,m,./images/PILOTHB.png,,,,,,,,,,,,,,,,,,,,,,,,,,,,,,,,,,,
,,,,,,,,,,,,,,,,,60fcdeff0f333add62b19471,19,2022-02-12_13h25.53.532,lexical_decision_task_DD_L6,2021.2.3,MacIntel,60.0024001,,,,,,,,,,,0.592,1,,,,,,,,,,,,,,z,1,0.592,,,,,,,,0.238563368,-0.253702257,0,0,0,,0,57,57,114,1,RIKES,C,z,z,./images/RIKES.png,,,,,,,,,,,,,,,,,,,,,,,,,,,,,,,,,,,
,,,,,,,,,,,,,,,,,60fcdeff0f333add62b19471,19,2022-02-12_13h25.53.532,lexical_decision_task_DD_L6,2021.2.3,MacIntel,60.0024001,,,,,,,,,,,0.6558,1,,,,,,,,,,,,,,m,1,0.6558,,,,,,,,0.238563368,-0.253702257,0,0,0,,0,58,58,19,1,DONKEY,C,m,m,./images/DONKEY.png,,,,,,,,,,,,,,,,,,,,,,,,,,,,,,,,,,,
,,,,,,,,,,,,,,,,,60fcdeff0f333add62b19471,19,2022-02-12_13h25.53.532,lexical_decision_task_DD_L6,2021.2.3,MacIntel,60.0024001,,,,,,,,,,,0.7436,1,,,,,,,,,,,,,,z,1,0.7436,,,,,,,,0.238563368,-0.253702257,0,0,0,,0,59,59,109,1,BURGE,HB,z,z,./images/BURGEHB.png,,,,,,,,,,,,,,,,,,,,,,,,,,,,,,,,,,,
,,,,,,,,,,,,,,,,,60fcdeff0f333add62b19471,19,2022-02-12_13h25.53.532,lexical_decision_task_DD_L6,2021.2.3,MacIntel,60.0024001,,,,,,,,,,,0.5501,1,,,,,,,,,,,,,,z,1,0.5501,,,,,,,,0.238563368,-0.253702257,0,0,0,,0,60,60,137,1,JOOST,LB,z,z,./images/JOOSTLB.png,,,,,,,,,,,,,,,,,,,,,,,,,,,,,,,,,,,
,,,,,,,,,,,,,,,,,60fcdeff0f333add62b19471,19,2022-02-12_13h25.53.532,lexical_decision_task_DD_L6,2021.2.3,MacIntel,60.0024001,,,,,,,,,,,0.5374,1,,,,,,,,,,,,,,m,1,0.5374,,,,,,,,0.238563368,-0.253702257,0,0,0,,0,61,61,48,1,SHIELD,LB,m,m,./images/SHIELDLB.png,,,,,,,,,,,,,,,,,,,,,,,,,,,,,,,,,,,
,,,,,,,,,,,,,,,,,60fcdeff0f333add62b19471,19,2022-02-12_13h25.53.532,lexical_decision_task_DD_L6,2021.2.3,MacIntel,60.0024001,,,,,,,,,,,0.4712,1,,,,,,,,,,,,,,m,1,0.4712,,,,,,,,0.238563368,-0.253702257,0,0,0,,0,62,62,46,1,MUMMY,C,m,m,./images/MUMMY.png,,,,,,,,,,,,,,,,,,,,,,,,,,,,,,,,,,,
,,,,,,,,,,,,,,,,,60fcdeff0f333add62b19471,19,2022-02-12_13h25.53.532,lexical_decision_task_DD_L6,2021.2.3,MacIntel,60.0024001,,,,,,,,,,,0.6373,0,,,,,,,,,,,,,,z,0,0.6373,,,,,,,,0.238563368,-0.253702257,0,0,0,,0,63,63,53,1,POSTER,HB,m,m,./images/POSTERHB.png,,,,,,,,,,,,,,,,,,,,,,,,,,,,,,,,,,,
,,,,,,,,,,,,,,,,,60fcdeff0f333add62b19471,19,2022-02-12_13h25.53.532,lexical_decision_task_DD_L6,2021.2.3,MacIntel,60.0024001,,,,,,,,,,,0.8967,1,,,,,,,,,,,,,,z,1,0.8967,,,,,,,,0.238563368,-0.253702257,0,0,0,,0,64,64,139,1,BLEAR,HB,z,z,./images/BLEARHB.png,,,,,,,,,,,,,,,,,,,,,,,,,,,,,,,,,,,
,,,,,,,,,,,,,,,,,60fcdeff0f333add62b19471,19,2022-02-12_13h25.53.532,lexical_decision_task_DD_L6,2021.2.3,MacIntel,60.0024001,,,,,,,,,,,0.5595,1,,,,,,,,,,,,,,m,1,0.5595,,,,,,,,0.238563368,-0.253702257,0,0,0,,0,65,65,73,1,GLOVE,C,m,m,./images/GLOVE.png,,,,,,,,,,,,,,,,,,,,,,,,,,,,,,,,,,,
,,,,,,,,,,,,,,,,,60fcdeff0f333add62b19471,19,2022-02-12_13h25.53.532,lexical_decision_task_DD_L6,2021.2.3,MacIntel,60.0024001,,,,,,,,,,,0.5032,1,,,,,,,,,,,,,,m,1,0.5032,,,,,,,,0.238563368,-0.253702257,0,0,0,,0,66,66,51,1,SAUCE,LB,m,m,./images/SAUCELB.png,,,,,,,,,,,,,,,,,,,,,,,,,,,,,,,,,,,
,,,,,,,,,,,,,,,,,60fcdeff0f333add62b19471,19,2022-02-12_13h25.53.532,lexical_decision_task_DD_L6,2021.2.3,MacIntel,60.0024001,,,,,,,,,,,1.0647,1,,,,,,,,,,,,,,z,1,1.0647,,,,,,,,0.238563368,-0.253702257,0,0,0,,0,67,67,91,1,SHENS,HB,z,z,./images/SHENSHB.png,,,,,,,,,,,,,,,,,,,,,,,,,,,,,,,,,,,
,,,,,,,,,,,,,,,,,60fcdeff0f333add62b19471,19,2022-02-12_13h25.53.532,lexical_decision_task_DD_L6,2021.2.3,MacIntel,60.0024001,,,,,,,,,,,0.6263,1,,,,,,,,,,,,,,m,1,0.6263,,,,,,,,0.238563368,-0.253702257,0,0,0,,0,68,68,4,1,BOXER,C,m,m,./images/BOXER.png,,,,,,,,,,,,,,,,,,,,,,,,,,,,,,,,,,,
,,,,,,,,,,,,,,,,,60fcdeff0f333add62b19471,19,2022-02-12_13h25.53.532,lexical_decision_task_DD_L6,2021.2.3,MacIntel,60.0024001,,,,,,,,,,,0.6142,1,,,,,,,,,,,,,,z,1,0.6142,,,,,,,,0.238563368,-0.253702257,0,0,0,,0,69,69,102,1,DULLE,C,z,z,./images/DULLE.png,,,,,,,,,,,,,,,,,,,,,,,,,,,,,,,,,,,
,,,,,,,,,,,,,,,,,60fcdeff0f333add62b19471,19,2022-02-12_13h25.53.532,lexical_decision_task_DD_L6,2021.2.3,MacIntel,60.0024001,,,,,,,,,,,0.5967,1,,,,,,,,,,,,,,z,1,0.5967,,,,,,,,0.238563368,-0.253702257,0,0,0,,0,70,70,98,1,BAMPS,LB,z,z,./images/BAMPSLB.png,,,,,,,,,,,,,,,,,,,,,,,,,,,,,,,,,,,
,,,,,,,,,,,,,,,,,60fcdeff0f333add62b19471,19,2022-02-12_13h25.53.532,lexical_decision_task_DD_L6,2021.2.3,MacIntel,60.0024001,,,,,,,,,,,0.6897,1,,,,,,,,,,,,,,z,1,0.6897,,,,,,,,0.238563368,-0.253702257,0,0,0,,0,71,71,142,1,PLASK,HB,z,z,./images/PLASKHB.png,,,,,,,,,,,,,,,,,,,,,,,,,,,,,,,,,,,
,,,,,,,,,,,,,,,,,60fcdeff0f333add62b19471,19,2022-02-12_13h25.53.532,lexical_decision_task_DD_L6,2021.2.3,MacIntel,60.0024001,,,,,,,,,,,0.6265,1,,,,,,,,,,,,,,m,1,0.6265,,,,,,,,0.238563368,-0.253702257,0,0,0,,0,72,72,15,1,COLLAR,LB,m,m,./images/COLLARLB.png,,,,,,,,,,,,,,,,,,,,,,,,,,,,,,,,,,,
,,,,,,,,,,,,,,,,,60fcdeff0f333add62b19471,19,2022-02-12_13h25.53.532,lexical_decision_task_DD_L6,2021.2.3,MacIntel,60.0024001,,,,,,,,,,,1.2042,1,,,,,,,,,,,,,,z,1,1.2042,,,,,,,,0.238563368,-0.253702257,0,0,0,,0,73,73,127,1,NINDY,HB,z,z,./images/NINDYHB.png,,,,,,,,,,,,,,,,,,,,,,,,,,,,,,,,,,,
,,,,,,,,,,,,,,,,,60fcdeff0f333add62b19471,19,2022-02-12_13h25.53.532,lexical_decision_task_DD_L6,2021.2.3,MacIntel,60.0024001,,,,,,,,,,,0.9051,0,,,,,,,,,,,,,,z,0,0.9051,,,,,,,,0.238563368,-0.253702257,0,0,0,,0,74,74,71,1,BUBBLE,HB,m,m,./images/BUBBLEHB.png,,,,,,,,,,,,,,,,,,,,,,,,,,,,,,,,,,,
,,,,,,,,,,,,,,,,,60fcdeff0f333add62b19471,19,2022-02-12_13h25.53.532,lexical_decision_task_DD_L6,2021.2.3,MacIntel,60.0024001,,,,,,,,,,,0.601,1,,,,,,,,,,,,,,m,1,0.601,,,,,,,,0.238563368,-0.253702257,0,0,0,,0,75,75,55,1,ALLEY,C,m,m,./images/ALLEY.png,,,,,,,,,,,,,,,,,,,,,,,,,,,,,,,,,,,
,,,,,,,,,,,,,,,,,60fcdeff0f333add62b19471,19,2022-02-12_13h25.53.532,lexical_decision_task_DD_L6,2021.2.3,MacIntel,60.0024001,,,,,,,,,,,0.6342,1,,,,,,,,,,,,,,z,1,0.6342,,,,,,,,0.238563368,-0.253702257,0,0,0,,0,76,76,138,1,PLICE,C,z,z,./images/PLICE.png,,,,,,,,,,,,,,,,,,,,,,,,,,,,,,,,,,,
,,,,,,,,,,,,,,,,,60fcdeff0f333add62b19471,19,2022-02-12_13h25.53.532,lexical_decision_task_DD_L6,2021.2.3,MacIntel,60.0024001,,,,,,,,,,,0.549,1,,,,,,,,,,,,,,m,1,0.549,,,,,,,,0.238563368,-0.253702257,0,0,0,,0,77,77,63,1,BAKER,LB,m,m,./images/BAKERLB.png,,,,,,,,,,,,,,,,,,,,,,,,,,,,,,,,,,,
,,,,,,,,,,,,,,,,,60fcdeff0f333add62b19471,19,2022-02-12_13h25.53.532,lexical_decision_task_DD_L6,2021.2.3,MacIntel,60.0024001,,,,,,,,,,,0.8352,1,,,,,,,,,,,,,,m,1,0.8352,,,,,,,,0.238563368,-0.253702257,0,0,0,,0,78,78,35,1,LLAMA,HB,m,m,./images/LLAMAHB.png,,,,,,,,,,,,,,,,,,,,,,,,,,,,,,,,,,,
,,,,,,,,,,,,,,,,,60fcdeff0f333add62b19471,19,2022-02-12_13h25.53.532,lexical_decision_task_DD_L6,2021.2.3,MacIntel,60.0024001,,,,,,,,,,,0.8238,1,,,,,,,,,,,,,,z,1,0.8238,,,,,,,,0.238563368,-0.253702257,0,0,0,,0,79,79,153,1,CLUPS,C,z,z,./images/CLUPS.png,,,,,,,,,,,,,,,,,,,,,,,,,,,,,,,,,,,
,,,,,,,,,,,,,,,,,60fcdeff0f333add62b19471,19,2022-02-12_13h25.53.532,lexical_decision_task_DD_L6,2021.2.3,MacIntel,60.0024001,,,,,,,,,,,0.6105,1,,,,,,,,,,,,,,z,1,0.6105,,,,,,,,0.238563368,-0.253702257,0,0,0,,0,80,80,95,1,HANTY,LB,z,z,./images/HANTYLB.png,,,,,,,,,,,,,,,,,,,,,,,,,,,,,,,,,,,
,,,,,,,,,,,,,,,,,60fcdeff0f333add62b19471,19,2022-02-12_13h25.53.532,lexical_decision_task_DD_L6,2021.2.3,MacIntel,60.0024001,,,,,,,,,,,0.5541,1,,,,,,,,,,,,,,m,1,0.5541,,,,,,,,0.238563368,-0.253702257,0,0,0,,0,81,81,28,1,CASINO,C,m,m,./images/CASINO.png,,,,,,,,,,,,,,,,,,,,,,,,,,,,,,,,,,,
,,,,,,,,,,,,,,,,,60fcdeff0f333add62b19471,19,2022-02-12_13h25.53.532,lexical_decision_task_DD_L6,2021.2.3,MacIntel,60.0024001,,,,,,,,,,,0.5667,1,,,,,,,,,,,,,,m,1,0.5667,,,,,,,,0.238563368,-0.253702257,0,0,0,,0,82,82,17,1,PARADE,HB,m,m,./images/PARADEHB.png,,,,,,,,,,,,,,,,,,,,,,,,,,,,,,,,,,,
,,,,,,,,,,,,,,,,,60fcdeff0f333add62b19471,19,2022-02-12_13h25.53.532,lexical_decision_task_DD_L6,2021.2.3,MacIntel,60.0024001,,,,,,,,,,,0.6265,1,,,,,,,,,,,,,,z,1,0.6265,,,,,,,,0.238563368,-0.253702257,0,0,0,space,0,83,83,146,1,MOOST,LB,z,z,./images/MOOSTLB.png,151.6973,,,,,,,,,,,,,,,,,,,,,,,,,,,,,,,,,,
,,,,,,,,,,,,,,,,,60fcdeff0f333add62b19471,19,2022-02-12_13h25.53.532,lexical_decision_task_DD_L6,2021.2.3,MacIntel,60.0024001,,,,,,,,,,,1.0709,1,,,,,,,,,,,,,,z,1,1.0709,,,,,,,,0.238563368,-0.253702257,0,0,0,,0,84,84,166,1,SHORY,HB,z,z,./images/SHORYHB.png,,,,,,,,,,,,,,,,,,,,,,,,,,,,,,,,,,,
,,,,,,,,,,,,,,,,,60fcdeff0f333add62b19471,19,2022-02-12_13h25.53.532,lexical_decision_task_DD_L6,2021.2.3,MacIntel,60.0024001,,,,,,,,,,,0.6375,1,,,,,,,,,,,,,,z,1,0.6375,,,,,,,,0.238563368,-0.253702257,0,0,0,,0,85,85,133,1,POWDY,HB,z,z,./images/POWDYHB.png,,,,,,,,,,,,,,,,,,,,,,,,,,,,,,,,,,,
,,,,,,,,,,,,,,,,,60fcdeff0f333add62b19471,19,2022-02-12_13h25.53.532,lexical_decision_task_DD_L6,2021.2.3,MacIntel,60.0024001,,,,,,,,,,,0.6603,1,,,,,,,,,,,,,,z,1,0.6603,,,,,,,,0.238563368,-0.253702257,0,0,0,,0,86,86,130,1,CRILL,HB,z,z,./images/CRILLHB.png,,,,,,,,,,,,,,,,,,,,,,,,,,,,,,,,,,,
,,,,,,,,,,,,,,,,,60fcdeff0f333add62b19471,19,2022-02-12_13h25.53.532,lexical_decision_task_DD_L6,2021.2.3,MacIntel,60.0024001,,,,,,,,,,,0.5929,1,,,,,,,,,,,,,,m,1,0.5929,,,,,,,,0.238563368,-0.253702257,0,0,0,,0,87,87,44,1,BASKET,HB,m,m,./images/BASKETHB.png,,,,,,,,,,,,,,,,,,,,,,,,,,,,,,,,,,,
,,,,,,,,,,,,,,,,,60fcdeff0f333add62b19471,19,2022-02-12_13h25.53.532,lexical_decision_task_DD_L6,2021.2.3,MacIntel,60.0024001,,,,,,,,,,,0.6839,1,,,,,,,,,,,,,,m,1,0.6839,,,,,,,,0.238563368,-0.253702257,0,0,0,,0,88,88,14,1,FENCE,HB,m,m,./images/FENCEHB.png,,,,,,,,,,,,,,,,,,,,,,,,,,,,,,,,,,,
,,,,,,,,,,,,,,,,,60fcdeff0f333add62b19471,19,2022-02-12_13h25.53.532,lexical_decision_task_DD_L6,2021.2.3,MacIntel,60.0024001,,,,,,,,,,,0.5511,1,,,,,,,,,,,,,,z,1,0.5511,,,,,,,,0.238563368,-0.253702257,0,0,0,,0,89,89,143,1,MONGS,LB,z,z,./images/MONGSLB.png,,,,,,,,,,,,,,,,,,,,,,,,,,,,,,,,,,,
,,,,,,,,,,,,,,,,,60fcdeff0f333add62b19471,19,2022-02-12_13h25.53.532,lexical_decision_task_DD_L6,2021.2.3,MacIntel,60.0024001,,,,,,,,,,,0.5742,1,,,,,,,,,,,,,,z,1,0.5742,,,,,,,,0.238563368,-0.253702257,0,0,0,,0,90,90,103,1,FLORT,HB,z,z,./images/FLORTHB.png,,,,,,,,,,,,,,,,,,,,,,,,,,,,,,,,,,,
,,,,,,,,,,,,,,,,,60fcdeff0f333add62b19471,19,2022-02-12_13h25.53.532,lexical_decision_task_DD_L6,2021.2.3,MacIntel,60.0024001,,,,,,,,,,,0.5844,1,,,,,,,,,,,,,,z,1,0.5844,,,,,,,,0.238563368,-0.253702257,0,0,0,,0,91,91,118,1,BAVEL,HB,z,z,./images/BAVELHB.png,,,,,,,,,,,,,,,,,,,,,,,,,,,,,,,,,,,
,,,,,,,,,,,,,,,,,60fcdeff0f333add62b19471,19,2022-02-12_13h25.53.532,lexical_decision_task_DD_L6,2021.2.3,MacIntel,60.0024001,,,,,,,,,,,0.5405,1,,,,,,,,,,,,,,z,1,0.5405,,,,,,,,0.238563368,-0.253702257,0,0,0,,0,92,92,159,1,CUDDY,C,z,z,./images/CUDDY.png,,,,,,,,,,,,,,,,,,,,,,,,,,,,,,,,,,,
,,,,,,,,,,,,,,,,,60fcdeff0f333add62b19471,19,2022-02-12_13h25.53.532,lexical_decision_task_DD_L6,2021.2.3,MacIntel,60.0024001,,,,,,,,,,,0.6453,1,,,,,,,,,,,,,,m,1,0.6453,,,,,,,,0.238563368,-0.253702257,0,0,0,,0,93,93,9,1,DIVER,LB,m,m,./images/DIVERLB.png,,,,,,,,,,,,,,,,,,,,,,,,,,,,,,,,,,,
,,,,,,,,,,,,,,,,,60fcdeff0f333add62b19471,19,2022-02-12_13h25.53.532,lexical_decision_task_DD_L6,2021.2.3,MacIntel,60.0024001,,,,,,,,,,,0.608,1,,,,,,,,,,,,,,z,1,0.608,,,,,,,,0.238563368,-0.253702257,0,0,0,,0,94,94,150,1,NOOLS,C,z,z,./images/NOOLS.png,,,,,,,,,,,,,,,,,,,,,,,,,,,,,,,,,,,
,,,,,,,,,,,,,,,,,60fcdeff0f333add62b19471,19,2022-02-12_13h25.53.532,lexical_decision_task_DD_L6,2021.2.3,MacIntel,60.0024001,,,,,,,,,,,0.5999,1,,,,,,,,,,,,,,z,1,0.5999,,,,,,,,0.238563368,-0.253702257,0,0,0,,0,95,95,116,1,BALGY,LB,z,z,./images/BALGYLB.png,,,,,,,,,,,,,,,,,,,,,,,,,,,,,,,,,,,
,,,,,,,,,,,,,,,,,60fcdeff0f333add62b19471,19,2022-02-12_13h25.53.532,lexical_decision_task_DD_L6,2021.2.3,MacIntel,60.0024001,,,,,,,,,,,0.8819,1,,,,,,,,,,,,,,z,1,0.8819,,,,,,,,0.238563368,-0.253702257,0,0,0,,0,96,96,88,1,GLUSH,HB,z,z,./images/GLUSHHB.png,,,,,,,,,,,,,,,,,,,,,,,,,,,,,,,,,,,
,,,,,,,,,,,,,,,,,60fcdeff0f333add62b19471,19,2022-02-12_13h25.53.532,lexical_decision_task_DD_L6,2021.2.3,MacIntel,60.0024001,,,,,,,,,,,0.4594,1,,,,,,,,,,,,,,z,1,0.4594,,,,,,,,0.238563368,-0.253702257,0,0,0,,0,97,97,96,1,KEAMS,C,z,z,./images/KEAMS.png,,,,,,,,,,,,,,,,,,,,,,,,,,,,,,,,,,,
,,,,,,,,,,,,,,,,,60fcdeff0f333add62b19471,19,2022-02-12_13h25.53.532,lexical_decision_task_DD_L6,2021.2.3,MacIntel,60.0024001,,,,,,,,,,,0.6355,1,,,,,,,,,,,,,,m,1,0.6355,,,,,,,,0.238563368,-0.253702257,0,0,0,,0,98,98,41,1,STREAM,HB,m,m,./images/STREAMHB.png,,,,,,,,,,,,,,,,,,,,,,,,,,,,,,,,,,,
,,,,,,,,,,,,,,,,,60fcdeff0f333add62b19471,19,2022-02-12_13h25.53.532,lexical_decision_task_DD_L6,2021.2.3,MacIntel,60.0024001,,,,,,,,,,,0.7598,1,,,,,,,,,,,,,,m,1,0.7598,,,,,,,,0.238563368,-0.253702257,0,0,0,,0,99,99,68,1,VALLEY,HB,m,m,./images/VALLEYHB.png,,,,,,,,,,,,,,,,,,,,,,,,,,,,,,,,,,,
,,,,,,,,,,,,,,,,,60fcdeff0f333add62b19471,19,2022-02-12_13h25.53.532,lexical_decision_task_DD_L6,2021.2.3,MacIntel,60.0024001,,,,,,,,,,,0.6948,1,,,,,,,,,,,,,,z,1,0.6948,,,,,,,,0.238563368,-0.253702257,0,0,0,,0,100,100,157,1,INLER,HB,z,z,./images/INLERHB.png,,,,,,,,,,,,,,,,,,,,,,,,,,,,,,,,,,,
,,,,,,,,,,,,,,,,,60fcdeff0f333add62b19471,19,2022-02-12_13h25.53.532,lexical_decision_task_DD_L6,2021.2.3,MacIntel,60.0024001,,,,,,,,,,,0.6292,0,,,,,,,,,,,,,,z,0,0.6292,,,,,,,,0.238563368,-0.253702257,0,0,0,,0,101,101,18,1,PARCEL,LB,m,m,./images/PARCELLB.png,,,,,,,,,,,,,,,,,,,,,,,,,,,,,,,,,,,
,,,,,,,,,,,,,,,,,60fcdeff0f333add62b19471,19,2022-02-12_13h25.53.532,lexical_decision_task_DD_L6,2021.2.3,MacIntel,60.0024001,,,,,,,,,,,0.5524,1,,,,,,,,,,,,,,m,1,0.5524,,,,,,,,0.238563368,-0.253702257,0,0,0,,0,102,102,22,1,CLOWN,C,m,m,./images/CLOWN.png,,,,,,,,,,,,,,,,,,,,,,,,,,,,,,,,,,,
,,,,,,,,,,,,,,,,,60fcdeff0f333add62b19471,19,2022-02-12_13h25.53.532,lexical_decision_task_DD_L6,2021.2.3,MacIntel,60.0024001,,,,,,,,,,,0.628,1,,,,,,,,,,,,,,z,1,0.628,,,,,,,,0.238563368,-0.253702257,0,0,0,,0,103,103,136,1,WERVE,HB,z,z,./images/WERVEHB.png,,,,,,,,,,,,,,,,,,,,,,,,,,,,,,,,,,,
,,,,,,,,,,,,,,,,,60fcdeff0f333add62b19471,19,2022-02-12_13h25.53.532,lexical_decision_task_DD_L6,2021.2.3,MacIntel,60.0024001,,,,,,,,,,,0.4984,1,,,,,,,,,,,,,,m,1,0.4984,,,,,,,,0.238563368,-0.253702257,0,0,0,,0,104,104,10,1,GARDEN,C,m,m,./images/GARDEN.png,,,,,,,,,,,,,,,,,,,,,,,,,,,,,,,,,,,
,,,,,,,,,,,,,,,,,60fcdeff0f333add62b19471,19,2022-02-12_13h25.53.532,lexical_decision_task_DD_L6,2021.2.3,MacIntel,60.0024001,,,,,,,,,,,0.5391,1,,,,,,,,,,,,,,m,1,0.5391,,,,,,,,0.238563368,-0.253702257,0,0,0,,0,105,105,52,1,DESERT,C,m,m,./images/DESERT.png,,,,,,,,,,,,,,,,,,,,,,,,,,,,,,,,,,,
,,,,,,,,,,,,,,,,,60fcdeff0f333add62b19471,19,2022-02-12_13h25.53.532,lexical_decision_task_DD_L6,2021.2.3,MacIntel,60.0024001,,,,,,,,,,,0.7439,1,,,,,,,,,,,,,,m,1,0.7439,,,,,,,,0.238563368,-0.253702257,0,0,0,,0,106,106,77,1,WHEEL,HB,m,m,./images/WHEELHB.png,,,,,,,,,,,,,,,,,,,,,,,,,,,,,,,,,,,
,,,,,,,,,,,,,,,,,60fcdeff0f333add62b19471,19,2022-02-12_13h25.53.532,lexical_decision_task_DD_L6,2021.2.3,MacIntel,60.0024001,,,,,,,,,,,0.5482,1,,,,,,,,,,,,,,m,1,0.5482,,,,,,,,0.238563368,-0.253702257,0,0,0,,0,107,107,0,1,WALNUT,LB,m,m,./images/WALNUTLB.png,,,,,,,,,,,,,,,,,,,,,,,,,,,,,,,,,,,
,,,,,,,,,,,,,,,,,60fcdeff0f333add62b19471,19,2022-02-12_13h25.53.532,lexical_decision_task_DD_L6,2021.2.3,MacIntel,60.0024001,,,,,,,,,,,0.4687,1,,,,,,,,,,,,,,z,1,0.4687,,,,,,,,0.238563368,-0.253702257,0,0,0,,0,108,108,156,1,HIXES,C,z,z,./images/HIXES.png,,,,,,,,,,,,,,,,,,,,,,,,,,,,,,,,,,,
,,,,,,,,,,,,,,,,,60fcdeff0f333add62b19471,19,2022-02-12_13h25.53.532,lexical_decision_task_DD_L6,2021.2.3,MacIntel,60.0024001,,,,,,,,,,,0.7886,1,,,,,,,,,,,,,,z,1,0.7886,,,,,,,,0.238563368,-0.253702257,0,0,0,,0,109,109,100,1,DRIBS,HB,z,z,./images/DRIBSHB.png,,,,,,,,,,,,,,,,,,,,,,,,,,,,,,,,,,,
,,,,,,,,,,,,,,,,,60fcdeff0f333add62b19471,19,2022-02-12_13h25.53.532,lexical_decision_task_DD_L6,2021.2.3,MacIntel,60.0024001,,,,,,,,,,,0.5048,1,,,,,,,,,,,,,,m,1,0.5048,,,,,,,,0.238563368,-0.253702257,0,0,0,,0,110,110,13,1,BUNNY,C,m,m,./images/BUNNY.png,,,,,,,,,,,,,,,,,,,,,,,,,,,,,,,,,,,
,,,,,,,,,,,,,,,,,60fcdeff0f333add62b19471,19,2022-02-12_13h25.53.532,lexical_decision_task_DD_L6,2021.2.3,MacIntel,60.0024001,,,,,,,,,,,0.5771,1,,,,,,,,,,,,,,z,1,0.5771,,,,,,,,0.238563368,-0.253702257,0,0,0,,0,111,111,92,1,PAIMS,LB,z,z,./images/PAIMSLB.png,,,,,,,,,,,,,,,,,,,,,,,,,,,,,,,,,,,
,,,,,,,,,,,,,,,,,60fcdeff0f333add62b19471,19,2022-02-12_13h25.53.532,lexical_decision_task_DD_L6,2021.2.3,MacIntel,60.0024001,,,,,,,,,,,0.4696,1,,,,,,,,,,,,,,m,1,0.4696,,,,,,,,0.238563368,-0.253702257,0,0,0,,0,112,112,67,1,POKER,C,m,m,./images/POKER.png,,,,,,,,,,,,,,,,,,,,,,,,,,,,,,,,,,,
,,,,,,,,,,,,,,,,,60fcdeff0f333add62b19471,19,2022-02-12_13h25.53.532,lexical_decision_task_DD_L6,2021.2.3,MacIntel,60.0024001,,,,,,,,,,,0.7939,1,,,,,,,,,,,,,,m,1,0.7939,,,,,,,,0.238563368,-0.253702257,0,0,0,,0,113,113,34,1,RAZOR,C,m,m,./images/RAZOR.png,,,,,,,,,,,,,,,,,,,,,,,,,,,,,,,,,,,
,,,,,,,,,,,,,,,,,60fcdeff0f333add62b19471,19,2022-02-12_13h25.53.532,lexical_decision_task_DD_L6,2021.2.3,MacIntel,60.0024001,,,,,,,,,,,0.7112,1,,,,,,,,,,,,,,m,1,0.7112,,,,,,,,0.238563368,-0.253702257,0,0,0,,0,114,114,29,1,PISTOL,HB,m,m,./images/PISTOLHB.png,,,,,,,,,,,,,,,,,,,,,,,,,,,,,,,,,,,
,,,,,,,,,,,,,,,,,60fcdeff0f333add62b19471,19,2022-02-12_13h25.53.532,lexical_decision_task_DD_L6,2021.2.3,MacIntel,60.0024001,,,,,,,,,,,0.5623,1,,,,,,,,,,,,,,z,1,0.5623,,,,,,,,0.238563368,-0.253702257,0,0,0,,0,115,115,107,1,FASKS,LB,z,z,./images/FASKSLB.png,,,,,,,,,,,,,,,,,,,,,,,,,,,,,,,,,,,
,,,,,,,,,,,,,,,,,60fcdeff0f333add62b19471,19,2022-02-12_13h25.53.532,lexical_decision_task_DD_L6,2021.2.3,MacIntel,60.0024001,,,,,,,,,,,0.5208,1,,,,,,,,,,,,,,z,1,0.5208,,,,,,,,0.238563368,-0.253702257,0,0,0,,0,116,116,125,1,MOOKY,LB,z,z,./images/MOOKYLB.png,,,,,,,,,,,,,,,,,,,,,,,,,,,,,,,,,,,
,,,,,,,,,,,,,,,,,60fcdeff0f333add62b19471,19,2022-02-12_13h25.53.532,lexical_decision_task_DD_L6,2021.2.3,MacIntel,60.0024001,,,,,,,,,,,0.485,1,,,,,,,,,,,,,,m,1,0.485,,,,,,,,0.238563368,-0.253702257,0,0,0,,0,117,117,7,1,WAGON,C,m,m,./images/WAGON.png,,,,,,,,,,,,,,,,,,,,,,,,,,,,,,,,,,,
,,,,,,,,,,,,,,,,,60fcdeff0f333add62b19471,19,2022-02-12_13h25.53.532,lexical_decision_task_DD_L6,2021.2.3,MacIntel,60.0024001,,,,,,,,,,,0.9635,0,,,,,,,,,,,,,,z,0,0.9635,,,,,,,,0.238563368,-0.253702257,0,0,0,,0,118,118,56,1,HEATER,HB,m,m,./images/HEATERHB.png,,,,,,,,,,,,,,,,,,,,,,,,,,,,,,,,,,,
,,,,,,,,,,,,,,,,,60fcdeff0f333add62b19471,19,2022-02-12_13h25.53.532,lexical_decision_task_DD_L6,2021.2.3,MacIntel,60.0024001,,,,,,,,,,,0.5645,1,,,,,,,,,,,,,,m,1,0.5645,,,,,,,,0.238563368,-0.253702257,0,0,0,,0,119,119,66,1,STATUE,LB,m,m,./images/STATUELB.png,,,,,,,,,,,,,,,,,,,,,,,,,,,,,,,,,,,
,,,,,,,,,,,,,,,,,60fcdeff0f333add62b19471,19,2022-02-12_13h25.53.532,lexical_decision_task_DD_L6,2021.2.3,MacIntel,60.0024001,,,,,,,,,,,0.7155,1,,,,,,,,,,,,,,m,1,0.7155,,,,,,,,0.238563368,-0.253702257,0,0,0,,0,120,120,49,1,BISHOP,C,m,m,./images/BISHOP.png,,,,,,,,,,,,,,,,,,,,,,,,,,,,,,,,,,,
,,,,,,,,,,,,,,,,,60fcdeff0f333add62b19471,19,2022-02-12_13h25.53.532,lexical_decision_task_DD_L6,2021.2.3,MacIntel,60.0024001,,,,,,,,,,,0.5959,1,,,,,,,,,,,,,,z,1,0.5959,,,,,,,,0.238563368,-0.253702257,0,0,0,,0,121,121,140,1,DOVET,LB,z,z,./images/DOVETLB.png,,,,,,,,,,,,,,,,,,,,,,,,,,,,,,,,,,,
,,,,,,,,,,,,,,,,,60fcdeff0f333add62b19471,19,2022-02-12_13h25.53.532,lexical_decision_task_DD_L6,2021.2.3,MacIntel,60.0024001,,,,,,,,,,,0.6204,1,,,,,,,,,,,,,,m,1,0.6204,,,,,,,,0.238563368,-0.253702257,0,0,0,,0,122,122,72,1,FLASK,LB,m,m,./images/FLASKLB.png,,,,,,,,,,,,,,,,,,,,,,,,,,,,,,,,,,,
,,,,,,,,,,,,,,,,,60fcdeff0f333add62b19471,19,2022-02-12_13h25.53.532,lexical_decision_task_DD_L6,2021.2.3,MacIntel,60.0024001,,,,,,,,,,,0.7773,1,,,,,,,,,,,,,,m,1,0.7773,,,,,,,,0.238563368,-0.253702257,0,0,0,,0,123,123,62,1,MAMMAL,HB,m,m,./images/MAMMALHB.png,,,,,,,,,,,,,,,,,,,,,,,,,,,,,,,,,,,
,,,,,,,,,,,,,,,,,60fcdeff0f333add62b19471,19,2022-02-12_13h25.53.532,lexical_decision_task_DD_L6,2021.2.3,MacIntel,60.0024001,,,,,,,,,,,0.5799,1,,,,,,,,,,,,,,z,1,0.5799,,,,,,,,0.238563368,-0.253702257,0,0,0,,0,124,124,101,1,GLEET,LB,z,z,./images/GLEETLB.png,,,,,,,,,,,,,,,,,,,,,,,,,,,,,,,,,,,
,,,,,,,,,,,,,,,,,60fcdeff0f333add62b19471,19,2022-02-12_13h25.53.532,lexical_decision_task_DD_L6,2021.2.3,MacIntel,60.0024001,,,,,,,,,,,0.5475,1,,,,,,,,,,,,,,z,1,0.5475,,,,,,,,0.238563368,-0.253702257,0,0,0,space,0,125,125,134,1,TROSS,LB,z,z,./images/TROSSLB.png,17.0911,,,,,,,,,,,,,,,,,,,,,,,,,,,,,,,,,,
,,,,,,,,,,,,,,,,,60fcdeff0f333add62b19471,19,2022-02-12_13h25.53.532,lexical_decision_task_DD_L6,2021.2.3,MacIntel,60.0024001,,,,,,,,,,,0.8461,1,,,,,,,,,,,,,,m,1,0.8461,,,,,,,,0.238563368,-0.253702257,0,0,0,,0,126,126,65,1,SPINE,HB,m,m,./images/SPINEHB.png,,,,,,,,,,,,,,,,,,,,,,,,,,,,,,,,,,,
,,,,,,,,,,,,,,,,,60fcdeff0f333add62b19471,19,2022-02-12_13h25.53.532,lexical_decision_task_DD_L6,2021.2.3,MacIntel,60.0024001,,,,,,,,,,,0.5938,1,,,,,,,,,,,,,,z,1,0.5938,,,,,,,,0.238563368,-0.253702257,0,0,0,,0,127,127,90,1,NEAST,C,z,z,./images/NEAST.png,,,,,,,,,,,,,,,,,,,,,,,,,,,,,,,,,,,
,,,,,,,,,,,,,,,,,60fcdeff0f333add62b19471,19,2022-02-12_13h25.53.532,lexical_decision_task_DD_L6,2021.2.3,MacIntel,60.0024001,,,,,,,,,,,0.6615,1,,,,,,,,,,,,,,z,1,0.6615,,,,,,,,0.238563368,-0.253702257,0,0,0,,0,128,128,154,1,THINT,HB,z,z,./images/THINTHB.png,,,,,,,,,,,,,,,,,,,,,,,,,,,,,,,,,,,
,,,,,,,,,,,,,,,,,60fcdeff0f333add62b19471,19,2022-02-12_13h25.53.532,lexical_decision_task_DD_L6,2021.2.3,MacIntel,60.0024001,,,,,,,,,,,0.5517,1,,,,,,,,,,,,,,m,1,0.5517,,,,,,,,0.238563368,-0.253702257,0,0,0,,0,129,129,75,1,HAMMER,LB,m,m,./images/HAMMERLB.png,,,,,,,,,,,,,,,,,,,,,,,,,,,,,,,,,,,
,,,,,,,,,,,,,,,,,60fcdeff0f333add62b19471,19,2022-02-12_13h25.53.532,lexical_decision_task_DD_L6,2021.2.3,MacIntel,60.0024001,,,,,,,,,,,0.9135,1,,,,,,,,,,,,,,z,1,0.9135,,,,,,,,0.238563368,-0.253702257,0,0,0,,0,130,130,121,1,CEERS,HB,z,z,./images/CEERSHB.png,,,,,,,,,,,,,,,,,,,,,,,,,,,,,,,,,,,
,,,,,,,,,,,,,,,,,60fcdeff0f333add62b19471,19,2022-02-12_13h25.53.532,lexical_decision_task_DD_L6,2021.2.3,MacIntel,60.0024001,,,,,,,,,,,0.5565,1,,,,,,,,,,,,,,m,1,0.5565,,,,,,,,0.238563368,-0.253702257,0,0,0,,0,131,131,2,1,STOVE,HB,m,m,./images/STOVEHB.png,,,,,,,,,,,,,,,,,,,,,,,,,,,,,,,,,,,
,,,,,,,,,,,,,,,,,60fcdeff0f333add62b19471,19,2022-02-12_13h25.53.532,lexical_decision_task_DD_L6,2021.2.3,MacIntel,60.0024001,,,,,,,,,,,0.535,0,,,,,,,,,,,,,,z,0,0.535,,,,,,,,0.238563368,-0.253702257,0,0,0,,0,132,132,76,1,MIDGET,C,m,m,./images/MIDGET.png,,,,,,,,,,,,,,,,,,,,,,,,,,,,,,,,,,,
,,,,,,,,,,,,,,,,,60fcdeff0f333add62b19471,19,2022-02-12_13h25.53.532,lexical_decision_task_DD_L6,2021.2.3,MacIntel,60.0024001,,,,,,,,,,,0.5273,1,,,,,,,,,,,,,,z,1,0.5273,,,,,,,,0.238563368,-0.253702257,0,0,0,,0,133,133,123,1,SEDGE,C,z,z,./images/SEDGE.png,,,,,,,,,,,,,,,,,,,,,,,,,,,,,,,,,,,
,,,,,,,,,,,,,,,,,60fcdeff0f333add62b19471,19,2022-02-12_13h25.53.532,lexical_decision_task_DD_L6,2021.2.3,MacIntel,60.0024001,,,,,,,,,,,0.6219,1,,,,,,,,,,,,,,m,1,0.6219,,,,,,,,0.238563368,-0.253702257,0,0,0,,0,134,134,32,1,HOCKEY,HB,m,m,./images/HOCKEYHB.png,,,,,,,,,,,,,,,,,,,,,,,,,,,,,,,,,,,
,,,,,,,,,,,,,,,,,60fcdeff0f333add62b19471,19,2022-02-12_13h25.53.532,lexical_decision_task_DD_L6,2021.2.3,MacIntel,60.0024001,,,,,,,,,,,0.6136,1,,,,,,,,,,,,,,z,1,0.6136,,,,,,,,0.238563368,-0.253702257,0,0,0,,0,135,135,119,1,PAFER,LB,z,z,./images/PAFERLB.png,,,,,,,,,,,,,,,,,,,,,,,,,,,,,,,,,,,
,,,,,,,,,,,,,,,,,60fcdeff0f333add62b19471,19,2022-02-12_13h25.53.532,lexical_decision_task_DD_L6,2021.2.3,MacIntel,60.0024001,,,,,,,,,,,0.4932,0,,,,,,,,,,,,,,z,0,0.4932,,,,,,,,0.238563368,-0.253702257,0,0,0,,0,136,136,79,1,RULER,C,m,m,./images/RULER.png,,,,,,,,,,,,,,,,,,,,,,,,,,,,,,,,,,,
,,,,,,,,,,,,,,,,,60fcdeff0f333add62b19471,19,2022-02-12_13h25.53.532,lexical_decision_task_DD_L6,2021.2.3,MacIntel,60.0024001,,,,,,,,,,,1.1668,1,,,,,,,,,,,,,,m,1,1.1668,,,,,,,,0.238563368,-0.253702257,0,0,0,,0,137,137,33,1,SAUNA,LB,m,m,./images/SAUNALB.png,,,,,,,,,,,,,,,,,,,,,,,,,,,,,,,,,,,
,,,,,,,,,,,,,,,,,60fcdeff0f333add62b19471,19,2022-02-12_13h25.53.532,lexical_decision_task_DD_L6,2021.2.3,MacIntel,60.0024001,,,,,,,,,,,0.5781,1,,,,,,,,,,,,,,z,1,0.5781,,,,,,,,0.238563368,-0.253702257,0,0,0,,0,138,138,158,1,EGECT,LB,z,z,./images/EGECTLB.png,,,,,,,,,,,,,,,,,,,,,,,,,,,,,,,,,,,
,,,,,,,,,,,,,,,,,60fcdeff0f333add62b19471,19,2022-02-12_13h25.53.532,lexical_decision_task_DD_L6,2021.2.3,MacIntel,60.0024001,,,,,,,,,,,0.7352,1,,,,,,,,,,,,,,z,1,0.7352,,,,,,,,0.238563368,-0.253702257,0,0,0,,0,139,139,112,1,MYING,HB,z,z,./images/MYINGHB.png,,,,,,,,,,,,,,,,,,,,,,,,,,,,,,,,,,,
,,,,,,,,,,,,,,,,,60fcdeff0f333add62b19471,19,2022-02-12_13h25.53.532,lexical_decision_task_DD_L6,2021.2.3,MacIntel,60.0024001,,,,,,,,,,,0.6665,1,,,,,,,,,,,,,,m,1,0.6665,,,,,,,,0.238563368,-0.253702257,0,0,0,,0,140,140,11,1,MEDAL,HB,m,m,./images/MEDALHB.png,,,,,,,,,,,,,,,,,,,,,,,,,,,,,,,,,,,
,,,,,,,,,,,,,,,,,60fcdeff0f333add62b19471,19,2022-02-12_13h25.53.532,lexical_decision_task_DD_L6,2021.2.3,MacIntel,60.0024001,,,,,,,,,,,0.6149,1,,,,,,,,,,,,,,m,1,0.6149,,,,,,,,0.238563368,-0.253702257,0,0,0,,0,141,141,59,1,BRUSH,HB,m,m,./images/BRUSHHB.png,,,,,,,,,,,,,,,,,,,,,,,,,,,,,,,,,,,
,,,,,,,,,,,,,,,,,60fcdeff0f333add62b19471,19,2022-02-12_13h25.53.532,lexical_decision_task_DD_L6,2021.2.3,MacIntel,60.0024001,,,,,,,,,,,0.9148,1,,,,,,,,,,,,,,m,1,0.9148,,,,,,,,0.238563368,-0.253702257,0,0,0,,0,142,142,80,1,PLANET,HB,m,m,./images/PLANETHB.png,,,,,,,,,,,,,,,,,,,,,,,,,,,,,,,,,,,
,,,,,,,,,,,,,,,,,60fcdeff0f333add62b19471,19,2022-02-12_13h25.53.532,lexical_decision_task_DD_L6,2021.2.3,MacIntel,60.0024001,,,,,,,,,,,0.671,1,,,,,,,,,,,,,,z,1,0.671,,,,,,,,0.238563368,-0.253702257,0,0,0,,0,143,143,105,1,MOKER,C,z,z,./images/MOKER.png,,,,,,,,,,,,,,,,,,,,,,,,,,,,,,,,,,,
,,,,,,,,,,,,,,,,,60fcdeff0f333add62b19471,19,2022-02-12_13h25.53.532,lexical_decision_task_DD_L6,2021.2.3,MacIntel,60.0024001,,,,,,,,,,,0.6156,1,,,,,,,,,,,,,,m,1,0.6156,,,,,,,,0.238563368,-0.253702257,0,0,0,,0,144,144,47,1,LAGOON,HB,m,m,./images/LAGOONHB.png,,,,,,,,,,,,,,,,,,,,,,,,,,,,,,,,,,,
,,,,,,,,,,,,,,,,,60fcdeff0f333add62b19471,19,2022-02-12_13h25.53.532,lexical_decision_task_DD_L6,2021.2.3,MacIntel,60.0024001,,,,,,,,,,,0.6677,1,,,,,,,,,,,,,,z,1,0.6677,,,,,,,,0.238563368,-0.253702257,0,0,0,,0,145,145,160,1,VEETS,HB,z,z,./images/VEETSHB.png,,,,,,,,,,,,,,,,,,,,,,,,,,,,,,,,,,,
,,,,,,,,,,,,,,,,,60fcdeff0f333add62b19471,19,2022-02-12_13h25.53.532,lexical_decision_task_DD_L6,2021.2.3,MacIntel,60.0024001,,,,,,,,,,,0.5665,1,,,,,,,,,,,,,,z,1,0.5665,,,,,,,,0.238563368,-0.253702257,0,0,0,,0,146,146,110,1,CRUNK,LB,z,z,./images/CRUNKLB.png,,,,,,,,,,,,,,,,,,,,,,,,,,,,,,,,,,,
,,,,,,,,,,,,,,,,,60fcdeff0f333add62b19471,19,2022-02-12_13h25.53.532,lexical_decision_task_DD_L6,2021.2.3,MacIntel,60.0024001,,,,,,,,,,,0.5517,1,,,,,,,,,,,,,,m,1,0.5517,,,,,,,,0.238563368,-0.253702257,0,0,0,,0,147,147,1,1,TOWEL,C,m,m,./images/TOWEL.png,,,,,,,,,,,,,,,,,,,,,,,,,,,,,,,,,,,
,,,,,,,,,,,,,,,,,60fcdeff0f333add62b19471,19,2022-02-12_13h25.53.532,lexical_decision_task_DD_L6,2021.2.3,MacIntel,60.0024001,,,,,,,,,,,0.6638,1,,,,,,,,,,,,,,m,1,0.6638,,,,,,,,0.238563368,-0.253702257,0,0,0,,0,148,148,30,1,SLOPE,LB,m,m,./images/SLOPELB.png,,,,,,,,,,,,,,,,,,,,,,,,,,,,,,,,,,,
,,,,,,,,,,,,,,,,,60fcdeff0f333add62b19471,19,2022-02-12_13h25.53.532,lexical_decision_task_DD_L6,2021.2.3,MacIntel,60.0024001,,,,,,,,,,,0.49,1,,,,,,,,,,,,,,m,1,0.49,,,,,,,,0.238563368,-0.253702257,0,0,0,,0,149,149,64,1,BRIDE,C,m,m,./images/BRIDE.png,,,,,,,,,,,,,,,,,,,,,,,,,,,,,,,,,,,
,,,,,,,,,,,,,,,,,60fcdeff0f333add62b19471,19,2022-02-12_13h25.53.532,lexical_decision_task_DD_L6,2021.2.3,MacIntel,60.0024001,,,,,,,,,,,0.5448,1,,,,,,,,,,,,,,z,1,0.5448,,,,,,,,0.238563368,-0.253702257,0,0,0,,0,150,150,84,1,HAXES,C,z,z,./images/HAXES.png,,,,,,,,,,,,,,,,,,,,,,,,,,,,,,,,,,,
,,,,,,,,,,,,,,,,,60fcdeff0f333add62b19471,19,2022-02-12_13h25.53.532,lexical_decision_task_DD_L6,2021.2.3,MacIntel,60.0024001,,,,,,,,,,,0.7787,1,,,,,,,,,,,,,,m,1,0.7787,,,,,,,,0.238563368,-0.253702257,0,0,0,,0,151,151,20,1,GRANNY,HB,m,m,./images/GRANNYHB.png,,,,,,,,,,,,,,,,,,,,,,,,,,,,,,,,,,,
,,,,,,,,,,,,,,,,,60fcdeff0f333add62b19471,19,2022-02-12_13h25.53.532,lexical_decision_task_DD_L6,2021.2.3,MacIntel,60.0024001,,,,,,,,,,,0.5751,1,,,,,,,,,,,,,,z,1,0.5751,,,,,,,,0.238563368,-0.253702257,0,0,0,,0,152,152,149,1,VEASE,LB,z,z,./images/VEASELB.png,,,,,,,,,,,,,,,,,,,,,,,,,,,,,,,,,,,
,,,,,,,,,,,,,,,,,60fcdeff0f333add62b19471,19,2022-02-12_13h25.53.532,lexical_decision_task_DD_L6,2021.2.3,MacIntel,60.0024001,,,,,,,,,,,0.6495,1,,,,,,,,,,,,,,m,1,0.6495,,,,,,,,0.238563368,-0.253702257,0,0,0,,0,153,153,74,1,JUMPER,HB,m,m,./images/JUMPERHB.png,,,,,,,,,,,,,,,,,,,,,,,,,,,,,,,,,,,
,,,,,,,,,,,,,,,,,60fcdeff0f333add62b19471,19,2022-02-12_13h25.53.532,lexical_decision_task_DD_L6,2021.2.3,MacIntel,60.0024001,,,,,,,,,,,0.6134,1,,,,,,,,,,,,,,z,1,0.6134,,,,,,,,0.238563368,-0.253702257,0,0,0,,0,154,154,124,1,TUNCH,HB,z,z,./images/TUNCHHB.png,,,,,,,,,,,,,,,,,,,,,,,,,,,,,,,,,,,
,,,,,,,,,,,,,,,,,60fcdeff0f333add62b19471,19,2022-02-12_13h25.53.532,lexical_decision_task_DD_L6,2021.2.3,MacIntel,60.0024001,,,,,,,,,,,0.5894,1,,,,,,,,,,,,,,z,1,0.5894,,,,,,,,0.238563368,-0.253702257,0,0,0,,0,155,155,135,1,JOODY,C,z,z,./images/JOODY.png,,,,,,,,,,,,,,,,,,,,,,,,,,,,,,,,,,,
,,,,,,,,,,,,,,,,,60fcdeff0f333add62b19471,19,2022-02-12_13h25.53.532,lexical_decision_task_DD_L6,2021.2.3,MacIntel,60.0024001,,,,,,,,,,,0.5455,1,,,,,,,,,,,,,,z,1,0.5455,,,,,,,,0.238563368,-0.253702257,0,0,0,,0,156,156,152,1,FRAIN,LB,z,z,./images/FRAINLB.png,,,,,,,,,,,,,,,,,,,,,,,,,,,,,,,,,,,
,,,,,,,,,,,,,,,,,60fcdeff0f333add62b19471,19,2022-02-12_13h25.53.532,lexical_decision_task_DD_L6,2021.2.3,MacIntel,60.0024001,,,,,,,,,,,0.4804,1,,,,,,,,,,,,,,z,1,0.4804,,,,,,,,0.238563368,-0.253702257,0,0,0,,0,157,157,155,1,CANGY,LB,z,z,./images/CANGYLB.png,,,,,,,,,,,,,,,,,,,,,,,,,,,,,,,,,,,
,,,,,,,,,,,,,,,,,60fcdeff0f333add62b19471,19,2022-02-12_13h25.53.532,lexical_decision_task_DD_L6,2021.2.3,MacIntel,60.0024001,,,,,,,,,,,0.5365,1,,,,,,,,,,,,,,z,1,0.5365,,,,,,,,0.238563368,-0.253702257,0,0,0,,0,158,158,141,1,PLEET,C,z,z,./images/PLEET.png,,,,,,,,,,,,,,,,,,,,,,,,,,,,,,,,,,,
,,,,,,,,,,,,,,,,,60fcdeff0f333add62b19471,19,2022-02-12_13h25.53.532,lexical_decision_task_DD_L6,2021.2.3,MacIntel,60.0024001,,,,,,,,,,,0.4883,1,,,,,,,,,,,,,,z,1,0.4883,,,,,,,,0.238563368,-0.253702257,0,0,0,,0,159,159,117,1,STEEG,C,z,z,./images/STEEG.png,,,,,,,,,,,,,,,,,,,,,,,,,,,,,,,,,,,
,,,,,,,,,,,,,,,,,60fcdeff0f333add62b19471,19,2022-02-12_13h25.53.532,lexical_decision_task_DD_L6,2021.2.3,MacIntel,60.0024001,,,,,,,,,,,0.6704,1,,,,,,,,,,,,,,m,1,0.6704,,,,,,,,0.238563368,-0.253702257,0,0,0,,0,160,160,24,1,FLESH,LB,m,m,./images/FLESHLB.png,,,,,,,,,,,,,,,,,,,,,,,,,,,,,,,,,,,
,,,,,,,,,,,,,,,,,60fcdeff0f333add62b19471,19,2022-02-12_13h25.53.532,lexical_decision_task_DD_L6,2021.2.3,MacIntel,60.0024001,,,,,,,,,,,0.6033,1,,,,,,,,,,,,,,m,1,0.6033,,,,,,,,0.238563368,-0.253702257,0,0,0,,0,161,161,31,1,STEAK,C,m,m,./images/STEAK.png,,,,,,,,,,,,,,,,,,,,,,,,,,,,,,,,,,,
,,,,,,,,,,,,,,,,,60fcdeff0f333add62b19471,19,2022-02-12_13h25.53.532,lexical_decision_task_DD_L6,2021.2.3,MacIntel,60.0024001,,,,,,,,,,,0.7482,1,,,,,,,,,,,,,,z,1,0.7482,,,,,,,,0.238563368,-0.253702257,0,0,0,,0,162,162,163,1,GAMBA,HB,z,z,./images/GAMBAHB.png,,,,,,,,,,,,,,,,,,,,,,,,,,,,,,,,,,,
,,,,,,,,,,,,,,,,,60fcdeff0f333add62b19471,19,2022-02-12_13h25.53.532,lexical_decision_task_DD_L6,2021.2.3,MacIntel,60.0024001,,,,,,,,,,,0.521,1,,,,,,,,,,,,,,z,1,0.521,,,,,,,,0.238563368,-0.253702257,0,0,0,,0,163,163,120,1,RINED,C,z,z,./images/RINED.png,,,,,,,,,,,,,,,,,,,,,,,,,,,,,,,,,,,
,,,,,,,,,,,,,,,,,60fcdeff0f333add62b19471,19,2022-02-12_13h25.53.532,lexical_decision_task_DD_L6,2021.2.3,MacIntel,60.0024001,,,,,,,,,,,0.5261,1,,,,,,,,,,,,,,m,1,0.5261,,,,,,,,0.238563368,-0.253702257,0,0,0,,0,164,164,26,1,CLOUD,HB,m,m,./images/CLOUDHB.png,,,,,,,,,,,,,,,,,,,,,,,,,,,,,,,,,,,
,,,,,,,,,,,,,,,,,60fcdeff0f333add62b19471,19,2022-02-12_13h25.53.532,lexical_decision_task_DD_L6,2021.2.3,MacIntel,60.0024001,,,,,,,,,,,0.5846,1,,,,,,,,,,,,,,z,1,0.5846,,,,,,,,0.238563368,-0.253702257,0,0,0,,0,165,165,161,1,BLAPS,LB,z,z,./images/BLAPSLB.png,,,,,,,,,,,,,,,,,,,,,,,,,,,,,,,,,,,
,,,,,,,,,,,,,,,,,60fcdeff0f333add62b19471,19,2022-02-12_13h25.53.532,lexical_decision_task_DD_L6,2021.2.3,MacIntel,60.0024001,,,,,,,,,,,0.4411,1,,,,,,,,,,,,,,z,1,0.4411,,,,,,,,0.238563368,-0.253702257,0,0,0,,0,166,166,89,1,DRIEK,LB,z,z,./images/DRIEKLB.png,,,,,,,,,,,,,,,,,,,,,,,,,,,,,,,,,,,
,,,,,,,,,,,,,,,,,60fcdeff0f333add62b19471,19,2022-02-12_13h25.53.532,lexical_decision_task_DD_L6,2021.2.3,MacIntel,60.0024001,,,,,,,,,,,0.5113,1,,,,,,,,,,,,,,m,1,0.5113,,,,,,,,0.238563368,-0.253702257,0,0,0,,0,167,167,69,1,ARROW,LB,m,m,./images/ARROWLB.png,,,,,,,,,,,,,,,,,,,,,,,,,,,,,,,,,,,
,,,,,,,,,,,,,,,,,60fcdeff0f333add62b19471,19,2022-02-12_13h25.53.532,lexical_decision_task_DD_L6,2021.2.3,MacIntel,60.0024001,,,,,,,,,,,,,,,,,,,,,,,,,,,,,,,,,,,,,,,,,,,,,,,,How likely will it be that you will recognize the words presented clearly on a scale of 0 (not likely) to 100 (most likely)?,,,,,0.009327257,-0.407942708,1,0,0,jol_adv,6,11.2188,0,0,0,0,1,,,,,,,,,,,,,,,,,,,,,
,,,,,,,,,,,,,,,,,60fcdeff0f333add62b19471,19,2022-02-12_13h25.53.532,lexical_decision_task_DD_L6,2021.2.3,MacIntel,60.0024001,,,,,,,,,,,,,,,,,,,,,,,,,,,,,,,,,,,,,,,,,,,,,,,,How likely will it be that you will recognize the words presented very blurred on a scale of 0 (not likely) to 100 (most likely)?,,,,,,,,,,,6,0.3978,0,1,1,2,1,,,,,,,,,,,,,,,,,,,,,
,,,,,,,,,,,,,,,,,60fcdeff0f333add62b19471,19,2022-02-12_13h25.53.532,lexical_decision_task_DD_L6,2021.2.3,MacIntel,60.0024001,,,,,,,,,,,,,,,,,,,,,,,,,,,,,,,,,,,,,,,,,,,,,,,,How likely will it be that you will recognize the words presented slighly blurred on a scale of 0 (not likely) to 100 (most likely)?,,,,,,,,,,,5,7.3574,0,2,2,1,1,,,,,,,,,,,,,,,,,,,,,
space,15.2696,0.107834201,-0.212313368,0,0,0,,,,,,1,test,"In the next phase you will be presented with the words from the the first phase. Your job is to decide whether you remember seeing the word or not. If you remember seeing the word press ""old"" or type ""m"". If you do not remember seeing the word press ""new"" or type ""z"". Please press the space bar or click on continue to begin. ",,,60fcdeff0f333add62b19471,19,2022-02-12_13h25.53.532,lexical_decision_task_DD_L6,2021.2.3,MacIntel,60.0024001,,,,,,,,,,,,,,,,,,,,,,,,,,,,,,,,,,,,,,,,,,,,,,,,,,,,,,,,,,,,,,,,,,0,0,0,0,1,,,,,,,,,,,,,,,,
space,1.3662,0.107834201,-0.212313368,0,0,0,,,,,,1,test,"In the next phase you will be presented with the words from the the first phase. Your job is to decide whether you remember seeing the word or not. If you remember seeing the word press ""old"" or type ""m"". If you do not remember seeing the word press ""new"" or type ""z"". Please press the space bar or click on continue to begin. ",,,60fcdeff0f333add62b19471,19,2022-02-12_13h25.53.532,lexical_decision_task_DD_L6,2021.2.3,MacIntel,60.0024001,,,,,,,,,,,,,,,,,,,,,,,,,,,,,,,,,,,,,,,,,,,,,,,,,,,,,,,,,,,,,,,,,,1,0,1,0,1,,,,,,,,,,,,,,,,
,,0.088832465,-0.378311632,1,0,0,,,,,,1,test,"In the next phase you will be presented with the words from the the first phase. Your job is to decide whether you remember seeing the word or not. If you remember seeing the word press ""old"" or type ""m"". If you do not remember seeing the word press ""new"" or type ""z"". Please press the space bar or click on continue to begin. ",,,60fcdeff0f333add62b19471,19,2022-02-12_13h25.53.532,lexical_decision_task_DD_L6,2021.2.3,MacIntel,60.0024001,,,,,,,,,,,,,,,,,,,,,,,,,,,,,,,,,,,,,,,,,,,,,,,,,,,,,,,,,,,,,,,,,,2,0,2,0,1,instr_done_button,,,,,,,,,,,,,,,
space,2.3349,0.038819444,-0.266150174,0,0,0,,,,,,1,test,"In the next phase you will be presented with the words from the the first phase. Your job is to decide whether you remember seeing the word or not. If you remember seeing the word press ""old"" or type ""m"". If you do not remember seeing the word press ""new"" or type ""z"". Please press the space bar or click on continue to begin. ",,,60fcdeff0f333add62b19471,19,2022-02-12_13h25.53.532,lexical_decision_task_DD_L6,2021.2.3,MacIntel,60.0024001,,,,,,,,,,,,,,,,,,,,,,,,,,,,,,,,,,,,,,,,,,,,,,,,,,,,,,,,,,,,,,,,,,3,0,3,0,1,,,,,,,,,,,,,,,,
,,0.002387153,-0.374939236,1,0,0,,,,,,1,test,"In the next phase you will be presented with the words from the the first phase. Your job is to decide whether you remember seeing the word or not. If you remember seeing the word press ""old"" or type ""m"". If you do not remember seeing the word press ""new"" or type ""z"". Please press the space bar or click on continue to begin. ",,,60fcdeff0f333add62b19471,19,2022-02-12_13h25.53.532,lexical_decision_task_DD_L6,2021.2.3,MacIntel,60.0024001,,,,,,,,,,,,,,,,,,,,,,,,,,,,,,,,,,,,,,,,,,,,,,,,,,,,,,,,,,,,,,,,,,4,0,4,0,1,instr_done_button,,,,,,,,,,,,,,,
,,,,,,,,,,,,,,,,,60fcdeff0f333add62b19471,19,2022-02-12_13h25.53.532,lexical_decision_task_DD_L6,2021.2.3,MacIntel,60.0024001,,,,,,,,,,,2.0176,1,,,,,,,,,,,,,,,,,,,,,,,,0.018072917,-0.338294271,0,0,0,,,,,,,STRING,HB,z,y,./images/STRINGHB.png,,,,,,,,,,,,,,,,,,,,,z,1,2.0176,,,,,,,,0,0,0,125,1
,,,,,,,,,,,,,,,,,60fcdeff0f333add62b19471,19,2022-02-12_13h25.53.532,lexical_decision_task_DD_L6,2021.2.3,MacIntel,60.0024001,,,,,,,,,,,0.9635,0,,,,,,,,,,,,,,,,,,,,,,,,0.018072917,-0.338294271,0,0,0,,,,,,,WEASEL,HB,z,y,./images/WEASELHB.png,,,,,,,,,,,,,,,,,,,,,m,0,0.9635,,,,,,,,0,1,1,164,1
,,,,,,,,,,,,,,,,,60fcdeff0f333add62b19471,19,2022-02-12_13h25.53.532,lexical_decision_task_DD_L6,2021.2.3,MacIntel,60.0024001,,,,,,,,,,,1.4348,1,,,,,,,,,,,,,,,,,,,,,,,,0.018072917,-0.338294271,0,0,0,,,,,,,CANOE,C,m,y,./images/CANOE.png,,,,,,,,,,,,,,,,,,,,,m,1,1.4348,,,,,,,,0,2,2,58,1
,,,,,,,,,,,,,,,,,60fcdeff0f333add62b19471,19,2022-02-12_13h25.53.532,lexical_decision_task_DD_L6,2021.2.3,MacIntel,60.0024001,,,,,,,,,,,0.9012,0,,,,,,,,,,,,,,,,,,,,,,,,0.018072917,-0.338294271,0,0,0,,,,,,,FLESH,LB,m,y,./images/FLESHLB.png,,,,,,,,,,,,,,,,,,,,,z,0,0.9012,,,,,,,,0,3,3,24,1
,,,,,,,,,,,,,,,,,60fcdeff0f333add62b19471,19,2022-02-12_13h25.53.532,lexical_decision_task_DD_L6,2021.2.3,MacIntel,60.0024001,,,,,,,,,,,1.1972,1,,,,,,,,,,,,,,,,,,,,,,,,0.018072917,-0.338294271,0,0,0,,,,,,,JUNGLE,HB,z,y,./images/JUNGLEHB.png,,,,,,,,,,,,,,,,,,,,,z,1,1.1972,,,,,,,,0,4,4,167,1
,,,,,,,,,,,,,,,,,60fcdeff0f333add62b19471,19,2022-02-12_13h25.53.532,lexical_decision_task_DD_L6,2021.2.3,MacIntel,60.0024001,,,,,,,,,,,1.2419,1,,,,,,,,,,,,,,,,,,,,,,,,0.018072917,-0.338294271,0,0,0,,,,,,,PLANK,C,z,y,./images/PLANK.png,,,,,,,,,,,,,,,,,,,,,z,1,1.2419,,,,,,,,0,5,5,85,1
,,,,,,,,,,,,,,,,,60fcdeff0f333add62b19471,19,2022-02-12_13h25.53.532,lexical_decision_task_DD_L6,2021.2.3,MacIntel,60.0024001,,,,,,,,,,,0.575,1,,,,,,,,,,,,,,,,,,,,,,,,0.018072917,-0.338294271,0,0,0,,,,,,,STEAK,C,m,y,./images/STEAK.png,,,,,,,,,,,,,,,,,,,,,m,1,0.575,,,,,,,,0,6,6,31,1
,,,,,,,,,,,,,,,,,60fcdeff0f333add62b19471,19,2022-02-12_13h25.53.532,lexical_decision_task_DD_L6,2021.2.3,MacIntel,60.0024001,,,,,,,,,,,1.5776,1,,,,,,,,,,,,,,,,,,,,,,,,0.018072917,-0.338294271,0,0,0,,,,,,,PURSE,HB,z,y,./images/PURSEHB.png,,,,,,,,,,,,,,,,,,,,,z,1,1.5776,,,,,,,,0,7,7,146,1
,,,,,,,,,,,,,,,,,60fcdeff0f333add62b19471,19,2022-02-12_13h25.53.532,lexical_decision_task_DD_L6,2021.2.3,MacIntel,60.0024001,,,,,,,,,,,2.0731,0,,,,,,,,,,,,,,,,,,,,,,,,0.018072917,-0.338294271,0,0,0,,,,,,,CLOUD,HB,m,y,./images/CLOUDHB.png,,,,,,,,,,,,,,,,,,,,,z,0,2.0731,,,,,,,,0,8,8,26,1
,,,,,,,,,,,,,,,,,60fcdeff0f333add62b19471,19,2022-02-12_13h25.53.532,lexical_decision_task_DD_L6,2021.2.3,MacIntel,60.0024001,,,,,,,,,,,0.5889,1,,,,,,,,,,,,,,,,,,,,,,,,0.018072917,-0.338294271,0,0,0,,,,,,,LAGOON,HB,m,y,./images/LAGOONHB.png,,,,,,,,,,,,,,,,,,,,,m,1,0.5889,,,,,,,,0,9,9,47,1
,,,,,,,,,,,,,,,,,60fcdeff0f333add62b19471,19,2022-02-12_13h25.53.532,lexical_decision_task_DD_L6,2021.2.3,MacIntel,60.0024001,,,,,,,,,,,1.2404,1,,,,,,,,,,,,,,,,,,,,,,,,0.018072917,-0.338294271,0,0,0,,,,,,,CLIFF,HB,m,y,./images/CLIFFHB.png,,,,,,,,,,,,,,,,,,,,,m,1,1.2404,,,,,,,,0,10,10,8,1
,,,,,,,,,,,,,,,,,60fcdeff0f333add62b19471,19,2022-02-12_13h25.53.532,lexical_decision_task_DD_L6,2021.2.3,MacIntel,60.0024001,,,,,,,,,,,0.6127,1,,,,,,,,,,,,,,,,,,,,,,,,0.018072917,-0.338294271,0,0,0,,,,,,,MEDAL,HB,m,y,./images/MEDALHB.png,,,,,,,,,,,,,,,,,,,,,m,1,0.6127,,,,,,,,0,11,11,11,1
,,,,,,,,,,,,,,,,,60fcdeff0f333add62b19471,19,2022-02-12_13h25.53.532,lexical_decision_task_DD_L6,2021.2.3,MacIntel,60.0024001,,,,,,,,,,,0.59,1,,,,,,,,,,,,,,,,,,,,,,,,0.018072917,-0.338294271,0,0,0,,,,,,,POSTER,HB,m,y,./images/POSTERHB.png,,,,,,,,,,,,,,,,,,,,,m,1,0.59,,,,,,,,0,12,12,53,1
,,,,,,,,,,,,,,,,,60fcdeff0f333add62b19471,19,2022-02-12_13h25.53.532,lexical_decision_task_DD_L6,2021.2.3,MacIntel,60.0024001,,,,,,,,,,,0.7793,0,,,,,,,,,,,,,,,,,,,,,,,,0.018072917,-0.338294271,0,0,0,,,,,,,ARTIST,C,m,y,./images/ARTIST.png,,,,,,,,,,,,,,,,,,,,,z,0,0.7793,,,,,,,,0,13,13,61,1
,,,,,,,,,,,,,,,,,60fcdeff0f333add62b19471,19,2022-02-12_13h25.53.532,lexical_decision_task_DD_L6,2021.2.3,MacIntel,60.0024001,,,,,,,,,,,0.7905,1,,,,,,,,,,,,,,,,,,,,,,,,0.018072917,-0.338294271,0,0,0,,,,,,,DRUMS,C,z,y,./images/DRUMS.png,,,,,,,,,,,,,,,,,,,,,z,1,0.7905,,,,,,,,0,14,14,133,1
,,,,,,,,,,,,,,,,,60fcdeff0f333add62b19471,19,2022-02-12_13h25.53.532,lexical_decision_task_DD_L6,2021.2.3,MacIntel,60.0024001,,,,,,,,,,,0.8888,1,,,,,,,,,,,,,,,,,,,,,,,,0.018072917,-0.338294271,0,0,0,,,,,,,VALLEY,HB,m,y,./images/VALLEYHB.png,,,,,,,,,,,,,,,,,,,,,m,1,0.8888,,,,,,,,0,15,15,68,1
,,,,,,,,,,,,,,,,,60fcdeff0f333add62b19471,19,2022-02-12_13h25.53.532,lexical_decision_task_DD_L6,2021.2.3,MacIntel,60.0024001,,,,,,,,,,,0.5619,1,,,,,,,,,,,,,,,,,,,,,,,,0.018072917,-0.338294271,0,0,0,,,,,,,PARCEL,LB,m,y,./images/PARCELLB.png,,,,,,,,,,,,,,,,,,,,,m,1,0.5619,,,,,,,,0,16,16,18,1
,,,,,,,,,,,,,,,,,60fcdeff0f333add62b19471,19,2022-02-12_13h25.53.532,lexical_decision_task_DD_L6,2021.2.3,MacIntel,60.0024001,,,,,,,,,,,0.5421,0,,,,,,,,,,,,,,,,,,,,,,,,0.018072917,-0.338294271,0,0,0,,,,,,,CANYON,C,z,y,./images/CANYON.png,,,,,,,,,,,,,,,,,,,,,m,0,0.5421,,,,,,,,0,17,17,118,1
,,,,,,,,,,,,,,,,,60fcdeff0f333add62b19471,19,2022-02-12_13h25.53.532,lexical_decision_task_DD_L6,2021.2.3,MacIntel,60.0024001,,,,,,,,,,,0.5579,1,,,,,,,,,,,,,,,,,,,,,,,,0.018072917,-0.338294271,0,0,0,,,,,,,DANCER,LB,m,y,./images/DANCERLB.png,,,,,,,,,,,,,,,,,,,,,m,1,0.5579,,,,,,,,0,18,18,21,1
,,,,,,,,,,,,,,,,,60fcdeff0f333add62b19471,19,2022-02-12_13h25.53.532,lexical_decision_task_DD_L6,2021.2.3,MacIntel,60.0024001,,,,,,,,,,,0.5406,1,,,,,,,,,,,,,,,,,,,,,,,,0.018072917,-0.338294271,0,0,0,,,,,,,FENCE,HB,m,y,./images/FENCEHB.png,,,,,,,,,,,,,,,,,,,,,m,1,0.5406,,,,,,,,0,19,19,14,1
,,,,,,,,,,,,,,,,,60fcdeff0f333add62b19471,19,2022-02-12_13h25.53.532,lexical_decision_task_DD_L6,2021.2.3,MacIntel,60.0024001,,,,,,,,,,,0.7415,1,,,,,,,,,,,,,,,,,,,,,,,,0.018072917,-0.338294271,0,0,0,,,,,,,BLOKE,LB,m,y,./images/BLOKELB.png,,,,,,,,,,,,,,,,,,,,,m,1,0.7415,,,,,,,,0,20,20,12,1
,,,,,,,,,,,,,,,,,60fcdeff0f333add62b19471,19,2022-02-12_13h25.53.532,lexical_decision_task_DD_L6,2021.2.3,MacIntel,60.0024001,,,,,,,,,,,1.3402,1,,,,,,,,,,,,,,,,,,,,,,,,0.018072917,-0.338294271,0,0,0,,,,,,,NOOSE,LB,z,y,./images/NOOSELB.png,,,,,,,,,,,,,,,,,,,,,z,1,1.3402,,,,,,,,0,21,21,156,1
,,,,,,,,,,,,,,,,,60fcdeff0f333add62b19471,19,2022-02-12_13h25.53.532,lexical_decision_task_DD_L6,2021.2.3,MacIntel,60.0024001,,,,,,,,,,,0.8299,1,,,,,,,,,,,,,,,,,,,,,,,,0.018072917,-0.338294271,0,0,0,,,,,,,JUMPER,HB,m,y,./images/JUMPERHB.png,,,,,,,,,,,,,,,,,,,,,m,1,0.8299,,,,,,,,0,22,22,74,1
,,,,,,,,,,,,,,,,,60fcdeff0f333add62b19471,19,2022-02-12_13h25.53.532,lexical_decision_task_DD_L6,2021.2.3,MacIntel,60.0024001,,,,,,,,,,,0.9394,1,,,,,,,,,,,,,,,,,,,,,,,,0.018072917,-0.338294271,0,0,0,,,,,,,POODLE,LB,z,y,./images/POODLELB.png,,,,,,,,,,,,,,,,,,,,,z,1,0.9394,,,,,,,,0,23,23,165,1
,,,,,,,,,,,,,,,,,60fcdeff0f333add62b19471,19,2022-02-12_13h25.53.532,lexical_decision_task_DD_L6,2021.2.3,MacIntel,60.0024001,,,,,,,,,,,0.8661,0,,,,,,,,,,,,,,,,,,,,,,,,0.018072917,-0.338294271,0,0,0,,,,,,,BANNER,C,z,y,./images/BANNER.png,,,,,,,,,,,,,,,,,,,,,m,0,0.8661,,,,,,,,0,24,24,136,1
,,,,,,,,,,,,,,,,,60fcdeff0f333add62b19471,19,2022-02-12_13h25.53.532,lexical_decision_task_DD_L6,2021.2.3,MacIntel,60.0024001,,,,,,,,,,,0.6151,1,,,,,,,,,,,,,,,,,,,,,,,,0.018072917,-0.338294271,0,0,0,,,,,,,WALNUT,LB,m,y,./images/WALNUTLB.png,,,,,,,,,,,,,,,,,,,,,m,1,0.6151,,,,,,,,0,25,25,0,1
,,,,,,,,,,,,,,,,,60fcdeff0f333add62b19471,19,2022-02-12_13h25.53.532,lexical_decision_task_DD_L6,2021.2.3,MacIntel,60.0024001,,,,,,,,,,,0.763,1,,,,,,,,,,,,,,,,,,,,,,,,0.018072917,-0.338294271,0,0,0,,,,,,,ARROW,LB,m,y,./images/ARROWLB.png,,,,,,,,,,,,,,,,,,,,,m,1,0.763,,,,,,,,0,26,26,69,1
,,,,,,,,,,,,,,,,,60fcdeff0f333add62b19471,19,2022-02-12_13h25.53.532,lexical_decision_task_DD_L6,2021.2.3,MacIntel,60.0024001,,,,,,,,,,,1.0451,1,,,,,,,,,,,,,,,,,,,,,,,,0.018072917,-0.338294271,0,0,0,,,,,,,TWINS,LB,z,y,./images/TWINSLB.png,,,,,,,,,,,,,,,,,,,,,z,1,1.0451,,,,,,,,0,27,27,144,1
,,,,,,,,,,,,,,,,,60fcdeff0f333add62b19471,19,2022-02-12_13h25.53.532,lexical_decision_task_DD_L6,2021.2.3,MacIntel,60.0024001,,,,,,,,,,,3.0635,1,,,,,,,,,,,,,,,,,,,,,,,,0.018072917,-0.338294271,0,0,0,,,,,,,HOCKEY,HB,m,y,./images/HOCKEYHB.png,,,,,,,,,,,,,,,,,,,,,m,1,3.0635,,,,,,,,0,28,28,32,1
,,,,,,,,,,,,,,,,,60fcdeff0f333add62b19471,19,2022-02-12_13h25.53.532,lexical_decision_task_DD_L6,2021.2.3,MacIntel,60.0024001,,,,,,,,,,,1.5962,1,,,,,,,,,,,,,,,,,,,,,,,,0.018072917,-0.338294271,0,0,0,,,,,,,STOOL,C,m,y,./images/STOOL.png,,,,,,,,,,,,,,,,,,,,,m,1,1.5962,,,,,,,,0,29,29,43,1
,,,,,,,,,,,,,,,,,60fcdeff0f333add62b19471,19,2022-02-12_13h25.53.532,lexical_decision_task_DD_L6,2021.2.3,MacIntel,60.0024001,,,,,,,,,,,0.7971,1,,,,,,,,,,,,,,,,,,,,,,,,0.018072917,-0.338294271,0,0,0,,,,,,,BEARD,HB,z,y,./images/BEARDHB.png,,,,,,,,,,,,,,,,,,,,,z,1,0.7971,,,,,,,,0,30,30,86,1
,,,,,,,,,,,,,,,,,60fcdeff0f333add62b19471,19,2022-02-12_13h25.53.532,lexical_decision_task_DD_L6,2021.2.3,MacIntel,60.0024001,,,,,,,,,,,0.7623,1,,,,,,,,,,,,,,,,,,,,,,,,0.018072917,-0.338294271,0,0,0,,,,,,,LIZARD,HB,z,y,./images/LIZARDHB.png,,,,,,,,,,,,,,,,,,,,,z,1,0.7623,,,,,,,,0,31,31,128,1
,,,,,,,,,,,,,,,,,60fcdeff0f333add62b19471,19,2022-02-12_13h25.53.532,lexical_decision_task_DD_L6,2021.2.3,MacIntel,60.0024001,,,,,,,,,,,0.6258,1,,,,,,,,,,,,,,,,,,,,,,,,0.018072917,-0.338294271,0,0,0,,,,,,,DRILL,LB,m,y,./images/DRILLLB.png,,,,,,,,,,,,,,,,,,,,,m,1,0.6258,,,,,,,,0,32,32,81,1
,,,,,,,,,,,,,,,,,60fcdeff0f333add62b19471,19,2022-02-12_13h25.53.532,lexical_decision_task_DD_L6,2021.2.3,MacIntel,60.0024001,,,,,,,,,,,0.6629,1,,,,,,,,,,,,,,,,,,,,,,,,0.018072917,-0.338294271,0,0,0,,,,,,,KITTEN,LB,z,y,./images/KITTENLB.png,,,,,,,,,,,,,,,,,,,,,z,1,0.6629,,,,,,,,0,33,33,129,1
,,,,,,,,,,,,,,,,,60fcdeff0f333add62b19471,19,2022-02-12_13h25.53.532,lexical_decision_task_DD_L6,2021.2.3,MacIntel,60.0024001,,,,,,,,,,,0.6691,1,,,,,,,,,,,,,,,,,,,,,,,,0.018072917,-0.338294271,0,0,0,,,,,,,PLANET,HB,m,y,./images/PLANETHB.png,,,,,,,,,,,,,,,,,,,,,m,1,0.6691,,,,,,,,0,34,34,80,1
,,,,,,,,,,,,,,,,,60fcdeff0f333add62b19471,19,2022-02-12_13h25.53.532,lexical_decision_task_DD_L6,2021.2.3,MacIntel,60.0024001,,,,,,,,,,,0.798,1,,,,,,,,,,,,,,,,,,,,,,,,0.018072917,-0.338294271,0,0,0,,,,,,,PILOT,HB,m,y,./images/PILOTHB.png,,,,,,,,,,,,,,,,,,,,,m,1,0.798,,,,,,,,0,35,35,50,1
,,,,,,,,,,,,,,,,,60fcdeff0f333add62b19471,19,2022-02-12_13h25.53.532,lexical_decision_task_DD_L6,2021.2.3,MacIntel,60.0024001,,,,,,,,,,,0.9276,0,,,,,,,,,,,,,,,,,,,,,,,,0.018072917,-0.338294271,0,0,0,,,,,,,MALLET,HB,z,y,./images/MALLETHB.png,,,,,,,,,,,,,,,,,,,,,m,0,0.9276,,,,,,,,0,36,36,134,1
,,,,,,,,,,,,,,,,,60fcdeff0f333add62b19471,19,2022-02-12_13h25.53.532,lexical_decision_task_DD_L6,2021.2.3,MacIntel,60.0024001,,,,,,,,,,,0.6979,1,,,,,,,,,,,,,,,,,,,,,,,,0.018072917,-0.338294271,0,0,0,,,,,,,PIMPLE,HB,z,y,./images/PIMPLEHB.png,,,,,,,,,,,,,,,,,,,,,z,1,0.6979,,,,,,,,0,37,37,155,1
,,,,,,,,,,,,,,,,,60fcdeff0f333add62b19471,19,2022-02-12_13h25.53.532,lexical_decision_task_DD_L6,2021.2.3,MacIntel,60.0024001,,,,,,,,,,,1.1119,0,,,,,,,,,,,,,,,,,,,,,,,,0.018072917,-0.338294271,0,0,0,,,,,,,GRAPE,C,m,y,./images/GRAPE.png,,,,,,,,,,,,,,,,,,,,,z,0,1.1119,,,,,,,,0,38,38,16,1
,,,,,,,,,,,,,,,,,60fcdeff0f333add62b19471,19,2022-02-12_13h25.53.532,lexical_decision_task_DD_L6,2021.2.3,MacIntel,60.0024001,,,,,,,,,,,0.7036,1,,,,,,,,,,,,,,,,,,,,,,,,0.018072917,-0.338294271,0,0,0,,,,,,,FERRY,LB,m,y,./images/FERRYLB.png,,,,,,,,,,,,,,,,,,,,,m,1,0.7036,,,,,,,,0,39,39,57,1
,,,,,,,,,,,,,,,,,60fcdeff0f333add62b19471,19,2022-02-12_13h25.53.532,lexical_decision_task_DD_L6,2021.2.3,MacIntel,60.0024001,,,,,,,,,,,0.8947,0,,,,,,,,,,,,,,,,,,,,,,,,0.018072917,-0.338294271,0,0,0,,,,,,,PEARL,C,z,y,./images/PEARL.png,,,,,,,,,,,,,,,,,,,,,m,0,0.8947,,,,,,,,0,40,40,130,1
,,,,,,,,,,,,,,,,,60fcdeff0f333add62b19471,19,2022-02-12_13h25.53.532,lexical_decision_task_DD_L6,2021.2.3,MacIntel,60.0024001,,,,,,,,,,,0.5315,0,,,,,,,,,,,,,,,,,,,,,,,,0.018072917,-0.338294271,0,0,0,space,,,,,,CANDLE,C,z,y,./images/CANDLE.png,1.0322,,,,,,,,,,,,,,,,,,,,m,0,0.5315,,,,,,,,0,41,41,145,1
,,,,,,,,,,,,,,,,,60fcdeff0f333add62b19471,19,2022-02-12_13h25.53.532,lexical_decision_task_DD_L6,2021.2.3,MacIntel,60.0024001,,,,,,,,,,,0.7962,0,,,,,,,,,,,,,,,,,,,,,,,,0.018072917,-0.338294271,0,0,0,,,,,,,CHAIN,LB,m,y,./images/CHAINLB.png,,,,,,,,,,,,,,,,,,,,,z,0,0.7962,,,,,,,,0,42,42,42,1
,,,,,,,,,,,,,,,,,60fcdeff0f333add62b19471,19,2022-02-12_13h25.53.532,lexical_decision_task_DD_L6,2021.2.3,MacIntel,60.0024001,,,,,,,,,,,0.5618,1,,,,,,,,,,,,,,,,,,,,,,,,0.018072917,-0.338294271,0,0,0,,,,,,,MUMMY,C,m,y,./images/MUMMY.png,,,,,,,,,,,,,,,,,,,,,m,1,0.5618,,,,,,,,0,43,43,46,1
,,,,,,,,,,,,,,,,,60fcdeff0f333add62b19471,19,2022-02-12_13h25.53.532,lexical_decision_task_DD_L6,2021.2.3,MacIntel,60.0024001,,,,,,,,,,,0.6627,1,,,,,,,,,,,,,,,,,,,,,,,,0.018072917,-0.338294271,0,0,0,,,,,,,HEATER,HB,m,y,./images/HEATERHB.png,,,,,,,,,,,,,,,,,,,,,m,1,0.6627,,,,,,,,0,44,44,56,1
,,,,,,,,,,,,,,,,,60fcdeff0f333add62b19471,19,2022-02-12_13h25.53.532,lexical_decision_task_DD_L6,2021.2.3,MacIntel,60.0024001,,,,,,,,,,,1.2626,1,,,,,,,,,,,,,,,,,,,,,,,,0.018072917,-0.338294271,0,0,0,,,,,,,STAIN,LB,m,y,./images/STAINLB.png,,,,,,,,,,,,,,,,,,,,,m,1,1.2626,,,,,,,,0,45,45,6,1
,,,,,,,,,,,,,,,,,60fcdeff0f333add62b19471,19,2022-02-12_13h25.53.532,lexical_decision_task_DD_L6,2021.2.3,MacIntel,60.0024001,,,,,,,,,,,0.613,1,,,,,,,,,,,,,,,,,,,,,,,,0.018072917,-0.338294271,0,0,0,,,,,,,GRANNY,HB,m,y,./images/GRANNYHB.png,,,,,,,,,,,,,,,,,,,,,m,1,0.613,,,,,,,,0,46,46,20,1
,,,,,,,,,,,,,,,,,60fcdeff0f333add62b19471,19,2022-02-12_13h25.53.532,lexical_decision_task_DD_L6,2021.2.3,MacIntel,60.0024001,,,,,,,,,,,0.6039,1,,,,,,,,,,,,,,,,,,,,,,,,0.018072917,-0.338294271,0,0,0,,,,,,,GLOVE,C,m,y,./images/GLOVE.png,,,,,,,,,,,,,,,,,,,,,m,1,0.6039,,,,,,,,0,47,47,73,1
,,,,,,,,,,,,,,,,,60fcdeff0f333add62b19471,19,2022-02-12_13h25.53.532,lexical_decision_task_DD_L6,2021.2.3,MacIntel,60.0024001,,,,,,,,,,,0.9481,1,,,,,,,,,,,,,,,,,,,,,,,,0.018072917,-0.338294271,0,0,0,,,,,,,SQUARE,LB,z,y,./images/SQUARELB.png,,,,,,,,,,,,,,,,,,,,,z,1,0.9481,,,,,,,,0,48,48,90,1
,,,,,,,,,,,,,,,,,60fcdeff0f333add62b19471,19,2022-02-12_13h25.53.532,lexical_decision_task_DD_L6,2021.2.3,MacIntel,60.0024001,,,,,,,,,,,0.8475,1,,,,,,,,,,,,,,,,,,,,,,,,0.018072917,-0.338294271,0,0,0,,,,,,,FINGER,LB,z,y,./images/FINGERLB.png,,,,,,,,,,,,,,,,,,,,,z,1,0.8475,,,,,,,,0,49,49,87,1
,,,,,,,,,,,,,,,,,60fcdeff0f333add62b19471,19,2022-02-12_13h25.53.532,lexical_decision_task_DD_L6,2021.2.3,MacIntel,60.0024001,,,,,,,,,,,0.5391,1,,,,,,,,,,,,,,,,,,,,,,,,0.018072917,-0.338294271,0,0,0,,,,,,,CLOTH,HB,m,y,./images/CLOTHHB.png,,,,,,,,,,,,,,,,,,,,,m,1,0.5391,,,,,,,,0,50,50,23,1
,,,,,,,,,,,,,,,,,60fcdeff0f333add62b19471,19,2022-02-12_13h25.53.532,lexical_decision_task_DD_L6,2021.2.3,MacIntel,60.0024001,,,,,,,,,,,0.596,1,,,,,,,,,,,,,,,,,,,,,,,,0.018072917,-0.338294271,0,0,0,,,,,,,TOWEL,C,m,y,./images/TOWEL.png,,,,,,,,,,,,,,,,,,,,,m,1,0.596,,,,,,,,0,51,51,1,1
,,,,,,,,,,,,,,,,,60fcdeff0f333add62b19471,19,2022-02-12_13h25.53.532,lexical_decision_task_DD_L6,2021.2.3,MacIntel,60.0024001,,,,,,,,,,,1.9972,0,,,,,,,,,,,,,,,,,,,,,,,,0.018072917,-0.338294271,0,0,0,,,,,,,MUSCLE,C,z,y,./images/MUSCLE.png,,,,,,,,,,,,,,,,,,,,,m,0,1.9972,,,,,,,,0,52,52,88,1
,,,,,,,,,,,,,,,,,60fcdeff0f333add62b19471,19,2022-02-12_13h25.53.532,lexical_decision_task_DD_L6,2021.2.3,MacIntel,60.0024001,,,,,,,,,,,0.6292,1,,,,,,,,,,,,,,,,,,,,,,,,0.018072917,-0.338294271,0,0,0,,,,,,,DONKEY,C,m,y,./images/DONKEY.png,,,,,,,,,,,,,,,,,,,,,m,1,0.6292,,,,,,,,0,53,53,19,1
,,,,,,,,,,,,,,,,,60fcdeff0f333add62b19471,19,2022-02-12_13h25.53.532,lexical_decision_task_DD_L6,2021.2.3,MacIntel,60.0024001,,,,,,,,,,,0.6791,1,,,,,,,,,,,,,,,,,,,,,,,,0.018072917,-0.338294271,0,0,0,,,,,,,SUNSET,C,z,y,./images/SUNSET.png,,,,,,,,,,,,,,,,,,,,,z,1,0.6791,,,,,,,,0,54,54,166,1
,,,,,,,,,,,,,,,,,60fcdeff0f333add62b19471,19,2022-02-12_13h25.53.532,lexical_decision_task_DD_L6,2021.2.3,MacIntel,60.0024001,,,,,,,,,,,0.9465,1,,,,,,,,,,,,,,,,,,,,,,,,0.018072917,-0.338294271,0,0,0,,,,,,,TULIP,HB,z,y,./images/TULIPHB.png,,,,,,,,,,,,,,,,,,,,,z,1,0.9465,,,,,,,,0,55,55,92,1
,,,,,,,,,,,,,,,,,60fcdeff0f333add62b19471,19,2022-02-12_13h25.53.532,lexical_decision_task_DD_L6,2021.2.3,MacIntel,60.0024001,,,,,,,,,,,0.8628,1,,,,,,,,,,,,,,,,,,,,,,,,0.018072917,-0.338294271,0,0,0,,,,,,,MIDGET,C,m,y,./images/MIDGET.png,,,,,,,,,,,,,,,,,,,,,m,1,0.8628,,,,,,,,0,56,56,76,1
,,,,,,,,,,,,,,,,,60fcdeff0f333add62b19471,19,2022-02-12_13h25.53.532,lexical_decision_task_DD_L6,2021.2.3,MacIntel,60.0024001,,,,,,,,,,,0.963,1,,,,,,,,,,,,,,,,,,,,,,,,0.018072917,-0.338294271,0,0,0,,,,,,,CHERRY,LB,m,y,./images/CHERRYLB.png,,,,,,,,,,,,,,,,,,,,,m,1,0.963,,,,,,,,0,57,57,54,1
,,,,,,,,,,,,,,,,,60fcdeff0f333add62b19471,19,2022-02-12_13h25.53.532,lexical_decision_task_DD_L6,2021.2.3,MacIntel,60.0024001,,,,,,,,,,,1.2956,1,,,,,,,,,,,,,,,,,,,,,,,,0.018072917,-0.338294271,0,0,0,,,,,,,CURRY,LB,m,y,./images/CURRYLB.png,,,,,,,,,,,,,,,,,,,,,m,1,1.2956,,,,,,,,0,58,58,60,1
,,,,,,,,,,,,,,,,,60fcdeff0f333add62b19471,19,2022-02-12_13h25.53.532,lexical_decision_task_DD_L6,2021.2.3,MacIntel,60.0024001,,,,,,,,,,,0.8016,1,,,,,,,,,,,,,,,,,,,,,,,,0.018072917,-0.338294271,0,0,0,,,,,,,MUFFIN,C,z,y,./images/MUFFIN.png,,,,,,,,,,,,,,,,,,,,,z,1,0.8016,,,,,,,,0,59,59,139,1
,,,,,,,,,,,,,,,,,60fcdeff0f333add62b19471,19,2022-02-12_13h25.53.532,lexical_decision_task_DD_L6,2021.2.3,MacIntel,60.0024001,,,,,,,,,,,0.5625,1,,,,,,,,,,,,,,,,,,,,,,,,0.018072917,-0.338294271,0,0,0,,,,,,,PISTOL,HB,m,y,./images/PISTOLHB.png,,,,,,,,,,,,,,,,,,,,,m,1,0.5625,,,,,,,,0,60,60,29,1
,,,,,,,,,,,,,,,,,60fcdeff0f333add62b19471,19,2022-02-12_13h25.53.532,lexical_decision_task_DD_L6,2021.2.3,MacIntel,60.0024001,,,,,,,,,,,0.6322,1,,,,,,,,,,,,,,,,,,,,,,,,0.018072917,-0.338294271,0,0,0,,,,,,,WHEEL,HB,m,y,./images/WHEELHB.png,,,,,,,,,,,,,,,,,,,,,m,1,0.6322,,,,,,,,0,61,61,77,1
,,,,,,,,,,,,,,,,,60fcdeff0f333add62b19471,19,2022-02-12_13h25.53.532,lexical_decision_task_DD_L6,2021.2.3,MacIntel,60.0024001,,,,,,,,,,,0.7554,1,,,,,,,,,,,,,,,,,,,,,,,,0.018072917,-0.338294271,0,0,0,,,,,,,STOVE,HB,m,y,./images/STOVEHB.png,,,,,,,,,,,,,,,,,,,,,m,1,0.7554,,,,,,,,0,62,62,2,1
,,,,,,,,,,,,,,,,,60fcdeff0f333add62b19471,19,2022-02-12_13h25.53.532,lexical_decision_task_DD_L6,2021.2.3,MacIntel,60.0024001,,,,,,,,,,,0.6359,1,,,,,,,,,,,,,,,,,,,,,,,,0.018072917,-0.338294271,0,0,0,,,,,,,BAMBOO,HB,m,y,./images/BAMBOOHB.png,,,,,,,,,,,,,,,,,,,,,m,1,0.6359,,,,,,,,0,63,63,5,1
,,,,,,,,,,,,,,,,,60fcdeff0f333add62b19471,19,2022-02-12_13h25.53.532,lexical_decision_task_DD_L6,2021.2.3,MacIntel,60.0024001,,,,,,,,,,,1.903,1,,,,,,,,,,,,,,,,,,,,,,,,0.018072917,-0.338294271,0,0,0,,,,,,,TRIPOD,LB,z,y,./images/TRIPODLB.png,,,,,,,,,,,,,,,,,,,,,z,1,1.903,,,,,,,,0,64,64,138,1
,,,,,,,,,,,,,,,,,60fcdeff0f333add62b19471,19,2022-02-12_13h25.53.532,lexical_decision_task_DD_L6,2021.2.3,MacIntel,60.0024001,,,,,,,,,,,0.7882,1,,,,,,,,,,,,,,,,,,,,,,,,0.018072917,-0.338294271,0,0,0,,,,,,,WRIST,C,z,y,./images/WRIST.png,,,,,,,,,,,,,,,,,,,,,z,1,0.7882,,,,,,,,0,65,65,109,1
,,,,,,,,,,,,,,,,,60fcdeff0f333add62b19471,19,2022-02-12_13h25.53.532,lexical_decision_task_DD_L6,2021.2.3,MacIntel,60.0024001,,,,,,,,,,,0.7047,1,,,,,,,,,,,,,,,,,,,,,,,,0.018072917,-0.338294271,0,0,0,,,,,,,BOXER,C,m,y,./images/BOXER.png,,,,,,,,,,,,,,,,,,,,,m,1,0.7047,,,,,,,,0,66,66,4,1
,,,,,,,,,,,,,,,,,60fcdeff0f333add62b19471,19,2022-02-12_13h25.53.532,lexical_decision_task_DD_L6,2021.2.3,MacIntel,60.0024001,,,,,,,,,,,0.8203,1,,,,,,,,,,,,,,,,,,,,,,,,0.018072917,-0.338294271,0,0,0,,,,,,,PEACH,HB,z,y,./images/PEACHHB.png,,,,,,,,,,,,,,,,,,,,,z,1,0.8203,,,,,,,,0,67,67,119,1
,,,,,,,,,,,,,,,,,60fcdeff0f333add62b19471,19,2022-02-12_13h25.53.532,lexical_decision_task_DD_L6,2021.2.3,MacIntel,60.0024001,,,,,,,,,,,1.1521,1,,,,,,,,,,,,,,,,,,,,,,,,0.018072917,-0.338294271,0,0,0,,,,,,,STATUE,LB,m,y,./images/STATUELB.png,,,,,,,,,,,,,,,,,,,,,m,1,1.1521,,,,,,,,0,68,68,66,1
,,,,,,,,,,,,,,,,,60fcdeff0f333add62b19471,19,2022-02-12_13h25.53.532,lexical_decision_task_DD_L6,2021.2.3,MacIntel,60.0024001,,,,,,,,,,,1.0402,1,,,,,,,,,,,,,,,,,,,,,,,,0.018072917,-0.338294271,0,0,0,,,,,,,CHALK,C,m,y,./images/CHALK.png,,,,,,,,,,,,,,,,,,,,,m,1,1.0402,,,,,,,,0,69,69,25,1
,,,,,,,,,,,,,,,,,60fcdeff0f333add62b19471,19,2022-02-12_13h25.53.532,lexical_decision_task_DD_L6,2021.2.3,MacIntel,60.0024001,,,,,,,,,,,0.5647,1,,,,,,,,,,,,,,,,,,,,,,,,0.018072917,-0.338294271,0,0,0,,,,,,,BASKET,HB,m,y,./images/BASKETHB.png,,,,,,,,,,,,,,,,,,,,,m,1,0.5647,,,,,,,,0,70,70,44,1
,,,,,,,,,,,,,,,,,60fcdeff0f333add62b19471,19,2022-02-12_13h25.53.532,lexical_decision_task_DD_L6,2021.2.3,MacIntel,60.0024001,,,,,,,,,,,2.6701,1,,,,,,,,,,,,,,,,,,,,,,,,0.018072917,-0.338294271,0,0,0,,,,,,,LADDER,HB,z,y,./images/LADDERHB.png,,,,,,,,,,,,,,,,,,,,,z,1,2.6701,,,,,,,,0,71,71,122,1
,,,,,,,,,,,,,,,,,60fcdeff0f333add62b19471,19,2022-02-12_13h25.53.532,lexical_decision_task_DD_L6,2021.2.3,MacIntel,60.0024001,,,,,,,,,,,0.5853,1,,,,,,,,,,,,,,,,,,,,,,,,0.018072917,-0.338294271,0,0,0,,,,,,,CASINO,C,m,y,./images/CASINO.png,,,,,,,,,,,,,,,,,,,,,m,1,0.5853,,,,,,,,0,72,72,28,1
,,,,,,,,,,,,,,,,,60fcdeff0f333add62b19471,19,2022-02-12_13h25.53.532,lexical_decision_task_DD_L6,2021.2.3,MacIntel,60.0024001,,,,,,,,,,,1.7623,1,,,,,,,,,,,,,,,,,,,,,,,,0.018072917,-0.338294271,0,0,0,,,,,,,BURIAL,HB,z,y,./images/BURIALHB.png,,,,,,,,,,,,,,,,,,,,,z,1,1.7623,,,,,,,,0,73,73,143,1
,,,,,,,,,,,,,,,,,60fcdeff0f333add62b19471,19,2022-02-12_13h25.53.532,lexical_decision_task_DD_L6,2021.2.3,MacIntel,60.0024001,,,,,,,,,,,3.3593,1,,,,,,,,,,,,,,,,,,,,,,,,0.018072917,-0.338294271,0,0,0,,,,,,,FOLDER,LB,z,y,./images/FOLDERLB.png,,,,,,,,,,,,,,,,,,,,,z,1,3.3593,,,,,,,,0,74,74,126,1
,,,,,,,,,,,,,,,,,60fcdeff0f333add62b19471,19,2022-02-12_13h25.53.532,lexical_decision_task_DD_L6,2021.2.3,MacIntel,60.0024001,,,,,,,,,,,1.2563,1,,,,,,,,,,,,,,,,,,,,,,,,0.018072917,-0.338294271,0,0,0,,,,,,,BAKER,LB,m,y,./images/BAKERLB.png,,,,,,,,,,,,,,,,,,,,,m,1,1.2563,,,,,,,,0,75,75,63,1
,,,,,,,,,,,,,,,,,60fcdeff0f333add62b19471,19,2022-02-12_13h25.53.532,lexical_decision_task_DD_L6,2021.2.3,MacIntel,60.0024001,,,,,,,,,,,0.6661,1,,,,,,,,,,,,,,,,,,,,,,,,0.018072917,-0.338294271,0,0,0,,,,,,,FALCON,C,z,y,./images/FALCON.png,,,,,,,,,,,,,,,,,,,,,z,1,0.6661,,,,,,,,0,76,76,112,1
,,,,,,,,,,,,,,,,,60fcdeff0f333add62b19471,19,2022-02-12_13h25.53.532,lexical_decision_task_DD_L6,2021.2.3,MacIntel,60.0024001,,,,,,,,,,,0.681,1,,,,,,,,,,,,,,,,,,,,,,,,0.018072917,-0.338294271,0,0,0,,,,,,,GARDEN,C,m,y,./images/GARDEN.png,,,,,,,,,,,,,,,,,,,,,m,1,0.681,,,,,,,,0,77,77,10,1
,,,,,,,,,,,,,,,,,60fcdeff0f333add62b19471,19,2022-02-12_13h25.53.532,lexical_decision_task_DD_L6,2021.2.3,MacIntel,60.0024001,,,,,,,,,,,1.6826,1,,,,,,,,,,,,,,,,,,,,,,,,0.018072917,-0.338294271,0,0,0,,,,,,,MONKEY,LB,m,y,./images/MONKEYLB.png,,,,,,,,,,,,,,,,,,,,,m,1,1.6826,,,,,,,,0,78,78,45,1
,,,,,,,,,,,,,,,,,60fcdeff0f333add62b19471,19,2022-02-12_13h25.53.532,lexical_decision_task_DD_L6,2021.2.3,MacIntel,60.0024001,,,,,,,,,,,1.0547,1,,,,,,,,,,,,,,,,,,,,,,,,0.018072917,-0.338294271,0,0,0,,,,,,,HAMMER,LB,m,y,./images/HAMMERLB.png,,,,,,,,,,,,,,,,,,,,,m,1,1.0547,,,,,,,,0,79,79,75,1
,,,,,,,,,,,,,,,,,60fcdeff0f333add62b19471,19,2022-02-12_13h25.53.532,lexical_decision_task_DD_L6,2021.2.3,MacIntel,60.0024001,,,,,,,,,,,0.5828,1,,,,,,,,,,,,,,,,,,,,,,,,0.018072917,-0.338294271,0,0,0,,,,,,,TIGER,C,m,y,./images/TIGER.png,,,,,,,,,,,,,,,,,,,,,m,1,0.5828,,,,,,,,0,80,80,37,1
,,,,,,,,,,,,,,,,,60fcdeff0f333add62b19471,19,2022-02-12_13h25.53.532,lexical_decision_task_DD_L6,2021.2.3,MacIntel,60.0024001,,,,,,,,,,,0.7224,1,,,,,,,,,,,,,,,,,,,,,,,,0.018072917,-0.338294271,0,0,0,,,,,,,JELLY,C,z,y,./images/JELLY.png,,,,,,,,,,,,,,,,,,,,,z,1,0.7224,,,,,,,,0,81,81,148,1
,,,,,,,,,,,,,,,,,60fcdeff0f333add62b19471,19,2022-02-12_13h25.53.532,lexical_decision_task_DD_L6,2021.2.3,MacIntel,60.0024001,,,,,,,,,,,1.4652,0,,,,,,,,,,,,,,,,,,,,,,,,0.018072917,-0.338294271,0,0,0,,,,,,,CANDY,LB,m,y,./images/CANDYLB.png,,,,,,,,,,,,,,,,,,,,,z,0,1.4652,,,,,,,,0,82,82,39,1
,,,,,,,,,,,,,,,,,60fcdeff0f333add62b19471,19,2022-02-12_13h25.53.532,lexical_decision_task_DD_L6,2021.2.3,MacIntel,60.0024001,,,,,,,,,,,1.8056,1,,,,,,,,,,,,,,,,,,,,,,,,0.018072917,-0.338294271,0,0,0,space,,,,,,PASTA,HB,z,y,./images/PASTAHB.png,1.159,,,,,,,,,,,,,,,,,,,,z,1,1.8056,,,,,,,,0,83,83,89,1
,,,,,,,,,,,,,,,,,60fcdeff0f333add62b19471,19,2022-02-12_13h25.53.532,lexical_decision_task_DD_L6,2021.2.3,MacIntel,60.0024001,,,,,,,,,,,0.6821,1,,,,,,,,,,,,,,,,,,,,,,,,0.018072917,-0.338294271,0,0,0,,,,,,,THROAT,LB,z,y,./images/THROATLB.png,,,,,,,,,,,,,,,,,,,,,z,1,0.6821,,,,,,,,0,84,84,120,1
,,,,,,,,,,,,,,,,,60fcdeff0f333add62b19471,19,2022-02-12_13h25.53.532,lexical_decision_task_DD_L6,2021.2.3,MacIntel,60.0024001,,,,,,,,,,,1.0655,1,,,,,,,,,,,,,,,,,,,,,,,,0.018072917,-0.338294271,0,0,0,,,,,,,PENCE,C,z,y,./images/PENCE.png,,,,,,,,,,,,,,,,,,,,,z,1,1.0655,,,,,,,,0,85,85,100,1
,,,,,,,,,,,,,,,,,60fcdeff0f333add62b19471,19,2022-02-12_13h25.53.532,lexical_decision_task_DD_L6,2021.2.3,MacIntel,60.0024001,,,,,,,,,,,1.639,0,,,,,,,,,,,,,,,,,,,,,,,,0.018072917,-0.338294271,0,0,0,,,,,,,URINE,C,z,y,./images/URINE.png,,,,,,,,,,,,,,,,,,,,,m,0,1.639,,,,,,,,0,86,86,154,1
,,,,,,,,,,,,,,,,,60fcdeff0f333add62b19471,19,2022-02-12_13h25.53.532,lexical_decision_task_DD_L6,2021.2.3,MacIntel,60.0024001,,,,,,,,,,,1.5835,1,,,,,,,,,,,,,,,,,,,,,,,,0.018072917,-0.338294271,0,0,0,,,,,,,WAGON,C,m,y,./images/WAGON.png,,,,,,,,,,,,,,,,,,,,,m,1,1.5835,,,,,,,,0,87,87,7,1
,,,,,,,,,,,,,,,,,60fcdeff0f333add62b19471,19,2022-02-12_13h25.53.532,lexical_decision_task_DD_L6,2021.2.3,MacIntel,60.0024001,,,,,,,,,,,1.1506,1,,,,,,,,,,,,,,,,,,,,,,,,0.018072917,-0.338294271,0,0,0,,,,,,,BABOON,C,z,y,./images/BABOON.png,,,,,,,,,,,,,,,,,,,,,z,1,1.1506,,,,,,,,0,88,88,142,1
,,,,,,,,,,,,,,,,,60fcdeff0f333add62b19471,19,2022-02-12_13h25.53.532,lexical_decision_task_DD_L6,2021.2.3,MacIntel,60.0024001,,,,,,,,,,,0.9913,1,,,,,,,,,,,,,,,,,,,,,,,,0.018072917,-0.338294271,0,0,0,,,,,,,BUBBLE,HB,m,y,./images/BUBBLEHB.png,,,,,,,,,,,,,,,,,,,,,m,1,0.9913,,,,,,,,0,89,89,71,1
,,,,,,,,,,,,,,,,,60fcdeff0f333add62b19471,19,2022-02-12_13h25.53.532,lexical_decision_task_DD_L6,2021.2.3,MacIntel,60.0024001,,,,,,,,,,,0.6188,1,,,,,,,,,,,,,,,,,,,,,,,,0.018072917,-0.338294271,0,0,0,,,,,,,MAMMAL,HB,m,y,./images/MAMMALHB.png,,,,,,,,,,,,,,,,,,,,,m,1,0.6188,,,,,,,,0,90,90,62,1
,,,,,,,,,,,,,,,,,60fcdeff0f333add62b19471,19,2022-02-12_13h25.53.532,lexical_decision_task_DD_L6,2021.2.3,MacIntel,60.0024001,,,,,,,,,,,0.5828,1,,,,,,,,,,,,,,,,,,,,,,,,0.018072917,-0.338294271,0,0,0,,,,,,,ATTIC,LB,z,y,./images/ATTICLB.png,,,,,,,,,,,,,,,,,,,,,z,1,0.5828,,,,,,,,0,91,91,111,1
,,,,,,,,,,,,,,,,,60fcdeff0f333add62b19471,19,2022-02-12_13h25.53.532,lexical_decision_task_DD_L6,2021.2.3,MacIntel,60.0024001,,,,,,,,,,,0.6341,1,,,,,,,,,,,,,,,,,,,,,,,,0.018072917,-0.338294271,0,0,0,,,,,,,ONION,LB,z,y,./images/ONIONLB.png,,,,,,,,,,,,,,,,,,,,,z,1,0.6341,,,,,,,,0,92,92,135,1
,,,,,,,,,,,,,,,,,60fcdeff0f333add62b19471,19,2022-02-12_13h25.53.532,lexical_decision_task_DD_L6,2021.2.3,MacIntel,60.0024001,,,,,,,,,,,0.839,1,,,,,,,,,,,,,,,,,,,,,,,,0.018072917,-0.338294271,0,0,0,,,,,,,BRIDE,C,m,y,./images/BRIDE.png,,,,,,,,,,,,,,,,,,,,,m,1,0.839,,,,,,,,0,93,93,64,1
,,,,,,,,,,,,,,,,,60fcdeff0f333add62b19471,19,2022-02-12_13h25.53.532,lexical_decision_task_DD_L6,2021.2.3,MacIntel,60.0024001,,,,,,,,,,,0.5821,1,,,,,,,,,,,,,,,,,,,,,,,,0.018072917,-0.338294271,0,0,0,,,,,,,BISHOP,C,m,y,./images/BISHOP.png,,,,,,,,,,,,,,,,,,,,,m,1,0.5821,,,,,,,,0,94,94,49,1
,,,,,,,,,,,,,,,,,60fcdeff0f333add62b19471,19,2022-02-12_13h25.53.532,lexical_decision_task_DD_L6,2021.2.3,MacIntel,60.0024001,,,,,,,,,,,0.5894,1,,,,,,,,,,,,,,,,,,,,,,,,0.018072917,-0.338294271,0,0,0,,,,,,,DOUGH,C,z,y,./images/DOUGH.png,,,,,,,,,,,,,,,,,,,,,z,1,0.5894,,,,,,,,0,95,95,103,1
,,,,,,,,,,,,,,,,,60fcdeff0f333add62b19471,19,2022-02-12_13h25.53.532,lexical_decision_task_DD_L6,2021.2.3,MacIntel,60.0024001,,,,,,,,,,,0.7,1,,,,,,,,,,,,,,,,,,,,,,,,0.018072917,-0.338294271,0,0,0,,,,,,,BIRTH,C,z,y,./images/BIRTH.png,,,,,,,,,,,,,,,,,,,,,z,1,0.7,,,,,,,,0,96,96,121,1
,,,,,,,,,,,,,,,,,60fcdeff0f333add62b19471,19,2022-02-12_13h25.53.532,lexical_decision_task_DD_L6,2021.2.3,MacIntel,60.0024001,,,,,,,,,,,0.6968,1,,,,,,,,,,,,,,,,,,,,,,,,0.018072917,-0.338294271,0,0,0,,,,,,,BUNNY,C,m,y,./images/BUNNY.png,,,,,,,,,,,,,,,,,,,,,m,1,0.6968,,,,,,,,0,97,97,13,1
,,,,,,,,,,,,,,,,,60fcdeff0f333add62b19471,19,2022-02-12_13h25.53.532,lexical_decision_task_DD_L6,2021.2.3,MacIntel,60.0024001,,,,,,,,,,,0.6035,1,,,,,,,,,,,,,,,,,,,,,,,,0.018072917,-0.338294271,0,0,0,,,,,,,SHORE,LB,z,y,./images/SHORELB.png,,,,,,,,,,,,,,,,,,,,,z,1,0.6035,,,,,,,,0,98,98,96,1
,,,,,,,,,,,,,,,,,60fcdeff0f333add62b19471,19,2022-02-12_13h25.53.532,lexical_decision_task_DD_L6,2021.2.3,MacIntel,60.0024001,,,,,,,,,,,1.0656,1,,,,,,,,,,,,,,,,,,,,,,,,0.018072917,-0.338294271,0,0,0,,,,,,,MOOSE,LB,z,y,./images/MOOSELB.png,,,,,,,,,,,,,,,,,,,,,z,1,1.0656,,,,,,,,0,99,99,141,1
,,,,,,,,,,,,,,,,,60fcdeff0f333add62b19471,19,2022-02-12_13h25.53.532,lexical_decision_task_DD_L6,2021.2.3,MacIntel,60.0024001,,,,,,,,,,,1.0193,1,,,,,,,,,,,,,,,,,,,,,,,,0.018072917,-0.338294271,0,0,0,,,,,,,TOMATO,LB,z,y,./images/TOMATOLB.png,,,,,,,,,,,,,,,,,,,,,z,1,1.0193,,,,,,,,0,100,100,84,1
,,,,,,,,,,,,,,,,,60fcdeff0f333add62b19471,19,2022-02-12_13h25.53.532,lexical_decision_task_DD_L6,2021.2.3,MacIntel,60.0024001,,,,,,,,,,,0.5868,1,,,,,,,,,,,,,,,,,,,,,,,,0.018072917,-0.338294271,0,0,0,,,,,,,BRUSH,HB,m,y,./images/BRUSHHB.png,,,,,,,,,,,,,,,,,,,,,m,1,0.5868,,,,,,,,0,101,101,59,1
,,,,,,,,,,,,,,,,,60fcdeff0f333add62b19471,19,2022-02-12_13h25.53.532,lexical_decision_task_DD_L6,2021.2.3,MacIntel,60.0024001,,,,,,,,,,,0.8588,0,,,,,,,,,,,,,,,,,,,,,,,,0.018072917,-0.338294271,0,0,0,,,,,,,BARREL,HB,z,y,./images/BARRELHB.png,,,,,,,,,,,,,,,,,,,,,m,0,0.8588,,,,,,,,0,102,102,116,1
,,,,,,,,,,,,,,,,,60fcdeff0f333add62b19471,19,2022-02-12_13h25.53.532,lexical_decision_task_DD_L6,2021.2.3,MacIntel,60.0024001,,,,,,,,,,,0.6325,1,,,,,,,,,,,,,,,,,,,,,,,,0.018072917,-0.338294271,0,0,0,,,,,,,SWEAT,LB,z,y,./images/SWEATLB.png,,,,,,,,,,,,,,,,,,,,,z,1,0.6325,,,,,,,,0,103,103,150,1
,,,,,,,,,,,,,,,,,60fcdeff0f333add62b19471,19,2022-02-12_13h25.53.532,lexical_decision_task_DD_L6,2021.2.3,MacIntel,60.0024001,,,,,,,,,,,0.8268,1,,,,,,,,,,,,,,,,,,,,,,,,0.018072917,-0.338294271,0,0,0,,,,,,,INFANT,C,z,y,./images/INFANT.png,,,,,,,,,,,,,,,,,,,,,z,1,0.8268,,,,,,,,0,104,104,160,1
,,,,,,,,,,,,,,,,,60fcdeff0f333add62b19471,19,2022-02-12_13h25.53.532,lexical_decision_task_DD_L6,2021.2.3,MacIntel,60.0024001,,,,,,,,,,,0.6181,0,,,,,,,,,,,,,,,,,,,,,,,,0.018072917,-0.338294271,0,0,0,,,,,,,MIRROR,LB,z,y,./images/MIRRORLB.png,,,,,,,,,,,,,,,,,,,,,m,0,0.6181,,,,,,,,0,105,105,147,1
,,,,,,,,,,,,,,,,,60fcdeff0f333add62b19471,19,2022-02-12_13h25.53.532,lexical_decision_task_DD_L6,2021.2.3,MacIntel,60.0024001,,,,,,,,,,,0.6874,1,,,,,,,,,,,,,,,,,,,,,,,,0.018072917,-0.338294271,0,0,0,,,,,,,BONNET,HB,z,y,./images/BONNETHB.png,,,,,,,,,,,,,,,,,,,,,z,1,0.6874,,,,,,,,0,106,106,95,1
,,,,,,,,,,,,,,,,,60fcdeff0f333add62b19471,19,2022-02-12_13h25.53.532,lexical_decision_task_DD_L6,2021.2.3,MacIntel,60.0024001,,,,,,,,,,,0.8157,1,,,,,,,,,,,,,,,,,,,,,,,,0.018072917,-0.338294271,0,0,0,,,,,,,DIVER,LB,m,y,./images/DIVERLB.png,,,,,,,,,,,,,,,,,,,,,m,1,0.8157,,,,,,,,0,107,107,9,1
,,,,,,,,,,,,,,,,,60fcdeff0f333add62b19471,19,2022-02-12_13h25.53.532,lexical_decision_task_DD_L6,2021.2.3,MacIntel,60.0024001,,,,,,,,,,,0.621,1,,,,,,,,,,,,,,,,,,,,,,,,0.018072917,-0.338294271,0,0,0,,,,,,,QUILL,C,z,y,./images/QUILL.png,,,,,,,,,,,,,,,,,,,,,z,1,0.621,,,,,,,,0,108,108,115,1
,,,,,,,,,,,,,,,,,60fcdeff0f333add62b19471,19,2022-02-12_13h25.53.532,lexical_decision_task_DD_L6,2021.2.3,MacIntel,60.0024001,,,,,,,,,,,0.849,1,,,,,,,,,,,,,,,,,,,,,,,,0.018072917,-0.338294271,0,0,0,,,,,,,PACKET,HB,z,y,./images/PACKETHB.png,,,,,,,,,,,,,,,,,,,,,z,1,0.849,,,,,,,,0,109,109,140,1
,,,,,,,,,,,,,,,,,60fcdeff0f333add62b19471,19,2022-02-12_13h25.53.532,lexical_decision_task_DD_L6,2021.2.3,MacIntel,60.0024001,,,,,,,,,,,0.7826,1,,,,,,,,,,,,,,,,,,,,,,,,0.018072917,-0.338294271,0,0,0,,,,,,,PAINT,C,z,y,./images/PAINT.png,,,,,,,,,,,,,,,,,,,,,z,1,0.7826,,,,,,,,0,110,110,91,1
,,,,,,,,,,,,,,,,,60fcdeff0f333add62b19471,19,2022-02-12_13h25.53.532,lexical_decision_task_DD_L6,2021.2.3,MacIntel,60.0024001,,,,,,,,,,,0.6875,0,,,,,,,,,,,,,,,,,,,,,,,,0.018072917,-0.338294271,0,0,0,,,,,,,SWING,C,z,y,./images/SWING.png,,,,,,,,,,,,,,,,,,,,,m,0,0.6875,,,,,,,,0,111,111,124,1
,,,,,,,,,,,,,,,,,60fcdeff0f333add62b19471,19,2022-02-12_13h25.53.532,lexical_decision_task_DD_L6,2021.2.3,MacIntel,60.0024001,,,,,,,,,,,0.7758,1,,,,,,,,,,,,,,,,,,,,,,,,0.018072917,-0.338294271,0,0,0,,,,,,,SPORT,LB,z,y,./images/SPORTLB.png,,,,,,,,,,,,,,,,,,,,,z,1,0.7758,,,,,,,,0,112,112,132,1
,,,,,,,,,,,,,,,,,60fcdeff0f333add62b19471,19,2022-02-12_13h25.53.532,lexical_decision_task_DD_L6,2021.2.3,MacIntel,60.0024001,,,,,,,,,,,0.8167,1,,,,,,,,,,,,,,,,,,,,,,,,0.018072917,-0.338294271,0,0,0,,,,,,,STORM,LB,z,y,./images/STORMLB.png,,,,,,,,,,,,,,,,,,,,,z,1,0.8167,,,,,,,,0,113,113,114,1
,,,,,,,,,,,,,,,,,60fcdeff0f333add62b19471,19,2022-02-12_13h25.53.532,lexical_decision_task_DD_L6,2021.2.3,MacIntel,60.0024001,,,,,,,,,,,0.6954,1,,,,,,,,,,,,,,,,,,,,,,,,0.018072917,-0.338294271,0,0,0,,,,,,,SLOPE,LB,m,y,./images/SLOPELB.png,,,,,,,,,,,,,,,,,,,,,m,1,0.6954,,,,,,,,0,114,114,30,1
,,,,,,,,,,,,,,,,,60fcdeff0f333add62b19471,19,2022-02-12_13h25.53.532,lexical_decision_task_DD_L6,2021.2.3,MacIntel,60.0024001,,,,,,,,,,,0.6327,1,,,,,,,,,,,,,,,,,,,,,,,,0.018072917,-0.338294271,0,0,0,,,,,,,WALRUS,HB,z,y,./images/WALRUSHB.png,,,,,,,,,,,,,,,,,,,,,z,1,0.6327,,,,,,,,0,115,115,107,1
,,,,,,,,,,,,,,,,,60fcdeff0f333add62b19471,19,2022-02-12_13h25.53.532,lexical_decision_task_DD_L6,2021.2.3,MacIntel,60.0024001,,,,,,,,,,,0.6279,1,,,,,,,,,,,,,,,,,,,,,,,,0.018072917,-0.338294271,0,0,0,,,,,,,CRATER,LB,m,y,./images/CRATERLB.png,,,,,,,,,,,,,,,,,,,,,m,1,0.6279,,,,,,,,0,116,116,3,1
,,,,,,,,,,,,,,,,,60fcdeff0f333add62b19471,19,2022-02-12_13h25.53.532,lexical_decision_task_DD_L6,2021.2.3,MacIntel,60.0024001,,,,,,,,,,,0.7368,1,,,,,,,,,,,,,,,,,,,,,,,,0.018072917,-0.338294271,0,0,0,,,,,,,ALLEY,C,m,y,./images/ALLEY.png,,,,,,,,,,,,,,,,,,,,,m,1,0.7368,,,,,,,,0,117,117,55,1
,,,,,,,,,,,,,,,,,60fcdeff0f333add62b19471,19,2022-02-12_13h25.53.532,lexical_decision_task_DD_L6,2021.2.3,MacIntel,60.0024001,,,,,,,,,,,1.667,0,,,,,,,,,,,,,,,,,,,,,,,,0.018072917,-0.338294271,0,0,0,,,,,,,CEMENT,HB,z,y,./images/CEMENTHB.png,,,,,,,,,,,,,,,,,,,,,m,0,1.667,,,,,,,,0,118,118,158,1
,,,,,,,,,,,,,,,,,60fcdeff0f333add62b19471,19,2022-02-12_13h25.53.532,lexical_decision_task_DD_L6,2021.2.3,MacIntel,60.0024001,,,,,,,,,,,0.8698,1,,,,,,,,,,,,,,,,,,,,,,,,0.018072917,-0.338294271,0,0,0,,,,,,,CARPET,HB,z,y,./images/CARPETHB.png,,,,,,,,,,,,,,,,,,,,,z,1,0.8698,,,,,,,,0,119,119,137,1
,,,,,,,,,,,,,,,,,60fcdeff0f333add62b19471,19,2022-02-12_13h25.53.532,lexical_decision_task_DD_L6,2021.2.3,MacIntel,60.0024001,,,,,,,,,,,1.2823,0,,,,,,,,,,,,,,,,,,,,,,,,0.018072917,-0.338294271,0,0,0,,,,,,,CRUMB,HB,z,y,./images/CRUMBHB.png,,,,,,,,,,,,,,,,,,,,,m,0,1.2823,,,,,,,,0,120,120,113,1
,,,,,,,,,,,,,,,,,60fcdeff0f333add62b19471,19,2022-02-12_13h25.53.532,lexical_decision_task_DD_L6,2021.2.3,MacIntel,60.0024001,,,,,,,,,,,0.7472,1,,,,,,,,,,,,,,,,,,,,,,,,0.018072917,-0.338294271,0,0,0,,,,,,,GREASE,LB,z,y,./images/GREASELB.png,,,,,,,,,,,,,,,,,,,,,z,1,0.7472,,,,,,,,0,121,121,99,1
,,,,,,,,,,,,,,,,,60fcdeff0f333add62b19471,19,2022-02-12_13h25.53.532,lexical_decision_task_DD_L6,2021.2.3,MacIntel,60.0024001,,,,,,,,,,,0.7842,1,,,,,,,,,,,,,,,,,,,,,,,,0.018072917,-0.338294271,0,0,0,,,,,,,LITTER,LB,z,y,./images/LITTERLB.png,,,,,,,,,,,,,,,,,,,,,z,1,0.7842,,,,,,,,0,122,122,162,1
,,,,,,,,,,,,,,,,,60fcdeff0f333add62b19471,19,2022-02-12_13h25.53.532,lexical_decision_task_DD_L6,2021.2.3,MacIntel,60.0024001,,,,,,,,,,,0.6322,1,,,,,,,,,,,,,,,,,,,,,,,,0.018072917,-0.338294271,0,0,0,,,,,,,JAGUAR,LB,z,y,./images/JAGUARLB.png,,,,,,,,,,,,,,,,,,,,,z,1,0.6322,,,,,,,,0,123,123,102,1
,,,,,,,,,,,,,,,,,60fcdeff0f333add62b19471,19,2022-02-12_13h25.53.532,lexical_decision_task_DD_L6,2021.2.3,MacIntel,60.0024001,,,,,,,,,,,0.6829,1,,,,,,,,,,,,,,,,,,,,,,,,0.018072917,-0.338294271,0,0,0,,,,,,,BELLY,C,z,y,./images/BELLY.png,,,,,,,,,,,,,,,,,,,,,z,1,0.6829,,,,,,,,0,124,124,94,1
,,,,,,,,,,,,,,,,,60fcdeff0f333add62b19471,19,2022-02-12_13h25.53.532,lexical_decision_task_DD_L6,2021.2.3,MacIntel,60.0024001,,,,,,,,,,,1.661,0,,,,,,,,,,,,,,,,,,,,,,,,0.018072917,-0.338294271,0,0,0,space,,,,,,TORCH,HB,z,y,./images/TORCHHB.png,0.9962,,,,,,,,,,,,,,,,,,,,m,0,1.661,,,,,,,,0,125,125,152,1
,,,,,,,,,,,,,,,,,60fcdeff0f333add62b19471,19,2022-02-12_13h25.53.532,lexical_decision_task_DD_L6,2021.2.3,MacIntel,60.0024001,,,,,,,,,,,0.6881,1,,,,,,,,,,,,,,,,,,,,,,,,0.018072917,-0.338294271,0,0,0,,,,,,,COOKER,LB,z,y,./images/COOKERLB.png,,,,,,,,,,,,,,,,,,,,,z,1,0.6881,,,,,,,,0,126,126,153,1
,,,,,,,,,,,,,,,,,60fcdeff0f333add62b19471,19,2022-02-12_13h25.53.532,lexical_decision_task_DD_L6,2021.2.3,MacIntel,60.0024001,,,,,,,,,,,0.7726,1,,,,,,,,,,,,,,,,,,,,,,,,0.018072917,-0.338294271,0,0,0,,,,,,,SMOKER,HB,z,y,./images/SMOKERHB.png,,,,,,,,,,,,,,,,,,,,,z,1,0.7726,,,,,,,,0,127,127,110,1
,,,,,,,,,,,,,,,,,60fcdeff0f333add62b19471,19,2022-02-12_13h25.53.532,lexical_decision_task_DD_L6,2021.2.3,MacIntel,60.0024001,,,,,,,,,,,0.6172,1,,,,,,,,,,,,,,,,,,,,,,,,0.018072917,-0.338294271,0,0,0,,,,,,,RULER,C,m,y,./images/RULER.png,,,,,,,,,,,,,,,,,,,,,m,1,0.6172,,,,,,,,0,128,128,79,1
,,,,,,,,,,,,,,,,,60fcdeff0f333add62b19471,19,2022-02-12_13h25.53.532,lexical_decision_task_DD_L6,2021.2.3,MacIntel,60.0024001,,,,,,,,,,,0.832,1,,,,,,,,,,,,,,,,,,,,,,,,0.018072917,-0.338294271,0,0,0,,,,,,,SAUNA,LB,m,y,./images/SAUNALB.png,,,,,,,,,,,,,,,,,,,,,m,1,0.832,,,,,,,,0,129,129,33,1
,,,,,,,,,,,,,,,,,60fcdeff0f333add62b19471,19,2022-02-12_13h25.53.532,lexical_decision_task_DD_L6,2021.2.3,MacIntel,60.0024001,,,,,,,,,,,0.7893,1,,,,,,,,,,,,,,,,,,,,,,,,0.018072917,-0.338294271,0,0,0,,,,,,,MAGGOT,LB,z,y,./images/MAGGOTLB.png,,,,,,,,,,,,,,,,,,,,,z,1,0.7893,,,,,,,,0,130,130,117,1
