key_resp.keys,key_resp.rt,instr_done_touch.x,instr_done_touch.y,instr_done_touch.leftButton,instr_done_touch.midButton,instr_done_touch.rightButton,instruction_pages.thisRepN,instruction_pages.thisTrialN,instruction_pages.thisN,instruction_pages.thisIndex,instruction_pages.ran,pageN,phase,instruct_text,has_image,instruct_image,participant,age,date,expName,psychopyVersion,OS,frameRate,response.keys,response.corr,response.rt,touch_resp.x,touch_resp.y,touch_resp.leftButton,touch_resp.midButton,touch_resp.rightButton,touch_resp.time,touch_resp.clicked_name,rt,corr,practrials.thisRepN,practrials.thisTrialN,practrials.thisN,practrials.thisIndex,practrials.ran,TrialID,Target,corrAns,end_of_practice_trials_pages.thisRepN,end_of_practice_trials_pages.thisTrialN,end_of_practice_trials_pages.thisN,end_of_practice_trials_pages.thisIndex,end_of_practice_trials_pages.ran,key_resp_2.keys,key_resp_2.corr,key_resp_2.rt,targ_click.x,targ_click.y,targ_click.leftButton,targ_click.midButton,targ_click.rightButton,targ_click.time,targ_click.clicked_name,break_done_touch.x,break_done_touch.y,break_done_touch.leftButton,break_done_touch.midButton,break_done_touch.rightButton,break_done_keyboard.keys,maintrials.thisRepN,maintrials.thisTrialN,maintrials.thisN,maintrials.thisIndex,maintrials.ran,string,blur,study,lex,stim_path,break_done_touch.clicked_name,break_done_keyboard.rt,mouse_2.x,mouse_2.y,mouse_2.leftButton,mouse_2.midButton,mouse_2.rightButton,mouse_2.clicked_name,slider.response,slider.rt,trials.thisRepN,trials.thisTrialN,trials.thisN,trials.thisIndex,trials.ran,instr_done_touch.clicked_name,test_instructions.thisRepN,test_instructions.thisTrialN,test_instructions.thisN,test_instructions.thisIndex,test_instructions.ran,key_resp_3.keys,key_resp_3.corr,key_resp_3.rt,test_click.x,test_click.y,test_click.leftButton,test_click.midButton,test_click.rightButton,test_click.time,test_click.clicked_name,test_phase.thisRepN,test_phase.thisTrialN,test_phase.thisN,test_phase.thisIndex,test_phase.ran
space,32.3257,0.164157986,-0.211909722,0,0,0,0,0,0,0,1,1,instructions,"INSTRUCTIONS
At the start of each trial, look at the plus sign  (+) in the center of the screen.  This tells you that a trial is about to begin and where to look. Second, the plus sign will disappear and a string of letters will appear. Your task is to determine if the string of letters is a word or not. If the item is a word press the M key (on keyboard)  or touch the word button (phone/tablet).  If the item is not a word,  press the  Z key (on keyboard)  or touch the nonword button (on phone/tablet). 
Press the space bar or touch  continue.",0,,60fcc14129fe2cd0ac39bff1,30,2022-02-12_13h15.01.500,lexical_decision_task_DD,2021.2.3,MacIntel,59.99880002,,,,,,,,,,,,,,,,,,,,,,,,,,,,,,,,,,,,,,,,,,,,,,,,,,,,,,,,,,,,,,,,,,,,,,,,,,,,,,,,,,,,,,,
space,7.6655,0.799978299,-0.425008681,0,0,0,0,1,1,1,1,2,instructions,"If your device has a keyboard, press the 'Z' key for nonwords and the 'M' key for words.





Press the space bar or touch the button below to continue.",0,keyboard-example.gif,60fcc14129fe2cd0ac39bff1,30,2022-02-12_13h15.01.500,lexical_decision_task_DD,2021.2.3,MacIntel,59.99880002,,,,,,,,,,,,,,,,,,,,,,,,,,,,,,,,,,,,,,,,,,,,,,,,,,,,,,,,,,,,,,,,,,,,,,,,,,,,,,,,,,,,,,,
space,4.0381,0.799978299,-0.425008681,0,0,0,0,2,2,2,1,3,instructions,"If you are using a touchscreen only device, use the buttons on the screen. Do not use the mouse.





Press the space bar or touch the button below to continue.",0,touchscreen-example.gif,60fcc14129fe2cd0ac39bff1,30,2022-02-12_13h15.01.500,lexical_decision_task_DD,2021.2.3,MacIntel,59.99880002,,,,,,,,,,,,,,,,,,,,,,,,,,,,,,,,,,,,,,,,,,,,,,,,,,,,,,,,,,,,,,,,,,,,,,,,,,,,,,,,,,,,,,,
space,12.8713,0.799978299,-0.425008681,0,0,0,0,3,3,3,1,4,instructions,"It is very important that you respond as quickly and accurately as possible, as each letter string will only be on the screen for two seconds. If you do not respond within this time, the message 'Too slow!' will be displayed and the experiment will progress to the next letter string. The first 20 trials will be practice trials and you will receive feedback on your answers. 

Press the space bar or touch the button below to start the practice trials.",0,,60fcc14129fe2cd0ac39bff1,30,2022-02-12_13h15.01.500,lexical_decision_task_DD,2021.2.3,MacIntel,59.99880002,,,,,,,,,,,,,,,,,,,,,,,,,,,,,,,,,,,,,,,,,,,,,,,,,,,,,,,,,,,,,,,,,,,,,,,,,,,,,,,,,,,,,,,
,,,,,,,,,,,,,,,,,60fcc14129fe2cd0ac39bff1,30,2022-02-12_13h15.01.500,lexical_decision_task_DD,2021.2.3,MacIntel,59.99880002,z,1,1.8655,,,,,,,,1.8655,1,0,0,0,8,1,1001,ASLERT,z,,,,,,,,,,,,,,,,,,,,,,,,,,,,,,,,,,,,,,,,,,,,,,,,,,,,,,,,,,,,,,,,,,,
,,,,,,,,,,,,,,,,,60fcc14129fe2cd0ac39bff1,30,2022-02-12_13h15.01.500,lexical_decision_task_DD,2021.2.3,MacIntel,59.99880002,z,1,0.8231,,,,,,,,0.8231,1,0,1,1,9,1,1001,FARINY,z,,,,,,,,,,,,,,,,,,,,,,,,,,,,,,,,,,,,,,,,,,,,,,,,,,,,,,,,,,,,,,,,,,,
,,,,,,,,,,,,,,,,,60fcc14129fe2cd0ac39bff1,30,2022-02-12_13h15.01.500,lexical_decision_task_DD,2021.2.3,MacIntel,59.99880002,z,1,0.8557,,,,,,,,0.8557,1,0,2,2,13,1,1001,ROUPET,z,,,,,,,,,,,,,,,,,,,,,,,,,,,,,,,,,,,,,,,,,,,,,,,,,,,,,,,,,,,,,,,,,,,
,,,,,,,,,,,,,,,,,60fcc14129fe2cd0ac39bff1,30,2022-02-12_13h15.01.500,lexical_decision_task_DD,2021.2.3,MacIntel,59.99880002,m,1,1.1924,,,,,,,,1.1924,1,0,3,3,4,1,1001,SQUEAK,m,,,,,,,,,,,,,,,,,,,,,,,,,,,,,,,,,,,,,,,,,,,,,,,,,,,,,,,,,,,,,,,,,,,
,,,,,,,,,,,,,,,,,60fcc14129fe2cd0ac39bff1,30,2022-02-12_13h15.01.500,lexical_decision_task_DD,2021.2.3,MacIntel,59.99880002,m,0,0.9652,,,,,,,,0.9652,0,0,4,4,10,1,1001,INLADE,z,,,,,,,,,,,,,,,,,,,,,,,,,,,,,,,,,,,,,,,,,,,,,,,,,,,,,,,,,,,,,,,,,,,
,,,,,,,,,,,,,,,,,60fcc14129fe2cd0ac39bff1,30,2022-02-12_13h15.01.500,lexical_decision_task_DD,2021.2.3,MacIntel,59.99880002,z,1,1.1647,,,,,,,,1.1647,1,0,5,5,14,1,1001,THRALE,z,,,,,,,,,,,,,,,,,,,,,,,,,,,,,,,,,,,,,,,,,,,,,,,,,,,,,,,,,,,,,,,,,,,
,,,,,,,,,,,,,,,,,60fcc14129fe2cd0ac39bff1,30,2022-02-12_13h15.01.500,lexical_decision_task_DD,2021.2.3,MacIntel,59.99880002,m,1,1.1471,,,,,,,,1.1471,1,0,6,6,7,1,1001,VOLUME,m,,,,,,,,,,,,,,,,,,,,,,,,,,,,,,,,,,,,,,,,,,,,,,,,,,,,,,,,,,,,,,,,,,,
,,,,,,,,,,,,,,,,,60fcc14129fe2cd0ac39bff1,30,2022-02-12_13h15.01.500,lexical_decision_task_DD,2021.2.3,MacIntel,59.99880002,m,1,1.1613,,,,,,,,1.1613,1,0,7,7,5,1,1001,OBTAIN,m,,,,,,,,,,,,,,,,,,,,,,,,,,,,,,,,,,,,,,,,,,,,,,,,,,,,,,,,,,,,,,,,,,,
,,,,,,,,,,,,,,,,,60fcc14129fe2cd0ac39bff1,30,2022-02-12_13h15.01.500,lexical_decision_task_DD,2021.2.3,MacIntel,59.99880002,m,1,1.0713,,,,,,,,1.0713,1,0,8,8,6,1,1001,ZOMBIE,m,,,,,,,,,,,,,,,,,,,,,,,,,,,,,,,,,,,,,,,,,,,,,,,,,,,,,,,,,,,,,,,,,,,
,,,,,,,,,,,,,,,,,60fcc14129fe2cd0ac39bff1,30,2022-02-12_13h15.01.500,lexical_decision_task_DD,2021.2.3,MacIntel,59.99880002,z,1,0.8796,,,,,,,,0.8796,1,0,9,9,15,1,1001,WHAISE,z,,,,,,,,,,,,,,,,,,,,,,,,,,,,,,,,,,,,,,,,,,,,,,,,,,,,,,,,,,,,,,,,,,,
,,,,,,,,,,,,,,,,,60fcc14129fe2cd0ac39bff1,30,2022-02-12_13h15.01.500,lexical_decision_task_DD,2021.2.3,MacIntel,59.99880002,m,1,1.1173,,,,,,,,1.1173,1,0,10,10,2,1,1001,ALMOND,m,,,,,,,,,,,,,,,,,,,,,,,,,,,,,,,,,,,,,,,,,,,,,,,,,,,,,,,,,,,,,,,,,,,
,,,,,,,,,,,,,,,,,60fcc14129fe2cd0ac39bff1,30,2022-02-12_13h15.01.500,lexical_decision_task_DD,2021.2.3,MacIntel,59.99880002,z,1,0.8158,,,,,,,,0.8158,1,0,11,11,11,1,1001,RASHET,z,,,,,,,,,,,,,,,,,,,,,,,,,,,,,,,,,,,,,,,,,,,,,,,,,,,,,,,,,,,,,,,,,,,
,,,,,,,,,,,,,,,,,60fcc14129fe2cd0ac39bff1,30,2022-02-12_13h15.01.500,lexical_decision_task_DD,2021.2.3,MacIntel,59.99880002,z,1,0.937,,,,,,,,0.937,1,0,12,12,12,1,1001,SPRINY,z,,,,,,,,,,,,,,,,,,,,,,,,,,,,,,,,,,,,,,,,,,,,,,,,,,,,,,,,,,,,,,,,,,,
,,,,,,,,,,,,,,,,,60fcc14129fe2cd0ac39bff1,30,2022-02-12_13h15.01.500,lexical_decision_task_DD,2021.2.3,MacIntel,59.99880002,m,1,1.2401,,,,,,,,1.2401,1,0,13,13,0,1,1001,UTOPIA,m,,,,,,,,,,,,,,,,,,,,,,,,,,,,,,,,,,,,,,,,,,,,,,,,,,,,,,,,,,,,,,,,,,,
,,,,,,,,,,,,,,,,,60fcc14129fe2cd0ac39bff1,30,2022-02-12_13h15.01.500,lexical_decision_task_DD,2021.2.3,MacIntel,59.99880002,m,1,1.0976,,,,,,,,1.0976,1,0,14,14,1,1,1001,ADJUST,m,,,,,,,,,,,,,,,,,,,,,,,,,,,,,,,,,,,,,,,,,,,,,,,,,,,,,,,,,,,,,,,,,,,
,,,,,,,,,,,,,,,,,60fcc14129fe2cd0ac39bff1,30,2022-02-12_13h15.01.500,lexical_decision_task_DD,2021.2.3,MacIntel,59.99880002,m,1,1.1436,,,,,,,,1.1436,1,0,15,15,3,1,1001,MATRIX,m,,,,,,,,,,,,,,,,,,,,,,,,,,,,,,,,,,,,,,,,,,,,,,,,,,,,,,,,,,,,,,,,,,,
space,8.1074,0.799978299,-0.425008681,0,0,0,,,,,,1,end_of_practice,"You have completed the practice trials. During the experimental trials, you will not receive feedback. 
Before you begin, please ensure that you are in a comfortable and quiet location and will not be disturbed for about 15 minutes, as we cannot use your data if you do not complete all the trials. 
 When you are ready to start the experimental trials, please press space or touch the button below.",,,60fcc14129fe2cd0ac39bff1,30,2022-02-12_13h15.01.500,lexical_decision_task_DD,2021.2.3,MacIntel,59.99880002,,,,,,,,,,,,,,,,,,,,,0,0,0,0,1,,,,,,,,,,,,,,,,,,,,,,,,,,,,,,,,,,,,,,,,,,,,,,,,,,,,,,,,,,,,,,
,,,,,,,,,,,,,,,,,60fcc14129fe2cd0ac39bff1,30,2022-02-12_13h15.01.500,lexical_decision_task_DD,2021.2.3,MacIntel,59.99880002,,,,,,,,,,,5.0413,0,,,,,,,,,,,,,,m,0,5.0413,,,,,,,,0.799978299,-0.425008681,0,0,0,,0,0,0,118,1,BAVEL,HB,old,z,./images/BAVELHB.png,,,,,,,,,,,,,,,,,,,,,,,,,,,,,,,,,,,,
,,,,,,,,,,,,,,,,,60fcc14129fe2cd0ac39bff1,30,2022-02-12_13h15.01.500,lexical_decision_task_DD,2021.2.3,MacIntel,59.99880002,,,,,,,,,,,3.963,1,,,,,,,,,,,,,,z,1,3.963,,,,,,,,0.799978299,-0.425008681,0,0,0,,0,1,1,91,1,SHENS,HB,old,z,./images/SHENSHB.png,,,,,,,,,,,,,,,,,,,,,,,,,,,,,,,,,,,,
,,,,,,,,,,,,,,,,,60fcc14129fe2cd0ac39bff1,30,2022-02-12_13h15.01.500,lexical_decision_task_DD,2021.2.3,MacIntel,59.99880002,,,,,,,,,,,2.4015,1,,,,,,,,,,,,,,m,1,2.4015,,,,,,,,0.799978299,-0.425008681,0,0,0,,0,2,2,4,1,MUSCLE,HB,old,m,./images/MUSCLEHB.png,,,,,,,,,,,,,,,,,,,,,,,,,,,,,,,,,,,,
,,,,,,,,,,,,,,,,,60fcc14129fe2cd0ac39bff1,30,2022-02-12_13h15.01.500,lexical_decision_task_DD,2021.2.3,MacIntel,59.99880002,,,,,,,,,,,1.25,1,,,,,,,,,,,,,,m,1,1.25,,,,,,,,0.799978299,-0.425008681,0,0,0,,0,3,3,10,1,BELLY,HB,old,m,./images/BELLYHB.png,,,,,,,,,,,,,,,,,,,,,,,,,,,,,,,,,,,,
,,,,,,,,,,,,,,,,,60fcc14129fe2cd0ac39bff1,30,2022-02-12_13h15.01.500,lexical_decision_task_DD,2021.2.3,MacIntel,59.99880002,,,,,,,,,,,1.0669,1,,,,,,,,,,,,,,m,1,1.0669,,,,,,,,0.799978299,-0.425008681,0,0,0,,0,4,4,17,1,SKIING,LB,old,m,./images/SKIINGLB.png,,,,,,,,,,,,,,,,,,,,,,,,,,,,,,,,,,,,
,,,,,,,,,,,,,,,,,60fcc14129fe2cd0ac39bff1,30,2022-02-12_13h15.01.500,lexical_decision_task_DD,2021.2.3,MacIntel,59.99880002,,,,,,,,,,,1.053,1,,,,,,,,,,,,,,m,1,1.053,,,,,,,,0.799978299,-0.425008681,0,0,0,,0,5,5,45,1,KITTEN,C,old,m,./images/KITTEN.png,,,,,,,,,,,,,,,,,,,,,,,,,,,,,,,,,,,,
,,,,,,,,,,,,,,,,,60fcc14129fe2cd0ac39bff1,30,2022-02-12_13h15.01.500,lexical_decision_task_DD,2021.2.3,MacIntel,59.99880002,,,,,,,,,,,1.6038,1,,,,,,,,,,,,,,m,1,1.6038,,,,,,,,0.799978299,-0.425008681,0,0,0,,0,6,6,34,1,CANYON,HB,old,m,./images/CANYONHB.png,,,,,,,,,,,,,,,,,,,,,,,,,,,,,,,,,,,,
,,,,,,,,,,,,,,,,,60fcc14129fe2cd0ac39bff1,30,2022-02-12_13h15.01.500,lexical_decision_task_DD,2021.2.3,MacIntel,59.99880002,,,,,,,,,,,1.2427,1,,,,,,,,,,,,,,z,1,1.2427,,,,,,,,0.799978299,-0.425008681,0,0,0,,0,7,7,162,1,LEICH,C,old,z,./images/LEICH.png,,,,,,,,,,,,,,,,,,,,,,,,,,,,,,,,,,,,
,,,,,,,,,,,,,,,,,60fcc14129fe2cd0ac39bff1,30,2022-02-12_13h15.01.500,lexical_decision_task_DD,2021.2.3,MacIntel,59.99880002,,,,,,,,,,,0.8157,1,,,,,,,,,,,,,,z,1,0.8157,,,,,,,,0.799978299,-0.425008681,0,0,0,,0,8,8,126,1,GUELS,C,old,z,./images/GUELS.png,,,,,,,,,,,,,,,,,,,,,,,,,,,,,,,,,,,,
,,,,,,,,,,,,,,,,,60fcc14129fe2cd0ac39bff1,30,2022-02-12_13h15.01.500,lexical_decision_task_DD,2021.2.3,MacIntel,59.99880002,,,,,,,,,,,3.7979,1,,,,,,,,,,,,,,m,1,3.7979,,,,,,,,0.799978299,-0.425008681,0,0,0,,0,9,9,61,1,CANDLE,HB,old,m,./images/CANDLEHB.png,,,,,,,,,,,,,,,,,,,,,,,,,,,,,,,,,,,,
,,,,,,,,,,,,,,,,,60fcc14129fe2cd0ac39bff1,30,2022-02-12_13h15.01.500,lexical_decision_task_DD,2021.2.3,MacIntel,59.99880002,,,,,,,,,,,2.2061,1,,,,,,,,,,,,,,z,1,2.2061,,,,,,,,0.799978299,-0.425008681,0,0,0,,0,10,10,151,1,TINKY,HB,old,z,./images/TINKYHB.png,,,,,,,,,,,,,,,,,,,,,,,,,,,,,,,,,,,,
,,,,,,,,,,,,,,,,,60fcc14129fe2cd0ac39bff1,30,2022-02-12_13h15.01.500,lexical_decision_task_DD,2021.2.3,MacIntel,59.99880002,,,,,,,,,,,1.1065,1,,,,,,,,,,,,,,m,1,1.1065,,,,,,,,0.799978299,-0.425008681,0,0,0,,0,11,11,6,1,SQUARE,C,old,m,./images/SQUARE.png,,,,,,,,,,,,,,,,,,,,,,,,,,,,,,,,,,,,
,,,,,,,,,,,,,,,,,60fcc14129fe2cd0ac39bff1,30,2022-02-12_13h15.01.500,lexical_decision_task_DD,2021.2.3,MacIntel,59.99880002,,,,,,,,,,,1.1064,1,,,,,,,,,,,,,,z,1,1.1064,,,,,,,,0.799978299,-0.425008681,0,0,0,,0,12,12,144,1,NAIRY,C,old,z,./images/NAIRY.png,,,,,,,,,,,,,,,,,,,,,,,,,,,,,,,,,,,,
,,,,,,,,,,,,,,,,,60fcc14129fe2cd0ac39bff1,30,2022-02-12_13h15.01.500,lexical_decision_task_DD,2021.2.3,MacIntel,59.99880002,,,,,,,,,,,1.3326,1,,,,,,,,,,,,,,z,1,1.3326,,,,,,,,0.799978299,-0.425008681,0,0,0,,0,13,13,160,1,VEETS,HB,old,z,./images/VEETSHB.png,,,,,,,,,,,,,,,,,,,,,,,,,,,,,,,,,,,,
,,,,,,,,,,,,,,,,,60fcc14129fe2cd0ac39bff1,30,2022-02-12_13h15.01.500,lexical_decision_task_DD,2021.2.3,MacIntel,59.99880002,,,,,,,,,,,2.8659,1,,,,,,,,,,,,,,z,1,2.8659,,,,,,,,0.799978299,-0.425008681,0,0,0,,0,14,14,109,1,BURGE,HB,old,z,./images/BURGEHB.png,,,,,,,,,,,,,,,,,,,,,,,,,,,,,,,,,,,,
,,,,,,,,,,,,,,,,,60fcc14129fe2cd0ac39bff1,30,2022-02-12_13h15.01.500,lexical_decision_task_DD,2021.2.3,MacIntel,59.99880002,,,,,,,,,,,1.3215,1,,,,,,,,,,,,,,m,1,1.3215,,,,,,,,0.799978299,-0.425008681,0,0,0,,0,15,15,50,1,MALLET,LB,old,m,./images/MALLETLB.png,,,,,,,,,,,,,,,,,,,,,,,,,,,,,,,,,,,,
,,,,,,,,,,,,,,,,,60fcc14129fe2cd0ac39bff1,30,2022-02-12_13h15.01.500,lexical_decision_task_DD,2021.2.3,MacIntel,59.99880002,,,,,,,,,,,1.8145,1,,,,,,,,,,,,,,z,1,1.8145,,,,,,,,0.799978299,-0.425008681,0,0,0,,0,16,16,106,1,CLUMS,HB,old,z,./images/CLUMSHB.png,,,,,,,,,,,,,,,,,,,,,,,,,,,,,,,,,,,,
,,,,,,,,,,,,,,,,,60fcc14129fe2cd0ac39bff1,30,2022-02-12_13h15.01.500,lexical_decision_task_DD,2021.2.3,MacIntel,59.99880002,,,,,,,,,,,1.0059,1,,,,,,,,,,,,,,m,1,1.0059,,,,,,,,0.799978299,-0.425008681,0,0,0,,0,17,17,63,1,MIRROR,C,old,m,./images/MIRROR.png,,,,,,,,,,,,,,,,,,,,,,,,,,,,,,,,,,,,
,,,,,,,,,,,,,,,,,60fcc14129fe2cd0ac39bff1,30,2022-02-12_13h15.01.500,lexical_decision_task_DD,2021.2.3,MacIntel,59.99880002,,,,,,,,,,,1.0711,1,,,,,,,,,,,,,,z,1,1.0711,,,,,,,,0.799978299,-0.425008681,0,0,0,,0,18,18,147,1,ZOLES,C,old,z,./images/ZOLES.png,,,,,,,,,,,,,,,,,,,,,,,,,,,,,,,,,,,,
,,,,,,,,,,,,,,,,,60fcc14129fe2cd0ac39bff1,30,2022-02-12_13h15.01.500,lexical_decision_task_DD,2021.2.3,MacIntel,59.99880002,,,,,,,,,,,1.2549,1,,,,,,,,,,,,,,z,1,1.2549,,,,,,,,0.799978299,-0.425008681,0,0,0,,0,19,19,145,1,LAMEL,HB,old,z,./images/LAMELHB.png,,,,,,,,,,,,,,,,,,,,,,,,,,,,,,,,,,,,
,,,,,,,,,,,,,,,,,60fcc14129fe2cd0ac39bff1,30,2022-02-12_13h15.01.500,lexical_decision_task_DD,2021.2.3,MacIntel,59.99880002,,,,,,,,,,,1.2331,1,,,,,,,,,,,,,,m,1,1.2331,,,,,,,,0.799978299,-0.425008681,0,0,0,,0,20,20,22,1,MELON,HB,old,m,./images/MELONHB.png,,,,,,,,,,,,,,,,,,,,,,,,,,,,,,,,,,,,
,,,,,,,,,,,,,,,,,60fcc14129fe2cd0ac39bff1,30,2022-02-12_13h15.01.500,lexical_decision_task_DD,2021.2.3,MacIntel,59.99880002,,,,,,,,,,,0.7601,1,,,,,,,,,,,,,,m,1,0.7601,,,,,,,,0.799978299,-0.425008681,0,0,0,,0,21,21,12,1,SHORE,C,old,m,./images/SHORE.png,,,,,,,,,,,,,,,,,,,,,,,,,,,,,,,,,,,,
,,,,,,,,,,,,,,,,,60fcc14129fe2cd0ac39bff1,30,2022-02-12_13h15.01.500,lexical_decision_task_DD,2021.2.3,MacIntel,59.99880002,,,,,,,,,,,0.6585,1,,,,,,,,,,,,,,m,1,0.6585,,,,,,,,0.799978299,-0.425008681,0,0,0,,0,22,22,51,1,ONION,C,old,m,./images/ONION.png,,,,,,,,,,,,,,,,,,,,,,,,,,,,,,,,,,,,
,,,,,,,,,,,,,,,,,60fcc14129fe2cd0ac39bff1,30,2022-02-12_13h15.01.500,lexical_decision_task_DD,2021.2.3,MacIntel,59.99880002,,,,,,,,,,,1.0533,1,,,,,,,,,,,,,,z,1,1.0533,,,,,,,,0.799978299,-0.425008681,0,0,0,,0,23,23,138,1,PLICE,C,old,z,./images/PLICE.png,,,,,,,,,,,,,,,,,,,,,,,,,,,,,,,,,,,,
,,,,,,,,,,,,,,,,,60fcc14129fe2cd0ac39bff1,30,2022-02-12_13h15.01.500,lexical_decision_task_DD,2021.2.3,MacIntel,59.99880002,,,,,,,,,,,0.9179,1,,,,,,,,,,,,,,z,1,0.9179,,,,,,,,0.799978299,-0.425008681,0,0,0,,0,24,24,104,1,GITTY,LB,old,z,./images/GITTYLB.png,,,,,,,,,,,,,,,,,,,,,,,,,,,,,,,,,,,,
,,,,,,,,,,,,,,,,,60fcc14129fe2cd0ac39bff1,30,2022-02-12_13h15.01.500,lexical_decision_task_DD,2021.2.3,MacIntel,59.99880002,,,,,,,,,,,1.1234,1,,,,,,,,,,,,,,z,1,1.1234,,,,,,,,0.799978299,-0.425008681,0,0,0,,0,25,25,87,1,TRING,C,old,z,./images/TRING.png,,,,,,,,,,,,,,,,,,,,,,,,,,,,,,,,,,,,
,,,,,,,,,,,,,,,,,60fcc14129fe2cd0ac39bff1,30,2022-02-12_13h15.01.500,lexical_decision_task_DD,2021.2.3,MacIntel,59.99880002,,,,,,,,,,,1.262,1,,,,,,,,,,,,,,m,1,1.262,,,,,,,,0.799978299,-0.425008681,0,0,0,,0,26,26,64,1,JELLY,HB,old,m,./images/JELLYHB.png,,,,,,,,,,,,,,,,,,,,,,,,,,,,,,,,,,,,
,,,,,,,,,,,,,,,,,60fcc14129fe2cd0ac39bff1,30,2022-02-12_13h15.01.500,lexical_decision_task_DD,2021.2.3,MacIntel,59.99880002,,,,,,,,,,,1.1839,1,,,,,,,,,,,,,,m,1,1.1839,,,,,,,,0.799978299,-0.425008681,0,0,0,,0,27,27,79,1,CRUST,HB,old,m,./images/CRUSTHB.png,,,,,,,,,,,,,,,,,,,,,,,,,,,,,,,,,,,,
,,,,,,,,,,,,,,,,,60fcc14129fe2cd0ac39bff1,30,2022-02-12_13h15.01.500,lexical_decision_task_DD,2021.2.3,MacIntel,59.99880002,,,,,,,,,,,1.2784,0,,,,,,,,,,,,,,z,0,1.2784,,,,,,,,0.799978299,-0.425008681,0,0,0,,0,28,28,25,1,WRIST,HB,old,m,./images/WRISTHB.png,,,,,,,,,,,,,,,,,,,,,,,,,,,,,,,,,,,,
,,,,,,,,,,,,,,,,,60fcc14129fe2cd0ac39bff1,30,2022-02-12_13h15.01.500,lexical_decision_task_DD,2021.2.3,MacIntel,59.99880002,,,,,,,,,,,0.9323,1,,,,,,,,,,,,,,m,1,0.9323,,,,,,,,0.799978299,-0.425008681,0,0,0,,0,29,29,77,1,COUCH,LB,old,m,./images/COUCHLB.png,,,,,,,,,,,,,,,,,,,,,,,,,,,,,,,,,,,,
,,,,,,,,,,,,,,,,,60fcc14129fe2cd0ac39bff1,30,2022-02-12_13h15.01.500,lexical_decision_task_DD,2021.2.3,MacIntel,59.99880002,,,,,,,,,,,0.7128,1,,,,,,,,,,,,,,m,1,0.7128,,,,,,,,0.799978299,-0.425008681,0,0,0,,0,30,30,65,1,FARMER,LB,old,m,./images/FARMERLB.png,,,,,,,,,,,,,,,,,,,,,,,,,,,,,,,,,,,,
,,,,,,,,,,,,,,,,,60fcc14129fe2cd0ac39bff1,30,2022-02-12_13h15.01.500,lexical_decision_task_DD,2021.2.3,MacIntel,59.99880002,,,,,,,,,,,0.5706,1,,,,,,,,,,,,,,m,1,0.5706,,,,,,,,0.799978299,-0.425008681,0,0,0,,0,31,31,75,1,GRAIN,C,old,m,./images/GRAIN.png,,,,,,,,,,,,,,,,,,,,,,,,,,,,,,,,,,,,
,,,,,,,,,,,,,,,,,60fcc14129fe2cd0ac39bff1,30,2022-02-12_13h15.01.500,lexical_decision_task_DD,2021.2.3,MacIntel,59.99880002,,,,,,,,,,,0.5989,1,,,,,,,,,,,,,,m,1,0.5989,,,,,,,,0.799978299,-0.425008681,0,0,0,,0,32,32,26,1,SMOKER,LB,old,m,./images/SMOKERLB.png,,,,,,,,,,,,,,,,,,,,,,,,,,,,,,,,,,,,
,,,,,,,,,,,,,,,,,60fcc14129fe2cd0ac39bff1,30,2022-02-12_13h15.01.500,lexical_decision_task_DD,2021.2.3,MacIntel,59.99880002,,,,,,,,,,,1.0127,1,,,,,,,,,,,,,,z,1,1.0127,,,,,,,,0.799978299,-0.425008681,0,0,0,,0,33,33,108,1,GRUET,C,old,z,./images/GRUET.png,,,,,,,,,,,,,,,,,,,,,,,,,,,,,,,,,,,,
,,,,,,,,,,,,,,,,,60fcc14129fe2cd0ac39bff1,30,2022-02-12_13h15.01.500,lexical_decision_task_DD,2021.2.3,MacIntel,59.99880002,,,,,,,,,,,1.0876,1,,,,,,,,,,,,,,m,1,1.0876,,,,,,,,0.799978299,-0.425008681,0,0,0,,0,34,34,49,1,DRUMS,HB,old,m,./images/DRUMSHB.png,,,,,,,,,,,,,,,,,,,,,,,,,,,,,,,,,,,,
,,,,,,,,,,,,,,,,,60fcc14129fe2cd0ac39bff1,30,2022-02-12_13h15.01.500,lexical_decision_task_DD,2021.2.3,MacIntel,59.99880002,,,,,,,,,,,1.085,1,,,,,,,,,,,,,,z,1,1.085,,,,,,,,0.799978299,-0.425008681,0,0,0,,0,35,35,99,1,BACKY,C,old,z,./images/BACKY.png,,,,,,,,,,,,,,,,,,,,,,,,,,,,,,,,,,,,
,,,,,,,,,,,,,,,,,60fcc14129fe2cd0ac39bff1,30,2022-02-12_13h15.01.500,lexical_decision_task_DD,2021.2.3,MacIntel,59.99880002,,,,,,,,,,,1.035,1,,,,,,,,,,,,,,z,1,1.035,,,,,,,,0.799978299,-0.425008681,0,0,0,,0,36,36,114,1,RIKES,C,old,z,./images/RIKES.png,,,,,,,,,,,,,,,,,,,,,,,,,,,,,,,,,,,,
,,,,,,,,,,,,,,,,,60fcc14129fe2cd0ac39bff1,30,2022-02-12_13h15.01.500,lexical_decision_task_DD,2021.2.3,MacIntel,59.99880002,,,,,,,,,,,0.7986,1,,,,,,,,,,,,,,z,1,0.7986,,,,,,,,0.799978299,-0.425008681,0,0,0,,0,37,37,124,1,TUNCH,HB,old,z,./images/TUNCHHB.png,,,,,,,,,,,,,,,,,,,,,,,,,,,,,,,,,,,,
,,,,,,,,,,,,,,,,,60fcc14129fe2cd0ac39bff1,30,2022-02-12_13h15.01.500,lexical_decision_task_DD,2021.2.3,MacIntel,59.99880002,,,,,,,,,,,0.9343,1,,,,,,,,,,,,,,m,1,0.9343,,,,,,,,0.799978299,-0.425008681,0,0,0,,0,38,38,41,1,STRING,LB,old,m,./images/STRINGLB.png,,,,,,,,,,,,,,,,,,,,,,,,,,,,,,,,,,,,
,,,,,,,,,,,,,,,,,60fcc14129fe2cd0ac39bff1,30,2022-02-12_13h15.01.500,lexical_decision_task_DD,2021.2.3,MacIntel,59.99880002,,,,,,,,,,,0.6212,1,,,,,,,,,,,,,,m,1,0.6212,,,,,,,,0.799978299,-0.425008681,0,0,0,,0,39,39,27,1,ATTIC,C,old,m,./images/ATTIC.png,,,,,,,,,,,,,,,,,,,,,,,,,,,,,,,,,,,,
,,,,,,,,,,,,,,,,,60fcc14129fe2cd0ac39bff1,30,2022-02-12_13h15.01.500,lexical_decision_task_DD,2021.2.3,MacIntel,59.99880002,,,,,,,,,,,1.0459,1,,,,,,,,,,,,,,z,1,1.0459,,,,,,,,0.799978299,-0.425008681,0,0,0,,0,40,40,110,1,CRUNK,LB,old,z,./images/CRUNKLB.png,,,,,,,,,,,,,,,,,,,,,,,,,,,,,,,,,,,,
,,,,,,,,,,,,,,,,,60fcc14129fe2cd0ac39bff1,30,2022-02-12_13h15.01.500,lexical_decision_task_DD,2021.2.3,MacIntel,59.99880002,,,,,,,,,,,1.2818,1,,,,,,,,,,,,,,m,1,1.2818,,,,,,,,-0.059648437,-0.405894097,1,0,0,,0,41,41,72,1,NOOSE,C,old,m,./images/NOOSE.png,break_done_button,,,,,,,,,,,,,,,,,,,,,,,,,,,,,,,,,,,
,,,,,,,,,,,,,,,,,60fcc14129fe2cd0ac39bff1,30,2022-02-12_13h15.01.500,lexical_decision_task_DD,2021.2.3,MacIntel,59.99880002,,,,,,,,,,,1.5978,1,,,,,,,,,,,,,,z,1,1.5978,,,,,,,,-0.059648437,-0.405894097,0,0,0,,0,42,42,98,1,BAMPS,LB,old,z,./images/BAMPSLB.png,,,,,,,,,,,,,,,,,,,,,,,,,,,,,,,,,,,,
,,,,,,,,,,,,,,,,,60fcc14129fe2cd0ac39bff1,30,2022-02-12_13h15.01.500,lexical_decision_task_DD,2021.2.3,MacIntel,59.99880002,,,,,,,,,,,0.7684,1,,,,,,,,,,,,,,m,1,0.7684,,,,,,,,-0.059648437,-0.405894097,0,0,0,,0,43,43,56,1,PACKET,LB,old,m,./images/PACKETLB.png,,,,,,,,,,,,,,,,,,,,,,,,,,,,,,,,,,,,
,,,,,,,,,,,,,,,,,60fcc14129fe2cd0ac39bff1,30,2022-02-12_13h15.01.500,lexical_decision_task_DD,2021.2.3,MacIntel,59.99880002,,,,,,,,,,,0.6909,1,,,,,,,,,,,,,,m,1,0.6909,,,,,,,,-0.059648437,-0.405894097,0,0,0,,0,44,44,42,1,FOLDER,C,old,m,./images/FOLDER.png,,,,,,,,,,,,,,,,,,,,,,,,,,,,,,,,,,,,
,,,,,,,,,,,,,,,,,60fcc14129fe2cd0ac39bff1,30,2022-02-12_13h15.01.500,lexical_decision_task_DD,2021.2.3,MacIntel,59.99880002,,,,,,,,,,,0.7313,1,,,,,,,,,,,,,,m,1,0.7313,,,,,,,,-0.059648437,-0.405894097,0,0,0,,0,45,45,73,1,SNACK,HB,old,m,./images/SNACKHB.png,,,,,,,,,,,,,,,,,,,,,,,,,,,,,,,,,,,,
,,,,,,,,,,,,,,,,,60fcc14129fe2cd0ac39bff1,30,2022-02-12_13h15.01.500,lexical_decision_task_DD,2021.2.3,MacIntel,59.99880002,,,,,,,,,,,0.7834,1,,,,,,,,,,,,,,z,1,0.7834,,,,,,,,-0.059648437,-0.405894097,0,0,0,,0,46,46,119,1,PAFER,LB,old,z,./images/PAFERLB.png,,,,,,,,,,,,,,,,,,,,,,,,,,,,,,,,,,,,
,,,,,,,,,,,,,,,,,60fcc14129fe2cd0ac39bff1,30,2022-02-12_13h15.01.500,lexical_decision_task_DD,2021.2.3,MacIntel,59.99880002,,,,,,,,,,,0.7058,1,,,,,,,,,,,,,,m,1,0.7058,,,,,,,,-0.059648437,-0.405894097,0,0,0,,0,47,47,32,1,BARREL,LB,old,m,./images/BARRELLB.png,,,,,,,,,,,,,,,,,,,,,,,,,,,,,,,,,,,,
,,,,,,,,,,,,,,,,,60fcc14129fe2cd0ac39bff1,30,2022-02-12_13h15.01.500,lexical_decision_task_DD,2021.2.3,MacIntel,59.99880002,,,,,,,,,,,1.5917,1,,,,,,,,,,,,,,m,1,1.5917,,,,,,,,-0.059648437,-0.405894097,0,0,0,,0,48,48,67,1,SAILOR,HB,old,m,./images/SAILORHB.png,,,,,,,,,,,,,,,,,,,,,,,,,,,,,,,,,,,,
,,,,,,,,,,,,,,,,,60fcc14129fe2cd0ac39bff1,30,2022-02-12_13h15.01.500,lexical_decision_task_DD,2021.2.3,MacIntel,59.99880002,,,,,,,,,,,0.6987,1,,,,,,,,,,,,,,z,1,0.6987,,,,,,,,-0.059648437,-0.405894097,0,0,0,,0,49,49,125,1,MOOKY,LB,old,z,./images/MOOKYLB.png,,,,,,,,,,,,,,,,,,,,,,,,,,,,,,,,,,,,
,,,,,,,,,,,,,,,,,60fcc14129fe2cd0ac39bff1,30,2022-02-12_13h15.01.500,lexical_decision_task_DD,2021.2.3,MacIntel,59.99880002,,,,,,,,,,,0.8987,1,,,,,,,,,,,,,,z,1,0.8987,,,,,,,,-0.059648437,-0.405894097,0,0,0,,0,50,50,92,1,PAIMS,LB,old,z,./images/PAIMSLB.png,,,,,,,,,,,,,,,,,,,,,,,,,,,,,,,,,,,,
,,,,,,,,,,,,,,,,,60fcc14129fe2cd0ac39bff1,30,2022-02-12_13h15.01.500,lexical_decision_task_DD,2021.2.3,MacIntel,59.99880002,,,,,,,,,,,0.8833,1,,,,,,,,,,,,,,z,1,0.8833,,,,,,,,-0.059648437,-0.405894097,0,0,0,,0,51,51,107,1,FASKS,LB,old,z,./images/FASKSLB.png,,,,,,,,,,,,,,,,,,,,,,,,,,,,,,,,,,,,
,,,,,,,,,,,,,,,,,60fcc14129fe2cd0ac39bff1,30,2022-02-12_13h15.01.500,lexical_decision_task_DD,2021.2.3,MacIntel,59.99880002,,,,,,,,,,,0.754,1,,,,,,,,,,,,,,z,1,0.754,,,,,,,,-0.059648437,-0.405894097,0,0,0,,0,52,52,146,1,MOOST,LB,old,z,./images/MOOSTLB.png,,,,,,,,,,,,,,,,,,,,,,,,,,,,,,,,,,,,
,,,,,,,,,,,,,,,,,60fcc14129fe2cd0ac39bff1,30,2022-02-12_13h15.01.500,lexical_decision_task_DD,2021.2.3,MacIntel,59.99880002,,,,,,,,,,,1.123,1,,,,,,,,,,,,,,m,1,1.123,,,,,,,,-0.059648437,-0.405894097,0,0,0,,0,53,53,74,1,CEMENT,LB,old,m,./images/CEMENTLB.png,,,,,,,,,,,,,,,,,,,,,,,,,,,,,,,,,,,,
,,,,,,,,,,,,,,,,,60fcc14129fe2cd0ac39bff1,30,2022-02-12_13h15.01.500,lexical_decision_task_DD,2021.2.3,MacIntel,59.99880002,,,,,,,,,,,0.9363,1,,,,,,,,,,,,,,z,1,0.9363,,,,,,,,-0.059648437,-0.405894097,0,0,0,,0,54,54,133,1,POWDY,HB,old,z,./images/POWDYHB.png,,,,,,,,,,,,,,,,,,,,,,,,,,,,,,,,,,,,
,,,,,,,,,,,,,,,,,60fcc14129fe2cd0ac39bff1,30,2022-02-12_13h15.01.500,lexical_decision_task_DD,2021.2.3,MacIntel,59.99880002,,,,,,,,,,,0.7265,1,,,,,,,,,,,,,,z,1,0.7265,,,,,,,,-0.059648437,-0.405894097,0,0,0,,0,55,55,153,1,CLUPS,C,old,z,./images/CLUPS.png,,,,,,,,,,,,,,,,,,,,,,,,,,,,,,,,,,,,
,,,,,,,,,,,,,,,,,60fcc14129fe2cd0ac39bff1,30,2022-02-12_13h15.01.500,lexical_decision_task_DD,2021.2.3,MacIntel,59.99880002,,,,,,,,,,,1.8613,0,,,,,,,,,,,,,,z,0,1.8613,,,,,,,,-0.059648437,-0.405894097,0,0,0,,0,56,56,16,1,PENCE,HB,old,m,./images/PENCEHB.png,,,,,,,,,,,,,,,,,,,,,,,,,,,,,,,,,,,,
,,,,,,,,,,,,,,,,,60fcc14129fe2cd0ac39bff1,30,2022-02-12_13h15.01.500,lexical_decision_task_DD,2021.2.3,MacIntel,59.99880002,,,,,,,,,,,0.768,1,,,,,,,,,,,,,,z,1,0.768,,,,,,,,-0.059648437,-0.405894097,0,0,0,,0,57,57,111,1,HOSSE,C,old,z,./images/HOSSE.png,,,,,,,,,,,,,,,,,,,,,,,,,,,,,,,,,,,,
,,,,,,,,,,,,,,,,,60fcc14129fe2cd0ac39bff1,30,2022-02-12_13h15.01.500,lexical_decision_task_DD,2021.2.3,MacIntel,59.99880002,,,,,,,,,,,1.1225,1,,,,,,,,,,,,,,z,1,1.1225,,,,,,,,-0.059648437,-0.405894097,0,0,0,,0,58,58,141,1,PLEET,C,old,z,./images/PLEET.png,,,,,,,,,,,,,,,,,,,,,,,,,,,,,,,,,,,,
,,,,,,,,,,,,,,,,,60fcc14129fe2cd0ac39bff1,30,2022-02-12_13h15.01.500,lexical_decision_task_DD,2021.2.3,MacIntel,59.99880002,,,,,,,,,,,0.7982,1,,,,,,,,,,,,,,z,1,0.7982,,,,,,,,-0.059648437,-0.405894097,0,0,0,,0,59,59,132,1,SCIFF,C,old,z,./images/SCIFF.png,,,,,,,,,,,,,,,,,,,,,,,,,,,,,,,,,,,,
,,,,,,,,,,,,,,,,,60fcc14129fe2cd0ac39bff1,30,2022-02-12_13h15.01.500,lexical_decision_task_DD,2021.2.3,MacIntel,59.99880002,,,,,,,,,,,0.6811,1,,,,,,,,,,,,,,m,1,0.6811,,,,,,,,-0.059648437,-0.405894097,0,0,0,,0,60,60,33,1,MAGGOT,C,old,m,./images/MAGGOT.png,,,,,,,,,,,,,,,,,,,,,,,,,,,,,,,,,,,,
,,,,,,,,,,,,,,,,,60fcc14129fe2cd0ac39bff1,30,2022-02-12_13h15.01.500,lexical_decision_task_DD,2021.2.3,MacIntel,59.99880002,,,,,,,,,,,1.0559,1,,,,,,,,,,,,,,m,1,1.0559,,,,,,,,-0.059648437,-0.405894097,0,0,0,,0,61,61,62,1,PURSE,LB,old,m,./images/PURSELB.png,,,,,,,,,,,,,,,,,,,,,,,,,,,,,,,,,,,,
,,,,,,,,,,,,,,,,,60fcc14129fe2cd0ac39bff1,30,2022-02-12_13h15.01.500,lexical_decision_task_DD,2021.2.3,MacIntel,59.99880002,,,,,,,,,,,1.0714,1,,,,,,,,,,,,,,z,1,1.0714,,,,,,,,-0.059648437,-0.405894097,0,0,0,,0,62,62,137,1,JOOST,LB,old,z,./images/JOOSTLB.png,,,,,,,,,,,,,,,,,,,,,,,,,,,,,,,,,,,,
,,,,,,,,,,,,,,,,,60fcc14129fe2cd0ac39bff1,30,2022-02-12_13h15.01.500,lexical_decision_task_DD,2021.2.3,MacIntel,59.99880002,,,,,,,,,,,0.9515,1,,,,,,,,,,,,,,z,1,0.9515,,,,,,,,-0.059648437,-0.405894097,0,0,0,,0,63,63,149,1,VEASE,LB,old,z,./images/VEASELB.png,,,,,,,,,,,,,,,,,,,,,,,,,,,,,,,,,,,,
,,,,,,,,,,,,,,,,,60fcc14129fe2cd0ac39bff1,30,2022-02-12_13h15.01.500,lexical_decision_task_DD,2021.2.3,MacIntel,59.99880002,,,,,,,,,,,0.7374,1,,,,,,,,,,,,,,z,1,0.7374,,,,,,,,-0.059648437,-0.405894097,0,0,0,,0,64,64,129,1,PRANS,C,old,z,./images/PRANS.png,,,,,,,,,,,,,,,,,,,,,,,,,,,,,,,,,,,,
,,,,,,,,,,,,,,,,,60fcc14129fe2cd0ac39bff1,30,2022-02-12_13h15.01.500,lexical_decision_task_DD,2021.2.3,MacIntel,59.99880002,,,,,,,,,,,1.4294,1,,,,,,,,,,,,,,z,1,1.4294,,,,,,,,-0.059648437,-0.405894097,0,0,0,,0,65,65,166,1,SHORY,HB,old,z,./images/SHORYHB.png,,,,,,,,,,,,,,,,,,,,,,,,,,,,,,,,,,,,
,,,,,,,,,,,,,,,,,60fcc14129fe2cd0ac39bff1,30,2022-02-12_13h15.01.500,lexical_decision_task_DD,2021.2.3,MacIntel,59.99880002,,,,,,,,,,,0.9136,1,,,,,,,,,,,,,,z,1,0.9136,,,,,,,,-0.059648437,-0.405894097,0,0,0,,0,66,66,115,1,MAWNS,HB,old,z,./images/MAWNSHB.png,,,,,,,,,,,,,,,,,,,,,,,,,,,,,,,,,,,,
,,,,,,,,,,,,,,,,,60fcc14129fe2cd0ac39bff1,30,2022-02-12_13h15.01.500,lexical_decision_task_DD,2021.2.3,MacIntel,59.99880002,,,,,,,,,,,0.678,1,,,,,,,,,,,,,,m,1,0.678,,,,,,,,-0.059648437,-0.405894097,0,0,0,,0,67,67,81,1,POODLE,C,old,m,./images/POODLE.png,,,,,,,,,,,,,,,,,,,,,,,,,,,,,,,,,,,,
,,,,,,,,,,,,,,,,,60fcc14129fe2cd0ac39bff1,30,2022-02-12_13h15.01.500,lexical_decision_task_DD,2021.2.3,MacIntel,59.99880002,,,,,,,,,,,0.8712,1,,,,,,,,,,,,,,m,1,0.8712,,,,,,,,-0.059648437,-0.405894097,0,0,0,,0,68,68,8,1,TULIP,LB,old,m,./images/TULIPLB.png,,,,,,,,,,,,,,,,,,,,,,,,,,,,,,,,,,,,
,,,,,,,,,,,,,,,,,60fcc14129fe2cd0ac39bff1,30,2022-02-12_13h15.01.500,lexical_decision_task_DD,2021.2.3,MacIntel,59.99880002,,,,,,,,,,,0.6958,1,,,,,,,,,,,,,,m,1,0.6958,,,,,,,,-0.059648437,-0.405894097,0,0,0,,0,69,69,5,1,PASTA,LB,old,m,./images/PASTALB.png,,,,,,,,,,,,,,,,,,,,,,,,,,,,,,,,,,,,
,,,,,,,,,,,,,,,,,60fcc14129fe2cd0ac39bff1,30,2022-02-12_13h15.01.500,lexical_decision_task_DD,2021.2.3,MacIntel,59.99880002,,,,,,,,,,,1.1336,1,,,,,,,,,,,,,,z,1,1.1336,,,,,,,,-0.059648437,-0.405894097,0,0,0,,0,70,70,148,1,JOMS,HB,old,z,./images/JOMSHB.png,,,,,,,,,,,,,,,,,,,,,,,,,,,,,,,,,,,,
,,,,,,,,,,,,,,,,,60fcc14129fe2cd0ac39bff1,30,2022-02-12_13h15.01.500,lexical_decision_task_DD,2021.2.3,MacIntel,59.99880002,,,,,,,,,,,0.8209,1,,,,,,,,,,,,,,z,1,0.8209,,,,,,,,-0.059648437,-0.405894097,0,0,0,,0,71,71,167,1,ZONET,LB,old,z,./images/ZONETLB.png,,,,,,,,,,,,,,,,,,,,,,,,,,,,,,,,,,,,
,,,,,,,,,,,,,,,,,60fcc14129fe2cd0ac39bff1,30,2022-02-12_13h15.01.500,lexical_decision_task_DD,2021.2.3,MacIntel,59.99880002,,,,,,,,,,,0.8636,1,,,,,,,,,,,,,,z,1,0.8636,,,,,,,,-0.059648437,-0.405894097,0,0,0,,0,72,72,95,1,HANTY,LB,old,z,./images/HANTYLB.png,,,,,,,,,,,,,,,,,,,,,,,,,,,,,,,,,,,,
,,,,,,,,,,,,,,,,,60fcc14129fe2cd0ac39bff1,30,2022-02-12_13h15.01.500,lexical_decision_task_DD,2021.2.3,MacIntel,59.99880002,,,,,,,,,,,0.8684,1,,,,,,,,,,,,,,z,1,0.8684,,,,,,,,-0.059648437,-0.405894097,0,0,0,,0,73,73,120,1,RINED,C,old,z,./images/RINED.png,,,,,,,,,,,,,,,,,,,,,,,,,,,,,,,,,,,,
,,,,,,,,,,,,,,,,,60fcc14129fe2cd0ac39bff1,30,2022-02-12_13h15.01.500,lexical_decision_task_DD,2021.2.3,MacIntel,59.99880002,,,,,,,,,,,2.3369,1,,,,,,,,,,,,,,z,1,2.3369,,,,,,,,-0.059648437,-0.405894097,0,0,0,,0,74,74,94,1,BLANS,HB,old,z,./images/BLANSHB.png,,,,,,,,,,,,,,,,,,,,,,,,,,,,,,,,,,,,
,,,,,,,,,,,,,,,,,60fcc14129fe2cd0ac39bff1,30,2022-02-12_13h15.01.500,lexical_decision_task_DD,2021.2.3,MacIntel,59.99880002,,,,,,,,,,,0.7634,1,,,,,,,,,,,,,,m,1,0.7634,,,,,,,,-0.059648437,-0.405894097,0,0,0,,0,75,75,13,1,MOTOR,HB,old,m,./images/MOTORHB.png,,,,,,,,,,,,,,,,,,,,,,,,,,,,,,,,,,,,
,,,,,,,,,,,,,,,,,60fcc14129fe2cd0ac39bff1,30,2022-02-12_13h15.01.500,lexical_decision_task_DD,2021.2.3,MacIntel,59.99880002,,,,,,,,,,,0.8137,1,,,,,,,,,,,,,,z,1,0.8137,,,,,,,,-0.059648437,-0.405894097,0,0,0,,0,76,76,164,1,SGREW,LB,old,z,./images/SGREWLB.png,,,,,,,,,,,,,,,,,,,,,,,,,,,,,,,,,,,,
,,,,,,,,,,,,,,,,,60fcc14129fe2cd0ac39bff1,30,2022-02-12_13h15.01.500,lexical_decision_task_DD,2021.2.3,MacIntel,59.99880002,,,,,,,,,,,0.6482,1,,,,,,,,,,,,,,z,1,0.6482,,,,,,,,-0.059648437,-0.405894097,0,0,0,,0,77,77,101,1,GLEET,LB,old,z,./images/GLEETLB.png,,,,,,,,,,,,,,,,,,,,,,,,,,,,,,,,,,,,
,,,,,,,,,,,,,,,,,60fcc14129fe2cd0ac39bff1,30,2022-02-12_13h15.01.500,lexical_decision_task_DD,2021.2.3,MacIntel,59.99880002,,,,,,,,,,,0.8338,1,,,,,,,,,,,,,,z,1,0.8338,,,,,,,,-0.059648437,-0.405894097,0,0,0,,0,78,78,163,1,GAMBA,HB,old,z,./images/GAMBAHB.png,,,,,,,,,,,,,,,,,,,,,,,,,,,,,,,,,,,,
,,,,,,,,,,,,,,,,,60fcc14129fe2cd0ac39bff1,30,2022-02-12_13h15.01.500,lexical_decision_task_DD,2021.2.3,MacIntel,59.99880002,,,,,,,,,,,0.6445,1,,,,,,,,,,,,,,m,1,0.6445,,,,,,,,-0.059648437,-0.405894097,0,0,0,,0,79,79,66,1,SWEAT,C,old,m,./images/SWEAT.png,,,,,,,,,,,,,,,,,,,,,,,,,,,,,,,,,,,,
,,,,,,,,,,,,,,,,,60fcc14129fe2cd0ac39bff1,30,2022-02-12_13h15.01.500,lexical_decision_task_DD,2021.2.3,MacIntel,59.99880002,,,,,,,,,,,0.6397,1,,,,,,,,,,,,,,z,1,0.6397,,,,,,,,-0.059648437,-0.405894097,0,0,0,,0,80,80,150,1,NOOLS,C,old,z,./images/NOOLS.png,,,,,,,,,,,,,,,,,,,,,,,,,,,,,,,,,,,,
,,,,,,,,,,,,,,,,,60fcc14129fe2cd0ac39bff1,30,2022-02-12_13h15.01.500,lexical_decision_task_DD,2021.2.3,MacIntel,59.99880002,,,,,,,,,,,1.3745,0,,,,,,,,,,,,,,z,0,1.3745,,,,,,,,-0.059648437,-0.405894097,0,0,0,,0,81,81,82,1,SUNSET,HB,old,m,./images/SUNSETHB.png,,,,,,,,,,,,,,,,,,,,,,,,,,,,,,,,,,,,
,,,,,,,,,,,,,,,,,60fcc14129fe2cd0ac39bff1,30,2022-02-12_13h15.01.500,lexical_decision_task_DD,2021.2.3,MacIntel,59.99880002,,,,,,,,,,,1.8407,1,,,,,,,,,,,,,,z,1,1.8407,,,,,,,,-0.059648437,-0.405894097,0,0,0,,0,82,82,142,1,PLASK,HB,old,z,./images/PLASKHB.png,,,,,,,,,,,,,,,,,,,,,,,,,,,,,,,,,,,,
,,,,,,,,,,,,,,,,,60fcc14129fe2cd0ac39bff1,30,2022-02-12_13h15.01.500,lexical_decision_task_DD,2021.2.3,MacIntel,59.99880002,,,,,,,,,,,2.3221,1,,,,,,,,,,,,,,z,1,2.3221,,,,,,,,-0.059648437,-0.405894097,0,0,0,space,0,83,83,93,1,SMONE,C,old,z,./images/SMONE.png,,4.652,,,,,,,,,,,,,,,,,,,,,,,,,,,,,,,,,,
,,,,,,,,,,,,,,,,,60fcc14129fe2cd0ac39bff1,30,2022-02-12_13h15.01.500,lexical_decision_task_DD,2021.2.3,MacIntel,59.99880002,,,,,,,,,,,0.8813,1,,,,,,,,,,,,,,z,1,0.8813,,,,,,,,-0.059648437,-0.405894097,0,0,0,,0,84,84,86,1,AIFED,LB,old,z,./images/AIFEDLB.png,,,,,,,,,,,,,,,,,,,,,,,,,,,,,,,,,,,,
,,,,,,,,,,,,,,,,,60fcc14129fe2cd0ac39bff1,30,2022-02-12_13h15.01.500,lexical_decision_task_DD,2021.2.3,MacIntel,59.99880002,,,,,,,,,,,1.2972,1,,,,,,,,,,,,,,m,1,1.2972,,,,,,,,-0.059648437,-0.405894097,0,0,0,,0,85,85,40,1,SWING,HB,old,m,./images/SWINGHB.png,,,,,,,,,,,,,,,,,,,,,,,,,,,,,,,,,,,,
,,,,,,,,,,,,,,,,,60fcc14129fe2cd0ac39bff1,30,2022-02-12_13h15.01.500,lexical_decision_task_DD,2021.2.3,MacIntel,59.99880002,,,,,,,,,,,0.5895,1,,,,,,,,,,,,,,z,1,0.5895,,,,,,,,-0.059648437,-0.405894097,0,0,0,,0,86,86,84,1,HAXES,C,old,z,./images/HAXES.png,,,,,,,,,,,,,,,,,,,,,,,,,,,,,,,,,,,,
,,,,,,,,,,,,,,,,,60fcc14129fe2cd0ac39bff1,30,2022-02-12_13h15.01.500,lexical_decision_task_DD,2021.2.3,MacIntel,59.99880002,,,,,,,,,,,0.7388,1,,,,,,,,,,,,,,m,1,0.7388,,,,,,,,-0.059648437,-0.405894097,0,0,0,,0,87,87,24,1,SCREW,C,old,m,./images/SCREW.png,,,,,,,,,,,,,,,,,,,,,,,,,,,,,,,,,,,,
,,,,,,,,,,,,,,,,,60fcc14129fe2cd0ac39bff1,30,2022-02-12_13h15.01.500,lexical_decision_task_DD,2021.2.3,MacIntel,59.99880002,,,,,,,,,,,0.7383,1,,,,,,,,,,,,,,m,1,0.7383,,,,,,,,-0.059648437,-0.405894097,0,0,0,,0,88,88,21,1,KIDNEY,C,old,m,./images/KIDNEY.png,,,,,,,,,,,,,,,,,,,,,,,,,,,,,,,,,,,,
,,,,,,,,,,,,,,,,,60fcc14129fe2cd0ac39bff1,30,2022-02-12_13h15.01.500,lexical_decision_task_DD,2021.2.3,MacIntel,59.99880002,,,,,,,,,,,0.6542,1,,,,,,,,,,,,,,z,1,0.6542,,,,,,,,-0.059648437,-0.405894097,0,0,0,,0,89,89,123,1,SEDGE,C,old,z,./images/SEDGE.png,,,,,,,,,,,,,,,,,,,,,,,,,,,,,,,,,,,,
,,,,,,,,,,,,,,,,,60fcc14129fe2cd0ac39bff1,30,2022-02-12_13h15.01.500,lexical_decision_task_DD,2021.2.3,MacIntel,59.99880002,,,,,,,,,,,0.731,1,,,,,,,,,,,,,,z,1,0.731,,,,,,,,-0.059648437,-0.405894097,0,0,0,,0,90,90,131,1,NACES,LB,old,z,./images/NACESLB.png,,,,,,,,,,,,,,,,,,,,,,,,,,,,,,,,,,,,
,,,,,,,,,,,,,,,,,60fcc14129fe2cd0ac39bff1,30,2022-02-12_13h15.01.500,lexical_decision_task_DD,2021.2.3,MacIntel,59.99880002,,,,,,,,,,,0.6856,1,,,,,,,,,,,,,,z,1,0.6856,,,,,,,,-0.059648437,-0.405894097,0,0,0,,0,91,91,135,1,JOODY,C,old,z,./images/JOODY.png,,,,,,,,,,,,,,,,,,,,,,,,,,,,,,,,,,,,
,,,,,,,,,,,,,,,,,60fcc14129fe2cd0ac39bff1,30,2022-02-12_13h15.01.500,lexical_decision_task_DD,2021.2.3,MacIntel,59.99880002,,,,,,,,,,,1.2324,0,,,,,,,,,,,,,,z,0,1.2324,,,,,,,,-0.059648437,-0.405894097,0,0,0,,0,92,92,19,1,DOUGH,HB,old,m,./images/DOUGHHB.png,,,,,,,,,,,,,,,,,,,,,,,,,,,,,,,,,,,,
,,,,,,,,,,,,,,,,,60fcc14129fe2cd0ac39bff1,30,2022-02-12_13h15.01.500,lexical_decision_task_DD,2021.2.3,MacIntel,59.99880002,,,,,,,,,,,0.8073,1,,,,,,,,,,,,,,z,1,0.8073,,,,,,,,-0.059648437,-0.405894097,0,0,0,,0,93,93,89,1,DRIEK,LB,old,z,./images/DRIEKLB.png,,,,,,,,,,,,,,,,,,,,,,,,,,,,,,,,,,,,
,,,,,,,,,,,,,,,,,60fcc14129fe2cd0ac39bff1,30,2022-02-12_13h15.01.500,lexical_decision_task_DD,2021.2.3,MacIntel,59.99880002,,,,,,,,,,,0.6742,1,,,,,,,,,,,,,,z,1,0.6742,,,,,,,,-0.059648437,-0.405894097,0,0,0,,0,94,94,102,1,DULLE,C,old,z,./images/DULLE.png,,,,,,,,,,,,,,,,,,,,,,,,,,,,,,,,,,,,
,,,,,,,,,,,,,,,,,60fcc14129fe2cd0ac39bff1,30,2022-02-12_13h15.01.500,lexical_decision_task_DD,2021.2.3,MacIntel,59.99880002,,,,,,,,,,,0.8916,1,,,,,,,,,,,,,,m,1,0.8916,,,,,,,,-0.059648437,-0.405894097,0,0,0,,0,95,95,48,1,SPORT,C,old,m,./images/SPORT.png,,,,,,,,,,,,,,,,,,,,,,,,,,,,,,,,,,,,
,,,,,,,,,,,,,,,,,60fcc14129fe2cd0ac39bff1,30,2022-02-12_13h15.01.500,lexical_decision_task_DD,2021.2.3,MacIntel,59.99880002,,,,,,,,,,,0.9388,1,,,,,,,,,,,,,,m,1,0.9388,,,,,,,,-0.059648437,-0.405894097,0,0,0,,0,96,96,11,1,BONNET,LB,old,m,./images/BONNETLB.png,,,,,,,,,,,,,,,,,,,,,,,,,,,,,,,,,,,,
,,,,,,,,,,,,,,,,,60fcc14129fe2cd0ac39bff1,30,2022-02-12_13h15.01.500,lexical_decision_task_DD,2021.2.3,MacIntel,59.99880002,,,,,,,,,,,1.319,1,,,,,,,,,,,,,,m,1,1.319,,,,,,,,-0.059648437,-0.405894097,0,0,0,,0,97,97,46,1,PEARL,HB,old,m,./images/PEARLHB.png,,,,,,,,,,,,,,,,,,,,,,,,,,,,,,,,,,,,
,,,,,,,,,,,,,,,,,60fcc14129fe2cd0ac39bff1,30,2022-02-12_13h15.01.500,lexical_decision_task_DD,2021.2.3,MacIntel,59.99880002,,,,,,,,,,,0.781,1,,,,,,,,,,,,,,m,1,0.781,,,,,,,,-0.059648437,-0.405894097,0,0,0,,0,98,98,29,1,CRUMB,LB,old,m,./images/CRUMBLB.png,,,,,,,,,,,,,,,,,,,,,,,,,,,,,,,,,,,,
,,,,,,,,,,,,,,,,,60fcc14129fe2cd0ac39bff1,30,2022-02-12_13h15.01.500,lexical_decision_task_DD,2021.2.3,MacIntel,59.99880002,,,,,,,,,,,0.8222,1,,,,,,,,,,,,,,m,1,0.8222,,,,,,,,-0.059648437,-0.405894097,0,0,0,,0,99,99,28,1,FALCON,HB,old,m,./images/FALCONHB.png,,,,,,,,,,,,,,,,,,,,,,,,,,,,,,,,,,,,
,,,,,,,,,,,,,,,,,60fcc14129fe2cd0ac39bff1,30,2022-02-12_13h15.01.500,lexical_decision_task_DD,2021.2.3,MacIntel,59.99880002,,,,,,,,,,,0.8203,1,,,,,,,,,,,,,,z,1,0.8203,,,,,,,,-0.059648437,-0.405894097,0,0,0,,0,100,100,112,1,MYING,HB,old,z,./images/MYINGHB.png,,,,,,,,,,,,,,,,,,,,,,,,,,,,,,,,,,,,
,,,,,,,,,,,,,,,,,60fcc14129fe2cd0ac39bff1,30,2022-02-12_13h15.01.500,lexical_decision_task_DD,2021.2.3,MacIntel,59.99880002,,,,,,,,,,,2.2147,1,,,,,,,,,,,,,,m,1,2.2147,,,,,,,,-0.059648437,-0.405894097,0,0,0,,0,101,101,76,1,INFANT,HB,old,m,./images/INFANTHB.png,,,,,,,,,,,,,,,,,,,,,,,,,,,,,,,,,,,,
,,,,,,,,,,,,,,,,,60fcc14129fe2cd0ac39bff1,30,2022-02-12_13h15.01.500,lexical_decision_task_DD,2021.2.3,MacIntel,59.99880002,,,,,,,,,,,0.6727,1,,,,,,,,,,,,,,m,1,0.6727,,,,,,,,-0.059648437,-0.405894097,0,0,0,,0,102,102,3,1,FINGER,C,old,m,./images/FINGER.png,,,,,,,,,,,,,,,,,,,,,,,,,,,,,,,,,,,,
,,,,,,,,,,,,,,,,,60fcc14129fe2cd0ac39bff1,30,2022-02-12_13h15.01.500,lexical_decision_task_DD,2021.2.3,MacIntel,59.99880002,,,,,,,,,,,0.6534,1,,,,,,,,,,,,,,z,1,0.6534,,,,,,,,-0.059648437,-0.405894097,0,0,0,,0,103,103,122,1,BLOOT,LB,old,z,./images/BLOOTLB.png,,,,,,,,,,,,,,,,,,,,,,,,,,,,,,,,,,,,
,,,,,,,,,,,,,,,,,60fcc14129fe2cd0ac39bff1,30,2022-02-12_13h15.01.500,lexical_decision_task_DD,2021.2.3,MacIntel,59.99880002,,,,,,,,,,,0.8379,1,,,,,,,,,,,,,,z,1,0.8379,,,,,,,,-0.059648437,-0.405894097,0,0,0,,0,104,104,96,1,KEAMS,C,old,z,./images/KEAMS.png,,,,,,,,,,,,,,,,,,,,,,,,,,,,,,,,,,,,
,,,,,,,,,,,,,,,,,60fcc14129fe2cd0ac39bff1,30,2022-02-12_13h15.01.500,lexical_decision_task_DD,2021.2.3,MacIntel,59.99880002,,,,,,,,,,,0.7151,1,,,,,,,,,,,,,,m,1,0.7151,,,,,,,,-0.059648437,-0.405894097,0,0,0,,0,105,105,47,1,BERRY,LB,old,m,./images/BERRYLB.png,,,,,,,,,,,,,,,,,,,,,,,,,,,,,,,,,,,,
,,,,,,,,,,,,,,,,,60fcc14129fe2cd0ac39bff1,30,2022-02-12_13h15.01.500,lexical_decision_task_DD,2021.2.3,MacIntel,59.99880002,,,,,,,,,,,0.7303,1,,,,,,,,,,,,,,m,1,0.7303,,,,,,,,-0.059648437,-0.405894097,0,0,0,,0,106,106,53,1,CARPET,LB,old,m,./images/CARPETLB.png,,,,,,,,,,,,,,,,,,,,,,,,,,,,,,,,,,,,
,,,,,,,,,,,,,,,,,60fcc14129fe2cd0ac39bff1,30,2022-02-12_13h15.01.500,lexical_decision_task_DD,2021.2.3,MacIntel,59.99880002,,,,,,,,,,,0.7928,1,,,,,,,,,,,,,,m,1,0.7928,,,,,,,,-0.059648437,-0.405894097,0,0,0,,0,107,107,18,1,JAGUAR,C,old,m,./images/JAGUAR.png,,,,,,,,,,,,,,,,,,,,,,,,,,,,,,,,,,,,
,,,,,,,,,,,,,,,,,60fcc14129fe2cd0ac39bff1,30,2022-02-12_13h15.01.500,lexical_decision_task_DD,2021.2.3,MacIntel,59.99880002,,,,,,,,,,,0.6946,1,,,,,,,,,,,,,,z,1,0.6946,,,,,,,,-0.059648437,-0.405894097,0,0,0,,0,108,108,103,1,FLORT,HB,old,z,./images/FLORTHB.png,,,,,,,,,,,,,,,,,,,,,,,,,,,,,,,,,,,,
,,,,,,,,,,,,,,,,,60fcc14129fe2cd0ac39bff1,30,2022-02-12_13h15.01.500,lexical_decision_task_DD,2021.2.3,MacIntel,59.99880002,,,,,,,,,,,1.1332,1,,,,,,,,,,,,,,z,1,1.1332,,,,,,,,-0.059648437,-0.405894097,0,0,0,,0,109,109,88,1,GLUSH,HB,old,z,./images/GLUSHHB.png,,,,,,,,,,,,,,,,,,,,,,,,,,,,,,,,,,,,
,,,,,,,,,,,,,,,,,60fcc14129fe2cd0ac39bff1,30,2022-02-12_13h15.01.500,lexical_decision_task_DD,2021.2.3,MacIntel,59.99880002,,,,,,,,,,,0.7154,1,,,,,,,,,,,,,,z,1,0.7154,,,,,,,,-0.059648437,-0.405894097,0,0,0,,0,110,110,155,1,CANGY,LB,old,z,./images/CANGYLB.png,,,,,,,,,,,,,,,,,,,,,,,,,,,,,,,,,,,,
,,,,,,,,,,,,,,,,,60fcc14129fe2cd0ac39bff1,30,2022-02-12_13h15.01.500,lexical_decision_task_DD,2021.2.3,MacIntel,59.99880002,,,,,,,,,,,0.702,1,,,,,,,,,,,,,,m,1,0.702,,,,,,,,-0.059648437,-0.405894097,0,0,0,,0,111,111,35,1,PEACH,LB,old,m,./images/PEACHLB.png,,,,,,,,,,,,,,,,,,,,,,,,,,,,,,,,,,,,
,,,,,,,,,,,,,,,,,60fcc14129fe2cd0ac39bff1,30,2022-02-12_13h15.01.500,lexical_decision_task_DD,2021.2.3,MacIntel,59.99880002,,,,,,,,,,,0.7208,1,,,,,,,,,,,,,,m,1,0.7208,,,,,,,,-0.059648437,-0.405894097,0,0,0,,0,112,112,36,1,THROAT,C,old,m,./images/THROAT.png,,,,,,,,,,,,,,,,,,,,,,,,,,,,,,,,,,,,
,,,,,,,,,,,,,,,,,60fcc14129fe2cd0ac39bff1,30,2022-02-12_13h15.01.500,lexical_decision_task_DD,2021.2.3,MacIntel,59.99880002,,,,,,,,,,,1.8293,1,,,,,,,,,,,,,,z,1,1.8293,,,,,,,,-0.059648437,-0.405894097,0,0,0,,0,113,113,140,1,DOVET,LB,old,z,./images/DOVETLB.png,,,,,,,,,,,,,,,,,,,,,,,,,,,,,,,,,,,,
,,,,,,,,,,,,,,,,,60fcc14129fe2cd0ac39bff1,30,2022-02-12_13h15.01.500,lexical_decision_task_DD,2021.2.3,MacIntel,59.99880002,,,,,,,,,,,0.7168,1,,,,,,,,,,,,,,z,1,0.7168,,,,,,,,-0.059648437,-0.405894097,0,0,0,,0,114,114,143,1,MONGS,LB,old,z,./images/MONGSLB.png,,,,,,,,,,,,,,,,,,,,,,,,,,,,,,,,,,,,
,,,,,,,,,,,,,,,,,60fcc14129fe2cd0ac39bff1,30,2022-02-12_13h15.01.500,lexical_decision_task_DD,2021.2.3,MacIntel,59.99880002,,,,,,,,,,,1.057,1,,,,,,,,,,,,,,z,1,1.057,,,,,,,,-0.059648437,-0.405894097,0,0,0,,0,115,115,157,1,INLER,HB,old,z,./images/INLERHB.png,,,,,,,,,,,,,,,,,,,,,,,,,,,,,,,,,,,,
,,,,,,,,,,,,,,,,,60fcc14129fe2cd0ac39bff1,30,2022-02-12_13h15.01.500,lexical_decision_task_DD,2021.2.3,MacIntel,59.99880002,,,,,,,,,,,0.6474,1,,,,,,,,,,,,,,z,1,0.6474,,,,,,,,-0.059648437,-0.405894097,0,0,0,,0,116,116,161,1,BLAPS,LB,old,z,./images/BLAPSLB.png,,,,,,,,,,,,,,,,,,,,,,,,,,,,,,,,,,,,
,,,,,,,,,,,,,,,,,60fcc14129fe2cd0ac39bff1,30,2022-02-12_13h15.01.500,lexical_decision_task_DD,2021.2.3,MacIntel,59.99880002,,,,,,,,,,,1.0011,1,,,,,,,,,,,,,,m,1,1.0011,,,,,,,,-0.059648437,-0.405894097,0,0,0,,0,117,117,71,1,PIMPLE,LB,old,m,./images/PIMPLELB.png,,,,,,,,,,,,,,,,,,,,,,,,,,,,,,,,,,,,
,,,,,,,,,,,,,,,,,60fcc14129fe2cd0ac39bff1,30,2022-02-12_13h15.01.500,lexical_decision_task_DD,2021.2.3,MacIntel,59.99880002,,,,,,,,,,,0.7548,1,,,,,,,,,,,,,,m,1,0.7548,,,,,,,,-0.059648437,-0.405894097,0,0,0,,0,118,118,55,1,MUFFIN,HB,old,m,./images/MUFFINHB.png,,,,,,,,,,,,,,,,,,,,,,,,,,,,,,,,,,,,
,,,,,,,,,,,,,,,,,60fcc14129fe2cd0ac39bff1,30,2022-02-12_13h15.01.500,lexical_decision_task_DD,2021.2.3,MacIntel,59.99880002,,,,,,,,,,,0.7996,1,,,,,,,,,,,,,,m,1,0.7996,,,,,,,,-0.059648437,-0.405894097,0,0,0,,0,119,119,59,1,BURIAL,LB,old,m,./images/BURIALLB.png,,,,,,,,,,,,,,,,,,,,,,,,,,,,,,,,,,,,
,,,,,,,,,,,,,,,,,60fcc14129fe2cd0ac39bff1,30,2022-02-12_13h15.01.500,lexical_decision_task_DD,2021.2.3,MacIntel,59.99880002,,,,,,,,,,,0.7538,1,,,,,,,,,,,,,,m,1,0.7538,,,,,,,,-0.059648437,-0.405894097,0,0,0,,0,120,120,37,1,BIRTH,HB,old,m,./images/BIRTHHB.png,,,,,,,,,,,,,,,,,,,,,,,,,,,,,,,,,,,,
,,,,,,,,,,,,,,,,,60fcc14129fe2cd0ac39bff1,30,2022-02-12_13h15.01.500,lexical_decision_task_DD,2021.2.3,MacIntel,59.99880002,,,,,,,,,,,0.7625,1,,,,,,,,,,,,,,z,1,0.7625,,,,,,,,-0.059648437,-0.405894097,0,0,0,,0,121,121,159,1,CUDDY,C,old,z,./images/CUDDY.png,,,,,,,,,,,,,,,,,,,,,,,,,,,,,,,,,,,,
,,,,,,,,,,,,,,,,,60fcc14129fe2cd0ac39bff1,30,2022-02-12_13h15.01.500,lexical_decision_task_DD,2021.2.3,MacIntel,59.99880002,,,,,,,,,,,0.692,1,,,,,,,,,,,,,,m,1,0.692,,,,,,,,-0.059648437,-0.405894097,0,0,0,,0,122,122,78,1,LITTER,C,old,m,./images/LITTER.png,,,,,,,,,,,,,,,,,,,,,,,,,,,,,,,,,,,,
,,,,,,,,,,,,,,,,,60fcc14129fe2cd0ac39bff1,30,2022-02-12_13h15.01.500,lexical_decision_task_DD,2021.2.3,MacIntel,59.99880002,,,,,,,,,,,0.7327,1,,,,,,,,,,,,,,m,1,0.7327,,,,,,,,-0.059648437,-0.405894097,0,0,0,,0,123,123,44,1,LIZARD,LB,old,m,./images/LIZARDLB.png,,,,,,,,,,,,,,,,,,,,,,,,,,,,,,,,,,,,
,,,,,,,,,,,,,,,,,60fcc14129fe2cd0ac39bff1,30,2022-02-12_13h15.01.500,lexical_decision_task_DD,2021.2.3,MacIntel,59.99880002,,,,,,,,,,,1.0555,1,,,,,,,,,,,,,,m,1,1.0555,,,,,,,,-0.059648437,-0.405894097,0,0,0,,0,124,124,20,1,CRADLE,LB,old,m,./images/CRADLELB.png,,,,,,,,,,,,,,,,,,,,,,,,,,,,,,,,,,,,
,,,,,,,,,,,,,,,,,60fcc14129fe2cd0ac39bff1,30,2022-02-12_13h15.01.500,lexical_decision_task_DD,2021.2.3,MacIntel,59.99880002,,,,,,,,,,,2.2829,1,,,,,,,,,,,,,,z,1,2.2829,,,,,,,,-0.059648437,-0.405894097,0,0,0,space,0,125,125,100,1,DRIBS,HB,old,z,./images/DRIBSHB.png,,8.0442,,,,,,,,,,,,,,,,,,,,,,,,,,,,,,,,,,
,,,,,,,,,,,,,,,,,60fcc14129fe2cd0ac39bff1,30,2022-02-12_13h15.01.500,lexical_decision_task_DD,2021.2.3,MacIntel,59.99880002,,,,,,,,,,,0.7486,1,,,,,,,,,,,,,,m,1,0.7486,,,,,,,,-0.059648437,-0.405894097,0,0,0,,0,126,126,2,1,BEARD,LB,old,m,./images/BEARDLB.png,,,,,,,,,,,,,,,,,,,,,,,,,,,,,,,,,,,,
,,,,,,,,,,,,,,,,,60fcc14129fe2cd0ac39bff1,30,2022-02-12_13h15.01.500,lexical_decision_task_DD,2021.2.3,MacIntel,59.99880002,,,,,,,,,,,1.2488,0,,,,,,,,,,,,,,z,0,1.2488,,,,,,,,-0.059648437,-0.405894097,0,0,0,,0,127,127,31,1,QUILL,HB,old,m,./images/QUILLHB.png,,,,,,,,,,,,,,,,,,,,,,,,,,,,,,,,,,,,
,,,,,,,,,,,,,,,,,60fcc14129fe2cd0ac39bff1,30,2022-02-12_13h15.01.500,lexical_decision_task_DD,2021.2.3,MacIntel,59.99880002,,,,,,,,,,,0.708,1,,,,,,,,,,,,,,m,1,0.708,,,,,,,,-0.059648437,-0.405894097,0,0,0,,0,128,128,7,1,PAINT,HB,old,m,./images/PAINTHB.png,,,,,,,,,,,,,,,,,,,,,,,,,,,,,,,,,,,,
,,,,,,,,,,,,,,,,,60fcc14129fe2cd0ac39bff1,30,2022-02-12_13h15.01.500,lexical_decision_task_DD,2021.2.3,MacIntel,59.99880002,,,,,,,,,,,0.7148,1,,,,,,,,,,,,,,m,1,0.7148,,,,,,,,-0.059648437,-0.405894097,0,0,0,,0,129,129,23,1,WALRUS,LB,old,m,./images/WALRUSLB.png,,,,,,,,,,,,,,,,,,,,,,,,,,,,,,,,,,,,
,,,,,,,,,,,,,,,,,60fcc14129fe2cd0ac39bff1,30,2022-02-12_13h15.01.500,lexical_decision_task_DD,2021.2.3,MacIntel,59.99880002,,,,,,,,,,,1.3799,1,,,,,,,,,,,,,,m,1,1.3799,,,,,,,,-0.059648437,-0.405894097,0,0,0,,0,130,130,9,1,RHINO,C,old,m,./images/RHINO.png,,,,,,,,,,,,,,,,,,,,,,,,,,,,,,,,,,,,
,,,,,,,,,,,,,,,,,60fcc14129fe2cd0ac39bff1,30,2022-02-12_13h15.01.500,lexical_decision_task_DD,2021.2.3,MacIntel,59.99880002,,,,,,,,,,,2.4347,1,,,,,,,,,,,,,,m,1,2.4347,,,,,,,,-0.059648437,-0.405894097,0,0,0,,0,131,131,60,1,TWINS,C,old,m,./images/TWINS.png,,,,,,,,,,,,,,,,,,,,,,,,,,,,,,,,,,,,
,,,,,,,,,,,,,,,,,60fcc14129fe2cd0ac39bff1,30,2022-02-12_13h15.01.500,lexical_decision_task_DD,2021.2.3,MacIntel,59.99880002,,,,,,,,,,,0.7795,1,,,,,,,,,,,,,,z,1,0.7795,,,,,,,,-0.059648437,-0.405894097,0,0,0,,0,132,132,165,1,TROWN,C,old,z,./images/TROWN.png,,,,,,,,,,,,,,,,,,,,,,,,,,,,,,,,,,,,
,,,,,,,,,,,,,,,,,60fcc14129fe2cd0ac39bff1,30,2022-02-12_13h15.01.500,lexical_decision_task_DD,2021.2.3,MacIntel,59.99880002,,,,,,,,,,,0.77,1,,,,,,,,,,,,,,m,1,0.77,,,,,,,,-0.059648437,-0.405894097,0,0,0,,0,133,133,54,1,TRIPOD,C,old,m,./images/TRIPOD.png,,,,,,,,,,,,,,,,,,,,,,,,,,,,,,,,,,,,
,,,,,,,,,,,,,,,,,60fcc14129fe2cd0ac39bff1,30,2022-02-12_13h15.01.500,lexical_decision_task_DD,2021.2.3,MacIntel,59.99880002,,,,,,,,,,,0.681,1,,,,,,,,,,,,,,m,1,0.681,,,,,,,,-0.059648437,-0.405894097,0,0,0,,0,134,134,68,1,TORCH,LB,old,m,./images/TORCHLB.png,,,,,,,,,,,,,,,,,,,,,,,,,,,,,,,,,,,,
,,,,,,,,,,,,,,,,,60fcc14129fe2cd0ac39bff1,30,2022-02-12_13h15.01.500,lexical_decision_task_DD,2021.2.3,MacIntel,59.99880002,,,,,,,,,,,1.4384,1,,,,,,,,,,,,,,m,1,1.4384,,,,,,,,-0.059648437,-0.405894097,0,0,0,,0,135,135,52,1,BANNER,HB,old,m,./images/BANNERHB.png,,,,,,,,,,,,,,,,,,,,,,,,,,,,,,,,,,,,
,,,,,,,,,,,,,,,,,60fcc14129fe2cd0ac39bff1,30,2022-02-12_13h15.01.500,lexical_decision_task_DD,2021.2.3,MacIntel,59.99880002,,,,,,,,,,,0.6237,1,,,,,,,,,,,,,,z,1,0.6237,,,,,,,,-0.059648437,-0.405894097,0,0,0,,0,136,136,117,1,STEEG,C,old,z,./images/STEEG.png,,,,,,,,,,,,,,,,,,,,,,,,,,,,,,,,,,,,
,,,,,,,,,,,,,,,,,60fcc14129fe2cd0ac39bff1,30,2022-02-12_13h15.01.500,lexical_decision_task_DD,2021.2.3,MacIntel,59.99880002,,,,,,,,,,,0.7055,1,,,,,,,,,,,,,,z,1,0.7055,,,,,,,,-0.059648437,-0.405894097,0,0,0,,0,137,137,90,1,NEAST,C,old,z,./images/NEAST.png,,,,,,,,,,,,,,,,,,,,,,,,,,,,,,,,,,,,
,,,,,,,,,,,,,,,,,60fcc14129fe2cd0ac39bff1,30,2022-02-12_13h15.01.500,lexical_decision_task_DD,2021.2.3,MacIntel,59.99880002,,,,,,,,,,,0.7012,1,,,,,,,,,,,,,,m,1,0.7012,,,,,,,,-0.059648437,-0.405894097,0,0,0,,0,138,138,38,1,LADDER,LB,old,m,./images/LADDERLB.png,,,,,,,,,,,,,,,,,,,,,,,,,,,,,,,,,,,,
,,,,,,,,,,,,,,,,,60fcc14129fe2cd0ac39bff1,30,2022-02-12_13h15.01.500,lexical_decision_task_DD,2021.2.3,MacIntel,59.99880002,,,,,,,,,,,0.9154,1,,,,,,,,,,,,,,m,1,0.9154,,,,,,,,-0.059648437,-0.405894097,0,0,0,,0,139,139,1,1,PLANK,HB,old,m,./images/PLANKHB.png,,,,,,,,,,,,,,,,,,,,,,,,,,,,,,,,,,,,
,,,,,,,,,,,,,,,,,60fcc14129fe2cd0ac39bff1,30,2022-02-12_13h15.01.500,lexical_decision_task_DD,2021.2.3,MacIntel,59.99880002,,,,,,,,,,,1.1651,1,,,,,,,,,,,,,,z,1,1.1651,,,,,,,,-0.059648437,-0.405894097,0,0,0,,0,140,140,136,1,WERVE,HB,old,z,./images/WERVEHB.png,,,,,,,,,,,,,,,,,,,,,,,,,,,,,,,,,,,,
,,,,,,,,,,,,,,,,,60fcc14129fe2cd0ac39bff1,30,2022-02-12_13h15.01.500,lexical_decision_task_DD,2021.2.3,MacIntel,59.99880002,,,,,,,,,,,0.6751,1,,,,,,,,,,,,,,m,1,0.6751,,,,,,,,-0.059648437,-0.405894097,0,0,0,,0,141,141,30,1,STORM,C,old,m,./images/STORM.png,,,,,,,,,,,,,,,,,,,,,,,,,,,,,,,,,,,,
,,,,,,,,,,,,,,,,,60fcc14129fe2cd0ac39bff1,30,2022-02-12_13h15.01.500,lexical_decision_task_DD,2021.2.3,MacIntel,59.99880002,,,,,,,,,,,0.7319,1,,,,,,,,,,,,,,m,1,0.7319,,,,,,,,-0.059648437,-0.405894097,0,0,0,,0,142,142,80,1,WEASEL,LB,old,m,./images/WEASELLB.png,,,,,,,,,,,,,,,,,,,,,,,,,,,,,,,,,,,,
,,,,,,,,,,,,,,,,,60fcc14129fe2cd0ac39bff1,30,2022-02-12_13h15.01.500,lexical_decision_task_DD,2021.2.3,MacIntel,59.99880002,,,,,,,,,,,0.8512,1,,,,,,,,,,,,,,m,1,0.8512,,,,,,,,-0.059648437,-0.405894097,0,0,0,,0,143,143,15,1,GREASE,C,old,m,./images/GREASE.png,,,,,,,,,,,,,,,,,,,,,,,,,,,,,,,,,,,,
,,,,,,,,,,,,,,,,,60fcc14129fe2cd0ac39bff1,30,2022-02-12_13h15.01.500,lexical_decision_task_DD,2021.2.3,MacIntel,59.99880002,,,,,,,,,,,0.7389,1,,,,,,,,,,,,,,m,1,0.7389,,,,,,,,-0.059648437,-0.405894097,0,0,0,,0,144,144,69,1,COOKER,C,old,m,./images/COOKER.png,,,,,,,,,,,,,,,,,,,,,,,,,,,,,,,,,,,,
,,,,,,,,,,,,,,,,,60fcc14129fe2cd0ac39bff1,30,2022-02-12_13h15.01.500,lexical_decision_task_DD,2021.2.3,MacIntel,59.99880002,,,,,,,,,,,1.5489,1,,,,,,,,,,,,,,z,1,1.5489,,,,,,,,-0.059648437,-0.405894097,0,0,0,,0,145,145,154,1,THINT,HB,old,z,./images/THINTHB.png,,,,,,,,,,,,,,,,,,,,,,,,,,,,,,,,,,,,
,,,,,,,,,,,,,,,,,60fcc14129fe2cd0ac39bff1,30,2022-02-12_13h15.01.500,lexical_decision_task_DD,2021.2.3,MacIntel,59.99880002,,,,,,,,,,,1.1404,1,,,,,,,,,,,,,,z,1,1.1404,,,,,,,,-0.059648437,-0.405894097,0,0,0,,0,146,146,130,1,CRILL,HB,old,z,./images/CRILLHB.png,,,,,,,,,,,,,,,,,,,,,,,,,,,,,,,,,,,,
,,,,,,,,,,,,,,,,,60fcc14129fe2cd0ac39bff1,30,2022-02-12_13h15.01.500,lexical_decision_task_DD,2021.2.3,MacIntel,59.99880002,,,,,,,,,,,1.3321,1,,,,,,,,,,,,,,m,1,1.3321,,,,,,,,-0.059648437,-0.405894097,0,0,0,,0,147,147,70,1,URINE,HB,old,m,./images/URINEHB.png,,,,,,,,,,,,,,,,,,,,,,,,,,,,,,,,,,,,
,,,,,,,,,,,,,,,,,60fcc14129fe2cd0ac39bff1,30,2022-02-12_13h15.01.500,lexical_decision_task_DD,2021.2.3,MacIntel,59.99880002,,,,,,,,,,,0.8204,1,,,,,,,,,,,,,,z,1,0.8204,,,,,,,,-0.059648437,-0.405894097,0,0,0,,0,148,148,128,1,GRIFT,LB,old,z,./images/GRIFTLB.png,,,,,,,,,,,,,,,,,,,,,,,,,,,,,,,,,,,,
,,,,,,,,,,,,,,,,,60fcc14129fe2cd0ac39bff1,30,2022-02-12_13h15.01.500,lexical_decision_task_DD,2021.2.3,MacIntel,59.99880002,,,,,,,,,,,1.3139,1,,,,,,,,,,,,,,z,1,1.3139,,,,,,,,-0.059648437,-0.405894097,0,0,0,,0,149,149,134,1,TROSS,LB,old,z,./images/TROSSLB.png,,,,,,,,,,,,,,,,,,,,,,,,,,,,,,,,,,,,
,,,,,,,,,,,,,,,,,60fcc14129fe2cd0ac39bff1,30,2022-02-12_13h15.01.500,lexical_decision_task_DD,2021.2.3,MacIntel,59.99880002,,,,,,,,,,,0.8647,1,,,,,,,,,,,,,,z,1,0.8647,,,,,,,,-0.059648437,-0.405894097,0,0,0,,0,150,150,158,1,EGECT,LB,old,z,./images/EGECTLB.png,,,,,,,,,,,,,,,,,,,,,,,,,,,,,,,,,,,,
,,,,,,,,,,,,,,,,,60fcc14129fe2cd0ac39bff1,30,2022-02-12_13h15.01.500,lexical_decision_task_DD,2021.2.3,MacIntel,59.99880002,,,,,,,,,,,1.8222,1,,,,,,,,,,,,,,z,1,1.8222,,,,,,,,-0.059648437,-0.405894097,0,0,0,,0,151,151,85,1,CHULK,HB,old,z,./images/CHULKHB.png,,,,,,,,,,,,,,,,,,,,,,,,,,,,,,,,,,,,
,,,,,,,,,,,,,,,,,60fcc14129fe2cd0ac39bff1,30,2022-02-12_13h15.01.500,lexical_decision_task_DD,2021.2.3,MacIntel,59.99880002,,,,,,,,,,,0.8308,1,,,,,,,,,,,,,,m,1,0.8308,,,,,,,,-0.059648437,-0.405894097,0,0,0,,0,152,152,14,1,PICKLE,LB,old,m,./images/PICKLELB.png,,,,,,,,,,,,,,,,,,,,,,,,,,,,,,,,,,,,
,,,,,,,,,,,,,,,,,60fcc14129fe2cd0ac39bff1,30,2022-02-12_13h15.01.500,lexical_decision_task_DD,2021.2.3,MacIntel,59.99880002,,,,,,,,,,,0.6909,1,,,,,,,,,,,,,,z,1,0.6909,,,,,,,,-0.059648437,-0.405894097,0,0,0,,0,153,153,152,1,FRAIN,LB,old,z,./images/FRAINLB.png,,,,,,,,,,,,,,,,,,,,,,,,,,,,,,,,,,,,
,,,,,,,,,,,,,,,,,60fcc14129fe2cd0ac39bff1,30,2022-02-12_13h15.01.500,lexical_decision_task_DD,2021.2.3,MacIntel,59.99880002,,,,,,,,,,,1.1162,1,,,,,,,,,,,,,,z,1,1.1162,,,,,,,,-0.059648437,-0.405894097,0,0,0,,0,154,154,139,1,BLEAR,HB,old,z,./images/BLEARHB.png,,,,,,,,,,,,,,,,,,,,,,,,,,,,,,,,,,,,
,,,,,,,,,,,,,,,,,60fcc14129fe2cd0ac39bff1,30,2022-02-12_13h15.01.500,lexical_decision_task_DD,2021.2.3,MacIntel,59.99880002,,,,,,,,,,,0.7136,1,,,,,,,,,,,,,,z,1,0.7136,,,,,,,,-0.059648437,-0.405894097,0,0,0,,0,155,155,113,1,LINEW,LB,old,z,./images/LINEWLB.png,,,,,,,,,,,,,,,,,,,,,,,,,,,,,,,,,,,,
,,,,,,,,,,,,,,,,,60fcc14129fe2cd0ac39bff1,30,2022-02-12_13h15.01.500,lexical_decision_task_DD,2021.2.3,MacIntel,59.99880002,,,,,,,,,,,0.7192,1,,,,,,,,,,,,,,m,1,0.7192,,,,,,,,-0.059648437,-0.405894097,0,0,0,,0,156,156,39,1,SHELF,C,old,m,./images/SHELF.png,,,,,,,,,,,,,,,,,,,,,,,,,,,,,,,,,,,,
,,,,,,,,,,,,,,,,,60fcc14129fe2cd0ac39bff1,30,2022-02-12_13h15.01.500,lexical_decision_task_DD,2021.2.3,MacIntel,59.99880002,,,,,,,,,,,0.7442,1,,,,,,,,,,,,,,z,1,0.7442,,,,,,,,-0.059648437,-0.405894097,0,0,0,,0,157,157,127,1,NINDY,HB,old,z,./images/NINDYHB.png,,,,,,,,,,,,,,,,,,,,,,,,,,,,,,,,,,,,
,,,,,,,,,,,,,,,,,60fcc14129fe2cd0ac39bff1,30,2022-02-12_13h15.01.500,lexical_decision_task_DD,2021.2.3,MacIntel,59.99880002,,,,,,,,,,,0.7649,1,,,,,,,,,,,,,,m,1,0.7649,,,,,,,,-0.059648437,-0.405894097,0,0,0,,0,158,158,83,1,JUNGLE,LB,old,m,./images/JUNGLELB.png,,,,,,,,,,,,,,,,,,,,,,,,,,,,,,,,,,,,
,,,,,,,,,,,,,,,,,60fcc14129fe2cd0ac39bff1,30,2022-02-12_13h15.01.500,lexical_decision_task_DD,2021.2.3,MacIntel,59.99880002,,,,,,,,,,,0.6935,1,,,,,,,,,,,,,,z,1,0.6935,,,,,,,,-0.059648437,-0.405894097,0,0,0,,0,159,159,156,1,HIXES,C,old,z,./images/HIXES.png,,,,,,,,,,,,,,,,,,,,,,,,,,,,,,,,,,,,
,,,,,,,,,,,,,,,,,60fcc14129fe2cd0ac39bff1,30,2022-02-12_13h15.01.500,lexical_decision_task_DD,2021.2.3,MacIntel,59.99880002,,,,,,,,,,,0.6834,1,,,,,,,,,,,,,,z,1,0.6834,,,,,,,,-0.059648437,-0.405894097,0,0,0,,0,160,160,116,1,BALGY,LB,old,z,./images/BALGYLB.png,,,,,,,,,,,,,,,,,,,,,,,,,,,,,,,,,,,,
,,,,,,,,,,,,,,,,,60fcc14129fe2cd0ac39bff1,30,2022-02-12_13h15.01.500,lexical_decision_task_DD,2021.2.3,MacIntel,59.99880002,,,,,,,,,,,1.2257,1,,,,,,,,,,,,,,m,1,1.2257,,,,,,,,-0.059648437,-0.405894097,0,0,0,,0,161,161,58,1,BABOON,HB,old,m,./images/BABOONHB.png,,,,,,,,,,,,,,,,,,,,,,,,,,,,,,,,,,,,
,,,,,,,,,,,,,,,,,60fcc14129fe2cd0ac39bff1,30,2022-02-12_13h15.01.500,lexical_decision_task_DD,2021.2.3,MacIntel,59.99880002,,,,,,,,,,,0.8294,1,,,,,,,,,,,,,,z,1,0.8294,,,,,,,,-0.059648437,-0.405894097,0,0,0,,0,162,162,105,1,MOKER,C,old,z,./images/MOKER.png,,,,,,,,,,,,,,,,,,,,,,,,,,,,,,,,,,,,
,,,,,,,,,,,,,,,,,60fcc14129fe2cd0ac39bff1,30,2022-02-12_13h15.01.500,lexical_decision_task_DD,2021.2.3,MacIntel,59.99880002,,,,,,,,,,,0.6584,1,,,,,,,,,,,,,,m,1,0.6584,,,,,,,,-0.059648437,-0.405894097,0,0,0,,0,163,163,0,1,TOMATO,C,old,m,./images/TOMATO.png,,,,,,,,,,,,,,,,,,,,,,,,,,,,,,,,,,,,
,,,,,,,,,,,,,,,,,60fcc14129fe2cd0ac39bff1,30,2022-02-12_13h15.01.500,lexical_decision_task_DD,2021.2.3,MacIntel,59.99880002,,,,,,,,,,,0.8491,1,,,,,,,,,,,,,,z,1,0.8491,,,,,,,,-0.059648437,-0.405894097,0,0,0,,0,164,164,97,1,CHIDS,HB,old,z,./images/CHIDSHB.png,,,,,,,,,,,,,,,,,,,,,,,,,,,,,,,,,,,,
,,,,,,,,,,,,,,,,,60fcc14129fe2cd0ac39bff1,30,2022-02-12_13h15.01.500,lexical_decision_task_DD,2021.2.3,MacIntel,59.99880002,,,,,,,,,,,0.6254,1,,,,,,,,,,,,,,m,1,0.6254,,,,,,,,-0.059648437,-0.405894097,0,0,0,,0,165,165,57,1,MOOSE,C,old,m,./images/MOOSE.png,,,,,,,,,,,,,,,,,,,,,,,,,,,,,,,,,,,,
,,,,,,,,,,,,,,,,,60fcc14129fe2cd0ac39bff1,30,2022-02-12_13h15.01.500,lexical_decision_task_DD,2021.2.3,MacIntel,59.99880002,,,,,,,,,,,1.1552,1,,,,,,,,,,,,,,z,1,1.1552,,,,,,,,-0.059648437,-0.405894097,0,0,0,,0,166,166,121,1,CEERS,HB,old,z,./images/CEERSHB.png,,,,,,,,,,,,,,,,,,,,,,,,,,,,,,,,,,,,
,,,,,,,,,,,,,,,,,60fcc14129fe2cd0ac39bff1,30,2022-02-12_13h15.01.500,lexical_decision_task_DD,2021.2.3,MacIntel,59.99880002,,,,,,,,,,,1.4659,1,,,,,,,,,,,,,,m,1,1.4659,,,,,,,,-0.059648437,-0.405894097,0,0,0,,0,167,167,43,1,MOSQUE,HB,old,m,./images/MOSQUEHB.png,,,,,,,,,,,,,,,,,,,,,,,,,,,,,,,,,,,,
,,,,,,,,,,,,,,,,,60fcc14129fe2cd0ac39bff1,30,2022-02-12_13h15.01.500,lexical_decision_task_DD,2021.2.3,MacIntel,59.99880002,,,,,,,,,,,,,,,,,,,,,,,,,,,,,,,,,,,,,,,,,,,,,,,,How likely will it be that you will recognize the words presented very blurred on a scale of 0 (not likely) to 100 (most likely)?,,,,,,-0.002148438,-0.427391493,1,0,0,jol_adv,4,12.5643,0,0,0,2,1,,,,,,,,,,,,,,,,,,,,,
,,,,,,,,,,,,,,,,,60fcc14129fe2cd0ac39bff1,30,2022-02-12_13h15.01.500,lexical_decision_task_DD,2021.2.3,MacIntel,59.99880002,,,,,,,,,,,,,,,,,,,,,,,,,,,,,,,,,,,,,,,,,,,,,,,,How likely will it be that you will recognize the words presented slighly blurred on a scale of 0 (not likely) to 100 (most likely)?,,,,,,,,,,,,5,6.2418,0,1,1,1,1,,,,,,,,,,,,,,,,,,,,,
,,,,,,,,,,,,,,,,,60fcc14129fe2cd0ac39bff1,30,2022-02-12_13h15.01.500,lexical_decision_task_DD,2021.2.3,MacIntel,59.99880002,,,,,,,,,,,,,,,,,,,,,,,,,,,,,,,,,,,,,,,,,,,,,,,,How likely will it be that you will recognize the words presented clearly on a scale of 0 (not likely) to 100 (most likely)?,,,,,,,,,,,,6,5.3229,0,2,2,0,1,,,,,,,,,,,,,,,,,,,,,
,,0.075651042,-0.390269097,1,0,0,,,,,,1,test,"In the next phase you will be presented with the words from the the first phase. Your job is to decide whether you remember seeing the word or not. If you remember seeing the word press ""old"" or type ""m"". If you do not remember seeing the word press ""new"" or type ""z"". Please press the space bar or click on continue to begin. ",,,60fcc14129fe2cd0ac39bff1,30,2022-02-12_13h15.01.500,lexical_decision_task_DD,2021.2.3,MacIntel,59.99880002,,,,,,,,,,,,,,,,,,,,,,,,,,,,,,,,,,,,,,,,,,,,,,,,,,,,,,,,,,,,,,,,,,,instr_done_button,0,0,0,0,1,,,,,,,,,,,,,,,
space,1.8423,0.075651042,-0.390269097,0,0,0,,,,,,1,test,"In the next phase you will be presented with the words from the the first phase. Your job is to decide whether you remember seeing the word or not. If you remember seeing the word press ""old"" or type ""m"". If you do not remember seeing the word press ""new"" or type ""z"". Please press the space bar or click on continue to begin. ",,,60fcc14129fe2cd0ac39bff1,30,2022-02-12_13h15.01.500,lexical_decision_task_DD,2021.2.3,MacIntel,59.99880002,,,,,,,,,,,,,,,,,,,,,,,,,,,,,,,,,,,,,,,,,,,,,,,,,,,,,,,,,,,,,,,,,,,,1,0,1,0,1,,,,,,,,,,,,,,,
space,3.2183,0.063980035,-0.232452257,0,0,0,,,,,,1,test,"In the next phase you will be presented with the words from the the first phase. Your job is to decide whether you remember seeing the word or not. If you remember seeing the word press ""old"" or type ""m"". If you do not remember seeing the word press ""new"" or type ""z"". Please press the space bar or click on continue to begin. ",,,60fcc14129fe2cd0ac39bff1,30,2022-02-12_13h15.01.500,lexical_decision_task_DD,2021.2.3,MacIntel,59.99880002,,,,,,,,,,,,,,,,,,,,,,,,,,,,,,,,,,,,,,,,,,,,,,,,,,,,,,,,,,,,,,,,,,,,2,0,2,0,1,,,,,,,,,,,,,,,
,,0.015972222,-0.400811632,1,0,0,,,,,,1,test,"In the next phase you will be presented with the words from the the first phase. Your job is to decide whether you remember seeing the word or not. If you remember seeing the word press ""old"" or type ""m"". If you do not remember seeing the word press ""new"" or type ""z"". Please press the space bar or click on continue to begin. ",,,60fcc14129fe2cd0ac39bff1,30,2022-02-12_13h15.01.500,lexical_decision_task_DD,2021.2.3,MacIntel,59.99880002,,,,,,,,,,,,,,,,,,,,,,,,,,,,,,,,,,,,,,,,,,,,,,,,,,,,,,,,,,,,,,,,,,,instr_done_button,3,0,3,0,1,,,,,,,,,,,,,,,
,,0.001818576,-0.41124566,1,0,0,,,,,,1,test,"In the next phase you will be presented with the words from the the first phase. Your job is to decide whether you remember seeing the word or not. If you remember seeing the word press ""old"" or type ""m"". If you do not remember seeing the word press ""new"" or type ""z"". Please press the space bar or click on continue to begin. ",,,60fcc14129fe2cd0ac39bff1,30,2022-02-12_13h15.01.500,lexical_decision_task_DD,2021.2.3,MacIntel,59.99880002,,,,,,,,,,,,,,,,,,,,,,,,,,,,,,,,,,,,,,,,,,,,,,,,,,,,,,,,,,,,,,,,,,,instr_done_button,4,0,4,0,1,,,,,,,,,,,,,,,
,,,,,,,,,,,,,,,,,60fcc14129fe2cd0ac39bff1,30,2022-02-12_13h15.01.500,lexical_decision_task_DD,2021.2.3,MacIntel,59.99880002,,,,,,,,,,,4.0802,1,,,,,,,,,,,,,,,,,,,,,,,,0.001818576,-0.41124566,0,0,0,,,,,,,SHORE,C,m,m,./images/SHORE.png,,,,,,,,,,,,,,,,,,,,,,m,1,4.0802,,,,,,,,0,0,0,12,1
,,,,,,,,,,,,,,,,,60fcc14129fe2cd0ac39bff1,30,2022-02-12_13h15.01.500,lexical_decision_task_DD,2021.2.3,MacIntel,59.99880002,,,,,,,,,,,1.1805,1,,,,,,,,,,,,,,,,,,,,,,,,0.001818576,-0.41124566,0,0,0,,,,,,,GRAPE,HB,z,m,./images/GRAPEHB.png,,,,,,,,,,,,,,,,,,,,,,z,1,1.1805,,,,,,,,0,1,1,100,1
,,,,,,,,,,,,,,,,,60fcc14129fe2cd0ac39bff1,30,2022-02-12_13h15.01.500,lexical_decision_task_DD,2021.2.3,MacIntel,59.99880002,,,,,,,,,,,0.8242,1,,,,,,,,,,,,,,,,,,,,,,,,0.001818576,-0.41124566,0,0,0,,,,,,,JUNGLE,LB,m,m,./images/JUNGLELB.png,,,,,,,,,,,,,,,,,,,,,,m,1,0.8242,,,,,,,,0,2,2,83,1
,,,,,,,,,,,,,,,,,60fcc14129fe2cd0ac39bff1,30,2022-02-12_13h15.01.500,lexical_decision_task_DD,2021.2.3,MacIntel,59.99880002,,,,,,,,,,,1.0481,0,,,,,,,,,,,,,,,,,,,,,,,,0.001818576,-0.41124566,0,0,0,,,,,,,PACKET,LB,m,m,./images/PACKETLB.png,,,,,,,,,,,,,,,,,,,,,,z,0,1.0481,,,,,,,,0,3,3,56,1
,,,,,,,,,,,,,,,,,60fcc14129fe2cd0ac39bff1,30,2022-02-12_13h15.01.500,lexical_decision_task_DD,2021.2.3,MacIntel,59.99880002,,,,,,,,,,,0.7509,1,,,,,,,,,,,,,,,,,,,,,,,,0.001818576,-0.41124566,0,0,0,,,,,,,CANYON,HB,m,m,./images/CANYONHB.png,,,,,,,,,,,,,,,,,,,,,,m,1,0.7509,,,,,,,,0,4,4,34,1
,,,,,,,,,,,,,,,,,60fcc14129fe2cd0ac39bff1,30,2022-02-12_13h15.01.500,lexical_decision_task_DD,2021.2.3,MacIntel,59.99880002,,,,,,,,,,,0.6964,1,,,,,,,,,,,,,,,,,,,,,,,,0.001818576,-0.41124566,0,0,0,,,,,,,TOMATO,C,m,m,./images/TOMATO.png,,,,,,,,,,,,,,,,,,,,,,m,1,0.6964,,,,,,,,0,5,5,0,1
,,,,,,,,,,,,,,,,,60fcc14129fe2cd0ac39bff1,30,2022-02-12_13h15.01.500,lexical_decision_task_DD,2021.2.3,MacIntel,59.99880002,,,,,,,,,,,0.8295,1,,,,,,,,,,,,,,,,,,,,,,,,0.001818576,-0.41124566,0,0,0,,,,,,,WALNUT,C,z,m,./images/WALNUT.png,,,,,,,,,,,,,,,,,,,,,,z,1,0.8295,,,,,,,,0,6,6,84,1
,,,,,,,,,,,,,,,,,60fcc14129fe2cd0ac39bff1,30,2022-02-12_13h15.01.500,lexical_decision_task_DD,2021.2.3,MacIntel,59.99880002,,,,,,,,,,,0.7004,1,,,,,,,,,,,,,,,,,,,,,,,,0.001818576,-0.41124566,0,0,0,,,,,,,MOSQUE,HB,m,m,./images/MOSQUEHB.png,,,,,,,,,,,,,,,,,,,,,,m,1,0.7004,,,,,,,,0,7,7,43,1
,,,,,,,,,,,,,,,,,60fcc14129fe2cd0ac39bff1,30,2022-02-12_13h15.01.500,lexical_decision_task_DD,2021.2.3,MacIntel,59.99880002,,,,,,,,,,,0.7421,0,,,,,,,,,,,,,,,,,,,,,,,,0.001818576,-0.41124566,0,0,0,,,,,,,SUNSET,HB,m,m,./images/SUNSETHB.png,,,,,,,,,,,,,,,,,,,,,,z,0,0.7421,,,,,,,,0,8,8,82,1
,,,,,,,,,,,,,,,,,60fcc14129fe2cd0ac39bff1,30,2022-02-12_13h15.01.500,lexical_decision_task_DD,2021.2.3,MacIntel,59.99880002,,,,,,,,,,,0.6807,1,,,,,,,,,,,,,,,,,,,,,,,,0.001818576,-0.41124566,0,0,0,,,,,,,TRIPOD,C,m,m,./images/TRIPOD.png,,,,,,,,,,,,,,,,,,,,,,m,1,0.6807,,,,,,,,0,9,9,54,1
,,,,,,,,,,,,,,,,,60fcc14129fe2cd0ac39bff1,30,2022-02-12_13h15.01.500,lexical_decision_task_DD,2021.2.3,MacIntel,59.99880002,,,,,,,,,,,0.7985,1,,,,,,,,,,,,,,,,,,,,,,,,0.001818576,-0.41124566,0,0,0,,,,,,,SWING,HB,m,m,./images/SWINGHB.png,,,,,,,,,,,,,,,,,,,,,,m,1,0.7985,,,,,,,,0,10,10,40,1
,,,,,,,,,,,,,,,,,60fcc14129fe2cd0ac39bff1,30,2022-02-12_13h15.01.500,lexical_decision_task_DD,2021.2.3,MacIntel,59.99880002,,,,,,,,,,,0.9068,1,,,,,,,,,,,,,,,,,,,,,,,,0.001818576,-0.41124566,0,0,0,,,,,,,KITTEN,C,m,m,./images/KITTEN.png,,,,,,,,,,,,,,,,,,,,,,m,1,0.9068,,,,,,,,0,11,11,45,1
,,,,,,,,,,,,,,,,,60fcc14129fe2cd0ac39bff1,30,2022-02-12_13h15.01.500,lexical_decision_task_DD,2021.2.3,MacIntel,59.99880002,,,,,,,,,,,1.1668,1,,,,,,,,,,,,,,,,,,,,,,,,0.001818576,-0.41124566,0,0,0,,,,,,,PARADE,LB,z,m,./images/PARADELB.png,,,,,,,,,,,,,,,,,,,,,,z,1,1.1668,,,,,,,,0,12,12,101,1
,,,,,,,,,,,,,,,,,60fcc14129fe2cd0ac39bff1,30,2022-02-12_13h15.01.500,lexical_decision_task_DD,2021.2.3,MacIntel,59.99880002,,,,,,,,,,,0.7672,1,,,,,,,,,,,,,,,,,,,,,,,,0.001818576,-0.41124566,0,0,0,,,,,,,MELON,HB,m,m,./images/MELONHB.png,,,,,,,,,,,,,,,,,,,,,,m,1,0.7672,,,,,,,,0,13,13,22,1
,,,,,,,,,,,,,,,,,60fcc14129fe2cd0ac39bff1,30,2022-02-12_13h15.01.500,lexical_decision_task_DD,2021.2.3,MacIntel,59.99880002,,,,,,,,,,,0.8012,1,,,,,,,,,,,,,,,,,,,,,,,,0.001818576,-0.41124566,0,0,0,,,,,,,PEBBLE,HB,z,m,./images/PEBBLEHB.png,,,,,,,,,,,,,,,,,,,,,,z,1,0.8012,,,,,,,,0,14,14,166,1
,,,,,,,,,,,,,,,,,60fcc14129fe2cd0ac39bff1,30,2022-02-12_13h15.01.500,lexical_decision_task_DD,2021.2.3,MacIntel,59.99880002,,,,,,,,,,,0.7151,1,,,,,,,,,,,,,,,,,,,,,,,,0.001818576,-0.41124566,0,0,0,,,,,,,GRAIN,C,m,m,./images/GRAIN.png,,,,,,,,,,,,,,,,,,,,,,m,1,0.7151,,,,,,,,0,15,15,75,1
,,,,,,,,,,,,,,,,,60fcc14129fe2cd0ac39bff1,30,2022-02-12_13h15.01.500,lexical_decision_task_DD,2021.2.3,MacIntel,59.99880002,,,,,,,,,,,0.769,1,,,,,,,,,,,,,,,,,,,,,,,,0.001818576,-0.41124566,0,0,0,,,,,,,SHELF,C,m,m,./images/SHELF.png,,,,,,,,,,,,,,,,,,,,,,m,1,0.769,,,,,,,,0,16,16,39,1
,,,,,,,,,,,,,,,,,60fcc14129fe2cd0ac39bff1,30,2022-02-12_13h15.01.500,lexical_decision_task_DD,2021.2.3,MacIntel,59.99880002,,,,,,,,,,,0.659,1,,,,,,,,,,,,,,,,,,,,,,,,0.001818576,-0.41124566,0,0,0,,,,,,,TWINS,C,m,m,./images/TWINS.png,,,,,,,,,,,,,,,,,,,,,,m,1,0.659,,,,,,,,0,17,17,60,1
,,,,,,,,,,,,,,,,,60fcc14129fe2cd0ac39bff1,30,2022-02-12_13h15.01.500,lexical_decision_task_DD,2021.2.3,MacIntel,59.99880002,,,,,,,,,,,2.0511,1,,,,,,,,,,,,,,,,,,,,,,,,0.001818576,-0.41124566,0,0,0,,,,,,,PLANET,LB,z,m,./images/PLANETLB.png,,,,,,,,,,,,,,,,,,,,,,z,1,2.0511,,,,,,,,0,18,18,164,1
,,,,,,,,,,,,,,,,,60fcc14129fe2cd0ac39bff1,30,2022-02-12_13h15.01.500,lexical_decision_task_DD,2021.2.3,MacIntel,59.99880002,,,,,,,,,,,0.7513,1,,,,,,,,,,,,,,,,,,,,,,,,0.001818576,-0.41124566,0,0,0,,,,,,,RAZOR,HB,z,m,./images/RAZORHB.png,,,,,,,,,,,,,,,,,,,,,,z,1,0.7513,,,,,,,,0,19,19,118,1
,,,,,,,,,,,,,,,,,60fcc14129fe2cd0ac39bff1,30,2022-02-12_13h15.01.500,lexical_decision_task_DD,2021.2.3,MacIntel,59.99880002,,,,,,,,,,,0.7041,1,,,,,,,,,,,,,,,,,,,,,,,,0.001818576,-0.41124566,0,0,0,,,,,,,LITTER,C,m,m,./images/LITTER.png,,,,,,,,,,,,,,,,,,,,,,m,1,0.7041,,,,,,,,0,20,20,78,1
,,,,,,,,,,,,,,,,,60fcc14129fe2cd0ac39bff1,30,2022-02-12_13h15.01.500,lexical_decision_task_DD,2021.2.3,MacIntel,59.99880002,,,,,,,,,,,0.6841,1,,,,,,,,,,,,,,,,,,,,,,,,0.001818576,-0.41124566,0,0,0,,,,,,,DONKEY,HB,z,m,./images/DONKEYHB.png,,,,,,,,,,,,,,,,,,,,,,z,1,0.6841,,,,,,,,0,21,21,103,1
,,,,,,,,,,,,,,,,,60fcc14129fe2cd0ac39bff1,30,2022-02-12_13h15.01.500,lexical_decision_task_DD,2021.2.3,MacIntel,59.99880002,,,,,,,,,,,1.0495,1,,,,,,,,,,,,,,,,,,,,,,,,0.001818576,-0.41124566,0,0,0,,,,,,,FLASK,C,z,m,./images/FLASK.png,,,,,,,,,,,,,,,,,,,,,,z,1,1.0495,,,,,,,,0,22,22,156,1
,,,,,,,,,,,,,,,,,60fcc14129fe2cd0ac39bff1,30,2022-02-12_13h15.01.500,lexical_decision_task_DD,2021.2.3,MacIntel,59.99880002,,,,,,,,,,,0.6666,1,,,,,,,,,,,,,,,,,,,,,,,,0.001818576,-0.41124566,0,0,0,,,,,,,ARROW,C,z,m,./images/ARROW.png,,,,,,,,,,,,,,,,,,,,,,z,1,0.6666,,,,,,,,0,23,23,153,1
,,,,,,,,,,,,,,,,,60fcc14129fe2cd0ac39bff1,30,2022-02-12_13h15.01.500,lexical_decision_task_DD,2021.2.3,MacIntel,59.99880002,,,,,,,,,,,0.8088,1,,,,,,,,,,,,,,,,,,,,,,,,0.001818576,-0.41124566,0,0,0,,,,,,,DESERT,HB,z,m,./images/DESERTHB.png,,,,,,,,,,,,,,,,,,,,,,z,1,0.8088,,,,,,,,0,24,24,136,1
,,,,,,,,,,,,,,,,,60fcc14129fe2cd0ac39bff1,30,2022-02-12_13h15.01.500,lexical_decision_task_DD,2021.2.3,MacIntel,59.99880002,,,,,,,,,,,0.7667,1,,,,,,,,,,,,,,,,,,,,,,,,0.001818576,-0.41124566,0,0,0,,,,,,,SAILOR,HB,m,m,./images/SAILORHB.png,,,,,,,,,,,,,,,,,,,,,,m,1,0.7667,,,,,,,,0,25,25,67,1
,,,,,,,,,,,,,,,,,60fcc14129fe2cd0ac39bff1,30,2022-02-12_13h15.01.500,lexical_decision_task_DD,2021.2.3,MacIntel,59.99880002,,,,,,,,,,,0.7543,1,,,,,,,,,,,,,,,,,,,,,,,,0.001818576,-0.41124566,0,0,0,,,,,,,BUNNY,HB,z,m,./images/BUNNYHB.png,,,,,,,,,,,,,,,,,,,,,,z,1,0.7543,,,,,,,,0,26,26,97,1
,,,,,,,,,,,,,,,,,60fcc14129fe2cd0ac39bff1,30,2022-02-12_13h15.01.500,lexical_decision_task_DD,2021.2.3,MacIntel,59.99880002,,,,,,,,,,,0.7018,1,,,,,,,,,,,,,,,,,,,,,,,,0.001818576,-0.41124566,0,0,0,,,,,,,BRIDE,HB,z,m,./images/BRIDEHB.png,,,,,,,,,,,,,,,,,,,,,,z,1,0.7018,,,,,,,,0,27,27,148,1
,,,,,,,,,,,,,,,,,60fcc14129fe2cd0ac39bff1,30,2022-02-12_13h15.01.500,lexical_decision_task_DD,2021.2.3,MacIntel,59.99880002,,,,,,,,,,,0.8662,1,,,,,,,,,,,,,,,,,,,,,,,,0.001818576,-0.41124566,0,0,0,,,,,,,BONNET,LB,m,m,./images/BONNETLB.png,,,,,,,,,,,,,,,,,,,,,,m,1,0.8662,,,,,,,,0,28,28,11,1
,,,,,,,,,,,,,,,,,60fcc14129fe2cd0ac39bff1,30,2022-02-12_13h15.01.500,lexical_decision_task_DD,2021.2.3,MacIntel,59.99880002,,,,,,,,,,,0.6755,1,,,,,,,,,,,,,,,,,,,,,,,,0.001818576,-0.41124566,0,0,0,,,,,,,RHINO,C,m,m,./images/RHINO.png,,,,,,,,,,,,,,,,,,,,,,m,1,0.6755,,,,,,,,0,29,29,9,1
,,,,,,,,,,,,,,,,,60fcc14129fe2cd0ac39bff1,30,2022-02-12_13h15.01.500,lexical_decision_task_DD,2021.2.3,MacIntel,59.99880002,,,,,,,,,,,0.8195,1,,,,,,,,,,,,,,,,,,,,,,,,0.001818576,-0.41124566,0,0,0,,,,,,,BOILER,C,z,m,./images/BOILER.png,,,,,,,,,,,,,,,,,,,,,,z,1,0.8195,,,,,,,,0,30,30,120,1
,,,,,,,,,,,,,,,,,60fcc14129fe2cd0ac39bff1,30,2022-02-12_13h15.01.500,lexical_decision_task_DD,2021.2.3,MacIntel,59.99880002,,,,,,,,,,,0.8027,1,,,,,,,,,,,,,,,,,,,,,,,,0.001818576,-0.41124566,0,0,0,,,,,,,CANDY,C,z,m,./images/CANDY.png,,,,,,,,,,,,,,,,,,,,,,z,1,0.8027,,,,,,,,0,31,31,123,1
,,,,,,,,,,,,,,,,,60fcc14129fe2cd0ac39bff1,30,2022-02-12_13h15.01.500,lexical_decision_task_DD,2021.2.3,MacIntel,59.99880002,,,,,,,,,,,0.8657,0,,,,,,,,,,,,,,,,,,,,,,,,0.001818576,-0.41124566,0,0,0,,,,,,,CHAIN,C,z,m,./images/CHAIN.png,,,,,,,,,,,,,,,,,,,,,,m,0,0.8657,,,,,,,,0,32,32,126,1
,,,,,,,,,,,,,,,,,60fcc14129fe2cd0ac39bff1,30,2022-02-12_13h15.01.500,lexical_decision_task_DD,2021.2.3,MacIntel,59.99880002,,,,,,,,,,,0.8212,1,,,,,,,,,,,,,,,,,,,,,,,,0.001818576,-0.41124566,0,0,0,,,,,,,WHEEL,LB,z,m,./images/WHEELLB.png,,,,,,,,,,,,,,,,,,,,,,z,1,0.8212,,,,,,,,0,33,33,161,1
,,,,,,,,,,,,,,,,,60fcc14129fe2cd0ac39bff1,30,2022-02-12_13h15.01.500,lexical_decision_task_DD,2021.2.3,MacIntel,59.99880002,,,,,,,,,,,0.6911,1,,,,,,,,,,,,,,,,,,,,,,,,0.001818576,-0.41124566,0,0,0,,,,,,,BARREL,LB,m,m,./images/BARRELLB.png,,,,,,,,,,,,,,,,,,,,,,m,1,0.6911,,,,,,,,0,34,34,32,1
,,,,,,,,,,,,,,,,,60fcc14129fe2cd0ac39bff1,30,2022-02-12_13h15.01.500,lexical_decision_task_DD,2021.2.3,MacIntel,59.99880002,,,,,,,,,,,0.9328,1,,,,,,,,,,,,,,,,,,,,,,,,0.001818576,-0.41124566,0,0,0,,,,,,,CRADLE,LB,m,m,./images/CRADLELB.png,,,,,,,,,,,,,,,,,,,,,,m,1,0.9328,,,,,,,,0,35,35,20,1
,,,,,,,,,,,,,,,,,60fcc14129fe2cd0ac39bff1,30,2022-02-12_13h15.01.500,lexical_decision_task_DD,2021.2.3,MacIntel,59.99880002,,,,,,,,,,,0.8655,1,,,,,,,,,,,,,,,,,,,,,,,,0.001818576,-0.41124566,0,0,0,,,,,,,CANDLE,HB,m,m,./images/CANDLEHB.png,,,,,,,,,,,,,,,,,,,,,,m,1,0.8655,,,,,,,,0,36,36,61,1
,,,,,,,,,,,,,,,,,60fcc14129fe2cd0ac39bff1,30,2022-02-12_13h15.01.500,lexical_decision_task_DD,2021.2.3,MacIntel,59.99880002,,,,,,,,,,,0.7479,1,,,,,,,,,,,,,,,,,,,,,,,,0.001818576,-0.41124566,0,0,0,,,,,,,RULER,HB,z,m,./images/RULERHB.png,,,,,,,,,,,,,,,,,,,,,,z,1,0.7479,,,,,,,,0,37,37,163,1
,,,,,,,,,,,,,,,,,60fcc14129fe2cd0ac39bff1,30,2022-02-12_13h15.01.500,lexical_decision_task_DD,2021.2.3,MacIntel,59.99880002,,,,,,,,,,,0.6993,0,,,,,,,,,,,,,,,,,,,,,,,,0.001818576,-0.41124566,0,0,0,,,,,,,FOLDER,C,m,m,./images/FOLDER.png,,,,,,,,,,,,,,,,,,,,,,z,0,0.6993,,,,,,,,0,38,38,42,1
,,,,,,,,,,,,,,,,,60fcc14129fe2cd0ac39bff1,30,2022-02-12_13h15.01.500,lexical_decision_task_DD,2021.2.3,MacIntel,59.99880002,,,,,,,,,,,0.8575,1,,,,,,,,,,,,,,,,,,,,,,,,0.001818576,-0.41124566,0,0,0,,,,,,,PILOT,LB,z,m,./images/PILOTLB.png,,,,,,,,,,,,,,,,,,,,,,z,1,0.8575,,,,,,,,0,39,39,134,1
,,,,,,,,,,,,,,,,,60fcc14129fe2cd0ac39bff1,30,2022-02-12_13h15.01.500,lexical_decision_task_DD,2021.2.3,MacIntel,59.99880002,,,,,,,,,,,0.769,1,,,,,,,,,,,,,,,,,,,,,,,,0.001818576,-0.41124566,0,0,0,,,,,,,MALLET,LB,m,m,./images/MALLETLB.png,,,,,,,,,,,,,,,,,,,,,,m,1,0.769,,,,,,,,0,40,40,50,1
,,,,,,,,,,,,,,,,,60fcc14129fe2cd0ac39bff1,30,2022-02-12_13h15.01.500,lexical_decision_task_DD,2021.2.3,MacIntel,59.99880002,,,,,,,,,,,1.1651,1,,,,,,,,,,,,,,,,,,,,,,,,0.001818576,-0.41124566,1,0,0,,,,,,,CLOTH,LB,z,m,./images/CLOTHLB.png,break_done_button,,,,,,,,,,,,,,,,,,,,,z,1,1.1651,,,,,,,,0,41,41,107,1
,,,,,,,,,,,,,,,,,60fcc14129fe2cd0ac39bff1,30,2022-02-12_13h15.01.500,lexical_decision_task_DD,2021.2.3,MacIntel,59.99880002,,,,,,,,,,,1.0572,1,,,,,,,,,,,,,,,,,,,,,,,,0.001818576,-0.41124566,0,0,0,,,,,,,BISHOP,HB,z,m,./images/BISHOPHB.png,,,,,,,,,,,,,,,,,,,,,,z,1,1.0572,,,,,,,,0,42,42,133,1
,,,,,,,,,,,,,,,,,60fcc14129fe2cd0ac39bff1,30,2022-02-12_13h15.01.500,lexical_decision_task_DD,2021.2.3,MacIntel,59.99880002,,,,,,,,,,,0.6932,1,,,,,,,,,,,,,,,,,,,,,,,,0.001818576,-0.41124566,0,0,0,,,,,,,JELLY,HB,m,m,./images/JELLYHB.png,,,,,,,,,,,,,,,,,,,,,,m,1,0.6932,,,,,,,,0,43,43,64,1
,,,,,,,,,,,,,,,,,60fcc14129fe2cd0ac39bff1,30,2022-02-12_13h15.01.500,lexical_decision_task_DD,2021.2.3,MacIntel,59.99880002,,,,,,,,,,,1.215,1,,,,,,,,,,,,,,,,,,,,,,,,0.001818576,-0.41124566,0,0,0,,,,,,,COLLAR,C,z,m,./images/COLLAR.png,,,,,,,,,,,,,,,,,,,,,,z,1,1.215,,,,,,,,0,44,44,99,1
,,,,,,,,,,,,,,,,,60fcc14129fe2cd0ac39bff1,30,2022-02-12_13h15.01.500,lexical_decision_task_DD,2021.2.3,MacIntel,59.99880002,,,,,,,,,,,0.6403,1,,,,,,,,,,,,,,,,,,,,,,,,0.001818576,-0.41124566,0,0,0,,,,,,,BROOM,C,z,m,./images/BROOM.png,,,,,,,,,,,,,,,,,,,,,,z,1,0.6403,,,,,,,,0,45,45,162,1
,,,,,,,,,,,,,,,,,60fcc14129fe2cd0ac39bff1,30,2022-02-12_13h15.01.500,lexical_decision_task_DD,2021.2.3,MacIntel,59.99880002,,,,,,,,,,,0.7334,1,,,,,,,,,,,,,,,,,,,,,,,,0.001818576,-0.41124566,0,0,0,,,,,,,VALLEY,LB,z,m,./images/VALLEYLB.png,,,,,,,,,,,,,,,,,,,,,,z,1,0.7334,,,,,,,,0,46,46,152,1
,,,,,,,,,,,,,,,,,60fcc14129fe2cd0ac39bff1,30,2022-02-12_13h15.01.500,lexical_decision_task_DD,2021.2.3,MacIntel,59.99880002,,,,,,,,,,,0.6806,1,,,,,,,,,,,,,,,,,,,,,,,,0.001818576,-0.41124566,0,0,0,,,,,,,SCREW,C,m,m,./images/SCREW.png,,,,,,,,,,,,,,,,,,,,,,m,1,0.6806,,,,,,,,0,47,47,24,1
,,,,,,,,,,,,,,,,,60fcc14129fe2cd0ac39bff1,30,2022-02-12_13h15.01.500,lexical_decision_task_DD,2021.2.3,MacIntel,59.99880002,,,,,,,,,,,0.867,1,,,,,,,,,,,,,,,,,,,,,,,,0.001818576,-0.41124566,0,0,0,,,,,,,CANOE,HB,z,m,./images/CANOEHB.png,,,,,,,,,,,,,,,,,,,,,,z,1,0.867,,,,,,,,0,48,48,142,1
,,,,,,,,,,,,,,,,,60fcc14129fe2cd0ac39bff1,30,2022-02-12_13h15.01.500,lexical_decision_task_DD,2021.2.3,MacIntel,59.99880002,,,,,,,,,,,0.8989,1,,,,,,,,,,,,,,,,,,,,,,,,0.001818576,-0.41124566,0,0,0,,,,,,,CRUMB,LB,m,m,./images/CRUMBLB.png,,,,,,,,,,,,,,,,,,,,,,m,1,0.8989,,,,,,,,0,49,49,29,1
,,,,,,,,,,,,,,,,,60fcc14129fe2cd0ac39bff1,30,2022-02-12_13h15.01.500,lexical_decision_task_DD,2021.2.3,MacIntel,59.99880002,,,,,,,,,,,0.6745,1,,,,,,,,,,,,,,,,,,,,,,,,0.001818576,-0.41124566,0,0,0,,,,,,,KIDNEY,C,m,m,./images/KIDNEY.png,,,,,,,,,,,,,,,,,,,,,,m,1,0.6745,,,,,,,,0,50,50,21,1
,,,,,,,,,,,,,,,,,60fcc14129fe2cd0ac39bff1,30,2022-02-12_13h15.01.500,lexical_decision_task_DD,2021.2.3,MacIntel,59.99880002,,,,,,,,,,,1.3517,0,,,,,,,,,,,,,,,,,,,,,,,,0.001818576,-0.41124566,0,0,0,,,,,,,FERRY,C,z,m,./images/FERRY.png,,,,,,,,,,,,,,,,,,,,,,m,0,1.3517,,,,,,,,0,51,51,141,1
,,,,,,,,,,,,,,,,,60fcc14129fe2cd0ac39bff1,30,2022-02-12_13h15.01.500,lexical_decision_task_DD,2021.2.3,MacIntel,59.99880002,,,,,,,,,,,0.7911,1,,,,,,,,,,,,,,,,,,,,,,,,0.001818576,-0.41124566,0,0,0,,,,,,,GRANNY,LB,z,m,./images/GRANNYLB.png,,,,,,,,,,,,,,,,,,,,,,z,1,0.7911,,,,,,,,0,52,52,104,1
,,,,,,,,,,,,,,,,,60fcc14129fe2cd0ac39bff1,30,2022-02-12_13h15.01.500,lexical_decision_task_DD,2021.2.3,MacIntel,59.99880002,,,,,,,,,,,0.7101,1,,,,,,,,,,,,,,,,,,,,,,,,0.001818576,-0.41124566,0,0,0,,,,,,,FINGER,C,m,m,./images/FINGER.png,,,,,,,,,,,,,,,,,,,,,,m,1,0.7101,,,,,,,,0,53,53,3,1
,,,,,,,,,,,,,,,,,60fcc14129fe2cd0ac39bff1,30,2022-02-12_13h15.01.500,lexical_decision_task_DD,2021.2.3,MacIntel,59.99880002,,,,,,,,,,,0.7176,1,,,,,,,,,,,,,,,,,,,,,,,,0.001818576,-0.41124566,0,0,0,,,,,,,FALCON,HB,m,m,./images/FALCONHB.png,,,,,,,,,,,,,,,,,,,,,,m,1,0.7176,,,,,,,,0,54,54,28,1
,,,,,,,,,,,,,,,,,60fcc14129fe2cd0ac39bff1,30,2022-02-12_13h15.01.500,lexical_decision_task_DD,2021.2.3,MacIntel,59.99880002,,,,,,,,,,,0.7349,1,,,,,,,,,,,,,,,,,,,,,,,,0.001818576,-0.41124566,0,0,0,,,,,,,PURSE,LB,m,m,./images/PURSELB.png,,,,,,,,,,,,,,,,,,,,,,m,1,0.7349,,,,,,,,0,55,55,62,1
,,,,,,,,,,,,,,,,,60fcc14129fe2cd0ac39bff1,30,2022-02-12_13h15.01.500,lexical_decision_task_DD,2021.2.3,MacIntel,59.99880002,,,,,,,,,,,0.6492,1,,,,,,,,,,,,,,,,,,,,,,,,0.001818576,-0.41124566,0,0,0,,,,,,,LADDER,LB,m,m,./images/LADDERLB.png,,,,,,,,,,,,,,,,,,,,,,m,1,0.6492,,,,,,,,0,56,56,38,1
,,,,,,,,,,,,,,,,,60fcc14129fe2cd0ac39bff1,30,2022-02-12_13h15.01.500,lexical_decision_task_DD,2021.2.3,MacIntel,59.99880002,,,,,,,,,,,0.7469,1,,,,,,,,,,,,,,,,,,,,,,,,0.001818576,-0.41124566,0,0,0,,,,,,,LIZARD,LB,m,m,./images/LIZARDLB.png,,,,,,,,,,,,,,,,,,,,,,m,1,0.7469,,,,,,,,0,57,57,44,1
,,,,,,,,,,,,,,,,,60fcc14129fe2cd0ac39bff1,30,2022-02-12_13h15.01.500,lexical_decision_task_DD,2021.2.3,MacIntel,59.99880002,,,,,,,,,,,0.9087,1,,,,,,,,,,,,,,,,,,,,,,,,0.001818576,-0.41124566,0,0,0,,,,,,,CASINO,HB,z,m,./images/CASINOHB.png,,,,,,,,,,,,,,,,,,,,,,z,1,0.9087,,,,,,,,0,58,58,112,1
,,,,,,,,,,,,,,,,,60fcc14129fe2cd0ac39bff1,30,2022-02-12_13h15.01.500,lexical_decision_task_DD,2021.2.3,MacIntel,59.99880002,,,,,,,,,,,0.8524,1,,,,,,,,,,,,,,,,,,,,,,,,0.001818576,-0.41124566,0,0,0,,,,,,,BERRY,LB,m,m,./images/BERRYLB.png,,,,,,,,,,,,,,,,,,,,,,m,1,0.8524,,,,,,,,0,59,59,47,1
,,,,,,,,,,,,,,,,,60fcc14129fe2cd0ac39bff1,30,2022-02-12_13h15.01.500,lexical_decision_task_DD,2021.2.3,MacIntel,59.99880002,,,,,,,,,,,0.8037,1,,,,,,,,,,,,,,,,,,,,,,,,0.001818576,-0.41124566,0,0,0,,,,,,,PARCEL,C,z,m,./images/PARCEL.png,,,,,,,,,,,,,,,,,,,,,,z,1,0.8037,,,,,,,,0,60,60,102,1
,,,,,,,,,,,,,,,,,60fcc14129fe2cd0ac39bff1,30,2022-02-12_13h15.01.500,lexical_decision_task_DD,2021.2.3,MacIntel,59.99880002,,,,,,,,,,,1.9743,0,,,,,,,,,,,,,,,,,,,,,,,,0.001818576,-0.41124566,0,0,0,,,,,,,BAKER,C,z,m,./images/BAKER.png,,,,,,,,,,,,,,,,,,,,,,m,0,1.9743,,,,,,,,0,61,61,147,1
,,,,,,,,,,,,,,,,,60fcc14129fe2cd0ac39bff1,30,2022-02-12_13h15.01.500,lexical_decision_task_DD,2021.2.3,MacIntel,59.99880002,,,,,,,,,,,0.6849,0,,,,,,,,,,,,,,,,,,,,,,,,0.001818576,-0.41124566,0,0,0,,,,,,,STEAK,HB,z,m,./images/STEAKHB.png,,,,,,,,,,,,,,,,,,,,,,m,0,0.6849,,,,,,,,0,62,62,115,1
,,,,,,,,,,,,,,,,,60fcc14129fe2cd0ac39bff1,30,2022-02-12_13h15.01.500,lexical_decision_task_DD,2021.2.3,MacIntel,59.99880002,,,,,,,,,,,0.867,0,,,,,,,,,,,,,,,,,,,,,,,,0.001818576,-0.41124566,0,0,0,,,,,,,STAIN,C,z,m,./images/STAIN.png,,,,,,,,,,,,,,,,,,,,,,m,0,0.867,,,,,,,,0,63,63,90,1
,,,,,,,,,,,,,,,,,60fcc14129fe2cd0ac39bff1,30,2022-02-12_13h15.01.500,lexical_decision_task_DD,2021.2.3,MacIntel,59.99880002,,,,,,,,,,,0.6349,1,,,,,,,,,,,,,,,,,,,,,,,,0.001818576,-0.41124566,0,0,0,,,,,,,MIRROR,C,m,m,./images/MIRROR.png,,,,,,,,,,,,,,,,,,,,,,m,1,0.6349,,,,,,,,0,64,64,63,1
,,,,,,,,,,,,,,,,,60fcc14129fe2cd0ac39bff1,30,2022-02-12_13h15.01.500,lexical_decision_task_DD,2021.2.3,MacIntel,59.99880002,,,,,,,,,,,0.7407,1,,,,,,,,,,,,,,,,,,,,,,,,0.001818576,-0.41124566,0,0,0,,,,,,,ENGINE,LB,z,m,./images/ENGINELB.png,,,,,,,,,,,,,,,,,,,,,,z,1,0.7407,,,,,,,,0,65,65,122,1
,,,,,,,,,,,,,,,,,60fcc14129fe2cd0ac39bff1,30,2022-02-12_13h15.01.500,lexical_decision_task_DD,2021.2.3,MacIntel,59.99880002,,,,,,,,,,,0.7896,1,,,,,,,,,,,,,,,,,,,,,,,,0.001818576,-0.41124566,0,0,0,,,,,,,BIRTH,HB,m,m,./images/BIRTHHB.png,,,,,,,,,,,,,,,,,,,,,,m,1,0.7896,,,,,,,,0,66,66,37,1
,,,,,,,,,,,,,,,,,60fcc14129fe2cd0ac39bff1,30,2022-02-12_13h15.01.500,lexical_decision_task_DD,2021.2.3,MacIntel,59.99880002,,,,,,,,,,,0.6745,1,,,,,,,,,,,,,,,,,,,,,,,,0.001818576,-0.41124566,0,0,0,,,,,,,SAUCE,C,z,m,./images/SAUCE.png,,,,,,,,,,,,,,,,,,,,,,z,1,0.6745,,,,,,,,0,67,67,135,1
,,,,,,,,,,,,,,,,,60fcc14129fe2cd0ac39bff1,30,2022-02-12_13h15.01.500,lexical_decision_task_DD,2021.2.3,MacIntel,59.99880002,,,,,,,,,,,0.9829,1,,,,,,,,,,,,,,,,,,,,,,,,0.001818576,-0.41124566,0,0,0,,,,,,,SHIELD,C,z,m,./images/SHIELD.png,,,,,,,,,,,,,,,,,,,,,,z,1,0.9829,,,,,,,,0,68,68,132,1
,,,,,,,,,,,,,,,,,60fcc14129fe2cd0ac39bff1,30,2022-02-12_13h15.01.500,lexical_decision_task_DD,2021.2.3,MacIntel,59.99880002,,,,,,,,,,,0.9325,0,,,,,,,,,,,,,,,,,,,,,,,,0.001818576,-0.41124566,0,0,0,,,,,,,BANNER,HB,m,m,./images/BANNERHB.png,,,,,,,,,,,,,,,,,,,,,,z,0,0.9325,,,,,,,,0,69,69,52,1
,,,,,,,,,,,,,,,,,60fcc14129fe2cd0ac39bff1,30,2022-02-12_13h15.01.500,lexical_decision_task_DD,2021.2.3,MacIntel,59.99880002,,,,,,,,,,,0.6826,1,,,,,,,,,,,,,,,,,,,,,,,,0.001818576,-0.41124566,0,0,0,,,,,,,PASTA,LB,m,m,./images/PASTALB.png,,,,,,,,,,,,,,,,,,,,,,m,1,0.6826,,,,,,,,0,70,70,5,1
,,,,,,,,,,,,,,,,,60fcc14129fe2cd0ac39bff1,30,2022-02-12_13h15.01.500,lexical_decision_task_DD,2021.2.3,MacIntel,59.99880002,,,,,,,,,,,0.7585,1,,,,,,,,,,,,,,,,,,,,,,,,0.001818576,-0.41124566,0,0,0,,,,,,,CEMENT,LB,m,m,./images/CEMENTLB.png,,,,,,,,,,,,,,,,,,,,,,m,1,0.7585,,,,,,,,0,71,71,74,1
,,,,,,,,,,,,,,,,,60fcc14129fe2cd0ac39bff1,30,2022-02-12_13h15.01.500,lexical_decision_task_DD,2021.2.3,MacIntel,59.99880002,,,,,,,,,,,0.8214,1,,,,,,,,,,,,,,,,,,,,,,,,0.001818576,-0.41124566,0,0,0,,,,,,,BAMBOO,LB,z,m,./images/BAMBOOLB.png,,,,,,,,,,,,,,,,,,,,,,z,1,0.8214,,,,,,,,0,72,72,89,1
,,,,,,,,,,,,,,,,,60fcc14129fe2cd0ac39bff1,30,2022-02-12_13h15.01.500,lexical_decision_task_DD,2021.2.3,MacIntel,59.99880002,,,,,,,,,,,1.2033,1,,,,,,,,,,,,,,,,,,,,,,,,0.001818576,-0.41124566,0,0,0,,,,,,,CRATER,C,z,m,./images/CRATER.png,,,,,,,,,,,,,,,,,,,,,,z,1,1.2033,,,,,,,,0,73,73,87,1
,,,,,,,,,,,,,,,,,60fcc14129fe2cd0ac39bff1,30,2022-02-12_13h15.01.500,lexical_decision_task_DD,2021.2.3,MacIntel,59.99880002,,,,,,,,,,,0.783,1,,,,,,,,,,,,,,,,,,,,,,,,0.001818576,-0.41124566,0,0,0,,,,,,,SLOPE,C,z,m,./images/SLOPE.png,,,,,,,,,,,,,,,,,,,,,,z,1,0.783,,,,,,,,0,74,74,114,1
,,,,,,,,,,,,,,,,,60fcc14129fe2cd0ac39bff1,30,2022-02-12_13h15.01.500,lexical_decision_task_DD,2021.2.3,MacIntel,59.99880002,,,,,,,,,,,0.8425,0,,,,,,,,,,,,,,,,,,,,,,,,0.001818576,-0.41124566,0,0,0,,,,,,,BRUSH,LB,z,m,./images/BRUSHLB.png,,,,,,,,,,,,,,,,,,,,,,m,0,0.8425,,,,,,,,0,75,75,143,1
,,,,,,,,,,,,,,,,,60fcc14129fe2cd0ac39bff1,30,2022-02-12_13h15.01.500,lexical_decision_task_DD,2021.2.3,MacIntel,59.99880002,,,,,,,,,,,0.7493,1,,,,,,,,,,,,,,,,,,,,,,,,0.001818576,-0.41124566,0,0,0,,,,,,,BANANA,HB,z,m,./images/BANANAHB.png,,,,,,,,,,,,,,,,,,,,,,z,1,0.7493,,,,,,,,0,76,76,154,1
,,,,,,,,,,,,,,,,,60fcc14129fe2cd0ac39bff1,30,2022-02-12_13h15.01.500,lexical_decision_task_DD,2021.2.3,MacIntel,59.99880002,,,,,,,,,,,0.9157,1,,,,,,,,,,,,,,,,,,,,,,,,0.001818576,-0.41124566,0,0,0,,,,,,,PEACH,LB,m,m,./images/PEACHLB.png,,,,,,,,,,,,,,,,,,,,,,m,1,0.9157,,,,,,,,0,77,77,35,1
,,,,,,,,,,,,,,,,,60fcc14129fe2cd0ac39bff1,30,2022-02-12_13h15.01.500,lexical_decision_task_DD,2021.2.3,MacIntel,59.99880002,,,,,,,,,,,0.7846,1,,,,,,,,,,,,,,,,,,,,,,,,0.001818576,-0.41124566,0,0,0,,,,,,,SPINE,LB,z,m,./images/SPINELB.png,,,,,,,,,,,,,,,,,,,,,,z,1,0.7846,,,,,,,,0,78,78,149,1
,,,,,,,,,,,,,,,,,60fcc14129fe2cd0ac39bff1,30,2022-02-12_13h15.01.500,lexical_decision_task_DD,2021.2.3,MacIntel,59.99880002,,,,,,,,,,,0.852,1,,,,,,,,,,,,,,,,,,,,,,,,0.001818576,-0.41124566,0,0,0,,,,,,,DRUMS,HB,m,m,./images/DRUMSHB.png,,,,,,,,,,,,,,,,,,,,,,m,1,0.852,,,,,,,,0,79,79,49,1
,,,,,,,,,,,,,,,,,60fcc14129fe2cd0ac39bff1,30,2022-02-12_13h15.01.500,lexical_decision_task_DD,2021.2.3,MacIntel,59.99880002,,,,,,,,,,,0.6416,1,,,,,,,,,,,,,,,,,,,,,,,,0.001818576,-0.41124566,0,0,0,,,,,,,HEATER,LB,z,m,./images/HEATERLB.png,,,,,,,,,,,,,,,,,,,,,,z,1,0.6416,,,,,,,,0,80,80,140,1
,,,,,,,,,,,,,,,,,60fcc14129fe2cd0ac39bff1,30,2022-02-12_13h15.01.500,lexical_decision_task_DD,2021.2.3,MacIntel,59.99880002,,,,,,,,,,,1.9995,1,,,,,,,,,,,,,,,,,,,,,,,,0.001818576,-0.41124566,0,0,0,,,,,,,POKER,HB,z,m,./images/POKERHB.png,,,,,,,,,,,,,,,,,,,,,,z,1,1.9995,,,,,,,,0,81,81,151,1
,,,,,,,,,,,,,,,,,60fcc14129fe2cd0ac39bff1,30,2022-02-12_13h15.01.500,lexical_decision_task_DD,2021.2.3,MacIntel,59.99880002,,,,,,,,,,,1.1052,1,,,,,,,,,,,,,,,,,,,,,,,,0.001818576,-0.41124566,0,0,0,,,,,,,CLOUD,LB,z,m,./images/CLOUDLB.png,,,,,,,,,,,,,,,,,,,,,,z,1,1.1052,,,,,,,,0,82,82,110,1
,,,,,,,,,,,,,,,,,60fcc14129fe2cd0ac39bff1,30,2022-02-12_13h15.01.500,lexical_decision_task_DD,2021.2.3,MacIntel,59.99880002,,,,,,,,,,,0.6496,1,,,,,,,,,,,,,,,,,,,,,,,,-0.004227431,-0.385559896,1,0,0,,,,,,,JAGUAR,C,m,m,./images/JAGUAR.png,break_done_button,,,,,,,,,,,,,,,,,,,,,m,1,0.6496,,,,,,,,0,83,83,18,1
,,,,,,,,,,,,,,,,,60fcc14129fe2cd0ac39bff1,30,2022-02-12_13h15.01.500,lexical_decision_task_DD,2021.2.3,MacIntel,59.99880002,,,,,,,,,,,1.4731,1,,,,,,,,,,,,,,,,,,,,,,,,-0.004227431,-0.385559896,0,0,0,,,,,,,POSTER,LB,z,m,./images/POSTERLB.png,,,,,,,,,,,,,,,,,,,,,,z,1,1.4731,,,,,,,,0,84,84,137,1
,,,,,,,,,,,,,,,,,60fcc14129fe2cd0ac39bff1,30,2022-02-12_13h15.01.500,lexical_decision_task_DD,2021.2.3,MacIntel,59.99880002,,,,,,,,,,,0.652,1,,,,,,,,,,,,,,,,,,,,,,,,-0.004227431,-0.385559896,0,0,0,,,,,,,TORCH,LB,m,m,./images/TORCHLB.png,,,,,,,,,,,,,,,,,,,,,,m,1,0.652,,,,,,,,0,85,85,68,1
,,,,,,,,,,,,,,,,,60fcc14129fe2cd0ac39bff1,30,2022-02-12_13h15.01.500,lexical_decision_task_DD,2021.2.3,MacIntel,59.99880002,,,,,,,,,,,0.7674,1,,,,,,,,,,,,,,,,,,,,,,,,-0.004227431,-0.385559896,0,0,0,,,,,,,BURIAL,LB,m,m,./images/BURIALLB.png,,,,,,,,,,,,,,,,,,,,,,m,1,0.7674,,,,,,,,0,86,86,59,1
,,,,,,,,,,,,,,,,,60fcc14129fe2cd0ac39bff1,30,2022-02-12_13h15.01.500,lexical_decision_task_DD,2021.2.3,MacIntel,59.99880002,,,,,,,,,,,0.7476,1,,,,,,,,,,,,,,,,,,,,,,,,-0.004227431,-0.385559896,0,0,0,,,,,,,MEDAL,LB,z,m,./images/MEDALLB.png,,,,,,,,,,,,,,,,,,,,,,z,1,0.7476,,,,,,,,0,87,87,95,1
,,,,,,,,,,,,,,,,,60fcc14129fe2cd0ac39bff1,30,2022-02-12_13h15.01.500,lexical_decision_task_DD,2021.2.3,MacIntel,59.99880002,,,,,,,,,,,0.7076,1,,,,,,,,,,,,,,,,,,,,,,,,-0.004227431,-0.385559896,0,0,0,,,,,,,MUMMY,HB,z,m,./images/MUMMYHB.png,,,,,,,,,,,,,,,,,,,,,,z,1,0.7076,,,,,,,,0,88,88,130,1
,,,,,,,,,,,,,,,,,60fcc14129fe2cd0ac39bff1,30,2022-02-12_13h15.01.500,lexical_decision_task_DD,2021.2.3,MacIntel,59.99880002,,,,,,,,,,,0.7836,1,,,,,,,,,,,,,,,,,,,,,,,,-0.004227431,-0.385559896,0,0,0,,,,,,,DOUGH,HB,m,m,./images/DOUGHHB.png,,,,,,,,,,,,,,,,,,,,,,m,1,0.7836,,,,,,,,0,89,89,19,1
,,,,,,,,,,,,,,,,,60fcc14129fe2cd0ac39bff1,30,2022-02-12_13h15.01.500,lexical_decision_task_DD,2021.2.3,MacIntel,59.99880002,,,,,,,,,,,0.7009,1,,,,,,,,,,,,,,,,,,,,,,,,-0.004227431,-0.385559896,0,0,0,,,,,,,GARDEN,HB,z,m,./images/GARDENHB.png,,,,,,,,,,,,,,,,,,,,,,z,1,0.7009,,,,,,,,0,90,90,94,1
,,,,,,,,,,,,,,,,,60fcc14129fe2cd0ac39bff1,30,2022-02-12_13h15.01.500,lexical_decision_task_DD,2021.2.3,MacIntel,59.99880002,,,,,,,,,,,0.6716,1,,,,,,,,,,,,,,,,,,,,,,,,-0.004227431,-0.385559896,0,0,0,,,,,,,MAGGOT,C,m,m,./images/MAGGOT.png,,,,,,,,,,,,,,,,,,,,,,m,1,0.6716,,,,,,,,0,91,91,33,1
,,,,,,,,,,,,,,,,,60fcc14129fe2cd0ac39bff1,30,2022-02-12_13h15.01.500,lexical_decision_task_DD,2021.2.3,MacIntel,59.99880002,,,,,,,,,,,0.8188,1,,,,,,,,,,,,,,,,,,,,,,,,-0.004227431,-0.385559896,0,0,0,,,,,,,MIDGET,HB,z,m,./images/MIDGETHB.png,,,,,,,,,,,,,,,,,,,,,,z,1,0.8188,,,,,,,,0,92,92,160,1
,,,,,,,,,,,,,,,,,60fcc14129fe2cd0ac39bff1,30,2022-02-12_13h15.01.500,lexical_decision_task_DD,2021.2.3,MacIntel,59.99880002,,,,,,,,,,,0.6402,1,,,,,,,,,,,,,,,,,,,,,,,,-0.004227431,-0.385559896,0,0,0,,,,,,,CRUST,HB,m,m,./images/CRUSTHB.png,,,,,,,,,,,,,,,,,,,,,,m,1,0.6402,,,,,,,,0,93,93,79,1
,,,,,,,,,,,,,,,,,60fcc14129fe2cd0ac39bff1,30,2022-02-12_13h15.01.500,lexical_decision_task_DD,2021.2.3,MacIntel,59.99880002,,,,,,,,,,,0.6355,1,,,,,,,,,,,,,,,,,,,,,,,,-0.004227431,-0.385559896,0,0,0,,,,,,,PICKLE,LB,m,m,./images/PICKLELB.png,,,,,,,,,,,,,,,,,,,,,,m,1,0.6355,,,,,,,,0,94,94,14,1
,,,,,,,,,,,,,,,,,60fcc14129fe2cd0ac39bff1,30,2022-02-12_13h15.01.500,lexical_decision_task_DD,2021.2.3,MacIntel,59.99880002,,,,,,,,,,,0.6924,1,,,,,,,,,,,,,,,,,,,,,,,,-0.004227431,-0.385559896,0,0,0,,,,,,,MUFFIN,HB,m,m,./images/MUFFINHB.png,,,,,,,,,,,,,,,,,,,,,,m,1,0.6924,,,,,,,,0,95,95,55,1
,,,,,,,,,,,,,,,,,60fcc14129fe2cd0ac39bff1,30,2022-02-12_13h15.01.500,lexical_decision_task_DD,2021.2.3,MacIntel,59.99880002,,,,,,,,,,,0.6836,1,,,,,,,,,,,,,,,,,,,,,,,,-0.004227431,-0.385559896,0,0,0,,,,,,,POODLE,C,m,m,./images/POODLE.png,,,,,,,,,,,,,,,,,,,,,,m,1,0.6836,,,,,,,,0,96,96,81,1
,,,,,,,,,,,,,,,,,60fcc14129fe2cd0ac39bff1,30,2022-02-12_13h15.01.500,lexical_decision_task_DD,2021.2.3,MacIntel,59.99880002,,,,,,,,,,,1.2476,0,,,,,,,,,,,,,,,,,,,,,,,,-0.004227431,-0.385559896,0,0,0,,,,,,,CLOWN,HB,z,m,./images/CLOWNHB.png,,,,,,,,,,,,,,,,,,,,,,m,0,1.2476,,,,,,,,0,97,97,106,1
,,,,,,,,,,,,,,,,,60fcc14129fe2cd0ac39bff1,30,2022-02-12_13h15.01.500,lexical_decision_task_DD,2021.2.3,MacIntel,59.99880002,,,,,,,,,,,0.7386,1,,,,,,,,,,,,,,,,,,,,,,,,-0.004227431,-0.385559896,0,0,0,,,,,,,GLOVE,HB,z,m,./images/GLOVEHB.png,,,,,,,,,,,,,,,,,,,,,,z,1,0.7386,,,,,,,,0,98,98,157,1
,,,,,,,,,,,,,,,,,60fcc14129fe2cd0ac39bff1,30,2022-02-12_13h15.01.500,lexical_decision_task_DD,2021.2.3,MacIntel,59.99880002,,,,,,,,,,,0.6662,0,,,,,,,,,,,,,,,,,,,,,,,,-0.004227431,-0.385559896,0,0,0,,,,,,,WALRUS,LB,m,m,./images/WALRUSLB.png,,,,,,,,,,,,,,,,,,,,,,z,0,0.6662,,,,,,,,0,99,99,23,1
,,,,,,,,,,,,,,,,,60fcc14129fe2cd0ac39bff1,30,2022-02-12_13h15.01.500,lexical_decision_task_DD,2021.2.3,MacIntel,59.99880002,,,,,,,,,,,1.0342,0,,,,,,,,,,,,,,,,,,,,,,,,-0.004227431,-0.385559896,0,0,0,,,,,,,BASKET,LB,z,m,./images/BASKETLB.png,,,,,,,,,,,,,,,,,,,,,,m,0,1.0342,,,,,,,,0,100,100,128,1
,,,,,,,,,,,,,,,,,60fcc14129fe2cd0ac39bff1,30,2022-02-12_13h15.01.500,lexical_decision_task_DD,2021.2.3,MacIntel,59.99880002,,,,,,,,,,,1.0179,1,,,,,,,,,,,,,,,,,,,,,,,,-0.004227431,-0.385559896,0,0,0,,,,,,,STREAM,LB,z,m,./images/STREAMLB.png,,,,,,,,,,,,,,,,,,,,,,z,1,1.0179,,,,,,,,0,101,101,125,1
,,,,,,,,,,,,,,,,,60fcc14129fe2cd0ac39bff1,30,2022-02-12_13h15.01.500,lexical_decision_task_DD,2021.2.3,MacIntel,59.99880002,,,,,,,,,,,1.2461,1,,,,,,,,,,,,,,,,,,,,,,,,-0.004227431,-0.385559896,0,0,0,,,,,,,WHISKY,LB,z,m,./images/WHISKYLB.png,,,,,,,,,,,,,,,,,,,,,,z,1,1.2461,,,,,,,,0,102,102,167,1
,,,,,,,,,,,,,,,,,60fcc14129fe2cd0ac39bff1,30,2022-02-12_13h15.01.500,lexical_decision_task_DD,2021.2.3,MacIntel,59.99880002,,,,,,,,,,,0.8007,0,,,,,,,,,,,,,,,,,,,,,,,,-0.004227431,-0.385559896,0,0,0,,,,,,,SPORT,C,m,m,./images/SPORT.png,,,,,,,,,,,,,,,,,,,,,,z,0,0.8007,,,,,,,,0,103,103,48,1
,,,,,,,,,,,,,,,,,60fcc14129fe2cd0ac39bff1,30,2022-02-12_13h15.01.500,lexical_decision_task_DD,2021.2.3,MacIntel,59.99880002,,,,,,,,,,,1.1189,0,,,,,,,,,,,,,,,,,,,,,,,,-0.004227431,-0.385559896,0,0,0,,,,,,,BEARD,LB,m,m,./images/BEARDLB.png,,,,,,,,,,,,,,,,,,,,,,z,0,1.1189,,,,,,,,0,104,104,2,1
,,,,,,,,,,,,,,,,,60fcc14129fe2cd0ac39bff1,30,2022-02-12_13h15.01.500,lexical_decision_task_DD,2021.2.3,MacIntel,59.99880002,,,,,,,,,,,0.8005,1,,,,,,,,,,,,,,,,,,,,,,,,-0.004227431,-0.385559896,0,0,0,,,,,,,PISTOL,LB,z,m,./images/PISTOLLB.png,,,,,,,,,,,,,,,,,,,,,,z,1,0.8005,,,,,,,,0,105,105,113,1
,,,,,,,,,,,,,,,,,60fcc14129fe2cd0ac39bff1,30,2022-02-12_13h15.01.500,lexical_decision_task_DD,2021.2.3,MacIntel,59.99880002,,,,,,,,,,,1.116,1,,,,,,,,,,,,,,,,,,,,,,,,-0.004227431,-0.385559896,0,0,0,,,,,,,THROAT,C,m,m,./images/THROAT.png,,,,,,,,,,,,,,,,,,,,,,m,1,1.116,,,,,,,,0,106,106,36,1
,,,,,,,,,,,,,,,,,60fcc14129fe2cd0ac39bff1,30,2022-02-12_13h15.01.500,lexical_decision_task_DD,2021.2.3,MacIntel,59.99880002,,,,,,,,,,,0.7345,1,,,,,,,,,,,,,,,,,,,,,,,,-0.004227431,-0.385559896,0,0,0,,,,,,,TOWEL,HB,z,m,./images/TOWELHB.png,,,,,,,,,,,,,,,,,,,,,,z,1,0.7345,,,,,,,,0,107,107,85,1
,,,,,,,,,,,,,,,,,60fcc14129fe2cd0ac39bff1,30,2022-02-12_13h15.01.500,lexical_decision_task_DD,2021.2.3,MacIntel,59.99880002,,,,,,,,,,,0.7672,1,,,,,,,,,,,,,,,,,,,,,,,,-0.004227431,-0.385559896,0,0,0,,,,,,,CURRY,C,z,m,./images/CURRY.png,,,,,,,,,,,,,,,,,,,,,,z,1,0.7672,,,,,,,,0,108,108,144,1
,,,,,,,,,,,,,,,,,60fcc14129fe2cd0ac39bff1,30,2022-02-12_13h15.01.500,lexical_decision_task_DD,2021.2.3,MacIntel,59.99880002,,,,,,,,,,,0.8672,1,,,,,,,,,,,,,,,,,,,,,,,,-0.004227431,-0.385559896,0,0,0,,,,,,,INFANT,HB,m,m,./images/INFANTHB.png,,,,,,,,,,,,,,,,,,,,,,m,1,0.8672,,,,,,,,0,109,109,76,1
,,,,,,,,,,,,,,,,,60fcc14129fe2cd0ac39bff1,30,2022-02-12_13h15.01.500,lexical_decision_task_DD,2021.2.3,MacIntel,59.99880002,,,,,,,,,,,1.2174,1,,,,,,,,,,,,,,,,,,,,,,,,-0.004227431,-0.385559896,0,0,0,,,,,,,CLIFF,LB,z,m,./images/CLIFFLB.png,,,,,,,,,,,,,,,,,,,,,,z,1,1.2174,,,,,,,,0,110,110,92,1
,,,,,,,,,,,,,,,,,60fcc14129fe2cd0ac39bff1,30,2022-02-12_13h15.01.500,lexical_decision_task_DD,2021.2.3,MacIntel,59.99880002,,,,,,,,,,,0.6879,1,,,,,,,,,,,,,,,,,,,,,,,,-0.004227431,-0.385559896,0,0,0,,,,,,,FARMER,LB,m,m,./images/FARMERLB.png,,,,,,,,,,,,,,,,,,,,,,m,1,0.6879,,,,,,,,0,111,111,65,1
,,,,,,,,,,,,,,,,,60fcc14129fe2cd0ac39bff1,30,2022-02-12_13h15.01.500,lexical_decision_task_DD,2021.2.3,MacIntel,59.99880002,,,,,,,,,,,1.2503,1,,,,,,,,,,,,,,,,,,,,,,,,-0.004227431,-0.385559896,0,0,0,,,,,,,ALLEY,HB,z,m,./images/ALLEYHB.png,,,,,,,,,,,,,,,,,,,,,,z,1,1.2503,,,,,,,,0,112,112,139,1
,,,,,,,,,,,,,,,,,60fcc14129fe2cd0ac39bff1,30,2022-02-12_13h15.01.500,lexical_decision_task_DD,2021.2.3,MacIntel,59.99880002,,,,,,,,,,,0.6329,1,,,,,,,,,,,,,,,,,,,,,,,,-0.004227431,-0.385559896,0,0,0,,,,,,,PIMPLE,LB,m,m,./images/PIMPLELB.png,,,,,,,,,,,,,,,,,,,,,,m,1,0.6329,,,,,,,,0,113,113,71,1
,,,,,,,,,,,,,,,,,60fcc14129fe2cd0ac39bff1,30,2022-02-12_13h15.01.500,lexical_decision_task_DD,2021.2.3,MacIntel,59.99880002,,,,,,,,,,,0.7677,1,,,,,,,,,,,,,,,,,,,,,,,,-0.004227431,-0.385559896,0,0,0,,,,,,,TIGER,HB,z,m,./images/TIGERHB.png,,,,,,,,,,,,,,,,,,,,,,z,1,0.7677,,,,,,,,0,114,114,121,1
,,,,,,,,,,,,,,,,,60fcc14129fe2cd0ac39bff1,30,2022-02-12_13h15.01.500,lexical_decision_task_DD,2021.2.3,MacIntel,59.99880002,,,,,,,,,,,0.8248,0,,,,,,,,,,,,,,,,,,,,,,,,-0.004227431,-0.385559896,0,0,0,,,,,,,LAGOON,LB,z,m,./images/LAGOONLB.png,,,,,,,,,,,,,,,,,,,,,,m,0,0.8248,,,,,,,,0,115,115,131,1
,,,,,,,,,,,,,,,,,60fcc14129fe2cd0ac39bff1,30,2022-02-12_13h15.01.500,lexical_decision_task_DD,2021.2.3,MacIntel,59.99880002,,,,,,,,,,,1.555,1,,,,,,,,,,,,,,,,,,,,,,,,-0.004227431,-0.385559896,0,0,0,,,,,,,WRIST,HB,m,m,./images/WRISTHB.png,,,,,,,,,,,,,,,,,,,,,,m,1,1.555,,,,,,,,0,116,116,25,1
,,,,,,,,,,,,,,,,,60fcc14129fe2cd0ac39bff1,30,2022-02-12_13h15.01.500,lexical_decision_task_DD,2021.2.3,MacIntel,59.99880002,,,,,,,,,,,1.2194,1,,,,,,,,,,,,,,,,,,,,,,,,-0.004227431,-0.385559896,0,0,0,,,,,,,ARTIST,HB,z,m,./images/ARTISTHB.png,,,,,,,,,,,,,,,,,,,,,,z,1,1.2194,,,,,,,,0,117,117,145,1
,,,,,,,,,,,,,,,,,60fcc14129fe2cd0ac39bff1,30,2022-02-12_13h15.01.500,lexical_decision_task_DD,2021.2.3,MacIntel,59.99880002,,,,,,,,,,,0.7189,1,,,,,,,,,,,,,,,,,,,,,,,,-0.004227431,-0.385559896,0,0,0,,,,,,,SWEAT,C,m,m,./images/SWEAT.png,,,,,,,,,,,,,,,,,,,,,,m,1,0.7189,,,,,,,,0,118,118,66,1
,,,,,,,,,,,,,,,,,60fcc14129fe2cd0ac39bff1,30,2022-02-12_13h15.01.500,lexical_decision_task_DD,2021.2.3,MacIntel,59.99880002,,,,,,,,,,,0.9966,0,,,,,,,,,,,,,,,,,,,,,,,,-0.004227431,-0.385559896,0,0,0,,,,,,,BABOON,HB,m,m,./images/BABOONHB.png,,,,,,,,,,,,,,,,,,,,,,z,0,0.9966,,,,,,,,0,119,119,58,1
,,,,,,,,,,,,,,,,,60fcc14129fe2cd0ac39bff1,30,2022-02-12_13h15.01.500,lexical_decision_task_DD,2021.2.3,MacIntel,59.99880002,,,,,,,,,,,2.1826,0,,,,,,,,,,,,,,,,,,,,,,,,-0.004227431,-0.385559896,0,0,0,,,,,,,WAGON,HB,z,m,./images/WAGONHB.png,,,,,,,,,,,,,,,,,,,,,,m,0,2.1826,,,,,,,,0,120,120,91,1
,,,,,,,,,,,,,,,,,60fcc14129fe2cd0ac39bff1,30,2022-02-12_13h15.01.500,lexical_decision_task_DD,2021.2.3,MacIntel,59.99880002,,,,,,,,,,,0.6185,1,,,,,,,,,,,,,,,,,,,,,,,,-0.004227431,-0.385559896,0,0,0,,,,,,,STORM,C,m,m,./images/STORM.png,,,,,,,,,,,,,,,,,,,,,,m,1,0.6185,,,,,,,,0,121,121,30,1
,,,,,,,,,,,,,,,,,60fcc14129fe2cd0ac39bff1,30,2022-02-12_13h15.01.500,lexical_decision_task_DD,2021.2.3,MacIntel,59.99880002,,,,,,,,,,,1.4483,1,,,,,,,,,,,,,,,,,,,,,,,,-0.004227431,-0.385559896,0,0,0,,,,,,,HAMMER,C,z,m,./images/HAMMER.png,,,,,,,,,,,,,,,,,,,,,,z,1,1.4483,,,,,,,,0,122,122,159,1
,,,,,,,,,,,,,,,,,60fcc14129fe2cd0ac39bff1,30,2022-02-12_13h15.01.500,lexical_decision_task_DD,2021.2.3,MacIntel,59.99880002,,,,,,,,,,,0.8499,1,,,,,,,,,,,,,,,,,,,,,,,,-0.004227431,-0.385559896,0,0,0,,,,,,,DIVER,C,z,m,./images/DIVER.png,,,,,,,,,,,,,,,,,,,,,,z,1,0.8499,,,,,,,,0,123,123,93,1
,,,,,,,,,,,,,,,,,60fcc14129fe2cd0ac39bff1,30,2022-02-12_13h15.01.500,lexical_decision_task_DD,2021.2.3,MacIntel,59.99880002,,,,,,,,,,,0.8353,1,,,,,,,,,,,,,,,,,,,,,,,,-0.004227431,-0.385559896,0,0,0,,,,,,,SKIING,LB,m,m,./images/SKIINGLB.png,,,,,,,,,,,,,,,,,,,,,,m,1,0.8353,,,,,,,,0,124,124,17,1
,,,,,,,,,,,,,,,,,60fcc14129fe2cd0ac39bff1,30,2022-02-12_13h15.01.500,lexical_decision_task_DD,2021.2.3,MacIntel,59.99880002,,,,,,,,,,,0.7073,1,,,,,,,,,,,,,,,,,,,,,,,,-0.004227431,-0.385559896,1,0,0,,,,,,,COUCH,LB,m,m,./images/COUCHLB.png,break_done_button,,,,,,,,,,,,,,,,,,,,,m,1,0.7073,,,,,,,,0,125,125,77,1
,,,,,,,,,,,,,,,,,60fcc14129fe2cd0ac39bff1,30,2022-02-12_13h15.01.500,lexical_decision_task_DD,2021.2.3,MacIntel,59.99880002,,,,,,,,,,,1.032,1,,,,,,,,,,,,,,,,,,,,,,,,-0.004227431,-0.385559896,0,0,0,,,,,,,MOTOR,HB,m,m,./images/MOTORHB.png,,,,,,,,,,,,,,,,,,,,,,m,1,1.032,,,,,,,,0,126,126,13,1
,,,,,,,,,,,,,,,,,60fcc14129fe2cd0ac39bff1,30,2022-02-12_13h15.01.500,lexical_decision_task_DD,2021.2.3,MacIntel,59.99880002,,,,,,,,,,,0.7174,1,,,,,,,,,,,,,,,,,,,,,,,,-0.004227431,-0.385559896,0,0,0,,,,,,,LLAMA,LB,z,m,./images/LLAMALB.png,,,,,,,,,,,,,,,,,,,,,,z,1,0.7174,,,,,,,,0,127,127,119,1
,,,,,,,,,,,,,,,,,60fcc14129fe2cd0ac39bff1,30,2022-02-12_13h15.01.500,lexical_decision_task_DD,2021.2.3,MacIntel,59.99880002,,,,,,,,,,,0.7329,1,,,,,,,,,,,,,,,,,,,,,,,,-0.004227431,-0.385559896,0,0,0,,,,,,,MUSCLE,HB,m,m,./images/MUSCLEHB.png,,,,,,,,,,,,,,,,,,,,,,m,1,0.7329,,,,,,,,0,128,128,4,1
,,,,,,,,,,,,,,,,,60fcc14129fe2cd0ac39bff1,30,2022-02-12_13h15.01.500,lexical_decision_task_DD,2021.2.3,MacIntel,59.99880002,,,,,,,,,,,0.7662,1,,,,,,,,,,,,,,,,,,,,,,,,-0.004227431,-0.385559896,0,0,0,,,,,,,URINE,HB,m,m,./images/URINEHB.png,,,,,,,,,,,,,,,,,,,,,,m,1,0.7662,,,,,,,,0,129,129,70,1
