key_resp.keys,key_resp.rt,instr_done_touch.x,instr_done_touch.y,instr_done_touch.leftButton,instr_done_touch.midButton,instr_done_touch.rightButton,instruction_pages.thisRepN,instruction_pages.thisTrialN,instruction_pages.thisN,instruction_pages.thisIndex,instruction_pages.ran,pageN,phase,instruct_text,has_image,instruct_image,participant,age,date,expName,psychopyVersion,OS,frameRate,response.keys,response.corr,response.rt,touch_resp.x,touch_resp.y,touch_resp.leftButton,touch_resp.midButton,touch_resp.rightButton,touch_resp.time,touch_resp.clicked_name,rt,corr,practrials.thisRepN,practrials.thisTrialN,practrials.thisN,practrials.thisIndex,practrials.ran,TrialID,Target,corrAns,end_of_practice_trials_pages.thisRepN,end_of_practice_trials_pages.thisTrialN,end_of_practice_trials_pages.thisN,end_of_practice_trials_pages.thisIndex,end_of_practice_trials_pages.ran,key_resp_2.keys,key_resp_2.corr,key_resp_2.rt,targ_click.x,targ_click.y,targ_click.leftButton,targ_click.midButton,targ_click.rightButton,targ_click.time,targ_click.clicked_name,break_done_touch.x,break_done_touch.y,break_done_touch.leftButton,break_done_touch.midButton,break_done_touch.rightButton,break_done_keyboard.keys,maintrials.thisRepN,maintrials.thisTrialN,maintrials.thisN,maintrials.thisIndex,maintrials.ran,string,blur,study,lex,stim_path,break_done_keyboard.rt,mouse_2.x,mouse_2.y,mouse_2.leftButton,mouse_2.midButton,mouse_2.rightButton,mouse_2.clicked_name,slider.response,slider.rt,trials.thisRepN,trials.thisTrialN,trials.thisN,trials.thisIndex,trials.ran,test_instructions.thisRepN,test_instructions.thisTrialN,test_instructions.thisN,test_instructions.thisIndex,test_instructions.ran,instr_done_touch.clicked_name,key_resp_3.keys,key_resp_3.corr,key_resp_3.rt,test_click.x,test_click.y,test_click.leftButton,test_click.midButton,test_click.rightButton,test_click.time,test_click.clicked_name,test_phase.thisRepN,test_phase.thisTrialN,test_phase.thisN,test_phase.thisIndex,test_phase.ran
space,24.2294,-0.082222222,-0.41,0,0,0,0,0,0,0,1,1,instructions,"INSTRUCTIONS
At the start of each trial, look at the plus sign  (+) in the center of the screen.  This tells you that a trial is about to begin and where to look. Second, the plus sign will disappear and a string of letters will appear. Your task is to determine if the string of letters is a word or not. If the item is a word press the M key (on keyboard)  or touch the word button (phone/tablet).  If the item is not a word,  press the  Z key (on keyboard)  or touch the nonword button (on phone/tablet). 
Press the space bar or touch  continue.",0,,60fdf30044b47c678461b1ca,26,2022-02-12_17h27.11.991,lexical_decision_task_DD_L2,2021.2.3,Win32,62.05013651,,,,,,,,,,,,,,,,,,,,,,,,,,,,,,,,,,,,,,,,,,,,,,,,,,,,,,,,,,,,,,,,,,,,,,,,,,,,,,,,,,,,,,
space,4.0761,-0.082222222,-0.41,0,0,0,0,1,1,1,1,2,instructions,"If your device has a keyboard, press the 'Z' key for nonwords and the 'M' key for words.





Press the space bar or touch the button below to continue.",0,keyboard-example.gif,60fdf30044b47c678461b1ca,26,2022-02-12_17h27.11.991,lexical_decision_task_DD_L2,2021.2.3,Win32,62.05013651,,,,,,,,,,,,,,,,,,,,,,,,,,,,,,,,,,,,,,,,,,,,,,,,,,,,,,,,,,,,,,,,,,,,,,,,,,,,,,,,,,,,,,
space,2.414,-0.082222222,-0.41,0,0,0,0,2,2,2,1,3,instructions,"If you are using a touchscreen only device, use the buttons on the screen. Do not use the mouse.





Press the space bar or touch the button below to continue.",0,touchscreen-example.gif,60fdf30044b47c678461b1ca,26,2022-02-12_17h27.11.991,lexical_decision_task_DD_L2,2021.2.3,Win32,62.05013651,,,,,,,,,,,,,,,,,,,,,,,,,,,,,,,,,,,,,,,,,,,,,,,,,,,,,,,,,,,,,,,,,,,,,,,,,,,,,,,,,,,,,,
space,12.4696,-0.082222222,-0.41,0,0,0,0,3,3,3,1,4,instructions,"It is very important that you respond as quickly and accurately as possible, as each letter string will only be on the screen for two seconds. If you do not respond within this time, the message 'Too slow!' will be displayed and the experiment will progress to the next letter string. The first 20 trials will be practice trials and you will receive feedback on your answers. 

Press the space bar or touch the button below to start the practice trials.",0,,60fdf30044b47c678461b1ca,26,2022-02-12_17h27.11.991,lexical_decision_task_DD_L2,2021.2.3,Win32,62.05013651,,,,,,,,,,,,,,,,,,,,,,,,,,,,,,,,,,,,,,,,,,,,,,,,,,,,,,,,,,,,,,,,,,,,,,,,,,,,,,,,,,,,,,
,,,,,,,,,,,,,,,,,60fdf30044b47c678461b1ca,26,2022-02-12_17h27.11.991,lexical_decision_task_DD_L2,2021.2.3,Win32,62.05013651,z,1,1.068300001,,,,,,,,1.068300001,1,0,0,0,11,1,1001,RASHET,z,,,,,,,,,,,,,,,,,,,,,,,,,,,,,,,,,,,,,,,,,,,,,,,,,,,,,,,,,,,,,,,,,,
,,,,,,,,,,,,,,,,,60fdf30044b47c678461b1ca,26,2022-02-12_17h27.11.991,lexical_decision_task_DD_L2,2021.2.3,Win32,62.05013651,m,1,0.6044,,,,,,,,0.6044,1,0,1,1,6,1,1001,ZOMBIE,m,,,,,,,,,,,,,,,,,,,,,,,,,,,,,,,,,,,,,,,,,,,,,,,,,,,,,,,,,,,,,,,,,,
,,,,,,,,,,,,,,,,,60fdf30044b47c678461b1ca,26,2022-02-12_17h27.11.991,lexical_decision_task_DD_L2,2021.2.3,Win32,62.05013651,z,1,0.724400002,,,,,,,,0.724400002,1,0,2,2,14,1,1001,THRALE,z,,,,,,,,,,,,,,,,,,,,,,,,,,,,,,,,,,,,,,,,,,,,,,,,,,,,,,,,,,,,,,,,,,
,,,,,,,,,,,,,,,,,60fdf30044b47c678461b1ca,26,2022-02-12_17h27.11.991,lexical_decision_task_DD_L2,2021.2.3,Win32,62.05013651,z,1,0.685,,,,,,,,0.685,1,0,3,3,12,1,1001,SPRINY,z,,,,,,,,,,,,,,,,,,,,,,,,,,,,,,,,,,,,,,,,,,,,,,,,,,,,,,,,,,,,,,,,,,
,,,,,,,,,,,,,,,,,60fdf30044b47c678461b1ca,26,2022-02-12_17h27.11.991,lexical_decision_task_DD_L2,2021.2.3,Win32,62.05013651,z,1,0.8559,,,,,,,,0.8559,1,0,4,4,9,1,1001,FARINY,z,,,,,,,,,,,,,,,,,,,,,,,,,,,,,,,,,,,,,,,,,,,,,,,,,,,,,,,,,,,,,,,,,,
,,,,,,,,,,,,,,,,,60fdf30044b47c678461b1ca,26,2022-02-12_17h27.11.991,lexical_decision_task_DD_L2,2021.2.3,Win32,62.05013651,m,1,0.579799999,,,,,,,,0.579799999,1,0,5,5,0,1,1001,UTOPIA,m,,,,,,,,,,,,,,,,,,,,,,,,,,,,,,,,,,,,,,,,,,,,,,,,,,,,,,,,,,,,,,,,,,
,,,,,,,,,,,,,,,,,60fdf30044b47c678461b1ca,26,2022-02-12_17h27.11.991,lexical_decision_task_DD_L2,2021.2.3,Win32,62.05013651,m,1,0.505700001,,,,,,,,0.505700001,1,0,6,6,5,1,1001,OBTAIN,m,,,,,,,,,,,,,,,,,,,,,,,,,,,,,,,,,,,,,,,,,,,,,,,,,,,,,,,,,,,,,,,,,,
,,,,,,,,,,,,,,,,,60fdf30044b47c678461b1ca,26,2022-02-12_17h27.11.991,lexical_decision_task_DD_L2,2021.2.3,Win32,62.05013651,m,1,0.4844,,,,,,,,0.4844,1,0,7,7,2,1,1001,ALMOND,m,,,,,,,,,,,,,,,,,,,,,,,,,,,,,,,,,,,,,,,,,,,,,,,,,,,,,,,,,,,,,,,,,,
,,,,,,,,,,,,,,,,,60fdf30044b47c678461b1ca,26,2022-02-12_17h27.11.991,lexical_decision_task_DD_L2,2021.2.3,Win32,62.05013651,m,1,0.639300001,,,,,,,,0.639300001,1,0,8,8,3,1,1001,MATRIX,m,,,,,,,,,,,,,,,,,,,,,,,,,,,,,,,,,,,,,,,,,,,,,,,,,,,,,,,,,,,,,,,,,,
,,,,,,,,,,,,,,,,,60fdf30044b47c678461b1ca,26,2022-02-12_17h27.11.991,lexical_decision_task_DD_L2,2021.2.3,Win32,62.05013651,m,1,0.522300001,,,,,,,,0.522300001,1,0,9,9,4,1,1001,SQUEAK,m,,,,,,,,,,,,,,,,,,,,,,,,,,,,,,,,,,,,,,,,,,,,,,,,,,,,,,,,,,,,,,,,,,
,,,,,,,,,,,,,,,,,60fdf30044b47c678461b1ca,26,2022-02-12_17h27.11.991,lexical_decision_task_DD_L2,2021.2.3,Win32,62.05013651,z,1,0.5319,,,,,,,,0.5319,1,0,10,10,13,1,1001,ROUPET,z,,,,,,,,,,,,,,,,,,,,,,,,,,,,,,,,,,,,,,,,,,,,,,,,,,,,,,,,,,,,,,,,,,
,,,,,,,,,,,,,,,,,60fdf30044b47c678461b1ca,26,2022-02-12_17h27.11.991,lexical_decision_task_DD_L2,2021.2.3,Win32,62.05013651,z,1,0.6516,,,,,,,,0.6516,1,0,11,11,15,1,1001,WHAISE,z,,,,,,,,,,,,,,,,,,,,,,,,,,,,,,,,,,,,,,,,,,,,,,,,,,,,,,,,,,,,,,,,,,
,,,,,,,,,,,,,,,,,60fdf30044b47c678461b1ca,26,2022-02-12_17h27.11.991,lexical_decision_task_DD_L2,2021.2.3,Win32,62.05013651,z,1,0.742200001,,,,,,,,0.742200001,1,0,12,12,10,1,1001,INLADE,z,,,,,,,,,,,,,,,,,,,,,,,,,,,,,,,,,,,,,,,,,,,,,,,,,,,,,,,,,,,,,,,,,,
,,,,,,,,,,,,,,,,,60fdf30044b47c678461b1ca,26,2022-02-12_17h27.11.991,lexical_decision_task_DD_L2,2021.2.3,Win32,62.05013651,z,1,0.6709,,,,,,,,0.6709,1,0,13,13,8,1,1001,ASLERT,z,,,,,,,,,,,,,,,,,,,,,,,,,,,,,,,,,,,,,,,,,,,,,,,,,,,,,,,,,,,,,,,,,,
,,,,,,,,,,,,,,,,,60fdf30044b47c678461b1ca,26,2022-02-12_17h27.11.991,lexical_decision_task_DD_L2,2021.2.3,Win32,62.05013651,m,1,0.6069,,,,,,,,0.6069,1,0,14,14,7,1,1001,VOLUME,m,,,,,,,,,,,,,,,,,,,,,,,,,,,,,,,,,,,,,,,,,,,,,,,,,,,,,,,,,,,,,,,,,,
,,,,,,,,,,,,,,,,,60fdf30044b47c678461b1ca,26,2022-02-12_17h27.11.991,lexical_decision_task_DD_L2,2021.2.3,Win32,62.05013651,m,1,0.5621,,,,,,,,0.5621,1,0,15,15,1,1,1001,ADJUST,m,,,,,,,,,,,,,,,,,,,,,,,,,,,,,,,,,,,,,,,,,,,,,,,,,,,,,,,,,,,,,,,,,,
space,12.1707,-0.082222222,-0.41,0,0,0,,,,,,1,end_of_practice,"You have completed the practice trials. During the experimental trials, you will not receive feedback. 
Before you begin, please ensure that you are in a comfortable and quiet location and will not be disturbed for about 15 minutes, as we cannot use your data if you do not complete all the trials. 
 When you are ready to start the experimental trials, please press space or touch the button below.",,,60fdf30044b47c678461b1ca,26,2022-02-12_17h27.11.991,lexical_decision_task_DD_L2,2021.2.3,Win32,62.05013651,,,,,,,,,,,,,,,,,,,,,0,0,0,0,1,,,,,,,,,,,,,,,,,,,,,,,,,,,,,,,,,,,,,,,,,,,,,,,,,,,,,,,,,,,,,
,,,,,,,,,,,,,,,,,60fdf30044b47c678461b1ca,26,2022-02-12_17h27.11.991,lexical_decision_task_DD_L2,2021.2.3,Win32,62.05013651,,,,,,,,,,,0.587799999,1,,,,,,,,,,,,,,z,1,0.587799999,,,,,,,,-0.082222222,-0.41,0,0,0,,0,0,0,84,1,HAXES,C,old,z,./images/HAXES.png,,,,,,,,,,,,,,,,,,,,,,,,,,,,,,,,,,,
,,,,,,,,,,,,,,,,,60fdf30044b47c678461b1ca,26,2022-02-12_17h27.11.991,lexical_decision_task_DD_L2,2021.2.3,Win32,62.05013651,,,,,,,,,,,0.5841,1,,,,,,,,,,,,,,m,1,0.5841,,,,,,,,-0.082222222,-0.41,0,0,0,,0,1,1,52,1,BANNER,LB,old,m,./images/BANNERLB.png,,,,,,,,,,,,,,,,,,,,,,,,,,,,,,,,,,,
,,,,,,,,,,,,,,,,,60fdf30044b47c678461b1ca,26,2022-02-12_17h27.11.991,lexical_decision_task_DD_L2,2021.2.3,Win32,62.05013651,,,,,,,,,,,0.578,1,,,,,,,,,,,,,,z,1,0.578,,,,,,,,-0.082222222,-0.41,0,0,0,,0,2,2,95,1,HANTY,LB,old,z,./images/HANTYLB.png,,,,,,,,,,,,,,,,,,,,,,,,,,,,,,,,,,,
,,,,,,,,,,,,,,,,,60fdf30044b47c678461b1ca,26,2022-02-12_17h27.11.991,lexical_decision_task_DD_L2,2021.2.3,Win32,62.05013651,,,,,,,,,,,0.7746,0,,,,,,,,,,,,,,m,0,0.7746,,,,,,,,-0.082222222,-0.41,0,0,0,,0,3,3,166,1,SHORY,HB,old,z,./images/SHORYHB.png,,,,,,,,,,,,,,,,,,,,,,,,,,,,,,,,,,,
,,,,,,,,,,,,,,,,,60fdf30044b47c678461b1ca,26,2022-02-12_17h27.11.991,lexical_decision_task_DD_L2,2021.2.3,Win32,62.05013651,,,,,,,,,,,0.774900002,1,,,,,,,,,,,,,,z,1,0.774900002,,,,,,,,-0.082222222,-0.41,0,0,0,,0,4,4,88,1,GLUSH,HB,old,z,./images/GLUSHHB.png,,,,,,,,,,,,,,,,,,,,,,,,,,,,,,,,,,,
,,,,,,,,,,,,,,,,,60fdf30044b47c678461b1ca,26,2022-02-12_17h27.11.991,lexical_decision_task_DD_L2,2021.2.3,Win32,62.05013651,,,,,,,,,,,1.129800001,0,,,,,,,,,,,,,,z,0,1.129800001,,,,,,,,-0.082222222,-0.41,0,0,0,,0,5,5,33,1,MAGGOT,HB,old,m,./images/MAGGOTHB.png,,,,,,,,,,,,,,,,,,,,,,,,,,,,,,,,,,,
,,,,,,,,,,,,,,,,,60fdf30044b47c678461b1ca,26,2022-02-12_17h27.11.991,lexical_decision_task_DD_L2,2021.2.3,Win32,62.05013651,,,,,,,,,,,1.1,1,,,,,,,,,,,,,,z,1,1.1,,,,,,,,-0.082222222,-0.41,0,0,0,,0,6,6,94,1,BLANS,HB,old,z,./images/BLANSHB.png,,,,,,,,,,,,,,,,,,,,,,,,,,,,,,,,,,,
,,,,,,,,,,,,,,,,,60fdf30044b47c678461b1ca,26,2022-02-12_17h27.11.991,lexical_decision_task_DD_L2,2021.2.3,Win32,62.05013651,,,,,,,,,,,0.6135,1,,,,,,,,,,,,,,m,1,0.6135,,,,,,,,-0.082222222,-0.41,0,0,0,,0,7,7,60,1,TWINS,HB,old,m,./images/TWINSHB.png,,,,,,,,,,,,,,,,,,,,,,,,,,,,,,,,,,,
,,,,,,,,,,,,,,,,,60fdf30044b47c678461b1ca,26,2022-02-12_17h27.11.991,lexical_decision_task_DD_L2,2021.2.3,Win32,62.05013651,,,,,,,,,,,0.637200001,1,,,,,,,,,,,,,,z,1,0.637200001,,,,,,,,-0.082222222,-0.41,0,0,0,,0,8,8,107,1,FASKS,LB,old,z,./images/FASKSLB.png,,,,,,,,,,,,,,,,,,,,,,,,,,,,,,,,,,,
,,,,,,,,,,,,,,,,,60fdf30044b47c678461b1ca,26,2022-02-12_17h27.11.991,lexical_decision_task_DD_L2,2021.2.3,Win32,62.05013651,,,,,,,,,,,0.5796,1,,,,,,,,,,,,,,z,1,0.5796,,,,,,,,-0.082222222,-0.41,0,0,0,,0,9,9,135,1,JOODY,C,old,z,./images/JOODY.png,,,,,,,,,,,,,,,,,,,,,,,,,,,,,,,,,,,
,,,,,,,,,,,,,,,,,60fdf30044b47c678461b1ca,26,2022-02-12_17h27.11.991,lexical_decision_task_DD_L2,2021.2.3,Win32,62.05013651,,,,,,,,,,,0.6566,1,,,,,,,,,,,,,,z,1,0.6566,,,,,,,,-0.082222222,-0.41,0,0,0,,0,10,10,143,1,MONGS,LB,old,z,./images/MONGSLB.png,,,,,,,,,,,,,,,,,,,,,,,,,,,,,,,,,,,
,,,,,,,,,,,,,,,,,60fdf30044b47c678461b1ca,26,2022-02-12_17h27.11.991,lexical_decision_task_DD_L2,2021.2.3,Win32,62.05013651,,,,,,,,,,,0.566200001,1,,,,,,,,,,,,,,m,1,0.566200001,,,,,,,,-0.082222222,-0.41,0,0,0,,0,11,11,10,1,BELLY,LB,old,m,./images/BELLYLB.png,,,,,,,,,,,,,,,,,,,,,,,,,,,,,,,,,,,
,,,,,,,,,,,,,,,,,60fdf30044b47c678461b1ca,26,2022-02-12_17h27.11.991,lexical_decision_task_DD_L2,2021.2.3,Win32,62.05013651,,,,,,,,,,,0.683,1,,,,,,,,,,,,,,z,1,0.683,,,,,,,,-0.082222222,-0.41,0,0,0,,0,12,12,101,1,GLEET,LB,old,z,./images/GLEETLB.png,,,,,,,,,,,,,,,,,,,,,,,,,,,,,,,,,,,
,,,,,,,,,,,,,,,,,60fdf30044b47c678461b1ca,26,2022-02-12_17h27.11.991,lexical_decision_task_DD_L2,2021.2.3,Win32,62.05013651,,,,,,,,,,,1.036800001,1,,,,,,,,,,,,,,z,1,1.036800001,,,,,,,,-0.082222222,-0.41,0,0,0,,0,13,13,136,1,WERVE,HB,old,z,./images/WERVEHB.png,,,,,,,,,,,,,,,,,,,,,,,,,,,,,,,,,,,
,,,,,,,,,,,,,,,,,60fdf30044b47c678461b1ca,26,2022-02-12_17h27.11.991,lexical_decision_task_DD_L2,2021.2.3,Win32,62.05013651,,,,,,,,,,,0.628800001,1,,,,,,,,,,,,,,m,1,0.628800001,,,,,,,,-0.082222222,-0.41,0,0,0,,0,14,14,58,1,BABOON,LB,old,m,./images/BABOONLB.png,,,,,,,,,,,,,,,,,,,,,,,,,,,,,,,,,,,
,,,,,,,,,,,,,,,,,60fdf30044b47c678461b1ca,26,2022-02-12_17h27.11.991,lexical_decision_task_DD_L2,2021.2.3,Win32,62.05013651,,,,,,,,,,,0.544,1,,,,,,,,,,,,,,m,1,0.544,,,,,,,,-0.082222222,-0.41,0,0,0,,0,15,15,3,1,FINGER,HB,old,m,./images/FINGERHB.png,,,,,,,,,,,,,,,,,,,,,,,,,,,,,,,,,,,
,,,,,,,,,,,,,,,,,60fdf30044b47c678461b1ca,26,2022-02-12_17h27.11.991,lexical_decision_task_DD_L2,2021.2.3,Win32,62.05013651,,,,,,,,,,,0.5976,1,,,,,,,,,,,,,,m,1,0.5976,,,,,,,,-0.082222222,-0.41,0,0,0,,0,16,16,25,1,WRIST,LB,old,m,./images/WRISTLB.png,,,,,,,,,,,,,,,,,,,,,,,,,,,,,,,,,,,
,,,,,,,,,,,,,,,,,60fdf30044b47c678461b1ca,26,2022-02-12_17h27.11.991,lexical_decision_task_DD_L2,2021.2.3,Win32,62.05013651,,,,,,,,,,,0.5759,1,,,,,,,,,,,,,,z,1,0.5759,,,,,,,,-0.082222222,-0.41,0,0,0,,0,17,17,156,1,HIXES,C,old,z,./images/HIXES.png,,,,,,,,,,,,,,,,,,,,,,,,,,,,,,,,,,,
,,,,,,,,,,,,,,,,,60fdf30044b47c678461b1ca,26,2022-02-12_17h27.11.991,lexical_decision_task_DD_L2,2021.2.3,Win32,62.05013651,,,,,,,,,,,0.5599,1,,,,,,,,,,,,,,z,1,0.5599,,,,,,,,-0.082222222,-0.41,0,0,0,,0,18,18,114,1,RIKES,C,old,z,./images/RIKES.png,,,,,,,,,,,,,,,,,,,,,,,,,,,,,,,,,,,
,,,,,,,,,,,,,,,,,60fdf30044b47c678461b1ca,26,2022-02-12_17h27.11.991,lexical_decision_task_DD_L2,2021.2.3,Win32,62.05013651,,,,,,,,,,,0.527,1,,,,,,,,,,,,,,m,1,0.527,,,,,,,,-0.082222222,-0.41,0,0,0,,0,19,19,64,1,JELLY,LB,old,m,./images/JELLYLB.png,,,,,,,,,,,,,,,,,,,,,,,,,,,,,,,,,,,
,,,,,,,,,,,,,,,,,60fdf30044b47c678461b1ca,26,2022-02-12_17h27.11.991,lexical_decision_task_DD_L2,2021.2.3,Win32,62.05013651,,,,,,,,,,,0.546200001,1,,,,,,,,,,,,,,m,1,0.546200001,,,,,,,,-0.082222222,-0.41,0,0,0,,0,20,20,18,1,JAGUAR,HB,old,m,./images/JAGUARHB.png,,,,,,,,,,,,,,,,,,,,,,,,,,,,,,,,,,,
,,,,,,,,,,,,,,,,,60fdf30044b47c678461b1ca,26,2022-02-12_17h27.11.991,lexical_decision_task_DD_L2,2021.2.3,Win32,62.05013651,,,,,,,,,,,0.5836,1,,,,,,,,,,,,,,m,1,0.5836,,,,,,,,-0.082222222,-0.41,0,0,0,,0,21,21,61,1,CANDLE,LB,old,m,./images/CANDLELB.png,,,,,,,,,,,,,,,,,,,,,,,,,,,,,,,,,,,
,,,,,,,,,,,,,,,,,60fdf30044b47c678461b1ca,26,2022-02-12_17h27.11.991,lexical_decision_task_DD_L2,2021.2.3,Win32,62.05013651,,,,,,,,,,,0.511299999,1,,,,,,,,,,,,,,m,1,0.511299999,,,,,,,,-0.082222222,-0.41,0,0,0,,0,22,22,4,1,MUSCLE,LB,old,m,./images/MUSCLELB.png,,,,,,,,,,,,,,,,,,,,,,,,,,,,,,,,,,,
,,,,,,,,,,,,,,,,,60fdf30044b47c678461b1ca,26,2022-02-12_17h27.11.991,lexical_decision_task_DD_L2,2021.2.3,Win32,62.05013651,,,,,,,,,,,0.923200001,1,,,,,,,,,,,,,,z,1,0.923200001,,,,,,,,-0.082222222,-0.41,0,0,0,,0,23,23,127,1,NINDY,HB,old,z,./images/NINDYHB.png,,,,,,,,,,,,,,,,,,,,,,,,,,,,,,,,,,,
,,,,,,,,,,,,,,,,,60fdf30044b47c678461b1ca,26,2022-02-12_17h27.11.991,lexical_decision_task_DD_L2,2021.2.3,Win32,62.05013651,,,,,,,,,,,0.6435,1,,,,,,,,,,,,,,m,1,0.6435,,,,,,,,-0.082222222,-0.41,0,0,0,,0,24,24,5,1,PASTA,C,old,m,./images/PASTA.png,,,,,,,,,,,,,,,,,,,,,,,,,,,,,,,,,,,
,,,,,,,,,,,,,,,,,60fdf30044b47c678461b1ca,26,2022-02-12_17h27.11.991,lexical_decision_task_DD_L2,2021.2.3,Win32,62.05013651,,,,,,,,,,,0.579199999,1,,,,,,,,,,,,,,m,1,0.579199999,,,,,,,,-0.082222222,-0.41,0,0,0,,0,25,25,66,1,SWEAT,HB,old,m,./images/SWEATHB.png,,,,,,,,,,,,,,,,,,,,,,,,,,,,,,,,,,,
,,,,,,,,,,,,,,,,,60fdf30044b47c678461b1ca,26,2022-02-12_17h27.11.991,lexical_decision_task_DD_L2,2021.2.3,Win32,62.05013651,,,,,,,,,,,0.5834,1,,,,,,,,,,,,,,z,1,0.5834,,,,,,,,-0.082222222,-0.41,0,0,0,,0,26,26,90,1,NEAST,C,old,z,./images/NEAST.png,,,,,,,,,,,,,,,,,,,,,,,,,,,,,,,,,,,
,,,,,,,,,,,,,,,,,60fdf30044b47c678461b1ca,26,2022-02-12_17h27.11.991,lexical_decision_task_DD_L2,2021.2.3,Win32,62.05013651,,,,,,,,,,,0.5394,1,,,,,,,,,,,,,,m,1,0.5394,,,,,,,,-0.082222222,-0.41,0,0,0,,0,27,27,38,1,LADDER,C,old,m,./images/LADDER.png,,,,,,,,,,,,,,,,,,,,,,,,,,,,,,,,,,,
,,,,,,,,,,,,,,,,,60fdf30044b47c678461b1ca,26,2022-02-12_17h27.11.991,lexical_decision_task_DD_L2,2021.2.3,Win32,62.05013651,,,,,,,,,,,0.531400002,1,,,,,,,,,,,,,,z,1,0.531400002,,,,,,,,-0.082222222,-0.41,0,0,0,,0,28,28,167,1,ZONET,LB,old,z,./images/ZONETLB.png,,,,,,,,,,,,,,,,,,,,,,,,,,,,,,,,,,,
,,,,,,,,,,,,,,,,,60fdf30044b47c678461b1ca,26,2022-02-12_17h27.11.991,lexical_decision_task_DD_L2,2021.2.3,Win32,62.05013651,,,,,,,,,,,0.5091,1,,,,,,,,,,,,,,m,1,0.5091,,,,,,,,-0.082222222,-0.41,0,0,0,,0,29,29,40,1,SWING,LB,old,m,./images/SWINGLB.png,,,,,,,,,,,,,,,,,,,,,,,,,,,,,,,,,,,
,,,,,,,,,,,,,,,,,60fdf30044b47c678461b1ca,26,2022-02-12_17h27.11.991,lexical_decision_task_DD_L2,2021.2.3,Win32,62.05013651,,,,,,,,,,,0.421,1,,,,,,,,,,,,,,z,1,0.421,,,,,,,,-0.082222222,-0.41,0,0,0,,0,30,30,102,1,DULLE,C,old,z,./images/DULLE.png,,,,,,,,,,,,,,,,,,,,,,,,,,,,,,,,,,,
,,,,,,,,,,,,,,,,,60fdf30044b47c678461b1ca,26,2022-02-12_17h27.11.991,lexical_decision_task_DD_L2,2021.2.3,Win32,62.05013651,,,,,,,,,,,0.544699999,1,,,,,,,,,,,,,,m,1,0.544699999,,,,,,,,-0.082222222,-0.41,0,0,0,,0,31,31,27,1,ATTIC,HB,old,m,./images/ATTICHB.png,,,,,,,,,,,,,,,,,,,,,,,,,,,,,,,,,,,
,,,,,,,,,,,,,,,,,60fdf30044b47c678461b1ca,26,2022-02-12_17h27.11.991,lexical_decision_task_DD_L2,2021.2.3,Win32,62.05013651,,,,,,,,,,,0.5241,1,,,,,,,,,,,,,,m,1,0.5241,,,,,,,,-0.082222222,-0.41,0,0,0,,0,32,32,55,1,MUFFIN,LB,old,m,./images/MUFFINLB.png,,,,,,,,,,,,,,,,,,,,,,,,,,,,,,,,,,,
,,,,,,,,,,,,,,,,,60fdf30044b47c678461b1ca,26,2022-02-12_17h27.11.991,lexical_decision_task_DD_L2,2021.2.3,Win32,62.05013651,,,,,,,,,,,0.441,1,,,,,,,,,,,,,,z,1,0.441,,,,,,,,-0.082222222,-0.41,0,0,0,,0,33,33,137,1,JOOST,LB,old,z,./images/JOOSTLB.png,,,,,,,,,,,,,,,,,,,,,,,,,,,,,,,,,,,
,,,,,,,,,,,,,,,,,60fdf30044b47c678461b1ca,26,2022-02-12_17h27.11.991,lexical_decision_task_DD_L2,2021.2.3,Win32,62.05013651,,,,,,,,,,,0.642,1,,,,,,,,,,,,,,z,1,0.642,,,,,,,,-0.082222222,-0.41,0,0,0,,0,34,34,87,1,TRING,C,old,z,./images/TRING.png,,,,,,,,,,,,,,,,,,,,,,,,,,,,,,,,,,,
,,,,,,,,,,,,,,,,,60fdf30044b47c678461b1ca,26,2022-02-12_17h27.11.991,lexical_decision_task_DD_L2,2021.2.3,Win32,62.05013651,,,,,,,,,,,0.6495,1,,,,,,,,,,,,,,z,1,0.6495,,,,,,,,-0.082222222,-0.41,0,0,0,,0,35,35,85,1,CHULK,HB,old,z,./images/CHULKHB.png,,,,,,,,,,,,,,,,,,,,,,,,,,,,,,,,,,,
,,,,,,,,,,,,,,,,,60fdf30044b47c678461b1ca,26,2022-02-12_17h27.11.991,lexical_decision_task_DD_L2,2021.2.3,Win32,62.05013651,,,,,,,,,,,0.539199999,1,,,,,,,,,,,,,,m,1,0.539199999,,,,,,,,-0.082222222,-0.41,0,0,0,,0,36,36,53,1,CARPET,C,old,m,./images/CARPET.png,,,,,,,,,,,,,,,,,,,,,,,,,,,,,,,,,,,
,,,,,,,,,,,,,,,,,60fdf30044b47c678461b1ca,26,2022-02-12_17h27.11.991,lexical_decision_task_DD_L2,2021.2.3,Win32,62.05013651,,,,,,,,,,,0.6914,1,,,,,,,,,,,,,,z,1,0.6914,,,,,,,,-0.082222222,-0.41,0,0,0,,0,37,37,130,1,CRILL,HB,old,z,./images/CRILLHB.png,,,,,,,,,,,,,,,,,,,,,,,,,,,,,,,,,,,
,,,,,,,,,,,,,,,,,60fdf30044b47c678461b1ca,26,2022-02-12_17h27.11.991,lexical_decision_task_DD_L2,2021.2.3,Win32,62.05013651,,,,,,,,,,,0.809799999,1,,,,,,,,,,,,,,m,1,0.809799999,,,,,,,,-0.082222222,-0.41,0,0,0,,0,38,38,75,1,GRAIN,HB,old,m,./images/GRAINHB.png,,,,,,,,,,,,,,,,,,,,,,,,,,,,,,,,,,,
,,,,,,,,,,,,,,,,,60fdf30044b47c678461b1ca,26,2022-02-12_17h27.11.991,lexical_decision_task_DD_L2,2021.2.3,Win32,62.05013651,,,,,,,,,,,0.6081,1,,,,,,,,,,,,,,z,1,0.6081,,,,,,,,-0.082222222,-0.41,0,0,0,,0,39,39,122,1,BLOOT,LB,old,z,./images/BLOOTLB.png,,,,,,,,,,,,,,,,,,,,,,,,,,,,,,,,,,,
,,,,,,,,,,,,,,,,,60fdf30044b47c678461b1ca,26,2022-02-12_17h27.11.991,lexical_decision_task_DD_L2,2021.2.3,Win32,62.05013651,,,,,,,,,,,0.5521,0,,,,,,,,,,,,,,z,0,0.5521,,,,,,,,-0.082222222,-0.41,0,0,0,,0,40,40,39,1,SHELF,HB,old,m,./images/SHELFHB.png,,,,,,,,,,,,,,,,,,,,,,,,,,,,,,,,,,,
,,,,,,,,,,,,,,,,,60fdf30044b47c678461b1ca,26,2022-02-12_17h27.11.991,lexical_decision_task_DD_L2,2021.2.3,Win32,62.05013651,,,,,,,,,,,0.595200001,1,,,,,,,,,,,,,,m,1,0.595200001,,,,,,,,-0.082222222,-0.41,0,0,0,space,0,41,41,46,1,PEARL,LB,old,m,./images/PEARLLB.png,2.1531,,,,,,,,,,,,,,,,,,,,,,,,,,,,,,,,,,
,,,,,,,,,,,,,,,,,60fdf30044b47c678461b1ca,26,2022-02-12_17h27.11.991,lexical_decision_task_DD_L2,2021.2.3,Win32,62.05013651,,,,,,,,,,,0.657299999,1,,,,,,,,,,,,,,z,1,0.657299999,,,,,,,,-0.082222222,-0.41,0,0,0,,0,42,42,145,1,LAMEL,HB,old,z,./images/LAMELHB.png,,,,,,,,,,,,,,,,,,,,,,,,,,,,,,,,,,,
,,,,,,,,,,,,,,,,,60fdf30044b47c678461b1ca,26,2022-02-12_17h27.11.991,lexical_decision_task_DD_L2,2021.2.3,Win32,62.05013651,,,,,,,,,,,0.540699999,1,,,,,,,,,,,,,,m,1,0.540699999,,,,,,,,-0.082222222,-0.41,0,0,0,,0,43,43,22,1,MELON,LB,old,m,./images/MELONLB.png,,,,,,,,,,,,,,,,,,,,,,,,,,,,,,,,,,,
,,,,,,,,,,,,,,,,,60fdf30044b47c678461b1ca,26,2022-02-12_17h27.11.991,lexical_decision_task_DD_L2,2021.2.3,Win32,62.05013651,,,,,,,,,,,0.837699999,1,,,,,,,,,,,,,,z,1,0.837699999,,,,,,,,-0.082222222,-0.41,0,0,0,,0,44,44,124,1,TUNCH,HB,old,z,./images/TUNCHHB.png,,,,,,,,,,,,,,,,,,,,,,,,,,,,,,,,,,,
,,,,,,,,,,,,,,,,,60fdf30044b47c678461b1ca,26,2022-02-12_17h27.11.991,lexical_decision_task_DD_L2,2021.2.3,Win32,62.05013651,,,,,,,,,,,0.591300001,1,,,,,,,,,,,,,,m,1,0.591300001,,,,,,,,-0.082222222,-0.41,0,0,0,,0,45,45,45,1,KITTEN,HB,old,m,./images/KITTENHB.png,,,,,,,,,,,,,,,,,,,,,,,,,,,,,,,,,,,
,,,,,,,,,,,,,,,,,60fdf30044b47c678461b1ca,26,2022-02-12_17h27.11.991,lexical_decision_task_DD_L2,2021.2.3,Win32,62.05013651,,,,,,,,,,,0.496300001,1,,,,,,,,,,,,,,z,1,0.496300001,,,,,,,,-0.082222222,-0.41,0,0,0,,0,46,46,86,1,AIFED,LB,old,z,./images/AIFEDLB.png,,,,,,,,,,,,,,,,,,,,,,,,,,,,,,,,,,,
,,,,,,,,,,,,,,,,,60fdf30044b47c678461b1ca,26,2022-02-12_17h27.11.991,lexical_decision_task_DD_L2,2021.2.3,Win32,62.05013651,,,,,,,,,,,0.573700001,1,,,,,,,,,,,,,,z,1,0.573700001,,,,,,,,-0.082222222,-0.41,0,0,0,,0,47,47,162,1,LEICH,C,old,z,./images/LEICH.png,,,,,,,,,,,,,,,,,,,,,,,,,,,,,,,,,,,
,,,,,,,,,,,,,,,,,60fdf30044b47c678461b1ca,26,2022-02-12_17h27.11.991,lexical_decision_task_DD_L2,2021.2.3,Win32,62.05013651,,,,,,,,,,,1.0301,1,,,,,,,,,,,,,,z,1,1.0301,,,,,,,,-0.082222222,-0.41,0,0,0,,0,48,48,157,1,INLER,HB,old,z,./images/INLERHB.png,,,,,,,,,,,,,,,,,,,,,,,,,,,,,,,,,,,
,,,,,,,,,,,,,,,,,60fdf30044b47c678461b1ca,26,2022-02-12_17h27.11.991,lexical_decision_task_DD_L2,2021.2.3,Win32,62.05013651,,,,,,,,,,,0.5776,1,,,,,,,,,,,,,,z,1,0.5776,,,,,,,,-0.082222222,-0.41,0,0,0,,0,49,49,129,1,PRANS,C,old,z,./images/PRANS.png,,,,,,,,,,,,,,,,,,,,,,,,,,,,,,,,,,,
,,,,,,,,,,,,,,,,,60fdf30044b47c678461b1ca,26,2022-02-12_17h27.11.991,lexical_decision_task_DD_L2,2021.2.3,Win32,62.05013651,,,,,,,,,,,0.5276,1,,,,,,,,,,,,,,z,1,0.5276,,,,,,,,-0.082222222,-0.41,0,0,0,,0,50,50,98,1,BAMPS,LB,old,z,./images/BAMPSLB.png,,,,,,,,,,,,,,,,,,,,,,,,,,,,,,,,,,,
,,,,,,,,,,,,,,,,,60fdf30044b47c678461b1ca,26,2022-02-12_17h27.11.991,lexical_decision_task_DD_L2,2021.2.3,Win32,62.05013651,,,,,,,,,,,0.473800001,1,,,,,,,,,,,,,,z,1,0.473800001,,,,,,,,-0.082222222,-0.41,0,0,0,,0,51,51,105,1,MOKER,C,old,z,./images/MOKER.png,,,,,,,,,,,,,,,,,,,,,,,,,,,,,,,,,,,
,,,,,,,,,,,,,,,,,60fdf30044b47c678461b1ca,26,2022-02-12_17h27.11.991,lexical_decision_task_DD_L2,2021.2.3,Win32,62.05013651,,,,,,,,,,,0.434299999,1,,,,,,,,,,,,,,z,1,0.434299999,,,,,,,,-0.082222222,-0.41,0,0,0,,0,52,52,144,1,NAIRY,C,old,z,./images/NAIRY.png,,,,,,,,,,,,,,,,,,,,,,,,,,,,,,,,,,,
,,,,,,,,,,,,,,,,,60fdf30044b47c678461b1ca,26,2022-02-12_17h27.11.991,lexical_decision_task_DD_L2,2021.2.3,Win32,62.05013651,,,,,,,,,,,0.466700001,1,,,,,,,,,,,,,,m,1,0.466700001,,,,,,,,-0.082222222,-0.41,0,0,0,,0,53,53,73,1,SNACK,LB,old,m,./images/SNACKLB.png,,,,,,,,,,,,,,,,,,,,,,,,,,,,,,,,,,,
,,,,,,,,,,,,,,,,,60fdf30044b47c678461b1ca,26,2022-02-12_17h27.11.991,lexical_decision_task_DD_L2,2021.2.3,Win32,62.05013651,,,,,,,,,,,1.2266,1,,,,,,,,,,,,,,z,1,1.2266,,,,,,,,-0.082222222,-0.41,0,0,0,,0,54,54,133,1,POWDY,HB,old,z,./images/POWDYHB.png,,,,,,,,,,,,,,,,,,,,,,,,,,,,,,,,,,,
,,,,,,,,,,,,,,,,,60fdf30044b47c678461b1ca,26,2022-02-12_17h27.11.991,lexical_decision_task_DD_L2,2021.2.3,Win32,62.05013651,,,,,,,,,,,0.6136,1,,,,,,,,,,,,,,z,1,0.6136,,,,,,,,-0.082222222,-0.41,0,0,0,,0,55,55,140,1,DOVET,LB,old,z,./images/DOVETLB.png,,,,,,,,,,,,,,,,,,,,,,,,,,,,,,,,,,,
,,,,,,,,,,,,,,,,,60fdf30044b47c678461b1ca,26,2022-02-12_17h27.11.991,lexical_decision_task_DD_L2,2021.2.3,Win32,62.05013651,,,,,,,,,,,0.4721,1,,,,,,,,,,,,,,z,1,0.4721,,,,,,,,-0.082222222,-0.41,0,0,0,,0,56,56,132,1,SCIFF,C,old,z,./images/SCIFF.png,,,,,,,,,,,,,,,,,,,,,,,,,,,,,,,,,,,
,,,,,,,,,,,,,,,,,60fdf30044b47c678461b1ca,26,2022-02-12_17h27.11.991,lexical_decision_task_DD_L2,2021.2.3,Win32,62.05013651,,,,,,,,,,,0.5166,1,,,,,,,,,,,,,,m,1,0.5166,,,,,,,,-0.082222222,-0.41,0,0,0,,0,57,57,81,1,POODLE,HB,old,m,./images/POODLEHB.png,,,,,,,,,,,,,,,,,,,,,,,,,,,,,,,,,,,
,,,,,,,,,,,,,,,,,60fdf30044b47c678461b1ca,26,2022-02-12_17h27.11.991,lexical_decision_task_DD_L2,2021.2.3,Win32,62.05013651,,,,,,,,,,,0.6355,1,,,,,,,,,,,,,,m,1,0.6355,,,,,,,,-0.082222222,-0.41,0,0,0,,0,58,58,78,1,LITTER,HB,old,m,./images/LITTERHB.png,,,,,,,,,,,,,,,,,,,,,,,,,,,,,,,,,,,
,,,,,,,,,,,,,,,,,60fdf30044b47c678461b1ca,26,2022-02-12_17h27.11.991,lexical_decision_task_DD_L2,2021.2.3,Win32,62.05013651,,,,,,,,,,,0.565699999,1,,,,,,,,,,,,,,m,1,0.565699999,,,,,,,,-0.082222222,-0.41,0,0,0,,0,59,59,1,1,PLANK,LB,old,m,./images/PLANKLB.png,,,,,,,,,,,,,,,,,,,,,,,,,,,,,,,,,,,
,,,,,,,,,,,,,,,,,60fdf30044b47c678461b1ca,26,2022-02-12_17h27.11.991,lexical_decision_task_DD_L2,2021.2.3,Win32,62.05013651,,,,,,,,,,,0.596,1,,,,,,,,,,,,,,m,1,0.596,,,,,,,,-0.082222222,-0.41,0,0,0,,0,60,60,23,1,WALRUS,C,old,m,./images/WALRUS.png,,,,,,,,,,,,,,,,,,,,,,,,,,,,,,,,,,,
,,,,,,,,,,,,,,,,,60fdf30044b47c678461b1ca,26,2022-02-12_17h27.11.991,lexical_decision_task_DD_L2,2021.2.3,Win32,62.05013651,,,,,,,,,,,0.4565,1,,,,,,,,,,,,,,z,1,0.4565,,,,,,,,-0.082222222,-0.41,0,0,0,,0,61,61,123,1,SEDGE,C,old,z,./images/SEDGE.png,,,,,,,,,,,,,,,,,,,,,,,,,,,,,,,,,,,
,,,,,,,,,,,,,,,,,60fdf30044b47c678461b1ca,26,2022-02-12_17h27.11.991,lexical_decision_task_DD_L2,2021.2.3,Win32,62.05013651,,,,,,,,,,,0.766,1,,,,,,,,,,,,,,z,1,0.766,,,,,,,,-0.082222222,-0.41,0,0,0,,0,62,62,108,1,GRUET,C,old,z,./images/GRUET.png,,,,,,,,,,,,,,,,,,,,,,,,,,,,,,,,,,,
,,,,,,,,,,,,,,,,,60fdf30044b47c678461b1ca,26,2022-02-12_17h27.11.991,lexical_decision_task_DD_L2,2021.2.3,Win32,62.05013651,,,,,,,,,,,0.661200001,1,,,,,,,,,,,,,,m,1,0.661200001,,,,,,,,-0.082222222,-0.41,0,0,0,,0,63,63,24,1,SCREW,HB,old,m,./images/SCREWHB.png,,,,,,,,,,,,,,,,,,,,,,,,,,,,,,,,,,,
,,,,,,,,,,,,,,,,,60fdf30044b47c678461b1ca,26,2022-02-12_17h27.11.991,lexical_decision_task_DD_L2,2021.2.3,Win32,62.05013651,,,,,,,,,,,1.1745,1,,,,,,,,,,,,,,z,1,1.1745,,,,,,,,-0.082222222,-0.41,0,0,0,,0,64,64,154,1,THINT,HB,old,z,./images/THINTHB.png,,,,,,,,,,,,,,,,,,,,,,,,,,,,,,,,,,,
,,,,,,,,,,,,,,,,,60fdf30044b47c678461b1ca,26,2022-02-12_17h27.11.991,lexical_decision_task_DD_L2,2021.2.3,Win32,62.05013651,,,,,,,,,,,0.571800001,1,,,,,,,,,,,,,,m,1,0.571800001,,,,,,,,-0.082222222,-0.41,0,0,0,,0,65,65,47,1,BERRY,C,old,m,./images/BERRY.png,,,,,,,,,,,,,,,,,,,,,,,,,,,,,,,,,,,
,,,,,,,,,,,,,,,,,60fdf30044b47c678461b1ca,26,2022-02-12_17h27.11.991,lexical_decision_task_DD_L2,2021.2.3,Win32,62.05013651,,,,,,,,,,,0.565799999,1,,,,,,,,,,,,,,z,1,0.565799999,,,,,,,,-0.082222222,-0.41,0,0,0,,0,66,66,165,1,TROWN,C,old,z,./images/TROWN.png,,,,,,,,,,,,,,,,,,,,,,,,,,,,,,,,,,,
,,,,,,,,,,,,,,,,,60fdf30044b47c678461b1ca,26,2022-02-12_17h27.11.991,lexical_decision_task_DD_L2,2021.2.3,Win32,62.05013651,,,,,,,,,,,0.544700001,1,,,,,,,,,,,,,,m,1,0.544700001,,,,,,,,-0.082222222,-0.41,0,0,0,,0,67,67,13,1,MOTOR,LB,old,m,./images/MOTORLB.png,,,,,,,,,,,,,,,,,,,,,,,,,,,,,,,,,,,
,,,,,,,,,,,,,,,,,60fdf30044b47c678461b1ca,26,2022-02-12_17h27.11.991,lexical_decision_task_DD_L2,2021.2.3,Win32,62.05013651,,,,,,,,,,,0.5236,1,,,,,,,,,,,,,,z,1,0.5236,,,,,,,,-0.082222222,-0.41,0,0,0,,0,68,68,158,1,EGECT,LB,old,z,./images/EGECTLB.png,,,,,,,,,,,,,,,,,,,,,,,,,,,,,,,,,,,
,,,,,,,,,,,,,,,,,60fdf30044b47c678461b1ca,26,2022-02-12_17h27.11.991,lexical_decision_task_DD_L2,2021.2.3,Win32,62.05013651,,,,,,,,,,,0.675699999,1,,,,,,,,,,,,,,m,1,0.675699999,,,,,,,,-0.082222222,-0.41,0,0,0,,0,69,69,70,1,URINE,LB,old,m,./images/URINELB.png,,,,,,,,,,,,,,,,,,,,,,,,,,,,,,,,,,,
,,,,,,,,,,,,,,,,,60fdf30044b47c678461b1ca,26,2022-02-12_17h27.11.991,lexical_decision_task_DD_L2,2021.2.3,Win32,62.05013651,,,,,,,,,,,1.0679,1,,,,,,,,,,,,,,z,1,1.0679,,,,,,,,-0.082222222,-0.41,0,0,0,,0,70,70,118,1,BAVEL,HB,old,z,./images/BAVELHB.png,,,,,,,,,,,,,,,,,,,,,,,,,,,,,,,,,,,
,,,,,,,,,,,,,,,,,60fdf30044b47c678461b1ca,26,2022-02-12_17h27.11.991,lexical_decision_task_DD_L2,2021.2.3,Win32,62.05013651,,,,,,,,,,,0.516300001,1,,,,,,,,,,,,,,m,1,0.516300001,,,,,,,,-0.082222222,-0.41,0,0,0,,0,71,71,7,1,PAINT,LB,old,m,./images/PAINTLB.png,,,,,,,,,,,,,,,,,,,,,,,,,,,,,,,,,,,
,,,,,,,,,,,,,,,,,60fdf30044b47c678461b1ca,26,2022-02-12_17h27.11.991,lexical_decision_task_DD_L2,2021.2.3,Win32,62.05013651,,,,,,,,,,,0.5084,1,,,,,,,,,,,,,,z,1,0.5084,,,,,,,,-0.082222222,-0.41,0,0,0,,0,72,72,131,1,NACES,LB,old,z,./images/NACESLB.png,,,,,,,,,,,,,,,,,,,,,,,,,,,,,,,,,,,
,,,,,,,,,,,,,,,,,60fdf30044b47c678461b1ca,26,2022-02-12_17h27.11.991,lexical_decision_task_DD_L2,2021.2.3,Win32,62.05013651,,,,,,,,,,,0.655099998,1,,,,,,,,,,,,,,m,1,0.655099998,,,,,,,,-0.082222222,-0.41,0,0,0,,0,73,73,19,1,DOUGH,LB,old,m,./images/DOUGHLB.png,,,,,,,,,,,,,,,,,,,,,,,,,,,,,,,,,,,
,,,,,,,,,,,,,,,,,60fdf30044b47c678461b1ca,26,2022-02-12_17h27.11.991,lexical_decision_task_DD_L2,2021.2.3,Win32,62.05013651,,,,,,,,,,,0.5621,1,,,,,,,,,,,,,,m,1,0.5621,,,,,,,,-0.082222222,-0.41,0,0,0,,0,74,74,44,1,LIZARD,C,old,m,./images/LIZARD.png,,,,,,,,,,,,,,,,,,,,,,,,,,,,,,,,,,,
,,,,,,,,,,,,,,,,,60fdf30044b47c678461b1ca,26,2022-02-12_17h27.11.991,lexical_decision_task_DD_L2,2021.2.3,Win32,62.05013651,,,,,,,,,,,1.4585,1,,,,,,,,,,,,,,z,1,1.4585,,,,,,,,-0.082222222,-0.41,0,0,0,,0,75,75,106,1,CLUMS,HB,old,z,./images/CLUMSHB.png,,,,,,,,,,,,,,,,,,,,,,,,,,,,,,,,,,,
,,,,,,,,,,,,,,,,,60fdf30044b47c678461b1ca,26,2022-02-12_17h27.11.991,lexical_decision_task_DD_L2,2021.2.3,Win32,62.05013651,,,,,,,,,,,0.693099998,1,,,,,,,,,,,,,,m,1,0.693099998,,,,,,,,-0.082222222,-0.41,0,0,0,,0,76,76,79,1,CRUST,LB,old,m,./images/CRUSTLB.png,,,,,,,,,,,,,,,,,,,,,,,,,,,,,,,,,,,
,,,,,,,,,,,,,,,,,60fdf30044b47c678461b1ca,26,2022-02-12_17h27.11.991,lexical_decision_task_DD_L2,2021.2.3,Win32,62.05013651,,,,,,,,,,,0.8954,1,,,,,,,,,,,,,,z,1,0.8954,,,,,,,,-0.082222222,-0.41,0,0,0,,0,77,77,109,1,BURGE,HB,old,z,./images/BURGEHB.png,,,,,,,,,,,,,,,,,,,,,,,,,,,,,,,,,,,
,,,,,,,,,,,,,,,,,60fdf30044b47c678461b1ca,26,2022-02-12_17h27.11.991,lexical_decision_task_DD_L2,2021.2.3,Win32,62.05013651,,,,,,,,,,,0.748800001,1,,,,,,,,,,,,,,m,1,0.748800001,,,,,,,,-0.082222222,-0.41,0,0,0,,0,78,78,31,1,QUILL,LB,old,m,./images/QUILLLB.png,,,,,,,,,,,,,,,,,,,,,,,,,,,,,,,,,,,
,,,,,,,,,,,,,,,,,60fdf30044b47c678461b1ca,26,2022-02-12_17h27.11.991,lexical_decision_task_DD_L2,2021.2.3,Win32,62.05013651,,,,,,,,,,,0.995699999,1,,,,,,,,,,,,,,z,1,0.995699999,,,,,,,,-0.082222222,-0.41,0,0,0,,0,79,79,163,1,GAMBA,HB,old,z,./images/GAMBAHB.png,,,,,,,,,,,,,,,,,,,,,,,,,,,,,,,,,,,
,,,,,,,,,,,,,,,,,60fdf30044b47c678461b1ca,26,2022-02-12_17h27.11.991,lexical_decision_task_DD_L2,2021.2.3,Win32,62.05013651,,,,,,,,,,,0.4799,1,,,,,,,,,,,,,,z,1,0.4799,,,,,,,,-0.082222222,-0.41,0,0,0,,0,80,80,96,1,KEAMS,C,old,z,./images/KEAMS.png,,,,,,,,,,,,,,,,,,,,,,,,,,,,,,,,,,,
,,,,,,,,,,,,,,,,,60fdf30044b47c678461b1ca,26,2022-02-12_17h27.11.991,lexical_decision_task_DD_L2,2021.2.3,Win32,62.05013651,,,,,,,,,,,1.256700001,1,,,,,,,,,,,,,,z,1,1.256700001,,,,,,,,-0.082222222,-0.41,0,0,0,,0,81,81,148,1,JOMS,HB,old,z,./images/JOMSHB.png,,,,,,,,,,,,,,,,,,,,,,,,,,,,,,,,,,,
,,,,,,,,,,,,,,,,,60fdf30044b47c678461b1ca,26,2022-02-12_17h27.11.991,lexical_decision_task_DD_L2,2021.2.3,Win32,62.05013651,,,,,,,,,,,1.1014,1,,,,,,,,,,,,,,z,1,1.1014,,,,,,,,-0.082222222,-0.41,0,0,0,,0,82,82,91,1,SHENS,HB,old,z,./images/SHENSHB.png,,,,,,,,,,,,,,,,,,,,,,,,,,,,,,,,,,,
,,,,,,,,,,,,,,,,,60fdf30044b47c678461b1ca,26,2022-02-12_17h27.11.991,lexical_decision_task_DD_L2,2021.2.3,Win32,62.05013651,,,,,,,,,,,0.566799999,1,,,,,,,,,,,,,,z,1,0.566799999,,,,,,,,-0.082222222,-0.41,0,0,0,space,0,83,83,155,1,CANGY,LB,old,z,./images/CANGYLB.png,0.867299999,,,,,,,,,,,,,,,,,,,,,,,,,,,,,,,,,,
,,,,,,,,,,,,,,,,,60fdf30044b47c678461b1ca,26,2022-02-12_17h27.11.991,lexical_decision_task_DD_L2,2021.2.3,Win32,62.05013651,,,,,,,,,,,0.7186,1,,,,,,,,,,,,,,m,1,0.7186,,,,,,,,-0.082222222,-0.41,0,0,0,,0,84,84,67,1,SAILOR,LB,old,m,./images/SAILORLB.png,,,,,,,,,,,,,,,,,,,,,,,,,,,,,,,,,,,
,,,,,,,,,,,,,,,,,60fdf30044b47c678461b1ca,26,2022-02-12_17h27.11.991,lexical_decision_task_DD_L2,2021.2.3,Win32,62.05013651,,,,,,,,,,,0.6645,1,,,,,,,,,,,,,,m,1,0.6645,,,,,,,,-0.082222222,-0.41,0,0,0,,0,85,85,72,1,NOOSE,HB,old,m,./images/NOOSEHB.png,,,,,,,,,,,,,,,,,,,,,,,,,,,,,,,,,,,
,,,,,,,,,,,,,,,,,60fdf30044b47c678461b1ca,26,2022-02-12_17h27.11.991,lexical_decision_task_DD_L2,2021.2.3,Win32,62.05013651,,,,,,,,,,,0.9075,1,,,,,,,,,,,,,,z,1,0.9075,,,,,,,,-0.082222222,-0.41,0,0,0,,0,86,86,112,1,MYING,HB,old,z,./images/MYINGHB.png,,,,,,,,,,,,,,,,,,,,,,,,,,,,,,,,,,,
,,,,,,,,,,,,,,,,,60fdf30044b47c678461b1ca,26,2022-02-12_17h27.11.991,lexical_decision_task_DD_L2,2021.2.3,Win32,62.05013651,,,,,,,,,,,0.542300001,1,,,,,,,,,,,,,,m,1,0.542300001,,,,,,,,-0.082222222,-0.41,0,0,0,,0,87,87,51,1,ONION,HB,old,m,./images/ONIONHB.png,,,,,,,,,,,,,,,,,,,,,,,,,,,,,,,,,,,
,,,,,,,,,,,,,,,,,60fdf30044b47c678461b1ca,26,2022-02-12_17h27.11.991,lexical_decision_task_DD_L2,2021.2.3,Win32,62.05013651,,,,,,,,,,,0.7251,1,,,,,,,,,,,,,,z,1,0.7251,,,,,,,,-0.082222222,-0.41,0,0,0,,0,88,88,142,1,PLASK,HB,old,z,./images/PLASKHB.png,,,,,,,,,,,,,,,,,,,,,,,,,,,,,,,,,,,
,,,,,,,,,,,,,,,,,60fdf30044b47c678461b1ca,26,2022-02-12_17h27.11.991,lexical_decision_task_DD_L2,2021.2.3,Win32,62.05013651,,,,,,,,,,,0.616300001,1,,,,,,,,,,,,,,z,1,0.616300001,,,,,,,,-0.082222222,-0.41,0,0,0,,0,89,89,141,1,PLEET,C,old,z,./images/PLEET.png,,,,,,,,,,,,,,,,,,,,,,,,,,,,,,,,,,,
,,,,,,,,,,,,,,,,,60fdf30044b47c678461b1ca,26,2022-02-12_17h27.11.991,lexical_decision_task_DD_L2,2021.2.3,Win32,62.05013651,,,,,,,,,,,0.595199999,1,,,,,,,,,,,,,,m,1,0.595199999,,,,,,,,-0.082222222,-0.41,0,0,0,,0,90,90,48,1,SPORT,HB,old,m,./images/SPORTHB.png,,,,,,,,,,,,,,,,,,,,,,,,,,,,,,,,,,,
,,,,,,,,,,,,,,,,,60fdf30044b47c678461b1ca,26,2022-02-12_17h27.11.991,lexical_decision_task_DD_L2,2021.2.3,Win32,62.05013651,,,,,,,,,,,0.5515,1,,,,,,,,,,,,,,z,1,0.5515,,,,,,,,-0.082222222,-0.41,0,0,0,,0,91,91,149,1,VEASE,LB,old,z,./images/VEASELB.png,,,,,,,,,,,,,,,,,,,,,,,,,,,,,,,,,,,
,,,,,,,,,,,,,,,,,60fdf30044b47c678461b1ca,26,2022-02-12_17h27.11.991,lexical_decision_task_DD_L2,2021.2.3,Win32,62.05013651,,,,,,,,,,,0.5255,1,,,,,,,,,,,,,,z,1,0.5255,,,,,,,,-0.082222222,-0.41,0,0,0,,0,92,92,116,1,BALGY,LB,old,z,./images/BALGYLB.png,,,,,,,,,,,,,,,,,,,,,,,,,,,,,,,,,,,
,,,,,,,,,,,,,,,,,60fdf30044b47c678461b1ca,26,2022-02-12_17h27.11.991,lexical_decision_task_DD_L2,2021.2.3,Win32,62.05013651,,,,,,,,,,,0.800199999,1,,,,,,,,,,,,,,z,1,0.800199999,,,,,,,,-0.082222222,-0.41,0,0,0,,0,93,93,89,1,DRIEK,LB,old,z,./images/DRIEKLB.png,,,,,,,,,,,,,,,,,,,,,,,,,,,,,,,,,,,
,,,,,,,,,,,,,,,,,60fdf30044b47c678461b1ca,26,2022-02-12_17h27.11.991,lexical_decision_task_DD_L2,2021.2.3,Win32,62.05013651,,,,,,,,,,,0.564299999,1,,,,,,,,,,,,,,z,1,0.564299999,,,,,,,,-0.082222222,-0.41,0,0,0,,0,94,94,160,1,VEETS,HB,old,z,./images/VEETSHB.png,,,,,,,,,,,,,,,,,,,,,,,,,,,,,,,,,,,
,,,,,,,,,,,,,,,,,60fdf30044b47c678461b1ca,26,2022-02-12_17h27.11.991,lexical_decision_task_DD_L2,2021.2.3,Win32,62.05013651,,,,,,,,,,,1.140700001,1,,,,,,,,,,,,,,z,1,1.140700001,,,,,,,,-0.082222222,-0.41,0,0,0,,0,95,95,97,1,CHIDS,HB,old,z,./images/CHIDSHB.png,,,,,,,,,,,,,,,,,,,,,,,,,,,,,,,,,,,
,,,,,,,,,,,,,,,,,60fdf30044b47c678461b1ca,26,2022-02-12_17h27.11.991,lexical_decision_task_DD_L2,2021.2.3,Win32,62.05013651,,,,,,,,,,,0.5915,1,,,,,,,,,,,,,,m,1,0.5915,,,,,,,,-0.082222222,-0.41,0,0,0,,0,96,96,20,1,CRADLE,C,old,m,./images/CRADLE.png,,,,,,,,,,,,,,,,,,,,,,,,,,,,,,,,,,,
,,,,,,,,,,,,,,,,,60fdf30044b47c678461b1ca,26,2022-02-12_17h27.11.991,lexical_decision_task_DD_L2,2021.2.3,Win32,62.05013651,,,,,,,,,,,0.6669,1,,,,,,,,,,,,,,m,1,0.6669,,,,,,,,-0.082222222,-0.41,0,0,0,,0,97,97,71,1,PIMPLE,C,old,m,./images/PIMPLE.png,,,,,,,,,,,,,,,,,,,,,,,,,,,,,,,,,,,
,,,,,,,,,,,,,,,,,60fdf30044b47c678461b1ca,26,2022-02-12_17h27.11.991,lexical_decision_task_DD_L2,2021.2.3,Win32,62.05013651,,,,,,,,,,,0.518,1,,,,,,,,,,,,,,m,1,0.518,,,,,,,,-0.082222222,-0.41,0,0,0,,0,98,98,76,1,INFANT,LB,old,m,./images/INFANTLB.png,,,,,,,,,,,,,,,,,,,,,,,,,,,,,,,,,,,
,,,,,,,,,,,,,,,,,60fdf30044b47c678461b1ca,26,2022-02-12_17h27.11.991,lexical_decision_task_DD_L2,2021.2.3,Win32,62.05013651,,,,,,,,,,,0.488200001,1,,,,,,,,,,,,,,m,1,0.488200001,,,,,,,,-0.082222222,-0.41,0,0,0,,0,99,99,80,1,WEASEL,C,old,m,./images/WEASEL.png,,,,,,,,,,,,,,,,,,,,,,,,,,,,,,,,,,,
,,,,,,,,,,,,,,,,,60fdf30044b47c678461b1ca,26,2022-02-12_17h27.11.991,lexical_decision_task_DD_L2,2021.2.3,Win32,62.05013651,,,,,,,,,,,1.0251,1,,,,,,,,,,,,,,z,1,1.0251,,,,,,,,-0.082222222,-0.41,0,0,0,,0,100,100,151,1,TINKY,HB,old,z,./images/TINKYHB.png,,,,,,,,,,,,,,,,,,,,,,,,,,,,,,,,,,,
,,,,,,,,,,,,,,,,,60fdf30044b47c678461b1ca,26,2022-02-12_17h27.11.991,lexical_decision_task_DD_L2,2021.2.3,Win32,62.05013651,,,,,,,,,,,0.628199999,1,,,,,,,,,,,,,,z,1,0.628199999,,,,,,,,-0.082222222,-0.41,0,0,0,,0,101,101,110,1,CRUNK,LB,old,z,./images/CRUNKLB.png,,,,,,,,,,,,,,,,,,,,,,,,,,,,,,,,,,,
,,,,,,,,,,,,,,,,,60fdf30044b47c678461b1ca,26,2022-02-12_17h27.11.991,lexical_decision_task_DD_L2,2021.2.3,Win32,62.05013651,,,,,,,,,,,0.572,1,,,,,,,,,,,,,,m,1,0.572,,,,,,,,-0.082222222,-0.41,0,0,0,,0,102,102,26,1,SMOKER,C,old,m,./images/SMOKER.png,,,,,,,,,,,,,,,,,,,,,,,,,,,,,,,,,,,
,,,,,,,,,,,,,,,,,60fdf30044b47c678461b1ca,26,2022-02-12_17h27.11.991,lexical_decision_task_DD_L2,2021.2.3,Win32,62.05013651,,,,,,,,,,,0.547199999,1,,,,,,,,,,,,,,m,1,0.547199999,,,,,,,,-0.082222222,-0.41,0,0,0,,0,103,103,65,1,FARMER,C,old,m,./images/FARMER.png,,,,,,,,,,,,,,,,,,,,,,,,,,,,,,,,,,,
,,,,,,,,,,,,,,,,,60fdf30044b47c678461b1ca,26,2022-02-12_17h27.11.991,lexical_decision_task_DD_L2,2021.2.3,Win32,62.05013651,,,,,,,,,,,0.637,1,,,,,,,,,,,,,,m,1,0.637,,,,,,,,-0.082222222,-0.41,0,0,0,,0,104,104,77,1,COUCH,C,old,m,./images/COUCH.png,,,,,,,,,,,,,,,,,,,,,,,,,,,,,,,,,,,
,,,,,,,,,,,,,,,,,60fdf30044b47c678461b1ca,26,2022-02-12_17h27.11.991,lexical_decision_task_DD_L2,2021.2.3,Win32,62.05013651,,,,,,,,,,,0.530799999,1,,,,,,,,,,,,,,m,1,0.530799999,,,,,,,,-0.082222222,-0.41,0,0,0,,0,105,105,29,1,CRUMB,C,old,m,./images/CRUMB.png,,,,,,,,,,,,,,,,,,,,,,,,,,,,,,,,,,,
,,,,,,,,,,,,,,,,,60fdf30044b47c678461b1ca,26,2022-02-12_17h27.11.991,lexical_decision_task_DD_L2,2021.2.3,Win32,62.05013651,,,,,,,,,,,0.581799999,1,,,,,,,,,,,,,,z,1,0.581799999,,,,,,,,-0.082222222,-0.41,0,0,0,,0,106,106,117,1,STEEG,C,old,z,./images/STEEG.png,,,,,,,,,,,,,,,,,,,,,,,,,,,,,,,,,,,
,,,,,,,,,,,,,,,,,60fdf30044b47c678461b1ca,26,2022-02-12_17h27.11.991,lexical_decision_task_DD_L2,2021.2.3,Win32,62.05013651,,,,,,,,,,,0.598799999,1,,,,,,,,,,,,,,m,1,0.598799999,,,,,,,,-0.082222222,-0.41,0,0,0,,0,107,107,8,1,TULIP,C,old,m,./images/TULIP.png,,,,,,,,,,,,,,,,,,,,,,,,,,,,,,,,,,,
,,,,,,,,,,,,,,,,,60fdf30044b47c678461b1ca,26,2022-02-12_17h27.11.991,lexical_decision_task_DD_L2,2021.2.3,Win32,62.05013651,,,,,,,,,,,0.603799999,1,,,,,,,,,,,,,,z,1,0.603799999,,,,,,,,-0.082222222,-0.41,0,0,0,,0,108,108,92,1,PAIMS,LB,old,z,./images/PAIMSLB.png,,,,,,,,,,,,,,,,,,,,,,,,,,,,,,,,,,,
,,,,,,,,,,,,,,,,,60fdf30044b47c678461b1ca,26,2022-02-12_17h27.11.991,lexical_decision_task_DD_L2,2021.2.3,Win32,62.05013651,,,,,,,,,,,0.534,1,,,,,,,,,,,,,,m,1,0.534,,,,,,,,-0.082222222,-0.41,0,0,0,,0,109,109,14,1,PICKLE,C,old,m,./images/PICKLE.png,,,,,,,,,,,,,,,,,,,,,,,,,,,,,,,,,,,
,,,,,,,,,,,,,,,,,60fdf30044b47c678461b1ca,26,2022-02-12_17h27.11.991,lexical_decision_task_DD_L2,2021.2.3,Win32,62.05013651,,,,,,,,,,,0.523,1,,,,,,,,,,,,,,z,1,0.523,,,,,,,,-0.082222222,-0.41,0,0,0,,0,110,110,113,1,LINEW,LB,old,z,./images/LINEWLB.png,,,,,,,,,,,,,,,,,,,,,,,,,,,,,,,,,,,
,,,,,,,,,,,,,,,,,60fdf30044b47c678461b1ca,26,2022-02-12_17h27.11.991,lexical_decision_task_DD_L2,2021.2.3,Win32,62.05013651,,,,,,,,,,,0.6094,1,,,,,,,,,,,,,,m,1,0.6094,,,,,,,,-0.082222222,-0.41,0,0,0,,0,111,111,41,1,STRING,C,old,m,./images/STRING.png,,,,,,,,,,,,,,,,,,,,,,,,,,,,,,,,,,,
,,,,,,,,,,,,,,,,,60fdf30044b47c678461b1ca,26,2022-02-12_17h27.11.991,lexical_decision_task_DD_L2,2021.2.3,Win32,62.05013651,,,,,,,,,,,0.677,1,,,,,,,,,,,,,,m,1,0.677,,,,,,,,-0.082222222,-0.41,0,0,0,,0,112,112,56,1,PACKET,C,old,m,./images/PACKET.png,,,,,,,,,,,,,,,,,,,,,,,,,,,,,,,,,,,
,,,,,,,,,,,,,,,,,60fdf30044b47c678461b1ca,26,2022-02-12_17h27.11.991,lexical_decision_task_DD_L2,2021.2.3,Win32,62.05013651,,,,,,,,,,,0.5806,1,,,,,,,,,,,,,,m,1,0.5806,,,,,,,,-0.082222222,-0.41,0,0,0,,0,113,113,63,1,MIRROR,HB,old,m,./images/MIRRORHB.png,,,,,,,,,,,,,,,,,,,,,,,,,,,,,,,,,,,
,,,,,,,,,,,,,,,,,60fdf30044b47c678461b1ca,26,2022-02-12_17h27.11.991,lexical_decision_task_DD_L2,2021.2.3,Win32,62.05013651,,,,,,,,,,,0.874200001,1,,,,,,,,,,,,,,z,1,0.874200001,,,,,,,,-0.082222222,-0.41,0,0,0,,0,114,114,103,1,FLORT,HB,old,z,./images/FLORTHB.png,,,,,,,,,,,,,,,,,,,,,,,,,,,,,,,,,,,
,,,,,,,,,,,,,,,,,60fdf30044b47c678461b1ca,26,2022-02-12_17h27.11.991,lexical_decision_task_DD_L2,2021.2.3,Win32,62.05013651,,,,,,,,,,,0.750700001,1,,,,,,,,,,,,,,z,1,0.750700001,,,,,,,,-0.082222222,-0.41,0,0,0,,0,115,115,121,1,CEERS,HB,old,z,./images/CEERSHB.png,,,,,,,,,,,,,,,,,,,,,,,,,,,,,,,,,,,
,,,,,,,,,,,,,,,,,60fdf30044b47c678461b1ca,26,2022-02-12_17h27.11.991,lexical_decision_task_DD_L2,2021.2.3,Win32,62.05013651,,,,,,,,,,,0.5676,1,,,,,,,,,,,,,,m,1,0.5676,,,,,,,,-0.082222222,-0.41,0,0,0,,0,116,116,12,1,SHORE,HB,old,m,./images/SHOREHB.png,,,,,,,,,,,,,,,,,,,,,,,,,,,,,,,,,,,
,,,,,,,,,,,,,,,,,60fdf30044b47c678461b1ca,26,2022-02-12_17h27.11.991,lexical_decision_task_DD_L2,2021.2.3,Win32,62.05013651,,,,,,,,,,,0.6504,1,,,,,,,,,,,,,,m,1,0.6504,,,,,,,,-0.082222222,-0.41,0,0,0,,0,117,117,17,1,SKIING,C,old,m,./images/SKIING.png,,,,,,,,,,,,,,,,,,,,,,,,,,,,,,,,,,,
,,,,,,,,,,,,,,,,,60fdf30044b47c678461b1ca,26,2022-02-12_17h27.11.991,lexical_decision_task_DD_L2,2021.2.3,Win32,62.05013651,,,,,,,,,,,0.624300001,1,,,,,,,,,,,,,,z,1,0.624300001,,,,,,,,-0.082222222,-0.41,0,0,0,,0,118,118,146,1,MOOST,LB,old,z,./images/MOOSTLB.png,,,,,,,,,,,,,,,,,,,,,,,,,,,,,,,,,,,
,,,,,,,,,,,,,,,,,60fdf30044b47c678461b1ca,26,2022-02-12_17h27.11.991,lexical_decision_task_DD_L2,2021.2.3,Win32,62.05013651,,,,,,,,,,,0.6794,1,,,,,,,,,,,,,,z,1,0.6794,,,,,,,,-0.082222222,-0.41,0,0,0,,0,119,119,138,1,PLICE,C,old,z,./images/PLICE.png,,,,,,,,,,,,,,,,,,,,,,,,,,,,,,,,,,,
,,,,,,,,,,,,,,,,,60fdf30044b47c678461b1ca,26,2022-02-12_17h27.11.991,lexical_decision_task_DD_L2,2021.2.3,Win32,62.05013651,,,,,,,,,,,0.609,1,,,,,,,,,,,,,,z,1,0.609,,,,,,,,-0.082222222,-0.41,0,0,0,,0,120,120,99,1,BACKY,C,old,z,./images/BACKY.png,,,,,,,,,,,,,,,,,,,,,,,,,,,,,,,,,,,
,,,,,,,,,,,,,,,,,60fdf30044b47c678461b1ca,26,2022-02-12_17h27.11.991,lexical_decision_task_DD_L2,2021.2.3,Win32,62.05013651,,,,,,,,,,,0.725700001,1,,,,,,,,,,,,,,m,1,0.725700001,,,,,,,,-0.082222222,-0.41,0,0,0,,0,121,121,34,1,CANYON,LB,old,m,./images/CANYONLB.png,,,,,,,,,,,,,,,,,,,,,,,,,,,,,,,,,,,
,,,,,,,,,,,,,,,,,60fdf30044b47c678461b1ca,26,2022-02-12_17h27.11.991,lexical_decision_task_DD_L2,2021.2.3,Win32,62.05013651,,,,,,,,,,,0.850200001,1,,,,,,,,,,,,,,z,1,0.850200001,,,,,,,,-0.082222222,-0.41,0,0,0,,0,122,122,164,1,SGREW,LB,old,z,./images/SGREWLB.png,,,,,,,,,,,,,,,,,,,,,,,,,,,,,,,,,,,
,,,,,,,,,,,,,,,,,60fdf30044b47c678461b1ca,26,2022-02-12_17h27.11.991,lexical_decision_task_DD_L2,2021.2.3,Win32,62.05013651,,,,,,,,,,,0.6449,1,,,,,,,,,,,,,,z,1,0.6449,,,,,,,,-0.082222222,-0.41,0,0,0,,0,123,123,104,1,GITTY,LB,old,z,./images/GITTYLB.png,,,,,,,,,,,,,,,,,,,,,,,,,,,,,,,,,,,
,,,,,,,,,,,,,,,,,60fdf30044b47c678461b1ca,26,2022-02-12_17h27.11.991,lexical_decision_task_DD_L2,2021.2.3,Win32,62.05013651,,,,,,,,,,,0.540799999,1,,,,,,,,,,,,,,m,1,0.540799999,,,,,,,,-0.082222222,-0.41,0,0,0,,0,124,124,32,1,BARREL,C,old,m,./images/BARREL.png,,,,,,,,,,,,,,,,,,,,,,,,,,,,,,,,,,,
,,,,,,,,,,,,,,,,,60fdf30044b47c678461b1ca,26,2022-02-12_17h27.11.991,lexical_decision_task_DD_L2,2021.2.3,Win32,62.05013651,,,,,,,,,,,0.6645,1,,,,,,,,,,,,,,m,1,0.6645,,,,,,,,-0.082222222,-0.41,0,0,0,space,0,125,125,30,1,STORM,HB,old,m,./images/STORMHB.png,0.7034,,,,,,,,,,,,,,,,,,,,,,,,,,,,,,,,,,
,,,,,,,,,,,,,,,,,60fdf30044b47c678461b1ca,26,2022-02-12_17h27.11.991,lexical_decision_task_DD_L2,2021.2.3,Win32,62.05013651,,,,,,,,,,,0.5095,1,,,,,,,,,,,,,,z,1,0.5095,,,,,,,,-0.082222222,-0.41,0,0,0,,0,126,126,93,1,SMONE,C,old,z,./images/SMONE.png,,,,,,,,,,,,,,,,,,,,,,,,,,,,,,,,,,,
,,,,,,,,,,,,,,,,,60fdf30044b47c678461b1ca,26,2022-02-12_17h27.11.991,lexical_decision_task_DD_L2,2021.2.3,Win32,62.05013651,,,,,,,,,,,0.604599998,1,,,,,,,,,,,,,,m,1,0.604599998,,,,,,,,-0.082222222,-0.41,0,0,0,,0,127,127,62,1,PURSE,C,old,m,./images/PURSE.png,,,,,,,,,,,,,,,,,,,,,,,,,,,,,,,,,,,
,,,,,,,,,,,,,,,,,60fdf30044b47c678461b1ca,26,2022-02-12_17h27.11.991,lexical_decision_task_DD_L2,2021.2.3,Win32,62.05013651,,,,,,,,,,,0.7371,1,,,,,,,,,,,,,,m,1,0.7371,,,,,,,,-0.082222222,-0.41,0,0,0,,0,128,128,2,1,BEARD,C,old,m,./images/BEARD.png,,,,,,,,,,,,,,,,,,,,,,,,,,,,,,,,,,,
,,,,,,,,,,,,,,,,,60fdf30044b47c678461b1ca,26,2022-02-12_17h27.11.991,lexical_decision_task_DD_L2,2021.2.3,Win32,62.05013651,,,,,,,,,,,0.509200001,1,,,,,,,,,,,,,,z,1,0.509200001,,,,,,,,-0.082222222,-0.41,0,0,0,,0,129,129,120,1,RINED,C,old,z,./images/RINED.png,,,,,,,,,,,,,,,,,,,,,,,,,,,,,,,,,,,
,,,,,,,,,,,,,,,,,60fdf30044b47c678461b1ca,26,2022-02-12_17h27.11.991,lexical_decision_task_DD_L2,2021.2.3,Win32,62.05013651,,,,,,,,,,,0.479299999,1,,,,,,,,,,,,,,m,1,0.479299999,,,,,,,,-0.082222222,-0.41,0,0,0,,0,130,130,35,1,PEACH,C,old,m,./images/PEACH.png,,,,,,,,,,,,,,,,,,,,,,,,,,,,,,,,,,,
,,,,,,,,,,,,,,,,,60fdf30044b47c678461b1ca,26,2022-02-12_17h27.11.991,lexical_decision_task_DD_L2,2021.2.3,Win32,62.05013651,,,,,,,,,,,0.573700001,1,,,,,,,,,,,,,,z,1,0.573700001,,,,,,,,-0.082222222,-0.41,0,0,0,,0,131,131,153,1,CLUPS,C,old,z,./images/CLUPS.png,,,,,,,,,,,,,,,,,,,,,,,,,,,,,,,,,,,
,,,,,,,,,,,,,,,,,60fdf30044b47c678461b1ca,26,2022-02-12_17h27.11.991,lexical_decision_task_DD_L2,2021.2.3,Win32,62.05013651,,,,,,,,,,,0.489300001,1,,,,,,,,,,,,,,z,1,0.489300001,,,,,,,,-0.082222222,-0.41,0,0,0,,0,132,132,126,1,GUELS,C,old,z,./images/GUELS.png,,,,,,,,,,,,,,,,,,,,,,,,,,,,,,,,,,,
,,,,,,,,,,,,,,,,,60fdf30044b47c678461b1ca,26,2022-02-12_17h27.11.991,lexical_decision_task_DD_L2,2021.2.3,Win32,62.05013651,,,,,,,,,,,0.5405,1,,,,,,,,,,,,,,m,1,0.5405,,,,,,,,-0.082222222,-0.41,0,0,0,,0,133,133,37,1,BIRTH,LB,old,m,./images/BIRTHLB.png,,,,,,,,,,,,,,,,,,,,,,,,,,,,,,,,,,,
,,,,,,,,,,,,,,,,,60fdf30044b47c678461b1ca,26,2022-02-12_17h27.11.991,lexical_decision_task_DD_L2,2021.2.3,Win32,62.05013651,,,,,,,,,,,0.487799999,1,,,,,,,,,,,,,,m,1,0.487799999,,,,,,,,-0.082222222,-0.41,0,0,0,,0,134,134,83,1,JUNGLE,C,old,m,./images/JUNGLE.png,,,,,,,,,,,,,,,,,,,,,,,,,,,,,,,,,,,
,,,,,,,,,,,,,,,,,60fdf30044b47c678461b1ca,26,2022-02-12_17h27.11.991,lexical_decision_task_DD_L2,2021.2.3,Win32,62.05013651,,,,,,,,,,,0.466299999,1,,,,,,,,,,,,,,z,1,0.466299999,,,,,,,,-0.082222222,-0.41,0,0,0,,0,135,135,125,1,MOOKY,LB,old,z,./images/MOOKYLB.png,,,,,,,,,,,,,,,,,,,,,,,,,,,,,,,,,,,
,,,,,,,,,,,,,,,,,60fdf30044b47c678461b1ca,26,2022-02-12_17h27.11.991,lexical_decision_task_DD_L2,2021.2.3,Win32,62.05013651,,,,,,,,,,,0.5091,1,,,,,,,,,,,,,,m,1,0.5091,,,,,,,,-0.082222222,-0.41,0,0,0,,0,136,136,82,1,SUNSET,LB,old,m,./images/SUNSETLB.png,,,,,,,,,,,,,,,,,,,,,,,,,,,,,,,,,,,
,,,,,,,,,,,,,,,,,60fdf30044b47c678461b1ca,26,2022-02-12_17h27.11.991,lexical_decision_task_DD_L2,2021.2.3,Win32,62.05013651,,,,,,,,,,,0.526,1,,,,,,,,,,,,,,m,1,0.526,,,,,,,,-0.082222222,-0.41,0,0,0,,0,137,137,57,1,MOOSE,HB,old,m,./images/MOOSEHB.png,,,,,,,,,,,,,,,,,,,,,,,,,,,,,,,,,,,
,,,,,,,,,,,,,,,,,60fdf30044b47c678461b1ca,26,2022-02-12_17h27.11.991,lexical_decision_task_DD_L2,2021.2.3,Win32,62.05013651,,,,,,,,,,,0.6309,0,,,,,,,,,,,,,,z,0,0.6309,,,,,,,,-0.082222222,-0.41,0,0,0,,0,138,138,16,1,PENCE,LB,old,m,./images/PENCELB.png,,,,,,,,,,,,,,,,,,,,,,,,,,,,,,,,,,,
,,,,,,,,,,,,,,,,,60fdf30044b47c678461b1ca,26,2022-02-12_17h27.11.991,lexical_decision_task_DD_L2,2021.2.3,Win32,62.05013651,,,,,,,,,,,0.997699999,1,,,,,,,,,,,,,,z,1,0.997699999,,,,,,,,-0.082222222,-0.41,0,0,0,,0,139,139,159,1,CUDDY,C,old,z,./images/CUDDY.png,,,,,,,,,,,,,,,,,,,,,,,,,,,,,,,,,,,
,,,,,,,,,,,,,,,,,60fdf30044b47c678461b1ca,26,2022-02-12_17h27.11.991,lexical_decision_task_DD_L2,2021.2.3,Win32,62.05013651,,,,,,,,,,,0.6304,1,,,,,,,,,,,,,,z,1,0.6304,,,,,,,,-0.082222222,-0.41,0,0,0,,0,140,140,161,1,BLAPS,LB,old,z,./images/BLAPSLB.png,,,,,,,,,,,,,,,,,,,,,,,,,,,,,,,,,,,
,,,,,,,,,,,,,,,,,60fdf30044b47c678461b1ca,26,2022-02-12_17h27.11.991,lexical_decision_task_DD_L2,2021.2.3,Win32,62.05013651,,,,,,,,,,,0.716700001,1,,,,,,,,,,,,,,m,1,0.716700001,,,,,,,,-0.082222222,-0.41,0,0,0,,0,141,141,21,1,KIDNEY,HB,old,m,./images/KIDNEYHB.png,,,,,,,,,,,,,,,,,,,,,,,,,,,,,,,,,,,
,,,,,,,,,,,,,,,,,60fdf30044b47c678461b1ca,26,2022-02-12_17h27.11.991,lexical_decision_task_DD_L2,2021.2.3,Win32,62.05013651,,,,,,,,,,,0.653199999,1,,,,,,,,,,,,,,m,1,0.653199999,,,,,,,,-0.082222222,-0.41,0,0,0,,0,142,142,49,1,DRUMS,LB,old,m,./images/DRUMSLB.png,,,,,,,,,,,,,,,,,,,,,,,,,,,,,,,,,,,
,,,,,,,,,,,,,,,,,60fdf30044b47c678461b1ca,26,2022-02-12_17h27.11.991,lexical_decision_task_DD_L2,2021.2.3,Win32,62.05013651,,,,,,,,,,,0.958200001,1,,,,,,,,,,,,,,z,1,0.958200001,,,,,,,,-0.082222222,-0.41,0,0,0,,0,143,143,115,1,MAWNS,HB,old,z,./images/MAWNSHB.png,,,,,,,,,,,,,,,,,,,,,,,,,,,,,,,,,,,
,,,,,,,,,,,,,,,,,60fdf30044b47c678461b1ca,26,2022-02-12_17h27.11.991,lexical_decision_task_DD_L2,2021.2.3,Win32,62.05013651,,,,,,,,,,,0.9681,1,,,,,,,,,,,,,,z,1,0.9681,,,,,,,,-0.082222222,-0.41,0,0,0,,0,144,144,139,1,BLEAR,HB,old,z,./images/BLEARHB.png,,,,,,,,,,,,,,,,,,,,,,,,,,,,,,,,,,,
,,,,,,,,,,,,,,,,,60fdf30044b47c678461b1ca,26,2022-02-12_17h27.11.991,lexical_decision_task_DD_L2,2021.2.3,Win32,62.05013651,,,,,,,,,,,2.1809,1,,,,,,,,,,,,,,z,1,2.1809,,,,,,,,-0.082222222,-0.41,0,0,0,,0,145,145,100,1,DRIBS,HB,old,z,./images/DRIBSHB.png,,,,,,,,,,,,,,,,,,,,,,,,,,,,,,,,,,,
,,,,,,,,,,,,,,,,,60fdf30044b47c678461b1ca,26,2022-02-12_17h27.11.991,lexical_decision_task_DD_L2,2021.2.3,Win32,62.05013651,,,,,,,,,,,0.7899,1,,,,,,,,,,,,,,m,1,0.7899,,,,,,,,-0.082222222,-0.41,0,0,0,,0,146,146,42,1,FOLDER,HB,old,m,./images/FOLDERHB.png,,,,,,,,,,,,,,,,,,,,,,,,,,,,,,,,,,,
,,,,,,,,,,,,,,,,,60fdf30044b47c678461b1ca,26,2022-02-12_17h27.11.991,lexical_decision_task_DD_L2,2021.2.3,Win32,62.05013651,,,,,,,,,,,0.5521,1,,,,,,,,,,,,,,m,1,0.5521,,,,,,,,-0.082222222,-0.41,0,0,0,,0,147,147,15,1,GREASE,HB,old,m,./images/GREASEHB.png,,,,,,,,,,,,,,,,,,,,,,,,,,,,,,,,,,,
,,,,,,,,,,,,,,,,,60fdf30044b47c678461b1ca,26,2022-02-12_17h27.11.991,lexical_decision_task_DD_L2,2021.2.3,Win32,62.05013651,,,,,,,,,,,0.675799999,1,,,,,,,,,,,,,,z,1,0.675799999,,,,,,,,-0.082222222,-0.41,0,0,0,,0,148,148,134,1,TROSS,LB,old,z,./images/TROSSLB.png,,,,,,,,,,,,,,,,,,,,,,,,,,,,,,,,,,,
,,,,,,,,,,,,,,,,,60fdf30044b47c678461b1ca,26,2022-02-12_17h27.11.991,lexical_decision_task_DD_L2,2021.2.3,Win32,62.05013651,,,,,,,,,,,0.5544,1,,,,,,,,,,,,,,z,1,0.5544,,,,,,,,-0.082222222,-0.41,0,0,0,,0,149,149,150,1,NOOLS,C,old,z,./images/NOOLS.png,,,,,,,,,,,,,,,,,,,,,,,,,,,,,,,,,,,
,,,,,,,,,,,,,,,,,60fdf30044b47c678461b1ca,26,2022-02-12_17h27.11.991,lexical_decision_task_DD_L2,2021.2.3,Win32,62.05013651,,,,,,,,,,,0.557300001,1,,,,,,,,,,,,,,m,1,0.557300001,,,,,,,,-0.082222222,-0.41,0,0,0,,0,150,150,36,1,THROAT,HB,old,m,./images/THROATHB.png,,,,,,,,,,,,,,,,,,,,,,,,,,,,,,,,,,,
,,,,,,,,,,,,,,,,,60fdf30044b47c678461b1ca,26,2022-02-12_17h27.11.991,lexical_decision_task_DD_L2,2021.2.3,Win32,62.05013651,,,,,,,,,,,0.612300001,1,,,,,,,,,,,,,,m,1,0.612300001,,,,,,,,-0.082222222,-0.41,0,0,0,,0,151,151,74,1,CEMENT,C,old,m,./images/CEMENT.png,,,,,,,,,,,,,,,,,,,,,,,,,,,,,,,,,,,
,,,,,,,,,,,,,,,,,60fdf30044b47c678461b1ca,26,2022-02-12_17h27.11.991,lexical_decision_task_DD_L2,2021.2.3,Win32,62.05013651,,,,,,,,,,,1.069300001,1,,,,,,,,,,,,,,m,1,1.069300001,,,,,,,,-0.082222222,-0.41,0,0,0,,0,152,152,43,1,MOSQUE,LB,old,m,./images/MOSQUELB.png,,,,,,,,,,,,,,,,,,,,,,,,,,,,,,,,,,,
,,,,,,,,,,,,,,,,,60fdf30044b47c678461b1ca,26,2022-02-12_17h27.11.991,lexical_decision_task_DD_L2,2021.2.3,Win32,62.05013651,,,,,,,,,,,0.566,1,,,,,,,,,,,,,,m,1,0.566,,,,,,,,-0.082222222,-0.41,0,0,0,,0,153,153,28,1,FALCON,LB,old,m,./images/FALCONLB.png,,,,,,,,,,,,,,,,,,,,,,,,,,,,,,,,,,,
,,,,,,,,,,,,,,,,,60fdf30044b47c678461b1ca,26,2022-02-12_17h27.11.991,lexical_decision_task_DD_L2,2021.2.3,Win32,62.05013651,,,,,,,,,,,0.7685,1,,,,,,,,,,,,,,m,1,0.7685,,,,,,,,-0.082222222,-0.41,0,0,0,,0,154,154,0,1,TOMATO,HB,old,m,./images/TOMATOHB.png,,,,,,,,,,,,,,,,,,,,,,,,,,,,,,,,,,,
,,,,,,,,,,,,,,,,,60fdf30044b47c678461b1ca,26,2022-02-12_17h27.11.991,lexical_decision_task_DD_L2,2021.2.3,Win32,62.05013651,,,,,,,,,,,0.6421,1,,,,,,,,,,,,,,z,1,0.6421,,,,,,,,-0.082222222,-0.41,0,0,0,,0,155,155,152,1,FRAIN,LB,old,z,./images/FRAINLB.png,,,,,,,,,,,,,,,,,,,,,,,,,,,,,,,,,,,
,,,,,,,,,,,,,,,,,60fdf30044b47c678461b1ca,26,2022-02-12_17h27.11.991,lexical_decision_task_DD_L2,2021.2.3,Win32,62.05013651,,,,,,,,,,,0.558,1,,,,,,,,,,,,,,z,1,0.558,,,,,,,,-0.082222222,-0.41,0,0,0,,0,156,156,119,1,PAFER,LB,old,z,./images/PAFERLB.png,,,,,,,,,,,,,,,,,,,,,,,,,,,,,,,,,,,
,,,,,,,,,,,,,,,,,60fdf30044b47c678461b1ca,26,2022-02-12_17h27.11.991,lexical_decision_task_DD_L2,2021.2.3,Win32,62.05013651,,,,,,,,,,,0.5455,1,,,,,,,,,,,,,,m,1,0.5455,,,,,,,,-0.082222222,-0.41,0,0,0,,0,157,157,11,1,BONNET,C,old,m,./images/BONNET.png,,,,,,,,,,,,,,,,,,,,,,,,,,,,,,,,,,,
,,,,,,,,,,,,,,,,,60fdf30044b47c678461b1ca,26,2022-02-12_17h27.11.991,lexical_decision_task_DD_L2,2021.2.3,Win32,62.05013651,,,,,,,,,,,0.5175,1,,,,,,,,,,,,,,z,1,0.5175,,,,,,,,-0.082222222,-0.41,0,0,0,,0,158,158,147,1,ZOLES,C,old,z,./images/ZOLES.png,,,,,,,,,,,,,,,,,,,,,,,,,,,,,,,,,,,
,,,,,,,,,,,,,,,,,60fdf30044b47c678461b1ca,26,2022-02-12_17h27.11.991,lexical_decision_task_DD_L2,2021.2.3,Win32,62.05013651,,,,,,,,,,,0.778299999,1,,,,,,,,,,,,,,m,1,0.778299999,,,,,,,,-0.082222222,-0.41,0,0,0,,0,159,159,54,1,TRIPOD,HB,old,m,./images/TRIPODHB.png,,,,,,,,,,,,,,,,,,,,,,,,,,,,,,,,,,,
,,,,,,,,,,,,,,,,,60fdf30044b47c678461b1ca,26,2022-02-12_17h27.11.991,lexical_decision_task_DD_L2,2021.2.3,Win32,62.05013651,,,,,,,,,,,0.506599998,1,,,,,,,,,,,,,,m,1,0.506599998,,,,,,,,-0.082222222,-0.41,0,0,0,,0,160,160,50,1,MALLET,C,old,m,./images/MALLET.png,,,,,,,,,,,,,,,,,,,,,,,,,,,,,,,,,,,
,,,,,,,,,,,,,,,,,60fdf30044b47c678461b1ca,26,2022-02-12_17h27.11.991,lexical_decision_task_DD_L2,2021.2.3,Win32,62.05013651,,,,,,,,,,,0.7076,1,,,,,,,,,,,,,,z,1,0.7076,,,,,,,,-0.082222222,-0.41,0,0,0,,0,161,161,128,1,GRIFT,LB,old,z,./images/GRIFTLB.png,,,,,,,,,,,,,,,,,,,,,,,,,,,,,,,,,,,
,,,,,,,,,,,,,,,,,60fdf30044b47c678461b1ca,26,2022-02-12_17h27.11.991,lexical_decision_task_DD_L2,2021.2.3,Win32,62.05013651,,,,,,,,,,,0.4921,1,,,,,,,,,,,,,,z,1,0.4921,,,,,,,,-0.082222222,-0.41,0,0,0,,0,162,162,111,1,HOSSE,C,old,z,./images/HOSSE.png,,,,,,,,,,,,,,,,,,,,,,,,,,,,,,,,,,,
,,,,,,,,,,,,,,,,,60fdf30044b47c678461b1ca,26,2022-02-12_17h27.11.991,lexical_decision_task_DD_L2,2021.2.3,Win32,62.05013651,,,,,,,,,,,0.5294,1,,,,,,,,,,,,,,m,1,0.5294,,,,,,,,-0.082222222,-0.41,0,0,0,,0,163,163,6,1,SQUARE,HB,old,m,./images/SQUAREHB.png,,,,,,,,,,,,,,,,,,,,,,,,,,,,,,,,,,,
,,,,,,,,,,,,,,,,,60fdf30044b47c678461b1ca,26,2022-02-12_17h27.11.991,lexical_decision_task_DD_L2,2021.2.3,Win32,62.05013651,,,,,,,,,,,0.5951,1,,,,,,,,,,,,,,m,1,0.5951,,,,,,,,-0.082222222,-0.41,0,0,0,,0,164,164,9,1,RHINO,HB,old,m,./images/RHINOHB.png,,,,,,,,,,,,,,,,,,,,,,,,,,,,,,,,,,,
,,,,,,,,,,,,,,,,,60fdf30044b47c678461b1ca,26,2022-02-12_17h27.11.991,lexical_decision_task_DD_L2,2021.2.3,Win32,62.05013651,,,,,,,,,,,1.5145,1,,,,,,,,,,,,,,m,1,1.5145,,,,,,,,-0.082222222,-0.41,0,0,0,,0,165,165,69,1,COOKER,HB,old,m,./images/COOKERHB.png,,,,,,,,,,,,,,,,,,,,,,,,,,,,,,,,,,,
,,,,,,,,,,,,,,,,,60fdf30044b47c678461b1ca,26,2022-02-12_17h27.11.991,lexical_decision_task_DD_L2,2021.2.3,Win32,62.05013651,,,,,,,,,,,0.5321,1,,,,,,,,,,,,,,m,1,0.5321,,,,,,,,-0.082222222,-0.41,0,0,0,,0,166,166,68,1,TORCH,C,old,m,./images/TORCH.png,,,,,,,,,,,,,,,,,,,,,,,,,,,,,,,,,,,
,,,,,,,,,,,,,,,,,60fdf30044b47c678461b1ca,26,2022-02-12_17h27.11.991,lexical_decision_task_DD_L2,2021.2.3,Win32,62.05013651,,,,,,,,,,,1.2159,1,,,,,,,,,,,,,,m,1,1.2159,,,,,,,,-0.082222222,-0.41,0,0,0,,0,167,167,59,1,BURIAL,C,old,m,./images/BURIAL.png,,,,,,,,,,,,,,,,,,,,,,,,,,,,,,,,,,,
,,,,,,,,,,,,,,,,,60fdf30044b47c678461b1ca,26,2022-02-12_17h27.11.991,lexical_decision_task_DD_L2,2021.2.3,Win32,62.05013651,,,,,,,,,,,,,,,,,,,,,,,,,,,,,,,,,,,,,,,,,,,,,,,,How likely will it be that you will recognize the words presented slighly blurred on a scale of 0 (not likely) to 100 (most likely)?,,,,,-0.026666667,-0.432222222,1,0,0,jol_adv,5,11.7109,0,0,0,1,1,,,,,,,,,,,,,,,,,,,,,
,,,,,,,,,,,,,,,,,60fdf30044b47c678461b1ca,26,2022-02-12_17h27.11.991,lexical_decision_task_DD_L2,2021.2.3,Win32,62.05013651,,,,,,,,,,,,,,,,,,,,,,,,,,,,,,,,,,,,,,,,,,,,,,,,How likely will it be that you will recognize the words presented very blurred on a scale of 0 (not likely) to 100 (most likely)?,,,,,,,,,,,5,0.037099998,0,1,1,2,1,,,,,,,,,,,,,,,,,,,,,
,,,,,,,,,,,,,,,,,60fdf30044b47c678461b1ca,26,2022-02-12_17h27.11.991,lexical_decision_task_DD_L2,2021.2.3,Win32,62.05013651,,,,,,,,,,,,,,,,,,,,,,,,,,,,,,,,,,,,,,,,,,,,,,,,How likely will it be that you will recognize the words presented clearly on a scale of 0 (not likely) to 100 (most likely)?,,,,,,,,,,,6,3.6899,0,2,2,0,1,,,,,,,,,,,,,,,,,,,,,
space,13.9878,0.014444444,-0.418888889,0,0,0,,,,,,1,test,"In the next phase you will be presented with the words from the the first phase. Your job is to decide whether you remember seeing the word or not. If you remember seeing the word press ""old"" or type ""m"". If you do not remember seeing the word press ""new"" or type ""z"". Please press the space bar or click on continue to begin. ",,,60fdf30044b47c678461b1ca,26,2022-02-12_17h27.11.991,lexical_decision_task_DD_L2,2021.2.3,Win32,62.05013651,,,,,,,,,,,,,,,,,,,,,,,,,,,,,,,,,,,,,,,,,,,,,,,,,,,,,,,,,,,,,,,,,,0,0,0,0,1,,,,,,,,,,,,,,,,
space,3.076599998,0.014444444,-0.418888889,0,0,0,,,,,,1,test,"In the next phase you will be presented with the words from the the first phase. Your job is to decide whether you remember seeing the word or not. If you remember seeing the word press ""old"" or type ""m"". If you do not remember seeing the word press ""new"" or type ""z"". Please press the space bar or click on continue to begin. ",,,60fdf30044b47c678461b1ca,26,2022-02-12_17h27.11.991,lexical_decision_task_DD_L2,2021.2.3,Win32,62.05013651,,,,,,,,,,,,,,,,,,,,,,,,,,,,,,,,,,,,,,,,,,,,,,,,,,,,,,,,,,,,,,,,,,1,0,1,0,1,,,,,,,,,,,,,,,,
space,3.2781,0.371111111,-0.255555556,0,0,0,,,,,,1,test,"In the next phase you will be presented with the words from the the first phase. Your job is to decide whether you remember seeing the word or not. If you remember seeing the word press ""old"" or type ""m"". If you do not remember seeing the word press ""new"" or type ""z"". Please press the space bar or click on continue to begin. ",,,60fdf30044b47c678461b1ca,26,2022-02-12_17h27.11.991,lexical_decision_task_DD_L2,2021.2.3,Win32,62.05013651,,,,,,,,,,,,,,,,,,,,,,,,,,,,,,,,,,,,,,,,,,,,,,,,,,,,,,,,,,,,,,,,,,2,0,2,0,1,,,,,,,,,,,,,,,,
space,2.315,0.052222222,-0.257777778,0,0,0,,,,,,1,test,"In the next phase you will be presented with the words from the the first phase. Your job is to decide whether you remember seeing the word or not. If you remember seeing the word press ""old"" or type ""m"". If you do not remember seeing the word press ""new"" or type ""z"". Please press the space bar or click on continue to begin. ",,,60fdf30044b47c678461b1ca,26,2022-02-12_17h27.11.991,lexical_decision_task_DD_L2,2021.2.3,Win32,62.05013651,,,,,,,,,,,,,,,,,,,,,,,,,,,,,,,,,,,,,,,,,,,,,,,,,,,,,,,,,,,,,,,,,,3,0,3,0,1,,,,,,,,,,,,,,,,
,,-0.055555556,-0.384444444,1,0,0,,,,,,1,test,"In the next phase you will be presented with the words from the the first phase. Your job is to decide whether you remember seeing the word or not. If you remember seeing the word press ""old"" or type ""m"". If you do not remember seeing the word press ""new"" or type ""z"". Please press the space bar or click on continue to begin. ",,,60fdf30044b47c678461b1ca,26,2022-02-12_17h27.11.991,lexical_decision_task_DD_L2,2021.2.3,Win32,62.05013651,,,,,,,,,,,,,,,,,,,,,,,,,,,,,,,,,,,,,,,,,,,,,,,,,,,,,,,,,,,,,,,,,,4,0,4,0,1,instr_done_button,,,,,,,,,,,,,,,
,,,,,,,,,,,,,,,,,60fdf30044b47c678461b1ca,26,2022-02-12_17h27.11.991,lexical_decision_task_DD_L2,2021.2.3,Win32,62.05013651,,,,,,,,,,,1.507,0,,,,,,,,,,,,,,,,,,,,,,,,0.256666667,-0.181111111,0,0,0,,,,,,,TORCH,C,m,y,./images/TORCH.png,,,,,,,,,,,,,,,,,,,,,z,0,1.507,,,,,,,,0,0,0,68,1
,,,,,,,,,,,,,,,,,60fdf30044b47c678461b1ca,26,2022-02-12_17h27.11.991,lexical_decision_task_DD_L2,2021.2.3,Win32,62.05013651,,,,,,,,,,,2.302,1,,,,,,,,,,,,,,,,,,,,,,,,0.256666667,-0.181111111,0,0,0,,,,,,,CANOE,LB,z,y,./images/CANOELB.png,,,,,,,,,,,,,,,,,,,,,z,1,2.302,,,,,,,,0,1,1,142,1
,,,,,,,,,,,,,,,,,60fdf30044b47c678461b1ca,26,2022-02-12_17h27.11.991,lexical_decision_task_DD_L2,2021.2.3,Win32,62.05013651,,,,,,,,,,,1.3134,1,,,,,,,,,,,,,,,,,,,,,,,,0.256666667,-0.181111111,0,0,0,,,,,,,MOOSE,HB,m,y,./images/MOOSEHB.png,,,,,,,,,,,,,,,,,,,,,m,1,1.3134,,,,,,,,0,2,2,57,1
,,,,,,,,,,,,,,,,,60fdf30044b47c678461b1ca,26,2022-02-12_17h27.11.991,lexical_decision_task_DD_L2,2021.2.3,Win32,62.05013651,,,,,,,,,,,1.124599998,1,,,,,,,,,,,,,,,,,,,,,,,,0.256666667,-0.181111111,0,0,0,,,,,,,CANDY,HB,z,y,./images/CANDYHB.png,,,,,,,,,,,,,,,,,,,,,z,1,1.124599998,,,,,,,,0,3,3,123,1
,,,,,,,,,,,,,,,,,60fdf30044b47c678461b1ca,26,2022-02-12_17h27.11.991,lexical_decision_task_DD_L2,2021.2.3,Win32,62.05013651,,,,,,,,,,,1.0991,1,,,,,,,,,,,,,,,,,,,,,,,,0.256666667,-0.181111111,0,0,0,,,,,,,SKIING,C,m,y,./images/SKIING.png,,,,,,,,,,,,,,,,,,,,,m,1,1.0991,,,,,,,,0,4,4,17,1
,,,,,,,,,,,,,,,,,60fdf30044b47c678461b1ca,26,2022-02-12_17h27.11.991,lexical_decision_task_DD_L2,2021.2.3,Win32,62.05013651,,,,,,,,,,,1.03,1,,,,,,,,,,,,,,,,,,,,,,,,0.256666667,-0.181111111,0,0,0,,,,,,,TIGER,LB,z,y,./images/TIGERLB.png,,,,,,,,,,,,,,,,,,,,,z,1,1.03,,,,,,,,0,5,5,121,1
,,,,,,,,,,,,,,,,,60fdf30044b47c678461b1ca,26,2022-02-12_17h27.11.991,lexical_decision_task_DD_L2,2021.2.3,Win32,62.05013651,,,,,,,,,,,1.2624,1,,,,,,,,,,,,,,,,,,,,,,,,0.256666667,-0.181111111,0,0,0,,,,,,,STATUE,HB,z,y,./images/STATUEHB.png,,,,,,,,,,,,,,,,,,,,,z,1,1.2624,,,,,,,,0,6,6,150,1
,,,,,,,,,,,,,,,,,60fdf30044b47c678461b1ca,26,2022-02-12_17h27.11.991,lexical_decision_task_DD_L2,2021.2.3,Win32,62.05013651,,,,,,,,,,,0.762800001,1,,,,,,,,,,,,,,,,,,,,,,,,0.256666667,-0.181111111,0,0,0,,,,,,,FINGER,HB,m,y,./images/FINGERHB.png,,,,,,,,,,,,,,,,,,,,,m,1,0.762800001,,,,,,,,0,7,7,3,1
,,,,,,,,,,,,,,,,,60fdf30044b47c678461b1ca,26,2022-02-12_17h27.11.991,lexical_decision_task_DD_L2,2021.2.3,Win32,62.05013651,,,,,,,,,,,1.4314,1,,,,,,,,,,,,,,,,,,,,,,,,0.256666667,-0.181111111,0,0,0,,,,,,,DRILL,HB,z,y,./images/DRILLHB.png,,,,,,,,,,,,,,,,,,,,,z,1,1.4314,,,,,,,,0,8,8,165,1
,,,,,,,,,,,,,,,,,60fdf30044b47c678461b1ca,26,2022-02-12_17h27.11.991,lexical_decision_task_DD_L2,2021.2.3,Win32,62.05013651,,,,,,,,,,,0.5999,1,,,,,,,,,,,,,,,,,,,,,,,,0.256666667,-0.181111111,0,0,0,,,,,,,GRAPE,LB,z,y,./images/GRAPELB.png,,,,,,,,,,,,,,,,,,,,,z,1,0.5999,,,,,,,,0,9,9,100,1
,,,,,,,,,,,,,,,,,60fdf30044b47c678461b1ca,26,2022-02-12_17h27.11.991,lexical_decision_task_DD_L2,2021.2.3,Win32,62.05013651,,,,,,,,,,,0.728900002,1,,,,,,,,,,,,,,,,,,,,,,,,0.256666667,-0.181111111,0,0,0,,,,,,,BUBBLE,C,z,y,./images/BUBBLE.png,,,,,,,,,,,,,,,,,,,,,z,1,0.728900002,,,,,,,,0,10,10,155,1
,,,,,,,,,,,,,,,,,60fdf30044b47c678461b1ca,26,2022-02-12_17h27.11.991,lexical_decision_task_DD_L2,2021.2.3,Win32,62.05013651,,,,,,,,,,,0.7125,1,,,,,,,,,,,,,,,,,,,,,,,,0.256666667,-0.181111111,0,0,0,,,,,,,STAIN,HB,z,y,./images/STAINHB.png,,,,,,,,,,,,,,,,,,,,,z,1,0.7125,,,,,,,,0,11,11,90,1
,,,,,,,,,,,,,,,,,60fdf30044b47c678461b1ca,26,2022-02-12_17h27.11.991,lexical_decision_task_DD_L2,2021.2.3,Win32,62.05013651,,,,,,,,,,,0.632,1,,,,,,,,,,,,,,,,,,,,,,,,0.256666667,-0.181111111,0,0,0,,,,,,,CRATER,HB,z,y,./images/CRATERHB.png,,,,,,,,,,,,,,,,,,,,,z,1,0.632,,,,,,,,0,12,12,87,1
,,,,,,,,,,,,,,,,,60fdf30044b47c678461b1ca,26,2022-02-12_17h27.11.991,lexical_decision_task_DD_L2,2021.2.3,Win32,62.05013651,,,,,,,,,,,0.8021,1,,,,,,,,,,,,,,,,,,,,,,,,0.256666667,-0.181111111,0,0,0,,,,,,,SHORE,HB,m,y,./images/SHOREHB.png,,,,,,,,,,,,,,,,,,,,,m,1,0.8021,,,,,,,,0,13,13,12,1
,,,,,,,,,,,,,,,,,60fdf30044b47c678461b1ca,26,2022-02-12_17h27.11.991,lexical_decision_task_DD_L2,2021.2.3,Win32,62.05013651,,,,,,,,,,,1.0719,1,,,,,,,,,,,,,,,,,,,,,,,,0.256666667,-0.181111111,0,0,0,,,,,,,MUMMY,LB,z,y,./images/MUMMYLB.png,,,,,,,,,,,,,,,,,,,,,z,1,1.0719,,,,,,,,0,14,14,130,1
,,,,,,,,,,,,,,,,,60fdf30044b47c678461b1ca,26,2022-02-12_17h27.11.991,lexical_decision_task_DD_L2,2021.2.3,Win32,62.05013651,,,,,,,,,,,0.629799999,1,,,,,,,,,,,,,,,,,,,,,,,,0.256666667,-0.181111111,0,0,0,,,,,,,PURSE,C,m,y,./images/PURSE.png,,,,,,,,,,,,,,,,,,,,,m,1,0.629799999,,,,,,,,0,15,15,62,1
,,,,,,,,,,,,,,,,,60fdf30044b47c678461b1ca,26,2022-02-12_17h27.11.991,lexical_decision_task_DD_L2,2021.2.3,Win32,62.05013651,,,,,,,,,,,0.630300001,1,,,,,,,,,,,,,,,,,,,,,,,,0.256666667,-0.181111111,0,0,0,,,,,,,SPORT,HB,m,y,./images/SPORTHB.png,,,,,,,,,,,,,,,,,,,,,m,1,0.630300001,,,,,,,,0,16,16,48,1
,,,,,,,,,,,,,,,,,60fdf30044b47c678461b1ca,26,2022-02-12_17h27.11.991,lexical_decision_task_DD_L2,2021.2.3,Win32,62.05013651,,,,,,,,,,,0.655199999,1,,,,,,,,,,,,,,,,,,,,,,,,0.256666667,-0.181111111,0,0,0,,,,,,,CRUMB,C,m,y,./images/CRUMB.png,,,,,,,,,,,,,,,,,,,,,m,1,0.655199999,,,,,,,,0,17,17,29,1
,,,,,,,,,,,,,,,,,60fdf30044b47c678461b1ca,26,2022-02-12_17h27.11.991,lexical_decision_task_DD_L2,2021.2.3,Win32,62.05013651,,,,,,,,,,,0.7689,1,,,,,,,,,,,,,,,,,,,,,,,,0.256666667,-0.181111111,0,0,0,,,,,,,SHIELD,HB,z,y,./images/SHIELDHB.png,,,,,,,,,,,,,,,,,,,,,z,1,0.7689,,,,,,,,0,18,18,132,1
,,,,,,,,,,,,,,,,,60fdf30044b47c678461b1ca,26,2022-02-12_17h27.11.991,lexical_decision_task_DD_L2,2021.2.3,Win32,62.05013651,,,,,,,,,,,0.7836,1,,,,,,,,,,,,,,,,,,,,,,,,0.256666667,-0.181111111,0,0,0,,,,,,,CANYON,LB,m,y,./images/CANYONLB.png,,,,,,,,,,,,,,,,,,,,,m,1,0.7836,,,,,,,,0,19,19,34,1
,,,,,,,,,,,,,,,,,60fdf30044b47c678461b1ca,26,2022-02-12_17h27.11.991,lexical_decision_task_DD_L2,2021.2.3,Win32,62.05013651,,,,,,,,,,,1.115,1,,,,,,,,,,,,,,,,,,,,,,,,0.256666667,-0.181111111,0,0,0,,,,,,,FENCE,C,z,y,./images/FENCE.png,,,,,,,,,,,,,,,,,,,,,z,1,1.115,,,,,,,,0,20,20,98,1
,,,,,,,,,,,,,,,,,60fdf30044b47c678461b1ca,26,2022-02-12_17h27.11.991,lexical_decision_task_DD_L2,2021.2.3,Win32,62.05013651,,,,,,,,,,,1.3685,1,,,,,,,,,,,,,,,,,,,,,,,,0.256666667,-0.181111111,0,0,0,,,,,,,BEARD,C,m,y,./images/BEARD.png,,,,,,,,,,,,,,,,,,,,,m,1,1.3685,,,,,,,,0,21,21,2,1
,,,,,,,,,,,,,,,,,60fdf30044b47c678461b1ca,26,2022-02-12_17h27.11.991,lexical_decision_task_DD_L2,2021.2.3,Win32,62.05013651,,,,,,,,,,,1.0896,1,,,,,,,,,,,,,,,,,,,,,,,,0.256666667,-0.181111111,0,0,0,,,,,,,PACKET,C,m,y,./images/PACKET.png,,,,,,,,,,,,,,,,,,,,,m,1,1.0896,,,,,,,,0,22,22,56,1
,,,,,,,,,,,,,,,,,60fdf30044b47c678461b1ca,26,2022-02-12_17h27.11.991,lexical_decision_task_DD_L2,2021.2.3,Win32,62.05013651,,,,,,,,,,,0.6065,1,,,,,,,,,,,,,,,,,,,,,,,,0.256666667,-0.181111111,0,0,0,,,,,,,RAZOR,LB,z,y,./images/RAZORLB.png,,,,,,,,,,,,,,,,,,,,,z,1,0.6065,,,,,,,,0,23,23,118,1
,,,,,,,,,,,,,,,,,60fdf30044b47c678461b1ca,26,2022-02-12_17h27.11.991,lexical_decision_task_DD_L2,2021.2.3,Win32,62.05013651,,,,,,,,,,,0.6051,1,,,,,,,,,,,,,,,,,,,,,,,,0.256666667,-0.181111111,0,0,0,,,,,,,MALLET,C,m,y,./images/MALLET.png,,,,,,,,,,,,,,,,,,,,,m,1,0.6051,,,,,,,,0,24,24,50,1
,,,,,,,,,,,,,,,,,60fdf30044b47c678461b1ca,26,2022-02-12_17h27.11.991,lexical_decision_task_DD_L2,2021.2.3,Win32,62.05013651,,,,,,,,,,,0.7794,1,,,,,,,,,,,,,,,,,,,,,,,,0.256666667,-0.181111111,0,0,0,,,,,,,THROAT,HB,m,y,./images/THROATHB.png,,,,,,,,,,,,,,,,,,,,,m,1,0.7794,,,,,,,,0,25,25,36,1
,,,,,,,,,,,,,,,,,60fdf30044b47c678461b1ca,26,2022-02-12_17h27.11.991,lexical_decision_task_DD_L2,2021.2.3,Win32,62.05013651,,,,,,,,,,,0.6505,1,,,,,,,,,,,,,,,,,,,,,,,,0.256666667,-0.181111111,0,0,0,,,,,,,WRIST,LB,m,y,./images/WRISTLB.png,,,,,,,,,,,,,,,,,,,,,m,1,0.6505,,,,,,,,0,26,26,25,1
,,,,,,,,,,,,,,,,,60fdf30044b47c678461b1ca,26,2022-02-12_17h27.11.991,lexical_decision_task_DD_L2,2021.2.3,Win32,62.05013651,,,,,,,,,,,0.628900002,1,,,,,,,,,,,,,,,,,,,,,,,,0.256666667,-0.181111111,0,0,0,,,,,,,COUCH,C,m,y,./images/COUCH.png,,,,,,,,,,,,,,,,,,,,,m,1,0.628900002,,,,,,,,0,27,27,77,1
,,,,,,,,,,,,,,,,,60fdf30044b47c678461b1ca,26,2022-02-12_17h27.11.991,lexical_decision_task_DD_L2,2021.2.3,Win32,62.05013651,,,,,,,,,,,0.554700001,1,,,,,,,,,,,,,,,,,,,,,,,,0.256666667,-0.181111111,0,0,0,,,,,,,RHINO,HB,m,y,./images/RHINOHB.png,,,,,,,,,,,,,,,,,,,,,m,1,0.554700001,,,,,,,,0,28,28,9,1
,,,,,,,,,,,,,,,,,60fdf30044b47c678461b1ca,26,2022-02-12_17h27.11.991,lexical_decision_task_DD_L2,2021.2.3,Win32,62.05013651,,,,,,,,,,,1.0045,1,,,,,,,,,,,,,,,,,,,,,,,,0.256666667,-0.181111111,0,0,0,,,,,,,BANNER,LB,m,y,./images/BANNERLB.png,,,,,,,,,,,,,,,,,,,,,m,1,1.0045,,,,,,,,0,29,29,52,1
,,,,,,,,,,,,,,,,,60fdf30044b47c678461b1ca,26,2022-02-12_17h27.11.991,lexical_decision_task_DD_L2,2021.2.3,Win32,62.05013651,,,,,,,,,,,0.844200001,1,,,,,,,,,,,,,,,,,,,,,,,,0.256666667,-0.181111111,0,0,0,,,,,,,BISHOP,LB,z,y,./images/BISHOPLB.png,,,,,,,,,,,,,,,,,,,,,z,1,0.844200001,,,,,,,,0,30,30,133,1
,,,,,,,,,,,,,,,,,60fdf30044b47c678461b1ca,26,2022-02-12_17h27.11.991,lexical_decision_task_DD_L2,2021.2.3,Win32,62.05013651,,,,,,,,,,,0.8424,0,,,,,,,,,,,,,,,,,,,,,,,,0.256666667,-0.181111111,0,0,0,,,,,,,SAUCE,HB,z,y,./images/SAUCEHB.png,,,,,,,,,,,,,,,,,,,,,m,0,0.8424,,,,,,,,0,31,31,135,1
,,,,,,,,,,,,,,,,,60fdf30044b47c678461b1ca,26,2022-02-12_17h27.11.991,lexical_decision_task_DD_L2,2021.2.3,Win32,62.05013651,,,,,,,,,,,0.68,1,,,,,,,,,,,,,,,,,,,,,,,,0.256666667,-0.181111111,0,0,0,,,,,,,BELLY,LB,m,y,./images/BELLYLB.png,,,,,,,,,,,,,,,,,,,,,m,1,0.68,,,,,,,,0,32,32,10,1
,,,,,,,,,,,,,,,,,60fdf30044b47c678461b1ca,26,2022-02-12_17h27.11.991,lexical_decision_task_DD_L2,2021.2.3,Win32,62.05013651,,,,,,,,,,,0.771300001,1,,,,,,,,,,,,,,,,,,,,,,,,0.256666667,-0.181111111,0,0,0,,,,,,,LITTER,HB,m,y,./images/LITTERHB.png,,,,,,,,,,,,,,,,,,,,,m,1,0.771300001,,,,,,,,0,33,33,78,1
,,,,,,,,,,,,,,,,,60fdf30044b47c678461b1ca,26,2022-02-12_17h27.11.991,lexical_decision_task_DD_L2,2021.2.3,Win32,62.05013651,,,,,,,,,,,0.669799999,1,,,,,,,,,,,,,,,,,,,,,,,,0.256666667,-0.181111111,0,0,0,,,,,,,CRUST,LB,m,y,./images/CRUSTLB.png,,,,,,,,,,,,,,,,,,,,,m,1,0.669799999,,,,,,,,0,34,34,79,1
,,,,,,,,,,,,,,,,,60fdf30044b47c678461b1ca,26,2022-02-12_17h27.11.991,lexical_decision_task_DD_L2,2021.2.3,Win32,62.05013651,,,,,,,,,,,0.883799999,1,,,,,,,,,,,,,,,,,,,,,,,,0.256666667,-0.181111111,0,0,0,,,,,,,PLANK,LB,m,y,./images/PLANKLB.png,,,,,,,,,,,,,,,,,,,,,m,1,0.883799999,,,,,,,,0,35,35,1,1
,,,,,,,,,,,,,,,,,60fdf30044b47c678461b1ca,26,2022-02-12_17h27.11.991,lexical_decision_task_DD_L2,2021.2.3,Win32,62.05013651,,,,,,,,,,,0.7616,1,,,,,,,,,,,,,,,,,,,,,,,,0.256666667,-0.181111111,0,0,0,,,,,,,JUMPER,C,z,y,./images/JUMPER.png,,,,,,,,,,,,,,,,,,,,,z,1,0.7616,,,,,,,,0,36,36,158,1
,,,,,,,,,,,,,,,,,60fdf30044b47c678461b1ca,26,2022-02-12_17h27.11.991,lexical_decision_task_DD_L2,2021.2.3,Win32,62.05013651,,,,,,,,,,,0.698,1,,,,,,,,,,,,,,,,,,,,,,,,0.256666667,-0.181111111,0,0,0,,,,,,,WALNUT,HB,z,y,./images/WALNUTHB.png,,,,,,,,,,,,,,,,,,,,,z,1,0.698,,,,,,,,0,37,37,84,1
,,,,,,,,,,,,,,,,,60fdf30044b47c678461b1ca,26,2022-02-12_17h27.11.991,lexical_decision_task_DD_L2,2021.2.3,Win32,62.05013651,,,,,,,,,,,0.712700001,1,,,,,,,,,,,,,,,,,,,,,,,,0.256666667,-0.181111111,0,0,0,,,,,,,MONKEY,HB,z,y,./images/MONKEYHB.png,,,,,,,,,,,,,,,,,,,,,z,1,0.712700001,,,,,,,,0,38,38,129,1
,,,,,,,,,,,,,,,,,60fdf30044b47c678461b1ca,26,2022-02-12_17h27.11.991,lexical_decision_task_DD_L2,2021.2.3,Win32,62.05013651,,,,,,,,,,,0.683,1,,,,,,,,,,,,,,,,,,,,,,,,0.256666667,-0.181111111,0,0,0,,,,,,,SCREW,HB,m,y,./images/SCREWHB.png,,,,,,,,,,,,,,,,,,,,,m,1,0.683,,,,,,,,0,39,39,24,1
,,,,,,,,,,,,,,,,,60fdf30044b47c678461b1ca,26,2022-02-12_17h27.11.991,lexical_decision_task_DD_L2,2021.2.3,Win32,62.05013651,,,,,,,,,,,0.7045,1,,,,,,,,,,,,,,,,,,,,,,,,0.256666667,-0.181111111,0,0,0,,,,,,,CASINO,LB,z,y,./images/CASINOLB.png,,,,,,,,,,,,,,,,,,,,,z,1,0.7045,,,,,,,,0,40,40,112,1
,,,,,,,,,,,,,,,,,60fdf30044b47c678461b1ca,26,2022-02-12_17h27.11.991,lexical_decision_task_DD_L2,2021.2.3,Win32,62.05013651,,,,,,,,,,,0.598,1,,,,,,,,,,,,,,,,,,,,,,,,0.256666667,-0.181111111,0,0,0,space,,,,,,BRIDE,LB,z,y,./images/BRIDELB.png,0.9315,,,,,,,,,,,,,,,,,,,,z,1,0.598,,,,,,,,0,41,41,148,1
,,,,,,,,,,,,,,,,,60fdf30044b47c678461b1ca,26,2022-02-12_17h27.11.991,lexical_decision_task_DD_L2,2021.2.3,Win32,62.05013651,,,,,,,,,,,0.666,1,,,,,,,,,,,,,,,,,,,,,,,,0.256666667,-0.181111111,0,0,0,,,,,,,WHEEL,C,z,y,./images/WHEEL.png,,,,,,,,,,,,,,,,,,,,,z,1,0.666,,,,,,,,0,42,42,161,1
,,,,,,,,,,,,,,,,,60fdf30044b47c678461b1ca,26,2022-02-12_17h27.11.991,lexical_decision_task_DD_L2,2021.2.3,Win32,62.05013651,,,,,,,,,,,0.638299999,1,,,,,,,,,,,,,,,,,,,,,,,,0.256666667,-0.181111111,0,0,0,,,,,,,POODLE,HB,m,y,./images/POODLEHB.png,,,,,,,,,,,,,,,,,,,,,m,1,0.638299999,,,,,,,,0,43,43,81,1
,,,,,,,,,,,,,,,,,60fdf30044b47c678461b1ca,26,2022-02-12_17h27.11.991,lexical_decision_task_DD_L2,2021.2.3,Win32,62.05013651,,,,,,,,,,,1.4311,1,,,,,,,,,,,,,,,,,,,,,,,,0.256666667,-0.181111111,0,0,0,,,,,,,DANCER,HB,z,y,./images/DANCERHB.png,,,,,,,,,,,,,,,,,,,,,z,1,1.4311,,,,,,,,0,44,44,105,1
,,,,,,,,,,,,,,,,,60fdf30044b47c678461b1ca,26,2022-02-12_17h27.11.991,lexical_decision_task_DD_L2,2021.2.3,Win32,62.05013651,,,,,,,,,,,0.832,1,,,,,,,,,,,,,,,,,,,,,,,,0.256666667,-0.181111111,0,0,0,,,,,,,BAKER,HB,z,y,./images/BAKERHB.png,,,,,,,,,,,,,,,,,,,,,z,1,0.832,,,,,,,,0,45,45,147,1
,,,,,,,,,,,,,,,,,60fdf30044b47c678461b1ca,26,2022-02-12_17h27.11.991,lexical_decision_task_DD_L2,2021.2.3,Win32,62.05013651,,,,,,,,,,,1.547200001,0,,,,,,,,,,,,,,,,,,,,,,,,0.256666667,-0.181111111,0,0,0,,,,,,,BOILER,HB,z,y,./images/BOILERHB.png,,,,,,,,,,,,,,,,,,,,,m,0,1.547200001,,,,,,,,0,46,46,120,1
,,,,,,,,,,,,,,,,,60fdf30044b47c678461b1ca,26,2022-02-12_17h27.11.991,lexical_decision_task_DD_L2,2021.2.3,Win32,62.05013651,,,,,,,,,,,1.4991,1,,,,,,,,,,,,,,,,,,,,,,,,0.256666667,-0.181111111,0,0,0,,,,,,,SAUNA,HB,z,y,./images/SAUNAHB.png,,,,,,,,,,,,,,,,,,,,,z,1,1.4991,,,,,,,,0,47,47,117,1
,,,,,,,,,,,,,,,,,60fdf30044b47c678461b1ca,26,2022-02-12_17h27.11.991,lexical_decision_task_DD_L2,2021.2.3,Win32,62.05013651,,,,,,,,,,,0.671,1,,,,,,,,,,,,,,,,,,,,,,,,0.256666667,-0.181111111,0,0,0,,,,,,,BIRTH,LB,m,y,./images/BIRTHLB.png,,,,,,,,,,,,,,,,,,,,,m,1,0.671,,,,,,,,0,48,48,37,1
,,,,,,,,,,,,,,,,,60fdf30044b47c678461b1ca,26,2022-02-12_17h27.11.991,lexical_decision_task_DD_L2,2021.2.3,Win32,62.05013651,,,,,,,,,,,1.233700001,1,,,,,,,,,,,,,,,,,,,,,,,,0.256666667,-0.181111111,0,0,0,,,,,,,ONION,HB,m,y,./images/ONIONHB.png,,,,,,,,,,,,,,,,,,,,,m,1,1.233700001,,,,,,,,0,49,49,51,1
,,,,,,,,,,,,,,,,,60fdf30044b47c678461b1ca,26,2022-02-12_17h27.11.991,lexical_decision_task_DD_L2,2021.2.3,Win32,62.05013651,,,,,,,,,,,1.077700001,1,,,,,,,,,,,,,,,,,,,,,,,,0.256666667,-0.181111111,0,0,0,,,,,,,GRAIN,HB,m,y,./images/GRAINHB.png,,,,,,,,,,,,,,,,,,,,,m,1,1.077700001,,,,,,,,0,50,50,75,1
,,,,,,,,,,,,,,,,,60fdf30044b47c678461b1ca,26,2022-02-12_17h27.11.991,lexical_decision_task_DD_L2,2021.2.3,Win32,62.05013651,,,,,,,,,,,0.665,1,,,,,,,,,,,,,,,,,,,,,,,,0.256666667,-0.181111111,0,0,0,,,,,,,GREASE,HB,m,y,./images/GREASEHB.png,,,,,,,,,,,,,,,,,,,,,m,1,0.665,,,,,,,,0,51,51,15,1
,,,,,,,,,,,,,,,,,60fdf30044b47c678461b1ca,26,2022-02-12_17h27.11.991,lexical_decision_task_DD_L2,2021.2.3,Win32,62.05013651,,,,,,,,,,,0.680800001,1,,,,,,,,,,,,,,,,,,,,,,,,0.256666667,-0.181111111,0,0,0,,,,,,,DONKEY,LB,z,y,./images/DONKEYLB.png,,,,,,,,,,,,,,,,,,,,,z,1,0.680800001,,,,,,,,0,52,52,103,1
,,,,,,,,,,,,,,,,,60fdf30044b47c678461b1ca,26,2022-02-12_17h27.11.991,lexical_decision_task_DD_L2,2021.2.3,Win32,62.05013651,,,,,,,,,,,0.754300001,1,,,,,,,,,,,,,,,,,,,,,,,,0.256666667,-0.181111111,0,0,0,,,,,,,MAMMAL,C,z,y,./images/MAMMAL.png,,,,,,,,,,,,,,,,,,,,,z,1,0.754300001,,,,,,,,0,53,53,146,1
,,,,,,,,,,,,,,,,,60fdf30044b47c678461b1ca,26,2022-02-12_17h27.11.991,lexical_decision_task_DD_L2,2021.2.3,Win32,62.05013651,,,,,,,,,,,0.687700001,1,,,,,,,,,,,,,,,,,,,,,,,,0.256666667,-0.181111111,0,0,0,,,,,,,GARDEN,LB,z,y,./images/GARDENLB.png,,,,,,,,,,,,,,,,,,,,,z,1,0.687700001,,,,,,,,0,54,54,94,1
,,,,,,,,,,,,,,,,,60fdf30044b47c678461b1ca,26,2022-02-12_17h27.11.991,lexical_decision_task_DD_L2,2021.2.3,Win32,62.05013651,,,,,,,,,,,0.573300001,1,,,,,,,,,,,,,,,,,,,,,,,,0.256666667,-0.181111111,0,0,0,,,,,,,TOMATO,HB,m,y,./images/TOMATOHB.png,,,,,,,,,,,,,,,,,,,,,m,1,0.573300001,,,,,,,,0,55,55,0,1
,,,,,,,,,,,,,,,,,60fdf30044b47c678461b1ca,26,2022-02-12_17h27.11.991,lexical_decision_task_DD_L2,2021.2.3,Win32,62.05013651,,,,,,,,,,,0.6919,1,,,,,,,,,,,,,,,,,,,,,,,,0.256666667,-0.181111111,0,0,0,,,,,,,BUNNY,LB,z,y,./images/BUNNYLB.png,,,,,,,,,,,,,,,,,,,,,z,1,0.6919,,,,,,,,0,56,56,97,1
,,,,,,,,,,,,,,,,,60fdf30044b47c678461b1ca,26,2022-02-12_17h27.11.991,lexical_decision_task_DD_L2,2021.2.3,Win32,62.05013651,,,,,,,,,,,0.739900002,1,,,,,,,,,,,,,,,,,,,,,,,,0.256666667,-0.181111111,0,0,0,,,,,,,COLLAR,HB,z,y,./images/COLLARHB.png,,,,,,,,,,,,,,,,,,,,,z,1,0.739900002,,,,,,,,0,57,57,99,1
,,,,,,,,,,,,,,,,,60fdf30044b47c678461b1ca,26,2022-02-12_17h27.11.991,lexical_decision_task_DD_L2,2021.2.3,Win32,62.05013651,,,,,,,,,,,0.896,1,,,,,,,,,,,,,,,,,,,,,,,,0.256666667,-0.181111111,0,0,0,,,,,,,CANDLE,LB,m,y,./images/CANDLELB.png,,,,,,,,,,,,,,,,,,,,,m,1,0.896,,,,,,,,0,58,58,61,1
,,,,,,,,,,,,,,,,,60fdf30044b47c678461b1ca,26,2022-02-12_17h27.11.991,lexical_decision_task_DD_L2,2021.2.3,Win32,62.05013651,,,,,,,,,,,0.8295,1,,,,,,,,,,,,,,,,,,,,,,,,0.256666667,-0.181111111,0,0,0,,,,,,,MOSQUE,LB,m,y,./images/MOSQUELB.png,,,,,,,,,,,,,,,,,,,,,m,1,0.8295,,,,,,,,0,59,59,43,1
,,,,,,,,,,,,,,,,,60fdf30044b47c678461b1ca,26,2022-02-12_17h27.11.991,lexical_decision_task_DD_L2,2021.2.3,Win32,62.05013651,,,,,,,,,,,0.612200001,1,,,,,,,,,,,,,,,,,,,,,,,,0.256666667,-0.181111111,0,0,0,,,,,,,LADDER,C,m,y,./images/LADDER.png,,,,,,,,,,,,,,,,,,,,,m,1,0.612200001,,,,,,,,0,60,60,38,1
,,,,,,,,,,,,,,,,,60fdf30044b47c678461b1ca,26,2022-02-12_17h27.11.991,lexical_decision_task_DD_L2,2021.2.3,Win32,62.05013651,,,,,,,,,,,0.6966,1,,,,,,,,,,,,,,,,,,,,,,,,0.256666667,-0.181111111,0,0,0,,,,,,,ATTIC,HB,m,y,./images/ATTICHB.png,,,,,,,,,,,,,,,,,,,,,m,1,0.6966,,,,,,,,0,61,61,27,1
,,,,,,,,,,,,,,,,,60fdf30044b47c678461b1ca,26,2022-02-12_17h27.11.991,lexical_decision_task_DD_L2,2021.2.3,Win32,62.05013651,,,,,,,,,,,1.431700001,1,,,,,,,,,,,,,,,,,,,,,,,,0.256666667,-0.181111111,0,0,0,,,,,,,INFANT,LB,m,y,./images/INFANTLB.png,,,,,,,,,,,,,,,,,,,,,m,1,1.431700001,,,,,,,,0,62,62,76,1
,,,,,,,,,,,,,,,,,60fdf30044b47c678461b1ca,26,2022-02-12_17h27.11.991,lexical_decision_task_DD_L2,2021.2.3,Win32,62.05013651,,,,,,,,,,,0.5991,1,,,,,,,,,,,,,,,,,,,,,,,,0.256666667,-0.181111111,0,0,0,,,,,,,WEASEL,C,m,y,./images/WEASEL.png,,,,,,,,,,,,,,,,,,,,,m,1,0.5991,,,,,,,,0,63,63,80,1
,,,,,,,,,,,,,,,,,60fdf30044b47c678461b1ca,26,2022-02-12_17h27.11.991,lexical_decision_task_DD_L2,2021.2.3,Win32,62.05013651,,,,,,,,,,,0.767199999,1,,,,,,,,,,,,,,,,,,,,,,,,0.256666667,-0.181111111,0,0,0,,,,,,,SPINE,C,z,y,./images/SPINE.png,,,,,,,,,,,,,,,,,,,,,z,1,0.767199999,,,,,,,,0,64,64,149,1
,,,,,,,,,,,,,,,,,60fdf30044b47c678461b1ca,26,2022-02-12_17h27.11.991,lexical_decision_task_DD_L2,2021.2.3,Win32,62.05013651,,,,,,,,,,,0.733799999,1,,,,,,,,,,,,,,,,,,,,,,,,0.256666667,-0.181111111,0,0,0,,,,,,,BANANA,LB,z,y,./images/BANANALB.png,,,,,,,,,,,,,,,,,,,,,z,1,0.733799999,,,,,,,,0,65,65,154,1
,,,,,,,,,,,,,,,,,60fdf30044b47c678461b1ca,26,2022-02-12_17h27.11.991,lexical_decision_task_DD_L2,2021.2.3,Win32,62.05013651,,,,,,,,,,,1.2461,1,,,,,,,,,,,,,,,,,,,,,,,,0.256666667,-0.181111111,0,0,0,,,,,,,STRING,C,m,y,./images/STRING.png,,,,,,,,,,,,,,,,,,,,,m,1,1.2461,,,,,,,,0,66,66,41,1
,,,,,,,,,,,,,,,,,60fdf30044b47c678461b1ca,26,2022-02-12_17h27.11.991,lexical_decision_task_DD_L2,2021.2.3,Win32,62.05013651,,,,,,,,,,,1.349300001,0,,,,,,,,,,,,,,,,,,,,,,,,0.256666667,-0.181111111,0,0,0,,,,,,,PICKLE,C,m,y,./images/PICKLE.png,,,,,,,,,,,,,,,,,,,,,z,0,1.349300001,,,,,,,,0,67,67,14,1
,,,,,,,,,,,,,,,,,60fdf30044b47c678461b1ca,26,2022-02-12_17h27.11.991,lexical_decision_task_DD_L2,2021.2.3,Win32,62.05013651,,,,,,,,,,,1.6824,1,,,,,,,,,,,,,,,,,,,,,,,,0.256666667,-0.181111111,0,0,0,,,,,,,SMOKER,C,m,y,./images/SMOKER.png,,,,,,,,,,,,,,,,,,,,,m,1,1.6824,,,,,,,,0,68,68,26,1
,,,,,,,,,,,,,,,,,60fdf30044b47c678461b1ca,26,2022-02-12_17h27.11.991,lexical_decision_task_DD_L2,2021.2.3,Win32,62.05013651,,,,,,,,,,,1.2559,0,,,,,,,,,,,,,,,,,,,,,,,,0.256666667,-0.181111111,0,0,0,,,,,,,STREAM,C,z,y,./images/STREAM.png,,,,,,,,,,,,,,,,,,,,,m,0,1.2559,,,,,,,,0,69,69,125,1
,,,,,,,,,,,,,,,,,60fdf30044b47c678461b1ca,26,2022-02-12_17h27.11.991,lexical_decision_task_DD_L2,2021.2.3,Win32,62.05013651,,,,,,,,,,,0.812799999,1,,,,,,,,,,,,,,,,,,,,,,,,0.256666667,-0.181111111,0,0,0,,,,,,,ARROW,HB,z,y,./images/ARROWHB.png,,,,,,,,,,,,,,,,,,,,,z,1,0.812799999,,,,,,,,0,70,70,153,1
,,,,,,,,,,,,,,,,,60fdf30044b47c678461b1ca,26,2022-02-12_17h27.11.991,lexical_decision_task_DD_L2,2021.2.3,Win32,62.05013651,,,,,,,,,,,0.849699999,1,,,,,,,,,,,,,,,,,,,,,,,,0.256666667,-0.181111111,0,0,0,,,,,,,BABOON,LB,m,y,./images/BABOONLB.png,,,,,,,,,,,,,,,,,,,,,m,1,0.849699999,,,,,,,,0,71,71,58,1
,,,,,,,,,,,,,,,,,60fdf30044b47c678461b1ca,26,2022-02-12_17h27.11.991,lexical_decision_task_DD_L2,2021.2.3,Win32,62.05013651,,,,,,,,,,,0.733300001,1,,,,,,,,,,,,,,,,,,,,,,,,0.256666667,-0.181111111,0,0,0,,,,,,,NOOSE,HB,m,y,./images/NOOSEHB.png,,,,,,,,,,,,,,,,,,,,,m,1,0.733300001,,,,,,,,0,72,72,72,1
,,,,,,,,,,,,,,,,,60fdf30044b47c678461b1ca,26,2022-02-12_17h27.11.991,lexical_decision_task_DD_L2,2021.2.3,Win32,62.05013651,,,,,,,,,,,0.868799999,1,,,,,,,,,,,,,,,,,,,,,,,,0.256666667,-0.181111111,0,0,0,,,,,,,TWINS,HB,m,y,./images/TWINSHB.png,,,,,,,,,,,,,,,,,,,,,m,1,0.868799999,,,,,,,,0,73,73,60,1
,,,,,,,,,,,,,,,,,60fdf30044b47c678461b1ca,26,2022-02-12_17h27.11.991,lexical_decision_task_DD_L2,2021.2.3,Win32,62.05013651,,,,,,,,,,,1.2194,1,,,,,,,,,,,,,,,,,,,,,,,,0.256666667,-0.181111111,0,0,0,,,,,,,BERRY,C,m,y,./images/BERRY.png,,,,,,,,,,,,,,,,,,,,,m,1,1.2194,,,,,,,,0,74,74,47,1
,,,,,,,,,,,,,,,,,60fdf30044b47c678461b1ca,26,2022-02-12_17h27.11.991,lexical_decision_task_DD_L2,2021.2.3,Win32,62.05013651,,,,,,,,,,,0.9961,0,,,,,,,,,,,,,,,,,,,,,,,,0.256666667,-0.181111111,0,0,0,,,,,,,PASTA,C,m,y,./images/PASTA.png,,,,,,,,,,,,,,,,,,,,,z,0,0.9961,,,,,,,,0,75,75,5,1
,,,,,,,,,,,,,,,,,60fdf30044b47c678461b1ca,26,2022-02-12_17h27.11.991,lexical_decision_task_DD_L2,2021.2.3,Win32,62.05013651,,,,,,,,,,,0.583,1,,,,,,,,,,,,,,,,,,,,,,,,0.256666667,-0.181111111,0,0,0,,,,,,,BONNET,C,m,y,./images/BONNET.png,,,,,,,,,,,,,,,,,,,,,m,1,0.583,,,,,,,,0,76,76,11,1
,,,,,,,,,,,,,,,,,60fdf30044b47c678461b1ca,26,2022-02-12_17h27.11.991,lexical_decision_task_DD_L2,2021.2.3,Win32,62.05013651,,,,,,,,,,,0.8201,1,,,,,,,,,,,,,,,,,,,,,,,,0.256666667,-0.181111111,0,0,0,,,,,,,ALLEY,LB,z,y,./images/ALLEYLB.png,,,,,,,,,,,,,,,,,,,,,z,1,0.8201,,,,,,,,0,77,77,139,1
,,,,,,,,,,,,,,,,,60fdf30044b47c678461b1ca,26,2022-02-12_17h27.11.991,lexical_decision_task_DD_L2,2021.2.3,Win32,62.05013651,,,,,,,,,,,0.9406,1,,,,,,,,,,,,,,,,,,,,,,,,0.256666667,-0.181111111,0,0,0,,,,,,,BUTTER,HB,z,y,./images/BUTTERHB.png,,,,,,,,,,,,,,,,,,,,,z,1,0.9406,,,,,,,,0,78,78,111,1
,,,,,,,,,,,,,,,,,60fdf30044b47c678461b1ca,26,2022-02-12_17h27.11.991,lexical_decision_task_DD_L2,2021.2.3,Win32,62.05013651,,,,,,,,,,,0.912,1,,,,,,,,,,,,,,,,,,,,,,,,0.256666667,-0.181111111,0,0,0,,,,,,,FARMER,C,m,y,./images/FARMER.png,,,,,,,,,,,,,,,,,,,,,m,1,0.912,,,,,,,,0,79,79,65,1
,,,,,,,,,,,,,,,,,60fdf30044b47c678461b1ca,26,2022-02-12_17h27.11.991,lexical_decision_task_DD_L2,2021.2.3,Win32,62.05013651,,,,,,,,,,,0.7354,1,,,,,,,,,,,,,,,,,,,,,,,,0.256666667,-0.181111111,0,0,0,,,,,,,PIMPLE,C,m,y,./images/PIMPLE.png,,,,,,,,,,,,,,,,,,,,,m,1,0.7354,,,,,,,,0,80,80,71,1
,,,,,,,,,,,,,,,,,60fdf30044b47c678461b1ca,26,2022-02-12_17h27.11.991,lexical_decision_task_DD_L2,2021.2.3,Win32,62.05013651,,,,,,,,,,,0.9659,1,,,,,,,,,,,,,,,,,,,,,,,,0.256666667,-0.181111111,0,0,0,,,,,,,SQUARE,HB,m,y,./images/SQUAREHB.png,,,,,,,,,,,,,,,,,,,,,m,1,0.9659,,,,,,,,0,81,81,6,1
,,,,,,,,,,,,,,,,,60fdf30044b47c678461b1ca,26,2022-02-12_17h27.11.991,lexical_decision_task_DD_L2,2021.2.3,Win32,62.05013651,,,,,,,,,,,1.3206,0,,,,,,,,,,,,,,,,,,,,,,,,0.256666667,-0.181111111,0,0,0,,,,,,,DOUGH,LB,m,y,./images/DOUGHLB.png,,,,,,,,,,,,,,,,,,,,,z,0,1.3206,,,,,,,,0,82,82,19,1
,,,,,,,,,,,,,,,,,60fdf30044b47c678461b1ca,26,2022-02-12_17h27.11.991,lexical_decision_task_DD_L2,2021.2.3,Win32,62.05013651,,,,,,,,,,,0.8055,1,,,,,,,,,,,,,,,,,,,,,,,,0.256666667,-0.181111111,0,0,0,space,,,,,,LAGOON,C,z,y,./images/LAGOON.png,0.9051,,,,,,,,,,,,,,,,,,,,z,1,0.8055,,,,,,,,0,83,83,131,1
,,,,,,,,,,,,,,,,,60fdf30044b47c678461b1ca,26,2022-02-12_17h27.11.991,lexical_decision_task_DD_L2,2021.2.3,Win32,62.05013651,,,,,,,,,,,0.769800001,1,,,,,,,,,,,,,,,,,,,,,,,,0.256666667,-0.181111111,0,0,0,,,,,,,LIZARD,C,m,y,./images/LIZARD.png,,,,,,,,,,,,,,,,,,,,,m,1,0.769800001,,,,,,,,0,84,84,44,1
,,,,,,,,,,,,,,,,,60fdf30044b47c678461b1ca,26,2022-02-12_17h27.11.991,lexical_decision_task_DD_L2,2021.2.3,Win32,62.05013651,,,,,,,,,,,1.1044,0,,,,,,,,,,,,,,,,,,,,,,,,0.256666667,-0.181111111,0,0,0,,,,,,,PARADE,C,z,y,./images/PARADE.png,,,,,,,,,,,,,,,,,,,,,m,0,1.1044,,,,,,,,0,85,85,101,1
,,,,,,,,,,,,,,,,,60fdf30044b47c678461b1ca,26,2022-02-12_17h27.11.991,lexical_decision_task_DD_L2,2021.2.3,Win32,62.05013651,,,,,,,,,,,1.3796,0,,,,,,,,,,,,,,,,,,,,,,,,0.256666667,-0.181111111,0,0,0,,,,,,,MOTOR,LB,m,y,./images/MOTORLB.png,,,,,,,,,,,,,,,,,,,,,z,0,1.3796,,,,,,,,0,86,86,13,1
,,,,,,,,,,,,,,,,,60fdf30044b47c678461b1ca,26,2022-02-12_17h27.11.991,lexical_decision_task_DD_L2,2021.2.3,Win32,62.05013651,,,,,,,,,,,0.621,1,,,,,,,,,,,,,,,,,,,,,,,,0.256666667,-0.181111111,0,0,0,,,,,,,SUNSET,LB,m,y,./images/SUNSETLB.png,,,,,,,,,,,,,,,,,,,,,m,1,0.621,,,,,,,,0,87,87,82,1
,,,,,,,,,,,,,,,,,60fdf30044b47c678461b1ca,26,2022-02-12_17h27.11.991,lexical_decision_task_DD_L2,2021.2.3,Win32,62.05013651,,,,,,,,,,,0.8126,1,,,,,,,,,,,,,,,,,,,,,,,,0.256666667,-0.181111111,0,0,0,,,,,,,LLAMA,C,z,y,./images/LLAMA.png,,,,,,,,,,,,,,,,,,,,,z,1,0.8126,,,,,,,,0,88,88,119,1
,,,,,,,,,,,,,,,,,60fdf30044b47c678461b1ca,26,2022-02-12_17h27.11.991,lexical_decision_task_DD_L2,2021.2.3,Win32,62.05013651,,,,,,,,,,,0.650099998,1,,,,,,,,,,,,,,,,,,,,,,,,0.256666667,-0.181111111,0,0,0,,,,,,,FLESH,HB,z,y,./images/FLESHHB.png,,,,,,,,,,,,,,,,,,,,,z,1,0.650099998,,,,,,,,0,89,89,108,1
,,,,,,,,,,,,,,,,,60fdf30044b47c678461b1ca,26,2022-02-12_17h27.11.991,lexical_decision_task_DD_L2,2021.2.3,Win32,62.05013651,,,,,,,,,,,1.108300001,1,,,,,,,,,,,,,,,,,,,,,,,,0.256666667,-0.181111111,0,0,0,,,,,,,PEACH,C,m,y,./images/PEACH.png,,,,,,,,,,,,,,,,,,,,,m,1,1.108300001,,,,,,,,0,90,90,35,1
,,,,,,,,,,,,,,,,,60fdf30044b47c678461b1ca,26,2022-02-12_17h27.11.991,lexical_decision_task_DD_L2,2021.2.3,Win32,62.05013651,,,,,,,,,,,0.6521,1,,,,,,,,,,,,,,,,,,,,,,,,0.256666667,-0.181111111,0,0,0,,,,,,,RULER,LB,z,y,./images/RULERLB.png,,,,,,,,,,,,,,,,,,,,,z,1,0.6521,,,,,,,,0,91,91,163,1
,,,,,,,,,,,,,,,,,60fdf30044b47c678461b1ca,26,2022-02-12_17h27.11.991,lexical_decision_task_DD_L2,2021.2.3,Win32,62.05013651,,,,,,,,,,,0.670800001,1,,,,,,,,,,,,,,,,,,,,,,,,0.256666667,-0.181111111,0,0,0,,,,,,,FOLDER,HB,m,y,./images/FOLDERHB.png,,,,,,,,,,,,,,,,,,,,,m,1,0.670800001,,,,,,,,0,92,92,42,1
,,,,,,,,,,,,,,,,,60fdf30044b47c678461b1ca,26,2022-02-12_17h27.11.991,lexical_decision_task_DD_L2,2021.2.3,Win32,62.05013651,,,,,,,,,,,1.811,1,,,,,,,,,,,,,,,,,,,,,,,,0.256666667,-0.181111111,0,0,0,,,,,,,MEDAL,C,z,y,./images/MEDAL.png,,,,,,,,,,,,,,,,,,,,,z,1,1.811,,,,,,,,0,93,93,95,1
,,,,,,,,,,,,,,,,,60fdf30044b47c678461b1ca,26,2022-02-12_17h27.11.991,lexical_decision_task_DD_L2,2021.2.3,Win32,62.05013651,,,,,,,,,,,0.747599998,1,,,,,,,,,,,,,,,,,,,,,,,,0.256666667,-0.181111111,0,0,0,,,,,,,STORM,HB,m,y,./images/STORMHB.png,,,,,,,,,,,,,,,,,,,,,m,1,0.747599998,,,,,,,,0,94,94,30,1
,,,,,,,,,,,,,,,,,60fdf30044b47c678461b1ca,26,2022-02-12_17h27.11.991,lexical_decision_task_DD_L2,2021.2.3,Win32,62.05013651,,,,,,,,,,,0.866299999,1,,,,,,,,,,,,,,,,,,,,,,,,0.256666667,-0.181111111,0,0,0,,,,,,,ENGINE,C,z,y,./images/ENGINE.png,,,,,,,,,,,,,,,,,,,,,z,1,0.866299999,,,,,,,,0,95,95,122,1
,,,,,,,,,,,,,,,,,60fdf30044b47c678461b1ca,26,2022-02-12_17h27.11.991,lexical_decision_task_DD_L2,2021.2.3,Win32,62.05013651,,,,,,,,,,,0.7836,1,,,,,,,,,,,,,,,,,,,,,,,,0.256666667,-0.181111111,0,0,0,,,,,,,JAGUAR,HB,m,y,./images/JAGUARHB.png,,,,,,,,,,,,,,,,,,,,,m,1,0.7836,,,,,,,,0,96,96,18,1
,,,,,,,,,,,,,,,,,60fdf30044b47c678461b1ca,26,2022-02-12_17h27.11.991,lexical_decision_task_DD_L2,2021.2.3,Win32,62.05013651,,,,,,,,,,,0.800200001,1,,,,,,,,,,,,,,,,,,,,,,,,0.256666667,-0.181111111,0,0,0,,,,,,,HOCKEY,C,z,y,./images/HOCKEY.png,,,,,,,,,,,,,,,,,,,,,z,1,0.800200001,,,,,,,,0,97,97,116,1
,,,,,,,,,,,,,,,,,60fdf30044b47c678461b1ca,26,2022-02-12_17h27.11.991,lexical_decision_task_DD_L2,2021.2.3,Win32,62.05013651,,,,,,,,,,,0.7325,1,,,,,,,,,,,,,,,,,,,,,,,,0.256666667,-0.181111111,0,0,0,,,,,,,TRIPOD,HB,m,y,./images/TRIPODHB.png,,,,,,,,,,,,,,,,,,,,,m,1,0.7325,,,,,,,,0,98,98,54,1
,,,,,,,,,,,,,,,,,60fdf30044b47c678461b1ca,26,2022-02-12_17h27.11.991,lexical_decision_task_DD_L2,2021.2.3,Win32,62.05013651,,,,,,,,,,,0.688699999,1,,,,,,,,,,,,,,,,,,,,,,,,0.256666667,-0.181111111,0,0,0,,,,,,,DIVER,HB,z,y,./images/DIVERHB.png,,,,,,,,,,,,,,,,,,,,,z,1,0.688699999,,,,,,,,0,99,99,93,1
,,,,,,,,,,,,,,,,,60fdf30044b47c678461b1ca,26,2022-02-12_17h27.11.991,lexical_decision_task_DD_L2,2021.2.3,Win32,62.05013651,,,,,,,,,,,0.6459,1,,,,,,,,,,,,,,,,,,,,,,,,0.256666667,-0.181111111,0,0,0,,,,,,,VALLEY,C,z,y,./images/VALLEY.png,,,,,,,,,,,,,,,,,,,,,z,1,0.6459,,,,,,,,0,100,100,152,1
,,,,,,,,,,,,,,,,,60fdf30044b47c678461b1ca,26,2022-02-12_17h27.11.991,lexical_decision_task_DD_L2,2021.2.3,Win32,62.05013651,,,,,,,,,,,0.807799999,1,,,,,,,,,,,,,,,,,,,,,,,,0.256666667,-0.181111111,0,0,0,,,,,,,URINE,LB,m,y,./images/URINELB.png,,,,,,,,,,,,,,,,,,,,,m,1,0.807799999,,,,,,,,0,101,101,70,1
,,,,,,,,,,,,,,,,,60fdf30044b47c678461b1ca,26,2022-02-12_17h27.11.991,lexical_decision_task_DD_L2,2021.2.3,Win32,62.05013651,,,,,,,,,,,0.699799999,1,,,,,,,,,,,,,,,,,,,,,,,,0.256666667,-0.181111111,0,0,0,,,,,,,GLOVE,LB,z,y,./images/GLOVELB.png,,,,,,,,,,,,,,,,,,,,,z,1,0.699799999,,,,,,,,0,102,102,157,1
,,,,,,,,,,,,,,,,,60fdf30044b47c678461b1ca,26,2022-02-12_17h27.11.991,lexical_decision_task_DD_L2,2021.2.3,Win32,62.05013651,,,,,,,,,,,1.281700001,1,,,,,,,,,,,,,,,,,,,,,,,,0.256666667,-0.181111111,0,0,0,,,,,,,WHISKY,C,z,y,./images/WHISKY.png,,,,,,,,,,,,,,,,,,,,,z,1,1.281700001,,,,,,,,0,103,103,167,1
,,,,,,,,,,,,,,,,,60fdf30044b47c678461b1ca,26,2022-02-12_17h27.11.991,lexical_decision_task_DD_L2,2021.2.3,Win32,62.05013651,,,,,,,,,,,1.2381,0,,,,,,,,,,,,,,,,,,,,,,,,0.256666667,-0.181111111,0,0,0,,,,,,,WAGON,LB,z,y,./images/WAGONLB.png,,,,,,,,,,,,,,,,,,,,,m,0,1.2381,,,,,,,,0,104,104,91,1
,,,,,,,,,,,,,,,,,60fdf30044b47c678461b1ca,26,2022-02-12_17h27.11.991,lexical_decision_task_DD_L2,2021.2.3,Win32,62.05013651,,,,,,,,,,,0.6416,1,,,,,,,,,,,,,,,,,,,,,,,,0.256666667,-0.181111111,0,0,0,,,,,,,BURIAL,C,m,y,./images/BURIAL.png,,,,,,,,,,,,,,,,,,,,,m,1,0.6416,,,,,,,,0,105,105,59,1
,,,,,,,,,,,,,,,,,60fdf30044b47c678461b1ca,26,2022-02-12_17h27.11.991,lexical_decision_task_DD_L2,2021.2.3,Win32,62.05013651,,,,,,,,,,,0.616099998,1,,,,,,,,,,,,,,,,,,,,,,,,0.256666667,-0.181111111,0,0,0,,,,,,,STEAK,LB,z,y,./images/STEAKLB.png,,,,,,,,,,,,,,,,,,,,,z,1,0.616099998,,,,,,,,0,106,106,115,1
,,,,,,,,,,,,,,,,,60fdf30044b47c678461b1ca,26,2022-02-12_17h27.11.991,lexical_decision_task_DD_L2,2021.2.3,Win32,62.05013651,,,,,,,,,,,1.222299999,1,,,,,,,,,,,,,,,,,,,,,,,,0.256666667,-0.181111111,0,0,0,,,,,,,MUSCLE,LB,m,y,./images/MUSCLELB.png,,,,,,,,,,,,,,,,,,,,,m,1,1.222299999,,,,,,,,0,107,107,4,1
,,,,,,,,,,,,,,,,,60fdf30044b47c678461b1ca,26,2022-02-12_17h27.11.991,lexical_decision_task_DD_L2,2021.2.3,Win32,62.05013651,,,,,,,,,,,1.0086,0,,,,,,,,,,,,,,,,,,,,,,,,0.256666667,-0.181111111,0,0,0,,,,,,,CARPET,C,m,y,./images/CARPET.png,,,,,,,,,,,,,,,,,,,,,z,0,1.0086,,,,,,,,0,108,108,53,1
,,,,,,,,,,,,,,,,,60fdf30044b47c678461b1ca,26,2022-02-12_17h27.11.991,lexical_decision_task_DD_L2,2021.2.3,Win32,62.05013651,,,,,,,,,,,0.913700001,1,,,,,,,,,,,,,,,,,,,,,,,,0.256666667,-0.181111111,0,0,0,,,,,,,CLOTH,C,z,y,./images/CLOTH.png,,,,,,,,,,,,,,,,,,,,,z,1,0.913700001,,,,,,,,0,109,109,107,1
,,,,,,,,,,,,,,,,,60fdf30044b47c678461b1ca,26,2022-02-12_17h27.11.991,lexical_decision_task_DD_L2,2021.2.3,Win32,62.05013651,,,,,,,,,,,0.574,1,,,,,,,,,,,,,,,,,,,,,,,,0.256666667,-0.181111111,0,0,0,,,,,,,BOXER,LB,z,y,./images/BOXERLB.png,,,,,,,,,,,,,,,,,,,,,z,1,0.574,,,,,,,,0,110,110,88,1
,,,,,,,,,,,,,,,,,60fdf30044b47c678461b1ca,26,2022-02-12_17h27.11.991,lexical_decision_task_DD_L2,2021.2.3,Win32,62.05013651,,,,,,,,,,,1.2989,1,,,,,,,,,,,,,,,,,,,,,,,,0.256666667,-0.181111111,0,0,0,,,,,,,POSTER,C,z,y,./images/POSTER.png,,,,,,,,,,,,,,,,,,,,,z,1,1.2989,,,,,,,,0,111,111,137,1
,,,,,,,,,,,,,,,,,60fdf30044b47c678461b1ca,26,2022-02-12_17h27.11.991,lexical_decision_task_DD_L2,2021.2.3,Win32,62.05013651,,,,,,,,,,,2.062,1,,,,,,,,,,,,,,,,,,,,,,,,0.256666667,-0.181111111,0,0,0,,,,,,,PILOT,C,z,y,./images/PILOT.png,,,,,,,,,,,,,,,,,,,,,z,1,2.062,,,,,,,,0,112,112,134,1
,,,,,,,,,,,,,,,,,60fdf30044b47c678461b1ca,26,2022-02-12_17h27.11.991,lexical_decision_task_DD_L2,2021.2.3,Win32,62.05013651,,,,,,,,,,,0.6169,1,,,,,,,,,,,,,,,,,,,,,,,,0.256666667,-0.181111111,0,0,0,,,,,,,SNACK,LB,m,y,./images/SNACKLB.png,,,,,,,,,,,,,,,,,,,,,m,1,0.6169,,,,,,,,0,113,113,73,1
,,,,,,,,,,,,,,,,,60fdf30044b47c678461b1ca,26,2022-02-12_17h27.11.991,lexical_decision_task_DD_L2,2021.2.3,Win32,62.05013651,,,,,,,,,,,0.7751,1,,,,,,,,,,,,,,,,,,,,,,,,0.256666667,-0.181111111,0,0,0,,,,,,,PARCEL,HB,z,y,./images/PARCELHB.png,,,,,,,,,,,,,,,,,,,,,z,1,0.7751,,,,,,,,0,114,114,102,1
,,,,,,,,,,,,,,,,,60fdf30044b47c678461b1ca,26,2022-02-12_17h27.11.991,lexical_decision_task_DD_L2,2021.2.3,Win32,62.05013651,,,,,,,,,,,1.133200001,0,,,,,,,,,,,,,,,,,,,,,,,,0.256666667,-0.181111111,0,0,0,,,,,,,HEATER,C,z,y,./images/HEATER.png,,,,,,,,,,,,,,,,,,,,,m,0,1.133200001,,,,,,,,0,115,115,140,1
,,,,,,,,,,,,,,,,,60fdf30044b47c678461b1ca,26,2022-02-12_17h27.11.991,lexical_decision_task_DD_L2,2021.2.3,Win32,62.05013651,,,,,,,,,,,0.8835,1,,,,,,,,,,,,,,,,,,,,,,,,0.256666667,-0.181111111,0,0,0,,,,,,,SWING,LB,m,y,./images/SWINGLB.png,,,,,,,,,,,,,,,,,,,,,m,1,0.8835,,,,,,,,0,116,116,40,1
,,,,,,,,,,,,,,,,,60fdf30044b47c678461b1ca,26,2022-02-12_17h27.11.991,lexical_decision_task_DD_L2,2021.2.3,Win32,62.05013651,,,,,,,,,,,1.4884,1,,,,,,,,,,,,,,,,,,,,,,,,0.256666667,-0.181111111,0,0,0,,,,,,,SHELF,HB,m,y,./images/SHELFHB.png,,,,,,,,,,,,,,,,,,,,,m,1,1.4884,,,,,,,,0,117,117,39,1
,,,,,,,,,,,,,,,,,60fdf30044b47c678461b1ca,26,2022-02-12_17h27.11.991,lexical_decision_task_DD_L2,2021.2.3,Win32,62.05013651,,,,,,,,,,,0.5666,1,,,,,,,,,,,,,,,,,,,,,,,,0.256666667,-0.181111111,0,0,0,,,,,,,TULIP,C,m,y,./images/TULIP.png,,,,,,,,,,,,,,,,,,,,,m,1,0.5666,,,,,,,,0,118,118,8,1
,,,,,,,,,,,,,,,,,60fdf30044b47c678461b1ca,26,2022-02-12_17h27.11.991,lexical_decision_task_DD_L2,2021.2.3,Win32,62.05013651,,,,,,,,,,,0.855099998,1,,,,,,,,,,,,,,,,,,,,,,,,0.256666667,-0.181111111,0,0,0,,,,,,,CURRY,HB,z,y,./images/CURRYHB.png,,,,,,,,,,,,,,,,,,,,,z,1,0.855099998,,,,,,,,0,119,119,144,1
,,,,,,,,,,,,,,,,,60fdf30044b47c678461b1ca,26,2022-02-12_17h27.11.991,lexical_decision_task_DD_L2,2021.2.3,Win32,62.05013651,,,,,,,,,,,0.9826,1,,,,,,,,,,,,,,,,,,,,,,,,0.256666667,-0.181111111,0,0,0,,,,,,,FERRY,HB,z,y,./images/FERRYHB.png,,,,,,,,,,,,,,,,,,,,,z,1,0.9826,,,,,,,,0,120,120,141,1
,,,,,,,,,,,,,,,,,60fdf30044b47c678461b1ca,26,2022-02-12_17h27.11.991,lexical_decision_task_DD_L2,2021.2.3,Win32,62.05013651,,,,,,,,,,,0.806700001,1,,,,,,,,,,,,,,,,,,,,,,,,0.256666667,-0.181111111,0,0,0,,,,,,,PEBBLE,LB,z,y,./images/PEBBLELB.png,,,,,,,,,,,,,,,,,,,,,z,1,0.806700001,,,,,,,,0,121,121,166,1
,,,,,,,,,,,,,,,,,60fdf30044b47c678461b1ca,26,2022-02-12_17h27.11.991,lexical_decision_task_DD_L2,2021.2.3,Win32,62.05013651,,,,,,,,,,,0.7044,1,,,,,,,,,,,,,,,,,,,,,,,,0.256666667,-0.181111111,0,0,0,,,,,,,PLANET,C,z,y,./images/PLANET.png,,,,,,,,,,,,,,,,,,,,,z,1,0.7044,,,,,,,,0,122,122,164,1
,,,,,,,,,,,,,,,,,60fdf30044b47c678461b1ca,26,2022-02-12_17h27.11.991,lexical_decision_task_DD_L2,2021.2.3,Win32,62.05013651,,,,,,,,,,,0.786200001,1,,,,,,,,,,,,,,,,,,,,,,,,0.256666667,-0.181111111,0,0,0,,,,,,,PENCE,LB,m,y,./images/PENCELB.png,,,,,,,,,,,,,,,,,,,,,m,1,0.786200001,,,,,,,,0,123,123,16,1
,,,,,,,,,,,,,,,,,60fdf30044b47c678461b1ca,26,2022-02-12_17h27.11.991,lexical_decision_task_DD_L2,2021.2.3,Win32,62.05013651,,,,,,,,,,,0.6229,1,,,,,,,,,,,,,,,,,,,,,,,,0.256666667,-0.181111111,0,0,0,,,,,,,QUILL,LB,m,y,./images/QUILLLB.png,,,,,,,,,,,,,,,,,,,,,m,1,0.6229,,,,,,,,0,124,124,31,1
,,,,,,,,,,,,,,,,,60fdf30044b47c678461b1ca,26,2022-02-12_17h27.11.991,lexical_decision_task_DD_L2,2021.2.3,Win32,62.05013651,,,,,,,,,,,0.844599998,1,,,,,,,,,,,,,,,,,,,,,,,,0.256666667,-0.181111111,0,0,0,space,,,,,,MELON,LB,m,y,./images/MELONLB.png,0.749699999,,,,,,,,,,,,,,,,,,,,m,1,0.844599998,,,,,,,,0,125,125,22,1
,,,,,,,,,,,,,,,,,60fdf30044b47c678461b1ca,26,2022-02-12_17h27.11.991,lexical_decision_task_DD_L2,2021.2.3,Win32,62.05013651,,,,,,,,,,,0.521800001,1,,,,,,,,,,,,,,,,,,,,,,,,0.256666667,-0.181111111,0,0,0,,,,,,,CHALK,LB,z,y,./images/CHALKLB.png,,,,,,,,,,,,,,,,,,,,,z,1,0.521800001,,,,,,,,0,126,126,109,1
,,,,,,,,,,,,,,,,,60fdf30044b47c678461b1ca,26,2022-02-12_17h27.11.991,lexical_decision_task_DD_L2,2021.2.3,Win32,62.05013651,,,,,,,,,,,0.6716,1,,,,,,,,,,,,,,,,,,,,,,,,0.256666667,-0.181111111,0,0,0,,,,,,,PISTOL,C,z,y,./images/PISTOL.png,,,,,,,,,,,,,,,,,,,,,z,1,0.6716,,,,,,,,0,127,127,113,1
,,,,,,,,,,,,,,,,,60fdf30044b47c678461b1ca,26,2022-02-12_17h27.11.991,lexical_decision_task_DD_L2,2021.2.3,Win32,62.05013651,,,,,,,,,,,0.616700001,1,,,,,,,,,,,,,,,,,,,,,,,,0.256666667,-0.181111111,0,0,0,,,,,,,CRADLE,C,m,y,./images/CRADLE.png,,,,,,,,,,,,,,,,,,,,,m,1,0.616700001,,,,,,,,0,128,128,20,1
,,,,,,,,,,,,,,,,,60fdf30044b47c678461b1ca,26,2022-02-12_17h27.11.991,lexical_decision_task_DD_L2,2021.2.3,Win32,62.05013651,,,,,,,,,,,0.7171,1,,,,,,,,,,,,,,,,,,,,,,,,0.256666667,-0.181111111,0,0,0,,,,,,,MUFFIN,LB,m,y,./images/MUFFINLB.png,,,,,,,,,,,,,,,,,,,,,m,1,0.7171,,,,,,,,0,129,129,55,1
,,,,,,,,,,,,,,,,,60fdf30044b47c678461b1ca,26,2022-02-12_17h27.11.991,lexical_decision_task_DD_L2,2021.2.3,Win32,62.05013651,,,,,,,,,,,0.7025,1,,,,,,,,,,,,,,,,,,,,,,,,0.256666667,-0.181111111,0,0,0,,,,,,,CHAIN,HB,z,y,./images/CHAINHB.png,,,,,,,,,,,,,,,,,,,,,z,1,0.7025,,,,,,,,0,130,130,126,1
