key_resp.keys,key_resp.rt,instr_done_touch.x,instr_done_touch.y,instr_done_touch.leftButton,instr_done_touch.midButton,instr_done_touch.rightButton,instruction_pages.thisRepN,instruction_pages.thisTrialN,instruction_pages.thisN,instruction_pages.thisIndex,instruction_pages.ran,pageN,phase,instruct_text,has_image,instruct_image,participant,age,date,expName,psychopyVersion,OS,frameRate,response.keys,response.corr,response.rt,touch_resp.x,touch_resp.y,touch_resp.leftButton,touch_resp.midButton,touch_resp.rightButton,touch_resp.time,touch_resp.clicked_name,rt,corr,practrials.thisRepN,practrials.thisTrialN,practrials.thisN,practrials.thisIndex,practrials.ran,TrialID,Target,corrAns,instr_done_touch.clicked_name,end_of_practice_trials_pages.thisRepN,end_of_practice_trials_pages.thisTrialN,end_of_practice_trials_pages.thisN,end_of_practice_trials_pages.thisIndex,end_of_practice_trials_pages.ran,key_resp_2.keys,key_resp_2.corr,key_resp_2.rt,targ_click.x,targ_click.y,targ_click.leftButton,targ_click.midButton,targ_click.rightButton,targ_click.time,targ_click.clicked_name,break_done_touch.x,break_done_touch.y,break_done_touch.leftButton,break_done_touch.midButton,break_done_touch.rightButton,break_done_keyboard.keys,maintrials.thisRepN,maintrials.thisTrialN,maintrials.thisN,maintrials.thisIndex,maintrials.ran,string,blur,study,lex,stim_path,break_done_keyboard.rt,mouse_2.x,mouse_2.y,mouse_2.leftButton,mouse_2.midButton,mouse_2.rightButton,mouse_2.clicked_name,slider.response,slider.rt,trials.thisRepN,trials.thisTrialN,trials.thisN,trials.thisIndex,trials.ran,test_instructions.thisRepN,test_instructions.thisTrialN,test_instructions.thisN,test_instructions.thisIndex,test_instructions.ran,key_resp_3.keys,key_resp_3.corr,key_resp_3.rt,test_click.x,test_click.y,test_click.leftButton,test_click.midButton,test_click.rightButton,test_click.time,test_click.clicked_name,test_phase.thisRepN,test_phase.thisTrialN,test_phase.thisN,test_phase.thisIndex,test_phase.ran
space,27.825,0.31359354,0.228129206,0,0,0,0,0,0,0,1,1,instructions,"INSTRUCTIONS
At the start of each trial, look at the plus sign  (+) in the center of the screen.  This tells you that a trial is about to begin and where to look. Second, the plus sign will disappear and a string of letters will appear. Your task is to determine if the string of letters is a word or not. If the item is a word press the M key (on keyboard)  or touch the word button (phone/tablet).  If the item is not a word,  press the  Z key (on keyboard)  or touch the nonword button (on phone/tablet). 
Press the space bar or touch  continue.",0,,60fddeb6dfaa94f6424e0916,19,2022-02-12_10h23.51.929,lexical_decision_task_DD_L6,2021.2.3,MacIntel,62.5,,,,,,,,,,,,,,,,,,,,,,,,,,,,,,,,,,,,,,,,,,,,,,,,,,,,,,,,,,,,,,,,,,,,,,,,,,,,,,,,,,,,,,
space,2.576,0.31359354,0.228129206,0,0,0,0,1,1,1,1,2,instructions,"If your device has a keyboard, press the 'Z' key for nonwords and the 'M' key for words.





Press the space bar or touch the button below to continue.",0,keyboard-example.gif,60fddeb6dfaa94f6424e0916,19,2022-02-12_10h23.51.929,lexical_decision_task_DD_L6,2021.2.3,MacIntel,62.5,,,,,,,,,,,,,,,,,,,,,,,,,,,,,,,,,,,,,,,,,,,,,,,,,,,,,,,,,,,,,,,,,,,,,,,,,,,,,,,,,,,,,,
space,2.269,0.31359354,0.228129206,0,0,0,0,2,2,2,1,3,instructions,"If you are using a touchscreen only device, use the buttons on the screen. Do not use the mouse.





Press the space bar or touch the button below to continue.",0,touchscreen-example.gif,60fddeb6dfaa94f6424e0916,19,2022-02-12_10h23.51.929,lexical_decision_task_DD_L6,2021.2.3,MacIntel,62.5,,,,,,,,,,,,,,,,,,,,,,,,,,,,,,,,,,,,,,,,,,,,,,,,,,,,,,,,,,,,,,,,,,,,,,,,,,,,,,,,,,,,,,
space,4.335,0.31359354,0.228129206,0,0,0,0,3,3,3,1,4,instructions,"It is very important that you respond as quickly and accurately as possible, as each letter string will only be on the screen for two seconds. If you do not respond within this time, the message 'Too slow!' will be displayed and the experiment will progress to the next letter string. The first 20 trials will be practice trials and you will receive feedback on your answers. 

Press the space bar or touch the button below to start the practice trials.",0,,60fddeb6dfaa94f6424e0916,19,2022-02-12_10h23.51.929,lexical_decision_task_DD_L6,2021.2.3,MacIntel,62.5,,,,,,,,,,,,,,,,,,,,,,,,,,,,,,,,,,,,,,,,,,,,,,,,,,,,,,,,,,,,,,,,,,,,,,,,,,,,,,,,,,,,,,
,,,,,,,,,,,,,,,,,60fddeb6dfaa94f6424e0916,19,2022-02-12_10h23.51.929,lexical_decision_task_DD_L6,2021.2.3,MacIntel,62.5,m,1,1.137,,,,,,,,1.137,1,0,0,0,1,1,1001,ADJUST,m,,,,,,,,,,,,,,,,,,,,,,,,,,,,,,,,,,,,,,,,,,,,,,,,,,,,,,,,,,,,,,,,,,
,,,,,,,,,,,,,,,,,60fddeb6dfaa94f6424e0916,19,2022-02-12_10h23.51.929,lexical_decision_task_DD_L6,2021.2.3,MacIntel,62.5,z,1,0.937,,,,,,,,0.937,1,0,1,1,12,1,1001,SPRINY,z,,,,,,,,,,,,,,,,,,,,,,,,,,,,,,,,,,,,,,,,,,,,,,,,,,,,,,,,,,,,,,,,,,
,,,,,,,,,,,,,,,,,60fddeb6dfaa94f6424e0916,19,2022-02-12_10h23.51.929,lexical_decision_task_DD_L6,2021.2.3,MacIntel,62.5,z,1,0.572,,,,,,,,0.572,1,0,2,2,8,1,1001,ASLERT,z,,,,,,,,,,,,,,,,,,,,,,,,,,,,,,,,,,,,,,,,,,,,,,,,,,,,,,,,,,,,,,,,,,
,,,,,,,,,,,,,,,,,60fddeb6dfaa94f6424e0916,19,2022-02-12_10h23.51.929,lexical_decision_task_DD_L6,2021.2.3,MacIntel,62.5,m,1,0.526,,,,,,,,0.526,1,0,3,3,4,1,1001,SQUEAK,m,,,,,,,,,,,,,,,,,,,,,,,,,,,,,,,,,,,,,,,,,,,,,,,,,,,,,,,,,,,,,,,,,,
,,,,,,,,,,,,,,,,,60fddeb6dfaa94f6424e0916,19,2022-02-12_10h23.51.929,lexical_decision_task_DD_L6,2021.2.3,MacIntel,62.5,m,1,0.657,,,,,,,,0.657,1,0,4,4,5,1,1001,OBTAIN,m,,,,,,,,,,,,,,,,,,,,,,,,,,,,,,,,,,,,,,,,,,,,,,,,,,,,,,,,,,,,,,,,,,
,,,,,,,,,,,,,,,,,60fddeb6dfaa94f6424e0916,19,2022-02-12_10h23.51.929,lexical_decision_task_DD_L6,2021.2.3,MacIntel,62.5,m,1,0.488,,,,,,,,0.488,1,0,5,5,2,1,1001,ALMOND,m,,,,,,,,,,,,,,,,,,,,,,,,,,,,,,,,,,,,,,,,,,,,,,,,,,,,,,,,,,,,,,,,,,
,,,,,,,,,,,,,,,,,60fddeb6dfaa94f6424e0916,19,2022-02-12_10h23.51.929,lexical_decision_task_DD_L6,2021.2.3,MacIntel,62.5,z,1,0.606,,,,,,,,0.606,1,0,6,6,15,1,1001,WHAISE,z,,,,,,,,,,,,,,,,,,,,,,,,,,,,,,,,,,,,,,,,,,,,,,,,,,,,,,,,,,,,,,,,,,
,,,,,,,,,,,,,,,,,60fddeb6dfaa94f6424e0916,19,2022-02-12_10h23.51.929,lexical_decision_task_DD_L6,2021.2.3,MacIntel,62.5,z,1,0.522,,,,,,,,0.522,1,0,7,7,10,1,1001,INLADE,z,,,,,,,,,,,,,,,,,,,,,,,,,,,,,,,,,,,,,,,,,,,,,,,,,,,,,,,,,,,,,,,,,,
,,,,,,,,,,,,,,,,,60fddeb6dfaa94f6424e0916,19,2022-02-12_10h23.51.929,lexical_decision_task_DD_L6,2021.2.3,MacIntel,62.5,z,1,0.487,,,,,,,,0.487,1,0,8,8,9,1,1001,FARINY,z,,,,,,,,,,,,,,,,,,,,,,,,,,,,,,,,,,,,,,,,,,,,,,,,,,,,,,,,,,,,,,,,,,
,,,,,,,,,,,,,,,,,60fddeb6dfaa94f6424e0916,19,2022-02-12_10h23.51.929,lexical_decision_task_DD_L6,2021.2.3,MacIntel,62.5,m,1,0.44,,,,,,,,0.44,1,0,9,9,7,1,1001,VOLUME,m,,,,,,,,,,,,,,,,,,,,,,,,,,,,,,,,,,,,,,,,,,,,,,,,,,,,,,,,,,,,,,,,,,
,,,,,,,,,,,,,,,,,60fddeb6dfaa94f6424e0916,19,2022-02-12_10h23.51.929,lexical_decision_task_DD_L6,2021.2.3,MacIntel,62.5,z,1,0.491,,,,,,,,0.491,1,0,10,10,13,1,1001,ROUPET,z,,,,,,,,,,,,,,,,,,,,,,,,,,,,,,,,,,,,,,,,,,,,,,,,,,,,,,,,,,,,,,,,,,
,,,,,,,,,,,,,,,,,60fddeb6dfaa94f6424e0916,19,2022-02-12_10h23.51.929,lexical_decision_task_DD_L6,2021.2.3,MacIntel,62.5,m,1,0.56,,,,,,,,0.56,1,0,11,11,3,1,1001,MATRIX,m,,,,,,,,,,,,,,,,,,,,,,,,,,,,,,,,,,,,,,,,,,,,,,,,,,,,,,,,,,,,,,,,,,
,,,,,,,,,,,,,,,,,60fddeb6dfaa94f6424e0916,19,2022-02-12_10h23.51.929,lexical_decision_task_DD_L6,2021.2.3,MacIntel,62.5,m,1,0.487,,,,,,,,0.487,1,0,12,12,0,1,1001,UTOPIA,m,,,,,,,,,,,,,,,,,,,,,,,,,,,,,,,,,,,,,,,,,,,,,,,,,,,,,,,,,,,,,,,,,,
,,,,,,,,,,,,,,,,,60fddeb6dfaa94f6424e0916,19,2022-02-12_10h23.51.929,lexical_decision_task_DD_L6,2021.2.3,MacIntel,62.5,z,1,0.562,,,,,,,,0.562,1,0,13,13,14,1,1001,THRALE,z,,,,,,,,,,,,,,,,,,,,,,,,,,,,,,,,,,,,,,,,,,,,,,,,,,,,,,,,,,,,,,,,,,
,,,,,,,,,,,,,,,,,60fddeb6dfaa94f6424e0916,19,2022-02-12_10h23.51.929,lexical_decision_task_DD_L6,2021.2.3,MacIntel,62.5,m,1,0.497,,,,,,,,0.497,1,0,14,14,6,1,1001,ZOMBIE,m,,,,,,,,,,,,,,,,,,,,,,,,,,,,,,,,,,,,,,,,,,,,,,,,,,,,,,,,,,,,,,,,,,
,,,,,,,,,,,,,,,,,60fddeb6dfaa94f6424e0916,19,2022-02-12_10h23.51.929,lexical_decision_task_DD_L6,2021.2.3,MacIntel,62.5,z,1,0.53,,,,,,,,0.53,1,0,15,15,11,1,1001,RASHET,z,,,,,,,,,,,,,,,,,,,,,,,,,,,,,,,,,,,,,,,,,,,,,,,,,,,,,,,,,,,,,,,,,,
,,0.098250336,-0.424629879,1,0,0,,,,,,1,end_of_practice,"You have completed the practice trials. During the experimental trials, you will not receive feedback. 
Before you begin, please ensure that you are in a comfortable and quiet location and will not be disturbed for about 15 minutes, as we cannot use your data if you do not complete all the trials. 
 When you are ready to start the experimental trials, please press space or touch the button below.",,,60fddeb6dfaa94f6424e0916,19,2022-02-12_10h23.51.929,lexical_decision_task_DD_L6,2021.2.3,MacIntel,62.5,,,,,,,,,,,,,,,,,,,,,instr_done_button,0,0,0,0,1,,,,,,,,,,,,,,,,,,,,,,,,,,,,,,,,,,,,,,,,,,,,,,,,,,,,,,,,,,,,
,,,,,,,,,,,,,,,,,60fddeb6dfaa94f6424e0916,19,2022-02-12_10h23.51.929,lexical_decision_task_DD_L6,2021.2.3,MacIntel,62.5,,,,,,,,,,,0.611,1,,,,,,,,,,,,,,,m,1,0.611,,,,,,,,0.098250336,-0.424629879,0,0,0,,0,0,0,33,1,SAUNA,LB,m,m,./images/SAUNALB.png,,,,,,,,,,,,,,,,,,,,,,,,,,,,,,,,,,
,,,,,,,,,,,,,,,,,60fddeb6dfaa94f6424e0916,19,2022-02-12_10h23.51.929,lexical_decision_task_DD_L6,2021.2.3,MacIntel,62.5,,,,,,,,,,,0.954,1,,,,,,,,,,,,,,,z,1,0.954,,,,,,,,0.098250336,-0.424629879,0,0,0,,0,1,1,139,1,BLEAR,HB,z,z,./images/BLEARHB.png,,,,,,,,,,,,,,,,,,,,,,,,,,,,,,,,,,
,,,,,,,,,,,,,,,,,60fddeb6dfaa94f6424e0916,19,2022-02-12_10h23.51.929,lexical_decision_task_DD_L6,2021.2.3,MacIntel,62.5,,,,,,,,,,,0.505,0,,,,,,,,,,,,,,,m,0,0.505,,,,,,,,0.098250336,-0.424629879,0,0,0,,0,2,2,166,1,SHORY,HB,z,z,./images/SHORYHB.png,,,,,,,,,,,,,,,,,,,,,,,,,,,,,,,,,,
,,,,,,,,,,,,,,,,,60fddeb6dfaa94f6424e0916,19,2022-02-12_10h23.51.929,lexical_decision_task_DD_L6,2021.2.3,MacIntel,62.5,,,,,,,,,,,0.528,1,,,,,,,,,,,,,,,m,1,0.528,,,,,,,,0.098250336,-0.424629879,0,0,0,,0,3,3,52,1,DESERT,C,m,m,./images/DESERT.png,,,,,,,,,,,,,,,,,,,,,,,,,,,,,,,,,,
,,,,,,,,,,,,,,,,,60fddeb6dfaa94f6424e0916,19,2022-02-12_10h23.51.929,lexical_decision_task_DD_L6,2021.2.3,MacIntel,62.5,,,,,,,,,,,0.529,1,,,,,,,,,,,,,,,m,1,0.529,,,,,,,,0.098250336,-0.424629879,0,0,0,,0,4,4,27,1,BUTTER,LB,m,m,./images/BUTTERLB.png,,,,,,,,,,,,,,,,,,,,,,,,,,,,,,,,,,
,,,,,,,,,,,,,,,,,60fddeb6dfaa94f6424e0916,19,2022-02-12_10h23.51.929,lexical_decision_task_DD_L6,2021.2.3,MacIntel,62.5,,,,,,,,,,,0.561,1,,,,,,,,,,,,,,,m,1,0.561,,,,,,,,0.098250336,-0.424629879,0,0,0,,0,5,5,60,1,CURRY,LB,m,m,./images/CURRYLB.png,,,,,,,,,,,,,,,,,,,,,,,,,,,,,,,,,,
,,,,,,,,,,,,,,,,,60fddeb6dfaa94f6424e0916,19,2022-02-12_10h23.51.929,lexical_decision_task_DD_L6,2021.2.3,MacIntel,62.5,,,,,,,,,,,0.546,1,,,,,,,,,,,,,,,z,1,0.546,,,,,,,,0.098250336,-0.424629879,0,0,0,,0,6,6,131,1,NACES,LB,z,z,./images/NACESLB.png,,,,,,,,,,,,,,,,,,,,,,,,,,,,,,,,,,
,,,,,,,,,,,,,,,,,60fddeb6dfaa94f6424e0916,19,2022-02-12_10h23.51.929,lexical_decision_task_DD_L6,2021.2.3,MacIntel,62.5,,,,,,,,,,,0.498,1,,,,,,,,,,,,,,,m,1,0.498,,,,,,,,0.098250336,-0.424629879,0,0,0,,0,7,7,7,1,WAGON,C,m,m,./images/WAGON.png,,,,,,,,,,,,,,,,,,,,,,,,,,,,,,,,,,
,,,,,,,,,,,,,,,,,60fddeb6dfaa94f6424e0916,19,2022-02-12_10h23.51.929,lexical_decision_task_DD_L6,2021.2.3,MacIntel,62.5,,,,,,,,,,,0.457,1,,,,,,,,,,,,,,,z,1,0.457,,,,,,,,0.098250336,-0.424629879,0,0,0,,0,8,8,158,1,EGECT,LB,z,z,./images/EGECTLB.png,,,,,,,,,,,,,,,,,,,,,,,,,,,,,,,,,,
,,,,,,,,,,,,,,,,,60fddeb6dfaa94f6424e0916,19,2022-02-12_10h23.51.929,lexical_decision_task_DD_L6,2021.2.3,MacIntel,62.5,,,,,,,,,,,0.697,1,,,,,,,,,,,,,,,z,1,0.697,,,,,,,,0.098250336,-0.424629879,0,0,0,,0,9,9,88,1,GLUSH,HB,z,z,./images/GLUSHHB.png,,,,,,,,,,,,,,,,,,,,,,,,,,,,,,,,,,
,,,,,,,,,,,,,,,,,60fddeb6dfaa94f6424e0916,19,2022-02-12_10h23.51.929,lexical_decision_task_DD_L6,2021.2.3,MacIntel,62.5,,,,,,,,,,,0.46,1,,,,,,,,,,,,,,,m,1,0.46,,,,,,,,0.098250336,-0.424629879,0,0,0,,0,10,10,70,1,BANANA,C,m,m,./images/BANANA.png,,,,,,,,,,,,,,,,,,,,,,,,,,,,,,,,,,
,,,,,,,,,,,,,,,,,60fddeb6dfaa94f6424e0916,19,2022-02-12_10h23.51.929,lexical_decision_task_DD_L6,2021.2.3,MacIntel,62.5,,,,,,,,,,,0.431,1,,,,,,,,,,,,,,,z,1,0.431,,,,,,,,0.098250336,-0.424629879,0,0,0,,0,11,11,162,1,LEICH,C,z,z,./images/LEICH.png,,,,,,,,,,,,,,,,,,,,,,,,,,,,,,,,,,
,,,,,,,,,,,,,,,,,60fddeb6dfaa94f6424e0916,19,2022-02-12_10h23.51.929,lexical_decision_task_DD_L6,2021.2.3,MacIntel,62.5,,,,,,,,,,,0.644,1,,,,,,,,,,,,,,,m,1,0.644,,,,,,,,0.098250336,-0.424629879,0,0,0,,0,12,12,8,1,CLIFF,HB,m,m,./images/CLIFFHB.png,,,,,,,,,,,,,,,,,,,,,,,,,,,,,,,,,,
,,,,,,,,,,,,,,,,,60fddeb6dfaa94f6424e0916,19,2022-02-12_10h23.51.929,lexical_decision_task_DD_L6,2021.2.3,MacIntel,62.5,,,,,,,,,,,0.548,1,,,,,,,,,,,,,,,z,1,0.548,,,,,,,,0.098250336,-0.424629879,0,0,0,,0,13,13,147,1,ZOLES,C,z,z,./images/ZOLES.png,,,,,,,,,,,,,,,,,,,,,,,,,,,,,,,,,,
,,,,,,,,,,,,,,,,,60fddeb6dfaa94f6424e0916,19,2022-02-12_10h23.51.929,lexical_decision_task_DD_L6,2021.2.3,MacIntel,62.5,,,,,,,,,,,0.68,1,,,,,,,,,,,,,,,z,1,0.68,,,,,,,,0.098250336,-0.424629879,0,0,0,,0,14,14,112,1,MYING,HB,z,z,./images/MYINGHB.png,,,,,,,,,,,,,,,,,,,,,,,,,,,,,,,,,,
,,,,,,,,,,,,,,,,,60fddeb6dfaa94f6424e0916,19,2022-02-12_10h23.51.929,lexical_decision_task_DD_L6,2021.2.3,MacIntel,62.5,,,,,,,,,,,0.573,1,,,,,,,,,,,,,,,m,1,0.573,,,,,,,,0.098250336,-0.424629879,0,0,0,,0,15,15,83,1,WHISKY,HB,m,m,./images/WHISKYHB.png,,,,,,,,,,,,,,,,,,,,,,,,,,,,,,,,,,
,,,,,,,,,,,,,,,,,60fddeb6dfaa94f6424e0916,19,2022-02-12_10h23.51.929,lexical_decision_task_DD_L6,2021.2.3,MacIntel,62.5,,,,,,,,,,,0.571,1,,,,,,,,,,,,,,,z,1,0.571,,,,,,,,0.098250336,-0.424629879,0,0,0,,0,16,16,121,1,CEERS,HB,z,z,./images/CEERSHB.png,,,,,,,,,,,,,,,,,,,,,,,,,,,,,,,,,,
,,,,,,,,,,,,,,,,,60fddeb6dfaa94f6424e0916,19,2022-02-12_10h23.51.929,lexical_decision_task_DD_L6,2021.2.3,MacIntel,62.5,,,,,,,,,,,0.74,1,,,,,,,,,,,,,,,z,1,0.74,,,,,,,,0.098250336,-0.424629879,0,0,0,,0,17,17,85,1,CHULK,HB,z,z,./images/CHULKHB.png,,,,,,,,,,,,,,,,,,,,,,,,,,,,,,,,,,
,,,,,,,,,,,,,,,,,60fddeb6dfaa94f6424e0916,19,2022-02-12_10h23.51.929,lexical_decision_task_DD_L6,2021.2.3,MacIntel,62.5,,,,,,,,,,,0.539,1,,,,,,,,,,,,,,,z,1,0.539,,,,,,,,0.098250336,-0.424629879,0,0,0,,0,18,18,135,1,JOODY,C,z,z,./images/JOODY.png,,,,,,,,,,,,,,,,,,,,,,,,,,,,,,,,,,
,,,,,,,,,,,,,,,,,60fddeb6dfaa94f6424e0916,19,2022-02-12_10h23.51.929,lexical_decision_task_DD_L6,2021.2.3,MacIntel,62.5,,,,,,,,,,,0.523,1,,,,,,,,,,,,,,,m,1,0.523,,,,,,,,0.098250336,-0.424629879,0,0,0,,0,19,19,79,1,RULER,C,m,m,./images/RULER.png,,,,,,,,,,,,,,,,,,,,,,,,,,,,,,,,,,
,,,,,,,,,,,,,,,,,60fddeb6dfaa94f6424e0916,19,2022-02-12_10h23.51.929,lexical_decision_task_DD_L6,2021.2.3,MacIntel,62.5,,,,,,,,,,,0.656,1,,,,,,,,,,,,,,,z,1,0.656,,,,,,,,0.098250336,-0.424629879,0,0,0,,0,20,20,91,1,SHENS,HB,z,z,./images/SHENSHB.png,,,,,,,,,,,,,,,,,,,,,,,,,,,,,,,,,,
,,,,,,,,,,,,,,,,,60fddeb6dfaa94f6424e0916,19,2022-02-12_10h23.51.929,lexical_decision_task_DD_L6,2021.2.3,MacIntel,62.5,,,,,,,,,,,1.333,1,,,,,,,,,,,,,,,z,1,1.333,,,,,,,,0.098250336,-0.424629879,0,0,0,,0,21,21,138,1,PLICE,C,z,z,./images/PLICE.png,,,,,,,,,,,,,,,,,,,,,,,,,,,,,,,,,,
,,,,,,,,,,,,,,,,,60fddeb6dfaa94f6424e0916,19,2022-02-12_10h23.51.929,lexical_decision_task_DD_L6,2021.2.3,MacIntel,62.5,,,,,,,,,,,0.49,0,,,,,,,,,,,,,,,z,0,0.49,,,,,,,,0.098250336,-0.424629879,0,0,0,,0,22,22,42,1,CHAIN,LB,m,m,./images/CHAINLB.png,,,,,,,,,,,,,,,,,,,,,,,,,,,,,,,,,,
,,,,,,,,,,,,,,,,,60fddeb6dfaa94f6424e0916,19,2022-02-12_10h23.51.929,lexical_decision_task_DD_L6,2021.2.3,MacIntel,62.5,,,,,,,,,,,0.497,1,,,,,,,,,,,,,,,m,1,0.497,,,,,,,,0.098250336,-0.424629879,0,0,0,,0,23,23,64,1,BRIDE,C,m,m,./images/BRIDE.png,,,,,,,,,,,,,,,,,,,,,,,,,,,,,,,,,,
,,,,,,,,,,,,,,,,,60fddeb6dfaa94f6424e0916,19,2022-02-12_10h23.51.929,lexical_decision_task_DD_L6,2021.2.3,MacIntel,62.5,,,,,,,,,,,0.698,0,,,,,,,,,,,,,,,z,0,0.698,,,,,,,,0.098250336,-0.424629879,0,0,0,,0,24,24,65,1,SPINE,HB,m,m,./images/SPINEHB.png,,,,,,,,,,,,,,,,,,,,,,,,,,,,,,,,,,
,,,,,,,,,,,,,,,,,60fddeb6dfaa94f6424e0916,19,2022-02-12_10h23.51.929,lexical_decision_task_DD_L6,2021.2.3,MacIntel,62.5,,,,,,,,,,,0.59,1,,,,,,,,,,,,,,,m,1,0.59,,,,,,,,0.098250336,-0.424629879,0,0,0,,0,25,25,69,1,ARROW,LB,m,m,./images/ARROWLB.png,,,,,,,,,,,,,,,,,,,,,,,,,,,,,,,,,,
,,,,,,,,,,,,,,,,,60fddeb6dfaa94f6424e0916,19,2022-02-12_10h23.51.929,lexical_decision_task_DD_L6,2021.2.3,MacIntel,62.5,,,,,,,,,,,0.707,1,,,,,,,,,,,,,,,z,1,0.707,,,,,,,,0.098250336,-0.424629879,0,0,0,,0,26,26,100,1,DRIBS,HB,z,z,./images/DRIBSHB.png,,,,,,,,,,,,,,,,,,,,,,,,,,,,,,,,,,
,,,,,,,,,,,,,,,,,60fddeb6dfaa94f6424e0916,19,2022-02-12_10h23.51.929,lexical_decision_task_DD_L6,2021.2.3,MacIntel,62.5,,,,,,,,,,,1.188,1,,,,,,,,,,,,,,,z,1,1.188,,,,,,,,0.098250336,-0.424629879,0,0,0,,0,27,27,151,1,TINKY,HB,z,z,./images/TINKYHB.png,,,,,,,,,,,,,,,,,,,,,,,,,,,,,,,,,,
,,,,,,,,,,,,,,,,,60fddeb6dfaa94f6424e0916,19,2022-02-12_10h23.51.929,lexical_decision_task_DD_L6,2021.2.3,MacIntel,62.5,,,,,,,,,,,0.525,1,,,,,,,,,,,,,,,m,1,0.525,,,,,,,,0.098250336,-0.424629879,0,0,0,,0,28,28,15,1,COLLAR,LB,m,m,./images/COLLARLB.png,,,,,,,,,,,,,,,,,,,,,,,,,,,,,,,,,,
,,,,,,,,,,,,,,,,,60fddeb6dfaa94f6424e0916,19,2022-02-12_10h23.51.929,lexical_decision_task_DD_L6,2021.2.3,MacIntel,62.5,,,,,,,,,,,0.529,1,,,,,,,,,,,,,,,m,1,0.529,,,,,,,,0.098250336,-0.424629879,0,0,0,,0,29,29,66,1,STATUE,LB,m,m,./images/STATUELB.png,,,,,,,,,,,,,,,,,,,,,,,,,,,,,,,,,,
,,,,,,,,,,,,,,,,,60fddeb6dfaa94f6424e0916,19,2022-02-12_10h23.51.929,lexical_decision_task_DD_L6,2021.2.3,MacIntel,62.5,,,,,,,,,,,0.428,1,,,,,,,,,,,,,,,m,1,0.428,,,,,,,,0.098250336,-0.424629879,0,0,0,,0,30,30,28,1,CASINO,C,m,m,./images/CASINO.png,,,,,,,,,,,,,,,,,,,,,,,,,,,,,,,,,,
,,,,,,,,,,,,,,,,,60fddeb6dfaa94f6424e0916,19,2022-02-12_10h23.51.929,lexical_decision_task_DD_L6,2021.2.3,MacIntel,62.5,,,,,,,,,,,0.524,1,,,,,,,,,,,,,,,z,1,0.524,,,,,,,,0.098250336,-0.424629879,0,0,0,,0,31,31,156,1,HIXES,C,z,z,./images/HIXES.png,,,,,,,,,,,,,,,,,,,,,,,,,,,,,,,,,,
,,,,,,,,,,,,,,,,,60fddeb6dfaa94f6424e0916,19,2022-02-12_10h23.51.929,lexical_decision_task_DD_L6,2021.2.3,MacIntel,62.5,,,,,,,,,,,0.523,1,,,,,,,,,,,,,,,z,1,0.523,,,,,,,,0.098250336,-0.424629879,0,0,0,,0,32,32,155,1,CANGY,LB,z,z,./images/CANGYLB.png,,,,,,,,,,,,,,,,,,,,,,,,,,,,,,,,,,
,,,,,,,,,,,,,,,,,60fddeb6dfaa94f6424e0916,19,2022-02-12_10h23.51.929,lexical_decision_task_DD_L6,2021.2.3,MacIntel,62.5,,,,,,,,,,,0.461,1,,,,,,,,,,,,,,,m,1,0.461,,,,,,,,0.098250336,-0.424629879,0,0,0,,0,33,33,61,1,ARTIST,C,m,m,./images/ARTIST.png,,,,,,,,,,,,,,,,,,,,,,,,,,,,,,,,,,
,,,,,,,,,,,,,,,,,60fddeb6dfaa94f6424e0916,19,2022-02-12_10h23.51.929,lexical_decision_task_DD_L6,2021.2.3,MacIntel,62.5,,,,,,,,,,,0.658,1,,,,,,,,,,,,,,,m,1,0.658,,,,,,,,0.098250336,-0.424629879,0,0,0,,0,34,34,78,1,BROOM,LB,m,m,./images/BROOMLB.png,,,,,,,,,,,,,,,,,,,,,,,,,,,,,,,,,,
,,,,,,,,,,,,,,,,,60fddeb6dfaa94f6424e0916,19,2022-02-12_10h23.51.929,lexical_decision_task_DD_L6,2021.2.3,MacIntel,62.5,,,,,,,,,,,0.528,1,,,,,,,,,,,,,,,z,1,0.528,,,,,,,,0.098250336,-0.424629879,0,0,0,,0,35,35,143,1,MONGS,LB,z,z,./images/MONGSLB.png,,,,,,,,,,,,,,,,,,,,,,,,,,,,,,,,,,
,,,,,,,,,,,,,,,,,60fddeb6dfaa94f6424e0916,19,2022-02-12_10h23.51.929,lexical_decision_task_DD_L6,2021.2.3,MacIntel,62.5,,,,,,,,,,,0.566,0,,,,,,,,,,,,,,,m,0,0.566,,,,,,,,0.098250336,-0.424629879,0,0,0,,0,36,36,116,1,BALGY,LB,z,z,./images/BALGYLB.png,,,,,,,,,,,,,,,,,,,,,,,,,,,,,,,,,,
,,,,,,,,,,,,,,,,,60fddeb6dfaa94f6424e0916,19,2022-02-12_10h23.51.929,lexical_decision_task_DD_L6,2021.2.3,MacIntel,62.5,,,,,,,,,,,0.663,1,,,,,,,,,,,,,,,m,1,0.663,,,,,,,,0.098250336,-0.424629879,0,0,0,,0,37,37,34,1,RAZOR,C,m,m,./images/RAZOR.png,,,,,,,,,,,,,,,,,,,,,,,,,,,,,,,,,,
,,,,,,,,,,,,,,,,,60fddeb6dfaa94f6424e0916,19,2022-02-12_10h23.51.929,lexical_decision_task_DD_L6,2021.2.3,MacIntel,62.5,,,,,,,,,,,0.838,1,,,,,,,,,,,,,,,m,1,0.838,,,,,,,,0.098250336,-0.424629879,0,0,0,,0,38,38,29,1,PISTOL,HB,m,m,./images/PISTOLHB.png,,,,,,,,,,,,,,,,,,,,,,,,,,,,,,,,,,
,,,,,,,,,,,,,,,,,60fddeb6dfaa94f6424e0916,19,2022-02-12_10h23.51.929,lexical_decision_task_DD_L6,2021.2.3,MacIntel,62.5,,,,,,,,,,,0.696,1,,,,,,,,,,,,,,,z,1,0.696,,,,,,,,0.098250336,-0.424629879,0,0,0,,0,39,39,92,1,PAIMS,LB,z,z,./images/PAIMSLB.png,,,,,,,,,,,,,,,,,,,,,,,,,,,,,,,,,,
,,,,,,,,,,,,,,,,,60fddeb6dfaa94f6424e0916,19,2022-02-12_10h23.51.929,lexical_decision_task_DD_L6,2021.2.3,MacIntel,62.5,,,,,,,,,,,0.508,1,,,,,,,,,,,,,,,z,1,0.508,,,,,,,,0.098250336,-0.424629879,0,0,0,,0,40,40,89,1,DRIEK,LB,z,z,./images/DRIEKLB.png,,,,,,,,,,,,,,,,,,,,,,,,,,,,,,,,,,
,,,,,,,,,,,,,,,,,60fddeb6dfaa94f6424e0916,19,2022-02-12_10h23.51.929,lexical_decision_task_DD_L6,2021.2.3,MacIntel,62.5,,,,,,,,,,,0.538,1,,,,,,,,,,,,,,,m,1,0.538,,,,,,,,0.098250336,-0.424629879,0,0,0,space,0,41,41,77,1,WHEEL,HB,m,m,./images/WHEELHB.png,1.895,,,,,,,,,,,,,,,,,,,,,,,,,,,,,,,,,
,,,,,,,,,,,,,,,,,60fddeb6dfaa94f6424e0916,19,2022-02-12_10h23.51.929,lexical_decision_task_DD_L6,2021.2.3,MacIntel,62.5,,,,,,,,,,,0.545,1,,,,,,,,,,,,,,,z,1,0.545,,,,,,,,0.098250336,-0.424629879,0,0,0,,0,42,42,102,1,DULLE,C,z,z,./images/DULLE.png,,,,,,,,,,,,,,,,,,,,,,,,,,,,,,,,,,
,,,,,,,,,,,,,,,,,60fddeb6dfaa94f6424e0916,19,2022-02-12_10h23.51.929,lexical_decision_task_DD_L6,2021.2.3,MacIntel,62.5,,,,,,,,,,,0.538,1,,,,,,,,,,,,,,,z,1,0.538,,,,,,,,0.098250336,-0.424629879,0,0,0,,0,43,43,160,1,VEETS,HB,z,z,./images/VEETSHB.png,,,,,,,,,,,,,,,,,,,,,,,,,,,,,,,,,,
,,,,,,,,,,,,,,,,,60fddeb6dfaa94f6424e0916,19,2022-02-12_10h23.51.929,lexical_decision_task_DD_L6,2021.2.3,MacIntel,62.5,,,,,,,,,,,0.455,1,,,,,,,,,,,,,,,m,1,0.455,,,,,,,,0.098250336,-0.424629879,0,0,0,,0,44,44,21,1,DANCER,LB,m,m,./images/DANCERLB.png,,,,,,,,,,,,,,,,,,,,,,,,,,,,,,,,,,
,,,,,,,,,,,,,,,,,60fddeb6dfaa94f6424e0916,19,2022-02-12_10h23.51.929,lexical_decision_task_DD_L6,2021.2.3,MacIntel,62.5,,,,,,,,,,,0.573,1,,,,,,,,,,,,,,,m,1,0.573,,,,,,,,0.098250336,-0.424629879,0,0,0,,0,45,45,11,1,MEDAL,HB,m,m,./images/MEDALHB.png,,,,,,,,,,,,,,,,,,,,,,,,,,,,,,,,,,
,,,,,,,,,,,,,,,,,60fddeb6dfaa94f6424e0916,19,2022-02-12_10h23.51.929,lexical_decision_task_DD_L6,2021.2.3,MacIntel,62.5,,,,,,,,,,,0.492,1,,,,,,,,,,,,,,,z,1,0.492,,,,,,,,0.098250336,-0.424629879,0,0,0,,0,46,46,84,1,HAXES,C,z,z,./images/HAXES.png,,,,,,,,,,,,,,,,,,,,,,,,,,,,,,,,,,
,,,,,,,,,,,,,,,,,60fddeb6dfaa94f6424e0916,19,2022-02-12_10h23.51.929,lexical_decision_task_DD_L6,2021.2.3,MacIntel,62.5,,,,,,,,,,,0.444,1,,,,,,,,,,,,,,,m,1,0.444,,,,,,,,0.098250336,-0.424629879,0,0,0,,0,47,47,54,1,CHERRY,LB,m,m,./images/CHERRYLB.png,,,,,,,,,,,,,,,,,,,,,,,,,,,,,,,,,,
,,,,,,,,,,,,,,,,,60fddeb6dfaa94f6424e0916,19,2022-02-12_10h23.51.929,lexical_decision_task_DD_L6,2021.2.3,MacIntel,62.5,,,,,,,,,,,0.429,1,,,,,,,,,,,,,,,z,1,0.429,,,,,,,,0.098250336,-0.424629879,0,0,0,,0,48,48,117,1,STEEG,C,z,z,./images/STEEG.png,,,,,,,,,,,,,,,,,,,,,,,,,,,,,,,,,,
,,,,,,,,,,,,,,,,,60fddeb6dfaa94f6424e0916,19,2022-02-12_10h23.51.929,lexical_decision_task_DD_L6,2021.2.3,MacIntel,62.5,,,,,,,,,,,0.529,1,,,,,,,,,,,,,,,m,1,0.529,,,,,,,,0.098250336,-0.424629879,0,0,0,,0,49,49,67,1,POKER,C,m,m,./images/POKER.png,,,,,,,,,,,,,,,,,,,,,,,,,,,,,,,,,,
,,,,,,,,,,,,,,,,,60fddeb6dfaa94f6424e0916,19,2022-02-12_10h23.51.929,lexical_decision_task_DD_L6,2021.2.3,MacIntel,62.5,,,,,,,,,,,0.579,1,,,,,,,,,,,,,,,z,1,0.579,,,,,,,,0.098250336,-0.424629879,0,0,0,,0,50,50,113,1,LINEW,LB,z,z,./images/LINEWLB.png,,,,,,,,,,,,,,,,,,,,,,,,,,,,,,,,,,
,,,,,,,,,,,,,,,,,60fddeb6dfaa94f6424e0916,19,2022-02-12_10h23.51.929,lexical_decision_task_DD_L6,2021.2.3,MacIntel,62.5,,,,,,,,,,,0.512,1,,,,,,,,,,,,,,,m,1,0.512,,,,,,,,0.098250336,-0.424629879,0,0,0,,0,51,51,50,1,PILOT,HB,m,m,./images/PILOTHB.png,,,,,,,,,,,,,,,,,,,,,,,,,,,,,,,,,,
,,,,,,,,,,,,,,,,,60fddeb6dfaa94f6424e0916,19,2022-02-12_10h23.51.929,lexical_decision_task_DD_L6,2021.2.3,MacIntel,62.5,,,,,,,,,,,0.38,1,,,,,,,,,,,,,,,z,1,0.38,,,,,,,,0.098250336,-0.424629879,0,0,0,,0,52,52,90,1,NEAST,C,z,z,./images/NEAST.png,,,,,,,,,,,,,,,,,,,,,,,,,,,,,,,,,,
,,,,,,,,,,,,,,,,,60fddeb6dfaa94f6424e0916,19,2022-02-12_10h23.51.929,lexical_decision_task_DD_L6,2021.2.3,MacIntel,62.5,,,,,,,,,,,0.53,1,,,,,,,,,,,,,,,m,1,0.53,,,,,,,,0.098250336,-0.424629879,0,0,0,,0,53,53,35,1,LLAMA,HB,m,m,./images/LLAMAHB.png,,,,,,,,,,,,,,,,,,,,,,,,,,,,,,,,,,
,,,,,,,,,,,,,,,,,60fddeb6dfaa94f6424e0916,19,2022-02-12_10h23.51.929,lexical_decision_task_DD_L6,2021.2.3,MacIntel,62.5,,,,,,,,,,,0.523,1,,,,,,,,,,,,,,,m,1,0.523,,,,,,,,0.098250336,-0.424629879,0,0,0,,0,54,54,44,1,BASKET,HB,m,m,./images/BASKETHB.png,,,,,,,,,,,,,,,,,,,,,,,,,,,,,,,,,,
,,,,,,,,,,,,,,,,,60fddeb6dfaa94f6424e0916,19,2022-02-12_10h23.51.929,lexical_decision_task_DD_L6,2021.2.3,MacIntel,62.5,,,,,,,,,,,0.496,1,,,,,,,,,,,,,,,m,1,0.496,,,,,,,,0.098250336,-0.424629879,0,0,0,,0,55,55,32,1,HOCKEY,HB,m,m,./images/HOCKEYHB.png,,,,,,,,,,,,,,,,,,,,,,,,,,,,,,,,,,
,,,,,,,,,,,,,,,,,60fddeb6dfaa94f6424e0916,19,2022-02-12_10h23.51.929,lexical_decision_task_DD_L6,2021.2.3,MacIntel,62.5,,,,,,,,,,,0.66,1,,,,,,,,,,,,,,,m,1,0.66,,,,,,,,0.098250336,-0.424629879,0,0,0,,0,56,56,20,1,GRANNY,HB,m,m,./images/GRANNYHB.png,,,,,,,,,,,,,,,,,,,,,,,,,,,,,,,,,,
,,,,,,,,,,,,,,,,,60fddeb6dfaa94f6424e0916,19,2022-02-12_10h23.51.929,lexical_decision_task_DD_L6,2021.2.3,MacIntel,62.5,,,,,,,,,,,0.495,1,,,,,,,,,,,,,,,m,1,0.495,,,,,,,,0.098250336,-0.424629879,0,0,0,,0,57,57,31,1,STEAK,C,m,m,./images/STEAK.png,,,,,,,,,,,,,,,,,,,,,,,,,,,,,,,,,,
,,,,,,,,,,,,,,,,,60fddeb6dfaa94f6424e0916,19,2022-02-12_10h23.51.929,lexical_decision_task_DD_L6,2021.2.3,MacIntel,62.5,,,,,,,,,,,0.533,1,,,,,,,,,,,,,,,m,1,0.533,,,,,,,,0.098250336,-0.424629879,0,0,0,,0,58,58,19,1,DONKEY,C,m,m,./images/DONKEY.png,,,,,,,,,,,,,,,,,,,,,,,,,,,,,,,,,,
,,,,,,,,,,,,,,,,,60fddeb6dfaa94f6424e0916,19,2022-02-12_10h23.51.929,lexical_decision_task_DD_L6,2021.2.3,MacIntel,62.5,,,,,,,,,,,0.447,1,,,,,,,,,,,,,,,m,1,0.447,,,,,,,,0.098250336,-0.424629879,0,0,0,,0,59,59,72,1,FLASK,LB,m,m,./images/FLASKLB.png,,,,,,,,,,,,,,,,,,,,,,,,,,,,,,,,,,
,,,,,,,,,,,,,,,,,60fddeb6dfaa94f6424e0916,19,2022-02-12_10h23.51.929,lexical_decision_task_DD_L6,2021.2.3,MacIntel,62.5,,,,,,,,,,,0.515,1,,,,,,,,,,,,,,,z,1,0.515,,,,,,,,0.098250336,-0.424629879,0,0,0,,0,60,60,164,1,SGREW,LB,z,z,./images/SGREWLB.png,,,,,,,,,,,,,,,,,,,,,,,,,,,,,,,,,,
,,,,,,,,,,,,,,,,,60fddeb6dfaa94f6424e0916,19,2022-02-12_10h23.51.929,lexical_decision_task_DD_L6,2021.2.3,MacIntel,62.5,,,,,,,,,,,0.43,1,,,,,,,,,,,,,,,m,1,0.43,,,,,,,,0.098250336,-0.424629879,0,0,0,,0,61,61,37,1,TIGER,C,m,m,./images/TIGER.png,,,,,,,,,,,,,,,,,,,,,,,,,,,,,,,,,,
,,,,,,,,,,,,,,,,,60fddeb6dfaa94f6424e0916,19,2022-02-12_10h23.51.929,lexical_decision_task_DD_L6,2021.2.3,MacIntel,62.5,,,,,,,,,,,0.551,1,,,,,,,,,,,,,,,z,1,0.551,,,,,,,,0.098250336,-0.424629879,0,0,0,,0,62,62,161,1,BLAPS,LB,z,z,./images/BLAPSLB.png,,,,,,,,,,,,,,,,,,,,,,,,,,,,,,,,,,
,,,,,,,,,,,,,,,,,60fddeb6dfaa94f6424e0916,19,2022-02-12_10h23.51.929,lexical_decision_task_DD_L6,2021.2.3,MacIntel,62.5,,,,,,,,,,,0.512,1,,,,,,,,,,,,,,,m,1,0.512,,,,,,,,0.098250336,-0.424629879,0,0,0,,0,63,63,55,1,ALLEY,C,m,m,./images/ALLEY.png,,,,,,,,,,,,,,,,,,,,,,,,,,,,,,,,,,
,,,,,,,,,,,,,,,,,60fddeb6dfaa94f6424e0916,19,2022-02-12_10h23.51.929,lexical_decision_task_DD_L6,2021.2.3,MacIntel,62.5,,,,,,,,,,,0.392,1,,,,,,,,,,,,,,,m,1,0.392,,,,,,,,0.098250336,-0.424629879,0,0,0,,0,64,64,43,1,STOOL,C,m,m,./images/STOOL.png,,,,,,,,,,,,,,,,,,,,,,,,,,,,,,,,,,
,,,,,,,,,,,,,,,,,60fddeb6dfaa94f6424e0916,19,2022-02-12_10h23.51.929,lexical_decision_task_DD_L6,2021.2.3,MacIntel,62.5,,,,,,,,,,,0.577,1,,,,,,,,,,,,,,,z,1,0.577,,,,,,,,0.098250336,-0.424629879,0,0,0,,0,65,65,148,1,JOMS,HB,z,z,./images/JOMSHB.png,,,,,,,,,,,,,,,,,,,,,,,,,,,,,,,,,,
,,,,,,,,,,,,,,,,,60fddeb6dfaa94f6424e0916,19,2022-02-12_10h23.51.929,lexical_decision_task_DD_L6,2021.2.3,MacIntel,62.5,,,,,,,,,,,0.506,1,,,,,,,,,,,,,,,m,1,0.506,,,,,,,,0.098250336,-0.424629879,0,0,0,,0,66,66,9,1,DIVER,LB,m,m,./images/DIVERLB.png,,,,,,,,,,,,,,,,,,,,,,,,,,,,,,,,,,
,,,,,,,,,,,,,,,,,60fddeb6dfaa94f6424e0916,19,2022-02-12_10h23.51.929,lexical_decision_task_DD_L6,2021.2.3,MacIntel,62.5,,,,,,,,,,,0.572,1,,,,,,,,,,,,,,,m,1,0.572,,,,,,,,0.098250336,-0.424629879,0,0,0,,0,67,67,2,1,STOVE,HB,m,m,./images/STOVEHB.png,,,,,,,,,,,,,,,,,,,,,,,,,,,,,,,,,,
,,,,,,,,,,,,,,,,,60fddeb6dfaa94f6424e0916,19,2022-02-12_10h23.51.929,lexical_decision_task_DD_L6,2021.2.3,MacIntel,62.5,,,,,,,,,,,0.423,1,,,,,,,,,,,,,,,m,1,0.423,,,,,,,,0.098250336,-0.424629879,0,0,0,,0,68,68,75,1,HAMMER,LB,m,m,./images/HAMMERLB.png,,,,,,,,,,,,,,,,,,,,,,,,,,,,,,,,,,
,,,,,,,,,,,,,,,,,60fddeb6dfaa94f6424e0916,19,2022-02-12_10h23.51.929,lexical_decision_task_DD_L6,2021.2.3,MacIntel,62.5,,,,,,,,,,,0.532,1,,,,,,,,,,,,,,,m,1,0.532,,,,,,,,0.098250336,-0.424629879,0,0,0,,0,69,69,62,1,MAMMAL,HB,m,m,./images/MAMMALHB.png,,,,,,,,,,,,,,,,,,,,,,,,,,,,,,,,,,
,,,,,,,,,,,,,,,,,60fddeb6dfaa94f6424e0916,19,2022-02-12_10h23.51.929,lexical_decision_task_DD_L6,2021.2.3,MacIntel,62.5,,,,,,,,,,,0.622,0,,,,,,,,,,,,,,,z,0,0.622,,,,,,,,0.098250336,-0.424629879,0,0,0,,0,70,70,38,1,ENGINE,HB,m,m,./images/ENGINEHB.png,,,,,,,,,,,,,,,,,,,,,,,,,,,,,,,,,,
,,,,,,,,,,,,,,,,,60fddeb6dfaa94f6424e0916,19,2022-02-12_10h23.51.929,lexical_decision_task_DD_L6,2021.2.3,MacIntel,62.5,,,,,,,,,,,0.714,1,,,,,,,,,,,,,,,z,1,0.714,,,,,,,,0.098250336,-0.424629879,0,0,0,,0,71,71,105,1,MOKER,C,z,z,./images/MOKER.png,,,,,,,,,,,,,,,,,,,,,,,,,,,,,,,,,,
,,,,,,,,,,,,,,,,,60fddeb6dfaa94f6424e0916,19,2022-02-12_10h23.51.929,lexical_decision_task_DD_L6,2021.2.3,MacIntel,62.5,,,,,,,,,,,0.422,1,,,,,,,,,,,,,,,m,1,0.422,,,,,,,,0.098250336,-0.424629879,0,0,0,,0,72,72,1,1,TOWEL,C,m,m,./images/TOWEL.png,,,,,,,,,,,,,,,,,,,,,,,,,,,,,,,,,,
,,,,,,,,,,,,,,,,,60fddeb6dfaa94f6424e0916,19,2022-02-12_10h23.51.929,lexical_decision_task_DD_L6,2021.2.3,MacIntel,62.5,,,,,,,,,,,0.607,1,,,,,,,,,,,,,,,z,1,0.607,,,,,,,,0.098250336,-0.424629879,0,0,0,,0,73,73,94,1,BLANS,HB,z,z,./images/BLANSHB.png,,,,,,,,,,,,,,,,,,,,,,,,,,,,,,,,,,
,,,,,,,,,,,,,,,,,60fddeb6dfaa94f6424e0916,19,2022-02-12_10h23.51.929,lexical_decision_task_DD_L6,2021.2.3,MacIntel,62.5,,,,,,,,,,,0.712,1,,,,,,,,,,,,,,,z,1,0.712,,,,,,,,0.098250336,-0.424629879,0,0,0,,0,74,74,97,1,CHIDS,HB,z,z,./images/CHIDSHB.png,,,,,,,,,,,,,,,,,,,,,,,,,,,,,,,,,,
,,,,,,,,,,,,,,,,,60fddeb6dfaa94f6424e0916,19,2022-02-12_10h23.51.929,lexical_decision_task_DD_L6,2021.2.3,MacIntel,62.5,,,,,,,,,,,0.513,1,,,,,,,,,,,,,,,m,1,0.513,,,,,,,,0.098250336,-0.424629879,0,0,0,,0,75,75,63,1,BAKER,LB,m,m,./images/BAKERLB.png,,,,,,,,,,,,,,,,,,,,,,,,,,,,,,,,,,
,,,,,,,,,,,,,,,,,60fddeb6dfaa94f6424e0916,19,2022-02-12_10h23.51.929,lexical_decision_task_DD_L6,2021.2.3,MacIntel,62.5,,,,,,,,,,,0.547,1,,,,,,,,,,,,,,,m,1,0.547,,,,,,,,0.098250336,-0.424629879,0,0,0,,0,76,76,10,1,GARDEN,C,m,m,./images/GARDEN.png,,,,,,,,,,,,,,,,,,,,,,,,,,,,,,,,,,
,,,,,,,,,,,,,,,,,60fddeb6dfaa94f6424e0916,19,2022-02-12_10h23.51.929,lexical_decision_task_DD_L6,2021.2.3,MacIntel,62.5,,,,,,,,,,,0.74,1,,,,,,,,,,,,,,,z,1,0.74,,,,,,,,0.098250336,-0.424629879,0,0,0,,0,77,77,136,1,WERVE,HB,z,z,./images/WERVEHB.png,,,,,,,,,,,,,,,,,,,,,,,,,,,,,,,,,,
,,,,,,,,,,,,,,,,,60fddeb6dfaa94f6424e0916,19,2022-02-12_10h23.51.929,lexical_decision_task_DD_L6,2021.2.3,MacIntel,62.5,,,,,,,,,,,0.563,1,,,,,,,,,,,,,,,z,1,0.563,,,,,,,,0.098250336,-0.424629879,0,0,0,,0,78,78,93,1,SMONE,C,z,z,./images/SMONE.png,,,,,,,,,,,,,,,,,,,,,,,,,,,,,,,,,,
,,,,,,,,,,,,,,,,,60fddeb6dfaa94f6424e0916,19,2022-02-12_10h23.51.929,lexical_decision_task_DD_L6,2021.2.3,MacIntel,62.5,,,,,,,,,,,0.463,1,,,,,,,,,,,,,,,m,1,0.463,,,,,,,,0.098250336,-0.424629879,0,0,0,,0,79,79,81,1,DRILL,LB,m,m,./images/DRILLLB.png,,,,,,,,,,,,,,,,,,,,,,,,,,,,,,,,,,
,,,,,,,,,,,,,,,,,60fddeb6dfaa94f6424e0916,19,2022-02-12_10h23.51.929,lexical_decision_task_DD_L6,2021.2.3,MacIntel,62.5,,,,,,,,,,,0.541,1,,,,,,,,,,,,,,,z,1,0.541,,,,,,,,0.098250336,-0.424629879,0,0,0,,0,80,80,167,1,ZONET,LB,z,z,./images/ZONETLB.png,,,,,,,,,,,,,,,,,,,,,,,,,,,,,,,,,,
,,,,,,,,,,,,,,,,,60fddeb6dfaa94f6424e0916,19,2022-02-12_10h23.51.929,lexical_decision_task_DD_L6,2021.2.3,MacIntel,62.5,,,,,,,,,,,0.628,1,,,,,,,,,,,,,,,m,1,0.628,,,,,,,,0.098250336,-0.424629879,0,0,0,,0,81,81,4,1,BOXER,C,m,m,./images/BOXER.png,,,,,,,,,,,,,,,,,,,,,,,,,,,,,,,,,,
,,,,,,,,,,,,,,,,,60fddeb6dfaa94f6424e0916,19,2022-02-12_10h23.51.929,lexical_decision_task_DD_L6,2021.2.3,MacIntel,62.5,,,,,,,,,,,0.553,1,,,,,,,,,,,,,,,z,1,0.553,,,,,,,,0.098250336,-0.424629879,0,0,0,,0,82,82,128,1,GRIFT,LB,z,z,./images/GRIFTLB.png,,,,,,,,,,,,,,,,,,,,,,,,,,,,,,,,,,
,,,,,,,,,,,,,,,,,60fddeb6dfaa94f6424e0916,19,2022-02-12_10h23.51.929,lexical_decision_task_DD_L6,2021.2.3,MacIntel,62.5,,,,,,,,,,,0.601,1,,,,,,,,,,,,,,,m,1,0.601,,,,,,,,0.098250336,-0.424629879,0,0,0,space,0,83,83,0,1,WALNUT,LB,m,m,./images/WALNUTLB.png,0.716,,,,,,,,,,,,,,,,,,,,,,,,,,,,,,,,,
,,,,,,,,,,,,,,,,,60fddeb6dfaa94f6424e0916,19,2022-02-12_10h23.51.929,lexical_decision_task_DD_L6,2021.2.3,MacIntel,62.5,,,,,,,,,,,0.458,1,,,,,,,,,,,,,,,m,1,0.458,,,,,,,,0.098250336,-0.424629879,0,0,0,,0,84,84,16,1,GRAPE,C,m,m,./images/GRAPE.png,,,,,,,,,,,,,,,,,,,,,,,,,,,,,,,,,,
,,,,,,,,,,,,,,,,,60fddeb6dfaa94f6424e0916,19,2022-02-12_10h23.51.929,lexical_decision_task_DD_L6,2021.2.3,MacIntel,62.5,,,,,,,,,,,0.823,1,,,,,,,,,,,,,,,z,1,0.823,,,,,,,,0.098250336,-0.424629879,0,0,0,,0,85,85,145,1,LAMEL,HB,z,z,./images/LAMELHB.png,,,,,,,,,,,,,,,,,,,,,,,,,,,,,,,,,,
,,,,,,,,,,,,,,,,,60fddeb6dfaa94f6424e0916,19,2022-02-12_10h23.51.929,lexical_decision_task_DD_L6,2021.2.3,MacIntel,62.5,,,,,,,,,,,0.464,0,,,,,,,,,,,,,,,z,0,0.464,,,,,,,,0.098250336,-0.424629879,0,0,0,,0,86,86,12,1,BLOKE,LB,m,m,./images/BLOKELB.png,,,,,,,,,,,,,,,,,,,,,,,,,,,,,,,,,,
,,,,,,,,,,,,,,,,,60fddeb6dfaa94f6424e0916,19,2022-02-12_10h23.51.929,lexical_decision_task_DD_L6,2021.2.3,MacIntel,62.5,,,,,,,,,,,0.575,1,,,,,,,,,,,,,,,z,1,0.575,,,,,,,,0.098250336,-0.424629879,0,0,0,,0,87,87,119,1,PAFER,LB,z,z,./images/PAFERLB.png,,,,,,,,,,,,,,,,,,,,,,,,,,,,,,,,,,
,,,,,,,,,,,,,,,,,60fddeb6dfaa94f6424e0916,19,2022-02-12_10h23.51.929,lexical_decision_task_DD_L6,2021.2.3,MacIntel,62.5,,,,,,,,,,,0.445,1,,,,,,,,,,,,,,,m,1,0.445,,,,,,,,0.098250336,-0.424629879,0,0,0,,0,88,88,39,1,CANDY,LB,m,m,./images/CANDYLB.png,,,,,,,,,,,,,,,,,,,,,,,,,,,,,,,,,,
,,,,,,,,,,,,,,,,,60fddeb6dfaa94f6424e0916,19,2022-02-12_10h23.51.929,lexical_decision_task_DD_L6,2021.2.3,MacIntel,62.5,,,,,,,,,,,0.512,1,,,,,,,,,,,,,,,z,1,0.512,,,,,,,,0.098250336,-0.424629879,0,0,0,,0,89,89,137,1,JOOST,LB,z,z,./images/JOOSTLB.png,,,,,,,,,,,,,,,,,,,,,,,,,,,,,,,,,,
,,,,,,,,,,,,,,,,,60fddeb6dfaa94f6424e0916,19,2022-02-12_10h23.51.929,lexical_decision_task_DD_L6,2021.2.3,MacIntel,62.5,,,,,,,,,,,0.812,1,,,,,,,,,,,,,,,m,1,0.812,,,,,,,,0.098250336,-0.424629879,0,0,0,,0,90,90,49,1,BISHOP,C,m,m,./images/BISHOP.png,,,,,,,,,,,,,,,,,,,,,,,,,,,,,,,,,,
,,,,,,,,,,,,,,,,,60fddeb6dfaa94f6424e0916,19,2022-02-12_10h23.51.929,lexical_decision_task_DD_L6,2021.2.3,MacIntel,62.5,,,,,,,,,,,0.607,1,,,,,,,,,,,,,,,z,1,0.607,,,,,,,,0.098250336,-0.424629879,0,0,0,,0,91,91,104,1,GITTY,LB,z,z,./images/GITTYLB.png,,,,,,,,,,,,,,,,,,,,,,,,,,,,,,,,,,
,,,,,,,,,,,,,,,,,60fddeb6dfaa94f6424e0916,19,2022-02-12_10h23.51.929,lexical_decision_task_DD_L6,2021.2.3,MacIntel,62.5,,,,,,,,,,,0.672,1,,,,,,,,,,,,,,,m,1,0.672,,,,,,,,0.098250336,-0.424629879,0,0,0,,0,92,92,14,1,FENCE,HB,m,m,./images/FENCEHB.png,,,,,,,,,,,,,,,,,,,,,,,,,,,,,,,,,,
,,,,,,,,,,,,,,,,,60fddeb6dfaa94f6424e0916,19,2022-02-12_10h23.51.929,lexical_decision_task_DD_L6,2021.2.3,MacIntel,62.5,,,,,,,,,,,0.595,1,,,,,,,,,,,,,,,z,1,0.595,,,,,,,,0.098250336,-0.424629879,0,0,0,,0,93,93,124,1,TUNCH,HB,z,z,./images/TUNCHHB.png,,,,,,,,,,,,,,,,,,,,,,,,,,,,,,,,,,
,,,,,,,,,,,,,,,,,60fddeb6dfaa94f6424e0916,19,2022-02-12_10h23.51.929,lexical_decision_task_DD_L6,2021.2.3,MacIntel,62.5,,,,,,,,,,,0.497,1,,,,,,,,,,,,,,,m,1,0.497,,,,,,,,0.098250336,-0.424629879,0,0,0,,0,94,94,56,1,HEATER,HB,m,m,./images/HEATERHB.png,,,,,,,,,,,,,,,,,,,,,,,,,,,,,,,,,,
,,,,,,,,,,,,,,,,,60fddeb6dfaa94f6424e0916,19,2022-02-12_10h23.51.929,lexical_decision_task_DD_L6,2021.2.3,MacIntel,62.5,,,,,,,,,,,0.48,1,,,,,,,,,,,,,,,m,1,0.48,,,,,,,,0.098250336,-0.424629879,0,0,0,,0,95,95,5,1,BAMBOO,HB,m,m,./images/BAMBOOHB.png,,,,,,,,,,,,,,,,,,,,,,,,,,,,,,,,,,
,,,,,,,,,,,,,,,,,60fddeb6dfaa94f6424e0916,19,2022-02-12_10h23.51.929,lexical_decision_task_DD_L6,2021.2.3,MacIntel,62.5,,,,,,,,,,,0.481,1,,,,,,,,,,,,,,,z,1,0.481,,,,,,,,0.098250336,-0.424629879,0,0,0,,0,96,96,86,1,AIFED,LB,z,z,./images/AIFEDLB.png,,,,,,,,,,,,,,,,,,,,,,,,,,,,,,,,,,
,,,,,,,,,,,,,,,,,60fddeb6dfaa94f6424e0916,19,2022-02-12_10h23.51.929,lexical_decision_task_DD_L6,2021.2.3,MacIntel,62.5,,,,,,,,,,,0.407,1,,,,,,,,,,,,,,,m,1,0.407,,,,,,,,0.098250336,-0.424629879,0,0,0,,0,97,97,30,1,SLOPE,LB,m,m,./images/SLOPELB.png,,,,,,,,,,,,,,,,,,,,,,,,,,,,,,,,,,
,,,,,,,,,,,,,,,,,60fddeb6dfaa94f6424e0916,19,2022-02-12_10h23.51.929,lexical_decision_task_DD_L6,2021.2.3,MacIntel,62.5,,,,,,,,,,,0.477,0,,,,,,,,,,,,,,,m,0,0.477,,,,,,,,0.098250336,-0.424629879,0,0,0,,0,98,98,146,1,MOOST,LB,z,z,./images/MOOSTLB.png,,,,,,,,,,,,,,,,,,,,,,,,,,,,,,,,,,
,,,,,,,,,,,,,,,,,60fddeb6dfaa94f6424e0916,19,2022-02-12_10h23.51.929,lexical_decision_task_DD_L6,2021.2.3,MacIntel,62.5,,,,,,,,,,,0.484,1,,,,,,,,,,,,,,,m,1,0.484,,,,,,,,0.098250336,-0.424629879,0,0,0,,0,99,99,45,1,MONKEY,LB,m,m,./images/MONKEYLB.png,,,,,,,,,,,,,,,,,,,,,,,,,,,,,,,,,,
,,,,,,,,,,,,,,,,,60fddeb6dfaa94f6424e0916,19,2022-02-12_10h23.51.929,lexical_decision_task_DD_L6,2021.2.3,MacIntel,62.5,,,,,,,,,,,0.465,1,,,,,,,,,,,,,,,z,1,0.465,,,,,,,,0.098250336,-0.424629879,0,0,0,,0,100,100,153,1,CLUPS,C,z,z,./images/CLUPS.png,,,,,,,,,,,,,,,,,,,,,,,,,,,,,,,,,,
,,,,,,,,,,,,,,,,,60fddeb6dfaa94f6424e0916,19,2022-02-12_10h23.51.929,lexical_decision_task_DD_L6,2021.2.3,MacIntel,62.5,,,,,,,,,,,0.527,1,,,,,,,,,,,,,,,z,1,0.527,,,,,,,,0.098250336,-0.424629879,0,0,0,,0,101,101,107,1,FASKS,LB,z,z,./images/FASKSLB.png,,,,,,,,,,,,,,,,,,,,,,,,,,,,,,,,,,
,,,,,,,,,,,,,,,,,60fddeb6dfaa94f6424e0916,19,2022-02-12_10h23.51.929,lexical_decision_task_DD_L6,2021.2.3,MacIntel,62.5,,,,,,,,,,,0.464,1,,,,,,,,,,,,,,,m,1,0.464,,,,,,,,0.098250336,-0.424629879,0,0,0,,0,102,102,13,1,BUNNY,C,m,m,./images/BUNNY.png,,,,,,,,,,,,,,,,,,,,,,,,,,,,,,,,,,
,,,,,,,,,,,,,,,,,60fddeb6dfaa94f6424e0916,19,2022-02-12_10h23.51.929,lexical_decision_task_DD_L6,2021.2.3,MacIntel,62.5,,,,,,,,,,,0.481,1,,,,,,,,,,,,,,,m,1,0.481,,,,,,,,0.098250336,-0.424629879,0,0,0,,0,103,103,25,1,CHALK,C,m,m,./images/CHALK.png,,,,,,,,,,,,,,,,,,,,,,,,,,,,,,,,,,
,,,,,,,,,,,,,,,,,60fddeb6dfaa94f6424e0916,19,2022-02-12_10h23.51.929,lexical_decision_task_DD_L6,2021.2.3,MacIntel,62.5,,,,,,,,,,,0.597,1,,,,,,,,,,,,,,,z,1,0.597,,,,,,,,0.098250336,-0.424629879,0,0,0,,0,104,104,101,1,GLEET,LB,z,z,./images/GLEETLB.png,,,,,,,,,,,,,,,,,,,,,,,,,,,,,,,,,,
,,,,,,,,,,,,,,,,,60fddeb6dfaa94f6424e0916,19,2022-02-12_10h23.51.929,lexical_decision_task_DD_L6,2021.2.3,MacIntel,62.5,,,,,,,,,,,0.723,1,,,,,,,,,,,,,,,z,1,0.723,,,,,,,,0.098250336,-0.424629879,0,0,0,,0,105,105,157,1,INLER,HB,z,z,./images/INLERHB.png,,,,,,,,,,,,,,,,,,,,,,,,,,,,,,,,,,
,,,,,,,,,,,,,,,,,60fddeb6dfaa94f6424e0916,19,2022-02-12_10h23.51.929,lexical_decision_task_DD_L6,2021.2.3,MacIntel,62.5,,,,,,,,,,,0.492,1,,,,,,,,,,,,,,,z,1,0.492,,,,,,,,0.098250336,-0.424629879,0,0,0,,0,106,106,123,1,SEDGE,C,z,z,./images/SEDGE.png,,,,,,,,,,,,,,,,,,,,,,,,,,,,,,,,,,
,,,,,,,,,,,,,,,,,60fddeb6dfaa94f6424e0916,19,2022-02-12_10h23.51.929,lexical_decision_task_DD_L6,2021.2.3,MacIntel,62.5,,,,,,,,,,,0.662,1,,,,,,,,,,,,,,,m,1,0.662,,,,,,,,0.098250336,-0.424629879,0,0,0,,0,107,107,68,1,VALLEY,HB,m,m,./images/VALLEYHB.png,,,,,,,,,,,,,,,,,,,,,,,,,,,,,,,,,,
,,,,,,,,,,,,,,,,,60fddeb6dfaa94f6424e0916,19,2022-02-12_10h23.51.929,lexical_decision_task_DD_L6,2021.2.3,MacIntel,62.5,,,,,,,,,,,0.462,1,,,,,,,,,,,,,,,z,1,0.462,,,,,,,,0.098250336,-0.424629879,0,0,0,,0,108,108,125,1,MOOKY,LB,z,z,./images/MOOKYLB.png,,,,,,,,,,,,,,,,,,,,,,,,,,,,,,,,,,
,,,,,,,,,,,,,,,,,60fddeb6dfaa94f6424e0916,19,2022-02-12_10h23.51.929,lexical_decision_task_DD_L6,2021.2.3,MacIntel,62.5,,,,,,,,,,,0.607,1,,,,,,,,,,,,,,,z,1,0.607,,,,,,,,0.098250336,-0.424629879,0,0,0,,0,109,109,96,1,KEAMS,C,z,z,./images/KEAMS.png,,,,,,,,,,,,,,,,,,,,,,,,,,,,,,,,,,
,,,,,,,,,,,,,,,,,60fddeb6dfaa94f6424e0916,19,2022-02-12_10h23.51.929,lexical_decision_task_DD_L6,2021.2.3,MacIntel,62.5,,,,,,,,,,,0.446,1,,,,,,,,,,,,,,,z,1,0.446,,,,,,,,0.098250336,-0.424629879,0,0,0,,0,110,110,120,1,RINED,C,z,z,./images/RINED.png,,,,,,,,,,,,,,,,,,,,,,,,,,,,,,,,,,
,,,,,,,,,,,,,,,,,60fddeb6dfaa94f6424e0916,19,2022-02-12_10h23.51.929,lexical_decision_task_DD_L6,2021.2.3,MacIntel,62.5,,,,,,,,,,,0.397,0,,,,,,,,,,,,,,,z,0,0.397,,,,,,,,0.098250336,-0.424629879,0,0,0,,0,111,111,57,1,FERRY,LB,m,m,./images/FERRYLB.png,,,,,,,,,,,,,,,,,,,,,,,,,,,,,,,,,,
,,,,,,,,,,,,,,,,,60fddeb6dfaa94f6424e0916,19,2022-02-12_10h23.51.929,lexical_decision_task_DD_L6,2021.2.3,MacIntel,62.5,,,,,,,,,,,0.625,1,,,,,,,,,,,,,,,m,1,0.625,,,,,,,,0.098250336,-0.424629879,0,0,0,,0,112,112,36,1,BOILER,LB,m,m,./images/BOILERLB.png,,,,,,,,,,,,,,,,,,,,,,,,,,,,,,,,,,
,,,,,,,,,,,,,,,,,60fddeb6dfaa94f6424e0916,19,2022-02-12_10h23.51.929,lexical_decision_task_DD_L6,2021.2.3,MacIntel,62.5,,,,,,,,,,,0.55,1,,,,,,,,,,,,,,,z,1,0.55,,,,,,,,0.098250336,-0.424629879,0,0,0,,0,113,113,110,1,CRUNK,LB,z,z,./images/CRUNKLB.png,,,,,,,,,,,,,,,,,,,,,,,,,,,,,,,,,,
,,,,,,,,,,,,,,,,,60fddeb6dfaa94f6424e0916,19,2022-02-12_10h23.51.929,lexical_decision_task_DD_L6,2021.2.3,MacIntel,62.5,,,,,,,,,,,0.445,1,,,,,,,,,,,,,,,z,1,0.445,,,,,,,,0.098250336,-0.424629879,0,0,0,,0,114,114,87,1,TRING,C,z,z,./images/TRING.png,,,,,,,,,,,,,,,,,,,,,,,,,,,,,,,,,,
,,,,,,,,,,,,,,,,,60fddeb6dfaa94f6424e0916,19,2022-02-12_10h23.51.929,lexical_decision_task_DD_L6,2021.2.3,MacIntel,62.5,,,,,,,,,,,0.524,1,,,,,,,,,,,,,,,m,1,0.524,,,,,,,,0.098250336,-0.424629879,0,0,0,,0,115,115,73,1,GLOVE,C,m,m,./images/GLOVE.png,,,,,,,,,,,,,,,,,,,,,,,,,,,,,,,,,,
,,,,,,,,,,,,,,,,,60fddeb6dfaa94f6424e0916,19,2022-02-12_10h23.51.929,lexical_decision_task_DD_L6,2021.2.3,MacIntel,62.5,,,,,,,,,,,0.542,1,,,,,,,,,,,,,,,z,1,0.542,,,,,,,,0.098250336,-0.424629879,0,0,0,,0,116,116,103,1,FLORT,HB,z,z,./images/FLORTHB.png,,,,,,,,,,,,,,,,,,,,,,,,,,,,,,,,,,
,,,,,,,,,,,,,,,,,60fddeb6dfaa94f6424e0916,19,2022-02-12_10h23.51.929,lexical_decision_task_DD_L6,2021.2.3,MacIntel,62.5,,,,,,,,,,,0.656,1,,,,,,,,,,,,,,,m,1,0.656,,,,,,,,0.098250336,-0.424629879,0,0,0,,0,117,117,3,1,CRATER,LB,m,m,./images/CRATERLB.png,,,,,,,,,,,,,,,,,,,,,,,,,,,,,,,,,,
,,,,,,,,,,,,,,,,,60fddeb6dfaa94f6424e0916,19,2022-02-12_10h23.51.929,lexical_decision_task_DD_L6,2021.2.3,MacIntel,62.5,,,,,,,,,,,0.523,1,,,,,,,,,,,,,,,z,1,0.523,,,,,,,,0.098250336,-0.424629879,0,0,0,,0,118,118,140,1,DOVET,LB,z,z,./images/DOVETLB.png,,,,,,,,,,,,,,,,,,,,,,,,,,,,,,,,,,
,,,,,,,,,,,,,,,,,60fddeb6dfaa94f6424e0916,19,2022-02-12_10h23.51.929,lexical_decision_task_DD_L6,2021.2.3,MacIntel,62.5,,,,,,,,,,,0.875,0,,,,,,,,,,,,,,,z,0,0.875,,,,,,,,0.098250336,-0.424629879,0,0,0,,0,119,119,80,1,PLANET,HB,m,m,./images/PLANETHB.png,,,,,,,,,,,,,,,,,,,,,,,,,,,,,,,,,,
,,,,,,,,,,,,,,,,,60fddeb6dfaa94f6424e0916,19,2022-02-12_10h23.51.929,lexical_decision_task_DD_L6,2021.2.3,MacIntel,62.5,,,,,,,,,,,0.857,1,,,,,,,,,,,,,,,z,1,0.857,,,,,,,,0.098250336,-0.424629879,0,0,0,,0,120,120,133,1,POWDY,HB,z,z,./images/POWDYHB.png,,,,,,,,,,,,,,,,,,,,,,,,,,,,,,,,,,
,,,,,,,,,,,,,,,,,60fddeb6dfaa94f6424e0916,19,2022-02-12_10h23.51.929,lexical_decision_task_DD_L6,2021.2.3,MacIntel,62.5,,,,,,,,,,,0.546,1,,,,,,,,,,,,,,,z,1,0.546,,,,,,,,0.098250336,-0.424629879,0,0,0,,0,121,121,129,1,PRANS,C,z,z,./images/PRANS.png,,,,,,,,,,,,,,,,,,,,,,,,,,,,,,,,,,
,,,,,,,,,,,,,,,,,60fddeb6dfaa94f6424e0916,19,2022-02-12_10h23.51.929,lexical_decision_task_DD_L6,2021.2.3,MacIntel,62.5,,,,,,,,,,,0.56,1,,,,,,,,,,,,,,,z,1,0.56,,,,,,,,0.098250336,-0.424629879,0,0,0,,0,122,122,95,1,HANTY,LB,z,z,./images/HANTYLB.png,,,,,,,,,,,,,,,,,,,,,,,,,,,,,,,,,,
,,,,,,,,,,,,,,,,,60fddeb6dfaa94f6424e0916,19,2022-02-12_10h23.51.929,lexical_decision_task_DD_L6,2021.2.3,MacIntel,62.5,,,,,,,,,,,0.528,1,,,,,,,,,,,,,,,m,1,0.528,,,,,,,,0.098250336,-0.424629879,0,0,0,,0,123,123,47,1,LAGOON,HB,m,m,./images/LAGOONHB.png,,,,,,,,,,,,,,,,,,,,,,,,,,,,,,,,,,
,,,,,,,,,,,,,,,,,60fddeb6dfaa94f6424e0916,19,2022-02-12_10h23.51.929,lexical_decision_task_DD_L6,2021.2.3,MacIntel,62.5,,,,,,,,,,,0.496,1,,,,,,,,,,,,,,,z,1,0.496,,,,,,,,0.098250336,-0.424629879,0,0,0,,0,124,124,115,1,MAWNS,HB,z,z,./images/MAWNSHB.png,,,,,,,,,,,,,,,,,,,,,,,,,,,,,,,,,,
,,,,,,,,,,,,,,,,,60fddeb6dfaa94f6424e0916,19,2022-02-12_10h23.51.929,lexical_decision_task_DD_L6,2021.2.3,MacIntel,62.5,,,,,,,,,,,0.583,1,,,,,,,,,,,,,,,z,1,0.583,,,,,,,,0.242261104,-0.217362046,0,0,0,space,0,125,125,109,1,BURGE,HB,z,z,./images/BURGEHB.png,15.215,,,,,,,,,,,,,,,,,,,,,,,,,,,,,,,,,
,,,,,,,,,,,,,,,,,60fddeb6dfaa94f6424e0916,19,2022-02-12_10h23.51.929,lexical_decision_task_DD_L6,2021.2.3,MacIntel,62.5,,,,,,,,,,,0.478,1,,,,,,,,,,,,,,,z,1,0.478,,,,,,,,0.242261104,-0.217362046,0,0,0,,0,126,126,126,1,GUELS,C,z,z,./images/GUELS.png,,,,,,,,,,,,,,,,,,,,,,,,,,,,,,,,,,
,,,,,,,,,,,,,,,,,60fddeb6dfaa94f6424e0916,19,2022-02-12_10h23.51.929,lexical_decision_task_DD_L6,2021.2.3,MacIntel,62.5,,,,,,,,,,,0.495,0,,,,,,,,,,,,,,,z,0,0.495,,,,,,,,0.242261104,-0.217362046,0,0,0,,0,127,127,74,1,JUMPER,HB,m,m,./images/JUMPERHB.png,,,,,,,,,,,,,,,,,,,,,,,,,,,,,,,,,,
,,,,,,,,,,,,,,,,,60fddeb6dfaa94f6424e0916,19,2022-02-12_10h23.51.929,lexical_decision_task_DD_L6,2021.2.3,MacIntel,62.5,,,,,,,,,,,0.49,0,,,,,,,,,,,,,,,z,0,0.49,,,,,,,,0.242261104,-0.217362046,0,0,0,,0,128,128,53,1,POSTER,HB,m,m,./images/POSTERHB.png,,,,,,,,,,,,,,,,,,,,,,,,,,,,,,,,,,
,,,,,,,,,,,,,,,,,60fddeb6dfaa94f6424e0916,19,2022-02-12_10h23.51.929,lexical_decision_task_DD_L6,2021.2.3,MacIntel,62.5,,,,,,,,,,,0.645,1,,,,,,,,,,,,,,,z,1,0.645,,,,,,,,0.242261104,-0.217362046,0,0,0,,0,129,129,130,1,CRILL,HB,z,z,./images/CRILLHB.png,,,,,,,,,,,,,,,,,,,,,,,,,,,,,,,,,,
,,,,,,,,,,,,,,,,,60fddeb6dfaa94f6424e0916,19,2022-02-12_10h23.51.929,lexical_decision_task_DD_L6,2021.2.3,MacIntel,62.5,,,,,,,,,,,0.504,1,,,,,,,,,,,,,,,m,1,0.504,,,,,,,,0.242261104,-0.217362046,0,0,0,,0,130,130,41,1,STREAM,HB,m,m,./images/STREAMHB.png,,,,,,,,,,,,,,,,,,,,,,,,,,,,,,,,,,
,,,,,,,,,,,,,,,,,60fddeb6dfaa94f6424e0916,19,2022-02-12_10h23.51.929,lexical_decision_task_DD_L6,2021.2.3,MacIntel,62.5,,,,,,,,,,,0.499,1,,,,,,,,,,,,,,,m,1,0.499,,,,,,,,0.242261104,-0.217362046,0,0,0,,0,131,131,24,1,FLESH,LB,m,m,./images/FLESHLB.png,,,,,,,,,,,,,,,,,,,,,,,,,,,,,,,,,,
,,,,,,,,,,,,,,,,,60fddeb6dfaa94f6424e0916,19,2022-02-12_10h23.51.929,lexical_decision_task_DD_L6,2021.2.3,MacIntel,62.5,,,,,,,,,,,0.465,1,,,,,,,,,,,,,,,m,1,0.465,,,,,,,,0.242261104,-0.217362046,0,0,0,,0,132,132,40,1,SNAKE,C,m,m,./images/SNAKE.png,,,,,,,,,,,,,,,,,,,,,,,,,,,,,,,,,,
,,,,,,,,,,,,,,,,,60fddeb6dfaa94f6424e0916,19,2022-02-12_10h23.51.929,lexical_decision_task_DD_L6,2021.2.3,MacIntel,62.5,,,,,,,,,,,0.545,1,,,,,,,,,,,,,,,m,1,0.545,,,,,,,,0.242261104,-0.217362046,0,0,0,,0,133,133,23,1,CLOTH,HB,m,m,./images/CLOTHHB.png,,,,,,,,,,,,,,,,,,,,,,,,,,,,,,,,,,
,,,,,,,,,,,,,,,,,60fddeb6dfaa94f6424e0916,19,2022-02-12_10h23.51.929,lexical_decision_task_DD_L6,2021.2.3,MacIntel,62.5,,,,,,,,,,,0.898,1,,,,,,,,,,,,,,,m,1,0.898,,,,,,,,0.242261104,-0.217362046,0,0,0,,0,134,134,18,1,PARCEL,LB,m,m,./images/PARCELLB.png,,,,,,,,,,,,,,,,,,,,,,,,,,,,,,,,,,
,,,,,,,,,,,,,,,,,60fddeb6dfaa94f6424e0916,19,2022-02-12_10h23.51.929,lexical_decision_task_DD_L6,2021.2.3,MacIntel,62.5,,,,,,,,,,,0.479,1,,,,,,,,,,,,,,,m,1,0.479,,,,,,,,0.242261104,-0.217362046,0,0,0,,0,135,135,82,1,PEBBLE,C,m,m,./images/PEBBLE.png,,,,,,,,,,,,,,,,,,,,,,,,,,,,,,,,,,
,,,,,,,,,,,,,,,,,60fddeb6dfaa94f6424e0916,19,2022-02-12_10h23.51.929,lexical_decision_task_DD_L6,2021.2.3,MacIntel,62.5,,,,,,,,,,,0.481,1,,,,,,,,,,,,,,,m,1,0.481,,,,,,,,0.242261104,-0.217362046,0,0,0,,0,136,136,48,1,SHIELD,LB,m,m,./images/SHIELDLB.png,,,,,,,,,,,,,,,,,,,,,,,,,,,,,,,,,,
,,,,,,,,,,,,,,,,,60fddeb6dfaa94f6424e0916,19,2022-02-12_10h23.51.929,lexical_decision_task_DD_L6,2021.2.3,MacIntel,62.5,,,,,,,,,,,0.741,1,,,,,,,,,,,,,,,z,1,0.741,,,,,,,,0.242261104,-0.217362046,0,0,0,,0,137,137,122,1,BLOOT,LB,z,z,./images/BLOOTLB.png,,,,,,,,,,,,,,,,,,,,,,,,,,,,,,,,,,
,,,,,,,,,,,,,,,,,60fddeb6dfaa94f6424e0916,19,2022-02-12_10h23.51.929,lexical_decision_task_DD_L6,2021.2.3,MacIntel,62.5,,,,,,,,,,,0.532,1,,,,,,,,,,,,,,,m,1,0.532,,,,,,,,0.242261104,-0.217362046,0,0,0,,0,138,138,58,1,CANOE,C,m,m,./images/CANOE.png,,,,,,,,,,,,,,,,,,,,,,,,,,,,,,,,,,
,,,,,,,,,,,,,,,,,60fddeb6dfaa94f6424e0916,19,2022-02-12_10h23.51.929,lexical_decision_task_DD_L6,2021.2.3,MacIntel,62.5,,,,,,,,,,,0.574,1,,,,,,,,,,,,,,,m,1,0.574,,,,,,,,0.242261104,-0.217362046,0,0,0,,0,139,139,71,1,BUBBLE,HB,m,m,./images/BUBBLEHB.png,,,,,,,,,,,,,,,,,,,,,,,,,,,,,,,,,,
,,,,,,,,,,,,,,,,,60fddeb6dfaa94f6424e0916,19,2022-02-12_10h23.51.929,lexical_decision_task_DD_L6,2021.2.3,MacIntel,62.5,,,,,,,,,,,0.633,1,,,,,,,,,,,,,,,z,1,0.633,,,,,,,,0.242261104,-0.217362046,0,0,0,,0,140,140,114,1,RIKES,C,z,z,./images/RIKES.png,,,,,,,,,,,,,,,,,,,,,,,,,,,,,,,,,,
,,,,,,,,,,,,,,,,,60fddeb6dfaa94f6424e0916,19,2022-02-12_10h23.51.929,lexical_decision_task_DD_L6,2021.2.3,MacIntel,62.5,,,,,,,,,,,0.796,1,,,,,,,,,,,,,,,m,1,0.796,,,,,,,,0.242261104,-0.217362046,0,0,0,,0,141,141,22,1,CLOWN,C,m,m,./images/CLOWN.png,,,,,,,,,,,,,,,,,,,,,,,,,,,,,,,,,,
,,,,,,,,,,,,,,,,,60fddeb6dfaa94f6424e0916,19,2022-02-12_10h23.51.929,lexical_decision_task_DD_L6,2021.2.3,MacIntel,62.5,,,,,,,,,,,1.129,0,,,,,,,,,,,,,,,m,0,1.129,,,,,,,,0.242261104,-0.217362046,0,0,0,,0,142,142,142,1,PLASK,HB,z,z,./images/PLASKHB.png,,,,,,,,,,,,,,,,,,,,,,,,,,,,,,,,,,
,,,,,,,,,,,,,,,,,60fddeb6dfaa94f6424e0916,19,2022-02-12_10h23.51.929,lexical_decision_task_DD_L6,2021.2.3,MacIntel,62.5,,,,,,,,,,,0.513,1,,,,,,,,,,,,,,,m,1,0.513,,,,,,,,0.242261104,-0.217362046,0,0,0,,0,143,143,6,1,STAIN,LB,m,m,./images/STAINLB.png,,,,,,,,,,,,,,,,,,,,,,,,,,,,,,,,,,
,,,,,,,,,,,,,,,,,60fddeb6dfaa94f6424e0916,19,2022-02-12_10h23.51.929,lexical_decision_task_DD_L6,2021.2.3,MacIntel,62.5,,,,,,,,,,,0.547,1,,,,,,,,,,,,,,,z,1,0.547,,,,,,,,0.242261104,-0.217362046,0,0,0,,0,144,144,111,1,HOSSE,C,z,z,./images/HOSSE.png,,,,,,,,,,,,,,,,,,,,,,,,,,,,,,,,,,
,,,,,,,,,,,,,,,,,60fddeb6dfaa94f6424e0916,19,2022-02-12_10h23.51.929,lexical_decision_task_DD_L6,2021.2.3,MacIntel,62.5,,,,,,,,,,,0.692,1,,,,,,,,,,,,,,,m,1,0.692,,,,,,,,0.242261104,-0.217362046,0,0,0,,0,145,145,51,1,SAUCE,LB,m,m,./images/SAUCELB.png,,,,,,,,,,,,,,,,,,,,,,,,,,,,,,,,,,
,,,,,,,,,,,,,,,,,60fddeb6dfaa94f6424e0916,19,2022-02-12_10h23.51.929,lexical_decision_task_DD_L6,2021.2.3,MacIntel,62.5,,,,,,,,,,,0.66,1,,,,,,,,,,,,,,,z,1,0.66,,,,,,,,0.242261104,-0.217362046,0,0,0,,0,146,146,118,1,BAVEL,HB,z,z,./images/BAVELHB.png,,,,,,,,,,,,,,,,,,,,,,,,,,,,,,,,,,
,,,,,,,,,,,,,,,,,60fddeb6dfaa94f6424e0916,19,2022-02-12_10h23.51.929,lexical_decision_task_DD_L6,2021.2.3,MacIntel,62.5,,,,,,,,,,,2.981,1,,,,,,,,,,,,,,,z,1,2.981,,,,,,,,0.617765814,0.059892328,0,0,0,,0,147,147,152,1,FRAIN,LB,z,z,./images/FRAINLB.png,,,,,,,,,,,,,,,,,,,,,,,,,,,,,,,,,,
,,,,,,,,,,,,,,,,,60fddeb6dfaa94f6424e0916,19,2022-02-12_10h23.51.929,lexical_decision_task_DD_L6,2021.2.3,MacIntel,62.5,,,,,,,,,,,0.506,1,,,,,,,,,,,,,,,z,1,0.506,,,,,,,,-0.239569314,0.049125168,0,0,0,,0,148,148,159,1,CUDDY,C,z,z,./images/CUDDY.png,,,,,,,,,,,,,,,,,,,,,,,,,,,,,,,,,,
,,,,,,,,,,,,,,,,,60fddeb6dfaa94f6424e0916,19,2022-02-12_10h23.51.929,lexical_decision_task_DD_L6,2021.2.3,MacIntel,62.5,,,,,,,,,,,0.49,1,,,,,,,,,,,,,,,z,1,0.49,,,,,,,,-0.239569314,0.049125168,0,0,0,,0,149,149,134,1,TROSS,LB,z,z,./images/TROSSLB.png,,,,,,,,,,,,,,,,,,,,,,,,,,,,,,,,,,
,,,,,,,,,,,,,,,,,60fddeb6dfaa94f6424e0916,19,2022-02-12_10h23.51.929,lexical_decision_task_DD_L6,2021.2.3,MacIntel,62.5,,,,,,,,,,,0.464,1,,,,,,,,,,,,,,,z,1,0.464,,,,,,,,-0.239569314,0.049125168,0,0,0,,0,150,150,98,1,BAMPS,LB,z,z,./images/BAMPSLB.png,,,,,,,,,,,,,,,,,,,,,,,,,,,,,,,,,,
,,,,,,,,,,,,,,,,,60fddeb6dfaa94f6424e0916,19,2022-02-12_10h23.51.929,lexical_decision_task_DD_L6,2021.2.3,MacIntel,62.5,,,,,,,,,,,0.649,1,,,,,,,,,,,,,,,z,1,0.649,,,,,,,,-0.239569314,0.049125168,0,0,0,,0,151,151,127,1,NINDY,HB,z,z,./images/NINDYHB.png,,,,,,,,,,,,,,,,,,,,,,,,,,,,,,,,,,
,,,,,,,,,,,,,,,,,60fddeb6dfaa94f6424e0916,19,2022-02-12_10h23.51.929,lexical_decision_task_DD_L6,2021.2.3,MacIntel,62.5,,,,,,,,,,,0.515,1,,,,,,,,,,,,,,,m,1,0.515,,,,,,,,-0.239569314,0.049125168,0,0,0,,0,152,152,46,1,MUMMY,C,m,m,./images/MUMMY.png,,,,,,,,,,,,,,,,,,,,,,,,,,,,,,,,,,
,,,,,,,,,,,,,,,,,60fddeb6dfaa94f6424e0916,19,2022-02-12_10h23.51.929,lexical_decision_task_DD_L6,2021.2.3,MacIntel,62.5,,,,,,,,,,,0.489,1,,,,,,,,,,,,,,,z,1,0.489,,,,,,,,-0.239569314,0.049125168,0,0,0,,0,153,153,99,1,BACKY,C,z,z,./images/BACKY.png,,,,,,,,,,,,,,,,,,,,,,,,,,,,,,,,,,
,,,,,,,,,,,,,,,,,60fddeb6dfaa94f6424e0916,19,2022-02-12_10h23.51.929,lexical_decision_task_DD_L6,2021.2.3,MacIntel,62.5,,,,,,,,,,,0.506,1,,,,,,,,,,,,,,,z,1,0.506,,,,,,,,-0.239569314,0.049125168,0,0,0,,0,154,154,132,1,SCIFF,C,z,z,./images/SCIFF.png,,,,,,,,,,,,,,,,,,,,,,,,,,,,,,,,,,
,,,,,,,,,,,,,,,,,60fddeb6dfaa94f6424e0916,19,2022-02-12_10h23.51.929,lexical_decision_task_DD_L6,2021.2.3,MacIntel,62.5,,,,,,,,,,,0.609,1,,,,,,,,,,,,,,,m,1,0.609,,,,,,,,-0.239569314,0.049125168,0,0,0,,0,155,155,17,1,PARADE,HB,m,m,./images/PARADEHB.png,,,,,,,,,,,,,,,,,,,,,,,,,,,,,,,,,,
,,,,,,,,,,,,,,,,,60fddeb6dfaa94f6424e0916,19,2022-02-12_10h23.51.929,lexical_decision_task_DD_L6,2021.2.3,MacIntel,62.5,,,,,,,,,,,0.46,1,,,,,,,,,,,,,,,z,1,0.46,,,,,,,,-0.239569314,0.049125168,0,0,0,,0,156,156,141,1,PLEET,C,z,z,./images/PLEET.png,,,,,,,,,,,,,,,,,,,,,,,,,,,,,,,,,,
,,,,,,,,,,,,,,,,,60fddeb6dfaa94f6424e0916,19,2022-02-12_10h23.51.929,lexical_decision_task_DD_L6,2021.2.3,MacIntel,62.5,,,,,,,,,,,0.545,1,,,,,,,,,,,,,,,m,1,0.545,,,,,,,,-0.239569314,0.049125168,0,0,0,,0,157,157,26,1,CLOUD,HB,m,m,./images/CLOUDHB.png,,,,,,,,,,,,,,,,,,,,,,,,,,,,,,,,,,
,,,,,,,,,,,,,,,,,60fddeb6dfaa94f6424e0916,19,2022-02-12_10h23.51.929,lexical_decision_task_DD_L6,2021.2.3,MacIntel,62.5,,,,,,,,,,,0.808,1,,,,,,,,,,,,,,,z,1,0.808,,,,,,,,-0.239569314,0.049125168,0,0,0,,0,158,158,165,1,TROWN,C,z,z,./images/TROWN.png,,,,,,,,,,,,,,,,,,,,,,,,,,,,,,,,,,
,,,,,,,,,,,,,,,,,60fddeb6dfaa94f6424e0916,19,2022-02-12_10h23.51.929,lexical_decision_task_DD_L6,2021.2.3,MacIntel,62.5,,,,,,,,,,,0.63,1,,,,,,,,,,,,,,,z,1,0.63,,,,,,,,-0.239569314,0.049125168,0,0,0,,0,159,159,154,1,THINT,HB,z,z,./images/THINTHB.png,,,,,,,,,,,,,,,,,,,,,,,,,,,,,,,,,,
,,,,,,,,,,,,,,,,,60fddeb6dfaa94f6424e0916,19,2022-02-12_10h23.51.929,lexical_decision_task_DD_L6,2021.2.3,MacIntel,62.5,,,,,,,,,,,0.876,1,,,,,,,,,,,,,,,z,1,0.876,,,,,,,,-0.239569314,0.049125168,0,0,0,,0,160,160,106,1,CLUMS,HB,z,z,./images/CLUMSHB.png,,,,,,,,,,,,,,,,,,,,,,,,,,,,,,,,,,
,,,,,,,,,,,,,,,,,60fddeb6dfaa94f6424e0916,19,2022-02-12_10h23.51.929,lexical_decision_task_DD_L6,2021.2.3,MacIntel,62.5,,,,,,,,,,,0.528,1,,,,,,,,,,,,,,,z,1,0.528,,,,,,,,-0.239569314,0.049125168,0,0,0,,0,161,161,150,1,NOOLS,C,z,z,./images/NOOLS.png,,,,,,,,,,,,,,,,,,,,,,,,,,,,,,,,,,
,,,,,,,,,,,,,,,,,60fddeb6dfaa94f6424e0916,19,2022-02-12_10h23.51.929,lexical_decision_task_DD_L6,2021.2.3,MacIntel,62.5,,,,,,,,,,,0.54,1,,,,,,,,,,,,,,,m,1,0.54,,,,,,,,-0.239569314,0.049125168,0,0,0,,0,162,162,59,1,BRUSH,HB,m,m,./images/BRUSHHB.png,,,,,,,,,,,,,,,,,,,,,,,,,,,,,,,,,,
,,,,,,,,,,,,,,,,,60fddeb6dfaa94f6424e0916,19,2022-02-12_10h23.51.929,lexical_decision_task_DD_L6,2021.2.3,MacIntel,62.5,,,,,,,,,,,0.496,1,,,,,,,,,,,,,,,z,1,0.496,,,,,,,,-0.239569314,0.049125168,0,0,0,,0,163,163,163,1,GAMBA,HB,z,z,./images/GAMBAHB.png,,,,,,,,,,,,,,,,,,,,,,,,,,,,,,,,,,
,,,,,,,,,,,,,,,,,60fddeb6dfaa94f6424e0916,19,2022-02-12_10h23.51.929,lexical_decision_task_DD_L6,2021.2.3,MacIntel,62.5,,,,,,,,,,,0.426,1,,,,,,,,,,,,,,,z,1,0.426,,,,,,,,-0.239569314,0.049125168,0,0,0,,0,164,164,149,1,VEASE,LB,z,z,./images/VEASELB.png,,,,,,,,,,,,,,,,,,,,,,,,,,,,,,,,,,
,,,,,,,,,,,,,,,,,60fddeb6dfaa94f6424e0916,19,2022-02-12_10h23.51.929,lexical_decision_task_DD_L6,2021.2.3,MacIntel,62.5,,,,,,,,,,,0.543,1,,,,,,,,,,,,,,,m,1,0.543,,,,,,,,-0.239569314,0.049125168,0,0,0,,0,165,165,76,1,MIDGET,C,m,m,./images/MIDGET.png,,,,,,,,,,,,,,,,,,,,,,,,,,,,,,,,,,
,,,,,,,,,,,,,,,,,60fddeb6dfaa94f6424e0916,19,2022-02-12_10h23.51.929,lexical_decision_task_DD_L6,2021.2.3,MacIntel,62.5,,,,,,,,,,,0.473,1,,,,,,,,,,,,,,,z,1,0.473,,,,,,,,-0.239569314,0.049125168,0,0,0,,0,166,166,108,1,GRUET,C,z,z,./images/GRUET.png,,,,,,,,,,,,,,,,,,,,,,,,,,,,,,,,,,
,,,,,,,,,,,,,,,,,60fddeb6dfaa94f6424e0916,19,2022-02-12_10h23.51.929,lexical_decision_task_DD_L6,2021.2.3,MacIntel,62.5,,,,,,,,,,,0.446,1,,,,,,,,,,,,,,,z,1,0.446,,,,,,,,-0.239569314,0.049125168,0,0,0,,0,167,167,144,1,NAIRY,C,z,z,./images/NAIRY.png,,,,,,,,,,,,,,,,,,,,,,,,,,,,,,,,,,
,,,,,,,,,,,,,,,,,60fddeb6dfaa94f6424e0916,19,2022-02-12_10h23.51.929,lexical_decision_task_DD_L6,2021.2.3,MacIntel,62.5,,,,,,,,,,,,,,,,,,,,,,,,,,,,,,,,,,,,,,,,,,,,,,,,,How likely will it be that you will recognize the words presented very blurred on a scale of 0 (not likely) to 100 (most likely)?,,,,,-0.012113055,-0.409825034,1,0,0,jol_adv,2,9.506,0,0,0,2,1,,,,,,,,,,,,,,,,,,,,
,,,,,,,,,,,,,,,,,60fddeb6dfaa94f6424e0916,19,2022-02-12_10h23.51.929,lexical_decision_task_DD_L6,2021.2.3,MacIntel,62.5,,,,,,,,,,,,,,,,,,,,,,,,,,,,,,,,,,,,,,,,,,,,,,,,,How likely will it be that you will recognize the words presented clearly on a scale of 0 (not likely) to 100 (most likely)?,,,,,,,,,,,5,3.03,0,1,1,0,1,,,,,,,,,,,,,,,,,,,,
,,,,,,,,,,,,,,,,,60fddeb6dfaa94f6424e0916,19,2022-02-12_10h23.51.929,lexical_decision_task_DD_L6,2021.2.3,MacIntel,62.5,,,,,,,,,,,,,,,,,,,,,,,,,,,,,,,,,,,,,,,,,,,,,,,,,How likely will it be that you will recognize the words presented slighly blurred on a scale of 0 (not likely) to 100 (most likely)?,,,,,,,,,,,4,3.864,0,2,2,1,1,,,,,,,,,,,,,,,,,,,,
,,0.067294751,-0.373485868,1,0,0,,,,,,1,test,"In the next phase you will be presented with the words from the the first phase. Your job is to decide whether you remember seeing the word or not. If you remember seeing the word press ""old"" or type ""m"". If you do not remember seeing the word press ""new"" or type ""z"". Please press the space bar or click on continue to begin. ",,,60fddeb6dfaa94f6424e0916,19,2022-02-12_10h23.51.929,lexical_decision_task_DD_L6,2021.2.3,MacIntel,62.5,,,,,,,,,,,,,,,,,,,,,instr_done_button,,,,,,,,,,,,,,,,,,,,,,,,,,,,,,,,,,,,,,,,,,,,,,0,0,0,0,1,,,,,,,,,,,,,,,
,,0.059219381,-0.401749664,1,0,0,,,,,,1,test,"In the next phase you will be presented with the words from the the first phase. Your job is to decide whether you remember seeing the word or not. If you remember seeing the word press ""old"" or type ""m"". If you do not remember seeing the word press ""new"" or type ""z"". Please press the space bar or click on continue to begin. ",,,60fddeb6dfaa94f6424e0916,19,2022-02-12_10h23.51.929,lexical_decision_task_DD_L6,2021.2.3,MacIntel,62.5,,,,,,,,,,,,,,,,,,,,,instr_done_button,,,,,,,,,,,,,,,,,,,,,,,,,,,,,,,,,,,,,,,,,,,,,,1,0,1,0,1,,,,,,,,,,,,,,,
space,5.001,0.098250336,-0.295423957,0,0,0,,,,,,1,test,"In the next phase you will be presented with the words from the the first phase. Your job is to decide whether you remember seeing the word or not. If you remember seeing the word press ""old"" or type ""m"". If you do not remember seeing the word press ""new"" or type ""z"". Please press the space bar or click on continue to begin. ",,,60fddeb6dfaa94f6424e0916,19,2022-02-12_10h23.51.929,lexical_decision_task_DD_L6,2021.2.3,MacIntel,62.5,,,,,,,,,,,,,,,,,,,,,,,,,,,,,,,,,,,,,,,,,,,,,,,,,,,,,,,,,,,,,,,,,,,2,0,2,0,1,,,,,,,,,,,,,,,
space,1.37,0.111709287,-0.256393001,0,0,0,,,,,,1,test,"In the next phase you will be presented with the words from the the first phase. Your job is to decide whether you remember seeing the word or not. If you remember seeing the word press ""old"" or type ""m"". If you do not remember seeing the word press ""new"" or type ""z"". Please press the space bar or click on continue to begin. ",,,60fddeb6dfaa94f6424e0916,19,2022-02-12_10h23.51.929,lexical_decision_task_DD_L6,2021.2.3,MacIntel,62.5,,,,,,,,,,,,,,,,,,,,,,,,,,,,,,,,,,,,,,,,,,,,,,,,,,,,,,,,,,,,,,,,,,,3,0,3,0,1,,,,,,,,,,,,,,,
,,0.059219381,-0.386944818,1,0,0,,,,,,1,test,"In the next phase you will be presented with the words from the the first phase. Your job is to decide whether you remember seeing the word or not. If you remember seeing the word press ""old"" or type ""m"". If you do not remember seeing the word press ""new"" or type ""z"". Please press the space bar or click on continue to begin. ",,,60fddeb6dfaa94f6424e0916,19,2022-02-12_10h23.51.929,lexical_decision_task_DD_L6,2021.2.3,MacIntel,62.5,,,,,,,,,,,,,,,,,,,,,instr_done_button,,,,,,,,,,,,,,,,,,,,,,,,,,,,,,,,,,,,,,,,,,,,,,4,0,4,0,1,,,,,,,,,,,,,,,
,,,,,,,,,,,,,,,,,60fddeb6dfaa94f6424e0916,19,2022-02-12_10h23.51.929,lexical_decision_task_DD_L6,2021.2.3,MacIntel,62.5,,,,,,,,,,,0.889,1,,,,,,,,,,,,,,,,,,,,,,,,,0.059219381,-0.386944818,0,0,0,,,,,,,PEBBLE,C,m,y,./images/PEBBLE.png,,,,,,,,,,,,,,,,,,,,m,1,0.889,,,,,,,,0,0,0,82,1
,,,,,,,,,,,,,,,,,60fddeb6dfaa94f6424e0916,19,2022-02-12_10h23.51.929,lexical_decision_task_DD_L6,2021.2.3,MacIntel,62.5,,,,,,,,,,,1.34,1,,,,,,,,,,,,,,,,,,,,,,,,,0.059219381,-0.386944818,0,0,0,,,,,,,BERRY,HB,z,y,./images/BERRYHB.png,,,,,,,,,,,,,,,,,,,,z,1,1.34,,,,,,,,0,1,1,131,1
,,,,,,,,,,,,,,,,,60fddeb6dfaa94f6424e0916,19,2022-02-12_10h23.51.929,lexical_decision_task_DD_L6,2021.2.3,MacIntel,62.5,,,,,,,,,,,0.879,0,,,,,,,,,,,,,,,,,,,,,,,,,0.059219381,-0.386944818,0,0,0,,,,,,,FARMER,HB,z,y,./images/FARMERHB.png,,,,,,,,,,,,,,,,,,,,m,0,0.879,,,,,,,,0,2,2,149,1
,,,,,,,,,,,,,,,,,60fddeb6dfaa94f6424e0916,19,2022-02-12_10h23.51.929,lexical_decision_task_DD_L6,2021.2.3,MacIntel,62.5,,,,,,,,,,,0.497,1,,,,,,,,,,,,,,,,,,,,,,,,,0.059219381,-0.386944818,0,0,0,,,,,,,LLAMA,HB,m,y,./images/LLAMAHB.png,,,,,,,,,,,,,,,,,,,,m,1,0.497,,,,,,,,0,3,3,35,1
,,,,,,,,,,,,,,,,,60fddeb6dfaa94f6424e0916,19,2022-02-12_10h23.51.929,lexical_decision_task_DD_L6,2021.2.3,MacIntel,62.5,,,,,,,,,,,0.481,1,,,,,,,,,,,,,,,,,,,,,,,,,0.059219381,-0.386944818,0,0,0,,,,,,,DESERT,C,m,y,./images/DESERT.png,,,,,,,,,,,,,,,,,,,,m,1,0.481,,,,,,,,0,4,4,52,1
,,,,,,,,,,,,,,,,,60fddeb6dfaa94f6424e0916,19,2022-02-12_10h23.51.929,lexical_decision_task_DD_L6,2021.2.3,MacIntel,62.5,,,,,,,,,,,0.728,0,,,,,,,,,,,,,,,,,,,,,,,,,0.059219381,-0.386944818,0,0,0,,,,,,,LADDER,HB,z,y,./images/LADDERHB.png,,,,,,,,,,,,,,,,,,,,m,0,0.728,,,,,,,,0,5,5,122,1
,,,,,,,,,,,,,,,,,60fddeb6dfaa94f6424e0916,19,2022-02-12_10h23.51.929,lexical_decision_task_DD_L6,2021.2.3,MacIntel,62.5,,,,,,,,,,,0.73,1,,,,,,,,,,,,,,,,,,,,,,,,,0.059219381,-0.386944818,0,0,0,,,,,,,PILOT,HB,m,y,./images/PILOTHB.png,,,,,,,,,,,,,,,,,,,,m,1,0.73,,,,,,,,0,6,6,50,1
,,,,,,,,,,,,,,,,,60fddeb6dfaa94f6424e0916,19,2022-02-12_10h23.51.929,lexical_decision_task_DD_L6,2021.2.3,MacIntel,62.5,,,,,,,,,,,0.545,1,,,,,,,,,,,,,,,,,,,,,,,,,0.059219381,-0.386944818,0,0,0,,,,,,,MAMMAL,HB,m,y,./images/MAMMALHB.png,,,,,,,,,,,,,,,,,,,,m,1,0.545,,,,,,,,0,7,7,62,1
,,,,,,,,,,,,,,,,,60fddeb6dfaa94f6424e0916,19,2022-02-12_10h23.51.929,lexical_decision_task_DD_L6,2021.2.3,MacIntel,62.5,,,,,,,,,,,0.505,1,,,,,,,,,,,,,,,,,,,,,,,,,0.059219381,-0.386944818,0,0,0,,,,,,,MUMMY,C,m,y,./images/MUMMY.png,,,,,,,,,,,,,,,,,,,,m,1,0.505,,,,,,,,0,8,8,46,1
,,,,,,,,,,,,,,,,,60fddeb6dfaa94f6424e0916,19,2022-02-12_10h23.51.929,lexical_decision_task_DD_L6,2021.2.3,MacIntel,62.5,,,,,,,,,,,0.581,1,,,,,,,,,,,,,,,,,,,,,,,,,0.059219381,-0.386944818,0,0,0,,,,,,,CLOUD,HB,m,y,./images/CLOUDHB.png,,,,,,,,,,,,,,,,,,,,m,1,0.581,,,,,,,,0,9,9,26,1
,,,,,,,,,,,,,,,,,60fddeb6dfaa94f6424e0916,19,2022-02-12_10h23.51.929,lexical_decision_task_DD_L6,2021.2.3,MacIntel,62.5,,,,,,,,,,,0.599,0,,,,,,,,,,,,,,,,,,,,,,,,,0.059219381,-0.386944818,0,0,0,,,,,,,MUFFIN,C,z,y,./images/MUFFIN.png,,,,,,,,,,,,,,,,,,,,m,0,0.599,,,,,,,,0,10,10,139,1
,,,,,,,,,,,,,,,,,60fddeb6dfaa94f6424e0916,19,2022-02-12_10h23.51.929,lexical_decision_task_DD_L6,2021.2.3,MacIntel,62.5,,,,,,,,,,,0.563,1,,,,,,,,,,,,,,,,,,,,,,,,,0.059219381,-0.386944818,0,0,0,,,,,,,FLESH,LB,m,y,./images/FLESHLB.png,,,,,,,,,,,,,,,,,,,,m,1,0.563,,,,,,,,0,11,11,24,1
,,,,,,,,,,,,,,,,,60fddeb6dfaa94f6424e0916,19,2022-02-12_10h23.51.929,lexical_decision_task_DD_L6,2021.2.3,MacIntel,62.5,,,,,,,,,,,0.61,1,,,,,,,,,,,,,,,,,,,,,,,,,0.059219381,-0.386944818,0,0,0,,,,,,,PIMPLE,HB,z,y,./images/PIMPLEHB.png,,,,,,,,,,,,,,,,,,,,z,1,0.61,,,,,,,,0,12,12,155,1
,,,,,,,,,,,,,,,,,60fddeb6dfaa94f6424e0916,19,2022-02-12_10h23.51.929,lexical_decision_task_DD_L6,2021.2.3,MacIntel,62.5,,,,,,,,,,,0.917,1,,,,,,,,,,,,,,,,,,,,,,,,,0.059219381,-0.386944818,0,0,0,,,,,,,STATUE,LB,m,y,./images/STATUELB.png,,,,,,,,,,,,,,,,,,,,m,1,0.917,,,,,,,,0,13,13,66,1
,,,,,,,,,,,,,,,,,60fddeb6dfaa94f6424e0916,19,2022-02-12_10h23.51.929,lexical_decision_task_DD_L6,2021.2.3,MacIntel,62.5,,,,,,,,,,,0.527,1,,,,,,,,,,,,,,,,,,,,,,,,,0.059219381,-0.386944818,0,0,0,,,,,,,JUMPER,HB,m,y,./images/JUMPERHB.png,,,,,,,,,,,,,,,,,,,,m,1,0.527,,,,,,,,0,14,14,74,1
,,,,,,,,,,,,,,,,,60fddeb6dfaa94f6424e0916,19,2022-02-12_10h23.51.929,lexical_decision_task_DD_L6,2021.2.3,MacIntel,62.5,,,,,,,,,,,0.423,1,,,,,,,,,,,,,,,,,,,,,,,,,0.059219381,-0.386944818,0,0,0,,,,,,,DANCER,LB,m,y,./images/DANCERLB.png,,,,,,,,,,,,,,,,,,,,m,1,0.423,,,,,,,,0,15,15,21,1
,,,,,,,,,,,,,,,,,60fddeb6dfaa94f6424e0916,19,2022-02-12_10h23.51.929,lexical_decision_task_DD_L6,2021.2.3,MacIntel,62.5,,,,,,,,,,,0.546,1,,,,,,,,,,,,,,,,,,,,,,,,,0.059219381,-0.386944818,0,0,0,,,,,,,SNAKE,C,m,y,./images/SNAKE.png,,,,,,,,,,,,,,,,,,,,m,1,0.546,,,,,,,,0,16,16,40,1
,,,,,,,,,,,,,,,,,60fddeb6dfaa94f6424e0916,19,2022-02-12_10h23.51.929,lexical_decision_task_DD_L6,2021.2.3,MacIntel,62.5,,,,,,,,,,,0.447,0,,,,,,,,,,,,,,,,,,,,,,,,,0.059219381,-0.386944818,0,0,0,,,,,,,PAINT,C,z,y,./images/PAINT.png,,,,,,,,,,,,,,,,,,,,m,0,0.447,,,,,,,,0,17,17,91,1
,,,,,,,,,,,,,,,,,60fddeb6dfaa94f6424e0916,19,2022-02-12_10h23.51.929,lexical_decision_task_DD_L6,2021.2.3,MacIntel,62.5,,,,,,,,,,,0.731,0,,,,,,,,,,,,,,,,,,,,,,,,,0.059219381,-0.386944818,0,0,0,,,,,,,PLANET,HB,m,y,./images/PLANETHB.png,,,,,,,,,,,,,,,,,,,,z,0,0.731,,,,,,,,0,18,18,80,1
,,,,,,,,,,,,,,,,,60fddeb6dfaa94f6424e0916,19,2022-02-12_10h23.51.929,lexical_decision_task_DD_L6,2021.2.3,MacIntel,62.5,,,,,,,,,,,0.511,1,,,,,,,,,,,,,,,,,,,,,,,,,0.059219381,-0.386944818,0,0,0,,,,,,,PISTOL,HB,m,y,./images/PISTOLHB.png,,,,,,,,,,,,,,,,,,,,m,1,0.511,,,,,,,,0,19,19,29,1
,,,,,,,,,,,,,,,,,60fddeb6dfaa94f6424e0916,19,2022-02-12_10h23.51.929,lexical_decision_task_DD_L6,2021.2.3,MacIntel,62.5,,,,,,,,,,,0.644,1,,,,,,,,,,,,,,,,,,,,,,,,,0.059219381,-0.386944818,0,0,0,,,,,,,BIRTH,C,z,y,./images/BIRTH.png,,,,,,,,,,,,,,,,,,,,z,1,0.644,,,,,,,,0,20,20,121,1
,,,,,,,,,,,,,,,,,60fddeb6dfaa94f6424e0916,19,2022-02-12_10h23.51.929,lexical_decision_task_DD_L6,2021.2.3,MacIntel,62.5,,,,,,,,,,,0.459,1,,,,,,,,,,,,,,,,,,,,,,,,,0.059219381,-0.386944818,0,0,0,,,,,,,TIGER,C,m,y,./images/TIGER.png,,,,,,,,,,,,,,,,,,,,m,1,0.459,,,,,,,,0,21,21,37,1
,,,,,,,,,,,,,,,,,60fddeb6dfaa94f6424e0916,19,2022-02-12_10h23.51.929,lexical_decision_task_DD_L6,2021.2.3,MacIntel,62.5,,,,,,,,,,,0.495,1,,,,,,,,,,,,,,,,,,,,,,,,,0.059219381,-0.386944818,0,0,0,,,,,,,BRUSH,HB,m,y,./images/BRUSHHB.png,,,,,,,,,,,,,,,,,,,,m,1,0.495,,,,,,,,0,22,22,59,1
,,,,,,,,,,,,,,,,,60fddeb6dfaa94f6424e0916,19,2022-02-12_10h23.51.929,lexical_decision_task_DD_L6,2021.2.3,MacIntel,62.5,,,,,,,,,,,0.478,1,,,,,,,,,,,,,,,,,,,,,,,,,0.059219381,-0.386944818,0,0,0,,,,,,,CANOE,C,m,y,./images/CANOE.png,,,,,,,,,,,,,,,,,,,,m,1,0.478,,,,,,,,0,23,23,58,1
,,,,,,,,,,,,,,,,,60fddeb6dfaa94f6424e0916,19,2022-02-12_10h23.51.929,lexical_decision_task_DD_L6,2021.2.3,MacIntel,62.5,,,,,,,,,,,0.513,0,,,,,,,,,,,,,,,,,,,,,,,,,0.059219381,-0.386944818,0,0,0,,,,,,,LITTER,LB,z,y,./images/LITTERLB.png,,,,,,,,,,,,,,,,,,,,m,0,0.513,,,,,,,,0,24,24,162,1
,,,,,,,,,,,,,,,,,60fddeb6dfaa94f6424e0916,19,2022-02-12_10h23.51.929,lexical_decision_task_DD_L6,2021.2.3,MacIntel,62.5,,,,,,,,,,,0.561,1,,,,,,,,,,,,,,,,,,,,,,,,,0.059219381,-0.386944818,0,0,0,,,,,,,HAMMER,LB,m,y,./images/HAMMERLB.png,,,,,,,,,,,,,,,,,,,,m,1,0.561,,,,,,,,0,25,25,75,1
,,,,,,,,,,,,,,,,,60fddeb6dfaa94f6424e0916,19,2022-02-12_10h23.51.929,lexical_decision_task_DD_L6,2021.2.3,MacIntel,62.5,,,,,,,,,,,0.559,0,,,,,,,,,,,,,,,,,,,,,,,,,0.059219381,-0.386944818,0,0,0,,,,,,,RHINO,LB,z,y,./images/RHINOLB.png,,,,,,,,,,,,,,,,,,,,m,0,0.559,,,,,,,,0,26,26,93,1
,,,,,,,,,,,,,,,,,60fddeb6dfaa94f6424e0916,19,2022-02-12_10h23.51.929,lexical_decision_task_DD_L6,2021.2.3,MacIntel,62.5,,,,,,,,,,,0.596,1,,,,,,,,,,,,,,,,,,,,,,,,,0.059219381,-0.386944818,0,0,0,,,,,,,STAIN,LB,m,y,./images/STAINLB.png,,,,,,,,,,,,,,,,,,,,m,1,0.596,,,,,,,,0,27,27,6,1
,,,,,,,,,,,,,,,,,60fddeb6dfaa94f6424e0916,19,2022-02-12_10h23.51.929,lexical_decision_task_DD_L6,2021.2.3,MacIntel,62.5,,,,,,,,,,,0.51,1,,,,,,,,,,,,,,,,,,,,,,,,,0.059219381,-0.386944818,0,0,0,,,,,,,DIVER,LB,m,y,./images/DIVERLB.png,,,,,,,,,,,,,,,,,,,,m,1,0.51,,,,,,,,0,28,28,9,1
,,,,,,,,,,,,,,,,,60fddeb6dfaa94f6424e0916,19,2022-02-12_10h23.51.929,lexical_decision_task_DD_L6,2021.2.3,MacIntel,62.5,,,,,,,,,,,0.838,0,,,,,,,,,,,,,,,,,,,,,,,,,0.059219381,-0.386944818,0,0,0,,,,,,,CURRY,LB,m,y,./images/CURRYLB.png,,,,,,,,,,,,,,,,,,,,z,0,0.838,,,,,,,,0,29,29,60,1
,,,,,,,,,,,,,,,,,60fddeb6dfaa94f6424e0916,19,2022-02-12_10h23.51.929,lexical_decision_task_DD_L6,2021.2.3,MacIntel,62.5,,,,,,,,,,,0.847,1,,,,,,,,,,,,,,,,,,,,,,,,,0.059219381,-0.386944818,0,0,0,,,,,,,POODLE,LB,z,y,./images/POODLELB.png,,,,,,,,,,,,,,,,,,,,z,1,0.847,,,,,,,,0,30,30,165,1
,,,,,,,,,,,,,,,,,60fddeb6dfaa94f6424e0916,19,2022-02-12_10h23.51.929,lexical_decision_task_DD_L6,2021.2.3,MacIntel,62.5,,,,,,,,,,,0.577,1,,,,,,,,,,,,,,,,,,,,,,,,,0.059219381,-0.386944818,0,0,0,,,,,,,MEDAL,HB,m,y,./images/MEDALHB.png,,,,,,,,,,,,,,,,,,,,m,1,0.577,,,,,,,,0,31,31,11,1
,,,,,,,,,,,,,,,,,60fddeb6dfaa94f6424e0916,19,2022-02-12_10h23.51.929,lexical_decision_task_DD_L6,2021.2.3,MacIntel,62.5,,,,,,,,,,,0.477,0,,,,,,,,,,,,,,,,,,,,,,,,,0.059219381,-0.386944818,0,0,0,,,,,,,SNACK,C,z,y,./images/SNACK.png,,,,,,,,,,,,,,,,,,,,m,0,0.477,,,,,,,,0,32,32,157,1
,,,,,,,,,,,,,,,,,60fddeb6dfaa94f6424e0916,19,2022-02-12_10h23.51.929,lexical_decision_task_DD_L6,2021.2.3,MacIntel,62.5,,,,,,,,,,,0.545,0,,,,,,,,,,,,,,,,,,,,,,,,,0.059219381,-0.386944818,0,0,0,,,,,,,BANNER,C,z,y,./images/BANNER.png,,,,,,,,,,,,,,,,,,,,m,0,0.545,,,,,,,,0,33,33,136,1
,,,,,,,,,,,,,,,,,60fddeb6dfaa94f6424e0916,19,2022-02-12_10h23.51.929,lexical_decision_task_DD_L6,2021.2.3,MacIntel,62.5,,,,,,,,,,,0.428,0,,,,,,,,,,,,,,,,,,,,,,,,,0.059219381,-0.386944818,0,0,0,,,,,,,SCREW,LB,z,y,./images/SCREWLB.png,,,,,,,,,,,,,,,,,,,,m,0,0.428,,,,,,,,0,34,34,108,1
,,,,,,,,,,,,,,,,,60fddeb6dfaa94f6424e0916,19,2022-02-12_10h23.51.929,lexical_decision_task_DD_L6,2021.2.3,MacIntel,62.5,,,,,,,,,,,0.476,0,,,,,,,,,,,,,,,,,,,,,,,,,0.059219381,-0.386944818,0,0,0,,,,,,,PACKET,HB,z,y,./images/PACKETHB.png,,,,,,,,,,,,,,,,,,,,m,0,0.476,,,,,,,,0,35,35,140,1
,,,,,,,,,,,,,,,,,60fddeb6dfaa94f6424e0916,19,2022-02-12_10h23.51.929,lexical_decision_task_DD_L6,2021.2.3,MacIntel,62.5,,,,,,,,,,,0.496,0,,,,,,,,,,,,,,,,,,,,,,,,,0.059219381,-0.386944818,0,0,0,,,,,,,KITTEN,LB,z,y,./images/KITTENLB.png,,,,,,,,,,,,,,,,,,,,m,0,0.496,,,,,,,,0,36,36,129,1
,,,,,,,,,,,,,,,,,60fddeb6dfaa94f6424e0916,19,2022-02-12_10h23.51.929,lexical_decision_task_DD_L6,2021.2.3,MacIntel,62.5,,,,,,,,,,,0.678,1,,,,,,,,,,,,,,,,,,,,,,,,,0.059219381,-0.386944818,0,0,0,,,,,,,MELON,C,z,y,./images/MELON.png,,,,,,,,,,,,,,,,,,,,z,1,0.678,,,,,,,,0,37,37,106,1
,,,,,,,,,,,,,,,,,60fddeb6dfaa94f6424e0916,19,2022-02-12_10h23.51.929,lexical_decision_task_DD_L6,2021.2.3,MacIntel,62.5,,,,,,,,,,,0.661,1,,,,,,,,,,,,,,,,,,,,,,,,,0.059219381,-0.386944818,0,0,0,,,,,,,TOMATO,LB,z,y,./images/TOMATOLB.png,,,,,,,,,,,,,,,,,,,,z,1,0.661,,,,,,,,0,38,38,84,1
,,,,,,,,,,,,,,,,,60fddeb6dfaa94f6424e0916,19,2022-02-12_10h23.51.929,lexical_decision_task_DD_L6,2021.2.3,MacIntel,62.5,,,,,,,,,,,0.576,1,,,,,,,,,,,,,,,,,,,,,,,,,0.059219381,-0.386944818,0,0,0,,,,,,,MONKEY,LB,m,y,./images/MONKEYLB.png,,,,,,,,,,,,,,,,,,,,m,1,0.576,,,,,,,,0,39,39,45,1
,,,,,,,,,,,,,,,,,60fddeb6dfaa94f6424e0916,19,2022-02-12_10h23.51.929,lexical_decision_task_DD_L6,2021.2.3,MacIntel,62.5,,,,,,,,,,,0.91,1,,,,,,,,,,,,,,,,,,,,,,,,,0.059219381,-0.386944818,0,0,0,,,,,,,KIDNEY,LB,z,y,./images/KIDNEYLB.png,,,,,,,,,,,,,,,,,,,,z,1,0.91,,,,,,,,0,40,40,105,1
,,,,,,,,,,,,,,,,,60fddeb6dfaa94f6424e0916,19,2022-02-12_10h23.51.929,lexical_decision_task_DD_L6,2021.2.3,MacIntel,62.5,,,,,,,,,,,0.787,0,,,,,,,,,,,,,,,,,,,,,,,,,0.059219381,-0.378869448,0,0,0,space,,,,,,BABOON,C,z,y,./images/BABOON.png,1.031,,,,,,,,,,,,,,,,,,,m,0,0.787,,,,,,,,0,41,41,142,1
,,,,,,,,,,,,,,,,,60fddeb6dfaa94f6424e0916,19,2022-02-12_10h23.51.929,lexical_decision_task_DD_L6,2021.2.3,MacIntel,62.5,,,,,,,,,,,0.654,1,,,,,,,,,,,,,,,,,,,,,,,,,0.059219381,-0.378869448,0,0,0,,,,,,,ARTIST,C,m,y,./images/ARTIST.png,,,,,,,,,,,,,,,,,,,,m,1,0.654,,,,,,,,0,42,42,61,1
,,,,,,,,,,,,,,,,,60fddeb6dfaa94f6424e0916,19,2022-02-12_10h23.51.929,lexical_decision_task_DD_L6,2021.2.3,MacIntel,62.5,,,,,,,,,,,0.717,1,,,,,,,,,,,,,,,,,,,,,,,,,0.059219381,-0.378869448,0,0,0,,,,,,,BURIAL,HB,z,y,./images/BURIALHB.png,,,,,,,,,,,,,,,,,,,,z,1,0.717,,,,,,,,0,43,43,143,1
,,,,,,,,,,,,,,,,,60fddeb6dfaa94f6424e0916,19,2022-02-12_10h23.51.929,lexical_decision_task_DD_L6,2021.2.3,MacIntel,62.5,,,,,,,,,,,0.939,0,,,,,,,,,,,,,,,,,,,,,,,,,0.059219381,-0.378869448,0,0,0,,,,,,,QUILL,C,z,y,./images/QUILL.png,,,,,,,,,,,,,,,,,,,,m,0,0.939,,,,,,,,0,44,44,115,1
,,,,,,,,,,,,,,,,,60fddeb6dfaa94f6424e0916,19,2022-02-12_10h23.51.929,lexical_decision_task_DD_L6,2021.2.3,MacIntel,62.5,,,,,,,,,,,0.527,1,,,,,,,,,,,,,,,,,,,,,,,,,0.059219381,-0.378869448,0,0,0,,,,,,,SPINE,HB,m,y,./images/SPINEHB.png,,,,,,,,,,,,,,,,,,,,m,1,0.527,,,,,,,,0,45,45,65,1
,,,,,,,,,,,,,,,,,60fddeb6dfaa94f6424e0916,19,2022-02-12_10h23.51.929,lexical_decision_task_DD_L6,2021.2.3,MacIntel,62.5,,,,,,,,,,,1.079,0,,,,,,,,,,,,,,,,,,,,,,,,,-0.880215343,-0.303499327,0,0,0,,,,,,,CEMENT,HB,z,y,./images/CEMENTHB.png,,,,,,,,,,,,,,,,,,,,m,0,1.079,,,,,,,,0,46,46,158,1
,,,,,,,,,,,,,,,,,60fddeb6dfaa94f6424e0916,19,2022-02-12_10h23.51.929,lexical_decision_task_DD_L6,2021.2.3,MacIntel,62.5,,,,,,,,,,,0.586,0,,,,,,,,,,,,,,,,,,,,,,,,,0.632570659,0.022207268,0,0,0,,,,,,,SHELF,LB,z,y,./images/SHELFLB.png,,,,,,,,,,,,,,,,,,,,m,0,0.586,,,,,,,,0,47,47,123,1
,,,,,,,,,,,,,,,,,60fddeb6dfaa94f6424e0916,19,2022-02-12_10h23.51.929,lexical_decision_task_DD_L6,2021.2.3,MacIntel,62.5,,,,,,,,,,,0.526,1,,,,,,,,,,,,,,,,,,,,,,,,,0.632570659,0.022207268,0,0,0,,,,,,,POSTER,HB,m,y,./images/POSTERHB.png,,,,,,,,,,,,,,,,,,,,m,1,0.526,,,,,,,,0,48,48,53,1
,,,,,,,,,,,,,,,,,60fddeb6dfaa94f6424e0916,19,2022-02-12_10h23.51.929,lexical_decision_task_DD_L6,2021.2.3,MacIntel,62.5,,,,,,,,,,,0.763,0,,,,,,,,,,,,,,,,,,,,,,,,,0.632570659,0.022207268,0,0,0,,,,,,,PURSE,HB,z,y,./images/PURSEHB.png,,,,,,,,,,,,,,,,,,,,m,0,0.763,,,,,,,,0,49,49,146,1
,,,,,,,,,,,,,,,,,60fddeb6dfaa94f6424e0916,19,2022-02-12_10h23.51.929,lexical_decision_task_DD_L6,2021.2.3,MacIntel,62.5,,,,,,,,,,,0.479,1,,,,,,,,,,,,,,,,,,,,,,,,,0.632570659,0.022207268,0,0,0,,,,,,,CASINO,C,m,y,./images/CASINO.png,,,,,,,,,,,,,,,,,,,,m,1,0.479,,,,,,,,0,50,50,28,1
,,,,,,,,,,,,,,,,,60fddeb6dfaa94f6424e0916,19,2022-02-12_10h23.51.929,lexical_decision_task_DD_L6,2021.2.3,MacIntel,62.5,,,,,,,,,,,0.578,1,,,,,,,,,,,,,,,,,,,,,,,,,0.632570659,0.022207268,0,0,0,,,,,,,TOWEL,C,m,y,./images/TOWEL.png,,,,,,,,,,,,,,,,,,,,m,1,0.578,,,,,,,,0,51,51,1,1
,,,,,,,,,,,,,,,,,60fddeb6dfaa94f6424e0916,19,2022-02-12_10h23.51.929,lexical_decision_task_DD_L6,2021.2.3,MacIntel,62.5,,,,,,,,,,,0.446,1,,,,,,,,,,,,,,,,,,,,,,,,,0.632570659,0.022207268,0,0,0,,,,,,,CANDY,LB,m,y,./images/CANDYLB.png,,,,,,,,,,,,,,,,,,,,m,1,0.446,,,,,,,,0,52,52,39,1
,,,,,,,,,,,,,,,,,60fddeb6dfaa94f6424e0916,19,2022-02-12_10h23.51.929,lexical_decision_task_DD_L6,2021.2.3,MacIntel,62.5,,,,,,,,,,,0.539,1,,,,,,,,,,,,,,,,,,,,,,,,,0.632570659,0.022207268,0,0,0,,,,,,,BUTTER,LB,m,y,./images/BUTTERLB.png,,,,,,,,,,,,,,,,,,,,m,1,0.539,,,,,,,,0,53,53,27,1
,,,,,,,,,,,,,,,,,60fddeb6dfaa94f6424e0916,19,2022-02-12_10h23.51.929,lexical_decision_task_DD_L6,2021.2.3,MacIntel,62.5,,,,,,,,,,,0.582,1,,,,,,,,,,,,,,,,,,,,,,,,,0.632570659,0.022207268,0,0,0,,,,,,,CHAIN,LB,m,y,./images/CHAINLB.png,,,,,,,,,,,,,,,,,,,,m,1,0.582,,,,,,,,0,54,54,42,1
,,,,,,,,,,,,,,,,,60fddeb6dfaa94f6424e0916,19,2022-02-12_10h23.51.929,lexical_decision_task_DD_L6,2021.2.3,MacIntel,62.5,,,,,,,,,,,1.077,0,,,,,,,,,,,,,,,,,,,,,,,,,0.632570659,0.022207268,0,0,0,,,,,,,CRUST,C,z,y,./images/CRUST.png,,,,,,,,,,,,,,,,,,,,m,0,1.077,,,,,,,,0,55,55,163,1
,,,,,,,,,,,,,,,,,60fddeb6dfaa94f6424e0916,19,2022-02-12_10h23.51.929,lexical_decision_task_DD_L6,2021.2.3,MacIntel,62.5,,,,,,,,,,,0.725,1,,,,,,,,,,,,,,,,,,,,,,,,,0.632570659,0.022207268,0,0,0,,,,,,,GARDEN,C,m,y,./images/GARDEN.png,,,,,,,,,,,,,,,,,,,,m,1,0.725,,,,,,,,0,56,56,10,1
,,,,,,,,,,,,,,,,,60fddeb6dfaa94f6424e0916,19,2022-02-12_10h23.51.929,lexical_decision_task_DD_L6,2021.2.3,MacIntel,62.5,,,,,,,,,,,0.56,1,,,,,,,,,,,,,,,,,,,,,,,,,0.632570659,0.022207268,0,0,0,,,,,,,PARCEL,LB,m,y,./images/PARCELLB.png,,,,,,,,,,,,,,,,,,,,m,1,0.56,,,,,,,,0,57,57,18,1
,,,,,,,,,,,,,,,,,60fddeb6dfaa94f6424e0916,19,2022-02-12_10h23.51.929,lexical_decision_task_DD_L6,2021.2.3,MacIntel,62.5,,,,,,,,,,,0.61,0,,,,,,,,,,,,,,,,,,,,,,,,,0.632570659,0.022207268,0,0,0,,,,,,,COOKER,LB,z,y,./images/COOKERLB.png,,,,,,,,,,,,,,,,,,,,m,0,0.61,,,,,,,,0,58,58,153,1
,,,,,,,,,,,,,,,,,60fddeb6dfaa94f6424e0916,19,2022-02-12_10h23.51.929,lexical_decision_task_DD_L6,2021.2.3,MacIntel,62.5,,,,,,,,,,,0.565,1,,,,,,,,,,,,,,,,,,,,,,,,,0.632570659,0.022207268,0,0,0,,,,,,,SLOPE,LB,m,y,./images/SLOPELB.png,,,,,,,,,,,,,,,,,,,,m,1,0.565,,,,,,,,0,59,59,30,1
,,,,,,,,,,,,,,,,,60fddeb6dfaa94f6424e0916,19,2022-02-12_10h23.51.929,lexical_decision_task_DD_L6,2021.2.3,MacIntel,62.5,,,,,,,,,,,0.661,0,,,,,,,,,,,,,,,,,,,,,,,,,0.632570659,0.022207268,0,0,0,,,,,,,FOLDER,LB,z,y,./images/FOLDERLB.png,,,,,,,,,,,,,,,,,,,,m,0,0.661,,,,,,,,0,60,60,126,1
,,,,,,,,,,,,,,,,,60fddeb6dfaa94f6424e0916,19,2022-02-12_10h23.51.929,lexical_decision_task_DD_L6,2021.2.3,MacIntel,62.5,,,,,,,,,,,0.745,0,,,,,,,,,,,,,,,,,,,,,,,,,0.632570659,0.022207268,0,0,0,,,,,,,STORM,LB,z,y,./images/STORMLB.png,,,,,,,,,,,,,,,,,,,,m,0,0.745,,,,,,,,0,61,61,114,1
,,,,,,,,,,,,,,,,,60fddeb6dfaa94f6424e0916,19,2022-02-12_10h23.51.929,lexical_decision_task_DD_L6,2021.2.3,MacIntel,62.5,,,,,,,,,,,0.859,0,,,,,,,,,,,,,,,,,,,,,,,,,0.632570659,0.022207268,0,0,0,,,,,,,FERRY,LB,m,y,./images/FERRYLB.png,,,,,,,,,,,,,,,,,,,,z,0,0.859,,,,,,,,0,62,62,57,1
,,,,,,,,,,,,,,,,,60fddeb6dfaa94f6424e0916,19,2022-02-12_10h23.51.929,lexical_decision_task_DD_L6,2021.2.3,MacIntel,62.5,,,,,,,,,,,0.522,1,,,,,,,,,,,,,,,,,,,,,,,,,0.632570659,0.022207268,0,0,0,,,,,,,HOCKEY,HB,m,y,./images/HOCKEYHB.png,,,,,,,,,,,,,,,,,,,,m,1,0.522,,,,,,,,0,63,63,32,1
,,,,,,,,,,,,,,,,,60fddeb6dfaa94f6424e0916,19,2022-02-12_10h23.51.929,lexical_decision_task_DD_L6,2021.2.3,MacIntel,62.5,,,,,,,,,,,0.493,1,,,,,,,,,,,,,,,,,,,,,,,,,0.632570659,0.022207268,0,0,0,,,,,,,CLOWN,C,m,y,./images/CLOWN.png,,,,,,,,,,,,,,,,,,,,m,1,0.493,,,,,,,,0,64,64,22,1
,,,,,,,,,,,,,,,,,60fddeb6dfaa94f6424e0916,19,2022-02-12_10h23.51.929,lexical_decision_task_DD_L6,2021.2.3,MacIntel,62.5,,,,,,,,,,,0.56,0,,,,,,,,,,,,,,,,,,,,,,,,,0.632570659,0.022207268,0,0,0,,,,,,,SQUARE,LB,z,y,./images/SQUARELB.png,,,,,,,,,,,,,,,,,,,,m,0,0.56,,,,,,,,0,65,65,90,1
,,,,,,,,,,,,,,,,,60fddeb6dfaa94f6424e0916,19,2022-02-12_10h23.51.929,lexical_decision_task_DD_L6,2021.2.3,MacIntel,62.5,,,,,,,,,,,1.015,0,,,,,,,,,,,,,,,,,,,,,,,,,0.632570659,0.022207268,0,0,0,,,,,,,BONNET,HB,z,y,./images/BONNETHB.png,,,,,,,,,,,,,,,,,,,,m,0,1.015,,,,,,,,0,66,66,95,1
,,,,,,,,,,,,,,,,,60fddeb6dfaa94f6424e0916,19,2022-02-12_10h23.51.929,lexical_decision_task_DD_L6,2021.2.3,MacIntel,62.5,,,,,,,,,,,0.995,1,,,,,,,,,,,,,,,,,,,,,,,,,0.632570659,0.022207268,0,0,0,,,,,,,CANDLE,C,z,y,./images/CANDLE.png,,,,,,,,,,,,,,,,,,,,z,1,0.995,,,,,,,,0,67,67,145,1
,,,,,,,,,,,,,,,,,60fddeb6dfaa94f6424e0916,19,2022-02-12_10h23.51.929,lexical_decision_task_DD_L6,2021.2.3,MacIntel,62.5,,,,,,,,,,,0.662,1,,,,,,,,,,,,,,,,,,,,,,,,,0.632570659,0.022207268,0,0,0,,,,,,,BLOKE,LB,m,y,./images/BLOKELB.png,,,,,,,,,,,,,,,,,,,,m,1,0.662,,,,,,,,0,68,68,12,1
,,,,,,,,,,,,,,,,,60fddeb6dfaa94f6424e0916,19,2022-02-12_10h23.51.929,lexical_decision_task_DD_L6,2021.2.3,MacIntel,62.5,,,,,,,,,,,0.48,1,,,,,,,,,,,,,,,,,,,,,,,,,0.632570659,0.022207268,0,0,0,,,,,,,BROOM,LB,m,y,./images/BROOMLB.png,,,,,,,,,,,,,,,,,,,,m,1,0.48,,,,,,,,0,69,69,78,1
,,,,,,,,,,,,,,,,,60fddeb6dfaa94f6424e0916,19,2022-02-12_10h23.51.929,lexical_decision_task_DD_L6,2021.2.3,MacIntel,62.5,,,,,,,,,,,0.628,1,,,,,,,,,,,,,,,,,,,,,,,,,0.632570659,0.022207268,0,0,0,,,,,,,CRATER,LB,m,y,./images/CRATERLB.png,,,,,,,,,,,,,,,,,,,,m,1,0.628,,,,,,,,0,70,70,3,1
,,,,,,,,,,,,,,,,,60fddeb6dfaa94f6424e0916,19,2022-02-12_10h23.51.929,lexical_decision_task_DD_L6,2021.2.3,MacIntel,62.5,,,,,,,,,,,0.711,1,,,,,,,,,,,,,,,,,,,,,,,,,0.632570659,0.022207268,0,0,0,,,,,,,ONION,LB,z,y,./images/ONIONLB.png,,,,,,,,,,,,,,,,,,,,z,1,0.711,,,,,,,,0,71,71,135,1
,,,,,,,,,,,,,,,,,60fddeb6dfaa94f6424e0916,19,2022-02-12_10h23.51.929,lexical_decision_task_DD_L6,2021.2.3,MacIntel,62.5,,,,,,,,,,,0.675,1,,,,,,,,,,,,,,,,,,,,,,,,,0.632570659,0.022207268,0,0,0,,,,,,,BANANA,C,m,y,./images/BANANA.png,,,,,,,,,,,,,,,,,,,,m,1,0.675,,,,,,,,0,72,72,70,1
,,,,,,,,,,,,,,,,,60fddeb6dfaa94f6424e0916,19,2022-02-12_10h23.51.929,lexical_decision_task_DD_L6,2021.2.3,MacIntel,62.5,,,,,,,,,,,0.53,1,,,,,,,,,,,,,,,,,,,,,,,,,0.632570659,0.022207268,0,0,0,,,,,,,DONKEY,C,m,y,./images/DONKEY.png,,,,,,,,,,,,,,,,,,,,m,1,0.53,,,,,,,,0,73,73,19,1
,,,,,,,,,,,,,,,,,60fddeb6dfaa94f6424e0916,19,2022-02-12_10h23.51.929,lexical_decision_task_DD_L6,2021.2.3,MacIntel,62.5,,,,,,,,,,,0.66,0,,,,,,,,,,,,,,,,,,,,,,,,,0.632570659,0.022207268,0,0,0,,,,,,,MALLET,HB,z,y,./images/MALLETHB.png,,,,,,,,,,,,,,,,,,,,m,0,0.66,,,,,,,,0,74,74,134,1
,,,,,,,,,,,,,,,,,60fddeb6dfaa94f6424e0916,19,2022-02-12_10h23.51.929,lexical_decision_task_DD_L6,2021.2.3,MacIntel,62.5,,,,,,,,,,,0.543,0,,,,,,,,,,,,,,,,,,,,,,,,,0.632570659,0.022207268,0,0,0,,,,,,,JUNGLE,HB,z,y,./images/JUNGLEHB.png,,,,,,,,,,,,,,,,,,,,m,0,0.543,,,,,,,,0,75,75,167,1
,,,,,,,,,,,,,,,,,60fddeb6dfaa94f6424e0916,19,2022-02-12_10h23.51.929,lexical_decision_task_DD_L6,2021.2.3,MacIntel,62.5,,,,,,,,,,,1.129,0,,,,,,,,,,,,,,,,,,,,,,,,,0.632570659,0.022207268,0,0,0,,,,,,,MIRROR,LB,z,y,./images/MIRRORLB.png,,,,,,,,,,,,,,,,,,,,m,0,1.129,,,,,,,,0,76,76,147,1
,,,,,,,,,,,,,,,,,60fddeb6dfaa94f6424e0916,19,2022-02-12_10h23.51.929,lexical_decision_task_DD_L6,2021.2.3,MacIntel,62.5,,,,,,,,,,,0.626,1,,,,,,,,,,,,,,,,,,,,,,,,,0.632570659,0.022207268,0,0,0,,,,,,,VALLEY,HB,m,y,./images/VALLEYHB.png,,,,,,,,,,,,,,,,,,,,m,1,0.626,,,,,,,,0,77,77,68,1
,,,,,,,,,,,,,,,,,60fddeb6dfaa94f6424e0916,19,2022-02-12_10h23.51.929,lexical_decision_task_DD_L6,2021.2.3,MacIntel,62.5,,,,,,,,,,,0.69,1,,,,,,,,,,,,,,,,,,,,,,,,,0.632570659,0.022207268,0,0,0,,,,,,,STREAM,HB,m,y,./images/STREAMHB.png,,,,,,,,,,,,,,,,,,,,m,1,0.69,,,,,,,,0,78,78,41,1
,,,,,,,,,,,,,,,,,60fddeb6dfaa94f6424e0916,19,2022-02-12_10h23.51.929,lexical_decision_task_DD_L6,2021.2.3,MacIntel,62.5,,,,,,,,,,,0.498,1,,,,,,,,,,,,,,,,,,,,,,,,,0.632570659,0.022207268,0,0,0,,,,,,,ARROW,LB,m,y,./images/ARROWLB.png,,,,,,,,,,,,,,,,,,,,m,1,0.498,,,,,,,,0,79,79,69,1
,,,,,,,,,,,,,,,,,60fddeb6dfaa94f6424e0916,19,2022-02-12_10h23.51.929,lexical_decision_task_DD_L6,2021.2.3,MacIntel,62.5,,,,,,,,,,,0.545,1,,,,,,,,,,,,,,,,,,,,,,,,,0.632570659,0.022207268,0,0,0,,,,,,,BISHOP,C,m,y,./images/BISHOP.png,,,,,,,,,,,,,,,,,,,,m,1,0.545,,,,,,,,0,80,80,49,1
,,,,,,,,,,,,,,,,,60fddeb6dfaa94f6424e0916,19,2022-02-12_10h23.51.929,lexical_decision_task_DD_L6,2021.2.3,MacIntel,62.5,,,,,,,,,,,0.495,1,,,,,,,,,,,,,,,,,,,,,,,,,0.632570659,0.022207268,0,0,0,,,,,,,CHALK,C,m,y,./images/CHALK.png,,,,,,,,,,,,,,,,,,,,m,1,0.495,,,,,,,,0,81,81,25,1
,,,,,,,,,,,,,,,,,60fddeb6dfaa94f6424e0916,19,2022-02-12_10h23.51.929,lexical_decision_task_DD_L6,2021.2.3,MacIntel,62.5,,,,,,,,,,,0.528,0,,,,,,,,,,,,,,,,,,,,,,,,,0.632570659,0.022207268,0,0,0,,,,,,,SMOKER,HB,z,y,./images/SMOKERHB.png,,,,,,,,,,,,,,,,,,,,m,0,0.528,,,,,,,,0,82,82,110,1
,,,,,,,,,,,,,,,,,60fddeb6dfaa94f6424e0916,19,2022-02-12_10h23.51.929,lexical_decision_task_DD_L6,2021.2.3,MacIntel,62.5,,,,,,,,,,,0.573,1,,,,,,,,,,,,,,,,,,,,,,,,,0.632570659,0.022207268,0,0,0,space,,,,,,GRAPE,C,m,y,./images/GRAPE.png,0.881,,,,,,,,,,,,,,,,,,,m,1,0.573,,,,,,,,0,83,83,16,1
,,,,,,,,,,,,,,,,,60fddeb6dfaa94f6424e0916,19,2022-02-12_10h23.51.929,lexical_decision_task_DD_L6,2021.2.3,MacIntel,62.5,,,,,,,,,,,0.527,1,,,,,,,,,,,,,,,,,,,,,,,,,0.632570659,0.022207268,0,0,0,,,,,,,CLIFF,HB,m,y,./images/CLIFFHB.png,,,,,,,,,,,,,,,,,,,,m,1,0.527,,,,,,,,0,84,84,8,1
,,,,,,,,,,,,,,,,,60fddeb6dfaa94f6424e0916,19,2022-02-12_10h23.51.929,lexical_decision_task_DD_L6,2021.2.3,MacIntel,62.5,,,,,,,,,,,0.55,0,,,,,,,,,,,,,,,,,,,,,,,,,0.632570659,0.022207268,0,0,0,,,,,,,BARREL,HB,z,y,./images/BARRELHB.png,,,,,,,,,,,,,,,,,,,,m,0,0.55,,,,,,,,0,85,85,116,1
,,,,,,,,,,,,,,,,,60fddeb6dfaa94f6424e0916,19,2022-02-12_10h23.51.929,lexical_decision_task_DD_L6,2021.2.3,MacIntel,62.5,,,,,,,,,,,0.939,0,,,,,,,,,,,,,,,,,,,,,,,,,0.632570659,0.022207268,0,0,0,,,,,,,TULIP,HB,z,y,./images/TULIPHB.png,,,,,,,,,,,,,,,,,,,,m,0,0.939,,,,,,,,0,86,86,92,1
,,,,,,,,,,,,,,,,,60fddeb6dfaa94f6424e0916,19,2022-02-12_10h23.51.929,lexical_decision_task_DD_L6,2021.2.3,MacIntel,62.5,,,,,,,,,,,0.512,1,,,,,,,,,,,,,,,,,,,,,,,,,0.632570659,0.022207268,0,0,0,,,,,,,MIDGET,C,m,y,./images/MIDGET.png,,,,,,,,,,,,,,,,,,,,m,1,0.512,,,,,,,,0,87,87,76,1
,,,,,,,,,,,,,,,,,60fddeb6dfaa94f6424e0916,19,2022-02-12_10h23.51.929,lexical_decision_task_DD_L6,2021.2.3,MacIntel,62.5,,,,,,,,,,,0.862,1,,,,,,,,,,,,,,,,,,,,,,,,,0.632570659,0.022207268,0,0,0,,,,,,,ENGINE,HB,m,y,./images/ENGINEHB.png,,,,,,,,,,,,,,,,,,,,m,1,0.862,,,,,,,,0,88,88,38,1
,,,,,,,,,,,,,,,,,60fddeb6dfaa94f6424e0916,19,2022-02-12_10h23.51.929,lexical_decision_task_DD_L6,2021.2.3,MacIntel,62.5,,,,,,,,,,,0.671,1,,,,,,,,,,,,,,,,,,,,,,,,,0.632570659,0.022207268,0,0,0,,,,,,,MUSCLE,C,z,y,./images/MUSCLE.png,,,,,,,,,,,,,,,,,,,,z,1,0.671,,,,,,,,0,89,89,88,1
,,,,,,,,,,,,,,,,,60fddeb6dfaa94f6424e0916,19,2022-02-12_10h23.51.929,lexical_decision_task_DD_L6,2021.2.3,MacIntel,62.5,,,,,,,,,,,0.532,0,,,,,,,,,,,,,,,,,,,,,,,,,0.632570659,0.022207268,0,0,0,,,,,,,DOUGH,C,z,y,./images/DOUGH.png,,,,,,,,,,,,,,,,,,,,m,0,0.532,,,,,,,,0,90,90,103,1
,,,,,,,,,,,,,,,,,60fddeb6dfaa94f6424e0916,19,2022-02-12_10h23.51.929,lexical_decision_task_DD_L6,2021.2.3,MacIntel,62.5,,,,,,,,,,,0.509,1,,,,,,,,,,,,,,,,,,,,,,,,,0.632570659,0.022207268,0,0,0,,,,,,,GLOVE,C,m,y,./images/GLOVE.png,,,,,,,,,,,,,,,,,,,,m,1,0.509,,,,,,,,0,91,91,73,1
,,,,,,,,,,,,,,,,,60fddeb6dfaa94f6424e0916,19,2022-02-12_10h23.51.929,lexical_decision_task_DD_L6,2021.2.3,MacIntel,62.5,,,,,,,,,,,0.597,1,,,,,,,,,,,,,,,,,,,,,,,,,0.632570659,0.022207268,0,0,0,,,,,,,PEACH,HB,z,y,./images/PEACHHB.png,,,,,,,,,,,,,,,,,,,,z,1,0.597,,,,,,,,0,92,92,119,1
,,,,,,,,,,,,,,,,,60fddeb6dfaa94f6424e0916,19,2022-02-12_10h23.51.929,lexical_decision_task_DD_L6,2021.2.3,MacIntel,62.5,,,,,,,,,,,0.612,0,,,,,,,,,,,,,,,,,,,,,,,,,0.632570659,0.022207268,0,0,0,,,,,,,TORCH,HB,z,y,./images/TORCHHB.png,,,,,,,,,,,,,,,,,,,,m,0,0.612,,,,,,,,0,93,93,152,1
,,,,,,,,,,,,,,,,,60fddeb6dfaa94f6424e0916,19,2022-02-12_10h23.51.929,lexical_decision_task_DD_L6,2021.2.3,MacIntel,62.5,,,,,,,,,,,0.478,0,,,,,,,,,,,,,,,,,,,,,,,,,0.632570659,0.022207268,0,0,0,,,,,,,WRIST,C,z,y,./images/WRIST.png,,,,,,,,,,,,,,,,,,,,m,0,0.478,,,,,,,,0,94,94,109,1
,,,,,,,,,,,,,,,,,60fddeb6dfaa94f6424e0916,19,2022-02-12_10h23.51.929,lexical_decision_task_DD_L6,2021.2.3,MacIntel,62.5,,,,,,,,,,,0.545,0,,,,,,,,,,,,,,,,,,,,,,,,,0.632570659,0.022207268,0,0,0,,,,,,,CRADLE,HB,z,y,./images/CRADLEHB.png,,,,,,,,,,,,,,,,,,,,m,0,0.545,,,,,,,,0,95,95,104,1
,,,,,,,,,,,,,,,,,60fddeb6dfaa94f6424e0916,19,2022-02-12_10h23.51.929,lexical_decision_task_DD_L6,2021.2.3,MacIntel,62.5,,,,,,,,,,,0.546,0,,,,,,,,,,,,,,,,,,,,,,,,,0.632570659,0.022207268,0,0,0,,,,,,,STRING,HB,z,y,./images/STRINGHB.png,,,,,,,,,,,,,,,,,,,,m,0,0.546,,,,,,,,0,96,96,125,1
,,,,,,,,,,,,,,,,,60fddeb6dfaa94f6424e0916,19,2022-02-12_10h23.51.929,lexical_decision_task_DD_L6,2021.2.3,MacIntel,62.5,,,,,,,,,,,0.978,0,,,,,,,,,,,,,,,,,,,,,,,,,0.632570659,0.022207268,0,0,0,,,,,,,CANYON,C,z,y,./images/CANYON.png,,,,,,,,,,,,,,,,,,,,m,0,0.978,,,,,,,,0,97,97,118,1
,,,,,,,,,,,,,,,,,60fddeb6dfaa94f6424e0916,19,2022-02-12_10h23.51.929,lexical_decision_task_DD_L6,2021.2.3,MacIntel,62.5,,,,,,,,,,,1.596,1,,,,,,,,,,,,,,,,,,,,,,,,,0.632570659,0.022207268,0,0,0,,,,,,,DRILL,LB,m,y,./images/DRILLLB.png,,,,,,,,,,,,,,,,,,,,m,1,1.596,,,,,,,,0,98,98,81,1
,,,,,,,,,,,,,,,,,60fddeb6dfaa94f6424e0916,19,2022-02-12_10h23.51.929,lexical_decision_task_DD_L6,2021.2.3,MacIntel,62.5,,,,,,,,,,,0.583,0,,,,,,,,,,,,,,,,,,,,,,,,,0.632570659,0.022207268,0,0,0,,,,,,,SKIING,HB,z,y,./images/SKIINGHB.png,,,,,,,,,,,,,,,,,,,,m,0,0.583,,,,,,,,0,99,99,101,1
,,,,,,,,,,,,,,,,,60fddeb6dfaa94f6424e0916,19,2022-02-12_10h23.51.929,lexical_decision_task_DD_L6,2021.2.3,MacIntel,62.5,,,,,,,,,,,0.511,0,,,,,,,,,,,,,,,,,,,,,,,,,0.632570659,0.022207268,0,0,0,,,,,,,URINE,C,z,y,./images/URINE.png,,,,,,,,,,,,,,,,,,,,m,0,0.511,,,,,,,,0,100,100,154,1
,,,,,,,,,,,,,,,,,60fddeb6dfaa94f6424e0916,19,2022-02-12_10h23.51.929,lexical_decision_task_DD_L6,2021.2.3,MacIntel,62.5,,,,,,,,,,,0.579,0,,,,,,,,,,,,,,,,,,,,,,,,,0.632570659,0.022207268,0,0,0,,,,,,,SHORE,LB,z,y,./images/SHORELB.png,,,,,,,,,,,,,,,,,,,,m,0,0.579,,,,,,,,0,101,101,96,1
,,,,,,,,,,,,,,,,,60fddeb6dfaa94f6424e0916,19,2022-02-12_10h23.51.929,lexical_decision_task_DD_L6,2021.2.3,MacIntel,62.5,,,,,,,,,,,0.449,1,,,,,,,,,,,,,,,,,,,,,,,,,0.632570659,0.022207268,0,0,0,,,,,,,WALNUT,LB,m,y,./images/WALNUTLB.png,,,,,,,,,,,,,,,,,,,,m,1,0.449,,,,,,,,0,102,102,0,1
,,,,,,,,,,,,,,,,,60fddeb6dfaa94f6424e0916,19,2022-02-12_10h23.51.929,lexical_decision_task_DD_L6,2021.2.3,MacIntel,62.5,,,,,,,,,,,0.543,1,,,,,,,,,,,,,,,,,,,,,,,,,0.632570659,0.022207268,0,0,0,,,,,,,STEAK,C,m,y,./images/STEAK.png,,,,,,,,,,,,,,,,,,,,m,1,0.543,,,,,,,,0,103,103,31,1
,,,,,,,,,,,,,,,,,60fddeb6dfaa94f6424e0916,19,2022-02-12_10h23.51.929,lexical_decision_task_DD_L6,2021.2.3,MacIntel,62.5,,,,,,,,,,,0.522,1,,,,,,,,,,,,,,,,,,,,,,,,,0.632570659,0.022207268,0,0,0,,,,,,,SHIELD,LB,m,y,./images/SHIELDLB.png,,,,,,,,,,,,,,,,,,,,m,1,0.522,,,,,,,,0,104,104,48,1
,,,,,,,,,,,,,,,,,60fddeb6dfaa94f6424e0916,19,2022-02-12_10h23.51.929,lexical_decision_task_DD_L6,2021.2.3,MacIntel,62.5,,,,,,,,,,,0.608,0,,,,,,,,,,,,,,,,,,,,,,,,,0.632570659,0.022207268,0,0,0,,,,,,,INFANT,C,z,y,./images/INFANT.png,,,,,,,,,,,,,,,,,,,,m,0,0.608,,,,,,,,0,105,105,160,1
,,,,,,,,,,,,,,,,,60fddeb6dfaa94f6424e0916,19,2022-02-12_10h23.51.929,lexical_decision_task_DD_L6,2021.2.3,MacIntel,62.5,,,,,,,,,,,0.494,1,,,,,,,,,,,,,,,,,,,,,,,,,0.632570659,0.022207268,0,0,0,,,,,,,WHEEL,HB,m,y,./images/WHEELHB.png,,,,,,,,,,,,,,,,,,,,m,1,0.494,,,,,,,,0,106,106,77,1
,,,,,,,,,,,,,,,,,60fddeb6dfaa94f6424e0916,19,2022-02-12_10h23.51.929,lexical_decision_task_DD_L6,2021.2.3,MacIntel,62.5,,,,,,,,,,,0.563,1,,,,,,,,,,,,,,,,,,,,,,,,,0.632570659,0.022207268,0,0,0,,,,,,,RULER,C,m,y,./images/RULER.png,,,,,,,,,,,,,,,,,,,,m,1,0.563,,,,,,,,0,107,107,79,1
,,,,,,,,,,,,,,,,,60fddeb6dfaa94f6424e0916,19,2022-02-12_10h23.51.929,lexical_decision_task_DD_L6,2021.2.3,MacIntel,62.5,,,,,,,,,,,0.463,1,,,,,,,,,,,,,,,,,,,,,,,,,0.632570659,0.022207268,0,0,0,,,,,,,WAGON,C,m,y,./images/WAGON.png,,,,,,,,,,,,,,,,,,,,m,1,0.463,,,,,,,,0,108,108,7,1
,,,,,,,,,,,,,,,,,60fddeb6dfaa94f6424e0916,19,2022-02-12_10h23.51.929,lexical_decision_task_DD_L6,2021.2.3,MacIntel,62.5,,,,,,,,,,,0.498,1,,,,,,,,,,,,,,,,,,,,,,,,,0.632570659,0.022207268,0,0,0,,,,,,,WHISKY,HB,m,y,./images/WHISKYHB.png,,,,,,,,,,,,,,,,,,,,m,1,0.498,,,,,,,,0,109,109,83,1
,,,,,,,,,,,,,,,,,60fddeb6dfaa94f6424e0916,19,2022-02-12_10h23.51.929,lexical_decision_task_DD_L6,2021.2.3,MacIntel,62.5,,,,,,,,,,,0.448,1,,,,,,,,,,,,,,,,,,,,,,,,,0.632570659,0.022207268,0,0,0,,,,,,,BASKET,HB,m,y,./images/BASKETHB.png,,,,,,,,,,,,,,,,,,,,m,1,0.448,,,,,,,,0,110,110,44,1
,,,,,,,,,,,,,,,,,60fddeb6dfaa94f6424e0916,19,2022-02-12_10h23.51.929,lexical_decision_task_DD_L6,2021.2.3,MacIntel,62.5,,,,,,,,,,,0.496,0,,,,,,,,,,,,,,,,,,,,,,,,,0.632570659,0.022207268,0,0,0,,,,,,,PLANK,C,z,y,./images/PLANK.png,,,,,,,,,,,,,,,,,,,,m,0,0.496,,,,,,,,0,111,111,85,1
,,,,,,,,,,,,,,,,,60fddeb6dfaa94f6424e0916,19,2022-02-12_10h23.51.929,lexical_decision_task_DD_L6,2021.2.3,MacIntel,62.5,,,,,,,,,,,0.595,1,,,,,,,,,,,,,,,,,,,,,,,,,0.632570659,0.022207268,0,0,0,,,,,,,BOXER,C,m,y,./images/BOXER.png,,,,,,,,,,,,,,,,,,,,m,1,0.595,,,,,,,,0,112,112,4,1
,,,,,,,,,,,,,,,,,60fddeb6dfaa94f6424e0916,19,2022-02-12_10h23.51.929,lexical_decision_task_DD_L6,2021.2.3,MacIntel,62.5,,,,,,,,,,,0.526,0,,,,,,,,,,,,,,,,,,,,,,,,,0.632570659,0.022207268,0,0,0,,,,,,,FINGER,LB,z,y,./images/FINGERLB.png,,,,,,,,,,,,,,,,,,,,m,0,0.526,,,,,,,,0,113,113,87,1
,,,,,,,,,,,,,,,,,60fddeb6dfaa94f6424e0916,19,2022-02-12_10h23.51.929,lexical_decision_task_DD_L6,2021.2.3,MacIntel,62.5,,,,,,,,,,,0.512,1,,,,,,,,,,,,,,,,,,,,,,,,,0.632570659,0.022207268,0,0,0,,,,,,,CHERRY,LB,m,y,./images/CHERRYLB.png,,,,,,,,,,,,,,,,,,,,m,1,0.512,,,,,,,,0,114,114,54,1
,,,,,,,,,,,,,,,,,60fddeb6dfaa94f6424e0916,19,2022-02-12_10h23.51.929,lexical_decision_task_DD_L6,2021.2.3,MacIntel,62.5,,,,,,,,,,,0.695,1,,,,,,,,,,,,,,,,,,,,,,,,,0.632570659,0.022207268,0,0,0,,,,,,,SAUNA,LB,m,y,./images/SAUNALB.png,,,,,,,,,,,,,,,,,,,,m,1,0.695,,,,,,,,0,115,115,33,1
,,,,,,,,,,,,,,,,,60fddeb6dfaa94f6424e0916,19,2022-02-12_10h23.51.929,lexical_decision_task_DD_L6,2021.2.3,MacIntel,62.5,,,,,,,,,,,0.713,1,,,,,,,,,,,,,,,,,,,,,,,,,0.632570659,0.022207268,0,0,0,,,,,,,TWINS,LB,z,y,./images/TWINSLB.png,,,,,,,,,,,,,,,,,,,,z,1,0.713,,,,,,,,0,116,116,144,1
,,,,,,,,,,,,,,,,,60fddeb6dfaa94f6424e0916,19,2022-02-12_10h23.51.929,lexical_decision_task_DD_L6,2021.2.3,MacIntel,62.5,,,,,,,,,,,0.51,1,,,,,,,,,,,,,,,,,,,,,,,,,0.632570659,0.022207268,0,0,0,,,,,,,BAMBOO,HB,m,y,./images/BAMBOOHB.png,,,,,,,,,,,,,,,,,,,,m,1,0.51,,,,,,,,0,117,117,5,1
,,,,,,,,,,,,,,,,,60fddeb6dfaa94f6424e0916,19,2022-02-12_10h23.51.929,lexical_decision_task_DD_L6,2021.2.3,MacIntel,62.5,,,,,,,,,,,0.644,0,,,,,,,,,,,,,,,,,,,,,,,,,0.632570659,0.022207268,0,0,0,,,,,,,DRUMS,C,z,y,./images/DRUMS.png,,,,,,,,,,,,,,,,,,,,m,0,0.644,,,,,,,,0,118,118,133,1
,,,,,,,,,,,,,,,,,60fddeb6dfaa94f6424e0916,19,2022-02-12_10h23.51.929,lexical_decision_task_DD_L6,2021.2.3,MacIntel,62.5,,,,,,,,,,,0.527,0,,,,,,,,,,,,,,,,,,,,,,,,,0.632570659,0.022207268,0,0,0,,,,,,,PEARL,C,z,y,./images/PEARL.png,,,,,,,,,,,,,,,,,,,,m,0,0.527,,,,,,,,0,119,119,130,1
,,,,,,,,,,,,,,,,,60fddeb6dfaa94f6424e0916,19,2022-02-12_10h23.51.929,lexical_decision_task_DD_L6,2021.2.3,MacIntel,62.5,,,,,,,,,,,0.694,0,,,,,,,,,,,,,,,,,,,,,,,,,0.632570659,0.022207268,0,0,0,,,,,,,JAGUAR,LB,z,y,./images/JAGUARLB.png,,,,,,,,,,,,,,,,,,,,m,0,0.694,,,,,,,,0,120,120,102,1
,,,,,,,,,,,,,,,,,60fddeb6dfaa94f6424e0916,19,2022-02-12_10h23.51.929,lexical_decision_task_DD_L6,2021.2.3,MacIntel,62.5,,,,,,,,,,,0.494,0,,,,,,,,,,,,,,,,,,,,,,,,,0.632570659,0.022207268,0,0,0,,,,,,,SUNSET,C,z,y,./images/SUNSET.png,,,,,,,,,,,,,,,,,,,,m,0,0.494,,,,,,,,0,121,121,166,1
,,,,,,,,,,,,,,,,,60fddeb6dfaa94f6424e0916,19,2022-02-12_10h23.51.929,lexical_decision_task_DD_L6,2021.2.3,MacIntel,62.5,,,,,,,,,,,0.48,1,,,,,,,,,,,,,,,,,,,,,,,,,0.632570659,0.022207268,0,0,0,,,,,,,SAUCE,LB,m,y,./images/SAUCELB.png,,,,,,,,,,,,,,,,,,,,m,1,0.48,,,,,,,,0,122,122,51,1
,,,,,,,,,,,,,,,,,60fddeb6dfaa94f6424e0916,19,2022-02-12_10h23.51.929,lexical_decision_task_DD_L6,2021.2.3,MacIntel,62.5,,,,,,,,,,,0.563,0,,,,,,,,,,,,,,,,,,,,,,,,,0.632570659,0.022207268,0,0,0,,,,,,,ATTIC,LB,z,y,./images/ATTICLB.png,,,,,,,,,,,,,,,,,,,,m,0,0.563,,,,,,,,0,123,123,111,1
,,,,,,,,,,,,,,,,,60fddeb6dfaa94f6424e0916,19,2022-02-12_10h23.51.929,lexical_decision_task_DD_L6,2021.2.3,MacIntel,62.5,,,,,,,,,,,0.512,0,,,,,,,,,,,,,,,,,,,,,,,,,0.632570659,0.022207268,0,0,0,,,,,,,CRUMB,HB,z,y,./images/CRUMBHB.png,,,,,,,,,,,,,,,,,,,,m,0,0.512,,,,,,,,0,124,124,113,1
,,,,,,,,,,,,,,,,,60fddeb6dfaa94f6424e0916,19,2022-02-12_10h23.51.929,lexical_decision_task_DD_L6,2021.2.3,MacIntel,62.5,,,,,,,,,,,0.545,1,,,,,,,,,,,,,,,,,,,,,,,,,0.632570659,0.022207268,0,0,0,space,,,,,,BAKER,LB,m,y,./images/BAKERLB.png,0.818,,,,,,,,,,,,,,,,,,,m,1,0.545,,,,,,,,0,125,125,63,1
,,,,,,,,,,,,,,,,,60fddeb6dfaa94f6424e0916,19,2022-02-12_10h23.51.929,lexical_decision_task_DD_L6,2021.2.3,MacIntel,62.5,,,,,,,,,,,0.477,0,,,,,,,,,,,,,,,,,,,,,,,,,0.632570659,0.022207268,0,0,0,,,,,,,SWEAT,LB,z,y,./images/SWEATLB.png,,,,,,,,,,,,,,,,,,,,m,0,0.477,,,,,,,,0,126,126,150,1
,,,,,,,,,,,,,,,,,60fddeb6dfaa94f6424e0916,19,2022-02-12_10h23.51.929,lexical_decision_task_DD_L6,2021.2.3,MacIntel,62.5,,,,,,,,,,,0.462,0,,,,,,,,,,,,,,,,,,,,,,,,,0.632570659,0.022207268,0,0,0,,,,,,,THROAT,LB,z,y,./images/THROATLB.png,,,,,,,,,,,,,,,,,,,,m,0,0.462,,,,,,,,0,127,127,120,1
,,,,,,,,,,,,,,,,,60fddeb6dfaa94f6424e0916,19,2022-02-12_10h23.51.929,lexical_decision_task_DD_L6,2021.2.3,MacIntel,62.5,,,,,,,,,,,0.41,1,,,,,,,,,,,,,,,,,,,,,,,,,0.632570659,0.022207268,0,0,0,,,,,,,STOOL,C,m,y,./images/STOOL.png,,,,,,,,,,,,,,,,,,,,m,1,0.41,,,,,,,,0,128,128,43,1
,,,,,,,,,,,,,,,,,60fddeb6dfaa94f6424e0916,19,2022-02-12_10h23.51.929,lexical_decision_task_DD_L6,2021.2.3,MacIntel,62.5,,,,,,,,,,,0.827,1,,,,,,,,,,,,,,,,,,,,,,,,,0.632570659,0.022207268,0,0,0,,,,,,,MOSQUE,C,z,y,./images/MOSQUE.png,,,,,,,,,,,,,,,,,,,,z,1,0.827,,,,,,,,0,129,129,127,1
,,,,,,,,,,,,,,,,,60fddeb6dfaa94f6424e0916,19,2022-02-12_10h23.51.929,lexical_decision_task_DD_L6,2021.2.3,MacIntel,62.5,,,,,,,,,,,0.525,1,,,,,,,,,,,,,,,,,,,,,,,,,0.632570659,0.022207268,0,0,0,,,,,,,HEATER,HB,m,y,./images/HEATERHB.png,,,,,,,,,,,,,,,,,,,,m,1,0.525,,,,,,,,0,130,130,56,1
,,,,,,,,,,,,,,,,,60fddeb6dfaa94f6424e0916,19,2022-02-12_10h23.51.929,lexical_decision_task_DD_L6,2021.2.3,MacIntel,62.5,,,,,,,,,,,0.511,0,,,,,,,,,,,,,,,,,,,,,,,,,0.632570659,0.022207268,0,0,0,,,,,,,JELLY,C,z,y,./images/JELLY.png,,,,,,,,,,,,,,,,,,,,m,0,0.511,,,,,,,,0,131,131,148,1
,,,,,,,,,,,,,,,,,60fddeb6dfaa94f6424e0916,19,2022-02-12_10h23.51.929,lexical_decision_task_DD_L6,2021.2.3,MacIntel,62.5,,,,,,,,,,,0.91,1,,,,,,,,,,,,,,,,,,,,,,,,,0.632570659,0.022207268,0,0,0,,,,,,,BELLY,C,z,y,./images/BELLY.png,,,,,,,,,,,,,,,,,,,,z,1,0.91,,,,,,,,0,132,132,94,1
,,,,,,,,,,,,,,,,,60fddeb6dfaa94f6424e0916,19,2022-02-12_10h23.51.929,lexical_decision_task_DD_L6,2021.2.3,MacIntel,62.5,,,,,,,,,,,0.54,0,,,,,,,,,,,,,,,,,,,,,,,,,0.632570659,0.022207268,0,0,0,,,,,,,WEASEL,HB,z,y,./images/WEASELHB.png,,,,,,,,,,,,,,,,,,,,m,0,0.54,,,,,,,,0,133,133,164,1
,,,,,,,,,,,,,,,,,60fddeb6dfaa94f6424e0916,19,2022-02-12_10h23.51.929,lexical_decision_task_DD_L6,2021.2.3,MacIntel,62.5,,,,,,,,,,,1.045,0,,,,,,,,,,,,,,,,,,,,,,,,,0.632570659,0.022207268,0,0,0,,,,,,,GREASE,LB,z,y,./images/GREASELB.png,,,,,,,,,,,,,,,,,,,,m,0,1.045,,,,,,,,0,134,134,99,1
,,,,,,,,,,,,,,,,,60fddeb6dfaa94f6424e0916,19,2022-02-12_10h23.51.929,lexical_decision_task_DD_L6,2021.2.3,MacIntel,62.5,,,,,,,,,,,0.745,1,,,,,,,,,,,,,,,,,,,,,,,,,0.632570659,0.022207268,0,0,0,,,,,,,POKER,C,m,y,./images/POKER.png,,,,,,,,,,,,,,,,,,,,m,1,0.745,,,,,,,,0,135,135,67,1
,,,,,,,,,,,,,,,,,60fddeb6dfaa94f6424e0916,19,2022-02-12_10h23.51.929,lexical_decision_task_DD_L6,2021.2.3,MacIntel,62.5,,,,,,,,,,,0.776,1,,,,,,,,,,,,,,,,,,,,,,,,,0.632570659,0.022207268,0,0,0,,,,,,,FENCE,HB,m,y,./images/FENCEHB.png,,,,,,,,,,,,,,,,,,,,m,1,0.776,,,,,,,,0,136,136,14,1
,,,,,,,,,,,,,,,,,60fddeb6dfaa94f6424e0916,19,2022-02-12_10h23.51.929,lexical_decision_task_DD_L6,2021.2.3,MacIntel,62.5,,,,,,,,,,,0.741,1,,,,,,,,,,,,,,,,,,,,,,,,,0.632570659,0.022207268,0,0,0,,,,,,,RAZOR,C,m,y,./images/RAZOR.png,,,,,,,,,,,,,,,,,,,,m,1,0.741,,,,,,,,0,137,137,34,1
,,,,,,,,,,,,,,,,,60fddeb6dfaa94f6424e0916,19,2022-02-12_10h23.51.929,lexical_decision_task_DD_L6,2021.2.3,MacIntel,62.5,,,,,,,,,,,0.821,0,,,,,,,,,,,,,,,,,,,,,,,,,0.632570659,0.022207268,0,0,0,,,,,,,SWING,C,z,y,./images/SWING.png,,,,,,,,,,,,,,,,,,,,m,0,0.821,,,,,,,,0,138,138,124,1
,,,,,,,,,,,,,,,,,60fddeb6dfaa94f6424e0916,19,2022-02-12_10h23.51.929,lexical_decision_task_DD_L6,2021.2.3,MacIntel,62.5,,,,,,,,,,,0.41,0,,,,,,,,,,,,,,,,,,,,,,,,,0.632570659,0.022207268,0,0,0,,,,,,,NOOSE,LB,z,y,./images/NOOSELB.png,,,,,,,,,,,,,,,,,,,,m,0,0.41,,,,,,,,0,139,139,156,1
