key_resp.keys,instr_done_touch.x,instr_done_touch.y,instr_done_touch.leftButton,instr_done_touch.midButton,instr_done_touch.rightButton,instr_done_touch.clicked_name,instruction_pages.thisRepN,instruction_pages.thisTrialN,instruction_pages.thisN,instruction_pages.thisIndex,instruction_pages.ran,pageN,phase,instruct_text,has_image,instruct_image,participant,age,date,expName,psychopyVersion,OS,frameRate,response.keys,response.corr,touch_resp.x,touch_resp.y,touch_resp.leftButton,touch_resp.midButton,touch_resp.rightButton,touch_resp.time,touch_resp.clicked_name,rt,corr,practrials.thisRepN,practrials.thisTrialN,practrials.thisN,practrials.thisIndex,practrials.ran,TrialID,Target,corrAns,end_of_practice_trials_pages.thisRepN,end_of_practice_trials_pages.thisTrialN,end_of_practice_trials_pages.thisN,end_of_practice_trials_pages.thisIndex,end_of_practice_trials_pages.ran,key_resp_2.keys,key_resp_2.corr,targ_click.x,targ_click.y,targ_click.leftButton,targ_click.midButton,targ_click.rightButton,targ_click.time,targ_click.clicked_name,break_done_touch.x,break_done_touch.y,break_done_touch.leftButton,break_done_touch.midButton,break_done_touch.rightButton,break_done_keyboard.keys,maintrials.thisRepN,maintrials.thisTrialN,maintrials.thisN,maintrials.thisIndex,maintrials.ran,string,blur,study,lex,stim_path,break_done_touch.clicked_name,mouse_2.x,mouse_2.y,mouse_2.leftButton,mouse_2.midButton,mouse_2.rightButton,mouse_2.clicked_name,slider.response,slider.rt,trials.thisRepN,trials.thisTrialN,trials.thisN,trials.thisIndex,trials.ran,test_instructions.thisRepN,test_instructions.thisTrialN,test_instructions.thisN,test_instructions.thisIndex,test_instructions.ran,key_resp_3.keys,key_resp_3.corr,test_click.x,test_click.y,test_click.leftButton,test_click.midButton,test_click.rightButton,test_click.time,test_click.clicked_name,test_phase.thisRepN,test_phase.thisTrialN,test_phase.thisN,test_phase.thisIndex,test_phase.ran
,0.001199041,-0.392086331,1,0,0,instr_done_button,0,0,0,0,1,1,instructions,"INSTRUCTIONS
At the start of each trial, look at the plus sign  (+) in the center of the screen.  This tells you that a trial is about to begin and where to look. Second, the plus sign will disappear and a string of letters will appear. Your task is to determine if the string of letters is a word or not. If the item is a word press the M key (on keyboard)  or touch the word button (phone/tablet).  If the item is not a word,  press the  Z key (on keyboard)  or touch the nonword button (on phone/tablet). 
Press the space bar or touch  continue.",0,,60fd344157cabc293d69bd4b,52,2022-02-12_13h26.18.948,lexical_decision_task_DD_L3,2021.2.3,MacIntel,58.82352941,,,,,,,,,,,,,,,,,,,,,,,,,,,,,,,,,,,,,,,,,,,,,,,,,,,,,,,,,,,,,,,,,,,,,,,,,,,,,,,,,,
,0.04676259,-0.398081535,1,0,0,instr_done_button,0,1,1,1,1,2,instructions,"If your device has a keyboard, press the 'Z' key for nonwords and the 'M' key for words.





Press the space bar or touch the button below to continue.",0,keyboard-example.gif,60fd344157cabc293d69bd4b,52,2022-02-12_13h26.18.948,lexical_decision_task_DD_L3,2021.2.3,MacIntel,58.82352941,,,,,,,,,,,,,,,,,,,,,,,,,,,,,,,,,,,,,,,,,,,,,,,,,,,,,,,,,,,,,,,,,,,,,,,,,,,,,,,,,,
,0.010791367,-0.383693046,1,0,0,instr_done_button,0,2,2,2,1,3,instructions,"If you are using a touchscreen only device, use the buttons on the screen. Do not use the mouse.





Press the space bar or touch the button below to continue.",0,touchscreen-example.gif,60fd344157cabc293d69bd4b,52,2022-02-12_13h26.18.948,lexical_decision_task_DD_L3,2021.2.3,MacIntel,58.82352941,,,,,,,,,,,,,,,,,,,,,,,,,,,,,,,,,,,,,,,,,,,,,,,,,,,,,,,,,,,,,,,,,,,,,,,,,,,,,,,,,,
,0.050359712,-0.386091127,1,0,0,instr_done_button,0,3,3,3,1,4,instructions,"It is very important that you respond as quickly and accurately as possible, as each letter string will only be on the screen for two seconds. If you do not respond within this time, the message 'Too slow!' will be displayed and the experiment will progress to the next letter string. The first 20 trials will be practice trials and you will receive feedback on your answers. 

Press the space bar or touch the button below to start the practice trials.",0,,60fd344157cabc293d69bd4b,52,2022-02-12_13h26.18.948,lexical_decision_task_DD_L3,2021.2.3,MacIntel,58.82352941,,,,,,,,,,,,,,,,,,,,,,,,,,,,,,,,,,,,,,,,,,,,,,,,,,,,,,,,,,,,,,,,,,,,,,,,,,,,,,,,,,
,,,,,,,,,,,,,,,,,60fd344157cabc293d69bd4b,52,2022-02-12_13h26.18.948,lexical_decision_task_DD_L3,2021.2.3,MacIntel,58.82352941,,0,0.419664269,-0.329736211,1,0,0,1.335,button_right,1.335,1,0,0,0,2,1,1001,ALMOND,m,,,,,,,,,,,,,,,,,,,,,,,,,,,,,,,,,,,,,,,,,,,,,,,,,,,,,,,,,,,,,,,
,,,,,,,,,,,,,,,,,60fd344157cabc293d69bd4b,52,2022-02-12_13h26.18.948,lexical_decision_task_DD_L3,2021.2.3,MacIntel,58.82352941,,0,-0.505995204,-0.321342926,1,0,0,1.045,button_left,1.045,1,0,1,1,9,1,1001,FARINY,z,,,,,,,,,,,,,,,,,,,,,,,,,,,,,,,,,,,,,,,,,,,,,,,,,,,,,,,,,,,,,,,
,,,,,,,,,,,,,,,,,60fd344157cabc293d69bd4b,52,2022-02-12_13h26.18.948,lexical_decision_task_DD_L3,2021.2.3,MacIntel,58.82352941,,0,-0.498800959,-0.363309353,1,0,0,0.902,button_left,0.902,1,0,2,2,8,1,1001,ASLERT,z,,,,,,,,,,,,,,,,,,,,,,,,,,,,,,,,,,,,,,,,,,,,,,,,,,,,,,,,,,,,,,,
,,,,,,,,,,,,,,,,,60fd344157cabc293d69bd4b,52,2022-02-12_13h26.18.948,lexical_decision_task_DD_L3,2021.2.3,MacIntel,58.82352941,,0,0.423261391,-0.278177458,1,0,0,0.916,button_right,0.916,1,0,3,3,6,1,1001,ZOMBIE,m,,,,,,,,,,,,,,,,,,,,,,,,,,,,,,,,,,,,,,,,,,,,,,,,,,,,,,,,,,,,,,,
,,,,,,,,,,,,,,,,,60fd344157cabc293d69bd4b,52,2022-02-12_13h26.18.948,lexical_decision_task_DD_L3,2021.2.3,MacIntel,58.82352941,,0,-0.507194245,-0.327338129,1,0,0,1.017,button_left,1.017,1,0,4,4,14,1,1001,THRALE,z,,,,,,,,,,,,,,,,,,,,,,,,,,,,,,,,,,,,,,,,,,,,,,,,,,,,,,,,,,,,,,,
,,,,,,,,,,,,,,,,,60fd344157cabc293d69bd4b,52,2022-02-12_13h26.18.948,lexical_decision_task_DD_L3,2021.2.3,MacIntel,58.82352941,,0,0.410071942,-0.291366906,1,0,0,0.851,button_right,0.851,1,0,5,5,4,1,1001,SQUEAK,m,,,,,,,,,,,,,,,,,,,,,,,,,,,,,,,,,,,,,,,,,,,,,,,,,,,,,,,,,,,,,,,
,,,,,,,,,,,,,,,,,60fd344157cabc293d69bd4b,52,2022-02-12_13h26.18.948,lexical_decision_task_DD_L3,2021.2.3,MacIntel,58.82352941,,0,-0.486810552,-0.336930456,1,0,0,0.952,button_left,0.952,1,0,6,6,11,1,1001,RASHET,z,,,,,,,,,,,,,,,,,,,,,,,,,,,,,,,,,,,,,,,,,,,,,,,,,,,,,,,,,,,,,,,
,,,,,,,,,,,,,,,,,60fd344157cabc293d69bd4b,52,2022-02-12_13h26.18.948,lexical_decision_task_DD_L3,2021.2.3,MacIntel,58.82352941,,0,-0.482014388,-0.322541966,1,0,0,1.009,button_left,1.009,1,0,7,7,13,1,1001,ROUPET,z,,,,,,,,,,,,,,,,,,,,,,,,,,,,,,,,,,,,,,,,,,,,,,,,,,,,,,,,,,,,,,,
,,,,,,,,,,,,,,,,,60fd344157cabc293d69bd4b,52,2022-02-12_13h26.18.948,lexical_decision_task_DD_L3,2021.2.3,MacIntel,58.82352941,,0,-0.504796163,-0.336930456,1,0,0,1.036,button_left,1.036,1,0,8,8,12,1,1001,SPRINY,z,,,,,,,,,,,,,,,,,,,,,,,,,,,,,,,,,,,,,,,,,,,,,,,,,,,,,,,,,,,,,,,
,,,,,,,,,,,,,,,,,60fd344157cabc293d69bd4b,52,2022-02-12_13h26.18.948,lexical_decision_task_DD_L3,2021.2.3,MacIntel,58.82352941,,0,0.428057554,-0.299760192,1,0,0,0.847,button_right,0.847,1,0,9,9,3,1,1001,MATRIX,m,,,,,,,,,,,,,,,,,,,,,,,,,,,,,,,,,,,,,,,,,,,,,,,,,,,,,,,,,,,,,,,
,,,,,,,,,,,,,,,,,60fd344157cabc293d69bd4b,52,2022-02-12_13h26.18.948,lexical_decision_task_DD_L3,2021.2.3,MacIntel,58.82352941,,0,-0.48441247,-0.309352518,1,0,0,1.039,button_left,1.039,1,0,10,10,15,1,1001,WHAISE,z,,,,,,,,,,,,,,,,,,,,,,,,,,,,,,,,,,,,,,,,,,,,,,,,,,,,,,,,,,,,,,,
,,,,,,,,,,,,,,,,,60fd344157cabc293d69bd4b,52,2022-02-12_13h26.18.948,lexical_decision_task_DD_L3,2021.2.3,MacIntel,58.82352941,,0,0.407673861,-0.302158273,1,0,0,0.906,button_right,0.906,1,0,11,11,0,1,1001,UTOPIA,m,,,,,,,,,,,,,,,,,,,,,,,,,,,,,,,,,,,,,,,,,,,,,,,,,,,,,,,,,,,,,,,
,,,,,,,,,,,,,,,,,60fd344157cabc293d69bd4b,52,2022-02-12_13h26.18.948,lexical_decision_task_DD_L3,2021.2.3,MacIntel,58.82352941,,0,0.417266187,-0.282973621,1,0,0,0.856,button_right,0.856,1,0,12,12,1,1,1001,ADJUST,m,,,,,,,,,,,,,,,,,,,,,,,,,,,,,,,,,,,,,,,,,,,,,,,,,,,,,,,,,,,,,,,
,,,,,,,,,,,,,,,,,60fd344157cabc293d69bd4b,52,2022-02-12_13h26.18.948,lexical_decision_task_DD_L3,2021.2.3,MacIntel,58.82352941,,0,0.414868106,-0.303357314,1,0,0,1.023,button_right,1.023,0,0,13,13,10,1,1001,INLADE,z,,,,,,,,,,,,,,,,,,,,,,,,,,,,,,,,,,,,,,,,,,,,,,,,,,,,,,,,,,,,,,,
,,,,,,,,,,,,,,,,,60fd344157cabc293d69bd4b,52,2022-02-12_13h26.18.948,lexical_decision_task_DD_L3,2021.2.3,MacIntel,58.82352941,,0,0.417266187,-0.299760192,1,0,0,0.939,button_right,0.939,1,0,14,14,5,1,1001,OBTAIN,m,,,,,,,,,,,,,,,,,,,,,,,,,,,,,,,,,,,,,,,,,,,,,,,,,,,,,,,,,,,,,,,
,,,,,,,,,,,,,,,,,60fd344157cabc293d69bd4b,52,2022-02-12_13h26.18.948,lexical_decision_task_DD_L3,2021.2.3,MacIntel,58.82352941,,0,0.394484412,-0.305755396,1,0,0,0.831,button_right,0.831,1,0,15,15,7,1,1001,VOLUME,m,,,,,,,,,,,,,,,,,,,,,,,,,,,,,,,,,,,,,,,,,,,,,,,,,,,,,,,,,,,,,,,
,0.081534772,-0.413669065,1,0,0,instr_done_button,,,,,,1,end_of_practice,"You have completed the practice trials. During the experimental trials, you will not receive feedback. 
Before you begin, please ensure that you are in a comfortable and quiet location and will not be disturbed for about 15 minutes, as we cannot use your data if you do not complete all the trials. 
 When you are ready to start the experimental trials, please press space or touch the button below.",,,60fd344157cabc293d69bd4b,52,2022-02-12_13h26.18.948,lexical_decision_task_DD_L3,2021.2.3,MacIntel,58.82352941,,,,,,,,,,,,,,,,,,,,0,0,0,0,1,,,,,,,,,,,,,,,,,,,,,,,,,,,,,,,,,,,,,,,,,,,,,,,,,,,,,,,,,,
,,,,,,,,,,,,,,,,,60fd344157cabc293d69bd4b,52,2022-02-12_13h26.18.948,lexical_decision_task_DD_L3,2021.2.3,MacIntel,58.82352941,,,,,,,,,,1.811,1,,,,,,,,,,,,,,,0,0.452038369,-0.332134293,1,0,0,1.811,button_right_main,0.452038369,-0.332134293,1,0,0,,0,0,0,44,1,LIZARD,HB,old,m,./images/LIZARDHB.png,,,,,,,,,,,,,,,,,,,,,,,,,,,,,,,,,
,,,,,,,,,,,,,,,,,60fd344157cabc293d69bd4b,52,2022-02-12_13h26.18.948,lexical_decision_task_DD_L3,2021.2.3,MacIntel,58.82352941,,,,,,,,,,0.95,1,,,,,,,,,,,,,,,0,0.435251799,-0.3117506,1,0,0,0.95,button_right_main,0.435251799,-0.3117506,1,0,0,,0,1,1,40,1,SWING,C,old,m,./images/SWING.png,,,,,,,,,,,,,,,,,,,,,,,,,,,,,,,,,
,,,,,,,,,,,,,,,,,60fd344157cabc293d69bd4b,52,2022-02-12_13h26.18.948,lexical_decision_task_DD_L3,2021.2.3,MacIntel,58.82352941,,,,,,,,,,0.743,1,,,,,,,,,,,,,,,0,0.443645084,-0.314148681,1,0,0,0.743,button_right_main,0.443645084,-0.314148681,1,0,0,,0,2,2,67,1,SAILOR,C,old,m,./images/SAILOR.png,,,,,,,,,,,,,,,,,,,,,,,,,,,,,,,,,
,,,,,,,,,,,,,,,,,60fd344157cabc293d69bd4b,52,2022-02-12_13h26.18.948,lexical_decision_task_DD_L3,2021.2.3,MacIntel,58.82352941,,,,,,,,,,0.768,1,,,,,,,,,,,,,,,0,0.450839329,-0.322541966,1,0,0,0.768,button_right_main,0.450839329,-0.322541966,1,0,0,,0,3,3,73,1,SNACK,C,old,m,./images/SNACK.png,,,,,,,,,,,,,,,,,,,,,,,,,,,,,,,,,
,,,,,,,,,,,,,,,,,60fd344157cabc293d69bd4b,52,2022-02-12_13h26.18.948,lexical_decision_task_DD_L3,2021.2.3,MacIntel,58.82352941,,,,,,,,,,0.956,1,,,,,,,,,,,,,,,0,-0.502398082,-0.299760192,1,0,0,0.956,button_left_main,-0.502398082,-0.299760192,1,0,0,,0,4,4,102,1,DULLE,C,old,z,./images/DULLE.png,,,,,,,,,,,,,,,,,,,,,,,,,,,,,,,,,
,,,,,,,,,,,,,,,,,60fd344157cabc293d69bd4b,52,2022-02-12_13h26.18.948,lexical_decision_task_DD_L3,2021.2.3,MacIntel,58.82352941,,,,,,,,,,1.251,1,,,,,,,,,,,,,,,0,0.454436451,-0.31294964,1,0,0,1.251,button_right_main,0.454436451,-0.31294964,1,0,0,,0,5,5,71,1,PIMPLE,HB,old,m,./images/PIMPLEHB.png,,,,,,,,,,,,,,,,,,,,,,,,,,,,,,,,,
,,,,,,,,,,,,,,,,,60fd344157cabc293d69bd4b,52,2022-02-12_13h26.18.948,lexical_decision_task_DD_L3,2021.2.3,MacIntel,58.82352941,,,,,,,,,,1.018,1,,,,,,,,,,,,,,,0,-0.498800959,-0.304556355,1,0,0,1.018,button_left_main,-0.498800959,-0.304556355,1,0,0,,0,6,6,141,1,PLEET,C,old,z,./images/PLEET.png,,,,,,,,,,,,,,,,,,,,,,,,,,,,,,,,,
,,,,,,,,,,,,,,,,,60fd344157cabc293d69bd4b,52,2022-02-12_13h26.18.948,lexical_decision_task_DD_L3,2021.2.3,MacIntel,58.82352941,,,,,,,,,,0.826,0,,,,,,,,,,,,,,,0,0.46882494,-0.3117506,1,0,0,0.826,button_right_main,0.46882494,-0.3117506,1,0,0,,0,7,7,128,1,GRIFT,LB,old,z,./images/GRIFTLB.png,,,,,,,,,,,,,,,,,,,,,,,,,,,,,,,,,
,,,,,,,,,,,,,,,,,60fd344157cabc293d69bd4b,52,2022-02-12_13h26.18.948,lexical_decision_task_DD_L3,2021.2.3,MacIntel,58.82352941,,,,,,,,,,1.302,1,,,,,,,,,,,,,,,0,0.454436451,-0.310551559,1,0,0,1.302,button_right_main,0.454436451,-0.310551559,1,0,0,,0,8,8,47,1,BERRY,HB,old,m,./images/BERRYHB.png,,,,,,,,,,,,,,,,,,,,,,,,,,,,,,,,,
,,,,,,,,,,,,,,,,,60fd344157cabc293d69bd4b,52,2022-02-12_13h26.18.948,lexical_decision_task_DD_L3,2021.2.3,MacIntel,58.82352941,,,,,,,,,,1.058,1,,,,,,,,,,,,,,,0,-0.496402878,-0.298561151,1,0,0,1.058,button_left_main,-0.496402878,-0.298561151,1,0,0,,0,9,9,143,1,MONGS,LB,old,z,./images/MONGSLB.png,,,,,,,,,,,,,,,,,,,,,,,,,,,,,,,,,
,,,,,,,,,,,,,,,,,60fd344157cabc293d69bd4b,52,2022-02-12_13h26.18.948,lexical_decision_task_DD_L3,2021.2.3,MacIntel,58.82352941,,,,,,,,,,0.718,1,,,,,,,,,,,,,,,0,0.465227818,-0.306954436,1,0,0,0.718,button_right_main,0.465227818,-0.306954436,1,0,0,,0,10,10,31,1,QUILL,C,old,m,./images/QUILL.png,,,,,,,,,,,,,,,,,,,,,,,,,,,,,,,,,
,,,,,,,,,,,,,,,,,60fd344157cabc293d69bd4b,52,2022-02-12_13h26.18.948,lexical_decision_task_DD_L3,2021.2.3,MacIntel,58.82352941,,,,,,,,,,1.219,1,,,,,,,,,,,,,,,0,0.479616307,-0.308153477,1,0,0,1.219,button_right_main,0.479616307,-0.308153477,1,0,0,,0,11,11,62,1,PURSE,HB,old,m,./images/PURSEHB.png,,,,,,,,,,,,,,,,,,,,,,,,,,,,,,,,,
,,,,,,,,,,,,,,,,,60fd344157cabc293d69bd4b,52,2022-02-12_13h26.18.948,lexical_decision_task_DD_L3,2021.2.3,MacIntel,58.82352941,,,,,,,,,,0.742,1,,,,,,,,,,,,,,,0,0.46882494,-0.305755396,1,0,0,0.742,button_right_main,0.46882494,-0.305755396,1,0,0,,0,12,12,39,1,SHELF,LB,old,m,./images/SHELFLB.png,,,,,,,,,,,,,,,,,,,,,,,,,,,,,,,,,
,,,,,,,,,,,,,,,,,60fd344157cabc293d69bd4b,52,2022-02-12_13h26.18.948,lexical_decision_task_DD_L3,2021.2.3,MacIntel,58.82352941,,,,,,,,,,0.92,1,,,,,,,,,,,,,,,0,-0.516786571,-0.300959233,1,0,0,0.92,button_left_main,-0.516786571,-0.300959233,1,0,0,,0,13,13,92,1,PAIMS,LB,old,z,./images/PAIMSLB.png,,,,,,,,,,,,,,,,,,,,,,,,,,,,,,,,,
,,,,,,,,,,,,,,,,,60fd344157cabc293d69bd4b,52,2022-02-12_13h26.18.948,lexical_decision_task_DD_L3,2021.2.3,MacIntel,58.82352941,,,,,,,,,,1.005,1,,,,,,,,,,,,,,,0,0.46882494,-0.302158273,1,0,0,1.005,button_right_main,0.46882494,-0.302158273,1,0,0,,0,14,14,56,1,PACKET,HB,old,m,./images/PACKETHB.png,,,,,,,,,,,,,,,,,,,,,,,,,,,,,,,,,
,,,,,,,,,,,,,,,,,60fd344157cabc293d69bd4b,52,2022-02-12_13h26.18.948,lexical_decision_task_DD_L3,2021.2.3,MacIntel,58.82352941,,,,,,,,,,0.847,1,,,,,,,,,,,,,,,0,0.454436451,-0.292565947,1,0,0,0.847,button_right_main,0.454436451,-0.292565947,1,0,0,,0,15,15,75,1,GRAIN,LB,old,m,./images/GRAINLB.png,,,,,,,,,,,,,,,,,,,,,,,,,,,,,,,,,
,,,,,,,,,,,,,,,,,60fd344157cabc293d69bd4b,52,2022-02-12_13h26.18.948,lexical_decision_task_DD_L3,2021.2.3,MacIntel,58.82352941,,,,,,,,,,0.805,1,,,,,,,,,,,,,,,0,0.454436451,-0.303357314,1,0,0,0.805,button_right_main,0.454436451,-0.303357314,1,0,0,,0,16,16,78,1,LITTER,LB,old,m,./images/LITTERLB.png,,,,,,,,,,,,,,,,,,,,,,,,,,,,,,,,,
,,,,,,,,,,,,,,,,,60fd344157cabc293d69bd4b,52,2022-02-12_13h26.18.948,lexical_decision_task_DD_L3,2021.2.3,MacIntel,58.82352941,,,,,,,,,,0.905,1,,,,,,,,,,,,,,,0,-0.502398082,-0.299760192,1,0,0,0.905,button_left_main,-0.502398082,-0.299760192,1,0,0,,0,17,17,140,1,DOVET,LB,old,z,./images/DOVETLB.png,,,,,,,,,,,,,,,,,,,,,,,,,,,,,,,,,
,,,,,,,,,,,,,,,,,60fd344157cabc293d69bd4b,52,2022-02-12_13h26.18.948,lexical_decision_task_DD_L3,2021.2.3,MacIntel,58.82352941,,,,,,,,,,1.065,1,,,,,,,,,,,,,,,0,0.458033573,-0.300959233,1,0,0,1.065,button_right_main,0.458033573,-0.300959233,1,0,0,,0,18,18,74,1,CEMENT,HB,old,m,./images/CEMENTHB.png,,,,,,,,,,,,,,,,,,,,,,,,,,,,,,,,,
,,,,,,,,,,,,,,,,,60fd344157cabc293d69bd4b,52,2022-02-12_13h26.18.948,lexical_decision_task_DD_L3,2021.2.3,MacIntel,58.82352941,,,,,,,,,,1.013,1,,,,,,,,,,,,,,,0,-0.51558753,-0.306954436,1,0,0,1.013,button_left_main,-0.51558753,-0.306954436,1,0,0,,0,19,19,104,1,GITTY,LB,old,z,./images/GITTYLB.png,,,,,,,,,,,,,,,,,,,,,,,,,,,,,,,,,
,,,,,,,,,,,,,,,,,60fd344157cabc293d69bd4b,52,2022-02-12_13h26.18.948,lexical_decision_task_DD_L3,2021.2.3,MacIntel,58.82352941,,,,,,,,,,0.951,1,,,,,,,,,,,,,,,0,0.472422062,-0.302158273,1,0,0,0.951,button_right_main,0.472422062,-0.302158273,1,0,0,,0,20,20,53,1,CARPET,HB,old,m,./images/CARPETHB.png,,,,,,,,,,,,,,,,,,,,,,,,,,,,,,,,,
,,,,,,,,,,,,,,,,,60fd344157cabc293d69bd4b,52,2022-02-12_13h26.18.948,lexical_decision_task_DD_L3,2021.2.3,MacIntel,58.82352941,,,,,,,,,,0.84,1,,,,,,,,,,,,,,,0,-0.528776978,-0.304556355,1,0,0,0.84,button_left_main,-0.528776978,-0.304556355,1,0,0,,0,21,21,98,1,BAMPS,LB,old,z,./images/BAMPSLB.png,,,,,,,,,,,,,,,,,,,,,,,,,,,,,,,,,
,,,,,,,,,,,,,,,,,60fd344157cabc293d69bd4b,52,2022-02-12_13h26.18.948,lexical_decision_task_DD_L3,2021.2.3,MacIntel,58.82352941,,,,,,,,,,0.942,1,,,,,,,,,,,,,,,0,0.471223022,-0.303357314,1,0,0,0.942,button_right_main,0.471223022,-0.303357314,1,0,0,,0,22,22,59,1,BURIAL,HB,old,m,./images/BURIALHB.png,,,,,,,,,,,,,,,,,,,,,,,,,,,,,,,,,
,,,,,,,,,,,,,,,,,60fd344157cabc293d69bd4b,52,2022-02-12_13h26.18.948,lexical_decision_task_DD_L3,2021.2.3,MacIntel,58.82352941,,,,,,,,,,0.817,1,,,,,,,,,,,,,,,0,-0.521582734,-0.298561151,1,0,0,0.817,button_left_main,-0.521582734,-0.298561151,1,0,0,,0,23,23,131,1,NACES,LB,old,z,./images/NACESLB.png,,,,,,,,,,,,,,,,,,,,,,,,,,,,,,,,,
,,,,,,,,,,,,,,,,,60fd344157cabc293d69bd4b,52,2022-02-12_13h26.18.948,lexical_decision_task_DD_L3,2021.2.3,MacIntel,58.82352941,,,,,,,,,,0.893,1,,,,,,,,,,,,,,,0,-0.537170264,-0.29616307,1,0,0,0.893,button_left_main,-0.537170264,-0.29616307,1,0,0,,0,24,24,158,1,EGECT,LB,old,z,./images/EGECTLB.png,,,,,,,,,,,,,,,,,,,,,,,,,,,,,,,,,
,,,,,,,,,,,,,,,,,60fd344157cabc293d69bd4b,52,2022-02-12_13h26.18.948,lexical_decision_task_DD_L3,2021.2.3,MacIntel,58.82352941,,,,,,,,,,0.692,1,,,,,,,,,,,,,,,0,0.482014388,-0.299760192,1,0,0,0.692,button_right_main,0.482014388,-0.299760192,1,0,0,,0,25,25,25,1,WRIST,C,old,m,./images/WRIST.png,,,,,,,,,,,,,,,,,,,,,,,,,,,,,,,,,
,,,,,,,,,,,,,,,,,60fd344157cabc293d69bd4b,52,2022-02-12_13h26.18.948,lexical_decision_task_DD_L3,2021.2.3,MacIntel,58.82352941,,,,,,,,,,0.752,1,,,,,,,,,,,,,,,0,0.486810552,-0.305755396,1,0,0,0.752,button_right_main,0.486810552,-0.305755396,1,0,0,,0,26,26,45,1,KITTEN,LB,old,m,./images/KITTENLB.png,,,,,,,,,,,,,,,,,,,,,,,,,,,,,,,,,
,,,,,,,,,,,,,,,,,60fd344157cabc293d69bd4b,52,2022-02-12_13h26.18.948,lexical_decision_task_DD_L3,2021.2.3,MacIntel,58.82352941,,,,,,,,,,0.786,1,,,,,,,,,,,,,,,0,-0.53117506,-0.303357314,1,0,0,0.786,button_left_main,-0.53117506,-0.303357314,1,0,0,,0,27,27,149,1,VEASE,LB,old,z,./images/VEASELB.png,,,,,,,,,,,,,,,,,,,,,,,,,,,,,,,,,
,,,,,,,,,,,,,,,,,60fd344157cabc293d69bd4b,52,2022-02-12_13h26.18.948,lexical_decision_task_DD_L3,2021.2.3,MacIntel,58.82352941,,,,,,,,,,0.816,1,,,,,,,,,,,,,,,0,-0.534772182,-0.306954436,1,0,0,0.816,button_left_main,-0.534772182,-0.306954436,1,0,0,,0,28,28,107,1,FASKS,LB,old,z,./images/FASKSLB.png,,,,,,,,,,,,,,,,,,,,,,,,,,,,,,,,,
,,,,,,,,,,,,,,,,,60fd344157cabc293d69bd4b,52,2022-02-12_13h26.18.948,lexical_decision_task_DD_L3,2021.2.3,MacIntel,58.82352941,,,,,,,,,,1.411,1,,,,,,,,,,,,,,,0,-0.533573141,-0.304556355,1,0,0,1.411,button_left_main,-0.533573141,-0.304556355,1,0,0,,0,29,29,91,1,SHENS,HB,old,z,./images/SHENSHB.png,,,,,,,,,,,,,,,,,,,,,,,,,,,,,,,,,
,,,,,,,,,,,,,,,,,60fd344157cabc293d69bd4b,52,2022-02-12_13h26.18.948,lexical_decision_task_DD_L3,2021.2.3,MacIntel,58.82352941,,,,,,,,,,0.747,1,,,,,,,,,,,,,,,0,0.482014388,-0.294964029,1,0,0,0.747,button_right_main,0.482014388,-0.294964029,1,0,0,,0,30,30,34,1,CANYON,C,old,m,./images/CANYON.png,,,,,,,,,,,,,,,,,,,,,,,,,,,,,,,,,
,,,,,,,,,,,,,,,,,60fd344157cabc293d69bd4b,52,2022-02-12_13h26.18.948,lexical_decision_task_DD_L3,2021.2.3,MacIntel,58.82352941,,,,,,,,,,0.831,1,,,,,,,,,,,,,,,0,-0.544364508,-0.306954436,1,0,0,0.831,button_left_main,-0.544364508,-0.306954436,1,0,0,,0,31,31,87,1,TRING,C,old,z,./images/TRING.png,,,,,,,,,,,,,,,,,,,,,,,,,,,,,,,,,
,,,,,,,,,,,,,,,,,60fd344157cabc293d69bd4b,52,2022-02-12_13h26.18.948,lexical_decision_task_DD_L3,2021.2.3,MacIntel,58.82352941,,,,,,,,,,0.906,1,,,,,,,,,,,,,,,0,-0.543165468,-0.305755396,1,0,0,0.906,button_left_main,-0.543165468,-0.305755396,1,0,0,,0,32,32,110,1,CRUNK,LB,old,z,./images/CRUNKLB.png,,,,,,,,,,,,,,,,,,,,,,,,,,,,,,,,,
,,,,,,,,,,,,,,,,,60fd344157cabc293d69bd4b,52,2022-02-12_13h26.18.948,lexical_decision_task_DD_L3,2021.2.3,MacIntel,58.82352941,,,,,,,,,,0.621,1,,,,,,,,,,,,,,,0,0.497601918,-0.294964029,1,0,0,0.621,button_right_main,0.497601918,-0.294964029,1,0,0,,0,33,33,19,1,DOUGH,C,old,m,./images/DOUGH.png,,,,,,,,,,,,,,,,,,,,,,,,,,,,,,,,,
,,,,,,,,,,,,,,,,,60fd344157cabc293d69bd4b,52,2022-02-12_13h26.18.948,lexical_decision_task_DD_L3,2021.2.3,MacIntel,58.82352941,,,,,,,,,,0.813,1,,,,,,,,,,,,,,,0,-0.545563549,-0.308153477,1,0,0,0.813,button_left_main,-0.545563549,-0.308153477,1,0,0,,0,34,34,134,1,TROSS,LB,old,z,./images/TROSSLB.png,,,,,,,,,,,,,,,,,,,,,,,,,,,,,,,,,
,,,,,,,,,,,,,,,,,60fd344157cabc293d69bd4b,52,2022-02-12_13h26.18.948,lexical_decision_task_DD_L3,2021.2.3,MacIntel,58.82352941,,,,,,,,,,0.897,1,,,,,,,,,,,,,,,0,-0.551558753,-0.305755396,1,0,0,0.897,button_left_main,-0.551558753,-0.305755396,1,0,0,,0,35,35,86,1,AIFED,LB,old,z,./images/AIFEDLB.png,,,,,,,,,,,,,,,,,,,,,,,,,,,,,,,,,
,,,,,,,,,,,,,,,,,60fd344157cabc293d69bd4b,52,2022-02-12_13h26.18.948,lexical_decision_task_DD_L3,2021.2.3,MacIntel,58.82352941,,,,,,,,,,1.014,1,,,,,,,,,,,,,,,0,-0.513189448,-0.308153477,1,0,0,1.014,button_left_main,-0.513189448,-0.308153477,1,0,0,,0,36,36,130,1,CRILL,HB,old,z,./images/CRILLHB.png,,,,,,,,,,,,,,,,,,,,,,,,,,,,,,,,,
,,,,,,,,,,,,,,,,,60fd344157cabc293d69bd4b,52,2022-02-12_13h26.18.948,lexical_decision_task_DD_L3,2021.2.3,MacIntel,58.82352941,,,,,,,,,,0.606,1,,,,,,,,,,,,,,,0,0.492805755,-0.302158273,1,0,0,0.606,button_right_main,0.492805755,-0.302158273,1,0,0,,0,37,37,55,1,MUFFIN,C,old,m,./images/MUFFIN.png,,,,,,,,,,,,,,,,,,,,,,,,,,,,,,,,,
,,,,,,,,,,,,,,,,,60fd344157cabc293d69bd4b,52,2022-02-12_13h26.18.948,lexical_decision_task_DD_L3,2021.2.3,MacIntel,58.82352941,,,,,,,,,,1.447,1,,,,,,,,,,,,,,,0,-0.529976019,-0.31294964,1,0,0,1.447,button_left_main,-0.529976019,-0.31294964,1,0,0,,0,38,38,100,1,DRIBS,HB,old,z,./images/DRIBSHB.png,,,,,,,,,,,,,,,,,,,,,,,,,,,,,,,,,
,,,,,,,,,,,,,,,,,60fd344157cabc293d69bd4b,52,2022-02-12_13h26.18.948,lexical_decision_task_DD_L3,2021.2.3,MacIntel,58.82352941,,,,,,,,,,0.799,1,,,,,,,,,,,,,,,0,-0.528776978,-0.309352518,1,0,0,0.799,button_left_main,-0.528776978,-0.309352518,1,0,0,,0,39,39,129,1,PRANS,C,old,z,./images/PRANS.png,,,,,,,,,,,,,,,,,,,,,,,,,,,,,,,,,
,,,,,,,,,,,,,,,,,60fd344157cabc293d69bd4b,52,2022-02-12_13h26.18.948,lexical_decision_task_DD_L3,2021.2.3,MacIntel,58.82352941,,,,,,,,,,1.289,1,,,,,,,,,,,,,,,0,-0.537170264,-0.308153477,1,0,0,1.289,button_left_main,-0.537170264,-0.308153477,1,0,0,,0,40,40,155,1,CANGY,LB,old,z,./images/CANGYLB.png,,,,,,,,,,,,,,,,,,,,,,,,,,,,,,,,,
,,,,,,,,,,,,,,,,,60fd344157cabc293d69bd4b,52,2022-02-12_13h26.18.948,lexical_decision_task_DD_L3,2021.2.3,MacIntel,58.82352941,,,,,,,,,,1.389,1,,,,,,,,,,,,,,,0,-0.529976019,-0.304556355,1,0,0,1.389,button_left_main,0.07793765,-0.43764988,1,0,0,,0,41,41,115,1,MAWNS,HB,old,z,./images/MAWNSHB.png,break_done_button,,,,,,,,,,,,,,,,,,,,,,,,,,,,,,,,
,,,,,,,,,,,,,,,,,60fd344157cabc293d69bd4b,52,2022-02-12_13h26.18.948,lexical_decision_task_DD_L3,2021.2.3,MacIntel,58.82352941,,,,,,,,,,0.781,1,,,,,,,,,,,,,,,0,0.472422062,-0.294964029,1,0,0,0.781,button_right_main,0.472422062,-0.294964029,1,0,0,,0,42,42,48,1,SPORT,LB,old,m,./images/SPORTLB.png,,,,,,,,,,,,,,,,,,,,,,,,,,,,,,,,,
,,,,,,,,,,,,,,,,,60fd344157cabc293d69bd4b,52,2022-02-12_13h26.18.948,lexical_decision_task_DD_L3,2021.2.3,MacIntel,58.82352941,,,,,,,,,,0.621,1,,,,,,,,,,,,,,,0,0.473621103,-0.290167866,1,0,0,0.621,button_right_main,0.473621103,-0.290167866,1,0,0,,0,43,43,57,1,MOOSE,LB,old,m,./images/MOOSELB.png,,,,,,,,,,,,,,,,,,,,,,,,,,,,,,,,,
,,,,,,,,,,,,,,,,,60fd344157cabc293d69bd4b,52,2022-02-12_13h26.18.948,lexical_decision_task_DD_L3,2021.2.3,MacIntel,58.82352941,,,,,,,,,,0.664,1,,,,,,,,,,,,,,,0,0.480815348,-0.285371703,1,0,0,0.664,button_right_main,0.480815348,-0.285371703,1,0,0,,0,44,44,51,1,ONION,LB,old,m,./images/ONIONLB.png,,,,,,,,,,,,,,,,,,,,,,,,,,,,,,,,,
,,,,,,,,,,,,,,,,,60fd344157cabc293d69bd4b,52,2022-02-12_13h26.18.948,lexical_decision_task_DD_L3,2021.2.3,MacIntel,58.82352941,,,,,,,,,,1.154,1,,,,,,,,,,,,,,,0,0.473621103,-0.299760192,1,0,0,1.154,button_right_main,0.473621103,-0.299760192,1,0,0,,0,45,45,11,1,BONNET,HB,old,m,./images/BONNETHB.png,,,,,,,,,,,,,,,,,,,,,,,,,,,,,,,,,
,,,,,,,,,,,,,,,,,60fd344157cabc293d69bd4b,52,2022-02-12_13h26.18.948,lexical_decision_task_DD_L3,2021.2.3,MacIntel,58.82352941,,,,,,,,,,1.252,1,,,,,,,,,,,,,,,0,0.483213429,-0.294964029,1,0,0,1.252,button_right_main,0.483213429,-0.294964029,1,0,0,,0,46,46,26,1,SMOKER,HB,old,m,./images/SMOKERHB.png,,,,,,,,,,,,,,,,,,,,,,,,,,,,,,,,,
,,,,,,,,,,,,,,,,,60fd344157cabc293d69bd4b,52,2022-02-12_13h26.18.948,lexical_decision_task_DD_L3,2021.2.3,MacIntel,58.82352941,,,,,,,,,,0.668,1,,,,,,,,,,,,,,,0,0.497601918,-0.292565947,1,0,0,0.668,button_right_main,0.497601918,-0.292565947,1,0,0,,0,47,47,72,1,NOOSE,LB,old,m,./images/NOOSELB.png,,,,,,,,,,,,,,,,,,,,,,,,,,,,,,,,,
,,,,,,,,,,,,,,,,,60fd344157cabc293d69bd4b,52,2022-02-12_13h26.18.948,lexical_decision_task_DD_L3,2021.2.3,MacIntel,58.82352941,,,,,,,,,,1.084,1,,,,,,,,,,,,,,,0,-0.527577938,-0.310551559,1,0,0,1.084,button_left_main,-0.527577938,-0.310551559,1,0,0,,0,48,48,136,1,WERVE,HB,old,z,./images/WERVEHB.png,,,,,,,,,,,,,,,,,,,,,,,,,,,,,,,,,
,,,,,,,,,,,,,,,,,60fd344157cabc293d69bd4b,52,2022-02-12_13h26.18.948,lexical_decision_task_DD_L3,2021.2.3,MacIntel,58.82352941,,,,,,,,,,0.651,1,,,,,,,,,,,,,,,0,0.497601918,-0.290167866,1,0,0,0.651,button_right_main,0.497601918,-0.290167866,1,0,0,,0,49,49,16,1,PENCE,C,old,m,./images/PENCE.png,,,,,,,,,,,,,,,,,,,,,,,,,,,,,,,,,
,,,,,,,,,,,,,,,,,60fd344157cabc293d69bd4b,52,2022-02-12_13h26.18.948,lexical_decision_task_DD_L3,2021.2.3,MacIntel,58.82352941,,,,,,,,,,0.925,1,,,,,,,,,,,,,,,0,-0.547961631,-0.31294964,1,0,0,0.925,button_left_main,-0.547961631,-0.31294964,1,0,0,,0,50,50,122,1,BLOOT,LB,old,z,./images/BLOOTLB.png,,,,,,,,,,,,,,,,,,,,,,,,,,,,,,,,,
,,,,,,,,,,,,,,,,,60fd344157cabc293d69bd4b,52,2022-02-12_13h26.18.948,lexical_decision_task_DD_L3,2021.2.3,MacIntel,58.82352941,,,,,,,,,,0.936,1,,,,,,,,,,,,,,,0,0.476019185,-0.294964029,1,0,0,0.936,button_right_main,0.476019185,-0.294964029,1,0,0,,0,51,51,20,1,CRADLE,HB,old,m,./images/CRADLEHB.png,,,,,,,,,,,,,,,,,,,,,,,,,,,,,,,,,
,,,,,,,,,,,,,,,,,60fd344157cabc293d69bd4b,52,2022-02-12_13h26.18.948,lexical_decision_task_DD_L3,2021.2.3,MacIntel,58.82352941,,,,,,,,,,1.279,1,,,,,,,,,,,,,,,0,0.5,-0.290167866,1,0,0,1.279,button_right_main,0.5,-0.290167866,1,0,0,,0,52,52,2,1,BEARD,HB,old,m,./images/BEARDHB.png,,,,,,,,,,,,,,,,,,,,,,,,,,,,,,,,,
,,,,,,,,,,,,,,,,,60fd344157cabc293d69bd4b,52,2022-02-12_13h26.18.948,lexical_decision_task_DD_L3,2021.2.3,MacIntel,58.82352941,,,,,,,,,,1.193,1,,,,,,,,,,,,,,,0,-0.501199041,-0.29736211,1,0,0,1.193,button_left_main,-0.501199041,-0.29736211,1,0,0,,0,53,53,124,1,TUNCH,HB,old,z,./images/TUNCHHB.png,,,,,,,,,,,,,,,,,,,,,,,,,,,,,,,,,
,,,,,,,,,,,,,,,,,60fd344157cabc293d69bd4b,52,2022-02-12_13h26.18.948,lexical_decision_task_DD_L3,2021.2.3,MacIntel,58.82352941,,,,,,,,,,1.105,1,,,,,,,,,,,,,,,0,0.489208633,-0.291366906,1,0,0,1.105,button_right_main,0.489208633,-0.291366906,1,0,0,,0,54,54,77,1,COUCH,HB,old,m,./images/COUCHHB.png,,,,,,,,,,,,,,,,,,,,,,,,,,,,,,,,,
,,,,,,,,,,,,,,,,,60fd344157cabc293d69bd4b,52,2022-02-12_13h26.18.948,lexical_decision_task_DD_L3,2021.2.3,MacIntel,58.82352941,,,,,,,,,,1.421,1,,,,,,,,,,,,,,,0,-0.516786571,-0.303357314,1,0,0,1.421,button_left_main,-0.516786571,-0.303357314,1,0,0,,0,55,55,112,1,MYING,HB,old,z,./images/MYINGHB.png,,,,,,,,,,,,,,,,,,,,,,,,,,,,,,,,,
,,,,,,,,,,,,,,,,,60fd344157cabc293d69bd4b,52,2022-02-12_13h26.18.948,lexical_decision_task_DD_L3,2021.2.3,MacIntel,58.82352941,,,,,,,,,,1.622,1,,,,,,,,,,,,,,,0,0.486810552,-0.298561151,1,0,0,1.622,button_right_main,0.486810552,-0.298561151,1,0,0,,0,56,56,80,1,WEASEL,HB,old,m,./images/WEASELHB.png,,,,,,,,,,,,,,,,,,,,,,,,,,,,,,,,,
,,,,,,,,,,,,,,,,,60fd344157cabc293d69bd4b,52,2022-02-12_13h26.18.948,lexical_decision_task_DD_L3,2021.2.3,MacIntel,58.82352941,,,,,,,,,,0.884,1,,,,,,,,,,,,,,,0,0.477218225,-0.300959233,1,0,0,0.884,button_right_main,0.477218225,-0.300959233,1,0,0,,0,57,57,12,1,SHORE,LB,old,m,./images/SHORELB.png,,,,,,,,,,,,,,,,,,,,,,,,,,,,,,,,,
,,,,,,,,,,,,,,,,,60fd344157cabc293d69bd4b,52,2022-02-12_13h26.18.948,lexical_decision_task_DD_L3,2021.2.3,MacIntel,58.82352941,,,,,,,,,,1.385,1,,,,,,,,,,,,,,,0,-0.5,-0.292565947,1,0,0,1.385,button_left_main,-0.5,-0.292565947,1,0,0,,0,58,58,139,1,BLEAR,HB,old,z,./images/BLEARHB.png,,,,,,,,,,,,,,,,,,,,,,,,,,,,,,,,,
,,,,,,,,,,,,,,,,,60fd344157cabc293d69bd4b,52,2022-02-12_13h26.18.948,lexical_decision_task_DD_L3,2021.2.3,MacIntel,58.82352941,,,,,,,,,,1.146,1,,,,,,,,,,,,,,,0,-0.492805755,-0.29736211,1,0,0,1.146,button_left_main,-0.492805755,-0.29736211,1,0,0,,0,59,59,113,1,LINEW,LB,old,z,./images/LINEWLB.png,,,,,,,,,,,,,,,,,,,,,,,,,,,,,,,,,
,,,,,,,,,,,,,,,,,60fd344157cabc293d69bd4b,52,2022-02-12_13h26.18.948,lexical_decision_task_DD_L3,2021.2.3,MacIntel,58.82352941,,,,,,,,,,0.805,1,,,,,,,,,,,,,,,0,0.485611511,-0.303357314,1,0,0,0.805,button_right_main,0.485611511,-0.303357314,1,0,0,,0,60,60,30,1,STORM,LB,old,m,./images/STORMLB.png,,,,,,,,,,,,,,,,,,,,,,,,,,,,,,,,,
,,,,,,,,,,,,,,,,,60fd344157cabc293d69bd4b,52,2022-02-12_13h26.18.948,lexical_decision_task_DD_L3,2021.2.3,MacIntel,58.82352941,,,,,,,,,,0.689,1,,,,,,,,,,,,,,,0,0.488009592,-0.29736211,1,0,0,0.689,button_right_main,0.488009592,-0.29736211,1,0,0,,0,61,61,3,1,FINGER,LB,old,m,./images/FINGERLB.png,,,,,,,,,,,,,,,,,,,,,,,,,,,,,,,,,
,,,,,,,,,,,,,,,,,60fd344157cabc293d69bd4b,52,2022-02-12_13h26.18.948,lexical_decision_task_DD_L3,2021.2.3,MacIntel,58.82352941,,,,,,,,,,1.029,1,,,,,,,,,,,,,,,0,-0.538369305,-0.300959233,1,0,0,1.029,button_left_main,-0.538369305,-0.300959233,1,0,0,,0,62,62,162,1,LEICH,C,old,z,./images/LEICH.png,,,,,,,,,,,,,,,,,,,,,,,,,,,,,,,,,
,,,,,,,,,,,,,,,,,60fd344157cabc293d69bd4b,52,2022-02-12_13h26.18.948,lexical_decision_task_DD_L3,2021.2.3,MacIntel,58.82352941,,,,,,,,,,0.921,1,,,,,,,,,,,,,,,0,-0.54676259,-0.298561151,1,0,0,0.921,button_left_main,-0.54676259,-0.298561151,1,0,0,,0,63,63,116,1,BALGY,LB,old,z,./images/BALGYLB.png,,,,,,,,,,,,,,,,,,,,,,,,,,,,,,,,,
,,,,,,,,,,,,,,,,,60fd344157cabc293d69bd4b,52,2022-02-12_13h26.18.948,lexical_decision_task_DD_L3,2021.2.3,MacIntel,58.82352941,,,,,,,,,,0.844,1,,,,,,,,,,,,,,,0,-0.551558753,-0.291366906,1,0,0,0.844,button_left_main,-0.551558753,-0.291366906,1,0,0,,0,64,64,126,1,GUELS,C,old,z,./images/GUELS.png,,,,,,,,,,,,,,,,,,,,,,,,,,,,,,,,,
,,,,,,,,,,,,,,,,,60fd344157cabc293d69bd4b,52,2022-02-12_13h26.18.948,lexical_decision_task_DD_L3,2021.2.3,MacIntel,58.82352941,,,,,,,,,,0.801,1,,,,,,,,,,,,,,,0,-0.552757794,-0.284172662,1,0,0,0.801,button_left_main,-0.552757794,-0.284172662,1,0,0,,0,65,65,153,1,CLUPS,C,old,z,./images/CLUPS.png,,,,,,,,,,,,,,,,,,,,,,,,,,,,,,,,,
,,,,,,,,,,,,,,,,,60fd344157cabc293d69bd4b,52,2022-02-12_13h26.18.948,lexical_decision_task_DD_L3,2021.2.3,MacIntel,58.82352941,,,,,,,,,,0.813,1,,,,,,,,,,,,,,,0,0.496402878,-0.303357314,1,0,0,0.813,button_right_main,0.496402878,-0.303357314,1,0,0,,0,66,66,36,1,THROAT,LB,old,m,./images/THROATLB.png,,,,,,,,,,,,,,,,,,,,,,,,,,,,,,,,,
,,,,,,,,,,,,,,,,,60fd344157cabc293d69bd4b,52,2022-02-12_13h26.18.948,lexical_decision_task_DD_L3,2021.2.3,MacIntel,58.82352941,,,,,,,,,,0.896,1,,,,,,,,,,,,,,,0,-0.535971223,-0.298561151,1,0,0,0.896,button_left_main,-0.535971223,-0.298561151,1,0,0,,0,67,67,119,1,PAFER,LB,old,z,./images/PAFERLB.png,,,,,,,,,,,,,,,,,,,,,,,,,,,,,,,,,
,,,,,,,,,,,,,,,,,60fd344157cabc293d69bd4b,52,2022-02-12_13h26.18.948,lexical_decision_task_DD_L3,2021.2.3,MacIntel,58.82352941,,,,,,,,,,0.804,1,,,,,,,,,,,,,,,0,-0.547961631,-0.303357314,1,0,0,0.804,button_left_main,-0.547961631,-0.303357314,1,0,0,,0,68,68,161,1,BLAPS,LB,old,z,./images/BLAPSLB.png,,,,,,,,,,,,,,,,,,,,,,,,,,,,,,,,,
,,,,,,,,,,,,,,,,,60fd344157cabc293d69bd4b,52,2022-02-12_13h26.18.948,lexical_decision_task_DD_L3,2021.2.3,MacIntel,58.82352941,,,,,,,,,,0.905,0,,,,,,,,,,,,,,,0,-0.547961631,-0.300959233,1,0,0,0.905,button_left_main,-0.547961631,-0.300959233,1,0,0,,0,69,69,1,1,PLANK,C,old,m,./images/PLANK.png,,,,,,,,,,,,,,,,,,,,,,,,,,,,,,,,,
,,,,,,,,,,,,,,,,,60fd344157cabc293d69bd4b,52,2022-02-12_13h26.18.948,lexical_decision_task_DD_L3,2021.2.3,MacIntel,58.82352941,,,,,,,,,,1.988,1,,,,,,,,,,,,,,,0,-0.528776978,-0.293764988,1,0,0,1.988,button_left_main,-0.528776978,-0.293764988,1,0,0,,0,70,70,96,1,KEAMS,C,old,z,./images/KEAMS.png,,,,,,,,,,,,,,,,,,,,,,,,,,,,,,,,,
,,,,,,,,,,,,,,,,,60fd344157cabc293d69bd4b,52,2022-02-12_13h26.18.948,lexical_decision_task_DD_L3,2021.2.3,MacIntel,58.82352941,,,,,,,,,,1.047,1,,,,,,,,,,,,,,,0,-0.544364508,-0.292565947,1,0,0,1.047,button_left_main,-0.544364508,-0.292565947,1,0,0,,0,71,71,120,1,RINED,C,old,z,./images/RINED.png,,,,,,,,,,,,,,,,,,,,,,,,,,,,,,,,,
,,,,,,,,,,,,,,,,,60fd344157cabc293d69bd4b,52,2022-02-12_13h26.18.948,lexical_decision_task_DD_L3,2021.2.3,MacIntel,58.82352941,,,,,,,,,,1.605,1,,,,,,,,,,,,,,,0,-0.547961631,-0.293764988,1,0,0,1.605,button_left_main,-0.547961631,-0.293764988,1,0,0,,0,72,72,142,1,PLASK,HB,old,z,./images/PLASKHB.png,,,,,,,,,,,,,,,,,,,,,,,,,,,,,,,,,
,,,,,,,,,,,,,,,,,60fd344157cabc293d69bd4b,52,2022-02-12_13h26.18.948,lexical_decision_task_DD_L3,2021.2.3,MacIntel,58.82352941,,,,,,,,,,1.332,1,,,,,,,,,,,,,,,0,-0.555155875,-0.290167866,1,0,0,1.332,button_left_main,-0.555155875,-0.290167866,1,0,0,,0,73,73,147,1,ZOLES,C,old,z,./images/ZOLES.png,,,,,,,,,,,,,,,,,,,,,,,,,,,,,,,,,
,,,,,,,,,,,,,,,,,60fd344157cabc293d69bd4b,52,2022-02-12_13h26.18.948,lexical_decision_task_DD_L3,2021.2.3,MacIntel,58.82352941,,,,,,,,,,0.848,1,,,,,,,,,,,,,,,0,0.476019185,-0.292565947,1,0,0,0.848,button_right_main,0.476019185,-0.292565947,1,0,0,,0,74,74,18,1,JAGUAR,LB,old,m,./images/JAGUARLB.png,,,,,,,,,,,,,,,,,,,,,,,,,,,,,,,,,
,,,,,,,,,,,,,,,,,60fd344157cabc293d69bd4b,52,2022-02-12_13h26.18.948,lexical_decision_task_DD_L3,2021.2.3,MacIntel,58.82352941,,,,,,,,,,0.821,1,,,,,,,,,,,,,,,0,0.472422062,-0.292565947,1,0,0,0.821,button_right_main,0.472422062,-0.292565947,1,0,0,,0,75,75,54,1,TRIPOD,LB,old,m,./images/TRIPODLB.png,,,,,,,,,,,,,,,,,,,,,,,,,,,,,,,,,
,,,,,,,,,,,,,,,,,60fd344157cabc293d69bd4b,52,2022-02-12_13h26.18.948,lexical_decision_task_DD_L3,2021.2.3,MacIntel,58.82352941,,,,,,,,,,1.436,1,,,,,,,,,,,,,,,0,-0.544364508,-0.286570743,1,0,0,1.436,button_left_main,-0.544364508,-0.286570743,1,0,0,,0,76,76,165,1,TROWN,C,old,z,./images/TROWN.png,,,,,,,,,,,,,,,,,,,,,,,,,,,,,,,,,
,,,,,,,,,,,,,,,,,60fd344157cabc293d69bd4b,52,2022-02-12_13h26.18.948,lexical_decision_task_DD_L3,2021.2.3,MacIntel,58.82352941,,,,,,,,,,1.111,1,,,,,,,,,,,,,,,0,-0.556354916,-0.294964029,1,0,0,1.111,button_left_main,-0.556354916,-0.294964029,1,0,0,,0,77,77,135,1,JOODY,C,old,z,./images/JOODY.png,,,,,,,,,,,,,,,,,,,,,,,,,,,,,,,,,
,,,,,,,,,,,,,,,,,60fd344157cabc293d69bd4b,52,2022-02-12_13h26.18.948,lexical_decision_task_DD_L3,2021.2.3,MacIntel,58.82352941,,,,,,,,,,2.55,1,,,,,,,,,,,,,,,0,-0.539568345,-0.278177458,1,0,0,2.55,button_left_main,-0.539568345,-0.278177458,1,0,0,,0,78,78,166,1,SHORY,HB,old,z,./images/SHORYHB.png,,,,,,,,,,,,,,,,,,,,,,,,,,,,,,,,,
,,,,,,,,,,,,,,,,,60fd344157cabc293d69bd4b,52,2022-02-12_13h26.18.948,lexical_decision_task_DD_L3,2021.2.3,MacIntel,58.82352941,,,,,,,,,,1.155,1,,,,,,,,,,,,,,,0,0.471223022,-0.304556355,1,0,0,1.155,button_right_main,0.471223022,-0.304556355,1,0,0,,0,79,79,29,1,CRUMB,HB,old,m,./images/CRUMBHB.png,,,,,,,,,,,,,,,,,,,,,,,,,,,,,,,,,
,,,,,,,,,,,,,,,,,60fd344157cabc293d69bd4b,52,2022-02-12_13h26.18.948,lexical_decision_task_DD_L3,2021.2.3,MacIntel,58.82352941,,,,,,,,,,0.791,1,,,,,,,,,,,,,,,0,0.474820144,-0.298561151,1,0,0,0.791,button_right_main,0.474820144,-0.298561151,1,0,0,,0,80,80,13,1,MOTOR,C,old,m,./images/MOTOR.png,,,,,,,,,,,,,,,,,,,,,,,,,,,,,,,,,
,,,,,,,,,,,,,,,,,60fd344157cabc293d69bd4b,52,2022-02-12_13h26.18.948,lexical_decision_task_DD_L3,2021.2.3,MacIntel,58.82352941,,,,,,,,,,1.568,1,,,,,,,,,,,,,,,0,-0.547961631,-0.309352518,1,0,0,1.568,button_left_main,-0.547961631,-0.309352518,1,0,0,,0,81,81,106,1,CLUMS,HB,old,z,./images/CLUMSHB.png,,,,,,,,,,,,,,,,,,,,,,,,,,,,,,,,,
,,,,,,,,,,,,,,,,,60fd344157cabc293d69bd4b,52,2022-02-12_13h26.18.948,lexical_decision_task_DD_L3,2021.2.3,MacIntel,58.82352941,,,,,,,,,,1.281,1,,,,,,,,,,,,,,,0,-0.549160671,-0.299760192,1,0,0,1.281,button_left_main,-0.549160671,-0.299760192,1,0,0,,0,82,82,164,1,SGREW,LB,old,z,./images/SGREWLB.png,,,,,,,,,,,,,,,,,,,,,,,,,,,,,,,,,
,,,,,,,,,,,,,,,,,60fd344157cabc293d69bd4b,52,2022-02-12_13h26.18.948,lexical_decision_task_DD_L3,2021.2.3,MacIntel,58.82352941,,,,,,,,,,0.84,1,,,,,,,,,,,,,,,0,0.46882494,-0.298561151,1,0,0,0.84,button_right_main,0.063549161,-0.411270983,1,0,0,,0,83,83,82,1,SUNSET,C,old,m,./images/SUNSET.png,break_done_button,,,,,,,,,,,,,,,,,,,,,,,,,,,,,,,,
,,,,,,,,,,,,,,,,,60fd344157cabc293d69bd4b,52,2022-02-12_13h26.18.948,lexical_decision_task_DD_L3,2021.2.3,MacIntel,58.82352941,,,,,,,,,,0.948,1,,,,,,,,,,,,,,,0,-0.496402878,-0.298561151,1,0,0,0.948,button_left_main,-0.496402878,-0.298561151,1,0,0,,0,84,84,108,1,GRUET,C,old,z,./images/GRUET.png,,,,,,,,,,,,,,,,,,,,,,,,,,,,,,,,,
,,,,,,,,,,,,,,,,,60fd344157cabc293d69bd4b,52,2022-02-12_13h26.18.948,lexical_decision_task_DD_L3,2021.2.3,MacIntel,58.82352941,,,,,,,,,,1.781,1,,,,,,,,,,,,,,,0,-0.508393285,-0.300959233,1,0,0,1.781,button_left_main,-0.508393285,-0.300959233,1,0,0,,0,85,85,94,1,BLANS,HB,old,z,./images/BLANSHB.png,,,,,,,,,,,,,,,,,,,,,,,,,,,,,,,,,
,,,,,,,,,,,,,,,,,60fd344157cabc293d69bd4b,52,2022-02-12_13h26.18.948,lexical_decision_task_DD_L3,2021.2.3,MacIntel,58.82352941,,,,,,,,,,0.92,1,,,,,,,,,,,,,,,0,-0.538369305,-0.300959233,1,0,0,0.92,button_left_main,-0.538369305,-0.300959233,1,0,0,,0,86,86,89,1,DRIEK,LB,old,z,./images/DRIEKLB.png,,,,,,,,,,,,,,,,,,,,,,,,,,,,,,,,,
,,,,,,,,,,,,,,,,,60fd344157cabc293d69bd4b,52,2022-02-12_13h26.18.948,lexical_decision_task_DD_L3,2021.2.3,MacIntel,58.82352941,,,,,,,,,,1.187,1,,,,,,,,,,,,,,,0,-0.525179856,-0.288968825,1,0,0,1.187,button_left_main,-0.525179856,-0.288968825,1,0,0,,0,87,87,111,1,HOSSE,C,old,z,./images/HOSSE.png,,,,,,,,,,,,,,,,,,,,,,,,,,,,,,,,,
,,,,,,,,,,,,,,,,,60fd344157cabc293d69bd4b,52,2022-02-12_13h26.18.948,lexical_decision_task_DD_L3,2021.2.3,MacIntel,58.82352941,,,,,,,,,,1.29,1,,,,,,,,,,,,,,,0,-0.537170264,-0.285371703,1,0,0,1.29,button_left_main,-0.537170264,-0.285371703,1,0,0,,0,88,88,160,1,VEETS,HB,old,z,./images/VEETSHB.png,,,,,,,,,,,,,,,,,,,,,,,,,,,,,,,,,
,,,,,,,,,,,,,,,,,60fd344157cabc293d69bd4b,52,2022-02-12_13h26.18.948,lexical_decision_task_DD_L3,2021.2.3,MacIntel,58.82352941,,,,,,,,,,0.761,1,,,,,,,,,,,,,,,0,0.464028777,-0.314148681,1,0,0,0.761,button_right_main,0.464028777,-0.314148681,1,0,0,,0,89,89,76,1,INFANT,C,old,m,./images/INFANT.png,,,,,,,,,,,,,,,,,,,,,,,,,,,,,,,,,
,,,,,,,,,,,,,,,,,60fd344157cabc293d69bd4b,52,2022-02-12_13h26.18.948,lexical_decision_task_DD_L3,2021.2.3,MacIntel,58.82352941,,,,,,,,,,0.772,1,,,,,,,,,,,,,,,0,0.477218225,-0.314148681,1,0,0,0.772,button_right_main,0.477218225,-0.314148681,1,0,0,,0,90,90,70,1,URINE,C,old,m,./images/URINE.png,,,,,,,,,,,,,,,,,,,,,,,,,,,,,,,,,
,,,,,,,,,,,,,,,,,60fd344157cabc293d69bd4b,52,2022-02-12_13h26.18.948,lexical_decision_task_DD_L3,2021.2.3,MacIntel,58.82352941,,,,,,,,,,0.655,1,,,,,,,,,,,,,,,0,0.495203837,-0.315347722,1,0,0,0.655,button_right_main,0.495203837,-0.315347722,1,0,0,,0,91,91,61,1,CANDLE,C,old,m,./images/CANDLE.png,,,,,,,,,,,,,,,,,,,,,,,,,,,,,,,,,
,,,,,,,,,,,,,,,,,60fd344157cabc293d69bd4b,52,2022-02-12_13h26.18.948,lexical_decision_task_DD_L3,2021.2.3,MacIntel,58.82352941,,,,,,,,,,0.838,1,,,,,,,,,,,,,,,0,-0.527577938,-0.293764988,1,0,0,0.838,button_left_main,-0.527577938,-0.293764988,1,0,0,,0,92,92,152,1,FRAIN,LB,old,z,./images/FRAINLB.png,,,,,,,,,,,,,,,,,,,,,,,,,,,,,,,,,
,,,,,,,,,,,,,,,,,60fd344157cabc293d69bd4b,52,2022-02-12_13h26.18.948,lexical_decision_task_DD_L3,2021.2.3,MacIntel,58.82352941,,,,,,,,,,1.14,1,,,,,,,,,,,,,,,0,0.479616307,-0.31294964,1,0,0,1.14,button_right_main,0.479616307,-0.31294964,1,0,0,,0,93,93,83,1,JUNGLE,HB,old,m,./images/JUNGLEHB.png,,,,,,,,,,,,,,,,,,,,,,,,,,,,,,,,,
,,,,,,,,,,,,,,,,,60fd344157cabc293d69bd4b,52,2022-02-12_13h26.18.948,lexical_decision_task_DD_L3,2021.2.3,MacIntel,58.82352941,,,,,,,,,,1.457,1,,,,,,,,,,,,,,,0,0.464028777,-0.309352518,1,0,0,1.457,button_right_main,0.464028777,-0.309352518,1,0,0,,0,94,94,17,1,SKIING,HB,old,m,./images/SKIINGHB.png,,,,,,,,,,,,,,,,,,,,,,,,,,,,,,,,,
,,,,,,,,,,,,,,,,,60fd344157cabc293d69bd4b,52,2022-02-12_13h26.18.948,lexical_decision_task_DD_L3,2021.2.3,MacIntel,58.82352941,,,,,,,,,,0.974,1,,,,,,,,,,,,,,,0,0.476019185,-0.310551559,1,0,0,0.974,button_right_main,0.476019185,-0.310551559,1,0,0,,0,95,95,43,1,MOSQUE,C,old,m,./images/MOSQUE.png,,,,,,,,,,,,,,,,,,,,,,,,,,,,,,,,,
,,,,,,,,,,,,,,,,,60fd344157cabc293d69bd4b,52,2022-02-12_13h26.18.948,lexical_decision_task_DD_L3,2021.2.3,MacIntel,58.82352941,,,,,,,,,,1.397,1,,,,,,,,,,,,,,,0,-0.517985612,-0.287769784,1,0,0,1.397,button_left_main,-0.517985612,-0.287769784,1,0,0,,0,96,96,156,1,HIXES,C,old,z,./images/HIXES.png,,,,,,,,,,,,,,,,,,,,,,,,,,,,,,,,,
,,,,,,,,,,,,,,,,,60fd344157cabc293d69bd4b,52,2022-02-12_13h26.18.948,lexical_decision_task_DD_L3,2021.2.3,MacIntel,58.82352941,,,,,,,,,,0.873,1,,,,,,,,,,,,,,,0,0.471223022,-0.299760192,1,0,0,0.873,button_right_main,0.471223022,-0.299760192,1,0,0,,0,97,97,5,1,PASTA,HB,old,m,./images/PASTAHB.png,,,,,,,,,,,,,,,,,,,,,,,,,,,,,,,,,
,,,,,,,,,,,,,,,,,60fd344157cabc293d69bd4b,52,2022-02-12_13h26.18.948,lexical_decision_task_DD_L3,2021.2.3,MacIntel,58.82352941,,,,,,,,,,1.005,1,,,,,,,,,,,,,,,0,-0.526378897,-0.302158273,1,0,0,1.005,button_left_main,-0.526378897,-0.302158273,1,0,0,,0,98,98,90,1,NEAST,C,old,z,./images/NEAST.png,,,,,,,,,,,,,,,,,,,,,,,,,,,,,,,,,
,,,,,,,,,,,,,,,,,60fd344157cabc293d69bd4b,52,2022-02-12_13h26.18.948,lexical_decision_task_DD_L3,2021.2.3,MacIntel,58.82352941,,,,,,,,,,0.819,1,,,,,,,,,,,,,,,0,0.478417266,-0.31294964,1,0,0,0.819,button_right_main,0.478417266,-0.31294964,1,0,0,,0,99,99,66,1,SWEAT,LB,old,m,./images/SWEATLB.png,,,,,,,,,,,,,,,,,,,,,,,,,,,,,,,,,
,,,,,,,,,,,,,,,,,60fd344157cabc293d69bd4b,52,2022-02-12_13h26.18.948,lexical_decision_task_DD_L3,2021.2.3,MacIntel,58.82352941,,,,,,,,,,0.788,1,,,,,,,,,,,,,,,0,0.46882494,-0.308153477,1,0,0,0.788,button_right_main,0.46882494,-0.308153477,1,0,0,,0,100,100,49,1,DRUMS,C,old,m,./images/DRUMS.png,,,,,,,,,,,,,,,,,,,,,,,,,,,,,,,,,
,,,,,,,,,,,,,,,,,60fd344157cabc293d69bd4b,52,2022-02-12_13h26.18.948,lexical_decision_task_DD_L3,2021.2.3,MacIntel,58.82352941,,,,,,,,,,1.234,1,,,,,,,,,,,,,,,0,0.474820144,-0.308153477,1,0,0,1.234,button_right_main,0.474820144,-0.308153477,1,0,0,,0,101,101,38,1,LADDER,HB,old,m,./images/LADDERHB.png,,,,,,,,,,,,,,,,,,,,,,,,,,,,,,,,,
,,,,,,,,,,,,,,,,,60fd344157cabc293d69bd4b,52,2022-02-12_13h26.18.948,lexical_decision_task_DD_L3,2021.2.3,MacIntel,58.82352941,,,,,,,,,,0.785,1,,,,,,,,,,,,,,,0,0.462829736,-0.300959233,1,0,0,0.785,button_right_main,0.462829736,-0.300959233,1,0,0,,0,102,102,52,1,BANNER,C,old,m,./images/BANNER.png,,,,,,,,,,,,,,,,,,,,,,,,,,,,,,,,,
,,,,,,,,,,,,,,,,,60fd344157cabc293d69bd4b,52,2022-02-12_13h26.18.948,lexical_decision_task_DD_L3,2021.2.3,MacIntel,58.82352941,,,,,,,,,,0.774,1,,,,,,,,,,,,,,,0,0.461630695,-0.302158273,1,0,0,0.774,button_right_main,0.461630695,-0.302158273,1,0,0,,0,103,103,0,1,TOMATO,LB,old,m,./images/TOMATOLB.png,,,,,,,,,,,,,,,,,,,,,,,,,,,,,,,,,
,,,,,,,,,,,,,,,,,60fd344157cabc293d69bd4b,52,2022-02-12_13h26.18.948,lexical_decision_task_DD_L3,2021.2.3,MacIntel,58.82352941,,,,,,,,,,0.692,1,,,,,,,,,,,,,,,0,0.462829736,-0.299760192,1,0,0,0.692,button_right_main,0.462829736,-0.299760192,1,0,0,,0,104,104,4,1,MUSCLE,C,old,m,./images/MUSCLE.png,,,,,,,,,,,,,,,,,,,,,,,,,,,,,,,,,
,,,,,,,,,,,,,,,,,60fd344157cabc293d69bd4b,52,2022-02-12_13h26.18.948,lexical_decision_task_DD_L3,2021.2.3,MacIntel,58.82352941,,,,,,,,,,1.168,1,,,,,,,,,,,,,,,0,-0.520383693,-0.298561151,1,0,0,1.168,button_left_main,-0.520383693,-0.298561151,1,0,0,,0,105,105,93,1,SMONE,C,old,z,./images/SMONE.png,,,,,,,,,,,,,,,,,,,,,,,,,,,,,,,,,
,,,,,,,,,,,,,,,,,60fd344157cabc293d69bd4b,52,2022-02-12_13h26.18.948,lexical_decision_task_DD_L3,2021.2.3,MacIntel,58.82352941,,,,,,,,,,1.468,1,,,,,,,,,,,,,,,0,0.471223022,-0.306954436,1,0,0,1.468,button_right_main,0.471223022,-0.306954436,1,0,0,,0,106,106,65,1,FARMER,HB,old,m,./images/FARMERHB.png,,,,,,,,,,,,,,,,,,,,,,,,,,,,,,,,,
,,,,,,,,,,,,,,,,,60fd344157cabc293d69bd4b,52,2022-02-12_13h26.18.948,lexical_decision_task_DD_L3,2021.2.3,MacIntel,58.82352941,,,,,,,,,,1.485,1,,,,,,,,,,,,,,,0,-0.509592326,-0.298561151,1,0,0,1.485,button_left_main,-0.509592326,-0.298561151,1,0,0,,0,107,107,151,1,TINKY,HB,old,z,./images/TINKYHB.png,,,,,,,,,,,,,,,,,,,,,,,,,,,,,,,,,
,,,,,,,,,,,,,,,,,60fd344157cabc293d69bd4b,52,2022-02-12_13h26.18.948,lexical_decision_task_DD_L3,2021.2.3,MacIntel,58.82352941,,,,,,,,,,1.726,1,,,,,,,,,,,,,,,0,-0.523980815,-0.279376499,1,0,0,1.726,button_left_main,-0.523980815,-0.279376499,1,0,0,,0,108,108,163,1,GAMBA,HB,old,z,./images/GAMBAHB.png,,,,,,,,,,,,,,,,,,,,,,,,,,,,,,,,,
,,,,,,,,,,,,,,,,,60fd344157cabc293d69bd4b,52,2022-02-12_13h26.18.948,lexical_decision_task_DD_L3,2021.2.3,MacIntel,58.82352941,,,,,,,,,,1.575,1,,,,,,,,,,,,,,,0,0.470023981,-0.29736211,1,0,0,1.575,button_right_main,0.470023981,-0.29736211,1,0,0,,0,109,109,41,1,STRING,HB,old,m,./images/STRINGHB.png,,,,,,,,,,,,,,,,,,,,,,,,,,,,,,,,,
,,,,,,,,,,,,,,,,,60fd344157cabc293d69bd4b,52,2022-02-12_13h26.18.948,lexical_decision_task_DD_L3,2021.2.3,MacIntel,58.82352941,,,,,,,,,,2.027,1,,,,,,,,,,,,,,,0,-0.519184652,-0.292565947,1,0,0,2.027,button_left_main,-0.519184652,-0.292565947,1,0,0,,0,110,110,109,1,BURGE,HB,old,z,./images/BURGEHB.png,,,,,,,,,,,,,,,,,,,,,,,,,,,,,,,,,
,,,,,,,,,,,,,,,,,60fd344157cabc293d69bd4b,52,2022-02-12_13h26.18.948,lexical_decision_task_DD_L3,2021.2.3,MacIntel,58.82352941,,,,,,,,,,0.893,1,,,,,,,,,,,,,,,0,0.450839329,-0.299760192,1,0,0,0.893,button_right_main,0.450839329,-0.299760192,1,0,0,,0,111,111,68,1,TORCH,HB,old,m,./images/TORCHHB.png,,,,,,,,,,,,,,,,,,,,,,,,,,,,,,,,,
,,,,,,,,,,,,,,,,,60fd344157cabc293d69bd4b,52,2022-02-12_13h26.18.948,lexical_decision_task_DD_L3,2021.2.3,MacIntel,58.82352941,,,,,,,,,,0.841,1,,,,,,,,,,,,,,,0,0.455635492,-0.304556355,1,0,0,0.841,button_right_main,0.455635492,-0.304556355,1,0,0,,0,112,112,24,1,SCREW,LB,old,m,./images/SCREWLB.png,,,,,,,,,,,,,,,,,,,,,,,,,,,,,,,,,
,,,,,,,,,,,,,,,,,60fd344157cabc293d69bd4b,52,2022-02-12_13h26.18.948,lexical_decision_task_DD_L3,2021.2.3,MacIntel,58.82352941,,,,,,,,,,0.752,1,,,,,,,,,,,,,,,0,0.464028777,-0.303357314,1,0,0,0.752,button_right_main,0.464028777,-0.303357314,1,0,0,,0,113,113,79,1,CRUST,C,old,m,./images/CRUST.png,,,,,,,,,,,,,,,,,,,,,,,,,,,,,,,,,
,,,,,,,,,,,,,,,,,60fd344157cabc293d69bd4b,52,2022-02-12_13h26.18.948,lexical_decision_task_DD_L3,2021.2.3,MacIntel,58.82352941,,,,,,,,,,0.719,1,,,,,,,,,,,,,,,0,0.464028777,-0.305755396,1,0,0,0.719,button_right_main,0.464028777,-0.305755396,1,0,0,,0,114,114,42,1,FOLDER,LB,old,m,./images/FOLDERLB.png,,,,,,,,,,,,,,,,,,,,,,,,,,,,,,,,,
,,,,,,,,,,,,,,,,,60fd344157cabc293d69bd4b,52,2022-02-12_13h26.18.948,lexical_decision_task_DD_L3,2021.2.3,MacIntel,58.82352941,,,,,,,,,,1.093,1,,,,,,,,,,,,,,,0,0.467625899,-0.309352518,1,0,0,1.093,button_right_main,0.467625899,-0.309352518,1,0,0,,0,115,115,23,1,WALRUS,HB,old,m,./images/WALRUSHB.png,,,,,,,,,,,,,,,,,,,,,,,,,,,,,,,,,
,,,,,,,,,,,,,,,,,60fd344157cabc293d69bd4b,52,2022-02-12_13h26.18.948,lexical_decision_task_DD_L3,2021.2.3,MacIntel,58.82352941,,,,,,,,,,0.739,1,,,,,,,,,,,,,,,0,0.464028777,-0.298561151,1,0,0,0.739,button_right_main,0.464028777,-0.298561151,1,0,0,,0,116,116,46,1,PEARL,C,old,m,./images/PEARL.png,,,,,,,,,,,,,,,,,,,,,,,,,,,,,,,,,
,,,,,,,,,,,,,,,,,60fd344157cabc293d69bd4b,52,2022-02-12_13h26.18.948,lexical_decision_task_DD_L3,2021.2.3,MacIntel,58.82352941,,,,,,,,,,1.518,1,,,,,,,,,,,,,,,0,-0.534772182,-0.29616307,1,0,0,1.518,button_left_main,-0.534772182,-0.29616307,1,0,0,,0,117,117,99,1,BACKY,C,old,z,./images/BACKY.png,,,,,,,,,,,,,,,,,,,,,,,,,,,,,,,,,
,,,,,,,,,,,,,,,,,60fd344157cabc293d69bd4b,52,2022-02-12_13h26.18.948,lexical_decision_task_DD_L3,2021.2.3,MacIntel,58.82352941,,,,,,,,,,1.67,1,,,,,,,,,,,,,,,0,-0.53117506,-0.286570743,1,0,0,1.67,button_left_main,-0.53117506,-0.286570743,1,0,0,,0,118,118,144,1,NAIRY,C,old,z,./images/NAIRY.png,,,,,,,,,,,,,,,,,,,,,,,,,,,,,,,,,
,,,,,,,,,,,,,,,,,60fd344157cabc293d69bd4b,52,2022-02-12_13h26.18.948,lexical_decision_task_DD_L3,2021.2.3,MacIntel,58.82352941,,,,,,,,,,1.635,1,,,,,,,,,,,,,,,0,-0.522781775,-0.291366906,1,0,0,1.635,button_left_main,-0.522781775,-0.291366906,1,0,0,,0,119,119,133,1,POWDY,HB,old,z,./images/POWDYHB.png,,,,,,,,,,,,,,,,,,,,,,,,,,,,,,,,,
,,,,,,,,,,,,,,,,,60fd344157cabc293d69bd4b,52,2022-02-12_13h26.18.948,lexical_decision_task_DD_L3,2021.2.3,MacIntel,58.82352941,,,,,,,,,,1.076,1,,,,,,,,,,,,,,,0,0.470023981,-0.299760192,1,0,0,1.076,button_right_main,0.470023981,-0.299760192,1,0,0,,0,120,120,14,1,PICKLE,HB,old,m,./images/PICKLEHB.png,,,,,,,,,,,,,,,,,,,,,,,,,,,,,,,,,
,,,,,,,,,,,,,,,,,60fd344157cabc293d69bd4b,52,2022-02-12_13h26.18.948,lexical_decision_task_DD_L3,2021.2.3,MacIntel,58.82352941,,,,,,,,,,1.017,1,,,,,,,,,,,,,,,0,-0.535971223,-0.302158273,1,0,0,1.017,button_left_main,-0.535971223,-0.302158273,1,0,0,,0,121,121,150,1,NOOLS,C,old,z,./images/NOOLS.png,,,,,,,,,,,,,,,,,,,,,,,,,,,,,,,,,
,,,,,,,,,,,,,,,,,60fd344157cabc293d69bd4b,52,2022-02-12_13h26.18.948,lexical_decision_task_DD_L3,2021.2.3,MacIntel,58.82352941,,,,,,,,,,0.852,1,,,,,,,,,,,,,,,0,0.474820144,-0.303357314,1,0,0,0.852,button_right_main,0.474820144,-0.303357314,1,0,0,,0,122,122,27,1,ATTIC,LB,old,m,./images/ATTICLB.png,,,,,,,,,,,,,,,,,,,,,,,,,,,,,,,,,
,,,,,,,,,,,,,,,,,60fd344157cabc293d69bd4b,52,2022-02-12_13h26.18.948,lexical_decision_task_DD_L3,2021.2.3,MacIntel,58.82352941,,,,,,,,,,1.517,1,,,,,,,,,,,,,,,0,-0.520383693,-0.31294964,1,0,0,1.517,button_left_main,-0.520383693,-0.31294964,1,0,0,,0,123,123,145,1,LAMEL,HB,old,z,./images/LAMELHB.png,,,,,,,,,,,,,,,,,,,,,,,,,,,,,,,,,
,,,,,,,,,,,,,,,,,60fd344157cabc293d69bd4b,52,2022-02-12_13h26.18.948,lexical_decision_task_DD_L3,2021.2.3,MacIntel,58.82352941,,,,,,,,,,0.938,1,,,,,,,,,,,,,,,0,-0.543165468,-0.293764988,1,0,0,0.938,button_left_main,-0.543165468,-0.293764988,1,0,0,,0,124,124,138,1,PLICE,C,old,z,./images/PLICE.png,,,,,,,,,,,,,,,,,,,,,,,,,,,,,,,,,
,,,,,,,,,,,,,,,,,60fd344157cabc293d69bd4b,52,2022-02-12_13h26.18.948,lexical_decision_task_DD_L3,2021.2.3,MacIntel,58.82352941,,,,,,,,,,0.919,1,,,,,,,,,,,,,,,0,0.460431655,-0.298561151,1,0,0,0.919,button_right_main,0.068345324,-0.407673861,1,0,0,,0,125,125,81,1,POODLE,LB,old,m,./images/POODLELB.png,break_done_button,,,,,,,,,,,,,,,,,,,,,,,,,,,,,,,,
,,,,,,,,,,,,,,,,,60fd344157cabc293d69bd4b,52,2022-02-12_13h26.18.948,lexical_decision_task_DD_L3,2021.2.3,MacIntel,58.82352941,,,,,,,,,,0.963,1,,,,,,,,,,,,,,,0,0.435251799,-0.300959233,1,0,0,0.963,button_right_main,0.435251799,-0.300959233,1,0,0,,0,126,126,9,1,RHINO,LB,old,m,./images/RHINOLB.png,,,,,,,,,,,,,,,,,,,,,,,,,,,,,,,,,
,,,,,,,,,,,,,,,,,60fd344157cabc293d69bd4b,52,2022-02-12_13h26.18.948,lexical_decision_task_DD_L3,2021.2.3,MacIntel,58.82352941,,,,,,,,,,1.182,1,,,,,,,,,,,,,,,0,-0.527577938,-0.29616307,1,0,0,1.182,button_left_main,-0.527577938,-0.29616307,1,0,0,,0,127,127,127,1,NINDY,HB,old,z,./images/NINDYHB.png,,,,,,,,,,,,,,,,,,,,,,,,,,,,,,,,,
,,,,,,,,,,,,,,,,,60fd344157cabc293d69bd4b,52,2022-02-12_13h26.18.948,lexical_decision_task_DD_L3,2021.2.3,MacIntel,58.82352941,,,,,,,,,,0.786,1,,,,,,,,,,,,,,,0,0.440047962,-0.286570743,1,0,0,0.786,button_right_main,0.440047962,-0.286570743,1,0,0,,0,128,128,64,1,JELLY,C,old,m,./images/JELLY.png,,,,,,,,,,,,,,,,,,,,,,,,,,,,,,,,,
,,,,,,,,,,,,,,,,,60fd344157cabc293d69bd4b,52,2022-02-12_13h26.18.948,lexical_decision_task_DD_L3,2021.2.3,MacIntel,58.82352941,,,,,,,,,,1.422,1,,,,,,,,,,,,,,,0,-0.534772182,-0.292565947,1,0,0,1.422,button_left_main,-0.534772182,-0.292565947,1,0,0,,0,129,129,148,1,JOMS,HB,old,z,./images/JOMSHB.png,,,,,,,,,,,,,,,,,,,,,,,,,,,,,,,,,
,,,,,,,,,,,,,,,,,60fd344157cabc293d69bd4b,52,2022-02-12_13h26.18.948,lexical_decision_task_DD_L3,2021.2.3,MacIntel,58.82352941,,,,,,,,,,0.77,1,,,,,,,,,,,,,,,0,0.458033573,-0.290167866,1,0,0,0.77,button_right_main,0.458033573,-0.290167866,1,0,0,,0,130,130,63,1,MIRROR,LB,old,m,./images/MIRRORLB.png,,,,,,,,,,,,,,,,,,,,,,,,,,,,,,,,,
,,,,,,,,,,,,,,,,,60fd344157cabc293d69bd4b,52,2022-02-12_13h26.18.948,lexical_decision_task_DD_L3,2021.2.3,MacIntel,58.82352941,,,,,,,,,,0.731,1,,,,,,,,,,,,,,,0,0.444844125,-0.29616307,1,0,0,0.731,button_right_main,0.444844125,-0.29616307,1,0,0,,0,131,131,15,1,GREASE,LB,old,m,./images/GREASELB.png,,,,,,,,,,,,,,,,,,,,,,,,,,,,,,,,,
,,,,,,,,,,,,,,,,,60fd344157cabc293d69bd4b,52,2022-02-12_13h26.18.948,lexical_decision_task_DD_L3,2021.2.3,MacIntel,58.82352941,,,,,,,,,,1.189,1,,,,,,,,,,,,,,,0,-0.539568345,-0.306954436,1,0,0,1.189,button_left_main,-0.539568345,-0.306954436,1,0,0,,0,132,132,121,1,CEERS,HB,old,z,./images/CEERSHB.png,,,,,,,,,,,,,,,,,,,,,,,,,,,,,,,,,
,,,,,,,,,,,,,,,,,60fd344157cabc293d69bd4b,52,2022-02-12_13h26.18.948,lexical_decision_task_DD_L3,2021.2.3,MacIntel,58.82352941,,,,,,,,,,1.018,1,,,,,,,,,,,,,,,0,-0.538369305,-0.305755396,1,0,0,1.018,button_left_main,-0.538369305,-0.305755396,1,0,0,,0,133,133,84,1,HAXES,C,old,z,./images/HAXES.png,,,,,,,,,,,,,,,,,,,,,,,,,,,,,,,,,
,,,,,,,,,,,,,,,,,60fd344157cabc293d69bd4b,52,2022-02-12_13h26.18.948,lexical_decision_task_DD_L3,2021.2.3,MacIntel,58.82352941,,,,,,,,,,1.28,1,,,,,,,,,,,,,,,0,-0.553956835,-0.300959233,1,0,0,1.28,button_left_main,-0.553956835,-0.300959233,1,0,0,,0,134,134,125,1,MOOKY,LB,old,z,./images/MOOKYLB.png,,,,,,,,,,,,,,,,,,,,,,,,,,,,,,,,,
,,,,,,,,,,,,,,,,,60fd344157cabc293d69bd4b,52,2022-02-12_13h26.18.948,lexical_decision_task_DD_L3,2021.2.3,MacIntel,58.82352941,,,,,,,,,,1.815,1,,,,,,,,,,,,,,,0,-0.529976019,-0.309352518,1,0,0,1.815,button_left_main,-0.529976019,-0.309352518,1,0,0,,0,135,135,157,1,INLER,HB,old,z,./images/INLERHB.png,,,,,,,,,,,,,,,,,,,,,,,,,,,,,,,,,
,,,,,,,,,,,,,,,,,60fd344157cabc293d69bd4b,52,2022-02-12_13h26.18.948,lexical_decision_task_DD_L3,2021.2.3,MacIntel,58.82352941,,,,,,,,,,1.187,1,,,,,,,,,,,,,,,0,-0.551558753,-0.291366906,1,0,0,1.187,button_left_main,-0.551558753,-0.291366906,1,0,0,,0,136,136,105,1,MOKER,C,old,z,./images/MOKER.png,,,,,,,,,,,,,,,,,,,,,,,,,,,,,,,,,
,,,,,,,,,,,,,,,,,60fd344157cabc293d69bd4b,52,2022-02-12_13h26.18.948,lexical_decision_task_DD_L3,2021.2.3,MacIntel,58.82352941,,,,,,,,,,1.139,1,,,,,,,,,,,,,,,0,-0.547961631,-0.29736211,1,0,0,1.139,button_left_main,-0.547961631,-0.29736211,1,0,0,,0,137,137,114,1,RIKES,C,old,z,./images/RIKES.png,,,,,,,,,,,,,,,,,,,,,,,,,,,,,,,,,
,,,,,,,,,,,,,,,,,60fd344157cabc293d69bd4b,52,2022-02-12_13h26.18.948,lexical_decision_task_DD_L3,2021.2.3,MacIntel,58.82352941,,,,,,,,,,1.447,1,,,,,,,,,,,,,,,0,-0.549160671,-0.292565947,1,0,0,1.447,button_left_main,-0.549160671,-0.292565947,1,0,0,,0,138,138,146,1,MOOST,LB,old,z,./images/MOOSTLB.png,,,,,,,,,,,,,,,,,,,,,,,,,,,,,,,,,
,,,,,,,,,,,,,,,,,60fd344157cabc293d69bd4b,52,2022-02-12_13h26.18.948,lexical_decision_task_DD_L3,2021.2.3,MacIntel,58.82352941,,,,,,,,,,1.205,1,,,,,,,,,,,,,,,0,-0.558752998,-0.290167866,1,0,0,1.205,button_left_main,-0.558752998,-0.290167866,1,0,0,,0,139,139,123,1,SEDGE,C,old,z,./images/SEDGE.png,,,,,,,,,,,,,,,,,,,,,,,,,,,,,,,,,
,,,,,,,,,,,,,,,,,60fd344157cabc293d69bd4b,52,2022-02-12_13h26.18.948,lexical_decision_task_DD_L3,2021.2.3,MacIntel,58.82352941,,,,,,,,,,1.297,1,,,,,,,,,,,,,,,0,-0.556354916,-0.284172662,1,0,0,1.297,button_left_main,-0.556354916,-0.284172662,1,0,0,,0,140,140,95,1,HANTY,LB,old,z,./images/HANTYLB.png,,,,,,,,,,,,,,,,,,,,,,,,,,,,,,,,,
,,,,,,,,,,,,,,,,,60fd344157cabc293d69bd4b,52,2022-02-12_13h26.18.948,lexical_decision_task_DD_L3,2021.2.3,MacIntel,58.82352941,,,,,,,,,,0.747,1,,,,,,,,,,,,,,,0,0.474820144,-0.304556355,1,0,0,0.747,button_right_main,0.474820144,-0.304556355,1,0,0,,0,141,141,37,1,BIRTH,C,old,m,./images/BIRTH.png,,,,,,,,,,,,,,,,,,,,,,,,,,,,,,,,,
,,,,,,,,,,,,,,,,,60fd344157cabc293d69bd4b,52,2022-02-12_13h26.18.948,lexical_decision_task_DD_L3,2021.2.3,MacIntel,58.82352941,,,,,,,,,,0.896,1,,,,,,,,,,,,,,,0,0.461630695,-0.292565947,1,0,0,0.896,button_right_main,0.461630695,-0.292565947,1,0,0,,0,142,142,69,1,COOKER,LB,old,m,./images/COOKERLB.png,,,,,,,,,,,,,,,,,,,,,,,,,,,,,,,,,
,,,,,,,,,,,,,,,,,60fd344157cabc293d69bd4b,52,2022-02-12_13h26.18.948,lexical_decision_task_DD_L3,2021.2.3,MacIntel,58.82352941,,,,,,,,,,2.555,1,,,,,,,,,,,,,,,0,0.473621103,-0.304556355,1,0,0,2.555,button_right_main,0.473621103,-0.304556355,1,0,0,,0,143,143,21,1,KIDNEY,LB,old,m,./images/KIDNEYLB.png,,,,,,,,,,,,,,,,,,,,,,,,,,,,,,,,,
,,,,,,,,,,,,,,,,,60fd344157cabc293d69bd4b,52,2022-02-12_13h26.18.948,lexical_decision_task_DD_L3,2021.2.3,MacIntel,58.82352941,,,,,,,,,,1.097,1,,,,,,,,,,,,,,,0,0.473621103,-0.293764988,1,0,0,1.097,button_right_main,0.473621103,-0.293764988,1,0,0,,0,144,144,60,1,TWINS,LB,old,m,./images/TWINSLB.png,,,,,,,,,,,,,,,,,,,,,,,,,,,,,,,,,
,,,,,,,,,,,,,,,,,60fd344157cabc293d69bd4b,52,2022-02-12_13h26.18.948,lexical_decision_task_DD_L3,2021.2.3,MacIntel,58.82352941,,,,,,,,,,0.971,1,,,,,,,,,,,,,,,0,0.478417266,-0.290167866,1,0,0,0.971,button_right_main,0.478417266,-0.290167866,1,0,0,,0,145,145,33,1,MAGGOT,LB,old,m,./images/MAGGOTLB.png,,,,,,,,,,,,,,,,,,,,,,,,,,,,,,,,,
,,,,,,,,,,,,,,,,,60fd344157cabc293d69bd4b,52,2022-02-12_13h26.18.948,lexical_decision_task_DD_L3,2021.2.3,MacIntel,58.82352941,,,,,,,,,,2.103,1,,,,,,,,,,,,,,,0,-0.526378897,-0.298561151,1,0,0,2.103,button_left_main,-0.526378897,-0.298561151,1,0,0,,0,146,146,85,1,CHULK,HB,old,z,./images/CHULKHB.png,,,,,,,,,,,,,,,,,,,,,,,,,,,,,,,,,
,,,,,,,,,,,,,,,,,60fd344157cabc293d69bd4b,52,2022-02-12_13h26.18.948,lexical_decision_task_DD_L3,2021.2.3,MacIntel,58.82352941,,,,,,,,,,2.414,1,,,,,,,,,,,,,,,0,0.482014388,-0.298561151,1,0,0,2.414,button_right_main,0.482014388,-0.298561151,1,0,0,,0,147,147,50,1,MALLET,HB,old,m,./images/MALLETHB.png,,,,,,,,,,,,,,,,,,,,,,,,,,,,,,,,,
,,,,,,,,,,,,,,,,,60fd344157cabc293d69bd4b,52,2022-02-12_13h26.18.948,lexical_decision_task_DD_L3,2021.2.3,MacIntel,58.82352941,,,,,,,,,,1.547,1,,,,,,,,,,,,,,,0,-0.539568345,-0.284172662,1,0,0,1.547,button_left_main,-0.539568345,-0.284172662,1,0,0,,0,148,148,118,1,BAVEL,HB,old,z,./images/BAVELHB.png,,,,,,,,,,,,,,,,,,,,,,,,,,,,,,,,,
,,,,,,,,,,,,,,,,,60fd344157cabc293d69bd4b,52,2022-02-12_13h26.18.948,lexical_decision_task_DD_L3,2021.2.3,MacIntel,58.82352941,,,,,,,,,,1.121,1,,,,,,,,,,,,,,,0,-0.547961631,-0.300959233,1,0,0,1.121,button_left_main,-0.547961631,-0.300959233,1,0,0,,0,149,149,88,1,GLUSH,HB,old,z,./images/GLUSHHB.png,,,,,,,,,,,,,,,,,,,,,,,,,,,,,,,,,
,,,,,,,,,,,,,,,,,60fd344157cabc293d69bd4b,52,2022-02-12_13h26.18.948,lexical_decision_task_DD_L3,2021.2.3,MacIntel,58.82352941,,,,,,,,,,1.023,1,,,,,,,,,,,,,,,0,0.480815348,-0.294964029,1,0,0,1.023,button_right_main,0.480815348,-0.294964029,1,0,0,,0,150,150,58,1,BABOON,C,old,m,./images/BABOON.png,,,,,,,,,,,,,,,,,,,,,,,,,,,,,,,,,
,,,,,,,,,,,,,,,,,60fd344157cabc293d69bd4b,52,2022-02-12_13h26.18.948,lexical_decision_task_DD_L3,2021.2.3,MacIntel,58.82352941,,,,,,,,,,1.322,1,,,,,,,,,,,,,,,0,0.476019185,-0.287769784,1,0,0,1.322,button_right_main,0.476019185,-0.287769784,1,0,0,,0,151,151,32,1,BARREL,HB,old,m,./images/BARRELHB.png,,,,,,,,,,,,,,,,,,,,,,,,,,,,,,,,,
,,,,,,,,,,,,,,,,,60fd344157cabc293d69bd4b,52,2022-02-12_13h26.18.948,lexical_decision_task_DD_L3,2021.2.3,MacIntel,58.82352941,,,,,,,,,,0.854,1,,,,,,,,,,,,,,,0,0.476019185,-0.290167866,1,0,0,0.854,button_right_main,0.476019185,-0.290167866,1,0,0,,0,152,152,22,1,MELON,C,old,m,./images/MELON.png,,,,,,,,,,,,,,,,,,,,,,,,,,,,,,,,,
,,,,,,,,,,,,,,,,,60fd344157cabc293d69bd4b,52,2022-02-12_13h26.18.948,lexical_decision_task_DD_L3,2021.2.3,MacIntel,58.82352941,,,,,,,,,,1.813,1,,,,,,,,,,,,,,,0,-0.525179856,-0.29616307,1,0,0,1.813,button_left_main,-0.525179856,-0.29616307,1,0,0,,0,153,153,137,1,JOOST,LB,old,z,./images/JOOSTLB.png,,,,,,,,,,,,,,,,,,,,,,,,,,,,,,,,,
,,,,,,,,,,,,,,,,,60fd344157cabc293d69bd4b,52,2022-02-12_13h26.18.948,lexical_decision_task_DD_L3,2021.2.3,MacIntel,58.82352941,,,,,,,,,,0.847,1,,,,,,,,,,,,,,,0,0.486810552,-0.288968825,1,0,0,0.847,button_right_main,0.486810552,-0.288968825,1,0,0,,0,154,154,35,1,PEACH,HB,old,m,./images/PEACHHB.png,,,,,,,,,,,,,,,,,,,,,,,,,,,,,,,,,
,,,,,,,,,,,,,,,,,60fd344157cabc293d69bd4b,52,2022-02-12_13h26.18.948,lexical_decision_task_DD_L3,2021.2.3,MacIntel,58.82352941,,,,,,,,,,0.969,1,,,,,,,,,,,,,,,0,-0.54676259,-0.304556355,1,0,0,0.969,button_left_main,-0.54676259,-0.304556355,1,0,0,,0,155,155,132,1,SCIFF,C,old,z,./images/SCIFF.png,,,,,,,,,,,,,,,,,,,,,,,,,,,,,,,,,
,,,,,,,,,,,,,,,,,60fd344157cabc293d69bd4b,52,2022-02-12_13h26.18.948,lexical_decision_task_DD_L3,2021.2.3,MacIntel,58.82352941,,,,,,,,,,1.598,1,,,,,,,,,,,,,,,0,-0.528776978,-0.302158273,1,0,0,1.598,button_left_main,-0.528776978,-0.302158273,1,0,0,,0,156,156,154,1,THINT,HB,old,z,./images/THINTHB.png,,,,,,,,,,,,,,,,,,,,,,,,,,,,,,,,,
,,,,,,,,,,,,,,,,,60fd344157cabc293d69bd4b,52,2022-02-12_13h26.18.948,lexical_decision_task_DD_L3,2021.2.3,MacIntel,58.82352941,,,,,,,,,,1.986,1,,,,,,,,,,,,,,,0,-0.535971223,-0.293764988,1,0,0,1.986,button_left_main,-0.535971223,-0.293764988,1,0,0,,0,157,157,103,1,FLORT,HB,old,z,./images/FLORTHB.png,,,,,,,,,,,,,,,,,,,,,,,,,,,,,,,,,
,,,,,,,,,,,,,,,,,60fd344157cabc293d69bd4b,52,2022-02-12_13h26.18.948,lexical_decision_task_DD_L3,2021.2.3,MacIntel,58.82352941,,,,,,,,,,1.045,1,,,,,,,,,,,,,,,0,-0.543165468,-0.303357314,1,0,0,1.045,button_left_main,-0.543165468,-0.303357314,1,0,0,,0,158,158,117,1,STEEG,C,old,z,./images/STEEG.png,,,,,,,,,,,,,,,,,,,,,,,,,,,,,,,,,
,,,,,,,,,,,,,,,,,60fd344157cabc293d69bd4b,52,2022-02-12_13h26.18.948,lexical_decision_task_DD_L3,2021.2.3,MacIntel,58.82352941,,,,,,,,,,0.904,1,,,,,,,,,,,,,,,0,-0.545563549,-0.300959233,1,0,0,0.904,button_left_main,-0.545563549,-0.300959233,1,0,0,,0,159,159,167,1,ZONET,LB,old,z,./images/ZONETLB.png,,,,,,,,,,,,,,,,,,,,,,,,,,,,,,,,,
,,,,,,,,,,,,,,,,,60fd344157cabc293d69bd4b,52,2022-02-12_13h26.18.948,lexical_decision_task_DD_L3,2021.2.3,MacIntel,58.82352941,,,,,,,,,,1.313,1,,,,,,,,,,,,,,,0,-0.529976019,-0.298561151,1,0,0,1.313,button_left_main,-0.529976019,-0.298561151,1,0,0,,0,160,160,159,1,CUDDY,C,old,z,./images/CUDDY.png,,,,,,,,,,,,,,,,,,,,,,,,,,,,,,,,,
,,,,,,,,,,,,,,,,,60fd344157cabc293d69bd4b,52,2022-02-12_13h26.18.948,lexical_decision_task_DD_L3,2021.2.3,MacIntel,58.82352941,,,,,,,,,,0.955,1,,,,,,,,,,,,,,,0,-0.539568345,-0.299760192,1,0,0,0.955,button_left_main,-0.539568345,-0.299760192,1,0,0,,0,161,161,101,1,GLEET,LB,old,z,./images/GLEETLB.png,,,,,,,,,,,,,,,,,,,,,,,,,,,,,,,,,
,,,,,,,,,,,,,,,,,60fd344157cabc293d69bd4b,52,2022-02-12_13h26.18.948,lexical_decision_task_DD_L3,2021.2.3,MacIntel,58.82352941,,,,,,,,,,0.83,1,,,,,,,,,,,,,,,0,0.488009592,-0.290167866,1,0,0,0.83,button_right_main,0.488009592,-0.290167866,1,0,0,,0,162,162,28,1,FALCON,C,old,m,./images/FALCON.png,,,,,,,,,,,,,,,,,,,,,,,,,,,,,,,,,
,,,,,,,,,,,,,,,,,60fd344157cabc293d69bd4b,52,2022-02-12_13h26.18.948,lexical_decision_task_DD_L3,2021.2.3,MacIntel,58.82352941,,,,,,,,,,0.756,1,,,,,,,,,,,,,,,0,0.480815348,-0.293764988,1,0,0,0.756,button_right_main,0.480815348,-0.293764988,1,0,0,,0,163,163,10,1,BELLY,C,old,m,./images/BELLY.png,,,,,,,,,,,,,,,,,,,,,,,,,,,,,,,,,
,,,,,,,,,,,,,,,,,60fd344157cabc293d69bd4b,52,2022-02-12_13h26.18.948,lexical_decision_task_DD_L3,2021.2.3,MacIntel,58.82352941,,,,,,,,,,2.039,1,,,,,,,,,,,,,,,0,-0.53117506,-0.298561151,1,0,0,2.039,button_left_main,-0.53117506,-0.298561151,1,0,0,,0,164,164,97,1,CHIDS,HB,old,z,./images/CHIDSHB.png,,,,,,,,,,,,,,,,,,,,,,,,,,,,,,,,,
,,,,,,,,,,,,,,,,,60fd344157cabc293d69bd4b,52,2022-02-12_13h26.18.948,lexical_decision_task_DD_L3,2021.2.3,MacIntel,58.82352941,,,,,,,,,,1.023,1,,,,,,,,,,,,,,,0,0.482014388,-0.286570743,1,0,0,1.023,button_right_main,0.482014388,-0.286570743,1,0,0,,0,165,165,8,1,TULIP,HB,old,m,./images/TULIPHB.png,,,,,,,,,,,,,,,,,,,,,,,,,,,,,,,,,
,,,,,,,,,,,,,,,,,60fd344157cabc293d69bd4b,52,2022-02-12_13h26.18.948,lexical_decision_task_DD_L3,2021.2.3,MacIntel,58.82352941,,,,,,,,,,0.83,1,,,,,,,,,,,,,,,0,0.472422062,-0.286570743,1,0,0,0.83,button_right_main,0.472422062,-0.286570743,1,0,0,,0,166,166,7,1,PAINT,C,old,m,./images/PAINT.png,,,,,,,,,,,,,,,,,,,,,,,,,,,,,,,,,
,,,,,,,,,,,,,,,,,60fd344157cabc293d69bd4b,52,2022-02-12_13h26.18.948,lexical_decision_task_DD_L3,2021.2.3,MacIntel,58.82352941,,,,,,,,,,1.167,1,,,,,,,,,,,,,,,0,0.473621103,-0.291366906,1,0,0,1.167,button_right_main,0.473621103,-0.291366906,1,0,0,,0,167,167,6,1,SQUARE,LB,old,m,./images/SQUARELB.png,,,,,,,,,,,,,,,,,,,,,,,,,,,,,,,,,
,,,,,,,,,,,,,,,,,60fd344157cabc293d69bd4b,52,2022-02-12_13h26.18.948,lexical_decision_task_DD_L3,2021.2.3,MacIntel,58.82352941,,,,,,,,,,,,,,,,,,,,,,,,,,,,,,,,,,,,,,,,,,,,,,How likely will it be that you will recognize the words presented clearly on a scale of 0 (not likely) to 100 (most likely)?,,,,,0.021582734,-0.416067146,1,0,0,jol_adv,6,20.416,0,0,0,0,1,,,,,,,,,,,,,,,,,,,
,,,,,,,,,,,,,,,,,60fd344157cabc293d69bd4b,52,2022-02-12_13h26.18.948,lexical_decision_task_DD_L3,2021.2.3,MacIntel,58.82352941,,,,,,,,,,,,,,,,,,,,,,,,,,,,,,,,,,,,,,,,,,,,,,How likely will it be that you will recognize the words presented very blurred on a scale of 0 (not likely) to 100 (most likely)?,,,,,,,,,,,5,14.024,0,1,1,2,1,,,,,,,,,,,,,,,,,,,
,,,,,,,,,,,,,,,,,60fd344157cabc293d69bd4b,52,2022-02-12_13h26.18.948,lexical_decision_task_DD_L3,2021.2.3,MacIntel,58.82352941,,,,,,,,,,,,,,,,,,,,,,,,,,,,,,,,,,,,,,,,,,,,,,How likely will it be that you will recognize the words presented slighly blurred on a scale of 0 (not likely) to 100 (most likely)?,,,,,,,,,,,6,12.658,0,2,2,1,1,,,,,,,,,,,,,,,,,,,
,0.04676259,-0.40647482,1,0,0,instr_done_button,,,,,,1,test,"In the next phase you will be presented with the words from the the first phase. Your job is to decide whether you remember seeing the word or not. If you remember seeing the word press ""old"" or type ""m"". If you do not remember seeing the word press ""new"" or type ""z"". Please press the space bar or click on continue to begin. ",,,60fd344157cabc293d69bd4b,52,2022-02-12_13h26.18.948,lexical_decision_task_DD_L3,2021.2.3,MacIntel,58.82352941,,,,,,,,,,,,,,,,,,,,,,,,,,,,,,,,,,,,,,,,,,,,,,,,,,,,,,,,,,,,,,,,0,0,0,0,1,,,,,,,,,,,,,,
,0.01558753,-0.399280576,1,0,0,instr_done_button,,,,,,1,test,"In the next phase you will be presented with the words from the the first phase. Your job is to decide whether you remember seeing the word or not. If you remember seeing the word press ""old"" or type ""m"". If you do not remember seeing the word press ""new"" or type ""z"". Please press the space bar or click on continue to begin. ",,,60fd344157cabc293d69bd4b,52,2022-02-12_13h26.18.948,lexical_decision_task_DD_L3,2021.2.3,MacIntel,58.82352941,,,,,,,,,,,,,,,,,,,,,,,,,,,,,,,,,,,,,,,,,,,,,,,,,,,,,,,,,,,,,,,,1,0,1,0,1,,,,,,,,,,,,,,
,0.007194245,-0.381294964,1,0,0,instr_done_button,,,,,,1,test,"In the next phase you will be presented with the words from the the first phase. Your job is to decide whether you remember seeing the word or not. If you remember seeing the word press ""old"" or type ""m"". If you do not remember seeing the word press ""new"" or type ""z"". Please press the space bar or click on continue to begin. ",,,60fd344157cabc293d69bd4b,52,2022-02-12_13h26.18.948,lexical_decision_task_DD_L3,2021.2.3,MacIntel,58.82352941,,,,,,,,,,,,,,,,,,,,,,,,,,,,,,,,,,,,,,,,,,,,,,,,,,,,,,,,,,,,,,,,2,0,2,0,1,,,,,,,,,,,,,,
,0.008393285,-0.396882494,1,0,0,instr_done_button,,,,,,1,test,"In the next phase you will be presented with the words from the the first phase. Your job is to decide whether you remember seeing the word or not. If you remember seeing the word press ""old"" or type ""m"". If you do not remember seeing the word press ""new"" or type ""z"". Please press the space bar or click on continue to begin. ",,,60fd344157cabc293d69bd4b,52,2022-02-12_13h26.18.948,lexical_decision_task_DD_L3,2021.2.3,MacIntel,58.82352941,,,,,,,,,,,,,,,,,,,,,,,,,,,,,,,,,,,,,,,,,,,,,,,,,,,,,,,,,,,,,,,,3,0,3,0,1,,,,,,,,,,,,,,
,0.07793765,-0.408872902,1,0,0,instr_done_button,,,,,,1,test,"In the next phase you will be presented with the words from the the first phase. Your job is to decide whether you remember seeing the word or not. If you remember seeing the word press ""old"" or type ""m"". If you do not remember seeing the word press ""new"" or type ""z"". Please press the space bar or click on continue to begin. ",,,60fd344157cabc293d69bd4b,52,2022-02-12_13h26.18.948,lexical_decision_task_DD_L3,2021.2.3,MacIntel,58.82352941,,,,,,,,,,,,,,,,,,,,,,,,,,,,,,,,,,,,,,,,,,,,,,,,,,,,,,,,,,,,,,,,4,0,4,0,1,,,,,,,,,,,,,,
,,,,,,,,,,,,,,,,,60fd344157cabc293d69bd4b,52,2022-02-12_13h26.18.948,lexical_decision_task_DD_L3,2021.2.3,MacIntel,58.82352941,,,,,,,,,,2.102,1,,,,,,,,,,,,,,,,,,,,,,,0.414868106,-0.3117506,1,0,0,,,,,,,MOOSE,LB,m,m,./images/MOOSELB.png,,,,,,,,,,,,,,,,,,,,,0,0.414868106,-0.3117506,1,0,0,2.102,button_right_test,0,0,0,57,1
,,,,,,,,,,,,,,,,,60fd344157cabc293d69bd4b,52,2022-02-12_13h26.18.948,lexical_decision_task_DD_L3,2021.2.3,MacIntel,58.82352941,,,,,,,,,,1.68,0,,,,,,,,,,,,,,,,,,,,,,,0.423261391,-0.28057554,1,0,0,,,,,,,STATUE,LB,z,m,./images/STATUELB.png,,,,,,,,,,,,,,,,,,,,,0,0.423261391,-0.28057554,1,0,0,1.68,button_right_test,0,1,1,150,1
,,,,,,,,,,,,,,,,,60fd344157cabc293d69bd4b,52,2022-02-12_13h26.18.948,lexical_decision_task_DD_L3,2021.2.3,MacIntel,58.82352941,,,,,,,,,,3.463,0,,,,,,,,,,,,,,,,,,,,,,,-0.464028777,-0.304556355,1,0,0,,,,,,,CANYON,C,m,m,./images/CANYON.png,,,,,,,,,,,,,,,,,,,,,0,-0.464028777,-0.304556355,1,0,0,3.463,button_left_test,0,2,2,34,1
,,,,,,,,,,,,,,,,,60fd344157cabc293d69bd4b,52,2022-02-12_13h26.18.948,lexical_decision_task_DD_L3,2021.2.3,MacIntel,58.82352941,,,,,,,,,,1.685,1,,,,,,,,,,,,,,,,,,,,,,,0.389688249,-0.286570743,1,0,0,,,,,,,INFANT,C,m,m,./images/INFANT.png,,,,,,,,,,,,,,,,,,,,,0,0.389688249,-0.286570743,1,0,0,1.685,button_right_test,0,3,3,76,1
,,,,,,,,,,,,,,,,,60fd344157cabc293d69bd4b,52,2022-02-12_13h26.18.948,lexical_decision_task_DD_L3,2021.2.3,MacIntel,58.82352941,,,,,,,,,,0.984,1,,,,,,,,,,,,,,,,,,,,,,,0.386091127,-0.286570743,1,0,0,,,,,,,MAGGOT,LB,m,m,./images/MAGGOTLB.png,,,,,,,,,,,,,,,,,,,,,0,0.386091127,-0.286570743,1,0,0,0.984,button_right_test,0,4,4,33,1
,,,,,,,,,,,,,,,,,60fd344157cabc293d69bd4b,52,2022-02-12_13h26.18.948,lexical_decision_task_DD_L3,2021.2.3,MacIntel,58.82352941,,,,,,,,,,1.81,1,,,,,,,,,,,,,,,,,,,,,,,0.399280576,-0.29736211,1,0,0,,,,,,,COOKER,LB,m,m,./images/COOKERLB.png,,,,,,,,,,,,,,,,,,,,,0,0.399280576,-0.29736211,1,0,0,1.81,button_right_test,0,5,5,69,1
,,,,,,,,,,,,,,,,,60fd344157cabc293d69bd4b,52,2022-02-12_13h26.18.948,lexical_decision_task_DD_L3,2021.2.3,MacIntel,58.82352941,,,,,,,,,,1.029,1,,,,,,,,,,,,,,,,,,,,,,,0.388489209,-0.304556355,1,0,0,,,,,,,TULIP,HB,m,m,./images/TULIPHB.png,,,,,,,,,,,,,,,,,,,,,0,0.388489209,-0.304556355,1,0,0,1.029,button_right_test,0,6,6,8,1
,,,,,,,,,,,,,,,,,60fd344157cabc293d69bd4b,52,2022-02-12_13h26.18.948,lexical_decision_task_DD_L3,2021.2.3,MacIntel,58.82352941,,,,,,,,,,1.562,1,,,,,,,,,,,,,,,,,,,,,,,0.392086331,-0.298561151,1,0,0,,,,,,,NOOSE,LB,m,m,./images/NOOSELB.png,,,,,,,,,,,,,,,,,,,,,0,0.392086331,-0.298561151,1,0,0,1.562,button_right_test,0,7,7,72,1
,,,,,,,,,,,,,,,,,60fd344157cabc293d69bd4b,52,2022-02-12_13h26.18.948,lexical_decision_task_DD_L3,2021.2.3,MacIntel,58.82352941,,,,,,,,,,3.12,1,,,,,,,,,,,,,,,,,,,,,,,-0.460431655,-0.29736211,1,0,0,,,,,,,DANCER,LB,z,m,./images/DANCERLB.png,,,,,,,,,,,,,,,,,,,,,0,-0.460431655,-0.29736211,1,0,0,3.12,button_left_test,0,8,8,105,1
,,,,,,,,,,,,,,,,,60fd344157cabc293d69bd4b,52,2022-02-12_13h26.18.948,lexical_decision_task_DD_L3,2021.2.3,MacIntel,58.82352941,,,,,,,,,,1.796,1,,,,,,,,,,,,,,,,,,,,,,,0.392086331,-0.3117506,1,0,0,,,,,,,SHORE,LB,m,m,./images/SHORELB.png,,,,,,,,,,,,,,,,,,,,,0,0.392086331,-0.3117506,1,0,0,1.796,button_right_test,0,9,9,12,1
,,,,,,,,,,,,,,,,,60fd344157cabc293d69bd4b,52,2022-02-12_13h26.18.948,lexical_decision_task_DD_L3,2021.2.3,MacIntel,58.82352941,,,,,,,,,,2.821,1,,,,,,,,,,,,,,,,,,,,,,,-0.419664269,-0.292565947,1,0,0,,,,,,,SNAKE,C,z,m,./images/SNAKE.png,,,,,,,,,,,,,,,,,,,,,0,-0.419664269,-0.292565947,1,0,0,2.821,button_left_test,0,10,10,124,1
,,,,,,,,,,,,,,,,,60fd344157cabc293d69bd4b,52,2022-02-12_13h26.18.948,lexical_decision_task_DD_L3,2021.2.3,MacIntel,58.82352941,,,,,,,,,,2.411,1,,,,,,,,,,,,,,,,,,,,,,,-0.464028777,-0.29616307,1,0,0,,,,,,,ARROW,LB,z,m,./images/ARROWLB.png,,,,,,,,,,,,,,,,,,,,,0,-0.464028777,-0.29616307,1,0,0,2.411,button_left_test,0,11,11,153,1
,,,,,,,,,,,,,,,,,60fd344157cabc293d69bd4b,52,2022-02-12_13h26.18.948,lexical_decision_task_DD_L3,2021.2.3,MacIntel,58.82352941,,,,,,,,,,1.044,1,,,,,,,,,,,,,,,,,,,,,,,0.376498801,-0.29736211,1,0,0,,,,,,,PURSE,HB,m,m,./images/PURSEHB.png,,,,,,,,,,,,,,,,,,,,,0,0.376498801,-0.29736211,1,0,0,1.044,button_right_test,0,12,12,62,1
,,,,,,,,,,,,,,,,,60fd344157cabc293d69bd4b,52,2022-02-12_13h26.18.948,lexical_decision_task_DD_L3,2021.2.3,MacIntel,58.82352941,,,,,,,,,,0.92,1,,,,,,,,,,,,,,,,,,,,,,,0.386091127,-0.288968825,1,0,0,,,,,,,SWEAT,LB,m,m,./images/SWEATLB.png,,,,,,,,,,,,,,,,,,,,,0,0.386091127,-0.288968825,1,0,0,0.92,button_right_test,0,13,13,66,1
,,,,,,,,,,,,,,,,,60fd344157cabc293d69bd4b,52,2022-02-12_13h26.18.948,lexical_decision_task_DD_L3,2021.2.3,MacIntel,58.82352941,,,,,,,,,,1.554,0,,,,,,,,,,,,,,,,,,,,,,,0.377697842,-0.29616307,1,0,0,,,,,,,BUTTER,LB,z,m,./images/BUTTERLB.png,,,,,,,,,,,,,,,,,,,,,0,0.377697842,-0.29616307,1,0,0,1.554,button_right_test,0,14,14,111,1
,,,,,,,,,,,,,,,,,60fd344157cabc293d69bd4b,52,2022-02-12_13h26.18.948,lexical_decision_task_DD_L3,2021.2.3,MacIntel,58.82352941,,,,,,,,,,2.011,0,,,,,,,,,,,,,,,,,,,,,,,0.372901679,-0.294964029,1,0,0,,,,,,,ALLEY,C,z,m,./images/ALLEY.png,,,,,,,,,,,,,,,,,,,,,0,0.372901679,-0.294964029,1,0,0,2.011,button_right_test,0,15,15,139,1
,,,,,,,,,,,,,,,,,60fd344157cabc293d69bd4b,52,2022-02-12_13h26.18.948,lexical_decision_task_DD_L3,2021.2.3,MacIntel,58.82352941,,,,,,,,,,4.221,0,,,,,,,,,,,,,,,,,,,,,,,-0.466426859,-0.286570743,1,0,0,,,,,,,PACKET,HB,m,m,./images/PACKETHB.png,,,,,,,,,,,,,,,,,,,,,0,-0.466426859,-0.286570743,1,0,0,4.221,button_left_test,0,16,16,56,1
,,,,,,,,,,,,,,,,,60fd344157cabc293d69bd4b,52,2022-02-12_13h26.18.948,lexical_decision_task_DD_L3,2021.2.3,MacIntel,58.82352941,,,,,,,,,,2.486,1,,,,,,,,,,,,,,,,,,,,,,,-0.444844125,-0.29736211,1,0,0,,,,,,,STAIN,LB,z,m,./images/STAINLB.png,,,,,,,,,,,,,,,,,,,,,0,-0.444844125,-0.29736211,1,0,0,2.486,button_left_test,0,17,17,90,1
,,,,,,,,,,,,,,,,,60fd344157cabc293d69bd4b,52,2022-02-12_13h26.18.948,lexical_decision_task_DD_L3,2021.2.3,MacIntel,58.82352941,,,,,,,,,,4.104,0,,,,,,,,,,,,,,,,,,,,,,,-0.425659472,-0.29616307,1,0,0,,,,,,,FARMER,HB,m,m,./images/FARMERHB.png,,,,,,,,,,,,,,,,,,,,,0,-0.425659472,-0.29616307,1,0,0,4.104,button_left_test,0,18,18,65,1
,,,,,,,,,,,,,,,,,60fd344157cabc293d69bd4b,52,2022-02-12_13h26.18.948,lexical_decision_task_DD_L3,2021.2.3,MacIntel,58.82352941,,,,,,,,,,1.329,1,,,,,,,,,,,,,,,,,,,,,,,-0.442446043,-0.29616307,1,0,0,,,,,,,CRATER,LB,z,m,./images/CRATERLB.png,,,,,,,,,,,,,,,,,,,,,0,-0.442446043,-0.29616307,1,0,0,1.329,button_left_test,0,19,19,87,1
,,,,,,,,,,,,,,,,,60fd344157cabc293d69bd4b,52,2022-02-12_13h26.18.948,lexical_decision_task_DD_L3,2021.2.3,MacIntel,58.82352941,,,,,,,,,,1.455,0,,,,,,,,,,,,,,,,,,,,,,,-0.452038369,-0.29736211,1,0,0,,,,,,,LIZARD,HB,m,m,./images/LIZARDHB.png,,,,,,,,,,,,,,,,,,,,,0,-0.452038369,-0.29736211,1,0,0,1.455,button_left_test,0,20,20,44,1
,,,,,,,,,,,,,,,,,60fd344157cabc293d69bd4b,52,2022-02-12_13h26.18.948,lexical_decision_task_DD_L3,2021.2.3,MacIntel,58.82352941,,,,,,,,,,0.928,1,,,,,,,,,,,,,,,,,,,,,,,0.419664269,-0.299760192,1,0,0,,,,,,,KIDNEY,LB,m,m,./images/KIDNEYLB.png,,,,,,,,,,,,,,,,,,,,,0,0.419664269,-0.299760192,1,0,0,0.928,button_right_test,0,21,21,21,1
,,,,,,,,,,,,,,,,,60fd344157cabc293d69bd4b,52,2022-02-12_13h26.18.948,lexical_decision_task_DD_L3,2021.2.3,MacIntel,58.82352941,,,,,,,,,,1.295,1,,,,,,,,,,,,,,,,,,,,,,,-0.454436451,-0.285371703,1,0,0,,,,,,,JUMPER,HB,z,m,./images/JUMPERHB.png,,,,,,,,,,,,,,,,,,,,,0,-0.454436451,-0.285371703,1,0,0,1.295,button_left_test,0,22,22,158,1
,,,,,,,,,,,,,,,,,60fd344157cabc293d69bd4b,52,2022-02-12_13h26.18.948,lexical_decision_task_DD_L3,2021.2.3,MacIntel,58.82352941,,,,,,,,,,1.284,1,,,,,,,,,,,,,,,,,,,,,,,-0.436450839,-0.278177458,1,0,0,,,,,,,GRANNY,HB,z,m,./images/GRANNYHB.png,,,,,,,,,,,,,,,,,,,,,0,-0.436450839,-0.278177458,1,0,0,1.284,button_left_test,0,23,23,104,1
,,,,,,,,,,,,,,,,,60fd344157cabc293d69bd4b,52,2022-02-12_13h26.18.948,lexical_decision_task_DD_L3,2021.2.3,MacIntel,58.82352941,,,,,,,,,,2.528,1,,,,,,,,,,,,,,,,,,,,,,,-0.420863309,-0.273381295,1,0,0,,,,,,,GRAPE,C,z,m,./images/GRAPE.png,,,,,,,,,,,,,,,,,,,,,0,-0.420863309,-0.273381295,1,0,0,2.528,button_left_test,0,24,24,100,1
,,,,,,,,,,,,,,,,,60fd344157cabc293d69bd4b,52,2022-02-12_13h26.18.948,lexical_decision_task_DD_L3,2021.2.3,MacIntel,58.82352941,,,,,,,,,,1.451,1,,,,,,,,,,,,,,,,,,,,,,,0.432853717,-0.315347722,1,0,0,,,,,,,BURIAL,HB,m,m,./images/BURIALHB.png,,,,,,,,,,,,,,,,,,,,,0,0.432853717,-0.315347722,1,0,0,1.451,button_right_test,0,25,25,59,1
,,,,,,,,,,,,,,,,,60fd344157cabc293d69bd4b,52,2022-02-12_13h26.18.948,lexical_decision_task_DD_L3,2021.2.3,MacIntel,58.82352941,,,,,,,,,,1.988,1,,,,,,,,,,,,,,,,,,,,,,,-0.43764988,-0.292565947,1,0,0,,,,,,,CHERRY,LB,z,m,./images/CHERRYLB.png,,,,,,,,,,,,,,,,,,,,,0,-0.43764988,-0.292565947,1,0,0,1.988,button_left_test,0,26,26,138,1
,,,,,,,,,,,,,,,,,60fd344157cabc293d69bd4b,52,2022-02-12_13h26.18.948,lexical_decision_task_DD_L3,2021.2.3,MacIntel,58.82352941,,,,,,,,,,3.9,1,,,,,,,,,,,,,,,,,,,,,,,0.417266187,-0.303357314,1,0,0,,,,,,,MOSQUE,C,m,m,./images/MOSQUE.png,,,,,,,,,,,,,,,,,,,,,0,0.417266187,-0.303357314,1,0,0,3.9,button_right_test,0,27,27,43,1
,,,,,,,,,,,,,,,,,60fd344157cabc293d69bd4b,52,2022-02-12_13h26.18.948,lexical_decision_task_DD_L3,2021.2.3,MacIntel,58.82352941,,,,,,,,,,1.185,1,,,,,,,,,,,,,,,,,,,,,,,0.425659472,-0.294964029,1,0,0,,,,,,,PICKLE,HB,m,m,./images/PICKLEHB.png,,,,,,,,,,,,,,,,,,,,,0,0.425659472,-0.294964029,1,0,0,1.185,button_right_test,0,28,28,14,1
,,,,,,,,,,,,,,,,,60fd344157cabc293d69bd4b,52,2022-02-12_13h26.18.948,lexical_decision_task_DD_L3,2021.2.3,MacIntel,58.82352941,,,,,,,,,,1.808,1,,,,,,,,,,,,,,,,,,,,,,,0.429256595,-0.292565947,1,0,0,,,,,,,BABOON,C,m,m,./images/BABOON.png,,,,,,,,,,,,,,,,,,,,,0,0.429256595,-0.292565947,1,0,0,1.808,button_right_test,0,29,29,58,1
,,,,,,,,,,,,,,,,,60fd344157cabc293d69bd4b,52,2022-02-12_13h26.18.948,lexical_decision_task_DD_L3,2021.2.3,MacIntel,58.82352941,,,,,,,,,,1.419,1,,,,,,,,,,,,,,,,,,,,,,,0.424460432,-0.288968825,1,0,0,,,,,,,MIRROR,LB,m,m,./images/MIRRORLB.png,,,,,,,,,,,,,,,,,,,,,0,0.424460432,-0.288968825,1,0,0,1.419,button_right_test,0,30,30,63,1
,,,,,,,,,,,,,,,,,60fd344157cabc293d69bd4b,52,2022-02-12_13h26.18.948,lexical_decision_task_DD_L3,2021.2.3,MacIntel,58.82352941,,,,,,,,,,1.9,1,,,,,,,,,,,,,,,,,,,,,,,0.414868106,-0.318944844,1,0,0,,,,,,,GREASE,LB,m,m,./images/GREASELB.png,,,,,,,,,,,,,,,,,,,,,0,0.414868106,-0.318944844,1,0,0,1.9,button_right_test,0,31,31,15,1
,,,,,,,,,,,,,,,,,60fd344157cabc293d69bd4b,52,2022-02-12_13h26.18.948,lexical_decision_task_DD_L3,2021.2.3,MacIntel,58.82352941,,,,,,,,,,1.736,1,,,,,,,,,,,,,,,,,,,,,,,-0.436450839,-0.298561151,1,0,0,,,,,,,TOWEL,C,z,m,./images/TOWEL.png,,,,,,,,,,,,,,,,,,,,,0,-0.436450839,-0.298561151,1,0,0,1.736,button_left_test,0,32,32,85,1
,,,,,,,,,,,,,,,,,60fd344157cabc293d69bd4b,52,2022-02-12_13h26.18.948,lexical_decision_task_DD_L3,2021.2.3,MacIntel,58.82352941,,,,,,,,,,2.202,1,,,,,,,,,,,,,,,,,,,,,,,-0.42206235,-0.300959233,1,0,0,,,,,,,BLOKE,LB,z,m,./images/BLOKELB.png,,,,,,,,,,,,,,,,,,,,,0,-0.42206235,-0.300959233,1,0,0,2.202,button_left_test,0,33,33,96,1
,,,,,,,,,,,,,,,,,60fd344157cabc293d69bd4b,52,2022-02-12_13h26.18.948,lexical_decision_task_DD_L3,2021.2.3,MacIntel,58.82352941,,,,,,,,,,1.069,1,,,,,,,,,,,,,,,,,,,,,,,0.428057554,-0.292565947,1,0,0,,,,,,,TORCH,HB,m,m,./images/TORCHHB.png,,,,,,,,,,,,,,,,,,,,,0,0.428057554,-0.292565947,1,0,0,1.069,button_right_test,0,34,34,68,1
,,,,,,,,,,,,,,,,,60fd344157cabc293d69bd4b,52,2022-02-12_13h26.18.948,lexical_decision_task_DD_L3,2021.2.3,MacIntel,58.82352941,,,,,,,,,,1.636,1,,,,,,,,,,,,,,,,,,,,,,,0.429256595,-0.310551559,1,0,0,,,,,,,MOTOR,C,m,m,./images/MOTOR.png,,,,,,,,,,,,,,,,,,,,,0,0.429256595,-0.310551559,1,0,0,1.636,button_right_test,0,35,35,13,1
,,,,,,,,,,,,,,,,,60fd344157cabc293d69bd4b,52,2022-02-12_13h26.18.948,lexical_decision_task_DD_L3,2021.2.3,MacIntel,58.82352941,,,,,,,,,,0.971,1,,,,,,,,,,,,,,,,,,,,,,,0.434052758,-0.29616307,1,0,0,,,,,,,PEACH,HB,m,m,./images/PEACHHB.png,,,,,,,,,,,,,,,,,,,,,0,0.434052758,-0.29616307,1,0,0,0.971,button_right_test,0,36,36,35,1
,,,,,,,,,,,,,,,,,60fd344157cabc293d69bd4b,52,2022-02-12_13h26.18.948,lexical_decision_task_DD_L3,2021.2.3,MacIntel,58.82352941,,,,,,,,,,2.019,0,,,,,,,,,,,,,,,,,,,,,,,0.423261391,-0.29616307,1,0,0,,,,,,,STOOL,C,z,m,./images/STOOL.png,,,,,,,,,,,,,,,,,,,,,0,0.423261391,-0.29616307,1,0,0,2.019,button_right_test,0,37,37,127,1
,,,,,,,,,,,,,,,,,60fd344157cabc293d69bd4b,52,2022-02-12_13h26.18.948,lexical_decision_task_DD_L3,2021.2.3,MacIntel,58.82352941,,,,,,,,,,2.546,0,,,,,,,,,,,,,,,,,,,,,,,-0.40647482,-0.282973621,1,0,0,,,,,,,PIMPLE,HB,m,m,./images/PIMPLEHB.png,,,,,,,,,,,,,,,,,,,,,0,-0.40647482,-0.282973621,1,0,0,2.546,button_left_test,0,38,38,71,1
,,,,,,,,,,,,,,,,,60fd344157cabc293d69bd4b,52,2022-02-12_13h26.18.948,lexical_decision_task_DD_L3,2021.2.3,MacIntel,58.82352941,,,,,,,,,,2.386,1,,,,,,,,,,,,,,,,,,,,,,,-0.428057554,-0.302158273,1,0,0,,,,,,,WALNUT,LB,z,m,./images/WALNUTLB.png,,,,,,,,,,,,,,,,,,,,,0,-0.428057554,-0.302158273,1,0,0,2.386,button_left_test,0,39,39,84,1
,,,,,,,,,,,,,,,,,60fd344157cabc293d69bd4b,52,2022-02-12_13h26.18.948,lexical_decision_task_DD_L3,2021.2.3,MacIntel,58.82352941,,,,,,,,,,1.82,0,,,,,,,,,,,,,,,,,,,,,,,-0.440047962,-0.290167866,1,0,0,,,,,,,GRAIN,LB,m,m,./images/GRAINLB.png,,,,,,,,,,,,,,,,,,,,,0,-0.440047962,-0.290167866,1,0,0,1.82,button_left_test,0,40,40,75,1
,,,,,,,,,,,,,,,,,60fd344157cabc293d69bd4b,52,2022-02-12_13h26.18.948,lexical_decision_task_DD_L3,2021.2.3,MacIntel,58.82352941,,,,,,,,,,1.445,1,,,,,,,,,,,,,,,,,,,,,,,0.033573141,-0.419664269,1,0,0,,,,,,,MALLET,HB,m,m,./images/MALLETHB.png,break_done_button,,,,,,,,,,,,,,,,,,,,0,0.436450839,-0.302158273,1,0,0,1.445,button_right_test,0,41,41,50,1
,,,,,,,,,,,,,,,,,60fd344157cabc293d69bd4b,52,2022-02-12_13h26.18.948,lexical_decision_task_DD_L3,2021.2.3,MacIntel,58.82352941,,,,,,,,,,2.421,1,,,,,,,,,,,,,,,,,,,,,,,-0.443645084,-0.304556355,1,0,0,,,,,,,BRUSH,HB,z,m,./images/BRUSHHB.png,,,,,,,,,,,,,,,,,,,,,0,-0.443645084,-0.304556355,1,0,0,2.421,button_left_test,0,42,42,143,1
,,,,,,,,,,,,,,,,,60fd344157cabc293d69bd4b,52,2022-02-12_13h26.18.948,lexical_decision_task_DD_L3,2021.2.3,MacIntel,58.82352941,,,,,,,,,,2.67,0,,,,,,,,,,,,,,,,,,,,,,,0.449640288,-0.299760192,1,0,0,,,,,,,STEAK,C,z,m,./images/STEAK.png,,,,,,,,,,,,,,,,,,,,,0,0.449640288,-0.299760192,1,0,0,2.67,button_right_test,0,43,43,115,1
,,,,,,,,,,,,,,,,,60fd344157cabc293d69bd4b,52,2022-02-12_13h26.18.948,lexical_decision_task_DD_L3,2021.2.3,MacIntel,58.82352941,,,,,,,,,,1.329,1,,,,,,,,,,,,,,,,,,,,,,,0.460431655,-0.299760192,1,0,0,,,,,,,CRUMB,HB,m,m,./images/CRUMBHB.png,,,,,,,,,,,,,,,,,,,,,0,0.460431655,-0.299760192,1,0,0,1.329,button_right_test,0,44,44,29,1
,,,,,,,,,,,,,,,,,60fd344157cabc293d69bd4b,52,2022-02-12_13h26.18.948,lexical_decision_task_DD_L3,2021.2.3,MacIntel,58.82352941,,,,,,,,,,1.596,1,,,,,,,,,,,,,,,,,,,,,,,0.460431655,-0.285371703,1,0,0,,,,,,,WEASEL,HB,m,m,./images/WEASELHB.png,,,,,,,,,,,,,,,,,,,,,0,0.460431655,-0.285371703,1,0,0,1.596,button_right_test,0,45,45,80,1
,,,,,,,,,,,,,,,,,60fd344157cabc293d69bd4b,52,2022-02-12_13h26.18.948,lexical_decision_task_DD_L3,2021.2.3,MacIntel,58.82352941,,,,,,,,,,1.651,0,,,,,,,,,,,,,,,,,,,,,,,-0.464028777,-0.29616307,1,0,0,,,,,,,SWING,C,m,m,./images/SWING.png,,,,,,,,,,,,,,,,,,,,,0,-0.464028777,-0.29616307,1,0,0,1.651,button_left_test,0,46,46,40,1
,,,,,,,,,,,,,,,,,60fd344157cabc293d69bd4b,52,2022-02-12_13h26.18.948,lexical_decision_task_DD_L3,2021.2.3,MacIntel,58.82352941,,,,,,,,,,1.304,1,,,,,,,,,,,,,,,,,,,,,,,0.465227818,-0.294964029,1,0,0,,,,,,,FOLDER,LB,m,m,./images/FOLDERLB.png,,,,,,,,,,,,,,,,,,,,,0,0.465227818,-0.294964029,1,0,0,1.304,button_right_test,0,47,47,42,1
,,,,,,,,,,,,,,,,,60fd344157cabc293d69bd4b,52,2022-02-12_13h26.18.948,lexical_decision_task_DD_L3,2021.2.3,MacIntel,58.82352941,,,,,,,,,,2.03,1,,,,,,,,,,,,,,,,,,,,,,,-0.430455635,-0.29736211,1,0,0,,,,,,,BAKER,LB,z,m,./images/BAKERLB.png,,,,,,,,,,,,,,,,,,,,,0,-0.430455635,-0.29736211,1,0,0,2.03,button_left_test,0,48,48,147,1
,,,,,,,,,,,,,,,,,60fd344157cabc293d69bd4b,52,2022-02-12_13h26.18.948,lexical_decision_task_DD_L3,2021.2.3,MacIntel,58.82352941,,,,,,,,,,2.154,1,,,,,,,,,,,,,,,,,,,,,,,-0.443645084,-0.292565947,1,0,0,,,,,,,SHIELD,LB,z,m,./images/SHIELDLB.png,,,,,,,,,,,,,,,,,,,,,0,-0.443645084,-0.292565947,1,0,0,2.154,button_left_test,0,49,49,132,1
,,,,,,,,,,,,,,,,,60fd344157cabc293d69bd4b,52,2022-02-12_13h26.18.948,lexical_decision_task_DD_L3,2021.2.3,MacIntel,58.82352941,,,,,,,,,,1.962,1,,,,,,,,,,,,,,,,,,,,,,,0.430455635,-0.29736211,1,0,0,,,,,,,STORM,LB,m,m,./images/STORMLB.png,,,,,,,,,,,,,,,,,,,,,0,0.430455635,-0.29736211,1,0,0,1.962,button_right_test,0,50,50,30,1
,,,,,,,,,,,,,,,,,60fd344157cabc293d69bd4b,52,2022-02-12_13h26.18.948,lexical_decision_task_DD_L3,2021.2.3,MacIntel,58.82352941,,,,,,,,,,2.512,1,,,,,,,,,,,,,,,,,,,,,,,-0.434052758,-0.298561151,1,0,0,,,,,,,DIVER,LB,z,m,./images/DIVERLB.png,,,,,,,,,,,,,,,,,,,,,0,-0.434052758,-0.298561151,1,0,0,2.512,button_left_test,0,51,51,93,1
,,,,,,,,,,,,,,,,,60fd344157cabc293d69bd4b,52,2022-02-12_13h26.18.948,lexical_decision_task_DD_L3,2021.2.3,MacIntel,58.82352941,,,,,,,,,,1.826,1,,,,,,,,,,,,,,,,,,,,,,,-0.443645084,-0.291366906,1,0,0,,,,,,,LLAMA,HB,z,m,./images/LLAMAHB.png,,,,,,,,,,,,,,,,,,,,,0,-0.443645084,-0.291366906,1,0,0,1.826,button_left_test,0,52,52,119,1
,,,,,,,,,,,,,,,,,60fd344157cabc293d69bd4b,52,2022-02-12_13h26.18.948,lexical_decision_task_DD_L3,2021.2.3,MacIntel,58.82352941,,,,,,,,,,1.058,1,,,,,,,,,,,,,,,,,,,,,,,0.45323741,-0.303357314,1,0,0,,,,,,,URINE,C,m,m,./images/URINE.png,,,,,,,,,,,,,,,,,,,,,0,0.45323741,-0.303357314,1,0,0,1.058,button_right_test,0,53,53,70,1
,,,,,,,,,,,,,,,,,60fd344157cabc293d69bd4b,52,2022-02-12_13h26.18.948,lexical_decision_task_DD_L3,2021.2.3,MacIntel,58.82352941,,,,,,,,,,0.941,1,,,,,,,,,,,,,,,,,,,,,,,0.450839329,-0.302158273,1,0,0,,,,,,,POODLE,LB,m,m,./images/POODLELB.png,,,,,,,,,,,,,,,,,,,,,0,0.450839329,-0.302158273,1,0,0,0.941,button_right_test,0,54,54,81,1
,,,,,,,,,,,,,,,,,60fd344157cabc293d69bd4b,52,2022-02-12_13h26.18.948,lexical_decision_task_DD_L3,2021.2.3,MacIntel,58.82352941,,,,,,,,,,3.435,1,,,,,,,,,,,,,,,,,,,,,,,-0.434052758,-0.304556355,1,0,0,,,,,,,BROOM,LB,z,m,./images/BROOMLB.png,,,,,,,,,,,,,,,,,,,,,0,-0.434052758,-0.304556355,1,0,0,3.435,button_left_test,0,55,55,162,1
,,,,,,,,,,,,,,,,,60fd344157cabc293d69bd4b,52,2022-02-12_13h26.18.948,lexical_decision_task_DD_L3,2021.2.3,MacIntel,58.82352941,,,,,,,,,,1.136,1,,,,,,,,,,,,,,,,,,,,,,,0.441247002,-0.31294964,1,0,0,,,,,,,LADDER,HB,m,m,./images/LADDERHB.png,,,,,,,,,,,,,,,,,,,,,0,0.441247002,-0.31294964,1,0,0,1.136,button_right_test,0,56,56,38,1
,,,,,,,,,,,,,,,,,60fd344157cabc293d69bd4b,52,2022-02-12_13h26.18.948,lexical_decision_task_DD_L3,2021.2.3,MacIntel,58.82352941,,,,,,,,,,1.545,1,,,,,,,,,,,,,,,,,,,,,,,-0.444844125,-0.304556355,1,0,0,,,,,,,CLIFF,HB,z,m,./images/CLIFFHB.png,,,,,,,,,,,,,,,,,,,,,0,-0.444844125,-0.304556355,1,0,0,1.545,button_left_test,0,57,57,92,1
,,,,,,,,,,,,,,,,,60fd344157cabc293d69bd4b,52,2022-02-12_13h26.18.948,lexical_decision_task_DD_L3,2021.2.3,MacIntel,58.82352941,,,,,,,,,,1.237,0,,,,,,,,,,,,,,,,,,,,,,,-0.432853717,-0.29616307,1,0,0,,,,,,,TWINS,LB,m,m,./images/TWINSLB.png,,,,,,,,,,,,,,,,,,,,,0,-0.432853717,-0.29616307,1,0,0,1.237,button_left_test,0,58,58,60,1
,,,,,,,,,,,,,,,,,60fd344157cabc293d69bd4b,52,2022-02-12_13h26.18.948,lexical_decision_task_DD_L3,2021.2.3,MacIntel,58.82352941,,,,,,,,,,1.176,0,,,,,,,,,,,,,,,,,,,,,,,0.446043165,-0.300959233,1,0,0,,,,,,,BRIDE,C,z,m,./images/BRIDE.png,,,,,,,,,,,,,,,,,,,,,0,0.446043165,-0.300959233,1,0,0,1.176,button_right_test,0,59,59,148,1
,,,,,,,,,,,,,,,,,60fd344157cabc293d69bd4b,52,2022-02-12_13h26.18.948,lexical_decision_task_DD_L3,2021.2.3,MacIntel,58.82352941,,,,,,,,,,2.837,0,,,,,,,,,,,,,,,,,,,,,,,-0.426858513,-0.317745803,1,0,0,,,,,,,BIRTH,C,m,m,./images/BIRTH.png,,,,,,,,,,,,,,,,,,,,,0,-0.426858513,-0.317745803,1,0,0,2.837,button_left_test,0,60,60,37,1
,,,,,,,,,,,,,,,,,60fd344157cabc293d69bd4b,52,2022-02-12_13h26.18.948,lexical_decision_task_DD_L3,2021.2.3,MacIntel,58.82352941,,,,,,,,,,5.28,1,,,,,,,,,,,,,,,,,,,,,,,-0.430455635,-0.323741007,1,0,0,,,,,,,SLOPE,LB,z,m,./images/SLOPELB.png,,,,,,,,,,,,,,,,,,,,,0,-0.430455635,-0.323741007,1,0,0,5.28,button_left_test,0,61,61,114,1
,,,,,,,,,,,,,,,,,60fd344157cabc293d69bd4b,52,2022-02-12_13h26.18.948,lexical_decision_task_DD_L3,2021.2.3,MacIntel,58.82352941,,,,,,,,,,1.877,0,,,,,,,,,,,,,,,,,,,,,,,-0.432853717,-0.334532374,1,0,0,,,,,,,CARPET,HB,m,m,./images/CARPETHB.png,,,,,,,,,,,,,,,,,,,,,0,-0.432853717,-0.334532374,1,0,0,1.877,button_left_test,0,62,62,53,1
,,,,,,,,,,,,,,,,,60fd344157cabc293d69bd4b,52,2022-02-12_13h26.18.948,lexical_decision_task_DD_L3,2021.2.3,MacIntel,58.82352941,,,,,,,,,,1.33,1,,,,,,,,,,,,,,,,,,,,,,,-0.45323741,-0.299760192,1,0,0,,,,,,,ARTIST,C,z,m,./images/ARTIST.png,,,,,,,,,,,,,,,,,,,,,0,-0.45323741,-0.299760192,1,0,0,1.33,button_left_test,0,63,63,145,1
,,,,,,,,,,,,,,,,,60fd344157cabc293d69bd4b,52,2022-02-12_13h26.18.948,lexical_decision_task_DD_L3,2021.2.3,MacIntel,58.82352941,,,,,,,,,,1.153,1,,,,,,,,,,,,,,,,,,,,,,,-0.447242206,-0.303357314,1,0,0,,,,,,,SAUCE,LB,z,m,./images/SAUCELB.png,,,,,,,,,,,,,,,,,,,,,0,-0.447242206,-0.303357314,1,0,0,1.153,button_left_test,0,64,64,135,1
,,,,,,,,,,,,,,,,,60fd344157cabc293d69bd4b,52,2022-02-12_13h26.18.948,lexical_decision_task_DD_L3,2021.2.3,MacIntel,58.82352941,,,,,,,,,,1.255,1,,,,,,,,,,,,,,,,,,,,,,,0.425659472,-0.291366906,1,0,0,,,,,,,MUFFIN,C,m,m,./images/MUFFIN.png,,,,,,,,,,,,,,,,,,,,,0,0.425659472,-0.291366906,1,0,0,1.255,button_right_test,0,65,65,55,1
,,,,,,,,,,,,,,,,,60fd344157cabc293d69bd4b,52,2022-02-12_13h26.18.948,lexical_decision_task_DD_L3,2021.2.3,MacIntel,58.82352941,,,,,,,,,,1.864,0,,,,,,,,,,,,,,,,,,,,,,,0.430455635,-0.300959233,1,0,0,,,,,,,GLOVE,C,z,m,./images/GLOVE.png,,,,,,,,,,,,,,,,,,,,,0,0.430455635,-0.300959233,1,0,0,1.864,button_right_test,0,66,66,157,1
,,,,,,,,,,,,,,,,,60fd344157cabc293d69bd4b,52,2022-02-12_13h26.18.948,lexical_decision_task_DD_L3,2021.2.3,MacIntel,58.82352941,,,,,,,,,,1.088,1,,,,,,,,,,,,,,,,,,,,,,,0.420863309,-0.300959233,1,0,0,,,,,,,JAGUAR,LB,m,m,./images/JAGUARLB.png,,,,,,,,,,,,,,,,,,,,,0,0.420863309,-0.300959233,1,0,0,1.088,button_right_test,0,67,67,18,1
,,,,,,,,,,,,,,,,,60fd344157cabc293d69bd4b,52,2022-02-12_13h26.18.948,lexical_decision_task_DD_L3,2021.2.3,MacIntel,58.82352941,,,,,,,,,,2.51,1,,,,,,,,,,,,,,,,,,,,,,,-0.458033573,-0.315347722,1,0,0,,,,,,,DESERT,C,z,m,./images/DESERT.png,,,,,,,,,,,,,,,,,,,,,0,-0.458033573,-0.315347722,1,0,0,2.51,button_left_test,0,68,68,136,1
,,,,,,,,,,,,,,,,,60fd344157cabc293d69bd4b,52,2022-02-12_13h26.18.948,lexical_decision_task_DD_L3,2021.2.3,MacIntel,58.82352941,,,,,,,,,,3.198,0,,,,,,,,,,,,,,,,,,,,,,,-0.478417266,-0.29736211,1,0,0,,,,,,,BONNET,HB,m,m,./images/BONNETHB.png,,,,,,,,,,,,,,,,,,,,,0,-0.478417266,-0.29736211,1,0,0,3.198,button_left_test,0,69,69,11,1
,,,,,,,,,,,,,,,,,60fd344157cabc293d69bd4b,52,2022-02-12_13h26.18.948,lexical_decision_task_DD_L3,2021.2.3,MacIntel,58.82352941,,,,,,,,,,1.393,1,,,,,,,,,,,,,,,,,,,,,,,-0.460431655,-0.303357314,1,0,0,,,,,,,HOCKEY,HB,z,m,./images/HOCKEYHB.png,,,,,,,,,,,,,,,,,,,,,0,-0.460431655,-0.303357314,1,0,0,1.393,button_left_test,0,70,70,116,1
,,,,,,,,,,,,,,,,,60fd344157cabc293d69bd4b,52,2022-02-12_13h26.18.948,lexical_decision_task_DD_L3,2021.2.3,MacIntel,58.82352941,,,,,,,,,,2.013,0,,,,,,,,,,,,,,,,,,,,,,,0.442446043,-0.291366906,1,0,0,,,,,,,STREAM,HB,z,m,./images/STREAMHB.png,,,,,,,,,,,,,,,,,,,,,0,0.442446043,-0.291366906,1,0,0,2.013,button_right_test,0,71,71,125,1
,,,,,,,,,,,,,,,,,60fd344157cabc293d69bd4b,52,2022-02-12_13h26.18.948,lexical_decision_task_DD_L3,2021.2.3,MacIntel,58.82352941,,,,,,,,,,3.02,1,,,,,,,,,,,,,,,,,,,,,,,-0.477218225,-0.286570743,1,0,0,,,,,,,CLOWN,C,z,m,./images/CLOWN.png,,,,,,,,,,,,,,,,,,,,,0,-0.477218225,-0.286570743,1,0,0,3.02,button_left_test,0,72,72,106,1
,,,,,,,,,,,,,,,,,60fd344157cabc293d69bd4b,52,2022-02-12_13h26.18.948,lexical_decision_task_DD_L3,2021.2.3,MacIntel,58.82352941,,,,,,,,,,1.862,1,,,,,,,,,,,,,,,,,,,,,,,-0.494004796,-0.29736211,1,0,0,,,,,,,RAZOR,C,z,m,./images/RAZOR.png,,,,,,,,,,,,,,,,,,,,,0,-0.494004796,-0.29736211,1,0,0,1.862,button_left_test,0,73,73,118,1
,,,,,,,,,,,,,,,,,60fd344157cabc293d69bd4b,52,2022-02-12_13h26.18.948,lexical_decision_task_DD_L3,2021.2.3,MacIntel,58.82352941,,,,,,,,,,2.078,0,,,,,,,,,,,,,,,,,,,,,,,-0.513189448,-0.294964029,1,0,0,,,,,,,KITTEN,LB,m,m,./images/KITTENLB.png,,,,,,,,,,,,,,,,,,,,,0,-0.513189448,-0.294964029,1,0,0,2.078,button_left_test,0,74,74,45,1
,,,,,,,,,,,,,,,,,60fd344157cabc293d69bd4b,52,2022-02-12_13h26.18.948,lexical_decision_task_DD_L3,2021.2.3,MacIntel,58.82352941,,,,,,,,,,2.276,1,,,,,,,,,,,,,,,,,,,,,,,-0.514388489,-0.29616307,1,0,0,,,,,,,PARCEL,LB,z,m,./images/PARCELLB.png,,,,,,,,,,,,,,,,,,,,,0,-0.514388489,-0.29616307,1,0,0,2.276,button_left_test,0,75,75,102,1
,,,,,,,,,,,,,,,,,60fd344157cabc293d69bd4b,52,2022-02-12_13h26.18.948,lexical_decision_task_DD_L3,2021.2.3,MacIntel,58.82352941,,,,,,,,,,1.9,1,,,,,,,,,,,,,,,,,,,,,,,0.426858513,-0.288968825,1,0,0,,,,,,,SCREW,LB,m,m,./images/SCREWLB.png,,,,,,,,,,,,,,,,,,,,,0,0.426858513,-0.288968825,1,0,0,1.9,button_right_test,0,76,76,24,1
,,,,,,,,,,,,,,,,,60fd344157cabc293d69bd4b,52,2022-02-12_13h26.18.948,lexical_decision_task_DD_L3,2021.2.3,MacIntel,58.82352941,,,,,,,,,,2.575,0,,,,,,,,,,,,,,,,,,,,,,,0.434052758,-0.29616307,1,0,0,,,,,,,TIGER,C,z,m,./images/TIGER.png,,,,,,,,,,,,,,,,,,,,,0,0.434052758,-0.29616307,1,0,0,2.575,button_right_test,0,77,77,121,1
,,,,,,,,,,,,,,,,,60fd344157cabc293d69bd4b,52,2022-02-12_13h26.18.948,lexical_decision_task_DD_L3,2021.2.3,MacIntel,58.82352941,,,,,,,,,,1.6,0,,,,,,,,,,,,,,,,,,,,,,,0.441247002,-0.299760192,1,0,0,,,,,,,LAGOON,HB,z,m,./images/LAGOONHB.png,,,,,,,,,,,,,,,,,,,,,0,0.441247002,-0.299760192,1,0,0,1.6,button_right_test,0,78,78,131,1
,,,,,,,,,,,,,,,,,60fd344157cabc293d69bd4b,52,2022-02-12_13h26.18.948,lexical_decision_task_DD_L3,2021.2.3,MacIntel,58.82352941,,,,,,,,,,1.517,1,,,,,,,,,,,,,,,,,,,,,,,0.431654676,-0.306954436,1,0,0,,,,,,,DRUMS,C,m,m,./images/DRUMS.png,,,,,,,,,,,,,,,,,,,,,0,0.431654676,-0.306954436,1,0,0,1.517,button_right_test,0,79,79,49,1
,,,,,,,,,,,,,,,,,60fd344157cabc293d69bd4b,52,2022-02-12_13h26.18.948,lexical_decision_task_DD_L3,2021.2.3,MacIntel,58.82352941,,,,,,,,,,1.467,1,,,,,,,,,,,,,,,,,,,,,,,0.440047962,-0.29616307,1,0,0,,,,,,,JUNGLE,HB,m,m,./images/JUNGLEHB.png,,,,,,,,,,,,,,,,,,,,,0,0.440047962,-0.29616307,1,0,0,1.467,button_right_test,0,80,80,83,1
,,,,,,,,,,,,,,,,,60fd344157cabc293d69bd4b,52,2022-02-12_13h26.18.948,lexical_decision_task_DD_L3,2021.2.3,MacIntel,58.82352941,,,,,,,,,,1.266,1,,,,,,,,,,,,,,,,,,,,,,,0.42206235,-0.306954436,1,0,0,,,,,,,BELLY,C,m,m,./images/BELLY.png,,,,,,,,,,,,,,,,,,,,,0,0.42206235,-0.306954436,1,0,0,1.266,button_right_test,0,81,81,10,1
,,,,,,,,,,,,,,,,,60fd344157cabc293d69bd4b,52,2022-02-12_13h26.18.948,lexical_decision_task_DD_L3,2021.2.3,MacIntel,58.82352941,,,,,,,,,,1.291,1,,,,,,,,,,,,,,,,,,,,,,,0.431654676,-0.29736211,1,0,0,,,,,,,PENCE,C,m,m,./images/PENCE.png,,,,,,,,,,,,,,,,,,,,,0,0.431654676,-0.29736211,1,0,0,1.291,button_right_test,0,82,82,16,1
,,,,,,,,,,,,,,,,,60fd344157cabc293d69bd4b,52,2022-02-12_13h26.18.948,lexical_decision_task_DD_L3,2021.2.3,MacIntel,58.82352941,,,,,,,,,,1.398,1,,,,,,,,,,,,,,,,,,,,,,,0.022781775,-0.408872902,1,0,0,,,,,,,BANNER,C,m,m,./images/BANNER.png,break_done_button,,,,,,,,,,,,,,,,,,,,0,0.431654676,-0.294964029,1,0,0,1.398,button_right_test,0,83,83,52,1
,,,,,,,,,,,,,,,,,60fd344157cabc293d69bd4b,52,2022-02-12_13h26.18.948,lexical_decision_task_DD_L3,2021.2.3,MacIntel,58.82352941,,,,,,,,,,2.452,1,,,,,,,,,,,,,,,,,,,,,,,-0.498800959,-0.327338129,1,0,0,,,,,,,RULER,C,z,m,./images/RULER.png,,,,,,,,,,,,,,,,,,,,,0,-0.498800959,-0.327338129,1,0,0,2.452,button_left_test,0,84,84,163,1
,,,,,,,,,,,,,,,,,60fd344157cabc293d69bd4b,52,2022-02-12_13h26.18.948,lexical_decision_task_DD_L3,2021.2.3,MacIntel,58.82352941,,,,,,,,,,1.808,0,,,,,,,,,,,,,,,,,,,,,,,-0.473621103,-0.317745803,1,0,0,,,,,,,SHELF,LB,m,m,./images/SHELFLB.png,,,,,,,,,,,,,,,,,,,,,0,-0.473621103,-0.317745803,1,0,0,1.808,button_left_test,0,85,85,39,1
,,,,,,,,,,,,,,,,,60fd344157cabc293d69bd4b,52,2022-02-12_13h26.18.948,lexical_decision_task_DD_L3,2021.2.3,MacIntel,58.82352941,,,,,,,,,,1.675,0,,,,,,,,,,,,,,,,,,,,,,,-0.501199041,-0.315347722,1,0,0,,,,,,,CEMENT,HB,m,m,./images/CEMENTHB.png,,,,,,,,,,,,,,,,,,,,,0,-0.501199041,-0.315347722,1,0,0,1.675,button_left_test,0,86,86,74,1
,,,,,,,,,,,,,,,,,60fd344157cabc293d69bd4b,52,2022-02-12_13h26.18.948,lexical_decision_task_DD_L3,2021.2.3,MacIntel,58.82352941,,,,,,,,,,1.483,1,,,,,,,,,,,,,,,,,,,,,,,-0.495203837,-0.293764988,1,0,0,,,,,,,FLESH,LB,z,m,./images/FLESHLB.png,,,,,,,,,,,,,,,,,,,,,0,-0.495203837,-0.293764988,1,0,0,1.483,button_left_test,0,87,87,108,1
,,,,,,,,,,,,,,,,,60fd344157cabc293d69bd4b,52,2022-02-12_13h26.18.948,lexical_decision_task_DD_L3,2021.2.3,MacIntel,58.82352941,,,,,,,,,,1.984,1,,,,,,,,,,,,,,,,,,,,,,,0.435251799,-0.291366906,1,0,0,,,,,,,TOMATO,LB,m,m,./images/TOMATOLB.png,,,,,,,,,,,,,,,,,,,,,0,0.435251799,-0.291366906,1,0,0,1.984,button_right_test,0,88,88,0,1
,,,,,,,,,,,,,,,,,60fd344157cabc293d69bd4b,52,2022-02-12_13h26.18.948,lexical_decision_task_DD_L3,2021.2.3,MacIntel,58.82352941,,,,,,,,,,3.096,1,,,,,,,,,,,,,,,,,,,,,,,0.431654676,-0.294964029,1,0,0,,,,,,,MUSCLE,C,m,m,./images/MUSCLE.png,,,,,,,,,,,,,,,,,,,,,0,0.431654676,-0.294964029,1,0,0,3.096,button_right_test,0,89,89,4,1
,,,,,,,,,,,,,,,,,60fd344157cabc293d69bd4b,52,2022-02-12_13h26.18.948,lexical_decision_task_DD_L3,2021.2.3,MacIntel,58.82352941,,,,,,,,,,4.204,0,,,,,,,,,,,,,,,,,,,,,,,-0.454436451,-0.293764988,1,0,0,,,,,,,SUNSET,C,m,m,./images/SUNSET.png,,,,,,,,,,,,,,,,,,,,,0,-0.454436451,-0.293764988,1,0,0,4.204,button_left_test,0,90,90,82,1
,,,,,,,,,,,,,,,,,60fd344157cabc293d69bd4b,52,2022-02-12_13h26.18.948,lexical_decision_task_DD_L3,2021.2.3,MacIntel,58.82352941,,,,,,,,,,2.303,0,,,,,,,,,,,,,,,,,,,,,,,0.441247002,-0.304556355,1,0,0,,,,,,,MONKEY,LB,z,m,./images/MONKEYLB.png,,,,,,,,,,,,,,,,,,,,,0,0.441247002,-0.304556355,1,0,0,2.303,button_right_test,0,91,91,129,1
,,,,,,,,,,,,,,,,,60fd344157cabc293d69bd4b,52,2022-02-12_13h26.18.948,lexical_decision_task_DD_L3,2021.2.3,MacIntel,58.82352941,,,,,,,,,,3.588,0,,,,,,,,,,,,,,,,,,,,,,,0.431654676,-0.308153477,1,0,0,,,,,,,DONKEY,C,z,m,./images/DONKEY.png,,,,,,,,,,,,,,,,,,,,,0,0.431654676,-0.308153477,1,0,0,3.588,button_right_test,0,92,92,103,1
,,,,,,,,,,,,,,,,,60fd344157cabc293d69bd4b,52,2022-02-12_13h26.18.948,lexical_decision_task_DD_L3,2021.2.3,MacIntel,58.82352941,,,,,,,,,,1.168,1,,,,,,,,,,,,,,,,,,,,,,,0.436450839,-0.306954436,1,0,0,,,,,,,COUCH,HB,m,m,./images/COUCHHB.png,,,,,,,,,,,,,,,,,,,,,0,0.436450839,-0.306954436,1,0,0,1.168,button_right_test,0,93,93,77,1
,,,,,,,,,,,,,,,,,60fd344157cabc293d69bd4b,52,2022-02-12_13h26.18.948,lexical_decision_task_DD_L3,2021.2.3,MacIntel,58.82352941,,,,,,,,,,2.796,1,,,,,,,,,,,,,,,,,,,,,,,-0.450839329,-0.298561151,1,0,0,,,,,,,SAUNA,LB,z,m,./images/SAUNALB.png,,,,,,,,,,,,,,,,,,,,,0,-0.450839329,-0.298561151,1,0,0,2.796,button_left_test,0,94,94,117,1
