key_resp.keys,key_resp.rt,instr_done_touch.x,instr_done_touch.y,instr_done_touch.leftButton,instr_done_touch.midButton,instr_done_touch.rightButton,instruction_pages.thisRepN,instruction_pages.thisTrialN,instruction_pages.thisN,instruction_pages.thisIndex,instruction_pages.ran,pageN,phase,instruct_text,has_image,instruct_image,participant,age,date,expName,psychopyVersion,OS,frameRate,response.keys,response.corr,response.rt,touch_resp.x,touch_resp.y,touch_resp.leftButton,touch_resp.midButton,touch_resp.rightButton,touch_resp.time,touch_resp.clicked_name,rt,corr,practrials.thisRepN,practrials.thisTrialN,practrials.thisN,practrials.thisIndex,practrials.ran,TrialID,Target,corrAns,end_of_practice_trials_pages.thisRepN,end_of_practice_trials_pages.thisTrialN,end_of_practice_trials_pages.thisN,end_of_practice_trials_pages.thisIndex,end_of_practice_trials_pages.ran,key_resp_2.keys,key_resp_2.corr,key_resp_2.rt,targ_click.x,targ_click.y,targ_click.leftButton,targ_click.midButton,targ_click.rightButton,targ_click.time,targ_click.clicked_name,break_done_touch.x,break_done_touch.y,break_done_touch.leftButton,break_done_touch.midButton,break_done_touch.rightButton,break_done_keyboard.keys,maintrials.thisRepN,maintrials.thisTrialN,maintrials.thisN,maintrials.thisIndex,maintrials.ran,string,blur,study,lex,stim_path,break_done_keyboard.rt,mouse_2.x,mouse_2.y,mouse_2.leftButton,mouse_2.midButton,mouse_2.rightButton,mouse_2.clicked_name,slider.response,slider.rt,trials.thisRepN,trials.thisTrialN,trials.thisN,trials.thisIndex,trials.ran,instr_done_touch.clicked_name,test_instructions.thisRepN,test_instructions.thisTrialN,test_instructions.thisN,test_instructions.thisIndex,test_instructions.ran,key_resp_3.keys,key_resp_3.corr,key_resp_3.rt,test_click.x,test_click.y,test_click.leftButton,test_click.midButton,test_click.rightButton,test_click.time,test_click.clicked_name,test_phase.thisRepN,test_phase.thisTrialN,test_phase.thisN,test_phase.thisIndex,test_phase.ran
space,21.2095,0.02592594,-0.385185198,0,0,0,0,0,0,0,1,1,instructions,"INSTRUCTIONS
At the start of each trial, look at the plus sign  (+) in the center of the screen.  This tells you that a trial is about to begin and where to look. Second, the plus sign will disappear and a string of letters will appear. Your task is to determine if the string of letters is a word or not. If the item is a word press the M key (on keyboard)  or touch the word button (phone/tablet).  If the item is not a word,  press the  Z key (on keyboard)  or touch the nonword button (on phone/tablet). 
Press the space bar or touch  continue.",0,,60ff3b4b49cf56250d170cc6,31,2022-02-12_16h55.29.177,lexical_decision_task_DD_L5,2021.2.3,Win32,61.61049843,,,,,,,,,,,,,,,,,,,,,,,,,,,,,,,,,,,,,,,,,,,,,,,,,,,,,,,,,,,,,,,,,,,,,,,,,,,,,,,,,,,,,,
space,6.1366,0.02592594,-0.385185198,0,0,0,0,1,1,1,1,2,instructions,"If your device has a keyboard, press the 'Z' key for nonwords and the 'M' key for words.





Press the space bar or touch the button below to continue.",0,keyboard-example.gif,60ff3b4b49cf56250d170cc6,31,2022-02-12_16h55.29.177,lexical_decision_task_DD_L5,2021.2.3,Win32,61.61049843,,,,,,,,,,,,,,,,,,,,,,,,,,,,,,,,,,,,,,,,,,,,,,,,,,,,,,,,,,,,,,,,,,,,,,,,,,,,,,,,,,,,,,
space,1.4434,0.02592594,-0.385185198,0,0,0,0,2,2,2,1,3,instructions,"If you are using a touchscreen only device, use the buttons on the screen. Do not use the mouse.





Press the space bar or touch the button below to continue.",0,touchscreen-example.gif,60ff3b4b49cf56250d170cc6,31,2022-02-12_16h55.29.177,lexical_decision_task_DD_L5,2021.2.3,Win32,61.61049843,,,,,,,,,,,,,,,,,,,,,,,,,,,,,,,,,,,,,,,,,,,,,,,,,,,,,,,,,,,,,,,,,,,,,,,,,,,,,,,,,,,,,,
space,8.4571,0.02592594,-0.385185198,0,0,0,0,3,3,3,1,4,instructions,"It is very important that you respond as quickly and accurately as possible, as each letter string will only be on the screen for two seconds. If you do not respond within this time, the message 'Too slow!' will be displayed and the experiment will progress to the next letter string. The first 20 trials will be practice trials and you will receive feedback on your answers. 

Press the space bar or touch the button below to start the practice trials.",0,,60ff3b4b49cf56250d170cc6,31,2022-02-12_16h55.29.177,lexical_decision_task_DD_L5,2021.2.3,Win32,61.61049843,,,,,,,,,,,,,,,,,,,,,,,,,,,,,,,,,,,,,,,,,,,,,,,,,,,,,,,,,,,,,,,,,,,,,,,,,,,,,,,,,,,,,,
,,,,,,,,,,,,,,,,,60ff3b4b49cf56250d170cc6,31,2022-02-12_16h55.29.177,lexical_decision_task_DD_L5,2021.2.3,Win32,61.61049843,m,1,1.3395,,,,,,,,1.3395,1,0,0,0,6,1,1001,ZOMBIE,m,,,,,,,,,,,,,,,,,,,,,,,,,,,,,,,,,,,,,,,,,,,,,,,,,,,,,,,,,,,,,,,,,,
,,,,,,,,,,,,,,,,,60ff3b4b49cf56250d170cc6,31,2022-02-12_16h55.29.177,lexical_decision_task_DD_L5,2021.2.3,Win32,61.61049843,z,1,0.93,,,,,,,,0.93,1,0,1,1,11,1,1001,RASHET,z,,,,,,,,,,,,,,,,,,,,,,,,,,,,,,,,,,,,,,,,,,,,,,,,,,,,,,,,,,,,,,,,,,
,,,,,,,,,,,,,,,,,60ff3b4b49cf56250d170cc6,31,2022-02-12_16h55.29.177,lexical_decision_task_DD_L5,2021.2.3,Win32,61.61049843,z,1,0.7452,,,,,,,,0.7452,1,0,2,2,8,1,1001,ASLERT,z,,,,,,,,,,,,,,,,,,,,,,,,,,,,,,,,,,,,,,,,,,,,,,,,,,,,,,,,,,,,,,,,,,
,,,,,,,,,,,,,,,,,60ff3b4b49cf56250d170cc6,31,2022-02-12_16h55.29.177,lexical_decision_task_DD_L5,2021.2.3,Win32,61.61049843,m,1,0.5456,,,,,,,,0.5456,1,0,3,3,0,1,1001,UTOPIA,m,,,,,,,,,,,,,,,,,,,,,,,,,,,,,,,,,,,,,,,,,,,,,,,,,,,,,,,,,,,,,,,,,,
,,,,,,,,,,,,,,,,,60ff3b4b49cf56250d170cc6,31,2022-02-12_16h55.29.177,lexical_decision_task_DD_L5,2021.2.3,Win32,61.61049843,z,1,0.6554,,,,,,,,0.6554,1,0,4,4,9,1,1001,FARINY,z,,,,,,,,,,,,,,,,,,,,,,,,,,,,,,,,,,,,,,,,,,,,,,,,,,,,,,,,,,,,,,,,,,
,,,,,,,,,,,,,,,,,60ff3b4b49cf56250d170cc6,31,2022-02-12_16h55.29.177,lexical_decision_task_DD_L5,2021.2.3,Win32,61.61049843,m,1,0.4231,,,,,,,,0.4231,1,0,5,5,1,1,1001,ADJUST,m,,,,,,,,,,,,,,,,,,,,,,,,,,,,,,,,,,,,,,,,,,,,,,,,,,,,,,,,,,,,,,,,,,
,,,,,,,,,,,,,,,,,60ff3b4b49cf56250d170cc6,31,2022-02-12_16h55.29.177,lexical_decision_task_DD_L5,2021.2.3,Win32,61.61049843,m,1,0.4404,,,,,,,,0.4404,1,0,6,6,4,1,1001,SQUEAK,m,,,,,,,,,,,,,,,,,,,,,,,,,,,,,,,,,,,,,,,,,,,,,,,,,,,,,,,,,,,,,,,,,,
,,,,,,,,,,,,,,,,,60ff3b4b49cf56250d170cc6,31,2022-02-12_16h55.29.177,lexical_decision_task_DD_L5,2021.2.3,Win32,61.61049843,m,0,0.748,,,,,,,,0.748,0,0,7,7,15,1,1001,WHAISE,z,,,,,,,,,,,,,,,,,,,,,,,,,,,,,,,,,,,,,,,,,,,,,,,,,,,,,,,,,,,,,,,,,,
,,,,,,,,,,,,,,,,,60ff3b4b49cf56250d170cc6,31,2022-02-12_16h55.29.177,lexical_decision_task_DD_L5,2021.2.3,Win32,61.61049843,m,1,0.4962,,,,,,,,0.4962,1,0,8,8,3,1,1001,MATRIX,m,,,,,,,,,,,,,,,,,,,,,,,,,,,,,,,,,,,,,,,,,,,,,,,,,,,,,,,,,,,,,,,,,,
,,,,,,,,,,,,,,,,,60ff3b4b49cf56250d170cc6,31,2022-02-12_16h55.29.177,lexical_decision_task_DD_L5,2021.2.3,Win32,61.61049843,z,1,0.7582,,,,,,,,0.7582,1,0,9,9,14,1,1001,THRALE,z,,,,,,,,,,,,,,,,,,,,,,,,,,,,,,,,,,,,,,,,,,,,,,,,,,,,,,,,,,,,,,,,,,
,,,,,,,,,,,,,,,,,60ff3b4b49cf56250d170cc6,31,2022-02-12_16h55.29.177,lexical_decision_task_DD_L5,2021.2.3,Win32,61.61049843,m,0,0.8955,,,,,,,,0.8955,0,0,10,10,10,1,1001,INLADE,z,,,,,,,,,,,,,,,,,,,,,,,,,,,,,,,,,,,,,,,,,,,,,,,,,,,,,,,,,,,,,,,,,,
,,,,,,,,,,,,,,,,,60ff3b4b49cf56250d170cc6,31,2022-02-12_16h55.29.177,lexical_decision_task_DD_L5,2021.2.3,Win32,61.61049843,m,1,0.5137,,,,,,,,0.5137,1,0,11,11,7,1,1001,VOLUME,m,,,,,,,,,,,,,,,,,,,,,,,,,,,,,,,,,,,,,,,,,,,,,,,,,,,,,,,,,,,,,,,,,,
,,,,,,,,,,,,,,,,,60ff3b4b49cf56250d170cc6,31,2022-02-12_16h55.29.177,lexical_decision_task_DD_L5,2021.2.3,Win32,61.61049843,z,1,0.7585,,,,,,,,0.7585,1,0,12,12,13,1,1001,ROUPET,z,,,,,,,,,,,,,,,,,,,,,,,,,,,,,,,,,,,,,,,,,,,,,,,,,,,,,,,,,,,,,,,,,,
,,,,,,,,,,,,,,,,,60ff3b4b49cf56250d170cc6,31,2022-02-12_16h55.29.177,lexical_decision_task_DD_L5,2021.2.3,Win32,61.61049843,m,1,0.5113,,,,,,,,0.5113,1,0,13,13,5,1,1001,OBTAIN,m,,,,,,,,,,,,,,,,,,,,,,,,,,,,,,,,,,,,,,,,,,,,,,,,,,,,,,,,,,,,,,,,,,
,,,,,,,,,,,,,,,,,60ff3b4b49cf56250d170cc6,31,2022-02-12_16h55.29.177,lexical_decision_task_DD_L5,2021.2.3,Win32,61.61049843,m,1,0.5386,,,,,,,,0.5386,1,0,14,14,2,1,1001,ALMOND,m,,,,,,,,,,,,,,,,,,,,,,,,,,,,,,,,,,,,,,,,,,,,,,,,,,,,,,,,,,,,,,,,,,
,,,,,,,,,,,,,,,,,60ff3b4b49cf56250d170cc6,31,2022-02-12_16h55.29.177,lexical_decision_task_DD_L5,2021.2.3,Win32,61.61049843,z,1,0.6687,,,,,,,,0.6687,1,0,15,15,12,1,1001,SPRINY,z,,,,,,,,,,,,,,,,,,,,,,,,,,,,,,,,,,,,,,,,,,,,,,,,,,,,,,,,,,,,,,,,,,
space,8.7972,0.02592594,-0.385185198,0,0,0,,,,,,1,end_of_practice,"You have completed the practice trials. During the experimental trials, you will not receive feedback. 
Before you begin, please ensure that you are in a comfortable and quiet location and will not be disturbed for about 15 minutes, as we cannot use your data if you do not complete all the trials. 
 When you are ready to start the experimental trials, please press space or touch the button below.",,,60ff3b4b49cf56250d170cc6,31,2022-02-12_16h55.29.177,lexical_decision_task_DD_L5,2021.2.3,Win32,61.61049843,,,,,,,,,,,,,,,,,,,,,0,0,0,0,1,,,,,,,,,,,,,,,,,,,,,,,,,,,,,,,,,,,,,,,,,,,,,,,,,,,,,,,,,,,,,
,,,,,,,,,,,,,,,,,60ff3b4b49cf56250d170cc6,31,2022-02-12_16h55.29.177,lexical_decision_task_DD_L5,2021.2.3,Win32,61.61049843,,,,,,,,,,,0.6202,1,,,,,,,,,,,,,,m,1,0.6202,,,,,,,,0.02592594,-0.385185198,0,0,0,,0,0,0,41,1,STREAM,C,old,m,./images/STREAM.png,,,,,,,,,,,,,,,,,,,,,,,,,,,,,,,,,,,
,,,,,,,,,,,,,,,,,60ff3b4b49cf56250d170cc6,31,2022-02-12_16h55.29.177,lexical_decision_task_DD_L5,2021.2.3,Win32,61.61049843,,,,,,,,,,,1.06,0,,,,,,,,,,,,,,m,0,1.06,,,,,,,,0.02592594,-0.385185198,0,0,0,,0,1,1,113,1,LINEW,LB,old,z,./images/LINEWLB.png,,,,,,,,,,,,,,,,,,,,,,,,,,,,,,,,,,,
,,,,,,,,,,,,,,,,,60ff3b4b49cf56250d170cc6,31,2022-02-12_16h55.29.177,lexical_decision_task_DD_L5,2021.2.3,Win32,61.61049843,,,,,,,,,,,0.6879,1,,,,,,,,,,,,,,z,1,0.6879,,,,,,,,0.02592594,-0.385185198,0,0,0,,0,2,2,137,1,JOOST,LB,old,z,./images/JOOSTLB.png,,,,,,,,,,,,,,,,,,,,,,,,,,,,,,,,,,,
,,,,,,,,,,,,,,,,,60ff3b4b49cf56250d170cc6,31,2022-02-12_16h55.29.177,lexical_decision_task_DD_L5,2021.2.3,Win32,61.61049843,,,,,,,,,,,0.8896,1,,,,,,,,,,,,,,z,1,0.8896,,,,,,,,0.02592594,-0.385185198,0,0,0,,0,3,3,128,1,GRIFT,LB,old,z,./images/GRIFTLB.png,,,,,,,,,,,,,,,,,,,,,,,,,,,,,,,,,,,
,,,,,,,,,,,,,,,,,60ff3b4b49cf56250d170cc6,31,2022-02-12_16h55.29.177,lexical_decision_task_DD_L5,2021.2.3,Win32,61.61049843,,,,,,,,,,,0.5234,1,,,,,,,,,,,,,,m,1,0.5234,,,,,,,,0.02592594,-0.385185198,0,0,0,,0,4,4,68,1,VALLEY,C,old,m,./images/VALLEY.png,,,,,,,,,,,,,,,,,,,,,,,,,,,,,,,,,,,
,,,,,,,,,,,,,,,,,60ff3b4b49cf56250d170cc6,31,2022-02-12_16h55.29.177,lexical_decision_task_DD_L5,2021.2.3,Win32,61.61049843,,,,,,,,,,,0.6893,1,,,,,,,,,,,,,,z,1,0.6893,,,,,,,,0.02592594,-0.385185198,0,0,0,,0,5,5,93,1,SMONE,C,old,z,./images/SMONE.png,,,,,,,,,,,,,,,,,,,,,,,,,,,,,,,,,,,
,,,,,,,,,,,,,,,,,60ff3b4b49cf56250d170cc6,31,2022-02-12_16h55.29.177,lexical_decision_task_DD_L5,2021.2.3,Win32,61.61049843,,,,,,,,,,,0.5626,1,,,,,,,,,,,,,,m,1,0.5626,,,,,,,,0.02592594,-0.385185198,0,0,0,,0,6,6,8,1,CLIFF,C,old,m,./images/CLIFF.png,,,,,,,,,,,,,,,,,,,,,,,,,,,,,,,,,,,
,,,,,,,,,,,,,,,,,60ff3b4b49cf56250d170cc6,31,2022-02-12_16h55.29.177,lexical_decision_task_DD_L5,2021.2.3,Win32,61.61049843,,,,,,,,,,,0.837,1,,,,,,,,,,,,,,m,1,0.837,,,,,,,,0.02592594,-0.385185198,0,0,0,,0,7,7,72,1,FLASK,HB,old,m,./images/FLASKHB.png,,,,,,,,,,,,,,,,,,,,,,,,,,,,,,,,,,,
,,,,,,,,,,,,,,,,,60ff3b4b49cf56250d170cc6,31,2022-02-12_16h55.29.177,lexical_decision_task_DD_L5,2021.2.3,Win32,61.61049843,,,,,,,,,,,0.5969,1,,,,,,,,,,,,,,z,1,0.5969,,,,,,,,0.02592594,-0.385185198,0,0,0,,0,8,8,126,1,GUELS,C,old,z,./images/GUELS.png,,,,,,,,,,,,,,,,,,,,,,,,,,,,,,,,,,,
,,,,,,,,,,,,,,,,,60ff3b4b49cf56250d170cc6,31,2022-02-12_16h55.29.177,lexical_decision_task_DD_L5,2021.2.3,Win32,61.61049843,,,,,,,,,,,0.7839,1,,,,,,,,,,,,,,m,1,0.7839,,,,,,,,0.02592594,-0.385185198,0,0,0,,0,9,9,78,1,BROOM,HB,old,m,./images/BROOMHB.png,,,,,,,,,,,,,,,,,,,,,,,,,,,,,,,,,,,
,,,,,,,,,,,,,,,,,60ff3b4b49cf56250d170cc6,31,2022-02-12_16h55.29.177,lexical_decision_task_DD_L5,2021.2.3,Win32,61.61049843,,,,,,,,,,,0.5063,1,,,,,,,,,,,,,,m,1,0.5063,,,,,,,,0.02592594,-0.385185198,0,0,0,,0,10,10,25,1,CHALK,LB,old,m,./images/CHALKLB.png,,,,,,,,,,,,,,,,,,,,,,,,,,,,,,,,,,,
,,,,,,,,,,,,,,,,,60ff3b4b49cf56250d170cc6,31,2022-02-12_16h55.29.177,lexical_decision_task_DD_L5,2021.2.3,Win32,61.61049843,,,,,,,,,,,0.5179,1,,,,,,,,,,,,,,m,1,0.5179,,,,,,,,0.02592594,-0.385185198,0,0,0,,0,11,11,16,1,GRAPE,LB,old,m,./images/GRAPELB.png,,,,,,,,,,,,,,,,,,,,,,,,,,,,,,,,,,,
,,,,,,,,,,,,,,,,,60ff3b4b49cf56250d170cc6,31,2022-02-12_16h55.29.177,lexical_decision_task_DD_L5,2021.2.3,Win32,61.61049843,,,,,,,,,,,0.5945,1,,,,,,,,,,,,,,m,1,0.5945,,,,,,,,0.02592594,-0.385185198,0,0,0,,0,12,12,70,1,BANANA,LB,old,m,./images/BANANALB.png,,,,,,,,,,,,,,,,,,,,,,,,,,,,,,,,,,,
,,,,,,,,,,,,,,,,,60ff3b4b49cf56250d170cc6,31,2022-02-12_16h55.29.177,lexical_decision_task_DD_L5,2021.2.3,Win32,61.61049843,,,,,,,,,,,0.6356,1,,,,,,,,,,,,,,z,1,0.6356,,,,,,,,0.02592594,-0.385185198,0,0,0,,0,13,13,159,1,CUDDY,C,old,z,./images/CUDDY.png,,,,,,,,,,,,,,,,,,,,,,,,,,,,,,,,,,,
,,,,,,,,,,,,,,,,,60ff3b4b49cf56250d170cc6,31,2022-02-12_16h55.29.177,lexical_decision_task_DD_L5,2021.2.3,Win32,61.61049843,,,,,,,,,,,0.6852,1,,,,,,,,,,,,,,z,1,0.6852,,,,,,,,0.02592594,-0.385185198,0,0,0,,0,14,14,158,1,EGECT,LB,old,z,./images/EGECTLB.png,,,,,,,,,,,,,,,,,,,,,,,,,,,,,,,,,,,
,,,,,,,,,,,,,,,,,60ff3b4b49cf56250d170cc6,31,2022-02-12_16h55.29.177,lexical_decision_task_DD_L5,2021.2.3,Win32,61.61049843,,,,,,,,,,,1.8507,1,,,,,,,,,,,,,,z,1,1.8507,,,,,,,,0.02592594,-0.385185198,0,0,0,,0,15,15,166,1,SHORY,HB,old,z,./images/SHORYHB.png,,,,,,,,,,,,,,,,,,,,,,,,,,,,,,,,,,,
,,,,,,,,,,,,,,,,,60ff3b4b49cf56250d170cc6,31,2022-02-12_16h55.29.177,lexical_decision_task_DD_L5,2021.2.3,Win32,61.61049843,,,,,,,,,,,0.6121,1,,,,,,,,,,,,,,m,1,0.6121,,,,,,,,0.02592594,-0.385185198,0,0,0,,0,16,16,7,1,WAGON,LB,old,m,./images/WAGONLB.png,,,,,,,,,,,,,,,,,,,,,,,,,,,,,,,,,,,
,,,,,,,,,,,,,,,,,60ff3b4b49cf56250d170cc6,31,2022-02-12_16h55.29.177,lexical_decision_task_DD_L5,2021.2.3,Win32,61.61049843,,,,,,,,,,,0.5503,1,,,,,,,,,,,,,,m,1,0.5503,,,,,,,,0.02592594,-0.385185198,0,0,0,,0,17,17,32,1,HOCKEY,C,old,m,./images/HOCKEY.png,,,,,,,,,,,,,,,,,,,,,,,,,,,,,,,,,,,
,,,,,,,,,,,,,,,,,60ff3b4b49cf56250d170cc6,31,2022-02-12_16h55.29.177,lexical_decision_task_DD_L5,2021.2.3,Win32,61.61049843,,,,,,,,,,,0.7549,1,,,,,,,,,,,,,,z,1,0.7549,,,,,,,,0.02592594,-0.385185198,0,0,0,,0,18,18,87,1,TRING,C,old,z,./images/TRING.png,,,,,,,,,,,,,,,,,,,,,,,,,,,,,,,,,,,
,,,,,,,,,,,,,,,,,60ff3b4b49cf56250d170cc6,31,2022-02-12_16h55.29.177,lexical_decision_task_DD_L5,2021.2.3,Win32,61.61049843,,,,,,,,,,,0.857,1,,,,,,,,,,,,,,m,1,0.857,,,,,,,,0.02592594,-0.385185198,0,0,0,,0,19,19,40,1,SNAKE,LB,old,m,./images/SNAKELB.png,,,,,,,,,,,,,,,,,,,,,,,,,,,,,,,,,,,
,,,,,,,,,,,,,,,,,60ff3b4b49cf56250d170cc6,31,2022-02-12_16h55.29.177,lexical_decision_task_DD_L5,2021.2.3,Win32,61.61049843,,,,,,,,,,,1.4396,0,,,,,,,,,,,,,,m,0,1.4396,,,,,,,,0.02592594,-0.385185198,0,0,0,,0,20,20,100,1,DRIBS,HB,old,z,./images/DRIBSHB.png,,,,,,,,,,,,,,,,,,,,,,,,,,,,,,,,,,,
,,,,,,,,,,,,,,,,,60ff3b4b49cf56250d170cc6,31,2022-02-12_16h55.29.177,lexical_decision_task_DD_L5,2021.2.3,Win32,61.61049843,,,,,,,,,,,1.5191,1,,,,,,,,,,,,,,z,1,1.5191,,,,,,,,0.02592594,-0.385185198,0,0,0,,0,21,21,127,1,NINDY,HB,old,z,./images/NINDYHB.png,,,,,,,,,,,,,,,,,,,,,,,,,,,,,,,,,,,
,,,,,,,,,,,,,,,,,60ff3b4b49cf56250d170cc6,31,2022-02-12_16h55.29.177,lexical_decision_task_DD_L5,2021.2.3,Win32,61.61049843,,,,,,,,,,,1.6641,1,,,,,,,,,,,,,,z,1,1.6641,,,,,,,,0.02592594,-0.385185198,0,0,0,,0,22,22,139,1,BLEAR,HB,old,z,./images/BLEARHB.png,,,,,,,,,,,,,,,,,,,,,,,,,,,,,,,,,,,
,,,,,,,,,,,,,,,,,60ff3b4b49cf56250d170cc6,31,2022-02-12_16h55.29.177,lexical_decision_task_DD_L5,2021.2.3,Win32,61.61049843,,,,,,,,,,,0.7805,1,,,,,,,,,,,,,,z,1,0.7805,,,,,,,,0.02592594,-0.385185198,0,0,0,,0,23,23,92,1,PAIMS,LB,old,z,./images/PAIMSLB.png,,,,,,,,,,,,,,,,,,,,,,,,,,,,,,,,,,,
,,,,,,,,,,,,,,,,,60ff3b4b49cf56250d170cc6,31,2022-02-12_16h55.29.177,lexical_decision_task_DD_L5,2021.2.3,Win32,61.61049843,,,,,,,,,,,0.5952,1,,,,,,,,,,,,,,m,1,0.5952,,,,,,,,0.02592594,-0.385185198,0,0,0,,0,24,24,62,1,MAMMAL,C,old,m,./images/MAMMAL.png,,,,,,,,,,,,,,,,,,,,,,,,,,,,,,,,,,,
,,,,,,,,,,,,,,,,,60ff3b4b49cf56250d170cc6,31,2022-02-12_16h55.29.177,lexical_decision_task_DD_L5,2021.2.3,Win32,61.61049843,,,,,,,,,,,0.6843,1,,,,,,,,,,,,,,z,1,0.6843,,,,,,,,0.02592594,-0.385185198,0,0,0,,0,25,25,99,1,BACKY,C,old,z,./images/BACKY.png,,,,,,,,,,,,,,,,,,,,,,,,,,,,,,,,,,,
,,,,,,,,,,,,,,,,,60ff3b4b49cf56250d170cc6,31,2022-02-12_16h55.29.177,lexical_decision_task_DD_L5,2021.2.3,Win32,61.61049843,,,,,,,,,,,1.6727,1,,,,,,,,,,,,,,z,1,1.6727,,,,,,,,0.02592594,-0.385185198,0,0,0,,0,26,26,112,1,MYING,HB,old,z,./images/MYINGHB.png,,,,,,,,,,,,,,,,,,,,,,,,,,,,,,,,,,,
,,,,,,,,,,,,,,,,,60ff3b4b49cf56250d170cc6,31,2022-02-12_16h55.29.177,lexical_decision_task_DD_L5,2021.2.3,Win32,61.61049843,,,,,,,,,,,0.5505,1,,,,,,,,,,,,,,m,1,0.5505,,,,,,,,0.02592594,-0.385185198,0,0,0,,0,27,27,80,1,PLANET,C,old,m,./images/PLANET.png,,,,,,,,,,,,,,,,,,,,,,,,,,,,,,,,,,,
,,,,,,,,,,,,,,,,,60ff3b4b49cf56250d170cc6,31,2022-02-12_16h55.29.177,lexical_decision_task_DD_L5,2021.2.3,Win32,61.61049843,,,,,,,,,,,0.6442,1,,,,,,,,,,,,,,m,1,0.6442,,,,,,,,0.02592594,-0.385185198,0,0,0,,0,28,28,51,1,SAUCE,HB,old,m,./images/SAUCEHB.png,,,,,,,,,,,,,,,,,,,,,,,,,,,,,,,,,,,
,,,,,,,,,,,,,,,,,60ff3b4b49cf56250d170cc6,31,2022-02-12_16h55.29.177,lexical_decision_task_DD_L5,2021.2.3,Win32,61.61049843,,,,,,,,,,,0.5695,1,,,,,,,,,,,,,,m,1,0.5695,,,,,,,,0.02592594,-0.385185198,0,0,0,,0,29,29,19,1,DONKEY,LB,old,m,./images/DONKEYLB.png,,,,,,,,,,,,,,,,,,,,,,,,,,,,,,,,,,,
,,,,,,,,,,,,,,,,,60ff3b4b49cf56250d170cc6,31,2022-02-12_16h55.29.177,lexical_decision_task_DD_L5,2021.2.3,Win32,61.61049843,,,,,,,,,,,0.5771,1,,,,,,,,,,,,,,m,1,0.5771,,,,,,,,0.02592594,-0.385185198,0,0,0,,0,30,30,29,1,PISTOL,C,old,m,./images/PISTOL.png,,,,,,,,,,,,,,,,,,,,,,,,,,,,,,,,,,,
,,,,,,,,,,,,,,,,,60ff3b4b49cf56250d170cc6,31,2022-02-12_16h55.29.177,lexical_decision_task_DD_L5,2021.2.3,Win32,61.61049843,,,,,,,,,,,0.7849,1,,,,,,,,,,,,,,m,1,0.7849,,,,,,,,0.02592594,-0.385185198,0,0,0,,0,31,31,27,1,BUTTER,HB,old,m,./images/BUTTERHB.png,,,,,,,,,,,,,,,,,,,,,,,,,,,,,,,,,,,
,,,,,,,,,,,,,,,,,60ff3b4b49cf56250d170cc6,31,2022-02-12_16h55.29.177,lexical_decision_task_DD_L5,2021.2.3,Win32,61.61049843,,,,,,,,,,,1.3394,1,,,,,,,,,,,,,,z,1,1.3394,,,,,,,,0.02592594,-0.385185198,0,0,0,,0,32,32,94,1,BLANS,HB,old,z,./images/BLANSHB.png,,,,,,,,,,,,,,,,,,,,,,,,,,,,,,,,,,,
,,,,,,,,,,,,,,,,,60ff3b4b49cf56250d170cc6,31,2022-02-12_16h55.29.177,lexical_decision_task_DD_L5,2021.2.3,Win32,61.61049843,,,,,,,,,,,0.7615,1,,,,,,,,,,,,,,m,1,0.7615,,,,,,,,0.02592594,-0.385185198,0,0,0,,0,33,33,39,1,CANDY,HB,old,m,./images/CANDYHB.png,,,,,,,,,,,,,,,,,,,,,,,,,,,,,,,,,,,
,,,,,,,,,,,,,,,,,60ff3b4b49cf56250d170cc6,31,2022-02-12_16h55.29.177,lexical_decision_task_DD_L5,2021.2.3,Win32,61.61049843,,,,,,,,,,,0.7332,1,,,,,,,,,,,,,,m,1,0.7332,,,,,,,,0.02592594,-0.385185198,0,0,0,,0,34,34,15,1,COLLAR,HB,old,m,./images/COLLARHB.png,,,,,,,,,,,,,,,,,,,,,,,,,,,,,,,,,,,
,,,,,,,,,,,,,,,,,60ff3b4b49cf56250d170cc6,31,2022-02-12_16h55.29.177,lexical_decision_task_DD_L5,2021.2.3,Win32,61.61049843,,,,,,,,,,,0.5876,1,,,,,,,,,,,,,,m,1,0.5876,,,,,,,,0.02592594,-0.385185198,0,0,0,,0,35,35,14,1,FENCE,C,old,m,./images/FENCE.png,,,,,,,,,,,,,,,,,,,,,,,,,,,,,,,,,,,
,,,,,,,,,,,,,,,,,60ff3b4b49cf56250d170cc6,31,2022-02-12_16h55.29.177,lexical_decision_task_DD_L5,2021.2.3,Win32,61.61049843,,,,,,,,,,,0.5955,1,,,,,,,,,,,,,,z,1,0.5955,,,,,,,,0.02592594,-0.385185198,0,0,0,,0,36,36,123,1,SEDGE,C,old,z,./images/SEDGE.png,,,,,,,,,,,,,,,,,,,,,,,,,,,,,,,,,,,
,,,,,,,,,,,,,,,,,60ff3b4b49cf56250d170cc6,31,2022-02-12_16h55.29.177,lexical_decision_task_DD_L5,2021.2.3,Win32,61.61049843,,,,,,,,,,,1.0058,1,,,,,,,,,,,,,,m,1,1.0058,,,,,,,,0.02592594,-0.385185198,0,0,0,,0,37,37,81,1,DRILL,HB,old,m,./images/DRILLHB.png,,,,,,,,,,,,,,,,,,,,,,,,,,,,,,,,,,,
,,,,,,,,,,,,,,,,,60ff3b4b49cf56250d170cc6,31,2022-02-12_16h55.29.177,lexical_decision_task_DD_L5,2021.2.3,Win32,61.61049843,,,,,,,,,,,0.8971,1,,,,,,,,,,,,,,m,1,0.8971,,,,,,,,0.02592594,-0.385185198,0,0,0,,0,38,38,12,1,BLOKE,HB,old,m,./images/BLOKEHB.png,,,,,,,,,,,,,,,,,,,,,,,,,,,,,,,,,,,
,,,,,,,,,,,,,,,,,60ff3b4b49cf56250d170cc6,31,2022-02-12_16h55.29.177,lexical_decision_task_DD_L5,2021.2.3,Win32,61.61049843,,,,,,,,,,,0.5742,1,,,,,,,,,,,,,,m,1,0.5742,,,,,,,,0.02592594,-0.385185198,0,0,0,,0,39,39,46,1,MUMMY,LB,old,m,./images/MUMMYLB.png,,,,,,,,,,,,,,,,,,,,,,,,,,,,,,,,,,,
,,,,,,,,,,,,,,,,,60ff3b4b49cf56250d170cc6,31,2022-02-12_16h55.29.177,lexical_decision_task_DD_L5,2021.2.3,Win32,61.61049843,,,,,,,,,,,0.7229,1,,,,,,,,,,,,,,z,1,0.7229,,,,,,,,0.02592594,-0.385185198,0,0,0,,0,40,40,156,1,HIXES,C,old,z,./images/HIXES.png,,,,,,,,,,,,,,,,,,,,,,,,,,,,,,,,,,,
,,,,,,,,,,,,,,,,,60ff3b4b49cf56250d170cc6,31,2022-02-12_16h55.29.177,lexical_decision_task_DD_L5,2021.2.3,Win32,61.61049843,,,,,,,,,,,1.2839,1,,,,,,,,,,,,,,z,1,1.2839,,,,,,,,0.02592594,-0.385185198,0,0,0,space,0,41,41,88,1,GLUSH,HB,old,z,./images/GLUSHHB.png,3.067,,,,,,,,,,,,,,,,,,,,,,,,,,,,,,,,,,
,,,,,,,,,,,,,,,,,60ff3b4b49cf56250d170cc6,31,2022-02-12_16h55.29.177,lexical_decision_task_DD_L5,2021.2.3,Win32,61.61049843,,,,,,,,,,,0.7702,1,,,,,,,,,,,,,,m,1,0.7702,,,,,,,,0.02592594,-0.385185198,0,0,0,,0,42,42,24,1,FLESH,HB,old,m,./images/FLESHHB.png,,,,,,,,,,,,,,,,,,,,,,,,,,,,,,,,,,,
,,,,,,,,,,,,,,,,,60ff3b4b49cf56250d170cc6,31,2022-02-12_16h55.29.177,lexical_decision_task_DD_L5,2021.2.3,Win32,61.61049843,,,,,,,,,,,0.9841,0,,,,,,,,,,,,,,z,0,0.9841,,,,,,,,0.02592594,-0.385185198,0,0,0,,0,43,43,83,1,WHISKY,C,old,m,./images/WHISKY.png,,,,,,,,,,,,,,,,,,,,,,,,,,,,,,,,,,,
,,,,,,,,,,,,,,,,,60ff3b4b49cf56250d170cc6,31,2022-02-12_16h55.29.177,lexical_decision_task_DD_L5,2021.2.3,Win32,61.61049843,,,,,,,,,,,0.5125,1,,,,,,,,,,,,,,m,1,0.5125,,,,,,,,0.02592594,-0.385185198,0,0,0,,0,44,44,26,1,CLOUD,C,old,m,./images/CLOUD.png,,,,,,,,,,,,,,,,,,,,,,,,,,,,,,,,,,,
,,,,,,,,,,,,,,,,,60ff3b4b49cf56250d170cc6,31,2022-02-12_16h55.29.177,lexical_decision_task_DD_L5,2021.2.3,Win32,61.61049843,,,,,,,,,,,0.6206,1,,,,,,,,,,,,,,z,1,0.6206,,,,,,,,0.02592594,-0.385185198,0,0,0,,0,45,45,101,1,GLEET,LB,old,z,./images/GLEETLB.png,,,,,,,,,,,,,,,,,,,,,,,,,,,,,,,,,,,
,,,,,,,,,,,,,,,,,60ff3b4b49cf56250d170cc6,31,2022-02-12_16h55.29.177,lexical_decision_task_DD_L5,2021.2.3,Win32,61.61049843,,,,,,,,,,,0.5422,1,,,,,,,,,,,,,,m,1,0.5422,,,,,,,,0.02592594,-0.385185198,0,0,0,,0,46,46,65,1,SPINE,C,old,m,./images/SPINE.png,,,,,,,,,,,,,,,,,,,,,,,,,,,,,,,,,,,
,,,,,,,,,,,,,,,,,60ff3b4b49cf56250d170cc6,31,2022-02-12_16h55.29.177,lexical_decision_task_DD_L5,2021.2.3,Win32,61.61049843,,,,,,,,,,,0.4737,1,,,,,,,,,,,,,,m,1,0.4737,,,,,,,,0.02592594,-0.385185198,0,0,0,,0,47,47,71,1,BUBBLE,C,old,m,./images/BUBBLE.png,,,,,,,,,,,,,,,,,,,,,,,,,,,,,,,,,,,
,,,,,,,,,,,,,,,,,60ff3b4b49cf56250d170cc6,31,2022-02-12_16h55.29.177,lexical_decision_task_DD_L5,2021.2.3,Win32,61.61049843,,,,,,,,,,,0.6477,1,,,,,,,,,,,,,,z,1,0.6477,,,,,,,,0.02592594,-0.385185198,0,0,0,,0,48,48,143,1,MONGS,LB,old,z,./images/MONGSLB.png,,,,,,,,,,,,,,,,,,,,,,,,,,,,,,,,,,,
,,,,,,,,,,,,,,,,,60ff3b4b49cf56250d170cc6,31,2022-02-12_16h55.29.177,lexical_decision_task_DD_L5,2021.2.3,Win32,61.61049843,,,,,,,,,,,0.5268,1,,,,,,,,,,,,,,z,1,0.5268,,,,,,,,0.02592594,-0.385185198,0,0,0,,0,49,49,108,1,GRUET,C,old,z,./images/GRUET.png,,,,,,,,,,,,,,,,,,,,,,,,,,,,,,,,,,,
,,,,,,,,,,,,,,,,,60ff3b4b49cf56250d170cc6,31,2022-02-12_16h55.29.177,lexical_decision_task_DD_L5,2021.2.3,Win32,61.61049843,,,,,,,,,,,0.4886,1,,,,,,,,,,,,,,m,1,0.4886,,,,,,,,0.02592594,-0.385185198,0,0,0,,0,50,50,1,1,TOWEL,LB,old,m,./images/TOWELLB.png,,,,,,,,,,,,,,,,,,,,,,,,,,,,,,,,,,,
,,,,,,,,,,,,,,,,,60ff3b4b49cf56250d170cc6,31,2022-02-12_16h55.29.177,lexical_decision_task_DD_L5,2021.2.3,Win32,61.61049843,,,,,,,,,,,0.569,1,,,,,,,,,,,,,,m,1,0.569,,,,,,,,0.02592594,-0.385185198,0,0,0,,0,51,51,49,1,BISHOP,LB,old,m,./images/BISHOPLB.png,,,,,,,,,,,,,,,,,,,,,,,,,,,,,,,,,,,
,,,,,,,,,,,,,,,,,60ff3b4b49cf56250d170cc6,31,2022-02-12_16h55.29.177,lexical_decision_task_DD_L5,2021.2.3,Win32,61.61049843,,,,,,,,,,,0.8246,1,,,,,,,,,,,,,,m,1,0.8246,,,,,,,,0.02592594,-0.385185198,0,0,0,,0,52,52,0,1,WALNUT,HB,old,m,./images/WALNUTHB.png,,,,,,,,,,,,,,,,,,,,,,,,,,,,,,,,,,,
,,,,,,,,,,,,,,,,,60ff3b4b49cf56250d170cc6,31,2022-02-12_16h55.29.177,lexical_decision_task_DD_L5,2021.2.3,Win32,61.61049843,,,,,,,,,,,0.688,1,,,,,,,,,,,,,,m,1,0.688,,,,,,,,0.02592594,-0.385185198,0,0,0,,0,53,53,54,1,CHERRY,HB,old,m,./images/CHERRYHB.png,,,,,,,,,,,,,,,,,,,,,,,,,,,,,,,,,,,
,,,,,,,,,,,,,,,,,60ff3b4b49cf56250d170cc6,31,2022-02-12_16h55.29.177,lexical_decision_task_DD_L5,2021.2.3,Win32,61.61049843,,,,,,,,,,,0.7108,1,,,,,,,,,,,,,,z,1,0.7108,,,,,,,,0.02592594,-0.385185198,0,0,0,,0,54,54,165,1,TROWN,C,old,z,./images/TROWN.png,,,,,,,,,,,,,,,,,,,,,,,,,,,,,,,,,,,
,,,,,,,,,,,,,,,,,60ff3b4b49cf56250d170cc6,31,2022-02-12_16h55.29.177,lexical_decision_task_DD_L5,2021.2.3,Win32,61.61049843,,,,,,,,,,,0.6656,1,,,,,,,,,,,,,,z,1,0.6656,,,,,,,,0.02592594,-0.385185198,0,0,0,,0,55,55,131,1,NACES,LB,old,z,./images/NACESLB.png,,,,,,,,,,,,,,,,,,,,,,,,,,,,,,,,,,,
,,,,,,,,,,,,,,,,,60ff3b4b49cf56250d170cc6,31,2022-02-12_16h55.29.177,lexical_decision_task_DD_L5,2021.2.3,Win32,61.61049843,,,,,,,,,,,1.0351,0,,,,,,,,,,,,,,z,0,1.0351,,,,,,,,0.02592594,-0.385185198,0,0,0,,0,56,56,6,1,STAIN,HB,old,m,./images/STAINHB.png,,,,,,,,,,,,,,,,,,,,,,,,,,,,,,,,,,,
,,,,,,,,,,,,,,,,,60ff3b4b49cf56250d170cc6,31,2022-02-12_16h55.29.177,lexical_decision_task_DD_L5,2021.2.3,Win32,61.61049843,,,,,,,,,,,0.5189,1,,,,,,,,,,,,,,m,1,0.5189,,,,,,,,0.02592594,-0.385185198,0,0,0,,0,57,57,61,1,ARTIST,LB,old,m,./images/ARTISTLB.png,,,,,,,,,,,,,,,,,,,,,,,,,,,,,,,,,,,
,,,,,,,,,,,,,,,,,60ff3b4b49cf56250d170cc6,31,2022-02-12_16h55.29.177,lexical_decision_task_DD_L5,2021.2.3,Win32,61.61049843,,,,,,,,,,,0.5685,1,,,,,,,,,,,,,,m,1,0.5685,,,,,,,,0.02592594,-0.385185198,0,0,0,,0,58,58,67,1,POKER,LB,old,m,./images/POKERLB.png,,,,,,,,,,,,,,,,,,,,,,,,,,,,,,,,,,,
,,,,,,,,,,,,,,,,,60ff3b4b49cf56250d170cc6,31,2022-02-12_16h55.29.177,lexical_decision_task_DD_L5,2021.2.3,Win32,61.61049843,,,,,,,,,,,0.729,1,,,,,,,,,,,,,,z,1,0.729,,,,,,,,0.02592594,-0.385185198,0,0,0,,0,59,59,161,1,BLAPS,LB,old,z,./images/BLAPSLB.png,,,,,,,,,,,,,,,,,,,,,,,,,,,,,,,,,,,
,,,,,,,,,,,,,,,,,60ff3b4b49cf56250d170cc6,31,2022-02-12_16h55.29.177,lexical_decision_task_DD_L5,2021.2.3,Win32,61.61049843,,,,,,,,,,,1.1704,1,,,,,,,,,,,,,,m,1,1.1704,,,,,,,,0.02592594,-0.385185198,0,0,0,,0,60,60,63,1,BAKER,HB,old,m,./images/BAKERHB.png,,,,,,,,,,,,,,,,,,,,,,,,,,,,,,,,,,,
,,,,,,,,,,,,,,,,,60ff3b4b49cf56250d170cc6,31,2022-02-12_16h55.29.177,lexical_decision_task_DD_L5,2021.2.3,Win32,61.61049843,,,,,,,,,,,1.3006,1,,,,,,,,,,,,,,z,1,1.3006,,,,,,,,0.02592594,-0.385185198,0,0,0,,0,61,61,109,1,BURGE,HB,old,z,./images/BURGEHB.png,,,,,,,,,,,,,,,,,,,,,,,,,,,,,,,,,,,
,,,,,,,,,,,,,,,,,60ff3b4b49cf56250d170cc6,31,2022-02-12_16h55.29.177,lexical_decision_task_DD_L5,2021.2.3,Win32,61.61049843,,,,,,,,,,,1.5266,0,,,,,,,,,,,,,,m,0,1.5266,,,,,,,,0.02592594,-0.385185198,0,0,0,,0,62,62,130,1,CRILL,HB,old,z,./images/CRILLHB.png,,,,,,,,,,,,,,,,,,,,,,,,,,,,,,,,,,,
,,,,,,,,,,,,,,,,,60ff3b4b49cf56250d170cc6,31,2022-02-12_16h55.29.177,lexical_decision_task_DD_L5,2021.2.3,Win32,61.61049843,,,,,,,,,,,1.0559,1,,,,,,,,,,,,,,z,1,1.0559,,,,,,,,0.02592594,-0.385185198,0,0,0,,0,63,63,103,1,FLORT,HB,old,z,./images/FLORTHB.png,,,,,,,,,,,,,,,,,,,,,,,,,,,,,,,,,,,
,,,,,,,,,,,,,,,,,60ff3b4b49cf56250d170cc6,31,2022-02-12_16h55.29.177,lexical_decision_task_DD_L5,2021.2.3,Win32,61.61049843,,,,,,,,,,,0.6756,1,,,,,,,,,,,,,,z,1,0.6756,,,,,,,,0.02592594,-0.385185198,0,0,0,,0,64,64,89,1,DRIEK,LB,old,z,./images/DRIEKLB.png,,,,,,,,,,,,,,,,,,,,,,,,,,,,,,,,,,,
,,,,,,,,,,,,,,,,,60ff3b4b49cf56250d170cc6,31,2022-02-12_16h55.29.177,lexical_decision_task_DD_L5,2021.2.3,Win32,61.61049843,,,,,,,,,,,0.6765,1,,,,,,,,,,,,,,m,1,0.6765,,,,,,,,0.02592594,-0.385185198,0,0,0,,0,65,65,58,1,CANOE,LB,old,m,./images/CANOELB.png,,,,,,,,,,,,,,,,,,,,,,,,,,,,,,,,,,,
,,,,,,,,,,,,,,,,,60ff3b4b49cf56250d170cc6,31,2022-02-12_16h55.29.177,lexical_decision_task_DD_L5,2021.2.3,Win32,61.61049843,,,,,,,,,,,0.5475,1,,,,,,,,,,,,,,z,1,0.5475,,,,,,,,0.02592594,-0.385185198,0,0,0,,0,66,66,162,1,LEICH,C,old,z,./images/LEICH.png,,,,,,,,,,,,,,,,,,,,,,,,,,,,,,,,,,,
,,,,,,,,,,,,,,,,,60ff3b4b49cf56250d170cc6,31,2022-02-12_16h55.29.177,lexical_decision_task_DD_L5,2021.2.3,Win32,61.61049843,,,,,,,,,,,1.4134,1,,,,,,,,,,,,,,z,1,1.4134,,,,,,,,0.02592594,-0.385185198,0,0,0,,0,67,67,157,1,INLER,HB,old,z,./images/INLERHB.png,,,,,,,,,,,,,,,,,,,,,,,,,,,,,,,,,,,
,,,,,,,,,,,,,,,,,60ff3b4b49cf56250d170cc6,31,2022-02-12_16h55.29.177,lexical_decision_task_DD_L5,2021.2.3,Win32,61.61049843,,,,,,,,,,,0.6919,1,,,,,,,,,,,,,,m,1,0.6919,,,,,,,,0.02592594,-0.385185198,0,0,0,,0,68,68,47,1,LAGOON,C,old,m,./images/LAGOON.png,,,,,,,,,,,,,,,,,,,,,,,,,,,,,,,,,,,
,,,,,,,,,,,,,,,,,60ff3b4b49cf56250d170cc6,31,2022-02-12_16h55.29.177,lexical_decision_task_DD_L5,2021.2.3,Win32,61.61049843,,,,,,,,,,,0.5443,1,,,,,,,,,,,,,,z,1,0.5443,,,,,,,,0.02592594,-0.385185198,0,0,0,,0,69,69,90,1,NEAST,C,old,z,./images/NEAST.png,,,,,,,,,,,,,,,,,,,,,,,,,,,,,,,,,,,
,,,,,,,,,,,,,,,,,60ff3b4b49cf56250d170cc6,31,2022-02-12_16h55.29.177,lexical_decision_task_DD_L5,2021.2.3,Win32,61.61049843,,,,,,,,,,,1.3092,1,,,,,,,,,,,,,,z,1,1.3092,,,,,,,,0.02592594,-0.385185198,0,0,0,,0,70,70,124,1,TUNCH,HB,old,z,./images/TUNCHHB.png,,,,,,,,,,,,,,,,,,,,,,,,,,,,,,,,,,,
,,,,,,,,,,,,,,,,,60ff3b4b49cf56250d170cc6,31,2022-02-12_16h55.29.177,lexical_decision_task_DD_L5,2021.2.3,Win32,61.61049843,,,,,,,,,,,1.2656,1,,,,,,,,,,,,,,z,1,1.2656,,,,,,,,0.02592594,-0.385185198,0,0,0,,0,71,71,85,1,CHULK,HB,old,z,./images/CHULKHB.png,,,,,,,,,,,,,,,,,,,,,,,,,,,,,,,,,,,
,,,,,,,,,,,,,,,,,60ff3b4b49cf56250d170cc6,31,2022-02-12_16h55.29.177,lexical_decision_task_DD_L5,2021.2.3,Win32,61.61049843,,,,,,,,,,,0.5982,1,,,,,,,,,,,,,,z,1,0.5982,,,,,,,,0.02592594,-0.385185198,0,0,0,,0,72,72,134,1,TROSS,LB,old,z,./images/TROSSLB.png,,,,,,,,,,,,,,,,,,,,,,,,,,,,,,,,,,,
,,,,,,,,,,,,,,,,,60ff3b4b49cf56250d170cc6,31,2022-02-12_16h55.29.177,lexical_decision_task_DD_L5,2021.2.3,Win32,61.61049843,,,,,,,,,,,0.8267,1,,,,,,,,,,,,,,m,1,0.8267,,,,,,,,0.02592594,-0.385185198,0,0,0,,0,73,73,57,1,FERRY,HB,old,m,./images/FERRYHB.png,,,,,,,,,,,,,,,,,,,,,,,,,,,,,,,,,,,
,,,,,,,,,,,,,,,,,60ff3b4b49cf56250d170cc6,31,2022-02-12_16h55.29.177,lexical_decision_task_DD_L5,2021.2.3,Win32,61.61049843,,,,,,,,,,,0.8048,0,,,,,,,,,,,,,,z,0,0.8048,,,,,,,,0.02592594,-0.385185198,0,0,0,,0,74,74,52,1,DESERT,LB,old,m,./images/DESERTLB.png,,,,,,,,,,,,,,,,,,,,,,,,,,,,,,,,,,,
,,,,,,,,,,,,,,,,,60ff3b4b49cf56250d170cc6,31,2022-02-12_16h55.29.177,lexical_decision_task_DD_L5,2021.2.3,Win32,61.61049843,,,,,,,,,,,1.2158,1,,,,,,,,,,,,,,z,1,1.2158,,,,,,,,0.02592594,-0.385185198,0,0,0,,0,75,75,148,1,JOMS,HB,old,z,./images/JOMSHB.png,,,,,,,,,,,,,,,,,,,,,,,,,,,,,,,,,,,
,,,,,,,,,,,,,,,,,60ff3b4b49cf56250d170cc6,31,2022-02-12_16h55.29.177,lexical_decision_task_DD_L5,2021.2.3,Win32,61.61049843,,,,,,,,,,,0.4981,1,,,,,,,,,,,,,,m,1,0.4981,,,,,,,,0.02592594,-0.385185198,0,0,0,,0,76,76,64,1,BRIDE,LB,old,m,./images/BRIDELB.png,,,,,,,,,,,,,,,,,,,,,,,,,,,,,,,,,,,
,,,,,,,,,,,,,,,,,60ff3b4b49cf56250d170cc6,31,2022-02-12_16h55.29.177,lexical_decision_task_DD_L5,2021.2.3,Win32,61.61049843,,,,,,,,,,,0.4947,1,,,,,,,,,,,,,,z,1,0.4947,,,,,,,,0.02592594,-0.385185198,0,0,0,,0,77,77,147,1,ZOLES,C,old,z,./images/ZOLES.png,,,,,,,,,,,,,,,,,,,,,,,,,,,,,,,,,,,
,,,,,,,,,,,,,,,,,60ff3b4b49cf56250d170cc6,31,2022-02-12_16h55.29.177,lexical_decision_task_DD_L5,2021.2.3,Win32,61.61049843,,,,,,,,,,,0.6906,1,,,,,,,,,,,,,,m,1,0.6906,,,,,,,,0.02592594,-0.385185198,0,0,0,,0,78,78,38,1,ENGINE,C,old,m,./images/ENGINE.png,,,,,,,,,,,,,,,,,,,,,,,,,,,,,,,,,,,
,,,,,,,,,,,,,,,,,60ff3b4b49cf56250d170cc6,31,2022-02-12_16h55.29.177,lexical_decision_task_DD_L5,2021.2.3,Win32,61.61049843,,,,,,,,,,,0.5273,1,,,,,,,,,,,,,,m,1,0.5273,,,,,,,,0.02592594,-0.385185198,0,0,0,,0,79,79,2,1,STOVE,C,old,m,./images/STOVE.png,,,,,,,,,,,,,,,,,,,,,,,,,,,,,,,,,,,
,,,,,,,,,,,,,,,,,60ff3b4b49cf56250d170cc6,31,2022-02-12_16h55.29.177,lexical_decision_task_DD_L5,2021.2.3,Win32,61.61049843,,,,,,,,,,,0.6115,1,,,,,,,,,,,,,,z,1,0.6115,,,,,,,,0.02592594,-0.385185198,0,0,0,,0,80,80,155,1,CANGY,LB,old,z,./images/CANGYLB.png,,,,,,,,,,,,,,,,,,,,,,,,,,,,,,,,,,,
,,,,,,,,,,,,,,,,,60ff3b4b49cf56250d170cc6,31,2022-02-12_16h55.29.177,lexical_decision_task_DD_L5,2021.2.3,Win32,61.61049843,,,,,,,,,,,0.8571,1,,,,,,,,,,,,,,z,1,0.8571,,,,,,,,0.02592594,-0.385185198,0,0,0,,0,81,81,160,1,VEETS,HB,old,z,./images/VEETSHB.png,,,,,,,,,,,,,,,,,,,,,,,,,,,,,,,,,,,
,,,,,,,,,,,,,,,,,60ff3b4b49cf56250d170cc6,31,2022-02-12_16h55.29.177,lexical_decision_task_DD_L5,2021.2.3,Win32,61.61049843,,,,,,,,,,,0.5831,1,,,,,,,,,,,,,,z,1,0.5831,,,,,,,,0.02592594,-0.385185198,0,0,0,,0,82,82,125,1,MOOKY,LB,old,z,./images/MOOKYLB.png,,,,,,,,,,,,,,,,,,,,,,,,,,,,,,,,,,,
,,,,,,,,,,,,,,,,,60ff3b4b49cf56250d170cc6,31,2022-02-12_16h55.29.177,lexical_decision_task_DD_L5,2021.2.3,Win32,61.61049843,,,,,,,,,,,0.6425,1,,,,,,,,,,,,,,m,1,0.6425,,,,,,,,0.02592594,-0.385185198,0,0,0,space,0,83,83,22,1,CLOWN,LB,old,m,./images/CLOWNLB.png,1.5136,,,,,,,,,,,,,,,,,,,,,,,,,,,,,,,,,,
,,,,,,,,,,,,,,,,,60ff3b4b49cf56250d170cc6,31,2022-02-12_16h55.29.177,lexical_decision_task_DD_L5,2021.2.3,Win32,61.61049843,,,,,,,,,,,0.7409,1,,,,,,,,,,,,,,z,1,0.7409,,,,,,,,0.02592594,-0.385185198,0,0,0,,0,84,84,140,1,DOVET,LB,old,z,./images/DOVETLB.png,,,,,,,,,,,,,,,,,,,,,,,,,,,,,,,,,,,
,,,,,,,,,,,,,,,,,60ff3b4b49cf56250d170cc6,31,2022-02-12_16h55.29.177,lexical_decision_task_DD_L5,2021.2.3,Win32,61.61049843,,,,,,,,,,,0.586,1,,,,,,,,,,,,,,z,1,0.586,,,,,,,,0.02592594,-0.385185198,0,0,0,,0,85,85,111,1,HOSSE,C,old,z,./images/HOSSE.png,,,,,,,,,,,,,,,,,,,,,,,,,,,,,,,,,,,
,,,,,,,,,,,,,,,,,60ff3b4b49cf56250d170cc6,31,2022-02-12_16h55.29.177,lexical_decision_task_DD_L5,2021.2.3,Win32,61.61049843,,,,,,,,,,,0.5088,1,,,,,,,,,,,,,,m,1,0.5088,,,,,,,,0.02592594,-0.385185198,0,0,0,,0,86,86,17,1,PARADE,C,old,m,./images/PARADE.png,,,,,,,,,,,,,,,,,,,,,,,,,,,,,,,,,,,
,,,,,,,,,,,,,,,,,60ff3b4b49cf56250d170cc6,31,2022-02-12_16h55.29.177,lexical_decision_task_DD_L5,2021.2.3,Win32,61.61049843,,,,,,,,,,,0.7705,0,,,,,,,,,,,,,,m,0,0.7705,,,,,,,,0.02592594,-0.385185198,0,0,0,,0,87,87,110,1,CRUNK,LB,old,z,./images/CRUNKLB.png,,,,,,,,,,,,,,,,,,,,,,,,,,,,,,,,,,,
,,,,,,,,,,,,,,,,,60ff3b4b49cf56250d170cc6,31,2022-02-12_16h55.29.177,lexical_decision_task_DD_L5,2021.2.3,Win32,61.61049843,,,,,,,,,,,0.6378,1,,,,,,,,,,,,,,z,1,0.6378,,,,,,,,0.02592594,-0.385185198,0,0,0,,0,88,88,138,1,PLICE,C,old,z,./images/PLICE.png,,,,,,,,,,,,,,,,,,,,,,,,,,,,,,,,,,,
,,,,,,,,,,,,,,,,,60ff3b4b49cf56250d170cc6,31,2022-02-12_16h55.29.177,lexical_decision_task_DD_L5,2021.2.3,Win32,61.61049843,,,,,,,,,,,0.6361,1,,,,,,,,,,,,,,m,1,0.6361,,,,,,,,0.02592594,-0.385185198,0,0,0,,0,89,89,43,1,STOOL,LB,old,m,./images/STOOLLB.png,,,,,,,,,,,,,,,,,,,,,,,,,,,,,,,,,,,
,,,,,,,,,,,,,,,,,60ff3b4b49cf56250d170cc6,31,2022-02-12_16h55.29.177,lexical_decision_task_DD_L5,2021.2.3,Win32,61.61049843,,,,,,,,,,,0.501,1,,,,,,,,,,,,,,z,1,0.501,,,,,,,,0.02592594,-0.385185198,0,0,0,,0,90,90,114,1,RIKES,C,old,z,./images/RIKES.png,,,,,,,,,,,,,,,,,,,,,,,,,,,,,,,,,,,
,,,,,,,,,,,,,,,,,60ff3b4b49cf56250d170cc6,31,2022-02-12_16h55.29.177,lexical_decision_task_DD_L5,2021.2.3,Win32,61.61049843,,,,,,,,,,,0.5508,1,,,,,,,,,,,,,,m,1,0.5508,,,,,,,,0.02592594,-0.385185198,0,0,0,,0,91,91,44,1,BASKET,C,old,m,./images/BASKET.png,,,,,,,,,,,,,,,,,,,,,,,,,,,,,,,,,,,
,,,,,,,,,,,,,,,,,60ff3b4b49cf56250d170cc6,31,2022-02-12_16h55.29.177,lexical_decision_task_DD_L5,2021.2.3,Win32,61.61049843,,,,,,,,,,,0.546,1,,,,,,,,,,,,,,z,1,0.546,,,,,,,,0.02592594,-0.385185198,0,0,0,,0,92,92,84,1,HAXES,C,old,z,./images/HAXES.png,,,,,,,,,,,,,,,,,,,,,,,,,,,,,,,,,,,
,,,,,,,,,,,,,,,,,60ff3b4b49cf56250d170cc6,31,2022-02-12_16h55.29.177,lexical_decision_task_DD_L5,2021.2.3,Win32,61.61049843,,,,,,,,,,,1.0823,1,,,,,,,,,,,,,,z,1,1.0823,,,,,,,,0.02592594,-0.385185198,0,0,0,,0,93,93,97,1,CHIDS,HB,old,z,./images/CHIDSHB.png,,,,,,,,,,,,,,,,,,,,,,,,,,,,,,,,,,,
,,,,,,,,,,,,,,,,,60ff3b4b49cf56250d170cc6,31,2022-02-12_16h55.29.177,lexical_decision_task_DD_L5,2021.2.3,Win32,61.61049843,,,,,,,,,,,1.4278,1,,,,,,,,,,,,,,m,1,1.4278,,,,,,,,0.02592594,-0.385185198,0,0,0,,0,94,94,36,1,BOILER,HB,old,m,./images/BOILERHB.png,,,,,,,,,,,,,,,,,,,,,,,,,,,,,,,,,,,
,,,,,,,,,,,,,,,,,60ff3b4b49cf56250d170cc6,31,2022-02-12_16h55.29.177,lexical_decision_task_DD_L5,2021.2.3,Win32,61.61049843,,,,,,,,,,,0.5567,1,,,,,,,,,,,,,,z,1,0.5567,,,,,,,,0.02592594,-0.385185198,0,0,0,,0,95,95,119,1,PAFER,LB,old,z,./images/PAFERLB.png,,,,,,,,,,,,,,,,,,,,,,,,,,,,,,,,,,,
,,,,,,,,,,,,,,,,,60ff3b4b49cf56250d170cc6,31,2022-02-12_16h55.29.177,lexical_decision_task_DD_L5,2021.2.3,Win32,61.61049843,,,,,,,,,,,0.571,1,,,,,,,,,,,,,,m,1,0.571,,,,,,,,0.02592594,-0.385185198,0,0,0,,0,96,96,11,1,MEDAL,C,old,m,./images/MEDAL.png,,,,,,,,,,,,,,,,,,,,,,,,,,,,,,,,,,,
,,,,,,,,,,,,,,,,,60ff3b4b49cf56250d170cc6,31,2022-02-12_16h55.29.177,lexical_decision_task_DD_L5,2021.2.3,Win32,61.61049843,,,,,,,,,,,0.472,1,,,,,,,,,,,,,,m,1,0.472,,,,,,,,0.02592594,-0.385185198,0,0,0,,0,97,97,5,1,BAMBOO,C,old,m,./images/BAMBOO.png,,,,,,,,,,,,,,,,,,,,,,,,,,,,,,,,,,,
,,,,,,,,,,,,,,,,,60ff3b4b49cf56250d170cc6,31,2022-02-12_16h55.29.177,lexical_decision_task_DD_L5,2021.2.3,Win32,61.61049843,,,,,,,,,,,1.354,1,,,,,,,,,,,,,,m,1,1.354,,,,,,,,0.02592594,-0.385185198,0,0,0,,0,98,98,33,1,SAUNA,HB,old,m,./images/SAUNAHB.png,,,,,,,,,,,,,,,,,,,,,,,,,,,,,,,,,,,
,,,,,,,,,,,,,,,,,60ff3b4b49cf56250d170cc6,31,2022-02-12_16h55.29.177,lexical_decision_task_DD_L5,2021.2.3,Win32,61.61049843,,,,,,,,,,,0.5934,1,,,,,,,,,,,,,,z,1,0.5934,,,,,,,,0.02592594,-0.385185198,0,0,0,,0,99,99,164,1,SGREW,LB,old,z,./images/SGREWLB.png,,,,,,,,,,,,,,,,,,,,,,,,,,,,,,,,,,,
,,,,,,,,,,,,,,,,,60ff3b4b49cf56250d170cc6,31,2022-02-12_16h55.29.177,lexical_decision_task_DD_L5,2021.2.3,Win32,61.61049843,,,,,,,,,,,0.9969,0,,,,,,,,,,,,,,m,0,0.9969,,,,,,,,0.02592594,-0.385185198,0,0,0,,0,100,100,142,1,PLASK,HB,old,z,./images/PLASKHB.png,,,,,,,,,,,,,,,,,,,,,,,,,,,,,,,,,,,
,,,,,,,,,,,,,,,,,60ff3b4b49cf56250d170cc6,31,2022-02-12_16h55.29.177,lexical_decision_task_DD_L5,2021.2.3,Win32,61.61049843,,,,,,,,,,,0.7113,1,,,,,,,,,,,,,,z,1,0.7113,,,,,,,,0.02592594,-0.385185198,0,0,0,,0,101,101,153,1,CLUPS,C,old,z,./images/CLUPS.png,,,,,,,,,,,,,,,,,,,,,,,,,,,,,,,,,,,
,,,,,,,,,,,,,,,,,60ff3b4b49cf56250d170cc6,31,2022-02-12_16h55.29.177,lexical_decision_task_DD_L5,2021.2.3,Win32,61.61049843,,,,,,,,,,,0.9379,1,,,,,,,,,,,,,,z,1,0.9379,,,,,,,,0.02592594,-0.385185198,0,0,0,,0,102,102,107,1,FASKS,LB,old,z,./images/FASKSLB.png,,,,,,,,,,,,,,,,,,,,,,,,,,,,,,,,,,,
,,,,,,,,,,,,,,,,,60ff3b4b49cf56250d170cc6,31,2022-02-12_16h55.29.177,lexical_decision_task_DD_L5,2021.2.3,Win32,61.61049843,,,,,,,,,,,0.5609,1,,,,,,,,,,,,,,m,1,0.5609,,,,,,,,0.02592594,-0.385185198,0,0,0,,0,103,103,82,1,PEBBLE,LB,old,m,./images/PEBBLELB.png,,,,,,,,,,,,,,,,,,,,,,,,,,,,,,,,,,,
,,,,,,,,,,,,,,,,,60ff3b4b49cf56250d170cc6,31,2022-02-12_16h55.29.177,lexical_decision_task_DD_L5,2021.2.3,Win32,61.61049843,,,,,,,,,,,0.6965,1,,,,,,,,,,,,,,m,1,0.6965,,,,,,,,0.02592594,-0.385185198,0,0,0,,0,104,104,73,1,GLOVE,LB,old,m,./images/GLOVELB.png,,,,,,,,,,,,,,,,,,,,,,,,,,,,,,,,,,,
,,,,,,,,,,,,,,,,,60ff3b4b49cf56250d170cc6,31,2022-02-12_16h55.29.177,lexical_decision_task_DD_L5,2021.2.3,Win32,61.61049843,,,,,,,,,,,0.8097,1,,,,,,,,,,,,,,m,1,0.8097,,,,,,,,0.02592594,-0.385185198,0,0,0,,0,105,105,13,1,BUNNY,LB,old,m,./images/BUNNYLB.png,,,,,,,,,,,,,,,,,,,,,,,,,,,,,,,,,,,
,,,,,,,,,,,,,,,,,60ff3b4b49cf56250d170cc6,31,2022-02-12_16h55.29.177,lexical_decision_task_DD_L5,2021.2.3,Win32,61.61049843,,,,,,,,,,,0.5412,1,,,,,,,,,,,,,,m,1,0.5412,,,,,,,,0.02592594,-0.385185198,0,0,0,,0,106,106,34,1,RAZOR,LB,old,m,./images/RAZORLB.png,,,,,,,,,,,,,,,,,,,,,,,,,,,,,,,,,,,
,,,,,,,,,,,,,,,,,60ff3b4b49cf56250d170cc6,31,2022-02-12_16h55.29.177,lexical_decision_task_DD_L5,2021.2.3,Win32,61.61049843,,,,,,,,,,,0.5638,1,,,,,,,,,,,,,,z,1,0.5638,,,,,,,,0.02592594,-0.385185198,0,0,0,,0,107,107,86,1,AIFED,LB,old,z,./images/AIFEDLB.png,,,,,,,,,,,,,,,,,,,,,,,,,,,,,,,,,,,
,,,,,,,,,,,,,,,,,60ff3b4b49cf56250d170cc6,31,2022-02-12_16h55.29.177,lexical_decision_task_DD_L5,2021.2.3,Win32,61.61049843,,,,,,,,,,,0.5554,1,,,,,,,,,,,,,,z,1,0.5554,,,,,,,,0.02592594,-0.385185198,0,0,0,,0,108,108,150,1,NOOLS,C,old,z,./images/NOOLS.png,,,,,,,,,,,,,,,,,,,,,,,,,,,,,,,,,,,
,,,,,,,,,,,,,,,,,60ff3b4b49cf56250d170cc6,31,2022-02-12_16h55.29.177,lexical_decision_task_DD_L5,2021.2.3,Win32,61.61049843,,,,,,,,,,,0.5685,1,,,,,,,,,,,,,,z,1,0.5685,,,,,,,,0.02592594,-0.385185198,0,0,0,,0,109,109,132,1,SCIFF,C,old,z,./images/SCIFF.png,,,,,,,,,,,,,,,,,,,,,,,,,,,,,,,,,,,
,,,,,,,,,,,,,,,,,60ff3b4b49cf56250d170cc6,31,2022-02-12_16h55.29.177,lexical_decision_task_DD_L5,2021.2.3,Win32,61.61049843,,,,,,,,,,,0.6432,1,,,,,,,,,,,,,,z,1,0.6432,,,,,,,,0.02592594,-0.385185198,0,0,0,,0,110,110,146,1,MOOST,LB,old,z,./images/MOOSTLB.png,,,,,,,,,,,,,,,,,,,,,,,,,,,,,,,,,,,
,,,,,,,,,,,,,,,,,60ff3b4b49cf56250d170cc6,31,2022-02-12_16h55.29.177,lexical_decision_task_DD_L5,2021.2.3,Win32,61.61049843,,,,,,,,,,,0.7619,1,,,,,,,,,,,,,,m,1,0.7619,,,,,,,,0.02592594,-0.385185198,0,0,0,,0,111,111,56,1,HEATER,C,old,m,./images/HEATER.png,,,,,,,,,,,,,,,,,,,,,,,,,,,,,,,,,,,
,,,,,,,,,,,,,,,,,60ff3b4b49cf56250d170cc6,31,2022-02-12_16h55.29.177,lexical_decision_task_DD_L5,2021.2.3,Win32,61.61049843,,,,,,,,,,,0.5887,1,,,,,,,,,,,,,,z,1,0.5887,,,,,,,,0.02592594,-0.385185198,0,0,0,,0,112,112,98,1,BAMPS,LB,old,z,./images/BAMPSLB.png,,,,,,,,,,,,,,,,,,,,,,,,,,,,,,,,,,,
,,,,,,,,,,,,,,,,,60ff3b4b49cf56250d170cc6,31,2022-02-12_16h55.29.177,lexical_decision_task_DD_L5,2021.2.3,Win32,61.61049843,,,,,,,,,,,1.0054,1,,,,,,,,,,,,,,m,1,1.0054,,,,,,,,0.02592594,-0.385185198,0,0,0,,0,113,113,48,1,SHIELD,HB,old,m,./images/SHIELDHB.png,,,,,,,,,,,,,,,,,,,,,,,,,,,,,,,,,,,
,,,,,,,,,,,,,,,,,60ff3b4b49cf56250d170cc6,31,2022-02-12_16h55.29.177,lexical_decision_task_DD_L5,2021.2.3,Win32,61.61049843,,,,,,,,,,,0.498,1,,,,,,,,,,,,,,z,1,0.498,,,,,,,,0.02592594,-0.385185198,0,0,0,,0,114,114,141,1,PLEET,C,old,z,./images/PLEET.png,,,,,,,,,,,,,,,,,,,,,,,,,,,,,,,,,,,
,,,,,,,,,,,,,,,,,60ff3b4b49cf56250d170cc6,31,2022-02-12_16h55.29.177,lexical_decision_task_DD_L5,2021.2.3,Win32,61.61049843,,,,,,,,,,,1.0638,1,,,,,,,,,,,,,,m,1,1.0638,,,,,,,,0.02592594,-0.385185198,0,0,0,,0,115,115,45,1,MONKEY,HB,old,m,./images/MONKEYHB.png,,,,,,,,,,,,,,,,,,,,,,,,,,,,,,,,,,,
,,,,,,,,,,,,,,,,,60ff3b4b49cf56250d170cc6,31,2022-02-12_16h55.29.177,lexical_decision_task_DD_L5,2021.2.3,Win32,61.61049843,,,,,,,,,,,0.5666,1,,,,,,,,,,,,,,m,1,0.5666,,,,,,,,0.02592594,-0.385185198,0,0,0,,0,116,116,74,1,JUMPER,C,old,m,./images/JUMPER.png,,,,,,,,,,,,,,,,,,,,,,,,,,,,,,,,,,,
,,,,,,,,,,,,,,,,,60ff3b4b49cf56250d170cc6,31,2022-02-12_16h55.29.177,lexical_decision_task_DD_L5,2021.2.3,Win32,61.61049843,,,,,,,,,,,0.5784,1,,,,,,,,,,,,,,z,1,0.5784,,,,,,,,0.02592594,-0.385185198,0,0,0,,0,117,117,167,1,ZONET,LB,old,z,./images/ZONETLB.png,,,,,,,,,,,,,,,,,,,,,,,,,,,,,,,,,,,
,,,,,,,,,,,,,,,,,60ff3b4b49cf56250d170cc6,31,2022-02-12_16h55.29.177,lexical_decision_task_DD_L5,2021.2.3,Win32,61.61049843,,,,,,,,,,,0.7106,1,,,,,,,,,,,,,,m,1,0.7106,,,,,,,,0.02592594,-0.385185198,0,0,0,,0,118,118,60,1,CURRY,HB,old,m,./images/CURRYHB.png,,,,,,,,,,,,,,,,,,,,,,,,,,,,,,,,,,,
,,,,,,,,,,,,,,,,,60ff3b4b49cf56250d170cc6,31,2022-02-12_16h55.29.177,lexical_decision_task_DD_L5,2021.2.3,Win32,61.61049843,,,,,,,,,,,0.5284,1,,,,,,,,,,,,,,m,1,0.5284,,,,,,,,0.02592594,-0.385185198,0,0,0,,0,119,119,23,1,CLOTH,C,old,m,./images/CLOTH.png,,,,,,,,,,,,,,,,,,,,,,,,,,,,,,,,,,,
,,,,,,,,,,,,,,,,,60ff3b4b49cf56250d170cc6,31,2022-02-12_16h55.29.177,lexical_decision_task_DD_L5,2021.2.3,Win32,61.61049843,,,,,,,,,,,1.3984,1,,,,,,,,,,,,,,m,1,1.3984,,,,,,,,0.02592594,-0.385185198,0,0,0,,0,120,120,18,1,PARCEL,HB,old,m,./images/PARCELHB.png,,,,,,,,,,,,,,,,,,,,,,,,,,,,,,,,,,,
,,,,,,,,,,,,,,,,,60ff3b4b49cf56250d170cc6,31,2022-02-12_16h55.29.177,lexical_decision_task_DD_L5,2021.2.3,Win32,61.61049843,,,,,,,,,,,0.5906,1,,,,,,,,,,,,,,z,1,0.5906,,,,,,,,0.02592594,-0.385185198,0,0,0,,0,121,121,95,1,HANTY,LB,old,z,./images/HANTYLB.png,,,,,,,,,,,,,,,,,,,,,,,,,,,,,,,,,,,
,,,,,,,,,,,,,,,,,60ff3b4b49cf56250d170cc6,31,2022-02-12_16h55.29.177,lexical_decision_task_DD_L5,2021.2.3,Win32,61.61049843,,,,,,,,,,,0.6524,1,,,,,,,,,,,,,,z,1,0.6524,,,,,,,,0.02592594,-0.385185198,0,0,0,,0,122,122,129,1,PRANS,C,old,z,./images/PRANS.png,,,,,,,,,,,,,,,,,,,,,,,,,,,,,,,,,,,
,,,,,,,,,,,,,,,,,60ff3b4b49cf56250d170cc6,31,2022-02-12_16h55.29.177,lexical_decision_task_DD_L5,2021.2.3,Win32,61.61049843,,,,,,,,,,,1.0434,1,,,,,,,,,,,,,,z,1,1.0434,,,,,,,,0.02592594,-0.385185198,0,0,0,,0,123,123,151,1,TINKY,HB,old,z,./images/TINKYHB.png,,,,,,,,,,,,,,,,,,,,,,,,,,,,,,,,,,,
,,,,,,,,,,,,,,,,,60ff3b4b49cf56250d170cc6,31,2022-02-12_16h55.29.177,lexical_decision_task_DD_L5,2021.2.3,Win32,61.61049843,,,,,,,,,,,0.5643,1,,,,,,,,,,,,,,z,1,0.5643,,,,,,,,0.02592594,-0.385185198,0,0,0,,0,124,124,117,1,STEEG,C,old,z,./images/STEEG.png,,,,,,,,,,,,,,,,,,,,,,,,,,,,,,,,,,,
,,,,,,,,,,,,,,,,,60ff3b4b49cf56250d170cc6,31,2022-02-12_16h55.29.177,lexical_decision_task_DD_L5,2021.2.3,Win32,61.61049843,,,,,,,,,,,1.4507,0,,,,,,,,,,,,,,z,0,1.4507,,,,,,,,0.02592594,-0.385185198,0,0,0,space,0,125,125,3,1,CRATER,HB,old,m,./images/CRATERHB.png,3.4502,,,,,,,,,,,,,,,,,,,,,,,,,,,,,,,,,,
,,,,,,,,,,,,,,,,,60ff3b4b49cf56250d170cc6,31,2022-02-12_16h55.29.177,lexical_decision_task_DD_L5,2021.2.3,Win32,61.61049843,,,,,,,,,,,0.7257,1,,,,,,,,,,,,,,z,1,0.7257,,,,,,,,0.02592594,-0.385185198,0,0,0,,0,126,126,122,1,BLOOT,LB,old,z,./images/BLOOTLB.png,,,,,,,,,,,,,,,,,,,,,,,,,,,,,,,,,,,
,,,,,,,,,,,,,,,,,60ff3b4b49cf56250d170cc6,31,2022-02-12_16h55.29.177,lexical_decision_task_DD_L5,2021.2.3,Win32,61.61049843,,,,,,,,,,,0.5407,1,,,,,,,,,,,,,,z,1,0.5407,,,,,,,,0.02592594,-0.385185198,0,0,0,,0,127,127,135,1,JOODY,C,old,z,./images/JOODY.png,,,,,,,,,,,,,,,,,,,,,,,,,,,,,,,,,,,
,,,,,,,,,,,,,,,,,60ff3b4b49cf56250d170cc6,31,2022-02-12_16h55.29.177,lexical_decision_task_DD_L5,2021.2.3,Win32,61.61049843,,,,,,,,,,,0.9551,1,,,,,,,,,,,,,,m,1,0.9551,,,,,,,,0.02592594,-0.385185198,0,0,0,,0,128,128,21,1,DANCER,HB,old,m,./images/DANCERHB.png,,,,,,,,,,,,,,,,,,,,,,,,,,,,,,,,,,,
,,,,,,,,,,,,,,,,,60ff3b4b49cf56250d170cc6,31,2022-02-12_16h55.29.177,lexical_decision_task_DD_L5,2021.2.3,Win32,61.61049843,,,,,,,,,,,0.9072,1,,,,,,,,,,,,,,m,1,0.9072,,,,,,,,0.02592594,-0.385185198,0,0,0,,0,129,129,75,1,HAMMER,HB,old,m,./images/HAMMERHB.png,,,,,,,,,,,,,,,,,,,,,,,,,,,,,,,,,,,
,,,,,,,,,,,,,,,,,60ff3b4b49cf56250d170cc6,31,2022-02-12_16h55.29.177,lexical_decision_task_DD_L5,2021.2.3,Win32,61.61049843,,,,,,,,,,,0.9768,1,,,,,,,,,,,,,,z,1,0.9768,,,,,,,,0.02592594,-0.385185198,0,0,0,,0,130,130,91,1,SHENS,HB,old,z,./images/SHENSHB.png,,,,,,,,,,,,,,,,,,,,,,,,,,,,,,,,,,,
,,,,,,,,,,,,,,,,,60ff3b4b49cf56250d170cc6,31,2022-02-12_16h55.29.177,lexical_decision_task_DD_L5,2021.2.3,Win32,61.61049843,,,,,,,,,,,0.8765,1,,,,,,,,,,,,,,m,1,0.8765,,,,,,,,0.02592594,-0.385185198,0,0,0,,0,131,131,9,1,DIVER,HB,old,m,./images/DIVERHB.png,,,,,,,,,,,,,,,,,,,,,,,,,,,,,,,,,,,
,,,,,,,,,,,,,,,,,60ff3b4b49cf56250d170cc6,31,2022-02-12_16h55.29.177,lexical_decision_task_DD_L5,2021.2.3,Win32,61.61049843,,,,,,,,,,,0.5832,1,,,,,,,,,,,,,,m,1,0.5832,,,,,,,,0.02592594,-0.385185198,0,0,0,,0,132,132,69,1,ARROW,HB,old,m,./images/ARROWHB.png,,,,,,,,,,,,,,,,,,,,,,,,,,,,,,,,,,,
,,,,,,,,,,,,,,,,,60ff3b4b49cf56250d170cc6,31,2022-02-12_16h55.29.177,lexical_decision_task_DD_L5,2021.2.3,Win32,61.61049843,,,,,,,,,,,1.345,1,,,,,,,,,,,,,,z,1,1.345,,,,,,,,0.02592594,-0.385185198,0,0,0,,0,133,133,145,1,LAMEL,HB,old,z,./images/LAMELHB.png,,,,,,,,,,,,,,,,,,,,,,,,,,,,,,,,,,,
,,,,,,,,,,,,,,,,,60ff3b4b49cf56250d170cc6,31,2022-02-12_16h55.29.177,lexical_decision_task_DD_L5,2021.2.3,Win32,61.61049843,,,,,,,,,,,0.5235,1,,,,,,,,,,,,,,m,1,0.5235,,,,,,,,0.02592594,-0.385185198,0,0,0,,0,134,134,10,1,GARDEN,LB,old,m,./images/GARDENLB.png,,,,,,,,,,,,,,,,,,,,,,,,,,,,,,,,,,,
,,,,,,,,,,,,,,,,,60ff3b4b49cf56250d170cc6,31,2022-02-12_16h55.29.177,lexical_decision_task_DD_L5,2021.2.3,Win32,61.61049843,,,,,,,,,,,1.5562,1,,,,,,,,,,,,,,z,1,1.5562,,,,,,,,0.02592594,-0.385185198,0,0,0,,0,135,135,163,1,GAMBA,HB,old,z,./images/GAMBAHB.png,,,,,,,,,,,,,,,,,,,,,,,,,,,,,,,,,,,
,,,,,,,,,,,,,,,,,60ff3b4b49cf56250d170cc6,31,2022-02-12_16h55.29.177,lexical_decision_task_DD_L5,2021.2.3,Win32,61.61049843,,,,,,,,,,,0.68,1,,,,,,,,,,,,,,m,1,0.68,,,,,,,,0.02592594,-0.385185198,0,0,0,,0,136,136,35,1,LLAMA,C,old,m,./images/LLAMA.png,,,,,,,,,,,,,,,,,,,,,,,,,,,,,,,,,,,
,,,,,,,,,,,,,,,,,60ff3b4b49cf56250d170cc6,31,2022-02-12_16h55.29.177,lexical_decision_task_DD_L5,2021.2.3,Win32,61.61049843,,,,,,,,,,,0.4899,1,,,,,,,,,,,,,,m,1,0.4899,,,,,,,,0.02592594,-0.385185198,0,0,0,,0,137,137,50,1,PILOT,C,old,m,./images/PILOT.png,,,,,,,,,,,,,,,,,,,,,,,,,,,,,,,,,,,
,,,,,,,,,,,,,,,,,60ff3b4b49cf56250d170cc6,31,2022-02-12_16h55.29.177,lexical_decision_task_DD_L5,2021.2.3,Win32,61.61049843,,,,,,,,,,,0.8432,1,,,,,,,,,,,,,,m,1,0.8432,,,,,,,,0.02592594,-0.385185198,0,0,0,,0,138,138,30,1,SLOPE,HB,old,m,./images/SLOPEHB.png,,,,,,,,,,,,,,,,,,,,,,,,,,,,,,,,,,,
,,,,,,,,,,,,,,,,,60ff3b4b49cf56250d170cc6,31,2022-02-12_16h55.29.177,lexical_decision_task_DD_L5,2021.2.3,Win32,61.61049843,,,,,,,,,,,0.5125,1,,,,,,,,,,,,,,m,1,0.5125,,,,,,,,0.02592594,-0.385185198,0,0,0,,0,139,139,20,1,GRANNY,C,old,m,./images/GRANNY.png,,,,,,,,,,,,,,,,,,,,,,,,,,,,,,,,,,,
,,,,,,,,,,,,,,,,,60ff3b4b49cf56250d170cc6,31,2022-02-12_16h55.29.177,lexical_decision_task_DD_L5,2021.2.3,Win32,61.61049843,,,,,,,,,,,0.7693,1,,,,,,,,,,,,,,z,1,0.7693,,,,,,,,0.02592594,-0.385185198,0,0,0,,0,140,140,144,1,NAIRY,C,old,z,./images/NAIRY.png,,,,,,,,,,,,,,,,,,,,,,,,,,,,,,,,,,,
,,,,,,,,,,,,,,,,,60ff3b4b49cf56250d170cc6,31,2022-02-12_16h55.29.177,lexical_decision_task_DD_L5,2021.2.3,Win32,61.61049843,,,,,,,,,,,0.4958,1,,,,,,,,,,,,,,m,1,0.4958,,,,,,,,0.02592594,-0.385185198,0,0,0,,0,141,141,59,1,BRUSH,C,old,m,./images/BRUSH.png,,,,,,,,,,,,,,,,,,,,,,,,,,,,,,,,,,,
,,,,,,,,,,,,,,,,,60ff3b4b49cf56250d170cc6,31,2022-02-12_16h55.29.177,lexical_decision_task_DD_L5,2021.2.3,Win32,61.61049843,,,,,,,,,,,0.5176,1,,,,,,,,,,,,,,m,1,0.5176,,,,,,,,0.02592594,-0.385185198,0,0,0,,0,142,142,31,1,STEAK,LB,old,m,./images/STEAKLB.png,,,,,,,,,,,,,,,,,,,,,,,,,,,,,,,,,,,
,,,,,,,,,,,,,,,,,60ff3b4b49cf56250d170cc6,31,2022-02-12_16h55.29.177,lexical_decision_task_DD_L5,2021.2.3,Win32,61.61049843,,,,,,,,,,,0.5969,1,,,,,,,,,,,,,,z,1,0.5969,,,,,,,,0.02592594,-0.385185198,0,0,0,,0,143,143,149,1,VEASE,LB,old,z,./images/VEASELB.png,,,,,,,,,,,,,,,,,,,,,,,,,,,,,,,,,,,
,,,,,,,,,,,,,,,,,60ff3b4b49cf56250d170cc6,31,2022-02-12_16h55.29.177,lexical_decision_task_DD_L5,2021.2.3,Win32,61.61049843,,,,,,,,,,,0.5715,1,,,,,,,,,,,,,,m,1,0.5715,,,,,,,,0.02592594,-0.385185198,0,0,0,,0,144,144,53,1,POSTER,C,old,m,./images/POSTER.png,,,,,,,,,,,,,,,,,,,,,,,,,,,,,,,,,,,
,,,,,,,,,,,,,,,,,60ff3b4b49cf56250d170cc6,31,2022-02-12_16h55.29.177,lexical_decision_task_DD_L5,2021.2.3,Win32,61.61049843,,,,,,,,,,,0.8624,1,,,,,,,,,,,,,,z,1,0.8624,,,,,,,,0.02592594,-0.385185198,0,0,0,,0,145,145,136,1,WERVE,HB,old,z,./images/WERVEHB.png,,,,,,,,,,,,,,,,,,,,,,,,,,,,,,,,,,,
,,,,,,,,,,,,,,,,,60ff3b4b49cf56250d170cc6,31,2022-02-12_16h55.29.177,lexical_decision_task_DD_L5,2021.2.3,Win32,61.61049843,,,,,,,,,,,1.4759,1,,,,,,,,,,,,,,z,1,1.4759,,,,,,,,0.02592594,-0.385185198,0,0,0,,0,146,146,154,1,THINT,HB,old,z,./images/THINTHB.png,,,,,,,,,,,,,,,,,,,,,,,,,,,,,,,,,,,
,,,,,,,,,,,,,,,,,60ff3b4b49cf56250d170cc6,31,2022-02-12_16h55.29.177,lexical_decision_task_DD_L5,2021.2.3,Win32,61.61049843,,,,,,,,,,,0.9952,1,,,,,,,,,,,,,,z,1,0.9952,,,,,,,,0.02592594,-0.385185198,0,0,0,,0,147,147,118,1,BAVEL,HB,old,z,./images/BAVELHB.png,,,,,,,,,,,,,,,,,,,,,,,,,,,,,,,,,,,
,,,,,,,,,,,,,,,,,60ff3b4b49cf56250d170cc6,31,2022-02-12_16h55.29.177,lexical_decision_task_DD_L5,2021.2.3,Win32,61.61049843,,,,,,,,,,,0.6306,1,,,,,,,,,,,,,,z,1,0.6306,,,,,,,,0.02592594,-0.385185198,0,0,0,,0,148,148,152,1,FRAIN,LB,old,z,./images/FRAINLB.png,,,,,,,,,,,,,,,,,,,,,,,,,,,,,,,,,,,
,,,,,,,,,,,,,,,,,60ff3b4b49cf56250d170cc6,31,2022-02-12_16h55.29.177,lexical_decision_task_DD_L5,2021.2.3,Win32,61.61049843,,,,,,,,,,,0.5964,1,,,,,,,,,,,,,,z,1,0.5964,,,,,,,,0.02592594,-0.385185198,0,0,0,,0,149,149,105,1,MOKER,C,old,z,./images/MOKER.png,,,,,,,,,,,,,,,,,,,,,,,,,,,,,,,,,,,
,,,,,,,,,,,,,,,,,60ff3b4b49cf56250d170cc6,31,2022-02-12_16h55.29.177,lexical_decision_task_DD_L5,2021.2.3,Win32,61.61049843,,,,,,,,,,,0.5714,1,,,,,,,,,,,,,,m,1,0.5714,,,,,,,,0.02592594,-0.385185198,0,0,0,,0,150,150,55,1,ALLEY,LB,old,m,./images/ALLEYLB.png,,,,,,,,,,,,,,,,,,,,,,,,,,,,,,,,,,,
,,,,,,,,,,,,,,,,,60ff3b4b49cf56250d170cc6,31,2022-02-12_16h55.29.177,lexical_decision_task_DD_L5,2021.2.3,Win32,61.61049843,,,,,,,,,,,0.4833,1,,,,,,,,,,,,,,m,1,0.4833,,,,,,,,0.02592594,-0.385185198,0,0,0,,0,151,151,77,1,WHEEL,C,old,m,./images/WHEEL.png,,,,,,,,,,,,,,,,,,,,,,,,,,,,,,,,,,,
,,,,,,,,,,,,,,,,,60ff3b4b49cf56250d170cc6,31,2022-02-12_16h55.29.177,lexical_decision_task_DD_L5,2021.2.3,Win32,61.61049843,,,,,,,,,,,0.5786,1,,,,,,,,,,,,,,m,1,0.5786,,,,,,,,0.02592594,-0.385185198,0,0,0,,0,152,152,42,1,CHAIN,HB,old,m,./images/CHAINHB.png,,,,,,,,,,,,,,,,,,,,,,,,,,,,,,,,,,,
,,,,,,,,,,,,,,,,,60ff3b4b49cf56250d170cc6,31,2022-02-12_16h55.29.177,lexical_decision_task_DD_L5,2021.2.3,Win32,61.61049843,,,,,,,,,,,0.6395,0,,,,,,,,,,,,,,m,0,0.6395,,,,,,,,0.02592594,-0.385185198,0,0,0,,0,153,153,121,1,CEERS,HB,old,z,./images/CEERSHB.png,,,,,,,,,,,,,,,,,,,,,,,,,,,,,,,,,,,
,,,,,,,,,,,,,,,,,60ff3b4b49cf56250d170cc6,31,2022-02-12_16h55.29.177,lexical_decision_task_DD_L5,2021.2.3,Win32,61.61049843,,,,,,,,,,,0.6654,1,,,,,,,,,,,,,,m,1,0.6654,,,,,,,,0.02592594,-0.385185198,0,0,0,,0,154,154,66,1,STATUE,HB,old,m,./images/STATUEHB.png,,,,,,,,,,,,,,,,,,,,,,,,,,,,,,,,,,,
,,,,,,,,,,,,,,,,,60ff3b4b49cf56250d170cc6,31,2022-02-12_16h55.29.177,lexical_decision_task_DD_L5,2021.2.3,Win32,61.61049843,,,,,,,,,,,0.5345,1,,,,,,,,,,,,,,z,1,0.5345,,,,,,,,0.02592594,-0.385185198,0,0,0,,0,155,155,96,1,KEAMS,C,old,z,./images/KEAMS.png,,,,,,,,,,,,,,,,,,,,,,,,,,,,,,,,,,,
,,,,,,,,,,,,,,,,,60ff3b4b49cf56250d170cc6,31,2022-02-12_16h55.29.177,lexical_decision_task_DD_L5,2021.2.3,Win32,61.61049843,,,,,,,,,,,0.4752,1,,,,,,,,,,,,,,z,1,0.4752,,,,,,,,0.02592594,-0.385185198,0,0,0,,0,156,156,102,1,DULLE,C,old,z,./images/DULLE.png,,,,,,,,,,,,,,,,,,,,,,,,,,,,,,,,,,,
,,,,,,,,,,,,,,,,,60ff3b4b49cf56250d170cc6,31,2022-02-12_16h55.29.177,lexical_decision_task_DD_L5,2021.2.3,Win32,61.61049843,,,,,,,,,,,0.6754,1,,,,,,,,,,,,,,z,1,0.6754,,,,,,,,0.02592594,-0.385185198,0,0,0,,0,157,157,104,1,GITTY,LB,old,z,./images/GITTYLB.png,,,,,,,,,,,,,,,,,,,,,,,,,,,,,,,,,,,
,,,,,,,,,,,,,,,,,60ff3b4b49cf56250d170cc6,31,2022-02-12_16h55.29.177,lexical_decision_task_DD_L5,2021.2.3,Win32,61.61049843,,,,,,,,,,,0.5369,1,,,,,,,,,,,,,,m,1,0.5369,,,,,,,,0.02592594,-0.385185198,0,0,0,,0,158,158,28,1,CASINO,LB,old,m,./images/CASINOLB.png,,,,,,,,,,,,,,,,,,,,,,,,,,,,,,,,,,,
,,,,,,,,,,,,,,,,,60ff3b4b49cf56250d170cc6,31,2022-02-12_16h55.29.177,lexical_decision_task_DD_L5,2021.2.3,Win32,61.61049843,,,,,,,,,,,0.5649,1,,,,,,,,,,,,,,z,1,0.5649,,,,,,,,0.02592594,-0.385185198,0,0,0,,0,159,159,116,1,BALGY,LB,old,z,./images/BALGYLB.png,,,,,,,,,,,,,,,,,,,,,,,,,,,,,,,,,,,
,,,,,,,,,,,,,,,,,60ff3b4b49cf56250d170cc6,31,2022-02-12_16h55.29.177,lexical_decision_task_DD_L5,2021.2.3,Win32,61.61049843,,,,,,,,,,,0.6104,1,,,,,,,,,,,,,,m,1,0.6104,,,,,,,,0.02592594,-0.385185198,0,0,0,,0,160,160,76,1,MIDGET,LB,old,m,./images/MIDGETLB.png,,,,,,,,,,,,,,,,,,,,,,,,,,,,,,,,,,,
,,,,,,,,,,,,,,,,,60ff3b4b49cf56250d170cc6,31,2022-02-12_16h55.29.177,lexical_decision_task_DD_L5,2021.2.3,Win32,61.61049843,,,,,,,,,,,1.1817,1,,,,,,,,,,,,,,z,1,1.1817,,,,,,,,0.02592594,-0.385185198,0,0,0,,0,161,161,115,1,MAWNS,HB,old,z,./images/MAWNSHB.png,,,,,,,,,,,,,,,,,,,,,,,,,,,,,,,,,,,
,,,,,,,,,,,,,,,,,60ff3b4b49cf56250d170cc6,31,2022-02-12_16h55.29.177,lexical_decision_task_DD_L5,2021.2.3,Win32,61.61049843,,,,,,,,,,,0.5297,1,,,,,,,,,,,,,,z,1,0.5297,,,,,,,,0.02592594,-0.385185198,0,0,0,,0,162,162,120,1,RINED,C,old,z,./images/RINED.png,,,,,,,,,,,,,,,,,,,,,,,,,,,,,,,,,,,
,,,,,,,,,,,,,,,,,60ff3b4b49cf56250d170cc6,31,2022-02-12_16h55.29.177,lexical_decision_task_DD_L5,2021.2.3,Win32,61.61049843,,,,,,,,,,,0.5338,1,,,,,,,,,,,,,,m,1,0.5338,,,,,,,,0.02592594,-0.385185198,0,0,0,,0,163,163,4,1,BOXER,LB,old,m,./images/BOXERLB.png,,,,,,,,,,,,,,,,,,,,,,,,,,,,,,,,,,,
,,,,,,,,,,,,,,,,,60ff3b4b49cf56250d170cc6,31,2022-02-12_16h55.29.177,lexical_decision_task_DD_L5,2021.2.3,Win32,61.61049843,,,,,,,,,,,0.7338,1,,,,,,,,,,,,,,z,1,0.7338,,,,,,,,0.02592594,-0.385185198,0,0,0,,0,164,164,106,1,CLUMS,HB,old,z,./images/CLUMSHB.png,,,,,,,,,,,,,,,,,,,,,,,,,,,,,,,,,,,
,,,,,,,,,,,,,,,,,60ff3b4b49cf56250d170cc6,31,2022-02-12_16h55.29.177,lexical_decision_task_DD_L5,2021.2.3,Win32,61.61049843,,,,,,,,,,,0.5773,1,,,,,,,,,,,,,,m,1,0.5773,,,,,,,,0.02592594,-0.385185198,0,0,0,,0,165,165,79,1,RULER,LB,old,m,./images/RULERLB.png,,,,,,,,,,,,,,,,,,,,,,,,,,,,,,,,,,,
,,,,,,,,,,,,,,,,,60ff3b4b49cf56250d170cc6,31,2022-02-12_16h55.29.177,lexical_decision_task_DD_L5,2021.2.3,Win32,61.61049843,,,,,,,,,,,0.5549,1,,,,,,,,,,,,,,m,1,0.5549,,,,,,,,0.02592594,-0.385185198,0,0,0,,0,166,166,37,1,TIGER,LB,old,m,./images/TIGERLB.png,,,,,,,,,,,,,,,,,,,,,,,,,,,,,,,,,,,
,,,,,,,,,,,,,,,,,60ff3b4b49cf56250d170cc6,31,2022-02-12_16h55.29.177,lexical_decision_task_DD_L5,2021.2.3,Win32,61.61049843,,,,,,,,,,,1.2936,1,,,,,,,,,,,,,,z,1,1.2936,,,,,,,,0.02592594,-0.385185198,0,0,0,,0,167,167,133,1,POWDY,HB,old,z,./images/POWDYHB.png,,,,,,,,,,,,,,,,,,,,,,,,,,,,,,,,,,,
,,,,,,,,,,,,,,,,,60ff3b4b49cf56250d170cc6,31,2022-02-12_16h55.29.177,lexical_decision_task_DD_L5,2021.2.3,Win32,61.61049843,,,,,,,,,,,,,,,,,,,,,,,,,,,,,,,,,,,,,,,,,,,,,,,,How likely will it be that you will recognize the words presented slighly blurred on a scale of 0 (not likely) to 100 (most likely)?,,,,,-0.003703691,-0.414814828,1,0,0,jol_adv,6,6.506,0,0,0,1,1,,,,,,,,,,,,,,,,,,,,,
,,,,,,,,,,,,,,,,,60ff3b4b49cf56250d170cc6,31,2022-02-12_16h55.29.177,lexical_decision_task_DD_L5,2021.2.3,Win32,61.61049843,,,,,,,,,,,,,,,,,,,,,,,,,,,,,,,,,,,,,,,,,,,,,,,,How likely will it be that you will recognize the words presented clearly on a scale of 0 (not likely) to 100 (most likely)?,,,,,,,,,,,6,3.6428,0,1,1,0,1,,,,,,,,,,,,,,,,,,,,,
,,,,,,,,,,,,,,,,,60ff3b4b49cf56250d170cc6,31,2022-02-12_16h55.29.177,lexical_decision_task_DD_L5,2021.2.3,Win32,61.61049843,,,,,,,,,,,,,,,,,,,,,,,,,,,,,,,,,,,,,,,,,,,,,,,,How likely will it be that you will recognize the words presented very blurred on a scale of 0 (not likely) to 100 (most likely)?,,,,,,,,,,,2,2.1737,0,2,2,2,1,,,,,,,,,,,,,,,,,,,,,
,,-0.019444431,-0.441666737,1,0,0,,,,,,1,test,"In the next phase you will be presented with the words from the the first phase. Your job is to decide whether you remember seeing the word or not. If you remember seeing the word press ""old"" or type ""m"". If you do not remember seeing the word press ""new"" or type ""z"". Please press the space bar or click on continue to begin. ",,,60ff3b4b49cf56250d170cc6,31,2022-02-12_16h55.29.177,lexical_decision_task_DD_L5,2021.2.3,Win32,61.61049843,,,,,,,,,,,,,,,,,,,,,,,,,,,,,,,,,,,,,,,,,,,,,,,,,,,,,,,,,,,,,,,,,,instr_done_button,0,0,0,0,1,,,,,,,,,,,,,,,
space,1.3668,0.007407421,-0.426851866,0,0,0,,,,,,1,test,"In the next phase you will be presented with the words from the the first phase. Your job is to decide whether you remember seeing the word or not. If you remember seeing the word press ""old"" or type ""m"". If you do not remember seeing the word press ""new"" or type ""z"". Please press the space bar or click on continue to begin. ",,,60ff3b4b49cf56250d170cc6,31,2022-02-12_16h55.29.177,lexical_decision_task_DD_L5,2021.2.3,Win32,61.61049843,,,,,,,,,,,,,,,,,,,,,,,,,,,,,,,,,,,,,,,,,,,,,,,,,,,,,,,,,,,,,,,,,,,1,0,1,0,1,,,,,,,,,,,,,,,
space,1.6341,0.007407421,-0.426851866,0,0,0,,,,,,1,test,"In the next phase you will be presented with the words from the the first phase. Your job is to decide whether you remember seeing the word or not. If you remember seeing the word press ""old"" or type ""m"". If you do not remember seeing the word press ""new"" or type ""z"". Please press the space bar or click on continue to begin. ",,,60ff3b4b49cf56250d170cc6,31,2022-02-12_16h55.29.177,lexical_decision_task_DD_L5,2021.2.3,Win32,61.61049843,,,,,,,,,,,,,,,,,,,,,,,,,,,,,,,,,,,,,,,,,,,,,,,,,,,,,,,,,,,,,,,,,,,2,0,2,0,1,,,,,,,,,,,,,,,
,,0.015740811,-0.415740754,1,0,0,,,,,,1,test,"In the next phase you will be presented with the words from the the first phase. Your job is to decide whether you remember seeing the word or not. If you remember seeing the word press ""old"" or type ""m"". If you do not remember seeing the word press ""new"" or type ""z"". Please press the space bar or click on continue to begin. ",,,60ff3b4b49cf56250d170cc6,31,2022-02-12_16h55.29.177,lexical_decision_task_DD_L5,2021.2.3,Win32,61.61049843,,,,,,,,,,,,,,,,,,,,,,,,,,,,,,,,,,,,,,,,,,,,,,,,,,,,,,,,,,,,,,,,,,instr_done_button,3,0,3,0,1,,,,,,,,,,,,,,,
space,2.0005,0.015740811,-0.415740754,0,0,0,,,,,,1,test,"In the next phase you will be presented with the words from the the first phase. Your job is to decide whether you remember seeing the word or not. If you remember seeing the word press ""old"" or type ""m"". If you do not remember seeing the word press ""new"" or type ""z"". Please press the space bar or click on continue to begin. ",,,60ff3b4b49cf56250d170cc6,31,2022-02-12_16h55.29.177,lexical_decision_task_DD_L5,2021.2.3,Win32,61.61049843,,,,,,,,,,,,,,,,,,,,,,,,,,,,,,,,,,,,,,,,,,,,,,,,,,,,,,,,,,,,,,,,,,,4,0,4,0,1,,,,,,,,,,,,,,,
,,,,,,,,,,,,,,,,,60ff3b4b49cf56250d170cc6,31,2022-02-12_16h55.29.177,lexical_decision_task_DD_L5,2021.2.3,Win32,61.61049843,,,,,,,,,,,1.7877,1,,,,,,,,,,,,,,,,,,,,,,,,0.015740811,-0.415740754,0,0,0,,,,,,,PLANET,C,m,y,./images/PLANET.png,,,,,,,,,,,,,,,,,,,,,m,1,1.7877,,,,,,,,0,0,0,80,1
,,,,,,,,,,,,,,,,,60ff3b4b49cf56250d170cc6,31,2022-02-12_16h55.29.177,lexical_decision_task_DD_L5,2021.2.3,Win32,61.61049843,,,,,,,,,,,0.7555,1,,,,,,,,,,,,,,,,,,,,,,,,0.015740811,-0.415740754,0,0,0,,,,,,,SAUNA,HB,m,y,./images/SAUNAHB.png,,,,,,,,,,,,,,,,,,,,,m,1,0.7555,,,,,,,,0,1,1,33,1
,,,,,,,,,,,,,,,,,60ff3b4b49cf56250d170cc6,31,2022-02-12_16h55.29.177,lexical_decision_task_DD_L5,2021.2.3,Win32,61.61049843,,,,,,,,,,,0.674,1,,,,,,,,,,,,,,,,,,,,,,,,0.015740811,-0.415740754,0,0,0,,,,,,,MEDAL,C,m,y,./images/MEDAL.png,,,,,,,,,,,,,,,,,,,,,m,1,0.674,,,,,,,,0,2,2,11,1
,,,,,,,,,,,,,,,,,60ff3b4b49cf56250d170cc6,31,2022-02-12_16h55.29.177,lexical_decision_task_DD_L5,2021.2.3,Win32,61.61049843,,,,,,,,,,,0.605,1,,,,,,,,,,,,,,,,,,,,,,,,0.015740811,-0.415740754,0,0,0,,,,,,,HOCKEY,C,m,y,./images/HOCKEY.png,,,,,,,,,,,,,,,,,,,,,m,1,0.605,,,,,,,,0,3,3,32,1
,,,,,,,,,,,,,,,,,60ff3b4b49cf56250d170cc6,31,2022-02-12_16h55.29.177,lexical_decision_task_DD_L5,2021.2.3,Win32,61.61049843,,,,,,,,,,,0.6372,0,,,,,,,,,,,,,,,,,,,,,,,,0.015740811,-0.415740754,0,0,0,,,,,,,LADDER,C,z,y,./images/LADDER.png,,,,,,,,,,,,,,,,,,,,,m,0,0.6372,,,,,,,,0,4,4,122,1
,,,,,,,,,,,,,,,,,60ff3b4b49cf56250d170cc6,31,2022-02-12_16h55.29.177,lexical_decision_task_DD_L5,2021.2.3,Win32,61.61049843,,,,,,,,,,,0.8183,0,,,,,,,,,,,,,,,,,,,,,,,,0.015740811,-0.415740754,0,0,0,,,,,,,MUFFIN,LB,z,y,./images/MUFFINLB.png,,,,,,,,,,,,,,,,,,,,,m,0,0.8183,,,,,,,,0,5,5,139,1
,,,,,,,,,,,,,,,,,60ff3b4b49cf56250d170cc6,31,2022-02-12_16h55.29.177,lexical_decision_task_DD_L5,2021.2.3,Win32,61.61049843,,,,,,,,,,,0.6509,1,,,,,,,,,,,,,,,,,,,,,,,,0.015740811,-0.415740754,0,0,0,,,,,,,PICKLE,C,z,y,./images/PICKLE.png,,,,,,,,,,,,,,,,,,,,,z,1,0.6509,,,,,,,,0,6,6,98,1
,,,,,,,,,,,,,,,,,60ff3b4b49cf56250d170cc6,31,2022-02-12_16h55.29.177,lexical_decision_task_DD_L5,2021.2.3,Win32,61.61049843,,,,,,,,,,,0.8331,1,,,,,,,,,,,,,,,,,,,,,,,,0.015740811,-0.415740754,0,0,0,,,,,,,MOOSE,HB,z,y,./images/MOOSEHB.png,,,,,,,,,,,,,,,,,,,,,z,1,0.8331,,,,,,,,0,7,7,141,1
,,,,,,,,,,,,,,,,,60ff3b4b49cf56250d170cc6,31,2022-02-12_16h55.29.177,lexical_decision_task_DD_L5,2021.2.3,Win32,61.61049843,,,,,,,,,,,0.5543,1,,,,,,,,,,,,,,,,,,,,,,,,0.015740811,-0.415740754,0,0,0,,,,,,,BAKER,HB,m,y,./images/BAKERHB.png,,,,,,,,,,,,,,,,,,,,,m,1,0.5543,,,,,,,,0,8,8,63,1
,,,,,,,,,,,,,,,,,60ff3b4b49cf56250d170cc6,31,2022-02-12_16h55.29.177,lexical_decision_task_DD_L5,2021.2.3,Win32,61.61049843,,,,,,,,,,,0.6503,1,,,,,,,,,,,,,,,,,,,,,,,,0.015740811,-0.415740754,0,0,0,,,,,,,BERRY,C,z,y,./images/BERRY.png,,,,,,,,,,,,,,,,,,,,,z,1,0.6503,,,,,,,,0,9,9,131,1
,,,,,,,,,,,,,,,,,60ff3b4b49cf56250d170cc6,31,2022-02-12_16h55.29.177,lexical_decision_task_DD_L5,2021.2.3,Win32,61.61049843,,,,,,,,,,,0.9834,1,,,,,,,,,,,,,,,,,,,,,,,,0.015740811,-0.415740754,0,0,0,,,,,,,SWEAT,HB,z,y,./images/SWEATHB.png,,,,,,,,,,,,,,,,,,,,,z,1,0.9834,,,,,,,,0,10,10,150,1
,,,,,,,,,,,,,,,,,60ff3b4b49cf56250d170cc6,31,2022-02-12_16h55.29.177,lexical_decision_task_DD_L5,2021.2.3,Win32,61.61049843,,,,,,,,,,,1.0696,1,,,,,,,,,,,,,,,,,,,,,,,,0.015740811,-0.415740754,0,0,0,,,,,,,SUNSET,LB,z,y,./images/SUNSETLB.png,,,,,,,,,,,,,,,,,,,,,z,1,1.0696,,,,,,,,0,11,11,166,1
,,,,,,,,,,,,,,,,,60ff3b4b49cf56250d170cc6,31,2022-02-12_16h55.29.177,lexical_decision_task_DD_L5,2021.2.3,Win32,61.61049843,,,,,,,,,,,0.5209,1,,,,,,,,,,,,,,,,,,,,,,,,0.015740811,-0.415740754,0,0,0,,,,,,,STATUE,HB,m,y,./images/STATUEHB.png,,,,,,,,,,,,,,,,,,,,,m,1,0.5209,,,,,,,,0,12,12,66,1
,,,,,,,,,,,,,,,,,60ff3b4b49cf56250d170cc6,31,2022-02-12_16h55.29.177,lexical_decision_task_DD_L5,2021.2.3,Win32,61.61049843,,,,,,,,,,,0.9278,1,,,,,,,,,,,,,,,,,,,,,,,,0.015740811,-0.415740754,0,0,0,,,,,,,SPORT,HB,z,y,./images/SPORTHB.png,,,,,,,,,,,,,,,,,,,,,z,1,0.9278,,,,,,,,0,13,13,132,1
,,,,,,,,,,,,,,,,,60ff3b4b49cf56250d170cc6,31,2022-02-12_16h55.29.177,lexical_decision_task_DD_L5,2021.2.3,Win32,61.61049843,,,,,,,,,,,0.839,0,,,,,,,,,,,,,,,,,,,,,,,,0.015740811,-0.415740754,0,0,0,,,,,,,JELLY,LB,z,y,./images/JELLYLB.png,,,,,,,,,,,,,,,,,,,,,m,0,0.839,,,,,,,,0,14,14,148,1
,,,,,,,,,,,,,,,,,60ff3b4b49cf56250d170cc6,31,2022-02-12_16h55.29.177,lexical_decision_task_DD_L5,2021.2.3,Win32,61.61049843,,,,,,,,,,,1.5491,1,,,,,,,,,,,,,,,,,,,,,,,,0.015740811,-0.415740754,0,0,0,,,,,,,BROOM,HB,m,y,./images/BROOMHB.png,,,,,,,,,,,,,,,,,,,,,m,1,1.5491,,,,,,,,0,15,15,78,1
,,,,,,,,,,,,,,,,,60ff3b4b49cf56250d170cc6,31,2022-02-12_16h55.29.177,lexical_decision_task_DD_L5,2021.2.3,Win32,61.61049843,,,,,,,,,,,0.8249,0,,,,,,,,,,,,,,,,,,,,,,,,0.015740811,-0.415740754,0,0,0,,,,,,,SHORE,HB,z,y,./images/SHOREHB.png,,,,,,,,,,,,,,,,,,,,,m,0,0.8249,,,,,,,,0,16,16,96,1
,,,,,,,,,,,,,,,,,60ff3b4b49cf56250d170cc6,31,2022-02-12_16h55.29.177,lexical_decision_task_DD_L5,2021.2.3,Win32,61.61049843,,,,,,,,,,,0.9168,0,,,,,,,,,,,,,,,,,,,,,,,,0.015740811,-0.415740754,0,0,0,,,,,,,STREAM,C,m,y,./images/STREAM.png,,,,,,,,,,,,,,,,,,,,,z,0,0.9168,,,,,,,,0,17,17,41,1
,,,,,,,,,,,,,,,,,60ff3b4b49cf56250d170cc6,31,2022-02-12_16h55.29.177,lexical_decision_task_DD_L5,2021.2.3,Win32,61.61049843,,,,,,,,,,,0.7573,1,,,,,,,,,,,,,,,,,,,,,,,,0.015740811,-0.415740754,0,0,0,,,,,,,TULIP,C,z,y,./images/TULIP.png,,,,,,,,,,,,,,,,,,,,,z,1,0.7573,,,,,,,,0,18,18,92,1
,,,,,,,,,,,,,,,,,60ff3b4b49cf56250d170cc6,31,2022-02-12_16h55.29.177,lexical_decision_task_DD_L5,2021.2.3,Win32,61.61049843,,,,,,,,,,,0.5824,0,,,,,,,,,,,,,,,,,,,,,,,,0.015740811,-0.415740754,0,0,0,,,,,,,PEARL,LB,z,y,./images/PEARLLB.png,,,,,,,,,,,,,,,,,,,,,m,0,0.5824,,,,,,,,0,19,19,130,1
,,,,,,,,,,,,,,,,,60ff3b4b49cf56250d170cc6,31,2022-02-12_16h55.29.177,lexical_decision_task_DD_L5,2021.2.3,Win32,61.61049843,,,,,,,,,,,0.6244,1,,,,,,,,,,,,,,,,,,,,,,,,0.015740811,-0.415740754,0,0,0,,,,,,,CARPET,C,z,y,./images/CARPET.png,,,,,,,,,,,,,,,,,,,,,z,1,0.6244,,,,,,,,0,20,20,137,1
,,,,,,,,,,,,,,,,,60ff3b4b49cf56250d170cc6,31,2022-02-12_16h55.29.177,lexical_decision_task_DD_L5,2021.2.3,Win32,61.61049843,,,,,,,,,,,0.8362,1,,,,,,,,,,,,,,,,,,,,,,,,0.015740811,-0.415740754,0,0,0,,,,,,,STOVE,C,m,y,./images/STOVE.png,,,,,,,,,,,,,,,,,,,,,m,1,0.8362,,,,,,,,0,21,21,2,1
,,,,,,,,,,,,,,,,,60ff3b4b49cf56250d170cc6,31,2022-02-12_16h55.29.177,lexical_decision_task_DD_L5,2021.2.3,Win32,61.61049843,,,,,,,,,,,0.8437,1,,,,,,,,,,,,,,,,,,,,,,,,0.015740811,-0.415740754,0,0,0,,,,,,,ONION,HB,z,y,./images/ONIONHB.png,,,,,,,,,,,,,,,,,,,,,z,1,0.8437,,,,,,,,0,22,22,135,1
,,,,,,,,,,,,,,,,,60ff3b4b49cf56250d170cc6,31,2022-02-12_16h55.29.177,lexical_decision_task_DD_L5,2021.2.3,Win32,61.61049843,,,,,,,,,,,0.6063,1,,,,,,,,,,,,,,,,,,,,,,,,0.015740811,-0.415740754,0,0,0,,,,,,,SLOPE,HB,m,y,./images/SLOPEHB.png,,,,,,,,,,,,,,,,,,,,,m,1,0.6063,,,,,,,,0,23,23,30,1
,,,,,,,,,,,,,,,,,60ff3b4b49cf56250d170cc6,31,2022-02-12_16h55.29.177,lexical_decision_task_DD_L5,2021.2.3,Win32,61.61049843,,,,,,,,,,,0.5263,1,,,,,,,,,,,,,,,,,,,,,,,,0.015740811,-0.415740754,0,0,0,,,,,,,CHALK,LB,m,y,./images/CHALKLB.png,,,,,,,,,,,,,,,,,,,,,m,1,0.5263,,,,,,,,0,24,24,25,1
,,,,,,,,,,,,,,,,,60ff3b4b49cf56250d170cc6,31,2022-02-12_16h55.29.177,lexical_decision_task_DD_L5,2021.2.3,Win32,61.61049843,,,,,,,,,,,0.4947,0,,,,,,,,,,,,,,,,,,,,,,,,0.015740811,-0.415740754,0,0,0,,,,,,,PAINT,LB,z,y,./images/PAINTLB.png,,,,,,,,,,,,,,,,,,,,,m,0,0.4947,,,,,,,,0,25,25,91,1
,,,,,,,,,,,,,,,,,60ff3b4b49cf56250d170cc6,31,2022-02-12_16h55.29.177,lexical_decision_task_DD_L5,2021.2.3,Win32,61.61049843,,,,,,,,,,,0.6033,1,,,,,,,,,,,,,,,,,,,,,,,,0.015740811,-0.415740754,0,0,0,,,,,,,SWING,LB,z,y,./images/SWINGLB.png,,,,,,,,,,,,,,,,,,,,,z,1,0.6033,,,,,,,,0,26,26,124,1
,,,,,,,,,,,,,,,,,60ff3b4b49cf56250d170cc6,31,2022-02-12_16h55.29.177,lexical_decision_task_DD_L5,2021.2.3,Win32,61.61049843,,,,,,,,,,,0.5443,1,,,,,,,,,,,,,,,,,,,,,,,,0.015740811,-0.415740754,0,0,0,,,,,,,PARCEL,HB,m,y,./images/PARCELHB.png,,,,,,,,,,,,,,,,,,,,,m,1,0.5443,,,,,,,,0,27,27,18,1
,,,,,,,,,,,,,,,,,60ff3b4b49cf56250d170cc6,31,2022-02-12_16h55.29.177,lexical_decision_task_DD_L5,2021.2.3,Win32,61.61049843,,,,,,,,,,,0.5212,1,,,,,,,,,,,,,,,,,,,,,,,,0.015740811,-0.415740754,0,0,0,,,,,,,TOWEL,LB,m,y,./images/TOWELLB.png,,,,,,,,,,,,,,,,,,,,,m,1,0.5212,,,,,,,,0,28,28,1,1
,,,,,,,,,,,,,,,,,60ff3b4b49cf56250d170cc6,31,2022-02-12_16h55.29.177,lexical_decision_task_DD_L5,2021.2.3,Win32,61.61049843,,,,,,,,,,,0.5007,1,,,,,,,,,,,,,,,,,,,,,,,,0.015740811,-0.415740754,0,0,0,,,,,,,BASKET,C,m,y,./images/BASKET.png,,,,,,,,,,,,,,,,,,,,,m,1,0.5007,,,,,,,,0,29,29,44,1
,,,,,,,,,,,,,,,,,60ff3b4b49cf56250d170cc6,31,2022-02-12_16h55.29.177,lexical_decision_task_DD_L5,2021.2.3,Win32,61.61049843,,,,,,,,,,,0.6401,0,,,,,,,,,,,,,,,,,,,,,,,,0.015740811,-0.415740754,0,0,0,,,,,,,CLOWN,LB,m,y,./images/CLOWNLB.png,,,,,,,,,,,,,,,,,,,,,z,0,0.6401,,,,,,,,0,30,30,22,1
,,,,,,,,,,,,,,,,,60ff3b4b49cf56250d170cc6,31,2022-02-12_16h55.29.177,lexical_decision_task_DD_L5,2021.2.3,Win32,61.61049843,,,,,,,,,,,0.5999,1,,,,,,,,,,,,,,,,,,,,,,,,0.015740811,-0.415740754,0,0,0,,,,,,,GARDEN,LB,m,y,./images/GARDENLB.png,,,,,,,,,,,,,,,,,,,,,m,1,0.5999,,,,,,,,0,31,31,10,1
,,,,,,,,,,,,,,,,,60ff3b4b49cf56250d170cc6,31,2022-02-12_16h55.29.177,lexical_decision_task_DD_L5,2021.2.3,Win32,61.61049843,,,,,,,,,,,0.5996,1,,,,,,,,,,,,,,,,,,,,,,,,0.015740811,-0.415740754,0,0,0,,,,,,,BEARD,C,z,y,./images/BEARD.png,,,,,,,,,,,,,,,,,,,,,z,1,0.5996,,,,,,,,0,32,32,86,1
,,,,,,,,,,,,,,,,,60ff3b4b49cf56250d170cc6,31,2022-02-12_16h55.29.177,lexical_decision_task_DD_L5,2021.2.3,Win32,61.61049843,,,,,,,,,,,0.593,1,,,,,,,,,,,,,,,,,,,,,,,,0.015740811,-0.415740754,0,0,0,,,,,,,BAMBOO,C,m,y,./images/BAMBOO.png,,,,,,,,,,,,,,,,,,,,,m,1,0.593,,,,,,,,0,33,33,5,1
,,,,,,,,,,,,,,,,,60ff3b4b49cf56250d170cc6,31,2022-02-12_16h55.29.177,lexical_decision_task_DD_L5,2021.2.3,Win32,61.61049843,,,,,,,,,,,0.6283,1,,,,,,,,,,,,,,,,,,,,,,,,0.015740811,-0.415740754,0,0,0,,,,,,,LIZARD,C,z,y,./images/LIZARD.png,,,,,,,,,,,,,,,,,,,,,z,1,0.6283,,,,,,,,0,34,34,128,1
,,,,,,,,,,,,,,,,,60ff3b4b49cf56250d170cc6,31,2022-02-12_16h55.29.177,lexical_decision_task_DD_L5,2021.2.3,Win32,61.61049843,,,,,,,,,,,1.1496,1,,,,,,,,,,,,,,,,,,,,,,,,0.015740811,-0.415740754,0,0,0,,,,,,,GRANNY,C,m,y,./images/GRANNY.png,,,,,,,,,,,,,,,,,,,,,m,1,1.1496,,,,,,,,0,35,35,20,1
,,,,,,,,,,,,,,,,,60ff3b4b49cf56250d170cc6,31,2022-02-12_16h55.29.177,lexical_decision_task_DD_L5,2021.2.3,Win32,61.61049843,,,,,,,,,,,0.7419,1,,,,,,,,,,,,,,,,,,,,,,,,0.015740811,-0.415740754,0,0,0,,,,,,,URINE,LB,z,y,./images/URINELB.png,,,,,,,,,,,,,,,,,,,,,z,1,0.7419,,,,,,,,0,36,36,154,1
,,,,,,,,,,,,,,,,,60ff3b4b49cf56250d170cc6,31,2022-02-12_16h55.29.177,lexical_decision_task_DD_L5,2021.2.3,Win32,61.61049843,,,,,,,,,,,0.9336,1,,,,,,,,,,,,,,,,,,,,,,,,0.015740811,-0.415740754,0,0,0,,,,,,,TOMATO,HB,z,y,./images/TOMATOHB.png,,,,,,,,,,,,,,,,,,,,,z,1,0.9336,,,,,,,,0,37,37,84,1
,,,,,,,,,,,,,,,,,60ff3b4b49cf56250d170cc6,31,2022-02-12_16h55.29.177,lexical_decision_task_DD_L5,2021.2.3,Win32,61.61049843,,,,,,,,,,,0.6015,1,,,,,,,,,,,,,,,,,,,,,,,,0.015740811,-0.415740754,0,0,0,,,,,,,MUMMY,LB,m,y,./images/MUMMYLB.png,,,,,,,,,,,,,,,,,,,,,m,1,0.6015,,,,,,,,0,38,38,46,1
,,,,,,,,,,,,,,,,,60ff3b4b49cf56250d170cc6,31,2022-02-12_16h55.29.177,lexical_decision_task_DD_L5,2021.2.3,Win32,61.61049843,,,,,,,,,,,1.0011,0,,,,,,,,,,,,,,,,,,,,,,,,0.015740811,-0.415740754,0,0,0,,,,,,,BONNET,C,z,y,./images/BONNET.png,,,,,,,,,,,,,,,,,,,,,m,0,1.0011,,,,,,,,0,39,39,95,1
,,,,,,,,,,,,,,,,,60ff3b4b49cf56250d170cc6,31,2022-02-12_16h55.29.177,lexical_decision_task_DD_L5,2021.2.3,Win32,61.61049843,,,,,,,,,,,0.6092,1,,,,,,,,,,,,,,,,,,,,,,,,0.015740811,-0.415740754,0,0,0,,,,,,,RAZOR,LB,m,y,./images/RAZORLB.png,,,,,,,,,,,,,,,,,,,,,m,1,0.6092,,,,,,,,0,40,40,34,1
,,,,,,,,,,,,,,,,,60ff3b4b49cf56250d170cc6,31,2022-02-12_16h55.29.177,lexical_decision_task_DD_L5,2021.2.3,Win32,61.61049843,,,,,,,,,,,0.734,1,,,,,,,,,,,,,,,,,,,,,,,,0.015740811,-0.415740754,0,0,0,space,,,,,,BOILER,HB,m,y,./images/BOILERHB.png,0.8494,,,,,,,,,,,,,,,,,,,,m,1,0.734,,,,,,,,0,41,41,36,1
,,,,,,,,,,,,,,,,,60ff3b4b49cf56250d170cc6,31,2022-02-12_16h55.29.177,lexical_decision_task_DD_L5,2021.2.3,Win32,61.61049843,,,,,,,,,,,0.7827,1,,,,,,,,,,,,,,,,,,,,,,,,0.015740811,-0.415740754,0,0,0,,,,,,,CRUMB,C,z,y,./images/CRUMB.png,,,,,,,,,,,,,,,,,,,,,z,1,0.7827,,,,,,,,0,42,42,113,1
,,,,,,,,,,,,,,,,,60ff3b4b49cf56250d170cc6,31,2022-02-12_16h55.29.177,lexical_decision_task_DD_L5,2021.2.3,Win32,61.61049843,,,,,,,,,,,0.8224,0,,,,,,,,,,,,,,,,,,,,,,,,0.015740811,-0.415740754,0,0,0,,,,,,,TORCH,C,z,y,./images/TORCH.png,,,,,,,,,,,,,,,,,,,,,m,0,0.8224,,,,,,,,0,43,43,152,1
,,,,,,,,,,,,,,,,,60ff3b4b49cf56250d170cc6,31,2022-02-12_16h55.29.177,lexical_decision_task_DD_L5,2021.2.3,Win32,61.61049843,,,,,,,,,,,0.4827,1,,,,,,,,,,,,,,,,,,,,,,,,0.015740811,-0.415740754,0,0,0,,,,,,,LAGOON,C,m,y,./images/LAGOON.png,,,,,,,,,,,,,,,,,,,,,m,1,0.4827,,,,,,,,0,44,44,47,1
,,,,,,,,,,,,,,,,,60ff3b4b49cf56250d170cc6,31,2022-02-12_16h55.29.177,lexical_decision_task_DD_L5,2021.2.3,Win32,61.61049843,,,,,,,,,,,0.5503,1,,,,,,,,,,,,,,,,,,,,,,,,0.015740811,-0.415740754,0,0,0,,,,,,,SNAKE,LB,m,y,./images/SNAKELB.png,,,,,,,,,,,,,,,,,,,,,m,1,0.5503,,,,,,,,0,45,45,40,1
,,,,,,,,,,,,,,,,,60ff3b4b49cf56250d170cc6,31,2022-02-12_16h55.29.177,lexical_decision_task_DD_L5,2021.2.3,Win32,61.61049843,,,,,,,,,,,0.8381,0,,,,,,,,,,,,,,,,,,,,,,,,0.015740811,-0.415740754,0,0,0,,,,,,,MALLET,C,z,y,./images/MALLET.png,,,,,,,,,,,,,,,,,,,,,m,0,0.8381,,,,,,,,0,46,46,134,1
,,,,,,,,,,,,,,,,,60ff3b4b49cf56250d170cc6,31,2022-02-12_16h55.29.177,lexical_decision_task_DD_L5,2021.2.3,Win32,61.61049843,,,,,,,,,,,0.5774,1,,,,,,,,,,,,,,,,,,,,,,,,0.015740811,-0.415740754,0,0,0,,,,,,,NOOSE,HB,z,y,./images/NOOSEHB.png,,,,,,,,,,,,,,,,,,,,,z,1,0.5774,,,,,,,,0,47,47,156,1
,,,,,,,,,,,,,,,,,60ff3b4b49cf56250d170cc6,31,2022-02-12_16h55.29.177,lexical_decision_task_DD_L5,2021.2.3,Win32,61.61049843,,,,,,,,,,,0.5192,1,,,,,,,,,,,,,,,,,,,,,,,,0.015740811,-0.415740754,0,0,0,,,,,,,DANCER,HB,m,y,./images/DANCERHB.png,,,,,,,,,,,,,,,,,,,,,m,1,0.5192,,,,,,,,0,48,48,21,1
,,,,,,,,,,,,,,,,,60ff3b4b49cf56250d170cc6,31,2022-02-12_16h55.29.177,lexical_decision_task_DD_L5,2021.2.3,Win32,61.61049843,,,,,,,,,,,0.5232,0,,,,,,,,,,,,,,,,,,,,,,,,0.015740811,-0.415740754,0,0,0,,,,,,,CRATER,HB,m,y,./images/CRATERHB.png,,,,,,,,,,,,,,,,,,,,,z,0,0.5232,,,,,,,,0,49,49,3,1
,,,,,,,,,,,,,,,,,60ff3b4b49cf56250d170cc6,31,2022-02-12_16h55.29.177,lexical_decision_task_DD_L5,2021.2.3,Win32,61.61049843,,,,,,,,,,,0.907,1,,,,,,,,,,,,,,,,,,,,,,,,0.015740811,-0.415740754,0,0,0,,,,,,,BARREL,C,z,y,./images/BARREL.png,,,,,,,,,,,,,,,,,,,,,z,1,0.907,,,,,,,,0,50,50,116,1
,,,,,,,,,,,,,,,,,60ff3b4b49cf56250d170cc6,31,2022-02-12_16h55.29.177,lexical_decision_task_DD_L5,2021.2.3,Win32,61.61049843,,,,,,,,,,,0.8162,1,,,,,,,,,,,,,,,,,,,,,,,,0.015740811,-0.415740754,0,0,0,,,,,,,LITTER,HB,z,y,./images/LITTERHB.png,,,,,,,,,,,,,,,,,,,,,z,1,0.8162,,,,,,,,0,51,51,162,1
,,,,,,,,,,,,,,,,,60ff3b4b49cf56250d170cc6,31,2022-02-12_16h55.29.177,lexical_decision_task_DD_L5,2021.2.3,Win32,61.61049843,,,,,,,,,,,0.7708,1,,,,,,,,,,,,,,,,,,,,,,,,0.015740811,-0.415740754,0,0,0,,,,,,,PASTA,C,z,y,./images/PASTA.png,,,,,,,,,,,,,,,,,,,,,z,1,0.7708,,,,,,,,0,52,52,89,1
,,,,,,,,,,,,,,,,,60ff3b4b49cf56250d170cc6,31,2022-02-12_16h55.29.177,lexical_decision_task_DD_L5,2021.2.3,Win32,61.61049843,,,,,,,,,,,0.5832,1,,,,,,,,,,,,,,,,,,,,,,,,0.015740811,-0.415740754,0,0,0,,,,,,,WHEEL,C,m,y,./images/WHEEL.png,,,,,,,,,,,,,,,,,,,,,m,1,0.5832,,,,,,,,0,53,53,77,1
,,,,,,,,,,,,,,,,,60ff3b4b49cf56250d170cc6,31,2022-02-12_16h55.29.177,lexical_decision_task_DD_L5,2021.2.3,Win32,61.61049843,,,,,,,,,,,0.5583,1,,,,,,,,,,,,,,,,,,,,,,,,0.015740811,-0.415740754,0,0,0,,,,,,,FENCE,C,m,y,./images/FENCE.png,,,,,,,,,,,,,,,,,,,,,m,1,0.5583,,,,,,,,0,54,54,14,1
,,,,,,,,,,,,,,,,,60ff3b4b49cf56250d170cc6,31,2022-02-12_16h55.29.177,lexical_decision_task_DD_L5,2021.2.3,Win32,61.61049843,,,,,,,,,,,1.4902,1,,,,,,,,,,,,,,,,,,,,,,,,0.015740811,-0.415740754,0,0,0,,,,,,,ATTIC,HB,z,y,./images/ATTICHB.png,,,,,,,,,,,,,,,,,,,,,z,1,1.4902,,,,,,,,0,55,55,111,1
,,,,,,,,,,,,,,,,,60ff3b4b49cf56250d170cc6,31,2022-02-12_16h55.29.177,lexical_decision_task_DD_L5,2021.2.3,Win32,61.61049843,,,,,,,,,,,0.5359,1,,,,,,,,,,,,,,,,,,,,,,,,0.015740811,-0.415740754,0,0,0,,,,,,,BUBBLE,C,m,y,./images/BUBBLE.png,,,,,,,,,,,,,,,,,,,,,m,1,0.5359,,,,,,,,0,56,56,71,1
,,,,,,,,,,,,,,,,,60ff3b4b49cf56250d170cc6,31,2022-02-12_16h55.29.177,lexical_decision_task_DD_L5,2021.2.3,Win32,61.61049843,,,,,,,,,,,0.5673,1,,,,,,,,,,,,,,,,,,,,,,,,0.015740811,-0.415740754,0,0,0,,,,,,,PARADE,C,m,y,./images/PARADE.png,,,,,,,,,,,,,,,,,,,,,m,1,0.5673,,,,,,,,0,57,57,17,1
,,,,,,,,,,,,,,,,,60ff3b4b49cf56250d170cc6,31,2022-02-12_16h55.29.177,lexical_decision_task_DD_L5,2021.2.3,Win32,61.61049843,,,,,,,,,,,0.9257,0,,,,,,,,,,,,,,,,,,,,,,,,0.015740811,-0.415740754,0,0,0,,,,,,,STAIN,HB,m,y,./images/STAINHB.png,,,,,,,,,,,,,,,,,,,,,z,0,0.9257,,,,,,,,0,58,58,6,1
,,,,,,,,,,,,,,,,,60ff3b4b49cf56250d170cc6,31,2022-02-12_16h55.29.177,lexical_decision_task_DD_L5,2021.2.3,Win32,61.61049843,,,,,,,,,,,1.2837,1,,,,,,,,,,,,,,,,,,,,,,,,0.015740811,-0.415740754,0,0,0,,,,,,,SAILOR,LB,z,y,./images/SAILORLB.png,,,,,,,,,,,,,,,,,,,,,z,1,1.2837,,,,,,,,0,59,59,151,1
,,,,,,,,,,,,,,,,,60ff3b4b49cf56250d170cc6,31,2022-02-12_16h55.29.177,lexical_decision_task_DD_L5,2021.2.3,Win32,61.61049843,,,,,,,,,,,0.6333,0,,,,,,,,,,,,,,,,,,,,,,,,0.015740811,-0.415740754,0,0,0,,,,,,,INFANT,LB,z,y,./images/INFANTLB.png,,,,,,,,,,,,,,,,,,,,,m,0,0.6333,,,,,,,,0,60,60,160,1
,,,,,,,,,,,,,,,,,60ff3b4b49cf56250d170cc6,31,2022-02-12_16h55.29.177,lexical_decision_task_DD_L5,2021.2.3,Win32,61.61049843,,,,,,,,,,,0.4863,1,,,,,,,,,,,,,,,,,,,,,,,,0.015740811,-0.415740754,0,0,0,,,,,,,SAUCE,HB,m,y,./images/SAUCEHB.png,,,,,,,,,,,,,,,,,,,,,m,1,0.4863,,,,,,,,0,61,61,51,1
,,,,,,,,,,,,,,,,,60ff3b4b49cf56250d170cc6,31,2022-02-12_16h55.29.177,lexical_decision_task_DD_L5,2021.2.3,Win32,61.61049843,,,,,,,,,,,1,1,,,,,,,,,,,,,,,,,,,,,,,,0.015740811,-0.415740754,0,0,0,,,,,,,SQUARE,HB,z,y,./images/SQUAREHB.png,,,,,,,,,,,,,,,,,,,,,z,1,1,,,,,,,,0,62,62,90,1
,,,,,,,,,,,,,,,,,60ff3b4b49cf56250d170cc6,31,2022-02-12_16h55.29.177,lexical_decision_task_DD_L5,2021.2.3,Win32,61.61049843,,,,,,,,,,,0.5495,1,,,,,,,,,,,,,,,,,,,,,,,,0.015740811,-0.415740754,0,0,0,,,,,,,DRUMS,LB,z,y,./images/DRUMSLB.png,,,,,,,,,,,,,,,,,,,,,z,1,0.5495,,,,,,,,0,63,63,133,1
,,,,,,,,,,,,,,,,,60ff3b4b49cf56250d170cc6,31,2022-02-12_16h55.29.177,lexical_decision_task_DD_L5,2021.2.3,Win32,61.61049843,,,,,,,,,,,0.5122,0,,,,,,,,,,,,,,,,,,,,,,,,0.015740811,-0.415740754,0,0,0,,,,,,,KITTEN,HB,z,y,./images/KITTENHB.png,,,,,,,,,,,,,,,,,,,,,m,0,0.5122,,,,,,,,0,64,64,129,1
,,,,,,,,,,,,,,,,,60ff3b4b49cf56250d170cc6,31,2022-02-12_16h55.29.177,lexical_decision_task_DD_L5,2021.2.3,Win32,61.61049843,,,,,,,,,,,0.6773,0,,,,,,,,,,,,,,,,,,,,,,,,0.015740811,-0.415740754,0,0,0,,,,,,,PEBBLE,LB,m,y,./images/PEBBLELB.png,,,,,,,,,,,,,,,,,,,,,z,0,0.6773,,,,,,,,0,65,65,82,1
,,,,,,,,,,,,,,,,,60ff3b4b49cf56250d170cc6,31,2022-02-12_16h55.29.177,lexical_decision_task_DD_L5,2021.2.3,Win32,61.61049843,,,,,,,,,,,0.5672,1,,,,,,,,,,,,,,,,,,,,,,,,0.015740811,-0.415740754,0,0,0,,,,,,,QUILL,LB,z,y,./images/QUILLLB.png,,,,,,,,,,,,,,,,,,,,,z,1,0.5672,,,,,,,,0,66,66,115,1
,,,,,,,,,,,,,,,,,60ff3b4b49cf56250d170cc6,31,2022-02-12_16h55.29.177,lexical_decision_task_DD_L5,2021.2.3,Win32,61.61049843,,,,,,,,,,,0.6834,1,,,,,,,,,,,,,,,,,,,,,,,,0.015740811,-0.415740754,0,0,0,,,,,,,FERRY,HB,m,y,./images/FERRYHB.png,,,,,,,,,,,,,,,,,,,,,m,1,0.6834,,,,,,,,0,67,67,57,1
,,,,,,,,,,,,,,,,,60ff3b4b49cf56250d170cc6,31,2022-02-12_16h55.29.177,lexical_decision_task_DD_L5,2021.2.3,Win32,61.61049843,,,,,,,,,,,0.6685,1,,,,,,,,,,,,,,,,,,,,,,,,0.015740811,-0.415740754,0,0,0,,,,,,,PIMPLE,C,z,y,./images/PIMPLE.png,,,,,,,,,,,,,,,,,,,,,z,1,0.6685,,,,,,,,0,68,68,155,1
,,,,,,,,,,,,,,,,,60ff3b4b49cf56250d170cc6,31,2022-02-12_16h55.29.177,lexical_decision_task_DD_L5,2021.2.3,Win32,61.61049843,,,,,,,,,,,0.6612,1,,,,,,,,,,,,,,,,,,,,,,,,0.015740811,-0.415740754,0,0,0,,,,,,,FLASK,HB,m,y,./images/FLASKHB.png,,,,,,,,,,,,,,,,,,,,,m,1,0.6612,,,,,,,,0,69,69,72,1
,,,,,,,,,,,,,,,,,60ff3b4b49cf56250d170cc6,31,2022-02-12_16h55.29.177,lexical_decision_task_DD_L5,2021.2.3,Win32,61.61049843,,,,,,,,,,,1.2,1,,,,,,,,,,,,,,,,,,,,,,,,0.015740811,-0.415740754,0,0,0,,,,,,,ARROW,HB,m,y,./images/ARROWHB.png,,,,,,,,,,,,,,,,,,,,,m,1,1.2,,,,,,,,0,70,70,69,1
,,,,,,,,,,,,,,,,,60ff3b4b49cf56250d170cc6,31,2022-02-12_16h55.29.177,lexical_decision_task_DD_L5,2021.2.3,Win32,61.61049843,,,,,,,,,,,0.6529,0,,,,,,,,,,,,,,,,,,,,,,,,0.015740811,-0.415740754,0,0,0,,,,,,,CEMENT,C,z,y,./images/CEMENT.png,,,,,,,,,,,,,,,,,,,,,m,0,0.6529,,,,,,,,0,71,71,158,1
,,,,,,,,,,,,,,,,,60ff3b4b49cf56250d170cc6,31,2022-02-12_16h55.29.177,lexical_decision_task_DD_L5,2021.2.3,Win32,61.61049843,,,,,,,,,,,0.5865,1,,,,,,,,,,,,,,,,,,,,,,,,0.015740811,-0.415740754,0,0,0,,,,,,,LLAMA,C,m,y,./images/LLAMA.png,,,,,,,,,,,,,,,,,,,,,m,1,0.5865,,,,,,,,0,72,72,35,1
,,,,,,,,,,,,,,,,,60ff3b4b49cf56250d170cc6,31,2022-02-12_16h55.29.177,lexical_decision_task_DD_L5,2021.2.3,Win32,61.61049843,,,,,,,,,,,0.8001,1,,,,,,,,,,,,,,,,,,,,,,,,0.015740811,-0.415740754,0,0,0,,,,,,,DIVER,HB,m,y,./images/DIVERHB.png,,,,,,,,,,,,,,,,,,,,,m,1,0.8001,,,,,,,,0,73,73,9,1
,,,,,,,,,,,,,,,,,60ff3b4b49cf56250d170cc6,31,2022-02-12_16h55.29.177,lexical_decision_task_DD_L5,2021.2.3,Win32,61.61049843,,,,,,,,,,,1.1216,1,,,,,,,,,,,,,,,,,,,,,,,,0.015740811,-0.415740754,0,0,0,,,,,,,JAGUAR,HB,z,y,./images/JAGUARHB.png,,,,,,,,,,,,,,,,,,,,,z,1,1.1216,,,,,,,,0,74,74,102,1
,,,,,,,,,,,,,,,,,60ff3b4b49cf56250d170cc6,31,2022-02-12_16h55.29.177,lexical_decision_task_DD_L5,2021.2.3,Win32,61.61049843,,,,,,,,,,,1.3404,1,,,,,,,,,,,,,,,,,,,,,,,,0.015740811,-0.415740754,0,0,0,,,,,,,FARMER,C,z,y,./images/FARMER.png,,,,,,,,,,,,,,,,,,,,,z,1,1.3404,,,,,,,,0,75,75,149,1
,,,,,,,,,,,,,,,,,60ff3b4b49cf56250d170cc6,31,2022-02-12_16h55.29.177,lexical_decision_task_DD_L5,2021.2.3,Win32,61.61049843,,,,,,,,,,,0.6824,0,,,,,,,,,,,,,,,,,,,,,,,,0.015740811,-0.415740754,0,0,0,,,,,,,STORM,HB,z,y,./images/STORMHB.png,,,,,,,,,,,,,,,,,,,,,m,0,0.6824,,,,,,,,0,76,76,114,1
,,,,,,,,,,,,,,,,,60ff3b4b49cf56250d170cc6,31,2022-02-12_16h55.29.177,lexical_decision_task_DD_L5,2021.2.3,Win32,61.61049843,,,,,,,,,,,2.2265,1,,,,,,,,,,,,,,,,,,,,,,,,0.015740811,-0.415740754,0,0,0,,,,,,,BISHOP,LB,m,y,./images/BISHOPLB.png,,,,,,,,,,,,,,,,,,,,,m,1,2.2265,,,,,,,,0,77,77,49,1
,,,,,,,,,,,,,,,,,60ff3b4b49cf56250d170cc6,31,2022-02-12_16h55.29.177,lexical_decision_task_DD_L5,2021.2.3,Win32,61.61049843,,,,,,,,,,,0.6661,1,,,,,,,,,,,,,,,,,,,,,,,,0.015740811,-0.415740754,0,0,0,,,,,,,BOXER,LB,m,y,./images/BOXERLB.png,,,,,,,,,,,,,,,,,,,,,m,1,0.6661,,,,,,,,0,78,78,4,1
,,,,,,,,,,,,,,,,,60ff3b4b49cf56250d170cc6,31,2022-02-12_16h55.29.177,lexical_decision_task_DD_L5,2021.2.3,Win32,61.61049843,,,,,,,,,,,0.6335,0,,,,,,,,,,,,,,,,,,,,,,,,0.015740811,-0.415740754,0,0,0,,,,,,,SCREW,HB,z,y,./images/SCREWHB.png,,,,,,,,,,,,,,,,,,,,,m,0,0.6335,,,,,,,,0,79,79,108,1
,,,,,,,,,,,,,,,,,60ff3b4b49cf56250d170cc6,31,2022-02-12_16h55.29.177,lexical_decision_task_DD_L5,2021.2.3,Win32,61.61049843,,,,,,,,,,,1.3842,1,,,,,,,,,,,,,,,,,,,,,,,,0.015740811,-0.415740754,0,0,0,,,,,,,BANNER,LB,z,y,./images/BANNERLB.png,,,,,,,,,,,,,,,,,,,,,z,1,1.3842,,,,,,,,0,80,80,136,1
,,,,,,,,,,,,,,,,,60ff3b4b49cf56250d170cc6,31,2022-02-12_16h55.29.177,lexical_decision_task_DD_L5,2021.2.3,Win32,61.61049843,,,,,,,,,,,1.3769,0,,,,,,,,,,,,,,,,,,,,,,,,0.015740811,-0.415740754,0,0,0,,,,,,,CHAIN,HB,m,y,./images/CHAINHB.png,,,,,,,,,,,,,,,,,,,,,z,0,1.3769,,,,,,,,0,81,81,42,1
,,,,,,,,,,,,,,,,,60ff3b4b49cf56250d170cc6,31,2022-02-12_16h55.29.177,lexical_decision_task_DD_L5,2021.2.3,Win32,61.61049843,,,,,,,,,,,0.6763,1,,,,,,,,,,,,,,,,,,,,,,,,0.015740811,-0.415740754,0,0,0,,,,,,,CANOE,LB,m,y,./images/CANOELB.png,,,,,,,,,,,,,,,,,,,,,m,1,0.6763,,,,,,,,0,82,82,58,1
,,,,,,,,,,,,,,,,,60ff3b4b49cf56250d170cc6,31,2022-02-12_16h55.29.177,lexical_decision_task_DD_L5,2021.2.3,Win32,61.61049843,,,,,,,,,,,1.0822,0,,,,,,,,,,,,,,,,,,,,,,,,0.015740811,-0.415740754,0,0,0,space,,,,,,STRING,C,z,y,./images/STRING.png,0.7992,,,,,,,,,,,,,,,,,,,,m,0,1.0822,,,,,,,,0,83,83,125,1
,,,,,,,,,,,,,,,,,60ff3b4b49cf56250d170cc6,31,2022-02-12_16h55.29.177,lexical_decision_task_DD_L5,2021.2.3,Win32,61.61049843,,,,,,,,,,,0.6944,0,,,,,,,,,,,,,,,,,,,,,,,,0.015740811,-0.415740754,0,0,0,,,,,,,COOKER,HB,z,y,./images/COOKERHB.png,,,,,,,,,,,,,,,,,,,,,m,0,0.6944,,,,,,,,0,84,84,153,1
,,,,,,,,,,,,,,,,,60ff3b4b49cf56250d170cc6,31,2022-02-12_16h55.29.177,lexical_decision_task_DD_L5,2021.2.3,Win32,61.61049843,,,,,,,,,,,1.0748,0,,,,,,,,,,,,,,,,,,,,,,,,0.015740811,-0.415740754,0,0,0,,,,,,,BABOON,LB,z,y,./images/BABOONLB.png,,,,,,,,,,,,,,,,,,,,,m,0,1.0748,,,,,,,,0,85,85,142,1
,,,,,,,,,,,,,,,,,60ff3b4b49cf56250d170cc6,31,2022-02-12_16h55.29.177,lexical_decision_task_DD_L5,2021.2.3,Win32,61.61049843,,,,,,,,,,,0.6408,1,,,,,,,,,,,,,,,,,,,,,,,,0.015740811,-0.415740754,0,0,0,,,,,,,FALCON,LB,z,y,./images/FALCONLB.png,,,,,,,,,,,,,,,,,,,,,z,1,0.6408,,,,,,,,0,86,86,112,1
,,,,,,,,,,,,,,,,,60ff3b4b49cf56250d170cc6,31,2022-02-12_16h55.29.177,lexical_decision_task_DD_L5,2021.2.3,Win32,61.61049843,,,,,,,,,,,1.0895,0,,,,,,,,,,,,,,,,,,,,,,,,0.015740811,-0.415740754,0,0,0,,,,,,,CHERRY,HB,m,y,./images/CHERRYHB.png,,,,,,,,,,,,,,,,,,,,,z,0,1.0895,,,,,,,,0,87,87,54,1
,,,,,,,,,,,,,,,,,60ff3b4b49cf56250d170cc6,31,2022-02-12_16h55.29.177,lexical_decision_task_DD_L5,2021.2.3,Win32,61.61049843,,,,,,,,,,,1.7999,0,,,,,,,,,,,,,,,,,,,,,,,,0.015740811,-0.415740754,0,0,0,,,,,,,CLOUD,C,m,y,./images/CLOUD.png,,,,,,,,,,,,,,,,,,,,,z,0,1.7999,,,,,,,,0,88,88,26,1
,,,,,,,,,,,,,,,,,60ff3b4b49cf56250d170cc6,31,2022-02-12_16h55.29.177,lexical_decision_task_DD_L5,2021.2.3,Win32,61.61049843,,,,,,,,,,,0.9594,0,,,,,,,,,,,,,,,,,,,,,,,,0.015740811,-0.415740754,0,0,0,,,,,,,SMOKER,C,z,y,./images/SMOKER.png,,,,,,,,,,,,,,,,,,,,,m,0,0.9594,,,,,,,,0,89,89,110,1
,,,,,,,,,,,,,,,,,60ff3b4b49cf56250d170cc6,31,2022-02-12_16h55.29.177,lexical_decision_task_DD_L5,2021.2.3,Win32,61.61049843,,,,,,,,,,,2.7771,0,,,,,,,,,,,,,,,,,,,,,,,,0.015740811,-0.415740754,0,0,0,,,,,,,CLIFF,C,m,y,./images/CLIFF.png,,,,,,,,,,,,,,,,,,,,,z,0,2.7771,,,,,,,,0,90,90,8,1
,,,,,,,,,,,,,,,,,60ff3b4b49cf56250d170cc6,31,2022-02-12_16h55.29.177,lexical_decision_task_DD_L5,2021.2.3,Win32,61.61049843,,,,,,,,,,,0.5844,1,,,,,,,,,,,,,,,,,,,,,,,,0.015740811,-0.415740754,0,0,0,,,,,,,DESERT,LB,m,y,./images/DESERTLB.png,,,,,,,,,,,,,,,,,,,,,m,1,0.5844,,,,,,,,0,91,91,52,1
,,,,,,,,,,,,,,,,,60ff3b4b49cf56250d170cc6,31,2022-02-12_16h55.29.177,lexical_decision_task_DD_L5,2021.2.3,Win32,61.61049843,,,,,,,,,,,0.6071,1,,,,,,,,,,,,,,,,,,,,,,,,0.015740811,-0.415740754,0,0,0,,,,,,,MAMMAL,C,m,y,./images/MAMMAL.png,,,,,,,,,,,,,,,,,,,,,m,1,0.6071,,,,,,,,0,92,92,62,1
,,,,,,,,,,,,,,,,,60ff3b4b49cf56250d170cc6,31,2022-02-12_16h55.29.177,lexical_decision_task_DD_L5,2021.2.3,Win32,61.61049843,,,,,,,,,,,0.8334,0,,,,,,,,,,,,,,,,,,,,,,,,0.015740811,-0.415740754,0,0,0,,,,,,,BRUSH,C,m,y,./images/BRUSH.png,,,,,,,,,,,,,,,,,,,,,z,0,0.8334,,,,,,,,0,93,93,59,1
,,,,,,,,,,,,,,,,,60ff3b4b49cf56250d170cc6,31,2022-02-12_16h55.29.177,lexical_decision_task_DD_L5,2021.2.3,Win32,61.61049843,,,,,,,,,,,0.8248,1,,,,,,,,,,,,,,,,,,,,,,,,0.015740811,-0.415740754,0,0,0,,,,,,,KIDNEY,HB,z,y,./images/KIDNEYHB.png,,,,,,,,,,,,,,,,,,,,,z,1,0.8248,,,,,,,,0,94,94,105,1
,,,,,,,,,,,,,,,,,60ff3b4b49cf56250d170cc6,31,2022-02-12_16h55.29.177,lexical_decision_task_DD_L5,2021.2.3,Win32,61.61049843,,,,,,,,,,,0.8335,1,,,,,,,,,,,,,,,,,,,,,,,,0.015740811,-0.415740754,0,0,0,,,,,,,MIDGET,LB,m,y,./images/MIDGETLB.png,,,,,,,,,,,,,,,,,,,,,m,1,0.8335,,,,,,,,0,95,95,76,1
,,,,,,,,,,,,,,,,,60ff3b4b49cf56250d170cc6,31,2022-02-12_16h55.29.177,lexical_decision_task_DD_L5,2021.2.3,Win32,61.61049843,,,,,,,,,,,1.2284,1,,,,,,,,,,,,,,,,,,,,,,,,0.015740811,-0.415740754,0,0,0,,,,,,,PISTOL,C,m,y,./images/PISTOL.png,,,,,,,,,,,,,,,,,,,,,m,1,1.2284,,,,,,,,0,96,96,29,1
,,,,,,,,,,,,,,,,,60ff3b4b49cf56250d170cc6,31,2022-02-12_16h55.29.177,lexical_decision_task_DD_L5,2021.2.3,Win32,61.61049843,,,,,,,,,,,0.7505,1,,,,,,,,,,,,,,,,,,,,,,,,0.015740811,-0.415740754,0,0,0,,,,,,,RHINO,HB,z,y,./images/RHINOHB.png,,,,,,,,,,,,,,,,,,,,,z,1,0.7505,,,,,,,,0,97,97,93,1
,,,,,,,,,,,,,,,,,60ff3b4b49cf56250d170cc6,31,2022-02-12_16h55.29.177,lexical_decision_task_DD_L5,2021.2.3,Win32,61.61049843,,,,,,,,,,,0.6758,0,,,,,,,,,,,,,,,,,,,,,,,,0.015740811,-0.415740754,0,0,0,,,,,,,DOUGH,LB,z,y,./images/DOUGHLB.png,,,,,,,,,,,,,,,,,,,,,m,0,0.6758,,,,,,,,0,98,98,103,1
,,,,,,,,,,,,,,,,,60ff3b4b49cf56250d170cc6,31,2022-02-12_16h55.29.177,lexical_decision_task_DD_L5,2021.2.3,Win32,61.61049843,,,,,,,,,,,0.5439,0,,,,,,,,,,,,,,,,,,,,,,,,0.015740811,-0.415740754,0,0,0,,,,,,,SKIING,C,z,y,./images/SKIING.png,,,,,,,,,,,,,,,,,,,,,m,0,0.5439,,,,,,,,0,99,99,101,1
,,,,,,,,,,,,,,,,,60ff3b4b49cf56250d170cc6,31,2022-02-12_16h55.29.177,lexical_decision_task_DD_L5,2021.2.3,Win32,61.61049843,,,,,,,,,,,0.6545,1,,,,,,,,,,,,,,,,,,,,,,,,0.015740811,-0.415740754,0,0,0,,,,,,,RULER,LB,m,y,./images/RULERLB.png,,,,,,,,,,,,,,,,,,,,,m,1,0.6545,,,,,,,,0,100,100,79,1
,,,,,,,,,,,,,,,,,60ff3b4b49cf56250d170cc6,31,2022-02-12_16h55.29.177,lexical_decision_task_DD_L5,2021.2.3,Win32,61.61049843,,,,,,,,,,,0.6391,1,,,,,,,,,,,,,,,,,,,,,,,,0.015740811,-0.415740754,0,0,0,,,,,,,SPINE,C,m,y,./images/SPINE.png,,,,,,,,,,,,,,,,,,,,,m,1,0.6391,,,,,,,,0,101,101,65,1
,,,,,,,,,,,,,,,,,60ff3b4b49cf56250d170cc6,31,2022-02-12_16h55.29.177,lexical_decision_task_DD_L5,2021.2.3,Win32,61.61049843,,,,,,,,,,,0.7287,0,,,,,,,,,,,,,,,,,,,,,,,,0.015740811,-0.415740754,0,0,0,,,,,,,SHELF,HB,z,y,./images/SHELFHB.png,,,,,,,,,,,,,,,,,,,,,m,0,0.7287,,,,,,,,0,102,102,123,1
,,,,,,,,,,,,,,,,,60ff3b4b49cf56250d170cc6,31,2022-02-12_16h55.29.177,lexical_decision_task_DD_L5,2021.2.3,Win32,61.61049843,,,,,,,,,,,0.7187,1,,,,,,,,,,,,,,,,,,,,,,,,0.015740811,-0.415740754,0,0,0,,,,,,,WRIST,LB,z,y,./images/WRISTLB.png,,,,,,,,,,,,,,,,,,,,,z,1,0.7187,,,,,,,,0,103,103,109,1
,,,,,,,,,,,,,,,,,60ff3b4b49cf56250d170cc6,31,2022-02-12_16h55.29.177,lexical_decision_task_DD_L5,2021.2.3,Win32,61.61049843,,,,,,,,,,,0.5765,1,,,,,,,,,,,,,,,,,,,,,,,,0.015740811,-0.415740754,0,0,0,,,,,,,CLOTH,C,m,y,./images/CLOTH.png,,,,,,,,,,,,,,,,,,,,,m,1,0.5765,,,,,,,,0,104,104,23,1
,,,,,,,,,,,,,,,,,60ff3b4b49cf56250d170cc6,31,2022-02-12_16h55.29.177,lexical_decision_task_DD_L5,2021.2.3,Win32,61.61049843,,,,,,,,,,,0.766,0,,,,,,,,,,,,,,,,,,,,,,,,0.015740811,-0.415740754,0,0,0,,,,,,,CANYON,LB,z,y,./images/CANYONLB.png,,,,,,,,,,,,,,,,,,,,,m,0,0.766,,,,,,,,0,105,105,118,1
,,,,,,,,,,,,,,,,,60ff3b4b49cf56250d170cc6,31,2022-02-12_16h55.29.177,lexical_decision_task_DD_L5,2021.2.3,Win32,61.61049843,,,,,,,,,,,1.3662,0,,,,,,,,,,,,,,,,,,,,,,,,0.015740811,-0.415740754,0,0,0,,,,,,,POKER,LB,m,y,./images/POKERLB.png,,,,,,,,,,,,,,,,,,,,,z,0,1.3662,,,,,,,,0,106,106,67,1
,,,,,,,,,,,,,,,,,60ff3b4b49cf56250d170cc6,31,2022-02-12_16h55.29.177,lexical_decision_task_DD_L5,2021.2.3,Win32,61.61049843,,,,,,,,,,,0.8596,1,,,,,,,,,,,,,,,,,,,,,,,,0.015740811,-0.415740754,0,0,0,,,,,,,CRADLE,C,z,y,./images/CRADLE.png,,,,,,,,,,,,,,,,,,,,,z,1,0.8596,,,,,,,,0,107,107,104,1
,,,,,,,,,,,,,,,,,60ff3b4b49cf56250d170cc6,31,2022-02-12_16h55.29.177,lexical_decision_task_DD_L5,2021.2.3,Win32,61.61049843,,,,,,,,,,,0.8897,1,,,,,,,,,,,,,,,,,,,,,,,,0.015740811,-0.415740754,0,0,0,,,,,,,ENGINE,C,m,y,./images/ENGINE.png,,,,,,,,,,,,,,,,,,,,,m,1,0.8897,,,,,,,,0,108,108,38,1
,,,,,,,,,,,,,,,,,60ff3b4b49cf56250d170cc6,31,2022-02-12_16h55.29.177,lexical_decision_task_DD_L5,2021.2.3,Win32,61.61049843,,,,,,,,,,,0.6094,0,,,,,,,,,,,,,,,,,,,,,,,,0.015740811,-0.415740754,0,0,0,,,,,,,PURSE,C,z,y,./images/PURSE.png,,,,,,,,,,,,,,,,,,,,,m,0,0.6094,,,,,,,,0,109,109,146,1
,,,,,,,,,,,,,,,,,60ff3b4b49cf56250d170cc6,31,2022-02-12_16h55.29.177,lexical_decision_task_DD_L5,2021.2.3,Win32,61.61049843,,,,,,,,,,,0.7193,1,,,,,,,,,,,,,,,,,,,,,,,,0.015740811,-0.415740754,0,0,0,,,,,,,GRAIN,HB,z,y,./images/GRAINHB.png,,,,,,,,,,,,,,,,,,,,,z,1,0.7193,,,,,,,,0,110,110,159,1
,,,,,,,,,,,,,,,,,60ff3b4b49cf56250d170cc6,31,2022-02-12_16h55.29.177,lexical_decision_task_DD_L5,2021.2.3,Win32,61.61049843,,,,,,,,,,,0.6667,1,,,,,,,,,,,,,,,,,,,,,,,,0.015740811,-0.415740754,0,0,0,,,,,,,WALNUT,HB,m,y,./images/WALNUTHB.png,,,,,,,,,,,,,,,,,,,,,m,1,0.6667,,,,,,,,0,111,111,0,1
,,,,,,,,,,,,,,,,,60ff3b4b49cf56250d170cc6,31,2022-02-12_16h55.29.177,lexical_decision_task_DD_L5,2021.2.3,Win32,61.61049843,,,,,,,,,,,0.9219,1,,,,,,,,,,,,,,,,,,,,,,,,0.015740811,-0.415740754,0,0,0,,,,,,,BLOKE,HB,m,y,./images/BLOKEHB.png,,,,,,,,,,,,,,,,,,,,,m,1,0.9219,,,,,,,,0,112,112,12,1
,,,,,,,,,,,,,,,,,60ff3b4b49cf56250d170cc6,31,2022-02-12_16h55.29.177,lexical_decision_task_DD_L5,2021.2.3,Win32,61.61049843,,,,,,,,,,,0.5503,0,,,,,,,,,,,,,,,,,,,,,,,,0.015740811,-0.415740754,0,0,0,,,,,,,CRUST,LB,z,y,./images/CRUSTLB.png,,,,,,,,,,,,,,,,,,,,,m,0,0.5503,,,,,,,,0,113,113,163,1
,,,,,,,,,,,,,,,,,60ff3b4b49cf56250d170cc6,31,2022-02-12_16h55.29.177,lexical_decision_task_DD_L5,2021.2.3,Win32,61.61049843,,,,,,,,,,,0.7335,1,,,,,,,,,,,,,,,,,,,,,,,,0.015740811,-0.415740754,0,0,0,,,,,,,COUCH,C,z,y,./images/COUCH.png,,,,,,,,,,,,,,,,,,,,,z,1,0.7335,,,,,,,,0,114,114,161,1
,,,,,,,,,,,,,,,,,60ff3b4b49cf56250d170cc6,31,2022-02-12_16h55.29.177,lexical_decision_task_DD_L5,2021.2.3,Win32,61.61049843,,,,,,,,,,,0.7334,1,,,,,,,,,,,,,,,,,,,,,,,,0.015740811,-0.415740754,0,0,0,,,,,,,MONKEY,HB,m,y,./images/MONKEYHB.png,,,,,,,,,,,,,,,,,,,,,m,1,0.7334,,,,,,,,0,115,115,45,1
,,,,,,,,,,,,,,,,,60ff3b4b49cf56250d170cc6,31,2022-02-12_16h55.29.177,lexical_decision_task_DD_L5,2021.2.3,Win32,61.61049843,,,,,,,,,,,0.7502,1,,,,,,,,,,,,,,,,,,,,,,,,0.015740811,-0.415740754,0,0,0,,,,,,,CASINO,LB,m,y,./images/CASINOLB.png,,,,,,,,,,,,,,,,,,,,,m,1,0.7502,,,,,,,,0,116,116,28,1
,,,,,,,,,,,,,,,,,60ff3b4b49cf56250d170cc6,31,2022-02-12_16h55.29.177,lexical_decision_task_DD_L5,2021.2.3,Win32,61.61049843,,,,,,,,,,,0.9705,1,,,,,,,,,,,,,,,,,,,,,,,,0.015740811,-0.415740754,0,0,0,,,,,,,BIRTH,LB,z,y,./images/BIRTHLB.png,,,,,,,,,,,,,,,,,,,,,z,1,0.9705,,,,,,,,0,117,117,121,1
,,,,,,,,,,,,,,,,,60ff3b4b49cf56250d170cc6,31,2022-02-12_16h55.29.177,lexical_decision_task_DD_L5,2021.2.3,Win32,61.61049843,,,,,,,,,,,0.8839,0,,,,,,,,,,,,,,,,,,,,,,,,0.015740811,-0.415740754,0,0,0,,,,,,,JUMPER,C,m,y,./images/JUMPER.png,,,,,,,,,,,,,,,,,,,,,z,0,0.8839,,,,,,,,0,118,118,74,1
,,,,,,,,,,,,,,,,,60ff3b4b49cf56250d170cc6,31,2022-02-12_16h55.29.177,lexical_decision_task_DD_L5,2021.2.3,Win32,61.61049843,,,,,,,,,,,0.8188,1,,,,,,,,,,,,,,,,,,,,,,,,0.015740811,-0.415740754,0,0,0,,,,,,,TIGER,LB,m,y,./images/TIGERLB.png,,,,,,,,,,,,,,,,,,,,,m,1,0.8188,,,,,,,,0,119,119,37,1
,,,,,,,,,,,,,,,,,60ff3b4b49cf56250d170cc6,31,2022-02-12_16h55.29.177,lexical_decision_task_DD_L5,2021.2.3,Win32,61.61049843,,,,,,,,,,,0.5397,1,,,,,,,,,,,,,,,,,,,,,,,,0.015740811,-0.415740754,0,0,0,,,,,,,SHIELD,HB,m,y,./images/SHIELDHB.png,,,,,,,,,,,,,,,,,,,,,m,1,0.5397,,,,,,,,0,120,120,48,1
,,,,,,,,,,,,,,,,,60ff3b4b49cf56250d170cc6,31,2022-02-12_16h55.29.177,lexical_decision_task_DD_L5,2021.2.3,Win32,61.61049843,,,,,,,,,,,1.5114,1,,,,,,,,,,,,,,,,,,,,,,,,0.015740811,-0.415740754,0,0,0,,,,,,,MIRROR,HB,z,y,./images/MIRRORHB.png,,,,,,,,,,,,,,,,,,,,,z,1,1.5114,,,,,,,,0,121,121,147,1
,,,,,,,,,,,,,,,,,60ff3b4b49cf56250d170cc6,31,2022-02-12_16h55.29.177,lexical_decision_task_DD_L5,2021.2.3,Win32,61.61049843,,,,,,,,,,,1.3374,1,,,,,,,,,,,,,,,,,,,,,,,,0.015740811,-0.415740754,0,0,0,,,,,,,BRIDE,LB,m,y,./images/BRIDELB.png,,,,,,,,,,,,,,,,,,,,,m,1,1.3374,,,,,,,,0,122,122,64,1
,,,,,,,,,,,,,,,,,60ff3b4b49cf56250d170cc6,31,2022-02-12_16h55.29.177,lexical_decision_task_DD_L5,2021.2.3,Win32,61.61049843,,,,,,,,,,,0.7949,1,,,,,,,,,,,,,,,,,,,,,,,,0.015740811,-0.415740754,0,0,0,,,,,,,BANANA,LB,m,y,./images/BANANALB.png,,,,,,,,,,,,,,,,,,,,,m,1,0.7949,,,,,,,,0,123,123,70,1
,,,,,,,,,,,,,,,,,60ff3b4b49cf56250d170cc6,31,2022-02-12_16h55.29.177,lexical_decision_task_DD_L5,2021.2.3,Win32,61.61049843,,,,,,,,,,,1.7875,0,,,,,,,,,,,,,,,,,,,,,,,,0.015740811,-0.415740754,0,0,0,,,,,,,STOOL,LB,m,y,./images/STOOLLB.png,,,,,,,,,,,,,,,,,,,,,z,0,1.7875,,,,,,,,0,124,124,43,1
,,,,,,,,,,,,,,,,,60ff3b4b49cf56250d170cc6,31,2022-02-12_16h55.29.177,lexical_decision_task_DD_L5,2021.2.3,Win32,61.61049843,,,,,,,,,,,0.961,1,,,,,,,,,,,,,,,,,,,,,,,,0.015740811,-0.415740754,0,0,0,space,,,,,,HEATER,C,m,y,./images/HEATER.png,0.8875,,,,,,,,,,,,,,,,,,,,m,1,0.961,,,,,,,,0,125,125,56,1
,,,,,,,,,,,,,,,,,60ff3b4b49cf56250d170cc6,31,2022-02-12_16h55.29.177,lexical_decision_task_DD_L5,2021.2.3,Win32,61.61049843,,,,,,,,,,,0.7561,0,,,,,,,,,,,,,,,,,,,,,,,,0.015740811,-0.415740754,0,0,0,,,,,,,BELLY,LB,z,y,./images/BELLYLB.png,,,,,,,,,,,,,,,,,,,,,m,0,0.7561,,,,,,,,0,126,126,94,1
,,,,,,,,,,,,,,,,,60ff3b4b49cf56250d170cc6,31,2022-02-12_16h55.29.177,lexical_decision_task_DD_L5,2021.2.3,Win32,61.61049843,,,,,,,,,,,1.7253,1,,,,,,,,,,,,,,,,,,,,,,,,0.015740811,-0.415740754,0,0,0,,,,,,,CANDY,HB,m,y,./images/CANDYHB.png,,,,,,,,,,,,,,,,,,,,,m,1,1.7253,,,,,,,,0,127,127,39,1
,,,,,,,,,,,,,,,,,60ff3b4b49cf56250d170cc6,31,2022-02-12_16h55.29.177,lexical_decision_task_DD_L5,2021.2.3,Win32,61.61049843,,,,,,,,,,,4.217,1,,,,,,,,,,,,,,,,,,,,,,,,0.015740811,-0.415740754,0,0,0,,,,,,,BUTTER,HB,m,y,./images/BUTTERHB.png,,,,,,,,,,,,,,,,,,,,,m,1,4.217,,,,,,,,0,128,128,27,1
,,,,,,,,,,,,,,,,,60ff3b4b49cf56250d170cc6,31,2022-02-12_16h55.29.177,lexical_decision_task_DD_L5,2021.2.3,Win32,61.61049843,,,,,,,,,,,2.517,0,,,,,,,,,,,,,,,,,,,,,,,,0.015740811,-0.415740754,0,0,0,,,,,,,CURRY,HB,m,y,./images/CURRYHB.png,,,,,,,,,,,,,,,,,,,,,z,0,2.517,,,,,,,,0,129,129,60,1
,,,,,,,,,,,,,,,,,60ff3b4b49cf56250d170cc6,31,2022-02-12_16h55.29.177,lexical_decision_task_DD_L5,2021.2.3,Win32,61.61049843,,,,,,,,,,,2.5704,0,,,,,,,,,,,,,,,,,,,,,,,,0.015740811,-0.415740754,0,0,0,,,,,,,MAGGOT,HB,z,y,./images/MAGGOTHB.png,,,,,,,,,,,,,,,,,,,,,m,0,2.5704,,,,,,,,0,130,130,117,1
,,,,,,,,,,,,,,,,,60ff3b4b49cf56250d170cc6,31,2022-02-12_16h55.29.177,lexical_decision_task_DD_L5,2021.2.3,Win32,61.61049843,,,,,,,,,,,1.1167,1,,,,,,,,,,,,,,,,,,,,,,,,0.015740811,-0.415740754,0,0,0,,,,,,,FINGER,HB,z,y,./images/FINGERHB.png,,,,,,,,,,,,,,,,,,,,,z,1,1.1167,,,,,,,,0,131,131,87,1
