key_resp.keys,key_resp.rt,instr_done_touch.x,instr_done_touch.y,instr_done_touch.leftButton,instr_done_touch.midButton,instr_done_touch.rightButton,instruction_pages.thisRepN,instruction_pages.thisTrialN,instruction_pages.thisN,instruction_pages.thisIndex,instruction_pages.ran,pageN,phase,instruct_text,has_image,instruct_image,participant,age,date,expName,psychopyVersion,OS,frameRate,response.keys,response.corr,response.rt,touch_resp.x,touch_resp.y,touch_resp.leftButton,touch_resp.midButton,touch_resp.rightButton,touch_resp.time,touch_resp.clicked_name,rt,corr,practrials.thisRepN,practrials.thisTrialN,practrials.thisN,practrials.thisIndex,practrials.ran,TrialID,Target,corrAns,end_of_practice_trials_pages.thisRepN,end_of_practice_trials_pages.thisTrialN,end_of_practice_trials_pages.thisN,end_of_practice_trials_pages.thisIndex,end_of_practice_trials_pages.ran,key_resp_2.keys,key_resp_2.corr,key_resp_2.rt,targ_click.x,targ_click.y,targ_click.leftButton,targ_click.midButton,targ_click.rightButton,targ_click.time,targ_click.clicked_name,break_done_touch.x,break_done_touch.y,break_done_touch.leftButton,break_done_touch.midButton,break_done_touch.rightButton,break_done_keyboard.keys,maintrials.thisRepN,maintrials.thisTrialN,maintrials.thisN,maintrials.thisIndex,maintrials.ran,string,blur,study,lex,stim_path,break_done_keyboard.rt,mouse_2.x,mouse_2.y,mouse_2.leftButton,mouse_2.midButton,mouse_2.rightButton,mouse_2.clicked_name,slider.response,slider.rt,trials.thisRepN,trials.thisTrialN,trials.thisN,trials.thisIndex,trials.ran,test_instructions.thisRepN,test_instructions.thisTrialN,test_instructions.thisN,test_instructions.thisIndex,test_instructions.ran,instr_done_touch.clicked_name,key_resp_3.keys,key_resp_3.corr,key_resp_3.rt,test_click.x,test_click.y,test_click.leftButton,test_click.midButton,test_click.rightButton,test_click.time,test_click.clicked_name,test_phase.thisRepN,test_phase.thisTrialN,test_phase.thisN,test_phase.thisIndex,test_phase.ran
space,32.3611,0.69921875,-0.088541667,0,0,0,0,0,0,0,1,1,instructions,"INSTRUCTIONS
At the start of each trial, look at the plus sign  (+) in the center of the screen.  This tells you that a trial is about to begin and where to look. Second, the plus sign will disappear and a string of letters will appear. Your task is to determine if the string of letters is a word or not. If the item is a word press the M key (on keyboard)  or touch the word button (phone/tablet).  If the item is not a word,  press the  Z key (on keyboard)  or touch the nonword button (on phone/tablet). 
Press the space bar or touch  continue.",0,,61004b542c80cc7e7e441d7b,39,2022-02-12_17h33.54.991,lexical_decision_task_DD,2021.2.3,Win32,60.09615385,,,,,,,,,,,,,,,,,,,,,,,,,,,,,,,,,,,,,,,,,,,,,,,,,,,,,,,,,,,,,,,,,,,,,,,,,,,,,,,,,,,,,,
space,7.4165,0.69921875,-0.088541667,0,0,0,0,1,1,1,1,2,instructions,"If your device has a keyboard, press the 'Z' key for nonwords and the 'M' key for words.





Press the space bar or touch the button below to continue.",0,keyboard-example.gif,61004b542c80cc7e7e441d7b,39,2022-02-12_17h33.54.991,lexical_decision_task_DD,2021.2.3,Win32,60.09615385,,,,,,,,,,,,,,,,,,,,,,,,,,,,,,,,,,,,,,,,,,,,,,,,,,,,,,,,,,,,,,,,,,,,,,,,,,,,,,,,,,,,,,
space,3.7608,0.69921875,-0.088541667,0,0,0,0,2,2,2,1,3,instructions,"If you are using a touchscreen only device, use the buttons on the screen. Do not use the mouse.





Press the space bar or touch the button below to continue.",0,touchscreen-example.gif,61004b542c80cc7e7e441d7b,39,2022-02-12_17h33.54.991,lexical_decision_task_DD,2021.2.3,Win32,60.09615385,,,,,,,,,,,,,,,,,,,,,,,,,,,,,,,,,,,,,,,,,,,,,,,,,,,,,,,,,,,,,,,,,,,,,,,,,,,,,,,,,,,,,,
space,6.3665,0.36328125,-0.286458333,0,0,0,0,3,3,3,1,4,instructions,"It is very important that you respond as quickly and accurately as possible, as each letter string will only be on the screen for two seconds. If you do not respond within this time, the message 'Too slow!' will be displayed and the experiment will progress to the next letter string. The first 20 trials will be practice trials and you will receive feedback on your answers. 

Press the space bar or touch the button below to start the practice trials.",0,,61004b542c80cc7e7e441d7b,39,2022-02-12_17h33.54.991,lexical_decision_task_DD,2021.2.3,Win32,60.09615385,,,,,,,,,,,,,,,,,,,,,,,,,,,,,,,,,,,,,,,,,,,,,,,,,,,,,,,,,,,,,,,,,,,,,,,,,,,,,,,,,,,,,,
,,,,,,,,,,,,,,,,,61004b542c80cc7e7e441d7b,39,2022-02-12_17h33.54.991,lexical_decision_task_DD,2021.2.3,Win32,60.09615385,z,1,2.0888,,,,,,,,2.0888,1,0,0,0,10,1,1001,INLADE,z,,,,,,,,,,,,,,,,,,,,,,,,,,,,,,,,,,,,,,,,,,,,,,,,,,,,,,,,,,,,,,,,,,
,,,,,,,,,,,,,,,,,61004b542c80cc7e7e441d7b,39,2022-02-12_17h33.54.991,lexical_decision_task_DD,2021.2.3,Win32,60.09615385,z,1,1.1253,,,,,,,,1.1253,1,0,1,1,13,1,1001,ROUPET,z,,,,,,,,,,,,,,,,,,,,,,,,,,,,,,,,,,,,,,,,,,,,,,,,,,,,,,,,,,,,,,,,,,
,,,,,,,,,,,,,,,,,61004b542c80cc7e7e441d7b,39,2022-02-12_17h33.54.991,lexical_decision_task_DD,2021.2.3,Win32,60.09615385,z,1,0.7784,,,,,,,,0.7784,1,0,2,2,14,1,1001,THRALE,z,,,,,,,,,,,,,,,,,,,,,,,,,,,,,,,,,,,,,,,,,,,,,,,,,,,,,,,,,,,,,,,,,,
,,,,,,,,,,,,,,,,,61004b542c80cc7e7e441d7b,39,2022-02-12_17h33.54.991,lexical_decision_task_DD,2021.2.3,Win32,60.09615385,m,1,0.7222,,,,,,,,0.7222,1,0,3,3,1,1,1001,ADJUST,m,,,,,,,,,,,,,,,,,,,,,,,,,,,,,,,,,,,,,,,,,,,,,,,,,,,,,,,,,,,,,,,,,,
,,,,,,,,,,,,,,,,,61004b542c80cc7e7e441d7b,39,2022-02-12_17h33.54.991,lexical_decision_task_DD,2021.2.3,Win32,60.09615385,m,1,0.726,,,,,,,,0.726,1,0,4,4,0,1,1001,UTOPIA,m,,,,,,,,,,,,,,,,,,,,,,,,,,,,,,,,,,,,,,,,,,,,,,,,,,,,,,,,,,,,,,,,,,
,,,,,,,,,,,,,,,,,61004b542c80cc7e7e441d7b,39,2022-02-12_17h33.54.991,lexical_decision_task_DD,2021.2.3,Win32,60.09615385,m,1,0.6261,,,,,,,,0.6261,1,0,5,5,4,1,1001,SQUEAK,m,,,,,,,,,,,,,,,,,,,,,,,,,,,,,,,,,,,,,,,,,,,,,,,,,,,,,,,,,,,,,,,,,,
,,,,,,,,,,,,,,,,,61004b542c80cc7e7e441d7b,39,2022-02-12_17h33.54.991,lexical_decision_task_DD,2021.2.3,Win32,60.09615385,z,1,0.7483,,,,,,,,0.7483,1,0,6,6,12,1,1001,SPRINY,z,,,,,,,,,,,,,,,,,,,,,,,,,,,,,,,,,,,,,,,,,,,,,,,,,,,,,,,,,,,,,,,,,,
,,,,,,,,,,,,,,,,,61004b542c80cc7e7e441d7b,39,2022-02-12_17h33.54.991,lexical_decision_task_DD,2021.2.3,Win32,60.09615385,m,0,0.8471,,,,,,,,0.8471,0,0,7,7,9,1,1001,FARINY,z,,,,,,,,,,,,,,,,,,,,,,,,,,,,,,,,,,,,,,,,,,,,,,,,,,,,,,,,,,,,,,,,,,
,,,,,,,,,,,,,,,,,61004b542c80cc7e7e441d7b,39,2022-02-12_17h33.54.991,lexical_decision_task_DD,2021.2.3,Win32,60.09615385,z,1,1.2175,,,,,,,,1.2175,1,0,8,8,8,1,1001,ASLERT,z,,,,,,,,,,,,,,,,,,,,,,,,,,,,,,,,,,,,,,,,,,,,,,,,,,,,,,,,,,,,,,,,,,
,,,,,,,,,,,,,,,,,61004b542c80cc7e7e441d7b,39,2022-02-12_17h33.54.991,lexical_decision_task_DD,2021.2.3,Win32,60.09615385,m,1,0.7806,,,,,,,,0.7806,1,0,9,9,7,1,1001,VOLUME,m,,,,,,,,,,,,,,,,,,,,,,,,,,,,,,,,,,,,,,,,,,,,,,,,,,,,,,,,,,,,,,,,,,
,,,,,,,,,,,,,,,,,61004b542c80cc7e7e441d7b,39,2022-02-12_17h33.54.991,lexical_decision_task_DD,2021.2.3,Win32,60.09615385,z,1,1.1662,,,,,,,,1.1662,1,0,10,10,15,1,1001,WHAISE,z,,,,,,,,,,,,,,,,,,,,,,,,,,,,,,,,,,,,,,,,,,,,,,,,,,,,,,,,,,,,,,,,,,
,,,,,,,,,,,,,,,,,61004b542c80cc7e7e441d7b,39,2022-02-12_17h33.54.991,lexical_decision_task_DD,2021.2.3,Win32,60.09615385,m,1,0.9265,,,,,,,,0.9265,1,0,11,11,3,1,1001,MATRIX,m,,,,,,,,,,,,,,,,,,,,,,,,,,,,,,,,,,,,,,,,,,,,,,,,,,,,,,,,,,,,,,,,,,
,,,,,,,,,,,,,,,,,61004b542c80cc7e7e441d7b,39,2022-02-12_17h33.54.991,lexical_decision_task_DD,2021.2.3,Win32,60.09615385,m,1,0.6527,,,,,,,,0.6527,1,0,12,12,5,1,1001,OBTAIN,m,,,,,,,,,,,,,,,,,,,,,,,,,,,,,,,,,,,,,,,,,,,,,,,,,,,,,,,,,,,,,,,,,,
,,,,,,,,,,,,,,,,,61004b542c80cc7e7e441d7b,39,2022-02-12_17h33.54.991,lexical_decision_task_DD,2021.2.3,Win32,60.09615385,m,1,1.3986,,,,,,,,1.3986,1,0,13,13,6,1,1001,ZOMBIE,m,,,,,,,,,,,,,,,,,,,,,,,,,,,,,,,,,,,,,,,,,,,,,,,,,,,,,,,,,,,,,,,,,,
,,,,,,,,,,,,,,,,,61004b542c80cc7e7e441d7b,39,2022-02-12_17h33.54.991,lexical_decision_task_DD,2021.2.3,Win32,60.09615385,m,1,0.6779,,,,,,,,0.6779,1,0,14,14,2,1,1001,ALMOND,m,,,,,,,,,,,,,,,,,,,,,,,,,,,,,,,,,,,,,,,,,,,,,,,,,,,,,,,,,,,,,,,,,,
,,,,,,,,,,,,,,,,,61004b542c80cc7e7e441d7b,39,2022-02-12_17h33.54.991,lexical_decision_task_DD,2021.2.3,Win32,60.09615385,z,1,0.9545,,,,,,,,0.9545,1,0,15,15,11,1,1001,RASHET,z,,,,,,,,,,,,,,,,,,,,,,,,,,,,,,,,,,,,,,,,,,,,,,,,,,,,,,,,,,,,,,,,,,
space,13.5494,0.36328125,-0.286458333,0,0,0,,,,,,1,end_of_practice,"You have completed the practice trials. During the experimental trials, you will not receive feedback. 
Before you begin, please ensure that you are in a comfortable and quiet location and will not be disturbed for about 15 minutes, as we cannot use your data if you do not complete all the trials. 
 When you are ready to start the experimental trials, please press space or touch the button below.",,,61004b542c80cc7e7e441d7b,39,2022-02-12_17h33.54.991,lexical_decision_task_DD,2021.2.3,Win32,60.09615385,,,,,,,,,,,,,,,,,,,,,0,0,0,0,1,,,,,,,,,,,,,,,,,,,,,,,,,,,,,,,,,,,,,,,,,,,,,,,,,,,,,,,,,,,,,
,,,,,,,,,,,,,,,,,61004b542c80cc7e7e441d7b,39,2022-02-12_17h33.54.991,lexical_decision_task_DD,2021.2.3,Win32,60.09615385,,,,,,,,,,,3.5,1,,,,,,,,,,,,,,m,1,3.5,,,,,,,,0.36328125,-0.286458333,0,0,0,,0,0,0,22,1,MELON,HB,old,m,./images/MELONHB.png,,,,,,,,,,,,,,,,,,,,,,,,,,,,,,,,,,,
,,,,,,,,,,,,,,,,,61004b542c80cc7e7e441d7b,39,2022-02-12_17h33.54.991,lexical_decision_task_DD,2021.2.3,Win32,60.09615385,,,,,,,,,,,2.4793,1,,,,,,,,,,,,,,z,1,2.4793,,,,,,,,0.36328125,-0.286458333,0,0,0,,0,1,1,91,1,SHENS,HB,old,z,./images/SHENSHB.png,,,,,,,,,,,,,,,,,,,,,,,,,,,,,,,,,,,
,,,,,,,,,,,,,,,,,61004b542c80cc7e7e441d7b,39,2022-02-12_17h33.54.991,lexical_decision_task_DD,2021.2.3,Win32,60.09615385,,,,,,,,,,,1.5572,1,,,,,,,,,,,,,,z,1,1.5572,,,,,,,,0.36328125,-0.286458333,0,0,0,,0,2,2,151,1,TINKY,HB,old,z,./images/TINKYHB.png,,,,,,,,,,,,,,,,,,,,,,,,,,,,,,,,,,,
,,,,,,,,,,,,,,,,,61004b542c80cc7e7e441d7b,39,2022-02-12_17h33.54.991,lexical_decision_task_DD,2021.2.3,Win32,60.09615385,,,,,,,,,,,1.1505,0,,,,,,,,,,,,,,m,0,1.1505,,,,,,,,0.36328125,-0.286458333,0,0,0,,0,3,3,165,1,TROWN,C,old,z,./images/TROWN.png,,,,,,,,,,,,,,,,,,,,,,,,,,,,,,,,,,,
,,,,,,,,,,,,,,,,,61004b542c80cc7e7e441d7b,39,2022-02-12_17h33.54.991,lexical_decision_task_DD,2021.2.3,Win32,60.09615385,,,,,,,,,,,0.7934,1,,,,,,,,,,,,,,m,1,0.7934,,,,,,,,0.36328125,-0.286458333,0,0,0,,0,4,4,30,1,STORM,C,old,m,./images/STORM.png,,,,,,,,,,,,,,,,,,,,,,,,,,,,,,,,,,,
,,,,,,,,,,,,,,,,,61004b542c80cc7e7e441d7b,39,2022-02-12_17h33.54.991,lexical_decision_task_DD,2021.2.3,Win32,60.09615385,,,,,,,,,,,0.8707,1,,,,,,,,,,,,,,m,1,0.8707,,,,,,,,0.36328125,-0.286458333,0,0,0,,0,5,5,59,1,BURIAL,LB,old,m,./images/BURIALLB.png,,,,,,,,,,,,,,,,,,,,,,,,,,,,,,,,,,,
,,,,,,,,,,,,,,,,,61004b542c80cc7e7e441d7b,39,2022-02-12_17h33.54.991,lexical_decision_task_DD,2021.2.3,Win32,60.09615385,,,,,,,,,,,0.8595,1,,,,,,,,,,,,,,m,1,0.8595,,,,,,,,0.36328125,-0.286458333,0,0,0,,0,6,6,51,1,ONION,C,old,m,./images/ONION.png,,,,,,,,,,,,,,,,,,,,,,,,,,,,,,,,,,,
,,,,,,,,,,,,,,,,,61004b542c80cc7e7e441d7b,39,2022-02-12_17h33.54.991,lexical_decision_task_DD,2021.2.3,Win32,60.09615385,,,,,,,,,,,0.6139,1,,,,,,,,,,,,,,m,1,0.6139,,,,,,,,0.36328125,-0.286458333,0,0,0,,0,7,7,78,1,LITTER,C,old,m,./images/LITTER.png,,,,,,,,,,,,,,,,,,,,,,,,,,,,,,,,,,,
,,,,,,,,,,,,,,,,,61004b542c80cc7e7e441d7b,39,2022-02-12_17h33.54.991,lexical_decision_task_DD,2021.2.3,Win32,60.09615385,,,,,,,,,,,0.5619,1,,,,,,,,,,,,,,m,1,0.5619,,,,,,,,0.36328125,-0.286458333,0,0,0,,0,8,8,0,1,TOMATO,C,old,m,./images/TOMATO.png,,,,,,,,,,,,,,,,,,,,,,,,,,,,,,,,,,,
,,,,,,,,,,,,,,,,,61004b542c80cc7e7e441d7b,39,2022-02-12_17h33.54.991,lexical_decision_task_DD,2021.2.3,Win32,60.09615385,,,,,,,,,,,0.8504,1,,,,,,,,,,,,,,z,1,0.8504,,,,,,,,0.36328125,-0.286458333,0,0,0,,0,9,9,143,1,MONGS,LB,old,z,./images/MONGSLB.png,,,,,,,,,,,,,,,,,,,,,,,,,,,,,,,,,,,
,,,,,,,,,,,,,,,,,61004b542c80cc7e7e441d7b,39,2022-02-12_17h33.54.991,lexical_decision_task_DD,2021.2.3,Win32,60.09615385,,,,,,,,,,,0.8143,1,,,,,,,,,,,,,,z,1,0.8143,,,,,,,,0.36328125,-0.286458333,0,0,0,,0,10,10,101,1,GLEET,LB,old,z,./images/GLEETLB.png,,,,,,,,,,,,,,,,,,,,,,,,,,,,,,,,,,,
,,,,,,,,,,,,,,,,,61004b542c80cc7e7e441d7b,39,2022-02-12_17h33.54.991,lexical_decision_task_DD,2021.2.3,Win32,60.09615385,,,,,,,,,,,1.4446,1,,,,,,,,,,,,,,m,1,1.4446,,,,,,,,0.36328125,-0.286458333,0,0,0,,0,11,11,25,1,WRIST,HB,old,m,./images/WRISTHB.png,,,,,,,,,,,,,,,,,,,,,,,,,,,,,,,,,,,
,,,,,,,,,,,,,,,,,61004b542c80cc7e7e441d7b,39,2022-02-12_17h33.54.991,lexical_decision_task_DD,2021.2.3,Win32,60.09615385,,,,,,,,,,,0.7526,1,,,,,,,,,,,,,,m,1,0.7526,,,,,,,,0.36328125,-0.286458333,0,0,0,,0,12,12,20,1,CRADLE,LB,old,m,./images/CRADLELB.png,,,,,,,,,,,,,,,,,,,,,,,,,,,,,,,,,,,
,,,,,,,,,,,,,,,,,61004b542c80cc7e7e441d7b,39,2022-02-12_17h33.54.991,lexical_decision_task_DD,2021.2.3,Win32,60.09615385,,,,,,,,,,,1.7955,1,,,,,,,,,,,,,,z,1,1.7955,,,,,,,,0.36328125,-0.286458333,0,0,0,,0,13,13,100,1,DRIBS,HB,old,z,./images/DRIBSHB.png,,,,,,,,,,,,,,,,,,,,,,,,,,,,,,,,,,,
,,,,,,,,,,,,,,,,,61004b542c80cc7e7e441d7b,39,2022-02-12_17h33.54.991,lexical_decision_task_DD,2021.2.3,Win32,60.09615385,,,,,,,,,,,0.6682,1,,,,,,,,,,,,,,m,1,0.6682,,,,,,,,0.36328125,-0.286458333,0,0,0,,0,14,14,27,1,ATTIC,C,old,m,./images/ATTIC.png,,,,,,,,,,,,,,,,,,,,,,,,,,,,,,,,,,,
,,,,,,,,,,,,,,,,,61004b542c80cc7e7e441d7b,39,2022-02-12_17h33.54.991,lexical_decision_task_DD,2021.2.3,Win32,60.09615385,,,,,,,,,,,0.6727,1,,,,,,,,,,,,,,m,1,0.6727,,,,,,,,0.36328125,-0.286458333,0,0,0,,0,15,15,21,1,KIDNEY,C,old,m,./images/KIDNEY.png,,,,,,,,,,,,,,,,,,,,,,,,,,,,,,,,,,,
,,,,,,,,,,,,,,,,,61004b542c80cc7e7e441d7b,39,2022-02-12_17h33.54.991,lexical_decision_task_DD,2021.2.3,Win32,60.09615385,,,,,,,,,,,0.6761,1,,,,,,,,,,,,,,m,1,0.6761,,,,,,,,0.36328125,-0.286458333,0,0,0,,0,16,16,47,1,BERRY,LB,old,m,./images/BERRYLB.png,,,,,,,,,,,,,,,,,,,,,,,,,,,,,,,,,,,
,,,,,,,,,,,,,,,,,61004b542c80cc7e7e441d7b,39,2022-02-12_17h33.54.991,lexical_decision_task_DD,2021.2.3,Win32,60.09615385,,,,,,,,,,,1.1251,1,,,,,,,,,,,,,,z,1,1.1251,,,,,,,,0.36328125,-0.286458333,0,0,0,,0,17,17,163,1,GAMBA,HB,old,z,./images/GAMBAHB.png,,,,,,,,,,,,,,,,,,,,,,,,,,,,,,,,,,,
,,,,,,,,,,,,,,,,,61004b542c80cc7e7e441d7b,39,2022-02-12_17h33.54.991,lexical_decision_task_DD,2021.2.3,Win32,60.09615385,,,,,,,,,,,0.933,1,,,,,,,,,,,,,,z,1,0.933,,,,,,,,0.36328125,-0.286458333,0,0,0,,0,18,18,111,1,HOSSE,C,old,z,./images/HOSSE.png,,,,,,,,,,,,,,,,,,,,,,,,,,,,,,,,,,,
,,,,,,,,,,,,,,,,,61004b542c80cc7e7e441d7b,39,2022-02-12_17h33.54.991,lexical_decision_task_DD,2021.2.3,Win32,60.09615385,,,,,,,,,,,1.2864,1,,,,,,,,,,,,,,z,1,1.2864,,,,,,,,0.36328125,-0.286458333,0,0,0,,0,19,19,115,1,MAWNS,HB,old,z,./images/MAWNSHB.png,,,,,,,,,,,,,,,,,,,,,,,,,,,,,,,,,,,
,,,,,,,,,,,,,,,,,61004b542c80cc7e7e441d7b,39,2022-02-12_17h33.54.991,lexical_decision_task_DD,2021.2.3,Win32,60.09615385,,,,,,,,,,,1.6777,1,,,,,,,,,,,,,,z,1,1.6777,,,,,,,,0.36328125,-0.286458333,0,0,0,,0,20,20,97,1,CHIDS,HB,old,z,./images/CHIDSHB.png,,,,,,,,,,,,,,,,,,,,,,,,,,,,,,,,,,,
,,,,,,,,,,,,,,,,,61004b542c80cc7e7e441d7b,39,2022-02-12_17h33.54.991,lexical_decision_task_DD,2021.2.3,Win32,60.09615385,,,,,,,,,,,2.5468,1,,,,,,,,,,,,,,z,1,2.5468,,,,,,,,0.36328125,-0.286458333,0,0,0,,0,21,21,136,1,WERVE,HB,old,z,./images/WERVEHB.png,,,,,,,,,,,,,,,,,,,,,,,,,,,,,,,,,,,
,,,,,,,,,,,,,,,,,61004b542c80cc7e7e441d7b,39,2022-02-12_17h33.54.991,lexical_decision_task_DD,2021.2.3,Win32,60.09615385,,,,,,,,,,,1.7492,1,,,,,,,,,,,,,,z,1,1.7492,,,,,,,,0.36328125,-0.286458333,0,0,0,,0,22,22,120,1,RINED,C,old,z,./images/RINED.png,,,,,,,,,,,,,,,,,,,,,,,,,,,,,,,,,,,
,,,,,,,,,,,,,,,,,61004b542c80cc7e7e441d7b,39,2022-02-12_17h33.54.991,lexical_decision_task_DD,2021.2.3,Win32,60.09615385,,,,,,,,,,,0.6449,1,,,,,,,,,,,,,,m,1,0.6449,,,,,,,,0.36328125,-0.286458333,0,0,0,,0,23,23,48,1,SPORT,C,old,m,./images/SPORT.png,,,,,,,,,,,,,,,,,,,,,,,,,,,,,,,,,,,
,,,,,,,,,,,,,,,,,61004b542c80cc7e7e441d7b,39,2022-02-12_17h33.54.991,lexical_decision_task_DD,2021.2.3,Win32,60.09615385,,,,,,,,,,,0.6929,1,,,,,,,,,,,,,,m,1,0.6929,,,,,,,,0.36328125,-0.286458333,0,0,0,,0,24,24,2,1,BEARD,LB,old,m,./images/BEARDLB.png,,,,,,,,,,,,,,,,,,,,,,,,,,,,,,,,,,,
,,,,,,,,,,,,,,,,,61004b542c80cc7e7e441d7b,39,2022-02-12_17h33.54.991,lexical_decision_task_DD,2021.2.3,Win32,60.09615385,,,,,,,,,,,0.9783,1,,,,,,,,,,,,,,z,1,0.9783,,,,,,,,0.36328125,-0.286458333,0,0,0,,0,25,25,162,1,LEICH,C,old,z,./images/LEICH.png,,,,,,,,,,,,,,,,,,,,,,,,,,,,,,,,,,,
,,,,,,,,,,,,,,,,,61004b542c80cc7e7e441d7b,39,2022-02-12_17h33.54.991,lexical_decision_task_DD,2021.2.3,Win32,60.09615385,,,,,,,,,,,1.074,1,,,,,,,,,,,,,,z,1,1.074,,,,,,,,0.36328125,-0.286458333,0,0,0,,0,26,26,123,1,SEDGE,C,old,z,./images/SEDGE.png,,,,,,,,,,,,,,,,,,,,,,,,,,,,,,,,,,,
,,,,,,,,,,,,,,,,,61004b542c80cc7e7e441d7b,39,2022-02-12_17h33.54.991,lexical_decision_task_DD,2021.2.3,Win32,60.09615385,,,,,,,,,,,0.9901,1,,,,,,,,,,,,,,m,1,0.9901,,,,,,,,0.36328125,-0.286458333,0,0,0,,0,27,27,73,1,SNACK,HB,old,m,./images/SNACKHB.png,,,,,,,,,,,,,,,,,,,,,,,,,,,,,,,,,,,
,,,,,,,,,,,,,,,,,61004b542c80cc7e7e441d7b,39,2022-02-12_17h33.54.991,lexical_decision_task_DD,2021.2.3,Win32,60.09615385,,,,,,,,,,,0.8442,1,,,,,,,,,,,,,,z,1,0.8442,,,,,,,,0.36328125,-0.286458333,0,0,0,,0,28,28,150,1,NOOLS,C,old,z,./images/NOOLS.png,,,,,,,,,,,,,,,,,,,,,,,,,,,,,,,,,,,
,,,,,,,,,,,,,,,,,61004b542c80cc7e7e441d7b,39,2022-02-12_17h33.54.991,lexical_decision_task_DD,2021.2.3,Win32,60.09615385,,,,,,,,,,,0.6274,1,,,,,,,,,,,,,,m,1,0.6274,,,,,,,,0.36328125,-0.286458333,0,0,0,,0,29,29,69,1,COOKER,C,old,m,./images/COOKER.png,,,,,,,,,,,,,,,,,,,,,,,,,,,,,,,,,,,
,,,,,,,,,,,,,,,,,61004b542c80cc7e7e441d7b,39,2022-02-12_17h33.54.991,lexical_decision_task_DD,2021.2.3,Win32,60.09615385,,,,,,,,,,,2.4928,1,,,,,,,,,,,,,,z,1,2.4928,,,,,,,,0.36328125,-0.286458333,0,0,0,,0,30,30,94,1,BLANS,HB,old,z,./images/BLANSHB.png,,,,,,,,,,,,,,,,,,,,,,,,,,,,,,,,,,,
,,,,,,,,,,,,,,,,,61004b542c80cc7e7e441d7b,39,2022-02-12_17h33.54.991,lexical_decision_task_DD,2021.2.3,Win32,60.09615385,,,,,,,,,,,0.9266,1,,,,,,,,,,,,,,z,1,0.9266,,,,,,,,0.36328125,-0.286458333,0,0,0,,0,31,31,103,1,FLORT,HB,old,z,./images/FLORTHB.png,,,,,,,,,,,,,,,,,,,,,,,,,,,,,,,,,,,
,,,,,,,,,,,,,,,,,61004b542c80cc7e7e441d7b,39,2022-02-12_17h33.54.991,lexical_decision_task_DD,2021.2.3,Win32,60.09615385,,,,,,,,,,,1.143,1,,,,,,,,,,,,,,m,1,1.143,,,,,,,,0.36328125,-0.286458333,0,0,0,,0,32,32,28,1,FALCON,HB,old,m,./images/FALCONHB.png,,,,,,,,,,,,,,,,,,,,,,,,,,,,,,,,,,,
,,,,,,,,,,,,,,,,,61004b542c80cc7e7e441d7b,39,2022-02-12_17h33.54.991,lexical_decision_task_DD,2021.2.3,Win32,60.09615385,,,,,,,,,,,0.6427,1,,,,,,,,,,,,,,m,1,0.6427,,,,,,,,0.36328125,-0.286458333,0,0,0,,0,33,33,14,1,PICKLE,LB,old,m,./images/PICKLELB.png,,,,,,,,,,,,,,,,,,,,,,,,,,,,,,,,,,,
,,,,,,,,,,,,,,,,,61004b542c80cc7e7e441d7b,39,2022-02-12_17h33.54.991,lexical_decision_task_DD,2021.2.3,Win32,60.09615385,,,,,,,,,,,1.3825,1,,,,,,,,,,,,,,z,1,1.3825,,,,,,,,0.36328125,-0.286458333,0,0,0,,0,34,34,109,1,BURGE,HB,old,z,./images/BURGEHB.png,,,,,,,,,,,,,,,,,,,,,,,,,,,,,,,,,,,
,,,,,,,,,,,,,,,,,61004b542c80cc7e7e441d7b,39,2022-02-12_17h33.54.991,lexical_decision_task_DD,2021.2.3,Win32,60.09615385,,,,,,,,,,,0.5237,1,,,,,,,,,,,,,,m,1,0.5237,,,,,,,,0.36328125,-0.286458333,0,0,0,,0,35,35,6,1,SQUARE,C,old,m,./images/SQUARE.png,,,,,,,,,,,,,,,,,,,,,,,,,,,,,,,,,,,
,,,,,,,,,,,,,,,,,61004b542c80cc7e7e441d7b,39,2022-02-12_17h33.54.991,lexical_decision_task_DD,2021.2.3,Win32,60.09615385,,,,,,,,,,,2.4918,0,,,,,,,,,,,,,,m,0,2.4918,,,,,,,,0.36328125,-0.286458333,0,0,0,,0,36,36,110,1,CRUNK,LB,old,z,./images/CRUNKLB.png,,,,,,,,,,,,,,,,,,,,,,,,,,,,,,,,,,,
,,,,,,,,,,,,,,,,,61004b542c80cc7e7e441d7b,39,2022-02-12_17h33.54.991,lexical_decision_task_DD,2021.2.3,Win32,60.09615385,,,,,,,,,,,0.7891,1,,,,,,,,,,,,,,z,1,0.7891,,,,,,,,0.36328125,-0.286458333,0,0,0,,0,37,37,167,1,ZONET,LB,old,z,./images/ZONETLB.png,,,,,,,,,,,,,,,,,,,,,,,,,,,,,,,,,,,
,,,,,,,,,,,,,,,,,61004b542c80cc7e7e441d7b,39,2022-02-12_17h33.54.991,lexical_decision_task_DD,2021.2.3,Win32,60.09615385,,,,,,,,,,,0.6791,1,,,,,,,,,,,,,,m,1,0.6791,,,,,,,,0.36328125,-0.286458333,0,0,0,,0,38,38,38,1,LADDER,LB,old,m,./images/LADDERLB.png,,,,,,,,,,,,,,,,,,,,,,,,,,,,,,,,,,,
,,,,,,,,,,,,,,,,,61004b542c80cc7e7e441d7b,39,2022-02-12_17h33.54.991,lexical_decision_task_DD,2021.2.3,Win32,60.09615385,,,,,,,,,,,0.6432,1,,,,,,,,,,,,,,m,1,0.6432,,,,,,,,0.36328125,-0.286458333,0,0,0,,0,39,39,32,1,BARREL,LB,old,m,./images/BARRELLB.png,,,,,,,,,,,,,,,,,,,,,,,,,,,,,,,,,,,
,,,,,,,,,,,,,,,,,61004b542c80cc7e7e441d7b,39,2022-02-12_17h33.54.991,lexical_decision_task_DD,2021.2.3,Win32,60.09615385,,,,,,,,,,,0.6049,1,,,,,,,,,,,,,,m,1,0.6049,,,,,,,,0.36328125,-0.286458333,0,0,0,,0,40,40,80,1,WEASEL,LB,old,m,./images/WEASELLB.png,,,,,,,,,,,,,,,,,,,,,,,,,,,,,,,,,,,
,,,,,,,,,,,,,,,,,61004b542c80cc7e7e441d7b,39,2022-02-12_17h33.54.991,lexical_decision_task_DD,2021.2.3,Win32,60.09615385,,,,,,,,,,,0.6914,1,,,,,,,,,,,,,,z,1,0.6914,,,,,,,,0.36328125,-0.286458333,0,0,0,space,0,41,41,147,1,ZOLES,C,old,z,./images/ZOLES.png,5.7585,,,,,,,,,,,,,,,,,,,,,,,,,,,,,,,,,,
,,,,,,,,,,,,,,,,,61004b542c80cc7e7e441d7b,39,2022-02-12_17h33.54.991,lexical_decision_task_DD,2021.2.3,Win32,60.09615385,,,,,,,,,,,0.7463,1,,,,,,,,,,,,,,z,1,0.7463,,,,,,,,0.36328125,-0.286458333,0,0,0,,0,42,42,105,1,MOKER,C,old,z,./images/MOKER.png,,,,,,,,,,,,,,,,,,,,,,,,,,,,,,,,,,,
,,,,,,,,,,,,,,,,,61004b542c80cc7e7e441d7b,39,2022-02-12_17h33.54.991,lexical_decision_task_DD,2021.2.3,Win32,60.09615385,,,,,,,,,,,0.7539,1,,,,,,,,,,,,,,z,1,0.7539,,,,,,,,0.36328125,-0.286458333,0,0,0,,0,43,43,164,1,SGREW,LB,old,z,./images/SGREWLB.png,,,,,,,,,,,,,,,,,,,,,,,,,,,,,,,,,,,
,,,,,,,,,,,,,,,,,61004b542c80cc7e7e441d7b,39,2022-02-12_17h33.54.991,lexical_decision_task_DD,2021.2.3,Win32,60.09615385,,,,,,,,,,,1.0472,1,,,,,,,,,,,,,,m,1,1.0472,,,,,,,,0.36328125,-0.286458333,0,0,0,,0,44,44,82,1,SUNSET,HB,old,m,./images/SUNSETHB.png,,,,,,,,,,,,,,,,,,,,,,,,,,,,,,,,,,,
,,,,,,,,,,,,,,,,,61004b542c80cc7e7e441d7b,39,2022-02-12_17h33.54.991,lexical_decision_task_DD,2021.2.3,Win32,60.09615385,,,,,,,,,,,0.5532,1,,,,,,,,,,,,,,m,1,0.5532,,,,,,,,0.36328125,-0.286458333,0,0,0,,0,45,45,53,1,CARPET,LB,old,m,./images/CARPETLB.png,,,,,,,,,,,,,,,,,,,,,,,,,,,,,,,,,,,
,,,,,,,,,,,,,,,,,61004b542c80cc7e7e441d7b,39,2022-02-12_17h33.54.991,lexical_decision_task_DD,2021.2.3,Win32,60.09615385,,,,,,,,,,,2.9094,1,,,,,,,,,,,,,,m,1,2.9094,,,,,,,,0.36328125,-0.286458333,0,0,0,,0,46,46,31,1,QUILL,HB,old,m,./images/QUILLHB.png,,,,,,,,,,,,,,,,,,,,,,,,,,,,,,,,,,,
,,,,,,,,,,,,,,,,,61004b542c80cc7e7e441d7b,39,2022-02-12_17h33.54.991,lexical_decision_task_DD,2021.2.3,Win32,60.09615385,,,,,,,,,,,0.76,1,,,,,,,,,,,,,,z,1,0.76,,,,,,,,0.36328125,-0.286458333,0,0,0,,0,47,47,155,1,CANGY,LB,old,z,./images/CANGYLB.png,,,,,,,,,,,,,,,,,,,,,,,,,,,,,,,,,,,
,,,,,,,,,,,,,,,,,61004b542c80cc7e7e441d7b,39,2022-02-12_17h33.54.991,lexical_decision_task_DD,2021.2.3,Win32,60.09615385,,,,,,,,,,,0.7382,1,,,,,,,,,,,,,,z,1,0.7382,,,,,,,,0.36328125,-0.286458333,0,0,0,,0,48,48,90,1,NEAST,C,old,z,./images/NEAST.png,,,,,,,,,,,,,,,,,,,,,,,,,,,,,,,,,,,
,,,,,,,,,,,,,,,,,61004b542c80cc7e7e441d7b,39,2022-02-12_17h33.54.991,lexical_decision_task_DD,2021.2.3,Win32,60.09615385,,,,,,,,,,,1.2893,1,,,,,,,,,,,,,,z,1,1.2893,,,,,,,,0.36328125,-0.286458333,0,0,0,,0,49,49,154,1,THINT,HB,old,z,./images/THINTHB.png,,,,,,,,,,,,,,,,,,,,,,,,,,,,,,,,,,,
,,,,,,,,,,,,,,,,,61004b542c80cc7e7e441d7b,39,2022-02-12_17h33.54.991,lexical_decision_task_DD,2021.2.3,Win32,60.09615385,,,,,,,,,,,0.649,1,,,,,,,,,,,,,,m,1,0.649,,,,,,,,0.36328125,-0.286458333,0,0,0,,0,50,50,44,1,LIZARD,LB,old,m,./images/LIZARDLB.png,,,,,,,,,,,,,,,,,,,,,,,,,,,,,,,,,,,
,,,,,,,,,,,,,,,,,61004b542c80cc7e7e441d7b,39,2022-02-12_17h33.54.991,lexical_decision_task_DD,2021.2.3,Win32,60.09615385,,,,,,,,,,,0.6568,1,,,,,,,,,,,,,,m,1,0.6568,,,,,,,,0.36328125,-0.286458333,0,0,0,,0,51,51,68,1,TORCH,LB,old,m,./images/TORCHLB.png,,,,,,,,,,,,,,,,,,,,,,,,,,,,,,,,,,,
,,,,,,,,,,,,,,,,,61004b542c80cc7e7e441d7b,39,2022-02-12_17h33.54.991,lexical_decision_task_DD,2021.2.3,Win32,60.09615385,,,,,,,,,,,0.7135,1,,,,,,,,,,,,,,z,1,0.7135,,,,,,,,0.36328125,-0.286458333,0,0,0,,0,52,52,153,1,CLUPS,C,old,z,./images/CLUPS.png,,,,,,,,,,,,,,,,,,,,,,,,,,,,,,,,,,,
,,,,,,,,,,,,,,,,,61004b542c80cc7e7e441d7b,39,2022-02-12_17h33.54.991,lexical_decision_task_DD,2021.2.3,Win32,60.09615385,,,,,,,,,,,0.6552,1,,,,,,,,,,,,,,m,1,0.6552,,,,,,,,0.36328125,-0.286458333,0,0,0,,0,53,53,11,1,BONNET,LB,old,m,./images/BONNETLB.png,,,,,,,,,,,,,,,,,,,,,,,,,,,,,,,,,,,
,,,,,,,,,,,,,,,,,61004b542c80cc7e7e441d7b,39,2022-02-12_17h33.54.991,lexical_decision_task_DD,2021.2.3,Win32,60.09615385,,,,,,,,,,,0.6895,1,,,,,,,,,,,,,,z,1,0.6895,,,,,,,,0.36328125,-0.286458333,0,0,0,,0,54,54,161,1,BLAPS,LB,old,z,./images/BLAPSLB.png,,,,,,,,,,,,,,,,,,,,,,,,,,,,,,,,,,,
,,,,,,,,,,,,,,,,,61004b542c80cc7e7e441d7b,39,2022-02-12_17h33.54.991,lexical_decision_task_DD,2021.2.3,Win32,60.09615385,,,,,,,,,,,1.6928,1,,,,,,,,,,,,,,m,1,1.6928,,,,,,,,0.36328125,-0.286458333,0,0,0,,0,55,55,7,1,PAINT,HB,old,m,./images/PAINTHB.png,,,,,,,,,,,,,,,,,,,,,,,,,,,,,,,,,,,
,,,,,,,,,,,,,,,,,61004b542c80cc7e7e441d7b,39,2022-02-12_17h33.54.991,lexical_decision_task_DD,2021.2.3,Win32,60.09615385,,,,,,,,,,,0.6883,1,,,,,,,,,,,,,,z,1,0.6883,,,,,,,,0.36328125,-0.286458333,0,0,0,,0,56,56,131,1,NACES,LB,old,z,./images/NACESLB.png,,,,,,,,,,,,,,,,,,,,,,,,,,,,,,,,,,,
,,,,,,,,,,,,,,,,,61004b542c80cc7e7e441d7b,39,2022-02-12_17h33.54.991,lexical_decision_task_DD,2021.2.3,Win32,60.09615385,,,,,,,,,,,0.6575,1,,,,,,,,,,,,,,m,1,0.6575,,,,,,,,0.36328125,-0.286458333,0,0,0,,0,57,57,18,1,JAGUAR,C,old,m,./images/JAGUAR.png,,,,,,,,,,,,,,,,,,,,,,,,,,,,,,,,,,,
,,,,,,,,,,,,,,,,,61004b542c80cc7e7e441d7b,39,2022-02-12_17h33.54.991,lexical_decision_task_DD,2021.2.3,Win32,60.09615385,,,,,,,,,,,1.0271,1,,,,,,,,,,,,,,m,1,1.0271,,,,,,,,0.36328125,-0.286458333,0,0,0,,0,58,58,64,1,JELLY,HB,old,m,./images/JELLYHB.png,,,,,,,,,,,,,,,,,,,,,,,,,,,,,,,,,,,
,,,,,,,,,,,,,,,,,61004b542c80cc7e7e441d7b,39,2022-02-12_17h33.54.991,lexical_decision_task_DD,2021.2.3,Win32,60.09615385,,,,,,,,,,,0.785,1,,,,,,,,,,,,,,m,1,0.785,,,,,,,,0.36328125,-0.286458333,0,0,0,,0,59,59,54,1,TRIPOD,C,old,m,./images/TRIPOD.png,,,,,,,,,,,,,,,,,,,,,,,,,,,,,,,,,,,
,,,,,,,,,,,,,,,,,61004b542c80cc7e7e441d7b,39,2022-02-12_17h33.54.991,lexical_decision_task_DD,2021.2.3,Win32,60.09615385,,,,,,,,,,,0.5674,0,,,,,,,,,,,,,,z,0,0.5674,,,,,,,,0.36328125,-0.286458333,0,0,0,,0,60,60,72,1,NOOSE,C,old,m,./images/NOOSE.png,,,,,,,,,,,,,,,,,,,,,,,,,,,,,,,,,,,
,,,,,,,,,,,,,,,,,61004b542c80cc7e7e441d7b,39,2022-02-12_17h33.54.991,lexical_decision_task_DD,2021.2.3,Win32,60.09615385,,,,,,,,,,,0.6122,1,,,,,,,,,,,,,,m,1,0.6122,,,,,,,,0.36328125,-0.286458333,0,0,0,,0,61,61,45,1,KITTEN,C,old,m,./images/KITTEN.png,,,,,,,,,,,,,,,,,,,,,,,,,,,,,,,,,,,
,,,,,,,,,,,,,,,,,61004b542c80cc7e7e441d7b,39,2022-02-12_17h33.54.991,lexical_decision_task_DD,2021.2.3,Win32,60.09615385,,,,,,,,,,,0.6181,1,,,,,,,,,,,,,,m,1,0.6181,,,,,,,,0.36328125,-0.286458333,0,0,0,,0,62,62,63,1,MIRROR,C,old,m,./images/MIRROR.png,,,,,,,,,,,,,,,,,,,,,,,,,,,,,,,,,,,
,,,,,,,,,,,,,,,,,61004b542c80cc7e7e441d7b,39,2022-02-12_17h33.54.991,lexical_decision_task_DD,2021.2.3,Win32,60.09615385,,,,,,,,,,,1.0453,1,,,,,,,,,,,,,,m,1,1.0453,,,,,,,,0.36328125,-0.286458333,0,0,0,,0,63,63,34,1,CANYON,HB,old,m,./images/CANYONHB.png,,,,,,,,,,,,,,,,,,,,,,,,,,,,,,,,,,,
,,,,,,,,,,,,,,,,,61004b542c80cc7e7e441d7b,39,2022-02-12_17h33.54.991,lexical_decision_task_DD,2021.2.3,Win32,60.09615385,,,,,,,,,,,0.6935,1,,,,,,,,,,,,,,m,1,0.6935,,,,,,,,0.36328125,-0.286458333,0,0,0,,0,64,64,9,1,RHINO,C,old,m,./images/RHINO.png,,,,,,,,,,,,,,,,,,,,,,,,,,,,,,,,,,,
,,,,,,,,,,,,,,,,,61004b542c80cc7e7e441d7b,39,2022-02-12_17h33.54.991,lexical_decision_task_DD,2021.2.3,Win32,60.09615385,,,,,,,,,,,0.6553,1,,,,,,,,,,,,,,m,1,0.6553,,,,,,,,0.36328125,-0.286458333,0,0,0,,0,65,65,62,1,PURSE,LB,old,m,./images/PURSELB.png,,,,,,,,,,,,,,,,,,,,,,,,,,,,,,,,,,,
,,,,,,,,,,,,,,,,,61004b542c80cc7e7e441d7b,39,2022-02-12_17h33.54.991,lexical_decision_task_DD,2021.2.3,Win32,60.09615385,,,,,,,,,,,1.0785,1,,,,,,,,,,,,,,z,1,1.0785,,,,,,,,0.36328125,-0.286458333,0,0,0,,0,66,66,116,1,BALGY,LB,old,z,./images/BALGYLB.png,,,,,,,,,,,,,,,,,,,,,,,,,,,,,,,,,,,
,,,,,,,,,,,,,,,,,61004b542c80cc7e7e441d7b,39,2022-02-12_17h33.54.991,lexical_decision_task_DD,2021.2.3,Win32,60.09615385,,,,,,,,,,,1.5888,1,,,,,,,,,,,,,,z,1,1.5888,,,,,,,,0.36328125,-0.286458333,0,0,0,,0,67,67,166,1,SHORY,HB,old,z,./images/SHORYHB.png,,,,,,,,,,,,,,,,,,,,,,,,,,,,,,,,,,,
,,,,,,,,,,,,,,,,,61004b542c80cc7e7e441d7b,39,2022-02-12_17h33.54.991,lexical_decision_task_DD,2021.2.3,Win32,60.09615385,,,,,,,,,,,1.1404,1,,,,,,,,,,,,,,m,1,1.1404,,,,,,,,0.36328125,-0.286458333,0,0,0,,0,68,68,67,1,SAILOR,HB,old,m,./images/SAILORHB.png,,,,,,,,,,,,,,,,,,,,,,,,,,,,,,,,,,,
,,,,,,,,,,,,,,,,,61004b542c80cc7e7e441d7b,39,2022-02-12_17h33.54.991,lexical_decision_task_DD,2021.2.3,Win32,60.09615385,,,,,,,,,,,0.8864,0,,,,,,,,,,,,,,m,0,0.8864,,,,,,,,0.36328125,-0.286458333,0,0,0,,0,69,69,128,1,GRIFT,LB,old,z,./images/GRIFTLB.png,,,,,,,,,,,,,,,,,,,,,,,,,,,,,,,,,,,
,,,,,,,,,,,,,,,,,61004b542c80cc7e7e441d7b,39,2022-02-12_17h33.54.991,lexical_decision_task_DD,2021.2.3,Win32,60.09615385,,,,,,,,,,,0.5695,1,,,,,,,,,,,,,,m,1,0.5695,,,,,,,,0.36328125,-0.286458333,0,0,0,,0,70,70,60,1,TWINS,C,old,m,./images/TWINS.png,,,,,,,,,,,,,,,,,,,,,,,,,,,,,,,,,,,
,,,,,,,,,,,,,,,,,61004b542c80cc7e7e441d7b,39,2022-02-12_17h33.54.991,lexical_decision_task_DD,2021.2.3,Win32,60.09615385,,,,,,,,,,,0.7343,1,,,,,,,,,,,,,,z,1,0.7343,,,,,,,,0.36328125,-0.286458333,0,0,0,,0,71,71,159,1,CUDDY,C,old,z,./images/CUDDY.png,,,,,,,,,,,,,,,,,,,,,,,,,,,,,,,,,,,
,,,,,,,,,,,,,,,,,61004b542c80cc7e7e441d7b,39,2022-02-12_17h33.54.991,lexical_decision_task_DD,2021.2.3,Win32,60.09615385,,,,,,,,,,,0.7495,1,,,,,,,,,,,,,,z,1,0.7495,,,,,,,,0.36328125,-0.286458333,0,0,0,,0,72,72,146,1,MOOST,LB,old,z,./images/MOOSTLB.png,,,,,,,,,,,,,,,,,,,,,,,,,,,,,,,,,,,
,,,,,,,,,,,,,,,,,61004b542c80cc7e7e441d7b,39,2022-02-12_17h33.54.991,lexical_decision_task_DD,2021.2.3,Win32,60.09615385,,,,,,,,,,,0.9833,1,,,,,,,,,,,,,,m,1,0.9833,,,,,,,,0.36328125,-0.286458333,0,0,0,,0,73,73,46,1,PEARL,HB,old,m,./images/PEARLHB.png,,,,,,,,,,,,,,,,,,,,,,,,,,,,,,,,,,,
,,,,,,,,,,,,,,,,,61004b542c80cc7e7e441d7b,39,2022-02-12_17h33.54.991,lexical_decision_task_DD,2021.2.3,Win32,60.09615385,,,,,,,,,,,0.8759,1,,,,,,,,,,,,,,z,1,0.8759,,,,,,,,0.36328125,-0.286458333,0,0,0,,0,74,74,96,1,KEAMS,C,old,z,./images/KEAMS.png,,,,,,,,,,,,,,,,,,,,,,,,,,,,,,,,,,,
,,,,,,,,,,,,,,,,,61004b542c80cc7e7e441d7b,39,2022-02-12_17h33.54.991,lexical_decision_task_DD,2021.2.3,Win32,60.09615385,,,,,,,,,,,0.8335,1,,,,,,,,,,,,,,m,1,0.8335,,,,,,,,0.36328125,-0.286458333,0,0,0,,0,75,75,10,1,BELLY,HB,old,m,./images/BELLYHB.png,,,,,,,,,,,,,,,,,,,,,,,,,,,,,,,,,,,
,,,,,,,,,,,,,,,,,61004b542c80cc7e7e441d7b,39,2022-02-12_17h33.54.991,lexical_decision_task_DD,2021.2.3,Win32,60.09615385,,,,,,,,,,,0.688,1,,,,,,,,,,,,,,m,1,0.688,,,,,,,,0.36328125,-0.286458333,0,0,0,,0,76,76,57,1,MOOSE,C,old,m,./images/MOOSE.png,,,,,,,,,,,,,,,,,,,,,,,,,,,,,,,,,,,
,,,,,,,,,,,,,,,,,61004b542c80cc7e7e441d7b,39,2022-02-12_17h33.54.991,lexical_decision_task_DD,2021.2.3,Win32,60.09615385,,,,,,,,,,,0.5557,1,,,,,,,,,,,,,,m,1,0.5557,,,,,,,,0.36328125,-0.286458333,0,0,0,,0,77,77,3,1,FINGER,C,old,m,./images/FINGER.png,,,,,,,,,,,,,,,,,,,,,,,,,,,,,,,,,,,
,,,,,,,,,,,,,,,,,61004b542c80cc7e7e441d7b,39,2022-02-12_17h33.54.991,lexical_decision_task_DD,2021.2.3,Win32,60.09615385,,,,,,,,,,,0.6617,1,,,,,,,,,,,,,,z,1,0.6617,,,,,,,,0.36328125,-0.286458333,0,0,0,,0,78,78,135,1,JOODY,C,old,z,./images/JOODY.png,,,,,,,,,,,,,,,,,,,,,,,,,,,,,,,,,,,
,,,,,,,,,,,,,,,,,61004b542c80cc7e7e441d7b,39,2022-02-12_17h33.54.991,lexical_decision_task_DD,2021.2.3,Win32,60.09615385,,,,,,,,,,,1.0073,1,,,,,,,,,,,,,,z,1,1.0073,,,,,,,,0.36328125,-0.286458333,0,0,0,,0,79,79,158,1,EGECT,LB,old,z,./images/EGECTLB.png,,,,,,,,,,,,,,,,,,,,,,,,,,,,,,,,,,,
,,,,,,,,,,,,,,,,,61004b542c80cc7e7e441d7b,39,2022-02-12_17h33.54.991,lexical_decision_task_DD,2021.2.3,Win32,60.09615385,,,,,,,,,,,1.1395,1,,,,,,,,,,,,,,z,1,1.1395,,,,,,,,0.36328125,-0.286458333,0,0,0,,0,80,80,112,1,MYING,HB,old,z,./images/MYINGHB.png,,,,,,,,,,,,,,,,,,,,,,,,,,,,,,,,,,,
,,,,,,,,,,,,,,,,,61004b542c80cc7e7e441d7b,39,2022-02-12_17h33.54.991,lexical_decision_task_DD,2021.2.3,Win32,60.09615385,,,,,,,,,,,0.7972,1,,,,,,,,,,,,,,m,1,0.7972,,,,,,,,0.36328125,-0.286458333,0,0,0,,0,81,81,79,1,CRUST,HB,old,m,./images/CRUSTHB.png,,,,,,,,,,,,,,,,,,,,,,,,,,,,,,,,,,,
,,,,,,,,,,,,,,,,,61004b542c80cc7e7e441d7b,39,2022-02-12_17h33.54.991,lexical_decision_task_DD,2021.2.3,Win32,60.09615385,,,,,,,,,,,0.6802,1,,,,,,,,,,,,,,z,1,0.6802,,,,,,,,0.36328125,-0.286458333,0,0,0,,0,82,82,104,1,GITTY,LB,old,z,./images/GITTYLB.png,,,,,,,,,,,,,,,,,,,,,,,,,,,,,,,,,,,
,,,,,,,,,,,,,,,,,61004b542c80cc7e7e441d7b,39,2022-02-12_17h33.54.991,lexical_decision_task_DD,2021.2.3,Win32,60.09615385,,,,,,,,,,,0.7224,1,,,,,,,,,,,,,,m,1,0.7224,,,,,,,,0.36328125,-0.286458333,0,0,0,space,0,83,83,74,1,CEMENT,LB,old,m,./images/CEMENTLB.png,7.2991,,,,,,,,,,,,,,,,,,,,,,,,,,,,,,,,,,
,,,,,,,,,,,,,,,,,61004b542c80cc7e7e441d7b,39,2022-02-12_17h33.54.991,lexical_decision_task_DD,2021.2.3,Win32,60.09615385,,,,,,,,,,,0.7441,1,,,,,,,,,,,,,,z,1,0.7441,,,,,,,,0.36328125,-0.286458333,0,0,0,,0,84,84,138,1,PLICE,C,old,z,./images/PLICE.png,,,,,,,,,,,,,,,,,,,,,,,,,,,,,,,,,,,
,,,,,,,,,,,,,,,,,61004b542c80cc7e7e441d7b,39,2022-02-12_17h33.54.991,lexical_decision_task_DD,2021.2.3,Win32,60.09615385,,,,,,,,,,,0.6661,1,,,,,,,,,,,,,,z,1,0.6661,,,,,,,,0.36328125,-0.286458333,0,0,0,,0,85,85,144,1,NAIRY,C,old,z,./images/NAIRY.png,,,,,,,,,,,,,,,,,,,,,,,,,,,,,,,,,,,
,,,,,,,,,,,,,,,,,61004b542c80cc7e7e441d7b,39,2022-02-12_17h33.54.991,lexical_decision_task_DD,2021.2.3,Win32,60.09615385,,,,,,,,,,,1.0402,1,,,,,,,,,,,,,,m,1,1.0402,,,,,,,,0.36328125,-0.286458333,0,0,0,,0,86,86,4,1,MUSCLE,HB,old,m,./images/MUSCLEHB.png,,,,,,,,,,,,,,,,,,,,,,,,,,,,,,,,,,,
,,,,,,,,,,,,,,,,,61004b542c80cc7e7e441d7b,39,2022-02-12_17h33.54.991,lexical_decision_task_DD,2021.2.3,Win32,60.09615385,,,,,,,,,,,0.6135,1,,,,,,,,,,,,,,z,1,0.6135,,,,,,,,0.36328125,-0.286458333,0,0,0,,0,87,87,126,1,GUELS,C,old,z,./images/GUELS.png,,,,,,,,,,,,,,,,,,,,,,,,,,,,,,,,,,,
,,,,,,,,,,,,,,,,,61004b542c80cc7e7e441d7b,39,2022-02-12_17h33.54.991,lexical_decision_task_DD,2021.2.3,Win32,60.09615385,,,,,,,,,,,1.4832,1,,,,,,,,,,,,,,z,1,1.4832,,,,,,,,0.36328125,-0.286458333,0,0,0,,0,88,88,106,1,CLUMS,HB,old,z,./images/CLUMSHB.png,,,,,,,,,,,,,,,,,,,,,,,,,,,,,,,,,,,
,,,,,,,,,,,,,,,,,61004b542c80cc7e7e441d7b,39,2022-02-12_17h33.54.991,lexical_decision_task_DD,2021.2.3,Win32,60.09615385,,,,,,,,,,,0.6141,1,,,,,,,,,,,,,,m,1,0.6141,,,,,,,,0.36328125,-0.286458333,0,0,0,,0,89,89,12,1,SHORE,C,old,m,./images/SHORE.png,,,,,,,,,,,,,,,,,,,,,,,,,,,,,,,,,,,
,,,,,,,,,,,,,,,,,61004b542c80cc7e7e441d7b,39,2022-02-12_17h33.54.991,lexical_decision_task_DD,2021.2.3,Win32,60.09615385,,,,,,,,,,,0.6096,1,,,,,,,,,,,,,,m,1,0.6096,,,,,,,,0.36328125,-0.286458333,0,0,0,,0,90,90,77,1,COUCH,LB,old,m,./images/COUCHLB.png,,,,,,,,,,,,,,,,,,,,,,,,,,,,,,,,,,,
,,,,,,,,,,,,,,,,,61004b542c80cc7e7e441d7b,39,2022-02-12_17h33.54.991,lexical_decision_task_DD,2021.2.3,Win32,60.09615385,,,,,,,,,,,0.663,1,,,,,,,,,,,,,,m,1,0.663,,,,,,,,0.36328125,-0.286458333,0,0,0,,0,91,91,17,1,SKIING,LB,old,m,./images/SKIINGLB.png,,,,,,,,,,,,,,,,,,,,,,,,,,,,,,,,,,,
,,,,,,,,,,,,,,,,,61004b542c80cc7e7e441d7b,39,2022-02-12_17h33.54.991,lexical_decision_task_DD,2021.2.3,Win32,60.09615385,,,,,,,,,,,0.9524,1,,,,,,,,,,,,,,m,1,0.9524,,,,,,,,0.36328125,-0.286458333,0,0,0,,0,92,92,58,1,BABOON,HB,old,m,./images/BABOONHB.png,,,,,,,,,,,,,,,,,,,,,,,,,,,,,,,,,,,
,,,,,,,,,,,,,,,,,61004b542c80cc7e7e441d7b,39,2022-02-12_17h33.54.991,lexical_decision_task_DD,2021.2.3,Win32,60.09615385,,,,,,,,,,,0.7765,0,,,,,,,,,,,,,,m,0,0.7765,,,,,,,,0.36328125,-0.286458333,0,0,0,,0,93,93,142,1,PLASK,HB,old,z,./images/PLASKHB.png,,,,,,,,,,,,,,,,,,,,,,,,,,,,,,,,,,,
,,,,,,,,,,,,,,,,,61004b542c80cc7e7e441d7b,39,2022-02-12_17h33.54.991,lexical_decision_task_DD,2021.2.3,Win32,60.09615385,,,,,,,,,,,0.6505,1,,,,,,,,,,,,,,z,1,0.6505,,,,,,,,0.36328125,-0.286458333,0,0,0,,0,94,94,114,1,RIKES,C,old,z,./images/RIKES.png,,,,,,,,,,,,,,,,,,,,,,,,,,,,,,,,,,,
,,,,,,,,,,,,,,,,,61004b542c80cc7e7e441d7b,39,2022-02-12_17h33.54.991,lexical_decision_task_DD,2021.2.3,Win32,60.09615385,,,,,,,,,,,1.1864,1,,,,,,,,,,,,,,z,1,1.1864,,,,,,,,0.36328125,-0.286458333,0,0,0,,0,95,95,118,1,BAVEL,HB,old,z,./images/BAVELHB.png,,,,,,,,,,,,,,,,,,,,,,,,,,,,,,,,,,,
,,,,,,,,,,,,,,,,,61004b542c80cc7e7e441d7b,39,2022-02-12_17h33.54.991,lexical_decision_task_DD,2021.2.3,Win32,60.09615385,,,,,,,,,,,0.6341,1,,,,,,,,,,,,,,m,1,0.6341,,,,,,,,0.36328125,-0.286458333,0,0,0,,0,96,96,66,1,SWEAT,C,old,m,./images/SWEAT.png,,,,,,,,,,,,,,,,,,,,,,,,,,,,,,,,,,,
,,,,,,,,,,,,,,,,,61004b542c80cc7e7e441d7b,39,2022-02-12_17h33.54.991,lexical_decision_task_DD,2021.2.3,Win32,60.09615385,,,,,,,,,,,0.836,1,,,,,,,,,,,,,,z,1,0.836,,,,,,,,0.36328125,-0.286458333,0,0,0,,0,97,97,92,1,PAIMS,LB,old,z,./images/PAIMSLB.png,,,,,,,,,,,,,,,,,,,,,,,,,,,,,,,,,,,
,,,,,,,,,,,,,,,,,61004b542c80cc7e7e441d7b,39,2022-02-12_17h33.54.991,lexical_decision_task_DD,2021.2.3,Win32,60.09615385,,,,,,,,,,,2.0732,1,,,,,,,,,,,,,,z,1,2.0732,,,,,,,,0.36328125,-0.286458333,0,0,0,,0,98,98,127,1,NINDY,HB,old,z,./images/NINDYHB.png,,,,,,,,,,,,,,,,,,,,,,,,,,,,,,,,,,,
,,,,,,,,,,,,,,,,,61004b542c80cc7e7e441d7b,39,2022-02-12_17h33.54.991,lexical_decision_task_DD,2021.2.3,Win32,60.09615385,,,,,,,,,,,1.5288,1,,,,,,,,,,,,,,z,1,1.5288,,,,,,,,0.36328125,-0.286458333,0,0,0,,0,99,99,145,1,LAMEL,HB,old,z,./images/LAMELHB.png,,,,,,,,,,,,,,,,,,,,,,,,,,,,,,,,,,,
,,,,,,,,,,,,,,,,,61004b542c80cc7e7e441d7b,39,2022-02-12_17h33.54.991,lexical_decision_task_DD,2021.2.3,Win32,60.09615385,,,,,,,,,,,0.8005,1,,,,,,,,,,,,,,z,1,0.8005,,,,,,,,0.36328125,-0.286458333,0,0,0,,0,100,100,107,1,FASKS,LB,old,z,./images/FASKSLB.png,,,,,,,,,,,,,,,,,,,,,,,,,,,,,,,,,,,
,,,,,,,,,,,,,,,,,61004b542c80cc7e7e441d7b,39,2022-02-12_17h33.54.991,lexical_decision_task_DD,2021.2.3,Win32,60.09615385,,,,,,,,,,,0.7425,1,,,,,,,,,,,,,,z,1,0.7425,,,,,,,,0.36328125,-0.286458333,0,0,0,,0,101,101,113,1,LINEW,LB,old,z,./images/LINEWLB.png,,,,,,,,,,,,,,,,,,,,,,,,,,,,,,,,,,,
,,,,,,,,,,,,,,,,,61004b542c80cc7e7e441d7b,39,2022-02-12_17h33.54.991,lexical_decision_task_DD,2021.2.3,Win32,60.09615385,,,,,,,,,,,0.9592,1,,,,,,,,,,,,,,z,1,0.9592,,,,,,,,0.36328125,-0.286458333,0,0,0,,0,102,102,160,1,VEETS,HB,old,z,./images/VEETSHB.png,,,,,,,,,,,,,,,,,,,,,,,,,,,,,,,,,,,
,,,,,,,,,,,,,,,,,61004b542c80cc7e7e441d7b,39,2022-02-12_17h33.54.991,lexical_decision_task_DD,2021.2.3,Win32,60.09615385,,,,,,,,,,,0.6374,1,,,,,,,,,,,,,,z,1,0.6374,,,,,,,,0.36328125,-0.286458333,0,0,0,,0,103,103,98,1,BAMPS,LB,old,z,./images/BAMPSLB.png,,,,,,,,,,,,,,,,,,,,,,,,,,,,,,,,,,,
,,,,,,,,,,,,,,,,,61004b542c80cc7e7e441d7b,39,2022-02-12_17h33.54.991,lexical_decision_task_DD,2021.2.3,Win32,60.09615385,,,,,,,,,,,1.024,1,,,,,,,,,,,,,,m,1,1.024,,,,,,,,0.36328125,-0.286458333,0,0,0,,0,104,104,55,1,MUFFIN,HB,old,m,./images/MUFFINHB.png,,,,,,,,,,,,,,,,,,,,,,,,,,,,,,,,,,,
,,,,,,,,,,,,,,,,,61004b542c80cc7e7e441d7b,39,2022-02-12_17h33.54.991,lexical_decision_task_DD,2021.2.3,Win32,60.09615385,,,,,,,,,,,0.7244,1,,,,,,,,,,,,,,z,1,0.7244,,,,,,,,0.36328125,-0.286458333,0,0,0,,0,105,105,95,1,HANTY,LB,old,z,./images/HANTYLB.png,,,,,,,,,,,,,,,,,,,,,,,,,,,,,,,,,,,
,,,,,,,,,,,,,,,,,61004b542c80cc7e7e441d7b,39,2022-02-12_17h33.54.991,lexical_decision_task_DD,2021.2.3,Win32,60.09615385,,,,,,,,,,,0.7038,1,,,,,,,,,,,,,,z,1,0.7038,,,,,,,,0.36328125,-0.286458333,0,0,0,,0,106,106,125,1,MOOKY,LB,old,z,./images/MOOKYLB.png,,,,,,,,,,,,,,,,,,,,,,,,,,,,,,,,,,,
,,,,,,,,,,,,,,,,,61004b542c80cc7e7e441d7b,39,2022-02-12_17h33.54.991,lexical_decision_task_DD,2021.2.3,Win32,60.09615385,,,,,,,,,,,1.8501,1,,,,,,,,,,,,,,z,1,1.8501,,,,,,,,0.36328125,-0.286458333,0,0,0,,0,107,107,124,1,TUNCH,HB,old,z,./images/TUNCHHB.png,,,,,,,,,,,,,,,,,,,,,,,,,,,,,,,,,,,
,,,,,,,,,,,,,,,,,61004b542c80cc7e7e441d7b,39,2022-02-12_17h33.54.991,lexical_decision_task_DD,2021.2.3,Win32,60.09615385,,,,,,,,,,,1.3879,1,,,,,,,,,,,,,,z,1,1.3879,,,,,,,,0.36328125,-0.286458333,0,0,0,,0,108,108,130,1,CRILL,HB,old,z,./images/CRILLHB.png,,,,,,,,,,,,,,,,,,,,,,,,,,,,,,,,,,,
,,,,,,,,,,,,,,,,,61004b542c80cc7e7e441d7b,39,2022-02-12_17h33.54.991,lexical_decision_task_DD,2021.2.3,Win32,60.09615385,,,,,,,,,,,0.6487,1,,,,,,,,,,,,,,z,1,0.6487,,,,,,,,0.36328125,-0.286458333,0,0,0,,0,109,109,117,1,STEEG,C,old,z,./images/STEEG.png,,,,,,,,,,,,,,,,,,,,,,,,,,,,,,,,,,,
,,,,,,,,,,,,,,,,,61004b542c80cc7e7e441d7b,39,2022-02-12_17h33.54.991,lexical_decision_task_DD,2021.2.3,Win32,60.09615385,,,,,,,,,,,1.9112,1,,,,,,,,,,,,,,z,1,1.9112,,,,,,,,0.36328125,-0.286458333,0,0,0,,0,110,110,133,1,POWDY,HB,old,z,./images/POWDYHB.png,,,,,,,,,,,,,,,,,,,,,,,,,,,,,,,,,,,
,,,,,,,,,,,,,,,,,61004b542c80cc7e7e441d7b,39,2022-02-12_17h33.54.991,lexical_decision_task_DD,2021.2.3,Win32,60.09615385,,,,,,,,,,,0.7455,1,,,,,,,,,,,,,,z,1,0.7455,,,,,,,,0.36328125,-0.286458333,0,0,0,,0,111,111,129,1,PRANS,C,old,z,./images/PRANS.png,,,,,,,,,,,,,,,,,,,,,,,,,,,,,,,,,,,
,,,,,,,,,,,,,,,,,61004b542c80cc7e7e441d7b,39,2022-02-12_17h33.54.991,lexical_decision_task_DD,2021.2.3,Win32,60.09615385,,,,,,,,,,,1.8479,1,,,,,,,,,,,,,,z,1,1.8479,,,,,,,,0.36328125,-0.286458333,0,0,0,,0,112,112,157,1,INLER,HB,old,z,./images/INLERHB.png,,,,,,,,,,,,,,,,,,,,,,,,,,,,,,,,,,,
,,,,,,,,,,,,,,,,,61004b542c80cc7e7e441d7b,39,2022-02-12_17h33.54.991,lexical_decision_task_DD,2021.2.3,Win32,60.09615385,,,,,,,,,,,1.7085,1,,,,,,,,,,,,,,z,1,1.7085,,,,,,,,0.36328125,-0.286458333,0,0,0,,0,113,113,88,1,GLUSH,HB,old,z,./images/GLUSHHB.png,,,,,,,,,,,,,,,,,,,,,,,,,,,,,,,,,,,
,,,,,,,,,,,,,,,,,61004b542c80cc7e7e441d7b,39,2022-02-12_17h33.54.991,lexical_decision_task_DD,2021.2.3,Win32,60.09615385,,,,,,,,,,,0.9452,1,,,,,,,,,,,,,,m,1,0.9452,,,,,,,,0.36328125,-0.286458333,0,0,0,,0,114,114,52,1,BANNER,HB,old,m,./images/BANNERHB.png,,,,,,,,,,,,,,,,,,,,,,,,,,,,,,,,,,,
,,,,,,,,,,,,,,,,,61004b542c80cc7e7e441d7b,39,2022-02-12_17h33.54.991,lexical_decision_task_DD,2021.2.3,Win32,60.09615385,,,,,,,,,,,0.6908,1,,,,,,,,,,,,,,z,1,0.6908,,,,,,,,0.36328125,-0.286458333,0,0,0,,0,115,115,86,1,AIFED,LB,old,z,./images/AIFEDLB.png,,,,,,,,,,,,,,,,,,,,,,,,,,,,,,,,,,,
,,,,,,,,,,,,,,,,,61004b542c80cc7e7e441d7b,39,2022-02-12_17h33.54.991,lexical_decision_task_DD,2021.2.3,Win32,60.09615385,,,,,,,,,,,0.8955,1,,,,,,,,,,,,,,m,1,0.8955,,,,,,,,0.36328125,-0.286458333,0,0,0,,0,116,116,13,1,MOTOR,HB,old,m,./images/MOTORHB.png,,,,,,,,,,,,,,,,,,,,,,,,,,,,,,,,,,,
,,,,,,,,,,,,,,,,,61004b542c80cc7e7e441d7b,39,2022-02-12_17h33.54.991,lexical_decision_task_DD,2021.2.3,Win32,60.09615385,,,,,,,,,,,0.6148,1,,,,,,,,,,,,,,m,1,0.6148,,,,,,,,0.36328125,-0.286458333,0,0,0,,0,117,117,50,1,MALLET,LB,old,m,./images/MALLETLB.png,,,,,,,,,,,,,,,,,,,,,,,,,,,,,,,,,,,
,,,,,,,,,,,,,,,,,61004b542c80cc7e7e441d7b,39,2022-02-12_17h33.54.991,lexical_decision_task_DD,2021.2.3,Win32,60.09615385,,,,,,,,,,,0.6931,1,,,,,,,,,,,,,,m,1,0.6931,,,,,,,,0.36328125,-0.286458333,0,0,0,,0,118,118,8,1,TULIP,LB,old,m,./images/TULIPLB.png,,,,,,,,,,,,,,,,,,,,,,,,,,,,,,,,,,,
,,,,,,,,,,,,,,,,,61004b542c80cc7e7e441d7b,39,2022-02-12_17h33.54.991,lexical_decision_task_DD,2021.2.3,Win32,60.09615385,,,,,,,,,,,2.0776,1,,,,,,,,,,,,,,m,1,2.0776,,,,,,,,0.36328125,-0.286458333,0,0,0,,0,119,119,76,1,INFANT,HB,old,m,./images/INFANTHB.png,,,,,,,,,,,,,,,,,,,,,,,,,,,,,,,,,,,
,,,,,,,,,,,,,,,,,61004b542c80cc7e7e441d7b,39,2022-02-12_17h33.54.991,lexical_decision_task_DD,2021.2.3,Win32,60.09615385,,,,,,,,,,,0.6656,1,,,,,,,,,,,,,,m,1,0.6656,,,,,,,,0.36328125,-0.286458333,0,0,0,,0,120,120,41,1,STRING,LB,old,m,./images/STRINGLB.png,,,,,,,,,,,,,,,,,,,,,,,,,,,,,,,,,,,
,,,,,,,,,,,,,,,,,61004b542c80cc7e7e441d7b,39,2022-02-12_17h33.54.991,lexical_decision_task_DD,2021.2.3,Win32,60.09615385,,,,,,,,,,,1.2908,1,,,,,,,,,,,,,,z,1,1.2908,,,,,,,,0.36328125,-0.286458333,0,0,0,,0,121,121,139,1,BLEAR,HB,old,z,./images/BLEARHB.png,,,,,,,,,,,,,,,,,,,,,,,,,,,,,,,,,,,
,,,,,,,,,,,,,,,,,61004b542c80cc7e7e441d7b,39,2022-02-12_17h33.54.991,lexical_decision_task_DD,2021.2.3,Win32,60.09615385,,,,,,,,,,,0.8131,1,,,,,,,,,,,,,,m,1,0.8131,,,,,,,,0.36328125,-0.286458333,0,0,0,,0,122,122,19,1,DOUGH,HB,old,m,./images/DOUGHHB.png,,,,,,,,,,,,,,,,,,,,,,,,,,,,,,,,,,,
,,,,,,,,,,,,,,,,,61004b542c80cc7e7e441d7b,39,2022-02-12_17h33.54.991,lexical_decision_task_DD,2021.2.3,Win32,60.09615385,,,,,,,,,,,0.7266,1,,,,,,,,,,,,,,m,1,0.7266,,,,,,,,0.36328125,-0.286458333,0,0,0,,0,123,123,61,1,CANDLE,HB,old,m,./images/CANDLEHB.png,,,,,,,,,,,,,,,,,,,,,,,,,,,,,,,,,,,
,,,,,,,,,,,,,,,,,61004b542c80cc7e7e441d7b,39,2022-02-12_17h33.54.991,lexical_decision_task_DD,2021.2.3,Win32,60.09615385,,,,,,,,,,,0.8045,1,,,,,,,,,,,,,,z,1,0.8045,,,,,,,,0.36328125,-0.286458333,0,0,0,,0,124,124,152,1,FRAIN,LB,old,z,./images/FRAINLB.png,,,,,,,,,,,,,,,,,,,,,,,,,,,,,,,,,,,
,,,,,,,,,,,,,,,,,61004b542c80cc7e7e441d7b,39,2022-02-12_17h33.54.991,lexical_decision_task_DD,2021.2.3,Win32,60.09615385,,,,,,,,,,,0.812,1,,,,,,,,,,,,,,m,1,0.812,,,,,,,,0.36328125,-0.286458333,0,0,0,space,0,125,125,83,1,JUNGLE,LB,old,m,./images/JUNGLELB.png,3.6787,,,,,,,,,,,,,,,,,,,,,,,,,,,,,,,,,,
,,,,,,,,,,,,,,,,,61004b542c80cc7e7e441d7b,39,2022-02-12_17h33.54.991,lexical_decision_task_DD,2021.2.3,Win32,60.09615385,,,,,,,,,,,0.8026,1,,,,,,,,,,,,,,m,1,0.8026,,,,,,,,0.36328125,-0.286458333,0,0,0,,0,126,126,40,1,SWING,HB,old,m,./images/SWINGHB.png,,,,,,,,,,,,,,,,,,,,,,,,,,,,,,,,,,,
,,,,,,,,,,,,,,,,,61004b542c80cc7e7e441d7b,39,2022-02-12_17h33.54.991,lexical_decision_task_DD,2021.2.3,Win32,60.09615385,,,,,,,,,,,0.5818,1,,,,,,,,,,,,,,z,1,0.5818,,,,,,,,0.36328125,-0.286458333,0,0,0,,0,127,127,99,1,BACKY,C,old,z,./images/BACKY.png,,,,,,,,,,,,,,,,,,,,,,,,,,,,,,,,,,,
,,,,,,,,,,,,,,,,,61004b542c80cc7e7e441d7b,39,2022-02-12_17h33.54.991,lexical_decision_task_DD,2021.2.3,Win32,60.09615385,,,,,,,,,,,0.627,1,,,,,,,,,,,,,,z,1,0.627,,,,,,,,0.36328125,-0.286458333,0,0,0,,0,128,128,119,1,PAFER,LB,old,z,./images/PAFERLB.png,,,,,,,,,,,,,,,,,,,,,,,,,,,,,,,,,,,
,,,,,,,,,,,,,,,,,61004b542c80cc7e7e441d7b,39,2022-02-12_17h33.54.991,lexical_decision_task_DD,2021.2.3,Win32,60.09615385,,,,,,,,,,,0.5493,1,,,,,,,,,,,,,,z,1,0.5493,,,,,,,,0.36328125,-0.286458333,0,0,0,,0,129,129,156,1,HIXES,C,old,z,./images/HIXES.png,,,,,,,,,,,,,,,,,,,,,,,,,,,,,,,,,,,
,,,,,,,,,,,,,,,,,61004b542c80cc7e7e441d7b,39,2022-02-12_17h33.54.991,lexical_decision_task_DD,2021.2.3,Win32,60.09615385,,,,,,,,,,,0.5969,1,,,,,,,,,,,,,,m,1,0.5969,,,,,,,,0.36328125,-0.286458333,0,0,0,,0,130,130,29,1,CRUMB,LB,old,m,./images/CRUMBLB.png,,,,,,,,,,,,,,,,,,,,,,,,,,,,,,,,,,,
,,,,,,,,,,,,,,,,,61004b542c80cc7e7e441d7b,39,2022-02-12_17h33.54.991,lexical_decision_task_DD,2021.2.3,Win32,60.09615385,,,,,,,,,,,0.6525,1,,,,,,,,,,,,,,m,1,0.6525,,,,,,,,0.36328125,-0.286458333,0,0,0,,0,131,131,81,1,POODLE,C,old,m,./images/POODLE.png,,,,,,,,,,,,,,,,,,,,,,,,,,,,,,,,,,,
,,,,,,,,,,,,,,,,,61004b542c80cc7e7e441d7b,39,2022-02-12_17h33.54.991,lexical_decision_task_DD,2021.2.3,Win32,60.09615385,,,,,,,,,,,0.5925,1,,,,,,,,,,,,,,m,1,0.5925,,,,,,,,0.36328125,-0.286458333,0,0,0,,0,132,132,42,1,FOLDER,C,old,m,./images/FOLDER.png,,,,,,,,,,,,,,,,,,,,,,,,,,,,,,,,,,,
,,,,,,,,,,,,,,,,,61004b542c80cc7e7e441d7b,39,2022-02-12_17h33.54.991,lexical_decision_task_DD,2021.2.3,Win32,60.09615385,,,,,,,,,,,0.5372,1,,,,,,,,,,,,,,m,1,0.5372,,,,,,,,0.36328125,-0.286458333,0,0,0,,0,133,133,15,1,GREASE,C,old,m,./images/GREASE.png,,,,,,,,,,,,,,,,,,,,,,,,,,,,,,,,,,,
,,,,,,,,,,,,,,,,,61004b542c80cc7e7e441d7b,39,2022-02-12_17h33.54.991,lexical_decision_task_DD,2021.2.3,Win32,60.09615385,,,,,,,,,,,0.5588,1,,,,,,,,,,,,,,m,1,0.5588,,,,,,,,0.36328125,-0.286458333,0,0,0,,0,134,134,5,1,PASTA,LB,old,m,./images/PASTALB.png,,,,,,,,,,,,,,,,,,,,,,,,,,,,,,,,,,,
,,,,,,,,,,,,,,,,,61004b542c80cc7e7e441d7b,39,2022-02-12_17h33.54.991,lexical_decision_task_DD,2021.2.3,Win32,60.09615385,,,,,,,,,,,1.6211,1,,,,,,,,,,,,,,z,1,1.6211,,,,,,,,0.36328125,-0.286458333,0,0,0,,0,135,135,85,1,CHULK,HB,old,z,./images/CHULKHB.png,,,,,,,,,,,,,,,,,,,,,,,,,,,,,,,,,,,
,,,,,,,,,,,,,,,,,61004b542c80cc7e7e441d7b,39,2022-02-12_17h33.54.991,lexical_decision_task_DD,2021.2.3,Win32,60.09615385,,,,,,,,,,,0.689,1,,,,,,,,,,,,,,z,1,0.689,,,,,,,,0.36328125,-0.286458333,0,0,0,,0,136,136,149,1,VEASE,LB,old,z,./images/VEASELB.png,,,,,,,,,,,,,,,,,,,,,,,,,,,,,,,,,,,
,,,,,,,,,,,,,,,,,61004b542c80cc7e7e441d7b,39,2022-02-12_17h33.54.991,lexical_decision_task_DD,2021.2.3,Win32,60.09615385,,,,,,,,,,,0.6587,1,,,,,,,,,,,,,,m,1,0.6587,,,,,,,,0.36328125,-0.286458333,0,0,0,,0,137,137,56,1,PACKET,LB,old,m,./images/PACKETLB.png,,,,,,,,,,,,,,,,,,,,,,,,,,,,,,,,,,,
,,,,,,,,,,,,,,,,,61004b542c80cc7e7e441d7b,39,2022-02-12_17h33.54.991,lexical_decision_task_DD,2021.2.3,Win32,60.09615385,,,,,,,,,,,2.8447,0,,,,,,,,,,,,,,z,0,2.8447,,,,,,,,0.36328125,-0.286458333,0,0,0,,0,138,138,16,1,PENCE,HB,old,m,./images/PENCEHB.png,,,,,,,,,,,,,,,,,,,,,,,,,,,,,,,,,,,
,,,,,,,,,,,,,,,,,61004b542c80cc7e7e441d7b,39,2022-02-12_17h33.54.991,lexical_decision_task_DD,2021.2.3,Win32,60.09615385,,,,,,,,,,,0.6064,1,,,,,,,,,,,,,,m,1,0.6064,,,,,,,,0.36328125,-0.286458333,0,0,0,,0,139,139,23,1,WALRUS,LB,old,m,./images/WALRUSLB.png,,,,,,,,,,,,,,,,,,,,,,,,,,,,,,,,,,,
,,,,,,,,,,,,,,,,,61004b542c80cc7e7e441d7b,39,2022-02-12_17h33.54.991,lexical_decision_task_DD,2021.2.3,Win32,60.09615385,,,,,,,,,,,0.5225,1,,,,,,,,,,,,,,m,1,0.5225,,,,,,,,0.36328125,-0.286458333,0,0,0,,0,140,140,35,1,PEACH,LB,old,m,./images/PEACHLB.png,,,,,,,,,,,,,,,,,,,,,,,,,,,,,,,,,,,
,,,,,,,,,,,,,,,,,61004b542c80cc7e7e441d7b,39,2022-02-12_17h33.54.991,lexical_decision_task_DD,2021.2.3,Win32,60.09615385,,,,,,,,,,,0.6371,1,,,,,,,,,,,,,,z,1,0.6371,,,,,,,,0.36328125,-0.286458333,0,0,0,,0,141,141,84,1,HAXES,C,old,z,./images/HAXES.png,,,,,,,,,,,,,,,,,,,,,,,,,,,,,,,,,,,
,,,,,,,,,,,,,,,,,61004b542c80cc7e7e441d7b,39,2022-02-12_17h33.54.991,lexical_decision_task_DD,2021.2.3,Win32,60.09615385,,,,,,,,,,,0.4865,1,,,,,,,,,,,,,,m,1,0.4865,,,,,,,,0.36328125,-0.286458333,0,0,0,,0,142,142,75,1,GRAIN,C,old,m,./images/GRAIN.png,,,,,,,,,,,,,,,,,,,,,,,,,,,,,,,,,,,
,,,,,,,,,,,,,,,,,61004b542c80cc7e7e441d7b,39,2022-02-12_17h33.54.991,lexical_decision_task_DD,2021.2.3,Win32,60.09615385,,,,,,,,,,,0.647,1,,,,,,,,,,,,,,m,1,0.647,,,,,,,,0.36328125,-0.286458333,0,0,0,,0,143,143,71,1,PIMPLE,LB,old,m,./images/PIMPLELB.png,,,,,,,,,,,,,,,,,,,,,,,,,,,,,,,,,,,
,,,,,,,,,,,,,,,,,61004b542c80cc7e7e441d7b,39,2022-02-12_17h33.54.991,lexical_decision_task_DD,2021.2.3,Win32,60.09615385,,,,,,,,,,,0.6353,1,,,,,,,,,,,,,,z,1,0.6353,,,,,,,,0.36328125,-0.286458333,0,0,0,,0,144,144,141,1,PLEET,C,old,z,./images/PLEET.png,,,,,,,,,,,,,,,,,,,,,,,,,,,,,,,,,,,
,,,,,,,,,,,,,,,,,61004b542c80cc7e7e441d7b,39,2022-02-12_17h33.54.991,lexical_decision_task_DD,2021.2.3,Win32,60.09615385,,,,,,,,,,,0.8599,1,,,,,,,,,,,,,,m,1,0.8599,,,,,,,,0.36328125,-0.286458333,0,0,0,,0,145,145,70,1,URINE,HB,old,m,./images/URINEHB.png,,,,,,,,,,,,,,,,,,,,,,,,,,,,,,,,,,,
,,,,,,,,,,,,,,,,,61004b542c80cc7e7e441d7b,39,2022-02-12_17h33.54.991,lexical_decision_task_DD,2021.2.3,Win32,60.09615385,,,,,,,,,,,0.8093,1,,,,,,,,,,,,,,m,1,0.8093,,,,,,,,0.36328125,-0.286458333,0,0,0,,0,146,146,37,1,BIRTH,HB,old,m,./images/BIRTHHB.png,,,,,,,,,,,,,,,,,,,,,,,,,,,,,,,,,,,
,,,,,,,,,,,,,,,,,61004b542c80cc7e7e441d7b,39,2022-02-12_17h33.54.991,lexical_decision_task_DD,2021.2.3,Win32,60.09615385,,,,,,,,,,,0.6517,1,,,,,,,,,,,,,,z,1,0.6517,,,,,,,,0.36328125,-0.286458333,0,0,0,,0,147,147,89,1,DRIEK,LB,old,z,./images/DRIEKLB.png,,,,,,,,,,,,,,,,,,,,,,,,,,,,,,,,,,,
,,,,,,,,,,,,,,,,,61004b542c80cc7e7e441d7b,39,2022-02-12_17h33.54.991,lexical_decision_task_DD,2021.2.3,Win32,60.09615385,,,,,,,,,,,0.6814,1,,,,,,,,,,,,,,z,1,0.6814,,,,,,,,0.36328125,-0.286458333,0,0,0,,0,148,148,102,1,DULLE,C,old,z,./images/DULLE.png,,,,,,,,,,,,,,,,,,,,,,,,,,,,,,,,,,,
,,,,,,,,,,,,,,,,,61004b542c80cc7e7e441d7b,39,2022-02-12_17h33.54.991,lexical_decision_task_DD,2021.2.3,Win32,60.09615385,,,,,,,,,,,1.4319,1,,,,,,,,,,,,,,m,1,1.4319,,,,,,,,0.36328125,-0.286458333,0,0,0,,0,149,149,1,1,PLANK,HB,old,m,./images/PLANKHB.png,,,,,,,,,,,,,,,,,,,,,,,,,,,,,,,,,,,
,,,,,,,,,,,,,,,,,61004b542c80cc7e7e441d7b,39,2022-02-12_17h33.54.991,lexical_decision_task_DD,2021.2.3,Win32,60.09615385,,,,,,,,,,,1.1321,1,,,,,,,,,,,,,,z,1,1.1321,,,,,,,,0.36328125,-0.286458333,0,0,0,,0,150,150,148,1,JOMS,HB,old,z,./images/JOMSHB.png,,,,,,,,,,,,,,,,,,,,,,,,,,,,,,,,,,,
,,,,,,,,,,,,,,,,,61004b542c80cc7e7e441d7b,39,2022-02-12_17h33.54.991,lexical_decision_task_DD,2021.2.3,Win32,60.09615385,,,,,,,,,,,0.6467,1,,,,,,,,,,,,,,m,1,0.6467,,,,,,,,0.36328125,-0.286458333,0,0,0,,0,151,151,36,1,THROAT,C,old,m,./images/THROAT.png,,,,,,,,,,,,,,,,,,,,,,,,,,,,,,,,,,,
,,,,,,,,,,,,,,,,,61004b542c80cc7e7e441d7b,39,2022-02-12_17h33.54.991,lexical_decision_task_DD,2021.2.3,Win32,60.09615385,,,,,,,,,,,0.6445,1,,,,,,,,,,,,,,m,1,0.6445,,,,,,,,0.36328125,-0.286458333,0,0,0,,0,152,152,33,1,MAGGOT,C,old,m,./images/MAGGOT.png,,,,,,,,,,,,,,,,,,,,,,,,,,,,,,,,,,,
,,,,,,,,,,,,,,,,,61004b542c80cc7e7e441d7b,39,2022-02-12_17h33.54.991,lexical_decision_task_DD,2021.2.3,Win32,60.09615385,,,,,,,,,,,0.6184,1,,,,,,,,,,,,,,m,1,0.6184,,,,,,,,0.36328125,-0.286458333,0,0,0,,0,153,153,39,1,SHELF,C,old,m,./images/SHELF.png,,,,,,,,,,,,,,,,,,,,,,,,,,,,,,,,,,,
,,,,,,,,,,,,,,,,,61004b542c80cc7e7e441d7b,39,2022-02-12_17h33.54.991,lexical_decision_task_DD,2021.2.3,Win32,60.09615385,,,,,,,,,,,1.6687,1,,,,,,,,,,,,,,m,1,1.6687,,,,,,,,0.36328125,-0.286458333,0,0,0,,0,154,154,49,1,DRUMS,HB,old,m,./images/DRUMSHB.png,,,,,,,,,,,,,,,,,,,,,,,,,,,,,,,,,,,
,,,,,,,,,,,,,,,,,61004b542c80cc7e7e441d7b,39,2022-02-12_17h33.54.991,lexical_decision_task_DD,2021.2.3,Win32,60.09615385,,,,,,,,,,,0.6594,1,,,,,,,,,,,,,,z,1,0.6594,,,,,,,,0.36328125,-0.286458333,0,0,0,,0,155,155,132,1,SCIFF,C,old,z,./images/SCIFF.png,,,,,,,,,,,,,,,,,,,,,,,,,,,,,,,,,,,
,,,,,,,,,,,,,,,,,61004b542c80cc7e7e441d7b,39,2022-02-12_17h33.54.991,lexical_decision_task_DD,2021.2.3,Win32,60.09615385,,,,,,,,,,,0.7255,1,,,,,,,,,,,,,,m,1,0.7255,,,,,,,,0.36328125,-0.286458333,0,0,0,,0,156,156,24,1,SCREW,C,old,m,./images/SCREW.png,,,,,,,,,,,,,,,,,,,,,,,,,,,,,,,,,,,
,,,,,,,,,,,,,,,,,61004b542c80cc7e7e441d7b,39,2022-02-12_17h33.54.991,lexical_decision_task_DD,2021.2.3,Win32,60.09615385,,,,,,,,,,,1.0417,1,,,,,,,,,,,,,,z,1,1.0417,,,,,,,,0.36328125,-0.286458333,0,0,0,,0,157,157,93,1,SMONE,C,old,z,./images/SMONE.png,,,,,,,,,,,,,,,,,,,,,,,,,,,,,,,,,,,
,,,,,,,,,,,,,,,,,61004b542c80cc7e7e441d7b,39,2022-02-12_17h33.54.991,lexical_decision_task_DD,2021.2.3,Win32,60.09615385,,,,,,,,,,,0.685,1,,,,,,,,,,,,,,m,1,0.685,,,,,,,,0.36328125,-0.286458333,0,0,0,,0,158,158,65,1,FARMER,LB,old,m,./images/FARMERLB.png,,,,,,,,,,,,,,,,,,,,,,,,,,,,,,,,,,,
,,,,,,,,,,,,,,,,,61004b542c80cc7e7e441d7b,39,2022-02-12_17h33.54.991,lexical_decision_task_DD,2021.2.3,Win32,60.09615385,,,,,,,,,,,0.9083,1,,,,,,,,,,,,,,z,1,0.9083,,,,,,,,0.36328125,-0.286458333,0,0,0,,0,159,159,87,1,TRING,C,old,z,./images/TRING.png,,,,,,,,,,,,,,,,,,,,,,,,,,,,,,,,,,,
,,,,,,,,,,,,,,,,,61004b542c80cc7e7e441d7b,39,2022-02-12_17h33.54.991,lexical_decision_task_DD,2021.2.3,Win32,60.09615385,,,,,,,,,,,0.8133,1,,,,,,,,,,,,,,z,1,0.8133,,,,,,,,0.36328125,-0.286458333,0,0,0,,0,160,160,108,1,GRUET,C,old,z,./images/GRUET.png,,,,,,,,,,,,,,,,,,,,,,,,,,,,,,,,,,,
,,,,,,,,,,,,,,,,,61004b542c80cc7e7e441d7b,39,2022-02-12_17h33.54.991,lexical_decision_task_DD,2021.2.3,Win32,60.09615385,,,,,,,,,,,1.2508,1,,,,,,,,,,,,,,z,1,1.2508,,,,,,,,0.36328125,-0.286458333,0,0,0,,0,161,161,121,1,CEERS,HB,old,z,./images/CEERSHB.png,,,,,,,,,,,,,,,,,,,,,,,,,,,,,,,,,,,
,,,,,,,,,,,,,,,,,61004b542c80cc7e7e441d7b,39,2022-02-12_17h33.54.991,lexical_decision_task_DD,2021.2.3,Win32,60.09615385,,,,,,,,,,,0.9211,1,,,,,,,,,,,,,,m,1,0.9211,,,,,,,,0.36328125,-0.286458333,0,0,0,,0,162,162,43,1,MOSQUE,HB,old,m,./images/MOSQUEHB.png,,,,,,,,,,,,,,,,,,,,,,,,,,,,,,,,,,,
,,,,,,,,,,,,,,,,,61004b542c80cc7e7e441d7b,39,2022-02-12_17h33.54.991,lexical_decision_task_DD,2021.2.3,Win32,60.09615385,,,,,,,,,,,0.7772,1,,,,,,,,,,,,,,z,1,0.7772,,,,,,,,0.36328125,-0.286458333,0,0,0,,0,163,163,122,1,BLOOT,LB,old,z,./images/BLOOTLB.png,,,,,,,,,,,,,,,,,,,,,,,,,,,,,,,,,,,
,,,,,,,,,,,,,,,,,61004b542c80cc7e7e441d7b,39,2022-02-12_17h33.54.991,lexical_decision_task_DD,2021.2.3,Win32,60.09615385,,,,,,,,,,,0.7215,1,,,,,,,,,,,,,,m,1,0.7215,,,,,,,,0.36328125,-0.286458333,0,0,0,,0,164,164,26,1,SMOKER,LB,old,m,./images/SMOKERLB.png,,,,,,,,,,,,,,,,,,,,,,,,,,,,,,,,,,,
,,,,,,,,,,,,,,,,,61004b542c80cc7e7e441d7b,39,2022-02-12_17h33.54.991,lexical_decision_task_DD,2021.2.3,Win32,60.09615385,,,,,,,,,,,0.8727,1,,,,,,,,,,,,,,z,1,0.8727,,,,,,,,0.36328125,-0.286458333,0,0,0,,0,165,165,134,1,TROSS,LB,old,z,./images/TROSSLB.png,,,,,,,,,,,,,,,,,,,,,,,,,,,,,,,,,,,
,,,,,,,,,,,,,,,,,61004b542c80cc7e7e441d7b,39,2022-02-12_17h33.54.991,lexical_decision_task_DD,2021.2.3,Win32,60.09615385,,,,,,,,,,,0.7653,1,,,,,,,,,,,,,,z,1,0.7653,,,,,,,,0.36328125,-0.286458333,0,0,0,,0,166,166,140,1,DOVET,LB,old,z,./images/DOVETLB.png,,,,,,,,,,,,,,,,,,,,,,,,,,,,,,,,,,,
,,,,,,,,,,,,,,,,,61004b542c80cc7e7e441d7b,39,2022-02-12_17h33.54.991,lexical_decision_task_DD,2021.2.3,Win32,60.09615385,,,,,,,,,,,0.858,1,,,,,,,,,,,,,,z,1,0.858,,,,,,,,0.36328125,-0.286458333,0,0,0,,0,167,167,137,1,JOOST,LB,old,z,./images/JOOSTLB.png,,,,,,,,,,,,,,,,,,,,,,,,,,,,,,,,,,,
,,,,,,,,,,,,,,,,,61004b542c80cc7e7e441d7b,39,2022-02-12_17h33.54.991,lexical_decision_task_DD,2021.2.3,Win32,60.09615385,,,,,,,,,,,,,,,,,,,,,,,,,,,,,,,,,,,,,,,,,,,,,,,,How likely will it be that you will recognize the words presented very blurred on a scale of 0 (not likely) to 100 (most likely)?,,,,,0.002604167,-0.408854167,1,0,0,jol_adv,6,6.6152,0,0,0,2,1,,,,,,,,,,,,,,,,,,,,,
,,,,,,,,,,,,,,,,,61004b542c80cc7e7e441d7b,39,2022-02-12_17h33.54.991,lexical_decision_task_DD,2021.2.3,Win32,60.09615385,,,,,,,,,,,,,,,,,,,,,,,,,,,,,,,,,,,,,,,,,,,,,,,,How likely will it be that you will recognize the words presented clearly on a scale of 0 (not likely) to 100 (most likely)?,,,,,,,,,,,6,9.0299,0,1,1,0,1,,,,,,,,,,,,,,,,,,,,,
,,,,,,,,,,,,,,,,,61004b542c80cc7e7e441d7b,39,2022-02-12_17h33.54.991,lexical_decision_task_DD,2021.2.3,Win32,60.09615385,,,,,,,,,,,,,,,,,,,,,,,,,,,,,,,,,,,,,,,,,,,,,,,,How likely will it be that you will recognize the words presented slighly blurred on a scale of 0 (not likely) to 100 (most likely)?,,,,,,,,,,,6,5.4593,0,2,2,1,1,,,,,,,,,,,,,,,,,,,,,
space,22.9208,0.888020833,-0.307291667,0,0,0,,,,,,1,test,"In the next phase you will be presented with the words from the the first phase. Your job is to decide whether you remember seeing the word or not. If you remember seeing the word press ""old"" or type ""m"". If you do not remember seeing the word press ""new"" or type ""z"". Please press the space bar or click on continue to begin. ",,,61004b542c80cc7e7e441d7b,39,2022-02-12_17h33.54.991,lexical_decision_task_DD,2021.2.3,Win32,60.09615385,,,,,,,,,,,,,,,,,,,,,,,,,,,,,,,,,,,,,,,,,,,,,,,,,,,,,,,,,,,,,,,,,,0,0,0,0,1,,,,,,,,,,,,,,,,
space,3.6702,0.888020833,-0.307291667,0,0,0,,,,,,1,test,"In the next phase you will be presented with the words from the the first phase. Your job is to decide whether you remember seeing the word or not. If you remember seeing the word press ""old"" or type ""m"". If you do not remember seeing the word press ""new"" or type ""z"". Please press the space bar or click on continue to begin. ",,,61004b542c80cc7e7e441d7b,39,2022-02-12_17h33.54.991,lexical_decision_task_DD,2021.2.3,Win32,60.09615385,,,,,,,,,,,,,,,,,,,,,,,,,,,,,,,,,,,,,,,,,,,,,,,,,,,,,,,,,,,,,,,,,,1,0,1,0,1,,,,,,,,,,,,,,,,
,,0.065104167,-0.388020833,1,0,0,,,,,,1,test,"In the next phase you will be presented with the words from the the first phase. Your job is to decide whether you remember seeing the word or not. If you remember seeing the word press ""old"" or type ""m"". If you do not remember seeing the word press ""new"" or type ""z"". Please press the space bar or click on continue to begin. ",,,61004b542c80cc7e7e441d7b,39,2022-02-12_17h33.54.991,lexical_decision_task_DD,2021.2.3,Win32,60.09615385,,,,,,,,,,,,,,,,,,,,,,,,,,,,,,,,,,,,,,,,,,,,,,,,,,,,,,,,,,,,,,,,,,2,0,2,0,1,instr_done_button,,,,,,,,,,,,,,,
space,8.8746,0.397135417,-0.315104167,0,0,0,,,,,,1,test,"In the next phase you will be presented with the words from the the first phase. Your job is to decide whether you remember seeing the word or not. If you remember seeing the word press ""old"" or type ""m"". If you do not remember seeing the word press ""new"" or type ""z"". Please press the space bar or click on continue to begin. ",,,61004b542c80cc7e7e441d7b,39,2022-02-12_17h33.54.991,lexical_decision_task_DD,2021.2.3,Win32,60.09615385,,,,,,,,,,,,,,,,,,,,,,,,,,,,,,,,,,,,,,,,,,,,,,,,,,,,,,,,,,,,,,,,,,3,0,3,0,1,,,,,,,,,,,,,,,,
space,5.9199,0.397135417,-0.31640625,0,0,0,,,,,,1,test,"In the next phase you will be presented with the words from the the first phase. Your job is to decide whether you remember seeing the word or not. If you remember seeing the word press ""old"" or type ""m"". If you do not remember seeing the word press ""new"" or type ""z"". Please press the space bar or click on continue to begin. ",,,61004b542c80cc7e7e441d7b,39,2022-02-12_17h33.54.991,lexical_decision_task_DD,2021.2.3,Win32,60.09615385,,,,,,,,,,,,,,,,,,,,,,,,,,,,,,,,,,,,,,,,,,,,,,,,,,,,,,,,,,,,,,,,,,4,0,4,0,1,,,,,,,,,,,,,,,,
,,,,,,,,,,,,,,,,,61004b542c80cc7e7e441d7b,39,2022-02-12_17h33.54.991,lexical_decision_task_DD,2021.2.3,Win32,60.09615385,,,,,,,,,,,1.8785,1,,,,,,,,,,,,,,,,,,,,,,,,0.397135417,-0.31640625,0,0,0,,,,,,,PLANET,LB,z,m,./images/PLANETLB.png,,,,,,,,,,,,,,,,,,,,,z,1,1.8785,,,,,,,,0,0,0,164,1
,,,,,,,,,,,,,,,,,61004b542c80cc7e7e441d7b,39,2022-02-12_17h33.54.991,lexical_decision_task_DD,2021.2.3,Win32,60.09615385,,,,,,,,,,,0.9548,1,,,,,,,,,,,,,,,,,,,,,,,,0.397135417,-0.31640625,0,0,0,,,,,,,DRILL,C,z,m,./images/DRILL.png,,,,,,,,,,,,,,,,,,,,,z,1,0.9548,,,,,,,,0,1,1,165,1
,,,,,,,,,,,,,,,,,61004b542c80cc7e7e441d7b,39,2022-02-12_17h33.54.991,lexical_decision_task_DD,2021.2.3,Win32,60.09615385,,,,,,,,,,,1.0961,1,,,,,,,,,,,,,,,,,,,,,,,,0.397135417,-0.31640625,0,0,0,,,,,,,HAMMER,C,z,m,./images/HAMMER.png,,,,,,,,,,,,,,,,,,,,,z,1,1.0961,,,,,,,,0,2,2,159,1
,,,,,,,,,,,,,,,,,61004b542c80cc7e7e441d7b,39,2022-02-12_17h33.54.991,lexical_decision_task_DD,2021.2.3,Win32,60.09615385,,,,,,,,,,,0.7045,1,,,,,,,,,,,,,,,,,,,,,,,,0.397135417,-0.31640625,0,0,0,,,,,,,BISHOP,HB,z,m,./images/BISHOPHB.png,,,,,,,,,,,,,,,,,,,,,z,1,0.7045,,,,,,,,0,3,3,133,1
,,,,,,,,,,,,,,,,,61004b542c80cc7e7e441d7b,39,2022-02-12_17h33.54.991,lexical_decision_task_DD,2021.2.3,Win32,60.09615385,,,,,,,,,,,1.3851,1,,,,,,,,,,,,,,,,,,,,,,,,0.397135417,-0.31640625,0,0,0,,,,,,,POSTER,LB,z,m,./images/POSTERLB.png,,,,,,,,,,,,,,,,,,,,,z,1,1.3851,,,,,,,,0,4,4,137,1
,,,,,,,,,,,,,,,,,61004b542c80cc7e7e441d7b,39,2022-02-12_17h33.54.991,lexical_decision_task_DD,2021.2.3,Win32,60.09615385,,,,,,,,,,,0.7787,0,,,,,,,,,,,,,,,,,,,,,,,,0.397135417,-0.31640625,0,0,0,,,,,,,SHELF,C,m,m,./images/SHELF.png,,,,,,,,,,,,,,,,,,,,,z,0,0.7787,,,,,,,,0,5,5,39,1
,,,,,,,,,,,,,,,,,61004b542c80cc7e7e441d7b,39,2022-02-12_17h33.54.991,lexical_decision_task_DD,2021.2.3,Win32,60.09615385,,,,,,,,,,,0.6982,1,,,,,,,,,,,,,,,,,,,,,,,,0.397135417,-0.31640625,0,0,0,,,,,,,BANANA,HB,z,m,./images/BANANAHB.png,,,,,,,,,,,,,,,,,,,,,z,1,0.6982,,,,,,,,0,6,6,154,1
,,,,,,,,,,,,,,,,,61004b542c80cc7e7e441d7b,39,2022-02-12_17h33.54.991,lexical_decision_task_DD,2021.2.3,Win32,60.09615385,,,,,,,,,,,0.9486,1,,,,,,,,,,,,,,,,,,,,,,,,0.397135417,-0.31640625,0,0,0,,,,,,,CRADLE,LB,m,m,./images/CRADLELB.png,,,,,,,,,,,,,,,,,,,,,m,1,0.9486,,,,,,,,0,7,7,20,1
,,,,,,,,,,,,,,,,,61004b542c80cc7e7e441d7b,39,2022-02-12_17h33.54.991,lexical_decision_task_DD,2021.2.3,Win32,60.09615385,,,,,,,,,,,0.7817,1,,,,,,,,,,,,,,,,,,,,,,,,0.397135417,-0.31640625,0,0,0,,,,,,,SPINE,LB,z,m,./images/SPINELB.png,,,,,,,,,,,,,,,,,,,,,z,1,0.7817,,,,,,,,0,8,8,149,1
,,,,,,,,,,,,,,,,,61004b542c80cc7e7e441d7b,39,2022-02-12_17h33.54.991,lexical_decision_task_DD,2021.2.3,Win32,60.09615385,,,,,,,,,,,0.8359,1,,,,,,,,,,,,,,,,,,,,,,,,0.397135417,-0.31640625,0,0,0,,,,,,,SNACK,HB,m,m,./images/SNACKHB.png,,,,,,,,,,,,,,,,,,,,,m,1,0.8359,,,,,,,,0,9,9,73,1
,,,,,,,,,,,,,,,,,61004b542c80cc7e7e441d7b,39,2022-02-12_17h33.54.991,lexical_decision_task_DD,2021.2.3,Win32,60.09615385,,,,,,,,,,,0.7264,1,,,,,,,,,,,,,,,,,,,,,,,,0.397135417,-0.31640625,0,0,0,,,,,,,BABOON,HB,m,m,./images/BABOONHB.png,,,,,,,,,,,,,,,,,,,,,m,1,0.7264,,,,,,,,0,10,10,58,1
,,,,,,,,,,,,,,,,,61004b542c80cc7e7e441d7b,39,2022-02-12_17h33.54.991,lexical_decision_task_DD,2021.2.3,Win32,60.09615385,,,,,,,,,,,0.8489,1,,,,,,,,,,,,,,,,,,,,,,,,0.397135417,-0.31640625,0,0,0,,,,,,,MONKEY,C,z,m,./images/MONKEY.png,,,,,,,,,,,,,,,,,,,,,z,1,0.8489,,,,,,,,0,11,11,129,1
,,,,,,,,,,,,,,,,,61004b542c80cc7e7e441d7b,39,2022-02-12_17h33.54.991,lexical_decision_task_DD,2021.2.3,Win32,60.09615385,,,,,,,,,,,0.8689,1,,,,,,,,,,,,,,,,,,,,,,,,0.397135417,-0.31640625,0,0,0,,,,,,,BERRY,LB,m,m,./images/BERRYLB.png,,,,,,,,,,,,,,,,,,,,,m,1,0.8689,,,,,,,,0,12,12,47,1
,,,,,,,,,,,,,,,,,61004b542c80cc7e7e441d7b,39,2022-02-12_17h33.54.991,lexical_decision_task_DD,2021.2.3,Win32,60.09615385,,,,,,,,,,,0.7642,1,,,,,,,,,,,,,,,,,,,,,,,,0.397135417,-0.31640625,0,0,0,,,,,,,TRIPOD,C,m,m,./images/TRIPOD.png,,,,,,,,,,,,,,,,,,,,,m,1,0.7642,,,,,,,,0,13,13,54,1
,,,,,,,,,,,,,,,,,61004b542c80cc7e7e441d7b,39,2022-02-12_17h33.54.991,lexical_decision_task_DD,2021.2.3,Win32,60.09615385,,,,,,,,,,,0.8994,1,,,,,,,,,,,,,,,,,,,,,,,,0.397135417,-0.31640625,0,0,0,,,,,,,CLOWN,HB,z,m,./images/CLOWNHB.png,,,,,,,,,,,,,,,,,,,,,z,1,0.8994,,,,,,,,0,14,14,106,1
,,,,,,,,,,,,,,,,,61004b542c80cc7e7e441d7b,39,2022-02-12_17h33.54.991,lexical_decision_task_DD,2021.2.3,Win32,60.09615385,,,,,,,,,,,0.8139,1,,,,,,,,,,,,,,,,,,,,,,,,0.397135417,-0.31640625,0,0,0,,,,,,,GRANNY,LB,z,m,./images/GRANNYLB.png,,,,,,,,,,,,,,,,,,,,,z,1,0.8139,,,,,,,,0,15,15,104,1
,,,,,,,,,,,,,,,,,61004b542c80cc7e7e441d7b,39,2022-02-12_17h33.54.991,lexical_decision_task_DD,2021.2.3,Win32,60.09615385,,,,,,,,,,,0.7673,1,,,,,,,,,,,,,,,,,,,,,,,,0.397135417,-0.31640625,0,0,0,,,,,,,COOKER,C,m,m,./images/COOKER.png,,,,,,,,,,,,,,,,,,,,,m,1,0.7673,,,,,,,,0,16,16,69,1
,,,,,,,,,,,,,,,,,61004b542c80cc7e7e441d7b,39,2022-02-12_17h33.54.991,lexical_decision_task_DD,2021.2.3,Win32,60.09615385,,,,,,,,,,,0.7736,1,,,,,,,,,,,,,,,,,,,,,,,,0.397135417,-0.31640625,0,0,0,,,,,,,COUCH,LB,m,m,./images/COUCHLB.png,,,,,,,,,,,,,,,,,,,,,m,1,0.7736,,,,,,,,0,17,17,77,1
,,,,,,,,,,,,,,,,,61004b542c80cc7e7e441d7b,39,2022-02-12_17h33.54.991,lexical_decision_task_DD,2021.2.3,Win32,60.09615385,,,,,,,,,,,2.3766,0,,,,,,,,,,,,,,,,,,,,,,,,0.397135417,-0.31640625,0,0,0,,,,,,,CHALK,HB,z,m,./images/CHALKHB.png,,,,,,,,,,,,,,,,,,,,,m,0,2.3766,,,,,,,,0,18,18,109,1
,,,,,,,,,,,,,,,,,61004b542c80cc7e7e441d7b,39,2022-02-12_17h33.54.991,lexical_decision_task_DD,2021.2.3,Win32,60.09615385,,,,,,,,,,,1.0484,1,,,,,,,,,,,,,,,,,,,,,,,,0.397135417,-0.31640625,0,0,0,,,,,,,LIZARD,LB,m,m,./images/LIZARDLB.png,,,,,,,,,,,,,,,,,,,,,m,1,1.0484,,,,,,,,0,19,19,44,1
,,,,,,,,,,,,,,,,,61004b542c80cc7e7e441d7b,39,2022-02-12_17h33.54.991,lexical_decision_task_DD,2021.2.3,Win32,60.09615385,,,,,,,,,,,2.0502,1,,,,,,,,,,,,,,,,,,,,,,,,0.397135417,-0.31640625,0,0,0,,,,,,,STAIN,C,z,m,./images/STAIN.png,,,,,,,,,,,,,,,,,,,,,z,1,2.0502,,,,,,,,0,20,20,90,1
,,,,,,,,,,,,,,,,,61004b542c80cc7e7e441d7b,39,2022-02-12_17h33.54.991,lexical_decision_task_DD,2021.2.3,Win32,60.09615385,,,,,,,,,,,0.8321,1,,,,,,,,,,,,,,,,,,,,,,,,0.397135417,-0.31640625,0,0,0,,,,,,,RHINO,C,m,m,./images/RHINO.png,,,,,,,,,,,,,,,,,,,,,m,1,0.8321,,,,,,,,0,21,21,9,1
,,,,,,,,,,,,,,,,,61004b542c80cc7e7e441d7b,39,2022-02-12_17h33.54.991,lexical_decision_task_DD,2021.2.3,Win32,60.09615385,,,,,,,,,,,0.6755,1,,,,,,,,,,,,,,,,,,,,,,,,0.397135417,-0.31640625,0,0,0,,,,,,,DONKEY,HB,z,m,./images/DONKEYHB.png,,,,,,,,,,,,,,,,,,,,,z,1,0.6755,,,,,,,,0,22,22,103,1
,,,,,,,,,,,,,,,,,61004b542c80cc7e7e441d7b,39,2022-02-12_17h33.54.991,lexical_decision_task_DD,2021.2.3,Win32,60.09615385,,,,,,,,,,,0.7196,1,,,,,,,,,,,,,,,,,,,,,,,,0.397135417,-0.31640625,0,0,0,,,,,,,JAGUAR,C,m,m,./images/JAGUAR.png,,,,,,,,,,,,,,,,,,,,,m,1,0.7196,,,,,,,,0,23,23,18,1
,,,,,,,,,,,,,,,,,61004b542c80cc7e7e441d7b,39,2022-02-12_17h33.54.991,lexical_decision_task_DD,2021.2.3,Win32,60.09615385,,,,,,,,,,,0.7219,1,,,,,,,,,,,,,,,,,,,,,,,,0.397135417,-0.31640625,0,0,0,,,,,,,WHISKY,LB,z,m,./images/WHISKYLB.png,,,,,,,,,,,,,,,,,,,,,z,1,0.7219,,,,,,,,0,24,24,167,1
,,,,,,,,,,,,,,,,,61004b542c80cc7e7e441d7b,39,2022-02-12_17h33.54.991,lexical_decision_task_DD,2021.2.3,Win32,60.09615385,,,,,,,,,,,0.9656,1,,,,,,,,,,,,,,,,,,,,,,,,0.397135417,-0.31640625,0,0,0,,,,,,,FLESH,C,z,m,./images/FLESH.png,,,,,,,,,,,,,,,,,,,,,z,1,0.9656,,,,,,,,0,25,25,108,1
,,,,,,,,,,,,,,,,,61004b542c80cc7e7e441d7b,39,2022-02-12_17h33.54.991,lexical_decision_task_DD,2021.2.3,Win32,60.09615385,,,,,,,,,,,0.7372,1,,,,,,,,,,,,,,,,,,,,,,,,0.397135417,-0.31640625,0,0,0,,,,,,,JUNGLE,LB,m,m,./images/JUNGLELB.png,,,,,,,,,,,,,,,,,,,,,m,1,0.7372,,,,,,,,0,26,26,83,1
,,,,,,,,,,,,,,,,,61004b542c80cc7e7e441d7b,39,2022-02-12_17h33.54.991,lexical_decision_task_DD,2021.2.3,Win32,60.09615385,,,,,,,,,,,1.8278,1,,,,,,,,,,,,,,,,,,,,,,,,0.397135417,-0.31640625,0,0,0,,,,,,,BAKER,C,z,m,./images/BAKER.png,,,,,,,,,,,,,,,,,,,,,z,1,1.8278,,,,,,,,0,27,27,147,1
,,,,,,,,,,,,,,,,,61004b542c80cc7e7e441d7b,39,2022-02-12_17h33.54.991,lexical_decision_task_DD,2021.2.3,Win32,60.09615385,,,,,,,,,,,0.779,1,,,,,,,,,,,,,,,,,,,,,,,,0.397135417,-0.31640625,0,0,0,,,,,,,MEDAL,LB,z,m,./images/MEDALLB.png,,,,,,,,,,,,,,,,,,,,,z,1,0.779,,,,,,,,0,28,28,95,1
,,,,,,,,,,,,,,,,,61004b542c80cc7e7e441d7b,39,2022-02-12_17h33.54.991,lexical_decision_task_DD,2021.2.3,Win32,60.09615385,,,,,,,,,,,0.95,1,,,,,,,,,,,,,,,,,,,,,,,,0.397135417,-0.31640625,0,0,0,,,,,,,CLOTH,LB,z,m,./images/CLOTHLB.png,,,,,,,,,,,,,,,,,,,,,z,1,0.95,,,,,,,,0,29,29,107,1
,,,,,,,,,,,,,,,,,61004b542c80cc7e7e441d7b,39,2022-02-12_17h33.54.991,lexical_decision_task_DD,2021.2.3,Win32,60.09615385,,,,,,,,,,,0.9505,1,,,,,,,,,,,,,,,,,,,,,,,,0.397135417,-0.31640625,0,0,0,,,,,,,ALLEY,HB,z,m,./images/ALLEYHB.png,,,,,,,,,,,,,,,,,,,,,z,1,0.9505,,,,,,,,0,30,30,139,1
,,,,,,,,,,,,,,,,,61004b542c80cc7e7e441d7b,39,2022-02-12_17h33.54.991,lexical_decision_task_DD,2021.2.3,Win32,60.09615385,,,,,,,,,,,0.753,1,,,,,,,,,,,,,,,,,,,,,,,,0.397135417,-0.31640625,0,0,0,,,,,,,MAGGOT,C,m,m,./images/MAGGOT.png,,,,,,,,,,,,,,,,,,,,,m,1,0.753,,,,,,,,0,31,31,33,1
,,,,,,,,,,,,,,,,,61004b542c80cc7e7e441d7b,39,2022-02-12_17h33.54.991,lexical_decision_task_DD,2021.2.3,Win32,60.09615385,,,,,,,,,,,0.7309,1,,,,,,,,,,,,,,,,,,,,,,,,0.397135417,-0.31640625,0,0,0,,,,,,,JELLY,HB,m,m,./images/JELLYHB.png,,,,,,,,,,,,,,,,,,,,,m,1,0.7309,,,,,,,,0,32,32,64,1
,,,,,,,,,,,,,,,,,61004b542c80cc7e7e441d7b,39,2022-02-12_17h33.54.991,lexical_decision_task_DD,2021.2.3,Win32,60.09615385,,,,,,,,,,,2.7275,1,,,,,,,,,,,,,,,,,,,,,,,,0.397135417,-0.31640625,0,0,0,,,,,,,MIDGET,HB,z,m,./images/MIDGETHB.png,,,,,,,,,,,,,,,,,,,,,z,1,2.7275,,,,,,,,0,33,33,160,1
,,,,,,,,,,,,,,,,,61004b542c80cc7e7e441d7b,39,2022-02-12_17h33.54.991,lexical_decision_task_DD,2021.2.3,Win32,60.09615385,,,,,,,,,,,0.6688,1,,,,,,,,,,,,,,,,,,,,,,,,0.397135417,-0.31640625,0,0,0,,,,,,,CURRY,C,z,m,./images/CURRY.png,,,,,,,,,,,,,,,,,,,,,z,1,0.6688,,,,,,,,0,34,34,144,1
,,,,,,,,,,,,,,,,,61004b542c80cc7e7e441d7b,39,2022-02-12_17h33.54.991,lexical_decision_task_DD,2021.2.3,Win32,60.09615385,,,,,,,,,,,1.0028,1,,,,,,,,,,,,,,,,,,,,,,,,0.397135417,-0.31640625,0,0,0,,,,,,,FINGER,C,m,m,./images/FINGER.png,,,,,,,,,,,,,,,,,,,,,m,1,1.0028,,,,,,,,0,35,35,3,1
,,,,,,,,,,,,,,,,,61004b542c80cc7e7e441d7b,39,2022-02-12_17h33.54.991,lexical_decision_task_DD,2021.2.3,Win32,60.09615385,,,,,,,,,,,0.8975,1,,,,,,,,,,,,,,,,,,,,,,,,0.397135417,-0.31640625,0,0,0,,,,,,,BOXER,HB,z,m,./images/BOXERHB.png,,,,,,,,,,,,,,,,,,,,,z,1,0.8975,,,,,,,,0,36,36,88,1
,,,,,,,,,,,,,,,,,61004b542c80cc7e7e441d7b,39,2022-02-12_17h33.54.991,lexical_decision_task_DD,2021.2.3,Win32,60.09615385,,,,,,,,,,,0.852,1,,,,,,,,,,,,,,,,,,,,,,,,0.397135417,-0.31640625,0,0,0,,,,,,,TWINS,C,m,m,./images/TWINS.png,,,,,,,,,,,,,,,,,,,,,m,1,0.852,,,,,,,,0,37,37,60,1
,,,,,,,,,,,,,,,,,61004b542c80cc7e7e441d7b,39,2022-02-12_17h33.54.991,lexical_decision_task_DD,2021.2.3,Win32,60.09615385,,,,,,,,,,,0.6454,1,,,,,,,,,,,,,,,,,,,,,,,,0.397135417,-0.31640625,0,0,0,,,,,,,ONION,C,m,m,./images/ONION.png,,,,,,,,,,,,,,,,,,,,,m,1,0.6454,,,,,,,,0,38,38,51,1
,,,,,,,,,,,,,,,,,61004b542c80cc7e7e441d7b,39,2022-02-12_17h33.54.991,lexical_decision_task_DD,2021.2.3,Win32,60.09615385,,,,,,,,,,,0.6406,1,,,,,,,,,,,,,,,,,,,,,,,,0.397135417,-0.31640625,0,0,0,,,,,,,PACKET,LB,m,m,./images/PACKETLB.png,,,,,,,,,,,,,,,,,,,,,m,1,0.6406,,,,,,,,0,39,39,56,1
,,,,,,,,,,,,,,,,,61004b542c80cc7e7e441d7b,39,2022-02-12_17h33.54.991,lexical_decision_task_DD,2021.2.3,Win32,60.09615385,,,,,,,,,,,0.7236,1,,,,,,,,,,,,,,,,,,,,,,,,0.397135417,-0.31640625,0,0,0,,,,,,,SQUARE,C,m,m,./images/SQUARE.png,,,,,,,,,,,,,,,,,,,,,m,1,0.7236,,,,,,,,0,40,40,6,1
,,,,,,,,,,,,,,,,,61004b542c80cc7e7e441d7b,39,2022-02-12_17h33.54.991,lexical_decision_task_DD,2021.2.3,Win32,60.09615385,,,,,,,,,,,0.6286,1,,,,,,,,,,,,,,,,,,,,,,,,0.397135417,-0.31640625,0,0,0,space,,,,,,KITTEN,C,m,m,./images/KITTEN.png,2.2843,,,,,,,,,,,,,,,,,,,,m,1,0.6286,,,,,,,,0,41,41,45,1
,,,,,,,,,,,,,,,,,61004b542c80cc7e7e441d7b,39,2022-02-12_17h33.54.991,lexical_decision_task_DD,2021.2.3,Win32,60.09615385,,,,,,,,,,,0.9457,1,,,,,,,,,,,,,,,,,,,,,,,,0.397135417,-0.31640625,0,0,0,,,,,,,CANDLE,HB,m,m,./images/CANDLEHB.png,,,,,,,,,,,,,,,,,,,,,m,1,0.9457,,,,,,,,0,42,42,61,1
,,,,,,,,,,,,,,,,,61004b542c80cc7e7e441d7b,39,2022-02-12_17h33.54.991,lexical_decision_task_DD,2021.2.3,Win32,60.09615385,,,,,,,,,,,0.8399,1,,,,,,,,,,,,,,,,,,,,,,,,0.397135417,-0.31640625,0,0,0,,,,,,,MUMMY,HB,z,m,./images/MUMMYHB.png,,,,,,,,,,,,,,,,,,,,,z,1,0.8399,,,,,,,,0,43,43,130,1
,,,,,,,,,,,,,,,,,61004b542c80cc7e7e441d7b,39,2022-02-12_17h33.54.991,lexical_decision_task_DD,2021.2.3,Win32,60.09615385,,,,,,,,,,,0.983,1,,,,,,,,,,,,,,,,,,,,,,,,0.397135417,-0.31640625,0,0,0,,,,,,,CHAIN,C,z,m,./images/CHAIN.png,,,,,,,,,,,,,,,,,,,,,z,1,0.983,,,,,,,,0,44,44,126,1
,,,,,,,,,,,,,,,,,61004b542c80cc7e7e441d7b,39,2022-02-12_17h33.54.991,lexical_decision_task_DD,2021.2.3,Win32,60.09615385,,,,,,,,,,,0.7601,1,,,,,,,,,,,,,,,,,,,,,,,,0.397135417,-0.31640625,0,0,0,,,,,,,TOMATO,C,m,m,./images/TOMATO.png,,,,,,,,,,,,,,,,,,,,,m,1,0.7601,,,,,,,,0,45,45,0,1
,,,,,,,,,,,,,,,,,61004b542c80cc7e7e441d7b,39,2022-02-12_17h33.54.991,lexical_decision_task_DD,2021.2.3,Win32,60.09615385,,,,,,,,,,,0.7154,1,,,,,,,,,,,,,,,,,,,,,,,,0.397135417,-0.31640625,0,0,0,,,,,,,SKIING,LB,m,m,./images/SKIINGLB.png,,,,,,,,,,,,,,,,,,,,,m,1,0.7154,,,,,,,,0,46,46,17,1
,,,,,,,,,,,,,,,,,61004b542c80cc7e7e441d7b,39,2022-02-12_17h33.54.991,lexical_decision_task_DD,2021.2.3,Win32,60.09615385,,,,,,,,,,,2.1055,1,,,,,,,,,,,,,,,,,,,,,,,,0.397135417,-0.31640625,0,0,0,,,,,,,CRATER,C,z,m,./images/CRATER.png,,,,,,,,,,,,,,,,,,,,,z,1,2.1055,,,,,,,,0,47,47,87,1
,,,,,,,,,,,,,,,,,61004b542c80cc7e7e441d7b,39,2022-02-12_17h33.54.991,lexical_decision_task_DD,2021.2.3,Win32,60.09615385,,,,,,,,,,,1.1141,1,,,,,,,,,,,,,,,,,,,,,,,,0.397135417,-0.31640625,0,0,0,,,,,,,BELLY,HB,m,m,./images/BELLYHB.png,,,,,,,,,,,,,,,,,,,,,m,1,1.1141,,,,,,,,0,48,48,10,1
,,,,,,,,,,,,,,,,,61004b542c80cc7e7e441d7b,39,2022-02-12_17h33.54.991,lexical_decision_task_DD,2021.2.3,Win32,60.09615385,,,,,,,,,,,0.7228,1,,,,,,,,,,,,,,,,,,,,,,,,0.397135417,-0.31640625,0,0,0,,,,,,,SAUNA,C,z,m,./images/SAUNA.png,,,,,,,,,,,,,,,,,,,,,z,1,0.7228,,,,,,,,0,49,49,117,1
,,,,,,,,,,,,,,,,,61004b542c80cc7e7e441d7b,39,2022-02-12_17h33.54.991,lexical_decision_task_DD,2021.2.3,Win32,60.09615385,,,,,,,,,,,0.6959,1,,,,,,,,,,,,,,,,,,,,,,,,0.397135417,-0.31640625,0,0,0,,,,,,,BRUSH,LB,z,m,./images/BRUSHLB.png,,,,,,,,,,,,,,,,,,,,,z,1,0.6959,,,,,,,,0,50,50,143,1
,,,,,,,,,,,,,,,,,61004b542c80cc7e7e441d7b,39,2022-02-12_17h33.54.991,lexical_decision_task_DD,2021.2.3,Win32,60.09615385,,,,,,,,,,,0.7974,0,,,,,,,,,,,,,,,,,,,,,,,,0.397135417,-0.31640625,0,0,0,,,,,,,BEARD,LB,m,m,./images/BEARDLB.png,,,,,,,,,,,,,,,,,,,,,z,0,0.7974,,,,,,,,0,51,51,2,1
,,,,,,,,,,,,,,,,,61004b542c80cc7e7e441d7b,39,2022-02-12_17h33.54.991,lexical_decision_task_DD,2021.2.3,Win32,60.09615385,,,,,,,,,,,1.1637,1,,,,,,,,,,,,,,,,,,,,,,,,0.397135417,-0.31640625,0,0,0,,,,,,,COLLAR,C,z,m,./images/COLLAR.png,,,,,,,,,,,,,,,,,,,,,z,1,1.1637,,,,,,,,0,52,52,99,1
,,,,,,,,,,,,,,,,,61004b542c80cc7e7e441d7b,39,2022-02-12_17h33.54.991,lexical_decision_task_DD,2021.2.3,Win32,60.09615385,,,,,,,,,,,1.0064,1,,,,,,,,,,,,,,,,,,,,,,,,0.397135417,-0.31640625,0,0,0,,,,,,,CEMENT,LB,m,m,./images/CEMENTLB.png,,,,,,,,,,,,,,,,,,,,,m,1,1.0064,,,,,,,,0,53,53,74,1
,,,,,,,,,,,,,,,,,61004b542c80cc7e7e441d7b,39,2022-02-12_17h33.54.991,lexical_decision_task_DD,2021.2.3,Win32,60.09615385,,,,,,,,,,,0.8226,1,,,,,,,,,,,,,,,,,,,,,,,,0.397135417,-0.31640625,0,0,0,,,,,,,GLOVE,HB,z,m,./images/GLOVEHB.png,,,,,,,,,,,,,,,,,,,,,z,1,0.8226,,,,,,,,0,54,54,157,1
,,,,,,,,,,,,,,,,,61004b542c80cc7e7e441d7b,39,2022-02-12_17h33.54.991,lexical_decision_task_DD,2021.2.3,Win32,60.09615385,,,,,,,,,,,0.8333,1,,,,,,,,,,,,,,,,,,,,,,,,0.397135417,-0.31640625,0,0,0,,,,,,,KIDNEY,C,m,m,./images/KIDNEY.png,,,,,,,,,,,,,,,,,,,,,m,1,0.8333,,,,,,,,0,55,55,21,1
,,,,,,,,,,,,,,,,,61004b542c80cc7e7e441d7b,39,2022-02-12_17h33.54.991,lexical_decision_task_DD,2021.2.3,Win32,60.09615385,,,,,,,,,,,1.3331,1,,,,,,,,,,,,,,,,,,,,,,,,0.397135417,-0.31640625,0,0,0,,,,,,,JUMPER,LB,z,m,./images/JUMPERLB.png,,,,,,,,,,,,,,,,,,,,,z,1,1.3331,,,,,,,,0,56,56,158,1
,,,,,,,,,,,,,,,,,61004b542c80cc7e7e441d7b,39,2022-02-12_17h33.54.991,lexical_decision_task_DD,2021.2.3,Win32,60.09615385,,,,,,,,,,,0.7272,1,,,,,,,,,,,,,,,,,,,,,,,,0.397135417,-0.31640625,0,0,0,,,,,,,POODLE,C,m,m,./images/POODLE.png,,,,,,,,,,,,,,,,,,,,,m,1,0.7272,,,,,,,,0,57,57,81,1
,,,,,,,,,,,,,,,,,61004b542c80cc7e7e441d7b,39,2022-02-12_17h33.54.991,lexical_decision_task_DD,2021.2.3,Win32,60.09615385,,,,,,,,,,,0.7997,1,,,,,,,,,,,,,,,,,,,,,,,,0.397135417,-0.31640625,0,0,0,,,,,,,MALLET,LB,m,m,./images/MALLETLB.png,,,,,,,,,,,,,,,,,,,,,m,1,0.7997,,,,,,,,0,58,58,50,1
,,,,,,,,,,,,,,,,,61004b542c80cc7e7e441d7b,39,2022-02-12_17h33.54.991,lexical_decision_task_DD,2021.2.3,Win32,60.09615385,,,,,,,,,,,0.7478,1,,,,,,,,,,,,,,,,,,,,,,,,0.397135417,-0.31640625,0,0,0,,,,,,,PURSE,LB,m,m,./images/PURSELB.png,,,,,,,,,,,,,,,,,,,,,m,1,0.7478,,,,,,,,0,59,59,62,1
,,,,,,,,,,,,,,,,,61004b542c80cc7e7e441d7b,39,2022-02-12_17h33.54.991,lexical_decision_task_DD,2021.2.3,Win32,60.09615385,,,,,,,,,,,1.2035,1,,,,,,,,,,,,,,,,,,,,,,,,0.397135417,-0.31640625,0,0,0,,,,,,,BOILER,C,z,m,./images/BOILER.png,,,,,,,,,,,,,,,,,,,,,z,1,1.2035,,,,,,,,0,60,60,120,1
,,,,,,,,,,,,,,,,,61004b542c80cc7e7e441d7b,39,2022-02-12_17h33.54.991,lexical_decision_task_DD,2021.2.3,Win32,60.09615385,,,,,,,,,,,0.8834,0,,,,,,,,,,,,,,,,,,,,,,,,0.397135417,-0.31640625,0,0,0,,,,,,,THROAT,C,m,m,./images/THROAT.png,,,,,,,,,,,,,,,,,,,,,z,0,0.8834,,,,,,,,0,61,61,36,1
,,,,,,,,,,,,,,,,,61004b542c80cc7e7e441d7b,39,2022-02-12_17h33.54.991,lexical_decision_task_DD,2021.2.3,Win32,60.09615385,,,,,,,,,,,0.8036,1,,,,,,,,,,,,,,,,,,,,,,,,0.397135417,-0.31640625,0,0,0,,,,,,,PEACH,LB,m,m,./images/PEACHLB.png,,,,,,,,,,,,,,,,,,,,,m,1,0.8036,,,,,,,,0,62,62,35,1
,,,,,,,,,,,,,,,,,61004b542c80cc7e7e441d7b,39,2022-02-12_17h33.54.991,lexical_decision_task_DD,2021.2.3,Win32,60.09615385,,,,,,,,,,,1.8129,1,,,,,,,,,,,,,,,,,,,,,,,,0.397135417,-0.31640625,0,0,0,,,,,,,PEBBLE,HB,z,m,./images/PEBBLEHB.png,,,,,,,,,,,,,,,,,,,,,z,1,1.8129,,,,,,,,0,63,63,166,1
,,,,,,,,,,,,,,,,,61004b542c80cc7e7e441d7b,39,2022-02-12_17h33.54.991,lexical_decision_task_DD,2021.2.3,Win32,60.09615385,,,,,,,,,,,0.7149,1,,,,,,,,,,,,,,,,,,,,,,,,0.397135417,-0.31640625,0,0,0,,,,,,,CLOUD,LB,z,m,./images/CLOUDLB.png,,,,,,,,,,,,,,,,,,,,,z,1,0.7149,,,,,,,,0,64,64,110,1
,,,,,,,,,,,,,,,,,61004b542c80cc7e7e441d7b,39,2022-02-12_17h33.54.991,lexical_decision_task_DD,2021.2.3,Win32,60.09615385,,,,,,,,,,,1.227,0,,,,,,,,,,,,,,,,,,,,,,,,0.397135417,-0.31640625,0,0,0,,,,,,,CANYON,HB,m,m,./images/CANYONHB.png,,,,,,,,,,,,,,,,,,,,,z,0,1.227,,,,,,,,0,65,65,34,1
,,,,,,,,,,,,,,,,,61004b542c80cc7e7e441d7b,39,2022-02-12_17h33.54.991,lexical_decision_task_DD,2021.2.3,Win32,60.09615385,,,,,,,,,,,0.9183,0,,,,,,,,,,,,,,,,,,,,,,,,0.397135417,-0.31640625,0,0,0,,,,,,,CANDY,C,z,m,./images/CANDY.png,,,,,,,,,,,,,,,,,,,,,m,0,0.9183,,,,,,,,0,66,66,123,1
,,,,,,,,,,,,,,,,,61004b542c80cc7e7e441d7b,39,2022-02-12_17h33.54.991,lexical_decision_task_DD,2021.2.3,Win32,60.09615385,,,,,,,,,,,0.6365,1,,,,,,,,,,,,,,,,,,,,,,,,0.397135417,-0.31640625,0,0,0,,,,,,,MIRROR,C,m,m,./images/MIRROR.png,,,,,,,,,,,,,,,,,,,,,m,1,0.6365,,,,,,,,0,67,67,63,1
,,,,,,,,,,,,,,,,,61004b542c80cc7e7e441d7b,39,2022-02-12_17h33.54.991,lexical_decision_task_DD,2021.2.3,Win32,60.09615385,,,,,,,,,,,0.7511,1,,,,,,,,,,,,,,,,,,,,,,,,0.397135417,-0.31640625,0,0,0,,,,,,,WHEEL,LB,z,m,./images/WHEELLB.png,,,,,,,,,,,,,,,,,,,,,z,1,0.7511,,,,,,,,0,68,68,161,1
,,,,,,,,,,,,,,,,,61004b542c80cc7e7e441d7b,39,2022-02-12_17h33.54.991,lexical_decision_task_DD,2021.2.3,Win32,60.09615385,,,,,,,,,,,0.8189,1,,,,,,,,,,,,,,,,,,,,,,,,0.397135417,-0.31640625,0,0,0,,,,,,,PARCEL,C,z,m,./images/PARCEL.png,,,,,,,,,,,,,,,,,,,,,z,1,0.8189,,,,,,,,0,69,69,102,1
,,,,,,,,,,,,,,,,,61004b542c80cc7e7e441d7b,39,2022-02-12_17h33.54.991,lexical_decision_task_DD,2021.2.3,Win32,60.09615385,,,,,,,,,,,0.9112,1,,,,,,,,,,,,,,,,,,,,,,,,0.397135417,-0.31640625,0,0,0,,,,,,,MAMMAL,LB,z,m,./images/MAMMALLB.png,,,,,,,,,,,,,,,,,,,,,z,1,0.9112,,,,,,,,0,70,70,146,1
,,,,,,,,,,,,,,,,,61004b542c80cc7e7e441d7b,39,2022-02-12_17h33.54.991,lexical_decision_task_DD,2021.2.3,Win32,60.09615385,,,,,,,,,,,0.7741,1,,,,,,,,,,,,,,,,,,,,,,,,0.397135417,-0.31640625,0,0,0,,,,,,,SUNSET,HB,m,m,./images/SUNSETHB.png,,,,,,,,,,,,,,,,,,,,,m,1,0.7741,,,,,,,,0,71,71,82,1
,,,,,,,,,,,,,,,,,61004b542c80cc7e7e441d7b,39,2022-02-12_17h33.54.991,lexical_decision_task_DD,2021.2.3,Win32,60.09615385,,,,,,,,,,,1.2514,1,,,,,,,,,,,,,,,,,,,,,,,,0.397135417,-0.31640625,0,0,0,,,,,,,BASKET,LB,z,m,./images/BASKETLB.png,,,,,,,,,,,,,,,,,,,,,z,1,1.2514,,,,,,,,0,72,72,128,1
,,,,,,,,,,,,,,,,,61004b542c80cc7e7e441d7b,39,2022-02-12_17h33.54.991,lexical_decision_task_DD,2021.2.3,Win32,60.09615385,,,,,,,,,,,0.7487,1,,,,,,,,,,,,,,,,,,,,,,,,0.397135417,-0.31640625,0,0,0,,,,,,,CASINO,HB,z,m,./images/CASINOHB.png,,,,,,,,,,,,,,,,,,,,,z,1,0.7487,,,,,,,,0,73,73,112,1
,,,,,,,,,,,,,,,,,61004b542c80cc7e7e441d7b,39,2022-02-12_17h33.54.991,lexical_decision_task_DD,2021.2.3,Win32,60.09615385,,,,,,,,,,,0.6652,0,,,,,,,,,,,,,,,,,,,,,,,,0.397135417,-0.31640625,0,0,0,,,,,,,GRAIN,C,m,m,./images/GRAIN.png,,,,,,,,,,,,,,,,,,,,,z,0,0.6652,,,,,,,,0,74,74,75,1
,,,,,,,,,,,,,,,,,61004b542c80cc7e7e441d7b,39,2022-02-12_17h33.54.991,lexical_decision_task_DD,2021.2.3,Win32,60.09615385,,,,,,,,,,,0.9863,1,,,,,,,,,,,,,,,,,,,,,,,,0.397135417,-0.31640625,0,0,0,,,,,,,CRUST,HB,m,m,./images/CRUSTHB.png,,,,,,,,,,,,,,,,,,,,,m,1,0.9863,,,,,,,,0,75,75,79,1
,,,,,,,,,,,,,,,,,61004b542c80cc7e7e441d7b,39,2022-02-12_17h33.54.991,lexical_decision_task_DD,2021.2.3,Win32,60.09615385,,,,,,,,,,,1.2816,1,,,,,,,,,,,,,,,,,,,,,,,,0.397135417,-0.31640625,0,0,0,,,,,,,TIGER,HB,z,m,./images/TIGERHB.png,,,,,,,,,,,,,,,,,,,,,z,1,1.2816,,,,,,,,0,76,76,121,1
,,,,,,,,,,,,,,,,,61004b542c80cc7e7e441d7b,39,2022-02-12_17h33.54.991,lexical_decision_task_DD,2021.2.3,Win32,60.09615385,,,,,,,,,,,0.7814,1,,,,,,,,,,,,,,,,,,,,,,,,0.397135417,-0.31640625,0,0,0,,,,,,,WAGON,HB,z,m,./images/WAGONHB.png,,,,,,,,,,,,,,,,,,,,,z,1,0.7814,,,,,,,,0,77,77,91,1
,,,,,,,,,,,,,,,,,61004b542c80cc7e7e441d7b,39,2022-02-12_17h33.54.991,lexical_decision_task_DD,2021.2.3,Win32,60.09615385,,,,,,,,,,,0.7037,1,,,,,,,,,,,,,,,,,,,,,,,,0.397135417,-0.31640625,0,0,0,,,,,,,BRIDE,HB,z,m,./images/BRIDEHB.png,,,,,,,,,,,,,,,,,,,,,z,1,0.7037,,,,,,,,0,78,78,148,1
,,,,,,,,,,,,,,,,,61004b542c80cc7e7e441d7b,39,2022-02-12_17h33.54.991,lexical_decision_task_DD,2021.2.3,Win32,60.09615385,,,,,,,,,,,1.0014,1,,,,,,,,,,,,,,,,,,,,,,,,0.397135417,-0.31640625,0,0,0,,,,,,,WRIST,HB,m,m,./images/WRISTHB.png,,,,,,,,,,,,,,,,,,,,,m,1,1.0014,,,,,,,,0,79,79,25,1
,,,,,,,,,,,,,,,,,61004b542c80cc7e7e441d7b,39,2022-02-12_17h33.54.991,lexical_decision_task_DD,2021.2.3,Win32,60.09615385,,,,,,,,,,,0.7144,1,,,,,,,,,,,,,,,,,,,,,,,,0.397135417,-0.31640625,0,0,0,,,,,,,PASTA,LB,m,m,./images/PASTALB.png,,,,,,,,,,,,,,,,,,,,,m,1,0.7144,,,,,,,,0,80,80,5,1
,,,,,,,,,,,,,,,,,61004b542c80cc7e7e441d7b,39,2022-02-12_17h33.54.991,lexical_decision_task_DD,2021.2.3,Win32,60.09615385,,,,,,,,,,,0.6812,1,,,,,,,,,,,,,,,,,,,,,,,,0.397135417,-0.31640625,0,0,0,,,,,,,CARPET,LB,m,m,./images/CARPETLB.png,,,,,,,,,,,,,,,,,,,,,m,1,0.6812,,,,,,,,0,81,81,53,1
,,,,,,,,,,,,,,,,,61004b542c80cc7e7e441d7b,39,2022-02-12_17h33.54.991,lexical_decision_task_DD,2021.2.3,Win32,60.09615385,,,,,,,,,,,0.8753,1,,,,,,,,,,,,,,,,,,,,,,,,0.397135417,-0.31640625,0,0,0,,,,,,,SWING,HB,m,m,./images/SWINGHB.png,,,,,,,,,,,,,,,,,,,,,m,1,0.8753,,,,,,,,0,82,82,40,1
,,,,,,,,,,,,,,,,,61004b542c80cc7e7e441d7b,39,2022-02-12_17h33.54.991,lexical_decision_task_DD,2021.2.3,Win32,60.09615385,,,,,,,,,,,0.6679,1,,,,,,,,,,,,,,,,,,,,,,,,0.397135417,-0.31640625,0,0,0,space,,,,,,SAILOR,HB,m,m,./images/SAILORHB.png,1.6567,,,,,,,,,,,,,,,,,,,,m,1,0.6679,,,,,,,,0,83,83,67,1
,,,,,,,,,,,,,,,,,61004b542c80cc7e7e441d7b,39,2022-02-12_17h33.54.991,lexical_decision_task_DD,2021.2.3,Win32,60.09615385,,,,,,,,,,,0.7237,1,,,,,,,,,,,,,,,,,,,,,,,,0.397135417,-0.31640625,0,0,0,,,,,,,FARMER,LB,m,m,./images/FARMERLB.png,,,,,,,,,,,,,,,,,,,,,m,1,0.7237,,,,,,,,0,84,84,65,1
,,,,,,,,,,,,,,,,,61004b542c80cc7e7e441d7b,39,2022-02-12_17h33.54.991,lexical_decision_task_DD,2021.2.3,Win32,60.09615385,,,,,,,,,,,0.974,0,,,,,,,,,,,,,,,,,,,,,,,,0.397135417,-0.31640625,0,0,0,,,,,,,SMOKER,LB,m,m,./images/SMOKERLB.png,,,,,,,,,,,,,,,,,,,,,z,0,0.974,,,,,,,,0,85,85,26,1
,,,,,,,,,,,,,,,,,61004b542c80cc7e7e441d7b,39,2022-02-12_17h33.54.991,lexical_decision_task_DD,2021.2.3,Win32,60.09615385,,,,,,,,,,,0.7028,1,,,,,,,,,,,,,,,,,,,,,,,,0.397135417,-0.31640625,0,0,0,,,,,,,BLOKE,C,z,m,./images/BLOKE.png,,,,,,,,,,,,,,,,,,,,,z,1,0.7028,,,,,,,,0,86,86,96,1
,,,,,,,,,,,,,,,,,61004b542c80cc7e7e441d7b,39,2022-02-12_17h33.54.991,lexical_decision_task_DD,2021.2.3,Win32,60.09615385,,,,,,,,,,,0.8848,1,,,,,,,,,,,,,,,,,,,,,,,,0.397135417,-0.31640625,0,0,0,,,,,,,SHORE,C,m,m,./images/SHORE.png,,,,,,,,,,,,,,,,,,,,,m,1,0.8848,,,,,,,,0,87,87,12,1
,,,,,,,,,,,,,,,,,61004b542c80cc7e7e441d7b,39,2022-02-12_17h33.54.991,lexical_decision_task_DD,2021.2.3,Win32,60.09615385,,,,,,,,,,,0.7459,1,,,,,,,,,,,,,,,,,,,,,,,,0.397135417,-0.31640625,0,0,0,,,,,,,SWEAT,C,m,m,./images/SWEAT.png,,,,,,,,,,,,,,,,,,,,,m,1,0.7459,,,,,,,,0,88,88,66,1
,,,,,,,,,,,,,,,,,61004b542c80cc7e7e441d7b,39,2022-02-12_17h33.54.991,lexical_decision_task_DD,2021.2.3,Win32,60.09615385,,,,,,,,,,,1.1808,1,,,,,,,,,,,,,,,,,,,,,,,,0.397135417,-0.31640625,0,0,0,,,,,,,RULER,HB,z,m,./images/RULERHB.png,,,,,,,,,,,,,,,,,,,,,z,1,1.1808,,,,,,,,0,89,89,163,1
,,,,,,,,,,,,,,,,,61004b542c80cc7e7e441d7b,39,2022-02-12_17h33.54.991,lexical_decision_task_DD,2021.2.3,Win32,60.09615385,,,,,,,,,,,0.6289,1,,,,,,,,,,,,,,,,,,,,,,,,0.397135417,-0.31640625,0,0,0,,,,,,,ENGINE,LB,z,m,./images/ENGINELB.png,,,,,,,,,,,,,,,,,,,,,z,1,0.6289,,,,,,,,0,90,90,122,1
,,,,,,,,,,,,,,,,,61004b542c80cc7e7e441d7b,39,2022-02-12_17h33.54.991,lexical_decision_task_DD,2021.2.3,Win32,60.09615385,,,,,,,,,,,0.8205,1,,,,,,,,,,,,,,,,,,,,,,,,0.397135417,-0.31640625,0,0,0,,,,,,,GRAPE,HB,z,m,./images/GRAPEHB.png,,,,,,,,,,,,,,,,,,,,,z,1,0.8205,,,,,,,,0,91,91,100,1
,,,,,,,,,,,,,,,,,61004b542c80cc7e7e441d7b,39,2022-02-12_17h33.54.991,lexical_decision_task_DD,2021.2.3,Win32,60.09615385,,,,,,,,,,,0.831,1,,,,,,,,,,,,,,,,,,,,,,,,0.397135417,-0.31640625,0,0,0,,,,,,,DIVER,C,z,m,./images/DIVER.png,,,,,,,,,,,,,,,,,,,,,z,1,0.831,,,,,,,,0,92,92,93,1
,,,,,,,,,,,,,,,,,61004b542c80cc7e7e441d7b,39,2022-02-12_17h33.54.991,lexical_decision_task_DD,2021.2.3,Win32,60.09615385,,,,,,,,,,,0.7467,1,,,,,,,,,,,,,,,,,,,,,,,,0.397135417,-0.31640625,0,0,0,,,,,,,SAUCE,C,z,m,./images/SAUCE.png,,,,,,,,,,,,,,,,,,,,,z,1,0.7467,,,,,,,,0,93,93,135,1
,,,,,,,,,,,,,,,,,61004b542c80cc7e7e441d7b,39,2022-02-12_17h33.54.991,lexical_decision_task_DD,2021.2.3,Win32,60.09615385,,,,,,,,,,,1.4715,0,,,,,,,,,,,,,,,,,,,,,,,,0.397135417,-0.31640625,0,0,0,,,,,,,STREAM,LB,z,m,./images/STREAMLB.png,,,,,,,,,,,,,,,,,,,,,m,0,1.4715,,,,,,,,0,94,94,125,1
,,,,,,,,,,,,,,,,,61004b542c80cc7e7e441d7b,39,2022-02-12_17h33.54.991,lexical_decision_task_DD,2021.2.3,Win32,60.09615385,,,,,,,,,,,0.7549,0,,,,,,,,,,,,,,,,,,,,,,,,0.397135417,-0.31640625,0,0,0,,,,,,,FLASK,C,z,m,./images/FLASK.png,,,,,,,,,,,,,,,,,,,,,m,0,0.7549,,,,,,,,0,95,95,156,1
,,,,,,,,,,,,,,,,,61004b542c80cc7e7e441d7b,39,2022-02-12_17h33.54.991,lexical_decision_task_DD,2021.2.3,Win32,60.09615385,,,,,,,,,,,0.9062,1,,,,,,,,,,,,,,,,,,,,,,,,0.397135417,-0.31640625,0,0,0,,,,,,,FALCON,HB,m,m,./images/FALCONHB.png,,,,,,,,,,,,,,,,,,,,,m,1,0.9062,,,,,,,,0,96,96,28,1
,,,,,,,,,,,,,,,,,61004b542c80cc7e7e441d7b,39,2022-02-12_17h33.54.991,lexical_decision_task_DD,2021.2.3,Win32,60.09615385,,,,,,,,,,,0.6827,1,,,,,,,,,,,,,,,,,,,,,,,,0.397135417,-0.31640625,0,0,0,,,,,,,PEARL,HB,m,m,./images/PEARLHB.png,,,,,,,,,,,,,,,,,,,,,m,1,0.6827,,,,,,,,0,97,97,46,1
,,,,,,,,,,,,,,,,,61004b542c80cc7e7e441d7b,39,2022-02-12_17h33.54.991,lexical_decision_task_DD,2021.2.3,Win32,60.09615385,,,,,,,,,,,0.755,0,,,,,,,,,,,,,,,,,,,,,,,,0.397135417,-0.31640625,0,0,0,,,,,,,WALNUT,C,z,m,./images/WALNUT.png,,,,,,,,,,,,,,,,,,,,,m,0,0.755,,,,,,,,0,98,98,84,1
,,,,,,,,,,,,,,,,,61004b542c80cc7e7e441d7b,39,2022-02-12_17h33.54.991,lexical_decision_task_DD,2021.2.3,Win32,60.09615385,,,,,,,,,,,0.7643,0,,,,,,,,,,,,,,,,,,,,,,,,0.397135417,-0.31640625,0,0,0,,,,,,,BANNER,HB,m,m,./images/BANNERHB.png,,,,,,,,,,,,,,,,,,,,,z,0,0.7643,,,,,,,,0,99,99,52,1
,,,,,,,,,,,,,,,,,61004b542c80cc7e7e441d7b,39,2022-02-12_17h33.54.991,lexical_decision_task_DD,2021.2.3,Win32,60.09615385,,,,,,,,,,,0.7151,1,,,,,,,,,,,,,,,,,,,,,,,,0.397135417,-0.31640625,0,0,0,,,,,,,STEAK,HB,z,m,./images/STEAKHB.png,,,,,,,,,,,,,,,,,,,,,z,1,0.7151,,,,,,,,0,100,100,115,1
,,,,,,,,,,,,,,,,,61004b542c80cc7e7e441d7b,39,2022-02-12_17h33.54.991,lexical_decision_task_DD,2021.2.3,Win32,60.09615385,,,,,,,,,,,0.7375,1,,,,,,,,,,,,,,,,,,,,,,,,0.397135417,-0.31640625,0,0,0,,,,,,,STATUE,C,z,m,./images/STATUE.png,,,,,,,,,,,,,,,,,,,,,z,1,0.7375,,,,,,,,0,101,101,150,1
,,,,,,,,,,,,,,,,,61004b542c80cc7e7e441d7b,39,2022-02-12_17h33.54.991,lexical_decision_task_DD,2021.2.3,Win32,60.09615385,,,,,,,,,,,0.8198,1,,,,,,,,,,,,,,,,,,,,,,,,0.397135417,-0.31640625,0,0,0,,,,,,,STOVE,LB,z,m,./images/STOVELB.png,,,,,,,,,,,,,,,,,,,,,z,1,0.8198,,,,,,,,0,102,102,86,1
,,,,,,,,,,,,,,,,,61004b542c80cc7e7e441d7b,39,2022-02-12_17h33.54.991,lexical_decision_task_DD,2021.2.3,Win32,60.09615385,,,,,,,,,,,0.6291,1,,,,,,,,,,,,,,,,,,,,,,,,0.397135417,-0.31640625,0,0,0,,,,,,,SLOPE,C,z,m,./images/SLOPE.png,,,,,,,,,,,,,,,,,,,,,z,1,0.6291,,,,,,,,0,103,103,114,1
,,,,,,,,,,,,,,,,,61004b542c80cc7e7e441d7b,39,2022-02-12_17h33.54.991,lexical_decision_task_DD,2021.2.3,Win32,60.09615385,,,,,,,,,,,1.121,0,,,,,,,,,,,,,,,,,,,,,,,,0.397135417,-0.31640625,0,0,0,,,,,,,POKER,HB,z,m,./images/POKERHB.png,,,,,,,,,,,,,,,,,,,,,m,0,1.121,,,,,,,,0,104,104,151,1
,,,,,,,,,,,,,,,,,61004b542c80cc7e7e441d7b,39,2022-02-12_17h33.54.991,lexical_decision_task_DD,2021.2.3,Win32,60.09615385,,,,,,,,,,,0.8119,1,,,,,,,,,,,,,,,,,,,,,,,,0.397135417,-0.31640625,0,0,0,,,,,,,BUNNY,HB,z,m,./images/BUNNYHB.png,,,,,,,,,,,,,,,,,,,,,z,1,0.8119,,,,,,,,0,105,105,97,1
,,,,,,,,,,,,,,,,,61004b542c80cc7e7e441d7b,39,2022-02-12_17h33.54.991,lexical_decision_task_DD,2021.2.3,Win32,60.09615385,,,,,,,,,,,0.7362,1,,,,,,,,,,,,,,,,,,,,,,,,0.397135417,-0.31640625,0,0,0,,,,,,,PIMPLE,LB,m,m,./images/PIMPLELB.png,,,,,,,,,,,,,,,,,,,,,m,1,0.7362,,,,,,,,0,106,106,71,1
,,,,,,,,,,,,,,,,,61004b542c80cc7e7e441d7b,39,2022-02-12_17h33.54.991,lexical_decision_task_DD,2021.2.3,Win32,60.09615385,,,,,,,,,,,0.6871,1,,,,,,,,,,,,,,,,,,,,,,,,0.397135417,-0.31640625,0,0,0,,,,,,,MOSQUE,HB,m,m,./images/MOSQUEHB.png,,,,,,,,,,,,,,,,,,,,,m,1,0.6871,,,,,,,,0,107,107,43,1
,,,,,,,,,,,,,,,,,61004b542c80cc7e7e441d7b,39,2022-02-12_17h33.54.991,lexical_decision_task_DD,2021.2.3,Win32,60.09615385,,,,,,,,,,,0.8487,1,,,,,,,,,,,,,,,,,,,,,,,,0.397135417,-0.31640625,0,0,0,,,,,,,VALLEY,LB,z,m,./images/VALLEYLB.png,,,,,,,,,,,,,,,,,,,,,z,1,0.8487,,,,,,,,0,108,108,152,1
,,,,,,,,,,,,,,,,,61004b542c80cc7e7e441d7b,39,2022-02-12_17h33.54.991,lexical_decision_task_DD,2021.2.3,Win32,60.09615385,,,,,,,,,,,0.8299,1,,,,,,,,,,,,,,,,,,,,,,,,0.397135417,-0.31640625,0,0,0,,,,,,,LADDER,LB,m,m,./images/LADDERLB.png,,,,,,,,,,,,,,,,,,,,,m,1,0.8299,,,,,,,,0,109,109,38,1
,,,,,,,,,,,,,,,,,61004b542c80cc7e7e441d7b,39,2022-02-12_17h33.54.991,lexical_decision_task_DD,2021.2.3,Win32,60.09615385,,,,,,,,,,,1.4191,1,,,,,,,,,,,,,,,,,,,,,,,,0.397135417,-0.31640625,0,0,0,,,,,,,WEASEL,LB,m,m,./images/WEASELLB.png,,,,,,,,,,,,,,,,,,,,,m,1,1.4191,,,,,,,,0,110,110,80,1
,,,,,,,,,,,,,,,,,61004b542c80cc7e7e441d7b,39,2022-02-12_17h33.54.991,lexical_decision_task_DD,2021.2.3,Win32,60.09615385,,,,,,,,,,,1.531,1,,,,,,,,,,,,,,,,,,,,,,,,0.397135417,-0.31640625,0,0,0,,,,,,,BURIAL,LB,m,m,./images/BURIALLB.png,,,,,,,,,,,,,,,,,,,,,m,1,1.531,,,,,,,,0,111,111,59,1
,,,,,,,,,,,,,,,,,61004b542c80cc7e7e441d7b,39,2022-02-12_17h33.54.991,lexical_decision_task_DD,2021.2.3,Win32,60.09615385,,,,,,,,,,,0.8236,1,,,,,,,,,,,,,,,,,,,,,,,,0.397135417,-0.31640625,0,0,0,,,,,,,MELON,HB,m,m,./images/MELONHB.png,,,,,,,,,,,,,,,,,,,,,m,1,0.8236,,,,,,,,0,112,112,22,1
,,,,,,,,,,,,,,,,,61004b542c80cc7e7e441d7b,39,2022-02-12_17h33.54.991,lexical_decision_task_DD,2021.2.3,Win32,60.09615385,,,,,,,,,,,1.0807,1,,,,,,,,,,,,,,,,,,,,,,,,0.397135417,-0.31640625,0,0,0,,,,,,,BUBBLE,LB,z,m,./images/BUBBLELB.png,,,,,,,,,,,,,,,,,,,,,z,1,1.0807,,,,,,,,0,113,113,155,1
,,,,,,,,,,,,,,,,,61004b542c80cc7e7e441d7b,39,2022-02-12_17h33.54.991,lexical_decision_task_DD,2021.2.3,Win32,60.09615385,,,,,,,,,,,0.7963,1,,,,,,,,,,,,,,,,,,,,,,,,0.397135417,-0.31640625,0,0,0,,,,,,,BIRTH,HB,m,m,./images/BIRTHHB.png,,,,,,,,,,,,,,,,,,,,,m,1,0.7963,,,,,,,,0,114,114,37,1
,,,,,,,,,,,,,,,,,61004b542c80cc7e7e441d7b,39,2022-02-12_17h33.54.991,lexical_decision_task_DD,2021.2.3,Win32,60.09615385,,,,,,,,,,,1.0005,1,,,,,,,,,,,,,,,,,,,,,,,,0.397135417,-0.31640625,0,0,0,,,,,,,BUTTER,C,z,m,./images/BUTTER.png,,,,,,,,,,,,,,,,,,,,,z,1,1.0005,,,,,,,,0,115,115,111,1
,,,,,,,,,,,,,,,,,61004b542c80cc7e7e441d7b,39,2022-02-12_17h33.54.991,lexical_decision_task_DD,2021.2.3,Win32,60.09615385,,,,,,,,,,,1.0361,0,,,,,,,,,,,,,,,,,,,,,,,,0.397135417,-0.31640625,0,0,0,,,,,,,PARADE,LB,z,m,./images/PARADELB.png,,,,,,,,,,,,,,,,,,,,,m,0,1.0361,,,,,,,,0,116,116,101,1
,,,,,,,,,,,,,,,,,61004b542c80cc7e7e441d7b,39,2022-02-12_17h33.54.991,lexical_decision_task_DD,2021.2.3,Win32,60.09615385,,,,,,,,,,,0.8652,1,,,,,,,,,,,,,,,,,,,,,,,,0.397135417,-0.31640625,0,0,0,,,,,,,ATTIC,C,m,m,./images/ATTIC.png,,,,,,,,,,,,,,,,,,,,,m,1,0.8652,,,,,,,,0,117,117,27,1
,,,,,,,,,,,,,,,,,61004b542c80cc7e7e441d7b,39,2022-02-12_17h33.54.991,lexical_decision_task_DD,2021.2.3,Win32,60.09615385,,,,,,,,,,,1.0996,0,,,,,,,,,,,,,,,,,,,,,,,,0.397135417,-0.31640625,0,0,0,,,,,,,STRING,LB,m,m,./images/STRINGLB.png,,,,,,,,,,,,,,,,,,,,,z,0,1.0996,,,,,,,,0,118,118,41,1
,,,,,,,,,,,,,,,,,61004b542c80cc7e7e441d7b,39,2022-02-12_17h33.54.991,lexical_decision_task_DD,2021.2.3,Win32,60.09615385,,,,,,,,,,,0.9454,1,,,,,,,,,,,,,,,,,,,,,,,,0.397135417,-0.31640625,0,0,0,,,,,,,URINE,HB,m,m,./images/URINEHB.png,,,,,,,,,,,,,,,,,,,,,m,1,0.9454,,,,,,,,0,119,119,70,1
,,,,,,,,,,,,,,,,,61004b542c80cc7e7e441d7b,39,2022-02-12_17h33.54.991,lexical_decision_task_DD,2021.2.3,Win32,60.09615385,,,,,,,,,,,0.9173,1,,,,,,,,,,,,,,,,,,,,,,,,0.397135417,-0.31640625,0,0,0,,,,,,,PICKLE,LB,m,m,./images/PICKLELB.png,,,,,,,,,,,,,,,,,,,,,m,1,0.9173,,,,,,,,0,120,120,14,1
,,,,,,,,,,,,,,,,,61004b542c80cc7e7e441d7b,39,2022-02-12_17h33.54.991,lexical_decision_task_DD,2021.2.3,Win32,60.09615385,,,,,,,,,,,0.7346,1,,,,,,,,,,,,,,,,,,,,,,,,0.397135417,-0.31640625,0,0,0,,,,,,,WALRUS,LB,m,m,./images/WALRUSLB.png,,,,,,,,,,,,,,,,,,,,,m,1,0.7346,,,,,,,,0,121,121,23,1
,,,,,,,,,,,,,,,,,61004b542c80cc7e7e441d7b,39,2022-02-12_17h33.54.991,lexical_decision_task_DD,2021.2.3,Win32,60.09615385,,,,,,,,,,,1.2937,0,,,,,,,,,,,,,,,,,,,,,,,,0.397135417,-0.31640625,0,0,0,,,,,,,MUSCLE,HB,m,m,./images/MUSCLEHB.png,,,,,,,,,,,,,,,,,,,,,z,0,1.2937,,,,,,,,0,122,122,4,1
,,,,,,,,,,,,,,,,,61004b542c80cc7e7e441d7b,39,2022-02-12_17h33.54.991,lexical_decision_task_DD,2021.2.3,Win32,60.09615385,,,,,,,,,,,0.9121,1,,,,,,,,,,,,,,,,,,,,,,,,0.397135417,-0.31640625,0,0,0,,,,,,,BONNET,LB,m,m,./images/BONNETLB.png,,,,,,,,,,,,,,,,,,,,,m,1,0.9121,,,,,,,,0,123,123,11,1
,,,,,,,,,,,,,,,,,61004b542c80cc7e7e441d7b,39,2022-02-12_17h33.54.991,lexical_decision_task_DD,2021.2.3,Win32,60.09615385,,,,,,,,,,,0.8686,1,,,,,,,,,,,,,,,,,,,,,,,,0.397135417,-0.31640625,0,0,0,,,,,,,BARREL,LB,m,m,./images/BARRELLB.png,,,,,,,,,,,,,,,,,,,,,m,1,0.8686,,,,,,,,0,124,124,32,1
,,,,,,,,,,,,,,,,,61004b542c80cc7e7e441d7b,39,2022-02-12_17h33.54.991,lexical_decision_task_DD,2021.2.3,Win32,60.09615385,,,,,,,,,,,1.004,1,,,,,,,,,,,,,,,,,,,,,,,,0.397135417,-0.31640625,0,0,0,space,,,,,,LITTER,C,m,m,./images/LITTER.png,1.7209,,,,,,,,,,,,,,,,,,,,m,1,1.004,,,,,,,,0,125,125,78,1
,,,,,,,,,,,,,,,,,61004b542c80cc7e7e441d7b,39,2022-02-12_17h33.54.991,lexical_decision_task_DD,2021.2.3,Win32,60.09615385,,,,,,,,,,,0.8135,0,,,,,,,,,,,,,,,,,,,,,,,,0.397135417,-0.31640625,0,0,0,,,,,,,MOTOR,HB,m,m,./images/MOTORHB.png,,,,,,,,,,,,,,,,,,,,,z,0,0.8135,,,,,,,,0,126,126,13,1
,,,,,,,,,,,,,,,,,61004b542c80cc7e7e441d7b,39,2022-02-12_17h33.54.991,lexical_decision_task_DD,2021.2.3,Win32,60.09615385,,,,,,,,,,,1.7996,1,,,,,,,,,,,,,,,,,,,,,,,,0.397135417,-0.31640625,0,0,0,,,,,,,PENCE,HB,m,m,./images/PENCEHB.png,,,,,,,,,,,,,,,,,,,,,m,1,1.7996,,,,,,,,0,127,127,16,1
,,,,,,,,,,,,,,,,,61004b542c80cc7e7e441d7b,39,2022-02-12_17h33.54.991,lexical_decision_task_DD,2021.2.3,Win32,60.09615385,,,,,,,,,,,0.9479,1,,,,,,,,,,,,,,,,,,,,,,,,0.397135417,-0.31640625,0,0,0,,,,,,,CANOE,HB,z,m,./images/CANOEHB.png,,,,,,,,,,,,,,,,,,,,,z,1,0.9479,,,,,,,,0,128,128,142,1
,,,,,,,,,,,,,,,,,61004b542c80cc7e7e441d7b,39,2022-02-12_17h33.54.991,lexical_decision_task_DD,2021.2.3,Win32,60.09615385,,,,,,,,,,,2.5951,0,,,,,,,,,,,,,,,,,,,,,,,,0.397135417,-0.31640625,0,0,0,,,,,,,SPORT,C,m,m,./images/SPORT.png,,,,,,,,,,,,,,,,,,,,,z,0,2.5951,,,,,,,,0,129,129,48,1
,,,,,,,,,,,,,,,,,61004b542c80cc7e7e441d7b,39,2022-02-12_17h33.54.991,lexical_decision_task_DD,2021.2.3,Win32,60.09615385,,,,,,,,,,,0.8929,1,,,,,,,,,,,,,,,,,,,,,,,,0.397135417,-0.31640625,0,0,0,,,,,,,STORM,C,m,m,./images/STORM.png,,,,,,,,,,,,,,,,,,,,,m,1,0.8929,,,,,,,,0,130,130,30,1
,,,,,,,,,,,,,,,,,61004b542c80cc7e7e441d7b,39,2022-02-12_17h33.54.991,lexical_decision_task_DD,2021.2.3,Win32,60.09615385,,,,,,,,,,,1.7133,1,,,,,,,,,,,,,,,,,,,,,,,,0.397135417,-0.31640625,0,0,0,,,,,,,CHERRY,C,z,m,./images/CHERRY.png,,,,,,,,,,,,,,,,,,,,,z,1,1.7133,,,,,,,,0,131,131,138,1
,,,,,,,,,,,,,,,,,61004b542c80cc7e7e441d7b,39,2022-02-12_17h33.54.991,lexical_decision_task_DD,2021.2.3,Win32,60.09615385,,,,,,,,,,,0.7601,0,,,,,,,,,,,,,,,,,,,,,,,,0.397135417,-0.31640625,0,0,0,,,,,,,PILOT,LB,z,m,./images/PILOTLB.png,,,,,,,,,,,,,,,,,,,,,m,0,0.7601,,,,,,,,0,132,132,134,1
,,,,,,,,,,,,,,,,,61004b542c80cc7e7e441d7b,39,2022-02-12_17h33.54.991,lexical_decision_task_DD,2021.2.3,Win32,60.09615385,,,,,,,,,,,0.9294,1,,,,,,,,,,,,,,,,,,,,,,,,0.397135417,-0.31640625,0,0,0,,,,,,,HEATER,LB,z,m,./images/HEATERLB.png,,,,,,,,,,,,,,,,,,,,,z,1,0.9294,,,,,,,,0,133,133,140,1
,,,,,,,,,,,,,,,,,61004b542c80cc7e7e441d7b,39,2022-02-12_17h33.54.991,lexical_decision_task_DD,2021.2.3,Win32,60.09615385,,,,,,,,,,,0.7316,1,,,,,,,,,,,,,,,,,,,,,,,,0.397135417,-0.31640625,0,0,0,,,,,,,TULIP,LB,m,m,./images/TULIPLB.png,,,,,,,,,,,,,,,,,,,,,m,1,0.7316,,,,,,,,0,134,134,8,1
,,,,,,,,,,,,,,,,,61004b542c80cc7e7e441d7b,39,2022-02-12_17h33.54.991,lexical_decision_task_DD,2021.2.3,Win32,60.09615385,,,,,,,,,,,1.9838,0,,,,,,,,,,,,,,,,,,,,,,,,0.397135417,-0.31640625,0,0,0,,,,,,,FENCE,LB,z,m,./images/FENCELB.png,,,,,,,,,,,,,,,,,,,,,m,0,1.9838,,,,,,,,0,135,135,98,1
