key_resp.keys,key_resp.rt,instr_done_touch.x,instr_done_touch.y,instr_done_touch.leftButton,instr_done_touch.midButton,instr_done_touch.rightButton,instruction_pages.thisRepN,instruction_pages.thisTrialN,instruction_pages.thisN,instruction_pages.thisIndex,instruction_pages.ran,pageN,phase,instruct_text,has_image,instruct_image,participant,age,date,expName,psychopyVersion,OS,frameRate,response.keys,response.corr,response.rt,touch_resp.x,touch_resp.y,touch_resp.leftButton,touch_resp.midButton,touch_resp.rightButton,touch_resp.time,touch_resp.clicked_name,rt,corr,practrials.thisRepN,practrials.thisTrialN,practrials.thisN,practrials.thisIndex,practrials.ran,TrialID,Target,corrAns,end_of_practice_trials_pages.thisRepN,end_of_practice_trials_pages.thisTrialN,end_of_practice_trials_pages.thisN,end_of_practice_trials_pages.thisIndex,end_of_practice_trials_pages.ran,key_resp_2.keys,key_resp_2.corr,key_resp_2.rt,targ_click.x,targ_click.y,targ_click.leftButton,targ_click.midButton,targ_click.rightButton,targ_click.time,targ_click.clicked_name,break_done_touch.x,break_done_touch.y,break_done_touch.leftButton,break_done_touch.midButton,break_done_touch.rightButton,break_done_keyboard.keys,maintrials.thisRepN,maintrials.thisTrialN,maintrials.thisN,maintrials.thisIndex,maintrials.ran,string,blur,study,lex,stim_path,break_done_keyboard.rt,mouse_2.x,mouse_2.y,mouse_2.leftButton,mouse_2.midButton,mouse_2.rightButton,mouse_2.clicked_name,slider.response,slider.rt,trials.thisRepN,trials.thisTrialN,trials.thisN,trials.thisIndex,trials.ran,instr_done_touch.clicked_name,test_instructions.thisRepN,test_instructions.thisTrialN,test_instructions.thisN,test_instructions.thisIndex,test_instructions.ran,key_resp_3.keys,key_resp_3.corr,key_resp_3.rt,test_click.x,test_click.y,test_click.leftButton,test_click.midButton,test_click.rightButton,test_click.time,test_click.clicked_name,test_phase.thisRepN,test_phase.thisTrialN,test_phase.thisN,test_phase.thisIndex,test_phase.ran
space,29.246,0.286666667,-0.065555556,0,0,0,0,0,0,0,1,1,instructions,"INSTRUCTIONS
At the start of each trial, look at the plus sign  (+) in the center of the screen.  This tells you that a trial is about to begin and where to look. Second, the plus sign will disappear and a string of letters will appear. Your task is to determine if the string of letters is a word or not. If the item is a word press the M key (on keyboard)  or touch the word button (phone/tablet).  If the item is not a word,  press the  Z key (on keyboard)  or touch the nonword button (on phone/tablet). 
Press the space bar or touch  continue.",0,,610095d245338153ded5b30d,18,2022-02-12_17h51.08.653,lexical_decision_task_DD_L3,2021.2.3,MacIntel,58.82352941,,,,,,,,,,,,,,,,,,,,,,,,,,,,,,,,,,,,,,,,,,,,,,,,,,,,,,,,,,,,,,,,,,,,,,,,,,,,,,,,,,,,,,
space,9.435,0.286666667,-0.065555556,0,0,0,0,1,1,1,1,2,instructions,"If your device has a keyboard, press the 'Z' key for nonwords and the 'M' key for words.





Press the space bar or touch the button below to continue.",0,keyboard-example.gif,610095d245338153ded5b30d,18,2022-02-12_17h51.08.653,lexical_decision_task_DD_L3,2021.2.3,MacIntel,58.82352941,,,,,,,,,,,,,,,,,,,,,,,,,,,,,,,,,,,,,,,,,,,,,,,,,,,,,,,,,,,,,,,,,,,,,,,,,,,,,,,,,,,,,,
space,3.704,0.286666667,-0.065555556,0,0,0,0,2,2,2,1,3,instructions,"If you are using a touchscreen only device, use the buttons on the screen. Do not use the mouse.





Press the space bar or touch the button below to continue.",0,touchscreen-example.gif,610095d245338153ded5b30d,18,2022-02-12_17h51.08.653,lexical_decision_task_DD_L3,2021.2.3,MacIntel,58.82352941,,,,,,,,,,,,,,,,,,,,,,,,,,,,,,,,,,,,,,,,,,,,,,,,,,,,,,,,,,,,,,,,,,,,,,,,,,,,,,,,,,,,,,
space,15.896,0.286666667,-0.065555556,0,0,0,0,3,3,3,1,4,instructions,"It is very important that you respond as quickly and accurately as possible, as each letter string will only be on the screen for two seconds. If you do not respond within this time, the message 'Too slow!' will be displayed and the experiment will progress to the next letter string. The first 20 trials will be practice trials and you will receive feedback on your answers. 

Press the space bar or touch the button below to start the practice trials.",0,,610095d245338153ded5b30d,18,2022-02-12_17h51.08.653,lexical_decision_task_DD_L3,2021.2.3,MacIntel,58.82352941,,,,,,,,,,,,,,,,,,,,,,,,,,,,,,,,,,,,,,,,,,,,,,,,,,,,,,,,,,,,,,,,,,,,,,,,,,,,,,,,,,,,,,
,,,,,,,,,,,,,,,,,610095d245338153ded5b30d,18,2022-02-12_17h51.08.653,lexical_decision_task_DD_L3,2021.2.3,MacIntel,58.82352941,m,1,0.973,,,,,,,,0.973,1,0,0,0,0,1,1001,UTOPIA,m,,,,,,,,,,,,,,,,,,,,,,,,,,,,,,,,,,,,,,,,,,,,,,,,,,,,,,,,,,,,,,,,,,
,,,,,,,,,,,,,,,,,610095d245338153ded5b30d,18,2022-02-12_17h51.08.653,lexical_decision_task_DD_L3,2021.2.3,MacIntel,58.82352941,z,1,1.32,,,,,,,,1.32,1,0,1,1,14,1,1001,THRALE,z,,,,,,,,,,,,,,,,,,,,,,,,,,,,,,,,,,,,,,,,,,,,,,,,,,,,,,,,,,,,,,,,,,
,,,,,,,,,,,,,,,,,610095d245338153ded5b30d,18,2022-02-12_17h51.08.653,lexical_decision_task_DD_L3,2021.2.3,MacIntel,58.82352941,m,1,0.649,,,,,,,,0.649,1,0,2,2,7,1,1001,VOLUME,m,,,,,,,,,,,,,,,,,,,,,,,,,,,,,,,,,,,,,,,,,,,,,,,,,,,,,,,,,,,,,,,,,,
,,,,,,,,,,,,,,,,,610095d245338153ded5b30d,18,2022-02-12_17h51.08.653,lexical_decision_task_DD_L3,2021.2.3,MacIntel,58.82352941,z,1,0.92,,,,,,,,0.92,1,0,3,3,9,1,1001,FARINY,z,,,,,,,,,,,,,,,,,,,,,,,,,,,,,,,,,,,,,,,,,,,,,,,,,,,,,,,,,,,,,,,,,,
,,,,,,,,,,,,,,,,,610095d245338153ded5b30d,18,2022-02-12_17h51.08.653,lexical_decision_task_DD_L3,2021.2.3,MacIntel,58.82352941,m,1,0.604,,,,,,,,0.604,1,0,4,4,5,1,1001,OBTAIN,m,,,,,,,,,,,,,,,,,,,,,,,,,,,,,,,,,,,,,,,,,,,,,,,,,,,,,,,,,,,,,,,,,,
,,,,,,,,,,,,,,,,,610095d245338153ded5b30d,18,2022-02-12_17h51.08.653,lexical_decision_task_DD_L3,2021.2.3,MacIntel,58.82352941,m,1,0.603,,,,,,,,0.603,1,0,5,5,3,1,1001,MATRIX,m,,,,,,,,,,,,,,,,,,,,,,,,,,,,,,,,,,,,,,,,,,,,,,,,,,,,,,,,,,,,,,,,,,
,,,,,,,,,,,,,,,,,610095d245338153ded5b30d,18,2022-02-12_17h51.08.653,lexical_decision_task_DD_L3,2021.2.3,MacIntel,58.82352941,m,1,0.599,,,,,,,,0.599,1,0,6,6,2,1,1001,ALMOND,m,,,,,,,,,,,,,,,,,,,,,,,,,,,,,,,,,,,,,,,,,,,,,,,,,,,,,,,,,,,,,,,,,,
,,,,,,,,,,,,,,,,,610095d245338153ded5b30d,18,2022-02-12_17h51.08.653,lexical_decision_task_DD_L3,2021.2.3,MacIntel,58.82352941,m,1,0.582,,,,,,,,0.582,1,0,7,7,1,1,1001,ADJUST,m,,,,,,,,,,,,,,,,,,,,,,,,,,,,,,,,,,,,,,,,,,,,,,,,,,,,,,,,,,,,,,,,,,
,,,,,,,,,,,,,,,,,610095d245338153ded5b30d,18,2022-02-12_17h51.08.653,lexical_decision_task_DD_L3,2021.2.3,MacIntel,58.82352941,z,1,0.748,,,,,,,,0.748,1,0,8,8,15,1,1001,WHAISE,z,,,,,,,,,,,,,,,,,,,,,,,,,,,,,,,,,,,,,,,,,,,,,,,,,,,,,,,,,,,,,,,,,,
,,,,,,,,,,,,,,,,,610095d245338153ded5b30d,18,2022-02-12_17h51.08.653,lexical_decision_task_DD_L3,2021.2.3,MacIntel,58.82352941,z,1,0.752,,,,,,,,0.752,1,0,9,9,12,1,1001,SPRINY,z,,,,,,,,,,,,,,,,,,,,,,,,,,,,,,,,,,,,,,,,,,,,,,,,,,,,,,,,,,,,,,,,,,
,,,,,,,,,,,,,,,,,610095d245338153ded5b30d,18,2022-02-12_17h51.08.653,lexical_decision_task_DD_L3,2021.2.3,MacIntel,58.82352941,z,1,1.115,,,,,,,,1.115,1,0,10,10,10,1,1001,INLADE,z,,,,,,,,,,,,,,,,,,,,,,,,,,,,,,,,,,,,,,,,,,,,,,,,,,,,,,,,,,,,,,,,,,
,,,,,,,,,,,,,,,,,610095d245338153ded5b30d,18,2022-02-12_17h51.08.653,lexical_decision_task_DD_L3,2021.2.3,MacIntel,58.82352941,m,1,0.681,,,,,,,,0.681,1,0,11,11,4,1,1001,SQUEAK,m,,,,,,,,,,,,,,,,,,,,,,,,,,,,,,,,,,,,,,,,,,,,,,,,,,,,,,,,,,,,,,,,,,
,,,,,,,,,,,,,,,,,610095d245338153ded5b30d,18,2022-02-12_17h51.08.653,lexical_decision_task_DD_L3,2021.2.3,MacIntel,58.82352941,z,1,0.832,,,,,,,,0.832,1,0,12,12,8,1,1001,ASLERT,z,,,,,,,,,,,,,,,,,,,,,,,,,,,,,,,,,,,,,,,,,,,,,,,,,,,,,,,,,,,,,,,,,,
,,,,,,,,,,,,,,,,,610095d245338153ded5b30d,18,2022-02-12_17h51.08.653,lexical_decision_task_DD_L3,2021.2.3,MacIntel,58.82352941,m,1,0.686,,,,,,,,0.686,1,0,13,13,6,1,1001,ZOMBIE,m,,,,,,,,,,,,,,,,,,,,,,,,,,,,,,,,,,,,,,,,,,,,,,,,,,,,,,,,,,,,,,,,,,
,,,,,,,,,,,,,,,,,610095d245338153ded5b30d,18,2022-02-12_17h51.08.653,lexical_decision_task_DD_L3,2021.2.3,MacIntel,58.82352941,z,1,0.782,,,,,,,,0.782,1,0,14,14,13,1,1001,ROUPET,z,,,,,,,,,,,,,,,,,,,,,,,,,,,,,,,,,,,,,,,,,,,,,,,,,,,,,,,,,,,,,,,,,,
,,,,,,,,,,,,,,,,,610095d245338153ded5b30d,18,2022-02-12_17h51.08.653,lexical_decision_task_DD_L3,2021.2.3,MacIntel,58.82352941,z,1,0.7,,,,,,,,0.7,1,0,15,15,11,1,1001,RASHET,z,,,,,,,,,,,,,,,,,,,,,,,,,,,,,,,,,,,,,,,,,,,,,,,,,,,,,,,,,,,,,,,,,,
space,29.268,0.286666667,-0.065555556,0,0,0,,,,,,1,end_of_practice,"You have completed the practice trials. During the experimental trials, you will not receive feedback. 
Before you begin, please ensure that you are in a comfortable and quiet location and will not be disturbed for about 15 minutes, as we cannot use your data if you do not complete all the trials. 
 When you are ready to start the experimental trials, please press space or touch the button below.",,,610095d245338153ded5b30d,18,2022-02-12_17h51.08.653,lexical_decision_task_DD_L3,2021.2.3,MacIntel,58.82352941,,,,,,,,,,,,,,,,,,,,,0,0,0,0,1,,,,,,,,,,,,,,,,,,,,,,,,,,,,,,,,,,,,,,,,,,,,,,,,,,,,,,,,,,,,,
,,,,,,,,,,,,,,,,,610095d245338153ded5b30d,18,2022-02-12_17h51.08.653,lexical_decision_task_DD_L3,2021.2.3,MacIntel,58.82352941,,,,,,,,,,,0.65,1,,,,,,,,,,,,,,m,1,0.65,,,,,,,,0.286666667,-0.065555556,0,0,0,,0,0,0,4,1,MUSCLE,C,old,m,./images/MUSCLE.png,,,,,,,,,,,,,,,,,,,,,,,,,,,,,,,,,,,
,,,,,,,,,,,,,,,,,610095d245338153ded5b30d,18,2022-02-12_17h51.08.653,lexical_decision_task_DD_L3,2021.2.3,MacIntel,58.82352941,,,,,,,,,,,0.892,1,,,,,,,,,,,,,,m,1,0.892,,,,,,,,0.286666667,-0.065555556,0,0,0,,0,1,1,9,1,RHINO,LB,old,m,./images/RHINOLB.png,,,,,,,,,,,,,,,,,,,,,,,,,,,,,,,,,,,
,,,,,,,,,,,,,,,,,610095d245338153ded5b30d,18,2022-02-12_17h51.08.653,lexical_decision_task_DD_L3,2021.2.3,MacIntel,58.82352941,,,,,,,,,,,0.919,1,,,,,,,,,,,,,,m,1,0.919,,,,,,,,0.286666667,-0.065555556,0,0,0,,0,2,2,35,1,PEACH,HB,old,m,./images/PEACHHB.png,,,,,,,,,,,,,,,,,,,,,,,,,,,,,,,,,,,
,,,,,,,,,,,,,,,,,610095d245338153ded5b30d,18,2022-02-12_17h51.08.653,lexical_decision_task_DD_L3,2021.2.3,MacIntel,58.82352941,,,,,,,,,,,0.888,1,,,,,,,,,,,,,,z,1,0.888,,,,,,,,0.286666667,-0.065555556,0,0,0,,0,3,3,159,1,CUDDY,C,old,z,./images/CUDDY.png,,,,,,,,,,,,,,,,,,,,,,,,,,,,,,,,,,,
,,,,,,,,,,,,,,,,,610095d245338153ded5b30d,18,2022-02-12_17h51.08.653,lexical_decision_task_DD_L3,2021.2.3,MacIntel,58.82352941,,,,,,,,,,,0.984,1,,,,,,,,,,,,,,z,1,0.984,,,,,,,,0.286666667,-0.065555556,0,0,0,,0,4,4,161,1,BLAPS,LB,old,z,./images/BLAPSLB.png,,,,,,,,,,,,,,,,,,,,,,,,,,,,,,,,,,,
,,,,,,,,,,,,,,,,,610095d245338153ded5b30d,18,2022-02-12_17h51.08.653,lexical_decision_task_DD_L3,2021.2.3,MacIntel,58.82352941,,,,,,,,,,,0.886,1,,,,,,,,,,,,,,z,1,0.886,,,,,,,,0.286666667,-0.065555556,0,0,0,,0,5,5,153,1,CLUPS,C,old,z,./images/CLUPS.png,,,,,,,,,,,,,,,,,,,,,,,,,,,,,,,,,,,
,,,,,,,,,,,,,,,,,610095d245338153ded5b30d,18,2022-02-12_17h51.08.653,lexical_decision_task_DD_L3,2021.2.3,MacIntel,58.82352941,,,,,,,,,,,0.708,1,,,,,,,,,,,,,,m,1,0.708,,,,,,,,0.286666667,-0.065555556,0,0,0,,0,6,6,64,1,JELLY,C,old,m,./images/JELLY.png,,,,,,,,,,,,,,,,,,,,,,,,,,,,,,,,,,,
,,,,,,,,,,,,,,,,,610095d245338153ded5b30d,18,2022-02-12_17h51.08.653,lexical_decision_task_DD_L3,2021.2.3,MacIntel,58.82352941,,,,,,,,,,,0.7,1,,,,,,,,,,,,,,m,1,0.7,,,,,,,,0.286666667,-0.065555556,0,0,0,,0,7,7,48,1,SPORT,LB,old,m,./images/SPORTLB.png,,,,,,,,,,,,,,,,,,,,,,,,,,,,,,,,,,,
,,,,,,,,,,,,,,,,,610095d245338153ded5b30d,18,2022-02-12_17h51.08.653,lexical_decision_task_DD_L3,2021.2.3,MacIntel,58.82352941,,,,,,,,,,,0.885,1,,,,,,,,,,,,,,z,1,0.885,,,,,,,,0.286666667,-0.065555556,0,0,0,,0,8,8,129,1,PRANS,C,old,z,./images/PRANS.png,,,,,,,,,,,,,,,,,,,,,,,,,,,,,,,,,,,
,,,,,,,,,,,,,,,,,610095d245338153ded5b30d,18,2022-02-12_17h51.08.653,lexical_decision_task_DD_L3,2021.2.3,MacIntel,58.82352941,,,,,,,,,,,0.796,1,,,,,,,,,,,,,,z,1,0.796,,,,,,,,0.286666667,-0.065555556,0,0,0,,0,9,9,116,1,BALGY,LB,old,z,./images/BALGYLB.png,,,,,,,,,,,,,,,,,,,,,,,,,,,,,,,,,,,
,,,,,,,,,,,,,,,,,610095d245338153ded5b30d,18,2022-02-12_17h51.08.653,lexical_decision_task_DD_L3,2021.2.3,MacIntel,58.82352941,,,,,,,,,,,1.251,1,,,,,,,,,,,,,,z,1,1.251,,,,,,,,0.286666667,-0.065555556,0,0,0,,0,10,10,136,1,WERVE,HB,old,z,./images/WERVEHB.png,,,,,,,,,,,,,,,,,,,,,,,,,,,,,,,,,,,
,,,,,,,,,,,,,,,,,610095d245338153ded5b30d,18,2022-02-12_17h51.08.653,lexical_decision_task_DD_L3,2021.2.3,MacIntel,58.82352941,,,,,,,,,,,0.886,1,,,,,,,,,,,,,,m,1,0.886,,,,,,,,0.286666667,-0.065555556,0,0,0,,0,11,11,58,1,BABOON,C,old,m,./images/BABOON.png,,,,,,,,,,,,,,,,,,,,,,,,,,,,,,,,,,,
,,,,,,,,,,,,,,,,,610095d245338153ded5b30d,18,2022-02-12_17h51.08.653,lexical_decision_task_DD_L3,2021.2.3,MacIntel,58.82352941,,,,,,,,,,,0.734,1,,,,,,,,,,,,,,m,1,0.734,,,,,,,,0.286666667,-0.065555556,0,0,0,,0,12,12,13,1,MOTOR,C,old,m,./images/MOTOR.png,,,,,,,,,,,,,,,,,,,,,,,,,,,,,,,,,,,
,,,,,,,,,,,,,,,,,610095d245338153ded5b30d,18,2022-02-12_17h51.08.653,lexical_decision_task_DD_L3,2021.2.3,MacIntel,58.82352941,,,,,,,,,,,0.852,1,,,,,,,,,,,,,,m,1,0.852,,,,,,,,0.286666667,-0.065555556,0,0,0,,0,13,13,75,1,GRAIN,LB,old,m,./images/GRAINLB.png,,,,,,,,,,,,,,,,,,,,,,,,,,,,,,,,,,,
,,,,,,,,,,,,,,,,,610095d245338153ded5b30d,18,2022-02-12_17h51.08.653,lexical_decision_task_DD_L3,2021.2.3,MacIntel,58.82352941,,,,,,,,,,,0.617,1,,,,,,,,,,,,,,m,1,0.617,,,,,,,,0.286666667,-0.065555556,0,0,0,,0,14,14,21,1,KIDNEY,LB,old,m,./images/KIDNEYLB.png,,,,,,,,,,,,,,,,,,,,,,,,,,,,,,,,,,,
,,,,,,,,,,,,,,,,,610095d245338153ded5b30d,18,2022-02-12_17h51.08.653,lexical_decision_task_DD_L3,2021.2.3,MacIntel,58.82352941,,,,,,,,,,,0.653,1,,,,,,,,,,,,,,m,1,0.653,,,,,,,,0.286666667,-0.065555556,0,0,0,,0,15,15,37,1,BIRTH,C,old,m,./images/BIRTH.png,,,,,,,,,,,,,,,,,,,,,,,,,,,,,,,,,,,
,,,,,,,,,,,,,,,,,610095d245338153ded5b30d,18,2022-02-12_17h51.08.653,lexical_decision_task_DD_L3,2021.2.3,MacIntel,58.82352941,,,,,,,,,,,0.838,1,,,,,,,,,,,,,,z,1,0.838,,,,,,,,0.286666667,-0.065555556,0,0,0,,0,16,16,94,1,BLANS,HB,old,z,./images/BLANSHB.png,,,,,,,,,,,,,,,,,,,,,,,,,,,,,,,,,,,
,,,,,,,,,,,,,,,,,610095d245338153ded5b30d,18,2022-02-12_17h51.08.653,lexical_decision_task_DD_L3,2021.2.3,MacIntel,58.82352941,,,,,,,,,,,0.652,1,,,,,,,,,,,,,,m,1,0.652,,,,,,,,0.286666667,-0.065555556,0,0,0,,0,17,17,78,1,LITTER,LB,old,m,./images/LITTERLB.png,,,,,,,,,,,,,,,,,,,,,,,,,,,,,,,,,,,
,,,,,,,,,,,,,,,,,610095d245338153ded5b30d,18,2022-02-12_17h51.08.653,lexical_decision_task_DD_L3,2021.2.3,MacIntel,58.82352941,,,,,,,,,,,0.783,1,,,,,,,,,,,,,,m,1,0.783,,,,,,,,0.286666667,-0.065555556,0,0,0,,0,18,18,69,1,COOKER,LB,old,m,./images/COOKERLB.png,,,,,,,,,,,,,,,,,,,,,,,,,,,,,,,,,,,
,,,,,,,,,,,,,,,,,610095d245338153ded5b30d,18,2022-02-12_17h51.08.653,lexical_decision_task_DD_L3,2021.2.3,MacIntel,58.82352941,,,,,,,,,,,0.917,1,,,,,,,,,,,,,,z,1,0.917,,,,,,,,0.286666667,-0.065555556,0,0,0,,0,19,19,97,1,CHIDS,HB,old,z,./images/CHIDSHB.png,,,,,,,,,,,,,,,,,,,,,,,,,,,,,,,,,,,
,,,,,,,,,,,,,,,,,610095d245338153ded5b30d,18,2022-02-12_17h51.08.653,lexical_decision_task_DD_L3,2021.2.3,MacIntel,58.82352941,,,,,,,,,,,0.669,1,,,,,,,,,,,,,,m,1,0.669,,,,,,,,0.286666667,-0.065555556,0,0,0,,0,20,20,54,1,TRIPOD,LB,old,m,./images/TRIPODLB.png,,,,,,,,,,,,,,,,,,,,,,,,,,,,,,,,,,,
,,,,,,,,,,,,,,,,,610095d245338153ded5b30d,18,2022-02-12_17h51.08.653,lexical_decision_task_DD_L3,2021.2.3,MacIntel,58.82352941,,,,,,,,,,,0.766,1,,,,,,,,,,,,,,z,1,0.766,,,,,,,,0.286666667,-0.065555556,0,0,0,,0,21,21,119,1,PAFER,LB,old,z,./images/PAFERLB.png,,,,,,,,,,,,,,,,,,,,,,,,,,,,,,,,,,,
,,,,,,,,,,,,,,,,,610095d245338153ded5b30d,18,2022-02-12_17h51.08.653,lexical_decision_task_DD_L3,2021.2.3,MacIntel,58.82352941,,,,,,,,,,,0.699,1,,,,,,,,,,,,,,m,1,0.699,,,,,,,,0.286666667,-0.065555556,0,0,0,,0,22,22,83,1,JUNGLE,HB,old,m,./images/JUNGLEHB.png,,,,,,,,,,,,,,,,,,,,,,,,,,,,,,,,,,,
,,,,,,,,,,,,,,,,,610095d245338153ded5b30d,18,2022-02-12_17h51.08.653,lexical_decision_task_DD_L3,2021.2.3,MacIntel,58.82352941,,,,,,,,,,,0.567,1,,,,,,,,,,,,,,m,1,0.567,,,,,,,,0.286666667,-0.065555556,0,0,0,,0,23,23,10,1,BELLY,C,old,m,./images/BELLY.png,,,,,,,,,,,,,,,,,,,,,,,,,,,,,,,,,,,
,,,,,,,,,,,,,,,,,610095d245338153ded5b30d,18,2022-02-12_17h51.08.653,lexical_decision_task_DD_L3,2021.2.3,MacIntel,58.82352941,,,,,,,,,,,1.185,1,,,,,,,,,,,,,,z,1,1.185,,,,,,,,0.286666667,-0.065555556,0,0,0,,0,24,24,127,1,NINDY,HB,old,z,./images/NINDYHB.png,,,,,,,,,,,,,,,,,,,,,,,,,,,,,,,,,,,
,,,,,,,,,,,,,,,,,610095d245338153ded5b30d,18,2022-02-12_17h51.08.653,lexical_decision_task_DD_L3,2021.2.3,MacIntel,58.82352941,,,,,,,,,,,0.871,1,,,,,,,,,,,,,,z,1,0.871,,,,,,,,0.286666667,-0.065555556,0,0,0,,0,25,25,140,1,DOVET,LB,old,z,./images/DOVETLB.png,,,,,,,,,,,,,,,,,,,,,,,,,,,,,,,,,,,
,,,,,,,,,,,,,,,,,610095d245338153ded5b30d,18,2022-02-12_17h51.08.653,lexical_decision_task_DD_L3,2021.2.3,MacIntel,58.82352941,,,,,,,,,,,1.119,1,,,,,,,,,,,,,,m,1,1.119,,,,,,,,0.286666667,-0.065555556,0,0,0,,0,26,26,2,1,BEARD,HB,old,m,./images/BEARDHB.png,,,,,,,,,,,,,,,,,,,,,,,,,,,,,,,,,,,
,,,,,,,,,,,,,,,,,610095d245338153ded5b30d,18,2022-02-12_17h51.08.653,lexical_decision_task_DD_L3,2021.2.3,MacIntel,58.82352941,,,,,,,,,,,1.017,1,,,,,,,,,,,,,,z,1,1.017,,,,,,,,0.286666667,-0.065555556,0,0,0,,0,27,27,89,1,DRIEK,LB,old,z,./images/DRIEKLB.png,,,,,,,,,,,,,,,,,,,,,,,,,,,,,,,,,,,
,,,,,,,,,,,,,,,,,610095d245338153ded5b30d,18,2022-02-12_17h51.08.653,lexical_decision_task_DD_L3,2021.2.3,MacIntel,58.82352941,,,,,,,,,,,0.736,1,,,,,,,,,,,,,,z,1,0.736,,,,,,,,0.286666667,-0.065555556,0,0,0,,0,28,28,98,1,BAMPS,LB,old,z,./images/BAMPSLB.png,,,,,,,,,,,,,,,,,,,,,,,,,,,,,,,,,,,
,,,,,,,,,,,,,,,,,610095d245338153ded5b30d,18,2022-02-12_17h51.08.653,lexical_decision_task_DD_L3,2021.2.3,MacIntel,58.82352941,,,,,,,,,,,0.886,1,,,,,,,,,,,,,,z,1,0.886,,,,,,,,0.286666667,-0.065555556,0,0,0,,0,29,29,95,1,HANTY,LB,old,z,./images/HANTYLB.png,,,,,,,,,,,,,,,,,,,,,,,,,,,,,,,,,,,
,,,,,,,,,,,,,,,,,610095d245338153ded5b30d,18,2022-02-12_17h51.08.653,lexical_decision_task_DD_L3,2021.2.3,MacIntel,58.82352941,,,,,,,,,,,0.636,1,,,,,,,,,,,,,,m,1,0.636,,,,,,,,0.286666667,-0.065555556,0,0,0,,0,30,30,19,1,DOUGH,C,old,m,./images/DOUGH.png,,,,,,,,,,,,,,,,,,,,,,,,,,,,,,,,,,,
,,,,,,,,,,,,,,,,,610095d245338153ded5b30d,18,2022-02-12_17h51.08.653,lexical_decision_task_DD_L3,2021.2.3,MacIntel,58.82352941,,,,,,,,,,,0.765,1,,,,,,,,,,,,,,z,1,0.765,,,,,,,,0.286666667,-0.065555556,0,0,0,,0,31,31,112,1,MYING,HB,old,z,./images/MYINGHB.png,,,,,,,,,,,,,,,,,,,,,,,,,,,,,,,,,,,
,,,,,,,,,,,,,,,,,610095d245338153ded5b30d,18,2022-02-12_17h51.08.653,lexical_decision_task_DD_L3,2021.2.3,MacIntel,58.82352941,,,,,,,,,,,0.603,1,,,,,,,,,,,,,,m,1,0.603,,,,,,,,0.286666667,-0.065555556,0,0,0,,0,32,32,25,1,WRIST,C,old,m,./images/WRIST.png,,,,,,,,,,,,,,,,,,,,,,,,,,,,,,,,,,,
,,,,,,,,,,,,,,,,,610095d245338153ded5b30d,18,2022-02-12_17h51.08.653,lexical_decision_task_DD_L3,2021.2.3,MacIntel,58.82352941,,,,,,,,,,,1.403,1,,,,,,,,,,,,,,m,1,1.403,,,,,,,,0.286666667,-0.065555556,0,0,0,,0,33,33,72,1,NOOSE,LB,old,m,./images/NOOSELB.png,,,,,,,,,,,,,,,,,,,,,,,,,,,,,,,,,,,
,,,,,,,,,,,,,,,,,610095d245338153ded5b30d,18,2022-02-12_17h51.08.653,lexical_decision_task_DD_L3,2021.2.3,MacIntel,58.82352941,,,,,,,,,,,0.769,1,,,,,,,,,,,,,,z,1,0.769,,,,,,,,0.286666667,-0.065555556,0,0,0,,0,34,34,109,1,BURGE,HB,old,z,./images/BURGEHB.png,,,,,,,,,,,,,,,,,,,,,,,,,,,,,,,,,,,
,,,,,,,,,,,,,,,,,610095d245338153ded5b30d,18,2022-02-12_17h51.08.653,lexical_decision_task_DD_L3,2021.2.3,MacIntel,58.82352941,,,,,,,,,,,0.951,1,,,,,,,,,,,,,,m,1,0.951,,,,,,,,0.286666667,-0.065555556,0,0,0,,0,35,35,14,1,PICKLE,HB,old,m,./images/PICKLEHB.png,,,,,,,,,,,,,,,,,,,,,,,,,,,,,,,,,,,
,,,,,,,,,,,,,,,,,610095d245338153ded5b30d,18,2022-02-12_17h51.08.653,lexical_decision_task_DD_L3,2021.2.3,MacIntel,58.82352941,,,,,,,,,,,0.548,1,,,,,,,,,,,,,,m,1,0.548,,,,,,,,0.286666667,-0.065555556,0,0,0,,0,36,36,36,1,THROAT,LB,old,m,./images/THROATLB.png,,,,,,,,,,,,,,,,,,,,,,,,,,,,,,,,,,,
,,,,,,,,,,,,,,,,,610095d245338153ded5b30d,18,2022-02-12_17h51.08.653,lexical_decision_task_DD_L3,2021.2.3,MacIntel,58.82352941,,,,,,,,,,,0.7,1,,,,,,,,,,,,,,z,1,0.7,,,,,,,,0.286666667,-0.065555556,0,0,0,,0,37,37,117,1,STEEG,C,old,z,./images/STEEG.png,,,,,,,,,,,,,,,,,,,,,,,,,,,,,,,,,,,
,,,,,,,,,,,,,,,,,610095d245338153ded5b30d,18,2022-02-12_17h51.08.653,lexical_decision_task_DD_L3,2021.2.3,MacIntel,58.82352941,,,,,,,,,,,0.765,0,,,,,,,,,,,,,,z,0,0.765,,,,,,,,0.286666667,-0.065555556,0,0,0,,0,38,38,50,1,MALLET,HB,old,m,./images/MALLETHB.png,,,,,,,,,,,,,,,,,,,,,,,,,,,,,,,,,,,
,,,,,,,,,,,,,,,,,610095d245338153ded5b30d,18,2022-02-12_17h51.08.653,lexical_decision_task_DD_L3,2021.2.3,MacIntel,58.82352941,,,,,,,,,,,1.12,0,,,,,,,,,,,,,,z,0,1.12,,,,,,,,0.286666667,-0.065555556,0,0,0,,0,39,39,31,1,QUILL,C,old,m,./images/QUILL.png,,,,,,,,,,,,,,,,,,,,,,,,,,,,,,,,,,,
,,,,,,,,,,,,,,,,,610095d245338153ded5b30d,18,2022-02-12_17h51.08.653,lexical_decision_task_DD_L3,2021.2.3,MacIntel,58.82352941,,,,,,,,,,,0.698,1,,,,,,,,,,,,,,m,1,0.698,,,,,,,,0.286666667,-0.065555556,0,0,0,,0,40,40,1,1,PLANK,C,old,m,./images/PLANK.png,,,,,,,,,,,,,,,,,,,,,,,,,,,,,,,,,,,
,,,,,,,,,,,,,,,,,610095d245338153ded5b30d,18,2022-02-12_17h51.08.653,lexical_decision_task_DD_L3,2021.2.3,MacIntel,58.82352941,,,,,,,,,,,0.678,1,,,,,,,,,,,,,,m,1,0.678,,,,,,,,0.286666667,-0.065555556,0,0,0,space,0,41,41,41,1,STRING,HB,old,m,./images/STRINGHB.png,8.777,,,,,,,,,,,,,,,,,,,,,,,,,,,,,,,,,,
,,,,,,,,,,,,,,,,,610095d245338153ded5b30d,18,2022-02-12_17h51.08.653,lexical_decision_task_DD_L3,2021.2.3,MacIntel,58.82352941,,,,,,,,,,,0.765,0,,,,,,,,,,,,,,z,0,0.765,,,,,,,,0.286666667,-0.065555556,0,0,0,,0,42,42,47,1,BERRY,HB,old,m,./images/BERRYHB.png,,,,,,,,,,,,,,,,,,,,,,,,,,,,,,,,,,,
,,,,,,,,,,,,,,,,,610095d245338153ded5b30d,18,2022-02-12_17h51.08.653,lexical_decision_task_DD_L3,2021.2.3,MacIntel,58.82352941,,,,,,,,,,,1.221,1,,,,,,,,,,,,,,m,1,1.221,,,,,,,,0.286666667,-0.065555556,0,0,0,,0,43,43,26,1,SMOKER,HB,old,m,./images/SMOKERHB.png,,,,,,,,,,,,,,,,,,,,,,,,,,,,,,,,,,,
,,,,,,,,,,,,,,,,,610095d245338153ded5b30d,18,2022-02-12_17h51.08.653,lexical_decision_task_DD_L3,2021.2.3,MacIntel,58.82352941,,,,,,,,,,,0.751,1,,,,,,,,,,,,,,z,1,0.751,,,,,,,,0.286666667,-0.065555556,0,0,0,,0,44,44,114,1,RIKES,C,old,z,./images/RIKES.png,,,,,,,,,,,,,,,,,,,,,,,,,,,,,,,,,,,
,,,,,,,,,,,,,,,,,610095d245338153ded5b30d,18,2022-02-12_17h51.08.653,lexical_decision_task_DD_L3,2021.2.3,MacIntel,58.82352941,,,,,,,,,,,0.981,1,,,,,,,,,,,,,,z,1,0.981,,,,,,,,0.286666667,-0.065555556,0,0,0,,0,45,45,165,1,TROWN,C,old,z,./images/TROWN.png,,,,,,,,,,,,,,,,,,,,,,,,,,,,,,,,,,,
,,,,,,,,,,,,,,,,,610095d245338153ded5b30d,18,2022-02-12_17h51.08.653,lexical_decision_task_DD_L3,2021.2.3,MacIntel,58.82352941,,,,,,,,,,,1.151,0,,,,,,,,,,,,,,z,0,1.151,,,,,,,,0.286666667,-0.065555556,0,0,0,,0,46,46,65,1,FARMER,HB,old,m,./images/FARMERHB.png,,,,,,,,,,,,,,,,,,,,,,,,,,,,,,,,,,,
,,,,,,,,,,,,,,,,,610095d245338153ded5b30d,18,2022-02-12_17h51.08.653,lexical_decision_task_DD_L3,2021.2.3,MacIntel,58.82352941,,,,,,,,,,,0.897,1,,,,,,,,,,,,,,m,1,0.897,,,,,,,,0.286666667,-0.065555556,0,0,0,,0,47,47,11,1,BONNET,HB,old,m,./images/BONNETHB.png,,,,,,,,,,,,,,,,,,,,,,,,,,,,,,,,,,,
,,,,,,,,,,,,,,,,,610095d245338153ded5b30d,18,2022-02-12_17h51.08.653,lexical_decision_task_DD_L3,2021.2.3,MacIntel,58.82352941,,,,,,,,,,,1.307,1,,,,,,,,,,,,,,m,1,1.307,,,,,,,,0.286666667,-0.065555556,0,0,0,,0,48,48,17,1,SKIING,HB,old,m,./images/SKIINGHB.png,,,,,,,,,,,,,,,,,,,,,,,,,,,,,,,,,,,
,,,,,,,,,,,,,,,,,610095d245338153ded5b30d,18,2022-02-12_17h51.08.653,lexical_decision_task_DD_L3,2021.2.3,MacIntel,58.82352941,,,,,,,,,,,0.617,1,,,,,,,,,,,,,,m,1,0.617,,,,,,,,0.286666667,-0.065555556,0,0,0,,0,49,49,73,1,SNACK,C,old,m,./images/SNACK.png,,,,,,,,,,,,,,,,,,,,,,,,,,,,,,,,,,,
,,,,,,,,,,,,,,,,,610095d245338153ded5b30d,18,2022-02-12_17h51.08.653,lexical_decision_task_DD_L3,2021.2.3,MacIntel,58.82352941,,,,,,,,,,,0.597,1,,,,,,,,,,,,,,m,1,0.597,,,,,,,,0.286666667,-0.065555556,0,0,0,,0,50,50,51,1,ONION,LB,old,m,./images/ONIONLB.png,,,,,,,,,,,,,,,,,,,,,,,,,,,,,,,,,,,
,,,,,,,,,,,,,,,,,610095d245338153ded5b30d,18,2022-02-12_17h51.08.653,lexical_decision_task_DD_L3,2021.2.3,MacIntel,58.82352941,,,,,,,,,,,1.102,1,,,,,,,,,,,,,,z,1,1.102,,,,,,,,0.286666667,-0.065555556,0,0,0,,0,51,51,128,1,GRIFT,LB,old,z,./images/GRIFTLB.png,,,,,,,,,,,,,,,,,,,,,,,,,,,,,,,,,,,
,,,,,,,,,,,,,,,,,610095d245338153ded5b30d,18,2022-02-12_17h51.08.653,lexical_decision_task_DD_L3,2021.2.3,MacIntel,58.82352941,,,,,,,,,,,0.635,1,,,,,,,,,,,,,,m,1,0.635,,,,,,,,0.286666667,-0.065555556,0,0,0,,0,52,52,76,1,INFANT,C,old,m,./images/INFANT.png,,,,,,,,,,,,,,,,,,,,,,,,,,,,,,,,,,,
,,,,,,,,,,,,,,,,,610095d245338153ded5b30d,18,2022-02-12_17h51.08.653,lexical_decision_task_DD_L3,2021.2.3,MacIntel,58.82352941,,,,,,,,,,,1.354,1,,,,,,,,,,,,,,z,1,1.354,,,,,,,,0.286666667,-0.065555556,0,0,0,,0,53,53,157,1,INLER,HB,old,z,./images/INLERHB.png,,,,,,,,,,,,,,,,,,,,,,,,,,,,,,,,,,,
,,,,,,,,,,,,,,,,,610095d245338153ded5b30d,18,2022-02-12_17h51.08.653,lexical_decision_task_DD_L3,2021.2.3,MacIntel,58.82352941,,,,,,,,,,,0.764,1,,,,,,,,,,,,,,m,1,0.764,,,,,,,,0.286666667,-0.065555556,0,0,0,,0,54,54,18,1,JAGUAR,LB,old,m,./images/JAGUARLB.png,,,,,,,,,,,,,,,,,,,,,,,,,,,,,,,,,,,
,,,,,,,,,,,,,,,,,610095d245338153ded5b30d,18,2022-02-12_17h51.08.653,lexical_decision_task_DD_L3,2021.2.3,MacIntel,58.82352941,,,,,,,,,,,1.239,1,,,,,,,,,,,,,,z,1,1.239,,,,,,,,0.286666667,-0.065555556,0,0,0,,0,55,55,160,1,VEETS,HB,old,z,./images/VEETSHB.png,,,,,,,,,,,,,,,,,,,,,,,,,,,,,,,,,,,
,,,,,,,,,,,,,,,,,610095d245338153ded5b30d,18,2022-02-12_17h51.08.653,lexical_decision_task_DD_L3,2021.2.3,MacIntel,58.82352941,,,,,,,,,,,1.083,1,,,,,,,,,,,,,,z,1,1.083,,,,,,,,0.286666667,-0.065555556,0,0,0,,0,56,56,151,1,TINKY,HB,old,z,./images/TINKYHB.png,,,,,,,,,,,,,,,,,,,,,,,,,,,,,,,,,,,
,,,,,,,,,,,,,,,,,610095d245338153ded5b30d,18,2022-02-12_17h51.08.653,lexical_decision_task_DD_L3,2021.2.3,MacIntel,58.82352941,,,,,,,,,,,0.619,1,,,,,,,,,,,,,,m,1,0.619,,,,,,,,0.286666667,-0.065555556,0,0,0,,0,57,57,22,1,MELON,C,old,m,./images/MELON.png,,,,,,,,,,,,,,,,,,,,,,,,,,,,,,,,,,,
,,,,,,,,,,,,,,,,,610095d245338153ded5b30d,18,2022-02-12_17h51.08.653,lexical_decision_task_DD_L3,2021.2.3,MacIntel,58.82352941,,,,,,,,,,,0.935,1,,,,,,,,,,,,,,z,1,0.935,,,,,,,,0.286666667,-0.065555556,0,0,0,,0,58,58,102,1,DULLE,C,old,z,./images/DULLE.png,,,,,,,,,,,,,,,,,,,,,,,,,,,,,,,,,,,
,,,,,,,,,,,,,,,,,610095d245338153ded5b30d,18,2022-02-12_17h51.08.653,lexical_decision_task_DD_L3,2021.2.3,MacIntel,58.82352941,,,,,,,,,,,0.67,1,,,,,,,,,,,,,,m,1,0.67,,,,,,,,0.286666667,-0.065555556,0,0,0,,0,59,59,70,1,URINE,C,old,m,./images/URINE.png,,,,,,,,,,,,,,,,,,,,,,,,,,,,,,,,,,,
,,,,,,,,,,,,,,,,,610095d245338153ded5b30d,18,2022-02-12_17h51.08.653,lexical_decision_task_DD_L3,2021.2.3,MacIntel,58.82352941,,,,,,,,,,,0.816,1,,,,,,,,,,,,,,z,1,0.816,,,,,,,,0.286666667,-0.065555556,0,0,0,,0,60,60,137,1,JOOST,LB,old,z,./images/JOOSTLB.png,,,,,,,,,,,,,,,,,,,,,,,,,,,,,,,,,,,
,,,,,,,,,,,,,,,,,610095d245338153ded5b30d,18,2022-02-12_17h51.08.653,lexical_decision_task_DD_L3,2021.2.3,MacIntel,58.82352941,,,,,,,,,,,0.854,1,,,,,,,,,,,,,,m,1,0.854,,,,,,,,0.286666667,-0.065555556,0,0,0,,0,61,61,38,1,LADDER,HB,old,m,./images/LADDERHB.png,,,,,,,,,,,,,,,,,,,,,,,,,,,,,,,,,,,
,,,,,,,,,,,,,,,,,610095d245338153ded5b30d,18,2022-02-12_17h51.08.653,lexical_decision_task_DD_L3,2021.2.3,MacIntel,58.82352941,,,,,,,,,,,0.966,1,,,,,,,,,,,,,,m,1,0.966,,,,,,,,0.286666667,-0.065555556,0,0,0,,0,62,62,0,1,TOMATO,LB,old,m,./images/TOMATOLB.png,,,,,,,,,,,,,,,,,,,,,,,,,,,,,,,,,,,
,,,,,,,,,,,,,,,,,610095d245338153ded5b30d,18,2022-02-12_17h51.08.653,lexical_decision_task_DD_L3,2021.2.3,MacIntel,58.82352941,,,,,,,,,,,0.667,1,,,,,,,,,,,,,,z,1,0.667,,,,,,,,0.286666667,-0.065555556,0,0,0,,0,63,63,147,1,ZOLES,C,old,z,./images/ZOLES.png,,,,,,,,,,,,,,,,,,,,,,,,,,,,,,,,,,,
,,,,,,,,,,,,,,,,,610095d245338153ded5b30d,18,2022-02-12_17h51.08.653,lexical_decision_task_DD_L3,2021.2.3,MacIntel,58.82352941,,,,,,,,,,,1.387,1,,,,,,,,,,,,,,z,1,1.387,,,,,,,,0.286666667,-0.065555556,0,0,0,,0,64,64,154,1,THINT,HB,old,z,./images/THINTHB.png,,,,,,,,,,,,,,,,,,,,,,,,,,,,,,,,,,,
,,,,,,,,,,,,,,,,,610095d245338153ded5b30d,18,2022-02-12_17h51.08.653,lexical_decision_task_DD_L3,2021.2.3,MacIntel,58.82352941,,,,,,,,,,,0.832,1,,,,,,,,,,,,,,m,1,0.832,,,,,,,,0.286666667,-0.065555556,0,0,0,,0,65,65,57,1,MOOSE,LB,old,m,./images/MOOSELB.png,,,,,,,,,,,,,,,,,,,,,,,,,,,,,,,,,,,
,,,,,,,,,,,,,,,,,610095d245338153ded5b30d,18,2022-02-12_17h51.08.653,lexical_decision_task_DD_L3,2021.2.3,MacIntel,58.82352941,,,,,,,,,,,1.254,1,,,,,,,,,,,,,,z,1,1.254,,,,,,,,0.286666667,-0.065555556,0,0,0,,0,66,66,85,1,CHULK,HB,old,z,./images/CHULKHB.png,,,,,,,,,,,,,,,,,,,,,,,,,,,,,,,,,,,
,,,,,,,,,,,,,,,,,610095d245338153ded5b30d,18,2022-02-12_17h51.08.653,lexical_decision_task_DD_L3,2021.2.3,MacIntel,58.82352941,,,,,,,,,,,0.818,1,,,,,,,,,,,,,,m,1,0.818,,,,,,,,0.286666667,-0.065555556,0,0,0,,0,67,67,5,1,PASTA,HB,old,m,./images/PASTAHB.png,,,,,,,,,,,,,,,,,,,,,,,,,,,,,,,,,,,
,,,,,,,,,,,,,,,,,610095d245338153ded5b30d,18,2022-02-12_17h51.08.653,lexical_decision_task_DD_L3,2021.2.3,MacIntel,58.82352941,,,,,,,,,,,0.577,1,,,,,,,,,,,,,,m,1,0.577,,,,,,,,0.286666667,-0.065555556,0,0,0,,0,68,68,63,1,MIRROR,LB,old,m,./images/MIRRORLB.png,,,,,,,,,,,,,,,,,,,,,,,,,,,,,,,,,,,
,,,,,,,,,,,,,,,,,610095d245338153ded5b30d,18,2022-02-12_17h51.08.653,lexical_decision_task_DD_L3,2021.2.3,MacIntel,58.82352941,,,,,,,,,,,0.703,1,,,,,,,,,,,,,,m,1,0.703,,,,,,,,0.286666667,-0.065555556,0,0,0,,0,69,69,34,1,CANYON,C,old,m,./images/CANYON.png,,,,,,,,,,,,,,,,,,,,,,,,,,,,,,,,,,,
,,,,,,,,,,,,,,,,,610095d245338153ded5b30d,18,2022-02-12_17h51.08.653,lexical_decision_task_DD_L3,2021.2.3,MacIntel,58.82352941,,,,,,,,,,,0.719,1,,,,,,,,,,,,,,z,1,0.719,,,,,,,,0.286666667,-0.065555556,0,0,0,,0,70,70,131,1,NACES,LB,old,z,./images/NACESLB.png,,,,,,,,,,,,,,,,,,,,,,,,,,,,,,,,,,,
,,,,,,,,,,,,,,,,,610095d245338153ded5b30d,18,2022-02-12_17h51.08.653,lexical_decision_task_DD_L3,2021.2.3,MacIntel,58.82352941,,,,,,,,,,,0.701,1,,,,,,,,,,,,,,m,1,0.701,,,,,,,,0.286666667,-0.065555556,0,0,0,,0,71,71,43,1,MOSQUE,C,old,m,./images/MOSQUE.png,,,,,,,,,,,,,,,,,,,,,,,,,,,,,,,,,,,
,,,,,,,,,,,,,,,,,610095d245338153ded5b30d,18,2022-02-12_17h51.08.653,lexical_decision_task_DD_L3,2021.2.3,MacIntel,58.82352941,,,,,,,,,,,0.869,0,,,,,,,,,,,,,,z,0,0.869,,,,,,,,0.286666667,-0.065555556,0,0,0,,0,72,72,56,1,PACKET,HB,old,m,./images/PACKETHB.png,,,,,,,,,,,,,,,,,,,,,,,,,,,,,,,,,,,
,,,,,,,,,,,,,,,,,610095d245338153ded5b30d,18,2022-02-12_17h51.08.653,lexical_decision_task_DD_L3,2021.2.3,MacIntel,58.82352941,,,,,,,,,,,0.939,1,,,,,,,,,,,,,,m,1,0.939,,,,,,,,0.286666667,-0.065555556,0,0,0,,0,73,73,53,1,CARPET,HB,old,m,./images/CARPETHB.png,,,,,,,,,,,,,,,,,,,,,,,,,,,,,,,,,,,
,,,,,,,,,,,,,,,,,610095d245338153ded5b30d,18,2022-02-12_17h51.08.653,lexical_decision_task_DD_L3,2021.2.3,MacIntel,58.82352941,,,,,,,,,,,1.522,1,,,,,,,,,,,,,,m,1,1.522,,,,,,,,0.286666667,-0.065555556,0,0,0,,0,74,74,71,1,PIMPLE,HB,old,m,./images/PIMPLEHB.png,,,,,,,,,,,,,,,,,,,,,,,,,,,,,,,,,,,
,,,,,,,,,,,,,,,,,610095d245338153ded5b30d,18,2022-02-12_17h51.08.653,lexical_decision_task_DD_L3,2021.2.3,MacIntel,58.82352941,,,,,,,,,,,0.734,1,,,,,,,,,,,,,,z,1,0.734,,,,,,,,0.286666667,-0.065555556,0,0,0,,0,75,75,108,1,GRUET,C,old,z,./images/GRUET.png,,,,,,,,,,,,,,,,,,,,,,,,,,,,,,,,,,,
,,,,,,,,,,,,,,,,,610095d245338153ded5b30d,18,2022-02-12_17h51.08.653,lexical_decision_task_DD_L3,2021.2.3,MacIntel,58.82352941,,,,,,,,,,,0.902,1,,,,,,,,,,,,,,z,1,0.902,,,,,,,,0.286666667,-0.065555556,0,0,0,,0,76,76,125,1,MOOKY,LB,old,z,./images/MOOKYLB.png,,,,,,,,,,,,,,,,,,,,,,,,,,,,,,,,,,,
,,,,,,,,,,,,,,,,,610095d245338153ded5b30d,18,2022-02-12_17h51.08.653,lexical_decision_task_DD_L3,2021.2.3,MacIntel,58.82352941,,,,,,,,,,,0.699,1,,,,,,,,,,,,,,m,1,0.699,,,,,,,,0.286666667,-0.065555556,0,0,0,,0,77,77,12,1,SHORE,LB,old,m,./images/SHORELB.png,,,,,,,,,,,,,,,,,,,,,,,,,,,,,,,,,,,
,,,,,,,,,,,,,,,,,610095d245338153ded5b30d,18,2022-02-12_17h51.08.653,lexical_decision_task_DD_L3,2021.2.3,MacIntel,58.82352941,,,,,,,,,,,0.832,1,,,,,,,,,,,,,,z,1,0.832,,,,,,,,0.286666667,-0.065555556,0,0,0,,0,78,78,121,1,CEERS,HB,old,z,./images/CEERSHB.png,,,,,,,,,,,,,,,,,,,,,,,,,,,,,,,,,,,
,,,,,,,,,,,,,,,,,610095d245338153ded5b30d,18,2022-02-12_17h51.08.653,lexical_decision_task_DD_L3,2021.2.3,MacIntel,58.82352941,,,,,,,,,,,0.721,1,,,,,,,,,,,,,,z,1,0.721,,,,,,,,0.286666667,-0.065555556,0,0,0,,0,79,79,105,1,MOKER,C,old,z,./images/MOKER.png,,,,,,,,,,,,,,,,,,,,,,,,,,,,,,,,,,,
,,,,,,,,,,,,,,,,,610095d245338153ded5b30d,18,2022-02-12_17h51.08.653,lexical_decision_task_DD_L3,2021.2.3,MacIntel,58.82352941,,,,,,,,,,,0.77,1,,,,,,,,,,,,,,m,1,0.77,,,,,,,,0.286666667,-0.065555556,0,0,0,,0,80,80,39,1,SHELF,LB,old,m,./images/SHELFLB.png,,,,,,,,,,,,,,,,,,,,,,,,,,,,,,,,,,,
,,,,,,,,,,,,,,,,,610095d245338153ded5b30d,18,2022-02-12_17h51.08.653,lexical_decision_task_DD_L3,2021.2.3,MacIntel,58.82352941,,,,,,,,,,,0.747,1,,,,,,,,,,,,,,z,1,0.747,,,,,,,,0.286666667,-0.065555556,0,0,0,,0,81,81,120,1,RINED,C,old,z,./images/RINED.png,,,,,,,,,,,,,,,,,,,,,,,,,,,,,,,,,,,
,,,,,,,,,,,,,,,,,610095d245338153ded5b30d,18,2022-02-12_17h51.08.653,lexical_decision_task_DD_L3,2021.2.3,MacIntel,58.82352941,,,,,,,,,,,0.735,1,,,,,,,,,,,,,,z,1,0.735,,,,,,,,0.286666667,-0.065555556,0,0,0,,0,82,82,141,1,PLEET,C,old,z,./images/PLEET.png,,,,,,,,,,,,,,,,,,,,,,,,,,,,,,,,,,,
,,,,,,,,,,,,,,,,,610095d245338153ded5b30d,18,2022-02-12_17h51.08.653,lexical_decision_task_DD_L3,2021.2.3,MacIntel,58.82352941,,,,,,,,,,,1.136,1,,,,,,,,,,,,,,z,1,1.136,,,,,,,,0.286666667,-0.065555556,0,0,0,space,0,83,83,145,1,LAMEL,HB,old,z,./images/LAMELHB.png,1.457,,,,,,,,,,,,,,,,,,,,,,,,,,,,,,,,,,
,,,,,,,,,,,,,,,,,610095d245338153ded5b30d,18,2022-02-12_17h51.08.653,lexical_decision_task_DD_L3,2021.2.3,MacIntel,58.82352941,,,,,,,,,,,0.657,1,,,,,,,,,,,,,,z,1,0.657,,,,,,,,0.286666667,-0.065555556,0,0,0,,0,84,84,84,1,HAXES,C,old,z,./images/HAXES.png,,,,,,,,,,,,,,,,,,,,,,,,,,,,,,,,,,,
,,,,,,,,,,,,,,,,,610095d245338153ded5b30d,18,2022-02-12_17h51.08.653,lexical_decision_task_DD_L3,2021.2.3,MacIntel,58.82352941,,,,,,,,,,,0.583,1,,,,,,,,,,,,,,m,1,0.583,,,,,,,,0.286666667,-0.065555556,0,0,0,,0,85,85,27,1,ATTIC,LB,old,m,./images/ATTICLB.png,,,,,,,,,,,,,,,,,,,,,,,,,,,,,,,,,,,
,,,,,,,,,,,,,,,,,610095d245338153ded5b30d,18,2022-02-12_17h51.08.653,lexical_decision_task_DD_L3,2021.2.3,MacIntel,58.82352941,,,,,,,,,,,0.786,1,,,,,,,,,,,,,,z,1,0.786,,,,,,,,0.286666667,-0.065555556,0,0,0,,0,86,86,146,1,MOOST,LB,old,z,./images/MOOSTLB.png,,,,,,,,,,,,,,,,,,,,,,,,,,,,,,,,,,,
,,,,,,,,,,,,,,,,,610095d245338153ded5b30d,18,2022-02-12_17h51.08.653,lexical_decision_task_DD_L3,2021.2.3,MacIntel,58.82352941,,,,,,,,,,,0.984,1,,,,,,,,,,,,,,m,1,0.984,,,,,,,,0.286666667,-0.065555556,0,0,0,,0,87,87,79,1,CRUST,C,old,m,./images/CRUST.png,,,,,,,,,,,,,,,,,,,,,,,,,,,,,,,,,,,
,,,,,,,,,,,,,,,,,610095d245338153ded5b30d,18,2022-02-12_17h51.08.653,lexical_decision_task_DD_L3,2021.2.3,MacIntel,58.82352941,,,,,,,,,,,0.82,1,,,,,,,,,,,,,,z,1,0.82,,,,,,,,0.286666667,-0.065555556,0,0,0,,0,88,88,103,1,FLORT,HB,old,z,./images/FLORTHB.png,,,,,,,,,,,,,,,,,,,,,,,,,,,,,,,,,,,
,,,,,,,,,,,,,,,,,610095d245338153ded5b30d,18,2022-02-12_17h51.08.653,lexical_decision_task_DD_L3,2021.2.3,MacIntel,58.82352941,,,,,,,,,,,0.733,1,,,,,,,,,,,,,,m,1,0.733,,,,,,,,0.286666667,-0.065555556,0,0,0,,0,89,89,15,1,GREASE,LB,old,m,./images/GREASELB.png,,,,,,,,,,,,,,,,,,,,,,,,,,,,,,,,,,,
,,,,,,,,,,,,,,,,,610095d245338153ded5b30d,18,2022-02-12_17h51.08.653,lexical_decision_task_DD_L3,2021.2.3,MacIntel,58.82352941,,,,,,,,,,,0.6,1,,,,,,,,,,,,,,m,1,0.6,,,,,,,,0.286666667,-0.065555556,0,0,0,,0,90,90,55,1,MUFFIN,C,old,m,./images/MUFFIN.png,,,,,,,,,,,,,,,,,,,,,,,,,,,,,,,,,,,
,,,,,,,,,,,,,,,,,610095d245338153ded5b30d,18,2022-02-12_17h51.08.653,lexical_decision_task_DD_L3,2021.2.3,MacIntel,58.82352941,,,,,,,,,,,0.581,1,,,,,,,,,,,,,,m,1,0.581,,,,,,,,0.286666667,-0.065555556,0,0,0,,0,91,91,30,1,STORM,LB,old,m,./images/STORMLB.png,,,,,,,,,,,,,,,,,,,,,,,,,,,,,,,,,,,
,,,,,,,,,,,,,,,,,610095d245338153ded5b30d,18,2022-02-12_17h51.08.653,lexical_decision_task_DD_L3,2021.2.3,MacIntel,58.82352941,,,,,,,,,,,0.57,1,,,,,,,,,,,,,,m,1,0.57,,,,,,,,0.286666667,-0.065555556,0,0,0,,0,92,92,66,1,SWEAT,LB,old,m,./images/SWEATLB.png,,,,,,,,,,,,,,,,,,,,,,,,,,,,,,,,,,,
,,,,,,,,,,,,,,,,,610095d245338153ded5b30d,18,2022-02-12_17h51.08.653,lexical_decision_task_DD_L3,2021.2.3,MacIntel,58.82352941,,,,,,,,,,,0.481,1,,,,,,,,,,,,,,m,1,0.481,,,,,,,,0.286666667,-0.065555556,0,0,0,,0,93,93,40,1,SWING,C,old,m,./images/SWING.png,,,,,,,,,,,,,,,,,,,,,,,,,,,,,,,,,,,
,,,,,,,,,,,,,,,,,610095d245338153ded5b30d,18,2022-02-12_17h51.08.653,lexical_decision_task_DD_L3,2021.2.3,MacIntel,58.82352941,,,,,,,,,,,0.452,1,,,,,,,,,,,,,,m,1,0.452,,,,,,,,0.286666667,-0.065555556,0,0,0,,0,94,94,7,1,PAINT,C,old,m,./images/PAINT.png,,,,,,,,,,,,,,,,,,,,,,,,,,,,,,,,,,,
,,,,,,,,,,,,,,,,,610095d245338153ded5b30d,18,2022-02-12_17h51.08.653,lexical_decision_task_DD_L3,2021.2.3,MacIntel,58.82352941,,,,,,,,,,,0.982,1,,,,,,,,,,,,,,m,1,0.982,,,,,,,,0.286666667,-0.065555556,0,0,0,,0,95,95,32,1,BARREL,HB,old,m,./images/BARRELHB.png,,,,,,,,,,,,,,,,,,,,,,,,,,,,,,,,,,,
,,,,,,,,,,,,,,,,,610095d245338153ded5b30d,18,2022-02-12_17h51.08.653,lexical_decision_task_DD_L3,2021.2.3,MacIntel,58.82352941,,,,,,,,,,,0.802,1,,,,,,,,,,,,,,z,1,0.802,,,,,,,,0.286666667,-0.065555556,0,0,0,,0,96,96,134,1,TROSS,LB,old,z,./images/TROSSLB.png,,,,,,,,,,,,,,,,,,,,,,,,,,,,,,,,,,,
,,,,,,,,,,,,,,,,,610095d245338153ded5b30d,18,2022-02-12_17h51.08.653,lexical_decision_task_DD_L3,2021.2.3,MacIntel,58.82352941,,,,,,,,,,,0.89,1,,,,,,,,,,,,,,m,1,0.89,,,,,,,,0.286666667,-0.065555556,0,0,0,,0,97,97,16,1,PENCE,C,old,m,./images/PENCE.png,,,,,,,,,,,,,,,,,,,,,,,,,,,,,,,,,,,
,,,,,,,,,,,,,,,,,610095d245338153ded5b30d,18,2022-02-12_17h51.08.653,lexical_decision_task_DD_L3,2021.2.3,MacIntel,58.82352941,,,,,,,,,,,0.586,1,,,,,,,,,,,,,,m,1,0.586,,,,,,,,0.286666667,-0.065555556,0,0,0,,0,98,98,67,1,SAILOR,C,old,m,./images/SAILOR.png,,,,,,,,,,,,,,,,,,,,,,,,,,,,,,,,,,,
,,,,,,,,,,,,,,,,,610095d245338153ded5b30d,18,2022-02-12_17h51.08.653,lexical_decision_task_DD_L3,2021.2.3,MacIntel,58.82352941,,,,,,,,,,,0.682,1,,,,,,,,,,,,,,z,1,0.682,,,,,,,,0.286666667,-0.065555556,0,0,0,,0,99,99,144,1,NAIRY,C,old,z,./images/NAIRY.png,,,,,,,,,,,,,,,,,,,,,,,,,,,,,,,,,,,
,,,,,,,,,,,,,,,,,610095d245338153ded5b30d,18,2022-02-12_17h51.08.653,lexical_decision_task_DD_L3,2021.2.3,MacIntel,58.82352941,,,,,,,,,,,1.12,0,,,,,,,,,,,,,,z,0,1.12,,,,,,,,0.286666667,-0.065555556,0,0,0,,0,100,100,23,1,WALRUS,HB,old,m,./images/WALRUSHB.png,,,,,,,,,,,,,,,,,,,,,,,,,,,,,,,,,,,
,,,,,,,,,,,,,,,,,610095d245338153ded5b30d,18,2022-02-12_17h51.08.653,lexical_decision_task_DD_L3,2021.2.3,MacIntel,58.82352941,,,,,,,,,,,0.965,1,,,,,,,,,,,,,,z,1,0.965,,,,,,,,0.286666667,-0.065555556,0,0,0,,0,101,101,99,1,BACKY,C,old,z,./images/BACKY.png,,,,,,,,,,,,,,,,,,,,,,,,,,,,,,,,,,,
,,,,,,,,,,,,,,,,,610095d245338153ded5b30d,18,2022-02-12_17h51.08.653,lexical_decision_task_DD_L3,2021.2.3,MacIntel,58.82352941,,,,,,,,,,,0.8,1,,,,,,,,,,,,,,m,1,0.8,,,,,,,,0.286666667,-0.065555556,0,0,0,,0,102,102,52,1,BANNER,C,old,m,./images/BANNER.png,,,,,,,,,,,,,,,,,,,,,,,,,,,,,,,,,,,
,,,,,,,,,,,,,,,,,610095d245338153ded5b30d,18,2022-02-12_17h51.08.653,lexical_decision_task_DD_L3,2021.2.3,MacIntel,58.82352941,,,,,,,,,,,0.687,1,,,,,,,,,,,,,,z,1,0.687,,,,,,,,0.286666667,-0.065555556,0,0,0,,0,103,103,132,1,SCIFF,C,old,z,./images/SCIFF.png,,,,,,,,,,,,,,,,,,,,,,,,,,,,,,,,,,,
,,,,,,,,,,,,,,,,,610095d245338153ded5b30d,18,2022-02-12_17h51.08.653,lexical_decision_task_DD_L3,2021.2.3,MacIntel,58.82352941,,,,,,,,,,,1.166,1,,,,,,,,,,,,,,z,1,1.166,,,,,,,,0.286666667,-0.065555556,0,0,0,,0,104,104,142,1,PLASK,HB,old,z,./images/PLASKHB.png,,,,,,,,,,,,,,,,,,,,,,,,,,,,,,,,,,,
,,,,,,,,,,,,,,,,,610095d245338153ded5b30d,18,2022-02-12_17h51.08.653,lexical_decision_task_DD_L3,2021.2.3,MacIntel,58.82352941,,,,,,,,,,,0.751,1,,,,,,,,,,,,,,m,1,0.751,,,,,,,,0.286666667,-0.065555556,0,0,0,,0,105,105,45,1,KITTEN,LB,old,m,./images/KITTENLB.png,,,,,,,,,,,,,,,,,,,,,,,,,,,,,,,,,,,
,,,,,,,,,,,,,,,,,610095d245338153ded5b30d,18,2022-02-12_17h51.08.653,lexical_decision_task_DD_L3,2021.2.3,MacIntel,58.82352941,,,,,,,,,,,0.733,1,,,,,,,,,,,,,,z,1,0.733,,,,,,,,0.286666667,-0.065555556,0,0,0,,0,106,106,111,1,HOSSE,C,old,z,./images/HOSSE.png,,,,,,,,,,,,,,,,,,,,,,,,,,,,,,,,,,,
,,,,,,,,,,,,,,,,,610095d245338153ded5b30d,18,2022-02-12_17h51.08.653,lexical_decision_task_DD_L3,2021.2.3,MacIntel,58.82352941,,,,,,,,,,,1.035,1,,,,,,,,,,,,,,z,1,1.035,,,,,,,,0.286666667,-0.065555556,0,0,0,,0,107,107,122,1,BLOOT,LB,old,z,./images/BLOOTLB.png,,,,,,,,,,,,,,,,,,,,,,,,,,,,,,,,,,,
,,,,,,,,,,,,,,,,,610095d245338153ded5b30d,18,2022-02-12_17h51.08.653,lexical_decision_task_DD_L3,2021.2.3,MacIntel,58.82352941,,,,,,,,,,,0.717,1,,,,,,,,,,,,,,z,1,0.717,,,,,,,,0.286666667,-0.065555556,0,0,0,,0,108,108,150,1,NOOLS,C,old,z,./images/NOOLS.png,,,,,,,,,,,,,,,,,,,,,,,,,,,,,,,,,,,
,,,,,,,,,,,,,,,,,610095d245338153ded5b30d,18,2022-02-12_17h51.08.653,lexical_decision_task_DD_L3,2021.2.3,MacIntel,58.82352941,,,,,,,,,,,0.872,1,,,,,,,,,,,,,,z,1,0.872,,,,,,,,0.286666667,-0.065555556,0,0,0,,0,109,109,155,1,CANGY,LB,old,z,./images/CANGYLB.png,,,,,,,,,,,,,,,,,,,,,,,,,,,,,,,,,,,
,,,,,,,,,,,,,,,,,610095d245338153ded5b30d,18,2022-02-12_17h51.08.653,lexical_decision_task_DD_L3,2021.2.3,MacIntel,58.82352941,,,,,,,,,,,0.802,1,,,,,,,,,,,,,,z,1,0.802,,,,,,,,0.286666667,-0.065555556,0,0,0,,0,110,110,152,1,FRAIN,LB,old,z,./images/FRAINLB.png,,,,,,,,,,,,,,,,,,,,,,,,,,,,,,,,,,,
,,,,,,,,,,,,,,,,,610095d245338153ded5b30d,18,2022-02-12_17h51.08.653,lexical_decision_task_DD_L3,2021.2.3,MacIntel,58.82352941,,,,,,,,,,,1.202,1,,,,,,,,,,,,,,z,1,1.202,,,,,,,,0.286666667,-0.065555556,0,0,0,,0,111,111,124,1,TUNCH,HB,old,z,./images/TUNCHHB.png,,,,,,,,,,,,,,,,,,,,,,,,,,,,,,,,,,,
,,,,,,,,,,,,,,,,,610095d245338153ded5b30d,18,2022-02-12_17h51.08.653,lexical_decision_task_DD_L3,2021.2.3,MacIntel,58.82352941,,,,,,,,,,,0.688,1,,,,,,,,,,,,,,m,1,0.688,,,,,,,,0.286666667,-0.065555556,0,0,0,,0,112,112,60,1,TWINS,LB,old,m,./images/TWINSLB.png,,,,,,,,,,,,,,,,,,,,,,,,,,,,,,,,,,,
,,,,,,,,,,,,,,,,,610095d245338153ded5b30d,18,2022-02-12_17h51.08.653,lexical_decision_task_DD_L3,2021.2.3,MacIntel,58.82352941,,,,,,,,,,,0.566,1,,,,,,,,,,,,,,m,1,0.566,,,,,,,,0.286666667,-0.065555556,0,0,0,,0,113,113,24,1,SCREW,LB,old,m,./images/SCREWLB.png,,,,,,,,,,,,,,,,,,,,,,,,,,,,,,,,,,,
,,,,,,,,,,,,,,,,,610095d245338153ded5b30d,18,2022-02-12_17h51.08.653,lexical_decision_task_DD_L3,2021.2.3,MacIntel,58.82352941,,,,,,,,,,,0.522,1,,,,,,,,,,,,,,m,1,0.522,,,,,,,,0.286666667,-0.065555556,0,0,0,,0,114,114,3,1,FINGER,LB,old,m,./images/FINGERLB.png,,,,,,,,,,,,,,,,,,,,,,,,,,,,,,,,,,,
,,,,,,,,,,,,,,,,,610095d245338153ded5b30d,18,2022-02-12_17h51.08.653,lexical_decision_task_DD_L3,2021.2.3,MacIntel,58.82352941,,,,,,,,,,,0.888,1,,,,,,,,,,,,,,z,1,0.888,,,,,,,,0.286666667,-0.065555556,0,0,0,,0,115,115,133,1,POWDY,HB,old,z,./images/POWDYHB.png,,,,,,,,,,,,,,,,,,,,,,,,,,,,,,,,,,,
,,,,,,,,,,,,,,,,,610095d245338153ded5b30d,18,2022-02-12_17h51.08.653,lexical_decision_task_DD_L3,2021.2.3,MacIntel,58.82352941,,,,,,,,,,,1.089,1,,,,,,,,,,,,,,z,1,1.089,,,,,,,,0.286666667,-0.065555556,0,0,0,,0,116,116,88,1,GLUSH,HB,old,z,./images/GLUSHHB.png,,,,,,,,,,,,,,,,,,,,,,,,,,,,,,,,,,,
,,,,,,,,,,,,,,,,,610095d245338153ded5b30d,18,2022-02-12_17h51.08.653,lexical_decision_task_DD_L3,2021.2.3,MacIntel,58.82352941,,,,,,,,,,,0.791,1,,,,,,,,,,,,,,z,1,0.791,,,,,,,,0.286666667,-0.065555556,0,0,0,,0,117,117,87,1,TRING,C,old,z,./images/TRING.png,,,,,,,,,,,,,,,,,,,,,,,,,,,,,,,,,,,
,,,,,,,,,,,,,,,,,610095d245338153ded5b30d,18,2022-02-12_17h51.08.653,lexical_decision_task_DD_L3,2021.2.3,MacIntel,58.82352941,,,,,,,,,,,0.682,1,,,,,,,,,,,,,,z,1,0.682,,,,,,,,0.286666667,-0.065555556,0,0,0,,0,118,118,138,1,PLICE,C,old,z,./images/PLICE.png,,,,,,,,,,,,,,,,,,,,,,,,,,,,,,,,,,,
,,,,,,,,,,,,,,,,,610095d245338153ded5b30d,18,2022-02-12_17h51.08.653,lexical_decision_task_DD_L3,2021.2.3,MacIntel,58.82352941,,,,,,,,,,,1.636,1,,,,,,,,,,,,,,m,1,1.636,,,,,,,,0.286666667,-0.065555556,0,0,0,,0,119,119,59,1,BURIAL,HB,old,m,./images/BURIALHB.png,,,,,,,,,,,,,,,,,,,,,,,,,,,,,,,,,,,
,,,,,,,,,,,,,,,,,610095d245338153ded5b30d,18,2022-02-12_17h51.08.653,lexical_decision_task_DD_L3,2021.2.3,MacIntel,58.82352941,,,,,,,,,,,0.787,1,,,,,,,,,,,,,,m,1,0.787,,,,,,,,0.286666667,-0.065555556,0,0,0,,0,120,120,81,1,POODLE,LB,old,m,./images/POODLELB.png,,,,,,,,,,,,,,,,,,,,,,,,,,,,,,,,,,,
,,,,,,,,,,,,,,,,,610095d245338153ded5b30d,18,2022-02-12_17h51.08.653,lexical_decision_task_DD_L3,2021.2.3,MacIntel,58.82352941,,,,,,,,,,,2.119,1,,,,,,,,,,,,,,z,1,2.119,,,,,,,,0.286666667,-0.065555556,0,0,0,,0,121,121,115,1,MAWNS,HB,old,z,./images/MAWNSHB.png,,,,,,,,,,,,,,,,,,,,,,,,,,,,,,,,,,,
,,,,,,,,,,,,,,,,,610095d245338153ded5b30d,18,2022-02-12_17h51.08.653,lexical_decision_task_DD_L3,2021.2.3,MacIntel,58.82352941,,,,,,,,,,,0.804,1,,,,,,,,,,,,,,z,1,0.804,,,,,,,,0.286666667,-0.065555556,0,0,0,,0,122,122,92,1,PAIMS,LB,old,z,./images/PAIMSLB.png,,,,,,,,,,,,,,,,,,,,,,,,,,,,,,,,,,,
,,,,,,,,,,,,,,,,,610095d245338153ded5b30d,18,2022-02-12_17h51.08.653,lexical_decision_task_DD_L3,2021.2.3,MacIntel,58.82352941,,,,,,,,,,,0.768,1,,,,,,,,,,,,,,z,1,0.768,,,,,,,,0.286666667,-0.065555556,0,0,0,,0,123,123,96,1,KEAMS,C,old,z,./images/KEAMS.png,,,,,,,,,,,,,,,,,,,,,,,,,,,,,,,,,,,
,,,,,,,,,,,,,,,,,610095d245338153ded5b30d,18,2022-02-12_17h51.08.653,lexical_decision_task_DD_L3,2021.2.3,MacIntel,58.82352941,,,,,,,,,,,0.785,1,,,,,,,,,,,,,,z,1,0.785,,,,,,,,0.286666667,-0.065555556,0,0,0,,0,124,124,158,1,EGECT,LB,old,z,./images/EGECTLB.png,,,,,,,,,,,,,,,,,,,,,,,,,,,,,,,,,,,
,,,,,,,,,,,,,,,,,610095d245338153ded5b30d,18,2022-02-12_17h51.08.653,lexical_decision_task_DD_L3,2021.2.3,MacIntel,58.82352941,,,,,,,,,,,0.783,1,,,,,,,,,,,,,,z,1,0.783,,,,,,,,0.286666667,-0.065555556,0,0,0,space,0,125,125,107,1,FASKS,LB,old,z,./images/FASKSLB.png,3.212,,,,,,,,,,,,,,,,,,,,,,,,,,,,,,,,,,
,,,,,,,,,,,,,,,,,610095d245338153ded5b30d,18,2022-02-12_17h51.08.653,lexical_decision_task_DD_L3,2021.2.3,MacIntel,58.82352941,,,,,,,,,,,0.604,1,,,,,,,,,,,,,,z,1,0.604,,,,,,,,0.286666667,-0.065555556,0,0,0,,0,126,126,126,1,GUELS,C,old,z,./images/GUELS.png,,,,,,,,,,,,,,,,,,,,,,,,,,,,,,,,,,,
,,,,,,,,,,,,,,,,,610095d245338153ded5b30d,18,2022-02-12_17h51.08.653,lexical_decision_task_DD_L3,2021.2.3,MacIntel,58.82352941,,,,,,,,,,,0.616,1,,,,,,,,,,,,,,z,1,0.616,,,,,,,,0.286666667,-0.065555556,0,0,0,,0,127,127,101,1,GLEET,LB,old,z,./images/GLEETLB.png,,,,,,,,,,,,,,,,,,,,,,,,,,,,,,,,,,,
,,,,,,,,,,,,,,,,,610095d245338153ded5b30d,18,2022-02-12_17h51.08.653,lexical_decision_task_DD_L3,2021.2.3,MacIntel,58.82352941,,,,,,,,,,,0.649,0,,,,,,,,,,,,,,z,0,0.649,,,,,,,,0.286666667,-0.065555556,0,0,0,,0,128,128,80,1,WEASEL,HB,old,m,./images/WEASELHB.png,,,,,,,,,,,,,,,,,,,,,,,,,,,,,,,,,,,
,,,,,,,,,,,,,,,,,610095d245338153ded5b30d,18,2022-02-12_17h51.08.653,lexical_decision_task_DD_L3,2021.2.3,MacIntel,58.82352941,,,,,,,,,,,0.653,1,,,,,,,,,,,,,,z,1,0.653,,,,,,,,0.286666667,-0.065555556,0,0,0,,0,129,129,143,1,MONGS,LB,old,z,./images/MONGSLB.png,,,,,,,,,,,,,,,,,,,,,,,,,,,,,,,,,,,
,,,,,,,,,,,,,,,,,610095d245338153ded5b30d,18,2022-02-12_17h51.08.653,lexical_decision_task_DD_L3,2021.2.3,MacIntel,58.82352941,,,,,,,,,,,0.551,1,,,,,,,,,,,,,,m,1,0.551,,,,,,,,0.286666667,-0.065555556,0,0,0,,0,130,130,61,1,CANDLE,C,old,m,./images/CANDLE.png,,,,,,,,,,,,,,,,,,,,,,,,,,,,,,,,,,,
,,,,,,,,,,,,,,,,,610095d245338153ded5b30d,18,2022-02-12_17h51.08.653,lexical_decision_task_DD_L3,2021.2.3,MacIntel,58.82352941,,,,,,,,,,,0.654,1,,,,,,,,,,,,,,z,1,0.654,,,,,,,,0.286666667,-0.065555556,0,0,0,,0,131,131,118,1,BAVEL,HB,old,z,./images/BAVELHB.png,,,,,,,,,,,,,,,,,,,,,,,,,,,,,,,,,,,
,,,,,,,,,,,,,,,,,610095d245338153ded5b30d,18,2022-02-12_17h51.08.653,lexical_decision_task_DD_L3,2021.2.3,MacIntel,58.82352941,,,,,,,,,,,0.869,1,,,,,,,,,,,,,,z,1,0.869,,,,,,,,0.286666667,-0.065555556,0,0,0,,0,132,132,130,1,CRILL,HB,old,z,./images/CRILLHB.png,,,,,,,,,,,,,,,,,,,,,,,,,,,,,,,,,,,
,,,,,,,,,,,,,,,,,610095d245338153ded5b30d,18,2022-02-12_17h51.08.653,lexical_decision_task_DD_L3,2021.2.3,MacIntel,58.82352941,,,,,,,,,,,0.82,1,,,,,,,,,,,,,,m,1,0.82,,,,,,,,0.286666667,-0.065555556,0,0,0,,0,133,133,42,1,FOLDER,LB,old,m,./images/FOLDERLB.png,,,,,,,,,,,,,,,,,,,,,,,,,,,,,,,,,,,
,,,,,,,,,,,,,,,,,610095d245338153ded5b30d,18,2022-02-12_17h51.08.653,lexical_decision_task_DD_L3,2021.2.3,MacIntel,58.82352941,,,,,,,,,,,0.869,1,,,,,,,,,,,,,,m,1,0.869,,,,,,,,0.286666667,-0.065555556,0,0,0,,0,134,134,44,1,LIZARD,HB,old,m,./images/LIZARDHB.png,,,,,,,,,,,,,,,,,,,,,,,,,,,,,,,,,,,
,,,,,,,,,,,,,,,,,610095d245338153ded5b30d,18,2022-02-12_17h51.08.653,lexical_decision_task_DD_L3,2021.2.3,MacIntel,58.82352941,,,,,,,,,,,0.553,1,,,,,,,,,,,,,,m,1,0.553,,,,,,,,0.286666667,-0.065555556,0,0,0,,0,135,135,33,1,MAGGOT,LB,old,m,./images/MAGGOTLB.png,,,,,,,,,,,,,,,,,,,,,,,,,,,,,,,,,,,
,,,,,,,,,,,,,,,,,610095d245338153ded5b30d,18,2022-02-12_17h51.08.653,lexical_decision_task_DD_L3,2021.2.3,MacIntel,58.82352941,,,,,,,,,,,1.073,1,,,,,,,,,,,,,,z,1,1.073,,,,,,,,0.286666667,-0.065555556,0,0,0,,0,136,136,139,1,BLEAR,HB,old,z,./images/BLEARHB.png,,,,,,,,,,,,,,,,,,,,,,,,,,,,,,,,,,,
,,,,,,,,,,,,,,,,,610095d245338153ded5b30d,18,2022-02-12_17h51.08.653,lexical_decision_task_DD_L3,2021.2.3,MacIntel,58.82352941,,,,,,,,,,,2.156,1,,,,,,,,,,,,,,z,1,2.156,,,,,,,,0.286666667,-0.065555556,0,0,0,,0,137,137,106,1,CLUMS,HB,old,z,./images/CLUMSHB.png,,,,,,,,,,,,,,,,,,,,,,,,,,,,,,,,,,,
,,,,,,,,,,,,,,,,,610095d245338153ded5b30d,18,2022-02-12_17h51.08.653,lexical_decision_task_DD_L3,2021.2.3,MacIntel,58.82352941,,,,,,,,,,,0.952,1,,,,,,,,,,,,,,z,1,0.952,,,,,,,,0.286666667,-0.065555556,0,0,0,,0,138,138,163,1,GAMBA,HB,old,z,./images/GAMBAHB.png,,,,,,,,,,,,,,,,,,,,,,,,,,,,,,,,,,,
,,,,,,,,,,,,,,,,,610095d245338153ded5b30d,18,2022-02-12_17h51.08.653,lexical_decision_task_DD_L3,2021.2.3,MacIntel,58.82352941,,,,,,,,,,,0.652,1,,,,,,,,,,,,,,z,1,0.652,,,,,,,,0.286666667,-0.065555556,0,0,0,,0,139,139,167,1,ZONET,LB,old,z,./images/ZONETLB.png,,,,,,,,,,,,,,,,,,,,,,,,,,,,,,,,,,,
,,,,,,,,,,,,,,,,,610095d245338153ded5b30d,18,2022-02-12_17h51.08.653,lexical_decision_task_DD_L3,2021.2.3,MacIntel,58.82352941,,,,,,,,,,,1.051,1,,,,,,,,,,,,,,m,1,1.051,,,,,,,,0.286666667,-0.065555556,0,0,0,,0,140,140,20,1,CRADLE,HB,old,m,./images/CRADLEHB.png,,,,,,,,,,,,,,,,,,,,,,,,,,,,,,,,,,,
,,,,,,,,,,,,,,,,,610095d245338153ded5b30d,18,2022-02-12_17h51.08.653,lexical_decision_task_DD_L3,2021.2.3,MacIntel,58.82352941,,,,,,,,,,,0.547,1,,,,,,,,,,,,,,m,1,0.547,,,,,,,,0.286666667,-0.065555556,0,0,0,,0,141,141,6,1,SQUARE,LB,old,m,./images/SQUARELB.png,,,,,,,,,,,,,,,,,,,,,,,,,,,,,,,,,,,
,,,,,,,,,,,,,,,,,610095d245338153ded5b30d,18,2022-02-12_17h51.08.653,lexical_decision_task_DD_L3,2021.2.3,MacIntel,58.82352941,,,,,,,,,,,0.551,1,,,,,,,,,,,,,,m,1,0.551,,,,,,,,0.286666667,-0.065555556,0,0,0,,0,142,142,28,1,FALCON,C,old,m,./images/FALCON.png,,,,,,,,,,,,,,,,,,,,,,,,,,,,,,,,,,,
,,,,,,,,,,,,,,,,,610095d245338153ded5b30d,18,2022-02-12_17h51.08.653,lexical_decision_task_DD_L3,2021.2.3,MacIntel,58.82352941,,,,,,,,,,,0.804,1,,,,,,,,,,,,,,z,1,0.804,,,,,,,,0.286666667,-0.065555556,0,0,0,,0,143,143,164,1,SGREW,LB,old,z,./images/SGREWLB.png,,,,,,,,,,,,,,,,,,,,,,,,,,,,,,,,,,,
,,,,,,,,,,,,,,,,,610095d245338153ded5b30d,18,2022-02-12_17h51.08.653,lexical_decision_task_DD_L3,2021.2.3,MacIntel,58.82352941,,,,,,,,,,,0.7,1,,,,,,,,,,,,,,z,1,0.7,,,,,,,,0.286666667,-0.065555556,0,0,0,,0,144,144,104,1,GITTY,LB,old,z,./images/GITTYLB.png,,,,,,,,,,,,,,,,,,,,,,,,,,,,,,,,,,,
,,,,,,,,,,,,,,,,,610095d245338153ded5b30d,18,2022-02-12_17h51.08.653,lexical_decision_task_DD_L3,2021.2.3,MacIntel,58.82352941,,,,,,,,,,,0.671,1,,,,,,,,,,,,,,z,1,0.671,,,,,,,,0.286666667,-0.065555556,0,0,0,,0,145,145,93,1,SMONE,C,old,z,./images/SMONE.png,,,,,,,,,,,,,,,,,,,,,,,,,,,,,,,,,,,
,,,,,,,,,,,,,,,,,610095d245338153ded5b30d,18,2022-02-12_17h51.08.653,lexical_decision_task_DD_L3,2021.2.3,MacIntel,58.82352941,,,,,,,,,,,0.533,1,,,,,,,,,,,,,,z,1,0.533,,,,,,,,0.286666667,-0.065555556,0,0,0,,0,146,146,90,1,NEAST,C,old,z,./images/NEAST.png,,,,,,,,,,,,,,,,,,,,,,,,,,,,,,,,,,,
,,,,,,,,,,,,,,,,,610095d245338153ded5b30d,18,2022-02-12_17h51.08.653,lexical_decision_task_DD_L3,2021.2.3,MacIntel,58.82352941,,,,,,,,,,,0.631,1,,,,,,,,,,,,,,m,1,0.631,,,,,,,,0.286666667,-0.065555556,0,0,0,,0,147,147,49,1,DRUMS,C,old,m,./images/DRUMS.png,,,,,,,,,,,,,,,,,,,,,,,,,,,,,,,,,,,
,,,,,,,,,,,,,,,,,610095d245338153ded5b30d,18,2022-02-12_17h51.08.653,lexical_decision_task_DD_L3,2021.2.3,MacIntel,58.82352941,,,,,,,,,,,1.071,1,,,,,,,,,,,,,,z,1,1.071,,,,,,,,0.286666667,-0.065555556,0,0,0,,0,148,148,149,1,VEASE,LB,old,z,./images/VEASELB.png,,,,,,,,,,,,,,,,,,,,,,,,,,,,,,,,,,,
,,,,,,,,,,,,,,,,,610095d245338153ded5b30d,18,2022-02-12_17h51.08.653,lexical_decision_task_DD_L3,2021.2.3,MacIntel,58.82352941,,,,,,,,,,,0.667,1,,,,,,,,,,,,,,z,1,0.667,,,,,,,,0.286666667,-0.065555556,0,0,0,,0,149,149,148,1,JOMS,HB,old,z,./images/JOMSHB.png,,,,,,,,,,,,,,,,,,,,,,,,,,,,,,,,,,,
,,,,,,,,,,,,,,,,,610095d245338153ded5b30d,18,2022-02-12_17h51.08.653,lexical_decision_task_DD_L3,2021.2.3,MacIntel,58.82352941,,,,,,,,,,,0.569,1,,,,,,,,,,,,,,z,1,0.569,,,,,,,,0.286666667,-0.065555556,0,0,0,,0,150,150,135,1,JOODY,C,old,z,./images/JOODY.png,,,,,,,,,,,,,,,,,,,,,,,,,,,,,,,,,,,
,,,,,,,,,,,,,,,,,610095d245338153ded5b30d,18,2022-02-12_17h51.08.653,lexical_decision_task_DD_L3,2021.2.3,MacIntel,58.82352941,,,,,,,,,,,0.819,1,,,,,,,,,,,,,,z,1,0.819,,,,,,,,0.286666667,-0.065555556,0,0,0,,0,151,151,166,1,SHORY,HB,old,z,./images/SHORYHB.png,,,,,,,,,,,,,,,,,,,,,,,,,,,,,,,,,,,
,,,,,,,,,,,,,,,,,610095d245338153ded5b30d,18,2022-02-12_17h51.08.653,lexical_decision_task_DD_L3,2021.2.3,MacIntel,58.82352941,,,,,,,,,,,1.139,1,,,,,,,,,,,,,,m,1,1.139,,,,,,,,0.286666667,-0.065555556,0,0,0,,0,152,152,62,1,PURSE,HB,old,m,./images/PURSEHB.png,,,,,,,,,,,,,,,,,,,,,,,,,,,,,,,,,,,
,,,,,,,,,,,,,,,,,610095d245338153ded5b30d,18,2022-02-12_17h51.08.653,lexical_decision_task_DD_L3,2021.2.3,MacIntel,58.82352941,,,,,,,,,,,0.62,1,,,,,,,,,,,,,,m,1,0.62,,,,,,,,0.286666667,-0.065555556,0,0,0,,0,153,153,82,1,SUNSET,C,old,m,./images/SUNSET.png,,,,,,,,,,,,,,,,,,,,,,,,,,,,,,,,,,,
,,,,,,,,,,,,,,,,,610095d245338153ded5b30d,18,2022-02-12_17h51.08.653,lexical_decision_task_DD_L3,2021.2.3,MacIntel,58.82352941,,,,,,,,,,,0.619,1,,,,,,,,,,,,,,m,1,0.619,,,,,,,,0.286666667,-0.065555556,0,0,0,,0,154,154,77,1,COUCH,HB,old,m,./images/COUCHHB.png,,,,,,,,,,,,,,,,,,,,,,,,,,,,,,,,,,,
,,,,,,,,,,,,,,,,,610095d245338153ded5b30d,18,2022-02-12_17h51.08.653,lexical_decision_task_DD_L3,2021.2.3,MacIntel,58.82352941,,,,,,,,,,,0.616,1,,,,,,,,,,,,,,z,1,0.616,,,,,,,,0.286666667,-0.065555556,0,0,0,,0,155,155,123,1,SEDGE,C,old,z,./images/SEDGE.png,,,,,,,,,,,,,,,,,,,,,,,,,,,,,,,,,,,
,,,,,,,,,,,,,,,,,610095d245338153ded5b30d,18,2022-02-12_17h51.08.653,lexical_decision_task_DD_L3,2021.2.3,MacIntel,58.82352941,,,,,,,,,,,0.586,1,,,,,,,,,,,,,,z,1,0.586,,,,,,,,0.286666667,-0.065555556,0,0,0,,0,156,156,156,1,HIXES,C,old,z,./images/HIXES.png,,,,,,,,,,,,,,,,,,,,,,,,,,,,,,,,,,,
,,,,,,,,,,,,,,,,,610095d245338153ded5b30d,18,2022-02-12_17h51.08.653,lexical_decision_task_DD_L3,2021.2.3,MacIntel,58.82352941,,,,,,,,,,,1.218,0,,,,,,,,,,,,,,z,0,1.218,,,,,,,,0.286666667,-0.065555556,0,0,0,,0,157,157,29,1,CRUMB,HB,old,m,./images/CRUMBHB.png,,,,,,,,,,,,,,,,,,,,,,,,,,,,,,,,,,,
,,,,,,,,,,,,,,,,,610095d245338153ded5b30d,18,2022-02-12_17h51.08.653,lexical_decision_task_DD_L3,2021.2.3,MacIntel,58.82352941,,,,,,,,,,,0.834,1,,,,,,,,,,,,,,z,1,0.834,,,,,,,,0.286666667,-0.065555556,0,0,0,,0,158,158,113,1,LINEW,LB,old,z,./images/LINEWLB.png,,,,,,,,,,,,,,,,,,,,,,,,,,,,,,,,,,,
,,,,,,,,,,,,,,,,,610095d245338153ded5b30d,18,2022-02-12_17h51.08.653,lexical_decision_task_DD_L3,2021.2.3,MacIntel,58.82352941,,,,,,,,,,,0.874,1,,,,,,,,,,,,,,z,1,0.874,,,,,,,,0.286666667,-0.065555556,0,0,0,,0,159,159,162,1,LEICH,C,old,z,./images/LEICH.png,,,,,,,,,,,,,,,,,,,,,,,,,,,,,,,,,,,
,,,,,,,,,,,,,,,,,610095d245338153ded5b30d,18,2022-02-12_17h51.08.653,lexical_decision_task_DD_L3,2021.2.3,MacIntel,58.82352941,,,,,,,,,,,1.089,1,,,,,,,,,,,,,,z,1,1.089,,,,,,,,0.286666667,-0.065555556,0,0,0,,0,160,160,110,1,CRUNK,LB,old,z,./images/CRUNKLB.png,,,,,,,,,,,,,,,,,,,,,,,,,,,,,,,,,,,
,,,,,,,,,,,,,,,,,610095d245338153ded5b30d,18,2022-02-12_17h51.08.653,lexical_decision_task_DD_L3,2021.2.3,MacIntel,58.82352941,,,,,,,,,,,0.831,1,,,,,,,,,,,,,,z,1,0.831,,,,,,,,0.286666667,-0.065555556,0,0,0,,0,161,161,86,1,AIFED,LB,old,z,./images/AIFEDLB.png,,,,,,,,,,,,,,,,,,,,,,,,,,,,,,,,,,,
,,,,,,,,,,,,,,,,,610095d245338153ded5b30d,18,2022-02-12_17h51.08.653,lexical_decision_task_DD_L3,2021.2.3,MacIntel,58.82352941,,,,,,,,,,,1.387,1,,,,,,,,,,,,,,z,1,1.387,,,,,,,,0.286666667,-0.065555556,0,0,0,,0,162,162,100,1,DRIBS,HB,old,z,./images/DRIBSHB.png,,,,,,,,,,,,,,,,,,,,,,,,,,,,,,,,,,,
,,,,,,,,,,,,,,,,,610095d245338153ded5b30d,18,2022-02-12_17h51.08.653,lexical_decision_task_DD_L3,2021.2.3,MacIntel,58.82352941,,,,,,,,,,,0.816,1,,,,,,,,,,,,,,m,1,0.816,,,,,,,,0.286666667,-0.065555556,0,0,0,,0,163,163,68,1,TORCH,HB,old,m,./images/TORCHHB.png,,,,,,,,,,,,,,,,,,,,,,,,,,,,,,,,,,,
,,,,,,,,,,,,,,,,,610095d245338153ded5b30d,18,2022-02-12_17h51.08.653,lexical_decision_task_DD_L3,2021.2.3,MacIntel,58.82352941,,,,,,,,,,,1.307,1,,,,,,,,,,,,,,z,1,1.307,,,,,,,,0.286666667,-0.065555556,0,0,0,,0,164,164,91,1,SHENS,HB,old,z,./images/SHENSHB.png,,,,,,,,,,,,,,,,,,,,,,,,,,,,,,,,,,,
,,,,,,,,,,,,,,,,,610095d245338153ded5b30d,18,2022-02-12_17h51.08.653,lexical_decision_task_DD_L3,2021.2.3,MacIntel,58.82352941,,,,,,,,,,,0.617,1,,,,,,,,,,,,,,m,1,0.617,,,,,,,,0.286666667,-0.065555556,0,0,0,,0,165,165,46,1,PEARL,C,old,m,./images/PEARL.png,,,,,,,,,,,,,,,,,,,,,,,,,,,,,,,,,,,
,,,,,,,,,,,,,,,,,610095d245338153ded5b30d,18,2022-02-12_17h51.08.653,lexical_decision_task_DD_L3,2021.2.3,MacIntel,58.82352941,,,,,,,,,,,1.203,1,,,,,,,,,,,,,,m,1,1.203,,,,,,,,0.286666667,-0.065555556,0,0,0,,0,166,166,74,1,CEMENT,HB,old,m,./images/CEMENTHB.png,,,,,,,,,,,,,,,,,,,,,,,,,,,,,,,,,,,
,,,,,,,,,,,,,,,,,610095d245338153ded5b30d,18,2022-02-12_17h51.08.653,lexical_decision_task_DD_L3,2021.2.3,MacIntel,58.82352941,,,,,,,,,,,1.703,1,,,,,,,,,,,,,,m,1,1.703,,,,,,,,0.286666667,-0.065555556,0,0,0,,0,167,167,8,1,TULIP,HB,old,m,./images/TULIPHB.png,,,,,,,,,,,,,,,,,,,,,,,,,,,,,,,,,,,
,,,,,,,,,,,,,,,,,610095d245338153ded5b30d,18,2022-02-12_17h51.08.653,lexical_decision_task_DD_L3,2021.2.3,MacIntel,58.82352941,,,,,,,,,,,,,,,,,,,,,,,,,,,,,,,,,,,,,,,,,,,,,,,,How likely will it be that you will recognize the words presented very blurred on a scale of 0 (not likely) to 100 (most likely)?,,,,,0,-0.404444444,1,0,0,jol_adv,5,11.5,0,0,0,2,1,,,,,,,,,,,,,,,,,,,,,
,,,,,,,,,,,,,,,,,610095d245338153ded5b30d,18,2022-02-12_17h51.08.653,lexical_decision_task_DD_L3,2021.2.3,MacIntel,58.82352941,,,,,,,,,,,,,,,,,,,,,,,,,,,,,,,,,,,,,,,,,,,,,,,,How likely will it be that you will recognize the words presented slighly blurred on a scale of 0 (not likely) to 100 (most likely)?,,,,,,,,,,,6,9.396,0,1,1,1,1,,,,,,,,,,,,,,,,,,,,,
,,,,,,,,,,,,,,,,,610095d245338153ded5b30d,18,2022-02-12_17h51.08.653,lexical_decision_task_DD_L3,2021.2.3,MacIntel,58.82352941,,,,,,,,,,,,,,,,,,,,,,,,,,,,,,,,,,,,,,,,,,,,,,,,How likely will it be that you will recognize the words presented clearly on a scale of 0 (not likely) to 100 (most likely)?,,,,,,,,,,,6,4.307,0,2,2,0,1,,,,,,,,,,,,,,,,,,,,,
,,0.052222222,-0.407777778,1,0,0,,,,,,1,test,"In the next phase you will be presented with the words from the the first phase. Your job is to decide whether you remember seeing the word or not. If you remember seeing the word press ""old"" or type ""m"". If you do not remember seeing the word press ""new"" or type ""z"". Please press the space bar or click on continue to begin. ",,,610095d245338153ded5b30d,18,2022-02-12_17h51.08.653,lexical_decision_task_DD_L3,2021.2.3,MacIntel,58.82352941,,,,,,,,,,,,,,,,,,,,,,,,,,,,,,,,,,,,,,,,,,,,,,,,,,,,,,,,,,,,,,,,,,instr_done_button,0,0,0,0,1,,,,,,,,,,,,,,,
,,-0.03,-0.41,1,0,0,,,,,,1,test,"In the next phase you will be presented with the words from the the first phase. Your job is to decide whether you remember seeing the word or not. If you remember seeing the word press ""old"" or type ""m"". If you do not remember seeing the word press ""new"" or type ""z"". Please press the space bar or click on continue to begin. ",,,610095d245338153ded5b30d,18,2022-02-12_17h51.08.653,lexical_decision_task_DD_L3,2021.2.3,MacIntel,58.82352941,,,,,,,,,,,,,,,,,,,,,,,,,,,,,,,,,,,,,,,,,,,,,,,,,,,,,,,,,,,,,,,,,,instr_done_button,1,0,1,0,1,,,,,,,,,,,,,,,
space,18.898,0.132222222,-0.302222222,0,0,0,,,,,,1,test,"In the next phase you will be presented with the words from the the first phase. Your job is to decide whether you remember seeing the word or not. If you remember seeing the word press ""old"" or type ""m"". If you do not remember seeing the word press ""new"" or type ""z"". Please press the space bar or click on continue to begin. ",,,610095d245338153ded5b30d,18,2022-02-12_17h51.08.653,lexical_decision_task_DD_L3,2021.2.3,MacIntel,58.82352941,,,,,,,,,,,,,,,,,,,,,,,,,,,,,,,,,,,,,,,,,,,,,,,,,,,,,,,,,,,,,,,,,,,2,0,2,0,1,,,,,,,,,,,,,,,
space,2.563,0.132222222,-0.302222222,0,0,0,,,,,,1,test,"In the next phase you will be presented with the words from the the first phase. Your job is to decide whether you remember seeing the word or not. If you remember seeing the word press ""old"" or type ""m"". If you do not remember seeing the word press ""new"" or type ""z"". Please press the space bar or click on continue to begin. ",,,610095d245338153ded5b30d,18,2022-02-12_17h51.08.653,lexical_decision_task_DD_L3,2021.2.3,MacIntel,58.82352941,,,,,,,,,,,,,,,,,,,,,,,,,,,,,,,,,,,,,,,,,,,,,,,,,,,,,,,,,,,,,,,,,,,3,0,3,0,1,,,,,,,,,,,,,,,
space,2.164,0.006666667,-0.39,0,0,0,,,,,,1,test,"In the next phase you will be presented with the words from the the first phase. Your job is to decide whether you remember seeing the word or not. If you remember seeing the word press ""old"" or type ""m"". If you do not remember seeing the word press ""new"" or type ""z"". Please press the space bar or click on continue to begin. ",,,610095d245338153ded5b30d,18,2022-02-12_17h51.08.653,lexical_decision_task_DD_L3,2021.2.3,MacIntel,58.82352941,,,,,,,,,,,,,,,,,,,,,,,,,,,,,,,,,,,,,,,,,,,,,,,,,,,,,,,,,,,,,,,,,,,4,0,4,0,1,,,,,,,,,,,,,,,
,,,,,,,,,,,,,,,,,610095d245338153ded5b30d,18,2022-02-12_17h51.08.653,lexical_decision_task_DD_L3,2021.2.3,MacIntel,58.82352941,,,,,,,,,,,1.943,1,,,,,,,,,,,,,,,,,,,,,,,,0.006666667,-0.39,0,0,0,,,,,,,DOUGH,C,m,m,./images/DOUGH.png,,,,,,,,,,,,,,,,,,,,,m,1,1.943,,,,,,,,0,0,0,19,1
,,,,,,,,,,,,,,,,,610095d245338153ded5b30d,18,2022-02-12_17h51.08.653,lexical_decision_task_DD_L3,2021.2.3,MacIntel,58.82352941,,,,,,,,,,,0.799,1,,,,,,,,,,,,,,,,,,,,,,,,0.006666667,-0.39,0,0,0,,,,,,,BARREL,HB,m,m,./images/BARRELHB.png,,,,,,,,,,,,,,,,,,,,,m,1,0.799,,,,,,,,0,1,1,32,1
,,,,,,,,,,,,,,,,,610095d245338153ded5b30d,18,2022-02-12_17h51.08.653,lexical_decision_task_DD_L3,2021.2.3,MacIntel,58.82352941,,,,,,,,,,,0.671,1,,,,,,,,,,,,,,,,,,,,,,,,0.006666667,-0.39,0,0,0,,,,,,,LIZARD,HB,m,m,./images/LIZARDHB.png,,,,,,,,,,,,,,,,,,,,,m,1,0.671,,,,,,,,0,2,2,44,1
,,,,,,,,,,,,,,,,,610095d245338153ded5b30d,18,2022-02-12_17h51.08.653,lexical_decision_task_DD_L3,2021.2.3,MacIntel,58.82352941,,,,,,,,,,,1.002,1,,,,,,,,,,,,,,,,,,,,,,,,0.006666667,-0.39,0,0,0,,,,,,,CANYON,C,m,m,./images/CANYON.png,,,,,,,,,,,,,,,,,,,,,m,1,1.002,,,,,,,,0,3,3,34,1
,,,,,,,,,,,,,,,,,610095d245338153ded5b30d,18,2022-02-12_17h51.08.653,lexical_decision_task_DD_L3,2021.2.3,MacIntel,58.82352941,,,,,,,,,,,0.698,1,,,,,,,,,,,,,,,,,,,,,,,,0.006666667,-0.39,0,0,0,,,,,,,CASINO,C,z,m,./images/CASINO.png,,,,,,,,,,,,,,,,,,,,,z,1,0.698,,,,,,,,0,4,4,112,1
,,,,,,,,,,,,,,,,,610095d245338153ded5b30d,18,2022-02-12_17h51.08.653,lexical_decision_task_DD_L3,2021.2.3,MacIntel,58.82352941,,,,,,,,,,,0.654,1,,,,,,,,,,,,,,,,,,,,,,,,0.006666667,-0.39,0,0,0,,,,,,,GLOVE,C,z,m,./images/GLOVE.png,,,,,,,,,,,,,,,,,,,,,z,1,0.654,,,,,,,,0,5,5,157,1
,,,,,,,,,,,,,,,,,610095d245338153ded5b30d,18,2022-02-12_17h51.08.653,lexical_decision_task_DD_L3,2021.2.3,MacIntel,58.82352941,,,,,,,,,,,0.867,1,,,,,,,,,,,,,,,,,,,,,,,,0.006666667,-0.39,0,0,0,,,,,,,STATUE,LB,z,m,./images/STATUELB.png,,,,,,,,,,,,,,,,,,,,,z,1,0.867,,,,,,,,0,6,6,150,1
,,,,,,,,,,,,,,,,,610095d245338153ded5b30d,18,2022-02-12_17h51.08.653,lexical_decision_task_DD_L3,2021.2.3,MacIntel,58.82352941,,,,,,,,,,,0.701,1,,,,,,,,,,,,,,,,,,,,,,,,0.006666667,-0.39,0,0,0,,,,,,,THROAT,LB,m,m,./images/THROATLB.png,,,,,,,,,,,,,,,,,,,,,m,1,0.701,,,,,,,,0,7,7,36,1
,,,,,,,,,,,,,,,,,610095d245338153ded5b30d,18,2022-02-12_17h51.08.653,lexical_decision_task_DD_L3,2021.2.3,MacIntel,58.82352941,,,,,,,,,,,0.784,1,,,,,,,,,,,,,,,,,,,,,,,,0.006666667,-0.39,0,0,0,,,,,,,RAZOR,C,z,m,./images/RAZOR.png,,,,,,,,,,,,,,,,,,,,,z,1,0.784,,,,,,,,0,8,8,118,1
,,,,,,,,,,,,,,,,,610095d245338153ded5b30d,18,2022-02-12_17h51.08.653,lexical_decision_task_DD_L3,2021.2.3,MacIntel,58.82352941,,,,,,,,,,,0.598,1,,,,,,,,,,,,,,,,,,,,,,,,0.006666667,-0.39,0,0,0,,,,,,,BELLY,C,m,m,./images/BELLY.png,,,,,,,,,,,,,,,,,,,,,m,1,0.598,,,,,,,,0,9,9,10,1
,,,,,,,,,,,,,,,,,610095d245338153ded5b30d,18,2022-02-12_17h51.08.653,lexical_decision_task_DD_L3,2021.2.3,MacIntel,58.82352941,,,,,,,,,,,0.85,1,,,,,,,,,,,,,,,,,,,,,,,,0.006666667,-0.39,0,0,0,,,,,,,PEACH,HB,m,m,./images/PEACHHB.png,,,,,,,,,,,,,,,,,,,,,m,1,0.85,,,,,,,,0,10,10,35,1
,,,,,,,,,,,,,,,,,610095d245338153ded5b30d,18,2022-02-12_17h51.08.653,lexical_decision_task_DD_L3,2021.2.3,MacIntel,58.82352941,,,,,,,,,,,0.924,1,,,,,,,,,,,,,,,,,,,,,,,,0.006666667,-0.39,0,0,0,,,,,,,ARTIST,C,z,m,./images/ARTIST.png,,,,,,,,,,,,,,,,,,,,,z,1,0.924,,,,,,,,0,11,11,145,1
,,,,,,,,,,,,,,,,,610095d245338153ded5b30d,18,2022-02-12_17h51.08.653,lexical_decision_task_DD_L3,2021.2.3,MacIntel,58.82352941,,,,,,,,,,,0.785,1,,,,,,,,,,,,,,,,,,,,,,,,0.006666667,-0.39,0,0,0,,,,,,,WHEEL,HB,z,m,./images/WHEELHB.png,,,,,,,,,,,,,,,,,,,,,z,1,0.785,,,,,,,,0,12,12,161,1
,,,,,,,,,,,,,,,,,610095d245338153ded5b30d,18,2022-02-12_17h51.08.653,lexical_decision_task_DD_L3,2021.2.3,MacIntel,58.82352941,,,,,,,,,,,0.669,1,,,,,,,,,,,,,,,,,,,,,,,,0.006666667,-0.39,0,0,0,,,,,,,CANDLE,C,m,m,./images/CANDLE.png,,,,,,,,,,,,,,,,,,,,,m,1,0.669,,,,,,,,0,13,13,61,1
,,,,,,,,,,,,,,,,,610095d245338153ded5b30d,18,2022-02-12_17h51.08.653,lexical_decision_task_DD_L3,2021.2.3,MacIntel,58.82352941,,,,,,,,,,,0.62,0,,,,,,,,,,,,,,,,,,,,,,,,0.006666667,-0.39,0,0,0,,,,,,,BUNNY,C,z,m,./images/BUNNY.png,,,,,,,,,,,,,,,,,,,,,m,0,0.62,,,,,,,,0,14,14,97,1
,,,,,,,,,,,,,,,,,610095d245338153ded5b30d,18,2022-02-12_17h51.08.653,lexical_decision_task_DD_L3,2021.2.3,MacIntel,58.82352941,,,,,,,,,,,0.666,1,,,,,,,,,,,,,,,,,,,,,,,,0.006666667,-0.39,0,0,0,,,,,,,MELON,C,m,m,./images/MELON.png,,,,,,,,,,,,,,,,,,,,,m,1,0.666,,,,,,,,0,15,15,22,1
,,,,,,,,,,,,,,,,,610095d245338153ded5b30d,18,2022-02-12_17h51.08.653,lexical_decision_task_DD_L3,2021.2.3,MacIntel,58.82352941,,,,,,,,,,,0.701,1,,,,,,,,,,,,,,,,,,,,,,,,0.006666667,-0.39,0,0,0,,,,,,,MAGGOT,LB,m,m,./images/MAGGOTLB.png,,,,,,,,,,,,,,,,,,,,,m,1,0.701,,,,,,,,0,16,16,33,1
,,,,,,,,,,,,,,,,,610095d245338153ded5b30d,18,2022-02-12_17h51.08.653,lexical_decision_task_DD_L3,2021.2.3,MacIntel,58.82352941,,,,,,,,,,,0.622,1,,,,,,,,,,,,,,,,,,,,,,,,0.006666667,-0.39,0,0,0,,,,,,,FOLDER,LB,m,m,./images/FOLDERLB.png,,,,,,,,,,,,,,,,,,,,,m,1,0.622,,,,,,,,0,17,17,42,1
,,,,,,,,,,,,,,,,,610095d245338153ded5b30d,18,2022-02-12_17h51.08.653,lexical_decision_task_DD_L3,2021.2.3,MacIntel,58.82352941,,,,,,,,,,,0.84,0,,,,,,,,,,,,,,,,,,,,,,,,0.006666667,-0.39,0,0,0,,,,,,,SWING,C,m,m,./images/SWING.png,,,,,,,,,,,,,,,,,,,,,z,0,0.84,,,,,,,,0,18,18,40,1
,,,,,,,,,,,,,,,,,610095d245338153ded5b30d,18,2022-02-12_17h51.08.653,lexical_decision_task_DD_L3,2021.2.3,MacIntel,58.82352941,,,,,,,,,,,0.763,1,,,,,,,,,,,,,,,,,,,,,,,,0.006666667,-0.39,0,0,0,,,,,,,STEAK,C,z,m,./images/STEAK.png,,,,,,,,,,,,,,,,,,,,,z,1,0.763,,,,,,,,0,19,19,115,1
,,,,,,,,,,,,,,,,,610095d245338153ded5b30d,18,2022-02-12_17h51.08.653,lexical_decision_task_DD_L3,2021.2.3,MacIntel,58.82352941,,,,,,,,,,,0.935,1,,,,,,,,,,,,,,,,,,,,,,,,0.006666667,-0.39,0,0,0,,,,,,,WAGON,C,z,m,./images/WAGON.png,,,,,,,,,,,,,,,,,,,,,z,1,0.935,,,,,,,,0,20,20,91,1
,,,,,,,,,,,,,,,,,610095d245338153ded5b30d,18,2022-02-12_17h51.08.653,lexical_decision_task_DD_L3,2021.2.3,MacIntel,58.82352941,,,,,,,,,,,0.833,1,,,,,,,,,,,,,,,,,,,,,,,,0.006666667,-0.39,0,0,0,,,,,,,NOOSE,LB,m,m,./images/NOOSELB.png,,,,,,,,,,,,,,,,,,,,,m,1,0.833,,,,,,,,0,21,21,72,1
,,,,,,,,,,,,,,,,,610095d245338153ded5b30d,18,2022-02-12_17h51.08.653,lexical_decision_task_DD_L3,2021.2.3,MacIntel,58.82352941,,,,,,,,,,,0.733,1,,,,,,,,,,,,,,,,,,,,,,,,0.006666667,-0.39,0,0,0,,,,,,,LITTER,LB,m,m,./images/LITTERLB.png,,,,,,,,,,,,,,,,,,,,,m,1,0.733,,,,,,,,0,22,22,78,1
,,,,,,,,,,,,,,,,,610095d245338153ded5b30d,18,2022-02-12_17h51.08.653,lexical_decision_task_DD_L3,2021.2.3,MacIntel,58.82352941,,,,,,,,,,,0.755,1,,,,,,,,,,,,,,,,,,,,,,,,0.006666667,-0.39,0,0,0,,,,,,,SLOPE,LB,z,m,./images/SLOPELB.png,,,,,,,,,,,,,,,,,,,,,z,1,0.755,,,,,,,,0,23,23,114,1
,,,,,,,,,,,,,,,,,610095d245338153ded5b30d,18,2022-02-12_17h51.08.653,lexical_decision_task_DD_L3,2021.2.3,MacIntel,58.82352941,,,,,,,,,,,1,1,,,,,,,,,,,,,,,,,,,,,,,,0.006666667,-0.39,0,0,0,,,,,,,VALLEY,HB,z,m,./images/VALLEYHB.png,,,,,,,,,,,,,,,,,,,,,z,1,1,,,,,,,,0,24,24,152,1
,,,,,,,,,,,,,,,,,610095d245338153ded5b30d,18,2022-02-12_17h51.08.653,lexical_decision_task_DD_L3,2021.2.3,MacIntel,58.82352941,,,,,,,,,,,0.682,1,,,,,,,,,,,,,,,,,,,,,,,,0.006666667,-0.39,0,0,0,,,,,,,BLOKE,LB,z,m,./images/BLOKELB.png,,,,,,,,,,,,,,,,,,,,,z,1,0.682,,,,,,,,0,25,25,96,1
,,,,,,,,,,,,,,,,,610095d245338153ded5b30d,18,2022-02-12_17h51.08.653,lexical_decision_task_DD_L3,2021.2.3,MacIntel,58.82352941,,,,,,,,,,,0.883,1,,,,,,,,,,,,,,,,,,,,,,,,0.006666667,-0.39,0,0,0,,,,,,,SPINE,HB,z,m,./images/SPINEHB.png,,,,,,,,,,,,,,,,,,,,,z,1,0.883,,,,,,,,0,26,26,149,1
,,,,,,,,,,,,,,,,,610095d245338153ded5b30d,18,2022-02-12_17h51.08.653,lexical_decision_task_DD_L3,2021.2.3,MacIntel,58.82352941,,,,,,,,,,,1.039,0,,,,,,,,,,,,,,,,,,,,,,,,0.006666667,-0.39,0,0,0,,,,,,,SHELF,LB,m,m,./images/SHELFLB.png,,,,,,,,,,,,,,,,,,,,,z,0,1.039,,,,,,,,0,27,27,39,1
,,,,,,,,,,,,,,,,,610095d245338153ded5b30d,18,2022-02-12_17h51.08.653,lexical_decision_task_DD_L3,2021.2.3,MacIntel,58.82352941,,,,,,,,,,,0.986,1,,,,,,,,,,,,,,,,,,,,,,,,0.006666667,-0.39,0,0,0,,,,,,,STREAM,HB,z,m,./images/STREAMHB.png,,,,,,,,,,,,,,,,,,,,,z,1,0.986,,,,,,,,0,28,28,125,1
,,,,,,,,,,,,,,,,,610095d245338153ded5b30d,18,2022-02-12_17h51.08.653,lexical_decision_task_DD_L3,2021.2.3,MacIntel,58.82352941,,,,,,,,,,,0.816,1,,,,,,,,,,,,,,,,,,,,,,,,0.006666667,-0.39,0,0,0,,,,,,,TRIPOD,LB,m,m,./images/TRIPODLB.png,,,,,,,,,,,,,,,,,,,,,m,1,0.816,,,,,,,,0,29,29,54,1
,,,,,,,,,,,,,,,,,610095d245338153ded5b30d,18,2022-02-12_17h51.08.653,lexical_decision_task_DD_L3,2021.2.3,MacIntel,58.82352941,,,,,,,,,,,0.764,1,,,,,,,,,,,,,,,,,,,,,,,,0.006666667,-0.39,0,0,0,,,,,,,MEDAL,HB,z,m,./images/MEDALHB.png,,,,,,,,,,,,,,,,,,,,,z,1,0.764,,,,,,,,0,30,30,95,1
,,,,,,,,,,,,,,,,,610095d245338153ded5b30d,18,2022-02-12_17h51.08.653,lexical_decision_task_DD_L3,2021.2.3,MacIntel,58.82352941,,,,,,,,,,,0.786,1,,,,,,,,,,,,,,,,,,,,,,,,0.006666667,-0.39,0,0,0,,,,,,,PILOT,HB,z,m,./images/PILOTHB.png,,,,,,,,,,,,,,,,,,,,,z,1,0.786,,,,,,,,0,31,31,134,1
,,,,,,,,,,,,,,,,,610095d245338153ded5b30d,18,2022-02-12_17h51.08.653,lexical_decision_task_DD_L3,2021.2.3,MacIntel,58.82352941,,,,,,,,,,,0.817,1,,,,,,,,,,,,,,,,,,,,,,,,0.006666667,-0.39,0,0,0,,,,,,,PARCEL,LB,z,m,./images/PARCELLB.png,,,,,,,,,,,,,,,,,,,,,z,1,0.817,,,,,,,,0,32,32,102,1
,,,,,,,,,,,,,,,,,610095d245338153ded5b30d,18,2022-02-12_17h51.08.653,lexical_decision_task_DD_L3,2021.2.3,MacIntel,58.82352941,,,,,,,,,,,0.7,0,,,,,,,,,,,,,,,,,,,,,,,,0.006666667,-0.39,0,0,0,,,,,,,WEASEL,HB,m,m,./images/WEASELHB.png,,,,,,,,,,,,,,,,,,,,,z,0,0.7,,,,,,,,0,33,33,80,1
,,,,,,,,,,,,,,,,,610095d245338153ded5b30d,18,2022-02-12_17h51.08.653,lexical_decision_task_DD_L3,2021.2.3,MacIntel,58.82352941,,,,,,,,,,,0.733,1,,,,,,,,,,,,,,,,,,,,,,,,0.006666667,-0.39,0,0,0,,,,,,,PLANET,HB,z,m,./images/PLANETHB.png,,,,,,,,,,,,,,,,,,,,,z,1,0.733,,,,,,,,0,34,34,164,1
,,,,,,,,,,,,,,,,,610095d245338153ded5b30d,18,2022-02-12_17h51.08.653,lexical_decision_task_DD_L3,2021.2.3,MacIntel,58.82352941,,,,,,,,,,,0.734,1,,,,,,,,,,,,,,,,,,,,,,,,0.006666667,-0.39,0,0,0,,,,,,,BIRTH,C,m,m,./images/BIRTH.png,,,,,,,,,,,,,,,,,,,,,m,1,0.734,,,,,,,,0,35,35,37,1
,,,,,,,,,,,,,,,,,610095d245338153ded5b30d,18,2022-02-12_17h51.08.653,lexical_decision_task_DD_L3,2021.2.3,MacIntel,58.82352941,,,,,,,,,,,0.719,0,,,,,,,,,,,,,,,,,,,,,,,,0.006666667,-0.39,0,0,0,,,,,,,WALRUS,HB,m,m,./images/WALRUSHB.png,,,,,,,,,,,,,,,,,,,,,z,0,0.719,,,,,,,,0,36,36,23,1
,,,,,,,,,,,,,,,,,610095d245338153ded5b30d,18,2022-02-12_17h51.08.653,lexical_decision_task_DD_L3,2021.2.3,MacIntel,58.82352941,,,,,,,,,,,0.698,1,,,,,,,,,,,,,,,,,,,,,,,,0.006666667,-0.39,0,0,0,,,,,,,POODLE,LB,m,m,./images/POODLELB.png,,,,,,,,,,,,,,,,,,,,,m,1,0.698,,,,,,,,0,37,37,81,1
,,,,,,,,,,,,,,,,,610095d245338153ded5b30d,18,2022-02-12_17h51.08.653,lexical_decision_task_DD_L3,2021.2.3,MacIntel,58.82352941,,,,,,,,,,,0.733,1,,,,,,,,,,,,,,,,,,,,,,,,0.006666667,-0.39,0,0,0,,,,,,,CRUMB,HB,m,m,./images/CRUMBHB.png,,,,,,,,,,,,,,,,,,,,,m,1,0.733,,,,,,,,0,38,38,29,1
,,,,,,,,,,,,,,,,,610095d245338153ded5b30d,18,2022-02-12_17h51.08.653,lexical_decision_task_DD_L3,2021.2.3,MacIntel,58.82352941,,,,,,,,,,,0.919,1,,,,,,,,,,,,,,,,,,,,,,,,0.006666667,-0.39,0,0,0,,,,,,,BAMBOO,HB,z,m,./images/BAMBOOHB.png,,,,,,,,,,,,,,,,,,,,,z,1,0.919,,,,,,,,0,39,39,89,1
,,,,,,,,,,,,,,,,,610095d245338153ded5b30d,18,2022-02-12_17h51.08.653,lexical_decision_task_DD_L3,2021.2.3,MacIntel,58.82352941,,,,,,,,,,,0.919,1,,,,,,,,,,,,,,,,,,,,,,,,0.006666667,-0.39,0,0,0,,,,,,,FENCE,HB,z,m,./images/FENCEHB.png,,,,,,,,,,,,,,,,,,,,,z,1,0.919,,,,,,,,0,40,40,98,1
,,,,,,,,,,,,,,,,,610095d245338153ded5b30d,18,2022-02-12_17h51.08.653,lexical_decision_task_DD_L3,2021.2.3,MacIntel,58.82352941,,,,,,,,,,,0.665,1,,,,,,,,,,,,,,,,,,,,,,,,0.006666667,-0.39,0,0,0,space,,,,,,WALNUT,LB,z,m,./images/WALNUTLB.png,1.623,,,,,,,,,,,,,,,,,,,,z,1,0.665,,,,,,,,0,41,41,84,1
,,,,,,,,,,,,,,,,,610095d245338153ded5b30d,18,2022-02-12_17h51.08.653,lexical_decision_task_DD_L3,2021.2.3,MacIntel,58.82352941,,,,,,,,,,,0.785,1,,,,,,,,,,,,,,,,,,,,,,,,0.006666667,-0.39,0,0,0,,,,,,,HAMMER,LB,z,m,./images/HAMMERLB.png,,,,,,,,,,,,,,,,,,,,,z,1,0.785,,,,,,,,0,42,42,159,1
,,,,,,,,,,,,,,,,,610095d245338153ded5b30d,18,2022-02-12_17h51.08.653,lexical_decision_task_DD_L3,2021.2.3,MacIntel,58.82352941,,,,,,,,,,,0.7,1,,,,,,,,,,,,,,,,,,,,,,,,0.006666667,-0.39,0,0,0,,,,,,,DESERT,C,z,m,./images/DESERT.png,,,,,,,,,,,,,,,,,,,,,z,1,0.7,,,,,,,,0,43,43,136,1
,,,,,,,,,,,,,,,,,610095d245338153ded5b30d,18,2022-02-12_17h51.08.653,lexical_decision_task_DD_L3,2021.2.3,MacIntel,58.82352941,,,,,,,,,,,0.87,0,,,,,,,,,,,,,,,,,,,,,,,,0.006666667,-0.39,0,0,0,,,,,,,GREASE,LB,m,m,./images/GREASELB.png,,,,,,,,,,,,,,,,,,,,,z,0,0.87,,,,,,,,0,44,44,15,1
,,,,,,,,,,,,,,,,,610095d245338153ded5b30d,18,2022-02-12_17h51.08.653,lexical_decision_task_DD_L3,2021.2.3,MacIntel,58.82352941,,,,,,,,,,,0.67,1,,,,,,,,,,,,,,,,,,,,,,,,0.006666667,-0.39,0,0,0,,,,,,,TWINS,LB,m,m,./images/TWINSLB.png,,,,,,,,,,,,,,,,,,,,,m,1,0.67,,,,,,,,0,45,45,60,1
,,,,,,,,,,,,,,,,,610095d245338153ded5b30d,18,2022-02-12_17h51.08.653,lexical_decision_task_DD_L3,2021.2.3,MacIntel,58.82352941,,,,,,,,,,,0.696,1,,,,,,,,,,,,,,,,,,,,,,,,0.006666667,-0.39,0,0,0,,,,,,,TOWEL,C,z,m,./images/TOWEL.png,,,,,,,,,,,,,,,,,,,,,z,1,0.696,,,,,,,,0,46,46,85,1
,,,,,,,,,,,,,,,,,610095d245338153ded5b30d,18,2022-02-12_17h51.08.653,lexical_decision_task_DD_L3,2021.2.3,MacIntel,58.82352941,,,,,,,,,,,0.835,1,,,,,,,,,,,,,,,,,,,,,,,,0.006666667,-0.39,0,0,0,,,,,,,FARMER,HB,m,m,./images/FARMERHB.png,,,,,,,,,,,,,,,,,,,,,m,1,0.835,,,,,,,,0,47,47,65,1
,,,,,,,,,,,,,,,,,610095d245338153ded5b30d,18,2022-02-12_17h51.08.653,lexical_decision_task_DD_L3,2021.2.3,MacIntel,58.82352941,,,,,,,,,,,0.655,1,,,,,,,,,,,,,,,,,,,,,,,,0.006666667,-0.39,0,0,0,,,,,,,POSTER,HB,z,m,./images/POSTERHB.png,,,,,,,,,,,,,,,,,,,,,z,1,0.655,,,,,,,,0,48,48,137,1
,,,,,,,,,,,,,,,,,610095d245338153ded5b30d,18,2022-02-12_17h51.08.653,lexical_decision_task_DD_L3,2021.2.3,MacIntel,58.82352941,,,,,,,,,,,0.75,1,,,,,,,,,,,,,,,,,,,,,,,,0.006666667,-0.39,0,0,0,,,,,,,TORCH,HB,m,m,./images/TORCHHB.png,,,,,,,,,,,,,,,,,,,,,m,1,0.75,,,,,,,,0,49,49,68,1
,,,,,,,,,,,,,,,,,610095d245338153ded5b30d,18,2022-02-12_17h51.08.653,lexical_decision_task_DD_L3,2021.2.3,MacIntel,58.82352941,,,,,,,,,,,0.672,1,,,,,,,,,,,,,,,,,,,,,,,,0.006666667,-0.39,0,0,0,,,,,,,STRING,HB,m,m,./images/STRINGHB.png,,,,,,,,,,,,,,,,,,,,,m,1,0.672,,,,,,,,0,50,50,41,1
,,,,,,,,,,,,,,,,,610095d245338153ded5b30d,18,2022-02-12_17h51.08.653,lexical_decision_task_DD_L3,2021.2.3,MacIntel,58.82352941,,,,,,,,,,,0.633,1,,,,,,,,,,,,,,,,,,,,,,,,0.006666667,-0.39,0,0,0,,,,,,,JAGUAR,LB,m,m,./images/JAGUARLB.png,,,,,,,,,,,,,,,,,,,,,m,1,0.633,,,,,,,,0,51,51,18,1
,,,,,,,,,,,,,,,,,610095d245338153ded5b30d,18,2022-02-12_17h51.08.653,lexical_decision_task_DD_L3,2021.2.3,MacIntel,58.82352941,,,,,,,,,,,0.837,1,,,,,,,,,,,,,,,,,,,,,,,,0.006666667,-0.39,0,0,0,,,,,,,DONKEY,C,z,m,./images/DONKEY.png,,,,,,,,,,,,,,,,,,,,,z,1,0.837,,,,,,,,0,52,52,103,1
,,,,,,,,,,,,,,,,,610095d245338153ded5b30d,18,2022-02-12_17h51.08.653,lexical_decision_task_DD_L3,2021.2.3,MacIntel,58.82352941,,,,,,,,,,,0.819,1,,,,,,,,,,,,,,,,,,,,,,,,0.006666667,-0.39,0,0,0,,,,,,,GRAPE,C,z,m,./images/GRAPE.png,,,,,,,,,,,,,,,,,,,,,z,1,0.819,,,,,,,,0,53,53,100,1
,,,,,,,,,,,,,,,,,610095d245338153ded5b30d,18,2022-02-12_17h51.08.653,lexical_decision_task_DD_L3,2021.2.3,MacIntel,58.82352941,,,,,,,,,,,0.636,1,,,,,,,,,,,,,,,,,,,,,,,,0.006666667,-0.39,0,0,0,,,,,,,MONKEY,LB,z,m,./images/MONKEYLB.png,,,,,,,,,,,,,,,,,,,,,z,1,0.636,,,,,,,,0,54,54,129,1
,,,,,,,,,,,,,,,,,610095d245338153ded5b30d,18,2022-02-12_17h51.08.653,lexical_decision_task_DD_L3,2021.2.3,MacIntel,58.82352941,,,,,,,,,,,0.816,1,,,,,,,,,,,,,,,,,,,,,,,,0.006666667,-0.39,0,0,0,,,,,,,PEBBLE,C,z,m,./images/PEBBLE.png,,,,,,,,,,,,,,,,,,,,,z,1,0.816,,,,,,,,0,55,55,166,1
,,,,,,,,,,,,,,,,,610095d245338153ded5b30d,18,2022-02-12_17h51.08.653,lexical_decision_task_DD_L3,2021.2.3,MacIntel,58.82352941,,,,,,,,,,,0.735,0,,,,,,,,,,,,,,,,,,,,,,,,0.006666667,-0.39,0,0,0,,,,,,,MALLET,HB,m,m,./images/MALLETHB.png,,,,,,,,,,,,,,,,,,,,,z,0,0.735,,,,,,,,0,56,56,50,1
,,,,,,,,,,,,,,,,,610095d245338153ded5b30d,18,2022-02-12_17h51.08.653,lexical_decision_task_DD_L3,2021.2.3,MacIntel,58.82352941,,,,,,,,,,,0.824,1,,,,,,,,,,,,,,,,,,,,,,,,0.006666667,-0.39,0,0,0,,,,,,,SNACK,C,m,m,./images/SNACK.png,,,,,,,,,,,,,,,,,,,,,m,1,0.824,,,,,,,,0,57,57,73,1
,,,,,,,,,,,,,,,,,610095d245338153ded5b30d,18,2022-02-12_17h51.08.653,lexical_decision_task_DD_L3,2021.2.3,MacIntel,58.82352941,,,,,,,,,,,0.7,1,,,,,,,,,,,,,,,,,,,,,,,,0.006666667,-0.39,0,0,0,,,,,,,KITTEN,LB,m,m,./images/KITTENLB.png,,,,,,,,,,,,,,,,,,,,,m,1,0.7,,,,,,,,0,58,58,45,1
,,,,,,,,,,,,,,,,,610095d245338153ded5b30d,18,2022-02-12_17h51.08.653,lexical_decision_task_DD_L3,2021.2.3,MacIntel,58.82352941,,,,,,,,,,,0.682,1,,,,,,,,,,,,,,,,,,,,,,,,0.006666667,-0.39,0,0,0,,,,,,,CRUST,C,m,m,./images/CRUST.png,,,,,,,,,,,,,,,,,,,,,m,1,0.682,,,,,,,,0,59,59,79,1
,,,,,,,,,,,,,,,,,610095d245338153ded5b30d,18,2022-02-12_17h51.08.653,lexical_decision_task_DD_L3,2021.2.3,MacIntel,58.82352941,,,,,,,,,,,0.681,1,,,,,,,,,,,,,,,,,,,,,,,,0.006666667,-0.39,0,0,0,,,,,,,SUNSET,C,m,m,./images/SUNSET.png,,,,,,,,,,,,,,,,,,,,,m,1,0.681,,,,,,,,0,60,60,82,1
,,,,,,,,,,,,,,,,,610095d245338153ded5b30d,18,2022-02-12_17h51.08.653,lexical_decision_task_DD_L3,2021.2.3,MacIntel,58.82352941,,,,,,,,,,,0.835,1,,,,,,,,,,,,,,,,,,,,,,,,0.006666667,-0.39,0,0,0,,,,,,,DRILL,LB,z,m,./images/DRILLLB.png,,,,,,,,,,,,,,,,,,,,,z,1,0.835,,,,,,,,0,61,61,165,1
,,,,,,,,,,,,,,,,,610095d245338153ded5b30d,18,2022-02-12_17h51.08.653,lexical_decision_task_DD_L3,2021.2.3,MacIntel,58.82352941,,,,,,,,,,,0.816,0,,,,,,,,,,,,,,,,,,,,,,,,0.006666667,-0.39,0,0,0,,,,,,,PICKLE,HB,m,m,./images/PICKLEHB.png,,,,,,,,,,,,,,,,,,,,,z,0,0.816,,,,,,,,0,62,62,14,1
,,,,,,,,,,,,,,,,,610095d245338153ded5b30d,18,2022-02-12_17h51.08.653,lexical_decision_task_DD_L3,2021.2.3,MacIntel,58.82352941,,,,,,,,,,,0.958,1,,,,,,,,,,,,,,,,,,,,,,,,0.006666667,-0.39,0,0,0,,,,,,,CHALK,C,z,m,./images/CHALK.png,,,,,,,,,,,,,,,,,,,,,z,1,0.958,,,,,,,,0,63,63,109,1
,,,,,,,,,,,,,,,,,610095d245338153ded5b30d,18,2022-02-12_17h51.08.653,lexical_decision_task_DD_L3,2021.2.3,MacIntel,58.82352941,,,,,,,,,,,0.751,1,,,,,,,,,,,,,,,,,,,,,,,,0.006666667,-0.39,0,0,0,,,,,,,SWEAT,LB,m,m,./images/SWEATLB.png,,,,,,,,,,,,,,,,,,,,,m,1,0.751,,,,,,,,0,64,64,66,1
,,,,,,,,,,,,,,,,,610095d245338153ded5b30d,18,2022-02-12_17h51.08.653,lexical_decision_task_DD_L3,2021.2.3,MacIntel,58.82352941,,,,,,,,,,,0.864,0,,,,,,,,,,,,,,,,,,,,,,,,0.006666667,-0.39,0,0,0,,,,,,,MAMMAL,HB,z,m,./images/MAMMALHB.png,,,,,,,,,,,,,,,,,,,,,m,0,0.864,,,,,,,,0,65,65,146,1
,,,,,,,,,,,,,,,,,610095d245338153ded5b30d,18,2022-02-12_17h51.08.653,lexical_decision_task_DD_L3,2021.2.3,MacIntel,58.82352941,,,,,,,,,,,0.753,1,,,,,,,,,,,,,,,,,,,,,,,,0.006666667,-0.39,0,0,0,,,,,,,PLANK,C,m,m,./images/PLANK.png,,,,,,,,,,,,,,,,,,,,,m,1,0.753,,,,,,,,0,66,66,1,1
,,,,,,,,,,,,,,,,,610095d245338153ded5b30d,18,2022-02-12_17h51.08.653,lexical_decision_task_DD_L3,2021.2.3,MacIntel,58.82352941,,,,,,,,,,,0.703,1,,,,,,,,,,,,,,,,,,,,,,,,0.006666667,-0.39,0,0,0,,,,,,,BEARD,HB,m,m,./images/BEARDHB.png,,,,,,,,,,,,,,,,,,,,,m,1,0.703,,,,,,,,0,67,67,2,1
,,,,,,,,,,,,,,,,,610095d245338153ded5b30d,18,2022-02-12_17h51.08.653,lexical_decision_task_DD_L3,2021.2.3,MacIntel,58.82352941,,,,,,,,,,,0.687,1,,,,,,,,,,,,,,,,,,,,,,,,0.006666667,-0.39,0,0,0,,,,,,,COOKER,LB,m,m,./images/COOKERLB.png,,,,,,,,,,,,,,,,,,,,,m,1,0.687,,,,,,,,0,68,68,69,1
,,,,,,,,,,,,,,,,,610095d245338153ded5b30d,18,2022-02-12_17h51.08.653,lexical_decision_task_DD_L3,2021.2.3,MacIntel,58.82352941,,,,,,,,,,,0.667,1,,,,,,,,,,,,,,,,,,,,,,,,0.006666667,-0.39,0,0,0,,,,,,,KIDNEY,LB,m,m,./images/KIDNEYLB.png,,,,,,,,,,,,,,,,,,,,,m,1,0.667,,,,,,,,0,69,69,21,1
,,,,,,,,,,,,,,,,,610095d245338153ded5b30d,18,2022-02-12_17h51.08.653,lexical_decision_task_DD_L3,2021.2.3,MacIntel,58.82352941,,,,,,,,,,,0.754,1,,,,,,,,,,,,,,,,,,,,,,,,0.006666667,-0.39,0,0,0,,,,,,,CURRY,LB,z,m,./images/CURRYLB.png,,,,,,,,,,,,,,,,,,,,,z,1,0.754,,,,,,,,0,70,70,144,1
,,,,,,,,,,,,,,,,,610095d245338153ded5b30d,18,2022-02-12_17h51.08.653,lexical_decision_task_DD_L3,2021.2.3,MacIntel,58.82352941,,,,,,,,,,,0.685,1,,,,,,,,,,,,,,,,,,,,,,,,0.006666667,-0.39,0,0,0,,,,,,,MOOSE,LB,m,m,./images/MOOSELB.png,,,,,,,,,,,,,,,,,,,,,m,1,0.685,,,,,,,,0,71,71,57,1
,,,,,,,,,,,,,,,,,610095d245338153ded5b30d,18,2022-02-12_17h51.08.653,lexical_decision_task_DD_L3,2021.2.3,MacIntel,58.82352941,,,,,,,,,,,0.787,1,,,,,,,,,,,,,,,,,,,,,,,,0.006666667,-0.39,0,0,0,,,,,,,DANCER,LB,z,m,./images/DANCERLB.png,,,,,,,,,,,,,,,,,,,,,z,1,0.787,,,,,,,,0,72,72,105,1
,,,,,,,,,,,,,,,,,610095d245338153ded5b30d,18,2022-02-12_17h51.08.653,lexical_decision_task_DD_L3,2021.2.3,MacIntel,58.82352941,,,,,,,,,,,0.702,0,,,,,,,,,,,,,,,,,,,,,,,,0.006666667,-0.39,0,0,0,,,,,,,SPORT,LB,m,m,./images/SPORTLB.png,,,,,,,,,,,,,,,,,,,,,z,0,0.702,,,,,,,,0,73,73,48,1
,,,,,,,,,,,,,,,,,610095d245338153ded5b30d,18,2022-02-12_17h51.08.653,lexical_decision_task_DD_L3,2021.2.3,MacIntel,58.82352941,,,,,,,,,,,0.923,1,,,,,,,,,,,,,,,,,,,,,,,,0.006666667,-0.39,0,0,0,,,,,,,BAKER,LB,z,m,./images/BAKERLB.png,,,,,,,,,,,,,,,,,,,,,z,1,0.923,,,,,,,,0,74,74,147,1
,,,,,,,,,,,,,,,,,610095d245338153ded5b30d,18,2022-02-12_17h51.08.653,lexical_decision_task_DD_L3,2021.2.3,MacIntel,58.82352941,,,,,,,,,,,0.581,1,,,,,,,,,,,,,,,,,,,,,,,,0.006666667,-0.39,0,0,0,,,,,,,CRATER,LB,z,m,./images/CRATERLB.png,,,,,,,,,,,,,,,,,,,,,z,1,0.581,,,,,,,,0,75,75,87,1
,,,,,,,,,,,,,,,,,610095d245338153ded5b30d,18,2022-02-12_17h51.08.653,lexical_decision_task_DD_L3,2021.2.3,MacIntel,58.82352941,,,,,,,,,,,0.815,1,,,,,,,,,,,,,,,,,,,,,,,,0.006666667,-0.39,0,0,0,,,,,,,BUBBLE,HB,z,m,./images/BUBBLEHB.png,,,,,,,,,,,,,,,,,,,,,z,1,0.815,,,,,,,,0,76,76,155,1
,,,,,,,,,,,,,,,,,610095d245338153ded5b30d,18,2022-02-12_17h51.08.653,lexical_decision_task_DD_L3,2021.2.3,MacIntel,58.82352941,,,,,,,,,,,0.597,1,,,,,,,,,,,,,,,,,,,,,,,,0.006666667,-0.39,0,0,0,,,,,,,BANANA,C,z,m,./images/BANANA.png,,,,,,,,,,,,,,,,,,,,,z,1,0.597,,,,,,,,0,77,77,154,1
,,,,,,,,,,,,,,,,,610095d245338153ded5b30d,18,2022-02-12_17h51.08.653,lexical_decision_task_DD_L3,2021.2.3,MacIntel,58.82352941,,,,,,,,,,,0.717,1,,,,,,,,,,,,,,,,,,,,,,,,0.006666667,-0.39,0,0,0,,,,,,,HOCKEY,HB,z,m,./images/HOCKEYHB.png,,,,,,,,,,,,,,,,,,,,,z,1,0.717,,,,,,,,0,78,78,116,1
,,,,,,,,,,,,,,,,,610095d245338153ded5b30d,18,2022-02-12_17h51.08.653,lexical_decision_task_DD_L3,2021.2.3,MacIntel,58.82352941,,,,,,,,,,,0.896,0,,,,,,,,,,,,,,,,,,,,,,,,0.006666667,-0.39,0,0,0,,,,,,,MUSCLE,C,m,m,./images/MUSCLE.png,,,,,,,,,,,,,,,,,,,,,z,0,0.896,,,,,,,,0,79,79,4,1
,,,,,,,,,,,,,,,,,610095d245338153ded5b30d,18,2022-02-12_17h51.08.653,lexical_decision_task_DD_L3,2021.2.3,MacIntel,58.82352941,,,,,,,,,,,0.523,0,,,,,,,,,,,,,,,,,,,,,,,,0.006666667,-0.39,0,0,0,,,,,,,PEARL,C,m,m,./images/PEARL.png,,,,,,,,,,,,,,,,,,,,,z,0,0.523,,,,,,,,0,80,80,46,1
,,,,,,,,,,,,,,,,,610095d245338153ded5b30d,18,2022-02-12_17h51.08.653,lexical_decision_task_DD_L3,2021.2.3,MacIntel,58.82352941,,,,,,,,,,,0.65,1,,,,,,,,,,,,,,,,,,,,,,,,0.006666667,-0.39,0,0,0,,,,,,,ALLEY,C,z,m,./images/ALLEY.png,,,,,,,,,,,,,,,,,,,,,z,1,0.65,,,,,,,,0,81,81,139,1
,,,,,,,,,,,,,,,,,610095d245338153ded5b30d,18,2022-02-12_17h51.08.653,lexical_decision_task_DD_L3,2021.2.3,MacIntel,58.82352941,,,,,,,,,,,0.699,1,,,,,,,,,,,,,,,,,,,,,,,,0.006666667,-0.39,0,0,0,,,,,,,BUTTER,LB,z,m,./images/BUTTERLB.png,,,,,,,,,,,,,,,,,,,,,z,1,0.699,,,,,,,,0,82,82,111,1
,,,,,,,,,,,,,,,,,610095d245338153ded5b30d,18,2022-02-12_17h51.08.653,lexical_decision_task_DD_L3,2021.2.3,MacIntel,58.82352941,,,,,,,,,,,0.733,1,,,,,,,,,,,,,,,,,,,,,,,,0.006666667,-0.39,0,0,0,space,,,,,,BRIDE,C,z,m,./images/BRIDE.png,4.332,,,,,,,,,,,,,,,,,,,,z,1,0.733,,,,,,,,0,83,83,148,1
,,,,,,,,,,,,,,,,,610095d245338153ded5b30d,18,2022-02-12_17h51.08.653,lexical_decision_task_DD_L3,2021.2.3,MacIntel,58.82352941,,,,,,,,,,,0.751,1,,,,,,,,,,,,,,,,,,,,,,,,0.006666667,-0.39,0,0,0,,,,,,,GRANNY,HB,z,m,./images/GRANNYHB.png,,,,,,,,,,,,,,,,,,,,,z,1,0.751,,,,,,,,0,84,84,104,1
,,,,,,,,,,,,,,,,,610095d245338153ded5b30d,18,2022-02-12_17h51.08.653,lexical_decision_task_DD_L3,2021.2.3,MacIntel,58.82352941,,,,,,,,,,,0.582,1,,,,,,,,,,,,,,,,,,,,,,,,0.006666667,-0.39,0,0,0,,,,,,,LLAMA,HB,z,m,./images/LLAMAHB.png,,,,,,,,,,,,,,,,,,,,,z,1,0.582,,,,,,,,0,85,85,119,1
,,,,,,,,,,,,,,,,,610095d245338153ded5b30d,18,2022-02-12_17h51.08.653,lexical_decision_task_DD_L3,2021.2.3,MacIntel,58.82352941,,,,,,,,,,,0.92,1,,,,,,,,,,,,,,,,,,,,,,,,0.006666667,-0.39,0,0,0,,,,,,,FLESH,LB,z,m,./images/FLESHLB.png,,,,,,,,,,,,,,,,,,,,,z,1,0.92,,,,,,,,0,86,86,108,1
,,,,,,,,,,,,,,,,,610095d245338153ded5b30d,18,2022-02-12_17h51.08.653,lexical_decision_task_DD_L3,2021.2.3,MacIntel,58.82352941,,,,,,,,,,,0.763,1,,,,,,,,,,,,,,,,,,,,,,,,0.006666667,-0.39,0,0,0,,,,,,,TULIP,HB,m,m,./images/TULIPHB.png,,,,,,,,,,,,,,,,,,,,,m,1,0.763,,,,,,,,0,87,87,8,1
,,,,,,,,,,,,,,,,,610095d245338153ded5b30d,18,2022-02-12_17h51.08.653,lexical_decision_task_DD_L3,2021.2.3,MacIntel,58.82352941,,,,,,,,,,,0.784,0,,,,,,,,,,,,,,,,,,,,,,,,0.006666667,-0.39,0,0,0,,,,,,,MIRROR,LB,m,m,./images/MIRRORLB.png,,,,,,,,,,,,,,,,,,,,,z,0,0.784,,,,,,,,0,88,88,63,1
,,,,,,,,,,,,,,,,,610095d245338153ded5b30d,18,2022-02-12_17h51.08.653,lexical_decision_task_DD_L3,2021.2.3,MacIntel,58.82352941,,,,,,,,,,,0.773,1,,,,,,,,,,,,,,,,,,,,,,,,0.006666667,-0.39,0,0,0,,,,,,,CLOTH,HB,z,m,./images/CLOTHHB.png,,,,,,,,,,,,,,,,,,,,,z,1,0.773,,,,,,,,0,89,89,107,1
,,,,,,,,,,,,,,,,,610095d245338153ded5b30d,18,2022-02-12_17h51.08.653,lexical_decision_task_DD_L3,2021.2.3,MacIntel,58.82352941,,,,,,,,,,,0.752,1,,,,,,,,,,,,,,,,,,,,,,,,0.006666667,-0.39,0,0,0,,,,,,,CLOUD,HB,z,m,./images/CLOUDHB.png,,,,,,,,,,,,,,,,,,,,,z,1,0.752,,,,,,,,0,90,90,110,1
,,,,,,,,,,,,,,,,,610095d245338153ded5b30d,18,2022-02-12_17h51.08.653,lexical_decision_task_DD_L3,2021.2.3,MacIntel,58.82352941,,,,,,,,,,,0.873,1,,,,,,,,,,,,,,,,,,,,,,,,0.006666667,-0.39,0,0,0,,,,,,,RULER,C,z,m,./images/RULER.png,,,,,,,,,,,,,,,,,,,,,z,1,0.873,,,,,,,,0,91,91,163,1
,,,,,,,,,,,,,,,,,610095d245338153ded5b30d,18,2022-02-12_17h51.08.653,lexical_decision_task_DD_L3,2021.2.3,MacIntel,58.82352941,,,,,,,,,,,0.85,1,,,,,,,,,,,,,,,,,,,,,,,,0.006666667,-0.39,0,0,0,,,,,,,INFANT,C,m,m,./images/INFANT.png,,,,,,,,,,,,,,,,,,,,,m,1,0.85,,,,,,,,0,92,92,76,1
,,,,,,,,,,,,,,,,,610095d245338153ded5b30d,18,2022-02-12_17h51.08.653,lexical_decision_task_DD_L3,2021.2.3,MacIntel,58.82352941,,,,,,,,,,,0.952,1,,,,,,,,,,,,,,,,,,,,,,,,0.006666667,-0.39,0,0,0,,,,,,,SMOKER,HB,m,m,./images/SMOKERHB.png,,,,,,,,,,,,,,,,,,,,,m,1,0.952,,,,,,,,0,93,93,26,1
,,,,,,,,,,,,,,,,,610095d245338153ded5b30d,18,2022-02-12_17h51.08.653,lexical_decision_task_DD_L3,2021.2.3,MacIntel,58.82352941,,,,,,,,,,,0.684,1,,,,,,,,,,,,,,,,,,,,,,,,0.006666667,-0.39,0,0,0,,,,,,,PARADE,HB,z,m,./images/PARADEHB.png,,,,,,,,,,,,,,,,,,,,,z,1,0.684,,,,,,,,0,94,94,101,1
,,,,,,,,,,,,,,,,,610095d245338153ded5b30d,18,2022-02-12_17h51.08.653,lexical_decision_task_DD_L3,2021.2.3,MacIntel,58.82352941,,,,,,,,,,,1.004,1,,,,,,,,,,,,,,,,,,,,,,,,0.006666667,-0.39,0,0,0,,,,,,,STOOL,C,z,m,./images/STOOL.png,,,,,,,,,,,,,,,,,,,,,z,1,1.004,,,,,,,,0,95,95,127,1
,,,,,,,,,,,,,,,,,610095d245338153ded5b30d,18,2022-02-12_17h51.08.653,lexical_decision_task_DD_L3,2021.2.3,MacIntel,58.82352941,,,,,,,,,,,0.922,1,,,,,,,,,,,,,,,,,,,,,,,,0.006666667,-0.39,0,0,0,,,,,,,SHIELD,LB,z,m,./images/SHIELDLB.png,,,,,,,,,,,,,,,,,,,,,z,1,0.922,,,,,,,,0,96,96,132,1
,,,,,,,,,,,,,,,,,610095d245338153ded5b30d,18,2022-02-12_17h51.08.653,lexical_decision_task_DD_L3,2021.2.3,MacIntel,58.82352941,,,,,,,,,,,0.869,1,,,,,,,,,,,,,,,,,,,,,,,,0.006666667,-0.39,0,0,0,,,,,,,FALCON,C,m,m,./images/FALCON.png,,,,,,,,,,,,,,,,,,,,,m,1,0.869,,,,,,,,0,97,97,28,1
,,,,,,,,,,,,,,,,,610095d245338153ded5b30d,18,2022-02-12_17h51.08.653,lexical_decision_task_DD_L3,2021.2.3,MacIntel,58.82352941,,,,,,,,,,,0.702,1,,,,,,,,,,,,,,,,,,,,,,,,0.006666667,-0.39,0,0,0,,,,,,,BOILER,LB,z,m,./images/BOILERLB.png,,,,,,,,,,,,,,,,,,,,,z,1,0.702,,,,,,,,0,98,98,120,1
,,,,,,,,,,,,,,,,,610095d245338153ded5b30d,18,2022-02-12_17h51.08.653,lexical_decision_task_DD_L3,2021.2.3,MacIntel,58.82352941,,,,,,,,,,,1.156,1,,,,,,,,,,,,,,,,,,,,,,,,0.006666667,-0.39,0,0,0,,,,,,,SHORE,LB,m,m,./images/SHORELB.png,,,,,,,,,,,,,,,,,,,,,m,1,1.156,,,,,,,,0,99,99,12,1
,,,,,,,,,,,,,,,,,610095d245338153ded5b30d,18,2022-02-12_17h51.08.653,lexical_decision_task_DD_L3,2021.2.3,MacIntel,58.82352941,,,,,,,,,,,0.622,1,,,,,,,,,,,,,,,,,,,,,,,,0.006666667,-0.39,0,0,0,,,,,,,JUMPER,HB,z,m,./images/JUMPERHB.png,,,,,,,,,,,,,,,,,,,,,z,1,0.622,,,,,,,,0,100,100,158,1
,,,,,,,,,,,,,,,,,610095d245338153ded5b30d,18,2022-02-12_17h51.08.653,lexical_decision_task_DD_L3,2021.2.3,MacIntel,58.82352941,,,,,,,,,,,0.573,1,,,,,,,,,,,,,,,,,,,,,,,,0.006666667,-0.39,0,0,0,,,,,,,CANDY,LB,z,m,./images/CANDYLB.png,,,,,,,,,,,,,,,,,,,,,z,1,0.573,,,,,,,,0,101,101,123,1
,,,,,,,,,,,,,,,,,610095d245338153ded5b30d,18,2022-02-12_17h51.08.653,lexical_decision_task_DD_L3,2021.2.3,MacIntel,58.82352941,,,,,,,,,,,0.632,1,,,,,,,,,,,,,,,,,,,,,,,,0.006666667,-0.39,0,0,0,,,,,,,TIGER,C,z,m,./images/TIGER.png,,,,,,,,,,,,,,,,,,,,,z,1,0.632,,,,,,,,0,102,102,121,1
,,,,,,,,,,,,,,,,,610095d245338153ded5b30d,18,2022-02-12_17h51.08.653,lexical_decision_task_DD_L3,2021.2.3,MacIntel,58.82352941,,,,,,,,,,,0.618,1,,,,,,,,,,,,,,,,,,,,,,,,0.006666667,-0.39,0,0,0,,,,,,,COLLAR,LB,z,m,./images/COLLARLB.png,,,,,,,,,,,,,,,,,,,,,z,1,0.618,,,,,,,,0,103,103,99,1
,,,,,,,,,,,,,,,,,610095d245338153ded5b30d,18,2022-02-12_17h51.08.653,lexical_decision_task_DD_L3,2021.2.3,MacIntel,58.82352941,,,,,,,,,,,0.704,1,,,,,,,,,,,,,,,,,,,,,,,,0.006666667,-0.39,0,0,0,,,,,,,PISTOL,HB,z,m,./images/PISTOLHB.png,,,,,,,,,,,,,,,,,,,,,z,1,0.704,,,,,,,,0,104,104,113,1
,,,,,,,,,,,,,,,,,610095d245338153ded5b30d,18,2022-02-12_17h51.08.653,lexical_decision_task_DD_L3,2021.2.3,MacIntel,58.82352941,,,,,,,,,,,0.785,0,,,,,,,,,,,,,,,,,,,,,,,,0.006666667,-0.39,0,0,0,,,,,,,JUNGLE,HB,m,m,./images/JUNGLEHB.png,,,,,,,,,,,,,,,,,,,,,z,0,0.785,,,,,,,,0,105,105,83,1
,,,,,,,,,,,,,,,,,610095d245338153ded5b30d,18,2022-02-12_17h51.08.653,lexical_decision_task_DD_L3,2021.2.3,MacIntel,58.82352941,,,,,,,,,,,0.632,1,,,,,,,,,,,,,,,,,,,,,,,,0.006666667,-0.39,0,0,0,,,,,,,CANOE,C,z,m,./images/CANOE.png,,,,,,,,,,,,,,,,,,,,,z,1,0.632,,,,,,,,0,106,106,142,1
,,,,,,,,,,,,,,,,,610095d245338153ded5b30d,18,2022-02-12_17h51.08.653,lexical_decision_task_DD_L3,2021.2.3,MacIntel,58.82352941,,,,,,,,,,,0.72,1,,,,,,,,,,,,,,,,,,,,,,,,0.006666667,-0.39,0,0,0,,,,,,,URINE,C,m,m,./images/URINE.png,,,,,,,,,,,,,,,,,,,,,m,1,0.72,,,,,,,,0,107,107,70,1
,,,,,,,,,,,,,,,,,610095d245338153ded5b30d,18,2022-02-12_17h51.08.653,lexical_decision_task_DD_L3,2021.2.3,MacIntel,58.82352941,,,,,,,,,,,1.018,0,,,,,,,,,,,,,,,,,,,,,,,,0.006666667,-0.39,0,0,0,,,,,,,JELLY,C,m,m,./images/JELLY.png,,,,,,,,,,,,,,,,,,,,,z,0,1.018,,,,,,,,0,108,108,64,1
,,,,,,,,,,,,,,,,,610095d245338153ded5b30d,18,2022-02-12_17h51.08.653,lexical_decision_task_DD_L3,2021.2.3,MacIntel,58.82352941,,,,,,,,,,,0.695,0,,,,,,,,,,,,,,,,,,,,,,,,0.006666667,-0.39,0,0,0,,,,,,,CARPET,HB,m,m,./images/CARPETHB.png,,,,,,,,,,,,,,,,,,,,,z,0,0.695,,,,,,,,0,109,109,53,1
,,,,,,,,,,,,,,,,,610095d245338153ded5b30d,18,2022-02-12_17h51.08.653,lexical_decision_task_DD_L3,2021.2.3,MacIntel,58.82352941,,,,,,,,,,,0.873,1,,,,,,,,,,,,,,,,,,,,,,,,0.006666667,-0.39,0,0,0,,,,,,,PIMPLE,HB,m,m,./images/PIMPLEHB.png,,,,,,,,,,,,,,,,,,,,,m,1,0.873,,,,,,,,0,110,110,71,1
,,,,,,,,,,,,,,,,,610095d245338153ded5b30d,18,2022-02-12_17h51.08.653,lexical_decision_task_DD_L3,2021.2.3,MacIntel,58.82352941,,,,,,,,,,,0.983,1,,,,,,,,,,,,,,,,,,,,,,,,0.006666667,-0.39,0,0,0,,,,,,,LAGOON,HB,z,m,./images/LAGOONHB.png,,,,,,,,,,,,,,,,,,,,,z,1,0.983,,,,,,,,0,111,111,131,1
,,,,,,,,,,,,,,,,,610095d245338153ded5b30d,18,2022-02-12_17h51.08.653,lexical_decision_task_DD_L3,2021.2.3,MacIntel,58.82352941,,,,,,,,,,,0.831,0,,,,,,,,,,,,,,,,,,,,,,,,0.006666667,-0.39,0,0,0,,,,,,,CRADLE,HB,m,m,./images/CRADLEHB.png,,,,,,,,,,,,,,,,,,,,,z,0,0.831,,,,,,,,0,112,112,20,1
,,,,,,,,,,,,,,,,,610095d245338153ded5b30d,18,2022-02-12_17h51.08.653,lexical_decision_task_DD_L3,2021.2.3,MacIntel,58.82352941,,,,,,,,,,,0.767,0,,,,,,,,,,,,,,,,,,,,,,,,0.006666667,-0.39,0,0,0,,,,,,,MOTOR,C,m,m,./images/MOTOR.png,,,,,,,,,,,,,,,,,,,,,z,0,0.767,,,,,,,,0,113,113,13,1
,,,,,,,,,,,,,,,,,610095d245338153ded5b30d,18,2022-02-12_17h51.08.653,lexical_decision_task_DD_L3,2021.2.3,MacIntel,58.82352941,,,,,,,,,,,0.769,1,,,,,,,,,,,,,,,,,,,,,,,,0.006666667,-0.39,0,0,0,,,,,,,PAINT,C,m,m,./images/PAINT.png,,,,,,,,,,,,,,,,,,,,,m,1,0.769,,,,,,,,0,114,114,7,1
,,,,,,,,,,,,,,,,,610095d245338153ded5b30d,18,2022-02-12_17h51.08.653,lexical_decision_task_DD_L3,2021.2.3,MacIntel,58.82352941,,,,,,,,,,,1.019,1,,,,,,,,,,,,,,,,,,,,,,,,0.006666667,-0.39,0,0,0,,,,,,,DRUMS,C,m,m,./images/DRUMS.png,,,,,,,,,,,,,,,,,,,,,m,1,1.019,,,,,,,,0,115,115,49,1
,,,,,,,,,,,,,,,,,610095d245338153ded5b30d,18,2022-02-12_17h51.08.653,lexical_decision_task_DD_L3,2021.2.3,MacIntel,58.82352941,,,,,,,,,,,0.881,1,,,,,,,,,,,,,,,,,,,,,,,,0.006666667,-0.39,0,0,0,,,,,,,BROOM,LB,z,m,./images/BROOMLB.png,,,,,,,,,,,,,,,,,,,,,z,1,0.881,,,,,,,,0,116,116,162,1
,,,,,,,,,,,,,,,,,610095d245338153ded5b30d,18,2022-02-12_17h51.08.653,lexical_decision_task_DD_L3,2021.2.3,MacIntel,58.82352941,,,,,,,,,,,0.817,1,,,,,,,,,,,,,,,,,,,,,,,,0.006666667,-0.39,0,0,0,,,,,,,FLASK,LB,z,m,./images/FLASKLB.png,,,,,,,,,,,,,,,,,,,,,z,1,0.817,,,,,,,,0,117,117,156,1
,,,,,,,,,,,,,,,,,610095d245338153ded5b30d,18,2022-02-12_17h51.08.653,lexical_decision_task_DD_L3,2021.2.3,MacIntel,58.82352941,,,,,,,,,,,0.736,1,,,,,,,,,,,,,,,,,,,,,,,,0.006666667,-0.39,0,0,0,,,,,,,STOVE,HB,z,m,./images/STOVEHB.png,,,,,,,,,,,,,,,,,,,,,z,1,0.736,,,,,,,,0,118,118,86,1
,,,,,,,,,,,,,,,,,610095d245338153ded5b30d,18,2022-02-12_17h51.08.653,lexical_decision_task_DD_L3,2021.2.3,MacIntel,58.82352941,,,,,,,,,,,0.564,1,,,,,,,,,,,,,,,,,,,,,,,,0.006666667,-0.39,0,0,0,,,,,,,CHAIN,LB,z,m,./images/CHAINLB.png,,,,,,,,,,,,,,,,,,,,,z,1,0.564,,,,,,,,0,119,119,126,1
,,,,,,,,,,,,,,,,,610095d245338153ded5b30d,18,2022-02-12_17h51.08.653,lexical_decision_task_DD_L3,2021.2.3,MacIntel,58.82352941,,,,,,,,,,,0.734,1,,,,,,,,,,,,,,,,,,,,,,,,0.006666667,-0.39,0,0,0,,,,,,,MIDGET,C,z,m,./images/MIDGET.png,,,,,,,,,,,,,,,,,,,,,z,1,0.734,,,,,,,,0,120,120,160,1
,,,,,,,,,,,,,,,,,610095d245338153ded5b30d,18,2022-02-12_17h51.08.653,lexical_decision_task_DD_L3,2021.2.3,MacIntel,58.82352941,,,,,,,,,,,0.565,1,,,,,,,,,,,,,,,,,,,,,,,,0.006666667,-0.39,0,0,0,,,,,,,CHERRY,LB,z,m,./images/CHERRYLB.png,,,,,,,,,,,,,,,,,,,,,z,1,0.565,,,,,,,,0,121,121,138,1
,,,,,,,,,,,,,,,,,610095d245338153ded5b30d,18,2022-02-12_17h51.08.653,lexical_decision_task_DD_L3,2021.2.3,MacIntel,58.82352941,,,,,,,,,,,0.799,0,,,,,,,,,,,,,,,,,,,,,,,,0.006666667,-0.39,0,0,0,,,,,,,ONION,LB,m,m,./images/ONIONLB.png,,,,,,,,,,,,,,,,,,,,,z,0,0.799,,,,,,,,0,122,122,51,1
,,,,,,,,,,,,,,,,,610095d245338153ded5b30d,18,2022-02-12_17h51.08.653,lexical_decision_task_DD_L3,2021.2.3,MacIntel,58.82352941,,,,,,,,,,,0.648,0,,,,,,,,,,,,,,,,,,,,,,,,0.006666667,-0.39,0,0,0,,,,,,,PACKET,HB,m,m,./images/PACKETHB.png,,,,,,,,,,,,,,,,,,,,,z,0,0.648,,,,,,,,0,123,123,56,1
,,,,,,,,,,,,,,,,,610095d245338153ded5b30d,18,2022-02-12_17h51.08.653,lexical_decision_task_DD_L3,2021.2.3,MacIntel,58.82352941,,,,,,,,,,,0.703,1,,,,,,,,,,,,,,,,,,,,,,,,0.006666667,-0.39,0,0,0,,,,,,,SNAKE,C,z,m,./images/SNAKE.png,,,,,,,,,,,,,,,,,,,,,z,1,0.703,,,,,,,,0,124,124,124,1
,,,,,,,,,,,,,,,,,610095d245338153ded5b30d,18,2022-02-12_17h51.08.653,lexical_decision_task_DD_L3,2021.2.3,MacIntel,58.82352941,,,,,,,,,,,0.552,1,,,,,,,,,,,,,,,,,,,,,,,,0.006666667,-0.39,0,0,0,space,,,,,,ARROW,LB,z,m,./images/ARROWLB.png,6.588,,,,,,,,,,,,,,,,,,,,z,1,0.552,,,,,,,,0,125,125,153,1
,,,,,,,,,,,,,,,,,610095d245338153ded5b30d,18,2022-02-12_17h51.08.653,lexical_decision_task_DD_L3,2021.2.3,MacIntel,58.82352941,,,,,,,,,,,0.705,0,,,,,,,,,,,,,,,,,,,,,,,,0.006666667,-0.39,0,0,0,,,,,,,SQUARE,LB,m,m,./images/SQUARELB.png,,,,,,,,,,,,,,,,,,,,,z,0,0.705,,,,,,,,0,126,126,6,1
,,,,,,,,,,,,,,,,,610095d245338153ded5b30d,18,2022-02-12_17h51.08.653,lexical_decision_task_DD_L3,2021.2.3,MacIntel,58.82352941,,,,,,,,,,,0.569,0,,,,,,,,,,,,,,,,,,,,,,,,0.006666667,-0.39,0,0,0,,,,,,,BURIAL,HB,m,m,./images/BURIALHB.png,,,,,,,,,,,,,,,,,,,,,z,0,0.569,,,,,,,,0,127,127,59,1
,,,,,,,,,,,,,,,,,610095d245338153ded5b30d,18,2022-02-12_17h51.08.653,lexical_decision_task_DD_L3,2021.2.3,MacIntel,58.82352941,,,,,,,,,,,0.549,1,,,,,,,,,,,,,,,,,,,,,,,,0.006666667,-0.39,0,0,0,,,,,,,HEATER,HB,z,m,./images/HEATERHB.png,,,,,,,,,,,,,,,,,,,,,z,1,0.549,,,,,,,,0,128,128,140,1
,,,,,,,,,,,,,,,,,610095d245338153ded5b30d,18,2022-02-12_17h51.08.653,lexical_decision_task_DD_L3,2021.2.3,MacIntel,58.82352941,,,,,,,,,,,0.568,0,,,,,,,,,,,,,,,,,,,,,,,,0.006666667,-0.39,0,0,0,,,,,,,TOMATO,LB,m,m,./images/TOMATOLB.png,,,,,,,,,,,,,,,,,,,,,z,0,0.568,,,,,,,,0,129,129,0,1
,,,,,,,,,,,,,,,,,610095d245338153ded5b30d,18,2022-02-12_17h51.08.653,lexical_decision_task_DD_L3,2021.2.3,MacIntel,58.82352941,,,,,,,,,,,0.534,1,,,,,,,,,,,,,,,,,,,,,,,,0.006666667,-0.39,0,0,0,,,,,,,FERRY,LB,z,m,./images/FERRYLB.png,,,,,,,,,,,,,,,,,,,,,z,1,0.534,,,,,,,,0,130,130,141,1
,,,,,,,,,,,,,,,,,610095d245338153ded5b30d,18,2022-02-12_17h51.08.653,lexical_decision_task_DD_L3,2021.2.3,MacIntel,58.82352941,,,,,,,,,,,0.689,1,,,,,,,,,,,,,,,,,,,,,,,,0.006666667,-0.39,0,0,0,,,,,,,SAUCE,LB,z,m,./images/SAUCELB.png,,,,,,,,,,,,,,,,,,,,,z,1,0.689,,,,,,,,0,131,131,135,1
,,,,,,,,,,,,,,,,,610095d245338153ded5b30d,18,2022-02-12_17h51.08.653,lexical_decision_task_DD_L3,2021.2.3,MacIntel,58.82352941,,,,,,,,,,,0.803,1,,,,,,,,,,,,,,,,,,,,,,,,0.006666667,-0.39,0,0,0,,,,,,,BANNER,C,m,m,./images/BANNER.png,,,,,,,,,,,,,,,,,,,,,m,1,0.803,,,,,,,,0,132,132,52,1
,,,,,,,,,,,,,,,,,610095d245338153ded5b30d,18,2022-02-12_17h51.08.653,lexical_decision_task_DD_L3,2021.2.3,MacIntel,58.82352941,,,,,,,,,,,0.603,1,,,,,,,,,,,,,,,,,,,,,,,,0.006666667,-0.39,0,0,0,,,,,,,CLIFF,HB,z,m,./images/CLIFFHB.png,,,,,,,,,,,,,,,,,,,,,z,1,0.603,,,,,,,,0,133,133,92,1
