key_resp.keys,key_resp.rt,instr_done_touch.x,instr_done_touch.y,instr_done_touch.leftButton,instr_done_touch.midButton,instr_done_touch.rightButton,instruction_pages.thisRepN,instruction_pages.thisTrialN,instruction_pages.thisN,instruction_pages.thisIndex,instruction_pages.ran,pageN,phase,instruct_text,has_image,instruct_image,participant,age,date,expName,psychopyVersion,OS,frameRate,response.keys,response.corr,response.rt,touch_resp.x,touch_resp.y,touch_resp.leftButton,touch_resp.midButton,touch_resp.rightButton,touch_resp.time,touch_resp.clicked_name,rt,corr,practrials.thisRepN,practrials.thisTrialN,practrials.thisN,practrials.thisIndex,practrials.ran,TrialID,Target,corrAns,end_of_practice_trials_pages.thisRepN,end_of_practice_trials_pages.thisTrialN,end_of_practice_trials_pages.thisN,end_of_practice_trials_pages.thisIndex,end_of_practice_trials_pages.ran,key_resp_2.keys,key_resp_2.corr,key_resp_2.rt,targ_click.x,targ_click.y,targ_click.leftButton,targ_click.midButton,targ_click.rightButton,targ_click.time,targ_click.clicked_name,break_done_touch.x,break_done_touch.y,break_done_touch.leftButton,break_done_touch.midButton,break_done_touch.rightButton,break_done_keyboard.keys,maintrials.thisRepN,maintrials.thisTrialN,maintrials.thisN,maintrials.thisIndex,maintrials.ran,string,blur,study,lex,stim_path,break_done_keyboard.rt,mouse_2.x,mouse_2.y,mouse_2.leftButton,mouse_2.midButton,mouse_2.rightButton,mouse_2.clicked_name,slider.response,slider.rt,trials.thisRepN,trials.thisTrialN,trials.thisN,trials.thisIndex,trials.ran,instr_done_touch.clicked_name,test_instructions.thisRepN,test_instructions.thisTrialN,test_instructions.thisN,test_instructions.thisIndex,test_instructions.ran,key_resp_3.keys,key_resp_3.corr,key_resp_3.rt,test_click.x,test_click.y,test_click.leftButton,test_click.midButton,test_click.rightButton,test_click.time,test_click.clicked_name,test_phase.thisRepN,test_phase.thisTrialN,test_phase.thisN,test_phase.thisIndex,test_phase.ran
space,12.4173,0.077771225,-0.39824295,0,0,0,0,0,0,0,1,1,instructions,"INSTRUCTIONS
At the start of each trial, look at the plus sign  (+) in the center of the screen.  This tells you that a trial is about to begin and where to look. Second, the plus sign will disappear and a string of letters will appear. Your task is to determine if the string of letters is a word or not. If the item is a word press the M key (on keyboard)  or touch the word button (phone/tablet).  If the item is not a word,  press the  Z key (on keyboard)  or touch the nonword button (on phone/tablet). 
Press the space bar or touch  continue.",0,,6102c2e209da1c42ee444f22,31,2022-02-12_14h37.04.227,lexical_decision_task_DD_L2,2021.2.3,MacIntel,59.97361161,,,,,,,,,,,,,,,,,,,,,,,,,,,,,,,,,,,,,,,,,,,,,,,,,,,,,,,,,,,,,,,,,,,,,,,,,,,,,,,,,,,,,,
space,5.4837,0.56474823,-0.315992966,0,0,0,0,1,1,1,1,2,instructions,"If your device has a keyboard, press the 'Z' key for nonwords and the 'M' key for words.





Press the space bar or touch the button below to continue.",0,keyboard-example.gif,6102c2e209da1c42ee444f22,31,2022-02-12_14h37.04.227,lexical_decision_task_DD_L2,2021.2.3,MacIntel,59.97361161,,,,,,,,,,,,,,,,,,,,,,,,,,,,,,,,,,,,,,,,,,,,,,,,,,,,,,,,,,,,,,,,,,,,,,,,,,,,,,,,,,,,,,
space,1.2569,0.56474823,-0.315992966,0,0,0,0,2,2,2,1,3,instructions,"If you are using a touchscreen only device, use the buttons on the screen. Do not use the mouse.





Press the space bar or touch the button below to continue.",0,touchscreen-example.gif,6102c2e209da1c42ee444f22,31,2022-02-12_14h37.04.227,lexical_decision_task_DD_L2,2021.2.3,MacIntel,59.97361161,,,,,,,,,,,,,,,,,,,,,,,,,,,,,,,,,,,,,,,,,,,,,,,,,,,,,,,,,,,,,,,,,,,,,,,,,,,,,,,,,,,,,,
space,5.8148,0.56474823,-0.315992966,0,0,0,0,3,3,3,1,4,instructions,"It is very important that you respond as quickly and accurately as possible, as each letter string will only be on the screen for two seconds. If you do not respond within this time, the message 'Too slow!' will be displayed and the experiment will progress to the next letter string. The first 20 trials will be practice trials and you will receive feedback on your answers. 

Press the space bar or touch the button below to start the practice trials.",0,,6102c2e209da1c42ee444f22,31,2022-02-12_14h37.04.227,lexical_decision_task_DD_L2,2021.2.3,MacIntel,59.97361161,,,,,,,,,,,,,,,,,,,,,,,,,,,,,,,,,,,,,,,,,,,,,,,,,,,,,,,,,,,,,,,,,,,,,,,,,,,,,,,,,,,,,,
,,,,,,,,,,,,,,,,,6102c2e209da1c42ee444f22,31,2022-02-12_14h37.04.227,lexical_decision_task_DD_L2,2021.2.3,MacIntel,59.97361161,z,1,0.682,,,,,,,,0.682,1,0,0,0,9,1,1001,FARINY,z,,,,,,,,,,,,,,,,,,,,,,,,,,,,,,,,,,,,,,,,,,,,,,,,,,,,,,,,,,,,,,,,,,
,,,,,,,,,,,,,,,,,6102c2e209da1c42ee444f22,31,2022-02-12_14h37.04.227,lexical_decision_task_DD_L2,2021.2.3,MacIntel,59.97361161,z,1,0.5311,,,,,,,,0.5311,1,0,1,1,13,1,1001,ROUPET,z,,,,,,,,,,,,,,,,,,,,,,,,,,,,,,,,,,,,,,,,,,,,,,,,,,,,,,,,,,,,,,,,,,
,,,,,,,,,,,,,,,,,6102c2e209da1c42ee444f22,31,2022-02-12_14h37.04.227,lexical_decision_task_DD_L2,2021.2.3,MacIntel,59.97361161,m,1,0.5133,,,,,,,,0.5133,1,0,2,2,6,1,1001,ZOMBIE,m,,,,,,,,,,,,,,,,,,,,,,,,,,,,,,,,,,,,,,,,,,,,,,,,,,,,,,,,,,,,,,,,,,
,,,,,,,,,,,,,,,,,6102c2e209da1c42ee444f22,31,2022-02-12_14h37.04.227,lexical_decision_task_DD_L2,2021.2.3,MacIntel,59.97361161,z,1,0.7288,,,,,,,,0.7288,1,0,3,3,10,1,1001,INLADE,z,,,,,,,,,,,,,,,,,,,,,,,,,,,,,,,,,,,,,,,,,,,,,,,,,,,,,,,,,,,,,,,,,,
,,,,,,,,,,,,,,,,,6102c2e209da1c42ee444f22,31,2022-02-12_14h37.04.227,lexical_decision_task_DD_L2,2021.2.3,MacIntel,59.97361161,z,1,0.4985,,,,,,,,0.4985,1,0,4,4,8,1,1001,ASLERT,z,,,,,,,,,,,,,,,,,,,,,,,,,,,,,,,,,,,,,,,,,,,,,,,,,,,,,,,,,,,,,,,,,,
,,,,,,,,,,,,,,,,,6102c2e209da1c42ee444f22,31,2022-02-12_14h37.04.227,lexical_decision_task_DD_L2,2021.2.3,MacIntel,59.97361161,m,1,0.4493,,,,,,,,0.4493,1,0,5,5,7,1,1001,VOLUME,m,,,,,,,,,,,,,,,,,,,,,,,,,,,,,,,,,,,,,,,,,,,,,,,,,,,,,,,,,,,,,,,,,,
,,,,,,,,,,,,,,,,,6102c2e209da1c42ee444f22,31,2022-02-12_14h37.04.227,lexical_decision_task_DD_L2,2021.2.3,MacIntel,59.97361161,m,1,0.5497,,,,,,,,0.5497,1,0,6,6,1,1,1001,ADJUST,m,,,,,,,,,,,,,,,,,,,,,,,,,,,,,,,,,,,,,,,,,,,,,,,,,,,,,,,,,,,,,,,,,,
,,,,,,,,,,,,,,,,,6102c2e209da1c42ee444f22,31,2022-02-12_14h37.04.227,lexical_decision_task_DD_L2,2021.2.3,MacIntel,59.97361161,m,1,0.5155,,,,,,,,0.5155,1,0,7,7,2,1,1001,ALMOND,m,,,,,,,,,,,,,,,,,,,,,,,,,,,,,,,,,,,,,,,,,,,,,,,,,,,,,,,,,,,,,,,,,,
,,,,,,,,,,,,,,,,,6102c2e209da1c42ee444f22,31,2022-02-12_14h37.04.227,lexical_decision_task_DD_L2,2021.2.3,MacIntel,59.97361161,z,1,0.5489,,,,,,,,0.5489,1,0,8,8,11,1,1001,RASHET,z,,,,,,,,,,,,,,,,,,,,,,,,,,,,,,,,,,,,,,,,,,,,,,,,,,,,,,,,,,,,,,,,,,
,,,,,,,,,,,,,,,,,6102c2e209da1c42ee444f22,31,2022-02-12_14h37.04.227,lexical_decision_task_DD_L2,2021.2.3,MacIntel,59.97361161,z,1,0.4812,,,,,,,,0.4812,1,0,9,9,14,1,1001,THRALE,z,,,,,,,,,,,,,,,,,,,,,,,,,,,,,,,,,,,,,,,,,,,,,,,,,,,,,,,,,,,,,,,,,,
,,,,,,,,,,,,,,,,,6102c2e209da1c42ee444f22,31,2022-02-12_14h37.04.227,lexical_decision_task_DD_L2,2021.2.3,MacIntel,59.97361161,m,1,0.5872,,,,,,,,0.5872,1,0,10,10,4,1,1001,SQUEAK,m,,,,,,,,,,,,,,,,,,,,,,,,,,,,,,,,,,,,,,,,,,,,,,,,,,,,,,,,,,,,,,,,,,
,,,,,,,,,,,,,,,,,6102c2e209da1c42ee444f22,31,2022-02-12_14h37.04.227,lexical_decision_task_DD_L2,2021.2.3,MacIntel,59.97361161,m,1,0.5816,,,,,,,,0.5816,1,0,11,11,0,1,1001,UTOPIA,m,,,,,,,,,,,,,,,,,,,,,,,,,,,,,,,,,,,,,,,,,,,,,,,,,,,,,,,,,,,,,,,,,,
,,,,,,,,,,,,,,,,,6102c2e209da1c42ee444f22,31,2022-02-12_14h37.04.227,lexical_decision_task_DD_L2,2021.2.3,MacIntel,59.97361161,z,1,0.5983,,,,,,,,0.5983,1,0,12,12,12,1,1001,SPRINY,z,,,,,,,,,,,,,,,,,,,,,,,,,,,,,,,,,,,,,,,,,,,,,,,,,,,,,,,,,,,,,,,,,,
,,,,,,,,,,,,,,,,,6102c2e209da1c42ee444f22,31,2022-02-12_14h37.04.227,lexical_decision_task_DD_L2,2021.2.3,MacIntel,59.97361161,m,1,0.6306,,,,,,,,0.6306,1,0,13,13,3,1,1001,MATRIX,m,,,,,,,,,,,,,,,,,,,,,,,,,,,,,,,,,,,,,,,,,,,,,,,,,,,,,,,,,,,,,,,,,,
,,,,,,,,,,,,,,,,,6102c2e209da1c42ee444f22,31,2022-02-12_14h37.04.227,lexical_decision_task_DD_L2,2021.2.3,MacIntel,59.97361161,z,1,0.5855,,,,,,,,0.5855,1,0,14,14,15,1,1001,WHAISE,z,,,,,,,,,,,,,,,,,,,,,,,,,,,,,,,,,,,,,,,,,,,,,,,,,,,,,,,,,,,,,,,,,,
,,,,,,,,,,,,,,,,,6102c2e209da1c42ee444f22,31,2022-02-12_14h37.04.227,lexical_decision_task_DD_L2,2021.2.3,MacIntel,59.97361161,m,1,0.5821,,,,,,,,0.5821,1,0,15,15,5,1,1001,OBTAIN,m,,,,,,,,,,,,,,,,,,,,,,,,,,,,,,,,,,,,,,,,,,,,,,,,,,,,,,,,,,,,,,,,,,
space,4.5096,0.56474823,-0.315992966,0,0,0,,,,,,1,end_of_practice,"You have completed the practice trials. During the experimental trials, you will not receive feedback. 
Before you begin, please ensure that you are in a comfortable and quiet location and will not be disturbed for about 15 minutes, as we cannot use your data if you do not complete all the trials. 
 When you are ready to start the experimental trials, please press space or touch the button below.",,,6102c2e209da1c42ee444f22,31,2022-02-12_14h37.04.227,lexical_decision_task_DD_L2,2021.2.3,MacIntel,59.97361161,,,,,,,,,,,,,,,,,,,,,0,0,0,0,1,,,,,,,,,,,,,,,,,,,,,,,,,,,,,,,,,,,,,,,,,,,,,,,,,,,,,,,,,,,,,
,,,,,,,,,,,,,,,,,6102c2e209da1c42ee444f22,31,2022-02-12_14h37.04.227,lexical_decision_task_DD_L2,2021.2.3,MacIntel,59.97361161,,,,,,,,,,,1.2763,1,,,,,,,,,,,,,,z,1,1.2763,,,,,,,,0.56474823,-0.315992966,0,0,0,,0,0,0,133,1,POWDY,HB,old,z,./images/POWDYHB.png,,,,,,,,,,,,,,,,,,,,,,,,,,,,,,,,,,,
,,,,,,,,,,,,,,,,,6102c2e209da1c42ee444f22,31,2022-02-12_14h37.04.227,lexical_decision_task_DD_L2,2021.2.3,MacIntel,59.97361161,,,,,,,,,,,0.7271,1,,,,,,,,,,,,,,z,1,0.7271,,,,,,,,0.56474823,-0.315992966,0,0,0,,0,1,1,105,1,MOKER,C,old,z,./images/MOKER.png,,,,,,,,,,,,,,,,,,,,,,,,,,,,,,,,,,,
,,,,,,,,,,,,,,,,,6102c2e209da1c42ee444f22,31,2022-02-12_14h37.04.227,lexical_decision_task_DD_L2,2021.2.3,MacIntel,59.97361161,,,,,,,,,,,0.6287,1,,,,,,,,,,,,,,m,1,0.6287,,,,,,,,0.56474823,-0.315992966,0,0,0,,0,2,2,55,1,MUFFIN,LB,old,m,./images/MUFFINLB.png,,,,,,,,,,,,,,,,,,,,,,,,,,,,,,,,,,,
,,,,,,,,,,,,,,,,,6102c2e209da1c42ee444f22,31,2022-02-12_14h37.04.227,lexical_decision_task_DD_L2,2021.2.3,MacIntel,59.97361161,,,,,,,,,,,0.5173,1,,,,,,,,,,,,,,m,1,0.5173,,,,,,,,0.56474823,-0.315992966,0,0,0,,0,3,3,17,1,SKIING,C,old,m,./images/SKIING.png,,,,,,,,,,,,,,,,,,,,,,,,,,,,,,,,,,,
,,,,,,,,,,,,,,,,,6102c2e209da1c42ee444f22,31,2022-02-12_14h37.04.227,lexical_decision_task_DD_L2,2021.2.3,MacIntel,59.97361161,,,,,,,,,,,0.4809,1,,,,,,,,,,,,,,z,1,0.4809,,,,,,,,0.56474823,-0.315992966,0,0,0,,0,4,4,151,1,TINKY,HB,old,z,./images/TINKYHB.png,,,,,,,,,,,,,,,,,,,,,,,,,,,,,,,,,,,
,,,,,,,,,,,,,,,,,6102c2e209da1c42ee444f22,31,2022-02-12_14h37.04.227,lexical_decision_task_DD_L2,2021.2.3,MacIntel,59.97361161,,,,,,,,,,,0.5147,1,,,,,,,,,,,,,,m,1,0.5147,,,,,,,,0.56474823,-0.315992966,0,0,0,,0,5,5,67,1,SAILOR,LB,old,m,./images/SAILORLB.png,,,,,,,,,,,,,,,,,,,,,,,,,,,,,,,,,,,
,,,,,,,,,,,,,,,,,6102c2e209da1c42ee444f22,31,2022-02-12_14h37.04.227,lexical_decision_task_DD_L2,2021.2.3,MacIntel,59.97361161,,,,,,,,,,,0.5953,1,,,,,,,,,,,,,,z,1,0.5953,,,,,,,,0.56474823,-0.315992966,0,0,0,,0,6,6,116,1,BALGY,LB,old,z,./images/BALGYLB.png,,,,,,,,,,,,,,,,,,,,,,,,,,,,,,,,,,,
,,,,,,,,,,,,,,,,,6102c2e209da1c42ee444f22,31,2022-02-12_14h37.04.227,lexical_decision_task_DD_L2,2021.2.3,MacIntel,59.97361161,,,,,,,,,,,0.6487,1,,,,,,,,,,,,,,z,1,0.6487,,,,,,,,0.56474823,-0.315992966,0,0,0,,0,7,7,93,1,SMONE,C,old,z,./images/SMONE.png,,,,,,,,,,,,,,,,,,,,,,,,,,,,,,,,,,,
,,,,,,,,,,,,,,,,,6102c2e209da1c42ee444f22,31,2022-02-12_14h37.04.227,lexical_decision_task_DD_L2,2021.2.3,MacIntel,59.97361161,,,,,,,,,,,0.6487,1,,,,,,,,,,,,,,m,1,0.6487,,,,,,,,0.56474823,-0.315992966,0,0,0,,0,8,8,12,1,SHORE,HB,old,m,./images/SHOREHB.png,,,,,,,,,,,,,,,,,,,,,,,,,,,,,,,,,,,
,,,,,,,,,,,,,,,,,6102c2e209da1c42ee444f22,31,2022-02-12_14h37.04.227,lexical_decision_task_DD_L2,2021.2.3,MacIntel,59.97361161,,,,,,,,,,,0.6649,0,,,,,,,,,,,,,,m,0,0.6649,,,,,,,,0.56474823,-0.315992966,0,0,0,,0,9,9,85,1,CHULK,HB,old,z,./images/CHULKHB.png,,,,,,,,,,,,,,,,,,,,,,,,,,,,,,,,,,,
,,,,,,,,,,,,,,,,,6102c2e209da1c42ee444f22,31,2022-02-12_14h37.04.227,lexical_decision_task_DD_L2,2021.2.3,MacIntel,59.97361161,,,,,,,,,,,0.5985,1,,,,,,,,,,,,,,z,1,0.5985,,,,,,,,0.56474823,-0.315992966,0,0,0,,0,10,10,126,1,GUELS,C,old,z,./images/GUELS.png,,,,,,,,,,,,,,,,,,,,,,,,,,,,,,,,,,,
,,,,,,,,,,,,,,,,,6102c2e209da1c42ee444f22,31,2022-02-12_14h37.04.227,lexical_decision_task_DD_L2,2021.2.3,MacIntel,59.97361161,,,,,,,,,,,0.8311,0,,,,,,,,,,,,,,z,0,0.8311,,,,,,,,0.56474823,-0.315992966,0,0,0,,0,11,11,33,1,MAGGOT,HB,old,m,./images/MAGGOTHB.png,,,,,,,,,,,,,,,,,,,,,,,,,,,,,,,,,,,
,,,,,,,,,,,,,,,,,6102c2e209da1c42ee444f22,31,2022-02-12_14h37.04.227,lexical_decision_task_DD_L2,2021.2.3,MacIntel,59.97361161,,,,,,,,,,,0.9861,1,,,,,,,,,,,,,,z,1,0.9861,,,,,,,,0.56474823,-0.315992966,0,0,0,,0,12,12,154,1,THINT,HB,old,z,./images/THINTHB.png,,,,,,,,,,,,,,,,,,,,,,,,,,,,,,,,,,,
,,,,,,,,,,,,,,,,,6102c2e209da1c42ee444f22,31,2022-02-12_14h37.04.227,lexical_decision_task_DD_L2,2021.2.3,MacIntel,59.97361161,,,,,,,,,,,0.5452,1,,,,,,,,,,,,,,m,1,0.5452,,,,,,,,0.56474823,-0.315992966,0,0,0,,0,13,13,7,1,PAINT,LB,old,m,./images/PAINTLB.png,,,,,,,,,,,,,,,,,,,,,,,,,,,,,,,,,,,
,,,,,,,,,,,,,,,,,6102c2e209da1c42ee444f22,31,2022-02-12_14h37.04.227,lexical_decision_task_DD_L2,2021.2.3,MacIntel,59.97361161,,,,,,,,,,,0.5312,1,,,,,,,,,,,,,,m,1,0.5312,,,,,,,,0.56474823,-0.315992966,0,0,0,,0,14,14,22,1,MELON,LB,old,m,./images/MELONLB.png,,,,,,,,,,,,,,,,,,,,,,,,,,,,,,,,,,,
,,,,,,,,,,,,,,,,,6102c2e209da1c42ee444f22,31,2022-02-12_14h37.04.227,lexical_decision_task_DD_L2,2021.2.3,MacIntel,59.97361161,,,,,,,,,,,0.7523,1,,,,,,,,,,,,,,z,1,0.7523,,,,,,,,0.56474823,-0.315992966,0,0,0,,0,15,15,130,1,CRILL,HB,old,z,./images/CRILLHB.png,,,,,,,,,,,,,,,,,,,,,,,,,,,,,,,,,,,
,,,,,,,,,,,,,,,,,6102c2e209da1c42ee444f22,31,2022-02-12_14h37.04.227,lexical_decision_task_DD_L2,2021.2.3,MacIntel,59.97361161,,,,,,,,,,,0.5293,1,,,,,,,,,,,,,,m,1,0.5293,,,,,,,,0.56474823,-0.315992966,0,0,0,,0,16,16,61,1,CANDLE,LB,old,m,./images/CANDLELB.png,,,,,,,,,,,,,,,,,,,,,,,,,,,,,,,,,,,
,,,,,,,,,,,,,,,,,6102c2e209da1c42ee444f22,31,2022-02-12_14h37.04.227,lexical_decision_task_DD_L2,2021.2.3,MacIntel,59.97361161,,,,,,,,,,,0.5495,1,,,,,,,,,,,,,,z,1,0.5495,,,,,,,,0.56474823,-0.315992966,0,0,0,,0,17,17,143,1,MONGS,LB,old,z,./images/MONGSLB.png,,,,,,,,,,,,,,,,,,,,,,,,,,,,,,,,,,,
,,,,,,,,,,,,,,,,,6102c2e209da1c42ee444f22,31,2022-02-12_14h37.04.227,lexical_decision_task_DD_L2,2021.2.3,MacIntel,59.97361161,,,,,,,,,,,0.5961,1,,,,,,,,,,,,,,z,1,0.5961,,,,,,,,0.56474823,-0.315992966,0,0,0,,0,18,18,114,1,RIKES,C,old,z,./images/RIKES.png,,,,,,,,,,,,,,,,,,,,,,,,,,,,,,,,,,,
,,,,,,,,,,,,,,,,,6102c2e209da1c42ee444f22,31,2022-02-12_14h37.04.227,lexical_decision_task_DD_L2,2021.2.3,MacIntel,59.97361161,,,,,,,,,,,0.5475,1,,,,,,,,,,,,,,m,1,0.5475,,,,,,,,0.56474823,-0.315992966,0,0,0,,0,19,19,35,1,PEACH,C,old,m,./images/PEACH.png,,,,,,,,,,,,,,,,,,,,,,,,,,,,,,,,,,,
,,,,,,,,,,,,,,,,,6102c2e209da1c42ee444f22,31,2022-02-12_14h37.04.227,lexical_decision_task_DD_L2,2021.2.3,MacIntel,59.97361161,,,,,,,,,,,0.6296,1,,,,,,,,,,,,,,m,1,0.6296,,,,,,,,0.56474823,-0.315992966,0,0,0,,0,20,20,50,1,MALLET,C,old,m,./images/MALLET.png,,,,,,,,,,,,,,,,,,,,,,,,,,,,,,,,,,,
,,,,,,,,,,,,,,,,,6102c2e209da1c42ee444f22,31,2022-02-12_14h37.04.227,lexical_decision_task_DD_L2,2021.2.3,MacIntel,59.97361161,,,,,,,,,,,0.5297,1,,,,,,,,,,,,,,z,1,0.5297,,,,,,,,0.56474823,-0.315992966,0,0,0,,0,21,21,162,1,LEICH,C,old,z,./images/LEICH.png,,,,,,,,,,,,,,,,,,,,,,,,,,,,,,,,,,,
,,,,,,,,,,,,,,,,,6102c2e209da1c42ee444f22,31,2022-02-12_14h37.04.227,lexical_decision_task_DD_L2,2021.2.3,MacIntel,59.97361161,,,,,,,,,,,0.6308,1,,,,,,,,,,,,,,z,1,0.6308,,,,,,,,0.56474823,-0.315992966,0,0,0,,0,22,22,137,1,JOOST,LB,old,z,./images/JOOSTLB.png,,,,,,,,,,,,,,,,,,,,,,,,,,,,,,,,,,,
,,,,,,,,,,,,,,,,,6102c2e209da1c42ee444f22,31,2022-02-12_14h37.04.227,lexical_decision_task_DD_L2,2021.2.3,MacIntel,59.97361161,,,,,,,,,,,0.6138,1,,,,,,,,,,,,,,m,1,0.6138,,,,,,,,0.56474823,-0.315992966,0,0,0,,0,23,23,72,1,NOOSE,HB,old,m,./images/NOOSEHB.png,,,,,,,,,,,,,,,,,,,,,,,,,,,,,,,,,,,
,,,,,,,,,,,,,,,,,6102c2e209da1c42ee444f22,31,2022-02-12_14h37.04.227,lexical_decision_task_DD_L2,2021.2.3,MacIntel,59.97361161,,,,,,,,,,,0.75,1,,,,,,,,,,,,,,z,1,0.75,,,,,,,,0.56474823,-0.315992966,0,0,0,,0,24,24,100,1,DRIBS,HB,old,z,./images/DRIBSHB.png,,,,,,,,,,,,,,,,,,,,,,,,,,,,,,,,,,,
,,,,,,,,,,,,,,,,,6102c2e209da1c42ee444f22,31,2022-02-12_14h37.04.227,lexical_decision_task_DD_L2,2021.2.3,MacIntel,59.97361161,,,,,,,,,,,0.6142,1,,,,,,,,,,,,,,m,1,0.6142,,,,,,,,0.56474823,-0.315992966,0,0,0,,0,25,25,39,1,SHELF,HB,old,m,./images/SHELFHB.png,,,,,,,,,,,,,,,,,,,,,,,,,,,,,,,,,,,
,,,,,,,,,,,,,,,,,6102c2e209da1c42ee444f22,31,2022-02-12_14h37.04.227,lexical_decision_task_DD_L2,2021.2.3,MacIntel,59.97361161,,,,,,,,,,,0.5969,1,,,,,,,,,,,,,,m,1,0.5969,,,,,,,,0.56474823,-0.315992966,0,0,0,,0,26,26,32,1,BARREL,C,old,m,./images/BARREL.png,,,,,,,,,,,,,,,,,,,,,,,,,,,,,,,,,,,
,,,,,,,,,,,,,,,,,6102c2e209da1c42ee444f22,31,2022-02-12_14h37.04.227,lexical_decision_task_DD_L2,2021.2.3,MacIntel,59.97361161,,,,,,,,,,,0.771,1,,,,,,,,,,,,,,m,1,0.771,,,,,,,,0.56474823,-0.315992966,0,0,0,,0,27,27,43,1,MOSQUE,LB,old,m,./images/MOSQUELB.png,,,,,,,,,,,,,,,,,,,,,,,,,,,,,,,,,,,
,,,,,,,,,,,,,,,,,6102c2e209da1c42ee444f22,31,2022-02-12_14h37.04.227,lexical_decision_task_DD_L2,2021.2.3,MacIntel,59.97361161,,,,,,,,,,,0.8527,1,,,,,,,,,,,,,,z,1,0.8527,,,,,,,,0.56474823,-0.315992966,0,0,0,,0,28,28,112,1,MYING,HB,old,z,./images/MYINGHB.png,,,,,,,,,,,,,,,,,,,,,,,,,,,,,,,,,,,
,,,,,,,,,,,,,,,,,6102c2e209da1c42ee444f22,31,2022-02-12_14h37.04.227,lexical_decision_task_DD_L2,2021.2.3,MacIntel,59.97361161,,,,,,,,,,,0.53,1,,,,,,,,,,,,,,m,1,0.53,,,,,,,,0.56474823,-0.315992966,0,0,0,,0,29,29,49,1,DRUMS,LB,old,m,./images/DRUMSLB.png,,,,,,,,,,,,,,,,,,,,,,,,,,,,,,,,,,,
,,,,,,,,,,,,,,,,,6102c2e209da1c42ee444f22,31,2022-02-12_14h37.04.227,lexical_decision_task_DD_L2,2021.2.3,MacIntel,59.97361161,,,,,,,,,,,0.6018,1,,,,,,,,,,,,,,z,1,0.6018,,,,,,,,0.56474823,-0.315992966,0,0,0,,0,30,30,118,1,BAVEL,HB,old,z,./images/BAVELHB.png,,,,,,,,,,,,,,,,,,,,,,,,,,,,,,,,,,,
,,,,,,,,,,,,,,,,,6102c2e209da1c42ee444f22,31,2022-02-12_14h37.04.227,lexical_decision_task_DD_L2,2021.2.3,MacIntel,59.97361161,,,,,,,,,,,0.6876,1,,,,,,,,,,,,,,m,1,0.6876,,,,,,,,0.56474823,-0.315992966,0,0,0,,0,31,31,78,1,LITTER,HB,old,m,./images/LITTERHB.png,,,,,,,,,,,,,,,,,,,,,,,,,,,,,,,,,,,
,,,,,,,,,,,,,,,,,6102c2e209da1c42ee444f22,31,2022-02-12_14h37.04.227,lexical_decision_task_DD_L2,2021.2.3,MacIntel,59.97361161,,,,,,,,,,,0.5117,1,,,,,,,,,,,,,,m,1,0.5117,,,,,,,,0.56474823,-0.315992966,0,0,0,,0,32,32,41,1,STRING,C,old,m,./images/STRING.png,,,,,,,,,,,,,,,,,,,,,,,,,,,,,,,,,,,
,,,,,,,,,,,,,,,,,6102c2e209da1c42ee444f22,31,2022-02-12_14h37.04.227,lexical_decision_task_DD_L2,2021.2.3,MacIntel,59.97361161,,,,,,,,,,,0.9636,1,,,,,,,,,,,,,,z,1,0.9636,,,,,,,,0.56474823,-0.315992966,0,0,0,,0,33,33,106,1,CLUMS,HB,old,z,./images/CLUMSHB.png,,,,,,,,,,,,,,,,,,,,,,,,,,,,,,,,,,,
,,,,,,,,,,,,,,,,,6102c2e209da1c42ee444f22,31,2022-02-12_14h37.04.227,lexical_decision_task_DD_L2,2021.2.3,MacIntel,59.97361161,,,,,,,,,,,0.6631,1,,,,,,,,,,,,,,z,1,0.6631,,,,,,,,0.56474823,-0.315992966,0,0,0,,0,34,34,167,1,ZONET,LB,old,z,./images/ZONETLB.png,,,,,,,,,,,,,,,,,,,,,,,,,,,,,,,,,,,
,,,,,,,,,,,,,,,,,6102c2e209da1c42ee444f22,31,2022-02-12_14h37.04.227,lexical_decision_task_DD_L2,2021.2.3,MacIntel,59.97361161,,,,,,,,,,,0.5445,1,,,,,,,,,,,,,,m,1,0.5445,,,,,,,,0.56474823,-0.315992966,0,0,0,,0,35,35,51,1,ONION,HB,old,m,./images/ONIONHB.png,,,,,,,,,,,,,,,,,,,,,,,,,,,,,,,,,,,
,,,,,,,,,,,,,,,,,6102c2e209da1c42ee444f22,31,2022-02-12_14h37.04.227,lexical_decision_task_DD_L2,2021.2.3,MacIntel,59.97361161,,,,,,,,,,,0.5507,1,,,,,,,,,,,,,,z,1,0.5507,,,,,,,,0.56474823,-0.315992966,0,0,0,,0,36,36,132,1,SCIFF,C,old,z,./images/SCIFF.png,,,,,,,,,,,,,,,,,,,,,,,,,,,,,,,,,,,
,,,,,,,,,,,,,,,,,6102c2e209da1c42ee444f22,31,2022-02-12_14h37.04.227,lexical_decision_task_DD_L2,2021.2.3,MacIntel,59.97361161,,,,,,,,,,,0.597,1,,,,,,,,,,,,,,z,1,0.597,,,,,,,,0.56474823,-0.315992966,0,0,0,,0,37,37,119,1,PAFER,LB,old,z,./images/PAFERLB.png,,,,,,,,,,,,,,,,,,,,,,,,,,,,,,,,,,,
,,,,,,,,,,,,,,,,,6102c2e209da1c42ee444f22,31,2022-02-12_14h37.04.227,lexical_decision_task_DD_L2,2021.2.3,MacIntel,59.97361161,,,,,,,,,,,0.7274,1,,,,,,,,,,,,,,z,1,0.7274,,,,,,,,0.56474823,-0.315992966,0,0,0,,0,38,38,84,1,HAXES,C,old,z,./images/HAXES.png,,,,,,,,,,,,,,,,,,,,,,,,,,,,,,,,,,,
,,,,,,,,,,,,,,,,,6102c2e209da1c42ee444f22,31,2022-02-12_14h37.04.227,lexical_decision_task_DD_L2,2021.2.3,MacIntel,59.97361161,,,,,,,,,,,1.0683,1,,,,,,,,,,,,,,m,1,1.0683,,,,,,,,0.56474823,-0.315992966,0,0,0,,0,39,39,16,1,PENCE,LB,old,m,./images/PENCELB.png,,,,,,,,,,,,,,,,,,,,,,,,,,,,,,,,,,,
,,,,,,,,,,,,,,,,,6102c2e209da1c42ee444f22,31,2022-02-12_14h37.04.227,lexical_decision_task_DD_L2,2021.2.3,MacIntel,59.97361161,,,,,,,,,,,0.5066,1,,,,,,,,,,,,,,m,1,0.5066,,,,,,,,0.56474823,-0.315992966,0,0,0,,0,40,40,14,1,PICKLE,C,old,m,./images/PICKLE.png,,,,,,,,,,,,,,,,,,,,,,,,,,,,,,,,,,,
,,,,,,,,,,,,,,,,,6102c2e209da1c42ee444f22,31,2022-02-12_14h37.04.227,lexical_decision_task_DD_L2,2021.2.3,MacIntel,59.97361161,,,,,,,,,,,0.5595,1,,,,,,,,,,,,,,z,1,0.5595,,,,,,,,0.56474823,-0.315992966,0,0,0,space,0,41,41,164,1,SGREW,LB,old,z,./images/SGREWLB.png,2.7154,,,,,,,,,,,,,,,,,,,,,,,,,,,,,,,,,,
,,,,,,,,,,,,,,,,,6102c2e209da1c42ee444f22,31,2022-02-12_14h37.04.227,lexical_decision_task_DD_L2,2021.2.3,MacIntel,59.97361161,,,,,,,,,,,0.5864,1,,,,,,,,,,,,,,z,1,0.5864,,,,,,,,0.56474823,-0.315992966,0,0,0,,0,42,42,122,1,BLOOT,LB,old,z,./images/BLOOTLB.png,,,,,,,,,,,,,,,,,,,,,,,,,,,,,,,,,,,
,,,,,,,,,,,,,,,,,6102c2e209da1c42ee444f22,31,2022-02-12_14h37.04.227,lexical_decision_task_DD_L2,2021.2.3,MacIntel,59.97361161,,,,,,,,,,,0.4754,1,,,,,,,,,,,,,,z,1,0.4754,,,,,,,,0.56474823,-0.315992966,0,0,0,,0,43,43,135,1,JOODY,C,old,z,./images/JOODY.png,,,,,,,,,,,,,,,,,,,,,,,,,,,,,,,,,,,
,,,,,,,,,,,,,,,,,6102c2e209da1c42ee444f22,31,2022-02-12_14h37.04.227,lexical_decision_task_DD_L2,2021.2.3,MacIntel,59.97361161,,,,,,,,,,,0.6495,1,,,,,,,,,,,,,,m,1,0.6495,,,,,,,,0.56474823,-0.315992966,0,0,0,,0,44,44,75,1,GRAIN,HB,old,m,./images/GRAINHB.png,,,,,,,,,,,,,,,,,,,,,,,,,,,,,,,,,,,
,,,,,,,,,,,,,,,,,6102c2e209da1c42ee444f22,31,2022-02-12_14h37.04.227,lexical_decision_task_DD_L2,2021.2.3,MacIntel,59.97361161,,,,,,,,,,,0.602,1,,,,,,,,,,,,,,m,1,0.602,,,,,,,,0.56474823,-0.315992966,0,0,0,,0,45,45,25,1,WRIST,LB,old,m,./images/WRISTLB.png,,,,,,,,,,,,,,,,,,,,,,,,,,,,,,,,,,,
,,,,,,,,,,,,,,,,,6102c2e209da1c42ee444f22,31,2022-02-12_14h37.04.227,lexical_decision_task_DD_L2,2021.2.3,MacIntel,59.97361161,,,,,,,,,,,0.6467,1,,,,,,,,,,,,,,m,1,0.6467,,,,,,,,0.56474823,-0.315992966,0,0,0,,0,46,46,79,1,CRUST,LB,old,m,./images/CRUSTLB.png,,,,,,,,,,,,,,,,,,,,,,,,,,,,,,,,,,,
,,,,,,,,,,,,,,,,,6102c2e209da1c42ee444f22,31,2022-02-12_14h37.04.227,lexical_decision_task_DD_L2,2021.2.3,MacIntel,59.97361161,,,,,,,,,,,0.5252,1,,,,,,,,,,,,,,m,1,0.5252,,,,,,,,0.56474823,-0.315992966,0,0,0,,0,47,47,52,1,BANNER,LB,old,m,./images/BANNERLB.png,,,,,,,,,,,,,,,,,,,,,,,,,,,,,,,,,,,
,,,,,,,,,,,,,,,,,6102c2e209da1c42ee444f22,31,2022-02-12_14h37.04.227,lexical_decision_task_DD_L2,2021.2.3,MacIntel,59.97361161,,,,,,,,,,,0.5283,1,,,,,,,,,,,,,,z,1,0.5283,,,,,,,,0.56474823,-0.315992966,0,0,0,,0,48,48,98,1,BAMPS,LB,old,z,./images/BAMPSLB.png,,,,,,,,,,,,,,,,,,,,,,,,,,,,,,,,,,,
,,,,,,,,,,,,,,,,,6102c2e209da1c42ee444f22,31,2022-02-12_14h37.04.227,lexical_decision_task_DD_L2,2021.2.3,MacIntel,59.97361161,,,,,,,,,,,0.5257,1,,,,,,,,,,,,,,z,1,0.5257,,,,,,,,0.56474823,-0.315992966,0,0,0,,0,49,49,96,1,KEAMS,C,old,z,./images/KEAMS.png,,,,,,,,,,,,,,,,,,,,,,,,,,,,,,,,,,,
,,,,,,,,,,,,,,,,,6102c2e209da1c42ee444f22,31,2022-02-12_14h37.04.227,lexical_decision_task_DD_L2,2021.2.3,MacIntel,59.97361161,,,,,,,,,,,0.481,1,,,,,,,,,,,,,,z,1,0.481,,,,,,,,0.56474823,-0.315992966,0,0,0,,0,50,50,153,1,CLUPS,C,old,z,./images/CLUPS.png,,,,,,,,,,,,,,,,,,,,,,,,,,,,,,,,,,,
,,,,,,,,,,,,,,,,,6102c2e209da1c42ee444f22,31,2022-02-12_14h37.04.227,lexical_decision_task_DD_L2,2021.2.3,MacIntel,59.97361161,,,,,,,,,,,0.5629,1,,,,,,,,,,,,,,m,1,0.5629,,,,,,,,0.56474823,-0.315992966,0,0,0,,0,51,51,48,1,SPORT,HB,old,m,./images/SPORTHB.png,,,,,,,,,,,,,,,,,,,,,,,,,,,,,,,,,,,
,,,,,,,,,,,,,,,,,6102c2e209da1c42ee444f22,31,2022-02-12_14h37.04.227,lexical_decision_task_DD_L2,2021.2.3,MacIntel,59.97361161,,,,,,,,,,,0.6813,1,,,,,,,,,,,,,,m,1,0.6813,,,,,,,,0.56474823,-0.315992966,0,0,0,,0,52,52,6,1,SQUARE,HB,old,m,./images/SQUAREHB.png,,,,,,,,,,,,,,,,,,,,,,,,,,,,,,,,,,,
,,,,,,,,,,,,,,,,,6102c2e209da1c42ee444f22,31,2022-02-12_14h37.04.227,lexical_decision_task_DD_L2,2021.2.3,MacIntel,59.97361161,,,,,,,,,,,0.6658,1,,,,,,,,,,,,,,z,1,0.6658,,,,,,,,0.56474823,-0.315992966,0,0,0,,0,53,53,142,1,PLASK,HB,old,z,./images/PLASKHB.png,,,,,,,,,,,,,,,,,,,,,,,,,,,,,,,,,,,
,,,,,,,,,,,,,,,,,6102c2e209da1c42ee444f22,31,2022-02-12_14h37.04.227,lexical_decision_task_DD_L2,2021.2.3,MacIntel,59.97361161,,,,,,,,,,,0.5123,1,,,,,,,,,,,,,,m,1,0.5123,,,,,,,,0.56474823,-0.315992966,0,0,0,,0,54,54,26,1,SMOKER,C,old,m,./images/SMOKER.png,,,,,,,,,,,,,,,,,,,,,,,,,,,,,,,,,,,
,,,,,,,,,,,,,,,,,6102c2e209da1c42ee444f22,31,2022-02-12_14h37.04.227,lexical_decision_task_DD_L2,2021.2.3,MacIntel,59.97361161,,,,,,,,,,,1.2843,0,,,,,,,,,,,,,,z,0,1.2843,,,,,,,,0.56474823,-0.315992966,0,0,0,,0,55,55,69,1,COOKER,HB,old,m,./images/COOKERHB.png,,,,,,,,,,,,,,,,,,,,,,,,,,,,,,,,,,,
,,,,,,,,,,,,,,,,,6102c2e209da1c42ee444f22,31,2022-02-12_14h37.04.227,lexical_decision_task_DD_L2,2021.2.3,MacIntel,59.97361161,,,,,,,,,,,0.6673,1,,,,,,,,,,,,,,m,1,0.6673,,,,,,,,0.56474823,-0.315992966,0,0,0,,0,56,56,58,1,BABOON,LB,old,m,./images/BABOONLB.png,,,,,,,,,,,,,,,,,,,,,,,,,,,,,,,,,,,
,,,,,,,,,,,,,,,,,6102c2e209da1c42ee444f22,31,2022-02-12_14h37.04.227,lexical_decision_task_DD_L2,2021.2.3,MacIntel,59.97361161,,,,,,,,,,,0.5578,1,,,,,,,,,,,,,,m,1,0.5578,,,,,,,,0.56474823,-0.315992966,0,0,0,,0,57,57,59,1,BURIAL,C,old,m,./images/BURIAL.png,,,,,,,,,,,,,,,,,,,,,,,,,,,,,,,,,,,
,,,,,,,,,,,,,,,,,6102c2e209da1c42ee444f22,31,2022-02-12_14h37.04.227,lexical_decision_task_DD_L2,2021.2.3,MacIntel,59.97361161,,,,,,,,,,,0.4965,1,,,,,,,,,,,,,,z,1,0.4965,,,,,,,,0.56474823,-0.315992966,0,0,0,,0,58,58,108,1,GRUET,C,old,z,./images/GRUET.png,,,,,,,,,,,,,,,,,,,,,,,,,,,,,,,,,,,
,,,,,,,,,,,,,,,,,6102c2e209da1c42ee444f22,31,2022-02-12_14h37.04.227,lexical_decision_task_DD_L2,2021.2.3,MacIntel,59.97361161,,,,,,,,,,,0.879,1,,,,,,,,,,,,,,z,1,0.879,,,,,,,,0.56474823,-0.315992966,0,0,0,,0,59,59,88,1,GLUSH,HB,old,z,./images/GLUSHHB.png,,,,,,,,,,,,,,,,,,,,,,,,,,,,,,,,,,,
,,,,,,,,,,,,,,,,,6102c2e209da1c42ee444f22,31,2022-02-12_14h37.04.227,lexical_decision_task_DD_L2,2021.2.3,MacIntel,59.97361161,,,,,,,,,,,0.5425,1,,,,,,,,,,,,,,z,1,0.5425,,,,,,,,0.56474823,-0.315992966,0,0,0,,0,60,60,147,1,ZOLES,C,old,z,./images/ZOLES.png,,,,,,,,,,,,,,,,,,,,,,,,,,,,,,,,,,,
,,,,,,,,,,,,,,,,,6102c2e209da1c42ee444f22,31,2022-02-12_14h37.04.227,lexical_decision_task_DD_L2,2021.2.3,MacIntel,59.97361161,,,,,,,,,,,0.4669,1,,,,,,,,,,,,,,m,1,0.4669,,,,,,,,0.56474823,-0.315992966,0,0,0,,0,61,61,34,1,CANYON,LB,old,m,./images/CANYONLB.png,,,,,,,,,,,,,,,,,,,,,,,,,,,,,,,,,,,
,,,,,,,,,,,,,,,,,6102c2e209da1c42ee444f22,31,2022-02-12_14h37.04.227,lexical_decision_task_DD_L2,2021.2.3,MacIntel,59.97361161,,,,,,,,,,,0.5162,1,,,,,,,,,,,,,,m,1,0.5162,,,,,,,,0.56474823,-0.315992966,0,0,0,,0,62,62,74,1,CEMENT,C,old,m,./images/CEMENT.png,,,,,,,,,,,,,,,,,,,,,,,,,,,,,,,,,,,
,,,,,,,,,,,,,,,,,6102c2e209da1c42ee444f22,31,2022-02-12_14h37.04.227,lexical_decision_task_DD_L2,2021.2.3,MacIntel,59.97361161,,,,,,,,,,,0.7072,0,,,,,,,,,,,,,,m,0,0.7072,,,,,,,,0.56474823,-0.315992966,0,0,0,,0,63,63,159,1,CUDDY,C,old,z,./images/CUDDY.png,,,,,,,,,,,,,,,,,,,,,,,,,,,,,,,,,,,
,,,,,,,,,,,,,,,,,6102c2e209da1c42ee444f22,31,2022-02-12_14h37.04.227,lexical_decision_task_DD_L2,2021.2.3,MacIntel,59.97361161,,,,,,,,,,,0.4857,1,,,,,,,,,,,,,,m,1,0.4857,,,,,,,,0.56474823,-0.315992966,0,0,0,,0,64,64,73,1,SNACK,LB,old,m,./images/SNACKLB.png,,,,,,,,,,,,,,,,,,,,,,,,,,,,,,,,,,,
,,,,,,,,,,,,,,,,,6102c2e209da1c42ee444f22,31,2022-02-12_14h37.04.227,lexical_decision_task_DD_L2,2021.2.3,MacIntel,59.97361161,,,,,,,,,,,0.5653,1,,,,,,,,,,,,,,z,1,0.5653,,,,,,,,0.56474823,-0.315992966,0,0,0,,0,65,65,165,1,TROWN,C,old,z,./images/TROWN.png,,,,,,,,,,,,,,,,,,,,,,,,,,,,,,,,,,,
,,,,,,,,,,,,,,,,,6102c2e209da1c42ee444f22,31,2022-02-12_14h37.04.227,lexical_decision_task_DD_L2,2021.2.3,MacIntel,59.97361161,,,,,,,,,,,0.6466,1,,,,,,,,,,,,,,z,1,0.6466,,,,,,,,0.56474823,-0.315992966,0,0,0,,0,66,66,140,1,DOVET,LB,old,z,./images/DOVETLB.png,,,,,,,,,,,,,,,,,,,,,,,,,,,,,,,,,,,
,,,,,,,,,,,,,,,,,6102c2e209da1c42ee444f22,31,2022-02-12_14h37.04.227,lexical_decision_task_DD_L2,2021.2.3,MacIntel,59.97361161,,,,,,,,,,,0.9853,1,,,,,,,,,,,,,,z,1,0.9853,,,,,,,,0.56474823,-0.315992966,0,0,0,,0,67,67,94,1,BLANS,HB,old,z,./images/BLANSHB.png,,,,,,,,,,,,,,,,,,,,,,,,,,,,,,,,,,,
,,,,,,,,,,,,,,,,,6102c2e209da1c42ee444f22,31,2022-02-12_14h37.04.227,lexical_decision_task_DD_L2,2021.2.3,MacIntel,59.97361161,,,,,,,,,,,0.5651,1,,,,,,,,,,,,,,m,1,0.5651,,,,,,,,0.56474823,-0.315992966,0,0,0,,0,68,68,76,1,INFANT,LB,old,m,./images/INFANTLB.png,,,,,,,,,,,,,,,,,,,,,,,,,,,,,,,,,,,
,,,,,,,,,,,,,,,,,6102c2e209da1c42ee444f22,31,2022-02-12_14h37.04.227,lexical_decision_task_DD_L2,2021.2.3,MacIntel,59.97361161,,,,,,,,,,,0.7792,1,,,,,,,,,,,,,,m,1,0.7792,,,,,,,,0.56474823,-0.315992966,0,0,0,,0,69,69,54,1,TRIPOD,HB,old,m,./images/TRIPODHB.png,,,,,,,,,,,,,,,,,,,,,,,,,,,,,,,,,,,
,,,,,,,,,,,,,,,,,6102c2e209da1c42ee444f22,31,2022-02-12_14h37.04.227,lexical_decision_task_DD_L2,2021.2.3,MacIntel,59.97361161,,,,,,,,,,,0.8171,1,,,,,,,,,,,,,,z,1,0.8171,,,,,,,,0.56474823,-0.315992966,0,0,0,,0,70,70,89,1,DRIEK,LB,old,z,./images/DRIEKLB.png,,,,,,,,,,,,,,,,,,,,,,,,,,,,,,,,,,,
,,,,,,,,,,,,,,,,,6102c2e209da1c42ee444f22,31,2022-02-12_14h37.04.227,lexical_decision_task_DD_L2,2021.2.3,MacIntel,59.97361161,,,,,,,,,,,0.5539,1,,,,,,,,,,,,,,m,1,0.5539,,,,,,,,0.56474823,-0.315992966,0,0,0,,0,71,71,19,1,DOUGH,LB,old,m,./images/DOUGHLB.png,,,,,,,,,,,,,,,,,,,,,,,,,,,,,,,,,,,
,,,,,,,,,,,,,,,,,6102c2e209da1c42ee444f22,31,2022-02-12_14h37.04.227,lexical_decision_task_DD_L2,2021.2.3,MacIntel,59.97361161,,,,,,,,,,,0.5283,1,,,,,,,,,,,,,,z,1,0.5283,,,,,,,,0.56474823,-0.315992966,0,0,0,,0,72,72,131,1,NACES,LB,old,z,./images/NACESLB.png,,,,,,,,,,,,,,,,,,,,,,,,,,,,,,,,,,,
,,,,,,,,,,,,,,,,,6102c2e209da1c42ee444f22,31,2022-02-12_14h37.04.227,lexical_decision_task_DD_L2,2021.2.3,MacIntel,59.97361161,,,,,,,,,,,0.5485,1,,,,,,,,,,,,,,z,1,0.5485,,,,,,,,0.56474823,-0.315992966,0,0,0,,0,73,73,95,1,HANTY,LB,old,z,./images/HANTYLB.png,,,,,,,,,,,,,,,,,,,,,,,,,,,,,,,,,,,
,,,,,,,,,,,,,,,,,6102c2e209da1c42ee444f22,31,2022-02-12_14h37.04.227,lexical_decision_task_DD_L2,2021.2.3,MacIntel,59.97361161,,,,,,,,,,,0.5968,1,,,,,,,,,,,,,,m,1,0.5968,,,,,,,,0.56474823,-0.315992966,0,0,0,,0,74,74,71,1,PIMPLE,C,old,m,./images/PIMPLE.png,,,,,,,,,,,,,,,,,,,,,,,,,,,,,,,,,,,
,,,,,,,,,,,,,,,,,6102c2e209da1c42ee444f22,31,2022-02-12_14h37.04.227,lexical_decision_task_DD_L2,2021.2.3,MacIntel,59.97361161,,,,,,,,,,,0.7492,1,,,,,,,,,,,,,,z,1,0.7492,,,,,,,,0.56474823,-0.315992966,0,0,0,,0,75,75,136,1,WERVE,HB,old,z,./images/WERVEHB.png,,,,,,,,,,,,,,,,,,,,,,,,,,,,,,,,,,,
,,,,,,,,,,,,,,,,,6102c2e209da1c42ee444f22,31,2022-02-12_14h37.04.227,lexical_decision_task_DD_L2,2021.2.3,MacIntel,59.97361161,,,,,,,,,,,0.563,1,,,,,,,,,,,,,,m,1,0.563,,,,,,,,0.56474823,-0.315992966,0,0,0,,0,76,76,20,1,CRADLE,C,old,m,./images/CRADLE.png,,,,,,,,,,,,,,,,,,,,,,,,,,,,,,,,,,,
,,,,,,,,,,,,,,,,,6102c2e209da1c42ee444f22,31,2022-02-12_14h37.04.227,lexical_decision_task_DD_L2,2021.2.3,MacIntel,59.97361161,,,,,,,,,,,0.6281,1,,,,,,,,,,,,,,z,1,0.6281,,,,,,,,0.56474823,-0.315992966,0,0,0,,0,77,77,121,1,CEERS,HB,old,z,./images/CEERSHB.png,,,,,,,,,,,,,,,,,,,,,,,,,,,,,,,,,,,
,,,,,,,,,,,,,,,,,6102c2e209da1c42ee444f22,31,2022-02-12_14h37.04.227,lexical_decision_task_DD_L2,2021.2.3,MacIntel,59.97361161,,,,,,,,,,,0.5312,1,,,,,,,,,,,,,,m,1,0.5312,,,,,,,,0.56474823,-0.315992966,0,0,0,,0,78,78,10,1,BELLY,LB,old,m,./images/BELLYLB.png,,,,,,,,,,,,,,,,,,,,,,,,,,,,,,,,,,,
,,,,,,,,,,,,,,,,,6102c2e209da1c42ee444f22,31,2022-02-12_14h37.04.227,lexical_decision_task_DD_L2,2021.2.3,MacIntel,59.97361161,,,,,,,,,,,0.7777,1,,,,,,,,,,,,,,z,1,0.7777,,,,,,,,0.56474823,-0.315992966,0,0,0,,0,79,79,139,1,BLEAR,HB,old,z,./images/BLEARHB.png,,,,,,,,,,,,,,,,,,,,,,,,,,,,,,,,,,,
,,,,,,,,,,,,,,,,,6102c2e209da1c42ee444f22,31,2022-02-12_14h37.04.227,lexical_decision_task_DD_L2,2021.2.3,MacIntel,59.97361161,,,,,,,,,,,0.615,1,,,,,,,,,,,,,,z,1,0.615,,,,,,,,0.56474823,-0.315992966,0,0,0,,0,80,80,104,1,GITTY,LB,old,z,./images/GITTYLB.png,,,,,,,,,,,,,,,,,,,,,,,,,,,,,,,,,,,
,,,,,,,,,,,,,,,,,6102c2e209da1c42ee444f22,31,2022-02-12_14h37.04.227,lexical_decision_task_DD_L2,2021.2.3,MacIntel,59.97361161,,,,,,,,,,,0.6015,1,,,,,,,,,,,,,,z,1,0.6015,,,,,,,,0.56474823,-0.315992966,0,0,0,,0,81,81,115,1,MAWNS,HB,old,z,./images/MAWNSHB.png,,,,,,,,,,,,,,,,,,,,,,,,,,,,,,,,,,,
,,,,,,,,,,,,,,,,,6102c2e209da1c42ee444f22,31,2022-02-12_14h37.04.227,lexical_decision_task_DD_L2,2021.2.3,MacIntel,59.97361161,,,,,,,,,,,0.4839,1,,,,,,,,,,,,,,m,1,0.4839,,,,,,,,0.56474823,-0.315992966,0,0,0,,0,82,82,44,1,LIZARD,C,old,m,./images/LIZARD.png,,,,,,,,,,,,,,,,,,,,,,,,,,,,,,,,,,,
,,,,,,,,,,,,,,,,,6102c2e209da1c42ee444f22,31,2022-02-12_14h37.04.227,lexical_decision_task_DD_L2,2021.2.3,MacIntel,59.97361161,,,,,,,,,,,0.4908,1,,,,,,,,,,,,,,z,1,0.4908,,,,,,,,0.56474823,-0.315992966,0,0,0,space,0,83,83,120,1,RINED,C,old,z,./images/RINED.png,11.7972,,,,,,,,,,,,,,,,,,,,,,,,,,,,,,,,,,
,,,,,,,,,,,,,,,,,6102c2e209da1c42ee444f22,31,2022-02-12_14h37.04.227,lexical_decision_task_DD_L2,2021.2.3,MacIntel,59.97361161,,,,,,,,,,,0.8794,1,,,,,,,,,,,,,,z,1,0.8794,,,,,,,,0.56474823,-0.315992966,0,0,0,,0,84,84,127,1,NINDY,HB,old,z,./images/NINDYHB.png,,,,,,,,,,,,,,,,,,,,,,,,,,,,,,,,,,,
,,,,,,,,,,,,,,,,,6102c2e209da1c42ee444f22,31,2022-02-12_14h37.04.227,lexical_decision_task_DD_L2,2021.2.3,MacIntel,59.97361161,,,,,,,,,,,0.5754,1,,,,,,,,,,,,,,m,1,0.5754,,,,,,,,0.56474823,-0.315992966,0,0,0,,0,85,85,23,1,WALRUS,C,old,m,./images/WALRUS.png,,,,,,,,,,,,,,,,,,,,,,,,,,,,,,,,,,,
,,,,,,,,,,,,,,,,,6102c2e209da1c42ee444f22,31,2022-02-12_14h37.04.227,lexical_decision_task_DD_L2,2021.2.3,MacIntel,59.97361161,,,,,,,,,,,0.5149,1,,,,,,,,,,,,,,z,1,0.5149,,,,,,,,0.56474823,-0.315992966,0,0,0,,0,86,86,158,1,EGECT,LB,old,z,./images/EGECTLB.png,,,,,,,,,,,,,,,,,,,,,,,,,,,,,,,,,,,
,,,,,,,,,,,,,,,,,6102c2e209da1c42ee444f22,31,2022-02-12_14h37.04.227,lexical_decision_task_DD_L2,2021.2.3,MacIntel,59.97361161,,,,,,,,,,,0.4819,1,,,,,,,,,,,,,,m,1,0.4819,,,,,,,,0.56474823,-0.315992966,0,0,0,,0,87,87,2,1,BEARD,C,old,m,./images/BEARD.png,,,,,,,,,,,,,,,,,,,,,,,,,,,,,,,,,,,
,,,,,,,,,,,,,,,,,6102c2e209da1c42ee444f22,31,2022-02-12_14h37.04.227,lexical_decision_task_DD_L2,2021.2.3,MacIntel,59.97361161,,,,,,,,,,,0.6152,1,,,,,,,,,,,,,,m,1,0.6152,,,,,,,,0.56474823,-0.315992966,0,0,0,,0,88,88,3,1,FINGER,HB,old,m,./images/FINGERHB.png,,,,,,,,,,,,,,,,,,,,,,,,,,,,,,,,,,,
,,,,,,,,,,,,,,,,,6102c2e209da1c42ee444f22,31,2022-02-12_14h37.04.227,lexical_decision_task_DD_L2,2021.2.3,MacIntel,59.97361161,,,,,,,,,,,0.5433,1,,,,,,,,,,,,,,m,1,0.5433,,,,,,,,0.56474823,-0.315992966,0,0,0,,0,89,89,77,1,COUCH,C,old,m,./images/COUCH.png,,,,,,,,,,,,,,,,,,,,,,,,,,,,,,,,,,,
,,,,,,,,,,,,,,,,,6102c2e209da1c42ee444f22,31,2022-02-12_14h37.04.227,lexical_decision_task_DD_L2,2021.2.3,MacIntel,59.97361161,,,,,,,,,,,0.504,1,,,,,,,,,,,,,,z,1,0.504,,,,,,,,0.56474823,-0.315992966,0,0,0,,0,90,90,97,1,CHIDS,HB,old,z,./images/CHIDSHB.png,,,,,,,,,,,,,,,,,,,,,,,,,,,,,,,,,,,
,,,,,,,,,,,,,,,,,6102c2e209da1c42ee444f22,31,2022-02-12_14h37.04.227,lexical_decision_task_DD_L2,2021.2.3,MacIntel,59.97361161,,,,,,,,,,,0.5512,1,,,,,,,,,,,,,,z,1,0.5512,,,,,,,,0.56474823,-0.315992966,0,0,0,,0,91,91,149,1,VEASE,LB,old,z,./images/VEASELB.png,,,,,,,,,,,,,,,,,,,,,,,,,,,,,,,,,,,
,,,,,,,,,,,,,,,,,6102c2e209da1c42ee444f22,31,2022-02-12_14h37.04.227,lexical_decision_task_DD_L2,2021.2.3,MacIntel,59.97361161,,,,,,,,,,,0.5976,1,,,,,,,,,,,,,,z,1,0.5976,,,,,,,,0.56474823,-0.315992966,0,0,0,,0,92,92,157,1,INLER,HB,old,z,./images/INLERHB.png,,,,,,,,,,,,,,,,,,,,,,,,,,,,,,,,,,,
,,,,,,,,,,,,,,,,,6102c2e209da1c42ee444f22,31,2022-02-12_14h37.04.227,lexical_decision_task_DD_L2,2021.2.3,MacIntel,59.97361161,,,,,,,,,,,0.5464,1,,,,,,,,,,,,,,m,1,0.5464,,,,,,,,0.56474823,-0.315992966,0,0,0,,0,93,93,60,1,TWINS,HB,old,m,./images/TWINSHB.png,,,,,,,,,,,,,,,,,,,,,,,,,,,,,,,,,,,
,,,,,,,,,,,,,,,,,6102c2e209da1c42ee444f22,31,2022-02-12_14h37.04.227,lexical_decision_task_DD_L2,2021.2.3,MacIntel,59.97361161,,,,,,,,,,,0.4528,1,,,,,,,,,,,,,,z,1,0.4528,,,,,,,,0.56474823,-0.315992966,0,0,0,,0,94,94,166,1,SHORY,HB,old,z,./images/SHORYHB.png,,,,,,,,,,,,,,,,,,,,,,,,,,,,,,,,,,,
,,,,,,,,,,,,,,,,,6102c2e209da1c42ee444f22,31,2022-02-12_14h37.04.227,lexical_decision_task_DD_L2,2021.2.3,MacIntel,59.97361161,,,,,,,,,,,0.4544,1,,,,,,,,,,,,,,m,1,0.4544,,,,,,,,0.56474823,-0.315992966,0,0,0,,0,95,95,64,1,JELLY,LB,old,m,./images/JELLYLB.png,,,,,,,,,,,,,,,,,,,,,,,,,,,,,,,,,,,
,,,,,,,,,,,,,,,,,6102c2e209da1c42ee444f22,31,2022-02-12_14h37.04.227,lexical_decision_task_DD_L2,2021.2.3,MacIntel,59.97361161,,,,,,,,,,,0.5027,0,,,,,,,,,,,,,,z,0,0.5027,,,,,,,,0.56474823,-0.315992966,0,0,0,,0,96,96,31,1,QUILL,LB,old,m,./images/QUILLLB.png,,,,,,,,,,,,,,,,,,,,,,,,,,,,,,,,,,,
,,,,,,,,,,,,,,,,,6102c2e209da1c42ee444f22,31,2022-02-12_14h37.04.227,lexical_decision_task_DD_L2,2021.2.3,MacIntel,59.97361161,,,,,,,,,,,0.6777,1,,,,,,,,,,,,,,m,1,0.6777,,,,,,,,0.56474823,-0.315992966,0,0,0,,0,97,97,11,1,BONNET,C,old,m,./images/BONNET.png,,,,,,,,,,,,,,,,,,,,,,,,,,,,,,,,,,,
,,,,,,,,,,,,,,,,,6102c2e209da1c42ee444f22,31,2022-02-12_14h37.04.227,lexical_decision_task_DD_L2,2021.2.3,MacIntel,59.97361161,,,,,,,,,,,0.561,1,,,,,,,,,,,,,,m,1,0.561,,,,,,,,0.56474823,-0.315992966,0,0,0,,0,98,98,40,1,SWING,LB,old,m,./images/SWINGLB.png,,,,,,,,,,,,,,,,,,,,,,,,,,,,,,,,,,,
,,,,,,,,,,,,,,,,,6102c2e209da1c42ee444f22,31,2022-02-12_14h37.04.227,lexical_decision_task_DD_L2,2021.2.3,MacIntel,59.97361161,,,,,,,,,,,0.5593,1,,,,,,,,,,,,,,z,1,0.5593,,,,,,,,0.56474823,-0.315992966,0,0,0,,0,99,99,111,1,HOSSE,C,old,z,./images/HOSSE.png,,,,,,,,,,,,,,,,,,,,,,,,,,,,,,,,,,,
,,,,,,,,,,,,,,,,,6102c2e209da1c42ee444f22,31,2022-02-12_14h37.04.227,lexical_decision_task_DD_L2,2021.2.3,MacIntel,59.97361161,,,,,,,,,,,0.5786,1,,,,,,,,,,,,,,z,1,0.5786,,,,,,,,0.56474823,-0.315992966,0,0,0,,0,100,100,144,1,NAIRY,C,old,z,./images/NAIRY.png,,,,,,,,,,,,,,,,,,,,,,,,,,,,,,,,,,,
,,,,,,,,,,,,,,,,,6102c2e209da1c42ee444f22,31,2022-02-12_14h37.04.227,lexical_decision_task_DD_L2,2021.2.3,MacIntel,59.97361161,,,,,,,,,,,0.6344,1,,,,,,,,,,,,,,m,1,0.6344,,,,,,,,0.56474823,-0.315992966,0,0,0,,0,101,101,9,1,RHINO,HB,old,m,./images/RHINOHB.png,,,,,,,,,,,,,,,,,,,,,,,,,,,,,,,,,,,
,,,,,,,,,,,,,,,,,6102c2e209da1c42ee444f22,31,2022-02-12_14h37.04.227,lexical_decision_task_DD_L2,2021.2.3,MacIntel,59.97361161,,,,,,,,,,,0.5012,1,,,,,,,,,,,,,,z,1,0.5012,,,,,,,,0.56474823,-0.315992966,0,0,0,,0,102,102,99,1,BACKY,C,old,z,./images/BACKY.png,,,,,,,,,,,,,,,,,,,,,,,,,,,,,,,,,,,
,,,,,,,,,,,,,,,,,6102c2e209da1c42ee444f22,31,2022-02-12_14h37.04.227,lexical_decision_task_DD_L2,2021.2.3,MacIntel,59.97361161,,,,,,,,,,,0.4778,1,,,,,,,,,,,,,,m,1,0.4778,,,,,,,,0.56474823,-0.315992966,0,0,0,,0,103,103,4,1,MUSCLE,LB,old,m,./images/MUSCLELB.png,,,,,,,,,,,,,,,,,,,,,,,,,,,,,,,,,,,
,,,,,,,,,,,,,,,,,6102c2e209da1c42ee444f22,31,2022-02-12_14h37.04.227,lexical_decision_task_DD_L2,2021.2.3,MacIntel,59.97361161,,,,,,,,,,,0.5649,1,,,,,,,,,,,,,,m,1,0.5649,,,,,,,,0.56474823,-0.315992966,0,0,0,,0,104,104,70,1,URINE,LB,old,m,./images/URINELB.png,,,,,,,,,,,,,,,,,,,,,,,,,,,,,,,,,,,
,,,,,,,,,,,,,,,,,6102c2e209da1c42ee444f22,31,2022-02-12_14h37.04.227,lexical_decision_task_DD_L2,2021.2.3,MacIntel,59.97361161,,,,,,,,,,,0.5779,0,,,,,,,,,,,,,,m,0,0.5779,,,,,,,,0.56474823,-0.315992966,0,0,0,,0,105,105,110,1,CRUNK,LB,old,z,./images/CRUNKLB.png,,,,,,,,,,,,,,,,,,,,,,,,,,,,,,,,,,,
,,,,,,,,,,,,,,,,,6102c2e209da1c42ee444f22,31,2022-02-12_14h37.04.227,lexical_decision_task_DD_L2,2021.2.3,MacIntel,59.97361161,,,,,,,,,,,0.6026,1,,,,,,,,,,,,,,m,1,0.6026,,,,,,,,0.56474823,-0.315992966,0,0,0,,0,106,106,81,1,POODLE,HB,old,m,./images/POODLEHB.png,,,,,,,,,,,,,,,,,,,,,,,,,,,,,,,,,,,
,,,,,,,,,,,,,,,,,6102c2e209da1c42ee444f22,31,2022-02-12_14h37.04.227,lexical_decision_task_DD_L2,2021.2.3,MacIntel,59.97361161,,,,,,,,,,,0.6053,1,,,,,,,,,,,,,,m,1,0.6053,,,,,,,,0.56474823,-0.315992966,0,0,0,,0,107,107,36,1,THROAT,HB,old,m,./images/THROATHB.png,,,,,,,,,,,,,,,,,,,,,,,,,,,,,,,,,,,
,,,,,,,,,,,,,,,,,6102c2e209da1c42ee444f22,31,2022-02-12_14h37.04.227,lexical_decision_task_DD_L2,2021.2.3,MacIntel,59.97361161,,,,,,,,,,,0.5925,1,,,,,,,,,,,,,,z,1,0.5925,,,,,,,,0.56474823,-0.315992966,0,0,0,,0,108,108,117,1,STEEG,C,old,z,./images/STEEG.png,,,,,,,,,,,,,,,,,,,,,,,,,,,,,,,,,,,
,,,,,,,,,,,,,,,,,6102c2e209da1c42ee444f22,31,2022-02-12_14h37.04.227,lexical_decision_task_DD_L2,2021.2.3,MacIntel,59.97361161,,,,,,,,,,,0.5438,1,,,,,,,,,,,,,,z,1,0.5438,,,,,,,,0.56474823,-0.315992966,0,0,0,,0,109,109,141,1,PLEET,C,old,z,./images/PLEET.png,,,,,,,,,,,,,,,,,,,,,,,,,,,,,,,,,,,
,,,,,,,,,,,,,,,,,6102c2e209da1c42ee444f22,31,2022-02-12_14h37.04.227,lexical_decision_task_DD_L2,2021.2.3,MacIntel,59.97361161,,,,,,,,,,,0.5819,1,,,,,,,,,,,,,,z,1,0.5819,,,,,,,,0.56474823,-0.315992966,0,0,0,,0,110,110,161,1,BLAPS,LB,old,z,./images/BLAPSLB.png,,,,,,,,,,,,,,,,,,,,,,,,,,,,,,,,,,,
,,,,,,,,,,,,,,,,,6102c2e209da1c42ee444f22,31,2022-02-12_14h37.04.227,lexical_decision_task_DD_L2,2021.2.3,MacIntel,59.97361161,,,,,,,,,,,0.5949,1,,,,,,,,,,,,,,m,1,0.5949,,,,,,,,0.56474823,-0.315992966,0,0,0,,0,111,111,8,1,TULIP,C,old,m,./images/TULIP.png,,,,,,,,,,,,,,,,,,,,,,,,,,,,,,,,,,,
,,,,,,,,,,,,,,,,,6102c2e209da1c42ee444f22,31,2022-02-12_14h37.04.227,lexical_decision_task_DD_L2,2021.2.3,MacIntel,59.97361161,,,,,,,,,,,0.5596,1,,,,,,,,,,,,,,m,1,0.5596,,,,,,,,0.56474823,-0.315992966,0,0,0,,0,112,112,38,1,LADDER,C,old,m,./images/LADDER.png,,,,,,,,,,,,,,,,,,,,,,,,,,,,,,,,,,,
,,,,,,,,,,,,,,,,,6102c2e209da1c42ee444f22,31,2022-02-12_14h37.04.227,lexical_decision_task_DD_L2,2021.2.3,MacIntel,59.97361161,,,,,,,,,,,0.5638,1,,,,,,,,,,,,,,z,1,0.5638,,,,,,,,0.56474823,-0.315992966,0,0,0,,0,113,113,113,1,LINEW,LB,old,z,./images/LINEWLB.png,,,,,,,,,,,,,,,,,,,,,,,,,,,,,,,,,,,
,,,,,,,,,,,,,,,,,6102c2e209da1c42ee444f22,31,2022-02-12_14h37.04.227,lexical_decision_task_DD_L2,2021.2.3,MacIntel,59.97361161,,,,,,,,,,,0.4941,1,,,,,,,,,,,,,,z,1,0.4941,,,,,,,,0.56474823,-0.315992966,0,0,0,,0,114,114,123,1,SEDGE,C,old,z,./images/SEDGE.png,,,,,,,,,,,,,,,,,,,,,,,,,,,,,,,,,,,
,,,,,,,,,,,,,,,,,6102c2e209da1c42ee444f22,31,2022-02-12_14h37.04.227,lexical_decision_task_DD_L2,2021.2.3,MacIntel,59.97361161,,,,,,,,,,,0.5899,1,,,,,,,,,,,,,,z,1,0.5899,,,,,,,,0.56474823,-0.315992966,0,0,0,,0,115,115,92,1,PAIMS,LB,old,z,./images/PAIMSLB.png,,,,,,,,,,,,,,,,,,,,,,,,,,,,,,,,,,,
,,,,,,,,,,,,,,,,,6102c2e209da1c42ee444f22,31,2022-02-12_14h37.04.227,lexical_decision_task_DD_L2,2021.2.3,MacIntel,59.97361161,,,,,,,,,,,0.4889,1,,,,,,,,,,,,,,m,1,0.4889,,,,,,,,0.56474823,-0.315992966,0,0,0,,0,116,116,1,1,PLANK,LB,old,m,./images/PLANKLB.png,,,,,,,,,,,,,,,,,,,,,,,,,,,,,,,,,,,
,,,,,,,,,,,,,,,,,6102c2e209da1c42ee444f22,31,2022-02-12_14h37.04.227,lexical_decision_task_DD_L2,2021.2.3,MacIntel,59.97361161,,,,,,,,,,,0.5263,1,,,,,,,,,,,,,,z,1,0.5263,,,,,,,,0.56474823,-0.315992966,0,0,0,,0,117,117,150,1,NOOLS,C,old,z,./images/NOOLS.png,,,,,,,,,,,,,,,,,,,,,,,,,,,,,,,,,,,
,,,,,,,,,,,,,,,,,6102c2e209da1c42ee444f22,31,2022-02-12_14h37.04.227,lexical_decision_task_DD_L2,2021.2.3,MacIntel,59.97361161,,,,,,,,,,,0.4861,1,,,,,,,,,,,,,,z,1,0.4861,,,,,,,,0.56474823,-0.315992966,0,0,0,,0,118,118,155,1,CANGY,LB,old,z,./images/CANGYLB.png,,,,,,,,,,,,,,,,,,,,,,,,,,,,,,,,,,,
,,,,,,,,,,,,,,,,,6102c2e209da1c42ee444f22,31,2022-02-12_14h37.04.227,lexical_decision_task_DD_L2,2021.2.3,MacIntel,59.97361161,,,,,,,,,,,0.4614,1,,,,,,,,,,,,,,z,1,0.4614,,,,,,,,0.56474823,-0.315992966,0,0,0,,0,119,119,138,1,PLICE,C,old,z,./images/PLICE.png,,,,,,,,,,,,,,,,,,,,,,,,,,,,,,,,,,,
,,,,,,,,,,,,,,,,,6102c2e209da1c42ee444f22,31,2022-02-12_14h37.04.227,lexical_decision_task_DD_L2,2021.2.3,MacIntel,59.97361161,,,,,,,,,,,0.5152,1,,,,,,,,,,,,,,m,1,0.5152,,,,,,,,0.56474823,-0.315992966,0,0,0,,0,120,120,46,1,PEARL,LB,old,m,./images/PEARLLB.png,,,,,,,,,,,,,,,,,,,,,,,,,,,,,,,,,,,
,,,,,,,,,,,,,,,,,6102c2e209da1c42ee444f22,31,2022-02-12_14h37.04.227,lexical_decision_task_DD_L2,2021.2.3,MacIntel,59.97361161,,,,,,,,,,,0.5618,1,,,,,,,,,,,,,,z,1,0.5618,,,,,,,,0.56474823,-0.315992966,0,0,0,,0,121,121,91,1,SHENS,HB,old,z,./images/SHENSHB.png,,,,,,,,,,,,,,,,,,,,,,,,,,,,,,,,,,,
,,,,,,,,,,,,,,,,,6102c2e209da1c42ee444f22,31,2022-02-12_14h37.04.227,lexical_decision_task_DD_L2,2021.2.3,MacIntel,59.97361161,,,,,,,,,,,0.5014,1,,,,,,,,,,,,,,z,1,0.5014,,,,,,,,0.56474823,-0.315992966,0,0,0,,0,122,122,125,1,MOOKY,LB,old,z,./images/MOOKYLB.png,,,,,,,,,,,,,,,,,,,,,,,,,,,,,,,,,,,
,,,,,,,,,,,,,,,,,6102c2e209da1c42ee444f22,31,2022-02-12_14h37.04.227,lexical_decision_task_DD_L2,2021.2.3,MacIntel,59.97361161,,,,,,,,,,,0.5653,1,,,,,,,,,,,,,,m,1,0.5653,,,,,,,,0.56474823,-0.315992966,0,0,0,,0,123,123,18,1,JAGUAR,HB,old,m,./images/JAGUARHB.png,,,,,,,,,,,,,,,,,,,,,,,,,,,,,,,,,,,
,,,,,,,,,,,,,,,,,6102c2e209da1c42ee444f22,31,2022-02-12_14h37.04.227,lexical_decision_task_DD_L2,2021.2.3,MacIntel,59.97361161,,,,,,,,,,,0.5983,1,,,,,,,,,,,,,,m,1,0.5983,,,,,,,,0.56474823,-0.315992966,0,0,0,,0,124,124,27,1,ATTIC,HB,old,m,./images/ATTICHB.png,,,,,,,,,,,,,,,,,,,,,,,,,,,,,,,,,,,
,,,,,,,,,,,,,,,,,6102c2e209da1c42ee444f22,31,2022-02-12_14h37.04.227,lexical_decision_task_DD_L2,2021.2.3,MacIntel,59.97361161,,,,,,,,,,,0.6311,1,,,,,,,,,,,,,,m,1,0.6311,,,,,,,,0.56474823,-0.315992966,0,0,0,space,0,125,125,63,1,MIRROR,HB,old,m,./images/MIRRORHB.png,7.4633,,,,,,,,,,,,,,,,,,,,,,,,,,,,,,,,,,
,,,,,,,,,,,,,,,,,6102c2e209da1c42ee444f22,31,2022-02-12_14h37.04.227,lexical_decision_task_DD_L2,2021.2.3,MacIntel,59.97361161,,,,,,,,,,,0.5106,1,,,,,,,,,,,,,,z,1,0.5106,,,,,,,,0.56474823,-0.315992966,0,0,0,,0,126,126,129,1,PRANS,C,old,z,./images/PRANS.png,,,,,,,,,,,,,,,,,,,,,,,,,,,,,,,,,,,
,,,,,,,,,,,,,,,,,6102c2e209da1c42ee444f22,31,2022-02-12_14h37.04.227,lexical_decision_task_DD_L2,2021.2.3,MacIntel,59.97361161,,,,,,,,,,,0.4388,1,,,,,,,,,,,,,,z,1,0.4388,,,,,,,,0.56474823,-0.315992966,0,0,0,,0,127,127,90,1,NEAST,C,old,z,./images/NEAST.png,,,,,,,,,,,,,,,,,,,,,,,,,,,,,,,,,,,
,,,,,,,,,,,,,,,,,6102c2e209da1c42ee444f22,31,2022-02-12_14h37.04.227,lexical_decision_task_DD_L2,2021.2.3,MacIntel,59.97361161,,,,,,,,,,,0.8,0,,,,,,,,,,,,,,z,0,0.8,,,,,,,,0.56474823,-0.315992966,0,0,0,,0,128,128,57,1,MOOSE,HB,old,m,./images/MOOSEHB.png,,,,,,,,,,,,,,,,,,,,,,,,,,,,,,,,,,,
,,,,,,,,,,,,,,,,,6102c2e209da1c42ee444f22,31,2022-02-12_14h37.04.227,lexical_decision_task_DD_L2,2021.2.3,MacIntel,59.97361161,,,,,,,,,,,0.6321,1,,,,,,,,,,,,,,z,1,0.6321,,,,,,,,0.56474823,-0.315992966,0,0,0,,0,129,129,145,1,LAMEL,HB,old,z,./images/LAMELHB.png,,,,,,,,,,,,,,,,,,,,,,,,,,,,,,,,,,,
,,,,,,,,,,,,,,,,,6102c2e209da1c42ee444f22,31,2022-02-12_14h37.04.227,lexical_decision_task_DD_L2,2021.2.3,MacIntel,59.97361161,,,,,,,,,,,0.4689,1,,,,,,,,,,,,,,m,1,0.4689,,,,,,,,0.56474823,-0.315992966,0,0,0,,0,130,130,80,1,WEASEL,C,old,m,./images/WEASEL.png,,,,,,,,,,,,,,,,,,,,,,,,,,,,,,,,,,,
,,,,,,,,,,,,,,,,,6102c2e209da1c42ee444f22,31,2022-02-12_14h37.04.227,lexical_decision_task_DD_L2,2021.2.3,MacIntel,59.97361161,,,,,,,,,,,0.4919,1,,,,,,,,,,,,,,z,1,0.4919,,,,,,,,0.56474823,-0.315992966,0,0,0,,0,131,131,87,1,TRING,C,old,z,./images/TRING.png,,,,,,,,,,,,,,,,,,,,,,,,,,,,,,,,,,,
,,,,,,,,,,,,,,,,,6102c2e209da1c42ee444f22,31,2022-02-12_14h37.04.227,lexical_decision_task_DD_L2,2021.2.3,MacIntel,59.97361161,,,,,,,,,,,0.563,1,,,,,,,,,,,,,,m,1,0.563,,,,,,,,0.56474823,-0.315992966,0,0,0,,0,132,132,45,1,KITTEN,HB,old,m,./images/KITTENHB.png,,,,,,,,,,,,,,,,,,,,,,,,,,,,,,,,,,,
,,,,,,,,,,,,,,,,,6102c2e209da1c42ee444f22,31,2022-02-12_14h37.04.227,lexical_decision_task_DD_L2,2021.2.3,MacIntel,59.97361161,,,,,,,,,,,0.4872,1,,,,,,,,,,,,,,m,1,0.4872,,,,,,,,0.56474823,-0.315992966,0,0,0,,0,133,133,37,1,BIRTH,LB,old,m,./images/BIRTHLB.png,,,,,,,,,,,,,,,,,,,,,,,,,,,,,,,,,,,
,,,,,,,,,,,,,,,,,6102c2e209da1c42ee444f22,31,2022-02-12_14h37.04.227,lexical_decision_task_DD_L2,2021.2.3,MacIntel,59.97361161,,,,,,,,,,,0.6129,1,,,,,,,,,,,,,,z,1,0.6129,,,,,,,,0.56474823,-0.315992966,0,0,0,,0,134,134,124,1,TUNCH,HB,old,z,./images/TUNCHHB.png,,,,,,,,,,,,,,,,,,,,,,,,,,,,,,,,,,,
,,,,,,,,,,,,,,,,,6102c2e209da1c42ee444f22,31,2022-02-12_14h37.04.227,lexical_decision_task_DD_L2,2021.2.3,MacIntel,59.97361161,,,,,,,,,,,0.4777,1,,,,,,,,,,,,,,m,1,0.4777,,,,,,,,0.56474823,-0.315992966,0,0,0,,0,135,135,53,1,CARPET,C,old,m,./images/CARPET.png,,,,,,,,,,,,,,,,,,,,,,,,,,,,,,,,,,,
,,,,,,,,,,,,,,,,,6102c2e209da1c42ee444f22,31,2022-02-12_14h37.04.227,lexical_decision_task_DD_L2,2021.2.3,MacIntel,59.97361161,,,,,,,,,,,0.4607,1,,,,,,,,,,,,,,z,1,0.4607,,,,,,,,0.56474823,-0.315992966,0,0,0,,0,136,136,156,1,HIXES,C,old,z,./images/HIXES.png,,,,,,,,,,,,,,,,,,,,,,,,,,,,,,,,,,,
,,,,,,,,,,,,,,,,,6102c2e209da1c42ee444f22,31,2022-02-12_14h37.04.227,lexical_decision_task_DD_L2,2021.2.3,MacIntel,59.97361161,,,,,,,,,,,0.5797,1,,,,,,,,,,,,,,m,1,0.5797,,,,,,,,0.56474823,-0.315992966,0,0,0,,0,137,137,30,1,STORM,HB,old,m,./images/STORMHB.png,,,,,,,,,,,,,,,,,,,,,,,,,,,,,,,,,,,
,,,,,,,,,,,,,,,,,6102c2e209da1c42ee444f22,31,2022-02-12_14h37.04.227,lexical_decision_task_DD_L2,2021.2.3,MacIntel,59.97361161,,,,,,,,,,,0.5005,1,,,,,,,,,,,,,,z,1,0.5005,,,,,,,,0.56474823,-0.315992966,0,0,0,,0,138,138,86,1,AIFED,LB,old,z,./images/AIFEDLB.png,,,,,,,,,,,,,,,,,,,,,,,,,,,,,,,,,,,
,,,,,,,,,,,,,,,,,6102c2e209da1c42ee444f22,31,2022-02-12_14h37.04.227,lexical_decision_task_DD_L2,2021.2.3,MacIntel,59.97361161,,,,,,,,,,,0.4775,1,,,,,,,,,,,,,,m,1,0.4775,,,,,,,,0.56474823,-0.315992966,0,0,0,,0,139,139,56,1,PACKET,C,old,m,./images/PACKET.png,,,,,,,,,,,,,,,,,,,,,,,,,,,,,,,,,,,
,,,,,,,,,,,,,,,,,6102c2e209da1c42ee444f22,31,2022-02-12_14h37.04.227,lexical_decision_task_DD_L2,2021.2.3,MacIntel,59.97361161,,,,,,,,,,,0.4785,1,,,,,,,,,,,,,,m,1,0.4785,,,,,,,,0.56474823,-0.315992966,0,0,0,,0,140,140,68,1,TORCH,C,old,m,./images/TORCH.png,,,,,,,,,,,,,,,,,,,,,,,,,,,,,,,,,,,
,,,,,,,,,,,,,,,,,6102c2e209da1c42ee444f22,31,2022-02-12_14h37.04.227,lexical_decision_task_DD_L2,2021.2.3,MacIntel,59.97361161,,,,,,,,,,,0.5507,1,,,,,,,,,,,,,,z,1,0.5507,,,,,,,,0.56474823,-0.315992966,0,0,0,,0,141,141,160,1,VEETS,HB,old,z,./images/VEETSHB.png,,,,,,,,,,,,,,,,,,,,,,,,,,,,,,,,,,,
,,,,,,,,,,,,,,,,,6102c2e209da1c42ee444f22,31,2022-02-12_14h37.04.227,lexical_decision_task_DD_L2,2021.2.3,MacIntel,59.97361161,,,,,,,,,,,0.4642,1,,,,,,,,,,,,,,z,1,0.4642,,,,,,,,0.56474823,-0.315992966,0,0,0,,0,142,142,103,1,FLORT,HB,old,z,./images/FLORTHB.png,,,,,,,,,,,,,,,,,,,,,,,,,,,,,,,,,,,
,,,,,,,,,,,,,,,,,6102c2e209da1c42ee444f22,31,2022-02-12_14h37.04.227,lexical_decision_task_DD_L2,2021.2.3,MacIntel,59.97361161,,,,,,,,,,,0.4985,1,,,,,,,,,,,,,,m,1,0.4985,,,,,,,,0.56474823,-0.315992966,0,0,0,,0,143,143,0,1,TOMATO,HB,old,m,./images/TOMATOHB.png,,,,,,,,,,,,,,,,,,,,,,,,,,,,,,,,,,,
,,,,,,,,,,,,,,,,,6102c2e209da1c42ee444f22,31,2022-02-12_14h37.04.227,lexical_decision_task_DD_L2,2021.2.3,MacIntel,59.97361161,,,,,,,,,,,0.4969,1,,,,,,,,,,,,,,m,1,0.4969,,,,,,,,0.56474823,-0.315992966,0,0,0,,0,144,144,13,1,MOTOR,LB,old,m,./images/MOTORLB.png,,,,,,,,,,,,,,,,,,,,,,,,,,,,,,,,,,,
,,,,,,,,,,,,,,,,,6102c2e209da1c42ee444f22,31,2022-02-12_14h37.04.227,lexical_decision_task_DD_L2,2021.2.3,MacIntel,59.97361161,,,,,,,,,,,0.4965,1,,,,,,,,,,,,,,m,1,0.4965,,,,,,,,0.56474823,-0.315992966,0,0,0,,0,145,145,82,1,SUNSET,LB,old,m,./images/SUNSETLB.png,,,,,,,,,,,,,,,,,,,,,,,,,,,,,,,,,,,
,,,,,,,,,,,,,,,,,6102c2e209da1c42ee444f22,31,2022-02-12_14h37.04.227,lexical_decision_task_DD_L2,2021.2.3,MacIntel,59.97361161,,,,,,,,,,,0.4973,1,,,,,,,,,,,,,,m,1,0.4973,,,,,,,,0.56474823,-0.315992966,0,0,0,,0,146,146,28,1,FALCON,LB,old,m,./images/FALCONLB.png,,,,,,,,,,,,,,,,,,,,,,,,,,,,,,,,,,,
,,,,,,,,,,,,,,,,,6102c2e209da1c42ee444f22,31,2022-02-12_14h37.04.227,lexical_decision_task_DD_L2,2021.2.3,MacIntel,59.97361161,,,,,,,,,,,0.4768,1,,,,,,,,,,,,,,m,1,0.4768,,,,,,,,0.56474823,-0.315992966,0,0,0,,0,147,147,65,1,FARMER,C,old,m,./images/FARMER.png,,,,,,,,,,,,,,,,,,,,,,,,,,,,,,,,,,,
,,,,,,,,,,,,,,,,,6102c2e209da1c42ee444f22,31,2022-02-12_14h37.04.227,lexical_decision_task_DD_L2,2021.2.3,MacIntel,59.97361161,,,,,,,,,,,0.4272,1,,,,,,,,,,,,,,m,1,0.4272,,,,,,,,0.56474823,-0.315992966,0,0,0,,0,148,148,62,1,PURSE,C,old,m,./images/PURSE.png,,,,,,,,,,,,,,,,,,,,,,,,,,,,,,,,,,,
,,,,,,,,,,,,,,,,,6102c2e209da1c42ee444f22,31,2022-02-12_14h37.04.227,lexical_decision_task_DD_L2,2021.2.3,MacIntel,59.97361161,,,,,,,,,,,0.4525,1,,,,,,,,,,,,,,z,1,0.4525,,,,,,,,0.56474823,-0.315992966,0,0,0,,0,149,149,134,1,TROSS,LB,old,z,./images/TROSSLB.png,,,,,,,,,,,,,,,,,,,,,,,,,,,,,,,,,,,
,,,,,,,,,,,,,,,,,6102c2e209da1c42ee444f22,31,2022-02-12_14h37.04.227,lexical_decision_task_DD_L2,2021.2.3,MacIntel,59.97361161,,,,,,,,,,,0.6974,1,,,,,,,,,,,,,,m,1,0.6974,,,,,,,,0.56474823,-0.315992966,0,0,0,,0,150,150,42,1,FOLDER,HB,old,m,./images/FOLDERHB.png,,,,,,,,,,,,,,,,,,,,,,,,,,,,,,,,,,,
,,,,,,,,,,,,,,,,,6102c2e209da1c42ee444f22,31,2022-02-12_14h37.04.227,lexical_decision_task_DD_L2,2021.2.3,MacIntel,59.97361161,,,,,,,,,,,0.5446,1,,,,,,,,,,,,,,z,1,0.5446,,,,,,,,0.56474823,-0.315992966,0,0,0,,0,151,151,102,1,DULLE,C,old,z,./images/DULLE.png,,,,,,,,,,,,,,,,,,,,,,,,,,,,,,,,,,,
,,,,,,,,,,,,,,,,,6102c2e209da1c42ee444f22,31,2022-02-12_14h37.04.227,lexical_decision_task_DD_L2,2021.2.3,MacIntel,59.97361161,,,,,,,,,,,0.7144,1,,,,,,,,,,,,,,z,1,0.7144,,,,,,,,0.56474823,-0.315992966,0,0,0,,0,152,152,146,1,MOOST,LB,old,z,./images/MOOSTLB.png,,,,,,,,,,,,,,,,,,,,,,,,,,,,,,,,,,,
,,,,,,,,,,,,,,,,,6102c2e209da1c42ee444f22,31,2022-02-12_14h37.04.227,lexical_decision_task_DD_L2,2021.2.3,MacIntel,59.97361161,,,,,,,,,,,0.563,1,,,,,,,,,,,,,,m,1,0.563,,,,,,,,0.56474823,-0.315992966,0,0,0,,0,153,153,66,1,SWEAT,HB,old,m,./images/SWEATHB.png,,,,,,,,,,,,,,,,,,,,,,,,,,,,,,,,,,,
,,,,,,,,,,,,,,,,,6102c2e209da1c42ee444f22,31,2022-02-12_14h37.04.227,lexical_decision_task_DD_L2,2021.2.3,MacIntel,59.97361161,,,,,,,,,,,0.4969,1,,,,,,,,,,,,,,z,1,0.4969,,,,,,,,0.56474823,-0.315992966,0,0,0,,0,154,154,101,1,GLEET,LB,old,z,./images/GLEETLB.png,,,,,,,,,,,,,,,,,,,,,,,,,,,,,,,,,,,
,,,,,,,,,,,,,,,,,6102c2e209da1c42ee444f22,31,2022-02-12_14h37.04.227,lexical_decision_task_DD_L2,2021.2.3,MacIntel,59.97361161,,,,,,,,,,,0.4307,1,,,,,,,,,,,,,,z,1,0.4307,,,,,,,,0.56474823,-0.315992966,0,0,0,,0,155,155,107,1,FASKS,LB,old,z,./images/FASKSLB.png,,,,,,,,,,,,,,,,,,,,,,,,,,,,,,,,,,,
,,,,,,,,,,,,,,,,,6102c2e209da1c42ee444f22,31,2022-02-12_14h37.04.227,lexical_decision_task_DD_L2,2021.2.3,MacIntel,59.97361161,,,,,,,,,,,0.5288,1,,,,,,,,,,,,,,m,1,0.5288,,,,,,,,0.56474823,-0.315992966,0,0,0,,0,156,156,24,1,SCREW,HB,old,m,./images/SCREWHB.png,,,,,,,,,,,,,,,,,,,,,,,,,,,,,,,,,,,
,,,,,,,,,,,,,,,,,6102c2e209da1c42ee444f22,31,2022-02-12_14h37.04.227,lexical_decision_task_DD_L2,2021.2.3,MacIntel,59.97361161,,,,,,,,,,,0.6987,1,,,,,,,,,,,,,,z,1,0.6987,,,,,,,,0.56474823,-0.315992966,0,0,0,,0,157,157,163,1,GAMBA,HB,old,z,./images/GAMBAHB.png,,,,,,,,,,,,,,,,,,,,,,,,,,,,,,,,,,,
,,,,,,,,,,,,,,,,,6102c2e209da1c42ee444f22,31,2022-02-12_14h37.04.227,lexical_decision_task_DD_L2,2021.2.3,MacIntel,59.97361161,,,,,,,,,,,0.4778,1,,,,,,,,,,,,,,m,1,0.4778,,,,,,,,0.56474823,-0.315992966,0,0,0,,0,158,158,47,1,BERRY,C,old,m,./images/BERRY.png,,,,,,,,,,,,,,,,,,,,,,,,,,,,,,,,,,,
,,,,,,,,,,,,,,,,,6102c2e209da1c42ee444f22,31,2022-02-12_14h37.04.227,lexical_decision_task_DD_L2,2021.2.3,MacIntel,59.97361161,,,,,,,,,,,0.5977,1,,,,,,,,,,,,,,m,1,0.5977,,,,,,,,0.56474823,-0.315992966,0,0,0,,0,159,159,15,1,GREASE,HB,old,m,./images/GREASEHB.png,,,,,,,,,,,,,,,,,,,,,,,,,,,,,,,,,,,
,,,,,,,,,,,,,,,,,6102c2e209da1c42ee444f22,31,2022-02-12_14h37.04.227,lexical_decision_task_DD_L2,2021.2.3,MacIntel,59.97361161,,,,,,,,,,,0.4788,1,,,,,,,,,,,,,,m,1,0.4788,,,,,,,,0.56474823,-0.315992966,0,0,0,,0,160,160,5,1,PASTA,C,old,m,./images/PASTA.png,,,,,,,,,,,,,,,,,,,,,,,,,,,,,,,,,,,
,,,,,,,,,,,,,,,,,6102c2e209da1c42ee444f22,31,2022-02-12_14h37.04.227,lexical_decision_task_DD_L2,2021.2.3,MacIntel,59.97361161,,,,,,,,,,,0.8648,1,,,,,,,,,,,,,,z,1,0.8648,,,,,,,,0.56474823,-0.315992966,0,0,0,,0,161,161,109,1,BURGE,HB,old,z,./images/BURGEHB.png,,,,,,,,,,,,,,,,,,,,,,,,,,,,,,,,,,,
,,,,,,,,,,,,,,,,,6102c2e209da1c42ee444f22,31,2022-02-12_14h37.04.227,lexical_decision_task_DD_L2,2021.2.3,MacIntel,59.97361161,,,,,,,,,,,0.6483,1,,,,,,,,,,,,,,z,1,0.6483,,,,,,,,0.56474823,-0.315992966,0,0,0,,0,162,162,152,1,FRAIN,LB,old,z,./images/FRAINLB.png,,,,,,,,,,,,,,,,,,,,,,,,,,,,,,,,,,,
,,,,,,,,,,,,,,,,,6102c2e209da1c42ee444f22,31,2022-02-12_14h37.04.227,lexical_decision_task_DD_L2,2021.2.3,MacIntel,59.97361161,,,,,,,,,,,0.6808,0,,,,,,,,,,,,,,m,0,0.6808,,,,,,,,0.56474823,-0.315992966,0,0,0,,0,163,163,128,1,GRIFT,LB,old,z,./images/GRIFTLB.png,,,,,,,,,,,,,,,,,,,,,,,,,,,,,,,,,,,
,,,,,,,,,,,,,,,,,6102c2e209da1c42ee444f22,31,2022-02-12_14h37.04.227,lexical_decision_task_DD_L2,2021.2.3,MacIntel,59.97361161,,,,,,,,,,,0.631,1,,,,,,,,,,,,,,m,1,0.631,,,,,,,,0.56474823,-0.315992966,0,0,0,,0,164,164,21,1,KIDNEY,HB,old,m,./images/KIDNEYHB.png,,,,,,,,,,,,,,,,,,,,,,,,,,,,,,,,,,,
,,,,,,,,,,,,,,,,,6102c2e209da1c42ee444f22,31,2022-02-12_14h37.04.227,lexical_decision_task_DD_L2,2021.2.3,MacIntel,59.97361161,,,,,,,,,,,0.7469,1,,,,,,,,,,,,,,z,1,0.7469,,,,,,,,0.56474823,-0.315992966,0,0,0,,0,165,165,148,1,JOMS,HB,old,z,./images/JOMSHB.png,,,,,,,,,,,,,,,,,,,,,,,,,,,,,,,,,,,
,,,,,,,,,,,,,,,,,6102c2e209da1c42ee444f22,31,2022-02-12_14h37.04.227,lexical_decision_task_DD_L2,2021.2.3,MacIntel,59.97361161,,,,,,,,,,,0.4803,1,,,,,,,,,,,,,,m,1,0.4803,,,,,,,,0.56474823,-0.315992966,0,0,0,,0,166,166,29,1,CRUMB,C,old,m,./images/CRUMB.png,,,,,,,,,,,,,,,,,,,,,,,,,,,,,,,,,,,
,,,,,,,,,,,,,,,,,6102c2e209da1c42ee444f22,31,2022-02-12_14h37.04.227,lexical_decision_task_DD_L2,2021.2.3,MacIntel,59.97361161,,,,,,,,,,,0.4635,1,,,,,,,,,,,,,,m,1,0.4635,,,,,,,,0.56474823,-0.315992966,0,0,0,,0,167,167,83,1,JUNGLE,C,old,m,./images/JUNGLE.png,,,,,,,,,,,,,,,,,,,,,,,,,,,,,,,,,,,
,,,,,,,,,,,,,,,,,6102c2e209da1c42ee444f22,31,2022-02-12_14h37.04.227,lexical_decision_task_DD_L2,2021.2.3,MacIntel,59.97361161,,,,,,,,,,,,,,,,,,,,,,,,,,,,,,,,,,,,,,,,,,,,,,,,How likely will it be that you will recognize the words presented clearly on a scale of 0 (not likely) to 100 (most likely)?,,,,,0.017563095,-0.413799973,1,0,0,jol_adv,6,7.5962,0,0,0,0,1,,,,,,,,,,,,,,,,,,,,,
,,,,,,,,,,,,,,,,,6102c2e209da1c42ee444f22,31,2022-02-12_14h37.04.227,lexical_decision_task_DD_L2,2021.2.3,MacIntel,59.97361161,,,,,,,,,,,,,,,,,,,,,,,,,,,,,,,,,,,,,,,,,,,,,,,,How likely will it be that you will recognize the words presented very blurred on a scale of 0 (not likely) to 100 (most likely)?,,,,,,,,,,,6,1.0858,0,1,1,2,1,,,,,,,,,,,,,,,,,,,,,
,,,,,,,,,,,,,,,,,6102c2e209da1c42ee444f22,31,2022-02-12_14h37.04.227,lexical_decision_task_DD_L2,2021.2.3,MacIntel,59.97361161,,,,,,,,,,,,,,,,,,,,,,,,,,,,,,,,,,,,,,,,,,,,,,,,How likely will it be that you will recognize the words presented slighly blurred on a scale of 0 (not likely) to 100 (most likely)?,,,,,,,,,,,4,5.4561,0,2,2,1,1,,,,,,,,,,,,,,,,,,,,,
,,0.0444104,-0.399030075,1,0,0,,,,,,1,test,"In the next phase you will be presented with the words from the the first phase. Your job is to decide whether you remember seeing the word or not. If you remember seeing the word press ""old"" or type ""m"". If you do not remember seeing the word press ""new"" or type ""z"". Please press the space bar or click on continue to begin. ",,,6102c2e209da1c42ee444f22,31,2022-02-12_14h37.04.227,lexical_decision_task_DD_L2,2021.2.3,MacIntel,59.97361161,,,,,,,,,,,,,,,,,,,,,,,,,,,,,,,,,,,,,,,,,,,,,,,,,,,,,,,,,,,,,,,,,,instr_done_button,0,0,0,0,1,,,,,,,,,,,,,,,
space,1.607,0.011945267,-0.410757217,0,0,0,,,,,,1,test,"In the next phase you will be presented with the words from the the first phase. Your job is to decide whether you remember seeing the word or not. If you remember seeing the word press ""old"" or type ""m"". If you do not remember seeing the word press ""new"" or type ""z"". Please press the space bar or click on continue to begin. ",,,6102c2e209da1c42ee444f22,31,2022-02-12_14h37.04.227,lexical_decision_task_DD_L2,2021.2.3,MacIntel,59.97361161,,,,,,,,,,,,,,,,,,,,,,,,,,,,,,,,,,,,,,,,,,,,,,,,,,,,,,,,,,,,,,,,,,,1,0,1,0,1,,,,,,,,,,,,,,,
space,0.9198,0.011945267,-0.410757217,0,0,0,,,,,,1,test,"In the next phase you will be presented with the words from the the first phase. Your job is to decide whether you remember seeing the word or not. If you remember seeing the word press ""old"" or type ""m"". If you do not remember seeing the word press ""new"" or type ""z"". Please press the space bar or click on continue to begin. ",,,6102c2e209da1c42ee444f22,31,2022-02-12_14h37.04.227,lexical_decision_task_DD_L2,2021.2.3,MacIntel,59.97361161,,,,,,,,,,,,,,,,,,,,,,,,,,,,,,,,,,,,,,,,,,,,,,,,,,,,,,,,,,,,,,,,,,,2,0,2,0,1,,,,,,,,,,,,,,,
space,1.9891,0.006712875,-0.383181305,0,0,0,,,,,,1,test,"In the next phase you will be presented with the words from the the first phase. Your job is to decide whether you remember seeing the word or not. If you remember seeing the word press ""old"" or type ""m"". If you do not remember seeing the word press ""new"" or type ""z"". Please press the space bar or click on continue to begin. ",,,6102c2e209da1c42ee444f22,31,2022-02-12_14h37.04.227,lexical_decision_task_DD_L2,2021.2.3,MacIntel,59.97361161,,,,,,,,,,,,,,,,,,,,,,,,,,,,,,,,,,,,,,,,,,,,,,,,,,,,,,,,,,,,,,,,,,,3,0,3,0,1,,,,,,,,,,,,,,,
,,0.006712875,-0.383181305,1,0,0,,,,,,1,test,"In the next phase you will be presented with the words from the the first phase. Your job is to decide whether you remember seeing the word or not. If you remember seeing the word press ""old"" or type ""m"". If you do not remember seeing the word press ""new"" or type ""z"". Please press the space bar or click on continue to begin. ",,,6102c2e209da1c42ee444f22,31,2022-02-12_14h37.04.227,lexical_decision_task_DD_L2,2021.2.3,MacIntel,59.97361161,,,,,,,,,,,,,,,,,,,,,,,,,,,,,,,,,,,,,,,,,,,,,,,,,,,,,,,,,,,,,,,,,,instr_done_button,4,0,4,0,1,,,,,,,,,,,,,,,
,,,,,,,,,,,,,,,,,6102c2e209da1c42ee444f22,31,2022-02-12_14h37.04.227,lexical_decision_task_DD_L2,2021.2.3,MacIntel,59.97361161,,,,,,,,,,,0.98,1,,,,,,,,,,,,,,,,,,,,,,,,0.006712875,-0.383181305,0,0,0,,,,,,,WEASEL,C,m,y,./images/WEASEL.png,,,,,,,,,,,,,,,,,,,,,m,1,0.98,,,,,,,,0,0,0,80,1
,,,,,,,,,,,,,,,,,6102c2e209da1c42ee444f22,31,2022-02-12_14h37.04.227,lexical_decision_task_DD_L2,2021.2.3,MacIntel,59.97361161,,,,,,,,,,,1.3144,1,,,,,,,,,,,,,,,,,,,,,,,,0.006712875,-0.383181305,0,0,0,,,,,,,CRUMB,C,m,y,./images/CRUMB.png,,,,,,,,,,,,,,,,,,,,,m,1,1.3144,,,,,,,,0,1,1,29,1
,,,,,,,,,,,,,,,,,6102c2e209da1c42ee444f22,31,2022-02-12_14h37.04.227,lexical_decision_task_DD_L2,2021.2.3,MacIntel,59.97361161,,,,,,,,,,,0.6141,1,,,,,,,,,,,,,,,,,,,,,,,,0.006712875,-0.383181305,0,0,0,,,,,,,SAILOR,LB,m,y,./images/SAILORLB.png,,,,,,,,,,,,,,,,,,,,,m,1,0.6141,,,,,,,,0,2,2,67,1
,,,,,,,,,,,,,,,,,6102c2e209da1c42ee444f22,31,2022-02-12_14h37.04.227,lexical_decision_task_DD_L2,2021.2.3,MacIntel,59.97361161,,,,,,,,,,,1.6315,1,,,,,,,,,,,,,,,,,,,,,,,,0.006712875,-0.383181305,0,0,0,,,,,,,RAZOR,LB,z,y,./images/RAZORLB.png,,,,,,,,,,,,,,,,,,,,,z,1,1.6315,,,,,,,,0,3,3,118,1
,,,,,,,,,,,,,,,,,6102c2e209da1c42ee444f22,31,2022-02-12_14h37.04.227,lexical_decision_task_DD_L2,2021.2.3,MacIntel,59.97361161,,,,,,,,,,,0.703,1,,,,,,,,,,,,,,,,,,,,,,,,0.006712875,-0.383181305,0,0,0,,,,,,,FERRY,HB,z,y,./images/FERRYHB.png,,,,,,,,,,,,,,,,,,,,,z,1,0.703,,,,,,,,0,4,4,141,1
,,,,,,,,,,,,,,,,,6102c2e209da1c42ee444f22,31,2022-02-12_14h37.04.227,lexical_decision_task_DD_L2,2021.2.3,MacIntel,59.97361161,,,,,,,,,,,0.6811,1,,,,,,,,,,,,,,,,,,,,,,,,0.006712875,-0.383181305,0,0,0,,,,,,,THROAT,HB,m,y,./images/THROATHB.png,,,,,,,,,,,,,,,,,,,,,m,1,0.6811,,,,,,,,0,5,5,36,1
,,,,,,,,,,,,,,,,,6102c2e209da1c42ee444f22,31,2022-02-12_14h37.04.227,lexical_decision_task_DD_L2,2021.2.3,MacIntel,59.97361161,,,,,,,,,,,0.6955,1,,,,,,,,,,,,,,,,,,,,,,,,0.006712875,-0.383181305,0,0,0,,,,,,,SWEAT,HB,m,y,./images/SWEATHB.png,,,,,,,,,,,,,,,,,,,,,m,1,0.6955,,,,,,,,0,6,6,66,1
,,,,,,,,,,,,,,,,,6102c2e209da1c42ee444f22,31,2022-02-12_14h37.04.227,lexical_decision_task_DD_L2,2021.2.3,MacIntel,59.97361161,,,,,,,,,,,0.8155,1,,,,,,,,,,,,,,,,,,,,,,,,0.006712875,-0.383181305,0,0,0,,,,,,,CANDY,HB,z,y,./images/CANDYHB.png,,,,,,,,,,,,,,,,,,,,,z,1,0.8155,,,,,,,,0,7,7,123,1
,,,,,,,,,,,,,,,,,6102c2e209da1c42ee444f22,31,2022-02-12_14h37.04.227,lexical_decision_task_DD_L2,2021.2.3,MacIntel,59.97361161,,,,,,,,,,,0.683,1,,,,,,,,,,,,,,,,,,,,,,,,0.006712875,-0.383181305,0,0,0,,,,,,,TRIPOD,HB,m,y,./images/TRIPODHB.png,,,,,,,,,,,,,,,,,,,,,m,1,0.683,,,,,,,,0,8,8,54,1
,,,,,,,,,,,,,,,,,6102c2e209da1c42ee444f22,31,2022-02-12_14h37.04.227,lexical_decision_task_DD_L2,2021.2.3,MacIntel,59.97361161,,,,,,,,,,,0.55,1,,,,,,,,,,,,,,,,,,,,,,,,0.006712875,-0.383181305,0,0,0,,,,,,,ONION,HB,m,y,./images/ONIONHB.png,,,,,,,,,,,,,,,,,,,,,m,1,0.55,,,,,,,,0,9,9,51,1
,,,,,,,,,,,,,,,,,6102c2e209da1c42ee444f22,31,2022-02-12_14h37.04.227,lexical_decision_task_DD_L2,2021.2.3,MacIntel,59.97361161,,,,,,,,,,,0.6994,1,,,,,,,,,,,,,,,,,,,,,,,,0.006712875,-0.383181305,0,0,0,,,,,,,CARPET,C,m,y,./images/CARPET.png,,,,,,,,,,,,,,,,,,,,,m,1,0.6994,,,,,,,,0,10,10,53,1
,,,,,,,,,,,,,,,,,6102c2e209da1c42ee444f22,31,2022-02-12_14h37.04.227,lexical_decision_task_DD_L2,2021.2.3,MacIntel,59.97361161,,,,,,,,,,,0.7997,1,,,,,,,,,,,,,,,,,,,,,,,,0.006712875,-0.383181305,0,0,0,,,,,,,SAUCE,HB,z,y,./images/SAUCEHB.png,,,,,,,,,,,,,,,,,,,,,z,1,0.7997,,,,,,,,0,11,11,135,1
,,,,,,,,,,,,,,,,,6102c2e209da1c42ee444f22,31,2022-02-12_14h37.04.227,lexical_decision_task_DD_L2,2021.2.3,MacIntel,59.97361161,,,,,,,,,,,0.6693,1,,,,,,,,,,,,,,,,,,,,,,,,0.006712875,-0.383181305,0,0,0,,,,,,,FARMER,C,m,y,./images/FARMER.png,,,,,,,,,,,,,,,,,,,,,m,1,0.6693,,,,,,,,0,12,12,65,1
,,,,,,,,,,,,,,,,,6102c2e209da1c42ee444f22,31,2022-02-12_14h37.04.227,lexical_decision_task_DD_L2,2021.2.3,MacIntel,59.97361161,,,,,,,,,,,0.6151,1,,,,,,,,,,,,,,,,,,,,,,,,0.006712875,-0.383181305,0,0,0,,,,,,,MOSQUE,LB,m,y,./images/MOSQUELB.png,,,,,,,,,,,,,,,,,,,,,m,1,0.6151,,,,,,,,0,13,13,43,1
,,,,,,,,,,,,,,,,,6102c2e209da1c42ee444f22,31,2022-02-12_14h37.04.227,lexical_decision_task_DD_L2,2021.2.3,MacIntel,59.97361161,,,,,,,,,,,0.5653,1,,,,,,,,,,,,,,,,,,,,,,,,0.006712875,-0.383181305,0,0,0,,,,,,,LITTER,HB,m,y,./images/LITTERHB.png,,,,,,,,,,,,,,,,,,,,,m,1,0.5653,,,,,,,,0,14,14,78,1
,,,,,,,,,,,,,,,,,6102c2e209da1c42ee444f22,31,2022-02-12_14h37.04.227,lexical_decision_task_DD_L2,2021.2.3,MacIntel,59.97361161,,,,,,,,,,,1.5164,0,,,,,,,,,,,,,,,,,,,,,,,,0.006712875,-0.383181305,0,0,0,,,,,,,STOOL,LB,z,y,./images/STOOLLB.png,,,,,,,,,,,,,,,,,,,,,m,0,1.5164,,,,,,,,0,15,15,127,1
,,,,,,,,,,,,,,,,,6102c2e209da1c42ee444f22,31,2022-02-12_14h37.04.227,lexical_decision_task_DD_L2,2021.2.3,MacIntel,59.97361161,,,,,,,,,,,0.6649,1,,,,,,,,,,,,,,,,,,,,,,,,0.006712875,-0.383181305,0,0,0,,,,,,,BIRTH,LB,m,y,./images/BIRTHLB.png,,,,,,,,,,,,,,,,,,,,,m,1,0.6649,,,,,,,,0,16,16,37,1
,,,,,,,,,,,,,,,,,6102c2e209da1c42ee444f22,31,2022-02-12_14h37.04.227,lexical_decision_task_DD_L2,2021.2.3,MacIntel,59.97361161,,,,,,,,,,,0.882,0,,,,,,,,,,,,,,,,,,,,,,,,0.006712875,-0.383181305,0,0,0,,,,,,,CLOTH,C,z,y,./images/CLOTH.png,,,,,,,,,,,,,,,,,,,,,m,0,0.882,,,,,,,,0,17,17,107,1
,,,,,,,,,,,,,,,,,6102c2e209da1c42ee444f22,31,2022-02-12_14h37.04.227,lexical_decision_task_DD_L2,2021.2.3,MacIntel,59.97361161,,,,,,,,,,,0.5961,1,,,,,,,,,,,,,,,,,,,,,,,,0.006712875,-0.383181305,0,0,0,,,,,,,MAGGOT,HB,m,y,./images/MAGGOTHB.png,,,,,,,,,,,,,,,,,,,,,m,1,0.5961,,,,,,,,0,18,18,33,1
,,,,,,,,,,,,,,,,,6102c2e209da1c42ee444f22,31,2022-02-12_14h37.04.227,lexical_decision_task_DD_L2,2021.2.3,MacIntel,59.97361161,,,,,,,,,,,0.5339,1,,,,,,,,,,,,,,,,,,,,,,,,0.006712875,-0.383181305,0,0,0,,,,,,,RHINO,HB,m,y,./images/RHINOHB.png,,,,,,,,,,,,,,,,,,,,,m,1,0.5339,,,,,,,,0,19,19,9,1
,,,,,,,,,,,,,,,,,6102c2e209da1c42ee444f22,31,2022-02-12_14h37.04.227,lexical_decision_task_DD_L2,2021.2.3,MacIntel,59.97361161,,,,,,,,,,,0.6856,1,,,,,,,,,,,,,,,,,,,,,,,,0.006712875,-0.383181305,0,0,0,,,,,,,SHELF,HB,m,y,./images/SHELFHB.png,,,,,,,,,,,,,,,,,,,,,m,1,0.6856,,,,,,,,0,20,20,39,1
,,,,,,,,,,,,,,,,,6102c2e209da1c42ee444f22,31,2022-02-12_14h37.04.227,lexical_decision_task_DD_L2,2021.2.3,MacIntel,59.97361161,,,,,,,,,,,0.6496,1,,,,,,,,,,,,,,,,,,,,,,,,0.006712875,-0.383181305,0,0,0,,,,,,,SWING,LB,m,y,./images/SWINGLB.png,,,,,,,,,,,,,,,,,,,,,m,1,0.6496,,,,,,,,0,21,21,40,1
,,,,,,,,,,,,,,,,,6102c2e209da1c42ee444f22,31,2022-02-12_14h37.04.227,lexical_decision_task_DD_L2,2021.2.3,MacIntel,59.97361161,,,,,,,,,,,0.6159,0,,,,,,,,,,,,,,,,,,,,,,,,0.006712875,-0.383181305,0,0,0,,,,,,,GLOVE,LB,z,y,./images/GLOVELB.png,,,,,,,,,,,,,,,,,,,,,m,0,0.6159,,,,,,,,0,22,22,157,1
,,,,,,,,,,,,,,,,,6102c2e209da1c42ee444f22,31,2022-02-12_14h37.04.227,lexical_decision_task_DD_L2,2021.2.3,MacIntel,59.97361161,,,,,,,,,,,0.6473,0,,,,,,,,,,,,,,,,,,,,,,,,0.006712875,-0.383181305,0,0,0,,,,,,,STRING,C,m,y,./images/STRING.png,,,,,,,,,,,,,,,,,,,,,z,0,0.6473,,,,,,,,0,23,23,41,1
,,,,,,,,,,,,,,,,,6102c2e209da1c42ee444f22,31,2022-02-12_14h37.04.227,lexical_decision_task_DD_L2,2021.2.3,MacIntel,59.97361161,,,,,,,,,,,0.5647,1,,,,,,,,,,,,,,,,,,,,,,,,0.006712875,-0.383181305,0,0,0,,,,,,,LADDER,C,m,y,./images/LADDER.png,,,,,,,,,,,,,,,,,,,,,m,1,0.5647,,,,,,,,0,24,24,38,1
,,,,,,,,,,,,,,,,,6102c2e209da1c42ee444f22,31,2022-02-12_14h37.04.227,lexical_decision_task_DD_L2,2021.2.3,MacIntel,59.97361161,,,,,,,,,,,0.6164,1,,,,,,,,,,,,,,,,,,,,,,,,0.006712875,-0.383181305,0,0,0,,,,,,,CEMENT,C,m,y,./images/CEMENT.png,,,,,,,,,,,,,,,,,,,,,m,1,0.6164,,,,,,,,0,25,25,74,1
,,,,,,,,,,,,,,,,,6102c2e209da1c42ee444f22,31,2022-02-12_14h37.04.227,lexical_decision_task_DD_L2,2021.2.3,MacIntel,59.97361161,,,,,,,,,,,1.7149,0,,,,,,,,,,,,,,,,,,,,,,,,0.006712875,-0.383181305,0,0,0,,,,,,,PAINT,LB,m,y,./images/PAINTLB.png,,,,,,,,,,,,,,,,,,,,,z,0,1.7149,,,,,,,,0,26,26,7,1
,,,,,,,,,,,,,,,,,6102c2e209da1c42ee444f22,31,2022-02-12_14h37.04.227,lexical_decision_task_DD_L2,2021.2.3,MacIntel,59.97361161,,,,,,,,,,,0.8316,1,,,,,,,,,,,,,,,,,,,,,,,,0.006712875,-0.383181305,0,0,0,,,,,,,BROOM,HB,z,y,./images/BROOMHB.png,,,,,,,,,,,,,,,,,,,,,z,1,0.8316,,,,,,,,0,27,27,162,1
,,,,,,,,,,,,,,,,,6102c2e209da1c42ee444f22,31,2022-02-12_14h37.04.227,lexical_decision_task_DD_L2,2021.2.3,MacIntel,59.97361161,,,,,,,,,,,0.6139,1,,,,,,,,,,,,,,,,,,,,,,,,0.006712875,-0.383181305,0,0,0,,,,,,,PEACH,C,m,y,./images/PEACH.png,,,,,,,,,,,,,,,,,,,,,m,1,0.6139,,,,,,,,0,28,28,35,1
,,,,,,,,,,,,,,,,,6102c2e209da1c42ee444f22,31,2022-02-12_14h37.04.227,lexical_decision_task_DD_L2,2021.2.3,MacIntel,59.97361161,,,,,,,,,,,1.5381,0,,,,,,,,,,,,,,,,,,,,,,,,0.006712875,-0.383181305,0,0,0,,,,,,,CHALK,LB,z,y,./images/CHALKLB.png,,,,,,,,,,,,,,,,,,,,,m,0,1.5381,,,,,,,,0,29,29,109,1
,,,,,,,,,,,,,,,,,6102c2e209da1c42ee444f22,31,2022-02-12_14h37.04.227,lexical_decision_task_DD_L2,2021.2.3,MacIntel,59.97361161,,,,,,,,,,,1.0521,1,,,,,,,,,,,,,,,,,,,,,,,,0.006712875,-0.383181305,0,0,0,,,,,,,NOOSE,HB,m,y,./images/NOOSEHB.png,,,,,,,,,,,,,,,,,,,,,m,1,1.0521,,,,,,,,0,30,30,72,1
,,,,,,,,,,,,,,,,,6102c2e209da1c42ee444f22,31,2022-02-12_14h37.04.227,lexical_decision_task_DD_L2,2021.2.3,MacIntel,59.97361161,,,,,,,,,,,0.9175,1,,,,,,,,,,,,,,,,,,,,,,,,0.006712875,-0.383181305,0,0,0,,,,,,,FLASK,HB,z,y,./images/FLASKHB.png,,,,,,,,,,,,,,,,,,,,,z,1,0.9175,,,,,,,,0,31,31,156,1
,,,,,,,,,,,,,,,,,6102c2e209da1c42ee444f22,31,2022-02-12_14h37.04.227,lexical_decision_task_DD_L2,2021.2.3,MacIntel,59.97361161,,,,,,,,,,,0.7154,1,,,,,,,,,,,,,,,,,,,,,,,,0.006712875,-0.383181305,0,0,0,,,,,,,SMOKER,C,m,y,./images/SMOKER.png,,,,,,,,,,,,,,,,,,,,,m,1,0.7154,,,,,,,,0,32,32,26,1
,,,,,,,,,,,,,,,,,6102c2e209da1c42ee444f22,31,2022-02-12_14h37.04.227,lexical_decision_task_DD_L2,2021.2.3,MacIntel,59.97361161,,,,,,,,,,,0.5699,0,,,,,,,,,,,,,,,,,,,,,,,,0.006712875,-0.383181305,0,0,0,,,,,,,FENCE,C,z,y,./images/FENCE.png,,,,,,,,,,,,,,,,,,,,,m,0,0.5699,,,,,,,,0,33,33,98,1
,,,,,,,,,,,,,,,,,6102c2e209da1c42ee444f22,31,2022-02-12_14h37.04.227,lexical_decision_task_DD_L2,2021.2.3,MacIntel,59.97361161,,,,,,,,,,,0.965,1,,,,,,,,,,,,,,,,,,,,,,,,0.006712875,-0.383181305,0,0,0,,,,,,,TIGER,LB,z,y,./images/TIGERLB.png,,,,,,,,,,,,,,,,,,,,,z,1,0.965,,,,,,,,0,34,34,121,1
,,,,,,,,,,,,,,,,,6102c2e209da1c42ee444f22,31,2022-02-12_14h37.04.227,lexical_decision_task_DD_L2,2021.2.3,MacIntel,59.97361161,,,,,,,,,,,1.5508,0,,,,,,,,,,,,,,,,,,,,,,,,0.006712875,-0.383181305,0,0,0,,,,,,,SUNSET,LB,m,y,./images/SUNSETLB.png,,,,,,,,,,,,,,,,,,,,,z,0,1.5508,,,,,,,,0,35,35,82,1
,,,,,,,,,,,,,,,,,6102c2e209da1c42ee444f22,31,2022-02-12_14h37.04.227,lexical_decision_task_DD_L2,2021.2.3,MacIntel,59.97361161,,,,,,,,,,,0.5952,1,,,,,,,,,,,,,,,,,,,,,,,,0.006712875,-0.383181305,0,0,0,,,,,,,TULIP,C,m,y,./images/TULIP.png,,,,,,,,,,,,,,,,,,,,,m,1,0.5952,,,,,,,,0,36,36,8,1
,,,,,,,,,,,,,,,,,6102c2e209da1c42ee444f22,31,2022-02-12_14h37.04.227,lexical_decision_task_DD_L2,2021.2.3,MacIntel,59.97361161,,,,,,,,,,,0.5842,0,,,,,,,,,,,,,,,,,,,,,,,,0.006712875,-0.383181305,0,0,0,,,,,,,HAMMER,HB,z,y,./images/HAMMERHB.png,,,,,,,,,,,,,,,,,,,,,m,0,0.5842,,,,,,,,0,37,37,159,1
,,,,,,,,,,,,,,,,,6102c2e209da1c42ee444f22,31,2022-02-12_14h37.04.227,lexical_decision_task_DD_L2,2021.2.3,MacIntel,59.97361161,,,,,,,,,,,0.7127,1,,,,,,,,,,,,,,,,,,,,,,,,0.006712875,-0.383181305,0,0,0,,,,,,,BASKET,C,z,y,./images/BASKET.png,,,,,,,,,,,,,,,,,,,,,z,1,0.7127,,,,,,,,0,38,38,128,1
,,,,,,,,,,,,,,,,,6102c2e209da1c42ee444f22,31,2022-02-12_14h37.04.227,lexical_decision_task_DD_L2,2021.2.3,MacIntel,59.97361161,,,,,,,,,,,0.7151,1,,,,,,,,,,,,,,,,,,,,,,,,0.006712875,-0.383181305,0,0,0,,,,,,,CHERRY,HB,z,y,./images/CHERRYHB.png,,,,,,,,,,,,,,,,,,,,,z,1,0.7151,,,,,,,,0,39,39,138,1
,,,,,,,,,,,,,,,,,6102c2e209da1c42ee444f22,31,2022-02-12_14h37.04.227,lexical_decision_task_DD_L2,2021.2.3,MacIntel,59.97361161,,,,,,,,,,,0.9147,1,,,,,,,,,,,,,,,,,,,,,,,,0.006712875,-0.383181305,0,0,0,,,,,,,LLAMA,C,z,y,./images/LLAMA.png,,,,,,,,,,,,,,,,,,,,,z,1,0.9147,,,,,,,,0,40,40,119,1
,,,,,,,,,,,,,,,,,6102c2e209da1c42ee444f22,31,2022-02-12_14h37.04.227,lexical_decision_task_DD_L2,2021.2.3,MacIntel,59.97361161,,,,,,,,,,,0.7807,0,,,,,,,,,,,,,,,,,,,,,,,,0.006712875,-0.383181305,0,0,0,space,,,,,,GRAPE,LB,z,y,./images/GRAPELB.png,2.5013,,,,,,,,,,,,,,,,,,,,m,0,0.7807,,,,,,,,0,41,41,100,1
,,,,,,,,,,,,,,,,,6102c2e209da1c42ee444f22,31,2022-02-12_14h37.04.227,lexical_decision_task_DD_L2,2021.2.3,MacIntel,59.97361161,,,,,,,,,,,0.6826,1,,,,,,,,,,,,,,,,,,,,,,,,0.006712875,-0.383181305,0,0,0,,,,,,,WRIST,LB,m,y,./images/WRISTLB.png,,,,,,,,,,,,,,,,,,,,,m,1,0.6826,,,,,,,,0,42,42,25,1
,,,,,,,,,,,,,,,,,6102c2e209da1c42ee444f22,31,2022-02-12_14h37.04.227,lexical_decision_task_DD_L2,2021.2.3,MacIntel,59.97361161,,,,,,,,,,,0.5992,1,,,,,,,,,,,,,,,,,,,,,,,,0.006712875,-0.383181305,0,0,0,,,,,,,DANCER,HB,z,y,./images/DANCERHB.png,,,,,,,,,,,,,,,,,,,,,z,1,0.5992,,,,,,,,0,43,43,105,1
,,,,,,,,,,,,,,,,,6102c2e209da1c42ee444f22,31,2022-02-12_14h37.04.227,lexical_decision_task_DD_L2,2021.2.3,MacIntel,59.97361161,,,,,,,,,,,0.6677,0,,,,,,,,,,,,,,,,,,,,,,,,0.006712875,-0.383181305,0,0,0,,,,,,,SCREW,HB,m,y,./images/SCREWHB.png,,,,,,,,,,,,,,,,,,,,,z,0,0.6677,,,,,,,,0,44,44,24,1
,,,,,,,,,,,,,,,,,6102c2e209da1c42ee444f22,31,2022-02-12_14h37.04.227,lexical_decision_task_DD_L2,2021.2.3,MacIntel,59.97361161,,,,,,,,,,,0.5852,1,,,,,,,,,,,,,,,,,,,,,,,,0.006712875,-0.383181305,0,0,0,,,,,,,PEARL,LB,m,y,./images/PEARLLB.png,,,,,,,,,,,,,,,,,,,,,m,1,0.5852,,,,,,,,0,45,45,46,1
,,,,,,,,,,,,,,,,,6102c2e209da1c42ee444f22,31,2022-02-12_14h37.04.227,lexical_decision_task_DD_L2,2021.2.3,MacIntel,59.97361161,,,,,,,,,,,0.6179,0,,,,,,,,,,,,,,,,,,,,,,,,0.006712875,-0.383181305,0,0,0,,,,,,,SPORT,HB,m,y,./images/SPORTHB.png,,,,,,,,,,,,,,,,,,,,,z,0,0.6179,,,,,,,,0,46,46,48,1
,,,,,,,,,,,,,,,,,6102c2e209da1c42ee444f22,31,2022-02-12_14h37.04.227,lexical_decision_task_DD_L2,2021.2.3,MacIntel,59.97361161,,,,,,,,,,,0.4794,1,,,,,,,,,,,,,,,,,,,,,,,,0.006712875,-0.383181305,0,0,0,,,,,,,TORCH,C,m,y,./images/TORCH.png,,,,,,,,,,,,,,,,,,,,,m,1,0.4794,,,,,,,,0,47,47,68,1
,,,,,,,,,,,,,,,,,6102c2e209da1c42ee444f22,31,2022-02-12_14h37.04.227,lexical_decision_task_DD_L2,2021.2.3,MacIntel,59.97361161,,,,,,,,,,,0.5799,1,,,,,,,,,,,,,,,,,,,,,,,,0.006712875,-0.383181305,0,0,0,,,,,,,STAIN,HB,z,y,./images/STAINHB.png,,,,,,,,,,,,,,,,,,,,,z,1,0.5799,,,,,,,,0,48,48,90,1
,,,,,,,,,,,,,,,,,6102c2e209da1c42ee444f22,31,2022-02-12_14h37.04.227,lexical_decision_task_DD_L2,2021.2.3,MacIntel,59.97361161,,,,,,,,,,,0.5823,1,,,,,,,,,,,,,,,,,,,,,,,,0.006712875,-0.383181305,0,0,0,,,,,,,LIZARD,C,m,y,./images/LIZARD.png,,,,,,,,,,,,,,,,,,,,,m,1,0.5823,,,,,,,,0,49,49,44,1
,,,,,,,,,,,,,,,,,6102c2e209da1c42ee444f22,31,2022-02-12_14h37.04.227,lexical_decision_task_DD_L2,2021.2.3,MacIntel,59.97361161,,,,,,,,,,,0.6507,1,,,,,,,,,,,,,,,,,,,,,,,,0.006712875,-0.383181305,0,0,0,,,,,,,PARADE,C,z,y,./images/PARADE.png,,,,,,,,,,,,,,,,,,,,,z,1,0.6507,,,,,,,,0,50,50,101,1
,,,,,,,,,,,,,,,,,6102c2e209da1c42ee444f22,31,2022-02-12_14h37.04.227,lexical_decision_task_DD_L2,2021.2.3,MacIntel,59.97361161,,,,,,,,,,,0.8286,1,,,,,,,,,,,,,,,,,,,,,,,,0.006712875,-0.383181305,0,0,0,,,,,,,ALLEY,LB,z,y,./images/ALLEYLB.png,,,,,,,,,,,,,,,,,,,,,z,1,0.8286,,,,,,,,0,51,51,139,1
,,,,,,,,,,,,,,,,,6102c2e209da1c42ee444f22,31,2022-02-12_14h37.04.227,lexical_decision_task_DD_L2,2021.2.3,MacIntel,59.97361161,,,,,,,,,,,0.9634,1,,,,,,,,,,,,,,,,,,,,,,,,0.006712875,-0.383181305,0,0,0,,,,,,,CURRY,HB,z,y,./images/CURRYHB.png,,,,,,,,,,,,,,,,,,,,,z,1,0.9634,,,,,,,,0,52,52,144,1
,,,,,,,,,,,,,,,,,6102c2e209da1c42ee444f22,31,2022-02-12_14h37.04.227,lexical_decision_task_DD_L2,2021.2.3,MacIntel,59.97361161,,,,,,,,,,,0.5698,1,,,,,,,,,,,,,,,,,,,,,,,,0.006712875,-0.383181305,0,0,0,,,,,,,MUSCLE,LB,m,y,./images/MUSCLELB.png,,,,,,,,,,,,,,,,,,,,,m,1,0.5698,,,,,,,,0,53,53,4,1
,,,,,,,,,,,,,,,,,6102c2e209da1c42ee444f22,31,2022-02-12_14h37.04.227,lexical_decision_task_DD_L2,2021.2.3,MacIntel,59.97361161,,,,,,,,,,,0.7148,1,,,,,,,,,,,,,,,,,,,,,,,,0.006712875,-0.383181305,0,0,0,,,,,,,SLOPE,HB,z,y,./images/SLOPEHB.png,,,,,,,,,,,,,,,,,,,,,z,1,0.7148,,,,,,,,0,54,54,114,1
,,,,,,,,,,,,,,,,,6102c2e209da1c42ee444f22,31,2022-02-12_14h37.04.227,lexical_decision_task_DD_L2,2021.2.3,MacIntel,59.97361161,,,,,,,,,,,0.6652,1,,,,,,,,,,,,,,,,,,,,,,,,0.006712875,-0.383181305,0,0,0,,,,,,,BANANA,LB,z,y,./images/BANANALB.png,,,,,,,,,,,,,,,,,,,,,z,1,0.6652,,,,,,,,0,55,55,154,1
,,,,,,,,,,,,,,,,,6102c2e209da1c42ee444f22,31,2022-02-12_14h37.04.227,lexical_decision_task_DD_L2,2021.2.3,MacIntel,59.97361161,,,,,,,,,,,0.6485,1,,,,,,,,,,,,,,,,,,,,,,,,0.006712875,-0.383181305,0,0,0,,,,,,,ARTIST,LB,z,y,./images/ARTISTLB.png,,,,,,,,,,,,,,,,,,,,,z,1,0.6485,,,,,,,,0,56,56,145,1
,,,,,,,,,,,,,,,,,6102c2e209da1c42ee444f22,31,2022-02-12_14h37.04.227,lexical_decision_task_DD_L2,2021.2.3,MacIntel,59.97361161,,,,,,,,,,,0.5312,0,,,,,,,,,,,,,,,,,,,,,,,,0.006712875,-0.383181305,0,0,0,,,,,,,CLOUD,C,z,y,./images/CLOUD.png,,,,,,,,,,,,,,,,,,,,,m,0,0.5312,,,,,,,,0,57,57,110,1
,,,,,,,,,,,,,,,,,6102c2e209da1c42ee444f22,31,2022-02-12_14h37.04.227,lexical_decision_task_DD_L2,2021.2.3,MacIntel,59.97361161,,,,,,,,,,,0.683,1,,,,,,,,,,,,,,,,,,,,,,,,0.006712875,-0.383181305,0,0,0,,,,,,,PLANK,LB,m,y,./images/PLANKLB.png,,,,,,,,,,,,,,,,,,,,,m,1,0.683,,,,,,,,0,58,58,1,1
,,,,,,,,,,,,,,,,,6102c2e209da1c42ee444f22,31,2022-02-12_14h37.04.227,lexical_decision_task_DD_L2,2021.2.3,MacIntel,59.97361161,,,,,,,,,,,1.0299,0,,,,,,,,,,,,,,,,,,,,,,,,0.006712875,-0.383181305,0,0,0,,,,,,,STATUE,HB,z,y,./images/STATUEHB.png,,,,,,,,,,,,,,,,,,,,,m,0,1.0299,,,,,,,,0,59,59,150,1
,,,,,,,,,,,,,,,,,6102c2e209da1c42ee444f22,31,2022-02-12_14h37.04.227,lexical_decision_task_DD_L2,2021.2.3,MacIntel,59.97361161,,,,,,,,,,,0.6709,1,,,,,,,,,,,,,,,,,,,,,,,,0.006712875,-0.383181305,0,0,0,,,,,,,KIDNEY,HB,m,y,./images/KIDNEYHB.png,,,,,,,,,,,,,,,,,,,,,m,1,0.6709,,,,,,,,0,60,60,21,1
,,,,,,,,,,,,,,,,,6102c2e209da1c42ee444f22,31,2022-02-12_14h37.04.227,lexical_decision_task_DD_L2,2021.2.3,MacIntel,59.97361161,,,,,,,,,,,0.8152,0,,,,,,,,,,,,,,,,,,,,,,,,0.006712875,-0.383181305,0,0,0,,,,,,,DIVER,HB,z,y,./images/DIVERHB.png,,,,,,,,,,,,,,,,,,,,,m,0,0.8152,,,,,,,,0,61,61,93,1
,,,,,,,,,,,,,,,,,6102c2e209da1c42ee444f22,31,2022-02-12_14h37.04.227,lexical_decision_task_DD_L2,2021.2.3,MacIntel,59.97361161,,,,,,,,,,,1.1482,1,,,,,,,,,,,,,,,,,,,,,,,,0.006712875,-0.383181305,0,0,0,,,,,,,SHORE,HB,m,y,./images/SHOREHB.png,,,,,,,,,,,,,,,,,,,,,m,1,1.1482,,,,,,,,0,62,62,12,1
,,,,,,,,,,,,,,,,,6102c2e209da1c42ee444f22,31,2022-02-12_14h37.04.227,lexical_decision_task_DD_L2,2021.2.3,MacIntel,59.97361161,,,,,,,,,,,0.83,0,,,,,,,,,,,,,,,,,,,,,,,,0.006712875,-0.383181305,0,0,0,,,,,,,POODLE,HB,m,y,./images/POODLEHB.png,,,,,,,,,,,,,,,,,,,,,z,0,0.83,,,,,,,,0,63,63,81,1
,,,,,,,,,,,,,,,,,6102c2e209da1c42ee444f22,31,2022-02-12_14h37.04.227,lexical_decision_task_DD_L2,2021.2.3,MacIntel,59.97361161,,,,,,,,,,,0.7194,1,,,,,,,,,,,,,,,,,,,,,,,,0.006712875,-0.383181305,0,0,0,,,,,,,CANOE,LB,z,y,./images/CANOELB.png,,,,,,,,,,,,,,,,,,,,,z,1,0.7194,,,,,,,,0,64,64,142,1
,,,,,,,,,,,,,,,,,6102c2e209da1c42ee444f22,31,2022-02-12_14h37.04.227,lexical_decision_task_DD_L2,2021.2.3,MacIntel,59.97361161,,,,,,,,,,,0.8519,0,,,,,,,,,,,,,,,,,,,,,,,,0.006712875,-0.383181305,0,0,0,,,,,,,CRUST,LB,m,y,./images/CRUSTLB.png,,,,,,,,,,,,,,,,,,,,,z,0,0.8519,,,,,,,,0,65,65,79,1
,,,,,,,,,,,,,,,,,6102c2e209da1c42ee444f22,31,2022-02-12_14h37.04.227,lexical_decision_task_DD_L2,2021.2.3,MacIntel,59.97361161,,,,,,,,,,,1.0335,0,,,,,,,,,,,,,,,,,,,,,,,,0.006712875,-0.383181305,0,0,0,,,,,,,QUILL,LB,m,y,./images/QUILLLB.png,,,,,,,,,,,,,,,,,,,,,z,0,1.0335,,,,,,,,0,66,66,31,1
,,,,,,,,,,,,,,,,,6102c2e209da1c42ee444f22,31,2022-02-12_14h37.04.227,lexical_decision_task_DD_L2,2021.2.3,MacIntel,59.97361161,,,,,,,,,,,0.7312,1,,,,,,,,,,,,,,,,,,,,,,,,0.006712875,-0.383181305,0,0,0,,,,,,,LAGOON,C,z,y,./images/LAGOON.png,,,,,,,,,,,,,,,,,,,,,z,1,0.7312,,,,,,,,0,67,67,131,1
,,,,,,,,,,,,,,,,,6102c2e209da1c42ee444f22,31,2022-02-12_14h37.04.227,lexical_decision_task_DD_L2,2021.2.3,MacIntel,59.97361161,,,,,,,,,,,0.6637,1,,,,,,,,,,,,,,,,,,,,,,,,0.006712875,-0.383181305,0,0,0,,,,,,,FLESH,HB,z,y,./images/FLESHHB.png,,,,,,,,,,,,,,,,,,,,,z,1,0.6637,,,,,,,,0,68,68,108,1
,,,,,,,,,,,,,,,,,6102c2e209da1c42ee444f22,31,2022-02-12_14h37.04.227,lexical_decision_task_DD_L2,2021.2.3,MacIntel,59.97361161,,,,,,,,,,,0.7833,1,,,,,,,,,,,,,,,,,,,,,,,,0.006712875,-0.383181305,0,0,0,,,,,,,GARDEN,LB,z,y,./images/GARDENLB.png,,,,,,,,,,,,,,,,,,,,,z,1,0.7833,,,,,,,,0,69,69,94,1
,,,,,,,,,,,,,,,,,6102c2e209da1c42ee444f22,31,2022-02-12_14h37.04.227,lexical_decision_task_DD_L2,2021.2.3,MacIntel,59.97361161,,,,,,,,,,,0.75,1,,,,,,,,,,,,,,,,,,,,,,,,0.006712875,-0.383181305,0,0,0,,,,,,,PICKLE,C,m,y,./images/PICKLE.png,,,,,,,,,,,,,,,,,,,,,m,1,0.75,,,,,,,,0,70,70,14,1
,,,,,,,,,,,,,,,,,6102c2e209da1c42ee444f22,31,2022-02-12_14h37.04.227,lexical_decision_task_DD_L2,2021.2.3,MacIntel,59.97361161,,,,,,,,,,,0.6655,1,,,,,,,,,,,,,,,,,,,,,,,,0.006712875,-0.383181305,0,0,0,,,,,,,HOCKEY,C,z,y,./images/HOCKEY.png,,,,,,,,,,,,,,,,,,,,,z,1,0.6655,,,,,,,,0,71,71,116,1
,,,,,,,,,,,,,,,,,6102c2e209da1c42ee444f22,31,2022-02-12_14h37.04.227,lexical_decision_task_DD_L2,2021.2.3,MacIntel,59.97361161,,,,,,,,,,,1.0142,1,,,,,,,,,,,,,,,,,,,,,,,,0.006712875,-0.383181305,0,0,0,,,,,,,PASTA,C,m,y,./images/PASTA.png,,,,,,,,,,,,,,,,,,,,,m,1,1.0142,,,,,,,,0,72,72,5,1
,,,,,,,,,,,,,,,,,6102c2e209da1c42ee444f22,31,2022-02-12_14h37.04.227,lexical_decision_task_DD_L2,2021.2.3,MacIntel,59.97361161,,,,,,,,,,,0.6156,1,,,,,,,,,,,,,,,,,,,,,,,,0.006712875,-0.383181305,0,0,0,,,,,,,STEAK,LB,z,y,./images/STEAKLB.png,,,,,,,,,,,,,,,,,,,,,z,1,0.6156,,,,,,,,0,73,73,115,1
,,,,,,,,,,,,,,,,,6102c2e209da1c42ee444f22,31,2022-02-12_14h37.04.227,lexical_decision_task_DD_L2,2021.2.3,MacIntel,59.97361161,,,,,,,,,,,0.5322,1,,,,,,,,,,,,,,,,,,,,,,,,0.006712875,-0.383181305,0,0,0,,,,,,,SNAKE,LB,z,y,./images/SNAKELB.png,,,,,,,,,,,,,,,,,,,,,z,1,0.5322,,,,,,,,0,74,74,124,1
,,,,,,,,,,,,,,,,,6102c2e209da1c42ee444f22,31,2022-02-12_14h37.04.227,lexical_decision_task_DD_L2,2021.2.3,MacIntel,59.97361161,,,,,,,,,,,0.8308,0,,,,,,,,,,,,,,,,,,,,,,,,0.006712875,-0.383181305,0,0,0,,,,,,,POSTER,C,z,y,./images/POSTER.png,,,,,,,,,,,,,,,,,,,,,m,0,0.8308,,,,,,,,0,75,75,137,1
,,,,,,,,,,,,,,,,,6102c2e209da1c42ee444f22,31,2022-02-12_14h37.04.227,lexical_decision_task_DD_L2,2021.2.3,MacIntel,59.97361161,,,,,,,,,,,0.6784,1,,,,,,,,,,,,,,,,,,,,,,,,0.006712875,-0.383181305,0,0,0,,,,,,,WHISKY,C,z,y,./images/WHISKY.png,,,,,,,,,,,,,,,,,,,,,z,1,0.6784,,,,,,,,0,76,76,167,1
,,,,,,,,,,,,,,,,,6102c2e209da1c42ee444f22,31,2022-02-12_14h37.04.227,lexical_decision_task_DD_L2,2021.2.3,MacIntel,59.97361161,,,,,,,,,,,0.5634,1,,,,,,,,,,,,,,,,,,,,,,,,0.006712875,-0.383181305,0,0,0,,,,,,,POKER,LB,z,y,./images/POKERLB.png,,,,,,,,,,,,,,,,,,,,,z,1,0.5634,,,,,,,,0,77,77,151,1
,,,,,,,,,,,,,,,,,6102c2e209da1c42ee444f22,31,2022-02-12_14h37.04.227,lexical_decision_task_DD_L2,2021.2.3,MacIntel,59.97361161,,,,,,,,,,,0.8543,0,,,,,,,,,,,,,,,,,,,,,,,,0.006712875,-0.383181305,0,0,0,,,,,,,CASINO,LB,z,y,./images/CASINOLB.png,,,,,,,,,,,,,,,,,,,,,m,0,0.8543,,,,,,,,0,78,78,112,1
,,,,,,,,,,,,,,,,,6102c2e209da1c42ee444f22,31,2022-02-12_14h37.04.227,lexical_decision_task_DD_L2,2021.2.3,MacIntel,59.97361161,,,,,,,,,,,0.3156,1,,,,,,,,,,,,,,,,,,,,,,,,0.006712875,-0.383181305,0,0,0,,,,,,,BABOON,LB,m,y,./images/BABOONLB.png,,,,,,,,,,,,,,,,,,,,,m,1,0.3156,,,,,,,,0,79,79,58,1
,,,,,,,,,,,,,,,,,6102c2e209da1c42ee444f22,31,2022-02-12_14h37.04.227,lexical_decision_task_DD_L2,2021.2.3,MacIntel,59.97361161,,,,,,,,,,,0.3993,1,,,,,,,,,,,,,,,,,,,,,,,,0.006712875,-0.383181305,0,0,0,,,,,,,GREASE,HB,m,y,./images/GREASEHB.png,,,,,,,,,,,,,,,,,,,,,m,1,0.3993,,,,,,,,0,80,80,15,1
,,,,,,,,,,,,,,,,,6102c2e209da1c42ee444f22,31,2022-02-12_14h37.04.227,lexical_decision_task_DD_L2,2021.2.3,MacIntel,59.97361161,,,,,,,,,,,0.5816,0,,,,,,,,,,,,,,,,,,,,,,,,0.006712875,-0.383181305,0,0,0,,,,,,,DOUGH,LB,m,y,./images/DOUGHLB.png,,,,,,,,,,,,,,,,,,,,,z,0,0.5816,,,,,,,,0,81,81,19,1
,,,,,,,,,,,,,,,,,6102c2e209da1c42ee444f22,31,2022-02-12_14h37.04.227,lexical_decision_task_DD_L2,2021.2.3,MacIntel,59.97361161,,,,,,,,,,,0.6479,0,,,,,,,,,,,,,,,,,,,,,,,,0.006712875,-0.383181305,0,0,0,,,,,,,SQUARE,HB,m,y,./images/SQUAREHB.png,,,,,,,,,,,,,,,,,,,,,z,0,0.6479,,,,,,,,0,82,82,6,1
,,,,,,,,,,,,,,,,,6102c2e209da1c42ee444f22,31,2022-02-12_14h37.04.227,lexical_decision_task_DD_L2,2021.2.3,MacIntel,59.97361161,,,,,,,,,,,0.3345,0,,,,,,,,,,,,,,,,,,,,,,,,0.006712875,-0.383181305,0,0,0,space,,,,,,JUMPER,C,z,y,./images/JUMPER.png,2.2898,,,,,,,,,,,,,,,,,,,,m,0,0.3345,,,,,,,,0,83,83,158,1
,,,,,,,,,,,,,,,,,6102c2e209da1c42ee444f22,31,2022-02-12_14h37.04.227,lexical_decision_task_DD_L2,2021.2.3,MacIntel,59.97361161,,,,,,,,,,,0.2467,1,,,,,,,,,,,,,,,,,,,,,,,,0.006712875,-0.383181305,0,0,0,,,,,,,DRUMS,LB,m,y,./images/DRUMSLB.png,,,,,,,,,,,,,,,,,,,,,m,1,0.2467,,,,,,,,0,84,84,49,1
,,,,,,,,,,,,,,,,,6102c2e209da1c42ee444f22,31,2022-02-12_14h37.04.227,lexical_decision_task_DD_L2,2021.2.3,MacIntel,59.97361161,,,,,,,,,,,0.2311,0,,,,,,,,,,,,,,,,,,,,,,,,0.006712875,-0.383181305,0,0,0,,,,,,,SKIING,C,m,y,./images/SKIING.png,,,,,,,,,,,,,,,,,,,,,z,0,0.2311,,,,,,,,0,85,85,17,1
,,,,,,,,,,,,,,,,,6102c2e209da1c42ee444f22,31,2022-02-12_14h37.04.227,lexical_decision_task_DD_L2,2021.2.3,MacIntel,59.97361161,,,,,,,,,,,0.7151,1,,,,,,,,,,,,,,,,,,,,,,,,0.006712875,-0.383181305,0,0,0,,,,,,,MAMMAL,C,z,y,./images/MAMMAL.png,,,,,,,,,,,,,,,,,,,,,z,1,0.7151,,,,,,,,0,86,86,146,1
,,,,,,,,,,,,,,,,,6102c2e209da1c42ee444f22,31,2022-02-12_14h37.04.227,lexical_decision_task_DD_L2,2021.2.3,MacIntel,59.97361161,,,,,,,,,,,0.6047,1,,,,,,,,,,,,,,,,,,,,,,,,0.006712875,-0.383181305,0,0,0,,,,,,,KITTEN,HB,m,y,./images/KITTENHB.png,,,,,,,,,,,,,,,,,,,,,m,1,0.6047,,,,,,,,0,87,87,45,1
,,,,,,,,,,,,,,,,,6102c2e209da1c42ee444f22,31,2022-02-12_14h37.04.227,lexical_decision_task_DD_L2,2021.2.3,MacIntel,59.97361161,,,,,,,,,,,1.1174,1,,,,,,,,,,,,,,,,,,,,,,,,0.006712875,-0.383181305,0,0,0,,,,,,,BOXER,LB,z,y,./images/BOXERLB.png,,,,,,,,,,,,,,,,,,,,,z,1,1.1174,,,,,,,,0,88,88,88,1
,,,,,,,,,,,,,,,,,6102c2e209da1c42ee444f22,31,2022-02-12_14h37.04.227,lexical_decision_task_DD_L2,2021.2.3,MacIntel,59.97361161,,,,,,,,,,,0.5349,1,,,,,,,,,,,,,,,,,,,,,,,,0.006712875,-0.383181305,0,0,0,,,,,,,BOILER,HB,z,y,./images/BOILERHB.png,,,,,,,,,,,,,,,,,,,,,z,1,0.5349,,,,,,,,0,89,89,120,1
,,,,,,,,,,,,,,,,,6102c2e209da1c42ee444f22,31,2022-02-12_14h37.04.227,lexical_decision_task_DD_L2,2021.2.3,MacIntel,59.97361161,,,,,,,,,,,0.7141,1,,,,,,,,,,,,,,,,,,,,,,,,0.006712875,-0.383181305,0,0,0,,,,,,,MIRROR,HB,m,y,./images/MIRRORHB.png,,,,,,,,,,,,,,,,,,,,,m,1,0.7141,,,,,,,,0,90,90,63,1
,,,,,,,,,,,,,,,,,6102c2e209da1c42ee444f22,31,2022-02-12_14h37.04.227,lexical_decision_task_DD_L2,2021.2.3,MacIntel,59.97361161,,,,,,,,,,,0.5003,0,,,,,,,,,,,,,,,,,,,,,,,,0.006712875,-0.383181305,0,0,0,,,,,,,PILOT,C,z,y,./images/PILOT.png,,,,,,,,,,,,,,,,,,,,,m,0,0.5003,,,,,,,,0,91,91,134,1
,,,,,,,,,,,,,,,,,6102c2e209da1c42ee444f22,31,2022-02-12_14h37.04.227,lexical_decision_task_DD_L2,2021.2.3,MacIntel,59.97361161,,,,,,,,,,,0.4503,0,,,,,,,,,,,,,,,,,,,,,,,,0.006712875,-0.383181305,0,0,0,,,,,,,MELON,LB,m,y,./images/MELONLB.png,,,,,,,,,,,,,,,,,,,,,z,0,0.4503,,,,,,,,0,92,92,22,1
,,,,,,,,,,,,,,,,,6102c2e209da1c42ee444f22,31,2022-02-12_14h37.04.227,lexical_decision_task_DD_L2,2021.2.3,MacIntel,59.97361161,,,,,,,,,,,0.4859,0,,,,,,,,,,,,,,,,,,,,,,,,0.006712875,-0.383181305,0,0,0,,,,,,,PURSE,C,m,y,./images/PURSE.png,,,,,,,,,,,,,,,,,,,,,z,0,0.4859,,,,,,,,0,93,93,62,1
,,,,,,,,,,,,,,,,,6102c2e209da1c42ee444f22,31,2022-02-12_14h37.04.227,lexical_decision_task_DD_L2,2021.2.3,MacIntel,59.97361161,,,,,,,,,,,0.5849,1,,,,,,,,,,,,,,,,,,,,,,,,0.006712875,-0.383181305,0,0,0,,,,,,,BONNET,C,m,y,./images/BONNET.png,,,,,,,,,,,,,,,,,,,,,m,1,0.5849,,,,,,,,0,94,94,11,1
,,,,,,,,,,,,,,,,,6102c2e209da1c42ee444f22,31,2022-02-12_14h37.04.227,lexical_decision_task_DD_L2,2021.2.3,MacIntel,59.97361161,,,,,,,,,,,0.6154,1,,,,,,,,,,,,,,,,,,,,,,,,0.006712875,-0.383181305,0,0,0,,,,,,,FINGER,HB,m,y,./images/FINGERHB.png,,,,,,,,,,,,,,,,,,,,,m,1,0.6154,,,,,,,,0,95,95,3,1
,,,,,,,,,,,,,,,,,6102c2e209da1c42ee444f22,31,2022-02-12_14h37.04.227,lexical_decision_task_DD_L2,2021.2.3,MacIntel,59.97361161,,,,,,,,,,,0.6457,1,,,,,,,,,,,,,,,,,,,,,,,,0.006712875,-0.383181305,0,0,0,,,,,,,SAUNA,HB,z,y,./images/SAUNAHB.png,,,,,,,,,,,,,,,,,,,,,z,1,0.6457,,,,,,,,0,96,96,117,1
,,,,,,,,,,,,,,,,,6102c2e209da1c42ee444f22,31,2022-02-12_14h37.04.227,lexical_decision_task_DD_L2,2021.2.3,MacIntel,59.97361161,,,,,,,,,,,0.7702,1,,,,,,,,,,,,,,,,,,,,,,,,0.006712875,-0.383181305,0,0,0,,,,,,,CRADLE,C,m,y,./images/CRADLE.png,,,,,,,,,,,,,,,,,,,,,m,1,0.7702,,,,,,,,0,97,97,20,1
,,,,,,,,,,,,,,,,,6102c2e209da1c42ee444f22,31,2022-02-12_14h37.04.227,lexical_decision_task_DD_L2,2021.2.3,MacIntel,59.97361161,,,,,,,,,,,0.6225,0,,,,,,,,,,,,,,,,,,,,,,,,0.006712875,-0.383181305,0,0,0,,,,,,,WALRUS,C,m,y,./images/WALRUS.png,,,,,,,,,,,,,,,,,,,,,z,0,0.6225,,,,,,,,0,98,98,23,1
,,,,,,,,,,,,,,,,,6102c2e209da1c42ee444f22,31,2022-02-12_14h37.04.227,lexical_decision_task_DD_L2,2021.2.3,MacIntel,59.97361161,,,,,,,,,,,0.65,1,,,,,,,,,,,,,,,,,,,,,,,,0.006712875,-0.383181305,0,0,0,,,,,,,PARCEL,HB,z,y,./images/PARCELHB.png,,,,,,,,,,,,,,,,,,,,,z,1,0.65,,,,,,,,0,99,99,102,1
,,,,,,,,,,,,,,,,,6102c2e209da1c42ee444f22,31,2022-02-12_14h37.04.227,lexical_decision_task_DD_L2,2021.2.3,MacIntel,59.97361161,,,,,,,,,,,0.6184,0,,,,,,,,,,,,,,,,,,,,,,,,0.006712875,-0.383181305,0,0,0,,,,,,,BUNNY,LB,z,y,./images/BUNNYLB.png,,,,,,,,,,,,,,,,,,,,,m,0,0.6184,,,,,,,,0,100,100,97,1
,,,,,,,,,,,,,,,,,6102c2e209da1c42ee444f22,31,2022-02-12_14h37.04.227,lexical_decision_task_DD_L2,2021.2.3,MacIntel,59.97361161,,,,,,,,,,,0.1889,0,,,,,,,,,,,,,,,,,,,,,,,,0.006712875,-0.383181305,0,0,0,,,,,,,STREAM,C,z,y,./images/STREAM.png,,,,,,,,,,,,,,,,,,,,,m,0,0.1889,,,,,,,,0,101,101,125,1
,,,,,,,,,,,,,,,,,6102c2e209da1c42ee444f22,31,2022-02-12_14h37.04.227,lexical_decision_task_DD_L2,2021.2.3,MacIntel,59.97361161,,,,,,,,,,,0.439,1,,,,,,,,,,,,,,,,,,,,,,,,0.006712875,-0.383181305,0,0,0,,,,,,,BRUSH,C,z,y,./images/BRUSH.png,,,,,,,,,,,,,,,,,,,,,z,1,0.439,,,,,,,,0,102,102,143,1
,,,,,,,,,,,,,,,,,6102c2e209da1c42ee444f22,31,2022-02-12_14h37.04.227,lexical_decision_task_DD_L2,2021.2.3,MacIntel,59.97361161,,,,,,,,,,,0.2366,1,,,,,,,,,,,,,,,,,,,,,,,,0.006712875,-0.383181305,0,0,0,,,,,,,MIDGET,LB,z,y,./images/MIDGETLB.png,,,,,,,,,,,,,,,,,,,,,z,1,0.2366,,,,,,,,0,103,103,160,1
,,,,,,,,,,,,,,,,,6102c2e209da1c42ee444f22,31,2022-02-12_14h37.04.227,lexical_decision_task_DD_L2,2021.2.3,MacIntel,59.97361161,,,,,,,,,,,0.7186,1,,,,,,,,,,,,,,,,,,,,,,,,0.006712875,-0.383181305,0,0,0,,,,,,,BISHOP,LB,z,y,./images/BISHOPLB.png,,,,,,,,,,,,,,,,,,,,,z,1,0.7186,,,,,,,,0,104,104,133,1
,,,,,,,,,,,,,,,,,6102c2e209da1c42ee444f22,31,2022-02-12_14h37.04.227,lexical_decision_task_DD_L2,2021.2.3,MacIntel,59.97361161,,,,,,,,,,,0.593,0,,,,,,,,,,,,,,,,,,,,,,,,0.006712875,-0.383181305,0,0,0,,,,,,,SNACK,LB,m,y,./images/SNACKLB.png,,,,,,,,,,,,,,,,,,,,,z,0,0.593,,,,,,,,0,105,105,73,1
,,,,,,,,,,,,,,,,,6102c2e209da1c42ee444f22,31,2022-02-12_14h37.04.227,lexical_decision_task_DD_L2,2021.2.3,MacIntel,59.97361161,,,,,,,,,,,0.7884,0,,,,,,,,,,,,,,,,,,,,,,,,0.006712875,-0.383181305,0,0,0,,,,,,,COUCH,C,m,y,./images/COUCH.png,,,,,,,,,,,,,,,,,,,,,z,0,0.7884,,,,,,,,0,106,106,77,1
,,,,,,,,,,,,,,,,,6102c2e209da1c42ee444f22,31,2022-02-12_14h37.04.227,lexical_decision_task_DD_L2,2021.2.3,MacIntel,59.97361161,,,,,,,,,,,0.767,0,,,,,,,,,,,,,,,,,,,,,,,,0.006712875,-0.383181305,0,0,0,,,,,,,WALNUT,HB,z,y,./images/WALNUTHB.png,,,,,,,,,,,,,,,,,,,,,m,0,0.767,,,,,,,,0,107,107,84,1
,,,,,,,,,,,,,,,,,6102c2e209da1c42ee444f22,31,2022-02-12_14h37.04.227,lexical_decision_task_DD_L2,2021.2.3,MacIntel,59.97361161,,,,,,,,,,,0.4976,1,,,,,,,,,,,,,,,,,,,,,,,,0.006712875,-0.383181305,0,0,0,,,,,,,SHIELD,HB,z,y,./images/SHIELDHB.png,,,,,,,,,,,,,,,,,,,,,z,1,0.4976,,,,,,,,0,108,108,132,1
,,,,,,,,,,,,,,,,,6102c2e209da1c42ee444f22,31,2022-02-12_14h37.04.227,lexical_decision_task_DD_L2,2021.2.3,MacIntel,59.97361161,,,,,,,,,,,0.5344,0,,,,,,,,,,,,,,,,,,,,,,,,0.006712875,-0.383181305,0,0,0,,,,,,,FOLDER,HB,m,y,./images/FOLDERHB.png,,,,,,,,,,,,,,,,,,,,,z,0,0.5344,,,,,,,,0,109,109,42,1
,,,,,,,,,,,,,,,,,6102c2e209da1c42ee444f22,31,2022-02-12_14h37.04.227,lexical_decision_task_DD_L2,2021.2.3,MacIntel,59.97361161,,,,,,,,,,,0.6305,1,,,,,,,,,,,,,,,,,,,,,,,,0.006712875,-0.383181305,0,0,0,,,,,,,JAGUAR,HB,m,y,./images/JAGUARHB.png,,,,,,,,,,,,,,,,,,,,,m,1,0.6305,,,,,,,,0,110,110,18,1
,,,,,,,,,,,,,,,,,6102c2e209da1c42ee444f22,31,2022-02-12_14h37.04.227,lexical_decision_task_DD_L2,2021.2.3,MacIntel,59.97361161,,,,,,,,,,,0.6022,1,,,,,,,,,,,,,,,,,,,,,,,,0.006712875,-0.383181305,0,0,0,,,,,,,CANDLE,LB,m,y,./images/CANDLELB.png,,,,,,,,,,,,,,,,,,,,,m,1,0.6022,,,,,,,,0,111,111,61,1
,,,,,,,,,,,,,,,,,6102c2e209da1c42ee444f22,31,2022-02-12_14h37.04.227,lexical_decision_task_DD_L2,2021.2.3,MacIntel,59.97361161,,,,,,,,,,,0.8856,1,,,,,,,,,,,,,,,,,,,,,,,,0.006712875,-0.383181305,0,0,0,,,,,,,PISTOL,C,z,y,./images/PISTOL.png,,,,,,,,,,,,,,,,,,,,,z,1,0.8856,,,,,,,,0,112,112,113,1
,,,,,,,,,,,,,,,,,6102c2e209da1c42ee444f22,31,2022-02-12_14h37.04.227,lexical_decision_task_DD_L2,2021.2.3,MacIntel,59.97361161,,,,,,,,,,,0.5899,1,,,,,,,,,,,,,,,,,,,,,,,,0.006712875,-0.383181305,0,0,0,,,,,,,CANYON,LB,m,y,./images/CANYONLB.png,,,,,,,,,,,,,,,,,,,,,m,1,0.5899,,,,,,,,0,113,113,34,1
,,,,,,,,,,,,,,,,,6102c2e209da1c42ee444f22,31,2022-02-12_14h37.04.227,lexical_decision_task_DD_L2,2021.2.3,MacIntel,59.97361161,,,,,,,,,,,0.6038,0,,,,,,,,,,,,,,,,,,,,,,,,0.006712875,-0.383181305,0,0,0,,,,,,,PIMPLE,C,m,y,./images/PIMPLE.png,,,,,,,,,,,,,,,,,,,,,z,0,0.6038,,,,,,,,0,114,114,71,1
,,,,,,,,,,,,,,,,,6102c2e209da1c42ee444f22,31,2022-02-12_14h37.04.227,lexical_decision_task_DD_L2,2021.2.3,MacIntel,59.97361161,,,,,,,,,,,0.6143,0,,,,,,,,,,,,,,,,,,,,,,,,0.006712875,-0.383181305,0,0,0,,,,,,,BURIAL,C,m,y,./images/BURIAL.png,,,,,,,,,,,,,,,,,,,,,z,0,0.6143,,,,,,,,0,115,115,59,1
,,,,,,,,,,,,,,,,,6102c2e209da1c42ee444f22,31,2022-02-12_14h37.04.227,lexical_decision_task_DD_L2,2021.2.3,MacIntel,59.97361161,,,,,,,,,,,1.1517,0,,,,,,,,,,,,,,,,,,,,,,,,0.006712875,-0.383181305,0,0,0,,,,,,,BAKER,HB,z,y,./images/BAKERHB.png,,,,,,,,,,,,,,,,,,,,,m,0,1.1517,,,,,,,,0,116,116,147,1
,,,,,,,,,,,,,,,,,6102c2e209da1c42ee444f22,31,2022-02-12_14h37.04.227,lexical_decision_task_DD_L2,2021.2.3,MacIntel,59.97361161,,,,,,,,,,,0.62,1,,,,,,,,,,,,,,,,,,,,,,,,0.006712875,-0.383181305,0,0,0,,,,,,,BRIDE,LB,z,y,./images/BRIDELB.png,,,,,,,,,,,,,,,,,,,,,z,1,0.62,,,,,,,,0,117,117,148,1
,,,,,,,,,,,,,,,,,6102c2e209da1c42ee444f22,31,2022-02-12_14h37.04.227,lexical_decision_task_DD_L2,2021.2.3,MacIntel,59.97361161,,,,,,,,,,,0.7554,1,,,,,,,,,,,,,,,,,,,,,,,,0.006712875,-0.383181305,0,0,0,,,,,,,PEBBLE,LB,z,y,./images/PEBBLELB.png,,,,,,,,,,,,,,,,,,,,,z,1,0.7554,,,,,,,,0,118,118,166,1
,,,,,,,,,,,,,,,,,6102c2e209da1c42ee444f22,31,2022-02-12_14h37.04.227,lexical_decision_task_DD_L2,2021.2.3,MacIntel,59.97361161,,,,,,,,,,,0.9848,1,,,,,,,,,,,,,,,,,,,,,,,,0.006712875,-0.383181305,0,0,0,,,,,,,BANNER,LB,m,y,./images/BANNERLB.png,,,,,,,,,,,,,,,,,,,,,m,1,0.9848,,,,,,,,0,119,119,52,1
,,,,,,,,,,,,,,,,,6102c2e209da1c42ee444f22,31,2022-02-12_14h37.04.227,lexical_decision_task_DD_L2,2021.2.3,MacIntel,59.97361161,,,,,,,,,,,0.6528,1,,,,,,,,,,,,,,,,,,,,,,,,0.006712875,-0.383181305,0,0,0,,,,,,,BLOKE,HB,z,y,./images/BLOKEHB.png,,,,,,,,,,,,,,,,,,,,,z,1,0.6528,,,,,,,,0,120,120,96,1
,,,,,,,,,,,,,,,,,6102c2e209da1c42ee444f22,31,2022-02-12_14h37.04.227,lexical_decision_task_DD_L2,2021.2.3,MacIntel,59.97361161,,,,,,,,,,,0.5886,0,,,,,,,,,,,,,,,,,,,,,,,,0.006712875,-0.383181305,0,0,0,,,,,,,COOKER,HB,m,y,./images/COOKERHB.png,,,,,,,,,,,,,,,,,,,,,z,0,0.5886,,,,,,,,0,121,121,69,1
,,,,,,,,,,,,,,,,,6102c2e209da1c42ee444f22,31,2022-02-12_14h37.04.227,lexical_decision_task_DD_L2,2021.2.3,MacIntel,59.97361161,,,,,,,,,,,0.6429,1,,,,,,,,,,,,,,,,,,,,,,,,0.006712875,-0.383181305,0,0,0,,,,,,,WAGON,LB,z,y,./images/WAGONLB.png,,,,,,,,,,,,,,,,,,,,,z,1,0.6429,,,,,,,,0,122,122,91,1
,,,,,,,,,,,,,,,,,6102c2e209da1c42ee444f22,31,2022-02-12_14h37.04.227,lexical_decision_task_DD_L2,2021.2.3,MacIntel,59.97361161,,,,,,,,,,,0.5351,0,,,,,,,,,,,,,,,,,,,,,,,,0.006712875,-0.383181305,0,0,0,,,,,,,GRAIN,HB,m,y,./images/GRAINHB.png,,,,,,,,,,,,,,,,,,,,,z,0,0.5351,,,,,,,,0,123,123,75,1
,,,,,,,,,,,,,,,,,6102c2e209da1c42ee444f22,31,2022-02-12_14h37.04.227,lexical_decision_task_DD_L2,2021.2.3,MacIntel,59.97361161,,,,,,,,,,,0.6117,0,,,,,,,,,,,,,,,,,,,,,,,,0.006712875,-0.383181305,0,0,0,,,,,,,BAMBOO,C,z,y,./images/BAMBOO.png,,,,,,,,,,,,,,,,,,,,,m,0,0.6117,,,,,,,,0,124,124,89,1
,,,,,,,,,,,,,,,,,6102c2e209da1c42ee444f22,31,2022-02-12_14h37.04.227,lexical_decision_task_DD_L2,2021.2.3,MacIntel,59.97361161,,,,,,,,,,,0.5852,1,,,,,,,,,,,,,,,,,,,,,,,,0.006712875,-0.383181305,0,0,0,space,,,,,,MUFFIN,LB,m,y,./images/MUFFINLB.png,5.1078,,,,,,,,,,,,,,,,,,,,m,1,0.5852,,,,,,,,0,125,125,55,1
,,,,,,,,,,,,,,,,,6102c2e209da1c42ee444f22,31,2022-02-12_14h37.04.227,lexical_decision_task_DD_L2,2021.2.3,MacIntel,59.97361161,,,,,,,,,,,0.5671,0,,,,,,,,,,,,,,,,,,,,,,,,0.006712875,-0.383181305,0,0,0,,,,,,,INFANT,LB,m,y,./images/INFANTLB.png,,,,,,,,,,,,,,,,,,,,,z,0,0.5671,,,,,,,,0,126,126,76,1
,,,,,,,,,,,,,,,,,6102c2e209da1c42ee444f22,31,2022-02-12_14h37.04.227,lexical_decision_task_DD_L2,2021.2.3,MacIntel,59.97361161,,,,,,,,,,,0.6527,1,,,,,,,,,,,,,,,,,,,,,,,,0.006712875,-0.383181305,0,0,0,,,,,,,RULER,LB,z,y,./images/RULERLB.png,,,,,,,,,,,,,,,,,,,,,z,1,0.6527,,,,,,,,0,127,127,163,1
,,,,,,,,,,,,,,,,,6102c2e209da1c42ee444f22,31,2022-02-12_14h37.04.227,lexical_decision_task_DD_L2,2021.2.3,MacIntel,59.97361161,,,,,,,,,,,0.5556,1,,,,,,,,,,,,,,,,,,,,,,,,0.006712875,-0.383181305,0,0,0,,,,,,,HEATER,C,z,y,./images/HEATER.png,,,,,,,,,,,,,,,,,,,,,z,1,0.5556,,,,,,,,0,128,128,140,1
