key_resp.keys,key_resp.rt,instr_done_touch.x,instr_done_touch.y,instr_done_touch.leftButton,instr_done_touch.midButton,instr_done_touch.rightButton,instruction_pages.thisRepN,instruction_pages.thisTrialN,instruction_pages.thisN,instruction_pages.thisIndex,instruction_pages.ran,pageN,phase,instruct_text,has_image,instruct_image,participant,age,date,expName,psychopyVersion,OS,frameRate,response.keys,response.corr,response.rt,touch_resp.x,touch_resp.y,touch_resp.leftButton,touch_resp.midButton,touch_resp.rightButton,touch_resp.time,touch_resp.clicked_name,rt,corr,practrials.thisRepN,practrials.thisTrialN,practrials.thisN,practrials.thisIndex,practrials.ran,TrialID,Target,corrAns,end_of_practice_trials_pages.thisRepN,end_of_practice_trials_pages.thisTrialN,end_of_practice_trials_pages.thisN,end_of_practice_trials_pages.thisIndex,end_of_practice_trials_pages.ran,key_resp_2.keys,key_resp_2.corr,key_resp_2.rt,targ_click.x,targ_click.y,targ_click.leftButton,targ_click.midButton,targ_click.rightButton,targ_click.time,targ_click.clicked_name,break_done_touch.x,break_done_touch.y,break_done_touch.leftButton,break_done_touch.midButton,break_done_touch.rightButton,break_done_keyboard.keys,maintrials.thisRepN,maintrials.thisTrialN,maintrials.thisN,maintrials.thisIndex,maintrials.ran,string,blur,study,lex,stim_path,break_done_keyboard.rt,mouse_2.x,mouse_2.y,mouse_2.leftButton,mouse_2.midButton,mouse_2.rightButton,mouse_2.clicked_name,slider.response,slider.rt,trials.thisRepN,trials.thisTrialN,trials.thisN,trials.thisIndex,trials.ran,test_instructions.thisRepN,test_instructions.thisTrialN,test_instructions.thisN,test_instructions.thisIndex,test_instructions.ran,instr_done_touch.clicked_name,key_resp_3.keys,key_resp_3.corr,key_resp_3.rt,test_click.x,test_click.y,test_click.leftButton,test_click.midButton,test_click.rightButton,test_click.time,test_click.clicked_name,test_phase.thisRepN,test_phase.thisTrialN,test_phase.thisN,test_phase.thisIndex,test_phase.ran
space,30.1919,0.319360352,-0.143208008,0,0,0,0,0,0,0,1,1,instructions,"INSTRUCTIONS
At the start of each trial, look at the plus sign  (+) in the center of the screen.  This tells you that a trial is about to begin and where to look. Second, the plus sign will disappear and a string of letters will appear. Your task is to determine if the string of letters is a word or not. If the item is a word press the M key (on keyboard)  or touch the word button (phone/tablet).  If the item is not a word,  press the  Z key (on keyboard)  or touch the nonword button (on phone/tablet). 
Press the space bar or touch  continue.",0,,6104b1c50f6057c1d8a6e3a6,26,2022-02-12_17h56.57.763,lexical_decision_task_DD_L5,2021.2.3,MacIntel,59.97361161,,,,,,,,,,,,,,,,,,,,,,,,,,,,,,,,,,,,,,,,,,,,,,,,,,,,,,,,,,,,,,,,,,,,,,,,,,,,,,,,,,,,,,
space,6.6038,0.319360352,-0.143208008,0,0,0,0,1,1,1,1,2,instructions,"If your device has a keyboard, press the 'Z' key for nonwords and the 'M' key for words.





Press the space bar or touch the button below to continue.",0,keyboard-example.gif,6104b1c50f6057c1d8a6e3a6,26,2022-02-12_17h56.57.763,lexical_decision_task_DD_L5,2021.2.3,MacIntel,59.97361161,,,,,,,,,,,,,,,,,,,,,,,,,,,,,,,,,,,,,,,,,,,,,,,,,,,,,,,,,,,,,,,,,,,,,,,,,,,,,,,,,,,,,,
space,2.3881,0.319360352,-0.143208008,0,0,0,0,2,2,2,1,3,instructions,"If you are using a touchscreen only device, use the buttons on the screen. Do not use the mouse.





Press the space bar or touch the button below to continue.",0,touchscreen-example.gif,6104b1c50f6057c1d8a6e3a6,26,2022-02-12_17h56.57.763,lexical_decision_task_DD_L5,2021.2.3,MacIntel,59.97361161,,,,,,,,,,,,,,,,,,,,,,,,,,,,,,,,,,,,,,,,,,,,,,,,,,,,,,,,,,,,,,,,,,,,,,,,,,,,,,,,,,,,,,
space,12.7949,0.319360352,-0.143208008,0,0,0,0,3,3,3,1,4,instructions,"It is very important that you respond as quickly and accurately as possible, as each letter string will only be on the screen for two seconds. If you do not respond within this time, the message 'Too slow!' will be displayed and the experiment will progress to the next letter string. The first 20 trials will be practice trials and you will receive feedback on your answers. 

Press the space bar or touch the button below to start the practice trials.",0,,6104b1c50f6057c1d8a6e3a6,26,2022-02-12_17h56.57.763,lexical_decision_task_DD_L5,2021.2.3,MacIntel,59.97361161,,,,,,,,,,,,,,,,,,,,,,,,,,,,,,,,,,,,,,,,,,,,,,,,,,,,,,,,,,,,,,,,,,,,,,,,,,,,,,,,,,,,,,
,,,,,,,,,,,,,,,,,6104b1c50f6057c1d8a6e3a6,26,2022-02-12_17h56.57.763,lexical_decision_task_DD_L5,2021.2.3,MacIntel,59.97361161,m,1,0.9802,,,,,,,,0.9802,1,0,0,0,7,1,1001,VOLUME,m,,,,,,,,,,,,,,,,,,,,,,,,,,,,,,,,,,,,,,,,,,,,,,,,,,,,,,,,,,,,,,,,,,
,,,,,,,,,,,,,,,,,6104b1c50f6057c1d8a6e3a6,26,2022-02-12_17h56.57.763,lexical_decision_task_DD_L5,2021.2.3,MacIntel,59.97361161,m,1,0.9256,,,,,,,,0.9256,1,0,1,1,1,1,1001,ADJUST,m,,,,,,,,,,,,,,,,,,,,,,,,,,,,,,,,,,,,,,,,,,,,,,,,,,,,,,,,,,,,,,,,,,
,,,,,,,,,,,,,,,,,6104b1c50f6057c1d8a6e3a6,26,2022-02-12_17h56.57.763,lexical_decision_task_DD_L5,2021.2.3,MacIntel,59.97361161,z,1,1.0342,,,,,,,,1.0342,1,0,2,2,14,1,1001,THRALE,z,,,,,,,,,,,,,,,,,,,,,,,,,,,,,,,,,,,,,,,,,,,,,,,,,,,,,,,,,,,,,,,,,,
,,,,,,,,,,,,,,,,,6104b1c50f6057c1d8a6e3a6,26,2022-02-12_17h56.57.763,lexical_decision_task_DD_L5,2021.2.3,MacIntel,59.97361161,m,1,0.5612,,,,,,,,0.5612,1,0,3,3,2,1,1001,ALMOND,m,,,,,,,,,,,,,,,,,,,,,,,,,,,,,,,,,,,,,,,,,,,,,,,,,,,,,,,,,,,,,,,,,,
,,,,,,,,,,,,,,,,,6104b1c50f6057c1d8a6e3a6,26,2022-02-12_17h56.57.763,lexical_decision_task_DD_L5,2021.2.3,MacIntel,59.97361161,z,1,1.227,,,,,,,,1.227,1,0,4,4,10,1,1001,INLADE,z,,,,,,,,,,,,,,,,,,,,,,,,,,,,,,,,,,,,,,,,,,,,,,,,,,,,,,,,,,,,,,,,,,
,,,,,,,,,,,,,,,,,6104b1c50f6057c1d8a6e3a6,26,2022-02-12_17h56.57.763,lexical_decision_task_DD_L5,2021.2.3,MacIntel,59.97361161,z,1,0.9682,,,,,,,,0.9682,1,0,5,5,15,1,1001,WHAISE,z,,,,,,,,,,,,,,,,,,,,,,,,,,,,,,,,,,,,,,,,,,,,,,,,,,,,,,,,,,,,,,,,,,
,,,,,,,,,,,,,,,,,6104b1c50f6057c1d8a6e3a6,26,2022-02-12_17h56.57.763,lexical_decision_task_DD_L5,2021.2.3,MacIntel,59.97361161,m,1,0.8941,,,,,,,,0.8941,1,0,6,6,0,1,1001,UTOPIA,m,,,,,,,,,,,,,,,,,,,,,,,,,,,,,,,,,,,,,,,,,,,,,,,,,,,,,,,,,,,,,,,,,,
,,,,,,,,,,,,,,,,,6104b1c50f6057c1d8a6e3a6,26,2022-02-12_17h56.57.763,lexical_decision_task_DD_L5,2021.2.3,MacIntel,59.97361161,z,1,0.8311,,,,,,,,0.8311,1,0,7,7,8,1,1001,ASLERT,z,,,,,,,,,,,,,,,,,,,,,,,,,,,,,,,,,,,,,,,,,,,,,,,,,,,,,,,,,,,,,,,,,,
,,,,,,,,,,,,,,,,,6104b1c50f6057c1d8a6e3a6,26,2022-02-12_17h56.57.763,lexical_decision_task_DD_L5,2021.2.3,MacIntel,59.97361161,m,1,1.0275,,,,,,,,1.0275,1,0,8,8,4,1,1001,SQUEAK,m,,,,,,,,,,,,,,,,,,,,,,,,,,,,,,,,,,,,,,,,,,,,,,,,,,,,,,,,,,,,,,,,,,
,,,,,,,,,,,,,,,,,6104b1c50f6057c1d8a6e3a6,26,2022-02-12_17h56.57.763,lexical_decision_task_DD_L5,2021.2.3,MacIntel,59.97361161,m,1,0.7281,,,,,,,,0.7281,1,0,9,9,3,1,1001,MATRIX,m,,,,,,,,,,,,,,,,,,,,,,,,,,,,,,,,,,,,,,,,,,,,,,,,,,,,,,,,,,,,,,,,,,
,,,,,,,,,,,,,,,,,6104b1c50f6057c1d8a6e3a6,26,2022-02-12_17h56.57.763,lexical_decision_task_DD_L5,2021.2.3,MacIntel,59.97361161,z,1,0.7471,,,,,,,,0.7471,1,0,10,10,13,1,1001,ROUPET,z,,,,,,,,,,,,,,,,,,,,,,,,,,,,,,,,,,,,,,,,,,,,,,,,,,,,,,,,,,,,,,,,,,
,,,,,,,,,,,,,,,,,6104b1c50f6057c1d8a6e3a6,26,2022-02-12_17h56.57.763,lexical_decision_task_DD_L5,2021.2.3,MacIntel,59.97361161,z,1,0.718,,,,,,,,0.718,1,0,11,11,11,1,1001,RASHET,z,,,,,,,,,,,,,,,,,,,,,,,,,,,,,,,,,,,,,,,,,,,,,,,,,,,,,,,,,,,,,,,,,,
,,,,,,,,,,,,,,,,,6104b1c50f6057c1d8a6e3a6,26,2022-02-12_17h56.57.763,lexical_decision_task_DD_L5,2021.2.3,MacIntel,59.97361161,m,1,0.6518,,,,,,,,0.6518,1,0,12,12,6,1,1001,ZOMBIE,m,,,,,,,,,,,,,,,,,,,,,,,,,,,,,,,,,,,,,,,,,,,,,,,,,,,,,,,,,,,,,,,,,,
,,,,,,,,,,,,,,,,,6104b1c50f6057c1d8a6e3a6,26,2022-02-12_17h56.57.763,lexical_decision_task_DD_L5,2021.2.3,MacIntel,59.97361161,m,1,0.6367,,,,,,,,0.6367,1,0,13,13,5,1,1001,OBTAIN,m,,,,,,,,,,,,,,,,,,,,,,,,,,,,,,,,,,,,,,,,,,,,,,,,,,,,,,,,,,,,,,,,,,
,,,,,,,,,,,,,,,,,6104b1c50f6057c1d8a6e3a6,26,2022-02-12_17h56.57.763,lexical_decision_task_DD_L5,2021.2.3,MacIntel,59.97361161,z,1,0.7458,,,,,,,,0.7458,1,0,14,14,9,1,1001,FARINY,z,,,,,,,,,,,,,,,,,,,,,,,,,,,,,,,,,,,,,,,,,,,,,,,,,,,,,,,,,,,,,,,,,,
,,,,,,,,,,,,,,,,,6104b1c50f6057c1d8a6e3a6,26,2022-02-12_17h56.57.763,lexical_decision_task_DD_L5,2021.2.3,MacIntel,59.97361161,z,1,0.7228,,,,,,,,0.7228,1,0,15,15,12,1,1001,SPRINY,z,,,,,,,,,,,,,,,,,,,,,,,,,,,,,,,,,,,,,,,,,,,,,,,,,,,,,,,,,,,,,,,,,,
space,9.154,0.319360352,-0.143208008,0,0,0,,,,,,1,end_of_practice,"You have completed the practice trials. During the experimental trials, you will not receive feedback. 
Before you begin, please ensure that you are in a comfortable and quiet location and will not be disturbed for about 15 minutes, as we cannot use your data if you do not complete all the trials. 
 When you are ready to start the experimental trials, please press space or touch the button below.",,,6104b1c50f6057c1d8a6e3a6,26,2022-02-12_17h56.57.763,lexical_decision_task_DD_L5,2021.2.3,MacIntel,59.97361161,,,,,,,,,,,,,,,,,,,,,0,0,0,0,1,,,,,,,,,,,,,,,,,,,,,,,,,,,,,,,,,,,,,,,,,,,,,,,,,,,,,,,,,,,,,
,,,,,,,,,,,,,,,,,6104b1c50f6057c1d8a6e3a6,26,2022-02-12_17h56.57.763,lexical_decision_task_DD_L5,2021.2.3,MacIntel,59.97361161,,,,,,,,,,,0.9227,1,,,,,,,,,,,,,,m,1,0.9227,,,,,,,,0.319360352,-0.143208008,0,0,0,,0,0,0,49,1,BISHOP,LB,old,m,./images/BISHOPLB.png,,,,,,,,,,,,,,,,,,,,,,,,,,,,,,,,,,,
,,,,,,,,,,,,,,,,,6104b1c50f6057c1d8a6e3a6,26,2022-02-12_17h56.57.763,lexical_decision_task_DD_L5,2021.2.3,MacIntel,59.97361161,,,,,,,,,,,0.7086,1,,,,,,,,,,,,,,m,1,0.7086,,,,,,,,0.319360352,-0.143208008,0,0,0,,0,1,1,53,1,POSTER,C,old,m,./images/POSTER.png,,,,,,,,,,,,,,,,,,,,,,,,,,,,,,,,,,,
,,,,,,,,,,,,,,,,,6104b1c50f6057c1d8a6e3a6,26,2022-02-12_17h56.57.763,lexical_decision_task_DD_L5,2021.2.3,MacIntel,59.97361161,,,,,,,,,,,1.1793,1,,,,,,,,,,,,,,z,1,1.1793,,,,,,,,0.319360352,-0.143208008,0,0,0,,0,2,2,131,1,NACES,LB,old,z,./images/NACESLB.png,,,,,,,,,,,,,,,,,,,,,,,,,,,,,,,,,,,
,,,,,,,,,,,,,,,,,6104b1c50f6057c1d8a6e3a6,26,2022-02-12_17h56.57.763,lexical_decision_task_DD_L5,2021.2.3,MacIntel,59.97361161,,,,,,,,,,,0.9802,1,,,,,,,,,,,,,,m,1,0.9802,,,,,,,,0.319360352,-0.143208008,0,0,0,,0,3,3,37,1,TIGER,LB,old,m,./images/TIGERLB.png,,,,,,,,,,,,,,,,,,,,,,,,,,,,,,,,,,,
,,,,,,,,,,,,,,,,,6104b1c50f6057c1d8a6e3a6,26,2022-02-12_17h56.57.763,lexical_decision_task_DD_L5,2021.2.3,MacIntel,59.97361161,,,,,,,,,,,0.8359,1,,,,,,,,,,,,,,m,1,0.8359,,,,,,,,0.319360352,-0.143208008,0,0,0,,0,4,4,58,1,CANOE,LB,old,m,./images/CANOELB.png,,,,,,,,,,,,,,,,,,,,,,,,,,,,,,,,,,,
,,,,,,,,,,,,,,,,,6104b1c50f6057c1d8a6e3a6,26,2022-02-12_17h56.57.763,lexical_decision_task_DD_L5,2021.2.3,MacIntel,59.97361161,,,,,,,,,,,0.8252,1,,,,,,,,,,,,,,m,1,0.8252,,,,,,,,0.319360352,-0.143208008,0,0,0,,0,5,5,2,1,STOVE,C,old,m,./images/STOVE.png,,,,,,,,,,,,,,,,,,,,,,,,,,,,,,,,,,,
,,,,,,,,,,,,,,,,,6104b1c50f6057c1d8a6e3a6,26,2022-02-12_17h56.57.763,lexical_decision_task_DD_L5,2021.2.3,MacIntel,59.97361161,,,,,,,,,,,0.821,1,,,,,,,,,,,,,,z,1,0.821,,,,,,,,0.319360352,-0.143208008,0,0,0,,0,6,6,116,1,BALGY,LB,old,z,./images/BALGYLB.png,,,,,,,,,,,,,,,,,,,,,,,,,,,,,,,,,,,
,,,,,,,,,,,,,,,,,6104b1c50f6057c1d8a6e3a6,26,2022-02-12_17h56.57.763,lexical_decision_task_DD_L5,2021.2.3,MacIntel,59.97361161,,,,,,,,,,,0.8203,1,,,,,,,,,,,,,,z,1,0.8203,,,,,,,,0.319360352,-0.143208008,0,0,0,,0,7,7,92,1,PAIMS,LB,old,z,./images/PAIMSLB.png,,,,,,,,,,,,,,,,,,,,,,,,,,,,,,,,,,,
,,,,,,,,,,,,,,,,,6104b1c50f6057c1d8a6e3a6,26,2022-02-12_17h56.57.763,lexical_decision_task_DD_L5,2021.2.3,MacIntel,59.97361161,,,,,,,,,,,0.9403,1,,,,,,,,,,,,,,m,1,0.9403,,,,,,,,0.319360352,-0.143208008,0,0,0,,0,8,8,11,1,MEDAL,C,old,m,./images/MEDAL.png,,,,,,,,,,,,,,,,,,,,,,,,,,,,,,,,,,,
,,,,,,,,,,,,,,,,,6104b1c50f6057c1d8a6e3a6,26,2022-02-12_17h56.57.763,lexical_decision_task_DD_L5,2021.2.3,MacIntel,59.97361161,,,,,,,,,,,0.6754,1,,,,,,,,,,,,,,m,1,0.6754,,,,,,,,0.319360352,-0.143208008,0,0,0,,0,9,9,62,1,MAMMAL,C,old,m,./images/MAMMAL.png,,,,,,,,,,,,,,,,,,,,,,,,,,,,,,,,,,,
,,,,,,,,,,,,,,,,,6104b1c50f6057c1d8a6e3a6,26,2022-02-12_17h56.57.763,lexical_decision_task_DD_L5,2021.2.3,MacIntel,59.97361161,,,,,,,,,,,0.6954,1,,,,,,,,,,,,,,m,1,0.6954,,,,,,,,0.319360352,-0.143208008,0,0,0,,0,10,10,22,1,CLOWN,LB,old,m,./images/CLOWNLB.png,,,,,,,,,,,,,,,,,,,,,,,,,,,,,,,,,,,
,,,,,,,,,,,,,,,,,6104b1c50f6057c1d8a6e3a6,26,2022-02-12_17h56.57.763,lexical_decision_task_DD_L5,2021.2.3,MacIntel,59.97361161,,,,,,,,,,,0.596,1,,,,,,,,,,,,,,m,1,0.596,,,,,,,,0.319360352,-0.143208008,0,0,0,,0,11,11,79,1,RULER,LB,old,m,./images/RULERLB.png,,,,,,,,,,,,,,,,,,,,,,,,,,,,,,,,,,,
,,,,,,,,,,,,,,,,,6104b1c50f6057c1d8a6e3a6,26,2022-02-12_17h56.57.763,lexical_decision_task_DD_L5,2021.2.3,MacIntel,59.97361161,,,,,,,,,,,1.4535,1,,,,,,,,,,,,,,m,1,1.4535,,,,,,,,0.319360352,-0.143208008,0,0,0,,0,12,12,3,1,CRATER,HB,old,m,./images/CRATERHB.png,,,,,,,,,,,,,,,,,,,,,,,,,,,,,,,,,,,
,,,,,,,,,,,,,,,,,6104b1c50f6057c1d8a6e3a6,26,2022-02-12_17h56.57.763,lexical_decision_task_DD_L5,2021.2.3,MacIntel,59.97361161,,,,,,,,,,,1.0153,1,,,,,,,,,,,,,,z,1,1.0153,,,,,,,,0.319360352,-0.143208008,0,0,0,,0,13,13,122,1,BLOOT,LB,old,z,./images/BLOOTLB.png,,,,,,,,,,,,,,,,,,,,,,,,,,,,,,,,,,,
,,,,,,,,,,,,,,,,,6104b1c50f6057c1d8a6e3a6,26,2022-02-12_17h56.57.763,lexical_decision_task_DD_L5,2021.2.3,MacIntel,59.97361161,,,,,,,,,,,0.6472,0,,,,,,,,,,,,,,m,0,0.6472,,,,,,,,0.319360352,-0.143208008,0,0,0,,0,14,14,110,1,CRUNK,LB,old,z,./images/CRUNKLB.png,,,,,,,,,,,,,,,,,,,,,,,,,,,,,,,,,,,
,,,,,,,,,,,,,,,,,6104b1c50f6057c1d8a6e3a6,26,2022-02-12_17h56.57.763,lexical_decision_task_DD_L5,2021.2.3,MacIntel,59.97361161,,,,,,,,,,,0.5301,1,,,,,,,,,,,,,,m,1,0.5301,,,,,,,,0.319360352,-0.143208008,0,0,0,,0,15,15,19,1,DONKEY,LB,old,m,./images/DONKEYLB.png,,,,,,,,,,,,,,,,,,,,,,,,,,,,,,,,,,,
,,,,,,,,,,,,,,,,,6104b1c50f6057c1d8a6e3a6,26,2022-02-12_17h56.57.763,lexical_decision_task_DD_L5,2021.2.3,MacIntel,59.97361161,,,,,,,,,,,1.3293,1,,,,,,,,,,,,,,z,1,1.3293,,,,,,,,0.319360352,-0.143208008,0,0,0,,0,16,16,88,1,GLUSH,HB,old,z,./images/GLUSHHB.png,,,,,,,,,,,,,,,,,,,,,,,,,,,,,,,,,,,
,,,,,,,,,,,,,,,,,6104b1c50f6057c1d8a6e3a6,26,2022-02-12_17h56.57.763,lexical_decision_task_DD_L5,2021.2.3,MacIntel,59.97361161,,,,,,,,,,,1.3632,1,,,,,,,,,,,,,,m,1,1.3632,,,,,,,,0.319360352,-0.143208008,0,0,0,,0,17,17,28,1,CASINO,LB,old,m,./images/CASINOLB.png,,,,,,,,,,,,,,,,,,,,,,,,,,,,,,,,,,,
,,,,,,,,,,,,,,,,,6104b1c50f6057c1d8a6e3a6,26,2022-02-12_17h56.57.763,lexical_decision_task_DD_L5,2021.2.3,MacIntel,59.97361161,,,,,,,,,,,0.6261,1,,,,,,,,,,,,,,z,1,0.6261,,,,,,,,0.319360352,-0.143208008,0,0,0,,0,18,18,108,1,GRUET,C,old,z,./images/GRUET.png,,,,,,,,,,,,,,,,,,,,,,,,,,,,,,,,,,,
,,,,,,,,,,,,,,,,,6104b1c50f6057c1d8a6e3a6,26,2022-02-12_17h56.57.763,lexical_decision_task_DD_L5,2021.2.3,MacIntel,59.97361161,,,,,,,,,,,0.8334,1,,,,,,,,,,,,,,m,1,0.8334,,,,,,,,0.319360352,-0.143208008,0,0,0,,0,19,19,63,1,BAKER,HB,old,m,./images/BAKERHB.png,,,,,,,,,,,,,,,,,,,,,,,,,,,,,,,,,,,
,,,,,,,,,,,,,,,,,6104b1c50f6057c1d8a6e3a6,26,2022-02-12_17h56.57.763,lexical_decision_task_DD_L5,2021.2.3,MacIntel,59.97361161,,,,,,,,,,,0.7165,1,,,,,,,,,,,,,,z,1,0.7165,,,,,,,,0.319360352,-0.143208008,0,0,0,,0,20,20,132,1,SCIFF,C,old,z,./images/SCIFF.png,,,,,,,,,,,,,,,,,,,,,,,,,,,,,,,,,,,
,,,,,,,,,,,,,,,,,6104b1c50f6057c1d8a6e3a6,26,2022-02-12_17h56.57.763,lexical_decision_task_DD_L5,2021.2.3,MacIntel,59.97361161,,,,,,,,,,,0.7079,1,,,,,,,,,,,,,,m,1,0.7079,,,,,,,,0.319360352,-0.143208008,0,0,0,,0,21,21,74,1,JUMPER,C,old,m,./images/JUMPER.png,,,,,,,,,,,,,,,,,,,,,,,,,,,,,,,,,,,
,,,,,,,,,,,,,,,,,6104b1c50f6057c1d8a6e3a6,26,2022-02-12_17h56.57.763,lexical_decision_task_DD_L5,2021.2.3,MacIntel,59.97361161,,,,,,,,,,,0.6287,1,,,,,,,,,,,,,,m,1,0.6287,,,,,,,,0.319360352,-0.143208008,0,0,0,,0,22,22,43,1,STOOL,LB,old,m,./images/STOOLLB.png,,,,,,,,,,,,,,,,,,,,,,,,,,,,,,,,,,,
,,,,,,,,,,,,,,,,,6104b1c50f6057c1d8a6e3a6,26,2022-02-12_17h56.57.763,lexical_decision_task_DD_L5,2021.2.3,MacIntel,59.97361161,,,,,,,,,,,0.4965,1,,,,,,,,,,,,,,m,1,0.4965,,,,,,,,0.319360352,-0.143208008,0,0,0,,0,23,23,67,1,POKER,LB,old,m,./images/POKERLB.png,,,,,,,,,,,,,,,,,,,,,,,,,,,,,,,,,,,
,,,,,,,,,,,,,,,,,6104b1c50f6057c1d8a6e3a6,26,2022-02-12_17h56.57.763,lexical_decision_task_DD_L5,2021.2.3,MacIntel,59.97361161,,,,,,,,,,,0.7623,1,,,,,,,,,,,,,,m,1,0.7623,,,,,,,,0.319360352,-0.143208008,0,0,0,,0,24,24,9,1,DIVER,HB,old,m,./images/DIVERHB.png,,,,,,,,,,,,,,,,,,,,,,,,,,,,,,,,,,,
,,,,,,,,,,,,,,,,,6104b1c50f6057c1d8a6e3a6,26,2022-02-12_17h56.57.763,lexical_decision_task_DD_L5,2021.2.3,MacIntel,59.97361161,,,,,,,,,,,0.9714,1,,,,,,,,,,,,,,z,1,0.9714,,,,,,,,0.319360352,-0.143208008,0,0,0,,0,25,25,128,1,GRIFT,LB,old,z,./images/GRIFTLB.png,,,,,,,,,,,,,,,,,,,,,,,,,,,,,,,,,,,
,,,,,,,,,,,,,,,,,6104b1c50f6057c1d8a6e3a6,26,2022-02-12_17h56.57.763,lexical_decision_task_DD_L5,2021.2.3,MacIntel,59.97361161,,,,,,,,,,,0.7422,1,,,,,,,,,,,,,,z,1,0.7422,,,,,,,,0.319360352,-0.143208008,0,0,0,,0,26,26,120,1,RINED,C,old,z,./images/RINED.png,,,,,,,,,,,,,,,,,,,,,,,,,,,,,,,,,,,
,,,,,,,,,,,,,,,,,6104b1c50f6057c1d8a6e3a6,26,2022-02-12_17h56.57.763,lexical_decision_task_DD_L5,2021.2.3,MacIntel,59.97361161,,,,,,,,,,,0.5507,1,,,,,,,,,,,,,,m,1,0.5507,,,,,,,,0.319360352,-0.143208008,0,0,0,,0,27,27,29,1,PISTOL,C,old,m,./images/PISTOL.png,,,,,,,,,,,,,,,,,,,,,,,,,,,,,,,,,,,
,,,,,,,,,,,,,,,,,6104b1c50f6057c1d8a6e3a6,26,2022-02-12_17h56.57.763,lexical_decision_task_DD_L5,2021.2.3,MacIntel,59.97361161,,,,,,,,,,,1.3971,1,,,,,,,,,,,,,,z,1,1.3971,,,,,,,,0.319360352,-0.143208008,0,0,0,,0,28,28,157,1,INLER,HB,old,z,./images/INLERHB.png,,,,,,,,,,,,,,,,,,,,,,,,,,,,,,,,,,,
,,,,,,,,,,,,,,,,,6104b1c50f6057c1d8a6e3a6,26,2022-02-12_17h56.57.763,lexical_decision_task_DD_L5,2021.2.3,MacIntel,59.97361161,,,,,,,,,,,1.6481,1,,,,,,,,,,,,,,z,1,1.6481,,,,,,,,0.319360352,-0.143208008,0,0,0,,0,29,29,166,1,SHORY,HB,old,z,./images/SHORYHB.png,,,,,,,,,,,,,,,,,,,,,,,,,,,,,,,,,,,
,,,,,,,,,,,,,,,,,6104b1c50f6057c1d8a6e3a6,26,2022-02-12_17h56.57.763,lexical_decision_task_DD_L5,2021.2.3,MacIntel,59.97361161,,,,,,,,,,,1.1628,1,,,,,,,,,,,,,,m,1,1.1628,,,,,,,,0.319360352,-0.143208008,0,0,0,,0,30,30,72,1,FLASK,HB,old,m,./images/FLASKHB.png,,,,,,,,,,,,,,,,,,,,,,,,,,,,,,,,,,,
,,,,,,,,,,,,,,,,,6104b1c50f6057c1d8a6e3a6,26,2022-02-12_17h56.57.763,lexical_decision_task_DD_L5,2021.2.3,MacIntel,59.97361161,,,,,,,,,,,0.7631,1,,,,,,,,,,,,,,z,1,0.7631,,,,,,,,0.319360352,-0.143208008,0,0,0,,0,31,31,167,1,ZONET,LB,old,z,./images/ZONETLB.png,,,,,,,,,,,,,,,,,,,,,,,,,,,,,,,,,,,
,,,,,,,,,,,,,,,,,6104b1c50f6057c1d8a6e3a6,26,2022-02-12_17h56.57.763,lexical_decision_task_DD_L5,2021.2.3,MacIntel,59.97361161,,,,,,,,,,,1.1459,1,,,,,,,,,,,,,,m,1,1.1459,,,,,,,,0.319360352,-0.143208008,0,0,0,,0,32,32,15,1,COLLAR,HB,old,m,./images/COLLARHB.png,,,,,,,,,,,,,,,,,,,,,,,,,,,,,,,,,,,
,,,,,,,,,,,,,,,,,6104b1c50f6057c1d8a6e3a6,26,2022-02-12_17h56.57.763,lexical_decision_task_DD_L5,2021.2.3,MacIntel,59.97361161,,,,,,,,,,,0.6503,1,,,,,,,,,,,,,,z,1,0.6503,,,,,,,,0.319360352,-0.143208008,0,0,0,,0,33,33,135,1,JOODY,C,old,z,./images/JOODY.png,,,,,,,,,,,,,,,,,,,,,,,,,,,,,,,,,,,
,,,,,,,,,,,,,,,,,6104b1c50f6057c1d8a6e3a6,26,2022-02-12_17h56.57.763,lexical_decision_task_DD_L5,2021.2.3,MacIntel,59.97361161,,,,,,,,,,,0.6315,1,,,,,,,,,,,,,,z,1,0.6315,,,,,,,,0.319360352,-0.143208008,0,0,0,,0,34,34,101,1,GLEET,LB,old,z,./images/GLEETLB.png,,,,,,,,,,,,,,,,,,,,,,,,,,,,,,,,,,,
,,,,,,,,,,,,,,,,,6104b1c50f6057c1d8a6e3a6,26,2022-02-12_17h56.57.763,lexical_decision_task_DD_L5,2021.2.3,MacIntel,59.97361161,,,,,,,,,,,1.0139,1,,,,,,,,,,,,,,z,1,1.0139,,,,,,,,0.319360352,-0.143208008,0,0,0,,0,35,35,145,1,LAMEL,HB,old,z,./images/LAMELHB.png,,,,,,,,,,,,,,,,,,,,,,,,,,,,,,,,,,,
,,,,,,,,,,,,,,,,,6104b1c50f6057c1d8a6e3a6,26,2022-02-12_17h56.57.763,lexical_decision_task_DD_L5,2021.2.3,MacIntel,59.97361161,,,,,,,,,,,0.6674,1,,,,,,,,,,,,,,m,1,0.6674,,,,,,,,0.319360352,-0.143208008,0,0,0,,0,36,36,82,1,PEBBLE,LB,old,m,./images/PEBBLELB.png,,,,,,,,,,,,,,,,,,,,,,,,,,,,,,,,,,,
,,,,,,,,,,,,,,,,,6104b1c50f6057c1d8a6e3a6,26,2022-02-12_17h56.57.763,lexical_decision_task_DD_L5,2021.2.3,MacIntel,59.97361161,,,,,,,,,,,0.562,1,,,,,,,,,,,,,,m,1,0.562,,,,,,,,0.319360352,-0.143208008,0,0,0,,0,37,37,38,1,ENGINE,C,old,m,./images/ENGINE.png,,,,,,,,,,,,,,,,,,,,,,,,,,,,,,,,,,,
,,,,,,,,,,,,,,,,,6104b1c50f6057c1d8a6e3a6,26,2022-02-12_17h56.57.763,lexical_decision_task_DD_L5,2021.2.3,MacIntel,59.97361161,,,,,,,,,,,0.8808,1,,,,,,,,,,,,,,m,1,0.8808,,,,,,,,0.319360352,-0.143208008,0,0,0,,0,38,38,48,1,SHIELD,HB,old,m,./images/SHIELDHB.png,,,,,,,,,,,,,,,,,,,,,,,,,,,,,,,,,,,
,,,,,,,,,,,,,,,,,6104b1c50f6057c1d8a6e3a6,26,2022-02-12_17h56.57.763,lexical_decision_task_DD_L5,2021.2.3,MacIntel,59.97361161,,,,,,,,,,,0.714,1,,,,,,,,,,,,,,z,1,0.714,,,,,,,,0.319360352,-0.143208008,0,0,0,,0,39,39,125,1,MOOKY,LB,old,z,./images/MOOKYLB.png,,,,,,,,,,,,,,,,,,,,,,,,,,,,,,,,,,,
,,,,,,,,,,,,,,,,,6104b1c50f6057c1d8a6e3a6,26,2022-02-12_17h56.57.763,lexical_decision_task_DD_L5,2021.2.3,MacIntel,59.97361161,,,,,,,,,,,0.7651,1,,,,,,,,,,,,,,z,1,0.7651,,,,,,,,0.319360352,-0.143208008,0,0,0,,0,40,40,107,1,FASKS,LB,old,z,./images/FASKSLB.png,,,,,,,,,,,,,,,,,,,,,,,,,,,,,,,,,,,
,,,,,,,,,,,,,,,,,6104b1c50f6057c1d8a6e3a6,26,2022-02-12_17h56.57.763,lexical_decision_task_DD_L5,2021.2.3,MacIntel,59.97361161,,,,,,,,,,,0.5815,1,,,,,,,,,,,,,,z,1,0.5815,,,,,,,,0.319360352,-0.143208008,0,0,0,space,0,41,41,98,1,BAMPS,LB,old,z,./images/BAMPSLB.png,20.839,,,,,,,,,,,,,,,,,,,,,,,,,,,,,,,,,,
,,,,,,,,,,,,,,,,,6104b1c50f6057c1d8a6e3a6,26,2022-02-12_17h56.57.763,lexical_decision_task_DD_L5,2021.2.3,MacIntel,59.97361161,,,,,,,,,,,0.916,1,,,,,,,,,,,,,,m,1,0.916,,,,,,,,0.319360352,-0.143208008,0,0,0,,0,42,42,1,1,TOWEL,LB,old,m,./images/TOWELLB.png,,,,,,,,,,,,,,,,,,,,,,,,,,,,,,,,,,,
,,,,,,,,,,,,,,,,,6104b1c50f6057c1d8a6e3a6,26,2022-02-12_17h56.57.763,lexical_decision_task_DD_L5,2021.2.3,MacIntel,59.97361161,,,,,,,,,,,0.8813,1,,,,,,,,,,,,,,m,1,0.8813,,,,,,,,0.319360352,-0.143208008,0,0,0,,0,43,43,40,1,SNAKE,LB,old,m,./images/SNAKELB.png,,,,,,,,,,,,,,,,,,,,,,,,,,,,,,,,,,,
,,,,,,,,,,,,,,,,,6104b1c50f6057c1d8a6e3a6,26,2022-02-12_17h56.57.763,lexical_decision_task_DD_L5,2021.2.3,MacIntel,59.97361161,,,,,,,,,,,0.6096,1,,,,,,,,,,,,,,z,1,0.6096,,,,,,,,0.319360352,-0.143208008,0,0,0,,0,44,44,111,1,HOSSE,C,old,z,./images/HOSSE.png,,,,,,,,,,,,,,,,,,,,,,,,,,,,,,,,,,,
,,,,,,,,,,,,,,,,,6104b1c50f6057c1d8a6e3a6,26,2022-02-12_17h56.57.763,lexical_decision_task_DD_L5,2021.2.3,MacIntel,59.97361161,,,,,,,,,,,1.0161,1,,,,,,,,,,,,,,z,1,1.0161,,,,,,,,0.319360352,-0.143208008,0,0,0,,0,45,45,97,1,CHIDS,HB,old,z,./images/CHIDSHB.png,,,,,,,,,,,,,,,,,,,,,,,,,,,,,,,,,,,
,,,,,,,,,,,,,,,,,6104b1c50f6057c1d8a6e3a6,26,2022-02-12_17h56.57.763,lexical_decision_task_DD_L5,2021.2.3,MacIntel,59.97361161,,,,,,,,,,,0.7602,1,,,,,,,,,,,,,,m,1,0.7602,,,,,,,,0.319360352,-0.143208008,0,0,0,,0,46,46,26,1,CLOUD,C,old,m,./images/CLOUD.png,,,,,,,,,,,,,,,,,,,,,,,,,,,,,,,,,,,
,,,,,,,,,,,,,,,,,6104b1c50f6057c1d8a6e3a6,26,2022-02-12_17h56.57.763,lexical_decision_task_DD_L5,2021.2.3,MacIntel,59.97361161,,,,,,,,,,,0.8823,1,,,,,,,,,,,,,,m,1,0.8823,,,,,,,,0.319360352,-0.143208008,0,0,0,,0,47,47,66,1,STATUE,HB,old,m,./images/STATUEHB.png,,,,,,,,,,,,,,,,,,,,,,,,,,,,,,,,,,,
,,,,,,,,,,,,,,,,,6104b1c50f6057c1d8a6e3a6,26,2022-02-12_17h56.57.763,lexical_decision_task_DD_L5,2021.2.3,MacIntel,59.97361161,,,,,,,,,,,1.4489,1,,,,,,,,,,,,,,m,1,1.4489,,,,,,,,0.319360352,-0.143208008,0,0,0,,0,48,48,24,1,FLESH,HB,old,m,./images/FLESHHB.png,,,,,,,,,,,,,,,,,,,,,,,,,,,,,,,,,,,
,,,,,,,,,,,,,,,,,6104b1c50f6057c1d8a6e3a6,26,2022-02-12_17h56.57.763,lexical_decision_task_DD_L5,2021.2.3,MacIntel,59.97361161,,,,,,,,,,,0.7147,1,,,,,,,,,,,,,,m,1,0.7147,,,,,,,,0.319360352,-0.143208008,0,0,0,,0,49,49,7,1,WAGON,LB,old,m,./images/WAGONLB.png,,,,,,,,,,,,,,,,,,,,,,,,,,,,,,,,,,,
,,,,,,,,,,,,,,,,,6104b1c50f6057c1d8a6e3a6,26,2022-02-12_17h56.57.763,lexical_decision_task_DD_L5,2021.2.3,MacIntel,59.97361161,,,,,,,,,,,1.049,1,,,,,,,,,,,,,,z,1,1.049,,,,,,,,0.319360352,-0.143208008,0,0,0,,0,50,50,94,1,BLANS,HB,old,z,./images/BLANSHB.png,,,,,,,,,,,,,,,,,,,,,,,,,,,,,,,,,,,
,,,,,,,,,,,,,,,,,6104b1c50f6057c1d8a6e3a6,26,2022-02-12_17h56.57.763,lexical_decision_task_DD_L5,2021.2.3,MacIntel,59.97361161,,,,,,,,,,,0.6488,1,,,,,,,,,,,,,,m,1,0.6488,,,,,,,,0.319360352,-0.143208008,0,0,0,,0,51,51,73,1,GLOVE,LB,old,m,./images/GLOVELB.png,,,,,,,,,,,,,,,,,,,,,,,,,,,,,,,,,,,
,,,,,,,,,,,,,,,,,6104b1c50f6057c1d8a6e3a6,26,2022-02-12_17h56.57.763,lexical_decision_task_DD_L5,2021.2.3,MacIntel,59.97361161,,,,,,,,,,,0.5143,1,,,,,,,,,,,,,,z,1,0.5143,,,,,,,,0.319360352,-0.143208008,0,0,0,,0,52,52,153,1,CLUPS,C,old,z,./images/CLUPS.png,,,,,,,,,,,,,,,,,,,,,,,,,,,,,,,,,,,
,,,,,,,,,,,,,,,,,6104b1c50f6057c1d8a6e3a6,26,2022-02-12_17h56.57.763,lexical_decision_task_DD_L5,2021.2.3,MacIntel,59.97361161,,,,,,,,,,,0.8162,1,,,,,,,,,,,,,,z,1,0.8162,,,,,,,,0.319360352,-0.143208008,0,0,0,,0,53,53,164,1,SGREW,LB,old,z,./images/SGREWLB.png,,,,,,,,,,,,,,,,,,,,,,,,,,,,,,,,,,,
,,,,,,,,,,,,,,,,,6104b1c50f6057c1d8a6e3a6,26,2022-02-12_17h56.57.763,lexical_decision_task_DD_L5,2021.2.3,MacIntel,59.97361161,,,,,,,,,,,0.75,1,,,,,,,,,,,,,,z,1,0.75,,,,,,,,0.319360352,-0.143208008,0,0,0,,0,54,54,86,1,AIFED,LB,old,z,./images/AIFEDLB.png,,,,,,,,,,,,,,,,,,,,,,,,,,,,,,,,,,,
,,,,,,,,,,,,,,,,,6104b1c50f6057c1d8a6e3a6,26,2022-02-12_17h56.57.763,lexical_decision_task_DD_L5,2021.2.3,MacIntel,59.97361161,,,,,,,,,,,1.3839,1,,,,,,,,,,,,,,z,1,1.3839,,,,,,,,0.319360352,-0.143208008,0,0,0,,0,55,55,115,1,MAWNS,HB,old,z,./images/MAWNSHB.png,,,,,,,,,,,,,,,,,,,,,,,,,,,,,,,,,,,
,,,,,,,,,,,,,,,,,6104b1c50f6057c1d8a6e3a6,26,2022-02-12_17h56.57.763,lexical_decision_task_DD_L5,2021.2.3,MacIntel,59.97361161,,,,,,,,,,,0.6863,1,,,,,,,,,,,,,,m,1,0.6863,,,,,,,,0.319360352,-0.143208008,0,0,0,,0,56,56,39,1,CANDY,HB,old,m,./images/CANDYHB.png,,,,,,,,,,,,,,,,,,,,,,,,,,,,,,,,,,,
,,,,,,,,,,,,,,,,,6104b1c50f6057c1d8a6e3a6,26,2022-02-12_17h56.57.763,lexical_decision_task_DD_L5,2021.2.3,MacIntel,59.97361161,,,,,,,,,,,0.6135,1,,,,,,,,,,,,,,m,1,0.6135,,,,,,,,0.319360352,-0.143208008,0,0,0,,0,57,57,14,1,FENCE,C,old,m,./images/FENCE.png,,,,,,,,,,,,,,,,,,,,,,,,,,,,,,,,,,,
,,,,,,,,,,,,,,,,,6104b1c50f6057c1d8a6e3a6,26,2022-02-12_17h56.57.763,lexical_decision_task_DD_L5,2021.2.3,MacIntel,59.97361161,,,,,,,,,,,0.6493,1,,,,,,,,,,,,,,z,1,0.6493,,,,,,,,0.319360352,-0.143208008,0,0,0,,0,58,58,89,1,DRIEK,LB,old,z,./images/DRIEKLB.png,,,,,,,,,,,,,,,,,,,,,,,,,,,,,,,,,,,
,,,,,,,,,,,,,,,,,6104b1c50f6057c1d8a6e3a6,26,2022-02-12_17h56.57.763,lexical_decision_task_DD_L5,2021.2.3,MacIntel,59.97361161,,,,,,,,,,,0.8155,1,,,,,,,,,,,,,,z,1,0.8155,,,,,,,,0.319360352,-0.143208008,0,0,0,,0,59,59,119,1,PAFER,LB,old,z,./images/PAFERLB.png,,,,,,,,,,,,,,,,,,,,,,,,,,,,,,,,,,,
,,,,,,,,,,,,,,,,,6104b1c50f6057c1d8a6e3a6,26,2022-02-12_17h56.57.763,lexical_decision_task_DD_L5,2021.2.3,MacIntel,59.97361161,,,,,,,,,,,0.7463,1,,,,,,,,,,,,,,z,1,0.7463,,,,,,,,0.319360352,-0.143208008,0,0,0,,0,60,60,84,1,HAXES,C,old,z,./images/HAXES.png,,,,,,,,,,,,,,,,,,,,,,,,,,,,,,,,,,,
,,,,,,,,,,,,,,,,,6104b1c50f6057c1d8a6e3a6,26,2022-02-12_17h56.57.763,lexical_decision_task_DD_L5,2021.2.3,MacIntel,59.97361161,,,,,,,,,,,1.0981,1,,,,,,,,,,,,,,m,1,1.0981,,,,,,,,0.319360352,-0.143208008,0,0,0,,0,61,61,30,1,SLOPE,HB,old,m,./images/SLOPEHB.png,,,,,,,,,,,,,,,,,,,,,,,,,,,,,,,,,,,
,,,,,,,,,,,,,,,,,6104b1c50f6057c1d8a6e3a6,26,2022-02-12_17h56.57.763,lexical_decision_task_DD_L5,2021.2.3,MacIntel,59.97361161,,,,,,,,,,,0.7331,1,,,,,,,,,,,,,,m,1,0.7331,,,,,,,,0.319360352,-0.143208008,0,0,0,,0,62,62,25,1,CHALK,LB,old,m,./images/CHALKLB.png,,,,,,,,,,,,,,,,,,,,,,,,,,,,,,,,,,,
,,,,,,,,,,,,,,,,,6104b1c50f6057c1d8a6e3a6,26,2022-02-12_17h56.57.763,lexical_decision_task_DD_L5,2021.2.3,MacIntel,59.97361161,,,,,,,,,,,0.7657,1,,,,,,,,,,,,,,m,1,0.7657,,,,,,,,0.319360352,-0.143208008,0,0,0,,0,63,63,18,1,PARCEL,HB,old,m,./images/PARCELHB.png,,,,,,,,,,,,,,,,,,,,,,,,,,,,,,,,,,,
,,,,,,,,,,,,,,,,,6104b1c50f6057c1d8a6e3a6,26,2022-02-12_17h56.57.763,lexical_decision_task_DD_L5,2021.2.3,MacIntel,59.97361161,,,,,,,,,,,1.2254,1,,,,,,,,,,,,,,z,1,1.2254,,,,,,,,0.319360352,-0.143208008,0,0,0,,0,64,64,144,1,NAIRY,C,old,z,./images/NAIRY.png,,,,,,,,,,,,,,,,,,,,,,,,,,,,,,,,,,,
,,,,,,,,,,,,,,,,,6104b1c50f6057c1d8a6e3a6,26,2022-02-12_17h56.57.763,lexical_decision_task_DD_L5,2021.2.3,MacIntel,59.97361161,,,,,,,,,,,1.0334,1,,,,,,,,,,,,,,z,1,1.0334,,,,,,,,0.319360352,-0.143208008,0,0,0,,0,65,65,140,1,DOVET,LB,old,z,./images/DOVETLB.png,,,,,,,,,,,,,,,,,,,,,,,,,,,,,,,,,,,
,,,,,,,,,,,,,,,,,6104b1c50f6057c1d8a6e3a6,26,2022-02-12_17h56.57.763,lexical_decision_task_DD_L5,2021.2.3,MacIntel,59.97361161,,,,,,,,,,,0.6827,0,,,,,,,,,,,,,,m,0,0.6827,,,,,,,,0.319360352,-0.143208008,0,0,0,,0,66,66,142,1,PLASK,HB,old,z,./images/PLASKHB.png,,,,,,,,,,,,,,,,,,,,,,,,,,,,,,,,,,,
,,,,,,,,,,,,,,,,,6104b1c50f6057c1d8a6e3a6,26,2022-02-12_17h56.57.763,lexical_decision_task_DD_L5,2021.2.3,MacIntel,59.97361161,,,,,,,,,,,1.0018,1,,,,,,,,,,,,,,z,1,1.0018,,,,,,,,0.319360352,-0.143208008,0,0,0,,0,67,67,136,1,WERVE,HB,old,z,./images/WERVEHB.png,,,,,,,,,,,,,,,,,,,,,,,,,,,,,,,,,,,
,,,,,,,,,,,,,,,,,6104b1c50f6057c1d8a6e3a6,26,2022-02-12_17h56.57.763,lexical_decision_task_DD_L5,2021.2.3,MacIntel,59.97361161,,,,,,,,,,,0.896,1,,,,,,,,,,,,,,z,1,0.896,,,,,,,,0.319360352,-0.143208008,0,0,0,,0,68,68,93,1,SMONE,C,old,z,./images/SMONE.png,,,,,,,,,,,,,,,,,,,,,,,,,,,,,,,,,,,
,,,,,,,,,,,,,,,,,6104b1c50f6057c1d8a6e3a6,26,2022-02-12_17h56.57.763,lexical_decision_task_DD_L5,2021.2.3,MacIntel,59.97361161,,,,,,,,,,,0.5619,1,,,,,,,,,,,,,,z,1,0.5619,,,,,,,,0.319360352,-0.143208008,0,0,0,,0,69,69,156,1,HIXES,C,old,z,./images/HIXES.png,,,,,,,,,,,,,,,,,,,,,,,,,,,,,,,,,,,
,,,,,,,,,,,,,,,,,6104b1c50f6057c1d8a6e3a6,26,2022-02-12_17h56.57.763,lexical_decision_task_DD_L5,2021.2.3,MacIntel,59.97361161,,,,,,,,,,,0.5757,1,,,,,,,,,,,,,,z,1,0.5757,,,,,,,,0.319360352,-0.143208008,0,0,0,,0,70,70,87,1,TRING,C,old,z,./images/TRING.png,,,,,,,,,,,,,,,,,,,,,,,,,,,,,,,,,,,
,,,,,,,,,,,,,,,,,6104b1c50f6057c1d8a6e3a6,26,2022-02-12_17h56.57.763,lexical_decision_task_DD_L5,2021.2.3,MacIntel,59.97361161,,,,,,,,,,,1.0331,1,,,,,,,,,,,,,,z,1,1.0331,,,,,,,,0.319360352,-0.143208008,0,0,0,,0,71,71,133,1,POWDY,HB,old,z,./images/POWDYHB.png,,,,,,,,,,,,,,,,,,,,,,,,,,,,,,,,,,,
,,,,,,,,,,,,,,,,,6104b1c50f6057c1d8a6e3a6,26,2022-02-12_17h56.57.763,lexical_decision_task_DD_L5,2021.2.3,MacIntel,59.97361161,,,,,,,,,,,1.0464,1,,,,,,,,,,,,,,z,1,1.0464,,,,,,,,0.319360352,-0.143208008,0,0,0,,0,72,72,129,1,PRANS,C,old,z,./images/PRANS.png,,,,,,,,,,,,,,,,,,,,,,,,,,,,,,,,,,,
,,,,,,,,,,,,,,,,,6104b1c50f6057c1d8a6e3a6,26,2022-02-12_17h56.57.763,lexical_decision_task_DD_L5,2021.2.3,MacIntel,59.97361161,,,,,,,,,,,0.6026,1,,,,,,,,,,,,,,z,1,0.6026,,,,,,,,0.319360352,-0.143208008,0,0,0,,0,73,73,113,1,LINEW,LB,old,z,./images/LINEWLB.png,,,,,,,,,,,,,,,,,,,,,,,,,,,,,,,,,,,
,,,,,,,,,,,,,,,,,6104b1c50f6057c1d8a6e3a6,26,2022-02-12_17h56.57.763,lexical_decision_task_DD_L5,2021.2.3,MacIntel,59.97361161,,,,,,,,,,,0.5436,1,,,,,,,,,,,,,,z,1,0.5436,,,,,,,,0.319360352,-0.143208008,0,0,0,,0,74,74,147,1,ZOLES,C,old,z,./images/ZOLES.png,,,,,,,,,,,,,,,,,,,,,,,,,,,,,,,,,,,
,,,,,,,,,,,,,,,,,6104b1c50f6057c1d8a6e3a6,26,2022-02-12_17h56.57.763,lexical_decision_task_DD_L5,2021.2.3,MacIntel,59.97361161,,,,,,,,,,,0.508,1,,,,,,,,,,,,,,m,1,0.508,,,,,,,,0.319360352,-0.143208008,0,0,0,,0,75,75,83,1,WHISKY,C,old,m,./images/WHISKY.png,,,,,,,,,,,,,,,,,,,,,,,,,,,,,,,,,,,
,,,,,,,,,,,,,,,,,6104b1c50f6057c1d8a6e3a6,26,2022-02-12_17h56.57.763,lexical_decision_task_DD_L5,2021.2.3,MacIntel,59.97361161,,,,,,,,,,,0.9001,1,,,,,,,,,,,,,,z,1,0.9001,,,,,,,,0.319360352,-0.143208008,0,0,0,,0,76,76,130,1,CRILL,HB,old,z,./images/CRILLHB.png,,,,,,,,,,,,,,,,,,,,,,,,,,,,,,,,,,,
,,,,,,,,,,,,,,,,,6104b1c50f6057c1d8a6e3a6,26,2022-02-12_17h56.57.763,lexical_decision_task_DD_L5,2021.2.3,MacIntel,59.97361161,,,,,,,,,,,0.677,1,,,,,,,,,,,,,,m,1,0.677,,,,,,,,0.319360352,-0.143208008,0,0,0,,0,77,77,34,1,RAZOR,LB,old,m,./images/RAZORLB.png,,,,,,,,,,,,,,,,,,,,,,,,,,,,,,,,,,,
,,,,,,,,,,,,,,,,,6104b1c50f6057c1d8a6e3a6,26,2022-02-12_17h56.57.763,lexical_decision_task_DD_L5,2021.2.3,MacIntel,59.97361161,,,,,,,,,,,1.0412,1,,,,,,,,,,,,,,m,1,1.0412,,,,,,,,0.319360352,-0.143208008,0,0,0,,0,78,78,44,1,BASKET,C,old,m,./images/BASKET.png,,,,,,,,,,,,,,,,,,,,,,,,,,,,,,,,,,,
,,,,,,,,,,,,,,,,,6104b1c50f6057c1d8a6e3a6,26,2022-02-12_17h56.57.763,lexical_decision_task_DD_L5,2021.2.3,MacIntel,59.97361161,,,,,,,,,,,0.8405,1,,,,,,,,,,,,,,z,1,0.8405,,,,,,,,0.319360352,-0.143208008,0,0,0,,0,79,79,141,1,PLEET,C,old,z,./images/PLEET.png,,,,,,,,,,,,,,,,,,,,,,,,,,,,,,,,,,,
,,,,,,,,,,,,,,,,,6104b1c50f6057c1d8a6e3a6,26,2022-02-12_17h56.57.763,lexical_decision_task_DD_L5,2021.2.3,MacIntel,59.97361161,,,,,,,,,,,0.5828,1,,,,,,,,,,,,,,z,1,0.5828,,,,,,,,0.319360352,-0.143208008,0,0,0,,0,80,80,102,1,DULLE,C,old,z,./images/DULLE.png,,,,,,,,,,,,,,,,,,,,,,,,,,,,,,,,,,,
,,,,,,,,,,,,,,,,,6104b1c50f6057c1d8a6e3a6,26,2022-02-12_17h56.57.763,lexical_decision_task_DD_L5,2021.2.3,MacIntel,59.97361161,,,,,,,,,,,0.5847,1,,,,,,,,,,,,,,m,1,0.5847,,,,,,,,0.319360352,-0.143208008,0,0,0,,0,81,81,61,1,ARTIST,LB,old,m,./images/ARTISTLB.png,,,,,,,,,,,,,,,,,,,,,,,,,,,,,,,,,,,
,,,,,,,,,,,,,,,,,6104b1c50f6057c1d8a6e3a6,26,2022-02-12_17h56.57.763,lexical_decision_task_DD_L5,2021.2.3,MacIntel,59.97361161,,,,,,,,,,,1.1954,1,,,,,,,,,,,,,,m,1,1.1954,,,,,,,,0.319360352,-0.143208008,0,0,0,,0,82,82,33,1,SAUNA,HB,old,m,./images/SAUNAHB.png,,,,,,,,,,,,,,,,,,,,,,,,,,,,,,,,,,,
,,,,,,,,,,,,,,,,,6104b1c50f6057c1d8a6e3a6,26,2022-02-12_17h56.57.763,lexical_decision_task_DD_L5,2021.2.3,MacIntel,59.97361161,,,,,,,,,,,1.0826,1,,,,,,,,,,,,,,m,1,1.0826,,,,,,,,0.319360352,-0.143208008,0,0,0,space,0,83,83,12,1,BLOKE,HB,old,m,./images/BLOKEHB.png,2.3551,,,,,,,,,,,,,,,,,,,,,,,,,,,,,,,,,,
,,,,,,,,,,,,,,,,,6104b1c50f6057c1d8a6e3a6,26,2022-02-12_17h56.57.763,lexical_decision_task_DD_L5,2021.2.3,MacIntel,59.97361161,,,,,,,,,,,1.1764,1,,,,,,,,,,,,,,z,1,1.1764,,,,,,,,0.319360352,-0.143208008,0,0,0,,0,84,84,163,1,GAMBA,HB,old,z,./images/GAMBAHB.png,,,,,,,,,,,,,,,,,,,,,,,,,,,,,,,,,,,
,,,,,,,,,,,,,,,,,6104b1c50f6057c1d8a6e3a6,26,2022-02-12_17h56.57.763,lexical_decision_task_DD_L5,2021.2.3,MacIntel,59.97361161,,,,,,,,,,,0.8643,1,,,,,,,,,,,,,,z,1,0.8643,,,,,,,,0.319360352,-0.143208008,0,0,0,,0,85,85,124,1,TUNCH,HB,old,z,./images/TUNCHHB.png,,,,,,,,,,,,,,,,,,,,,,,,,,,,,,,,,,,
,,,,,,,,,,,,,,,,,6104b1c50f6057c1d8a6e3a6,26,2022-02-12_17h56.57.763,lexical_decision_task_DD_L5,2021.2.3,MacIntel,59.97361161,,,,,,,,,,,0.7264,1,,,,,,,,,,,,,,z,1,0.7264,,,,,,,,0.319360352,-0.143208008,0,0,0,,0,86,86,138,1,PLICE,C,old,z,./images/PLICE.png,,,,,,,,,,,,,,,,,,,,,,,,,,,,,,,,,,,
,,,,,,,,,,,,,,,,,6104b1c50f6057c1d8a6e3a6,26,2022-02-12_17h56.57.763,lexical_decision_task_DD_L5,2021.2.3,MacIntel,59.97361161,,,,,,,,,,,0.5416,1,,,,,,,,,,,,,,z,1,0.5416,,,,,,,,0.319360352,-0.143208008,0,0,0,,0,87,87,123,1,SEDGE,C,old,z,./images/SEDGE.png,,,,,,,,,,,,,,,,,,,,,,,,,,,,,,,,,,,
,,,,,,,,,,,,,,,,,6104b1c50f6057c1d8a6e3a6,26,2022-02-12_17h56.57.763,lexical_decision_task_DD_L5,2021.2.3,MacIntel,59.97361161,,,,,,,,,,,0.6273,1,,,,,,,,,,,,,,z,1,0.6273,,,,,,,,0.319360352,-0.143208008,0,0,0,,0,88,88,117,1,STEEG,C,old,z,./images/STEEG.png,,,,,,,,,,,,,,,,,,,,,,,,,,,,,,,,,,,
,,,,,,,,,,,,,,,,,6104b1c50f6057c1d8a6e3a6,26,2022-02-12_17h56.57.763,lexical_decision_task_DD_L5,2021.2.3,MacIntel,59.97361161,,,,,,,,,,,0.5738,1,,,,,,,,,,,,,,m,1,0.5738,,,,,,,,0.319360352,-0.143208008,0,0,0,,0,89,89,65,1,SPINE,C,old,m,./images/SPINE.png,,,,,,,,,,,,,,,,,,,,,,,,,,,,,,,,,,,
,,,,,,,,,,,,,,,,,6104b1c50f6057c1d8a6e3a6,26,2022-02-12_17h56.57.763,lexical_decision_task_DD_L5,2021.2.3,MacIntel,59.97361161,,,,,,,,,,,0.6339,1,,,,,,,,,,,,,,z,1,0.6339,,,,,,,,0.319360352,-0.143208008,0,0,0,,0,90,90,155,1,CANGY,LB,old,z,./images/CANGYLB.png,,,,,,,,,,,,,,,,,,,,,,,,,,,,,,,,,,,
,,,,,,,,,,,,,,,,,6104b1c50f6057c1d8a6e3a6,26,2022-02-12_17h56.57.763,lexical_decision_task_DD_L5,2021.2.3,MacIntel,59.97361161,,,,,,,,,,,0.6933,1,,,,,,,,,,,,,,z,1,0.6933,,,,,,,,0.319360352,-0.143208008,0,0,0,,0,91,91,148,1,JOMS,HB,old,z,./images/JOMSHB.png,,,,,,,,,,,,,,,,,,,,,,,,,,,,,,,,,,,
,,,,,,,,,,,,,,,,,6104b1c50f6057c1d8a6e3a6,26,2022-02-12_17h56.57.763,lexical_decision_task_DD_L5,2021.2.3,MacIntel,59.97361161,,,,,,,,,,,0.6821,1,,,,,,,,,,,,,,z,1,0.6821,,,,,,,,0.319360352,-0.143208008,0,0,0,,0,92,92,149,1,VEASE,LB,old,z,./images/VEASELB.png,,,,,,,,,,,,,,,,,,,,,,,,,,,,,,,,,,,
,,,,,,,,,,,,,,,,,6104b1c50f6057c1d8a6e3a6,26,2022-02-12_17h56.57.763,lexical_decision_task_DD_L5,2021.2.3,MacIntel,59.97361161,,,,,,,,,,,0.7655,0,,,,,,,,,,,,,,z,0,0.7655,,,,,,,,0.319360352,-0.143208008,0,0,0,,0,93,93,76,1,MIDGET,LB,old,m,./images/MIDGETLB.png,,,,,,,,,,,,,,,,,,,,,,,,,,,,,,,,,,,
,,,,,,,,,,,,,,,,,6104b1c50f6057c1d8a6e3a6,26,2022-02-12_17h56.57.763,lexical_decision_task_DD_L5,2021.2.3,MacIntel,59.97361161,,,,,,,,,,,1.5115,1,,,,,,,,,,,,,,m,1,1.5115,,,,,,,,0.319360352,-0.143208008,0,0,0,,0,94,94,51,1,SAUCE,HB,old,m,./images/SAUCEHB.png,,,,,,,,,,,,,,,,,,,,,,,,,,,,,,,,,,,
,,,,,,,,,,,,,,,,,6104b1c50f6057c1d8a6e3a6,26,2022-02-12_17h56.57.763,lexical_decision_task_DD_L5,2021.2.3,MacIntel,59.97361161,,,,,,,,,,,1.2923,1,,,,,,,,,,,,,,z,1,1.2923,,,,,,,,0.319360352,-0.143208008,0,0,0,,0,95,95,112,1,MYING,HB,old,z,./images/MYINGHB.png,,,,,,,,,,,,,,,,,,,,,,,,,,,,,,,,,,,
,,,,,,,,,,,,,,,,,6104b1c50f6057c1d8a6e3a6,26,2022-02-12_17h56.57.763,lexical_decision_task_DD_L5,2021.2.3,MacIntel,59.97361161,,,,,,,,,,,1.5117,1,,,,,,,,,,,,,,m,1,1.5117,,,,,,,,0.319360352,-0.143208008,0,0,0,,0,96,96,36,1,BOILER,HB,old,m,./images/BOILERHB.png,,,,,,,,,,,,,,,,,,,,,,,,,,,,,,,,,,,
,,,,,,,,,,,,,,,,,6104b1c50f6057c1d8a6e3a6,26,2022-02-12_17h56.57.763,lexical_decision_task_DD_L5,2021.2.3,MacIntel,59.97361161,,,,,,,,,,,0.9783,1,,,,,,,,,,,,,,m,1,0.9783,,,,,,,,0.319360352,-0.143208008,0,0,0,,0,97,97,52,1,DESERT,LB,old,m,./images/DESERTLB.png,,,,,,,,,,,,,,,,,,,,,,,,,,,,,,,,,,,
,,,,,,,,,,,,,,,,,6104b1c50f6057c1d8a6e3a6,26,2022-02-12_17h56.57.763,lexical_decision_task_DD_L5,2021.2.3,MacIntel,59.97361161,,,,,,,,,,,1.1946,1,,,,,,,,,,,,,,m,1,1.1946,,,,,,,,0.319360352,-0.143208008,0,0,0,,0,98,98,75,1,HAMMER,HB,old,m,./images/HAMMERHB.png,,,,,,,,,,,,,,,,,,,,,,,,,,,,,,,,,,,
,,,,,,,,,,,,,,,,,6104b1c50f6057c1d8a6e3a6,26,2022-02-12_17h56.57.763,lexical_decision_task_DD_L5,2021.2.3,MacIntel,59.97361161,,,,,,,,,,,1.0321,1,,,,,,,,,,,,,,z,1,1.0321,,,,,,,,0.319360352,-0.143208008,0,0,0,,0,99,99,100,1,DRIBS,HB,old,z,./images/DRIBSHB.png,,,,,,,,,,,,,,,,,,,,,,,,,,,,,,,,,,,
,,,,,,,,,,,,,,,,,6104b1c50f6057c1d8a6e3a6,26,2022-02-12_17h56.57.763,lexical_decision_task_DD_L5,2021.2.3,MacIntel,59.97361161,,,,,,,,,,,0.8602,1,,,,,,,,,,,,,,m,1,0.8602,,,,,,,,0.319360352,-0.143208008,0,0,0,,0,100,100,23,1,CLOTH,C,old,m,./images/CLOTH.png,,,,,,,,,,,,,,,,,,,,,,,,,,,,,,,,,,,
,,,,,,,,,,,,,,,,,6104b1c50f6057c1d8a6e3a6,26,2022-02-12_17h56.57.763,lexical_decision_task_DD_L5,2021.2.3,MacIntel,59.97361161,,,,,,,,,,,0.5517,1,,,,,,,,,,,,,,m,1,0.5517,,,,,,,,0.319360352,-0.143208008,0,0,0,,0,101,101,16,1,GRAPE,LB,old,m,./images/GRAPELB.png,,,,,,,,,,,,,,,,,,,,,,,,,,,,,,,,,,,
,,,,,,,,,,,,,,,,,6104b1c50f6057c1d8a6e3a6,26,2022-02-12_17h56.57.763,lexical_decision_task_DD_L5,2021.2.3,MacIntel,59.97361161,,,,,,,,,,,0.6137,1,,,,,,,,,,,,,,m,1,0.6137,,,,,,,,0.319360352,-0.143208008,0,0,0,,0,102,102,20,1,GRANNY,C,old,m,./images/GRANNY.png,,,,,,,,,,,,,,,,,,,,,,,,,,,,,,,,,,,
,,,,,,,,,,,,,,,,,6104b1c50f6057c1d8a6e3a6,26,2022-02-12_17h56.57.763,lexical_decision_task_DD_L5,2021.2.3,MacIntel,59.97361161,,,,,,,,,,,0.5504,1,,,,,,,,,,,,,,m,1,0.5504,,,,,,,,0.319360352,-0.143208008,0,0,0,,0,103,103,4,1,BOXER,LB,old,m,./images/BOXERLB.png,,,,,,,,,,,,,,,,,,,,,,,,,,,,,,,,,,,
,,,,,,,,,,,,,,,,,6104b1c50f6057c1d8a6e3a6,26,2022-02-12_17h56.57.763,lexical_decision_task_DD_L5,2021.2.3,MacIntel,59.97361161,,,,,,,,,,,0.6966,1,,,,,,,,,,,,,,m,1,0.6966,,,,,,,,0.319360352,-0.143208008,0,0,0,,0,104,104,6,1,STAIN,HB,old,m,./images/STAINHB.png,,,,,,,,,,,,,,,,,,,,,,,,,,,,,,,,,,,
,,,,,,,,,,,,,,,,,6104b1c50f6057c1d8a6e3a6,26,2022-02-12_17h56.57.763,lexical_decision_task_DD_L5,2021.2.3,MacIntel,59.97361161,,,,,,,,,,,0.9937,1,,,,,,,,,,,,,,z,1,0.9937,,,,,,,,0.319360352,-0.143208008,0,0,0,,0,105,105,85,1,CHULK,HB,old,z,./images/CHULKHB.png,,,,,,,,,,,,,,,,,,,,,,,,,,,,,,,,,,,
,,,,,,,,,,,,,,,,,6104b1c50f6057c1d8a6e3a6,26,2022-02-12_17h56.57.763,lexical_decision_task_DD_L5,2021.2.3,MacIntel,59.97361161,,,,,,,,,,,0.697,1,,,,,,,,,,,,,,z,1,0.697,,,,,,,,0.319360352,-0.143208008,0,0,0,,0,106,106,160,1,VEETS,HB,old,z,./images/VEETSHB.png,,,,,,,,,,,,,,,,,,,,,,,,,,,,,,,,,,,
,,,,,,,,,,,,,,,,,6104b1c50f6057c1d8a6e3a6,26,2022-02-12_17h56.57.763,lexical_decision_task_DD_L5,2021.2.3,MacIntel,59.97361161,,,,,,,,,,,0.5736,1,,,,,,,,,,,,,,m,1,0.5736,,,,,,,,0.319360352,-0.143208008,0,0,0,,0,107,107,56,1,HEATER,C,old,m,./images/HEATER.png,,,,,,,,,,,,,,,,,,,,,,,,,,,,,,,,,,,
,,,,,,,,,,,,,,,,,6104b1c50f6057c1d8a6e3a6,26,2022-02-12_17h56.57.763,lexical_decision_task_DD_L5,2021.2.3,MacIntel,59.97361161,,,,,,,,,,,0.6264,1,,,,,,,,,,,,,,z,1,0.6264,,,,,,,,0.319360352,-0.143208008,0,0,0,,0,108,108,90,1,NEAST,C,old,z,./images/NEAST.png,,,,,,,,,,,,,,,,,,,,,,,,,,,,,,,,,,,
,,,,,,,,,,,,,,,,,6104b1c50f6057c1d8a6e3a6,26,2022-02-12_17h56.57.763,lexical_decision_task_DD_L5,2021.2.3,MacIntel,59.97361161,,,,,,,,,,,0.6775,1,,,,,,,,,,,,,,z,1,0.6775,,,,,,,,0.319360352,-0.143208008,0,0,0,,0,109,109,165,1,TROWN,C,old,z,./images/TROWN.png,,,,,,,,,,,,,,,,,,,,,,,,,,,,,,,,,,,
,,,,,,,,,,,,,,,,,6104b1c50f6057c1d8a6e3a6,26,2022-02-12_17h56.57.763,lexical_decision_task_DD_L5,2021.2.3,MacIntel,59.97361161,,,,,,,,,,,0.6118,1,,,,,,,,,,,,,,z,1,0.6118,,,,,,,,0.319360352,-0.143208008,0,0,0,,0,110,110,161,1,BLAPS,LB,old,z,./images/BLAPSLB.png,,,,,,,,,,,,,,,,,,,,,,,,,,,,,,,,,,,
,,,,,,,,,,,,,,,,,6104b1c50f6057c1d8a6e3a6,26,2022-02-12_17h56.57.763,lexical_decision_task_DD_L5,2021.2.3,MacIntel,59.97361161,,,,,,,,,,,0.8276,1,,,,,,,,,,,,,,z,1,0.8276,,,,,,,,0.319360352,-0.143208008,0,0,0,,0,111,111,139,1,BLEAR,HB,old,z,./images/BLEARHB.png,,,,,,,,,,,,,,,,,,,,,,,,,,,,,,,,,,,
,,,,,,,,,,,,,,,,,6104b1c50f6057c1d8a6e3a6,26,2022-02-12_17h56.57.763,lexical_decision_task_DD_L5,2021.2.3,MacIntel,59.97361161,,,,,,,,,,,0.743,1,,,,,,,,,,,,,,m,1,0.743,,,,,,,,0.319360352,-0.143208008,0,0,0,,0,112,112,47,1,LAGOON,C,old,m,./images/LAGOON.png,,,,,,,,,,,,,,,,,,,,,,,,,,,,,,,,,,,
,,,,,,,,,,,,,,,,,6104b1c50f6057c1d8a6e3a6,26,2022-02-12_17h56.57.763,lexical_decision_task_DD_L5,2021.2.3,MacIntel,59.97361161,,,,,,,,,,,0.6408,1,,,,,,,,,,,,,,z,1,0.6408,,,,,,,,0.319360352,-0.143208008,0,0,0,,0,113,113,126,1,GUELS,C,old,z,./images/GUELS.png,,,,,,,,,,,,,,,,,,,,,,,,,,,,,,,,,,,
,,,,,,,,,,,,,,,,,6104b1c50f6057c1d8a6e3a6,26,2022-02-12_17h56.57.763,lexical_decision_task_DD_L5,2021.2.3,MacIntel,59.97361161,,,,,,,,,,,0.5748,1,,,,,,,,,,,,,,m,1,0.5748,,,,,,,,0.319360352,-0.143208008,0,0,0,,0,114,114,31,1,STEAK,LB,old,m,./images/STEAKLB.png,,,,,,,,,,,,,,,,,,,,,,,,,,,,,,,,,,,
,,,,,,,,,,,,,,,,,6104b1c50f6057c1d8a6e3a6,26,2022-02-12_17h56.57.763,lexical_decision_task_DD_L5,2021.2.3,MacIntel,59.97361161,,,,,,,,,,,0.5666,1,,,,,,,,,,,,,,z,1,0.5666,,,,,,,,0.319360352,-0.143208008,0,0,0,,0,115,115,150,1,NOOLS,C,old,z,./images/NOOLS.png,,,,,,,,,,,,,,,,,,,,,,,,,,,,,,,,,,,
,,,,,,,,,,,,,,,,,6104b1c50f6057c1d8a6e3a6,26,2022-02-12_17h56.57.763,lexical_decision_task_DD_L5,2021.2.3,MacIntel,59.97361161,,,,,,,,,,,0.9411,1,,,,,,,,,,,,,,z,1,0.9411,,,,,,,,0.319360352,-0.143208008,0,0,0,,0,116,116,127,1,NINDY,HB,old,z,./images/NINDYHB.png,,,,,,,,,,,,,,,,,,,,,,,,,,,,,,,,,,,
,,,,,,,,,,,,,,,,,6104b1c50f6057c1d8a6e3a6,26,2022-02-12_17h56.57.763,lexical_decision_task_DD_L5,2021.2.3,MacIntel,59.97361161,,,,,,,,,,,0.6143,1,,,,,,,,,,,,,,m,1,0.6143,,,,,,,,0.319360352,-0.143208008,0,0,0,,0,117,117,77,1,WHEEL,C,old,m,./images/WHEEL.png,,,,,,,,,,,,,,,,,,,,,,,,,,,,,,,,,,,
,,,,,,,,,,,,,,,,,6104b1c50f6057c1d8a6e3a6,26,2022-02-12_17h56.57.763,lexical_decision_task_DD_L5,2021.2.3,MacIntel,59.97361161,,,,,,,,,,,0.5968,1,,,,,,,,,,,,,,m,1,0.5968,,,,,,,,0.319360352,-0.143208008,0,0,0,,0,118,118,59,1,BRUSH,C,old,m,./images/BRUSH.png,,,,,,,,,,,,,,,,,,,,,,,,,,,,,,,,,,,
,,,,,,,,,,,,,,,,,6104b1c50f6057c1d8a6e3a6,26,2022-02-12_17h56.57.763,lexical_decision_task_DD_L5,2021.2.3,MacIntel,59.97361161,,,,,,,,,,,1.1479,1,,,,,,,,,,,,,,z,1,1.1479,,,,,,,,0.319360352,-0.143208008,0,0,0,,0,119,119,91,1,SHENS,HB,old,z,./images/SHENSHB.png,,,,,,,,,,,,,,,,,,,,,,,,,,,,,,,,,,,
,,,,,,,,,,,,,,,,,6104b1c50f6057c1d8a6e3a6,26,2022-02-12_17h56.57.763,lexical_decision_task_DD_L5,2021.2.3,MacIntel,59.97361161,,,,,,,,,,,0.7589,1,,,,,,,,,,,,,,m,1,0.7589,,,,,,,,0.319360352,-0.143208008,0,0,0,,0,120,120,8,1,CLIFF,C,old,m,./images/CLIFF.png,,,,,,,,,,,,,,,,,,,,,,,,,,,,,,,,,,,
,,,,,,,,,,,,,,,,,6104b1c50f6057c1d8a6e3a6,26,2022-02-12_17h56.57.763,lexical_decision_task_DD_L5,2021.2.3,MacIntel,59.97361161,,,,,,,,,,,0.5951,1,,,,,,,,,,,,,,z,1,0.5951,,,,,,,,0.319360352,-0.143208008,0,0,0,,0,121,121,159,1,CUDDY,C,old,z,./images/CUDDY.png,,,,,,,,,,,,,,,,,,,,,,,,,,,,,,,,,,,
,,,,,,,,,,,,,,,,,6104b1c50f6057c1d8a6e3a6,26,2022-02-12_17h56.57.763,lexical_decision_task_DD_L5,2021.2.3,MacIntel,59.97361161,,,,,,,,,,,0.4811,1,,,,,,,,,,,,,,m,1,0.4811,,,,,,,,0.319360352,-0.143208008,0,0,0,,0,122,122,71,1,BUBBLE,C,old,m,./images/BUBBLE.png,,,,,,,,,,,,,,,,,,,,,,,,,,,,,,,,,,,
,,,,,,,,,,,,,,,,,6104b1c50f6057c1d8a6e3a6,26,2022-02-12_17h56.57.763,lexical_decision_task_DD_L5,2021.2.3,MacIntel,59.97361161,,,,,,,,,,,0.7272,1,,,,,,,,,,,,,,z,1,0.7272,,,,,,,,0.319360352,-0.143208008,0,0,0,,0,123,123,103,1,FLORT,HB,old,z,./images/FLORTHB.png,,,,,,,,,,,,,,,,,,,,,,,,,,,,,,,,,,,
,,,,,,,,,,,,,,,,,6104b1c50f6057c1d8a6e3a6,26,2022-02-12_17h56.57.763,lexical_decision_task_DD_L5,2021.2.3,MacIntel,59.97361161,,,,,,,,,,,1.3669,1,,,,,,,,,,,,,,z,1,1.3669,,,,,,,,0.319360352,-0.143208008,0,0,0,,0,124,124,104,1,GITTY,LB,old,z,./images/GITTYLB.png,,,,,,,,,,,,,,,,,,,,,,,,,,,,,,,,,,,
,,,,,,,,,,,,,,,,,6104b1c50f6057c1d8a6e3a6,26,2022-02-12_17h56.57.763,lexical_decision_task_DD_L5,2021.2.3,MacIntel,59.97361161,,,,,,,,,,,1.6588,1,,,,,,,,,,,,,,m,1,1.6588,,,,,,,,0.319360352,-0.143208008,0,0,0,space,0,125,125,69,1,ARROW,HB,old,m,./images/ARROWHB.png,3.8378,,,,,,,,,,,,,,,,,,,,,,,,,,,,,,,,,,
,,,,,,,,,,,,,,,,,6104b1c50f6057c1d8a6e3a6,26,2022-02-12_17h56.57.763,lexical_decision_task_DD_L5,2021.2.3,MacIntel,59.97361161,,,,,,,,,,,0.5728,1,,,,,,,,,,,,,,m,1,0.5728,,,,,,,,0.319360352,-0.143208008,0,0,0,,0,126,126,41,1,STREAM,C,old,m,./images/STREAM.png,,,,,,,,,,,,,,,,,,,,,,,,,,,,,,,,,,,
,,,,,,,,,,,,,,,,,6104b1c50f6057c1d8a6e3a6,26,2022-02-12_17h56.57.763,lexical_decision_task_DD_L5,2021.2.3,MacIntel,59.97361161,,,,,,,,,,,0.5932,1,,,,,,,,,,,,,,z,1,0.5932,,,,,,,,0.319360352,-0.143208008,0,0,0,,0,127,127,105,1,MOKER,C,old,z,./images/MOKER.png,,,,,,,,,,,,,,,,,,,,,,,,,,,,,,,,,,,
,,,,,,,,,,,,,,,,,6104b1c50f6057c1d8a6e3a6,26,2022-02-12_17h56.57.763,lexical_decision_task_DD_L5,2021.2.3,MacIntel,59.97361161,,,,,,,,,,,1.0469,1,,,,,,,,,,,,,,m,1,1.0469,,,,,,,,0.319360352,-0.143208008,0,0,0,,0,128,128,57,1,FERRY,HB,old,m,./images/FERRYHB.png,,,,,,,,,,,,,,,,,,,,,,,,,,,,,,,,,,,
,,,,,,,,,,,,,,,,,6104b1c50f6057c1d8a6e3a6,26,2022-02-12_17h56.57.763,lexical_decision_task_DD_L5,2021.2.3,MacIntel,59.97361161,,,,,,,,,,,0.6927,1,,,,,,,,,,,,,,m,1,0.6927,,,,,,,,0.319360352,-0.143208008,0,0,0,,0,129,129,80,1,PLANET,C,old,m,./images/PLANET.png,,,,,,,,,,,,,,,,,,,,,,,,,,,,,,,,,,,
,,,,,,,,,,,,,,,,,6104b1c50f6057c1d8a6e3a6,26,2022-02-12_17h56.57.763,lexical_decision_task_DD_L5,2021.2.3,MacIntel,59.97361161,,,,,,,,,,,1.3168,1,,,,,,,,,,,,,,m,1,1.3168,,,,,,,,0.319360352,-0.143208008,0,0,0,,0,130,130,64,1,BRIDE,LB,old,m,./images/BRIDELB.png,,,,,,,,,,,,,,,,,,,,,,,,,,,,,,,,,,,
,,,,,,,,,,,,,,,,,6104b1c50f6057c1d8a6e3a6,26,2022-02-12_17h56.57.763,lexical_decision_task_DD_L5,2021.2.3,MacIntel,59.97361161,,,,,,,,,,,0.7814,1,,,,,,,,,,,,,,z,1,0.7814,,,,,,,,0.319360352,-0.143208008,0,0,0,,0,131,131,95,1,HANTY,LB,old,z,./images/HANTYLB.png,,,,,,,,,,,,,,,,,,,,,,,,,,,,,,,,,,,
,,,,,,,,,,,,,,,,,6104b1c50f6057c1d8a6e3a6,26,2022-02-12_17h56.57.763,lexical_decision_task_DD_L5,2021.2.3,MacIntel,59.97361161,,,,,,,,,,,0.8411,1,,,,,,,,,,,,,,m,1,0.8411,,,,,,,,0.319360352,-0.143208008,0,0,0,,0,132,132,81,1,DRILL,HB,old,m,./images/DRILLHB.png,,,,,,,,,,,,,,,,,,,,,,,,,,,,,,,,,,,
,,,,,,,,,,,,,,,,,6104b1c50f6057c1d8a6e3a6,26,2022-02-12_17h56.57.763,lexical_decision_task_DD_L5,2021.2.3,MacIntel,59.97361161,,,,,,,,,,,0.7471,1,,,,,,,,,,,,,,z,1,0.7471,,,,,,,,0.319360352,-0.143208008,0,0,0,,0,133,133,137,1,JOOST,LB,old,z,./images/JOOSTLB.png,,,,,,,,,,,,,,,,,,,,,,,,,,,,,,,,,,,
,,,,,,,,,,,,,,,,,6104b1c50f6057c1d8a6e3a6,26,2022-02-12_17h56.57.763,lexical_decision_task_DD_L5,2021.2.3,MacIntel,59.97361161,,,,,,,,,,,0.6404,1,,,,,,,,,,,,,,m,1,0.6404,,,,,,,,0.319360352,-0.143208008,0,0,0,,0,134,134,45,1,MONKEY,HB,old,m,./images/MONKEYHB.png,,,,,,,,,,,,,,,,,,,,,,,,,,,,,,,,,,,
,,,,,,,,,,,,,,,,,6104b1c50f6057c1d8a6e3a6,26,2022-02-12_17h56.57.763,lexical_decision_task_DD_L5,2021.2.3,MacIntel,59.97361161,,,,,,,,,,,0.5557,1,,,,,,,,,,,,,,m,1,0.5557,,,,,,,,0.319360352,-0.143208008,0,0,0,,0,135,135,50,1,PILOT,C,old,m,./images/PILOT.png,,,,,,,,,,,,,,,,,,,,,,,,,,,,,,,,,,,
,,,,,,,,,,,,,,,,,6104b1c50f6057c1d8a6e3a6,26,2022-02-12_17h56.57.763,lexical_decision_task_DD_L5,2021.2.3,MacIntel,59.97361161,,,,,,,,,,,0.6954,1,,,,,,,,,,,,,,z,1,0.6954,,,,,,,,0.319360352,-0.143208008,0,0,0,,0,136,136,99,1,BACKY,C,old,z,./images/BACKY.png,,,,,,,,,,,,,,,,,,,,,,,,,,,,,,,,,,,
,,,,,,,,,,,,,,,,,6104b1c50f6057c1d8a6e3a6,26,2022-02-12_17h56.57.763,lexical_decision_task_DD_L5,2021.2.3,MacIntel,59.97361161,,,,,,,,,,,1.0908,1,,,,,,,,,,,,,,z,1,1.0908,,,,,,,,0.319360352,-0.143208008,0,0,0,,0,137,137,151,1,TINKY,HB,old,z,./images/TINKYHB.png,,,,,,,,,,,,,,,,,,,,,,,,,,,,,,,,,,,
,,,,,,,,,,,,,,,,,6104b1c50f6057c1d8a6e3a6,26,2022-02-12_17h56.57.763,lexical_decision_task_DD_L5,2021.2.3,MacIntel,59.97361161,,,,,,,,,,,0.5798,1,,,,,,,,,,,,,,m,1,0.5798,,,,,,,,0.319360352,-0.143208008,0,0,0,,0,138,138,13,1,BUNNY,LB,old,m,./images/BUNNYLB.png,,,,,,,,,,,,,,,,,,,,,,,,,,,,,,,,,,,
,,,,,,,,,,,,,,,,,6104b1c50f6057c1d8a6e3a6,26,2022-02-12_17h56.57.763,lexical_decision_task_DD_L5,2021.2.3,MacIntel,59.97361161,,,,,,,,,,,0.6774,1,,,,,,,,,,,,,,z,1,0.6774,,,,,,,,0.319360352,-0.143208008,0,0,0,,0,139,139,121,1,CEERS,HB,old,z,./images/CEERSHB.png,,,,,,,,,,,,,,,,,,,,,,,,,,,,,,,,,,,
,,,,,,,,,,,,,,,,,6104b1c50f6057c1d8a6e3a6,26,2022-02-12_17h56.57.763,lexical_decision_task_DD_L5,2021.2.3,MacIntel,59.97361161,,,,,,,,,,,1.1094,1,,,,,,,,,,,,,,z,1,1.1094,,,,,,,,0.319360352,-0.143208008,0,0,0,,0,140,140,106,1,CLUMS,HB,old,z,./images/CLUMSHB.png,,,,,,,,,,,,,,,,,,,,,,,,,,,,,,,,,,,
,,,,,,,,,,,,,,,,,6104b1c50f6057c1d8a6e3a6,26,2022-02-12_17h56.57.763,lexical_decision_task_DD_L5,2021.2.3,MacIntel,59.97361161,,,,,,,,,,,0.5717,1,,,,,,,,,,,,,,m,1,0.5717,,,,,,,,0.319360352,-0.143208008,0,0,0,,0,141,141,5,1,BAMBOO,C,old,m,./images/BAMBOO.png,,,,,,,,,,,,,,,,,,,,,,,,,,,,,,,,,,,
,,,,,,,,,,,,,,,,,6104b1c50f6057c1d8a6e3a6,26,2022-02-12_17h56.57.763,lexical_decision_task_DD_L5,2021.2.3,MacIntel,59.97361161,,,,,,,,,,,0.6462,1,,,,,,,,,,,,,,z,1,0.6462,,,,,,,,0.319360352,-0.143208008,0,0,0,,0,142,142,109,1,BURGE,HB,old,z,./images/BURGEHB.png,,,,,,,,,,,,,,,,,,,,,,,,,,,,,,,,,,,
,,,,,,,,,,,,,,,,,6104b1c50f6057c1d8a6e3a6,26,2022-02-12_17h56.57.763,lexical_decision_task_DD_L5,2021.2.3,MacIntel,59.97361161,,,,,,,,,,,0.7789,1,,,,,,,,,,,,,,m,1,0.7789,,,,,,,,0.319360352,-0.143208008,0,0,0,,0,143,143,78,1,BROOM,HB,old,m,./images/BROOMHB.png,,,,,,,,,,,,,,,,,,,,,,,,,,,,,,,,,,,
,,,,,,,,,,,,,,,,,6104b1c50f6057c1d8a6e3a6,26,2022-02-12_17h56.57.763,lexical_decision_task_DD_L5,2021.2.3,MacIntel,59.97361161,,,,,,,,,,,2.0265,1,,,,,,,,,,,,,,z,1,2.0265,,,,,,,,0.319360352,-0.143208008,0,0,0,,0,144,144,146,1,MOOST,LB,old,z,./images/MOOSTLB.png,,,,,,,,,,,,,,,,,,,,,,,,,,,,,,,,,,,
,,,,,,,,,,,,,,,,,6104b1c50f6057c1d8a6e3a6,26,2022-02-12_17h56.57.763,lexical_decision_task_DD_L5,2021.2.3,MacIntel,59.97361161,,,,,,,,,,,0.7652,1,,,,,,,,,,,,,,z,1,0.7652,,,,,,,,0.319360352,-0.143208008,0,0,0,,0,145,145,162,1,LEICH,C,old,z,./images/LEICH.png,,,,,,,,,,,,,,,,,,,,,,,,,,,,,,,,,,,
,,,,,,,,,,,,,,,,,6104b1c50f6057c1d8a6e3a6,26,2022-02-12_17h56.57.763,lexical_decision_task_DD_L5,2021.2.3,MacIntel,59.97361161,,,,,,,,,,,0.7923,1,,,,,,,,,,,,,,m,1,0.7923,,,,,,,,0.319360352,-0.143208008,0,0,0,,0,146,146,42,1,CHAIN,HB,old,m,./images/CHAINHB.png,,,,,,,,,,,,,,,,,,,,,,,,,,,,,,,,,,,
,,,,,,,,,,,,,,,,,6104b1c50f6057c1d8a6e3a6,26,2022-02-12_17h56.57.763,lexical_decision_task_DD_L5,2021.2.3,MacIntel,59.97361161,,,,,,,,,,,0.5582,1,,,,,,,,,,,,,,m,1,0.5582,,,,,,,,0.319360352,-0.143208008,0,0,0,,0,147,147,35,1,LLAMA,C,old,m,./images/LLAMA.png,,,,,,,,,,,,,,,,,,,,,,,,,,,,,,,,,,,
,,,,,,,,,,,,,,,,,6104b1c50f6057c1d8a6e3a6,26,2022-02-12_17h56.57.763,lexical_decision_task_DD_L5,2021.2.3,MacIntel,59.97361161,,,,,,,,,,,0.7542,1,,,,,,,,,,,,,,z,1,0.7542,,,,,,,,0.319360352,-0.143208008,0,0,0,,0,148,148,152,1,FRAIN,LB,old,z,./images/FRAINLB.png,,,,,,,,,,,,,,,,,,,,,,,,,,,,,,,,,,,
,,,,,,,,,,,,,,,,,6104b1c50f6057c1d8a6e3a6,26,2022-02-12_17h56.57.763,lexical_decision_task_DD_L5,2021.2.3,MacIntel,59.97361161,,,,,,,,,,,0.8933,1,,,,,,,,,,,,,,m,1,0.8933,,,,,,,,0.319360352,-0.143208008,0,0,0,,0,149,149,68,1,VALLEY,C,old,m,./images/VALLEY.png,,,,,,,,,,,,,,,,,,,,,,,,,,,,,,,,,,,
,,,,,,,,,,,,,,,,,6104b1c50f6057c1d8a6e3a6,26,2022-02-12_17h56.57.763,lexical_decision_task_DD_L5,2021.2.3,MacIntel,59.97361161,,,,,,,,,,,1.5878,1,,,,,,,,,,,,,,m,1,1.5878,,,,,,,,0.319360352,-0.143208008,0,0,0,,0,150,150,21,1,DANCER,HB,old,m,./images/DANCERHB.png,,,,,,,,,,,,,,,,,,,,,,,,,,,,,,,,,,,
,,,,,,,,,,,,,,,,,6104b1c50f6057c1d8a6e3a6,26,2022-02-12_17h56.57.763,lexical_decision_task_DD_L5,2021.2.3,MacIntel,59.97361161,,,,,,,,,,,0.5422,1,,,,,,,,,,,,,,m,1,0.5422,,,,,,,,0.319360352,-0.143208008,0,0,0,,0,151,151,10,1,GARDEN,LB,old,m,./images/GARDENLB.png,,,,,,,,,,,,,,,,,,,,,,,,,,,,,,,,,,,
,,,,,,,,,,,,,,,,,6104b1c50f6057c1d8a6e3a6,26,2022-02-12_17h56.57.763,lexical_decision_task_DD_L5,2021.2.3,MacIntel,59.97361161,,,,,,,,,,,0.9061,1,,,,,,,,,,,,,,m,1,0.9061,,,,,,,,0.319360352,-0.143208008,0,0,0,,0,152,152,60,1,CURRY,HB,old,m,./images/CURRYHB.png,,,,,,,,,,,,,,,,,,,,,,,,,,,,,,,,,,,
,,,,,,,,,,,,,,,,,6104b1c50f6057c1d8a6e3a6,26,2022-02-12_17h56.57.763,lexical_decision_task_DD_L5,2021.2.3,MacIntel,59.97361161,,,,,,,,,,,0.5403,1,,,,,,,,,,,,,,m,1,0.5403,,,,,,,,0.319360352,-0.143208008,0,0,0,,0,153,153,32,1,HOCKEY,C,old,m,./images/HOCKEY.png,,,,,,,,,,,,,,,,,,,,,,,,,,,,,,,,,,,
,,,,,,,,,,,,,,,,,6104b1c50f6057c1d8a6e3a6,26,2022-02-12_17h56.57.763,lexical_decision_task_DD_L5,2021.2.3,MacIntel,59.97361161,,,,,,,,,,,0.5975,1,,,,,,,,,,,,,,z,1,0.5975,,,,,,,,0.319360352,-0.143208008,0,0,0,,0,154,154,143,1,MONGS,LB,old,z,./images/MONGSLB.png,,,,,,,,,,,,,,,,,,,,,,,,,,,,,,,,,,,
,,,,,,,,,,,,,,,,,6104b1c50f6057c1d8a6e3a6,26,2022-02-12_17h56.57.763,lexical_decision_task_DD_L5,2021.2.3,MacIntel,59.97361161,,,,,,,,,,,0.8308,1,,,,,,,,,,,,,,z,1,0.8308,,,,,,,,0.319360352,-0.143208008,0,0,0,,0,155,155,134,1,TROSS,LB,old,z,./images/TROSSLB.png,,,,,,,,,,,,,,,,,,,,,,,,,,,,,,,,,,,
,,,,,,,,,,,,,,,,,6104b1c50f6057c1d8a6e3a6,26,2022-02-12_17h56.57.763,lexical_decision_task_DD_L5,2021.2.3,MacIntel,59.97361161,,,,,,,,,,,0.6293,1,,,,,,,,,,,,,,m,1,0.6293,,,,,,,,0.319360352,-0.143208008,0,0,0,,0,156,156,46,1,MUMMY,LB,old,m,./images/MUMMYLB.png,,,,,,,,,,,,,,,,,,,,,,,,,,,,,,,,,,,
,,,,,,,,,,,,,,,,,6104b1c50f6057c1d8a6e3a6,26,2022-02-12_17h56.57.763,lexical_decision_task_DD_L5,2021.2.3,MacIntel,59.97361161,,,,,,,,,,,0.5449,1,,,,,,,,,,,,,,z,1,0.5449,,,,,,,,0.319360352,-0.143208008,0,0,0,,0,157,157,96,1,KEAMS,C,old,z,./images/KEAMS.png,,,,,,,,,,,,,,,,,,,,,,,,,,,,,,,,,,,
,,,,,,,,,,,,,,,,,6104b1c50f6057c1d8a6e3a6,26,2022-02-12_17h56.57.763,lexical_decision_task_DD_L5,2021.2.3,MacIntel,59.97361161,,,,,,,,,,,0.5739,1,,,,,,,,,,,,,,m,1,0.5739,,,,,,,,0.319360352,-0.143208008,0,0,0,,0,158,158,17,1,PARADE,C,old,m,./images/PARADE.png,,,,,,,,,,,,,,,,,,,,,,,,,,,,,,,,,,,
,,,,,,,,,,,,,,,,,6104b1c50f6057c1d8a6e3a6,26,2022-02-12_17h56.57.763,lexical_decision_task_DD_L5,2021.2.3,MacIntel,59.97361161,,,,,,,,,,,1.1421,1,,,,,,,,,,,,,,m,1,1.1421,,,,,,,,0.319360352,-0.143208008,0,0,0,,0,159,159,54,1,CHERRY,HB,old,m,./images/CHERRYHB.png,,,,,,,,,,,,,,,,,,,,,,,,,,,,,,,,,,,
,,,,,,,,,,,,,,,,,6104b1c50f6057c1d8a6e3a6,26,2022-02-12_17h56.57.763,lexical_decision_task_DD_L5,2021.2.3,MacIntel,59.97361161,,,,,,,,,,,0.8148,1,,,,,,,,,,,,,,z,1,0.8148,,,,,,,,0.319360352,-0.143208008,0,0,0,,0,160,160,154,1,THINT,HB,old,z,./images/THINTHB.png,,,,,,,,,,,,,,,,,,,,,,,,,,,,,,,,,,,
,,,,,,,,,,,,,,,,,6104b1c50f6057c1d8a6e3a6,26,2022-02-12_17h56.57.763,lexical_decision_task_DD_L5,2021.2.3,MacIntel,59.97361161,,,,,,,,,,,0.5717,1,,,,,,,,,,,,,,m,1,0.5717,,,,,,,,0.319360352,-0.143208008,0,0,0,,0,161,161,70,1,BANANA,LB,old,m,./images/BANANALB.png,,,,,,,,,,,,,,,,,,,,,,,,,,,,,,,,,,,
,,,,,,,,,,,,,,,,,6104b1c50f6057c1d8a6e3a6,26,2022-02-12_17h56.57.763,lexical_decision_task_DD_L5,2021.2.3,MacIntel,59.97361161,,,,,,,,,,,0.5415,1,,,,,,,,,,,,,,m,1,0.5415,,,,,,,,0.319360352,-0.143208008,0,0,0,,0,162,162,55,1,ALLEY,LB,old,m,./images/ALLEYLB.png,,,,,,,,,,,,,,,,,,,,,,,,,,,,,,,,,,,
,,,,,,,,,,,,,,,,,6104b1c50f6057c1d8a6e3a6,26,2022-02-12_17h56.57.763,lexical_decision_task_DD_L5,2021.2.3,MacIntel,59.97361161,,,,,,,,,,,0.5824,1,,,,,,,,,,,,,,m,1,0.5824,,,,,,,,0.319360352,-0.143208008,0,0,0,,0,163,163,0,1,WALNUT,HB,old,m,./images/WALNUTHB.png,,,,,,,,,,,,,,,,,,,,,,,,,,,,,,,,,,,
,,,,,,,,,,,,,,,,,6104b1c50f6057c1d8a6e3a6,26,2022-02-12_17h56.57.763,lexical_decision_task_DD_L5,2021.2.3,MacIntel,59.97361161,,,,,,,,,,,1.404,1,,,,,,,,,,,,,,z,1,1.404,,,,,,,,0.319360352,-0.143208008,0,0,0,,0,164,164,118,1,BAVEL,HB,old,z,./images/BAVELHB.png,,,,,,,,,,,,,,,,,,,,,,,,,,,,,,,,,,,
,,,,,,,,,,,,,,,,,6104b1c50f6057c1d8a6e3a6,26,2022-02-12_17h56.57.763,lexical_decision_task_DD_L5,2021.2.3,MacIntel,59.97361161,,,,,,,,,,,1.0052,1,,,,,,,,,,,,,,z,1,1.0052,,,,,,,,0.319360352,-0.143208008,0,0,0,,0,165,165,114,1,RIKES,C,old,z,./images/RIKES.png,,,,,,,,,,,,,,,,,,,,,,,,,,,,,,,,,,,
,,,,,,,,,,,,,,,,,6104b1c50f6057c1d8a6e3a6,26,2022-02-12_17h56.57.763,lexical_decision_task_DD_L5,2021.2.3,MacIntel,59.97361161,,,,,,,,,,,0.7953,1,,,,,,,,,,,,,,z,1,0.7953,,,,,,,,0.319360352,-0.143208008,0,0,0,,0,166,166,158,1,EGECT,LB,old,z,./images/EGECTLB.png,,,,,,,,,,,,,,,,,,,,,,,,,,,,,,,,,,,
,,,,,,,,,,,,,,,,,6104b1c50f6057c1d8a6e3a6,26,2022-02-12_17h56.57.763,lexical_decision_task_DD_L5,2021.2.3,MacIntel,59.97361161,,,,,,,,,,,0.5889,1,,,,,,,,,,,,,,m,1,0.5889,,,,,,,,0.319360352,-0.143208008,0,0,0,,0,167,167,27,1,BUTTER,HB,old,m,./images/BUTTERHB.png,,,,,,,,,,,,,,,,,,,,,,,,,,,,,,,,,,,
,,,,,,,,,,,,,,,,,6104b1c50f6057c1d8a6e3a6,26,2022-02-12_17h56.57.763,lexical_decision_task_DD_L5,2021.2.3,MacIntel,59.97361161,,,,,,,,,,,,,,,,,,,,,,,,,,,,,,,,,,,,,,,,,,,,,,,,How likely will it be that you will recognize the words presented clearly on a scale of 0 (not likely) to 100 (most likely)?,,,,,-0.003134766,-0.396074219,1,0,0,jol_adv,6,5.1077,0,0,0,0,1,,,,,,,,,,,,,,,,,,,,,
,,,,,,,,,,,,,,,,,6104b1c50f6057c1d8a6e3a6,26,2022-02-12_17h56.57.763,lexical_decision_task_DD_L5,2021.2.3,MacIntel,59.97361161,,,,,,,,,,,,,,,,,,,,,,,,,,,,,,,,,,,,,,,,,,,,,,,,How likely will it be that you will recognize the words presented very blurred on a scale of 0 (not likely) to 100 (most likely)?,,,,,,,,,,,3,5.6317,0,1,1,2,1,,,,,,,,,,,,,,,,,,,,,
,,,,,,,,,,,,,,,,,6104b1c50f6057c1d8a6e3a6,26,2022-02-12_17h56.57.763,lexical_decision_task_DD_L5,2021.2.3,MacIntel,59.97361161,,,,,,,,,,,,,,,,,,,,,,,,,,,,,,,,,,,,,,,,,,,,,,,,How likely will it be that you will recognize the words presented slighly blurred on a scale of 0 (not likely) to 100 (most likely)?,,,,,,,,,,,5,4.4334,0,2,2,1,1,,,,,,,,,,,,,,,,,,,,,
space,13.1637,0.296435547,-0.202548828,0,0,0,,,,,,1,test,"In the next phase you will be presented with the words from the the first phase. Your job is to decide whether you remember seeing the word or not. If you remember seeing the word press ""old"" or type ""m"". If you do not remember seeing the word press ""new"" or type ""z"". Please press the space bar or click on continue to begin. ",,,6104b1c50f6057c1d8a6e3a6,26,2022-02-12_17h56.57.763,lexical_decision_task_DD_L5,2021.2.3,MacIntel,59.97361161,,,,,,,,,,,,,,,,,,,,,,,,,,,,,,,,,,,,,,,,,,,,,,,,,,,,,,,,,,,,,,,,,,0,0,0,0,1,,,,,,,,,,,,,,,,
,,0.078500977,-0.411630859,1,0,0,,,,,,1,test,"In the next phase you will be presented with the words from the the first phase. Your job is to decide whether you remember seeing the word or not. If you remember seeing the word press ""old"" or type ""m"". If you do not remember seeing the word press ""new"" or type ""z"". Please press the space bar or click on continue to begin. ",,,6104b1c50f6057c1d8a6e3a6,26,2022-02-12_17h56.57.763,lexical_decision_task_DD_L5,2021.2.3,MacIntel,59.97361161,,,,,,,,,,,,,,,,,,,,,,,,,,,,,,,,,,,,,,,,,,,,,,,,,,,,,,,,,,,,,,,,,,1,0,1,0,1,instr_done_button,,,,,,,,,,,,,,,
space,3.4267,0.760688477,-0.039306641,0,0,0,,,,,,1,test,"In the next phase you will be presented with the words from the the first phase. Your job is to decide whether you remember seeing the word or not. If you remember seeing the word press ""old"" or type ""m"". If you do not remember seeing the word press ""new"" or type ""z"". Please press the space bar or click on continue to begin. ",,,6104b1c50f6057c1d8a6e3a6,26,2022-02-12_17h56.57.763,lexical_decision_task_DD_L5,2021.2.3,MacIntel,59.97361161,,,,,,,,,,,,,,,,,,,,,,,,,,,,,,,,,,,,,,,,,,,,,,,,,,,,,,,,,,,,,,,,,,2,0,2,0,1,,,,,,,,,,,,,,,,
space,1.2709,0.016870117,-0.202788086,0,0,0,,,,,,1,test,"In the next phase you will be presented with the words from the the first phase. Your job is to decide whether you remember seeing the word or not. If you remember seeing the word press ""old"" or type ""m"". If you do not remember seeing the word press ""new"" or type ""z"". Please press the space bar or click on continue to begin. ",,,6104b1c50f6057c1d8a6e3a6,26,2022-02-12_17h56.57.763,lexical_decision_task_DD_L5,2021.2.3,MacIntel,59.97361161,,,,,,,,,,,,,,,,,,,,,,,,,,,,,,,,,,,,,,,,,,,,,,,,,,,,,,,,,,,,,,,,,,3,0,3,0,1,,,,,,,,,,,,,,,,
space,5.8374,0.258994141,-0.318154297,0,0,0,,,,,,1,test,"In the next phase you will be presented with the words from the the first phase. Your job is to decide whether you remember seeing the word or not. If you remember seeing the word press ""old"" or type ""m"". If you do not remember seeing the word press ""new"" or type ""z"". Please press the space bar or click on continue to begin. ",,,6104b1c50f6057c1d8a6e3a6,26,2022-02-12_17h56.57.763,lexical_decision_task_DD_L5,2021.2.3,MacIntel,59.97361161,,,,,,,,,,,,,,,,,,,,,,,,,,,,,,,,,,,,,,,,,,,,,,,,,,,,,,,,,,,,,,,,,,4,0,4,0,1,,,,,,,,,,,,,,,,
,,,,,,,,,,,,,,,,,6104b1c50f6057c1d8a6e3a6,26,2022-02-12_17h56.57.763,lexical_decision_task_DD_L5,2021.2.3,MacIntel,59.97361161,,,,,,,,,,,3.9568,0,,,,,,,,,,,,,,,,,,,,,,,,0.258994141,-0.318154297,0,0,0,,,,,,,PLANET,C,m,y,./images/PLANET.png,,,,,,,,,,,,,,,,,,,,,z,0,3.9568,,,,,,,,0,0,0,80,1
,,,,,,,,,,,,,,,,,6104b1c50f6057c1d8a6e3a6,26,2022-02-12_17h56.57.763,lexical_decision_task_DD_L5,2021.2.3,MacIntel,59.97361161,,,,,,,,,,,2.829,1,,,,,,,,,,,,,,,,,,,,,,,,0.258994141,-0.318154297,0,0,0,,,,,,,DONKEY,LB,m,y,./images/DONKEYLB.png,,,,,,,,,,,,,,,,,,,,,m,1,2.829,,,,,,,,0,1,1,19,1
,,,,,,,,,,,,,,,,,6104b1c50f6057c1d8a6e3a6,26,2022-02-12_17h56.57.763,lexical_decision_task_DD_L5,2021.2.3,MacIntel,59.97361161,,,,,,,,,,,2.2968,1,,,,,,,,,,,,,,,,,,,,,,,,0.258994141,-0.318154297,0,0,0,,,,,,,BRIDE,LB,m,y,./images/BRIDELB.png,,,,,,,,,,,,,,,,,,,,,m,1,2.2968,,,,,,,,0,2,2,64,1
,,,,,,,,,,,,,,,,,6104b1c50f6057c1d8a6e3a6,26,2022-02-12_17h56.57.763,lexical_decision_task_DD_L5,2021.2.3,MacIntel,59.97361161,,,,,,,,,,,2.4702,1,,,,,,,,,,,,,,,,,,,,,,,,0.258994141,-0.318154297,0,0,0,,,,,,,SHELF,HB,z,y,./images/SHELFHB.png,,,,,,,,,,,,,,,,,,,,,z,1,2.4702,,,,,,,,0,3,3,123,1
,,,,,,,,,,,,,,,,,6104b1c50f6057c1d8a6e3a6,26,2022-02-12_17h56.57.763,lexical_decision_task_DD_L5,2021.2.3,MacIntel,59.97361161,,,,,,,,,,,0.9148,1,,,,,,,,,,,,,,,,,,,,,,,,0.258994141,-0.318154297,0,0,0,,,,,,,RHINO,HB,z,y,./images/RHINOHB.png,,,,,,,,,,,,,,,,,,,,,z,1,0.9148,,,,,,,,0,4,4,93,1
,,,,,,,,,,,,,,,,,6104b1c50f6057c1d8a6e3a6,26,2022-02-12_17h56.57.763,lexical_decision_task_DD_L5,2021.2.3,MacIntel,59.97361161,,,,,,,,,,,0.7352,1,,,,,,,,,,,,,,,,,,,,,,,,0.258994141,-0.318154297,0,0,0,,,,,,,COUCH,C,z,y,./images/COUCH.png,,,,,,,,,,,,,,,,,,,,,z,1,0.7352,,,,,,,,0,5,5,161,1
,,,,,,,,,,,,,,,,,6104b1c50f6057c1d8a6e3a6,26,2022-02-12_17h56.57.763,lexical_decision_task_DD_L5,2021.2.3,MacIntel,59.97361161,,,,,,,,,,,0.8332,1,,,,,,,,,,,,,,,,,,,,,,,,0.258994141,-0.318154297,0,0,0,,,,,,,BAKER,HB,m,y,./images/BAKERHB.png,,,,,,,,,,,,,,,,,,,,,m,1,0.8332,,,,,,,,0,6,6,63,1
,,,,,,,,,,,,,,,,,6104b1c50f6057c1d8a6e3a6,26,2022-02-12_17h56.57.763,lexical_decision_task_DD_L5,2021.2.3,MacIntel,59.97361161,,,,,,,,,,,0.7505,1,,,,,,,,,,,,,,,,,,,,,,,,0.258994141,-0.318154297,0,0,0,,,,,,,MOSQUE,LB,z,y,./images/MOSQUELB.png,,,,,,,,,,,,,,,,,,,,,z,1,0.7505,,,,,,,,0,7,7,127,1
,,,,,,,,,,,,,,,,,6104b1c50f6057c1d8a6e3a6,26,2022-02-12_17h56.57.763,lexical_decision_task_DD_L5,2021.2.3,MacIntel,59.97361161,,,,,,,,,,,0.6232,1,,,,,,,,,,,,,,,,,,,,,,,,0.258994141,-0.318154297,0,0,0,,,,,,,TRIPOD,HB,z,y,./images/TRIPODHB.png,,,,,,,,,,,,,,,,,,,,,z,1,0.6232,,,,,,,,0,8,8,138,1
,,,,,,,,,,,,,,,,,6104b1c50f6057c1d8a6e3a6,26,2022-02-12_17h56.57.763,lexical_decision_task_DD_L5,2021.2.3,MacIntel,59.97361161,,,,,,,,,,,0.6073,1,,,,,,,,,,,,,,,,,,,,,,,,0.258994141,-0.318154297,0,0,0,,,,,,,BANANA,LB,m,y,./images/BANANALB.png,,,,,,,,,,,,,,,,,,,,,m,1,0.6073,,,,,,,,0,9,9,70,1
,,,,,,,,,,,,,,,,,6104b1c50f6057c1d8a6e3a6,26,2022-02-12_17h56.57.763,lexical_decision_task_DD_L5,2021.2.3,MacIntel,59.97361161,,,,,,,,,,,1.3314,1,,,,,,,,,,,,,,,,,,,,,,,,0.258994141,-0.318154297,0,0,0,,,,,,,BUBBLE,C,m,y,./images/BUBBLE.png,,,,,,,,,,,,,,,,,,,,,m,1,1.3314,,,,,,,,0,10,10,71,1
,,,,,,,,,,,,,,,,,6104b1c50f6057c1d8a6e3a6,26,2022-02-12_17h56.57.763,lexical_decision_task_DD_L5,2021.2.3,MacIntel,59.97361161,,,,,,,,,,,1.1627,1,,,,,,,,,,,,,,,,,,,,,,,,0.258994141,-0.318154297,0,0,0,,,,,,,KIDNEY,HB,z,y,./images/KIDNEYHB.png,,,,,,,,,,,,,,,,,,,,,z,1,1.1627,,,,,,,,0,11,11,105,1
,,,,,,,,,,,,,,,,,6104b1c50f6057c1d8a6e3a6,26,2022-02-12_17h56.57.763,lexical_decision_task_DD_L5,2021.2.3,MacIntel,59.97361161,,,,,,,,,,,0.6855,1,,,,,,,,,,,,,,,,,,,,,,,,0.258994141,-0.318154297,0,0,0,,,,,,,MOOSE,HB,z,y,./images/MOOSEHB.png,,,,,,,,,,,,,,,,,,,,,z,1,0.6855,,,,,,,,0,12,12,141,1
,,,,,,,,,,,,,,,,,6104b1c50f6057c1d8a6e3a6,26,2022-02-12_17h56.57.763,lexical_decision_task_DD_L5,2021.2.3,MacIntel,59.97361161,,,,,,,,,,,0.8315,1,,,,,,,,,,,,,,,,,,,,,,,,0.258994141,-0.318154297,0,0,0,,,,,,,SAUCE,HB,m,y,./images/SAUCEHB.png,,,,,,,,,,,,,,,,,,,,,m,1,0.8315,,,,,,,,0,13,13,51,1
,,,,,,,,,,,,,,,,,6104b1c50f6057c1d8a6e3a6,26,2022-02-12_17h56.57.763,lexical_decision_task_DD_L5,2021.2.3,MacIntel,59.97361161,,,,,,,,,,,0.7333,1,,,,,,,,,,,,,,,,,,,,,,,,0.258994141,-0.318154297,0,0,0,,,,,,,FLASK,HB,m,y,./images/FLASKHB.png,,,,,,,,,,,,,,,,,,,,,m,1,0.7333,,,,,,,,0,14,14,72,1
,,,,,,,,,,,,,,,,,6104b1c50f6057c1d8a6e3a6,26,2022-02-12_17h56.57.763,lexical_decision_task_DD_L5,2021.2.3,MacIntel,59.97361161,,,,,,,,,,,0.6311,1,,,,,,,,,,,,,,,,,,,,,,,,0.258994141,-0.318154297,0,0,0,,,,,,,HAMMER,HB,m,y,./images/HAMMERHB.png,,,,,,,,,,,,,,,,,,,,,m,1,0.6311,,,,,,,,0,15,15,75,1
,,,,,,,,,,,,,,,,,6104b1c50f6057c1d8a6e3a6,26,2022-02-12_17h56.57.763,lexical_decision_task_DD_L5,2021.2.3,MacIntel,59.97361161,,,,,,,,,,,3.0821,1,,,,,,,,,,,,,,,,,,,,,,,,0.258994141,-0.318154297,0,0,0,,,,,,,STEAK,LB,m,y,./images/STEAKLB.png,,,,,,,,,,,,,,,,,,,,,m,1,3.0821,,,,,,,,0,16,16,31,1
,,,,,,,,,,,,,,,,,6104b1c50f6057c1d8a6e3a6,26,2022-02-12_17h56.57.763,lexical_decision_task_DD_L5,2021.2.3,MacIntel,59.97361161,,,,,,,,,,,0.7503,1,,,,,,,,,,,,,,,,,,,,,,,,0.258994141,-0.318154297,0,0,0,,,,,,,CURRY,HB,m,y,./images/CURRYHB.png,,,,,,,,,,,,,,,,,,,,,m,1,0.7503,,,,,,,,0,17,17,60,1
,,,,,,,,,,,,,,,,,6104b1c50f6057c1d8a6e3a6,26,2022-02-12_17h56.57.763,lexical_decision_task_DD_L5,2021.2.3,MacIntel,59.97361161,,,,,,,,,,,0.905,1,,,,,,,,,,,,,,,,,,,,,,,,0.258994141,-0.318154297,0,0,0,,,,,,,HEATER,C,m,y,./images/HEATER.png,,,,,,,,,,,,,,,,,,,,,m,1,0.905,,,,,,,,0,18,18,56,1
,,,,,,,,,,,,,,,,,6104b1c50f6057c1d8a6e3a6,26,2022-02-12_17h56.57.763,lexical_decision_task_DD_L5,2021.2.3,MacIntel,59.97361161,,,,,,,,,,,1.2991,0,,,,,,,,,,,,,,,,,,,,,,,,0.258994141,-0.318154297,0,0,0,,,,,,,MAMMAL,C,m,y,./images/MAMMAL.png,,,,,,,,,,,,,,,,,,,,,z,0,1.2991,,,,,,,,0,19,19,62,1
,,,,,,,,,,,,,,,,,6104b1c50f6057c1d8a6e3a6,26,2022-02-12_17h56.57.763,lexical_decision_task_DD_L5,2021.2.3,MacIntel,59.97361161,,,,,,,,,,,1.5823,1,,,,,,,,,,,,,,,,,,,,,,,,0.258994141,-0.318154297,0,0,0,,,,,,,URINE,LB,z,y,./images/URINELB.png,,,,,,,,,,,,,,,,,,,,,z,1,1.5823,,,,,,,,0,20,20,154,1
,,,,,,,,,,,,,,,,,6104b1c50f6057c1d8a6e3a6,26,2022-02-12_17h56.57.763,lexical_decision_task_DD_L5,2021.2.3,MacIntel,59.97361161,,,,,,,,,,,0.9981,1,,,,,,,,,,,,,,,,,,,,,,,,0.258994141,-0.318154297,0,0,0,,,,,,,MALLET,C,z,y,./images/MALLET.png,,,,,,,,,,,,,,,,,,,,,z,1,0.9981,,,,,,,,0,21,21,134,1
,,,,,,,,,,,,,,,,,6104b1c50f6057c1d8a6e3a6,26,2022-02-12_17h56.57.763,lexical_decision_task_DD_L5,2021.2.3,MacIntel,59.97361161,,,,,,,,,,,0.8329,1,,,,,,,,,,,,,,,,,,,,,,,,0.258994141,-0.318154297,0,0,0,,,,,,,BEARD,C,z,y,./images/BEARD.png,,,,,,,,,,,,,,,,,,,,,z,1,0.8329,,,,,,,,0,22,22,86,1
,,,,,,,,,,,,,,,,,6104b1c50f6057c1d8a6e3a6,26,2022-02-12_17h56.57.763,lexical_decision_task_DD_L5,2021.2.3,MacIntel,59.97361161,,,,,,,,,,,0.735,1,,,,,,,,,,,,,,,,,,,,,,,,0.258994141,-0.318154297,0,0,0,,,,,,,JELLY,LB,z,y,./images/JELLYLB.png,,,,,,,,,,,,,,,,,,,,,z,1,0.735,,,,,,,,0,23,23,148,1
,,,,,,,,,,,,,,,,,6104b1c50f6057c1d8a6e3a6,26,2022-02-12_17h56.57.763,lexical_decision_task_DD_L5,2021.2.3,MacIntel,59.97361161,,,,,,,,,,,1.1819,1,,,,,,,,,,,,,,,,,,,,,,,,0.258994141,-0.318154297,0,0,0,,,,,,,MUSCLE,LB,z,y,./images/MUSCLELB.png,,,,,,,,,,,,,,,,,,,,,z,1,1.1819,,,,,,,,0,24,24,88,1
,,,,,,,,,,,,,,,,,6104b1c50f6057c1d8a6e3a6,26,2022-02-12_17h56.57.763,lexical_decision_task_DD_L5,2021.2.3,MacIntel,59.97361161,,,,,,,,,,,0.7657,1,,,,,,,,,,,,,,,,,,,,,,,,0.258994141,-0.318154297,0,0,0,,,,,,,SNAKE,LB,m,y,./images/SNAKELB.png,,,,,,,,,,,,,,,,,,,,,m,1,0.7657,,,,,,,,0,25,25,40,1
,,,,,,,,,,,,,,,,,6104b1c50f6057c1d8a6e3a6,26,2022-02-12_17h56.57.763,lexical_decision_task_DD_L5,2021.2.3,MacIntel,59.97361161,,,,,,,,,,,0.9483,1,,,,,,,,,,,,,,,,,,,,,,,,0.258994141,-0.318154297,0,0,0,,,,,,,JUNGLE,C,z,y,./images/JUNGLE.png,,,,,,,,,,,,,,,,,,,,,z,1,0.9483,,,,,,,,0,26,26,167,1
,,,,,,,,,,,,,,,,,6104b1c50f6057c1d8a6e3a6,26,2022-02-12_17h56.57.763,lexical_decision_task_DD_L5,2021.2.3,MacIntel,59.97361161,,,,,,,,,,,1.6154,1,,,,,,,,,,,,,,,,,,,,,,,,0.258994141,-0.318154297,0,0,0,,,,,,,MUFFIN,LB,z,y,./images/MUFFINLB.png,,,,,,,,,,,,,,,,,,,,,z,1,1.6154,,,,,,,,0,27,27,139,1
,,,,,,,,,,,,,,,,,6104b1c50f6057c1d8a6e3a6,26,2022-02-12_17h56.57.763,lexical_decision_task_DD_L5,2021.2.3,MacIntel,59.97361161,,,,,,,,,,,0.8196,1,,,,,,,,,,,,,,,,,,,,,,,,0.258994141,-0.318154297,0,0,0,,,,,,,GRAIN,HB,z,y,./images/GRAINHB.png,,,,,,,,,,,,,,,,,,,,,z,1,0.8196,,,,,,,,0,28,28,159,1
,,,,,,,,,,,,,,,,,6104b1c50f6057c1d8a6e3a6,26,2022-02-12_17h56.57.763,lexical_decision_task_DD_L5,2021.2.3,MacIntel,59.97361161,,,,,,,,,,,0.6983,1,,,,,,,,,,,,,,,,,,,,,,,,0.258994141,-0.318154297,0,0,0,,,,,,,WALNUT,HB,m,y,./images/WALNUTHB.png,,,,,,,,,,,,,,,,,,,,,m,1,0.6983,,,,,,,,0,29,29,0,1
,,,,,,,,,,,,,,,,,6104b1c50f6057c1d8a6e3a6,26,2022-02-12_17h56.57.763,lexical_decision_task_DD_L5,2021.2.3,MacIntel,59.97361161,,,,,,,,,,,0.6978,1,,,,,,,,,,,,,,,,,,,,,,,,0.258994141,-0.318154297,0,0,0,,,,,,,FENCE,C,m,y,./images/FENCE.png,,,,,,,,,,,,,,,,,,,,,m,1,0.6978,,,,,,,,0,30,30,14,1
,,,,,,,,,,,,,,,,,6104b1c50f6057c1d8a6e3a6,26,2022-02-12_17h56.57.763,lexical_decision_task_DD_L5,2021.2.3,MacIntel,59.97361161,,,,,,,,,,,1.1139,1,,,,,,,,,,,,,,,,,,,,,,,,0.258994141,-0.318154297,0,0,0,,,,,,,POKER,LB,m,y,./images/POKERLB.png,,,,,,,,,,,,,,,,,,,,,m,1,1.1139,,,,,,,,0,31,31,67,1
,,,,,,,,,,,,,,,,,6104b1c50f6057c1d8a6e3a6,26,2022-02-12_17h56.57.763,lexical_decision_task_DD_L5,2021.2.3,MacIntel,59.97361161,,,,,,,,,,,1.0156,1,,,,,,,,,,,,,,,,,,,,,,,,0.258994141,-0.318154297,0,0,0,,,,,,,BAMBOO,C,m,y,./images/BAMBOO.png,,,,,,,,,,,,,,,,,,,,,m,1,1.0156,,,,,,,,0,32,32,5,1
,,,,,,,,,,,,,,,,,6104b1c50f6057c1d8a6e3a6,26,2022-02-12_17h56.57.763,lexical_decision_task_DD_L5,2021.2.3,MacIntel,59.97361161,,,,,,,,,,,0.7821,1,,,,,,,,,,,,,,,,,,,,,,,,0.258994141,-0.318154297,0,0,0,,,,,,,SAILOR,LB,z,y,./images/SAILORLB.png,,,,,,,,,,,,,,,,,,,,,z,1,0.7821,,,,,,,,0,33,33,151,1
,,,,,,,,,,,,,,,,,6104b1c50f6057c1d8a6e3a6,26,2022-02-12_17h56.57.763,lexical_decision_task_DD_L5,2021.2.3,MacIntel,59.97361161,,,,,,,,,,,2.1328,1,,,,,,,,,,,,,,,,,,,,,,,,0.258994141,-0.318154297,0,0,0,,,,,,,POODLE,HB,z,y,./images/POODLEHB.png,,,,,,,,,,,,,,,,,,,,,z,1,2.1328,,,,,,,,0,34,34,165,1
,,,,,,,,,,,,,,,,,6104b1c50f6057c1d8a6e3a6,26,2022-02-12_17h56.57.763,lexical_decision_task_DD_L5,2021.2.3,MacIntel,59.97361161,,,,,,,,,,,0.8051,1,,,,,,,,,,,,,,,,,,,,,,,,0.258994141,-0.318154297,0,0,0,,,,,,,WHISKY,C,m,y,./images/WHISKY.png,,,,,,,,,,,,,,,,,,,,,m,1,0.8051,,,,,,,,0,35,35,83,1
,,,,,,,,,,,,,,,,,6104b1c50f6057c1d8a6e3a6,26,2022-02-12_17h56.57.763,lexical_decision_task_DD_L5,2021.2.3,MacIntel,59.97361161,,,,,,,,,,,0.8815,0,,,,,,,,,,,,,,,,,,,,,,,,0.258994141,-0.318154297,0,0,0,,,,,,,TOWEL,LB,m,y,./images/TOWELLB.png,,,,,,,,,,,,,,,,,,,,,z,0,0.8815,,,,,,,,0,36,36,1,1
,,,,,,,,,,,,,,,,,6104b1c50f6057c1d8a6e3a6,26,2022-02-12_17h56.57.763,lexical_decision_task_DD_L5,2021.2.3,MacIntel,59.97361161,,,,,,,,,,,0.7178,1,,,,,,,,,,,,,,,,,,,,,,,,0.258994141,-0.318154297,0,0,0,,,,,,,DRILL,HB,m,y,./images/DRILLHB.png,,,,,,,,,,,,,,,,,,,,,m,1,0.7178,,,,,,,,0,37,37,81,1
,,,,,,,,,,,,,,,,,6104b1c50f6057c1d8a6e3a6,26,2022-02-12_17h56.57.763,lexical_decision_task_DD_L5,2021.2.3,MacIntel,59.97361161,,,,,,,,,,,0.7064,1,,,,,,,,,,,,,,,,,,,,,,,,0.258994141,-0.318154297,0,0,0,,,,,,,CASINO,LB,m,y,./images/CASINOLB.png,,,,,,,,,,,,,,,,,,,,,m,1,0.7064,,,,,,,,0,38,38,28,1
,,,,,,,,,,,,,,,,,6104b1c50f6057c1d8a6e3a6,26,2022-02-12_17h56.57.763,lexical_decision_task_DD_L5,2021.2.3,MacIntel,59.97361161,,,,,,,,,,,0.58,1,,,,,,,,,,,,,,,,,,,,,,,,0.258994141,-0.318154297,0,0,0,,,,,,,BURIAL,C,z,y,./images/BURIAL.png,,,,,,,,,,,,,,,,,,,,,z,1,0.58,,,,,,,,0,39,39,143,1
,,,,,,,,,,,,,,,,,6104b1c50f6057c1d8a6e3a6,26,2022-02-12_17h56.57.763,lexical_decision_task_DD_L5,2021.2.3,MacIntel,59.97361161,,,,,,,,,,,0.7062,1,,,,,,,,,,,,,,,,,,,,,,,,0.258994141,-0.318154297,0,0,0,,,,,,,ENGINE,C,m,y,./images/ENGINE.png,,,,,,,,,,,,,,,,,,,,,m,1,0.7062,,,,,,,,0,40,40,38,1
,,,,,,,,,,,,,,,,,6104b1c50f6057c1d8a6e3a6,26,2022-02-12_17h56.57.763,lexical_decision_task_DD_L5,2021.2.3,MacIntel,59.97361161,,,,,,,,,,,0.6644,1,,,,,,,,,,,,,,,,,,,,,,,,0.258994141,-0.318154297,0,0,0,space,,,,,,FINGER,HB,z,y,./images/FINGERHB.png,11.4051,,,,,,,,,,,,,,,,,,,,z,1,0.6644,,,,,,,,0,41,41,87,1
,,,,,,,,,,,,,,,,,6104b1c50f6057c1d8a6e3a6,26,2022-02-12_17h56.57.763,lexical_decision_task_DD_L5,2021.2.3,MacIntel,59.97361161,,,,,,,,,,,1.6494,0,,,,,,,,,,,,,,,,,,,,,,,,0.258994141,-0.318154297,0,0,0,,,,,,,SWEAT,HB,z,y,./images/SWEATHB.png,,,,,,,,,,,,,,,,,,,,,m,0,1.6494,,,,,,,,0,42,42,150,1
,,,,,,,,,,,,,,,,,6104b1c50f6057c1d8a6e3a6,26,2022-02-12_17h56.57.763,lexical_decision_task_DD_L5,2021.2.3,MacIntel,59.97361161,,,,,,,,,,,1.3661,1,,,,,,,,,,,,,,,,,,,,,,,,0.258994141,-0.318154297,0,0,0,,,,,,,BLOKE,HB,m,y,./images/BLOKEHB.png,,,,,,,,,,,,,,,,,,,,,m,1,1.3661,,,,,,,,0,43,43,12,1
,,,,,,,,,,,,,,,,,6104b1c50f6057c1d8a6e3a6,26,2022-02-12_17h56.57.763,lexical_decision_task_DD_L5,2021.2.3,MacIntel,59.97361161,,,,,,,,,,,1.4067,0,,,,,,,,,,,,,,,,,,,,,,,,0.258994141,-0.318154297,0,0,0,,,,,,,BISHOP,LB,m,y,./images/BISHOPLB.png,,,,,,,,,,,,,,,,,,,,,z,0,1.4067,,,,,,,,0,44,44,49,1
,,,,,,,,,,,,,,,,,6104b1c50f6057c1d8a6e3a6,26,2022-02-12_17h56.57.763,lexical_decision_task_DD_L5,2021.2.3,MacIntel,59.97361161,,,,,,,,,,,0.6827,1,,,,,,,,,,,,,,,,,,,,,,,,0.258994141,-0.318154297,0,0,0,,,,,,,SPINE,C,m,y,./images/SPINE.png,,,,,,,,,,,,,,,,,,,,,m,1,0.6827,,,,,,,,0,45,45,65,1
,,,,,,,,,,,,,,,,,6104b1c50f6057c1d8a6e3a6,26,2022-02-12_17h56.57.763,lexical_decision_task_DD_L5,2021.2.3,MacIntel,59.97361161,,,,,,,,,,,0.6822,1,,,,,,,,,,,,,,,,,,,,,,,,0.258994141,-0.318154297,0,0,0,,,,,,,PACKET,C,z,y,./images/PACKET.png,,,,,,,,,,,,,,,,,,,,,z,1,0.6822,,,,,,,,0,46,46,140,1
,,,,,,,,,,,,,,,,,6104b1c50f6057c1d8a6e3a6,26,2022-02-12_17h56.57.763,lexical_decision_task_DD_L5,2021.2.3,MacIntel,59.97361161,,,,,,,,,,,0.6491,1,,,,,,,,,,,,,,,,,,,,,,,,0.258994141,-0.318154297,0,0,0,,,,,,,BERRY,C,z,y,./images/BERRY.png,,,,,,,,,,,,,,,,,,,,,z,1,0.6491,,,,,,,,0,47,47,131,1
,,,,,,,,,,,,,,,,,6104b1c50f6057c1d8a6e3a6,26,2022-02-12_17h56.57.763,lexical_decision_task_DD_L5,2021.2.3,MacIntel,59.97361161,,,,,,,,,,,0.6856,1,,,,,,,,,,,,,,,,,,,,,,,,0.258994141,-0.318154297,0,0,0,,,,,,,SLOPE,HB,m,y,./images/SLOPEHB.png,,,,,,,,,,,,,,,,,,,,,m,1,0.6856,,,,,,,,0,48,48,30,1
,,,,,,,,,,,,,,,,,6104b1c50f6057c1d8a6e3a6,26,2022-02-12_17h56.57.763,lexical_decision_task_DD_L5,2021.2.3,MacIntel,59.97361161,,,,,,,,,,,0.8177,1,,,,,,,,,,,,,,,,,,,,,,,,0.258994141,-0.318154297,0,0,0,,,,,,,STRING,C,z,y,./images/STRING.png,,,,,,,,,,,,,,,,,,,,,z,1,0.8177,,,,,,,,0,49,49,125,1
,,,,,,,,,,,,,,,,,6104b1c50f6057c1d8a6e3a6,26,2022-02-12_17h56.57.763,lexical_decision_task_DD_L5,2021.2.3,MacIntel,59.97361161,,,,,,,,,,,0.6159,1,,,,,,,,,,,,,,,,,,,,,,,,0.258994141,-0.318154297,0,0,0,,,,,,,MUMMY,LB,m,y,./images/MUMMYLB.png,,,,,,,,,,,,,,,,,,,,,m,1,0.6159,,,,,,,,0,50,50,46,1
,,,,,,,,,,,,,,,,,6104b1c50f6057c1d8a6e3a6,26,2022-02-12_17h56.57.763,lexical_decision_task_DD_L5,2021.2.3,MacIntel,59.97361161,,,,,,,,,,,0.9992,0,,,,,,,,,,,,,,,,,,,,,,,,0.258994141,-0.318154297,0,0,0,,,,,,,CANYON,LB,z,y,./images/CANYONLB.png,,,,,,,,,,,,,,,,,,,,,m,0,0.9992,,,,,,,,0,51,51,118,1
,,,,,,,,,,,,,,,,,6104b1c50f6057c1d8a6e3a6,26,2022-02-12_17h56.57.763,lexical_decision_task_DD_L5,2021.2.3,MacIntel,59.97361161,,,,,,,,,,,0.7326,1,,,,,,,,,,,,,,,,,,,,,,,,0.258994141,-0.318154297,0,0,0,,,,,,,QUILL,LB,z,y,./images/QUILLLB.png,,,,,,,,,,,,,,,,,,,,,z,1,0.7326,,,,,,,,0,52,52,115,1
,,,,,,,,,,,,,,,,,6104b1c50f6057c1d8a6e3a6,26,2022-02-12_17h56.57.763,lexical_decision_task_DD_L5,2021.2.3,MacIntel,59.97361161,,,,,,,,,,,0.6672,1,,,,,,,,,,,,,,,,,,,,,,,,0.258994141,-0.318154297,0,0,0,,,,,,,BRUSH,C,m,y,./images/BRUSH.png,,,,,,,,,,,,,,,,,,,,,m,1,0.6672,,,,,,,,0,53,53,59,1
,,,,,,,,,,,,,,,,,6104b1c50f6057c1d8a6e3a6,26,2022-02-12_17h56.57.763,lexical_decision_task_DD_L5,2021.2.3,MacIntel,59.97361161,,,,,,,,,,,0.7995,1,,,,,,,,,,,,,,,,,,,,,,,,0.258994141,-0.318154297,0,0,0,,,,,,,SHIELD,HB,m,y,./images/SHIELDHB.png,,,,,,,,,,,,,,,,,,,,,m,1,0.7995,,,,,,,,0,54,54,48,1
,,,,,,,,,,,,,,,,,6104b1c50f6057c1d8a6e3a6,26,2022-02-12_17h56.57.763,lexical_decision_task_DD_L5,2021.2.3,MacIntel,59.97361161,,,,,,,,,,,1.2492,1,,,,,,,,,,,,,,,,,,,,,,,,0.258994141,-0.318154297,0,0,0,,,,,,,CHALK,LB,m,y,./images/CHALKLB.png,,,,,,,,,,,,,,,,,,,,,m,1,1.2492,,,,,,,,0,55,55,25,1
,,,,,,,,,,,,,,,,,6104b1c50f6057c1d8a6e3a6,26,2022-02-12_17h56.57.763,lexical_decision_task_DD_L5,2021.2.3,MacIntel,59.97361161,,,,,,,,,,,0.599,1,,,,,,,,,,,,,,,,,,,,,,,,0.258994141,-0.318154297,0,0,0,,,,,,,GRAPE,LB,m,y,./images/GRAPELB.png,,,,,,,,,,,,,,,,,,,,,m,1,0.599,,,,,,,,0,56,56,16,1
,,,,,,,,,,,,,,,,,6104b1c50f6057c1d8a6e3a6,26,2022-02-12_17h56.57.763,lexical_decision_task_DD_L5,2021.2.3,MacIntel,59.97361161,,,,,,,,,,,0.7827,1,,,,,,,,,,,,,,,,,,,,,,,,0.258994141,-0.318154297,0,0,0,,,,,,,GARDEN,LB,m,y,./images/GARDENLB.png,,,,,,,,,,,,,,,,,,,,,m,1,0.7827,,,,,,,,0,57,57,10,1
,,,,,,,,,,,,,,,,,6104b1c50f6057c1d8a6e3a6,26,2022-02-12_17h56.57.763,lexical_decision_task_DD_L5,2021.2.3,MacIntel,59.97361161,,,,,,,,,,,0.8332,1,,,,,,,,,,,,,,,,,,,,,,,,0.258994141,-0.318154297,0,0,0,,,,,,,CRUMB,C,z,y,./images/CRUMB.png,,,,,,,,,,,,,,,,,,,,,z,1,0.8332,,,,,,,,0,58,58,113,1
,,,,,,,,,,,,,,,,,6104b1c50f6057c1d8a6e3a6,26,2022-02-12_17h56.57.763,lexical_decision_task_DD_L5,2021.2.3,MacIntel,59.97361161,,,,,,,,,,,0.6523,1,,,,,,,,,,,,,,,,,,,,,,,,0.258994141,-0.318154297,0,0,0,,,,,,,BROOM,HB,m,y,./images/BROOMHB.png,,,,,,,,,,,,,,,,,,,,,m,1,0.6523,,,,,,,,0,59,59,78,1
,,,,,,,,,,,,,,,,,6104b1c50f6057c1d8a6e3a6,26,2022-02-12_17h56.57.763,lexical_decision_task_DD_L5,2021.2.3,MacIntel,59.97361161,,,,,,,,,,,0.8671,1,,,,,,,,,,,,,,,,,,,,,,,,0.258994141,-0.318154297,0,0,0,,,,,,,BABOON,LB,z,y,./images/BABOONLB.png,,,,,,,,,,,,,,,,,,,,,z,1,0.8671,,,,,,,,0,60,60,142,1
,,,,,,,,,,,,,,,,,6104b1c50f6057c1d8a6e3a6,26,2022-02-12_17h56.57.763,lexical_decision_task_DD_L5,2021.2.3,MacIntel,59.97361161,,,,,,,,,,,0.7176,1,,,,,,,,,,,,,,,,,,,,,,,,0.258994141,-0.318154297,0,0,0,,,,,,,CHERRY,HB,m,y,./images/CHERRYHB.png,,,,,,,,,,,,,,,,,,,,,m,1,0.7176,,,,,,,,0,61,61,54,1
,,,,,,,,,,,,,,,,,6104b1c50f6057c1d8a6e3a6,26,2022-02-12_17h56.57.763,lexical_decision_task_DD_L5,2021.2.3,MacIntel,59.97361161,,,,,,,,,,,0.7995,1,,,,,,,,,,,,,,,,,,,,,,,,0.258994141,-0.318154297,0,0,0,,,,,,,PAINT,LB,z,y,./images/PAINTLB.png,,,,,,,,,,,,,,,,,,,,,z,1,0.7995,,,,,,,,0,62,62,91,1
,,,,,,,,,,,,,,,,,6104b1c50f6057c1d8a6e3a6,26,2022-02-12_17h56.57.763,lexical_decision_task_DD_L5,2021.2.3,MacIntel,59.97361161,,,,,,,,,,,0.7004,0,,,,,,,,,,,,,,,,,,,,,,,,0.258994141,-0.318154297,0,0,0,,,,,,,COLLAR,HB,m,y,./images/COLLARHB.png,,,,,,,,,,,,,,,,,,,,,z,0,0.7004,,,,,,,,0,63,63,15,1
,,,,,,,,,,,,,,,,,6104b1c50f6057c1d8a6e3a6,26,2022-02-12_17h56.57.763,lexical_decision_task_DD_L5,2021.2.3,MacIntel,59.97361161,,,,,,,,,,,0.8666,0,,,,,,,,,,,,,,,,,,,,,,,,0.258994141,-0.318154297,0,0,0,,,,,,,ARROW,HB,m,y,./images/ARROWHB.png,,,,,,,,,,,,,,,,,,,,,z,0,0.8666,,,,,,,,0,64,64,69,1
,,,,,,,,,,,,,,,,,6104b1c50f6057c1d8a6e3a6,26,2022-02-12_17h56.57.763,lexical_decision_task_DD_L5,2021.2.3,MacIntel,59.97361161,,,,,,,,,,,0.717,1,,,,,,,,,,,,,,,,,,,,,,,,0.258994141,-0.318154297,0,0,0,,,,,,,LIZARD,C,z,y,./images/LIZARD.png,,,,,,,,,,,,,,,,,,,,,z,1,0.717,,,,,,,,0,65,65,128,1
,,,,,,,,,,,,,,,,,6104b1c50f6057c1d8a6e3a6,26,2022-02-12_17h56.57.763,lexical_decision_task_DD_L5,2021.2.3,MacIntel,59.97361161,,,,,,,,,,,0.5498,1,,,,,,,,,,,,,,,,,,,,,,,,0.258994141,-0.318154297,0,0,0,,,,,,,SHORE,HB,z,y,./images/SHOREHB.png,,,,,,,,,,,,,,,,,,,,,z,1,0.5498,,,,,,,,0,66,66,96,1
,,,,,,,,,,,,,,,,,6104b1c50f6057c1d8a6e3a6,26,2022-02-12_17h56.57.763,lexical_decision_task_DD_L5,2021.2.3,MacIntel,59.97361161,,,,,,,,,,,0.6703,1,,,,,,,,,,,,,,,,,,,,,,,,0.258994141,-0.318154297,0,0,0,,,,,,,RAZOR,LB,m,y,./images/RAZORLB.png,,,,,,,,,,,,,,,,,,,,,m,1,0.6703,,,,,,,,0,67,67,34,1
,,,,,,,,,,,,,,,,,6104b1c50f6057c1d8a6e3a6,26,2022-02-12_17h56.57.763,lexical_decision_task_DD_L5,2021.2.3,MacIntel,59.97361161,,,,,,,,,,,0.7693,0,,,,,,,,,,,,,,,,,,,,,,,,0.258994141,-0.318154297,0,0,0,,,,,,,DIVER,HB,m,y,./images/DIVERHB.png,,,,,,,,,,,,,,,,,,,,,z,0,0.7693,,,,,,,,0,68,68,9,1
,,,,,,,,,,,,,,,,,6104b1c50f6057c1d8a6e3a6,26,2022-02-12_17h56.57.763,lexical_decision_task_DD_L5,2021.2.3,MacIntel,59.97361161,,,,,,,,,,,0.6179,0,,,,,,,,,,,,,,,,,,,,,,,,0.258994141,-0.318154297,0,0,0,,,,,,,SNACK,LB,z,y,./images/SNACKLB.png,,,,,,,,,,,,,,,,,,,,,m,0,0.6179,,,,,,,,0,69,69,157,1
,,,,,,,,,,,,,,,,,6104b1c50f6057c1d8a6e3a6,26,2022-02-12_17h56.57.763,lexical_decision_task_DD_L5,2021.2.3,MacIntel,59.97361161,,,,,,,,,,,1.3513,1,,,,,,,,,,,,,,,,,,,,,,,,0.258994141,-0.318154297,0,0,0,,,,,,,MAGGOT,HB,z,y,./images/MAGGOTHB.png,,,,,,,,,,,,,,,,,,,,,z,1,1.3513,,,,,,,,0,70,70,117,1
,,,,,,,,,,,,,,,,,6104b1c50f6057c1d8a6e3a6,26,2022-02-12_17h56.57.763,lexical_decision_task_DD_L5,2021.2.3,MacIntel,59.97361161,,,,,,,,,,,0.6331,1,,,,,,,,,,,,,,,,,,,,,,,,0.258994141,-0.318154297,0,0,0,,,,,,,PEBBLE,LB,m,y,./images/PEBBLELB.png,,,,,,,,,,,,,,,,,,,,,m,1,0.6331,,,,,,,,0,71,71,82,1
,,,,,,,,,,,,,,,,,6104b1c50f6057c1d8a6e3a6,26,2022-02-12_17h56.57.763,lexical_decision_task_DD_L5,2021.2.3,MacIntel,59.97361161,,,,,,,,,,,0.8158,1,,,,,,,,,,,,,,,,,,,,,,,,0.258994141,-0.318154297,0,0,0,,,,,,,PARCEL,HB,m,y,./images/PARCELHB.png,,,,,,,,,,,,,,,,,,,,,m,1,0.8158,,,,,,,,0,72,72,18,1
,,,,,,,,,,,,,,,,,6104b1c50f6057c1d8a6e3a6,26,2022-02-12_17h56.57.763,lexical_decision_task_DD_L5,2021.2.3,MacIntel,59.97361161,,,,,,,,,,,1.1502,1,,,,,,,,,,,,,,,,,,,,,,,,0.258994141,-0.318154297,0,0,0,,,,,,,SMOKER,C,z,y,./images/SMOKER.png,,,,,,,,,,,,,,,,,,,,,z,1,1.1502,,,,,,,,0,73,73,110,1
,,,,,,,,,,,,,,,,,6104b1c50f6057c1d8a6e3a6,26,2022-02-12_17h56.57.763,lexical_decision_task_DD_L5,2021.2.3,MacIntel,59.97361161,,,,,,,,,,,0.8834,1,,,,,,,,,,,,,,,,,,,,,,,,0.258994141,-0.318154297,0,0,0,,,,,,,STOVE,C,m,y,./images/STOVE.png,,,,,,,,,,,,,,,,,,,,,m,1,0.8834,,,,,,,,0,74,74,2,1
,,,,,,,,,,,,,,,,,6104b1c50f6057c1d8a6e3a6,26,2022-02-12_17h56.57.763,lexical_decision_task_DD_L5,2021.2.3,MacIntel,59.97361161,,,,,,,,,,,0.7837,1,,,,,,,,,,,,,,,,,,,,,,,,0.258994141,-0.318154297,0,0,0,,,,,,,PASTA,C,z,y,./images/PASTA.png,,,,,,,,,,,,,,,,,,,,,z,1,0.7837,,,,,,,,0,75,75,89,1
,,,,,,,,,,,,,,,,,6104b1c50f6057c1d8a6e3a6,26,2022-02-12_17h56.57.763,lexical_decision_task_DD_L5,2021.2.3,MacIntel,59.97361161,,,,,,,,,,,0.7501,1,,,,,,,,,,,,,,,,,,,,,,,,0.258994141,-0.318154297,0,0,0,,,,,,,TIGER,LB,m,y,./images/TIGERLB.png,,,,,,,,,,,,,,,,,,,,,m,1,0.7501,,,,,,,,0,76,76,37,1
,,,,,,,,,,,,,,,,,6104b1c50f6057c1d8a6e3a6,26,2022-02-12_17h56.57.763,lexical_decision_task_DD_L5,2021.2.3,MacIntel,59.97361161,,,,,,,,,,,0.8524,1,,,,,,,,,,,,,,,,,,,,,,,,0.258994141,-0.318154297,0,0,0,,,,,,,WALRUS,C,z,y,./images/WALRUS.png,,,,,,,,,,,,,,,,,,,,,z,1,0.8524,,,,,,,,0,77,77,107,1
,,,,,,,,,,,,,,,,,6104b1c50f6057c1d8a6e3a6,26,2022-02-12_17h56.57.763,lexical_decision_task_DD_L5,2021.2.3,MacIntel,59.97361161,,,,,,,,,,,0.6663,1,,,,,,,,,,,,,,,,,,,,,,,,0.258994141,-0.318154297,0,0,0,,,,,,,CHAIN,HB,m,y,./images/CHAINHB.png,,,,,,,,,,,,,,,,,,,,,m,1,0.6663,,,,,,,,0,78,78,42,1
,,,,,,,,,,,,,,,,,6104b1c50f6057c1d8a6e3a6,26,2022-02-12_17h56.57.763,lexical_decision_task_DD_L5,2021.2.3,MacIntel,59.97361161,,,,,,,,,,,0.9006,1,,,,,,,,,,,,,,,,,,,,,,,,0.258994141,-0.318154297,0,0,0,,,,,,,BUNNY,LB,m,y,./images/BUNNYLB.png,,,,,,,,,,,,,,,,,,,,,m,1,0.9006,,,,,,,,0,79,79,13,1
,,,,,,,,,,,,,,,,,6104b1c50f6057c1d8a6e3a6,26,2022-02-12_17h56.57.763,lexical_decision_task_DD_L5,2021.2.3,MacIntel,59.97361161,,,,,,,,,,,0.7518,1,,,,,,,,,,,,,,,,,,,,,,,,0.258994141,-0.318154297,0,0,0,,,,,,,MELON,LB,z,y,./images/MELONLB.png,,,,,,,,,,,,,,,,,,,,,z,1,0.7518,,,,,,,,0,80,80,106,1
,,,,,,,,,,,,,,,,,6104b1c50f6057c1d8a6e3a6,26,2022-02-12_17h56.57.763,lexical_decision_task_DD_L5,2021.2.3,MacIntel,59.97361161,,,,,,,,,,,0.6836,1,,,,,,,,,,,,,,,,,,,,,,,,0.258994141,-0.318154297,0,0,0,,,,,,,FOLDER,HB,z,y,./images/FOLDERHB.png,,,,,,,,,,,,,,,,,,,,,z,1,0.6836,,,,,,,,0,81,81,126,1
,,,,,,,,,,,,,,,,,6104b1c50f6057c1d8a6e3a6,26,2022-02-12_17h56.57.763,lexical_decision_task_DD_L5,2021.2.3,MacIntel,59.97361161,,,,,,,,,,,0.7339,1,,,,,,,,,,,,,,,,,,,,,,,,0.258994141,-0.318154297,0,0,0,,,,,,,FLESH,HB,m,y,./images/FLESHHB.png,,,,,,,,,,,,,,,,,,,,,m,1,0.7339,,,,,,,,0,82,82,24,1
,,,,,,,,,,,,,,,,,6104b1c50f6057c1d8a6e3a6,26,2022-02-12_17h56.57.763,lexical_decision_task_DD_L5,2021.2.3,MacIntel,59.97361161,,,,,,,,,,,1.1343,1,,,,,,,,,,,,,,,,,,,,,,,,0.258994141,-0.318154297,0,0,0,space,,,,,,PURSE,C,z,y,./images/PURSE.png,5.6198,,,,,,,,,,,,,,,,,,,,z,1,1.1343,,,,,,,,0,83,83,146,1
,,,,,,,,,,,,,,,,,6104b1c50f6057c1d8a6e3a6,26,2022-02-12_17h56.57.763,lexical_decision_task_DD_L5,2021.2.3,MacIntel,59.97361161,,,,,,,,,,,1.0342,1,,,,,,,,,,,,,,,,,,,,,,,,0.258994141,-0.318154297,0,0,0,,,,,,,PENCE,LB,z,y,./images/PENCELB.png,,,,,,,,,,,,,,,,,,,,,z,1,1.0342,,,,,,,,0,84,84,100,1
,,,,,,,,,,,,,,,,,6104b1c50f6057c1d8a6e3a6,26,2022-02-12_17h56.57.763,lexical_decision_task_DD_L5,2021.2.3,MacIntel,59.97361161,,,,,,,,,,,0.6172,1,,,,,,,,,,,,,,,,,,,,,,,,0.258994141,-0.318154297,0,0,0,,,,,,,INFANT,LB,z,y,./images/INFANTLB.png,,,,,,,,,,,,,,,,,,,,,z,1,0.6172,,,,,,,,0,85,85,160,1
,,,,,,,,,,,,,,,,,6104b1c50f6057c1d8a6e3a6,26,2022-02-12_17h56.57.763,lexical_decision_task_DD_L5,2021.2.3,MacIntel,59.97361161,,,,,,,,,,,0.5381,1,,,,,,,,,,,,,,,,,,,,,,,,0.258994141,-0.318154297,0,0,0,,,,,,,NOOSE,HB,z,y,./images/NOOSEHB.png,,,,,,,,,,,,,,,,,,,,,z,1,0.5381,,,,,,,,0,86,86,156,1
,,,,,,,,,,,,,,,,,6104b1c50f6057c1d8a6e3a6,26,2022-02-12_17h56.57.763,lexical_decision_task_DD_L5,2021.2.3,MacIntel,59.97361161,,,,,,,,,,,1.2674,1,,,,,,,,,,,,,,,,,,,,,,,,0.258994141,-0.318154297,0,0,0,,,,,,,SAUNA,HB,m,y,./images/SAUNAHB.png,,,,,,,,,,,,,,,,,,,,,m,1,1.2674,,,,,,,,0,87,87,33,1
,,,,,,,,,,,,,,,,,6104b1c50f6057c1d8a6e3a6,26,2022-02-12_17h56.57.763,lexical_decision_task_DD_L5,2021.2.3,MacIntel,59.97361161,,,,,,,,,,,1.167,0,,,,,,,,,,,,,,,,,,,,,,,,0.258994141,-0.318154297,0,0,0,,,,,,,BARREL,C,z,y,./images/BARREL.png,,,,,,,,,,,,,,,,,,,,,m,0,1.167,,,,,,,,0,88,88,116,1
,,,,,,,,,,,,,,,,,6104b1c50f6057c1d8a6e3a6,26,2022-02-12_17h56.57.763,lexical_decision_task_DD_L5,2021.2.3,MacIntel,59.97361161,,,,,,,,,,,0.7511,1,,,,,,,,,,,,,,,,,,,,,,,,0.258994141,-0.318154297,0,0,0,,,,,,,BIRTH,LB,z,y,./images/BIRTHLB.png,,,,,,,,,,,,,,,,,,,,,z,1,0.7511,,,,,,,,0,89,89,121,1
,,,,,,,,,,,,,,,,,6104b1c50f6057c1d8a6e3a6,26,2022-02-12_17h56.57.763,lexical_decision_task_DD_L5,2021.2.3,MacIntel,59.97361161,,,,,,,,,,,0.7939,1,,,,,,,,,,,,,,,,,,,,,,,,0.258994141,-0.318154297,0,0,0,,,,,,,THROAT,HB,z,y,./images/THROATHB.png,,,,,,,,,,,,,,,,,,,,,z,1,0.7939,,,,,,,,0,90,90,120,1
,,,,,,,,,,,,,,,,,6104b1c50f6057c1d8a6e3a6,26,2022-02-12_17h56.57.763,lexical_decision_task_DD_L5,2021.2.3,MacIntel,59.97361161,,,,,,,,,,,1.1657,1,,,,,,,,,,,,,,,,,,,,,,,,0.258994141,-0.318154297,0,0,0,,,,,,,PILOT,C,m,y,./images/PILOT.png,,,,,,,,,,,,,,,,,,,,,m,1,1.1657,,,,,,,,0,91,91,50,1
,,,,,,,,,,,,,,,,,6104b1c50f6057c1d8a6e3a6,26,2022-02-12_17h56.57.763,lexical_decision_task_DD_L5,2021.2.3,MacIntel,59.97361161,,,,,,,,,,,0.5671,0,,,,,,,,,,,,,,,,,,,,,,,,0.258994141,-0.318154297,0,0,0,,,,,,,MEDAL,C,m,y,./images/MEDAL.png,,,,,,,,,,,,,,,,,,,,,z,0,0.5671,,,,,,,,0,92,92,11,1
,,,,,,,,,,,,,,,,,6104b1c50f6057c1d8a6e3a6,26,2022-02-12_17h56.57.763,lexical_decision_task_DD_L5,2021.2.3,MacIntel,59.97361161,,,,,,,,,,,0.951,1,,,,,,,,,,,,,,,,,,,,,,,,0.258994141,-0.318154297,0,0,0,,,,,,,LADDER,C,z,y,./images/LADDER.png,,,,,,,,,,,,,,,,,,,,,z,1,0.951,,,,,,,,0,93,93,122,1
,,,,,,,,,,,,,,,,,6104b1c50f6057c1d8a6e3a6,26,2022-02-12_17h56.57.763,lexical_decision_task_DD_L5,2021.2.3,MacIntel,59.97361161,,,,,,,,,,,0.7016,1,,,,,,,,,,,,,,,,,,,,,,,,0.258994141,-0.318154297,0,0,0,,,,,,,SKIING,C,z,y,./images/SKIING.png,,,,,,,,,,,,,,,,,,,,,z,1,0.7016,,,,,,,,0,94,94,101,1
,,,,,,,,,,,,,,,,,6104b1c50f6057c1d8a6e3a6,26,2022-02-12_17h56.57.763,lexical_decision_task_DD_L5,2021.2.3,MacIntel,59.97361161,,,,,,,,,,,0.5831,0,,,,,,,,,,,,,,,,,,,,,,,,0.258994141,-0.318154297,0,0,0,,,,,,,ALLEY,LB,m,y,./images/ALLEYLB.png,,,,,,,,,,,,,,,,,,,,,z,0,0.5831,,,,,,,,0,95,95,55,1
,,,,,,,,,,,,,,,,,6104b1c50f6057c1d8a6e3a6,26,2022-02-12_17h56.57.763,lexical_decision_task_DD_L5,2021.2.3,MacIntel,59.97361161,,,,,,,,,,,0.7667,1,,,,,,,,,,,,,,,,,,,,,,,,0.258994141,-0.318154297,0,0,0,,,,,,,BANNER,LB,z,y,./images/BANNERLB.png,,,,,,,,,,,,,,,,,,,,,z,1,0.7667,,,,,,,,0,96,96,136,1
,,,,,,,,,,,,,,,,,6104b1c50f6057c1d8a6e3a6,26,2022-02-12_17h56.57.763,lexical_decision_task_DD_L5,2021.2.3,MacIntel,59.97361161,,,,,,,,,,,0.9984,0,,,,,,,,,,,,,,,,,,,,,,,,0.258994141,-0.318154297,0,0,0,,,,,,,STREAM,C,m,y,./images/STREAM.png,,,,,,,,,,,,,,,,,,,,,z,0,0.9984,,,,,,,,0,97,97,41,1
,,,,,,,,,,,,,,,,,6104b1c50f6057c1d8a6e3a6,26,2022-02-12_17h56.57.763,lexical_decision_task_DD_L5,2021.2.3,MacIntel,59.97361161,,,,,,,,,,,0.6047,0,,,,,,,,,,,,,,,,,,,,,,,,0.258994141,-0.318154297,0,0,0,,,,,,,FERRY,HB,m,y,./images/FERRYHB.png,,,,,,,,,,,,,,,,,,,,,z,0,0.6047,,,,,,,,0,98,98,57,1
,,,,,,,,,,,,,,,,,6104b1c50f6057c1d8a6e3a6,26,2022-02-12_17h56.57.763,lexical_decision_task_DD_L5,2021.2.3,MacIntel,59.97361161,,,,,,,,,,,1.429,0,,,,,,,,,,,,,,,,,,,,,,,,0.258994141,-0.318154297,0,0,0,,,,,,,MIDGET,LB,m,y,./images/MIDGETLB.png,,,,,,,,,,,,,,,,,,,,,z,0,1.429,,,,,,,,0,99,99,76,1
,,,,,,,,,,,,,,,,,6104b1c50f6057c1d8a6e3a6,26,2022-02-12_17h56.57.763,lexical_decision_task_DD_L5,2021.2.3,MacIntel,59.97361161,,,,,,,,,,,0.7613,1,,,,,,,,,,,,,,,,,,,,,,,,0.258994141,-0.318154297,0,0,0,,,,,,,JUMPER,C,m,y,./images/JUMPER.png,,,,,,,,,,,,,,,,,,,,,m,1,0.7613,,,,,,,,0,100,100,74,1
,,,,,,,,,,,,,,,,,6104b1c50f6057c1d8a6e3a6,26,2022-02-12_17h56.57.763,lexical_decision_task_DD_L5,2021.2.3,MacIntel,59.97361161,,,,,,,,,,,0.5951,1,,,,,,,,,,,,,,,,,,,,,,,,0.258994141,-0.318154297,0,0,0,,,,,,,PLANK,LB,z,y,./images/PLANKLB.png,,,,,,,,,,,,,,,,,,,,,z,1,0.5951,,,,,,,,0,101,101,85,1
,,,,,,,,,,,,,,,,,6104b1c50f6057c1d8a6e3a6,26,2022-02-12_17h56.57.763,lexical_decision_task_DD_L5,2021.2.3,MacIntel,59.97361161,,,,,,,,,,,0.594,1,,,,,,,,,,,,,,,,,,,,,,,,0.258994141,-0.318154297,0,0,0,,,,,,,SWING,LB,z,y,./images/SWINGLB.png,,,,,,,,,,,,,,,,,,,,,z,1,0.594,,,,,,,,0,102,102,124,1
,,,,,,,,,,,,,,,,,6104b1c50f6057c1d8a6e3a6,26,2022-02-12_17h56.57.763,lexical_decision_task_DD_L5,2021.2.3,MacIntel,59.97361161,,,,,,,,,,,0.7161,1,,,,,,,,,,,,,,,,,,,,,,,,0.258994141,-0.318154297,0,0,0,,,,,,,TOMATO,HB,z,y,./images/TOMATOHB.png,,,,,,,,,,,,,,,,,,,,,z,1,0.7161,,,,,,,,0,103,103,84,1
,,,,,,,,,,,,,,,,,6104b1c50f6057c1d8a6e3a6,26,2022-02-12_17h56.57.763,lexical_decision_task_DD_L5,2021.2.3,MacIntel,59.97361161,,,,,,,,,,,0.5781,1,,,,,,,,,,,,,,,,,,,,,,,,0.258994141,-0.318154297,0,0,0,,,,,,,ONION,HB,z,y,./images/ONIONHB.png,,,,,,,,,,,,,,,,,,,,,z,1,0.5781,,,,,,,,0,104,104,135,1
,,,,,,,,,,,,,,,,,6104b1c50f6057c1d8a6e3a6,26,2022-02-12_17h56.57.763,lexical_decision_task_DD_L5,2021.2.3,MacIntel,59.97361161,,,,,,,,,,,0.6152,1,,,,,,,,,,,,,,,,,,,,,,,,0.258994141,-0.318154297,0,0,0,,,,,,,STOOL,LB,m,y,./images/STOOLLB.png,,,,,,,,,,,,,,,,,,,,,m,1,0.6152,,,,,,,,0,105,105,43,1
,,,,,,,,,,,,,,,,,6104b1c50f6057c1d8a6e3a6,26,2022-02-12_17h56.57.763,lexical_decision_task_DD_L5,2021.2.3,MacIntel,59.97361161,,,,,,,,,,,0.694,1,,,,,,,,,,,,,,,,,,,,,,,,0.258994141,-0.318154297,0,0,0,,,,,,,LITTER,HB,z,y,./images/LITTERHB.png,,,,,,,,,,,,,,,,,,,,,z,1,0.694,,,,,,,,0,106,106,162,1
,,,,,,,,,,,,,,,,,6104b1c50f6057c1d8a6e3a6,26,2022-02-12_17h56.57.763,lexical_decision_task_DD_L5,2021.2.3,MacIntel,59.97361161,,,,,,,,,,,0.865,1,,,,,,,,,,,,,,,,,,,,,,,,0.258994141,-0.318154297,0,0,0,,,,,,,ARTIST,LB,m,y,./images/ARTISTLB.png,,,,,,,,,,,,,,,,,,,,,m,1,0.865,,,,,,,,0,107,107,61,1
,,,,,,,,,,,,,,,,,6104b1c50f6057c1d8a6e3a6,26,2022-02-12_17h56.57.763,lexical_decision_task_DD_L5,2021.2.3,MacIntel,59.97361161,,,,,,,,,,,0.6928,1,,,,,,,,,,,,,,,,,,,,,,,,0.258994141,-0.318154297,0,0,0,,,,,,,COOKER,HB,z,y,./images/COOKERHB.png,,,,,,,,,,,,,,,,,,,,,z,1,0.6928,,,,,,,,0,108,108,153,1
,,,,,,,,,,,,,,,,,6104b1c50f6057c1d8a6e3a6,26,2022-02-12_17h56.57.763,lexical_decision_task_DD_L5,2021.2.3,MacIntel,59.97361161,,,,,,,,,,,0.6986,1,,,,,,,,,,,,,,,,,,,,,,,,0.258994141,-0.318154297,0,0,0,,,,,,,CLOUD,C,m,y,./images/CLOUD.png,,,,,,,,,,,,,,,,,,,,,m,1,0.6986,,,,,,,,0,109,109,26,1
,,,,,,,,,,,,,,,,,6104b1c50f6057c1d8a6e3a6,26,2022-02-12_17h56.57.763,lexical_decision_task_DD_L5,2021.2.3,MacIntel,59.97361161,,,,,,,,,,,0.664,1,,,,,,,,,,,,,,,,,,,,,,,,0.258994141,-0.318154297,0,0,0,,,,,,,LLAMA,C,m,y,./images/LLAMA.png,,,,,,,,,,,,,,,,,,,,,m,1,0.664,,,,,,,,0,110,110,35,1
,,,,,,,,,,,,,,,,,6104b1c50f6057c1d8a6e3a6,26,2022-02-12_17h56.57.763,lexical_decision_task_DD_L5,2021.2.3,MacIntel,59.97361161,,,,,,,,,,,0.9803,0,,,,,,,,,,,,,,,,,,,,,,,,0.258994141,-0.318154297,0,0,0,,,,,,,WAGON,LB,m,y,./images/WAGONLB.png,,,,,,,,,,,,,,,,,,,,,z,0,0.9803,,,,,,,,0,111,111,7,1
,,,,,,,,,,,,,,,,,6104b1c50f6057c1d8a6e3a6,26,2022-02-12_17h56.57.763,lexical_decision_task_DD_L5,2021.2.3,MacIntel,59.97361161,,,,,,,,,,,0.6973,1,,,,,,,,,,,,,,,,,,,,,,,,0.258994141,-0.318154297,0,0,0,,,,,,,SPORT,HB,z,y,./images/SPORTHB.png,,,,,,,,,,,,,,,,,,,,,z,1,0.6973,,,,,,,,0,112,112,132,1
,,,,,,,,,,,,,,,,,6104b1c50f6057c1d8a6e3a6,26,2022-02-12_17h56.57.763,lexical_decision_task_DD_L5,2021.2.3,MacIntel,59.97361161,,,,,,,,,,,0.6988,1,,,,,,,,,,,,,,,,,,,,,,,,0.258994141,-0.318154297,0,0,0,,,,,,,SCREW,HB,z,y,./images/SCREWHB.png,,,,,,,,,,,,,,,,,,,,,z,1,0.6988,,,,,,,,0,113,113,108,1
,,,,,,,,,,,,,,,,,6104b1c50f6057c1d8a6e3a6,26,2022-02-12_17h56.57.763,lexical_decision_task_DD_L5,2021.2.3,MacIntel,59.97361161,,,,,,,,,,,0.9946,1,,,,,,,,,,,,,,,,,,,,,,,,0.258994141,-0.318154297,0,0,0,,,,,,,CRATER,HB,m,y,./images/CRATERHB.png,,,,,,,,,,,,,,,,,,,,,m,1,0.9946,,,,,,,,0,114,114,3,1
,,,,,,,,,,,,,,,,,6104b1c50f6057c1d8a6e3a6,26,2022-02-12_17h56.57.763,lexical_decision_task_DD_L5,2021.2.3,MacIntel,59.97361161,,,,,,,,,,,0.8672,1,,,,,,,,,,,,,,,,,,,,,,,,0.258994141,-0.318154297,0,0,0,,,,,,,PARADE,C,m,y,./images/PARADE.png,,,,,,,,,,,,,,,,,,,,,m,1,0.8672,,,,,,,,0,115,115,17,1
,,,,,,,,,,,,,,,,,6104b1c50f6057c1d8a6e3a6,26,2022-02-12_17h56.57.763,lexical_decision_task_DD_L5,2021.2.3,MacIntel,59.97361161,,,,,,,,,,,0.8369,1,,,,,,,,,,,,,,,,,,,,,,,,0.258994141,-0.318154297,0,0,0,,,,,,,STORM,HB,z,y,./images/STORMHB.png,,,,,,,,,,,,,,,,,,,,,z,1,0.8369,,,,,,,,0,116,116,114,1
,,,,,,,,,,,,,,,,,6104b1c50f6057c1d8a6e3a6,26,2022-02-12_17h56.57.763,lexical_decision_task_DD_L5,2021.2.3,MacIntel,59.97361161,,,,,,,,,,,0.6841,1,,,,,,,,,,,,,,,,,,,,,,,,0.258994141,-0.318154297,0,0,0,,,,,,,CEMENT,C,z,y,./images/CEMENT.png,,,,,,,,,,,,,,,,,,,,,z,1,0.6841,,,,,,,,0,117,117,158,1
,,,,,,,,,,,,,,,,,6104b1c50f6057c1d8a6e3a6,26,2022-02-12_17h56.57.763,lexical_decision_task_DD_L5,2021.2.3,MacIntel,59.97361161,,,,,,,,,,,0.5767,1,,,,,,,,,,,,,,,,,,,,,,,,0.258994141,-0.318154297,0,0,0,,,,,,,DOUGH,LB,z,y,./images/DOUGHLB.png,,,,,,,,,,,,,,,,,,,,,z,1,0.5767,,,,,,,,0,118,118,103,1
,,,,,,,,,,,,,,,,,6104b1c50f6057c1d8a6e3a6,26,2022-02-12_17h56.57.763,lexical_decision_task_DD_L5,2021.2.3,MacIntel,59.97361161,,,,,,,,,,,1.0484,1,,,,,,,,,,,,,,,,,,,,,,,,0.258994141,-0.318154297,0,0,0,,,,,,,HOCKEY,C,m,y,./images/HOCKEY.png,,,,,,,,,,,,,,,,,,,,,m,1,1.0484,,,,,,,,0,119,119,32,1
,,,,,,,,,,,,,,,,,6104b1c50f6057c1d8a6e3a6,26,2022-02-12_17h56.57.763,lexical_decision_task_DD_L5,2021.2.3,MacIntel,59.97361161,,,,,,,,,,,0.7107,0,,,,,,,,,,,,,,,,,,,,,,,,0.258994141,-0.318154297,0,0,0,,,,,,,DANCER,HB,m,y,./images/DANCERHB.png,,,,,,,,,,,,,,,,,,,,,z,0,0.7107,,,,,,,,0,120,120,21,1
,,,,,,,,,,,,,,,,,6104b1c50f6057c1d8a6e3a6,26,2022-02-12_17h56.57.763,lexical_decision_task_DD_L5,2021.2.3,MacIntel,59.97361161,,,,,,,,,,,0.6525,1,,,,,,,,,,,,,,,,,,,,,,,,0.258994141,-0.318154297,0,0,0,,,,,,,ATTIC,HB,z,y,./images/ATTICHB.png,,,,,,,,,,,,,,,,,,,,,z,1,0.6525,,,,,,,,0,121,121,111,1
,,,,,,,,,,,,,,,,,6104b1c50f6057c1d8a6e3a6,26,2022-02-12_17h56.57.763,lexical_decision_task_DD_L5,2021.2.3,MacIntel,59.97361161,,,,,,,,,,,0.7257,0,,,,,,,,,,,,,,,,,,,,,,,,0.258994141,-0.318154297,0,0,0,,,,,,,WRIST,LB,z,y,./images/WRISTLB.png,,,,,,,,,,,,,,,,,,,,,m,0,0.7257,,,,,,,,0,122,122,109,1
,,,,,,,,,,,,,,,,,6104b1c50f6057c1d8a6e3a6,26,2022-02-12_17h56.57.763,lexical_decision_task_DD_L5,2021.2.3,MacIntel,59.97361161,,,,,,,,,,,2.0944,1,,,,,,,,,,,,,,,,,,,,,,,,0.258994141,-0.318154297,0,0,0,,,,,,,CANDLE,LB,z,y,./images/CANDLELB.png,,,,,,,,,,,,,,,,,,,,,z,1,2.0944,,,,,,,,0,123,123,145,1
,,,,,,,,,,,,,,,,,6104b1c50f6057c1d8a6e3a6,26,2022-02-12_17h56.57.763,lexical_decision_task_DD_L5,2021.2.3,MacIntel,59.97361161,,,,,,,,,,,0.8092,1,,,,,,,,,,,,,,,,,,,,,,,,0.258994141,-0.318154297,0,0,0,,,,,,,CANDY,HB,m,y,./images/CANDYHB.png,,,,,,,,,,,,,,,,,,,,,m,1,0.8092,,,,,,,,0,124,124,39,1
,,,,,,,,,,,,,,,,,6104b1c50f6057c1d8a6e3a6,26,2022-02-12_17h56.57.763,lexical_decision_task_DD_L5,2021.2.3,MacIntel,59.97361161,,,,,,,,,,,0.6425,1,,,,,,,,,,,,,,,,,,,,,,,,0.258994141,-0.318154297,0,0,0,space,,,,,,BASKET,C,m,y,./images/BASKET.png,1.5407,,,,,,,,,,,,,,,,,,,,m,1,0.6425,,,,,,,,0,125,125,44,1
,,,,,,,,,,,,,,,,,6104b1c50f6057c1d8a6e3a6,26,2022-02-12_17h56.57.763,lexical_decision_task_DD_L5,2021.2.3,MacIntel,59.97361161,,,,,,,,,,,1.7281,0,,,,,,,,,,,,,,,,,,,,,,,,0.258994141,-0.318154297,0,0,0,,,,,,,PEACH,C,z,y,./images/PEACH.png,,,,,,,,,,,,,,,,,,,,,m,0,1.7281,,,,,,,,0,126,126,119,1
,,,,,,,,,,,,,,,,,6104b1c50f6057c1d8a6e3a6,26,2022-02-12_17h56.57.763,lexical_decision_task_DD_L5,2021.2.3,MacIntel,59.97361161,,,,,,,,,,,0.9847,1,,,,,,,,,,,,,,,,,,,,,,,,0.258994141,-0.318154297,0,0,0,,,,,,,CRADLE,C,z,y,./images/CRADLE.png,,,,,,,,,,,,,,,,,,,,,z,1,0.9847,,,,,,,,0,127,127,104,1
