key_resp.keys,instr_done_touch.x,instr_done_touch.y,instr_done_touch.leftButton,instr_done_touch.midButton,instr_done_touch.rightButton,instr_done_touch.clicked_name,instruction_pages.thisRepN,instruction_pages.thisTrialN,instruction_pages.thisN,instruction_pages.thisIndex,instruction_pages.ran,pageN,phase,instruct_text,has_image,instruct_image,participant,age,date,expName,psychopyVersion,OS,frameRate,response.keys,response.corr,touch_resp.x,touch_resp.y,touch_resp.leftButton,touch_resp.midButton,touch_resp.rightButton,touch_resp.time,touch_resp.clicked_name,rt,corr,practrials.thisRepN,practrials.thisTrialN,practrials.thisN,practrials.thisIndex,practrials.ran,TrialID,Target,corrAns,end_of_practice_trials_pages.thisRepN,end_of_practice_trials_pages.thisTrialN,end_of_practice_trials_pages.thisN,end_of_practice_trials_pages.thisIndex,end_of_practice_trials_pages.ran,key_resp_2.keys,key_resp_2.corr,targ_click.x,targ_click.y,targ_click.leftButton,targ_click.midButton,targ_click.rightButton,targ_click.time,targ_click.clicked_name,break_done_touch.x,break_done_touch.y,break_done_touch.leftButton,break_done_touch.midButton,break_done_touch.rightButton,break_done_keyboard.keys,maintrials.thisRepN,maintrials.thisTrialN,maintrials.thisN,maintrials.thisIndex,maintrials.ran,string,blur,study,lex,stim_path,break_done_touch.clicked_name,mouse_2.x,mouse_2.y,mouse_2.leftButton,mouse_2.midButton,mouse_2.rightButton,mouse_2.clicked_name,slider.response,slider.rt,trials.thisRepN,trials.thisTrialN,trials.thisN,trials.thisIndex,trials.ran,test_instructions.thisRepN,test_instructions.thisTrialN,test_instructions.thisN,test_instructions.thisIndex,test_instructions.ran,key_resp_3.keys,key_resp_3.corr,test_click.x,test_click.y,test_click.leftButton,test_click.midButton,test_click.rightButton,test_click.time,test_click.clicked_name,test_phase.thisRepN,test_phase.thisTrialN,test_phase.thisN,test_phase.thisIndex,test_phase.ran
,0.110263602,-0.417822532,1,0,0,instr_done_button,0,0,0,0,1,1,instructions,"INSTRUCTIONS
At the start of each trial, look at the plus sign  (+) in the center of the screen.  This tells you that a trial is about to begin and where to look. Second, the plus sign will disappear and a string of letters will appear. Your task is to determine if the string of letters is a word or not. If the item is a word press the M key (on keyboard)  or touch the word button (phone/tablet).  If the item is not a word,  press the  Z key (on keyboard)  or touch the nonword button (on phone/tablet). 
Press the space bar or touch  continue.",0,,610505ad4f6be10b34394634,,2022-02-12_14h46.43.519,lexical_decision_task_DD_L5,2021.2.3,Linux armv8l,30.02822653,,,,,,,,,,,,,,,,,,,,,,,,,,,,,,,,,,,,,,,,,,,,,,,,,,,,,,,,,,,,,,,,,,,,,,,,,,,,,,,,,,
,0.096393919,-0.408807255,1,0,0,instr_done_button,0,1,1,1,1,2,instructions,"If your device has a keyboard, press the 'Z' key for nonwords and the 'M' key for words.





Press the space bar or touch the button below to continue.",0,keyboard-example.gif,610505ad4f6be10b34394634,,2022-02-12_14h46.43.519,lexical_decision_task_DD_L5,2021.2.3,Linux armv8l,30.02822653,,,,,,,,,,,,,,,,,,,,,,,,,,,,,,,,,,,,,,,,,,,,,,,,,,,,,,,,,,,,,,,,,,,,,,,,,,,,,,,,,,
,0.096393919,-0.408807255,1,0,0,instr_done_button,0,2,2,2,1,3,instructions,"If you are using a touchscreen only device, use the buttons on the screen. Do not use the mouse.





Press the space bar or touch the button below to continue.",0,touchscreen-example.gif,610505ad4f6be10b34394634,,2022-02-12_14h46.43.519,lexical_decision_task_DD_L5,2021.2.3,Linux armv8l,30.02822653,,,,,,,,,,,,,,,,,,,,,,,,,,,,,,,,,,,,,,,,,,,,,,,,,,,,,,,,,,,,,,,,,,,,,,,,,,,,,,,,,,
,0.065880785,-0.400485437,1,0,0,instr_done_button,0,3,3,3,1,4,instructions,"It is very important that you respond as quickly and accurately as possible, as each letter string will only be on the screen for two seconds. If you do not respond within this time, the message 'Too slow!' will be displayed and the experiment will progress to the next letter string. The first 20 trials will be practice trials and you will receive feedback on your answers. 

Press the space bar or touch the button below to start the practice trials.",0,,610505ad4f6be10b34394634,,2022-02-12_14h46.43.519,lexical_decision_task_DD_L5,2021.2.3,Linux armv8l,30.02822653,,,,,,,,,,,,,,,,,,,,,,,,,,,,,,,,,,,,,,,,,,,,,,,,,,,,,,,,,,,,,,,,,,,,,,,,,,,,,,,,,,
,,,,,,,,,,,,,,,,,610505ad4f6be10b34394634,,2022-02-12_14h46.43.519,lexical_decision_task_DD_L5,2021.2.3,Linux armv8l,30.02822653,,0,0.401525701,-0.297850229,1,0,0,2.0408,button_right,2.0408,1,0,0,0,0,1,1001,UTOPIA,m,,,,,,,,,,,,,,,,,,,,,,,,,,,,,,,,,,,,,,,,,,,,,,,,,,,,,,,,,,,,,,,
,,,,,,,,,,,,,,,,,610505ad4f6be10b34394634,,2022-02-12_14h46.43.519,lexical_decision_task_DD_L5,2021.2.3,Linux armv8l,30.02822653,,0,0.380721231,-0.311719876,1,0,0,0.9447,button_right,0.9447,1,0,1,1,4,1,1001,SQUEAK,m,,,,,,,,,,,,,,,,,,,,,,,,,,,,,,,,,,,,,,,,,,,,,,,,,,,,,,,,,,,,,,,
,,,,,,,,,,,,,,,,,610505ad4f6be10b34394634,,2022-02-12_14h46.43.519,lexical_decision_task_DD_L5,2021.2.3,Linux armv8l,30.02822653,,0,0.394590878,-0.318654921,1,0,0,0.8887,button_right,0.8887,1,0,2,2,2,1,1001,ALMOND,m,,,,,,,,,,,,,,,,,,,,,,,,,,,,,,,,,,,,,,,,,,,,,,,,,,,,,,,,,,,,,,,
,,,,,,,,,,,,,,,,,610505ad4f6be10b34394634,,2022-02-12_14h46.43.519,lexical_decision_task_DD_L5,2021.2.3,Linux armv8l,30.02822653,,0,0.383495294,-0.307558967,1,0,0,1.0328,button_right,1.0328,1,0,3,3,6,1,1001,ZOMBIE,m,,,,,,,,,,,,,,,,,,,,,,,,,,,,,,,,,,,,,,,,,,,,,,,,,,,,,,,,,,,,,,,
,,,,,,,,,,,,,,,,,610505ad4f6be10b34394634,,2022-02-12_14h46.43.519,lexical_decision_task_DD_L5,2021.2.3,Linux armv8l,30.02822653,,0,-0.333564481,-0.281206742,1,0,0,0.9546,button_left,0.9546,1,0,4,4,15,1,1001,WHAISE,z,,,,,,,,,,,,,,,,,,,,,,,,,,,,,,,,,,,,,,,,,,,,,,,,,,,,,,,,,,,,,,,
,,,,,,,,,,,,,,,,,610505ad4f6be10b34394634,,2022-02-12_14h46.43.519,lexical_decision_task_DD_L5,2021.2.3,Linux armv8l,30.02822653,,0,-0.318307895,-0.303398058,1,0,0,0.9078,button_left,0.9078,1,0,5,5,11,1,1001,RASHET,z,,,,,,,,,,,,,,,,,,,,,,,,,,,,,,,,,,,,,,,,,,,,,,,,,,,,,,,,,,,,,,,
,,,,,,,,,,,,,,,,,610505ad4f6be10b34394634,,2022-02-12_14h46.43.519,lexical_decision_task_DD_L5,2021.2.3,Linux armv8l,30.02822653,,0,0.389043123,-0.286754719,1,0,0,0.7721,button_right,0.7721,1,0,6,6,7,1,1001,VOLUME,m,,,,,,,,,,,,,,,,,,,,,,,,,,,,,,,,,,,,,,,,,,,,,,,,,,,,,,,,,,,,,,,
,,,,,,,,,,,,,,,,,610505ad4f6be10b34394634,,2022-02-12_14h46.43.519,lexical_decision_task_DD_L5,2021.2.3,Linux armv8l,30.02822653,,0,-0.315533981,-0.318654921,1,0,0,1.0099,button_left,1.0099,1,0,7,7,8,1,1001,ASLERT,z,,,,,,,,,,,,,,,,,,,,,,,,,,,,,,,,,,,,,,,,,,,,,,,,,,,,,,,,,,,,,,,
,,,,,,,,,,,,,,,,,610505ad4f6be10b34394634,,2022-02-12_14h46.43.519,lexical_decision_task_DD_L5,2021.2.3,Linux armv8l,30.02822653,,0,0.382108225,-0.302011138,1,0,0,0.8045,button_right,0.8045,1,0,8,8,5,1,1001,OBTAIN,m,,,,,,,,,,,,,,,,,,,,,,,,,,,,,,,,,,,,,,,,,,,,,,,,,,,,,,,,,,,,,,,
,,,,,,,,,,,,,,,,,610505ad4f6be10b34394634,,2022-02-12_14h46.43.519,lexical_decision_task_DD_L5,2021.2.3,Linux armv8l,30.02822653,,0,-0.355755889,-0.297850229,1,0,0,0.961,button_left,0.961,1,0,9,9,14,1,1001,THRALE,z,,,,,,,,,,,,,,,,,,,,,,,,,,,,,,,,,,,,,,,,,,,,,,,,,,,,,,,,,,,,,,,
,,,,,,,,,,,,,,,,,610505ad4f6be10b34394634,,2022-02-12_14h46.43.519,lexical_decision_task_DD_L5,2021.2.3,Linux armv8l,30.02822653,,0,-0.35991678,-0.329750431,1,0,0,1.0242,button_left,1.0242,1,0,10,10,9,1,1001,FARINY,z,,,,,,,,,,,,,,,,,,,,,,,,,,,,,,,,,,,,,,,,,,,,,,,,,,,,,,,,,,,,,,,
,,,,,,,,,,,,,,,,,610505ad4f6be10b34394634,,2022-02-12_14h46.43.519,lexical_decision_task_DD_L5,2021.2.3,Linux armv8l,30.02822653,,0,0.358529841,-0.306172195,1,0,0,0.7599,button_right,0.7599,1,0,11,11,3,1,1001,MATRIX,m,,,,,,,,,,,,,,,,,,,,,,,,,,,,,,,,,,,,,,,,,,,,,,,,,,,,,,,,,,,,,,,
,,,,,,,,,,,,,,,,,610505ad4f6be10b34394634,,2022-02-12_14h46.43.519,lexical_decision_task_DD_L5,2021.2.3,Linux armv8l,30.02822653,,0,-0.365464627,-0.299237446,1,0,0,0.9126,button_left,0.9126,1,0,12,12,13,1,1001,ROUPET,z,,,,,,,,,,,,,,,,,,,,,,,,,,,,,,,,,,,,,,,,,,,,,,,,,,,,,,,,,,,,,,,
,,,,,,,,,,,,,,,,,610505ad4f6be10b34394634,,2022-02-12_14h46.43.519,lexical_decision_task_DD_L5,2021.2.3,Linux armv8l,30.02822653,,0,-0.371012465,-0.283980583,1,0,0,1.0742,button_left,1.0742,1,0,13,13,10,1,1001,INLADE,z,,,,,,,,,,,,,,,,,,,,,,,,,,,,,,,,,,,,,,,,,,,,,,,,,,,,,,,,,,,,,,,
,,,,,,,,,,,,,,,,,610505ad4f6be10b34394634,,2022-02-12_14h46.43.519,lexical_decision_task_DD_L5,2021.2.3,Linux armv8l,30.02822653,,0,-0.35991678,-0.324202602,1,0,0,1.5943,button_left,1.5943,1,0,14,14,12,1,1001,SPRINY,z,,,,,,,,,,,,,,,,,,,,,,,,,,,,,,,,,,,,,,,,,,,,,,,,,,,,,,,,,,,,,,,
,,,,,,,,,,,,,,,,,610505ad4f6be10b34394634,,2022-02-12_14h46.43.519,lexical_decision_task_DD_L5,2021.2.3,Linux armv8l,30.02822653,,0,0.347434257,-0.318654921,1,0,0,0.9226,button_right,0.9226,1,0,15,15,1,1,1001,ADJUST,m,,,,,,,,,,,,,,,,,,,,,,,,,,,,,,,,,,,,,,,,,,,,,,,,,,,,,,,,,,,,,,,
,0.0783634,-0.372746292,1,0,0,instr_done_button,,,,,,1,end_of_practice,"You have completed the practice trials. During the experimental trials, you will not receive feedback. 
Before you begin, please ensure that you are in a comfortable and quiet location and will not be disturbed for about 15 minutes, as we cannot use your data if you do not complete all the trials. 
 When you are ready to start the experimental trials, please press space or touch the button below.",,,610505ad4f6be10b34394634,,2022-02-12_14h46.43.519,lexical_decision_task_DD_L5,2021.2.3,Linux armv8l,30.02822653,,,,,,,,,,,,,,,,,,,,0,0,0,0,1,,,,,,,,,,,,,,,,,,,,,,,,,,,,,,,,,,,,,,,,,,,,,,,,,,,,,,,,,,
,,,,,,,,,,,,,,,,,610505ad4f6be10b34394634,,2022-02-12_14h46.43.519,lexical_decision_task_DD_L5,2021.2.3,Linux armv8l,30.02822653,,,,,,,,,,0.9885,1,,,,,,,,,,,,,,,0,0.400138707,-0.346393919,1,0,0,0.9885,button_right_main,0.400138707,-0.346393919,1,0,0,,0,0,0,11,1,MEDAL,C,old,m,./images/MEDAL.png,,,,,,,,,,,,,,,,,,,,,,,,,,,,,,,,,
,,,,,,,,,,,,,,,,,610505ad4f6be10b34394634,,2022-02-12_14h46.43.519,lexical_decision_task_DD_L5,2021.2.3,Linux armv8l,30.02822653,,,,,,,,,,3.306,1,,,,,,,,,,,,,,,0,-0.371012465,-0.272884924,1,0,0,3.306,button_left_main,-0.371012465,-0.272884924,1,0,0,,0,1,1,109,1,BURGE,HB,old,z,./images/BURGEHB.png,,,,,,,,,,,,,,,,,,,,,,,,,,,,,,,,,
,,,,,,,,,,,,,,,,,610505ad4f6be10b34394634,,2022-02-12_14h46.43.519,lexical_decision_task_DD_L5,2021.2.3,Linux armv8l,30.02822653,,,,,,,,,,0.9939,1,,,,,,,,,,,,,,,0,0.400138707,-0.297850229,1,0,0,0.9939,button_right_main,0.400138707,-0.297850229,1,0,0,,0,2,2,41,1,STREAM,C,old,m,./images/STREAM.png,,,,,,,,,,,,,,,,,,,,,,,,,,,,,,,,,
,,,,,,,,,,,,,,,,,610505ad4f6be10b34394634,,2022-02-12_14h46.43.519,lexical_decision_task_DD_L5,2021.2.3,Linux armv8l,30.02822653,,,,,,,,,,1.0085,1,,,,,,,,,,,,,,,0,0.371012493,-0.310332956,1,0,0,1.0085,button_right_main,0.371012493,-0.310332956,1,0,0,,0,3,3,9,1,DIVER,HB,old,m,./images/DIVERHB.png,,,,,,,,,,,,,,,,,,,,,,,,,,,,,,,,,
,,,,,,,,,,,,,,,,,610505ad4f6be10b34394634,,2022-02-12_14h46.43.519,lexical_decision_task_DD_L5,2021.2.3,Linux armv8l,30.02822653,,,,,,,,,,1.143,1,,,,,,,,,,,,,,,0,-0.354368914,-0.313106796,1,0,0,1.143,button_left_main,-0.354368914,-0.313106796,1,0,0,,0,4,4,99,1,BACKY,C,old,z,./images/BACKY.png,,,,,,,,,,,,,,,,,,,,,,,,,,,,,,,,,
,,,,,,,,,,,,,,,,,610505ad4f6be10b34394634,,2022-02-12_14h46.43.519,lexical_decision_task_DD_L5,2021.2.3,Linux armv8l,30.02822653,,,,,,,,,,1.6637,1,,,,,,,,,,,,,,,0,-0.355755889,-0.275658913,1,0,0,1.6637,button_left_main,-0.355755889,-0.275658913,1,0,0,,0,5,5,104,1,GITTY,LB,old,z,./images/GITTYLB.png,,,,,,,,,,,,,,,,,,,,,,,,,,,,,,,,,
,,,,,,,,,,,,,,,,,610505ad4f6be10b34394634,,2022-02-12_14h46.43.519,lexical_decision_task_DD_L5,2021.2.3,Linux armv8l,30.02822653,,,,,,,,,,1.1436,1,,,,,,,,,,,,,,,0,0.434812898,-0.317267705,1,0,0,1.1436,button_right_main,0.434812898,-0.317267705,1,0,0,,0,6,6,47,1,LAGOON,C,old,m,./images/LAGOON.png,,,,,,,,,,,,,,,,,,,,,,,,,,,,,,,,,
,,,,,,,,,,,,,,,,,610505ad4f6be10b34394634,,2022-02-12_14h46.43.519,lexical_decision_task_DD_L5,2021.2.3,Linux armv8l,30.02822653,,,,,,,,,,1.0752,1,,,,,,,,,,,,,,,0,0.405686684,-0.314493864,1,0,0,1.0752,button_right_main,0.405686684,-0.314493864,1,0,0,,0,7,7,18,1,PARCEL,HB,old,m,./images/PARCELHB.png,,,,,,,,,,,,,,,,,,,,,,,,,,,,,,,,,
,,,,,,,,,,,,,,,,,610505ad4f6be10b34394634,,2022-02-12_14h46.43.519,lexical_decision_task_DD_L5,2021.2.3,Linux armv8l,30.02822653,,,,,,,,,,0.8488,1,,,,,,,,,,,,,,,0,0.369625647,-0.326976443,1,0,0,0.8488,button_right_main,0.369625647,-0.326976443,1,0,0,,0,8,8,71,1,BUBBLE,C,old,m,./images/BUBBLE.png,,,,,,,,,,,,,,,,,,,,,,,,,,,,,,,,,
,,,,,,,,,,,,,,,,,610505ad4f6be10b34394634,,2022-02-12_14h46.43.519,lexical_decision_task_DD_L5,2021.2.3,Linux armv8l,30.02822653,,,,,,,,,,1.0768,1,,,,,,,,,,,,,,,0,-0.379334255,-0.282593662,1,0,0,1.0768,button_left_main,-0.379334255,-0.282593662,1,0,0,,0,9,9,149,1,VEASE,LB,old,z,./images/VEASELB.png,,,,,,,,,,,,,,,,,,,,,,,,,,,,,,,,,
,,,,,,,,,,,,,,,,,610505ad4f6be10b34394634,,2022-02-12_14h46.43.519,lexical_decision_task_DD_L5,2021.2.3,Linux armv8l,30.02822653,,,,,,,,,,1.0578,1,,,,,,,,,,,,,,,0,-0.35991678,-0.2923024,1,0,0,1.0578,button_left_main,-0.35991678,-0.2923024,1,0,0,,0,10,10,150,1,NOOLS,C,old,z,./images/NOOLS.png,,,,,,,,,,,,,,,,,,,,,,,,,,,,,,,,,
,,,,,,,,,,,,,,,,,610505ad4f6be10b34394634,,2022-02-12_14h46.43.519,lexical_decision_task_DD_L5,2021.2.3,Linux armv8l,30.02822653,,,,,,,,,,0.8068,1,,,,,,,,,,,,,,,0,0.416782268,-0.283980583,1,0,0,0.8068,button_right_main,0.416782268,-0.283980583,1,0,0,,0,11,11,58,1,CANOE,LB,old,m,./images/CANOELB.png,,,,,,,,,,,,,,,,,,,,,,,,,,,,,,,,,
,,,,,,,,,,,,,,,,,610505ad4f6be10b34394634,,2022-02-12_14h46.43.519,lexical_decision_task_DD_L5,2021.2.3,Linux armv8l,30.02822653,,,,,,,,,,1.5753,1,,,,,,,,,,,,,,,0,-0.357142837,-0.311719876,1,0,0,1.5753,button_left_main,-0.357142837,-0.311719876,1,0,0,,0,12,12,142,1,PLASK,HB,old,z,./images/PLASKHB.png,,,,,,,,,,,,,,,,,,,,,,,,,,,,,,,,,
,,,,,,,,,,,,,,,,,610505ad4f6be10b34394634,,2022-02-12_14h46.43.519,lexical_decision_task_DD_L5,2021.2.3,Linux armv8l,30.02822653,,,,,,,,,,0.8979,1,,,,,,,,,,,,,,,0,0.40707353,-0.259015278,1,0,0,0.8979,button_right_main,0.40707353,-0.259015278,1,0,0,,0,13,13,8,1,CLIFF,C,old,m,./images/CLIFF.png,,,,,,,,,,,,,,,,,,,,,,,,,,,,,,,,,
,,,,,,,,,,,,,,,,,610505ad4f6be10b34394634,,2022-02-12_14h46.43.519,lexical_decision_task_DD_L5,2021.2.3,Linux armv8l,30.02822653,,,,,,,,,,1.0787,1,,,,,,,,,,,,,,,0,-0.400138679,-0.300624218,1,0,0,1.0787,button_left_main,-0.400138679,-0.300624218,1,0,0,,0,14,14,96,1,KEAMS,C,old,z,./images/KEAMS.png,,,,,,,,,,,,,,,,,,,,,,,,,,,,,,,,,
,,,,,,,,,,,,,,,,,610505ad4f6be10b34394634,,2022-02-12_14h46.43.519,lexical_decision_task_DD_L5,2021.2.3,Linux armv8l,30.02822653,,,,,,,,,,0.928,1,,,,,,,,,,,,,,,0,0.394590878,-0.315880933,1,0,0,0.928,button_right_main,0.394590878,-0.315880933,1,0,0,,0,15,15,66,1,STATUE,HB,old,m,./images/STATUEHB.png,,,,,,,,,,,,,,,,,,,,,,,,,,,,,,,,,
,,,,,,,,,,,,,,,,,610505ad4f6be10b34394634,,2022-02-12_14h46.43.519,lexical_decision_task_DD_L5,2021.2.3,Linux armv8l,30.02822653,,,,,,,,,,1.1441,1,,,,,,,,,,,,,,,0,-0.314146986,-0.271498004,1,0,0,1.1441,button_left_main,-0.314146986,-0.271498004,1,0,0,,0,16,16,147,1,ZOLES,C,old,z,./images/ZOLES.png,,,,,,,,,,,,,,,,,,,,,,,,,,,,,,,,,
,,,,,,,,,,,,,,,,,610505ad4f6be10b34394634,,2022-02-12_14h46.43.519,lexical_decision_task_DD_L5,2021.2.3,Linux armv8l,30.02822653,,,,,,,,,,0.9943,1,,,,,,,,,,,,,,,0,-0.314146986,-0.286754719,1,0,0,0.9943,button_left_main,-0.314146986,-0.286754719,1,0,0,,0,17,17,111,1,HOSSE,C,old,z,./images/HOSSE.png,,,,,,,,,,,,,,,,,,,,,,,,,,,,,,,,,
,,,,,,,,,,,,,,,,,610505ad4f6be10b34394634,,2022-02-12_14h46.43.519,lexical_decision_task_DD_L5,2021.2.3,Linux armv8l,30.02822653,,,,,,,,,,0.9599,1,,,,,,,,,,,,,,,0,-0.354368914,-0.270111232,1,0,0,0.9599,button_left_main,-0.354368914,-0.270111232,1,0,0,,0,18,18,135,1,JOODY,C,old,z,./images/JOODY.png,,,,,,,,,,,,,,,,,,,,,,,,,,,,,,,,,
,,,,,,,,,,,,,,,,,610505ad4f6be10b34394634,,2022-02-12_14h46.43.519,lexical_decision_task_DD_L5,2021.2.3,Linux armv8l,30.02822653,,,,,,,,,,1.0241,1,,,,,,,,,,,,,,,0,-0.358529804,-0.300624218,1,0,0,1.0241,button_left_main,-0.358529804,-0.300624218,1,0,0,,0,19,19,121,1,CEERS,HB,old,z,./images/CEERSHB.png,,,,,,,,,,,,,,,,,,,,,,,,,,,,,,,,,
,,,,,,,,,,,,,,,,,610505ad4f6be10b34394634,,2022-02-12_14h46.43.519,lexical_decision_task_DD_L5,2021.2.3,Linux armv8l,30.02822653,,,,,,,,,,0.961,1,,,,,,,,,,,,,,,0,-0.402912621,-0.318654921,1,0,0,0.961,button_left_main,-0.402912621,-0.318654921,1,0,0,,0,20,20,129,1,PRANS,C,old,z,./images/PRANS.png,,,,,,,,,,,,,,,,,,,,,,,,,,,,,,,,,
,,,,,,,,,,,,,,,,,610505ad4f6be10b34394634,,2022-02-12_14h46.43.519,lexical_decision_task_DD_L5,2021.2.3,Linux armv8l,30.02822653,,,,,,,,,,0.8755,1,,,,,,,,,,,,,,,0,0.383495294,-0.27981997,1,0,0,0.8755,button_right_main,0.383495294,-0.27981997,1,0,0,,0,21,21,49,1,BISHOP,LB,old,m,./images/BISHOPLB.png,,,,,,,,,,,,,,,,,,,,,,,,,,,,,,,,,
,,,,,,,,,,,,,,,,,610505ad4f6be10b34394634,,2022-02-12_14h46.43.519,lexical_decision_task_DD_L5,2021.2.3,Linux armv8l,30.02822653,,,,,,,,,,1.5619,1,,,,,,,,,,,,,,,0,0.375173402,-0.260402494,1,0,0,1.5619,button_right_main,0.375173402,-0.260402494,1,0,0,,0,22,22,63,1,BAKER,HB,old,m,./images/BAKERHB.png,,,,,,,,,,,,,,,,,,,,,,,,,,,,,,,,,
,,,,,,,,,,,,,,,,,610505ad4f6be10b34394634,,2022-02-12_14h46.43.519,lexical_decision_task_DD_L5,2021.2.3,Linux armv8l,30.02822653,,,,,,,,,,1.1933,1,,,,,,,,,,,,,,,0,-0.382108179,-0.289528708,1,0,0,1.1933,button_left_main,-0.382108179,-0.289528708,1,0,0,,0,23,23,120,1,RINED,C,old,z,./images/RINED.png,,,,,,,,,,,,,,,,,,,,,,,,,,,,,,,,,
,,,,,,,,,,,,,,,,,610505ad4f6be10b34394634,,2022-02-12_14h46.43.519,lexical_decision_task_DD_L5,2021.2.3,Linux armv8l,30.02822653,,,,,,,,,,1.4388,1,,,,,,,,,,,,,,,0,0.414008354,-0.303398058,1,0,0,1.4388,button_right_main,0.414008354,-0.303398058,1,0,0,,0,24,24,78,1,BROOM,HB,old,m,./images/BROOMHB.png,,,,,,,,,,,,,,,,,,,,,,,,,,,,,,,,,
,,,,,,,,,,,,,,,,,610505ad4f6be10b34394634,,2022-02-12_14h46.43.519,lexical_decision_task_DD_L5,2021.2.3,Linux armv8l,30.02822653,,,,,,,,,,0.8762,1,,,,,,,,,,,,,,,0,0.358529841,-0.310332956,1,0,0,0.8762,button_right_main,0.358529841,-0.310332956,1,0,0,,0,25,25,53,1,POSTER,C,old,m,./images/POSTER.png,,,,,,,,,,,,,,,,,,,,,,,,,,,,,,,,,
,,,,,,,,,,,,,,,,,610505ad4f6be10b34394634,,2022-02-12_14h46.43.519,lexical_decision_task_DD_L5,2021.2.3,Linux armv8l,30.02822653,,,,,,,,,,1.2142,1,,,,,,,,,,,,,,,0,0.37656047,-0.283980583,1,0,0,1.2142,button_right_main,0.37656047,-0.283980583,1,0,0,,0,26,26,81,1,DRILL,HB,old,m,./images/DRILLHB.png,,,,,,,,,,,,,,,,,,,,,,,,,,,,,,,,,
,,,,,,,,,,,,,,,,,610505ad4f6be10b34394634,,2022-02-12_14h46.43.519,lexical_decision_task_DD_L5,2021.2.3,Linux armv8l,30.02822653,,,,,,,,,,0.9958,1,,,,,,,,,,,,,,,0,0.404299616,-0.304785127,1,0,0,0.9958,button_right_main,0.404299616,-0.304785127,1,0,0,,0,27,27,33,1,SAUNA,HB,old,m,./images/SAUNAHB.png,,,,,,,,,,,,,,,,,,,,,,,,,,,,,,,,,
,,,,,,,,,,,,,,,,,610505ad4f6be10b34394634,,2022-02-12_14h46.43.519,lexical_decision_task_DD_L5,2021.2.3,Linux armv8l,30.02822653,,,,,,,,,,1.1245,1,,,,,,,,,,,,,,,0,-0.37794728,-0.315880933,1,0,0,1.1245,button_left_main,-0.37794728,-0.315880933,1,0,0,,0,28,28,132,1,SCIFF,C,old,z,./images/SCIFF.png,,,,,,,,,,,,,,,,,,,,,,,,,,,,,,,,,
,,,,,,,,,,,,,,,,,610505ad4f6be10b34394634,,2022-02-12_14h46.43.519,lexical_decision_task_DD_L5,2021.2.3,Linux armv8l,30.02822653,,,,,,,,,,1.5141,1,,,,,,,,,,,,,,,0,-0.346047151,-0.2923024,1,0,0,1.5141,button_left_main,-0.346047151,-0.2923024,1,0,0,,0,29,29,151,1,TINKY,HB,old,z,./images/TINKYHB.png,,,,,,,,,,,,,,,,,,,,,,,,,,,,,,,,,
,,,,,,,,,,,,,,,,,610505ad4f6be10b34394634,,2022-02-12_14h46.43.519,lexical_decision_task_DD_L5,2021.2.3,Linux armv8l,30.02822653,,,,,,,,,,1.2099,1,,,,,,,,,,,,,,,0,-0.376560332,-0.288141491,1,0,0,1.2099,button_left_main,-0.376560332,-0.288141491,1,0,0,,0,30,30,112,1,MYING,HB,old,z,./images/MYINGHB.png,,,,,,,,,,,,,,,,,,,,,,,,,,,,,,,,,
,,,,,,,,,,,,,,,,,610505ad4f6be10b34394634,,2022-02-12_14h46.43.519,lexical_decision_task_DD_L5,2021.2.3,Linux armv8l,30.02822653,,,,,,,,,,0.8626,1,,,,,,,,,,,,,,,0,-0.371012465,-0.303398058,1,0,0,0.8626,button_left_main,-0.371012465,-0.303398058,1,0,0,,0,31,31,143,1,MONGS,LB,old,z,./images/MONGSLB.png,,,,,,,,,,,,,,,,,,,,,,,,,,,,,,,,,
,,,,,,,,,,,,,,,,,610505ad4f6be10b34394634,,2022-02-12_14h46.43.519,lexical_decision_task_DD_L5,2021.2.3,Linux armv8l,30.02822653,,,,,,,,,,0.8666,1,,,,,,,,,,,,,,,0,-0.334951456,-0.281206742,1,0,0,0.8666,button_left_main,-0.334951456,-0.281206742,1,0,0,,0,32,32,119,1,PAFER,LB,old,z,./images/PAFERLB.png,,,,,,,,,,,,,,,,,,,,,,,,,,,,,,,,,
,,,,,,,,,,,,,,,,,610505ad4f6be10b34394634,,2022-02-12_14h46.43.519,lexical_decision_task_DD_L5,2021.2.3,Linux armv8l,30.02822653,,,,,,,,,,1.3266,1,,,,,,,,,,,,,,,0,0.368238579,-0.281206742,1,0,0,1.3266,button_right_main,0.368238579,-0.281206742,1,0,0,,0,33,33,12,1,BLOKE,HB,old,m,./images/BLOKEHB.png,,,,,,,,,,,,,,,,,,,,,,,,,,,,,,,,,
,,,,,,,,,,,,,,,,,610505ad4f6be10b34394634,,2022-02-12_14h46.43.519,lexical_decision_task_DD_L5,2021.2.3,Linux armv8l,30.02822653,,,,,,,,,,1.3799,1,,,,,,,,,,,,,,,0,-0.398751731,-0.336685181,1,0,0,1.3799,button_left_main,-0.398751731,-0.336685181,1,0,0,,0,34,34,91,1,SHENS,HB,old,z,./images/SHENSHB.png,,,,,,,,,,,,,,,,,,,,,,,,,,,,,,,,,
,,,,,,,,,,,,,,,,,610505ad4f6be10b34394634,,2022-02-12_14h46.43.519,lexical_decision_task_DD_L5,2021.2.3,Linux armv8l,30.02822653,,,,,,,,,,0.8609,1,,,,,,,,,,,,,,,0,0.398751861,-0.275658913,1,0,0,0.8609,button_right_main,0.398751861,-0.275658913,1,0,0,,0,35,35,16,1,GRAPE,LB,old,m,./images/GRAPELB.png,,,,,,,,,,,,,,,,,,,,,,,,,,,,,,,,,
,,,,,,,,,,,,,,,,,610505ad4f6be10b34394634,,2022-02-12_14h46.43.519,lexical_decision_task_DD_L5,2021.2.3,Linux armv8l,30.02822653,,,,,,,,,,1.5592,1,,,,,,,,,,,,,,,0,-0.402912621,-0.281206742,1,0,0,1.5592,button_left_main,-0.402912621,-0.281206742,1,0,0,,0,36,36,157,1,INLER,HB,old,z,./images/INLERHB.png,,,,,,,,,,,,,,,,,,,,,,,,,,,,,,,,,
,,,,,,,,,,,,,,,,,610505ad4f6be10b34394634,,2022-02-12_14h46.43.519,lexical_decision_task_DD_L5,2021.2.3,Linux armv8l,30.02822653,,,,,,,,,,0.909,1,,,,,,,,,,,,,,,0,0.398751861,-0.299237446,1,0,0,0.909,button_right_main,0.398751861,-0.299237446,1,0,0,,0,37,37,25,1,CHALK,LB,old,m,./images/CHALKLB.png,,,,,,,,,,,,,,,,,,,,,,,,,,,,,,,,,
,,,,,,,,,,,,,,,,,610505ad4f6be10b34394634,,2022-02-12_14h46.43.519,lexical_decision_task_DD_L5,2021.2.3,Linux armv8l,30.02822653,,,,,,,,,,0.9495,1,,,,,,,,,,,,,,,0,0.323855798,-0.281206742,1,0,0,0.9495,button_right_main,0.323855798,-0.281206742,1,0,0,,0,38,38,29,1,PISTOL,C,old,m,./images/PISTOL.png,,,,,,,,,,,,,,,,,,,,,,,,,,,,,,,,,
,,,,,,,,,,,,,,,,,610505ad4f6be10b34394634,,2022-02-12_14h46.43.519,lexical_decision_task_DD_L5,2021.2.3,Linux armv8l,30.02822653,,,,,,,,,,0.9102,1,,,,,,,,,,,,,,,0,-0.400138679,-0.281206742,1,0,0,0.9102,button_left_main,-0.400138679,-0.281206742,1,0,0,,0,39,39,125,1,MOOKY,LB,old,z,./images/MOOKYLB.png,,,,,,,,,,,,,,,,,,,,,,,,,,,,,,,,,
,,,,,,,,,,,,,,,,,610505ad4f6be10b34394634,,2022-02-12_14h46.43.519,lexical_decision_task_DD_L5,2021.2.3,Linux armv8l,30.02822653,,,,,,,,,,0.9107,1,,,,,,,,,,,,,,,0,-0.383495127,-0.2923024,1,0,0,0.9107,button_left_main,-0.383495127,-0.2923024,1,0,0,,0,40,40,152,1,FRAIN,LB,old,z,./images/FRAINLB.png,,,,,,,,,,,,,,,,,,,,,,,,,,,,,,,,,
,,,,,,,,,,,,,,,,,610505ad4f6be10b34394634,,2022-02-12_14h46.43.519,lexical_decision_task_DD_L5,2021.2.3,Linux armv8l,30.02822653,,,,,,,,,,1.4754,1,,,,,,,,,,,,,,,0,-0.344660194,-0.303398058,1,0,0,1.4754,button_left_main,0.108876571,-0.375520132,1,0,0,,0,41,41,94,1,BLANS,HB,old,z,./images/BLANSHB.png,break_done_button,,,,,,,,,,,,,,,,,,,,,,,,,,,,,,,,
,,,,,,,,,,,,,,,,,610505ad4f6be10b34394634,,2022-02-12_14h46.43.519,lexical_decision_task_DD_L5,2021.2.3,Linux armv8l,30.02822653,,,,,,,,,,1.1601,1,,,,,,,,,,,,,,,0,-0.354368914,-0.318654921,1,0,0,1.1601,button_left_main,-0.354368914,-0.318654921,1,0,0,,0,42,42,103,1,FLORT,HB,old,z,./images/FLORTHB.png,,,,,,,,,,,,,,,,,,,,,,,,,,,,,,,,,
,,,,,,,,,,,,,,,,,610505ad4f6be10b34394634,,2022-02-12_14h46.43.519,lexical_decision_task_DD_L5,2021.2.3,Linux armv8l,30.02822653,,,,,,,,,,0.8666,1,,,,,,,,,,,,,,,0,-0.365464627,-0.261789266,1,0,0,0.8666,button_left_main,-0.365464627,-0.261789266,1,0,0,,0,43,43,138,1,PLICE,C,old,z,./images/PLICE.png,,,,,,,,,,,,,,,,,,,,,,,,,,,,,,,,,
,,,,,,,,,,,,,,,,,610505ad4f6be10b34394634,,2022-02-12_14h46.43.519,lexical_decision_task_DD_L5,2021.2.3,Linux armv8l,30.02822653,,,,,,,,,,1.059,1,,,,,,,,,,,,,,,0,0.352982012,-0.278432753,1,0,0,1.059,button_right_main,0.352982012,-0.278432753,1,0,0,,0,44,44,24,1,FLESH,HB,old,m,./images/FLESHHB.png,,,,,,,,,,,,,,,,,,,,,,,,,,,,,,,,,
,,,,,,,,,,,,,,,,,610505ad4f6be10b34394634,,2022-02-12_14h46.43.519,lexical_decision_task_DD_L5,2021.2.3,Linux armv8l,30.02822653,,,,,,,,,,1.4283,1,,,,,,,,,,,,,,,0,-0.372399441,-0.296463457,1,0,0,1.4283,button_left_main,-0.372399441,-0.296463457,1,0,0,,0,45,45,148,1,JOMS,HB,old,z,./images/JOMSHB.png,,,,,,,,,,,,,,,,,,,,,,,,,,,,,,,,,
,,,,,,,,,,,,,,,,,610505ad4f6be10b34394634,,2022-02-12_14h46.43.519,lexical_decision_task_DD_L5,2021.2.3,Linux armv8l,30.02822653,,,,,,,,,,1.0656,1,,,,,,,,,,,,,,,0,-0.350208042,-0.274271845,1,0,0,1.0656,button_left_main,-0.350208042,-0.274271845,1,0,0,,0,46,46,153,1,CLUPS,C,old,z,./images/CLUPS.png,,,,,,,,,,,,,,,,,,,,,,,,,,,,,,,,,
,,,,,,,,,,,,,,,,,610505ad4f6be10b34394634,,2022-02-12_14h46.43.519,lexical_decision_task_DD_L5,2021.2.3,Linux armv8l,30.02822653,,,,,,,,,,1.091,1,,,,,,,,,,,,,,,0,-0.394590841,-0.2923024,1,0,0,1.091,button_left_main,-0.394590841,-0.2923024,1,0,0,,0,47,47,130,1,CRILL,HB,old,z,./images/CRILLHB.png,,,,,,,,,,,,,,,,,,,,,,,,,,,,,,,,,
,,,,,,,,,,,,,,,,,610505ad4f6be10b34394634,,2022-02-12_14h46.43.519,lexical_decision_task_DD_L5,2021.2.3,Linux armv8l,30.02822653,,,,,,,,,,1.2084,1,,,,,,,,,,,,,,,0,0.377947317,-0.278432753,1,0,0,1.2084,button_right_main,0.377947317,-0.278432753,1,0,0,,0,48,48,54,1,CHERRY,HB,old,m,./images/CHERRYHB.png,,,,,,,,,,,,,,,,,,,,,,,,,,,,,,,,,
,,,,,,,,,,,,,,,,,610505ad4f6be10b34394634,,2022-02-12_14h46.43.519,lexical_decision_task_DD_L5,2021.2.3,Linux armv8l,30.02822653,,,,,,,,,,0.9797,1,,,,,,,,,,,,,,,0,0.411234439,-0.275658913,1,0,0,0.9797,button_right_main,0.411234439,-0.275658913,1,0,0,,0,49,49,43,1,STOOL,LB,old,m,./images/STOOLLB.png,,,,,,,,,,,,,,,,,,,,,,,,,,,,,,,,,
,,,,,,,,,,,,,,,,,610505ad4f6be10b34394634,,2022-02-12_14h46.43.519,lexical_decision_task_DD_L5,2021.2.3,Linux armv8l,30.02822653,,,,,,,,,,1.176,1,,,,,,,,,,,,,,,0,-0.448682378,-0.300624218,1,0,0,1.176,button_left_main,-0.448682378,-0.300624218,1,0,0,,0,50,50,124,1,TUNCH,HB,old,z,./images/TUNCHHB.png,,,,,,,,,,,,,,,,,,,,,,,,,,,,,,,,,
,,,,,,,,,,,,,,,,,610505ad4f6be10b34394634,,2022-02-12_14h46.43.519,lexical_decision_task_DD_L5,2021.2.3,Linux armv8l,30.02822653,,,,,,,,,,1.5404,1,,,,,,,,,,,,,,,0,-0.451456311,-0.310332956,1,0,0,1.5404,button_left_main,-0.451456311,-0.310332956,1,0,0,,0,51,51,115,1,MAWNS,HB,old,z,./images/MAWNSHB.png,,,,,,,,,,,,,,,,,,,,,,,,,,,,,,,,,
,,,,,,,,,,,,,,,,,610505ad4f6be10b34394634,,2022-02-12_14h46.43.519,lexical_decision_task_DD_L5,2021.2.3,Linux armv8l,30.02822653,,,,,,,,,,0.8428,1,,,,,,,,,,,,,,,0,-0.357142837,-0.282593662,1,0,0,0.8428,button_left_main,-0.357142837,-0.282593662,1,0,0,,0,52,52,161,1,BLAPS,LB,old,z,./images/BLAPSLB.png,,,,,,,,,,,,,,,,,,,,,,,,,,,,,,,,,
,,,,,,,,,,,,,,,,,610505ad4f6be10b34394634,,2022-02-12_14h46.43.519,lexical_decision_task_DD_L5,2021.2.3,Linux armv8l,30.02822653,,,,,,,,,,1.3096,1,,,,,,,,,,,,,,,0,-0.391816917,-0.282593662,1,0,0,1.3096,button_left_main,-0.391816917,-0.282593662,1,0,0,,0,53,53,133,1,POWDY,HB,old,z,./images/POWDYHB.png,,,,,,,,,,,,,,,,,,,,,,,,,,,,,,,,,
,,,,,,,,,,,,,,,,,610505ad4f6be10b34394634,,2022-02-12_14h46.43.519,lexical_decision_task_DD_L5,2021.2.3,Linux armv8l,30.02822653,,,,,,,,,,0.8814,1,,,,,,,,,,,,,,,0,0.352982012,-0.297850229,1,0,0,0.8814,button_right_main,0.352982012,-0.297850229,1,0,0,,0,54,54,32,1,HOCKEY,C,old,m,./images/HOCKEY.png,,,,,,,,,,,,,,,,,,,,,,,,,,,,,,,,,
,,,,,,,,,,,,,,,,,610505ad4f6be10b34394634,,2022-02-12_14h46.43.519,lexical_decision_task_DD_L5,2021.2.3,Linux armv8l,30.02822653,,,,,,,,,,1.0333,0,,,,,,,,,,,,,,,0,-0.422330097,-0.315880933,1,0,0,1.0333,button_left_main,-0.422330097,-0.315880933,1,0,0,,0,55,55,3,1,CRATER,HB,old,m,./images/CRATERHB.png,,,,,,,,,,,,,,,,,,,,,,,,,,,,,,,,,
,,,,,,,,,,,,,,,,,610505ad4f6be10b34394634,,2022-02-12_14h46.43.519,lexical_decision_task_DD_L5,2021.2.3,Linux armv8l,30.02822653,,,,,,,,,,1.3102,1,,,,,,,,,,,,,,,0,0.400138707,-0.318654921,1,0,0,1.3102,button_right_main,0.400138707,-0.318654921,1,0,0,,0,56,56,5,1,BAMBOO,C,old,m,./images/BAMBOO.png,,,,,,,,,,,,,,,,,,,,,,,,,,,,,,,,,
,,,,,,,,,,,,,,,,,610505ad4f6be10b34394634,,2022-02-12_14h46.43.519,lexical_decision_task_DD_L5,2021.2.3,Linux armv8l,30.02822653,,,,,,,,,,0.9105,1,,,,,,,,,,,,,,,0,0.404299616,-0.286754719,1,0,0,0.9105,button_right_main,0.404299616,-0.286754719,1,0,0,,0,57,57,74,1,JUMPER,C,old,m,./images/JUMPER.png,,,,,,,,,,,,,,,,,,,,,,,,,,,,,,,,,
,,,,,,,,,,,,,,,,,610505ad4f6be10b34394634,,2022-02-12_14h46.43.519,lexical_decision_task_DD_L5,2021.2.3,Linux armv8l,30.02822653,,,,,,,,,,0.8105,1,,,,,,,,,,,,,,,0,0.380721231,-0.304785127,1,0,0,0.8105,button_right_main,0.380721231,-0.304785127,1,0,0,,0,58,58,59,1,BRUSH,C,old,m,./images/BRUSH.png,,,,,,,,,,,,,,,,,,,,,,,,,,,,,,,,,
,,,,,,,,,,,,,,,,,610505ad4f6be10b34394634,,2022-02-12_14h46.43.519,lexical_decision_task_DD_L5,2021.2.3,Linux armv8l,30.02822653,,,,,,,,,,1.0756,1,,,,,,,,,,,,,,,0,-0.330790566,-0.300624218,1,0,0,1.0756,button_left_main,-0.330790566,-0.300624218,1,0,0,,0,59,59,140,1,DOVET,LB,old,z,./images/DOVETLB.png,,,,,,,,,,,,,,,,,,,,,,,,,,,,,,,,,
,,,,,,,,,,,,,,,,,610505ad4f6be10b34394634,,2022-02-12_14h46.43.519,lexical_decision_task_DD_L5,2021.2.3,Linux armv8l,30.02822653,,,,,,,,,,1.0137,1,,,,,,,,,,,,,,,0,-0.28640773,-0.325365678,1,0,0,1.0137,button_left_main,-0.28640773,-0.325365678,1,0,0,,0,60,60,93,1,SMONE,C,old,z,./images/SMONE.png,,,,,,,,,,,,,,,,,,,,,,,,,,,,,,,,,
,,,,,,,,,,,,,,,,,610505ad4f6be10b34394634,,2022-02-12_14h46.43.519,lexical_decision_task_DD_L5,2021.2.3,Linux armv8l,30.02822653,,,,,,,,,,0.8771,1,,,,,,,,,,,,,,,0,0.409847445,-0.2923024,1,0,0,0.8771,button_right_main,0.409847445,-0.2923024,1,0,0,,0,61,61,4,1,BOXER,LB,old,m,./images/BOXERLB.png,,,,,,,,,,,,,,,,,,,,,,,,,,,,,,,,,
,,,,,,,,,,,,,,,,,610505ad4f6be10b34394634,,2022-02-12_14h46.43.519,lexical_decision_task_DD_L5,2021.2.3,Linux armv8l,30.02822653,,,,,,,,,,0.8588,1,,,,,,,,,,,,,,,0,0.40291277,-0.264563107,1,0,0,0.8588,button_right_main,0.40291277,-0.264563107,1,0,0,,0,62,62,64,1,BRIDE,LB,old,m,./images/BRIDELB.png,,,,,,,,,,,,,,,,,,,,,,,,,,,,,,,,,
,,,,,,,,,,,,,,,,,610505ad4f6be10b34394634,,2022-02-12_14h46.43.519,lexical_decision_task_DD_L5,2021.2.3,Linux armv8l,30.02822653,,,,,,,,,,2.0431,1,,,,,,,,,,,,,,,0,-0.387656017,-0.259015278,1,0,0,2.0431,button_left_main,-0.387656017,-0.259015278,1,0,0,,0,63,63,97,1,CHIDS,HB,old,z,./images/CHIDSHB.png,,,,,,,,,,,,,,,,,,,,,,,,,,,,,,,,,
,,,,,,,,,,,,,,,,,610505ad4f6be10b34394634,,2022-02-12_14h46.43.519,lexical_decision_task_DD_L5,2021.2.3,Linux armv8l,30.02822653,,,,,,,,,,0.8935,1,,,,,,,,,,,,,,,0,0.355755926,-0.300624218,1,0,0,0.8935,button_right_main,0.355755926,-0.300624218,1,0,0,,0,64,64,50,1,PILOT,C,old,m,./images/PILOT.png,,,,,,,,,,,,,,,,,,,,,,,,,,,,,,,,,
,,,,,,,,,,,,,,,,,610505ad4f6be10b34394634,,2022-02-12_14h46.43.519,lexical_decision_task_DD_L5,2021.2.3,Linux armv8l,30.02822653,,,,,,,,,,0.8988,1,,,,,,,,,,,,,,,0,0.401525701,-0.297850229,1,0,0,0.8988,button_right_main,0.401525701,-0.297850229,1,0,0,,0,65,65,62,1,MAMMAL,C,old,m,./images/MAMMAL.png,,,,,,,,,,,,,,,,,,,,,,,,,,,,,,,,,
,,,,,,,,,,,,,,,,,610505ad4f6be10b34394634,,2022-02-12_14h46.43.519,lexical_decision_task_DD_L5,2021.2.3,Linux armv8l,30.02822653,,,,,,,,,,1.1798,1,,,,,,,,,,,,,,,0,0.416782268,-0.2923024,1,0,0,1.1798,button_right_main,0.416782268,-0.2923024,1,0,0,,0,66,66,27,1,BUTTER,HB,old,m,./images/BUTTERHB.png,,,,,,,,,,,,,,,,,,,,,,,,,,,,,,,,,
,,,,,,,,,,,,,,,,,610505ad4f6be10b34394634,,2022-02-12_14h46.43.519,lexical_decision_task_DD_L5,2021.2.3,Linux armv8l,30.02822653,,,,,,,,,,1.1333,1,,,,,,,,,,,,,,,0,-0.379334255,-0.247919768,1,0,0,1.1333,button_left_main,-0.379334255,-0.247919768,1,0,0,,0,67,67,108,1,GRUET,C,old,z,./images/GRUET.png,,,,,,,,,,,,,,,,,,,,,,,,,,,,,,,,,
,,,,,,,,,,,,,,,,,610505ad4f6be10b34394634,,2022-02-12_14h46.43.519,lexical_decision_task_DD_L5,2021.2.3,Linux armv8l,30.02822653,,,,,,,,,,1.2104,1,,,,,,,,,,,,,,,0,-0.354368914,-0.318654921,1,0,0,1.2104,button_left_main,-0.354368914,-0.318654921,1,0,0,,0,68,68,102,1,DULLE,C,old,z,./images/DULLE.png,,,,,,,,,,,,,,,,,,,,,,,,,,,,,,,,,
,,,,,,,,,,,,,,,,,610505ad4f6be10b34394634,,2022-02-12_14h46.43.519,lexical_decision_task_DD_L5,2021.2.3,Linux armv8l,30.02822653,,,,,,,,,,0.8435,1,,,,,,,,,,,,,,,0,0.415395422,-0.289528708,1,0,0,0.8435,button_right_main,0.415395422,-0.289528708,1,0,0,,0,69,69,46,1,MUMMY,LB,old,m,./images/MUMMYLB.png,,,,,,,,,,,,,,,,,,,,,,,,,,,,,,,,,
,,,,,,,,,,,,,,,,,610505ad4f6be10b34394634,,2022-02-12_14h46.43.519,lexical_decision_task_DD_L5,2021.2.3,Linux armv8l,30.02822653,,,,,,,,,,0.8115,1,,,,,,,,,,,,,,,0,0.415395422,-0.265950175,1,0,0,0.8115,button_right_main,0.415395422,-0.265950175,1,0,0,,0,70,70,13,1,BUNNY,LB,old,m,./images/BUNNYLB.png,,,,,,,,,,,,,,,,,,,,,,,,,,,,,,,,,
,,,,,,,,,,,,,,,,,610505ad4f6be10b34394634,,2022-02-12_14h46.43.519,lexical_decision_task_DD_L5,2021.2.3,Linux armv8l,30.02822653,,,,,,,,,,1.4613,1,,,,,,,,,,,,,,,0,-0.433425788,-0.310332956,1,0,0,1.4613,button_left_main,-0.433425788,-0.310332956,1,0,0,,0,71,71,88,1,GLUSH,HB,old,z,./images/GLUSHHB.png,,,,,,,,,,,,,,,,,,,,,,,,,,,,,,,,,
,,,,,,,,,,,,,,,,,610505ad4f6be10b34394634,,2022-02-12_14h46.43.519,lexical_decision_task_DD_L5,2021.2.3,Linux armv8l,30.02822653,,,,,,,,,,0.9116,1,,,,,,,,,,,,,,,0,0.400138707,-0.286754719,1,0,0,0.9116,button_right_main,0.400138707,-0.286754719,1,0,0,,0,72,72,20,1,GRANNY,C,old,m,./images/GRANNY.png,,,,,,,,,,,,,,,,,,,,,,,,,,,,,,,,,
,,,,,,,,,,,,,,,,,610505ad4f6be10b34394634,,2022-02-12_14h46.43.519,lexical_decision_task_DD_L5,2021.2.3,Linux armv8l,30.02822653,,,,,,,,,,1.3116,1,,,,,,,,,,,,,,,0,-0.393203865,-0.308946184,1,0,0,1.3116,button_left_main,-0.393203865,-0.308946184,1,0,0,,0,73,73,162,1,LEICH,C,old,z,./images/LEICH.png,,,,,,,,,,,,,,,,,,,,,,,,,,,,,,,,,
,,,,,,,,,,,,,,,,,610505ad4f6be10b34394634,,2022-02-12_14h46.43.519,lexical_decision_task_DD_L5,2021.2.3,Linux armv8l,30.02822653,,,,,,,,,,0.9443,1,,,,,,,,,,,,,,,0,0.397364792,-0.270111232,1,0,0,0.9443,button_right_main,0.397364792,-0.270111232,1,0,0,,0,74,74,0,1,WALNUT,HB,old,m,./images/WALNUTHB.png,,,,,,,,,,,,,,,,,,,,,,,,,,,,,,,,,
,,,,,,,,,,,,,,,,,610505ad4f6be10b34394634,,2022-02-12_14h46.43.519,lexical_decision_task_DD_L5,2021.2.3,Linux armv8l,30.02822653,,,,,,,,,,1.0328,1,,,,,,,,,,,,,,,0,-0.347434099,-0.275658913,1,0,0,1.0328,button_left_main,-0.347434099,-0.275658913,1,0,0,,0,75,75,122,1,BLOOT,LB,old,z,./images/BLOOTLB.png,,,,,,,,,,,,,,,,,,,,,,,,,,,,,,,,,
,,,,,,,,,,,,,,,,,610505ad4f6be10b34394634,,2022-02-12_14h46.43.519,lexical_decision_task_DD_L5,2021.2.3,Linux armv8l,30.02822653,,,,,,,,,,1.3581,1,,,,,,,,,,,,,,,0,0.379334385,-0.282593662,1,0,0,1.3581,button_right_main,0.379334385,-0.282593662,1,0,0,,0,76,76,75,1,HAMMER,HB,old,m,./images/HAMMERHB.png,,,,,,,,,,,,,,,,,,,,,,,,,,,,,,,,,
,,,,,,,,,,,,,,,,,610505ad4f6be10b34394634,,2022-02-12_14h46.43.519,lexical_decision_task_DD_L5,2021.2.3,Linux armv8l,30.02822653,,,,,,,,,,0.9939,1,,,,,,,,,,,,,,,0,-0.393203865,-0.307558967,1,0,0,0.9939,button_left_main,-0.393203865,-0.307558967,1,0,0,,0,77,77,155,1,CANGY,LB,old,z,./images/CANGYLB.png,,,,,,,,,,,,,,,,,,,,,,,,,,,,,,,,,
,,,,,,,,,,,,,,,,,610505ad4f6be10b34394634,,2022-02-12_14h46.43.519,lexical_decision_task_DD_L5,2021.2.3,Linux armv8l,30.02822653,,,,,,,,,,1.1922,1,,,,,,,,,,,,,,,0,0.379334385,-0.304785127,1,0,0,1.1922,button_right_main,0.379334385,-0.304785127,1,0,0,,0,78,78,57,1,FERRY,HB,old,m,./images/FERRYHB.png,,,,,,,,,,,,,,,,,,,,,,,,,,,,,,,,,
,,,,,,,,,,,,,,,,,610505ad4f6be10b34394634,,2022-02-12_14h46.43.519,lexical_decision_task_DD_L5,2021.2.3,Linux armv8l,30.02822653,,,,,,,,,,0.9312,1,,,,,,,,,,,,,,,0,-0.372399441,-0.310332956,1,0,0,0.9312,button_left_main,-0.372399441,-0.310332956,1,0,0,,0,79,79,134,1,TROSS,LB,old,z,./images/TROSSLB.png,,,,,,,,,,,,,,,,,,,,,,,,,,,,,,,,,
,,,,,,,,,,,,,,,,,610505ad4f6be10b34394634,,2022-02-12_14h46.43.519,lexical_decision_task_DD_L5,2021.2.3,Linux armv8l,30.02822653,,,,,,,,,,0.7632,1,,,,,,,,,,,,,,,0,0.422330245,-0.275658913,1,0,0,0.7632,button_right_main,0.422330245,-0.275658913,1,0,0,,0,80,80,67,1,POKER,LB,old,m,./images/POKERLB.png,,,,,,,,,,,,,,,,,,,,,,,,,,,,,,,,,
,,,,,,,,,,,,,,,,,610505ad4f6be10b34394634,,2022-02-12_14h46.43.519,lexical_decision_task_DD_L5,2021.2.3,Linux armv8l,30.02822653,,,,,,,,,,1.0606,1,,,,,,,,,,,,,,,0,0.358529841,-0.324202602,1,0,0,1.0606,button_right_main,0.358529841,-0.324202602,1,0,0,,0,81,81,42,1,CHAIN,HB,old,m,./images/CHAINHB.png,,,,,,,,,,,,,,,,,,,,,,,,,,,,,,,,,
,,,,,,,,,,,,,,,,,610505ad4f6be10b34394634,,2022-02-12_14h46.43.519,lexical_decision_task_DD_L5,2021.2.3,Linux armv8l,30.02822653,,,,,,,,,,0.9087,1,,,,,,,,,,,,,,,0,-0.397364755,-0.303398058,1,0,0,0.9087,button_left_main,-0.397364755,-0.303398058,1,0,0,,0,82,82,158,1,EGECT,LB,old,z,./images/EGECTLB.png,,,,,,,,,,,,,,,,,,,,,,,,,,,,,,,,,
,,,,,,,,,,,,,,,,,610505ad4f6be10b34394634,,2022-02-12_14h46.43.519,lexical_decision_task_DD_L5,2021.2.3,Linux armv8l,30.02822653,,,,,,,,,,0.8299,1,,,,,,,,,,,,,,,0,0.395977946,-0.2923024,1,0,0,0.8299,button_right_main,-0.011789118,-0.401872653,1,0,0,,0,83,83,10,1,GARDEN,LB,old,m,./images/GARDENLB.png,break_done_button,,,,,,,,,,,,,,,,,,,,,,,,,,,,,,,,
,,,,,,,,,,,,,,,,,610505ad4f6be10b34394634,,2022-02-12_14h46.43.519,lexical_decision_task_DD_L5,2021.2.3,Linux armv8l,30.02822653,,,,,,,,,,0.8757,1,,,,,,,,,,,,,,,0,0.393204032,-0.29368932,1,0,0,0.8757,button_right_main,0.393204032,-0.29368932,1,0,0,,0,84,84,38,1,ENGINE,C,old,m,./images/ENGINE.png,,,,,,,,,,,,,,,,,,,,,,,,,,,,,,,,,
,,,,,,,,,,,,,,,,,610505ad4f6be10b34394634,,2022-02-12_14h46.43.519,lexical_decision_task_DD_L5,2021.2.3,Linux armv8l,30.02822653,,,,,,,,,,1.5288,1,,,,,,,,,,,,,,,0,-0.422330097,-0.33391134,1,0,0,1.5288,button_left_main,-0.422330097,-0.33391134,1,0,0,,0,85,85,154,1,THINT,HB,old,z,./images/THINTHB.png,,,,,,,,,,,,,,,,,,,,,,,,,,,,,,,,,
,,,,,,,,,,,,,,,,,610505ad4f6be10b34394634,,2022-02-12_14h46.43.519,lexical_decision_task_DD_L5,2021.2.3,Linux armv8l,30.02822653,,,,,,,,,,0.9105,1,,,,,,,,,,,,,,,0,0.408460599,-0.285367651,1,0,0,0.9105,button_right_main,0.408460599,-0.285367651,1,0,0,,0,86,86,80,1,PLANET,C,old,m,./images/PLANET.png,,,,,,,,,,,,,,,,,,,,,,,,,,,,,,,,,
,,,,,,,,,,,,,,,,,610505ad4f6be10b34394634,,2022-02-12_14h46.43.519,lexical_decision_task_DD_L5,2021.2.3,Linux armv8l,30.02822653,,,,,,,,,,0.9774,1,,,,,,,,,,,,,,,0,-0.407073493,-0.270111232,1,0,0,0.9774,button_left_main,-0.407073493,-0.270111232,1,0,0,,0,87,87,87,1,TRING,C,old,z,./images/TRING.png,,,,,,,,,,,,,,,,,,,,,,,,,,,,,,,,,
,,,,,,,,,,,,,,,,,610505ad4f6be10b34394634,,2022-02-12_14h46.43.519,lexical_decision_task_DD_L5,2021.2.3,Linux armv8l,30.02822653,,,,,,,,,,1.2151,1,,,,,,,,,,,,,,,0,-0.37794728,-0.296463457,1,0,0,1.2151,button_left_main,-0.37794728,-0.296463457,1,0,0,,0,88,88,127,1,NINDY,HB,old,z,./images/NINDYHB.png,,,,,,,,,,,,,,,,,,,,,,,,,,,,,,,,,
,,,,,,,,,,,,,,,,,610505ad4f6be10b34394634,,2022-02-12_14h46.43.519,lexical_decision_task_DD_L5,2021.2.3,Linux armv8l,30.02822653,,,,,,,,,,1.8331,1,,,,,,,,,,,,,,,0,0.366851733,-0.314493864,1,0,0,1.8331,button_right_main,0.366851733,-0.314493864,1,0,0,,0,89,89,45,1,MONKEY,HB,old,m,./images/MONKEYHB.png,,,,,,,,,,,,,,,,,,,,,,,,,,,,,,,,,
,,,,,,,,,,,,,,,,,610505ad4f6be10b34394634,,2022-02-12_14h46.43.519,lexical_decision_task_DD_L5,2021.2.3,Linux armv8l,30.02822653,,,,,,,,,,1.2959,1,,,,,,,,,,,,,,,0,-0.362690703,-0.297850229,1,0,0,1.2959,button_left_main,-0.362690703,-0.297850229,1,0,0,,0,90,90,105,1,MOKER,C,old,z,./images/MOKER.png,,,,,,,,,,,,,,,,,,,,,,,,,,,,,,,,,
,,,,,,,,,,,,,,,,,610505ad4f6be10b34394634,,2022-02-12_14h46.43.519,lexical_decision_task_DD_L5,2021.2.3,Linux armv8l,30.02822653,,,,,,,,,,1.0767,1,,,,,,,,,,,,,,,0,-0.346047151,-0.315880933,1,0,0,1.0767,button_left_main,-0.346047151,-0.315880933,1,0,0,,0,91,91,113,1,LINEW,LB,old,z,./images/LINEWLB.png,,,,,,,,,,,,,,,,,,,,,,,,,,,,,,,,,
,,,,,,,,,,,,,,,,,610505ad4f6be10b34394634,,2022-02-12_14h46.43.519,lexical_decision_task_DD_L5,2021.2.3,Linux armv8l,30.02822653,,,,,,,,,,0.8447,1,,,,,,,,,,,,,,,0,0.412621507,-0.325589671,1,0,0,0.8447,button_right_main,0.412621507,-0.325589671,1,0,0,,0,92,92,34,1,RAZOR,LB,old,m,./images/RAZORLB.png,,,,,,,,,,,,,,,,,,,,,,,,,,,,,,,,,
,,,,,,,,,,,,,,,,,610505ad4f6be10b34394634,,2022-02-12_14h46.43.519,lexical_decision_task_DD_L5,2021.2.3,Linux armv8l,30.02822653,,,,,,,,,,1.1658,1,,,,,,,,,,,,,,,0,-0.407073493,-0.286754719,1,0,0,1.1658,button_left_main,-0.407073493,-0.286754719,1,0,0,,0,93,93,164,1,SGREW,LB,old,z,./images/SGREWLB.png,,,,,,,,,,,,,,,,,,,,,,,,,,,,,,,,,
,,,,,,,,,,,,,,,,,610505ad4f6be10b34394634,,2022-02-12_14h46.43.519,lexical_decision_task_DD_L5,2021.2.3,Linux armv8l,30.02822653,,,,,,,,,,1.0838,1,,,,,,,,,,,,,,,0,-0.391816917,-0.29368932,1,0,0,1.0838,button_left_main,-0.391816917,-0.29368932,1,0,0,,0,94,94,90,1,NEAST,C,old,z,./images/NEAST.png,,,,,,,,,,,,,,,,,,,,,,,,,,,,,,,,,
,,,,,,,,,,,,,,,,,610505ad4f6be10b34394634,,2022-02-12_14h46.43.519,lexical_decision_task_DD_L5,2021.2.3,Linux armv8l,30.02822653,,,,,,,,,,1.313,1,,,,,,,,,,,,,,,0,0.40291277,-0.297850229,1,0,0,1.313,button_right_main,0.40291277,-0.297850229,1,0,0,,0,95,95,21,1,DANCER,HB,old,m,./images/DANCERHB.png,,,,,,,,,,,,,,,,,,,,,,,,,,,,,,,,,
,,,,,,,,,,,,,,,,,610505ad4f6be10b34394634,,2022-02-12_14h46.43.519,lexical_decision_task_DD_L5,2021.2.3,Linux armv8l,30.02822653,,,,,,,,,,0.933,1,,,,,,,,,,,,,,,0,0.411234439,-0.265950175,1,0,0,0.933,button_right_main,0.411234439,-0.265950175,1,0,0,,0,96,96,56,1,HEATER,C,old,m,./images/HEATER.png,,,,,,,,,,,,,,,,,,,,,,,,,,,,,,,,,
,,,,,,,,,,,,,,,,,610505ad4f6be10b34394634,,2022-02-12_14h46.43.519,lexical_decision_task_DD_L5,2021.2.3,Linux armv8l,30.02822653,,,,,,,,,,0.9261,1,,,,,,,,,,,,,,,0,0.368238579,-0.299237446,1,0,0,0.9261,button_right_main,0.368238579,-0.299237446,1,0,0,,0,97,97,1,1,TOWEL,LB,old,m,./images/TOWELLB.png,,,,,,,,,,,,,,,,,,,,,,,,,,,,,,,,,
,,,,,,,,,,,,,,,,,610505ad4f6be10b34394634,,2022-02-12_14h46.43.519,lexical_decision_task_DD_L5,2021.2.3,Linux armv8l,30.02822653,,,,,,,,,,1.5435,1,,,,,,,,,,,,,,,0,-0.390429941,-0.310332956,1,0,0,1.5435,button_left_main,-0.390429941,-0.310332956,1,0,0,,0,98,98,106,1,CLUMS,HB,old,z,./images/CLUMSHB.png,,,,,,,,,,,,,,,,,,,,,,,,,,,,,,,,,
,,,,,,,,,,,,,,,,,610505ad4f6be10b34394634,,2022-02-12_14h46.43.519,lexical_decision_task_DD_L5,2021.2.3,Linux armv8l,30.02822653,,,,,,,,,,1.1938,1,,,,,,,,,,,,,,,0,-0.384882103,-0.271498004,1,0,0,1.1938,button_left_main,-0.384882103,-0.271498004,1,0,0,,0,99,99,84,1,HAXES,C,old,z,./images/HAXES.png,,,,,,,,,,,,,,,,,,,,,,,,,,,,,,,,,
,,,,,,,,,,,,,,,,,610505ad4f6be10b34394634,,2022-02-12_14h46.43.519,lexical_decision_task_DD_L5,2021.2.3,Linux armv8l,30.02822653,,,,,,,,,,0.8273,1,,,,,,,,,,,,,,,0,0.37656047,-0.296463457,1,0,0,0.8273,button_right_main,0.37656047,-0.296463457,1,0,0,,0,100,100,31,1,STEAK,LB,old,m,./images/STEAKLB.png,,,,,,,,,,,,,,,,,,,,,,,,,,,,,,,,,
,,,,,,,,,,,,,,,,,610505ad4f6be10b34394634,,2022-02-12_14h46.43.519,lexical_decision_task_DD_L5,2021.2.3,Linux armv8l,30.02822653,,,,,,,,,,0.861,1,,,,,,,,,,,,,,,0,0.401525701,-0.351941748,1,0,0,0.861,button_right_main,0.401525701,-0.351941748,1,0,0,,0,101,101,37,1,TIGER,LB,old,m,./images/TIGERLB.png,,,,,,,,,,,,,,,,,,,,,,,,,,,,,,,,,
,,,,,,,,,,,,,,,,,610505ad4f6be10b34394634,,2022-02-12_14h46.43.519,lexical_decision_task_DD_L5,2021.2.3,Linux armv8l,30.02822653,,,,,,,,,,1.3613,1,,,,,,,,,,,,,,,0,-0.379334255,-0.297850229,1,0,0,1.3613,button_left_main,-0.379334255,-0.297850229,1,0,0,,0,102,102,163,1,GAMBA,HB,old,z,./images/GAMBAHB.png,,,,,,,,,,,,,,,,,,,,,,,,,,,,,,,,,
,,,,,,,,,,,,,,,,,610505ad4f6be10b34394634,,2022-02-12_14h46.43.519,lexical_decision_task_DD_L5,2021.2.3,Linux armv8l,30.02822653,,,,,,,,,,0.9931,1,,,,,,,,,,,,,,,0,0.451456459,-0.232663053,1,0,0,0.9931,button_right_main,0.451456459,-0.232663053,1,0,0,,0,103,103,72,1,FLASK,HB,old,m,./images/FLASKHB.png,,,,,,,,,,,,,,,,,,,,,,,,,,,,,,,,,
,,,,,,,,,,,,,,,,,610505ad4f6be10b34394634,,2022-02-12_14h46.43.519,lexical_decision_task_DD_L5,2021.2.3,Linux armv8l,30.02822653,,,,,,,,,,1.499,1,,,,,,,,,,,,,,,0,-0.427877945,-0.2923024,1,0,0,1.499,button_left_main,-0.427877945,-0.2923024,1,0,0,,0,104,104,118,1,BAVEL,HB,old,z,./images/BAVELHB.png,,,,,,,,,,,,,,,,,,,,,,,,,,,,,,,,,
,,,,,,,,,,,,,,,,,610505ad4f6be10b34394634,,2022-02-12_14h46.43.519,lexical_decision_task_DD_L5,2021.2.3,Linux armv8l,30.02822653,,,,,,,,,,0.9148,1,,,,,,,,,,,,,,,0,-0.30305131,-0.286754719,1,0,0,0.9148,button_left_main,-0.30305131,-0.286754719,1,0,0,,0,105,105,131,1,NACES,LB,old,z,./images/NACESLB.png,,,,,,,,,,,,,,,,,,,,,,,,,,,,,,,,,
,,,,,,,,,,,,,,,,,610505ad4f6be10b34394634,,2022-02-12_14h46.43.519,lexical_decision_task_DD_L5,2021.2.3,Linux armv8l,30.02822653,,,,,,,,,,0.7623,1,,,,,,,,,,,,,,,0,0.373786556,-0.275658913,1,0,0,0.7623,button_right_main,0.373786556,-0.275658913,1,0,0,,0,106,106,82,1,PEBBLE,LB,old,m,./images/PEBBLELB.png,,,,,,,,,,,,,,,,,,,,,,,,,,,,,,,,,
,,,,,,,,,,,,,,,,,610505ad4f6be10b34394634,,2022-02-12_14h46.43.519,lexical_decision_task_DD_L5,2021.2.3,Linux armv8l,30.02822653,,,,,,,,,,0.8763,1,,,,,,,,,,,,,,,0,-0.376560332,-0.307558967,1,0,0,0.8763,button_left_main,-0.376560332,-0.307558967,1,0,0,,0,107,107,144,1,NAIRY,C,old,z,./images/NAIRY.png,,,,,,,,,,,,,,,,,,,,,,,,,,,,,,,,,
,,,,,,,,,,,,,,,,,610505ad4f6be10b34394634,,2022-02-12_14h46.43.519,lexical_decision_task_DD_L5,2021.2.3,Linux armv8l,30.02822653,,,,,,,,,,1.1775,1,,,,,,,,,,,,,,,0,-0.402912621,-0.307558967,1,0,0,1.1775,button_left_main,-0.402912621,-0.307558967,1,0,0,,0,108,108,139,1,BLEAR,HB,old,z,./images/BLEARHB.png,,,,,,,,,,,,,,,,,,,,,,,,,,,,,,,,,
,,,,,,,,,,,,,,,,,610505ad4f6be10b34394634,,2022-02-12_14h46.43.519,lexical_decision_task_DD_L5,2021.2.3,Linux armv8l,30.02822653,,,,,,,,,,0.9431,1,,,,,,,,,,,,,,,0,0.373786556,-0.265950175,1,0,0,0.9431,button_right_main,0.373786556,-0.265950175,1,0,0,,0,109,109,68,1,VALLEY,C,old,m,./images/VALLEY.png,,,,,,,,,,,,,,,,,,,,,,,,,,,,,,,,,
,,,,,,,,,,,,,,,,,610505ad4f6be10b34394634,,2022-02-12_14h46.43.519,lexical_decision_task_DD_L5,2021.2.3,Linux armv8l,30.02822653,,,,,,,,,,0.7788,1,,,,,,,,,,,,,,,0,-0.426490983,-0.311719876,1,0,0,0.7788,button_left_main,-0.426490983,-0.311719876,1,0,0,,0,110,110,116,1,BALGY,LB,old,z,./images/BALGYLB.png,,,,,,,,,,,,,,,,,,,,,,,,,,,,,,,,,
,,,,,,,,,,,,,,,,,610505ad4f6be10b34394634,,2022-02-12_14h46.43.519,lexical_decision_task_DD_L5,2021.2.3,Linux armv8l,30.02822653,,,,,,,,,,1.0269,1,,,,,,,,,,,,,,,0,0.380721231,-0.308946184,1,0,0,1.0269,button_right_main,0.380721231,-0.308946184,1,0,0,,0,111,111,51,1,SAUCE,HB,old,m,./images/SAUCEHB.png,,,,,,,,,,,,,,,,,,,,,,,,,,,,,,,,,
,,,,,,,,,,,,,,,,,610505ad4f6be10b34394634,,2022-02-12_14h46.43.519,lexical_decision_task_DD_L5,2021.2.3,Linux armv8l,30.02822653,,,,,,,,,,1.008,1,,,,,,,,,,,,,,,0,-0.383495127,-0.282593662,1,0,0,1.008,button_left_main,-0.383495127,-0.282593662,1,0,0,,0,112,112,101,1,GLEET,LB,old,z,./images/GLEETLB.png,,,,,,,,,,,,,,,,,,,,,,,,,,,,,,,,,
,,,,,,,,,,,,,,,,,610505ad4f6be10b34394634,,2022-02-12_14h46.43.519,lexical_decision_task_DD_L5,2021.2.3,Linux armv8l,30.02822653,,,,,,,,,,1.0614,1,,,,,,,,,,,,,,,0,-0.383495127,-0.300624218,1,0,0,1.0614,button_left_main,-0.383495127,-0.300624218,1,0,0,,0,113,113,117,1,STEEG,C,old,z,./images/STEEG.png,,,,,,,,,,,,,,,,,,,,,,,,,,,,,,,,,
,,,,,,,,,,,,,,,,,610505ad4f6be10b34394634,,2022-02-12_14h46.43.519,lexical_decision_task_DD_L5,2021.2.3,Linux armv8l,30.02822653,,,,,,,,,,0.911,1,,,,,,,,,,,,,,,0,0.36269075,-0.315880933,1,0,0,0.911,button_right_main,0.36269075,-0.315880933,1,0,0,,0,114,114,76,1,MIDGET,LB,old,m,./images/MIDGETLB.png,,,,,,,,,,,,,,,,,,,,,,,,,,,,,,,,,
,,,,,,,,,,,,,,,,,610505ad4f6be10b34394634,,2022-02-12_14h46.43.519,lexical_decision_task_DD_L5,2021.2.3,Linux armv8l,30.02822653,,,,,,,,,,0.7937,1,,,,,,,,,,,,,,,0,0.329403627,-0.306172195,1,0,0,0.7937,button_right_main,0.329403627,-0.306172195,1,0,0,,0,115,115,40,1,SNAKE,LB,old,m,./images/SNAKELB.png,,,,,,,,,,,,,,,,,,,,,,,,,,,,,,,,,
,,,,,,,,,,,,,,,,,610505ad4f6be10b34394634,,2022-02-12_14h46.43.519,lexical_decision_task_DD_L5,2021.2.3,Linux armv8l,30.02822653,,,,,,,,,,0.9439,1,,,,,,,,,,,,,,,0,-0.43897364,-0.332524272,1,0,0,0.9439,button_left_main,-0.43897364,-0.332524272,1,0,0,,0,116,116,89,1,DRIEK,LB,old,z,./images/DRIEKLB.png,,,,,,,,,,,,,,,,,,,,,,,,,,,,,,,,,
,,,,,,,,,,,,,,,,,610505ad4f6be10b34394634,,2022-02-12_14h46.43.519,lexical_decision_task_DD_L5,2021.2.3,Linux armv8l,30.02822653,,,,,,,,,,0.8602,1,,,,,,,,,,,,,,,0,-0.379334255,-0.296463457,1,0,0,0.8602,button_left_main,-0.379334255,-0.296463457,1,0,0,,0,117,117,86,1,AIFED,LB,old,z,./images/AIFEDLB.png,,,,,,,,,,,,,,,,,,,,,,,,,,,,,,,,,
,,,,,,,,,,,,,,,,,610505ad4f6be10b34394634,,2022-02-12_14h46.43.519,lexical_decision_task_DD_L5,2021.2.3,Linux armv8l,30.02822653,,,,,,,,,,1.0797,1,,,,,,,,,,,,,,,0,-0.383495127,-0.308946184,1,0,0,1.0797,button_left_main,-0.383495127,-0.308946184,1,0,0,,0,118,118,92,1,PAIMS,LB,old,z,./images/PAIMSLB.png,,,,,,,,,,,,,,,,,,,,,,,,,,,,,,,,,
,,,,,,,,,,,,,,,,,610505ad4f6be10b34394634,,2022-02-12_14h46.43.519,lexical_decision_task_DD_L5,2021.2.3,Linux armv8l,30.02822653,,,,,,,,,,1.5244,1,,,,,,,,,,,,,,,0,0.37656047,-0.29368932,1,0,0,1.5244,button_right_main,0.37656047,-0.29368932,1,0,0,,0,119,119,65,1,SPINE,C,old,m,./images/SPINE.png,,,,,,,,,,,,,,,,,,,,,,,,,,,,,,,,,
,,,,,,,,,,,,,,,,,610505ad4f6be10b34394634,,2022-02-12_14h46.43.519,lexical_decision_task_DD_L5,2021.2.3,Linux armv8l,30.02822653,,,,,,,,,,1.0086,1,,,,,,,,,,,,,,,0,0.382108225,-0.310332956,1,0,0,1.0086,button_right_main,0.382108225,-0.310332956,1,0,0,,0,120,120,39,1,CANDY,HB,old,m,./images/CANDYHB.png,,,,,,,,,,,,,,,,,,,,,,,,,,,,,,,,,
,,,,,,,,,,,,,,,,,610505ad4f6be10b34394634,,2022-02-12_14h46.43.519,lexical_decision_task_DD_L5,2021.2.3,Linux armv8l,30.02822653,,,,,,,,,,1.0906,0,,,,,,,,,,,,,,,0,0.35436908,-0.304785127,1,0,0,1.0906,button_right_main,0.35436908,-0.304785127,1,0,0,,0,121,121,128,1,GRIFT,LB,old,z,./images/GRIFTLB.png,,,,,,,,,,,,,,,,,,,,,,,,,,,,,,,,,
,,,,,,,,,,,,,,,,,610505ad4f6be10b34394634,,2022-02-12_14h46.43.519,lexical_decision_task_DD_L5,2021.2.3,Linux armv8l,30.02822653,,,,,,,,,,1.073,1,,,,,,,,,,,,,,,0,-0.443134535,-0.281206742,1,0,0,1.073,button_left_main,-0.443134535,-0.281206742,1,0,0,,0,122,122,165,1,TROWN,C,old,z,./images/TROWN.png,,,,,,,,,,,,,,,,,,,,,,,,,,,,,,,,,
,,,,,,,,,,,,,,,,,610505ad4f6be10b34394634,,2022-02-12_14h46.43.519,lexical_decision_task_DD_L5,2021.2.3,Linux armv8l,30.02822653,,,,,,,,,,0.8113,1,,,,,,,,,,,,,,,0,0.351595018,-0.297850229,1,0,0,0.8113,button_right_main,0.351595018,-0.297850229,1,0,0,,0,123,123,61,1,ARTIST,LB,old,m,./images/ARTISTLB.png,,,,,,,,,,,,,,,,,,,,,,,,,,,,,,,,,
,,,,,,,,,,,,,,,,,610505ad4f6be10b34394634,,2022-02-12_14h46.43.519,lexical_decision_task_DD_L5,2021.2.3,Linux armv8l,30.02822653,,,,,,,,,,0.7984,1,,,,,,,,,,,,,,,0,0.422330245,-0.282593662,1,0,0,0.7984,button_right_main,0.422330245,-0.282593662,1,0,0,,0,124,124,70,1,BANANA,LB,old,m,./images/BANANALB.png,,,,,,,,,,,,,,,,,,,,,,,,,,,,,,,,,
,,,,,,,,,,,,,,,,,610505ad4f6be10b34394634,,2022-02-12_14h46.43.519,lexical_decision_task_DD_L5,2021.2.3,Linux armv8l,30.02822653,,,,,,,,,,1.2942,1,,,,,,,,,,,,,,,0,-0.397364755,-0.315880933,1,0,0,1.2942,button_left_main,0.089459095,-0.382455178,1,0,0,,0,125,125,100,1,DRIBS,HB,old,z,./images/DRIBSHB.png,break_done_button,,,,,,,,,,,,,,,,,,,,,,,,,,,,,,,,
,,,,,,,,,,,,,,,,,610505ad4f6be10b34394634,,2022-02-12_14h46.43.519,lexical_decision_task_DD_L5,2021.2.3,Linux armv8l,30.02822653,,,,,,,,,,1.0262,1,,,,,,,,,,,,,,,0,-0.373786389,-0.285367651,1,0,0,1.0262,button_left_main,-0.373786389,-0.285367651,1,0,0,,0,126,126,107,1,FASKS,LB,old,z,./images/FASKSLB.png,,,,,,,,,,,,,,,,,,,,,,,,,,,,,,,,,
,,,,,,,,,,,,,,,,,610505ad4f6be10b34394634,,2022-02-12_14h46.43.519,lexical_decision_task_DD_L5,2021.2.3,Linux armv8l,30.02822653,,,,,,,,,,1.0427,1,,,,,,,,,,,,,,,0,-0.412621359,-0.304785127,1,0,0,1.0427,button_left_main,-0.412621359,-0.304785127,1,0,0,,0,127,127,110,1,CRUNK,LB,old,z,./images/CRUNKLB.png,,,,,,,,,,,,,,,,,,,,,,,,,,,,,,,,,
,,,,,,,,,,,,,,,,,610505ad4f6be10b34394634,,2022-02-12_14h46.43.519,lexical_decision_task_DD_L5,2021.2.3,Linux armv8l,30.02822653,,,,,,,,,,0.7654,1,,,,,,,,,,,,,,,0,0.366851733,-0.286754719,1,0,0,0.7654,button_right_main,0.366851733,-0.286754719,1,0,0,,0,128,128,28,1,CASINO,LB,old,m,./images/CASINOLB.png,,,,,,,,,,,,,,,,,,,,,,,,,,,,,,,,,
,,,,,,,,,,,,,,,,,610505ad4f6be10b34394634,,2022-02-12_14h46.43.519,lexical_decision_task_DD_L5,2021.2.3,Linux armv8l,30.02822653,,,,,,,,,,0.9011,1,,,,,,,,,,,,,,,0,-0.387656017,-0.310332956,1,0,0,0.9011,button_left_main,-0.387656017,-0.310332956,1,0,0,,0,129,129,137,1,JOOST,LB,old,z,./images/JOOSTLB.png,,,,,,,,,,,,,,,,,,,,,,,,,,,,,,,,,
,,,,,,,,,,,,,,,,,610505ad4f6be10b34394634,,2022-02-12_14h46.43.519,lexical_decision_task_DD_L5,2021.2.3,Linux armv8l,30.02822653,,,,,,,,,,0.8297,1,,,,,,,,,,,,,,,0,0.379334385,-0.282593662,1,0,0,0.8297,button_right_main,0.379334385,-0.282593662,1,0,0,,0,130,130,55,1,ALLEY,LB,old,m,./images/ALLEYLB.png,,,,,,,,,,,,,,,,,,,,,,,,,,,,,,,,,
,,,,,,,,,,,,,,,,,610505ad4f6be10b34394634,,2022-02-12_14h46.43.519,lexical_decision_task_DD_L5,2021.2.3,Linux armv8l,30.02822653,,,,,,,,,,1.3816,1,,,,,,,,,,,,,,,0,0.343273274,-0.2923024,1,0,0,1.3816,button_right_main,0.343273274,-0.2923024,1,0,0,,0,131,131,30,1,SLOPE,HB,old,m,./images/SLOPEHB.png,,,,,,,,,,,,,,,,,,,,,,,,,,,,,,,,,
,,,,,,,,,,,,,,,,,610505ad4f6be10b34394634,,2022-02-12_14h46.43.519,lexical_decision_task_DD_L5,2021.2.3,Linux armv8l,30.02822653,,,,,,,,,,0.9312,1,,,,,,,,,,,,,,,0,0.364077818,-0.300624218,1,0,0,0.9312,button_right_main,0.364077818,-0.300624218,1,0,0,,0,132,132,83,1,WHISKY,C,old,m,./images/WHISKY.png,,,,,,,,,,,,,,,,,,,,,,,,,,,,,,,,,
,,,,,,,,,,,,,,,,,610505ad4f6be10b34394634,,2022-02-12_14h46.43.519,lexical_decision_task_DD_L5,2021.2.3,Linux armv8l,30.02822653,,,,,,,,,,0.8169,1,,,,,,,,,,,,,,,0,0.344660342,-0.271498004,1,0,0,0.8169,button_right_main,0.344660342,-0.271498004,1,0,0,,0,133,133,14,1,FENCE,C,old,m,./images/FENCE.png,,,,,,,,,,,,,,,,,,,,,,,,,,,,,,,,,
,,,,,,,,,,,,,,,,,610505ad4f6be10b34394634,,2022-02-12_14h46.43.519,lexical_decision_task_DD_L5,2021.2.3,Linux armv8l,30.02822653,,,,,,,,,,0.9591,1,,,,,,,,,,,,,,,0,0.339112365,-0.271498004,1,0,0,0.9591,button_right_main,0.339112365,-0.271498004,1,0,0,,0,134,134,6,1,STAIN,HB,old,m,./images/STAINHB.png,,,,,,,,,,,,,,,,,,,,,,,,,,,,,,,,,
,,,,,,,,,,,,,,,,,610505ad4f6be10b34394634,,2022-02-12_14h46.43.519,lexical_decision_task_DD_L5,2021.2.3,Linux armv8l,30.02822653,,,,,,,,,,0.7441,1,,,,,,,,,,,,,,,0,0.387656054,-0.297850229,1,0,0,0.7441,button_right_main,0.387656054,-0.297850229,1,0,0,,0,135,135,22,1,CLOWN,LB,old,m,./images/CLOWNLB.png,,,,,,,,,,,,,,,,,,,,,,,,,,,,,,,,,
,,,,,,,,,,,,,,,,,610505ad4f6be10b34394634,,2022-02-12_14h46.43.519,lexical_decision_task_DD_L5,2021.2.3,Linux armv8l,30.02822653,,,,,,,,,,1.1784,1,,,,,,,,,,,,,,,0,-0.400138679,-0.315880933,1,0,0,1.1784,button_left_main,-0.400138679,-0.315880933,1,0,0,,0,136,136,145,1,LAMEL,HB,old,z,./images/LAMELHB.png,,,,,,,,,,,,,,,,,,,,,,,,,,,,,,,,,
,,,,,,,,,,,,,,,,,610505ad4f6be10b34394634,,2022-02-12_14h46.43.519,lexical_decision_task_DD_L5,2021.2.3,Linux armv8l,30.02822653,,,,,,,,,,1.4133,1,,,,,,,,,,,,,,,0,-0.352981966,-0.296463457,1,0,0,1.4133,button_left_main,-0.352981966,-0.296463457,1,0,0,,0,137,137,85,1,CHULK,HB,old,z,./images/CHULKHB.png,,,,,,,,,,,,,,,,,,,,,,,,,,,,,,,,,
,,,,,,,,,,,,,,,,,610505ad4f6be10b34394634,,2022-02-12_14h46.43.519,lexical_decision_task_DD_L5,2021.2.3,Linux armv8l,30.02822653,,,,,,,,,,1.0861,1,,,,,,,,,,,,,,,0,0.366851733,-0.277045981,1,0,0,1.0861,button_right_main,0.366851733,-0.277045981,1,0,0,,0,138,138,69,1,ARROW,HB,old,m,./images/ARROWHB.png,,,,,,,,,,,,,,,,,,,,,,,,,,,,,,,,,
,,,,,,,,,,,,,,,,,610505ad4f6be10b34394634,,2022-02-12_14h46.43.519,lexical_decision_task_DD_L5,2021.2.3,Linux armv8l,30.02822653,,,,,,,,,,0.8605,1,,,,,,,,,,,,,,,0,0.408460599,-0.289528708,1,0,0,0.8605,button_right_main,0.408460599,-0.289528708,1,0,0,,0,139,139,77,1,WHEEL,C,old,m,./images/WHEEL.png,,,,,,,,,,,,,,,,,,,,,,,,,,,,,,,,,
,,,,,,,,,,,,,,,,,610505ad4f6be10b34394634,,2022-02-12_14h46.43.519,lexical_decision_task_DD_L5,2021.2.3,Linux armv8l,30.02822653,,,,,,,,,,0.8619,1,,,,,,,,,,,,,,,0,0.358529841,-0.310332956,1,0,0,0.8619,button_right_main,0.358529841,-0.310332956,1,0,0,,0,140,140,17,1,PARADE,C,old,m,./images/PARADE.png,,,,,,,,,,,,,,,,,,,,,,,,,,,,,,,,,
,,,,,,,,,,,,,,,,,610505ad4f6be10b34394634,,2022-02-12_14h46.43.519,lexical_decision_task_DD_L5,2021.2.3,Linux armv8l,30.02822653,,,,,,,,,,0.9622,1,,,,,,,,,,,,,,,0,-0.332177505,-0.297850229,1,0,0,0.9622,button_left_main,-0.332177505,-0.297850229,1,0,0,,0,141,141,126,1,GUELS,C,old,z,./images/GUELS.png,,,,,,,,,,,,,,,,,,,,,,,,,,,,,,,,,
,,,,,,,,,,,,,,,,,610505ad4f6be10b34394634,,2022-02-12_14h46.43.519,lexical_decision_task_DD_L5,2021.2.3,Linux armv8l,30.02822653,,,,,,,,,,0.9445,1,,,,,,,,,,,,,,,0,0.420943177,-0.311719876,1,0,0,0.9445,button_right_main,0.420943177,-0.311719876,1,0,0,,0,142,142,35,1,LLAMA,C,old,m,./images/LLAMA.png,,,,,,,,,,,,,,,,,,,,,,,,,,,,,,,,,
,,,,,,,,,,,,,,,,,610505ad4f6be10b34394634,,2022-02-12_14h46.43.519,lexical_decision_task_DD_L5,2021.2.3,Linux armv8l,30.02822653,,,,,,,,,,1.0118,1,,,,,,,,,,,,,,,0,-0.401525655,-0.314493864,1,0,0,1.0118,button_left_main,-0.401525655,-0.314493864,1,0,0,,0,143,143,160,1,VEETS,HB,old,z,./images/VEETSHB.png,,,,,,,,,,,,,,,,,,,,,,,,,,,,,,,,,
,,,,,,,,,,,,,,,,,610505ad4f6be10b34394634,,2022-02-12_14h46.43.519,lexical_decision_task_DD_L5,2021.2.3,Linux armv8l,30.02822653,,,,,,,,,,1.6431,1,,,,,,,,,,,,,,,0,-0.386269069,-0.303398058,1,0,0,1.6431,button_left_main,-0.386269069,-0.303398058,1,0,0,,0,144,144,123,1,SEDGE,C,old,z,./images/SEDGE.png,,,,,,,,,,,,,,,,,,,,,,,,,,,,,,,,,
,,,,,,,,,,,,,,,,,610505ad4f6be10b34394634,,2022-02-12_14h46.43.519,lexical_decision_task_DD_L5,2021.2.3,Linux armv8l,30.02822653,,,,,,,,,,0.8222,1,,,,,,,,,,,,,,,0,0.391816963,-0.2923024,1,0,0,0.8222,button_right_main,0.391816963,-0.2923024,1,0,0,,0,145,145,15,1,COLLAR,HB,old,m,./images/COLLARHB.png,,,,,,,,,,,,,,,,,,,,,,,,,,,,,,,,,
,,,,,,,,,,,,,,,,,610505ad4f6be10b34394634,,2022-02-12_14h46.43.519,lexical_decision_task_DD_L5,2021.2.3,Linux armv8l,30.02822653,,,,,,,,,,0.8597,1,,,,,,,,,,,,,,,0,0.40707353,-0.314493864,1,0,0,0.8597,button_right_main,0.40707353,-0.314493864,1,0,0,,0,146,146,79,1,RULER,LB,old,m,./images/RULERLB.png,,,,,,,,,,,,,,,,,,,,,,,,,,,,,,,,,
,,,,,,,,,,,,,,,,,610505ad4f6be10b34394634,,2022-02-12_14h46.43.519,lexical_decision_task_DD_L5,2021.2.3,Linux armv8l,30.02822653,,,,,,,,,,1.2474,1,,,,,,,,,,,,,,,0,-0.302630674,-0.242371791,1,0,0,1.2474,button_left_main,-0.302630674,-0.242371791,1,0,0,,0,147,147,114,1,RIKES,C,old,z,./images/RIKES.png,,,,,,,,,,,,,,,,,,,,,,,,,,,,,,,,,
,,,,,,,,,,,,,,,,,610505ad4f6be10b34394634,,2022-02-12_14h46.43.519,lexical_decision_task_DD_L5,2021.2.3,Linux armv8l,30.02822653,,,,,,,,,,1.5806,1,,,,,,,,,,,,,,,0,-0.278085986,-0.278432753,1,0,0,1.5806,button_left_main,-0.278085986,-0.278432753,1,0,0,,0,148,148,136,1,WERVE,HB,old,z,./images/WERVEHB.png,,,,,,,,,,,,,,,,,,,,,,,,,,,,,,,,,
,,,,,,,,,,,,,,,,,610505ad4f6be10b34394634,,2022-02-12_14h46.43.519,lexical_decision_task_DD_L5,2021.2.3,Linux armv8l,30.02822653,,,,,,,,,,0.866,1,,,,,,,,,,,,,,,0,0.415395422,-0.308946184,1,0,0,0.866,button_right_main,0.415395422,-0.308946184,1,0,0,,0,149,149,19,1,DONKEY,LB,old,m,./images/DONKEYLB.png,,,,,,,,,,,,,,,,,,,,,,,,,,,,,,,,,
,,,,,,,,,,,,,,,,,610505ad4f6be10b34394634,,2022-02-12_14h46.43.519,lexical_decision_task_DD_L5,2021.2.3,Linux armv8l,30.02822653,,,,,,,,,,0.9056,1,,,,,,,,,,,,,,,0,-0.387656017,-0.318654921,1,0,0,0.9056,button_left_main,-0.387656017,-0.318654921,1,0,0,,0,150,150,98,1,BAMPS,LB,old,z,./images/BAMPSLB.png,,,,,,,,,,,,,,,,,,,,,,,,,,,,,,,,,
,,,,,,,,,,,,,,,,,610505ad4f6be10b34394634,,2022-02-12_14h46.43.519,lexical_decision_task_DD_L5,2021.2.3,Linux armv8l,30.02822653,,,,,,,,,,0.9596,1,,,,,,,,,,,,,,,0,0.371012493,-0.2923024,1,0,0,0.9596,button_right_main,0.371012493,-0.2923024,1,0,0,,0,151,151,26,1,CLOUD,C,old,m,./images/CLOUD.png,,,,,,,,,,,,,,,,,,,,,,,,,,,,,,,,,
,,,,,,,,,,,,,,,,,610505ad4f6be10b34394634,,2022-02-12_14h46.43.519,lexical_decision_task_DD_L5,2021.2.3,Linux armv8l,30.02822653,,,,,,,,,,1.0156,1,,,,,,,,,,,,,,,0,0.368238579,-0.282593662,1,0,0,1.0156,button_right_main,0.368238579,-0.282593662,1,0,0,,0,152,152,52,1,DESERT,LB,old,m,./images/DESERTLB.png,,,,,,,,,,,,,,,,,,,,,,,,,,,,,,,,,
,,,,,,,,,,,,,,,,,610505ad4f6be10b34394634,,2022-02-12_14h46.43.519,lexical_decision_task_DD_L5,2021.2.3,Linux armv8l,30.02822653,,,,,,,,,,2.2278,1,,,,,,,,,,,,,,,0,0.393204032,-0.295076389,1,0,0,2.2278,button_right_main,0.393204032,-0.295076389,1,0,0,,0,153,153,60,1,CURRY,HB,old,m,./images/CURRYHB.png,,,,,,,,,,,,,,,,,,,,,,,,,,,,,,,,,
,,,,,,,,,,,,,,,,,610505ad4f6be10b34394634,,2022-02-12_14h46.43.519,lexical_decision_task_DD_L5,2021.2.3,Linux armv8l,30.02822653,,,,,,,,,,1.1502,1,,,,,,,,,,,,,,,0,-0.354368914,-0.300624218,1,0,0,1.1502,button_left_main,-0.354368914,-0.300624218,1,0,0,,0,154,154,159,1,CUDDY,C,old,z,./images/CUDDY.png,,,,,,,,,,,,,,,,,,,,,,,,,,,,,,,,,
,,,,,,,,,,,,,,,,,610505ad4f6be10b34394634,,2022-02-12_14h46.43.519,lexical_decision_task_DD_L5,2021.2.3,Linux armv8l,30.02822653,,,,,,,,,,1.5806,1,,,,,,,,,,,,,,,0,-0.334951456,-0.265950175,1,0,0,1.5806,button_left_main,-0.334951456,-0.265950175,1,0,0,,0,155,155,167,1,ZONET,LB,old,z,./images/ZONETLB.png,,,,,,,,,,,,,,,,,,,,,,,,,,,,,,,,,
,,,,,,,,,,,,,,,,,610505ad4f6be10b34394634,,2022-02-12_14h46.43.519,lexical_decision_task_DD_L5,2021.2.3,Linux armv8l,30.02822653,,,,,,,,,,1.7241,1,,,,,,,,,,,,,,,0,-0.330790566,-0.296463457,1,0,0,1.7241,button_left_main,-0.330790566,-0.296463457,1,0,0,,0,156,156,166,1,SHORY,HB,old,z,./images/SHORYHB.png,,,,,,,,,,,,,,,,,,,,,,,,,,,,,,,,,
,,,,,,,,,,,,,,,,,610505ad4f6be10b34394634,,2022-02-12_14h46.43.519,lexical_decision_task_DD_L5,2021.2.3,Linux armv8l,30.02822653,,,,,,,,,,1.2783,1,,,,,,,,,,,,,,,0,-0.344660194,-0.331137352,1,0,0,1.2783,button_left_main,-0.344660194,-0.331137352,1,0,0,,0,157,157,95,1,HANTY,LB,old,z,./images/HANTYLB.png,,,,,,,,,,,,,,,,,,,,,,,,,,,,,,,,,
,,,,,,,,,,,,,,,,,610505ad4f6be10b34394634,,2022-02-12_14h46.43.519,lexical_decision_task_DD_L5,2021.2.3,Linux armv8l,30.02822653,,,,,,,,,,0.96,1,,,,,,,,,,,,,,,0,0.34188628,-0.306172195,1,0,0,0.96,button_right_main,0.34188628,-0.306172195,1,0,0,,0,158,158,48,1,SHIELD,HB,old,m,./images/SHIELDHB.png,,,,,,,,,,,,,,,,,,,,,,,,,,,,,,,,,
,,,,,,,,,,,,,,,,,610505ad4f6be10b34394634,,2022-02-12_14h46.43.519,lexical_decision_task_DD_L5,2021.2.3,Linux armv8l,30.02822653,,,,,,,,,,1.1017,1,,,,,,,,,,,,,,,0,-0.390429941,-0.318654921,1,0,0,1.1017,button_left_main,-0.390429941,-0.318654921,1,0,0,,0,159,159,141,1,PLEET,C,old,z,./images/PLEET.png,,,,,,,,,,,,,,,,,,,,,,,,,,,,,,,,,
,,,,,,,,,,,,,,,,,610505ad4f6be10b34394634,,2022-02-12_14h46.43.519,lexical_decision_task_DD_L5,2021.2.3,Linux armv8l,30.02822653,,,,,,,,,,1.0777,1,,,,,,,,,,,,,,,0,-0.305825243,-0.286754719,1,0,0,1.0777,button_left_main,-0.305825243,-0.286754719,1,0,0,,0,160,160,156,1,HIXES,C,old,z,./images/HIXES.png,,,,,,,,,,,,,,,,,,,,,,,,,,,,,,,,,
,,,,,,,,,,,,,,,,,610505ad4f6be10b34394634,,2022-02-12_14h46.43.519,lexical_decision_task_DD_L5,2021.2.3,Linux armv8l,30.02822653,,,,,,,,,,0.9627,1,,,,,,,,,,,,,,,0,0.400138707,-0.314493864,1,0,0,0.9627,button_right_main,0.400138707,-0.314493864,1,0,0,,0,161,161,2,1,STOVE,C,old,m,./images/STOVE.png,,,,,,,,,,,,,,,,,,,,,,,,,,,,,,,,,
,,,,,,,,,,,,,,,,,610505ad4f6be10b34394634,,2022-02-12_14h46.43.519,lexical_decision_task_DD_L5,2021.2.3,Linux armv8l,30.02822653,,,,,,,,,,0.9654,1,,,,,,,,,,,,,,,0,0.395977946,-0.310332956,1,0,0,0.9654,button_right_main,0.395977946,-0.310332956,1,0,0,,0,162,162,23,1,CLOTH,C,old,m,./images/CLOTH.png,,,,,,,,,,,,,,,,,,,,,,,,,,,,,,,,,
,,,,,,,,,,,,,,,,,610505ad4f6be10b34394634,,2022-02-12_14h46.43.519,lexical_decision_task_DD_L5,2021.2.3,Linux armv8l,30.02822653,,,,,,,,,,0.9498,1,,,,,,,,,,,,,,,0,-0.373786389,-0.314493864,1,0,0,0.9498,button_left_main,-0.373786389,-0.314493864,1,0,0,,0,163,163,146,1,MOOST,LB,old,z,./images/MOOSTLB.png,,,,,,,,,,,,,,,,,,,,,,,,,,,,,,,,,
,,,,,,,,,,,,,,,,,610505ad4f6be10b34394634,,2022-02-12_14h46.43.519,lexical_decision_task_DD_L5,2021.2.3,Linux armv8l,30.02822653,,,,,,,,,,0.9976,1,,,,,,,,,,,,,,,0,0.336338451,-0.302704598,1,0,0,0.9976,button_right_main,0.336338451,-0.302704598,1,0,0,,0,164,164,7,1,WAGON,LB,old,m,./images/WAGONLB.png,,,,,,,,,,,,,,,,,,,,,,,,,,,,,,,,,
,,,,,,,,,,,,,,,,,610505ad4f6be10b34394634,,2022-02-12_14h46.43.519,lexical_decision_task_DD_L5,2021.2.3,Linux armv8l,30.02822653,,,,,,,,,,1.5179,1,,,,,,,,,,,,,,,0,0.390429969,-0.332524272,1,0,0,1.5179,button_right_main,0.390429969,-0.332524272,1,0,0,,0,165,165,36,1,BOILER,HB,old,m,./images/BOILERHB.png,,,,,,,,,,,,,,,,,,,,,,,,,,,,,,,,,
,,,,,,,,,,,,,,,,,610505ad4f6be10b34394634,,2022-02-12_14h46.43.519,lexical_decision_task_DD_L5,2021.2.3,Linux armv8l,30.02822653,,,,,,,,,,0.7837,1,,,,,,,,,,,,,,,0,0.380721231,-0.324202602,1,0,0,0.7837,button_right_main,0.380721231,-0.324202602,1,0,0,,0,166,166,73,1,GLOVE,LB,old,m,./images/GLOVELB.png,,,,,,,,,,,,,,,,,,,,,,,,,,,,,,,,,
,,,,,,,,,,,,,,,,,610505ad4f6be10b34394634,,2022-02-12_14h46.43.519,lexical_decision_task_DD_L5,2021.2.3,Linux armv8l,30.02822653,,,,,,,,,,0.8254,1,,,,,,,,,,,,,,,0,0.395977946,-0.29368932,1,0,0,0.8254,button_right_main,0.395977946,-0.29368932,1,0,0,,0,167,167,44,1,BASKET,C,old,m,./images/BASKET.png,,,,,,,,,,,,,,,,,,,,,,,,,,,,,,,,,
,,,,,,,,,,,,,,,,,610505ad4f6be10b34394634,,2022-02-12_14h46.43.519,lexical_decision_task_DD_L5,2021.2.3,Linux armv8l,30.02822653,,,,,,,,,,,,,,,,,,,,,,,,,,,,,,,,,,,,,,,,,,,,,,How likely will it be that you will recognize the words presented clearly on a scale of 0 (not likely) to 100 (most likely)?,,,,,-0.010402198,-0.447642206,1,0,0,jol_adv,6,16.7075,0,0,0,0,1,,,,,,,,,,,,,,,,,,,
,,,,,,,,,,,,,,,,,610505ad4f6be10b34394634,,2022-02-12_14h46.43.519,lexical_decision_task_DD_L5,2021.2.3,Linux armv8l,30.02822653,,,,,,,,,,,,,,,,,,,,,,,,,,,,,,,,,,,,,,,,,,,,,,How likely will it be that you will recognize the words presented slighly blurred on a scale of 0 (not likely) to 100 (most likely)?,,,,,,,,,,,5,11.5109,0,1,1,1,1,,,,,,,,,,,,,,,,,,,
,,,,,,,,,,,,,,,,,610505ad4f6be10b34394634,,2022-02-12_14h46.43.519,lexical_decision_task_DD_L5,2021.2.3,Linux armv8l,30.02822653,,,,,,,,,,,,,,,,,,,,,,,,,,,,,,,,,,,,,,,,,,,,,,How likely will it be that you will recognize the words presented very blurred on a scale of 0 (not likely) to 100 (most likely)?,,,,,,,,,,,4,7.8897,0,2,2,2,1,,,,,,,,,,,,,,,,,,,
,0.05478509,-0.379681041,1,0,0,instr_done_button,,,,,,1,test,"In the next phase you will be presented with the words from the the first phase. Your job is to decide whether you remember seeing the word or not. If you remember seeing the word press ""old"" or type ""m"". If you do not remember seeing the word press ""new"" or type ""z"". Please press the space bar or click on continue to begin. ",,,610505ad4f6be10b34394634,,2022-02-12_14h46.43.519,lexical_decision_task_DD_L5,2021.2.3,Linux armv8l,30.02822653,,,,,,,,,,,,,,,,,,,,,,,,,,,,,,,,,,,,,,,,,,,,,,,,,,,,,,,,,,,,,,,,0,0,0,0,1,,,,,,,,,,,,,,
,0.043689394,-0.392163916,1,0,0,instr_done_button,,,,,,1,test,"In the next phase you will be presented with the words from the the first phase. Your job is to decide whether you remember seeing the word or not. If you remember seeing the word press ""old"" or type ""m"". If you do not remember seeing the word press ""new"" or type ""z"". Please press the space bar or click on continue to begin. ",,,610505ad4f6be10b34394634,,2022-02-12_14h46.43.519,lexical_decision_task_DD_L5,2021.2.3,Linux armv8l,30.02822653,,,,,,,,,,,,,,,,,,,,,,,,,,,,,,,,,,,,,,,,,,,,,,,,,,,,,,,,,,,,,,,,1,0,1,0,1,,,,,,,,,,,,,,
,0.043689394,-0.404646346,1,0,0,instr_done_button,,,,,,1,test,"In the next phase you will be presented with the words from the the first phase. Your job is to decide whether you remember seeing the word or not. If you remember seeing the word press ""old"" or type ""m"". If you do not remember seeing the word press ""new"" or type ""z"". Please press the space bar or click on continue to begin. ",,,610505ad4f6be10b34394634,,2022-02-12_14h46.43.519,lexical_decision_task_DD_L5,2021.2.3,Linux armv8l,30.02822653,,,,,,,,,,,,,,,,,,,,,,,,,,,,,,,,,,,,,,,,,,,,,,,,,,,,,,,,,,,,,,,,2,0,2,0,1,,,,,,,,,,,,,,
,0.029819711,-0.396324824,1,0,0,instr_done_button,,,,,,1,test,"In the next phase you will be presented with the words from the the first phase. Your job is to decide whether you remember seeing the word or not. If you remember seeing the word press ""old"" or type ""m"". If you do not remember seeing the word press ""new"" or type ""z"". Please press the space bar or click on continue to begin. ",,,610505ad4f6be10b34394634,,2022-02-12_14h46.43.519,lexical_decision_task_DD_L5,2021.2.3,Linux armv8l,30.02822653,,,,,,,,,,,,,,,,,,,,,,,,,,,,,,,,,,,,,,,,,,,,,,,,,,,,,,,,,,,,,,,,3,0,3,0,1,,,,,,,,,,,,,,
,0.035367614,-0.411581391,1,0,0,instr_done_button,,,,,,1,test,"In the next phase you will be presented with the words from the the first phase. Your job is to decide whether you remember seeing the word or not. If you remember seeing the word press ""old"" or type ""m"". If you do not remember seeing the word press ""new"" or type ""z"". Please press the space bar or click on continue to begin. ",,,610505ad4f6be10b34394634,,2022-02-12_14h46.43.519,lexical_decision_task_DD_L5,2021.2.3,Linux armv8l,30.02822653,,,,,,,,,,,,,,,,,,,,,,,,,,,,,,,,,,,,,,,,,,,,,,,,,,,,,,,,,,,,,,,,4,0,4,0,1,,,,,,,,,,,,,,
,,,,,,,,,,,,,,,,,610505ad4f6be10b34394634,,2022-02-12_14h46.43.519,lexical_decision_task_DD_L5,2021.2.3,Linux armv8l,30.02822653,,,,,,,,,,5.7891,1,,,,,,,,,,,,,,,,,,,,,,,-0.350208042,-0.310332956,1,0,0,,,,,,,SUNSET,LB,z,y,./images/SUNSETLB.png,,,,,,,,,,,,,,,,,,,,,0,-0.350208042,-0.310332956,1,0,0,5.7891,button_left_test,0,0,0,166,1
,,,,,,,,,,,,,,,,,610505ad4f6be10b34394634,,2022-02-12_14h46.43.519,lexical_decision_task_DD_L5,2021.2.3,Linux armv8l,30.02822653,,,,,,,,,,1.5289,1,,,,,,,,,,,,,,,,,,,,,,,-0.354368914,-0.324202602,1,0,0,,,,,,,SCREW,HB,z,y,./images/SCREWHB.png,,,,,,,,,,,,,,,,,,,,,0,-0.354368914,-0.324202602,1,0,0,1.5289,button_left_test,0,1,1,108,1
,,,,,,,,,,,,,,,,,610505ad4f6be10b34394634,,2022-02-12_14h46.43.519,lexical_decision_task_DD_L5,2021.2.3,Linux armv8l,30.02822653,,,,,,,,,,1.1059,1,,,,,,,,,,,,,,,,,,,,,,,-0.332177505,-0.317267705,1,0,0,,,,,,,MUSCLE,LB,z,y,./images/MUSCLELB.png,,,,,,,,,,,,,,,,,,,,,0,-0.332177505,-0.317267705,1,0,0,1.1059,button_left_test,0,2,2,88,1
,,,,,,,,,,,,,,,,,610505ad4f6be10b34394634,,2022-02-12_14h46.43.519,lexical_decision_task_DD_L5,2021.2.3,Linux armv8l,30.02822653,,,,,,,,,,1.5764,1,,,,,,,,,,,,,,,,,,,,,,,0.422330245,-0.289528708,1,0,0,,,,,,,PILOT,C,m,y,./images/PILOT.png,,,,,,,,,,,,,,,,,,,,,0,0.422330245,-0.289528708,1,0,0,1.5764,button_right_test,0,3,3,50,1
,,,,,,,,,,,,,,,,,610505ad4f6be10b34394634,,2022-02-12_14h46.43.519,lexical_decision_task_DD_L5,2021.2.3,Linux armv8l,30.02822653,,,,,,,,,,1.2092,1,,,,,,,,,,,,,,,,,,,,,,,-0.358529804,-0.286754719,1,0,0,,,,,,,DOUGH,LB,z,y,./images/DOUGHLB.png,,,,,,,,,,,,,,,,,,,,,0,-0.358529804,-0.286754719,1,0,0,1.2092,button_left_test,0,4,4,103,1
,,,,,,,,,,,,,,,,,610505ad4f6be10b34394634,,2022-02-12_14h46.43.519,lexical_decision_task_DD_L5,2021.2.3,Linux armv8l,30.02822653,,,,,,,,,,1.4908,1,,,,,,,,,,,,,,,,,,,,,,,0.394590878,-0.318654921,1,0,0,,,,,,,DONKEY,LB,m,y,./images/DONKEYLB.png,,,,,,,,,,,,,,,,,,,,,0,0.394590878,-0.318654921,1,0,0,1.4908,button_right_test,0,5,5,19,1
,,,,,,,,,,,,,,,,,610505ad4f6be10b34394634,,2022-02-12_14h46.43.519,lexical_decision_task_DD_L5,2021.2.3,Linux armv8l,30.02822653,,,,,,,,,,1.5726,1,,,,,,,,,,,,,,,,,,,,,,,-0.357142837,-0.318654921,1,0,0,,,,,,,FARMER,C,z,y,./images/FARMER.png,,,,,,,,,,,,,,,,,,,,,0,-0.357142837,-0.318654921,1,0,0,1.5726,button_left_test,0,6,6,149,1
,,,,,,,,,,,,,,,,,610505ad4f6be10b34394634,,2022-02-12_14h46.43.519,lexical_decision_task_DD_L5,2021.2.3,Linux armv8l,30.02822653,,,,,,,,,,3.6263,0,,,,,,,,,,,,,,,,,,,,,,,0.398751861,-0.325589671,1,0,0,,,,,,,BERRY,C,z,y,./images/BERRY.png,,,,,,,,,,,,,,,,,,,,,0,0.398751861,-0.325589671,1,0,0,3.6263,button_right_test,0,7,7,131,1
,,,,,,,,,,,,,,,,,610505ad4f6be10b34394634,,2022-02-12_14h46.43.519,lexical_decision_task_DD_L5,2021.2.3,Linux armv8l,30.02822653,,,,,,,,,,1.1728,1,,,,,,,,,,,,,,,,,,,,,,,0.395977946,-0.328363659,1,0,0,,,,,,,BOILER,HB,m,y,./images/BOILERHB.png,,,,,,,,,,,,,,,,,,,,,0,0.395977946,-0.328363659,1,0,0,1.1728,button_right_test,0,8,8,36,1
,,,,,,,,,,,,,,,,,610505ad4f6be10b34394634,,2022-02-12_14h46.43.519,lexical_decision_task_DD_L5,2021.2.3,Linux armv8l,30.02822653,,,,,,,,,,1.3925,1,,,,,,,,,,,,,,,,,,,,,,,-0.350208042,-0.286754719,1,0,0,,,,,,,BEARD,C,z,y,./images/BEARD.png,,,,,,,,,,,,,,,,,,,,,0,-0.350208042,-0.286754719,1,0,0,1.3925,button_left_test,0,9,9,86,1
,,,,,,,,,,,,,,,,,610505ad4f6be10b34394634,,2022-02-12_14h46.43.519,lexical_decision_task_DD_L5,2021.2.3,Linux armv8l,30.02822653,,,,,,,,,,2.4024,1,,,,,,,,,,,,,,,,,,,,,,,0.382108225,-0.310332956,1,0,0,,,,,,,BASKET,C,m,y,./images/BASKET.png,,,,,,,,,,,,,,,,,,,,,0,0.382108225,-0.310332956,1,0,0,2.4024,button_right_test,0,10,10,44,1
,,,,,,,,,,,,,,,,,610505ad4f6be10b34394634,,2022-02-12_14h46.43.519,lexical_decision_task_DD_L5,2021.2.3,Linux armv8l,30.02822653,,,,,,,,,,1.1208,1,,,,,,,,,,,,,,,,,,,,,,,-0.328016633,-0.307558967,1,0,0,,,,,,,THROAT,HB,z,y,./images/THROATHB.png,,,,,,,,,,,,,,,,,,,,,0,-0.328016633,-0.307558967,1,0,0,1.1208,button_left_test,0,11,11,120,1
,,,,,,,,,,,,,,,,,610505ad4f6be10b34394634,,2022-02-12_14h46.43.519,lexical_decision_task_DD_L5,2021.2.3,Linux armv8l,30.02822653,,,,,,,,,,1.0889,1,,,,,,,,,,,,,,,,,,,,,,,0.415395422,-0.314493864,1,0,0,,,,,,,CASINO,LB,m,y,./images/CASINOLB.png,,,,,,,,,,,,,,,,,,,,,0,0.415395422,-0.314493864,1,0,0,1.0889,button_right_test,0,12,12,28,1
,,,,,,,,,,,,,,,,,610505ad4f6be10b34394634,,2022-02-12_14h46.43.519,lexical_decision_task_DD_L5,2021.2.3,Linux armv8l,30.02822653,,,,,,,,,,1.1399,0,,,,,,,,,,,,,,,,,,,,,,,-0.364077651,-0.303398058,1,0,0,,,,,,,BRUSH,C,m,y,./images/BRUSH.png,,,,,,,,,,,,,,,,,,,,,0,-0.364077651,-0.303398058,1,0,0,1.1399,button_left_test,0,13,13,59,1
,,,,,,,,,,,,,,,,,610505ad4f6be10b34394634,,2022-02-12_14h46.43.519,lexical_decision_task_DD_L5,2021.2.3,Linux armv8l,30.02822653,,,,,,,,,,2.3545,1,,,,,,,,,,,,,,,,,,,,,,,-0.35159499,-0.295076389,1,0,0,,,,,,,POODLE,HB,z,y,./images/POODLEHB.png,,,,,,,,,,,,,,,,,,,,,0,-0.35159499,-0.295076389,1,0,0,2.3545,button_left_test,0,14,14,165,1
,,,,,,,,,,,,,,,,,610505ad4f6be10b34394634,,2022-02-12_14h46.43.519,lexical_decision_task_DD_L5,2021.2.3,Linux armv8l,30.02822653,,,,,,,,,,1.7383,1,,,,,,,,,,,,,,,,,,,,,,,-0.393203865,-0.315880933,1,0,0,,,,,,,SNACK,LB,z,y,./images/SNACKLB.png,,,,,,,,,,,,,,,,,,,,,0,-0.393203865,-0.315880933,1,0,0,1.7383,button_left_test,0,15,15,157,1
,,,,,,,,,,,,,,,,,610505ad4f6be10b34394634,,2022-02-12_14h46.43.519,lexical_decision_task_DD_L5,2021.2.3,Linux armv8l,30.02822653,,,,,,,,,,2.1062,1,,,,,,,,,,,,,,,,,,,,,,,0.359916909,-0.318654921,1,0,0,,,,,,,MEDAL,C,m,y,./images/MEDAL.png,,,,,,,,,,,,,,,,,,,,,0,0.359916909,-0.318654921,1,0,0,2.1062,button_right_test,0,16,16,11,1
,,,,,,,,,,,,,,,,,610505ad4f6be10b34394634,,2022-02-12_14h46.43.519,lexical_decision_task_DD_L5,2021.2.3,Linux armv8l,30.02822653,,,,,,,,,,1.1765,1,,,,,,,,,,,,,,,,,,,,,,,-0.346047151,-0.313106796,1,0,0,,,,,,,TWINS,HB,z,y,./images/TWINSHB.png,,,,,,,,,,,,,,,,,,,,,0,-0.346047151,-0.313106796,1,0,0,1.1765,button_left_test,0,17,17,144,1
,,,,,,,,,,,,,,,,,610505ad4f6be10b34394634,,2022-02-12_14h46.43.519,lexical_decision_task_DD_L5,2021.2.3,Linux armv8l,30.02822653,,,,,,,,,,1.3568,1,,,,,,,,,,,,,,,,,,,,,,,-0.382108179,-0.315880933,1,0,0,,,,,,,KIDNEY,HB,z,y,./images/KIDNEYHB.png,,,,,,,,,,,,,,,,,,,,,0,-0.382108179,-0.315880933,1,0,0,1.3568,button_left_test,0,18,18,105,1
,,,,,,,,,,,,,,,,,610505ad4f6be10b34394634,,2022-02-12_14h46.43.519,lexical_decision_task_DD_L5,2021.2.3,Linux armv8l,30.02822653,,,,,,,,,,1.307,0,,,,,,,,,,,,,,,,,,,,,,,-0.33911231,-0.311719876,1,0,0,,,,,,,MUMMY,LB,m,y,./images/MUMMYLB.png,,,,,,,,,,,,,,,,,,,,,0,-0.33911231,-0.311719876,1,0,0,1.307,button_left_test,0,19,19,46,1
,,,,,,,,,,,,,,,,,610505ad4f6be10b34394634,,2022-02-12_14h46.43.519,lexical_decision_task_DD_L5,2021.2.3,Linux armv8l,30.02822653,,,,,,,,,,1.7076,1,,,,,,,,,,,,,,,,,,,,,,,-0.344660194,-0.315880933,1,0,0,,,,,,,FALCON,LB,z,y,./images/FALCONLB.png,,,,,,,,,,,,,,,,,,,,,0,-0.344660194,-0.315880933,1,0,0,1.7076,button_left_test,0,20,20,112,1
,,,,,,,,,,,,,,,,,610505ad4f6be10b34394634,,2022-02-12_14h46.43.519,lexical_decision_task_DD_L5,2021.2.3,Linux armv8l,30.02822653,,,,,,,,,,0.9433,1,,,,,,,,,,,,,,,,,,,,,,,-0.373786389,-0.289528708,1,0,0,,,,,,,JUNGLE,C,z,y,./images/JUNGLE.png,,,,,,,,,,,,,,,,,,,,,0,-0.373786389,-0.289528708,1,0,0,0.9433,button_left_test,0,21,21,167,1
,,,,,,,,,,,,,,,,,610505ad4f6be10b34394634,,2022-02-12_14h46.43.519,lexical_decision_task_DD_L5,2021.2.3,Linux armv8l,30.02822653,,,,,,,,,,1.1714,1,,,,,,,,,,,,,,,,,,,,,,,0.415395422,-0.299237446,1,0,0,,,,,,,ARTIST,LB,m,y,./images/ARTISTLB.png,,,,,,,,,,,,,,,,,,,,,0,0.415395422,-0.299237446,1,0,0,1.1714,button_right_test,0,22,22,61,1
,,,,,,,,,,,,,,,,,610505ad4f6be10b34394634,,2022-02-12_14h46.43.519,lexical_decision_task_DD_L5,2021.2.3,Linux armv8l,30.02822653,,,,,,,,,,1.0579,1,,,,,,,,,,,,,,,,,,,,,,,0.339112365,-0.295076389,1,0,0,,,,,,,WAGON,LB,m,y,./images/WAGONLB.png,,,,,,,,,,,,,,,,,,,,,0,0.339112365,-0.295076389,1,0,0,1.0579,button_right_test,0,23,23,7,1
,,,,,,,,,,,,,,,,,610505ad4f6be10b34394634,,2022-02-12_14h46.43.519,lexical_decision_task_DD_L5,2021.2.3,Linux armv8l,30.02822653,,,,,,,,,,1.394,0,,,,,,,,,,,,,,,,,,,,,,,0.38488214,-0.311719876,1,0,0,,,,,,,CEMENT,C,z,y,./images/CEMENT.png,,,,,,,,,,,,,,,,,,,,,0,0.38488214,-0.311719876,1,0,0,1.394,button_right_test,0,24,24,158,1
,,,,,,,,,,,,,,,,,610505ad4f6be10b34394634,,2022-02-12_14h46.43.519,lexical_decision_task_DD_L5,2021.2.3,Linux armv8l,30.02822653,,,,,,,,,,0.9663,1,,,,,,,,,,,,,,,,,,,,,,,0.369625647,-0.296463457,1,0,0,,,,,,,RAZOR,LB,m,y,./images/RAZORLB.png,,,,,,,,,,,,,,,,,,,,,0,0.369625647,-0.296463457,1,0,0,0.9663,button_right_test,0,25,25,34,1
,,,,,,,,,,,,,,,,,610505ad4f6be10b34394634,,2022-02-12_14h46.43.519,lexical_decision_task_DD_L5,2021.2.3,Linux armv8l,30.02822653,,,,,,,,,,1.1213,1,,,,,,,,,,,,,,,,,,,,,,,0.375173402,-0.340846089,1,0,0,,,,,,,GRANNY,C,m,y,./images/GRANNY.png,,,,,,,,,,,,,,,,,,,,,0,0.375173402,-0.340846089,1,0,0,1.1213,button_right_test,0,26,26,20,1
,,,,,,,,,,,,,,,,,610505ad4f6be10b34394634,,2022-02-12_14h46.43.519,lexical_decision_task_DD_L5,2021.2.3,Linux armv8l,30.02822653,,,,,,,,,,1.9592,1,,,,,,,,,,,,,,,,,,,,,,,-0.346047151,-0.349167907,1,0,0,,,,,,,SWEAT,HB,z,y,./images/SWEATHB.png,,,,,,,,,,,,,,,,,,,,,0,-0.346047151,-0.349167907,1,0,0,1.9592,button_left_test,0,27,27,150,1
,,,,,,,,,,,,,,,,,610505ad4f6be10b34394634,,2022-02-12_14h46.43.519,lexical_decision_task_DD_L5,2021.2.3,Linux armv8l,30.02822653,,,,,,,,,,1.0729,0,,,,,,,,,,,,,,,,,,,,,,,0.441747721,-0.328363659,1,0,0,,,,,,,SAILOR,LB,z,y,./images/SAILORLB.png,,,,,,,,,,,,,,,,,,,,,0,0.441747721,-0.328363659,1,0,0,1.0729,button_right_test,0,28,28,151,1
,,,,,,,,,,,,,,,,,610505ad4f6be10b34394634,,2022-02-12_14h46.43.519,lexical_decision_task_DD_L5,2021.2.3,Linux armv8l,30.02822653,,,,,,,,,,1.1037,1,,,,,,,,,,,,,,,,,,,,,,,0.408460599,-0.318654921,1,0,0,,,,,,,POSTER,C,m,y,./images/POSTER.png,,,,,,,,,,,,,,,,,,,,,0,0.408460599,-0.318654921,1,0,0,1.1037,button_right_test,0,29,29,53,1
,,,,,,,,,,,,,,,,,610505ad4f6be10b34394634,,2022-02-12_14h46.43.519,lexical_decision_task_DD_L5,2021.2.3,Linux armv8l,30.02822653,,,,,,,,,,0.9883,1,,,,,,,,,,,,,,,,,,,,,,,0.391816963,-0.303398058,1,0,0,,,,,,,BUTTER,HB,m,y,./images/BUTTERHB.png,,,,,,,,,,,,,,,,,,,,,0,0.391816963,-0.303398058,1,0,0,0.9883,button_right_test,0,30,30,27,1
,,,,,,,,,,,,,,,,,610505ad4f6be10b34394634,,2022-02-12_14h46.43.519,lexical_decision_task_DD_L5,2021.2.3,Linux armv8l,30.02822653,,,,,,,,,,2.1226,1,,,,,,,,,,,,,,,,,,,,,,,-0.340499304,-0.318654921,1,0,0,,,,,,,LIZARD,C,z,y,./images/LIZARD.png,,,,,,,,,,,,,,,,,,,,,0,-0.340499304,-0.318654921,1,0,0,2.1226,button_left_test,0,31,31,128,1
,,,,,,,,,,,,,,,,,610505ad4f6be10b34394634,,2022-02-12_14h46.43.519,lexical_decision_task_DD_L5,2021.2.3,Linux armv8l,30.02822653,,,,,,,,,,1.4225,1,,,,,,,,,,,,,,,,,,,,,,,-0.35159499,-0.2923024,1,0,0,,,,,,,ONION,HB,z,y,./images/ONIONHB.png,,,,,,,,,,,,,,,,,,,,,0,-0.35159499,-0.2923024,1,0,0,1.4225,button_left_test,0,32,32,135,1
,,,,,,,,,,,,,,,,,610505ad4f6be10b34394634,,2022-02-12_14h46.43.519,lexical_decision_task_DD_L5,2021.2.3,Linux armv8l,30.02822653,,,,,,,,,,1.4077,1,,,,,,,,,,,,,,,,,,,,,,,-0.334951456,-0.311719876,1,0,0,,,,,,,PACKET,C,z,y,./images/PACKET.png,,,,,,,,,,,,,,,,,,,,,0,-0.334951456,-0.311719876,1,0,0,1.4077,button_left_test,0,33,33,140,1
,,,,,,,,,,,,,,,,,610505ad4f6be10b34394634,,2022-02-12_14h46.43.519,lexical_decision_task_DD_L5,2021.2.3,Linux armv8l,30.02822653,,,,,,,,,,1.309,0,,,,,,,,,,,,,,,,,,,,,,,0.400138707,-0.325589671,1,0,0,,,,,,,WEASEL,C,z,y,./images/WEASEL.png,,,,,,,,,,,,,,,,,,,,,0,0.400138707,-0.325589671,1,0,0,1.309,button_right_test,0,34,34,164,1
,,,,,,,,,,,,,,,,,610505ad4f6be10b34394634,,2022-02-12_14h46.43.519,lexical_decision_task_DD_L5,2021.2.3,Linux armv8l,30.02822653,,,,,,,,,,2.5209,1,,,,,,,,,,,,,,,,,,,,,,,-0.35159499,-0.306172195,1,0,0,,,,,,,PASTA,C,z,y,./images/PASTA.png,,,,,,,,,,,,,,,,,,,,,0,-0.35159499,-0.306172195,1,0,0,2.5209,button_left_test,0,35,35,89,1
,,,,,,,,,,,,,,,,,610505ad4f6be10b34394634,,2022-02-12_14h46.43.519,lexical_decision_task_DD_L5,2021.2.3,Linux armv8l,30.02822653,,,,,,,,,,1.0733,1,,,,,,,,,,,,,,,,,,,,,,,0.393204032,-0.318654921,1,0,0,,,,,,,CLOUD,C,m,y,./images/CLOUD.png,,,,,,,,,,,,,,,,,,,,,0,0.393204032,-0.318654921,1,0,0,1.0733,button_right_test,0,36,36,26,1
,,,,,,,,,,,,,,,,,610505ad4f6be10b34394634,,2022-02-12_14h46.43.519,lexical_decision_task_DD_L5,2021.2.3,Linux armv8l,30.02822653,,,,,,,,,,0.8394,1,,,,,,,,,,,,,,,,,,,,,,,0.42510416,-0.2923024,1,0,0,,,,,,,SNAKE,LB,m,y,./images/SNAKELB.png,,,,,,,,,,,,,,,,,,,,,0,0.42510416,-0.2923024,1,0,0,0.8394,button_right_test,0,37,37,40,1
,,,,,,,,,,,,,,,,,610505ad4f6be10b34394634,,2022-02-12_14h46.43.519,lexical_decision_task_DD_L5,2021.2.3,Linux armv8l,30.02822653,,,,,,,,,,1.3591,1,,,,,,,,,,,,,,,,,,,,,,,-0.344660194,-0.29368932,1,0,0,,,,,,,MOTOR,LB,z,y,./images/MOTORLB.png,,,,,,,,,,,,,,,,,,,,,0,-0.344660194,-0.29368932,1,0,0,1.3591,button_left_test,0,38,38,97,1
,,,,,,,,,,,,,,,,,610505ad4f6be10b34394634,,2022-02-12_14h46.43.519,lexical_decision_task_DD_L5,2021.2.3,Linux armv8l,30.02822653,,,,,,,,,,1.1478,1,,,,,,,,,,,,,,,,,,,,,,,0.415395422,-0.326976443,1,0,0,,,,,,,SPINE,C,m,y,./images/SPINE.png,,,,,,,,,,,,,,,,,,,,,0,0.415395422,-0.326976443,1,0,0,1.1478,button_right_test,0,39,39,65,1
,,,,,,,,,,,,,,,,,610505ad4f6be10b34394634,,2022-02-12_14h46.43.519,lexical_decision_task_DD_L5,2021.2.3,Linux armv8l,30.02822653,,,,,,,,,,1.0106,1,,,,,,,,,,,,,,,,,,,,,,,0.408460599,-0.318654921,1,0,0,,,,,,,PARADE,C,m,y,./images/PARADE.png,,,,,,,,,,,,,,,,,,,,,0,0.408460599,-0.318654921,1,0,0,1.0106,button_right_test,0,40,40,17,1
,,,,,,,,,,,,,,,,,610505ad4f6be10b34394634,,2022-02-12_14h46.43.519,lexical_decision_task_DD_L5,2021.2.3,Linux armv8l,30.02822653,,,,,,,,,,0.9108,1,,,,,,,,,,,,,,,,,,,,,,,0.110263602,-0.4157423,1,0,0,,,,,,,CLOWN,LB,m,y,./images/CLOWNLB.png,break_done_button,,,,,,,,,,,,,,,,,,,,0,0.40707353,-0.314493864,1,0,0,0.9108,button_right_test,0,41,41,22,1
,,,,,,,,,,,,,,,,,610505ad4f6be10b34394634,,2022-02-12_14h46.43.519,lexical_decision_task_DD_L5,2021.2.3,Linux armv8l,30.02822653,,,,,,,,,,1.1464,1,,,,,,,,,,,,,,,,,,,,,,,0.420943177,-0.297850229,1,0,0,,,,,,,ENGINE,C,m,y,./images/ENGINE.png,,,,,,,,,,,,,,,,,,,,,0,0.420943177,-0.297850229,1,0,0,1.1464,button_right_test,0,42,42,38,1
,,,,,,,,,,,,,,,,,610505ad4f6be10b34394634,,2022-02-12_14h46.43.519,lexical_decision_task_DD_L5,2021.2.3,Linux armv8l,30.02822653,,,,,,,,,,1.457,0,,,,,,,,,,,,,,,,,,,,,,,-0.321081828,-0.296463457,1,0,0,,,,,,,PISTOL,C,m,y,./images/PISTOL.png,,,,,,,,,,,,,,,,,,,,,0,-0.321081828,-0.296463457,1,0,0,1.457,button_left_test,0,43,43,29,1
,,,,,,,,,,,,,,,,,610505ad4f6be10b34394634,,2022-02-12_14h46.43.519,lexical_decision_task_DD_L5,2021.2.3,Linux armv8l,30.02822653,,,,,,,,,,1.2956,1,,,,,,,,,,,,,,,,,,,,,,,-0.344660194,-0.318654921,1,0,0,,,,,,,SPORT,HB,z,y,./images/SPORTHB.png,,,,,,,,,,,,,,,,,,,,,0,-0.344660194,-0.318654921,1,0,0,1.2956,button_left_test,0,44,44,132,1
,,,,,,,,,,,,,,,,,610505ad4f6be10b34394634,,2022-02-12_14h46.43.519,lexical_decision_task_DD_L5,2021.2.3,Linux armv8l,30.02822653,,,,,,,,,,1.0954,1,,,,,,,,,,,,,,,,,,,,,,,-0.329403572,-0.274271845,1,0,0,,,,,,,INFANT,LB,z,y,./images/INFANTLB.png,,,,,,,,,,,,,,,,,,,,,0,-0.329403572,-0.274271845,1,0,0,1.0954,button_left_test,0,45,45,160,1
,,,,,,,,,,,,,,,,,610505ad4f6be10b34394634,,2022-02-12_14h46.43.519,lexical_decision_task_DD_L5,2021.2.3,Linux armv8l,30.02822653,,,,,,,,,,2.1293,1,,,,,,,,,,,,,,,,,,,,,,,-0.343273218,-0.329750431,1,0,0,,,,,,,DRUMS,LB,z,y,./images/DRUMSLB.png,,,,,,,,,,,,,,,,,,,,,0,-0.343273218,-0.329750431,1,0,0,2.1293,button_left_test,0,46,46,133,1
,,,,,,,,,,,,,,,,,610505ad4f6be10b34394634,,2022-02-12_14h46.43.519,lexical_decision_task_DD_L5,2021.2.3,Linux armv8l,30.02822653,,,,,,,,,,1.5208,1,,,,,,,,,,,,,,,,,,,,,,,-0.341886243,-0.318654921,1,0,0,,,,,,,MAGGOT,HB,z,y,./images/MAGGOTHB.png,,,,,,,,,,,,,,,,,,,,,0,-0.341886243,-0.318654921,1,0,0,1.5208,button_left_test,0,47,47,117,1
,,,,,,,,,,,,,,,,,610505ad4f6be10b34394634,,2022-02-12_14h46.43.519,lexical_decision_task_DD_L5,2021.2.3,Linux armv8l,30.02822653,,,,,,,,,,0.956,1,,,,,,,,,,,,,,,,,,,,,,,0.427878074,-0.300624218,1,0,0,,,,,,,CHERRY,HB,m,y,./images/CHERRYHB.png,,,,,,,,,,,,,,,,,,,,,0,0.427878074,-0.300624218,1,0,0,0.956,button_right_test,0,48,48,54,1
,,,,,,,,,,,,,,,,,610505ad4f6be10b34394634,,2022-02-12_14h46.43.519,lexical_decision_task_DD_L5,2021.2.3,Linux armv8l,30.02822653,,,,,,,,,,1.3753,0,,,,,,,,,,,,,,,,,,,,,,,-0.361303728,-0.318654921,1,0,0,,,,,,,FLASK,HB,m,y,./images/FLASKHB.png,,,,,,,,,,,,,,,,,,,,,0,-0.361303728,-0.318654921,1,0,0,1.3753,button_left_test,0,49,49,72,1
,,,,,,,,,,,,,,,,,610505ad4f6be10b34394634,,2022-02-12_14h46.43.519,lexical_decision_task_DD_L5,2021.2.3,Linux armv8l,30.02822653,,,,,,,,,,1.9953,1,,,,,,,,,,,,,,,,,,,,,,,-0.371012465,-0.338072397,1,0,0,,,,,,,BONNET,C,z,y,./images/BONNET.png,,,,,,,,,,,,,,,,,,,,,0,-0.371012465,-0.338072397,1,0,0,1.9953,button_left_test,0,50,50,95,1
,,,,,,,,,,,,,,,,,610505ad4f6be10b34394634,,2022-02-12_14h46.43.519,lexical_decision_task_DD_L5,2021.2.3,Linux armv8l,30.02822653,,,,,,,,,,0.9236,1,,,,,,,,,,,,,,,,,,,,,,,0.427878074,-0.307558967,1,0,0,,,,,,,FLESH,HB,m,y,./images/FLESHHB.png,,,,,,,,,,,,,,,,,,,,,0,0.427878074,-0.307558967,1,0,0,0.9236,button_right_test,0,51,51,24,1
,,,,,,,,,,,,,,,,,610505ad4f6be10b34394634,,2022-02-12_14h46.43.519,lexical_decision_task_DD_L5,2021.2.3,Linux armv8l,30.02822653,,,,,,,,,,1.1723,1,,,,,,,,,,,,,,,,,,,,,,,-0.346047151,-0.311719876,1,0,0,,,,,,,PEACH,C,z,y,./images/PEACH.png,,,,,,,,,,,,,,,,,,,,,0,-0.346047151,-0.311719876,1,0,0,1.1723,button_left_test,0,52,52,119,1
,,,,,,,,,,,,,,,,,610505ad4f6be10b34394634,,2022-02-12_14h46.43.519,lexical_decision_task_DD_L5,2021.2.3,Linux armv8l,30.02822653,,,,,,,,,,1.2891,1,,,,,,,,,,,,,,,,,,,,,,,0.398751861,-0.300624218,1,0,0,,,,,,,BOXER,LB,m,y,./images/BOXERLB.png,,,,,,,,,,,,,,,,,,,,,0,0.398751861,-0.300624218,1,0,0,1.2891,button_right_test,0,53,53,4,1
,,,,,,,,,,,,,,,,,610505ad4f6be10b34394634,,2022-02-12_14h46.43.519,lexical_decision_task_DD_L5,2021.2.3,Linux armv8l,30.02822653,,,,,,,,,,1.1378,0,,,,,,,,,,,,,,,,,,,,,,,0.390429969,-0.314493864,1,0,0,,,,,,,CARPET,C,z,y,./images/CARPET.png,,,,,,,,,,,,,,,,,,,,,0,0.390429969,-0.314493864,1,0,0,1.1378,button_right_test,0,54,54,137,1
,,,,,,,,,,,,,,,,,610505ad4f6be10b34394634,,2022-02-12_14h46.43.519,lexical_decision_task_DD_L5,2021.2.3,Linux armv8l,30.02822653,,,,,,,,,,1.3637,1,,,,,,,,,,,,,,,,,,,,,,,0.379334385,-0.306172195,1,0,0,,,,,,,PEBBLE,LB,m,y,./images/PEBBLELB.png,,,,,,,,,,,,,,,,,,,,,0,0.379334385,-0.306172195,1,0,0,1.3637,button_right_test,0,55,55,82,1
,,,,,,,,,,,,,,,,,610505ad4f6be10b34394634,,2022-02-12_14h46.43.519,lexical_decision_task_DD_L5,2021.2.3,Linux armv8l,30.02822653,,,,,,,,,,1.1367,1,,,,,,,,,,,,,,,,,,,,,,,-0.35991678,-0.289528708,1,0,0,,,,,,,LITTER,HB,z,y,./images/LITTERHB.png,,,,,,,,,,,,,,,,,,,,,0,-0.35991678,-0.289528708,1,0,0,1.1367,button_left_test,0,56,56,162,1
,,,,,,,,,,,,,,,,,610505ad4f6be10b34394634,,2022-02-12_14h46.43.519,lexical_decision_task_DD_L5,2021.2.3,Linux armv8l,30.02822653,,,,,,,,,,1.0395,1,,,,,,,,,,,,,,,,,,,,,,,0.433425829,-0.315880933,1,0,0,,,,,,,DIVER,HB,m,y,./images/DIVERHB.png,,,,,,,,,,,,,,,,,,,,,0,0.433425829,-0.315880933,1,0,0,1.0395,button_right_test,0,57,57,9,1
,,,,,,,,,,,,,,,,,610505ad4f6be10b34394634,,2022-02-12_14h46.43.519,lexical_decision_task_DD_L5,2021.2.3,Linux armv8l,30.02822653,,,,,,,,,,1.054,0,,,,,,,,,,,,,,,,,,,,,,,0.394590878,-0.328363659,1,0,0,,,,,,,CANYON,LB,z,y,./images/CANYONLB.png,,,,,,,,,,,,,,,,,,,,,0,0.394590878,-0.328363659,1,0,0,1.054,button_right_test,0,58,58,118,1
,,,,,,,,,,,,,,,,,610505ad4f6be10b34394634,,2022-02-12_14h46.43.519,lexical_decision_task_DD_L5,2021.2.3,Linux armv8l,30.02822653,,,,,,,,,,1.2724,0,,,,,,,,,,,,,,,,,,,,,,,0.390429969,-0.285367651,1,0,0,,,,,,,MOOSE,HB,z,y,./images/MOOSEHB.png,,,,,,,,,,,,,,,,,,,,,0,0.390429969,-0.285367651,1,0,0,1.2724,button_right_test,0,59,59,141,1
,,,,,,,,,,,,,,,,,610505ad4f6be10b34394634,,2022-02-12_14h46.43.519,lexical_decision_task_DD_L5,2021.2.3,Linux armv8l,30.02822653,,,,,,,,,,1.1089,1,,,,,,,,,,,,,,,,,,,,,,,0.390429969,-0.324202602,1,0,0,,,,,,,FENCE,C,m,y,./images/FENCE.png,,,,,,,,,,,,,,,,,,,,,0,0.390429969,-0.324202602,1,0,0,1.1089,button_right_test,0,60,60,14,1
,,,,,,,,,,,,,,,,,610505ad4f6be10b34394634,,2022-02-12_14h46.43.519,lexical_decision_task_DD_L5,2021.2.3,Linux armv8l,30.02822653,,,,,,,,,,0.9274,1,,,,,,,,,,,,,,,,,,,,,,,0.400138707,-0.315880933,1,0,0,,,,,,,CHAIN,HB,m,y,./images/CHAINHB.png,,,,,,,,,,,,,,,,,,,,,0,0.400138707,-0.315880933,1,0,0,0.9274,button_right_test,0,61,61,42,1
,,,,,,,,,,,,,,,,,610505ad4f6be10b34394634,,2022-02-12_14h46.43.519,lexical_decision_task_DD_L5,2021.2.3,Linux armv8l,30.02822653,,,,,,,,,,1.2894,1,,,,,,,,,,,,,,,,,,,,,,,-0.33911231,-0.322815534,1,0,0,,,,,,,FINGER,HB,z,y,./images/FINGERHB.png,,,,,,,,,,,,,,,,,,,,,0,-0.33911231,-0.322815534,1,0,0,1.2894,button_left_test,0,62,62,87,1
,,,,,,,,,,,,,,,,,610505ad4f6be10b34394634,,2022-02-12_14h46.43.519,lexical_decision_task_DD_L5,2021.2.3,Linux armv8l,30.02822653,,,,,,,,,,0.9555,1,,,,,,,,,,,,,,,,,,,,,,,0.420943177,-0.296463457,1,0,0,,,,,,,CHALK,LB,m,y,./images/CHALKLB.png,,,,,,,,,,,,,,,,,,,,,0,0.420943177,-0.296463457,1,0,0,0.9555,button_right_test,0,63,63,25,1
,,,,,,,,,,,,,,,,,610505ad4f6be10b34394634,,2022-02-12_14h46.43.519,lexical_decision_task_DD_L5,2021.2.3,Linux armv8l,30.02822653,,,,,,,,,,1.2385,1,,,,,,,,,,,,,,,,,,,,,,,-0.344660194,-0.307558967,1,0,0,,,,,,,SHELF,HB,z,y,./images/SHELFHB.png,,,,,,,,,,,,,,,,,,,,,0,-0.344660194,-0.307558967,1,0,0,1.2385,button_left_test,0,64,64,123,1
,,,,,,,,,,,,,,,,,610505ad4f6be10b34394634,,2022-02-12_14h46.43.519,lexical_decision_task_DD_L5,2021.2.3,Linux armv8l,30.02822653,,,,,,,,,,0.9137,1,,,,,,,,,,,,,,,,,,,,,,,0.42510416,-0.338072397,1,0,0,,,,,,,MONKEY,HB,m,y,./images/MONKEYHB.png,,,,,,,,,,,,,,,,,,,,,0,0.42510416,-0.338072397,1,0,0,0.9137,button_right_test,0,65,65,45,1
,,,,,,,,,,,,,,,,,610505ad4f6be10b34394634,,2022-02-12_14h46.43.519,lexical_decision_task_DD_L5,2021.2.3,Linux armv8l,30.02822653,,,,,,,,,,1.8559,1,,,,,,,,,,,,,,,,,,,,,,,-0.376560332,-0.311719876,1,0,0,,,,,,,PENCE,LB,z,y,./images/PENCELB.png,,,,,,,,,,,,,,,,,,,,,0,-0.376560332,-0.311719876,1,0,0,1.8559,button_left_test,0,66,66,100,1
,,,,,,,,,,,,,,,,,610505ad4f6be10b34394634,,2022-02-12_14h46.43.519,lexical_decision_task_DD_L5,2021.2.3,Linux armv8l,30.02822653,,,,,,,,,,1.6575,0,,,,,,,,,,,,,,,,,,,,,,,-0.354368914,-0.331137352,1,0,0,,,,,,,ALLEY,LB,m,y,./images/ALLEYLB.png,,,,,,,,,,,,,,,,,,,,,0,-0.354368914,-0.331137352,1,0,0,1.6575,button_left_test,0,67,67,55,1
,,,,,,,,,,,,,,,,,610505ad4f6be10b34394634,,2022-02-12_14h46.43.519,lexical_decision_task_DD_L5,2021.2.3,Linux armv8l,30.02822653,,,,,,,,,,1.1381,1,,,,,,,,,,,,,,,,,,,,,,,-0.340499304,-0.306172195,1,0,0,,,,,,,SQUARE,HB,z,y,./images/SQUAREHB.png,,,,,,,,,,,,,,,,,,,,,0,-0.340499304,-0.306172195,1,0,0,1.1381,button_left_test,0,68,68,90,1
,,,,,,,,,,,,,,,,,610505ad4f6be10b34394634,,2022-02-12_14h46.43.519,lexical_decision_task_DD_L5,2021.2.3,Linux armv8l,30.02822653,,,,,,,,,,1.1163,1,,,,,,,,,,,,,,,,,,,,,,,-0.350208042,-0.329750431,1,0,0,,,,,,,LADDER,C,z,y,./images/LADDER.png,,,,,,,,,,,,,,,,,,,,,0,-0.350208042,-0.329750431,1,0,0,1.1163,button_left_test,0,69,69,122,1
,,,,,,,,,,,,,,,,,610505ad4f6be10b34394634,,2022-02-12_14h46.43.519,lexical_decision_task_DD_L5,2021.2.3,Linux armv8l,30.02822653,,,,,,,,,,1.4931,1,,,,,,,,,,,,,,,,,,,,,,,-0.37794728,-0.311719876,1,0,0,,,,,,,SKIING,C,z,y,./images/SKIING.png,,,,,,,,,,,,,,,,,,,,,0,-0.37794728,-0.311719876,1,0,0,1.4931,button_left_test,0,70,70,101,1
,,,,,,,,,,,,,,,,,610505ad4f6be10b34394634,,2022-02-12_14h46.43.519,lexical_decision_task_DD_L5,2021.2.3,Linux armv8l,30.02822653,,,,,,,,,,2.4898,0,,,,,,,,,,,,,,,,,,,,,,,-0.332177505,-0.307558967,1,0,0,,,,,,,GARDEN,LB,m,y,./images/GARDENLB.png,,,,,,,,,,,,,,,,,,,,,0,-0.332177505,-0.307558967,1,0,0,2.4898,button_left_test,0,71,71,10,1
,,,,,,,,,,,,,,,,,610505ad4f6be10b34394634,,2022-02-12_14h46.43.519,lexical_decision_task_DD_L5,2021.2.3,Linux armv8l,30.02822653,,,,,,,,,,1.958,1,,,,,,,,,,,,,,,,,,,,,,,-0.318307895,-0.245145631,1,0,0,,,,,,,WALRUS,C,z,y,./images/WALRUS.png,,,,,,,,,,,,,,,,,,,,,0,-0.318307895,-0.245145631,1,0,0,1.958,button_left_test,0,72,72,107,1
,,,,,,,,,,,,,,,,,610505ad4f6be10b34394634,,2022-02-12_14h46.43.519,lexical_decision_task_DD_L5,2021.2.3,Linux armv8l,30.02822653,,,,,,,,,,1.1681,1,,,,,,,,,,,,,,,,,,,,,,,-0.33911231,-0.329750431,1,0,0,,,,,,,MIRROR,HB,z,y,./images/MIRRORHB.png,,,,,,,,,,,,,,,,,,,,,0,-0.33911231,-0.329750431,1,0,0,1.1681,button_left_test,0,73,73,147,1
,,,,,,,,,,,,,,,,,610505ad4f6be10b34394634,,2022-02-12_14h46.43.519,lexical_decision_task_DD_L5,2021.2.3,Linux armv8l,30.02822653,,,,,,,,,,1.8566,0,,,,,,,,,,,,,,,,,,,,,,,-0.322468785,-0.324202602,1,0,0,,,,,,,STREAM,C,m,y,./images/STREAM.png,,,,,,,,,,,,,,,,,,,,,0,-0.322468785,-0.324202602,1,0,0,1.8566,button_left_test,0,74,74,41,1
,,,,,,,,,,,,,,,,,610505ad4f6be10b34394634,,2022-02-12_14h46.43.519,lexical_decision_task_DD_L5,2021.2.3,Linux armv8l,30.02822653,,,,,,,,,,0.9941,0,,,,,,,,,,,,,,,,,,,,,,,-0.326166875,-0.326976443,1,0,0,,,,,,,PLANET,C,m,y,./images/PLANET.png,,,,,,,,,,,,,,,,,,,,,0,-0.326166875,-0.326976443,1,0,0,0.9941,button_left_test,0,75,75,80,1
,,,,,,,,,,,,,,,,,610505ad4f6be10b34394634,,2022-02-12_14h46.43.519,lexical_decision_task_DD_L5,2021.2.3,Linux armv8l,30.02822653,,,,,,,,,,0.9395,1,,,,,,,,,,,,,,,,,,,,,,,0.40707353,-0.300624218,1,0,0,,,,,,,WALNUT,HB,m,y,./images/WALNUTHB.png,,,,,,,,,,,,,,,,,,,,,0,0.40707353,-0.300624218,1,0,0,0.9395,button_right_test,0,76,76,0,1
,,,,,,,,,,,,,,,,,610505ad4f6be10b34394634,,2022-02-12_14h46.43.519,lexical_decision_task_DD_L5,2021.2.3,Linux armv8l,30.02822653,,,,,,,,,,1.7238,0,,,,,,,,,,,,,,,,,,,,,,,-0.373786389,-0.310332956,1,0,0,,,,,,,BROOM,HB,m,y,./images/BROOMHB.png,,,,,,,,,,,,,,,,,,,,,0,-0.373786389,-0.310332956,1,0,0,1.7238,button_left_test,0,77,77,78,1
,,,,,,,,,,,,,,,,,610505ad4f6be10b34394634,,2022-02-12_14h46.43.519,lexical_decision_task_DD_L5,2021.2.3,Linux armv8l,30.02822653,,,,,,,,,,1.1876,1,,,,,,,,,,,,,,,,,,,,,,,-0.35991678,-0.33391134,1,0,0,,,,,,,SWING,LB,z,y,./images/SWINGLB.png,,,,,,,,,,,,,,,,,,,,,0,-0.35991678,-0.33391134,1,0,0,1.1876,button_left_test,0,78,78,124,1
,,,,,,,,,,,,,,,,,610505ad4f6be10b34394634,,2022-02-12_14h46.43.519,lexical_decision_task_DD_L5,2021.2.3,Linux armv8l,30.02822653,,,,,,,,,,1.2713,1,,,,,,,,,,,,,,,,,,,,,,,-0.373786389,-0.318654921,1,0,0,,,,,,,BANNER,LB,z,y,./images/BANNERLB.png,,,,,,,,,,,,,,,,,,,,,0,-0.373786389,-0.318654921,1,0,0,1.2713,button_left_test,0,79,79,136,1
,,,,,,,,,,,,,,,,,610505ad4f6be10b34394634,,2022-02-12_14h46.43.519,lexical_decision_task_DD_L5,2021.2.3,Linux armv8l,30.02822653,,,,,,,,,,1.1081,1,,,,,,,,,,,,,,,,,,,,,,,0.401525701,-0.308946184,1,0,0,,,,,,,SAUCE,HB,m,y,./images/SAUCEHB.png,,,,,,,,,,,,,,,,,,,,,0,0.401525701,-0.308946184,1,0,0,1.1081,button_right_test,0,80,80,51,1
,,,,,,,,,,,,,,,,,610505ad4f6be10b34394634,,2022-02-12_14h46.43.519,lexical_decision_task_DD_L5,2021.2.3,Linux armv8l,30.02822653,,,,,,,,,,1.1134,0,,,,,,,,,,,,,,,,,,,,,,,-0.358529804,-0.331137352,1,0,0,,,,,,,COLLAR,HB,m,y,./images/COLLARHB.png,,,,,,,,,,,,,,,,,,,,,0,-0.358529804,-0.331137352,1,0,0,1.1134,button_left_test,0,81,81,15,1
,,,,,,,,,,,,,,,,,610505ad4f6be10b34394634,,2022-02-12_14h46.43.519,lexical_decision_task_DD_L5,2021.2.3,Linux armv8l,30.02822653,,,,,,,,,,1.4103,1,,,,,,,,,,,,,,,,,,,,,,,-0.354368914,-0.307558967,1,0,0,,,,,,,STRING,C,z,y,./images/STRING.png,,,,,,,,,,,,,,,,,,,,,0,-0.354368914,-0.307558967,1,0,0,1.4103,button_left_test,0,82,82,125,1
,,,,,,,,,,,,,,,,,610505ad4f6be10b34394634,,2022-02-12_14h46.43.519,lexical_decision_task_DD_L5,2021.2.3,Linux armv8l,30.02822653,,,,,,,,,,1.2267,1,,,,,,,,,,,,,,,,,,,,,,,-0.00069346,-0.42822473,1,0,0,,,,,,,MUFFIN,LB,z,y,./images/MUFFINLB.png,break_done_button,,,,,,,,,,,,,,,,,,,,0,-0.35159499,-0.318654921,1,0,0,1.2267,button_left_test,0,83,83,139,1
,,,,,,,,,,,,,,,,,610505ad4f6be10b34394634,,2022-02-12_14h46.43.519,lexical_decision_task_DD_L5,2021.2.3,Linux armv8l,30.02822653,,,,,,,,,,1.2579,1,,,,,,,,,,,,,,,,,,,,,,,-0.354368914,-0.315880933,1,0,0,,,,,,,CRUST,LB,z,y,./images/CRUSTLB.png,,,,,,,,,,,,,,,,,,,,,0,-0.354368914,-0.315880933,1,0,0,1.2579,button_left_test,0,84,84,163,1
,,,,,,,,,,,,,,,,,610505ad4f6be10b34394634,,2022-02-12_14h46.43.519,lexical_decision_task_DD_L5,2021.2.3,Linux armv8l,30.02822653,,,,,,,,,,1.1067,1,,,,,,,,,,,,,,,,,,,,,,,-0.325242718,-0.313106796,1,0,0,,,,,,,COUCH,C,z,y,./images/COUCH.png,,,,,,,,,,,,,,,,,,,,,0,-0.325242718,-0.313106796,1,0,0,1.1067,button_left_test,0,85,85,161,1
,,,,,,,,,,,,,,,,,610505ad4f6be10b34394634,,2022-02-12_14h46.43.519,lexical_decision_task_DD_L5,2021.2.3,Linux armv8l,30.02822653,,,,,,,,,,1.2101,0,,,,,,,,,,,,,,,,,,,,,,,-0.325242718,-0.306172195,1,0,0,,,,,,,STEAK,LB,m,y,./images/STEAKLB.png,,,,,,,,,,,,,,,,,,,,,0,-0.325242718,-0.306172195,1,0,0,1.2101,button_left_test,0,86,86,31,1
,,,,,,,,,,,,,,,,,610505ad4f6be10b34394634,,2022-02-12_14h46.43.519,lexical_decision_task_DD_L5,2021.2.3,Linux armv8l,30.02822653,,,,,,,,,,1.1301,1,,,,,,,,,,,,,,,,,,,,,,,-0.330790566,-0.307558967,1,0,0,,,,,,,STORM,HB,z,y,./images/STORMHB.png,,,,,,,,,,,,,,,,,,,,,0,-0.330790566,-0.307558967,1,0,0,1.1301,button_left_test,0,87,87,114,1
,,,,,,,,,,,,,,,,,610505ad4f6be10b34394634,,2022-02-12_14h46.43.519,lexical_decision_task_DD_L5,2021.2.3,Linux armv8l,30.02822653,,,,,,,,,,1.0069,1,,,,,,,,,,,,,,,,,,,,,,,-0.314146986,-0.315880933,1,0,0,,,,,,,BURIAL,C,z,y,./images/BURIAL.png,,,,,,,,,,,,,,,,,,,,,0,-0.314146986,-0.315880933,1,0,0,1.0069,button_left_test,0,88,88,143,1
,,,,,,,,,,,,,,,,,610505ad4f6be10b34394634,,2022-02-12_14h46.43.519,lexical_decision_task_DD_L5,2021.2.3,Linux armv8l,30.02822653,,,,,,,,,,0.9965,1,,,,,,,,,,,,,,,,,,,,,,,0.377947317,-0.254854369,1,0,0,,,,,,,STAIN,HB,m,y,./images/STAINHB.png,,,,,,,,,,,,,,,,,,,,,0,0.377947317,-0.254854369,1,0,0,0.9965,button_right_test,0,89,89,6,1
,,,,,,,,,,,,,,,,,610505ad4f6be10b34394634,,2022-02-12_14h46.43.519,lexical_decision_task_DD_L5,2021.2.3,Linux armv8l,30.02822653,,,,,,,,,,1.0904,1,,,,,,,,,,,,,,,,,,,,,,,-0.371012465,-0.311719876,1,0,0,,,,,,,CRADLE,C,z,y,./images/CRADLE.png,,,,,,,,,,,,,,,,,,,,,0,-0.371012465,-0.311719876,1,0,0,1.0904,button_left_test,0,90,90,104,1
