key_resp.keys,instr_done_touch.x,instr_done_touch.y,instr_done_touch.leftButton,instr_done_touch.midButton,instr_done_touch.rightButton,instr_done_touch.clicked_name,instruction_pages.thisRepN,instruction_pages.thisTrialN,instruction_pages.thisN,instruction_pages.thisIndex,instruction_pages.ran,pageN,phase,instruct_text,has_image,instruct_image,participant,age,date,expName,psychopyVersion,OS,frameRate,key_resp.rt,response.keys,response.corr,response.rt,touch_resp.x,touch_resp.y,touch_resp.leftButton,touch_resp.midButton,touch_resp.rightButton,touch_resp.time,touch_resp.clicked_name,rt,corr,practrials.thisRepN,practrials.thisTrialN,practrials.thisN,practrials.thisIndex,practrials.ran,TrialID,Target,corrAns,end_of_practice_trials_pages.thisRepN,end_of_practice_trials_pages.thisTrialN,end_of_practice_trials_pages.thisN,end_of_practice_trials_pages.thisIndex,end_of_practice_trials_pages.ran,key_resp_2.keys,key_resp_2.corr,key_resp_2.rt,targ_click.x,targ_click.y,targ_click.leftButton,targ_click.midButton,targ_click.rightButton,targ_click.time,targ_click.clicked_name,break_done_touch.x,break_done_touch.y,break_done_touch.leftButton,break_done_touch.midButton,break_done_touch.rightButton,break_done_keyboard.keys,maintrials.thisRepN,maintrials.thisTrialN,maintrials.thisN,maintrials.thisIndex,maintrials.ran,string,blur,study,lex,stim_path,break_done_keyboard.rt,mouse_2.x,mouse_2.y,mouse_2.leftButton,mouse_2.midButton,mouse_2.rightButton,mouse_2.clicked_name,slider.response,slider.rt,trials.thisRepN,trials.thisTrialN,trials.thisN,trials.thisIndex,trials.ran,test_instructions.thisRepN,test_instructions.thisTrialN,test_instructions.thisN,test_instructions.thisIndex,test_instructions.ran,key_resp_3.keys,key_resp_3.corr,key_resp_3.rt,test_click.x,test_click.y,test_click.leftButton,test_click.midButton,test_click.rightButton,test_click.time,test_click.clicked_name,test_phase.thisRepN,test_phase.thisTrialN,test_phase.thisN,test_phase.thisIndex,test_phase.ran
,-0.039999987,-0.42666668,1,0,0,instr_done_button,0,0,0,0,1,1,instructions,"INSTRUCTIONS
At the start of each trial, look at the plus sign  (+) in the center of the screen.  This tells you that a trial is about to begin and where to look. Second, the plus sign will disappear and a string of letters will appear. Your task is to determine if the string of letters is a word or not. If the item is a word press the M key (on keyboard)  or touch the word button (phone/tablet).  If the item is not a word,  press the  Z key (on keyboard)  or touch the nonword button (on phone/tablet). 
Press the space bar or touch  continue.",0,,610789ba8948b4b6cdfd4907,32,2022-02-12_14h43.25.200,lexical_decision_task_DD_L3,2021.2.3,Win32,60.01680471,,,,,,,,,,,,,,,,,,,,,,,,,,,,,,,,,,,,,,,,,,,,,,,,,,,,,,,,,,,,,,,,,,,,,,,,,,,,,,,,,,,,,,
space,0.88777794,-0.407777859,0,0,0,,0,1,1,1,1,2,instructions,"If your device has a keyboard, press the 'Z' key for nonwords and the 'M' key for words.





Press the space bar or touch the button below to continue.",0,keyboard-example.gif,610789ba8948b4b6cdfd4907,32,2022-02-12_14h43.25.200,lexical_decision_task_DD_L3,2021.2.3,Win32,60.01680471,8.7712,,,,,,,,,,,,,,,,,,,,,,,,,,,,,,,,,,,,,,,,,,,,,,,,,,,,,,,,,,,,,,,,,,,,,,,,,,,,,,,,,,,,,
space,0.88777794,-0.407777859,0,0,0,,0,2,2,2,1,3,instructions,"If you are using a touchscreen only device, use the buttons on the screen. Do not use the mouse.





Press the space bar or touch the button below to continue.",0,touchscreen-example.gif,610789ba8948b4b6cdfd4907,32,2022-02-12_14h43.25.200,lexical_decision_task_DD_L3,2021.2.3,Win32,60.01680471,4.5282,,,,,,,,,,,,,,,,,,,,,,,,,,,,,,,,,,,,,,,,,,,,,,,,,,,,,,,,,,,,,,,,,,,,,,,,,,,,,,,,,,,,,
space,0.88777794,-0.407777859,0,0,0,,0,3,3,3,1,4,instructions,"It is very important that you respond as quickly and accurately as possible, as each letter string will only be on the screen for two seconds. If you do not respond within this time, the message 'Too slow!' will be displayed and the experiment will progress to the next letter string. The first 20 trials will be practice trials and you will receive feedback on your answers. 

Press the space bar or touch the button below to start the practice trials.",0,,610789ba8948b4b6cdfd4907,32,2022-02-12_14h43.25.200,lexical_decision_task_DD_L3,2021.2.3,Win32,60.01680471,18.0573,,,,,,,,,,,,,,,,,,,,,,,,,,,,,,,,,,,,,,,,,,,,,,,,,,,,,,,,,,,,,,,,,,,,,,,,,,,,,,,,,,,,,
,,,,,,,,,,,,,,,,,610789ba8948b4b6cdfd4907,32,2022-02-12_14h43.25.200,lexical_decision_task_DD_L3,2021.2.3,Win32,60.01680471,,m,1,1.2905,,,,,,,,1.2905,1,0,0,0,7,1,1001,VOLUME,m,,,,,,,,,,,,,,,,,,,,,,,,,,,,,,,,,,,,,,,,,,,,,,,,,,,,,,,,,,,,,,,,,
,,,,,,,,,,,,,,,,,610789ba8948b4b6cdfd4907,32,2022-02-12_14h43.25.200,lexical_decision_task_DD_L3,2021.2.3,Win32,60.01680471,,z,1,0.9492,,,,,,,,0.9492,1,0,1,1,9,1,1001,FARINY,z,,,,,,,,,,,,,,,,,,,,,,,,,,,,,,,,,,,,,,,,,,,,,,,,,,,,,,,,,,,,,,,,,
,,,,,,,,,,,,,,,,,610789ba8948b4b6cdfd4907,32,2022-02-12_14h43.25.200,lexical_decision_task_DD_L3,2021.2.3,Win32,60.01680471,,z,1,0.7852,,,,,,,,0.7852,1,0,2,2,15,1,1001,WHAISE,z,,,,,,,,,,,,,,,,,,,,,,,,,,,,,,,,,,,,,,,,,,,,,,,,,,,,,,,,,,,,,,,,,
,,,,,,,,,,,,,,,,,610789ba8948b4b6cdfd4907,32,2022-02-12_14h43.25.200,lexical_decision_task_DD_L3,2021.2.3,Win32,60.01680471,,z,1,0.7462,,,,,,,,0.7462,1,0,3,3,13,1,1001,ROUPET,z,,,,,,,,,,,,,,,,,,,,,,,,,,,,,,,,,,,,,,,,,,,,,,,,,,,,,,,,,,,,,,,,,
,,,,,,,,,,,,,,,,,610789ba8948b4b6cdfd4907,32,2022-02-12_14h43.25.200,lexical_decision_task_DD_L3,2021.2.3,Win32,60.01680471,,m,1,0.5532,,,,,,,,0.5532,1,0,4,4,1,1,1001,ADJUST,m,,,,,,,,,,,,,,,,,,,,,,,,,,,,,,,,,,,,,,,,,,,,,,,,,,,,,,,,,,,,,,,,,
,,,,,,,,,,,,,,,,,610789ba8948b4b6cdfd4907,32,2022-02-12_14h43.25.200,lexical_decision_task_DD_L3,2021.2.3,Win32,60.01680471,,m,1,0.5665,,,,,,,,0.5665,1,0,5,5,3,1,1001,MATRIX,m,,,,,,,,,,,,,,,,,,,,,,,,,,,,,,,,,,,,,,,,,,,,,,,,,,,,,,,,,,,,,,,,,
,,,,,,,,,,,,,,,,,610789ba8948b4b6cdfd4907,32,2022-02-12_14h43.25.200,lexical_decision_task_DD_L3,2021.2.3,Win32,60.01680471,,m,0,0.8149,,,,,,,,0.8149,0,0,6,6,12,1,1001,SPRINY,z,,,,,,,,,,,,,,,,,,,,,,,,,,,,,,,,,,,,,,,,,,,,,,,,,,,,,,,,,,,,,,,,,
,,,,,,,,,,,,,,,,,610789ba8948b4b6cdfd4907,32,2022-02-12_14h43.25.200,lexical_decision_task_DD_L3,2021.2.3,Win32,60.01680471,,m,1,0.6335,,,,,,,,0.6335,1,0,7,7,4,1,1001,SQUEAK,m,,,,,,,,,,,,,,,,,,,,,,,,,,,,,,,,,,,,,,,,,,,,,,,,,,,,,,,,,,,,,,,,,
,,,,,,,,,,,,,,,,,610789ba8948b4b6cdfd4907,32,2022-02-12_14h43.25.200,lexical_decision_task_DD_L3,2021.2.3,Win32,60.01680471,,z,1,0.8839,,,,,,,,0.8839,1,0,8,8,8,1,1001,ASLERT,z,,,,,,,,,,,,,,,,,,,,,,,,,,,,,,,,,,,,,,,,,,,,,,,,,,,,,,,,,,,,,,,,,
,,,,,,,,,,,,,,,,,610789ba8948b4b6cdfd4907,32,2022-02-12_14h43.25.200,lexical_decision_task_DD_L3,2021.2.3,Win32,60.01680471,,z,1,0.8228,,,,,,,,0.8228,1,0,9,9,10,1,1001,INLADE,z,,,,,,,,,,,,,,,,,,,,,,,,,,,,,,,,,,,,,,,,,,,,,,,,,,,,,,,,,,,,,,,,,
,,,,,,,,,,,,,,,,,610789ba8948b4b6cdfd4907,32,2022-02-12_14h43.25.200,lexical_decision_task_DD_L3,2021.2.3,Win32,60.01680471,,m,1,0.6012,,,,,,,,0.6012,1,0,10,10,6,1,1001,ZOMBIE,m,,,,,,,,,,,,,,,,,,,,,,,,,,,,,,,,,,,,,,,,,,,,,,,,,,,,,,,,,,,,,,,,,
,,,,,,,,,,,,,,,,,610789ba8948b4b6cdfd4907,32,2022-02-12_14h43.25.200,lexical_decision_task_DD_L3,2021.2.3,Win32,60.01680471,,m,1,0.5282,,,,,,,,0.5282,1,0,11,11,5,1,1001,OBTAIN,m,,,,,,,,,,,,,,,,,,,,,,,,,,,,,,,,,,,,,,,,,,,,,,,,,,,,,,,,,,,,,,,,,
,,,,,,,,,,,,,,,,,610789ba8948b4b6cdfd4907,32,2022-02-12_14h43.25.200,lexical_decision_task_DD_L3,2021.2.3,Win32,60.01680471,,m,1,0.6121,,,,,,,,0.6121,1,0,12,12,0,1,1001,UTOPIA,m,,,,,,,,,,,,,,,,,,,,,,,,,,,,,,,,,,,,,,,,,,,,,,,,,,,,,,,,,,,,,,,,,
,,,,,,,,,,,,,,,,,610789ba8948b4b6cdfd4907,32,2022-02-12_14h43.25.200,lexical_decision_task_DD_L3,2021.2.3,Win32,60.01680471,,m,1,0.5462,,,,,,,,0.5462,1,0,13,13,2,1,1001,ALMOND,m,,,,,,,,,,,,,,,,,,,,,,,,,,,,,,,,,,,,,,,,,,,,,,,,,,,,,,,,,,,,,,,,,
,,,,,,,,,,,,,,,,,610789ba8948b4b6cdfd4907,32,2022-02-12_14h43.25.200,lexical_decision_task_DD_L3,2021.2.3,Win32,60.01680471,,z,1,0.6634,,,,,,,,0.6634,1,0,14,14,11,1,1001,RASHET,z,,,,,,,,,,,,,,,,,,,,,,,,,,,,,,,,,,,,,,,,,,,,,,,,,,,,,,,,,,,,,,,,,
,,,,,,,,,,,,,,,,,610789ba8948b4b6cdfd4907,32,2022-02-12_14h43.25.200,lexical_decision_task_DD_L3,2021.2.3,Win32,60.01680471,,z,1,0.6592,,,,,,,,0.6592,1,0,15,15,14,1,1001,THRALE,z,,,,,,,,,,,,,,,,,,,,,,,,,,,,,,,,,,,,,,,,,,,,,,,,,,,,,,,,,,,,,,,,,
space,0.88777794,-0.407777859,0,0,0,,,,,,,1,end_of_practice,"You have completed the practice trials. During the experimental trials, you will not receive feedback. 
Before you begin, please ensure that you are in a comfortable and quiet location and will not be disturbed for about 15 minutes, as we cannot use your data if you do not complete all the trials. 
 When you are ready to start the experimental trials, please press space or touch the button below.",,,610789ba8948b4b6cdfd4907,32,2022-02-12_14h43.25.200,lexical_decision_task_DD_L3,2021.2.3,Win32,60.01680471,14.6302,,,,,,,,,,,,,,,,,,,,,0,0,0,0,1,,,,,,,,,,,,,,,,,,,,,,,,,,,,,,,,,,,,,,,,,,,,,,,,,,,,,,,,,,,,
,,,,,,,,,,,,,,,,,610789ba8948b4b6cdfd4907,32,2022-02-12_14h43.25.200,lexical_decision_task_DD_L3,2021.2.3,Win32,60.01680471,,,,,,,,,,,,0.8408,0,,,,,,,,,,,,,,m,0,0.8408,,,,,,,,0.88777794,-0.407777859,0,0,0,,0,0,0,120,1,RINED,C,old,z,./images/RINED.png,,,,,,,,,,,,,,,,,,,,,,,,,,,,,,,,,,
,,,,,,,,,,,,,,,,,610789ba8948b4b6cdfd4907,32,2022-02-12_14h43.25.200,lexical_decision_task_DD_L3,2021.2.3,Win32,60.01680471,,,,,,,,,,,,1.0523,1,,,,,,,,,,,,,,z,1,1.0523,,,,,,,,0.88777794,-0.407777859,0,0,0,,0,1,1,126,1,GUELS,C,old,z,./images/GUELS.png,,,,,,,,,,,,,,,,,,,,,,,,,,,,,,,,,,
,,,,,,,,,,,,,,,,,610789ba8948b4b6cdfd4907,32,2022-02-12_14h43.25.200,lexical_decision_task_DD_L3,2021.2.3,Win32,60.01680471,,,,,,,,,,,,0.6721,1,,,,,,,,,,,,,,z,1,0.6721,,,,,,,,0.88777794,-0.407777859,0,0,0,,0,2,2,93,1,SMONE,C,old,z,./images/SMONE.png,,,,,,,,,,,,,,,,,,,,,,,,,,,,,,,,,,
,,,,,,,,,,,,,,,,,610789ba8948b4b6cdfd4907,32,2022-02-12_14h43.25.200,lexical_decision_task_DD_L3,2021.2.3,Win32,60.01680471,,,,,,,,,,,,0.8157,1,,,,,,,,,,,,,,m,1,0.8157,,,,,,,,0.88777794,-0.407777859,0,0,0,,0,3,3,24,1,SCREW,LB,old,m,./images/SCREWLB.png,,,,,,,,,,,,,,,,,,,,,,,,,,,,,,,,,,
,,,,,,,,,,,,,,,,,610789ba8948b4b6cdfd4907,32,2022-02-12_14h43.25.200,lexical_decision_task_DD_L3,2021.2.3,Win32,60.01680471,,,,,,,,,,,,0.9657,0,,,,,,,,,,,,,,m,0,0.9657,,,,,,,,0.88777794,-0.407777859,0,0,0,,0,4,4,121,1,CEERS,HB,old,z,./images/CEERSHB.png,,,,,,,,,,,,,,,,,,,,,,,,,,,,,,,,,,
,,,,,,,,,,,,,,,,,610789ba8948b4b6cdfd4907,32,2022-02-12_14h43.25.200,lexical_decision_task_DD_L3,2021.2.3,Win32,60.01680471,,,,,,,,,,,,0.5654,1,,,,,,,,,,,,,,m,1,0.5654,,,,,,,,0.88777794,-0.407777859,0,0,0,,0,5,5,51,1,ONION,LB,old,m,./images/ONIONLB.png,,,,,,,,,,,,,,,,,,,,,,,,,,,,,,,,,,
,,,,,,,,,,,,,,,,,610789ba8948b4b6cdfd4907,32,2022-02-12_14h43.25.200,lexical_decision_task_DD_L3,2021.2.3,Win32,60.01680471,,,,,,,,,,,,1.1379,0,,,,,,,,,,,,,,m,0,1.1379,,,,,,,,0.88777794,-0.407777859,0,0,0,,0,6,6,148,1,JOMS,HB,old,z,./images/JOMSHB.png,,,,,,,,,,,,,,,,,,,,,,,,,,,,,,,,,,
,,,,,,,,,,,,,,,,,610789ba8948b4b6cdfd4907,32,2022-02-12_14h43.25.200,lexical_decision_task_DD_L3,2021.2.3,Win32,60.01680471,,,,,,,,,,,,1.5032,1,,,,,,,,,,,,,,m,1,1.5032,,,,,,,,0.88777794,-0.407777859,0,0,0,,0,7,7,17,1,SKIING,HB,old,m,./images/SKIINGHB.png,,,,,,,,,,,,,,,,,,,,,,,,,,,,,,,,,,
,,,,,,,,,,,,,,,,,610789ba8948b4b6cdfd4907,32,2022-02-12_14h43.25.200,lexical_decision_task_DD_L3,2021.2.3,Win32,60.01680471,,,,,,,,,,,,1.054,1,,,,,,,,,,,,,,m,1,1.054,,,,,,,,0.88777794,-0.407777859,0,0,0,,0,8,8,43,1,MOSQUE,C,old,m,./images/MOSQUE.png,,,,,,,,,,,,,,,,,,,,,,,,,,,,,,,,,,
,,,,,,,,,,,,,,,,,610789ba8948b4b6cdfd4907,32,2022-02-12_14h43.25.200,lexical_decision_task_DD_L3,2021.2.3,Win32,60.01680471,,,,,,,,,,,,0.6069,1,,,,,,,,,,,,,,z,1,0.6069,,,,,,,,0.88777794,-0.407777859,0,0,0,,0,9,9,102,1,DULLE,C,old,z,./images/DULLE.png,,,,,,,,,,,,,,,,,,,,,,,,,,,,,,,,,,
,,,,,,,,,,,,,,,,,610789ba8948b4b6cdfd4907,32,2022-02-12_14h43.25.200,lexical_decision_task_DD_L3,2021.2.3,Win32,60.01680471,,,,,,,,,,,,0.5541,1,,,,,,,,,,,,,,m,1,0.5541,,,,,,,,0.88777794,-0.407777859,0,0,0,,0,10,10,49,1,DRUMS,C,old,m,./images/DRUMS.png,,,,,,,,,,,,,,,,,,,,,,,,,,,,,,,,,,
,,,,,,,,,,,,,,,,,610789ba8948b4b6cdfd4907,32,2022-02-12_14h43.25.200,lexical_decision_task_DD_L3,2021.2.3,Win32,60.01680471,,,,,,,,,,,,0.9553,0,,,,,,,,,,,,,,m,0,0.9553,,,,,,,,0.88777794,-0.407777859,0,0,0,,0,11,11,123,1,SEDGE,C,old,z,./images/SEDGE.png,,,,,,,,,,,,,,,,,,,,,,,,,,,,,,,,,,
,,,,,,,,,,,,,,,,,610789ba8948b4b6cdfd4907,32,2022-02-12_14h43.25.200,lexical_decision_task_DD_L3,2021.2.3,Win32,60.01680471,,,,,,,,,,,,0.9002,1,,,,,,,,,,,,,,z,1,0.9002,,,,,,,,0.88777794,-0.407777859,0,0,0,,0,12,12,119,1,PAFER,LB,old,z,./images/PAFERLB.png,,,,,,,,,,,,,,,,,,,,,,,,,,,,,,,,,,
,,,,,,,,,,,,,,,,,610789ba8948b4b6cdfd4907,32,2022-02-12_14h43.25.200,lexical_decision_task_DD_L3,2021.2.3,Win32,60.01680471,,,,,,,,,,,,1.4005,0,,,,,,,,,,,,,,z,0,1.4005,,,,,,,,0.88777794,-0.407777859,0,0,0,,0,13,13,38,1,LADDER,HB,old,m,./images/LADDERHB.png,,,,,,,,,,,,,,,,,,,,,,,,,,,,,,,,,,
,,,,,,,,,,,,,,,,,610789ba8948b4b6cdfd4907,32,2022-02-12_14h43.25.200,lexical_decision_task_DD_L3,2021.2.3,Win32,60.01680471,,,,,,,,,,,,0.5967,1,,,,,,,,,,,,,,m,1,0.5967,,,,,,,,0.88777794,-0.407777859,0,0,0,,0,14,14,33,1,MAGGOT,LB,old,m,./images/MAGGOTLB.png,,,,,,,,,,,,,,,,,,,,,,,,,,,,,,,,,,
,,,,,,,,,,,,,,,,,610789ba8948b4b6cdfd4907,32,2022-02-12_14h43.25.200,lexical_decision_task_DD_L3,2021.2.3,Win32,60.01680471,,,,,,,,,,,,0.7082,1,,,,,,,,,,,,,,z,1,0.7082,,,,,,,,0.88777794,-0.407777859,0,0,0,,0,15,15,101,1,GLEET,LB,old,z,./images/GLEETLB.png,,,,,,,,,,,,,,,,,,,,,,,,,,,,,,,,,,
,,,,,,,,,,,,,,,,,610789ba8948b4b6cdfd4907,32,2022-02-12_14h43.25.200,lexical_decision_task_DD_L3,2021.2.3,Win32,60.01680471,,,,,,,,,,,,1.259,1,,,,,,,,,,,,,,m,1,1.259,,,,,,,,0.88777794,-0.407777859,0,0,0,,0,16,16,26,1,SMOKER,HB,old,m,./images/SMOKERHB.png,,,,,,,,,,,,,,,,,,,,,,,,,,,,,,,,,,
,,,,,,,,,,,,,,,,,610789ba8948b4b6cdfd4907,32,2022-02-12_14h43.25.200,lexical_decision_task_DD_L3,2021.2.3,Win32,60.01680471,,,,,,,,,,,,0.5976,1,,,,,,,,,,,,,,m,1,0.5976,,,,,,,,0.88777794,-0.407777859,0,0,0,,0,17,17,66,1,SWEAT,LB,old,m,./images/SWEATLB.png,,,,,,,,,,,,,,,,,,,,,,,,,,,,,,,,,,
,,,,,,,,,,,,,,,,,610789ba8948b4b6cdfd4907,32,2022-02-12_14h43.25.200,lexical_decision_task_DD_L3,2021.2.3,Win32,60.01680471,,,,,,,,,,,,0.6284,1,,,,,,,,,,,,,,z,1,0.6284,,,,,,,,0.88777794,-0.407777859,0,0,0,,0,18,18,117,1,STEEG,C,old,z,./images/STEEG.png,,,,,,,,,,,,,,,,,,,,,,,,,,,,,,,,,,
,,,,,,,,,,,,,,,,,610789ba8948b4b6cdfd4907,32,2022-02-12_14h43.25.200,lexical_decision_task_DD_L3,2021.2.3,Win32,60.01680471,,,,,,,,,,,,0.953,1,,,,,,,,,,,,,,m,1,0.953,,,,,,,,0.88777794,-0.407777859,0,0,0,,0,19,19,59,1,BURIAL,HB,old,m,./images/BURIALHB.png,,,,,,,,,,,,,,,,,,,,,,,,,,,,,,,,,,
,,,,,,,,,,,,,,,,,610789ba8948b4b6cdfd4907,32,2022-02-12_14h43.25.200,lexical_decision_task_DD_L3,2021.2.3,Win32,60.01680471,,,,,,,,,,,,0.9092,1,,,,,,,,,,,,,,z,1,0.9092,,,,,,,,0.88777794,-0.407777859,0,0,0,,0,20,20,124,1,TUNCH,HB,old,z,./images/TUNCHHB.png,,,,,,,,,,,,,,,,,,,,,,,,,,,,,,,,,,
,,,,,,,,,,,,,,,,,610789ba8948b4b6cdfd4907,32,2022-02-12_14h43.25.200,lexical_decision_task_DD_L3,2021.2.3,Win32,60.01680471,,,,,,,,,,,,0.7875,1,,,,,,,,,,,,,,z,1,0.7875,,,,,,,,0.88777794,-0.407777859,0,0,0,,0,21,21,137,1,JOOST,LB,old,z,./images/JOOSTLB.png,,,,,,,,,,,,,,,,,,,,,,,,,,,,,,,,,,
,,,,,,,,,,,,,,,,,610789ba8948b4b6cdfd4907,32,2022-02-12_14h43.25.200,lexical_decision_task_DD_L3,2021.2.3,Win32,60.01680471,,,,,,,,,,,,0.9416,0,,,,,,,,,,,,,,m,0,0.9416,,,,,,,,0.88777794,-0.407777859,0,0,0,,0,22,22,100,1,DRIBS,HB,old,z,./images/DRIBSHB.png,,,,,,,,,,,,,,,,,,,,,,,,,,,,,,,,,,
,,,,,,,,,,,,,,,,,610789ba8948b4b6cdfd4907,32,2022-02-12_14h43.25.200,lexical_decision_task_DD_L3,2021.2.3,Win32,60.01680471,,,,,,,,,,,,0.6759,1,,,,,,,,,,,,,,m,1,0.6759,,,,,,,,0.88777794,-0.407777859,0,0,0,,0,23,23,14,1,PICKLE,HB,old,m,./images/PICKLEHB.png,,,,,,,,,,,,,,,,,,,,,,,,,,,,,,,,,,
,,,,,,,,,,,,,,,,,610789ba8948b4b6cdfd4907,32,2022-02-12_14h43.25.200,lexical_decision_task_DD_L3,2021.2.3,Win32,60.01680471,,,,,,,,,,,,0.7625,1,,,,,,,,,,,,,,m,1,0.7625,,,,,,,,0.88777794,-0.407777859,0,0,0,,0,24,24,74,1,CEMENT,HB,old,m,./images/CEMENTHB.png,,,,,,,,,,,,,,,,,,,,,,,,,,,,,,,,,,
,,,,,,,,,,,,,,,,,610789ba8948b4b6cdfd4907,32,2022-02-12_14h43.25.200,lexical_decision_task_DD_L3,2021.2.3,Win32,60.01680471,,,,,,,,,,,,0.8824,1,,,,,,,,,,,,,,m,1,0.8824,,,,,,,,0.88777794,-0.407777859,0,0,0,,0,25,25,12,1,SHORE,LB,old,m,./images/SHORELB.png,,,,,,,,,,,,,,,,,,,,,,,,,,,,,,,,,,
,,,,,,,,,,,,,,,,,610789ba8948b4b6cdfd4907,32,2022-02-12_14h43.25.200,lexical_decision_task_DD_L3,2021.2.3,Win32,60.01680471,,,,,,,,,,,,0.6548,1,,,,,,,,,,,,,,m,1,0.6548,,,,,,,,0.88777794,-0.407777859,0,0,0,,0,26,26,42,1,FOLDER,LB,old,m,./images/FOLDERLB.png,,,,,,,,,,,,,,,,,,,,,,,,,,,,,,,,,,
,,,,,,,,,,,,,,,,,610789ba8948b4b6cdfd4907,32,2022-02-12_14h43.25.200,lexical_decision_task_DD_L3,2021.2.3,Win32,60.01680471,,,,,,,,,,,,1.2803,0,,,,,,,,,,,,,,m,0,1.2803,,,,,,,,0.88777794,-0.407777859,0,0,0,,0,27,27,165,1,TROWN,C,old,z,./images/TROWN.png,,,,,,,,,,,,,,,,,,,,,,,,,,,,,,,,,,
,,,,,,,,,,,,,,,,,610789ba8948b4b6cdfd4907,32,2022-02-12_14h43.25.200,lexical_decision_task_DD_L3,2021.2.3,Win32,60.01680471,,,,,,,,,,,,1.0703,1,,,,,,,,,,,,,,z,1,1.0703,,,,,,,,0.88777794,-0.407777859,0,0,0,,0,28,28,154,1,THINT,HB,old,z,./images/THINTHB.png,,,,,,,,,,,,,,,,,,,,,,,,,,,,,,,,,,
,,,,,,,,,,,,,,,,,610789ba8948b4b6cdfd4907,32,2022-02-12_14h43.25.200,lexical_decision_task_DD_L3,2021.2.3,Win32,60.01680471,,,,,,,,,,,,0.6531,1,,,,,,,,,,,,,,m,1,0.6531,,,,,,,,0.88777794,-0.407777859,0,0,0,,0,29,29,36,1,THROAT,LB,old,m,./images/THROATLB.png,,,,,,,,,,,,,,,,,,,,,,,,,,,,,,,,,,
,,,,,,,,,,,,,,,,,610789ba8948b4b6cdfd4907,32,2022-02-12_14h43.25.200,lexical_decision_task_DD_L3,2021.2.3,Win32,60.01680471,,,,,,,,,,,,1.4344,1,,,,,,,,,,,,,,z,1,1.4344,,,,,,,,0.88777794,-0.407777859,0,0,0,,0,30,30,163,1,GAMBA,HB,old,z,./images/GAMBAHB.png,,,,,,,,,,,,,,,,,,,,,,,,,,,,,,,,,,
,,,,,,,,,,,,,,,,,610789ba8948b4b6cdfd4907,32,2022-02-12_14h43.25.200,lexical_decision_task_DD_L3,2021.2.3,Win32,60.01680471,,,,,,,,,,,,1.1569,1,,,,,,,,,,,,,,z,1,1.1569,,,,,,,,0.88777794,-0.407777859,0,0,0,,0,31,31,136,1,WERVE,HB,old,z,./images/WERVEHB.png,,,,,,,,,,,,,,,,,,,,,,,,,,,,,,,,,,
,,,,,,,,,,,,,,,,,610789ba8948b4b6cdfd4907,32,2022-02-12_14h43.25.200,lexical_decision_task_DD_L3,2021.2.3,Win32,60.01680471,,,,,,,,,,,,1.321,1,,,,,,,,,,,,,,z,1,1.321,,,,,,,,0.88777794,-0.407777859,0,0,0,,0,32,32,134,1,TROSS,LB,old,z,./images/TROSSLB.png,,,,,,,,,,,,,,,,,,,,,,,,,,,,,,,,,,
,,,,,,,,,,,,,,,,,610789ba8948b4b6cdfd4907,32,2022-02-12_14h43.25.200,lexical_decision_task_DD_L3,2021.2.3,Win32,60.01680471,,,,,,,,,,,,1.2819,0,,,,,,,,,,,,,,m,0,1.2819,,,,,,,,0.88777794,-0.407777859,0,0,0,,0,33,33,95,1,HANTY,LB,old,z,./images/HANTYLB.png,,,,,,,,,,,,,,,,,,,,,,,,,,,,,,,,,,
,,,,,,,,,,,,,,,,,610789ba8948b4b6cdfd4907,32,2022-02-12_14h43.25.200,lexical_decision_task_DD_L3,2021.2.3,Win32,60.01680471,,,,,,,,,,,,0.6699,1,,,,,,,,,,,,,,m,1,0.6699,,,,,,,,0.88777794,-0.407777859,0,0,0,,0,34,34,72,1,NOOSE,LB,old,m,./images/NOOSELB.png,,,,,,,,,,,,,,,,,,,,,,,,,,,,,,,,,,
,,,,,,,,,,,,,,,,,610789ba8948b4b6cdfd4907,32,2022-02-12_14h43.25.200,lexical_decision_task_DD_L3,2021.2.3,Win32,60.01680471,,,,,,,,,,,,0.97,1,,,,,,,,,,,,,,m,1,0.97,,,,,,,,0.88777794,-0.407777859,0,0,0,,0,35,35,8,1,TULIP,HB,old,m,./images/TULIPHB.png,,,,,,,,,,,,,,,,,,,,,,,,,,,,,,,,,,
,,,,,,,,,,,,,,,,,610789ba8948b4b6cdfd4907,32,2022-02-12_14h43.25.200,lexical_decision_task_DD_L3,2021.2.3,Win32,60.01680471,,,,,,,,,,,,0.8369,1,,,,,,,,,,,,,,z,1,0.8369,,,,,,,,0.88777794,-0.407777859,0,0,0,,0,36,36,92,1,PAIMS,LB,old,z,./images/PAIMSLB.png,,,,,,,,,,,,,,,,,,,,,,,,,,,,,,,,,,
,,,,,,,,,,,,,,,,,610789ba8948b4b6cdfd4907,32,2022-02-12_14h43.25.200,lexical_decision_task_DD_L3,2021.2.3,Win32,60.01680471,,,,,,,,,,,,0.7884,1,,,,,,,,,,,,,,z,1,0.7884,,,,,,,,0.88777794,-0.407777859,0,0,0,,0,37,37,167,1,ZONET,LB,old,z,./images/ZONETLB.png,,,,,,,,,,,,,,,,,,,,,,,,,,,,,,,,,,
,,,,,,,,,,,,,,,,,610789ba8948b4b6cdfd4907,32,2022-02-12_14h43.25.200,lexical_decision_task_DD_L3,2021.2.3,Win32,60.01680471,,,,,,,,,,,,0.6859,1,,,,,,,,,,,,,,m,1,0.6859,,,,,,,,0.88777794,-0.407777859,0,0,0,,0,38,38,69,1,COOKER,LB,old,m,./images/COOKERLB.png,,,,,,,,,,,,,,,,,,,,,,,,,,,,,,,,,,
,,,,,,,,,,,,,,,,,610789ba8948b4b6cdfd4907,32,2022-02-12_14h43.25.200,lexical_decision_task_DD_L3,2021.2.3,Win32,60.01680471,,,,,,,,,,,,0.9456,0,,,,,,,,,,,,,,m,0,0.9456,,,,,,,,0.88777794,-0.407777859,0,0,0,,0,39,39,107,1,FASKS,LB,old,z,./images/FASKSLB.png,,,,,,,,,,,,,,,,,,,,,,,,,,,,,,,,,,
,,,,,,,,,,,,,,,,,610789ba8948b4b6cdfd4907,32,2022-02-12_14h43.25.200,lexical_decision_task_DD_L3,2021.2.3,Win32,60.01680471,,,,,,,,,,,,0.7196,1,,,,,,,,,,,,,,m,1,0.7196,,,,,,,,0.88777794,-0.407777859,0,0,0,,0,40,40,28,1,FALCON,C,old,m,./images/FALCON.png,,,,,,,,,,,,,,,,,,,,,,,,,,,,,,,,,,
,,,,,,,,,,,,,,,,,610789ba8948b4b6cdfd4907,32,2022-02-12_14h43.25.200,lexical_decision_task_DD_L3,2021.2.3,Win32,60.01680471,,,,,,,,,,,,1.5285,1,,,,,,,,,,,,,,z,1,1.5285,,,,,,,,0.88777794,-0.407777859,0,0,0,space,0,41,41,94,1,BLANS,HB,old,z,./images/BLANSHB.png,3.335,,,,,,,,,,,,,,,,,,,,,,,,,,,,,,,,,
,,,,,,,,,,,,,,,,,610789ba8948b4b6cdfd4907,32,2022-02-12_14h43.25.200,lexical_decision_task_DD_L3,2021.2.3,Win32,60.01680471,,,,,,,,,,,,0.6122,1,,,,,,,,,,,,,,m,1,0.6122,,,,,,,,0.88777794,-0.407777859,0,0,0,,0,42,42,7,1,PAINT,C,old,m,./images/PAINT.png,,,,,,,,,,,,,,,,,,,,,,,,,,,,,,,,,,
,,,,,,,,,,,,,,,,,610789ba8948b4b6cdfd4907,32,2022-02-12_14h43.25.200,lexical_decision_task_DD_L3,2021.2.3,Win32,60.01680471,,,,,,,,,,,,1.9417,0,,,,,,,,,,,,,,m,0,1.9417,,,,,,,,0.88777794,-0.407777859,0,0,0,,0,43,43,151,1,TINKY,HB,old,z,./images/TINKYHB.png,,,,,,,,,,,,,,,,,,,,,,,,,,,,,,,,,,
,,,,,,,,,,,,,,,,,610789ba8948b4b6cdfd4907,32,2022-02-12_14h43.25.200,lexical_decision_task_DD_L3,2021.2.3,Win32,60.01680471,,,,,,,,,,,,1.1351,1,,,,,,,,,,,,,,z,1,1.1351,,,,,,,,0.88777794,-0.407777859,0,0,0,,0,44,44,84,1,HAXES,C,old,z,./images/HAXES.png,,,,,,,,,,,,,,,,,,,,,,,,,,,,,,,,,,
,,,,,,,,,,,,,,,,,610789ba8948b4b6cdfd4907,32,2022-02-12_14h43.25.200,lexical_decision_task_DD_L3,2021.2.3,Win32,60.01680471,,,,,,,,,,,,1.2233,0,,,,,,,,,,,,,,m,0,1.2233,,,,,,,,0.88777794,-0.407777859,0,0,0,,0,45,45,152,1,FRAIN,LB,old,z,./images/FRAINLB.png,,,,,,,,,,,,,,,,,,,,,,,,,,,,,,,,,,
,,,,,,,,,,,,,,,,,610789ba8948b4b6cdfd4907,32,2022-02-12_14h43.25.200,lexical_decision_task_DD_L3,2021.2.3,Win32,60.01680471,,,,,,,,,,,,0.631,1,,,,,,,,,,,,,,m,1,0.631,,,,,,,,0.88777794,-0.407777859,0,0,0,,0,46,46,21,1,KIDNEY,LB,old,m,./images/KIDNEYLB.png,,,,,,,,,,,,,,,,,,,,,,,,,,,,,,,,,,
,,,,,,,,,,,,,,,,,610789ba8948b4b6cdfd4907,32,2022-02-12_14h43.25.200,lexical_decision_task_DD_L3,2021.2.3,Win32,60.01680471,,,,,,,,,,,,0.7403,1,,,,,,,,,,,,,,z,1,0.7403,,,,,,,,0.88777794,-0.407777859,0,0,0,,0,47,47,86,1,AIFED,LB,old,z,./images/AIFEDLB.png,,,,,,,,,,,,,,,,,,,,,,,,,,,,,,,,,,
,,,,,,,,,,,,,,,,,610789ba8948b4b6cdfd4907,32,2022-02-12_14h43.25.200,lexical_decision_task_DD_L3,2021.2.3,Win32,60.01680471,,,,,,,,,,,,0.5727,1,,,,,,,,,,,,,,z,1,0.5727,,,,,,,,0.88777794,-0.407777859,0,0,0,,0,48,48,140,1,DOVET,LB,old,z,./images/DOVETLB.png,,,,,,,,,,,,,,,,,,,,,,,,,,,,,,,,,,
,,,,,,,,,,,,,,,,,610789ba8948b4b6cdfd4907,32,2022-02-12_14h43.25.200,lexical_decision_task_DD_L3,2021.2.3,Win32,60.01680471,,,,,,,,,,,,1.0538,1,,,,,,,,,,,,,,z,1,1.0538,,,,,,,,0.88777794,-0.407777859,0,0,0,,0,49,49,131,1,NACES,LB,old,z,./images/NACESLB.png,,,,,,,,,,,,,,,,,,,,,,,,,,,,,,,,,,
,,,,,,,,,,,,,,,,,610789ba8948b4b6cdfd4907,32,2022-02-12_14h43.25.200,lexical_decision_task_DD_L3,2021.2.3,Win32,60.01680471,,,,,,,,,,,,0.7255,1,,,,,,,,,,,,,,z,1,0.7255,,,,,,,,0.88777794,-0.407777859,0,0,0,,0,50,50,108,1,GRUET,C,old,z,./images/GRUET.png,,,,,,,,,,,,,,,,,,,,,,,,,,,,,,,,,,
,,,,,,,,,,,,,,,,,610789ba8948b4b6cdfd4907,32,2022-02-12_14h43.25.200,lexical_decision_task_DD_L3,2021.2.3,Win32,60.01680471,,,,,,,,,,,,0.7081,1,,,,,,,,,,,,,,m,1,0.7081,,,,,,,,0.88777794,-0.407777859,0,0,0,,0,51,51,71,1,PIMPLE,HB,old,m,./images/PIMPLEHB.png,,,,,,,,,,,,,,,,,,,,,,,,,,,,,,,,,,
,,,,,,,,,,,,,,,,,610789ba8948b4b6cdfd4907,32,2022-02-12_14h43.25.200,lexical_decision_task_DD_L3,2021.2.3,Win32,60.01680471,,,,,,,,,,,,2.5023,1,,,,,,,,,,,,,,z,1,2.5023,,,,,,,,0.88777794,-0.407777859,0,0,0,,0,52,52,115,1,MAWNS,HB,old,z,./images/MAWNSHB.png,,,,,,,,,,,,,,,,,,,,,,,,,,,,,,,,,,
,,,,,,,,,,,,,,,,,610789ba8948b4b6cdfd4907,32,2022-02-12_14h43.25.200,lexical_decision_task_DD_L3,2021.2.3,Win32,60.01680471,,,,,,,,,,,,0.9292,1,,,,,,,,,,,,,,m,1,0.9292,,,,,,,,0.88777794,-0.407777859,0,0,0,,0,53,53,32,1,BARREL,HB,old,m,./images/BARRELHB.png,,,,,,,,,,,,,,,,,,,,,,,,,,,,,,,,,,
,,,,,,,,,,,,,,,,,610789ba8948b4b6cdfd4907,32,2022-02-12_14h43.25.200,lexical_decision_task_DD_L3,2021.2.3,Win32,60.01680471,,,,,,,,,,,,0.852,1,,,,,,,,,,,,,,z,1,0.852,,,,,,,,0.88777794,-0.407777859,0,0,0,,0,54,54,153,1,CLUPS,C,old,z,./images/CLUPS.png,,,,,,,,,,,,,,,,,,,,,,,,,,,,,,,,,,
,,,,,,,,,,,,,,,,,610789ba8948b4b6cdfd4907,32,2022-02-12_14h43.25.200,lexical_decision_task_DD_L3,2021.2.3,Win32,60.01680471,,,,,,,,,,,,0.5081,1,,,,,,,,,,,,,,m,1,0.5081,,,,,,,,0.88777794,-0.407777859,0,0,0,,0,55,55,64,1,JELLY,C,old,m,./images/JELLY.png,,,,,,,,,,,,,,,,,,,,,,,,,,,,,,,,,,
,,,,,,,,,,,,,,,,,610789ba8948b4b6cdfd4907,32,2022-02-12_14h43.25.200,lexical_decision_task_DD_L3,2021.2.3,Win32,60.01680471,,,,,,,,,,,,0.5949,1,,,,,,,,,,,,,,m,1,0.5949,,,,,,,,0.88777794,-0.407777859,0,0,0,,0,56,56,16,1,PENCE,C,old,m,./images/PENCE.png,,,,,,,,,,,,,,,,,,,,,,,,,,,,,,,,,,
,,,,,,,,,,,,,,,,,610789ba8948b4b6cdfd4907,32,2022-02-12_14h43.25.200,lexical_decision_task_DD_L3,2021.2.3,Win32,60.01680471,,,,,,,,,,,,0.6384,1,,,,,,,,,,,,,,z,1,0.6384,,,,,,,,0.88777794,-0.407777859,0,0,0,,0,57,57,138,1,PLICE,C,old,z,./images/PLICE.png,,,,,,,,,,,,,,,,,,,,,,,,,,,,,,,,,,
,,,,,,,,,,,,,,,,,610789ba8948b4b6cdfd4907,32,2022-02-12_14h43.25.200,lexical_decision_task_DD_L3,2021.2.3,Win32,60.01680471,,,,,,,,,,,,0.6482,1,,,,,,,,,,,,,,m,1,0.6482,,,,,,,,0.88777794,-0.407777859,0,0,0,,0,58,58,73,1,SNACK,C,old,m,./images/SNACK.png,,,,,,,,,,,,,,,,,,,,,,,,,,,,,,,,,,
,,,,,,,,,,,,,,,,,610789ba8948b4b6cdfd4907,32,2022-02-12_14h43.25.200,lexical_decision_task_DD_L3,2021.2.3,Win32,60.01680471,,,,,,,,,,,,0.5186,1,,,,,,,,,,,,,,m,1,0.5186,,,,,,,,0.88777794,-0.407777859,0,0,0,,0,59,59,37,1,BIRTH,C,old,m,./images/BIRTH.png,,,,,,,,,,,,,,,,,,,,,,,,,,,,,,,,,,
,,,,,,,,,,,,,,,,,610789ba8948b4b6cdfd4907,32,2022-02-12_14h43.25.200,lexical_decision_task_DD_L3,2021.2.3,Win32,60.01680471,,,,,,,,,,,,0.6629,1,,,,,,,,,,,,,,m,1,0.6629,,,,,,,,0.88777794,-0.407777859,0,0,0,,0,60,60,53,1,CARPET,HB,old,m,./images/CARPETHB.png,,,,,,,,,,,,,,,,,,,,,,,,,,,,,,,,,,
,,,,,,,,,,,,,,,,,610789ba8948b4b6cdfd4907,32,2022-02-12_14h43.25.200,lexical_decision_task_DD_L3,2021.2.3,Win32,60.01680471,,,,,,,,,,,,1.1309,1,,,,,,,,,,,,,,z,1,1.1309,,,,,,,,0.88777794,-0.407777859,0,0,0,,0,61,61,129,1,PRANS,C,old,z,./images/PRANS.png,,,,,,,,,,,,,,,,,,,,,,,,,,,,,,,,,,
,,,,,,,,,,,,,,,,,610789ba8948b4b6cdfd4907,32,2022-02-12_14h43.25.200,lexical_decision_task_DD_L3,2021.2.3,Win32,60.01680471,,,,,,,,,,,,0.8701,0,,,,,,,,,,,,,,z,0,0.8701,,,,,,,,0.88777794,-0.407777859,0,0,0,,0,62,62,56,1,PACKET,HB,old,m,./images/PACKETHB.png,,,,,,,,,,,,,,,,,,,,,,,,,,,,,,,,,,
,,,,,,,,,,,,,,,,,610789ba8948b4b6cdfd4907,32,2022-02-12_14h43.25.200,lexical_decision_task_DD_L3,2021.2.3,Win32,60.01680471,,,,,,,,,,,,1.3948,1,,,,,,,,,,,,,,z,1,1.3948,,,,,,,,0.88777794,-0.407777859,0,0,0,,0,63,63,149,1,VEASE,LB,old,z,./images/VEASELB.png,,,,,,,,,,,,,,,,,,,,,,,,,,,,,,,,,,
,,,,,,,,,,,,,,,,,610789ba8948b4b6cdfd4907,32,2022-02-12_14h43.25.200,lexical_decision_task_DD_L3,2021.2.3,Win32,60.01680471,,,,,,,,,,,,1.1369,1,,,,,,,,,,,,,,z,1,1.1369,,,,,,,,0.88777794,-0.407777859,0,0,0,,0,64,64,85,1,CHULK,HB,old,z,./images/CHULKHB.png,,,,,,,,,,,,,,,,,,,,,,,,,,,,,,,,,,
,,,,,,,,,,,,,,,,,610789ba8948b4b6cdfd4907,32,2022-02-12_14h43.25.200,lexical_decision_task_DD_L3,2021.2.3,Win32,60.01680471,,,,,,,,,,,,0.697,1,,,,,,,,,,,,,,m,1,0.697,,,,,,,,0.88777794,-0.407777859,0,0,0,,0,65,65,62,1,PURSE,HB,old,m,./images/PURSEHB.png,,,,,,,,,,,,,,,,,,,,,,,,,,,,,,,,,,
,,,,,,,,,,,,,,,,,610789ba8948b4b6cdfd4907,32,2022-02-12_14h43.25.200,lexical_decision_task_DD_L3,2021.2.3,Win32,60.01680471,,,,,,,,,,,,0.6879,1,,,,,,,,,,,,,,z,1,0.6879,,,,,,,,0.88777794,-0.407777859,0,0,0,,0,66,66,162,1,LEICH,C,old,z,./images/LEICH.png,,,,,,,,,,,,,,,,,,,,,,,,,,,,,,,,,,
,,,,,,,,,,,,,,,,,610789ba8948b4b6cdfd4907,32,2022-02-12_14h43.25.200,lexical_decision_task_DD_L3,2021.2.3,Win32,60.01680471,,,,,,,,,,,,0.7206,1,,,,,,,,,,,,,,z,1,0.7206,,,,,,,,0.88777794,-0.407777859,0,0,0,,0,67,67,125,1,MOOKY,LB,old,z,./images/MOOKYLB.png,,,,,,,,,,,,,,,,,,,,,,,,,,,,,,,,,,
,,,,,,,,,,,,,,,,,610789ba8948b4b6cdfd4907,32,2022-02-12_14h43.25.200,lexical_decision_task_DD_L3,2021.2.3,Win32,60.01680471,,,,,,,,,,,,0.7637,0,,,,,,,,,,,,,,z,0,0.7637,,,,,,,,0.88777794,-0.407777859,0,0,0,,0,68,68,29,1,CRUMB,HB,old,m,./images/CRUMBHB.png,,,,,,,,,,,,,,,,,,,,,,,,,,,,,,,,,,
,,,,,,,,,,,,,,,,,610789ba8948b4b6cdfd4907,32,2022-02-12_14h43.25.200,lexical_decision_task_DD_L3,2021.2.3,Win32,60.01680471,,,,,,,,,,,,2.1671,1,,,,,,,,,,,,,,z,1,2.1671,,,,,,,,0.88777794,-0.407777859,0,0,0,,0,69,69,157,1,INLER,HB,old,z,./images/INLERHB.png,,,,,,,,,,,,,,,,,,,,,,,,,,,,,,,,,,
,,,,,,,,,,,,,,,,,610789ba8948b4b6cdfd4907,32,2022-02-12_14h43.25.200,lexical_decision_task_DD_L3,2021.2.3,Win32,60.01680471,,,,,,,,,,,,1.2668,0,,,,,,,,,,,,,,m,0,1.2668,,,,,,,,0.88777794,-0.407777859,0,0,0,,0,70,70,91,1,SHENS,HB,old,z,./images/SHENSHB.png,,,,,,,,,,,,,,,,,,,,,,,,,,,,,,,,,,
,,,,,,,,,,,,,,,,,610789ba8948b4b6cdfd4907,32,2022-02-12_14h43.25.200,lexical_decision_task_DD_L3,2021.2.3,Win32,60.01680471,,,,,,,,,,,,0.9535,1,,,,,,,,,,,,,,z,1,0.9535,,,,,,,,0.88777794,-0.407777859,0,0,0,,0,71,71,96,1,KEAMS,C,old,z,./images/KEAMS.png,,,,,,,,,,,,,,,,,,,,,,,,,,,,,,,,,,
,,,,,,,,,,,,,,,,,610789ba8948b4b6cdfd4907,32,2022-02-12_14h43.25.200,lexical_decision_task_DD_L3,2021.2.3,Win32,60.01680471,,,,,,,,,,,,0.5431,1,,,,,,,,,,,,,,m,1,0.5431,,,,,,,,0.88777794,-0.407777859,0,0,0,,0,72,72,63,1,MIRROR,LB,old,m,./images/MIRRORLB.png,,,,,,,,,,,,,,,,,,,,,,,,,,,,,,,,,,
,,,,,,,,,,,,,,,,,610789ba8948b4b6cdfd4907,32,2022-02-12_14h43.25.200,lexical_decision_task_DD_L3,2021.2.3,Win32,60.01680471,,,,,,,,,,,,0.6165,1,,,,,,,,,,,,,,m,1,0.6165,,,,,,,,0.88777794,-0.407777859,0,0,0,,0,73,73,55,1,MUFFIN,C,old,m,./images/MUFFIN.png,,,,,,,,,,,,,,,,,,,,,,,,,,,,,,,,,,
,,,,,,,,,,,,,,,,,610789ba8948b4b6cdfd4907,32,2022-02-12_14h43.25.200,lexical_decision_task_DD_L3,2021.2.3,Win32,60.01680471,,,,,,,,,,,,0.8948,1,,,,,,,,,,,,,,z,1,0.8948,,,,,,,,0.88777794,-0.407777859,0,0,0,,0,74,74,99,1,BACKY,C,old,z,./images/BACKY.png,,,,,,,,,,,,,,,,,,,,,,,,,,,,,,,,,,
,,,,,,,,,,,,,,,,,610789ba8948b4b6cdfd4907,32,2022-02-12_14h43.25.200,lexical_decision_task_DD_L3,2021.2.3,Win32,60.01680471,,,,,,,,,,,,0.7776,1,,,,,,,,,,,,,,z,1,0.7776,,,,,,,,0.88777794,-0.407777859,0,0,0,,0,75,75,155,1,CANGY,LB,old,z,./images/CANGYLB.png,,,,,,,,,,,,,,,,,,,,,,,,,,,,,,,,,,
,,,,,,,,,,,,,,,,,610789ba8948b4b6cdfd4907,32,2022-02-12_14h43.25.200,lexical_decision_task_DD_L3,2021.2.3,Win32,60.01680471,,,,,,,,,,,,0.6903,1,,,,,,,,,,,,,,m,1,0.6903,,,,,,,,0.88777794,-0.407777859,0,0,0,,0,76,76,50,1,MALLET,HB,old,m,./images/MALLETHB.png,,,,,,,,,,,,,,,,,,,,,,,,,,,,,,,,,,
,,,,,,,,,,,,,,,,,610789ba8948b4b6cdfd4907,32,2022-02-12_14h43.25.200,lexical_decision_task_DD_L3,2021.2.3,Win32,60.01680471,,,,,,,,,,,,0.6224,1,,,,,,,,,,,,,,m,1,0.6224,,,,,,,,0.88777794,-0.407777859,0,0,0,,0,77,77,75,1,GRAIN,LB,old,m,./images/GRAINLB.png,,,,,,,,,,,,,,,,,,,,,,,,,,,,,,,,,,
,,,,,,,,,,,,,,,,,610789ba8948b4b6cdfd4907,32,2022-02-12_14h43.25.200,lexical_decision_task_DD_L3,2021.2.3,Win32,60.01680471,,,,,,,,,,,,0.7549,1,,,,,,,,,,,,,,m,1,0.7549,,,,,,,,0.88777794,-0.407777859,0,0,0,,0,78,78,47,1,BERRY,HB,old,m,./images/BERRYHB.png,,,,,,,,,,,,,,,,,,,,,,,,,,,,,,,,,,
,,,,,,,,,,,,,,,,,610789ba8948b4b6cdfd4907,32,2022-02-12_14h43.25.200,lexical_decision_task_DD_L3,2021.2.3,Win32,60.01680471,,,,,,,,,,,,0.7421,1,,,,,,,,,,,,,,z,1,0.7421,,,,,,,,0.88777794,-0.407777859,0,0,0,,0,79,79,89,1,DRIEK,LB,old,z,./images/DRIEKLB.png,,,,,,,,,,,,,,,,,,,,,,,,,,,,,,,,,,
,,,,,,,,,,,,,,,,,610789ba8948b4b6cdfd4907,32,2022-02-12_14h43.25.200,lexical_decision_task_DD_L3,2021.2.3,Win32,60.01680471,,,,,,,,,,,,0.5192,1,,,,,,,,,,,,,,m,1,0.5192,,,,,,,,0.88777794,-0.407777859,0,0,0,,0,80,80,82,1,SUNSET,C,old,m,./images/SUNSET.png,,,,,,,,,,,,,,,,,,,,,,,,,,,,,,,,,,
,,,,,,,,,,,,,,,,,610789ba8948b4b6cdfd4907,32,2022-02-12_14h43.25.200,lexical_decision_task_DD_L3,2021.2.3,Win32,60.01680471,,,,,,,,,,,,0.6641,1,,,,,,,,,,,,,,m,1,0.6641,,,,,,,,0.88777794,-0.407777859,0,0,0,,0,81,81,78,1,LITTER,LB,old,m,./images/LITTERLB.png,,,,,,,,,,,,,,,,,,,,,,,,,,,,,,,,,,
,,,,,,,,,,,,,,,,,610789ba8948b4b6cdfd4907,32,2022-02-12_14h43.25.200,lexical_decision_task_DD_L3,2021.2.3,Win32,60.01680471,,,,,,,,,,,,0.5731,1,,,,,,,,,,,,,,m,1,0.5731,,,,,,,,0.88777794,-0.407777859,0,0,0,,0,82,82,48,1,SPORT,LB,old,m,./images/SPORTLB.png,,,,,,,,,,,,,,,,,,,,,,,,,,,,,,,,,,
,,,,,,,,,,,,,,,,,610789ba8948b4b6cdfd4907,32,2022-02-12_14h43.25.200,lexical_decision_task_DD_L3,2021.2.3,Win32,60.01680471,,,,,,,,,,,,0.5519,1,,,,,,,,,,,,,,m,1,0.5519,,,,,,,,0.88777794,-0.407777859,0,0,0,space,0,83,83,0,1,TOMATO,LB,old,m,./images/TOMATOLB.png,2.6334,,,,,,,,,,,,,,,,,,,,,,,,,,,,,,,,,
,,,,,,,,,,,,,,,,,610789ba8948b4b6cdfd4907,32,2022-02-12_14h43.25.200,lexical_decision_task_DD_L3,2021.2.3,Win32,60.01680471,,,,,,,,,,,,0.5948,1,,,,,,,,,,,,,,m,1,0.5948,,,,,,,,0.88777794,-0.407777859,0,0,0,,0,84,84,39,1,SHELF,LB,old,m,./images/SHELFLB.png,,,,,,,,,,,,,,,,,,,,,,,,,,,,,,,,,,
,,,,,,,,,,,,,,,,,610789ba8948b4b6cdfd4907,32,2022-02-12_14h43.25.200,lexical_decision_task_DD_L3,2021.2.3,Win32,60.01680471,,,,,,,,,,,,0.7289,1,,,,,,,,,,,,,,z,1,0.7289,,,,,,,,0.88777794,-0.407777859,0,0,0,,0,85,85,161,1,BLAPS,LB,old,z,./images/BLAPSLB.png,,,,,,,,,,,,,,,,,,,,,,,,,,,,,,,,,,
,,,,,,,,,,,,,,,,,610789ba8948b4b6cdfd4907,32,2022-02-12_14h43.25.200,lexical_decision_task_DD_L3,2021.2.3,Win32,60.01680471,,,,,,,,,,,,0.7725,1,,,,,,,,,,,,,,z,1,0.7725,,,,,,,,0.88777794,-0.407777859,0,0,0,,0,86,86,98,1,BAMPS,LB,old,z,./images/BAMPSLB.png,,,,,,,,,,,,,,,,,,,,,,,,,,,,,,,,,,
,,,,,,,,,,,,,,,,,610789ba8948b4b6cdfd4907,32,2022-02-12_14h43.25.200,lexical_decision_task_DD_L3,2021.2.3,Win32,60.01680471,,,,,,,,,,,,0.7087,1,,,,,,,,,,,,,,z,1,0.7087,,,,,,,,0.88777794,-0.407777859,0,0,0,,0,87,87,143,1,MONGS,LB,old,z,./images/MONGSLB.png,,,,,,,,,,,,,,,,,,,,,,,,,,,,,,,,,,
,,,,,,,,,,,,,,,,,610789ba8948b4b6cdfd4907,32,2022-02-12_14h43.25.200,lexical_decision_task_DD_L3,2021.2.3,Win32,60.01680471,,,,,,,,,,,,0.6304,1,,,,,,,,,,,,,,z,1,0.6304,,,,,,,,0.88777794,-0.407777859,0,0,0,,0,88,88,87,1,TRING,C,old,z,./images/TRING.png,,,,,,,,,,,,,,,,,,,,,,,,,,,,,,,,,,
,,,,,,,,,,,,,,,,,610789ba8948b4b6cdfd4907,32,2022-02-12_14h43.25.200,lexical_decision_task_DD_L3,2021.2.3,Win32,60.01680471,,,,,,,,,,,,0.5395,1,,,,,,,,,,,,,,m,1,0.5395,,,,,,,,0.88777794,-0.407777859,0,0,0,,0,89,89,3,1,FINGER,LB,old,m,./images/FINGERLB.png,,,,,,,,,,,,,,,,,,,,,,,,,,,,,,,,,,
,,,,,,,,,,,,,,,,,610789ba8948b4b6cdfd4907,32,2022-02-12_14h43.25.200,lexical_decision_task_DD_L3,2021.2.3,Win32,60.01680471,,,,,,,,,,,,0.4549,0,,,,,,,,,,,,,,m,0,0.4549,,,,,,,,0.88777794,-0.407777859,0,0,0,,0,90,90,146,1,MOOST,LB,old,z,./images/MOOSTLB.png,,,,,,,,,,,,,,,,,,,,,,,,,,,,,,,,,,
,,,,,,,,,,,,,,,,,610789ba8948b4b6cdfd4907,32,2022-02-12_14h43.25.200,lexical_decision_task_DD_L3,2021.2.3,Win32,60.01680471,,,,,,,,,,,,0.755,1,,,,,,,,,,,,,,z,1,0.755,,,,,,,,0.88777794,-0.407777859,0,0,0,,0,91,91,103,1,FLORT,HB,old,z,./images/FLORTHB.png,,,,,,,,,,,,,,,,,,,,,,,,,,,,,,,,,,
,,,,,,,,,,,,,,,,,610789ba8948b4b6cdfd4907,32,2022-02-12_14h43.25.200,lexical_decision_task_DD_L3,2021.2.3,Win32,60.01680471,,,,,,,,,,,,0.6914,1,,,,,,,,,,,,,,m,1,0.6914,,,,,,,,0.88777794,-0.407777859,0,0,0,,0,92,92,83,1,JUNGLE,HB,old,m,./images/JUNGLEHB.png,,,,,,,,,,,,,,,,,,,,,,,,,,,,,,,,,,
,,,,,,,,,,,,,,,,,610789ba8948b4b6cdfd4907,32,2022-02-12_14h43.25.200,lexical_decision_task_DD_L3,2021.2.3,Win32,60.01680471,,,,,,,,,,,,1.0862,0,,,,,,,,,,,,,,m,0,1.0862,,,,,,,,0.88777794,-0.407777859,0,0,0,,0,93,93,109,1,BURGE,HB,old,z,./images/BURGEHB.png,,,,,,,,,,,,,,,,,,,,,,,,,,,,,,,,,,
,,,,,,,,,,,,,,,,,610789ba8948b4b6cdfd4907,32,2022-02-12_14h43.25.200,lexical_decision_task_DD_L3,2021.2.3,Win32,60.01680471,,,,,,,,,,,,1.1208,1,,,,,,,,,,,,,,z,1,1.1208,,,,,,,,0.88777794,-0.407777859,0,0,0,,0,94,94,159,1,CUDDY,C,old,z,./images/CUDDY.png,,,,,,,,,,,,,,,,,,,,,,,,,,,,,,,,,,
,,,,,,,,,,,,,,,,,610789ba8948b4b6cdfd4907,32,2022-02-12_14h43.25.200,lexical_decision_task_DD_L3,2021.2.3,Win32,60.01680471,,,,,,,,,,,,0.8912,1,,,,,,,,,,,,,,m,1,0.8912,,,,,,,,0.88777794,-0.407777859,0,0,0,,0,95,95,20,1,CRADLE,HB,old,m,./images/CRADLEHB.png,,,,,,,,,,,,,,,,,,,,,,,,,,,,,,,,,,
,,,,,,,,,,,,,,,,,610789ba8948b4b6cdfd4907,32,2022-02-12_14h43.25.200,lexical_decision_task_DD_L3,2021.2.3,Win32,60.01680471,,,,,,,,,,,,0.951,1,,,,,,,,,,,,,,z,1,0.951,,,,,,,,0.88777794,-0.407777859,0,0,0,,0,96,96,122,1,BLOOT,LB,old,z,./images/BLOOTLB.png,,,,,,,,,,,,,,,,,,,,,,,,,,,,,,,,,,
,,,,,,,,,,,,,,,,,610789ba8948b4b6cdfd4907,32,2022-02-12_14h43.25.200,lexical_decision_task_DD_L3,2021.2.3,Win32,60.01680471,,,,,,,,,,,,0.5752,0,,,,,,,,,,,,,,m,0,0.5752,,,,,,,,0.88777794,-0.407777859,0,0,0,,0,97,97,128,1,GRIFT,LB,old,z,./images/GRIFTLB.png,,,,,,,,,,,,,,,,,,,,,,,,,,,,,,,,,,
,,,,,,,,,,,,,,,,,610789ba8948b4b6cdfd4907,32,2022-02-12_14h43.25.200,lexical_decision_task_DD_L3,2021.2.3,Win32,60.01680471,,,,,,,,,,,,0.5516,1,,,,,,,,,,,,,,m,1,0.5516,,,,,,,,0.88777794,-0.407777859,0,0,0,,0,98,98,46,1,PEARL,C,old,m,./images/PEARL.png,,,,,,,,,,,,,,,,,,,,,,,,,,,,,,,,,,
,,,,,,,,,,,,,,,,,610789ba8948b4b6cdfd4907,32,2022-02-12_14h43.25.200,lexical_decision_task_DD_L3,2021.2.3,Win32,60.01680471,,,,,,,,,,,,0.6183,1,,,,,,,,,,,,,,z,1,0.6183,,,,,,,,0.88777794,-0.407777859,0,0,0,,0,99,99,158,1,EGECT,LB,old,z,./images/EGECTLB.png,,,,,,,,,,,,,,,,,,,,,,,,,,,,,,,,,,
,,,,,,,,,,,,,,,,,610789ba8948b4b6cdfd4907,32,2022-02-12_14h43.25.200,lexical_decision_task_DD_L3,2021.2.3,Win32,60.01680471,,,,,,,,,,,,0.9372,0,,,,,,,,,,,,,,m,0,0.9372,,,,,,,,0.88777794,-0.407777859,0,0,0,,0,100,100,111,1,HOSSE,C,old,z,./images/HOSSE.png,,,,,,,,,,,,,,,,,,,,,,,,,,,,,,,,,,
,,,,,,,,,,,,,,,,,610789ba8948b4b6cdfd4907,32,2022-02-12_14h43.25.200,lexical_decision_task_DD_L3,2021.2.3,Win32,60.01680471,,,,,,,,,,,,1.4161,0,,,,,,,,,,,,,,m,0,1.4161,,,,,,,,0.88777794,-0.407777859,0,0,0,,0,101,101,106,1,CLUMS,HB,old,z,./images/CLUMSHB.png,,,,,,,,,,,,,,,,,,,,,,,,,,,,,,,,,,
,,,,,,,,,,,,,,,,,610789ba8948b4b6cdfd4907,32,2022-02-12_14h43.25.200,lexical_decision_task_DD_L3,2021.2.3,Win32,60.01680471,,,,,,,,,,,,0.5741,1,,,,,,,,,,,,,,m,1,0.5741,,,,,,,,0.88777794,-0.407777859,0,0,0,,0,102,102,6,1,SQUARE,LB,old,m,./images/SQUARELB.png,,,,,,,,,,,,,,,,,,,,,,,,,,,,,,,,,,
,,,,,,,,,,,,,,,,,610789ba8948b4b6cdfd4907,32,2022-02-12_14h43.25.200,lexical_decision_task_DD_L3,2021.2.3,Win32,60.01680471,,,,,,,,,,,,0.6757,1,,,,,,,,,,,,,,m,1,0.6757,,,,,,,,0.88777794,-0.407777859,0,0,0,,0,103,103,77,1,COUCH,HB,old,m,./images/COUCHHB.png,,,,,,,,,,,,,,,,,,,,,,,,,,,,,,,,,,
,,,,,,,,,,,,,,,,,610789ba8948b4b6cdfd4907,32,2022-02-12_14h43.25.200,lexical_decision_task_DD_L3,2021.2.3,Win32,60.01680471,,,,,,,,,,,,0.8517,1,,,,,,,,,,,,,,z,1,0.8517,,,,,,,,0.88777794,-0.407777859,0,0,0,,0,104,104,160,1,VEETS,HB,old,z,./images/VEETSHB.png,,,,,,,,,,,,,,,,,,,,,,,,,,,,,,,,,,
,,,,,,,,,,,,,,,,,610789ba8948b4b6cdfd4907,32,2022-02-12_14h43.25.200,lexical_decision_task_DD_L3,2021.2.3,Win32,60.01680471,,,,,,,,,,,,0.529,1,,,,,,,,,,,,,,m,1,0.529,,,,,,,,0.88777794,-0.407777859,0,0,0,,0,105,105,1,1,PLANK,C,old,m,./images/PLANK.png,,,,,,,,,,,,,,,,,,,,,,,,,,,,,,,,,,
,,,,,,,,,,,,,,,,,610789ba8948b4b6cdfd4907,32,2022-02-12_14h43.25.200,lexical_decision_task_DD_L3,2021.2.3,Win32,60.01680471,,,,,,,,,,,,0.5603,1,,,,,,,,,,,,,,m,1,0.5603,,,,,,,,0.88777794,-0.407777859,0,0,0,,0,106,106,54,1,TRIPOD,LB,old,m,./images/TRIPODLB.png,,,,,,,,,,,,,,,,,,,,,,,,,,,,,,,,,,
,,,,,,,,,,,,,,,,,610789ba8948b4b6cdfd4907,32,2022-02-12_14h43.25.200,lexical_decision_task_DD_L3,2021.2.3,Win32,60.01680471,,,,,,,,,,,,0.6705,1,,,,,,,,,,,,,,m,1,0.6705,,,,,,,,0.88777794,-0.407777859,0,0,0,,0,107,107,58,1,BABOON,C,old,m,./images/BABOON.png,,,,,,,,,,,,,,,,,,,,,,,,,,,,,,,,,,
,,,,,,,,,,,,,,,,,610789ba8948b4b6cdfd4907,32,2022-02-12_14h43.25.200,lexical_decision_task_DD_L3,2021.2.3,Win32,60.01680471,,,,,,,,,,,,0.5353,1,,,,,,,,,,,,,,m,1,0.5353,,,,,,,,0.88777794,-0.407777859,0,0,0,,0,108,108,34,1,CANYON,C,old,m,./images/CANYON.png,,,,,,,,,,,,,,,,,,,,,,,,,,,,,,,,,,
,,,,,,,,,,,,,,,,,610789ba8948b4b6cdfd4907,32,2022-02-12_14h43.25.200,lexical_decision_task_DD_L3,2021.2.3,Win32,60.01680471,,,,,,,,,,,,0.4934,1,,,,,,,,,,,,,,m,1,0.4934,,,,,,,,0.88777794,-0.407777859,0,0,0,,0,109,109,30,1,STORM,LB,old,m,./images/STORMLB.png,,,,,,,,,,,,,,,,,,,,,,,,,,,,,,,,,,
,,,,,,,,,,,,,,,,,610789ba8948b4b6cdfd4907,32,2022-02-12_14h43.25.200,lexical_decision_task_DD_L3,2021.2.3,Win32,60.01680471,,,,,,,,,,,,1.1873,0,,,,,,,,,,,,,,m,0,1.1873,,,,,,,,0.88777794,-0.407777859,0,0,0,,0,110,110,104,1,GITTY,LB,old,z,./images/GITTYLB.png,,,,,,,,,,,,,,,,,,,,,,,,,,,,,,,,,,
,,,,,,,,,,,,,,,,,610789ba8948b4b6cdfd4907,32,2022-02-12_14h43.25.200,lexical_decision_task_DD_L3,2021.2.3,Win32,60.01680471,,,,,,,,,,,,0.697,1,,,,,,,,,,,,,,z,1,0.697,,,,,,,,0.88777794,-0.407777859,0,0,0,,0,111,111,97,1,CHIDS,HB,old,z,./images/CHIDSHB.png,,,,,,,,,,,,,,,,,,,,,,,,,,,,,,,,,,
,,,,,,,,,,,,,,,,,610789ba8948b4b6cdfd4907,32,2022-02-12_14h43.25.200,lexical_decision_task_DD_L3,2021.2.3,Win32,60.01680471,,,,,,,,,,,,0.7718,1,,,,,,,,,,,,,,m,1,0.7718,,,,,,,,0.88777794,-0.407777859,0,0,0,,0,112,112,41,1,STRING,HB,old,m,./images/STRINGHB.png,,,,,,,,,,,,,,,,,,,,,,,,,,,,,,,,,,
,,,,,,,,,,,,,,,,,610789ba8948b4b6cdfd4907,32,2022-02-12_14h43.25.200,lexical_decision_task_DD_L3,2021.2.3,Win32,60.01680471,,,,,,,,,,,,0.4844,1,,,,,,,,,,,,,,m,1,0.4844,,,,,,,,0.88777794,-0.407777859,0,0,0,,0,113,113,10,1,BELLY,C,old,m,./images/BELLY.png,,,,,,,,,,,,,,,,,,,,,,,,,,,,,,,,,,
,,,,,,,,,,,,,,,,,610789ba8948b4b6cdfd4907,32,2022-02-12_14h43.25.200,lexical_decision_task_DD_L3,2021.2.3,Win32,60.01680471,,,,,,,,,,,,1.1528,1,,,,,,,,,,,,,,z,1,1.1528,,,,,,,,0.88777794,-0.407777859,0,0,0,,0,114,114,90,1,NEAST,C,old,z,./images/NEAST.png,,,,,,,,,,,,,,,,,,,,,,,,,,,,,,,,,,
,,,,,,,,,,,,,,,,,610789ba8948b4b6cdfd4907,32,2022-02-12_14h43.25.200,lexical_decision_task_DD_L3,2021.2.3,Win32,60.01680471,,,,,,,,,,,,1.4396,1,,,,,,,,,,,,,,z,1,1.4396,,,,,,,,0.88777794,-0.407777859,0,0,0,,0,115,115,112,1,MYING,HB,old,z,./images/MYINGHB.png,,,,,,,,,,,,,,,,,,,,,,,,,,,,,,,,,,
,,,,,,,,,,,,,,,,,610789ba8948b4b6cdfd4907,32,2022-02-12_14h43.25.200,lexical_decision_task_DD_L3,2021.2.3,Win32,60.01680471,,,,,,,,,,,,0.8371,1,,,,,,,,,,,,,,z,1,0.8371,,,,,,,,0.88777794,-0.407777859,0,0,0,,0,116,116,150,1,NOOLS,C,old,z,./images/NOOLS.png,,,,,,,,,,,,,,,,,,,,,,,,,,,,,,,,,,
,,,,,,,,,,,,,,,,,610789ba8948b4b6cdfd4907,32,2022-02-12_14h43.25.200,lexical_decision_task_DD_L3,2021.2.3,Win32,60.01680471,,,,,,,,,,,,0.5705,1,,,,,,,,,,,,,,m,1,0.5705,,,,,,,,0.88777794,-0.407777859,0,0,0,,0,117,117,19,1,DOUGH,C,old,m,./images/DOUGH.png,,,,,,,,,,,,,,,,,,,,,,,,,,,,,,,,,,
,,,,,,,,,,,,,,,,,610789ba8948b4b6cdfd4907,32,2022-02-12_14h43.25.200,lexical_decision_task_DD_L3,2021.2.3,Win32,60.01680471,,,,,,,,,,,,0.5015,1,,,,,,,,,,,,,,m,1,0.5015,,,,,,,,0.88777794,-0.407777859,0,0,0,,0,118,118,45,1,KITTEN,LB,old,m,./images/KITTENLB.png,,,,,,,,,,,,,,,,,,,,,,,,,,,,,,,,,,
,,,,,,,,,,,,,,,,,610789ba8948b4b6cdfd4907,32,2022-02-12_14h43.25.200,lexical_decision_task_DD_L3,2021.2.3,Win32,60.01680471,,,,,,,,,,,,0.6205,1,,,,,,,,,,,,,,m,1,0.6205,,,,,,,,0.88777794,-0.407777859,0,0,0,,0,119,119,15,1,GREASE,LB,old,m,./images/GREASELB.png,,,,,,,,,,,,,,,,,,,,,,,,,,,,,,,,,,
,,,,,,,,,,,,,,,,,610789ba8948b4b6cdfd4907,32,2022-02-12_14h43.25.200,lexical_decision_task_DD_L3,2021.2.3,Win32,60.01680471,,,,,,,,,,,,1.4422,1,,,,,,,,,,,,,,z,1,1.4422,,,,,,,,0.88777794,-0.407777859,0,0,0,,0,120,120,127,1,NINDY,HB,old,z,./images/NINDYHB.png,,,,,,,,,,,,,,,,,,,,,,,,,,,,,,,,,,
,,,,,,,,,,,,,,,,,610789ba8948b4b6cdfd4907,32,2022-02-12_14h43.25.200,lexical_decision_task_DD_L3,2021.2.3,Win32,60.01680471,,,,,,,,,,,,0.9445,1,,,,,,,,,,,,,,m,1,0.9445,,,,,,,,0.88777794,-0.407777859,0,0,0,,0,121,121,31,1,QUILL,C,old,m,./images/QUILL.png,,,,,,,,,,,,,,,,,,,,,,,,,,,,,,,,,,
,,,,,,,,,,,,,,,,,610789ba8948b4b6cdfd4907,32,2022-02-12_14h43.25.200,lexical_decision_task_DD_L3,2021.2.3,Win32,60.01680471,,,,,,,,,,,,0.5809,1,,,,,,,,,,,,,,m,1,0.5809,,,,,,,,0.88777794,-0.407777859,0,0,0,,0,122,122,22,1,MELON,C,old,m,./images/MELON.png,,,,,,,,,,,,,,,,,,,,,,,,,,,,,,,,,,
,,,,,,,,,,,,,,,,,610789ba8948b4b6cdfd4907,32,2022-02-12_14h43.25.200,lexical_decision_task_DD_L3,2021.2.3,Win32,60.01680471,,,,,,,,,,,,0.4518,1,,,,,,,,,,,,,,m,1,0.4518,,,,,,,,0.88777794,-0.407777859,0,0,0,,0,123,123,4,1,MUSCLE,C,old,m,./images/MUSCLE.png,,,,,,,,,,,,,,,,,,,,,,,,,,,,,,,,,,
,,,,,,,,,,,,,,,,,610789ba8948b4b6cdfd4907,32,2022-02-12_14h43.25.200,lexical_decision_task_DD_L3,2021.2.3,Win32,60.01680471,,,,,,,,,,,,0.4432,0,,,,,,,,,,,,,,m,0,0.4432,,,,,,,,0.88777794,-0.407777859,0,0,0,,0,124,124,144,1,NAIRY,C,old,z,./images/NAIRY.png,,,,,,,,,,,,,,,,,,,,,,,,,,,,,,,,,,
,,,,,,,,,,,,,,,,,610789ba8948b4b6cdfd4907,32,2022-02-12_14h43.25.200,lexical_decision_task_DD_L3,2021.2.3,Win32,60.01680471,,,,,,,,,,,,0.7966,1,,,,,,,,,,,,,,m,1,0.7966,,,,,,,,0.88777794,-0.407777859,0,0,0,space,0,125,125,65,1,FARMER,HB,old,m,./images/FARMERHB.png,2.1874,,,,,,,,,,,,,,,,,,,,,,,,,,,,,,,,,
,,,,,,,,,,,,,,,,,610789ba8948b4b6cdfd4907,32,2022-02-12_14h43.25.200,lexical_decision_task_DD_L3,2021.2.3,Win32,60.01680471,,,,,,,,,,,,0.8046,1,,,,,,,,,,,,,,z,1,0.8046,,,,,,,,0.88777794,-0.407777859,0,0,0,,0,126,126,141,1,PLEET,C,old,z,./images/PLEET.png,,,,,,,,,,,,,,,,,,,,,,,,,,,,,,,,,,
,,,,,,,,,,,,,,,,,610789ba8948b4b6cdfd4907,32,2022-02-12_14h43.25.200,lexical_decision_task_DD_L3,2021.2.3,Win32,60.01680471,,,,,,,,,,,,0.6099,1,,,,,,,,,,,,,,m,1,0.6099,,,,,,,,0.88777794,-0.407777859,0,0,0,,0,127,127,80,1,WEASEL,HB,old,m,./images/WEASELHB.png,,,,,,,,,,,,,,,,,,,,,,,,,,,,,,,,,,
,,,,,,,,,,,,,,,,,610789ba8948b4b6cdfd4907,32,2022-02-12_14h43.25.200,lexical_decision_task_DD_L3,2021.2.3,Win32,60.01680471,,,,,,,,,,,,0.7604,0,,,,,,,,,,,,,,m,0,0.7604,,,,,,,,0.88777794,-0.407777859,0,0,0,,0,128,128,145,1,LAMEL,HB,old,z,./images/LAMELHB.png,,,,,,,,,,,,,,,,,,,,,,,,,,,,,,,,,,
,,,,,,,,,,,,,,,,,610789ba8948b4b6cdfd4907,32,2022-02-12_14h43.25.200,lexical_decision_task_DD_L3,2021.2.3,Win32,60.01680471,,,,,,,,,,,,0.6237,1,,,,,,,,,,,,,,m,1,0.6237,,,,,,,,0.88777794,-0.407777859,0,0,0,,0,129,129,11,1,BONNET,HB,old,m,./images/BONNETHB.png,,,,,,,,,,,,,,,,,,,,,,,,,,,,,,,,,,
,,,,,,,,,,,,,,,,,610789ba8948b4b6cdfd4907,32,2022-02-12_14h43.25.200,lexical_decision_task_DD_L3,2021.2.3,Win32,60.01680471,,,,,,,,,,,,0.7422,0,,,,,,,,,,,,,,m,0,0.7422,,,,,,,,0.88777794,-0.407777859,0,0,0,,0,130,130,118,1,BAVEL,HB,old,z,./images/BAVELHB.png,,,,,,,,,,,,,,,,,,,,,,,,,,,,,,,,,,
,,,,,,,,,,,,,,,,,610789ba8948b4b6cdfd4907,32,2022-02-12_14h43.25.200,lexical_decision_task_DD_L3,2021.2.3,Win32,60.01680471,,,,,,,,,,,,1.6236,0,,,,,,,,,,,,,,m,0,1.6236,,,,,,,,0.88777794,-0.407777859,0,0,0,,0,131,131,139,1,BLEAR,HB,old,z,./images/BLEARHB.png,,,,,,,,,,,,,,,,,,,,,,,,,,,,,,,,,,
,,,,,,,,,,,,,,,,,610789ba8948b4b6cdfd4907,32,2022-02-12_14h43.25.200,lexical_decision_task_DD_L3,2021.2.3,Win32,60.01680471,,,,,,,,,,,,1.0367,0,,,,,,,,,,,,,,m,0,1.0367,,,,,,,,0.88777794,-0.407777859,0,0,0,,0,132,132,166,1,SHORY,HB,old,z,./images/SHORYHB.png,,,,,,,,,,,,,,,,,,,,,,,,,,,,,,,,,,
,,,,,,,,,,,,,,,,,610789ba8948b4b6cdfd4907,32,2022-02-12_14h43.25.200,lexical_decision_task_DD_L3,2021.2.3,Win32,60.01680471,,,,,,,,,,,,0.639,1,,,,,,,,,,,,,,m,1,0.639,,,,,,,,0.88777794,-0.407777859,0,0,0,,0,133,133,9,1,RHINO,LB,old,m,./images/RHINOLB.png,,,,,,,,,,,,,,,,,,,,,,,,,,,,,,,,,,
,,,,,,,,,,,,,,,,,610789ba8948b4b6cdfd4907,32,2022-02-12_14h43.25.200,lexical_decision_task_DD_L3,2021.2.3,Win32,60.01680471,,,,,,,,,,,,0.6413,1,,,,,,,,,,,,,,m,1,0.6413,,,,,,,,0.88777794,-0.407777859,0,0,0,,0,134,134,61,1,CANDLE,C,old,m,./images/CANDLE.png,,,,,,,,,,,,,,,,,,,,,,,,,,,,,,,,,,
,,,,,,,,,,,,,,,,,610789ba8948b4b6cdfd4907,32,2022-02-12_14h43.25.200,lexical_decision_task_DD_L3,2021.2.3,Win32,60.01680471,,,,,,,,,,,,0.5186,1,,,,,,,,,,,,,,m,1,0.5186,,,,,,,,0.88777794,-0.407777859,0,0,0,,0,135,135,67,1,SAILOR,C,old,m,./images/SAILOR.png,,,,,,,,,,,,,,,,,,,,,,,,,,,,,,,,,,
,,,,,,,,,,,,,,,,,610789ba8948b4b6cdfd4907,32,2022-02-12_14h43.25.200,lexical_decision_task_DD_L3,2021.2.3,Win32,60.01680471,,,,,,,,,,,,0.6156,1,,,,,,,,,,,,,,m,1,0.6156,,,,,,,,0.88777794,-0.407777859,0,0,0,,0,136,136,70,1,URINE,C,old,m,./images/URINE.png,,,,,,,,,,,,,,,,,,,,,,,,,,,,,,,,,,
,,,,,,,,,,,,,,,,,610789ba8948b4b6cdfd4907,32,2022-02-12_14h43.25.200,lexical_decision_task_DD_L3,2021.2.3,Win32,60.01680471,,,,,,,,,,,,0.8532,1,,,,,,,,,,,,,,z,1,0.8532,,,,,,,,0.88777794,-0.407777859,0,0,0,,0,137,137,105,1,MOKER,C,old,z,./images/MOKER.png,,,,,,,,,,,,,,,,,,,,,,,,,,,,,,,,,,
,,,,,,,,,,,,,,,,,610789ba8948b4b6cdfd4907,32,2022-02-12_14h43.25.200,lexical_decision_task_DD_L3,2021.2.3,Win32,60.01680471,,,,,,,,,,,,1.1066,0,,,,,,,,,,,,,,m,0,1.1066,,,,,,,,0.88777794,-0.407777859,0,0,0,,0,138,138,114,1,RIKES,C,old,z,./images/RIKES.png,,,,,,,,,,,,,,,,,,,,,,,,,,,,,,,,,,
,,,,,,,,,,,,,,,,,610789ba8948b4b6cdfd4907,32,2022-02-12_14h43.25.200,lexical_decision_task_DD_L3,2021.2.3,Win32,60.01680471,,,,,,,,,,,,0.5502,1,,,,,,,,,,,,,,m,1,0.5502,,,,,,,,0.88777794,-0.407777859,0,0,0,,0,139,139,52,1,BANNER,C,old,m,./images/BANNER.png,,,,,,,,,,,,,,,,,,,,,,,,,,,,,,,,,,
,,,,,,,,,,,,,,,,,610789ba8948b4b6cdfd4907,32,2022-02-12_14h43.25.200,lexical_decision_task_DD_L3,2021.2.3,Win32,60.01680471,,,,,,,,,,,,0.5338,1,,,,,,,,,,,,,,m,1,0.5338,,,,,,,,0.88777794,-0.407777859,0,0,0,,0,140,140,76,1,INFANT,C,old,m,./images/INFANT.png,,,,,,,,,,,,,,,,,,,,,,,,,,,,,,,,,,
,,,,,,,,,,,,,,,,,610789ba8948b4b6cdfd4907,32,2022-02-12_14h43.25.200,lexical_decision_task_DD_L3,2021.2.3,Win32,60.01680471,,,,,,,,,,,,0.9359,1,,,,,,,,,,,,,,z,1,0.9359,,,,,,,,0.88777794,-0.407777859,0,0,0,,0,141,141,133,1,POWDY,HB,old,z,./images/POWDYHB.png,,,,,,,,,,,,,,,,,,,,,,,,,,,,,,,,,,
,,,,,,,,,,,,,,,,,610789ba8948b4b6cdfd4907,32,2022-02-12_14h43.25.200,lexical_decision_task_DD_L3,2021.2.3,Win32,60.01680471,,,,,,,,,,,,1.5383,1,,,,,,,,,,,,,,z,1,1.5383,,,,,,,,0.88777794,-0.407777859,0,0,0,,0,142,142,142,1,PLASK,HB,old,z,./images/PLASKHB.png,,,,,,,,,,,,,,,,,,,,,,,,,,,,,,,,,,
,,,,,,,,,,,,,,,,,610789ba8948b4b6cdfd4907,32,2022-02-12_14h43.25.200,lexical_decision_task_DD_L3,2021.2.3,Win32,60.01680471,,,,,,,,,,,,0.7386,1,,,,,,,,,,,,,,z,1,0.7386,,,,,,,,0.88777794,-0.407777859,0,0,0,,0,143,143,132,1,SCIFF,C,old,z,./images/SCIFF.png,,,,,,,,,,,,,,,,,,,,,,,,,,,,,,,,,,
,,,,,,,,,,,,,,,,,610789ba8948b4b6cdfd4907,32,2022-02-12_14h43.25.200,lexical_decision_task_DD_L3,2021.2.3,Win32,60.01680471,,,,,,,,,,,,0.5874,1,,,,,,,,,,,,,,m,1,0.5874,,,,,,,,0.88777794,-0.407777859,0,0,0,,0,144,144,40,1,SWING,C,old,m,./images/SWING.png,,,,,,,,,,,,,,,,,,,,,,,,,,,,,,,,,,
,,,,,,,,,,,,,,,,,610789ba8948b4b6cdfd4907,32,2022-02-12_14h43.25.200,lexical_decision_task_DD_L3,2021.2.3,Win32,60.01680471,,,,,,,,,,,,0.8585,1,,,,,,,,,,,,,,z,1,0.8585,,,,,,,,0.88777794,-0.407777859,0,0,0,,0,145,145,130,1,CRILL,HB,old,z,./images/CRILLHB.png,,,,,,,,,,,,,,,,,,,,,,,,,,,,,,,,,,
,,,,,,,,,,,,,,,,,610789ba8948b4b6cdfd4907,32,2022-02-12_14h43.25.200,lexical_decision_task_DD_L3,2021.2.3,Win32,60.01680471,,,,,,,,,,,,0.56,1,,,,,,,,,,,,,,m,1,0.56,,,,,,,,0.88777794,-0.407777859,0,0,0,,0,146,146,81,1,POODLE,LB,old,m,./images/POODLELB.png,,,,,,,,,,,,,,,,,,,,,,,,,,,,,,,,,,
,,,,,,,,,,,,,,,,,610789ba8948b4b6cdfd4907,32,2022-02-12_14h43.25.200,lexical_decision_task_DD_L3,2021.2.3,Win32,60.01680471,,,,,,,,,,,,0.7205,1,,,,,,,,,,,,,,z,1,0.7205,,,,,,,,0.88777794,-0.407777859,0,0,0,,0,147,147,113,1,LINEW,LB,old,z,./images/LINEWLB.png,,,,,,,,,,,,,,,,,,,,,,,,,,,,,,,,,,
,,,,,,,,,,,,,,,,,610789ba8948b4b6cdfd4907,32,2022-02-12_14h43.25.200,lexical_decision_task_DD_L3,2021.2.3,Win32,60.01680471,,,,,,,,,,,,1.0972,1,,,,,,,,,,,,,,m,1,1.0972,,,,,,,,0.88777794,-0.407777859,0,0,0,,0,148,148,2,1,BEARD,HB,old,m,./images/BEARDHB.png,,,,,,,,,,,,,,,,,,,,,,,,,,,,,,,,,,
,,,,,,,,,,,,,,,,,610789ba8948b4b6cdfd4907,32,2022-02-12_14h43.25.200,lexical_decision_task_DD_L3,2021.2.3,Win32,60.01680471,,,,,,,,,,,,1.0611,0,,,,,,,,,,,,,,m,0,1.0611,,,,,,,,0.88777794,-0.407777859,0,0,0,,0,149,149,88,1,GLUSH,HB,old,z,./images/GLUSHHB.png,,,,,,,,,,,,,,,,,,,,,,,,,,,,,,,,,,
,,,,,,,,,,,,,,,,,610789ba8948b4b6cdfd4907,32,2022-02-12_14h43.25.200,lexical_decision_task_DD_L3,2021.2.3,Win32,60.01680471,,,,,,,,,,,,0.7396,1,,,,,,,,,,,,,,z,1,0.7396,,,,,,,,0.88777794,-0.407777859,0,0,0,,0,150,150,135,1,JOODY,C,old,z,./images/JOODY.png,,,,,,,,,,,,,,,,,,,,,,,,,,,,,,,,,,
,,,,,,,,,,,,,,,,,610789ba8948b4b6cdfd4907,32,2022-02-12_14h43.25.200,lexical_decision_task_DD_L3,2021.2.3,Win32,60.01680471,,,,,,,,,,,,0.7865,1,,,,,,,,,,,,,,m,1,0.7865,,,,,,,,0.88777794,-0.407777859,0,0,0,,0,151,151,27,1,ATTIC,LB,old,m,./images/ATTICLB.png,,,,,,,,,,,,,,,,,,,,,,,,,,,,,,,,,,
,,,,,,,,,,,,,,,,,610789ba8948b4b6cdfd4907,32,2022-02-12_14h43.25.200,lexical_decision_task_DD_L3,2021.2.3,Win32,60.01680471,,,,,,,,,,,,0.4912,1,,,,,,,,,,,,,,m,1,0.4912,,,,,,,,0.88777794,-0.407777859,0,0,0,,0,152,152,57,1,MOOSE,LB,old,m,./images/MOOSELB.png,,,,,,,,,,,,,,,,,,,,,,,,,,,,,,,,,,
,,,,,,,,,,,,,,,,,610789ba8948b4b6cdfd4907,32,2022-02-12_14h43.25.200,lexical_decision_task_DD_L3,2021.2.3,Win32,60.01680471,,,,,,,,,,,,0.5584,0,,,,,,,,,,,,,,m,0,0.5584,,,,,,,,0.88777794,-0.407777859,0,0,0,,0,153,153,110,1,CRUNK,LB,old,z,./images/CRUNKLB.png,,,,,,,,,,,,,,,,,,,,,,,,,,,,,,,,,,
,,,,,,,,,,,,,,,,,610789ba8948b4b6cdfd4907,32,2022-02-12_14h43.25.200,lexical_decision_task_DD_L3,2021.2.3,Win32,60.01680471,,,,,,,,,,,,0.5273,1,,,,,,,,,,,,,,z,1,0.5273,,,,,,,,0.88777794,-0.407777859,0,0,0,,0,154,154,147,1,ZOLES,C,old,z,./images/ZOLES.png,,,,,,,,,,,,,,,,,,,,,,,,,,,,,,,,,,
,,,,,,,,,,,,,,,,,610789ba8948b4b6cdfd4907,32,2022-02-12_14h43.25.200,lexical_decision_task_DD_L3,2021.2.3,Win32,60.01680471,,,,,,,,,,,,1.0165,1,,,,,,,,,,,,,,m,1,1.0165,,,,,,,,0.88777794,-0.407777859,0,0,0,,0,155,155,35,1,PEACH,HB,old,m,./images/PEACHHB.png,,,,,,,,,,,,,,,,,,,,,,,,,,,,,,,,,,
,,,,,,,,,,,,,,,,,610789ba8948b4b6cdfd4907,32,2022-02-12_14h43.25.200,lexical_decision_task_DD_L3,2021.2.3,Win32,60.01680471,,,,,,,,,,,,0.5387,1,,,,,,,,,,,,,,m,1,0.5387,,,,,,,,0.88777794,-0.407777859,0,0,0,,0,156,156,13,1,MOTOR,C,old,m,./images/MOTOR.png,,,,,,,,,,,,,,,,,,,,,,,,,,,,,,,,,,
,,,,,,,,,,,,,,,,,610789ba8948b4b6cdfd4907,32,2022-02-12_14h43.25.200,lexical_decision_task_DD_L3,2021.2.3,Win32,60.01680471,,,,,,,,,,,,0.6544,1,,,,,,,,,,,,,,z,1,0.6544,,,,,,,,0.88777794,-0.407777859,0,0,0,,0,157,157,164,1,SGREW,LB,old,z,./images/SGREWLB.png,,,,,,,,,,,,,,,,,,,,,,,,,,,,,,,,,,
,,,,,,,,,,,,,,,,,610789ba8948b4b6cdfd4907,32,2022-02-12_14h43.25.200,lexical_decision_task_DD_L3,2021.2.3,Win32,60.01680471,,,,,,,,,,,,1.1727,1,,,,,,,,,,,,,,z,1,1.1727,,,,,,,,0.88777794,-0.407777859,0,0,0,,0,158,158,156,1,HIXES,C,old,z,./images/HIXES.png,,,,,,,,,,,,,,,,,,,,,,,,,,,,,,,,,,
,,,,,,,,,,,,,,,,,610789ba8948b4b6cdfd4907,32,2022-02-12_14h43.25.200,lexical_decision_task_DD_L3,2021.2.3,Win32,60.01680471,,,,,,,,,,,,0.5727,1,,,,,,,,,,,,,,m,1,0.5727,,,,,,,,0.88777794,-0.407777859,0,0,0,,0,159,159,25,1,WRIST,C,old,m,./images/WRIST.png,,,,,,,,,,,,,,,,,,,,,,,,,,,,,,,,,,
,,,,,,,,,,,,,,,,,610789ba8948b4b6cdfd4907,32,2022-02-12_14h43.25.200,lexical_decision_task_DD_L3,2021.2.3,Win32,60.01680471,,,,,,,,,,,,0.5573,1,,,,,,,,,,,,,,m,1,0.5573,,,,,,,,0.88777794,-0.407777859,0,0,0,,0,160,160,60,1,TWINS,LB,old,m,./images/TWINSLB.png,,,,,,,,,,,,,,,,,,,,,,,,,,,,,,,,,,
,,,,,,,,,,,,,,,,,610789ba8948b4b6cdfd4907,32,2022-02-12_14h43.25.200,lexical_decision_task_DD_L3,2021.2.3,Win32,60.01680471,,,,,,,,,,,,0.6145,1,,,,,,,,,,,,,,m,1,0.6145,,,,,,,,0.88777794,-0.407777859,0,0,0,,0,161,161,68,1,TORCH,HB,old,m,./images/TORCHHB.png,,,,,,,,,,,,,,,,,,,,,,,,,,,,,,,,,,
,,,,,,,,,,,,,,,,,610789ba8948b4b6cdfd4907,32,2022-02-12_14h43.25.200,lexical_decision_task_DD_L3,2021.2.3,Win32,60.01680471,,,,,,,,,,,,0.9168,1,,,,,,,,,,,,,,m,1,0.9168,,,,,,,,0.88777794,-0.407777859,0,0,0,,0,162,162,23,1,WALRUS,HB,old,m,./images/WALRUSHB.png,,,,,,,,,,,,,,,,,,,,,,,,,,,,,,,,,,
,,,,,,,,,,,,,,,,,610789ba8948b4b6cdfd4907,32,2022-02-12_14h43.25.200,lexical_decision_task_DD_L3,2021.2.3,Win32,60.01680471,,,,,,,,,,,,0.9851,1,,,,,,,,,,,,,,m,1,0.9851,,,,,,,,0.88777794,-0.407777859,0,0,0,,0,163,163,5,1,PASTA,HB,old,m,./images/PASTAHB.png,,,,,,,,,,,,,,,,,,,,,,,,,,,,,,,,,,
,,,,,,,,,,,,,,,,,610789ba8948b4b6cdfd4907,32,2022-02-12_14h43.25.200,lexical_decision_task_DD_L3,2021.2.3,Win32,60.01680471,,,,,,,,,,,,1.3258,1,,,,,,,,,,,,,,z,1,1.3258,,,,,,,,0.88777794,-0.407777859,0,0,0,,0,164,164,116,1,BALGY,LB,old,z,./images/BALGYLB.png,,,,,,,,,,,,,,,,,,,,,,,,,,,,,,,,,,
,,,,,,,,,,,,,,,,,610789ba8948b4b6cdfd4907,32,2022-02-12_14h43.25.200,lexical_decision_task_DD_L3,2021.2.3,Win32,60.01680471,,,,,,,,,,,,0.6018,1,,,,,,,,,,,,,,m,1,0.6018,,,,,,,,0.88777794,-0.407777859,0,0,0,,0,165,165,18,1,JAGUAR,LB,old,m,./images/JAGUARLB.png,,,,,,,,,,,,,,,,,,,,,,,,,,,,,,,,,,
,,,,,,,,,,,,,,,,,610789ba8948b4b6cdfd4907,32,2022-02-12_14h43.25.200,lexical_decision_task_DD_L3,2021.2.3,Win32,60.01680471,,,,,,,,,,,,0.4873,1,,,,,,,,,,,,,,m,1,0.4873,,,,,,,,0.88777794,-0.407777859,0,0,0,,0,166,166,79,1,CRUST,C,old,m,./images/CRUST.png,,,,,,,,,,,,,,,,,,,,,,,,,,,,,,,,,,
,,,,,,,,,,,,,,,,,610789ba8948b4b6cdfd4907,32,2022-02-12_14h43.25.200,lexical_decision_task_DD_L3,2021.2.3,Win32,60.01680471,,,,,,,,,,,,1.0577,1,,,,,,,,,,,,,,m,1,1.0577,,,,,,,,0.88777794,-0.407777859,0,0,0,,0,167,167,44,1,LIZARD,HB,old,m,./images/LIZARDHB.png,,,,,,,,,,,,,,,,,,,,,,,,,,,,,,,,,,
,,,,,,,,,,,,,,,,,610789ba8948b4b6cdfd4907,32,2022-02-12_14h43.25.200,lexical_decision_task_DD_L3,2021.2.3,Win32,60.01680471,,,,,,,,,,,,,,,,,,,,,,,,,,,,,,,,,,,,,,,,,,,,,,,,,How likely will it be that you will recognize the words presented clearly on a scale of 0 (not likely) to 100 (most likely)?,,,,,-0.011111098,-0.405555569,1,0,0,jol_adv,5,7.4022,0,0,0,0,1,,,,,,,,,,,,,,,,,,,,
,,,,,,,,,,,,,,,,,610789ba8948b4b6cdfd4907,32,2022-02-12_14h43.25.200,lexical_decision_task_DD_L3,2021.2.3,Win32,60.01680471,,,,,,,,,,,,,,,,,,,,,,,,,,,,,,,,,,,,,,,,,,,,,,,,,How likely will it be that you will recognize the words presented very blurred on a scale of 0 (not likely) to 100 (most likely)?,,,,,,,,,,,4,7.2387,0,1,1,2,1,,,,,,,,,,,,,,,,,,,,
,,,,,,,,,,,,,,,,,610789ba8948b4b6cdfd4907,32,2022-02-12_14h43.25.200,lexical_decision_task_DD_L3,2021.2.3,Win32,60.01680471,,,,,,,,,,,,,,,,,,,,,,,,,,,,,,,,,,,,,,,,,,,,,,,,,How likely will it be that you will recognize the words presented slighly blurred on a scale of 0 (not likely) to 100 (most likely)?,,,,,,,,,,,5,4.8988,0,2,2,1,1,,,,,,,,,,,,,,,,,,,,
space,0.318888907,-0.291111191,0,0,0,,,,,,,1,test,"In the next phase you will be presented with the words from the the first phase. Your job is to decide whether you remember seeing the word or not. If you remember seeing the word press ""old"" or type ""m"". If you do not remember seeing the word press ""new"" or type ""z"". Please press the space bar or click on continue to begin. ",,,610789ba8948b4b6cdfd4907,32,2022-02-12_14h43.25.200,lexical_decision_task_DD_L3,2021.2.3,Win32,60.01680471,21.044,,,,,,,,,,,,,,,,,,,,,,,,,,,,,,,,,,,,,,,,,,,,,,,,,,,,,,,,,,,,,,,,,,0,0,0,0,1,,,,,,,,,,,,,,,
,0.098888904,-0.38666668,1,0,0,instr_done_button,,,,,,1,test,"In the next phase you will be presented with the words from the the first phase. Your job is to decide whether you remember seeing the word or not. If you remember seeing the word press ""old"" or type ""m"". If you do not remember seeing the word press ""new"" or type ""z"". Please press the space bar or click on continue to begin. ",,,610789ba8948b4b6cdfd4907,32,2022-02-12_14h43.25.200,lexical_decision_task_DD_L3,2021.2.3,Win32,60.01680471,,,,,,,,,,,,,,,,,,,,,,,,,,,,,,,,,,,,,,,,,,,,,,,,,,,,,,,,,,,,,,,,,,,1,0,1,0,1,,,,,,,,,,,,,,,
,-0.073333321,-0.427777792,1,0,0,instr_done_button,,,,,,1,test,"In the next phase you will be presented with the words from the the first phase. Your job is to decide whether you remember seeing the word or not. If you remember seeing the word press ""old"" or type ""m"". If you do not remember seeing the word press ""new"" or type ""z"". Please press the space bar or click on continue to begin. ",,,610789ba8948b4b6cdfd4907,32,2022-02-12_14h43.25.200,lexical_decision_task_DD_L3,2021.2.3,Win32,60.01680471,,,,,,,,,,,,,,,,,,,,,,,,,,,,,,,,,,,,,,,,,,,,,,,,,,,,,,,,,,,,,,,,,,,2,0,2,0,1,,,,,,,,,,,,,,,
space,0.048888903,-0.273333345,0,0,0,,,,,,,1,test,"In the next phase you will be presented with the words from the the first phase. Your job is to decide whether you remember seeing the word or not. If you remember seeing the word press ""old"" or type ""m"". If you do not remember seeing the word press ""new"" or type ""z"". Please press the space bar or click on continue to begin. ",,,610789ba8948b4b6cdfd4907,32,2022-02-12_14h43.25.200,lexical_decision_task_DD_L3,2021.2.3,Win32,60.01680471,0.7347,,,,,,,,,,,,,,,,,,,,,,,,,,,,,,,,,,,,,,,,,,,,,,,,,,,,,,,,,,,,,,,,,,3,0,3,0,1,,,,,,,,,,,,,,,
space,0.293333351,0.063333327,0,0,0,,,,,,,1,test,"In the next phase you will be presented with the words from the the first phase. Your job is to decide whether you remember seeing the word or not. If you remember seeing the word press ""old"" or type ""m"". If you do not remember seeing the word press ""new"" or type ""z"". Please press the space bar or click on continue to begin. ",,,610789ba8948b4b6cdfd4907,32,2022-02-12_14h43.25.200,lexical_decision_task_DD_L3,2021.2.3,Win32,60.01680471,1.6875,,,,,,,,,,,,,,,,,,,,,,,,,,,,,,,,,,,,,,,,,,,,,,,,,,,,,,,,,,,,,,,,,,4,0,4,0,1,,,,,,,,,,,,,,,
,,,,,,,,,,,,,,,,,610789ba8948b4b6cdfd4907,32,2022-02-12_14h43.25.200,lexical_decision_task_DD_L3,2021.2.3,Win32,60.01680471,,,,,,,,,,,,2.3307,1,,,,,,,,,,,,,,,,,,,,,,,,0.338888907,0.04666666,0,0,0,,,,,,,JUNGLE,HB,m,m,./images/JUNGLEHB.png,,,,,,,,,,,,,,,,,,,,m,1,2.3307,,,,,,,,0,0,0,83,1
,,,,,,,,,,,,,,,,,610789ba8948b4b6cdfd4907,32,2022-02-12_14h43.25.200,lexical_decision_task_DD_L3,2021.2.3,Win32,60.01680471,,,,,,,,,,,,0.5543,1,,,,,,,,,,,,,,,,,,,,,,,,0.338888907,0.04666666,0,0,0,,,,,,,TORCH,HB,m,m,./images/TORCHHB.png,,,,,,,,,,,,,,,,,,,,m,1,0.5543,,,,,,,,0,1,1,68,1
,,,,,,,,,,,,,,,,,610789ba8948b4b6cdfd4907,32,2022-02-12_14h43.25.200,lexical_decision_task_DD_L3,2021.2.3,Win32,60.01680471,,,,,,,,,,,,0.5309,1,,,,,,,,,,,,,,,,,,,,,,,,0.338888907,0.04666666,0,0,0,,,,,,,TRIPOD,LB,m,m,./images/TRIPODLB.png,,,,,,,,,,,,,,,,,,,,m,1,0.5309,,,,,,,,0,2,2,54,1
,,,,,,,,,,,,,,,,,610789ba8948b4b6cdfd4907,32,2022-02-12_14h43.25.200,lexical_decision_task_DD_L3,2021.2.3,Win32,60.01680471,,,,,,,,,,,,0.9673,1,,,,,,,,,,,,,,,,,,,,,,,,0.338888907,0.04666666,0,0,0,,,,,,,SLOPE,LB,z,m,./images/SLOPELB.png,,,,,,,,,,,,,,,,,,,,z,1,0.9673,,,,,,,,0,3,3,114,1
,,,,,,,,,,,,,,,,,610789ba8948b4b6cdfd4907,32,2022-02-12_14h43.25.200,lexical_decision_task_DD_L3,2021.2.3,Win32,60.01680471,,,,,,,,,,,,0.6294,1,,,,,,,,,,,,,,,,,,,,,,,,0.338888907,0.04666666,0,0,0,,,,,,,CRUST,C,m,m,./images/CRUST.png,,,,,,,,,,,,,,,,,,,,m,1,0.6294,,,,,,,,0,4,4,79,1
,,,,,,,,,,,,,,,,,610789ba8948b4b6cdfd4907,32,2022-02-12_14h43.25.200,lexical_decision_task_DD_L3,2021.2.3,Win32,60.01680471,,,,,,,,,,,,0.6519,1,,,,,,,,,,,,,,,,,,,,,,,,0.338888907,0.04666666,0,0,0,,,,,,,CRUMB,HB,m,m,./images/CRUMBHB.png,,,,,,,,,,,,,,,,,,,,m,1,0.6519,,,,,,,,0,5,5,29,1
,,,,,,,,,,,,,,,,,610789ba8948b4b6cdfd4907,32,2022-02-12_14h43.25.200,lexical_decision_task_DD_L3,2021.2.3,Win32,60.01680471,,,,,,,,,,,,0.7353,1,,,,,,,,,,,,,,,,,,,,,,,,0.338888907,0.04666666,0,0,0,,,,,,,MEDAL,HB,z,m,./images/MEDALHB.png,,,,,,,,,,,,,,,,,,,,z,1,0.7353,,,,,,,,0,6,6,95,1
,,,,,,,,,,,,,,,,,610789ba8948b4b6cdfd4907,32,2022-02-12_14h43.25.200,lexical_decision_task_DD_L3,2021.2.3,Win32,60.01680471,,,,,,,,,,,,0.7513,1,,,,,,,,,,,,,,,,,,,,,,,,0.338888907,0.04666666,0,0,0,,,,,,,LIZARD,HB,m,m,./images/LIZARDHB.png,,,,,,,,,,,,,,,,,,,,m,1,0.7513,,,,,,,,0,7,7,44,1
,,,,,,,,,,,,,,,,,610789ba8948b4b6cdfd4907,32,2022-02-12_14h43.25.200,lexical_decision_task_DD_L3,2021.2.3,Win32,60.01680471,,,,,,,,,,,,0.5467,1,,,,,,,,,,,,,,,,,,,,,,,,0.338888907,0.04666666,0,0,0,,,,,,,GREASE,LB,m,m,./images/GREASELB.png,,,,,,,,,,,,,,,,,,,,m,1,0.5467,,,,,,,,0,8,8,15,1
,,,,,,,,,,,,,,,,,610789ba8948b4b6cdfd4907,32,2022-02-12_14h43.25.200,lexical_decision_task_DD_L3,2021.2.3,Win32,60.01680471,,,,,,,,,,,,0.8937,1,,,,,,,,,,,,,,,,,,,,,,,,0.338888907,0.04666666,0,0,0,,,,,,,CLOUD,HB,z,m,./images/CLOUDHB.png,,,,,,,,,,,,,,,,,,,,z,1,0.8937,,,,,,,,0,9,9,110,1
,,,,,,,,,,,,,,,,,610789ba8948b4b6cdfd4907,32,2022-02-12_14h43.25.200,lexical_decision_task_DD_L3,2021.2.3,Win32,60.01680471,,,,,,,,,,,,0.7335,1,,,,,,,,,,,,,,,,,,,,,,,,0.338888907,0.04666666,0,0,0,,,,,,,RHINO,LB,m,m,./images/RHINOLB.png,,,,,,,,,,,,,,,,,,,,m,1,0.7335,,,,,,,,0,10,10,9,1
,,,,,,,,,,,,,,,,,610789ba8948b4b6cdfd4907,32,2022-02-12_14h43.25.200,lexical_decision_task_DD_L3,2021.2.3,Win32,60.01680471,,,,,,,,,,,,0.6321,1,,,,,,,,,,,,,,,,,,,,,,,,0.338888907,0.04666666,0,0,0,,,,,,,BANNER,C,m,m,./images/BANNER.png,,,,,,,,,,,,,,,,,,,,m,1,0.6321,,,,,,,,0,11,11,52,1
,,,,,,,,,,,,,,,,,610789ba8948b4b6cdfd4907,32,2022-02-12_14h43.25.200,lexical_decision_task_DD_L3,2021.2.3,Win32,60.01680471,,,,,,,,,,,,0.8869,1,,,,,,,,,,,,,,,,,,,,,,,,0.338888907,0.04666666,0,0,0,,,,,,,GRANNY,HB,z,m,./images/GRANNYHB.png,,,,,,,,,,,,,,,,,,,,z,1,0.8869,,,,,,,,0,12,12,104,1
,,,,,,,,,,,,,,,,,610789ba8948b4b6cdfd4907,32,2022-02-12_14h43.25.200,lexical_decision_task_DD_L3,2021.2.3,Win32,60.01680471,,,,,,,,,,,,1.4188,1,,,,,,,,,,,,,,,,,,,,,,,,0.338888907,0.04666666,0,0,0,,,,,,,POSTER,HB,z,m,./images/POSTERHB.png,,,,,,,,,,,,,,,,,,,,z,1,1.4188,,,,,,,,0,13,13,137,1
,,,,,,,,,,,,,,,,,610789ba8948b4b6cdfd4907,32,2022-02-12_14h43.25.200,lexical_decision_task_DD_L3,2021.2.3,Win32,60.01680471,,,,,,,,,,,,0.927,1,,,,,,,,,,,,,,,,,,,,,,,,0.338888907,0.04666666,0,0,0,,,,,,,PENCE,C,m,m,./images/PENCE.png,,,,,,,,,,,,,,,,,,,,m,1,0.927,,,,,,,,0,14,14,16,1
,,,,,,,,,,,,,,,,,610789ba8948b4b6cdfd4907,32,2022-02-12_14h43.25.200,lexical_decision_task_DD_L3,2021.2.3,Win32,60.01680471,,,,,,,,,,,,0.7459,1,,,,,,,,,,,,,,,,,,,,,,,,0.338888907,0.04666666,0,0,0,,,,,,,CRADLE,HB,m,m,./images/CRADLEHB.png,,,,,,,,,,,,,,,,,,,,m,1,0.7459,,,,,,,,0,15,15,20,1
,,,,,,,,,,,,,,,,,610789ba8948b4b6cdfd4907,32,2022-02-12_14h43.25.200,lexical_decision_task_DD_L3,2021.2.3,Win32,60.01680471,,,,,,,,,,,,0.7072,1,,,,,,,,,,,,,,,,,,,,,,,,0.338888907,0.04666666,0,0,0,,,,,,,PURSE,HB,m,m,./images/PURSEHB.png,,,,,,,,,,,,,,,,,,,,m,1,0.7072,,,,,,,,0,16,16,62,1
,,,,,,,,,,,,,,,,,610789ba8948b4b6cdfd4907,32,2022-02-12_14h43.25.200,lexical_decision_task_DD_L3,2021.2.3,Win32,60.01680471,,,,,,,,,,,,0.7261,1,,,,,,,,,,,,,,,,,,,,,,,,0.338888907,0.04666666,0,0,0,,,,,,,BOILER,LB,z,m,./images/BOILERLB.png,,,,,,,,,,,,,,,,,,,,z,1,0.7261,,,,,,,,0,17,17,120,1
,,,,,,,,,,,,,,,,,610789ba8948b4b6cdfd4907,32,2022-02-12_14h43.25.200,lexical_decision_task_DD_L3,2021.2.3,Win32,60.01680471,,,,,,,,,,,,0.7005,1,,,,,,,,,,,,,,,,,,,,,,,,0.338888907,0.04666666,0,0,0,,,,,,,MOSQUE,C,m,m,./images/MOSQUE.png,,,,,,,,,,,,,,,,,,,,m,1,0.7005,,,,,,,,0,18,18,43,1
,,,,,,,,,,,,,,,,,610789ba8948b4b6cdfd4907,32,2022-02-12_14h43.25.200,lexical_decision_task_DD_L3,2021.2.3,Win32,60.01680471,,,,,,,,,,,,0.619,1,,,,,,,,,,,,,,,,,,,,,,,,0.338888907,0.04666666,0,0,0,,,,,,,LADDER,HB,m,m,./images/LADDERHB.png,,,,,,,,,,,,,,,,,,,,m,1,0.619,,,,,,,,0,19,19,38,1
,,,,,,,,,,,,,,,,,610789ba8948b4b6cdfd4907,32,2022-02-12_14h43.25.200,lexical_decision_task_DD_L3,2021.2.3,Win32,60.01680471,,,,,,,,,,,,0.6404,1,,,,,,,,,,,,,,,,,,,,,,,,0.338888907,0.04666666,0,0,0,,,,,,,MOOSE,LB,m,m,./images/MOOSELB.png,,,,,,,,,,,,,,,,,,,,m,1,0.6404,,,,,,,,0,20,20,57,1
,,,,,,,,,,,,,,,,,610789ba8948b4b6cdfd4907,32,2022-02-12_14h43.25.200,lexical_decision_task_DD_L3,2021.2.3,Win32,60.01680471,,,,,,,,,,,,1.5894,1,,,,,,,,,,,,,,,,,,,,,,,,0.338888907,0.04666666,0,0,0,,,,,,,GRAPE,C,z,m,./images/GRAPE.png,,,,,,,,,,,,,,,,,,,,z,1,1.5894,,,,,,,,0,21,21,100,1
,,,,,,,,,,,,,,,,,610789ba8948b4b6cdfd4907,32,2022-02-12_14h43.25.200,lexical_decision_task_DD_L3,2021.2.3,Win32,60.01680471,,,,,,,,,,,,0.6536,1,,,,,,,,,,,,,,,,,,,,,,,,0.338888907,0.04666666,0,0,0,,,,,,,THROAT,LB,m,m,./images/THROATLB.png,,,,,,,,,,,,,,,,,,,,m,1,0.6536,,,,,,,,0,22,22,36,1
,,,,,,,,,,,,,,,,,610789ba8948b4b6cdfd4907,32,2022-02-12_14h43.25.200,lexical_decision_task_DD_L3,2021.2.3,Win32,60.01680471,,,,,,,,,,,,0.8505,1,,,,,,,,,,,,,,,,,,,,,,,,0.338888907,0.04666666,0,0,0,,,,,,,HEATER,HB,z,m,./images/HEATERHB.png,,,,,,,,,,,,,,,,,,,,z,1,0.8505,,,,,,,,0,23,23,140,1
,,,,,,,,,,,,,,,,,610789ba8948b4b6cdfd4907,32,2022-02-12_14h43.25.200,lexical_decision_task_DD_L3,2021.2.3,Win32,60.01680471,,,,,,,,,,,,0.7185,1,,,,,,,,,,,,,,,,,,,,,,,,0.338888907,0.04666666,0,0,0,,,,,,,SWEAT,LB,m,m,./images/SWEATLB.png,,,,,,,,,,,,,,,,,,,,m,1,0.7185,,,,,,,,0,24,24,66,1
,,,,,,,,,,,,,,,,,610789ba8948b4b6cdfd4907,32,2022-02-12_14h43.25.200,lexical_decision_task_DD_L3,2021.2.3,Win32,60.01680471,,,,,,,,,,,,0.7043,1,,,,,,,,,,,,,,,,,,,,,,,,0.338888907,0.04666666,0,0,0,,,,,,,TULIP,HB,m,m,./images/TULIPHB.png,,,,,,,,,,,,,,,,,,,,m,1,0.7043,,,,,,,,0,25,25,8,1
,,,,,,,,,,,,,,,,,610789ba8948b4b6cdfd4907,32,2022-02-12_14h43.25.200,lexical_decision_task_DD_L3,2021.2.3,Win32,60.01680471,,,,,,,,,,,,1.323,1,,,,,,,,,,,,,,,,,,,,,,,,0.338888907,0.04666666,0,0,0,,,,,,,SAILOR,C,m,m,./images/SAILOR.png,,,,,,,,,,,,,,,,,,,,m,1,1.323,,,,,,,,0,26,26,67,1
,,,,,,,,,,,,,,,,,610789ba8948b4b6cdfd4907,32,2022-02-12_14h43.25.200,lexical_decision_task_DD_L3,2021.2.3,Win32,60.01680471,,,,,,,,,,,,0.9175,1,,,,,,,,,,,,,,,,,,,,,,,,0.338888907,0.04666666,0,0,0,,,,,,,WALNUT,LB,z,m,./images/WALNUTLB.png,,,,,,,,,,,,,,,,,,,,z,1,0.9175,,,,,,,,0,27,27,84,1
,,,,,,,,,,,,,,,,,610789ba8948b4b6cdfd4907,32,2022-02-12_14h43.25.200,lexical_decision_task_DD_L3,2021.2.3,Win32,60.01680471,,,,,,,,,,,,0.6381,1,,,,,,,,,,,,,,,,,,,,,,,,0.338888907,0.04666666,0,0,0,,,,,,,PLANK,C,m,m,./images/PLANK.png,,,,,,,,,,,,,,,,,,,,m,1,0.6381,,,,,,,,0,28,28,1,1
,,,,,,,,,,,,,,,,,610789ba8948b4b6cdfd4907,32,2022-02-12_14h43.25.200,lexical_decision_task_DD_L3,2021.2.3,Win32,60.01680471,,,,,,,,,,,,1.2608,0,,,,,,,,,,,,,,,,,,,,,,,,0.338888907,0.04666666,0,0,0,,,,,,,STOOL,C,z,m,./images/STOOL.png,,,,,,,,,,,,,,,,,,,,m,0,1.2608,,,,,,,,0,29,29,127,1
,,,,,,,,,,,,,,,,,610789ba8948b4b6cdfd4907,32,2022-02-12_14h43.25.200,lexical_decision_task_DD_L3,2021.2.3,Win32,60.01680471,,,,,,,,,,,,2.3449,1,,,,,,,,,,,,,,,,,,,,,,,,0.338888907,0.04666666,0,0,0,,,,,,,CANOE,C,z,m,./images/CANOE.png,,,,,,,,,,,,,,,,,,,,z,1,2.3449,,,,,,,,0,30,30,142,1
,,,,,,,,,,,,,,,,,610789ba8948b4b6cdfd4907,32,2022-02-12_14h43.25.200,lexical_decision_task_DD_L3,2021.2.3,Win32,60.01680471,,,,,,,,,,,,0.8172,1,,,,,,,,,,,,,,,,,,,,,,,,0.338888907,0.04666666,0,0,0,,,,,,,BARREL,HB,m,m,./images/BARRELHB.png,,,,,,,,,,,,,,,,,,,,m,1,0.8172,,,,,,,,0,31,31,32,1
,,,,,,,,,,,,,,,,,610789ba8948b4b6cdfd4907,32,2022-02-12_14h43.25.200,lexical_decision_task_DD_L3,2021.2.3,Win32,60.01680471,,,,,,,,,,,,0.8239,0,,,,,,,,,,,,,,,,,,,,,,,,0.338888907,0.04666666,0,0,0,,,,,,,SUNSET,C,m,m,./images/SUNSET.png,,,,,,,,,,,,,,,,,,,,z,0,0.8239,,,,,,,,0,32,32,82,1
,,,,,,,,,,,,,,,,,610789ba8948b4b6cdfd4907,32,2022-02-12_14h43.25.200,lexical_decision_task_DD_L3,2021.2.3,Win32,60.01680471,,,,,,,,,,,,0.8019,0,,,,,,,,,,,,,,,,,,,,,,,,0.338888907,0.04666666,0,0,0,,,,,,,SKIING,HB,m,m,./images/SKIINGHB.png,,,,,,,,,,,,,,,,,,,,z,0,0.8019,,,,,,,,0,33,33,17,1
,,,,,,,,,,,,,,,,,610789ba8948b4b6cdfd4907,32,2022-02-12_14h43.25.200,lexical_decision_task_DD_L3,2021.2.3,Win32,60.01680471,,,,,,,,,,,,1.7083,0,,,,,,,,,,,,,,,,,,,,,,,,0.338888907,0.04666666,0,0,0,,,,,,,MALLET,HB,m,m,./images/MALLETHB.png,,,,,,,,,,,,,,,,,,,,z,0,1.7083,,,,,,,,0,34,34,50,1
,,,,,,,,,,,,,,,,,610789ba8948b4b6cdfd4907,32,2022-02-12_14h43.25.200,lexical_decision_task_DD_L3,2021.2.3,Win32,60.01680471,,,,,,,,,,,,0.6723,1,,,,,,,,,,,,,,,,,,,,,,,,0.338888907,0.04666666,0,0,0,,,,,,,JELLY,C,m,m,./images/JELLY.png,,,,,,,,,,,,,,,,,,,,m,1,0.6723,,,,,,,,0,35,35,64,1
,,,,,,,,,,,,,,,,,610789ba8948b4b6cdfd4907,32,2022-02-12_14h43.25.200,lexical_decision_task_DD_L3,2021.2.3,Win32,60.01680471,,,,,,,,,,,,0.587,1,,,,,,,,,,,,,,,,,,,,,,,,0.338888907,0.04666666,0,0,0,,,,,,,STRING,HB,m,m,./images/STRINGHB.png,,,,,,,,,,,,,,,,,,,,m,1,0.587,,,,,,,,0,36,36,41,1
,,,,,,,,,,,,,,,,,610789ba8948b4b6cdfd4907,32,2022-02-12_14h43.25.200,lexical_decision_task_DD_L3,2021.2.3,Win32,60.01680471,,,,,,,,,,,,0.8188,1,,,,,,,,,,,,,,,,,,,,,,,,0.338888907,0.04666666,0,0,0,,,,,,,FENCE,HB,z,m,./images/FENCEHB.png,,,,,,,,,,,,,,,,,,,,z,1,0.8188,,,,,,,,0,37,37,98,1
,,,,,,,,,,,,,,,,,610789ba8948b4b6cdfd4907,32,2022-02-12_14h43.25.200,lexical_decision_task_DD_L3,2021.2.3,Win32,60.01680471,,,,,,,,,,,,0.7453,1,,,,,,,,,,,,,,,,,,,,,,,,0.338888907,0.04666666,0,0,0,,,,,,,CHERRY,LB,z,m,./images/CHERRYLB.png,,,,,,,,,,,,,,,,,,,,z,1,0.7453,,,,,,,,0,38,38,138,1
,,,,,,,,,,,,,,,,,610789ba8948b4b6cdfd4907,32,2022-02-12_14h43.25.200,lexical_decision_task_DD_L3,2021.2.3,Win32,60.01680471,,,,,,,,,,,,0.6182,1,,,,,,,,,,,,,,,,,,,,,,,,0.338888907,0.04666666,0,0,0,,,,,,,DIVER,LB,z,m,./images/DIVERLB.png,,,,,,,,,,,,,,,,,,,,z,1,0.6182,,,,,,,,0,39,39,93,1
,,,,,,,,,,,,,,,,,610789ba8948b4b6cdfd4907,32,2022-02-12_14h43.25.200,lexical_decision_task_DD_L3,2021.2.3,Win32,60.01680471,,,,,,,,,,,,1.3628,1,,,,,,,,,,,,,,,,,,,,,,,,0.338888907,0.04666666,0,0,0,,,,,,,HAMMER,LB,z,m,./images/HAMMERLB.png,,,,,,,,,,,,,,,,,,,,z,1,1.3628,,,,,,,,0,40,40,159,1
,,,,,,,,,,,,,,,,,610789ba8948b4b6cdfd4907,32,2022-02-12_14h43.25.200,lexical_decision_task_DD_L3,2021.2.3,Win32,60.01680471,,,,,,,,,,,,1.1755,0,,,,,,,,,,,,,,,,,,,,,,,,0.338888907,0.04666666,0,0,0,space,,,,,,PACKET,HB,m,m,./images/PACKETHB.png,1.7107,,,,,,,,,,,,,,,,,,,z,0,1.1755,,,,,,,,0,41,41,56,1
,,,,,,,,,,,,,,,,,610789ba8948b4b6cdfd4907,32,2022-02-12_14h43.25.200,lexical_decision_task_DD_L3,2021.2.3,Win32,60.01680471,,,,,,,,,,,,0.8678,1,,,,,,,,,,,,,,,,,,,,,,,,0.338888907,0.04666666,0,0,0,,,,,,,WAGON,C,z,m,./images/WAGON.png,,,,,,,,,,,,,,,,,,,,z,1,0.8678,,,,,,,,0,42,42,91,1
,,,,,,,,,,,,,,,,,610789ba8948b4b6cdfd4907,32,2022-02-12_14h43.25.200,lexical_decision_task_DD_L3,2021.2.3,Win32,60.01680471,,,,,,,,,,,,0.6302,0,,,,,,,,,,,,,,,,,,,,,,,,0.338888907,0.04666666,0,0,0,,,,,,,SPINE,HB,z,m,./images/SPINEHB.png,,,,,,,,,,,,,,,,,,,,m,0,0.6302,,,,,,,,0,43,43,149,1
,,,,,,,,,,,,,,,,,610789ba8948b4b6cdfd4907,32,2022-02-12_14h43.25.200,lexical_decision_task_DD_L3,2021.2.3,Win32,60.01680471,,,,,,,,,,,,0.6926,1,,,,,,,,,,,,,,,,,,,,,,,,0.338888907,0.04666666,0,0,0,,,,,,,WALRUS,HB,m,m,./images/WALRUSHB.png,,,,,,,,,,,,,,,,,,,,m,1,0.6926,,,,,,,,0,44,44,23,1
,,,,,,,,,,,,,,,,,610789ba8948b4b6cdfd4907,32,2022-02-12_14h43.25.200,lexical_decision_task_DD_L3,2021.2.3,Win32,60.01680471,,,,,,,,,,,,1.0717,0,,,,,,,,,,,,,,,,,,,,,,,,0.338888907,0.04666666,0,0,0,,,,,,,SHELF,LB,m,m,./images/SHELFLB.png,,,,,,,,,,,,,,,,,,,,z,0,1.0717,,,,,,,,0,45,45,39,1
,,,,,,,,,,,,,,,,,610789ba8948b4b6cdfd4907,32,2022-02-12_14h43.25.200,lexical_decision_task_DD_L3,2021.2.3,Win32,60.01680471,,,,,,,,,,,,0.8454,1,,,,,,,,,,,,,,,,,,,,,,,,0.338888907,0.04666666,0,0,0,,,,,,,NOOSE,LB,m,m,./images/NOOSELB.png,,,,,,,,,,,,,,,,,,,,m,1,0.8454,,,,,,,,0,46,46,72,1
,,,,,,,,,,,,,,,,,610789ba8948b4b6cdfd4907,32,2022-02-12_14h43.25.200,lexical_decision_task_DD_L3,2021.2.3,Win32,60.01680471,,,,,,,,,,,,0.7936,0,,,,,,,,,,,,,,,,,,,,,,,,0.338888907,0.04666666,0,0,0,,,,,,,CRATER,LB,z,m,./images/CRATERLB.png,,,,,,,,,,,,,,,,,,,,m,0,0.7936,,,,,,,,0,47,47,87,1
,,,,,,,,,,,,,,,,,610789ba8948b4b6cdfd4907,32,2022-02-12_14h43.25.200,lexical_decision_task_DD_L3,2021.2.3,Win32,60.01680471,,,,,,,,,,,,0.8008,1,,,,,,,,,,,,,,,,,,,,,,,,0.338888907,0.04666666,0,0,0,,,,,,,GARDEN,C,z,m,./images/GARDEN.png,,,,,,,,,,,,,,,,,,,,z,1,0.8008,,,,,,,,0,48,48,94,1
,,,,,,,,,,,,,,,,,610789ba8948b4b6cdfd4907,32,2022-02-12_14h43.25.200,lexical_decision_task_DD_L3,2021.2.3,Win32,60.01680471,,,,,,,,,,,,0.695,1,,,,,,,,,,,,,,,,,,,,,,,,0.338888907,0.04666666,0,0,0,,,,,,,PEBBLE,C,z,m,./images/PEBBLE.png,,,,,,,,,,,,,,,,,,,,z,1,0.695,,,,,,,,0,49,49,166,1
,,,,,,,,,,,,,,,,,610789ba8948b4b6cdfd4907,32,2022-02-12_14h43.25.200,lexical_decision_task_DD_L3,2021.2.3,Win32,60.01680471,,,,,,,,,,,,0.7062,0,,,,,,,,,,,,,,,,,,,,,,,,0.338888907,0.04666666,0,0,0,,,,,,,PARCEL,LB,z,m,./images/PARCELLB.png,,,,,,,,,,,,,,,,,,,,m,0,0.7062,,,,,,,,0,50,50,102,1
,,,,,,,,,,,,,,,,,610789ba8948b4b6cdfd4907,32,2022-02-12_14h43.25.200,lexical_decision_task_DD_L3,2021.2.3,Win32,60.01680471,,,,,,,,,,,,0.658,1,,,,,,,,,,,,,,,,,,,,,,,,0.338888907,0.04666666,0,0,0,,,,,,,MOTOR,C,m,m,./images/MOTOR.png,,,,,,,,,,,,,,,,,,,,m,1,0.658,,,,,,,,0,51,51,13,1
,,,,,,,,,,,,,,,,,610789ba8948b4b6cdfd4907,32,2022-02-12_14h43.25.200,lexical_decision_task_DD_L3,2021.2.3,Win32,60.01680471,,,,,,,,,,,,0.6751,1,,,,,,,,,,,,,,,,,,,,,,,,0.338888907,0.04666666,0,0,0,,,,,,,DESERT,C,z,m,./images/DESERT.png,,,,,,,,,,,,,,,,,,,,z,1,0.6751,,,,,,,,0,52,52,136,1
,,,,,,,,,,,,,,,,,610789ba8948b4b6cdfd4907,32,2022-02-12_14h43.25.200,lexical_decision_task_DD_L3,2021.2.3,Win32,60.01680471,,,,,,,,,,,,0.6375,1,,,,,,,,,,,,,,,,,,,,,,,,0.338888907,0.04666666,0,0,0,,,,,,,BAKER,LB,z,m,./images/BAKERLB.png,,,,,,,,,,,,,,,,,,,,z,1,0.6375,,,,,,,,0,53,53,147,1
,,,,,,,,,,,,,,,,,610789ba8948b4b6cdfd4907,32,2022-02-12_14h43.25.200,lexical_decision_task_DD_L3,2021.2.3,Win32,60.01680471,,,,,,,,,,,,0.6753,1,,,,,,,,,,,,,,,,,,,,,,,,0.338888907,0.04666666,0,0,0,,,,,,,BONNET,HB,m,m,./images/BONNETHB.png,,,,,,,,,,,,,,,,,,,,m,1,0.6753,,,,,,,,0,54,54,11,1
,,,,,,,,,,,,,,,,,610789ba8948b4b6cdfd4907,32,2022-02-12_14h43.25.200,lexical_decision_task_DD_L3,2021.2.3,Win32,60.01680471,,,,,,,,,,,,0.6548,1,,,,,,,,,,,,,,,,,,,,,,,,0.338888907,0.04666666,0,0,0,,,,,,,SHORE,LB,m,m,./images/SHORELB.png,,,,,,,,,,,,,,,,,,,,m,1,0.6548,,,,,,,,0,55,55,12,1
,,,,,,,,,,,,,,,,,610789ba8948b4b6cdfd4907,32,2022-02-12_14h43.25.200,lexical_decision_task_DD_L3,2021.2.3,Win32,60.01680471,,,,,,,,,,,,1.1601,1,,,,,,,,,,,,,,,,,,,,,,,,0.338888907,0.04666666,0,0,0,,,,,,,GLOVE,C,z,m,./images/GLOVE.png,,,,,,,,,,,,,,,,,,,,z,1,1.1601,,,,,,,,0,56,56,157,1
,,,,,,,,,,,,,,,,,610789ba8948b4b6cdfd4907,32,2022-02-12_14h43.25.200,lexical_decision_task_DD_L3,2021.2.3,Win32,60.01680471,,,,,,,,,,,,0.7564,1,,,,,,,,,,,,,,,,,,,,,,,,0.338888907,0.04666666,0,0,0,,,,,,,LAGOON,HB,z,m,./images/LAGOONHB.png,,,,,,,,,,,,,,,,,,,,z,1,0.7564,,,,,,,,0,57,57,131,1
,,,,,,,,,,,,,,,,,610789ba8948b4b6cdfd4907,32,2022-02-12_14h43.25.200,lexical_decision_task_DD_L3,2021.2.3,Win32,60.01680471,,,,,,,,,,,,0.8289,0,,,,,,,,,,,,,,,,,,,,,,,,0.338888907,0.04666666,0,0,0,,,,,,,TOWEL,C,z,m,./images/TOWEL.png,,,,,,,,,,,,,,,,,,,,m,0,0.8289,,,,,,,,0,58,58,85,1
,,,,,,,,,,,,,,,,,610789ba8948b4b6cdfd4907,32,2022-02-12_14h43.25.200,lexical_decision_task_DD_L3,2021.2.3,Win32,60.01680471,,,,,,,,,,,,0.6438,1,,,,,,,,,,,,,,,,,,,,,,,,0.338888907,0.04666666,0,0,0,,,,,,,WEASEL,HB,m,m,./images/WEASELHB.png,,,,,,,,,,,,,,,,,,,,m,1,0.6438,,,,,,,,0,59,59,80,1
,,,,,,,,,,,,,,,,,610789ba8948b4b6cdfd4907,32,2022-02-12_14h43.25.200,lexical_decision_task_DD_L3,2021.2.3,Win32,60.01680471,,,,,,,,,,,,0.6739,1,,,,,,,,,,,,,,,,,,,,,,,,0.338888907,0.04666666,0,0,0,,,,,,,BANANA,C,z,m,./images/BANANA.png,,,,,,,,,,,,,,,,,,,,z,1,0.6739,,,,,,,,0,60,60,154,1
,,,,,,,,,,,,,,,,,610789ba8948b4b6cdfd4907,32,2022-02-12_14h43.25.200,lexical_decision_task_DD_L3,2021.2.3,Win32,60.01680471,,,,,,,,,,,,0.6372,1,,,,,,,,,,,,,,,,,,,,,,,,0.338888907,0.04666666,0,0,0,,,,,,,JUMPER,HB,z,m,./images/JUMPERHB.png,,,,,,,,,,,,,,,,,,,,z,1,0.6372,,,,,,,,0,61,61,158,1
,,,,,,,,,,,,,,,,,610789ba8948b4b6cdfd4907,32,2022-02-12_14h43.25.200,lexical_decision_task_DD_L3,2021.2.3,Win32,60.01680471,,,,,,,,,,,,0.7832,1,,,,,,,,,,,,,,,,,,,,,,,,0.338888907,0.04666666,0,0,0,,,,,,,FALCON,C,m,m,./images/FALCON.png,,,,,,,,,,,,,,,,,,,,m,1,0.7832,,,,,,,,0,62,62,28,1
,,,,,,,,,,,,,,,,,610789ba8948b4b6cdfd4907,32,2022-02-12_14h43.25.200,lexical_decision_task_DD_L3,2021.2.3,Win32,60.01680471,,,,,,,,,,,,0.6095,1,,,,,,,,,,,,,,,,,,,,,,,,0.338888907,0.04666666,0,0,0,,,,,,,MIDGET,C,z,m,./images/MIDGET.png,,,,,,,,,,,,,,,,,,,,z,1,0.6095,,,,,,,,0,63,63,160,1
,,,,,,,,,,,,,,,,,610789ba8948b4b6cdfd4907,32,2022-02-12_14h43.25.200,lexical_decision_task_DD_L3,2021.2.3,Win32,60.01680471,,,,,,,,,,,,0.6075,1,,,,,,,,,,,,,,,,,,,,,,,,0.338888907,0.04666666,0,0,0,,,,,,,JAGUAR,LB,m,m,./images/JAGUARLB.png,,,,,,,,,,,,,,,,,,,,m,1,0.6075,,,,,,,,0,64,64,18,1
,,,,,,,,,,,,,,,,,610789ba8948b4b6cdfd4907,32,2022-02-12_14h43.25.200,lexical_decision_task_DD_L3,2021.2.3,Win32,60.01680471,,,,,,,,,,,,0.6622,0,,,,,,,,,,,,,,,,,,,,,,,,0.338888907,0.04666666,0,0,0,,,,,,,STOVE,HB,z,m,./images/STOVEHB.png,,,,,,,,,,,,,,,,,,,,m,0,0.6622,,,,,,,,0,65,65,86,1
,,,,,,,,,,,,,,,,,610789ba8948b4b6cdfd4907,32,2022-02-12_14h43.25.200,lexical_decision_task_DD_L3,2021.2.3,Win32,60.01680471,,,,,,,,,,,,0.7962,1,,,,,,,,,,,,,,,,,,,,,,,,0.338888907,0.04666666,0,0,0,,,,,,,BISHOP,C,z,m,./images/BISHOP.png,,,,,,,,,,,,,,,,,,,,z,1,0.7962,,,,,,,,0,66,66,133,1
,,,,,,,,,,,,,,,,,610789ba8948b4b6cdfd4907,32,2022-02-12_14h43.25.200,lexical_decision_task_DD_L3,2021.2.3,Win32,60.01680471,,,,,,,,,,,,0.5181,1,,,,,,,,,,,,,,,,,,,,,,,,0.338888907,0.04666666,0,0,0,,,,,,,BOXER,C,z,m,./images/BOXER.png,,,,,,,,,,,,,,,,,,,,z,1,0.5181,,,,,,,,0,67,67,88,1
,,,,,,,,,,,,,,,,,610789ba8948b4b6cdfd4907,32,2022-02-12_14h43.25.200,lexical_decision_task_DD_L3,2021.2.3,Win32,60.01680471,,,,,,,,,,,,0.7076,1,,,,,,,,,,,,,,,,,,,,,,,,0.338888907,0.04666666,0,0,0,,,,,,,POKER,C,z,m,./images/POKER.png,,,,,,,,,,,,,,,,,,,,z,1,0.7076,,,,,,,,0,68,68,151,1
,,,,,,,,,,,,,,,,,610789ba8948b4b6cdfd4907,32,2022-02-12_14h43.25.200,lexical_decision_task_DD_L3,2021.2.3,Win32,60.01680471,,,,,,,,,,,,0.705,1,,,,,,,,,,,,,,,,,,,,,,,,0.338888907,0.04666666,0,0,0,,,,,,,BUNNY,C,z,m,./images/BUNNY.png,,,,,,,,,,,,,,,,,,,,z,1,0.705,,,,,,,,0,69,69,97,1
,,,,,,,,,,,,,,,,,610789ba8948b4b6cdfd4907,32,2022-02-12_14h43.25.200,lexical_decision_task_DD_L3,2021.2.3,Win32,60.01680471,,,,,,,,,,,,0.6737,1,,,,,,,,,,,,,,,,,,,,,,,,0.338888907,0.04666666,0,0,0,,,,,,,ARTIST,C,z,m,./images/ARTIST.png,,,,,,,,,,,,,,,,,,,,z,1,0.6737,,,,,,,,0,70,70,145,1
,,,,,,,,,,,,,,,,,610789ba8948b4b6cdfd4907,32,2022-02-12_14h43.25.200,lexical_decision_task_DD_L3,2021.2.3,Win32,60.01680471,,,,,,,,,,,,0.6015,1,,,,,,,,,,,,,,,,,,,,,,,,0.338888907,0.04666666,0,0,0,,,,,,,BELLY,C,m,m,./images/BELLY.png,,,,,,,,,,,,,,,,,,,,m,1,0.6015,,,,,,,,0,71,71,10,1
,,,,,,,,,,,,,,,,,610789ba8948b4b6cdfd4907,32,2022-02-12_14h43.25.200,lexical_decision_task_DD_L3,2021.2.3,Win32,60.01680471,,,,,,,,,,,,1.5091,1,,,,,,,,,,,,,,,,,,,,,,,,0.338888907,0.04666666,0,0,0,,,,,,,ENGINE,HB,z,m,./images/ENGINEHB.png,,,,,,,,,,,,,,,,,,,,z,1,1.5091,,,,,,,,0,72,72,122,1
,,,,,,,,,,,,,,,,,610789ba8948b4b6cdfd4907,32,2022-02-12_14h43.25.200,lexical_decision_task_DD_L3,2021.2.3,Win32,60.01680471,,,,,,,,,,,,0.6494,1,,,,,,,,,,,,,,,,,,,,,,,,0.338888907,0.04666666,0,0,0,,,,,,,PEACH,HB,m,m,./images/PEACHHB.png,,,,,,,,,,,,,,,,,,,,m,1,0.6494,,,,,,,,0,73,73,35,1
,,,,,,,,,,,,,,,,,610789ba8948b4b6cdfd4907,32,2022-02-12_14h43.25.200,lexical_decision_task_DD_L3,2021.2.3,Win32,60.01680471,,,,,,,,,,,,0.9419,0,,,,,,,,,,,,,,,,,,,,,,,,0.338888907,0.04666666,0,0,0,,,,,,,BUBBLE,HB,z,m,./images/BUBBLEHB.png,,,,,,,,,,,,,,,,,,,,m,0,0.9419,,,,,,,,0,74,74,155,1
,,,,,,,,,,,,,,,,,610789ba8948b4b6cdfd4907,32,2022-02-12_14h43.25.200,lexical_decision_task_DD_L3,2021.2.3,Win32,60.01680471,,,,,,,,,,,,0.8938,1,,,,,,,,,,,,,,,,,,,,,,,,0.338888907,0.04666666,0,0,0,,,,,,,CHAIN,LB,z,m,./images/CHAINLB.png,,,,,,,,,,,,,,,,,,,,z,1,0.8938,,,,,,,,0,75,75,126,1
,,,,,,,,,,,,,,,,,610789ba8948b4b6cdfd4907,32,2022-02-12_14h43.25.200,lexical_decision_task_DD_L3,2021.2.3,Win32,60.01680471,,,,,,,,,,,,1.9875,1,,,,,,,,,,,,,,,,,,,,,,,,0.338888907,0.04666666,0,0,0,,,,,,,PAINT,C,m,m,./images/PAINT.png,,,,,,,,,,,,,,,,,,,,m,1,1.9875,,,,,,,,0,76,76,7,1
,,,,,,,,,,,,,,,,,610789ba8948b4b6cdfd4907,32,2022-02-12_14h43.25.200,lexical_decision_task_DD_L3,2021.2.3,Win32,60.01680471,,,,,,,,,,,,1.3157,1,,,,,,,,,,,,,,,,,,,,,,,,0.338888907,0.04666666,0,0,0,,,,,,,PLANET,HB,z,m,./images/PLANETHB.png,,,,,,,,,,,,,,,,,,,,z,1,1.3157,,,,,,,,0,77,77,164,1
,,,,,,,,,,,,,,,,,610789ba8948b4b6cdfd4907,32,2022-02-12_14h43.25.200,lexical_decision_task_DD_L3,2021.2.3,Win32,60.01680471,,,,,,,,,,,,0.6367,1,,,,,,,,,,,,,,,,,,,,,,,,0.338888907,0.04666666,0,0,0,,,,,,,BABOON,C,m,m,./images/BABOON.png,,,,,,,,,,,,,,,,,,,,m,1,0.6367,,,,,,,,0,78,78,58,1
,,,,,,,,,,,,,,,,,610789ba8948b4b6cdfd4907,32,2022-02-12_14h43.25.200,lexical_decision_task_DD_L3,2021.2.3,Win32,60.01680471,,,,,,,,,,,,0.752,1,,,,,,,,,,,,,,,,,,,,,,,,0.338888907,0.04666666,0,0,0,,,,,,,BURIAL,HB,m,m,./images/BURIALHB.png,,,,,,,,,,,,,,,,,,,,m,1,0.752,,,,,,,,0,79,79,59,1
,,,,,,,,,,,,,,,,,610789ba8948b4b6cdfd4907,32,2022-02-12_14h43.25.200,lexical_decision_task_DD_L3,2021.2.3,Win32,60.01680471,,,,,,,,,,,,0.569,1,,,,,,,,,,,,,,,,,,,,,,,,0.338888907,0.04666666,0,0,0,,,,,,,MIRROR,LB,m,m,./images/MIRRORLB.png,,,,,,,,,,,,,,,,,,,,m,1,0.569,,,,,,,,0,80,80,63,1
,,,,,,,,,,,,,,,,,610789ba8948b4b6cdfd4907,32,2022-02-12_14h43.25.200,lexical_decision_task_DD_L3,2021.2.3,Win32,60.01680471,,,,,,,,,,,,0.6514,0,,,,,,,,,,,,,,,,,,,,,,,,0.338888907,0.04666666,0,0,0,,,,,,,FLASK,LB,z,m,./images/FLASKLB.png,,,,,,,,,,,,,,,,,,,,m,0,0.6514,,,,,,,,0,81,81,156,1
,,,,,,,,,,,,,,,,,610789ba8948b4b6cdfd4907,32,2022-02-12_14h43.25.200,lexical_decision_task_DD_L3,2021.2.3,Win32,60.01680471,,,,,,,,,,,,2.0385,1,,,,,,,,,,,,,,,,,,,,,,,,0.338888907,0.04666666,0,0,0,,,,,,,BRUSH,HB,z,m,./images/BRUSHHB.png,,,,,,,,,,,,,,,,,,,,z,1,2.0385,,,,,,,,0,82,82,143,1
,,,,,,,,,,,,,,,,,610789ba8948b4b6cdfd4907,32,2022-02-12_14h43.25.200,lexical_decision_task_DD_L3,2021.2.3,Win32,60.01680471,,,,,,,,,,,,0.7078,1,,,,,,,,,,,,,,,,,,,,,,,,0.338888907,0.04666666,0,0,0,space,,,,,,CASINO,C,z,m,./images/CASINO.png,1.1577,,,,,,,,,,,,,,,,,,,z,1,0.7078,,,,,,,,0,83,83,112,1
,,,,,,,,,,,,,,,,,610789ba8948b4b6cdfd4907,32,2022-02-12_14h43.25.200,lexical_decision_task_DD_L3,2021.2.3,Win32,60.01680471,,,,,,,,,,,,1.2544,1,,,,,,,,,,,,,,,,,,,,,,,,0.338888907,0.04666666,0,0,0,,,,,,,BERRY,HB,m,m,./images/BERRYHB.png,,,,,,,,,,,,,,,,,,,,m,1,1.2544,,,,,,,,0,84,84,47,1
,,,,,,,,,,,,,,,,,610789ba8948b4b6cdfd4907,32,2022-02-12_14h43.25.200,lexical_decision_task_DD_L3,2021.2.3,Win32,60.01680471,,,,,,,,,,,,0.558,1,,,,,,,,,,,,,,,,,,,,,,,,0.338888907,0.04666666,0,0,0,,,,,,,SMOKER,HB,m,m,./images/SMOKERHB.png,,,,,,,,,,,,,,,,,,,,m,1,0.558,,,,,,,,0,85,85,26,1
,,,,,,,,,,,,,,,,,610789ba8948b4b6cdfd4907,32,2022-02-12_14h43.25.200,lexical_decision_task_DD_L3,2021.2.3,Win32,60.01680471,,,,,,,,,,,,0.6022,1,,,,,,,,,,,,,,,,,,,,,,,,0.338888907,0.04666666,0,0,0,,,,,,,LITTER,LB,m,m,./images/LITTERLB.png,,,,,,,,,,,,,,,,,,,,m,1,0.6022,,,,,,,,0,86,86,78,1
,,,,,,,,,,,,,,,,,610789ba8948b4b6cdfd4907,32,2022-02-12_14h43.25.200,lexical_decision_task_DD_L3,2021.2.3,Win32,60.01680471,,,,,,,,,,,,0.9458,1,,,,,,,,,,,,,,,,,,,,,,,,0.338888907,0.04666666,0,0,0,,,,,,,BRIDE,C,z,m,./images/BRIDE.png,,,,,,,,,,,,,,,,,,,,z,1,0.9458,,,,,,,,0,87,87,148,1
,,,,,,,,,,,,,,,,,610789ba8948b4b6cdfd4907,32,2022-02-12_14h43.25.200,lexical_decision_task_DD_L3,2021.2.3,Win32,60.01680471,,,,,,,,,,,,0.7004,1,,,,,,,,,,,,,,,,,,,,,,,,0.338888907,0.04666666,0,0,0,,,,,,,PIMPLE,HB,m,m,./images/PIMPLEHB.png,,,,,,,,,,,,,,,,,,,,m,1,0.7004,,,,,,,,0,88,88,71,1
,,,,,,,,,,,,,,,,,610789ba8948b4b6cdfd4907,32,2022-02-12_14h43.25.200,lexical_decision_task_DD_L3,2021.2.3,Win32,60.01680471,,,,,,,,,,,,0.8377,0,,,,,,,,,,,,,,,,,,,,,,,,0.338888907,0.04666666,0,0,0,,,,,,,CANYON,C,m,m,./images/CANYON.png,,,,,,,,,,,,,,,,,,,,z,0,0.8377,,,,,,,,0,89,89,34,1
,,,,,,,,,,,,,,,,,610789ba8948b4b6cdfd4907,32,2022-02-12_14h43.25.200,lexical_decision_task_DD_L3,2021.2.3,Win32,60.01680471,,,,,,,,,,,,0.6688,1,,,,,,,,,,,,,,,,,,,,,,,,0.338888907,0.04666666,0,0,0,,,,,,,MUSCLE,C,m,m,./images/MUSCLE.png,,,,,,,,,,,,,,,,,,,,m,1,0.6688,,,,,,,,0,90,90,4,1
,,,,,,,,,,,,,,,,,610789ba8948b4b6cdfd4907,32,2022-02-12_14h43.25.200,lexical_decision_task_DD_L3,2021.2.3,Win32,60.01680471,,,,,,,,,,,,0.8067,0,,,,,,,,,,,,,,,,,,,,,,,,0.338888907,0.04666666,0,0,0,,,,,,,TIGER,C,z,m,./images/TIGER.png,,,,,,,,,,,,,,,,,,,,m,0,0.8067,,,,,,,,0,91,91,121,1
,,,,,,,,,,,,,,,,,610789ba8948b4b6cdfd4907,32,2022-02-12_14h43.25.200,lexical_decision_task_DD_L3,2021.2.3,Win32,60.01680471,,,,,,,,,,,,0.8133,0,,,,,,,,,,,,,,,,,,,,,,,,0.338888907,0.04666666,0,0,0,,,,,,,BIRTH,C,m,m,./images/BIRTH.png,,,,,,,,,,,,,,,,,,,,z,0,0.8133,,,,,,,,0,92,92,37,1
,,,,,,,,,,,,,,,,,610789ba8948b4b6cdfd4907,32,2022-02-12_14h43.25.200,lexical_decision_task_DD_L3,2021.2.3,Win32,60.01680471,,,,,,,,,,,,0.6761,1,,,,,,,,,,,,,,,,,,,,,,,,0.338888907,0.04666666,0,0,0,,,,,,,CEMENT,HB,m,m,./images/CEMENTHB.png,,,,,,,,,,,,,,,,,,,,m,1,0.6761,,,,,,,,0,93,93,74,1
,,,,,,,,,,,,,,,,,610789ba8948b4b6cdfd4907,32,2022-02-12_14h43.25.200,lexical_decision_task_DD_L3,2021.2.3,Win32,60.01680471,,,,,,,,,,,,0.7465,1,,,,,,,,,,,,,,,,,,,,,,,,0.338888907,0.04666666,0,0,0,,,,,,,PASTA,HB,m,m,./images/PASTAHB.png,,,,,,,,,,,,,,,,,,,,m,1,0.7465,,,,,,,,0,94,94,5,1
,,,,,,,,,,,,,,,,,610789ba8948b4b6cdfd4907,32,2022-02-12_14h43.25.200,lexical_decision_task_DD_L3,2021.2.3,Win32,60.01680471,,,,,,,,,,,,0.802,0,,,,,,,,,,,,,,,,,,,,,,,,0.338888907,0.04666666,0,0,0,,,,,,,QUILL,C,m,m,./images/QUILL.png,,,,,,,,,,,,,,,,,,,,z,0,0.802,,,,,,,,0,95,95,31,1
,,,,,,,,,,,,,,,,,610789ba8948b4b6cdfd4907,32,2022-02-12_14h43.25.200,lexical_decision_task_DD_L3,2021.2.3,Win32,60.01680471,,,,,,,,,,,,0.6014,0,,,,,,,,,,,,,,,,,,,,,,,,0.338888907,0.04666666,0,0,0,,,,,,,BAMBOO,HB,z,m,./images/BAMBOOHB.png,,,,,,,,,,,,,,,,,,,,m,0,0.6014,,,,,,,,0,96,96,89,1
,,,,,,,,,,,,,,,,,610789ba8948b4b6cdfd4907,32,2022-02-12_14h43.25.200,lexical_decision_task_DD_L3,2021.2.3,Win32,60.01680471,,,,,,,,,,,,0.6623,1,,,,,,,,,,,,,,,,,,,,,,,,0.338888907,0.04666666,0,0,0,,,,,,,POODLE,LB,m,m,./images/POODLELB.png,,,,,,,,,,,,,,,,,,,,m,1,0.6623,,,,,,,,0,97,97,81,1
,,,,,,,,,,,,,,,,,610789ba8948b4b6cdfd4907,32,2022-02-12_14h43.25.200,lexical_decision_task_DD_L3,2021.2.3,Win32,60.01680471,,,,,,,,,,,,0.6849,1,,,,,,,,,,,,,,,,,,,,,,,,0.338888907,0.04666666,0,0,0,,,,,,,ATTIC,LB,m,m,./images/ATTICLB.png,,,,,,,,,,,,,,,,,,,,m,1,0.6849,,,,,,,,0,98,98,27,1
,,,,,,,,,,,,,,,,,610789ba8948b4b6cdfd4907,32,2022-02-12_14h43.25.200,lexical_decision_task_DD_L3,2021.2.3,Win32,60.01680471,,,,,,,,,,,,0.8881,1,,,,,,,,,,,,,,,,,,,,,,,,0.338888907,0.04666666,0,0,0,,,,,,,SNAKE,C,z,m,./images/SNAKE.png,,,,,,,,,,,,,,,,,,,,z,1,0.8881,,,,,,,,0,99,99,124,1
,,,,,,,,,,,,,,,,,610789ba8948b4b6cdfd4907,32,2022-02-12_14h43.25.200,lexical_decision_task_DD_L3,2021.2.3,Win32,60.01680471,,,,,,,,,,,,0.6104,0,,,,,,,,,,,,,,,,,,,,,,,,0.338888907,0.04666666,0,0,0,,,,,,,MONKEY,LB,z,m,./images/MONKEYLB.png,,,,,,,,,,,,,,,,,,,,m,0,0.6104,,,,,,,,0,100,100,129,1
,,,,,,,,,,,,,,,,,610789ba8948b4b6cdfd4907,32,2022-02-12_14h43.25.200,lexical_decision_task_DD_L3,2021.2.3,Win32,60.01680471,,,,,,,,,,,,0.6976,1,,,,,,,,,,,,,,,,,,,,,,,,0.338888907,0.04666666,0,0,0,,,,,,,STATUE,LB,z,m,./images/STATUELB.png,,,,,,,,,,,,,,,,,,,,z,1,0.6976,,,,,,,,0,101,101,150,1
,,,,,,,,,,,,,,,,,610789ba8948b4b6cdfd4907,32,2022-02-12_14h43.25.200,lexical_decision_task_DD_L3,2021.2.3,Win32,60.01680471,,,,,,,,,,,,1.1948,0,,,,,,,,,,,,,,,,,,,,,,,,0.338888907,0.04666666,0,0,0,,,,,,,CLIFF,HB,z,m,./images/CLIFFHB.png,,,,,,,,,,,,,,,,,,,,m,0,1.1948,,,,,,,,0,102,102,92,1
,,,,,,,,,,,,,,,,,610789ba8948b4b6cdfd4907,32,2022-02-12_14h43.25.200,lexical_decision_task_DD_L3,2021.2.3,Win32,60.01680471,,,,,,,,,,,,0.7942,1,,,,,,,,,,,,,,,,,,,,,,,,0.338888907,0.04666666,0,0,0,,,,,,,MAMMAL,HB,z,m,./images/MAMMALHB.png,,,,,,,,,,,,,,,,,,,,z,1,0.7942,,,,,,,,0,103,103,146,1
,,,,,,,,,,,,,,,,,610789ba8948b4b6cdfd4907,32,2022-02-12_14h43.25.200,lexical_decision_task_DD_L3,2021.2.3,Win32,60.01680471,,,,,,,,,,,,0.6744,1,,,,,,,,,,,,,,,,,,,,,,,,0.338888907,0.04666666,0,0,0,,,,,,,STORM,LB,m,m,./images/STORMLB.png,,,,,,,,,,,,,,,,,,,,m,1,0.6744,,,,,,,,0,104,104,30,1
,,,,,,,,,,,,,,,,,610789ba8948b4b6cdfd4907,32,2022-02-12_14h43.25.200,lexical_decision_task_DD_L3,2021.2.3,Win32,60.01680471,,,,,,,,,,,,0.7118,1,,,,,,,,,,,,,,,,,,,,,,,,0.338888907,0.04666666,0,0,0,,,,,,,MAGGOT,LB,m,m,./images/MAGGOTLB.png,,,,,,,,,,,,,,,,,,,,m,1,0.7118,,,,,,,,0,105,105,33,1
,,,,,,,,,,,,,,,,,610789ba8948b4b6cdfd4907,32,2022-02-12_14h43.25.200,lexical_decision_task_DD_L3,2021.2.3,Win32,60.01680471,,,,,,,,,,,,0.7138,1,,,,,,,,,,,,,,,,,,,,,,,,0.338888907,0.04666666,0,0,0,,,,,,,HOCKEY,HB,z,m,./images/HOCKEYHB.png,,,,,,,,,,,,,,,,,,,,z,1,0.7138,,,,,,,,0,106,106,116,1
,,,,,,,,,,,,,,,,,610789ba8948b4b6cdfd4907,32,2022-02-12_14h43.25.200,lexical_decision_task_DD_L3,2021.2.3,Win32,60.01680471,,,,,,,,,,,,0.8672,1,,,,,,,,,,,,,,,,,,,,,,,,0.338888907,0.04666666,0,0,0,,,,,,,CLOWN,C,z,m,./images/CLOWN.png,,,,,,,,,,,,,,,,,,,,z,1,0.8672,,,,,,,,0,107,107,106,1
,,,,,,,,,,,,,,,,,610789ba8948b4b6cdfd4907,32,2022-02-12_14h43.25.200,lexical_decision_task_DD_L3,2021.2.3,Win32,60.01680471,,,,,,,,,,,,0.5917,1,,,,,,,,,,,,,,,,,,,,,,,,0.338888907,0.04666666,0,0,0,,,,,,,TWINS,LB,m,m,./images/TWINSLB.png,,,,,,,,,,,,,,,,,,,,m,1,0.5917,,,,,,,,0,108,108,60,1
,,,,,,,,,,,,,,,,,610789ba8948b4b6cdfd4907,32,2022-02-12_14h43.25.200,lexical_decision_task_DD_L3,2021.2.3,Win32,60.01680471,,,,,,,,,,,,1.0089,1,,,,,,,,,,,,,,,,,,,,,,,,0.338888907,0.04666666,0,0,0,,,,,,,ONION,LB,m,m,./images/ONIONLB.png,,,,,,,,,,,,,,,,,,,,m,1,1.0089,,,,,,,,0,109,109,51,1
,,,,,,,,,,,,,,,,,610789ba8948b4b6cdfd4907,32,2022-02-12_14h43.25.200,lexical_decision_task_DD_L3,2021.2.3,Win32,60.01680471,,,,,,,,,,,,0.8175,1,,,,,,,,,,,,,,,,,,,,,,,,0.338888907,0.04666666,0,0,0,,,,,,,WHISKY,HB,z,m,./images/WHISKYHB.png,,,,,,,,,,,,,,,,,,,,z,1,0.8175,,,,,,,,0,110,110,167,1
,,,,,,,,,,,,,,,,,610789ba8948b4b6cdfd4907,32,2022-02-12_14h43.25.200,lexical_decision_task_DD_L3,2021.2.3,Win32,60.01680471,,,,,,,,,,,,0.8768,0,,,,,,,,,,,,,,,,,,,,,,,,0.338888907,0.04666666,0,0,0,,,,,,,BASKET,HB,z,m,./images/BASKETHB.png,,,,,,,,,,,,,,,,,,,,m,0,0.8768,,,,,,,,0,111,111,128,1
,,,,,,,,,,,,,,,,,610789ba8948b4b6cdfd4907,32,2022-02-12_14h43.25.200,lexical_decision_task_DD_L3,2021.2.3,Win32,60.01680471,,,,,,,,,,,,0.7757,1,,,,,,,,,,,,,,,,,,,,,,,,0.338888907,0.04666666,0,0,0,,,,,,,SCREW,LB,m,m,./images/SCREWLB.png,,,,,,,,,,,,,,,,,,,,m,1,0.7757,,,,,,,,0,112,112,24,1
,,,,,,,,,,,,,,,,,610789ba8948b4b6cdfd4907,32,2022-02-12_14h43.25.200,lexical_decision_task_DD_L3,2021.2.3,Win32,60.01680471,,,,,,,,,,,,0.6727,0,,,,,,,,,,,,,,,,,,,,,,,,0.338888907,0.04666666,0,0,0,,,,,,,SNACK,C,m,m,./images/SNACK.png,,,,,,,,,,,,,,,,,,,,z,0,0.6727,,,,,,,,0,113,113,73,1
,,,,,,,,,,,,,,,,,610789ba8948b4b6cdfd4907,32,2022-02-12_14h43.25.200,lexical_decision_task_DD_L3,2021.2.3,Win32,60.01680471,,,,,,,,,,,,0.6929,0,,,,,,,,,,,,,,,,,,,,,,,,0.338888907,0.04666666,0,0,0,,,,,,,TOMATO,LB,m,m,./images/TOMATOLB.png,,,,,,,,,,,,,,,,,,,,z,0,0.6929,,,,,,,,0,114,114,0,1
,,,,,,,,,,,,,,,,,610789ba8948b4b6cdfd4907,32,2022-02-12_14h43.25.200,lexical_decision_task_DD_L3,2021.2.3,Win32,60.01680471,,,,,,,,,,,,0.8726,1,,,,,,,,,,,,,,,,,,,,,,,,0.338888907,0.04666666,0,0,0,,,,,,,PARADE,HB,z,m,./images/PARADEHB.png,,,,,,,,,,,,,,,,,,,,z,1,0.8726,,,,,,,,0,115,115,101,1
,,,,,,,,,,,,,,,,,610789ba8948b4b6cdfd4907,32,2022-02-12_14h43.25.200,lexical_decision_task_DD_L3,2021.2.3,Win32,60.01680471,,,,,,,,,,,,1.5629,0,,,,,,,,,,,,,,,,,,,,,,,,0.338888907,0.04666666,0,0,0,,,,,,,SQUARE,LB,m,m,./images/SQUARELB.png,,,,,,,,,,,,,,,,,,,,z,0,1.5629,,,,,,,,0,116,116,6,1
,,,,,,,,,,,,,,,,,610789ba8948b4b6cdfd4907,32,2022-02-12_14h43.25.200,lexical_decision_task_DD_L3,2021.2.3,Win32,60.01680471,,,,,,,,,,,,1.1972,0,,,,,,,,,,,,,,,,,,,,,,,,0.338888907,0.04666666,0,0,0,,,,,,,FERRY,LB,z,m,./images/FERRYLB.png,,,,,,,,,,,,,,,,,,,,m,0,1.1972,,,,,,,,0,117,117,141,1
,,,,,,,,,,,,,,,,,610789ba8948b4b6cdfd4907,32,2022-02-12_14h43.25.200,lexical_decision_task_DD_L3,2021.2.3,Win32,60.01680471,,,,,,,,,,,,1.1862,1,,,,,,,,,,,,,,,,,,,,,,,,0.338888907,0.04666666,0,0,0,,,,,,,KITTEN,LB,m,m,./images/KITTENLB.png,,,,,,,,,,,,,,,,,,,,m,1,1.1862,,,,,,,,0,118,118,45,1
,,,,,,,,,,,,,,,,,610789ba8948b4b6cdfd4907,32,2022-02-12_14h43.25.200,lexical_decision_task_DD_L3,2021.2.3,Win32,60.01680471,,,,,,,,,,,,0.6735,1,,,,,,,,,,,,,,,,,,,,,,,,0.338888907,0.04666666,0,0,0,,,,,,,INFANT,C,m,m,./images/INFANT.png,,,,,,,,,,,,,,,,,,,,m,1,0.6735,,,,,,,,0,119,119,76,1
,,,,,,,,,,,,,,,,,610789ba8948b4b6cdfd4907,32,2022-02-12_14h43.25.200,lexical_decision_task_DD_L3,2021.2.3,Win32,60.01680471,,,,,,,,,,,,0.6537,1,,,,,,,,,,,,,,,,,,,,,,,,0.338888907,0.04666666,0,0,0,,,,,,,MUFFIN,C,m,m,./images/MUFFIN.png,,,,,,,,,,,,,,,,,,,,m,1,0.6537,,,,,,,,0,120,120,55,1
,,,,,,,,,,,,,,,,,610789ba8948b4b6cdfd4907,32,2022-02-12_14h43.25.200,lexical_decision_task_DD_L3,2021.2.3,Win32,60.01680471,,,,,,,,,,,,0.619,1,,,,,,,,,,,,,,,,,,,,,,,,0.338888907,0.04666666,0,0,0,,,,,,,URINE,C,m,m,./images/URINE.png,,,,,,,,,,,,,,,,,,,,m,1,0.619,,,,,,,,0,121,121,70,1
,,,,,,,,,,,,,,,,,610789ba8948b4b6cdfd4907,32,2022-02-12_14h43.25.200,lexical_decision_task_DD_L3,2021.2.3,Win32,60.01680471,,,,,,,,,,,,0.6409,1,,,,,,,,,,,,,,,,,,,,,,,,0.338888907,0.04666666,0,0,0,,,,,,,RULER,C,z,m,./images/RULER.png,,,,,,,,,,,,,,,,,,,,z,1,0.6409,,,,,,,,0,122,122,163,1
,,,,,,,,,,,,,,,,,610789ba8948b4b6cdfd4907,32,2022-02-12_14h43.25.200,lexical_decision_task_DD_L3,2021.2.3,Win32,60.01680471,,,,,,,,,,,,1.967,1,,,,,,,,,,,,,,,,,,,,,,,,0.338888907,0.04666666,0,0,0,,,,,,,FOLDER,LB,m,m,./images/FOLDERLB.png,,,,,,,,,,,,,,,,,,,,m,1,1.967,,,,,,,,0,123,123,42,1
,,,,,,,,,,,,,,,,,610789ba8948b4b6cdfd4907,32,2022-02-12_14h43.25.200,lexical_decision_task_DD_L3,2021.2.3,Win32,60.01680471,,,,,,,,,,,,0.67,1,,,,,,,,,,,,,,,,,,,,,,,,0.338888907,0.04666666,0,0,0,,,,,,,PICKLE,HB,m,m,./images/PICKLEHB.png,,,,,,,,,,,,,,,,,,,,m,1,0.67,,,,,,,,0,124,124,14,1
,,,,,,,,,,,,,,,,,610789ba8948b4b6cdfd4907,32,2022-02-12_14h43.25.200,lexical_decision_task_DD_L3,2021.2.3,Win32,60.01680471,,,,,,,,,,,,0.7454,1,,,,,,,,,,,,,,,,,,,,,,,,0.338888907,0.04666666,0,0,0,space,,,,,,CARPET,HB,m,m,./images/CARPETHB.png,0.955,,,,,,,,,,,,,,,,,,,m,1,0.7454,,,,,,,,0,125,125,53,1
,,,,,,,,,,,,,,,,,610789ba8948b4b6cdfd4907,32,2022-02-12_14h43.25.200,lexical_decision_task_DD_L3,2021.2.3,Win32,60.01680471,,,,,,,,,,,,1.5623,0,,,,,,,,,,,,,,,,,,,,,,,,0.338888907,0.04666666,0,0,0,,,,,,,BLOKE,LB,z,m,./images/BLOKELB.png,,,,,,,,,,,,,,,,,,,,m,0,1.5623,,,,,,,,0,126,126,96,1
,,,,,,,,,,,,,,,,,610789ba8948b4b6cdfd4907,32,2022-02-12_14h43.25.200,lexical_decision_task_DD_L3,2021.2.3,Win32,60.01680471,,,,,,,,,,,,1.1553,1,,,,,,,,,,,,,,,,,,,,,,,,0.338888907,0.04666666,0,0,0,,,,,,,BROOM,LB,z,m,./images/BROOMLB.png,,,,,,,,,,,,,,,,,,,,z,1,1.1553,,,,,,,,0,127,127,162,1
,,,,,,,,,,,,,,,,,610789ba8948b4b6cdfd4907,32,2022-02-12_14h43.25.200,lexical_decision_task_DD_L3,2021.2.3,Win32,60.01680471,,,,,,,,,,,,0.7238,1,,,,,,,,,,,,,,,,,,,,,,,,0.338888907,0.04666666,0,0,0,,,,,,,BUTTER,LB,z,m,./images/BUTTERLB.png,,,,,,,,,,,,,,,,,,,,z,1,0.7238,,,,,,,,0,128,128,111,1
,,,,,,,,,,,,,,,,,610789ba8948b4b6cdfd4907,32,2022-02-12_14h43.25.200,lexical_decision_task_DD_L3,2021.2.3,Win32,60.01680471,,,,,,,,,,,,0.6944,1,,,,,,,,,,,,,,,,,,,,,,,,0.338888907,0.04666666,0,0,0,,,,,,,SPORT,LB,m,m,./images/SPORTLB.png,,,,,,,,,,,,,,,,,,,,m,1,0.6944,,,,,,,,0,129,129,48,1
,,,,,,,,,,,,,,,,,610789ba8948b4b6cdfd4907,32,2022-02-12_14h43.25.200,lexical_decision_task_DD_L3,2021.2.3,Win32,60.01680471,,,,,,,,,,,,0.7692,0,,,,,,,,,,,,,,,,,,,,,,,,0.338888907,0.04666666,0,0,0,,,,,,,STREAM,HB,z,m,./images/STREAMHB.png,,,,,,,,,,,,,,,,,,,,m,0,0.7692,,,,,,,,0,130,130,125,1
,,,,,,,,,,,,,,,,,610789ba8948b4b6cdfd4907,32,2022-02-12_14h43.25.200,lexical_decision_task_DD_L3,2021.2.3,Win32,60.01680471,,,,,,,,,,,,0.7223,1,,,,,,,,,,,,,,,,,,,,,,,,0.338888907,0.04666666,0,0,0,,,,,,,GRAIN,LB,m,m,./images/GRAINLB.png,,,,,,,,,,,,,,,,,,,,m,1,0.7223,,,,,,,,0,131,131,75,1
,,,,,,,,,,,,,,,,,610789ba8948b4b6cdfd4907,32,2022-02-12_14h43.25.200,lexical_decision_task_DD_L3,2021.2.3,Win32,60.01680471,,,,,,,,,,,,0.723,0,,,,,,,,,,,,,,,,,,,,,,,,0.338888907,0.04666666,0,0,0,,,,,,,DOUGH,C,m,m,./images/DOUGH.png,,,,,,,,,,,,,,,,,,,,z,0,0.723,,,,,,,,0,132,132,19,1
