key_resp.keys,instr_done_touch.x,instr_done_touch.y,instr_done_touch.leftButton,instr_done_touch.midButton,instr_done_touch.rightButton,instr_done_touch.clicked_name,instruction_pages.thisRepN,instruction_pages.thisTrialN,instruction_pages.thisN,instruction_pages.thisIndex,instruction_pages.ran,pageN,phase,instruct_text,has_image,instruct_image,participant,age,date,expName,psychopyVersion,OS,frameRate,response.keys,response.corr,response.rt,touch_resp.x,touch_resp.y,touch_resp.leftButton,touch_resp.midButton,touch_resp.rightButton,touch_resp.time,touch_resp.clicked_name,rt,corr,practrials.thisRepN,practrials.thisTrialN,practrials.thisN,practrials.thisIndex,practrials.ran,TrialID,Target,corrAns,end_of_practice_trials_pages.thisRepN,end_of_practice_trials_pages.thisTrialN,end_of_practice_trials_pages.thisN,end_of_practice_trials_pages.thisIndex,end_of_practice_trials_pages.ran,key_resp_2.keys,key_resp_2.corr,key_resp_2.rt,targ_click.x,targ_click.y,targ_click.leftButton,targ_click.midButton,targ_click.rightButton,targ_click.time,targ_click.clicked_name,break_done_touch.x,break_done_touch.y,break_done_touch.leftButton,break_done_touch.midButton,break_done_touch.rightButton,break_done_keyboard.keys,maintrials.thisRepN,maintrials.thisTrialN,maintrials.thisN,maintrials.thisIndex,maintrials.ran,string,blur,study,lex,stim_path,break_done_keyboard.rt,mouse_2.x,mouse_2.y,mouse_2.leftButton,mouse_2.midButton,mouse_2.rightButton,mouse_2.clicked_name,slider.response,slider.rt,trials.thisRepN,trials.thisTrialN,trials.thisN,trials.thisIndex,trials.ran,test_instructions.thisRepN,test_instructions.thisTrialN,test_instructions.thisN,test_instructions.thisIndex,test_instructions.ran,key_resp.rt,key_resp_3.keys,key_resp_3.corr,key_resp_3.rt,test_click.x,test_click.y,test_click.leftButton,test_click.midButton,test_click.rightButton,test_click.time,test_click.clicked_name,test_phase.thisRepN,test_phase.thisTrialN,test_phase.thisN,test_phase.thisIndex,test_phase.ran
,0.061111139,-0.387963046,1,0,0,instr_done_button,0,0,0,0,1,1,instructions,"INSTRUCTIONS
At the start of each trial, look at the plus sign  (+) in the center of the screen.  This tells you that a trial is about to begin and where to look. Second, the plus sign will disappear and a string of letters will appear. Your task is to determine if the string of letters is a word or not. If the item is a word press the M key (on keyboard)  or touch the word button (phone/tablet).  If the item is not a word,  press the  Z key (on keyboard)  or touch the nonword button (on phone/tablet). 
Press the space bar or touch  continue.",0,,6107274fc7421bcda19b63fc,22,2022-02-12_16h52.24.133,lexical_decision_task_DD,2021.2.3,Win32,59.89099838,,,,,,,,,,,,,,,,,,,,,,,,,,,,,,,,,,,,,,,,,,,,,,,,,,,,,,,,,,,,,,,,,,,,,,,,,,,,,,,,,,,,,,
,0.061111139,-0.391666693,1,0,0,instr_done_button,0,1,1,1,1,2,instructions,"If your device has a keyboard, press the 'Z' key for nonwords and the 'M' key for words.





Press the space bar or touch the button below to continue.",0,keyboard-example.gif,6107274fc7421bcda19b63fc,22,2022-02-12_16h52.24.133,lexical_decision_task_DD,2021.2.3,Win32,59.89099838,,,,,,,,,,,,,,,,,,,,,,,,,,,,,,,,,,,,,,,,,,,,,,,,,,,,,,,,,,,,,,,,,,,,,,,,,,,,,,,,,,,,,,
,0.061111139,-0.391666693,1,0,0,instr_done_button,0,2,2,2,1,3,instructions,"If you are using a touchscreen only device, use the buttons on the screen. Do not use the mouse.





Press the space bar or touch the button below to continue.",0,touchscreen-example.gif,6107274fc7421bcda19b63fc,22,2022-02-12_16h52.24.133,lexical_decision_task_DD,2021.2.3,Win32,59.89099838,,,,,,,,,,,,,,,,,,,,,,,,,,,,,,,,,,,,,,,,,,,,,,,,,,,,,,,,,,,,,,,,,,,,,,,,,,,,,,,,,,,,,,
,0.061111139,-0.391666693,1,0,0,instr_done_button,0,3,3,3,1,4,instructions,"It is very important that you respond as quickly and accurately as possible, as each letter string will only be on the screen for two seconds. If you do not respond within this time, the message 'Too slow!' will be displayed and the experiment will progress to the next letter string. The first 20 trials will be practice trials and you will receive feedback on your answers. 

Press the space bar or touch the button below to start the practice trials.",0,,6107274fc7421bcda19b63fc,22,2022-02-12_16h52.24.133,lexical_decision_task_DD,2021.2.3,Win32,59.89099838,,,,,,,,,,,,,,,,,,,,,,,,,,,,,,,,,,,,,,,,,,,,,,,,,,,,,,,,,,,,,,,,,,,,,,,,,,,,,,,,,,,,,,
,,,,,,,,,,,,,,,,,6107274fc7421bcda19b63fc,22,2022-02-12_16h52.24.133,lexical_decision_task_DD,2021.2.3,Win32,59.89099838,z,1,1.0541,,,,,,,,1.0541,1,0,0,0,15,1,1001,WHAISE,z,,,,,,,,,,,,,,,,,,,,,,,,,,,,,,,,,,,,,,,,,,,,,,,,,,,,,,,,,,,,,,,,,,
,,,,,,,,,,,,,,,,,6107274fc7421bcda19b63fc,22,2022-02-12_16h52.24.133,lexical_decision_task_DD,2021.2.3,Win32,59.89099838,m,1,0.688,,,,,,,,0.688,1,0,1,1,7,1,1001,VOLUME,m,,,,,,,,,,,,,,,,,,,,,,,,,,,,,,,,,,,,,,,,,,,,,,,,,,,,,,,,,,,,,,,,,,
,,,,,,,,,,,,,,,,,6107274fc7421bcda19b63fc,22,2022-02-12_16h52.24.133,lexical_decision_task_DD,2021.2.3,Win32,59.89099838,m,1,0.5041,,,,,,,,0.5041,1,0,2,2,5,1,1001,OBTAIN,m,,,,,,,,,,,,,,,,,,,,,,,,,,,,,,,,,,,,,,,,,,,,,,,,,,,,,,,,,,,,,,,,,,
,,,,,,,,,,,,,,,,,6107274fc7421bcda19b63fc,22,2022-02-12_16h52.24.133,lexical_decision_task_DD,2021.2.3,Win32,59.89099838,z,1,0.5944,,,,,,,,0.5944,1,0,3,3,11,1,1001,RASHET,z,,,,,,,,,,,,,,,,,,,,,,,,,,,,,,,,,,,,,,,,,,,,,,,,,,,,,,,,,,,,,,,,,,
,,,,,,,,,,,,,,,,,6107274fc7421bcda19b63fc,22,2022-02-12_16h52.24.133,lexical_decision_task_DD,2021.2.3,Win32,59.89099838,m,1,0.705,,,,,,,,0.705,1,0,4,4,1,1,1001,ADJUST,m,,,,,,,,,,,,,,,,,,,,,,,,,,,,,,,,,,,,,,,,,,,,,,,,,,,,,,,,,,,,,,,,,,
,,,,,,,,,,,,,,,,,6107274fc7421bcda19b63fc,22,2022-02-12_16h52.24.133,lexical_decision_task_DD,2021.2.3,Win32,59.89099838,z,1,0.8094,,,,,,,,0.8094,1,0,5,5,12,1,1001,SPRINY,z,,,,,,,,,,,,,,,,,,,,,,,,,,,,,,,,,,,,,,,,,,,,,,,,,,,,,,,,,,,,,,,,,,
,,,,,,,,,,,,,,,,,6107274fc7421bcda19b63fc,22,2022-02-12_16h52.24.133,lexical_decision_task_DD,2021.2.3,Win32,59.89099838,z,1,0.6195,,,,,,,,0.6195,1,0,6,6,13,1,1001,ROUPET,z,,,,,,,,,,,,,,,,,,,,,,,,,,,,,,,,,,,,,,,,,,,,,,,,,,,,,,,,,,,,,,,,,,
,,,,,,,,,,,,,,,,,6107274fc7421bcda19b63fc,22,2022-02-12_16h52.24.133,lexical_decision_task_DD,2021.2.3,Win32,59.89099838,m,1,0.4303,,,,,,,,0.4303,1,0,7,7,4,1,1001,SQUEAK,m,,,,,,,,,,,,,,,,,,,,,,,,,,,,,,,,,,,,,,,,,,,,,,,,,,,,,,,,,,,,,,,,,,
,,,,,,,,,,,,,,,,,6107274fc7421bcda19b63fc,22,2022-02-12_16h52.24.133,lexical_decision_task_DD,2021.2.3,Win32,59.89099838,z,1,0.6449,,,,,,,,0.6449,1,0,8,8,10,1,1001,INLADE,z,,,,,,,,,,,,,,,,,,,,,,,,,,,,,,,,,,,,,,,,,,,,,,,,,,,,,,,,,,,,,,,,,,
,,,,,,,,,,,,,,,,,6107274fc7421bcda19b63fc,22,2022-02-12_16h52.24.133,lexical_decision_task_DD,2021.2.3,Win32,59.89099838,m,1,0.4784,,,,,,,,0.4784,1,0,9,9,6,1,1001,ZOMBIE,m,,,,,,,,,,,,,,,,,,,,,,,,,,,,,,,,,,,,,,,,,,,,,,,,,,,,,,,,,,,,,,,,,,
,,,,,,,,,,,,,,,,,6107274fc7421bcda19b63fc,22,2022-02-12_16h52.24.133,lexical_decision_task_DD,2021.2.3,Win32,59.89099838,z,0,0.4748,,,,,,,,0.4748,0,0,10,10,0,1,1001,UTOPIA,m,,,,,,,,,,,,,,,,,,,,,,,,,,,,,,,,,,,,,,,,,,,,,,,,,,,,,,,,,,,,,,,,,,
,,,,,,,,,,,,,,,,,6107274fc7421bcda19b63fc,22,2022-02-12_16h52.24.133,lexical_decision_task_DD,2021.2.3,Win32,59.89099838,m,1,0.5762,,,,,,,,0.5762,1,0,11,11,3,1,1001,MATRIX,m,,,,,,,,,,,,,,,,,,,,,,,,,,,,,,,,,,,,,,,,,,,,,,,,,,,,,,,,,,,,,,,,,,
,,,,,,,,,,,,,,,,,6107274fc7421bcda19b63fc,22,2022-02-12_16h52.24.133,lexical_decision_task_DD,2021.2.3,Win32,59.89099838,z,1,0.6189,,,,,,,,0.6189,1,0,12,12,9,1,1001,FARINY,z,,,,,,,,,,,,,,,,,,,,,,,,,,,,,,,,,,,,,,,,,,,,,,,,,,,,,,,,,,,,,,,,,,
,,,,,,,,,,,,,,,,,6107274fc7421bcda19b63fc,22,2022-02-12_16h52.24.133,lexical_decision_task_DD,2021.2.3,Win32,59.89099838,z,1,0.5811,,,,,,,,0.5811,1,0,13,13,14,1,1001,THRALE,z,,,,,,,,,,,,,,,,,,,,,,,,,,,,,,,,,,,,,,,,,,,,,,,,,,,,,,,,,,,,,,,,,,
,,,,,,,,,,,,,,,,,6107274fc7421bcda19b63fc,22,2022-02-12_16h52.24.133,lexical_decision_task_DD,2021.2.3,Win32,59.89099838,z,1,0.6114,,,,,,,,0.6114,1,0,14,14,8,1,1001,ASLERT,z,,,,,,,,,,,,,,,,,,,,,,,,,,,,,,,,,,,,,,,,,,,,,,,,,,,,,,,,,,,,,,,,,,
,,,,,,,,,,,,,,,,,6107274fc7421bcda19b63fc,22,2022-02-12_16h52.24.133,lexical_decision_task_DD,2021.2.3,Win32,59.89099838,m,1,0.4195,,,,,,,,0.4195,1,0,15,15,2,1,1001,ALMOND,m,,,,,,,,,,,,,,,,,,,,,,,,,,,,,,,,,,,,,,,,,,,,,,,,,,,,,,,,,,,,,,,,,,
,0.062962991,-0.413888916,1,0,0,instr_done_button,,,,,,1,end_of_practice,"You have completed the practice trials. During the experimental trials, you will not receive feedback. 
Before you begin, please ensure that you are in a comfortable and quiet location and will not be disturbed for about 15 minutes, as we cannot use your data if you do not complete all the trials. 
 When you are ready to start the experimental trials, please press space or touch the button below.",,,6107274fc7421bcda19b63fc,22,2022-02-12_16h52.24.133,lexical_decision_task_DD,2021.2.3,Win32,59.89099838,,,,,,,,,,,,,,,,,,,,,0,0,0,0,1,,,,,,,,,,,,,,,,,,,,,,,,,,,,,,,,,,,,,,,,,,,,,,,,,,,,,,,,,,,,,
,,,,,,,,,,,,,,,,,6107274fc7421bcda19b63fc,22,2022-02-12_16h52.24.133,lexical_decision_task_DD,2021.2.3,Win32,59.89099838,,,,,,,,,,,1.4368,1,,,,,,,,,,,,,,m,1,1.4368,,,,,,,,0.062962991,-0.413888916,0,0,0,,0,0,0,26,1,SMOKER,LB,old,m,./images/SMOKERLB.png,,,,,,,,,,,,,,,,,,,,,,,,,,,,,,,,,,,
,,,,,,,,,,,,,,,,,6107274fc7421bcda19b63fc,22,2022-02-12_16h52.24.133,lexical_decision_task_DD,2021.2.3,Win32,59.89099838,,,,,,,,,,,0.6062,1,,,,,,,,,,,,,,z,1,0.6062,,,,,,,,0.062962991,-0.413888916,0,0,0,,0,1,1,96,1,KEAMS,C,old,z,./images/KEAMS.png,,,,,,,,,,,,,,,,,,,,,,,,,,,,,,,,,,,
,,,,,,,,,,,,,,,,,6107274fc7421bcda19b63fc,22,2022-02-12_16h52.24.133,lexical_decision_task_DD,2021.2.3,Win32,59.89099838,,,,,,,,,,,0.5527,1,,,,,,,,,,,,,,m,1,0.5527,,,,,,,,0.062962991,-0.413888916,0,0,0,,0,2,2,27,1,ATTIC,C,old,m,./images/ATTIC.png,,,,,,,,,,,,,,,,,,,,,,,,,,,,,,,,,,,
,,,,,,,,,,,,,,,,,6107274fc7421bcda19b63fc,22,2022-02-12_16h52.24.133,lexical_decision_task_DD,2021.2.3,Win32,59.89099838,,,,,,,,,,,0.6921,1,,,,,,,,,,,,,,m,1,0.6921,,,,,,,,0.062962991,-0.413888916,0,0,0,,0,3,3,49,1,DRUMS,HB,old,m,./images/DRUMSHB.png,,,,,,,,,,,,,,,,,,,,,,,,,,,,,,,,,,,
,,,,,,,,,,,,,,,,,6107274fc7421bcda19b63fc,22,2022-02-12_16h52.24.133,lexical_decision_task_DD,2021.2.3,Win32,59.89099838,,,,,,,,,,,0.4997,1,,,,,,,,,,,,,,m,1,0.4997,,,,,,,,0.062962991,-0.413888916,0,0,0,,0,4,4,21,1,KIDNEY,C,old,m,./images/KIDNEY.png,,,,,,,,,,,,,,,,,,,,,,,,,,,,,,,,,,,
,,,,,,,,,,,,,,,,,6107274fc7421bcda19b63fc,22,2022-02-12_16h52.24.133,lexical_decision_task_DD,2021.2.3,Win32,59.89099838,,,,,,,,,,,0.6072,1,,,,,,,,,,,,,,m,1,0.6072,,,,,,,,0.062962991,-0.413888916,0,0,0,,0,5,5,13,1,MOTOR,HB,old,m,./images/MOTORHB.png,,,,,,,,,,,,,,,,,,,,,,,,,,,,,,,,,,,
,,,,,,,,,,,,,,,,,6107274fc7421bcda19b63fc,22,2022-02-12_16h52.24.133,lexical_decision_task_DD,2021.2.3,Win32,59.89099838,,,,,,,,,,,0.7147,1,,,,,,,,,,,,,,m,1,0.7147,,,,,,,,0.062962991,-0.413888916,0,0,0,,0,6,6,10,1,BELLY,HB,old,m,./images/BELLYHB.png,,,,,,,,,,,,,,,,,,,,,,,,,,,,,,,,,,,
,,,,,,,,,,,,,,,,,6107274fc7421bcda19b63fc,22,2022-02-12_16h52.24.133,lexical_decision_task_DD,2021.2.3,Win32,59.89099838,,,,,,,,,,,0.7371,1,,,,,,,,,,,,,,m,1,0.7371,,,,,,,,0.062962991,-0.413888916,0,0,0,,0,7,7,31,1,QUILL,HB,old,m,./images/QUILLHB.png,,,,,,,,,,,,,,,,,,,,,,,,,,,,,,,,,,,
,,,,,,,,,,,,,,,,,6107274fc7421bcda19b63fc,22,2022-02-12_16h52.24.133,lexical_decision_task_DD,2021.2.3,Win32,59.89099838,,,,,,,,,,,0.5843,1,,,,,,,,,,,,,,m,1,0.5843,,,,,,,,0.062962991,-0.413888916,0,0,0,,0,8,8,52,1,BANNER,HB,old,m,./images/BANNERHB.png,,,,,,,,,,,,,,,,,,,,,,,,,,,,,,,,,,,
,,,,,,,,,,,,,,,,,6107274fc7421bcda19b63fc,22,2022-02-12_16h52.24.133,lexical_decision_task_DD,2021.2.3,Win32,59.89099838,,,,,,,,,,,0.5684,1,,,,,,,,,,,,,,m,1,0.5684,,,,,,,,0.062962991,-0.413888916,0,0,0,,0,9,9,46,1,PEARL,HB,old,m,./images/PEARLHB.png,,,,,,,,,,,,,,,,,,,,,,,,,,,,,,,,,,,
,,,,,,,,,,,,,,,,,6107274fc7421bcda19b63fc,22,2022-02-12_16h52.24.133,lexical_decision_task_DD,2021.2.3,Win32,59.89099838,,,,,,,,,,,0.4582,1,,,,,,,,,,,,,,m,1,0.4582,,,,,,,,0.062962991,-0.413888916,0,0,0,,0,10,10,69,1,COOKER,C,old,m,./images/COOKER.png,,,,,,,,,,,,,,,,,,,,,,,,,,,,,,,,,,,
,,,,,,,,,,,,,,,,,6107274fc7421bcda19b63fc,22,2022-02-12_16h52.24.133,lexical_decision_task_DD,2021.2.3,Win32,59.89099838,,,,,,,,,,,0.4357,0,,,,,,,,,,,,,,m,0,0.4357,,,,,,,,0.062962991,-0.413888916,0,0,0,,0,11,11,89,1,DRIEK,LB,old,z,./images/DRIEKLB.png,,,,,,,,,,,,,,,,,,,,,,,,,,,,,,,,,,,
,,,,,,,,,,,,,,,,,6107274fc7421bcda19b63fc,22,2022-02-12_16h52.24.133,lexical_decision_task_DD,2021.2.3,Win32,59.89099838,,,,,,,,,,,0.5367,1,,,,,,,,,,,,,,m,1,0.5367,,,,,,,,0.062962991,-0.413888916,0,0,0,,0,12,12,15,1,GREASE,C,old,m,./images/GREASE.png,,,,,,,,,,,,,,,,,,,,,,,,,,,,,,,,,,,
,,,,,,,,,,,,,,,,,6107274fc7421bcda19b63fc,22,2022-02-12_16h52.24.133,lexical_decision_task_DD,2021.2.3,Win32,59.89099838,,,,,,,,,,,0.5667,1,,,,,,,,,,,,,,m,1,0.5667,,,,,,,,0.062962991,-0.413888916,0,0,0,,0,13,13,72,1,NOOSE,C,old,m,./images/NOOSE.png,,,,,,,,,,,,,,,,,,,,,,,,,,,,,,,,,,,
,,,,,,,,,,,,,,,,,6107274fc7421bcda19b63fc,22,2022-02-12_16h52.24.133,lexical_decision_task_DD,2021.2.3,Win32,59.89099838,,,,,,,,,,,0.7047,1,,,,,,,,,,,,,,z,1,0.7047,,,,,,,,0.062962991,-0.413888916,0,0,0,,0,14,14,125,1,MOOKY,LB,old,z,./images/MOOKYLB.png,,,,,,,,,,,,,,,,,,,,,,,,,,,,,,,,,,,
,,,,,,,,,,,,,,,,,6107274fc7421bcda19b63fc,22,2022-02-12_16h52.24.133,lexical_decision_task_DD,2021.2.3,Win32,59.89099838,,,,,,,,,,,1.5566,1,,,,,,,,,,,,,,z,1,1.5566,,,,,,,,0.062962991,-0.413888916,0,0,0,,0,15,15,151,1,TINKY,HB,old,z,./images/TINKYHB.png,,,,,,,,,,,,,,,,,,,,,,,,,,,,,,,,,,,
,,,,,,,,,,,,,,,,,6107274fc7421bcda19b63fc,22,2022-02-12_16h52.24.133,lexical_decision_task_DD,2021.2.3,Win32,59.89099838,,,,,,,,,,,0.6585,1,,,,,,,,,,,,,,m,1,0.6585,,,,,,,,0.062962991,-0.413888916,0,0,0,,0,16,16,17,1,SKIING,LB,old,m,./images/SKIINGLB.png,,,,,,,,,,,,,,,,,,,,,,,,,,,,,,,,,,,
,,,,,,,,,,,,,,,,,6107274fc7421bcda19b63fc,22,2022-02-12_16h52.24.133,lexical_decision_task_DD,2021.2.3,Win32,59.89099838,,,,,,,,,,,0.6457,1,,,,,,,,,,,,,,z,1,0.6457,,,,,,,,0.062962991,-0.413888916,0,0,0,,0,17,17,159,1,CUDDY,C,old,z,./images/CUDDY.png,,,,,,,,,,,,,,,,,,,,,,,,,,,,,,,,,,,
,,,,,,,,,,,,,,,,,6107274fc7421bcda19b63fc,22,2022-02-12_16h52.24.133,lexical_decision_task_DD,2021.2.3,Win32,59.89099838,,,,,,,,,,,0.6843,1,,,,,,,,,,,,,,z,1,0.6843,,,,,,,,0.062962991,-0.413888916,0,0,0,,0,18,18,117,1,STEEG,C,old,z,./images/STEEG.png,,,,,,,,,,,,,,,,,,,,,,,,,,,,,,,,,,,
,,,,,,,,,,,,,,,,,6107274fc7421bcda19b63fc,22,2022-02-12_16h52.24.133,lexical_decision_task_DD,2021.2.3,Win32,59.89099838,,,,,,,,,,,0.9904,1,,,,,,,,,,,,,,z,1,0.9904,,,,,,,,0.062962991,-0.413888916,0,0,0,,0,19,19,127,1,NINDY,HB,old,z,./images/NINDYHB.png,,,,,,,,,,,,,,,,,,,,,,,,,,,,,,,,,,,
,,,,,,,,,,,,,,,,,6107274fc7421bcda19b63fc,22,2022-02-12_16h52.24.133,lexical_decision_task_DD,2021.2.3,Win32,59.89099838,,,,,,,,,,,0.6865,1,,,,,,,,,,,,,,m,1,0.6865,,,,,,,,0.062962991,-0.413888916,0,0,0,,0,20,20,37,1,BIRTH,HB,old,m,./images/BIRTHHB.png,,,,,,,,,,,,,,,,,,,,,,,,,,,,,,,,,,,
,,,,,,,,,,,,,,,,,6107274fc7421bcda19b63fc,22,2022-02-12_16h52.24.133,lexical_decision_task_DD,2021.2.3,Win32,59.89099838,,,,,,,,,,,1.0492,1,,,,,,,,,,,,,,m,1,1.0492,,,,,,,,0.062962991,-0.413888916,0,0,0,,0,21,21,79,1,CRUST,HB,old,m,./images/CRUSTHB.png,,,,,,,,,,,,,,,,,,,,,,,,,,,,,,,,,,,
,,,,,,,,,,,,,,,,,6107274fc7421bcda19b63fc,22,2022-02-12_16h52.24.133,lexical_decision_task_DD,2021.2.3,Win32,59.89099838,,,,,,,,,,,1.4703,1,,,,,,,,,,,,,,z,1,1.4703,,,,,,,,0.062962991,-0.413888916,0,0,0,,0,22,22,91,1,SHENS,HB,old,z,./images/SHENSHB.png,,,,,,,,,,,,,,,,,,,,,,,,,,,,,,,,,,,
,,,,,,,,,,,,,,,,,6107274fc7421bcda19b63fc,22,2022-02-12_16h52.24.133,lexical_decision_task_DD,2021.2.3,Win32,59.89099838,,,,,,,,,,,0.57,1,,,,,,,,,,,,,,z,1,0.57,,,,,,,,0.062962991,-0.413888916,0,0,0,,0,23,23,105,1,MOKER,C,old,z,./images/MOKER.png,,,,,,,,,,,,,,,,,,,,,,,,,,,,,,,,,,,
,,,,,,,,,,,,,,,,,6107274fc7421bcda19b63fc,22,2022-02-12_16h52.24.133,lexical_decision_task_DD,2021.2.3,Win32,59.89099838,,,,,,,,,,,0.9038,1,,,,,,,,,,,,,,z,1,0.9038,,,,,,,,0.062962991,-0.413888916,0,0,0,,0,24,24,112,1,MYING,HB,old,z,./images/MYINGHB.png,,,,,,,,,,,,,,,,,,,,,,,,,,,,,,,,,,,
,,,,,,,,,,,,,,,,,6107274fc7421bcda19b63fc,22,2022-02-12_16h52.24.133,lexical_decision_task_DD,2021.2.3,Win32,59.89099838,,,,,,,,,,,1.2409,1,,,,,,,,,,,,,,z,1,1.2409,,,,,,,,0.062962991,-0.413888916,0,0,0,,0,25,25,154,1,THINT,HB,old,z,./images/THINTHB.png,,,,,,,,,,,,,,,,,,,,,,,,,,,,,,,,,,,
,,,,,,,,,,,,,,,,,6107274fc7421bcda19b63fc,22,2022-02-12_16h52.24.133,lexical_decision_task_DD,2021.2.3,Win32,59.89099838,,,,,,,,,,,0.5702,1,,,,,,,,,,,,,,m,1,0.5702,,,,,,,,0.062962991,-0.413888916,0,0,0,,0,26,26,24,1,SCREW,C,old,m,./images/SCREW.png,,,,,,,,,,,,,,,,,,,,,,,,,,,,,,,,,,,
,,,,,,,,,,,,,,,,,6107274fc7421bcda19b63fc,22,2022-02-12_16h52.24.133,lexical_decision_task_DD,2021.2.3,Win32,59.89099838,,,,,,,,,,,0.6022,1,,,,,,,,,,,,,,z,1,0.6022,,,,,,,,0.062962991,-0.413888916,0,0,0,,0,27,27,165,1,TROWN,C,old,z,./images/TROWN.png,,,,,,,,,,,,,,,,,,,,,,,,,,,,,,,,,,,
,,,,,,,,,,,,,,,,,6107274fc7421bcda19b63fc,22,2022-02-12_16h52.24.133,lexical_decision_task_DD,2021.2.3,Win32,59.89099838,,,,,,,,,,,0.5513,1,,,,,,,,,,,,,,m,1,0.5513,,,,,,,,0.062962991,-0.413888916,0,0,0,,0,28,28,53,1,CARPET,LB,old,m,./images/CARPETLB.png,,,,,,,,,,,,,,,,,,,,,,,,,,,,,,,,,,,
,,,,,,,,,,,,,,,,,6107274fc7421bcda19b63fc,22,2022-02-12_16h52.24.133,lexical_decision_task_DD,2021.2.3,Win32,59.89099838,,,,,,,,,,,0.5168,1,,,,,,,,,,,,,,m,1,0.5168,,,,,,,,0.062962991,-0.413888916,0,0,0,,0,29,29,71,1,PIMPLE,LB,old,m,./images/PIMPLELB.png,,,,,,,,,,,,,,,,,,,,,,,,,,,,,,,,,,,
,,,,,,,,,,,,,,,,,6107274fc7421bcda19b63fc,22,2022-02-12_16h52.24.133,lexical_decision_task_DD,2021.2.3,Win32,59.89099838,,,,,,,,,,,0.5345,1,,,,,,,,,,,,,,z,1,0.5345,,,,,,,,0.062962991,-0.413888916,0,0,0,,0,30,30,90,1,NEAST,C,old,z,./images/NEAST.png,,,,,,,,,,,,,,,,,,,,,,,,,,,,,,,,,,,
,,,,,,,,,,,,,,,,,6107274fc7421bcda19b63fc,22,2022-02-12_16h52.24.133,lexical_decision_task_DD,2021.2.3,Win32,59.89099838,,,,,,,,,,,0.5182,1,,,,,,,,,,,,,,z,1,0.5182,,,,,,,,0.062962991,-0.413888916,0,0,0,,0,31,31,147,1,ZOLES,C,old,z,./images/ZOLES.png,,,,,,,,,,,,,,,,,,,,,,,,,,,,,,,,,,,
,,,,,,,,,,,,,,,,,6107274fc7421bcda19b63fc,22,2022-02-12_16h52.24.133,lexical_decision_task_DD,2021.2.3,Win32,59.89099838,,,,,,,,,,,0.5725,1,,,,,,,,,,,,,,m,1,0.5725,,,,,,,,0.062962991,-0.413888916,0,0,0,,0,32,32,45,1,KITTEN,C,old,m,./images/KITTEN.png,,,,,,,,,,,,,,,,,,,,,,,,,,,,,,,,,,,
,,,,,,,,,,,,,,,,,6107274fc7421bcda19b63fc,22,2022-02-12_16h52.24.133,lexical_decision_task_DD,2021.2.3,Win32,59.89099838,,,,,,,,,,,0.5892,1,,,,,,,,,,,,,,m,1,0.5892,,,,,,,,0.062962991,-0.413888916,0,0,0,,0,33,33,59,1,BURIAL,LB,old,m,./images/BURIALLB.png,,,,,,,,,,,,,,,,,,,,,,,,,,,,,,,,,,,
,,,,,,,,,,,,,,,,,6107274fc7421bcda19b63fc,22,2022-02-12_16h52.24.133,lexical_decision_task_DD,2021.2.3,Win32,59.89099838,,,,,,,,,,,0.5561,1,,,,,,,,,,,,,,m,1,0.5561,,,,,,,,0.062962991,-0.413888916,0,0,0,,0,34,34,57,1,MOOSE,C,old,m,./images/MOOSE.png,,,,,,,,,,,,,,,,,,,,,,,,,,,,,,,,,,,
,,,,,,,,,,,,,,,,,6107274fc7421bcda19b63fc,22,2022-02-12_16h52.24.133,lexical_decision_task_DD,2021.2.3,Win32,59.89099838,,,,,,,,,,,0.5987,1,,,,,,,,,,,,,,z,1,0.5987,,,,,,,,0.062962991,-0.413888916,0,0,0,,0,35,35,153,1,CLUPS,C,old,z,./images/CLUPS.png,,,,,,,,,,,,,,,,,,,,,,,,,,,,,,,,,,,
,,,,,,,,,,,,,,,,,6107274fc7421bcda19b63fc,22,2022-02-12_16h52.24.133,lexical_decision_task_DD,2021.2.3,Win32,59.89099838,,,,,,,,,,,0.5698,1,,,,,,,,,,,,,,z,1,0.5698,,,,,,,,0.062962991,-0.413888916,0,0,0,,0,36,36,149,1,VEASE,LB,old,z,./images/VEASELB.png,,,,,,,,,,,,,,,,,,,,,,,,,,,,,,,,,,,
,,,,,,,,,,,,,,,,,6107274fc7421bcda19b63fc,22,2022-02-12_16h52.24.133,lexical_decision_task_DD,2021.2.3,Win32,59.89099838,,,,,,,,,,,0.5205,1,,,,,,,,,,,,,,z,1,0.5205,,,,,,,,0.062962991,-0.413888916,0,0,0,,0,37,37,162,1,LEICH,C,old,z,./images/LEICH.png,,,,,,,,,,,,,,,,,,,,,,,,,,,,,,,,,,,
,,,,,,,,,,,,,,,,,6107274fc7421bcda19b63fc,22,2022-02-12_16h52.24.133,lexical_decision_task_DD,2021.2.3,Win32,59.89099838,,,,,,,,,,,1.2856,1,,,,,,,,,,,,,,m,1,1.2856,,,,,,,,0.062962991,-0.413888916,0,0,0,,0,38,38,58,1,BABOON,HB,old,m,./images/BABOONHB.png,,,,,,,,,,,,,,,,,,,,,,,,,,,,,,,,,,,
,,,,,,,,,,,,,,,,,6107274fc7421bcda19b63fc,22,2022-02-12_16h52.24.133,lexical_decision_task_DD,2021.2.3,Win32,59.89099838,,,,,,,,,,,0.5367,1,,,,,,,,,,,,,,m,1,0.5367,,,,,,,,0.062962991,-0.413888916,0,0,0,,0,39,39,42,1,FOLDER,C,old,m,./images/FOLDER.png,,,,,,,,,,,,,,,,,,,,,,,,,,,,,,,,,,,
,,,,,,,,,,,,,,,,,6107274fc7421bcda19b63fc,22,2022-02-12_16h52.24.133,lexical_decision_task_DD,2021.2.3,Win32,59.89099838,,,,,,,,,,,0.566,1,,,,,,,,,,,,,,m,1,0.566,,,,,,,,0.062962991,-0.413888916,0,0,0,,0,40,40,7,1,PAINT,HB,old,m,./images/PAINTHB.png,,,,,,,,,,,,,,,,,,,,,,,,,,,,,,,,,,,
,,,,,,,,,,,,,,,,,6107274fc7421bcda19b63fc,22,2022-02-12_16h52.24.133,lexical_decision_task_DD,2021.2.3,Win32,59.89099838,,,,,,,,,,,0.5689,1,,,,,,,,,,,,,,z,1,0.5689,,,,,,,,0.062962991,-0.413888916,0,0,0,space,0,41,41,155,1,CANGY,LB,old,z,./images/CANGYLB.png,2.0801,,,,,,,,,,,,,,,,,,,,,,,,,,,,,,,,,,
,,,,,,,,,,,,,,,,,6107274fc7421bcda19b63fc,22,2022-02-12_16h52.24.133,lexical_decision_task_DD,2021.2.3,Win32,59.89099838,,,,,,,,,,,0.5849,1,,,,,,,,,,,,,,m,1,0.5849,,,,,,,,0.062962991,-0.413888916,0,0,0,,0,42,42,78,1,LITTER,C,old,m,./images/LITTER.png,,,,,,,,,,,,,,,,,,,,,,,,,,,,,,,,,,,
,,,,,,,,,,,,,,,,,6107274fc7421bcda19b63fc,22,2022-02-12_16h52.24.133,lexical_decision_task_DD,2021.2.3,Win32,59.89099838,,,,,,,,,,,0.5681,1,,,,,,,,,,,,,,z,1,0.5681,,,,,,,,0.062962991,-0.413888916,0,0,0,,0,43,43,137,1,JOOST,LB,old,z,./images/JOOSTLB.png,,,,,,,,,,,,,,,,,,,,,,,,,,,,,,,,,,,
,,,,,,,,,,,,,,,,,6107274fc7421bcda19b63fc,22,2022-02-12_16h52.24.133,lexical_decision_task_DD,2021.2.3,Win32,59.89099838,,,,,,,,,,,0.5246,1,,,,,,,,,,,,,,m,1,0.5246,,,,,,,,0.062962991,-0.413888916,0,0,0,,0,44,44,77,1,COUCH,LB,old,m,./images/COUCHLB.png,,,,,,,,,,,,,,,,,,,,,,,,,,,,,,,,,,,
,,,,,,,,,,,,,,,,,6107274fc7421bcda19b63fc,22,2022-02-12_16h52.24.133,lexical_decision_task_DD,2021.2.3,Win32,59.89099838,,,,,,,,,,,0.5184,1,,,,,,,,,,,,,,z,1,0.5184,,,,,,,,0.062962991,-0.413888916,0,0,0,,0,45,45,129,1,PRANS,C,old,z,./images/PRANS.png,,,,,,,,,,,,,,,,,,,,,,,,,,,,,,,,,,,
,,,,,,,,,,,,,,,,,6107274fc7421bcda19b63fc,22,2022-02-12_16h52.24.133,lexical_decision_task_DD,2021.2.3,Win32,59.89099838,,,,,,,,,,,0.6893,1,,,,,,,,,,,,,,m,1,0.6893,,,,,,,,0.062962991,-0.413888916,0,0,0,,0,46,46,4,1,MUSCLE,HB,old,m,./images/MUSCLEHB.png,,,,,,,,,,,,,,,,,,,,,,,,,,,,,,,,,,,
,,,,,,,,,,,,,,,,,6107274fc7421bcda19b63fc,22,2022-02-12_16h52.24.133,lexical_decision_task_DD,2021.2.3,Win32,59.89099838,,,,,,,,,,,0.6275,1,,,,,,,,,,,,,,z,1,0.6275,,,,,,,,0.062962991,-0.413888916,0,0,0,,0,47,47,85,1,CHULK,HB,old,z,./images/CHULKHB.png,,,,,,,,,,,,,,,,,,,,,,,,,,,,,,,,,,,
,,,,,,,,,,,,,,,,,6107274fc7421bcda19b63fc,22,2022-02-12_16h52.24.133,lexical_decision_task_DD,2021.2.3,Win32,59.89099838,,,,,,,,,,,0.6203,1,,,,,,,,,,,,,,z,1,0.6203,,,,,,,,0.062962991,-0.413888916,0,0,0,,0,48,48,148,1,JOMS,HB,old,z,./images/JOMSHB.png,,,,,,,,,,,,,,,,,,,,,,,,,,,,,,,,,,,
,,,,,,,,,,,,,,,,,6107274fc7421bcda19b63fc,22,2022-02-12_16h52.24.133,lexical_decision_task_DD,2021.2.3,Win32,59.89099838,,,,,,,,,,,0.5242,1,,,,,,,,,,,,,,m,1,0.5242,,,,,,,,0.062962991,-0.413888916,0,0,0,,0,49,49,3,1,FINGER,C,old,m,./images/FINGER.png,,,,,,,,,,,,,,,,,,,,,,,,,,,,,,,,,,,
,,,,,,,,,,,,,,,,,6107274fc7421bcda19b63fc,22,2022-02-12_16h52.24.133,lexical_decision_task_DD,2021.2.3,Win32,59.89099838,,,,,,,,,,,0.521,1,,,,,,,,,,,,,,z,1,0.521,,,,,,,,0.062962991,-0.413888916,0,0,0,,0,50,50,120,1,RINED,C,old,z,./images/RINED.png,,,,,,,,,,,,,,,,,,,,,,,,,,,,,,,,,,,
,,,,,,,,,,,,,,,,,6107274fc7421bcda19b63fc,22,2022-02-12_16h52.24.133,lexical_decision_task_DD,2021.2.3,Win32,59.89099838,,,,,,,,,,,0.509,1,,,,,,,,,,,,,,m,1,0.509,,,,,,,,0.062962991,-0.413888916,0,0,0,,0,51,51,23,1,WALRUS,LB,old,m,./images/WALRUSLB.png,,,,,,,,,,,,,,,,,,,,,,,,,,,,,,,,,,,
,,,,,,,,,,,,,,,,,6107274fc7421bcda19b63fc,22,2022-02-12_16h52.24.133,lexical_decision_task_DD,2021.2.3,Win32,59.89099838,,,,,,,,,,,1.0389,1,,,,,,,,,,,,,,m,1,1.0389,,,,,,,,0.062962991,-0.413888916,0,0,0,,0,52,52,16,1,PENCE,HB,old,m,./images/PENCEHB.png,,,,,,,,,,,,,,,,,,,,,,,,,,,,,,,,,,,
,,,,,,,,,,,,,,,,,6107274fc7421bcda19b63fc,22,2022-02-12_16h52.24.133,lexical_decision_task_DD,2021.2.3,Win32,59.89099838,,,,,,,,,,,0.5827,1,,,,,,,,,,,,,,z,1,0.5827,,,,,,,,0.062962991,-0.413888916,0,0,0,,0,53,53,111,1,HOSSE,C,old,z,./images/HOSSE.png,,,,,,,,,,,,,,,,,,,,,,,,,,,,,,,,,,,
,,,,,,,,,,,,,,,,,6107274fc7421bcda19b63fc,22,2022-02-12_16h52.24.133,lexical_decision_task_DD,2021.2.3,Win32,59.89099838,,,,,,,,,,,0.5232,1,,,,,,,,,,,,,,m,1,0.5232,,,,,,,,0.062962991,-0.413888916,0,0,0,,0,54,54,32,1,BARREL,LB,old,m,./images/BARRELLB.png,,,,,,,,,,,,,,,,,,,,,,,,,,,,,,,,,,,
,,,,,,,,,,,,,,,,,6107274fc7421bcda19b63fc,22,2022-02-12_16h52.24.133,lexical_decision_task_DD,2021.2.3,Win32,59.89099838,,,,,,,,,,,0.4707,1,,,,,,,,,,,,,,m,1,0.4707,,,,,,,,0.062962991,-0.413888916,0,0,0,,0,55,55,74,1,CEMENT,LB,old,m,./images/CEMENTLB.png,,,,,,,,,,,,,,,,,,,,,,,,,,,,,,,,,,,
,,,,,,,,,,,,,,,,,6107274fc7421bcda19b63fc,22,2022-02-12_16h52.24.133,lexical_decision_task_DD,2021.2.3,Win32,59.89099838,,,,,,,,,,,0.5114,1,,,,,,,,,,,,,,z,1,0.5114,,,,,,,,0.062962991,-0.413888916,0,0,0,,0,56,56,150,1,NOOLS,C,old,z,./images/NOOLS.png,,,,,,,,,,,,,,,,,,,,,,,,,,,,,,,,,,,
,,,,,,,,,,,,,,,,,6107274fc7421bcda19b63fc,22,2022-02-12_16h52.24.133,lexical_decision_task_DD,2021.2.3,Win32,59.89099838,,,,,,,,,,,1.0434,1,,,,,,,,,,,,,,m,1,1.0434,,,,,,,,0.062962991,-0.413888916,0,0,0,,0,57,57,25,1,WRIST,HB,old,m,./images/WRISTHB.png,,,,,,,,,,,,,,,,,,,,,,,,,,,,,,,,,,,
,,,,,,,,,,,,,,,,,6107274fc7421bcda19b63fc,22,2022-02-12_16h52.24.133,lexical_decision_task_DD,2021.2.3,Win32,59.89099838,,,,,,,,,,,0.6508,1,,,,,,,,,,,,,,z,1,0.6508,,,,,,,,0.062962991,-0.413888916,0,0,0,,0,58,58,146,1,MOOST,LB,old,z,./images/MOOSTLB.png,,,,,,,,,,,,,,,,,,,,,,,,,,,,,,,,,,,
,,,,,,,,,,,,,,,,,6107274fc7421bcda19b63fc,22,2022-02-12_16h52.24.133,lexical_decision_task_DD,2021.2.3,Win32,59.89099838,,,,,,,,,,,0.57,1,,,,,,,,,,,,,,m,1,0.57,,,,,,,,0.062962991,-0.413888916,0,0,0,,0,59,59,40,1,SWING,HB,old,m,./images/SWINGHB.png,,,,,,,,,,,,,,,,,,,,,,,,,,,,,,,,,,,
,,,,,,,,,,,,,,,,,6107274fc7421bcda19b63fc,22,2022-02-12_16h52.24.133,lexical_decision_task_DD,2021.2.3,Win32,59.89099838,,,,,,,,,,,0.5237,1,,,,,,,,,,,,,,z,1,0.5237,,,,,,,,0.062962991,-0.413888916,0,0,0,,0,60,60,132,1,SCIFF,C,old,z,./images/SCIFF.png,,,,,,,,,,,,,,,,,,,,,,,,,,,,,,,,,,,
,,,,,,,,,,,,,,,,,6107274fc7421bcda19b63fc,22,2022-02-12_16h52.24.133,lexical_decision_task_DD,2021.2.3,Win32,59.89099838,,,,,,,,,,,0.5433,1,,,,,,,,,,,,,,m,1,0.5433,,,,,,,,0.062962991,-0.413888916,0,0,0,,0,61,61,0,1,TOMATO,C,old,m,./images/TOMATO.png,,,,,,,,,,,,,,,,,,,,,,,,,,,,,,,,,,,
,,,,,,,,,,,,,,,,,6107274fc7421bcda19b63fc,22,2022-02-12_16h52.24.133,lexical_decision_task_DD,2021.2.3,Win32,59.89099838,,,,,,,,,,,0.7587,0,,,,,,,,,,,,,,m,0,0.7587,,,,,,,,0.062962991,-0.413888916,0,0,0,,0,62,62,139,1,BLEAR,HB,old,z,./images/BLEARHB.png,,,,,,,,,,,,,,,,,,,,,,,,,,,,,,,,,,,
,,,,,,,,,,,,,,,,,6107274fc7421bcda19b63fc,22,2022-02-12_16h52.24.133,lexical_decision_task_DD,2021.2.3,Win32,59.89099838,,,,,,,,,,,0.5931,1,,,,,,,,,,,,,,z,1,0.5931,,,,,,,,0.062962991,-0.413888916,0,0,0,,0,63,63,87,1,TRING,C,old,z,./images/TRING.png,,,,,,,,,,,,,,,,,,,,,,,,,,,,,,,,,,,
,,,,,,,,,,,,,,,,,6107274fc7421bcda19b63fc,22,2022-02-12_16h52.24.133,lexical_decision_task_DD,2021.2.3,Win32,59.89099838,,,,,,,,,,,0.4713,1,,,,,,,,,,,,,,m,1,0.4713,,,,,,,,0.062962991,-0.413888916,0,0,0,,0,64,64,14,1,PICKLE,LB,old,m,./images/PICKLELB.png,,,,,,,,,,,,,,,,,,,,,,,,,,,,,,,,,,,
,,,,,,,,,,,,,,,,,6107274fc7421bcda19b63fc,22,2022-02-12_16h52.24.133,lexical_decision_task_DD,2021.2.3,Win32,59.89099838,,,,,,,,,,,1.0629,1,,,,,,,,,,,,,,m,1,1.0629,,,,,,,,0.062962991,-0.413888916,0,0,0,,0,65,65,73,1,SNACK,HB,old,m,./images/SNACKHB.png,,,,,,,,,,,,,,,,,,,,,,,,,,,,,,,,,,,
,,,,,,,,,,,,,,,,,6107274fc7421bcda19b63fc,22,2022-02-12_16h52.24.133,lexical_decision_task_DD,2021.2.3,Win32,59.89099838,,,,,,,,,,,0.8235,1,,,,,,,,,,,,,,z,1,0.8235,,,,,,,,0.062962991,-0.413888916,0,0,0,,0,66,66,128,1,GRIFT,LB,old,z,./images/GRIFTLB.png,,,,,,,,,,,,,,,,,,,,,,,,,,,,,,,,,,,
,,,,,,,,,,,,,,,,,6107274fc7421bcda19b63fc,22,2022-02-12_16h52.24.133,lexical_decision_task_DD,2021.2.3,Win32,59.89099838,,,,,,,,,,,0.6431,1,,,,,,,,,,,,,,m,1,0.6431,,,,,,,,0.062962991,-0.413888916,0,0,0,,0,67,67,56,1,PACKET,LB,old,m,./images/PACKETLB.png,,,,,,,,,,,,,,,,,,,,,,,,,,,,,,,,,,,
,,,,,,,,,,,,,,,,,6107274fc7421bcda19b63fc,22,2022-02-12_16h52.24.133,lexical_decision_task_DD,2021.2.3,Win32,59.89099838,,,,,,,,,,,0.8136,1,,,,,,,,,,,,,,z,1,0.8136,,,,,,,,0.062962991,-0.413888916,0,0,0,,0,68,68,94,1,BLANS,HB,old,z,./images/BLANSHB.png,,,,,,,,,,,,,,,,,,,,,,,,,,,,,,,,,,,
,,,,,,,,,,,,,,,,,6107274fc7421bcda19b63fc,22,2022-02-12_16h52.24.133,lexical_decision_task_DD,2021.2.3,Win32,59.89099838,,,,,,,,,,,0.6412,1,,,,,,,,,,,,,,z,1,0.6412,,,,,,,,0.062962991,-0.413888916,0,0,0,,0,69,69,101,1,GLEET,LB,old,z,./images/GLEETLB.png,,,,,,,,,,,,,,,,,,,,,,,,,,,,,,,,,,,
,,,,,,,,,,,,,,,,,6107274fc7421bcda19b63fc,22,2022-02-12_16h52.24.133,lexical_decision_task_DD,2021.2.3,Win32,59.89099838,,,,,,,,,,,0.4917,1,,,,,,,,,,,,,,m,1,0.4917,,,,,,,,0.062962991,-0.413888916,0,0,0,,0,70,70,41,1,STRING,LB,old,m,./images/STRINGLB.png,,,,,,,,,,,,,,,,,,,,,,,,,,,,,,,,,,,
,,,,,,,,,,,,,,,,,6107274fc7421bcda19b63fc,22,2022-02-12_16h52.24.133,lexical_decision_task_DD,2021.2.3,Win32,59.89099838,,,,,,,,,,,0.5612,1,,,,,,,,,,,,,,m,1,0.5612,,,,,,,,0.062962991,-0.413888916,0,0,0,,0,71,71,22,1,MELON,HB,old,m,./images/MELONHB.png,,,,,,,,,,,,,,,,,,,,,,,,,,,,,,,,,,,
,,,,,,,,,,,,,,,,,6107274fc7421bcda19b63fc,22,2022-02-12_16h52.24.133,lexical_decision_task_DD,2021.2.3,Win32,59.89099838,,,,,,,,,,,0.5749,1,,,,,,,,,,,,,,z,1,0.5749,,,,,,,,0.062962991,-0.413888916,0,0,0,,0,72,72,156,1,HIXES,C,old,z,./images/HIXES.png,,,,,,,,,,,,,,,,,,,,,,,,,,,,,,,,,,,
,,,,,,,,,,,,,,,,,6107274fc7421bcda19b63fc,22,2022-02-12_16h52.24.133,lexical_decision_task_DD,2021.2.3,Win32,59.89099838,,,,,,,,,,,0.7049,1,,,,,,,,,,,,,,z,1,0.7049,,,,,,,,0.062962991,-0.413888916,0,0,0,,0,73,73,143,1,MONGS,LB,old,z,./images/MONGSLB.png,,,,,,,,,,,,,,,,,,,,,,,,,,,,,,,,,,,
,,,,,,,,,,,,,,,,,6107274fc7421bcda19b63fc,22,2022-02-12_16h52.24.133,lexical_decision_task_DD,2021.2.3,Win32,59.89099838,,,,,,,,,,,0.4821,1,,,,,,,,,,,,,,m,1,0.4821,,,,,,,,0.062962991,-0.413888916,0,0,0,,0,74,74,30,1,STORM,C,old,m,./images/STORM.png,,,,,,,,,,,,,,,,,,,,,,,,,,,,,,,,,,,
,,,,,,,,,,,,,,,,,6107274fc7421bcda19b63fc,22,2022-02-12_16h52.24.133,lexical_decision_task_DD,2021.2.3,Win32,59.89099838,,,,,,,,,,,0.5383,1,,,,,,,,,,,,,,m,1,0.5383,,,,,,,,0.062962991,-0.413888916,0,0,0,,0,75,75,65,1,FARMER,LB,old,m,./images/FARMERLB.png,,,,,,,,,,,,,,,,,,,,,,,,,,,,,,,,,,,
,,,,,,,,,,,,,,,,,6107274fc7421bcda19b63fc,22,2022-02-12_16h52.24.133,lexical_decision_task_DD,2021.2.3,Win32,59.89099838,,,,,,,,,,,0.4628,1,,,,,,,,,,,,,,m,1,0.4628,,,,,,,,0.062962991,-0.413888916,0,0,0,,0,76,76,5,1,PASTA,LB,old,m,./images/PASTALB.png,,,,,,,,,,,,,,,,,,,,,,,,,,,,,,,,,,,
,,,,,,,,,,,,,,,,,6107274fc7421bcda19b63fc,22,2022-02-12_16h52.24.133,lexical_decision_task_DD,2021.2.3,Win32,59.89099838,,,,,,,,,,,0.5003,1,,,,,,,,,,,,,,m,1,0.5003,,,,,,,,0.062962991,-0.413888916,0,0,0,,0,77,77,8,1,TULIP,LB,old,m,./images/TULIPLB.png,,,,,,,,,,,,,,,,,,,,,,,,,,,,,,,,,,,
,,,,,,,,,,,,,,,,,6107274fc7421bcda19b63fc,22,2022-02-12_16h52.24.133,lexical_decision_task_DD,2021.2.3,Win32,59.89099838,,,,,,,,,,,0.5973,1,,,,,,,,,,,,,,z,1,0.5973,,,,,,,,0.062962991,-0.413888916,0,0,0,,0,78,78,152,1,FRAIN,LB,old,z,./images/FRAINLB.png,,,,,,,,,,,,,,,,,,,,,,,,,,,,,,,,,,,
,,,,,,,,,,,,,,,,,6107274fc7421bcda19b63fc,22,2022-02-12_16h52.24.133,lexical_decision_task_DD,2021.2.3,Win32,59.89099838,,,,,,,,,,,0.6639,1,,,,,,,,,,,,,,m,1,0.6639,,,,,,,,0.062962991,-0.413888916,0,0,0,,0,79,79,61,1,CANDLE,HB,old,m,./images/CANDLEHB.png,,,,,,,,,,,,,,,,,,,,,,,,,,,,,,,,,,,
,,,,,,,,,,,,,,,,,6107274fc7421bcda19b63fc,22,2022-02-12_16h52.24.133,lexical_decision_task_DD,2021.2.3,Win32,59.89099838,,,,,,,,,,,0.5671,1,,,,,,,,,,,,,,m,1,0.5671,,,,,,,,0.062962991,-0.413888916,0,0,0,,0,80,80,75,1,GRAIN,C,old,m,./images/GRAIN.png,,,,,,,,,,,,,,,,,,,,,,,,,,,,,,,,,,,
,,,,,,,,,,,,,,,,,6107274fc7421bcda19b63fc,22,2022-02-12_16h52.24.133,lexical_decision_task_DD,2021.2.3,Win32,59.89099838,,,,,,,,,,,0.5035,1,,,,,,,,,,,,,,z,1,0.5035,,,,,,,,0.062962991,-0.413888916,0,0,0,,0,81,81,102,1,DULLE,C,old,z,./images/DULLE.png,,,,,,,,,,,,,,,,,,,,,,,,,,,,,,,,,,,
,,,,,,,,,,,,,,,,,6107274fc7421bcda19b63fc,22,2022-02-12_16h52.24.133,lexical_decision_task_DD,2021.2.3,Win32,59.89099838,,,,,,,,,,,1.2572,1,,,,,,,,,,,,,,z,1,1.2572,,,,,,,,0.062962991,-0.413888916,0,0,0,,0,82,82,166,1,SHORY,HB,old,z,./images/SHORYHB.png,,,,,,,,,,,,,,,,,,,,,,,,,,,,,,,,,,,
,,,,,,,,,,,,,,,,,6107274fc7421bcda19b63fc,22,2022-02-12_16h52.24.133,lexical_decision_task_DD,2021.2.3,Win32,59.89099838,,,,,,,,,,,0.7126,1,,,,,,,,,,,,,,m,1,0.7126,,,,,,,,0.062962991,-0.413888916,0,0,0,space,0,83,83,67,1,SAILOR,HB,old,m,./images/SAILORHB.png,0.9889,,,,,,,,,,,,,,,,,,,,,,,,,,,,,,,,,,
,,,,,,,,,,,,,,,,,6107274fc7421bcda19b63fc,22,2022-02-12_16h52.24.133,lexical_decision_task_DD,2021.2.3,Win32,59.89099838,,,,,,,,,,,0.6306,1,,,,,,,,,,,,,,z,1,0.6306,,,,,,,,0.062962991,-0.413888916,0,0,0,,0,84,84,122,1,BLOOT,LB,old,z,./images/BLOOTLB.png,,,,,,,,,,,,,,,,,,,,,,,,,,,,,,,,,,,
,,,,,,,,,,,,,,,,,6107274fc7421bcda19b63fc,22,2022-02-12_16h52.24.133,lexical_decision_task_DD,2021.2.3,Win32,59.89099838,,,,,,,,,,,1.1303,1,,,,,,,,,,,,,,m,1,1.1303,,,,,,,,0.062962991,-0.413888916,0,0,0,,0,85,85,83,1,JUNGLE,LB,old,m,./images/JUNGLELB.png,,,,,,,,,,,,,,,,,,,,,,,,,,,,,,,,,,,
,,,,,,,,,,,,,,,,,6107274fc7421bcda19b63fc,22,2022-02-12_16h52.24.133,lexical_decision_task_DD,2021.2.3,Win32,59.89099838,,,,,,,,,,,0.4509,0,,,,,,,,,,,,,,m,0,0.4509,,,,,,,,0.062962991,-0.413888916,0,0,0,,0,86,86,164,1,SGREW,LB,old,z,./images/SGREWLB.png,,,,,,,,,,,,,,,,,,,,,,,,,,,,,,,,,,,
,,,,,,,,,,,,,,,,,6107274fc7421bcda19b63fc,22,2022-02-12_16h52.24.133,lexical_decision_task_DD,2021.2.3,Win32,59.89099838,,,,,,,,,,,0.6545,1,,,,,,,,,,,,,,m,1,0.6545,,,,,,,,0.062962991,-0.413888916,0,0,0,,0,87,87,68,1,TORCH,LB,old,m,./images/TORCHLB.png,,,,,,,,,,,,,,,,,,,,,,,,,,,,,,,,,,,
,,,,,,,,,,,,,,,,,6107274fc7421bcda19b63fc,22,2022-02-12_16h52.24.133,lexical_decision_task_DD,2021.2.3,Win32,59.89099838,,,,,,,,,,,0.5971,1,,,,,,,,,,,,,,m,1,0.5971,,,,,,,,0.062962991,-0.413888916,0,0,0,,0,88,88,29,1,CRUMB,LB,old,m,./images/CRUMBLB.png,,,,,,,,,,,,,,,,,,,,,,,,,,,,,,,,,,,
,,,,,,,,,,,,,,,,,6107274fc7421bcda19b63fc,22,2022-02-12_16h52.24.133,lexical_decision_task_DD,2021.2.3,Win32,59.89099838,,,,,,,,,,,0.7046,1,,,,,,,,,,,,,,z,1,0.7046,,,,,,,,0.062962991,-0.413888916,0,0,0,,0,89,89,145,1,LAMEL,HB,old,z,./images/LAMELHB.png,,,,,,,,,,,,,,,,,,,,,,,,,,,,,,,,,,,
,,,,,,,,,,,,,,,,,6107274fc7421bcda19b63fc,22,2022-02-12_16h52.24.133,lexical_decision_task_DD,2021.2.3,Win32,59.89099838,,,,,,,,,,,0.7718,0,,,,,,,,,,,,,,m,0,0.7718,,,,,,,,0.062962991,-0.413888916,0,0,0,,0,90,90,140,1,DOVET,LB,old,z,./images/DOVETLB.png,,,,,,,,,,,,,,,,,,,,,,,,,,,,,,,,,,,
,,,,,,,,,,,,,,,,,6107274fc7421bcda19b63fc,22,2022-02-12_16h52.24.133,lexical_decision_task_DD,2021.2.3,Win32,59.89099838,,,,,,,,,,,1.9052,1,,,,,,,,,,,,,,z,1,1.9052,,,,,,,,0.062962991,-0.413888916,0,0,0,,0,91,91,104,1,GITTY,LB,old,z,./images/GITTYLB.png,,,,,,,,,,,,,,,,,,,,,,,,,,,,,,,,,,,
,,,,,,,,,,,,,,,,,6107274fc7421bcda19b63fc,22,2022-02-12_16h52.24.133,lexical_decision_task_DD,2021.2.3,Win32,59.89099838,,,,,,,,,,,0.6199,1,,,,,,,,,,,,,,z,1,0.6199,,,,,,,,0.062962991,-0.413888916,0,0,0,,0,92,92,95,1,HANTY,LB,old,z,./images/HANTYLB.png,,,,,,,,,,,,,,,,,,,,,,,,,,,,,,,,,,,
,,,,,,,,,,,,,,,,,6107274fc7421bcda19b63fc,22,2022-02-12_16h52.24.133,lexical_decision_task_DD,2021.2.3,Win32,59.89099838,,,,,,,,,,,0.5899,1,,,,,,,,,,,,,,z,1,0.5899,,,,,,,,0.062962991,-0.413888916,0,0,0,,0,93,93,138,1,PLICE,C,old,z,./images/PLICE.png,,,,,,,,,,,,,,,,,,,,,,,,,,,,,,,,,,,
,,,,,,,,,,,,,,,,,6107274fc7421bcda19b63fc,22,2022-02-12_16h52.24.133,lexical_decision_task_DD,2021.2.3,Win32,59.89099838,,,,,,,,,,,0.6049,1,,,,,,,,,,,,,,z,1,0.6049,,,,,,,,0.062962991,-0.413888916,0,0,0,,0,94,94,161,1,BLAPS,LB,old,z,./images/BLAPSLB.png,,,,,,,,,,,,,,,,,,,,,,,,,,,,,,,,,,,
,,,,,,,,,,,,,,,,,6107274fc7421bcda19b63fc,22,2022-02-12_16h52.24.133,lexical_decision_task_DD,2021.2.3,Win32,59.89099838,,,,,,,,,,,0.5639,1,,,,,,,,,,,,,,z,1,0.5639,,,,,,,,0.062962991,-0.413888916,0,0,0,,0,95,95,84,1,HAXES,C,old,z,./images/HAXES.png,,,,,,,,,,,,,,,,,,,,,,,,,,,,,,,,,,,
,,,,,,,,,,,,,,,,,6107274fc7421bcda19b63fc,22,2022-02-12_16h52.24.133,lexical_decision_task_DD,2021.2.3,Win32,59.89099838,,,,,,,,,,,0.522,1,,,,,,,,,,,,,,z,1,0.522,,,,,,,,0.062962991,-0.413888916,0,0,0,,0,96,96,116,1,BALGY,LB,old,z,./images/BALGYLB.png,,,,,,,,,,,,,,,,,,,,,,,,,,,,,,,,,,,
,,,,,,,,,,,,,,,,,6107274fc7421bcda19b63fc,22,2022-02-12_16h52.24.133,lexical_decision_task_DD,2021.2.3,Win32,59.89099838,,,,,,,,,,,0.6371,1,,,,,,,,,,,,,,m,1,0.6371,,,,,,,,0.062962991,-0.413888916,0,0,0,,0,97,97,55,1,MUFFIN,HB,old,m,./images/MUFFINHB.png,,,,,,,,,,,,,,,,,,,,,,,,,,,,,,,,,,,
,,,,,,,,,,,,,,,,,6107274fc7421bcda19b63fc,22,2022-02-12_16h52.24.133,lexical_decision_task_DD,2021.2.3,Win32,59.89099838,,,,,,,,,,,0.5611,1,,,,,,,,,,,,,,z,1,0.5611,,,,,,,,0.062962991,-0.413888916,0,0,0,,0,98,98,131,1,NACES,LB,old,z,./images/NACESLB.png,,,,,,,,,,,,,,,,,,,,,,,,,,,,,,,,,,,
,,,,,,,,,,,,,,,,,6107274fc7421bcda19b63fc,22,2022-02-12_16h52.24.133,lexical_decision_task_DD,2021.2.3,Win32,59.89099838,,,,,,,,,,,0.7352,0,,,,,,,,,,,,,,m,0,0.7352,,,,,,,,0.062962991,-0.413888916,0,0,0,,0,99,99,123,1,SEDGE,C,old,z,./images/SEDGE.png,,,,,,,,,,,,,,,,,,,,,,,,,,,,,,,,,,,
,,,,,,,,,,,,,,,,,6107274fc7421bcda19b63fc,22,2022-02-12_16h52.24.133,lexical_decision_task_DD,2021.2.3,Win32,59.89099838,,,,,,,,,,,0.5586,1,,,,,,,,,,,,,,m,1,0.5586,,,,,,,,0.062962991,-0.413888916,0,0,0,,0,100,100,9,1,RHINO,C,old,m,./images/RHINO.png,,,,,,,,,,,,,,,,,,,,,,,,,,,,,,,,,,,
,,,,,,,,,,,,,,,,,6107274fc7421bcda19b63fc,22,2022-02-12_16h52.24.133,lexical_decision_task_DD,2021.2.3,Win32,59.89099838,,,,,,,,,,,0.8893,1,,,,,,,,,,,,,,z,1,0.8893,,,,,,,,0.062962991,-0.413888916,0,0,0,,0,101,101,88,1,GLUSH,HB,old,z,./images/GLUSHHB.png,,,,,,,,,,,,,,,,,,,,,,,,,,,,,,,,,,,
,,,,,,,,,,,,,,,,,6107274fc7421bcda19b63fc,22,2022-02-12_16h52.24.133,lexical_decision_task_DD,2021.2.3,Win32,59.89099838,,,,,,,,,,,0.7879,1,,,,,,,,,,,,,,m,1,0.7879,,,,,,,,0.062962991,-0.413888916,0,0,0,,0,102,102,82,1,SUNSET,HB,old,m,./images/SUNSETHB.png,,,,,,,,,,,,,,,,,,,,,,,,,,,,,,,,,,,
,,,,,,,,,,,,,,,,,6107274fc7421bcda19b63fc,22,2022-02-12_16h52.24.133,lexical_decision_task_DD,2021.2.3,Win32,59.89099838,,,,,,,,,,,0.5444,1,,,,,,,,,,,,,,m,1,0.5444,,,,,,,,0.062962991,-0.413888916,0,0,0,,0,103,103,34,1,CANYON,HB,old,m,./images/CANYONHB.png,,,,,,,,,,,,,,,,,,,,,,,,,,,,,,,,,,,
,,,,,,,,,,,,,,,,,6107274fc7421bcda19b63fc,22,2022-02-12_16h52.24.133,lexical_decision_task_DD,2021.2.3,Win32,59.89099838,,,,,,,,,,,0.7892,1,,,,,,,,,,,,,,z,1,0.7892,,,,,,,,0.062962991,-0.413888916,0,0,0,,0,104,104,157,1,INLER,HB,old,z,./images/INLERHB.png,,,,,,,,,,,,,,,,,,,,,,,,,,,,,,,,,,,
,,,,,,,,,,,,,,,,,6107274fc7421bcda19b63fc,22,2022-02-12_16h52.24.133,lexical_decision_task_DD,2021.2.3,Win32,59.89099838,,,,,,,,,,,0.5744,1,,,,,,,,,,,,,,z,1,0.5744,,,,,,,,0.062962991,-0.413888916,0,0,0,,0,105,105,135,1,JOODY,C,old,z,./images/JOODY.png,,,,,,,,,,,,,,,,,,,,,,,,,,,,,,,,,,,
,,,,,,,,,,,,,,,,,6107274fc7421bcda19b63fc,22,2022-02-12_16h52.24.133,lexical_decision_task_DD,2021.2.3,Win32,59.89099838,,,,,,,,,,,0.5636,1,,,,,,,,,,,,,,m,1,0.5636,,,,,,,,0.062962991,-0.413888916,0,0,0,,0,106,106,48,1,SPORT,C,old,m,./images/SPORT.png,,,,,,,,,,,,,,,,,,,,,,,,,,,,,,,,,,,
,,,,,,,,,,,,,,,,,6107274fc7421bcda19b63fc,22,2022-02-12_16h52.24.133,lexical_decision_task_DD,2021.2.3,Win32,59.89099838,,,,,,,,,,,0.5484,1,,,,,,,,,,,,,,m,1,0.5484,,,,,,,,0.062962991,-0.413888916,0,0,0,,0,107,107,12,1,SHORE,C,old,m,./images/SHORE.png,,,,,,,,,,,,,,,,,,,,,,,,,,,,,,,,,,,
,,,,,,,,,,,,,,,,,6107274fc7421bcda19b63fc,22,2022-02-12_16h52.24.133,lexical_decision_task_DD,2021.2.3,Win32,59.89099838,,,,,,,,,,,0.5013,1,,,,,,,,,,,,,,z,1,0.5013,,,,,,,,0.062962991,-0.413888916,0,0,0,,0,108,108,126,1,GUELS,C,old,z,./images/GUELS.png,,,,,,,,,,,,,,,,,,,,,,,,,,,,,,,,,,,
,,,,,,,,,,,,,,,,,6107274fc7421bcda19b63fc,22,2022-02-12_16h52.24.133,lexical_decision_task_DD,2021.2.3,Win32,59.89099838,,,,,,,,,,,0.605,1,,,,,,,,,,,,,,m,1,0.605,,,,,,,,0.062962991,-0.413888916,0,0,0,,0,109,109,70,1,URINE,HB,old,m,./images/URINEHB.png,,,,,,,,,,,,,,,,,,,,,,,,,,,,,,,,,,,
,,,,,,,,,,,,,,,,,6107274fc7421bcda19b63fc,22,2022-02-12_16h52.24.133,lexical_decision_task_DD,2021.2.3,Win32,59.89099838,,,,,,,,,,,0.5687,1,,,,,,,,,,,,,,z,1,0.5687,,,,,,,,0.062962991,-0.413888916,0,0,0,,0,110,110,107,1,FASKS,LB,old,z,./images/FASKSLB.png,,,,,,,,,,,,,,,,,,,,,,,,,,,,,,,,,,,
,,,,,,,,,,,,,,,,,6107274fc7421bcda19b63fc,22,2022-02-12_16h52.24.133,lexical_decision_task_DD,2021.2.3,Win32,59.89099838,,,,,,,,,,,0.6775,1,,,,,,,,,,,,,,m,1,0.6775,,,,,,,,0.062962991,-0.413888916,0,0,0,,0,111,111,54,1,TRIPOD,C,old,m,./images/TRIPOD.png,,,,,,,,,,,,,,,,,,,,,,,,,,,,,,,,,,,
,,,,,,,,,,,,,,,,,6107274fc7421bcda19b63fc,22,2022-02-12_16h52.24.133,lexical_decision_task_DD,2021.2.3,Win32,59.89099838,,,,,,,,,,,0.5165,1,,,,,,,,,,,,,,m,1,0.5165,,,,,,,,0.062962991,-0.413888916,0,0,0,,0,112,112,18,1,JAGUAR,C,old,m,./images/JAGUAR.png,,,,,,,,,,,,,,,,,,,,,,,,,,,,,,,,,,,
,,,,,,,,,,,,,,,,,6107274fc7421bcda19b63fc,22,2022-02-12_16h52.24.133,lexical_decision_task_DD,2021.2.3,Win32,59.89099838,,,,,,,,,,,0.5473,1,,,,,,,,,,,,,,z,1,0.5473,,,,,,,,0.062962991,-0.413888916,0,0,0,,0,113,113,119,1,PAFER,LB,old,z,./images/PAFERLB.png,,,,,,,,,,,,,,,,,,,,,,,,,,,,,,,,,,,
,,,,,,,,,,,,,,,,,6107274fc7421bcda19b63fc,22,2022-02-12_16h52.24.133,lexical_decision_task_DD,2021.2.3,Win32,59.89099838,,,,,,,,,,,0.7391,1,,,,,,,,,,,,,,z,1,0.7391,,,,,,,,0.062962991,-0.413888916,0,0,0,,0,114,114,103,1,FLORT,HB,old,z,./images/FLORTHB.png,,,,,,,,,,,,,,,,,,,,,,,,,,,,,,,,,,,
,,,,,,,,,,,,,,,,,6107274fc7421bcda19b63fc,22,2022-02-12_16h52.24.133,lexical_decision_task_DD,2021.2.3,Win32,59.89099838,,,,,,,,,,,0.6897,1,,,,,,,,,,,,,,z,1,0.6897,,,,,,,,0.062962991,-0.413888916,0,0,0,,0,115,115,110,1,CRUNK,LB,old,z,./images/CRUNKLB.png,,,,,,,,,,,,,,,,,,,,,,,,,,,,,,,,,,,
,,,,,,,,,,,,,,,,,6107274fc7421bcda19b63fc,22,2022-02-12_16h52.24.133,lexical_decision_task_DD,2021.2.3,Win32,59.89099838,,,,,,,,,,,0.6548,1,,,,,,,,,,,,,,m,1,0.6548,,,,,,,,0.062962991,-0.413888916,0,0,0,,0,116,116,80,1,WEASEL,LB,old,m,./images/WEASELLB.png,,,,,,,,,,,,,,,,,,,,,,,,,,,,,,,,,,,
,,,,,,,,,,,,,,,,,6107274fc7421bcda19b63fc,22,2022-02-12_16h52.24.133,lexical_decision_task_DD,2021.2.3,Win32,59.89099838,,,,,,,,,,,0.5372,1,,,,,,,,,,,,,,m,1,0.5372,,,,,,,,0.062962991,-0.413888916,0,0,0,,0,117,117,50,1,MALLET,LB,old,m,./images/MALLETLB.png,,,,,,,,,,,,,,,,,,,,,,,,,,,,,,,,,,,
,,,,,,,,,,,,,,,,,6107274fc7421bcda19b63fc,22,2022-02-12_16h52.24.133,lexical_decision_task_DD,2021.2.3,Win32,59.89099838,,,,,,,,,,,0.6238,1,,,,,,,,,,,,,,z,1,0.6238,,,,,,,,0.062962991,-0.413888916,0,0,0,,0,118,118,97,1,CHIDS,HB,old,z,./images/CHIDSHB.png,,,,,,,,,,,,,,,,,,,,,,,,,,,,,,,,,,,
,,,,,,,,,,,,,,,,,6107274fc7421bcda19b63fc,22,2022-02-12_16h52.24.133,lexical_decision_task_DD,2021.2.3,Win32,59.89099838,,,,,,,,,,,0.4646,1,,,,,,,,,,,,,,m,1,0.4646,,,,,,,,0.062962991,-0.413888916,0,0,0,,0,119,119,60,1,TWINS,C,old,m,./images/TWINS.png,,,,,,,,,,,,,,,,,,,,,,,,,,,,,,,,,,,
,,,,,,,,,,,,,,,,,6107274fc7421bcda19b63fc,22,2022-02-12_16h52.24.133,lexical_decision_task_DD,2021.2.3,Win32,59.89099838,,,,,,,,,,,0.6093,1,,,,,,,,,,,,,,m,1,0.6093,,,,,,,,0.062962991,-0.413888916,0,0,0,,0,120,120,35,1,PEACH,LB,old,m,./images/PEACHLB.png,,,,,,,,,,,,,,,,,,,,,,,,,,,,,,,,,,,
,,,,,,,,,,,,,,,,,6107274fc7421bcda19b63fc,22,2022-02-12_16h52.24.133,lexical_decision_task_DD,2021.2.3,Win32,59.89099838,,,,,,,,,,,0.8092,1,,,,,,,,,,,,,,z,1,0.8092,,,,,,,,0.062962991,-0.413888916,0,0,0,,0,121,121,100,1,DRIBS,HB,old,z,./images/DRIBSHB.png,,,,,,,,,,,,,,,,,,,,,,,,,,,,,,,,,,,
,,,,,,,,,,,,,,,,,6107274fc7421bcda19b63fc,22,2022-02-12_16h52.24.133,lexical_decision_task_DD,2021.2.3,Win32,59.89099838,,,,,,,,,,,0.7463,1,,,,,,,,,,,,,,m,1,0.7463,,,,,,,,0.062962991,-0.413888916,0,0,0,,0,122,122,64,1,JELLY,HB,old,m,./images/JELLYHB.png,,,,,,,,,,,,,,,,,,,,,,,,,,,,,,,,,,,
,,,,,,,,,,,,,,,,,6107274fc7421bcda19b63fc,22,2022-02-12_16h52.24.133,lexical_decision_task_DD,2021.2.3,Win32,59.89099838,,,,,,,,,,,0.5395,1,,,,,,,,,,,,,,m,1,0.5395,,,,,,,,0.062962991,-0.413888916,0,0,0,,0,123,123,6,1,SQUARE,C,old,m,./images/SQUARE.png,,,,,,,,,,,,,,,,,,,,,,,,,,,,,,,,,,,
,,,,,,,,,,,,,,,,,6107274fc7421bcda19b63fc,22,2022-02-12_16h52.24.133,lexical_decision_task_DD,2021.2.3,Win32,59.89099838,,,,,,,,,,,0.6567,1,,,,,,,,,,,,,,z,1,0.6567,,,,,,,,0.062962991,-0.413888916,0,0,0,,0,124,124,158,1,EGECT,LB,old,z,./images/EGECTLB.png,,,,,,,,,,,,,,,,,,,,,,,,,,,,,,,,,,,
,,,,,,,,,,,,,,,,,6107274fc7421bcda19b63fc,22,2022-02-12_16h52.24.133,lexical_decision_task_DD,2021.2.3,Win32,59.89099838,,,,,,,,,,,0.7387,1,,,,,,,,,,,,,,z,1,0.7387,,,,,,,,0.062962991,-0.413888916,0,0,0,space,0,125,125,98,1,BAMPS,LB,old,z,./images/BAMPSLB.png,0.8993,,,,,,,,,,,,,,,,,,,,,,,,,,,,,,,,,,
,,,,,,,,,,,,,,,,,6107274fc7421bcda19b63fc,22,2022-02-12_16h52.24.133,lexical_decision_task_DD,2021.2.3,Win32,59.89099838,,,,,,,,,,,0.672,1,,,,,,,,,,,,,,z,1,0.672,,,,,,,,0.062962991,-0.413888916,0,0,0,,0,126,126,121,1,CEERS,HB,old,z,./images/CEERSHB.png,,,,,,,,,,,,,,,,,,,,,,,,,,,,,,,,,,,
,,,,,,,,,,,,,,,,,6107274fc7421bcda19b63fc,22,2022-02-12_16h52.24.133,lexical_decision_task_DD,2021.2.3,Win32,59.89099838,,,,,,,,,,,0.522,1,,,,,,,,,,,,,,z,1,0.522,,,,,,,,0.062962991,-0.413888916,0,0,0,,0,127,127,167,1,ZONET,LB,old,z,./images/ZONETLB.png,,,,,,,,,,,,,,,,,,,,,,,,,,,,,,,,,,,
,,,,,,,,,,,,,,,,,6107274fc7421bcda19b63fc,22,2022-02-12_16h52.24.133,lexical_decision_task_DD,2021.2.3,Win32,59.89099838,,,,,,,,,,,0.556,1,,,,,,,,,,,,,,z,1,0.556,,,,,,,,0.062962991,-0.413888916,0,0,0,,0,128,128,160,1,VEETS,HB,old,z,./images/VEETSHB.png,,,,,,,,,,,,,,,,,,,,,,,,,,,,,,,,,,,
,,,,,,,,,,,,,,,,,6107274fc7421bcda19b63fc,22,2022-02-12_16h52.24.133,lexical_decision_task_DD,2021.2.3,Win32,59.89099838,,,,,,,,,,,0.5421,1,,,,,,,,,,,,,,z,1,0.5421,,,,,,,,0.062962991,-0.413888916,0,0,0,,0,129,129,86,1,AIFED,LB,old,z,./images/AIFEDLB.png,,,,,,,,,,,,,,,,,,,,,,,,,,,,,,,,,,,
,,,,,,,,,,,,,,,,,6107274fc7421bcda19b63fc,22,2022-02-12_16h52.24.133,lexical_decision_task_DD,2021.2.3,Win32,59.89099838,,,,,,,,,,,0.6086,1,,,,,,,,,,,,,,m,1,0.6086,,,,,,,,0.062962991,-0.413888916,0,0,0,,0,130,130,28,1,FALCON,HB,old,m,./images/FALCONHB.png,,,,,,,,,,,,,,,,,,,,,,,,,,,,,,,,,,,
,,,,,,,,,,,,,,,,,6107274fc7421bcda19b63fc,22,2022-02-12_16h52.24.133,lexical_decision_task_DD,2021.2.3,Win32,59.89099838,,,,,,,,,,,0.4282,1,,,,,,,,,,,,,,m,1,0.4282,,,,,,,,0.062962991,-0.413888916,0,0,0,,0,131,131,66,1,SWEAT,C,old,m,./images/SWEAT.png,,,,,,,,,,,,,,,,,,,,,,,,,,,,,,,,,,,
,,,,,,,,,,,,,,,,,6107274fc7421bcda19b63fc,22,2022-02-12_16h52.24.133,lexical_decision_task_DD,2021.2.3,Win32,59.89099838,,,,,,,,,,,0.4959,1,,,,,,,,,,,,,,z,1,0.4959,,,,,,,,0.062962991,-0.413888916,0,0,0,,0,132,132,144,1,NAIRY,C,old,z,./images/NAIRY.png,,,,,,,,,,,,,,,,,,,,,,,,,,,,,,,,,,,
,,,,,,,,,,,,,,,,,6107274fc7421bcda19b63fc,22,2022-02-12_16h52.24.133,lexical_decision_task_DD,2021.2.3,Win32,59.89099838,,,,,,,,,,,0.611,1,,,,,,,,,,,,,,z,1,0.611,,,,,,,,0.062962991,-0.413888916,0,0,0,,0,133,133,92,1,PAIMS,LB,old,z,./images/PAIMSLB.png,,,,,,,,,,,,,,,,,,,,,,,,,,,,,,,,,,,
,,,,,,,,,,,,,,,,,6107274fc7421bcda19b63fc,22,2022-02-12_16h52.24.133,lexical_decision_task_DD,2021.2.3,Win32,59.89099838,,,,,,,,,,,0.528,1,,,,,,,,,,,,,,m,1,0.528,,,,,,,,0.062962991,-0.413888916,0,0,0,,0,134,134,2,1,BEARD,LB,old,m,./images/BEARDLB.png,,,,,,,,,,,,,,,,,,,,,,,,,,,,,,,,,,,
,,,,,,,,,,,,,,,,,6107274fc7421bcda19b63fc,22,2022-02-12_16h52.24.133,lexical_decision_task_DD,2021.2.3,Win32,59.89099838,,,,,,,,,,,0.5734,1,,,,,,,,,,,,,,z,1,0.5734,,,,,,,,0.062962991,-0.413888916,0,0,0,,0,135,135,124,1,TUNCH,HB,old,z,./images/TUNCHHB.png,,,,,,,,,,,,,,,,,,,,,,,,,,,,,,,,,,,
,,,,,,,,,,,,,,,,,6107274fc7421bcda19b63fc,22,2022-02-12_16h52.24.133,lexical_decision_task_DD,2021.2.3,Win32,59.89099838,,,,,,,,,,,0.7617,1,,,,,,,,,,,,,,z,1,0.7617,,,,,,,,0.062962991,-0.413888916,0,0,0,,0,136,136,115,1,MAWNS,HB,old,z,./images/MAWNSHB.png,,,,,,,,,,,,,,,,,,,,,,,,,,,,,,,,,,,
,,,,,,,,,,,,,,,,,6107274fc7421bcda19b63fc,22,2022-02-12_16h52.24.133,lexical_decision_task_DD,2021.2.3,Win32,59.89099838,,,,,,,,,,,0.896,1,,,,,,,,,,,,,,z,1,0.896,,,,,,,,0.062962991,-0.413888916,0,0,0,,0,137,137,109,1,BURGE,HB,old,z,./images/BURGEHB.png,,,,,,,,,,,,,,,,,,,,,,,,,,,,,,,,,,,
,,,,,,,,,,,,,,,,,6107274fc7421bcda19b63fc,22,2022-02-12_16h52.24.133,lexical_decision_task_DD,2021.2.3,Win32,59.89099838,,,,,,,,,,,0.66,1,,,,,,,,,,,,,,z,1,0.66,,,,,,,,0.062962991,-0.413888916,0,0,0,,0,138,138,99,1,BACKY,C,old,z,./images/BACKY.png,,,,,,,,,,,,,,,,,,,,,,,,,,,,,,,,,,,
,,,,,,,,,,,,,,,,,6107274fc7421bcda19b63fc,22,2022-02-12_16h52.24.133,lexical_decision_task_DD,2021.2.3,Win32,59.89099838,,,,,,,,,,,0.6317,1,,,,,,,,,,,,,,z,1,0.6317,,,,,,,,0.062962991,-0.413888916,0,0,0,,0,139,139,141,1,PLEET,C,old,z,./images/PLEET.png,,,,,,,,,,,,,,,,,,,,,,,,,,,,,,,,,,,
,,,,,,,,,,,,,,,,,6107274fc7421bcda19b63fc,22,2022-02-12_16h52.24.133,lexical_decision_task_DD,2021.2.3,Win32,59.89099838,,,,,,,,,,,0.6129,1,,,,,,,,,,,,,,m,1,0.6129,,,,,,,,0.062962991,-0.413888916,0,0,0,,0,140,140,51,1,ONION,C,old,m,./images/ONION.png,,,,,,,,,,,,,,,,,,,,,,,,,,,,,,,,,,,
,,,,,,,,,,,,,,,,,6107274fc7421bcda19b63fc,22,2022-02-12_16h52.24.133,lexical_decision_task_DD,2021.2.3,Win32,59.89099838,,,,,,,,,,,0.5797,1,,,,,,,,,,,,,,z,1,0.5797,,,,,,,,0.062962991,-0.413888916,0,0,0,,0,141,141,108,1,GRUET,C,old,z,./images/GRUET.png,,,,,,,,,,,,,,,,,,,,,,,,,,,,,,,,,,,
,,,,,,,,,,,,,,,,,6107274fc7421bcda19b63fc,22,2022-02-12_16h52.24.133,lexical_decision_task_DD,2021.2.3,Win32,59.89099838,,,,,,,,,,,0.6081,1,,,,,,,,,,,,,,z,1,0.6081,,,,,,,,0.062962991,-0.413888916,0,0,0,,0,142,142,93,1,SMONE,C,old,z,./images/SMONE.png,,,,,,,,,,,,,,,,,,,,,,,,,,,,,,,,,,,
,,,,,,,,,,,,,,,,,6107274fc7421bcda19b63fc,22,2022-02-12_16h52.24.133,lexical_decision_task_DD,2021.2.3,Win32,59.89099838,,,,,,,,,,,0.6055,1,,,,,,,,,,,,,,m,1,0.6055,,,,,,,,0.062962991,-0.413888916,0,0,0,,0,143,143,1,1,PLANK,HB,old,m,./images/PLANKHB.png,,,,,,,,,,,,,,,,,,,,,,,,,,,,,,,,,,,
,,,,,,,,,,,,,,,,,6107274fc7421bcda19b63fc,22,2022-02-12_16h52.24.133,lexical_decision_task_DD,2021.2.3,Win32,59.89099838,,,,,,,,,,,0.5909,1,,,,,,,,,,,,,,m,1,0.5909,,,,,,,,0.062962991,-0.413888916,0,0,0,,0,144,144,39,1,SHELF,C,old,m,./images/SHELF.png,,,,,,,,,,,,,,,,,,,,,,,,,,,,,,,,,,,
,,,,,,,,,,,,,,,,,6107274fc7421bcda19b63fc,22,2022-02-12_16h52.24.133,lexical_decision_task_DD,2021.2.3,Win32,59.89099838,,,,,,,,,,,0.686,1,,,,,,,,,,,,,,z,1,0.686,,,,,,,,0.062962991,-0.413888916,0,0,0,,0,145,145,142,1,PLASK,HB,old,z,./images/PLASKHB.png,,,,,,,,,,,,,,,,,,,,,,,,,,,,,,,,,,,
,,,,,,,,,,,,,,,,,6107274fc7421bcda19b63fc,22,2022-02-12_16h52.24.133,lexical_decision_task_DD,2021.2.3,Win32,59.89099838,,,,,,,,,,,1.3411,1,,,,,,,,,,,,,,z,1,1.3411,,,,,,,,0.062962991,-0.413888916,0,0,0,,0,146,146,133,1,POWDY,HB,old,z,./images/POWDYHB.png,,,,,,,,,,,,,,,,,,,,,,,,,,,,,,,,,,,
,,,,,,,,,,,,,,,,,6107274fc7421bcda19b63fc,22,2022-02-12_16h52.24.133,lexical_decision_task_DD,2021.2.3,Win32,59.89099838,,,,,,,,,,,1.2631,1,,,,,,,,,,,,,,z,1,1.2631,,,,,,,,0.062962991,-0.413888916,0,0,0,,0,147,147,163,1,GAMBA,HB,old,z,./images/GAMBAHB.png,,,,,,,,,,,,,,,,,,,,,,,,,,,,,,,,,,,
,,,,,,,,,,,,,,,,,6107274fc7421bcda19b63fc,22,2022-02-12_16h52.24.133,lexical_decision_task_DD,2021.2.3,Win32,59.89099838,,,,,,,,,,,0.5477,1,,,,,,,,,,,,,,m,1,0.5477,,,,,,,,0.062962991,-0.413888916,0,0,0,,0,148,148,81,1,POODLE,C,old,m,./images/POODLE.png,,,,,,,,,,,,,,,,,,,,,,,,,,,,,,,,,,,
,,,,,,,,,,,,,,,,,6107274fc7421bcda19b63fc,22,2022-02-12_16h52.24.133,lexical_decision_task_DD,2021.2.3,Win32,59.89099838,,,,,,,,,,,0.529,1,,,,,,,,,,,,,,m,1,0.529,,,,,,,,0.062962991,-0.413888916,0,0,0,,0,149,149,36,1,THROAT,C,old,m,./images/THROAT.png,,,,,,,,,,,,,,,,,,,,,,,,,,,,,,,,,,,
,,,,,,,,,,,,,,,,,6107274fc7421bcda19b63fc,22,2022-02-12_16h52.24.133,lexical_decision_task_DD,2021.2.3,Win32,59.89099838,,,,,,,,,,,0.556,1,,,,,,,,,,,,,,z,1,0.556,,,,,,,,0.062962991,-0.413888916,0,0,0,,0,150,150,113,1,LINEW,LB,old,z,./images/LINEWLB.png,,,,,,,,,,,,,,,,,,,,,,,,,,,,,,,,,,,
,,,,,,,,,,,,,,,,,6107274fc7421bcda19b63fc,22,2022-02-12_16h52.24.133,lexical_decision_task_DD,2021.2.3,Win32,59.89099838,,,,,,,,,,,0.8288,1,,,,,,,,,,,,,,m,1,0.8288,,,,,,,,0.062962991,-0.413888916,0,0,0,,0,151,151,33,1,MAGGOT,C,old,m,./images/MAGGOT.png,,,,,,,,,,,,,,,,,,,,,,,,,,,,,,,,,,,
,,,,,,,,,,,,,,,,,6107274fc7421bcda19b63fc,22,2022-02-12_16h52.24.133,lexical_decision_task_DD,2021.2.3,Win32,59.89099838,,,,,,,,,,,0.8888,1,,,,,,,,,,,,,,m,1,0.8888,,,,,,,,0.062962991,-0.413888916,0,0,0,,0,152,152,76,1,INFANT,HB,old,m,./images/INFANTHB.png,,,,,,,,,,,,,,,,,,,,,,,,,,,,,,,,,,,
,,,,,,,,,,,,,,,,,6107274fc7421bcda19b63fc,22,2022-02-12_16h52.24.133,lexical_decision_task_DD,2021.2.3,Win32,59.89099838,,,,,,,,,,,0.4961,1,,,,,,,,,,,,,,m,1,0.4961,,,,,,,,0.062962991,-0.413888916,0,0,0,,0,153,153,63,1,MIRROR,C,old,m,./images/MIRROR.png,,,,,,,,,,,,,,,,,,,,,,,,,,,,,,,,,,,
,,,,,,,,,,,,,,,,,6107274fc7421bcda19b63fc,22,2022-02-12_16h52.24.133,lexical_decision_task_DD,2021.2.3,Win32,59.89099838,,,,,,,,,,,0.5336,1,,,,,,,,,,,,,,z,1,0.5336,,,,,,,,0.062962991,-0.413888916,0,0,0,,0,154,154,114,1,RIKES,C,old,z,./images/RIKES.png,,,,,,,,,,,,,,,,,,,,,,,,,,,,,,,,,,,
,,,,,,,,,,,,,,,,,6107274fc7421bcda19b63fc,22,2022-02-12_16h52.24.133,lexical_decision_task_DD,2021.2.3,Win32,59.89099838,,,,,,,,,,,0.6873,1,,,,,,,,,,,,,,z,1,0.6873,,,,,,,,0.062962991,-0.413888916,0,0,0,,0,155,155,136,1,WERVE,HB,old,z,./images/WERVEHB.png,,,,,,,,,,,,,,,,,,,,,,,,,,,,,,,,,,,
,,,,,,,,,,,,,,,,,6107274fc7421bcda19b63fc,22,2022-02-12_16h52.24.133,lexical_decision_task_DD,2021.2.3,Win32,59.89099838,,,,,,,,,,,0.6244,1,,,,,,,,,,,,,,z,1,0.6244,,,,,,,,0.062962991,-0.413888916,0,0,0,,0,156,156,106,1,CLUMS,HB,old,z,./images/CLUMSHB.png,,,,,,,,,,,,,,,,,,,,,,,,,,,,,,,,,,,
,,,,,,,,,,,,,,,,,6107274fc7421bcda19b63fc,22,2022-02-12_16h52.24.133,lexical_decision_task_DD,2021.2.3,Win32,59.89099838,,,,,,,,,,,0.6387,1,,,,,,,,,,,,,,z,1,0.6387,,,,,,,,0.062962991,-0.413888916,0,0,0,,0,157,157,118,1,BAVEL,HB,old,z,./images/BAVELHB.png,,,,,,,,,,,,,,,,,,,,,,,,,,,,,,,,,,,
,,,,,,,,,,,,,,,,,6107274fc7421bcda19b63fc,22,2022-02-12_16h52.24.133,lexical_decision_task_DD,2021.2.3,Win32,59.89099838,,,,,,,,,,,1.0381,1,,,,,,,,,,,,,,m,1,1.0381,,,,,,,,0.062962991,-0.413888916,0,0,0,,0,158,158,43,1,MOSQUE,HB,old,m,./images/MOSQUEHB.png,,,,,,,,,,,,,,,,,,,,,,,,,,,,,,,,,,,
,,,,,,,,,,,,,,,,,6107274fc7421bcda19b63fc,22,2022-02-12_16h52.24.133,lexical_decision_task_DD,2021.2.3,Win32,59.89099838,,,,,,,,,,,0.4889,1,,,,,,,,,,,,,,m,1,0.4889,,,,,,,,0.062962991,-0.413888916,0,0,0,,0,159,159,44,1,LIZARD,LB,old,m,./images/LIZARDLB.png,,,,,,,,,,,,,,,,,,,,,,,,,,,,,,,,,,,
,,,,,,,,,,,,,,,,,6107274fc7421bcda19b63fc,22,2022-02-12_16h52.24.133,lexical_decision_task_DD,2021.2.3,Win32,59.89099838,,,,,,,,,,,0.6118,1,,,,,,,,,,,,,,m,1,0.6118,,,,,,,,0.062962991,-0.413888916,0,0,0,,0,160,160,11,1,BONNET,LB,old,m,./images/BONNETLB.png,,,,,,,,,,,,,,,,,,,,,,,,,,,,,,,,,,,
,,,,,,,,,,,,,,,,,6107274fc7421bcda19b63fc,22,2022-02-12_16h52.24.133,lexical_decision_task_DD,2021.2.3,Win32,59.89099838,,,,,,,,,,,0.4765,1,,,,,,,,,,,,,,m,1,0.4765,,,,,,,,0.062962991,-0.413888916,0,0,0,,0,161,161,38,1,LADDER,LB,old,m,./images/LADDERLB.png,,,,,,,,,,,,,,,,,,,,,,,,,,,,,,,,,,,
,,,,,,,,,,,,,,,,,6107274fc7421bcda19b63fc,22,2022-02-12_16h52.24.133,lexical_decision_task_DD,2021.2.3,Win32,59.89099838,,,,,,,,,,,0.4384,1,,,,,,,,,,,,,,m,1,0.4384,,,,,,,,0.062962991,-0.413888916,0,0,0,,0,162,162,62,1,PURSE,LB,old,m,./images/PURSELB.png,,,,,,,,,,,,,,,,,,,,,,,,,,,,,,,,,,,
,,,,,,,,,,,,,,,,,6107274fc7421bcda19b63fc,22,2022-02-12_16h52.24.133,lexical_decision_task_DD,2021.2.3,Win32,59.89099838,,,,,,,,,,,1.0324,1,,,,,,,,,,,,,,z,1,1.0324,,,,,,,,0.062962991,-0.413888916,0,0,0,,0,163,163,130,1,CRILL,HB,old,z,./images/CRILLHB.png,,,,,,,,,,,,,,,,,,,,,,,,,,,,,,,,,,,
,,,,,,,,,,,,,,,,,6107274fc7421bcda19b63fc,22,2022-02-12_16h52.24.133,lexical_decision_task_DD,2021.2.3,Win32,59.89099838,,,,,,,,,,,0.5725,1,,,,,,,,,,,,,,z,1,0.5725,,,,,,,,0.062962991,-0.413888916,0,0,0,,0,164,164,134,1,TROSS,LB,old,z,./images/TROSSLB.png,,,,,,,,,,,,,,,,,,,,,,,,,,,,,,,,,,,
,,,,,,,,,,,,,,,,,6107274fc7421bcda19b63fc,22,2022-02-12_16h52.24.133,lexical_decision_task_DD,2021.2.3,Win32,59.89099838,,,,,,,,,,,0.717,1,,,,,,,,,,,,,,m,1,0.717,,,,,,,,0.062962991,-0.413888916,0,0,0,,0,165,165,20,1,CRADLE,LB,old,m,./images/CRADLELB.png,,,,,,,,,,,,,,,,,,,,,,,,,,,,,,,,,,,
,,,,,,,,,,,,,,,,,6107274fc7421bcda19b63fc,22,2022-02-12_16h52.24.133,lexical_decision_task_DD,2021.2.3,Win32,59.89099838,,,,,,,,,,,0.6337,1,,,,,,,,,,,,,,m,1,0.6337,,,,,,,,0.062962991,-0.413888916,0,0,0,,0,166,166,19,1,DOUGH,HB,old,m,./images/DOUGHHB.png,,,,,,,,,,,,,,,,,,,,,,,,,,,,,,,,,,,
,,,,,,,,,,,,,,,,,6107274fc7421bcda19b63fc,22,2022-02-12_16h52.24.133,lexical_decision_task_DD,2021.2.3,Win32,59.89099838,,,,,,,,,,,0.5262,1,,,,,,,,,,,,,,m,1,0.5262,,,,,,,,0.062962991,-0.413888916,0,0,0,,0,167,167,47,1,BERRY,LB,old,m,./images/BERRYLB.png,,,,,,,,,,,,,,,,,,,,,,,,,,,,,,,,,,,
,,,,,,,,,,,,,,,,,6107274fc7421bcda19b63fc,22,2022-02-12_16h52.24.133,lexical_decision_task_DD,2021.2.3,Win32,59.89099838,,,,,,,,,,,,,,,,,,,,,,,,,,,,,,,,,,,,,,,,,,,,,,,,How likely will it be that you will recognize the words presented very blurred on a scale of 0 (not likely) to 100 (most likely)?,,,,,0.007407491,-0.437963047,1,0,0,jol_adv,3,6.9119,0,0,0,2,1,,,,,,,,,,,,,,,,,,,,,
,,,,,,,,,,,,,,,,,6107274fc7421bcda19b63fc,22,2022-02-12_16h52.24.133,lexical_decision_task_DD,2021.2.3,Win32,59.89099838,,,,,,,,,,,,,,,,,,,,,,,,,,,,,,,,,,,,,,,,,,,,,,,,How likely will it be that you will recognize the words presented slighly blurred on a scale of 0 (not likely) to 100 (most likely)?,,,,,,,,,,,6,5.4417,0,1,1,1,1,,,,,,,,,,,,,,,,,,,,,
,,,,,,,,,,,,,,,,,6107274fc7421bcda19b63fc,22,2022-02-12_16h52.24.133,lexical_decision_task_DD,2021.2.3,Win32,59.89099838,,,,,,,,,,,,,,,,,,,,,,,,,,,,,,,,,,,,,,,,,,,,,,,,How likely will it be that you will recognize the words presented clearly on a scale of 0 (not likely) to 100 (most likely)?,,,,,,,,,,,6,1.8454,0,2,2,0,1,,,,,,,,,,,,,,,,,,,,,
,0.000925952,-0.418518602,1,0,0,instr_done_button,,,,,,1,test,"In the next phase you will be presented with the words from the the first phase. Your job is to decide whether you remember seeing the word or not. If you remember seeing the word press ""old"" or type ""m"". If you do not remember seeing the word press ""new"" or type ""z"". Please press the space bar or click on continue to begin. ",,,6107274fc7421bcda19b63fc,22,2022-02-12_16h52.24.133,lexical_decision_task_DD,2021.2.3,Win32,59.89099838,,,,,,,,,,,,,,,,,,,,,,,,,,,,,,,,,,,,,,,,,,,,,,,,,,,,,,,,,,,,,,,,,,0,0,0,0,1,,,,,,,,,,,,,,,,
space,-0.077777754,-0.133333352,0,0,0,,,,,,,1,test,"In the next phase you will be presented with the words from the the first phase. Your job is to decide whether you remember seeing the word or not. If you remember seeing the word press ""old"" or type ""m"". If you do not remember seeing the word press ""new"" or type ""z"". Please press the space bar or click on continue to begin. ",,,6107274fc7421bcda19b63fc,22,2022-02-12_16h52.24.133,lexical_decision_task_DD,2021.2.3,Win32,59.89099838,,,,,,,,,,,,,,,,,,,,,,,,,,,,,,,,,,,,,,,,,,,,,,,,,,,,,,,,,,,,,,,,,,1,0,1,0,1,12.1325,,,,,,,,,,,,,,,
,-0.06944442,-0.350000025,1,0,0,instr_done_button,,,,,,1,test,"In the next phase you will be presented with the words from the the first phase. Your job is to decide whether you remember seeing the word or not. If you remember seeing the word press ""old"" or type ""m"". If you do not remember seeing the word press ""new"" or type ""z"". Please press the space bar or click on continue to begin. ",,,6107274fc7421bcda19b63fc,22,2022-02-12_16h52.24.133,lexical_decision_task_DD,2021.2.3,Win32,59.89099838,,,,,,,,,,,,,,,,,,,,,,,,,,,,,,,,,,,,,,,,,,,,,,,,,,,,,,,,,,,,,,,,,,2,0,2,0,1,,,,,,,,,,,,,,,,
,-0.074999976,-0.397222249,1,0,0,instr_done_button,,,,,,1,test,"In the next phase you will be presented with the words from the the first phase. Your job is to decide whether you remember seeing the word or not. If you remember seeing the word press ""old"" or type ""m"". If you do not remember seeing the word press ""new"" or type ""z"". Please press the space bar or click on continue to begin. ",,,6107274fc7421bcda19b63fc,22,2022-02-12_16h52.24.133,lexical_decision_task_DD,2021.2.3,Win32,59.89099838,,,,,,,,,,,,,,,,,,,,,,,,,,,,,,,,,,,,,,,,,,,,,,,,,,,,,,,,,,,,,,,,,,3,0,3,0,1,,,,,,,,,,,,,,,,
space,0.107407437,-0.040740757,0,0,0,,,,,,,1,test,"In the next phase you will be presented with the words from the the first phase. Your job is to decide whether you remember seeing the word or not. If you remember seeing the word press ""old"" or type ""m"". If you do not remember seeing the word press ""new"" or type ""z"". Please press the space bar or click on continue to begin. ",,,6107274fc7421bcda19b63fc,22,2022-02-12_16h52.24.133,lexical_decision_task_DD,2021.2.3,Win32,59.89099838,,,,,,,,,,,,,,,,,,,,,,,,,,,,,,,,,,,,,,,,,,,,,,,,,,,,,,,,,,,,,,,,,,4,0,4,0,1,1.4042,,,,,,,,,,,,,,,
,,,,,,,,,,,,,,,,,6107274fc7421bcda19b63fc,22,2022-02-12_16h52.24.133,lexical_decision_task_DD,2021.2.3,Win32,59.89099838,,,,,,,,,,,4.1755,1,,,,,,,,,,,,,,,,,,,,,,,,0.107407437,-0.040740757,0,0,0,,,,,,,BARREL,LB,m,m,./images/BARRELLB.png,,,,,,,,,,,,,,,,,,,,,m,1,4.1755,,,,,,,,0,0,0,32,1
,,,,,,,,,,,,,,,,,6107274fc7421bcda19b63fc,22,2022-02-12_16h52.24.133,lexical_decision_task_DD,2021.2.3,Win32,59.89099838,,,,,,,,,,,0.8664,1,,,,,,,,,,,,,,,,,,,,,,,,0.107407437,-0.040740757,0,0,0,,,,,,,TWINS,C,m,m,./images/TWINS.png,,,,,,,,,,,,,,,,,,,,,m,1,0.8664,,,,,,,,0,1,1,60,1
,,,,,,,,,,,,,,,,,6107274fc7421bcda19b63fc,22,2022-02-12_16h52.24.133,lexical_decision_task_DD,2021.2.3,Win32,59.89099838,,,,,,,,,,,1.0116,1,,,,,,,,,,,,,,,,,,,,,,,,0.107407437,-0.040740757,0,0,0,,,,,,,MAMMAL,LB,z,m,./images/MAMMALLB.png,,,,,,,,,,,,,,,,,,,,,z,1,1.0116,,,,,,,,0,2,2,146,1
,,,,,,,,,,,,,,,,,6107274fc7421bcda19b63fc,22,2022-02-12_16h52.24.133,lexical_decision_task_DD,2021.2.3,Win32,59.89099838,,,,,,,,,,,0.8083,1,,,,,,,,,,,,,,,,,,,,,,,,0.107407437,-0.040740757,0,0,0,,,,,,,JUNGLE,LB,m,m,./images/JUNGLELB.png,,,,,,,,,,,,,,,,,,,,,m,1,0.8083,,,,,,,,0,3,3,83,1
,,,,,,,,,,,,,,,,,6107274fc7421bcda19b63fc,22,2022-02-12_16h52.24.133,lexical_decision_task_DD,2021.2.3,Win32,59.89099838,,,,,,,,,,,0.8997,1,,,,,,,,,,,,,,,,,,,,,,,,0.107407437,-0.040740757,0,0,0,,,,,,,SAUNA,C,z,m,./images/SAUNA.png,,,,,,,,,,,,,,,,,,,,,z,1,0.8997,,,,,,,,0,4,4,117,1
,,,,,,,,,,,,,,,,,6107274fc7421bcda19b63fc,22,2022-02-12_16h52.24.133,lexical_decision_task_DD,2021.2.3,Win32,59.89099838,,,,,,,,,,,0.8118,1,,,,,,,,,,,,,,,,,,,,,,,,0.107407437,-0.040740757,0,0,0,,,,,,,TIGER,HB,z,m,./images/TIGERHB.png,,,,,,,,,,,,,,,,,,,,,z,1,0.8118,,,,,,,,0,5,5,121,1
,,,,,,,,,,,,,,,,,6107274fc7421bcda19b63fc,22,2022-02-12_16h52.24.133,lexical_decision_task_DD,2021.2.3,Win32,59.89099838,,,,,,,,,,,1.1555,1,,,,,,,,,,,,,,,,,,,,,,,,0.107407437,-0.040740757,0,0,0,,,,,,,POKER,HB,z,m,./images/POKERHB.png,,,,,,,,,,,,,,,,,,,,,z,1,1.1555,,,,,,,,0,6,6,151,1
,,,,,,,,,,,,,,,,,6107274fc7421bcda19b63fc,22,2022-02-12_16h52.24.133,lexical_decision_task_DD,2021.2.3,Win32,59.89099838,,,,,,,,,,,0.683,1,,,,,,,,,,,,,,,,,,,,,,,,0.107407437,-0.040740757,0,0,0,,,,,,,FINGER,C,m,m,./images/FINGER.png,,,,,,,,,,,,,,,,,,,,,m,1,0.683,,,,,,,,0,7,7,3,1
,,,,,,,,,,,,,,,,,6107274fc7421bcda19b63fc,22,2022-02-12_16h52.24.133,lexical_decision_task_DD,2021.2.3,Win32,59.89099838,,,,,,,,,,,0.5435,0,,,,,,,,,,,,,,,,,,,,,,,,0.107407437,-0.040740757,0,0,0,,,,,,,WALNUT,C,z,m,./images/WALNUT.png,,,,,,,,,,,,,,,,,,,,,m,0,0.5435,,,,,,,,0,8,8,84,1
,,,,,,,,,,,,,,,,,6107274fc7421bcda19b63fc,22,2022-02-12_16h52.24.133,lexical_decision_task_DD,2021.2.3,Win32,59.89099838,,,,,,,,,,,0.4513,1,,,,,,,,,,,,,,,,,,,,,,,,0.107407437,-0.040740757,0,0,0,,,,,,,CANDLE,HB,m,m,./images/CANDLEHB.png,,,,,,,,,,,,,,,,,,,,,m,1,0.4513,,,,,,,,0,9,9,61,1
,,,,,,,,,,,,,,,,,6107274fc7421bcda19b63fc,22,2022-02-12_16h52.24.133,lexical_decision_task_DD,2021.2.3,Win32,59.89099838,,,,,,,,,,,0.5256,1,,,,,,,,,,,,,,,,,,,,,,,,0.107407437,-0.040740757,0,0,0,,,,,,,BANNER,HB,m,m,./images/BANNERHB.png,,,,,,,,,,,,,,,,,,,,,m,1,0.5256,,,,,,,,0,10,10,52,1
,,,,,,,,,,,,,,,,,6107274fc7421bcda19b63fc,22,2022-02-12_16h52.24.133,lexical_decision_task_DD,2021.2.3,Win32,59.89099838,,,,,,,,,,,0.665,1,,,,,,,,,,,,,,,,,,,,,,,,0.107407437,-0.040740757,0,0,0,,,,,,,CLIFF,LB,z,m,./images/CLIFFLB.png,,,,,,,,,,,,,,,,,,,,,z,1,0.665,,,,,,,,0,11,11,92,1
,,,,,,,,,,,,,,,,,6107274fc7421bcda19b63fc,22,2022-02-12_16h52.24.133,lexical_decision_task_DD,2021.2.3,Win32,59.89099838,,,,,,,,,,,0.6285,1,,,,,,,,,,,,,,,,,,,,,,,,0.107407437,-0.040740757,0,0,0,,,,,,,QUILL,HB,m,m,./images/QUILLHB.png,,,,,,,,,,,,,,,,,,,,,m,1,0.6285,,,,,,,,0,12,12,31,1
,,,,,,,,,,,,,,,,,6107274fc7421bcda19b63fc,22,2022-02-12_16h52.24.133,lexical_decision_task_DD,2021.2.3,Win32,59.89099838,,,,,,,,,,,1.6847,1,,,,,,,,,,,,,,,,,,,,,,,,0.107407437,-0.040740757,0,0,0,,,,,,,SLOPE,C,z,m,./images/SLOPE.png,,,,,,,,,,,,,,,,,,,,,z,1,1.6847,,,,,,,,0,13,13,114,1
,,,,,,,,,,,,,,,,,6107274fc7421bcda19b63fc,22,2022-02-12_16h52.24.133,lexical_decision_task_DD,2021.2.3,Win32,59.89099838,,,,,,,,,,,0.5509,1,,,,,,,,,,,,,,,,,,,,,,,,0.107407437,-0.040740757,0,0,0,,,,,,,TOMATO,C,m,m,./images/TOMATO.png,,,,,,,,,,,,,,,,,,,,,m,1,0.5509,,,,,,,,0,14,14,0,1
,,,,,,,,,,,,,,,,,6107274fc7421bcda19b63fc,22,2022-02-12_16h52.24.133,lexical_decision_task_DD,2021.2.3,Win32,59.89099838,,,,,,,,,,,0.6334,1,,,,,,,,,,,,,,,,,,,,,,,,0.107407437,-0.040740757,0,0,0,,,,,,,PISTOL,LB,z,m,./images/PISTOLLB.png,,,,,,,,,,,,,,,,,,,,,z,1,0.6334,,,,,,,,0,15,15,113,1
,,,,,,,,,,,,,,,,,6107274fc7421bcda19b63fc,22,2022-02-12_16h52.24.133,lexical_decision_task_DD,2021.2.3,Win32,59.89099838,,,,,,,,,,,0.5121,1,,,,,,,,,,,,,,,,,,,,,,,,0.107407437,-0.040740757,0,0,0,,,,,,,PEARL,HB,m,m,./images/PEARLHB.png,,,,,,,,,,,,,,,,,,,,,m,1,0.5121,,,,,,,,0,16,16,46,1
,,,,,,,,,,,,,,,,,6107274fc7421bcda19b63fc,22,2022-02-12_16h52.24.133,lexical_decision_task_DD,2021.2.3,Win32,59.89099838,,,,,,,,,,,0.6626,1,,,,,,,,,,,,,,,,,,,,,,,,0.107407437,-0.040740757,0,0,0,,,,,,,CRATER,C,z,m,./images/CRATER.png,,,,,,,,,,,,,,,,,,,,,z,1,0.6626,,,,,,,,0,17,17,87,1
,,,,,,,,,,,,,,,,,6107274fc7421bcda19b63fc,22,2022-02-12_16h52.24.133,lexical_decision_task_DD,2021.2.3,Win32,59.89099838,,,,,,,,,,,0.6932,1,,,,,,,,,,,,,,,,,,,,,,,,0.107407437,-0.040740757,0,0,0,,,,,,,SKIING,LB,m,m,./images/SKIINGLB.png,,,,,,,,,,,,,,,,,,,,,m,1,0.6932,,,,,,,,0,18,18,17,1
,,,,,,,,,,,,,,,,,6107274fc7421bcda19b63fc,22,2022-02-12_16h52.24.133,lexical_decision_task_DD,2021.2.3,Win32,59.89099838,,,,,,,,,,,0.8158,1,,,,,,,,,,,,,,,,,,,,,,,,0.107407437,-0.040740757,0,0,0,,,,,,,BIRTH,HB,m,m,./images/BIRTHHB.png,,,,,,,,,,,,,,,,,,,,,m,1,0.8158,,,,,,,,0,19,19,37,1
,,,,,,,,,,,,,,,,,6107274fc7421bcda19b63fc,22,2022-02-12_16h52.24.133,lexical_decision_task_DD,2021.2.3,Win32,59.89099838,,,,,,,,,,,0.5253,0,,,,,,,,,,,,,,,,,,,,,,,,0.107407437,-0.040740757,0,0,0,,,,,,,GRAPE,HB,z,m,./images/GRAPEHB.png,,,,,,,,,,,,,,,,,,,,,m,0,0.5253,,,,,,,,0,20,20,100,1
,,,,,,,,,,,,,,,,,6107274fc7421bcda19b63fc,22,2022-02-12_16h52.24.133,lexical_decision_task_DD,2021.2.3,Win32,59.89099838,,,,,,,,,,,0.6084,1,,,,,,,,,,,,,,,,,,,,,,,,0.107407437,-0.040740757,0,0,0,,,,,,,PLANK,HB,m,m,./images/PLANKHB.png,,,,,,,,,,,,,,,,,,,,,m,1,0.6084,,,,,,,,0,21,21,1,1
,,,,,,,,,,,,,,,,,6107274fc7421bcda19b63fc,22,2022-02-12_16h52.24.133,lexical_decision_task_DD,2021.2.3,Win32,59.89099838,,,,,,,,,,,0.4977,1,,,,,,,,,,,,,,,,,,,,,,,,0.107407437,-0.040740757,0,0,0,,,,,,,WALRUS,LB,m,m,./images/WALRUSLB.png,,,,,,,,,,,,,,,,,,,,,m,1,0.4977,,,,,,,,0,22,22,23,1
,,,,,,,,,,,,,,,,,6107274fc7421bcda19b63fc,22,2022-02-12_16h52.24.133,lexical_decision_task_DD,2021.2.3,Win32,59.89099838,,,,,,,,,,,0.8099,1,,,,,,,,,,,,,,,,,,,,,,,,0.107407437,-0.040740757,0,0,0,,,,,,,LAGOON,LB,z,m,./images/LAGOONLB.png,,,,,,,,,,,,,,,,,,,,,z,1,0.8099,,,,,,,,0,23,23,131,1
,,,,,,,,,,,,,,,,,6107274fc7421bcda19b63fc,22,2022-02-12_16h52.24.133,lexical_decision_task_DD,2021.2.3,Win32,59.89099838,,,,,,,,,,,0.7261,1,,,,,,,,,,,,,,,,,,,,,,,,0.107407437,-0.040740757,0,0,0,,,,,,,DESERT,HB,z,m,./images/DESERTHB.png,,,,,,,,,,,,,,,,,,,,,z,1,0.7261,,,,,,,,0,24,24,136,1
,,,,,,,,,,,,,,,,,6107274fc7421bcda19b63fc,22,2022-02-12_16h52.24.133,lexical_decision_task_DD,2021.2.3,Win32,59.89099838,,,,,,,,,,,0.5943,0,,,,,,,,,,,,,,,,,,,,,,,,0.107407437,-0.040740757,0,0,0,,,,,,,DRUMS,HB,m,m,./images/DRUMSHB.png,,,,,,,,,,,,,,,,,,,,,z,0,0.5943,,,,,,,,0,25,25,49,1
,,,,,,,,,,,,,,,,,6107274fc7421bcda19b63fc,22,2022-02-12_16h52.24.133,lexical_decision_task_DD,2021.2.3,Win32,59.89099838,,,,,,,,,,,0.6018,1,,,,,,,,,,,,,,,,,,,,,,,,0.107407437,-0.040740757,0,0,0,,,,,,,SHORE,C,m,m,./images/SHORE.png,,,,,,,,,,,,,,,,,,,,,m,1,0.6018,,,,,,,,0,26,26,12,1
,,,,,,,,,,,,,,,,,6107274fc7421bcda19b63fc,22,2022-02-12_16h52.24.133,lexical_decision_task_DD,2021.2.3,Win32,59.89099838,,,,,,,,,,,0.6587,1,,,,,,,,,,,,,,,,,,,,,,,,0.107407437,-0.040740757,0,0,0,,,,,,,URINE,HB,m,m,./images/URINEHB.png,,,,,,,,,,,,,,,,,,,,,m,1,0.6587,,,,,,,,0,27,27,70,1
,,,,,,,,,,,,,,,,,6107274fc7421bcda19b63fc,22,2022-02-12_16h52.24.133,lexical_decision_task_DD,2021.2.3,Win32,59.89099838,,,,,,,,,,,0.6053,1,,,,,,,,,,,,,,,,,,,,,,,,0.107407437,-0.040740757,0,0,0,,,,,,,POSTER,LB,z,m,./images/POSTERLB.png,,,,,,,,,,,,,,,,,,,,,z,1,0.6053,,,,,,,,0,28,28,137,1
,,,,,,,,,,,,,,,,,6107274fc7421bcda19b63fc,22,2022-02-12_16h52.24.133,lexical_decision_task_DD,2021.2.3,Win32,59.89099838,,,,,,,,,,,0.6472,1,,,,,,,,,,,,,,,,,,,,,,,,0.107407437,-0.040740757,0,0,0,,,,,,,INFANT,HB,m,m,./images/INFANTHB.png,,,,,,,,,,,,,,,,,,,,,m,1,0.6472,,,,,,,,0,29,29,76,1
,,,,,,,,,,,,,,,,,6107274fc7421bcda19b63fc,22,2022-02-12_16h52.24.133,lexical_decision_task_DD,2021.2.3,Win32,59.89099838,,,,,,,,,,,0.5806,1,,,,,,,,,,,,,,,,,,,,,,,,0.107407437,-0.040740757,0,0,0,,,,,,,GREASE,C,m,m,./images/GREASE.png,,,,,,,,,,,,,,,,,,,,,m,1,0.5806,,,,,,,,0,30,30,15,1
,,,,,,,,,,,,,,,,,6107274fc7421bcda19b63fc,22,2022-02-12_16h52.24.133,lexical_decision_task_DD,2021.2.3,Win32,59.89099838,,,,,,,,,,,0.6366,1,,,,,,,,,,,,,,,,,,,,,,,,0.107407437,-0.040740757,0,0,0,,,,,,,BUNNY,HB,z,m,./images/BUNNYHB.png,,,,,,,,,,,,,,,,,,,,,z,1,0.6366,,,,,,,,0,31,31,97,1
,,,,,,,,,,,,,,,,,6107274fc7421bcda19b63fc,22,2022-02-12_16h52.24.133,lexical_decision_task_DD,2021.2.3,Win32,59.89099838,,,,,,,,,,,0.8256,0,,,,,,,,,,,,,,,,,,,,,,,,0.107407437,-0.040740757,0,0,0,,,,,,,KIDNEY,C,m,m,./images/KIDNEY.png,,,,,,,,,,,,,,,,,,,,,z,0,0.8256,,,,,,,,0,32,32,21,1
,,,,,,,,,,,,,,,,,6107274fc7421bcda19b63fc,22,2022-02-12_16h52.24.133,lexical_decision_task_DD,2021.2.3,Win32,59.89099838,,,,,,,,,,,0.7874,0,,,,,,,,,,,,,,,,,,,,,,,,0.107407437,-0.040740757,0,0,0,,,,,,,PILOT,LB,z,m,./images/PILOTLB.png,,,,,,,,,,,,,,,,,,,,,m,0,0.7874,,,,,,,,0,33,33,134,1
,,,,,,,,,,,,,,,,,6107274fc7421bcda19b63fc,22,2022-02-12_16h52.24.133,lexical_decision_task_DD,2021.2.3,Win32,59.89099838,,,,,,,,,,,0.7443,1,,,,,,,,,,,,,,,,,,,,,,,,0.107407437,-0.040740757,0,0,0,,,,,,,BASKET,LB,z,m,./images/BASKETLB.png,,,,,,,,,,,,,,,,,,,,,z,1,0.7443,,,,,,,,0,34,34,128,1
,,,,,,,,,,,,,,,,,6107274fc7421bcda19b63fc,22,2022-02-12_16h52.24.133,lexical_decision_task_DD,2021.2.3,Win32,59.89099838,,,,,,,,,,,0.5612,1,,,,,,,,,,,,,,,,,,,,,,,,0.107407437,-0.040740757,0,0,0,,,,,,,LITTER,C,m,m,./images/LITTER.png,,,,,,,,,,,,,,,,,,,,,m,1,0.5612,,,,,,,,0,35,35,78,1
,,,,,,,,,,,,,,,,,6107274fc7421bcda19b63fc,22,2022-02-12_16h52.24.133,lexical_decision_task_DD,2021.2.3,Win32,59.89099838,,,,,,,,,,,0.5887,1,,,,,,,,,,,,,,,,,,,,,,,,0.107407437,-0.040740757,0,0,0,,,,,,,PAINT,HB,m,m,./images/PAINTHB.png,,,,,,,,,,,,,,,,,,,,,m,1,0.5887,,,,,,,,0,36,36,7,1
,,,,,,,,,,,,,,,,,6107274fc7421bcda19b63fc,22,2022-02-12_16h52.24.133,lexical_decision_task_DD,2021.2.3,Win32,59.89099838,,,,,,,,,,,0.7815,1,,,,,,,,,,,,,,,,,,,,,,,,0.107407437,-0.040740757,0,0,0,,,,,,,SHELF,C,m,m,./images/SHELF.png,,,,,,,,,,,,,,,,,,,,,m,1,0.7815,,,,,,,,0,37,37,39,1
,,,,,,,,,,,,,,,,,6107274fc7421bcda19b63fc,22,2022-02-12_16h52.24.133,lexical_decision_task_DD,2021.2.3,Win32,59.89099838,,,,,,,,,,,0.5692,1,,,,,,,,,,,,,,,,,,,,,,,,0.107407437,-0.040740757,0,0,0,,,,,,,CARPET,LB,m,m,./images/CARPETLB.png,,,,,,,,,,,,,,,,,,,,,m,1,0.5692,,,,,,,,0,38,38,53,1
,,,,,,,,,,,,,,,,,6107274fc7421bcda19b63fc,22,2022-02-12_16h52.24.133,lexical_decision_task_DD,2021.2.3,Win32,59.89099838,,,,,,,,,,,0.5112,1,,,,,,,,,,,,,,,,,,,,,,,,0.107407437,-0.040740757,0,0,0,,,,,,,BEARD,LB,m,m,./images/BEARDLB.png,,,,,,,,,,,,,,,,,,,,,m,1,0.5112,,,,,,,,0,39,39,2,1
,,,,,,,,,,,,,,,,,6107274fc7421bcda19b63fc,22,2022-02-12_16h52.24.133,lexical_decision_task_DD,2021.2.3,Win32,59.89099838,,,,,,,,,,,0.5165,1,,,,,,,,,,,,,,,,,,,,,,,,0.107407437,-0.040740757,0,0,0,,,,,,,FALCON,HB,m,m,./images/FALCONHB.png,,,,,,,,,,,,,,,,,,,,,m,1,0.5165,,,,,,,,0,40,40,28,1
,,,,,,,,,,,,,,,,,6107274fc7421bcda19b63fc,22,2022-02-12_16h52.24.133,lexical_decision_task_DD,2021.2.3,Win32,59.89099838,,,,,,,,,,,0.5419,1,,,,,,,,,,,,,,,,,,,,,,,,0.107407437,-0.040740757,0,0,0,space,,,,,,RULER,HB,z,m,./images/RULERHB.png,1.4188,,,,,,,,,,,,,,,,,,,,z,1,0.5419,,,,,,,,0,41,41,163,1
,,,,,,,,,,,,,,,,,6107274fc7421bcda19b63fc,22,2022-02-12_16h52.24.133,lexical_decision_task_DD,2021.2.3,Win32,59.89099838,,,,,,,,,,,0.821,0,,,,,,,,,,,,,,,,,,,,,,,,0.107407437,-0.040740757,0,0,0,,,,,,,FLASK,C,z,m,./images/FLASK.png,,,,,,,,,,,,,,,,,,,,,m,0,0.821,,,,,,,,0,42,42,156,1
,,,,,,,,,,,,,,,,,6107274fc7421bcda19b63fc,22,2022-02-12_16h52.24.133,lexical_decision_task_DD,2021.2.3,Win32,59.89099838,,,,,,,,,,,0.5721,0,,,,,,,,,,,,,,,,,,,,,,,,0.107407437,-0.040740757,0,0,0,,,,,,,BISHOP,HB,z,m,./images/BISHOPHB.png,,,,,,,,,,,,,,,,,,,,,m,0,0.5721,,,,,,,,0,43,43,133,1
,,,,,,,,,,,,,,,,,6107274fc7421bcda19b63fc,22,2022-02-12_16h52.24.133,lexical_decision_task_DD,2021.2.3,Win32,59.89099838,,,,,,,,,,,0.5279,1,,,,,,,,,,,,,,,,,,,,,,,,0.107407437,-0.040740757,0,0,0,,,,,,,GRAIN,C,m,m,./images/GRAIN.png,,,,,,,,,,,,,,,,,,,,,m,1,0.5279,,,,,,,,0,44,44,75,1
,,,,,,,,,,,,,,,,,6107274fc7421bcda19b63fc,22,2022-02-12_16h52.24.133,lexical_decision_task_DD,2021.2.3,Win32,59.89099838,,,,,,,,,,,0.55,1,,,,,,,,,,,,,,,,,,,,,,,,0.107407437,-0.040740757,0,0,0,,,,,,,SNACK,HB,m,m,./images/SNACKHB.png,,,,,,,,,,,,,,,,,,,,,m,1,0.55,,,,,,,,0,45,45,73,1
,,,,,,,,,,,,,,,,,6107274fc7421bcda19b63fc,22,2022-02-12_16h52.24.133,lexical_decision_task_DD,2021.2.3,Win32,59.89099838,,,,,,,,,,,0.5289,1,,,,,,,,,,,,,,,,,,,,,,,,0.107407437,-0.040740757,0,0,0,,,,,,,SAUCE,C,z,m,./images/SAUCE.png,,,,,,,,,,,,,,,,,,,,,z,1,0.5289,,,,,,,,0,46,46,135,1
,,,,,,,,,,,,,,,,,6107274fc7421bcda19b63fc,22,2022-02-12_16h52.24.133,lexical_decision_task_DD,2021.2.3,Win32,59.89099838,,,,,,,,,,,0.8299,1,,,,,,,,,,,,,,,,,,,,,,,,0.107407437,-0.040740757,0,0,0,,,,,,,CRUST,HB,m,m,./images/CRUSTHB.png,,,,,,,,,,,,,,,,,,,,,m,1,0.8299,,,,,,,,0,47,47,79,1
,,,,,,,,,,,,,,,,,6107274fc7421bcda19b63fc,22,2022-02-12_16h52.24.133,lexical_decision_task_DD,2021.2.3,Win32,59.89099838,,,,,,,,,,,0.8772,1,,,,,,,,,,,,,,,,,,,,,,,,0.107407437,-0.040740757,0,0,0,,,,,,,CANOE,HB,z,m,./images/CANOEHB.png,,,,,,,,,,,,,,,,,,,,,z,1,0.8772,,,,,,,,0,48,48,142,1
,,,,,,,,,,,,,,,,,6107274fc7421bcda19b63fc,22,2022-02-12_16h52.24.133,lexical_decision_task_DD,2021.2.3,Win32,59.89099838,,,,,,,,,,,0.9586,0,,,,,,,,,,,,,,,,,,,,,,,,0.107407437,-0.040740757,0,0,0,,,,,,,BAMBOO,LB,z,m,./images/BAMBOOLB.png,,,,,,,,,,,,,,,,,,,,,m,0,0.9586,,,,,,,,0,49,49,89,1
,,,,,,,,,,,,,,,,,6107274fc7421bcda19b63fc,22,2022-02-12_16h52.24.133,lexical_decision_task_DD,2021.2.3,Win32,59.89099838,,,,,,,,,,,0.7718,0,,,,,,,,,,,,,,,,,,,,,,,,0.107407437,-0.040740757,0,0,0,,,,,,,BOILER,C,z,m,./images/BOILER.png,,,,,,,,,,,,,,,,,,,,,m,0,0.7718,,,,,,,,0,50,50,120,1
,,,,,,,,,,,,,,,,,6107274fc7421bcda19b63fc,22,2022-02-12_16h52.24.133,lexical_decision_task_DD,2021.2.3,Win32,59.89099838,,,,,,,,,,,0.6171,1,,,,,,,,,,,,,,,,,,,,,,,,0.107407437,-0.040740757,0,0,0,,,,,,,SMOKER,LB,m,m,./images/SMOKERLB.png,,,,,,,,,,,,,,,,,,,,,m,1,0.6171,,,,,,,,0,51,51,26,1
,,,,,,,,,,,,,,,,,6107274fc7421bcda19b63fc,22,2022-02-12_16h52.24.133,lexical_decision_task_DD,2021.2.3,Win32,59.89099838,,,,,,,,,,,0.6047,1,,,,,,,,,,,,,,,,,,,,,,,,0.107407437,-0.040740757,0,0,0,,,,,,,SPORT,C,m,m,./images/SPORT.png,,,,,,,,,,,,,,,,,,,,,m,1,0.6047,,,,,,,,0,52,52,48,1
,,,,,,,,,,,,,,,,,6107274fc7421bcda19b63fc,22,2022-02-12_16h52.24.133,lexical_decision_task_DD,2021.2.3,Win32,59.89099838,,,,,,,,,,,0.5481,1,,,,,,,,,,,,,,,,,,,,,,,,0.107407437,-0.040740757,0,0,0,,,,,,,FOLDER,C,m,m,./images/FOLDER.png,,,,,,,,,,,,,,,,,,,,,m,1,0.5481,,,,,,,,0,53,53,42,1
,,,,,,,,,,,,,,,,,6107274fc7421bcda19b63fc,22,2022-02-12_16h52.24.133,lexical_decision_task_DD,2021.2.3,Win32,59.89099838,,,,,,,,,,,0.6209,1,,,,,,,,,,,,,,,,,,,,,,,,0.107407437,-0.040740757,0,0,0,,,,,,,PIMPLE,LB,m,m,./images/PIMPLELB.png,,,,,,,,,,,,,,,,,,,,,m,1,0.6209,,,,,,,,0,54,54,71,1
,,,,,,,,,,,,,,,,,6107274fc7421bcda19b63fc,22,2022-02-12_16h52.24.133,lexical_decision_task_DD,2021.2.3,Win32,59.89099838,,,,,,,,,,,0.6143,1,,,,,,,,,,,,,,,,,,,,,,,,0.107407437,-0.040740757,0,0,0,,,,,,,LLAMA,LB,z,m,./images/LLAMALB.png,,,,,,,,,,,,,,,,,,,,,z,1,0.6143,,,,,,,,0,55,55,119,1
,,,,,,,,,,,,,,,,,6107274fc7421bcda19b63fc,22,2022-02-12_16h52.24.133,lexical_decision_task_DD,2021.2.3,Win32,59.89099838,,,,,,,,,,,0.6677,1,,,,,,,,,,,,,,,,,,,,,,,,0.107407437,-0.040740757,0,0,0,,,,,,,MEDAL,LB,z,m,./images/MEDALLB.png,,,,,,,,,,,,,,,,,,,,,z,1,0.6677,,,,,,,,0,56,56,95,1
,,,,,,,,,,,,,,,,,6107274fc7421bcda19b63fc,22,2022-02-12_16h52.24.133,lexical_decision_task_DD,2021.2.3,Win32,59.89099838,,,,,,,,,,,0.8672,1,,,,,,,,,,,,,,,,,,,,,,,,0.107407437,-0.040740757,0,0,0,,,,,,,STOVE,LB,z,m,./images/STOVELB.png,,,,,,,,,,,,,,,,,,,,,z,1,0.8672,,,,,,,,0,57,57,86,1
,,,,,,,,,,,,,,,,,6107274fc7421bcda19b63fc,22,2022-02-12_16h52.24.133,lexical_decision_task_DD,2021.2.3,Win32,59.89099838,,,,,,,,,,,0.5659,1,,,,,,,,,,,,,,,,,,,,,,,,0.107407437,-0.040740757,0,0,0,,,,,,,BERRY,LB,m,m,./images/BERRYLB.png,,,,,,,,,,,,,,,,,,,,,m,1,0.5659,,,,,,,,0,58,58,47,1
,,,,,,,,,,,,,,,,,6107274fc7421bcda19b63fc,22,2022-02-12_16h52.24.133,lexical_decision_task_DD,2021.2.3,Win32,59.89099838,,,,,,,,,,,0.5853,1,,,,,,,,,,,,,,,,,,,,,,,,0.107407437,-0.040740757,0,0,0,,,,,,,BONNET,LB,m,m,./images/BONNETLB.png,,,,,,,,,,,,,,,,,,,,,m,1,0.5853,,,,,,,,0,59,59,11,1
,,,,,,,,,,,,,,,,,6107274fc7421bcda19b63fc,22,2022-02-12_16h52.24.133,lexical_decision_task_DD,2021.2.3,Win32,59.89099838,,,,,,,,,,,0.5184,1,,,,,,,,,,,,,,,,,,,,,,,,0.107407437,-0.040740757,0,0,0,,,,,,,PEACH,LB,m,m,./images/PEACHLB.png,,,,,,,,,,,,,,,,,,,,,m,1,0.5184,,,,,,,,0,60,60,35,1
,,,,,,,,,,,,,,,,,6107274fc7421bcda19b63fc,22,2022-02-12_16h52.24.133,lexical_decision_task_DD,2021.2.3,Win32,59.89099838,,,,,,,,,,,0.7223,1,,,,,,,,,,,,,,,,,,,,,,,,0.107407437,-0.040740757,0,0,0,,,,,,,TRIPOD,C,m,m,./images/TRIPOD.png,,,,,,,,,,,,,,,,,,,,,m,1,0.7223,,,,,,,,0,61,61,54,1
,,,,,,,,,,,,,,,,,6107274fc7421bcda19b63fc,22,2022-02-12_16h52.24.133,lexical_decision_task_DD,2021.2.3,Win32,59.89099838,,,,,,,,,,,0.7525,1,,,,,,,,,,,,,,,,,,,,,,,,0.107407437,-0.040740757,0,0,0,,,,,,,SPINE,LB,z,m,./images/SPINELB.png,,,,,,,,,,,,,,,,,,,,,z,1,0.7525,,,,,,,,0,62,62,149,1
,,,,,,,,,,,,,,,,,6107274fc7421bcda19b63fc,22,2022-02-12_16h52.24.133,lexical_decision_task_DD,2021.2.3,Win32,59.89099838,,,,,,,,,,,0.5971,1,,,,,,,,,,,,,,,,,,,,,,,,0.107407437,-0.040740757,0,0,0,,,,,,,BUBBLE,LB,z,m,./images/BUBBLELB.png,,,,,,,,,,,,,,,,,,,,,z,1,0.5971,,,,,,,,0,63,63,155,1
,,,,,,,,,,,,,,,,,6107274fc7421bcda19b63fc,22,2022-02-12_16h52.24.133,lexical_decision_task_DD,2021.2.3,Win32,59.89099838,,,,,,,,,,,0.9022,1,,,,,,,,,,,,,,,,,,,,,,,,0.107407437,-0.040740757,0,0,0,,,,,,,PENCE,HB,m,m,./images/PENCEHB.png,,,,,,,,,,,,,,,,,,,,,m,1,0.9022,,,,,,,,0,64,64,16,1
,,,,,,,,,,,,,,,,,6107274fc7421bcda19b63fc,22,2022-02-12_16h52.24.133,lexical_decision_task_DD,2021.2.3,Win32,59.89099838,,,,,,,,,,,0.5952,1,,,,,,,,,,,,,,,,,,,,,,,,0.107407437,-0.040740757,0,0,0,,,,,,,DOUGH,HB,m,m,./images/DOUGHHB.png,,,,,,,,,,,,,,,,,,,,,m,1,0.5952,,,,,,,,0,65,65,19,1
,,,,,,,,,,,,,,,,,6107274fc7421bcda19b63fc,22,2022-02-12_16h52.24.133,lexical_decision_task_DD,2021.2.3,Win32,59.89099838,,,,,,,,,,,0.7955,1,,,,,,,,,,,,,,,,,,,,,,,,0.107407437,-0.040740757,0,0,0,,,,,,,CHAIN,C,z,m,./images/CHAIN.png,,,,,,,,,,,,,,,,,,,,,z,1,0.7955,,,,,,,,0,66,66,126,1
,,,,,,,,,,,,,,,,,6107274fc7421bcda19b63fc,22,2022-02-12_16h52.24.133,lexical_decision_task_DD,2021.2.3,Win32,59.89099838,,,,,,,,,,,1.4959,1,,,,,,,,,,,,,,,,,,,,,,,,0.107407437,-0.040740757,0,0,0,,,,,,,BOXER,HB,z,m,./images/BOXERHB.png,,,,,,,,,,,,,,,,,,,,,z,1,1.4959,,,,,,,,0,67,67,88,1
,,,,,,,,,,,,,,,,,6107274fc7421bcda19b63fc,22,2022-02-12_16h52.24.133,lexical_decision_task_DD,2021.2.3,Win32,59.89099838,,,,,,,,,,,0.6141,1,,,,,,,,,,,,,,,,,,,,,,,,0.107407437,-0.040740757,0,0,0,,,,,,,ATTIC,C,m,m,./images/ATTIC.png,,,,,,,,,,,,,,,,,,,,,m,1,0.6141,,,,,,,,0,68,68,27,1
,,,,,,,,,,,,,,,,,6107274fc7421bcda19b63fc,22,2022-02-12_16h52.24.133,lexical_decision_task_DD,2021.2.3,Win32,59.89099838,,,,,,,,,,,0.4957,1,,,,,,,,,,,,,,,,,,,,,,,,0.107407437,-0.040740757,0,0,0,,,,,,,ARTIST,HB,z,m,./images/ARTISTHB.png,,,,,,,,,,,,,,,,,,,,,z,1,0.4957,,,,,,,,0,69,69,145,1
,,,,,,,,,,,,,,,,,6107274fc7421bcda19b63fc,22,2022-02-12_16h52.24.133,lexical_decision_task_DD,2021.2.3,Win32,59.89099838,,,,,,,,,,,0.5782,1,,,,,,,,,,,,,,,,,,,,,,,,0.107407437,-0.040740757,0,0,0,,,,,,,TULIP,LB,m,m,./images/TULIPLB.png,,,,,,,,,,,,,,,,,,,,,m,1,0.5782,,,,,,,,0,70,70,8,1
,,,,,,,,,,,,,,,,,6107274fc7421bcda19b63fc,22,2022-02-12_16h52.24.133,lexical_decision_task_DD,2021.2.3,Win32,59.89099838,,,,,,,,,,,0.6458,1,,,,,,,,,,,,,,,,,,,,,,,,0.107407437,-0.040740757,0,0,0,,,,,,,WAGON,HB,z,m,./images/WAGONHB.png,,,,,,,,,,,,,,,,,,,,,z,1,0.6458,,,,,,,,0,71,71,91,1
,,,,,,,,,,,,,,,,,6107274fc7421bcda19b63fc,22,2022-02-12_16h52.24.133,lexical_decision_task_DD,2021.2.3,Win32,59.89099838,,,,,,,,,,,0.846,1,,,,,,,,,,,,,,,,,,,,,,,,0.107407437,-0.040740757,0,0,0,,,,,,,COUCH,LB,m,m,./images/COUCHLB.png,,,,,,,,,,,,,,,,,,,,,m,1,0.846,,,,,,,,0,72,72,77,1
,,,,,,,,,,,,,,,,,6107274fc7421bcda19b63fc,22,2022-02-12_16h52.24.133,lexical_decision_task_DD,2021.2.3,Win32,59.89099838,,,,,,,,,,,0.5938,1,,,,,,,,,,,,,,,,,,,,,,,,0.107407437,-0.040740757,0,0,0,,,,,,,CASINO,HB,z,m,./images/CASINOHB.png,,,,,,,,,,,,,,,,,,,,,z,1,0.5938,,,,,,,,0,73,73,112,1
,,,,,,,,,,,,,,,,,6107274fc7421bcda19b63fc,22,2022-02-12_16h52.24.133,lexical_decision_task_DD,2021.2.3,Win32,59.89099838,,,,,,,,,,,0.6019,0,,,,,,,,,,,,,,,,,,,,,,,,0.107407437,-0.040740757,0,0,0,,,,,,,CEMENT,LB,m,m,./images/CEMENTLB.png,,,,,,,,,,,,,,,,,,,,,z,0,0.6019,,,,,,,,0,74,74,74,1
,,,,,,,,,,,,,,,,,6107274fc7421bcda19b63fc,22,2022-02-12_16h52.24.133,lexical_decision_task_DD,2021.2.3,Win32,59.89099838,,,,,,,,,,,0.6346,1,,,,,,,,,,,,,,,,,,,,,,,,0.107407437,-0.040740757,0,0,0,,,,,,,WHISKY,LB,z,m,./images/WHISKYLB.png,,,,,,,,,,,,,,,,,,,,,z,1,0.6346,,,,,,,,0,75,75,167,1
,,,,,,,,,,,,,,,,,6107274fc7421bcda19b63fc,22,2022-02-12_16h52.24.133,lexical_decision_task_DD,2021.2.3,Win32,59.89099838,,,,,,,,,,,0.5889,0,,,,,,,,,,,,,,,,,,,,,,,,0.107407437,-0.040740757,0,0,0,,,,,,,FENCE,LB,z,m,./images/FENCELB.png,,,,,,,,,,,,,,,,,,,,,m,0,0.5889,,,,,,,,0,76,76,98,1
,,,,,,,,,,,,,,,,,6107274fc7421bcda19b63fc,22,2022-02-12_16h52.24.133,lexical_decision_task_DD,2021.2.3,Win32,59.89099838,,,,,,,,,,,0.5611,1,,,,,,,,,,,,,,,,,,,,,,,,0.107407437,-0.040740757,0,0,0,,,,,,,POODLE,C,m,m,./images/POODLE.png,,,,,,,,,,,,,,,,,,,,,m,1,0.5611,,,,,,,,0,77,77,81,1
,,,,,,,,,,,,,,,,,6107274fc7421bcda19b63fc,22,2022-02-12_16h52.24.133,lexical_decision_task_DD,2021.2.3,Win32,59.89099838,,,,,,,,,,,0.5971,1,,,,,,,,,,,,,,,,,,,,,,,,0.107407437,-0.040740757,0,0,0,,,,,,,SUNSET,HB,m,m,./images/SUNSETHB.png,,,,,,,,,,,,,,,,,,,,,m,1,0.5971,,,,,,,,0,78,78,82,1
,,,,,,,,,,,,,,,,,6107274fc7421bcda19b63fc,22,2022-02-12_16h52.24.133,lexical_decision_task_DD,2021.2.3,Win32,59.89099838,,,,,,,,,,,0.9954,1,,,,,,,,,,,,,,,,,,,,,,,,0.107407437,-0.040740757,0,0,0,,,,,,,BELLY,HB,m,m,./images/BELLYHB.png,,,,,,,,,,,,,,,,,,,,,m,1,0.9954,,,,,,,,0,79,79,10,1
,,,,,,,,,,,,,,,,,6107274fc7421bcda19b63fc,22,2022-02-12_16h52.24.133,lexical_decision_task_DD,2021.2.3,Win32,59.89099838,,,,,,,,,,,0.7463,1,,,,,,,,,,,,,,,,,,,,,,,,0.107407437,-0.040740757,0,0,0,,,,,,,KITTEN,C,m,m,./images/KITTEN.png,,,,,,,,,,,,,,,,,,,,,m,1,0.7463,,,,,,,,0,80,80,45,1
,,,,,,,,,,,,,,,,,6107274fc7421bcda19b63fc,22,2022-02-12_16h52.24.133,lexical_decision_task_DD,2021.2.3,Win32,59.89099838,,,,,,,,,,,0.7683,1,,,,,,,,,,,,,,,,,,,,,,,,0.107407437,-0.040740757,0,0,0,,,,,,,PARADE,LB,z,m,./images/PARADELB.png,,,,,,,,,,,,,,,,,,,,,z,1,0.7683,,,,,,,,0,81,81,101,1
,,,,,,,,,,,,,,,,,6107274fc7421bcda19b63fc,22,2022-02-12_16h52.24.133,lexical_decision_task_DD,2021.2.3,Win32,59.89099838,,,,,,,,,,,0.6124,1,,,,,,,,,,,,,,,,,,,,,,,,0.107407437,-0.040740757,0,0,0,,,,,,,ONION,C,m,m,./images/ONION.png,,,,,,,,,,,,,,,,,,,,,m,1,0.6124,,,,,,,,0,82,82,51,1
,,,,,,,,,,,,,,,,,6107274fc7421bcda19b63fc,22,2022-02-12_16h52.24.133,lexical_decision_task_DD,2021.2.3,Win32,59.89099838,,,,,,,,,,,0.6963,0,,,,,,,,,,,,,,,,,,,,,,,,0.107407437,-0.040740757,0,0,0,space,,,,,,BURIAL,LB,m,m,./images/BURIALLB.png,0.6764,,,,,,,,,,,,,,,,,,,,z,0,0.6963,,,,,,,,0,83,83,59,1
,,,,,,,,,,,,,,,,,6107274fc7421bcda19b63fc,22,2022-02-12_16h52.24.133,lexical_decision_task_DD,2021.2.3,Win32,59.89099838,,,,,,,,,,,0.6044,1,,,,,,,,,,,,,,,,,,,,,,,,0.107407437,-0.040740757,0,0,0,,,,,,,GLOVE,HB,z,m,./images/GLOVEHB.png,,,,,,,,,,,,,,,,,,,,,z,1,0.6044,,,,,,,,0,84,84,157,1
,,,,,,,,,,,,,,,,,6107274fc7421bcda19b63fc,22,2022-02-12_16h52.24.133,lexical_decision_task_DD,2021.2.3,Win32,59.89099838,,,,,,,,,,,0.5951,1,,,,,,,,,,,,,,,,,,,,,,,,0.107407437,-0.040740757,0,0,0,,,,,,,RAZOR,HB,z,m,./images/RAZORHB.png,,,,,,,,,,,,,,,,,,,,,z,1,0.5951,,,,,,,,0,85,85,118,1
,,,,,,,,,,,,,,,,,6107274fc7421bcda19b63fc,22,2022-02-12_16h52.24.133,lexical_decision_task_DD,2021.2.3,Win32,59.89099838,,,,,,,,,,,0.6635,1,,,,,,,,,,,,,,,,,,,,,,,,0.107407437,-0.040740757,0,0,0,,,,,,,STORM,C,m,m,./images/STORM.png,,,,,,,,,,,,,,,,,,,,,m,1,0.6635,,,,,,,,0,86,86,30,1
,,,,,,,,,,,,,,,,,6107274fc7421bcda19b63fc,22,2022-02-12_16h52.24.133,lexical_decision_task_DD,2021.2.3,Win32,59.89099838,,,,,,,,,,,0.6623,1,,,,,,,,,,,,,,,,,,,,,,,,0.107407437,-0.040740757,0,0,0,,,,,,,STAIN,C,z,m,./images/STAIN.png,,,,,,,,,,,,,,,,,,,,,z,1,0.6623,,,,,,,,0,87,87,90,1
,,,,,,,,,,,,,,,,,6107274fc7421bcda19b63fc,22,2022-02-12_16h52.24.133,lexical_decision_task_DD,2021.2.3,Win32,59.89099838,,,,,,,,,,,0.6425,1,,,,,,,,,,,,,,,,,,,,,,,,0.107407437,-0.040740757,0,0,0,,,,,,,STRING,LB,m,m,./images/STRINGLB.png,,,,,,,,,,,,,,,,,,,,,m,1,0.6425,,,,,,,,0,88,88,41,1
,,,,,,,,,,,,,,,,,6107274fc7421bcda19b63fc,22,2022-02-12_16h52.24.133,lexical_decision_task_DD,2021.2.3,Win32,59.89099838,,,,,,,,,,,1.1661,1,,,,,,,,,,,,,,,,,,,,,,,,0.107407437,-0.040740757,0,0,0,,,,,,,SAILOR,HB,m,m,./images/SAILORHB.png,,,,,,,,,,,,,,,,,,,,,m,1,1.1661,,,,,,,,0,89,89,67,1
,,,,,,,,,,,,,,,,,6107274fc7421bcda19b63fc,22,2022-02-12_16h52.24.133,lexical_decision_task_DD,2021.2.3,Win32,59.89099838,,,,,,,,,,,0.7689,0,,,,,,,,,,,,,,,,,,,,,,,,0.107407437,-0.040740757,0,0,0,,,,,,,CANDY,C,z,m,./images/CANDY.png,,,,,,,,,,,,,,,,,,,,,m,0,0.7689,,,,,,,,0,90,90,123,1
,,,,,,,,,,,,,,,,,6107274fc7421bcda19b63fc,22,2022-02-12_16h52.24.133,lexical_decision_task_DD,2021.2.3,Win32,59.89099838,,,,,,,,,,,0.7463,1,,,,,,,,,,,,,,,,,,,,,,,,0.107407437,-0.040740757,0,0,0,,,,,,,CLOWN,HB,z,m,./images/CLOWNHB.png,,,,,,,,,,,,,,,,,,,,,z,1,0.7463,,,,,,,,0,91,91,106,1
,,,,,,,,,,,,,,,,,6107274fc7421bcda19b63fc,22,2022-02-12_16h52.24.133,lexical_decision_task_DD,2021.2.3,Win32,59.89099838,,,,,,,,,,,0.6042,1,,,,,,,,,,,,,,,,,,,,,,,,0.107407437,-0.040740757,0,0,0,,,,,,,GRANNY,LB,z,m,./images/GRANNYLB.png,,,,,,,,,,,,,,,,,,,,,z,1,0.6042,,,,,,,,0,92,92,104,1
,,,,,,,,,,,,,,,,,6107274fc7421bcda19b63fc,22,2022-02-12_16h52.24.133,lexical_decision_task_DD,2021.2.3,Win32,59.89099838,,,,,,,,,,,0.8305,0,,,,,,,,,,,,,,,,,,,,,,,,0.107407437,-0.040740757,0,0,0,,,,,,,MONKEY,C,z,m,./images/MONKEY.png,,,,,,,,,,,,,,,,,,,,,m,0,0.8305,,,,,,,,0,93,93,129,1
,,,,,,,,,,,,,,,,,6107274fc7421bcda19b63fc,22,2022-02-12_16h52.24.133,lexical_decision_task_DD,2021.2.3,Win32,59.89099838,,,,,,,,,,,0.6233,1,,,,,,,,,,,,,,,,,,,,,,,,0.107407437,-0.040740757,0,0,0,,,,,,,STEAK,HB,z,m,./images/STEAKHB.png,,,,,,,,,,,,,,,,,,,,,z,1,0.6233,,,,,,,,0,94,94,115,1
,,,,,,,,,,,,,,,,,6107274fc7421bcda19b63fc,22,2022-02-12_16h52.24.133,lexical_decision_task_DD,2021.2.3,Win32,59.89099838,,,,,,,,,,,0.6497,1,,,,,,,,,,,,,,,,,,,,,,,,0.107407437,-0.040740757,0,0,0,,,,,,,PACKET,LB,m,m,./images/PACKETLB.png,,,,,,,,,,,,,,,,,,,,,m,1,0.6497,,,,,,,,0,95,95,56,1
,,,,,,,,,,,,,,,,,6107274fc7421bcda19b63fc,22,2022-02-12_16h52.24.133,lexical_decision_task_DD,2021.2.3,Win32,59.89099838,,,,,,,,,,,1.1285,0,,,,,,,,,,,,,,,,,,,,,,,,0.107407437,-0.040740757,0,0,0,,,,,,,PLANET,LB,z,m,./images/PLANETLB.png,,,,,,,,,,,,,,,,,,,,,m,0,1.1285,,,,,,,,0,96,96,164,1
,,,,,,,,,,,,,,,,,6107274fc7421bcda19b63fc,22,2022-02-12_16h52.24.133,lexical_decision_task_DD,2021.2.3,Win32,59.89099838,,,,,,,,,,,0.5103,1,,,,,,,,,,,,,,,,,,,,,,,,0.107407437,-0.040740757,0,0,0,,,,,,,CURRY,C,z,m,./images/CURRY.png,,,,,,,,,,,,,,,,,,,,,z,1,0.5103,,,,,,,,0,97,97,144,1
,,,,,,,,,,,,,,,,,6107274fc7421bcda19b63fc,22,2022-02-12_16h52.24.133,lexical_decision_task_DD,2021.2.3,Win32,59.89099838,,,,,,,,,,,0.6689,1,,,,,,,,,,,,,,,,,,,,,,,,0.107407437,-0.040740757,0,0,0,,,,,,,MUFFIN,HB,m,m,./images/MUFFINHB.png,,,,,,,,,,,,,,,,,,,,,m,1,0.6689,,,,,,,,0,98,98,55,1
,,,,,,,,,,,,,,,,,6107274fc7421bcda19b63fc,22,2022-02-12_16h52.24.133,lexical_decision_task_DD,2021.2.3,Win32,59.89099838,,,,,,,,,,,0.6441,1,,,,,,,,,,,,,,,,,,,,,,,,0.107407437,-0.040740757,0,0,0,,,,,,,FARMER,LB,m,m,./images/FARMERLB.png,,,,,,,,,,,,,,,,,,,,,m,1,0.6441,,,,,,,,0,99,99,65,1
,,,,,,,,,,,,,,,,,6107274fc7421bcda19b63fc,22,2022-02-12_16h52.24.133,lexical_decision_task_DD,2021.2.3,Win32,59.89099838,,,,,,,,,,,0.8251,1,,,,,,,,,,,,,,,,,,,,,,,,0.107407437,-0.040740757,0,0,0,,,,,,,PEBBLE,HB,z,m,./images/PEBBLEHB.png,,,,,,,,,,,,,,,,,,,,,z,1,0.8251,,,,,,,,0,100,100,166,1
,,,,,,,,,,,,,,,,,6107274fc7421bcda19b63fc,22,2022-02-12_16h52.24.133,lexical_decision_task_DD,2021.2.3,Win32,59.89099838,,,,,,,,,,,0.9707,1,,,,,,,,,,,,,,,,,,,,,,,,0.107407437,-0.040740757,0,0,0,,,,,,,THROAT,C,m,m,./images/THROAT.png,,,,,,,,,,,,,,,,,,,,,m,1,0.9707,,,,,,,,0,101,101,36,1
,,,,,,,,,,,,,,,,,6107274fc7421bcda19b63fc,22,2022-02-12_16h52.24.133,lexical_decision_task_DD,2021.2.3,Win32,59.89099838,,,,,,,,,,,0.5776,1,,,,,,,,,,,,,,,,,,,,,,,,0.107407437,-0.040740757,0,0,0,,,,,,,BABOON,HB,m,m,./images/BABOONHB.png,,,,,,,,,,,,,,,,,,,,,m,1,0.5776,,,,,,,,0,102,102,58,1
,,,,,,,,,,,,,,,,,6107274fc7421bcda19b63fc,22,2022-02-12_16h52.24.133,lexical_decision_task_DD,2021.2.3,Win32,59.89099838,,,,,,,,,,,0.5337,1,,,,,,,,,,,,,,,,,,,,,,,,0.107407437,-0.040740757,0,0,0,,,,,,,PICKLE,LB,m,m,./images/PICKLELB.png,,,,,,,,,,,,,,,,,,,,,m,1,0.5337,,,,,,,,0,103,103,14,1
,,,,,,,,,,,,,,,,,6107274fc7421bcda19b63fc,22,2022-02-12_16h52.24.133,lexical_decision_task_DD,2021.2.3,Win32,59.89099838,,,,,,,,,,,0.8156,1,,,,,,,,,,,,,,,,,,,,,,,,0.107407437,-0.040740757,0,0,0,,,,,,,COLLAR,C,z,m,./images/COLLAR.png,,,,,,,,,,,,,,,,,,,,,z,1,0.8156,,,,,,,,0,104,104,99,1
,,,,,,,,,,,,,,,,,6107274fc7421bcda19b63fc,22,2022-02-12_16h52.24.133,lexical_decision_task_DD,2021.2.3,Win32,59.89099838,,,,,,,,,,,0.5607,1,,,,,,,,,,,,,,,,,,,,,,,,0.107407437,-0.040740757,0,0,0,,,,,,,LIZARD,LB,m,m,./images/LIZARDLB.png,,,,,,,,,,,,,,,,,,,,,m,1,0.5607,,,,,,,,0,105,105,44,1
,,,,,,,,,,,,,,,,,6107274fc7421bcda19b63fc,22,2022-02-12_16h52.24.133,lexical_decision_task_DD,2021.2.3,Win32,59.89099838,,,,,,,,,,,0.7456,1,,,,,,,,,,,,,,,,,,,,,,,,0.107407437,-0.040740757,0,0,0,,,,,,,CLOTH,LB,z,m,./images/CLOTHLB.png,,,,,,,,,,,,,,,,,,,,,z,1,0.7456,,,,,,,,0,106,106,107,1
,,,,,,,,,,,,,,,,,6107274fc7421bcda19b63fc,22,2022-02-12_16h52.24.133,lexical_decision_task_DD,2021.2.3,Win32,59.89099838,,,,,,,,,,,0.5794,1,,,,,,,,,,,,,,,,,,,,,,,,0.107407437,-0.040740757,0,0,0,,,,,,,DIVER,C,z,m,./images/DIVER.png,,,,,,,,,,,,,,,,,,,,,z,1,0.5794,,,,,,,,0,107,107,93,1
,,,,,,,,,,,,,,,,,6107274fc7421bcda19b63fc,22,2022-02-12_16h52.24.133,lexical_decision_task_DD,2021.2.3,Win32,59.89099838,,,,,,,,,,,0.6374,0,,,,,,,,,,,,,,,,,,,,,,,,0.107407437,-0.040740757,0,0,0,,,,,,,NOOSE,C,m,m,./images/NOOSE.png,,,,,,,,,,,,,,,,,,,,,z,0,0.6374,,,,,,,,0,108,108,72,1
,,,,,,,,,,,,,,,,,6107274fc7421bcda19b63fc,22,2022-02-12_16h52.24.133,lexical_decision_task_DD,2021.2.3,Win32,59.89099838,,,,,,,,,,,0.5811,1,,,,,,,,,,,,,,,,,,,,,,,,0.107407437,-0.040740757,0,0,0,,,,,,,MIDGET,HB,z,m,./images/MIDGETHB.png,,,,,,,,,,,,,,,,,,,,,z,1,0.5811,,,,,,,,0,109,109,160,1
,,,,,,,,,,,,,,,,,6107274fc7421bcda19b63fc,22,2022-02-12_16h52.24.133,lexical_decision_task_DD,2021.2.3,Win32,59.89099838,,,,,,,,,,,0.6188,1,,,,,,,,,,,,,,,,,,,,,,,,0.107407437,-0.040740757,0,0,0,,,,,,,SQUARE,C,m,m,./images/SQUARE.png,,,,,,,,,,,,,,,,,,,,,m,1,0.6188,,,,,,,,0,110,110,6,1
,,,,,,,,,,,,,,,,,6107274fc7421bcda19b63fc,22,2022-02-12_16h52.24.133,lexical_decision_task_DD,2021.2.3,Win32,59.89099838,,,,,,,,,,,0.6543,1,,,,,,,,,,,,,,,,,,,,,,,,0.107407437,-0.040740757,0,0,0,,,,,,,DANCER,C,z,m,./images/DANCER.png,,,,,,,,,,,,,,,,,,,,,z,1,0.6543,,,,,,,,0,111,111,105,1
,,,,,,,,,,,,,,,,,6107274fc7421bcda19b63fc,22,2022-02-12_16h52.24.133,lexical_decision_task_DD,2021.2.3,Win32,59.89099838,,,,,,,,,,,0.6286,1,,,,,,,,,,,,,,,,,,,,,,,,0.107407437,-0.040740757,0,0,0,,,,,,,JUMPER,LB,z,m,./images/JUMPERLB.png,,,,,,,,,,,,,,,,,,,,,z,1,0.6286,,,,,,,,0,112,112,158,1
,,,,,,,,,,,,,,,,,6107274fc7421bcda19b63fc,22,2022-02-12_16h52.24.133,lexical_decision_task_DD,2021.2.3,Win32,59.89099838,,,,,,,,,,,0.604,1,,,,,,,,,,,,,,,,,,,,,,,,0.107407437,-0.040740757,0,0,0,,,,,,,ENGINE,LB,z,m,./images/ENGINELB.png,,,,,,,,,,,,,,,,,,,,,z,1,0.604,,,,,,,,0,113,113,122,1
,,,,,,,,,,,,,,,,,6107274fc7421bcda19b63fc,22,2022-02-12_16h52.24.133,lexical_decision_task_DD,2021.2.3,Win32,59.89099838,,,,,,,,,,,0.7469,0,,,,,,,,,,,,,,,,,,,,,,,,0.107407437,-0.040740757,0,0,0,,,,,,,WHEEL,LB,z,m,./images/WHEELLB.png,,,,,,,,,,,,,,,,,,,,,m,0,0.7469,,,,,,,,0,114,114,161,1
,,,,,,,,,,,,,,,,,6107274fc7421bcda19b63fc,22,2022-02-12_16h52.24.133,lexical_decision_task_DD,2021.2.3,Win32,59.89099838,,,,,,,,,,,0.7171,1,,,,,,,,,,,,,,,,,,,,,,,,0.107407437,-0.040740757,0,0,0,,,,,,,MUMMY,HB,z,m,./images/MUMMYHB.png,,,,,,,,,,,,,,,,,,,,,z,1,0.7171,,,,,,,,0,115,115,130,1
,,,,,,,,,,,,,,,,,6107274fc7421bcda19b63fc,22,2022-02-12_16h52.24.133,lexical_decision_task_DD,2021.2.3,Win32,59.89099838,,,,,,,,,,,0.7106,1,,,,,,,,,,,,,,,,,,,,,,,,0.107407437,-0.040740757,0,0,0,,,,,,,SNAKE,HB,z,m,./images/SNAKEHB.png,,,,,,,,,,,,,,,,,,,,,z,1,0.7106,,,,,,,,0,116,116,124,1
,,,,,,,,,,,,,,,,,6107274fc7421bcda19b63fc,22,2022-02-12_16h52.24.133,lexical_decision_task_DD,2021.2.3,Win32,59.89099838,,,,,,,,,,,0.5415,0,,,,,,,,,,,,,,,,,,,,,,,,0.107407437,-0.040740757,0,0,0,,,,,,,STREAM,LB,z,m,./images/STREAMLB.png,,,,,,,,,,,,,,,,,,,,,m,0,0.5415,,,,,,,,0,117,117,125,1
,,,,,,,,,,,,,,,,,6107274fc7421bcda19b63fc,22,2022-02-12_16h52.24.133,lexical_decision_task_DD,2021.2.3,Win32,59.89099838,,,,,,,,,,,0.7223,1,,,,,,,,,,,,,,,,,,,,,,,,0.107407437,-0.040740757,0,0,0,,,,,,,ARROW,C,z,m,./images/ARROW.png,,,,,,,,,,,,,,,,,,,,,z,1,0.7223,,,,,,,,0,118,118,153,1
,,,,,,,,,,,,,,,,,6107274fc7421bcda19b63fc,22,2022-02-12_16h52.24.133,lexical_decision_task_DD,2021.2.3,Win32,59.89099838,,,,,,,,,,,0.5464,1,,,,,,,,,,,,,,,,,,,,,,,,0.107407437,-0.040740757,0,0,0,,,,,,,CANYON,HB,m,m,./images/CANYONHB.png,,,,,,,,,,,,,,,,,,,,,m,1,0.5464,,,,,,,,0,119,119,34,1
,,,,,,,,,,,,,,,,,6107274fc7421bcda19b63fc,22,2022-02-12_16h52.24.133,lexical_decision_task_DD,2021.2.3,Win32,59.89099838,,,,,,,,,,,0.6701,1,,,,,,,,,,,,,,,,,,,,,,,,0.107407437,-0.040740757,0,0,0,,,,,,,PURSE,LB,m,m,./images/PURSELB.png,,,,,,,,,,,,,,,,,,,,,m,1,0.6701,,,,,,,,0,120,120,62,1
,,,,,,,,,,,,,,,,,6107274fc7421bcda19b63fc,22,2022-02-12_16h52.24.133,lexical_decision_task_DD,2021.2.3,Win32,59.89099838,,,,,,,,,,,0.5677,1,,,,,,,,,,,,,,,,,,,,,,,,0.107407437,-0.040740757,0,0,0,,,,,,,MAGGOT,C,m,m,./images/MAGGOT.png,,,,,,,,,,,,,,,,,,,,,m,1,0.5677,,,,,,,,0,121,121,33,1
,,,,,,,,,,,,,,,,,6107274fc7421bcda19b63fc,22,2022-02-12_16h52.24.133,lexical_decision_task_DD,2021.2.3,Win32,59.89099838,,,,,,,,,,,0.7158,1,,,,,,,,,,,,,,,,,,,,,,,,0.107407437,-0.040740757,0,0,0,,,,,,,STOOL,HB,z,m,./images/STOOLHB.png,,,,,,,,,,,,,,,,,,,,,z,1,0.7158,,,,,,,,0,122,122,127,1
,,,,,,,,,,,,,,,,,6107274fc7421bcda19b63fc,22,2022-02-12_16h52.24.133,lexical_decision_task_DD,2021.2.3,Win32,59.89099838,,,,,,,,,,,0.6457,1,,,,,,,,,,,,,,,,,,,,,,,,0.107407437,-0.040740757,0,0,0,,,,,,,MALLET,LB,m,m,./images/MALLETLB.png,,,,,,,,,,,,,,,,,,,,,m,1,0.6457,,,,,,,,0,123,123,50,1
,,,,,,,,,,,,,,,,,6107274fc7421bcda19b63fc,22,2022-02-12_16h52.24.133,lexical_decision_task_DD,2021.2.3,Win32,59.89099838,,,,,,,,,,,0.5213,1,,,,,,,,,,,,,,,,,,,,,,,,0.107407437,-0.040740757,0,0,0,,,,,,,JAGUAR,C,m,m,./images/JAGUAR.png,,,,,,,,,,,,,,,,,,,,,m,1,0.5213,,,,,,,,0,124,124,18,1
,,,,,,,,,,,,,,,,,6107274fc7421bcda19b63fc,22,2022-02-12_16h52.24.133,lexical_decision_task_DD,2021.2.3,Win32,59.89099838,,,,,,,,,,,0.5302,1,,,,,,,,,,,,,,,,,,,,,,,,0.107407437,-0.040740757,0,0,0,space,,,,,,BLOKE,C,z,m,./images/BLOKE.png,0.7996,,,,,,,,,,,,,,,,,,,,z,1,0.5302,,,,,,,,0,125,125,96,1
,,,,,,,,,,,,,,,,,6107274fc7421bcda19b63fc,22,2022-02-12_16h52.24.133,lexical_decision_task_DD,2021.2.3,Win32,59.89099838,,,,,,,,,,,0.6774,1,,,,,,,,,,,,,,,,,,,,,,,,0.107407437,-0.040740757,0,0,0,,,,,,,WEASEL,LB,m,m,./images/WEASELLB.png,,,,,,,,,,,,,,,,,,,,,m,1,0.6774,,,,,,,,0,126,126,80,1
,,,,,,,,,,,,,,,,,6107274fc7421bcda19b63fc,22,2022-02-12_16h52.24.133,lexical_decision_task_DD,2021.2.3,Win32,59.89099838,,,,,,,,,,,0.6,1,,,,,,,,,,,,,,,,,,,,,,,,0.107407437,-0.040740757,0,0,0,,,,,,,MOOSE,C,m,m,./images/MOOSE.png,,,,,,,,,,,,,,,,,,,,,m,1,0.6,,,,,,,,0,127,127,57,1
,,,,,,,,,,,,,,,,,6107274fc7421bcda19b63fc,22,2022-02-12_16h52.24.133,lexical_decision_task_DD,2021.2.3,Win32,59.89099838,,,,,,,,,,,0.5149,1,,,,,,,,,,,,,,,,,,,,,,,,0.107407437,-0.040740757,0,0,0,,,,,,,PASTA,LB,m,m,./images/PASTALB.png,,,,,,,,,,,,,,,,,,,,,m,1,0.5149,,,,,,,,0,128,128,5,1
,,,,,,,,,,,,,,,,,6107274fc7421bcda19b63fc,22,2022-02-12_16h52.24.133,lexical_decision_task_DD,2021.2.3,Win32,59.89099838,,,,,,,,,,,1.0195,1,,,,,,,,,,,,,,,,,,,,,,,,0.107407437,-0.040740757,0,0,0,,,,,,,VALLEY,LB,z,m,./images/VALLEYLB.png,,,,,,,,,,,,,,,,,,,,,z,1,1.0195,,,,,,,,0,129,129,152,1
,,,,,,,,,,,,,,,,,6107274fc7421bcda19b63fc,22,2022-02-12_16h52.24.133,lexical_decision_task_DD,2021.2.3,Win32,59.89099838,,,,,,,,,,,0.5622,1,,,,,,,,,,,,,,,,,,,,,,,,0.107407437,-0.040740757,0,0,0,,,,,,,TOWEL,HB,z,m,./images/TOWELHB.png,,,,,,,,,,,,,,,,,,,,,z,1,0.5622,,,,,,,,0,130,130,85,1
,,,,,,,,,,,,,,,,,6107274fc7421bcda19b63fc,22,2022-02-12_16h52.24.133,lexical_decision_task_DD,2021.2.3,Win32,59.89099838,,,,,,,,,,,0.7278,0,,,,,,,,,,,,,,,,,,,,,,,,0.107407437,-0.040740757,0,0,0,,,,,,,TORCH,LB,m,m,./images/TORCHLB.png,,,,,,,,,,,,,,,,,,,,,z,0,0.7278,,,,,,,,0,131,131,68,1
,,,,,,,,,,,,,,,,,6107274fc7421bcda19b63fc,22,2022-02-12_16h52.24.133,lexical_decision_task_DD,2021.2.3,Win32,59.89099838,,,,,,,,,,,0.6006,1,,,,,,,,,,,,,,,,,,,,,,,,0.107407437,-0.040740757,0,0,0,,,,,,,JELLY,HB,m,m,./images/JELLYHB.png,,,,,,,,,,,,,,,,,,,,,m,1,0.6006,,,,,,,,0,132,132,64,1
,,,,,,,,,,,,,,,,,6107274fc7421bcda19b63fc,22,2022-02-12_16h52.24.133,lexical_decision_task_DD,2021.2.3,Win32,59.89099838,,,,,,,,,,,0.5603,1,,,,,,,,,,,,,,,,,,,,,,,,0.107407437,-0.040740757,0,0,0,,,,,,,RHINO,C,m,m,./images/RHINO.png,,,,,,,,,,,,,,,,,,,,,m,1,0.5603,,,,,,,,0,133,133,9,1
,,,,,,,,,,,,,,,,,6107274fc7421bcda19b63fc,22,2022-02-12_16h52.24.133,lexical_decision_task_DD,2021.2.3,Win32,59.89099838,,,,,,,,,,,0.5774,1,,,,,,,,,,,,,,,,,,,,,,,,0.107407437,-0.040740757,0,0,0,,,,,,,MOTOR,HB,m,m,./images/MOTORHB.png,,,,,,,,,,,,,,,,,,,,,m,1,0.5774,,,,,,,,0,134,134,13,1
