key_resp.keys,instr_done_touch.x,instr_done_touch.y,instr_done_touch.leftButton,instr_done_touch.midButton,instr_done_touch.rightButton,instr_done_touch.clicked_name,instruction_pages.thisRepN,instruction_pages.thisTrialN,instruction_pages.thisN,instruction_pages.thisIndex,instruction_pages.ran,pageN,phase,instruct_text,has_image,instruct_image,participant,age,date,expName,psychopyVersion,OS,frameRate,response.keys,response.corr,touch_resp.x,touch_resp.y,touch_resp.leftButton,touch_resp.midButton,touch_resp.rightButton,touch_resp.time,touch_resp.clicked_name,rt,corr,practrials.thisRepN,practrials.thisTrialN,practrials.thisN,practrials.thisIndex,practrials.ran,TrialID,Target,corrAns,end_of_practice_trials_pages.thisRepN,end_of_practice_trials_pages.thisTrialN,end_of_practice_trials_pages.thisN,end_of_practice_trials_pages.thisIndex,end_of_practice_trials_pages.ran,key_resp_2.keys,key_resp_2.corr,targ_click.x,targ_click.y,targ_click.leftButton,targ_click.midButton,targ_click.rightButton,targ_click.time,targ_click.clicked_name,break_done_touch.x,break_done_touch.y,break_done_touch.leftButton,break_done_touch.midButton,break_done_touch.rightButton,break_done_keyboard.keys,maintrials.thisRepN,maintrials.thisTrialN,maintrials.thisN,maintrials.thisIndex,maintrials.ran,string,blur,study,lex,stim_path,break_done_touch.clicked_name,mouse_2.x,mouse_2.y,mouse_2.leftButton,mouse_2.midButton,mouse_2.rightButton,mouse_2.clicked_name,slider.response,slider.rt,trials.thisRepN,trials.thisTrialN,trials.thisN,trials.thisIndex,trials.ran,test_instructions.thisRepN,test_instructions.thisTrialN,test_instructions.thisN,test_instructions.thisIndex,test_instructions.ran,key_resp_3.keys,key_resp_3.corr,test_click.x,test_click.y,test_click.leftButton,test_click.midButton,test_click.rightButton,test_click.time,test_click.clicked_name,test_phase.thisRepN,test_phase.thisTrialN,test_phase.thisN,test_phase.thisIndex,test_phase.ran
,0.129591837,-0.393367347,1,0,0,instr_done_button,0,0,0,0,1,1,instructions,"INSTRUCTIONS
At the start of each trial, look at the plus sign  (+) in the center of the screen.  This tells you that a trial is about to begin and where to look. Second, the plus sign will disappear and a string of letters will appear. Your task is to determine if the string of letters is a word or not. If the item is a word press the M key (on keyboard)  or touch the word button (phone/tablet).  If the item is not a word,  press the  Z key (on keyboard)  or touch the nonword button (on phone/tablet). 
Press the space bar or touch  continue.",0,,610841cb623bdc27b95987b2,27,2022-02-12_12h19.53.952,lexical_decision_task_DD_L6,2021.2.3,iPhone,58.82352941,,,,,,,,,,,,,,,,,,,,,,,,,,,,,,,,,,,,,,,,,,,,,,,,,,,,,,,,,,,,,,,,,,,,,,,,,,,,,,,,,,
,0.125510204,-0.396428571,1,0,0,instr_done_button,0,1,1,1,1,2,instructions,"If your device has a keyboard, press the 'Z' key for nonwords and the 'M' key for words.





Press the space bar or touch the button below to continue.",0,keyboard-example.gif,610841cb623bdc27b95987b2,27,2022-02-12_12h19.53.952,lexical_decision_task_DD_L6,2021.2.3,iPhone,58.82352941,,,,,,,,,,,,,,,,,,,,,,,,,,,,,,,,,,,,,,,,,,,,,,,,,,,,,,,,,,,,,,,,,,,,,,,,,,,,,,,,,,
,0.119387755,-0.387244898,1,0,0,instr_done_button,0,2,2,2,1,3,instructions,"If you are using a touchscreen only device, use the buttons on the screen. Do not use the mouse.





Press the space bar or touch the button below to continue.",0,touchscreen-example.gif,610841cb623bdc27b95987b2,27,2022-02-12_12h19.53.952,lexical_decision_task_DD_L6,2021.2.3,iPhone,58.82352941,,,,,,,,,,,,,,,,,,,,,,,,,,,,,,,,,,,,,,,,,,,,,,,,,,,,,,,,,,,,,,,,,,,,,,,,,,,,,,,,,,
,0.141836735,-0.387244898,1,0,0,instr_done_button,0,3,3,3,1,4,instructions,"It is very important that you respond as quickly and accurately as possible, as each letter string will only be on the screen for two seconds. If you do not respond within this time, the message 'Too slow!' will be displayed and the experiment will progress to the next letter string. The first 20 trials will be practice trials and you will receive feedback on your answers. 

Press the space bar or touch the button below to start the practice trials.",0,,610841cb623bdc27b95987b2,27,2022-02-12_12h19.53.952,lexical_decision_task_DD_L6,2021.2.3,iPhone,58.82352941,,,,,,,,,,,,,,,,,,,,,,,,,,,,,,,,,,,,,,,,,,,,,,,,,,,,,,,,,,,,,,,,,,,,,,,,,,,,,,,,,,
,,,,,,,,,,,,,,,,,610841cb623bdc27b95987b2,27,2022-02-12_12h19.53.952,lexical_decision_task_DD_L6,2021.2.3,iPhone,58.82352941,,0,-0.259183673,-0.35255102,1,0,0,1.366,button_left,1.366,1,0,0,0,15,1,1001,WHAISE,z,,,,,,,,,,,,,,,,,,,,,,,,,,,,,,,,,,,,,,,,,,,,,,,,,,,,,,,,,,,,,,,
,,,,,,,,,,,,,,,,,610841cb623bdc27b95987b2,27,2022-02-12_12h19.53.952,lexical_decision_task_DD_L6,2021.2.3,iPhone,58.82352941,,0,-0.307142857,-0.300510204,1,0,0,1.005,button_left,1.005,1,0,1,1,9,1,1001,FARINY,z,,,,,,,,,,,,,,,,,,,,,,,,,,,,,,,,,,,,,,,,,,,,,,,,,,,,,,,,,,,,,,,
,,,,,,,,,,,,,,,,,610841cb623bdc27b95987b2,27,2022-02-12_12h19.53.952,lexical_decision_task_DD_L6,2021.2.3,iPhone,58.82352941,,0,-0.321428571,-0.311734694,1,0,0,0.804,button_left,0.804,1,0,2,2,14,1,1001,THRALE,z,,,,,,,,,,,,,,,,,,,,,,,,,,,,,,,,,,,,,,,,,,,,,,,,,,,,,,,,,,,,,,,
,,,,,,,,,,,,,,,,,610841cb623bdc27b95987b2,27,2022-02-12_12h19.53.952,lexical_decision_task_DD_L6,2021.2.3,iPhone,58.82352941,,0,0.373469388,-0.309693878,1,0,0,0.804,button_right,0.804,1,0,3,3,2,1,1001,ALMOND,m,,,,,,,,,,,,,,,,,,,,,,,,,,,,,,,,,,,,,,,,,,,,,,,,,,,,,,,,,,,,,,,
,,,,,,,,,,,,,,,,,610841cb623bdc27b95987b2,27,2022-02-12_12h19.53.952,lexical_decision_task_DD_L6,2021.2.3,iPhone,58.82352941,,0,-0.33877551,-0.342346939,1,0,0,0.971,button_left,0.971,1,0,4,4,8,1,1001,ASLERT,z,,,,,,,,,,,,,,,,,,,,,,,,,,,,,,,,,,,,,,,,,,,,,,,,,,,,,,,,,,,,,,,
,,,,,,,,,,,,,,,,,610841cb623bdc27b95987b2,27,2022-02-12_12h19.53.952,lexical_decision_task_DD_L6,2021.2.3,iPhone,58.82352941,,0,0.355102041,-0.307653061,1,0,0,0.738,button_right,0.738,0,0,5,5,12,1,1001,SPRINY,z,,,,,,,,,,,,,,,,,,,,,,,,,,,,,,,,,,,,,,,,,,,,,,,,,,,,,,,,,,,,,,,
,,,,,,,,,,,,,,,,,610841cb623bdc27b95987b2,27,2022-02-12_12h19.53.952,lexical_decision_task_DD_L6,2021.2.3,iPhone,58.82352941,,0,0.373469388,-0.296428571,1,0,0,1.238,button_right,1.238,1,0,6,6,1,1,1001,ADJUST,m,,,,,,,,,,,,,,,,,,,,,,,,,,,,,,,,,,,,,,,,,,,,,,,,,,,,,,,,,,,,,,,
,,,,,,,,,,,,,,,,,610841cb623bdc27b95987b2,27,2022-02-12_12h19.53.952,lexical_decision_task_DD_L6,2021.2.3,iPhone,58.82352941,,0,-0.284693878,-0.275,1,0,0,0.955,button_left,0.955,1,0,7,7,11,1,1001,RASHET,z,,,,,,,,,,,,,,,,,,,,,,,,,,,,,,,,,,,,,,,,,,,,,,,,,,,,,,,,,,,,,,,
,,,,,,,,,,,,,,,,,610841cb623bdc27b95987b2,27,2022-02-12_12h19.53.952,lexical_decision_task_DD_L6,2021.2.3,iPhone,58.82352941,,0,0.326530612,-0.326020408,1,0,0,0.721,button_right,0.721,1,0,8,8,6,1,1001,ZOMBIE,m,,,,,,,,,,,,,,,,,,,,,,,,,,,,,,,,,,,,,,,,,,,,,,,,,,,,,,,,,,,,,,,
,,,,,,,,,,,,,,,,,610841cb623bdc27b95987b2,27,2022-02-12_12h19.53.952,lexical_decision_task_DD_L6,2021.2.3,iPhone,58.82352941,,0,0.298979592,-0.320918367,1,0,0,0.722,button_right,0.722,1,0,9,9,4,1,1001,SQUEAK,m,,,,,,,,,,,,,,,,,,,,,,,,,,,,,,,,,,,,,,,,,,,,,,,,,,,,,,,,,,,,,,,
,,,,,,,,,,,,,,,,,610841cb623bdc27b95987b2,27,2022-02-12_12h19.53.952,lexical_decision_task_DD_L6,2021.2.3,iPhone,58.82352941,,0,-0.276530612,-0.273979592,1,0,0,0.838,button_left,0.838,1,0,10,10,10,1,1001,INLADE,z,,,,,,,,,,,,,,,,,,,,,,,,,,,,,,,,,,,,,,,,,,,,,,,,,,,,,,,,,,,,,,,
,,,,,,,,,,,,,,,,,610841cb623bdc27b95987b2,27,2022-02-12_12h19.53.952,lexical_decision_task_DD_L6,2021.2.3,iPhone,58.82352941,,0,-0.284693878,-0.287244898,1,0,0,0.754,button_left,0.754,1,0,11,11,13,1,1001,ROUPET,z,,,,,,,,,,,,,,,,,,,,,,,,,,,,,,,,,,,,,,,,,,,,,,,,,,,,,,,,,,,,,,,
,,,,,,,,,,,,,,,,,610841cb623bdc27b95987b2,27,2022-02-12_12h19.53.952,lexical_decision_task_DD_L6,2021.2.3,iPhone,58.82352941,,0,0.345918367,-0.307653061,1,0,0,0.87,button_right,0.87,1,0,12,12,3,1,1001,MATRIX,m,,,,,,,,,,,,,,,,,,,,,,,,,,,,,,,,,,,,,,,,,,,,,,,,,,,,,,,,,,,,,,,
,,,,,,,,,,,,,,,,,610841cb623bdc27b95987b2,27,2022-02-12_12h19.53.952,lexical_decision_task_DD_L6,2021.2.3,iPhone,58.82352941,,0,0.3,-0.293367347,1,0,0,0.669,button_right,0.669,1,0,13,13,5,1,1001,OBTAIN,m,,,,,,,,,,,,,,,,,,,,,,,,,,,,,,,,,,,,,,,,,,,,,,,,,,,,,,,,,,,,,,,
,,,,,,,,,,,,,,,,,610841cb623bdc27b95987b2,27,2022-02-12_12h19.53.952,lexical_decision_task_DD_L6,2021.2.3,iPhone,58.82352941,,0,0.336734694,-0.332142857,1,0,0,0.839,button_right,0.839,1,0,14,14,0,1,1001,UTOPIA,m,,,,,,,,,,,,,,,,,,,,,,,,,,,,,,,,,,,,,,,,,,,,,,,,,,,,,,,,,,,,,,,
,,,,,,,,,,,,,,,,,610841cb623bdc27b95987b2,27,2022-02-12_12h19.53.952,lexical_decision_task_DD_L6,2021.2.3,iPhone,58.82352941,,0,0.316326531,-0.305612245,1,0,0,0.636,button_right,0.636,1,0,15,15,7,1,1001,VOLUME,m,,,,,,,,,,,,,,,,,,,,,,,,,,,,,,,,,,,,,,,,,,,,,,,,,,,,,,,,,,,,,,,
,0.092857143,-0.400510204,1,0,0,instr_done_button,,,,,,1,end_of_practice,"You have completed the practice trials. During the experimental trials, you will not receive feedback. 
Before you begin, please ensure that you are in a comfortable and quiet location and will not be disturbed for about 15 minutes, as we cannot use your data if you do not complete all the trials. 
 When you are ready to start the experimental trials, please press space or touch the button below.",,,610841cb623bdc27b95987b2,27,2022-02-12_12h19.53.952,lexical_decision_task_DD_L6,2021.2.3,iPhone,58.82352941,,,,,,,,,,,,,,,,,,,,0,0,0,0,1,,,,,,,,,,,,,,,,,,,,,,,,,,,,,,,,,,,,,,,,,,,,,,,,,,,,,,,,,,
,,,,,,,,,,,,,,,,,610841cb623bdc27b95987b2,27,2022-02-12_12h19.53.952,lexical_decision_task_DD_L6,2021.2.3,iPhone,58.82352941,,,,,,,,,,1.818,1,,,,,,,,,,,,,,,0,0.334693878,-0.339285714,1,0,0,1.818,button_right_main,0.334693878,-0.339285714,1,0,0,,0,0,0,74,1,JUMPER,HB,m,m,./images/JUMPERHB.png,,,,,,,,,,,,,,,,,,,,,,,,,,,,,,,,,
,,,,,,,,,,,,,,,,,610841cb623bdc27b95987b2,27,2022-02-12_12h19.53.952,lexical_decision_task_DD_L6,2021.2.3,iPhone,58.82352941,,,,,,,,,,0.772,1,,,,,,,,,,,,,,,0,0.341836735,-0.26377551,1,0,0,0.772,button_right_main,0.341836735,-0.26377551,1,0,0,,0,1,1,2,1,STOVE,HB,m,m,./images/STOVEHB.png,,,,,,,,,,,,,,,,,,,,,,,,,,,,,,,,,
,,,,,,,,,,,,,,,,,610841cb623bdc27b95987b2,27,2022-02-12_12h19.53.952,lexical_decision_task_DD_L6,2021.2.3,iPhone,58.82352941,,,,,,,,,,1.123,1,,,,,,,,,,,,,,,0,0.32244898,-0.315816327,1,0,0,1.123,button_right_main,0.32244898,-0.315816327,1,0,0,,0,2,2,11,1,MEDAL,HB,m,m,./images/MEDALHB.png,,,,,,,,,,,,,,,,,,,,,,,,,,,,,,,,,
,,,,,,,,,,,,,,,,,610841cb623bdc27b95987b2,27,2022-02-12_12h19.53.952,lexical_decision_task_DD_L6,2021.2.3,iPhone,58.82352941,,,,,,,,,,1.09,1,,,,,,,,,,,,,,,0,-0.298979592,-0.296428571,1,0,0,1.09,button_left_main,-0.298979592,-0.296428571,1,0,0,,0,3,3,112,1,MYING,HB,z,z,./images/MYINGHB.png,,,,,,,,,,,,,,,,,,,,,,,,,,,,,,,,,
,,,,,,,,,,,,,,,,,610841cb623bdc27b95987b2,27,2022-02-12_12h19.53.952,lexical_decision_task_DD_L6,2021.2.3,iPhone,58.82352941,,,,,,,,,,0.871,1,,,,,,,,,,,,,,,0,0.375510204,-0.295408163,1,0,0,0.871,button_right_main,0.375510204,-0.295408163,1,0,0,,0,4,4,1,1,TOWEL,C,m,m,./images/TOWEL.png,,,,,,,,,,,,,,,,,,,,,,,,,,,,,,,,,
,,,,,,,,,,,,,,,,,610841cb623bdc27b95987b2,27,2022-02-12_12h19.53.952,lexical_decision_task_DD_L6,2021.2.3,iPhone,58.82352941,,,,,,,,,,1.187,1,,,,,,,,,,,,,,,0,-0.307142857,-0.354591837,1,0,0,1.187,button_left_main,-0.307142857,-0.354591837,1,0,0,,0,5,5,119,1,PAFER,LB,z,z,./images/PAFERLB.png,,,,,,,,,,,,,,,,,,,,,,,,,,,,,,,,,
,,,,,,,,,,,,,,,,,610841cb623bdc27b95987b2,27,2022-02-12_12h19.53.952,lexical_decision_task_DD_L6,2021.2.3,iPhone,58.82352941,,,,,,,,,,0.823,1,,,,,,,,,,,,,,,0,0.365306122,-0.291326531,1,0,0,0.823,button_right_main,0.365306122,-0.291326531,1,0,0,,0,6,6,61,1,ARTIST,C,m,m,./images/ARTIST.png,,,,,,,,,,,,,,,,,,,,,,,,,,,,,,,,,
,,,,,,,,,,,,,,,,,610841cb623bdc27b95987b2,27,2022-02-12_12h19.53.952,lexical_decision_task_DD_L6,2021.2.3,iPhone,58.82352941,,,,,,,,,,0.755,1,,,,,,,,,,,,,,,0,0.364285714,-0.242346939,1,0,0,0.755,button_right_main,0.364285714,-0.242346939,1,0,0,,0,7,7,30,1,SLOPE,LB,m,m,./images/SLOPELB.png,,,,,,,,,,,,,,,,,,,,,,,,,,,,,,,,,
,,,,,,,,,,,,,,,,,610841cb623bdc27b95987b2,27,2022-02-12_12h19.53.952,lexical_decision_task_DD_L6,2021.2.3,iPhone,58.82352941,,,,,,,,,,0.622,1,,,,,,,,,,,,,,,0,0.366326531,-0.304591837,1,0,0,0.622,button_right_main,0.366326531,-0.304591837,1,0,0,,0,8,8,66,1,STATUE,LB,m,m,./images/STATUELB.png,,,,,,,,,,,,,,,,,,,,,,,,,,,,,,,,,
,,,,,,,,,,,,,,,,,610841cb623bdc27b95987b2,27,2022-02-12_12h19.53.952,lexical_decision_task_DD_L6,2021.2.3,iPhone,58.82352941,,,,,,,,,,0.805,1,,,,,,,,,,,,,,,0,-0.294897959,-0.307653061,1,0,0,0.805,button_left_main,-0.294897959,-0.307653061,1,0,0,,0,9,9,90,1,NEAST,C,z,z,./images/NEAST.png,,,,,,,,,,,,,,,,,,,,,,,,,,,,,,,,,
,,,,,,,,,,,,,,,,,610841cb623bdc27b95987b2,27,2022-02-12_12h19.53.952,lexical_decision_task_DD_L6,2021.2.3,iPhone,58.82352941,,,,,,,,,,1.103,1,,,,,,,,,,,,,,,0,-0.297959184,-0.310714286,1,0,0,1.103,button_left_main,-0.297959184,-0.310714286,1,0,0,,0,10,10,115,1,MAWNS,HB,z,z,./images/MAWNSHB.png,,,,,,,,,,,,,,,,,,,,,,,,,,,,,,,,,
,,,,,,,,,,,,,,,,,610841cb623bdc27b95987b2,27,2022-02-12_12h19.53.952,lexical_decision_task_DD_L6,2021.2.3,iPhone,58.82352941,,,,,,,,,,0.988,0,,,,,,,,,,,,,,,0,0.345918367,-0.300510204,1,0,0,0.988,button_right_main,0.345918367,-0.300510204,1,0,0,,0,11,11,127,1,NINDY,HB,z,z,./images/NINDYHB.png,,,,,,,,,,,,,,,,,,,,,,,,,,,,,,,,,
,,,,,,,,,,,,,,,,,610841cb623bdc27b95987b2,27,2022-02-12_12h19.53.952,lexical_decision_task_DD_L6,2021.2.3,iPhone,58.82352941,,,,,,,,,,0.655,1,,,,,,,,,,,,,,,0,0.318367347,-0.282142857,1,0,0,0.655,button_right_main,0.318367347,-0.282142857,1,0,0,,0,12,12,16,1,GRAPE,C,m,m,./images/GRAPE.png,,,,,,,,,,,,,,,,,,,,,,,,,,,,,,,,,
,,,,,,,,,,,,,,,,,610841cb623bdc27b95987b2,27,2022-02-12_12h19.53.952,lexical_decision_task_DD_L6,2021.2.3,iPhone,58.82352941,,,,,,,,,,1.038,1,,,,,,,,,,,,,,,0,-0.306122449,-0.342346939,1,0,0,1.038,button_left_main,-0.306122449,-0.342346939,1,0,0,,0,13,13,123,1,SEDGE,C,z,z,./images/SEDGE.png,,,,,,,,,,,,,,,,,,,,,,,,,,,,,,,,,
,,,,,,,,,,,,,,,,,610841cb623bdc27b95987b2,27,2022-02-12_12h19.53.952,lexical_decision_task_DD_L6,2021.2.3,iPhone,58.82352941,,,,,,,,,,1.121,1,,,,,,,,,,,,,,,0,-0.298979592,-0.308673469,1,0,0,1.121,button_left_main,-0.298979592,-0.308673469,1,0,0,,0,14,14,104,1,GITTY,LB,z,z,./images/GITTYLB.png,,,,,,,,,,,,,,,,,,,,,,,,,,,,,,,,,
,,,,,,,,,,,,,,,,,610841cb623bdc27b95987b2,27,2022-02-12_12h19.53.952,lexical_decision_task_DD_L6,2021.2.3,iPhone,58.82352941,,,,,,,,,,0.922,1,,,,,,,,,,,,,,,0,-0.239795918,-0.26377551,1,0,0,0.922,button_left_main,-0.239795918,-0.26377551,1,0,0,,0,15,15,116,1,BALGY,LB,z,z,./images/BALGYLB.png,,,,,,,,,,,,,,,,,,,,,,,,,,,,,,,,,
,,,,,,,,,,,,,,,,,610841cb623bdc27b95987b2,27,2022-02-12_12h19.53.952,lexical_decision_task_DD_L6,2021.2.3,iPhone,58.82352941,,,,,,,,,,0.838,1,,,,,,,,,,,,,,,0,0.337755102,-0.301530612,1,0,0,0.838,button_right_main,0.337755102,-0.301530612,1,0,0,,0,16,16,83,1,WHISKY,HB,m,m,./images/WHISKYHB.png,,,,,,,,,,,,,,,,,,,,,,,,,,,,,,,,,
,,,,,,,,,,,,,,,,,610841cb623bdc27b95987b2,27,2022-02-12_12h19.53.952,lexical_decision_task_DD_L6,2021.2.3,iPhone,58.82352941,,,,,,,,,,1.221,1,,,,,,,,,,,,,,,0,-0.319387755,-0.306632653,1,0,0,1.221,button_left_main,-0.319387755,-0.306632653,1,0,0,,0,17,17,88,1,GLUSH,HB,z,z,./images/GLUSHHB.png,,,,,,,,,,,,,,,,,,,,,,,,,,,,,,,,,
,,,,,,,,,,,,,,,,,610841cb623bdc27b95987b2,27,2022-02-12_12h19.53.952,lexical_decision_task_DD_L6,2021.2.3,iPhone,58.82352941,,,,,,,,,,1.17,1,,,,,,,,,,,,,,,0,0.37755102,-0.305612245,1,0,0,1.17,button_right_main,0.37755102,-0.305612245,1,0,0,,0,18,18,57,1,FERRY,LB,m,m,./images/FERRYLB.png,,,,,,,,,,,,,,,,,,,,,,,,,,,,,,,,,
,,,,,,,,,,,,,,,,,610841cb623bdc27b95987b2,27,2022-02-12_12h19.53.952,lexical_decision_task_DD_L6,2021.2.3,iPhone,58.82352941,,,,,,,,,,0.755,0,,,,,,,,,,,,,,,0,0.323469388,-0.285204082,1,0,0,0.755,button_right_main,0.323469388,-0.285204082,1,0,0,,0,19,19,137,1,JOOST,LB,z,z,./images/JOOSTLB.png,,,,,,,,,,,,,,,,,,,,,,,,,,,,,,,,,
,,,,,,,,,,,,,,,,,610841cb623bdc27b95987b2,27,2022-02-12_12h19.53.952,lexical_decision_task_DD_L6,2021.2.3,iPhone,58.82352941,,,,,,,,,,1.072,1,,,,,,,,,,,,,,,0,-0.303061224,-0.300510204,1,0,0,1.072,button_left_main,-0.303061224,-0.300510204,1,0,0,,0,20,20,167,1,ZONET,LB,z,z,./images/ZONETLB.png,,,,,,,,,,,,,,,,,,,,,,,,,,,,,,,,,
,,,,,,,,,,,,,,,,,610841cb623bdc27b95987b2,27,2022-02-12_12h19.53.952,lexical_decision_task_DD_L6,2021.2.3,iPhone,58.82352941,,,,,,,,,,1.155,1,,,,,,,,,,,,,,,0,0.346938776,-0.301530612,1,0,0,1.155,button_right_main,0.346938776,-0.301530612,1,0,0,,0,21,21,23,1,CLOTH,HB,m,m,./images/CLOTHHB.png,,,,,,,,,,,,,,,,,,,,,,,,,,,,,,,,,
,,,,,,,,,,,,,,,,,610841cb623bdc27b95987b2,27,2022-02-12_12h19.53.952,lexical_decision_task_DD_L6,2021.2.3,iPhone,58.82352941,,,,,,,,,,1.054,1,,,,,,,,,,,,,,,0,0.302040816,-0.31377551,1,0,0,1.054,button_right_main,0.302040816,-0.31377551,1,0,0,,0,22,22,56,1,HEATER,HB,m,m,./images/HEATERHB.png,,,,,,,,,,,,,,,,,,,,,,,,,,,,,,,,,
,,,,,,,,,,,,,,,,,610841cb623bdc27b95987b2,27,2022-02-12_12h19.53.952,lexical_decision_task_DD_L6,2021.2.3,iPhone,58.82352941,,,,,,,,,,1.072,1,,,,,,,,,,,,,,,0,0.310204082,-0.30255102,1,0,0,1.072,button_right_main,0.310204082,-0.30255102,1,0,0,,0,23,23,35,1,LLAMA,HB,m,m,./images/LLAMAHB.png,,,,,,,,,,,,,,,,,,,,,,,,,,,,,,,,,
,,,,,,,,,,,,,,,,,610841cb623bdc27b95987b2,27,2022-02-12_12h19.53.952,lexical_decision_task_DD_L6,2021.2.3,iPhone,58.82352941,,,,,,,,,,0.971,1,,,,,,,,,,,,,,,0,-0.307142857,-0.309693878,1,0,0,0.971,button_left_main,-0.307142857,-0.309693878,1,0,0,,0,24,24,125,1,MOOKY,LB,z,z,./images/MOOKYLB.png,,,,,,,,,,,,,,,,,,,,,,,,,,,,,,,,,
,,,,,,,,,,,,,,,,,610841cb623bdc27b95987b2,27,2022-02-12_12h19.53.952,lexical_decision_task_DD_L6,2021.2.3,iPhone,58.82352941,,,,,,,,,,1.17,1,,,,,,,,,,,,,,,0,-0.258163265,-0.278061224,1,0,0,1.17,button_left_main,-0.258163265,-0.278061224,1,0,0,,0,25,25,91,1,SHENS,HB,z,z,./images/SHENSHB.png,,,,,,,,,,,,,,,,,,,,,,,,,,,,,,,,,
,,,,,,,,,,,,,,,,,610841cb623bdc27b95987b2,27,2022-02-12_12h19.53.952,lexical_decision_task_DD_L6,2021.2.3,iPhone,58.82352941,,,,,,,,,,1.321,1,,,,,,,,,,,,,,,0,-0.294897959,-0.342346939,1,0,0,1.321,button_left_main,-0.294897959,-0.342346939,1,0,0,,0,26,26,103,1,FLORT,HB,z,z,./images/FLORTHB.png,,,,,,,,,,,,,,,,,,,,,,,,,,,,,,,,,
,,,,,,,,,,,,,,,,,610841cb623bdc27b95987b2,27,2022-02-12_12h19.53.952,lexical_decision_task_DD_L6,2021.2.3,iPhone,58.82352941,,,,,,,,,,1.088,1,,,,,,,,,,,,,,,0,-0.241836735,-0.321938776,1,0,0,1.088,button_left_main,-0.241836735,-0.321938776,1,0,0,,0,27,27,114,1,RIKES,C,z,z,./images/RIKES.png,,,,,,,,,,,,,,,,,,,,,,,,,,,,,,,,,
,,,,,,,,,,,,,,,,,610841cb623bdc27b95987b2,27,2022-02-12_12h19.53.952,lexical_decision_task_DD_L6,2021.2.3,iPhone,58.82352941,,,,,,,,,,1.022,1,,,,,,,,,,,,,,,0,-0.296938776,-0.306632653,1,0,0,1.022,button_left_main,-0.296938776,-0.306632653,1,0,0,,0,28,28,164,1,SGREW,LB,z,z,./images/SGREWLB.png,,,,,,,,,,,,,,,,,,,,,,,,,,,,,,,,,
,,,,,,,,,,,,,,,,,610841cb623bdc27b95987b2,27,2022-02-12_12h19.53.952,lexical_decision_task_DD_L6,2021.2.3,iPhone,58.82352941,,,,,,,,,,0.671,1,,,,,,,,,,,,,,,0,0.326530612,-0.272959184,1,0,0,0.671,button_right_main,0.326530612,-0.272959184,1,0,0,,0,29,29,15,1,COLLAR,LB,m,m,./images/COLLARLB.png,,,,,,,,,,,,,,,,,,,,,,,,,,,,,,,,,
,,,,,,,,,,,,,,,,,610841cb623bdc27b95987b2,27,2022-02-12_12h19.53.952,lexical_decision_task_DD_L6,2021.2.3,iPhone,58.82352941,,,,,,,,,,1.288,1,,,,,,,,,,,,,,,0,0.286734694,-0.309693878,1,0,0,1.288,button_right_main,0.286734694,-0.309693878,1,0,0,,0,30,30,41,1,STREAM,HB,m,m,./images/STREAMHB.png,,,,,,,,,,,,,,,,,,,,,,,,,,,,,,,,,
,,,,,,,,,,,,,,,,,610841cb623bdc27b95987b2,27,2022-02-12_12h19.53.952,lexical_decision_task_DD_L6,2021.2.3,iPhone,58.82352941,,,,,,,,,,1.204,1,,,,,,,,,,,,,,,0,0.307142857,-0.316836735,1,0,0,1.204,button_right_main,0.307142857,-0.316836735,1,0,0,,0,31,31,62,1,MAMMAL,HB,m,m,./images/MAMMALHB.png,,,,,,,,,,,,,,,,,,,,,,,,,,,,,,,,,
,,,,,,,,,,,,,,,,,610841cb623bdc27b95987b2,27,2022-02-12_12h19.53.952,lexical_decision_task_DD_L6,2021.2.3,iPhone,58.82352941,,,,,,,,,,1.122,1,,,,,,,,,,,,,,,0,0.346938776,-0.303571429,1,0,0,1.122,button_right_main,0.346938776,-0.303571429,1,0,0,,0,32,32,67,1,POKER,C,m,m,./images/POKER.png,,,,,,,,,,,,,,,,,,,,,,,,,,,,,,,,,
,,,,,,,,,,,,,,,,,610841cb623bdc27b95987b2,27,2022-02-12_12h19.53.952,lexical_decision_task_DD_L6,2021.2.3,iPhone,58.82352941,,,,,,,,,,0.655,1,,,,,,,,,,,,,,,0,0.368367347,-0.296428571,1,0,0,0.655,button_right_main,0.368367347,-0.296428571,1,0,0,,0,33,33,7,1,WAGON,C,m,m,./images/WAGON.png,,,,,,,,,,,,,,,,,,,,,,,,,,,,,,,,,
,,,,,,,,,,,,,,,,,610841cb623bdc27b95987b2,27,2022-02-12_12h19.53.952,lexical_decision_task_DD_L6,2021.2.3,iPhone,58.82352941,,,,,,,,,,0.705,1,,,,,,,,,,,,,,,0,0.321428571,-0.281122449,1,0,0,0.705,button_right_main,0.321428571,-0.281122449,1,0,0,,0,34,34,40,1,SNAKE,C,m,m,./images/SNAKE.png,,,,,,,,,,,,,,,,,,,,,,,,,,,,,,,,,
,,,,,,,,,,,,,,,,,610841cb623bdc27b95987b2,27,2022-02-12_12h19.53.952,lexical_decision_task_DD_L6,2021.2.3,iPhone,58.82352941,,,,,,,,,,0.638,1,,,,,,,,,,,,,,,0,0.360204082,-0.303571429,1,0,0,0.638,button_right_main,0.360204082,-0.303571429,1,0,0,,0,35,35,45,1,MONKEY,LB,m,m,./images/MONKEYLB.png,,,,,,,,,,,,,,,,,,,,,,,,,,,,,,,,,
,,,,,,,,,,,,,,,,,610841cb623bdc27b95987b2,27,2022-02-12_12h19.53.952,lexical_decision_task_DD_L6,2021.2.3,iPhone,58.82352941,,,,,,,,,,0.654,1,,,,,,,,,,,,,,,0,0.353061224,-0.275,1,0,0,0.654,button_right_main,0.353061224,-0.275,1,0,0,,0,36,36,79,1,RULER,C,m,m,./images/RULER.png,,,,,,,,,,,,,,,,,,,,,,,,,,,,,,,,,
,,,,,,,,,,,,,,,,,610841cb623bdc27b95987b2,27,2022-02-12_12h19.53.952,lexical_decision_task_DD_L6,2021.2.3,iPhone,58.82352941,,,,,,,,,,0.539,1,,,,,,,,,,,,,,,0,0.364285714,-0.335204082,1,0,0,0.539,button_right_main,0.364285714,-0.335204082,1,0,0,,0,37,37,13,1,BUNNY,C,m,m,./images/BUNNY.png,,,,,,,,,,,,,,,,,,,,,,,,,,,,,,,,,
,,,,,,,,,,,,,,,,,610841cb623bdc27b95987b2,27,2022-02-12_12h19.53.952,lexical_decision_task_DD_L6,2021.2.3,iPhone,58.82352941,,,,,,,,,,0.738,1,,,,,,,,,,,,,,,0,0.346938776,-0.26377551,1,0,0,0.738,button_right_main,0.346938776,-0.26377551,1,0,0,,0,38,38,32,1,HOCKEY,HB,m,m,./images/HOCKEYHB.png,,,,,,,,,,,,,,,,,,,,,,,,,,,,,,,,,
,,,,,,,,,,,,,,,,,610841cb623bdc27b95987b2,27,2022-02-12_12h19.53.952,lexical_decision_task_DD_L6,2021.2.3,iPhone,58.82352941,,,,,,,,,,0.804,1,,,,,,,,,,,,,,,0,0.35,-0.26377551,1,0,0,0.804,button_right_main,0.35,-0.26377551,1,0,0,,0,39,39,65,1,SPINE,HB,m,m,./images/SPINEHB.png,,,,,,,,,,,,,,,,,,,,,,,,,,,,,,,,,
,,,,,,,,,,,,,,,,,610841cb623bdc27b95987b2,27,2022-02-12_12h19.53.952,lexical_decision_task_DD_L6,2021.2.3,iPhone,58.82352941,,,,,,,,,,0.605,1,,,,,,,,,,,,,,,0,0.351020408,-0.259693878,1,0,0,0.605,button_right_main,0.351020408,-0.259693878,1,0,0,,0,40,40,78,1,BROOM,LB,m,m,./images/BROOMLB.png,,,,,,,,,,,,,,,,,,,,,,,,,,,,,,,,,
,,,,,,,,,,,,,,,,,610841cb623bdc27b95987b2,27,2022-02-12_12h19.53.952,lexical_decision_task_DD_L6,2021.2.3,iPhone,58.82352941,,,,,,,,,,0.774,1,,,,,,,,,,,,,,,0,0.362244898,-0.310714286,1,0,0,0.774,button_right_main,0.123469388,-0.378061224,1,0,0,,0,41,41,43,1,STOOL,C,m,m,./images/STOOL.png,break_done_button,,,,,,,,,,,,,,,,,,,,,,,,,,,,,,,,
,,,,,,,,,,,,,,,,,610841cb623bdc27b95987b2,27,2022-02-12_12h19.53.952,lexical_decision_task_DD_L6,2021.2.3,iPhone,58.82352941,,,,,,,,,,0.853,1,,,,,,,,,,,,,,,0,0.371428571,-0.321938776,1,0,0,0.853,button_right_main,0.371428571,-0.321938776,1,0,0,,0,42,42,73,1,GLOVE,C,m,m,./images/GLOVE.png,,,,,,,,,,,,,,,,,,,,,,,,,,,,,,,,,
,,,,,,,,,,,,,,,,,610841cb623bdc27b95987b2,27,2022-02-12_12h19.53.952,lexical_decision_task_DD_L6,2021.2.3,iPhone,58.82352941,,,,,,,,,,0.837,1,,,,,,,,,,,,,,,0,-0.312244898,-0.309693878,1,0,0,0.837,button_left_main,-0.312244898,-0.309693878,1,0,0,,0,43,43,95,1,HANTY,LB,z,z,./images/HANTYLB.png,,,,,,,,,,,,,,,,,,,,,,,,,,,,,,,,,
,,,,,,,,,,,,,,,,,610841cb623bdc27b95987b2,27,2022-02-12_12h19.53.952,lexical_decision_task_DD_L6,2021.2.3,iPhone,58.82352941,,,,,,,,,,1.004,1,,,,,,,,,,,,,,,0,-0.303061224,-0.290306122,1,0,0,1.004,button_left_main,-0.303061224,-0.290306122,1,0,0,,0,44,44,120,1,RINED,C,z,z,./images/RINED.png,,,,,,,,,,,,,,,,,,,,,,,,,,,,,,,,,
,,,,,,,,,,,,,,,,,610841cb623bdc27b95987b2,27,2022-02-12_12h19.53.952,lexical_decision_task_DD_L6,2021.2.3,iPhone,58.82352941,,,,,,,,,,1.139,1,,,,,,,,,,,,,,,0,-0.279591837,-0.312755102,1,0,0,1.139,button_left_main,-0.279591837,-0.312755102,1,0,0,,0,45,45,139,1,BLEAR,HB,z,z,./images/BLEARHB.png,,,,,,,,,,,,,,,,,,,,,,,,,,,,,,,,,
,,,,,,,,,,,,,,,,,610841cb623bdc27b95987b2,27,2022-02-12_12h19.53.952,lexical_decision_task_DD_L6,2021.2.3,iPhone,58.82352941,,,,,,,,,,1.036,1,,,,,,,,,,,,,,,0,0.301020408,-0.317857143,1,0,0,1.036,button_right_main,0.301020408,-0.317857143,1,0,0,,0,46,46,38,1,ENGINE,HB,m,m,./images/ENGINEHB.png,,,,,,,,,,,,,,,,,,,,,,,,,,,,,,,,,
,,,,,,,,,,,,,,,,,610841cb623bdc27b95987b2,27,2022-02-12_12h19.53.952,lexical_decision_task_DD_L6,2021.2.3,iPhone,58.82352941,,,,,,,,,,0.804,1,,,,,,,,,,,,,,,0,0.284693878,-0.358673469,1,0,0,0.804,button_right_main,0.284693878,-0.358673469,1,0,0,,0,47,47,31,1,STEAK,C,m,m,./images/STEAK.png,,,,,,,,,,,,,,,,,,,,,,,,,,,,,,,,,
,,,,,,,,,,,,,,,,,610841cb623bdc27b95987b2,27,2022-02-12_12h19.53.952,lexical_decision_task_DD_L6,2021.2.3,iPhone,58.82352941,,,,,,,,,,0.805,1,,,,,,,,,,,,,,,0,-0.284693878,-0.321938776,1,0,0,0.805,button_left_main,-0.284693878,-0.321938776,1,0,0,,0,48,48,113,1,LINEW,LB,z,z,./images/LINEWLB.png,,,,,,,,,,,,,,,,,,,,,,,,,,,,,,,,,
,,,,,,,,,,,,,,,,,610841cb623bdc27b95987b2,27,2022-02-12_12h19.53.952,lexical_decision_task_DD_L6,2021.2.3,iPhone,58.82352941,,,,,,,,,,1.323,1,,,,,,,,,,,,,,,0,-0.289795918,-0.30255102,1,0,0,1.323,button_left_main,-0.289795918,-0.30255102,1,0,0,,0,49,49,157,1,INLER,HB,z,z,./images/INLERHB.png,,,,,,,,,,,,,,,,,,,,,,,,,,,,,,,,,
,,,,,,,,,,,,,,,,,610841cb623bdc27b95987b2,27,2022-02-12_12h19.53.952,lexical_decision_task_DD_L6,2021.2.3,iPhone,58.82352941,,,,,,,,,,0.789,1,,,,,,,,,,,,,,,0,-0.290816327,-0.31377551,1,0,0,0.789,button_left_main,-0.290816327,-0.31377551,1,0,0,,0,50,50,150,1,NOOLS,C,z,z,./images/NOOLS.png,,,,,,,,,,,,,,,,,,,,,,,,,,,,,,,,,
,,,,,,,,,,,,,,,,,610841cb623bdc27b95987b2,27,2022-02-12_12h19.53.952,lexical_decision_task_DD_L6,2021.2.3,iPhone,58.82352941,,,,,,,,,,0.737,1,,,,,,,,,,,,,,,0,0.305102041,-0.291326531,1,0,0,0.737,button_right_main,0.305102041,-0.291326531,1,0,0,,0,51,51,18,1,PARCEL,LB,m,m,./images/PARCELLB.png,,,,,,,,,,,,,,,,,,,,,,,,,,,,,,,,,
,,,,,,,,,,,,,,,,,610841cb623bdc27b95987b2,27,2022-02-12_12h19.53.952,lexical_decision_task_DD_L6,2021.2.3,iPhone,58.82352941,,,,,,,,,,0.72,0,,,,,,,,,,,,,,,0,0.284693878,-0.316836735,1,0,0,0.72,button_right_main,0.284693878,-0.316836735,1,0,0,,0,52,52,128,1,GRIFT,LB,z,z,./images/GRIFTLB.png,,,,,,,,,,,,,,,,,,,,,,,,,,,,,,,,,
,,,,,,,,,,,,,,,,,610841cb623bdc27b95987b2,27,2022-02-12_12h19.53.952,lexical_decision_task_DD_L6,2021.2.3,iPhone,58.82352941,,,,,,,,,,0.855,1,,,,,,,,,,,,,,,0,-0.276530612,-0.335204082,1,0,0,0.855,button_left_main,-0.276530612,-0.335204082,1,0,0,,0,53,53,147,1,ZOLES,C,z,z,./images/ZOLES.png,,,,,,,,,,,,,,,,,,,,,,,,,,,,,,,,,
,,,,,,,,,,,,,,,,,610841cb623bdc27b95987b2,27,2022-02-12_12h19.53.952,lexical_decision_task_DD_L6,2021.2.3,iPhone,58.82352941,,,,,,,,,,1.006,1,,,,,,,,,,,,,,,0,-0.263265306,-0.246428571,1,0,0,1.006,button_left_main,-0.263265306,-0.246428571,1,0,0,,0,54,54,117,1,STEEG,C,z,z,./images/STEEG.png,,,,,,,,,,,,,,,,,,,,,,,,,,,,,,,,,
,,,,,,,,,,,,,,,,,610841cb623bdc27b95987b2,27,2022-02-12_12h19.53.952,lexical_decision_task_DD_L6,2021.2.3,iPhone,58.82352941,,,,,,,,,,0.77,1,,,,,,,,,,,,,,,0,-0.259183673,-0.325,1,0,0,0.77,button_left_main,-0.259183673,-0.325,1,0,0,,0,55,55,162,1,LEICH,C,z,z,./images/LEICH.png,,,,,,,,,,,,,,,,,,,,,,,,,,,,,,,,,
,,,,,,,,,,,,,,,,,610841cb623bdc27b95987b2,27,2022-02-12_12h19.53.952,lexical_decision_task_DD_L6,2021.2.3,iPhone,58.82352941,,,,,,,,,,0.837,1,,,,,,,,,,,,,,,0,-0.253061224,-0.332142857,1,0,0,0.837,button_left_main,-0.253061224,-0.332142857,1,0,0,,0,56,56,135,1,JOODY,C,z,z,./images/JOODY.png,,,,,,,,,,,,,,,,,,,,,,,,,,,,,,,,,
,,,,,,,,,,,,,,,,,610841cb623bdc27b95987b2,27,2022-02-12_12h19.53.952,lexical_decision_task_DD_L6,2021.2.3,iPhone,58.82352941,,,,,,,,,,0.705,1,,,,,,,,,,,,,,,0,0.3,-0.283163265,1,0,0,0.705,button_right_main,0.3,-0.283163265,1,0,0,,0,57,57,8,1,CLIFF,HB,m,m,./images/CLIFFHB.png,,,,,,,,,,,,,,,,,,,,,,,,,,,,,,,,,
,,,,,,,,,,,,,,,,,610841cb623bdc27b95987b2,27,2022-02-12_12h19.53.952,lexical_decision_task_DD_L6,2021.2.3,iPhone,58.82352941,,,,,,,,,,0.92,1,,,,,,,,,,,,,,,0,0.341836735,-0.33622449,1,0,0,0.92,button_right_main,0.341836735,-0.33622449,1,0,0,,0,58,58,50,1,PILOT,HB,m,m,./images/PILOTHB.png,,,,,,,,,,,,,,,,,,,,,,,,,,,,,,,,,
,,,,,,,,,,,,,,,,,610841cb623bdc27b95987b2,27,2022-02-12_12h19.53.952,lexical_decision_task_DD_L6,2021.2.3,iPhone,58.82352941,,,,,,,,,,0.905,1,,,,,,,,,,,,,,,0,-0.329591837,-0.276020408,1,0,0,0.905,button_left_main,-0.329591837,-0.276020408,1,0,0,,0,59,59,160,1,VEETS,HB,z,z,./images/VEETSHB.png,,,,,,,,,,,,,,,,,,,,,,,,,,,,,,,,,
,,,,,,,,,,,,,,,,,610841cb623bdc27b95987b2,27,2022-02-12_12h19.53.952,lexical_decision_task_DD_L6,2021.2.3,iPhone,58.82352941,,,,,,,,,,0.839,1,,,,,,,,,,,,,,,0,0.310204082,-0.34744898,1,0,0,0.839,button_right_main,0.310204082,-0.34744898,1,0,0,,0,60,60,81,1,DRILL,LB,m,m,./images/DRILLLB.png,,,,,,,,,,,,,,,,,,,,,,,,,,,,,,,,,
,,,,,,,,,,,,,,,,,610841cb623bdc27b95987b2,27,2022-02-12_12h19.53.952,lexical_decision_task_DD_L6,2021.2.3,iPhone,58.82352941,,,,,,,,,,0.823,1,,,,,,,,,,,,,,,0,0.340816327,-0.316836735,1,0,0,0.823,button_right_main,0.340816327,-0.316836735,1,0,0,,0,61,61,70,1,BANANA,C,m,m,./images/BANANA.png,,,,,,,,,,,,,,,,,,,,,,,,,,,,,,,,,
,,,,,,,,,,,,,,,,,610841cb623bdc27b95987b2,27,2022-02-12_12h19.53.952,lexical_decision_task_DD_L6,2021.2.3,iPhone,58.82352941,,,,,,,,,,0.606,1,,,,,,,,,,,,,,,0,0.325510204,-0.290306122,1,0,0,0.606,button_right_main,0.325510204,-0.290306122,1,0,0,,0,62,62,60,1,CURRY,LB,m,m,./images/CURRYLB.png,,,,,,,,,,,,,,,,,,,,,,,,,,,,,,,,,
,,,,,,,,,,,,,,,,,610841cb623bdc27b95987b2,27,2022-02-12_12h19.53.952,lexical_decision_task_DD_L6,2021.2.3,iPhone,58.82352941,,,,,,,,,,0.705,1,,,,,,,,,,,,,,,0,0.341836735,-0.31377551,1,0,0,0.705,button_right_main,0.341836735,-0.31377551,1,0,0,,0,63,63,12,1,BLOKE,LB,m,m,./images/BLOKELB.png,,,,,,,,,,,,,,,,,,,,,,,,,,,,,,,,,
,,,,,,,,,,,,,,,,,610841cb623bdc27b95987b2,27,2022-02-12_12h19.53.952,lexical_decision_task_DD_L6,2021.2.3,iPhone,58.82352941,,,,,,,,,,1.321,1,,,,,,,,,,,,,,,0,-0.294897959,-0.322959184,1,0,0,1.321,button_left_main,-0.294897959,-0.322959184,1,0,0,,0,64,64,158,1,EGECT,LB,z,z,./images/EGECTLB.png,,,,,,,,,,,,,,,,,,,,,,,,,,,,,,,,,
,,,,,,,,,,,,,,,,,610841cb623bdc27b95987b2,27,2022-02-12_12h19.53.952,lexical_decision_task_DD_L6,2021.2.3,iPhone,58.82352941,,,,,,,,,,1.021,1,,,,,,,,,,,,,,,0,-0.27755102,-0.340306122,1,0,0,1.021,button_left_main,-0.27755102,-0.340306122,1,0,0,,0,65,65,101,1,GLEET,LB,z,z,./images/GLEETLB.png,,,,,,,,,,,,,,,,,,,,,,,,,,,,,,,,,
,,,,,,,,,,,,,,,,,610841cb623bdc27b95987b2,27,2022-02-12_12h19.53.952,lexical_decision_task_DD_L6,2021.2.3,iPhone,58.82352941,,,,,,,,,,0.84,1,,,,,,,,,,,,,,,0,0.309183673,-0.31377551,1,0,0,0.84,button_right_main,0.309183673,-0.31377551,1,0,0,,0,66,66,4,1,BOXER,C,m,m,./images/BOXER.png,,,,,,,,,,,,,,,,,,,,,,,,,,,,,,,,,
,,,,,,,,,,,,,,,,,610841cb623bdc27b95987b2,27,2022-02-12_12h19.53.952,lexical_decision_task_DD_L6,2021.2.3,iPhone,58.82352941,,,,,,,,,,0.688,1,,,,,,,,,,,,,,,0,0.286734694,-0.289285714,1,0,0,0.688,button_right_main,0.286734694,-0.289285714,1,0,0,,0,67,67,3,1,CRATER,LB,m,m,./images/CRATERLB.png,,,,,,,,,,,,,,,,,,,,,,,,,,,,,,,,,
,,,,,,,,,,,,,,,,,610841cb623bdc27b95987b2,27,2022-02-12_12h19.53.952,lexical_decision_task_DD_L6,2021.2.3,iPhone,58.82352941,,,,,,,,,,0.64,1,,,,,,,,,,,,,,,0,0.335714286,-0.201530612,1,0,0,0.64,button_right_main,0.335714286,-0.201530612,1,0,0,,0,68,68,64,1,BRIDE,C,m,m,./images/BRIDE.png,,,,,,,,,,,,,,,,,,,,,,,,,,,,,,,,,
,,,,,,,,,,,,,,,,,610841cb623bdc27b95987b2,27,2022-02-12_12h19.53.952,lexical_decision_task_DD_L6,2021.2.3,iPhone,58.82352941,,,,,,,,,,0.871,1,,,,,,,,,,,,,,,0,-0.31122449,-0.327040816,1,0,0,0.871,button_left_main,-0.31122449,-0.327040816,1,0,0,,0,69,69,132,1,SCIFF,C,z,z,./images/SCIFF.png,,,,,,,,,,,,,,,,,,,,,,,,,,,,,,,,,
,,,,,,,,,,,,,,,,,610841cb623bdc27b95987b2,27,2022-02-12_12h19.53.952,lexical_decision_task_DD_L6,2021.2.3,iPhone,58.82352941,,,,,,,,,,1.155,1,,,,,,,,,,,,,,,0,-0.294897959,-0.288265306,1,0,0,1.155,button_left_main,-0.294897959,-0.288265306,1,0,0,,0,70,70,133,1,POWDY,HB,z,z,./images/POWDYHB.png,,,,,,,,,,,,,,,,,,,,,,,,,,,,,,,,,
,,,,,,,,,,,,,,,,,610841cb623bdc27b95987b2,27,2022-02-12_12h19.53.952,lexical_decision_task_DD_L6,2021.2.3,iPhone,58.82352941,,,,,,,,,,0.67,1,,,,,,,,,,,,,,,0,0.330612245,-0.326020408,1,0,0,0.67,button_right_main,0.330612245,-0.326020408,1,0,0,,0,71,71,39,1,CANDY,LB,m,m,./images/CANDYLB.png,,,,,,,,,,,,,,,,,,,,,,,,,,,,,,,,,
,,,,,,,,,,,,,,,,,610841cb623bdc27b95987b2,27,2022-02-12_12h19.53.952,lexical_decision_task_DD_L6,2021.2.3,iPhone,58.82352941,,,,,,,,,,1.121,1,,,,,,,,,,,,,,,0,-0.334693878,-0.306632653,1,0,0,1.121,button_left_main,-0.334693878,-0.306632653,1,0,0,,0,72,72,161,1,BLAPS,LB,z,z,./images/BLAPSLB.png,,,,,,,,,,,,,,,,,,,,,,,,,,,,,,,,,
,,,,,,,,,,,,,,,,,610841cb623bdc27b95987b2,27,2022-02-12_12h19.53.952,lexical_decision_task_DD_L6,2021.2.3,iPhone,58.82352941,,,,,,,,,,0.987,1,,,,,,,,,,,,,,,0,-0.242857143,-0.344387755,1,0,0,0.987,button_left_main,-0.242857143,-0.344387755,1,0,0,,0,73,73,124,1,TUNCH,HB,z,z,./images/TUNCHHB.png,,,,,,,,,,,,,,,,,,,,,,,,,,,,,,,,,
,,,,,,,,,,,,,,,,,610841cb623bdc27b95987b2,27,2022-02-12_12h19.53.952,lexical_decision_task_DD_L6,2021.2.3,iPhone,58.82352941,,,,,,,,,,0.8,1,,,,,,,,,,,,,,,0,0.316326531,-0.338265306,1,0,0,0.8,button_right_main,0.316326531,-0.338265306,1,0,0,,0,74,74,21,1,DANCER,LB,m,m,./images/DANCERLB.png,,,,,,,,,,,,,,,,,,,,,,,,,,,,,,,,,
,,,,,,,,,,,,,,,,,610841cb623bdc27b95987b2,27,2022-02-12_12h19.53.952,lexical_decision_task_DD_L6,2021.2.3,iPhone,58.82352941,,,,,,,,,,0.688,1,,,,,,,,,,,,,,,0,0.32755102,-0.309693878,1,0,0,0.688,button_right_main,0.32755102,-0.309693878,1,0,0,,0,75,75,69,1,ARROW,LB,m,m,./images/ARROWLB.png,,,,,,,,,,,,,,,,,,,,,,,,,,,,,,,,,
,,,,,,,,,,,,,,,,,610841cb623bdc27b95987b2,27,2022-02-12_12h19.53.952,lexical_decision_task_DD_L6,2021.2.3,iPhone,58.82352941,,,,,,,,,,0.822,1,,,,,,,,,,,,,,,0,-0.312244898,-0.341326531,1,0,0,0.822,button_left_main,-0.312244898,-0.341326531,1,0,0,,0,76,76,129,1,PRANS,C,z,z,./images/PRANS.png,,,,,,,,,,,,,,,,,,,,,,,,,,,,,,,,,
,,,,,,,,,,,,,,,,,610841cb623bdc27b95987b2,27,2022-02-12_12h19.53.952,lexical_decision_task_DD_L6,2021.2.3,iPhone,58.82352941,,,,,,,,,,0.722,1,,,,,,,,,,,,,,,0,0.313265306,-0.322959184,1,0,0,0.722,button_right_main,0.313265306,-0.322959184,1,0,0,,0,77,77,6,1,STAIN,LB,m,m,./images/STAINLB.png,,,,,,,,,,,,,,,,,,,,,,,,,,,,,,,,,
,,,,,,,,,,,,,,,,,610841cb623bdc27b95987b2,27,2022-02-12_12h19.53.952,lexical_decision_task_DD_L6,2021.2.3,iPhone,58.82352941,,,,,,,,,,0.772,1,,,,,,,,,,,,,,,0,-0.305102041,-0.327040816,1,0,0,0.772,button_left_main,-0.305102041,-0.327040816,1,0,0,,0,78,78,108,1,GRUET,C,z,z,./images/GRUET.png,,,,,,,,,,,,,,,,,,,,,,,,,,,,,,,,,
,,,,,,,,,,,,,,,,,610841cb623bdc27b95987b2,27,2022-02-12_12h19.53.952,lexical_decision_task_DD_L6,2021.2.3,iPhone,58.82352941,,,,,,,,,,0.941,1,,,,,,,,,,,,,,,0,0.318367347,-0.348469388,1,0,0,0.941,button_right_main,0.318367347,-0.348469388,1,0,0,,0,79,79,44,1,BASKET,HB,m,m,./images/BASKETHB.png,,,,,,,,,,,,,,,,,,,,,,,,,,,,,,,,,
,,,,,,,,,,,,,,,,,610841cb623bdc27b95987b2,27,2022-02-12_12h19.53.952,lexical_decision_task_DD_L6,2021.2.3,iPhone,58.82352941,,,,,,,,,,0.954,1,,,,,,,,,,,,,,,0,-0.332653061,-0.28622449,1,0,0,0.954,button_left_main,-0.332653061,-0.28622449,1,0,0,,0,80,80,94,1,BLANS,HB,z,z,./images/BLANSHB.png,,,,,,,,,,,,,,,,,,,,,,,,,,,,,,,,,
,,,,,,,,,,,,,,,,,610841cb623bdc27b95987b2,27,2022-02-12_12h19.53.952,lexical_decision_task_DD_L6,2021.2.3,iPhone,58.82352941,,,,,,,,,,1.006,1,,,,,,,,,,,,,,,0,-0.31122449,-0.342346939,1,0,0,1.006,button_left_main,-0.31122449,-0.342346939,1,0,0,,0,81,81,159,1,CUDDY,C,z,z,./images/CUDDY.png,,,,,,,,,,,,,,,,,,,,,,,,,,,,,,,,,
,,,,,,,,,,,,,,,,,610841cb623bdc27b95987b2,27,2022-02-12_12h19.53.952,lexical_decision_task_DD_L6,2021.2.3,iPhone,58.82352941,,,,,,,,,,0.589,1,,,,,,,,,,,,,,,0,0.31122449,-0.334183673,1,0,0,0.589,button_right_main,0.31122449,-0.334183673,1,0,0,,0,82,82,54,1,CHERRY,LB,m,m,./images/CHERRYLB.png,,,,,,,,,,,,,,,,,,,,,,,,,,,,,,,,,
,,,,,,,,,,,,,,,,,610841cb623bdc27b95987b2,27,2022-02-12_12h19.53.952,lexical_decision_task_DD_L6,2021.2.3,iPhone,58.82352941,,,,,,,,,,0.622,1,,,,,,,,,,,,,,,0,0.325510204,-0.327040816,1,0,0,0.622,button_right_main,0.120408163,-0.423979592,1,0,0,,0,83,83,34,1,RAZOR,C,m,m,./images/RAZOR.png,break_done_button,,,,,,,,,,,,,,,,,,,,,,,,,,,,,,,,
,,,,,,,,,,,,,,,,,610841cb623bdc27b95987b2,27,2022-02-12_12h19.53.952,lexical_decision_task_DD_L6,2021.2.3,iPhone,58.82352941,,,,,,,,,,1.52,1,,,,,,,,,,,,,,,0,-0.367346939,-0.358673469,1,0,0,1.52,button_left_main,-0.367346939,-0.358673469,1,0,0,,0,84,84,142,1,PLASK,HB,z,z,./images/PLASKHB.png,,,,,,,,,,,,,,,,,,,,,,,,,,,,,,,,,
,,,,,,,,,,,,,,,,,610841cb623bdc27b95987b2,27,2022-02-12_12h19.53.952,lexical_decision_task_DD_L6,2021.2.3,iPhone,58.82352941,,,,,,,,,,0.924,1,,,,,,,,,,,,,,,0,-0.334693878,-0.346428571,1,0,0,0.924,button_left_main,-0.334693878,-0.346428571,1,0,0,,0,85,85,93,1,SMONE,C,z,z,./images/SMONE.png,,,,,,,,,,,,,,,,,,,,,,,,,,,,,,,,,
,,,,,,,,,,,,,,,,,610841cb623bdc27b95987b2,27,2022-02-12_12h19.53.952,lexical_decision_task_DD_L6,2021.2.3,iPhone,58.82352941,,,,,,,,,,0.789,1,,,,,,,,,,,,,,,0,-0.305102041,-0.319897959,1,0,0,0.789,button_left_main,-0.305102041,-0.319897959,1,0,0,,0,86,86,92,1,PAIMS,LB,z,z,./images/PAIMSLB.png,,,,,,,,,,,,,,,,,,,,,,,,,,,,,,,,,
,,,,,,,,,,,,,,,,,610841cb623bdc27b95987b2,27,2022-02-12_12h19.53.952,lexical_decision_task_DD_L6,2021.2.3,iPhone,58.82352941,,,,,,,,,,0.74,1,,,,,,,,,,,,,,,0,0.334693878,-0.269897959,1,0,0,0.74,button_right_main,0.334693878,-0.269897959,1,0,0,,0,87,87,82,1,PEBBLE,C,m,m,./images/PEBBLE.png,,,,,,,,,,,,,,,,,,,,,,,,,,,,,,,,,
,,,,,,,,,,,,,,,,,610841cb623bdc27b95987b2,27,2022-02-12_12h19.53.952,lexical_decision_task_DD_L6,2021.2.3,iPhone,58.82352941,,,,,,,,,,0.707,1,,,,,,,,,,,,,,,0,-0.37244898,-0.340306122,1,0,0,0.707,button_left_main,-0.37244898,-0.340306122,1,0,0,,0,88,88,126,1,GUELS,C,z,z,./images/GUELS.png,,,,,,,,,,,,,,,,,,,,,,,,,,,,,,,,,
,,,,,,,,,,,,,,,,,610841cb623bdc27b95987b2,27,2022-02-12_12h19.53.952,lexical_decision_task_DD_L6,2021.2.3,iPhone,58.82352941,,,,,,,,,,0.772,1,,,,,,,,,,,,,,,0,0.315306122,-0.346428571,1,0,0,0.772,button_right_main,0.315306122,-0.346428571,1,0,0,,0,89,89,55,1,ALLEY,C,m,m,./images/ALLEY.png,,,,,,,,,,,,,,,,,,,,,,,,,,,,,,,,,
,,,,,,,,,,,,,,,,,610841cb623bdc27b95987b2,27,2022-02-12_12h19.53.952,lexical_decision_task_DD_L6,2021.2.3,iPhone,58.82352941,,,,,,,,,,0.805,1,,,,,,,,,,,,,,,0,0.325510204,-0.233163265,1,0,0,0.805,button_right_main,0.325510204,-0.233163265,1,0,0,,0,90,90,71,1,BUBBLE,HB,m,m,./images/BUBBLEHB.png,,,,,,,,,,,,,,,,,,,,,,,,,,,,,,,,,
,,,,,,,,,,,,,,,,,610841cb623bdc27b95987b2,27,2022-02-12_12h19.53.952,lexical_decision_task_DD_L6,2021.2.3,iPhone,58.82352941,,,,,,,,,,1.037,1,,,,,,,,,,,,,,,0,-0.343877551,-0.368877551,1,0,0,1.037,button_left_main,-0.343877551,-0.368877551,1,0,0,,0,91,91,136,1,WERVE,HB,z,z,./images/WERVEHB.png,,,,,,,,,,,,,,,,,,,,,,,,,,,,,,,,,
,,,,,,,,,,,,,,,,,610841cb623bdc27b95987b2,27,2022-02-12_12h19.53.952,lexical_decision_task_DD_L6,2021.2.3,iPhone,58.82352941,,,,,,,,,,1.022,1,,,,,,,,,,,,,,,0,-0.369387755,-0.356632653,1,0,0,1.022,button_left_main,-0.369387755,-0.356632653,1,0,0,,0,92,92,111,1,HOSSE,C,z,z,./images/HOSSE.png,,,,,,,,,,,,,,,,,,,,,,,,,,,,,,,,,
,,,,,,,,,,,,,,,,,610841cb623bdc27b95987b2,27,2022-02-12_12h19.53.952,lexical_decision_task_DD_L6,2021.2.3,iPhone,58.82352941,,,,,,,,,,0.653,1,,,,,,,,,,,,,,,0,-0.281632653,-0.295408163,1,0,0,0.653,button_left_main,-0.281632653,-0.295408163,1,0,0,,0,93,93,140,1,DOVET,LB,z,z,./images/DOVETLB.png,,,,,,,,,,,,,,,,,,,,,,,,,,,,,,,,,
,,,,,,,,,,,,,,,,,610841cb623bdc27b95987b2,27,2022-02-12_12h19.53.952,lexical_decision_task_DD_L6,2021.2.3,iPhone,58.82352941,,,,,,,,,,0.938,1,,,,,,,,,,,,,,,0,-0.289795918,-0.33622449,1,0,0,0.938,button_left_main,-0.289795918,-0.33622449,1,0,0,,0,94,94,121,1,CEERS,HB,z,z,./images/CEERSHB.png,,,,,,,,,,,,,,,,,,,,,,,,,,,,,,,,,
,,,,,,,,,,,,,,,,,610841cb623bdc27b95987b2,27,2022-02-12_12h19.53.952,lexical_decision_task_DD_L6,2021.2.3,iPhone,58.82352941,,,,,,,,,,0.837,1,,,,,,,,,,,,,,,0,0.32244898,-0.300510204,1,0,0,0.837,button_right_main,0.32244898,-0.300510204,1,0,0,,0,95,95,26,1,CLOUD,HB,m,m,./images/CLOUDHB.png,,,,,,,,,,,,,,,,,,,,,,,,,,,,,,,,,
,,,,,,,,,,,,,,,,,610841cb623bdc27b95987b2,27,2022-02-12_12h19.53.952,lexical_decision_task_DD_L6,2021.2.3,iPhone,58.82352941,,,,,,,,,,0.892,1,,,,,,,,,,,,,,,0,-0.306122449,-0.293367347,1,0,0,0.892,button_left_main,-0.306122449,-0.293367347,1,0,0,,0,96,96,97,1,CHIDS,HB,z,z,./images/CHIDSHB.png,,,,,,,,,,,,,,,,,,,,,,,,,,,,,,,,,
,,,,,,,,,,,,,,,,,610841cb623bdc27b95987b2,27,2022-02-12_12h19.53.952,lexical_decision_task_DD_L6,2021.2.3,iPhone,58.82352941,,,,,,,,,,0.972,1,,,,,,,,,,,,,,,0,0.321428571,-0.310714286,1,0,0,0.972,button_right_main,0.321428571,-0.310714286,1,0,0,,0,97,97,29,1,PISTOL,HB,m,m,./images/PISTOLHB.png,,,,,,,,,,,,,,,,,,,,,,,,,,,,,,,,,
,,,,,,,,,,,,,,,,,610841cb623bdc27b95987b2,27,2022-02-12_12h19.53.952,lexical_decision_task_DD_L6,2021.2.3,iPhone,58.82352941,,,,,,,,,,1.021,1,,,,,,,,,,,,,,,0,-0.294897959,-0.309693878,1,0,0,1.021,button_left_main,-0.294897959,-0.309693878,1,0,0,,0,98,98,148,1,JOMS,HB,z,z,./images/JOMSHB.png,,,,,,,,,,,,,,,,,,,,,,,,,,,,,,,,,
,,,,,,,,,,,,,,,,,610841cb623bdc27b95987b2,27,2022-02-12_12h19.53.952,lexical_decision_task_DD_L6,2021.2.3,iPhone,58.82352941,,,,,,,,,,0.739,1,,,,,,,,,,,,,,,0,0.335714286,-0.294387755,1,0,0,0.739,button_right_main,0.335714286,-0.294387755,1,0,0,,0,99,99,19,1,DONKEY,C,m,m,./images/DONKEY.png,,,,,,,,,,,,,,,,,,,,,,,,,,,,,,,,,
,,,,,,,,,,,,,,,,,610841cb623bdc27b95987b2,27,2022-02-12_12h19.53.952,lexical_decision_task_DD_L6,2021.2.3,iPhone,58.82352941,,,,,,,,,,0.871,1,,,,,,,,,,,,,,,0,-0.289795918,-0.340306122,1,0,0,0.871,button_left_main,-0.289795918,-0.340306122,1,0,0,,0,100,100,151,1,TINKY,HB,z,z,./images/TINKYHB.png,,,,,,,,,,,,,,,,,,,,,,,,,,,,,,,,,
,,,,,,,,,,,,,,,,,610841cb623bdc27b95987b2,27,2022-02-12_12h19.53.952,lexical_decision_task_DD_L6,2021.2.3,iPhone,58.82352941,,,,,,,,,,0.854,1,,,,,,,,,,,,,,,0,0.330612245,-0.284183673,1,0,0,0.854,button_right_main,0.330612245,-0.284183673,1,0,0,,0,101,101,28,1,CASINO,C,m,m,./images/CASINO.png,,,,,,,,,,,,,,,,,,,,,,,,,,,,,,,,,
,,,,,,,,,,,,,,,,,610841cb623bdc27b95987b2,27,2022-02-12_12h19.53.952,lexical_decision_task_DD_L6,2021.2.3,iPhone,58.82352941,,,,,,,,,,1.086,1,,,,,,,,,,,,,,,0,0.343877551,-0.292346939,1,0,0,1.086,button_right_main,0.343877551,-0.292346939,1,0,0,,0,102,102,33,1,SAUNA,LB,m,m,./images/SAUNALB.png,,,,,,,,,,,,,,,,,,,,,,,,,,,,,,,,,
,,,,,,,,,,,,,,,,,610841cb623bdc27b95987b2,27,2022-02-12_12h19.53.952,lexical_decision_task_DD_L6,2021.2.3,iPhone,58.82352941,,,,,,,,,,0.87,1,,,,,,,,,,,,,,,0,-0.304081633,-0.362755102,1,0,0,0.87,button_left_main,-0.304081633,-0.362755102,1,0,0,,0,103,103,145,1,LAMEL,HB,z,z,./images/LAMELHB.png,,,,,,,,,,,,,,,,,,,,,,,,,,,,,,,,,
,,,,,,,,,,,,,,,,,610841cb623bdc27b95987b2,27,2022-02-12_12h19.53.952,lexical_decision_task_DD_L6,2021.2.3,iPhone,58.82352941,,,,,,,,,,0.788,1,,,,,,,,,,,,,,,0,-0.334693878,-0.320918367,1,0,0,0.788,button_left_main,-0.334693878,-0.320918367,1,0,0,,0,104,104,86,1,AIFED,LB,z,z,./images/AIFEDLB.png,,,,,,,,,,,,,,,,,,,,,,,,,,,,,,,,,
,,,,,,,,,,,,,,,,,610841cb623bdc27b95987b2,27,2022-02-12_12h19.53.952,lexical_decision_task_DD_L6,2021.2.3,iPhone,58.82352941,,,,,,,,,,0.842,1,,,,,,,,,,,,,,,0,-0.319387755,-0.288265306,1,0,0,0.842,button_left_main,-0.319387755,-0.288265306,1,0,0,,0,105,105,106,1,CLUMS,HB,z,z,./images/CLUMSHB.png,,,,,,,,,,,,,,,,,,,,,,,,,,,,,,,,,
,,,,,,,,,,,,,,,,,610841cb623bdc27b95987b2,27,2022-02-12_12h19.53.952,lexical_decision_task_DD_L6,2021.2.3,iPhone,58.82352941,,,,,,,,,,0.908,1,,,,,,,,,,,,,,,0,0.336734694,-0.310714286,1,0,0,0.908,button_right_main,0.336734694,-0.310714286,1,0,0,,0,106,106,68,1,VALLEY,HB,m,m,./images/VALLEYHB.png,,,,,,,,,,,,,,,,,,,,,,,,,,,,,,,,,
,,,,,,,,,,,,,,,,,610841cb623bdc27b95987b2,27,2022-02-12_12h19.53.952,lexical_decision_task_DD_L6,2021.2.3,iPhone,58.82352941,,,,,,,,,,0.672,1,,,,,,,,,,,,,,,0,-0.284693878,-0.293367347,1,0,0,0.672,button_left_main,-0.284693878,-0.293367347,1,0,0,,0,107,107,149,1,VEASE,LB,z,z,./images/VEASELB.png,,,,,,,,,,,,,,,,,,,,,,,,,,,,,,,,,
,,,,,,,,,,,,,,,,,610841cb623bdc27b95987b2,27,2022-02-12_12h19.53.952,lexical_decision_task_DD_L6,2021.2.3,iPhone,58.82352941,,,,,,,,,,0.707,1,,,,,,,,,,,,,,,0,0.336734694,-0.284183673,1,0,0,0.707,button_right_main,0.336734694,-0.284183673,1,0,0,,0,108,108,52,1,DESERT,C,m,m,./images/DESERT.png,,,,,,,,,,,,,,,,,,,,,,,,,,,,,,,,,
,,,,,,,,,,,,,,,,,610841cb623bdc27b95987b2,27,2022-02-12_12h19.53.952,lexical_decision_task_DD_L6,2021.2.3,iPhone,58.82352941,,,,,,,,,,0.821,1,,,,,,,,,,,,,,,0,0.319387755,-0.304591837,1,0,0,0.821,button_right_main,0.319387755,-0.304591837,1,0,0,,0,109,109,48,1,SHIELD,LB,m,m,./images/SHIELDLB.png,,,,,,,,,,,,,,,,,,,,,,,,,,,,,,,,,
,,,,,,,,,,,,,,,,,610841cb623bdc27b95987b2,27,2022-02-12_12h19.53.952,lexical_decision_task_DD_L6,2021.2.3,iPhone,58.82352941,,,,,,,,,,0.905,1,,,,,,,,,,,,,,,0,-0.308163265,-0.343367347,1,0,0,0.905,button_left_main,-0.308163265,-0.343367347,1,0,0,,0,110,110,154,1,THINT,HB,z,z,./images/THINTHB.png,,,,,,,,,,,,,,,,,,,,,,,,,,,,,,,,,
,,,,,,,,,,,,,,,,,610841cb623bdc27b95987b2,27,2022-02-12_12h19.53.952,lexical_decision_task_DD_L6,2021.2.3,iPhone,58.82352941,,,,,,,,,,0.974,1,,,,,,,,,,,,,,,0,0.333673469,-0.26377551,1,0,0,0.974,button_right_main,0.333673469,-0.26377551,1,0,0,,0,111,111,14,1,FENCE,HB,m,m,./images/FENCEHB.png,,,,,,,,,,,,,,,,,,,,,,,,,,,,,,,,,
,,,,,,,,,,,,,,,,,610841cb623bdc27b95987b2,27,2022-02-12_12h19.53.952,lexical_decision_task_DD_L6,2021.2.3,iPhone,58.82352941,,,,,,,,,,0.724,1,,,,,,,,,,,,,,,0,0.316326531,-0.237244898,1,0,0,0.724,button_right_main,0.316326531,-0.237244898,1,0,0,,0,112,112,5,1,BAMBOO,HB,m,m,./images/BAMBOOHB.png,,,,,,,,,,,,,,,,,,,,,,,,,,,,,,,,,
,,,,,,,,,,,,,,,,,610841cb623bdc27b95987b2,27,2022-02-12_12h19.53.952,lexical_decision_task_DD_L6,2021.2.3,iPhone,58.82352941,,,,,,,,,,1.124,1,,,,,,,,,,,,,,,0,0.333673469,-0.235204082,1,0,0,1.124,button_right_main,0.333673469,-0.235204082,1,0,0,,0,113,113,10,1,GARDEN,C,m,m,./images/GARDEN.png,,,,,,,,,,,,,,,,,,,,,,,,,,,,,,,,,
,,,,,,,,,,,,,,,,,610841cb623bdc27b95987b2,27,2022-02-12_12h19.53.952,lexical_decision_task_DD_L6,2021.2.3,iPhone,58.82352941,,,,,,,,,,0.904,1,,,,,,,,,,,,,,,0,-0.358163265,-0.355612245,1,0,0,0.904,button_left_main,-0.358163265,-0.355612245,1,0,0,,0,114,114,138,1,PLICE,C,z,z,./images/PLICE.png,,,,,,,,,,,,,,,,,,,,,,,,,,,,,,,,,
,,,,,,,,,,,,,,,,,610841cb623bdc27b95987b2,27,2022-02-12_12h19.53.952,lexical_decision_task_DD_L6,2021.2.3,iPhone,58.82352941,,,,,,,,,,0.704,1,,,,,,,,,,,,,,,0,0.305102041,-0.287244898,1,0,0,0.704,button_right_main,0.305102041,-0.287244898,1,0,0,,0,115,115,25,1,CHALK,C,m,m,./images/CHALK.png,,,,,,,,,,,,,,,,,,,,,,,,,,,,,,,,,
,,,,,,,,,,,,,,,,,610841cb623bdc27b95987b2,27,2022-02-12_12h19.53.952,lexical_decision_task_DD_L6,2021.2.3,iPhone,58.82352941,,,,,,,,,,0.822,1,,,,,,,,,,,,,,,0,-0.32755102,-0.364795918,1,0,0,0.822,button_left_main,-0.32755102,-0.364795918,1,0,0,,0,116,116,144,1,NAIRY,C,z,z,./images/NAIRY.png,,,,,,,,,,,,,,,,,,,,,,,,,,,,,,,,,
,,,,,,,,,,,,,,,,,610841cb623bdc27b95987b2,27,2022-02-12_12h19.53.952,lexical_decision_task_DD_L6,2021.2.3,iPhone,58.82352941,,,,,,,,,,1.771,1,,,,,,,,,,,,,,,0,-0.301020408,-0.31377551,1,0,0,1.771,button_left_main,-0.301020408,-0.31377551,1,0,0,,0,117,117,166,1,SHORY,HB,z,z,./images/SHORYHB.png,,,,,,,,,,,,,,,,,,,,,,,,,,,,,,,,,
,,,,,,,,,,,,,,,,,610841cb623bdc27b95987b2,27,2022-02-12_12h19.53.952,lexical_decision_task_DD_L6,2021.2.3,iPhone,58.82352941,,,,,,,,,,0.855,1,,,,,,,,,,,,,,,0,-0.276530612,-0.327040816,1,0,0,0.855,button_left_main,-0.276530612,-0.327040816,1,0,0,,0,118,118,87,1,TRING,C,z,z,./images/TRING.png,,,,,,,,,,,,,,,,,,,,,,,,,,,,,,,,,
,,,,,,,,,,,,,,,,,610841cb623bdc27b95987b2,27,2022-02-12_12h19.53.952,lexical_decision_task_DD_L6,2021.2.3,iPhone,58.82352941,,,,,,,,,,0.721,1,,,,,,,,,,,,,,,0,0.356122449,-0.28622449,1,0,0,0.721,button_right_main,0.356122449,-0.28622449,1,0,0,,0,119,119,72,1,FLASK,LB,m,m,./images/FLASKLB.png,,,,,,,,,,,,,,,,,,,,,,,,,,,,,,,,,
,,,,,,,,,,,,,,,,,610841cb623bdc27b95987b2,27,2022-02-12_12h19.53.952,lexical_decision_task_DD_L6,2021.2.3,iPhone,58.82352941,,,,,,,,,,0.771,1,,,,,,,,,,,,,,,0,0.35,-0.310714286,1,0,0,0.771,button_right_main,0.35,-0.310714286,1,0,0,,0,120,120,77,1,WHEEL,HB,m,m,./images/WHEELHB.png,,,,,,,,,,,,,,,,,,,,,,,,,,,,,,,,,
,,,,,,,,,,,,,,,,,610841cb623bdc27b95987b2,27,2022-02-12_12h19.53.952,lexical_decision_task_DD_L6,2021.2.3,iPhone,58.82352941,,,,,,,,,,1.188,1,,,,,,,,,,,,,,,0,0.293877551,-0.328061224,1,0,0,1.188,button_right_main,0.293877551,-0.328061224,1,0,0,,0,121,121,53,1,POSTER,HB,m,m,./images/POSTERHB.png,,,,,,,,,,,,,,,,,,,,,,,,,,,,,,,,,
,,,,,,,,,,,,,,,,,610841cb623bdc27b95987b2,27,2022-02-12_12h19.53.952,lexical_decision_task_DD_L6,2021.2.3,iPhone,58.82352941,,,,,,,,,,1.092,1,,,,,,,,,,,,,,,0,-0.324489796,-0.321938776,1,0,0,1.092,button_left_main,-0.324489796,-0.321938776,1,0,0,,0,122,122,109,1,BURGE,HB,z,z,./images/BURGEHB.png,,,,,,,,,,,,,,,,,,,,,,,,,,,,,,,,,
,,,,,,,,,,,,,,,,,610841cb623bdc27b95987b2,27,2022-02-12_12h19.53.952,lexical_decision_task_DD_L6,2021.2.3,iPhone,58.82352941,,,,,,,,,,0.671,1,,,,,,,,,,,,,,,0,0.340816327,-0.275,1,0,0,0.671,button_right_main,0.340816327,-0.275,1,0,0,,0,123,123,27,1,BUTTER,LB,m,m,./images/BUTTERLB.png,,,,,,,,,,,,,,,,,,,,,,,,,,,,,,,,,
,,,,,,,,,,,,,,,,,610841cb623bdc27b95987b2,27,2022-02-12_12h19.53.952,lexical_decision_task_DD_L6,2021.2.3,iPhone,58.82352941,,,,,,,,,,0.887,1,,,,,,,,,,,,,,,0,0.314285714,-0.266836735,1,0,0,0.887,button_right_main,0.314285714,-0.266836735,1,0,0,,0,124,124,17,1,PARADE,HB,m,m,./images/PARADEHB.png,,,,,,,,,,,,,,,,,,,,,,,,,,,,,,,,,
,,,,,,,,,,,,,,,,,610841cb623bdc27b95987b2,27,2022-02-12_12h19.53.952,lexical_decision_task_DD_L6,2021.2.3,iPhone,58.82352941,,,,,,,,,,0.821,1,,,,,,,,,,,,,,,0,-0.334693878,-0.337244898,1,0,0,0.821,button_left_main,0.131632653,-0.417857143,1,0,0,,0,125,125,143,1,MONGS,LB,z,z,./images/MONGSLB.png,break_done_button,,,,,,,,,,,,,,,,,,,,,,,,,,,,,,,,
,,,,,,,,,,,,,,,,,610841cb623bdc27b95987b2,27,2022-02-12_12h19.53.952,lexical_decision_task_DD_L6,2021.2.3,iPhone,58.82352941,,,,,,,,,,0.787,1,,,,,,,,,,,,,,,0,0.362244898,-0.323979592,1,0,0,0.787,button_right_main,0.362244898,-0.323979592,1,0,0,,0,126,126,76,1,MIDGET,C,m,m,./images/MIDGET.png,,,,,,,,,,,,,,,,,,,,,,,,,,,,,,,,,
,,,,,,,,,,,,,,,,,610841cb623bdc27b95987b2,27,2022-02-12_12h19.53.952,lexical_decision_task_DD_L6,2021.2.3,iPhone,58.82352941,,,,,,,,,,0.938,1,,,,,,,,,,,,,,,0,-0.360204082,-0.253571429,1,0,0,0.938,button_left_main,-0.360204082,-0.253571429,1,0,0,,0,127,127,100,1,DRIBS,HB,z,z,./images/DRIBSHB.png,,,,,,,,,,,,,,,,,,,,,,,,,,,,,,,,,
,,,,,,,,,,,,,,,,,610841cb623bdc27b95987b2,27,2022-02-12_12h19.53.952,lexical_decision_task_DD_L6,2021.2.3,iPhone,58.82352941,,,,,,,,,,0.721,1,,,,,,,,,,,,,,,0,-0.31122449,-0.250510204,1,0,0,0.721,button_left_main,-0.31122449,-0.250510204,1,0,0,,0,128,128,96,1,KEAMS,C,z,z,./images/KEAMS.png,,,,,,,,,,,,,,,,,,,,,,,,,,,,,,,,,
,,,,,,,,,,,,,,,,,610841cb623bdc27b95987b2,27,2022-02-12_12h19.53.952,lexical_decision_task_DD_L6,2021.2.3,iPhone,58.82352941,,,,,,,,,,0.639,1,,,,,,,,,,,,,,,0,-0.319387755,-0.333163265,1,0,0,0.639,button_left_main,-0.319387755,-0.333163265,1,0,0,,0,129,129,146,1,MOOST,LB,z,z,./images/MOOSTLB.png,,,,,,,,,,,,,,,,,,,,,,,,,,,,,,,,,
,,,,,,,,,,,,,,,,,610841cb623bdc27b95987b2,27,2022-02-12_12h19.53.952,lexical_decision_task_DD_L6,2021.2.3,iPhone,58.82352941,,,,,,,,,,0.688,1,,,,,,,,,,,,,,,0,-0.270408163,-0.300510204,1,0,0,0.688,button_left_main,-0.270408163,-0.300510204,1,0,0,,0,130,130,134,1,TROSS,LB,z,z,./images/TROSSLB.png,,,,,,,,,,,,,,,,,,,,,,,,,,,,,,,,,
,,,,,,,,,,,,,,,,,610841cb623bdc27b95987b2,27,2022-02-12_12h19.53.952,lexical_decision_task_DD_L6,2021.2.3,iPhone,58.82352941,,,,,,,,,,0.655,1,,,,,,,,,,,,,,,0,0.315306122,-0.321938776,1,0,0,0.655,button_right_main,0.315306122,-0.321938776,1,0,0,,0,131,131,51,1,SAUCE,LB,m,m,./images/SAUCELB.png,,,,,,,,,,,,,,,,,,,,,,,,,,,,,,,,,
,,,,,,,,,,,,,,,,,610841cb623bdc27b95987b2,27,2022-02-12_12h19.53.952,lexical_decision_task_DD_L6,2021.2.3,iPhone,58.82352941,,,,,,,,,,0.64,1,,,,,,,,,,,,,,,0,-0.356122449,-0.308673469,1,0,0,0.64,button_left_main,-0.356122449,-0.308673469,1,0,0,,0,132,132,84,1,HAXES,C,z,z,./images/HAXES.png,,,,,,,,,,,,,,,,,,,,,,,,,,,,,,,,,
,,,,,,,,,,,,,,,,,610841cb623bdc27b95987b2,27,2022-02-12_12h19.53.952,lexical_decision_task_DD_L6,2021.2.3,iPhone,58.82352941,,,,,,,,,,0.822,1,,,,,,,,,,,,,,,0,0.33877551,-0.335204082,1,0,0,0.822,button_right_main,0.33877551,-0.335204082,1,0,0,,0,133,133,0,1,WALNUT,LB,m,m,./images/WALNUTLB.png,,,,,,,,,,,,,,,,,,,,,,,,,,,,,,,,,
,,,,,,,,,,,,,,,,,610841cb623bdc27b95987b2,27,2022-02-12_12h19.53.952,lexical_decision_task_DD_L6,2021.2.3,iPhone,58.82352941,,,,,,,,,,0.637,1,,,,,,,,,,,,,,,0,0.339795918,-0.329081633,1,0,0,0.637,button_right_main,0.339795918,-0.329081633,1,0,0,,0,134,134,75,1,HAMMER,LB,m,m,./images/HAMMERLB.png,,,,,,,,,,,,,,,,,,,,,,,,,,,,,,,,,
,,,,,,,,,,,,,,,,,610841cb623bdc27b95987b2,27,2022-02-12_12h19.53.952,lexical_decision_task_DD_L6,2021.2.3,iPhone,58.82352941,,,,,,,,,,0.721,1,,,,,,,,,,,,,,,0,0.309183673,-0.334183673,1,0,0,0.721,button_right_main,0.309183673,-0.334183673,1,0,0,,0,135,135,36,1,BOILER,LB,m,m,./images/BOILERLB.png,,,,,,,,,,,,,,,,,,,,,,,,,,,,,,,,,
,,,,,,,,,,,,,,,,,610841cb623bdc27b95987b2,27,2022-02-12_12h19.53.952,lexical_decision_task_DD_L6,2021.2.3,iPhone,58.82352941,,,,,,,,,,0.838,1,,,,,,,,,,,,,,,0,-0.380612245,-0.300510204,1,0,0,0.838,button_left_main,-0.380612245,-0.300510204,1,0,0,,0,136,136,110,1,CRUNK,LB,z,z,./images/CRUNKLB.png,,,,,,,,,,,,,,,,,,,,,,,,,,,,,,,,,
,,,,,,,,,,,,,,,,,610841cb623bdc27b95987b2,27,2022-02-12_12h19.53.952,lexical_decision_task_DD_L6,2021.2.3,iPhone,58.82352941,,,,,,,,,,0.772,1,,,,,,,,,,,,,,,0,-0.315306122,-0.303571429,1,0,0,0.772,button_left_main,-0.315306122,-0.303571429,1,0,0,,0,137,137,89,1,DRIEK,LB,z,z,./images/DRIEKLB.png,,,,,,,,,,,,,,,,,,,,,,,,,,,,,,,,,
,,,,,,,,,,,,,,,,,610841cb623bdc27b95987b2,27,2022-02-12_12h19.53.952,lexical_decision_task_DD_L6,2021.2.3,iPhone,58.82352941,,,,,,,,,,0.771,1,,,,,,,,,,,,,,,0,0.355102041,-0.292346939,1,0,0,0.771,button_right_main,0.355102041,-0.292346939,1,0,0,,0,138,138,59,1,BRUSH,HB,m,m,./images/BRUSHHB.png,,,,,,,,,,,,,,,,,,,,,,,,,,,,,,,,,
,,,,,,,,,,,,,,,,,610841cb623bdc27b95987b2,27,2022-02-12_12h19.53.952,lexical_decision_task_DD_L6,2021.2.3,iPhone,58.82352941,,,,,,,,,,0.704,1,,,,,,,,,,,,,,,0,0.316326531,-0.289285714,1,0,0,0.704,button_right_main,0.316326531,-0.289285714,1,0,0,,0,139,139,49,1,BISHOP,C,m,m,./images/BISHOP.png,,,,,,,,,,,,,,,,,,,,,,,,,,,,,,,,,
,,,,,,,,,,,,,,,,,610841cb623bdc27b95987b2,27,2022-02-12_12h19.53.952,lexical_decision_task_DD_L6,2021.2.3,iPhone,58.82352941,,,,,,,,,,0.939,1,,,,,,,,,,,,,,,0,-0.343877551,-0.312755102,1,0,0,0.939,button_left_main,-0.343877551,-0.312755102,1,0,0,,0,140,140,165,1,TROWN,C,z,z,./images/TROWN.png,,,,,,,,,,,,,,,,,,,,,,,,,,,,,,,,,
,,,,,,,,,,,,,,,,,610841cb623bdc27b95987b2,27,2022-02-12_12h19.53.952,lexical_decision_task_DD_L6,2021.2.3,iPhone,58.82352941,,,,,,,,,,0.822,1,,,,,,,,,,,,,,,0,0.378571429,-0.266836735,1,0,0,0.822,button_right_main,0.378571429,-0.266836735,1,0,0,,0,141,141,24,1,FLESH,LB,m,m,./images/FLESHLB.png,,,,,,,,,,,,,,,,,,,,,,,,,,,,,,,,,
,,,,,,,,,,,,,,,,,610841cb623bdc27b95987b2,27,2022-02-12_12h19.53.952,lexical_decision_task_DD_L6,2021.2.3,iPhone,58.82352941,,,,,,,,,,0.604,1,,,,,,,,,,,,,,,0,0.32244898,-0.334183673,1,0,0,0.604,button_right_main,0.32244898,-0.334183673,1,0,0,,0,142,142,42,1,CHAIN,LB,m,m,./images/CHAINLB.png,,,,,,,,,,,,,,,,,,,,,,,,,,,,,,,,,
,,,,,,,,,,,,,,,,,610841cb623bdc27b95987b2,27,2022-02-12_12h19.53.952,lexical_decision_task_DD_L6,2021.2.3,iPhone,58.82352941,,,,,,,,,,0.788,1,,,,,,,,,,,,,,,0,-0.31122449,-0.301530612,1,0,0,0.788,button_left_main,-0.31122449,-0.301530612,1,0,0,,0,143,143,130,1,CRILL,HB,z,z,./images/CRILLHB.png,,,,,,,,,,,,,,,,,,,,,,,,,,,,,,,,,
,,,,,,,,,,,,,,,,,610841cb623bdc27b95987b2,27,2022-02-12_12h19.53.952,lexical_decision_task_DD_L6,2021.2.3,iPhone,58.82352941,,,,,,,,,,0.755,1,,,,,,,,,,,,,,,0,-0.297959184,-0.296428571,1,0,0,0.755,button_left_main,-0.297959184,-0.296428571,1,0,0,,0,144,144,156,1,HIXES,C,z,z,./images/HIXES.png,,,,,,,,,,,,,,,,,,,,,,,,,,,,,,,,,
,,,,,,,,,,,,,,,,,610841cb623bdc27b95987b2,27,2022-02-12_12h19.53.952,lexical_decision_task_DD_L6,2021.2.3,iPhone,58.82352941,,,,,,,,,,1.108,1,,,,,,,,,,,,,,,0,-0.262244898,-0.337244898,1,0,0,1.108,button_left_main,-0.262244898,-0.337244898,1,0,0,,0,145,145,118,1,BAVEL,HB,z,z,./images/BAVELHB.png,,,,,,,,,,,,,,,,,,,,,,,,,,,,,,,,,
,,,,,,,,,,,,,,,,,610841cb623bdc27b95987b2,27,2022-02-12_12h19.53.952,lexical_decision_task_DD_L6,2021.2.3,iPhone,58.82352941,,,,,,,,,,0.706,1,,,,,,,,,,,,,,,0,-0.273469388,-0.332142857,1,0,0,0.706,button_left_main,-0.273469388,-0.332142857,1,0,0,,0,146,146,153,1,CLUPS,C,z,z,./images/CLUPS.png,,,,,,,,,,,,,,,,,,,,,,,,,,,,,,,,,
,,,,,,,,,,,,,,,,,610841cb623bdc27b95987b2,27,2022-02-12_12h19.53.952,lexical_decision_task_DD_L6,2021.2.3,iPhone,58.82352941,,,,,,,,,,0.855,1,,,,,,,,,,,,,,,0,-0.275510204,-0.353571429,1,0,0,0.855,button_left_main,-0.275510204,-0.353571429,1,0,0,,0,147,147,107,1,FASKS,LB,z,z,./images/FASKSLB.png,,,,,,,,,,,,,,,,,,,,,,,,,,,,,,,,,
,,,,,,,,,,,,,,,,,610841cb623bdc27b95987b2,27,2022-02-12_12h19.53.952,lexical_decision_task_DD_L6,2021.2.3,iPhone,58.82352941,,,,,,,,,,0.689,1,,,,,,,,,,,,,,,0,-0.320408163,-0.276020408,1,0,0,0.689,button_left_main,-0.320408163,-0.276020408,1,0,0,,0,148,148,99,1,BACKY,C,z,z,./images/BACKY.png,,,,,,,,,,,,,,,,,,,,,,,,,,,,,,,,,
,,,,,,,,,,,,,,,,,610841cb623bdc27b95987b2,27,2022-02-12_12h19.53.952,lexical_decision_task_DD_L6,2021.2.3,iPhone,58.82352941,,,,,,,,,,0.855,1,,,,,,,,,,,,,,,0,0.31122449,-0.325,1,0,0,0.855,button_right_main,0.31122449,-0.325,1,0,0,,0,149,149,47,1,LAGOON,HB,m,m,./images/LAGOONHB.png,,,,,,,,,,,,,,,,,,,,,,,,,,,,,,,,,
,,,,,,,,,,,,,,,,,610841cb623bdc27b95987b2,27,2022-02-12_12h19.53.952,lexical_decision_task_DD_L6,2021.2.3,iPhone,58.82352941,,,,,,,,,,0.67,1,,,,,,,,,,,,,,,0,0.309183673,-0.316836735,1,0,0,0.67,button_right_main,0.309183673,-0.316836735,1,0,0,,0,150,150,80,1,PLANET,HB,m,m,./images/PLANETHB.png,,,,,,,,,,,,,,,,,,,,,,,,,,,,,,,,,
,,,,,,,,,,,,,,,,,610841cb623bdc27b95987b2,27,2022-02-12_12h19.53.952,lexical_decision_task_DD_L6,2021.2.3,iPhone,58.82352941,,,,,,,,,,0.688,1,,,,,,,,,,,,,,,0,-0.284693878,-0.279081633,1,0,0,0.688,button_left_main,-0.284693878,-0.279081633,1,0,0,,0,151,151,105,1,MOKER,C,z,z,./images/MOKER.png,,,,,,,,,,,,,,,,,,,,,,,,,,,,,,,,,
,,,,,,,,,,,,,,,,,610841cb623bdc27b95987b2,27,2022-02-12_12h19.53.952,lexical_decision_task_DD_L6,2021.2.3,iPhone,58.82352941,,,,,,,,,,0.858,1,,,,,,,,,,,,,,,0,-0.291836735,-0.295408163,1,0,0,0.858,button_left_main,-0.291836735,-0.295408163,1,0,0,,0,152,152,152,1,FRAIN,LB,z,z,./images/FRAINLB.png,,,,,,,,,,,,,,,,,,,,,,,,,,,,,,,,,
,,,,,,,,,,,,,,,,,610841cb623bdc27b95987b2,27,2022-02-12_12h19.53.952,lexical_decision_task_DD_L6,2021.2.3,iPhone,58.82352941,,,,,,,,,,0.672,1,,,,,,,,,,,,,,,0,-0.279591837,-0.280102041,1,0,0,0.672,button_left_main,-0.279591837,-0.280102041,1,0,0,,0,153,153,155,1,CANGY,LB,z,z,./images/CANGYLB.png,,,,,,,,,,,,,,,,,,,,,,,,,,,,,,,,,
,,,,,,,,,,,,,,,,,610841cb623bdc27b95987b2,27,2022-02-12_12h19.53.952,lexical_decision_task_DD_L6,2021.2.3,iPhone,58.82352941,,,,,,,,,,0.672,1,,,,,,,,,,,,,,,0,0.345918367,-0.322959184,1,0,0,0.672,button_right_main,0.345918367,-0.322959184,1,0,0,,0,154,154,63,1,BAKER,LB,m,m,./images/BAKERLB.png,,,,,,,,,,,,,,,,,,,,,,,,,,,,,,,,,
,,,,,,,,,,,,,,,,,610841cb623bdc27b95987b2,27,2022-02-12_12h19.53.952,lexical_decision_task_DD_L6,2021.2.3,iPhone,58.82352941,,,,,,,,,,0.738,1,,,,,,,,,,,,,,,0,0.283673469,-0.359693878,1,0,0,0.738,button_right_main,0.283673469,-0.359693878,1,0,0,,0,155,155,9,1,DIVER,LB,m,m,./images/DIVERLB.png,,,,,,,,,,,,,,,,,,,,,,,,,,,,,,,,,
,,,,,,,,,,,,,,,,,610841cb623bdc27b95987b2,27,2022-02-12_12h19.53.952,lexical_decision_task_DD_L6,2021.2.3,iPhone,58.82352941,,,,,,,,,,0.938,1,,,,,,,,,,,,,,,0,-0.297959184,-0.289285714,1,0,0,0.938,button_left_main,-0.297959184,-0.289285714,1,0,0,,0,156,156,163,1,GAMBA,HB,z,z,./images/GAMBAHB.png,,,,,,,,,,,,,,,,,,,,,,,,,,,,,,,,,
,,,,,,,,,,,,,,,,,610841cb623bdc27b95987b2,27,2022-02-12_12h19.53.952,lexical_decision_task_DD_L6,2021.2.3,iPhone,58.82352941,,,,,,,,,,0.705,1,,,,,,,,,,,,,,,0,-0.293877551,-0.303571429,1,0,0,0.705,button_left_main,-0.293877551,-0.303571429,1,0,0,,0,157,157,102,1,DULLE,C,z,z,./images/DULLE.png,,,,,,,,,,,,,,,,,,,,,,,,,,,,,,,,,
,,,,,,,,,,,,,,,,,610841cb623bdc27b95987b2,27,2022-02-12_12h19.53.952,lexical_decision_task_DD_L6,2021.2.3,iPhone,58.82352941,,,,,,,,,,0.821,1,,,,,,,,,,,,,,,0,0.315306122,-0.30255102,1,0,0,0.821,button_right_main,0.315306122,-0.30255102,1,0,0,,0,158,158,20,1,GRANNY,HB,m,m,./images/GRANNYHB.png,,,,,,,,,,,,,,,,,,,,,,,,,,,,,,,,,
,,,,,,,,,,,,,,,,,610841cb623bdc27b95987b2,27,2022-02-12_12h19.53.952,lexical_decision_task_DD_L6,2021.2.3,iPhone,58.82352941,,,,,,,,,,0.787,1,,,,,,,,,,,,,,,0,-0.27755102,-0.280102041,1,0,0,0.787,button_left_main,-0.27755102,-0.280102041,1,0,0,,0,159,159,98,1,BAMPS,LB,z,z,./images/BAMPSLB.png,,,,,,,,,,,,,,,,,,,,,,,,,,,,,,,,,
,,,,,,,,,,,,,,,,,610841cb623bdc27b95987b2,27,2022-02-12_12h19.53.952,lexical_decision_task_DD_L6,2021.2.3,iPhone,58.82352941,,,,,,,,,,0.903,1,,,,,,,,,,,,,,,0,-0.32244898,-0.296428571,1,0,0,0.903,button_left_main,-0.32244898,-0.296428571,1,0,0,,0,160,160,122,1,BLOOT,LB,z,z,./images/BLOOTLB.png,,,,,,,,,,,,,,,,,,,,,,,,,,,,,,,,,
,,,,,,,,,,,,,,,,,610841cb623bdc27b95987b2,27,2022-02-12_12h19.53.952,lexical_decision_task_DD_L6,2021.2.3,iPhone,58.82352941,,,,,,,,,,0.601,1,,,,,,,,,,,,,,,0,0.314285714,-0.315816327,1,0,0,0.601,button_right_main,0.314285714,-0.315816327,1,0,0,,0,161,161,22,1,CLOWN,C,m,m,./images/CLOWN.png,,,,,,,,,,,,,,,,,,,,,,,,,,,,,,,,,
,,,,,,,,,,,,,,,,,610841cb623bdc27b95987b2,27,2022-02-12_12h19.53.952,lexical_decision_task_DD_L6,2021.2.3,iPhone,58.82352941,,,,,,,,,,0.656,1,,,,,,,,,,,,,,,0,0.321428571,-0.285204082,1,0,0,0.656,button_right_main,0.321428571,-0.285204082,1,0,0,,0,162,162,46,1,MUMMY,C,m,m,./images/MUMMY.png,,,,,,,,,,,,,,,,,,,,,,,,,,,,,,,,,
,,,,,,,,,,,,,,,,,610841cb623bdc27b95987b2,27,2022-02-12_12h19.53.952,lexical_decision_task_DD_L6,2021.2.3,iPhone,58.82352941,,,,,,,,,,0.691,1,,,,,,,,,,,,,,,0,0.308163265,-0.33622449,1,0,0,0.691,button_right_main,0.308163265,-0.33622449,1,0,0,,0,163,163,37,1,TIGER,C,m,m,./images/TIGER.png,,,,,,,,,,,,,,,,,,,,,,,,,,,,,,,,,
,,,,,,,,,,,,,,,,,610841cb623bdc27b95987b2,27,2022-02-12_12h19.53.952,lexical_decision_task_DD_L6,2021.2.3,iPhone,58.82352941,,,,,,,,,,1.123,1,,,,,,,,,,,,,,,0,-0.294897959,-0.355612245,1,0,0,1.123,button_left_main,-0.294897959,-0.355612245,1,0,0,,0,164,164,85,1,CHULK,HB,z,z,./images/CHULKHB.png,,,,,,,,,,,,,,,,,,,,,,,,,,,,,,,,,
,,,,,,,,,,,,,,,,,610841cb623bdc27b95987b2,27,2022-02-12_12h19.53.952,lexical_decision_task_DD_L6,2021.2.3,iPhone,58.82352941,,,,,,,,,,0.653,1,,,,,,,,,,,,,,,0,0.31122449,-0.325,1,0,0,0.653,button_right_main,0.31122449,-0.325,1,0,0,,0,165,165,58,1,CANOE,C,m,m,./images/CANOE.png,,,,,,,,,,,,,,,,,,,,,,,,,,,,,,,,,
,,,,,,,,,,,,,,,,,610841cb623bdc27b95987b2,27,2022-02-12_12h19.53.952,lexical_decision_task_DD_L6,2021.2.3,iPhone,58.82352941,,,,,,,,,,0.788,1,,,,,,,,,,,,,,,0,-0.305102041,-0.342346939,1,0,0,0.788,button_left_main,-0.305102041,-0.342346939,1,0,0,,0,166,166,131,1,NACES,LB,z,z,./images/NACESLB.png,,,,,,,,,,,,,,,,,,,,,,,,,,,,,,,,,
,,,,,,,,,,,,,,,,,610841cb623bdc27b95987b2,27,2022-02-12_12h19.53.952,lexical_decision_task_DD_L6,2021.2.3,iPhone,58.82352941,,,,,,,,,,1.287,1,,,,,,,,,,,,,,,0,-0.317346939,-0.321938776,1,0,0,1.287,button_left_main,-0.317346939,-0.321938776,1,0,0,,0,167,167,141,1,PLEET,C,z,z,./images/PLEET.png,,,,,,,,,,,,,,,,,,,,,,,,,,,,,,,,,
,,,,,,,,,,,,,,,,,610841cb623bdc27b95987b2,27,2022-02-12_12h19.53.952,lexical_decision_task_DD_L6,2021.2.3,iPhone,58.82352941,,,,,,,,,,,,,,,,,,,,,,,,,,,,,,,,,,,,,,,,,,,,,,How likely will it be that you will recognize the words presented clearly on a scale of 0 (not likely) to 100 (most likely)?,,,,,-0.004081633,-0.393367347,1,0,0,jol_adv,6,12.921,0,0,0,0,1,,,,,,,,,,,,,,,,,,,
,,,,,,,,,,,,,,,,,610841cb623bdc27b95987b2,27,2022-02-12_12h19.53.952,lexical_decision_task_DD_L6,2021.2.3,iPhone,58.82352941,,,,,,,,,,,,,,,,,,,,,,,,,,,,,,,,,,,,,,,,,,,,,,How likely will it be that you will recognize the words presented very blurred on a scale of 0 (not likely) to 100 (most likely)?,,,,,,,,,,,2,3.914,0,1,1,2,1,,,,,,,,,,,,,,,,,,,
,,,,,,,,,,,,,,,,,610841cb623bdc27b95987b2,27,2022-02-12_12h19.53.952,lexical_decision_task_DD_L6,2021.2.3,iPhone,58.82352941,,,,,,,,,,,,,,,,,,,,,,,,,,,,,,,,,,,,,,,,,,,,,,How likely will it be that you will recognize the words presented slighly blurred on a scale of 0 (not likely) to 100 (most likely)?,,,,,,,,,,,5,4.149,0,2,2,1,1,,,,,,,,,,,,,,,,,,,
,0.098979592,-0.404591837,1,0,0,instr_done_button,,,,,,1,test,"In the next phase you will be presented with the words from the the first phase. Your job is to decide whether you remember seeing the word or not. If you remember seeing the word press ""old"" or type ""m"". If you do not remember seeing the word press ""new"" or type ""z"". Please press the space bar or click on continue to begin. ",,,610841cb623bdc27b95987b2,27,2022-02-12_12h19.53.952,lexical_decision_task_DD_L6,2021.2.3,iPhone,58.82352941,,,,,,,,,,,,,,,,,,,,,,,,,,,,,,,,,,,,,,,,,,,,,,,,,,,,,,,,,,,,,,,,0,0,0,0,1,,,,,,,,,,,,,,
,0.098979592,-0.373979592,1,0,0,instr_done_button,,,,,,1,test,"In the next phase you will be presented with the words from the the first phase. Your job is to decide whether you remember seeing the word or not. If you remember seeing the word press ""old"" or type ""m"". If you do not remember seeing the word press ""new"" or type ""z"". Please press the space bar or click on continue to begin. ",,,610841cb623bdc27b95987b2,27,2022-02-12_12h19.53.952,lexical_decision_task_DD_L6,2021.2.3,iPhone,58.82352941,,,,,,,,,,,,,,,,,,,,,,,,,,,,,,,,,,,,,,,,,,,,,,,,,,,,,,,,,,,,,,,,1,0,1,0,1,,,,,,,,,,,,,,
,0.053061224,-0.390306122,1,0,0,instr_done_button,,,,,,1,test,"In the next phase you will be presented with the words from the the first phase. Your job is to decide whether you remember seeing the word or not. If you remember seeing the word press ""old"" or type ""m"". If you do not remember seeing the word press ""new"" or type ""z"". Please press the space bar or click on continue to begin. ",,,610841cb623bdc27b95987b2,27,2022-02-12_12h19.53.952,lexical_decision_task_DD_L6,2021.2.3,iPhone,58.82352941,,,,,,,,,,,,,,,,,,,,,,,,,,,,,,,,,,,,,,,,,,,,,,,,,,,,,,,,,,,,,,,,2,0,2,0,1,,,,,,,,,,,,,,
,-0.026530612,-0.379081633,1,0,0,instr_done_button,,,,,,1,test,"In the next phase you will be presented with the words from the the first phase. Your job is to decide whether you remember seeing the word or not. If you remember seeing the word press ""old"" or type ""m"". If you do not remember seeing the word press ""new"" or type ""z"". Please press the space bar or click on continue to begin. ",,,610841cb623bdc27b95987b2,27,2022-02-12_12h19.53.952,lexical_decision_task_DD_L6,2021.2.3,iPhone,58.82352941,,,,,,,,,,,,,,,,,,,,,,,,,,,,,,,,,,,,,,,,,,,,,,,,,,,,,,,,,,,,,,,,3,0,3,0,1,,,,,,,,,,,,,,
,0.056122449,-0.410714286,1,0,0,instr_done_button,,,,,,1,test,"In the next phase you will be presented with the words from the the first phase. Your job is to decide whether you remember seeing the word or not. If you remember seeing the word press ""old"" or type ""m"". If you do not remember seeing the word press ""new"" or type ""z"". Please press the space bar or click on continue to begin. ",,,610841cb623bdc27b95987b2,27,2022-02-12_12h19.53.952,lexical_decision_task_DD_L6,2021.2.3,iPhone,58.82352941,,,,,,,,,,,,,,,,,,,,,,,,,,,,,,,,,,,,,,,,,,,,,,,,,,,,,,,,,,,,,,,,4,0,4,0,1,,,,,,,,,,,,,,
,,,,,,,,,,,,,,,,,610841cb623bdc27b95987b2,27,2022-02-12_12h19.53.952,lexical_decision_task_DD_L6,2021.2.3,iPhone,58.82352941,,,,,,,,,,1.687,0,,,,,,,,,,,,,,,,,,,,,,,0.306122449,-0.259693878,1,0,0,,,,,,,CRUST,C,z,y,./images/CRUST.png,,,,,,,,,,,,,,,,,,,,,0,0.306122449,-0.259693878,1,0,0,1.687,button_right_test,0,0,0,163,1
,,,,,,,,,,,,,,,,,610841cb623bdc27b95987b2,27,2022-02-12_12h19.53.952,lexical_decision_task_DD_L6,2021.2.3,iPhone,58.82352941,,,,,,,,,,0.888,0,,,,,,,,,,,,,,,,,,,,,,,0.352040816,-0.342346939,1,0,0,,,,,,,FARMER,HB,z,y,./images/FARMERHB.png,,,,,,,,,,,,,,,,,,,,,0,0.352040816,-0.342346939,1,0,0,0.888,button_right_test,0,1,1,149,1
,,,,,,,,,,,,,,,,,610841cb623bdc27b95987b2,27,2022-02-12_12h19.53.952,lexical_decision_task_DD_L6,2021.2.3,iPhone,58.82352941,,,,,,,,,,1.007,1,,,,,,,,,,,,,,,,,,,,,,,-0.366326531,-0.316836735,1,0,0,,,,,,,LIZARD,HB,z,y,./images/LIZARDHB.png,,,,,,,,,,,,,,,,,,,,,0,-0.366326531,-0.316836735,1,0,0,1.007,button_left_test,0,2,2,128,1
,,,,,,,,,,,,,,,,,610841cb623bdc27b95987b2,27,2022-02-12_12h19.53.952,lexical_decision_task_DD_L6,2021.2.3,iPhone,58.82352941,,,,,,,,,,1.04,1,,,,,,,,,,,,,,,,,,,,,,,0.360204082,-0.332142857,1,0,0,,,,,,,HAMMER,LB,m,y,./images/HAMMERLB.png,,,,,,,,,,,,,,,,,,,,,0,0.360204082,-0.332142857,1,0,0,1.04,button_right_test,0,3,3,75,1
,,,,,,,,,,,,,,,,,610841cb623bdc27b95987b2,27,2022-02-12_12h19.53.952,lexical_decision_task_DD_L6,2021.2.3,iPhone,58.82352941,,,,,,,,,,0.82,1,,,,,,,,,,,,,,,,,,,,,,,0.320408163,-0.29744898,1,0,0,,,,,,,BISHOP,C,m,y,./images/BISHOP.png,,,,,,,,,,,,,,,,,,,,,0,0.320408163,-0.29744898,1,0,0,0.82,button_right_test,0,4,4,49,1
,,,,,,,,,,,,,,,,,610841cb623bdc27b95987b2,27,2022-02-12_12h19.53.952,lexical_decision_task_DD_L6,2021.2.3,iPhone,58.82352941,,,,,,,,,,1.358,1,,,,,,,,,,,,,,,,,,,,,,,-0.351020408,-0.314795918,1,0,0,,,,,,,COUCH,HB,z,y,./images/COUCHHB.png,,,,,,,,,,,,,,,,,,,,,0,-0.351020408,-0.314795918,1,0,0,1.358,button_left_test,0,5,5,161,1
,,,,,,,,,,,,,,,,,610841cb623bdc27b95987b2,27,2022-02-12_12h19.53.952,lexical_decision_task_DD_L6,2021.2.3,iPhone,58.82352941,,,,,,,,,,0.924,1,,,,,,,,,,,,,,,,,,,,,,,0.402040816,-0.300510204,1,0,0,,,,,,,BASKET,HB,m,y,./images/BASKETHB.png,,,,,,,,,,,,,,,,,,,,,0,0.402040816,-0.300510204,1,0,0,0.924,button_right_test,0,6,6,44,1
,,,,,,,,,,,,,,,,,610841cb623bdc27b95987b2,27,2022-02-12_12h19.53.952,lexical_decision_task_DD_L6,2021.2.3,iPhone,58.82352941,,,,,,,,,,1.24,1,,,,,,,,,,,,,,,,,,,,,,,-0.353061224,-0.342346939,1,0,0,,,,,,,MUSCLE,C,z,y,./images/MUSCLE.png,,,,,,,,,,,,,,,,,,,,,0,-0.353061224,-0.342346939,1,0,0,1.24,button_left_test,0,7,7,88,1
,,,,,,,,,,,,,,,,,610841cb623bdc27b95987b2,27,2022-02-12_12h19.53.952,lexical_decision_task_DD_L6,2021.2.3,iPhone,58.82352941,,,,,,,,,,0.859,1,,,,,,,,,,,,,,,,,,,,,,,0.356122449,-0.285204082,1,0,0,,,,,,,PARADE,HB,m,y,./images/PARADEHB.png,,,,,,,,,,,,,,,,,,,,,0,0.356122449,-0.285204082,1,0,0,0.859,button_right_test,0,8,8,17,1
,,,,,,,,,,,,,,,,,610841cb623bdc27b95987b2,27,2022-02-12_12h19.53.952,lexical_decision_task_DD_L6,2021.2.3,iPhone,58.82352941,,,,,,,,,,0.719,1,,,,,,,,,,,,,,,,,,,,,,,0.310204082,-0.316836735,1,0,0,,,,,,,MIDGET,C,m,y,./images/MIDGET.png,,,,,,,,,,,,,,,,,,,,,0,0.310204082,-0.316836735,1,0,0,0.719,button_right_test,0,9,9,76,1
,,,,,,,,,,,,,,,,,610841cb623bdc27b95987b2,27,2022-02-12_12h19.53.952,lexical_decision_task_DD_L6,2021.2.3,iPhone,58.82352941,,,,,,,,,,1.44,0,,,,,,,,,,,,,,,,,,,,,,,-0.319387755,-0.341326531,1,0,0,,,,,,,WHEEL,HB,m,y,./images/WHEELHB.png,,,,,,,,,,,,,,,,,,,,,0,-0.319387755,-0.341326531,1,0,0,1.44,button_left_test,0,10,10,77,1
,,,,,,,,,,,,,,,,,610841cb623bdc27b95987b2,27,2022-02-12_12h19.53.952,lexical_decision_task_DD_L6,2021.2.3,iPhone,58.82352941,,,,,,,,,,1.671,1,,,,,,,,,,,,,,,,,,,,,,,-0.320408163,-0.310714286,1,0,0,,,,,,,PASTA,HB,z,y,./images/PASTAHB.png,,,,,,,,,,,,,,,,,,,,,0,-0.320408163,-0.310714286,1,0,0,1.671,button_left_test,0,11,11,89,1
,,,,,,,,,,,,,,,,,610841cb623bdc27b95987b2,27,2022-02-12_12h19.53.952,lexical_decision_task_DD_L6,2021.2.3,iPhone,58.82352941,,,,,,,,,,0.886,1,,,,,,,,,,,,,,,,,,,,,,,0.32244898,-0.306632653,1,0,0,,,,,,,ALLEY,C,m,y,./images/ALLEY.png,,,,,,,,,,,,,,,,,,,,,0,0.32244898,-0.306632653,1,0,0,0.886,button_right_test,0,12,12,55,1
,,,,,,,,,,,,,,,,,610841cb623bdc27b95987b2,27,2022-02-12_12h19.53.952,lexical_decision_task_DD_L6,2021.2.3,iPhone,58.82352941,,,,,,,,,,0.89,1,,,,,,,,,,,,,,,,,,,,,,,0.326530612,-0.272959184,1,0,0,,,,,,,GARDEN,C,m,y,./images/GARDEN.png,,,,,,,,,,,,,,,,,,,,,0,0.326530612,-0.272959184,1,0,0,0.89,button_right_test,0,13,13,10,1
,,,,,,,,,,,,,,,,,610841cb623bdc27b95987b2,27,2022-02-12_12h19.53.952,lexical_decision_task_DD_L6,2021.2.3,iPhone,58.82352941,,,,,,,,,,0.889,0,,,,,,,,,,,,,,,,,,,,,,,0.291836735,-0.315816327,1,0,0,,,,,,,MOOSE,LB,z,y,./images/MOOSELB.png,,,,,,,,,,,,,,,,,,,,,0,0.291836735,-0.315816327,1,0,0,0.889,button_right_test,0,14,14,141,1
,,,,,,,,,,,,,,,,,610841cb623bdc27b95987b2,27,2022-02-12_12h19.53.952,lexical_decision_task_DD_L6,2021.2.3,iPhone,58.82352941,,,,,,,,,,0.922,1,,,,,,,,,,,,,,,,,,,,,,,0.290816327,-0.333163265,1,0,0,,,,,,,COLLAR,LB,m,y,./images/COLLARLB.png,,,,,,,,,,,,,,,,,,,,,0,0.290816327,-0.333163265,1,0,0,0.922,button_right_test,0,15,15,15,1
,,,,,,,,,,,,,,,,,610841cb623bdc27b95987b2,27,2022-02-12_12h19.53.952,lexical_decision_task_DD_L6,2021.2.3,iPhone,58.82352941,,,,,,,,,,0.84,1,,,,,,,,,,,,,,,,,,,,,,,0.307142857,-0.265816327,1,0,0,,,,,,,STOVE,HB,m,y,./images/STOVEHB.png,,,,,,,,,,,,,,,,,,,,,0,0.307142857,-0.265816327,1,0,0,0.84,button_right_test,0,16,16,2,1
,,,,,,,,,,,,,,,,,610841cb623bdc27b95987b2,27,2022-02-12_12h19.53.952,lexical_decision_task_DD_L6,2021.2.3,iPhone,58.82352941,,,,,,,,,,0.855,1,,,,,,,,,,,,,,,,,,,,,,,0.329591837,-0.26377551,1,0,0,,,,,,,TIGER,C,m,y,./images/TIGER.png,,,,,,,,,,,,,,,,,,,,,0,0.329591837,-0.26377551,1,0,0,0.855,button_right_test,0,17,17,37,1
,,,,,,,,,,,,,,,,,610841cb623bdc27b95987b2,27,2022-02-12_12h19.53.952,lexical_decision_task_DD_L6,2021.2.3,iPhone,58.82352941,,,,,,,,,,0.908,1,,,,,,,,,,,,,,,,,,,,,,,-0.335714286,-0.332142857,1,0,0,,,,,,,SQUARE,LB,z,y,./images/SQUARELB.png,,,,,,,,,,,,,,,,,,,,,0,-0.335714286,-0.332142857,1,0,0,0.908,button_left_test,0,18,18,90,1
,,,,,,,,,,,,,,,,,610841cb623bdc27b95987b2,27,2022-02-12_12h19.53.952,lexical_decision_task_DD_L6,2021.2.3,iPhone,58.82352941,,,,,,,,,,0.872,0,,,,,,,,,,,,,,,,,,,,,,,0.316326531,-0.288265306,1,0,0,,,,,,,JUNGLE,HB,z,y,./images/JUNGLEHB.png,,,,,,,,,,,,,,,,,,,,,0,0.316326531,-0.288265306,1,0,0,0.872,button_right_test,0,19,19,167,1
,,,,,,,,,,,,,,,,,610841cb623bdc27b95987b2,27,2022-02-12_12h19.53.952,lexical_decision_task_DD_L6,2021.2.3,iPhone,58.82352941,,,,,,,,,,0.857,1,,,,,,,,,,,,,,,,,,,,,,,-0.321428571,-0.30255102,1,0,0,,,,,,,JELLY,C,z,y,./images/JELLY.png,,,,,,,,,,,,,,,,,,,,,0,-0.321428571,-0.30255102,1,0,0,0.857,button_left_test,0,20,20,148,1
,,,,,,,,,,,,,,,,,610841cb623bdc27b95987b2,27,2022-02-12_12h19.53.952,lexical_decision_task_DD_L6,2021.2.3,iPhone,58.82352941,,,,,,,,,,1.076,0,,,,,,,,,,,,,,,,,,,,,,,-0.269387755,-0.337244898,1,0,0,,,,,,,SPINE,HB,m,y,./images/SPINEHB.png,,,,,,,,,,,,,,,,,,,,,0,-0.269387755,-0.337244898,1,0,0,1.076,button_left_test,0,21,21,65,1
,,,,,,,,,,,,,,,,,610841cb623bdc27b95987b2,27,2022-02-12_12h19.53.952,lexical_decision_task_DD_L6,2021.2.3,iPhone,58.82352941,,,,,,,,,,0.805,1,,,,,,,,,,,,,,,,,,,,,,,0.3,-0.282142857,1,0,0,,,,,,,STATUE,LB,m,y,./images/STATUELB.png,,,,,,,,,,,,,,,,,,,,,0,0.3,-0.282142857,1,0,0,0.805,button_right_test,0,22,22,66,1
,,,,,,,,,,,,,,,,,610841cb623bdc27b95987b2,27,2022-02-12_12h19.53.952,lexical_decision_task_DD_L6,2021.2.3,iPhone,58.82352941,,,,,,,,,,0.607,1,,,,,,,,,,,,,,,,,,,,,,,0.282653061,-0.299489796,1,0,0,,,,,,,PLANET,HB,m,y,./images/PLANETHB.png,,,,,,,,,,,,,,,,,,,,,0,0.282653061,-0.299489796,1,0,0,0.607,button_right_test,0,23,23,80,1
,,,,,,,,,,,,,,,,,610841cb623bdc27b95987b2,27,2022-02-12_12h19.53.952,lexical_decision_task_DD_L6,2021.2.3,iPhone,58.82352941,,,,,,,,,,1.188,1,,,,,,,,,,,,,,,,,,,,,,,-0.307142857,-0.346428571,1,0,0,,,,,,,TULIP,HB,z,y,./images/TULIPHB.png,,,,,,,,,,,,,,,,,,,,,0,-0.307142857,-0.346428571,1,0,0,1.188,button_left_test,0,24,24,92,1
,,,,,,,,,,,,,,,,,610841cb623bdc27b95987b2,27,2022-02-12_12h19.53.952,lexical_decision_task_DD_L6,2021.2.3,iPhone,58.82352941,,,,,,,,,,0.856,1,,,,,,,,,,,,,,,,,,,,,,,0.352040816,-0.267857143,1,0,0,,,,,,,FLESH,LB,m,y,./images/FLESHLB.png,,,,,,,,,,,,,,,,,,,,,0,0.352040816,-0.267857143,1,0,0,0.856,button_right_test,0,25,25,24,1
,,,,,,,,,,,,,,,,,610841cb623bdc27b95987b2,27,2022-02-12_12h19.53.952,lexical_decision_task_DD_L6,2021.2.3,iPhone,58.82352941,,,,,,,,,,0.974,1,,,,,,,,,,,,,,,,,,,,,,,-0.347959184,-0.289285714,1,0,0,,,,,,,CEMENT,HB,z,y,./images/CEMENTHB.png,,,,,,,,,,,,,,,,,,,,,0,-0.347959184,-0.289285714,1,0,0,0.974,button_left_test,0,26,26,158,1
,,,,,,,,,,,,,,,,,610841cb623bdc27b95987b2,27,2022-02-12_12h19.53.952,lexical_decision_task_DD_L6,2021.2.3,iPhone,58.82352941,,,,,,,,,,0.789,1,,,,,,,,,,,,,,,,,,,,,,,0.321428571,-0.256632653,1,0,0,,,,,,,POKER,C,m,y,./images/POKER.png,,,,,,,,,,,,,,,,,,,,,0,0.321428571,-0.256632653,1,0,0,0.789,button_right_test,0,27,27,67,1
,,,,,,,,,,,,,,,,,610841cb623bdc27b95987b2,27,2022-02-12_12h19.53.952,lexical_decision_task_DD_L6,2021.2.3,iPhone,58.82352941,,,,,,,,,,1.069,1,,,,,,,,,,,,,,,,,,,,,,,-0.359183673,-0.320918367,1,0,0,,,,,,,RHINO,LB,z,y,./images/RHINOLB.png,,,,,,,,,,,,,,,,,,,,,0,-0.359183673,-0.320918367,1,0,0,1.069,button_left_test,0,28,28,93,1
,,,,,,,,,,,,,,,,,610841cb623bdc27b95987b2,27,2022-02-12_12h19.53.952,lexical_decision_task_DD_L6,2021.2.3,iPhone,58.82352941,,,,,,,,,,0.655,0,,,,,,,,,,,,,,,,,,,,,,,0.325510204,-0.273979592,1,0,0,,,,,,,COOKER,LB,z,y,./images/COOKERLB.png,,,,,,,,,,,,,,,,,,,,,0,0.325510204,-0.273979592,1,0,0,0.655,button_right_test,0,29,29,153,1
,,,,,,,,,,,,,,,,,610841cb623bdc27b95987b2,27,2022-02-12_12h19.53.952,lexical_decision_task_DD_L6,2021.2.3,iPhone,58.82352941,,,,,,,,,,0.674,1,,,,,,,,,,,,,,,,,,,,,,,-0.341836735,-0.30255102,1,0,0,,,,,,,BIRTH,C,z,y,./images/BIRTH.png,,,,,,,,,,,,,,,,,,,,,0,-0.341836735,-0.30255102,1,0,0,0.674,button_left_test,0,30,30,121,1
,,,,,,,,,,,,,,,,,610841cb623bdc27b95987b2,27,2022-02-12_12h19.53.952,lexical_decision_task_DD_L6,2021.2.3,iPhone,58.82352941,,,,,,,,,,0.941,1,,,,,,,,,,,,,,,,,,,,,,,0.315306122,-0.273979592,1,0,0,,,,,,,CANDY,LB,m,y,./images/CANDYLB.png,,,,,,,,,,,,,,,,,,,,,0,0.315306122,-0.273979592,1,0,0,0.941,button_right_test,0,31,31,39,1
,,,,,,,,,,,,,,,,,610841cb623bdc27b95987b2,27,2022-02-12_12h19.53.952,lexical_decision_task_DD_L6,2021.2.3,iPhone,58.82352941,,,,,,,,,,0.657,1,,,,,,,,,,,,,,,,,,,,,,,0.296938776,-0.288265306,1,0,0,,,,,,,PARCEL,LB,m,y,./images/PARCELLB.png,,,,,,,,,,,,,,,,,,,,,0,0.296938776,-0.288265306,1,0,0,0.657,button_right_test,0,32,32,18,1
,,,,,,,,,,,,,,,,,610841cb623bdc27b95987b2,27,2022-02-12_12h19.53.952,lexical_decision_task_DD_L6,2021.2.3,iPhone,58.82352941,,,,,,,,,,0.889,0,,,,,,,,,,,,,,,,,,,,,,,0.318367347,-0.273979592,1,0,0,,,,,,,PLANK,C,z,y,./images/PLANK.png,,,,,,,,,,,,,,,,,,,,,0,0.318367347,-0.273979592,1,0,0,0.889,button_right_test,0,33,33,85,1
,,,,,,,,,,,,,,,,,610841cb623bdc27b95987b2,27,2022-02-12_12h19.53.952,lexical_decision_task_DD_L6,2021.2.3,iPhone,58.82352941,,,,,,,,,,1.022,1,,,,,,,,,,,,,,,,,,,,,,,0.320408163,-0.278061224,1,0,0,,,,,,,MEDAL,HB,m,y,./images/MEDALHB.png,,,,,,,,,,,,,,,,,,,,,0,0.320408163,-0.278061224,1,0,0,1.022,button_right_test,0,34,34,11,1
,,,,,,,,,,,,,,,,,610841cb623bdc27b95987b2,27,2022-02-12_12h19.53.952,lexical_decision_task_DD_L6,2021.2.3,iPhone,58.82352941,,,,,,,,,,0.772,1,,,,,,,,,,,,,,,,,,,,,,,0.309183673,-0.272959184,1,0,0,,,,,,,FLASK,LB,m,y,./images/FLASKLB.png,,,,,,,,,,,,,,,,,,,,,0,0.309183673,-0.272959184,1,0,0,0.772,button_right_test,0,35,35,72,1
,,,,,,,,,,,,,,,,,610841cb623bdc27b95987b2,27,2022-02-12_12h19.53.952,lexical_decision_task_DD_L6,2021.2.3,iPhone,58.82352941,,,,,,,,,,0.874,1,,,,,,,,,,,,,,,,,,,,,,,-0.298979592,-0.351530612,1,0,0,,,,,,,SWEAT,LB,z,y,./images/SWEATLB.png,,,,,,,,,,,,,,,,,,,,,0,-0.298979592,-0.351530612,1,0,0,0.874,button_left_test,0,36,36,150,1
,,,,,,,,,,,,,,,,,610841cb623bdc27b95987b2,27,2022-02-12_12h19.53.952,lexical_decision_task_DD_L6,2021.2.3,iPhone,58.82352941,,,,,,,,,,1.557,1,,,,,,,,,,,,,,,,,,,,,,,-0.287755102,-0.341326531,1,0,0,,,,,,,BABOON,C,z,y,./images/BABOON.png,,,,,,,,,,,,,,,,,,,,,0,-0.287755102,-0.341326531,1,0,0,1.557,button_left_test,0,37,37,142,1
,,,,,,,,,,,,,,,,,610841cb623bdc27b95987b2,27,2022-02-12_12h19.53.952,lexical_decision_task_DD_L6,2021.2.3,iPhone,58.82352941,,,,,,,,,,0.858,1,,,,,,,,,,,,,,,,,,,,,,,0.345918367,-0.300510204,1,0,0,,,,,,,MUMMY,C,m,y,./images/MUMMY.png,,,,,,,,,,,,,,,,,,,,,0,0.345918367,-0.300510204,1,0,0,0.858,button_right_test,0,38,38,46,1
,,,,,,,,,,,,,,,,,610841cb623bdc27b95987b2,27,2022-02-12_12h19.53.952,lexical_decision_task_DD_L6,2021.2.3,iPhone,58.82352941,,,,,,,,,,1.038,1,,,,,,,,,,,,,,,,,,,,,,,-0.286734694,-0.305612245,1,0,0,,,,,,,BARREL,HB,z,y,./images/BARRELHB.png,,,,,,,,,,,,,,,,,,,,,0,-0.286734694,-0.305612245,1,0,0,1.038,button_left_test,0,39,39,116,1
,,,,,,,,,,,,,,,,,610841cb623bdc27b95987b2,27,2022-02-12_12h19.53.952,lexical_decision_task_DD_L6,2021.2.3,iPhone,58.82352941,,,,,,,,,,0.937,1,,,,,,,,,,,,,,,,,,,,,,,-0.293877551,-0.333163265,1,0,0,,,,,,,TRIPOD,LB,z,y,./images/TRIPODLB.png,,,,,,,,,,,,,,,,,,,,,0,-0.293877551,-0.333163265,1,0,0,0.937,button_left_test,0,40,40,138,1
,,,,,,,,,,,,,,,,,610841cb623bdc27b95987b2,27,2022-02-12_12h19.53.952,lexical_decision_task_DD_L6,2021.2.3,iPhone,58.82352941,,,,,,,,,,0.773,1,,,,,,,,,,,,,,,,,,,,,,,0.094897959,-0.395408163,1,0,0,,,,,,,WEASEL,HB,z,y,./images/WEASELHB.png,break_done_button,,,,,,,,,,,,,,,,,,,,0,-0.276530612,-0.319897959,1,0,0,0.773,button_left_test,0,41,41,164,1
,,,,,,,,,,,,,,,,,610841cb623bdc27b95987b2,27,2022-02-12_12h19.53.952,lexical_decision_task_DD_L6,2021.2.3,iPhone,58.82352941,,,,,,,,,,1.208,1,,,,,,,,,,,,,,,,,,,,,,,0.325510204,-0.337244898,1,0,0,,,,,,,STEAK,C,m,y,./images/STEAK.png,,,,,,,,,,,,,,,,,,,,,0,0.325510204,-0.337244898,1,0,0,1.208,button_right_test,0,42,42,31,1
,,,,,,,,,,,,,,,,,610841cb623bdc27b95987b2,27,2022-02-12_12h19.53.952,lexical_decision_task_DD_L6,2021.2.3,iPhone,58.82352941,,,,,,,,,,0.955,1,,,,,,,,,,,,,,,,,,,,,,,-0.289795918,-0.311734694,1,0,0,,,,,,,CRADLE,HB,z,y,./images/CRADLEHB.png,,,,,,,,,,,,,,,,,,,,,0,-0.289795918,-0.311734694,1,0,0,0.955,button_left_test,0,43,43,104,1
,,,,,,,,,,,,,,,,,610841cb623bdc27b95987b2,27,2022-02-12_12h19.53.952,lexical_decision_task_DD_L6,2021.2.3,iPhone,58.82352941,,,,,,,,,,0.772,1,,,,,,,,,,,,,,,,,,,,,,,0.320408163,-0.260714286,1,0,0,,,,,,,GRANNY,HB,m,y,./images/GRANNYHB.png,,,,,,,,,,,,,,,,,,,,,0,0.320408163,-0.260714286,1,0,0,0.772,button_right_test,0,44,44,20,1
,,,,,,,,,,,,,,,,,610841cb623bdc27b95987b2,27,2022-02-12_12h19.53.952,lexical_decision_task_DD_L6,2021.2.3,iPhone,58.82352941,,,,,,,,,,0.824,1,,,,,,,,,,,,,,,,,,,,,,,-0.282653061,-0.307653061,1,0,0,,,,,,,BURIAL,HB,z,y,./images/BURIALHB.png,,,,,,,,,,,,,,,,,,,,,0,-0.282653061,-0.307653061,1,0,0,0.824,button_left_test,0,45,45,143,1
,,,,,,,,,,,,,,,,,610841cb623bdc27b95987b2,27,2022-02-12_12h19.53.952,lexical_decision_task_DD_L6,2021.2.3,iPhone,58.82352941,,,,,,,,,,0.957,1,,,,,,,,,,,,,,,,,,,,,,,0.336734694,-0.289285714,1,0,0,,,,,,,JUMPER,HB,m,y,./images/JUMPERHB.png,,,,,,,,,,,,,,,,,,,,,0,0.336734694,-0.289285714,1,0,0,0.957,button_right_test,0,46,46,74,1
,,,,,,,,,,,,,,,,,610841cb623bdc27b95987b2,27,2022-02-12_12h19.53.952,lexical_decision_task_DD_L6,2021.2.3,iPhone,58.82352941,,,,,,,,,,1.325,1,,,,,,,,,,,,,,,,,,,,,,,-0.287755102,-0.339285714,1,0,0,,,,,,,TORCH,HB,z,y,./images/TORCHHB.png,,,,,,,,,,,,,,,,,,,,,0,-0.287755102,-0.339285714,1,0,0,1.325,button_left_test,0,47,47,152,1
,,,,,,,,,,,,,,,,,610841cb623bdc27b95987b2,27,2022-02-12_12h19.53.952,lexical_decision_task_DD_L6,2021.2.3,iPhone,58.82352941,,,,,,,,,,1.003,1,,,,,,,,,,,,,,,,,,,,,,,-0.290816327,-0.256632653,1,0,0,,,,,,,WALRUS,HB,z,y,./images/WALRUSHB.png,,,,,,,,,,,,,,,,,,,,,0,-0.290816327,-0.256632653,1,0,0,1.003,button_left_test,0,48,48,107,1
,,,,,,,,,,,,,,,,,610841cb623bdc27b95987b2,27,2022-02-12_12h19.53.952,lexical_decision_task_DD_L6,2021.2.3,iPhone,58.82352941,,,,,,,,,,1.024,1,,,,,,,,,,,,,,,,,,,,,,,0.315306122,-0.288265306,1,0,0,,,,,,,BOXER,C,m,y,./images/BOXER.png,,,,,,,,,,,,,,,,,,,,,0,0.315306122,-0.288265306,1,0,0,1.024,button_right_test,0,49,49,4,1
,,,,,,,,,,,,,,,,,610841cb623bdc27b95987b2,27,2022-02-12_12h19.53.952,lexical_decision_task_DD_L6,2021.2.3,iPhone,58.82352941,,,,,,,,,,0.856,1,,,,,,,,,,,,,,,,,,,,,,,-0.294897959,-0.342346939,1,0,0,,,,,,,MAGGOT,LB,z,y,./images/MAGGOTLB.png,,,,,,,,,,,,,,,,,,,,,0,-0.294897959,-0.342346939,1,0,0,0.856,button_left_test,0,50,50,117,1
,,,,,,,,,,,,,,,,,610841cb623bdc27b95987b2,27,2022-02-12_12h19.53.952,lexical_decision_task_DD_L6,2021.2.3,iPhone,58.82352941,,,,,,,,,,1.04,1,,,,,,,,,,,,,,,,,,,,,,,-0.253061224,-0.307653061,1,0,0,,,,,,,SHORE,LB,z,y,./images/SHORELB.png,,,,,,,,,,,,,,,,,,,,,0,-0.253061224,-0.307653061,1,0,0,1.04,button_left_test,0,51,51,96,1
,,,,,,,,,,,,,,,,,610841cb623bdc27b95987b2,27,2022-02-12_12h19.53.952,lexical_decision_task_DD_L6,2021.2.3,iPhone,58.82352941,,,,,,,,,,0.774,1,,,,,,,,,,,,,,,,,,,,,,,-0.320408163,-0.33622449,1,0,0,,,,,,,PURSE,HB,z,y,./images/PURSEHB.png,,,,,,,,,,,,,,,,,,,,,0,-0.320408163,-0.33622449,1,0,0,0.774,button_left_test,0,52,52,146,1
,,,,,,,,,,,,,,,,,610841cb623bdc27b95987b2,27,2022-02-12_12h19.53.952,lexical_decision_task_DD_L6,2021.2.3,iPhone,58.82352941,,,,,,,,,,0.79,1,,,,,,,,,,,,,,,,,,,,,,,0.310204082,-0.301530612,1,0,0,,,,,,,VALLEY,HB,m,y,./images/VALLEYHB.png,,,,,,,,,,,,,,,,,,,,,0,0.310204082,-0.301530612,1,0,0,0.79,button_right_test,0,53,53,68,1
,,,,,,,,,,,,,,,,,610841cb623bdc27b95987b2,27,2022-02-12_12h19.53.952,lexical_decision_task_DD_L6,2021.2.3,iPhone,58.82352941,,,,,,,,,,0.847,0,,,,,,,,,,,,,,,,,,,,,,,0.293877551,-0.299489796,1,0,0,,,,,,,CANDLE,C,z,y,./images/CANDLE.png,,,,,,,,,,,,,,,,,,,,,0,0.293877551,-0.299489796,1,0,0,0.847,button_right_test,0,54,54,145,1
,,,,,,,,,,,,,,,,,610841cb623bdc27b95987b2,27,2022-02-12_12h19.53.952,lexical_decision_task_DD_L6,2021.2.3,iPhone,58.82352941,,,,,,,,,,1.388,1,,,,,,,,,,,,,,,,,,,,,,,-0.330612245,-0.327040816,1,0,0,,,,,,,SHELF,LB,z,y,./images/SHELFLB.png,,,,,,,,,,,,,,,,,,,,,0,-0.330612245,-0.327040816,1,0,0,1.388,button_left_test,0,55,55,123,1
,,,,,,,,,,,,,,,,,610841cb623bdc27b95987b2,27,2022-02-12_12h19.53.952,lexical_decision_task_DD_L6,2021.2.3,iPhone,58.82352941,,,,,,,,,,1.024,1,,,,,,,,,,,,,,,,,,,,,,,-0.305102041,-0.288265306,1,0,0,,,,,,,TWINS,LB,z,y,./images/TWINSLB.png,,,,,,,,,,,,,,,,,,,,,0,-0.305102041,-0.288265306,1,0,0,1.024,button_left_test,0,56,56,144,1
,,,,,,,,,,,,,,,,,610841cb623bdc27b95987b2,27,2022-02-12_12h19.53.952,lexical_decision_task_DD_L6,2021.2.3,iPhone,58.82352941,,,,,,,,,,1.091,1,,,,,,,,,,,,,,,,,,,,,,,-0.294897959,-0.332142857,1,0,0,,,,,,,STORM,LB,z,y,./images/STORMLB.png,,,,,,,,,,,,,,,,,,,,,0,-0.294897959,-0.332142857,1,0,0,1.091,button_left_test,0,57,57,114,1
,,,,,,,,,,,,,,,,,610841cb623bdc27b95987b2,27,2022-02-12_12h19.53.952,lexical_decision_task_DD_L6,2021.2.3,iPhone,58.82352941,,,,,,,,,,0.656,1,,,,,,,,,,,,,,,,,,,,,,,-0.324489796,-0.296428571,1,0,0,,,,,,,WRIST,C,z,y,./images/WRIST.png,,,,,,,,,,,,,,,,,,,,,0,-0.324489796,-0.296428571,1,0,0,0.656,button_left_test,0,58,58,109,1
,,,,,,,,,,,,,,,,,610841cb623bdc27b95987b2,27,2022-02-12_12h19.53.952,lexical_decision_task_DD_L6,2021.2.3,iPhone,58.82352941,,,,,,,,,,0.825,1,,,,,,,,,,,,,,,,,,,,,,,0.310204082,-0.234183673,1,0,0,,,,,,,CLOWN,C,m,y,./images/CLOWN.png,,,,,,,,,,,,,,,,,,,,,0,0.310204082,-0.234183673,1,0,0,0.825,button_right_test,0,59,59,22,1
,,,,,,,,,,,,,,,,,610841cb623bdc27b95987b2,27,2022-02-12_12h19.53.952,lexical_decision_task_DD_L6,2021.2.3,iPhone,58.82352941,,,,,,,,,,0.629,1,,,,,,,,,,,,,,,,,,,,,,,0.308163265,-0.273979592,1,0,0,,,,,,,LAGOON,HB,m,y,./images/LAGOONHB.png,,,,,,,,,,,,,,,,,,,,,0,0.308163265,-0.273979592,1,0,0,0.629,button_right_test,0,60,60,47,1
,,,,,,,,,,,,,,,,,610841cb623bdc27b95987b2,27,2022-02-12_12h19.53.952,lexical_decision_task_DD_L6,2021.2.3,iPhone,58.82352941,,,,,,,,,,1.158,0,,,,,,,,,,,,,,,,,,,,,,,-0.297959184,-0.294387755,1,0,0,,,,,,,CHAIN,LB,m,y,./images/CHAINLB.png,,,,,,,,,,,,,,,,,,,,,0,-0.297959184,-0.294387755,1,0,0,1.158,button_left_test,0,61,61,42,1
,,,,,,,,,,,,,,,,,610841cb623bdc27b95987b2,27,2022-02-12_12h19.53.952,lexical_decision_task_DD_L6,2021.2.3,iPhone,58.82352941,,,,,,,,,,0.968,1,,,,,,,,,,,,,,,,,,,,,,,-0.27755102,-0.321938776,1,0,0,,,,,,,BERRY,HB,z,y,./images/BERRYHB.png,,,,,,,,,,,,,,,,,,,,,0,-0.27755102,-0.321938776,1,0,0,0.968,button_left_test,0,62,62,131,1
,,,,,,,,,,,,,,,,,610841cb623bdc27b95987b2,27,2022-02-12_12h19.53.952,lexical_decision_task_DD_L6,2021.2.3,iPhone,58.82352941,,,,,,,,,,0.724,1,,,,,,,,,,,,,,,,,,,,,,,0.306122449,-0.269897959,1,0,0,,,,,,,BAMBOO,HB,m,y,./images/BAMBOOHB.png,,,,,,,,,,,,,,,,,,,,,0,0.306122449,-0.269897959,1,0,0,0.724,button_right_test,0,63,63,5,1
,,,,,,,,,,,,,,,,,610841cb623bdc27b95987b2,27,2022-02-12_12h19.53.952,lexical_decision_task_DD_L6,2021.2.3,iPhone,58.82352941,,,,,,,,,,0.94,1,,,,,,,,,,,,,,,,,,,,,,,-0.296938776,-0.315816327,1,0,0,,,,,,,ATTIC,LB,z,y,./images/ATTICLB.png,,,,,,,,,,,,,,,,,,,,,0,-0.296938776,-0.315816327,1,0,0,0.94,button_left_test,0,64,64,111,1
,,,,,,,,,,,,,,,,,610841cb623bdc27b95987b2,27,2022-02-12_12h19.53.952,lexical_decision_task_DD_L6,2021.2.3,iPhone,58.82352941,,,,,,,,,,0.773,1,,,,,,,,,,,,,,,,,,,,,,,-0.321428571,-0.338265306,1,0,0,,,,,,,JAGUAR,LB,z,y,./images/JAGUARLB.png,,,,,,,,,,,,,,,,,,,,,0,-0.321428571,-0.338265306,1,0,0,0.773,button_left_test,0,65,65,102,1
,,,,,,,,,,,,,,,,,610841cb623bdc27b95987b2,27,2022-02-12_12h19.53.952,lexical_decision_task_DD_L6,2021.2.3,iPhone,58.82352941,,,,,,,,,,1.091,0,,,,,,,,,,,,,,,,,,,,,,,0.325510204,-0.25255102,1,0,0,,,,,,,MALLET,HB,z,y,./images/MALLETHB.png,,,,,,,,,,,,,,,,,,,,,0,0.325510204,-0.25255102,1,0,0,1.091,button_right_test,0,66,66,134,1
,,,,,,,,,,,,,,,,,610841cb623bdc27b95987b2,27,2022-02-12_12h19.53.952,lexical_decision_task_DD_L6,2021.2.3,iPhone,58.82352941,,,,,,,,,,0.789,1,,,,,,,,,,,,,,,,,,,,,,,0.271428571,-0.240306122,1,0,0,,,,,,,FENCE,HB,m,y,./images/FENCEHB.png,,,,,,,,,,,,,,,,,,,,,0,0.271428571,-0.240306122,1,0,0,0.789,button_right_test,0,67,67,14,1
,,,,,,,,,,,,,,,,,610841cb623bdc27b95987b2,27,2022-02-12_12h19.53.952,lexical_decision_task_DD_L6,2021.2.3,iPhone,58.82352941,,,,,,,,,,0.907,1,,,,,,,,,,,,,,,,,,,,,,,-0.285714286,-0.310714286,1,0,0,,,,,,,SKIING,HB,z,y,./images/SKIINGHB.png,,,,,,,,,,,,,,,,,,,,,0,-0.285714286,-0.310714286,1,0,0,0.907,button_left_test,0,68,68,101,1
,,,,,,,,,,,,,,,,,610841cb623bdc27b95987b2,27,2022-02-12_12h19.53.952,lexical_decision_task_DD_L6,2021.2.3,iPhone,58.82352941,,,,,,,,,,1.225,1,,,,,,,,,,,,,,,,,,,,,,,-0.254081633,-0.332142857,1,0,0,,,,,,,PAINT,C,z,y,./images/PAINT.png,,,,,,,,,,,,,,,,,,,,,0,-0.254081633,-0.332142857,1,0,0,1.225,button_left_test,0,69,69,91,1
,,,,,,,,,,,,,,,,,610841cb623bdc27b95987b2,27,2022-02-12_12h19.53.952,lexical_decision_task_DD_L6,2021.2.3,iPhone,58.82352941,,,,,,,,,,0.655,0,,,,,,,,,,,,,,,,,,,,,,,-0.269387755,-0.31377551,1,0,0,,,,,,,BLOKE,LB,m,y,./images/BLOKELB.png,,,,,,,,,,,,,,,,,,,,,0,-0.269387755,-0.31377551,1,0,0,0.655,button_left_test,0,70,70,12,1
,,,,,,,,,,,,,,,,,610841cb623bdc27b95987b2,27,2022-02-12_12h19.53.952,lexical_decision_task_DD_L6,2021.2.3,iPhone,58.82352941,,,,,,,,,,0.706,1,,,,,,,,,,,,,,,,,,,,,,,0.320408163,-0.309693878,1,0,0,,,,,,,CANOE,C,m,y,./images/CANOE.png,,,,,,,,,,,,,,,,,,,,,0,0.320408163,-0.309693878,1,0,0,0.706,button_right_test,0,71,71,58,1
,,,,,,,,,,,,,,,,,610841cb623bdc27b95987b2,27,2022-02-12_12h19.53.952,lexical_decision_task_DD_L6,2021.2.3,iPhone,58.82352941,,,,,,,,,,0.991,0,,,,,,,,,,,,,,,,,,,,,,,-0.264285714,-0.331122449,1,0,0,,,,,,,DRILL,LB,m,y,./images/DRILLLB.png,,,,,,,,,,,,,,,,,,,,,0,-0.264285714,-0.331122449,1,0,0,0.991,button_left_test,0,72,72,81,1
,,,,,,,,,,,,,,,,,610841cb623bdc27b95987b2,27,2022-02-12_12h19.53.952,lexical_decision_task_DD_L6,2021.2.3,iPhone,58.82352941,,,,,,,,,,0.839,1,,,,,,,,,,,,,,,,,,,,,,,0.301020408,-0.321938776,1,0,0,,,,,,,WALNUT,LB,m,y,./images/WALNUTLB.png,,,,,,,,,,,,,,,,,,,,,0,0.301020408,-0.321938776,1,0,0,0.839,button_right_test,0,73,73,0,1
,,,,,,,,,,,,,,,,,610841cb623bdc27b95987b2,27,2022-02-12_12h19.53.952,lexical_decision_task_DD_L6,2021.2.3,iPhone,58.82352941,,,,,,,,,,0.741,1,,,,,,,,,,,,,,,,,,,,,,,-0.275510204,-0.321938776,1,0,0,,,,,,,KITTEN,LB,z,y,./images/KITTENLB.png,,,,,,,,,,,,,,,,,,,,,0,-0.275510204,-0.321938776,1,0,0,0.741,button_left_test,0,74,74,129,1
,,,,,,,,,,,,,,,,,610841cb623bdc27b95987b2,27,2022-02-12_12h19.53.952,lexical_decision_task_DD_L6,2021.2.3,iPhone,58.82352941,,,,,,,,,,1.088,0,,,,,,,,,,,,,,,,,,,,,,,-0.308163265,-0.350510204,1,0,0,,,,,,,BANANA,C,m,y,./images/BANANA.png,,,,,,,,,,,,,,,,,,,,,0,-0.308163265,-0.350510204,1,0,0,1.088,button_left_test,0,75,75,70,1
,,,,,,,,,,,,,,,,,610841cb623bdc27b95987b2,27,2022-02-12_12h19.53.952,lexical_decision_task_DD_L6,2021.2.3,iPhone,58.82352941,,,,,,,,,,0.805,1,,,,,,,,,,,,,,,,,,,,,,,-0.275510204,-0.316836735,1,0,0,,,,,,,DRUMS,C,z,y,./images/DRUMS.png,,,,,,,,,,,,,,,,,,,,,0,-0.275510204,-0.316836735,1,0,0,0.805,button_left_test,0,76,76,133,1
,,,,,,,,,,,,,,,,,610841cb623bdc27b95987b2,27,2022-02-12_12h19.53.952,lexical_decision_task_DD_L6,2021.2.3,iPhone,58.82352941,,,,,,,,,,1.59,1,,,,,,,,,,,,,,,,,,,,,,,-0.284693878,-0.355612245,1,0,0,,,,,,,QUILL,C,z,y,./images/QUILL.png,,,,,,,,,,,,,,,,,,,,,0,-0.284693878,-0.355612245,1,0,0,1.59,button_left_test,0,77,77,115,1
,,,,,,,,,,,,,,,,,610841cb623bdc27b95987b2,27,2022-02-12_12h19.53.952,lexical_decision_task_DD_L6,2021.2.3,iPhone,58.82352941,,,,,,,,,,0.807,1,,,,,,,,,,,,,,,,,,,,,,,0.328571429,-0.278061224,1,0,0,,,,,,,STREAM,HB,m,y,./images/STREAMHB.png,,,,,,,,,,,,,,,,,,,,,0,0.328571429,-0.278061224,1,0,0,0.807,button_right_test,0,78,78,41,1
,,,,,,,,,,,,,,,,,610841cb623bdc27b95987b2,27,2022-02-12_12h19.53.952,lexical_decision_task_DD_L6,2021.2.3,iPhone,58.82352941,,,,,,,,,,1.124,0,,,,,,,,,,,,,,,,,,,,,,,0.317346939,-0.272959184,1,0,0,,,,,,,FALCON,C,z,y,./images/FALCON.png,,,,,,,,,,,,,,,,,,,,,0,0.317346939,-0.272959184,1,0,0,1.124,button_right_test,0,79,79,112,1
,,,,,,,,,,,,,,,,,610841cb623bdc27b95987b2,27,2022-02-12_12h19.53.952,lexical_decision_task_DD_L6,2021.2.3,iPhone,58.82352941,,,,,,,,,,1.024,1,,,,,,,,,,,,,,,,,,,,,,,-0.32755102,-0.295408163,1,0,0,,,,,,,ONION,LB,z,y,./images/ONIONLB.png,,,,,,,,,,,,,,,,,,,,,0,-0.32755102,-0.295408163,1,0,0,1.024,button_left_test,0,80,80,135,1
,,,,,,,,,,,,,,,,,610841cb623bdc27b95987b2,27,2022-02-12_12h19.53.952,lexical_decision_task_DD_L6,2021.2.3,iPhone,58.82352941,,,,,,,,,,1.307,0,,,,,,,,,,,,,,,,,,,,,,,-0.263265306,-0.337244898,1,0,0,,,,,,,MONKEY,LB,m,y,./images/MONKEYLB.png,,,,,,,,,,,,,,,,,,,,,0,-0.263265306,-0.337244898,1,0,0,1.307,button_left_test,0,81,81,45,1
,,,,,,,,,,,,,,,,,610841cb623bdc27b95987b2,27,2022-02-12_12h19.53.952,lexical_decision_task_DD_L6,2021.2.3,iPhone,58.82352941,,,,,,,,,,1.059,1,,,,,,,,,,,,,,,,,,,,,,,-0.248979592,-0.358673469,1,0,0,,,,,,,NOOSE,LB,z,y,./images/NOOSELB.png,,,,,,,,,,,,,,,,,,,,,0,-0.248979592,-0.358673469,1,0,0,1.059,button_left_test,0,82,82,156,1
,,,,,,,,,,,,,,,,,610841cb623bdc27b95987b2,27,2022-02-12_12h19.53.952,lexical_decision_task_DD_L6,2021.2.3,iPhone,58.82352941,,,,,,,,,,0.973,1,,,,,,,,,,,,,,,,,,,,,,,0.105102041,-0.448469388,1,0,0,,,,,,,PEARL,C,z,y,./images/PEARL.png,break_done_button,,,,,,,,,,,,,,,,,,,,0,-0.305102041,-0.265816327,1,0,0,0.973,button_left_test,0,83,83,130,1
,,,,,,,,,,,,,,,,,610841cb623bdc27b95987b2,27,2022-02-12_12h19.53.952,lexical_decision_task_DD_L6,2021.2.3,iPhone,58.82352941,,,,,,,,,,0.941,1,,,,,,,,,,,,,,,,,,,,,,,-0.293877551,-0.318877551,1,0,0,,,,,,,PACKET,HB,z,y,./images/PACKETHB.png,,,,,,,,,,,,,,,,,,,,,0,-0.293877551,-0.318877551,1,0,0,0.941,button_left_test,0,84,84,140,1
,,,,,,,,,,,,,,,,,610841cb623bdc27b95987b2,27,2022-02-12_12h19.53.952,lexical_decision_task_DD_L6,2021.2.3,iPhone,58.82352941,,,,,,,,,,0.672,0,,,,,,,,,,,,,,,,,,,,,,,-0.284693878,-0.284183673,1,0,0,,,,,,,BUTTER,LB,m,y,./images/BUTTERLB.png,,,,,,,,,,,,,,,,,,,,,0,-0.284693878,-0.284183673,1,0,0,0.672,button_left_test,0,85,85,27,1
,,,,,,,,,,,,,,,,,610841cb623bdc27b95987b2,27,2022-02-12_12h19.53.952,lexical_decision_task_DD_L6,2021.2.3,iPhone,58.82352941,,,,,,,,,,0.824,0,,,,,,,,,,,,,,,,,,,,,,,-0.269387755,-0.276020408,1,0,0,,,,,,,CLOUD,HB,m,y,./images/CLOUDHB.png,,,,,,,,,,,,,,,,,,,,,0,-0.269387755,-0.276020408,1,0,0,0.824,button_left_test,0,86,86,26,1
,,,,,,,,,,,,,,,,,610841cb623bdc27b95987b2,27,2022-02-12_12h19.53.952,lexical_decision_task_DD_L6,2021.2.3,iPhone,58.82352941,,,,,,,,,,0.724,1,,,,,,,,,,,,,,,,,,,,,,,0.347959184,-0.317857143,1,0,0,,,,,,,GLOVE,C,m,y,./images/GLOVE.png,,,,,,,,,,,,,,,,,,,,,0,0.347959184,-0.317857143,1,0,0,0.724,button_right_test,0,87,87,73,1
,,,,,,,,,,,,,,,,,610841cb623bdc27b95987b2,27,2022-02-12_12h19.53.952,lexical_decision_task_DD_L6,2021.2.3,iPhone,58.82352941,,,,,,,,,,0.823,1,,,,,,,,,,,,,,,,,,,,,,,-0.333673469,-0.337244898,1,0,0,,,,,,,BONNET,HB,z,y,./images/BONNETHB.png,,,,,,,,,,,,,,,,,,,,,0,-0.333673469,-0.337244898,1,0,0,0.823,button_left_test,0,88,88,95,1
,,,,,,,,,,,,,,,,,610841cb623bdc27b95987b2,27,2022-02-12_12h19.53.952,lexical_decision_task_DD_L6,2021.2.3,iPhone,58.82352941,,,,,,,,,,0.906,1,,,,,,,,,,,,,,,,,,,,,,,-0.284693878,-0.354591837,1,0,0,,,,,,,POODLE,LB,z,y,./images/POODLELB.png,,,,,,,,,,,,,,,,,,,,,0,-0.284693878,-0.354591837,1,0,0,0.906,button_left_test,0,89,89,165,1
,,,,,,,,,,,,,,,,,610841cb623bdc27b95987b2,27,2022-02-12_12h19.53.952,lexical_decision_task_DD_L6,2021.2.3,iPhone,58.82352941,,,,,,,,,,0.805,0,,,,,,,,,,,,,,,,,,,,,,,0.347959184,-0.29744898,1,0,0,,,,,,,MIRROR,LB,z,y,./images/MIRRORLB.png,,,,,,,,,,,,,,,,,,,,,0,0.347959184,-0.29744898,1,0,0,0.805,button_right_test,0,90,90,147,1
,,,,,,,,,,,,,,,,,610841cb623bdc27b95987b2,27,2022-02-12_12h19.53.952,lexical_decision_task_DD_L6,2021.2.3,iPhone,58.82352941,,,,,,,,,,0.739,1,,,,,,,,,,,,,,,,,,,,,,,-0.31122449,-0.310714286,1,0,0,,,,,,,FOLDER,LB,z,y,./images/FOLDERLB.png,,,,,,,,,,,,,,,,,,,,,0,-0.31122449,-0.310714286,1,0,0,0.739,button_left_test,0,91,91,126,1
,,,,,,,,,,,,,,,,,610841cb623bdc27b95987b2,27,2022-02-12_12h19.53.952,lexical_decision_task_DD_L6,2021.2.3,iPhone,58.82352941,,,,,,,,,,0.788,1,,,,,,,,,,,,,,,,,,,,,,,-0.291836735,-0.299489796,1,0,0,,,,,,,PEACH,HB,z,y,./images/PEACHHB.png,,,,,,,,,,,,,,,,,,,,,0,-0.291836735,-0.299489796,1,0,0,0.788,button_left_test,0,92,92,119,1
,,,,,,,,,,,,,,,,,610841cb623bdc27b95987b2,27,2022-02-12_12h19.53.952,lexical_decision_task_DD_L6,2021.2.3,iPhone,58.82352941,,,,,,,,,,0.739,1,,,,,,,,,,,,,,,,,,,,,,,-0.26122449,-0.287244898,1,0,0,,,,,,,MOSQUE,C,z,y,./images/MOSQUE.png,,,,,,,,,,,,,,,,,,,,,0,-0.26122449,-0.287244898,1,0,0,0.739,button_left_test,0,93,93,127,1
,,,,,,,,,,,,,,,,,610841cb623bdc27b95987b2,27,2022-02-12_12h19.53.952,lexical_decision_task_DD_L6,2021.2.3,iPhone,58.82352941,,,,,,,,,,1.124,0,,,,,,,,,,,,,,,,,,,,,,,0.310204082,-0.28622449,1,0,0,,,,,,,SWING,C,z,y,./images/SWING.png,,,,,,,,,,,,,,,,,,,,,0,0.310204082,-0.28622449,1,0,0,1.124,button_right_test,0,94,94,124,1
,,,,,,,,,,,,,,,,,610841cb623bdc27b95987b2,27,2022-02-12_12h19.53.952,lexical_decision_task_DD_L6,2021.2.3,iPhone,58.82352941,,,,,,,,,,0.857,1,,,,,,,,,,,,,,,,,,,,,,,0.354081633,-0.344387755,1,0,0,,,,,,,BOILER,LB,m,y,./images/BOILERLB.png,,,,,,,,,,,,,,,,,,,,,0,0.354081633,-0.344387755,1,0,0,0.857,button_right_test,0,95,95,36,1
,,,,,,,,,,,,,,,,,610841cb623bdc27b95987b2,27,2022-02-12_12h19.53.952,lexical_decision_task_DD_L6,2021.2.3,iPhone,58.82352941,,,,,,,,,,0.805,1,,,,,,,,,,,,,,,,,,,,,,,-0.318367347,-0.327040816,1,0,0,,,,,,,PIMPLE,HB,z,y,./images/PIMPLEHB.png,,,,,,,,,,,,,,,,,,,,,0,-0.318367347,-0.327040816,1,0,0,0.805,button_left_test,0,96,96,155,1
,,,,,,,,,,,,,,,,,610841cb623bdc27b95987b2,27,2022-02-12_12h19.53.952,lexical_decision_task_DD_L6,2021.2.3,iPhone,58.82352941,,,,,,,,,,0.94,1,,,,,,,,,,,,,,,,,,,,,,,-0.280612245,-0.325,1,0,0,,,,,,,THROAT,LB,z,y,./images/THROATLB.png,,,,,,,,,,,,,,,,,,,,,0,-0.280612245,-0.325,1,0,0,0.94,button_left_test,0,97,97,120,1
