key_resp.keys,instr_done_touch.x,instr_done_touch.y,instr_done_touch.leftButton,instr_done_touch.midButton,instr_done_touch.rightButton,instr_done_touch.clicked_name,instruction_pages.thisRepN,instruction_pages.thisTrialN,instruction_pages.thisN,instruction_pages.thisIndex,instruction_pages.ran,pageN,phase,instruct_text,has_image,instruct_image,participant,age,date,expName,psychopyVersion,OS,frameRate,response.keys,response.corr,touch_resp.x,touch_resp.y,touch_resp.leftButton,touch_resp.midButton,touch_resp.rightButton,touch_resp.time,touch_resp.clicked_name,rt,corr,practrials.thisRepN,practrials.thisTrialN,practrials.thisN,practrials.thisIndex,practrials.ran,TrialID,Target,corrAns,end_of_practice_trials_pages.thisRepN,end_of_practice_trials_pages.thisTrialN,end_of_practice_trials_pages.thisN,end_of_practice_trials_pages.thisIndex,end_of_practice_trials_pages.ran,key_resp_2.keys,key_resp_2.corr,targ_click.x,targ_click.y,targ_click.leftButton,targ_click.midButton,targ_click.rightButton,targ_click.time,targ_click.clicked_name,break_done_touch.x,break_done_touch.y,break_done_touch.leftButton,break_done_touch.midButton,break_done_touch.rightButton,break_done_keyboard.keys,maintrials.thisRepN,maintrials.thisTrialN,maintrials.thisN,maintrials.thisIndex,maintrials.ran,string,blur,study,lex,stim_path,break_done_touch.clicked_name,mouse_2.x,mouse_2.y,mouse_2.leftButton,mouse_2.midButton,mouse_2.rightButton,mouse_2.clicked_name,slider.response,slider.rt,trials.thisRepN,trials.thisTrialN,trials.thisN,trials.thisIndex,trials.ran,test_instructions.thisRepN,test_instructions.thisTrialN,test_instructions.thisN,test_instructions.thisIndex,test_instructions.ran,key_resp_3.keys,key_resp_3.corr,test_click.x,test_click.y,test_click.leftButton,test_click.midButton,test_click.rightButton,test_click.time,test_click.clicked_name,test_phase.thisRepN,test_phase.thisTrialN,test_phase.thisN,test_phase.thisIndex,test_phase.ran
,0.139160156,-0.393576389,1,0,0,instr_done_button,0,0,0,0,1,1,instructions,"INSTRUCTIONS
At the start of each trial, look at the plus sign  (+) in the center of the screen.  This tells you that a trial is about to begin and where to look. Second, the plus sign will disappear and a string of letters will appear. Your task is to determine if the string of letters is a word or not. If the item is a word press the M key (on keyboard)  or touch the word button (phone/tablet).  If the item is not a word,  press the  Z key (on keyboard)  or touch the nonword button (on phone/tablet). 
Press the space bar or touch  continue.",0,,6108288fcf5c9a6e1f2d041c,27,2022-02-12_13h47.56.824,lexical_decision_task_DD_L2,2021.2.3,Linux aarch64,60.24822268,,,,,,,,,,,,,,,,,,,,,,,,,,,,,,,,,,,,,,,,,,,,,,,,,,,,,,,,,,,,,,,,,,,,,,,,,,,,,,,,,,
,0.155273438,-0.409852431,1,0,0,instr_done_button,0,1,1,1,1,2,instructions,"If your device has a keyboard, press the 'Z' key for nonwords and the 'M' key for words.





Press the space bar or touch the button below to continue.",0,keyboard-example.gif,6108288fcf5c9a6e1f2d041c,27,2022-02-12_13h47.56.824,lexical_decision_task_DD_L2,2021.2.3,Linux aarch64,60.24822268,,,,,,,,,,,,,,,,,,,,,,,,,,,,,,,,,,,,,,,,,,,,,,,,,,,,,,,,,,,,,,,,,,,,,,,,,,,,,,,,,,
,0.164794922,-0.406054688,1,0,0,instr_done_button,0,2,2,2,1,3,instructions,"If you are using a touchscreen only device, use the buttons on the screen. Do not use the mouse.





Press the space bar or touch the button below to continue.",0,touchscreen-example.gif,6108288fcf5c9a6e1f2d041c,27,2022-02-12_13h47.56.824,lexical_decision_task_DD_L2,2021.2.3,Linux aarch64,60.24822268,,,,,,,,,,,,,,,,,,,,,,,,,,,,,,,,,,,,,,,,,,,,,,,,,,,,,,,,,,,,,,,,,,,,,,,,,,,,,,,,,,
,0.119140625,-0.408767361,1,0,0,instr_done_button,0,3,3,3,1,4,instructions,"It is very important that you respond as quickly and accurately as possible, as each letter string will only be on the screen for two seconds. If you do not respond within this time, the message 'Too slow!' will be displayed and the experiment will progress to the next letter string. The first 20 trials will be practice trials and you will receive feedback on your answers. 

Press the space bar or touch the button below to start the practice trials.",0,,6108288fcf5c9a6e1f2d041c,27,2022-02-12_13h47.56.824,lexical_decision_task_DD_L2,2021.2.3,Linux aarch64,60.24822268,,,,,,,,,,,,,,,,,,,,,,,,,,,,,,,,,,,,,,,,,,,,,,,,,,,,,,,,,,,,,,,,,,,,,,,,,,,,,,,,,,
,,,,,,,,,,,,,,,,,6108288fcf5c9a6e1f2d041c,27,2022-02-12_13h47.56.824,lexical_decision_task_DD_L2,2021.2.3,Linux aarch64,60.24822268,,0,-0.263671875,-0.28452691,1,0,0,1.2876,button_left,1.2876,1,0,0,0,12,1,1001,SPRINY,z,,,,,,,,,,,,,,,,,,,,,,,,,,,,,,,,,,,,,,,,,,,,,,,,,,,,,,,,,,,,,,,
,,,,,,,,,,,,,,,,,6108288fcf5c9a6e1f2d041c,27,2022-02-12_13h47.56.824,lexical_decision_task_DD_L2,2021.2.3,Linux aarch64,60.24822268,,0,0.255859375,-0.349088542,1,0,0,1.3227,button_right,1.3227,0,0,1,1,9,1,1001,FARINY,z,,,,,,,,,,,,,,,,,,,,,,,,,,,,,,,,,,,,,,,,,,,,,,,,,,,,,,,,,,,,,,,
,,,,,,,,,,,,,,,,,6108288fcf5c9a6e1f2d041c,27,2022-02-12_13h47.56.824,lexical_decision_task_DD_L2,2021.2.3,Linux aarch64,60.24822268,,0,0.315673828,-0.321419271,1,0,0,0.8577,button_right,0.8577,1,0,2,2,2,1,1001,ALMOND,m,,,,,,,,,,,,,,,,,,,,,,,,,,,,,,,,,,,,,,,,,,,,,,,,,,,,,,,,,,,,,,,
,,,,,,,,,,,,,,,,,6108288fcf5c9a6e1f2d041c,27,2022-02-12_13h47.56.824,lexical_decision_task_DD_L2,2021.2.3,Linux aarch64,60.24822268,,0,0.317138672,-0.302430556,1,0,0,0.7592,button_right,0.7592,1,0,3,3,4,1,1001,SQUEAK,m,,,,,,,,,,,,,,,,,,,,,,,,,,,,,,,,,,,,,,,,,,,,,,,,,,,,,,,,,,,,,,,
,,,,,,,,,,,,,,,,,6108288fcf5c9a6e1f2d041c,27,2022-02-12_13h47.56.824,lexical_decision_task_DD_L2,2021.2.3,Linux aarch64,60.24822268,,0,0.327880859,-0.289409722,1,0,0,0.826,button_right,0.826,1,0,4,4,1,1,1001,ADJUST,m,,,,,,,,,,,,,,,,,,,,,,,,,,,,,,,,,,,,,,,,,,,,,,,,,,,,,,,,,,,,,,,
,,,,,,,,,,,,,,,,,6108288fcf5c9a6e1f2d041c,27,2022-02-12_13h47.56.824,lexical_decision_task_DD_L2,2021.2.3,Linux aarch64,60.24822268,,0,-0.30859375,-0.323046875,1,0,0,0.9079,button_left,0.9079,1,0,5,5,10,1,1001,INLADE,z,,,,,,,,,,,,,,,,,,,,,,,,,,,,,,,,,,,,,,,,,,,,,,,,,,,,,,,,,,,,,,,
,,,,,,,,,,,,,,,,,6108288fcf5c9a6e1f2d041c,27,2022-02-12_13h47.56.824,lexical_decision_task_DD_L2,2021.2.3,Linux aarch64,60.24822268,,0,0.3125,-0.309483507,1,0,0,0.8277,button_right,0.8277,1,0,6,6,3,1,1001,MATRIX,m,,,,,,,,,,,,,,,,,,,,,,,,,,,,,,,,,,,,,,,,,,,,,,,,,,,,,,,,,,,,,,,
,,,,,,,,,,,,,,,,,6108288fcf5c9a6e1f2d041c,27,2022-02-12_13h47.56.824,lexical_decision_task_DD_L2,2021.2.3,Linux aarch64,60.24822268,,0,0.272216797,-0.333897569,1,0,0,0.7252,button_right,0.7252,1,0,7,7,5,1,1001,OBTAIN,m,,,,,,,,,,,,,,,,,,,,,,,,,,,,,,,,,,,,,,,,,,,,,,,,,,,,,,,,,,,,,,,
,,,,,,,,,,,,,,,,,6108288fcf5c9a6e1f2d041c,27,2022-02-12_13h47.56.824,lexical_decision_task_DD_L2,2021.2.3,Linux aarch64,60.24822268,,0,0.311279297,-0.281814236,1,0,0,0.9055,button_right,0.9055,1,0,8,8,0,1,1001,UTOPIA,m,,,,,,,,,,,,,,,,,,,,,,,,,,,,,,,,,,,,,,,,,,,,,,,,,,,,,,,,,,,,,,,
,,,,,,,,,,,,,,,,,6108288fcf5c9a6e1f2d041c,27,2022-02-12_13h47.56.824,lexical_decision_task_DD_L2,2021.2.3,Linux aarch64,60.24822268,,0,-0.318847656,-0.34203559,1,0,0,0.9095,button_left,0.9095,1,0,9,9,11,1,1001,RASHET,z,,,,,,,,,,,,,,,,,,,,,,,,,,,,,,,,,,,,,,,,,,,,,,,,,,,,,,,,,,,,,,,
,,,,,,,,,,,,,,,,,6108288fcf5c9a6e1f2d041c,27,2022-02-12_13h47.56.824,lexical_decision_task_DD_L2,2021.2.3,Linux aarch64,60.24822268,,0,-0.281494141,-0.287782118,1,0,0,0.9098,button_left,0.9098,1,0,10,10,14,1,1001,THRALE,z,,,,,,,,,,,,,,,,,,,,,,,,,,,,,,,,,,,,,,,,,,,,,,,,,,,,,,,,,,,,,,,
,,,,,,,,,,,,,,,,,6108288fcf5c9a6e1f2d041c,27,2022-02-12_13h47.56.824,lexical_decision_task_DD_L2,2021.2.3,Linux aarch64,60.24822268,,0,-0.284667969,-0.312196181,1,0,0,0.8279,button_left,0.8279,1,0,11,11,8,1,1001,ASLERT,z,,,,,,,,,,,,,,,,,,,,,,,,,,,,,,,,,,,,,,,,,,,,,,,,,,,,,,,,,,,,,,,
,,,,,,,,,,,,,,,,,6108288fcf5c9a6e1f2d041c,27,2022-02-12_13h47.56.824,lexical_decision_task_DD_L2,2021.2.3,Linux aarch64,60.24822268,,0,0.287353516,-0.302430556,1,0,0,0.6773,button_right,0.6773,1,0,12,12,6,1,1001,ZOMBIE,m,,,,,,,,,,,,,,,,,,,,,,,,,,,,,,,,,,,,,,,,,,,,,,,,,,,,,,,,,,,,,,,
,,,,,,,,,,,,,,,,,6108288fcf5c9a6e1f2d041c,27,2022-02-12_13h47.56.824,lexical_decision_task_DD_L2,2021.2.3,Linux aarch64,60.24822268,,0,0.297363281,-0.298632813,1,0,0,0.6407,button_right,0.6407,1,0,13,13,7,1,1001,VOLUME,m,,,,,,,,,,,,,,,,,,,,,,,,,,,,,,,,,,,,,,,,,,,,,,,,,,,,,,,,,,,,,,,
,,,,,,,,,,,,,,,,,6108288fcf5c9a6e1f2d041c,27,2022-02-12_13h47.56.824,lexical_decision_task_DD_L2,2021.2.3,Linux aarch64,60.24822268,,0,-0.311279297,-0.338780382,1,0,0,0.6562,button_left,0.6562,1,0,14,14,13,1,1001,ROUPET,z,,,,,,,,,,,,,,,,,,,,,,,,,,,,,,,,,,,,,,,,,,,,,,,,,,,,,,,,,,,,,,,
,,,,,,,,,,,,,,,,,6108288fcf5c9a6e1f2d041c,27,2022-02-12_13h47.56.824,lexical_decision_task_DD_L2,2021.2.3,Linux aarch64,60.24822268,,0,-0.313232422,-0.30405816,1,0,0,0.8254,button_left,0.8254,1,0,15,15,15,1,1001,WHAISE,z,,,,,,,,,,,,,,,,,,,,,,,,,,,,,,,,,,,,,,,,,,,,,,,,,,,,,,,,,,,,,,,
,0.081054688,-0.381640625,1,0,0,instr_done_button,,,,,,1,end_of_practice,"You have completed the practice trials. During the experimental trials, you will not receive feedback. 
Before you begin, please ensure that you are in a comfortable and quiet location and will not be disturbed for about 15 minutes, as we cannot use your data if you do not complete all the trials. 
 When you are ready to start the experimental trials, please press space or touch the button below.",,,6108288fcf5c9a6e1f2d041c,27,2022-02-12_13h47.56.824,lexical_decision_task_DD_L2,2021.2.3,Linux aarch64,60.24822268,,,,,,,,,,,,,,,,,,,,0,0,0,0,1,,,,,,,,,,,,,,,,,,,,,,,,,,,,,,,,,,,,,,,,,,,,,,,,,,,,,,,,,,
,,,,,,,,,,,,,,,,,6108288fcf5c9a6e1f2d041c,27,2022-02-12_13h47.56.824,lexical_decision_task_DD_L2,2021.2.3,Linux aarch64,60.24822268,,,,,,,,,,0.8207,1,,,,,,,,,,,,,,,0,-0.325683594,-0.337152778,1,0,0,0.8207,button_left_main,-0.325683594,-0.337152778,1,0,0,,0,0,0,129,1,PRANS,C,old,z,./images/PRANS.png,,,,,,,,,,,,,,,,,,,,,,,,,,,,,,,,,
,,,,,,,,,,,,,,,,,6108288fcf5c9a6e1f2d041c,27,2022-02-12_13h47.56.824,lexical_decision_task_DD_L2,2021.2.3,Linux aarch64,60.24822268,,,,,,,,,,0.6957,1,,,,,,,,,,,,,,,0,0.306884766,-0.30405816,1,0,0,0.6957,button_right_main,0.306884766,-0.30405816,1,0,0,,0,1,1,83,1,JUNGLE,C,old,m,./images/JUNGLE.png,,,,,,,,,,,,,,,,,,,,,,,,,,,,,,,,,
,,,,,,,,,,,,,,,,,6108288fcf5c9a6e1f2d041c,27,2022-02-12_13h47.56.824,lexical_decision_task_DD_L2,2021.2.3,Linux aarch64,60.24822268,,,,,,,,,,0.8949,1,,,,,,,,,,,,,,,0,0.292236328,-0.301888021,1,0,0,0.8949,button_right_main,0.292236328,-0.301888021,1,0,0,,0,2,2,63,1,MIRROR,HB,old,m,./images/MIRRORHB.png,,,,,,,,,,,,,,,,,,,,,,,,,,,,,,,,,
,,,,,,,,,,,,,,,,,6108288fcf5c9a6e1f2d041c,27,2022-02-12_13h47.56.824,lexical_decision_task_DD_L2,2021.2.3,Linux aarch64,60.24822268,,,,,,,,,,1.36,1,,,,,,,,,,,,,,,0,-0.274169922,-0.340407986,1,0,0,1.36,button_left_main,-0.274169922,-0.340407986,1,0,0,,0,3,3,94,1,BLANS,HB,old,z,./images/BLANSHB.png,,,,,,,,,,,,,,,,,,,,,,,,,,,,,,,,,
,,,,,,,,,,,,,,,,,6108288fcf5c9a6e1f2d041c,27,2022-02-12_13h47.56.824,lexical_decision_task_DD_L2,2021.2.3,Linux aarch64,60.24822268,,,,,,,,,,0.6295,1,,,,,,,,,,,,,,,0,0.293945313,-0.32358941,1,0,0,0.6295,button_right_main,0.293945313,-0.32358941,1,0,0,,0,4,4,40,1,SWING,LB,old,m,./images/SWINGLB.png,,,,,,,,,,,,,,,,,,,,,,,,,,,,,,,,,
,,,,,,,,,,,,,,,,,6108288fcf5c9a6e1f2d041c,27,2022-02-12_13h47.56.824,lexical_decision_task_DD_L2,2021.2.3,Linux aarch64,60.24822268,,,,,,,,,,0.6453,1,,,,,,,,,,,,,,,0,0.295654297,-0.312196181,1,0,0,0.6453,button_right_main,0.295654297,-0.312196181,1,0,0,,0,5,5,8,1,TULIP,C,old,m,./images/TULIP.png,,,,,,,,,,,,,,,,,,,,,,,,,,,,,,,,,
,,,,,,,,,,,,,,,,,6108288fcf5c9a6e1f2d041c,27,2022-02-12_13h47.56.824,lexical_decision_task_DD_L2,2021.2.3,Linux aarch64,60.24822268,,,,,,,,,,0.6282,1,,,,,,,,,,,,,,,0,0.294677734,-0.332269965,1,0,0,0.6282,button_right_main,0.294677734,-0.332269965,1,0,0,,0,6,6,68,1,TORCH,C,old,m,./images/TORCH.png,,,,,,,,,,,,,,,,,,,,,,,,,,,,,,,,,
,,,,,,,,,,,,,,,,,6108288fcf5c9a6e1f2d041c,27,2022-02-12_13h47.56.824,lexical_decision_task_DD_L2,2021.2.3,Linux aarch64,60.24822268,,,,,,,,,,0.7289,1,,,,,,,,,,,,,,,0,-0.312255859,-0.351258681,1,0,0,0.7289,button_left_main,-0.312255859,-0.351258681,1,0,0,,0,7,7,156,1,HIXES,C,old,z,./images/HIXES.png,,,,,,,,,,,,,,,,,,,,,,,,,,,,,,,,,
,,,,,,,,,,,,,,,,,6108288fcf5c9a6e1f2d041c,27,2022-02-12_13h47.56.824,lexical_decision_task_DD_L2,2021.2.3,Linux aarch64,60.24822268,,,,,,,,,,0.5449,1,,,,,,,,,,,,,,,0,0.279541016,-0.343663194,1,0,0,0.5449,button_right_main,0.279541016,-0.343663194,1,0,0,,0,8,8,38,1,LADDER,C,old,m,./images/LADDER.png,,,,,,,,,,,,,,,,,,,,,,,,,,,,,,,,,
,,,,,,,,,,,,,,,,,6108288fcf5c9a6e1f2d041c,27,2022-02-12_13h47.56.824,lexical_decision_task_DD_L2,2021.2.3,Linux aarch64,60.24822268,,,,,,,,,,0.6625,1,,,,,,,,,,,,,,,0,0.279296875,-0.334982639,1,0,0,0.6625,button_right_main,0.279296875,-0.334982639,1,0,0,,0,9,9,21,1,KIDNEY,HB,old,m,./images/KIDNEYHB.png,,,,,,,,,,,,,,,,,,,,,,,,,,,,,,,,,
,,,,,,,,,,,,,,,,,6108288fcf5c9a6e1f2d041c,27,2022-02-12_13h47.56.824,lexical_decision_task_DD_L2,2021.2.3,Linux aarch64,60.24822268,,,,,,,,,,0.9439,1,,,,,,,,,,,,,,,0,-0.288818359,-0.344205729,1,0,0,0.9439,button_left_main,-0.288818359,-0.344205729,1,0,0,,0,10,10,107,1,FASKS,LB,old,z,./images/FASKSLB.png,,,,,,,,,,,,,,,,,,,,,,,,,,,,,,,,,
,,,,,,,,,,,,,,,,,6108288fcf5c9a6e1f2d041c,27,2022-02-12_13h47.56.824,lexical_decision_task_DD_L2,2021.2.3,Linux aarch64,60.24822268,,,,,,,,,,0.7788,1,,,,,,,,,,,,,,,0,-0.306640625,-0.330099826,1,0,0,0.7788,button_left_main,-0.306640625,-0.330099826,1,0,0,,0,11,11,87,1,TRING,C,old,z,./images/TRING.png,,,,,,,,,,,,,,,,,,,,,,,,,,,,,,,,,
,,,,,,,,,,,,,,,,,6108288fcf5c9a6e1f2d041c,27,2022-02-12_13h47.56.824,lexical_decision_task_DD_L2,2021.2.3,Linux aarch64,60.24822268,,,,,,,,,,0.7623,1,,,,,,,,,,,,,,,0,-0.288330078,-0.344205729,1,0,0,0.7623,button_left_main,-0.288330078,-0.344205729,1,0,0,,0,12,12,93,1,SMONE,C,old,z,./images/SMONE.png,,,,,,,,,,,,,,,,,,,,,,,,,,,,,,,,,
,,,,,,,,,,,,,,,,,6108288fcf5c9a6e1f2d041c,27,2022-02-12_13h47.56.824,lexical_decision_task_DD_L2,2021.2.3,Linux aarch64,60.24822268,,,,,,,,,,1.2268,1,,,,,,,,,,,,,,,0,-0.32421875,-0.30297309,1,0,0,1.2268,button_left_main,-0.32421875,-0.30297309,1,0,0,,0,13,13,97,1,CHIDS,HB,old,z,./images/CHIDSHB.png,,,,,,,,,,,,,,,,,,,,,,,,,,,,,,,,,
,,,,,,,,,,,,,,,,,6108288fcf5c9a6e1f2d041c,27,2022-02-12_13h47.56.824,lexical_decision_task_DD_L2,2021.2.3,Linux aarch64,60.24822268,,,,,,,,,,1.4304,1,,,,,,,,,,,,,,,0,-0.290527344,-0.312738715,1,0,0,1.4304,button_left_main,-0.290527344,-0.312738715,1,0,0,,0,14,14,118,1,BAVEL,HB,old,z,./images/BAVELHB.png,,,,,,,,,,,,,,,,,,,,,,,,,,,,,,,,,
,,,,,,,,,,,,,,,,,6108288fcf5c9a6e1f2d041c,27,2022-02-12_13h47.56.824,lexical_decision_task_DD_L2,2021.2.3,Linux aarch64,60.24822268,,,,,,,,,,0.7513,1,,,,,,,,,,,,,,,0,0.310302734,-0.326302083,1,0,0,0.7513,button_right_main,0.310302734,-0.326302083,1,0,0,,0,15,15,39,1,SHELF,HB,old,m,./images/SHELFHB.png,,,,,,,,,,,,,,,,,,,,,,,,,,,,,,,,,
,,,,,,,,,,,,,,,,,6108288fcf5c9a6e1f2d041c,27,2022-02-12_13h47.56.824,lexical_decision_task_DD_L2,2021.2.3,Linux aarch64,60.24822268,,,,,,,,,,0.61,1,,,,,,,,,,,,,,,0,0.307373047,-0.30405816,1,0,0,0.61,button_right_main,0.307373047,-0.30405816,1,0,0,,0,16,16,42,1,FOLDER,HB,old,m,./images/FOLDERHB.png,,,,,,,,,,,,,,,,,,,,,,,,,,,,,,,,,
,,,,,,,,,,,,,,,,,6108288fcf5c9a6e1f2d041c,27,2022-02-12_13h47.56.824,lexical_decision_task_DD_L2,2021.2.3,Linux aarch64,60.24822268,,,,,,,,,,0.7781,1,,,,,,,,,,,,,,,0,-0.342041016,-0.321419271,1,0,0,0.7781,button_left_main,-0.342041016,-0.321419271,1,0,0,,0,17,17,162,1,LEICH,C,old,z,./images/LEICH.png,,,,,,,,,,,,,,,,,,,,,,,,,,,,,,,,,
,,,,,,,,,,,,,,,,,6108288fcf5c9a6e1f2d041c,27,2022-02-12_13h47.56.824,lexical_decision_task_DD_L2,2021.2.3,Linux aarch64,60.24822268,,,,,,,,,,0.7615,1,,,,,,,,,,,,,,,0,-0.355712891,-0.300260417,1,0,0,0.7615,button_left_main,-0.355712891,-0.300260417,1,0,0,,0,18,18,119,1,PAFER,LB,old,z,./images/PAFERLB.png,,,,,,,,,,,,,,,,,,,,,,,,,,,,,,,,,
,,,,,,,,,,,,,,,,,6108288fcf5c9a6e1f2d041c,27,2022-02-12_13h47.56.824,lexical_decision_task_DD_L2,2021.2.3,Linux aarch64,60.24822268,,,,,,,,,,0.8123,1,,,,,,,,,,,,,,,0,-0.335449219,-0.339322917,1,0,0,0.8123,button_left_main,-0.335449219,-0.339322917,1,0,0,,0,19,19,99,1,BACKY,C,old,z,./images/BACKY.png,,,,,,,,,,,,,,,,,,,,,,,,,,,,,,,,,
,,,,,,,,,,,,,,,,,6108288fcf5c9a6e1f2d041c,27,2022-02-12_13h47.56.824,lexical_decision_task_DD_L2,2021.2.3,Linux aarch64,60.24822268,,,,,,,,,,0.9283,1,,,,,,,,,,,,,,,0,-0.300537109,-0.317621528,1,0,0,0.9283,button_left_main,-0.300537109,-0.317621528,1,0,0,,0,20,20,128,1,GRIFT,LB,old,z,./images/GRIFTLB.png,,,,,,,,,,,,,,,,,,,,,,,,,,,,,,,,,
,,,,,,,,,,,,,,,,,6108288fcf5c9a6e1f2d041c,27,2022-02-12_13h47.56.824,lexical_decision_task_DD_L2,2021.2.3,Linux aarch64,60.24822268,,,,,,,,,,0.9277,1,,,,,,,,,,,,,,,0,-0.3203125,-0.317621528,1,0,0,0.9277,button_left_main,-0.3203125,-0.317621528,1,0,0,,0,21,21,142,1,PLASK,HB,old,z,./images/PLASKHB.png,,,,,,,,,,,,,,,,,,,,,,,,,,,,,,,,,
,,,,,,,,,,,,,,,,,6108288fcf5c9a6e1f2d041c,27,2022-02-12_13h47.56.824,lexical_decision_task_DD_L2,2021.2.3,Linux aarch64,60.24822268,,,,,,,,,,0.7128,1,,,,,,,,,,,,,,,0,-0.320068359,-0.324674479,1,0,0,0.7128,button_left_main,-0.320068359,-0.324674479,1,0,0,,0,22,22,89,1,DRIEK,LB,old,z,./images/DRIEKLB.png,,,,,,,,,,,,,,,,,,,,,,,,,,,,,,,,,
,,,,,,,,,,,,,,,,,6108288fcf5c9a6e1f2d041c,27,2022-02-12_13h47.56.824,lexical_decision_task_DD_L2,2021.2.3,Linux aarch64,60.24822268,,,,,,,,,,0.6805,1,,,,,,,,,,,,,,,0,0.317138672,-0.314908854,1,0,0,0.6805,button_right_main,0.317138672,-0.314908854,1,0,0,,0,23,23,15,1,GREASE,HB,old,m,./images/GREASEHB.png,,,,,,,,,,,,,,,,,,,,,,,,,,,,,,,,,
,,,,,,,,,,,,,,,,,6108288fcf5c9a6e1f2d041c,27,2022-02-12_13h47.56.824,lexical_decision_task_DD_L2,2021.2.3,Linux aarch64,60.24822268,,,,,,,,,,0.6464,1,,,,,,,,,,,,,,,0,0.315917969,-0.310026042,1,0,0,0.6464,button_right_main,0.315917969,-0.310026042,1,0,0,,0,24,24,50,1,MALLET,C,old,m,./images/MALLET.png,,,,,,,,,,,,,,,,,,,,,,,,,,,,,,,,,
,,,,,,,,,,,,,,,,,6108288fcf5c9a6e1f2d041c,27,2022-02-12_13h47.56.824,lexical_decision_task_DD_L2,2021.2.3,Linux aarch64,60.24822268,,,,,,,,,,0.6793,1,,,,,,,,,,,,,,,0,0.304199219,-0.324131944,1,0,0,0.6793,button_right_main,0.304199219,-0.324131944,1,0,0,,0,25,25,29,1,CRUMB,C,old,m,./images/CRUMB.png,,,,,,,,,,,,,,,,,,,,,,,,,,,,,,,,,
,,,,,,,,,,,,,,,,,6108288fcf5c9a6e1f2d041c,27,2022-02-12_13h47.56.824,lexical_decision_task_DD_L2,2021.2.3,Linux aarch64,60.24822268,,,,,,,,,,0.8758,1,,,,,,,,,,,,,,,0,-0.323730469,-0.339322917,1,0,0,0.8758,button_left_main,-0.323730469,-0.339322917,1,0,0,,0,26,26,149,1,VEASE,LB,old,z,./images/VEASELB.png,,,,,,,,,,,,,,,,,,,,,,,,,,,,,,,,,
,,,,,,,,,,,,,,,,,6108288fcf5c9a6e1f2d041c,27,2022-02-12_13h47.56.824,lexical_decision_task_DD_L2,2021.2.3,Linux aarch64,60.24822268,,,,,,,,,,0.7279,1,,,,,,,,,,,,,,,0,0.288085938,-0.358311632,1,0,0,0.7279,button_right_main,0.288085938,-0.358311632,1,0,0,,0,27,27,11,1,BONNET,C,old,m,./images/BONNET.png,,,,,,,,,,,,,,,,,,,,,,,,,,,,,,,,,
,,,,,,,,,,,,,,,,,6108288fcf5c9a6e1f2d041c,27,2022-02-12_13h47.56.824,lexical_decision_task_DD_L2,2021.2.3,Linux aarch64,60.24822268,,,,,,,,,,0.6781,1,,,,,,,,,,,,,,,0,-0.298095703,-0.331184896,1,0,0,0.6781,button_left_main,-0.298095703,-0.331184896,1,0,0,,0,28,28,95,1,HANTY,LB,old,z,./images/HANTYLB.png,,,,,,,,,,,,,,,,,,,,,,,,,,,,,,,,,
,,,,,,,,,,,,,,,,,6108288fcf5c9a6e1f2d041c,27,2022-02-12_13h47.56.824,lexical_decision_task_DD_L2,2021.2.3,Linux aarch64,60.24822268,,,,,,,,,,0.811,1,,,,,,,,,,,,,,,0,-0.318359375,-0.355598958,1,0,0,0.811,button_left_main,-0.318359375,-0.355598958,1,0,0,,0,29,29,150,1,NOOLS,C,old,z,./images/NOOLS.png,,,,,,,,,,,,,,,,,,,,,,,,,,,,,,,,,
,,,,,,,,,,,,,,,,,6108288fcf5c9a6e1f2d041c,27,2022-02-12_13h47.56.824,lexical_decision_task_DD_L2,2021.2.3,Linux aarch64,60.24822268,,,,,,,,,,0.6949,1,,,,,,,,,,,,,,,0,-0.320800781,-0.312196181,1,0,0,0.6949,button_left_main,-0.320800781,-0.312196181,1,0,0,,0,30,30,131,1,NACES,LB,old,z,./images/NACESLB.png,,,,,,,,,,,,,,,,,,,,,,,,,,,,,,,,,
,,,,,,,,,,,,,,,,,6108288fcf5c9a6e1f2d041c,27,2022-02-12_13h47.56.824,lexical_decision_task_DD_L2,2021.2.3,Linux aarch64,60.24822268,,,,,,,,,,0.6288,1,,,,,,,,,,,,,,,0,0.296630859,-0.338780382,1,0,0,0.6288,button_right_main,0.296630859,-0.338780382,1,0,0,,0,31,31,70,1,URINE,LB,old,m,./images/URINELB.png,,,,,,,,,,,,,,,,,,,,,,,,,,,,,,,,,
,,,,,,,,,,,,,,,,,6108288fcf5c9a6e1f2d041c,27,2022-02-12_13h47.56.824,lexical_decision_task_DD_L2,2021.2.3,Linux aarch64,60.24822268,,,,,,,,,,0.6295,1,,,,,,,,,,,,,,,0,0.324462891,-0.29375,1,0,0,0.6295,button_right_main,0.324462891,-0.29375,1,0,0,,0,32,32,79,1,CRUST,LB,old,m,./images/CRUSTLB.png,,,,,,,,,,,,,,,,,,,,,,,,,,,,,,,,,
,,,,,,,,,,,,,,,,,6108288fcf5c9a6e1f2d041c,27,2022-02-12_13h47.56.824,lexical_decision_task_DD_L2,2021.2.3,Linux aarch64,60.24822268,,,,,,,,,,0.8113,1,,,,,,,,,,,,,,,0,-0.326660156,-0.334982639,1,0,0,0.8113,button_left_main,-0.326660156,-0.334982639,1,0,0,,0,33,33,114,1,RIKES,C,old,z,./images/RIKES.png,,,,,,,,,,,,,,,,,,,,,,,,,,,,,,,,,
,,,,,,,,,,,,,,,,,6108288fcf5c9a6e1f2d041c,27,2022-02-12_13h47.56.824,lexical_decision_task_DD_L2,2021.2.3,Linux aarch64,60.24822268,,,,,,,,,,0.7626,1,,,,,,,,,,,,,,,0,-0.3515625,-0.286154514,1,0,0,0.7626,button_left_main,-0.3515625,-0.286154514,1,0,0,,0,34,34,155,1,CANGY,LB,old,z,./images/CANGYLB.png,,,,,,,,,,,,,,,,,,,,,,,,,,,,,,,,,
,,,,,,,,,,,,,,,,,6108288fcf5c9a6e1f2d041c,27,2022-02-12_13h47.56.824,lexical_decision_task_DD_L2,2021.2.3,Linux aarch64,60.24822268,,,,,,,,,,0.9782,1,,,,,,,,,,,,,,,0,0.306640625,-0.310026042,1,0,0,0.9782,button_right_main,0.306640625,-0.310026042,1,0,0,,0,35,35,56,1,PACKET,C,old,m,./images/PACKET.png,,,,,,,,,,,,,,,,,,,,,,,,,,,,,,,,,
,,,,,,,,,,,,,,,,,6108288fcf5c9a6e1f2d041c,27,2022-02-12_13h47.56.824,lexical_decision_task_DD_L2,2021.2.3,Linux aarch64,60.24822268,,,,,,,,,,1.3093,0,,,,,,,,,,,,,,,0,0.301269531,-0.306770833,1,0,0,1.3093,button_right_main,0.301269531,-0.306770833,1,0,0,,0,36,36,120,1,RINED,C,old,z,./images/RINED.png,,,,,,,,,,,,,,,,,,,,,,,,,,,,,,,,,
,,,,,,,,,,,,,,,,,6108288fcf5c9a6e1f2d041c,27,2022-02-12_13h47.56.824,lexical_decision_task_DD_L2,2021.2.3,Linux aarch64,60.24822268,,,,,,,,,,1.1776,1,,,,,,,,,,,,,,,0,-0.30078125,-0.310568576,1,0,0,1.1776,button_left_main,-0.30078125,-0.310568576,1,0,0,,0,37,37,91,1,SHENS,HB,old,z,./images/SHENSHB.png,,,,,,,,,,,,,,,,,,,,,,,,,,,,,,,,,
,,,,,,,,,,,,,,,,,6108288fcf5c9a6e1f2d041c,27,2022-02-12_13h47.56.824,lexical_decision_task_DD_L2,2021.2.3,Linux aarch64,60.24822268,,,,,,,,,,0.7292,1,,,,,,,,,,,,,,,0,-0.319824219,-0.273676215,1,0,0,0.7292,button_left_main,-0.319824219,-0.273676215,1,0,0,,0,38,38,108,1,GRUET,C,old,z,./images/GRUET.png,,,,,,,,,,,,,,,,,,,,,,,,,,,,,,,,,
,,,,,,,,,,,,,,,,,6108288fcf5c9a6e1f2d041c,27,2022-02-12_13h47.56.824,lexical_decision_task_DD_L2,2021.2.3,Linux aarch64,60.24822268,,,,,,,,,,0.7946,1,,,,,,,,,,,,,,,0,0.291503906,-0.337695313,1,0,0,0.7946,button_right_main,0.291503906,-0.337695313,1,0,0,,0,39,39,43,1,MOSQUE,LB,old,m,./images/MOSQUELB.png,,,,,,,,,,,,,,,,,,,,,,,,,,,,,,,,,
,,,,,,,,,,,,,,,,,6108288fcf5c9a6e1f2d041c,27,2022-02-12_13h47.56.824,lexical_decision_task_DD_L2,2021.2.3,Linux aarch64,60.24822268,,,,,,,,,,0.6959,1,,,,,,,,,,,,,,,0,0.304443359,-0.281271701,1,0,0,0.6959,button_right_main,0.304443359,-0.281271701,1,0,0,,0,40,40,27,1,ATTIC,HB,old,m,./images/ATTICHB.png,,,,,,,,,,,,,,,,,,,,,,,,,,,,,,,,,
,,,,,,,,,,,,,,,,,6108288fcf5c9a6e1f2d041c,27,2022-02-12_13h47.56.824,lexical_decision_task_DD_L2,2021.2.3,Linux aarch64,60.24822268,,,,,,,,,,0.6328,1,,,,,,,,,,,,,,,0,0.289550781,-0.363736979,1,0,0,0.6328,button_right_main,0.168701172,-0.401171875,1,0,0,,0,41,41,30,1,STORM,HB,old,m,./images/STORMHB.png,break_done_button,,,,,,,,,,,,,,,,,,,,,,,,,,,,,,,,
,,,,,,,,,,,,,,,,,6108288fcf5c9a6e1f2d041c,27,2022-02-12_13h47.56.824,lexical_decision_task_DD_L2,2021.2.3,Linux aarch64,60.24822268,,,,,,,,,,0.7156,1,,,,,,,,,,,,,,,0,0.321044922,-0.314366319,1,0,0,0.7156,button_right_main,0.321044922,-0.314366319,1,0,0,,0,42,42,12,1,SHORE,HB,old,m,./images/SHOREHB.png,,,,,,,,,,,,,,,,,,,,,,,,,,,,,,,,,
,,,,,,,,,,,,,,,,,6108288fcf5c9a6e1f2d041c,27,2022-02-12_13h47.56.824,lexical_decision_task_DD_L2,2021.2.3,Linux aarch64,60.24822268,,,,,,,,,,0.6632,1,,,,,,,,,,,,,,,0,-0.351318359,-0.303515625,1,0,0,0.6632,button_left_main,-0.351318359,-0.303515625,1,0,0,,0,43,43,147,1,ZOLES,C,old,z,./images/ZOLES.png,,,,,,,,,,,,,,,,,,,,,,,,,,,,,,,,,
,,,,,,,,,,,,,,,,,6108288fcf5c9a6e1f2d041c,27,2022-02-12_13h47.56.824,lexical_decision_task_DD_L2,2021.2.3,Linux aarch64,60.24822268,,,,,,,,,,0.8284,1,,,,,,,,,,,,,,,0,-0.348632813,-0.312196181,1,0,0,0.8284,button_left_main,-0.348632813,-0.312196181,1,0,0,,0,44,44,88,1,GLUSH,HB,old,z,./images/GLUSHHB.png,,,,,,,,,,,,,,,,,,,,,,,,,,,,,,,,,
,,,,,,,,,,,,,,,,,6108288fcf5c9a6e1f2d041c,27,2022-02-12_13h47.56.824,lexical_decision_task_DD_L2,2021.2.3,Linux aarch64,60.24822268,,,,,,,,,,0.6966,1,,,,,,,,,,,,,,,0,0.314941406,-0.292122396,1,0,0,0.6966,button_right_main,0.314941406,-0.292122396,1,0,0,,0,45,45,36,1,THROAT,HB,old,m,./images/THROATHB.png,,,,,,,,,,,,,,,,,,,,,,,,,,,,,,,,,
,,,,,,,,,,,,,,,,,6108288fcf5c9a6e1f2d041c,27,2022-02-12_13h47.56.824,lexical_decision_task_DD_L2,2021.2.3,Linux aarch64,60.24822268,,,,,,,,,,0.6112,1,,,,,,,,,,,,,,,0,-0.342285156,-0.304600694,1,0,0,0.6112,button_left_main,-0.342285156,-0.304600694,1,0,0,,0,46,46,163,1,GAMBA,HB,old,z,./images/GAMBAHB.png,,,,,,,,,,,,,,,,,,,,,,,,,,,,,,,,,
,,,,,,,,,,,,,,,,,6108288fcf5c9a6e1f2d041c,27,2022-02-12_13h47.56.824,lexical_decision_task_DD_L2,2021.2.3,Linux aarch64,60.24822268,,,,,,,,,,1.0474,1,,,,,,,,,,,,,,,0,0.288330078,-0.330099826,1,0,0,1.0474,button_right_main,0.288330078,-0.330099826,1,0,0,,0,47,47,16,1,PENCE,LB,old,m,./images/PENCELB.png,,,,,,,,,,,,,,,,,,,,,,,,,,,,,,,,,
,,,,,,,,,,,,,,,,,6108288fcf5c9a6e1f2d041c,27,2022-02-12_13h47.56.824,lexical_decision_task_DD_L2,2021.2.3,Linux aarch64,60.24822268,,,,,,,,,,0.8575,1,,,,,,,,,,,,,,,0,-0.318603516,-0.333355035,1,0,0,0.8575,button_left_main,-0.318603516,-0.333355035,1,0,0,,0,48,48,102,1,DULLE,C,old,z,./images/DULLE.png,,,,,,,,,,,,,,,,,,,,,,,,,,,,,,,,,
,,,,,,,,,,,,,,,,,6108288fcf5c9a6e1f2d041c,27,2022-02-12_13h47.56.824,lexical_decision_task_DD_L2,2021.2.3,Linux aarch64,60.24822268,,,,,,,,,,0.9926,1,,,,,,,,,,,,,,,0,-0.3203125,-0.321961806,1,0,0,0.9926,button_left_main,-0.3203125,-0.321961806,1,0,0,,0,49,49,140,1,DOVET,LB,old,z,./images/DOVETLB.png,,,,,,,,,,,,,,,,,,,,,,,,,,,,,,,,,
,,,,,,,,,,,,,,,,,6108288fcf5c9a6e1f2d041c,27,2022-02-12_13h47.56.824,lexical_decision_task_DD_L2,2021.2.3,Linux aarch64,60.24822268,,,,,,,,,,0.7465,1,,,,,,,,,,,,,,,0,0.30859375,-0.306770833,1,0,0,0.7465,button_right_main,0.30859375,-0.306770833,1,0,0,,0,50,50,19,1,DOUGH,LB,old,m,./images/DOUGHLB.png,,,,,,,,,,,,,,,,,,,,,,,,,,,,,,,,,
,,,,,,,,,,,,,,,,,6108288fcf5c9a6e1f2d041c,27,2022-02-12_13h47.56.824,lexical_decision_task_DD_L2,2021.2.3,Linux aarch64,60.24822268,,,,,,,,,,0.6296,1,,,,,,,,,,,,,,,0,0.317871094,-0.298632813,1,0,0,0.6296,button_right_main,0.317871094,-0.298632813,1,0,0,,0,51,51,67,1,SAILOR,LB,old,m,./images/SAILORLB.png,,,,,,,,,,,,,,,,,,,,,,,,,,,,,,,,,
,,,,,,,,,,,,,,,,,6108288fcf5c9a6e1f2d041c,27,2022-02-12_13h47.56.824,lexical_decision_task_DD_L2,2021.2.3,Linux aarch64,60.24822268,,,,,,,,,,0.6287,1,,,,,,,,,,,,,,,0,0.295654297,-0.34312066,1,0,0,0.6287,button_right_main,0.295654297,-0.34312066,1,0,0,,0,52,52,53,1,CARPET,C,old,m,./images/CARPET.png,,,,,,,,,,,,,,,,,,,,,,,,,,,,,,,,,
,,,,,,,,,,,,,,,,,6108288fcf5c9a6e1f2d041c,27,2022-02-12_13h47.56.824,lexical_decision_task_DD_L2,2021.2.3,Linux aarch64,60.24822268,,,,,,,,,,0.6796,1,,,,,,,,,,,,,,,0,0.323242188,-0.305685764,1,0,0,0.6796,button_right_main,0.323242188,-0.305685764,1,0,0,,0,53,53,75,1,GRAIN,HB,old,m,./images/GRAINHB.png,,,,,,,,,,,,,,,,,,,,,,,,,,,,,,,,,
,,,,,,,,,,,,,,,,,6108288fcf5c9a6e1f2d041c,27,2022-02-12_13h47.56.824,lexical_decision_task_DD_L2,2021.2.3,Linux aarch64,60.24822268,,,,,,,,,,0.5488,1,,,,,,,,,,,,,,,0,0.314208984,-0.321419271,1,0,0,0.5488,button_right_main,0.314208984,-0.321419271,1,0,0,,0,54,54,61,1,CANDLE,LB,old,m,./images/CANDLELB.png,,,,,,,,,,,,,,,,,,,,,,,,,,,,,,,,,
,,,,,,,,,,,,,,,,,6108288fcf5c9a6e1f2d041c,27,2022-02-12_13h47.56.824,lexical_decision_task_DD_L2,2021.2.3,Linux aarch64,60.24822268,,,,,,,,,,0.6786,1,,,,,,,,,,,,,,,0,0.320556641,-0.278016493,1,0,0,0.6786,button_right_main,0.320556641,-0.278016493,1,0,0,,0,55,55,3,1,FINGER,HB,old,m,./images/FINGERHB.png,,,,,,,,,,,,,,,,,,,,,,,,,,,,,,,,,
,,,,,,,,,,,,,,,,,6108288fcf5c9a6e1f2d041c,27,2022-02-12_13h47.56.824,lexical_decision_task_DD_L2,2021.2.3,Linux aarch64,60.24822268,,,,,,,,,,0.7285,1,,,,,,,,,,,,,,,0,-0.354736328,-0.288324653,1,0,0,0.7285,button_left_main,-0.354736328,-0.288324653,1,0,0,,0,56,56,138,1,PLICE,C,old,z,./images/PLICE.png,,,,,,,,,,,,,,,,,,,,,,,,,,,,,,,,,
,,,,,,,,,,,,,,,,,6108288fcf5c9a6e1f2d041c,27,2022-02-12_13h47.56.824,lexical_decision_task_DD_L2,2021.2.3,Linux aarch64,60.24822268,,,,,,,,,,1.0098,1,,,,,,,,,,,,,,,0,0.295166016,-0.290494792,1,0,0,1.0098,button_right_main,0.295166016,-0.290494792,1,0,0,,0,57,57,69,1,COOKER,HB,old,m,./images/COOKERHB.png,,,,,,,,,,,,,,,,,,,,,,,,,,,,,,,,,
,,,,,,,,,,,,,,,,,6108288fcf5c9a6e1f2d041c,27,2022-02-12_13h47.56.824,lexical_decision_task_DD_L2,2021.2.3,Linux aarch64,60.24822268,,,,,,,,,,0.6127,1,,,,,,,,,,,,,,,0,0.284423828,-0.331727431,1,0,0,0.6127,button_right_main,0.284423828,-0.331727431,1,0,0,,0,58,58,45,1,KITTEN,HB,old,m,./images/KITTENHB.png,,,,,,,,,,,,,,,,,,,,,,,,,,,,,,,,,
,,,,,,,,,,,,,,,,,6108288fcf5c9a6e1f2d041c,27,2022-02-12_13h47.56.824,lexical_decision_task_DD_L2,2021.2.3,Linux aarch64,60.24822268,,,,,,,,,,0.5802,1,,,,,,,,,,,,,,,0,0.295898438,-0.320876736,1,0,0,0.5802,button_right_main,0.295898438,-0.320876736,1,0,0,,0,59,59,81,1,POODLE,HB,old,m,./images/POODLEHB.png,,,,,,,,,,,,,,,,,,,,,,,,,,,,,,,,,
,,,,,,,,,,,,,,,,,6108288fcf5c9a6e1f2d041c,27,2022-02-12_13h47.56.824,lexical_decision_task_DD_L2,2021.2.3,Linux aarch64,60.24822268,,,,,,,,,,0.6295,1,,,,,,,,,,,,,,,0,-0.347167969,-0.310568576,1,0,0,0.6295,button_left_main,-0.347167969,-0.310568576,1,0,0,,0,60,60,144,1,NAIRY,C,old,z,./images/NAIRY.png,,,,,,,,,,,,,,,,,,,,,,,,,,,,,,,,,
,,,,,,,,,,,,,,,,,6108288fcf5c9a6e1f2d041c,27,2022-02-12_13h47.56.824,lexical_decision_task_DD_L2,2021.2.3,Linux aarch64,60.24822268,,,,,,,,,,0.663,1,,,,,,,,,,,,,,,0,0.306640625,-0.314366319,1,0,0,0.663,button_right_main,0.306640625,-0.314366319,1,0,0,,0,61,61,80,1,WEASEL,C,old,m,./images/WEASEL.png,,,,,,,,,,,,,,,,,,,,,,,,,,,,,,,,,
,,,,,,,,,,,,,,,,,6108288fcf5c9a6e1f2d041c,27,2022-02-12_13h47.56.824,lexical_decision_task_DD_L2,2021.2.3,Linux aarch64,60.24822268,,,,,,,,,,0.6952,1,,,,,,,,,,,,,,,0,-0.320800781,-0.321419271,1,0,0,0.6952,button_left_main,-0.320800781,-0.321419271,1,0,0,,0,62,62,92,1,PAIMS,LB,old,z,./images/PAIMSLB.png,,,,,,,,,,,,,,,,,,,,,,,,,,,,,,,,,
,,,,,,,,,,,,,,,,,6108288fcf5c9a6e1f2d041c,27,2022-02-12_13h47.56.824,lexical_decision_task_DD_L2,2021.2.3,Linux aarch64,60.24822268,,,,,,,,,,0.6626,1,,,,,,,,,,,,,,,0,0.295898438,-0.320876736,1,0,0,0.6626,button_right_main,0.295898438,-0.320876736,1,0,0,,0,63,63,32,1,BARREL,C,old,m,./images/BARREL.png,,,,,,,,,,,,,,,,,,,,,,,,,,,,,,,,,
,,,,,,,,,,,,,,,,,6108288fcf5c9a6e1f2d041c,27,2022-02-12_13h47.56.824,lexical_decision_task_DD_L2,2021.2.3,Linux aarch64,60.24822268,,,,,,,,,,0.6794,1,,,,,,,,,,,,,,,0,0.282714844,-0.357226563,1,0,0,0.6794,button_right_main,0.282714844,-0.357226563,1,0,0,,0,64,64,34,1,CANYON,LB,old,m,./images/CANYONLB.png,,,,,,,,,,,,,,,,,,,,,,,,,,,,,,,,,
,,,,,,,,,,,,,,,,,6108288fcf5c9a6e1f2d041c,27,2022-02-12_13h47.56.824,lexical_decision_task_DD_L2,2021.2.3,Linux aarch64,60.24822268,,,,,,,,,,0.9122,1,,,,,,,,,,,,,,,0,-0.322021484,-0.305685764,1,0,0,0.9122,button_left_main,-0.322021484,-0.305685764,1,0,0,,0,65,65,110,1,CRUNK,LB,old,z,./images/CRUNKLB.png,,,,,,,,,,,,,,,,,,,,,,,,,,,,,,,,,
,,,,,,,,,,,,,,,,,6108288fcf5c9a6e1f2d041c,27,2022-02-12_13h47.56.824,lexical_decision_task_DD_L2,2021.2.3,Linux aarch64,60.24822268,,,,,,,,,,0.895,1,,,,,,,,,,,,,,,0,-0.317871094,-0.308940972,1,0,0,0.895,button_left_main,-0.317871094,-0.308940972,1,0,0,,0,66,66,112,1,MYING,HB,old,z,./images/MYINGHB.png,,,,,,,,,,,,,,,,,,,,,,,,,,,,,,,,,
,,,,,,,,,,,,,,,,,6108288fcf5c9a6e1f2d041c,27,2022-02-12_13h47.56.824,lexical_decision_task_DD_L2,2021.2.3,Linux aarch64,60.24822268,,,,,,,,,,1.127,1,,,,,,,,,,,,,,,0,-0.308837891,-0.324131944,1,0,0,1.127,button_left_main,-0.308837891,-0.324131944,1,0,0,,0,67,67,157,1,INLER,HB,old,z,./images/INLERHB.png,,,,,,,,,,,,,,,,,,,,,,,,,,,,,,,,,
,,,,,,,,,,,,,,,,,6108288fcf5c9a6e1f2d041c,27,2022-02-12_13h47.56.824,lexical_decision_task_DD_L2,2021.2.3,Linux aarch64,60.24822268,,,,,,,,,,0.8448,1,,,,,,,,,,,,,,,0,-0.322265625,-0.308398438,1,0,0,0.8448,button_left_main,-0.322265625,-0.308398438,1,0,0,,0,68,68,145,1,LAMEL,HB,old,z,./images/LAMELHB.png,,,,,,,,,,,,,,,,,,,,,,,,,,,,,,,,,
,,,,,,,,,,,,,,,,,6108288fcf5c9a6e1f2d041c,27,2022-02-12_13h47.56.824,lexical_decision_task_DD_L2,2021.2.3,Linux aarch64,60.24822268,,,,,,,,,,1.1281,1,,,,,,,,,,,,,,,0,-0.30078125,-0.356684028,1,0,0,1.1281,button_left_main,-0.30078125,-0.356684028,1,0,0,,0,69,69,154,1,THINT,HB,old,z,./images/THINTHB.png,,,,,,,,,,,,,,,,,,,,,,,,,,,,,,,,,
,,,,,,,,,,,,,,,,,6108288fcf5c9a6e1f2d041c,27,2022-02-12_13h47.56.824,lexical_decision_task_DD_L2,2021.2.3,Linux aarch64,60.24822268,,,,,,,,,,0.7615,1,,,,,,,,,,,,,,,0,0.318847656,-0.308940972,1,0,0,0.7615,button_right_main,0.318847656,-0.308940972,1,0,0,,0,70,70,54,1,TRIPOD,HB,old,m,./images/TRIPODHB.png,,,,,,,,,,,,,,,,,,,,,,,,,,,,,,,,,
,,,,,,,,,,,,,,,,,6108288fcf5c9a6e1f2d041c,27,2022-02-12_13h47.56.824,lexical_decision_task_DD_L2,2021.2.3,Linux aarch64,60.24822268,,,,,,,,,,0.9605,1,,,,,,,,,,,,,,,0,-0.301269531,-0.343663194,1,0,0,0.9605,button_left_main,-0.301269531,-0.343663194,1,0,0,,0,71,71,109,1,BURGE,HB,old,z,./images/BURGEHB.png,,,,,,,,,,,,,,,,,,,,,,,,,,,,,,,,,
,,,,,,,,,,,,,,,,,6108288fcf5c9a6e1f2d041c,27,2022-02-12_13h47.56.824,lexical_decision_task_DD_L2,2021.2.3,Linux aarch64,60.24822268,,,,,,,,,,1.0438,1,,,,,,,,,,,,,,,0,-0.314697266,-0.294835069,1,0,0,1.0438,button_left_main,-0.314697266,-0.294835069,1,0,0,,0,72,72,121,1,CEERS,HB,old,z,./images/CEERSHB.png,,,,,,,,,,,,,,,,,,,,,,,,,,,,,,,,,
,,,,,,,,,,,,,,,,,6108288fcf5c9a6e1f2d041c,27,2022-02-12_13h47.56.824,lexical_decision_task_DD_L2,2021.2.3,Linux aarch64,60.24822268,,,,,,,,,,0.8124,1,,,,,,,,,,,,,,,0,-0.311035156,-0.331184896,1,0,0,0.8124,button_left_main,-0.311035156,-0.331184896,1,0,0,,0,73,73,113,1,LINEW,LB,old,z,./images/LINEWLB.png,,,,,,,,,,,,,,,,,,,,,,,,,,,,,,,,,
,,,,,,,,,,,,,,,,,6108288fcf5c9a6e1f2d041c,27,2022-02-12_13h47.56.824,lexical_decision_task_DD_L2,2021.2.3,Linux aarch64,60.24822268,,,,,,,,,,0.8771,1,,,,,,,,,,,,,,,0,-0.303710938,-0.329014757,1,0,0,0.8771,button_left_main,-0.303710938,-0.329014757,1,0,0,,0,74,74,100,1,DRIBS,HB,old,z,./images/DRIBSHB.png,,,,,,,,,,,,,,,,,,,,,,,,,,,,,,,,,
,,,,,,,,,,,,,,,,,6108288fcf5c9a6e1f2d041c,27,2022-02-12_13h47.56.824,lexical_decision_task_DD_L2,2021.2.3,Linux aarch64,60.24822268,,,,,,,,,,0.7281,1,,,,,,,,,,,,,,,0,0.309326172,-0.30297309,1,0,0,0.7281,button_right_main,0.309326172,-0.30297309,1,0,0,,0,75,75,13,1,MOTOR,LB,old,m,./images/MOTORLB.png,,,,,,,,,,,,,,,,,,,,,,,,,,,,,,,,,
,,,,,,,,,,,,,,,,,6108288fcf5c9a6e1f2d041c,27,2022-02-12_13h47.56.824,lexical_decision_task_DD_L2,2021.2.3,Linux aarch64,60.24822268,,,,,,,,,,0.9445,1,,,,,,,,,,,,,,,0,-0.31640625,-0.313823785,1,0,0,0.9445,button_left_main,-0.31640625,-0.313823785,1,0,0,,0,76,76,165,1,TROWN,C,old,z,./images/TROWN.png,,,,,,,,,,,,,,,,,,,,,,,,,,,,,,,,,
,,,,,,,,,,,,,,,,,6108288fcf5c9a6e1f2d041c,27,2022-02-12_13h47.56.824,lexical_decision_task_DD_L2,2021.2.3,Linux aarch64,60.24822268,,,,,,,,,,0.697,1,,,,,,,,,,,,,,,0,0.327880859,-0.303515625,1,0,0,0.697,button_right_main,0.327880859,-0.303515625,1,0,0,,0,77,77,74,1,CEMENT,C,old,m,./images/CEMENT.png,,,,,,,,,,,,,,,,,,,,,,,,,,,,,,,,,
,,,,,,,,,,,,,,,,,6108288fcf5c9a6e1f2d041c,27,2022-02-12_13h47.56.824,lexical_decision_task_DD_L2,2021.2.3,Linux aarch64,60.24822268,,,,,,,,,,0.5793,1,,,,,,,,,,,,,,,0,0.330078125,-0.325759549,1,0,0,0.5793,button_right_main,0.330078125,-0.325759549,1,0,0,,0,78,78,14,1,PICKLE,C,old,m,./images/PICKLE.png,,,,,,,,,,,,,,,,,,,,,,,,,,,,,,,,,
,,,,,,,,,,,,,,,,,6108288fcf5c9a6e1f2d041c,27,2022-02-12_13h47.56.824,lexical_decision_task_DD_L2,2021.2.3,Linux aarch64,60.24822268,,,,,,,,,,0.763,1,,,,,,,,,,,,,,,0,-0.360595703,-0.306228299,1,0,0,0.763,button_left_main,-0.360595703,-0.306228299,1,0,0,,0,79,79,148,1,JOMS,HB,old,z,./images/JOMSHB.png,,,,,,,,,,,,,,,,,,,,,,,,,,,,,,,,,
,,,,,,,,,,,,,,,,,6108288fcf5c9a6e1f2d041c,27,2022-02-12_13h47.56.824,lexical_decision_task_DD_L2,2021.2.3,Linux aarch64,60.24822268,,,,,,,,,,0.8789,1,,,,,,,,,,,,,,,0,-0.318603516,-0.337695313,1,0,0,0.8789,button_left_main,-0.318603516,-0.337695313,1,0,0,,0,80,80,159,1,CUDDY,C,old,z,./images/CUDDY.png,,,,,,,,,,,,,,,,,,,,,,,,,,,,,,,,,
,,,,,,,,,,,,,,,,,6108288fcf5c9a6e1f2d041c,27,2022-02-12_13h47.56.824,lexical_decision_task_DD_L2,2021.2.3,Linux aarch64,60.24822268,,,,,,,,,,1.1277,1,,,,,,,,,,,,,,,0,-0.313232422,-0.307313368,1,0,0,1.1277,button_left_main,-0.313232422,-0.307313368,1,0,0,,0,81,81,166,1,SHORY,HB,old,z,./images/SHORYHB.png,,,,,,,,,,,,,,,,,,,,,,,,,,,,,,,,,
,,,,,,,,,,,,,,,,,6108288fcf5c9a6e1f2d041c,27,2022-02-12_13h47.56.824,lexical_decision_task_DD_L2,2021.2.3,Linux aarch64,60.24822268,,,,,,,,,,0.6803,1,,,,,,,,,,,,,,,0,0.301513672,-0.336067708,1,0,0,0.6803,button_right_main,0.301513672,-0.336067708,1,0,0,,0,82,82,25,1,WRIST,LB,old,m,./images/WRISTLB.png,,,,,,,,,,,,,,,,,,,,,,,,,,,,,,,,,
,,,,,,,,,,,,,,,,,6108288fcf5c9a6e1f2d041c,27,2022-02-12_13h47.56.824,lexical_decision_task_DD_L2,2021.2.3,Linux aarch64,60.24822268,,,,,,,,,,0.5464,1,,,,,,,,,,,,,,,0,0.324462891,-0.325759549,1,0,0,0.5464,button_right_main,0.144775391,-0.404427083,1,0,0,,0,83,83,17,1,SKIING,C,old,m,./images/SKIING.png,break_done_button,,,,,,,,,,,,,,,,,,,,,,,,,,,,,,,,
,,,,,,,,,,,,,,,,,6108288fcf5c9a6e1f2d041c,27,2022-02-12_13h47.56.824,lexical_decision_task_DD_L2,2021.2.3,Linux aarch64,60.24822268,,,,,,,,,,0.6446,1,,,,,,,,,,,,,,,0,0.327880859,-0.301345486,1,0,0,0.6446,button_right_main,0.327880859,-0.301345486,1,0,0,,0,84,84,51,1,ONION,HB,old,m,./images/ONIONHB.png,,,,,,,,,,,,,,,,,,,,,,,,,,,,,,,,,
,,,,,,,,,,,,,,,,,6108288fcf5c9a6e1f2d041c,27,2022-02-12_13h47.56.824,lexical_decision_task_DD_L2,2021.2.3,Linux aarch64,60.24822268,,,,,,,,,,0.7781,1,,,,,,,,,,,,,,,0,0.314208984,-0.30297309,1,0,0,0.7781,button_right_main,0.314208984,-0.30297309,1,0,0,,0,85,85,77,1,COUCH,C,old,m,./images/COUCH.png,,,,,,,,,,,,,,,,,,,,,,,,,,,,,,,,,
,,,,,,,,,,,,,,,,,6108288fcf5c9a6e1f2d041c,27,2022-02-12_13h47.56.824,lexical_decision_task_DD_L2,2021.2.3,Linux aarch64,60.24822268,,,,,,,,,,0.6819,1,,,,,,,,,,,,,,,0,-0.328857422,-0.330642361,1,0,0,0.6819,button_left_main,-0.328857422,-0.330642361,1,0,0,,0,86,86,122,1,BLOOT,LB,old,z,./images/BLOOTLB.png,,,,,,,,,,,,,,,,,,,,,,,,,,,,,,,,,
,,,,,,,,,,,,,,,,,6108288fcf5c9a6e1f2d041c,27,2022-02-12_13h47.56.824,lexical_decision_task_DD_L2,2021.2.3,Linux aarch64,60.24822268,,,,,,,,,,0.6794,1,,,,,,,,,,,,,,,0,0.320068359,-0.323046875,1,0,0,0.6794,button_right_main,0.320068359,-0.323046875,1,0,0,,0,87,87,28,1,FALCON,LB,old,m,./images/FALCONLB.png,,,,,,,,,,,,,,,,,,,,,,,,,,,,,,,,,
,,,,,,,,,,,,,,,,,6108288fcf5c9a6e1f2d041c,27,2022-02-12_13h47.56.824,lexical_decision_task_DD_L2,2021.2.3,Linux aarch64,60.24822268,,,,,,,,,,0.7281,1,,,,,,,,,,,,,,,0,-0.340576172,-0.314366319,1,0,0,0.7281,button_left_main,-0.340576172,-0.314366319,1,0,0,,0,88,88,151,1,TINKY,HB,old,z,./images/TINKYHB.png,,,,,,,,,,,,,,,,,,,,,,,,,,,,,,,,,
,,,,,,,,,,,,,,,,,6108288fcf5c9a6e1f2d041c,27,2022-02-12_13h47.56.824,lexical_decision_task_DD_L2,2021.2.3,Linux aarch64,60.24822268,,,,,,,,,,0.8941,1,,,,,,,,,,,,,,,0,-0.344482422,-0.306228299,1,0,0,0.8941,button_left_main,-0.344482422,-0.306228299,1,0,0,,0,89,89,153,1,CLUPS,C,old,z,./images/CLUPS.png,,,,,,,,,,,,,,,,,,,,,,,,,,,,,,,,,
,,,,,,,,,,,,,,,,,6108288fcf5c9a6e1f2d041c,27,2022-02-12_13h47.56.824,lexical_decision_task_DD_L2,2021.2.3,Linux aarch64,60.24822268,,,,,,,,,,0.8952,1,,,,,,,,,,,,,,,0,-0.3515625,-0.32358941,1,0,0,0.8952,button_left_main,-0.3515625,-0.32358941,1,0,0,,0,90,90,115,1,MAWNS,HB,old,z,./images/MAWNSHB.png,,,,,,,,,,,,,,,,,,,,,,,,,,,,,,,,,
,,,,,,,,,,,,,,,,,6108288fcf5c9a6e1f2d041c,27,2022-02-12_13h47.56.824,lexical_decision_task_DD_L2,2021.2.3,Linux aarch64,60.24822268,,,,,,,,,,0.6449,1,,,,,,,,,,,,,,,0,0.334716797,-0.313823785,1,0,0,0.6449,button_right_main,0.334716797,-0.313823785,1,0,0,,0,91,91,4,1,MUSCLE,LB,old,m,./images/MUSCLELB.png,,,,,,,,,,,,,,,,,,,,,,,,,,,,,,,,,
,,,,,,,,,,,,,,,,,6108288fcf5c9a6e1f2d041c,27,2022-02-12_13h47.56.824,lexical_decision_task_DD_L2,2021.2.3,Linux aarch64,60.24822268,,,,,,,,,,0.6947,1,,,,,,,,,,,,,,,0,0.336425781,-0.297005208,1,0,0,0.6947,button_right_main,0.336425781,-0.297005208,1,0,0,,0,92,92,41,1,STRING,C,old,m,./images/STRING.png,,,,,,,,,,,,,,,,,,,,,,,,,,,,,,,,,
,,,,,,,,,,,,,,,,,6108288fcf5c9a6e1f2d041c,27,2022-02-12_13h47.56.824,lexical_decision_task_DD_L2,2021.2.3,Linux aarch64,60.24822268,,,,,,,,,,0.6953,1,,,,,,,,,,,,,,,0,0.326904297,-0.318706597,1,0,0,0.6953,button_right_main,0.326904297,-0.318706597,1,0,0,,0,93,93,57,1,MOOSE,HB,old,m,./images/MOOSEHB.png,,,,,,,,,,,,,,,,,,,,,,,,,,,,,,,,,
,,,,,,,,,,,,,,,,,6108288fcf5c9a6e1f2d041c,27,2022-02-12_13h47.56.824,lexical_decision_task_DD_L2,2021.2.3,Linux aarch64,60.24822268,,,,,,,,,,0.7783,1,,,,,,,,,,,,,,,0,-0.344482422,-0.313823785,1,0,0,0.7783,button_left_main,-0.344482422,-0.313823785,1,0,0,,0,94,94,101,1,GLEET,LB,old,z,./images/GLEETLB.png,,,,,,,,,,,,,,,,,,,,,,,,,,,,,,,,,
,,,,,,,,,,,,,,,,,6108288fcf5c9a6e1f2d041c,27,2022-02-12_13h47.56.824,lexical_decision_task_DD_L2,2021.2.3,Linux aarch64,60.24822268,,,,,,,,,,0.8442,1,,,,,,,,,,,,,,,0,-0.311767578,-0.329557292,1,0,0,0.8442,button_left_main,-0.311767578,-0.329557292,1,0,0,,0,95,95,164,1,SGREW,LB,old,z,./images/SGREWLB.png,,,,,,,,,,,,,,,,,,,,,,,,,,,,,,,,,
,,,,,,,,,,,,,,,,,6108288fcf5c9a6e1f2d041c,27,2022-02-12_13h47.56.824,lexical_decision_task_DD_L2,2021.2.3,Linux aarch64,60.24822268,,,,,,,,,,0.6461,1,,,,,,,,,,,,,,,0,0.343505859,-0.317078993,1,0,0,0.6461,button_right_main,0.343505859,-0.317078993,1,0,0,,0,96,96,26,1,SMOKER,C,old,m,./images/SMOKER.png,,,,,,,,,,,,,,,,,,,,,,,,,,,,,,,,,
,,,,,,,,,,,,,,,,,6108288fcf5c9a6e1f2d041c,27,2022-02-12_13h47.56.824,lexical_decision_task_DD_L2,2021.2.3,Linux aarch64,60.24822268,,,,,,,,,,0.8951,1,,,,,,,,,,,,,,,0,0.344970703,-0.305143229,1,0,0,0.8951,button_right_main,0.344970703,-0.305143229,1,0,0,,0,97,97,20,1,CRADLE,C,old,m,./images/CRADLE.png,,,,,,,,,,,,,,,,,,,,,,,,,,,,,,,,,
,,,,,,,,,,,,,,,,,6108288fcf5c9a6e1f2d041c,27,2022-02-12_13h47.56.824,lexical_decision_task_DD_L2,2021.2.3,Linux aarch64,60.24822268,,,,,,,,,,0.6624,1,,,,,,,,,,,,,,,0,0.322753906,-0.341493056,1,0,0,0.6624,button_right_main,0.322753906,-0.341493056,1,0,0,,0,98,98,22,1,MELON,LB,old,m,./images/MELONLB.png,,,,,,,,,,,,,,,,,,,,,,,,,,,,,,,,,
,,,,,,,,,,,,,,,,,6108288fcf5c9a6e1f2d041c,27,2022-02-12_13h47.56.824,lexical_decision_task_DD_L2,2021.2.3,Linux aarch64,60.24822268,,,,,,,,,,0.5964,1,,,,,,,,,,,,,,,0,0.315429688,-0.353971354,1,0,0,0.5964,button_right_main,0.315429688,-0.353971354,1,0,0,,0,99,99,46,1,PEARL,LB,old,m,./images/PEARLLB.png,,,,,,,,,,,,,,,,,,,,,,,,,,,,,,,,,
,,,,,,,,,,,,,,,,,6108288fcf5c9a6e1f2d041c,27,2022-02-12_13h47.56.824,lexical_decision_task_DD_L2,2021.2.3,Linux aarch64,60.24822268,,,,,,,,,,0.6954,1,,,,,,,,,,,,,,,0,0.306640625,-0.38218316,1,0,0,0.6954,button_right_main,0.306640625,-0.38218316,1,0,0,,0,100,100,9,1,RHINO,HB,old,m,./images/RHINOHB.png,,,,,,,,,,,,,,,,,,,,,,,,,,,,,,,,,
,,,,,,,,,,,,,,,,,6108288fcf5c9a6e1f2d041c,27,2022-02-12_13h47.56.824,lexical_decision_task_DD_L2,2021.2.3,Linux aarch64,60.24822268,,,,,,,,,,0.6141,1,,,,,,,,,,,,,,,0,-0.334472656,-0.324131944,1,0,0,0.6141,button_left_main,-0.334472656,-0.324131944,1,0,0,,0,101,101,90,1,NEAST,C,old,z,./images/NEAST.png,,,,,,,,,,,,,,,,,,,,,,,,,,,,,,,,,
,,,,,,,,,,,,,,,,,6108288fcf5c9a6e1f2d041c,27,2022-02-12_13h47.56.824,lexical_decision_task_DD_L2,2021.2.3,Linux aarch64,60.24822268,,,,,,,,,,0.6777,1,,,,,,,,,,,,,,,0,-0.354248047,-0.29375,1,0,0,0.6777,button_left_main,-0.354248047,-0.29375,1,0,0,,0,102,102,135,1,JOODY,C,old,z,./images/JOODY.png,,,,,,,,,,,,,,,,,,,,,,,,,,,,,,,,,
,,,,,,,,,,,,,,,,,6108288fcf5c9a6e1f2d041c,27,2022-02-12_13h47.56.824,lexical_decision_task_DD_L2,2021.2.3,Linux aarch64,60.24822268,,,,,,,,,,0.9621,1,,,,,,,,,,,,,,,0,-0.316894531,-0.298090278,1,0,0,0.9621,button_left_main,-0.316894531,-0.298090278,1,0,0,,0,103,103,106,1,CLUMS,HB,old,z,./images/CLUMSHB.png,,,,,,,,,,,,,,,,,,,,,,,,,,,,,,,,,
,,,,,,,,,,,,,,,,,6108288fcf5c9a6e1f2d041c,27,2022-02-12_13h47.56.824,lexical_decision_task_DD_L2,2021.2.3,Linux aarch64,60.24822268,,,,,,,,,,0.9819,1,,,,,,,,,,,,,,,0,-0.353271484,-0.327929688,1,0,0,0.9819,button_left_main,-0.353271484,-0.327929688,1,0,0,,0,104,104,111,1,HOSSE,C,old,z,./images/HOSSE.png,,,,,,,,,,,,,,,,,,,,,,,,,,,,,,,,,
,,,,,,,,,,,,,,,,,6108288fcf5c9a6e1f2d041c,27,2022-02-12_13h47.56.824,lexical_decision_task_DD_L2,2021.2.3,Linux aarch64,60.24822268,,,,,,,,,,0.7124,1,,,,,,,,,,,,,,,0,0.345214844,-0.311111111,1,0,0,0.7124,button_right_main,0.345214844,-0.311111111,1,0,0,,0,105,105,55,1,MUFFIN,LB,old,m,./images/MUFFINLB.png,,,,,,,,,,,,,,,,,,,,,,,,,,,,,,,,,
,,,,,,,,,,,,,,,,,6108288fcf5c9a6e1f2d041c,27,2022-02-12_13h47.56.824,lexical_decision_task_DD_L2,2021.2.3,Linux aarch64,60.24822268,,,,,,,,,,0.5957,1,,,,,,,,,,,,,,,0,0.350097656,-0.301888021,1,0,0,0.5957,button_right_main,0.350097656,-0.301888021,1,0,0,,0,106,106,48,1,SPORT,HB,old,m,./images/SPORTHB.png,,,,,,,,,,,,,,,,,,,,,,,,,,,,,,,,,
,,,,,,,,,,,,,,,,,6108288fcf5c9a6e1f2d041c,27,2022-02-12_13h47.56.824,lexical_decision_task_DD_L2,2021.2.3,Linux aarch64,60.24822268,,,,,,,,,,0.7133,1,,,,,,,,,,,,,,,0,-0.35546875,-0.314908854,1,0,0,0.7133,button_left_main,-0.35546875,-0.314908854,1,0,0,,0,107,107,104,1,GITTY,LB,old,z,./images/GITTYLB.png,,,,,,,,,,,,,,,,,,,,,,,,,,,,,,,,,
,,,,,,,,,,,,,,,,,6108288fcf5c9a6e1f2d041c,27,2022-02-12_13h47.56.824,lexical_decision_task_DD_L2,2021.2.3,Linux aarch64,60.24822268,,,,,,,,,,0.5297,1,,,,,,,,,,,,,,,0,0.369628906,-0.295920139,1,0,0,0.5297,button_right_main,0.369628906,-0.295920139,1,0,0,,0,108,108,5,1,PASTA,C,old,m,./images/PASTA.png,,,,,,,,,,,,,,,,,,,,,,,,,,,,,,,,,
,,,,,,,,,,,,,,,,,6108288fcf5c9a6e1f2d041c,27,2022-02-12_13h47.56.824,lexical_decision_task_DD_L2,2021.2.3,Linux aarch64,60.24822268,,,,,,,,,,0.6464,1,,,,,,,,,,,,,,,0,0.321777344,-0.324131944,1,0,0,0.6464,button_right_main,0.321777344,-0.324131944,1,0,0,,0,109,109,71,1,PIMPLE,C,old,m,./images/PIMPLE.png,,,,,,,,,,,,,,,,,,,,,,,,,,,,,,,,,
,,,,,,,,,,,,,,,,,6108288fcf5c9a6e1f2d041c,27,2022-02-12_13h47.56.824,lexical_decision_task_DD_L2,2021.2.3,Linux aarch64,60.24822268,,,,,,,,,,0.6287,1,,,,,,,,,,,,,,,0,-0.380371094,-0.328472222,1,0,0,0.6287,button_left_main,-0.380371094,-0.328472222,1,0,0,,0,110,110,117,1,STEEG,C,old,z,./images/STEEG.png,,,,,,,,,,,,,,,,,,,,,,,,,,,,,,,,,
,,,,,,,,,,,,,,,,,6108288fcf5c9a6e1f2d041c,27,2022-02-12_13h47.56.824,lexical_decision_task_DD_L2,2021.2.3,Linux aarch64,60.24822268,,,,,,,,,,0.7607,1,,,,,,,,,,,,,,,0,-0.353271484,-0.336610243,1,0,0,0.7607,button_left_main,-0.353271484,-0.336610243,1,0,0,,0,111,111,105,1,MOKER,C,old,z,./images/MOKER.png,,,,,,,,,,,,,,,,,,,,,,,,,,,,,,,,,
,,,,,,,,,,,,,,,,,6108288fcf5c9a6e1f2d041c,27,2022-02-12_13h47.56.824,lexical_decision_task_DD_L2,2021.2.3,Linux aarch64,60.24822268,,,,,,,,,,0.661,1,,,,,,,,,,,,,,,0,-0.345214844,-0.320334201,1,0,0,0.661,button_left_main,-0.345214844,-0.320334201,1,0,0,,0,112,112,84,1,HAXES,C,old,z,./images/HAXES.png,,,,,,,,,,,,,,,,,,,,,,,,,,,,,,,,,
,,,,,,,,,,,,,,,,,6108288fcf5c9a6e1f2d041c,27,2022-02-12_13h47.56.824,lexical_decision_task_DD_L2,2021.2.3,Linux aarch64,60.24822268,,,,,,,,,,0.712,1,,,,,,,,,,,,,,,0,-0.346191406,-0.314366319,1,0,0,0.712,button_left_main,-0.346191406,-0.314366319,1,0,0,,0,113,113,161,1,BLAPS,LB,old,z,./images/BLAPSLB.png,,,,,,,,,,,,,,,,,,,,,,,,,,,,,,,,,
,,,,,,,,,,,,,,,,,6108288fcf5c9a6e1f2d041c,27,2022-02-12_13h47.56.824,lexical_decision_task_DD_L2,2021.2.3,Linux aarch64,60.24822268,,,,,,,,,,0.6964,1,,,,,,,,,,,,,,,0,0.344726563,-0.34203559,1,0,0,0.6964,button_right_main,0.344726563,-0.34203559,1,0,0,,0,114,114,23,1,WALRUS,C,old,m,./images/WALRUS.png,,,,,,,,,,,,,,,,,,,,,,,,,,,,,,,,,
,,,,,,,,,,,,,,,,,6108288fcf5c9a6e1f2d041c,27,2022-02-12_13h47.56.824,lexical_decision_task_DD_L2,2021.2.3,Linux aarch64,60.24822268,,,,,,,,,,0.767,1,,,,,,,,,,,,,,,0,-0.372802734,-0.309483507,1,0,0,0.767,button_left_main,-0.372802734,-0.309483507,1,0,0,,0,115,115,146,1,MOOST,LB,old,z,./images/MOOSTLB.png,,,,,,,,,,,,,,,,,,,,,,,,,,,,,,,,,
,,,,,,,,,,,,,,,,,6108288fcf5c9a6e1f2d041c,27,2022-02-12_13h47.56.824,lexical_decision_task_DD_L2,2021.2.3,Linux aarch64,60.24822268,,,,,,,,,,0.7789,1,,,,,,,,,,,,,,,0,0.340332031,-0.333355035,1,0,0,0.7789,button_right_main,0.340332031,-0.333355035,1,0,0,,0,116,116,76,1,INFANT,LB,old,m,./images/INFANTLB.png,,,,,,,,,,,,,,,,,,,,,,,,,,,,,,,,,
,,,,,,,,,,,,,,,,,6108288fcf5c9a6e1f2d041c,27,2022-02-12_13h47.56.824,lexical_decision_task_DD_L2,2021.2.3,Linux aarch64,60.24822268,,,,,,,,,,0.6617,1,,,,,,,,,,,,,,,0,0.351806641,-0.321419271,1,0,0,0.6617,button_right_main,0.351806641,-0.321419271,1,0,0,,0,117,117,2,1,BEARD,C,old,m,./images/BEARD.png,,,,,,,,,,,,,,,,,,,,,,,,,,,,,,,,,
,,,,,,,,,,,,,,,,,6108288fcf5c9a6e1f2d041c,27,2022-02-12_13h47.56.824,lexical_decision_task_DD_L2,2021.2.3,Linux aarch64,60.24822268,,,,,,,,,,0.7282,1,,,,,,,,,,,,,,,0,0.343994141,-0.325759549,1,0,0,0.7282,button_right_main,0.343994141,-0.325759549,1,0,0,,0,118,118,59,1,BURIAL,C,old,m,./images/BURIAL.png,,,,,,,,,,,,,,,,,,,,,,,,,,,,,,,,,
,,,,,,,,,,,,,,,,,6108288fcf5c9a6e1f2d041c,27,2022-02-12_13h47.56.824,lexical_decision_task_DD_L2,2021.2.3,Linux aarch64,60.24822268,,,,,,,,,,0.6949,1,,,,,,,,,,,,,,,0,-0.373535156,-0.312196181,1,0,0,0.6949,button_left_main,-0.373535156,-0.312196181,1,0,0,,0,119,119,103,1,FLORT,HB,old,z,./images/FLORTHB.png,,,,,,,,,,,,,,,,,,,,,,,,,,,,,,,,,
,,,,,,,,,,,,,,,,,6108288fcf5c9a6e1f2d041c,27,2022-02-12_13h47.56.824,lexical_decision_task_DD_L2,2021.2.3,Linux aarch64,60.24822268,,,,,,,,,,0.7443,1,,,,,,,,,,,,,,,0,-0.361816406,-0.360481771,1,0,0,0.7443,button_left_main,-0.361816406,-0.360481771,1,0,0,,0,120,120,124,1,TUNCH,HB,old,z,./images/TUNCHHB.png,,,,,,,,,,,,,,,,,,,,,,,,,,,,,,,,,
,,,,,,,,,,,,,,,,,6108288fcf5c9a6e1f2d041c,27,2022-02-12_13h47.56.824,lexical_decision_task_DD_L2,2021.2.3,Linux aarch64,60.24822268,,,,,,,,,,0.7121,1,,,,,,,,,,,,,,,0,0.346435547,-0.335525174,1,0,0,0.7121,button_right_main,0.346435547,-0.335525174,1,0,0,,0,121,121,78,1,LITTER,HB,old,m,./images/LITTERHB.png,,,,,,,,,,,,,,,,,,,,,,,,,,,,,,,,,
,,,,,,,,,,,,,,,,,6108288fcf5c9a6e1f2d041c,27,2022-02-12_13h47.56.824,lexical_decision_task_DD_L2,2021.2.3,Linux aarch64,60.24822268,,,,,,,,,,0.7946,0,,,,,,,,,,,,,,,0,-0.374267578,-0.333897569,1,0,0,0.7946,button_left_main,-0.374267578,-0.333897569,1,0,0,,0,122,122,58,1,BABOON,LB,old,m,./images/BABOONLB.png,,,,,,,,,,,,,,,,,,,,,,,,,,,,,,,,,
,,,,,,,,,,,,,,,,,6108288fcf5c9a6e1f2d041c,27,2022-02-12_13h47.56.824,lexical_decision_task_DD_L2,2021.2.3,Linux aarch64,60.24822268,,,,,,,,,,0.8444,0,,,,,,,,,,,,,,,0,-0.393554688,-0.299717882,1,0,0,0.8444,button_left_main,-0.393554688,-0.299717882,1,0,0,,0,123,123,72,1,NOOSE,HB,old,m,./images/NOOSEHB.png,,,,,,,,,,,,,,,,,,,,,,,,,,,,,,,,,
,,,,,,,,,,,,,,,,,6108288fcf5c9a6e1f2d041c,27,2022-02-12_13h47.56.824,lexical_decision_task_DD_L2,2021.2.3,Linux aarch64,60.24822268,,,,,,,,,,0.7164,1,,,,,,,,,,,,,,,0,0.348388672,-0.32250434,1,0,0,0.7164,button_right_main,0.348388672,-0.32250434,1,0,0,,0,124,124,0,1,TOMATO,HB,old,m,./images/TOMATOHB.png,,,,,,,,,,,,,,,,,,,,,,,,,,,,,,,,,
,,,,,,,,,,,,,,,,,6108288fcf5c9a6e1f2d041c,27,2022-02-12_13h47.56.824,lexical_decision_task_DD_L2,2021.2.3,Linux aarch64,60.24822268,,,,,,,,,,0.6796,1,,,,,,,,,,,,,,,0,0.339111328,-0.315993924,1,0,0,0.6796,button_right_main,0.129150391,-0.397916667,1,0,0,,0,125,125,60,1,TWINS,HB,old,m,./images/TWINSHB.png,break_done_button,,,,,,,,,,,,,,,,,,,,,,,,,,,,,,,,
,,,,,,,,,,,,,,,,,6108288fcf5c9a6e1f2d041c,27,2022-02-12_13h47.56.824,lexical_decision_task_DD_L2,2021.2.3,Linux aarch64,60.24822268,,,,,,,,,,0.6621,1,,,,,,,,,,,,,,,0,-0.384277344,-0.307855903,1,0,0,0.6621,button_left_main,-0.384277344,-0.307855903,1,0,0,,0,126,126,137,1,JOOST,LB,old,z,./images/JOOSTLB.png,,,,,,,,,,,,,,,,,,,,,,,,,,,,,,,,,
,,,,,,,,,,,,,,,,,6108288fcf5c9a6e1f2d041c,27,2022-02-12_13h47.56.824,lexical_decision_task_DD_L2,2021.2.3,Linux aarch64,60.24822268,,,,,,,,,,0.5639,1,,,,,,,,,,,,,,,0,0.336669922,-0.331727431,1,0,0,0.5639,button_right_main,0.336669922,-0.331727431,1,0,0,,0,127,127,37,1,BIRTH,LB,old,m,./images/BIRTHLB.png,,,,,,,,,,,,,,,,,,,,,,,,,,,,,,,,,
,,,,,,,,,,,,,,,,,6108288fcf5c9a6e1f2d041c,27,2022-02-12_13h47.56.824,lexical_decision_task_DD_L2,2021.2.3,Linux aarch64,60.24822268,,,,,,,,,,0.8464,0,,,,,,,,,,,,,,,0,-0.379150391,-0.287239583,1,0,0,0.8464,button_left_main,-0.379150391,-0.287239583,1,0,0,,0,128,128,33,1,MAGGOT,HB,old,m,./images/MAGGOTHB.png,,,,,,,,,,,,,,,,,,,,,,,,,,,,,,,,,
,,,,,,,,,,,,,,,,,6108288fcf5c9a6e1f2d041c,27,2022-02-12_13h47.56.824,lexical_decision_task_DD_L2,2021.2.3,Linux aarch64,60.24822268,,,,,,,,,,0.6804,1,,,,,,,,,,,,,,,0,0.351318359,-0.270963542,1,0,0,0.6804,button_right_main,0.351318359,-0.270963542,1,0,0,,0,129,129,6,1,SQUARE,HB,old,m,./images/SQUAREHB.png,,,,,,,,,,,,,,,,,,,,,,,,,,,,,,,,,
,,,,,,,,,,,,,,,,,6108288fcf5c9a6e1f2d041c,27,2022-02-12_13h47.56.824,lexical_decision_task_DD_L2,2021.2.3,Linux aarch64,60.24822268,,,,,,,,,,1.0455,1,,,,,,,,,,,,,,,0,-0.314208984,-0.326302083,1,0,0,1.0455,button_left_main,-0.314208984,-0.326302083,1,0,0,,0,130,130,136,1,WERVE,HB,old,z,./images/WERVEHB.png,,,,,,,,,,,,,,,,,,,,,,,,,,,,,,,,,
,,,,,,,,,,,,,,,,,6108288fcf5c9a6e1f2d041c,27,2022-02-12_13h47.56.824,lexical_decision_task_DD_L2,2021.2.3,Linux aarch64,60.24822268,,,,,,,,,,0.5971,1,,,,,,,,,,,,,,,0,0.353271484,-0.310568576,1,0,0,0.5971,button_right_main,0.353271484,-0.310568576,1,0,0,,0,131,131,52,1,BANNER,LB,old,m,./images/BANNERLB.png,,,,,,,,,,,,,,,,,,,,,,,,,,,,,,,,,
,,,,,,,,,,,,,,,,,6108288fcf5c9a6e1f2d041c,27,2022-02-12_13h47.56.824,lexical_decision_task_DD_L2,2021.2.3,Linux aarch64,60.24822268,,,,,,,,,,0.6456,1,,,,,,,,,,,,,,,0,-0.358398438,-0.300260417,1,0,0,0.6456,button_left_main,-0.358398438,-0.300260417,1,0,0,,0,132,132,125,1,MOOKY,LB,old,z,./images/MOOKYLB.png,,,,,,,,,,,,,,,,,,,,,,,,,,,,,,,,,
,,,,,,,,,,,,,,,,,6108288fcf5c9a6e1f2d041c,27,2022-02-12_13h47.56.824,lexical_decision_task_DD_L2,2021.2.3,Linux aarch64,60.24822268,,,,,,,,,,0.6491,1,,,,,,,,,,,,,,,0,0.329589844,-0.319791667,1,0,0,0.6491,button_right_main,0.329589844,-0.319791667,1,0,0,,0,133,133,65,1,FARMER,C,old,m,./images/FARMER.png,,,,,,,,,,,,,,,,,,,,,,,,,,,,,,,,,
,,,,,,,,,,,,,,,,,6108288fcf5c9a6e1f2d041c,27,2022-02-12_13h47.56.824,lexical_decision_task_DD_L2,2021.2.3,Linux aarch64,60.24822268,,,,,,,,,,0.7122,1,,,,,,,,,,,,,,,0,0.298828125,-0.355056424,1,0,0,0.7122,button_right_main,0.298828125,-0.355056424,1,0,0,,0,134,134,44,1,LIZARD,C,old,m,./images/LIZARD.png,,,,,,,,,,,,,,,,,,,,,,,,,,,,,,,,,
,,,,,,,,,,,,,,,,,6108288fcf5c9a6e1f2d041c,27,2022-02-12_13h47.56.824,lexical_decision_task_DD_L2,2021.2.3,Linux aarch64,60.24822268,,,,,,,,,,0.5789,1,,,,,,,,,,,,,,,0,0.323730469,-0.310026042,1,0,0,0.5789,button_right_main,0.323730469,-0.310026042,1,0,0,,0,135,135,47,1,BERRY,C,old,m,./images/BERRY.png,,,,,,,,,,,,,,,,,,,,,,,,,,,,,,,,,
,,,,,,,,,,,,,,,,,6108288fcf5c9a6e1f2d041c,27,2022-02-12_13h47.56.824,lexical_decision_task_DD_L2,2021.2.3,Linux aarch64,60.24822268,,,,,,,,,,0.6622,1,,,,,,,,,,,,,,,0,0.314697266,-0.340407986,1,0,0,0.6622,button_right_main,0.314697266,-0.340407986,1,0,0,,0,136,136,64,1,JELLY,LB,old,m,./images/JELLYLB.png,,,,,,,,,,,,,,,,,,,,,,,,,,,,,,,,,
,,,,,,,,,,,,,,,,,6108288fcf5c9a6e1f2d041c,27,2022-02-12_13h47.56.824,lexical_decision_task_DD_L2,2021.2.3,Linux aarch64,60.24822268,,,,,,,,,,0.6842,1,,,,,,,,,,,,,,,0,0.317382813,-0.325217014,1,0,0,0.6842,button_right_main,0.317382813,-0.325217014,1,0,0,,0,137,137,18,1,JAGUAR,HB,old,m,./images/JAGUARHB.png,,,,,,,,,,,,,,,,,,,,,,,,,,,,,,,,,
,,,,,,,,,,,,,,,,,6108288fcf5c9a6e1f2d041c,27,2022-02-12_13h47.56.824,lexical_decision_task_DD_L2,2021.2.3,Linux aarch64,60.24822268,,,,,,,,,,0.7615,1,,,,,,,,,,,,,,,0,-0.355712891,-0.314366319,1,0,0,0.7615,button_left_main,-0.355712891,-0.314366319,1,0,0,,0,138,138,143,1,MONGS,LB,old,z,./images/MONGSLB.png,,,,,,,,,,,,,,,,,,,,,,,,,,,,,,,,,
,,,,,,,,,,,,,,,,,6108288fcf5c9a6e1f2d041c,27,2022-02-12_13h47.56.824,lexical_decision_task_DD_L2,2021.2.3,Linux aarch64,60.24822268,,,,,,,,,,0.7558,1,,,,,,,,,,,,,,,0,-0.344238281,-0.317078993,1,0,0,0.7558,button_left_main,-0.344238281,-0.317078993,1,0,0,,0,139,139,152,1,FRAIN,LB,old,z,./images/FRAINLB.png,,,,,,,,,,,,,,,,,,,,,,,,,,,,,,,,,
,,,,,,,,,,,,,,,,,6108288fcf5c9a6e1f2d041c,27,2022-02-12_13h47.56.824,lexical_decision_task_DD_L2,2021.2.3,Linux aarch64,60.24822268,,,,,,,,,,0.8617,1,,,,,,,,,,,,,,,0,-0.34765625,-0.287782118,1,0,0,0.8617,button_left_main,-0.34765625,-0.287782118,1,0,0,,0,140,140,116,1,BALGY,LB,old,z,./images/BALGYLB.png,,,,,,,,,,,,,,,,,,,,,,,,,,,,,,,,,
,,,,,,,,,,,,,,,,,6108288fcf5c9a6e1f2d041c,27,2022-02-12_13h47.56.824,lexical_decision_task_DD_L2,2021.2.3,Linux aarch64,60.24822268,,,,,,,,,,0.8278,1,,,,,,,,,,,,,,,0,-0.354980469,-0.285069444,1,0,0,0.8278,button_left_main,-0.354980469,-0.285069444,1,0,0,,0,141,141,133,1,POWDY,HB,old,z,./images/POWDYHB.png,,,,,,,,,,,,,,,,,,,,,,,,,,,,,,,,,
,,,,,,,,,,,,,,,,,6108288fcf5c9a6e1f2d041c,27,2022-02-12_13h47.56.824,lexical_decision_task_DD_L2,2021.2.3,Linux aarch64,60.24822268,,,,,,,,,,0.7448,1,,,,,,,,,,,,,,,0,0.325439453,-0.326302083,1,0,0,0.7448,button_right_main,0.325439453,-0.326302083,1,0,0,,0,142,142,82,1,SUNSET,LB,old,m,./images/SUNSETLB.png,,,,,,,,,,,,,,,,,,,,,,,,,,,,,,,,,
,,,,,,,,,,,,,,,,,6108288fcf5c9a6e1f2d041c,27,2022-02-12_13h47.56.824,lexical_decision_task_DD_L2,2021.2.3,Linux aarch64,60.24822268,,,,,,,,,,0.9121,1,,,,,,,,,,,,,,,0,-0.325195313,-0.346375868,1,0,0,0.9121,button_left_main,-0.325195313,-0.346375868,1,0,0,,0,143,143,139,1,BLEAR,HB,old,z,./images/BLEARHB.png,,,,,,,,,,,,,,,,,,,,,,,,,,,,,,,,,
,,,,,,,,,,,,,,,,,6108288fcf5c9a6e1f2d041c,27,2022-02-12_13h47.56.824,lexical_decision_task_DD_L2,2021.2.3,Linux aarch64,60.24822268,,,,,,,,,,0.7119,1,,,,,,,,,,,,,,,0,-0.343017578,-0.335525174,1,0,0,0.7119,button_left_main,-0.343017578,-0.335525174,1,0,0,,0,144,144,126,1,GUELS,C,old,z,./images/GUELS.png,,,,,,,,,,,,,,,,,,,,,,,,,,,,,,,,,
,,,,,,,,,,,,,,,,,6108288fcf5c9a6e1f2d041c,27,2022-02-12_13h47.56.824,lexical_decision_task_DD_L2,2021.2.3,Linux aarch64,60.24822268,,,,,,,,,,0.8625,1,,,,,,,,,,,,,,,0,-0.307128906,-0.389778646,1,0,0,0.8625,button_left_main,-0.307128906,-0.389778646,1,0,0,,0,145,145,167,1,ZONET,LB,old,z,./images/ZONETLB.png,,,,,,,,,,,,,,,,,,,,,,,,,,,,,,,,,
,,,,,,,,,,,,,,,,,6108288fcf5c9a6e1f2d041c,27,2022-02-12_13h47.56.824,lexical_decision_task_DD_L2,2021.2.3,Linux aarch64,60.24822268,,,,,,,,,,1.1938,0,,,,,,,,,,,,,,,0,-0.322021484,-0.351801215,1,0,0,1.1938,button_left_main,-0.322021484,-0.351801215,1,0,0,,0,146,146,31,1,QUILL,LB,old,m,./images/QUILLLB.png,,,,,,,,,,,,,,,,,,,,,,,,,,,,,,,,,
,,,,,,,,,,,,,,,,,6108288fcf5c9a6e1f2d041c,27,2022-02-12_13h47.56.824,lexical_decision_task_DD_L2,2021.2.3,Linux aarch64,60.24822268,,,,,,,,,,0.6829,1,,,,,,,,,,,,,,,0,-0.340576172,-0.353971354,1,0,0,0.6829,button_left_main,-0.340576172,-0.353971354,1,0,0,,0,147,147,96,1,KEAMS,C,old,z,./images/KEAMS.png,,,,,,,,,,,,,,,,,,,,,,,,,,,,,,,,,
,,,,,,,,,,,,,,,,,6108288fcf5c9a6e1f2d041c,27,2022-02-12_13h47.56.824,lexical_decision_task_DD_L2,2021.2.3,Linux aarch64,60.24822268,,,,,,,,,,0.6294,1,,,,,,,,,,,,,,,0,-0.356689453,-0.250347222,1,0,0,0.6294,button_left_main,-0.356689453,-0.250347222,1,0,0,,0,148,148,134,1,TROSS,LB,old,z,./images/TROSSLB.png,,,,,,,,,,,,,,,,,,,,,,,,,,,,,,,,,
,,,,,,,,,,,,,,,,,6108288fcf5c9a6e1f2d041c,27,2022-02-12_13h47.56.824,lexical_decision_task_DD_L2,2021.2.3,Linux aarch64,60.24822268,,,,,,,,,,0.5302,1,,,,,,,,,,,,,,,0,0.326416016,-0.321419271,1,0,0,0.5302,button_right_main,0.326416016,-0.321419271,1,0,0,,0,149,149,10,1,BELLY,LB,old,m,./images/BELLYLB.png,,,,,,,,,,,,,,,,,,,,,,,,,,,,,,,,,
,,,,,,,,,,,,,,,,,6108288fcf5c9a6e1f2d041c,27,2022-02-12_13h47.56.824,lexical_decision_task_DD_L2,2021.2.3,Linux aarch64,60.24822268,,,,,,,,,,0.6945,1,,,,,,,,,,,,,,,0,-0.354980469,-0.315451389,1,0,0,0.6945,button_left_main,-0.354980469,-0.315451389,1,0,0,,0,150,150,130,1,CRILL,HB,old,z,./images/CRILLHB.png,,,,,,,,,,,,,,,,,,,,,,,,,,,,,,,,,
,,,,,,,,,,,,,,,,,6108288fcf5c9a6e1f2d041c,27,2022-02-12_13h47.56.824,lexical_decision_task_DD_L2,2021.2.3,Linux aarch64,60.24822268,,,,,,,,,,0.6961,1,,,,,,,,,,,,,,,0,-0.33984375,-0.328472222,1,0,0,0.6961,button_left_main,-0.33984375,-0.328472222,1,0,0,,0,151,151,141,1,PLEET,C,old,z,./images/PLEET.png,,,,,,,,,,,,,,,,,,,,,,,,,,,,,,,,,
,,,,,,,,,,,,,,,,,6108288fcf5c9a6e1f2d041c,27,2022-02-12_13h47.56.824,lexical_decision_task_DD_L2,2021.2.3,Linux aarch64,60.24822268,,,,,,,,,,0.5796,1,,,,,,,,,,,,,,,0,0.298095703,-0.294292535,1,0,0,0.5796,button_right_main,0.298095703,-0.294292535,1,0,0,,0,152,152,35,1,PEACH,C,old,m,./images/PEACH.png,,,,,,,,,,,,,,,,,,,,,,,,,,,,,,,,,
,,,,,,,,,,,,,,,,,6108288fcf5c9a6e1f2d041c,27,2022-02-12_13h47.56.824,lexical_decision_task_DD_L2,2021.2.3,Linux aarch64,60.24822268,,,,,,,,,,0.5606,1,,,,,,,,,,,,,,,0,0.327148438,-0.319791667,1,0,0,0.5606,button_right_main,0.327148438,-0.319791667,1,0,0,,0,153,153,73,1,SNACK,LB,old,m,./images/SNACKLB.png,,,,,,,,,,,,,,,,,,,,,,,,,,,,,,,,,
,,,,,,,,,,,,,,,,,6108288fcf5c9a6e1f2d041c,27,2022-02-12_13h47.56.824,lexical_decision_task_DD_L2,2021.2.3,Linux aarch64,60.24822268,,,,,,,,,,1.2277,1,,,,,,,,,,,,,,,0,-0.328857422,-0.326844618,1,0,0,1.2277,button_left_main,-0.328857422,-0.326844618,1,0,0,,0,154,154,127,1,NINDY,HB,old,z,./images/NINDYHB.png,,,,,,,,,,,,,,,,,,,,,,,,,,,,,,,,,
,,,,,,,,,,,,,,,,,6108288fcf5c9a6e1f2d041c,27,2022-02-12_13h47.56.824,lexical_decision_task_DD_L2,2021.2.3,Linux aarch64,60.24822268,,,,,,,,,,1.2617,1,,,,,,,,,,,,,,,0,-0.395751953,-0.320876736,1,0,0,1.2617,button_left_main,-0.395751953,-0.320876736,1,0,0,,0,155,155,85,1,CHULK,HB,old,z,./images/CHULKHB.png,,,,,,,,,,,,,,,,,,,,,,,,,,,,,,,,,
,,,,,,,,,,,,,,,,,6108288fcf5c9a6e1f2d041c,27,2022-02-12_13h47.56.824,lexical_decision_task_DD_L2,2021.2.3,Linux aarch64,60.24822268,,,,,,,,,,0.6292,1,,,,,,,,,,,,,,,0,0.342529297,-0.287239583,1,0,0,0.6292,button_right_main,0.342529297,-0.287239583,1,0,0,,0,156,156,62,1,PURSE,C,old,m,./images/PURSE.png,,,,,,,,,,,,,,,,,,,,,,,,,,,,,,,,,
,,,,,,,,,,,,,,,,,6108288fcf5c9a6e1f2d041c,27,2022-02-12_13h47.56.824,lexical_decision_task_DD_L2,2021.2.3,Linux aarch64,60.24822268,,,,,,,,,,0.7634,1,,,,,,,,,,,,,,,0,-0.434326172,-0.318164063,1,0,0,0.7634,button_left_main,-0.434326172,-0.318164063,1,0,0,,0,157,157,158,1,EGECT,LB,old,z,./images/EGECTLB.png,,,,,,,,,,,,,,,,,,,,,,,,,,,,,,,,,
,,,,,,,,,,,,,,,,,6108288fcf5c9a6e1f2d041c,27,2022-02-12_13h47.56.824,lexical_decision_task_DD_L2,2021.2.3,Linux aarch64,60.24822268,,,,,,,,,,0.7625,1,,,,,,,,,,,,,,,0,-0.429199219,-0.350716146,1,0,0,0.7625,button_left_main,-0.429199219,-0.350716146,1,0,0,,0,158,158,160,1,VEETS,HB,old,z,./images/VEETSHB.png,,,,,,,,,,,,,,,,,,,,,,,,,,,,,,,,,
,,,,,,,,,,,,,,,,,6108288fcf5c9a6e1f2d041c,27,2022-02-12_13h47.56.824,lexical_decision_task_DD_L2,2021.2.3,Linux aarch64,60.24822268,,,,,,,,,,0.6484,1,,,,,,,,,,,,,,,0,0.323974609,-0.325217014,1,0,0,0.6484,button_right_main,0.323974609,-0.325217014,1,0,0,,0,159,159,1,1,PLANK,LB,old,m,./images/PLANKLB.png,,,,,,,,,,,,,,,,,,,,,,,,,,,,,,,,,
,,,,,,,,,,,,,,,,,6108288fcf5c9a6e1f2d041c,27,2022-02-12_13h47.56.824,lexical_decision_task_DD_L2,2021.2.3,Linux aarch64,60.24822268,,,,,,,,,,0.6302,1,,,,,,,,,,,,,,,0,-0.411132813,-0.300260417,1,0,0,0.6302,button_left_main,-0.411132813,-0.300260417,1,0,0,,0,160,160,132,1,SCIFF,C,old,z,./images/SCIFF.png,,,,,,,,,,,,,,,,,,,,,,,,,,,,,,,,,
,,,,,,,,,,,,,,,,,6108288fcf5c9a6e1f2d041c,27,2022-02-12_13h47.56.824,lexical_decision_task_DD_L2,2021.2.3,Linux aarch64,60.24822268,,,,,,,,,,0.6621,1,,,,,,,,,,,,,,,0,-0.431640625,-0.30405816,1,0,0,0.6621,button_left_main,-0.431640625,-0.30405816,1,0,0,,0,161,161,86,1,AIFED,LB,old,z,./images/AIFEDLB.png,,,,,,,,,,,,,,,,,,,,,,,,,,,,,,,,,
,,,,,,,,,,,,,,,,,6108288fcf5c9a6e1f2d041c,27,2022-02-12_13h47.56.824,lexical_decision_task_DD_L2,2021.2.3,Linux aarch64,60.24822268,,,,,,,,,,0.8286,1,,,,,,,,,,,,,,,0,-0.418945313,-0.327929688,1,0,0,0.8286,button_left_main,-0.418945313,-0.327929688,1,0,0,,0,162,162,98,1,BAMPS,LB,old,z,./images/BAMPSLB.png,,,,,,,,,,,,,,,,,,,,,,,,,,,,,,,,,
,,,,,,,,,,,,,,,,,6108288fcf5c9a6e1f2d041c,27,2022-02-12_13h47.56.824,lexical_decision_task_DD_L2,2021.2.3,Linux aarch64,60.24822268,,,,,,,,,,0.6326,1,,,,,,,,,,,,,,,0,0.326904297,-0.340407986,1,0,0,0.6326,button_right_main,0.326904297,-0.340407986,1,0,0,,0,163,163,24,1,SCREW,HB,old,m,./images/SCREWHB.png,,,,,,,,,,,,,,,,,,,,,,,,,,,,,,,,,
,,,,,,,,,,,,,,,,,6108288fcf5c9a6e1f2d041c,27,2022-02-12_13h47.56.824,lexical_decision_task_DD_L2,2021.2.3,Linux aarch64,60.24822268,,,,,,,,,,0.8614,1,,,,,,,,,,,,,,,0,0.317382813,-0.364822049,1,0,0,0.8614,button_right_main,0.317382813,-0.364822049,1,0,0,,0,164,164,7,1,PAINT,LB,old,m,./images/PAINTLB.png,,,,,,,,,,,,,,,,,,,,,,,,,,,,,,,,,
,,,,,,,,,,,,,,,,,6108288fcf5c9a6e1f2d041c,27,2022-02-12_13h47.56.824,lexical_decision_task_DD_L2,2021.2.3,Linux aarch64,60.24822268,,,,,,,,,,0.5962,1,,,,,,,,,,,,,,,0,0.323242188,-0.346375868,1,0,0,0.5962,button_right_main,0.323242188,-0.346375868,1,0,0,,0,165,165,49,1,DRUMS,LB,old,m,./images/DRUMSLB.png,,,,,,,,,,,,,,,,,,,,,,,,,,,,,,,,,
,,,,,,,,,,,,,,,,,6108288fcf5c9a6e1f2d041c,27,2022-02-12_13h47.56.824,lexical_decision_task_DD_L2,2021.2.3,Linux aarch64,60.24822268,,,,,,,,,,0.546,1,,,,,,,,,,,,,,,0,0.309814453,-0.348546007,1,0,0,0.546,button_right_main,0.309814453,-0.348546007,1,0,0,,0,166,166,66,1,SWEAT,HB,old,m,./images/SWEATHB.png,,,,,,,,,,,,,,,,,,,,,,,,,,,,,,,,,
,,,,,,,,,,,,,,,,,6108288fcf5c9a6e1f2d041c,27,2022-02-12_13h47.56.824,lexical_decision_task_DD_L2,2021.2.3,Linux aarch64,60.24822268,,,,,,,,,,0.8288,1,,,,,,,,,,,,,,,0,-0.425292969,-0.303515625,1,0,0,0.8288,button_left_main,-0.425292969,-0.303515625,1,0,0,,0,167,167,123,1,SEDGE,C,old,z,./images/SEDGE.png,,,,,,,,,,,,,,,,,,,,,,,,,,,,,,,,,
,,,,,,,,,,,,,,,,,6108288fcf5c9a6e1f2d041c,27,2022-02-12_13h47.56.824,lexical_decision_task_DD_L2,2021.2.3,Linux aarch64,60.24822268,,,,,,,,,,,,,,,,,,,,,,,,,,,,,,,,,,,,,,,,,,,,,,How likely will it be that you will recognize the words presented clearly on a scale of 0 (not likely) to 100 (most likely)?,,,,,0.006347656,-0.408767361,1,0,0,jol_adv,6,4.9177,0,0,0,0,1,,,,,,,,,,,,,,,,,,,
,,,,,,,,,,,,,,,,,6108288fcf5c9a6e1f2d041c,27,2022-02-12_13h47.56.824,lexical_decision_task_DD_L2,2021.2.3,Linux aarch64,60.24822268,,,,,,,,,,,,,,,,,,,,,,,,,,,,,,,,,,,,,,,,,,,,,,How likely will it be that you will recognize the words presented slighly blurred on a scale of 0 (not likely) to 100 (most likely)?,,,,,,,,,,,6,4.1697,0,1,1,1,1,,,,,,,,,,,,,,,,,,,
,,,,,,,,,,,,,,,,,6108288fcf5c9a6e1f2d041c,27,2022-02-12_13h47.56.824,lexical_decision_task_DD_L2,2021.2.3,Linux aarch64,60.24822268,,,,,,,,,,,,,,,,,,,,,,,,,,,,,,,,,,,,,,,,,,,,,,How likely will it be that you will recognize the words presented very blurred on a scale of 0 (not likely) to 100 (most likely)?,,,,,,,,,,,5,2.3971,0,2,2,2,1,,,,,,,,,,,,,,,,,,,
,0.137695313,-0.404969618,1,0,0,instr_done_button,,,,,,1,test,"In the next phase you will be presented with the words from the the first phase. Your job is to decide whether you remember seeing the word or not. If you remember seeing the word press ""old"" or type ""m"". If you do not remember seeing the word press ""new"" or type ""z"". Please press the space bar or click on continue to begin. ",,,6108288fcf5c9a6e1f2d041c,27,2022-02-12_13h47.56.824,lexical_decision_task_DD_L2,2021.2.3,Linux aarch64,60.24822268,,,,,,,,,,,,,,,,,,,,,,,,,,,,,,,,,,,,,,,,,,,,,,,,,,,,,,,,,,,,,,,,0,0,0,0,1,,,,,,,,,,,,,,
,0.158935547,-0.412022569,1,0,0,instr_done_button,,,,,,1,test,"In the next phase you will be presented with the words from the the first phase. Your job is to decide whether you remember seeing the word or not. If you remember seeing the word press ""old"" or type ""m"". If you do not remember seeing the word press ""new"" or type ""z"". Please press the space bar or click on continue to begin. ",,,6108288fcf5c9a6e1f2d041c,27,2022-02-12_13h47.56.824,lexical_decision_task_DD_L2,2021.2.3,Linux aarch64,60.24822268,,,,,,,,,,,,,,,,,,,,,,,,,,,,,,,,,,,,,,,,,,,,,,,,,,,,,,,,,,,,,,,,1,0,1,0,1,,,,,,,,,,,,,,
,0.117675781,-0.390863715,1,0,0,instr_done_button,,,,,,1,test,"In the next phase you will be presented with the words from the the first phase. Your job is to decide whether you remember seeing the word or not. If you remember seeing the word press ""old"" or type ""m"". If you do not remember seeing the word press ""new"" or type ""z"". Please press the space bar or click on continue to begin. ",,,6108288fcf5c9a6e1f2d041c,27,2022-02-12_13h47.56.824,lexical_decision_task_DD_L2,2021.2.3,Linux aarch64,60.24822268,,,,,,,,,,,,,,,,,,,,,,,,,,,,,,,,,,,,,,,,,,,,,,,,,,,,,,,,,,,,,,,,2,0,2,0,1,,,,,,,,,,,,,,
,0.139892578,-0.399544271,1,0,0,instr_done_button,,,,,,1,test,"In the next phase you will be presented with the words from the the first phase. Your job is to decide whether you remember seeing the word or not. If you remember seeing the word press ""old"" or type ""m"". If you do not remember seeing the word press ""new"" or type ""z"". Please press the space bar or click on continue to begin. ",,,6108288fcf5c9a6e1f2d041c,27,2022-02-12_13h47.56.824,lexical_decision_task_DD_L2,2021.2.3,Linux aarch64,60.24822268,,,,,,,,,,,,,,,,,,,,,,,,,,,,,,,,,,,,,,,,,,,,,,,,,,,,,,,,,,,,,,,,3,0,3,0,1,,,,,,,,,,,,,,
,0.147705078,-0.399544271,1,0,0,instr_done_button,,,,,,1,test,"In the next phase you will be presented with the words from the the first phase. Your job is to decide whether you remember seeing the word or not. If you remember seeing the word press ""old"" or type ""m"". If you do not remember seeing the word press ""new"" or type ""z"". Please press the space bar or click on continue to begin. ",,,6108288fcf5c9a6e1f2d041c,27,2022-02-12_13h47.56.824,lexical_decision_task_DD_L2,2021.2.3,Linux aarch64,60.24822268,,,,,,,,,,,,,,,,,,,,,,,,,,,,,,,,,,,,,,,,,,,,,,,,,,,,,,,,,,,,,,,,4,0,4,0,1,,,,,,,,,,,,,,
,,,,,,,,,,,,,,,,,6108288fcf5c9a6e1f2d041c,27,2022-02-12_13h47.56.824,lexical_decision_task_DD_L2,2021.2.3,Linux aarch64,60.24822268,,,,,,,,,,1.2214,1,,,,,,,,,,,,,,,,,,,,,,,0.358642578,-0.324674479,1,0,0,,,,,,,INFANT,LB,m,y,./images/INFANTLB.png,,,,,,,,,,,,,,,,,,,,,0,0.358642578,-0.324674479,1,0,0,1.2214,button_right_test,0,0,0,76,1
,,,,,,,,,,,,,,,,,6108288fcf5c9a6e1f2d041c,27,2022-02-12_13h47.56.824,lexical_decision_task_DD_L2,2021.2.3,Linux aarch64,60.24822268,,,,,,,,,,0.9587,0,,,,,,,,,,,,,,,,,,,,,,,0.367919922,-0.326302083,1,0,0,,,,,,,SNAKE,LB,z,y,./images/SNAKELB.png,,,,,,,,,,,,,,,,,,,,,0,0.367919922,-0.326302083,1,0,0,0.9587,button_right_test,0,1,1,124,1
,,,,,,,,,,,,,,,,,6108288fcf5c9a6e1f2d041c,27,2022-02-12_13h47.56.824,lexical_decision_task_DD_L2,2021.2.3,Linux aarch64,60.24822268,,,,,,,,,,0.742,1,,,,,,,,,,,,,,,,,,,,,,,0.372558594,-0.349088542,1,0,0,,,,,,,BEARD,C,m,y,./images/BEARD.png,,,,,,,,,,,,,,,,,,,,,0,0.372558594,-0.349088542,1,0,0,0.742,button_right_test,0,2,2,2,1
,,,,,,,,,,,,,,,,,6108288fcf5c9a6e1f2d041c,27,2022-02-12_13h47.56.824,lexical_decision_task_DD_L2,2021.2.3,Linux aarch64,60.24822268,,,,,,,,,,0.9091,1,,,,,,,,,,,,,,,,,,,,,,,0.362304688,-0.337152778,1,0,0,,,,,,,SCREW,HB,m,y,./images/SCREWHB.png,,,,,,,,,,,,,,,,,,,,,0,0.362304688,-0.337152778,1,0,0,0.9091,button_right_test,0,3,3,24,1
,,,,,,,,,,,,,,,,,6108288fcf5c9a6e1f2d041c,27,2022-02-12_13h47.56.824,lexical_decision_task_DD_L2,2021.2.3,Linux aarch64,60.24822268,,,,,,,,,,1.0749,0,,,,,,,,,,,,,,,,,,,,,,,0.369873047,-0.328472222,1,0,0,,,,,,,MAMMAL,C,z,y,./images/MAMMAL.png,,,,,,,,,,,,,,,,,,,,,0,0.369873047,-0.328472222,1,0,0,1.0749,button_right_test,0,4,4,146,1
,,,,,,,,,,,,,,,,,6108288fcf5c9a6e1f2d041c,27,2022-02-12_13h47.56.824,lexical_decision_task_DD_L2,2021.2.3,Linux aarch64,60.24822268,,,,,,,,,,0.6443,1,,,,,,,,,,,,,,,,,,,,,,,0.363037109,-0.32358941,1,0,0,,,,,,,GRAIN,HB,m,y,./images/GRAINHB.png,,,,,,,,,,,,,,,,,,,,,0,0.363037109,-0.32358941,1,0,0,0.6443,button_right_test,0,5,5,75,1
,,,,,,,,,,,,,,,,,6108288fcf5c9a6e1f2d041c,27,2022-02-12_13h47.56.824,lexical_decision_task_DD_L2,2021.2.3,Linux aarch64,60.24822268,,,,,,,,,,0.7101,0,,,,,,,,,,,,,,,,,,,,,,,-0.371582031,-0.325759549,1,0,0,,,,,,,PENCE,LB,m,y,./images/PENCELB.png,,,,,,,,,,,,,,,,,,,,,0,-0.371582031,-0.325759549,1,0,0,0.7101,button_left_test,0,6,6,16,1
,,,,,,,,,,,,,,,,,6108288fcf5c9a6e1f2d041c,27,2022-02-12_13h47.56.824,lexical_decision_task_DD_L2,2021.2.3,Linux aarch64,60.24822268,,,,,,,,,,0.9598,1,,,,,,,,,,,,,,,,,,,,,,,-0.388671875,-0.325759549,1,0,0,,,,,,,GRAPE,LB,z,y,./images/GRAPELB.png,,,,,,,,,,,,,,,,,,,,,0,-0.388671875,-0.325759549,1,0,0,0.9598,button_left_test,0,7,7,100,1
,,,,,,,,,,,,,,,,,6108288fcf5c9a6e1f2d041c,27,2022-02-12_13h47.56.824,lexical_decision_task_DD_L2,2021.2.3,Linux aarch64,60.24822268,,,,,,,,,,0.8595,1,,,,,,,,,,,,,,,,,,,,,,,-0.391113281,-0.312196181,1,0,0,,,,,,,LLAMA,C,z,y,./images/LLAMA.png,,,,,,,,,,,,,,,,,,,,,0,-0.391113281,-0.312196181,1,0,0,0.8595,button_left_test,0,8,8,119,1
,,,,,,,,,,,,,,,,,6108288fcf5c9a6e1f2d041c,27,2022-02-12_13h47.56.824,lexical_decision_task_DD_L2,2021.2.3,Linux aarch64,60.24822268,,,,,,,,,,1.2071,1,,,,,,,,,,,,,,,,,,,,,,,-0.389648438,-0.287239583,1,0,0,,,,,,,HAMMER,HB,z,y,./images/HAMMERHB.png,,,,,,,,,,,,,,,,,,,,,0,-0.389648438,-0.287239583,1,0,0,1.2071,button_left_test,0,9,9,159,1
,,,,,,,,,,,,,,,,,6108288fcf5c9a6e1f2d041c,27,2022-02-12_13h47.56.824,lexical_decision_task_DD_L2,2021.2.3,Linux aarch64,60.24822268,,,,,,,,,,0.8481,1,,,,,,,,,,,,,,,,,,,,,,,-0.368652344,-0.310026042,1,0,0,,,,,,,CHERRY,HB,z,y,./images/CHERRYHB.png,,,,,,,,,,,,,,,,,,,,,0,-0.368652344,-0.310026042,1,0,0,0.8481,button_left_test,0,10,10,138,1
,,,,,,,,,,,,,,,,,6108288fcf5c9a6e1f2d041c,27,2022-02-12_13h47.56.824,lexical_decision_task_DD_L2,2021.2.3,Linux aarch64,60.24822268,,,,,,,,,,0.6326,1,,,,,,,,,,,,,,,,,,,,,,,0.355224609,-0.325217014,1,0,0,,,,,,,PEARL,LB,m,y,./images/PEARLLB.png,,,,,,,,,,,,,,,,,,,,,0,0.355224609,-0.325217014,1,0,0,0.6326,button_right_test,0,11,11,46,1
,,,,,,,,,,,,,,,,,6108288fcf5c9a6e1f2d041c,27,2022-02-12_13h47.56.824,lexical_decision_task_DD_L2,2021.2.3,Linux aarch64,60.24822268,,,,,,,,,,0.9284,1,,,,,,,,,,,,,,,,,,,,,,,-0.391357422,-0.344748264,1,0,0,,,,,,,RULER,LB,z,y,./images/RULERLB.png,,,,,,,,,,,,,,,,,,,,,0,-0.391357422,-0.344748264,1,0,0,0.9284,button_left_test,0,12,12,163,1
,,,,,,,,,,,,,,,,,6108288fcf5c9a6e1f2d041c,27,2022-02-12_13h47.56.824,lexical_decision_task_DD_L2,2021.2.3,Linux aarch64,60.24822268,,,,,,,,,,0.8251,1,,,,,,,,,,,,,,,,,,,,,,,0.358154297,-0.331184896,1,0,0,,,,,,,FINGER,HB,m,y,./images/FINGERHB.png,,,,,,,,,,,,,,,,,,,,,0,0.358154297,-0.331184896,1,0,0,0.8251,button_right_test,0,13,13,3,1
,,,,,,,,,,,,,,,,,6108288fcf5c9a6e1f2d041c,27,2022-02-12_13h47.56.824,lexical_decision_task_DD_L2,2021.2.3,Linux aarch64,60.24822268,,,,,,,,,,0.8582,1,,,,,,,,,,,,,,,,,,,,,,,-0.385009766,-0.321961806,1,0,0,,,,,,,BRIDE,LB,z,y,./images/BRIDELB.png,,,,,,,,,,,,,,,,,,,,,0,-0.385009766,-0.321961806,1,0,0,0.8582,button_left_test,0,14,14,148,1
,,,,,,,,,,,,,,,,,6108288fcf5c9a6e1f2d041c,27,2022-02-12_13h47.56.824,lexical_decision_task_DD_L2,2021.2.3,Linux aarch64,60.24822268,,,,,,,,,,0.9262,1,,,,,,,,,,,,,,,,,,,,,,,0.381835938,-0.345290799,1,0,0,,,,,,,MAGGOT,HB,m,y,./images/MAGGOTHB.png,,,,,,,,,,,,,,,,,,,,,0,0.381835938,-0.345290799,1,0,0,0.9262,button_right_test,0,15,15,33,1
,,,,,,,,,,,,,,,,,6108288fcf5c9a6e1f2d041c,27,2022-02-12_13h47.56.824,lexical_decision_task_DD_L2,2021.2.3,Linux aarch64,60.24822268,,,,,,,,,,1.1423,0,,,,,,,,,,,,,,,,,,,,,,,0.370117188,-0.320334201,1,0,0,,,,,,,STATUE,HB,z,y,./images/STATUEHB.png,,,,,,,,,,,,,,,,,,,,,0,0.370117188,-0.320334201,1,0,0,1.1423,button_right_test,0,16,16,150,1
,,,,,,,,,,,,,,,,,6108288fcf5c9a6e1f2d041c,27,2022-02-12_13h47.56.824,lexical_decision_task_DD_L2,2021.2.3,Linux aarch64,60.24822268,,,,,,,,,,0.6442,1,,,,,,,,,,,,,,,,,,,,,,,0.351806641,-0.350716146,1,0,0,,,,,,,MALLET,C,m,y,./images/MALLET.png,,,,,,,,,,,,,,,,,,,,,0,0.351806641,-0.350716146,1,0,0,0.6442,button_right_test,0,17,17,50,1
,,,,,,,,,,,,,,,,,6108288fcf5c9a6e1f2d041c,27,2022-02-12_13h47.56.824,lexical_decision_task_DD_L2,2021.2.3,Linux aarch64,60.24822268,,,,,,,,,,0.5758,1,,,,,,,,,,,,,,,,,,,,,,,0.303710938,-0.348003472,1,0,0,,,,,,,PAINT,LB,m,y,./images/PAINTLB.png,,,,,,,,,,,,,,,,,,,,,0,0.303710938,-0.348003472,1,0,0,0.5758,button_right_test,0,18,18,7,1
,,,,,,,,,,,,,,,,,6108288fcf5c9a6e1f2d041c,27,2022-02-12_13h47.56.824,lexical_decision_task_DD_L2,2021.2.3,Linux aarch64,60.24822268,,,,,,,,,,0.5933,1,,,,,,,,,,,,,,,,,,,,,,,0.291748047,-0.36265191,1,0,0,,,,,,,PURSE,C,m,y,./images/PURSE.png,,,,,,,,,,,,,,,,,,,,,0,0.291748047,-0.36265191,1,0,0,0.5933,button_right_test,0,19,19,62,1
,,,,,,,,,,,,,,,,,6108288fcf5c9a6e1f2d041c,27,2022-02-12_13h47.56.824,lexical_decision_task_DD_L2,2021.2.3,Linux aarch64,60.24822268,,,,,,,,,,0.8052,0,,,,,,,,,,,,,,,,,,,,,,,-0.369384766,-0.329557292,1,0,0,,,,,,,STORM,HB,m,y,./images/STORMHB.png,,,,,,,,,,,,,,,,,,,,,0,-0.369384766,-0.329557292,1,0,0,0.8052,button_left_test,0,20,20,30,1
,,,,,,,,,,,,,,,,,6108288fcf5c9a6e1f2d041c,27,2022-02-12_13h47.56.824,lexical_decision_task_DD_L2,2021.2.3,Linux aarch64,60.24822268,,,,,,,,,,0.5784,1,,,,,,,,,,,,,,,,,,,,,,,0.296875,-0.338780382,1,0,0,,,,,,,JELLY,LB,m,y,./images/JELLYLB.png,,,,,,,,,,,,,,,,,,,,,0,0.296875,-0.338780382,1,0,0,0.5784,button_right_test,0,21,21,64,1
,,,,,,,,,,,,,,,,,6108288fcf5c9a6e1f2d041c,27,2022-02-12_13h47.56.824,lexical_decision_task_DD_L2,2021.2.3,Linux aarch64,60.24822268,,,,,,,,,,0.6264,1,,,,,,,,,,,,,,,,,,,,,,,0.281738281,-0.358311632,1,0,0,,,,,,,ONION,HB,m,y,./images/ONIONHB.png,,,,,,,,,,,,,,,,,,,,,0,0.281738281,-0.358311632,1,0,0,0.6264,button_right_test,0,22,22,51,1
,,,,,,,,,,,,,,,,,6108288fcf5c9a6e1f2d041c,27,2022-02-12_13h47.56.824,lexical_decision_task_DD_L2,2021.2.3,Linux aarch64,60.24822268,,,,,,,,,,0.8597,1,,,,,,,,,,,,,,,,,,,,,,,-0.370849609,-0.315451389,1,0,0,,,,,,,GRANNY,C,z,y,./images/GRANNY.png,,,,,,,,,,,,,,,,,,,,,0,-0.370849609,-0.315451389,1,0,0,0.8597,button_left_test,0,23,23,104,1
,,,,,,,,,,,,,,,,,6108288fcf5c9a6e1f2d041c,27,2022-02-12_13h47.56.824,lexical_decision_task_DD_L2,2021.2.3,Linux aarch64,60.24822268,,,,,,,,,,0.577,1,,,,,,,,,,,,,,,,,,,,,,,0.300292969,-0.36156684,1,0,0,,,,,,,KITTEN,HB,m,y,./images/KITTENHB.png,,,,,,,,,,,,,,,,,,,,,0,0.300292969,-0.36156684,1,0,0,0.577,button_right_test,0,24,24,45,1
,,,,,,,,,,,,,,,,,6108288fcf5c9a6e1f2d041c,27,2022-02-12_13h47.56.824,lexical_decision_task_DD_L2,2021.2.3,Linux aarch64,60.24822268,,,,,,,,,,0.9442,0,,,,,,,,,,,,,,,,,,,,,,,0.302001953,-0.376757813,1,0,0,,,,,,,CHAIN,HB,z,y,./images/CHAINHB.png,,,,,,,,,,,,,,,,,,,,,0,0.302001953,-0.376757813,1,0,0,0.9442,button_right_test,0,25,25,126,1
,,,,,,,,,,,,,,,,,6108288fcf5c9a6e1f2d041c,27,2022-02-12_13h47.56.824,lexical_decision_task_DD_L2,2021.2.3,Linux aarch64,60.24822268,,,,,,,,,,1.3257,1,,,,,,,,,,,,,,,,,,,,,,,-0.381835938,-0.317621528,1,0,0,,,,,,,POKER,LB,z,y,./images/POKERLB.png,,,,,,,,,,,,,,,,,,,,,0,-0.381835938,-0.317621528,1,0,0,1.3257,button_left_test,0,26,26,151,1
,,,,,,,,,,,,,,,,,6108288fcf5c9a6e1f2d041c,27,2022-02-12_13h47.56.824,lexical_decision_task_DD_L2,2021.2.3,Linux aarch64,60.24822268,,,,,,,,,,0.678,1,,,,,,,,,,,,,,,,,,,,,,,-0.366455078,-0.331727431,1,0,0,,,,,,,DONKEY,LB,z,y,./images/DONKEYLB.png,,,,,,,,,,,,,,,,,,,,,0,-0.366455078,-0.331727431,1,0,0,0.678,button_left_test,0,27,27,103,1
,,,,,,,,,,,,,,,,,6108288fcf5c9a6e1f2d041c,27,2022-02-12_13h47.56.824,lexical_decision_task_DD_L2,2021.2.3,Linux aarch64,60.24822268,,,,,,,,,,0.6785,1,,,,,,,,,,,,,,,,,,,,,,,0.309814453,-0.365907118,1,0,0,,,,,,,GREASE,HB,m,y,./images/GREASEHB.png,,,,,,,,,,,,,,,,,,,,,0,0.309814453,-0.365907118,1,0,0,0.6785,button_right_test,0,28,28,15,1
,,,,,,,,,,,,,,,,,6108288fcf5c9a6e1f2d041c,27,2022-02-12_13h47.56.824,lexical_decision_task_DD_L2,2021.2.3,Linux aarch64,60.24822268,,,,,,,,,,0.9933,1,,,,,,,,,,,,,,,,,,,,,,,-0.360595703,-0.365364583,1,0,0,,,,,,,DESERT,LB,z,y,./images/DESERTLB.png,,,,,,,,,,,,,,,,,,,,,0,-0.360595703,-0.365364583,1,0,0,0.9933,button_left_test,0,29,29,136,1
,,,,,,,,,,,,,,,,,6108288fcf5c9a6e1f2d041c,27,2022-02-12_13h47.56.824,lexical_decision_task_DD_L2,2021.2.3,Linux aarch64,60.24822268,,,,,,,,,,0.9092,0,,,,,,,,,,,,,,,,,,,,,,,0.3125,-0.373502604,1,0,0,,,,,,,POSTER,C,z,y,./images/POSTER.png,,,,,,,,,,,,,,,,,,,,,0,0.3125,-0.373502604,1,0,0,0.9092,button_right_test,0,30,30,137,1
,,,,,,,,,,,,,,,,,6108288fcf5c9a6e1f2d041c,27,2022-02-12_13h47.56.824,lexical_decision_task_DD_L2,2021.2.3,Linux aarch64,60.24822268,,,,,,,,,,0.6765,1,,,,,,,,,,,,,,,,,,,,,,,0.311767578,-0.347460938,1,0,0,,,,,,,PIMPLE,C,m,y,./images/PIMPLE.png,,,,,,,,,,,,,,,,,,,,,0,0.311767578,-0.347460938,1,0,0,0.6765,button_right_test,0,31,31,71,1
,,,,,,,,,,,,,,,,,6108288fcf5c9a6e1f2d041c,27,2022-02-12_13h47.56.824,lexical_decision_task_DD_L2,2021.2.3,Linux aarch64,60.24822268,,,,,,,,,,1.1437,1,,,,,,,,,,,,,,,,,,,,,,,-0.3671875,-0.344205729,1,0,0,,,,,,,BUBBLE,C,z,y,./images/BUBBLE.png,,,,,,,,,,,,,,,,,,,,,0,-0.3671875,-0.344205729,1,0,0,1.1437,button_left_test,0,32,32,155,1
,,,,,,,,,,,,,,,,,6108288fcf5c9a6e1f2d041c,27,2022-02-12_13h47.56.824,lexical_decision_task_DD_L2,2021.2.3,Linux aarch64,60.24822268,,,,,,,,,,0.7256,1,,,,,,,,,,,,,,,,,,,,,,,0.320800781,-0.370247396,1,0,0,,,,,,,BELLY,LB,m,y,./images/BELLYLB.png,,,,,,,,,,,,,,,,,,,,,0,0.320800781,-0.370247396,1,0,0,0.7256,button_right_test,0,33,33,10,1
,,,,,,,,,,,,,,,,,6108288fcf5c9a6e1f2d041c,27,2022-02-12_13h47.56.824,lexical_decision_task_DD_L2,2021.2.3,Linux aarch64,60.24822268,,,,,,,,,,0.7276,1,,,,,,,,,,,,,,,,,,,,,,,0.312988281,-0.371875,1,0,0,,,,,,,JAGUAR,HB,m,y,./images/JAGUARHB.png,,,,,,,,,,,,,,,,,,,,,0,0.312988281,-0.371875,1,0,0,0.7276,button_right_test,0,34,34,18,1
,,,,,,,,,,,,,,,,,6108288fcf5c9a6e1f2d041c,27,2022-02-12_13h47.56.824,lexical_decision_task_DD_L2,2021.2.3,Linux aarch64,60.24822268,,,,,,,,,,1.2247,1,,,,,,,,,,,,,,,,,,,,,,,-0.385498047,-0.343663194,1,0,0,,,,,,,MIDGET,LB,z,y,./images/MIDGETLB.png,,,,,,,,,,,,,,,,,,,,,0,-0.385498047,-0.343663194,1,0,0,1.2247,button_left_test,0,35,35,160,1
,,,,,,,,,,,,,,,,,6108288fcf5c9a6e1f2d041c,27,2022-02-12_13h47.56.824,lexical_decision_task_DD_L2,2021.2.3,Linux aarch64,60.24822268,,,,,,,,,,1.4084,1,,,,,,,,,,,,,,,,,,,,,,,0.314941406,-0.385438368,1,0,0,,,,,,,BERRY,C,m,y,./images/BERRY.png,,,,,,,,,,,,,,,,,,,,,0,0.314941406,-0.385438368,1,0,0,1.4084,button_right_test,0,36,36,47,1
,,,,,,,,,,,,,,,,,6108288fcf5c9a6e1f2d041c,27,2022-02-12_13h47.56.824,lexical_decision_task_DD_L2,2021.2.3,Linux aarch64,60.24822268,,,,,,,,,,0.6094,1,,,,,,,,,,,,,,,,,,,,,,,0.314941406,-0.349631076,1,0,0,,,,,,,CANDLE,LB,m,y,./images/CANDLELB.png,,,,,,,,,,,,,,,,,,,,,0,0.314941406,-0.349631076,1,0,0,0.6094,button_right_test,0,37,37,61,1
,,,,,,,,,,,,,,,,,6108288fcf5c9a6e1f2d041c,27,2022-02-12_13h47.56.824,lexical_decision_task_DD_L2,2021.2.3,Linux aarch64,60.24822268,,,,,,,,,,0.6567,1,,,,,,,,,,,,,,,,,,,,,,,-0.383789063,-0.334440104,1,0,0,,,,,,,HOCKEY,C,z,y,./images/HOCKEY.png,,,,,,,,,,,,,,,,,,,,,0,-0.383789063,-0.334440104,1,0,0,0.6567,button_left_test,0,38,38,116,1
,,,,,,,,,,,,,,,,,6108288fcf5c9a6e1f2d041c,27,2022-02-12_13h47.56.824,lexical_decision_task_DD_L2,2021.2.3,Linux aarch64,60.24822268,,,,,,,,,,1.1103,1,,,,,,,,,,,,,,,,,,,,,,,-0.388183594,-0.34312066,1,0,0,,,,,,,CLOTH,C,z,y,./images/CLOTH.png,,,,,,,,,,,,,,,,,,,,,0,-0.388183594,-0.34312066,1,0,0,1.1103,button_left_test,0,39,39,107,1
,,,,,,,,,,,,,,,,,6108288fcf5c9a6e1f2d041c,27,2022-02-12_13h47.56.824,lexical_decision_task_DD_L2,2021.2.3,Linux aarch64,60.24822268,,,,,,,,,,0.8425,1,,,,,,,,,,,,,,,,,,,,,,,-0.383544922,-0.345833333,1,0,0,,,,,,,WHISKY,C,z,y,./images/WHISKY.png,,,,,,,,,,,,,,,,,,,,,0,-0.383544922,-0.345833333,1,0,0,0.8425,button_left_test,0,40,40,167,1
,,,,,,,,,,,,,,,,,6108288fcf5c9a6e1f2d041c,27,2022-02-12_13h47.56.824,lexical_decision_task_DD_L2,2021.2.3,Linux aarch64,60.24822268,,,,,,,,,,0.6441,0,,,,,,,,,,,,,,,,,,,,,,,0.118896484,-0.419075521,1,0,0,,,,,,,MONKEY,HB,z,y,./images/MONKEYHB.png,break_done_button,,,,,,,,,,,,,,,,,,,,0,0.30859375,-0.364279514,1,0,0,0.6441,button_right_test,0,41,41,129,1
,,,,,,,,,,,,,,,,,6108288fcf5c9a6e1f2d041c,27,2022-02-12_13h47.56.824,lexical_decision_task_DD_L2,2021.2.3,Linux aarch64,60.24822268,,,,,,,,,,0.7139,1,,,,,,,,,,,,,,,,,,,,,,,0.327392578,-0.292122396,1,0,0,,,,,,,CANYON,LB,m,y,./images/CANYONLB.png,,,,,,,,,,,,,,,,,,,,,0,0.327392578,-0.292122396,1,0,0,0.7139,button_right_test,0,42,42,34,1
,,,,,,,,,,,,,,,,,6108288fcf5c9a6e1f2d041c,27,2022-02-12_13h47.56.824,lexical_decision_task_DD_L2,2021.2.3,Linux aarch64,60.24822268,,,,,,,,,,0.7643,1,,,,,,,,,,,,,,,,,,,,,,,-0.386230469,-0.336610243,1,0,0,,,,,,,PARCEL,HB,z,y,./images/PARCELHB.png,,,,,,,,,,,,,,,,,,,,,0,-0.386230469,-0.336610243,1,0,0,0.7643,button_left_test,0,43,43,102,1
,,,,,,,,,,,,,,,,,6108288fcf5c9a6e1f2d041c,27,2022-02-12_13h47.56.824,lexical_decision_task_DD_L2,2021.2.3,Linux aarch64,60.24822268,,,,,,,,,,0.6427,1,,,,,,,,,,,,,,,,,,,,,,,0.305664063,-0.352886285,1,0,0,,,,,,,MIRROR,HB,m,y,./images/MIRRORHB.png,,,,,,,,,,,,,,,,,,,,,0,0.305664063,-0.352886285,1,0,0,0.6427,button_right_test,0,44,44,63,1
,,,,,,,,,,,,,,,,,6108288fcf5c9a6e1f2d041c,27,2022-02-12_13h47.56.824,lexical_decision_task_DD_L2,2021.2.3,Linux aarch64,60.24822268,,,,,,,,,,1.1084,0,,,,,,,,,,,,,,,,,,,,,,,-0.381835938,-0.343663194,1,0,0,,,,,,,THROAT,HB,m,y,./images/THROATHB.png,,,,,,,,,,,,,,,,,,,,,0,-0.381835938,-0.343663194,1,0,0,1.1084,button_left_test,0,45,45,36,1
,,,,,,,,,,,,,,,,,6108288fcf5c9a6e1f2d041c,27,2022-02-12_13h47.56.824,lexical_decision_task_DD_L2,2021.2.3,Linux aarch64,60.24822268,,,,,,,,,,0.6617,1,,,,,,,,,,,,,,,,,,,,,,,0.295410156,-0.353428819,1,0,0,,,,,,,FARMER,C,m,y,./images/FARMER.png,,,,,,,,,,,,,,,,,,,,,0,0.295410156,-0.353428819,1,0,0,0.6617,button_right_test,0,46,46,65,1
,,,,,,,,,,,,,,,,,6108288fcf5c9a6e1f2d041c,27,2022-02-12_13h47.56.824,lexical_decision_task_DD_L2,2021.2.3,Linux aarch64,60.24822268,,,,,,,,,,0.9922,1,,,,,,,,,,,,,,,,,,,,,,,-0.375244141,-0.320334201,1,0,0,,,,,,,PLANET,C,z,y,./images/PLANET.png,,,,,,,,,,,,,,,,,,,,,0,-0.375244141,-0.320334201,1,0,0,0.9922,button_left_test,0,47,47,164,1
,,,,,,,,,,,,,,,,,6108288fcf5c9a6e1f2d041c,27,2022-02-12_13h47.56.824,lexical_decision_task_DD_L2,2021.2.3,Linux aarch64,60.24822268,,,,,,,,,,0.682,1,,,,,,,,,,,,,,,,,,,,,,,0.313720703,-0.297005208,1,0,0,,,,,,,COOKER,HB,m,y,./images/COOKERHB.png,,,,,,,,,,,,,,,,,,,,,0,0.313720703,-0.297005208,1,0,0,0.682,button_right_test,0,48,48,69,1
,,,,,,,,,,,,,,,,,6108288fcf5c9a6e1f2d041c,27,2022-02-12_13h47.56.824,lexical_decision_task_DD_L2,2021.2.3,Linux aarch64,60.24822268,,,,,,,,,,0.7468,1,,,,,,,,,,,,,,,,,,,,,,,0.301025391,-0.338237847,1,0,0,,,,,,,BURIAL,C,m,y,./images/BURIAL.png,,,,,,,,,,,,,,,,,,,,,0,0.301025391,-0.338237847,1,0,0,0.7468,button_right_test,0,49,49,59,1
,,,,,,,,,,,,,,,,,6108288fcf5c9a6e1f2d041c,27,2022-02-12_13h47.56.824,lexical_decision_task_DD_L2,2021.2.3,Linux aarch64,60.24822268,,,,,,,,,,0.9493,1,,,,,,,,,,,,,,,,,,,,,,,-0.376708984,-0.341493056,1,0,0,,,,,,,CLOUD,C,z,y,./images/CLOUD.png,,,,,,,,,,,,,,,,,,,,,0,-0.376708984,-0.341493056,1,0,0,0.9493,button_left_test,0,50,50,110,1
,,,,,,,,,,,,,,,,,6108288fcf5c9a6e1f2d041c,27,2022-02-12_13h47.56.824,lexical_decision_task_DD_L2,2021.2.3,Linux aarch64,60.24822268,,,,,,,,,,0.7424,1,,,,,,,,,,,,,,,,,,,,,,,-0.384521484,-0.314908854,1,0,0,,,,,,,BOXER,LB,z,y,./images/BOXERLB.png,,,,,,,,,,,,,,,,,,,,,0,-0.384521484,-0.314908854,1,0,0,0.7424,button_left_test,0,51,51,88,1
,,,,,,,,,,,,,,,,,6108288fcf5c9a6e1f2d041c,27,2022-02-12_13h47.56.824,lexical_decision_task_DD_L2,2021.2.3,Linux aarch64,60.24822268,,,,,,,,,,1.1425,0,,,,,,,,,,,,,,,,,,,,,,,0.304443359,-0.38109809,1,0,0,,,,,,,ARROW,HB,z,y,./images/ARROWHB.png,,,,,,,,,,,,,,,,,,,,,0,0.304443359,-0.38109809,1,0,0,1.1425,button_right_test,0,52,52,153,1
,,,,,,,,,,,,,,,,,6108288fcf5c9a6e1f2d041c,27,2022-02-12_13h47.56.824,lexical_decision_task_DD_L2,2021.2.3,Linux aarch64,60.24822268,,,,,,,,,,1.0262,1,,,,,,,,,,,,,,,,,,,,,,,-0.386962891,-0.359939236,1,0,0,,,,,,,WALNUT,HB,z,y,./images/WALNUTHB.png,,,,,,,,,,,,,,,,,,,,,0,-0.386962891,-0.359939236,1,0,0,1.0262,button_left_test,0,53,53,84,1
,,,,,,,,,,,,,,,,,6108288fcf5c9a6e1f2d041c,27,2022-02-12_13h47.56.824,lexical_decision_task_DD_L2,2021.2.3,Linux aarch64,60.24822268,,,,,,,,,,0.7273,1,,,,,,,,,,,,,,,,,,,,,,,-0.391357422,-0.326302083,1,0,0,,,,,,,DIVER,HB,z,y,./images/DIVERHB.png,,,,,,,,,,,,,,,,,,,,,0,-0.391357422,-0.326302083,1,0,0,0.7273,button_left_test,0,54,54,93,1
,,,,,,,,,,,,,,,,,6108288fcf5c9a6e1f2d041c,27,2022-02-12_13h47.56.824,lexical_decision_task_DD_L2,2021.2.3,Linux aarch64,60.24822268,,,,,,,,,,0.6589,1,,,,,,,,,,,,,,,,,,,,,,,0.300048828,-0.333897569,1,0,0,,,,,,,SWEAT,HB,m,y,./images/SWEATHB.png,,,,,,,,,,,,,,,,,,,,,0,0.300048828,-0.333897569,1,0,0,0.6589,button_right_test,0,55,55,66,1
,,,,,,,,,,,,,,,,,6108288fcf5c9a6e1f2d041c,27,2022-02-12_13h47.56.824,lexical_decision_task_DD_L2,2021.2.3,Linux aarch64,60.24822268,,,,,,,,,,1.391,0,,,,,,,,,,,,,,,,,,,,,,,0.307861328,-0.337695313,1,0,0,,,,,,,BUNNY,LB,z,y,./images/BUNNYLB.png,,,,,,,,,,,,,,,,,,,,,0,0.307861328,-0.337695313,1,0,0,1.391,button_right_test,0,56,56,97,1
,,,,,,,,,,,,,,,,,6108288fcf5c9a6e1f2d041c,27,2022-02-12_13h47.56.824,lexical_decision_task_DD_L2,2021.2.3,Linux aarch64,60.24822268,,,,,,,,,,0.7612,1,,,,,,,,,,,,,,,,,,,,,,,0.300292969,-0.363194444,1,0,0,,,,,,,TWINS,HB,m,y,./images/TWINSHB.png,,,,,,,,,,,,,,,,,,,,,0,0.300292969,-0.363194444,1,0,0,0.7612,button_right_test,0,57,57,60,1
,,,,,,,,,,,,,,,,,6108288fcf5c9a6e1f2d041c,27,2022-02-12_13h47.56.824,lexical_decision_task_DD_L2,2021.2.3,Linux aarch64,60.24822268,,,,,,,,,,0.7775,1,,,,,,,,,,,,,,,,,,,,,,,0.303222656,-0.36156684,1,0,0,,,,,,,WALRUS,C,m,y,./images/WALRUS.png,,,,,,,,,,,,,,,,,,,,,0,0.303222656,-0.36156684,1,0,0,0.7775,button_right_test,0,58,58,23,1
,,,,,,,,,,,,,,,,,6108288fcf5c9a6e1f2d041c,27,2022-02-12_13h47.56.824,lexical_decision_task_DD_L2,2021.2.3,Linux aarch64,60.24822268,,,,,,,,,,0.7435,1,,,,,,,,,,,,,,,,,,,,,,,0.290283203,-0.365907118,1,0,0,,,,,,,SHORE,HB,m,y,./images/SHOREHB.png,,,,,,,,,,,,,,,,,,,,,0,0.290283203,-0.365907118,1,0,0,0.7435,button_right_test,0,59,59,12,1
,,,,,,,,,,,,,,,,,6108288fcf5c9a6e1f2d041c,27,2022-02-12_13h47.56.824,lexical_decision_task_DD_L2,2021.2.3,Linux aarch64,60.24822268,,,,,,,,,,0.745,1,,,,,,,,,,,,,,,,,,,,,,,-0.373046875,-0.342578125,1,0,0,,,,,,,ALLEY,LB,z,y,./images/ALLEYLB.png,,,,,,,,,,,,,,,,,,,,,0,-0.373046875,-0.342578125,1,0,0,0.745,button_left_test,0,60,60,139,1
,,,,,,,,,,,,,,,,,6108288fcf5c9a6e1f2d041c,27,2022-02-12_13h47.56.824,lexical_decision_task_DD_L2,2021.2.3,Linux aarch64,60.24822268,,,,,,,,,,0.9099,1,,,,,,,,,,,,,,,,,,,,,,,-0.374267578,-0.318706597,1,0,0,,,,,,,DANCER,HB,z,y,./images/DANCERHB.png,,,,,,,,,,,,,,,,,,,,,0,-0.374267578,-0.318706597,1,0,0,0.9099,button_left_test,0,61,61,105,1
,,,,,,,,,,,,,,,,,6108288fcf5c9a6e1f2d041c,27,2022-02-12_13h47.56.824,lexical_decision_task_DD_L2,2021.2.3,Linux aarch64,60.24822268,,,,,,,,,,0.8744,1,,,,,,,,,,,,,,,,,,,,,,,-0.385742188,-0.342578125,1,0,0,,,,,,,GLOVE,LB,z,y,./images/GLOVELB.png,,,,,,,,,,,,,,,,,,,,,0,-0.385742188,-0.342578125,1,0,0,0.8744,button_left_test,0,62,62,157,1
,,,,,,,,,,,,,,,,,6108288fcf5c9a6e1f2d041c,27,2022-02-12_13h47.56.824,lexical_decision_task_DD_L2,2021.2.3,Linux aarch64,60.24822268,,,,,,,,,,0.6628,1,,,,,,,,,,,,,,,,,,,,,,,0.299316406,-0.365364583,1,0,0,,,,,,,PASTA,C,m,y,./images/PASTA.png,,,,,,,,,,,,,,,,,,,,,0,0.299316406,-0.365364583,1,0,0,0.6628,button_right_test,0,63,63,5,1
,,,,,,,,,,,,,,,,,6108288fcf5c9a6e1f2d041c,27,2022-02-12_13h47.56.824,lexical_decision_task_DD_L2,2021.2.3,Linux aarch64,60.24822268,,,,,,,,,,0.5783,1,,,,,,,,,,,,,,,,,,,,,,,0.293457031,-0.350173611,1,0,0,,,,,,,TOMATO,HB,m,y,./images/TOMATOHB.png,,,,,,,,,,,,,,,,,,,,,0,0.293457031,-0.350173611,1,0,0,0.5783,button_right_test,0,64,64,0,1
,,,,,,,,,,,,,,,,,6108288fcf5c9a6e1f2d041c,27,2022-02-12_13h47.56.824,lexical_decision_task_DD_L2,2021.2.3,Linux aarch64,60.24822268,,,,,,,,,,0.7271,0,,,,,,,,,,,,,,,,,,,,,,,0.295654297,-0.358311632,1,0,0,,,,,,,SAUCE,HB,z,y,./images/SAUCEHB.png,,,,,,,,,,,,,,,,,,,,,0,0.295654297,-0.358311632,1,0,0,0.7271,button_right_test,0,65,65,135,1
,,,,,,,,,,,,,,,,,6108288fcf5c9a6e1f2d041c,27,2022-02-12_13h47.56.824,lexical_decision_task_DD_L2,2021.2.3,Linux aarch64,60.24822268,,,,,,,,,,0.7266,1,,,,,,,,,,,,,,,,,,,,,,,0.293457031,-0.358854167,1,0,0,,,,,,,CRADLE,C,m,y,./images/CRADLE.png,,,,,,,,,,,,,,,,,,,,,0,0.293457031,-0.358854167,1,0,0,0.7266,button_right_test,0,66,66,20,1
,,,,,,,,,,,,,,,,,6108288fcf5c9a6e1f2d041c,27,2022-02-12_13h47.56.824,lexical_decision_task_DD_L2,2021.2.3,Linux aarch64,60.24822268,,,,,,,,,,1.5559,1,,,,,,,,,,,,,,,,,,,,,,,-0.359619141,-0.347460938,1,0,0,,,,,,,FLASK,HB,z,y,./images/FLASKHB.png,,,,,,,,,,,,,,,,,,,,,0,-0.359619141,-0.347460938,1,0,0,1.5559,button_left_test,0,67,67,156,1
,,,,,,,,,,,,,,,,,6108288fcf5c9a6e1f2d041c,27,2022-02-12_13h47.56.824,lexical_decision_task_DD_L2,2021.2.3,Linux aarch64,60.24822268,,,,,,,,,,0.6929,1,,,,,,,,,,,,,,,,,,,,,,,0.318847656,-0.363194444,1,0,0,,,,,,,WEASEL,C,m,y,./images/WEASEL.png,,,,,,,,,,,,,,,,,,,,,0,0.318847656,-0.363194444,1,0,0,0.6929,button_right_test,0,68,68,80,1
,,,,,,,,,,,,,,,,,6108288fcf5c9a6e1f2d041c,27,2022-02-12_13h47.56.824,lexical_decision_task_DD_L2,2021.2.3,Linux aarch64,60.24822268,,,,,,,,,,0.8101,1,,,,,,,,,,,,,,,,,,,,,,,-0.393310547,-0.353428819,1,0,0,,,,,,,TIGER,LB,z,y,./images/TIGERLB.png,,,,,,,,,,,,,,,,,,,,,0,-0.393310547,-0.353428819,1,0,0,0.8101,button_left_test,0,69,69,121,1
,,,,,,,,,,,,,,,,,6108288fcf5c9a6e1f2d041c,27,2022-02-12_13h47.56.824,lexical_decision_task_DD_L2,2021.2.3,Linux aarch64,60.24822268,,,,,,,,,,0.7445,1,,,,,,,,,,,,,,,,,,,,,,,0.319824219,-0.363194444,1,0,0,,,,,,,JUNGLE,C,m,y,./images/JUNGLE.png,,,,,,,,,,,,,,,,,,,,,0,0.319824219,-0.363194444,1,0,0,0.7445,button_right_test,0,70,70,83,1
,,,,,,,,,,,,,,,,,6108288fcf5c9a6e1f2d041c,27,2022-02-12_13h47.56.824,lexical_decision_task_DD_L2,2021.2.3,Linux aarch64,60.24822268,,,,,,,,,,0.9102,1,,,,,,,,,,,,,,,,,,,,,,,-0.401123047,-0.340950521,1,0,0,,,,,,,PISTOL,C,z,y,./images/PISTOL.png,,,,,,,,,,,,,,,,,,,,,0,-0.401123047,-0.340950521,1,0,0,0.9102,button_left_test,0,71,71,113,1
,,,,,,,,,,,,,,,,,6108288fcf5c9a6e1f2d041c,27,2022-02-12_13h47.56.824,lexical_decision_task_DD_L2,2021.2.3,Linux aarch64,60.24822268,,,,,,,,,,0.7441,1,,,,,,,,,,,,,,,,,,,,,,,-0.401855469,-0.333897569,1,0,0,,,,,,,STEAK,LB,z,y,./images/STEAKLB.png,,,,,,,,,,,,,,,,,,,,,0,-0.401855469,-0.333897569,1,0,0,0.7441,button_left_test,0,72,72,115,1
,,,,,,,,,,,,,,,,,6108288fcf5c9a6e1f2d041c,27,2022-02-12_13h47.56.824,lexical_decision_task_DD_L2,2021.2.3,Linux aarch64,60.24822268,,,,,,,,,,0.7816,1,,,,,,,,,,,,,,,,,,,,,,,0.315917969,-0.350173611,1,0,0,,,,,,,BABOON,LB,m,y,./images/BABOONLB.png,,,,,,,,,,,,,,,,,,,,,0,0.315917969,-0.350173611,1,0,0,0.7816,button_right_test,0,73,73,58,1
,,,,,,,,,,,,,,,,,6108288fcf5c9a6e1f2d041c,27,2022-02-12_13h47.56.824,lexical_decision_task_DD_L2,2021.2.3,Linux aarch64,60.24822268,,,,,,,,,,0.9251,1,,,,,,,,,,,,,,,,,,,,,,,-0.369384766,-0.34312066,1,0,0,,,,,,,MEDAL,C,z,y,./images/MEDAL.png,,,,,,,,,,,,,,,,,,,,,0,-0.369384766,-0.34312066,1,0,0,0.9251,button_left_test,0,74,74,95,1
,,,,,,,,,,,,,,,,,6108288fcf5c9a6e1f2d041c,27,2022-02-12_13h47.56.824,lexical_decision_task_DD_L2,2021.2.3,Linux aarch64,60.24822268,,,,,,,,,,0.744,1,,,,,,,,,,,,,,,,,,,,,,,-0.385253906,-0.291579861,1,0,0,,,,,,,ENGINE,C,z,y,./images/ENGINE.png,,,,,,,,,,,,,,,,,,,,,0,-0.385253906,-0.291579861,1,0,0,0.744,button_left_test,0,75,75,122,1
,,,,,,,,,,,,,,,,,6108288fcf5c9a6e1f2d041c,27,2022-02-12_13h47.56.824,lexical_decision_task_DD_L2,2021.2.3,Linux aarch64,60.24822268,,,,,,,,,,0.6939,1,,,,,,,,,,,,,,,,,,,,,,,-0.370361328,-0.36265191,1,0,0,,,,,,,DRILL,HB,z,y,./images/DRILLHB.png,,,,,,,,,,,,,,,,,,,,,0,-0.370361328,-0.36265191,1,0,0,0.6939,button_left_test,0,76,76,165,1
,,,,,,,,,,,,,,,,,6108288fcf5c9a6e1f2d041c,27,2022-02-12_13h47.56.824,lexical_decision_task_DD_L2,2021.2.3,Linux aarch64,60.24822268,,,,,,,,,,0.9098,0,,,,,,,,,,,,,,,,,,,,,,,0.3046875,-0.378927951,1,0,0,,,,,,,FERRY,HB,z,y,./images/FERRYHB.png,,,,,,,,,,,,,,,,,,,,,0,0.3046875,-0.378927951,1,0,0,0.9098,button_right_test,0,77,77,141,1
,,,,,,,,,,,,,,,,,6108288fcf5c9a6e1f2d041c,27,2022-02-12_13h47.56.824,lexical_decision_task_DD_L2,2021.2.3,Linux aarch64,60.24822268,,,,,,,,,,1.0594,1,,,,,,,,,,,,,,,,,,,,,,,-0.366455078,-0.350716146,1,0,0,,,,,,,BANANA,LB,z,y,./images/BANANALB.png,,,,,,,,,,,,,,,,,,,,,0,-0.366455078,-0.350716146,1,0,0,1.0594,button_left_test,0,78,78,154,1
,,,,,,,,,,,,,,,,,6108288fcf5c9a6e1f2d041c,27,2022-02-12_13h47.56.824,lexical_decision_task_DD_L2,2021.2.3,Linux aarch64,60.24822268,,,,,,,,,,1.0423,0,,,,,,,,,,,,,,,,,,,,,,,0.293945313,-0.346918403,1,0,0,,,,,,,BASKET,C,z,y,./images/BASKET.png,,,,,,,,,,,,,,,,,,,,,0,0.293945313,-0.346918403,1,0,0,1.0423,button_right_test,0,79,79,128,1
,,,,,,,,,,,,,,,,,6108288fcf5c9a6e1f2d041c,27,2022-02-12_13h47.56.824,lexical_decision_task_DD_L2,2021.2.3,Linux aarch64,60.24822268,,,,,,,,,,0.9605,0,,,,,,,,,,,,,,,,,,,,,,,0.306396484,-0.346918403,1,0,0,,,,,,,RAZOR,LB,z,y,./images/RAZORLB.png,,,,,,,,,,,,,,,,,,,,,0,0.306396484,-0.346918403,1,0,0,0.9605,button_right_test,0,80,80,118,1
,,,,,,,,,,,,,,,,,6108288fcf5c9a6e1f2d041c,27,2022-02-12_13h47.56.824,lexical_decision_task_DD_L2,2021.2.3,Linux aarch64,60.24822268,,,,,,,,,,0.628,0,,,,,,,,,,,,,,,,,,,,,,,0.305664063,-0.352886285,1,0,0,,,,,,,BUTTER,HB,z,y,./images/BUTTERHB.png,,,,,,,,,,,,,,,,,,,,,0,0.305664063,-0.352886285,1,0,0,0.628,button_right_test,0,81,81,111,1
,,,,,,,,,,,,,,,,,6108288fcf5c9a6e1f2d041c,27,2022-02-12_13h47.56.824,lexical_decision_task_DD_L2,2021.2.3,Linux aarch64,60.24822268,,,,,,,,,,0.814,1,,,,,,,,,,,,,,,,,,,,,,,0.307373047,-0.357226563,1,0,0,,,,,,,LITTER,HB,m,y,./images/LITTERHB.png,,,,,,,,,,,,,,,,,,,,,0,0.307373047,-0.357226563,1,0,0,0.814,button_right_test,0,82,82,78,1
,,,,,,,,,,,,,,,,,6108288fcf5c9a6e1f2d041c,27,2022-02-12_13h47.56.824,lexical_decision_task_DD_L2,2021.2.3,Linux aarch64,60.24822268,,,,,,,,,,0.7931,1,,,,,,,,,,,,,,,,,,,,,,,0.154296875,-0.435351563,1,0,0,,,,,,,ARTIST,LB,z,y,./images/ARTISTLB.png,break_done_button,,,,,,,,,,,,,,,,,,,,0,-0.373291016,-0.361024306,1,0,0,0.7931,button_left_test,0,83,83,145,1
,,,,,,,,,,,,,,,,,6108288fcf5c9a6e1f2d041c,27,2022-02-12_13h47.56.824,lexical_decision_task_DD_L2,2021.2.3,Linux aarch64,60.24822268,,,,,,,,,,0.7611,1,,,,,,,,,,,,,,,,,,,,,,,0.299560547,-0.357769097,1,0,0,,,,,,,PACKET,C,m,y,./images/PACKET.png,,,,,,,,,,,,,,,,,,,,,0,0.299560547,-0.357769097,1,0,0,0.7611,button_right_test,0,84,84,56,1
,,,,,,,,,,,,,,,,,6108288fcf5c9a6e1f2d041c,27,2022-02-12_13h47.56.824,lexical_decision_task_DD_L2,2021.2.3,Linux aarch64,60.24822268,,,,,,,,,,0.7616,1,,,,,,,,,,,,,,,,,,,,,,,0.322753906,-0.363194444,1,0,0,,,,,,,CEMENT,C,m,y,./images/CEMENT.png,,,,,,,,,,,,,,,,,,,,,0,0.322753906,-0.363194444,1,0,0,0.7616,button_right_test,0,85,85,74,1
,,,,,,,,,,,,,,,,,6108288fcf5c9a6e1f2d041c,27,2022-02-12_13h47.56.824,lexical_decision_task_DD_L2,2021.2.3,Linux aarch64,60.24822268,,,,,,,,,,0.7098,1,,,,,,,,,,,,,,,,,,,,,,,0.319091797,-0.363736979,1,0,0,,,,,,,CARPET,C,m,y,./images/CARPET.png,,,,,,,,,,,,,,,,,,,,,0,0.319091797,-0.363736979,1,0,0,0.7098,button_right_test,0,86,86,53,1
,,,,,,,,,,,,,,,,,6108288fcf5c9a6e1f2d041c,27,2022-02-12_13h47.56.824,lexical_decision_task_DD_L2,2021.2.3,Linux aarch64,60.24822268,,,,,,,,,,0.5777,1,,,,,,,,,,,,,,,,,,,,,,,0.314941406,-0.355056424,1,0,0,,,,,,,MELON,LB,m,y,./images/MELONLB.png,,,,,,,,,,,,,,,,,,,,,0,0.314941406,-0.355056424,1,0,0,0.5777,button_right_test,0,87,87,22,1
