key_resp.keys,key_resp.rt,instr_done_touch.x,instr_done_touch.y,instr_done_touch.leftButton,instr_done_touch.midButton,instr_done_touch.rightButton,instruction_pages.thisRepN,instruction_pages.thisTrialN,instruction_pages.thisN,instruction_pages.thisIndex,instruction_pages.ran,pageN,phase,instruct_text,has_image,instruct_image,participant,age,date,expName,psychopyVersion,OS,frameRate,response.keys,response.corr,response.rt,touch_resp.x,touch_resp.y,touch_resp.leftButton,touch_resp.midButton,touch_resp.rightButton,touch_resp.time,touch_resp.clicked_name,rt,corr,practrials.thisRepN,practrials.thisTrialN,practrials.thisN,practrials.thisIndex,practrials.ran,TrialID,Target,corrAns,instr_done_touch.clicked_name,end_of_practice_trials_pages.thisRepN,end_of_practice_trials_pages.thisTrialN,end_of_practice_trials_pages.thisN,end_of_practice_trials_pages.thisIndex,end_of_practice_trials_pages.ran,key_resp_2.keys,key_resp_2.corr,key_resp_2.rt,targ_click.x,targ_click.y,targ_click.leftButton,targ_click.midButton,targ_click.rightButton,targ_click.time,targ_click.clicked_name,break_done_touch.x,break_done_touch.y,break_done_touch.leftButton,break_done_touch.midButton,break_done_touch.rightButton,break_done_keyboard.keys,maintrials.thisRepN,maintrials.thisTrialN,maintrials.thisN,maintrials.thisIndex,maintrials.ran,string,blur,study,lex,stim_path,break_done_touch.clicked_name,mouse_2.x,mouse_2.y,mouse_2.leftButton,mouse_2.midButton,mouse_2.rightButton,mouse_2.clicked_name,slider.response,slider.rt,trials.thisRepN,trials.thisTrialN,trials.thisN,trials.thisIndex,trials.ran,test_instructions.thisRepN,test_instructions.thisTrialN,test_instructions.thisN,test_instructions.thisIndex,test_instructions.ran,key_resp_3.keys,key_resp_3.corr,key_resp_3.rt,test_click.x,test_click.y,test_click.leftButton,test_click.midButton,test_click.rightButton,test_click.time,test_click.clicked_name,test_phase.thisRepN,test_phase.thisTrialN,test_phase.thisN,test_phase.thisIndex,test_phase.ran,break_done_keyboard.rt
space,20.2396,0.075421007,-0.417057292,0,0,0,0,0,0,0,1,1,instructions,"INSTRUCTIONS
At the start of each trial, look at the plus sign  (+) in the center of the screen.  This tells you that a trial is about to begin and where to look. Second, the plus sign will disappear and a string of letters will appear. Your task is to determine if the string of letters is a word or not. If the item is a word press the M key (on keyboard)  or touch the word button (phone/tablet).  If the item is not a word,  press the  Z key (on keyboard)  or touch the nonword button (on phone/tablet). 
Press the space bar or touch  continue.",0,,6108c363c95fc665a5d08c32,19,2022-02-12_17h41.45.617,lexical_decision_task_DD_L3,2021.2.3,MacIntel,60.0024001,,,,,,,,,,,,,,,,,,,,,,,,,,,,,,,,,,,,,,,,,,,,,,,,,,,,,,,,,,,,,,,,,,,,,,,,,,,,,,,,,,,,,,,
space,6.9028,0.585842014,-0.184561632,0,0,0,0,1,1,1,1,2,instructions,"If your device has a keyboard, press the 'Z' key for nonwords and the 'M' key for words.





Press the space bar or touch the button below to continue.",0,keyboard-example.gif,6108c363c95fc665a5d08c32,19,2022-02-12_17h41.45.617,lexical_decision_task_DD_L3,2021.2.3,MacIntel,60.0024001,,,,,,,,,,,,,,,,,,,,,,,,,,,,,,,,,,,,,,,,,,,,,,,,,,,,,,,,,,,,,,,,,,,,,,,,,,,,,,,,,,,,,,,
space,1.0965,0.585842014,-0.184561632,0,0,0,0,2,2,2,1,3,instructions,"If you are using a touchscreen only device, use the buttons on the screen. Do not use the mouse.





Press the space bar or touch the button below to continue.",0,touchscreen-example.gif,6108c363c95fc665a5d08c32,19,2022-02-12_17h41.45.617,lexical_decision_task_DD_L3,2021.2.3,MacIntel,60.0024001,,,,,,,,,,,,,,,,,,,,,,,,,,,,,,,,,,,,,,,,,,,,,,,,,,,,,,,,,,,,,,,,,,,,,,,,,,,,,,,,,,,,,,,
space,9.2205,0.585842014,-0.184561632,0,0,0,0,3,3,3,1,4,instructions,"It is very important that you respond as quickly and accurately as possible, as each letter string will only be on the screen for two seconds. If you do not respond within this time, the message 'Too slow!' will be displayed and the experiment will progress to the next letter string. The first 20 trials will be practice trials and you will receive feedback on your answers. 

Press the space bar or touch the button below to start the practice trials.",0,,6108c363c95fc665a5d08c32,19,2022-02-12_17h41.45.617,lexical_decision_task_DD_L3,2021.2.3,MacIntel,60.0024001,,,,,,,,,,,,,,,,,,,,,,,,,,,,,,,,,,,,,,,,,,,,,,,,,,,,,,,,,,,,,,,,,,,,,,,,,,,,,,,,,,,,,,,
,,,,,,,,,,,,,,,,,6108c363c95fc665a5d08c32,19,2022-02-12_17h41.45.617,lexical_decision_task_DD_L3,2021.2.3,MacIntel,60.0024001,m,1,0.9159,,,,,,,,0.9159,1,0,0,0,5,1,1001,OBTAIN,m,,,,,,,,,,,,,,,,,,,,,,,,,,,,,,,,,,,,,,,,,,,,,,,,,,,,,,,,,,,,,,,,,,,
,,,,,,,,,,,,,,,,,6108c363c95fc665a5d08c32,19,2022-02-12_17h41.45.617,lexical_decision_task_DD_L3,2021.2.3,MacIntel,60.0024001,m,1,0.5096,,,,,,,,0.5096,1,0,1,1,7,1,1001,VOLUME,m,,,,,,,,,,,,,,,,,,,,,,,,,,,,,,,,,,,,,,,,,,,,,,,,,,,,,,,,,,,,,,,,,,,
,,,,,,,,,,,,,,,,,6108c363c95fc665a5d08c32,19,2022-02-12_17h41.45.617,lexical_decision_task_DD_L3,2021.2.3,MacIntel,60.0024001,m,0,0.7175,,,,,,,,0.7175,0,0,2,2,8,1,1001,ASLERT,z,,,,,,,,,,,,,,,,,,,,,,,,,,,,,,,,,,,,,,,,,,,,,,,,,,,,,,,,,,,,,,,,,,,
,,,,,,,,,,,,,,,,,6108c363c95fc665a5d08c32,19,2022-02-12_17h41.45.617,lexical_decision_task_DD_L3,2021.2.3,MacIntel,60.0024001,z,1,0.7068,,,,,,,,0.7068,1,0,3,3,13,1,1001,ROUPET,z,,,,,,,,,,,,,,,,,,,,,,,,,,,,,,,,,,,,,,,,,,,,,,,,,,,,,,,,,,,,,,,,,,,
,,,,,,,,,,,,,,,,,6108c363c95fc665a5d08c32,19,2022-02-12_17h41.45.617,lexical_decision_task_DD_L3,2021.2.3,MacIntel,60.0024001,m,1,0.6261,,,,,,,,0.6261,1,0,4,4,3,1,1001,MATRIX,m,,,,,,,,,,,,,,,,,,,,,,,,,,,,,,,,,,,,,,,,,,,,,,,,,,,,,,,,,,,,,,,,,,,
,,,,,,,,,,,,,,,,,6108c363c95fc665a5d08c32,19,2022-02-12_17h41.45.617,lexical_decision_task_DD_L3,2021.2.3,MacIntel,60.0024001,z,1,1.3087,,,,,,,,1.3087,1,0,5,5,9,1,1001,FARINY,z,,,,,,,,,,,,,,,,,,,,,,,,,,,,,,,,,,,,,,,,,,,,,,,,,,,,,,,,,,,,,,,,,,,
,,,,,,,,,,,,,,,,,6108c363c95fc665a5d08c32,19,2022-02-12_17h41.45.617,lexical_decision_task_DD_L3,2021.2.3,MacIntel,60.0024001,m,1,0.6362,,,,,,,,0.6362,1,0,6,6,1,1,1001,ADJUST,m,,,,,,,,,,,,,,,,,,,,,,,,,,,,,,,,,,,,,,,,,,,,,,,,,,,,,,,,,,,,,,,,,,,
,,,,,,,,,,,,,,,,,6108c363c95fc665a5d08c32,19,2022-02-12_17h41.45.617,lexical_decision_task_DD_L3,2021.2.3,MacIntel,60.0024001,m,1,0.6403,,,,,,,,0.6403,1,0,7,7,4,1,1001,SQUEAK,m,,,,,,,,,,,,,,,,,,,,,,,,,,,,,,,,,,,,,,,,,,,,,,,,,,,,,,,,,,,,,,,,,,,
,,,,,,,,,,,,,,,,,6108c363c95fc665a5d08c32,19,2022-02-12_17h41.45.617,lexical_decision_task_DD_L3,2021.2.3,MacIntel,60.0024001,z,1,0.6538,,,,,,,,0.6538,1,0,8,8,11,1,1001,RASHET,z,,,,,,,,,,,,,,,,,,,,,,,,,,,,,,,,,,,,,,,,,,,,,,,,,,,,,,,,,,,,,,,,,,,
,,,,,,,,,,,,,,,,,6108c363c95fc665a5d08c32,19,2022-02-12_17h41.45.617,lexical_decision_task_DD_L3,2021.2.3,MacIntel,60.0024001,m,1,0.5448,,,,,,,,0.5448,1,0,9,9,6,1,1001,ZOMBIE,m,,,,,,,,,,,,,,,,,,,,,,,,,,,,,,,,,,,,,,,,,,,,,,,,,,,,,,,,,,,,,,,,,,,
,,,,,,,,,,,,,,,,,6108c363c95fc665a5d08c32,19,2022-02-12_17h41.45.617,lexical_decision_task_DD_L3,2021.2.3,MacIntel,60.0024001,z,1,0.7222,,,,,,,,0.7222,1,0,10,10,12,1,1001,SPRINY,z,,,,,,,,,,,,,,,,,,,,,,,,,,,,,,,,,,,,,,,,,,,,,,,,,,,,,,,,,,,,,,,,,,,
,,,,,,,,,,,,,,,,,6108c363c95fc665a5d08c32,19,2022-02-12_17h41.45.617,lexical_decision_task_DD_L3,2021.2.3,MacIntel,60.0024001,m,1,0.7518,,,,,,,,0.7518,1,0,11,11,0,1,1001,UTOPIA,m,,,,,,,,,,,,,,,,,,,,,,,,,,,,,,,,,,,,,,,,,,,,,,,,,,,,,,,,,,,,,,,,,,,
,,,,,,,,,,,,,,,,,6108c363c95fc665a5d08c32,19,2022-02-12_17h41.45.617,lexical_decision_task_DD_L3,2021.2.3,MacIntel,60.0024001,z,1,0.8084,,,,,,,,0.8084,1,0,12,12,14,1,1001,THRALE,z,,,,,,,,,,,,,,,,,,,,,,,,,,,,,,,,,,,,,,,,,,,,,,,,,,,,,,,,,,,,,,,,,,,
,,,,,,,,,,,,,,,,,6108c363c95fc665a5d08c32,19,2022-02-12_17h41.45.617,lexical_decision_task_DD_L3,2021.2.3,MacIntel,60.0024001,m,1,0.5573,,,,,,,,0.5573,1,0,13,13,2,1,1001,ALMOND,m,,,,,,,,,,,,,,,,,,,,,,,,,,,,,,,,,,,,,,,,,,,,,,,,,,,,,,,,,,,,,,,,,,,
,,,,,,,,,,,,,,,,,6108c363c95fc665a5d08c32,19,2022-02-12_17h41.45.617,lexical_decision_task_DD_L3,2021.2.3,MacIntel,60.0024001,z,1,0.6418,,,,,,,,0.6418,1,0,14,14,15,1,1001,WHAISE,z,,,,,,,,,,,,,,,,,,,,,,,,,,,,,,,,,,,,,,,,,,,,,,,,,,,,,,,,,,,,,,,,,,,
,,,,,,,,,,,,,,,,,6108c363c95fc665a5d08c32,19,2022-02-12_17h41.45.617,lexical_decision_task_DD_L3,2021.2.3,MacIntel,60.0024001,z,1,0.7415,,,,,,,,0.7415,1,0,15,15,10,1,1001,INLADE,z,,,,,,,,,,,,,,,,,,,,,,,,,,,,,,,,,,,,,,,,,,,,,,,,,,,,,,,,,,,,,,,,,,,
,,0.099144965,-0.397296007,1,0,0,,,,,,1,end_of_practice,"You have completed the practice trials. During the experimental trials, you will not receive feedback. 
Before you begin, please ensure that you are in a comfortable and quiet location and will not be disturbed for about 15 minutes, as we cannot use your data if you do not complete all the trials. 
 When you are ready to start the experimental trials, please press space or touch the button below.",,,6108c363c95fc665a5d08c32,19,2022-02-12_17h41.45.617,lexical_decision_task_DD_L3,2021.2.3,MacIntel,60.0024001,,,,,,,,,,,,,,,,,,,,,instr_done_button,0,0,0,0,1,,,,,,,,,,,,,,,,,,,,,,,,,,,,,,,,,,,,,,,,,,,,,,,,,,,,,,,,,,,,,
,,,,,,,,,,,,,,,,,6108c363c95fc665a5d08c32,19,2022-02-12_17h41.45.617,lexical_decision_task_DD_L3,2021.2.3,MacIntel,60.0024001,,,,,,,,,,,0.9158,1,,,,,,,,,,,,,,,m,1,0.9158,,,,,,,,0.421532118,-0.243732639,0,0,0,,0,0,0,14,1,PICKLE,HB,old,m,./images/PICKLEHB.png,,,,,,,,,,,,,,,,,,,,,,,,,,,,,,,,,,,
,,,,,,,,,,,,,,,,,6108c363c95fc665a5d08c32,19,2022-02-12_17h41.45.617,lexical_decision_task_DD_L3,2021.2.3,MacIntel,60.0024001,,,,,,,,,,,0.6949,1,,,,,,,,,,,,,,,z,1,0.6949,,,,,,,,0.421532118,-0.243732639,0,0,0,,0,1,1,131,1,NACES,LB,old,z,./images/NACESLB.png,,,,,,,,,,,,,,,,,,,,,,,,,,,,,,,,,,,
,,,,,,,,,,,,,,,,,6108c363c95fc665a5d08c32,19,2022-02-12_17h41.45.617,lexical_decision_task_DD_L3,2021.2.3,MacIntel,60.0024001,,,,,,,,,,,0.7856,1,,,,,,,,,,,,,,,z,1,0.7856,,,,,,,,0.421532118,-0.243732639,0,0,0,,0,2,2,147,1,ZOLES,C,old,z,./images/ZOLES.png,,,,,,,,,,,,,,,,,,,,,,,,,,,,,,,,,,,
,,,,,,,,,,,,,,,,,6108c363c95fc665a5d08c32,19,2022-02-12_17h41.45.617,lexical_decision_task_DD_L3,2021.2.3,MacIntel,60.0024001,,,,,,,,,,,0.6295,0,,,,,,,,,,,,,,,m,0,0.6295,,,,,,,,0.421532118,-0.243732639,0,0,0,,0,3,3,100,1,DRIBS,HB,old,z,./images/DRIBSHB.png,,,,,,,,,,,,,,,,,,,,,,,,,,,,,,,,,,,
,,,,,,,,,,,,,,,,,6108c363c95fc665a5d08c32,19,2022-02-12_17h41.45.617,lexical_decision_task_DD_L3,2021.2.3,MacIntel,60.0024001,,,,,,,,,,,0.593,1,,,,,,,,,,,,,,,m,1,0.593,,,,,,,,0.421532118,-0.243732639,0,0,0,,0,4,4,62,1,PURSE,HB,old,m,./images/PURSEHB.png,,,,,,,,,,,,,,,,,,,,,,,,,,,,,,,,,,,
,,,,,,,,,,,,,,,,,6108c363c95fc665a5d08c32,19,2022-02-12_17h41.45.617,lexical_decision_task_DD_L3,2021.2.3,MacIntel,60.0024001,,,,,,,,,,,0.6772,1,,,,,,,,,,,,,,,z,1,0.6772,,,,,,,,0.421532118,-0.243732639,0,0,0,,0,5,5,113,1,LINEW,LB,old,z,./images/LINEWLB.png,,,,,,,,,,,,,,,,,,,,,,,,,,,,,,,,,,,
,,,,,,,,,,,,,,,,,6108c363c95fc665a5d08c32,19,2022-02-12_17h41.45.617,lexical_decision_task_DD_L3,2021.2.3,MacIntel,60.0024001,,,,,,,,,,,1.0326,1,,,,,,,,,,,,,,,z,1,1.0326,,,,,,,,0.421532118,-0.243732639,0,0,0,,0,6,6,107,1,FASKS,LB,old,z,./images/FASKSLB.png,,,,,,,,,,,,,,,,,,,,,,,,,,,,,,,,,,,
,,,,,,,,,,,,,,,,,6108c363c95fc665a5d08c32,19,2022-02-12_17h41.45.617,lexical_decision_task_DD_L3,2021.2.3,MacIntel,60.0024001,,,,,,,,,,,0.6009,1,,,,,,,,,,,,,,,m,1,0.6009,,,,,,,,0.421532118,-0.243732639,0,0,0,,0,7,7,10,1,BELLY,C,old,m,./images/BELLY.png,,,,,,,,,,,,,,,,,,,,,,,,,,,,,,,,,,,
,,,,,,,,,,,,,,,,,6108c363c95fc665a5d08c32,19,2022-02-12_17h41.45.617,lexical_decision_task_DD_L3,2021.2.3,MacIntel,60.0024001,,,,,,,,,,,0.7593,1,,,,,,,,,,,,,,,z,1,0.7593,,,,,,,,0.421532118,-0.243732639,0,0,0,,0,8,8,122,1,BLOOT,LB,old,z,./images/BLOOTLB.png,,,,,,,,,,,,,,,,,,,,,,,,,,,,,,,,,,,
,,,,,,,,,,,,,,,,,6108c363c95fc665a5d08c32,19,2022-02-12_17h41.45.617,lexical_decision_task_DD_L3,2021.2.3,MacIntel,60.0024001,,,,,,,,,,,0.7758,1,,,,,,,,,,,,,,,m,1,0.7758,,,,,,,,0.421532118,-0.243732639,0,0,0,,0,9,9,9,1,RHINO,LB,old,m,./images/RHINOLB.png,,,,,,,,,,,,,,,,,,,,,,,,,,,,,,,,,,,
,,,,,,,,,,,,,,,,,6108c363c95fc665a5d08c32,19,2022-02-12_17h41.45.617,lexical_decision_task_DD_L3,2021.2.3,MacIntel,60.0024001,,,,,,,,,,,0.6091,1,,,,,,,,,,,,,,,m,1,0.6091,,,,,,,,0.421532118,-0.243732639,0,0,0,,0,10,10,3,1,FINGER,LB,old,m,./images/FINGERLB.png,,,,,,,,,,,,,,,,,,,,,,,,,,,,,,,,,,,
,,,,,,,,,,,,,,,,,6108c363c95fc665a5d08c32,19,2022-02-12_17h41.45.617,lexical_decision_task_DD_L3,2021.2.3,MacIntel,60.0024001,,,,,,,,,,,0.7464,1,,,,,,,,,,,,,,,m,1,0.7464,,,,,,,,0.421532118,-0.243732639,0,0,0,,0,11,11,68,1,TORCH,HB,old,m,./images/TORCHHB.png,,,,,,,,,,,,,,,,,,,,,,,,,,,,,,,,,,,
,,,,,,,,,,,,,,,,,6108c363c95fc665a5d08c32,19,2022-02-12_17h41.45.617,lexical_decision_task_DD_L3,2021.2.3,MacIntel,60.0024001,,,,,,,,,,,0.6271,1,,,,,,,,,,,,,,,z,1,0.6271,,,,,,,,0.421532118,-0.243732639,0,0,0,,0,12,12,129,1,PRANS,C,old,z,./images/PRANS.png,,,,,,,,,,,,,,,,,,,,,,,,,,,,,,,,,,,
,,,,,,,,,,,,,,,,,6108c363c95fc665a5d08c32,19,2022-02-12_17h41.45.617,lexical_decision_task_DD_L3,2021.2.3,MacIntel,60.0024001,,,,,,,,,,,0.659,1,,,,,,,,,,,,,,,z,1,0.659,,,,,,,,0.421532118,-0.243732639,0,0,0,,0,13,13,138,1,PLICE,C,old,z,./images/PLICE.png,,,,,,,,,,,,,,,,,,,,,,,,,,,,,,,,,,,
,,,,,,,,,,,,,,,,,6108c363c95fc665a5d08c32,19,2022-02-12_17h41.45.617,lexical_decision_task_DD_L3,2021.2.3,MacIntel,60.0024001,,,,,,,,,,,0.9116,1,,,,,,,,,,,,,,,m,1,0.9116,,,,,,,,0.421532118,-0.243732639,0,0,0,,0,14,14,72,1,NOOSE,LB,old,m,./images/NOOSELB.png,,,,,,,,,,,,,,,,,,,,,,,,,,,,,,,,,,,
,,,,,,,,,,,,,,,,,6108c363c95fc665a5d08c32,19,2022-02-12_17h41.45.617,lexical_decision_task_DD_L3,2021.2.3,MacIntel,60.0024001,,,,,,,,,,,0.5855,1,,,,,,,,,,,,,,,m,1,0.5855,,,,,,,,0.421532118,-0.243732639,0,0,0,,0,15,15,46,1,PEARL,C,old,m,./images/PEARL.png,,,,,,,,,,,,,,,,,,,,,,,,,,,,,,,,,,,
,,,,,,,,,,,,,,,,,6108c363c95fc665a5d08c32,19,2022-02-12_17h41.45.617,lexical_decision_task_DD_L3,2021.2.3,MacIntel,60.0024001,,,,,,,,,,,0.613,1,,,,,,,,,,,,,,,z,1,0.613,,,,,,,,0.421532118,-0.243732639,0,0,0,,0,16,16,116,1,BALGY,LB,old,z,./images/BALGYLB.png,,,,,,,,,,,,,,,,,,,,,,,,,,,,,,,,,,,
,,,,,,,,,,,,,,,,,6108c363c95fc665a5d08c32,19,2022-02-12_17h41.45.617,lexical_decision_task_DD_L3,2021.2.3,MacIntel,60.0024001,,,,,,,,,,,0.8288,0,,,,,,,,,,,,,,,m,0,0.8288,,,,,,,,0.421532118,-0.243732639,0,0,0,,0,17,17,110,1,CRUNK,LB,old,z,./images/CRUNKLB.png,,,,,,,,,,,,,,,,,,,,,,,,,,,,,,,,,,,
,,,,,,,,,,,,,,,,,6108c363c95fc665a5d08c32,19,2022-02-12_17h41.45.617,lexical_decision_task_DD_L3,2021.2.3,MacIntel,60.0024001,,,,,,,,,,,0.7188,1,,,,,,,,,,,,,,,m,1,0.7188,,,,,,,,0.421532118,-0.243732639,0,0,0,,0,18,18,82,1,SUNSET,C,old,m,./images/SUNSET.png,,,,,,,,,,,,,,,,,,,,,,,,,,,,,,,,,,,
,,,,,,,,,,,,,,,,,6108c363c95fc665a5d08c32,19,2022-02-12_17h41.45.617,lexical_decision_task_DD_L3,2021.2.3,MacIntel,60.0024001,,,,,,,,,,,0.6688,1,,,,,,,,,,,,,,,z,1,0.6688,,,,,,,,0.421532118,-0.243732639,0,0,0,,0,19,19,102,1,DULLE,C,old,z,./images/DULLE.png,,,,,,,,,,,,,,,,,,,,,,,,,,,,,,,,,,,
,,,,,,,,,,,,,,,,,6108c363c95fc665a5d08c32,19,2022-02-12_17h41.45.617,lexical_decision_task_DD_L3,2021.2.3,MacIntel,60.0024001,,,,,,,,,,,0.6794,1,,,,,,,,,,,,,,,m,1,0.6794,,,,,,,,0.421532118,-0.243732639,0,0,0,,0,20,20,45,1,KITTEN,LB,old,m,./images/KITTENLB.png,,,,,,,,,,,,,,,,,,,,,,,,,,,,,,,,,,,
,,,,,,,,,,,,,,,,,6108c363c95fc665a5d08c32,19,2022-02-12_17h41.45.617,lexical_decision_task_DD_L3,2021.2.3,MacIntel,60.0024001,,,,,,,,,,,0.936,1,,,,,,,,,,,,,,,m,1,0.936,,,,,,,,0.421532118,-0.243732639,0,0,0,,0,21,21,58,1,BABOON,C,old,m,./images/BABOON.png,,,,,,,,,,,,,,,,,,,,,,,,,,,,,,,,,,,
,,,,,,,,,,,,,,,,,6108c363c95fc665a5d08c32,19,2022-02-12_17h41.45.617,lexical_decision_task_DD_L3,2021.2.3,MacIntel,60.0024001,,,,,,,,,,,0.6289,1,,,,,,,,,,,,,,,m,1,0.6289,,,,,,,,0.421532118,-0.243732639,0,0,0,,0,22,22,2,1,BEARD,HB,old,m,./images/BEARDHB.png,,,,,,,,,,,,,,,,,,,,,,,,,,,,,,,,,,,
,,,,,,,,,,,,,,,,,6108c363c95fc665a5d08c32,19,2022-02-12_17h41.45.617,lexical_decision_task_DD_L3,2021.2.3,MacIntel,60.0024001,,,,,,,,,,,0.6022,1,,,,,,,,,,,,,,,m,1,0.6022,,,,,,,,0.421532118,-0.243732639,0,0,0,,0,23,23,19,1,DOUGH,C,old,m,./images/DOUGH.png,,,,,,,,,,,,,,,,,,,,,,,,,,,,,,,,,,,
,,,,,,,,,,,,,,,,,6108c363c95fc665a5d08c32,19,2022-02-12_17h41.45.617,lexical_decision_task_DD_L3,2021.2.3,MacIntel,60.0024001,,,,,,,,,,,0.8704,1,,,,,,,,,,,,,,,z,1,0.8704,,,,,,,,0.421532118,-0.243732639,0,0,0,,0,24,24,166,1,SHORY,HB,old,z,./images/SHORYHB.png,,,,,,,,,,,,,,,,,,,,,,,,,,,,,,,,,,,
,,,,,,,,,,,,,,,,,6108c363c95fc665a5d08c32,19,2022-02-12_17h41.45.617,lexical_decision_task_DD_L3,2021.2.3,MacIntel,60.0024001,,,,,,,,,,,0.9375,1,,,,,,,,,,,,,,,z,1,0.9375,,,,,,,,0.421532118,-0.243732639,0,0,0,,0,25,25,93,1,SMONE,C,old,z,./images/SMONE.png,,,,,,,,,,,,,,,,,,,,,,,,,,,,,,,,,,,
,,,,,,,,,,,,,,,,,6108c363c95fc665a5d08c32,19,2022-02-12_17h41.45.617,lexical_decision_task_DD_L3,2021.2.3,MacIntel,60.0024001,,,,,,,,,,,0.9794,1,,,,,,,,,,,,,,,z,1,0.9794,,,,,,,,0.421532118,-0.243732639,0,0,0,,0,26,26,92,1,PAIMS,LB,old,z,./images/PAIMSLB.png,,,,,,,,,,,,,,,,,,,,,,,,,,,,,,,,,,,
,,,,,,,,,,,,,,,,,6108c363c95fc665a5d08c32,19,2022-02-12_17h41.45.617,lexical_decision_task_DD_L3,2021.2.3,MacIntel,60.0024001,,,,,,,,,,,1.3289,0,,,,,,,,,,,,,,,m,0,1.3289,,,,,,,,0.421532118,-0.243732639,0,0,0,,0,27,27,130,1,CRILL,HB,old,z,./images/CRILLHB.png,,,,,,,,,,,,,,,,,,,,,,,,,,,,,,,,,,,
,,,,,,,,,,,,,,,,,6108c363c95fc665a5d08c32,19,2022-02-12_17h41.45.617,lexical_decision_task_DD_L3,2021.2.3,MacIntel,60.0024001,,,,,,,,,,,0.6382,1,,,,,,,,,,,,,,,m,1,0.6382,,,,,,,,0.421532118,-0.243732639,0,0,0,,0,28,28,40,1,SWING,C,old,m,./images/SWING.png,,,,,,,,,,,,,,,,,,,,,,,,,,,,,,,,,,,
,,,,,,,,,,,,,,,,,6108c363c95fc665a5d08c32,19,2022-02-12_17h41.45.617,lexical_decision_task_DD_L3,2021.2.3,MacIntel,60.0024001,,,,,,,,,,,0.6311,1,,,,,,,,,,,,,,,z,1,0.6311,,,,,,,,0.421532118,-0.243732639,0,0,0,,0,29,29,86,1,AIFED,LB,old,z,./images/AIFEDLB.png,,,,,,,,,,,,,,,,,,,,,,,,,,,,,,,,,,,
,,,,,,,,,,,,,,,,,6108c363c95fc665a5d08c32,19,2022-02-12_17h41.45.617,lexical_decision_task_DD_L3,2021.2.3,MacIntel,60.0024001,,,,,,,,,,,0.7876,1,,,,,,,,,,,,,,,z,1,0.7876,,,,,,,,0.421532118,-0.243732639,0,0,0,,0,30,30,165,1,TROWN,C,old,z,./images/TROWN.png,,,,,,,,,,,,,,,,,,,,,,,,,,,,,,,,,,,
,,,,,,,,,,,,,,,,,6108c363c95fc665a5d08c32,19,2022-02-12_17h41.45.617,lexical_decision_task_DD_L3,2021.2.3,MacIntel,60.0024001,,,,,,,,,,,0.6216,1,,,,,,,,,,,,,,,m,1,0.6216,,,,,,,,0.421532118,-0.243732639,0,0,0,,0,31,31,28,1,FALCON,C,old,m,./images/FALCON.png,,,,,,,,,,,,,,,,,,,,,,,,,,,,,,,,,,,
,,,,,,,,,,,,,,,,,6108c363c95fc665a5d08c32,19,2022-02-12_17h41.45.617,lexical_decision_task_DD_L3,2021.2.3,MacIntel,60.0024001,,,,,,,,,,,0.7372,1,,,,,,,,,,,,,,,z,1,0.7372,,,,,,,,0.421532118,-0.243732639,0,0,0,,0,32,32,117,1,STEEG,C,old,z,./images/STEEG.png,,,,,,,,,,,,,,,,,,,,,,,,,,,,,,,,,,,
,,,,,,,,,,,,,,,,,6108c363c95fc665a5d08c32,19,2022-02-12_17h41.45.617,lexical_decision_task_DD_L3,2021.2.3,MacIntel,60.0024001,,,,,,,,,,,0.6305,1,,,,,,,,,,,,,,,m,1,0.6305,,,,,,,,0.421532118,-0.243732639,0,0,0,,0,33,33,60,1,TWINS,LB,old,m,./images/TWINSLB.png,,,,,,,,,,,,,,,,,,,,,,,,,,,,,,,,,,,
,,,,,,,,,,,,,,,,,6108c363c95fc665a5d08c32,19,2022-02-12_17h41.45.617,lexical_decision_task_DD_L3,2021.2.3,MacIntel,60.0024001,,,,,,,,,,,0.5779,1,,,,,,,,,,,,,,,z,1,0.5779,,,,,,,,0.421532118,-0.243732639,0,0,0,,0,34,34,105,1,MOKER,C,old,z,./images/MOKER.png,,,,,,,,,,,,,,,,,,,,,,,,,,,,,,,,,,,
,,,,,,,,,,,,,,,,,6108c363c95fc665a5d08c32,19,2022-02-12_17h41.45.617,lexical_decision_task_DD_L3,2021.2.3,MacIntel,60.0024001,,,,,,,,,,,0.6144,1,,,,,,,,,,,,,,,z,1,0.6144,,,,,,,,0.421532118,-0.243732639,0,0,0,,0,35,35,89,1,DRIEK,LB,old,z,./images/DRIEKLB.png,,,,,,,,,,,,,,,,,,,,,,,,,,,,,,,,,,,
,,,,,,,,,,,,,,,,,6108c363c95fc665a5d08c32,19,2022-02-12_17h41.45.617,lexical_decision_task_DD_L3,2021.2.3,MacIntel,60.0024001,,,,,,,,,,,0.5876,1,,,,,,,,,,,,,,,z,1,0.5876,,,,,,,,0.421532118,-0.243732639,0,0,0,,0,36,36,144,1,NAIRY,C,old,z,./images/NAIRY.png,,,,,,,,,,,,,,,,,,,,,,,,,,,,,,,,,,,
,,,,,,,,,,,,,,,,,6108c363c95fc665a5d08c32,19,2022-02-12_17h41.45.617,lexical_decision_task_DD_L3,2021.2.3,MacIntel,60.0024001,,,,,,,,,,,0.6512,1,,,,,,,,,,,,,,,m,1,0.6512,,,,,,,,0.421532118,-0.243732639,0,0,0,,0,37,37,26,1,SMOKER,HB,old,m,./images/SMOKERHB.png,,,,,,,,,,,,,,,,,,,,,,,,,,,,,,,,,,,
,,,,,,,,,,,,,,,,,6108c363c95fc665a5d08c32,19,2022-02-12_17h41.45.617,lexical_decision_task_DD_L3,2021.2.3,MacIntel,60.0024001,,,,,,,,,,,0.7738,1,,,,,,,,,,,,,,,z,1,0.7738,,,,,,,,0.421532118,-0.243732639,0,0,0,,0,38,38,161,1,BLAPS,LB,old,z,./images/BLAPSLB.png,,,,,,,,,,,,,,,,,,,,,,,,,,,,,,,,,,,
,,,,,,,,,,,,,,,,,6108c363c95fc665a5d08c32,19,2022-02-12_17h41.45.617,lexical_decision_task_DD_L3,2021.2.3,MacIntel,60.0024001,,,,,,,,,,,0.5805,1,,,,,,,,,,,,,,,m,1,0.5805,,,,,,,,0.421532118,-0.243732639,0,0,0,,0,39,39,42,1,FOLDER,LB,old,m,./images/FOLDERLB.png,,,,,,,,,,,,,,,,,,,,,,,,,,,,,,,,,,,
,,,,,,,,,,,,,,,,,6108c363c95fc665a5d08c32,19,2022-02-12_17h41.45.617,lexical_decision_task_DD_L3,2021.2.3,MacIntel,60.0024001,,,,,,,,,,,0.9805,1,,,,,,,,,,,,,,,z,1,0.9805,,,,,,,,0.421532118,-0.243732639,0,0,0,,0,40,40,112,1,MYING,HB,old,z,./images/MYINGHB.png,,,,,,,,,,,,,,,,,,,,,,,,,,,,,,,,,,,
,,,,,,,,,,,,,,,,,6108c363c95fc665a5d08c32,19,2022-02-12_17h41.45.617,lexical_decision_task_DD_L3,2021.2.3,MacIntel,60.0024001,,,,,,,,,,,0.5835,1,,,,,,,,,,,,,,,m,1,0.5835,,,,,,,,0.064210069,-0.414600694,1,0,0,,0,41,41,66,1,SWEAT,LB,old,m,./images/SWEATLB.png,break_done_button,,,,,,,,,,,,,,,,,,,,,,,,,,,,,,,,,,
,,,,,,,,,,,,,,,,,6108c363c95fc665a5d08c32,19,2022-02-12_17h41.45.617,lexical_decision_task_DD_L3,2021.2.3,MacIntel,60.0024001,,,,,,,,,,,0.7046,1,,,,,,,,,,,,,,,z,1,0.7046,,,,,,,,0.264105903,-0.271692708,0,0,0,,0,42,42,126,1,GUELS,C,old,z,./images/GUELS.png,,,,,,,,,,,,,,,,,,,,,,,,,,,,,,,,,,,
,,,,,,,,,,,,,,,,,6108c363c95fc665a5d08c32,19,2022-02-12_17h41.45.617,lexical_decision_task_DD_L3,2021.2.3,MacIntel,60.0024001,,,,,,,,,,,1.1782,0,,,,,,,,,,,,,,,m,0,1.1782,,,,,,,,0.264105903,-0.271692708,0,0,0,,0,43,43,118,1,BAVEL,HB,old,z,./images/BAVELHB.png,,,,,,,,,,,,,,,,,,,,,,,,,,,,,,,,,,,
,,,,,,,,,,,,,,,,,6108c363c95fc665a5d08c32,19,2022-02-12_17h41.45.617,lexical_decision_task_DD_L3,2021.2.3,MacIntel,60.0024001,,,,,,,,,,,0.7149,1,,,,,,,,,,,,,,,m,1,0.7149,,,,,,,,0.264105903,-0.271692708,0,0,0,,0,44,44,39,1,SHELF,LB,old,m,./images/SHELFLB.png,,,,,,,,,,,,,,,,,,,,,,,,,,,,,,,,,,,
,,,,,,,,,,,,,,,,,6108c363c95fc665a5d08c32,19,2022-02-12_17h41.45.617,lexical_decision_task_DD_L3,2021.2.3,MacIntel,60.0024001,,,,,,,,,,,0.5714,1,,,,,,,,,,,,,,,z,1,0.5714,,,,,,,,0.264105903,-0.271692708,0,0,0,,0,45,45,162,1,LEICH,C,old,z,./images/LEICH.png,,,,,,,,,,,,,,,,,,,,,,,,,,,,,,,,,,,
,,,,,,,,,,,,,,,,,6108c363c95fc665a5d08c32,19,2022-02-12_17h41.45.617,lexical_decision_task_DD_L3,2021.2.3,MacIntel,60.0024001,,,,,,,,,,,0.7476,1,,,,,,,,,,,,,,,m,1,0.7476,,,,,,,,0.264105903,-0.271692708,0,0,0,,0,46,46,77,1,COUCH,HB,old,m,./images/COUCHHB.png,,,,,,,,,,,,,,,,,,,,,,,,,,,,,,,,,,,
,,,,,,,,,,,,,,,,,6108c363c95fc665a5d08c32,19,2022-02-12_17h41.45.617,lexical_decision_task_DD_L3,2021.2.3,MacIntel,60.0024001,,,,,,,,,,,0.8352,1,,,,,,,,,,,,,,,z,1,0.8352,,,,,,,,0.264105903,-0.271692708,0,0,0,,0,47,47,123,1,SEDGE,C,old,z,./images/SEDGE.png,,,,,,,,,,,,,,,,,,,,,,,,,,,,,,,,,,,
,,,,,,,,,,,,,,,,,6108c363c95fc665a5d08c32,19,2022-02-12_17h41.45.617,lexical_decision_task_DD_L3,2021.2.3,MacIntel,60.0024001,,,,,,,,,,,0.754,1,,,,,,,,,,,,,,,m,1,0.754,,,,,,,,0.264105903,-0.271692708,0,0,0,,0,48,48,74,1,CEMENT,HB,old,m,./images/CEMENTHB.png,,,,,,,,,,,,,,,,,,,,,,,,,,,,,,,,,,,
,,,,,,,,,,,,,,,,,6108c363c95fc665a5d08c32,19,2022-02-12_17h41.45.617,lexical_decision_task_DD_L3,2021.2.3,MacIntel,60.0024001,,,,,,,,,,,0.5395,1,,,,,,,,,,,,,,,m,1,0.5395,,,,,,,,0.264105903,-0.271692708,0,0,0,,0,49,49,37,1,BIRTH,C,old,m,./images/BIRTH.png,,,,,,,,,,,,,,,,,,,,,,,,,,,,,,,,,,,
,,,,,,,,,,,,,,,,,6108c363c95fc665a5d08c32,19,2022-02-12_17h41.45.617,lexical_decision_task_DD_L3,2021.2.3,MacIntel,60.0024001,,,,,,,,,,,0.5833,1,,,,,,,,,,,,,,,z,1,0.5833,,,,,,,,0.264105903,-0.271692708,0,0,0,,0,50,50,96,1,KEAMS,C,old,z,./images/KEAMS.png,,,,,,,,,,,,,,,,,,,,,,,,,,,,,,,,,,,
,,,,,,,,,,,,,,,,,6108c363c95fc665a5d08c32,19,2022-02-12_17h41.45.617,lexical_decision_task_DD_L3,2021.2.3,MacIntel,60.0024001,,,,,,,,,,,0.9487,1,,,,,,,,,,,,,,,z,1,0.9487,,,,,,,,0.264105903,-0.271692708,0,0,0,,0,51,51,125,1,MOOKY,LB,old,z,./images/MOOKYLB.png,,,,,,,,,,,,,,,,,,,,,,,,,,,,,,,,,,,
,,,,,,,,,,,,,,,,,6108c363c95fc665a5d08c32,19,2022-02-12_17h41.45.617,lexical_decision_task_DD_L3,2021.2.3,MacIntel,60.0024001,,,,,,,,,,,0.8653,0,,,,,,,,,,,,,,,m,0,0.8653,,,,,,,,0.264105903,-0.271692708,0,0,0,,0,52,52,154,1,THINT,HB,old,z,./images/THINTHB.png,,,,,,,,,,,,,,,,,,,,,,,,,,,,,,,,,,,
,,,,,,,,,,,,,,,,,6108c363c95fc665a5d08c32,19,2022-02-12_17h41.45.617,lexical_decision_task_DD_L3,2021.2.3,MacIntel,60.0024001,,,,,,,,,,,0.9876,1,,,,,,,,,,,,,,,m,1,0.9876,,,,,,,,0.264105903,-0.271692708,0,0,0,,0,53,53,80,1,WEASEL,HB,old,m,./images/WEASELHB.png,,,,,,,,,,,,,,,,,,,,,,,,,,,,,,,,,,,
,,,,,,,,,,,,,,,,,6108c363c95fc665a5d08c32,19,2022-02-12_17h41.45.617,lexical_decision_task_DD_L3,2021.2.3,MacIntel,60.0024001,,,,,,,,,,,0.9464,0,,,,,,,,,,,,,,,m,0,0.9464,,,,,,,,0.264105903,-0.271692708,0,0,0,,0,54,54,128,1,GRIFT,LB,old,z,./images/GRIFTLB.png,,,,,,,,,,,,,,,,,,,,,,,,,,,,,,,,,,,
,,,,,,,,,,,,,,,,,6108c363c95fc665a5d08c32,19,2022-02-12_17h41.45.617,lexical_decision_task_DD_L3,2021.2.3,MacIntel,60.0024001,,,,,,,,,,,0.808,0,,,,,,,,,,,,,,,m,0,0.808,,,,,,,,0.264105903,-0.271692708,0,0,0,,0,55,55,151,1,TINKY,HB,old,z,./images/TINKYHB.png,,,,,,,,,,,,,,,,,,,,,,,,,,,,,,,,,,,
,,,,,,,,,,,,,,,,,6108c363c95fc665a5d08c32,19,2022-02-12_17h41.45.617,lexical_decision_task_DD_L3,2021.2.3,MacIntel,60.0024001,,,,,,,,,,,1.2186,1,,,,,,,,,,,,,,,z,1,1.2186,,,,,,,,0.264105903,-0.271692708,0,0,0,,0,56,56,106,1,CLUMS,HB,old,z,./images/CLUMSHB.png,,,,,,,,,,,,,,,,,,,,,,,,,,,,,,,,,,,
,,,,,,,,,,,,,,,,,6108c363c95fc665a5d08c32,19,2022-02-12_17h41.45.617,lexical_decision_task_DD_L3,2021.2.3,MacIntel,60.0024001,,,,,,,,,,,0.9039,1,,,,,,,,,,,,,,,m,1,0.9039,,,,,,,,0.264105903,-0.271692708,0,0,0,,0,57,57,17,1,SKIING,HB,old,m,./images/SKIINGHB.png,,,,,,,,,,,,,,,,,,,,,,,,,,,,,,,,,,,
,,,,,,,,,,,,,,,,,6108c363c95fc665a5d08c32,19,2022-02-12_17h41.45.617,lexical_decision_task_DD_L3,2021.2.3,MacIntel,60.0024001,,,,,,,,,,,1.1327,1,,,,,,,,,,,,,,,z,1,1.1327,,,,,,,,0.264105903,-0.271692708,0,0,0,,0,58,58,157,1,INLER,HB,old,z,./images/INLERHB.png,,,,,,,,,,,,,,,,,,,,,,,,,,,,,,,,,,,
,,,,,,,,,,,,,,,,,6108c363c95fc665a5d08c32,19,2022-02-12_17h41.45.617,lexical_decision_task_DD_L3,2021.2.3,MacIntel,60.0024001,,,,,,,,,,,0.754,1,,,,,,,,,,,,,,,m,1,0.754,,,,,,,,0.264105903,-0.271692708,0,0,0,,0,59,59,59,1,BURIAL,HB,old,m,./images/BURIALHB.png,,,,,,,,,,,,,,,,,,,,,,,,,,,,,,,,,,,
,,,,,,,,,,,,,,,,,6108c363c95fc665a5d08c32,19,2022-02-12_17h41.45.617,lexical_decision_task_DD_L3,2021.2.3,MacIntel,60.0024001,,,,,,,,,,,0.7458,1,,,,,,,,,,,,,,,z,1,0.7458,,,,,,,,0.264105903,-0.271692708,0,0,0,,0,60,60,143,1,MONGS,LB,old,z,./images/MONGSLB.png,,,,,,,,,,,,,,,,,,,,,,,,,,,,,,,,,,,
,,,,,,,,,,,,,,,,,6108c363c95fc665a5d08c32,19,2022-02-12_17h41.45.617,lexical_decision_task_DD_L3,2021.2.3,MacIntel,60.0024001,,,,,,,,,,,0.7662,1,,,,,,,,,,,,,,,m,1,0.7662,,,,,,,,0.264105903,-0.271692708,0,0,0,,0,61,61,56,1,PACKET,HB,old,m,./images/PACKETHB.png,,,,,,,,,,,,,,,,,,,,,,,,,,,,,,,,,,,
,,,,,,,,,,,,,,,,,6108c363c95fc665a5d08c32,19,2022-02-12_17h41.45.617,lexical_decision_task_DD_L3,2021.2.3,MacIntel,60.0024001,,,,,,,,,,,1.166,1,,,,,,,,,,,,,,,m,1,1.166,,,,,,,,0.264105903,-0.271692708,0,0,0,,0,62,62,34,1,CANYON,C,old,m,./images/CANYON.png,,,,,,,,,,,,,,,,,,,,,,,,,,,,,,,,,,,
,,,,,,,,,,,,,,,,,6108c363c95fc665a5d08c32,19,2022-02-12_17h41.45.617,lexical_decision_task_DD_L3,2021.2.3,MacIntel,60.0024001,,,,,,,,,,,0.6004,1,,,,,,,,,,,,,,,z,1,0.6004,,,,,,,,0.264105903,-0.271692708,0,0,0,,0,63,63,137,1,JOOST,LB,old,z,./images/JOOSTLB.png,,,,,,,,,,,,,,,,,,,,,,,,,,,,,,,,,,,
,,,,,,,,,,,,,,,,,6108c363c95fc665a5d08c32,19,2022-02-12_17h41.45.617,lexical_decision_task_DD_L3,2021.2.3,MacIntel,60.0024001,,,,,,,,,,,0.7815,1,,,,,,,,,,,,,,,m,1,0.7815,,,,,,,,0.264105903,-0.271692708,0,0,0,,0,64,64,29,1,CRUMB,HB,old,m,./images/CRUMBHB.png,,,,,,,,,,,,,,,,,,,,,,,,,,,,,,,,,,,
,,,,,,,,,,,,,,,,,6108c363c95fc665a5d08c32,19,2022-02-12_17h41.45.617,lexical_decision_task_DD_L3,2021.2.3,MacIntel,60.0024001,,,,,,,,,,,0.6948,0,,,,,,,,,,,,,,,m,0,0.6948,,,,,,,,0.264105903,-0.271692708,0,0,0,,0,65,65,140,1,DOVET,LB,old,z,./images/DOVETLB.png,,,,,,,,,,,,,,,,,,,,,,,,,,,,,,,,,,,
,,,,,,,,,,,,,,,,,6108c363c95fc665a5d08c32,19,2022-02-12_17h41.45.617,lexical_decision_task_DD_L3,2021.2.3,MacIntel,60.0024001,,,,,,,,,,,0.7003,1,,,,,,,,,,,,,,,m,1,0.7003,,,,,,,,0.264105903,-0.271692708,0,0,0,,0,66,66,70,1,URINE,C,old,m,./images/URINE.png,,,,,,,,,,,,,,,,,,,,,,,,,,,,,,,,,,,
,,,,,,,,,,,,,,,,,6108c363c95fc665a5d08c32,19,2022-02-12_17h41.45.617,lexical_decision_task_DD_L3,2021.2.3,MacIntel,60.0024001,,,,,,,,,,,0.5345,1,,,,,,,,,,,,,,,m,1,0.5345,,,,,,,,0.264105903,-0.271692708,0,0,0,,0,67,67,64,1,JELLY,C,old,m,./images/JELLY.png,,,,,,,,,,,,,,,,,,,,,,,,,,,,,,,,,,,
,,,,,,,,,,,,,,,,,6108c363c95fc665a5d08c32,19,2022-02-12_17h41.45.617,lexical_decision_task_DD_L3,2021.2.3,MacIntel,60.0024001,,,,,,,,,,,0.4996,1,,,,,,,,,,,,,,,m,1,0.4996,,,,,,,,0.264105903,-0.271692708,0,0,0,,0,68,68,6,1,SQUARE,LB,old,m,./images/SQUARELB.png,,,,,,,,,,,,,,,,,,,,,,,,,,,,,,,,,,,
,,,,,,,,,,,,,,,,,6108c363c95fc665a5d08c32,19,2022-02-12_17h41.45.617,lexical_decision_task_DD_L3,2021.2.3,MacIntel,60.0024001,,,,,,,,,,,1.0796,1,,,,,,,,,,,,,,,z,1,1.0796,,,,,,,,0.264105903,-0.271692708,0,0,0,,0,69,69,84,1,HAXES,C,old,z,./images/HAXES.png,,,,,,,,,,,,,,,,,,,,,,,,,,,,,,,,,,,
,,,,,,,,,,,,,,,,,6108c363c95fc665a5d08c32,19,2022-02-12_17h41.45.617,lexical_decision_task_DD_L3,2021.2.3,MacIntel,60.0024001,,,,,,,,,,,1.1337,1,,,,,,,,,,,,,,,z,1,1.1337,,,,,,,,0.264105903,-0.271692708,0,0,0,,0,70,70,124,1,TUNCH,HB,old,z,./images/TUNCHHB.png,,,,,,,,,,,,,,,,,,,,,,,,,,,,,,,,,,,
,,,,,,,,,,,,,,,,,6108c363c95fc665a5d08c32,19,2022-02-12_17h41.45.617,lexical_decision_task_DD_L3,2021.2.3,MacIntel,60.0024001,,,,,,,,,,,0.8063,1,,,,,,,,,,,,,,,m,1,0.8063,,,,,,,,0.264105903,-0.271692708,0,0,0,,0,71,71,78,1,LITTER,LB,old,m,./images/LITTERLB.png,,,,,,,,,,,,,,,,,,,,,,,,,,,,,,,,,,,
,,,,,,,,,,,,,,,,,6108c363c95fc665a5d08c32,19,2022-02-12_17h41.45.617,lexical_decision_task_DD_L3,2021.2.3,MacIntel,60.0024001,,,,,,,,,,,0.7392,1,,,,,,,,,,,,,,,z,1,0.7392,,,,,,,,0.264105903,-0.271692708,0,0,0,,0,72,72,104,1,GITTY,LB,old,z,./images/GITTYLB.png,,,,,,,,,,,,,,,,,,,,,,,,,,,,,,,,,,,
,,,,,,,,,,,,,,,,,6108c363c95fc665a5d08c32,19,2022-02-12_17h41.45.617,lexical_decision_task_DD_L3,2021.2.3,MacIntel,60.0024001,,,,,,,,,,,0.593,1,,,,,,,,,,,,,,,m,1,0.593,,,,,,,,0.264105903,-0.271692708,0,0,0,,0,73,73,67,1,SAILOR,C,old,m,./images/SAILOR.png,,,,,,,,,,,,,,,,,,,,,,,,,,,,,,,,,,,
,,,,,,,,,,,,,,,,,6108c363c95fc665a5d08c32,19,2022-02-12_17h41.45.617,lexical_decision_task_DD_L3,2021.2.3,MacIntel,60.0024001,,,,,,,,,,,0.586,1,,,,,,,,,,,,,,,m,1,0.586,,,,,,,,0.264105903,-0.271692708,0,0,0,,0,74,74,49,1,DRUMS,C,old,m,./images/DRUMS.png,,,,,,,,,,,,,,,,,,,,,,,,,,,,,,,,,,,
,,,,,,,,,,,,,,,,,6108c363c95fc665a5d08c32,19,2022-02-12_17h41.45.617,lexical_decision_task_DD_L3,2021.2.3,MacIntel,60.0024001,,,,,,,,,,,0.5916,1,,,,,,,,,,,,,,,m,1,0.5916,,,,,,,,0.264105903,-0.271692708,0,0,0,,0,75,75,18,1,JAGUAR,LB,old,m,./images/JAGUARLB.png,,,,,,,,,,,,,,,,,,,,,,,,,,,,,,,,,,,
,,,,,,,,,,,,,,,,,6108c363c95fc665a5d08c32,19,2022-02-12_17h41.45.617,lexical_decision_task_DD_L3,2021.2.3,MacIntel,60.0024001,,,,,,,,,,,1.5098,1,,,,,,,,,,,,,,,z,1,1.5098,,,,,,,,0.264105903,-0.271692708,0,0,0,,0,76,76,163,1,GAMBA,HB,old,z,./images/GAMBAHB.png,,,,,,,,,,,,,,,,,,,,,,,,,,,,,,,,,,,
,,,,,,,,,,,,,,,,,6108c363c95fc665a5d08c32,19,2022-02-12_17h41.45.617,lexical_decision_task_DD_L3,2021.2.3,MacIntel,60.0024001,,,,,,,,,,,1.1367,0,,,,,,,,,,,,,,,m,0,1.1367,,,,,,,,0.264105903,-0.271692708,0,0,0,,0,77,77,141,1,PLEET,C,old,z,./images/PLEET.png,,,,,,,,,,,,,,,,,,,,,,,,,,,,,,,,,,,
,,,,,,,,,,,,,,,,,6108c363c95fc665a5d08c32,19,2022-02-12_17h41.45.617,lexical_decision_task_DD_L3,2021.2.3,MacIntel,60.0024001,,,,,,,,,,,0.5978,1,,,,,,,,,,,,,,,m,1,0.5978,,,,,,,,0.264105903,-0.271692708,0,0,0,,0,78,78,69,1,COOKER,LB,old,m,./images/COOKERLB.png,,,,,,,,,,,,,,,,,,,,,,,,,,,,,,,,,,,
,,,,,,,,,,,,,,,,,6108c363c95fc665a5d08c32,19,2022-02-12_17h41.45.617,lexical_decision_task_DD_L3,2021.2.3,MacIntel,60.0024001,,,,,,,,,,,0.6026,1,,,,,,,,,,,,,,,z,1,0.6026,,,,,,,,0.264105903,-0.271692708,0,0,0,,0,79,79,98,1,BAMPS,LB,old,z,./images/BAMPSLB.png,,,,,,,,,,,,,,,,,,,,,,,,,,,,,,,,,,,
,,,,,,,,,,,,,,,,,6108c363c95fc665a5d08c32,19,2022-02-12_17h41.45.617,lexical_decision_task_DD_L3,2021.2.3,MacIntel,60.0024001,,,,,,,,,,,0.5186,1,,,,,,,,,,,,,,,m,1,0.5186,,,,,,,,0.264105903,-0.271692708,0,0,0,,0,80,80,51,1,ONION,LB,old,m,./images/ONIONLB.png,,,,,,,,,,,,,,,,,,,,,,,,,,,,,,,,,,,
,,,,,,,,,,,,,,,,,6108c363c95fc665a5d08c32,19,2022-02-12_17h41.45.617,lexical_decision_task_DD_L3,2021.2.3,MacIntel,60.0024001,,,,,,,,,,,0.8173,1,,,,,,,,,,,,,,,m,1,0.8173,,,,,,,,0.264105903,-0.271692708,0,0,0,,0,81,81,54,1,TRIPOD,LB,old,m,./images/TRIPODLB.png,,,,,,,,,,,,,,,,,,,,,,,,,,,,,,,,,,,
,,,,,,,,,,,,,,,,,6108c363c95fc665a5d08c32,19,2022-02-12_17h41.45.617,lexical_decision_task_DD_L3,2021.2.3,MacIntel,60.0024001,,,,,,,,,,,0.6081,1,,,,,,,,,,,,,,,m,1,0.6081,,,,,,,,0.264105903,-0.271692708,0,0,0,,0,82,82,5,1,PASTA,HB,old,m,./images/PASTAHB.png,,,,,,,,,,,,,,,,,,,,,,,,,,,,,,,,,,,
,,,,,,,,,,,,,,,,,6108c363c95fc665a5d08c32,19,2022-02-12_17h41.45.617,lexical_decision_task_DD_L3,2021.2.3,MacIntel,60.0024001,,,,,,,,,,,0.7025,0,,,,,,,,,,,,,,,z,0,0.7025,,,,,,,,0.116306424,-0.407118056,1,0,0,,0,83,83,23,1,WALRUS,HB,old,m,./images/WALRUSHB.png,break_done_button,,,,,,,,,,,,,,,,,,,,,,,,,,,,,,,,,,
,,,,,,,,,,,,,,,,,6108c363c95fc665a5d08c32,19,2022-02-12_17h41.45.617,lexical_decision_task_DD_L3,2021.2.3,MacIntel,60.0024001,,,,,,,,,,,0.6683,1,,,,,,,,,,,,,,,z,1,0.6683,,,,,,,,0.534305556,-0.007990451,0,0,0,,0,84,84,87,1,TRING,C,old,z,./images/TRING.png,,,,,,,,,,,,,,,,,,,,,,,,,,,,,,,,,,,
,,,,,,,,,,,,,,,,,6108c363c95fc665a5d08c32,19,2022-02-12_17h41.45.617,lexical_decision_task_DD_L3,2021.2.3,MacIntel,60.0024001,,,,,,,,,,,0.7914,1,,,,,,,,,,,,,,,z,1,0.7914,,,,,,,,0.534305556,-0.007990451,0,0,0,,0,85,85,158,1,EGECT,LB,old,z,./images/EGECTLB.png,,,,,,,,,,,,,,,,,,,,,,,,,,,,,,,,,,,
,,,,,,,,,,,,,,,,,6108c363c95fc665a5d08c32,19,2022-02-12_17h41.45.617,lexical_decision_task_DD_L3,2021.2.3,MacIntel,60.0024001,,,,,,,,,,,0.7735,1,,,,,,,,,,,,,,,z,1,0.7735,,,,,,,,0.534305556,-0.007990451,0,0,0,,0,86,86,97,1,CHIDS,HB,old,z,./images/CHIDSHB.png,,,,,,,,,,,,,,,,,,,,,,,,,,,,,,,,,,,
,,,,,,,,,,,,,,,,,6108c363c95fc665a5d08c32,19,2022-02-12_17h41.45.617,lexical_decision_task_DD_L3,2021.2.3,MacIntel,60.0024001,,,,,,,,,,,0.7076,1,,,,,,,,,,,,,,,m,1,0.7076,,,,,,,,0.534305556,-0.007990451,0,0,0,,0,87,87,44,1,LIZARD,HB,old,m,./images/LIZARDHB.png,,,,,,,,,,,,,,,,,,,,,,,,,,,,,,,,,,,
,,,,,,,,,,,,,,,,,6108c363c95fc665a5d08c32,19,2022-02-12_17h41.45.617,lexical_decision_task_DD_L3,2021.2.3,MacIntel,60.0024001,,,,,,,,,,,0.7551,1,,,,,,,,,,,,,,,z,1,0.7551,,,,,,,,0.534305556,-0.007990451,0,0,0,,0,88,88,103,1,FLORT,HB,old,z,./images/FLORTHB.png,,,,,,,,,,,,,,,,,,,,,,,,,,,,,,,,,,,
,,,,,,,,,,,,,,,,,6108c363c95fc665a5d08c32,19,2022-02-12_17h41.45.617,lexical_decision_task_DD_L3,2021.2.3,MacIntel,60.0024001,,,,,,,,,,,0.7189,1,,,,,,,,,,,,,,,m,1,0.7189,,,,,,,,0.534305556,-0.007990451,0,0,0,,0,89,89,25,1,WRIST,C,old,m,./images/WRIST.png,,,,,,,,,,,,,,,,,,,,,,,,,,,,,,,,,,,
,,,,,,,,,,,,,,,,,6108c363c95fc665a5d08c32,19,2022-02-12_17h41.45.617,lexical_decision_task_DD_L3,2021.2.3,MacIntel,60.0024001,,,,,,,,,,,0.9446,1,,,,,,,,,,,,,,,m,1,0.9446,,,,,,,,0.534305556,-0.007990451,0,0,0,,0,90,90,50,1,MALLET,HB,old,m,./images/MALLETHB.png,,,,,,,,,,,,,,,,,,,,,,,,,,,,,,,,,,,
,,,,,,,,,,,,,,,,,6108c363c95fc665a5d08c32,19,2022-02-12_17h41.45.617,lexical_decision_task_DD_L3,2021.2.3,MacIntel,60.0024001,,,,,,,,,,,0.7491,1,,,,,,,,,,,,,,,m,1,0.7491,,,,,,,,0.534305556,-0.007990451,0,0,0,,0,91,91,31,1,QUILL,C,old,m,./images/QUILL.png,,,,,,,,,,,,,,,,,,,,,,,,,,,,,,,,,,,
,,,,,,,,,,,,,,,,,6108c363c95fc665a5d08c32,19,2022-02-12_17h41.45.617,lexical_decision_task_DD_L3,2021.2.3,MacIntel,60.0024001,,,,,,,,,,,0.9411,1,,,,,,,,,,,,,,,z,1,0.9411,,,,,,,,0.534305556,-0.007990451,0,0,0,,0,92,92,127,1,NINDY,HB,old,z,./images/NINDYHB.png,,,,,,,,,,,,,,,,,,,,,,,,,,,,,,,,,,,
,,,,,,,,,,,,,,,,,6108c363c95fc665a5d08c32,19,2022-02-12_17h41.45.617,lexical_decision_task_DD_L3,2021.2.3,MacIntel,60.0024001,,,,,,,,,,,0.9534,1,,,,,,,,,,,,,,,z,1,0.9534,,,,,,,,0.534305556,-0.007990451,0,0,0,,0,93,93,159,1,CUDDY,C,old,z,./images/CUDDY.png,,,,,,,,,,,,,,,,,,,,,,,,,,,,,,,,,,,
,,,,,,,,,,,,,,,,,6108c363c95fc665a5d08c32,19,2022-02-12_17h41.45.617,lexical_decision_task_DD_L3,2021.2.3,MacIntel,60.0024001,,,,,,,,,,,0.6676,1,,,,,,,,,,,,,,,z,1,0.6676,,,,,,,,0.534305556,-0.007990451,0,0,0,,0,94,94,135,1,JOODY,C,old,z,./images/JOODY.png,,,,,,,,,,,,,,,,,,,,,,,,,,,,,,,,,,,
,,,,,,,,,,,,,,,,,6108c363c95fc665a5d08c32,19,2022-02-12_17h41.45.617,lexical_decision_task_DD_L3,2021.2.3,MacIntel,60.0024001,,,,,,,,,,,0.6778,1,,,,,,,,,,,,,,,m,1,0.6778,,,,,,,,0.534305556,-0.007990451,0,0,0,,0,95,95,27,1,ATTIC,LB,old,m,./images/ATTICLB.png,,,,,,,,,,,,,,,,,,,,,,,,,,,,,,,,,,,
,,,,,,,,,,,,,,,,,6108c363c95fc665a5d08c32,19,2022-02-12_17h41.45.617,lexical_decision_task_DD_L3,2021.2.3,MacIntel,60.0024001,,,,,,,,,,,1.0152,1,,,,,,,,,,,,,,,z,1,1.0152,,,,,,,,0.534305556,-0.007990451,0,0,0,,0,96,96,85,1,CHULK,HB,old,z,./images/CHULKHB.png,,,,,,,,,,,,,,,,,,,,,,,,,,,,,,,,,,,
,,,,,,,,,,,,,,,,,6108c363c95fc665a5d08c32,19,2022-02-12_17h41.45.617,lexical_decision_task_DD_L3,2021.2.3,MacIntel,60.0024001,,,,,,,,,,,0.6791,1,,,,,,,,,,,,,,,m,1,0.6791,,,,,,,,0.534305556,-0.007990451,0,0,0,,0,97,97,24,1,SCREW,LB,old,m,./images/SCREWLB.png,,,,,,,,,,,,,,,,,,,,,,,,,,,,,,,,,,,
,,,,,,,,,,,,,,,,,6108c363c95fc665a5d08c32,19,2022-02-12_17h41.45.617,lexical_decision_task_DD_L3,2021.2.3,MacIntel,60.0024001,,,,,,,,,,,0.6781,1,,,,,,,,,,,,,,,m,1,0.6781,,,,,,,,0.534305556,-0.007990451,0,0,0,,0,98,98,30,1,STORM,LB,old,m,./images/STORMLB.png,,,,,,,,,,,,,,,,,,,,,,,,,,,,,,,,,,,
,,,,,,,,,,,,,,,,,6108c363c95fc665a5d08c32,19,2022-02-12_17h41.45.617,lexical_decision_task_DD_L3,2021.2.3,MacIntel,60.0024001,,,,,,,,,,,1.0559,1,,,,,,,,,,,,,,,z,1,1.0559,,,,,,,,0.534305556,-0.007990451,0,0,0,,0,99,99,142,1,PLASK,HB,old,z,./images/PLASKHB.png,,,,,,,,,,,,,,,,,,,,,,,,,,,,,,,,,,,
,,,,,,,,,,,,,,,,,6108c363c95fc665a5d08c32,19,2022-02-12_17h41.45.617,lexical_decision_task_DD_L3,2021.2.3,MacIntel,60.0024001,,,,,,,,,,,0.9756,1,,,,,,,,,,,,,,,z,1,0.9756,,,,,,,,0.534305556,-0.007990451,0,0,0,,0,100,100,115,1,MAWNS,HB,old,z,./images/MAWNSHB.png,,,,,,,,,,,,,,,,,,,,,,,,,,,,,,,,,,,
,,,,,,,,,,,,,,,,,6108c363c95fc665a5d08c32,19,2022-02-12_17h41.45.617,lexical_decision_task_DD_L3,2021.2.3,MacIntel,60.0024001,,,,,,,,,,,0.5533,1,,,,,,,,,,,,,,,m,1,0.5533,,,,,,,,0.534305556,-0.007990451,0,0,0,,0,101,101,22,1,MELON,C,old,m,./images/MELON.png,,,,,,,,,,,,,,,,,,,,,,,,,,,,,,,,,,,
,,,,,,,,,,,,,,,,,6108c363c95fc665a5d08c32,19,2022-02-12_17h41.45.617,lexical_decision_task_DD_L3,2021.2.3,MacIntel,60.0024001,,,,,,,,,,,0.654,1,,,,,,,,,,,,,,,m,1,0.654,,,,,,,,0.534305556,-0.007990451,0,0,0,,0,102,102,16,1,PENCE,C,old,m,./images/PENCE.png,,,,,,,,,,,,,,,,,,,,,,,,,,,,,,,,,,,
,,,,,,,,,,,,,,,,,6108c363c95fc665a5d08c32,19,2022-02-12_17h41.45.617,lexical_decision_task_DD_L3,2021.2.3,MacIntel,60.0024001,,,,,,,,,,,0.7946,1,,,,,,,,,,,,,,,z,1,0.7946,,,,,,,,0.534305556,-0.007990451,0,0,0,,0,103,103,121,1,CEERS,HB,old,z,./images/CEERSHB.png,,,,,,,,,,,,,,,,,,,,,,,,,,,,,,,,,,,
,,,,,,,,,,,,,,,,,6108c363c95fc665a5d08c32,19,2022-02-12_17h41.45.617,lexical_decision_task_DD_L3,2021.2.3,MacIntel,60.0024001,,,,,,,,,,,0.695,1,,,,,,,,,,,,,,,m,1,0.695,,,,,,,,0.534305556,-0.007990451,0,0,0,,0,104,104,75,1,GRAIN,LB,old,m,./images/GRAINLB.png,,,,,,,,,,,,,,,,,,,,,,,,,,,,,,,,,,,
,,,,,,,,,,,,,,,,,6108c363c95fc665a5d08c32,19,2022-02-12_17h41.45.617,lexical_decision_task_DD_L3,2021.2.3,MacIntel,60.0024001,,,,,,,,,,,0.701,1,,,,,,,,,,,,,,,z,1,0.701,,,,,,,,0.534305556,-0.007990451,0,0,0,,0,105,105,153,1,CLUPS,C,old,z,./images/CLUPS.png,,,,,,,,,,,,,,,,,,,,,,,,,,,,,,,,,,,
,,,,,,,,,,,,,,,,,6108c363c95fc665a5d08c32,19,2022-02-12_17h41.45.617,lexical_decision_task_DD_L3,2021.2.3,MacIntel,60.0024001,,,,,,,,,,,0.9303,1,,,,,,,,,,,,,,,m,1,0.9303,,,,,,,,0.534305556,-0.007990451,0,0,0,,0,106,106,53,1,CARPET,HB,old,m,./images/CARPETHB.png,,,,,,,,,,,,,,,,,,,,,,,,,,,,,,,,,,,
,,,,,,,,,,,,,,,,,6108c363c95fc665a5d08c32,19,2022-02-12_17h41.45.617,lexical_decision_task_DD_L3,2021.2.3,MacIntel,60.0024001,,,,,,,,,,,0.5693,1,,,,,,,,,,,,,,,m,1,0.5693,,,,,,,,0.534305556,-0.007990451,0,0,0,,0,107,107,73,1,SNACK,C,old,m,./images/SNACK.png,,,,,,,,,,,,,,,,,,,,,,,,,,,,,,,,,,,
,,,,,,,,,,,,,,,,,6108c363c95fc665a5d08c32,19,2022-02-12_17h41.45.617,lexical_decision_task_DD_L3,2021.2.3,MacIntel,60.0024001,,,,,,,,,,,0.7658,1,,,,,,,,,,,,,,,m,1,0.7658,,,,,,,,0.534305556,-0.007990451,0,0,0,,0,108,108,83,1,JUNGLE,HB,old,m,./images/JUNGLEHB.png,,,,,,,,,,,,,,,,,,,,,,,,,,,,,,,,,,,
,,,,,,,,,,,,,,,,,6108c363c95fc665a5d08c32,19,2022-02-12_17h41.45.617,lexical_decision_task_DD_L3,2021.2.3,MacIntel,60.0024001,,,,,,,,,,,0.6943,1,,,,,,,,,,,,,,,z,1,0.6943,,,,,,,,0.534305556,-0.007990451,0,0,0,,0,109,109,145,1,LAMEL,HB,old,z,./images/LAMELHB.png,,,,,,,,,,,,,,,,,,,,,,,,,,,,,,,,,,,
,,,,,,,,,,,,,,,,,6108c363c95fc665a5d08c32,19,2022-02-12_17h41.45.617,lexical_decision_task_DD_L3,2021.2.3,MacIntel,60.0024001,,,,,,,,,,,0.6777,1,,,,,,,,,,,,,,,z,1,0.6777,,,,,,,,0.534305556,-0.007990451,0,0,0,,0,110,110,155,1,CANGY,LB,old,z,./images/CANGYLB.png,,,,,,,,,,,,,,,,,,,,,,,,,,,,,,,,,,,
,,,,,,,,,,,,,,,,,6108c363c95fc665a5d08c32,19,2022-02-12_17h41.45.617,lexical_decision_task_DD_L3,2021.2.3,MacIntel,60.0024001,,,,,,,,,,,0.8443,1,,,,,,,,,,,,,,,m,1,0.8443,,,,,,,,0.534305556,-0.007990451,0,0,0,,0,111,111,65,1,FARMER,HB,old,m,./images/FARMERHB.png,,,,,,,,,,,,,,,,,,,,,,,,,,,,,,,,,,,
,,,,,,,,,,,,,,,,,6108c363c95fc665a5d08c32,19,2022-02-12_17h41.45.617,lexical_decision_task_DD_L3,2021.2.3,MacIntel,60.0024001,,,,,,,,,,,0.5788,1,,,,,,,,,,,,,,,z,1,0.5788,,,,,,,,0.534305556,-0.007990451,0,0,0,,0,112,112,101,1,GLEET,LB,old,z,./images/GLEETLB.png,,,,,,,,,,,,,,,,,,,,,,,,,,,,,,,,,,,
,,,,,,,,,,,,,,,,,6108c363c95fc665a5d08c32,19,2022-02-12_17h41.45.617,lexical_decision_task_DD_L3,2021.2.3,MacIntel,60.0024001,,,,,,,,,,,0.8016,1,,,,,,,,,,,,,,,m,1,0.8016,,,,,,,,0.534305556,-0.007990451,0,0,0,,0,113,113,8,1,TULIP,HB,old,m,./images/TULIPHB.png,,,,,,,,,,,,,,,,,,,,,,,,,,,,,,,,,,,
,,,,,,,,,,,,,,,,,6108c363c95fc665a5d08c32,19,2022-02-12_17h41.45.617,lexical_decision_task_DD_L3,2021.2.3,MacIntel,60.0024001,,,,,,,,,,,0.847,1,,,,,,,,,,,,,,,m,1,0.847,,,,,,,,0.534305556,-0.007990451,0,0,0,,0,114,114,32,1,BARREL,HB,old,m,./images/BARRELHB.png,,,,,,,,,,,,,,,,,,,,,,,,,,,,,,,,,,,
,,,,,,,,,,,,,,,,,6108c363c95fc665a5d08c32,19,2022-02-12_17h41.45.617,lexical_decision_task_DD_L3,2021.2.3,MacIntel,60.0024001,,,,,,,,,,,0.5614,1,,,,,,,,,,,,,,,z,1,0.5614,,,,,,,,0.534305556,-0.007990451,0,0,0,,0,115,115,132,1,SCIFF,C,old,z,./images/SCIFF.png,,,,,,,,,,,,,,,,,,,,,,,,,,,,,,,,,,,
,,,,,,,,,,,,,,,,,6108c363c95fc665a5d08c32,19,2022-02-12_17h41.45.617,lexical_decision_task_DD_L3,2021.2.3,MacIntel,60.0024001,,,,,,,,,,,0.7455,1,,,,,,,,,,,,,,,m,1,0.7455,,,,,,,,0.534305556,-0.007990451,0,0,0,,0,116,116,41,1,STRING,HB,old,m,./images/STRINGHB.png,,,,,,,,,,,,,,,,,,,,,,,,,,,,,,,,,,,
,,,,,,,,,,,,,,,,,6108c363c95fc665a5d08c32,19,2022-02-12_17h41.45.617,lexical_decision_task_DD_L3,2021.2.3,MacIntel,60.0024001,,,,,,,,,,,0.5946,1,,,,,,,,,,,,,,,m,1,0.5946,,,,,,,,0.534305556,-0.007990451,0,0,0,,0,117,117,0,1,TOMATO,LB,old,m,./images/TOMATOLB.png,,,,,,,,,,,,,,,,,,,,,,,,,,,,,,,,,,,
,,,,,,,,,,,,,,,,,6108c363c95fc665a5d08c32,19,2022-02-12_17h41.45.617,lexical_decision_task_DD_L3,2021.2.3,MacIntel,60.0024001,,,,,,,,,,,0.6787,1,,,,,,,,,,,,,,,z,1,0.6787,,,,,,,,0.534305556,-0.007990451,0,0,0,,0,118,118,148,1,JOMS,HB,old,z,./images/JOMSHB.png,,,,,,,,,,,,,,,,,,,,,,,,,,,,,,,,,,,
,,,,,,,,,,,,,,,,,6108c363c95fc665a5d08c32,19,2022-02-12_17h41.45.617,lexical_decision_task_DD_L3,2021.2.3,MacIntel,60.0024001,,,,,,,,,,,0.9621,1,,,,,,,,,,,,,,,z,1,0.9621,,,,,,,,0.534305556,-0.007990451,0,0,0,,0,119,119,91,1,SHENS,HB,old,z,./images/SHENSHB.png,,,,,,,,,,,,,,,,,,,,,,,,,,,,,,,,,,,
,,,,,,,,,,,,,,,,,6108c363c95fc665a5d08c32,19,2022-02-12_17h41.45.617,lexical_decision_task_DD_L3,2021.2.3,MacIntel,60.0024001,,,,,,,,,,,0.7493,1,,,,,,,,,,,,,,,m,1,0.7493,,,,,,,,0.534305556,-0.007990451,0,0,0,,0,120,120,38,1,LADDER,HB,old,m,./images/LADDERHB.png,,,,,,,,,,,,,,,,,,,,,,,,,,,,,,,,,,,
,,,,,,,,,,,,,,,,,6108c363c95fc665a5d08c32,19,2022-02-12_17h41.45.617,lexical_decision_task_DD_L3,2021.2.3,MacIntel,60.0024001,,,,,,,,,,,0.5341,1,,,,,,,,,,,,,,,m,1,0.5341,,,,,,,,0.534305556,-0.007990451,0,0,0,,0,121,121,7,1,PAINT,C,old,m,./images/PAINT.png,,,,,,,,,,,,,,,,,,,,,,,,,,,,,,,,,,,
,,,,,,,,,,,,,,,,,6108c363c95fc665a5d08c32,19,2022-02-12_17h41.45.617,lexical_decision_task_DD_L3,2021.2.3,MacIntel,60.0024001,,,,,,,,,,,0.6841,1,,,,,,,,,,,,,,,z,1,0.6841,,,,,,,,0.534305556,-0.007990451,0,0,0,,0,122,122,88,1,GLUSH,HB,old,z,./images/GLUSHHB.png,,,,,,,,,,,,,,,,,,,,,,,,,,,,,,,,,,,
,,,,,,,,,,,,,,,,,6108c363c95fc665a5d08c32,19,2022-02-12_17h41.45.617,lexical_decision_task_DD_L3,2021.2.3,MacIntel,60.0024001,,,,,,,,,,,0.5955,1,,,,,,,,,,,,,,,z,1,0.5955,,,,,,,,0.534305556,-0.007990451,0,0,0,,0,123,123,95,1,HANTY,LB,old,z,./images/HANTYLB.png,,,,,,,,,,,,,,,,,,,,,,,,,,,,,,,,,,,
,,,,,,,,,,,,,,,,,6108c363c95fc665a5d08c32,19,2022-02-12_17h41.45.617,lexical_decision_task_DD_L3,2021.2.3,MacIntel,60.0024001,,,,,,,,,,,0.988,1,,,,,,,,,,,,,,,z,1,0.988,,,,,,,,0.534305556,-0.007990451,0,0,0,,0,124,124,114,1,RIKES,C,old,z,./images/RIKES.png,,,,,,,,,,,,,,,,,,,,,,,,,,,,,,,,,,,
,,,,,,,,,,,,,,,,,6108c363c95fc665a5d08c32,19,2022-02-12_17h41.45.617,lexical_decision_task_DD_L3,2021.2.3,MacIntel,60.0024001,,,,,,,,,,,0.5355,1,,,,,,,,,,,,,,,m,1,0.5355,,,,,,,,0.00016059,-0.438780382,1,0,0,,0,125,125,4,1,MUSCLE,C,old,m,./images/MUSCLE.png,break_done_button,,,,,,,,,,,,,,,,,,,,,,,,,,,,,,,,,,
,,,,,,,,,,,,,,,,,6108c363c95fc665a5d08c32,19,2022-02-12_17h41.45.617,lexical_decision_task_DD_L3,2021.2.3,MacIntel,60.0024001,,,,,,,,,,,0.6251,1,,,,,,,,,,,,,,,m,1,0.6251,,,,,,,,0.415364583,-0.093007812,0,0,0,,0,126,126,55,1,MUFFIN,C,old,m,./images/MUFFIN.png,,,,,,,,,,,,,,,,,,,,,,,,,,,,,,,,,,,
,,,,,,,,,,,,,,,,,6108c363c95fc665a5d08c32,19,2022-02-12_17h41.45.617,lexical_decision_task_DD_L3,2021.2.3,MacIntel,60.0024001,,,,,,,,,,,0.4904,1,,,,,,,,,,,,,,,z,1,0.4904,,,,,,,,0.415364583,-0.093007812,0,0,0,,0,127,127,150,1,NOOLS,C,old,z,./images/NOOLS.png,,,,,,,,,,,,,,,,,,,,,,,,,,,,,,,,,,,
,,,,,,,,,,,,,,,,,6108c363c95fc665a5d08c32,19,2022-02-12_17h41.45.617,lexical_decision_task_DD_L3,2021.2.3,MacIntel,60.0024001,,,,,,,,,,,0.5457,1,,,,,,,,,,,,,,,z,1,0.5457,,,,,,,,0.415364583,-0.093007812,0,0,0,,0,128,128,156,1,HIXES,C,old,z,./images/HIXES.png,,,,,,,,,,,,,,,,,,,,,,,,,,,,,,,,,,,
,,,,,,,,,,,,,,,,,6108c363c95fc665a5d08c32,19,2022-02-12_17h41.45.617,lexical_decision_task_DD_L3,2021.2.3,MacIntel,60.0024001,,,,,,,,,,,0.5359,1,,,,,,,,,,,,,,,m,1,0.5359,,,,,,,,0.415364583,-0.093007812,0,0,0,,0,129,129,15,1,GREASE,LB,old,m,./images/GREASELB.png,,,,,,,,,,,,,,,,,,,,,,,,,,,,,,,,,,,
,,,,,,,,,,,,,,,,,6108c363c95fc665a5d08c32,19,2022-02-12_17h41.45.617,lexical_decision_task_DD_L3,2021.2.3,MacIntel,60.0024001,,,,,,,,,,,0.5032,1,,,,,,,,,,,,,,,z,1,0.5032,,,,,,,,0.415364583,-0.093007812,0,0,0,,0,130,130,120,1,RINED,C,old,z,./images/RINED.png,,,,,,,,,,,,,,,,,,,,,,,,,,,,,,,,,,,
,,,,,,,,,,,,,,,,,6108c363c95fc665a5d08c32,19,2022-02-12_17h41.45.617,lexical_decision_task_DD_L3,2021.2.3,MacIntel,60.0024001,,,,,,,,,,,1.1454,1,,,,,,,,,,,,,,,z,1,1.1454,,,,,,,,0.415364583,-0.093007812,0,0,0,,0,131,131,149,1,VEASE,LB,old,z,./images/VEASELB.png,,,,,,,,,,,,,,,,,,,,,,,,,,,,,,,,,,,
,,,,,,,,,,,,,,,,,6108c363c95fc665a5d08c32,19,2022-02-12_17h41.45.617,lexical_decision_task_DD_L3,2021.2.3,MacIntel,60.0024001,,,,,,,,,,,0.6162,1,,,,,,,,,,,,,,,z,1,0.6162,,,,,,,,0.415364583,-0.093007812,0,0,0,,0,132,132,146,1,MOOST,LB,old,z,./images/MOOSTLB.png,,,,,,,,,,,,,,,,,,,,,,,,,,,,,,,,,,,
,,,,,,,,,,,,,,,,,6108c363c95fc665a5d08c32,19,2022-02-12_17h41.45.617,lexical_decision_task_DD_L3,2021.2.3,MacIntel,60.0024001,,,,,,,,,,,0.4781,1,,,,,,,,,,,,,,,m,1,0.4781,,,,,,,,0.415364583,-0.093007812,0,0,0,,0,133,133,61,1,CANDLE,C,old,m,./images/CANDLE.png,,,,,,,,,,,,,,,,,,,,,,,,,,,,,,,,,,,
,,,,,,,,,,,,,,,,,6108c363c95fc665a5d08c32,19,2022-02-12_17h41.45.617,lexical_decision_task_DD_L3,2021.2.3,MacIntel,60.0024001,,,,,,,,,,,0.5534,1,,,,,,,,,,,,,,,m,1,0.5534,,,,,,,,0.415364583,-0.093007812,0,0,0,,0,134,134,48,1,SPORT,LB,old,m,./images/SPORTLB.png,,,,,,,,,,,,,,,,,,,,,,,,,,,,,,,,,,,
,,,,,,,,,,,,,,,,,6108c363c95fc665a5d08c32,19,2022-02-12_17h41.45.617,lexical_decision_task_DD_L3,2021.2.3,MacIntel,60.0024001,,,,,,,,,,,0.7808,1,,,,,,,,,,,,,,,z,1,0.7808,,,,,,,,0.415364583,-0.093007812,0,0,0,,0,135,135,109,1,BURGE,HB,old,z,./images/BURGEHB.png,,,,,,,,,,,,,,,,,,,,,,,,,,,,,,,,,,,
,,,,,,,,,,,,,,,,,6108c363c95fc665a5d08c32,19,2022-02-12_17h41.45.617,lexical_decision_task_DD_L3,2021.2.3,MacIntel,60.0024001,,,,,,,,,,,0.5099,1,,,,,,,,,,,,,,,m,1,0.5099,,,,,,,,0.415364583,-0.093007812,0,0,0,,0,136,136,13,1,MOTOR,C,old,m,./images/MOTOR.png,,,,,,,,,,,,,,,,,,,,,,,,,,,,,,,,,,,
,,,,,,,,,,,,,,,,,6108c363c95fc665a5d08c32,19,2022-02-12_17h41.45.617,lexical_decision_task_DD_L3,2021.2.3,MacIntel,60.0024001,,,,,,,,,,,0.6686,1,,,,,,,,,,,,,,,m,1,0.6686,,,,,,,,0.415364583,-0.093007812,0,0,0,,0,137,137,52,1,BANNER,C,old,m,./images/BANNER.png,,,,,,,,,,,,,,,,,,,,,,,,,,,,,,,,,,,
,,,,,,,,,,,,,,,,,6108c363c95fc665a5d08c32,19,2022-02-12_17h41.45.617,lexical_decision_task_DD_L3,2021.2.3,MacIntel,60.0024001,,,,,,,,,,,0.5693,1,,,,,,,,,,,,,,,z,1,0.5693,,,,,,,,0.415364583,-0.093007812,0,0,0,,0,138,138,160,1,VEETS,HB,old,z,./images/VEETSHB.png,,,,,,,,,,,,,,,,,,,,,,,,,,,,,,,,,,,
,,,,,,,,,,,,,,,,,6108c363c95fc665a5d08c32,19,2022-02-12_17h41.45.617,lexical_decision_task_DD_L3,2021.2.3,MacIntel,60.0024001,,,,,,,,,,,0.8068,1,,,,,,,,,,,,,,,m,1,0.8068,,,,,,,,0.415364583,-0.093007812,0,0,0,,0,139,139,12,1,SHORE,LB,old,m,./images/SHORELB.png,,,,,,,,,,,,,,,,,,,,,,,,,,,,,,,,,,,
,,,,,,,,,,,,,,,,,6108c363c95fc665a5d08c32,19,2022-02-12_17h41.45.617,lexical_decision_task_DD_L3,2021.2.3,MacIntel,60.0024001,,,,,,,,,,,0.6303,1,,,,,,,,,,,,,,,z,1,0.6303,,,,,,,,0.415364583,-0.093007812,0,0,0,,0,140,140,139,1,BLEAR,HB,old,z,./images/BLEARHB.png,,,,,,,,,,,,,,,,,,,,,,,,,,,,,,,,,,,
,,,,,,,,,,,,,,,,,6108c363c95fc665a5d08c32,19,2022-02-12_17h41.45.617,lexical_decision_task_DD_L3,2021.2.3,MacIntel,60.0024001,,,,,,,,,,,0.5793,1,,,,,,,,,,,,,,,z,1,0.5793,,,,,,,,0.415364583,-0.093007812,0,0,0,,0,141,141,152,1,FRAIN,LB,old,z,./images/FRAINLB.png,,,,,,,,,,,,,,,,,,,,,,,,,,,,,,,,,,,
,,,,,,,,,,,,,,,,,6108c363c95fc665a5d08c32,19,2022-02-12_17h41.45.617,lexical_decision_task_DD_L3,2021.2.3,MacIntel,60.0024001,,,,,,,,,,,0.5621,1,,,,,,,,,,,,,,,m,1,0.5621,,,,,,,,0.415364583,-0.093007812,0,0,0,,0,142,142,33,1,MAGGOT,LB,old,m,./images/MAGGOTLB.png,,,,,,,,,,,,,,,,,,,,,,,,,,,,,,,,,,,
,,,,,,,,,,,,,,,,,6108c363c95fc665a5d08c32,19,2022-02-12_17h41.45.617,lexical_decision_task_DD_L3,2021.2.3,MacIntel,60.0024001,,,,,,,,,,,0.9206,1,,,,,,,,,,,,,,,m,1,0.9206,,,,,,,,0.415364583,-0.093007812,0,0,0,,0,143,143,20,1,CRADLE,HB,old,m,./images/CRADLEHB.png,,,,,,,,,,,,,,,,,,,,,,,,,,,,,,,,,,,
,,,,,,,,,,,,,,,,,6108c363c95fc665a5d08c32,19,2022-02-12_17h41.45.617,lexical_decision_task_DD_L3,2021.2.3,MacIntel,60.0024001,,,,,,,,,,,0.6384,1,,,,,,,,,,,,,,,z,1,0.6384,,,,,,,,0.415364583,-0.093007812,0,0,0,,0,144,144,108,1,GRUET,C,old,z,./images/GRUET.png,,,,,,,,,,,,,,,,,,,,,,,,,,,,,,,,,,,
,,,,,,,,,,,,,,,,,6108c363c95fc665a5d08c32,19,2022-02-12_17h41.45.617,lexical_decision_task_DD_L3,2021.2.3,MacIntel,60.0024001,,,,,,,,,,,0.6927,1,,,,,,,,,,,,,,,z,1,0.6927,,,,,,,,0.415364583,-0.093007812,0,0,0,,0,145,145,111,1,HOSSE,C,old,z,./images/HOSSE.png,,,,,,,,,,,,,,,,,,,,,,,,,,,,,,,,,,,
,,,,,,,,,,,,,,,,,6108c363c95fc665a5d08c32,19,2022-02-12_17h41.45.617,lexical_decision_task_DD_L3,2021.2.3,MacIntel,60.0024001,,,,,,,,,,,0.6809,1,,,,,,,,,,,,,,,m,1,0.6809,,,,,,,,0.415364583,-0.093007812,0,0,0,,0,146,146,47,1,BERRY,HB,old,m,./images/BERRYHB.png,,,,,,,,,,,,,,,,,,,,,,,,,,,,,,,,,,,
,,,,,,,,,,,,,,,,,6108c363c95fc665a5d08c32,19,2022-02-12_17h41.45.617,lexical_decision_task_DD_L3,2021.2.3,MacIntel,60.0024001,,,,,,,,,,,0.58,1,,,,,,,,,,,,,,,z,1,0.58,,,,,,,,0.415364583,-0.093007812,0,0,0,,0,147,147,164,1,SGREW,LB,old,z,./images/SGREWLB.png,,,,,,,,,,,,,,,,,,,,,,,,,,,,,,,,,,,
,,,,,,,,,,,,,,,,,6108c363c95fc665a5d08c32,19,2022-02-12_17h41.45.617,lexical_decision_task_DD_L3,2021.2.3,MacIntel,60.0024001,,,,,,,,,,,0.5234,1,,,,,,,,,,,,,,,m,1,0.5234,,,,,,,,0.415364583,-0.093007812,0,0,0,,0,148,148,76,1,INFANT,C,old,m,./images/INFANT.png,,,,,,,,,,,,,,,,,,,,,,,,,,,,,,,,,,,
,,,,,,,,,,,,,,,,,6108c363c95fc665a5d08c32,19,2022-02-12_17h41.45.617,lexical_decision_task_DD_L3,2021.2.3,MacIntel,60.0024001,,,,,,,,,,,0.818,1,,,,,,,,,,,,,,,m,1,0.818,,,,,,,,0.415364583,-0.093007812,0,0,0,,0,149,149,81,1,POODLE,LB,old,m,./images/POODLELB.png,,,,,,,,,,,,,,,,,,,,,,,,,,,,,,,,,,,
,,,,,,,,,,,,,,,,,6108c363c95fc665a5d08c32,19,2022-02-12_17h41.45.617,lexical_decision_task_DD_L3,2021.2.3,MacIntel,60.0024001,,,,,,,,,,,0.5881,1,,,,,,,,,,,,,,,z,1,0.5881,,,,,,,,0.415364583,-0.093007812,0,0,0,,0,150,150,90,1,NEAST,C,old,z,./images/NEAST.png,,,,,,,,,,,,,,,,,,,,,,,,,,,,,,,,,,,
,,,,,,,,,,,,,,,,,6108c363c95fc665a5d08c32,19,2022-02-12_17h41.45.617,lexical_decision_task_DD_L3,2021.2.3,MacIntel,60.0024001,,,,,,,,,,,0.6639,1,,,,,,,,,,,,,,,z,1,0.6639,,,,,,,,0.415364583,-0.093007812,0,0,0,,0,151,151,134,1,TROSS,LB,old,z,./images/TROSSLB.png,,,,,,,,,,,,,,,,,,,,,,,,,,,,,,,,,,,
,,,,,,,,,,,,,,,,,6108c363c95fc665a5d08c32,19,2022-02-12_17h41.45.617,lexical_decision_task_DD_L3,2021.2.3,MacIntel,60.0024001,,,,,,,,,,,0.863,1,,,,,,,,,,,,,,,z,1,0.863,,,,,,,,0.415364583,-0.093007812,0,0,0,,0,152,152,133,1,POWDY,HB,old,z,./images/POWDYHB.png,,,,,,,,,,,,,,,,,,,,,,,,,,,,,,,,,,,
,,,,,,,,,,,,,,,,,6108c363c95fc665a5d08c32,19,2022-02-12_17h41.45.617,lexical_decision_task_DD_L3,2021.2.3,MacIntel,60.0024001,,,,,,,,,,,0.5385,1,,,,,,,,,,,,,,,m,1,0.5385,,,,,,,,0.415364583,-0.093007812,0,0,0,,0,153,153,1,1,PLANK,C,old,m,./images/PLANK.png,,,,,,,,,,,,,,,,,,,,,,,,,,,,,,,,,,,
,,,,,,,,,,,,,,,,,6108c363c95fc665a5d08c32,19,2022-02-12_17h41.45.617,lexical_decision_task_DD_L3,2021.2.3,MacIntel,60.0024001,,,,,,,,,,,0.6463,1,,,,,,,,,,,,,,,m,1,0.6463,,,,,,,,0.415364583,-0.093007812,0,0,0,,0,154,154,43,1,MOSQUE,C,old,m,./images/MOSQUE.png,,,,,,,,,,,,,,,,,,,,,,,,,,,,,,,,,,,
,,,,,,,,,,,,,,,,,6108c363c95fc665a5d08c32,19,2022-02-12_17h41.45.617,lexical_decision_task_DD_L3,2021.2.3,MacIntel,60.0024001,,,,,,,,,,,0.5694,1,,,,,,,,,,,,,,,z,1,0.5694,,,,,,,,0.415364583,-0.093007812,0,0,0,,0,155,155,119,1,PAFER,LB,old,z,./images/PAFERLB.png,,,,,,,,,,,,,,,,,,,,,,,,,,,,,,,,,,,
,,,,,,,,,,,,,,,,,6108c363c95fc665a5d08c32,19,2022-02-12_17h41.45.617,lexical_decision_task_DD_L3,2021.2.3,MacIntel,60.0024001,,,,,,,,,,,0.5229,1,,,,,,,,,,,,,,,m,1,0.5229,,,,,,,,0.415364583,-0.093007812,0,0,0,,0,156,156,63,1,MIRROR,LB,old,m,./images/MIRRORLB.png,,,,,,,,,,,,,,,,,,,,,,,,,,,,,,,,,,,
,,,,,,,,,,,,,,,,,6108c363c95fc665a5d08c32,19,2022-02-12_17h41.45.617,lexical_decision_task_DD_L3,2021.2.3,MacIntel,60.0024001,,,,,,,,,,,0.5416,1,,,,,,,,,,,,,,,z,1,0.5416,,,,,,,,0.415364583,-0.093007812,0,0,0,,0,157,157,99,1,BACKY,C,old,z,./images/BACKY.png,,,,,,,,,,,,,,,,,,,,,,,,,,,,,,,,,,,
,,,,,,,,,,,,,,,,,6108c363c95fc665a5d08c32,19,2022-02-12_17h41.45.617,lexical_decision_task_DD_L3,2021.2.3,MacIntel,60.0024001,,,,,,,,,,,0.7877,1,,,,,,,,,,,,,,,z,1,0.7877,,,,,,,,0.415364583,-0.093007812,0,0,0,,0,158,158,136,1,WERVE,HB,old,z,./images/WERVEHB.png,,,,,,,,,,,,,,,,,,,,,,,,,,,,,,,,,,,
,,,,,,,,,,,,,,,,,6108c363c95fc665a5d08c32,19,2022-02-12_17h41.45.617,lexical_decision_task_DD_L3,2021.2.3,MacIntel,60.0024001,,,,,,,,,,,0.589,1,,,,,,,,,,,,,,,m,1,0.589,,,,,,,,0.415364583,-0.093007812,0,0,0,,0,159,159,79,1,CRUST,C,old,m,./images/CRUST.png,,,,,,,,,,,,,,,,,,,,,,,,,,,,,,,,,,,
,,,,,,,,,,,,,,,,,6108c363c95fc665a5d08c32,19,2022-02-12_17h41.45.617,lexical_decision_task_DD_L3,2021.2.3,MacIntel,60.0024001,,,,,,,,,,,0.6378,1,,,,,,,,,,,,,,,z,1,0.6378,,,,,,,,0.415364583,-0.093007812,0,0,0,,0,160,160,94,1,BLANS,HB,old,z,./images/BLANSHB.png,,,,,,,,,,,,,,,,,,,,,,,,,,,,,,,,,,,
,,,,,,,,,,,,,,,,,6108c363c95fc665a5d08c32,19,2022-02-12_17h41.45.617,lexical_decision_task_DD_L3,2021.2.3,MacIntel,60.0024001,,,,,,,,,,,0.5651,1,,,,,,,,,,,,,,,m,1,0.5651,,,,,,,,0.415364583,-0.093007812,0,0,0,,0,161,161,21,1,KIDNEY,LB,old,m,./images/KIDNEYLB.png,,,,,,,,,,,,,,,,,,,,,,,,,,,,,,,,,,,
,,,,,,,,,,,,,,,,,6108c363c95fc665a5d08c32,19,2022-02-12_17h41.45.617,lexical_decision_task_DD_L3,2021.2.3,MacIntel,60.0024001,,,,,,,,,,,0.8554,1,,,,,,,,,,,,,,,m,1,0.8554,,,,,,,,0.415364583,-0.093007812,0,0,0,,0,162,162,71,1,PIMPLE,HB,old,m,./images/PIMPLEHB.png,,,,,,,,,,,,,,,,,,,,,,,,,,,,,,,,,,,
,,,,,,,,,,,,,,,,,6108c363c95fc665a5d08c32,19,2022-02-12_17h41.45.617,lexical_decision_task_DD_L3,2021.2.3,MacIntel,60.0024001,,,,,,,,,,,0.4869,1,,,,,,,,,,,,,,,m,1,0.4869,,,,,,,,0.415364583,-0.093007812,0,0,0,,0,163,163,36,1,THROAT,LB,old,m,./images/THROATLB.png,,,,,,,,,,,,,,,,,,,,,,,,,,,,,,,,,,,
,,,,,,,,,,,,,,,,,6108c363c95fc665a5d08c32,19,2022-02-12_17h41.45.617,lexical_decision_task_DD_L3,2021.2.3,MacIntel,60.0024001,,,,,,,,,,,0.7149,1,,,,,,,,,,,,,,,m,1,0.7149,,,,,,,,0.415364583,-0.093007812,0,0,0,,0,164,164,11,1,BONNET,HB,old,m,./images/BONNETHB.png,,,,,,,,,,,,,,,,,,,,,,,,,,,,,,,,,,,
,,,,,,,,,,,,,,,,,6108c363c95fc665a5d08c32,19,2022-02-12_17h41.45.617,lexical_decision_task_DD_L3,2021.2.3,MacIntel,60.0024001,,,,,,,,,,,0.684,1,,,,,,,,,,,,,,,z,1,0.684,,,,,,,,0.415364583,-0.093007812,0,0,0,,0,165,165,167,1,ZONET,LB,old,z,./images/ZONETLB.png,,,,,,,,,,,,,,,,,,,,,,,,,,,,,,,,,,,
,,,,,,,,,,,,,,,,,6108c363c95fc665a5d08c32,19,2022-02-12_17h41.45.617,lexical_decision_task_DD_L3,2021.2.3,MacIntel,60.0024001,,,,,,,,,,,0.5136,1,,,,,,,,,,,,,,,m,1,0.5136,,,,,,,,0.415364583,-0.093007812,0,0,0,,0,166,166,35,1,PEACH,HB,old,m,./images/PEACHHB.png,,,,,,,,,,,,,,,,,,,,,,,,,,,,,,,,,,,
,,,,,,,,,,,,,,,,,6108c363c95fc665a5d08c32,19,2022-02-12_17h41.45.617,lexical_decision_task_DD_L3,2021.2.3,MacIntel,60.0024001,,,,,,,,,,,0.9338,1,,,,,,,,,,,,,,,m,1,0.9338,,,,,,,,0.415364583,-0.093007812,0,0,0,,0,167,167,57,1,MOOSE,LB,old,m,./images/MOOSELB.png,,,,,,,,,,,,,,,,,,,,,,,,,,,,,,,,,,,
,,,,,,,,,,,,,,,,,6108c363c95fc665a5d08c32,19,2022-02-12_17h41.45.617,lexical_decision_task_DD_L3,2021.2.3,MacIntel,60.0024001,,,,,,,,,,,,,,,,,,,,,,,,,,,,,,,,,,,,,,,,,,,,,,,,,How likely will it be that you will recognize the words presented slighly blurred on a scale of 0 (not likely) to 100 (most likely)?,,,,,-0.001644965,-0.397868924,1,0,0,jol_adv,3,4.8445,0,0,0,1,1,,,,,,,,,,,,,,,,,,,,,
,,,,,,,,,,,,,,,,,6108c363c95fc665a5d08c32,19,2022-02-12_17h41.45.617,lexical_decision_task_DD_L3,2021.2.3,MacIntel,60.0024001,,,,,,,,,,,,,,,,,,,,,,,,,,,,,,,,,,,,,,,,,,,,,,,,,How likely will it be that you will recognize the words presented clearly on a scale of 0 (not likely) to 100 (most likely)?,,,,,,,,,,,6,4.4675,0,1,1,0,1,,,,,,,,,,,,,,,,,,,,,
,,,,,,,,,,,,,,,,,6108c363c95fc665a5d08c32,19,2022-02-12_17h41.45.617,lexical_decision_task_DD_L3,2021.2.3,MacIntel,60.0024001,,,,,,,,,,,,,,,,,,,,,,,,,,,,,,,,,,,,,,,,,,,,,,,,,How likely will it be that you will recognize the words presented very blurred on a scale of 0 (not likely) to 100 (most likely)?,,,,,,,,,,,2,4.3338,0,2,2,2,1,,,,,,,,,,,,,,,,,,,,,
,,-0.091349826,-0.422712674,1,0,0,,,,,,1,test,"In the next phase you will be presented with the words from the the first phase. Your job is to decide whether you remember seeing the word or not. If you remember seeing the word press ""old"" or type ""m"". If you do not remember seeing the word press ""new"" or type ""z"". Please press the space bar or click on continue to begin. ",,,6108c363c95fc665a5d08c32,19,2022-02-12_17h41.45.617,lexical_decision_task_DD_L3,2021.2.3,MacIntel,60.0024001,,,,,,,,,,,,,,,,,,,,,instr_done_button,,,,,,,,,,,,,,,,,,,,,,,,,,,,,,,,,,,,,,,,,,,,,,0,0,0,0,1,,,,,,,,,,,,,,,,
space,2.8691,0.529761285,-0.060481771,0,0,0,,,,,,1,test,"In the next phase you will be presented with the words from the the first phase. Your job is to decide whether you remember seeing the word or not. If you remember seeing the word press ""old"" or type ""m"". If you do not remember seeing the word press ""new"" or type ""z"". Please press the space bar or click on continue to begin. ",,,6108c363c95fc665a5d08c32,19,2022-02-12_17h41.45.617,lexical_decision_task_DD_L3,2021.2.3,MacIntel,60.0024001,,,,,,,,,,,,,,,,,,,,,,,,,,,,,,,,,,,,,,,,,,,,,,,,,,,,,,,,,,,,,,,,,,,1,0,1,0,1,,,,,,,,,,,,,,,,
,,-0.014965278,-0.414457465,1,0,0,,,,,,1,test,"In the next phase you will be presented with the words from the the first phase. Your job is to decide whether you remember seeing the word or not. If you remember seeing the word press ""old"" or type ""m"". If you do not remember seeing the word press ""new"" or type ""z"". Please press the space bar or click on continue to begin. ",,,6108c363c95fc665a5d08c32,19,2022-02-12_17h41.45.617,lexical_decision_task_DD_L3,2021.2.3,MacIntel,60.0024001,,,,,,,,,,,,,,,,,,,,,instr_done_button,,,,,,,,,,,,,,,,,,,,,,,,,,,,,,,,,,,,,,,,,,,,,,2,0,2,0,1,,,,,,,,,,,,,,,,
,,0.003094618,-0.3825,1,0,0,,,,,,1,test,"In the next phase you will be presented with the words from the the first phase. Your job is to decide whether you remember seeing the word or not. If you remember seeing the word press ""old"" or type ""m"". If you do not remember seeing the word press ""new"" or type ""z"". Please press the space bar or click on continue to begin. ",,,6108c363c95fc665a5d08c32,19,2022-02-12_17h41.45.617,lexical_decision_task_DD_L3,2021.2.3,MacIntel,60.0024001,,,,,,,,,,,,,,,,,,,,,instr_done_button,,,,,,,,,,,,,,,,,,,,,,,,,,,,,,,,,,,,,,,,,,,,,,3,0,3,0,1,,,,,,,,,,,,,,,,
space,1.0089,0.052330729,-0.108042535,0,0,0,,,,,,1,test,"In the next phase you will be presented with the words from the the first phase. Your job is to decide whether you remember seeing the word or not. If you remember seeing the word press ""old"" or type ""m"". If you do not remember seeing the word press ""new"" or type ""z"". Please press the space bar or click on continue to begin. ",,,6108c363c95fc665a5d08c32,19,2022-02-12_17h41.45.617,lexical_decision_task_DD_L3,2021.2.3,MacIntel,60.0024001,,,,,,,,,,,,,,,,,,,,,,,,,,,,,,,,,,,,,,,,,,,,,,,,,,,,,,,,,,,,,,,,,,,4,0,4,0,1,,,,,,,,,,,,,,,,
,,,,,,,,,,,,,,,,,6108c363c95fc665a5d08c32,19,2022-02-12_17h41.45.617,lexical_decision_task_DD_L3,2021.2.3,MacIntel,60.0024001,,,,,,,,,,,1.0019,1,,,,,,,,,,,,,,,,,,,,,,,,,0.052330729,-0.108042535,0,0,0,,,,,,,THROAT,LB,m,m,./images/THROATLB.png,,,,,,,,,,,,,,,,,,,,m,1,1.0019,,,,,,,,0,0,0,36,1,
,,,,,,,,,,,,,,,,,6108c363c95fc665a5d08c32,19,2022-02-12_17h41.45.617,lexical_decision_task_DD_L3,2021.2.3,MacIntel,60.0024001,,,,,,,,,,,0.7516,1,,,,,,,,,,,,,,,,,,,,,,,,,0.052330729,-0.108042535,0,0,0,,,,,,,CRUMB,HB,m,m,./images/CRUMBHB.png,,,,,,,,,,,,,,,,,,,,m,1,0.7516,,,,,,,,0,1,1,29,1,
,,,,,,,,,,,,,,,,,6108c363c95fc665a5d08c32,19,2022-02-12_17h41.45.617,lexical_decision_task_DD_L3,2021.2.3,MacIntel,60.0024001,,,,,,,,,,,0.6881,1,,,,,,,,,,,,,,,,,,,,,,,,,0.052330729,-0.108042535,0,0,0,,,,,,,CRUST,C,m,m,./images/CRUST.png,,,,,,,,,,,,,,,,,,,,m,1,0.6881,,,,,,,,0,2,2,79,1,
,,,,,,,,,,,,,,,,,6108c363c95fc665a5d08c32,19,2022-02-12_17h41.45.617,lexical_decision_task_DD_L3,2021.2.3,MacIntel,60.0024001,,,,,,,,,,,0.6951,1,,,,,,,,,,,,,,,,,,,,,,,,,0.052330729,-0.108042535,0,0,0,,,,,,,SCREW,LB,m,m,./images/SCREWLB.png,,,,,,,,,,,,,,,,,,,,m,1,0.6951,,,,,,,,0,3,3,24,1,
,,,,,,,,,,,,,,,,,6108c363c95fc665a5d08c32,19,2022-02-12_17h41.45.617,lexical_decision_task_DD_L3,2021.2.3,MacIntel,60.0024001,,,,,,,,,,,0.8354,1,,,,,,,,,,,,,,,,,,,,,,,,,0.052330729,-0.108042535,0,0,0,,,,,,,GRAPE,C,z,m,./images/GRAPE.png,,,,,,,,,,,,,,,,,,,,z,1,0.8354,,,,,,,,0,4,4,100,1,
,,,,,,,,,,,,,,,,,6108c363c95fc665a5d08c32,19,2022-02-12_17h41.45.617,lexical_decision_task_DD_L3,2021.2.3,MacIntel,60.0024001,,,,,,,,,,,1.6625,1,,,,,,,,,,,,,,,,,,,,,,,,,0.052330729,-0.108042535,0,0,0,,,,,,,ONION,LB,m,m,./images/ONIONLB.png,,,,,,,,,,,,,,,,,,,,m,1,1.6625,,,,,,,,0,5,5,51,1,
,,,,,,,,,,,,,,,,,6108c363c95fc665a5d08c32,19,2022-02-12_17h41.45.617,lexical_decision_task_DD_L3,2021.2.3,MacIntel,60.0024001,,,,,,,,,,,1.1726,0,,,,,,,,,,,,,,,,,,,,,,,,,0.052330729,-0.108042535,0,0,0,,,,,,,BAKER,LB,z,m,./images/BAKERLB.png,,,,,,,,,,,,,,,,,,,,m,0,1.1726,,,,,,,,0,6,6,147,1,
,,,,,,,,,,,,,,,,,6108c363c95fc665a5d08c32,19,2022-02-12_17h41.45.617,lexical_decision_task_DD_L3,2021.2.3,MacIntel,60.0024001,,,,,,,,,,,1.3174,1,,,,,,,,,,,,,,,,,,,,,,,,,0.052330729,-0.108042535,0,0,0,,,,,,,TULIP,HB,m,m,./images/TULIPHB.png,,,,,,,,,,,,,,,,,,,,m,1,1.3174,,,,,,,,0,7,7,8,1,
,,,,,,,,,,,,,,,,,6108c363c95fc665a5d08c32,19,2022-02-12_17h41.45.617,lexical_decision_task_DD_L3,2021.2.3,MacIntel,60.0024001,,,,,,,,,,,0.8714,0,,,,,,,,,,,,,,,,,,,,,,,,,0.052330729,-0.108042535,0,0,0,,,,,,,PILOT,HB,z,m,./images/PILOTHB.png,,,,,,,,,,,,,,,,,,,,m,0,0.8714,,,,,,,,0,8,8,134,1,
,,,,,,,,,,,,,,,,,6108c363c95fc665a5d08c32,19,2022-02-12_17h41.45.617,lexical_decision_task_DD_L3,2021.2.3,MacIntel,60.0024001,,,,,,,,,,,0.9961,0,,,,,,,,,,,,,,,,,,,,,,,,,0.052330729,-0.108042535,0,0,0,,,,,,,GARDEN,C,z,m,./images/GARDEN.png,,,,,,,,,,,,,,,,,,,,m,0,0.9961,,,,,,,,0,9,9,94,1,
,,,,,,,,,,,,,,,,,6108c363c95fc665a5d08c32,19,2022-02-12_17h41.45.617,lexical_decision_task_DD_L3,2021.2.3,MacIntel,60.0024001,,,,,,,,,,,1.5078,1,,,,,,,,,,,,,,,,,,,,,,,,,0.052330729,-0.108042535,0,0,0,,,,,,,FLASK,LB,z,m,./images/FLASKLB.png,,,,,,,,,,,,,,,,,,,,z,1,1.5078,,,,,,,,0,10,10,156,1,
,,,,,,,,,,,,,,,,,6108c363c95fc665a5d08c32,19,2022-02-12_17h41.45.617,lexical_decision_task_DD_L3,2021.2.3,MacIntel,60.0024001,,,,,,,,,,,1.2746,1,,,,,,,,,,,,,,,,,,,,,,,,,0.052330729,-0.108042535,0,0,0,,,,,,,MUSCLE,C,m,m,./images/MUSCLE.png,,,,,,,,,,,,,,,,,,,,m,1,1.2746,,,,,,,,0,11,11,4,1,
,,,,,,,,,,,,,,,,,6108c363c95fc665a5d08c32,19,2022-02-12_17h41.45.617,lexical_decision_task_DD_L3,2021.2.3,MacIntel,60.0024001,,,,,,,,,,,0.7937,1,,,,,,,,,,,,,,,,,,,,,,,,,0.052330729,-0.108042535,0,0,0,,,,,,,CRATER,LB,z,m,./images/CRATERLB.png,,,,,,,,,,,,,,,,,,,,z,1,0.7937,,,,,,,,0,12,12,87,1,
,,,,,,,,,,,,,,,,,6108c363c95fc665a5d08c32,19,2022-02-12_17h41.45.617,lexical_decision_task_DD_L3,2021.2.3,MacIntel,60.0024001,,,,,,,,,,,0.9959,0,,,,,,,,,,,,,,,,,,,,,,,,,0.052330729,-0.108042535,0,0,0,,,,,,,DANCER,LB,z,m,./images/DANCERLB.png,,,,,,,,,,,,,,,,,,,,m,0,0.9959,,,,,,,,0,13,13,105,1,
,,,,,,,,,,,,,,,,,6108c363c95fc665a5d08c32,19,2022-02-12_17h41.45.617,lexical_decision_task_DD_L3,2021.2.3,MacIntel,60.0024001,,,,,,,,,,,1.9674,0,,,,,,,,,,,,,,,,,,,,,,,,,0.052330729,-0.108042535,0,0,0,,,,,,,WALNUT,LB,z,m,./images/WALNUTLB.png,,,,,,,,,,,,,,,,,,,,m,0,1.9674,,,,,,,,0,14,14,84,1,
,,,,,,,,,,,,,,,,,6108c363c95fc665a5d08c32,19,2022-02-12_17h41.45.617,lexical_decision_task_DD_L3,2021.2.3,MacIntel,60.0024001,,,,,,,,,,,0.7465,0,,,,,,,,,,,,,,,,,,,,,,,,,0.052330729,-0.108042535,0,0,0,,,,,,,BUBBLE,HB,z,m,./images/BUBBLEHB.png,,,,,,,,,,,,,,,,,,,,m,0,0.7465,,,,,,,,0,15,15,155,1,
,,,,,,,,,,,,,,,,,6108c363c95fc665a5d08c32,19,2022-02-12_17h41.45.617,lexical_decision_task_DD_L3,2021.2.3,MacIntel,60.0024001,,,,,,,,,,,0.7135,1,,,,,,,,,,,,,,,,,,,,,,,,,0.052330729,-0.108042535,0,0,0,,,,,,,FARMER,HB,m,m,./images/FARMERHB.png,,,,,,,,,,,,,,,,,,,,m,1,0.7135,,,,,,,,0,16,16,65,1,
,,,,,,,,,,,,,,,,,6108c363c95fc665a5d08c32,19,2022-02-12_17h41.45.617,lexical_decision_task_DD_L3,2021.2.3,MacIntel,60.0024001,,,,,,,,,,,1.0572,1,,,,,,,,,,,,,,,,,,,,,,,,,0.052330729,-0.108042535,0,0,0,,,,,,,HAMMER,LB,z,m,./images/HAMMERLB.png,,,,,,,,,,,,,,,,,,,,z,1,1.0572,,,,,,,,0,17,17,159,1,
,,,,,,,,,,,,,,,,,6108c363c95fc665a5d08c32,19,2022-02-12_17h41.45.617,lexical_decision_task_DD_L3,2021.2.3,MacIntel,60.0024001,,,,,,,,,,,1.0431,1,,,,,,,,,,,,,,,,,,,,,,,,,0.052330729,-0.108042535,0,0,0,,,,,,,PURSE,HB,m,m,./images/PURSEHB.png,,,,,,,,,,,,,,,,,,,,m,1,1.0431,,,,,,,,0,18,18,62,1,
,,,,,,,,,,,,,,,,,6108c363c95fc665a5d08c32,19,2022-02-12_17h41.45.617,lexical_decision_task_DD_L3,2021.2.3,MacIntel,60.0024001,,,,,,,,,,,0.8404,1,,,,,,,,,,,,,,,,,,,,,,,,,0.052330729,-0.108042535,0,0,0,,,,,,,POKER,C,z,m,./images/POKER.png,,,,,,,,,,,,,,,,,,,,z,1,0.8404,,,,,,,,0,19,19,151,1,
,,,,,,,,,,,,,,,,,6108c363c95fc665a5d08c32,19,2022-02-12_17h41.45.617,lexical_decision_task_DD_L3,2021.2.3,MacIntel,60.0024001,,,,,,,,,,,0.7289,1,,,,,,,,,,,,,,,,,,,,,,,,,0.052330729,-0.108042535,0,0,0,,,,,,,GREASE,LB,m,m,./images/GREASELB.png,,,,,,,,,,,,,,,,,,,,m,1,0.7289,,,,,,,,0,20,20,15,1,
,,,,,,,,,,,,,,,,,6108c363c95fc665a5d08c32,19,2022-02-12_17h41.45.617,lexical_decision_task_DD_L3,2021.2.3,MacIntel,60.0024001,,,,,,,,,,,0.7288,1,,,,,,,,,,,,,,,,,,,,,,,,,0.052330729,-0.108042535,0,0,0,,,,,,,QUILL,C,m,m,./images/QUILL.png,,,,,,,,,,,,,,,,,,,,m,1,0.7288,,,,,,,,0,21,21,31,1,
,,,,,,,,,,,,,,,,,6108c363c95fc665a5d08c32,19,2022-02-12_17h41.45.617,lexical_decision_task_DD_L3,2021.2.3,MacIntel,60.0024001,,,,,,,,,,,0.7463,1,,,,,,,,,,,,,,,,,,,,,,,,,0.052330729,-0.108042535,0,0,0,,,,,,,NOOSE,LB,m,m,./images/NOOSELB.png,,,,,,,,,,,,,,,,,,,,m,1,0.7463,,,,,,,,0,22,22,72,1,
,,,,,,,,,,,,,,,,,6108c363c95fc665a5d08c32,19,2022-02-12_17h41.45.617,lexical_decision_task_DD_L3,2021.2.3,MacIntel,60.0024001,,,,,,,,,,,0.7127,1,,,,,,,,,,,,,,,,,,,,,,,,,0.052330729,-0.108042535,0,0,0,,,,,,,CRADLE,HB,m,m,./images/CRADLEHB.png,,,,,,,,,,,,,,,,,,,,m,1,0.7127,,,,,,,,0,23,23,20,1,
,,,,,,,,,,,,,,,,,6108c363c95fc665a5d08c32,19,2022-02-12_17h41.45.617,lexical_decision_task_DD_L3,2021.2.3,MacIntel,60.0024001,,,,,,,,,,,0.7361,1,,,,,,,,,,,,,,,,,,,,,,,,,0.052330729,-0.108042535,0,0,0,,,,,,,BUTTER,LB,z,m,./images/BUTTERLB.png,,,,,,,,,,,,,,,,,,,,z,1,0.7361,,,,,,,,0,24,24,111,1,
,,,,,,,,,,,,,,,,,6108c363c95fc665a5d08c32,19,2022-02-12_17h41.45.617,lexical_decision_task_DD_L3,2021.2.3,MacIntel,60.0024001,,,,,,,,,,,0.9964,1,,,,,,,,,,,,,,,,,,,,,,,,,0.052330729,-0.108042535,0,0,0,,,,,,,SPINE,HB,z,m,./images/SPINEHB.png,,,,,,,,,,,,,,,,,,,,z,1,0.9964,,,,,,,,0,25,25,149,1,
,,,,,,,,,,,,,,,,,6108c363c95fc665a5d08c32,19,2022-02-12_17h41.45.617,lexical_decision_task_DD_L3,2021.2.3,MacIntel,60.0024001,,,,,,,,,,,0.5826,1,,,,,,,,,,,,,,,,,,,,,,,,,0.052330729,-0.108042535,0,0,0,,,,,,,PEACH,HB,m,m,./images/PEACHHB.png,,,,,,,,,,,,,,,,,,,,m,1,0.5826,,,,,,,,0,26,26,35,1,
,,,,,,,,,,,,,,,,,6108c363c95fc665a5d08c32,19,2022-02-12_17h41.45.617,lexical_decision_task_DD_L3,2021.2.3,MacIntel,60.0024001,,,,,,,,,,,0.7461,1,,,,,,,,,,,,,,,,,,,,,,,,,0.052330729,-0.108042535,0,0,0,,,,,,,PLANK,C,m,m,./images/PLANK.png,,,,,,,,,,,,,,,,,,,,m,1,0.7461,,,,,,,,0,27,27,1,1,
,,,,,,,,,,,,,,,,,6108c363c95fc665a5d08c32,19,2022-02-12_17h41.45.617,lexical_decision_task_DD_L3,2021.2.3,MacIntel,60.0024001,,,,,,,,,,,0.6633,1,,,,,,,,,,,,,,,,,,,,,,,,,0.052330729,-0.108042535,0,0,0,,,,,,,DOUGH,C,m,m,./images/DOUGH.png,,,,,,,,,,,,,,,,,,,,m,1,0.6633,,,,,,,,0,28,28,19,1,
,,,,,,,,,,,,,,,,,6108c363c95fc665a5d08c32,19,2022-02-12_17h41.45.617,lexical_decision_task_DD_L3,2021.2.3,MacIntel,60.0024001,,,,,,,,,,,1.1703,1,,,,,,,,,,,,,,,,,,,,,,,,,0.052330729,-0.108042535,0,0,0,,,,,,,PAINT,C,m,m,./images/PAINT.png,,,,,,,,,,,,,,,,,,,,m,1,1.1703,,,,,,,,0,29,29,7,1,
,,,,,,,,,,,,,,,,,6108c363c95fc665a5d08c32,19,2022-02-12_17h41.45.617,lexical_decision_task_DD_L3,2021.2.3,MacIntel,60.0024001,,,,,,,,,,,0.7784,0,,,,,,,,,,,,,,,,,,,,,,,,,0.052330729,-0.108042535,0,0,0,,,,,,,PICKLE,HB,m,m,./images/PICKLEHB.png,,,,,,,,,,,,,,,,,,,,z,0,0.7784,,,,,,,,0,30,30,14,1,
,,,,,,,,,,,,,,,,,6108c363c95fc665a5d08c32,19,2022-02-12_17h41.45.617,lexical_decision_task_DD_L3,2021.2.3,MacIntel,60.0024001,,,,,,,,,,,0.9449,1,,,,,,,,,,,,,,,,,,,,,,,,,0.052330729,-0.108042535,0,0,0,,,,,,,JELLY,C,m,m,./images/JELLY.png,,,,,,,,,,,,,,,,,,,,m,1,0.9449,,,,,,,,0,31,31,64,1,
,,,,,,,,,,,,,,,,,6108c363c95fc665a5d08c32,19,2022-02-12_17h41.45.617,lexical_decision_task_DD_L3,2021.2.3,MacIntel,60.0024001,,,,,,,,,,,0.8624,1,,,,,,,,,,,,,,,,,,,,,,,,,0.052330729,-0.108042535,0,0,0,,,,,,,BELLY,C,m,m,./images/BELLY.png,,,,,,,,,,,,,,,,,,,,m,1,0.8624,,,,,,,,0,32,32,10,1,
,,,,,,,,,,,,,,,,,6108c363c95fc665a5d08c32,19,2022-02-12_17h41.45.617,lexical_decision_task_DD_L3,2021.2.3,MacIntel,60.0024001,,,,,,,,,,,0.7141,1,,,,,,,,,,,,,,,,,,,,,,,,,0.052330729,-0.108042535,0,0,0,,,,,,,JAGUAR,LB,m,m,./images/JAGUARLB.png,,,,,,,,,,,,,,,,,,,,m,1,0.7141,,,,,,,,0,33,33,18,1,
,,,,,,,,,,,,,,,,,6108c363c95fc665a5d08c32,19,2022-02-12_17h41.45.617,lexical_decision_task_DD_L3,2021.2.3,MacIntel,60.0024001,,,,,,,,,,,0.8637,1,,,,,,,,,,,,,,,,,,,,,,,,,0.052330729,-0.108042535,0,0,0,,,,,,,CHERRY,LB,z,m,./images/CHERRYLB.png,,,,,,,,,,,,,,,,,,,,z,1,0.8637,,,,,,,,0,34,34,138,1,
,,,,,,,,,,,,,,,,,6108c363c95fc665a5d08c32,19,2022-02-12_17h41.45.617,lexical_decision_task_DD_L3,2021.2.3,MacIntel,60.0024001,,,,,,,,,,,1.2467,0,,,,,,,,,,,,,,,,,,,,,,,,,0.052330729,-0.108042535,0,0,0,,,,,,,CHAIN,LB,z,m,./images/CHAINLB.png,,,,,,,,,,,,,,,,,,,,m,0,1.2467,,,,,,,,0,35,35,126,1,
,,,,,,,,,,,,,,,,,6108c363c95fc665a5d08c32,19,2022-02-12_17h41.45.617,lexical_decision_task_DD_L3,2021.2.3,MacIntel,60.0024001,,,,,,,,,,,0.7873,0,,,,,,,,,,,,,,,,,,,,,,,,,0.052330729,-0.108042535,0,0,0,,,,,,,FERRY,LB,z,m,./images/FERRYLB.png,,,,,,,,,,,,,,,,,,,,m,0,0.7873,,,,,,,,0,36,36,141,1,
,,,,,,,,,,,,,,,,,6108c363c95fc665a5d08c32,19,2022-02-12_17h41.45.617,lexical_decision_task_DD_L3,2021.2.3,MacIntel,60.0024001,,,,,,,,,,,0.7862,1,,,,,,,,,,,,,,,,,,,,,,,,,0.052330729,-0.108042535,0,0,0,,,,,,,SAUCE,LB,z,m,./images/SAUCELB.png,,,,,,,,,,,,,,,,,,,,z,1,0.7862,,,,,,,,0,37,37,135,1,
,,,,,,,,,,,,,,,,,6108c363c95fc665a5d08c32,19,2022-02-12_17h41.45.617,lexical_decision_task_DD_L3,2021.2.3,MacIntel,60.0024001,,,,,,,,,,,0.8002,1,,,,,,,,,,,,,,,,,,,,,,,,,0.052330729,-0.108042535,0,0,0,,,,,,,WRIST,C,m,m,./images/WRIST.png,,,,,,,,,,,,,,,,,,,,m,1,0.8002,,,,,,,,0,38,38,25,1,
,,,,,,,,,,,,,,,,,6108c363c95fc665a5d08c32,19,2022-02-12_17h41.45.617,lexical_decision_task_DD_L3,2021.2.3,MacIntel,60.0024001,,,,,,,,,,,0.6492,0,,,,,,,,,,,,,,,,,,,,,,,,,0.052330729,-0.108042535,0,0,0,,,,,,,COLLAR,LB,z,m,./images/COLLARLB.png,,,,,,,,,,,,,,,,,,,,m,0,0.6492,,,,,,,,0,39,39,99,1,
,,,,,,,,,,,,,,,,,6108c363c95fc665a5d08c32,19,2022-02-12_17h41.45.617,lexical_decision_task_DD_L3,2021.2.3,MacIntel,60.0024001,,,,,,,,,,,1.6796,1,,,,,,,,,,,,,,,,,,,,,,,,,0.052330729,-0.108042535,0,0,0,,,,,,,LIZARD,HB,m,m,./images/LIZARDHB.png,,,,,,,,,,,,,,,,,,,,m,1,1.6796,,,,,,,,0,40,40,44,1,
,,,,,,,,,,,,,,,,,6108c363c95fc665a5d08c32,19,2022-02-12_17h41.45.617,lexical_decision_task_DD_L3,2021.2.3,MacIntel,60.0024001,,,,,,,,,,,0.7301,1,,,,,,,,,,,,,,,,,,,,,,,,,-0.062873264,-0.415954861,1,0,0,,,,,,,STATUE,LB,z,m,./images/STATUELB.png,break_done_button,,,,,,,,,,,,,,,,,,,z,1,0.7301,,,,,,,,0,41,41,150,1,
,,,,,,,,,,,,,,,,,6108c363c95fc665a5d08c32,19,2022-02-12_17h41.45.617,lexical_decision_task_DD_L3,2021.2.3,MacIntel,60.0024001,,,,,,,,,,,0.7177,1,,,,,,,,,,,,,,,,,,,,,,,,,0.228090278,-0.08578559,0,0,0,,,,,,,LADDER,HB,m,m,./images/LADDERHB.png,,,,,,,,,,,,,,,,,,,,m,1,0.7177,,,,,,,,0,42,42,38,1,
,,,,,,,,,,,,,,,,,6108c363c95fc665a5d08c32,19,2022-02-12_17h41.45.617,lexical_decision_task_DD_L3,2021.2.3,MacIntel,60.0024001,,,,,,,,,,,0.6693,1,,,,,,,,,,,,,,,,,,,,,,,,,0.228090278,-0.08578559,0,0,0,,,,,,,ATTIC,LB,m,m,./images/ATTICLB.png,,,,,,,,,,,,,,,,,,,,m,1,0.6693,,,,,,,,0,43,43,27,1,
,,,,,,,,,,,,,,,,,6108c363c95fc665a5d08c32,19,2022-02-12_17h41.45.617,lexical_decision_task_DD_L3,2021.2.3,MacIntel,60.0024001,,,,,,,,,,,0.6638,1,,,,,,,,,,,,,,,,,,,,,,,,,0.228090278,-0.08578559,0,0,0,,,,,,,CARPET,HB,m,m,./images/CARPETHB.png,,,,,,,,,,,,,,,,,,,,m,1,0.6638,,,,,,,,0,44,44,53,1,
,,,,,,,,,,,,,,,,,6108c363c95fc665a5d08c32,19,2022-02-12_17h41.45.617,lexical_decision_task_DD_L3,2021.2.3,MacIntel,60.0024001,,,,,,,,,,,0.6124,1,,,,,,,,,,,,,,,,,,,,,,,,,0.228090278,-0.08578559,0,0,0,,,,,,,TRIPOD,LB,m,m,./images/TRIPODLB.png,,,,,,,,,,,,,,,,,,,,m,1,0.6124,,,,,,,,0,45,45,54,1,
,,,,,,,,,,,,,,,,,6108c363c95fc665a5d08c32,19,2022-02-12_17h41.45.617,lexical_decision_task_DD_L3,2021.2.3,MacIntel,60.0024001,,,,,,,,,,,0.798,1,,,,,,,,,,,,,,,,,,,,,,,,,0.228090278,-0.08578559,0,0,0,,,,,,,PENCE,C,m,m,./images/PENCE.png,,,,,,,,,,,,,,,,,,,,m,1,0.798,,,,,,,,0,46,46,16,1,
,,,,,,,,,,,,,,,,,6108c363c95fc665a5d08c32,19,2022-02-12_17h41.45.617,lexical_decision_task_DD_L3,2021.2.3,MacIntel,60.0024001,,,,,,,,,,,1.131,0,,,,,,,,,,,,,,,,,,,,,,,,,0.228090278,-0.08578559,0,0,0,,,,,,,BAMBOO,HB,z,m,./images/BAMBOOHB.png,,,,,,,,,,,,,,,,,,,,m,0,1.131,,,,,,,,0,47,47,89,1,
,,,,,,,,,,,,,,,,,6108c363c95fc665a5d08c32,19,2022-02-12_17h41.45.617,lexical_decision_task_DD_L3,2021.2.3,MacIntel,60.0024001,,,,,,,,,,,1.432,1,,,,,,,,,,,,,,,,,,,,,,,,,0.228090278,-0.08578559,0,0,0,,,,,,,PEARL,C,m,m,./images/PEARL.png,,,,,,,,,,,,,,,,,,,,m,1,1.432,,,,,,,,0,48,48,46,1,
,,,,,,,,,,,,,,,,,6108c363c95fc665a5d08c32,19,2022-02-12_17h41.45.617,lexical_decision_task_DD_L3,2021.2.3,MacIntel,60.0024001,,,,,,,,,,,1.4808,1,,,,,,,,,,,,,,,,,,,,,,,,,0.228090278,-0.08578559,0,0,0,,,,,,,MALLET,HB,m,m,./images/MALLETHB.png,,,,,,,,,,,,,,,,,,,,m,1,1.4808,,,,,,,,0,49,49,50,1,
,,,,,,,,,,,,,,,,,6108c363c95fc665a5d08c32,19,2022-02-12_17h41.45.617,lexical_decision_task_DD_L3,2021.2.3,MacIntel,60.0024001,,,,,,,,,,,1.0397,1,,,,,,,,,,,,,,,,,,,,,,,,,0.228090278,-0.08578559,0,0,0,,,,,,,STOVE,HB,z,m,./images/STOVEHB.png,,,,,,,,,,,,,,,,,,,,z,1,1.0397,,,,,,,,0,50,50,86,1,
,,,,,,,,,,,,,,,,,6108c363c95fc665a5d08c32,19,2022-02-12_17h41.45.617,lexical_decision_task_DD_L3,2021.2.3,MacIntel,60.0024001,,,,,,,,,,,1.8465,0,,,,,,,,,,,,,,,,,,,,,,,,,0.228090278,-0.08578559,0,0,0,,,,,,,LLAMA,HB,z,m,./images/LLAMAHB.png,,,,,,,,,,,,,,,,,,,,m,0,1.8465,,,,,,,,0,51,51,119,1,
,,,,,,,,,,,,,,,,,6108c363c95fc665a5d08c32,19,2022-02-12_17h41.45.617,lexical_decision_task_DD_L3,2021.2.3,MacIntel,60.0024001,,,,,,,,,,,0.6974,1,,,,,,,,,,,,,,,,,,,,,,,,,0.228090278,-0.08578559,0,0,0,,,,,,,RHINO,LB,m,m,./images/RHINOLB.png,,,,,,,,,,,,,,,,,,,,m,1,0.6974,,,,,,,,0,52,52,9,1,
,,,,,,,,,,,,,,,,,6108c363c95fc665a5d08c32,19,2022-02-12_17h41.45.617,lexical_decision_task_DD_L3,2021.2.3,MacIntel,60.0024001,,,,,,,,,,,1.283,1,,,,,,,,,,,,,,,,,,,,,,,,,0.228090278,-0.08578559,0,0,0,,,,,,,SNAKE,C,z,m,./images/SNAKE.png,,,,,,,,,,,,,,,,,,,,z,1,1.283,,,,,,,,0,53,53,124,1,
,,,,,,,,,,,,,,,,,6108c363c95fc665a5d08c32,19,2022-02-12_17h41.45.617,lexical_decision_task_DD_L3,2021.2.3,MacIntel,60.0024001,,,,,,,,,,,1.1644,1,,,,,,,,,,,,,,,,,,,,,,,,,0.228090278,-0.08578559,0,0,0,,,,,,,GRANNY,HB,z,m,./images/GRANNYHB.png,,,,,,,,,,,,,,,,,,,,z,1,1.1644,,,,,,,,0,54,54,104,1,
,,,,,,,,,,,,,,,,,6108c363c95fc665a5d08c32,19,2022-02-12_17h41.45.617,lexical_decision_task_DD_L3,2021.2.3,MacIntel,60.0024001,,,,,,,,,,,0.705,1,,,,,,,,,,,,,,,,,,,,,,,,,0.228090278,-0.08578559,0,0,0,,,,,,,SKIING,HB,m,m,./images/SKIINGHB.png,,,,,,,,,,,,,,,,,,,,m,1,0.705,,,,,,,,0,55,55,17,1,
,,,,,,,,,,,,,,,,,6108c363c95fc665a5d08c32,19,2022-02-12_17h41.45.617,lexical_decision_task_DD_L3,2021.2.3,MacIntel,60.0024001,,,,,,,,,,,0.6478,1,,,,,,,,,,,,,,,,,,,,,,,,,0.228090278,-0.08578559,0,0,0,,,,,,,WALRUS,HB,m,m,./images/WALRUSHB.png,,,,,,,,,,,,,,,,,,,,m,1,0.6478,,,,,,,,0,56,56,23,1,
,,,,,,,,,,,,,,,,,6108c363c95fc665a5d08c32,19,2022-02-12_17h41.45.617,lexical_decision_task_DD_L3,2021.2.3,MacIntel,60.0024001,,,,,,,,,,,1.4071,0,,,,,,,,,,,,,,,,,,,,,,,,,0.228090278,-0.08578559,0,0,0,,,,,,,ARROW,LB,z,m,./images/ARROWLB.png,,,,,,,,,,,,,,,,,,,,m,0,1.4071,,,,,,,,0,57,57,153,1,
,,,,,,,,,,,,,,,,,6108c363c95fc665a5d08c32,19,2022-02-12_17h41.45.617,lexical_decision_task_DD_L3,2021.2.3,MacIntel,60.0024001,,,,,,,,,,,1.2816,0,,,,,,,,,,,,,,,,,,,,,,,,,0.228090278,-0.08578559,0,0,0,,,,,,,SLOPE,LB,z,m,./images/SLOPELB.png,,,,,,,,,,,,,,,,,,,,m,0,1.2816,,,,,,,,0,58,58,114,1,
,,,,,,,,,,,,,,,,,6108c363c95fc665a5d08c32,19,2022-02-12_17h41.45.617,lexical_decision_task_DD_L3,2021.2.3,MacIntel,60.0024001,,,,,,,,,,,0.7723,1,,,,,,,,,,,,,,,,,,,,,,,,,0.228090278,-0.08578559,0,0,0,,,,,,,STEAK,C,z,m,./images/STEAK.png,,,,,,,,,,,,,,,,,,,,z,1,0.7723,,,,,,,,0,59,59,115,1,
,,,,,,,,,,,,,,,,,6108c363c95fc665a5d08c32,19,2022-02-12_17h41.45.617,lexical_decision_task_DD_L3,2021.2.3,MacIntel,60.0024001,,,,,,,,,,,0.7822,1,,,,,,,,,,,,,,,,,,,,,,,,,0.228090278,-0.08578559,0,0,0,,,,,,,CANOE,C,z,m,./images/CANOE.png,,,,,,,,,,,,,,,,,,,,z,1,0.7822,,,,,,,,0,60,60,142,1,
,,,,,,,,,,,,,,,,,6108c363c95fc665a5d08c32,19,2022-02-12_17h41.45.617,lexical_decision_task_DD_L3,2021.2.3,MacIntel,60.0024001,,,,,,,,,,,0.7817,1,,,,,,,,,,,,,,,,,,,,,,,,,0.228090278,-0.08578559,0,0,0,,,,,,,URINE,C,m,m,./images/URINE.png,,,,,,,,,,,,,,,,,,,,m,1,0.7817,,,,,,,,0,61,61,70,1,
,,,,,,,,,,,,,,,,,6108c363c95fc665a5d08c32,19,2022-02-12_17h41.45.617,lexical_decision_task_DD_L3,2021.2.3,MacIntel,60.0024001,,,,,,,,,,,0.6326,1,,,,,,,,,,,,,,,,,,,,,,,,,0.228090278,-0.08578559,0,0,0,,,,,,,STORM,LB,m,m,./images/STORMLB.png,,,,,,,,,,,,,,,,,,,,m,1,0.6326,,,,,,,,0,62,62,30,1,
,,,,,,,,,,,,,,,,,6108c363c95fc665a5d08c32,19,2022-02-12_17h41.45.617,lexical_decision_task_DD_L3,2021.2.3,MacIntel,60.0024001,,,,,,,,,,,0.5932,1,,,,,,,,,,,,,,,,,,,,,,,,,0.228090278,-0.08578559,0,0,0,,,,,,,BONNET,HB,m,m,./images/BONNETHB.png,,,,,,,,,,,,,,,,,,,,m,1,0.5932,,,,,,,,0,63,63,11,1,
,,,,,,,,,,,,,,,,,6108c363c95fc665a5d08c32,19,2022-02-12_17h41.45.617,lexical_decision_task_DD_L3,2021.2.3,MacIntel,60.0024001,,,,,,,,,,,1.0709,1,,,,,,,,,,,,,,,,,,,,,,,,,0.228090278,-0.08578559,0,0,0,,,,,,,RULER,C,z,m,./images/RULER.png,,,,,,,,,,,,,,,,,,,,z,1,1.0709,,,,,,,,0,64,64,163,1,
,,,,,,,,,,,,,,,,,6108c363c95fc665a5d08c32,19,2022-02-12_17h41.45.617,lexical_decision_task_DD_L3,2021.2.3,MacIntel,60.0024001,,,,,,,,,,,1.1563,1,,,,,,,,,,,,,,,,,,,,,,,,,0.228090278,-0.08578559,0,0,0,,,,,,,CLIFF,HB,z,m,./images/CLIFFHB.png,,,,,,,,,,,,,,,,,,,,z,1,1.1563,,,,,,,,0,65,65,92,1,
,,,,,,,,,,,,,,,,,6108c363c95fc665a5d08c32,19,2022-02-12_17h41.45.617,lexical_decision_task_DD_L3,2021.2.3,MacIntel,60.0024001,,,,,,,,,,,1.1322,1,,,,,,,,,,,,,,,,,,,,,,,,,0.228090278,-0.08578559,0,0,0,,,,,,,STREAM,HB,z,m,./images/STREAMHB.png,,,,,,,,,,,,,,,,,,,,z,1,1.1322,,,,,,,,0,66,66,125,1,
,,,,,,,,,,,,,,,,,6108c363c95fc665a5d08c32,19,2022-02-12_17h41.45.617,lexical_decision_task_DD_L3,2021.2.3,MacIntel,60.0024001,,,,,,,,,,,0.868,0,,,,,,,,,,,,,,,,,,,,,,,,,0.228090278,-0.08578559,0,0,0,,,,,,,CLOWN,C,z,m,./images/CLOWN.png,,,,,,,,,,,,,,,,,,,,m,0,0.868,,,,,,,,0,67,67,106,1,
,,,,,,,,,,,,,,,,,6108c363c95fc665a5d08c32,19,2022-02-12_17h41.45.617,lexical_decision_task_DD_L3,2021.2.3,MacIntel,60.0024001,,,,,,,,,,,1.0403,1,,,,,,,,,,,,,,,,,,,,,,,,,0.228090278,-0.08578559,0,0,0,,,,,,,CASINO,C,z,m,./images/CASINO.png,,,,,,,,,,,,,,,,,,,,z,1,1.0403,,,,,,,,0,68,68,112,1,
,,,,,,,,,,,,,,,,,6108c363c95fc665a5d08c32,19,2022-02-12_17h41.45.617,lexical_decision_task_DD_L3,2021.2.3,MacIntel,60.0024001,,,,,,,,,,,0.7232,0,,,,,,,,,,,,,,,,,,,,,,,,,0.228090278,-0.08578559,0,0,0,,,,,,,CHALK,C,z,m,./images/CHALK.png,,,,,,,,,,,,,,,,,,,,m,0,0.7232,,,,,,,,0,69,69,109,1,
,,,,,,,,,,,,,,,,,6108c363c95fc665a5d08c32,19,2022-02-12_17h41.45.617,lexical_decision_task_DD_L3,2021.2.3,MacIntel,60.0024001,,,,,,,,,,,0.7581,1,,,,,,,,,,,,,,,,,,,,,,,,,0.228090278,-0.08578559,0,0,0,,,,,,,INFANT,C,m,m,./images/INFANT.png,,,,,,,,,,,,,,,,,,,,m,1,0.7581,,,,,,,,0,70,70,76,1,
,,,,,,,,,,,,,,,,,6108c363c95fc665a5d08c32,19,2022-02-12_17h41.45.617,lexical_decision_task_DD_L3,2021.2.3,MacIntel,60.0024001,,,,,,,,,,,0.7414,1,,,,,,,,,,,,,,,,,,,,,,,,,0.228090278,-0.08578559,0,0,0,,,,,,,GRAIN,LB,m,m,./images/GRAINLB.png,,,,,,,,,,,,,,,,,,,,m,1,0.7414,,,,,,,,0,71,71,75,1,
,,,,,,,,,,,,,,,,,6108c363c95fc665a5d08c32,19,2022-02-12_17h41.45.617,lexical_decision_task_DD_L3,2021.2.3,MacIntel,60.0024001,,,,,,,,,,,0.6074,1,,,,,,,,,,,,,,,,,,,,,,,,,0.228090278,-0.08578559,0,0,0,,,,,,,SUNSET,C,m,m,./images/SUNSET.png,,,,,,,,,,,,,,,,,,,,m,1,0.6074,,,,,,,,0,72,72,82,1,
,,,,,,,,,,,,,,,,,6108c363c95fc665a5d08c32,19,2022-02-12_17h41.45.617,lexical_decision_task_DD_L3,2021.2.3,MacIntel,60.0024001,,,,,,,,,,,1.0079,1,,,,,,,,,,,,,,,,,,,,,,,,,0.228090278,-0.08578559,0,0,0,,,,,,,CLOTH,HB,z,m,./images/CLOTHHB.png,,,,,,,,,,,,,,,,,,,,z,1,1.0079,,,,,,,,0,73,73,107,1,
,,,,,,,,,,,,,,,,,6108c363c95fc665a5d08c32,19,2022-02-12_17h41.45.617,lexical_decision_task_DD_L3,2021.2.3,MacIntel,60.0024001,,,,,,,,,,,0.6645,1,,,,,,,,,,,,,,,,,,,,,,,,,0.228090278,-0.08578559,0,0,0,,,,,,,PACKET,HB,m,m,./images/PACKETHB.png,,,,,,,,,,,,,,,,,,,,m,1,0.6645,,,,,,,,0,74,74,56,1,
,,,,,,,,,,,,,,,,,6108c363c95fc665a5d08c32,19,2022-02-12_17h41.45.617,lexical_decision_task_DD_L3,2021.2.3,MacIntel,60.0024001,,,,,,,,,,,1.1005,1,,,,,,,,,,,,,,,,,,,,,,,,,0.228090278,-0.08578559,0,0,0,,,,,,,BLOKE,LB,z,m,./images/BLOKELB.png,,,,,,,,,,,,,,,,,,,,z,1,1.1005,,,,,,,,0,75,75,96,1,
,,,,,,,,,,,,,,,,,6108c363c95fc665a5d08c32,19,2022-02-12_17h41.45.617,lexical_decision_task_DD_L3,2021.2.3,MacIntel,60.0024001,,,,,,,,,,,1.0541,1,,,,,,,,,,,,,,,,,,,,,,,,,0.228090278,-0.08578559,0,0,0,,,,,,,BUNNY,C,z,m,./images/BUNNY.png,,,,,,,,,,,,,,,,,,,,z,1,1.0541,,,,,,,,0,76,76,97,1,
,,,,,,,,,,,,,,,,,6108c363c95fc665a5d08c32,19,2022-02-12_17h41.45.617,lexical_decision_task_DD_L3,2021.2.3,MacIntel,60.0024001,,,,,,,,,,,0.73,1,,,,,,,,,,,,,,,,,,,,,,,,,0.228090278,-0.08578559,0,0,0,,,,,,,POODLE,LB,m,m,./images/POODLELB.png,,,,,,,,,,,,,,,,,,,,m,1,0.73,,,,,,,,0,77,77,81,1,
,,,,,,,,,,,,,,,,,6108c363c95fc665a5d08c32,19,2022-02-12_17h41.45.617,lexical_decision_task_DD_L3,2021.2.3,MacIntel,60.0024001,,,,,,,,,,,0.6723,0,,,,,,,,,,,,,,,,,,,,,,,,,0.228090278,-0.08578559,0,0,0,,,,,,,BASKET,HB,z,m,./images/BASKETHB.png,,,,,,,,,,,,,,,,,,,,m,0,0.6723,,,,,,,,0,78,78,128,1,
,,,,,,,,,,,,,,,,,6108c363c95fc665a5d08c32,19,2022-02-12_17h41.45.617,lexical_decision_task_DD_L3,2021.2.3,MacIntel,60.0024001,,,,,,,,,,,0.7681,1,,,,,,,,,,,,,,,,,,,,,,,,,0.228090278,-0.08578559,0,0,0,,,,,,,KIDNEY,LB,m,m,./images/KIDNEYLB.png,,,,,,,,,,,,,,,,,,,,m,1,0.7681,,,,,,,,0,79,79,21,1,
,,,,,,,,,,,,,,,,,6108c363c95fc665a5d08c32,19,2022-02-12_17h41.45.617,lexical_decision_task_DD_L3,2021.2.3,MacIntel,60.0024001,,,,,,,,,,,0.8079,1,,,,,,,,,,,,,,,,,,,,,,,,,0.228090278,-0.08578559,0,0,0,,,,,,,BOILER,LB,z,m,./images/BOILERLB.png,,,,,,,,,,,,,,,,,,,,z,1,0.8079,,,,,,,,0,80,80,120,1,
,,,,,,,,,,,,,,,,,6108c363c95fc665a5d08c32,19,2022-02-12_17h41.45.617,lexical_decision_task_DD_L3,2021.2.3,MacIntel,60.0024001,,,,,,,,,,,0.7788,1,,,,,,,,,,,,,,,,,,,,,,,,,0.228090278,-0.08578559,0,0,0,,,,,,,SWEAT,LB,m,m,./images/SWEATLB.png,,,,,,,,,,,,,,,,,,,,m,1,0.7788,,,,,,,,0,81,81,66,1,
,,,,,,,,,,,,,,,,,6108c363c95fc665a5d08c32,19,2022-02-12_17h41.45.617,lexical_decision_task_DD_L3,2021.2.3,MacIntel,60.0024001,,,,,,,,,,,0.8343,0,,,,,,,,,,,,,,,,,,,,,,,,,0.228090278,-0.08578559,0,0,0,,,,,,,TORCH,HB,m,m,./images/TORCHHB.png,,,,,,,,,,,,,,,,,,,,z,0,0.8343,,,,,,,,0,82,82,68,1,
,,,,,,,,,,,,,,,,,6108c363c95fc665a5d08c32,19,2022-02-12_17h41.45.617,lexical_decision_task_DD_L3,2021.2.3,MacIntel,60.0024001,,,,,,,,,,,0.7048,1,,,,,,,,,,,,,,,,,,,,,,,,,-0.005993924,-0.411653646,0,0,0,space,,,,,,SAUNA,LB,z,m,./images/SAUNALB.png,,,,,,,,,,,,,,,,,,,,z,1,0.7048,,,,,,,,0,83,83,117,1,3.1693
,,,,,,,,,,,,,,,,,6108c363c95fc665a5d08c32,19,2022-02-12_17h41.45.617,lexical_decision_task_DD_L3,2021.2.3,MacIntel,60.0024001,,,,,,,,,,,1.258,1,,,,,,,,,,,,,,,,,,,,,,,,,0.145746528,-0.247157118,0,0,0,,,,,,,CURRY,LB,z,m,./images/CURRYLB.png,,,,,,,,,,,,,,,,,,,,z,1,1.258,,,,,,,,0,84,84,144,1,
,,,,,,,,,,,,,,,,,6108c363c95fc665a5d08c32,19,2022-02-12_17h41.45.617,lexical_decision_task_DD_L3,2021.2.3,MacIntel,60.0024001,,,,,,,,,,,0.8459,1,,,,,,,,,,,,,,,,,,,,,,,,,0.145746528,-0.247157118,0,0,0,,,,,,,MAGGOT,LB,m,m,./images/MAGGOTLB.png,,,,,,,,,,,,,,,,,,,,m,1,0.8459,,,,,,,,0,85,85,33,1,
,,,,,,,,,,,,,,,,,6108c363c95fc665a5d08c32,19,2022-02-12_17h41.45.617,lexical_decision_task_DD_L3,2021.2.3,MacIntel,60.0024001,,,,,,,,,,,0.7042,1,,,,,,,,,,,,,,,,,,,,,,,,,0.145746528,-0.247157118,0,0,0,,,,,,,MIDGET,C,z,m,./images/MIDGET.png,,,,,,,,,,,,,,,,,,,,z,1,0.7042,,,,,,,,0,86,86,160,1,
,,,,,,,,,,,,,,,,,6108c363c95fc665a5d08c32,19,2022-02-12_17h41.45.617,lexical_decision_task_DD_L3,2021.2.3,MacIntel,60.0024001,,,,,,,,,,,0.7125,1,,,,,,,,,,,,,,,,,,,,,,,,,0.145746528,-0.247157118,0,0,0,,,,,,,STOOL,C,z,m,./images/STOOL.png,,,,,,,,,,,,,,,,,,,,z,1,0.7125,,,,,,,,0,87,87,127,1,
,,,,,,,,,,,,,,,,,6108c363c95fc665a5d08c32,19,2022-02-12_17h41.45.617,lexical_decision_task_DD_L3,2021.2.3,MacIntel,60.0024001,,,,,,,,,,,0.7496,1,,,,,,,,,,,,,,,,,,,,,,,,,0.145746528,-0.247157118,0,0,0,,,,,,,BOXER,C,z,m,./images/BOXER.png,,,,,,,,,,,,,,,,,,,,z,1,0.7496,,,,,,,,0,88,88,88,1,
,,,,,,,,,,,,,,,,,6108c363c95fc665a5d08c32,19,2022-02-12_17h41.45.617,lexical_decision_task_DD_L3,2021.2.3,MacIntel,60.0024001,,,,,,,,,,,0.916,1,,,,,,,,,,,,,,,,,,,,,,,,,0.145746528,-0.247157118,0,0,0,,,,,,,DONKEY,C,z,m,./images/DONKEY.png,,,,,,,,,,,,,,,,,,,,z,1,0.916,,,,,,,,0,89,89,103,1,
,,,,,,,,,,,,,,,,,6108c363c95fc665a5d08c32,19,2022-02-12_17h41.45.617,lexical_decision_task_DD_L3,2021.2.3,MacIntel,60.0024001,,,,,,,,,,,0.8616,1,,,,,,,,,,,,,,,,,,,,,,,,,0.145746528,-0.247157118,0,0,0,,,,,,,SWING,C,m,m,./images/SWING.png,,,,,,,,,,,,,,,,,,,,m,1,0.8616,,,,,,,,0,90,90,40,1,
,,,,,,,,,,,,,,,,,6108c363c95fc665a5d08c32,19,2022-02-12_17h41.45.617,lexical_decision_task_DD_L3,2021.2.3,MacIntel,60.0024001,,,,,,,,,,,0.769,1,,,,,,,,,,,,,,,,,,,,,,,,,0.145746528,-0.247157118,0,0,0,,,,,,,ENGINE,HB,z,m,./images/ENGINEHB.png,,,,,,,,,,,,,,,,,,,,z,1,0.769,,,,,,,,0,91,91,122,1,
,,,,,,,,,,,,,,,,,6108c363c95fc665a5d08c32,19,2022-02-12_17h41.45.617,lexical_decision_task_DD_L3,2021.2.3,MacIntel,60.0024001,,,,,,,,,,,0.9835,1,,,,,,,,,,,,,,,,,,,,,,,,,0.145746528,-0.247157118,0,0,0,,,,,,,CLOUD,HB,z,m,./images/CLOUDHB.png,,,,,,,,,,,,,,,,,,,,z,1,0.9835,,,,,,,,0,92,92,110,1,
,,,,,,,,,,,,,,,,,6108c363c95fc665a5d08c32,19,2022-02-12_17h41.45.617,lexical_decision_task_DD_L3,2021.2.3,MacIntel,60.0024001,,,,,,,,,,,0.7909,1,,,,,,,,,,,,,,,,,,,,,,,,,0.145746528,-0.247157118,0,0,0,,,,,,,POSTER,HB,z,m,./images/POSTERHB.png,,,,,,,,,,,,,,,,,,,,z,1,0.7909,,,,,,,,0,93,93,137,1,
,,,,,,,,,,,,,,,,,6108c363c95fc665a5d08c32,19,2022-02-12_17h41.45.617,lexical_decision_task_DD_L3,2021.2.3,MacIntel,60.0024001,,,,,,,,,,,0.727,0,,,,,,,,,,,,,,,,,,,,,,,,,0.145746528,-0.247157118,0,0,0,,,,,,,SPORT,LB,m,m,./images/SPORTLB.png,,,,,,,,,,,,,,,,,,,,z,0,0.727,,,,,,,,0,94,94,48,1,
,,,,,,,,,,,,,,,,,6108c363c95fc665a5d08c32,19,2022-02-12_17h41.45.617,lexical_decision_task_DD_L3,2021.2.3,MacIntel,60.0024001,,,,,,,,,,,1.0415,0,,,,,,,,,,,,,,,,,,,,,,,,,0.145746528,-0.247157118,0,0,0,,,,,,,STAIN,LB,z,m,./images/STAINLB.png,,,,,,,,,,,,,,,,,,,,m,0,1.0415,,,,,,,,0,95,95,90,1,
,,,,,,,,,,,,,,,,,6108c363c95fc665a5d08c32,19,2022-02-12_17h41.45.617,lexical_decision_task_DD_L3,2021.2.3,MacIntel,60.0024001,,,,,,,,,,,0.7522,1,,,,,,,,,,,,,,,,,,,,,,,,,0.145746528,-0.247157118,0,0,0,,,,,,,PASTA,HB,m,m,./images/PASTAHB.png,,,,,,,,,,,,,,,,,,,,m,1,0.7522,,,,,,,,0,96,96,5,1,
,,,,,,,,,,,,,,,,,6108c363c95fc665a5d08c32,19,2022-02-12_17h41.45.617,lexical_decision_task_DD_L3,2021.2.3,MacIntel,60.0024001,,,,,,,,,,,0.5667,1,,,,,,,,,,,,,,,,,,,,,,,,,0.145746528,-0.247157118,0,0,0,,,,,,,MOOSE,LB,m,m,./images/MOOSELB.png,,,,,,,,,,,,,,,,,,,,m,1,0.5667,,,,,,,,0,97,97,57,1,
,,,,,,,,,,,,,,,,,6108c363c95fc665a5d08c32,19,2022-02-12_17h41.45.617,lexical_decision_task_DD_L3,2021.2.3,MacIntel,60.0024001,,,,,,,,,,,0.864,1,,,,,,,,,,,,,,,,,,,,,,,,,0.145746528,-0.247157118,0,0,0,,,,,,,GLOVE,C,z,m,./images/GLOVE.png,,,,,,,,,,,,,,,,,,,,z,1,0.864,,,,,,,,0,98,98,157,1,
,,,,,,,,,,,,,,,,,6108c363c95fc665a5d08c32,19,2022-02-12_17h41.45.617,lexical_decision_task_DD_L3,2021.2.3,MacIntel,60.0024001,,,,,,,,,,,0.7283,1,,,,,,,,,,,,,,,,,,,,,,,,,0.145746528,-0.247157118,0,0,0,,,,,,,PIMPLE,HB,m,m,./images/PIMPLEHB.png,,,,,,,,,,,,,,,,,,,,m,1,0.7283,,,,,,,,0,99,99,71,1,
,,,,,,,,,,,,,,,,,6108c363c95fc665a5d08c32,19,2022-02-12_17h41.45.617,lexical_decision_task_DD_L3,2021.2.3,MacIntel,60.0024001,,,,,,,,,,,0.6461,1,,,,,,,,,,,,,,,,,,,,,,,,,0.145746528,-0.247157118,0,0,0,,,,,,,PEBBLE,C,z,m,./images/PEBBLE.png,,,,,,,,,,,,,,,,,,,,z,1,0.6461,,,,,,,,0,100,100,166,1,
,,,,,,,,,,,,,,,,,6108c363c95fc665a5d08c32,19,2022-02-12_17h41.45.617,lexical_decision_task_DD_L3,2021.2.3,MacIntel,60.0024001,,,,,,,,,,,0.7804,1,,,,,,,,,,,,,,,,,,,,,,,,,0.145746528,-0.247157118,0,0,0,,,,,,,DRUMS,C,m,m,./images/DRUMS.png,,,,,,,,,,,,,,,,,,,,m,1,0.7804,,,,,,,,0,101,101,49,1,
,,,,,,,,,,,,,,,,,6108c363c95fc665a5d08c32,19,2022-02-12_17h41.45.617,lexical_decision_task_DD_L3,2021.2.3,MacIntel,60.0024001,,,,,,,,,,,1.1466,0,,,,,,,,,,,,,,,,,,,,,,,,,0.145746528,-0.247157118,0,0,0,,,,,,,DIVER,LB,z,m,./images/DIVERLB.png,,,,,,,,,,,,,,,,,,,,m,0,1.1466,,,,,,,,0,102,102,93,1,
,,,,,,,,,,,,,,,,,6108c363c95fc665a5d08c32,19,2022-02-12_17h41.45.617,lexical_decision_task_DD_L3,2021.2.3,MacIntel,60.0024001,,,,,,,,,,,1.1383,1,,,,,,,,,,,,,,,,,,,,,,,,,0.145746528,-0.247157118,0,0,0,,,,,,,SQUARE,LB,m,m,./images/SQUARELB.png,,,,,,,,,,,,,,,,,,,,m,1,1.1383,,,,,,,,0,103,103,6,1,
,,,,,,,,,,,,,,,,,6108c363c95fc665a5d08c32,19,2022-02-12_17h41.45.617,lexical_decision_task_DD_L3,2021.2.3,MacIntel,60.0024001,,,,,,,,,,,0.7752,1,,,,,,,,,,,,,,,,,,,,,,,,,0.145746528,-0.247157118,0,0,0,,,,,,,MELON,C,m,m,./images/MELON.png,,,,,,,,,,,,,,,,,,,,m,1,0.7752,,,,,,,,0,104,104,22,1,
,,,,,,,,,,,,,,,,,6108c363c95fc665a5d08c32,19,2022-02-12_17h41.45.617,lexical_decision_task_DD_L3,2021.2.3,MacIntel,60.0024001,,,,,,,,,,,0.7886,1,,,,,,,,,,,,,,,,,,,,,,,,,0.145746528,-0.247157118,0,0,0,,,,,,,MOTOR,C,m,m,./images/MOTOR.png,,,,,,,,,,,,,,,,,,,,m,1,0.7886,,,,,,,,0,105,105,13,1,
,,,,,,,,,,,,,,,,,6108c363c95fc665a5d08c32,19,2022-02-12_17h41.45.617,lexical_decision_task_DD_L3,2021.2.3,MacIntel,60.0024001,,,,,,,,,,,0.9972,1,,,,,,,,,,,,,,,,,,,,,,,,,0.145746528,-0.247157118,0,0,0,,,,,,,BEARD,HB,m,m,./images/BEARDHB.png,,,,,,,,,,,,,,,,,,,,m,1,0.9972,,,,,,,,0,106,106,2,1,
,,,,,,,,,,,,,,,,,6108c363c95fc665a5d08c32,19,2022-02-12_17h41.45.617,lexical_decision_task_DD_L3,2021.2.3,MacIntel,60.0024001,,,,,,,,,,,0.8305,1,,,,,,,,,,,,,,,,,,,,,,,,,0.145746528,-0.247157118,0,0,0,,,,,,,STRING,HB,m,m,./images/STRINGHB.png,,,,,,,,,,,,,,,,,,,,m,1,0.8305,,,,,,,,0,107,107,41,1,
,,,,,,,,,,,,,,,,,6108c363c95fc665a5d08c32,19,2022-02-12_17h41.45.617,lexical_decision_task_DD_L3,2021.2.3,MacIntel,60.0024001,,,,,,,,,,,1.8474,0,,,,,,,,,,,,,,,,,,,,,,,,,0.145746528,-0.247157118,0,0,0,,,,,,,BIRTH,C,m,m,./images/BIRTH.png,,,,,,,,,,,,,,,,,,,,z,0,1.8474,,,,,,,,0,108,108,37,1,
,,,,,,,,,,,,,,,,,6108c363c95fc665a5d08c32,19,2022-02-12_17h41.45.617,lexical_decision_task_DD_L3,2021.2.3,MacIntel,60.0024001,,,,,,,,,,,0.8738,1,,,,,,,,,,,,,,,,,,,,,,,,,0.145746528,-0.247157118,0,0,0,,,,,,,HEATER,HB,z,m,./images/HEATERHB.png,,,,,,,,,,,,,,,,,,,,z,1,0.8738,,,,,,,,0,109,109,140,1,
,,,,,,,,,,,,,,,,,6108c363c95fc665a5d08c32,19,2022-02-12_17h41.45.617,lexical_decision_task_DD_L3,2021.2.3,MacIntel,60.0024001,,,,,,,,,,,0.6455,1,,,,,,,,,,,,,,,,,,,,,,,,,0.145746528,-0.247157118,0,0,0,,,,,,,WEASEL,HB,m,m,./images/WEASELHB.png,,,,,,,,,,,,,,,,,,,,m,1,0.6455,,,,,,,,0,110,110,80,1,
,,,,,,,,,,,,,,,,,6108c363c95fc665a5d08c32,19,2022-02-12_17h41.45.617,lexical_decision_task_DD_L3,2021.2.3,MacIntel,60.0024001,,,,,,,,,,,0.6646,1,,,,,,,,,,,,,,,,,,,,,,,,,0.145746528,-0.247157118,0,0,0,,,,,,,BANNER,C,m,m,./images/BANNER.png,,,,,,,,,,,,,,,,,,,,m,1,0.6646,,,,,,,,0,111,111,52,1,
,,,,,,,,,,,,,,,,,6108c363c95fc665a5d08c32,19,2022-02-12_17h41.45.617,lexical_decision_task_DD_L3,2021.2.3,MacIntel,60.0024001,,,,,,,,,,,0.7101,1,,,,,,,,,,,,,,,,,,,,,,,,,0.145746528,-0.247157118,0,0,0,,,,,,,TOWEL,C,z,m,./images/TOWEL.png,,,,,,,,,,,,,,,,,,,,z,1,0.7101,,,,,,,,0,112,112,85,1,
,,,,,,,,,,,,,,,,,6108c363c95fc665a5d08c32,19,2022-02-12_17h41.45.617,lexical_decision_task_DD_L3,2021.2.3,MacIntel,60.0024001,,,,,,,,,,,0.8565,1,,,,,,,,,,,,,,,,,,,,,,,,,0.145746528,-0.247157118,0,0,0,,,,,,,CANYON,C,m,m,./images/CANYON.png,,,,,,,,,,,,,,,,,,,,m,1,0.8565,,,,,,,,0,113,113,34,1,
,,,,,,,,,,,,,,,,,6108c363c95fc665a5d08c32,19,2022-02-12_17h41.45.617,lexical_decision_task_DD_L3,2021.2.3,MacIntel,60.0024001,,,,,,,,,,,1.682,1,,,,,,,,,,,,,,,,,,,,,,,,,0.145746528,-0.247157118,0,0,0,,,,,,,MIRROR,LB,m,m,./images/MIRRORLB.png,,,,,,,,,,,,,,,,,,,,m,1,1.682,,,,,,,,0,114,114,63,1,
,,,,,,,,,,,,,,,,,6108c363c95fc665a5d08c32,19,2022-02-12_17h41.45.617,lexical_decision_task_DD_L3,2021.2.3,MacIntel,60.0024001,,,,,,,,,,,0.7122,1,,,,,,,,,,,,,,,,,,,,,,,,,0.145746528,-0.247157118,0,0,0,,,,,,,BABOON,C,m,m,./images/BABOON.png,,,,,,,,,,,,,,,,,,,,m,1,0.7122,,,,,,,,0,115,115,58,1,
,,,,,,,,,,,,,,,,,6108c363c95fc665a5d08c32,19,2022-02-12_17h41.45.617,lexical_decision_task_DD_L3,2021.2.3,MacIntel,60.0024001,,,,,,,,,,,0.9442,1,,,,,,,,,,,,,,,,,,,,,,,,,0.145746528,-0.247157118,0,0,0,,,,,,,BRIDE,C,z,m,./images/BRIDE.png,,,,,,,,,,,,,,,,,,,,z,1,0.9442,,,,,,,,0,116,116,148,1,
,,,,,,,,,,,,,,,,,6108c363c95fc665a5d08c32,19,2022-02-12_17h41.45.617,lexical_decision_task_DD_L3,2021.2.3,MacIntel,60.0024001,,,,,,,,,,,0.6629,1,,,,,,,,,,,,,,,,,,,,,,,,,0.145746528,-0.247157118,0,0,0,,,,,,,KITTEN,LB,m,m,./images/KITTENLB.png,,,,,,,,,,,,,,,,,,,,m,1,0.6629,,,,,,,,0,117,117,45,1,
,,,,,,,,,,,,,,,,,6108c363c95fc665a5d08c32,19,2022-02-12_17h41.45.617,lexical_decision_task_DD_L3,2021.2.3,MacIntel,60.0024001,,,,,,,,,,,0.6436,1,,,,,,,,,,,,,,,,,,,,,,,,,0.145746528,-0.247157118,0,0,0,,,,,,,SMOKER,HB,m,m,./images/SMOKERHB.png,,,,,,,,,,,,,,,,,,,,m,1,0.6436,,,,,,,,0,118,118,26,1,
,,,,,,,,,,,,,,,,,6108c363c95fc665a5d08c32,19,2022-02-12_17h41.45.617,lexical_decision_task_DD_L3,2021.2.3,MacIntel,60.0024001,,,,,,,,,,,0.7486,1,,,,,,,,,,,,,,,,,,,,,,,,,0.145746528,-0.247157118,0,0,0,,,,,,,FOLDER,LB,m,m,./images/FOLDERLB.png,,,,,,,,,,,,,,,,,,,,m,1,0.7486,,,,,,,,0,119,119,42,1,
,,,,,,,,,,,,,,,,,6108c363c95fc665a5d08c32,19,2022-02-12_17h41.45.617,lexical_decision_task_DD_L3,2021.2.3,MacIntel,60.0024001,,,,,,,,,,,1.2746,0,,,,,,,,,,,,,,,,,,,,,,,,,0.145746528,-0.247157118,0,0,0,,,,,,,PLANET,HB,z,m,./images/PLANETHB.png,,,,,,,,,,,,,,,,,,,,m,0,1.2746,,,,,,,,0,120,120,164,1,
,,,,,,,,,,,,,,,,,6108c363c95fc665a5d08c32,19,2022-02-12_17h41.45.617,lexical_decision_task_DD_L3,2021.2.3,MacIntel,60.0024001,,,,,,,,,,,1.3042,0,,,,,,,,,,,,,,,,,,,,,,,,,0.145746528,-0.247157118,0,0,0,,,,,,,SHELF,LB,m,m,./images/SHELFLB.png,,,,,,,,,,,,,,,,,,,,z,0,1.3042,,,,,,,,0,121,121,39,1,
,,,,,,,,,,,,,,,,,6108c363c95fc665a5d08c32,19,2022-02-12_17h41.45.617,lexical_decision_task_DD_L3,2021.2.3,MacIntel,60.0024001,,,,,,,,,,,0.7094,1,,,,,,,,,,,,,,,,,,,,,,,,,0.145746528,-0.247157118,0,0,0,,,,,,,BURIAL,HB,m,m,./images/BURIALHB.png,,,,,,,,,,,,,,,,,,,,m,1,0.7094,,,,,,,,0,122,122,59,1,
,,,,,,,,,,,,,,,,,6108c363c95fc665a5d08c32,19,2022-02-12_17h41.45.617,lexical_decision_task_DD_L3,2021.2.3,MacIntel,60.0024001,,,,,,,,,,,0.6465,1,,,,,,,,,,,,,,,,,,,,,,,,,0.145746528,-0.247157118,0,0,0,,,,,,,SHORE,LB,m,m,./images/SHORELB.png,,,,,,,,,,,,,,,,,,,,m,1,0.6465,,,,,,,,0,123,123,12,1,
,,,,,,,,,,,,,,,,,6108c363c95fc665a5d08c32,19,2022-02-12_17h41.45.617,lexical_decision_task_DD_L3,2021.2.3,MacIntel,60.0024001,,,,,,,,,,,1.8259,1,,,,,,,,,,,,,,,,,,,,,,,,,0.145746528,-0.247157118,0,0,0,,,,,,,DRILL,LB,z,m,./images/DRILLLB.png,,,,,,,,,,,,,,,,,,,,z,1,1.8259,,,,,,,,0,124,124,165,1,
,,,,,,,,,,,,,,,,,6108c363c95fc665a5d08c32,19,2022-02-12_17h41.45.617,lexical_decision_task_DD_L3,2021.2.3,MacIntel,60.0024001,,,,,,,,,,,0.6304,1,,,,,,,,,,,,,,,,,,,,,,,,,0.012773438,-0.433055556,1,0,0,,,,,,,LITTER,LB,m,m,./images/LITTERLB.png,break_done_button,,,,,,,,,,,,,,,,,,,m,1,0.6304,,,,,,,,0,125,125,78,1,
,,,,,,,,,,,,,,,,,6108c363c95fc665a5d08c32,19,2022-02-12_17h41.45.617,lexical_decision_task_DD_L3,2021.2.3,MacIntel,60.0024001,,,,,,,,,,,1.1123,0,,,,,,,,,,,,,,,,,,,,,,,,,0.37405816,-0.238315972,0,0,0,,,,,,,WAGON,C,z,m,./images/WAGON.png,,,,,,,,,,,,,,,,,,,,m,0,1.1123,,,,,,,,0,126,126,91,1,
,,,,,,,,,,,,,,,,,6108c363c95fc665a5d08c32,19,2022-02-12_17h41.45.617,lexical_decision_task_DD_L3,2021.2.3,MacIntel,60.0024001,,,,,,,,,,,0.8954,1,,,,,,,,,,,,,,,,,,,,,,,,,0.37405816,-0.238315972,0,0,0,,,,,,,MONKEY,LB,z,m,./images/MONKEYLB.png,,,,,,,,,,,,,,,,,,,,z,1,0.8954,,,,,,,,0,127,127,129,1,
