key_resp.keys,key_resp.rt,instr_done_touch.x,instr_done_touch.y,instr_done_touch.leftButton,instr_done_touch.midButton,instr_done_touch.rightButton,instruction_pages.thisRepN,instruction_pages.thisTrialN,instruction_pages.thisN,instruction_pages.thisIndex,instruction_pages.ran,pageN,phase,instruct_text,has_image,instruct_image,participant,age,date,expName,psychopyVersion,OS,frameRate,response.keys,response.corr,response.rt,touch_resp.x,touch_resp.y,touch_resp.leftButton,touch_resp.midButton,touch_resp.rightButton,touch_resp.time,touch_resp.clicked_name,rt,corr,practrials.thisRepN,practrials.thisTrialN,practrials.thisN,practrials.thisIndex,practrials.ran,TrialID,Target,corrAns,end_of_practice_trials_pages.thisRepN,end_of_practice_trials_pages.thisTrialN,end_of_practice_trials_pages.thisN,end_of_practice_trials_pages.thisIndex,end_of_practice_trials_pages.ran,key_resp_2.keys,key_resp_2.corr,key_resp_2.rt,targ_click.x,targ_click.y,targ_click.leftButton,targ_click.midButton,targ_click.rightButton,targ_click.time,targ_click.clicked_name,break_done_touch.x,break_done_touch.y,break_done_touch.leftButton,break_done_touch.midButton,break_done_touch.rightButton,break_done_keyboard.keys,maintrials.thisRepN,maintrials.thisTrialN,maintrials.thisN,maintrials.thisIndex,maintrials.ran,string,blur,study,lex,stim_path,break_done_keyboard.rt,mouse_2.x,mouse_2.y,mouse_2.leftButton,mouse_2.midButton,mouse_2.rightButton,mouse_2.clicked_name,slider.response,slider.rt,trials.thisRepN,trials.thisTrialN,trials.thisN,trials.thisIndex,trials.ran,instr_done_touch.clicked_name,test_instructions.thisRepN,test_instructions.thisTrialN,test_instructions.thisN,test_instructions.thisIndex,test_instructions.ran,key_resp_3.keys,key_resp_3.corr,key_resp_3.rt,test_click.x,test_click.y,test_click.leftButton,test_click.midButton,test_click.rightButton,test_click.time,test_click.clicked_name,test_phase.thisRepN,test_phase.thisTrialN,test_phase.thisN,test_phase.thisIndex,test_phase.ran
space,18.7199,0.206481481,-0.182407407,0,0,0,0,0,0,0,1,1,instructions,"INSTRUCTIONS
At the start of each trial, look at the plus sign  (+) in the center of the screen.  This tells you that a trial is about to begin and where to look. Second, the plus sign will disappear and a string of letters will appear. Your task is to determine if the string of letters is a word or not. If the item is a word press the M key (on keyboard)  or touch the word button (phone/tablet).  If the item is not a word,  press the  Z key (on keyboard)  or touch the nonword button (on phone/tablet). 
Press the space bar or touch  continue.",0,,61083d12d8c72b16cb135a6b,25,2022-02-12_13h24.41.122,lexical_decision_task_DD_L3,2021.2.3,Win32,59.91252771,,,,,,,,,,,,,,,,,,,,,,,,,,,,,,,,,,,,,,,,,,,,,,,,,,,,,,,,,,,,,,,,,,,,,,,,,,,,,,,,,,,,,,
space,5.9871,0.206481481,-0.182407407,0,0,0,0,1,1,1,1,2,instructions,"If your device has a keyboard, press the 'Z' key for nonwords and the 'M' key for words.





Press the space bar or touch the button below to continue.",0,keyboard-example.gif,61083d12d8c72b16cb135a6b,25,2022-02-12_13h24.41.122,lexical_decision_task_DD_L3,2021.2.3,Win32,59.91252771,,,,,,,,,,,,,,,,,,,,,,,,,,,,,,,,,,,,,,,,,,,,,,,,,,,,,,,,,,,,,,,,,,,,,,,,,,,,,,,,,,,,,,
space,2.8266,0.206481481,-0.182407407,0,0,0,0,2,2,2,1,3,instructions,"If you are using a touchscreen only device, use the buttons on the screen. Do not use the mouse.





Press the space bar or touch the button below to continue.",0,touchscreen-example.gif,61083d12d8c72b16cb135a6b,25,2022-02-12_13h24.41.122,lexical_decision_task_DD_L3,2021.2.3,Win32,59.91252771,,,,,,,,,,,,,,,,,,,,,,,,,,,,,,,,,,,,,,,,,,,,,,,,,,,,,,,,,,,,,,,,,,,,,,,,,,,,,,,,,,,,,,
space,7.9104,0.206481481,-0.182407407,0,0,0,0,3,3,3,1,4,instructions,"It is very important that you respond as quickly and accurately as possible, as each letter string will only be on the screen for two seconds. If you do not respond within this time, the message 'Too slow!' will be displayed and the experiment will progress to the next letter string. The first 20 trials will be practice trials and you will receive feedback on your answers. 

Press the space bar or touch the button below to start the practice trials.",0,,61083d12d8c72b16cb135a6b,25,2022-02-12_13h24.41.122,lexical_decision_task_DD_L3,2021.2.3,Win32,59.91252771,,,,,,,,,,,,,,,,,,,,,,,,,,,,,,,,,,,,,,,,,,,,,,,,,,,,,,,,,,,,,,,,,,,,,,,,,,,,,,,,,,,,,,
,,,,,,,,,,,,,,,,,61083d12d8c72b16cb135a6b,25,2022-02-12_13h24.41.122,lexical_decision_task_DD_L3,2021.2.3,Win32,59.91252771,m,0,0.9629,,,,,,,,0.9629,0,0,0,0,9,1,1001,FARINY,z,,,,,,,,,,,,,,,,,,,,,,,,,,,,,,,,,,,,,,,,,,,,,,,,,,,,,,,,,,,,,,,,,,
,,,,,,,,,,,,,,,,,61083d12d8c72b16cb135a6b,25,2022-02-12_13h24.41.122,lexical_decision_task_DD_L3,2021.2.3,Win32,59.91252771,z,0,0.5653,,,,,,,,0.5653,0,0,1,1,2,1,1001,ALMOND,m,,,,,,,,,,,,,,,,,,,,,,,,,,,,,,,,,,,,,,,,,,,,,,,,,,,,,,,,,,,,,,,,,,
,,,,,,,,,,,,,,,,,61083d12d8c72b16cb135a6b,25,2022-02-12_13h24.41.122,lexical_decision_task_DD_L3,2021.2.3,Win32,59.91252771,z,1,0.7469,,,,,,,,0.7469,1,0,2,2,8,1,1001,ASLERT,z,,,,,,,,,,,,,,,,,,,,,,,,,,,,,,,,,,,,,,,,,,,,,,,,,,,,,,,,,,,,,,,,,,
,,,,,,,,,,,,,,,,,61083d12d8c72b16cb135a6b,25,2022-02-12_13h24.41.122,lexical_decision_task_DD_L3,2021.2.3,Win32,59.91252771,m,1,0.636,,,,,,,,0.636,1,0,3,3,7,1,1001,VOLUME,m,,,,,,,,,,,,,,,,,,,,,,,,,,,,,,,,,,,,,,,,,,,,,,,,,,,,,,,,,,,,,,,,,,
,,,,,,,,,,,,,,,,,61083d12d8c72b16cb135a6b,25,2022-02-12_13h24.41.122,lexical_decision_task_DD_L3,2021.2.3,Win32,59.91252771,m,1,0.562,,,,,,,,0.562,1,0,4,4,3,1,1001,MATRIX,m,,,,,,,,,,,,,,,,,,,,,,,,,,,,,,,,,,,,,,,,,,,,,,,,,,,,,,,,,,,,,,,,,,
,,,,,,,,,,,,,,,,,61083d12d8c72b16cb135a6b,25,2022-02-12_13h24.41.122,lexical_decision_task_DD_L3,2021.2.3,Win32,59.91252771,z,1,0.7616,,,,,,,,0.7616,1,0,5,5,13,1,1001,ROUPET,z,,,,,,,,,,,,,,,,,,,,,,,,,,,,,,,,,,,,,,,,,,,,,,,,,,,,,,,,,,,,,,,,,,
,,,,,,,,,,,,,,,,,61083d12d8c72b16cb135a6b,25,2022-02-12_13h24.41.122,lexical_decision_task_DD_L3,2021.2.3,Win32,59.91252771,z,1,0.6898,,,,,,,,0.6898,1,0,6,6,14,1,1001,THRALE,z,,,,,,,,,,,,,,,,,,,,,,,,,,,,,,,,,,,,,,,,,,,,,,,,,,,,,,,,,,,,,,,,,,
,,,,,,,,,,,,,,,,,61083d12d8c72b16cb135a6b,25,2022-02-12_13h24.41.122,lexical_decision_task_DD_L3,2021.2.3,Win32,59.91252771,m,1,0.5771,,,,,,,,0.5771,1,0,7,7,4,1,1001,SQUEAK,m,,,,,,,,,,,,,,,,,,,,,,,,,,,,,,,,,,,,,,,,,,,,,,,,,,,,,,,,,,,,,,,,,,
,,,,,,,,,,,,,,,,,61083d12d8c72b16cb135a6b,25,2022-02-12_13h24.41.122,lexical_decision_task_DD_L3,2021.2.3,Win32,59.91252771,z,1,0.6829,,,,,,,,0.6829,1,0,8,8,12,1,1001,SPRINY,z,,,,,,,,,,,,,,,,,,,,,,,,,,,,,,,,,,,,,,,,,,,,,,,,,,,,,,,,,,,,,,,,,,
,,,,,,,,,,,,,,,,,61083d12d8c72b16cb135a6b,25,2022-02-12_13h24.41.122,lexical_decision_task_DD_L3,2021.2.3,Win32,59.91252771,z,1,0.5951,,,,,,,,0.5951,1,0,9,9,15,1,1001,WHAISE,z,,,,,,,,,,,,,,,,,,,,,,,,,,,,,,,,,,,,,,,,,,,,,,,,,,,,,,,,,,,,,,,,,,
,,,,,,,,,,,,,,,,,61083d12d8c72b16cb135a6b,25,2022-02-12_13h24.41.122,lexical_decision_task_DD_L3,2021.2.3,Win32,59.91252771,m,1,0.6812,,,,,,,,0.6812,1,0,10,10,0,1,1001,UTOPIA,m,,,,,,,,,,,,,,,,,,,,,,,,,,,,,,,,,,,,,,,,,,,,,,,,,,,,,,,,,,,,,,,,,,
,,,,,,,,,,,,,,,,,61083d12d8c72b16cb135a6b,25,2022-02-12_13h24.41.122,lexical_decision_task_DD_L3,2021.2.3,Win32,59.91252771,m,1,0.6035,,,,,,,,0.6035,1,0,11,11,5,1,1001,OBTAIN,m,,,,,,,,,,,,,,,,,,,,,,,,,,,,,,,,,,,,,,,,,,,,,,,,,,,,,,,,,,,,,,,,,,
,,,,,,,,,,,,,,,,,61083d12d8c72b16cb135a6b,25,2022-02-12_13h24.41.122,lexical_decision_task_DD_L3,2021.2.3,Win32,59.91252771,m,1,0.5302,,,,,,,,0.5302,1,0,12,12,6,1,1001,ZOMBIE,m,,,,,,,,,,,,,,,,,,,,,,,,,,,,,,,,,,,,,,,,,,,,,,,,,,,,,,,,,,,,,,,,,,
,,,,,,,,,,,,,,,,,61083d12d8c72b16cb135a6b,25,2022-02-12_13h24.41.122,lexical_decision_task_DD_L3,2021.2.3,Win32,59.91252771,m,1,0.4528,,,,,,,,0.4528,1,0,13,13,1,1,1001,ADJUST,m,,,,,,,,,,,,,,,,,,,,,,,,,,,,,,,,,,,,,,,,,,,,,,,,,,,,,,,,,,,,,,,,,,
,,,,,,,,,,,,,,,,,61083d12d8c72b16cb135a6b,25,2022-02-12_13h24.41.122,lexical_decision_task_DD_L3,2021.2.3,Win32,59.91252771,z,1,0.5672,,,,,,,,0.5672,1,0,14,14,11,1,1001,RASHET,z,,,,,,,,,,,,,,,,,,,,,,,,,,,,,,,,,,,,,,,,,,,,,,,,,,,,,,,,,,,,,,,,,,
,,,,,,,,,,,,,,,,,61083d12d8c72b16cb135a6b,25,2022-02-12_13h24.41.122,lexical_decision_task_DD_L3,2021.2.3,Win32,59.91252771,m,0,0.8863,,,,,,,,0.8863,0,0,15,15,10,1,1001,INLADE,z,,,,,,,,,,,,,,,,,,,,,,,,,,,,,,,,,,,,,,,,,,,,,,,,,,,,,,,,,,,,,,,,,,
space,15.529,0.206481481,-0.182407407,0,0,0,,,,,,1,end_of_practice,"You have completed the practice trials. During the experimental trials, you will not receive feedback. 
Before you begin, please ensure that you are in a comfortable and quiet location and will not be disturbed for about 15 minutes, as we cannot use your data if you do not complete all the trials. 
 When you are ready to start the experimental trials, please press space or touch the button below.",,,61083d12d8c72b16cb135a6b,25,2022-02-12_13h24.41.122,lexical_decision_task_DD_L3,2021.2.3,Win32,59.91252771,,,,,,,,,,,,,,,,,,,,,0,0,0,0,1,,,,,,,,,,,,,,,,,,,,,,,,,,,,,,,,,,,,,,,,,,,,,,,,,,,,,,,,,,,,,
,,,,,,,,,,,,,,,,,61083d12d8c72b16cb135a6b,25,2022-02-12_13h24.41.122,lexical_decision_task_DD_L3,2021.2.3,Win32,59.91252771,,,,,,,,,,,1.6015,0,,,,,,,,,,,,,,m,0,1.6015,,,,,,,,0.206481481,-0.182407407,0,0,0,,0,0,0,145,1,LAMEL,HB,old,z,./images/LAMELHB.png,,,,,,,,,,,,,,,,,,,,,,,,,,,,,,,,,,,
,,,,,,,,,,,,,,,,,61083d12d8c72b16cb135a6b,25,2022-02-12_13h24.41.122,lexical_decision_task_DD_L3,2021.2.3,Win32,59.91252771,,,,,,,,,,,1.4726,1,,,,,,,,,,,,,,m,1,1.4726,,,,,,,,0.206481481,-0.182407407,0,0,0,,0,1,1,16,1,PENCE,C,old,m,./images/PENCE.png,,,,,,,,,,,,,,,,,,,,,,,,,,,,,,,,,,,
,,,,,,,,,,,,,,,,,61083d12d8c72b16cb135a6b,25,2022-02-12_13h24.41.122,lexical_decision_task_DD_L3,2021.2.3,Win32,59.91252771,,,,,,,,,,,1.3621,1,,,,,,,,,,,,,,z,1,1.3621,,,,,,,,0.206481481,-0.182407407,0,0,0,,0,2,2,115,1,MAWNS,HB,old,z,./images/MAWNSHB.png,,,,,,,,,,,,,,,,,,,,,,,,,,,,,,,,,,,
,,,,,,,,,,,,,,,,,61083d12d8c72b16cb135a6b,25,2022-02-12_13h24.41.122,lexical_decision_task_DD_L3,2021.2.3,Win32,59.91252771,,,,,,,,,,,0.546,0,,,,,,,,,,,,,,m,0,0.546,,,,,,,,0.206481481,-0.182407407,0,0,0,,0,3,3,156,1,HIXES,C,old,z,./images/HIXES.png,,,,,,,,,,,,,,,,,,,,,,,,,,,,,,,,,,,
,,,,,,,,,,,,,,,,,61083d12d8c72b16cb135a6b,25,2022-02-12_13h24.41.122,lexical_decision_task_DD_L3,2021.2.3,Win32,59.91252771,,,,,,,,,,,0.8024,1,,,,,,,,,,,,,,z,1,0.8024,,,,,,,,0.206481481,-0.182407407,0,0,0,,0,4,4,143,1,MONGS,LB,old,z,./images/MONGSLB.png,,,,,,,,,,,,,,,,,,,,,,,,,,,,,,,,,,,
,,,,,,,,,,,,,,,,,61083d12d8c72b16cb135a6b,25,2022-02-12_13h24.41.122,lexical_decision_task_DD_L3,2021.2.3,Win32,59.91252771,,,,,,,,,,,0.7045,1,,,,,,,,,,,,,,z,1,0.7045,,,,,,,,0.206481481,-0.182407407,0,0,0,,0,5,5,138,1,PLICE,C,old,z,./images/PLICE.png,,,,,,,,,,,,,,,,,,,,,,,,,,,,,,,,,,,
,,,,,,,,,,,,,,,,,61083d12d8c72b16cb135a6b,25,2022-02-12_13h24.41.122,lexical_decision_task_DD_L3,2021.2.3,Win32,59.91252771,,,,,,,,,,,0.5578,1,,,,,,,,,,,,,,m,1,0.5578,,,,,,,,0.206481481,-0.182407407,0,0,0,,0,6,6,39,1,SHELF,LB,old,m,./images/SHELFLB.png,,,,,,,,,,,,,,,,,,,,,,,,,,,,,,,,,,,
,,,,,,,,,,,,,,,,,61083d12d8c72b16cb135a6b,25,2022-02-12_13h24.41.122,lexical_decision_task_DD_L3,2021.2.3,Win32,59.91252771,,,,,,,,,,,0.9069,1,,,,,,,,,,,,,,z,1,0.9069,,,,,,,,0.206481481,-0.182407407,0,0,0,,0,7,7,130,1,CRILL,HB,old,z,./images/CRILLHB.png,,,,,,,,,,,,,,,,,,,,,,,,,,,,,,,,,,,
,,,,,,,,,,,,,,,,,61083d12d8c72b16cb135a6b,25,2022-02-12_13h24.41.122,lexical_decision_task_DD_L3,2021.2.3,Win32,59.91252771,,,,,,,,,,,0.8817,1,,,,,,,,,,,,,,m,1,0.8817,,,,,,,,0.206481481,-0.182407407,0,0,0,,0,8,8,65,1,FARMER,HB,old,m,./images/FARMERHB.png,,,,,,,,,,,,,,,,,,,,,,,,,,,,,,,,,,,
,,,,,,,,,,,,,,,,,61083d12d8c72b16cb135a6b,25,2022-02-12_13h24.41.122,lexical_decision_task_DD_L3,2021.2.3,Win32,59.91252771,,,,,,,,,,,0.5669,1,,,,,,,,,,,,,,m,1,0.5669,,,,,,,,0.206481481,-0.182407407,0,0,0,,0,9,9,30,1,STORM,LB,old,m,./images/STORMLB.png,,,,,,,,,,,,,,,,,,,,,,,,,,,,,,,,,,,
,,,,,,,,,,,,,,,,,61083d12d8c72b16cb135a6b,25,2022-02-12_13h24.41.122,lexical_decision_task_DD_L3,2021.2.3,Win32,59.91252771,,,,,,,,,,,0.588,1,,,,,,,,,,,,,,z,1,0.588,,,,,,,,0.206481481,-0.182407407,0,0,0,,0,10,10,120,1,RINED,C,old,z,./images/RINED.png,,,,,,,,,,,,,,,,,,,,,,,,,,,,,,,,,,,
,,,,,,,,,,,,,,,,,61083d12d8c72b16cb135a6b,25,2022-02-12_13h24.41.122,lexical_decision_task_DD_L3,2021.2.3,Win32,59.91252771,,,,,,,,,,,0.8649,0,,,,,,,,,,,,,,m,0,0.8649,,,,,,,,0.206481481,-0.182407407,0,0,0,,0,11,11,124,1,TUNCH,HB,old,z,./images/TUNCHHB.png,,,,,,,,,,,,,,,,,,,,,,,,,,,,,,,,,,,
,,,,,,,,,,,,,,,,,61083d12d8c72b16cb135a6b,25,2022-02-12_13h24.41.122,lexical_decision_task_DD_L3,2021.2.3,Win32,59.91252771,,,,,,,,,,,0.6464,1,,,,,,,,,,,,,,m,1,0.6464,,,,,,,,0.206481481,-0.182407407,0,0,0,,0,12,12,83,1,JUNGLE,HB,old,m,./images/JUNGLEHB.png,,,,,,,,,,,,,,,,,,,,,,,,,,,,,,,,,,,
,,,,,,,,,,,,,,,,,61083d12d8c72b16cb135a6b,25,2022-02-12_13h24.41.122,lexical_decision_task_DD_L3,2021.2.3,Win32,59.91252771,,,,,,,,,,,0.4772,1,,,,,,,,,,,,,,m,1,0.4772,,,,,,,,0.206481481,-0.182407407,0,0,0,,0,13,13,51,1,ONION,LB,old,m,./images/ONIONLB.png,,,,,,,,,,,,,,,,,,,,,,,,,,,,,,,,,,,
,,,,,,,,,,,,,,,,,61083d12d8c72b16cb135a6b,25,2022-02-12_13h24.41.122,lexical_decision_task_DD_L3,2021.2.3,Win32,59.91252771,,,,,,,,,,,0.7214,1,,,,,,,,,,,,,,z,1,0.7214,,,,,,,,0.206481481,-0.182407407,0,0,0,,0,14,14,99,1,BACKY,C,old,z,./images/BACKY.png,,,,,,,,,,,,,,,,,,,,,,,,,,,,,,,,,,,
,,,,,,,,,,,,,,,,,61083d12d8c72b16cb135a6b,25,2022-02-12_13h24.41.122,lexical_decision_task_DD_L3,2021.2.3,Win32,59.91252771,,,,,,,,,,,0.7635,1,,,,,,,,,,,,,,z,1,0.7635,,,,,,,,0.206481481,-0.182407407,0,0,0,,0,15,15,98,1,BAMPS,LB,old,z,./images/BAMPSLB.png,,,,,,,,,,,,,,,,,,,,,,,,,,,,,,,,,,,
,,,,,,,,,,,,,,,,,61083d12d8c72b16cb135a6b,25,2022-02-12_13h24.41.122,lexical_decision_task_DD_L3,2021.2.3,Win32,59.91252771,,,,,,,,,,,0.5055,1,,,,,,,,,,,,,,z,1,0.5055,,,,,,,,0.206481481,-0.182407407,0,0,0,,0,16,16,132,1,SCIFF,C,old,z,./images/SCIFF.png,,,,,,,,,,,,,,,,,,,,,,,,,,,,,,,,,,,
,,,,,,,,,,,,,,,,,61083d12d8c72b16cb135a6b,25,2022-02-12_13h24.41.122,lexical_decision_task_DD_L3,2021.2.3,Win32,59.91252771,,,,,,,,,,,0.9692,1,,,,,,,,,,,,,,z,1,0.9692,,,,,,,,0.206481481,-0.182407407,0,0,0,,0,17,17,112,1,MYING,HB,old,z,./images/MYINGHB.png,,,,,,,,,,,,,,,,,,,,,,,,,,,,,,,,,,,
,,,,,,,,,,,,,,,,,61083d12d8c72b16cb135a6b,25,2022-02-12_13h24.41.122,lexical_decision_task_DD_L3,2021.2.3,Win32,59.91252771,,,,,,,,,,,0.681,1,,,,,,,,,,,,,,z,1,0.681,,,,,,,,0.206481481,-0.182407407,0,0,0,,0,18,18,146,1,MOOST,LB,old,z,./images/MOOSTLB.png,,,,,,,,,,,,,,,,,,,,,,,,,,,,,,,,,,,
,,,,,,,,,,,,,,,,,61083d12d8c72b16cb135a6b,25,2022-02-12_13h24.41.122,lexical_decision_task_DD_L3,2021.2.3,Win32,59.91252771,,,,,,,,,,,0.6596,1,,,,,,,,,,,,,,z,1,0.6596,,,,,,,,0.206481481,-0.182407407,0,0,0,,0,19,19,167,1,ZONET,LB,old,z,./images/ZONETLB.png,,,,,,,,,,,,,,,,,,,,,,,,,,,,,,,,,,,
,,,,,,,,,,,,,,,,,61083d12d8c72b16cb135a6b,25,2022-02-12_13h24.41.122,lexical_decision_task_DD_L3,2021.2.3,Win32,59.91252771,,,,,,,,,,,0.7072,1,,,,,,,,,,,,,,z,1,0.7072,,,,,,,,0.206481481,-0.182407407,0,0,0,,0,20,20,100,1,DRIBS,HB,old,z,./images/DRIBSHB.png,,,,,,,,,,,,,,,,,,,,,,,,,,,,,,,,,,,
,,,,,,,,,,,,,,,,,61083d12d8c72b16cb135a6b,25,2022-02-12_13h24.41.122,lexical_decision_task_DD_L3,2021.2.3,Win32,59.91252771,,,,,,,,,,,0.5756,1,,,,,,,,,,,,,,m,1,0.5756,,,,,,,,0.206481481,-0.182407407,0,0,0,,0,21,21,62,1,PURSE,HB,old,m,./images/PURSEHB.png,,,,,,,,,,,,,,,,,,,,,,,,,,,,,,,,,,,
,,,,,,,,,,,,,,,,,61083d12d8c72b16cb135a6b,25,2022-02-12_13h24.41.122,lexical_decision_task_DD_L3,2021.2.3,Win32,59.91252771,,,,,,,,,,,0.7503,1,,,,,,,,,,,,,,z,1,0.7503,,,,,,,,0.206481481,-0.182407407,0,0,0,,0,22,22,161,1,BLAPS,LB,old,z,./images/BLAPSLB.png,,,,,,,,,,,,,,,,,,,,,,,,,,,,,,,,,,,
,,,,,,,,,,,,,,,,,61083d12d8c72b16cb135a6b,25,2022-02-12_13h24.41.122,lexical_decision_task_DD_L3,2021.2.3,Win32,59.91252771,,,,,,,,,,,0.7695,1,,,,,,,,,,,,,,m,1,0.7695,,,,,,,,0.206481481,-0.182407407,0,0,0,,0,23,23,14,1,PICKLE,HB,old,m,./images/PICKLEHB.png,,,,,,,,,,,,,,,,,,,,,,,,,,,,,,,,,,,
,,,,,,,,,,,,,,,,,61083d12d8c72b16cb135a6b,25,2022-02-12_13h24.41.122,lexical_decision_task_DD_L3,2021.2.3,Win32,59.91252771,,,,,,,,,,,1.0769,0,,,,,,,,,,,,,,m,0,1.0769,,,,,,,,0.206481481,-0.182407407,0,0,0,,0,24,24,151,1,TINKY,HB,old,z,./images/TINKYHB.png,,,,,,,,,,,,,,,,,,,,,,,,,,,,,,,,,,,
,,,,,,,,,,,,,,,,,61083d12d8c72b16cb135a6b,25,2022-02-12_13h24.41.122,lexical_decision_task_DD_L3,2021.2.3,Win32,59.91252771,,,,,,,,,,,0.4828,0,,,,,,,,,,,,,,z,0,0.4828,,,,,,,,0.206481481,-0.182407407,0,0,0,,0,25,25,21,1,KIDNEY,LB,old,m,./images/KIDNEYLB.png,,,,,,,,,,,,,,,,,,,,,,,,,,,,,,,,,,,
,,,,,,,,,,,,,,,,,61083d12d8c72b16cb135a6b,25,2022-02-12_13h24.41.122,lexical_decision_task_DD_L3,2021.2.3,Win32,59.91252771,,,,,,,,,,,0.6399,1,,,,,,,,,,,,,,z,1,0.6399,,,,,,,,0.206481481,-0.182407407,0,0,0,,0,26,26,141,1,PLEET,C,old,z,./images/PLEET.png,,,,,,,,,,,,,,,,,,,,,,,,,,,,,,,,,,,
,,,,,,,,,,,,,,,,,61083d12d8c72b16cb135a6b,25,2022-02-12_13h24.41.122,lexical_decision_task_DD_L3,2021.2.3,Win32,59.91252771,,,,,,,,,,,0.5184,1,,,,,,,,,,,,,,z,1,0.5184,,,,,,,,0.206481481,-0.182407407,0,0,0,,0,27,27,90,1,NEAST,C,old,z,./images/NEAST.png,,,,,,,,,,,,,,,,,,,,,,,,,,,,,,,,,,,
,,,,,,,,,,,,,,,,,61083d12d8c72b16cb135a6b,25,2022-02-12_13h24.41.122,lexical_decision_task_DD_L3,2021.2.3,Win32,59.91252771,,,,,,,,,,,0.5923,1,,,,,,,,,,,,,,m,1,0.5923,,,,,,,,0.206481481,-0.182407407,0,0,0,,0,28,28,2,1,BEARD,HB,old,m,./images/BEARDHB.png,,,,,,,,,,,,,,,,,,,,,,,,,,,,,,,,,,,
,,,,,,,,,,,,,,,,,61083d12d8c72b16cb135a6b,25,2022-02-12_13h24.41.122,lexical_decision_task_DD_L3,2021.2.3,Win32,59.91252771,,,,,,,,,,,0.6762,1,,,,,,,,,,,,,,m,1,0.6762,,,,,,,,0.206481481,-0.182407407,0,0,0,,0,29,29,80,1,WEASEL,HB,old,m,./images/WEASELHB.png,,,,,,,,,,,,,,,,,,,,,,,,,,,,,,,,,,,
,,,,,,,,,,,,,,,,,61083d12d8c72b16cb135a6b,25,2022-02-12_13h24.41.122,lexical_decision_task_DD_L3,2021.2.3,Win32,59.91252771,,,,,,,,,,,1.1779,0,,,,,,,,,,,,,,m,0,1.1779,,,,,,,,0.206481481,-0.182407407,0,0,0,,0,30,30,139,1,BLEAR,HB,old,z,./images/BLEARHB.png,,,,,,,,,,,,,,,,,,,,,,,,,,,,,,,,,,,
,,,,,,,,,,,,,,,,,61083d12d8c72b16cb135a6b,25,2022-02-12_13h24.41.122,lexical_decision_task_DD_L3,2021.2.3,Win32,59.91252771,,,,,,,,,,,0.7704,1,,,,,,,,,,,,,,m,1,0.7704,,,,,,,,0.206481481,-0.182407407,0,0,0,,0,31,31,44,1,LIZARD,HB,old,m,./images/LIZARDHB.png,,,,,,,,,,,,,,,,,,,,,,,,,,,,,,,,,,,
,,,,,,,,,,,,,,,,,61083d12d8c72b16cb135a6b,25,2022-02-12_13h24.41.122,lexical_decision_task_DD_L3,2021.2.3,Win32,59.91252771,,,,,,,,,,,0.5618,1,,,,,,,,,,,,,,m,1,0.5618,,,,,,,,0.206481481,-0.182407407,0,0,0,,0,32,32,45,1,KITTEN,LB,old,m,./images/KITTENLB.png,,,,,,,,,,,,,,,,,,,,,,,,,,,,,,,,,,,
,,,,,,,,,,,,,,,,,61083d12d8c72b16cb135a6b,25,2022-02-12_13h24.41.122,lexical_decision_task_DD_L3,2021.2.3,Win32,59.91252771,,,,,,,,,,,0.8936,1,,,,,,,,,,,,,,z,1,0.8936,,,,,,,,0.206481481,-0.182407407,0,0,0,,0,33,33,133,1,POWDY,HB,old,z,./images/POWDYHB.png,,,,,,,,,,,,,,,,,,,,,,,,,,,,,,,,,,,
,,,,,,,,,,,,,,,,,61083d12d8c72b16cb135a6b,25,2022-02-12_13h24.41.122,lexical_decision_task_DD_L3,2021.2.3,Win32,59.91252771,,,,,,,,,,,0.8217,1,,,,,,,,,,,,,,z,1,0.8217,,,,,,,,0.206481481,-0.182407407,0,0,0,,0,34,34,93,1,SMONE,C,old,z,./images/SMONE.png,,,,,,,,,,,,,,,,,,,,,,,,,,,,,,,,,,,
,,,,,,,,,,,,,,,,,61083d12d8c72b16cb135a6b,25,2022-02-12_13h24.41.122,lexical_decision_task_DD_L3,2021.2.3,Win32,59.91252771,,,,,,,,,,,0.7174,0,,,,,,,,,,,,,,z,0,0.7174,,,,,,,,0.206481481,-0.182407407,0,0,0,,0,35,35,29,1,CRUMB,HB,old,m,./images/CRUMBHB.png,,,,,,,,,,,,,,,,,,,,,,,,,,,,,,,,,,,
,,,,,,,,,,,,,,,,,61083d12d8c72b16cb135a6b,25,2022-02-12_13h24.41.122,lexical_decision_task_DD_L3,2021.2.3,Win32,59.91252771,,,,,,,,,,,1.4817,1,,,,,,,,,,,,,,m,1,1.4817,,,,,,,,0.206481481,-0.182407407,0,0,0,,0,36,36,76,1,INFANT,C,old,m,./images/INFANT.png,,,,,,,,,,,,,,,,,,,,,,,,,,,,,,,,,,,
,,,,,,,,,,,,,,,,,61083d12d8c72b16cb135a6b,25,2022-02-12_13h24.41.122,lexical_decision_task_DD_L3,2021.2.3,Win32,59.91252771,,,,,,,,,,,1.421,1,,,,,,,,,,,,,,m,1,1.421,,,,,,,,0.206481481,-0.182407407,0,0,0,,0,37,37,72,1,NOOSE,LB,old,m,./images/NOOSELB.png,,,,,,,,,,,,,,,,,,,,,,,,,,,,,,,,,,,
,,,,,,,,,,,,,,,,,61083d12d8c72b16cb135a6b,25,2022-02-12_13h24.41.122,lexical_decision_task_DD_L3,2021.2.3,Win32,59.91252771,,,,,,,,,,,0.5754,1,,,,,,,,,,,,,,m,1,0.5754,,,,,,,,0.206481481,-0.182407407,0,0,0,,0,38,38,18,1,JAGUAR,LB,old,m,./images/JAGUARLB.png,,,,,,,,,,,,,,,,,,,,,,,,,,,,,,,,,,,
,,,,,,,,,,,,,,,,,61083d12d8c72b16cb135a6b,25,2022-02-12_13h24.41.122,lexical_decision_task_DD_L3,2021.2.3,Win32,59.91252771,,,,,,,,,,,0.8298,1,,,,,,,,,,,,,,m,1,0.8298,,,,,,,,0.206481481,-0.182407407,0,0,0,,0,39,39,53,1,CARPET,HB,old,m,./images/CARPETHB.png,,,,,,,,,,,,,,,,,,,,,,,,,,,,,,,,,,,
,,,,,,,,,,,,,,,,,61083d12d8c72b16cb135a6b,25,2022-02-12_13h24.41.122,lexical_decision_task_DD_L3,2021.2.3,Win32,59.91252771,,,,,,,,,,,0.8179,1,,,,,,,,,,,,,,z,1,0.8179,,,,,,,,0.206481481,-0.182407407,0,0,0,,0,40,40,106,1,CLUMS,HB,old,z,./images/CLUMSHB.png,,,,,,,,,,,,,,,,,,,,,,,,,,,,,,,,,,,
,,,,,,,,,,,,,,,,,61083d12d8c72b16cb135a6b,25,2022-02-12_13h24.41.122,lexical_decision_task_DD_L3,2021.2.3,Win32,59.91252771,,,,,,,,,,,0.6617,0,,,,,,,,,,,,,,z,0,0.6617,,,,,,,,0.206481481,-0.182407407,0,0,0,space,0,41,41,43,1,MOSQUE,C,old,m,./images/MOSQUE.png,22.1838,,,,,,,,,,,,,,,,,,,,,,,,,,,,,,,,,,
,,,,,,,,,,,,,,,,,61083d12d8c72b16cb135a6b,25,2022-02-12_13h24.41.122,lexical_decision_task_DD_L3,2021.2.3,Win32,59.91252771,,,,,,,,,,,0.8147,0,,,,,,,,,,,,,,z,0,0.8147,,,,,,,,0.206481481,-0.182407407,0,0,0,,0,42,42,38,1,LADDER,HB,old,m,./images/LADDERHB.png,,,,,,,,,,,,,,,,,,,,,,,,,,,,,,,,,,,
,,,,,,,,,,,,,,,,,61083d12d8c72b16cb135a6b,25,2022-02-12_13h24.41.122,lexical_decision_task_DD_L3,2021.2.3,Win32,59.91252771,,,,,,,,,,,0.5938,1,,,,,,,,,,,,,,z,1,0.5938,,,,,,,,0.206481481,-0.182407407,0,0,0,,0,43,43,129,1,PRANS,C,old,z,./images/PRANS.png,,,,,,,,,,,,,,,,,,,,,,,,,,,,,,,,,,,
,,,,,,,,,,,,,,,,,61083d12d8c72b16cb135a6b,25,2022-02-12_13h24.41.122,lexical_decision_task_DD_L3,2021.2.3,Win32,59.91252771,,,,,,,,,,,0.5058,1,,,,,,,,,,,,,,z,1,0.5058,,,,,,,,0.206481481,-0.182407407,0,0,0,,0,44,44,105,1,MOKER,C,old,z,./images/MOKER.png,,,,,,,,,,,,,,,,,,,,,,,,,,,,,,,,,,,
,,,,,,,,,,,,,,,,,61083d12d8c72b16cb135a6b,25,2022-02-12_13h24.41.122,lexical_decision_task_DD_L3,2021.2.3,Win32,59.91252771,,,,,,,,,,,0.5725,1,,,,,,,,,,,,,,m,1,0.5725,,,,,,,,0.206481481,-0.182407407,0,0,0,,0,45,45,70,1,URINE,C,old,m,./images/URINE.png,,,,,,,,,,,,,,,,,,,,,,,,,,,,,,,,,,,
,,,,,,,,,,,,,,,,,61083d12d8c72b16cb135a6b,25,2022-02-12_13h24.41.122,lexical_decision_task_DD_L3,2021.2.3,Win32,59.91252771,,,,,,,,,,,1.2196,1,,,,,,,,,,,,,,z,1,1.2196,,,,,,,,0.206481481,-0.182407407,0,0,0,,0,46,46,113,1,LINEW,LB,old,z,./images/LINEWLB.png,,,,,,,,,,,,,,,,,,,,,,,,,,,,,,,,,,,
,,,,,,,,,,,,,,,,,61083d12d8c72b16cb135a6b,25,2022-02-12_13h24.41.122,lexical_decision_task_DD_L3,2021.2.3,Win32,59.91252771,,,,,,,,,,,0.8763,1,,,,,,,,,,,,,,m,1,0.8763,,,,,,,,0.206481481,-0.182407407,0,0,0,,0,47,47,59,1,BURIAL,HB,old,m,./images/BURIALHB.png,,,,,,,,,,,,,,,,,,,,,,,,,,,,,,,,,,,
,,,,,,,,,,,,,,,,,61083d12d8c72b16cb135a6b,25,2022-02-12_13h24.41.122,lexical_decision_task_DD_L3,2021.2.3,Win32,59.91252771,,,,,,,,,,,0.5254,1,,,,,,,,,,,,,,m,1,0.5254,,,,,,,,0.206481481,-0.182407407,0,0,0,,0,48,48,35,1,PEACH,HB,old,m,./images/PEACHHB.png,,,,,,,,,,,,,,,,,,,,,,,,,,,,,,,,,,,
,,,,,,,,,,,,,,,,,61083d12d8c72b16cb135a6b,25,2022-02-12_13h24.41.122,lexical_decision_task_DD_L3,2021.2.3,Win32,59.91252771,,,,,,,,,,,1.094,1,,,,,,,,,,,,,,z,1,1.094,,,,,,,,0.206481481,-0.182407407,0,0,0,,0,49,49,162,1,LEICH,C,old,z,./images/LEICH.png,,,,,,,,,,,,,,,,,,,,,,,,,,,,,,,,,,,
,,,,,,,,,,,,,,,,,61083d12d8c72b16cb135a6b,25,2022-02-12_13h24.41.122,lexical_decision_task_DD_L3,2021.2.3,Win32,59.91252771,,,,,,,,,,,0.7575,1,,,,,,,,,,,,,,m,1,0.7575,,,,,,,,0.206481481,-0.182407407,0,0,0,,0,50,50,34,1,CANYON,C,old,m,./images/CANYON.png,,,,,,,,,,,,,,,,,,,,,,,,,,,,,,,,,,,
,,,,,,,,,,,,,,,,,61083d12d8c72b16cb135a6b,25,2022-02-12_13h24.41.122,lexical_decision_task_DD_L3,2021.2.3,Win32,59.91252771,,,,,,,,,,,0.5573,1,,,,,,,,,,,,,,m,1,0.5573,,,,,,,,0.206481481,-0.182407407,0,0,0,,0,51,51,49,1,DRUMS,C,old,m,./images/DRUMS.png,,,,,,,,,,,,,,,,,,,,,,,,,,,,,,,,,,,
,,,,,,,,,,,,,,,,,61083d12d8c72b16cb135a6b,25,2022-02-12_13h24.41.122,lexical_decision_task_DD_L3,2021.2.3,Win32,59.91252771,,,,,,,,,,,0.5139,1,,,,,,,,,,,,,,m,1,0.5139,,,,,,,,0.206481481,-0.182407407,0,0,0,,0,52,52,1,1,PLANK,C,old,m,./images/PLANK.png,,,,,,,,,,,,,,,,,,,,,,,,,,,,,,,,,,,
,,,,,,,,,,,,,,,,,61083d12d8c72b16cb135a6b,25,2022-02-12_13h24.41.122,lexical_decision_task_DD_L3,2021.2.3,Win32,59.91252771,,,,,,,,,,,0.6246,1,,,,,,,,,,,,,,m,1,0.6246,,,,,,,,0.206481481,-0.182407407,0,0,0,,0,53,53,5,1,PASTA,HB,old,m,./images/PASTAHB.png,,,,,,,,,,,,,,,,,,,,,,,,,,,,,,,,,,,
,,,,,,,,,,,,,,,,,61083d12d8c72b16cb135a6b,25,2022-02-12_13h24.41.122,lexical_decision_task_DD_L3,2021.2.3,Win32,59.91252771,,,,,,,,,,,0.5736,1,,,,,,,,,,,,,,z,1,0.5736,,,,,,,,0.206481481,-0.182407407,0,0,0,,0,54,54,147,1,ZOLES,C,old,z,./images/ZOLES.png,,,,,,,,,,,,,,,,,,,,,,,,,,,,,,,,,,,
,,,,,,,,,,,,,,,,,61083d12d8c72b16cb135a6b,25,2022-02-12_13h24.41.122,lexical_decision_task_DD_L3,2021.2.3,Win32,59.91252771,,,,,,,,,,,0.5276,1,,,,,,,,,,,,,,m,1,0.5276,,,,,,,,0.206481481,-0.182407407,0,0,0,,0,55,55,78,1,LITTER,LB,old,m,./images/LITTERLB.png,,,,,,,,,,,,,,,,,,,,,,,,,,,,,,,,,,,
,,,,,,,,,,,,,,,,,61083d12d8c72b16cb135a6b,25,2022-02-12_13h24.41.122,lexical_decision_task_DD_L3,2021.2.3,Win32,59.91252771,,,,,,,,,,,0.5677,1,,,,,,,,,,,,,,m,1,0.5677,,,,,,,,0.206481481,-0.182407407,0,0,0,,0,56,56,13,1,MOTOR,C,old,m,./images/MOTOR.png,,,,,,,,,,,,,,,,,,,,,,,,,,,,,,,,,,,
,,,,,,,,,,,,,,,,,61083d12d8c72b16cb135a6b,25,2022-02-12_13h24.41.122,lexical_decision_task_DD_L3,2021.2.3,Win32,59.91252771,,,,,,,,,,,0.6878,1,,,,,,,,,,,,,,m,1,0.6878,,,,,,,,0.206481481,-0.182407407,0,0,0,,0,57,57,32,1,BARREL,HB,old,m,./images/BARRELHB.png,,,,,,,,,,,,,,,,,,,,,,,,,,,,,,,,,,,
,,,,,,,,,,,,,,,,,61083d12d8c72b16cb135a6b,25,2022-02-12_13h24.41.122,lexical_decision_task_DD_L3,2021.2.3,Win32,59.91252771,,,,,,,,,,,0.5567,1,,,,,,,,,,,,,,m,1,0.5567,,,,,,,,0.206481481,-0.182407407,0,0,0,,0,58,58,4,1,MUSCLE,C,old,m,./images/MUSCLE.png,,,,,,,,,,,,,,,,,,,,,,,,,,,,,,,,,,,
,,,,,,,,,,,,,,,,,61083d12d8c72b16cb135a6b,25,2022-02-12_13h24.41.122,lexical_decision_task_DD_L3,2021.2.3,Win32,59.91252771,,,,,,,,,,,0.7517,1,,,,,,,,,,,,,,m,1,0.7517,,,,,,,,0.206481481,-0.182407407,0,0,0,,0,59,59,41,1,STRING,HB,old,m,./images/STRINGHB.png,,,,,,,,,,,,,,,,,,,,,,,,,,,,,,,,,,,
,,,,,,,,,,,,,,,,,61083d12d8c72b16cb135a6b,25,2022-02-12_13h24.41.122,lexical_decision_task_DD_L3,2021.2.3,Win32,59.91252771,,,,,,,,,,,0.7055,1,,,,,,,,,,,,,,z,1,0.7055,,,,,,,,0.206481481,-0.182407407,0,0,0,,0,60,60,153,1,CLUPS,C,old,z,./images/CLUPS.png,,,,,,,,,,,,,,,,,,,,,,,,,,,,,,,,,,,
,,,,,,,,,,,,,,,,,61083d12d8c72b16cb135a6b,25,2022-02-12_13h24.41.122,lexical_decision_task_DD_L3,2021.2.3,Win32,59.91252771,,,,,,,,,,,0.6706,1,,,,,,,,,,,,,,z,1,0.6706,,,,,,,,0.206481481,-0.182407407,0,0,0,,0,61,61,110,1,CRUNK,LB,old,z,./images/CRUNKLB.png,,,,,,,,,,,,,,,,,,,,,,,,,,,,,,,,,,,
,,,,,,,,,,,,,,,,,61083d12d8c72b16cb135a6b,25,2022-02-12_13h24.41.122,lexical_decision_task_DD_L3,2021.2.3,Win32,59.91252771,,,,,,,,,,,1.1253,1,,,,,,,,,,,,,,z,1,1.1253,,,,,,,,0.206481481,-0.182407407,0,0,0,,0,62,62,91,1,SHENS,HB,old,z,./images/SHENSHB.png,,,,,,,,,,,,,,,,,,,,,,,,,,,,,,,,,,,
,,,,,,,,,,,,,,,,,61083d12d8c72b16cb135a6b,25,2022-02-12_13h24.41.122,lexical_decision_task_DD_L3,2021.2.3,Win32,59.91252771,,,,,,,,,,,0.6751,1,,,,,,,,,,,,,,z,1,0.6751,,,,,,,,0.206481481,-0.182407407,0,0,0,,0,63,63,108,1,GRUET,C,old,z,./images/GRUET.png,,,,,,,,,,,,,,,,,,,,,,,,,,,,,,,,,,,
,,,,,,,,,,,,,,,,,61083d12d8c72b16cb135a6b,25,2022-02-12_13h24.41.122,lexical_decision_task_DD_L3,2021.2.3,Win32,59.91252771,,,,,,,,,,,0.6451,1,,,,,,,,,,,,,,z,1,0.6451,,,,,,,,0.206481481,-0.182407407,0,0,0,,0,64,64,114,1,RIKES,C,old,z,./images/RIKES.png,,,,,,,,,,,,,,,,,,,,,,,,,,,,,,,,,,,
,,,,,,,,,,,,,,,,,61083d12d8c72b16cb135a6b,25,2022-02-12_13h24.41.122,lexical_decision_task_DD_L3,2021.2.3,Win32,59.91252771,,,,,,,,,,,0.6031,1,,,,,,,,,,,,,,z,1,0.6031,,,,,,,,0.206481481,-0.182407407,0,0,0,,0,65,65,134,1,TROSS,LB,old,z,./images/TROSSLB.png,,,,,,,,,,,,,,,,,,,,,,,,,,,,,,,,,,,
,,,,,,,,,,,,,,,,,61083d12d8c72b16cb135a6b,25,2022-02-12_13h24.41.122,lexical_decision_task_DD_L3,2021.2.3,Win32,59.91252771,,,,,,,,,,,0.6769,1,,,,,,,,,,,,,,z,1,0.6769,,,,,,,,0.206481481,-0.182407407,0,0,0,,0,66,66,140,1,DOVET,LB,old,z,./images/DOVETLB.png,,,,,,,,,,,,,,,,,,,,,,,,,,,,,,,,,,,
,,,,,,,,,,,,,,,,,61083d12d8c72b16cb135a6b,25,2022-02-12_13h24.41.122,lexical_decision_task_DD_L3,2021.2.3,Win32,59.91252771,,,,,,,,,,,0.7016,1,,,,,,,,,,,,,,z,1,0.7016,,,,,,,,0.206481481,-0.182407407,0,0,0,,0,67,67,104,1,GITTY,LB,old,z,./images/GITTYLB.png,,,,,,,,,,,,,,,,,,,,,,,,,,,,,,,,,,,
,,,,,,,,,,,,,,,,,61083d12d8c72b16cb135a6b,25,2022-02-12_13h24.41.122,lexical_decision_task_DD_L3,2021.2.3,Win32,59.91252771,,,,,,,,,,,0.547,1,,,,,,,,,,,,,,m,1,0.547,,,,,,,,0.206481481,-0.182407407,0,0,0,,0,68,68,58,1,BABOON,C,old,m,./images/BABOON.png,,,,,,,,,,,,,,,,,,,,,,,,,,,,,,,,,,,
,,,,,,,,,,,,,,,,,61083d12d8c72b16cb135a6b,25,2022-02-12_13h24.41.122,lexical_decision_task_DD_L3,2021.2.3,Win32,59.91252771,,,,,,,,,,,1.0672,1,,,,,,,,,,,,,,z,1,1.0672,,,,,,,,0.206481481,-0.182407407,0,0,0,,0,69,69,118,1,BAVEL,HB,old,z,./images/BAVELHB.png,,,,,,,,,,,,,,,,,,,,,,,,,,,,,,,,,,,
,,,,,,,,,,,,,,,,,61083d12d8c72b16cb135a6b,25,2022-02-12_13h24.41.122,lexical_decision_task_DD_L3,2021.2.3,Win32,59.91252771,,,,,,,,,,,1.1736,1,,,,,,,,,,,,,,z,1,1.1736,,,,,,,,0.206481481,-0.182407407,0,0,0,,0,70,70,121,1,CEERS,HB,old,z,./images/CEERSHB.png,,,,,,,,,,,,,,,,,,,,,,,,,,,,,,,,,,,
,,,,,,,,,,,,,,,,,61083d12d8c72b16cb135a6b,25,2022-02-12_13h24.41.122,lexical_decision_task_DD_L3,2021.2.3,Win32,59.91252771,,,,,,,,,,,0.5412,1,,,,,,,,,,,,,,m,1,0.5412,,,,,,,,0.206481481,-0.182407407,0,0,0,,0,71,71,42,1,FOLDER,LB,old,m,./images/FOLDERLB.png,,,,,,,,,,,,,,,,,,,,,,,,,,,,,,,,,,,
,,,,,,,,,,,,,,,,,61083d12d8c72b16cb135a6b,25,2022-02-12_13h24.41.122,lexical_decision_task_DD_L3,2021.2.3,Win32,59.91252771,,,,,,,,,,,0.644,1,,,,,,,,,,,,,,m,1,0.644,,,,,,,,0.206481481,-0.182407407,0,0,0,,0,72,72,9,1,RHINO,LB,old,m,./images/RHINOLB.png,,,,,,,,,,,,,,,,,,,,,,,,,,,,,,,,,,,
,,,,,,,,,,,,,,,,,61083d12d8c72b16cb135a6b,25,2022-02-12_13h24.41.122,lexical_decision_task_DD_L3,2021.2.3,Win32,59.91252771,,,,,,,,,,,0.5506,1,,,,,,,,,,,,,,m,1,0.5506,,,,,,,,0.206481481,-0.182407407,0,0,0,,0,73,73,64,1,JELLY,C,old,m,./images/JELLY.png,,,,,,,,,,,,,,,,,,,,,,,,,,,,,,,,,,,
,,,,,,,,,,,,,,,,,61083d12d8c72b16cb135a6b,25,2022-02-12_13h24.41.122,lexical_decision_task_DD_L3,2021.2.3,Win32,59.91252771,,,,,,,,,,,1.1275,1,,,,,,,,,,,,,,m,1,1.1275,,,,,,,,0.206481481,-0.182407407,0,0,0,,0,74,74,68,1,TORCH,HB,old,m,./images/TORCHHB.png,,,,,,,,,,,,,,,,,,,,,,,,,,,,,,,,,,,
,,,,,,,,,,,,,,,,,61083d12d8c72b16cb135a6b,25,2022-02-12_13h24.41.122,lexical_decision_task_DD_L3,2021.2.3,Win32,59.91252771,,,,,,,,,,,0.7029,1,,,,,,,,,,,,,,z,1,0.7029,,,,,,,,0.206481481,-0.182407407,0,0,0,,0,75,75,116,1,BALGY,LB,old,z,./images/BALGYLB.png,,,,,,,,,,,,,,,,,,,,,,,,,,,,,,,,,,,
,,,,,,,,,,,,,,,,,61083d12d8c72b16cb135a6b,25,2022-02-12_13h24.41.122,lexical_decision_task_DD_L3,2021.2.3,Win32,59.91252771,,,,,,,,,,,0.6255,1,,,,,,,,,,,,,,z,1,0.6255,,,,,,,,0.206481481,-0.182407407,0,0,0,,0,76,76,102,1,DULLE,C,old,z,./images/DULLE.png,,,,,,,,,,,,,,,,,,,,,,,,,,,,,,,,,,,
,,,,,,,,,,,,,,,,,61083d12d8c72b16cb135a6b,25,2022-02-12_13h24.41.122,lexical_decision_task_DD_L3,2021.2.3,Win32,59.91252771,,,,,,,,,,,0.7995,1,,,,,,,,,,,,,,m,1,0.7995,,,,,,,,0.206481481,-0.182407407,0,0,0,,0,77,77,47,1,BERRY,HB,old,m,./images/BERRYHB.png,,,,,,,,,,,,,,,,,,,,,,,,,,,,,,,,,,,
,,,,,,,,,,,,,,,,,61083d12d8c72b16cb135a6b,25,2022-02-12_13h24.41.122,lexical_decision_task_DD_L3,2021.2.3,Win32,59.91252771,,,,,,,,,,,0.8445,1,,,,,,,,,,,,,,m,1,0.8445,,,,,,,,0.206481481,-0.182407407,0,0,0,,0,78,78,31,1,QUILL,C,old,m,./images/QUILL.png,,,,,,,,,,,,,,,,,,,,,,,,,,,,,,,,,,,
,,,,,,,,,,,,,,,,,61083d12d8c72b16cb135a6b,25,2022-02-12_13h24.41.122,lexical_decision_task_DD_L3,2021.2.3,Win32,59.91252771,,,,,,,,,,,0.6876,1,,,,,,,,,,,,,,z,1,0.6876,,,,,,,,0.206481481,-0.182407407,0,0,0,,0,79,79,101,1,GLEET,LB,old,z,./images/GLEETLB.png,,,,,,,,,,,,,,,,,,,,,,,,,,,,,,,,,,,
,,,,,,,,,,,,,,,,,61083d12d8c72b16cb135a6b,25,2022-02-12_13h24.41.122,lexical_decision_task_DD_L3,2021.2.3,Win32,59.91252771,,,,,,,,,,,0.6442,1,,,,,,,,,,,,,,m,1,0.6442,,,,,,,,0.206481481,-0.182407407,0,0,0,,0,80,80,6,1,SQUARE,LB,old,m,./images/SQUARELB.png,,,,,,,,,,,,,,,,,,,,,,,,,,,,,,,,,,,
,,,,,,,,,,,,,,,,,61083d12d8c72b16cb135a6b,25,2022-02-12_13h24.41.122,lexical_decision_task_DD_L3,2021.2.3,Win32,59.91252771,,,,,,,,,,,0.8948,1,,,,,,,,,,,,,,m,1,0.8948,,,,,,,,0.206481481,-0.182407407,0,0,0,,0,81,81,11,1,BONNET,HB,old,m,./images/BONNETHB.png,,,,,,,,,,,,,,,,,,,,,,,,,,,,,,,,,,,
,,,,,,,,,,,,,,,,,61083d12d8c72b16cb135a6b,25,2022-02-12_13h24.41.122,lexical_decision_task_DD_L3,2021.2.3,Win32,59.91252771,,,,,,,,,,,0.6303,1,,,,,,,,,,,,,,z,1,0.6303,,,,,,,,0.206481481,-0.182407407,0,0,0,,0,82,82,126,1,GUELS,C,old,z,./images/GUELS.png,,,,,,,,,,,,,,,,,,,,,,,,,,,,,,,,,,,
,,,,,,,,,,,,,,,,,61083d12d8c72b16cb135a6b,25,2022-02-12_13h24.41.122,lexical_decision_task_DD_L3,2021.2.3,Win32,59.91252771,,,,,,,,,,,0.9164,1,,,,,,,,,,,,,,z,1,0.9164,,,,,,,,0.206481481,-0.182407407,0,0,0,space,0,83,83,159,1,CUDDY,C,old,z,./images/CUDDY.png,11.6111,,,,,,,,,,,,,,,,,,,,,,,,,,,,,,,,,,
,,,,,,,,,,,,,,,,,61083d12d8c72b16cb135a6b,25,2022-02-12_13h24.41.122,lexical_decision_task_DD_L3,2021.2.3,Win32,59.91252771,,,,,,,,,,,0.6587,1,,,,,,,,,,,,,,m,1,0.6587,,,,,,,,0.206481481,-0.182407407,0,0,0,,0,84,84,12,1,SHORE,LB,old,m,./images/SHORELB.png,,,,,,,,,,,,,,,,,,,,,,,,,,,,,,,,,,,
,,,,,,,,,,,,,,,,,61083d12d8c72b16cb135a6b,25,2022-02-12_13h24.41.122,lexical_decision_task_DD_L3,2021.2.3,Win32,59.91252771,,,,,,,,,,,0.4169,1,,,,,,,,,,,,,,m,1,0.4169,,,,,,,,0.206481481,-0.182407407,0,0,0,,0,85,85,24,1,SCREW,LB,old,m,./images/SCREWLB.png,,,,,,,,,,,,,,,,,,,,,,,,,,,,,,,,,,,
,,,,,,,,,,,,,,,,,61083d12d8c72b16cb135a6b,25,2022-02-12_13h24.41.122,lexical_decision_task_DD_L3,2021.2.3,Win32,59.91252771,,,,,,,,,,,0.6917,1,,,,,,,,,,,,,,z,1,0.6917,,,,,,,,0.206481481,-0.182407407,0,0,0,,0,86,86,137,1,JOOST,LB,old,z,./images/JOOSTLB.png,,,,,,,,,,,,,,,,,,,,,,,,,,,,,,,,,,,
,,,,,,,,,,,,,,,,,61083d12d8c72b16cb135a6b,25,2022-02-12_13h24.41.122,lexical_decision_task_DD_L3,2021.2.3,Win32,59.91252771,,,,,,,,,,,0.5115,1,,,,,,,,,,,,,,m,1,0.5115,,,,,,,,0.206481481,-0.182407407,0,0,0,,0,87,87,67,1,SAILOR,C,old,m,./images/SAILOR.png,,,,,,,,,,,,,,,,,,,,,,,,,,,,,,,,,,,
,,,,,,,,,,,,,,,,,61083d12d8c72b16cb135a6b,25,2022-02-12_13h24.41.122,lexical_decision_task_DD_L3,2021.2.3,Win32,59.91252771,,,,,,,,,,,0.5024,1,,,,,,,,,,,,,,m,1,0.5024,,,,,,,,0.206481481,-0.182407407,0,0,0,,0,88,88,48,1,SPORT,LB,old,m,./images/SPORTLB.png,,,,,,,,,,,,,,,,,,,,,,,,,,,,,,,,,,,
,,,,,,,,,,,,,,,,,61083d12d8c72b16cb135a6b,25,2022-02-12_13h24.41.122,lexical_decision_task_DD_L3,2021.2.3,Win32,59.91252771,,,,,,,,,,,0.4924,1,,,,,,,,,,,,,,m,1,0.4924,,,,,,,,0.206481481,-0.182407407,0,0,0,,0,89,89,66,1,SWEAT,LB,old,m,./images/SWEATLB.png,,,,,,,,,,,,,,,,,,,,,,,,,,,,,,,,,,,
,,,,,,,,,,,,,,,,,61083d12d8c72b16cb135a6b,25,2022-02-12_13h24.41.122,lexical_decision_task_DD_L3,2021.2.3,Win32,59.91252771,,,,,,,,,,,0.6608,1,,,,,,,,,,,,,,z,1,0.6608,,,,,,,,0.206481481,-0.182407407,0,0,0,,0,90,90,97,1,CHIDS,HB,old,z,./images/CHIDSHB.png,,,,,,,,,,,,,,,,,,,,,,,,,,,,,,,,,,,
,,,,,,,,,,,,,,,,,61083d12d8c72b16cb135a6b,25,2022-02-12_13h24.41.122,lexical_decision_task_DD_L3,2021.2.3,Win32,59.91252771,,,,,,,,,,,0.6559,1,,,,,,,,,,,,,,m,1,0.6559,,,,,,,,0.206481481,-0.182407407,0,0,0,,0,91,91,10,1,BELLY,C,old,m,./images/BELLY.png,,,,,,,,,,,,,,,,,,,,,,,,,,,,,,,,,,,
,,,,,,,,,,,,,,,,,61083d12d8c72b16cb135a6b,25,2022-02-12_13h24.41.122,lexical_decision_task_DD_L3,2021.2.3,Win32,59.91252771,,,,,,,,,,,1.2771,1,,,,,,,,,,,,,,m,1,1.2771,,,,,,,,0.206481481,-0.182407407,0,0,0,,0,92,92,17,1,SKIING,HB,old,m,./images/SKIINGHB.png,,,,,,,,,,,,,,,,,,,,,,,,,,,,,,,,,,,
,,,,,,,,,,,,,,,,,61083d12d8c72b16cb135a6b,25,2022-02-12_13h24.41.122,lexical_decision_task_DD_L3,2021.2.3,Win32,59.91252771,,,,,,,,,,,0.6256,1,,,,,,,,,,,,,,m,1,0.6256,,,,,,,,0.206481481,-0.182407407,0,0,0,,0,93,93,37,1,BIRTH,C,old,m,./images/BIRTH.png,,,,,,,,,,,,,,,,,,,,,,,,,,,,,,,,,,,
,,,,,,,,,,,,,,,,,61083d12d8c72b16cb135a6b,25,2022-02-12_13h24.41.122,lexical_decision_task_DD_L3,2021.2.3,Win32,59.91252771,,,,,,,,,,,0.513,1,,,,,,,,,,,,,,m,1,0.513,,,,,,,,0.206481481,-0.182407407,0,0,0,,0,94,94,33,1,MAGGOT,LB,old,m,./images/MAGGOTLB.png,,,,,,,,,,,,,,,,,,,,,,,,,,,,,,,,,,,
,,,,,,,,,,,,,,,,,61083d12d8c72b16cb135a6b,25,2022-02-12_13h24.41.122,lexical_decision_task_DD_L3,2021.2.3,Win32,59.91252771,,,,,,,,,,,0.62,1,,,,,,,,,,,,,,z,1,0.62,,,,,,,,0.206481481,-0.182407407,0,0,0,,0,95,95,149,1,VEASE,LB,old,z,./images/VEASELB.png,,,,,,,,,,,,,,,,,,,,,,,,,,,,,,,,,,,
,,,,,,,,,,,,,,,,,61083d12d8c72b16cb135a6b,25,2022-02-12_13h24.41.122,lexical_decision_task_DD_L3,2021.2.3,Win32,59.91252771,,,,,,,,,,,0.6304,1,,,,,,,,,,,,,,z,1,0.6304,,,,,,,,0.206481481,-0.182407407,0,0,0,,0,96,96,150,1,NOOLS,C,old,z,./images/NOOLS.png,,,,,,,,,,,,,,,,,,,,,,,,,,,,,,,,,,,
,,,,,,,,,,,,,,,,,61083d12d8c72b16cb135a6b,25,2022-02-12_13h24.41.122,lexical_decision_task_DD_L3,2021.2.3,Win32,59.91252771,,,,,,,,,,,0.5589,1,,,,,,,,,,,,,,m,1,0.5589,,,,,,,,0.206481481,-0.182407407,0,0,0,,0,97,97,25,1,WRIST,C,old,m,./images/WRIST.png,,,,,,,,,,,,,,,,,,,,,,,,,,,,,,,,,,,
,,,,,,,,,,,,,,,,,61083d12d8c72b16cb135a6b,25,2022-02-12_13h24.41.122,lexical_decision_task_DD_L3,2021.2.3,Win32,59.91252771,,,,,,,,,,,0.6567,1,,,,,,,,,,,,,,m,1,0.6567,,,,,,,,0.206481481,-0.182407407,0,0,0,,0,98,98,82,1,SUNSET,C,old,m,./images/SUNSET.png,,,,,,,,,,,,,,,,,,,,,,,,,,,,,,,,,,,
,,,,,,,,,,,,,,,,,61083d12d8c72b16cb135a6b,25,2022-02-12_13h24.41.122,lexical_decision_task_DD_L3,2021.2.3,Win32,59.91252771,,,,,,,,,,,0.6985,1,,,,,,,,,,,,,,m,1,0.6985,,,,,,,,0.206481481,-0.182407407,0,0,0,,0,99,99,75,1,GRAIN,LB,old,m,./images/GRAINLB.png,,,,,,,,,,,,,,,,,,,,,,,,,,,,,,,,,,,
,,,,,,,,,,,,,,,,,61083d12d8c72b16cb135a6b,25,2022-02-12_13h24.41.122,lexical_decision_task_DD_L3,2021.2.3,Win32,59.91252771,,,,,,,,,,,0.5393,1,,,,,,,,,,,,,,m,1,0.5393,,,,,,,,0.206481481,-0.182407407,0,0,0,,0,100,100,7,1,PAINT,C,old,m,./images/PAINT.png,,,,,,,,,,,,,,,,,,,,,,,,,,,,,,,,,,,
,,,,,,,,,,,,,,,,,61083d12d8c72b16cb135a6b,25,2022-02-12_13h24.41.122,lexical_decision_task_DD_L3,2021.2.3,Win32,59.91252771,,,,,,,,,,,0.5527,1,,,,,,,,,,,,,,z,1,0.5527,,,,,,,,0.206481481,-0.182407407,0,0,0,,0,101,101,135,1,JOODY,C,old,z,./images/JOODY.png,,,,,,,,,,,,,,,,,,,,,,,,,,,,,,,,,,,
,,,,,,,,,,,,,,,,,61083d12d8c72b16cb135a6b,25,2022-02-12_13h24.41.122,lexical_decision_task_DD_L3,2021.2.3,Win32,59.91252771,,,,,,,,,,,0.5081,1,,,,,,,,,,,,,,z,1,0.5081,,,,,,,,0.206481481,-0.182407407,0,0,0,,0,102,102,119,1,PAFER,LB,old,z,./images/PAFERLB.png,,,,,,,,,,,,,,,,,,,,,,,,,,,,,,,,,,,
,,,,,,,,,,,,,,,,,61083d12d8c72b16cb135a6b,25,2022-02-12_13h24.41.122,lexical_decision_task_DD_L3,2021.2.3,Win32,59.91252771,,,,,,,,,,,0.6029,0,,,,,,,,,,,,,,m,0,0.6029,,,,,,,,0.206481481,-0.182407407,0,0,0,,0,103,103,166,1,SHORY,HB,old,z,./images/SHORYHB.png,,,,,,,,,,,,,,,,,,,,,,,,,,,,,,,,,,,
,,,,,,,,,,,,,,,,,61083d12d8c72b16cb135a6b,25,2022-02-12_13h24.41.122,lexical_decision_task_DD_L3,2021.2.3,Win32,59.91252771,,,,,,,,,,,0.5226,1,,,,,,,,,,,,,,z,1,0.5226,,,,,,,,0.206481481,-0.182407407,0,0,0,,0,104,104,111,1,HOSSE,C,old,z,./images/HOSSE.png,,,,,,,,,,,,,,,,,,,,,,,,,,,,,,,,,,,
,,,,,,,,,,,,,,,,,61083d12d8c72b16cb135a6b,25,2022-02-12_13h24.41.122,lexical_decision_task_DD_L3,2021.2.3,Win32,59.91252771,,,,,,,,,,,1.261,1,,,,,,,,,,,,,,m,1,1.261,,,,,,,,0.206481481,-0.182407407,0,0,0,,0,105,105,74,1,CEMENT,HB,old,m,./images/CEMENTHB.png,,,,,,,,,,,,,,,,,,,,,,,,,,,,,,,,,,,
,,,,,,,,,,,,,,,,,61083d12d8c72b16cb135a6b,25,2022-02-12_13h24.41.122,lexical_decision_task_DD_L3,2021.2.3,Win32,59.91252771,,,,,,,,,,,0.6941,1,,,,,,,,,,,,,,z,1,0.6941,,,,,,,,0.206481481,-0.182407407,0,0,0,,0,106,106,92,1,PAIMS,LB,old,z,./images/PAIMSLB.png,,,,,,,,,,,,,,,,,,,,,,,,,,,,,,,,,,,
,,,,,,,,,,,,,,,,,61083d12d8c72b16cb135a6b,25,2022-02-12_13h24.41.122,lexical_decision_task_DD_L3,2021.2.3,Win32,59.91252771,,,,,,,,,,,0.6298,1,,,,,,,,,,,,,,m,1,0.6298,,,,,,,,0.206481481,-0.182407407,0,0,0,,0,107,107,19,1,DOUGH,C,old,m,./images/DOUGH.png,,,,,,,,,,,,,,,,,,,,,,,,,,,,,,,,,,,
,,,,,,,,,,,,,,,,,61083d12d8c72b16cb135a6b,25,2022-02-12_13h24.41.122,lexical_decision_task_DD_L3,2021.2.3,Win32,59.91252771,,,,,,,,,,,0.5341,1,,,,,,,,,,,,,,m,1,0.5341,,,,,,,,0.206481481,-0.182407407,0,0,0,,0,108,108,63,1,MIRROR,LB,old,m,./images/MIRRORLB.png,,,,,,,,,,,,,,,,,,,,,,,,,,,,,,,,,,,
,,,,,,,,,,,,,,,,,61083d12d8c72b16cb135a6b,25,2022-02-12_13h24.41.122,lexical_decision_task_DD_L3,2021.2.3,Win32,59.91252771,,,,,,,,,,,0.5086,1,,,,,,,,,,,,,,m,1,0.5086,,,,,,,,0.206481481,-0.182407407,0,0,0,,0,109,109,61,1,CANDLE,C,old,m,./images/CANDLE.png,,,,,,,,,,,,,,,,,,,,,,,,,,,,,,,,,,,
,,,,,,,,,,,,,,,,,61083d12d8c72b16cb135a6b,25,2022-02-12_13h24.41.122,lexical_decision_task_DD_L3,2021.2.3,Win32,59.91252771,,,,,,,,,,,0.4384,1,,,,,,,,,,,,,,m,1,0.4384,,,,,,,,0.206481481,-0.182407407,0,0,0,,0,110,110,0,1,TOMATO,LB,old,m,./images/TOMATOLB.png,,,,,,,,,,,,,,,,,,,,,,,,,,,,,,,,,,,
,,,,,,,,,,,,,,,,,61083d12d8c72b16cb135a6b,25,2022-02-12_13h24.41.122,lexical_decision_task_DD_L3,2021.2.3,Win32,59.91252771,,,,,,,,,,,0.5861,0,,,,,,,,,,,,,,z,0,0.5861,,,,,,,,0.206481481,-0.182407407,0,0,0,,0,111,111,57,1,MOOSE,LB,old,m,./images/MOOSELB.png,,,,,,,,,,,,,,,,,,,,,,,,,,,,,,,,,,,
,,,,,,,,,,,,,,,,,61083d12d8c72b16cb135a6b,25,2022-02-12_13h24.41.122,lexical_decision_task_DD_L3,2021.2.3,Win32,59.91252771,,,,,,,,,,,0.5276,0,,,,,,,,,,,,,,z,0,0.5276,,,,,,,,0.206481481,-0.182407407,0,0,0,,0,112,112,60,1,TWINS,LB,old,m,./images/TWINSLB.png,,,,,,,,,,,,,,,,,,,,,,,,,,,,,,,,,,,
,,,,,,,,,,,,,,,,,61083d12d8c72b16cb135a6b,25,2022-02-12_13h24.41.122,lexical_decision_task_DD_L3,2021.2.3,Win32,59.91252771,,,,,,,,,,,0.764,0,,,,,,,,,,,,,,z,0,0.764,,,,,,,,0.206481481,-0.182407407,0,0,0,,0,113,113,50,1,MALLET,HB,old,m,./images/MALLETHB.png,,,,,,,,,,,,,,,,,,,,,,,,,,,,,,,,,,,
,,,,,,,,,,,,,,,,,61083d12d8c72b16cb135a6b,25,2022-02-12_13h24.41.122,lexical_decision_task_DD_L3,2021.2.3,Win32,59.91252771,,,,,,,,,,,0.7284,1,,,,,,,,,,,,,,z,1,0.7284,,,,,,,,0.206481481,-0.182407407,0,0,0,,0,114,114,103,1,FLORT,HB,old,z,./images/FLORTHB.png,,,,,,,,,,,,,,,,,,,,,,,,,,,,,,,,,,,
,,,,,,,,,,,,,,,,,61083d12d8c72b16cb135a6b,25,2022-02-12_13h24.41.122,lexical_decision_task_DD_L3,2021.2.3,Win32,59.91252771,,,,,,,,,,,0.486,1,,,,,,,,,,,,,,m,1,0.486,,,,,,,,0.206481481,-0.182407407,0,0,0,,0,115,115,3,1,FINGER,LB,old,m,./images/FINGERLB.png,,,,,,,,,,,,,,,,,,,,,,,,,,,,,,,,,,,
,,,,,,,,,,,,,,,,,61083d12d8c72b16cb135a6b,25,2022-02-12_13h24.41.122,lexical_decision_task_DD_L3,2021.2.3,Win32,59.91252771,,,,,,,,,,,0.8911,1,,,,,,,,,,,,,,m,1,0.8911,,,,,,,,0.206481481,-0.182407407,0,0,0,,0,116,116,8,1,TULIP,HB,old,m,./images/TULIPHB.png,,,,,,,,,,,,,,,,,,,,,,,,,,,,,,,,,,,
,,,,,,,,,,,,,,,,,61083d12d8c72b16cb135a6b,25,2022-02-12_13h24.41.122,lexical_decision_task_DD_L3,2021.2.3,Win32,59.91252771,,,,,,,,,,,1.3186,1,,,,,,,,,,,,,,z,1,1.3186,,,,,,,,0.206481481,-0.182407407,0,0,0,,0,117,117,136,1,WERVE,HB,old,z,./images/WERVEHB.png,,,,,,,,,,,,,,,,,,,,,,,,,,,,,,,,,,,
,,,,,,,,,,,,,,,,,61083d12d8c72b16cb135a6b,25,2022-02-12_13h24.41.122,lexical_decision_task_DD_L3,2021.2.3,Win32,59.91252771,,,,,,,,,,,0.7258,1,,,,,,,,,,,,,,z,1,0.7258,,,,,,,,0.206481481,-0.182407407,0,0,0,,0,118,118,87,1,TRING,C,old,z,./images/TRING.png,,,,,,,,,,,,,,,,,,,,,,,,,,,,,,,,,,,
,,,,,,,,,,,,,,,,,61083d12d8c72b16cb135a6b,25,2022-02-12_13h24.41.122,lexical_decision_task_DD_L3,2021.2.3,Win32,59.91252771,,,,,,,,,,,0.6822,0,,,,,,,,,,,,,,m,0,0.6822,,,,,,,,0.206481481,-0.182407407,0,0,0,,0,119,119,107,1,FASKS,LB,old,z,./images/FASKSLB.png,,,,,,,,,,,,,,,,,,,,,,,,,,,,,,,,,,,
,,,,,,,,,,,,,,,,,61083d12d8c72b16cb135a6b,25,2022-02-12_13h24.41.122,lexical_decision_task_DD_L3,2021.2.3,Win32,59.91252771,,,,,,,,,,,0.6509,1,,,,,,,,,,,,,,m,1,0.6509,,,,,,,,0.206481481,-0.182407407,0,0,0,,0,120,120,36,1,THROAT,LB,old,m,./images/THROATLB.png,,,,,,,,,,,,,,,,,,,,,,,,,,,,,,,,,,,
,,,,,,,,,,,,,,,,,61083d12d8c72b16cb135a6b,25,2022-02-12_13h24.41.122,lexical_decision_task_DD_L3,2021.2.3,Win32,59.91252771,,,,,,,,,,,0.9579,1,,,,,,,,,,,,,,z,1,0.9579,,,,,,,,0.206481481,-0.182407407,0,0,0,,0,121,121,85,1,CHULK,HB,old,z,./images/CHULKHB.png,,,,,,,,,,,,,,,,,,,,,,,,,,,,,,,,,,,
,,,,,,,,,,,,,,,,,61083d12d8c72b16cb135a6b,25,2022-02-12_13h24.41.122,lexical_decision_task_DD_L3,2021.2.3,Win32,59.91252771,,,,,,,,,,,0.641,1,,,,,,,,,,,,,,z,1,0.641,,,,,,,,0.206481481,-0.182407407,0,0,0,,0,122,122,86,1,AIFED,LB,old,z,./images/AIFEDLB.png,,,,,,,,,,,,,,,,,,,,,,,,,,,,,,,,,,,
,,,,,,,,,,,,,,,,,61083d12d8c72b16cb135a6b,25,2022-02-12_13h24.41.122,lexical_decision_task_DD_L3,2021.2.3,Win32,59.91252771,,,,,,,,,,,1.0144,1,,,,,,,,,,,,,,z,1,1.0144,,,,,,,,0.206481481,-0.182407407,0,0,0,,0,123,123,109,1,BURGE,HB,old,z,./images/BURGEHB.png,,,,,,,,,,,,,,,,,,,,,,,,,,,,,,,,,,,
,,,,,,,,,,,,,,,,,61083d12d8c72b16cb135a6b,25,2022-02-12_13h24.41.122,lexical_decision_task_DD_L3,2021.2.3,Win32,59.91252771,,,,,,,,,,,0.6091,1,,,,,,,,,,,,,,z,1,0.6091,,,,,,,,0.206481481,-0.182407407,0,0,0,,0,124,124,128,1,GRIFT,LB,old,z,./images/GRIFTLB.png,,,,,,,,,,,,,,,,,,,,,,,,,,,,,,,,,,,
,,,,,,,,,,,,,,,,,61083d12d8c72b16cb135a6b,25,2022-02-12_13h24.41.122,lexical_decision_task_DD_L3,2021.2.3,Win32,59.91252771,,,,,,,,,,,1.1672,1,,,,,,,,,,,,,,z,1,1.1672,,,,,,,,0.206481481,-0.182407407,0,0,0,space,0,125,125,127,1,NINDY,HB,old,z,./images/NINDYHB.png,19.9512,,,,,,,,,,,,,,,,,,,,,,,,,,,,,,,,,,
,,,,,,,,,,,,,,,,,61083d12d8c72b16cb135a6b,25,2022-02-12_13h24.41.122,lexical_decision_task_DD_L3,2021.2.3,Win32,59.91252771,,,,,,,,,,,0.7736,1,,,,,,,,,,,,,,m,1,0.7736,,,,,,,,0.206481481,-0.182407407,0,0,0,,0,126,126,28,1,FALCON,C,old,m,./images/FALCON.png,,,,,,,,,,,,,,,,,,,,,,,,,,,,,,,,,,,
,,,,,,,,,,,,,,,,,61083d12d8c72b16cb135a6b,25,2022-02-12_13h24.41.122,lexical_decision_task_DD_L3,2021.2.3,Win32,59.91252771,,,,,,,,,,,0.9094,1,,,,,,,,,,,,,,z,1,0.9094,,,,,,,,0.206481481,-0.182407407,0,0,0,,0,127,127,148,1,JOMS,HB,old,z,./images/JOMSHB.png,,,,,,,,,,,,,,,,,,,,,,,,,,,,,,,,,,,
,,,,,,,,,,,,,,,,,61083d12d8c72b16cb135a6b,25,2022-02-12_13h24.41.122,lexical_decision_task_DD_L3,2021.2.3,Win32,59.91252771,,,,,,,,,,,0.6512,1,,,,,,,,,,,,,,m,1,0.6512,,,,,,,,0.206481481,-0.182407407,0,0,0,,0,128,128,73,1,SNACK,C,old,m,./images/SNACK.png,,,,,,,,,,,,,,,,,,,,,,,,,,,,,,,,,,,
,,,,,,,,,,,,,,,,,61083d12d8c72b16cb135a6b,25,2022-02-12_13h24.41.122,lexical_decision_task_DD_L3,2021.2.3,Win32,59.91252771,,,,,,,,,,,0.696,1,,,,,,,,,,,,,,m,1,0.696,,,,,,,,0.206481481,-0.182407407,0,0,0,,0,129,129,77,1,COUCH,HB,old,m,./images/COUCHHB.png,,,,,,,,,,,,,,,,,,,,,,,,,,,,,,,,,,,
,,,,,,,,,,,,,,,,,61083d12d8c72b16cb135a6b,25,2022-02-12_13h24.41.122,lexical_decision_task_DD_L3,2021.2.3,Win32,59.91252771,,,,,,,,,,,0.5878,1,,,,,,,,,,,,,,m,1,0.5878,,,,,,,,0.206481481,-0.182407407,0,0,0,,0,130,130,23,1,WALRUS,HB,old,m,./images/WALRUSHB.png,,,,,,,,,,,,,,,,,,,,,,,,,,,,,,,,,,,
,,,,,,,,,,,,,,,,,61083d12d8c72b16cb135a6b,25,2022-02-12_13h24.41.122,lexical_decision_task_DD_L3,2021.2.3,Win32,59.91252771,,,,,,,,,,,0.6284,1,,,,,,,,,,,,,,z,1,0.6284,,,,,,,,0.206481481,-0.182407407,0,0,0,,0,131,131,152,1,FRAIN,LB,old,z,./images/FRAINLB.png,,,,,,,,,,,,,,,,,,,,,,,,,,,,,,,,,,,
,,,,,,,,,,,,,,,,,61083d12d8c72b16cb135a6b,25,2022-02-12_13h24.41.122,lexical_decision_task_DD_L3,2021.2.3,Win32,59.91252771,,,,,,,,,,,0.6263,1,,,,,,,,,,,,,,m,1,0.6263,,,,,,,,0.206481481,-0.182407407,0,0,0,,0,132,132,52,1,BANNER,C,old,m,./images/BANNER.png,,,,,,,,,,,,,,,,,,,,,,,,,,,,,,,,,,,
,,,,,,,,,,,,,,,,,61083d12d8c72b16cb135a6b,25,2022-02-12_13h24.41.122,lexical_decision_task_DD_L3,2021.2.3,Win32,59.91252771,,,,,,,,,,,0.8527,1,,,,,,,,,,,,,,m,1,0.8527,,,,,,,,0.206481481,-0.182407407,0,0,0,,0,133,133,20,1,CRADLE,HB,old,m,./images/CRADLEHB.png,,,,,,,,,,,,,,,,,,,,,,,,,,,,,,,,,,,
,,,,,,,,,,,,,,,,,61083d12d8c72b16cb135a6b,25,2022-02-12_13h24.41.122,lexical_decision_task_DD_L3,2021.2.3,Win32,59.91252771,,,,,,,,,,,0.6977,1,,,,,,,,,,,,,,z,1,0.6977,,,,,,,,0.206481481,-0.182407407,0,0,0,,0,134,134,84,1,HAXES,C,old,z,./images/HAXES.png,,,,,,,,,,,,,,,,,,,,,,,,,,,,,,,,,,,
,,,,,,,,,,,,,,,,,61083d12d8c72b16cb135a6b,25,2022-02-12_13h24.41.122,lexical_decision_task_DD_L3,2021.2.3,Win32,59.91252771,,,,,,,,,,,0.9246,1,,,,,,,,,,,,,,z,1,0.9246,,,,,,,,0.206481481,-0.182407407,0,0,0,,0,135,135,122,1,BLOOT,LB,old,z,./images/BLOOTLB.png,,,,,,,,,,,,,,,,,,,,,,,,,,,,,,,,,,,
,,,,,,,,,,,,,,,,,61083d12d8c72b16cb135a6b,25,2022-02-12_13h24.41.122,lexical_decision_task_DD_L3,2021.2.3,Win32,59.91252771,,,,,,,,,,,0.5669,1,,,,,,,,,,,,,,m,1,0.5669,,,,,,,,0.206481481,-0.182407407,0,0,0,,0,136,136,79,1,CRUST,C,old,m,./images/CRUST.png,,,,,,,,,,,,,,,,,,,,,,,,,,,,,,,,,,,
,,,,,,,,,,,,,,,,,61083d12d8c72b16cb135a6b,25,2022-02-12_13h24.41.122,lexical_decision_task_DD_L3,2021.2.3,Win32,59.91252771,,,,,,,,,,,0.8187,1,,,,,,,,,,,,,,m,1,0.8187,,,,,,,,0.206481481,-0.182407407,0,0,0,,0,137,137,81,1,POODLE,LB,old,m,./images/POODLELB.png,,,,,,,,,,,,,,,,,,,,,,,,,,,,,,,,,,,
,,,,,,,,,,,,,,,,,61083d12d8c72b16cb135a6b,25,2022-02-12_13h24.41.122,lexical_decision_task_DD_L3,2021.2.3,Win32,59.91252771,,,,,,,,,,,0.7636,1,,,,,,,,,,,,,,z,1,0.7636,,,,,,,,0.206481481,-0.182407407,0,0,0,,0,138,138,117,1,STEEG,C,old,z,./images/STEEG.png,,,,,,,,,,,,,,,,,,,,,,,,,,,,,,,,,,,
,,,,,,,,,,,,,,,,,61083d12d8c72b16cb135a6b,25,2022-02-12_13h24.41.122,lexical_decision_task_DD_L3,2021.2.3,Win32,59.91252771,,,,,,,,,,,0.7584,1,,,,,,,,,,,,,,z,1,0.7584,,,,,,,,0.206481481,-0.182407407,0,0,0,,0,139,139,125,1,MOOKY,LB,old,z,./images/MOOKYLB.png,,,,,,,,,,,,,,,,,,,,,,,,,,,,,,,,,,,
,,,,,,,,,,,,,,,,,61083d12d8c72b16cb135a6b,25,2022-02-12_13h24.41.122,lexical_decision_task_DD_L3,2021.2.3,Win32,59.91252771,,,,,,,,,,,0.6167,1,,,,,,,,,,,,,,m,1,0.6167,,,,,,,,0.206481481,-0.182407407,0,0,0,,0,140,140,55,1,MUFFIN,C,old,m,./images/MUFFIN.png,,,,,,,,,,,,,,,,,,,,,,,,,,,,,,,,,,,
,,,,,,,,,,,,,,,,,61083d12d8c72b16cb135a6b,25,2022-02-12_13h24.41.122,lexical_decision_task_DD_L3,2021.2.3,Win32,59.91252771,,,,,,,,,,,1.61,1,,,,,,,,,,,,,,m,1,1.61,,,,,,,,0.206481481,-0.182407407,0,0,0,,0,141,141,71,1,PIMPLE,HB,old,m,./images/PIMPLEHB.png,,,,,,,,,,,,,,,,,,,,,,,,,,,,,,,,,,,
,,,,,,,,,,,,,,,,,61083d12d8c72b16cb135a6b,25,2022-02-12_13h24.41.122,lexical_decision_task_DD_L3,2021.2.3,Win32,59.91252771,,,,,,,,,,,0.7284,1,,,,,,,,,,,,,,z,1,0.7284,,,,,,,,0.206481481,-0.182407407,0,0,0,,0,142,142,94,1,BLANS,HB,old,z,./images/BLANSHB.png,,,,,,,,,,,,,,,,,,,,,,,,,,,,,,,,,,,
,,,,,,,,,,,,,,,,,61083d12d8c72b16cb135a6b,25,2022-02-12_13h24.41.122,lexical_decision_task_DD_L3,2021.2.3,Win32,59.91252771,,,,,,,,,,,0.8114,1,,,,,,,,,,,,,,m,1,0.8114,,,,,,,,0.206481481,-0.182407407,0,0,0,,0,143,143,27,1,ATTIC,LB,old,m,./images/ATTICLB.png,,,,,,,,,,,,,,,,,,,,,,,,,,,,,,,,,,,
,,,,,,,,,,,,,,,,,61083d12d8c72b16cb135a6b,25,2022-02-12_13h24.41.122,lexical_decision_task_DD_L3,2021.2.3,Win32,59.91252771,,,,,,,,,,,0.7179,1,,,,,,,,,,,,,,m,1,0.7179,,,,,,,,0.206481481,-0.182407407,0,0,0,,0,144,144,46,1,PEARL,C,old,m,./images/PEARL.png,,,,,,,,,,,,,,,,,,,,,,,,,,,,,,,,,,,
,,,,,,,,,,,,,,,,,61083d12d8c72b16cb135a6b,25,2022-02-12_13h24.41.122,lexical_decision_task_DD_L3,2021.2.3,Win32,59.91252771,,,,,,,,,,,0.5574,1,,,,,,,,,,,,,,m,1,0.5574,,,,,,,,0.206481481,-0.182407407,0,0,0,,0,145,145,40,1,SWING,C,old,m,./images/SWING.png,,,,,,,,,,,,,,,,,,,,,,,,,,,,,,,,,,,
,,,,,,,,,,,,,,,,,61083d12d8c72b16cb135a6b,25,2022-02-12_13h24.41.122,lexical_decision_task_DD_L3,2021.2.3,Win32,59.91252771,,,,,,,,,,,0.6776,1,,,,,,,,,,,,,,z,1,0.6776,,,,,,,,0.206481481,-0.182407407,0,0,0,,0,146,146,164,1,SGREW,LB,old,z,./images/SGREWLB.png,,,,,,,,,,,,,,,,,,,,,,,,,,,,,,,,,,,
,,,,,,,,,,,,,,,,,61083d12d8c72b16cb135a6b,25,2022-02-12_13h24.41.122,lexical_decision_task_DD_L3,2021.2.3,Win32,59.91252771,,,,,,,,,,,0.6968,1,,,,,,,,,,,,,,z,1,0.6968,,,,,,,,0.206481481,-0.182407407,0,0,0,,0,147,147,155,1,CANGY,LB,old,z,./images/CANGYLB.png,,,,,,,,,,,,,,,,,,,,,,,,,,,,,,,,,,,
,,,,,,,,,,,,,,,,,61083d12d8c72b16cb135a6b,25,2022-02-12_13h24.41.122,lexical_decision_task_DD_L3,2021.2.3,Win32,59.91252771,,,,,,,,,,,1.0988,1,,,,,,,,,,,,,,z,1,1.0988,,,,,,,,0.206481481,-0.182407407,0,0,0,,0,148,148,154,1,THINT,HB,old,z,./images/THINTHB.png,,,,,,,,,,,,,,,,,,,,,,,,,,,,,,,,,,,
,,,,,,,,,,,,,,,,,61083d12d8c72b16cb135a6b,25,2022-02-12_13h24.41.122,lexical_decision_task_DD_L3,2021.2.3,Win32,59.91252771,,,,,,,,,,,0.558,1,,,,,,,,,,,,,,m,1,0.558,,,,,,,,0.206481481,-0.182407407,0,0,0,,0,149,149,15,1,GREASE,LB,old,m,./images/GREASELB.png,,,,,,,,,,,,,,,,,,,,,,,,,,,,,,,,,,,
,,,,,,,,,,,,,,,,,61083d12d8c72b16cb135a6b,25,2022-02-12_13h24.41.122,lexical_decision_task_DD_L3,2021.2.3,Win32,59.91252771,,,,,,,,,,,0.7908,1,,,,,,,,,,,,,,m,1,0.7908,,,,,,,,0.206481481,-0.182407407,0,0,0,,0,150,150,54,1,TRIPOD,LB,old,m,./images/TRIPODLB.png,,,,,,,,,,,,,,,,,,,,,,,,,,,,,,,,,,,
,,,,,,,,,,,,,,,,,61083d12d8c72b16cb135a6b,25,2022-02-12_13h24.41.122,lexical_decision_task_DD_L3,2021.2.3,Win32,59.91252771,,,,,,,,,,,0.5729,1,,,,,,,,,,,,,,z,1,0.5729,,,,,,,,0.206481481,-0.182407407,0,0,0,,0,151,151,96,1,KEAMS,C,old,z,./images/KEAMS.png,,,,,,,,,,,,,,,,,,,,,,,,,,,,,,,,,,,
,,,,,,,,,,,,,,,,,61083d12d8c72b16cb135a6b,25,2022-02-12_13h24.41.122,lexical_decision_task_DD_L3,2021.2.3,Win32,59.91252771,,,,,,,,,,,1.3279,1,,,,,,,,,,,,,,z,1,1.3279,,,,,,,,0.206481481,-0.182407407,0,0,0,,0,152,152,163,1,GAMBA,HB,old,z,./images/GAMBAHB.png,,,,,,,,,,,,,,,,,,,,,,,,,,,,,,,,,,,
,,,,,,,,,,,,,,,,,61083d12d8c72b16cb135a6b,25,2022-02-12_13h24.41.122,lexical_decision_task_DD_L3,2021.2.3,Win32,59.91252771,,,,,,,,,,,0.8181,1,,,,,,,,,,,,,,z,1,0.8181,,,,,,,,0.206481481,-0.182407407,0,0,0,,0,153,153,88,1,GLUSH,HB,old,z,./images/GLUSHHB.png,,,,,,,,,,,,,,,,,,,,,,,,,,,,,,,,,,,
,,,,,,,,,,,,,,,,,61083d12d8c72b16cb135a6b,25,2022-02-12_13h24.41.122,lexical_decision_task_DD_L3,2021.2.3,Win32,59.91252771,,,,,,,,,,,0.7776,1,,,,,,,,,,,,,,z,1,0.7776,,,,,,,,0.206481481,-0.182407407,0,0,0,,0,154,154,157,1,INLER,HB,old,z,./images/INLERHB.png,,,,,,,,,,,,,,,,,,,,,,,,,,,,,,,,,,,
,,,,,,,,,,,,,,,,,61083d12d8c72b16cb135a6b,25,2022-02-12_13h24.41.122,lexical_decision_task_DD_L3,2021.2.3,Win32,59.91252771,,,,,,,,,,,0.6749,1,,,,,,,,,,,,,,z,1,0.6749,,,,,,,,0.206481481,-0.182407407,0,0,0,,0,155,155,131,1,NACES,LB,old,z,./images/NACESLB.png,,,,,,,,,,,,,,,,,,,,,,,,,,,,,,,,,,,
,,,,,,,,,,,,,,,,,61083d12d8c72b16cb135a6b,25,2022-02-12_13h24.41.122,lexical_decision_task_DD_L3,2021.2.3,Win32,59.91252771,,,,,,,,,,,1.1759,1,,,,,,,,,,,,,,z,1,1.1759,,,,,,,,0.206481481,-0.182407407,0,0,0,,0,156,156,165,1,TROWN,C,old,z,./images/TROWN.png,,,,,,,,,,,,,,,,,,,,,,,,,,,,,,,,,,,
,,,,,,,,,,,,,,,,,61083d12d8c72b16cb135a6b,25,2022-02-12_13h24.41.122,lexical_decision_task_DD_L3,2021.2.3,Win32,59.91252771,,,,,,,,,,,1.2402,1,,,,,,,,,,,,,,z,1,1.2402,,,,,,,,0.206481481,-0.182407407,0,0,0,,0,157,157,142,1,PLASK,HB,old,z,./images/PLASKHB.png,,,,,,,,,,,,,,,,,,,,,,,,,,,,,,,,,,,
,,,,,,,,,,,,,,,,,61083d12d8c72b16cb135a6b,25,2022-02-12_13h24.41.122,lexical_decision_task_DD_L3,2021.2.3,Win32,59.91252771,,,,,,,,,,,0.5994,1,,,,,,,,,,,,,,z,1,0.5994,,,,,,,,0.206481481,-0.182407407,0,0,0,,0,158,158,123,1,SEDGE,C,old,z,./images/SEDGE.png,,,,,,,,,,,,,,,,,,,,,,,,,,,,,,,,,,,
,,,,,,,,,,,,,,,,,61083d12d8c72b16cb135a6b,25,2022-02-12_13h24.41.122,lexical_decision_task_DD_L3,2021.2.3,Win32,59.91252771,,,,,,,,,,,0.7412,1,,,,,,,,,,,,,,z,1,0.7412,,,,,,,,0.206481481,-0.182407407,0,0,0,,0,159,159,158,1,EGECT,LB,old,z,./images/EGECTLB.png,,,,,,,,,,,,,,,,,,,,,,,,,,,,,,,,,,,
,,,,,,,,,,,,,,,,,61083d12d8c72b16cb135a6b,25,2022-02-12_13h24.41.122,lexical_decision_task_DD_L3,2021.2.3,Win32,59.91252771,,,,,,,,,,,0.5987,1,,,,,,,,,,,,,,m,1,0.5987,,,,,,,,0.206481481,-0.182407407,0,0,0,,0,160,160,22,1,MELON,C,old,m,./images/MELON.png,,,,,,,,,,,,,,,,,,,,,,,,,,,,,,,,,,,
,,,,,,,,,,,,,,,,,61083d12d8c72b16cb135a6b,25,2022-02-12_13h24.41.122,lexical_decision_task_DD_L3,2021.2.3,Win32,59.91252771,,,,,,,,,,,0.5752,1,,,,,,,,,,,,,,z,1,0.5752,,,,,,,,0.206481481,-0.182407407,0,0,0,,0,161,161,89,1,DRIEK,LB,old,z,./images/DRIEKLB.png,,,,,,,,,,,,,,,,,,,,,,,,,,,,,,,,,,,
,,,,,,,,,,,,,,,,,61083d12d8c72b16cb135a6b,25,2022-02-12_13h24.41.122,lexical_decision_task_DD_L3,2021.2.3,Win32,59.91252771,,,,,,,,,,,1.0808,1,,,,,,,,,,,,,,z,1,1.0808,,,,,,,,0.206481481,-0.182407407,0,0,0,,0,162,162,160,1,VEETS,HB,old,z,./images/VEETSHB.png,,,,,,,,,,,,,,,,,,,,,,,,,,,,,,,,,,,
,,,,,,,,,,,,,,,,,61083d12d8c72b16cb135a6b,25,2022-02-12_13h24.41.122,lexical_decision_task_DD_L3,2021.2.3,Win32,59.91252771,,,,,,,,,,,1.2327,1,,,,,,,,,,,,,,m,1,1.2327,,,,,,,,0.206481481,-0.182407407,0,0,0,,0,163,163,26,1,SMOKER,HB,old,m,./images/SMOKERHB.png,,,,,,,,,,,,,,,,,,,,,,,,,,,,,,,,,,,
,,,,,,,,,,,,,,,,,61083d12d8c72b16cb135a6b,25,2022-02-12_13h24.41.122,lexical_decision_task_DD_L3,2021.2.3,Win32,59.91252771,,,,,,,,,,,0.6284,1,,,,,,,,,,,,,,z,1,0.6284,,,,,,,,0.206481481,-0.182407407,0,0,0,,0,164,164,95,1,HANTY,LB,old,z,./images/HANTYLB.png,,,,,,,,,,,,,,,,,,,,,,,,,,,,,,,,,,,
,,,,,,,,,,,,,,,,,61083d12d8c72b16cb135a6b,25,2022-02-12_13h24.41.122,lexical_decision_task_DD_L3,2021.2.3,Win32,59.91252771,,,,,,,,,,,0.6412,1,,,,,,,,,,,,,,z,1,0.6412,,,,,,,,0.206481481,-0.182407407,0,0,0,,0,165,165,144,1,NAIRY,C,old,z,./images/NAIRY.png,,,,,,,,,,,,,,,,,,,,,,,,,,,,,,,,,,,
,,,,,,,,,,,,,,,,,61083d12d8c72b16cb135a6b,25,2022-02-12_13h24.41.122,lexical_decision_task_DD_L3,2021.2.3,Win32,59.91252771,,,,,,,,,,,1.0508,1,,,,,,,,,,,,,,m,1,1.0508,,,,,,,,0.206481481,-0.182407407,0,0,0,,0,166,166,69,1,COOKER,LB,old,m,./images/COOKERLB.png,,,,,,,,,,,,,,,,,,,,,,,,,,,,,,,,,,,
,,,,,,,,,,,,,,,,,61083d12d8c72b16cb135a6b,25,2022-02-12_13h24.41.122,lexical_decision_task_DD_L3,2021.2.3,Win32,59.91252771,,,,,,,,,,,0.8458,1,,,,,,,,,,,,,,m,1,0.8458,,,,,,,,0.206481481,-0.182407407,0,0,0,,0,167,167,56,1,PACKET,HB,old,m,./images/PACKETHB.png,,,,,,,,,,,,,,,,,,,,,,,,,,,,,,,,,,,
,,,,,,,,,,,,,,,,,61083d12d8c72b16cb135a6b,25,2022-02-12_13h24.41.122,lexical_decision_task_DD_L3,2021.2.3,Win32,59.91252771,,,,,,,,,,,,,,,,,,,,,,,,,,,,,,,,,,,,,,,,,,,,,,,,How likely will it be that you will recognize the words presented clearly on a scale of 0 (not likely) to 100 (most likely)?,,,,,-0.012037037,-0.419444444,1,0,0,jol_adv,5,10.6979,0,0,0,0,1,,,,,,,,,,,,,,,,,,,,,
,,,,,,,,,,,,,,,,,61083d12d8c72b16cb135a6b,25,2022-02-12_13h24.41.122,lexical_decision_task_DD_L3,2021.2.3,Win32,59.91252771,,,,,,,,,,,,,,,,,,,,,,,,,,,,,,,,,,,,,,,,,,,,,,,,How likely will it be that you will recognize the words presented very blurred on a scale of 0 (not likely) to 100 (most likely)?,,,,,,,,,,,1,4.223,0,1,1,2,1,,,,,,,,,,,,,,,,,,,,,
,,,,,,,,,,,,,,,,,61083d12d8c72b16cb135a6b,25,2022-02-12_13h24.41.122,lexical_decision_task_DD_L3,2021.2.3,Win32,59.91252771,,,,,,,,,,,,,,,,,,,,,,,,,,,,,,,,,,,,,,,,,,,,,,,,How likely will it be that you will recognize the words presented slighly blurred on a scale of 0 (not likely) to 100 (most likely)?,,,,,,,,,,,4,5.4969,0,2,2,1,1,,,,,,,,,,,,,,,,,,,,,
,,0.031481481,-0.382407407,1,0,0,,,,,,1,test,"In the next phase you will be presented with the words from the the first phase. Your job is to decide whether you remember seeing the word or not. If you remember seeing the word press ""old"" or type ""m"". If you do not remember seeing the word press ""new"" or type ""z"". Please press the space bar or click on continue to begin. ",,,61083d12d8c72b16cb135a6b,25,2022-02-12_13h24.41.122,lexical_decision_task_DD_L3,2021.2.3,Win32,59.91252771,,,,,,,,,,,,,,,,,,,,,,,,,,,,,,,,,,,,,,,,,,,,,,,,,,,,,,,,,,,,,,,,,,instr_done_button,0,0,0,0,1,,,,,,,,,,,,,,,
space,1.8337,0.031481481,-0.382407407,0,0,0,,,,,,1,test,"In the next phase you will be presented with the words from the the first phase. Your job is to decide whether you remember seeing the word or not. If you remember seeing the word press ""old"" or type ""m"". If you do not remember seeing the word press ""new"" or type ""z"". Please press the space bar or click on continue to begin. ",,,61083d12d8c72b16cb135a6b,25,2022-02-12_13h24.41.122,lexical_decision_task_DD_L3,2021.2.3,Win32,59.91252771,,,,,,,,,,,,,,,,,,,,,,,,,,,,,,,,,,,,,,,,,,,,,,,,,,,,,,,,,,,,,,,,,,,1,0,1,0,1,,,,,,,,,,,,,,,
,,0.092592593,-0.390740741,1,0,0,,,,,,1,test,"In the next phase you will be presented with the words from the the first phase. Your job is to decide whether you remember seeing the word or not. If you remember seeing the word press ""old"" or type ""m"". If you do not remember seeing the word press ""new"" or type ""z"". Please press the space bar or click on continue to begin. ",,,61083d12d8c72b16cb135a6b,25,2022-02-12_13h24.41.122,lexical_decision_task_DD_L3,2021.2.3,Win32,59.91252771,,,,,,,,,,,,,,,,,,,,,,,,,,,,,,,,,,,,,,,,,,,,,,,,,,,,,,,,,,,,,,,,,,instr_done_button,2,0,2,0,1,,,,,,,,,,,,,,,
space,1.482,0.073148148,-0.283333333,0,0,0,,,,,,1,test,"In the next phase you will be presented with the words from the the first phase. Your job is to decide whether you remember seeing the word or not. If you remember seeing the word press ""old"" or type ""m"". If you do not remember seeing the word press ""new"" or type ""z"". Please press the space bar or click on continue to begin. ",,,61083d12d8c72b16cb135a6b,25,2022-02-12_13h24.41.122,lexical_decision_task_DD_L3,2021.2.3,Win32,59.91252771,,,,,,,,,,,,,,,,,,,,,,,,,,,,,,,,,,,,,,,,,,,,,,,,,,,,,,,,,,,,,,,,,,,3,0,3,0,1,,,,,,,,,,,,,,,
,,0.009259259,-0.388888889,1,0,0,,,,,,1,test,"In the next phase you will be presented with the words from the the first phase. Your job is to decide whether you remember seeing the word or not. If you remember seeing the word press ""old"" or type ""m"". If you do not remember seeing the word press ""new"" or type ""z"". Please press the space bar or click on continue to begin. ",,,61083d12d8c72b16cb135a6b,25,2022-02-12_13h24.41.122,lexical_decision_task_DD_L3,2021.2.3,Win32,59.91252771,,,,,,,,,,,,,,,,,,,,,,,,,,,,,,,,,,,,,,,,,,,,,,,,,,,,,,,,,,,,,,,,,,instr_done_button,4,0,4,0,1,,,,,,,,,,,,,,,
,,,,,,,,,,,,,,,,,61083d12d8c72b16cb135a6b,25,2022-02-12_13h24.41.122,lexical_decision_task_DD_L3,2021.2.3,Win32,59.91252771,,,,,,,,,,,2.3527,0,,,,,,,,,,,,,,,,,,,,,,,,0.009259259,-0.388888889,0,0,0,,,,,,,TORCH,HB,m,m,./images/TORCHHB.png,,,,,,,,,,,,,,,,,,,,,z,0,2.3527,,,,,,,,0,0,0,68,1
,,,,,,,,,,,,,,,,,61083d12d8c72b16cb135a6b,25,2022-02-12_13h24.41.122,lexical_decision_task_DD_L3,2021.2.3,Win32,59.91252771,,,,,,,,,,,1.6628,0,,,,,,,,,,,,,,,,,,,,,,,,0.009259259,-0.388888889,0,0,0,,,,,,,POKER,C,z,m,./images/POKER.png,,,,,,,,,,,,,,,,,,,,,m,0,1.6628,,,,,,,,0,1,1,151,1
,,,,,,,,,,,,,,,,,61083d12d8c72b16cb135a6b,25,2022-02-12_13h24.41.122,lexical_decision_task_DD_L3,2021.2.3,Win32,59.91252771,,,,,,,,,,,1.461,1,,,,,,,,,,,,,,,,,,,,,,,,0.009259259,-0.388888889,0,0,0,,,,,,,PEBBLE,C,z,m,./images/PEBBLE.png,,,,,,,,,,,,,,,,,,,,,z,1,1.461,,,,,,,,0,2,2,166,1
,,,,,,,,,,,,,,,,,61083d12d8c72b16cb135a6b,25,2022-02-12_13h24.41.122,lexical_decision_task_DD_L3,2021.2.3,Win32,59.91252771,,,,,,,,,,,0.8659,1,,,,,,,,,,,,,,,,,,,,,,,,0.009259259,-0.388888889,0,0,0,,,,,,,TULIP,HB,m,m,./images/TULIPHB.png,,,,,,,,,,,,,,,,,,,,,m,1,0.8659,,,,,,,,0,3,3,8,1
,,,,,,,,,,,,,,,,,61083d12d8c72b16cb135a6b,25,2022-02-12_13h24.41.122,lexical_decision_task_DD_L3,2021.2.3,Win32,59.91252771,,,,,,,,,,,1.6982,1,,,,,,,,,,,,,,,,,,,,,,,,0.009259259,-0.388888889,0,0,0,,,,,,,SPINE,HB,z,m,./images/SPINEHB.png,,,,,,,,,,,,,,,,,,,,,z,1,1.6982,,,,,,,,0,4,4,149,1
,,,,,,,,,,,,,,,,,61083d12d8c72b16cb135a6b,25,2022-02-12_13h24.41.122,lexical_decision_task_DD_L3,2021.2.3,Win32,59.91252771,,,,,,,,,,,0.6817,1,,,,,,,,,,,,,,,,,,,,,,,,0.009259259,-0.388888889,0,0,0,,,,,,,LITTER,LB,m,m,./images/LITTERLB.png,,,,,,,,,,,,,,,,,,,,,m,1,0.6817,,,,,,,,0,5,5,78,1
,,,,,,,,,,,,,,,,,61083d12d8c72b16cb135a6b,25,2022-02-12_13h24.41.122,lexical_decision_task_DD_L3,2021.2.3,Win32,59.91252771,,,,,,,,,,,0.8614,0,,,,,,,,,,,,,,,,,,,,,,,,0.009259259,-0.388888889,0,0,0,,,,,,,STAIN,LB,z,m,./images/STAINLB.png,,,,,,,,,,,,,,,,,,,,,m,0,0.8614,,,,,,,,0,6,6,90,1
,,,,,,,,,,,,,,,,,61083d12d8c72b16cb135a6b,25,2022-02-12_13h24.41.122,lexical_decision_task_DD_L3,2021.2.3,Win32,59.91252771,,,,,,,,,,,0.8392,1,,,,,,,,,,,,,,,,,,,,,,,,0.009259259,-0.388888889,0,0,0,,,,,,,JELLY,C,m,m,./images/JELLY.png,,,,,,,,,,,,,,,,,,,,,m,1,0.8392,,,,,,,,0,7,7,64,1
,,,,,,,,,,,,,,,,,61083d12d8c72b16cb135a6b,25,2022-02-12_13h24.41.122,lexical_decision_task_DD_L3,2021.2.3,Win32,59.91252771,,,,,,,,,,,0.6793,1,,,,,,,,,,,,,,,,,,,,,,,,0.009259259,-0.388888889,0,0,0,,,,,,,COOKER,LB,m,m,./images/COOKERLB.png,,,,,,,,,,,,,,,,,,,,,m,1,0.6793,,,,,,,,0,8,8,69,1
,,,,,,,,,,,,,,,,,61083d12d8c72b16cb135a6b,25,2022-02-12_13h24.41.122,lexical_decision_task_DD_L3,2021.2.3,Win32,59.91252771,,,,,,,,,,,2.6474,1,,,,,,,,,,,,,,,,,,,,,,,,0.009259259,-0.388888889,0,0,0,,,,,,,CASINO,C,z,m,./images/CASINO.png,,,,,,,,,,,,,,,,,,,,,z,1,2.6474,,,,,,,,0,9,9,112,1
,,,,,,,,,,,,,,,,,61083d12d8c72b16cb135a6b,25,2022-02-12_13h24.41.122,lexical_decision_task_DD_L3,2021.2.3,Win32,59.91252771,,,,,,,,,,,1.632,1,,,,,,,,,,,,,,,,,,,,,,,,0.009259259,-0.388888889,0,0,0,,,,,,,ARTIST,C,z,m,./images/ARTIST.png,,,,,,,,,,,,,,,,,,,,,z,1,1.632,,,,,,,,0,10,10,145,1
,,,,,,,,,,,,,,,,,61083d12d8c72b16cb135a6b,25,2022-02-12_13h24.41.122,lexical_decision_task_DD_L3,2021.2.3,Win32,59.91252771,,,,,,,,,,,1.2144,1,,,,,,,,,,,,,,,,,,,,,,,,0.009259259,-0.388888889,0,0,0,,,,,,,WRIST,C,m,m,./images/WRIST.png,,,,,,,,,,,,,,,,,,,,,m,1,1.2144,,,,,,,,0,11,11,25,1
,,,,,,,,,,,,,,,,,61083d12d8c72b16cb135a6b,25,2022-02-12_13h24.41.122,lexical_decision_task_DD_L3,2021.2.3,Win32,59.91252771,,,,,,,,,,,0.9982,1,,,,,,,,,,,,,,,,,,,,,,,,0.009259259,-0.388888889,0,0,0,,,,,,,GRAIN,LB,m,m,./images/GRAINLB.png,,,,,,,,,,,,,,,,,,,,,m,1,0.9982,,,,,,,,0,12,12,75,1
,,,,,,,,,,,,,,,,,61083d12d8c72b16cb135a6b,25,2022-02-12_13h24.41.122,lexical_decision_task_DD_L3,2021.2.3,Win32,59.91252771,,,,,,,,,,,4.166,1,,,,,,,,,,,,,,,,,,,,,,,,0.009259259,-0.388888889,0,0,0,,,,,,,SCREW,LB,m,m,./images/SCREWLB.png,,,,,,,,,,,,,,,,,,,,,m,1,4.166,,,,,,,,0,13,13,24,1
,,,,,,,,,,,,,,,,,61083d12d8c72b16cb135a6b,25,2022-02-12_13h24.41.122,lexical_decision_task_DD_L3,2021.2.3,Win32,59.91252771,,,,,,,,,,,3.4296,1,,,,,,,,,,,,,,,,,,,,,,,,0.009259259,-0.388888889,0,0,0,,,,,,,GRAPE,C,z,m,./images/GRAPE.png,,,,,,,,,,,,,,,,,,,,,z,1,3.4296,,,,,,,,0,14,14,100,1
,,,,,,,,,,,,,,,,,61083d12d8c72b16cb135a6b,25,2022-02-12_13h24.41.122,lexical_decision_task_DD_L3,2021.2.3,Win32,59.91252771,,,,,,,,,,,0.728,0,,,,,,,,,,,,,,,,,,,,,,,,0.009259259,-0.388888889,0,0,0,,,,,,,BAMBOO,HB,z,m,./images/BAMBOOHB.png,,,,,,,,,,,,,,,,,,,,,m,0,0.728,,,,,,,,0,15,15,89,1
,,,,,,,,,,,,,,,,,61083d12d8c72b16cb135a6b,25,2022-02-12_13h24.41.122,lexical_decision_task_DD_L3,2021.2.3,Win32,59.91252771,,,,,,,,,,,0.6746,0,,,,,,,,,,,,,,,,,,,,,,,,0.009259259,-0.388888889,0,0,0,,,,,,,MUMMY,C,z,m,./images/MUMMY.png,,,,,,,,,,,,,,,,,,,,,m,0,0.6746,,,,,,,,0,16,16,130,1
,,,,,,,,,,,,,,,,,61083d12d8c72b16cb135a6b,25,2022-02-12_13h24.41.122,lexical_decision_task_DD_L3,2021.2.3,Win32,59.91252771,,,,,,,,,,,1.1624,1,,,,,,,,,,,,,,,,,,,,,,,,0.009259259,-0.388888889,0,0,0,,,,,,,SLOPE,LB,z,m,./images/SLOPELB.png,,,,,,,,,,,,,,,,,,,,,z,1,1.1624,,,,,,,,0,17,17,114,1
,,,,,,,,,,,,,,,,,61083d12d8c72b16cb135a6b,25,2022-02-12_13h24.41.122,lexical_decision_task_DD_L3,2021.2.3,Win32,59.91252771,,,,,,,,,,,0.7202,1,,,,,,,,,,,,,,,,,,,,,,,,0.009259259,-0.388888889,0,0,0,,,,,,,BANNER,C,m,m,./images/BANNER.png,,,,,,,,,,,,,,,,,,,,,m,1,0.7202,,,,,,,,0,18,18,52,1
,,,,,,,,,,,,,,,,,61083d12d8c72b16cb135a6b,25,2022-02-12_13h24.41.122,lexical_decision_task_DD_L3,2021.2.3,Win32,59.91252771,,,,,,,,,,,1.2395,1,,,,,,,,,,,,,,,,,,,,,,,,0.009259259,-0.388888889,0,0,0,,,,,,,CEMENT,HB,m,m,./images/CEMENTHB.png,,,,,,,,,,,,,,,,,,,,,m,1,1.2395,,,,,,,,0,19,19,74,1
,,,,,,,,,,,,,,,,,61083d12d8c72b16cb135a6b,25,2022-02-12_13h24.41.122,lexical_decision_task_DD_L3,2021.2.3,Win32,59.91252771,,,,,,,,,,,5.3139,0,,,,,,,,,,,,,,,,,,,,,,,,0.009259259,-0.388888889,0,0,0,,,,,,,CANDY,LB,z,m,./images/CANDYLB.png,,,,,,,,,,,,,,,,,,,,,m,0,5.3139,,,,,,,,0,20,20,123,1
,,,,,,,,,,,,,,,,,61083d12d8c72b16cb135a6b,25,2022-02-12_13h24.41.122,lexical_decision_task_DD_L3,2021.2.3,Win32,59.91252771,,,,,,,,,,,0.9944,1,,,,,,,,,,,,,,,,,,,,,,,,0.009259259,-0.388888889,0,0,0,,,,,,,FALCON,C,m,m,./images/FALCON.png,,,,,,,,,,,,,,,,,,,,,m,1,0.9944,,,,,,,,0,21,21,28,1
,,,,,,,,,,,,,,,,,61083d12d8c72b16cb135a6b,25,2022-02-12_13h24.41.122,lexical_decision_task_DD_L3,2021.2.3,Win32,59.91252771,,,,,,,,,,,1.2193,1,,,,,,,,,,,,,,,,,,,,,,,,0.009259259,-0.388888889,0,0,0,,,,,,,FLESH,LB,z,m,./images/FLESHLB.png,,,,,,,,,,,,,,,,,,,,,z,1,1.2193,,,,,,,,0,22,22,108,1
,,,,,,,,,,,,,,,,,61083d12d8c72b16cb135a6b,25,2022-02-12_13h24.41.122,lexical_decision_task_DD_L3,2021.2.3,Win32,59.91252771,,,,,,,,,,,1.9851,1,,,,,,,,,,,,,,,,,,,,,,,,0.009259259,-0.388888889,0,0,0,,,,,,,FOLDER,LB,m,m,./images/FOLDERLB.png,,,,,,,,,,,,,,,,,,,,,m,1,1.9851,,,,,,,,0,23,23,42,1
,,,,,,,,,,,,,,,,,61083d12d8c72b16cb135a6b,25,2022-02-12_13h24.41.122,lexical_decision_task_DD_L3,2021.2.3,Win32,59.91252771,,,,,,,,,,,1.0962,1,,,,,,,,,,,,,,,,,,,,,,,,0.009259259,-0.388888889,0,0,0,,,,,,,TOMATO,LB,m,m,./images/TOMATOLB.png,,,,,,,,,,,,,,,,,,,,,m,1,1.0962,,,,,,,,0,24,24,0,1
,,,,,,,,,,,,,,,,,61083d12d8c72b16cb135a6b,25,2022-02-12_13h24.41.122,lexical_decision_task_DD_L3,2021.2.3,Win32,59.91252771,,,,,,,,,,,1.1398,1,,,,,,,,,,,,,,,,,,,,,,,,0.009259259,-0.388888889,0,0,0,,,,,,,TOWEL,C,z,m,./images/TOWEL.png,,,,,,,,,,,,,,,,,,,,,z,1,1.1398,,,,,,,,0,25,25,85,1
,,,,,,,,,,,,,,,,,61083d12d8c72b16cb135a6b,25,2022-02-12_13h24.41.122,lexical_decision_task_DD_L3,2021.2.3,Win32,59.91252771,,,,,,,,,,,1.1478,1,,,,,,,,,,,,,,,,,,,,,,,,0.009259259,-0.388888889,0,0,0,,,,,,,MIDGET,C,z,m,./images/MIDGET.png,,,,,,,,,,,,,,,,,,,,,z,1,1.1478,,,,,,,,0,26,26,160,1
,,,,,,,,,,,,,,,,,61083d12d8c72b16cb135a6b,25,2022-02-12_13h24.41.122,lexical_decision_task_DD_L3,2021.2.3,Win32,59.91252771,,,,,,,,,,,0.9378,1,,,,,,,,,,,,,,,,,,,,,,,,0.009259259,-0.388888889,0,0,0,,,,,,,STOVE,HB,z,m,./images/STOVEHB.png,,,,,,,,,,,,,,,,,,,,,z,1,0.9378,,,,,,,,0,27,27,86,1
,,,,,,,,,,,,,,,,,61083d12d8c72b16cb135a6b,25,2022-02-12_13h24.41.122,lexical_decision_task_DD_L3,2021.2.3,Win32,59.91252771,,,,,,,,,,,1.5436,1,,,,,,,,,,,,,,,,,,,,,,,,0.009259259,-0.388888889,0,0,0,,,,,,,HEATER,HB,z,m,./images/HEATERHB.png,,,,,,,,,,,,,,,,,,,,,z,1,1.5436,,,,,,,,0,28,28,140,1
,,,,,,,,,,,,,,,,,61083d12d8c72b16cb135a6b,25,2022-02-12_13h24.41.122,lexical_decision_task_DD_L3,2021.2.3,Win32,59.91252771,,,,,,,,,,,1.6265,1,,,,,,,,,,,,,,,,,,,,,,,,0.009259259,-0.388888889,0,0,0,,,,,,,LIZARD,HB,m,m,./images/LIZARDHB.png,,,,,,,,,,,,,,,,,,,,,m,1,1.6265,,,,,,,,0,29,29,44,1
,,,,,,,,,,,,,,,,,61083d12d8c72b16cb135a6b,25,2022-02-12_13h24.41.122,lexical_decision_task_DD_L3,2021.2.3,Win32,59.91252771,,,,,,,,,,,1.3151,1,,,,,,,,,,,,,,,,,,,,,,,,0.009259259,-0.388888889,0,0,0,,,,,,,CANOE,C,z,m,./images/CANOE.png,,,,,,,,,,,,,,,,,,,,,z,1,1.3151,,,,,,,,0,30,30,142,1
,,,,,,,,,,,,,,,,,61083d12d8c72b16cb135a6b,25,2022-02-12_13h24.41.122,lexical_decision_task_DD_L3,2021.2.3,Win32,59.91252771,,,,,,,,,,,1.0357,1,,,,,,,,,,,,,,,,,,,,,,,,0.009259259,-0.388888889,0,0,0,,,,,,,QUILL,C,m,m,./images/QUILL.png,,,,,,,,,,,,,,,,,,,,,m,1,1.0357,,,,,,,,0,31,31,31,1
,,,,,,,,,,,,,,,,,61083d12d8c72b16cb135a6b,25,2022-02-12_13h24.41.122,lexical_decision_task_DD_L3,2021.2.3,Win32,59.91252771,,,,,,,,,,,1.244,1,,,,,,,,,,,,,,,,,,,,,,,,0.009259259,-0.388888889,0,0,0,,,,,,,TWINS,LB,m,m,./images/TWINSLB.png,,,,,,,,,,,,,,,,,,,,,m,1,1.244,,,,,,,,0,32,32,60,1
,,,,,,,,,,,,,,,,,61083d12d8c72b16cb135a6b,25,2022-02-12_13h24.41.122,lexical_decision_task_DD_L3,2021.2.3,Win32,59.91252771,,,,,,,,,,,1.7702,1,,,,,,,,,,,,,,,,,,,,,,,,0.009259259,-0.388888889,0,0,0,,,,,,,BASKET,HB,z,m,./images/BASKETHB.png,,,,,,,,,,,,,,,,,,,,,z,1,1.7702,,,,,,,,0,33,33,128,1
,,,,,,,,,,,,,,,,,61083d12d8c72b16cb135a6b,25,2022-02-12_13h24.41.122,lexical_decision_task_DD_L3,2021.2.3,Win32,59.91252771,,,,,,,,,,,1.6151,1,,,,,,,,,,,,,,,,,,,,,,,,0.009259259,-0.388888889,0,0,0,,,,,,,SAUCE,LB,z,m,./images/SAUCELB.png,,,,,,,,,,,,,,,,,,,,,z,1,1.6151,,,,,,,,0,34,34,135,1
,,,,,,,,,,,,,,,,,61083d12d8c72b16cb135a6b,25,2022-02-12_13h24.41.122,lexical_decision_task_DD_L3,2021.2.3,Win32,59.91252771,,,,,,,,,,,1.1964,0,,,,,,,,,,,,,,,,,,,,,,,,0.009259259,-0.388888889,0,0,0,,,,,,,MAMMAL,HB,z,m,./images/MAMMALHB.png,,,,,,,,,,,,,,,,,,,,,m,0,1.1964,,,,,,,,0,35,35,146,1
,,,,,,,,,,,,,,,,,61083d12d8c72b16cb135a6b,25,2022-02-12_13h24.41.122,lexical_decision_task_DD_L3,2021.2.3,Win32,59.91252771,,,,,,,,,,,0.8957,0,,,,,,,,,,,,,,,,,,,,,,,,0.009259259,-0.388888889,0,0,0,,,,,,,JUMPER,HB,z,m,./images/JUMPERHB.png,,,,,,,,,,,,,,,,,,,,,m,0,0.8957,,,,,,,,0,36,36,158,1
,,,,,,,,,,,,,,,,,61083d12d8c72b16cb135a6b,25,2022-02-12_13h24.41.122,lexical_decision_task_DD_L3,2021.2.3,Win32,59.91252771,,,,,,,,,,,1.3743,1,,,,,,,,,,,,,,,,,,,,,,,,0.009259259,-0.388888889,0,0,0,,,,,,,HAMMER,LB,z,m,./images/HAMMERLB.png,,,,,,,,,,,,,,,,,,,,,z,1,1.3743,,,,,,,,0,37,37,159,1
,,,,,,,,,,,,,,,,,61083d12d8c72b16cb135a6b,25,2022-02-12_13h24.41.122,lexical_decision_task_DD_L3,2021.2.3,Win32,59.91252771,,,,,,,,,,,0.9233,0,,,,,,,,,,,,,,,,,,,,,,,,0.009259259,-0.388888889,0,0,0,,,,,,,STEAK,C,z,m,./images/STEAK.png,,,,,,,,,,,,,,,,,,,,,m,0,0.9233,,,,,,,,0,38,38,115,1
,,,,,,,,,,,,,,,,,61083d12d8c72b16cb135a6b,25,2022-02-12_13h24.41.122,lexical_decision_task_DD_L3,2021.2.3,Win32,59.91252771,,,,,,,,,,,0.7336,1,,,,,,,,,,,,,,,,,,,,,,,,0.009259259,-0.388888889,0,0,0,,,,,,,BONNET,HB,m,m,./images/BONNETHB.png,,,,,,,,,,,,,,,,,,,,,m,1,0.7336,,,,,,,,0,39,39,11,1
,,,,,,,,,,,,,,,,,61083d12d8c72b16cb135a6b,25,2022-02-12_13h24.41.122,lexical_decision_task_DD_L3,2021.2.3,Win32,59.91252771,,,,,,,,,,,0.8899,1,,,,,,,,,,,,,,,,,,,,,,,,0.009259259,-0.388888889,0,0,0,,,,,,,PAINT,C,m,m,./images/PAINT.png,,,,,,,,,,,,,,,,,,,,,m,1,0.8899,,,,,,,,0,40,40,7,1
,,,,,,,,,,,,,,,,,61083d12d8c72b16cb135a6b,25,2022-02-12_13h24.41.122,lexical_decision_task_DD_L3,2021.2.3,Win32,59.91252771,,,,,,,,,,,0.6535,1,,,,,,,,,,,,,,,,,,,,,,,,0.009259259,-0.388888889,0,0,0,space,,,,,,GREASE,LB,m,m,./images/GREASELB.png,32.8172,,,,,,,,,,,,,,,,,,,,m,1,0.6535,,,,,,,,0,41,41,15,1
,,,,,,,,,,,,,,,,,61083d12d8c72b16cb135a6b,25,2022-02-12_13h24.41.122,lexical_decision_task_DD_L3,2021.2.3,Win32,59.91252771,,,,,,,,,,,0.8955,1,,,,,,,,,,,,,,,,,,,,,,,,0.009259259,-0.388888889,0,0,0,,,,,,,PEARL,C,m,m,./images/PEARL.png,,,,,,,,,,,,,,,,,,,,,m,1,0.8955,,,,,,,,0,42,42,46,1
,,,,,,,,,,,,,,,,,61083d12d8c72b16cb135a6b,25,2022-02-12_13h24.41.122,lexical_decision_task_DD_L3,2021.2.3,Win32,59.91252771,,,,,,,,,,,0.8541,1,,,,,,,,,,,,,,,,,,,,,,,,0.009259259,-0.388888889,0,0,0,,,,,,,BERRY,HB,m,m,./images/BERRYHB.png,,,,,,,,,,,,,,,,,,,,,m,1,0.8541,,,,,,,,0,43,43,47,1
,,,,,,,,,,,,,,,,,61083d12d8c72b16cb135a6b,25,2022-02-12_13h24.41.122,lexical_decision_task_DD_L3,2021.2.3,Win32,59.91252771,,,,,,,,,,,0.7831,1,,,,,,,,,,,,,,,,,,,,,,,,0.009259259,-0.388888889,0,0,0,,,,,,,BEARD,HB,m,m,./images/BEARDHB.png,,,,,,,,,,,,,,,,,,,,,m,1,0.7831,,,,,,,,0,44,44,2,1
,,,,,,,,,,,,,,,,,61083d12d8c72b16cb135a6b,25,2022-02-12_13h24.41.122,lexical_decision_task_DD_L3,2021.2.3,Win32,59.91252771,,,,,,,,,,,0.7635,0,,,,,,,,,,,,,,,,,,,,,,,,0.009259259,-0.388888889,0,0,0,,,,,,,FINGER,LB,m,m,./images/FINGERLB.png,,,,,,,,,,,,,,,,,,,,,z,0,0.7635,,,,,,,,0,45,45,3,1
,,,,,,,,,,,,,,,,,61083d12d8c72b16cb135a6b,25,2022-02-12_13h24.41.122,lexical_decision_task_DD_L3,2021.2.3,Win32,59.91252771,,,,,,,,,,,1.6104,1,,,,,,,,,,,,,,,,,,,,,,,,0.009259259,-0.388888889,0,0,0,,,,,,,MONKEY,LB,z,m,./images/MONKEYLB.png,,,,,,,,,,,,,,,,,,,,,z,1,1.6104,,,,,,,,0,46,46,129,1
,,,,,,,,,,,,,,,,,61083d12d8c72b16cb135a6b,25,2022-02-12_13h24.41.122,lexical_decision_task_DD_L3,2021.2.3,Win32,59.91252771,,,,,,,,,,,1.2511,1,,,,,,,,,,,,,,,,,,,,,,,,0.009259259,-0.388888889,0,0,0,,,,,,,PISTOL,HB,z,m,./images/PISTOLHB.png,,,,,,,,,,,,,,,,,,,,,z,1,1.2511,,,,,,,,0,47,47,113,1
,,,,,,,,,,,,,,,,,61083d12d8c72b16cb135a6b,25,2022-02-12_13h24.41.122,lexical_decision_task_DD_L3,2021.2.3,Win32,59.91252771,,,,,,,,,,,1.2011,1,,,,,,,,,,,,,,,,,,,,,,,,0.009259259,-0.388888889,0,0,0,,,,,,,RULER,C,z,m,./images/RULER.png,,,,,,,,,,,,,,,,,,,,,z,1,1.2011,,,,,,,,0,48,48,163,1
,,,,,,,,,,,,,,,,,61083d12d8c72b16cb135a6b,25,2022-02-12_13h24.41.122,lexical_decision_task_DD_L3,2021.2.3,Win32,59.91252771,,,,,,,,,,,1.4321,1,,,,,,,,,,,,,,,,,,,,,,,,0.009259259,-0.388888889,0,0,0,,,,,,,DRILL,LB,z,m,./images/DRILLLB.png,,,,,,,,,,,,,,,,,,,,,z,1,1.4321,,,,,,,,0,49,49,165,1
,,,,,,,,,,,,,,,,,61083d12d8c72b16cb135a6b,25,2022-02-12_13h24.41.122,lexical_decision_task_DD_L3,2021.2.3,Win32,59.91252771,,,,,,,,,,,1.3466,1,,,,,,,,,,,,,,,,,,,,,,,,0.009259259,-0.388888889,0,0,0,,,,,,,STATUE,LB,z,m,./images/STATUELB.png,,,,,,,,,,,,,,,,,,,,,z,1,1.3466,,,,,,,,0,50,50,150,1
,,,,,,,,,,,,,,,,,61083d12d8c72b16cb135a6b,25,2022-02-12_13h24.41.122,lexical_decision_task_DD_L3,2021.2.3,Win32,59.91252771,,,,,,,,,,,3.5351,1,,,,,,,,,,,,,,,,,,,,,,,,0.009259259,-0.388888889,0,0,0,,,,,,,CRUST,C,m,m,./images/CRUST.png,,,,,,,,,,,,,,,,,,,,,m,1,3.5351,,,,,,,,0,51,51,79,1
,,,,,,,,,,,,,,,,,61083d12d8c72b16cb135a6b,25,2022-02-12_13h24.41.122,lexical_decision_task_DD_L3,2021.2.3,Win32,59.91252771,,,,,,,,,,,0.8797,1,,,,,,,,,,,,,,,,,,,,,,,,0.009259259,-0.388888889,0,0,0,,,,,,,FENCE,HB,z,m,./images/FENCEHB.png,,,,,,,,,,,,,,,,,,,,,z,1,0.8797,,,,,,,,0,52,52,98,1
,,,,,,,,,,,,,,,,,61083d12d8c72b16cb135a6b,25,2022-02-12_13h24.41.122,lexical_decision_task_DD_L3,2021.2.3,Win32,59.91252771,,,,,,,,,,,9.1434,0,,,,,,,,,,,,,,,,,,,,,,,,0.009259259,-0.388888889,0,0,0,,,,,,,PIMPLE,HB,m,m,./images/PIMPLEHB.png,,,,,,,,,,,,,,,,,,,,,z,0,9.1434,,,,,,,,0,53,53,71,1
,,,,,,,,,,,,,,,,,61083d12d8c72b16cb135a6b,25,2022-02-12_13h24.41.122,lexical_decision_task_DD_L3,2021.2.3,Win32,59.91252771,,,,,,,,,,,3.5598,1,,,,,,,,,,,,,,,,,,,,,,,,0.009259259,-0.388888889,0,0,0,,,,,,,KIDNEY,LB,m,m,./images/KIDNEYLB.png,,,,,,,,,,,,,,,,,,,,,m,1,3.5598,,,,,,,,0,54,54,21,1
,,,,,,,,,,,,,,,,,61083d12d8c72b16cb135a6b,25,2022-02-12_13h24.41.122,lexical_decision_task_DD_L3,2021.2.3,Win32,59.91252771,,,,,,,,,,,1.8065,0,,,,,,,,,,,,,,,,,,,,,,,,0.009259259,-0.388888889,0,0,0,,,,,,,MUSCLE,C,m,m,./images/MUSCLE.png,,,,,,,,,,,,,,,,,,,,,z,0,1.8065,,,,,,,,0,55,55,4,1
,,,,,,,,,,,,,,,,,61083d12d8c72b16cb135a6b,25,2022-02-12_13h24.41.122,lexical_decision_task_DD_L3,2021.2.3,Win32,59.91252771,,,,,,,,,,,1.5553,1,,,,,,,,,,,,,,,,,,,,,,,,0.009259259,-0.388888889,0,0,0,,,,,,,MAGGOT,LB,m,m,./images/MAGGOTLB.png,,,,,,,,,,,,,,,,,,,,,m,1,1.5553,,,,,,,,0,56,56,33,1
,,,,,,,,,,,,,,,,,61083d12d8c72b16cb135a6b,25,2022-02-12_13h24.41.122,lexical_decision_task_DD_L3,2021.2.3,Win32,59.91252771,,,,,,,,,,,1.2339,1,,,,,,,,,,,,,,,,,,,,,,,,0.009259259,-0.388888889,0,0,0,,,,,,,ALLEY,C,z,m,./images/ALLEY.png,,,,,,,,,,,,,,,,,,,,,z,1,1.2339,,,,,,,,0,57,57,139,1
,,,,,,,,,,,,,,,,,61083d12d8c72b16cb135a6b,25,2022-02-12_13h24.41.122,lexical_decision_task_DD_L3,2021.2.3,Win32,59.91252771,,,,,,,,,,,1.4269,1,,,,,,,,,,,,,,,,,,,,,,,,0.009259259,-0.388888889,0,0,0,,,,,,,THROAT,LB,m,m,./images/THROATLB.png,,,,,,,,,,,,,,,,,,,,,m,1,1.4269,,,,,,,,0,58,58,36,1
,,,,,,,,,,,,,,,,,61083d12d8c72b16cb135a6b,25,2022-02-12_13h24.41.122,lexical_decision_task_DD_L3,2021.2.3,Win32,59.91252771,,,,,,,,,,,1.2512,1,,,,,,,,,,,,,,,,,,,,,,,,0.009259259,-0.388888889,0,0,0,,,,,,,ARROW,LB,z,m,./images/ARROWLB.png,,,,,,,,,,,,,,,,,,,,,z,1,1.2512,,,,,,,,0,59,59,153,1
,,,,,,,,,,,,,,,,,61083d12d8c72b16cb135a6b,25,2022-02-12_13h24.41.122,lexical_decision_task_DD_L3,2021.2.3,Win32,59.91252771,,,,,,,,,,,0.8211,1,,,,,,,,,,,,,,,,,,,,,,,,0.009259259,-0.388888889,0,0,0,,,,,,,CLOTH,HB,z,m,./images/CLOTHHB.png,,,,,,,,,,,,,,,,,,,,,z,1,0.8211,,,,,,,,0,60,60,107,1
,,,,,,,,,,,,,,,,,61083d12d8c72b16cb135a6b,25,2022-02-12_13h24.41.122,lexical_decision_task_DD_L3,2021.2.3,Win32,59.91252771,,,,,,,,,,,0.8666,1,,,,,,,,,,,,,,,,,,,,,,,,0.009259259,-0.388888889,0,0,0,,,,,,,BRUSH,HB,z,m,./images/BRUSHHB.png,,,,,,,,,,,,,,,,,,,,,z,1,0.8666,,,,,,,,0,61,61,143,1
,,,,,,,,,,,,,,,,,61083d12d8c72b16cb135a6b,25,2022-02-12_13h24.41.122,lexical_decision_task_DD_L3,2021.2.3,Win32,59.91252771,,,,,,,,,,,0.6714,0,,,,,,,,,,,,,,,,,,,,,,,,0.009259259,-0.388888889,0,0,0,,,,,,,SUNSET,C,m,m,./images/SUNSET.png,,,,,,,,,,,,,,,,,,,,,z,0,0.6714,,,,,,,,0,62,62,82,1
,,,,,,,,,,,,,,,,,61083d12d8c72b16cb135a6b,25,2022-02-12_13h24.41.122,lexical_decision_task_DD_L3,2021.2.3,Win32,59.91252771,,,,,,,,,,,1.3451,1,,,,,,,,,,,,,,,,,,,,,,,,0.009259259,-0.388888889,0,0,0,,,,,,,NOOSE,LB,m,m,./images/NOOSELB.png,,,,,,,,,,,,,,,,,,,,,m,1,1.3451,,,,,,,,0,63,63,72,1
,,,,,,,,,,,,,,,,,61083d12d8c72b16cb135a6b,25,2022-02-12_13h24.41.122,lexical_decision_task_DD_L3,2021.2.3,Win32,59.91252771,,,,,,,,,,,0.9518,1,,,,,,,,,,,,,,,,,,,,,,,,0.009259259,-0.388888889,0,0,0,,,,,,,COLLAR,LB,z,m,./images/COLLARLB.png,,,,,,,,,,,,,,,,,,,,,z,1,0.9518,,,,,,,,0,64,64,99,1
,,,,,,,,,,,,,,,,,61083d12d8c72b16cb135a6b,25,2022-02-12_13h24.41.122,lexical_decision_task_DD_L3,2021.2.3,Win32,59.91252771,,,,,,,,,,,1.5774,1,,,,,,,,,,,,,,,,,,,,,,,,0.009259259,-0.388888889,0,0,0,,,,,,,SWEAT,LB,m,m,./images/SWEATLB.png,,,,,,,,,,,,,,,,,,,,,m,1,1.5774,,,,,,,,0,65,65,66,1
,,,,,,,,,,,,,,,,,61083d12d8c72b16cb135a6b,25,2022-02-12_13h24.41.122,lexical_decision_task_DD_L3,2021.2.3,Win32,59.91252771,,,,,,,,,,,1.3744,1,,,,,,,,,,,,,,,,,,,,,,,,0.009259259,-0.388888889,0,0,0,,,,,,,MOSQUE,C,m,m,./images/MOSQUE.png,,,,,,,,,,,,,,,,,,,,,m,1,1.3744,,,,,,,,0,66,66,43,1
,,,,,,,,,,,,,,,,,61083d12d8c72b16cb135a6b,25,2022-02-12_13h24.41.122,lexical_decision_task_DD_L3,2021.2.3,Win32,59.91252771,,,,,,,,,,,1.72,1,,,,,,,,,,,,,,,,,,,,,,,,0.009259259,-0.388888889,0,0,0,,,,,,,SHELF,LB,m,m,./images/SHELFLB.png,,,,,,,,,,,,,,,,,,,,,m,1,1.72,,,,,,,,0,67,67,39,1
,,,,,,,,,,,,,,,,,61083d12d8c72b16cb135a6b,25,2022-02-12_13h24.41.122,lexical_decision_task_DD_L3,2021.2.3,Win32,59.91252771,,,,,,,,,,,0.8654,0,,,,,,,,,,,,,,,,,,,,,,,,0.009259259,-0.388888889,0,0,0,,,,,,,SAILOR,C,m,m,./images/SAILOR.png,,,,,,,,,,,,,,,,,,,,,z,0,0.8654,,,,,,,,0,68,68,67,1
,,,,,,,,,,,,,,,,,61083d12d8c72b16cb135a6b,25,2022-02-12_13h24.41.122,lexical_decision_task_DD_L3,2021.2.3,Win32,59.91252771,,,,,,,,,,,1.478,0,,,,,,,,,,,,,,,,,,,,,,,,0.009259259,-0.388888889,0,0,0,,,,,,,SAUNA,LB,z,m,./images/SAUNALB.png,,,,,,,,,,,,,,,,,,,,,m,0,1.478,,,,,,,,0,69,69,117,1
,,,,,,,,,,,,,,,,,61083d12d8c72b16cb135a6b,25,2022-02-12_13h24.41.122,lexical_decision_task_DD_L3,2021.2.3,Win32,59.91252771,,,,,,,,,,,0.7783,1,,,,,,,,,,,,,,,,,,,,,,,,0.009259259,-0.388888889,0,0,0,,,,,,,WHEEL,HB,z,m,./images/WHEELHB.png,,,,,,,,,,,,,,,,,,,,,z,1,0.7783,,,,,,,,0,70,70,161,1
,,,,,,,,,,,,,,,,,61083d12d8c72b16cb135a6b,25,2022-02-12_13h24.41.122,lexical_decision_task_DD_L3,2021.2.3,Win32,59.91252771,,,,,,,,,,,3.4233,0,,,,,,,,,,,,,,,,,,,,,,,,0.009259259,-0.388888889,0,0,0,,,,,,,MIRROR,LB,m,m,./images/MIRRORLB.png,,,,,,,,,,,,,,,,,,,,,z,0,3.4233,,,,,,,,0,71,71,63,1
,,,,,,,,,,,,,,,,,61083d12d8c72b16cb135a6b,25,2022-02-12_13h24.41.122,lexical_decision_task_DD_L3,2021.2.3,Win32,59.91252771,,,,,,,,,,,1.5391,0,,,,,,,,,,,,,,,,,,,,,,,,0.009259259,-0.388888889,0,0,0,,,,,,,STORM,LB,m,m,./images/STORMLB.png,,,,,,,,,,,,,,,,,,,,,z,0,1.5391,,,,,,,,0,72,72,30,1
,,,,,,,,,,,,,,,,,61083d12d8c72b16cb135a6b,25,2022-02-12_13h24.41.122,lexical_decision_task_DD_L3,2021.2.3,Win32,59.91252771,,,,,,,,,,,1.7177,1,,,,,,,,,,,,,,,,,,,,,,,,0.009259259,-0.388888889,0,0,0,,,,,,,JAGUAR,LB,m,m,./images/JAGUARLB.png,,,,,,,,,,,,,,,,,,,,,m,1,1.7177,,,,,,,,0,73,73,18,1
,,,,,,,,,,,,,,,,,61083d12d8c72b16cb135a6b,25,2022-02-12_13h24.41.122,lexical_decision_task_DD_L3,2021.2.3,Win32,59.91252771,,,,,,,,,,,3.8417,1,,,,,,,,,,,,,,,,,,,,,,,,0.009259259,-0.388888889,0,0,0,,,,,,,PARADE,HB,z,m,./images/PARADEHB.png,,,,,,,,,,,,,,,,,,,,,z,1,3.8417,,,,,,,,0,74,74,101,1
,,,,,,,,,,,,,,,,,61083d12d8c72b16cb135a6b,25,2022-02-12_13h24.41.122,lexical_decision_task_DD_L3,2021.2.3,Win32,59.91252771,,,,,,,,,,,1.3773,1,,,,,,,,,,,,,,,,,,,,,,,,0.009259259,-0.388888889,0,0,0,,,,,,,ONION,LB,m,m,./images/ONIONLB.png,,,,,,,,,,,,,,,,,,,,,m,1,1.3773,,,,,,,,0,75,75,51,1
,,,,,,,,,,,,,,,,,61083d12d8c72b16cb135a6b,25,2022-02-12_13h24.41.122,lexical_decision_task_DD_L3,2021.2.3,Win32,59.91252771,,,,,,,,,,,1.2159,0,,,,,,,,,,,,,,,,,,,,,,,,0.009259259,-0.388888889,0,0,0,,,,,,,GARDEN,C,z,m,./images/GARDEN.png,,,,,,,,,,,,,,,,,,,,,m,0,1.2159,,,,,,,,0,76,76,94,1
,,,,,,,,,,,,,,,,,61083d12d8c72b16cb135a6b,25,2022-02-12_13h24.41.122,lexical_decision_task_DD_L3,2021.2.3,Win32,59.91252771,,,,,,,,,,,1.0179,1,,,,,,,,,,,,,,,,,,,,,,,,0.009259259,-0.388888889,0,0,0,,,,,,,BUTTER,LB,z,m,./images/BUTTERLB.png,,,,,,,,,,,,,,,,,,,,,z,1,1.0179,,,,,,,,0,77,77,111,1
,,,,,,,,,,,,,,,,,61083d12d8c72b16cb135a6b,25,2022-02-12_13h24.41.122,lexical_decision_task_DD_L3,2021.2.3,Win32,59.91252771,,,,,,,,,,,2.0924,1,,,,,,,,,,,,,,,,,,,,,,,,0.009259259,-0.388888889,0,0,0,,,,,,,MALLET,HB,m,m,./images/MALLETHB.png,,,,,,,,,,,,,,,,,,,,,m,1,2.0924,,,,,,,,0,78,78,50,1
,,,,,,,,,,,,,,,,,61083d12d8c72b16cb135a6b,25,2022-02-12_13h24.41.122,lexical_decision_task_DD_L3,2021.2.3,Win32,59.91252771,,,,,,,,,,,1.3121,1,,,,,,,,,,,,,,,,,,,,,,,,0.009259259,-0.388888889,0,0,0,,,,,,,TRIPOD,LB,m,m,./images/TRIPODLB.png,,,,,,,,,,,,,,,,,,,,,m,1,1.3121,,,,,,,,0,79,79,54,1
,,,,,,,,,,,,,,,,,61083d12d8c72b16cb135a6b,25,2022-02-12_13h24.41.122,lexical_decision_task_DD_L3,2021.2.3,Win32,59.91252771,,,,,,,,,,,0.8417,1,,,,,,,,,,,,,,,,,,,,,,,,0.009259259,-0.388888889,0,0,0,,,,,,,VALLEY,HB,z,m,./images/VALLEYHB.png,,,,,,,,,,,,,,,,,,,,,z,1,0.8417,,,,,,,,0,80,80,152,1
,,,,,,,,,,,,,,,,,61083d12d8c72b16cb135a6b,25,2022-02-12_13h24.41.122,lexical_decision_task_DD_L3,2021.2.3,Win32,59.91252771,,,,,,,,,,,0.8386,1,,,,,,,,,,,,,,,,,,,,,,,,0.009259259,-0.388888889,0,0,0,,,,,,,BISHOP,C,z,m,./images/BISHOP.png,,,,,,,,,,,,,,,,,,,,,z,1,0.8386,,,,,,,,0,81,81,133,1
,,,,,,,,,,,,,,,,,61083d12d8c72b16cb135a6b,25,2022-02-12_13h24.41.122,lexical_decision_task_DD_L3,2021.2.3,Win32,59.91252771,,,,,,,,,,,3.1791,1,,,,,,,,,,,,,,,,,,,,,,,,0.009259259,-0.388888889,0,0,0,,,,,,,URINE,C,m,m,./images/URINE.png,,,,,,,,,,,,,,,,,,,,,m,1,3.1791,,,,,,,,0,82,82,70,1
,,,,,,,,,,,,,,,,,61083d12d8c72b16cb135a6b,25,2022-02-12_13h24.41.122,lexical_decision_task_DD_L3,2021.2.3,Win32,59.91252771,,,,,,,,,,,1.5504,0,,,,,,,,,,,,,,,,,,,,,,,,0.009259259,-0.388888889,0,0,0,space,,,,,,CURRY,LB,z,m,./images/CURRYLB.png,52.6772,,,,,,,,,,,,,,,,,,,,m,0,1.5504,,,,,,,,0,83,83,144,1
,,,,,,,,,,,,,,,,,61083d12d8c72b16cb135a6b,25,2022-02-12_13h24.41.122,lexical_decision_task_DD_L3,2021.2.3,Win32,59.91252771,,,,,,,,,,,1.5436,1,,,,,,,,,,,,,,,,,,,,,,,,0.009259259,-0.388888889,0,0,0,,,,,,,GRANNY,HB,z,m,./images/GRANNYHB.png,,,,,,,,,,,,,,,,,,,,,z,1,1.5436,,,,,,,,0,84,84,104,1
,,,,,,,,,,,,,,,,,61083d12d8c72b16cb135a6b,25,2022-02-12_13h24.41.122,lexical_decision_task_DD_L3,2021.2.3,Win32,59.91252771,,,,,,,,,,,1.0475,0,,,,,,,,,,,,,,,,,,,,,,,,0.009259259,-0.388888889,0,0,0,,,,,,,BOILER,LB,z,m,./images/BOILERLB.png,,,,,,,,,,,,,,,,,,,,,m,0,1.0475,,,,,,,,0,85,85,120,1
,,,,,,,,,,,,,,,,,61083d12d8c72b16cb135a6b,25,2022-02-12_13h24.41.122,lexical_decision_task_DD_L3,2021.2.3,Win32,59.91252771,,,,,,,,,,,1.3686,0,,,,,,,,,,,,,,,,,,,,,,,,0.009259259,-0.388888889,0,0,0,,,,,,,WAGON,C,z,m,./images/WAGON.png,,,,,,,,,,,,,,,,,,,,,m,0,1.3686,,,,,,,,0,86,86,91,1
,,,,,,,,,,,,,,,,,61083d12d8c72b16cb135a6b,25,2022-02-12_13h24.41.122,lexical_decision_task_DD_L3,2021.2.3,Win32,59.91252771,,,,,,,,,,,0.9449,0,,,,,,,,,,,,,,,,,,,,,,,,0.009259259,-0.388888889,0,0,0,,,,,,,SHIELD,LB,z,m,./images/SHIELDLB.png,,,,,,,,,,,,,,,,,,,,,m,0,0.9449,,,,,,,,0,87,87,132,1
,,,,,,,,,,,,,,,,,61083d12d8c72b16cb135a6b,25,2022-02-12_13h24.41.122,lexical_decision_task_DD_L3,2021.2.3,Win32,59.91252771,,,,,,,,,,,1.0688,1,,,,,,,,,,,,,,,,,,,,,,,,0.009259259,-0.388888889,0,0,0,,,,,,,TIGER,C,z,m,./images/TIGER.png,,,,,,,,,,,,,,,,,,,,,z,1,1.0688,,,,,,,,0,88,88,121,1
,,,,,,,,,,,,,,,,,61083d12d8c72b16cb135a6b,25,2022-02-12_13h24.41.122,lexical_decision_task_DD_L3,2021.2.3,Win32,59.91252771,,,,,,,,,,,1.3979,1,,,,,,,,,,,,,,,,,,,,,,,,0.009259259,-0.388888889,0,0,0,,,,,,,BROOM,LB,z,m,./images/BROOMLB.png,,,,,,,,,,,,,,,,,,,,,z,1,1.3979,,,,,,,,0,89,89,162,1
,,,,,,,,,,,,,,,,,61083d12d8c72b16cb135a6b,25,2022-02-12_13h24.41.122,lexical_decision_task_DD_L3,2021.2.3,Win32,59.91252771,,,,,,,,,,,0.7417,1,,,,,,,,,,,,,,,,,,,,,,,,0.009259259,-0.388888889,0,0,0,,,,,,,ENGINE,HB,z,m,./images/ENGINEHB.png,,,,,,,,,,,,,,,,,,,,,z,1,0.7417,,,,,,,,0,90,90,122,1
,,,,,,,,,,,,,,,,,61083d12d8c72b16cb135a6b,25,2022-02-12_13h24.41.122,lexical_decision_task_DD_L3,2021.2.3,Win32,59.91252771,,,,,,,,,,,1.0523,1,,,,,,,,,,,,,,,,,,,,,,,,0.009259259,-0.388888889,0,0,0,,,,,,,LLAMA,HB,z,m,./images/LLAMAHB.png,,,,,,,,,,,,,,,,,,,,,z,1,1.0523,,,,,,,,0,91,91,119,1
,,,,,,,,,,,,,,,,,61083d12d8c72b16cb135a6b,25,2022-02-12_13h24.41.122,lexical_decision_task_DD_L3,2021.2.3,Win32,59.91252771,,,,,,,,,,,1.2623,0,,,,,,,,,,,,,,,,,,,,,,,,0.009259259,-0.388888889,0,0,0,,,,,,,MOTOR,C,m,m,./images/MOTOR.png,,,,,,,,,,,,,,,,,,,,,z,0,1.2623,,,,,,,,0,92,92,13,1
,,,,,,,,,,,,,,,,,61083d12d8c72b16cb135a6b,25,2022-02-12_13h24.41.122,lexical_decision_task_DD_L3,2021.2.3,Win32,59.91252771,,,,,,,,,,,0.8034,0,,,,,,,,,,,,,,,,,,,,,,,,0.009259259,-0.388888889,0,0,0,,,,,,,MEDAL,HB,z,m,./images/MEDALHB.png,,,,,,,,,,,,,,,,,,,,,m,0,0.8034,,,,,,,,0,93,93,95,1
,,,,,,,,,,,,,,,,,61083d12d8c72b16cb135a6b,25,2022-02-12_13h24.41.122,lexical_decision_task_DD_L3,2021.2.3,Win32,59.91252771,,,,,,,,,,,0.8861,0,,,,,,,,,,,,,,,,,,,,,,,,0.009259259,-0.388888889,0,0,0,,,,,,,FERRY,LB,z,m,./images/FERRYLB.png,,,,,,,,,,,,,,,,,,,,,m,0,0.8861,,,,,,,,0,94,94,141,1
,,,,,,,,,,,,,,,,,61083d12d8c72b16cb135a6b,25,2022-02-12_13h24.41.122,lexical_decision_task_DD_L3,2021.2.3,Win32,59.91252771,,,,,,,,,,,1.356,1,,,,,,,,,,,,,,,,,,,,,,,,0.009259259,-0.388888889,0,0,0,,,,,,,SHORE,LB,m,m,./images/SHORELB.png,,,,,,,,,,,,,,,,,,,,,m,1,1.356,,,,,,,,0,95,95,12,1
,,,,,,,,,,,,,,,,,61083d12d8c72b16cb135a6b,25,2022-02-12_13h24.41.122,lexical_decision_task_DD_L3,2021.2.3,Win32,59.91252771,,,,,,,,,,,0.9971,1,,,,,,,,,,,,,,,,,,,,,,,,0.009259259,-0.388888889,0,0,0,,,,,,,CRATER,LB,z,m,./images/CRATERLB.png,,,,,,,,,,,,,,,,,,,,,z,1,0.9971,,,,,,,,0,96,96,87,1
,,,,,,,,,,,,,,,,,61083d12d8c72b16cb135a6b,25,2022-02-12_13h24.41.122,lexical_decision_task_DD_L3,2021.2.3,Win32,59.91252771,,,,,,,,,,,0.7552,0,,,,,,,,,,,,,,,,,,,,,,,,0.009259259,-0.388888889,0,0,0,,,,,,,DOUGH,C,m,m,./images/DOUGH.png,,,,,,,,,,,,,,,,,,,,,z,0,0.7552,,,,,,,,0,97,97,19,1
,,,,,,,,,,,,,,,,,61083d12d8c72b16cb135a6b,25,2022-02-12_13h24.41.122,lexical_decision_task_DD_L3,2021.2.3,Win32,59.91252771,,,,,,,,,,,1.0968,1,,,,,,,,,,,,,,,,,,,,,,,,0.009259259,-0.388888889,0,0,0,,,,,,,SNAKE,C,z,m,./images/SNAKE.png,,,,,,,,,,,,,,,,,,,,,z,1,1.0968,,,,,,,,0,98,98,124,1
,,,,,,,,,,,,,,,,,61083d12d8c72b16cb135a6b,25,2022-02-12_13h24.41.122,lexical_decision_task_DD_L3,2021.2.3,Win32,59.91252771,,,,,,,,,,,1.1693,0,,,,,,,,,,,,,,,,,,,,,,,,0.009259259,-0.388888889,0,0,0,,,,,,,PACKET,HB,m,m,./images/PACKETHB.png,,,,,,,,,,,,,,,,,,,,,z,0,1.1693,,,,,,,,0,99,99,56,1
,,,,,,,,,,,,,,,,,61083d12d8c72b16cb135a6b,25,2022-02-12_13h24.41.122,lexical_decision_task_DD_L3,2021.2.3,Win32,59.91252771,,,,,,,,,,,0.6457,1,,,,,,,,,,,,,,,,,,,,,,,,0.009259259,-0.388888889,0,0,0,,,,,,,MELON,C,m,m,./images/MELON.png,,,,,,,,,,,,,,,,,,,,,m,1,0.6457,,,,,,,,0,100,100,22,1
,,,,,,,,,,,,,,,,,61083d12d8c72b16cb135a6b,25,2022-02-12_13h24.41.122,lexical_decision_task_DD_L3,2021.2.3,Win32,59.91252771,,,,,,,,,,,1.1125,1,,,,,,,,,,,,,,,,,,,,,,,,0.009259259,-0.388888889,0,0,0,,,,,,,BANANA,C,z,m,./images/BANANA.png,,,,,,,,,,,,,,,,,,,,,z,1,1.1125,,,,,,,,0,101,101,154,1
,,,,,,,,,,,,,,,,,61083d12d8c72b16cb135a6b,25,2022-02-12_13h24.41.122,lexical_decision_task_DD_L3,2021.2.3,Win32,59.91252771,,,,,,,,,,,0.6567,1,,,,,,,,,,,,,,,,,,,,,,,,0.009259259,-0.388888889,0,0,0,,,,,,,CANYON,C,m,m,./images/CANYON.png,,,,,,,,,,,,,,,,,,,,,m,1,0.6567,,,,,,,,0,102,102,34,1
,,,,,,,,,,,,,,,,,61083d12d8c72b16cb135a6b,25,2022-02-12_13h24.41.122,lexical_decision_task_DD_L3,2021.2.3,Win32,59.91252771,,,,,,,,,,,0.6918,1,,,,,,,,,,,,,,,,,,,,,,,,0.009259259,-0.388888889,0,0,0,,,,,,,WALRUS,HB,m,m,./images/WALRUSHB.png,,,,,,,,,,,,,,,,,,,,,m,1,0.6918,,,,,,,,0,103,103,23,1
,,,,,,,,,,,,,,,,,61083d12d8c72b16cb135a6b,25,2022-02-12_13h24.41.122,lexical_decision_task_DD_L3,2021.2.3,Win32,59.91252771,,,,,,,,,,,0.8363,1,,,,,,,,,,,,,,,,,,,,,,,,0.009259259,-0.388888889,0,0,0,,,,,,,STREAM,HB,z,m,./images/STREAMHB.png,,,,,,,,,,,,,,,,,,,,,z,1,0.8363,,,,,,,,0,104,104,125,1
,,,,,,,,,,,,,,,,,61083d12d8c72b16cb135a6b,25,2022-02-12_13h24.41.122,lexical_decision_task_DD_L3,2021.2.3,Win32,59.91252771,,,,,,,,,,,1.1251,1,,,,,,,,,,,,,,,,,,,,,,,,0.009259259,-0.388888889,0,0,0,,,,,,,CLOWN,C,z,m,./images/CLOWN.png,,,,,,,,,,,,,,,,,,,,,z,1,1.1251,,,,,,,,0,105,105,106,1
,,,,,,,,,,,,,,,,,61083d12d8c72b16cb135a6b,25,2022-02-12_13h24.41.122,lexical_decision_task_DD_L3,2021.2.3,Win32,59.91252771,,,,,,,,,,,0.9508,1,,,,,,,,,,,,,,,,,,,,,,,,0.009259259,-0.388888889,0,0,0,,,,,,,WHISKY,HB,z,m,./images/WHISKYHB.png,,,,,,,,,,,,,,,,,,,,,z,1,0.9508,,,,,,,,0,106,106,167,1
,,,,,,,,,,,,,,,,,61083d12d8c72b16cb135a6b,25,2022-02-12_13h24.41.122,lexical_decision_task_DD_L3,2021.2.3,Win32,59.91252771,,,,,,,,,,,0.7782,1,,,,,,,,,,,,,,,,,,,,,,,,0.009259259,-0.388888889,0,0,0,,,,,,,DONKEY,C,z,m,./images/DONKEY.png,,,,,,,,,,,,,,,,,,,,,z,1,0.7782,,,,,,,,0,107,107,103,1
,,,,,,,,,,,,,,,,,61083d12d8c72b16cb135a6b,25,2022-02-12_13h24.41.122,lexical_decision_task_DD_L3,2021.2.3,Win32,59.91252771,,,,,,,,,,,0.704,1,,,,,,,,,,,,,,,,,,,,,,,,0.009259259,-0.388888889,0,0,0,,,,,,,PEACH,HB,m,m,./images/PEACHHB.png,,,,,,,,,,,,,,,,,,,,,m,1,0.704,,,,,,,,0,108,108,35,1
,,,,,,,,,,,,,,,,,61083d12d8c72b16cb135a6b,25,2022-02-12_13h24.41.122,lexical_decision_task_DD_L3,2021.2.3,Win32,59.91252771,,,,,,,,,,,1.0397,1,,,,,,,,,,,,,,,,,,,,,,,,0.009259259,-0.388888889,0,0,0,,,,,,,CLOUD,HB,z,m,./images/CLOUDHB.png,,,,,,,,,,,,,,,,,,,,,z,1,1.0397,,,,,,,,0,109,109,110,1
,,,,,,,,,,,,,,,,,61083d12d8c72b16cb135a6b,25,2022-02-12_13h24.41.122,lexical_decision_task_DD_L3,2021.2.3,Win32,59.91252771,,,,,,,,,,,0.7381,0,,,,,,,,,,,,,,,,,,,,,,,,0.009259259,-0.388888889,0,0,0,,,,,,,WALNUT,LB,z,m,./images/WALNUTLB.png,,,,,,,,,,,,,,,,,,,,,m,0,0.7381,,,,,,,,0,110,110,84,1
,,,,,,,,,,,,,,,,,61083d12d8c72b16cb135a6b,25,2022-02-12_13h24.41.122,lexical_decision_task_DD_L3,2021.2.3,Win32,59.91252771,,,,,,,,,,,2.0893,0,,,,,,,,,,,,,,,,,,,,,,,,0.009259259,-0.388888889,0,0,0,,,,,,,CHALK,C,z,m,./images/CHALK.png,,,,,,,,,,,,,,,,,,,,,m,0,2.0893,,,,,,,,0,111,111,109,1
,,,,,,,,,,,,,,,,,61083d12d8c72b16cb135a6b,25,2022-02-12_13h24.41.122,lexical_decision_task_DD_L3,2021.2.3,Win32,59.91252771,,,,,,,,,,,3.3309,1,,,,,,,,,,,,,,,,,,,,,,,,0.009259259,-0.388888889,0,0,0,,,,,,,MUFFIN,C,m,m,./images/MUFFIN.png,,,,,,,,,,,,,,,,,,,,,m,1,3.3309,,,,,,,,0,112,112,55,1
,,,,,,,,,,,,,,,,,61083d12d8c72b16cb135a6b,25,2022-02-12_13h24.41.122,lexical_decision_task_DD_L3,2021.2.3,Win32,59.91252771,,,,,,,,,,,0.7138,1,,,,,,,,,,,,,,,,,,,,,,,,0.009259259,-0.388888889,0,0,0,,,,,,,RAZOR,C,z,m,./images/RAZOR.png,,,,,,,,,,,,,,,,,,,,,z,1,0.7138,,,,,,,,0,113,113,118,1
,,,,,,,,,,,,,,,,,61083d12d8c72b16cb135a6b,25,2022-02-12_13h24.41.122,lexical_decision_task_DD_L3,2021.2.3,Win32,59.91252771,,,,,,,,,,,0.9416,0,,,,,,,,,,,,,,,,,,,,,,,,0.009259259,-0.388888889,0,0,0,,,,,,,BURIAL,HB,m,m,./images/BURIALHB.png,,,,,,,,,,,,,,,,,,,,,z,0,0.9416,,,,,,,,0,114,114,59,1
,,,,,,,,,,,,,,,,,61083d12d8c72b16cb135a6b,25,2022-02-12_13h24.41.122,lexical_decision_task_DD_L3,2021.2.3,Win32,59.91252771,,,,,,,,,,,0.731,1,,,,,,,,,,,,,,,,,,,,,,,,0.009259259,-0.388888889,0,0,0,,,,,,,CRUMB,HB,m,m,./images/CRUMBHB.png,,,,,,,,,,,,,,,,,,,,,m,1,0.731,,,,,,,,0,115,115,29,1
,,,,,,,,,,,,,,,,,61083d12d8c72b16cb135a6b,25,2022-02-12_13h24.41.122,lexical_decision_task_DD_L3,2021.2.3,Win32,59.91252771,,,,,,,,,,,0.6997,0,,,,,,,,,,,,,,,,,,,,,,,,0.009259259,-0.388888889,0,0,0,,,,,,,PENCE,C,m,m,./images/PENCE.png,,,,,,,,,,,,,,,,,,,,,z,0,0.6997,,,,,,,,0,116,116,16,1
,,,,,,,,,,,,,,,,,61083d12d8c72b16cb135a6b,25,2022-02-12_13h24.41.122,lexical_decision_task_DD_L3,2021.2.3,Win32,59.91252771,,,,,,,,,,,0.6867,1,,,,,,,,,,,,,,,,,,,,,,,,0.009259259,-0.388888889,0,0,0,,,,,,,WEASEL,HB,m,m,./images/WEASELHB.png,,,,,,,,,,,,,,,,,,,,,m,1,0.6867,,,,,,,,0,117,117,80,1
,,,,,,,,,,,,,,,,,61083d12d8c72b16cb135a6b,25,2022-02-12_13h24.41.122,lexical_decision_task_DD_L3,2021.2.3,Win32,59.91252771,,,,,,,,,,,0.6624,1,,,,,,,,,,,,,,,,,,,,,,,,0.009259259,-0.388888889,0,0,0,,,,,,,DIVER,LB,z,m,./images/DIVERLB.png,,,,,,,,,,,,,,,,,,,,,z,1,0.6624,,,,,,,,0,118,118,93,1
,,,,,,,,,,,,,,,,,61083d12d8c72b16cb135a6b,25,2022-02-12_13h24.41.122,lexical_decision_task_DD_L3,2021.2.3,Win32,59.91252771,,,,,,,,,,,1.2623,1,,,,,,,,,,,,,,,,,,,,,,,,0.009259259,-0.388888889,0,0,0,,,,,,,MOOSE,LB,m,m,./images/MOOSELB.png,,,,,,,,,,,,,,,,,,,,,m,1,1.2623,,,,,,,,0,119,119,57,1
,,,,,,,,,,,,,,,,,61083d12d8c72b16cb135a6b,25,2022-02-12_13h24.41.122,lexical_decision_task_DD_L3,2021.2.3,Win32,59.91252771,,,,,,,,,,,1.1394,1,,,,,,,,,,,,,,,,,,,,,,,,0.009259259,-0.388888889,0,0,0,,,,,,,BUNNY,C,z,m,./images/BUNNY.png,,,,,,,,,,,,,,,,,,,,,z,1,1.1394,,,,,,,,0,120,120,97,1
,,,,,,,,,,,,,,,,,61083d12d8c72b16cb135a6b,25,2022-02-12_13h24.41.122,lexical_decision_task_DD_L3,2021.2.3,Win32,59.91252771,,,,,,,,,,,1.2788,0,,,,,,,,,,,,,,,,,,,,,,,,0.009259259,-0.388888889,0,0,0,,,,,,,CRADLE,HB,m,m,./images/CRADLEHB.png,,,,,,,,,,,,,,,,,,,,,z,0,1.2788,,,,,,,,0,121,121,20,1
,,,,,,,,,,,,,,,,,61083d12d8c72b16cb135a6b,25,2022-02-12_13h24.41.122,lexical_decision_task_DD_L3,2021.2.3,Win32,59.91252771,,,,,,,,,,,0.735,0,,,,,,,,,,,,,,,,,,,,,,,,0.009259259,-0.388888889,0,0,0,,,,,,,BELLY,C,m,m,./images/BELLY.png,,,,,,,,,,,,,,,,,,,,,z,0,0.735,,,,,,,,0,122,122,10,1
,,,,,,,,,,,,,,,,,61083d12d8c72b16cb135a6b,25,2022-02-12_13h24.41.122,lexical_decision_task_DD_L3,2021.2.3,Win32,59.91252771,,,,,,,,,,,0.9245,1,,,,,,,,,,,,,,,,,,,,,,,,0.009259259,-0.388888889,0,0,0,,,,,,,DANCER,LB,z,m,./images/DANCERLB.png,,,,,,,,,,,,,,,,,,,,,z,1,0.9245,,,,,,,,0,123,123,105,1
,,,,,,,,,,,,,,,,,61083d12d8c72b16cb135a6b,25,2022-02-12_13h24.41.122,lexical_decision_task_DD_L3,2021.2.3,Win32,59.91252771,,,,,,,,,,,0.9115,1,,,,,,,,,,,,,,,,,,,,,,,,0.009259259,-0.388888889,0,0,0,,,,,,,GLOVE,C,z,m,./images/GLOVE.png,,,,,,,,,,,,,,,,,,,,,z,1,0.9115,,,,,,,,0,124,124,157,1
,,,,,,,,,,,,,,,,,61083d12d8c72b16cb135a6b,25,2022-02-12_13h24.41.122,lexical_decision_task_DD_L3,2021.2.3,Win32,59.91252771,,,,,,,,,,,0.674,1,,,,,,,,,,,,,,,,,,,,,,,,0.009259259,-0.388888889,0,0,0,space,,,,,,POSTER,HB,z,m,./images/POSTERHB.png,19.0531,,,,,,,,,,,,,,,,,,,,z,1,0.674,,,,,,,,0,125,125,137,1
,,,,,,,,,,,,,,,,,61083d12d8c72b16cb135a6b,25,2022-02-12_13h24.41.122,lexical_decision_task_DD_L3,2021.2.3,Win32,59.91252771,,,,,,,,,,,0.8153,1,,,,,,,,,,,,,,,,,,,,,,,,0.009259259,-0.388888889,0,0,0,,,,,,,BUBBLE,HB,z,m,./images/BUBBLEHB.png,,,,,,,,,,,,,,,,,,,,,z,1,0.8153,,,,,,,,0,126,126,155,1
,,,,,,,,,,,,,,,,,61083d12d8c72b16cb135a6b,25,2022-02-12_13h24.41.122,lexical_decision_task_DD_L3,2021.2.3,Win32,59.91252771,,,,,,,,,,,0.9746,0,,,,,,,,,,,,,,,,,,,,,,,,0.009259259,-0.388888889,0,0,0,,,,,,,STRING,HB,m,m,./images/STRINGHB.png,,,,,,,,,,,,,,,,,,,,,z,0,0.9746,,,,,,,,0,127,127,41,1
,,,,,,,,,,,,,,,,,61083d12d8c72b16cb135a6b,25,2022-02-12_13h24.41.122,lexical_decision_task_DD_L3,2021.2.3,Win32,59.91252771,,,,,,,,,,,1.1217,0,,,,,,,,,,,,,,,,,,,,,,,,0.009259259,-0.388888889,0,0,0,,,,,,,POODLE,LB,m,m,./images/POODLELB.png,,,,,,,,,,,,,,,,,,,,,z,0,1.1217,,,,,,,,0,128,128,81,1
,,,,,,,,,,,,,,,,,61083d12d8c72b16cb135a6b,25,2022-02-12_13h24.41.122,lexical_decision_task_DD_L3,2021.2.3,Win32,59.91252771,,,,,,,,,,,1.6598,1,,,,,,,,,,,,,,,,,,,,,,,,0.009259259,-0.388888889,0,0,0,,,,,,,LADDER,HB,m,m,./images/LADDERHB.png,,,,,,,,,,,,,,,,,,,,,m,1,1.6598,,,,,,,,0,129,129,38,1
,,,,,,,,,,,,,,,,,61083d12d8c72b16cb135a6b,25,2022-02-12_13h24.41.122,lexical_decision_task_DD_L3,2021.2.3,Win32,59.91252771,,,,,,,,,,,0.6137,1,,,,,,,,,,,,,,,,,,,,,,,,0.009259259,-0.388888889,0,0,0,,,,,,,PLANET,HB,z,m,./images/PLANETHB.png,,,,,,,,,,,,,,,,,,,,,z,1,0.6137,,,,,,,,0,130,130,164,1
,,,,,,,,,,,,,,,,,61083d12d8c72b16cb135a6b,25,2022-02-12_13h24.41.122,lexical_decision_task_DD_L3,2021.2.3,Win32,59.91252771,,,,,,,,,,,0.7537,0,,,,,,,,,,,,,,,,,,,,,,,,0.009259259,-0.388888889,0,0,0,,,,,,,INFANT,C,m,m,./images/INFANT.png,,,,,,,,,,,,,,,,,,,,,z,0,0.7537,,,,,,,,0,131,131,76,1
