key_resp.keys,instr_done_touch.x,instr_done_touch.y,instr_done_touch.leftButton,instr_done_touch.midButton,instr_done_touch.rightButton,instr_done_touch.clicked_name,instruction_pages.thisRepN,instruction_pages.thisTrialN,instruction_pages.thisN,instruction_pages.thisIndex,instruction_pages.ran,pageN,phase,instruct_text,has_image,instruct_image,participant,age,date,expName,psychopyVersion,OS,frameRate,response.keys,response.corr,touch_resp.x,touch_resp.y,touch_resp.leftButton,touch_resp.midButton,touch_resp.rightButton,touch_resp.time,touch_resp.clicked_name,rt,corr,practrials.thisRepN,practrials.thisTrialN,practrials.thisN,practrials.thisIndex,practrials.ran,TrialID,Target,corrAns,end_of_practice_trials_pages.thisRepN,end_of_practice_trials_pages.thisTrialN,end_of_practice_trials_pages.thisN,end_of_practice_trials_pages.thisIndex,end_of_practice_trials_pages.ran,key_resp_2.keys,key_resp_2.corr,targ_click.x,targ_click.y,targ_click.leftButton,targ_click.midButton,targ_click.rightButton,targ_click.time,targ_click.clicked_name,break_done_touch.x,break_done_touch.y,break_done_touch.leftButton,break_done_touch.midButton,break_done_touch.rightButton,break_done_keyboard.keys,maintrials.thisRepN,maintrials.thisTrialN,maintrials.thisN,maintrials.thisIndex,maintrials.ran,string,blur,study,lex,stim_path,break_done_touch.clicked_name,mouse_2.x,mouse_2.y,mouse_2.leftButton,mouse_2.midButton,mouse_2.rightButton,mouse_2.clicked_name,slider.response,slider.rt,trials.thisRepN,trials.thisTrialN,trials.thisN,trials.thisIndex,trials.ran,test_instructions.thisRepN,test_instructions.thisTrialN,test_instructions.thisN,test_instructions.thisIndex,test_instructions.ran,key_resp_3.keys,key_resp_3.corr,test_click.x,test_click.y,test_click.leftButton,test_click.midButton,test_click.rightButton,test_click.time,test_click.clicked_name,test_phase.thisRepN,test_phase.thisTrialN,test_phase.thisN,test_phase.thisIndex,test_phase.ran
,0.072222222,-0.387301587,1,0,0,instr_done_button,0,0,0,0,1,1,instructions,"INSTRUCTIONS
At the start of each trial, look at the plus sign  (+) in the center of the screen.  This tells you that a trial is about to begin and where to look. Second, the plus sign will disappear and a string of letters will appear. Your task is to determine if the string of letters is a word or not. If the item is a word press the M key (on keyboard)  or touch the word button (phone/tablet).  If the item is not a word,  press the  Z key (on keyboard)  or touch the nonword button (on phone/tablet). 
Press the space bar or touch  continue.",0,,61097b783bcdb1cec05c57e5,68,2022-02-12_13h40.03.897,lexical_decision_task_DD_L6,2021.2.3,iPad,62.5,,,,,,,,,,,,,,,,,,,,,,,,,,,,,,,,,,,,,,,,,,,,,,,,,,,,,,,,,,,,,,,,,,,,,,,,,,,,,,,,,,
,0.045238095,-0.376190476,1,0,0,instr_done_button,0,1,1,1,1,2,instructions,"If your device has a keyboard, press the 'Z' key for nonwords and the 'M' key for words.





Press the space bar or touch the button below to continue.",0,keyboard-example.gif,61097b783bcdb1cec05c57e5,68,2022-02-12_13h40.03.897,lexical_decision_task_DD_L6,2021.2.3,iPad,62.5,,,,,,,,,,,,,,,,,,,,,,,,,,,,,,,,,,,,,,,,,,,,,,,,,,,,,,,,,,,,,,,,,,,,,,,,,,,,,,,,,,
,0.051587302,-0.40952381,1,0,0,instr_done_button,0,2,2,2,1,3,instructions,"If you are using a touchscreen only device, use the buttons on the screen. Do not use the mouse.





Press the space bar or touch the button below to continue.",0,touchscreen-example.gif,61097b783bcdb1cec05c57e5,68,2022-02-12_13h40.03.897,lexical_decision_task_DD_L6,2021.2.3,iPad,62.5,,,,,,,,,,,,,,,,,,,,,,,,,,,,,,,,,,,,,,,,,,,,,,,,,,,,,,,,,,,,,,,,,,,,,,,,,,,,,,,,,,
,0.061111111,-0.39047619,1,0,0,instr_done_button,0,3,3,3,1,4,instructions,"It is very important that you respond as quickly and accurately as possible, as each letter string will only be on the screen for two seconds. If you do not respond within this time, the message 'Too slow!' will be displayed and the experiment will progress to the next letter string. The first 20 trials will be practice trials and you will receive feedback on your answers. 

Press the space bar or touch the button below to start the practice trials.",0,,61097b783bcdb1cec05c57e5,68,2022-02-12_13h40.03.897,lexical_decision_task_DD_L6,2021.2.3,iPad,62.5,,,,,,,,,,,,,,,,,,,,,,,,,,,,,,,,,,,,,,,,,,,,,,,,,,,,,,,,,,,,,,,,,,,,,,,,,,,,,,,,,,
,,,,,,,,,,,,,,,,,61097b783bcdb1cec05c57e5,68,2022-02-12_13h40.03.897,lexical_decision_task_DD_L6,2021.2.3,iPad,62.5,,0,0.35,-0.331746032,1,0,0,2.343,button_right,2.343,1,0,0,0,5,1,1001,OBTAIN,m,,,,,,,,,,,,,,,,,,,,,,,,,,,,,,,,,,,,,,,,,,,,,,,,,,,,,,,,,,,,,,,
,,,,,,,,,,,,,,,,,61097b783bcdb1cec05c57e5,68,2022-02-12_13h40.03.897,lexical_decision_task_DD_L6,2021.2.3,iPad,62.5,,0,-0.454761905,-0.30952381,1,0,0,1.275,button_left,1.275,1,0,1,1,13,1,1001,ROUPET,z,,,,,,,,,,,,,,,,,,,,,,,,,,,,,,,,,,,,,,,,,,,,,,,,,,,,,,,,,,,,,,,
,,,,,,,,,,,,,,,,,61097b783bcdb1cec05c57e5,68,2022-02-12_13h40.03.897,lexical_decision_task_DD_L6,2021.2.3,iPad,62.5,,0,-0.461111111,-0.304761905,1,0,0,0.746,button_left,0.746,1,0,2,2,14,1,1001,THRALE,z,,,,,,,,,,,,,,,,,,,,,,,,,,,,,,,,,,,,,,,,,,,,,,,,,,,,,,,,,,,,,,,
,,,,,,,,,,,,,,,,,61097b783bcdb1cec05c57e5,68,2022-02-12_13h40.03.897,lexical_decision_task_DD_L6,2021.2.3,iPad,62.5,,0,0.446825397,-0.296825397,1,0,0,2.74,button_right,2.74,1,0,3,3,1,1,1001,ADJUST,m,,,,,,,,,,,,,,,,,,,,,,,,,,,,,,,,,,,,,,,,,,,,,,,,,,,,,,,,,,,,,,,
,,,,,,,,,,,,,,,,,61097b783bcdb1cec05c57e5,68,2022-02-12_13h40.03.897,lexical_decision_task_DD_L6,2021.2.3,iPad,62.5,,0,0.435714286,-0.261904762,1,0,0,0.966,button_right,0.966,1,0,4,4,4,1,1001,SQUEAK,m,,,,,,,,,,,,,,,,,,,,,,,,,,,,,,,,,,,,,,,,,,,,,,,,,,,,,,,,,,,,,,,
,,,,,,,,,,,,,,,,,61097b783bcdb1cec05c57e5,68,2022-02-12_13h40.03.897,lexical_decision_task_DD_L6,2021.2.3,iPad,62.5,,0,-0.429365079,-0.304761905,1,0,0,0.865,button_left,0.865,1,0,5,5,15,1,1001,WHAISE,z,,,,,,,,,,,,,,,,,,,,,,,,,,,,,,,,,,,,,,,,,,,,,,,,,,,,,,,,,,,,,,,
,,,,,,,,,,,,,,,,,61097b783bcdb1cec05c57e5,68,2022-02-12_13h40.03.897,lexical_decision_task_DD_L6,2021.2.3,iPad,62.5,,0,0.446825397,-0.288888889,1,0,0,0.742,button_right,0.742,1,0,6,6,7,1,1001,VOLUME,m,,,,,,,,,,,,,,,,,,,,,,,,,,,,,,,,,,,,,,,,,,,,,,,,,,,,,,,,,,,,,,,
,,,,,,,,,,,,,,,,,61097b783bcdb1cec05c57e5,68,2022-02-12_13h40.03.897,lexical_decision_task_DD_L6,2021.2.3,iPad,62.5,,0,0.461111111,-0.274603175,1,0,0,0.924,button_right,0.924,1,0,7,7,0,1,1001,UTOPIA,m,,,,,,,,,,,,,,,,,,,,,,,,,,,,,,,,,,,,,,,,,,,,,,,,,,,,,,,,,,,,,,,
,,,,,,,,,,,,,,,,,61097b783bcdb1cec05c57e5,68,2022-02-12_13h40.03.897,lexical_decision_task_DD_L6,2021.2.3,iPad,62.5,,0,0.446825397,-0.284126984,1,0,0,0.699,button_right,0.699,1,0,8,8,2,1,1001,ALMOND,m,,,,,,,,,,,,,,,,,,,,,,,,,,,,,,,,,,,,,,,,,,,,,,,,,,,,,,,,,,,,,,,
,,,,,,,,,,,,,,,,,61097b783bcdb1cec05c57e5,68,2022-02-12_13h40.03.897,lexical_decision_task_DD_L6,2021.2.3,iPad,62.5,,0,-0.413492063,-0.304761905,1,0,0,0.872,button_left,0.872,1,0,9,9,11,1,1001,RASHET,z,,,,,,,,,,,,,,,,,,,,,,,,,,,,,,,,,,,,,,,,,,,,,,,,,,,,,,,,,,,,,,,
,,,,,,,,,,,,,,,,,61097b783bcdb1cec05c57e5,68,2022-02-12_13h40.03.897,lexical_decision_task_DD_L6,2021.2.3,iPad,62.5,,0,-0.413492063,-0.29047619,1,0,0,0.765,button_left,0.765,1,0,10,10,10,1,1001,INLADE,z,,,,,,,,,,,,,,,,,,,,,,,,,,,,,,,,,,,,,,,,,,,,,,,,,,,,,,,,,,,,,,,
,,,,,,,,,,,,,,,,,61097b783bcdb1cec05c57e5,68,2022-02-12_13h40.03.897,lexical_decision_task_DD_L6,2021.2.3,iPad,62.5,,0,-0.408730159,-0.29047619,1,0,0,0.948,button_left,0.948,1,0,11,11,9,1,1001,FARINY,z,,,,,,,,,,,,,,,,,,,,,,,,,,,,,,,,,,,,,,,,,,,,,,,,,,,,,,,,,,,,,,,
,,,,,,,,,,,,,,,,,61097b783bcdb1cec05c57e5,68,2022-02-12_13h40.03.897,lexical_decision_task_DD_L6,2021.2.3,iPad,62.5,,0,-0.416666667,-0.292063492,1,0,0,0.848,button_left,0.848,1,0,12,12,12,1,1001,SPRINY,z,,,,,,,,,,,,,,,,,,,,,,,,,,,,,,,,,,,,,,,,,,,,,,,,,,,,,,,,,,,,,,,
,,,,,,,,,,,,,,,,,61097b783bcdb1cec05c57e5,68,2022-02-12_13h40.03.897,lexical_decision_task_DD_L6,2021.2.3,iPad,62.5,,0,0.446825397,-0.26984127,1,0,0,0.926,button_right,0.926,1,0,13,13,3,1,1001,MATRIX,m,,,,,,,,,,,,,,,,,,,,,,,,,,,,,,,,,,,,,,,,,,,,,,,,,,,,,,,,,,,,,,,
,,,,,,,,,,,,,,,,,61097b783bcdb1cec05c57e5,68,2022-02-12_13h40.03.897,lexical_decision_task_DD_L6,2021.2.3,iPad,62.5,,0,-0.407142857,-0.295238095,1,0,0,0.933,button_left,0.933,1,0,14,14,8,1,1001,ASLERT,z,,,,,,,,,,,,,,,,,,,,,,,,,,,,,,,,,,,,,,,,,,,,,,,,,,,,,,,,,,,,,,,
,,,,,,,,,,,,,,,,,61097b783bcdb1cec05c57e5,68,2022-02-12_13h40.03.897,lexical_decision_task_DD_L6,2021.2.3,iPad,62.5,,0,0.461111111,-0.306349206,1,0,0,1.092,button_right,1.092,1,0,15,15,6,1,1001,ZOMBIE,m,,,,,,,,,,,,,,,,,,,,,,,,,,,,,,,,,,,,,,,,,,,,,,,,,,,,,,,,,,,,,,,
,0.038888889,-0.393650794,1,0,0,instr_done_button,,,,,,1,end_of_practice,"You have completed the practice trials. During the experimental trials, you will not receive feedback. 
Before you begin, please ensure that you are in a comfortable and quiet location and will not be disturbed for about 15 minutes, as we cannot use your data if you do not complete all the trials. 
 When you are ready to start the experimental trials, please press space or touch the button below.",,,61097b783bcdb1cec05c57e5,68,2022-02-12_13h40.03.897,lexical_decision_task_DD_L6,2021.2.3,iPad,62.5,,,,,,,,,,,,,,,,,,,,0,0,0,0,1,,,,,,,,,,,,,,,,,,,,,,,,,,,,,,,,,,,,,,,,,,,,,,,,,,,,,,,,,,
,,,,,,,,,,,,,,,,,61097b783bcdb1cec05c57e5,68,2022-02-12_13h40.03.897,lexical_decision_task_DD_L6,2021.2.3,iPad,62.5,,,,,,,,,,3.896,1,,,,,,,,,,,,,,,0,0.456349206,-0.322222222,1,0,0,3.896,button_right_main,0.456349206,-0.322222222,1,0,0,,0,0,0,38,1,ENGINE,HB,m,m,./images/ENGINEHB.png,,,,,,,,,,,,,,,,,,,,,,,,,,,,,,,,,
,,,,,,,,,,,,,,,,,61097b783bcdb1cec05c57e5,68,2022-02-12_13h40.03.897,lexical_decision_task_DD_L6,2021.2.3,iPad,62.5,,,,,,,,,,0.759,1,,,,,,,,,,,,,,,0,0.462698413,-0.287301587,1,0,0,0.759,button_right_main,0.462698413,-0.287301587,1,0,0,,0,1,1,46,1,MUMMY,C,m,m,./images/MUMMY.png,,,,,,,,,,,,,,,,,,,,,,,,,,,,,,,,,
,,,,,,,,,,,,,,,,,61097b783bcdb1cec05c57e5,68,2022-02-12_13h40.03.897,lexical_decision_task_DD_L6,2021.2.3,iPad,62.5,,,,,,,,,,2.575,1,,,,,,,,,,,,,,,0,0.461111111,-0.298412698,1,0,0,2.575,button_right_main,0.461111111,-0.298412698,1,0,0,,0,2,2,44,1,BASKET,HB,m,m,./images/BASKETHB.png,,,,,,,,,,,,,,,,,,,,,,,,,,,,,,,,,
,,,,,,,,,,,,,,,,,61097b783bcdb1cec05c57e5,68,2022-02-12_13h40.03.897,lexical_decision_task_DD_L6,2021.2.3,iPad,62.5,,,,,,,,,,0.942,1,,,,,,,,,,,,,,,0,-0.456349206,-0.252380952,1,0,0,0.942,button_left_main,-0.456349206,-0.252380952,1,0,0,,0,3,3,144,1,NAIRY,C,z,z,./images/NAIRY.png,,,,,,,,,,,,,,,,,,,,,,,,,,,,,,,,,
,,,,,,,,,,,,,,,,,61097b783bcdb1cec05c57e5,68,2022-02-12_13h40.03.897,lexical_decision_task_DD_L6,2021.2.3,iPad,62.5,,,,,,,,,,1.162,1,,,,,,,,,,,,,,,0,0.467460317,-0.301587302,1,0,0,1.162,button_right_main,0.467460317,-0.301587302,1,0,0,,0,4,4,8,1,CLIFF,HB,m,m,./images/CLIFFHB.png,,,,,,,,,,,,,,,,,,,,,,,,,,,,,,,,,
,,,,,,,,,,,,,,,,,61097b783bcdb1cec05c57e5,68,2022-02-12_13h40.03.897,lexical_decision_task_DD_L6,2021.2.3,iPad,62.5,,,,,,,,,,0.761,1,,,,,,,,,,,,,,,0,0.472222222,-0.292063492,1,0,0,0.761,button_right_main,0.472222222,-0.292063492,1,0,0,,0,5,5,79,1,RULER,C,m,m,./images/RULER.png,,,,,,,,,,,,,,,,,,,,,,,,,,,,,,,,,
,,,,,,,,,,,,,,,,,61097b783bcdb1cec05c57e5,68,2022-02-12_13h40.03.897,lexical_decision_task_DD_L6,2021.2.3,iPad,62.5,,,,,,,,,,1.476,1,,,,,,,,,,,,,,,0,-0.402380952,-0.287301587,1,0,0,1.476,button_left_main,-0.402380952,-0.287301587,1,0,0,,0,6,6,103,1,FLORT,HB,z,z,./images/FLORTHB.png,,,,,,,,,,,,,,,,,,,,,,,,,,,,,,,,,
,,,,,,,,,,,,,,,,,61097b783bcdb1cec05c57e5,68,2022-02-12_13h40.03.897,lexical_decision_task_DD_L6,2021.2.3,iPad,62.5,,,,,,,,,,0.877,1,,,,,,,,,,,,,,,0,-0.446825397,-0.33968254,1,0,0,0.877,button_left_main,-0.446825397,-0.33968254,1,0,0,,0,7,7,101,1,GLEET,LB,z,z,./images/GLEETLB.png,,,,,,,,,,,,,,,,,,,,,,,,,,,,,,,,,
,,,,,,,,,,,,,,,,,61097b783bcdb1cec05c57e5,68,2022-02-12_13h40.03.897,lexical_decision_task_DD_L6,2021.2.3,iPad,62.5,,,,,,,,,,0.634,1,,,,,,,,,,,,,,,0,0.45,-0.285714286,1,0,0,0.634,button_right_main,0.45,-0.285714286,1,0,0,,0,8,8,67,1,POKER,C,m,m,./images/POKER.png,,,,,,,,,,,,,,,,,,,,,,,,,,,,,,,,,
,,,,,,,,,,,,,,,,,61097b783bcdb1cec05c57e5,68,2022-02-12_13h40.03.897,lexical_decision_task_DD_L6,2021.2.3,iPad,62.5,,,,,,,,,,0.876,1,,,,,,,,,,,,,,,0,0.454761905,-0.279365079,1,0,0,0.876,button_right_main,0.454761905,-0.279365079,1,0,0,,0,9,9,68,1,VALLEY,HB,m,m,./images/VALLEYHB.png,,,,,,,,,,,,,,,,,,,,,,,,,,,,,,,,,
,,,,,,,,,,,,,,,,,61097b783bcdb1cec05c57e5,68,2022-02-12_13h40.03.897,lexical_decision_task_DD_L6,2021.2.3,iPad,62.5,,,,,,,,,,0.812,1,,,,,,,,,,,,,,,0,-0.407142857,-0.292063492,1,0,0,0.812,button_left_main,-0.407142857,-0.292063492,1,0,0,,0,10,10,147,1,ZOLES,C,z,z,./images/ZOLES.png,,,,,,,,,,,,,,,,,,,,,,,,,,,,,,,,,
,,,,,,,,,,,,,,,,,61097b783bcdb1cec05c57e5,68,2022-02-12_13h40.03.897,lexical_decision_task_DD_L6,2021.2.3,iPad,62.5,,,,,,,,,,0.811,1,,,,,,,,,,,,,,,0,0.457936508,-0.295238095,1,0,0,0.811,button_right_main,0.457936508,-0.295238095,1,0,0,,0,11,11,76,1,MIDGET,C,m,m,./images/MIDGET.png,,,,,,,,,,,,,,,,,,,,,,,,,,,,,,,,,
,,,,,,,,,,,,,,,,,61097b783bcdb1cec05c57e5,68,2022-02-12_13h40.03.897,lexical_decision_task_DD_L6,2021.2.3,iPad,62.5,,,,,,,,,,1.618,1,,,,,,,,,,,,,,,0,0.429365079,-0.277777778,1,0,0,1.618,button_right_main,0.429365079,-0.277777778,1,0,0,,0,12,12,74,1,JUMPER,HB,m,m,./images/JUMPERHB.png,,,,,,,,,,,,,,,,,,,,,,,,,,,,,,,,,
,,,,,,,,,,,,,,,,,61097b783bcdb1cec05c57e5,68,2022-02-12_13h40.03.897,lexical_decision_task_DD_L6,2021.2.3,iPad,62.5,,,,,,,,,,0.834,1,,,,,,,,,,,,,,,0,0.437301587,-0.29047619,1,0,0,0.834,button_right_main,0.437301587,-0.29047619,1,0,0,,0,13,13,39,1,CANDY,LB,m,m,./images/CANDYLB.png,,,,,,,,,,,,,,,,,,,,,,,,,,,,,,,,,
,,,,,,,,,,,,,,,,,61097b783bcdb1cec05c57e5,68,2022-02-12_13h40.03.897,lexical_decision_task_DD_L6,2021.2.3,iPad,62.5,,,,,,,,,,0.6,1,,,,,,,,,,,,,,,0,0.423015873,-0.268253968,1,0,0,0.6,button_right_main,0.423015873,-0.268253968,1,0,0,,0,14,14,63,1,BAKER,LB,m,m,./images/BAKERLB.png,,,,,,,,,,,,,,,,,,,,,,,,,,,,,,,,,
,,,,,,,,,,,,,,,,,61097b783bcdb1cec05c57e5,68,2022-02-12_13h40.03.897,lexical_decision_task_DD_L6,2021.2.3,iPad,62.5,,,,,,,,,,0.593,1,,,,,,,,,,,,,,,0,0.41031746,-0.277777778,1,0,0,0.593,button_right_main,0.41031746,-0.277777778,1,0,0,,0,15,15,4,1,BOXER,C,m,m,./images/BOXER.png,,,,,,,,,,,,,,,,,,,,,,,,,,,,,,,,,
,,,,,,,,,,,,,,,,,61097b783bcdb1cec05c57e5,68,2022-02-12_13h40.03.897,lexical_decision_task_DD_L6,2021.2.3,iPad,62.5,,,,,,,,,,0.819,1,,,,,,,,,,,,,,,0,-0.367460317,-0.317460317,1,0,0,0.819,button_left_main,-0.367460317,-0.317460317,1,0,0,,0,16,16,114,1,RIKES,C,z,z,./images/RIKES.png,,,,,,,,,,,,,,,,,,,,,,,,,,,,,,,,,
,,,,,,,,,,,,,,,,,61097b783bcdb1cec05c57e5,68,2022-02-12_13h40.03.897,lexical_decision_task_DD_L6,2021.2.3,iPad,62.5,,,,,,,,,,0.076,1,,,,,,,,,,,,,,,0,0.035714286,0.019047619,1,0,0,0.076,button_left_main,-0.391269841,-0.282539683,1,0,0,,0,17,17,86,1,AIFED,LB,z,z,./images/AIFEDLB.png,,,,,,,,,,,,,,,,,,,,,,,,,,,,,,,,,
,,,,,,,,,,,,,,,,,61097b783bcdb1cec05c57e5,68,2022-02-12_13h40.03.897,lexical_decision_task_DD_L6,2021.2.3,iPad,62.5,,,,,,,,,,1.016,1,,,,,,,,,,,,,,,0,0.373809524,-0.301587302,1,0,0,1.016,button_right_main,0.373809524,-0.301587302,1,0,0,,0,18,18,52,1,DESERT,C,m,m,./images/DESERT.png,,,,,,,,,,,,,,,,,,,,,,,,,,,,,,,,,
,,,,,,,,,,,,,,,,,61097b783bcdb1cec05c57e5,68,2022-02-12_13h40.03.897,lexical_decision_task_DD_L6,2021.2.3,iPad,62.5,,,,,,,,,,1.101,1,,,,,,,,,,,,,,,0,-0.388095238,-0.292063492,1,0,0,1.101,button_left_main,-0.388095238,-0.292063492,1,0,0,,0,19,19,148,1,JOMS,HB,z,z,./images/JOMSHB.png,,,,,,,,,,,,,,,,,,,,,,,,,,,,,,,,,
,,,,,,,,,,,,,,,,,61097b783bcdb1cec05c57e5,68,2022-02-12_13h40.03.897,lexical_decision_task_DD_L6,2021.2.3,iPad,62.5,,,,,,,,,,0.024,1,,,,,,,,,,,,,,,0,0.032539683,0.004761905,1,0,0,0.024,button_left_main,-0.391269841,-0.288888889,1,0,0,,0,20,20,99,1,BACKY,C,z,z,./images/BACKY.png,,,,,,,,,,,,,,,,,,,,,,,,,,,,,,,,,
,,,,,,,,,,,,,,,,,61097b783bcdb1cec05c57e5,68,2022-02-12_13h40.03.897,lexical_decision_task_DD_L6,2021.2.3,iPad,62.5,,,,,,,,,,0.883,1,,,,,,,,,,,,,,,0,0.361111111,-0.234920635,1,0,0,0.883,button_right_main,0.361111111,-0.234920635,1,0,0,,0,21,21,47,1,LAGOON,HB,m,m,./images/LAGOONHB.png,,,,,,,,,,,,,,,,,,,,,,,,,,,,,,,,,
,,,,,,,,,,,,,,,,,61097b783bcdb1cec05c57e5,68,2022-02-12_13h40.03.897,lexical_decision_task_DD_L6,2021.2.3,iPad,62.5,,,,,,,,,,0.784,1,,,,,,,,,,,,,,,0,0.392857143,-0.23968254,1,0,0,0.784,button_right_main,0.392857143,-0.23968254,1,0,0,,0,22,22,78,1,BROOM,LB,m,m,./images/BROOMLB.png,,,,,,,,,,,,,,,,,,,,,,,,,,,,,,,,,
,,,,,,,,,,,,,,,,,61097b783bcdb1cec05c57e5,68,2022-02-12_13h40.03.897,lexical_decision_task_DD_L6,2021.2.3,iPad,62.5,,,,,,,,,,0.732,1,,,,,,,,,,,,,,,0,0.386507937,-0.253968254,1,0,0,0.732,button_right_main,0.386507937,-0.253968254,1,0,0,,0,23,23,22,1,CLOWN,C,m,m,./images/CLOWN.png,,,,,,,,,,,,,,,,,,,,,,,,,,,,,,,,,
,,,,,,,,,,,,,,,,,61097b783bcdb1cec05c57e5,68,2022-02-12_13h40.03.897,lexical_decision_task_DD_L6,2021.2.3,iPad,62.5,,,,,,,,,,0.718,1,,,,,,,,,,,,,,,0,-0.378571429,-0.293650794,1,0,0,0.718,button_left_main,-0.378571429,-0.293650794,1,0,0,,0,24,24,162,1,LEICH,C,z,z,./images/LEICH.png,,,,,,,,,,,,,,,,,,,,,,,,,,,,,,,,,
,,,,,,,,,,,,,,,,,61097b783bcdb1cec05c57e5,68,2022-02-12_13h40.03.897,lexical_decision_task_DD_L6,2021.2.3,iPad,62.5,,,,,,,,,,0.709,1,,,,,,,,,,,,,,,0,0.38015873,-0.249206349,1,0,0,0.709,button_right_main,0.38015873,-0.249206349,1,0,0,,0,25,25,9,1,DIVER,LB,m,m,./images/DIVERLB.png,,,,,,,,,,,,,,,,,,,,,,,,,,,,,,,,,
,,,,,,,,,,,,,,,,,61097b783bcdb1cec05c57e5,68,2022-02-12_13h40.03.897,lexical_decision_task_DD_L6,2021.2.3,iPad,62.5,,,,,,,,,,0.592,1,,,,,,,,,,,,,,,0,0.383333333,-0.246031746,1,0,0,0.592,button_right_main,0.383333333,-0.246031746,1,0,0,,0,26,26,7,1,WAGON,C,m,m,./images/WAGON.png,,,,,,,,,,,,,,,,,,,,,,,,,,,,,,,,,
,,,,,,,,,,,,,,,,,61097b783bcdb1cec05c57e5,68,2022-02-12_13h40.03.897,lexical_decision_task_DD_L6,2021.2.3,iPad,62.5,,,,,,,,,,0.901,1,,,,,,,,,,,,,,,0,0.375396825,-0.257142857,1,0,0,0.901,button_right_main,0.375396825,-0.257142857,1,0,0,,0,27,27,32,1,HOCKEY,HB,m,m,./images/HOCKEYHB.png,,,,,,,,,,,,,,,,,,,,,,,,,,,,,,,,,
,,,,,,,,,,,,,,,,,61097b783bcdb1cec05c57e5,68,2022-02-12_13h40.03.897,lexical_decision_task_DD_L6,2021.2.3,iPad,62.5,,,,,,,,,,0.867,1,,,,,,,,,,,,,,,0,-0.330952381,-0.325396825,1,0,0,0.867,button_left_main,-0.330952381,-0.325396825,1,0,0,,0,28,28,92,1,PAIMS,LB,z,z,./images/PAIMSLB.png,,,,,,,,,,,,,,,,,,,,,,,,,,,,,,,,,
,,,,,,,,,,,,,,,,,61097b783bcdb1cec05c57e5,68,2022-02-12_13h40.03.897,lexical_decision_task_DD_L6,2021.2.3,iPad,62.5,,,,,,,,,,0.61,1,,,,,,,,,,,,,,,0,0.394444444,-0.234920635,1,0,0,0.61,button_right_main,0.394444444,-0.234920635,1,0,0,,0,29,29,31,1,STEAK,C,m,m,./images/STEAK.png,,,,,,,,,,,,,,,,,,,,,,,,,,,,,,,,,
,,,,,,,,,,,,,,,,,61097b783bcdb1cec05c57e5,68,2022-02-12_13h40.03.897,lexical_decision_task_DD_L6,2021.2.3,iPad,62.5,,,,,,,,,,0.577,1,,,,,,,,,,,,,,,0,0.381746032,-0.223809524,1,0,0,0.577,button_right_main,0.381746032,-0.223809524,1,0,0,,0,30,30,19,1,DONKEY,C,m,m,./images/DONKEY.png,,,,,,,,,,,,,,,,,,,,,,,,,,,,,,,,,
,,,,,,,,,,,,,,,,,61097b783bcdb1cec05c57e5,68,2022-02-12_13h40.03.897,lexical_decision_task_DD_L6,2021.2.3,iPad,62.5,,,,,,,,,,1.066,1,,,,,,,,,,,,,,,0,-0.361111111,-0.296825397,1,0,0,1.066,button_left_main,-0.361111111,-0.296825397,1,0,0,,0,31,31,111,1,HOSSE,C,z,z,./images/HOSSE.png,,,,,,,,,,,,,,,,,,,,,,,,,,,,,,,,,
,,,,,,,,,,,,,,,,,61097b783bcdb1cec05c57e5,68,2022-02-12_13h40.03.897,lexical_decision_task_DD_L6,2021.2.3,iPad,62.5,,,,,,,,,,1.185,1,,,,,,,,,,,,,,,0,0.383333333,-0.250793651,1,0,0,1.185,button_right_main,0.383333333,-0.250793651,1,0,0,,0,32,32,80,1,PLANET,HB,m,m,./images/PLANETHB.png,,,,,,,,,,,,,,,,,,,,,,,,,,,,,,,,,
,,,,,,,,,,,,,,,,,61097b783bcdb1cec05c57e5,68,2022-02-12_13h40.03.897,lexical_decision_task_DD_L6,2021.2.3,iPad,62.5,,,,,,,,,,0.867,1,,,,,,,,,,,,,,,0,-0.378571429,-0.293650794,1,0,0,0.867,button_left_main,-0.378571429,-0.293650794,1,0,0,,0,33,33,149,1,VEASE,LB,z,z,./images/VEASELB.png,,,,,,,,,,,,,,,,,,,,,,,,,,,,,,,,,
,,,,,,,,,,,,,,,,,61097b783bcdb1cec05c57e5,68,2022-02-12_13h40.03.897,lexical_decision_task_DD_L6,2021.2.3,iPad,62.5,,,,,,,,,,0.826,1,,,,,,,,,,,,,,,0,-0.373809524,-0.3,1,0,0,0.826,button_left_main,-0.373809524,-0.3,1,0,0,,0,34,34,116,1,BALGY,LB,z,z,./images/BALGYLB.png,,,,,,,,,,,,,,,,,,,,,,,,,,,,,,,,,
,,,,,,,,,,,,,,,,,61097b783bcdb1cec05c57e5,68,2022-02-12_13h40.03.897,lexical_decision_task_DD_L6,2021.2.3,iPad,62.5,,,,,,,,,,0.969,1,,,,,,,,,,,,,,,0,-0.370634921,-0.287301587,1,0,0,0.969,button_left_main,-0.370634921,-0.287301587,1,0,0,,0,35,35,122,1,BLOOT,LB,z,z,./images/BLOOTLB.png,,,,,,,,,,,,,,,,,,,,,,,,,,,,,,,,,
,,,,,,,,,,,,,,,,,61097b783bcdb1cec05c57e5,68,2022-02-12_13h40.03.897,lexical_decision_task_DD_L6,2021.2.3,iPad,62.5,,,,,,,,,,0.732,1,,,,,,,,,,,,,,,0,0.399206349,-0.263492063,1,0,0,0.732,button_right_main,0.399206349,-0.263492063,1,0,0,,0,36,36,61,1,ARTIST,C,m,m,./images/ARTIST.png,,,,,,,,,,,,,,,,,,,,,,,,,,,,,,,,,
,,,,,,,,,,,,,,,,,61097b783bcdb1cec05c57e5,68,2022-02-12_13h40.03.897,lexical_decision_task_DD_L6,2021.2.3,iPad,62.5,,,,,,,,,,0.711,1,,,,,,,,,,,,,,,0,0.397619048,-0.236507937,1,0,0,0.711,button_right_main,0.397619048,-0.236507937,1,0,0,,0,37,37,55,1,ALLEY,C,m,m,./images/ALLEY.png,,,,,,,,,,,,,,,,,,,,,,,,,,,,,,,,,
,,,,,,,,,,,,,,,,,61097b783bcdb1cec05c57e5,68,2022-02-12_13h40.03.897,lexical_decision_task_DD_L6,2021.2.3,iPad,62.5,,,,,,,,,,0.819,1,,,,,,,,,,,,,,,0,-0.357936508,-0.296825397,1,0,0,0.819,button_left_main,-0.357936508,-0.296825397,1,0,0,,0,38,38,138,1,PLICE,C,z,z,./images/PLICE.png,,,,,,,,,,,,,,,,,,,,,,,,,,,,,,,,,
,,,,,,,,,,,,,,,,,61097b783bcdb1cec05c57e5,68,2022-02-12_13h40.03.897,lexical_decision_task_DD_L6,2021.2.3,iPad,62.5,,,,,,,,,,0.809,1,,,,,,,,,,,,,,,0,-0.370634921,-0.284126984,1,0,0,0.809,button_left_main,-0.370634921,-0.284126984,1,0,0,,0,39,39,129,1,PRANS,C,z,z,./images/PRANS.png,,,,,,,,,,,,,,,,,,,,,,,,,,,,,,,,,
,,,,,,,,,,,,,,,,,61097b783bcdb1cec05c57e5,68,2022-02-12_13h40.03.897,lexical_decision_task_DD_L6,2021.2.3,iPad,62.5,,,,,,,,,,0.74,1,,,,,,,,,,,,,,,0,0.378571429,-0.247619048,1,0,0,0.74,button_right_main,0.378571429,-0.247619048,1,0,0,,0,40,40,48,1,SHIELD,LB,m,m,./images/SHIELDLB.png,,,,,,,,,,,,,,,,,,,,,,,,,,,,,,,,,
,,,,,,,,,,,,,,,,,61097b783bcdb1cec05c57e5,68,2022-02-12_13h40.03.897,lexical_decision_task_DD_L6,2021.2.3,iPad,62.5,,,,,,,,,,1.127,1,,,,,,,,,,,,,,,0,-0.373809524,-0.292063492,1,0,0,1.127,button_left_main,0.075396825,-0.373015873,1,0,0,,0,41,41,85,1,CHULK,HB,z,z,./images/CHULKHB.png,break_done_button,,,,,,,,,,,,,,,,,,,,,,,,,,,,,,,,
,,,,,,,,,,,,,,,,,61097b783bcdb1cec05c57e5,68,2022-02-12_13h40.03.897,lexical_decision_task_DD_L6,2021.2.3,iPad,62.5,,,,,,,,,,0.25,1,,,,,,,,,,,,,,,0,0.013492063,0.020634921,1,0,0,0.25,button_left_main,-0.372222222,-0.292063492,1,0,0,,0,42,42,166,1,SHORY,HB,z,z,./images/SHORYHB.png,,,,,,,,,,,,,,,,,,,,,,,,,,,,,,,,,
,,,,,,,,,,,,,,,,,61097b783bcdb1cec05c57e5,68,2022-02-12_13h40.03.897,lexical_decision_task_DD_L6,2021.2.3,iPad,62.5,,,,,,,,,,1.502,1,,,,,,,,,,,,,,,0,-0.383333333,-0.26031746,1,0,0,1.502,button_left_main,-0.383333333,-0.26031746,1,0,0,,0,43,43,127,1,NINDY,HB,z,z,./images/NINDYHB.png,,,,,,,,,,,,,,,,,,,,,,,,,,,,,,,,,
,,,,,,,,,,,,,,,,,61097b783bcdb1cec05c57e5,68,2022-02-12_13h40.03.897,lexical_decision_task_DD_L6,2021.2.3,iPad,62.5,,,,,,,,,,1.327,1,,,,,,,,,,,,,,,0,-0.375396825,-0.274603175,1,0,0,1.327,button_left_main,-0.375396825,-0.274603175,1,0,0,,0,44,44,87,1,TRING,C,z,z,./images/TRING.png,,,,,,,,,,,,,,,,,,,,,,,,,,,,,,,,,
,,,,,,,,,,,,,,,,,61097b783bcdb1cec05c57e5,68,2022-02-12_13h40.03.897,lexical_decision_task_DD_L6,2021.2.3,iPad,62.5,,,,,,,,,,0.752,1,,,,,,,,,,,,,,,0,-0.372222222,-0.280952381,1,0,0,0.752,button_left_main,-0.372222222,-0.280952381,1,0,0,,0,45,45,164,1,SGREW,LB,z,z,./images/SGREWLB.png,,,,,,,,,,,,,,,,,,,,,,,,,,,,,,,,,
,,,,,,,,,,,,,,,,,61097b783bcdb1cec05c57e5,68,2022-02-12_13h40.03.897,lexical_decision_task_DD_L6,2021.2.3,iPad,62.5,,,,,,,,,,1.419,1,,,,,,,,,,,,,,,0,-0.362698413,-0.284126984,1,0,0,1.419,button_left_main,-0.362698413,-0.284126984,1,0,0,,0,46,46,118,1,BAVEL,HB,z,z,./images/BAVELHB.png,,,,,,,,,,,,,,,,,,,,,,,,,,,,,,,,,
,,,,,,,,,,,,,,,,,61097b783bcdb1cec05c57e5,68,2022-02-12_13h40.03.897,lexical_decision_task_DD_L6,2021.2.3,iPad,62.5,,,,,,,,,,0.801,1,,,,,,,,,,,,,,,0,0.426190476,-0.274603175,1,0,0,0.801,button_right_main,0.426190476,-0.274603175,1,0,0,,0,47,47,34,1,RAZOR,C,m,m,./images/RAZOR.png,,,,,,,,,,,,,,,,,,,,,,,,,,,,,,,,,
,,,,,,,,,,,,,,,,,61097b783bcdb1cec05c57e5,68,2022-02-12_13h40.03.897,lexical_decision_task_DD_L6,2021.2.3,iPad,62.5,,,,,,,,,,0.723,1,,,,,,,,,,,,,,,0,-0.369047619,-0.280952381,1,0,0,0.723,button_left_main,-0.369047619,-0.280952381,1,0,0,,0,48,48,167,1,ZONET,LB,z,z,./images/ZONETLB.png,,,,,,,,,,,,,,,,,,,,,,,,,,,,,,,,,
,,,,,,,,,,,,,,,,,61097b783bcdb1cec05c57e5,68,2022-02-12_13h40.03.897,lexical_decision_task_DD_L6,2021.2.3,iPad,62.5,,,,,,,,,,1.535,1,,,,,,,,,,,,,,,0,-0.356349206,-0.284126984,1,0,0,1.535,button_left_main,-0.356349206,-0.284126984,1,0,0,,0,49,49,151,1,TINKY,HB,z,z,./images/TINKYHB.png,,,,,,,,,,,,,,,,,,,,,,,,,,,,,,,,,
,,,,,,,,,,,,,,,,,61097b783bcdb1cec05c57e5,68,2022-02-12_13h40.03.897,lexical_decision_task_DD_L6,2021.2.3,iPad,62.5,,,,,,,,,,0.776,1,,,,,,,,,,,,,,,0,0.426190476,-0.252380952,1,0,0,0.776,button_right_main,0.426190476,-0.252380952,1,0,0,,0,50,50,66,1,STATUE,LB,m,m,./images/STATUELB.png,,,,,,,,,,,,,,,,,,,,,,,,,,,,,,,,,
,,,,,,,,,,,,,,,,,61097b783bcdb1cec05c57e5,68,2022-02-12_13h40.03.897,lexical_decision_task_DD_L6,2021.2.3,iPad,62.5,,,,,,,,,,0.695,1,,,,,,,,,,,,,,,0,-0.367460317,-0.277777778,1,0,0,0.695,button_left_main,-0.367460317,-0.277777778,1,0,0,,0,51,51,131,1,NACES,LB,z,z,./images/NACESLB.png,,,,,,,,,,,,,,,,,,,,,,,,,,,,,,,,,
,,,,,,,,,,,,,,,,,61097b783bcdb1cec05c57e5,68,2022-02-12_13h40.03.897,lexical_decision_task_DD_L6,2021.2.3,iPad,62.5,,,,,,,,,,0.694,1,,,,,,,,,,,,,,,0,0.426190476,-0.258730159,1,0,0,0.694,button_right_main,0.426190476,-0.258730159,1,0,0,,0,52,52,24,1,FLESH,LB,m,m,./images/FLESHLB.png,,,,,,,,,,,,,,,,,,,,,,,,,,,,,,,,,
,,,,,,,,,,,,,,,,,61097b783bcdb1cec05c57e5,68,2022-02-12_13h40.03.897,lexical_decision_task_DD_L6,2021.2.3,iPad,62.5,,,,,,,,,,0.644,1,,,,,,,,,,,,,,,0,-0.369047619,-0.280952381,1,0,0,0.644,button_left_main,-0.369047619,-0.280952381,1,0,0,,0,53,53,161,1,BLAPS,LB,z,z,./images/BLAPSLB.png,,,,,,,,,,,,,,,,,,,,,,,,,,,,,,,,,
,,,,,,,,,,,,,,,,,61097b783bcdb1cec05c57e5,68,2022-02-12_13h40.03.897,lexical_decision_task_DD_L6,2021.2.3,iPad,62.5,,,,,,,,,,0.801,1,,,,,,,,,,,,,,,0,0.407142857,-0.304761905,1,0,0,0.801,button_right_main,0.407142857,-0.304761905,1,0,0,,0,54,54,51,1,SAUCE,LB,m,m,./images/SAUCELB.png,,,,,,,,,,,,,,,,,,,,,,,,,,,,,,,,,
,,,,,,,,,,,,,,,,,61097b783bcdb1cec05c57e5,68,2022-02-12_13h40.03.897,lexical_decision_task_DD_L6,2021.2.3,iPad,62.5,,,,,,,,,,1.234,1,,,,,,,,,,,,,,,0,-0.45,-0.334920635,1,0,0,1.234,button_left_main,-0.45,-0.334920635,1,0,0,,0,55,55,112,1,MYING,HB,z,z,./images/MYINGHB.png,,,,,,,,,,,,,,,,,,,,,,,,,,,,,,,,,
,,,,,,,,,,,,,,,,,61097b783bcdb1cec05c57e5,68,2022-02-12_13h40.03.897,lexical_decision_task_DD_L6,2021.2.3,iPad,62.5,,,,,,,,,,0.699,1,,,,,,,,,,,,,,,0,-0.400793651,-0.296825397,1,0,0,0.699,button_left_main,-0.400793651,-0.296825397,1,0,0,,0,56,56,89,1,DRIEK,LB,z,z,./images/DRIEKLB.png,,,,,,,,,,,,,,,,,,,,,,,,,,,,,,,,,
,,,,,,,,,,,,,,,,,61097b783bcdb1cec05c57e5,68,2022-02-12_13h40.03.897,lexical_decision_task_DD_L6,2021.2.3,iPad,62.5,,,,,,,,,,0.951,1,,,,,,,,,,,,,,,0,-0.403968254,-0.285714286,1,0,0,0.951,button_left_main,-0.403968254,-0.285714286,1,0,0,,0,57,57,106,1,CLUMS,HB,z,z,./images/CLUMSHB.png,,,,,,,,,,,,,,,,,,,,,,,,,,,,,,,,,
,,,,,,,,,,,,,,,,,61097b783bcdb1cec05c57e5,68,2022-02-12_13h40.03.897,lexical_decision_task_DD_L6,2021.2.3,iPad,62.5,,,,,,,,,,0.702,1,,,,,,,,,,,,,,,0,0.434126984,-0.285714286,1,0,0,0.702,button_right_main,0.434126984,-0.285714286,1,0,0,,0,58,58,25,1,CHALK,C,m,m,./images/CHALK.png,,,,,,,,,,,,,,,,,,,,,,,,,,,,,,,,,
,,,,,,,,,,,,,,,,,61097b783bcdb1cec05c57e5,68,2022-02-12_13h40.03.897,lexical_decision_task_DD_L6,2021.2.3,iPad,62.5,,,,,,,,,,0.666,1,,,,,,,,,,,,,,,0,0.426190476,-0.258730159,1,0,0,0.666,button_right_main,0.426190476,-0.258730159,1,0,0,,0,59,59,27,1,BUTTER,LB,m,m,./images/BUTTERLB.png,,,,,,,,,,,,,,,,,,,,,,,,,,,,,,,,,
,,,,,,,,,,,,,,,,,61097b783bcdb1cec05c57e5,68,2022-02-12_13h40.03.897,lexical_decision_task_DD_L6,2021.2.3,iPad,62.5,,,,,,,,,,0.659,1,,,,,,,,,,,,,,,0,0.45,-0.271428571,1,0,0,0.659,button_right_main,0.45,-0.271428571,1,0,0,,0,60,60,33,1,SAUNA,LB,m,m,./images/SAUNALB.png,,,,,,,,,,,,,,,,,,,,,,,,,,,,,,,,,
,,,,,,,,,,,,,,,,,61097b783bcdb1cec05c57e5,68,2022-02-12_13h40.03.897,lexical_decision_task_DD_L6,2021.2.3,iPad,62.5,,,,,,,,,,0.677,1,,,,,,,,,,,,,,,0,-0.38015873,-0.314285714,1,0,0,0.677,button_left_main,-0.38015873,-0.314285714,1,0,0,,0,61,61,146,1,MOOST,LB,z,z,./images/MOOSTLB.png,,,,,,,,,,,,,,,,,,,,,,,,,,,,,,,,,
,,,,,,,,,,,,,,,,,61097b783bcdb1cec05c57e5,68,2022-02-12_13h40.03.897,lexical_decision_task_DD_L6,2021.2.3,iPad,62.5,,,,,,,,,,0.576,1,,,,,,,,,,,,,,,0,-0.381746032,-0.304761905,1,0,0,0.576,button_left_main,-0.381746032,-0.304761905,1,0,0,,0,62,62,132,1,SCIFF,C,z,z,./images/SCIFF.png,,,,,,,,,,,,,,,,,,,,,,,,,,,,,,,,,
,,,,,,,,,,,,,,,,,61097b783bcdb1cec05c57e5,68,2022-02-12_13h40.03.897,lexical_decision_task_DD_L6,2021.2.3,iPad,62.5,,,,,,,,,,0.628,1,,,,,,,,,,,,,,,0,-0.372222222,-0.303174603,1,0,0,0.628,button_left_main,-0.372222222,-0.303174603,1,0,0,,0,63,63,155,1,CANGY,LB,z,z,./images/CANGYLB.png,,,,,,,,,,,,,,,,,,,,,,,,,,,,,,,,,
,,,,,,,,,,,,,,,,,61097b783bcdb1cec05c57e5,68,2022-02-12_13h40.03.897,lexical_decision_task_DD_L6,2021.2.3,iPad,62.5,,,,,,,,,,0.608,1,,,,,,,,,,,,,,,0,0.44047619,-0.258730159,1,0,0,0.608,button_right_main,0.44047619,-0.258730159,1,0,0,,0,64,64,1,1,TOWEL,C,m,m,./images/TOWEL.png,,,,,,,,,,,,,,,,,,,,,,,,,,,,,,,,,
,,,,,,,,,,,,,,,,,61097b783bcdb1cec05c57e5,68,2022-02-12_13h40.03.897,lexical_decision_task_DD_L6,2021.2.3,iPad,62.5,,,,,,,,,,0.683,1,,,,,,,,,,,,,,,0,-0.370634921,-0.311111111,1,0,0,0.683,button_left_main,-0.370634921,-0.311111111,1,0,0,,0,65,65,105,1,MOKER,C,z,z,./images/MOKER.png,,,,,,,,,,,,,,,,,,,,,,,,,,,,,,,,,
,,,,,,,,,,,,,,,,,61097b783bcdb1cec05c57e5,68,2022-02-12_13h40.03.897,lexical_decision_task_DD_L6,2021.2.3,iPad,62.5,,,,,,,,,,0.668,1,,,,,,,,,,,,,,,0,0.434126984,-0.246031746,1,0,0,0.668,button_right_main,0.434126984,-0.246031746,1,0,0,,0,66,66,73,1,GLOVE,C,m,m,./images/GLOVE.png,,,,,,,,,,,,,,,,,,,,,,,,,,,,,,,,,
,,,,,,,,,,,,,,,,,61097b783bcdb1cec05c57e5,68,2022-02-12_13h40.03.897,lexical_decision_task_DD_L6,2021.2.3,iPad,62.5,,,,,,,,,,0.743,1,,,,,,,,,,,,,,,0,0.430952381,-0.250793651,1,0,0,0.743,button_right_main,0.430952381,-0.250793651,1,0,0,,0,67,67,37,1,TIGER,C,m,m,./images/TIGER.png,,,,,,,,,,,,,,,,,,,,,,,,,,,,,,,,,
,,,,,,,,,,,,,,,,,61097b783bcdb1cec05c57e5,68,2022-02-12_13h40.03.897,lexical_decision_task_DD_L6,2021.2.3,iPad,62.5,,,,,,,,,,1.202,1,,,,,,,,,,,,,,,0,0.413492063,-0.247619048,1,0,0,1.202,button_right_main,0.413492063,-0.247619048,1,0,0,,0,68,68,29,1,PISTOL,HB,m,m,./images/PISTOLHB.png,,,,,,,,,,,,,,,,,,,,,,,,,,,,,,,,,
,,,,,,,,,,,,,,,,,61097b783bcdb1cec05c57e5,68,2022-02-12_13h40.03.897,lexical_decision_task_DD_L6,2021.2.3,iPad,62.5,,,,,,,,,,0.676,1,,,,,,,,,,,,,,,0,-0.369047619,-0.311111111,1,0,0,0.676,button_left_main,-0.369047619,-0.311111111,1,0,0,,0,69,69,150,1,NOOLS,C,z,z,./images/NOOLS.png,,,,,,,,,,,,,,,,,,,,,,,,,,,,,,,,,
,,,,,,,,,,,,,,,,,61097b783bcdb1cec05c57e5,68,2022-02-12_13h40.03.897,lexical_decision_task_DD_L6,2021.2.3,iPad,62.5,,,,,,,,,,0.835,1,,,,,,,,,,,,,,,0,-0.367460317,-0.307936508,1,0,0,0.835,button_left_main,-0.367460317,-0.307936508,1,0,0,,0,70,70,104,1,GITTY,LB,z,z,./images/GITTYLB.png,,,,,,,,,,,,,,,,,,,,,,,,,,,,,,,,,
,,,,,,,,,,,,,,,,,61097b783bcdb1cec05c57e5,68,2022-02-12_13h40.03.897,lexical_decision_task_DD_L6,2021.2.3,iPad,62.5,,,,,,,,,,0.778,1,,,,,,,,,,,,,,,0,-0.356349206,-0.3,1,0,0,0.778,button_left_main,-0.356349206,-0.3,1,0,0,,0,71,71,107,1,FASKS,LB,z,z,./images/FASKSLB.png,,,,,,,,,,,,,,,,,,,,,,,,,,,,,,,,,
,,,,,,,,,,,,,,,,,61097b783bcdb1cec05c57e5,68,2022-02-12_13h40.03.897,lexical_decision_task_DD_L6,2021.2.3,iPad,62.5,,,,,,,,,,1.269,1,,,,,,,,,,,,,,,0,0.388095238,-0.247619048,1,0,0,1.269,button_right_main,0.388095238,-0.247619048,1,0,0,,0,72,72,26,1,CLOUD,HB,m,m,./images/CLOUDHB.png,,,,,,,,,,,,,,,,,,,,,,,,,,,,,,,,,
,,,,,,,,,,,,,,,,,61097b783bcdb1cec05c57e5,68,2022-02-12_13h40.03.897,lexical_decision_task_DD_L6,2021.2.3,iPad,62.5,,,,,,,,,,0.678,1,,,,,,,,,,,,,,,0,0.405555556,-0.244444444,1,0,0,0.678,button_right_main,0.405555556,-0.244444444,1,0,0,,0,73,73,6,1,STAIN,LB,m,m,./images/STAINLB.png,,,,,,,,,,,,,,,,,,,,,,,,,,,,,,,,,
,,,,,,,,,,,,,,,,,61097b783bcdb1cec05c57e5,68,2022-02-12_13h40.03.897,lexical_decision_task_DD_L6,2021.2.3,iPad,62.5,,,,,,,,,,0.601,1,,,,,,,,,,,,,,,0,0.430952381,-0.252380952,1,0,0,0.601,button_right_main,0.430952381,-0.252380952,1,0,0,,0,74,74,64,1,BRIDE,C,m,m,./images/BRIDE.png,,,,,,,,,,,,,,,,,,,,,,,,,,,,,,,,,
,,,,,,,,,,,,,,,,,61097b783bcdb1cec05c57e5,68,2022-02-12_13h40.03.897,lexical_decision_task_DD_L6,2021.2.3,iPad,62.5,,,,,,,,,,0.616,1,,,,,,,,,,,,,,,0,0.424603175,-0.242857143,1,0,0,0.616,button_right_main,0.424603175,-0.242857143,1,0,0,,0,75,75,58,1,CANOE,C,m,m,./images/CANOE.png,,,,,,,,,,,,,,,,,,,,,,,,,,,,,,,,,
,,,,,,,,,,,,,,,,,61097b783bcdb1cec05c57e5,68,2022-02-12_13h40.03.897,lexical_decision_task_DD_L6,2021.2.3,iPad,62.5,,,,,,,,,,1.075,1,,,,,,,,,,,,,,,0,-0.345238095,-0.298412698,1,0,0,1.075,button_left_main,-0.345238095,-0.298412698,1,0,0,,0,76,76,136,1,WERVE,HB,z,z,./images/WERVEHB.png,,,,,,,,,,,,,,,,,,,,,,,,,,,,,,,,,
,,,,,,,,,,,,,,,,,61097b783bcdb1cec05c57e5,68,2022-02-12_13h40.03.897,lexical_decision_task_DD_L6,2021.2.3,iPad,62.5,,,,,,,,,,0.659,1,,,,,,,,,,,,,,,0,0.432539683,-0.253968254,1,0,0,0.659,button_right_main,0.432539683,-0.253968254,1,0,0,,0,77,77,3,1,CRATER,LB,m,m,./images/CRATERLB.png,,,,,,,,,,,,,,,,,,,,,,,,,,,,,,,,,
,,,,,,,,,,,,,,,,,61097b783bcdb1cec05c57e5,68,2022-02-12_13h40.03.897,lexical_decision_task_DD_L6,2021.2.3,iPad,62.5,,,,,,,,,,0.944,1,,,,,,,,,,,,,,,0,-0.373809524,-0.292063492,1,0,0,0.944,button_left_main,-0.373809524,-0.292063492,1,0,0,,0,78,78,123,1,SEDGE,C,z,z,./images/SEDGE.png,,,,,,,,,,,,,,,,,,,,,,,,,,,,,,,,,
,,,,,,,,,,,,,,,,,61097b783bcdb1cec05c57e5,68,2022-02-12_13h40.03.897,lexical_decision_task_DD_L6,2021.2.3,iPad,62.5,,,,,,,,,,0.784,1,,,,,,,,,,,,,,,0,0.41984127,-0.246031746,1,0,0,0.784,button_right_main,0.41984127,-0.246031746,1,0,0,,0,79,79,21,1,DANCER,LB,m,m,./images/DANCERLB.png,,,,,,,,,,,,,,,,,,,,,,,,,,,,,,,,,
,,,,,,,,,,,,,,,,,61097b783bcdb1cec05c57e5,68,2022-02-12_13h40.03.897,lexical_decision_task_DD_L6,2021.2.3,iPad,62.5,,,,,,,,,,0.774,1,,,,,,,,,,,,,,,0,-0.357936508,-0.301587302,1,0,0,0.774,button_left_main,-0.357936508,-0.301587302,1,0,0,,0,80,80,159,1,CUDDY,C,z,z,./images/CUDDY.png,,,,,,,,,,,,,,,,,,,,,,,,,,,,,,,,,
,,,,,,,,,,,,,,,,,61097b783bcdb1cec05c57e5,68,2022-02-12_13h40.03.897,lexical_decision_task_DD_L6,2021.2.3,iPad,62.5,,,,,,,,,,0.601,1,,,,,,,,,,,,,,,0,0.424603175,-0.252380952,1,0,0,0.601,button_right_main,0.424603175,-0.252380952,1,0,0,,0,81,81,45,1,MONKEY,LB,m,m,./images/MONKEYLB.png,,,,,,,,,,,,,,,,,,,,,,,,,,,,,,,,,
,,,,,,,,,,,,,,,,,61097b783bcdb1cec05c57e5,68,2022-02-12_13h40.03.897,lexical_decision_task_DD_L6,2021.2.3,iPad,62.5,,,,,,,,,,1.282,1,,,,,,,,,,,,,,,0,-0.338888889,-0.298412698,1,0,0,1.282,button_left_main,-0.338888889,-0.298412698,1,0,0,,0,82,82,100,1,DRIBS,HB,z,z,./images/DRIBSHB.png,,,,,,,,,,,,,,,,,,,,,,,,,,,,,,,,,
,,,,,,,,,,,,,,,,,61097b783bcdb1cec05c57e5,68,2022-02-12_13h40.03.897,lexical_decision_task_DD_L6,2021.2.3,iPad,62.5,,,,,,,,,,0.565,0,,,,,,,,,,,,,,,0,0.430952381,-0.244444444,1,0,0,0.565,button_right_main,-0.083333333,-0.422222222,1,0,0,,0,83,83,96,1,KEAMS,C,z,z,./images/KEAMS.png,break_done_button,,,,,,,,,,,,,,,,,,,,,,,,,,,,,,,,
,,,,,,,,,,,,,,,,,61097b783bcdb1cec05c57e5,68,2022-02-12_13h40.03.897,lexical_decision_task_DD_L6,2021.2.3,iPad,62.5,,,,,,,,,,0.842,1,,,,,,,,,,,,,,,0,0.427777778,-0.29047619,1,0,0,0.842,button_right_main,0.427777778,-0.29047619,1,0,0,,0,84,84,28,1,CASINO,C,m,m,./images/CASINO.png,,,,,,,,,,,,,,,,,,,,,,,,,,,,,,,,,
,,,,,,,,,,,,,,,,,61097b783bcdb1cec05c57e5,68,2022-02-12_13h40.03.897,lexical_decision_task_DD_L6,2021.2.3,iPad,62.5,,,,,,,,,,0.679,1,,,,,,,,,,,,,,,0,0.438888889,-0.268253968,1,0,0,0.679,button_right_main,0.438888889,-0.268253968,1,0,0,,0,85,85,72,1,FLASK,LB,m,m,./images/FLASKLB.png,,,,,,,,,,,,,,,,,,,,,,,,,,,,,,,,,
,,,,,,,,,,,,,,,,,61097b783bcdb1cec05c57e5,68,2022-02-12_13h40.03.897,lexical_decision_task_DD_L6,2021.2.3,iPad,62.5,,,,,,,,,,0.81,1,,,,,,,,,,,,,,,0,-0.357936508,-0.304761905,1,0,0,0.81,button_left_main,-0.357936508,-0.304761905,1,0,0,,0,86,86,160,1,VEETS,HB,z,z,./images/VEETSHB.png,,,,,,,,,,,,,,,,,,,,,,,,,,,,,,,,,
,,,,,,,,,,,,,,,,,61097b783bcdb1cec05c57e5,68,2022-02-12_13h40.03.897,lexical_decision_task_DD_L6,2021.2.3,iPad,62.5,,,,,,,,,,0.602,1,,,,,,,,,,,,,,,0,0.45,-0.253968254,1,0,0,0.602,button_right_main,0.45,-0.253968254,1,0,0,,0,87,87,15,1,COLLAR,LB,m,m,./images/COLLARLB.png,,,,,,,,,,,,,,,,,,,,,,,,,,,,,,,,,
,,,,,,,,,,,,,,,,,61097b783bcdb1cec05c57e5,68,2022-02-12_13h40.03.897,lexical_decision_task_DD_L6,2021.2.3,iPad,62.5,,,,,,,,,,1.059,1,,,,,,,,,,,,,,,0,0.438888889,-0.263492063,1,0,0,1.059,button_right_main,0.438888889,-0.263492063,1,0,0,,0,88,88,11,1,MEDAL,HB,m,m,./images/MEDALHB.png,,,,,,,,,,,,,,,,,,,,,,,,,,,,,,,,,
,,,,,,,,,,,,,,,,,61097b783bcdb1cec05c57e5,68,2022-02-12_13h40.03.897,lexical_decision_task_DD_L6,2021.2.3,iPad,62.5,,,,,,,,,,0.933,1,,,,,,,,,,,,,,,0,-0.361111111,-0.295238095,1,0,0,0.933,button_left_main,-0.361111111,-0.295238095,1,0,0,,0,89,89,109,1,BURGE,HB,z,z,./images/BURGEHB.png,,,,,,,,,,,,,,,,,,,,,,,,,,,,,,,,,
,,,,,,,,,,,,,,,,,61097b783bcdb1cec05c57e5,68,2022-02-12_13h40.03.897,lexical_decision_task_DD_L6,2021.2.3,iPad,62.5,,,,,,,,,,0.753,1,,,,,,,,,,,,,,,0,-0.357936508,-0.285714286,1,0,0,0.753,button_left_main,-0.357936508,-0.285714286,1,0,0,,0,90,90,113,1,LINEW,LB,z,z,./images/LINEWLB.png,,,,,,,,,,,,,,,,,,,,,,,,,,,,,,,,,
,,,,,,,,,,,,,,,,,61097b783bcdb1cec05c57e5,68,2022-02-12_13h40.03.897,lexical_decision_task_DD_L6,2021.2.3,iPad,62.5,,,,,,,,,,0.668,0,,,,,,,,,,,,,,,0,-0.356349206,-0.293650794,1,0,0,0.668,button_left_main,-0.356349206,-0.293650794,1,0,0,,0,91,91,12,1,BLOKE,LB,m,m,./images/BLOKELB.png,,,,,,,,,,,,,,,,,,,,,,,,,,,,,,,,,
,,,,,,,,,,,,,,,,,61097b783bcdb1cec05c57e5,68,2022-02-12_13h40.03.897,lexical_decision_task_DD_L6,2021.2.3,iPad,62.5,,,,,,,,,,0.658,1,,,,,,,,,,,,,,,0,0.434126984,-0.26031746,1,0,0,0.658,button_right_main,0.434126984,-0.26031746,1,0,0,,0,92,92,0,1,WALNUT,LB,m,m,./images/WALNUTLB.png,,,,,,,,,,,,,,,,,,,,,,,,,,,,,,,,,
,,,,,,,,,,,,,,,,,61097b783bcdb1cec05c57e5,68,2022-02-12_13h40.03.897,lexical_decision_task_DD_L6,2021.2.3,iPad,62.5,,,,,,,,,,0.803,1,,,,,,,,,,,,,,,0,-0.348412698,-0.301587302,1,0,0,0.803,button_left_main,-0.348412698,-0.301587302,1,0,0,,0,93,93,165,1,TROWN,C,z,z,./images/TROWN.png,,,,,,,,,,,,,,,,,,,,,,,,,,,,,,,,,
,,,,,,,,,,,,,,,,,61097b783bcdb1cec05c57e5,68,2022-02-12_13h40.03.897,lexical_decision_task_DD_L6,2021.2.3,iPad,62.5,,,,,,,,,,0.627,1,,,,,,,,,,,,,,,0,0.41984127,-0.241269841,1,0,0,0.627,button_right_main,0.41984127,-0.241269841,1,0,0,,0,94,94,82,1,PEBBLE,C,m,m,./images/PEBBLE.png,,,,,,,,,,,,,,,,,,,,,,,,,,,,,,,,,
,,,,,,,,,,,,,,,,,61097b783bcdb1cec05c57e5,68,2022-02-12_13h40.03.897,lexical_decision_task_DD_L6,2021.2.3,iPad,62.5,,,,,,,,,,0.575,1,,,,,,,,,,,,,,,0,0.44047619,-0.247619048,1,0,0,0.575,button_right_main,0.44047619,-0.247619048,1,0,0,,0,95,95,43,1,STOOL,C,m,m,./images/STOOL.png,,,,,,,,,,,,,,,,,,,,,,,,,,,,,,,,,
,,,,,,,,,,,,,,,,,61097b783bcdb1cec05c57e5,68,2022-02-12_13h40.03.897,lexical_decision_task_DD_L6,2021.2.3,iPad,62.5,,,,,,,,,,1.512,1,,,,,,,,,,,,,,,0,-0.353174603,-0.3,1,0,0,1.512,button_left_main,-0.353174603,-0.3,1,0,0,,0,96,96,154,1,THINT,HB,z,z,./images/THINTHB.png,,,,,,,,,,,,,,,,,,,,,,,,,,,,,,,,,
,,,,,,,,,,,,,,,,,61097b783bcdb1cec05c57e5,68,2022-02-12_13h40.03.897,lexical_decision_task_DD_L6,2021.2.3,iPad,62.5,,,,,,,,,,0.736,1,,,,,,,,,,,,,,,0,0.41984127,-0.236507937,1,0,0,0.736,button_right_main,0.41984127,-0.236507937,1,0,0,,0,97,97,57,1,FERRY,LB,m,m,./images/FERRYLB.png,,,,,,,,,,,,,,,,,,,,,,,,,,,,,,,,,
,,,,,,,,,,,,,,,,,61097b783bcdb1cec05c57e5,68,2022-02-12_13h40.03.897,lexical_decision_task_DD_L6,2021.2.3,iPad,62.5,,,,,,,,,,0.623,1,,,,,,,,,,,,,,,0,0.438888889,-0.244444444,1,0,0,0.623,button_right_main,0.438888889,-0.244444444,1,0,0,,0,98,98,81,1,DRILL,LB,m,m,./images/DRILLLB.png,,,,,,,,,,,,,,,,,,,,,,,,,,,,,,,,,
,,,,,,,,,,,,,,,,,61097b783bcdb1cec05c57e5,68,2022-02-12_13h40.03.897,lexical_decision_task_DD_L6,2021.2.3,iPad,62.5,,,,,,,,,,0.846,1,,,,,,,,,,,,,,,0,-0.345238095,-0.303174603,1,0,0,0.846,button_left_main,-0.345238095,-0.303174603,1,0,0,,0,99,99,117,1,STEEG,C,z,z,./images/STEEG.png,,,,,,,,,,,,,,,,,,,,,,,,,,,,,,,,,
,,,,,,,,,,,,,,,,,61097b783bcdb1cec05c57e5,68,2022-02-12_13h40.03.897,lexical_decision_task_DD_L6,2021.2.3,iPad,62.5,,,,,,,,,,0.693,1,,,,,,,,,,,,,,,0,-0.348412698,-0.295238095,1,0,0,0.693,button_left_main,-0.348412698,-0.295238095,1,0,0,,0,100,100,140,1,DOVET,LB,z,z,./images/DOVETLB.png,,,,,,,,,,,,,,,,,,,,,,,,,,,,,,,,,
,,,,,,,,,,,,,,,,,61097b783bcdb1cec05c57e5,68,2022-02-12_13h40.03.897,lexical_decision_task_DD_L6,2021.2.3,iPad,62.5,,,,,,,,,,1.509,1,,,,,,,,,,,,,,,0,0.430952381,-0.249206349,1,0,0,1.509,button_right_main,0.430952381,-0.249206349,1,0,0,,0,101,101,60,1,CURRY,LB,m,m,./images/CURRYLB.png,,,,,,,,,,,,,,,,,,,,,,,,,,,,,,,,,
,,,,,,,,,,,,,,,,,61097b783bcdb1cec05c57e5,68,2022-02-12_13h40.03.897,lexical_decision_task_DD_L6,2021.2.3,iPad,62.5,,,,,,,,,,0.961,1,,,,,,,,,,,,,,,0,-0.342063492,-0.287301587,1,0,0,0.961,button_left_main,-0.342063492,-0.287301587,1,0,0,,0,102,102,145,1,LAMEL,HB,z,z,./images/LAMELHB.png,,,,,,,,,,,,,,,,,,,,,,,,,,,,,,,,,
,,,,,,,,,,,,,,,,,61097b783bcdb1cec05c57e5,68,2022-02-12_13h40.03.897,lexical_decision_task_DD_L6,2021.2.3,iPad,62.5,,,,,,,,,,0.801,1,,,,,,,,,,,,,,,0,0.443650794,-0.246031746,1,0,0,0.801,button_right_main,0.443650794,-0.246031746,1,0,0,,0,103,103,18,1,PARCEL,LB,m,m,./images/PARCELLB.png,,,,,,,,,,,,,,,,,,,,,,,,,,,,,,,,,
,,,,,,,,,,,,,,,,,61097b783bcdb1cec05c57e5,68,2022-02-12_13h40.03.897,lexical_decision_task_DD_L6,2021.2.3,iPad,62.5,,,,,,,,,,0.892,1,,,,,,,,,,,,,,,0,-0.348412698,-0.287301587,1,0,0,0.892,button_left_main,-0.348412698,-0.287301587,1,0,0,,0,104,104,121,1,CEERS,HB,z,z,./images/CEERSHB.png,,,,,,,,,,,,,,,,,,,,,,,,,,,,,,,,,
,,,,,,,,,,,,,,,,,61097b783bcdb1cec05c57e5,68,2022-02-12_13h40.03.897,lexical_decision_task_DD_L6,2021.2.3,iPad,62.5,,,,,,,,,,1.1,1,,,,,,,,,,,,,,,0,-0.35,-0.301587302,1,0,0,1.1,button_left_main,-0.35,-0.301587302,1,0,0,,0,105,105,108,1,GRUET,C,z,z,./images/GRUET.png,,,,,,,,,,,,,,,,,,,,,,,,,,,,,,,,,
,,,,,,,,,,,,,,,,,61097b783bcdb1cec05c57e5,68,2022-02-12_13h40.03.897,lexical_decision_task_DD_L6,2021.2.3,iPad,62.5,,,,,,,,,,1.028,1,,,,,,,,,,,,,,,0,0.41984127,-0.258730159,1,0,0,1.028,button_right_main,0.41984127,-0.258730159,1,0,0,,0,106,106,14,1,FENCE,HB,m,m,./images/FENCEHB.png,,,,,,,,,,,,,,,,,,,,,,,,,,,,,,,,,
,,,,,,,,,,,,,,,,,61097b783bcdb1cec05c57e5,68,2022-02-12_13h40.03.897,lexical_decision_task_DD_L6,2021.2.3,iPad,62.5,,,,,,,,,,0.668,1,,,,,,,,,,,,,,,0,0.430952381,-0.244444444,1,0,0,0.668,button_right_main,0.430952381,-0.244444444,1,0,0,,0,107,107,13,1,BUNNY,C,m,m,./images/BUNNY.png,,,,,,,,,,,,,,,,,,,,,,,,,,,,,,,,,
,,,,,,,,,,,,,,,,,61097b783bcdb1cec05c57e5,68,2022-02-12_13h40.03.897,lexical_decision_task_DD_L6,2021.2.3,iPad,62.5,,,,,,,,,,0.841,1,,,,,,,,,,,,,,,0,-0.346825397,-0.292063492,1,0,0,0.841,button_left_main,-0.346825397,-0.292063492,1,0,0,,0,108,108,156,1,HIXES,C,z,z,./images/HIXES.png,,,,,,,,,,,,,,,,,,,,,,,,,,,,,,,,,
,,,,,,,,,,,,,,,,,61097b783bcdb1cec05c57e5,68,2022-02-12_13h40.03.897,lexical_decision_task_DD_L6,2021.2.3,iPad,62.5,,,,,,,,,,1.05,1,,,,,,,,,,,,,,,0,0.434126984,-0.244444444,1,0,0,1.05,button_right_main,0.434126984,-0.244444444,1,0,0,,0,109,109,65,1,SPINE,HB,m,m,./images/SPINEHB.png,,,,,,,,,,,,,,,,,,,,,,,,,,,,,,,,,
,,,,,,,,,,,,,,,,,61097b783bcdb1cec05c57e5,68,2022-02-12_13h40.03.897,lexical_decision_task_DD_L6,2021.2.3,iPad,62.5,,,,,,,,,,0.907,1,,,,,,,,,,,,,,,0,-0.354761905,-0.284126984,1,0,0,0.907,button_left_main,-0.354761905,-0.284126984,1,0,0,,0,110,110,110,1,CRUNK,LB,z,z,./images/CRUNKLB.png,,,,,,,,,,,,,,,,,,,,,,,,,,,,,,,,,
,,,,,,,,,,,,,,,,,61097b783bcdb1cec05c57e5,68,2022-02-12_13h40.03.897,lexical_decision_task_DD_L6,2021.2.3,iPad,62.5,,,,,,,,,,0.692,1,,,,,,,,,,,,,,,0,0.437301587,-0.23968254,1,0,0,0.692,button_right_main,0.437301587,-0.23968254,1,0,0,,0,111,111,54,1,CHERRY,LB,m,m,./images/CHERRYLB.png,,,,,,,,,,,,,,,,,,,,,,,,,,,,,,,,,
,,,,,,,,,,,,,,,,,61097b783bcdb1cec05c57e5,68,2022-02-12_13h40.03.897,lexical_decision_task_DD_L6,2021.2.3,iPad,62.5,,,,,,,,,,1.026,1,,,,,,,,,,,,,,,0,-0.345238095,-0.274603175,1,0,0,1.026,button_left_main,-0.345238095,-0.274603175,1,0,0,,0,112,112,102,1,DULLE,C,z,z,./images/DULLE.png,,,,,,,,,,,,,,,,,,,,,,,,,,,,,,,,,
,,,,,,,,,,,,,,,,,61097b783bcdb1cec05c57e5,68,2022-02-12_13h40.03.897,lexical_decision_task_DD_L6,2021.2.3,iPad,62.5,,,,,,,,,,0.878,1,,,,,,,,,,,,,,,0,-0.346825397,-0.26984127,1,0,0,0.878,button_left_main,-0.346825397,-0.26984127,1,0,0,,0,113,113,141,1,PLEET,C,z,z,./images/PLEET.png,,,,,,,,,,,,,,,,,,,,,,,,,,,,,,,,,
,,,,,,,,,,,,,,,,,61097b783bcdb1cec05c57e5,68,2022-02-12_13h40.03.897,lexical_decision_task_DD_L6,2021.2.3,iPad,62.5,,,,,,,,,,0.734,1,,,,,,,,,,,,,,,0,-0.31984127,-0.276190476,1,0,0,0.734,button_left_main,-0.31984127,-0.276190476,1,0,0,,0,114,114,153,1,CLUPS,C,z,z,./images/CLUPS.png,,,,,,,,,,,,,,,,,,,,,,,,,,,,,,,,,
,,,,,,,,,,,,,,,,,61097b783bcdb1cec05c57e5,68,2022-02-12_13h40.03.897,lexical_decision_task_DD_L6,2021.2.3,iPad,62.5,,,,,,,,,,0.785,1,,,,,,,,,,,,,,,0,-0.31984127,-0.265079365,1,0,0,0.785,button_left_main,-0.31984127,-0.265079365,1,0,0,,0,115,115,93,1,SMONE,C,z,z,./images/SMONE.png,,,,,,,,,,,,,,,,,,,,,,,,,,,,,,,,,
,,,,,,,,,,,,,,,,,61097b783bcdb1cec05c57e5,68,2022-02-12_13h40.03.897,lexical_decision_task_DD_L6,2021.2.3,iPad,62.5,,,,,,,,,,0.993,1,,,,,,,,,,,,,,,0,0.44047619,-0.258730159,1,0,0,0.993,button_right_main,0.44047619,-0.258730159,1,0,0,,0,116,116,56,1,HEATER,HB,m,m,./images/HEATERHB.png,,,,,,,,,,,,,,,,,,,,,,,,,,,,,,,,,
,,,,,,,,,,,,,,,,,61097b783bcdb1cec05c57e5,68,2022-02-12_13h40.03.897,lexical_decision_task_DD_L6,2021.2.3,iPad,62.5,,,,,,,,,,1.434,1,,,,,,,,,,,,,,,0,-0.338888889,-0.279365079,1,0,0,1.434,button_left_main,-0.338888889,-0.279365079,1,0,0,,0,117,117,115,1,MAWNS,HB,z,z,./images/MAWNSHB.png,,,,,,,,,,,,,,,,,,,,,,,,,,,,,,,,,
,,,,,,,,,,,,,,,,,61097b783bcdb1cec05c57e5,68,2022-02-12_13h40.03.897,lexical_decision_task_DD_L6,2021.2.3,iPad,62.5,,,,,,,,,,0.947,1,,,,,,,,,,,,,,,0,-0.334126984,-0.263492063,1,0,0,0.947,button_left_main,-0.334126984,-0.263492063,1,0,0,,0,118,118,163,1,GAMBA,HB,z,z,./images/GAMBAHB.png,,,,,,,,,,,,,,,,,,,,,,,,,,,,,,,,,
,,,,,,,,,,,,,,,,,61097b783bcdb1cec05c57e5,68,2022-02-12_13h40.03.897,lexical_decision_task_DD_L6,2021.2.3,iPad,62.5,,,,,,,,,,1.068,1,,,,,,,,,,,,,,,0,0.44047619,-0.252380952,1,0,0,1.068,button_right_main,0.44047619,-0.252380952,1,0,0,,0,119,119,77,1,WHEEL,HB,m,m,./images/WHEELHB.png,,,,,,,,,,,,,,,,,,,,,,,,,,,,,,,,,
,,,,,,,,,,,,,,,,,61097b783bcdb1cec05c57e5,68,2022-02-12_13h40.03.897,lexical_decision_task_DD_L6,2021.2.3,iPad,62.5,,,,,,,,,,0.742,1,,,,,,,,,,,,,,,0,-0.338888889,-0.287301587,1,0,0,0.742,button_left_main,-0.338888889,-0.287301587,1,0,0,,0,120,120,158,1,EGECT,LB,z,z,./images/EGECTLB.png,,,,,,,,,,,,,,,,,,,,,,,,,,,,,,,,,
,,,,,,,,,,,,,,,,,61097b783bcdb1cec05c57e5,68,2022-02-12_13h40.03.897,lexical_decision_task_DD_L6,2021.2.3,iPad,62.5,,,,,,,,,,0.818,1,,,,,,,,,,,,,,,0,-0.329365079,-0.274603175,1,0,0,0.818,button_left_main,-0.329365079,-0.274603175,1,0,0,,0,121,121,98,1,BAMPS,LB,z,z,./images/BAMPSLB.png,,,,,,,,,,,,,,,,,,,,,,,,,,,,,,,,,
,,,,,,,,,,,,,,,,,61097b783bcdb1cec05c57e5,68,2022-02-12_13h40.03.897,lexical_decision_task_DD_L6,2021.2.3,iPad,62.5,,,,,,,,,,0.727,1,,,,,,,,,,,,,,,0,-0.332539683,-0.265079365,1,0,0,0.727,button_left_main,-0.332539683,-0.265079365,1,0,0,,0,122,122,152,1,FRAIN,LB,z,z,./images/FRAINLB.png,,,,,,,,,,,,,,,,,,,,,,,,,,,,,,,,,
,,,,,,,,,,,,,,,,,61097b783bcdb1cec05c57e5,68,2022-02-12_13h40.03.897,lexical_decision_task_DD_L6,2021.2.3,iPad,62.5,,,,,,,,,,1.043,1,,,,,,,,,,,,,,,0,0.434126984,-0.257142857,1,0,0,1.043,button_right_main,0.434126984,-0.257142857,1,0,0,,0,123,123,59,1,BRUSH,HB,m,m,./images/BRUSHHB.png,,,,,,,,,,,,,,,,,,,,,,,,,,,,,,,,,
,,,,,,,,,,,,,,,,,61097b783bcdb1cec05c57e5,68,2022-02-12_13h40.03.897,lexical_decision_task_DD_L6,2021.2.3,iPad,62.5,,,,,,,,,,1.676,0,,,,,,,,,,,,,,,0,-0.324603175,-0.263492063,1,0,0,1.676,button_left_main,-0.324603175,-0.263492063,1,0,0,,0,124,124,83,1,WHISKY,HB,m,m,./images/WHISKYHB.png,,,,,,,,,,,,,,,,,,,,,,,,,,,,,,,,,
,,,,,,,,,,,,,,,,,61097b783bcdb1cec05c57e5,68,2022-02-12_13h40.03.897,lexical_decision_task_DD_L6,2021.2.3,iPad,62.5,,,,,,,,,,1.661,1,,,,,,,,,,,,,,,0,-0.326190476,-0.276190476,1,0,0,1.661,button_left_main,-0.067180617,-0.378854626,1,0,0,,0,125,125,142,1,PLASK,HB,z,z,./images/PLASKHB.png,break_done_button,,,,,,,,,,,,,,,,,,,,,,,,,,,,,,,,
,,,,,,,,,,,,,,,,,61097b783bcdb1cec05c57e5,68,2022-02-12_13h40.03.897,lexical_decision_task_DD_L6,2021.2.3,iPad,62.5,,,,,,,,,,0.867,1,,,,,,,,,,,,,,,0,0.584801762,0.101321586,1,0,0,0.867,button_left_main,-0.446035242,-0.374449339,1,0,0,,0,126,126,88,1,GLUSH,HB,z,z,./images/GLUSHHB.png,,,,,,,,,,,,,,,,,,,,,,,,,,,,,,,,,
,,,,,,,,,,,,,,,,,61097b783bcdb1cec05c57e5,68,2022-02-12_13h40.03.897,lexical_decision_task_DD_L6,2021.2.3,iPad,62.5,,,,,,,,,,0.086,1,,,,,,,,,,,,,,,0,0.620044053,-0.158590308,1,0,0,0.086,button_left_main,-0.404185022,-0.378854626,1,0,0,,0,127,127,125,1,MOOKY,LB,z,z,./images/MOOKYLB.png,,,,,,,,,,,,,,,,,,,,,,,,,,,,,,,,,
,,,,,,,,,,,,,,,,,61097b783bcdb1cec05c57e5,68,2022-02-12_13h40.03.897,lexical_decision_task_DD_L6,2021.2.3,iPad,62.5,,,,,,,,,,1.437,1,,,,,,,,,,,,,,,0,-0.397577093,-0.370044053,1,0,0,1.437,button_left_main,-0.397577093,-0.370044053,1,0,0,,0,128,128,139,1,BLEAR,HB,z,z,./images/BLEARHB.png,,,,,,,,,,,,,,,,,,,,,,,,,,,,,,,,,
,,,,,,,,,,,,,,,,,61097b783bcdb1cec05c57e5,68,2022-02-12_13h40.03.897,lexical_decision_task_DD_L6,2021.2.3,iPad,62.5,,,,,,,,,,0.765,1,,,,,,,,,,,,,,,0,0.593612335,-0.372246696,1,0,0,0.765,button_right_main,0.593612335,-0.372246696,1,0,0,,0,129,129,69,1,ARROW,LB,m,m,./images/ARROWLB.png,,,,,,,,,,,,,,,,,,,,,,,,,,,,,,,,,
,,,,,,,,,,,,,,,,,61097b783bcdb1cec05c57e5,68,2022-02-12_13h40.03.897,lexical_decision_task_DD_L6,2021.2.3,iPad,62.5,,,,,,,,,,1.064,1,,,,,,,,,,,,,,,0,-0.38876652,-0.372246696,1,0,0,1.064,button_left_main,-0.38876652,-0.372246696,1,0,0,,0,130,130,97,1,CHIDS,HB,z,z,./images/CHIDSHB.png,,,,,,,,,,,,,,,,,,,,,,,,,,,,,,,,,
,,,,,,,,,,,,,,,,,61097b783bcdb1cec05c57e5,68,2022-02-12_13h40.03.897,lexical_decision_task_DD_L6,2021.2.3,iPad,62.5,,,,,,,,,,0.705,1,,,,,,,,,,,,,,,0,0.613436123,-0.325991189,1,0,0,0.705,button_right_main,0.573788546,-0.381057269,1,0,0,,0,131,131,16,1,GRAPE,C,m,m,./images/GRAPE.png,,,,,,,,,,,,,,,,,,,,,,,,,,,,,,,,,
,,,,,,,,,,,,,,,,,61097b783bcdb1cec05c57e5,68,2022-02-12_13h40.03.897,lexical_decision_task_DD_L6,2021.2.3,iPad,62.5,,,,,,,,,,1.268,1,,,,,,,,,,,,,,,0,-0.375550661,-0.398678414,1,0,0,1.268,button_left_main,-0.375550661,-0.398678414,1,0,0,,0,132,132,130,1,CRILL,HB,z,z,./images/CRILLHB.png,,,,,,,,,,,,,,,,,,,,,,,,,,,,,,,,,
,,,,,,,,,,,,,,,,,61097b783bcdb1cec05c57e5,68,2022-02-12_13h40.03.897,lexical_decision_task_DD_L6,2021.2.3,iPad,62.5,,,,,,,,,,0.677,1,,,,,,,,,,,,,,,0,-0.377753304,-0.381057269,1,0,0,0.677,button_left_main,-0.377753304,-0.381057269,1,0,0,,0,133,133,134,1,TROSS,LB,z,z,./images/TROSSLB.png,,,,,,,,,,,,,,,,,,,,,,,,,,,,,,,,,
,,,,,,,,,,,,,,,,,61097b783bcdb1cec05c57e5,68,2022-02-12_13h40.03.897,lexical_decision_task_DD_L6,2021.2.3,iPad,62.5,,,,,,,,,,0.66,1,,,,,,,,,,,,,,,0,-0.373348018,-0.389867841,1,0,0,0.66,button_left_main,-0.373348018,-0.389867841,1,0,0,,0,134,134,90,1,NEAST,C,z,z,./images/NEAST.png,,,,,,,,,,,,,,,,,,,,,,,,,,,,,,,,,
,,,,,,,,,,,,,,,,,61097b783bcdb1cec05c57e5,68,2022-02-12_13h40.03.897,lexical_decision_task_DD_L6,2021.2.3,iPad,62.5,,,,,,,,,,0.749,1,,,,,,,,,,,,,,,0,0.593612335,-0.36784141,1,0,0,0.749,button_right_main,0.593612335,-0.36784141,1,0,0,,0,135,135,75,1,HAMMER,LB,m,m,./images/HAMMERLB.png,,,,,,,,,,,,,,,,,,,,,,,,,,,,,,,,,
,,,,,,,,,,,,,,,,,61097b783bcdb1cec05c57e5,68,2022-02-12_13h40.03.897,lexical_decision_task_DD_L6,2021.2.3,iPad,62.5,,,,,,,,,,0.709,1,,,,,,,,,,,,,,,0,-0.379955947,-0.381057269,1,0,0,0.709,button_left_main,-0.379955947,-0.381057269,1,0,0,,0,136,136,128,1,GRIFT,LB,z,z,./images/GRIFTLB.png,,,,,,,,,,,,,,,,,,,,,,,,,,,,,,,,,
,,,,,,,,,,,,,,,,,61097b783bcdb1cec05c57e5,68,2022-02-12_13h40.03.897,lexical_decision_task_DD_L6,2021.2.3,iPad,62.5,,,,,,,,,,0.788,1,,,,,,,,,,,,,,,0,0.593612335,-0.356828194,1,0,0,0.788,button_right_main,0.593612335,-0.356828194,1,0,0,,0,137,137,62,1,MAMMAL,HB,m,m,./images/MAMMALHB.png,,,,,,,,,,,,,,,,,,,,,,,,,,,,,,,,,
,,,,,,,,,,,,,,,,,61097b783bcdb1cec05c57e5,68,2022-02-12_13h40.03.897,lexical_decision_task_DD_L6,2021.2.3,iPad,62.5,,,,,,,,,,0.634,1,,,,,,,,,,,,,,,0,0.604625551,-0.352422907,1,0,0,0.634,button_right_main,0.595814978,-0.385462555,1,0,0,,0,138,138,36,1,BOILER,LB,m,m,./images/BOILERLB.png,,,,,,,,,,,,,,,,,,,,,,,,,,,,,,,,,
,,,,,,,,,,,,,,,,,61097b783bcdb1cec05c57e5,68,2022-02-12_13h40.03.897,lexical_decision_task_DD_L6,2021.2.3,iPad,62.5,,,,,,,,,,0.808,1,,,,,,,,,,,,,,,0,0.584801762,-0.372246696,1,0,0,0.808,button_right_main,0.584801762,-0.372246696,1,0,0,,0,139,139,53,1,POSTER,HB,m,m,./images/POSTERHB.png,,,,,,,,,,,,,,,,,,,,,,,,,,,,,,,,,
,,,,,,,,,,,,,,,,,61097b783bcdb1cec05c57e5,68,2022-02-12_13h40.03.897,lexical_decision_task_DD_L6,2021.2.3,iPad,62.5,,,,,,,,,,0.902,1,,,,,,,,,,,,,,,0,-0.368942731,-0.398678414,1,0,0,0.902,button_left_main,-0.368942731,-0.398678414,1,0,0,,0,140,140,91,1,SHENS,HB,z,z,./images/SHENSHB.png,,,,,,,,,,,,,,,,,,,,,,,,,,,,,,,,,
,,,,,,,,,,,,,,,,,61097b783bcdb1cec05c57e5,68,2022-02-12_13h40.03.897,lexical_decision_task_DD_L6,2021.2.3,iPad,62.5,,,,,,,,,,0.809,1,,,,,,,,,,,,,,,0,-0.373348018,-0.407488987,1,0,0,0.809,button_left_main,-0.38876652,-0.398678414,1,0,0,,0,141,141,120,1,RINED,C,z,z,./images/RINED.png,,,,,,,,,,,,,,,,,,,,,,,,,,,,,,,,,
,,,,,,,,,,,,,,,,,61097b783bcdb1cec05c57e5,68,2022-02-12_13h40.03.897,lexical_decision_task_DD_L6,2021.2.3,iPad,62.5,,,,,,,,,,0.671,1,,,,,,,,,,,,,,,0,0.595814978,-0.36123348,1,0,0,0.671,button_right_main,0.595814978,-0.36123348,1,0,0,,0,142,142,40,1,SNAKE,C,m,m,./images/SNAKE.png,,,,,,,,,,,,,,,,,,,,,,,,,,,,,,,,,
,,,,,,,,,,,,,,,,,61097b783bcdb1cec05c57e5,68,2022-02-12_13h40.03.897,lexical_decision_task_DD_L6,2021.2.3,iPad,62.5,,,,,,,,,,0.924,1,,,,,,,,,,,,,,,0,0.56938326,-0.341409692,1,0,0,0.924,button_right_main,0.56938326,-0.341409692,1,0,0,,0,143,143,17,1,PARADE,HB,m,m,./images/PARADEHB.png,,,,,,,,,,,,,,,,,,,,,,,,,,,,,,,,,
,,,,,,,,,,,,,,,,,61097b783bcdb1cec05c57e5,68,2022-02-12_13h40.03.897,lexical_decision_task_DD_L6,2021.2.3,iPad,62.5,,,,,,,,,,0.71,1,,,,,,,,,,,,,,,0,-0.397577093,-0.398678414,1,0,0,0.71,button_left_main,-0.397577093,-0.398678414,1,0,0,,0,144,144,135,1,JOODY,C,z,z,./images/JOODY.png,,,,,,,,,,,,,,,,,,,,,,,,,,,,,,,,,
,,,,,,,,,,,,,,,,,61097b783bcdb1cec05c57e5,68,2022-02-12_13h40.03.897,lexical_decision_task_DD_L6,2021.2.3,iPad,62.5,,,,,,,,,,0.832,1,,,,,,,,,,,,,,,0,-0.397577093,-0.407488987,1,0,0,0.832,button_left_main,-0.421806167,-0.396475771,1,0,0,,0,145,145,84,1,HAXES,C,z,z,./images/HAXES.png,,,,,,,,,,,,,,,,,,,,,,,,,,,,,,,,,
,,,,,,,,,,,,,,,,,61097b783bcdb1cec05c57e5,68,2022-02-12_13h40.03.897,lexical_decision_task_DD_L6,2021.2.3,iPad,62.5,,,,,,,,,,0.96,1,,,,,,,,,,,,,,,0,-0.432819383,-0.405286344,1,0,0,0.96,button_left_main,-0.448237885,-0.374449339,1,0,0,,0,146,146,94,1,BLANS,HB,z,z,./images/BLANSHB.png,,,,,,,,,,,,,,,,,,,,,,,,,,,,,,,,,
,,,,,,,,,,,,,,,,,61097b783bcdb1cec05c57e5,68,2022-02-12_13h40.03.897,lexical_decision_task_DD_L6,2021.2.3,iPad,62.5,,,,,,,,,,0.815,1,,,,,,,,,,,,,,,0,0.598017621,-0.374449339,1,0,0,0.815,button_right_main,0.598017621,-0.374449339,1,0,0,,0,147,147,30,1,SLOPE,LB,m,m,./images/SLOPELB.png,,,,,,,,,,,,,,,,,,,,,,,,,,,,,,,,,
,,,,,,,,,,,,,,,,,61097b783bcdb1cec05c57e5,68,2022-02-12_13h40.03.897,lexical_decision_task_DD_L6,2021.2.3,iPad,62.5,,,,,,,,,,0.877,1,,,,,,,,,,,,,,,0,0.606828194,-0.359030837,1,0,0,0.877,button_right_main,0.564977974,-0.383259912,1,0,0,,0,148,148,35,1,LLAMA,HB,m,m,./images/LLAMAHB.png,,,,,,,,,,,,,,,,,,,,,,,,,,,,,,,,,
,,,,,,,,,,,,,,,,,61097b783bcdb1cec05c57e5,68,2022-02-12_13h40.03.897,lexical_decision_task_DD_L6,2021.2.3,iPad,62.5,,,,,,,,,,0.834,1,,,,,,,,,,,,,,,0,0.578193833,-0.425110132,1,0,0,0.834,button_right_main,0.516519824,-0.378854626,1,0,0,,0,149,149,10,1,GARDEN,C,m,m,./images/GARDEN.png,,,,,,,,,,,,,,,,,,,,,,,,,,,,,,,,,
,,,,,,,,,,,,,,,,,61097b783bcdb1cec05c57e5,68,2022-02-12_13h40.03.897,lexical_decision_task_DD_L6,2021.2.3,iPad,62.5,,,,,,,,,,1.352,1,,,,,,,,,,,,,,,0,0.545154185,-0.396475771,1,0,0,1.352,button_right_main,0.545154185,-0.396475771,1,0,0,,0,150,150,71,1,BUBBLE,HB,m,m,./images/BUBBLEHB.png,,,,,,,,,,,,,,,,,,,,,,,,,,,,,,,,,
,,,,,,,,,,,,,,,,,61097b783bcdb1cec05c57e5,68,2022-02-12_13h40.03.897,lexical_decision_task_DD_L6,2021.2.3,iPad,62.5,,,,,,,,,,0.8,1,,,,,,,,,,,,,,,0,-0.410792952,-0.376651982,1,0,0,0.8,button_left_main,-0.410792952,-0.376651982,1,0,0,,0,151,151,126,1,GUELS,C,z,z,./images/GUELS.png,,,,,,,,,,,,,,,,,,,,,,,,,,,,,,,,,
,,,,,,,,,,,,,,,,,61097b783bcdb1cec05c57e5,68,2022-02-12_13h40.03.897,lexical_decision_task_DD_L6,2021.2.3,iPad,62.5,,,,,,,,,,1.502,1,,,,,,,,,,,,,,,0,-0.426211454,-0.394273128,1,0,0,1.502,button_left_main,-0.426211454,-0.394273128,1,0,0,,0,152,152,157,1,INLER,HB,z,z,./images/INLERHB.png,,,,,,,,,,,,,,,,,,,,,,,,,,,,,,,,,
,,,,,,,,,,,,,,,,,61097b783bcdb1cec05c57e5,68,2022-02-12_13h40.03.897,lexical_decision_task_DD_L6,2021.2.3,iPad,62.5,,,,,,,,,,0.908,1,,,,,,,,,,,,,,,0,0.587004405,-0.36784141,1,0,0,0.908,button_right_main,0.587004405,-0.36784141,1,0,0,,0,153,153,2,1,STOVE,HB,m,m,./images/STOVEHB.png,,,,,,,,,,,,,,,,,,,,,,,,,,,,,,,,,
,,,,,,,,,,,,,,,,,61097b783bcdb1cec05c57e5,68,2022-02-12_13h40.03.897,lexical_decision_task_DD_L6,2021.2.3,iPad,62.5,,,,,,,,,,1.189,1,,,,,,,,,,,,,,,0,0.580396476,-0.328193833,1,0,0,1.189,button_right_main,0.580396476,-0.328193833,1,0,0,,0,154,154,50,1,PILOT,HB,m,m,./images/PILOTHB.png,,,,,,,,,,,,,,,,,,,,,,,,,,,,,,,,,
,,,,,,,,,,,,,,,,,61097b783bcdb1cec05c57e5,68,2022-02-12_13h40.03.897,lexical_decision_task_DD_L6,2021.2.3,iPad,62.5,,,,,,,,,,0.841,1,,,,,,,,,,,,,,,0,0.56938326,-0.365638767,1,0,0,0.841,button_right_main,0.56938326,-0.365638767,1,0,0,,0,155,155,23,1,CLOTH,HB,m,m,./images/CLOTHHB.png,,,,,,,,,,,,,,,,,,,,,,,,,,,,,,,,,
,,,,,,,,,,,,,,,,,61097b783bcdb1cec05c57e5,68,2022-02-12_13h40.03.897,lexical_decision_task_DD_L6,2021.2.3,iPad,62.5,,,,,,,,,,1.184,1,,,,,,,,,,,,,,,0,-0.428414097,-0.407488987,1,0,0,1.184,button_left_main,-0.432819383,-0.374449339,1,0,0,,0,156,156,133,1,POWDY,HB,z,z,./images/POWDYHB.png,,,,,,,,,,,,,,,,,,,,,,,,,,,,,,,,,
,,,,,,,,,,,,,,,,,61097b783bcdb1cec05c57e5,68,2022-02-12_13h40.03.897,lexical_decision_task_DD_L6,2021.2.3,iPad,62.5,,,,,,,,,,1.176,1,,,,,,,,,,,,,,,0,-0.428414097,-0.381057269,1,0,0,1.176,button_left_main,-0.428414097,-0.381057269,1,0,0,,0,157,157,137,1,JOOST,LB,z,z,./images/JOOSTLB.png,,,,,,,,,,,,,,,,,,,,,,,,,,,,,,,,,
,,,,,,,,,,,,,,,,,61097b783bcdb1cec05c57e5,68,2022-02-12_13h40.03.897,lexical_decision_task_DD_L6,2021.2.3,iPad,62.5,,,,,,,,,,1.718,1,,,,,,,,,,,,,,,0,0.580396476,-0.354625551,1,0,0,1.718,button_right_main,0.580396476,-0.354625551,1,0,0,,0,158,158,20,1,GRANNY,HB,m,m,./images/GRANNYHB.png,,,,,,,,,,,,,,,,,,,,,,,,,,,,,,,,,
,,,,,,,,,,,,,,,,,61097b783bcdb1cec05c57e5,68,2022-02-12_13h40.03.897,lexical_decision_task_DD_L6,2021.2.3,iPad,62.5,,,,,,,,,,0.86,1,,,,,,,,,,,,,,,0,-0.435022026,-0.396475771,1,0,0,0.86,button_left_main,-0.435022026,-0.396475771,1,0,0,,0,159,159,95,1,HANTY,LB,z,z,./images/HANTYLB.png,,,,,,,,,,,,,,,,,,,,,,,,,,,,,,,,,
,,,,,,,,,,,,,,,,,61097b783bcdb1cec05c57e5,68,2022-02-12_13h40.03.897,lexical_decision_task_DD_L6,2021.2.3,iPad,62.5,,,,,,,,,,0.626,1,,,,,,,,,,,,,,,0,-0.43722467,-0.394273128,1,0,0,0.626,button_left_main,-0.43722467,-0.394273128,1,0,0,,0,160,160,119,1,PAFER,LB,z,z,./images/PAFERLB.png,,,,,,,,,,,,,,,,,,,,,,,,,,,,,,,,,
,,,,,,,,,,,,,,,,,61097b783bcdb1cec05c57e5,68,2022-02-12_13h40.03.897,lexical_decision_task_DD_L6,2021.2.3,iPad,62.5,,,,,,,,,,0.775,1,,,,,,,,,,,,,,,0,0.595814978,-0.343612335,1,0,0,0.775,button_right_main,0.595814978,-0.343612335,1,0,0,,0,161,161,70,1,BANANA,C,m,m,./images/BANANA.png,,,,,,,,,,,,,,,,,,,,,,,,,,,,,,,,,
,,,,,,,,,,,,,,,,,61097b783bcdb1cec05c57e5,68,2022-02-12_13h40.03.897,lexical_decision_task_DD_L6,2021.2.3,iPad,62.5,,,,,,,,,,0.776,1,,,,,,,,,,,,,,,0,-0.428414097,-0.381057269,1,0,0,0.776,button_left_main,-0.428414097,-0.381057269,1,0,0,,0,162,162,143,1,MONGS,LB,z,z,./images/MONGSLB.png,,,,,,,,,,,,,,,,,,,,,,,,,,,,,,,,,
,,,,,,,,,,,,,,,,,61097b783bcdb1cec05c57e5,68,2022-02-12_13h40.03.897,lexical_decision_task_DD_L6,2021.2.3,iPad,62.5,,,,,,,,,,0.742,1,,,,,,,,,,,,,,,0,0.591409692,-0.352422907,1,0,0,0.742,button_right_main,0.591409692,-0.352422907,1,0,0,,0,163,163,42,1,CHAIN,LB,m,m,./images/CHAINLB.png,,,,,,,,,,,,,,,,,,,,,,,,,,,,,,,,,
,,,,,,,,,,,,,,,,,61097b783bcdb1cec05c57e5,68,2022-02-12_13h40.03.897,lexical_decision_task_DD_L6,2021.2.3,iPad,62.5,,,,,,,,,,0.901,1,,,,,,,,,,,,,,,0,0.582599119,-0.354625551,1,0,0,0.901,button_right_main,0.582599119,-0.354625551,1,0,0,,0,164,164,41,1,STREAM,HB,m,m,./images/STREAMHB.png,,,,,,,,,,,,,,,,,,,,,,,,,,,,,,,,,
,,,,,,,,,,,,,,,,,61097b783bcdb1cec05c57e5,68,2022-02-12_13h40.03.897,lexical_decision_task_DD_L6,2021.2.3,iPad,62.5,,,,,,,,,,0.934,1,,,,,,,,,,,,,,,0,-0.426211454,-0.387665198,1,0,0,0.934,button_left_main,-0.426211454,-0.387665198,1,0,0,,0,165,165,124,1,TUNCH,HB,z,z,./images/TUNCHHB.png,,,,,,,,,,,,,,,,,,,,,,,,,,,,,,,,,
,,,,,,,,,,,,,,,,,61097b783bcdb1cec05c57e5,68,2022-02-12_13h40.03.897,lexical_decision_task_DD_L6,2021.2.3,iPad,62.5,,,,,,,,,,0.674,1,,,,,,,,,,,,,,,0,0.584801762,-0.36784141,1,0,0,0.674,button_right_main,0.584801762,-0.36784141,1,0,0,,0,166,166,49,1,BISHOP,C,m,m,./images/BISHOP.png,,,,,,,,,,,,,,,,,,,,,,,,,,,,,,,,,
,,,,,,,,,,,,,,,,,61097b783bcdb1cec05c57e5,68,2022-02-12_13h40.03.897,lexical_decision_task_DD_L6,2021.2.3,iPad,62.5,,,,,,,,,,1.084,1,,,,,,,,,,,,,,,0,0.582599119,-0.359030837,1,0,0,1.084,button_right_main,0.582599119,-0.359030837,1,0,0,,0,167,167,5,1,BAMBOO,HB,m,m,./images/BAMBOOHB.png,,,,,,,,,,,,,,,,,,,,,,,,,,,,,,,,,
,,,,,,,,,,,,,,,,,61097b783bcdb1cec05c57e5,68,2022-02-12_13h40.03.897,lexical_decision_task_DD_L6,2021.2.3,iPad,62.5,,,,,,,,,,,,,,,,,,,,,,,,,,,,,,,,,,,,,,,,,,,,,,How likely will it be that you will recognize the words presented clearly on a scale of 0 (not likely) to 100 (most likely)?,,,,,-0.018722467,-0.389867841,1,0,0,jol_adv,6,11.73,0,0,0,0,1,,,,,,,,,,,,,,,,,,,
,,,,,,,,,,,,,,,,,61097b783bcdb1cec05c57e5,68,2022-02-12_13h40.03.897,lexical_decision_task_DD_L6,2021.2.3,iPad,62.5,,,,,,,,,,,,,,,,,,,,,,,,,,,,,,,,,,,,,,,,,,,,,,How likely will it be that you will recognize the words presented slighly blurred on a scale of 0 (not likely) to 100 (most likely)?,,,,,,,,,,,5,11.461,0,1,1,1,1,,,,,,,,,,,,,,,,,,,
,,,,,,,,,,,,,,,,,61097b783bcdb1cec05c57e5,68,2022-02-12_13h40.03.897,lexical_decision_task_DD_L6,2021.2.3,iPad,62.5,,,,,,,,,,,,,,,,,,,,,,,,,,,,,,,,,,,,,,,,,,,,,,How likely will it be that you will recognize the words presented very blurred on a scale of 0 (not likely) to 100 (most likely)?,,,,,,,,,,,4,7.284,0,2,2,2,1,,,,,,,,,,,,,,,,,,,
,0.034971645,-0.379962193,1,0,0,instr_done_button,,,,,,1,test,"In the next phase you will be presented with the words from the the first phase. Your job is to decide whether you remember seeing the word or not. If you remember seeing the word press ""old"" or type ""m"". If you do not remember seeing the word press ""new"" or type ""z"". Please press the space bar or click on continue to begin. ",,,61097b783bcdb1cec05c57e5,68,2022-02-12_13h40.03.897,lexical_decision_task_DD_L6,2021.2.3,iPad,62.5,,,,,,,,,,,,,,,,,,,,,,,,,,,,,,,,,,,,,,,,,,,,,,,,,,,,,,,,,,,,,,,,0,0,0,0,1,,,,,,,,,,,,,,
,-0.019848771,-0.406427221,1,0,0,instr_done_button,,,,,,1,test,"In the next phase you will be presented with the words from the the first phase. Your job is to decide whether you remember seeing the word or not. If you remember seeing the word press ""old"" or type ""m"". If you do not remember seeing the word press ""new"" or type ""z"". Please press the space bar or click on continue to begin. ",,,61097b783bcdb1cec05c57e5,68,2022-02-12_13h40.03.897,lexical_decision_task_DD_L6,2021.2.3,iPad,62.5,,,,,,,,,,,,,,,,,,,,,,,,,,,,,,,,,,,,,,,,,,,,,,,,,,,,,,,,,,,,,,,,1,0,1,0,1,,,,,,,,,,,,,,
,0.016068053,-0.389413989,1,0,0,instr_done_button,,,,,,1,test,"In the next phase you will be presented with the words from the the first phase. Your job is to decide whether you remember seeing the word or not. If you remember seeing the word press ""old"" or type ""m"". If you do not remember seeing the word press ""new"" or type ""z"". Please press the space bar or click on continue to begin. ",,,61097b783bcdb1cec05c57e5,68,2022-02-12_13h40.03.897,lexical_decision_task_DD_L6,2021.2.3,iPad,62.5,,,,,,,,,,,,,,,,,,,,,,,,,,,,,,,,,,,,,,,,,,,,,,,,,,,,,,,,,,,,,,,,2,0,2,0,1,,,,,,,,,,,,,,
,-0.008506616,-0.393194707,1,0,0,instr_done_button,,,,,,1,test,"In the next phase you will be presented with the words from the the first phase. Your job is to decide whether you remember seeing the word or not. If you remember seeing the word press ""old"" or type ""m"". If you do not remember seeing the word press ""new"" or type ""z"". Please press the space bar or click on continue to begin. ",,,61097b783bcdb1cec05c57e5,68,2022-02-12_13h40.03.897,lexical_decision_task_DD_L6,2021.2.3,iPad,62.5,,,,,,,,,,,,,,,,,,,,,,,,,,,,,,,,,,,,,,,,,,,,,,,,,,,,,,,,,,,,,,,,3,0,3,0,1,,,,,,,,,,,,,,
,-0.006616257,-0.396975425,1,0,0,instr_done_button,,,,,,1,test,"In the next phase you will be presented with the words from the the first phase. Your job is to decide whether you remember seeing the word or not. If you remember seeing the word press ""old"" or type ""m"". If you do not remember seeing the word press ""new"" or type ""z"". Please press the space bar or click on continue to begin. ",,,61097b783bcdb1cec05c57e5,68,2022-02-12_13h40.03.897,lexical_decision_task_DD_L6,2021.2.3,iPad,62.5,,,,,,,,,,,,,,,,,,,,,,,,,,,,,,,,,,,,,,,,,,,,,,,,,,,,,,,,,,,,,,,,4,0,4,0,1,,,,,,,,,,,,,,
,,,,,,,,,,,,,,,,,61097b783bcdb1cec05c57e5,68,2022-02-12_13h40.03.897,lexical_decision_task_DD_L6,2021.2.3,iPad,62.5,,,,,,,,,,2.65,1,,,,,,,,,,,,,,,,,,,,,,,-0.222117202,-0.287334594,1,0,0,,,,,,,PIMPLE,HB,z,y,./images/PIMPLEHB.png,,,,,,,,,,,,,,,,,,,,,0,-0.222117202,-0.287334594,1,0,0,2.65,button_left_test,0,0,0,155,1
,,,,,,,,,,,,,,,,,61097b783bcdb1cec05c57e5,68,2022-02-12_13h40.03.897,lexical_decision_task_DD_L6,2021.2.3,iPad,62.5,,,,,,,,,,1.241,1,,,,,,,,,,,,,,,,,,,,,,,0.411153119,-0.293005671,1,0,0,,,,,,,MAMMAL,HB,m,y,./images/MAMMALHB.png,,,,,,,,,,,,,,,,,,,,,0,0.411153119,-0.293005671,1,0,0,1.241,button_right_test,0,1,1,62,1
,,,,,,,,,,,,,,,,,61097b783bcdb1cec05c57e5,68,2022-02-12_13h40.03.897,lexical_decision_task_DD_L6,2021.2.3,iPad,62.5,,,,,,,,,,1.775,1,,,,,,,,,,,,,,,,,,,,,,,-0.258034026,-0.285444234,1,0,0,,,,,,,TRIPOD,LB,z,y,./images/TRIPODLB.png,,,,,,,,,,,,,,,,,,,,,0,-0.258034026,-0.285444234,1,0,0,1.775,button_left_test,0,2,2,138,1
,,,,,,,,,,,,,,,,,61097b783bcdb1cec05c57e5,68,2022-02-12_13h40.03.897,lexical_decision_task_DD_L6,2021.2.3,iPad,62.5,,,,,,,,,,1.663,1,,,,,,,,,,,,,,,,,,,,,,,0.38657845,-0.268431002,1,0,0,,,,,,,PARCEL,LB,m,y,./images/PARCELLB.png,,,,,,,,,,,,,,,,,,,,,0,0.38657845,-0.268431002,1,0,0,1.663,button_right_test,0,3,3,18,1
,,,,,,,,,,,,,,,,,61097b783bcdb1cec05c57e5,68,2022-02-12_13h40.03.897,lexical_decision_task_DD_L6,2021.2.3,iPad,62.5,,,,,,,,,,2.574,1,,,,,,,,,,,,,,,,,,,,,,,-0.246691871,-0.291115312,1,0,0,,,,,,,LIZARD,HB,z,y,./images/LIZARDHB.png,,,,,,,,,,,,,,,,,,,,,0,-0.246691871,-0.291115312,1,0,0,2.574,button_left_test,0,4,4,128,1
,,,,,,,,,,,,,,,,,61097b783bcdb1cec05c57e5,68,2022-02-12_13h40.03.897,lexical_decision_task_DD_L6,2021.2.3,iPad,62.5,,,,,,,,,,0.843,1,,,,,,,,,,,,,,,,,,,,,,,-0.252362949,-0.281663516,1,0,0,,,,,,,INFANT,C,z,y,./images/INFANT.png,,,,,,,,,,,,,,,,,,,,,0,-0.252362949,-0.281663516,1,0,0,0.843,button_left_test,0,5,5,160,1
,,,,,,,,,,,,,,,,,61097b783bcdb1cec05c57e5,68,2022-02-12_13h40.03.897,lexical_decision_task_DD_L6,2021.2.3,iPad,62.5,,,,,,,,,,0.722,1,,,,,,,,,,,,,,,,,,,,,,,-0.252362949,-0.279773157,1,0,0,,,,,,,MELON,C,z,y,./images/MELON.png,,,,,,,,,,,,,,,,,,,,,0,-0.252362949,-0.279773157,1,0,0,0.722,button_left_test,0,6,6,106,1
,,,,,,,,,,,,,,,,,61097b783bcdb1cec05c57e5,68,2022-02-12_13h40.03.897,lexical_decision_task_DD_L6,2021.2.3,iPad,62.5,,,,,,,,,,0.716,0,,,,,,,,,,,,,,,,,,,,,,,-0.254253308,-0.291115312,1,0,0,,,,,,,ALLEY,C,m,y,./images/ALLEY.png,,,,,,,,,,,,,,,,,,,,,0,-0.254253308,-0.291115312,1,0,0,0.716,button_left_test,0,7,7,55,1
,,,,,,,,,,,,,,,,,61097b783bcdb1cec05c57e5,68,2022-02-12_13h40.03.897,lexical_decision_task_DD_L6,2021.2.3,iPad,62.5,,,,,,,,,,1.391,0,,,,,,,,,,,,,,,,,,,,,,,-0.25047259,-0.293005671,1,0,0,,,,,,,TOWEL,C,m,y,./images/TOWEL.png,,,,,,,,,,,,,,,,,,,,,0,-0.25047259,-0.293005671,1,0,0,1.391,button_left_test,0,8,8,1,1
,,,,,,,,,,,,,,,,,61097b783bcdb1cec05c57e5,68,2022-02-12_13h40.03.897,lexical_decision_task_DD_L6,2021.2.3,iPad,62.5,,,,,,,,,,0.841,1,,,,,,,,,,,,,,,,,,,,,,,-0.244801512,-0.304347826,1,0,0,,,,,,,TULIP,HB,z,y,./images/TULIPHB.png,,,,,,,,,,,,,,,,,,,,,0,-0.244801512,-0.304347826,1,0,0,0.841,button_left_test,0,9,9,92,1
,,,,,,,,,,,,,,,,,61097b783bcdb1cec05c57e5,68,2022-02-12_13h40.03.897,lexical_decision_task_DD_L6,2021.2.3,iPad,62.5,,,,,,,,,,0.964,1,,,,,,,,,,,,,,,,,,,,,,,0.416824197,-0.262759924,1,0,0,,,,,,,JUMPER,HB,m,y,./images/JUMPERHB.png,,,,,,,,,,,,,,,,,,,,,0,0.416824197,-0.262759924,1,0,0,0.964,button_right_test,0,10,10,74,1
,,,,,,,,,,,,,,,,,61097b783bcdb1cec05c57e5,68,2022-02-12_13h40.03.897,lexical_decision_task_DD_L6,2021.2.3,iPad,62.5,,,,,,,,,,0.931,1,,,,,,,,,,,,,,,,,,,,,,,0.399810964,-0.268431002,1,0,0,,,,,,,BRIDE,C,m,y,./images/BRIDE.png,,,,,,,,,,,,,,,,,,,,,0,0.399810964,-0.268431002,1,0,0,0.931,button_right_test,0,11,11,64,1
,,,,,,,,,,,,,,,,,61097b783bcdb1cec05c57e5,68,2022-02-12_13h40.03.897,lexical_decision_task_DD_L6,2021.2.3,iPad,62.5,,,,,,,,,,1.874,1,,,,,,,,,,,,,,,,,,,,,,,0.397920605,-0.264650284,1,0,0,,,,,,,GRAPE,C,m,y,./images/GRAPE.png,,,,,,,,,,,,,,,,,,,,,0,0.397920605,-0.264650284,1,0,0,1.874,button_right_test,0,12,12,16,1
,,,,,,,,,,,,,,,,,61097b783bcdb1cec05c57e5,68,2022-02-12_13h40.03.897,lexical_decision_task_DD_L6,2021.2.3,iPad,62.5,,,,,,,,,,0.796,1,,,,,,,,,,,,,,,,,,,,,,,0.388468809,-0.264650284,1,0,0,,,,,,,CASINO,C,m,y,./images/CASINO.png,,,,,,,,,,,,,,,,,,,,,0,0.388468809,-0.264650284,1,0,0,0.796,button_right_test,0,13,13,28,1
,,,,,,,,,,,,,,,,,61097b783bcdb1cec05c57e5,68,2022-02-12_13h40.03.897,lexical_decision_task_DD_L6,2021.2.3,iPad,62.5,,,,,,,,,,2.742,0,,,,,,,,,,,,,,,,,,,,,,,0.394139887,-0.27221172,1,0,0,,,,,,,CARPET,HB,z,y,./images/CARPETHB.png,,,,,,,,,,,,,,,,,,,,,0,0.394139887,-0.27221172,1,0,0,2.742,button_right_test,0,14,14,137,1
,,,,,,,,,,,,,,,,,61097b783bcdb1cec05c57e5,68,2022-02-12_13h40.03.897,lexical_decision_task_DD_L6,2021.2.3,iPad,62.5,,,,,,,,,,0.856,1,,,,,,,,,,,,,,,,,,,,,,,0.407372401,-0.268431002,1,0,0,,,,,,,PLANET,HB,m,y,./images/PLANETHB.png,,,,,,,,,,,,,,,,,,,,,0,0.407372401,-0.268431002,1,0,0,0.856,button_right_test,0,15,15,80,1
,,,,,,,,,,,,,,,,,61097b783bcdb1cec05c57e5,68,2022-02-12_13h40.03.897,lexical_decision_task_DD_L6,2021.2.3,iPad,62.5,,,,,,,,,,1.824,1,,,,,,,,,,,,,,,,,,,,,,,-0.254253308,-0.291115312,1,0,0,,,,,,,WEASEL,HB,z,y,./images/WEASELHB.png,,,,,,,,,,,,,,,,,,,,,0,-0.254253308,-0.291115312,1,0,0,1.824,button_left_test,0,16,16,164,1
,,,,,,,,,,,,,,,,,61097b783bcdb1cec05c57e5,68,2022-02-12_13h40.03.897,lexical_decision_task_DD_L6,2021.2.3,iPad,62.5,,,,,,,,,,0.831,1,,,,,,,,,,,,,,,,,,,,,,,0.414933837,-0.258979206,1,0,0,,,,,,,BOILER,LB,m,y,./images/BOILERLB.png,,,,,,,,,,,,,,,,,,,,,0,0.414933837,-0.258979206,1,0,0,0.831,button_right_test,0,17,17,36,1
,,,,,,,,,,,,,,,,,61097b783bcdb1cec05c57e5,68,2022-02-12_13h40.03.897,lexical_decision_task_DD_L6,2021.2.3,iPad,62.5,,,,,,,,,,0.762,1,,,,,,,,,,,,,,,,,,,,,,,0.411153119,-0.268431002,1,0,0,,,,,,,CURRY,LB,m,y,./images/CURRYLB.png,,,,,,,,,,,,,,,,,,,,,0,0.411153119,-0.268431002,1,0,0,0.762,button_right_test,0,18,18,60,1
,,,,,,,,,,,,,,,,,61097b783bcdb1cec05c57e5,68,2022-02-12_13h40.03.897,lexical_decision_task_DD_L6,2021.2.3,iPad,62.5,,,,,,,,,,1.739,1,,,,,,,,,,,,,,,,,,,,,,,-0.252362949,-0.281663516,1,0,0,,,,,,,CRUMB,HB,z,y,./images/CRUMBHB.png,,,,,,,,,,,,,,,,,,,,,0,-0.252362949,-0.281663516,1,0,0,1.739,button_left_test,0,19,19,113,1
,,,,,,,,,,,,,,,,,61097b783bcdb1cec05c57e5,68,2022-02-12_13h40.03.897,lexical_decision_task_DD_L6,2021.2.3,iPad,62.5,,,,,,,,,,1.856,1,,,,,,,,,,,,,,,,,,,,,,,0.411153119,-0.275992439,1,0,0,,,,,,,CHALK,C,m,y,./images/CHALK.png,,,,,,,,,,,,,,,,,,,,,0,0.411153119,-0.275992439,1,0,0,1.856,button_right_test,0,20,20,25,1
,,,,,,,,,,,,,,,,,61097b783bcdb1cec05c57e5,68,2022-02-12_13h40.03.897,lexical_decision_task_DD_L6,2021.2.3,iPad,62.5,,,,,,,,,,1.265,1,,,,,,,,,,,,,,,,,,,,,,,-0.25047259,-0.291115312,1,0,0,,,,,,,MOOSE,LB,z,y,./images/MOOSELB.png,,,,,,,,,,,,,,,,,,,,,0,-0.25047259,-0.291115312,1,0,0,1.265,button_left_test,0,21,21,141,1
,,,,,,,,,,,,,,,,,61097b783bcdb1cec05c57e5,68,2022-02-12_13h40.03.897,lexical_decision_task_DD_L6,2021.2.3,iPad,62.5,,,,,,,,,,1.231,1,,,,,,,,,,,,,,,,,,,,,,,-0.244801512,-0.293005671,1,0,0,,,,,,,CRADLE,HB,z,y,./images/CRADLEHB.png,,,,,,,,,,,,,,,,,,,,,0,-0.244801512,-0.293005671,1,0,0,1.231,button_left_test,0,22,22,104,1
,,,,,,,,,,,,,,,,,61097b783bcdb1cec05c57e5,68,2022-02-12_13h40.03.897,lexical_decision_task_DD_L6,2021.2.3,iPad,62.5,,,,,,,,,,1.473,0,,,,,,,,,,,,,,,,,,,,,,,-0.235349716,-0.296786389,1,0,0,,,,,,,SLOPE,LB,m,y,./images/SLOPELB.png,,,,,,,,,,,,,,,,,,,,,0,-0.235349716,-0.296786389,1,0,0,1.473,button_left_test,0,23,23,30,1
,,,,,,,,,,,,,,,,,61097b783bcdb1cec05c57e5,68,2022-02-12_13h40.03.897,lexical_decision_task_DD_L6,2021.2.3,iPad,62.5,,,,,,,,,,1.209,1,,,,,,,,,,,,,,,,,,,,,,,-0.244801512,-0.302457467,1,0,0,,,,,,,JAGUAR,LB,z,y,./images/JAGUARLB.png,,,,,,,,,,,,,,,,,,,,,0,-0.244801512,-0.302457467,1,0,0,1.209,button_left_test,0,24,24,102,1
,,,,,,,,,,,,,,,,,61097b783bcdb1cec05c57e5,68,2022-02-12_13h40.03.897,lexical_decision_task_DD_L6,2021.2.3,iPad,62.5,,,,,,,,,,0.935,1,,,,,,,,,,,,,,,,,,,,,,,-0.22778828,-0.29489603,1,0,0,,,,,,,MAGGOT,LB,z,y,./images/MAGGOTLB.png,,,,,,,,,,,,,,,,,,,,,0,-0.22778828,-0.29489603,1,0,0,0.935,button_left_test,0,25,25,117,1
,,,,,,,,,,,,,,,,,61097b783bcdb1cec05c57e5,68,2022-02-12_13h40.03.897,lexical_decision_task_DD_L6,2021.2.3,iPad,62.5,,,,,,,,,,1.565,0,,,,,,,,,,,,,,,,,,,,,,,-0.239130435,-0.285444234,1,0,0,,,,,,,GLOVE,C,m,y,./images/GLOVE.png,,,,,,,,,,,,,,,,,,,,,0,-0.239130435,-0.285444234,1,0,0,1.565,button_left_test,0,26,26,73,1
,,,,,,,,,,,,,,,,,61097b783bcdb1cec05c57e5,68,2022-02-12_13h40.03.897,lexical_decision_task_DD_L6,2021.2.3,iPad,62.5,,,,,,,,,,0.85,1,,,,,,,,,,,,,,,,,,,,,,,-0.235349716,-0.291115312,1,0,0,,,,,,,TORCH,HB,z,y,./images/TORCHHB.png,,,,,,,,,,,,,,,,,,,,,0,-0.235349716,-0.291115312,1,0,0,0.85,button_left_test,0,27,27,152,1
,,,,,,,,,,,,,,,,,61097b783bcdb1cec05c57e5,68,2022-02-12_13h40.03.897,lexical_decision_task_DD_L6,2021.2.3,iPad,62.5,,,,,,,,,,0.883,1,,,,,,,,,,,,,,,,,,,,,,,-0.242911153,-0.285444234,1,0,0,,,,,,,FOLDER,LB,z,y,./images/FOLDERLB.png,,,,,,,,,,,,,,,,,,,,,0,-0.242911153,-0.285444234,1,0,0,0.883,button_left_test,0,28,28,126,1
,,,,,,,,,,,,,,,,,61097b783bcdb1cec05c57e5,68,2022-02-12_13h40.03.897,lexical_decision_task_DD_L6,2021.2.3,iPad,62.5,,,,,,,,,,1.114,1,,,,,,,,,,,,,,,,,,,,,,,-0.25047259,-0.281663516,1,0,0,,,,,,,GREASE,LB,z,y,./images/GREASELB.png,,,,,,,,,,,,,,,,,,,,,0,-0.25047259,-0.281663516,1,0,0,1.114,button_left_test,0,29,29,99,1
,,,,,,,,,,,,,,,,,61097b783bcdb1cec05c57e5,68,2022-02-12_13h40.03.897,lexical_decision_task_DD_L6,2021.2.3,iPad,62.5,,,,,,,,,,1.707,1,,,,,,,,,,,,,,,,,,,,,,,-0.25047259,-0.279773157,1,0,0,,,,,,,BIRTH,C,z,y,./images/BIRTH.png,,,,,,,,,,,,,,,,,,,,,0,-0.25047259,-0.279773157,1,0,0,1.707,button_left_test,0,30,30,121,1
,,,,,,,,,,,,,,,,,61097b783bcdb1cec05c57e5,68,2022-02-12_13h40.03.897,lexical_decision_task_DD_L6,2021.2.3,iPad,62.5,,,,,,,,,,1.325,0,,,,,,,,,,,,,,,,,,,,,,,-0.241020794,-0.287334594,1,0,0,,,,,,,LAGOON,HB,m,y,./images/LAGOONHB.png,,,,,,,,,,,,,,,,,,,,,0,-0.241020794,-0.287334594,1,0,0,1.325,button_left_test,0,31,31,47,1
,,,,,,,,,,,,,,,,,61097b783bcdb1cec05c57e5,68,2022-02-12_13h40.03.897,lexical_decision_task_DD_L6,2021.2.3,iPad,62.5,,,,,,,,,,2.228,1,,,,,,,,,,,,,,,,,,,,,,,-0.244801512,-0.281663516,1,0,0,,,,,,,SMOKER,HB,z,y,./images/SMOKERHB.png,,,,,,,,,,,,,,,,,,,,,0,-0.244801512,-0.281663516,1,0,0,2.228,button_left_test,0,32,32,110,1
,,,,,,,,,,,,,,,,,61097b783bcdb1cec05c57e5,68,2022-02-12_13h40.03.897,lexical_decision_task_DD_L6,2021.2.3,iPad,62.5,,,,,,,,,,0.899,1,,,,,,,,,,,,,,,,,,,,,,,-0.244801512,-0.281663516,1,0,0,,,,,,,SQUARE,LB,z,y,./images/SQUARELB.png,,,,,,,,,,,,,,,,,,,,,0,-0.244801512,-0.281663516,1,0,0,0.899,button_left_test,0,33,33,90,1
,,,,,,,,,,,,,,,,,61097b783bcdb1cec05c57e5,68,2022-02-12_13h40.03.897,lexical_decision_task_DD_L6,2021.2.3,iPad,62.5,,,,,,,,,,0.744,1,,,,,,,,,,,,,,,,,,,,,,,-0.244801512,-0.275992439,1,0,0,,,,,,,MOTOR,C,z,y,./images/MOTOR.png,,,,,,,,,,,,,,,,,,,,,0,-0.244801512,-0.275992439,1,0,0,0.744,button_left_test,0,34,34,97,1
,,,,,,,,,,,,,,,,,61097b783bcdb1cec05c57e5,68,2022-02-12_13h40.03.897,lexical_decision_task_DD_L6,2021.2.3,iPad,62.5,,,,,,,,,,0.858,1,,,,,,,,,,,,,,,,,,,,,,,0.394139887,-0.266540643,1,0,0,,,,,,,STEAK,C,m,y,./images/STEAK.png,,,,,,,,,,,,,,,,,,,,,0,0.394139887,-0.266540643,1,0,0,0.858,button_right_test,0,35,35,31,1
,,,,,,,,,,,,,,,,,61097b783bcdb1cec05c57e5,68,2022-02-12_13h40.03.897,lexical_decision_task_DD_L6,2021.2.3,iPad,62.5,,,,,,,,,,1.042,1,,,,,,,,,,,,,,,,,,,,,,,-0.242911153,-0.275992439,1,0,0,,,,,,,MUSCLE,C,z,y,./images/MUSCLE.png,,,,,,,,,,,,,,,,,,,,,0,-0.242911153,-0.275992439,1,0,0,1.042,button_left_test,0,36,36,88,1
,,,,,,,,,,,,,,,,,61097b783bcdb1cec05c57e5,68,2022-02-12_13h40.03.897,lexical_decision_task_DD_L6,2021.2.3,iPad,62.5,,,,,,,,,,0.856,1,,,,,,,,,,,,,,,,,,,,,,,0.392249527,-0.266540643,1,0,0,,,,,,,LLAMA,HB,m,y,./images/LLAMAHB.png,,,,,,,,,,,,,,,,,,,,,0,0.392249527,-0.266540643,1,0,0,0.856,button_right_test,0,37,37,35,1
,,,,,,,,,,,,,,,,,61097b783bcdb1cec05c57e5,68,2022-02-12_13h40.03.897,lexical_decision_task_DD_L6,2021.2.3,iPad,62.5,,,,,,,,,,1.44,0,,,,,,,,,,,,,,,,,,,,,,,0.392249527,-0.258979206,1,0,0,,,,,,,MALLET,HB,z,y,./images/MALLETHB.png,,,,,,,,,,,,,,,,,,,,,0,0.392249527,-0.258979206,1,0,0,1.44,button_right_test,0,38,38,134,1
,,,,,,,,,,,,,,,,,61097b783bcdb1cec05c57e5,68,2022-02-12_13h40.03.897,lexical_decision_task_DD_L6,2021.2.3,iPad,62.5,,,,,,,,,,0.857,1,,,,,,,,,,,,,,,,,,,,,,,0.403591682,-0.274102079,1,0,0,,,,,,,BISHOP,C,m,y,./images/BISHOP.png,,,,,,,,,,,,,,,,,,,,,0,0.403591682,-0.274102079,1,0,0,0.857,button_right_test,0,39,39,49,1
,,,,,,,,,,,,,,,,,61097b783bcdb1cec05c57e5,68,2022-02-12_13h40.03.897,lexical_decision_task_DD_L6,2021.2.3,iPad,62.5,,,,,,,,,,1.818,0,,,,,,,,,,,,,,,,,,,,,,,-0.233459357,-0.279773157,1,0,0,,,,,,,ENGINE,HB,m,y,./images/ENGINEHB.png,,,,,,,,,,,,,,,,,,,,,0,-0.233459357,-0.279773157,1,0,0,1.818,button_left_test,0,40,40,38,1
,,,,,,,,,,,,,,,,,61097b783bcdb1cec05c57e5,68,2022-02-12_13h40.03.897,lexical_decision_task_DD_L6,2021.2.3,iPad,62.5,,,,,,,,,,1.015,1,,,,,,,,,,,,,,,,,,,,,,,0.15973535,-0.357277883,1,0,0,,,,,,,SNACK,C,z,y,./images/SNACK.png,break_done_button,,,,,,,,,,,,,,,,,,,,0,-0.241020794,-0.275992439,1,0,0,1.015,button_left_test,0,41,41,157,1
,,,,,,,,,,,,,,,,,61097b783bcdb1cec05c57e5,68,2022-02-12_13h40.03.897,lexical_decision_task_DD_L6,2021.2.3,iPad,62.5,,,,,,,,,,2.306,1,,,,,,,,,,,,,,,,,,,,,,,0.399810964,-0.289224953,1,0,0,,,,,,,CANDY,LB,m,y,./images/CANDYLB.png,,,,,,,,,,,,,,,,,,,,,0,0.399810964,-0.289224953,1,0,0,2.306,button_right_test,0,42,42,39,1
,,,,,,,,,,,,,,,,,61097b783bcdb1cec05c57e5,68,2022-02-12_13h40.03.897,lexical_decision_task_DD_L6,2021.2.3,iPad,62.5,,,,,,,,,,1.041,0,,,,,,,,,,,,,,,,,,,,,,,0.399810964,-0.291115312,1,0,0,,,,,,,BERRY,HB,z,y,./images/BERRYHB.png,,,,,,,,,,,,,,,,,,,,,0,0.399810964,-0.291115312,1,0,0,1.041,button_right_test,0,43,43,131,1
,,,,,,,,,,,,,,,,,61097b783bcdb1cec05c57e5,68,2022-02-12_13h40.03.897,lexical_decision_task_DD_L6,2021.2.3,iPad,62.5,,,,,,,,,,1.295,1,,,,,,,,,,,,,,,,,,,,,,,-0.256143667,-0.285444234,1,0,0,,,,,,,BABOON,C,z,y,./images/BABOON.png,,,,,,,,,,,,,,,,,,,,,0,-0.256143667,-0.285444234,1,0,0,1.295,button_left_test,0,44,44,142,1
,,,,,,,,,,,,,,,,,61097b783bcdb1cec05c57e5,68,2022-02-12_13h40.03.897,lexical_decision_task_DD_L6,2021.2.3,iPad,62.5,,,,,,,,,,1.134,1,,,,,,,,,,,,,,,,,,,,,,,-0.244801512,-0.285444234,1,0,0,,,,,,,BELLY,C,z,y,./images/BELLY.png,,,,,,,,,,,,,,,,,,,,,0,-0.244801512,-0.285444234,1,0,0,1.134,button_left_test,0,45,45,94,1
,,,,,,,,,,,,,,,,,61097b783bcdb1cec05c57e5,68,2022-02-12_13h40.03.897,lexical_decision_task_DD_L6,2021.2.3,iPad,62.5,,,,,,,,,,0.858,1,,,,,,,,,,,,,,,,,,,,,,,0.388468809,-0.275992439,1,0,0,,,,,,,MUMMY,C,m,y,./images/MUMMY.png,,,,,,,,,,,,,,,,,,,,,0,0.388468809,-0.275992439,1,0,0,0.858,button_right_test,0,46,46,46,1
,,,,,,,,,,,,,,,,,61097b783bcdb1cec05c57e5,68,2022-02-12_13h40.03.897,lexical_decision_task_DD_L6,2021.2.3,iPad,62.5,,,,,,,,,,1.708,0,,,,,,,,,,,,,,,,,,,,,,,0.403591682,-0.29489603,1,0,0,,,,,,,SPORT,LB,z,y,./images/SPORTLB.png,,,,,,,,,,,,,,,,,,,,,0,0.403591682,-0.29489603,1,0,0,1.708,button_right_test,0,47,47,132,1
,,,,,,,,,,,,,,,,,61097b783bcdb1cec05c57e5,68,2022-02-12_13h40.03.897,lexical_decision_task_DD_L6,2021.2.3,iPad,62.5,,,,,,,,,,0.778,1,,,,,,,,,,,,,,,,,,,,,,,0.394139887,-0.281663516,1,0,0,,,,,,,BUNNY,C,m,y,./images/BUNNY.png,,,,,,,,,,,,,,,,,,,,,0,0.394139887,-0.281663516,1,0,0,0.778,button_right_test,0,48,48,13,1
,,,,,,,,,,,,,,,,,61097b783bcdb1cec05c57e5,68,2022-02-12_13h40.03.897,lexical_decision_task_DD_L6,2021.2.3,iPad,62.5,,,,,,,,,,0.811,1,,,,,,,,,,,,,,,,,,,,,,,0.416824197,-0.289224953,1,0,0,,,,,,,STATUE,LB,m,y,./images/STATUELB.png,,,,,,,,,,,,,,,,,,,,,0,0.416824197,-0.289224953,1,0,0,0.811,button_right_test,0,49,49,66,1
,,,,,,,,,,,,,,,,,61097b783bcdb1cec05c57e5,68,2022-02-12_13h40.03.897,lexical_decision_task_DD_L6,2021.2.3,iPad,62.5,,,,,,,,,,1.077,1,,,,,,,,,,,,,,,,,,,,,,,-0.246691871,-0.302457467,1,0,0,,,,,,,KITTEN,LB,z,y,./images/KITTENLB.png,,,,,,,,,,,,,,,,,,,,,0,-0.246691871,-0.302457467,1,0,0,1.077,button_left_test,0,50,50,129,1
,,,,,,,,,,,,,,,,,61097b783bcdb1cec05c57e5,68,2022-02-12_13h40.03.897,lexical_decision_task_DD_L6,2021.2.3,iPad,62.5,,,,,,,,,,0.992,0,,,,,,,,,,,,,,,,,,,,,,,-0.246691871,-0.308128544,1,0,0,,,,,,,WAGON,C,m,y,./images/WAGON.png,,,,,,,,,,,,,,,,,,,,,0,-0.246691871,-0.308128544,1,0,0,0.992,button_left_test,0,51,51,7,1
,,,,,,,,,,,,,,,,,61097b783bcdb1cec05c57e5,68,2022-02-12_13h40.03.897,lexical_decision_task_DD_L6,2021.2.3,iPad,62.5,,,,,,,,,,0.748,0,,,,,,,,,,,,,,,,,,,,,,,-0.241020794,-0.308128544,1,0,0,,,,,,,FLESH,LB,m,y,./images/FLESHLB.png,,,,,,,,,,,,,,,,,,,,,0,-0.241020794,-0.308128544,1,0,0,0.748,button_left_test,0,52,52,24,1
,,,,,,,,,,,,,,,,,61097b783bcdb1cec05c57e5,68,2022-02-12_13h40.03.897,lexical_decision_task_DD_L6,2021.2.3,iPad,62.5,,,,,,,,,,0.872,1,,,,,,,,,,,,,,,,,,,,,,,0.407372401,-0.293005671,1,0,0,,,,,,,CLOTH,HB,m,y,./images/CLOTHHB.png,,,,,,,,,,,,,,,,,,,,,0,0.407372401,-0.293005671,1,0,0,0.872,button_right_test,0,53,53,23,1
,,,,,,,,,,,,,,,,,61097b783bcdb1cec05c57e5,68,2022-02-12_13h40.03.897,lexical_decision_task_DD_L6,2021.2.3,iPad,62.5,,,,,,,,,,1.075,1,,,,,,,,,,,,,,,,,,,,,,,0.418714556,-0.291115312,1,0,0,,,,,,,SNAKE,C,m,y,./images/SNAKE.png,,,,,,,,,,,,,,,,,,,,,0,0.418714556,-0.291115312,1,0,0,1.075,button_right_test,0,54,54,40,1
,,,,,,,,,,,,,,,,,61097b783bcdb1cec05c57e5,68,2022-02-12_13h40.03.897,lexical_decision_task_DD_L6,2021.2.3,iPad,62.5,,,,,,,,,,0.799,1,,,,,,,,,,,,,,,,,,,,,,,0.40926276,-0.298676749,1,0,0,,,,,,,FLASK,LB,m,y,./images/FLASKLB.png,,,,,,,,,,,,,,,,,,,,,0,0.40926276,-0.298676749,1,0,0,0.799,button_right_test,0,55,55,72,1
,,,,,,,,,,,,,,,,,61097b783bcdb1cec05c57e5,68,2022-02-12_13h40.03.897,lexical_decision_task_DD_L6,2021.2.3,iPad,62.5,,,,,,,,,,0.787,1,,,,,,,,,,,,,,,,,,,,,,,-0.248582231,-0.302457467,1,0,0,,,,,,,BANNER,C,z,y,./images/BANNER.png,,,,,,,,,,,,,,,,,,,,,0,-0.248582231,-0.302457467,1,0,0,0.787,button_left_test,0,56,56,136,1
,,,,,,,,,,,,,,,,,61097b783bcdb1cec05c57e5,68,2022-02-12_13h40.03.897,lexical_decision_task_DD_L6,2021.2.3,iPad,62.5,,,,,,,,,,0.807,1,,,,,,,,,,,,,,,,,,,,,,,0.407372401,-0.285444234,1,0,0,,,,,,,DIVER,LB,m,y,./images/DIVERLB.png,,,,,,,,,,,,,,,,,,,,,0,0.407372401,-0.285444234,1,0,0,0.807,button_right_test,0,57,57,9,1
,,,,,,,,,,,,,,,,,61097b783bcdb1cec05c57e5,68,2022-02-12_13h40.03.897,lexical_decision_task_DD_L6,2021.2.3,iPad,62.5,,,,,,,,,,3.467,0,,,,,,,,,,,,,,,,,,,,,,,0.396030246,-0.287334594,1,0,0,,,,,,,PENCE,C,z,y,./images/PENCE.png,,,,,,,,,,,,,,,,,,,,,0,0.396030246,-0.287334594,1,0,0,3.467,button_right_test,0,58,58,100,1
,,,,,,,,,,,,,,,,,61097b783bcdb1cec05c57e5,68,2022-02-12_13h40.03.897,lexical_decision_task_DD_L6,2021.2.3,iPad,62.5,,,,,,,,,,1.066,1,,,,,,,,,,,,,,,,,,,,,,,0.40926276,-0.300567108,1,0,0,,,,,,,HOCKEY,HB,m,y,./images/HOCKEYHB.png,,,,,,,,,,,,,,,,,,,,,0,0.40926276,-0.300567108,1,0,0,1.066,button_right_test,0,59,59,32,1
,,,,,,,,,,,,,,,,,61097b783bcdb1cec05c57e5,68,2022-02-12_13h40.03.897,lexical_decision_task_DD_L6,2021.2.3,iPad,62.5,,,,,,,,,,0.791,1,,,,,,,,,,,,,,,,,,,,,,,-0.258034026,-0.306238185,1,0,0,,,,,,,ONION,LB,z,y,./images/ONIONLB.png,,,,,,,,,,,,,,,,,,,,,0,-0.258034026,-0.306238185,1,0,0,0.791,button_left_test,0,60,60,135,1
,,,,,,,,,,,,,,,,,61097b783bcdb1cec05c57e5,68,2022-02-12_13h40.03.897,lexical_decision_task_DD_L6,2021.2.3,iPad,62.5,,,,,,,,,,0.817,1,,,,,,,,,,,,,,,,,,,,,,,-0.259924386,-0.304347826,1,0,0,,,,,,,KIDNEY,LB,z,y,./images/KIDNEYLB.png,,,,,,,,,,,,,,,,,,,,,0,-0.259924386,-0.304347826,1,0,0,0.817,button_left_test,0,61,61,105,1
,,,,,,,,,,,,,,,,,61097b783bcdb1cec05c57e5,68,2022-02-12_13h40.03.897,lexical_decision_task_DD_L6,2021.2.3,iPad,62.5,,,,,,,,,,0.866,1,,,,,,,,,,,,,,,,,,,,,,,0.394139887,-0.293005671,1,0,0,,,,,,,RAZOR,C,m,y,./images/RAZOR.png,,,,,,,,,,,,,,,,,,,,,0,0.394139887,-0.293005671,1,0,0,0.866,button_right_test,0,62,62,34,1
,,,,,,,,,,,,,,,,,61097b783bcdb1cec05c57e5,68,2022-02-12_13h40.03.897,lexical_decision_task_DD_L6,2021.2.3,iPad,62.5,,,,,,,,,,1.082,1,,,,,,,,,,,,,,,,,,,,,,,0.405482042,-0.308128544,1,0,0,,,,,,,STOVE,HB,m,y,./images/STOVEHB.png,,,,,,,,,,,,,,,,,,,,,0,0.405482042,-0.308128544,1,0,0,1.082,button_right_test,0,63,63,2,1
,,,,,,,,,,,,,,,,,61097b783bcdb1cec05c57e5,68,2022-02-12_13h40.03.897,lexical_decision_task_DD_L6,2021.2.3,iPad,62.5,,,,,,,,,,1.114,1,,,,,,,,,,,,,,,,,,,,,,,0.405482042,-0.308128544,1,0,0,,,,,,,BASKET,HB,m,y,./images/BASKETHB.png,,,,,,,,,,,,,,,,,,,,,0,0.405482042,-0.308128544,1,0,0,1.114,button_right_test,0,64,64,44,1
,,,,,,,,,,,,,,,,,61097b783bcdb1cec05c57e5,68,2022-02-12_13h40.03.897,lexical_decision_task_DD_L6,2021.2.3,iPad,62.5,,,,,,,,,,2.457,1,,,,,,,,,,,,,,,,,,,,,,,0.396030246,-0.291115312,1,0,0,,,,,,,WHISKY,HB,m,y,./images/WHISKYHB.png,,,,,,,,,,,,,,,,,,,,,0,0.396030246,-0.291115312,1,0,0,2.457,button_right_test,0,65,65,83,1
,,,,,,,,,,,,,,,,,61097b783bcdb1cec05c57e5,68,2022-02-12_13h40.03.897,lexical_decision_task_DD_L6,2021.2.3,iPad,62.5,,,,,,,,,,1.532,0,,,,,,,,,,,,,,,,,,,,,,,0.413043478,-0.306238185,1,0,0,,,,,,,PACKET,HB,z,y,./images/PACKETHB.png,,,,,,,,,,,,,,,,,,,,,0,0.413043478,-0.306238185,1,0,0,1.532,button_right_test,0,66,66,140,1
,,,,,,,,,,,,,,,,,61097b783bcdb1cec05c57e5,68,2022-02-12_13h40.03.897,lexical_decision_task_DD_L6,2021.2.3,iPad,62.5,,,,,,,,,,1.123,1,,,,,,,,,,,,,,,,,,,,,,,0.40926276,-0.289224953,1,0,0,,,,,,,POKER,C,m,y,./images/POKER.png,,,,,,,,,,,,,,,,,,,,,0,0.40926276,-0.289224953,1,0,0,1.123,button_right_test,0,67,67,67,1
,,,,,,,,,,,,,,,,,61097b783bcdb1cec05c57e5,68,2022-02-12_13h40.03.897,lexical_decision_task_DD_L6,2021.2.3,iPad,62.5,,,,,,,,,,1.115,0,,,,,,,,,,,,,,,,,,,,,,,-0.256143667,-0.296786389,1,0,0,,,,,,,HAMMER,LB,m,y,./images/HAMMERLB.png,,,,,,,,,,,,,,,,,,,,,0,-0.256143667,-0.296786389,1,0,0,1.115,button_left_test,0,68,68,75,1
,,,,,,,,,,,,,,,,,61097b783bcdb1cec05c57e5,68,2022-02-12_13h40.03.897,lexical_decision_task_DD_L6,2021.2.3,iPad,62.5,,,,,,,,,,1.825,0,,,,,,,,,,,,,,,,,,,,,,,-0.244801512,-0.300567108,1,0,0,,,,,,,BANANA,C,m,y,./images/BANANA.png,,,,,,,,,,,,,,,,,,,,,0,-0.244801512,-0.300567108,1,0,0,1.825,button_left_test,0,69,69,70,1
,,,,,,,,,,,,,,,,,61097b783bcdb1cec05c57e5,68,2022-02-12_13h40.03.897,lexical_decision_task_DD_L6,2021.2.3,iPad,62.5,,,,,,,,,,1.007,1,,,,,,,,,,,,,,,,,,,,,,,-0.241020794,-0.306238185,1,0,0,,,,,,,PICKLE,HB,z,y,./images/PICKLEHB.png,,,,,,,,,,,,,,,,,,,,,0,-0.241020794,-0.306238185,1,0,0,1.007,button_left_test,0,70,70,98,1
,,,,,,,,,,,,,,,,,61097b783bcdb1cec05c57e5,68,2022-02-12_13h40.03.897,lexical_decision_task_DD_L6,2021.2.3,iPad,62.5,,,,,,,,,,0.934,1,,,,,,,,,,,,,,,,,,,,,,,-0.248582231,-0.306238185,1,0,0,,,,,,,DRUMS,C,z,y,./images/DRUMS.png,,,,,,,,,,,,,,,,,,,,,0,-0.248582231,-0.306238185,1,0,0,0.934,button_left_test,0,71,71,133,1
,,,,,,,,,,,,,,,,,61097b783bcdb1cec05c57e5,68,2022-02-12_13h40.03.897,lexical_decision_task_DD_L6,2021.2.3,iPad,62.5,,,,,,,,,,0.942,1,,,,,,,,,,,,,,,,,,,,,,,-0.256143667,-0.310018904,1,0,0,,,,,,,JELLY,C,z,y,./images/JELLY.png,,,,,,,,,,,,,,,,,,,,,0,-0.256143667,-0.310018904,1,0,0,0.942,button_left_test,0,72,72,148,1
,,,,,,,,,,,,,,,,,61097b783bcdb1cec05c57e5,68,2022-02-12_13h40.03.897,lexical_decision_task_DD_L6,2021.2.3,iPad,62.5,,,,,,,,,,0.747,1,,,,,,,,,,,,,,,,,,,,,,,-0.252362949,-0.308128544,1,0,0,,,,,,,PASTA,HB,z,y,./images/PASTAHB.png,,,,,,,,,,,,,,,,,,,,,0,-0.252362949,-0.308128544,1,0,0,0.747,button_left_test,0,73,73,89,1
,,,,,,,,,,,,,,,,,61097b783bcdb1cec05c57e5,68,2022-02-12_13h40.03.897,lexical_decision_task_DD_L6,2021.2.3,iPad,62.5,,,,,,,,,,1.048,1,,,,,,,,,,,,,,,,,,,,,,,-0.241020794,-0.311909263,1,0,0,,,,,,,STORM,LB,z,y,./images/STORMLB.png,,,,,,,,,,,,,,,,,,,,,0,-0.241020794,-0.311909263,1,0,0,1.048,button_left_test,0,74,74,114,1
,,,,,,,,,,,,,,,,,61097b783bcdb1cec05c57e5,68,2022-02-12_13h40.03.897,lexical_decision_task_DD_L6,2021.2.3,iPad,62.5,,,,,,,,,,1.54,0,,,,,,,,,,,,,,,,,,,,,,,-0.252362949,-0.31758034,1,0,0,,,,,,,STREAM,HB,m,y,./images/STREAMHB.png,,,,,,,,,,,,,,,,,,,,,0,-0.252362949,-0.31758034,1,0,0,1.54,button_left_test,0,75,75,41,1
,,,,,,,,,,,,,,,,,61097b783bcdb1cec05c57e5,68,2022-02-12_13h40.03.897,lexical_decision_task_DD_L6,2021.2.3,iPad,62.5,,,,,,,,,,0.81,1,,,,,,,,,,,,,,,,,,,,,,,-0.259924386,-0.310018904,1,0,0,,,,,,,STRING,HB,z,y,./images/STRINGHB.png,,,,,,,,,,,,,,,,,,,,,0,-0.259924386,-0.310018904,1,0,0,0.81,button_left_test,0,76,76,125,1
,,,,,,,,,,,,,,,,,61097b783bcdb1cec05c57e5,68,2022-02-12_13h40.03.897,lexical_decision_task_DD_L6,2021.2.3,iPad,62.5,,,,,,,,,,0.958,1,,,,,,,,,,,,,,,,,,,,,,,-0.254253308,-0.310018904,1,0,0,,,,,,,FALCON,C,z,y,./images/FALCON.png,,,,,,,,,,,,,,,,,,,,,0,-0.254253308,-0.310018904,1,0,0,0.958,button_left_test,0,77,77,112,1
,,,,,,,,,,,,,,,,,61097b783bcdb1cec05c57e5,68,2022-02-12_13h40.03.897,lexical_decision_task_DD_L6,2021.2.3,iPad,62.5,,,,,,,,,,0.792,1,,,,,,,,,,,,,,,,,,,,,,,-0.254253308,-0.308128544,1,0,0,,,,,,,QUILL,C,z,y,./images/QUILL.png,,,,,,,,,,,,,,,,,,,,,0,-0.254253308,-0.308128544,1,0,0,0.792,button_left_test,0,78,78,115,1
,,,,,,,,,,,,,,,,,61097b783bcdb1cec05c57e5,68,2022-02-12_13h40.03.897,lexical_decision_task_DD_L6,2021.2.3,iPad,62.5,,,,,,,,,,1.275,1,,,,,,,,,,,,,,,,,,,,,,,-0.254253308,-0.310018904,1,0,0,,,,,,,CEMENT,HB,z,y,./images/CEMENTHB.png,,,,,,,,,,,,,,,,,,,,,0,-0.254253308,-0.310018904,1,0,0,1.275,button_left_test,0,79,79,158,1
,,,,,,,,,,,,,,,,,61097b783bcdb1cec05c57e5,68,2022-02-12_13h40.03.897,lexical_decision_task_DD_L6,2021.2.3,iPad,62.5,,,,,,,,,,0.99,1,,,,,,,,,,,,,,,,,,,,,,,0.40926276,-0.310018904,1,0,0,,,,,,,BAMBOO,HB,m,y,./images/BAMBOOHB.png,,,,,,,,,,,,,,,,,,,,,0,0.40926276,-0.310018904,1,0,0,0.99,button_right_test,0,80,80,5,1
,,,,,,,,,,,,,,,,,61097b783bcdb1cec05c57e5,68,2022-02-12_13h40.03.897,lexical_decision_task_DD_L6,2021.2.3,iPad,62.5,,,,,,,,,,1.141,0,,,,,,,,,,,,,,,,,,,,,,,-0.258034026,-0.311909263,1,0,0,,,,,,,PILOT,HB,m,y,./images/PILOTHB.png,,,,,,,,,,,,,,,,,,,,,0,-0.258034026,-0.311909263,1,0,0,1.141,button_left_test,0,81,81,50,1
,,,,,,,,,,,,,,,,,61097b783bcdb1cec05c57e5,68,2022-02-12_13h40.03.897,lexical_decision_task_DD_L6,2021.2.3,iPad,62.5,,,,,,,,,,0.916,1,,,,,,,,,,,,,,,,,,,,,,,0.388468809,-0.283553875,1,0,0,,,,,,,DESERT,C,m,y,./images/DESERT.png,,,,,,,,,,,,,,,,,,,,,0,0.388468809,-0.283553875,1,0,0,0.916,button_right_test,0,82,82,52,1
,,,,,,,,,,,,,,,,,61097b783bcdb1cec05c57e5,68,2022-02-12_13h40.03.897,lexical_decision_task_DD_L6,2021.2.3,iPad,62.5,,,,,,,,,,1.215,1,,,,,,,,,,,,,,,,,,,,,,,0.02362949,-0.359168242,1,0,0,,,,,,,SHIELD,LB,m,y,./images/SHIELDLB.png,break_done_button,,,,,,,,,,,,,,,,,,,,0,0.392249527,-0.283553875,1,0,0,1.215,button_right_test,0,83,83,48,1
,,,,,,,,,,,,,,,,,61097b783bcdb1cec05c57e5,68,2022-02-12_13h40.03.897,lexical_decision_task_DD_L6,2021.2.3,iPad,62.5,,,,,,,,,,1.841,1,,,,,,,,,,,,,,,,,,,,,,,-0.248582231,-0.27221172,1,0,0,,,,,,,RHINO,LB,z,y,./images/RHINOLB.png,,,,,,,,,,,,,,,,,,,,,0,-0.248582231,-0.27221172,1,0,0,1.841,button_left_test,0,84,84,93,1
,,,,,,,,,,,,,,,,,61097b783bcdb1cec05c57e5,68,2022-02-12_13h40.03.897,lexical_decision_task_DD_L6,2021.2.3,iPad,62.5,,,,,,,,,,1.258,0,,,,,,,,,,,,,,,,,,,,,,,-0.256143667,-0.285444234,1,0,0,,,,,,,WHEEL,HB,m,y,./images/WHEELHB.png,,,,,,,,,,,,,,,,,,,,,0,-0.256143667,-0.285444234,1,0,0,1.258,button_left_test,0,85,85,77,1
,,,,,,,,,,,,,,,,,61097b783bcdb1cec05c57e5,68,2022-02-12_13h40.03.897,lexical_decision_task_DD_L6,2021.2.3,iPad,62.5,,,,,,,,,,1.696,1,,,,,,,,,,,,,,,,,,,,,,,-0.254253308,-0.285444234,1,0,0,,,,,,,SHORE,LB,z,y,./images/SHORELB.png,,,,,,,,,,,,,,,,,,,,,0,-0.254253308,-0.285444234,1,0,0,1.696,button_left_test,0,86,86,96,1
,,,,,,,,,,,,,,,,,61097b783bcdb1cec05c57e5,68,2022-02-12_13h40.03.897,lexical_decision_task_DD_L6,2021.2.3,iPad,62.5,,,,,,,,,,0.832,1,,,,,,,,,,,,,,,,,,,,,,,-0.254253308,-0.270321361,1,0,0,,,,,,,SCREW,LB,z,y,./images/SCREWLB.png,,,,,,,,,,,,,,,,,,,,,0,-0.254253308,-0.270321361,1,0,0,0.832,button_left_test,0,87,87,108,1
,,,,,,,,,,,,,,,,,61097b783bcdb1cec05c57e5,68,2022-02-12_13h40.03.897,lexical_decision_task_DD_L6,2021.2.3,iPad,62.5,,,,,,,,,,2.417,0,,,,,,,,,,,,,,,,,,,,,,,-0.246691871,-0.281663516,1,0,0,,,,,,,CLOWN,C,m,y,./images/CLOWN.png,,,,,,,,,,,,,,,,,,,,,0,-0.246691871,-0.281663516,1,0,0,2.417,button_left_test,0,88,88,22,1
,,,,,,,,,,,,,,,,,61097b783bcdb1cec05c57e5,68,2022-02-12_13h40.03.897,lexical_decision_task_DD_L6,2021.2.3,iPad,62.5,,,,,,,,,,0.882,1,,,,,,,,,,,,,,,,,,,,,,,-0.254253308,-0.285444234,1,0,0,,,,,,,TOMATO,LB,z,y,./images/TOMATOLB.png,,,,,,,,,,,,,,,,,,,,,0,-0.254253308,-0.285444234,1,0,0,0.882,button_left_test,0,89,89,84,1
,,,,,,,,,,,,,,,,,61097b783bcdb1cec05c57e5,68,2022-02-12_13h40.03.897,lexical_decision_task_DD_L6,2021.2.3,iPad,62.5,,,,,,,,,,0.762,1,,,,,,,,,,,,,,,,,,,,,,,0.399810964,-0.287334594,1,0,0,,,,,,,PARADE,HB,m,y,./images/PARADEHB.png,,,,,,,,,,,,,,,,,,,,,0,0.399810964,-0.287334594,1,0,0,0.762,button_right_test,0,90,90,17,1
,,,,,,,,,,,,,,,,,61097b783bcdb1cec05c57e5,68,2022-02-12_13h40.03.897,lexical_decision_task_DD_L6,2021.2.3,iPad,62.5,,,,,,,,,,1.323,1,,,,,,,,,,,,,,,,,,,,,,,-0.256143667,-0.277882798,1,0,0,,,,,,,LADDER,HB,z,y,./images/LADDERHB.png,,,,,,,,,,,,,,,,,,,,,0,-0.256143667,-0.277882798,1,0,0,1.323,button_left_test,0,91,91,122,1
,,,,,,,,,,,,,,,,,61097b783bcdb1cec05c57e5,68,2022-02-12_13h40.03.897,lexical_decision_task_DD_L6,2021.2.3,iPad,62.5,,,,,,,,,,0.974,1,,,,,,,,,,,,,,,,,,,,,,,0.416824197,-0.281663516,1,0,0,,,,,,,CLOUD,HB,m,y,./images/CLOUDHB.png,,,,,,,,,,,,,,,,,,,,,0,0.416824197,-0.281663516,1,0,0,0.974,button_right_test,0,92,92,26,1
,,,,,,,,,,,,,,,,,61097b783bcdb1cec05c57e5,68,2022-02-12_13h40.03.897,lexical_decision_task_DD_L6,2021.2.3,iPad,62.5,,,,,,,,,,1.107,1,,,,,,,,,,,,,,,,,,,,,,,0.426275992,-0.281663516,1,0,0,,,,,,,SAUCE,LB,m,y,./images/SAUCELB.png,,,,,,,,,,,,,,,,,,,,,0,0.426275992,-0.281663516,1,0,0,1.107,button_right_test,0,93,93,51,1
,,,,,,,,,,,,,,,,,61097b783bcdb1cec05c57e5,68,2022-02-12_13h40.03.897,lexical_decision_task_DD_L6,2021.2.3,iPad,62.5,,,,,,,,,,0.792,1,,,,,,,,,,,,,,,,,,,,,,,0.399810964,-0.274102079,1,0,0,,,,,,,GRANNY,HB,m,y,./images/GRANNYHB.png,,,,,,,,,,,,,,,,,,,,,0,0.399810964,-0.274102079,1,0,0,0.792,button_right_test,0,94,94,20,1
,,,,,,,,,,,,,,,,,61097b783bcdb1cec05c57e5,68,2022-02-12_13h40.03.897,lexical_decision_task_DD_L6,2021.2.3,iPad,62.5,,,,,,,,,,1.308,0,,,,,,,,,,,,,,,,,,,,,,,-0.246691871,-0.287334594,1,0,0,,,,,,,GARDEN,C,m,y,./images/GARDEN.png,,,,,,,,,,,,,,,,,,,,,0,-0.246691871,-0.287334594,1,0,0,1.308,button_left_test,0,95,95,10,1
,,,,,,,,,,,,,,,,,61097b783bcdb1cec05c57e5,68,2022-02-12_13h40.03.897,lexical_decision_task_DD_L6,2021.2.3,iPad,62.5,,,,,,,,,,0.865,1,,,,,,,,,,,,,,,,,,,,,,,-0.259924386,-0.291115312,1,0,0,,,,,,,MUFFIN,C,z,y,./images/MUFFIN.png,,,,,,,,,,,,,,,,,,,,,0,-0.259924386,-0.291115312,1,0,0,0.865,button_left_test,0,96,96,139,1
,,,,,,,,,,,,,,,,,61097b783bcdb1cec05c57e5,68,2022-02-12_13h40.03.897,lexical_decision_task_DD_L6,2021.2.3,iPad,62.5,,,,,,,,,,0.842,1,,,,,,,,,,,,,,,,,,,,,,,-0.263705104,-0.283553875,1,0,0,,,,,,,MOSQUE,C,z,y,./images/MOSQUE.png,,,,,,,,,,,,,,,,,,,,,0,-0.263705104,-0.283553875,1,0,0,0.842,button_left_test,0,97,97,127,1
,,,,,,,,,,,,,,,,,61097b783bcdb1cec05c57e5,68,2022-02-12_13h40.03.897,lexical_decision_task_DD_L6,2021.2.3,iPad,62.5,,,,,,,,,,1.616,1,,,,,,,,,,,,,,,,,,,,,,,0.397920605,-0.279773157,1,0,0,,,,,,,RULER,C,m,y,./images/RULER.png,,,,,,,,,,,,,,,,,,,,,0,0.397920605,-0.279773157,1,0,0,1.616,button_right_test,0,98,98,79,1
,,,,,,,,,,,,,,,,,61097b783bcdb1cec05c57e5,68,2022-02-12_13h40.03.897,lexical_decision_task_DD_L6,2021.2.3,iPad,62.5,,,,,,,,,,1.175,1,,,,,,,,,,,,,,,,,,,,,,,-0.259924386,-0.281663516,1,0,0,,,,,,,BARREL,HB,z,y,./images/BARRELHB.png,,,,,,,,,,,,,,,,,,,,,0,-0.259924386,-0.281663516,1,0,0,1.175,button_left_test,0,99,99,116,1
,,,,,,,,,,,,,,,,,61097b783bcdb1cec05c57e5,68,2022-02-12_13h40.03.897,lexical_decision_task_DD_L6,2021.2.3,iPad,62.5,,,,,,,,,,0.722,1,,,,,,,,,,,,,,,,,,,,,,,-0.265595463,-0.285444234,1,0,0,,,,,,,SWING,C,z,y,./images/SWING.png,,,,,,,,,,,,,,,,,,,,,0,-0.265595463,-0.285444234,1,0,0,0.722,button_left_test,0,100,100,124,1
,,,,,,,,,,,,,,,,,61097b783bcdb1cec05c57e5,68,2022-02-12_13h40.03.897,lexical_decision_task_DD_L6,2021.2.3,iPad,62.5,,,,,,,,,,1.933,0,,,,,,,,,,,,,,,,,,,,,,,-0.25047259,-0.270321361,1,0,0,,,,,,,BAKER,LB,m,y,./images/BAKERLB.png,,,,,,,,,,,,,,,,,,,,,0,-0.25047259,-0.270321361,1,0,0,1.933,button_left_test,0,101,101,63,1
,,,,,,,,,,,,,,,,,61097b783bcdb1cec05c57e5,68,2022-02-12_13h40.03.897,lexical_decision_task_DD_L6,2021.2.3,iPad,62.5,,,,,,,,,,1.176,0,,,,,,,,,,,,,,,,,,,,,,,-0.256143667,-0.291115312,1,0,0,,,,,,,BOXER,C,m,y,./images/BOXER.png,,,,,,,,,,,,,,,,,,,,,0,-0.256143667,-0.291115312,1,0,0,1.176,button_left_test,0,102,102,4,1
,,,,,,,,,,,,,,,,,61097b783bcdb1cec05c57e5,68,2022-02-12_13h40.03.897,lexical_decision_task_DD_L6,2021.2.3,iPad,62.5,,,,,,,,,,0.783,1,,,,,,,,,,,,,,,,,,,,,,,0.399810964,-0.287334594,1,0,0,,,,,,,MEDAL,HB,m,y,./images/MEDALHB.png,,,,,,,,,,,,,,,,,,,,,0,0.399810964,-0.287334594,1,0,0,0.783,button_right_test,0,103,103,11,1
,,,,,,,,,,,,,,,,,61097b783bcdb1cec05c57e5,68,2022-02-12_13h40.03.897,lexical_decision_task_DD_L6,2021.2.3,iPad,62.5,,,,,,,,,,1.482,1,,,,,,,,,,,,,,,,,,,,,,,0.40926276,-0.287334594,1,0,0,,,,,,,PEBBLE,C,m,y,./images/PEBBLE.png,,,,,,,,,,,,,,,,,,,,,0,0.40926276,-0.287334594,1,0,0,1.482,button_right_test,0,104,104,82,1
,,,,,,,,,,,,,,,,,61097b783bcdb1cec05c57e5,68,2022-02-12_13h40.03.897,lexical_decision_task_DD_L6,2021.2.3,iPad,62.5,,,,,,,,,,1.314,1,,,,,,,,,,,,,,,,,,,,,,,0.414933837,-0.279773157,1,0,0,,,,,,,STAIN,LB,m,y,./images/STAINLB.png,,,,,,,,,,,,,,,,,,,,,0,0.414933837,-0.279773157,1,0,0,1.314,button_right_test,0,105,105,6,1
