key_resp.keys,instr_done_touch.x,instr_done_touch.y,instr_done_touch.leftButton,instr_done_touch.midButton,instr_done_touch.rightButton,instr_done_touch.clicked_name,instruction_pages.thisRepN,instruction_pages.thisTrialN,instruction_pages.thisN,instruction_pages.thisIndex,instruction_pages.ran,pageN,phase,instruct_text,has_image,instruct_image,participant,age,date,expName,psychopyVersion,OS,frameRate,key_resp.rt,response.keys,response.corr,response.rt,touch_resp.x,touch_resp.y,touch_resp.leftButton,touch_resp.midButton,touch_resp.rightButton,touch_resp.time,touch_resp.clicked_name,rt,corr,practrials.thisRepN,practrials.thisTrialN,practrials.thisN,practrials.thisIndex,practrials.ran,TrialID,Target,corrAns,end_of_practice_trials_pages.thisRepN,end_of_practice_trials_pages.thisTrialN,end_of_practice_trials_pages.thisN,end_of_practice_trials_pages.thisIndex,end_of_practice_trials_pages.ran,key_resp_2.keys,key_resp_2.corr,key_resp_2.rt,targ_click.x,targ_click.y,targ_click.leftButton,targ_click.midButton,targ_click.rightButton,targ_click.time,targ_click.clicked_name,break_done_touch.x,break_done_touch.y,break_done_touch.leftButton,break_done_touch.midButton,break_done_touch.rightButton,break_done_keyboard.keys,maintrials.thisRepN,maintrials.thisTrialN,maintrials.thisN,maintrials.thisIndex,maintrials.ran,string,blur,study,lex,stim_path,break_done_keyboard.rt,mouse_2.x,mouse_2.y,mouse_2.leftButton,mouse_2.midButton,mouse_2.rightButton,mouse_2.clicked_name,slider.response,slider.rt,trials.thisRepN,trials.thisTrialN,trials.thisN,trials.thisIndex,trials.ran,test_instructions.thisRepN,test_instructions.thisTrialN,test_instructions.thisN,test_instructions.thisIndex,test_instructions.ran,key_resp_3.keys,key_resp_3.corr,key_resp_3.rt,test_click.x,test_click.y,test_click.leftButton,test_click.midButton,test_click.rightButton,test_click.time,test_click.clicked_name,test_phase.thisRepN,test_phase.thisTrialN,test_phase.thisN,test_phase.thisIndex,test_phase.ran
,-0.038498264,-0.393867187,1,0,0,instr_done_button,0,0,0,0,1,1,instructions,"INSTRUCTIONS
At the start of each trial, look at the plus sign  (+) in the center of the screen.  This tells you that a trial is about to begin and where to look. Second, the plus sign will disappear and a string of letters will appear. Your task is to determine if the string of letters is a word or not. If the item is a word press the M key (on keyboard)  or touch the word button (phone/tablet).  If the item is not a word,  press the  Z key (on keyboard)  or touch the nonword button (on phone/tablet). 
Press the space bar or touch  continue.",0,,610aefc141c6a35dd05bb40f,23,2022-02-12_16h51.52.845,lexical_decision_task_DD_L6,2021.2.3,MacIntel,59.99880002,,,,,,,,,,,,,,,,,,,,,,,,,,,,,,,,,,,,,,,,,,,,,,,,,,,,,,,,,,,,,,,,,,,,,,,,,,,,,,,,,,,,,,
space,-0.038498264,-0.392526042,0,0,0,,0,1,1,1,1,2,instructions,"If your device has a keyboard, press the 'Z' key for nonwords and the 'M' key for words.





Press the space bar or touch the button below to continue.",0,keyboard-example.gif,610aefc141c6a35dd05bb40f,23,2022-02-12_16h51.52.845,lexical_decision_task_DD_L6,2021.2.3,MacIntel,59.99880002,7.4504,,,,,,,,,,,,,,,,,,,,,,,,,,,,,,,,,,,,,,,,,,,,,,,,,,,,,,,,,,,,,,,,,,,,,,,,,,,,,,,,,,,,,
space,-0.038498264,-0.392526042,0,0,0,,0,2,2,2,1,3,instructions,"If you are using a touchscreen only device, use the buttons on the screen. Do not use the mouse.





Press the space bar or touch the button below to continue.",0,touchscreen-example.gif,610aefc141c6a35dd05bb40f,23,2022-02-12_16h51.52.845,lexical_decision_task_DD_L6,2021.2.3,MacIntel,59.99880002,13.2818,,,,,,,,,,,,,,,,,,,,,,,,,,,,,,,,,,,,,,,,,,,,,,,,,,,,,,,,,,,,,,,,,,,,,,,,,,,,,,,,,,,,,
space,-0.038498264,-0.392526042,0,0,0,,0,3,3,3,1,4,instructions,"It is very important that you respond as quickly and accurately as possible, as each letter string will only be on the screen for two seconds. If you do not respond within this time, the message 'Too slow!' will be displayed and the experiment will progress to the next letter string. The first 20 trials will be practice trials and you will receive feedback on your answers. 

Press the space bar or touch the button below to start the practice trials.",0,,610aefc141c6a35dd05bb40f,23,2022-02-12_16h51.52.845,lexical_decision_task_DD_L6,2021.2.3,MacIntel,59.99880002,19.8652,,,,,,,,,,,,,,,,,,,,,,,,,,,,,,,,,,,,,,,,,,,,,,,,,,,,,,,,,,,,,,,,,,,,,,,,,,,,,,,,,,,,,
,,,,,,,,,,,,,,,,,610aefc141c6a35dd05bb40f,23,2022-02-12_16h51.52.845,lexical_decision_task_DD_L6,2021.2.3,MacIntel,59.99880002,,m,0,0.5375,,,,,,,,0.5375,0,0,0,0,14,1,1001,THRALE,z,,,,,,,,,,,,,,,,,,,,,,,,,,,,,,,,,,,,,,,,,,,,,,,,,,,,,,,,,,,,,,,,,
,,,,,,,,,,,,,,,,,610aefc141c6a35dd05bb40f,23,2022-02-12_16h51.52.845,lexical_decision_task_DD_L6,2021.2.3,MacIntel,59.99880002,,z,1,0.6844,,,,,,,,0.6844,1,0,1,1,13,1,1001,ROUPET,z,,,,,,,,,,,,,,,,,,,,,,,,,,,,,,,,,,,,,,,,,,,,,,,,,,,,,,,,,,,,,,,,,
,,,,,,,,,,,,,,,,,610aefc141c6a35dd05bb40f,23,2022-02-12_16h51.52.845,lexical_decision_task_DD_L6,2021.2.3,MacIntel,59.99880002,,z,1,0.906,,,,,,,,0.906,1,0,2,2,11,1,1001,RASHET,z,,,,,,,,,,,,,,,,,,,,,,,,,,,,,,,,,,,,,,,,,,,,,,,,,,,,,,,,,,,,,,,,,
,,,,,,,,,,,,,,,,,610aefc141c6a35dd05bb40f,23,2022-02-12_16h51.52.845,lexical_decision_task_DD_L6,2021.2.3,MacIntel,59.99880002,,m,0,0.8111,,,,,,,,0.8111,0,0,3,3,12,1,1001,SPRINY,z,,,,,,,,,,,,,,,,,,,,,,,,,,,,,,,,,,,,,,,,,,,,,,,,,,,,,,,,,,,,,,,,,
,,,,,,,,,,,,,,,,,610aefc141c6a35dd05bb40f,23,2022-02-12_16h51.52.845,lexical_decision_task_DD_L6,2021.2.3,MacIntel,59.99880002,,m,0,1.2568,,,,,,,,1.2568,0,0,4,4,10,1,1001,INLADE,z,,,,,,,,,,,,,,,,,,,,,,,,,,,,,,,,,,,,,,,,,,,,,,,,,,,,,,,,,,,,,,,,,
,,,,,,,,,,,,,,,,,610aefc141c6a35dd05bb40f,23,2022-02-12_16h51.52.845,lexical_decision_task_DD_L6,2021.2.3,MacIntel,59.99880002,,m,1,0.7694,,,,,,,,0.7694,1,0,5,5,1,1,1001,ADJUST,m,,,,,,,,,,,,,,,,,,,,,,,,,,,,,,,,,,,,,,,,,,,,,,,,,,,,,,,,,,,,,,,,,
,,,,,,,,,,,,,,,,,610aefc141c6a35dd05bb40f,23,2022-02-12_16h51.52.845,lexical_decision_task_DD_L6,2021.2.3,MacIntel,59.99880002,,m,1,0.7974,,,,,,,,0.7974,1,0,6,6,4,1,1001,SQUEAK,m,,,,,,,,,,,,,,,,,,,,,,,,,,,,,,,,,,,,,,,,,,,,,,,,,,,,,,,,,,,,,,,,,
,,,,,,,,,,,,,,,,,610aefc141c6a35dd05bb40f,23,2022-02-12_16h51.52.845,lexical_decision_task_DD_L6,2021.2.3,MacIntel,59.99880002,,m,1,0.6047,,,,,,,,0.6047,1,0,7,7,6,1,1001,ZOMBIE,m,,,,,,,,,,,,,,,,,,,,,,,,,,,,,,,,,,,,,,,,,,,,,,,,,,,,,,,,,,,,,,,,,
,,,,,,,,,,,,,,,,,610aefc141c6a35dd05bb40f,23,2022-02-12_16h51.52.845,lexical_decision_task_DD_L6,2021.2.3,MacIntel,59.99880002,,m,1,0.7221,,,,,,,,0.7221,1,0,8,8,2,1,1001,ALMOND,m,,,,,,,,,,,,,,,,,,,,,,,,,,,,,,,,,,,,,,,,,,,,,,,,,,,,,,,,,,,,,,,,,
,,,,,,,,,,,,,,,,,610aefc141c6a35dd05bb40f,23,2022-02-12_16h51.52.845,lexical_decision_task_DD_L6,2021.2.3,MacIntel,59.99880002,,m,1,0.5914,,,,,,,,0.5914,1,0,9,9,5,1,1001,OBTAIN,m,,,,,,,,,,,,,,,,,,,,,,,,,,,,,,,,,,,,,,,,,,,,,,,,,,,,,,,,,,,,,,,,,
,,,,,,,,,,,,,,,,,610aefc141c6a35dd05bb40f,23,2022-02-12_16h51.52.845,lexical_decision_task_DD_L6,2021.2.3,MacIntel,59.99880002,,m,1,0.4869,,,,,,,,0.4869,1,0,10,10,7,1,1001,VOLUME,m,,,,,,,,,,,,,,,,,,,,,,,,,,,,,,,,,,,,,,,,,,,,,,,,,,,,,,,,,,,,,,,,,
,,,,,,,,,,,,,,,,,610aefc141c6a35dd05bb40f,23,2022-02-12_16h51.52.845,lexical_decision_task_DD_L6,2021.2.3,MacIntel,59.99880002,,m,1,0.5012,,,,,,,,0.5012,1,0,11,11,0,1,1001,UTOPIA,m,,,,,,,,,,,,,,,,,,,,,,,,,,,,,,,,,,,,,,,,,,,,,,,,,,,,,,,,,,,,,,,,,
,,,,,,,,,,,,,,,,,610aefc141c6a35dd05bb40f,23,2022-02-12_16h51.52.845,lexical_decision_task_DD_L6,2021.2.3,MacIntel,59.99880002,,m,1,0.6152,,,,,,,,0.6152,1,0,12,12,3,1,1001,MATRIX,m,,,,,,,,,,,,,,,,,,,,,,,,,,,,,,,,,,,,,,,,,,,,,,,,,,,,,,,,,,,,,,,,,
,,,,,,,,,,,,,,,,,610aefc141c6a35dd05bb40f,23,2022-02-12_16h51.52.845,lexical_decision_task_DD_L6,2021.2.3,MacIntel,59.99880002,,z,1,0.6497,,,,,,,,0.6497,1,0,13,13,9,1,1001,FARINY,z,,,,,,,,,,,,,,,,,,,,,,,,,,,,,,,,,,,,,,,,,,,,,,,,,,,,,,,,,,,,,,,,,
,,,,,,,,,,,,,,,,,610aefc141c6a35dd05bb40f,23,2022-02-12_16h51.52.845,lexical_decision_task_DD_L6,2021.2.3,MacIntel,59.99880002,,z,1,0.6172,,,,,,,,0.6172,1,0,14,14,8,1,1001,ASLERT,z,,,,,,,,,,,,,,,,,,,,,,,,,,,,,,,,,,,,,,,,,,,,,,,,,,,,,,,,,,,,,,,,,
,,,,,,,,,,,,,,,,,610aefc141c6a35dd05bb40f,23,2022-02-12_16h51.52.845,lexical_decision_task_DD_L6,2021.2.3,MacIntel,59.99880002,,z,1,0.5779,,,,,,,,0.5779,1,0,15,15,15,1,1001,WHAISE,z,,,,,,,,,,,,,,,,,,,,,,,,,,,,,,,,,,,,,,,,,,,,,,,,,,,,,,,,,,,,,,,,,
space,-0.038498264,-0.392526042,0,0,0,,,,,,,1,end_of_practice,"You have completed the practice trials. During the experimental trials, you will not receive feedback. 
Before you begin, please ensure that you are in a comfortable and quiet location and will not be disturbed for about 15 minutes, as we cannot use your data if you do not complete all the trials. 
 When you are ready to start the experimental trials, please press space or touch the button below.",,,610aefc141c6a35dd05bb40f,23,2022-02-12_16h51.52.845,lexical_decision_task_DD_L6,2021.2.3,MacIntel,59.99880002,12.6554,,,,,,,,,,,,,,,,,,,,,0,0,0,0,1,,,,,,,,,,,,,,,,,,,,,,,,,,,,,,,,,,,,,,,,,,,,,,,,,,,,,,,,,,,,
,,,,,,,,,,,,,,,,,610aefc141c6a35dd05bb40f,23,2022-02-12_16h51.52.845,lexical_decision_task_DD_L6,2021.2.3,MacIntel,59.99880002,,,,,,,,,,,,2.9475,1,,,,,,,,,,,,,,z,1,2.9475,,,,,,,,-0.038498264,-0.392526042,0,0,0,,0,0,0,124,1,TUNCH,HB,z,z,./images/TUNCHHB.png,,,,,,,,,,,,,,,,,,,,,,,,,,,,,,,,,,
,,,,,,,,,,,,,,,,,610aefc141c6a35dd05bb40f,23,2022-02-12_16h51.52.845,lexical_decision_task_DD_L6,2021.2.3,MacIntel,59.99880002,,,,,,,,,,,,0.7345,1,,,,,,,,,,,,,,z,1,0.7345,,,,,,,,-0.038498264,-0.392526042,0,0,0,,0,1,1,135,1,JOODY,C,z,z,./images/JOODY.png,,,,,,,,,,,,,,,,,,,,,,,,,,,,,,,,,,
,,,,,,,,,,,,,,,,,610aefc141c6a35dd05bb40f,23,2022-02-12_16h51.52.845,lexical_decision_task_DD_L6,2021.2.3,MacIntel,59.99880002,,,,,,,,,,,,0.6626,0,,,,,,,,,,,,,,m,0,0.6626,,,,,,,,-0.038498264,-0.392526042,0,0,0,,0,2,2,99,1,BACKY,C,z,z,./images/BACKY.png,,,,,,,,,,,,,,,,,,,,,,,,,,,,,,,,,,
,,,,,,,,,,,,,,,,,610aefc141c6a35dd05bb40f,23,2022-02-12_16h51.52.845,lexical_decision_task_DD_L6,2021.2.3,MacIntel,59.99880002,,,,,,,,,,,,1.3669,1,,,,,,,,,,,,,,z,1,1.3669,,,,,,,,-0.038498264,-0.392526042,0,0,0,,0,3,3,127,1,NINDY,HB,z,z,./images/NINDYHB.png,,,,,,,,,,,,,,,,,,,,,,,,,,,,,,,,,,
,,,,,,,,,,,,,,,,,610aefc141c6a35dd05bb40f,23,2022-02-12_16h51.52.845,lexical_decision_task_DD_L6,2021.2.3,MacIntel,59.99880002,,,,,,,,,,,,0.6933,1,,,,,,,,,,,,,,z,1,0.6933,,,,,,,,-0.038498264,-0.392526042,0,0,0,,0,4,4,150,1,NOOLS,C,z,z,./images/NOOLS.png,,,,,,,,,,,,,,,,,,,,,,,,,,,,,,,,,,
,,,,,,,,,,,,,,,,,610aefc141c6a35dd05bb40f,23,2022-02-12_16h51.52.845,lexical_decision_task_DD_L6,2021.2.3,MacIntel,59.99880002,,,,,,,,,,,,0.6566,1,,,,,,,,,,,,,,m,1,0.6566,,,,,,,,-0.038498264,-0.392526042,0,0,0,,0,5,5,57,1,FERRY,LB,m,m,./images/FERRYLB.png,,,,,,,,,,,,,,,,,,,,,,,,,,,,,,,,,,
,,,,,,,,,,,,,,,,,610aefc141c6a35dd05bb40f,23,2022-02-12_16h51.52.845,lexical_decision_task_DD_L6,2021.2.3,MacIntel,59.99880002,,,,,,,,,,,,0.654,1,,,,,,,,,,,,,,m,1,0.654,,,,,,,,-0.038498264,-0.392526042,0,0,0,,0,6,6,8,1,CLIFF,HB,m,m,./images/CLIFFHB.png,,,,,,,,,,,,,,,,,,,,,,,,,,,,,,,,,,
,,,,,,,,,,,,,,,,,610aefc141c6a35dd05bb40f,23,2022-02-12_16h51.52.845,lexical_decision_task_DD_L6,2021.2.3,MacIntel,59.99880002,,,,,,,,,,,,0.6046,1,,,,,,,,,,,,,,m,1,0.6046,,,,,,,,-0.038498264,-0.392526042,0,0,0,,0,7,7,10,1,GARDEN,C,m,m,./images/GARDEN.png,,,,,,,,,,,,,,,,,,,,,,,,,,,,,,,,,,
,,,,,,,,,,,,,,,,,610aefc141c6a35dd05bb40f,23,2022-02-12_16h51.52.845,lexical_decision_task_DD_L6,2021.2.3,MacIntel,59.99880002,,,,,,,,,,,,0.7483,0,,,,,,,,,,,,,,m,0,0.7483,,,,,,,,-0.038498264,-0.392526042,0,0,0,,0,8,8,140,1,DOVET,LB,z,z,./images/DOVETLB.png,,,,,,,,,,,,,,,,,,,,,,,,,,,,,,,,,,
,,,,,,,,,,,,,,,,,610aefc141c6a35dd05bb40f,23,2022-02-12_16h51.52.845,lexical_decision_task_DD_L6,2021.2.3,MacIntel,59.99880002,,,,,,,,,,,,0.8533,1,,,,,,,,,,,,,,z,1,0.8533,,,,,,,,-0.038498264,-0.392526042,0,0,0,,0,9,9,162,1,LEICH,C,z,z,./images/LEICH.png,,,,,,,,,,,,,,,,,,,,,,,,,,,,,,,,,,
,,,,,,,,,,,,,,,,,610aefc141c6a35dd05bb40f,23,2022-02-12_16h51.52.845,lexical_decision_task_DD_L6,2021.2.3,MacIntel,59.99880002,,,,,,,,,,,,0.8345,1,,,,,,,,,,,,,,z,1,0.8345,,,,,,,,-0.038498264,-0.392526042,0,0,0,,0,10,10,118,1,BAVEL,HB,z,z,./images/BAVELHB.png,,,,,,,,,,,,,,,,,,,,,,,,,,,,,,,,,,
,,,,,,,,,,,,,,,,,610aefc141c6a35dd05bb40f,23,2022-02-12_16h51.52.845,lexical_decision_task_DD_L6,2021.2.3,MacIntel,59.99880002,,,,,,,,,,,,0.9309,0,,,,,,,,,,,,,,m,0,0.9309,,,,,,,,-0.038498264,-0.392526042,0,0,0,,0,11,11,109,1,BURGE,HB,z,z,./images/BURGEHB.png,,,,,,,,,,,,,,,,,,,,,,,,,,,,,,,,,,
,,,,,,,,,,,,,,,,,610aefc141c6a35dd05bb40f,23,2022-02-12_16h51.52.845,lexical_decision_task_DD_L6,2021.2.3,MacIntel,59.99880002,,,,,,,,,,,,0.5851,1,,,,,,,,,,,,,,m,1,0.5851,,,,,,,,-0.038498264,-0.392526042,0,0,0,,0,12,12,31,1,STEAK,C,m,m,./images/STEAK.png,,,,,,,,,,,,,,,,,,,,,,,,,,,,,,,,,,
,,,,,,,,,,,,,,,,,610aefc141c6a35dd05bb40f,23,2022-02-12_16h51.52.845,lexical_decision_task_DD_L6,2021.2.3,MacIntel,59.99880002,,,,,,,,,,,,0.9042,0,,,,,,,,,,,,,,z,0,0.9042,,,,,,,,-0.038498264,-0.392526042,0,0,0,,0,13,13,38,1,ENGINE,HB,m,m,./images/ENGINEHB.png,,,,,,,,,,,,,,,,,,,,,,,,,,,,,,,,,,
,,,,,,,,,,,,,,,,,610aefc141c6a35dd05bb40f,23,2022-02-12_16h51.52.845,lexical_decision_task_DD_L6,2021.2.3,MacIntel,59.99880002,,,,,,,,,,,,1.4993,1,,,,,,,,,,,,,,z,1,1.4993,,,,,,,,-0.038498264,-0.392526042,0,0,0,,0,14,14,136,1,WERVE,HB,z,z,./images/WERVEHB.png,,,,,,,,,,,,,,,,,,,,,,,,,,,,,,,,,,
,,,,,,,,,,,,,,,,,610aefc141c6a35dd05bb40f,23,2022-02-12_16h51.52.845,lexical_decision_task_DD_L6,2021.2.3,MacIntel,59.99880002,,,,,,,,,,,,0.6316,1,,,,,,,,,,,,,,m,1,0.6316,,,,,,,,-0.038498264,-0.392526042,0,0,0,,0,15,15,26,1,CLOUD,HB,m,m,./images/CLOUDHB.png,,,,,,,,,,,,,,,,,,,,,,,,,,,,,,,,,,
,,,,,,,,,,,,,,,,,610aefc141c6a35dd05bb40f,23,2022-02-12_16h51.52.845,lexical_decision_task_DD_L6,2021.2.3,MacIntel,59.99880002,,,,,,,,,,,,1.4654,0,,,,,,,,,,,,,,m,0,1.4654,,,,,,,,-0.038498264,-0.392526042,0,0,0,,0,16,16,100,1,DRIBS,HB,z,z,./images/DRIBSHB.png,,,,,,,,,,,,,,,,,,,,,,,,,,,,,,,,,,
,,,,,,,,,,,,,,,,,610aefc141c6a35dd05bb40f,23,2022-02-12_16h51.52.845,lexical_decision_task_DD_L6,2021.2.3,MacIntel,59.99880002,,,,,,,,,,,,0.6636,1,,,,,,,,,,,,,,m,1,0.6636,,,,,,,,-0.038498264,-0.392526042,0,0,0,,0,17,17,44,1,BASKET,HB,m,m,./images/BASKETHB.png,,,,,,,,,,,,,,,,,,,,,,,,,,,,,,,,,,
,,,,,,,,,,,,,,,,,610aefc141c6a35dd05bb40f,23,2022-02-12_16h51.52.845,lexical_decision_task_DD_L6,2021.2.3,MacIntel,59.99880002,,,,,,,,,,,,0.5156,1,,,,,,,,,,,,,,m,1,0.5156,,,,,,,,-0.038498264,-0.392526042,0,0,0,,0,18,18,39,1,CANDY,LB,m,m,./images/CANDYLB.png,,,,,,,,,,,,,,,,,,,,,,,,,,,,,,,,,,
,,,,,,,,,,,,,,,,,610aefc141c6a35dd05bb40f,23,2022-02-12_16h51.52.845,lexical_decision_task_DD_L6,2021.2.3,MacIntel,59.99880002,,,,,,,,,,,,0.5648,1,,,,,,,,,,,,,,m,1,0.5648,,,,,,,,-0.038498264,-0.392526042,0,0,0,,0,19,19,69,1,ARROW,LB,m,m,./images/ARROWLB.png,,,,,,,,,,,,,,,,,,,,,,,,,,,,,,,,,,
,,,,,,,,,,,,,,,,,610aefc141c6a35dd05bb40f,23,2022-02-12_16h51.52.845,lexical_decision_task_DD_L6,2021.2.3,MacIntel,59.99880002,,,,,,,,,,,,0.8392,1,,,,,,,,,,,,,,m,1,0.8392,,,,,,,,-0.038498264,-0.392526042,0,0,0,,0,20,20,14,1,FENCE,HB,m,m,./images/FENCEHB.png,,,,,,,,,,,,,,,,,,,,,,,,,,,,,,,,,,
,,,,,,,,,,,,,,,,,610aefc141c6a35dd05bb40f,23,2022-02-12_16h51.52.845,lexical_decision_task_DD_L6,2021.2.3,MacIntel,59.99880002,,,,,,,,,,,,0.5904,1,,,,,,,,,,,,,,m,1,0.5904,,,,,,,,-0.038498264,-0.392526042,0,0,0,,0,21,21,24,1,FLESH,LB,m,m,./images/FLESHLB.png,,,,,,,,,,,,,,,,,,,,,,,,,,,,,,,,,,
,,,,,,,,,,,,,,,,,610aefc141c6a35dd05bb40f,23,2022-02-12_16h51.52.845,lexical_decision_task_DD_L6,2021.2.3,MacIntel,59.99880002,,,,,,,,,,,,0.6454,1,,,,,,,,,,,,,,z,1,0.6454,,,,,,,,-0.038498264,-0.392526042,0,0,0,,0,22,22,87,1,TRING,C,z,z,./images/TRING.png,,,,,,,,,,,,,,,,,,,,,,,,,,,,,,,,,,
,,,,,,,,,,,,,,,,,610aefc141c6a35dd05bb40f,23,2022-02-12_16h51.52.845,lexical_decision_task_DD_L6,2021.2.3,MacIntel,59.99880002,,,,,,,,,,,,0.63,0,,,,,,,,,,,,,,m,0,0.63,,,,,,,,-0.038498264,-0.392526042,0,0,0,,0,23,23,166,1,SHORY,HB,z,z,./images/SHORYHB.png,,,,,,,,,,,,,,,,,,,,,,,,,,,,,,,,,,
,,,,,,,,,,,,,,,,,610aefc141c6a35dd05bb40f,23,2022-02-12_16h51.52.845,lexical_decision_task_DD_L6,2021.2.3,MacIntel,59.99880002,,,,,,,,,,,,1.4146,1,,,,,,,,,,,,,,z,1,1.4146,,,,,,,,-0.038498264,-0.392526042,0,0,0,,0,24,24,94,1,BLANS,HB,z,z,./images/BLANSHB.png,,,,,,,,,,,,,,,,,,,,,,,,,,,,,,,,,,
,,,,,,,,,,,,,,,,,610aefc141c6a35dd05bb40f,23,2022-02-12_16h51.52.845,lexical_decision_task_DD_L6,2021.2.3,MacIntel,59.99880002,,,,,,,,,,,,0.618,1,,,,,,,,,,,,,,m,1,0.618,,,,,,,,-0.038498264,-0.392526042,0,0,0,,0,25,25,63,1,BAKER,LB,m,m,./images/BAKERLB.png,,,,,,,,,,,,,,,,,,,,,,,,,,,,,,,,,,
,,,,,,,,,,,,,,,,,610aefc141c6a35dd05bb40f,23,2022-02-12_16h51.52.845,lexical_decision_task_DD_L6,2021.2.3,MacIntel,59.99880002,,,,,,,,,,,,0.7494,1,,,,,,,,,,,,,,z,1,0.7494,,,,,,,,-0.038498264,-0.392526042,0,0,0,,0,26,26,119,1,PAFER,LB,z,z,./images/PAFERLB.png,,,,,,,,,,,,,,,,,,,,,,,,,,,,,,,,,,
,,,,,,,,,,,,,,,,,610aefc141c6a35dd05bb40f,23,2022-02-12_16h51.52.845,lexical_decision_task_DD_L6,2021.2.3,MacIntel,59.99880002,,,,,,,,,,,,0.7583,1,,,,,,,,,,,,,,m,1,0.7583,,,,,,,,-0.038498264,-0.392526042,0,0,0,,0,27,27,11,1,MEDAL,HB,m,m,./images/MEDALHB.png,,,,,,,,,,,,,,,,,,,,,,,,,,,,,,,,,,
,,,,,,,,,,,,,,,,,610aefc141c6a35dd05bb40f,23,2022-02-12_16h51.52.845,lexical_decision_task_DD_L6,2021.2.3,MacIntel,59.99880002,,,,,,,,,,,,0.7501,0,,,,,,,,,,,,,,z,0,0.7501,,,,,,,,-0.038498264,-0.392526042,0,0,0,,0,28,28,35,1,LLAMA,HB,m,m,./images/LLAMAHB.png,,,,,,,,,,,,,,,,,,,,,,,,,,,,,,,,,,
,,,,,,,,,,,,,,,,,610aefc141c6a35dd05bb40f,23,2022-02-12_16h51.52.845,lexical_decision_task_DD_L6,2021.2.3,MacIntel,59.99880002,,,,,,,,,,,,0.5991,1,,,,,,,,,,,,,,m,1,0.5991,,,,,,,,-0.038498264,-0.392526042,0,0,0,,0,29,29,55,1,ALLEY,C,m,m,./images/ALLEY.png,,,,,,,,,,,,,,,,,,,,,,,,,,,,,,,,,,
,,,,,,,,,,,,,,,,,610aefc141c6a35dd05bb40f,23,2022-02-12_16h51.52.845,lexical_decision_task_DD_L6,2021.2.3,MacIntel,59.99880002,,,,,,,,,,,,0.8687,1,,,,,,,,,,,,,,m,1,0.8687,,,,,,,,-0.038498264,-0.392526042,0,0,0,,0,30,30,65,1,SPINE,HB,m,m,./images/SPINEHB.png,,,,,,,,,,,,,,,,,,,,,,,,,,,,,,,,,,
,,,,,,,,,,,,,,,,,610aefc141c6a35dd05bb40f,23,2022-02-12_16h51.52.845,lexical_decision_task_DD_L6,2021.2.3,MacIntel,59.99880002,,,,,,,,,,,,0.6425,1,,,,,,,,,,,,,,z,1,0.6425,,,,,,,,-0.038498264,-0.392526042,0,0,0,,0,31,31,132,1,SCIFF,C,z,z,./images/SCIFF.png,,,,,,,,,,,,,,,,,,,,,,,,,,,,,,,,,,
,,,,,,,,,,,,,,,,,610aefc141c6a35dd05bb40f,23,2022-02-12_16h51.52.845,lexical_decision_task_DD_L6,2021.2.3,MacIntel,59.99880002,,,,,,,,,,,,0.7201,1,,,,,,,,,,,,,,z,1,0.7201,,,,,,,,-0.038498264,-0.392526042,0,0,0,,0,32,32,108,1,GRUET,C,z,z,./images/GRUET.png,,,,,,,,,,,,,,,,,,,,,,,,,,,,,,,,,,
,,,,,,,,,,,,,,,,,610aefc141c6a35dd05bb40f,23,2022-02-12_16h51.52.845,lexical_decision_task_DD_L6,2021.2.3,MacIntel,59.99880002,,,,,,,,,,,,0.5648,1,,,,,,,,,,,,,,m,1,0.5648,,,,,,,,-0.038498264,-0.392526042,0,0,0,,0,33,33,48,1,SHIELD,LB,m,m,./images/SHIELDLB.png,,,,,,,,,,,,,,,,,,,,,,,,,,,,,,,,,,
,,,,,,,,,,,,,,,,,610aefc141c6a35dd05bb40f,23,2022-02-12_16h51.52.845,lexical_decision_task_DD_L6,2021.2.3,MacIntel,59.99880002,,,,,,,,,,,,1.0404,1,,,,,,,,,,,,,,z,1,1.0404,,,,,,,,-0.038498264,-0.392526042,0,0,0,,0,34,34,113,1,LINEW,LB,z,z,./images/LINEWLB.png,,,,,,,,,,,,,,,,,,,,,,,,,,,,,,,,,,
,,,,,,,,,,,,,,,,,610aefc141c6a35dd05bb40f,23,2022-02-12_16h51.52.845,lexical_decision_task_DD_L6,2021.2.3,MacIntel,59.99880002,,,,,,,,,,,,0.6619,1,,,,,,,,,,,,,,m,1,0.6619,,,,,,,,-0.038498264,-0.392526042,0,0,0,,0,35,35,68,1,VALLEY,HB,m,m,./images/VALLEYHB.png,,,,,,,,,,,,,,,,,,,,,,,,,,,,,,,,,,
,,,,,,,,,,,,,,,,,610aefc141c6a35dd05bb40f,23,2022-02-12_16h51.52.845,lexical_decision_task_DD_L6,2021.2.3,MacIntel,59.99880002,,,,,,,,,,,,0.5226,1,,,,,,,,,,,,,,m,1,0.5226,,,,,,,,-0.038498264,-0.392526042,0,0,0,,0,36,36,21,1,DANCER,LB,m,m,./images/DANCERLB.png,,,,,,,,,,,,,,,,,,,,,,,,,,,,,,,,,,
,,,,,,,,,,,,,,,,,610aefc141c6a35dd05bb40f,23,2022-02-12_16h51.52.845,lexical_decision_task_DD_L6,2021.2.3,MacIntel,59.99880002,,,,,,,,,,,,0.6993,1,,,,,,,,,,,,,,z,1,0.6993,,,,,,,,-0.038498264,-0.392526042,0,0,0,,0,37,37,160,1,VEETS,HB,z,z,./images/VEETSHB.png,,,,,,,,,,,,,,,,,,,,,,,,,,,,,,,,,,
,,,,,,,,,,,,,,,,,610aefc141c6a35dd05bb40f,23,2022-02-12_16h51.52.845,lexical_decision_task_DD_L6,2021.2.3,MacIntel,59.99880002,,,,,,,,,,,,0.5592,0,,,,,,,,,,,,,,m,0,0.5592,,,,,,,,-0.038498264,-0.392526042,0,0,0,,0,38,38,125,1,MOOKY,LB,z,z,./images/MOOKYLB.png,,,,,,,,,,,,,,,,,,,,,,,,,,,,,,,,,,
,,,,,,,,,,,,,,,,,610aefc141c6a35dd05bb40f,23,2022-02-12_16h51.52.845,lexical_decision_task_DD_L6,2021.2.3,MacIntel,59.99880002,,,,,,,,,,,,0.6272,1,,,,,,,,,,,,,,z,1,0.6272,,,,,,,,-0.038498264,-0.392526042,0,0,0,,0,39,39,153,1,CLUPS,C,z,z,./images/CLUPS.png,,,,,,,,,,,,,,,,,,,,,,,,,,,,,,,,,,
,,,,,,,,,,,,,,,,,610aefc141c6a35dd05bb40f,23,2022-02-12_16h51.52.845,lexical_decision_task_DD_L6,2021.2.3,MacIntel,59.99880002,,,,,,,,,,,,0.6591,1,,,,,,,,,,,,,,z,1,0.6591,,,,,,,,-0.038498264,-0.392526042,0,0,0,,0,40,40,138,1,PLICE,C,z,z,./images/PLICE.png,,,,,,,,,,,,,,,,,,,,,,,,,,,,,,,,,,
,,,,,,,,,,,,,,,,,610aefc141c6a35dd05bb40f,23,2022-02-12_16h51.52.845,lexical_decision_task_DD_L6,2021.2.3,MacIntel,59.99880002,,,,,,,,,,,,0.7809,1,,,,,,,,,,,,,,m,1,0.7809,,,,,,,,-0.038498264,-0.392526042,0,0,0,space,0,41,41,41,1,STREAM,HB,m,m,./images/STREAMHB.png,17.6325,,,,,,,,,,,,,,,,,,,,,,,,,,,,,,,,,
,,,,,,,,,,,,,,,,,610aefc141c6a35dd05bb40f,23,2022-02-12_16h51.52.845,lexical_decision_task_DD_L6,2021.2.3,MacIntel,59.99880002,,,,,,,,,,,,1.4396,1,,,,,,,,,,,,,,z,1,1.4396,,,,,,,,-0.038498264,-0.392526042,0,0,0,,0,42,42,128,1,GRIFT,LB,z,z,./images/GRIFTLB.png,,,,,,,,,,,,,,,,,,,,,,,,,,,,,,,,,,
,,,,,,,,,,,,,,,,,610aefc141c6a35dd05bb40f,23,2022-02-12_16h51.52.845,lexical_decision_task_DD_L6,2021.2.3,MacIntel,59.99880002,,,,,,,,,,,,0.9315,1,,,,,,,,,,,,,,m,1,0.9315,,,,,,,,-0.038498264,-0.392526042,0,0,0,,0,43,43,47,1,LAGOON,HB,m,m,./images/LAGOONHB.png,,,,,,,,,,,,,,,,,,,,,,,,,,,,,,,,,,
,,,,,,,,,,,,,,,,,610aefc141c6a35dd05bb40f,23,2022-02-12_16h51.52.845,lexical_decision_task_DD_L6,2021.2.3,MacIntel,59.99880002,,,,,,,,,,,,0.6311,1,,,,,,,,,,,,,,m,1,0.6311,,,,,,,,-0.038498264,-0.392526042,0,0,0,,0,44,44,71,1,BUBBLE,HB,m,m,./images/BUBBLEHB.png,,,,,,,,,,,,,,,,,,,,,,,,,,,,,,,,,,
,,,,,,,,,,,,,,,,,610aefc141c6a35dd05bb40f,23,2022-02-12_16h51.52.845,lexical_decision_task_DD_L6,2021.2.3,MacIntel,59.99880002,,,,,,,,,,,,0.7082,1,,,,,,,,,,,,,,z,1,0.7082,,,,,,,,-0.038498264,-0.392526042,0,0,0,,0,45,45,107,1,FASKS,LB,z,z,./images/FASKSLB.png,,,,,,,,,,,,,,,,,,,,,,,,,,,,,,,,,,
,,,,,,,,,,,,,,,,,610aefc141c6a35dd05bb40f,23,2022-02-12_16h51.52.845,lexical_decision_task_DD_L6,2021.2.3,MacIntel,59.99880002,,,,,,,,,,,,0.7006,1,,,,,,,,,,,,,,m,1,0.7006,,,,,,,,-0.038498264,-0.392526042,0,0,0,,0,46,46,29,1,PISTOL,HB,m,m,./images/PISTOLHB.png,,,,,,,,,,,,,,,,,,,,,,,,,,,,,,,,,,
,,,,,,,,,,,,,,,,,610aefc141c6a35dd05bb40f,23,2022-02-12_16h51.52.845,lexical_decision_task_DD_L6,2021.2.3,MacIntel,59.99880002,,,,,,,,,,,,0.7135,1,,,,,,,,,,,,,,z,1,0.7135,,,,,,,,-0.038498264,-0.392526042,0,0,0,,0,47,47,143,1,MONGS,LB,z,z,./images/MONGSLB.png,,,,,,,,,,,,,,,,,,,,,,,,,,,,,,,,,,
,,,,,,,,,,,,,,,,,610aefc141c6a35dd05bb40f,23,2022-02-12_16h51.52.845,lexical_decision_task_DD_L6,2021.2.3,MacIntel,59.99880002,,,,,,,,,,,,0.613,1,,,,,,,,,,,,,,m,1,0.613,,,,,,,,-0.038498264,-0.392526042,0,0,0,,0,48,48,58,1,CANOE,C,m,m,./images/CANOE.png,,,,,,,,,,,,,,,,,,,,,,,,,,,,,,,,,,
,,,,,,,,,,,,,,,,,610aefc141c6a35dd05bb40f,23,2022-02-12_16h51.52.845,lexical_decision_task_DD_L6,2021.2.3,MacIntel,59.99880002,,,,,,,,,,,,1.614,1,,,,,,,,,,,,,,z,1,1.614,,,,,,,,-0.038498264,-0.392526042,0,0,0,,0,49,49,133,1,POWDY,HB,z,z,./images/POWDYHB.png,,,,,,,,,,,,,,,,,,,,,,,,,,,,,,,,,,
,,,,,,,,,,,,,,,,,610aefc141c6a35dd05bb40f,23,2022-02-12_16h51.52.845,lexical_decision_task_DD_L6,2021.2.3,MacIntel,59.99880002,,,,,,,,,,,,0.667,1,,,,,,,,,,,,,,z,1,0.667,,,,,,,,-0.038498264,-0.392526042,0,0,0,,0,50,50,86,1,AIFED,LB,z,z,./images/AIFEDLB.png,,,,,,,,,,,,,,,,,,,,,,,,,,,,,,,,,,
,,,,,,,,,,,,,,,,,610aefc141c6a35dd05bb40f,23,2022-02-12_16h51.52.845,lexical_decision_task_DD_L6,2021.2.3,MacIntel,59.99880002,,,,,,,,,,,,0.5645,1,,,,,,,,,,,,,,m,1,0.5645,,,,,,,,-0.038498264,-0.392526042,0,0,0,,0,51,51,70,1,BANANA,C,m,m,./images/BANANA.png,,,,,,,,,,,,,,,,,,,,,,,,,,,,,,,,,,
,,,,,,,,,,,,,,,,,610aefc141c6a35dd05bb40f,23,2022-02-12_16h51.52.845,lexical_decision_task_DD_L6,2021.2.3,MacIntel,59.99880002,,,,,,,,,,,,0.671,1,,,,,,,,,,,,,,z,1,0.671,,,,,,,,-0.038498264,-0.392526042,0,0,0,,0,52,52,155,1,CANGY,LB,z,z,./images/CANGYLB.png,,,,,,,,,,,,,,,,,,,,,,,,,,,,,,,,,,
,,,,,,,,,,,,,,,,,610aefc141c6a35dd05bb40f,23,2022-02-12_16h51.52.845,lexical_decision_task_DD_L6,2021.2.3,MacIntel,59.99880002,,,,,,,,,,,,1.1283,1,,,,,,,,,,,,,,z,1,1.1283,,,,,,,,-0.038498264,-0.392526042,0,0,0,,0,53,53,151,1,TINKY,HB,z,z,./images/TINKYHB.png,,,,,,,,,,,,,,,,,,,,,,,,,,,,,,,,,,
,,,,,,,,,,,,,,,,,610aefc141c6a35dd05bb40f,23,2022-02-12_16h51.52.845,lexical_decision_task_DD_L6,2021.2.3,MacIntel,59.99880002,,,,,,,,,,,,0.5978,1,,,,,,,,,,,,,,m,1,0.5978,,,,,,,,-0.038498264,-0.392526042,0,0,0,,0,54,54,18,1,PARCEL,LB,m,m,./images/PARCELLB.png,,,,,,,,,,,,,,,,,,,,,,,,,,,,,,,,,,
,,,,,,,,,,,,,,,,,610aefc141c6a35dd05bb40f,23,2022-02-12_16h51.52.845,lexical_decision_task_DD_L6,2021.2.3,MacIntel,59.99880002,,,,,,,,,,,,0.5524,0,,,,,,,,,,,,,,m,0,0.5524,,,,,,,,-0.038498264,-0.392526042,0,0,0,,0,55,55,159,1,CUDDY,C,z,z,./images/CUDDY.png,,,,,,,,,,,,,,,,,,,,,,,,,,,,,,,,,,
,,,,,,,,,,,,,,,,,610aefc141c6a35dd05bb40f,23,2022-02-12_16h51.52.845,lexical_decision_task_DD_L6,2021.2.3,MacIntel,59.99880002,,,,,,,,,,,,0.8434,1,,,,,,,,,,,,,,m,1,0.8434,,,,,,,,-0.038498264,-0.392526042,0,0,0,,0,56,56,73,1,GLOVE,C,m,m,./images/GLOVE.png,,,,,,,,,,,,,,,,,,,,,,,,,,,,,,,,,,
,,,,,,,,,,,,,,,,,610aefc141c6a35dd05bb40f,23,2022-02-12_16h51.52.845,lexical_decision_task_DD_L6,2021.2.3,MacIntel,59.99880002,,,,,,,,,,,,0.6713,1,,,,,,,,,,,,,,m,1,0.6713,,,,,,,,-0.038498264,-0.392526042,0,0,0,,0,57,57,81,1,DRILL,LB,m,m,./images/DRILLLB.png,,,,,,,,,,,,,,,,,,,,,,,,,,,,,,,,,,
,,,,,,,,,,,,,,,,,610aefc141c6a35dd05bb40f,23,2022-02-12_16h51.52.845,lexical_decision_task_DD_L6,2021.2.3,MacIntel,59.99880002,,,,,,,,,,,,0.5353,1,,,,,,,,,,,,,,m,1,0.5353,,,,,,,,-0.038498264,-0.392526042,0,0,0,,0,58,58,75,1,HAMMER,LB,m,m,./images/HAMMERLB.png,,,,,,,,,,,,,,,,,,,,,,,,,,,,,,,,,,
,,,,,,,,,,,,,,,,,610aefc141c6a35dd05bb40f,23,2022-02-12_16h51.52.845,lexical_decision_task_DD_L6,2021.2.3,MacIntel,59.99880002,,,,,,,,,,,,0.5805,1,,,,,,,,,,,,,,m,1,0.5805,,,,,,,,-0.038498264,-0.392526042,0,0,0,,0,59,59,30,1,SLOPE,LB,m,m,./images/SLOPELB.png,,,,,,,,,,,,,,,,,,,,,,,,,,,,,,,,,,
,,,,,,,,,,,,,,,,,610aefc141c6a35dd05bb40f,23,2022-02-12_16h51.52.845,lexical_decision_task_DD_L6,2021.2.3,MacIntel,59.99880002,,,,,,,,,,,,0.6048,1,,,,,,,,,,,,,,z,1,0.6048,,,,,,,,-0.038498264,-0.392526042,0,0,0,,0,60,60,117,1,STEEG,C,z,z,./images/STEEG.png,,,,,,,,,,,,,,,,,,,,,,,,,,,,,,,,,,
,,,,,,,,,,,,,,,,,610aefc141c6a35dd05bb40f,23,2022-02-12_16h51.52.845,lexical_decision_task_DD_L6,2021.2.3,MacIntel,59.99880002,,,,,,,,,,,,0.7476,0,,,,,,,,,,,,,,m,0,0.7476,,,,,,,,-0.038498264,-0.392526042,0,0,0,,0,61,61,134,1,TROSS,LB,z,z,./images/TROSSLB.png,,,,,,,,,,,,,,,,,,,,,,,,,,,,,,,,,,
,,,,,,,,,,,,,,,,,610aefc141c6a35dd05bb40f,23,2022-02-12_16h51.52.845,lexical_decision_task_DD_L6,2021.2.3,MacIntel,59.99880002,,,,,,,,,,,,0.732,0,,,,,,,,,,,,,,z,0,0.732,,,,,,,,-0.038498264,-0.392526042,0,0,0,,0,62,62,33,1,SAUNA,LB,m,m,./images/SAUNALB.png,,,,,,,,,,,,,,,,,,,,,,,,,,,,,,,,,,
,,,,,,,,,,,,,,,,,610aefc141c6a35dd05bb40f,23,2022-02-12_16h51.52.845,lexical_decision_task_DD_L6,2021.2.3,MacIntel,59.99880002,,,,,,,,,,,,0.5354,1,,,,,,,,,,,,,,m,1,0.5354,,,,,,,,-0.038498264,-0.392526042,0,0,0,,0,63,63,16,1,GRAPE,C,m,m,./images/GRAPE.png,,,,,,,,,,,,,,,,,,,,,,,,,,,,,,,,,,
,,,,,,,,,,,,,,,,,610aefc141c6a35dd05bb40f,23,2022-02-12_16h51.52.845,lexical_decision_task_DD_L6,2021.2.3,MacIntel,59.99880002,,,,,,,,,,,,0.5607,1,,,,,,,,,,,,,,m,1,0.5607,,,,,,,,-0.038498264,-0.392526042,0,0,0,,0,64,64,34,1,RAZOR,C,m,m,./images/RAZOR.png,,,,,,,,,,,,,,,,,,,,,,,,,,,,,,,,,,
,,,,,,,,,,,,,,,,,610aefc141c6a35dd05bb40f,23,2022-02-12_16h51.52.845,lexical_decision_task_DD_L6,2021.2.3,MacIntel,59.99880002,,,,,,,,,,,,0.544,1,,,,,,,,,,,,,,m,1,0.544,,,,,,,,-0.038498264,-0.392526042,0,0,0,,0,65,65,27,1,BUTTER,LB,m,m,./images/BUTTERLB.png,,,,,,,,,,,,,,,,,,,,,,,,,,,,,,,,,,
,,,,,,,,,,,,,,,,,610aefc141c6a35dd05bb40f,23,2022-02-12_16h51.52.845,lexical_decision_task_DD_L6,2021.2.3,MacIntel,59.99880002,,,,,,,,,,,,0.4917,1,,,,,,,,,,,,,,m,1,0.4917,,,,,,,,-0.038498264,-0.392526042,0,0,0,,0,66,66,80,1,PLANET,HB,m,m,./images/PLANETHB.png,,,,,,,,,,,,,,,,,,,,,,,,,,,,,,,,,,
,,,,,,,,,,,,,,,,,610aefc141c6a35dd05bb40f,23,2022-02-12_16h51.52.845,lexical_decision_task_DD_L6,2021.2.3,MacIntel,59.99880002,,,,,,,,,,,,0.4311,1,,,,,,,,,,,,,,m,1,0.4311,,,,,,,,-0.038498264,-0.392526042,0,0,0,,0,67,67,78,1,BROOM,LB,m,m,./images/BROOMLB.png,,,,,,,,,,,,,,,,,,,,,,,,,,,,,,,,,,
,,,,,,,,,,,,,,,,,610aefc141c6a35dd05bb40f,23,2022-02-12_16h51.52.845,lexical_decision_task_DD_L6,2021.2.3,MacIntel,59.99880002,,,,,,,,,,,,0.498,1,,,,,,,,,,,,,,m,1,0.498,,,,,,,,-0.038498264,-0.392526042,0,0,0,,0,68,68,45,1,MONKEY,LB,m,m,./images/MONKEYLB.png,,,,,,,,,,,,,,,,,,,,,,,,,,,,,,,,,,
,,,,,,,,,,,,,,,,,610aefc141c6a35dd05bb40f,23,2022-02-12_16h51.52.845,lexical_decision_task_DD_L6,2021.2.3,MacIntel,59.99880002,,,,,,,,,,,,0.6569,1,,,,,,,,,,,,,,m,1,0.6569,,,,,,,,-0.038498264,-0.392526042,0,0,0,,0,69,69,43,1,STOOL,C,m,m,./images/STOOL.png,,,,,,,,,,,,,,,,,,,,,,,,,,,,,,,,,,
,,,,,,,,,,,,,,,,,610aefc141c6a35dd05bb40f,23,2022-02-12_16h51.52.845,lexical_decision_task_DD_L6,2021.2.3,MacIntel,59.99880002,,,,,,,,,,,,0.7552,1,,,,,,,,,,,,,,z,1,0.7552,,,,,,,,-0.038498264,-0.392526042,0,0,0,,0,70,70,161,1,BLAPS,LB,z,z,./images/BLAPSLB.png,,,,,,,,,,,,,,,,,,,,,,,,,,,,,,,,,,
,,,,,,,,,,,,,,,,,610aefc141c6a35dd05bb40f,23,2022-02-12_16h51.52.845,lexical_decision_task_DD_L6,2021.2.3,MacIntel,59.99880002,,,,,,,,,,,,0.5972,1,,,,,,,,,,,,,,m,1,0.5972,,,,,,,,-0.038498264,-0.392526042,0,0,0,,0,71,71,5,1,BAMBOO,HB,m,m,./images/BAMBOOHB.png,,,,,,,,,,,,,,,,,,,,,,,,,,,,,,,,,,
,,,,,,,,,,,,,,,,,610aefc141c6a35dd05bb40f,23,2022-02-12_16h51.52.845,lexical_decision_task_DD_L6,2021.2.3,MacIntel,59.99880002,,,,,,,,,,,,0.6514,1,,,,,,,,,,,,,,z,1,0.6514,,,,,,,,-0.038498264,-0.392526042,0,0,0,,0,72,72,105,1,MOKER,C,z,z,./images/MOKER.png,,,,,,,,,,,,,,,,,,,,,,,,,,,,,,,,,,
,,,,,,,,,,,,,,,,,610aefc141c6a35dd05bb40f,23,2022-02-12_16h51.52.845,lexical_decision_task_DD_L6,2021.2.3,MacIntel,59.99880002,,,,,,,,,,,,0.6889,1,,,,,,,,,,,,,,z,1,0.6889,,,,,,,,-0.038498264,-0.392526042,0,0,0,,0,73,73,147,1,ZOLES,C,z,z,./images/ZOLES.png,,,,,,,,,,,,,,,,,,,,,,,,,,,,,,,,,,
,,,,,,,,,,,,,,,,,610aefc141c6a35dd05bb40f,23,2022-02-12_16h51.52.845,lexical_decision_task_DD_L6,2021.2.3,MacIntel,59.99880002,,,,,,,,,,,,0.7423,1,,,,,,,,,,,,,,z,1,0.7423,,,,,,,,-0.038498264,-0.392526042,0,0,0,,0,74,74,103,1,FLORT,HB,z,z,./images/FLORTHB.png,,,,,,,,,,,,,,,,,,,,,,,,,,,,,,,,,,
,,,,,,,,,,,,,,,,,610aefc141c6a35dd05bb40f,23,2022-02-12_16h51.52.845,lexical_decision_task_DD_L6,2021.2.3,MacIntel,59.99880002,,,,,,,,,,,,0.5216,1,,,,,,,,,,,,,,m,1,0.5216,,,,,,,,-0.038498264,-0.392526042,0,0,0,,0,75,75,64,1,BRIDE,C,m,m,./images/BRIDE.png,,,,,,,,,,,,,,,,,,,,,,,,,,,,,,,,,,
,,,,,,,,,,,,,,,,,610aefc141c6a35dd05bb40f,23,2022-02-12_16h51.52.845,lexical_decision_task_DD_L6,2021.2.3,MacIntel,59.99880002,,,,,,,,,,,,0.5655,1,,,,,,,,,,,,,,m,1,0.5655,,,,,,,,-0.038498264,-0.392526042,0,0,0,,0,76,76,0,1,WALNUT,LB,m,m,./images/WALNUTLB.png,,,,,,,,,,,,,,,,,,,,,,,,,,,,,,,,,,
,,,,,,,,,,,,,,,,,610aefc141c6a35dd05bb40f,23,2022-02-12_16h51.52.845,lexical_decision_task_DD_L6,2021.2.3,MacIntel,59.99880002,,,,,,,,,,,,0.615,1,,,,,,,,,,,,,,z,1,0.615,,,,,,,,-0.038498264,-0.392526042,0,0,0,,0,77,77,92,1,PAIMS,LB,z,z,./images/PAIMSLB.png,,,,,,,,,,,,,,,,,,,,,,,,,,,,,,,,,,
,,,,,,,,,,,,,,,,,610aefc141c6a35dd05bb40f,23,2022-02-12_16h51.52.845,lexical_decision_task_DD_L6,2021.2.3,MacIntel,59.99880002,,,,,,,,,,,,1.0554,1,,,,,,,,,,,,,,z,1,1.0554,,,,,,,,-0.038498264,-0.392526042,0,0,0,,0,78,78,156,1,HIXES,C,z,z,./images/HIXES.png,,,,,,,,,,,,,,,,,,,,,,,,,,,,,,,,,,
,,,,,,,,,,,,,,,,,610aefc141c6a35dd05bb40f,23,2022-02-12_16h51.52.845,lexical_decision_task_DD_L6,2021.2.3,MacIntel,59.99880002,,,,,,,,,,,,0.7012,1,,,,,,,,,,,,,,z,1,0.7012,,,,,,,,-0.038498264,-0.392526042,0,0,0,,0,79,79,158,1,EGECT,LB,z,z,./images/EGECTLB.png,,,,,,,,,,,,,,,,,,,,,,,,,,,,,,,,,,
,,,,,,,,,,,,,,,,,610aefc141c6a35dd05bb40f,23,2022-02-12_16h51.52.845,lexical_decision_task_DD_L6,2021.2.3,MacIntel,59.99880002,,,,,,,,,,,,0.6383,1,,,,,,,,,,,,,,z,1,0.6383,,,,,,,,-0.038498264,-0.392526042,0,0,0,,0,80,80,152,1,FRAIN,LB,z,z,./images/FRAINLB.png,,,,,,,,,,,,,,,,,,,,,,,,,,,,,,,,,,
,,,,,,,,,,,,,,,,,610aefc141c6a35dd05bb40f,23,2022-02-12_16h51.52.845,lexical_decision_task_DD_L6,2021.2.3,MacIntel,59.99880002,,,,,,,,,,,,0.8225,1,,,,,,,,,,,,,,m,1,0.8225,,,,,,,,-0.038498264,-0.392526042,0,0,0,,0,81,81,3,1,CRATER,LB,m,m,./images/CRATERLB.png,,,,,,,,,,,,,,,,,,,,,,,,,,,,,,,,,,
,,,,,,,,,,,,,,,,,610aefc141c6a35dd05bb40f,23,2022-02-12_16h51.52.845,lexical_decision_task_DD_L6,2021.2.3,MacIntel,59.99880002,,,,,,,,,,,,0.6289,1,,,,,,,,,,,,,,m,1,0.6289,,,,,,,,-0.038498264,-0.392526042,0,0,0,,0,82,82,59,1,BRUSH,HB,m,m,./images/BRUSHHB.png,,,,,,,,,,,,,,,,,,,,,,,,,,,,,,,,,,
,,,,,,,,,,,,,,,,,610aefc141c6a35dd05bb40f,23,2022-02-12_16h51.52.845,lexical_decision_task_DD_L6,2021.2.3,MacIntel,59.99880002,,,,,,,,,,,,0.9522,1,,,,,,,,,,,,,,z,1,0.9522,,,,,,,,-0.038498264,-0.392526042,0,0,0,space,0,83,83,139,1,BLEAR,HB,z,z,./images/BLEARHB.png,135.2218,,,,,,,,,,,,,,,,,,,,,,,,,,,,,,,,,
,,,,,,,,,,,,,,,,,610aefc141c6a35dd05bb40f,23,2022-02-12_16h51.52.845,lexical_decision_task_DD_L6,2021.2.3,MacIntel,59.99880002,,,,,,,,,,,,0.7128,1,,,,,,,,,,,,,,z,1,0.7128,,,,,,,,-0.038498264,-0.392526042,0,0,0,,0,84,84,167,1,ZONET,LB,z,z,./images/ZONETLB.png,,,,,,,,,,,,,,,,,,,,,,,,,,,,,,,,,,
,,,,,,,,,,,,,,,,,610aefc141c6a35dd05bb40f,23,2022-02-12_16h51.52.845,lexical_decision_task_DD_L6,2021.2.3,MacIntel,59.99880002,,,,,,,,,,,,0.7147,1,,,,,,,,,,,,,,m,1,0.7147,,,,,,,,-0.038498264,-0.392526042,0,0,0,,0,85,85,62,1,MAMMAL,HB,m,m,./images/MAMMALHB.png,,,,,,,,,,,,,,,,,,,,,,,,,,,,,,,,,,
,,,,,,,,,,,,,,,,,610aefc141c6a35dd05bb40f,23,2022-02-12_16h51.52.845,lexical_decision_task_DD_L6,2021.2.3,MacIntel,59.99880002,,,,,,,,,,,,0.5303,0,,,,,,,,,,,,,,m,0,0.5303,,,,,,,,-0.038498264,-0.392526042,0,0,0,,0,86,86,104,1,GITTY,LB,z,z,./images/GITTYLB.png,,,,,,,,,,,,,,,,,,,,,,,,,,,,,,,,,,
,,,,,,,,,,,,,,,,,610aefc141c6a35dd05bb40f,23,2022-02-12_16h51.52.845,lexical_decision_task_DD_L6,2021.2.3,MacIntel,59.99880002,,,,,,,,,,,,0.831,1,,,,,,,,,,,,,,z,1,0.831,,,,,,,,-0.038498264,-0.392526042,0,0,0,,0,87,87,163,1,GAMBA,HB,z,z,./images/GAMBAHB.png,,,,,,,,,,,,,,,,,,,,,,,,,,,,,,,,,,
,,,,,,,,,,,,,,,,,610aefc141c6a35dd05bb40f,23,2022-02-12_16h51.52.845,lexical_decision_task_DD_L6,2021.2.3,MacIntel,59.99880002,,,,,,,,,,,,0.5912,1,,,,,,,,,,,,,,m,1,0.5912,,,,,,,,-0.038498264,-0.392526042,0,0,0,,0,88,88,50,1,PILOT,HB,m,m,./images/PILOTHB.png,,,,,,,,,,,,,,,,,,,,,,,,,,,,,,,,,,
,,,,,,,,,,,,,,,,,610aefc141c6a35dd05bb40f,23,2022-02-12_16h51.52.845,lexical_decision_task_DD_L6,2021.2.3,MacIntel,59.99880002,,,,,,,,,,,,1.1663,1,,,,,,,,,,,,,,z,1,1.1663,,,,,,,,-0.038498264,-0.392526042,0,0,0,,0,89,89,106,1,CLUMS,HB,z,z,./images/CLUMSHB.png,,,,,,,,,,,,,,,,,,,,,,,,,,,,,,,,,,
,,,,,,,,,,,,,,,,,610aefc141c6a35dd05bb40f,23,2022-02-12_16h51.52.845,lexical_decision_task_DD_L6,2021.2.3,MacIntel,59.99880002,,,,,,,,,,,,0.5887,1,,,,,,,,,,,,,,m,1,0.5887,,,,,,,,-0.038498264,-0.392526042,0,0,0,,0,90,90,4,1,BOXER,C,m,m,./images/BOXER.png,,,,,,,,,,,,,,,,,,,,,,,,,,,,,,,,,,
,,,,,,,,,,,,,,,,,610aefc141c6a35dd05bb40f,23,2022-02-12_16h51.52.845,lexical_decision_task_DD_L6,2021.2.3,MacIntel,59.99880002,,,,,,,,,,,,1.1358,1,,,,,,,,,,,,,,z,1,1.1358,,,,,,,,-0.038498264,-0.392526042,0,0,0,,0,91,91,115,1,MAWNS,HB,z,z,./images/MAWNSHB.png,,,,,,,,,,,,,,,,,,,,,,,,,,,,,,,,,,
,,,,,,,,,,,,,,,,,610aefc141c6a35dd05bb40f,23,2022-02-12_16h51.52.845,lexical_decision_task_DD_L6,2021.2.3,MacIntel,59.99880002,,,,,,,,,,,,1.0381,1,,,,,,,,,,,,,,m,1,1.0381,,,,,,,,-0.038498264,-0.392526042,0,0,0,,0,92,92,53,1,POSTER,HB,m,m,./images/POSTERHB.png,,,,,,,,,,,,,,,,,,,,,,,,,,,,,,,,,,
,,,,,,,,,,,,,,,,,610aefc141c6a35dd05bb40f,23,2022-02-12_16h51.52.845,lexical_decision_task_DD_L6,2021.2.3,MacIntel,59.99880002,,,,,,,,,,,,0.6813,1,,,,,,,,,,,,,,m,1,0.6813,,,,,,,,-0.038498264,-0.392526042,0,0,0,,0,93,93,56,1,HEATER,HB,m,m,./images/HEATERHB.png,,,,,,,,,,,,,,,,,,,,,,,,,,,,,,,,,,
,,,,,,,,,,,,,,,,,610aefc141c6a35dd05bb40f,23,2022-02-12_16h51.52.845,lexical_decision_task_DD_L6,2021.2.3,MacIntel,59.99880002,,,,,,,,,,,,0.6159,1,,,,,,,,,,,,,,z,1,0.6159,,,,,,,,-0.038498264,-0.392526042,0,0,0,,0,94,94,141,1,PLEET,C,z,z,./images/PLEET.png,,,,,,,,,,,,,,,,,,,,,,,,,,,,,,,,,,
,,,,,,,,,,,,,,,,,610aefc141c6a35dd05bb40f,23,2022-02-12_16h51.52.845,lexical_decision_task_DD_L6,2021.2.3,MacIntel,59.99880002,,,,,,,,,,,,0.901,1,,,,,,,,,,,,,,z,1,0.901,,,,,,,,-0.038498264,-0.392526042,0,0,0,,0,95,95,164,1,SGREW,LB,z,z,./images/SGREWLB.png,,,,,,,,,,,,,,,,,,,,,,,,,,,,,,,,,,
,,,,,,,,,,,,,,,,,610aefc141c6a35dd05bb40f,23,2022-02-12_16h51.52.845,lexical_decision_task_DD_L6,2021.2.3,MacIntel,59.99880002,,,,,,,,,,,,0.7933,1,,,,,,,,,,,,,,m,1,0.7933,,,,,,,,-0.038498264,-0.392526042,0,0,0,,0,96,96,49,1,BISHOP,C,m,m,./images/BISHOP.png,,,,,,,,,,,,,,,,,,,,,,,,,,,,,,,,,,
,,,,,,,,,,,,,,,,,610aefc141c6a35dd05bb40f,23,2022-02-12_16h51.52.845,lexical_decision_task_DD_L6,2021.2.3,MacIntel,59.99880002,,,,,,,,,,,,0.6812,1,,,,,,,,,,,,,,z,1,0.6812,,,,,,,,-0.038498264,-0.392526042,0,0,0,,0,97,97,89,1,DRIEK,LB,z,z,./images/DRIEKLB.png,,,,,,,,,,,,,,,,,,,,,,,,,,,,,,,,,,
,,,,,,,,,,,,,,,,,610aefc141c6a35dd05bb40f,23,2022-02-12_16h51.52.845,lexical_decision_task_DD_L6,2021.2.3,MacIntel,59.99880002,,,,,,,,,,,,0.6371,1,,,,,,,,,,,,,,z,1,0.6371,,,,,,,,-0.038498264,-0.392526042,0,0,0,,0,98,98,131,1,NACES,LB,z,z,./images/NACESLB.png,,,,,,,,,,,,,,,,,,,,,,,,,,,,,,,,,,
,,,,,,,,,,,,,,,,,610aefc141c6a35dd05bb40f,23,2022-02-12_16h51.52.845,lexical_decision_task_DD_L6,2021.2.3,MacIntel,59.99880002,,,,,,,,,,,,0.8913,1,,,,,,,,,,,,,,m,1,0.8913,,,,,,,,-0.038498264,-0.392526042,0,0,0,,0,99,99,40,1,SNAKE,C,m,m,./images/SNAKE.png,,,,,,,,,,,,,,,,,,,,,,,,,,,,,,,,,,
,,,,,,,,,,,,,,,,,610aefc141c6a35dd05bb40f,23,2022-02-12_16h51.52.845,lexical_decision_task_DD_L6,2021.2.3,MacIntel,59.99880002,,,,,,,,,,,,0.7322,1,,,,,,,,,,,,,,m,1,0.7322,,,,,,,,-0.038498264,-0.392526042,0,0,0,,0,100,100,83,1,WHISKY,HB,m,m,./images/WHISKYHB.png,,,,,,,,,,,,,,,,,,,,,,,,,,,,,,,,,,
,,,,,,,,,,,,,,,,,610aefc141c6a35dd05bb40f,23,2022-02-12_16h51.52.845,lexical_decision_task_DD_L6,2021.2.3,MacIntel,59.99880002,,,,,,,,,,,,0.648,1,,,,,,,,,,,,,,m,1,0.648,,,,,,,,-0.038498264,-0.392526042,0,0,0,,0,101,101,54,1,CHERRY,LB,m,m,./images/CHERRYLB.png,,,,,,,,,,,,,,,,,,,,,,,,,,,,,,,,,,
,,,,,,,,,,,,,,,,,610aefc141c6a35dd05bb40f,23,2022-02-12_16h51.52.845,lexical_decision_task_DD_L6,2021.2.3,MacIntel,59.99880002,,,,,,,,,,,,0.6955,1,,,,,,,,,,,,,,z,1,0.6955,,,,,,,,-0.038498264,-0.392526042,0,0,0,,0,102,102,149,1,VEASE,LB,z,z,./images/VEASELB.png,,,,,,,,,,,,,,,,,,,,,,,,,,,,,,,,,,
,,,,,,,,,,,,,,,,,610aefc141c6a35dd05bb40f,23,2022-02-12_16h51.52.845,lexical_decision_task_DD_L6,2021.2.3,MacIntel,59.99880002,,,,,,,,,,,,0.5733,0,,,,,,,,,,,,,,m,0,0.5733,,,,,,,,-0.038498264,-0.392526042,0,0,0,,0,103,103,122,1,BLOOT,LB,z,z,./images/BLOOTLB.png,,,,,,,,,,,,,,,,,,,,,,,,,,,,,,,,,,
,,,,,,,,,,,,,,,,,610aefc141c6a35dd05bb40f,23,2022-02-12_16h51.52.845,lexical_decision_task_DD_L6,2021.2.3,MacIntel,59.99880002,,,,,,,,,,,,0.5896,1,,,,,,,,,,,,,,m,1,0.5896,,,,,,,,-0.038498264,-0.392526042,0,0,0,,0,104,104,25,1,CHALK,C,m,m,./images/CHALK.png,,,,,,,,,,,,,,,,,,,,,,,,,,,,,,,,,,
,,,,,,,,,,,,,,,,,610aefc141c6a35dd05bb40f,23,2022-02-12_16h51.52.845,lexical_decision_task_DD_L6,2021.2.3,MacIntel,59.99880002,,,,,,,,,,,,1.2019,1,,,,,,,,,,,,,,z,1,1.2019,,,,,,,,-0.038498264,-0.392526042,0,0,0,,0,105,105,97,1,CHIDS,HB,z,z,./images/CHIDSHB.png,,,,,,,,,,,,,,,,,,,,,,,,,,,,,,,,,,
,,,,,,,,,,,,,,,,,610aefc141c6a35dd05bb40f,23,2022-02-12_16h51.52.845,lexical_decision_task_DD_L6,2021.2.3,MacIntel,59.99880002,,,,,,,,,,,,0.7992,1,,,,,,,,,,,,,,z,1,0.7992,,,,,,,,-0.038498264,-0.392526042,0,0,0,,0,106,106,145,1,LAMEL,HB,z,z,./images/LAMELHB.png,,,,,,,,,,,,,,,,,,,,,,,,,,,,,,,,,,
,,,,,,,,,,,,,,,,,610aefc141c6a35dd05bb40f,23,2022-02-12_16h51.52.845,lexical_decision_task_DD_L6,2021.2.3,MacIntel,59.99880002,,,,,,,,,,,,0.8465,1,,,,,,,,,,,,,,z,1,0.8465,,,,,,,,-0.038498264,-0.392526042,0,0,0,,0,107,107,93,1,SMONE,C,z,z,./images/SMONE.png,,,,,,,,,,,,,,,,,,,,,,,,,,,,,,,,,,
,,,,,,,,,,,,,,,,,610aefc141c6a35dd05bb40f,23,2022-02-12_16h51.52.845,lexical_decision_task_DD_L6,2021.2.3,MacIntel,59.99880002,,,,,,,,,,,,0.6954,1,,,,,,,,,,,,,,m,1,0.6954,,,,,,,,-0.038498264,-0.392526042,0,0,0,,0,108,108,76,1,MIDGET,C,m,m,./images/MIDGET.png,,,,,,,,,,,,,,,,,,,,,,,,,,,,,,,,,,
,,,,,,,,,,,,,,,,,610aefc141c6a35dd05bb40f,23,2022-02-12_16h51.52.845,lexical_decision_task_DD_L6,2021.2.3,MacIntel,59.99880002,,,,,,,,,,,,0.5658,1,,,,,,,,,,,,,,m,1,0.5658,,,,,,,,-0.038498264,-0.392526042,0,0,0,,0,109,109,6,1,STAIN,LB,m,m,./images/STAINLB.png,,,,,,,,,,,,,,,,,,,,,,,,,,,,,,,,,,
,,,,,,,,,,,,,,,,,610aefc141c6a35dd05bb40f,23,2022-02-12_16h51.52.845,lexical_decision_task_DD_L6,2021.2.3,MacIntel,59.99880002,,,,,,,,,,,,0.5002,1,,,,,,,,,,,,,,m,1,0.5002,,,,,,,,-0.038498264,-0.392526042,0,0,0,,0,110,110,9,1,DIVER,LB,m,m,./images/DIVERLB.png,,,,,,,,,,,,,,,,,,,,,,,,,,,,,,,,,,
,,,,,,,,,,,,,,,,,610aefc141c6a35dd05bb40f,23,2022-02-12_16h51.52.845,lexical_decision_task_DD_L6,2021.2.3,MacIntel,59.99880002,,,,,,,,,,,,0.8138,1,,,,,,,,,,,,,,z,1,0.8138,,,,,,,,-0.038498264,-0.392526042,0,0,0,,0,111,111,98,1,BAMPS,LB,z,z,./images/BAMPSLB.png,,,,,,,,,,,,,,,,,,,,,,,,,,,,,,,,,,
,,,,,,,,,,,,,,,,,610aefc141c6a35dd05bb40f,23,2022-02-12_16h51.52.845,lexical_decision_task_DD_L6,2021.2.3,MacIntel,59.99880002,,,,,,,,,,,,0.6508,1,,,,,,,,,,,,,,m,1,0.6508,,,,,,,,-0.038498264,-0.392526042,0,0,0,,0,112,112,52,1,DESERT,C,m,m,./images/DESERT.png,,,,,,,,,,,,,,,,,,,,,,,,,,,,,,,,,,
,,,,,,,,,,,,,,,,,610aefc141c6a35dd05bb40f,23,2022-02-12_16h51.52.845,lexical_decision_task_DD_L6,2021.2.3,MacIntel,59.99880002,,,,,,,,,,,,0.7101,1,,,,,,,,,,,,,,z,1,0.7101,,,,,,,,-0.038498264,-0.392526042,0,0,0,,0,113,113,130,1,CRILL,HB,z,z,./images/CRILLHB.png,,,,,,,,,,,,,,,,,,,,,,,,,,,,,,,,,,
,,,,,,,,,,,,,,,,,610aefc141c6a35dd05bb40f,23,2022-02-12_16h51.52.845,lexical_decision_task_DD_L6,2021.2.3,MacIntel,59.99880002,,,,,,,,,,,,0.5222,1,,,,,,,,,,,,,,m,1,0.5222,,,,,,,,-0.038498264,-0.392526042,0,0,0,,0,114,114,79,1,RULER,C,m,m,./images/RULER.png,,,,,,,,,,,,,,,,,,,,,,,,,,,,,,,,,,
,,,,,,,,,,,,,,,,,610aefc141c6a35dd05bb40f,23,2022-02-12_16h51.52.845,lexical_decision_task_DD_L6,2021.2.3,MacIntel,59.99880002,,,,,,,,,,,,0.5382,1,,,,,,,,,,,,,,m,1,0.5382,,,,,,,,-0.038498264,-0.392526042,0,0,0,,0,115,115,37,1,TIGER,C,m,m,./images/TIGER.png,,,,,,,,,,,,,,,,,,,,,,,,,,,,,,,,,,
,,,,,,,,,,,,,,,,,610aefc141c6a35dd05bb40f,23,2022-02-12_16h51.52.845,lexical_decision_task_DD_L6,2021.2.3,MacIntel,59.99880002,,,,,,,,,,,,1.102,1,,,,,,,,,,,,,,m,1,1.102,,,,,,,,-0.038498264,-0.392526042,0,0,0,,0,116,116,74,1,JUMPER,HB,m,m,./images/JUMPERHB.png,,,,,,,,,,,,,,,,,,,,,,,,,,,,,,,,,,
,,,,,,,,,,,,,,,,,610aefc141c6a35dd05bb40f,23,2022-02-12_16h51.52.845,lexical_decision_task_DD_L6,2021.2.3,MacIntel,59.99880002,,,,,,,,,,,,0.8982,0,,,,,,,,,,,,,,m,0,0.8982,,,,,,,,-0.038498264,-0.392526042,0,0,0,,0,117,117,154,1,THINT,HB,z,z,./images/THINTHB.png,,,,,,,,,,,,,,,,,,,,,,,,,,,,,,,,,,
,,,,,,,,,,,,,,,,,610aefc141c6a35dd05bb40f,23,2022-02-12_16h51.52.845,lexical_decision_task_DD_L6,2021.2.3,MacIntel,59.99880002,,,,,,,,,,,,0.6248,1,,,,,,,,,,,,,,m,1,0.6248,,,,,,,,-0.038498264,-0.392526042,0,0,0,,0,118,118,7,1,WAGON,C,m,m,./images/WAGON.png,,,,,,,,,,,,,,,,,,,,,,,,,,,,,,,,,,
,,,,,,,,,,,,,,,,,610aefc141c6a35dd05bb40f,23,2022-02-12_16h51.52.845,lexical_decision_task_DD_L6,2021.2.3,MacIntel,59.99880002,,,,,,,,,,,,0.5862,1,,,,,,,,,,,,,,z,1,0.5862,,,,,,,,-0.038498264,-0.392526042,0,0,0,,0,119,119,126,1,GUELS,C,z,z,./images/GUELS.png,,,,,,,,,,,,,,,,,,,,,,,,,,,,,,,,,,
,,,,,,,,,,,,,,,,,610aefc141c6a35dd05bb40f,23,2022-02-12_16h51.52.845,lexical_decision_task_DD_L6,2021.2.3,MacIntel,59.99880002,,,,,,,,,,,,0.7716,1,,,,,,,,,,,,,,z,1,0.7716,,,,,,,,-0.038498264,-0.392526042,0,0,0,,0,120,120,129,1,PRANS,C,z,z,./images/PRANS.png,,,,,,,,,,,,,,,,,,,,,,,,,,,,,,,,,,
,,,,,,,,,,,,,,,,,610aefc141c6a35dd05bb40f,23,2022-02-12_16h51.52.845,lexical_decision_task_DD_L6,2021.2.3,MacIntel,59.99880002,,,,,,,,,,,,0.9813,1,,,,,,,,,,,,,,z,1,0.9813,,,,,,,,-0.038498264,-0.392526042,0,0,0,,0,121,121,95,1,HANTY,LB,z,z,./images/HANTYLB.png,,,,,,,,,,,,,,,,,,,,,,,,,,,,,,,,,,
,,,,,,,,,,,,,,,,,610aefc141c6a35dd05bb40f,23,2022-02-12_16h51.52.845,lexical_decision_task_DD_L6,2021.2.3,MacIntel,59.99880002,,,,,,,,,,,,0.6197,1,,,,,,,,,,,,,,m,1,0.6197,,,,,,,,-0.038498264,-0.392526042,0,0,0,,0,122,122,51,1,SAUCE,LB,m,m,./images/SAUCELB.png,,,,,,,,,,,,,,,,,,,,,,,,,,,,,,,,,,
,,,,,,,,,,,,,,,,,610aefc141c6a35dd05bb40f,23,2022-02-12_16h51.52.845,lexical_decision_task_DD_L6,2021.2.3,MacIntel,59.99880002,,,,,,,,,,,,0.5496,1,,,,,,,,,,,,,,m,1,0.5496,,,,,,,,-0.038498264,-0.392526042,0,0,0,,0,123,123,19,1,DONKEY,C,m,m,./images/DONKEY.png,,,,,,,,,,,,,,,,,,,,,,,,,,,,,,,,,,
,,,,,,,,,,,,,,,,,610aefc141c6a35dd05bb40f,23,2022-02-12_16h51.52.845,lexical_decision_task_DD_L6,2021.2.3,MacIntel,59.99880002,,,,,,,,,,,,0.7063,1,,,,,,,,,,,,,,m,1,0.7063,,,,,,,,-0.038498264,-0.392526042,0,0,0,,0,124,124,2,1,STOVE,HB,m,m,./images/STOVEHB.png,,,,,,,,,,,,,,,,,,,,,,,,,,,,,,,,,,
,,,,,,,,,,,,,,,,,610aefc141c6a35dd05bb40f,23,2022-02-12_16h51.52.845,lexical_decision_task_DD_L6,2021.2.3,MacIntel,59.99880002,,,,,,,,,,,,1.546,1,,,,,,,,,,,,,,z,1,1.546,,,,,,,,-0.038498264,-0.392526042,0,0,0,space,0,125,125,85,1,CHULK,HB,z,z,./images/CHULKHB.png,1.8685,,,,,,,,,,,,,,,,,,,,,,,,,,,,,,,,,
,,,,,,,,,,,,,,,,,610aefc141c6a35dd05bb40f,23,2022-02-12_16h51.52.845,lexical_decision_task_DD_L6,2021.2.3,MacIntel,59.99880002,,,,,,,,,,,,0.7476,1,,,,,,,,,,,,,,m,1,0.7476,,,,,,,,-0.038498264,-0.392526042,0,0,0,,0,126,126,12,1,BLOKE,LB,m,m,./images/BLOKELB.png,,,,,,,,,,,,,,,,,,,,,,,,,,,,,,,,,,
,,,,,,,,,,,,,,,,,610aefc141c6a35dd05bb40f,23,2022-02-12_16h51.52.845,lexical_decision_task_DD_L6,2021.2.3,MacIntel,59.99880002,,,,,,,,,,,,0.8492,1,,,,,,,,,,,,,,m,1,0.8492,,,,,,,,-0.038498264,-0.392526042,0,0,0,,0,127,127,17,1,PARADE,HB,m,m,./images/PARADEHB.png,,,,,,,,,,,,,,,,,,,,,,,,,,,,,,,,,,
,,,,,,,,,,,,,,,,,610aefc141c6a35dd05bb40f,23,2022-02-12_16h51.52.845,lexical_decision_task_DD_L6,2021.2.3,MacIntel,59.99880002,,,,,,,,,,,,0.8143,1,,,,,,,,,,,,,,z,1,0.8143,,,,,,,,-0.038498264,-0.392526042,0,0,0,,0,128,128,110,1,CRUNK,LB,z,z,./images/CRUNKLB.png,,,,,,,,,,,,,,,,,,,,,,,,,,,,,,,,,,
,,,,,,,,,,,,,,,,,610aefc141c6a35dd05bb40f,23,2022-02-12_16h51.52.845,lexical_decision_task_DD_L6,2021.2.3,MacIntel,59.99880002,,,,,,,,,,,,0.744,1,,,,,,,,,,,,,,z,1,0.744,,,,,,,,-0.038498264,-0.392526042,0,0,0,,0,129,129,102,1,DULLE,C,z,z,./images/DULLE.png,,,,,,,,,,,,,,,,,,,,,,,,,,,,,,,,,,
,,,,,,,,,,,,,,,,,610aefc141c6a35dd05bb40f,23,2022-02-12_16h51.52.845,lexical_decision_task_DD_L6,2021.2.3,MacIntel,59.99880002,,,,,,,,,,,,0.6101,1,,,,,,,,,,,,,,m,1,0.6101,,,,,,,,-0.038498264,-0.392526042,0,0,0,,0,130,130,72,1,FLASK,LB,m,m,./images/FLASKLB.png,,,,,,,,,,,,,,,,,,,,,,,,,,,,,,,,,,
,,,,,,,,,,,,,,,,,610aefc141c6a35dd05bb40f,23,2022-02-12_16h51.52.845,lexical_decision_task_DD_L6,2021.2.3,MacIntel,59.99880002,,,,,,,,,,,,0.5385,1,,,,,,,,,,,,,,m,1,0.5385,,,,,,,,-0.038498264,-0.392526042,0,0,0,,0,131,131,42,1,CHAIN,LB,m,m,./images/CHAINLB.png,,,,,,,,,,,,,,,,,,,,,,,,,,,,,,,,,,
,,,,,,,,,,,,,,,,,610aefc141c6a35dd05bb40f,23,2022-02-12_16h51.52.845,lexical_decision_task_DD_L6,2021.2.3,MacIntel,59.99880002,,,,,,,,,,,,0.531,0,,,,,,,,,,,,,,m,0,0.531,,,,,,,,-0.038498264,-0.392526042,0,0,0,,0,132,132,101,1,GLEET,LB,z,z,./images/GLEETLB.png,,,,,,,,,,,,,,,,,,,,,,,,,,,,,,,,,,
,,,,,,,,,,,,,,,,,610aefc141c6a35dd05bb40f,23,2022-02-12_16h51.52.845,lexical_decision_task_DD_L6,2021.2.3,MacIntel,59.99880002,,,,,,,,,,,,1.1934,1,,,,,,,,,,,,,,z,1,1.1934,,,,,,,,-0.038498264,-0.392526042,0,0,0,,0,133,133,114,1,RIKES,C,z,z,./images/RIKES.png,,,,,,,,,,,,,,,,,,,,,,,,,,,,,,,,,,
,,,,,,,,,,,,,,,,,610aefc141c6a35dd05bb40f,23,2022-02-12_16h51.52.845,lexical_decision_task_DD_L6,2021.2.3,MacIntel,59.99880002,,,,,,,,,,,,0.9413,1,,,,,,,,,,,,,,z,1,0.9413,,,,,,,,-0.038498264,-0.392526042,0,0,0,,0,134,134,123,1,SEDGE,C,z,z,./images/SEDGE.png,,,,,,,,,,,,,,,,,,,,,,,,,,,,,,,,,,
,,,,,,,,,,,,,,,,,610aefc141c6a35dd05bb40f,23,2022-02-12_16h51.52.845,lexical_decision_task_DD_L6,2021.2.3,MacIntel,59.99880002,,,,,,,,,,,,0.6365,1,,,,,,,,,,,,,,m,1,0.6365,,,,,,,,-0.038498264,-0.392526042,0,0,0,,0,135,135,22,1,CLOWN,C,m,m,./images/CLOWN.png,,,,,,,,,,,,,,,,,,,,,,,,,,,,,,,,,,
,,,,,,,,,,,,,,,,,610aefc141c6a35dd05bb40f,23,2022-02-12_16h51.52.845,lexical_decision_task_DD_L6,2021.2.3,MacIntel,59.99880002,,,,,,,,,,,,1.0318,0,,,,,,,,,,,,,,m,0,1.0318,,,,,,,,-0.038498264,-0.392526042,0,0,0,,0,136,136,142,1,PLASK,HB,z,z,./images/PLASKHB.png,,,,,,,,,,,,,,,,,,,,,,,,,,,,,,,,,,
,,,,,,,,,,,,,,,,,610aefc141c6a35dd05bb40f,23,2022-02-12_16h51.52.845,lexical_decision_task_DD_L6,2021.2.3,MacIntel,59.99880002,,,,,,,,,,,,0.9878,1,,,,,,,,,,,,,,m,1,0.9878,,,,,,,,-0.038498264,-0.392526042,0,0,0,,0,137,137,15,1,COLLAR,LB,m,m,./images/COLLARLB.png,,,,,,,,,,,,,,,,,,,,,,,,,,,,,,,,,,
,,,,,,,,,,,,,,,,,610aefc141c6a35dd05bb40f,23,2022-02-12_16h51.52.845,lexical_decision_task_DD_L6,2021.2.3,MacIntel,59.99880002,,,,,,,,,,,,0.9242,1,,,,,,,,,,,,,,z,1,0.9242,,,,,,,,-0.038498264,-0.392526042,0,0,0,,0,138,138,90,1,NEAST,C,z,z,./images/NEAST.png,,,,,,,,,,,,,,,,,,,,,,,,,,,,,,,,,,
,,,,,,,,,,,,,,,,,610aefc141c6a35dd05bb40f,23,2022-02-12_16h51.52.845,lexical_decision_task_DD_L6,2021.2.3,MacIntel,59.99880002,,,,,,,,,,,,0.6274,1,,,,,,,,,,,,,,m,1,0.6274,,,,,,,,-0.038498264,-0.392526042,0,0,0,,0,139,139,61,1,ARTIST,C,m,m,./images/ARTIST.png,,,,,,,,,,,,,,,,,,,,,,,,,,,,,,,,,,
,,,,,,,,,,,,,,,,,610aefc141c6a35dd05bb40f,23,2022-02-12_16h51.52.845,lexical_decision_task_DD_L6,2021.2.3,MacIntel,59.99880002,,,,,,,,,,,,0.7066,1,,,,,,,,,,,,,,z,1,0.7066,,,,,,,,-0.038498264,-0.392526042,0,0,0,,0,140,140,111,1,HOSSE,C,z,z,./images/HOSSE.png,,,,,,,,,,,,,,,,,,,,,,,,,,,,,,,,,,
,,,,,,,,,,,,,,,,,610aefc141c6a35dd05bb40f,23,2022-02-12_16h51.52.845,lexical_decision_task_DD_L6,2021.2.3,MacIntel,59.99880002,,,,,,,,,,,,0.6307,1,,,,,,,,,,,,,,m,1,0.6307,,,,,,,,-0.038498264,-0.392526042,0,0,0,,0,141,141,82,1,PEBBLE,C,m,m,./images/PEBBLE.png,,,,,,,,,,,,,,,,,,,,,,,,,,,,,,,,,,
,,,,,,,,,,,,,,,,,610aefc141c6a35dd05bb40f,23,2022-02-12_16h51.52.845,lexical_decision_task_DD_L6,2021.2.3,MacIntel,59.99880002,,,,,,,,,,,,0.9803,1,,,,,,,,,,,,,,z,1,0.9803,,,,,,,,-0.038498264,-0.392526042,0,0,0,,0,142,142,91,1,SHENS,HB,z,z,./images/SHENSHB.png,,,,,,,,,,,,,,,,,,,,,,,,,,,,,,,,,,
,,,,,,,,,,,,,,,,,610aefc141c6a35dd05bb40f,23,2022-02-12_16h51.52.845,lexical_decision_task_DD_L6,2021.2.3,MacIntel,59.99880002,,,,,,,,,,,,0.592,1,,,,,,,,,,,,,,m,1,0.592,,,,,,,,-0.038498264,-0.392526042,0,0,0,,0,143,143,13,1,BUNNY,C,m,m,./images/BUNNY.png,,,,,,,,,,,,,,,,,,,,,,,,,,,,,,,,,,
,,,,,,,,,,,,,,,,,610aefc141c6a35dd05bb40f,23,2022-02-12_16h51.52.845,lexical_decision_task_DD_L6,2021.2.3,MacIntel,59.99880002,,,,,,,,,,,,0.7348,1,,,,,,,,,,,,,,z,1,0.7348,,,,,,,,-0.038498264,-0.392526042,0,0,0,,0,144,144,144,1,NAIRY,C,z,z,./images/NAIRY.png,,,,,,,,,,,,,,,,,,,,,,,,,,,,,,,,,,
,,,,,,,,,,,,,,,,,610aefc141c6a35dd05bb40f,23,2022-02-12_16h51.52.845,lexical_decision_task_DD_L6,2021.2.3,MacIntel,59.99880002,,,,,,,,,,,,1.0395,1,,,,,,,,,,,,,,z,1,1.0395,,,,,,,,-0.038498264,-0.392526042,0,0,0,,0,145,145,112,1,MYING,HB,z,z,./images/MYINGHB.png,,,,,,,,,,,,,,,,,,,,,,,,,,,,,,,,,,
,,,,,,,,,,,,,,,,,610aefc141c6a35dd05bb40f,23,2022-02-12_16h51.52.845,lexical_decision_task_DD_L6,2021.2.3,MacIntel,59.99880002,,,,,,,,,,,,0.5478,1,,,,,,,,,,,,,,m,1,0.5478,,,,,,,,-0.038498264,-0.392526042,0,0,0,,0,146,146,36,1,BOILER,LB,m,m,./images/BOILERLB.png,,,,,,,,,,,,,,,,,,,,,,,,,,,,,,,,,,
,,,,,,,,,,,,,,,,,610aefc141c6a35dd05bb40f,23,2022-02-12_16h51.52.845,lexical_decision_task_DD_L6,2021.2.3,MacIntel,59.99880002,,,,,,,,,,,,0.7043,1,,,,,,,,,,,,,,z,1,0.7043,,,,,,,,-0.038498264,-0.392526042,0,0,0,,0,147,147,137,1,JOOST,LB,z,z,./images/JOOSTLB.png,,,,,,,,,,,,,,,,,,,,,,,,,,,,,,,,,,
,,,,,,,,,,,,,,,,,610aefc141c6a35dd05bb40f,23,2022-02-12_16h51.52.845,lexical_decision_task_DD_L6,2021.2.3,MacIntel,59.99880002,,,,,,,,,,,,1.3556,1,,,,,,,,,,,,,,z,1,1.3556,,,,,,,,-0.038498264,-0.392526042,0,0,0,,0,148,148,157,1,INLER,HB,z,z,./images/INLERHB.png,,,,,,,,,,,,,,,,,,,,,,,,,,,,,,,,,,
,,,,,,,,,,,,,,,,,610aefc141c6a35dd05bb40f,23,2022-02-12_16h51.52.845,lexical_decision_task_DD_L6,2021.2.3,MacIntel,59.99880002,,,,,,,,,,,,0.6133,1,,,,,,,,,,,,,,m,1,0.6133,,,,,,,,-0.038498264,-0.392526042,0,0,0,,0,149,149,66,1,STATUE,LB,m,m,./images/STATUELB.png,,,,,,,,,,,,,,,,,,,,,,,,,,,,,,,,,,
,,,,,,,,,,,,,,,,,610aefc141c6a35dd05bb40f,23,2022-02-12_16h51.52.845,lexical_decision_task_DD_L6,2021.2.3,MacIntel,59.99880002,,,,,,,,,,,,0.7432,1,,,,,,,,,,,,,,z,1,0.7432,,,,,,,,-0.038498264,-0.392526042,0,0,0,,0,150,150,84,1,HAXES,C,z,z,./images/HAXES.png,,,,,,,,,,,,,,,,,,,,,,,,,,,,,,,,,,
,,,,,,,,,,,,,,,,,610aefc141c6a35dd05bb40f,23,2022-02-12_16h51.52.845,lexical_decision_task_DD_L6,2021.2.3,MacIntel,59.99880002,,,,,,,,,,,,0.5783,1,,,,,,,,,,,,,,z,1,0.5783,,,,,,,,-0.038498264,-0.392526042,0,0,0,,0,151,151,120,1,RINED,C,z,z,./images/RINED.png,,,,,,,,,,,,,,,,,,,,,,,,,,,,,,,,,,
,,,,,,,,,,,,,,,,,610aefc141c6a35dd05bb40f,23,2022-02-12_16h51.52.845,lexical_decision_task_DD_L6,2021.2.3,MacIntel,59.99880002,,,,,,,,,,,,0.6611,1,,,,,,,,,,,,,,z,1,0.6611,,,,,,,,-0.038498264,-0.392526042,0,0,0,,0,152,152,116,1,BALGY,LB,z,z,./images/BALGYLB.png,,,,,,,,,,,,,,,,,,,,,,,,,,,,,,,,,,
,,,,,,,,,,,,,,,,,610aefc141c6a35dd05bb40f,23,2022-02-12_16h51.52.845,lexical_decision_task_DD_L6,2021.2.3,MacIntel,59.99880002,,,,,,,,,,,,0.8156,1,,,,,,,,,,,,,,m,1,0.8156,,,,,,,,-0.038498264,-0.392526042,0,0,0,,0,153,153,20,1,GRANNY,HB,m,m,./images/GRANNYHB.png,,,,,,,,,,,,,,,,,,,,,,,,,,,,,,,,,,
,,,,,,,,,,,,,,,,,610aefc141c6a35dd05bb40f,23,2022-02-12_16h51.52.845,lexical_decision_task_DD_L6,2021.2.3,MacIntel,59.99880002,,,,,,,,,,,,1.0054,1,,,,,,,,,,,,,,z,1,1.0054,,,,,,,,-0.038498264,-0.392526042,0,0,0,,0,154,154,165,1,TROWN,C,z,z,./images/TROWN.png,,,,,,,,,,,,,,,,,,,,,,,,,,,,,,,,,,
,,,,,,,,,,,,,,,,,610aefc141c6a35dd05bb40f,23,2022-02-12_16h51.52.845,lexical_decision_task_DD_L6,2021.2.3,MacIntel,59.99880002,,,,,,,,,,,,0.6229,1,,,,,,,,,,,,,,m,1,0.6229,,,,,,,,-0.038498264,-0.392526042,0,0,0,,0,155,155,67,1,POKER,C,m,m,./images/POKER.png,,,,,,,,,,,,,,,,,,,,,,,,,,,,,,,,,,
,,,,,,,,,,,,,,,,,610aefc141c6a35dd05bb40f,23,2022-02-12_16h51.52.845,lexical_decision_task_DD_L6,2021.2.3,MacIntel,59.99880002,,,,,,,,,,,,0.73,1,,,,,,,,,,,,,,m,1,0.73,,,,,,,,-0.038498264,-0.392526042,0,0,0,,0,156,156,23,1,CLOTH,HB,m,m,./images/CLOTHHB.png,,,,,,,,,,,,,,,,,,,,,,,,,,,,,,,,,,
,,,,,,,,,,,,,,,,,610aefc141c6a35dd05bb40f,23,2022-02-12_16h51.52.845,lexical_decision_task_DD_L6,2021.2.3,MacIntel,59.99880002,,,,,,,,,,,,0.6463,1,,,,,,,,,,,,,,z,1,0.6463,,,,,,,,-0.038498264,-0.392526042,0,0,0,,0,157,157,146,1,MOOST,LB,z,z,./images/MOOSTLB.png,,,,,,,,,,,,,,,,,,,,,,,,,,,,,,,,,,
,,,,,,,,,,,,,,,,,610aefc141c6a35dd05bb40f,23,2022-02-12_16h51.52.845,lexical_decision_task_DD_L6,2021.2.3,MacIntel,59.99880002,,,,,,,,,,,,0.5621,1,,,,,,,,,,,,,,m,1,0.5621,,,,,,,,-0.038498264,-0.392526042,0,0,0,,0,158,158,46,1,MUMMY,C,m,m,./images/MUMMY.png,,,,,,,,,,,,,,,,,,,,,,,,,,,,,,,,,,
,,,,,,,,,,,,,,,,,610aefc141c6a35dd05bb40f,23,2022-02-12_16h51.52.845,lexical_decision_task_DD_L6,2021.2.3,MacIntel,59.99880002,,,,,,,,,,,,0.6655,1,,,,,,,,,,,,,,m,1,0.6655,,,,,,,,-0.038498264,-0.392526042,0,0,0,,0,159,159,32,1,HOCKEY,HB,m,m,./images/HOCKEYHB.png,,,,,,,,,,,,,,,,,,,,,,,,,,,,,,,,,,
,,,,,,,,,,,,,,,,,610aefc141c6a35dd05bb40f,23,2022-02-12_16h51.52.845,lexical_decision_task_DD_L6,2021.2.3,MacIntel,59.99880002,,,,,,,,,,,,0.7144,1,,,,,,,,,,,,,,z,1,0.7144,,,,,,,,-0.038498264,-0.392526042,0,0,0,,0,160,160,148,1,JOMS,HB,z,z,./images/JOMSHB.png,,,,,,,,,,,,,,,,,,,,,,,,,,,,,,,,,,
,,,,,,,,,,,,,,,,,610aefc141c6a35dd05bb40f,23,2022-02-12_16h51.52.845,lexical_decision_task_DD_L6,2021.2.3,MacIntel,59.99880002,,,,,,,,,,,,0.5983,1,,,,,,,,,,,,,,m,1,0.5983,,,,,,,,-0.038498264,-0.392526042,0,0,0,,0,161,161,1,1,TOWEL,C,m,m,./images/TOWEL.png,,,,,,,,,,,,,,,,,,,,,,,,,,,,,,,,,,
,,,,,,,,,,,,,,,,,610aefc141c6a35dd05bb40f,23,2022-02-12_16h51.52.845,lexical_decision_task_DD_L6,2021.2.3,MacIntel,59.99880002,,,,,,,,,,,,0.9662,1,,,,,,,,,,,,,,z,1,0.9662,,,,,,,,-0.038498264,-0.392526042,0,0,0,,0,162,162,121,1,CEERS,HB,z,z,./images/CEERSHB.png,,,,,,,,,,,,,,,,,,,,,,,,,,,,,,,,,,
,,,,,,,,,,,,,,,,,610aefc141c6a35dd05bb40f,23,2022-02-12_16h51.52.845,lexical_decision_task_DD_L6,2021.2.3,MacIntel,59.99880002,,,,,,,,,,,,0.5528,1,,,,,,,,,,,,,,m,1,0.5528,,,,,,,,-0.038498264,-0.392526042,0,0,0,,0,163,163,28,1,CASINO,C,m,m,./images/CASINO.png,,,,,,,,,,,,,,,,,,,,,,,,,,,,,,,,,,
,,,,,,,,,,,,,,,,,610aefc141c6a35dd05bb40f,23,2022-02-12_16h51.52.845,lexical_decision_task_DD_L6,2021.2.3,MacIntel,59.99880002,,,,,,,,,,,,0.8301,1,,,,,,,,,,,,,,z,1,0.8301,,,,,,,,-0.038498264,-0.392526042,0,0,0,,0,164,164,88,1,GLUSH,HB,z,z,./images/GLUSHHB.png,,,,,,,,,,,,,,,,,,,,,,,,,,,,,,,,,,
,,,,,,,,,,,,,,,,,610aefc141c6a35dd05bb40f,23,2022-02-12_16h51.52.845,lexical_decision_task_DD_L6,2021.2.3,MacIntel,59.99880002,,,,,,,,,,,,0.5682,1,,,,,,,,,,,,,,z,1,0.5682,,,,,,,,-0.038498264,-0.392526042,0,0,0,,0,165,165,96,1,KEAMS,C,z,z,./images/KEAMS.png,,,,,,,,,,,,,,,,,,,,,,,,,,,,,,,,,,
,,,,,,,,,,,,,,,,,610aefc141c6a35dd05bb40f,23,2022-02-12_16h51.52.845,lexical_decision_task_DD_L6,2021.2.3,MacIntel,59.99880002,,,,,,,,,,,,0.7206,1,,,,,,,,,,,,,,m,1,0.7206,,,,,,,,-0.038498264,-0.392526042,0,0,0,,0,166,166,60,1,CURRY,LB,m,m,./images/CURRYLB.png,,,,,,,,,,,,,,,,,,,,,,,,,,,,,,,,,,
,,,,,,,,,,,,,,,,,610aefc141c6a35dd05bb40f,23,2022-02-12_16h51.52.845,lexical_decision_task_DD_L6,2021.2.3,MacIntel,59.99880002,,,,,,,,,,,,0.7117,1,,,,,,,,,,,,,,m,1,0.7117,,,,,,,,-0.038498264,-0.392526042,0,0,0,,0,167,167,77,1,WHEEL,HB,m,m,./images/WHEELHB.png,,,,,,,,,,,,,,,,,,,,,,,,,,,,,,,,,,
,,,,,,,,,,,,,,,,,610aefc141c6a35dd05bb40f,23,2022-02-12_16h51.52.845,lexical_decision_task_DD_L6,2021.2.3,MacIntel,59.99880002,,,,,,,,,,,,,,,,,,,,,,,,,,,,,,,,,,,,,,,,,,,,,,,,,How likely will it be that you will recognize the words presented slighly blurred on a scale of 0 (not likely) to 100 (most likely)?,,,,,0.007387153,-0.38671875,1,0,0,jol_adv,5,6.2844,0,0,0,1,1,,,,,,,,,,,,,,,,,,,,
,,,,,,,,,,,,,,,,,610aefc141c6a35dd05bb40f,23,2022-02-12_16h51.52.845,lexical_decision_task_DD_L6,2021.2.3,MacIntel,59.99880002,,,,,,,,,,,,,,,,,,,,,,,,,,,,,,,,,,,,,,,,,,,,,,,,,How likely will it be that you will recognize the words presented clearly on a scale of 0 (not likely) to 100 (most likely)?,,,,,,,,,,,6,4.4467,0,1,1,0,1,,,,,,,,,,,,,,,,,,,,
,,,,,,,,,,,,,,,,,610aefc141c6a35dd05bb40f,23,2022-02-12_16h51.52.845,lexical_decision_task_DD_L6,2021.2.3,MacIntel,59.99880002,,,,,,,,,,,,,,,,,,,,,,,,,,,,,,,,,,,,,,,,,,,,,,,,,How likely will it be that you will recognize the words presented very blurred on a scale of 0 (not likely) to 100 (most likely)?,,,,,,,,,,,4,4.8474,0,2,2,2,1,,,,,,,,,,,,,,,,,,,,
space,0.057899306,-0.290373264,0,0,0,,,,,,,1,test,"In the next phase you will be presented with the words from the the first phase. Your job is to decide whether you remember seeing the word or not. If you remember seeing the word press ""old"" or type ""m"". If you do not remember seeing the word press ""new"" or type ""z"". Please press the space bar or click on continue to begin. ",,,610aefc141c6a35dd05bb40f,23,2022-02-12_16h51.52.845,lexical_decision_task_DD_L6,2021.2.3,MacIntel,59.99880002,11.8266,,,,,,,,,,,,,,,,,,,,,,,,,,,,,,,,,,,,,,,,,,,,,,,,,,,,,,,,,,,,,,,,,,0,0,0,0,1,,,,,,,,,,,,,,,
space,0.057899306,-0.290373264,0,0,0,,,,,,,1,test,"In the next phase you will be presented with the words from the the first phase. Your job is to decide whether you remember seeing the word or not. If you remember seeing the word press ""old"" or type ""m"". If you do not remember seeing the word press ""new"" or type ""z"". Please press the space bar or click on continue to begin. ",,,610aefc141c6a35dd05bb40f,23,2022-02-12_16h51.52.845,lexical_decision_task_DD_L6,2021.2.3,MacIntel,59.99880002,14.141,,,,,,,,,,,,,,,,,,,,,,,,,,,,,,,,,,,,,,,,,,,,,,,,,,,,,,,,,,,,,,,,,,1,0,1,0,1,,,,,,,,,,,,,,,
space,0.057899306,-0.290373264,0,0,0,,,,,,,1,test,"In the next phase you will be presented with the words from the the first phase. Your job is to decide whether you remember seeing the word or not. If you remember seeing the word press ""old"" or type ""m"". If you do not remember seeing the word press ""new"" or type ""z"". Please press the space bar or click on continue to begin. ",,,610aefc141c6a35dd05bb40f,23,2022-02-12_16h51.52.845,lexical_decision_task_DD_L6,2021.2.3,MacIntel,59.99880002,1.1225,,,,,,,,,,,,,,,,,,,,,,,,,,,,,,,,,,,,,,,,,,,,,,,,,,,,,,,,,,,,,,,,,,2,0,2,0,1,,,,,,,,,,,,,,,
,0.023736979,-0.395811632,1,0,0,instr_done_button,,,,,,1,test,"In the next phase you will be presented with the words from the the first phase. Your job is to decide whether you remember seeing the word or not. If you remember seeing the word press ""old"" or type ""m"". If you do not remember seeing the word press ""new"" or type ""z"". Please press the space bar or click on continue to begin. ",,,610aefc141c6a35dd05bb40f,23,2022-02-12_16h51.52.845,lexical_decision_task_DD_L6,2021.2.3,MacIntel,59.99880002,,,,,,,,,,,,,,,,,,,,,,,,,,,,,,,,,,,,,,,,,,,,,,,,,,,,,,,,,,,,,,,,,,,3,0,3,0,1,,,,,,,,,,,,,,,
space,-0.447819922,0.278923379,0,0,0,,,,,,,1,test,"In the next phase you will be presented with the words from the the first phase. Your job is to decide whether you remember seeing the word or not. If you remember seeing the word press ""old"" or type ""m"". If you do not remember seeing the word press ""new"" or type ""z"". Please press the space bar or click on continue to begin. ",,,610aefc141c6a35dd05bb40f,23,2022-02-12_16h51.52.845,lexical_decision_task_DD_L6,2021.2.3,MacIntel,59.99880002,6.4576,,,,,,,,,,,,,,,,,,,,,,,,,,,,,,,,,,,,,,,,,,,,,,,,,,,,,,,,,,,,,,,,,,4,0,4,0,1,,,,,,,,,,,,,,,
,,,,,,,,,,,,,,,,,610aefc141c6a35dd05bb40f,23,2022-02-12_16h51.52.845,lexical_decision_task_DD_L6,2021.2.3,MacIntel,59.99880002,,,,,,,,,,,,1.9838,1,,,,,,,,,,,,,,,,,,,,,,,,-0.447819922,0.278923379,0,0,0,,,,,,,MUMMY,C,m,y,./images/MUMMY.png,,,,,,,,,,,,,,,,,,,,m,1,1.9838,,,,,,,,0,0,0,46,1
,,,,,,,,,,,,,,,,,610aefc141c6a35dd05bb40f,23,2022-02-12_16h51.52.845,lexical_decision_task_DD_L6,2021.2.3,MacIntel,59.99880002,,,,,,,,,,,,1.2352,1,,,,,,,,,,,,,,,,,,,,,,,,-0.447819922,0.278923379,0,0,0,,,,,,,FALCON,C,z,y,./images/FALCON.png,,,,,,,,,,,,,,,,,,,,z,1,1.2352,,,,,,,,0,1,1,112,1
,,,,,,,,,,,,,,,,,610aefc141c6a35dd05bb40f,23,2022-02-12_16h51.52.845,lexical_decision_task_DD_L6,2021.2.3,MacIntel,59.99880002,,,,,,,,,,,,1.2903,1,,,,,,,,,,,,,,,,,,,,,,,,-0.447819922,0.278923379,0,0,0,,,,,,,POKER,C,m,y,./images/POKER.png,,,,,,,,,,,,,,,,,,,,m,1,1.2903,,,,,,,,0,2,2,67,1
,,,,,,,,,,,,,,,,,610aefc141c6a35dd05bb40f,23,2022-02-12_16h51.52.845,lexical_decision_task_DD_L6,2021.2.3,MacIntel,59.99880002,,,,,,,,,,,,0.7599,1,,,,,,,,,,,,,,,,,,,,,,,,-0.447819922,0.278923379,0,0,0,,,,,,,ARTIST,C,m,y,./images/ARTIST.png,,,,,,,,,,,,,,,,,,,,m,1,0.7599,,,,,,,,0,3,3,61,1
,,,,,,,,,,,,,,,,,610aefc141c6a35dd05bb40f,23,2022-02-12_16h51.52.845,lexical_decision_task_DD_L6,2021.2.3,MacIntel,59.99880002,,,,,,,,,,,,1.2306,1,,,,,,,,,,,,,,,,,,,,,,,,-0.447819922,0.278923379,0,0,0,,,,,,,BURIAL,HB,z,y,./images/BURIALHB.png,,,,,,,,,,,,,,,,,,,,z,1,1.2306,,,,,,,,0,4,4,143,1
,,,,,,,,,,,,,,,,,610aefc141c6a35dd05bb40f,23,2022-02-12_16h51.52.845,lexical_decision_task_DD_L6,2021.2.3,MacIntel,59.99880002,,,,,,,,,,,,0.8455,1,,,,,,,,,,,,,,,,,,,,,,,,-0.447819922,0.278923379,0,0,0,,,,,,,WHISKY,HB,m,y,./images/WHISKYHB.png,,,,,,,,,,,,,,,,,,,,m,1,0.8455,,,,,,,,0,5,5,83,1
,,,,,,,,,,,,,,,,,610aefc141c6a35dd05bb40f,23,2022-02-12_16h51.52.845,lexical_decision_task_DD_L6,2021.2.3,MacIntel,59.99880002,,,,,,,,,,,,0.6878,0,,,,,,,,,,,,,,,,,,,,,,,,-0.447819922,0.278923379,0,0,0,,,,,,,SWING,C,z,y,./images/SWING.png,,,,,,,,,,,,,,,,,,,,m,0,0.6878,,,,,,,,0,6,6,124,1
,,,,,,,,,,,,,,,,,610aefc141c6a35dd05bb40f,23,2022-02-12_16h51.52.845,lexical_decision_task_DD_L6,2021.2.3,MacIntel,59.99880002,,,,,,,,,,,,0.8744,1,,,,,,,,,,,,,,,,,,,,,,,,-0.447819922,0.278923379,0,0,0,,,,,,,PIMPLE,HB,z,y,./images/PIMPLEHB.png,,,,,,,,,,,,,,,,,,,,z,1,0.8744,,,,,,,,0,7,7,155,1
,,,,,,,,,,,,,,,,,610aefc141c6a35dd05bb40f,23,2022-02-12_16h51.52.845,lexical_decision_task_DD_L6,2021.2.3,MacIntel,59.99880002,,,,,,,,,,,,0.7999,1,,,,,,,,,,,,,,,,,,,,,,,,-0.447819922,0.278923379,0,0,0,,,,,,,CLIFF,HB,m,y,./images/CLIFFHB.png,,,,,,,,,,,,,,,,,,,,m,1,0.7999,,,,,,,,0,8,8,8,1
,,,,,,,,,,,,,,,,,610aefc141c6a35dd05bb40f,23,2022-02-12_16h51.52.845,lexical_decision_task_DD_L6,2021.2.3,MacIntel,59.99880002,,,,,,,,,,,,0.8553,1,,,,,,,,,,,,,,,,,,,,,,,,-0.447819922,0.278923379,0,0,0,,,,,,,BERRY,HB,z,y,./images/BERRYHB.png,,,,,,,,,,,,,,,,,,,,z,1,0.8553,,,,,,,,0,9,9,131,1
,,,,,,,,,,,,,,,,,610aefc141c6a35dd05bb40f,23,2022-02-12_16h51.52.845,lexical_decision_task_DD_L6,2021.2.3,MacIntel,59.99880002,,,,,,,,,,,,1.3341,0,,,,,,,,,,,,,,,,,,,,,,,,-0.447819922,0.278923379,0,0,0,,,,,,,BOILER,LB,m,y,./images/BOILERLB.png,,,,,,,,,,,,,,,,,,,,z,0,1.3341,,,,,,,,0,10,10,36,1
,,,,,,,,,,,,,,,,,610aefc141c6a35dd05bb40f,23,2022-02-12_16h51.52.845,lexical_decision_task_DD_L6,2021.2.3,MacIntel,59.99880002,,,,,,,,,,,,1.4821,1,,,,,,,,,,,,,,,,,,,,,,,,-0.447819922,0.278923379,0,0,0,,,,,,,SAUNA,LB,m,y,./images/SAUNALB.png,,,,,,,,,,,,,,,,,,,,m,1,1.4821,,,,,,,,0,11,11,33,1
,,,,,,,,,,,,,,,,,610aefc141c6a35dd05bb40f,23,2022-02-12_16h51.52.845,lexical_decision_task_DD_L6,2021.2.3,MacIntel,59.99880002,,,,,,,,,,,,0.8177,1,,,,,,,,,,,,,,,,,,,,,,,,-0.447819922,0.278923379,0,0,0,,,,,,,CRUST,C,z,y,./images/CRUST.png,,,,,,,,,,,,,,,,,,,,z,1,0.8177,,,,,,,,0,12,12,163,1
,,,,,,,,,,,,,,,,,610aefc141c6a35dd05bb40f,23,2022-02-12_16h51.52.845,lexical_decision_task_DD_L6,2021.2.3,MacIntel,59.99880002,,,,,,,,,,,,0.6995,1,,,,,,,,,,,,,,,,,,,,,,,,-0.447819922,0.278923379,0,0,0,,,,,,,BIRTH,C,z,y,./images/BIRTH.png,,,,,,,,,,,,,,,,,,,,z,1,0.6995,,,,,,,,0,13,13,121,1
,,,,,,,,,,,,,,,,,610aefc141c6a35dd05bb40f,23,2022-02-12_16h51.52.845,lexical_decision_task_DD_L6,2021.2.3,MacIntel,59.99880002,,,,,,,,,,,,0.8814,0,,,,,,,,,,,,,,,,,,,,,,,,-0.447819922,0.278923379,0,0,0,,,,,,,ENGINE,HB,m,y,./images/ENGINEHB.png,,,,,,,,,,,,,,,,,,,,z,0,0.8814,,,,,,,,0,14,14,38,1
,,,,,,,,,,,,,,,,,610aefc141c6a35dd05bb40f,23,2022-02-12_16h51.52.845,lexical_decision_task_DD_L6,2021.2.3,MacIntel,59.99880002,,,,,,,,,,,,0.6157,0,,,,,,,,,,,,,,,,,,,,,,,,-0.447819922,0.278923379,0,0,0,,,,,,,STRING,HB,z,y,./images/STRINGHB.png,,,,,,,,,,,,,,,,,,,,m,0,0.6157,,,,,,,,0,15,15,125,1
,,,,,,,,,,,,,,,,,610aefc141c6a35dd05bb40f,23,2022-02-12_16h51.52.845,lexical_decision_task_DD_L6,2021.2.3,MacIntel,59.99880002,,,,,,,,,,,,0.6161,1,,,,,,,,,,,,,,,,,,,,,,,,-0.447819922,0.278923379,0,0,0,,,,,,,SNAKE,C,m,y,./images/SNAKE.png,,,,,,,,,,,,,,,,,,,,m,1,0.6161,,,,,,,,0,16,16,40,1
,,,,,,,,,,,,,,,,,610aefc141c6a35dd05bb40f,23,2022-02-12_16h51.52.845,lexical_decision_task_DD_L6,2021.2.3,MacIntel,59.99880002,,,,,,,,,,,,1.2649,0,,,,,,,,,,,,,,,,,,,,,,,,-0.447819922,0.278923379,0,0,0,,,,,,,BAMBOO,HB,m,y,./images/BAMBOOHB.png,,,,,,,,,,,,,,,,,,,,z,0,1.2649,,,,,,,,0,17,17,5,1
,,,,,,,,,,,,,,,,,610aefc141c6a35dd05bb40f,23,2022-02-12_16h51.52.845,lexical_decision_task_DD_L6,2021.2.3,MacIntel,59.99880002,,,,,,,,,,,,0.5991,1,,,,,,,,,,,,,,,,,,,,,,,,-0.447819922,0.278923379,0,0,0,,,,,,,CLOTH,HB,m,y,./images/CLOTHHB.png,,,,,,,,,,,,,,,,,,,,m,1,0.5991,,,,,,,,0,18,18,23,1
,,,,,,,,,,,,,,,,,610aefc141c6a35dd05bb40f,23,2022-02-12_16h51.52.845,lexical_decision_task_DD_L6,2021.2.3,MacIntel,59.99880002,,,,,,,,,,,,0.783,1,,,,,,,,,,,,,,,,,,,,,,,,-0.447819922,0.278923379,0,0,0,,,,,,,CHERRY,LB,m,y,./images/CHERRYLB.png,,,,,,,,,,,,,,,,,,,,m,1,0.783,,,,,,,,0,19,19,54,1
,,,,,,,,,,,,,,,,,610aefc141c6a35dd05bb40f,23,2022-02-12_16h51.52.845,lexical_decision_task_DD_L6,2021.2.3,MacIntel,59.99880002,,,,,,,,,,,,0.8848,1,,,,,,,,,,,,,,,,,,,,,,,,-0.447819922,0.278923379,0,0,0,,,,,,,FLESH,LB,m,y,./images/FLESHLB.png,,,,,,,,,,,,,,,,,,,,m,1,0.8848,,,,,,,,0,20,20,24,1
,,,,,,,,,,,,,,,,,610aefc141c6a35dd05bb40f,23,2022-02-12_16h51.52.845,lexical_decision_task_DD_L6,2021.2.3,MacIntel,59.99880002,,,,,,,,,,,,0.6708,0,,,,,,,,,,,,,,,,,,,,,,,,-0.447819922,0.278923379,0,0,0,,,,,,,CRUMB,HB,z,y,./images/CRUMBHB.png,,,,,,,,,,,,,,,,,,,,m,0,0.6708,,,,,,,,0,21,21,113,1
,,,,,,,,,,,,,,,,,610aefc141c6a35dd05bb40f,23,2022-02-12_16h51.52.845,lexical_decision_task_DD_L6,2021.2.3,MacIntel,59.99880002,,,,,,,,,,,,0.6644,1,,,,,,,,,,,,,,,,,,,,,,,,-0.447819922,0.278923379,0,0,0,,,,,,,CURRY,LB,m,y,./images/CURRYLB.png,,,,,,,,,,,,,,,,,,,,m,1,0.6644,,,,,,,,0,22,22,60,1
,,,,,,,,,,,,,,,,,610aefc141c6a35dd05bb40f,23,2022-02-12_16h51.52.845,lexical_decision_task_DD_L6,2021.2.3,MacIntel,59.99880002,,,,,,,,,,,,1.0498,1,,,,,,,,,,,,,,,,,,,,,,,,-0.447819922,0.278923379,0,0,0,,,,,,,PICKLE,HB,z,y,./images/PICKLEHB.png,,,,,,,,,,,,,,,,,,,,z,1,1.0498,,,,,,,,0,23,23,98,1
,,,,,,,,,,,,,,,,,610aefc141c6a35dd05bb40f,23,2022-02-12_16h51.52.845,lexical_decision_task_DD_L6,2021.2.3,MacIntel,59.99880002,,,,,,,,,,,,0.605,0,,,,,,,,,,,,,,,,,,,,,,,,-0.447819922,0.278923379,0,0,0,,,,,,,WRIST,C,z,y,./images/WRIST.png,,,,,,,,,,,,,,,,,,,,m,0,0.605,,,,,,,,0,24,24,109,1
,,,,,,,,,,,,,,,,,610aefc141c6a35dd05bb40f,23,2022-02-12_16h51.52.845,lexical_decision_task_DD_L6,2021.2.3,MacIntel,59.99880002,,,,,,,,,,,,0.8353,1,,,,,,,,,,,,,,,,,,,,,,,,-0.447819922,0.278923379,0,0,0,,,,,,,JUMPER,HB,m,y,./images/JUMPERHB.png,,,,,,,,,,,,,,,,,,,,m,1,0.8353,,,,,,,,0,25,25,74,1
,,,,,,,,,,,,,,,,,610aefc141c6a35dd05bb40f,23,2022-02-12_16h51.52.845,lexical_decision_task_DD_L6,2021.2.3,MacIntel,59.99880002,,,,,,,,,,,,0.5805,1,,,,,,,,,,,,,,,,,,,,,,,,-0.447819922,0.278923379,0,0,0,,,,,,,DIVER,LB,m,y,./images/DIVERLB.png,,,,,,,,,,,,,,,,,,,,m,1,0.5805,,,,,,,,0,26,26,9,1
,,,,,,,,,,,,,,,,,610aefc141c6a35dd05bb40f,23,2022-02-12_16h51.52.845,lexical_decision_task_DD_L6,2021.2.3,MacIntel,59.99880002,,,,,,,,,,,,0.6526,1,,,,,,,,,,,,,,,,,,,,,,,,-0.447819922,0.278923379,0,0,0,,,,,,,STATUE,LB,m,y,./images/STATUELB.png,,,,,,,,,,,,,,,,,,,,m,1,0.6526,,,,,,,,0,27,27,66,1
,,,,,,,,,,,,,,,,,610aefc141c6a35dd05bb40f,23,2022-02-12_16h51.52.845,lexical_decision_task_DD_L6,2021.2.3,MacIntel,59.99880002,,,,,,,,,,,,0.686,1,,,,,,,,,,,,,,,,,,,,,,,,-0.447819922,0.278923379,0,0,0,,,,,,,ONION,LB,z,y,./images/ONIONLB.png,,,,,,,,,,,,,,,,,,,,z,1,0.686,,,,,,,,0,28,28,135,1
,,,,,,,,,,,,,,,,,610aefc141c6a35dd05bb40f,23,2022-02-12_16h51.52.845,lexical_decision_task_DD_L6,2021.2.3,MacIntel,59.99880002,,,,,,,,,,,,0.906,0,,,,,,,,,,,,,,,,,,,,,,,,-0.447819922,0.278923379,0,0,0,,,,,,,DRILL,LB,m,y,./images/DRILLLB.png,,,,,,,,,,,,,,,,,,,,z,0,0.906,,,,,,,,0,29,29,81,1
,,,,,,,,,,,,,,,,,610aefc141c6a35dd05bb40f,23,2022-02-12_16h51.52.845,lexical_decision_task_DD_L6,2021.2.3,MacIntel,59.99880002,,,,,,,,,,,,0.9486,1,,,,,,,,,,,,,,,,,,,,,,,,-0.447819922,0.278923379,0,0,0,,,,,,,TOMATO,LB,z,y,./images/TOMATOLB.png,,,,,,,,,,,,,,,,,,,,z,1,0.9486,,,,,,,,0,30,30,84,1
,,,,,,,,,,,,,,,,,610aefc141c6a35dd05bb40f,23,2022-02-12_16h51.52.845,lexical_decision_task_DD_L6,2021.2.3,MacIntel,59.99880002,,,,,,,,,,,,0.5822,0,,,,,,,,,,,,,,,,,,,,,,,,-0.447819922,0.278923379,0,0,0,,,,,,,SHORE,LB,z,y,./images/SHORELB.png,,,,,,,,,,,,,,,,,,,,m,0,0.5822,,,,,,,,0,31,31,96,1
,,,,,,,,,,,,,,,,,610aefc141c6a35dd05bb40f,23,2022-02-12_16h51.52.845,lexical_decision_task_DD_L6,2021.2.3,MacIntel,59.99880002,,,,,,,,,,,,0.7827,1,,,,,,,,,,,,,,,,,,,,,,,,-0.447819922,0.278923379,0,0,0,,,,,,,MAGGOT,LB,z,y,./images/MAGGOTLB.png,,,,,,,,,,,,,,,,,,,,z,1,0.7827,,,,,,,,0,32,32,117,1
,,,,,,,,,,,,,,,,,610aefc141c6a35dd05bb40f,23,2022-02-12_16h51.52.845,lexical_decision_task_DD_L6,2021.2.3,MacIntel,59.99880002,,,,,,,,,,,,0.8154,1,,,,,,,,,,,,,,,,,,,,,,,,-0.447819922,0.278923379,0,0,0,,,,,,,GRAIN,LB,z,y,./images/GRAINLB.png,,,,,,,,,,,,,,,,,,,,z,1,0.8154,,,,,,,,0,33,33,159,1
,,,,,,,,,,,,,,,,,610aefc141c6a35dd05bb40f,23,2022-02-12_16h51.52.845,lexical_decision_task_DD_L6,2021.2.3,MacIntel,59.99880002,,,,,,,,,,,,1.0495,0,,,,,,,,,,,,,,,,,,,,,,,,-0.447819922,0.278923379,0,0,0,,,,,,,PEACH,HB,z,y,./images/PEACHHB.png,,,,,,,,,,,,,,,,,,,,m,0,1.0495,,,,,,,,0,34,34,119,1
,,,,,,,,,,,,,,,,,610aefc141c6a35dd05bb40f,23,2022-02-12_16h51.52.845,lexical_decision_task_DD_L6,2021.2.3,MacIntel,59.99880002,,,,,,,,,,,,0.5363,1,,,,,,,,,,,,,,,,,,,,,,,,-0.447819922,0.278923379,0,0,0,,,,,,,GLOVE,C,m,y,./images/GLOVE.png,,,,,,,,,,,,,,,,,,,,m,1,0.5363,,,,,,,,0,35,35,73,1
,,,,,,,,,,,,,,,,,610aefc141c6a35dd05bb40f,23,2022-02-12_16h51.52.845,lexical_decision_task_DD_L6,2021.2.3,MacIntel,59.99880002,,,,,,,,,,,,1.0241,0,,,,,,,,,,,,,,,,,,,,,,,,-0.447819922,0.278923379,0,0,0,,,,,,,KITTEN,LB,z,y,./images/KITTENLB.png,,,,,,,,,,,,,,,,,,,,m,0,1.0241,,,,,,,,0,36,36,129,1
,,,,,,,,,,,,,,,,,610aefc141c6a35dd05bb40f,23,2022-02-12_16h51.52.845,lexical_decision_task_DD_L6,2021.2.3,MacIntel,59.99880002,,,,,,,,,,,,1.4,1,,,,,,,,,,,,,,,,,,,,,,,,-0.447819922,0.278923379,0,0,0,,,,,,,MEDAL,HB,m,y,./images/MEDALHB.png,,,,,,,,,,,,,,,,,,,,m,1,1.4,,,,,,,,0,37,37,11,1
,,,,,,,,,,,,,,,,,610aefc141c6a35dd05bb40f,23,2022-02-12_16h51.52.845,lexical_decision_task_DD_L6,2021.2.3,MacIntel,59.99880002,,,,,,,,,,,,1.1668,1,,,,,,,,,,,,,,,,,,,,,,,,-0.447819922,0.278923379,0,0,0,,,,,,,JAGUAR,LB,z,y,./images/JAGUARLB.png,,,,,,,,,,,,,,,,,,,,z,1,1.1668,,,,,,,,0,38,38,102,1
,,,,,,,,,,,,,,,,,610aefc141c6a35dd05bb40f,23,2022-02-12_16h51.52.845,lexical_decision_task_DD_L6,2021.2.3,MacIntel,59.99880002,,,,,,,,,,,,0.7474,0,,,,,,,,,,,,,,,,,,,,,,,,-0.447819922,0.278923379,0,0,0,,,,,,,CARPET,HB,z,y,./images/CARPETHB.png,,,,,,,,,,,,,,,,,,,,m,0,0.7474,,,,,,,,0,39,39,137,1
,,,,,,,,,,,,,,,,,610aefc141c6a35dd05bb40f,23,2022-02-12_16h51.52.845,lexical_decision_task_DD_L6,2021.2.3,MacIntel,59.99880002,,,,,,,,,,,,0.5638,0,,,,,,,,,,,,,,,,,,,,,,,,-0.447819922,0.278923379,0,0,0,,,,,,,SHELF,LB,z,y,./images/SHELFLB.png,,,,,,,,,,,,,,,,,,,,m,0,0.5638,,,,,,,,0,40,40,123,1
,,,,,,,,,,,,,,,,,610aefc141c6a35dd05bb40f,23,2022-02-12_16h51.52.845,lexical_decision_task_DD_L6,2021.2.3,MacIntel,59.99880002,,,,,,,,,,,,1.6181,0,,,,,,,,,,,,,,,,,,,,,,,,-0.447819922,0.278923379,0,0,0,space,,,,,,JUNGLE,HB,z,y,./images/JUNGLEHB.png,6.3722,,,,,,,,,,,,,,,,,,,m,0,1.6181,,,,,,,,0,41,41,167,1
,,,,,,,,,,,,,,,,,610aefc141c6a35dd05bb40f,23,2022-02-12_16h51.52.845,lexical_decision_task_DD_L6,2021.2.3,MacIntel,59.99880002,,,,,,,,,,,,1.7009,1,,,,,,,,,,,,,,,,,,,,,,,,-0.447819922,0.278923379,0,0,0,,,,,,,WAGON,C,m,y,./images/WAGON.png,,,,,,,,,,,,,,,,,,,,m,1,1.7009,,,,,,,,0,42,42,7,1
,,,,,,,,,,,,,,,,,610aefc141c6a35dd05bb40f,23,2022-02-12_16h51.52.845,lexical_decision_task_DD_L6,2021.2.3,MacIntel,59.99880002,,,,,,,,,,,,0.7915,1,,,,,,,,,,,,,,,,,,,,,,,,-0.447819922,0.278923379,0,0,0,,,,,,,INFANT,C,z,y,./images/INFANT.png,,,,,,,,,,,,,,,,,,,,z,1,0.7915,,,,,,,,0,43,43,160,1
,,,,,,,,,,,,,,,,,610aefc141c6a35dd05bb40f,23,2022-02-12_16h51.52.845,lexical_decision_task_DD_L6,2021.2.3,MacIntel,59.99880002,,,,,,,,,,,,0.7827,1,,,,,,,,,,,,,,,,,,,,,,,,-0.447819922,0.278923379,0,0,0,,,,,,,BEARD,HB,z,y,./images/BEARDHB.png,,,,,,,,,,,,,,,,,,,,z,1,0.7827,,,,,,,,0,44,44,86,1
,,,,,,,,,,,,,,,,,610aefc141c6a35dd05bb40f,23,2022-02-12_16h51.52.845,lexical_decision_task_DD_L6,2021.2.3,MacIntel,59.99880002,,,,,,,,,,,,0.5663,1,,,,,,,,,,,,,,,,,,,,,,,,-0.447819922,0.278923379,0,0,0,,,,,,,STOVE,HB,m,y,./images/STOVEHB.png,,,,,,,,,,,,,,,,,,,,m,1,0.5663,,,,,,,,0,45,45,2,1
,,,,,,,,,,,,,,,,,610aefc141c6a35dd05bb40f,23,2022-02-12_16h51.52.845,lexical_decision_task_DD_L6,2021.2.3,MacIntel,59.99880002,,,,,,,,,,,,1.0132,0,,,,,,,,,,,,,,,,,,,,,,,,-0.447819922,0.278923379,0,0,0,,,,,,,ALLEY,C,m,y,./images/ALLEY.png,,,,,,,,,,,,,,,,,,,,z,0,1.0132,,,,,,,,0,46,46,55,1
,,,,,,,,,,,,,,,,,610aefc141c6a35dd05bb40f,23,2022-02-12_16h51.52.845,lexical_decision_task_DD_L6,2021.2.3,MacIntel,59.99880002,,,,,,,,,,,,1.233,1,,,,,,,,,,,,,,,,,,,,,,,,-0.447819922,0.278923379,0,0,0,,,,,,,STAIN,LB,m,y,./images/STAINLB.png,,,,,,,,,,,,,,,,,,,,m,1,1.233,,,,,,,,0,47,47,6,1
,,,,,,,,,,,,,,,,,610aefc141c6a35dd05bb40f,23,2022-02-12_16h51.52.845,lexical_decision_task_DD_L6,2021.2.3,MacIntel,59.99880002,,,,,,,,,,,,0.896,1,,,,,,,,,,,,,,,,,,,,,,,,-0.447819922,0.278923379,0,0,0,,,,,,,GRAPE,C,m,y,./images/GRAPE.png,,,,,,,,,,,,,,,,,,,,m,1,0.896,,,,,,,,0,48,48,16,1
,,,,,,,,,,,,,,,,,610aefc141c6a35dd05bb40f,23,2022-02-12_16h51.52.845,lexical_decision_task_DD_L6,2021.2.3,MacIntel,59.99880002,,,,,,,,,,,,0.6642,0,,,,,,,,,,,,,,,,,,,,,,,,-0.447819922,0.278923379,0,0,0,,,,,,,LADDER,HB,z,y,./images/LADDERHB.png,,,,,,,,,,,,,,,,,,,,m,0,0.6642,,,,,,,,0,49,49,122,1
,,,,,,,,,,,,,,,,,610aefc141c6a35dd05bb40f,23,2022-02-12_16h51.52.845,lexical_decision_task_DD_L6,2021.2.3,MacIntel,59.99880002,,,,,,,,,,,,0.7238,0,,,,,,,,,,,,,,,,,,,,,,,,-0.447819922,0.278923379,0,0,0,,,,,,,GREASE,LB,z,y,./images/GREASELB.png,,,,,,,,,,,,,,,,,,,,m,0,0.7238,,,,,,,,0,50,50,99,1
,,,,,,,,,,,,,,,,,610aefc141c6a35dd05bb40f,23,2022-02-12_16h51.52.845,lexical_decision_task_DD_L6,2021.2.3,MacIntel,59.99880002,,,,,,,,,,,,0.8297,1,,,,,,,,,,,,,,,,,,,,,,,,-0.447819922,0.278923379,0,0,0,,,,,,,RULER,C,m,y,./images/RULER.png,,,,,,,,,,,,,,,,,,,,m,1,0.8297,,,,,,,,0,51,51,79,1
,,,,,,,,,,,,,,,,,610aefc141c6a35dd05bb40f,23,2022-02-12_16h51.52.845,lexical_decision_task_DD_L6,2021.2.3,MacIntel,59.99880002,,,,,,,,,,,,0.9658,1,,,,,,,,,,,,,,,,,,,,,,,,-0.447819922,0.278923379,0,0,0,,,,,,,URINE,C,z,y,./images/URINE.png,,,,,,,,,,,,,,,,,,,,z,1,0.9658,,,,,,,,0,52,52,154,1
,,,,,,,,,,,,,,,,,610aefc141c6a35dd05bb40f,23,2022-02-12_16h51.52.845,lexical_decision_task_DD_L6,2021.2.3,MacIntel,59.99880002,,,,,,,,,,,,0.6476,0,,,,,,,,,,,,,,,,,,,,,,,,-0.447819922,0.278923379,0,0,0,,,,,,,BARREL,HB,z,y,./images/BARRELHB.png,,,,,,,,,,,,,,,,,,,,m,0,0.6476,,,,,,,,0,53,53,116,1
,,,,,,,,,,,,,,,,,610aefc141c6a35dd05bb40f,23,2022-02-12_16h51.52.845,lexical_decision_task_DD_L6,2021.2.3,MacIntel,59.99880002,,,,,,,,,,,,0.6377,1,,,,,,,,,,,,,,,,,,,,,,,,-0.447819922,0.278923379,0,0,0,,,,,,,MIDGET,C,m,y,./images/MIDGET.png,,,,,,,,,,,,,,,,,,,,m,1,0.6377,,,,,,,,0,54,54,76,1
,,,,,,,,,,,,,,,,,610aefc141c6a35dd05bb40f,23,2022-02-12_16h51.52.845,lexical_decision_task_DD_L6,2021.2.3,MacIntel,59.99880002,,,,,,,,,,,,0.6719,1,,,,,,,,,,,,,,,,,,,,,,,,-0.447819922,0.278923379,0,0,0,,,,,,,STREAM,HB,m,y,./images/STREAMHB.png,,,,,,,,,,,,,,,,,,,,m,1,0.6719,,,,,,,,0,55,55,41,1
,,,,,,,,,,,,,,,,,610aefc141c6a35dd05bb40f,23,2022-02-12_16h51.52.845,lexical_decision_task_DD_L6,2021.2.3,MacIntel,59.99880002,,,,,,,,,,,,0.6157,1,,,,,,,,,,,,,,,,,,,,,,,,-0.447819922,0.278923379,0,0,0,,,,,,,STOOL,C,m,y,./images/STOOL.png,,,,,,,,,,,,,,,,,,,,m,1,0.6157,,,,,,,,0,56,56,43,1
,,,,,,,,,,,,,,,,,610aefc141c6a35dd05bb40f,23,2022-02-12_16h51.52.845,lexical_decision_task_DD_L6,2021.2.3,MacIntel,59.99880002,,,,,,,,,,,,0.6862,1,,,,,,,,,,,,,,,,,,,,,,,,-0.447819922,0.278923379,0,0,0,,,,,,,MONKEY,LB,m,y,./images/MONKEYLB.png,,,,,,,,,,,,,,,,,,,,m,1,0.6862,,,,,,,,0,57,57,45,1
,,,,,,,,,,,,,,,,,610aefc141c6a35dd05bb40f,23,2022-02-12_16h51.52.845,lexical_decision_task_DD_L6,2021.2.3,MacIntel,59.99880002,,,,,,,,,,,,0.8045,1,,,,,,,,,,,,,,,,,,,,,,,,-0.447819922,0.278923379,0,0,0,,,,,,,PEARL,C,z,y,./images/PEARL.png,,,,,,,,,,,,,,,,,,,,z,1,0.8045,,,,,,,,0,58,58,130,1
,,,,,,,,,,,,,,,,,610aefc141c6a35dd05bb40f,23,2022-02-12_16h51.52.845,lexical_decision_task_DD_L6,2021.2.3,MacIntel,59.99880002,,,,,,,,,,,,0.8099,1,,,,,,,,,,,,,,,,,,,,,,,,-0.447819922,0.278923379,0,0,0,,,,,,,SLOPE,LB,m,y,./images/SLOPELB.png,,,,,,,,,,,,,,,,,,,,m,1,0.8099,,,,,,,,0,59,59,30,1
,,,,,,,,,,,,,,,,,610aefc141c6a35dd05bb40f,23,2022-02-12_16h51.52.845,lexical_decision_task_DD_L6,2021.2.3,MacIntel,59.99880002,,,,,,,,,,,,0.6881,0,,,,,,,,,,,,,,,,,,,,,,,,-0.447819922,0.278923379,0,0,0,,,,,,,PURSE,HB,z,y,./images/PURSEHB.png,,,,,,,,,,,,,,,,,,,,m,0,0.6881,,,,,,,,0,60,60,146,1
,,,,,,,,,,,,,,,,,610aefc141c6a35dd05bb40f,23,2022-02-12_16h51.52.845,lexical_decision_task_DD_L6,2021.2.3,MacIntel,59.99880002,,,,,,,,,,,,0.9795,1,,,,,,,,,,,,,,,,,,,,,,,,-0.447819922,0.278923379,0,0,0,,,,,,,BUBBLE,HB,m,y,./images/BUBBLEHB.png,,,,,,,,,,,,,,,,,,,,m,1,0.9795,,,,,,,,0,61,61,71,1
,,,,,,,,,,,,,,,,,610aefc141c6a35dd05bb40f,23,2022-02-12_16h51.52.845,lexical_decision_task_DD_L6,2021.2.3,MacIntel,59.99880002,,,,,,,,,,,,0.622,0,,,,,,,,,,,,,,,,,,,,,,,,-0.447819922,0.278923379,0,0,0,,,,,,,FOLDER,LB,z,y,./images/FOLDERLB.png,,,,,,,,,,,,,,,,,,,,m,0,0.622,,,,,,,,0,62,62,126,1
,,,,,,,,,,,,,,,,,610aefc141c6a35dd05bb40f,23,2022-02-12_16h51.52.845,lexical_decision_task_DD_L6,2021.2.3,MacIntel,59.99880002,,,,,,,,,,,,1.4302,0,,,,,,,,,,,,,,,,,,,,,,,,-0.447819922,0.278923379,0,0,0,,,,,,,CANDY,LB,m,y,./images/CANDYLB.png,,,,,,,,,,,,,,,,,,,,z,0,1.4302,,,,,,,,0,63,63,39,1
,,,,,,,,,,,,,,,,,610aefc141c6a35dd05bb40f,23,2022-02-12_16h51.52.845,lexical_decision_task_DD_L6,2021.2.3,MacIntel,59.99880002,,,,,,,,,,,,0.7541,1,,,,,,,,,,,,,,,,,,,,,,,,-0.447819922,0.278923379,0,0,0,,,,,,,PARADE,HB,m,y,./images/PARADEHB.png,,,,,,,,,,,,,,,,,,,,m,1,0.7541,,,,,,,,0,64,64,17,1
,,,,,,,,,,,,,,,,,610aefc141c6a35dd05bb40f,23,2022-02-12_16h51.52.845,lexical_decision_task_DD_L6,2021.2.3,MacIntel,59.99880002,,,,,,,,,,,,0.8527,0,,,,,,,,,,,,,,,,,,,,,,,,-0.447819922,0.278923379,0,0,0,,,,,,,BROOM,LB,m,y,./images/BROOMLB.png,,,,,,,,,,,,,,,,,,,,z,0,0.8527,,,,,,,,0,65,65,78,1
,,,,,,,,,,,,,,,,,610aefc141c6a35dd05bb40f,23,2022-02-12_16h51.52.845,lexical_decision_task_DD_L6,2021.2.3,MacIntel,59.99880002,,,,,,,,,,,,1.6965,0,,,,,,,,,,,,,,,,,,,,,,,,-0.447819922,0.278923379,0,0,0,,,,,,,RHINO,LB,z,y,./images/RHINOLB.png,,,,,,,,,,,,,,,,,,,,m,0,1.6965,,,,,,,,0,66,66,93,1
,,,,,,,,,,,,,,,,,610aefc141c6a35dd05bb40f,23,2022-02-12_16h51.52.845,lexical_decision_task_DD_L6,2021.2.3,MacIntel,59.99880002,,,,,,,,,,,,0.6816,0,,,,,,,,,,,,,,,,,,,,,,,,-0.447819922,0.278923379,0,0,0,,,,,,,BANNER,C,z,y,./images/BANNER.png,,,,,,,,,,,,,,,,,,,,m,0,0.6816,,,,,,,,0,67,67,136,1
,,,,,,,,,,,,,,,,,610aefc141c6a35dd05bb40f,23,2022-02-12_16h51.52.845,lexical_decision_task_DD_L6,2021.2.3,MacIntel,59.99880002,,,,,,,,,,,,0.6808,1,,,,,,,,,,,,,,,,,,,,,,,,-0.447819922,0.278923379,0,0,0,,,,,,,LITTER,LB,z,y,./images/LITTERLB.png,,,,,,,,,,,,,,,,,,,,z,1,0.6808,,,,,,,,0,68,68,162,1
,,,,,,,,,,,,,,,,,610aefc141c6a35dd05bb40f,23,2022-02-12_16h51.52.845,lexical_decision_task_DD_L6,2021.2.3,MacIntel,59.99880002,,,,,,,,,,,,0.68,1,,,,,,,,,,,,,,,,,,,,,,,,-0.447819922,0.278923379,0,0,0,,,,,,,DESERT,C,m,y,./images/DESERT.png,,,,,,,,,,,,,,,,,,,,m,1,0.68,,,,,,,,0,69,69,52,1
,,,,,,,,,,,,,,,,,610aefc141c6a35dd05bb40f,23,2022-02-12_16h51.52.845,lexical_decision_task_DD_L6,2021.2.3,MacIntel,59.99880002,,,,,,,,,,,,0.9304,1,,,,,,,,,,,,,,,,,,,,,,,,-0.447819922,0.278923379,0,0,0,,,,,,,SPORT,LB,z,y,./images/SPORTLB.png,,,,,,,,,,,,,,,,,,,,z,1,0.9304,,,,,,,,0,70,70,132,1
,,,,,,,,,,,,,,,,,610aefc141c6a35dd05bb40f,23,2022-02-12_16h51.52.845,lexical_decision_task_DD_L6,2021.2.3,MacIntel,59.99880002,,,,,,,,,,,,0.9163,0,,,,,,,,,,,,,,,,,,,,,,,,-0.447819922,0.278923379,0,0,0,,,,,,,HEATER,HB,m,y,./images/HEATERHB.png,,,,,,,,,,,,,,,,,,,,z,0,0.9163,,,,,,,,0,71,71,56,1
,,,,,,,,,,,,,,,,,610aefc141c6a35dd05bb40f,23,2022-02-12_16h51.52.845,lexical_decision_task_DD_L6,2021.2.3,MacIntel,59.99880002,,,,,,,,,,,,0.5319,1,,,,,,,,,,,,,,,,,,,,,,,,-0.447819922,0.278923379,0,0,0,,,,,,,BRUSH,HB,m,y,./images/BRUSHHB.png,,,,,,,,,,,,,,,,,,,,m,1,0.5319,,,,,,,,0,72,72,59,1
,,,,,,,,,,,,,,,,,610aefc141c6a35dd05bb40f,23,2022-02-12_16h51.52.845,lexical_decision_task_DD_L6,2021.2.3,MacIntel,59.99880002,,,,,,,,,,,,0.5829,1,,,,,,,,,,,,,,,,,,,,,,,,-0.447819922,0.278923379,0,0,0,,,,,,,HAMMER,LB,m,y,./images/HAMMERLB.png,,,,,,,,,,,,,,,,,,,,m,1,0.5829,,,,,,,,0,73,73,75,1
,,,,,,,,,,,,,,,,,610aefc141c6a35dd05bb40f,23,2022-02-12_16h51.52.845,lexical_decision_task_DD_L6,2021.2.3,MacIntel,59.99880002,,,,,,,,,,,,0.9819,0,,,,,,,,,,,,,,,,,,,,,,,,-0.447819922,0.278923379,0,0,0,,,,,,,MOOSE,LB,z,y,./images/MOOSELB.png,,,,,,,,,,,,,,,,,,,,m,0,0.9819,,,,,,,,0,74,74,141,1
,,,,,,,,,,,,,,,,,610aefc141c6a35dd05bb40f,23,2022-02-12_16h51.52.845,lexical_decision_task_DD_L6,2021.2.3,MacIntel,59.99880002,,,,,,,,,,,,0.8522,1,,,,,,,,,,,,,,,,,,,,,,,,-0.447819922,0.278923379,0,0,0,,,,,,,BRIDE,C,m,y,./images/BRIDE.png,,,,,,,,,,,,,,,,,,,,m,1,0.8522,,,,,,,,0,75,75,64,1
,,,,,,,,,,,,,,,,,610aefc141c6a35dd05bb40f,23,2022-02-12_16h51.52.845,lexical_decision_task_DD_L6,2021.2.3,MacIntel,59.99880002,,,,,,,,,,,,0.7998,0,,,,,,,,,,,,,,,,,,,,,,,,-0.447819922,0.278923379,0,0,0,,,,,,,MUFFIN,C,z,y,./images/MUFFIN.png,,,,,,,,,,,,,,,,,,,,m,0,0.7998,,,,,,,,0,76,76,139,1
,,,,,,,,,,,,,,,,,610aefc141c6a35dd05bb40f,23,2022-02-12_16h51.52.845,lexical_decision_task_DD_L6,2021.2.3,MacIntel,59.99880002,,,,,,,,,,,,0.5492,1,,,,,,,,,,,,,,,,,,,,,,,,-0.447819922,0.278923379,0,0,0,,,,,,,SPINE,HB,m,y,./images/SPINEHB.png,,,,,,,,,,,,,,,,,,,,m,1,0.5492,,,,,,,,0,77,77,65,1
,,,,,,,,,,,,,,,,,610aefc141c6a35dd05bb40f,23,2022-02-12_16h51.52.845,lexical_decision_task_DD_L6,2021.2.3,MacIntel,59.99880002,,,,,,,,,,,,0.8975,0,,,,,,,,,,,,,,,,,,,,,,,,-0.447819922,0.278923379,0,0,0,,,,,,,FARMER,HB,z,y,./images/FARMERHB.png,,,,,,,,,,,,,,,,,,,,m,0,0.8975,,,,,,,,0,78,78,149,1
,,,,,,,,,,,,,,,,,610aefc141c6a35dd05bb40f,23,2022-02-12_16h51.52.845,lexical_decision_task_DD_L6,2021.2.3,MacIntel,59.99880002,,,,,,,,,,,,0.8238,1,,,,,,,,,,,,,,,,,,,,,,,,-0.447819922,0.278923379,0,0,0,,,,,,,MELON,C,z,y,./images/MELON.png,,,,,,,,,,,,,,,,,,,,z,1,0.8238,,,,,,,,0,79,79,106,1
,,,,,,,,,,,,,,,,,610aefc141c6a35dd05bb40f,23,2022-02-12_16h51.52.845,lexical_decision_task_DD_L6,2021.2.3,MacIntel,59.99880002,,,,,,,,,,,,1.1575,0,,,,,,,,,,,,,,,,,,,,,,,,-0.447819922,0.278923379,0,0,0,,,,,,,BONNET,HB,z,y,./images/BONNETHB.png,,,,,,,,,,,,,,,,,,,,m,0,1.1575,,,,,,,,0,80,80,95,1
,,,,,,,,,,,,,,,,,610aefc141c6a35dd05bb40f,23,2022-02-12_16h51.52.845,lexical_decision_task_DD_L6,2021.2.3,MacIntel,59.99880002,,,,,,,,,,,,0.9506,1,,,,,,,,,,,,,,,,,,,,,,,,-0.447819922,0.278923379,0,0,0,,,,,,,SKIING,HB,z,y,./images/SKIINGHB.png,,,,,,,,,,,,,,,,,,,,z,1,0.9506,,,,,,,,0,81,81,101,1
,,,,,,,,,,,,,,,,,610aefc141c6a35dd05bb40f,23,2022-02-12_16h51.52.845,lexical_decision_task_DD_L6,2021.2.3,MacIntel,59.99880002,,,,,,,,,,,,0.7859,1,,,,,,,,,,,,,,,,,,,,,,,,-0.447819922,0.278923379,0,0,0,,,,,,,BANANA,C,m,y,./images/BANANA.png,,,,,,,,,,,,,,,,,,,,m,1,0.7859,,,,,,,,0,82,82,70,1
,,,,,,,,,,,,,,,,,610aefc141c6a35dd05bb40f,23,2022-02-12_16h51.52.845,lexical_decision_task_DD_L6,2021.2.3,MacIntel,59.99880002,,,,,,,,,,,,0.6304,1,,,,,,,,,,,,,,,,,,,,,,,,-0.447819922,0.278923379,0,0,0,space,,,,,,VALLEY,HB,m,y,./images/VALLEYHB.png,1.6941,,,,,,,,,,,,,,,,,,,m,1,0.6304,,,,,,,,0,83,83,68,1
,,,,,,,,,,,,,,,,,610aefc141c6a35dd05bb40f,23,2022-02-12_16h51.52.845,lexical_decision_task_DD_L6,2021.2.3,MacIntel,59.99880002,,,,,,,,,,,,0.8147,1,,,,,,,,,,,,,,,,,,,,,,,,-0.447819922,0.278923379,0,0,0,,,,,,,RAZOR,C,m,y,./images/RAZOR.png,,,,,,,,,,,,,,,,,,,,m,1,0.8147,,,,,,,,0,84,84,34,1
,,,,,,,,,,,,,,,,,610aefc141c6a35dd05bb40f,23,2022-02-12_16h51.52.845,lexical_decision_task_DD_L6,2021.2.3,MacIntel,59.99880002,,,,,,,,,,,,0.7406,1,,,,,,,,,,,,,,,,,,,,,,,,-0.447819922,0.278923379,0,0,0,,,,,,,PASTA,HB,z,y,./images/PASTAHB.png,,,,,,,,,,,,,,,,,,,,z,1,0.7406,,,,,,,,0,85,85,89,1
,,,,,,,,,,,,,,,,,610aefc141c6a35dd05bb40f,23,2022-02-12_16h51.52.845,lexical_decision_task_DD_L6,2021.2.3,MacIntel,59.99880002,,,,,,,,,,,,0.9493,1,,,,,,,,,,,,,,,,,,,,,,,,-0.447819922,0.278923379,0,0,0,,,,,,,WALNUT,LB,m,y,./images/WALNUTLB.png,,,,,,,,,,,,,,,,,,,,m,1,0.9493,,,,,,,,0,86,86,0,1
,,,,,,,,,,,,,,,,,610aefc141c6a35dd05bb40f,23,2022-02-12_16h51.52.845,lexical_decision_task_DD_L6,2021.2.3,MacIntel,59.99880002,,,,,,,,,,,,1.143,1,,,,,,,,,,,,,,,,,,,,,,,,-0.447819922,0.278923379,0,0,0,,,,,,,KIDNEY,LB,z,y,./images/KIDNEYLB.png,,,,,,,,,,,,,,,,,,,,z,1,1.143,,,,,,,,0,87,87,105,1
,,,,,,,,,,,,,,,,,610aefc141c6a35dd05bb40f,23,2022-02-12_16h51.52.845,lexical_decision_task_DD_L6,2021.2.3,MacIntel,59.99880002,,,,,,,,,,,,1.3814,1,,,,,,,,,,,,,,,,,,,,,,,,-0.447819922,0.278923379,0,0,0,,,,,,,STORM,LB,z,y,./images/STORMLB.png,,,,,,,,,,,,,,,,,,,,z,1,1.3814,,,,,,,,0,88,88,114,1
,,,,,,,,,,,,,,,,,610aefc141c6a35dd05bb40f,23,2022-02-12_16h51.52.845,lexical_decision_task_DD_L6,2021.2.3,MacIntel,59.99880002,,,,,,,,,,,,0.7002,1,,,,,,,,,,,,,,,,,,,,,,,,-0.447819922,0.278923379,0,0,0,,,,,,,ARROW,LB,m,y,./images/ARROWLB.png,,,,,,,,,,,,,,,,,,,,m,1,0.7002,,,,,,,,0,89,89,69,1
,,,,,,,,,,,,,,,,,610aefc141c6a35dd05bb40f,23,2022-02-12_16h51.52.845,lexical_decision_task_DD_L6,2021.2.3,MacIntel,59.99880002,,,,,,,,,,,,1.346,0,,,,,,,,,,,,,,,,,,,,,,,,-0.447819922,0.278923379,0,0,0,,,,,,,SNACK,C,z,y,./images/SNACK.png,,,,,,,,,,,,,,,,,,,,m,0,1.346,,,,,,,,0,90,90,157,1
,,,,,,,,,,,,,,,,,610aefc141c6a35dd05bb40f,23,2022-02-12_16h51.52.845,lexical_decision_task_DD_L6,2021.2.3,MacIntel,59.99880002,,,,,,,,,,,,0.7909,1,,,,,,,,,,,,,,,,,,,,,,,,-0.447819922,0.278923379,0,0,0,,,,,,,LAGOON,HB,m,y,./images/LAGOONHB.png,,,,,,,,,,,,,,,,,,,,m,1,0.7909,,,,,,,,0,91,91,47,1
,,,,,,,,,,,,,,,,,610aefc141c6a35dd05bb40f,23,2022-02-12_16h51.52.845,lexical_decision_task_DD_L6,2021.2.3,MacIntel,59.99880002,,,,,,,,,,,,0.8219,1,,,,,,,,,,,,,,,,,,,,,,,,-0.447819922,0.278923379,0,0,0,,,,,,,THROAT,LB,z,y,./images/THROATLB.png,,,,,,,,,,,,,,,,,,,,z,1,0.8219,,,,,,,,0,92,92,120,1
,,,,,,,,,,,,,,,,,610aefc141c6a35dd05bb40f,23,2022-02-12_16h51.52.845,lexical_decision_task_DD_L6,2021.2.3,MacIntel,59.99880002,,,,,,,,,,,,1.0883,1,,,,,,,,,,,,,,,,,,,,,,,,-0.447819922,0.278923379,0,0,0,,,,,,,DRUMS,C,z,y,./images/DRUMS.png,,,,,,,,,,,,,,,,,,,,z,1,1.0883,,,,,,,,0,93,93,133,1
,,,,,,,,,,,,,,,,,610aefc141c6a35dd05bb40f,23,2022-02-12_16h51.52.845,lexical_decision_task_DD_L6,2021.2.3,MacIntel,59.99880002,,,,,,,,,,,,0.7833,1,,,,,,,,,,,,,,,,,,,,,,,,-0.447819922,0.278923379,0,0,0,,,,,,,MOTOR,C,z,y,./images/MOTOR.png,,,,,,,,,,,,,,,,,,,,z,1,0.7833,,,,,,,,0,94,94,97,1
,,,,,,,,,,,,,,,,,610aefc141c6a35dd05bb40f,23,2022-02-12_16h51.52.845,lexical_decision_task_DD_L6,2021.2.3,MacIntel,59.99880002,,,,,,,,,,,,0.759,1,,,,,,,,,,,,,,,,,,,,,,,,-0.447819922,0.278923379,0,0,0,,,,,,,FENCE,HB,m,y,./images/FENCEHB.png,,,,,,,,,,,,,,,,,,,,m,1,0.759,,,,,,,,0,95,95,14,1
,,,,,,,,,,,,,,,,,610aefc141c6a35dd05bb40f,23,2022-02-12_16h51.52.845,lexical_decision_task_DD_L6,2021.2.3,MacIntel,59.99880002,,,,,,,,,,,,0.6743,1,,,,,,,,,,,,,,,,,,,,,,,,-0.447819922,0.278923379,0,0,0,,,,,,,POSTER,HB,m,y,./images/POSTERHB.png,,,,,,,,,,,,,,,,,,,,m,1,0.6743,,,,,,,,0,96,96,53,1
,,,,,,,,,,,,,,,,,610aefc141c6a35dd05bb40f,23,2022-02-12_16h51.52.845,lexical_decision_task_DD_L6,2021.2.3,MacIntel,59.99880002,,,,,,,,,,,,0.7509,1,,,,,,,,,,,,,,,,,,,,,,,,-0.447819922,0.278923379,0,0,0,,,,,,,COOKER,LB,z,y,./images/COOKERLB.png,,,,,,,,,,,,,,,,,,,,z,1,0.7509,,,,,,,,0,97,97,153,1
,,,,,,,,,,,,,,,,,610aefc141c6a35dd05bb40f,23,2022-02-12_16h51.52.845,lexical_decision_task_DD_L6,2021.2.3,MacIntel,59.99880002,,,,,,,,,,,,0.8821,1,,,,,,,,,,,,,,,,,,,,,,,,-0.447819922,0.278923379,0,0,0,,,,,,,MALLET,HB,z,y,./images/MALLETHB.png,,,,,,,,,,,,,,,,,,,,z,1,0.8821,,,,,,,,0,98,98,134,1
,,,,,,,,,,,,,,,,,610aefc141c6a35dd05bb40f,23,2022-02-12_16h51.52.845,lexical_decision_task_DD_L6,2021.2.3,MacIntel,59.99880002,,,,,,,,,,,,0.8598,1,,,,,,,,,,,,,,,,,,,,,,,,-0.447819922,0.278923379,0,0,0,,,,,,,PLANK,C,z,y,./images/PLANK.png,,,,,,,,,,,,,,,,,,,,z,1,0.8598,,,,,,,,0,99,99,85,1
,,,,,,,,,,,,,,,,,610aefc141c6a35dd05bb40f,23,2022-02-12_16h51.52.845,lexical_decision_task_DD_L6,2021.2.3,MacIntel,59.99880002,,,,,,,,,,,,0.8926,1,,,,,,,,,,,,,,,,,,,,,,,,-0.447819922,0.278923379,0,0,0,,,,,,,FINGER,LB,z,y,./images/FINGERLB.png,,,,,,,,,,,,,,,,,,,,z,1,0.8926,,,,,,,,0,100,100,87,1
,,,,,,,,,,,,,,,,,610aefc141c6a35dd05bb40f,23,2022-02-12_16h51.52.845,lexical_decision_task_DD_L6,2021.2.3,MacIntel,59.99880002,,,,,,,,,,,,0.8029,0,,,,,,,,,,,,,,,,,,,,,,,,-0.447819922,0.278923379,0,0,0,,,,,,,CRADLE,HB,z,y,./images/CRADLEHB.png,,,,,,,,,,,,,,,,,,,,m,0,0.8029,,,,,,,,0,101,101,104,1
,,,,,,,,,,,,,,,,,610aefc141c6a35dd05bb40f,23,2022-02-12_16h51.52.845,lexical_decision_task_DD_L6,2021.2.3,MacIntel,59.99880002,,,,,,,,,,,,0.8484,1,,,,,,,,,,,,,,,,,,,,,,,,-0.447819922,0.278923379,0,0,0,,,,,,,WALRUS,HB,z,y,./images/WALRUSHB.png,,,,,,,,,,,,,,,,,,,,z,1,0.8484,,,,,,,,0,102,102,107,1
,,,,,,,,,,,,,,,,,610aefc141c6a35dd05bb40f,23,2022-02-12_16h51.52.845,lexical_decision_task_DD_L6,2021.2.3,MacIntel,59.99880002,,,,,,,,,,,,0.8026,1,,,,,,,,,,,,,,,,,,,,,,,,-0.447819922,0.278923379,0,0,0,,,,,,,PARCEL,LB,m,y,./images/PARCELLB.png,,,,,,,,,,,,,,,,,,,,m,1,0.8026,,,,,,,,0,103,103,18,1
,,,,,,,,,,,,,,,,,610aefc141c6a35dd05bb40f,23,2022-02-12_16h51.52.845,lexical_decision_task_DD_L6,2021.2.3,MacIntel,59.99880002,,,,,,,,,,,,0.6358,1,,,,,,,,,,,,,,,,,,,,,,,,-0.447819922,0.278923379,0,0,0,,,,,,,STEAK,C,m,y,./images/STEAK.png,,,,,,,,,,,,,,,,,,,,m,1,0.6358,,,,,,,,0,104,104,31,1
,,,,,,,,,,,,,,,,,610aefc141c6a35dd05bb40f,23,2022-02-12_16h51.52.845,lexical_decision_task_DD_L6,2021.2.3,MacIntel,59.99880002,,,,,,,,,,,,1.1576,0,,,,,,,,,,,,,,,,,,,,,,,,-0.447819922,0.278923379,0,0,0,,,,,,,PAINT,C,z,y,./images/PAINT.png,,,,,,,,,,,,,,,,,,,,m,0,1.1576,,,,,,,,0,105,105,91,1
,,,,,,,,,,,,,,,,,610aefc141c6a35dd05bb40f,23,2022-02-12_16h51.52.845,lexical_decision_task_DD_L6,2021.2.3,MacIntel,59.99880002,,,,,,,,,,,,0.8669,1,,,,,,,,,,,,,,,,,,,,,,,,-0.447819922,0.278923379,0,0,0,,,,,,,DOUGH,C,z,y,./images/DOUGH.png,,,,,,,,,,,,,,,,,,,,z,1,0.8669,,,,,,,,0,106,106,103,1
,,,,,,,,,,,,,,,,,610aefc141c6a35dd05bb40f,23,2022-02-12_16h51.52.845,lexical_decision_task_DD_L6,2021.2.3,MacIntel,59.99880002,,,,,,,,,,,,0.8286,1,,,,,,,,,,,,,,,,,,,,,,,,-0.447819922,0.278923379,0,0,0,,,,,,,TORCH,HB,z,y,./images/TORCHHB.png,,,,,,,,,,,,,,,,,,,,z,1,0.8286,,,,,,,,0,107,107,152,1
,,,,,,,,,,,,,,,,,610aefc141c6a35dd05bb40f,23,2022-02-12_16h51.52.845,lexical_decision_task_DD_L6,2021.2.3,MacIntel,59.99880002,,,,,,,,,,,,1.4833,1,,,,,,,,,,,,,,,,,,,,,,,,-0.447819922,0.278923379,0,0,0,,,,,,,CLOWN,C,m,y,./images/CLOWN.png,,,,,,,,,,,,,,,,,,,,m,1,1.4833,,,,,,,,0,108,108,22,1
,,,,,,,,,,,,,,,,,610aefc141c6a35dd05bb40f,23,2022-02-12_16h51.52.845,lexical_decision_task_DD_L6,2021.2.3,MacIntel,59.99880002,,,,,,,,,,,,0.7921,1,,,,,,,,,,,,,,,,,,,,,,,,-0.447819922,0.278923379,0,0,0,,,,,,,TULIP,HB,z,y,./images/TULIPHB.png,,,,,,,,,,,,,,,,,,,,z,1,0.7921,,,,,,,,0,109,109,92,1
,,,,,,,,,,,,,,,,,610aefc141c6a35dd05bb40f,23,2022-02-12_16h51.52.845,lexical_decision_task_DD_L6,2021.2.3,MacIntel,59.99880002,,,,,,,,,,,,0.9012,1,,,,,,,,,,,,,,,,,,,,,,,,-0.447819922,0.278923379,0,0,0,,,,,,,WHEEL,HB,m,y,./images/WHEELHB.png,,,,,,,,,,,,,,,,,,,,m,1,0.9012,,,,,,,,0,110,110,77,1
,,,,,,,,,,,,,,,,,610aefc141c6a35dd05bb40f,23,2022-02-12_16h51.52.845,lexical_decision_task_DD_L6,2021.2.3,MacIntel,59.99880002,,,,,,,,,,,,0.78,1,,,,,,,,,,,,,,,,,,,,,,,,-0.447819922,0.278923379,0,0,0,,,,,,,QUILL,C,z,y,./images/QUILL.png,,,,,,,,,,,,,,,,,,,,z,1,0.78,,,,,,,,0,111,111,115,1
,,,,,,,,,,,,,,,,,610aefc141c6a35dd05bb40f,23,2022-02-12_16h51.52.845,lexical_decision_task_DD_L6,2021.2.3,MacIntel,59.99880002,,,,,,,,,,,,0.782,0,,,,,,,,,,,,,,,,,,,,,,,,-0.447819922,0.278923379,0,0,0,,,,,,,SMOKER,HB,z,y,./images/SMOKERHB.png,,,,,,,,,,,,,,,,,,,,m,0,0.782,,,,,,,,0,112,112,110,1
,,,,,,,,,,,,,,,,,610aefc141c6a35dd05bb40f,23,2022-02-12_16h51.52.845,lexical_decision_task_DD_L6,2021.2.3,MacIntel,59.99880002,,,,,,,,,,,,0.6799,0,,,,,,,,,,,,,,,,,,,,,,,,-0.447819922,0.278923379,0,0,0,,,,,,,CANDLE,C,z,y,./images/CANDLE.png,,,,,,,,,,,,,,,,,,,,m,0,0.6799,,,,,,,,0,113,113,145,1
,,,,,,,,,,,,,,,,,610aefc141c6a35dd05bb40f,23,2022-02-12_16h51.52.845,lexical_decision_task_DD_L6,2021.2.3,MacIntel,59.99880002,,,,,,,,,,,,0.8153,1,,,,,,,,,,,,,,,,,,,,,,,,-0.447819922,0.278923379,0,0,0,,,,,,,PACKET,HB,z,y,./images/PACKETHB.png,,,,,,,,,,,,,,,,,,,,z,1,0.8153,,,,,,,,0,114,114,140,1
,,,,,,,,,,,,,,,,,610aefc141c6a35dd05bb40f,23,2022-02-12_16h51.52.845,lexical_decision_task_DD_L6,2021.2.3,MacIntel,59.99880002,,,,,,,,,,,,0.9541,1,,,,,,,,,,,,,,,,,,,,,,,,-0.447819922,0.278923379,0,0,0,,,,,,,PENCE,C,z,y,./images/PENCE.png,,,,,,,,,,,,,,,,,,,,z,1,0.9541,,,,,,,,0,115,115,100,1
,,,,,,,,,,,,,,,,,610aefc141c6a35dd05bb40f,23,2022-02-12_16h51.52.845,lexical_decision_task_DD_L6,2021.2.3,MacIntel,59.99880002,,,,,,,,,,,,0.9655,1,,,,,,,,,,,,,,,,,,,,,,,,-0.447819922,0.278923379,0,0,0,,,,,,,MAMMAL,HB,m,y,./images/MAMMALHB.png,,,,,,,,,,,,,,,,,,,,m,1,0.9655,,,,,,,,0,116,116,62,1
,,,,,,,,,,,,,,,,,610aefc141c6a35dd05bb40f,23,2022-02-12_16h51.52.845,lexical_decision_task_DD_L6,2021.2.3,MacIntel,59.99880002,,,,,,,,,,,,0.8901,1,,,,,,,,,,,,,,,,,,,,,,,,-0.447819922,0.278923379,0,0,0,,,,,,,WEASEL,HB,z,y,./images/WEASELHB.png,,,,,,,,,,,,,,,,,,,,z,1,0.8901,,,,,,,,0,117,117,164,1
,,,,,,,,,,,,,,,,,610aefc141c6a35dd05bb40f,23,2022-02-12_16h51.52.845,lexical_decision_task_DD_L6,2021.2.3,MacIntel,59.99880002,,,,,,,,,,,,1.4046,1,,,,,,,,,,,,,,,,,,,,,,,,-0.447819922,0.278923379,0,0,0,,,,,,,GARDEN,C,m,y,./images/GARDEN.png,,,,,,,,,,,,,,,,,,,,m,1,1.4046,,,,,,,,0,118,118,10,1
,,,,,,,,,,,,,,,,,610aefc141c6a35dd05bb40f,23,2022-02-12_16h51.52.845,lexical_decision_task_DD_L6,2021.2.3,MacIntel,59.99880002,,,,,,,,,,,,0.8001,1,,,,,,,,,,,,,,,,,,,,,,,,-0.447819922,0.278923379,0,0,0,,,,,,,COUCH,HB,z,y,./images/COUCHHB.png,,,,,,,,,,,,,,,,,,,,z,1,0.8001,,,,,,,,0,119,119,161,1
,,,,,,,,,,,,,,,,,610aefc141c6a35dd05bb40f,23,2022-02-12_16h51.52.845,lexical_decision_task_DD_L6,2021.2.3,MacIntel,59.99880002,,,,,,,,,,,,1.0805,1,,,,,,,,,,,,,,,,,,,,,,,,-0.447819922,0.278923379,0,0,0,,,,,,,LLAMA,HB,m,y,./images/LLAMAHB.png,,,,,,,,,,,,,,,,,,,,m,1,1.0805,,,,,,,,0,120,120,35,1
,,,,,,,,,,,,,,,,,610aefc141c6a35dd05bb40f,23,2022-02-12_16h51.52.845,lexical_decision_task_DD_L6,2021.2.3,MacIntel,59.99880002,,,,,,,,,,,,1.2067,0,,,,,,,,,,,,,,,,,,,,,,,,-0.447819922,0.278923379,0,0,0,,,,,,,PLANET,HB,m,y,./images/PLANETHB.png,,,,,,,,,,,,,,,,,,,,z,0,1.2067,,,,,,,,0,121,121,80,1
,,,,,,,,,,,,,,,,,610aefc141c6a35dd05bb40f,23,2022-02-12_16h51.52.845,lexical_decision_task_DD_L6,2021.2.3,MacIntel,59.99880002,,,,,,,,,,,,0.8096,1,,,,,,,,,,,,,,,,,,,,,,,,-0.447819922,0.278923379,0,0,0,,,,,,,MIRROR,LB,z,y,./images/MIRRORLB.png,,,,,,,,,,,,,,,,,,,,z,1,0.8096,,,,,,,,0,122,122,147,1
,,,,,,,,,,,,,,,,,610aefc141c6a35dd05bb40f,23,2022-02-12_16h51.52.845,lexical_decision_task_DD_L6,2021.2.3,MacIntel,59.99880002,,,,,,,,,,,,0.7409,1,,,,,,,,,,,,,,,,,,,,,,,,-0.447819922,0.278923379,0,0,0,,,,,,,JELLY,C,z,y,./images/JELLY.png,,,,,,,,,,,,,,,,,,,,z,1,0.7409,,,,,,,,0,123,123,148,1
,,,,,,,,,,,,,,,,,610aefc141c6a35dd05bb40f,23,2022-02-12_16h51.52.845,lexical_decision_task_DD_L6,2021.2.3,MacIntel,59.99880002,,,,,,,,,,,,0.6665,1,,,,,,,,,,,,,,,,,,,,,,,,-0.447819922,0.278923379,0,0,0,,,,,,,LIZARD,HB,z,y,./images/LIZARDHB.png,,,,,,,,,,,,,,,,,,,,z,1,0.6665,,,,,,,,0,124,124,128,1
,,,,,,,,,,,,,,,,,610aefc141c6a35dd05bb40f,23,2022-02-12_16h51.52.845,lexical_decision_task_DD_L6,2021.2.3,MacIntel,59.99880002,,,,,,,,,,,,0.6013,0,,,,,,,,,,,,,,,,,,,,,,,,-0.447819922,0.278923379,0,0,0,space,,,,,,BOXER,C,m,y,./images/BOXER.png,2.3522,,,,,,,,,,,,,,,,,,,z,0,0.6013,,,,,,,,0,125,125,4,1
,,,,,,,,,,,,,,,,,610aefc141c6a35dd05bb40f,23,2022-02-12_16h51.52.845,lexical_decision_task_DD_L6,2021.2.3,MacIntel,59.99880002,,,,,,,,,,,,1.5644,0,,,,,,,,,,,,,,,,,,,,,,,,-0.447819922,0.278923379,0,0,0,,,,,,,BUNNY,C,m,y,./images/BUNNY.png,,,,,,,,,,,,,,,,,,,,z,0,1.5644,,,,,,,,0,126,126,13,1
,,,,,,,,,,,,,,,,,610aefc141c6a35dd05bb40f,23,2022-02-12_16h51.52.845,lexical_decision_task_DD_L6,2021.2.3,MacIntel,59.99880002,,,,,,,,,,,,0.9374,1,,,,,,,,,,,,,,,,,,,,,,,,-0.447819922,0.278923379,0,0,0,,,,,,,FERRY,LB,m,y,./images/FERRYLB.png,,,,,,,,,,,,,,,,,,,,m,1,0.9374,,,,,,,,0,127,127,57,1
,,,,,,,,,,,,,,,,,610aefc141c6a35dd05bb40f,23,2022-02-12_16h51.52.845,lexical_decision_task_DD_L6,2021.2.3,MacIntel,59.99880002,,,,,,,,,,,,0.8306,0,,,,,,,,,,,,,,,,,,,,,,,,-0.447819922,0.278923379,0,0,0,,,,,,,DANCER,LB,m,y,./images/DANCERLB.png,,,,,,,,,,,,,,,,,,,,z,0,0.8306,,,,,,,,0,128,128,21,1
