key_resp.keys,instr_done_touch.x,instr_done_touch.y,instr_done_touch.leftButton,instr_done_touch.midButton,instr_done_touch.rightButton,instr_done_touch.clicked_name,instruction_pages.thisRepN,instruction_pages.thisTrialN,instruction_pages.thisN,instruction_pages.thisIndex,instruction_pages.ran,pageN,phase,instruct_text,has_image,instruct_image,participant,age,date,expName,psychopyVersion,OS,frameRate,key_resp.rt,response.keys,response.corr,response.rt,touch_resp.x,touch_resp.y,touch_resp.leftButton,touch_resp.midButton,touch_resp.rightButton,touch_resp.time,touch_resp.clicked_name,rt,corr,practrials.thisRepN,practrials.thisTrialN,practrials.thisN,practrials.thisIndex,practrials.ran,TrialID,Target,corrAns,end_of_practice_trials_pages.thisRepN,end_of_practice_trials_pages.thisTrialN,end_of_practice_trials_pages.thisN,end_of_practice_trials_pages.thisIndex,end_of_practice_trials_pages.ran,key_resp_2.keys,key_resp_2.corr,key_resp_2.rt,targ_click.x,targ_click.y,targ_click.leftButton,targ_click.midButton,targ_click.rightButton,targ_click.time,targ_click.clicked_name,break_done_touch.x,break_done_touch.y,break_done_touch.leftButton,break_done_touch.midButton,break_done_touch.rightButton,break_done_keyboard.keys,maintrials.thisRepN,maintrials.thisTrialN,maintrials.thisN,maintrials.thisIndex,maintrials.ran,string,blur,study,lex,stim_path,break_done_keyboard.rt,mouse_2.x,mouse_2.y,mouse_2.leftButton,mouse_2.midButton,mouse_2.rightButton,mouse_2.clicked_name,slider.response,slider.rt,trials.thisRepN,trials.thisTrialN,trials.thisN,trials.thisIndex,trials.ran,test_instructions.thisRepN,test_instructions.thisTrialN,test_instructions.thisN,test_instructions.thisIndex,test_instructions.ran,key_resp_3.keys,key_resp_3.corr,key_resp_3.rt,test_click.x,test_click.y,test_click.leftButton,test_click.midButton,test_click.rightButton,test_click.time,test_click.clicked_name,test_phase.thisRepN,test_phase.thisTrialN,test_phase.thisN,test_phase.thisIndex,test_phase.ran
,0.006145833,-0.423315972,1,0,0,instr_done_button,0,0,0,0,1,1,instructions,"INSTRUCTIONS
At the start of each trial, look at the plus sign  (+) in the center of the screen.  This tells you that a trial is about to begin and where to look. Second, the plus sign will disappear and a string of letters will appear. Your task is to determine if the string of letters is a word or not. If the item is a word press the M key (on keyboard)  or touch the word button (phone/tablet).  If the item is not a word,  press the  Z key (on keyboard)  or touch the nonword button (on phone/tablet). 
Press the space bar or touch  continue.",0,,610d3c0535871d8bfa25107f,19,2022-02-12_18h04.01.519,lexical_decision_task_DD_L3,2021.2.3,MacIntel,60.0024001,,,,,,,,,,,,,,,,,,,,,,,,,,,,,,,,,,,,,,,,,,,,,,,,,,,,,,,,,,,,,,,,,,,,,,,,,,,,,,,,,,,,,,
space,0.006145833,-0.423315972,0,0,0,,0,1,1,1,1,2,instructions,"If your device has a keyboard, press the 'Z' key for nonwords and the 'M' key for words.





Press the space bar or touch the button below to continue.",0,keyboard-example.gif,610d3c0535871d8bfa25107f,19,2022-02-12_18h04.01.519,lexical_decision_task_DD_L3,2021.2.3,MacIntel,60.0024001,6.0659,,,,,,,,,,,,,,,,,,,,,,,,,,,,,,,,,,,,,,,,,,,,,,,,,,,,,,,,,,,,,,,,,,,,,,,,,,,,,,,,,,,,,
space,0.006145833,-0.423315972,0,0,0,,0,2,2,2,1,3,instructions,"If you are using a touchscreen only device, use the buttons on the screen. Do not use the mouse.





Press the space bar or touch the button below to continue.",0,touchscreen-example.gif,610d3c0535871d8bfa25107f,19,2022-02-12_18h04.01.519,lexical_decision_task_DD_L3,2021.2.3,MacIntel,60.0024001,3.1851,,,,,,,,,,,,,,,,,,,,,,,,,,,,,,,,,,,,,,,,,,,,,,,,,,,,,,,,,,,,,,,,,,,,,,,,,,,,,,,,,,,,,
space,0.006145833,-0.423315972,0,0,0,,0,3,3,3,1,4,instructions,"It is very important that you respond as quickly and accurately as possible, as each letter string will only be on the screen for two seconds. If you do not respond within this time, the message 'Too slow!' will be displayed and the experiment will progress to the next letter string. The first 20 trials will be practice trials and you will receive feedback on your answers. 

Press the space bar or touch the button below to start the practice trials.",0,,610d3c0535871d8bfa25107f,19,2022-02-12_18h04.01.519,lexical_decision_task_DD_L3,2021.2.3,MacIntel,60.0024001,8.5807,,,,,,,,,,,,,,,,,,,,,,,,,,,,,,,,,,,,,,,,,,,,,,,,,,,,,,,,,,,,,,,,,,,,,,,,,,,,,,,,,,,,,
,,,,,,,,,,,,,,,,,610d3c0535871d8bfa25107f,19,2022-02-12_18h04.01.519,lexical_decision_task_DD_L3,2021.2.3,MacIntel,60.0024001,,z,1,1.5354,,,,,,,,1.5354,1,0,0,0,10,1,1001,INLADE,z,,,,,,,,,,,,,,,,,,,,,,,,,,,,,,,,,,,,,,,,,,,,,,,,,,,,,,,,,,,,,,,,,
,,,,,,,,,,,,,,,,,610d3c0535871d8bfa25107f,19,2022-02-12_18h04.01.519,lexical_decision_task_DD_L3,2021.2.3,MacIntel,60.0024001,,z,1,0.7951,,,,,,,,0.7951,1,0,1,1,12,1,1001,SPRINY,z,,,,,,,,,,,,,,,,,,,,,,,,,,,,,,,,,,,,,,,,,,,,,,,,,,,,,,,,,,,,,,,,,
,,,,,,,,,,,,,,,,,610d3c0535871d8bfa25107f,19,2022-02-12_18h04.01.519,lexical_decision_task_DD_L3,2021.2.3,MacIntel,60.0024001,,m,1,0.5812,,,,,,,,0.5812,1,0,2,2,0,1,1001,UTOPIA,m,,,,,,,,,,,,,,,,,,,,,,,,,,,,,,,,,,,,,,,,,,,,,,,,,,,,,,,,,,,,,,,,,
,,,,,,,,,,,,,,,,,610d3c0535871d8bfa25107f,19,2022-02-12_18h04.01.519,lexical_decision_task_DD_L3,2021.2.3,MacIntel,60.0024001,,m,1,0.5284,,,,,,,,0.5284,1,0,3,3,7,1,1001,VOLUME,m,,,,,,,,,,,,,,,,,,,,,,,,,,,,,,,,,,,,,,,,,,,,,,,,,,,,,,,,,,,,,,,,,
,,,,,,,,,,,,,,,,,610d3c0535871d8bfa25107f,19,2022-02-12_18h04.01.519,lexical_decision_task_DD_L3,2021.2.3,MacIntel,60.0024001,,m,1,0.5797,,,,,,,,0.5797,1,0,4,4,6,1,1001,ZOMBIE,m,,,,,,,,,,,,,,,,,,,,,,,,,,,,,,,,,,,,,,,,,,,,,,,,,,,,,,,,,,,,,,,,,
,,,,,,,,,,,,,,,,,610d3c0535871d8bfa25107f,19,2022-02-12_18h04.01.519,lexical_decision_task_DD_L3,2021.2.3,MacIntel,60.0024001,,m,1,0.5965,,,,,,,,0.5965,1,0,5,5,2,1,1001,ALMOND,m,,,,,,,,,,,,,,,,,,,,,,,,,,,,,,,,,,,,,,,,,,,,,,,,,,,,,,,,,,,,,,,,,
,,,,,,,,,,,,,,,,,610d3c0535871d8bfa25107f,19,2022-02-12_18h04.01.519,lexical_decision_task_DD_L3,2021.2.3,MacIntel,60.0024001,,z,1,0.6178,,,,,,,,0.6178,1,0,6,6,9,1,1001,FARINY,z,,,,,,,,,,,,,,,,,,,,,,,,,,,,,,,,,,,,,,,,,,,,,,,,,,,,,,,,,,,,,,,,,
,,,,,,,,,,,,,,,,,610d3c0535871d8bfa25107f,19,2022-02-12_18h04.01.519,lexical_decision_task_DD_L3,2021.2.3,MacIntel,60.0024001,,z,1,0.7183,,,,,,,,0.7183,1,0,7,7,11,1,1001,RASHET,z,,,,,,,,,,,,,,,,,,,,,,,,,,,,,,,,,,,,,,,,,,,,,,,,,,,,,,,,,,,,,,,,,
,,,,,,,,,,,,,,,,,610d3c0535871d8bfa25107f,19,2022-02-12_18h04.01.519,lexical_decision_task_DD_L3,2021.2.3,MacIntel,60.0024001,,z,1,0.5601,,,,,,,,0.5601,1,0,8,8,15,1,1001,WHAISE,z,,,,,,,,,,,,,,,,,,,,,,,,,,,,,,,,,,,,,,,,,,,,,,,,,,,,,,,,,,,,,,,,,
,,,,,,,,,,,,,,,,,610d3c0535871d8bfa25107f,19,2022-02-12_18h04.01.519,lexical_decision_task_DD_L3,2021.2.3,MacIntel,60.0024001,,m,1,0.6378,,,,,,,,0.6378,1,0,9,9,1,1,1001,ADJUST,m,,,,,,,,,,,,,,,,,,,,,,,,,,,,,,,,,,,,,,,,,,,,,,,,,,,,,,,,,,,,,,,,,
,,,,,,,,,,,,,,,,,610d3c0535871d8bfa25107f,19,2022-02-12_18h04.01.519,lexical_decision_task_DD_L3,2021.2.3,MacIntel,60.0024001,,z,1,0.6325,,,,,,,,0.6325,1,0,10,10,13,1,1001,ROUPET,z,,,,,,,,,,,,,,,,,,,,,,,,,,,,,,,,,,,,,,,,,,,,,,,,,,,,,,,,,,,,,,,,,
,,,,,,,,,,,,,,,,,610d3c0535871d8bfa25107f,19,2022-02-12_18h04.01.519,lexical_decision_task_DD_L3,2021.2.3,MacIntel,60.0024001,,z,1,0.6117,,,,,,,,0.6117,1,0,11,11,8,1,1001,ASLERT,z,,,,,,,,,,,,,,,,,,,,,,,,,,,,,,,,,,,,,,,,,,,,,,,,,,,,,,,,,,,,,,,,,
,,,,,,,,,,,,,,,,,610d3c0535871d8bfa25107f,19,2022-02-12_18h04.01.519,lexical_decision_task_DD_L3,2021.2.3,MacIntel,60.0024001,,z,1,0.5491,,,,,,,,0.5491,1,0,12,12,14,1,1001,THRALE,z,,,,,,,,,,,,,,,,,,,,,,,,,,,,,,,,,,,,,,,,,,,,,,,,,,,,,,,,,,,,,,,,,
,,,,,,,,,,,,,,,,,610d3c0535871d8bfa25107f,19,2022-02-12_18h04.01.519,lexical_decision_task_DD_L3,2021.2.3,MacIntel,60.0024001,,m,1,0.6953,,,,,,,,0.6953,1,0,13,13,3,1,1001,MATRIX,m,,,,,,,,,,,,,,,,,,,,,,,,,,,,,,,,,,,,,,,,,,,,,,,,,,,,,,,,,,,,,,,,,
,,,,,,,,,,,,,,,,,610d3c0535871d8bfa25107f,19,2022-02-12_18h04.01.519,lexical_decision_task_DD_L3,2021.2.3,MacIntel,60.0024001,,m,1,0.5259,,,,,,,,0.5259,1,0,14,14,4,1,1001,SQUEAK,m,,,,,,,,,,,,,,,,,,,,,,,,,,,,,,,,,,,,,,,,,,,,,,,,,,,,,,,,,,,,,,,,,
,,,,,,,,,,,,,,,,,610d3c0535871d8bfa25107f,19,2022-02-12_18h04.01.519,lexical_decision_task_DD_L3,2021.2.3,MacIntel,60.0024001,,m,1,0.4937,,,,,,,,0.4937,1,0,15,15,5,1,1001,OBTAIN,m,,,,,,,,,,,,,,,,,,,,,,,,,,,,,,,,,,,,,,,,,,,,,,,,,,,,,,,,,,,,,,,,,
space,0.006145833,-0.423315972,0,0,0,,,,,,,1,end_of_practice,"You have completed the practice trials. During the experimental trials, you will not receive feedback. 
Before you begin, please ensure that you are in a comfortable and quiet location and will not be disturbed for about 15 minutes, as we cannot use your data if you do not complete all the trials. 
 When you are ready to start the experimental trials, please press space or touch the button below.",,,610d3c0535871d8bfa25107f,19,2022-02-12_18h04.01.519,lexical_decision_task_DD_L3,2021.2.3,MacIntel,60.0024001,7.4109,,,,,,,,,,,,,,,,,,,,,0,0,0,0,1,,,,,,,,,,,,,,,,,,,,,,,,,,,,,,,,,,,,,,,,,,,,,,,,,,,,,,,,,,,,
,,,,,,,,,,,,,,,,,610d3c0535871d8bfa25107f,19,2022-02-12_18h04.01.519,lexical_decision_task_DD_L3,2021.2.3,MacIntel,60.0024001,,,,,,,,,,,,0.7439,1,,,,,,,,,,,,,,z,1,0.7439,,,,,,,,0.006145833,-0.423315972,0,0,0,,0,0,0,84,1,HAXES,C,old,z,./images/HAXES.png,,,,,,,,,,,,,,,,,,,,,,,,,,,,,,,,,,
,,,,,,,,,,,,,,,,,610d3c0535871d8bfa25107f,19,2022-02-12_18h04.01.519,lexical_decision_task_DD_L3,2021.2.3,MacIntel,60.0024001,,,,,,,,,,,,0.5827,1,,,,,,,,,,,,,,z,1,0.5827,,,,,,,,0.006145833,-0.423315972,0,0,0,,0,1,1,165,1,TROWN,C,old,z,./images/TROWN.png,,,,,,,,,,,,,,,,,,,,,,,,,,,,,,,,,,
,,,,,,,,,,,,,,,,,610d3c0535871d8bfa25107f,19,2022-02-12_18h04.01.519,lexical_decision_task_DD_L3,2021.2.3,MacIntel,60.0024001,,,,,,,,,,,,1.0043,1,,,,,,,,,,,,,,m,1,1.0043,,,,,,,,0.006145833,-0.423315972,0,0,0,,0,2,2,47,1,BERRY,HB,old,m,./images/BERRYHB.png,,,,,,,,,,,,,,,,,,,,,,,,,,,,,,,,,,
,,,,,,,,,,,,,,,,,610d3c0535871d8bfa25107f,19,2022-02-12_18h04.01.519,lexical_decision_task_DD_L3,2021.2.3,MacIntel,60.0024001,,,,,,,,,,,,0.7117,1,,,,,,,,,,,,,,m,1,0.7117,,,,,,,,0.006145833,-0.423315972,0,0,0,,0,3,3,32,1,BARREL,HB,old,m,./images/BARRELHB.png,,,,,,,,,,,,,,,,,,,,,,,,,,,,,,,,,,
,,,,,,,,,,,,,,,,,610d3c0535871d8bfa25107f,19,2022-02-12_18h04.01.519,lexical_decision_task_DD_L3,2021.2.3,MacIntel,60.0024001,,,,,,,,,,,,0.9981,1,,,,,,,,,,,,,,m,1,0.9981,,,,,,,,0.006145833,-0.423315972,0,0,0,,0,4,4,8,1,TULIP,HB,old,m,./images/TULIPHB.png,,,,,,,,,,,,,,,,,,,,,,,,,,,,,,,,,,
,,,,,,,,,,,,,,,,,610d3c0535871d8bfa25107f,19,2022-02-12_18h04.01.519,lexical_decision_task_DD_L3,2021.2.3,MacIntel,60.0024001,,,,,,,,,,,,0.6416,1,,,,,,,,,,,,,,z,1,0.6416,,,,,,,,0.006145833,-0.423315972,0,0,0,,0,5,5,132,1,SCIFF,C,old,z,./images/SCIFF.png,,,,,,,,,,,,,,,,,,,,,,,,,,,,,,,,,,
,,,,,,,,,,,,,,,,,610d3c0535871d8bfa25107f,19,2022-02-12_18h04.01.519,lexical_decision_task_DD_L3,2021.2.3,MacIntel,60.0024001,,,,,,,,,,,,0.6613,0,,,,,,,,,,,,,,m,0,0.6613,,,,,,,,0.006145833,-0.423315972,0,0,0,,0,6,6,125,1,MOOKY,LB,old,z,./images/MOOKYLB.png,,,,,,,,,,,,,,,,,,,,,,,,,,,,,,,,,,
,,,,,,,,,,,,,,,,,610d3c0535871d8bfa25107f,19,2022-02-12_18h04.01.519,lexical_decision_task_DD_L3,2021.2.3,MacIntel,60.0024001,,,,,,,,,,,,0.7946,1,,,,,,,,,,,,,,z,1,0.7946,,,,,,,,0.006145833,-0.423315972,0,0,0,,0,7,7,164,1,SGREW,LB,old,z,./images/SGREWLB.png,,,,,,,,,,,,,,,,,,,,,,,,,,,,,,,,,,
,,,,,,,,,,,,,,,,,610d3c0535871d8bfa25107f,19,2022-02-12_18h04.01.519,lexical_decision_task_DD_L3,2021.2.3,MacIntel,60.0024001,,,,,,,,,,,,0.8117,1,,,,,,,,,,,,,,z,1,0.8117,,,,,,,,0.006145833,-0.423315972,0,0,0,,0,8,8,161,1,BLAPS,LB,old,z,./images/BLAPSLB.png,,,,,,,,,,,,,,,,,,,,,,,,,,,,,,,,,,
,,,,,,,,,,,,,,,,,610d3c0535871d8bfa25107f,19,2022-02-12_18h04.01.519,lexical_decision_task_DD_L3,2021.2.3,MacIntel,60.0024001,,,,,,,,,,,,0.6534,1,,,,,,,,,,,,,,m,1,0.6534,,,,,,,,0.006145833,-0.423315972,0,0,0,,0,9,9,13,1,MOTOR,C,old,m,./images/MOTOR.png,,,,,,,,,,,,,,,,,,,,,,,,,,,,,,,,,,
,,,,,,,,,,,,,,,,,610d3c0535871d8bfa25107f,19,2022-02-12_18h04.01.519,lexical_decision_task_DD_L3,2021.2.3,MacIntel,60.0024001,,,,,,,,,,,,0.7063,1,,,,,,,,,,,,,,m,1,0.7063,,,,,,,,0.006145833,-0.423315972,0,0,0,,0,10,10,23,1,WALRUS,HB,old,m,./images/WALRUSHB.png,,,,,,,,,,,,,,,,,,,,,,,,,,,,,,,,,,
,,,,,,,,,,,,,,,,,610d3c0535871d8bfa25107f,19,2022-02-12_18h04.01.519,lexical_decision_task_DD_L3,2021.2.3,MacIntel,60.0024001,,,,,,,,,,,,0.893,1,,,,,,,,,,,,,,z,1,0.893,,,,,,,,0.006145833,-0.423315972,0,0,0,,0,11,11,159,1,CUDDY,C,old,z,./images/CUDDY.png,,,,,,,,,,,,,,,,,,,,,,,,,,,,,,,,,,
,,,,,,,,,,,,,,,,,610d3c0535871d8bfa25107f,19,2022-02-12_18h04.01.519,lexical_decision_task_DD_L3,2021.2.3,MacIntel,60.0024001,,,,,,,,,,,,0.5873,1,,,,,,,,,,,,,,z,1,0.5873,,,,,,,,0.006145833,-0.423315972,0,0,0,,0,12,12,126,1,GUELS,C,old,z,./images/GUELS.png,,,,,,,,,,,,,,,,,,,,,,,,,,,,,,,,,,
,,,,,,,,,,,,,,,,,610d3c0535871d8bfa25107f,19,2022-02-12_18h04.01.519,lexical_decision_task_DD_L3,2021.2.3,MacIntel,60.0024001,,,,,,,,,,,,0.5573,1,,,,,,,,,,,,,,z,1,0.5573,,,,,,,,0.006145833,-0.423315972,0,0,0,,0,13,13,129,1,PRANS,C,old,z,./images/PRANS.png,,,,,,,,,,,,,,,,,,,,,,,,,,,,,,,,,,
,,,,,,,,,,,,,,,,,610d3c0535871d8bfa25107f,19,2022-02-12_18h04.01.519,lexical_decision_task_DD_L3,2021.2.3,MacIntel,60.0024001,,,,,,,,,,,,0.5938,1,,,,,,,,,,,,,,z,1,0.5938,,,,,,,,0.006145833,-0.423315972,0,0,0,,0,14,14,95,1,HANTY,LB,old,z,./images/HANTYLB.png,,,,,,,,,,,,,,,,,,,,,,,,,,,,,,,,,,
,,,,,,,,,,,,,,,,,610d3c0535871d8bfa25107f,19,2022-02-12_18h04.01.519,lexical_decision_task_DD_L3,2021.2.3,MacIntel,60.0024001,,,,,,,,,,,,0.7944,1,,,,,,,,,,,,,,z,1,0.7944,,,,,,,,0.006145833,-0.423315972,0,0,0,,0,15,15,104,1,GITTY,LB,old,z,./images/GITTYLB.png,,,,,,,,,,,,,,,,,,,,,,,,,,,,,,,,,,
,,,,,,,,,,,,,,,,,610d3c0535871d8bfa25107f,19,2022-02-12_18h04.01.519,lexical_decision_task_DD_L3,2021.2.3,MacIntel,60.0024001,,,,,,,,,,,,0.5997,1,,,,,,,,,,,,,,m,1,0.5997,,,,,,,,0.006145833,-0.423315972,0,0,0,,0,16,16,55,1,MUFFIN,C,old,m,./images/MUFFIN.png,,,,,,,,,,,,,,,,,,,,,,,,,,,,,,,,,,
,,,,,,,,,,,,,,,,,610d3c0535871d8bfa25107f,19,2022-02-12_18h04.01.519,lexical_decision_task_DD_L3,2021.2.3,MacIntel,60.0024001,,,,,,,,,,,,0.553,1,,,,,,,,,,,,,,m,1,0.553,,,,,,,,0.006145833,-0.423315972,0,0,0,,0,17,17,73,1,SNACK,C,old,m,./images/SNACK.png,,,,,,,,,,,,,,,,,,,,,,,,,,,,,,,,,,
,,,,,,,,,,,,,,,,,610d3c0535871d8bfa25107f,19,2022-02-12_18h04.01.519,lexical_decision_task_DD_L3,2021.2.3,MacIntel,60.0024001,,,,,,,,,,,,0.6227,1,,,,,,,,,,,,,,z,1,0.6227,,,,,,,,0.006145833,-0.423315972,0,0,0,,0,18,18,149,1,VEASE,LB,old,z,./images/VEASELB.png,,,,,,,,,,,,,,,,,,,,,,,,,,,,,,,,,,
,,,,,,,,,,,,,,,,,610d3c0535871d8bfa25107f,19,2022-02-12_18h04.01.519,lexical_decision_task_DD_L3,2021.2.3,MacIntel,60.0024001,,,,,,,,,,,,0.5621,1,,,,,,,,,,,,,,z,1,0.5621,,,,,,,,0.006145833,-0.423315972,0,0,0,,0,19,19,137,1,JOOST,LB,old,z,./images/JOOSTLB.png,,,,,,,,,,,,,,,,,,,,,,,,,,,,,,,,,,
,,,,,,,,,,,,,,,,,610d3c0535871d8bfa25107f,19,2022-02-12_18h04.01.519,lexical_decision_task_DD_L3,2021.2.3,MacIntel,60.0024001,,,,,,,,,,,,0.6046,1,,,,,,,,,,,,,,m,1,0.6046,,,,,,,,0.006145833,-0.423315972,0,0,0,,0,20,20,57,1,MOOSE,LB,old,m,./images/MOOSELB.png,,,,,,,,,,,,,,,,,,,,,,,,,,,,,,,,,,
,,,,,,,,,,,,,,,,,610d3c0535871d8bfa25107f,19,2022-02-12_18h04.01.519,lexical_decision_task_DD_L3,2021.2.3,MacIntel,60.0024001,,,,,,,,,,,,0.661,1,,,,,,,,,,,,,,m,1,0.661,,,,,,,,0.006145833,-0.423315972,0,0,0,,0,21,21,35,1,PEACH,HB,old,m,./images/PEACHHB.png,,,,,,,,,,,,,,,,,,,,,,,,,,,,,,,,,,
,,,,,,,,,,,,,,,,,610d3c0535871d8bfa25107f,19,2022-02-12_18h04.01.519,lexical_decision_task_DD_L3,2021.2.3,MacIntel,60.0024001,,,,,,,,,,,,0.9465,0,,,,,,,,,,,,,,m,0,0.9465,,,,,,,,0.006145833,-0.423315972,0,0,0,,0,22,22,127,1,NINDY,HB,old,z,./images/NINDYHB.png,,,,,,,,,,,,,,,,,,,,,,,,,,,,,,,,,,
,,,,,,,,,,,,,,,,,610d3c0535871d8bfa25107f,19,2022-02-12_18h04.01.519,lexical_decision_task_DD_L3,2021.2.3,MacIntel,60.0024001,,,,,,,,,,,,0.7193,1,,,,,,,,,,,,,,m,1,0.7193,,,,,,,,0.006145833,-0.423315972,0,0,0,,0,23,23,83,1,JUNGLE,HB,old,m,./images/JUNGLEHB.png,,,,,,,,,,,,,,,,,,,,,,,,,,,,,,,,,,
,,,,,,,,,,,,,,,,,610d3c0535871d8bfa25107f,19,2022-02-12_18h04.01.519,lexical_decision_task_DD_L3,2021.2.3,MacIntel,60.0024001,,,,,,,,,,,,0.7878,1,,,,,,,,,,,,,,z,1,0.7878,,,,,,,,0.006145833,-0.423315972,0,0,0,,0,24,24,128,1,GRIFT,LB,old,z,./images/GRIFTLB.png,,,,,,,,,,,,,,,,,,,,,,,,,,,,,,,,,,
,,,,,,,,,,,,,,,,,610d3c0535871d8bfa25107f,19,2022-02-12_18h04.01.519,lexical_decision_task_DD_L3,2021.2.3,MacIntel,60.0024001,,,,,,,,,,,,0.6166,1,,,,,,,,,,,,,,m,1,0.6166,,,,,,,,0.006145833,-0.423315972,0,0,0,,0,25,25,70,1,URINE,C,old,m,./images/URINE.png,,,,,,,,,,,,,,,,,,,,,,,,,,,,,,,,,,
,,,,,,,,,,,,,,,,,610d3c0535871d8bfa25107f,19,2022-02-12_18h04.01.519,lexical_decision_task_DD_L3,2021.2.3,MacIntel,60.0024001,,,,,,,,,,,,0.6676,1,,,,,,,,,,,,,,m,1,0.6676,,,,,,,,0.006145833,-0.423315972,0,0,0,,0,26,26,80,1,WEASEL,HB,old,m,./images/WEASELHB.png,,,,,,,,,,,,,,,,,,,,,,,,,,,,,,,,,,
,,,,,,,,,,,,,,,,,610d3c0535871d8bfa25107f,19,2022-02-12_18h04.01.519,lexical_decision_task_DD_L3,2021.2.3,MacIntel,60.0024001,,,,,,,,,,,,0.8483,1,,,,,,,,,,,,,,z,1,0.8483,,,,,,,,0.006145833,-0.423315972,0,0,0,,0,27,27,97,1,CHIDS,HB,old,z,./images/CHIDSHB.png,,,,,,,,,,,,,,,,,,,,,,,,,,,,,,,,,,
,,,,,,,,,,,,,,,,,610d3c0535871d8bfa25107f,19,2022-02-12_18h04.01.519,lexical_decision_task_DD_L3,2021.2.3,MacIntel,60.0024001,,,,,,,,,,,,0.7156,1,,,,,,,,,,,,,,m,1,0.7156,,,,,,,,0.006145833,-0.423315972,0,0,0,,0,28,28,0,1,TOMATO,LB,old,m,./images/TOMATOLB.png,,,,,,,,,,,,,,,,,,,,,,,,,,,,,,,,,,
,,,,,,,,,,,,,,,,,610d3c0535871d8bfa25107f,19,2022-02-12_18h04.01.519,lexical_decision_task_DD_L3,2021.2.3,MacIntel,60.0024001,,,,,,,,,,,,0.6618,1,,,,,,,,,,,,,,m,1,0.6618,,,,,,,,0.006145833,-0.423315972,0,0,0,,0,29,29,1,1,PLANK,C,old,m,./images/PLANK.png,,,,,,,,,,,,,,,,,,,,,,,,,,,,,,,,,,
,,,,,,,,,,,,,,,,,610d3c0535871d8bfa25107f,19,2022-02-12_18h04.01.519,lexical_decision_task_DD_L3,2021.2.3,MacIntel,60.0024001,,,,,,,,,,,,0.6547,1,,,,,,,,,,,,,,m,1,0.6547,,,,,,,,0.006145833,-0.423315972,0,0,0,,0,30,30,31,1,QUILL,C,old,m,./images/QUILL.png,,,,,,,,,,,,,,,,,,,,,,,,,,,,,,,,,,
,,,,,,,,,,,,,,,,,610d3c0535871d8bfa25107f,19,2022-02-12_18h04.01.519,lexical_decision_task_DD_L3,2021.2.3,MacIntel,60.0024001,,,,,,,,,,,,0.5669,1,,,,,,,,,,,,,,m,1,0.5669,,,,,,,,0.006145833,-0.423315972,0,0,0,,0,31,31,30,1,STORM,LB,old,m,./images/STORMLB.png,,,,,,,,,,,,,,,,,,,,,,,,,,,,,,,,,,
,,,,,,,,,,,,,,,,,610d3c0535871d8bfa25107f,19,2022-02-12_18h04.01.519,lexical_decision_task_DD_L3,2021.2.3,MacIntel,60.0024001,,,,,,,,,,,,0.597,1,,,,,,,,,,,,,,m,1,0.597,,,,,,,,0.006145833,-0.423315972,0,0,0,,0,32,32,19,1,DOUGH,C,old,m,./images/DOUGH.png,,,,,,,,,,,,,,,,,,,,,,,,,,,,,,,,,,
,,,,,,,,,,,,,,,,,610d3c0535871d8bfa25107f,19,2022-02-12_18h04.01.519,lexical_decision_task_DD_L3,2021.2.3,MacIntel,60.0024001,,,,,,,,,,,,0.8477,1,,,,,,,,,,,,,,z,1,0.8477,,,,,,,,0.006145833,-0.423315972,0,0,0,,0,33,33,133,1,POWDY,HB,old,z,./images/POWDYHB.png,,,,,,,,,,,,,,,,,,,,,,,,,,,,,,,,,,
,,,,,,,,,,,,,,,,,610d3c0535871d8bfa25107f,19,2022-02-12_18h04.01.519,lexical_decision_task_DD_L3,2021.2.3,MacIntel,60.0024001,,,,,,,,,,,,0.6868,1,,,,,,,,,,,,,,m,1,0.6868,,,,,,,,0.006145833,-0.423315972,0,0,0,,0,34,34,41,1,STRING,HB,old,m,./images/STRINGHB.png,,,,,,,,,,,,,,,,,,,,,,,,,,,,,,,,,,
,,,,,,,,,,,,,,,,,610d3c0535871d8bfa25107f,19,2022-02-12_18h04.01.519,lexical_decision_task_DD_L3,2021.2.3,MacIntel,60.0024001,,,,,,,,,,,,0.6507,1,,,,,,,,,,,,,,m,1,0.6507,,,,,,,,0.006145833,-0.423315972,0,0,0,,0,35,35,29,1,CRUMB,HB,old,m,./images/CRUMBHB.png,,,,,,,,,,,,,,,,,,,,,,,,,,,,,,,,,,
,,,,,,,,,,,,,,,,,610d3c0535871d8bfa25107f,19,2022-02-12_18h04.01.519,lexical_decision_task_DD_L3,2021.2.3,MacIntel,60.0024001,,,,,,,,,,,,0.5389,0,,,,,,,,,,,,,,m,0,0.5389,,,,,,,,0.006145833,-0.423315972,0,0,0,,0,36,36,110,1,CRUNK,LB,old,z,./images/CRUNKLB.png,,,,,,,,,,,,,,,,,,,,,,,,,,,,,,,,,,
,,,,,,,,,,,,,,,,,610d3c0535871d8bfa25107f,19,2022-02-12_18h04.01.519,lexical_decision_task_DD_L3,2021.2.3,MacIntel,60.0024001,,,,,,,,,,,,1.2029,1,,,,,,,,,,,,,,m,1,1.2029,,,,,,,,0.006145833,-0.423315972,0,0,0,,0,37,37,52,1,BANNER,C,old,m,./images/BANNER.png,,,,,,,,,,,,,,,,,,,,,,,,,,,,,,,,,,
,,,,,,,,,,,,,,,,,610d3c0535871d8bfa25107f,19,2022-02-12_18h04.01.519,lexical_decision_task_DD_L3,2021.2.3,MacIntel,60.0024001,,,,,,,,,,,,0.7981,1,,,,,,,,,,,,,,m,1,0.7981,,,,,,,,0.006145833,-0.423315972,0,0,0,,0,38,38,81,1,POODLE,LB,old,m,./images/POODLELB.png,,,,,,,,,,,,,,,,,,,,,,,,,,,,,,,,,,
,,,,,,,,,,,,,,,,,610d3c0535871d8bfa25107f,19,2022-02-12_18h04.01.519,lexical_decision_task_DD_L3,2021.2.3,MacIntel,60.0024001,,,,,,,,,,,,0.6408,1,,,,,,,,,,,,,,m,1,0.6408,,,,,,,,0.006145833,-0.423315972,0,0,0,,0,39,39,48,1,SPORT,LB,old,m,./images/SPORTLB.png,,,,,,,,,,,,,,,,,,,,,,,,,,,,,,,,,,
,,,,,,,,,,,,,,,,,610d3c0535871d8bfa25107f,19,2022-02-12_18h04.01.519,lexical_decision_task_DD_L3,2021.2.3,MacIntel,60.0024001,,,,,,,,,,,,0.7987,1,,,,,,,,,,,,,,m,1,0.7987,,,,,,,,0.006145833,-0.423315972,0,0,0,,0,40,40,54,1,TRIPOD,LB,old,m,./images/TRIPODLB.png,,,,,,,,,,,,,,,,,,,,,,,,,,,,,,,,,,
,,,,,,,,,,,,,,,,,610d3c0535871d8bfa25107f,19,2022-02-12_18h04.01.519,lexical_decision_task_DD_L3,2021.2.3,MacIntel,60.0024001,,,,,,,,,,,,0.7875,1,,,,,,,,,,,,,,m,1,0.7875,,,,,,,,0.006145833,-0.423315972,0,0,0,space,0,41,41,53,1,CARPET,HB,old,m,./images/CARPETHB.png,2.2325,,,,,,,,,,,,,,,,,,,,,,,,,,,,,,,,,
,,,,,,,,,,,,,,,,,610d3c0535871d8bfa25107f,19,2022-02-12_18h04.01.519,lexical_decision_task_DD_L3,2021.2.3,MacIntel,60.0024001,,,,,,,,,,,,0.8642,1,,,,,,,,,,,,,,z,1,0.8642,,,,,,,,0.006145833,-0.423315972,0,0,0,,0,42,42,94,1,BLANS,HB,old,z,./images/BLANSHB.png,,,,,,,,,,,,,,,,,,,,,,,,,,,,,,,,,,
,,,,,,,,,,,,,,,,,610d3c0535871d8bfa25107f,19,2022-02-12_18h04.01.519,lexical_decision_task_DD_L3,2021.2.3,MacIntel,60.0024001,,,,,,,,,,,,0.6881,1,,,,,,,,,,,,,,m,1,0.6881,,,,,,,,0.006145833,-0.423315972,0,0,0,,0,43,43,63,1,MIRROR,LB,old,m,./images/MIRRORLB.png,,,,,,,,,,,,,,,,,,,,,,,,,,,,,,,,,,
,,,,,,,,,,,,,,,,,610d3c0535871d8bfa25107f,19,2022-02-12_18h04.01.519,lexical_decision_task_DD_L3,2021.2.3,MacIntel,60.0024001,,,,,,,,,,,,0.6394,1,,,,,,,,,,,,,,m,1,0.6394,,,,,,,,0.006145833,-0.423315972,0,0,0,,0,44,44,34,1,CANYON,C,old,m,./images/CANYON.png,,,,,,,,,,,,,,,,,,,,,,,,,,,,,,,,,,
,,,,,,,,,,,,,,,,,610d3c0535871d8bfa25107f,19,2022-02-12_18h04.01.519,lexical_decision_task_DD_L3,2021.2.3,MacIntel,60.0024001,,,,,,,,,,,,0.6322,1,,,,,,,,,,,,,,m,1,0.6322,,,,,,,,0.006145833,-0.423315972,0,0,0,,0,45,45,24,1,SCREW,LB,old,m,./images/SCREWLB.png,,,,,,,,,,,,,,,,,,,,,,,,,,,,,,,,,,
,,,,,,,,,,,,,,,,,610d3c0535871d8bfa25107f,19,2022-02-12_18h04.01.519,lexical_decision_task_DD_L3,2021.2.3,MacIntel,60.0024001,,,,,,,,,,,,0.7113,1,,,,,,,,,,,,,,m,1,0.7113,,,,,,,,0.006145833,-0.423315972,0,0,0,,0,46,46,28,1,FALCON,C,old,m,./images/FALCON.png,,,,,,,,,,,,,,,,,,,,,,,,,,,,,,,,,,
,,,,,,,,,,,,,,,,,610d3c0535871d8bfa25107f,19,2022-02-12_18h04.01.519,lexical_decision_task_DD_L3,2021.2.3,MacIntel,60.0024001,,,,,,,,,,,,0.6171,1,,,,,,,,,,,,,,m,1,0.6171,,,,,,,,0.006145833,-0.423315972,0,0,0,,0,47,47,2,1,BEARD,HB,old,m,./images/BEARDHB.png,,,,,,,,,,,,,,,,,,,,,,,,,,,,,,,,,,
,,,,,,,,,,,,,,,,,610d3c0535871d8bfa25107f,19,2022-02-12_18h04.01.519,lexical_decision_task_DD_L3,2021.2.3,MacIntel,60.0024001,,,,,,,,,,,,0.713,1,,,,,,,,,,,,,,m,1,0.713,,,,,,,,0.006145833,-0.423315972,0,0,0,,0,48,48,10,1,BELLY,C,old,m,./images/BELLY.png,,,,,,,,,,,,,,,,,,,,,,,,,,,,,,,,,,
,,,,,,,,,,,,,,,,,610d3c0535871d8bfa25107f,19,2022-02-12_18h04.01.519,lexical_decision_task_DD_L3,2021.2.3,MacIntel,60.0024001,,,,,,,,,,,,0.8159,1,,,,,,,,,,,,,,m,1,0.8159,,,,,,,,0.006145833,-0.423315972,0,0,0,,0,49,49,68,1,TORCH,HB,old,m,./images/TORCHHB.png,,,,,,,,,,,,,,,,,,,,,,,,,,,,,,,,,,
,,,,,,,,,,,,,,,,,610d3c0535871d8bfa25107f,19,2022-02-12_18h04.01.519,lexical_decision_task_DD_L3,2021.2.3,MacIntel,60.0024001,,,,,,,,,,,,0.9314,1,,,,,,,,,,,,,,z,1,0.9314,,,,,,,,0.006145833,-0.423315972,0,0,0,,0,50,50,115,1,MAWNS,HB,old,z,./images/MAWNSHB.png,,,,,,,,,,,,,,,,,,,,,,,,,,,,,,,,,,
,,,,,,,,,,,,,,,,,610d3c0535871d8bfa25107f,19,2022-02-12_18h04.01.519,lexical_decision_task_DD_L3,2021.2.3,MacIntel,60.0024001,,,,,,,,,,,,0.7649,0,,,,,,,,,,,,,,z,0,0.7649,,,,,,,,0.006145833,-0.423315972,0,0,0,,0,51,51,44,1,LIZARD,HB,old,m,./images/LIZARDHB.png,,,,,,,,,,,,,,,,,,,,,,,,,,,,,,,,,,
,,,,,,,,,,,,,,,,,610d3c0535871d8bfa25107f,19,2022-02-12_18h04.01.519,lexical_decision_task_DD_L3,2021.2.3,MacIntel,60.0024001,,,,,,,,,,,,0.7337,1,,,,,,,,,,,,,,m,1,0.7337,,,,,,,,0.006145833,-0.423315972,0,0,0,,0,52,52,33,1,MAGGOT,LB,old,m,./images/MAGGOTLB.png,,,,,,,,,,,,,,,,,,,,,,,,,,,,,,,,,,
,,,,,,,,,,,,,,,,,610d3c0535871d8bfa25107f,19,2022-02-12_18h04.01.519,lexical_decision_task_DD_L3,2021.2.3,MacIntel,60.0024001,,,,,,,,,,,,1.1649,1,,,,,,,,,,,,,,z,1,1.1649,,,,,,,,0.006145833,-0.423315972,0,0,0,,0,53,53,145,1,LAMEL,HB,old,z,./images/LAMELHB.png,,,,,,,,,,,,,,,,,,,,,,,,,,,,,,,,,,
,,,,,,,,,,,,,,,,,610d3c0535871d8bfa25107f,19,2022-02-12_18h04.01.519,lexical_decision_task_DD_L3,2021.2.3,MacIntel,60.0024001,,,,,,,,,,,,0.6905,1,,,,,,,,,,,,,,m,1,0.6905,,,,,,,,0.006145833,-0.423315972,0,0,0,,0,54,54,62,1,PURSE,HB,old,m,./images/PURSEHB.png,,,,,,,,,,,,,,,,,,,,,,,,,,,,,,,,,,
,,,,,,,,,,,,,,,,,610d3c0535871d8bfa25107f,19,2022-02-12_18h04.01.519,lexical_decision_task_DD_L3,2021.2.3,MacIntel,60.0024001,,,,,,,,,,,,0.5867,1,,,,,,,,,,,,,,m,1,0.5867,,,,,,,,0.006145833,-0.423315972,0,0,0,,0,55,55,6,1,SQUARE,LB,old,m,./images/SQUARELB.png,,,,,,,,,,,,,,,,,,,,,,,,,,,,,,,,,,
,,,,,,,,,,,,,,,,,610d3c0535871d8bfa25107f,19,2022-02-12_18h04.01.519,lexical_decision_task_DD_L3,2021.2.3,MacIntel,60.0024001,,,,,,,,,,,,0.5229,1,,,,,,,,,,,,,,m,1,0.5229,,,,,,,,0.006145833,-0.423315972,0,0,0,,0,56,56,46,1,PEARL,C,old,m,./images/PEARL.png,,,,,,,,,,,,,,,,,,,,,,,,,,,,,,,,,,
,,,,,,,,,,,,,,,,,610d3c0535871d8bfa25107f,19,2022-02-12_18h04.01.519,lexical_decision_task_DD_L3,2021.2.3,MacIntel,60.0024001,,,,,,,,,,,,0.7814,1,,,,,,,,,,,,,,z,1,0.7814,,,,,,,,0.006145833,-0.423315972,0,0,0,,0,57,57,96,1,KEAMS,C,old,z,./images/KEAMS.png,,,,,,,,,,,,,,,,,,,,,,,,,,,,,,,,,,
,,,,,,,,,,,,,,,,,610d3c0535871d8bfa25107f,19,2022-02-12_18h04.01.519,lexical_decision_task_DD_L3,2021.2.3,MacIntel,60.0024001,,,,,,,,,,,,0.7887,1,,,,,,,,,,,,,,z,1,0.7887,,,,,,,,0.006145833,-0.423315972,0,0,0,,0,58,58,163,1,GAMBA,HB,old,z,./images/GAMBAHB.png,,,,,,,,,,,,,,,,,,,,,,,,,,,,,,,,,,
,,,,,,,,,,,,,,,,,610d3c0535871d8bfa25107f,19,2022-02-12_18h04.01.519,lexical_decision_task_DD_L3,2021.2.3,MacIntel,60.0024001,,,,,,,,,,,,0.5675,1,,,,,,,,,,,,,,m,1,0.5675,,,,,,,,0.006145833,-0.423315972,0,0,0,,0,59,59,51,1,ONION,LB,old,m,./images/ONIONLB.png,,,,,,,,,,,,,,,,,,,,,,,,,,,,,,,,,,
,,,,,,,,,,,,,,,,,610d3c0535871d8bfa25107f,19,2022-02-12_18h04.01.519,lexical_decision_task_DD_L3,2021.2.3,MacIntel,60.0024001,,,,,,,,,,,,0.6176,1,,,,,,,,,,,,,,m,1,0.6176,,,,,,,,0.006145833,-0.423315972,0,0,0,,0,60,60,45,1,KITTEN,LB,old,m,./images/KITTENLB.png,,,,,,,,,,,,,,,,,,,,,,,,,,,,,,,,,,
,,,,,,,,,,,,,,,,,610d3c0535871d8bfa25107f,19,2022-02-12_18h04.01.519,lexical_decision_task_DD_L3,2021.2.3,MacIntel,60.0024001,,,,,,,,,,,,0.7231,1,,,,,,,,,,,,,,m,1,0.7231,,,,,,,,0.006145833,-0.423315972,0,0,0,,0,61,61,49,1,DRUMS,C,old,m,./images/DRUMS.png,,,,,,,,,,,,,,,,,,,,,,,,,,,,,,,,,,
,,,,,,,,,,,,,,,,,610d3c0535871d8bfa25107f,19,2022-02-12_18h04.01.519,lexical_decision_task_DD_L3,2021.2.3,MacIntel,60.0024001,,,,,,,,,,,,0.8328,0,,,,,,,,,,,,,,m,0,0.8328,,,,,,,,0.006145833,-0.423315972,0,0,0,,0,62,62,166,1,SHORY,HB,old,z,./images/SHORYHB.png,,,,,,,,,,,,,,,,,,,,,,,,,,,,,,,,,,
,,,,,,,,,,,,,,,,,610d3c0535871d8bfa25107f,19,2022-02-12_18h04.01.519,lexical_decision_task_DD_L3,2021.2.3,MacIntel,60.0024001,,,,,,,,,,,,0.6728,1,,,,,,,,,,,,,,m,1,0.6728,,,,,,,,0.006145833,-0.423315972,0,0,0,,0,63,63,15,1,GREASE,LB,old,m,./images/GREASELB.png,,,,,,,,,,,,,,,,,,,,,,,,,,,,,,,,,,
,,,,,,,,,,,,,,,,,610d3c0535871d8bfa25107f,19,2022-02-12_18h04.01.519,lexical_decision_task_DD_L3,2021.2.3,MacIntel,60.0024001,,,,,,,,,,,,0.7205,1,,,,,,,,,,,,,,z,1,0.7205,,,,,,,,0.006145833,-0.423315972,0,0,0,,0,64,64,144,1,NAIRY,C,old,z,./images/NAIRY.png,,,,,,,,,,,,,,,,,,,,,,,,,,,,,,,,,,
,,,,,,,,,,,,,,,,,610d3c0535871d8bfa25107f,19,2022-02-12_18h04.01.519,lexical_decision_task_DD_L3,2021.2.3,MacIntel,60.0024001,,,,,,,,,,,,0.5749,1,,,,,,,,,,,,,,m,1,0.5749,,,,,,,,0.006145833,-0.423315972,0,0,0,,0,65,65,60,1,TWINS,LB,old,m,./images/TWINSLB.png,,,,,,,,,,,,,,,,,,,,,,,,,,,,,,,,,,
,,,,,,,,,,,,,,,,,610d3c0535871d8bfa25107f,19,2022-02-12_18h04.01.519,lexical_decision_task_DD_L3,2021.2.3,MacIntel,60.0024001,,,,,,,,,,,,0.6004,1,,,,,,,,,,,,,,m,1,0.6004,,,,,,,,0.006145833,-0.423315972,0,0,0,,0,66,66,72,1,NOOSE,LB,old,m,./images/NOOSELB.png,,,,,,,,,,,,,,,,,,,,,,,,,,,,,,,,,,
,,,,,,,,,,,,,,,,,610d3c0535871d8bfa25107f,19,2022-02-12_18h04.01.519,lexical_decision_task_DD_L3,2021.2.3,MacIntel,60.0024001,,,,,,,,,,,,0.7339,1,,,,,,,,,,,,,,z,1,0.7339,,,,,,,,0.006145833,-0.423315972,0,0,0,,0,67,67,148,1,JOMS,HB,old,z,./images/JOMSHB.png,,,,,,,,,,,,,,,,,,,,,,,,,,,,,,,,,,
,,,,,,,,,,,,,,,,,610d3c0535871d8bfa25107f,19,2022-02-12_18h04.01.519,lexical_decision_task_DD_L3,2021.2.3,MacIntel,60.0024001,,,,,,,,,,,,0.7782,1,,,,,,,,,,,,,,z,1,0.7782,,,,,,,,0.006145833,-0.423315972,0,0,0,,0,68,68,116,1,BALGY,LB,old,z,./images/BALGYLB.png,,,,,,,,,,,,,,,,,,,,,,,,,,,,,,,,,,
,,,,,,,,,,,,,,,,,610d3c0535871d8bfa25107f,19,2022-02-12_18h04.01.519,lexical_decision_task_DD_L3,2021.2.3,MacIntel,60.0024001,,,,,,,,,,,,0.5794,1,,,,,,,,,,,,,,z,1,0.5794,,,,,,,,0.006145833,-0.423315972,0,0,0,,0,69,69,114,1,RIKES,C,old,z,./images/RIKES.png,,,,,,,,,,,,,,,,,,,,,,,,,,,,,,,,,,
,,,,,,,,,,,,,,,,,610d3c0535871d8bfa25107f,19,2022-02-12_18h04.01.519,lexical_decision_task_DD_L3,2021.2.3,MacIntel,60.0024001,,,,,,,,,,,,0.642,1,,,,,,,,,,,,,,m,1,0.642,,,,,,,,0.006145833,-0.423315972,0,0,0,,0,70,70,26,1,SMOKER,HB,old,m,./images/SMOKERHB.png,,,,,,,,,,,,,,,,,,,,,,,,,,,,,,,,,,
,,,,,,,,,,,,,,,,,610d3c0535871d8bfa25107f,19,2022-02-12_18h04.01.519,lexical_decision_task_DD_L3,2021.2.3,MacIntel,60.0024001,,,,,,,,,,,,0.7364,1,,,,,,,,,,,,,,m,1,0.7364,,,,,,,,0.006145833,-0.423315972,0,0,0,,0,71,71,59,1,BURIAL,HB,old,m,./images/BURIALHB.png,,,,,,,,,,,,,,,,,,,,,,,,,,,,,,,,,,
,,,,,,,,,,,,,,,,,610d3c0535871d8bfa25107f,19,2022-02-12_18h04.01.519,lexical_decision_task_DD_L3,2021.2.3,MacIntel,60.0024001,,,,,,,,,,,,0.7859,1,,,,,,,,,,,,,,m,1,0.7859,,,,,,,,0.006145833,-0.423315972,0,0,0,,0,72,72,58,1,BABOON,C,old,m,./images/BABOON.png,,,,,,,,,,,,,,,,,,,,,,,,,,,,,,,,,,
,,,,,,,,,,,,,,,,,610d3c0535871d8bfa25107f,19,2022-02-12_18h04.01.519,lexical_decision_task_DD_L3,2021.2.3,MacIntel,60.0024001,,,,,,,,,,,,1.0763,1,,,,,,,,,,,,,,m,1,1.0763,,,,,,,,0.006145833,-0.423315972,0,0,0,,0,73,73,56,1,PACKET,HB,old,m,./images/PACKETHB.png,,,,,,,,,,,,,,,,,,,,,,,,,,,,,,,,,,
,,,,,,,,,,,,,,,,,610d3c0535871d8bfa25107f,19,2022-02-12_18h04.01.519,lexical_decision_task_DD_L3,2021.2.3,MacIntel,60.0024001,,,,,,,,,,,,0.7674,1,,,,,,,,,,,,,,z,1,0.7674,,,,,,,,0.006145833,-0.423315972,0,0,0,,0,74,74,131,1,NACES,LB,old,z,./images/NACESLB.png,,,,,,,,,,,,,,,,,,,,,,,,,,,,,,,,,,
,,,,,,,,,,,,,,,,,610d3c0535871d8bfa25107f,19,2022-02-12_18h04.01.519,lexical_decision_task_DD_L3,2021.2.3,MacIntel,60.0024001,,,,,,,,,,,,0.7053,1,,,,,,,,,,,,,,z,1,0.7053,,,,,,,,0.006145833,-0.423315972,0,0,0,,0,75,75,123,1,SEDGE,C,old,z,./images/SEDGE.png,,,,,,,,,,,,,,,,,,,,,,,,,,,,,,,,,,
,,,,,,,,,,,,,,,,,610d3c0535871d8bfa25107f,19,2022-02-12_18h04.01.519,lexical_decision_task_DD_L3,2021.2.3,MacIntel,60.0024001,,,,,,,,,,,,0.5981,1,,,,,,,,,,,,,,z,1,0.5981,,,,,,,,0.006145833,-0.423315972,0,0,0,,0,76,76,162,1,LEICH,C,old,z,./images/LEICH.png,,,,,,,,,,,,,,,,,,,,,,,,,,,,,,,,,,
,,,,,,,,,,,,,,,,,610d3c0535871d8bfa25107f,19,2022-02-12_18h04.01.519,lexical_decision_task_DD_L3,2021.2.3,MacIntel,60.0024001,,,,,,,,,,,,0.6177,1,,,,,,,,,,,,,,z,1,0.6177,,,,,,,,0.006145833,-0.423315972,0,0,0,,0,77,77,101,1,GLEET,LB,old,z,./images/GLEETLB.png,,,,,,,,,,,,,,,,,,,,,,,,,,,,,,,,,,
,,,,,,,,,,,,,,,,,610d3c0535871d8bfa25107f,19,2022-02-12_18h04.01.519,lexical_decision_task_DD_L3,2021.2.3,MacIntel,60.0024001,,,,,,,,,,,,0.6218,1,,,,,,,,,,,,,,m,1,0.6218,,,,,,,,0.006145833,-0.423315972,0,0,0,,0,78,78,3,1,FINGER,LB,old,m,./images/FINGERLB.png,,,,,,,,,,,,,,,,,,,,,,,,,,,,,,,,,,
,,,,,,,,,,,,,,,,,610d3c0535871d8bfa25107f,19,2022-02-12_18h04.01.519,lexical_decision_task_DD_L3,2021.2.3,MacIntel,60.0024001,,,,,,,,,,,,0.5879,1,,,,,,,,,,,,,,m,1,0.5879,,,,,,,,0.006145833,-0.423315972,0,0,0,,0,79,79,14,1,PICKLE,HB,old,m,./images/PICKLEHB.png,,,,,,,,,,,,,,,,,,,,,,,,,,,,,,,,,,
,,,,,,,,,,,,,,,,,610d3c0535871d8bfa25107f,19,2022-02-12_18h04.01.519,lexical_decision_task_DD_L3,2021.2.3,MacIntel,60.0024001,,,,,,,,,,,,0.6192,1,,,,,,,,,,,,,,z,1,0.6192,,,,,,,,0.006145833,-0.423315972,0,0,0,,0,80,80,150,1,NOOLS,C,old,z,./images/NOOLS.png,,,,,,,,,,,,,,,,,,,,,,,,,,,,,,,,,,
,,,,,,,,,,,,,,,,,610d3c0535871d8bfa25107f,19,2022-02-12_18h04.01.519,lexical_decision_task_DD_L3,2021.2.3,MacIntel,60.0024001,,,,,,,,,,,,1.0162,0,,,,,,,,,,,,,,m,0,1.0162,,,,,,,,0.006145833,-0.423315972,0,0,0,,0,81,81,100,1,DRIBS,HB,old,z,./images/DRIBSHB.png,,,,,,,,,,,,,,,,,,,,,,,,,,,,,,,,,,
,,,,,,,,,,,,,,,,,610d3c0535871d8bfa25107f,19,2022-02-12_18h04.01.519,lexical_decision_task_DD_L3,2021.2.3,MacIntel,60.0024001,,,,,,,,,,,,0.5912,1,,,,,,,,,,,,,,m,1,0.5912,,,,,,,,0.006145833,-0.423315972,0,0,0,,0,82,82,67,1,SAILOR,C,old,m,./images/SAILOR.png,,,,,,,,,,,,,,,,,,,,,,,,,,,,,,,,,,
,,,,,,,,,,,,,,,,,610d3c0535871d8bfa25107f,19,2022-02-12_18h04.01.519,lexical_decision_task_DD_L3,2021.2.3,MacIntel,60.0024001,,,,,,,,,,,,0.807,1,,,,,,,,,,,,,,z,1,0.807,,,,,,,,0.006145833,-0.423315972,0,0,0,space,0,83,83,167,1,ZONET,LB,old,z,./images/ZONETLB.png,1.1129,,,,,,,,,,,,,,,,,,,,,,,,,,,,,,,,,
,,,,,,,,,,,,,,,,,610d3c0535871d8bfa25107f,19,2022-02-12_18h04.01.519,lexical_decision_task_DD_L3,2021.2.3,MacIntel,60.0024001,,,,,,,,,,,,0.8168,1,,,,,,,,,,,,,,z,1,0.8168,,,,,,,,0.006145833,-0.423315972,0,0,0,,0,84,84,121,1,CEERS,HB,old,z,./images/CEERSHB.png,,,,,,,,,,,,,,,,,,,,,,,,,,,,,,,,,,
,,,,,,,,,,,,,,,,,610d3c0535871d8bfa25107f,19,2022-02-12_18h04.01.519,lexical_decision_task_DD_L3,2021.2.3,MacIntel,60.0024001,,,,,,,,,,,,0.5361,1,,,,,,,,,,,,,,z,1,0.5361,,,,,,,,0.006145833,-0.423315972,0,0,0,,0,85,85,147,1,ZOLES,C,old,z,./images/ZOLES.png,,,,,,,,,,,,,,,,,,,,,,,,,,,,,,,,,,
,,,,,,,,,,,,,,,,,610d3c0535871d8bfa25107f,19,2022-02-12_18h04.01.519,lexical_decision_task_DD_L3,2021.2.3,MacIntel,60.0024001,,,,,,,,,,,,0.553,1,,,,,,,,,,,,,,m,1,0.553,,,,,,,,0.006145833,-0.423315972,0,0,0,,0,86,86,12,1,SHORE,LB,old,m,./images/SHORELB.png,,,,,,,,,,,,,,,,,,,,,,,,,,,,,,,,,,
,,,,,,,,,,,,,,,,,610d3c0535871d8bfa25107f,19,2022-02-12_18h04.01.519,lexical_decision_task_DD_L3,2021.2.3,MacIntel,60.0024001,,,,,,,,,,,,0.7304,1,,,,,,,,,,,,,,z,1,0.7304,,,,,,,,0.006145833,-0.423315972,0,0,0,,0,87,87,160,1,VEETS,HB,old,z,./images/VEETSHB.png,,,,,,,,,,,,,,,,,,,,,,,,,,,,,,,,,,
,,,,,,,,,,,,,,,,,610d3c0535871d8bfa25107f,19,2022-02-12_18h04.01.519,lexical_decision_task_DD_L3,2021.2.3,MacIntel,60.0024001,,,,,,,,,,,,0.6129,1,,,,,,,,,,,,,,m,1,0.6129,,,,,,,,0.006145833,-0.423315972,0,0,0,,0,88,88,40,1,SWING,C,old,m,./images/SWING.png,,,,,,,,,,,,,,,,,,,,,,,,,,,,,,,,,,
,,,,,,,,,,,,,,,,,610d3c0535871d8bfa25107f,19,2022-02-12_18h04.01.519,lexical_decision_task_DD_L3,2021.2.3,MacIntel,60.0024001,,,,,,,,,,,,0.628,1,,,,,,,,,,,,,,z,1,0.628,,,,,,,,0.006145833,-0.423315972,0,0,0,,0,89,89,89,1,DRIEK,LB,old,z,./images/DRIEKLB.png,,,,,,,,,,,,,,,,,,,,,,,,,,,,,,,,,,
,,,,,,,,,,,,,,,,,610d3c0535871d8bfa25107f,19,2022-02-12_18h04.01.519,lexical_decision_task_DD_L3,2021.2.3,MacIntel,60.0024001,,,,,,,,,,,,0.5666,1,,,,,,,,,,,,,,m,1,0.5666,,,,,,,,0.006145833,-0.423315972,0,0,0,,0,90,90,39,1,SHELF,LB,old,m,./images/SHELFLB.png,,,,,,,,,,,,,,,,,,,,,,,,,,,,,,,,,,
,,,,,,,,,,,,,,,,,610d3c0535871d8bfa25107f,19,2022-02-12_18h04.01.519,lexical_decision_task_DD_L3,2021.2.3,MacIntel,60.0024001,,,,,,,,,,,,0.7609,0,,,,,,,,,,,,,,z,0,0.7609,,,,,,,,0.006145833,-0.423315972,0,0,0,,0,91,91,17,1,SKIING,HB,old,m,./images/SKIINGHB.png,,,,,,,,,,,,,,,,,,,,,,,,,,,,,,,,,,
,,,,,,,,,,,,,,,,,610d3c0535871d8bfa25107f,19,2022-02-12_18h04.01.519,lexical_decision_task_DD_L3,2021.2.3,MacIntel,60.0024001,,,,,,,,,,,,0.5855,1,,,,,,,,,,,,,,z,1,0.5855,,,,,,,,0.006145833,-0.423315972,0,0,0,,0,92,92,119,1,PAFER,LB,old,z,./images/PAFERLB.png,,,,,,,,,,,,,,,,,,,,,,,,,,,,,,,,,,
,,,,,,,,,,,,,,,,,610d3c0535871d8bfa25107f,19,2022-02-12_18h04.01.519,lexical_decision_task_DD_L3,2021.2.3,MacIntel,60.0024001,,,,,,,,,,,,0.6446,1,,,,,,,,,,,,,,z,1,0.6446,,,,,,,,0.006145833,-0.423315972,0,0,0,,0,93,93,102,1,DULLE,C,old,z,./images/DULLE.png,,,,,,,,,,,,,,,,,,,,,,,,,,,,,,,,,,
,,,,,,,,,,,,,,,,,610d3c0535871d8bfa25107f,19,2022-02-12_18h04.01.519,lexical_decision_task_DD_L3,2021.2.3,MacIntel,60.0024001,,,,,,,,,,,,0.506,1,,,,,,,,,,,,,,m,1,0.506,,,,,,,,0.006145833,-0.423315972,0,0,0,,0,94,94,25,1,WRIST,C,old,m,./images/WRIST.png,,,,,,,,,,,,,,,,,,,,,,,,,,,,,,,,,,
,,,,,,,,,,,,,,,,,610d3c0535871d8bfa25107f,19,2022-02-12_18h04.01.519,lexical_decision_task_DD_L3,2021.2.3,MacIntel,60.0024001,,,,,,,,,,,,0.7245,1,,,,,,,,,,,,,,z,1,0.7245,,,,,,,,0.006145833,-0.423315972,0,0,0,,0,95,95,91,1,SHENS,HB,old,z,./images/SHENSHB.png,,,,,,,,,,,,,,,,,,,,,,,,,,,,,,,,,,
,,,,,,,,,,,,,,,,,610d3c0535871d8bfa25107f,19,2022-02-12_18h04.01.519,lexical_decision_task_DD_L3,2021.2.3,MacIntel,60.0024001,,,,,,,,,,,,0.5096,1,,,,,,,,,,,,,,z,1,0.5096,,,,,,,,0.006145833,-0.423315972,0,0,0,,0,96,96,98,1,BAMPS,LB,old,z,./images/BAMPSLB.png,,,,,,,,,,,,,,,,,,,,,,,,,,,,,,,,,,
,,,,,,,,,,,,,,,,,610d3c0535871d8bfa25107f,19,2022-02-12_18h04.01.519,lexical_decision_task_DD_L3,2021.2.3,MacIntel,60.0024001,,,,,,,,,,,,0.5009,0,,,,,,,,,,,,,,z,0,0.5009,,,,,,,,0.006145833,-0.423315972,0,0,0,,0,97,97,11,1,BONNET,HB,old,m,./images/BONNETHB.png,,,,,,,,,,,,,,,,,,,,,,,,,,,,,,,,,,
,,,,,,,,,,,,,,,,,610d3c0535871d8bfa25107f,19,2022-02-12_18h04.01.519,lexical_decision_task_DD_L3,2021.2.3,MacIntel,60.0024001,,,,,,,,,,,,0.4264,1,,,,,,,,,,,,,,z,1,0.4264,,,,,,,,0.006145833,-0.423315972,0,0,0,,0,98,98,151,1,TINKY,HB,old,z,./images/TINKYHB.png,,,,,,,,,,,,,,,,,,,,,,,,,,,,,,,,,,
,,,,,,,,,,,,,,,,,610d3c0535871d8bfa25107f,19,2022-02-12_18h04.01.519,lexical_decision_task_DD_L3,2021.2.3,MacIntel,60.0024001,,,,,,,,,,,,0.7362,1,,,,,,,,,,,,,,z,1,0.7362,,,,,,,,0.006145833,-0.423315972,0,0,0,,0,99,99,106,1,CLUMS,HB,old,z,./images/CLUMSHB.png,,,,,,,,,,,,,,,,,,,,,,,,,,,,,,,,,,
,,,,,,,,,,,,,,,,,610d3c0535871d8bfa25107f,19,2022-02-12_18h04.01.519,lexical_decision_task_DD_L3,2021.2.3,MacIntel,60.0024001,,,,,,,,,,,,0.5753,1,,,,,,,,,,,,,,m,1,0.5753,,,,,,,,0.006145833,-0.423315972,0,0,0,,0,100,100,69,1,COOKER,LB,old,m,./images/COOKERLB.png,,,,,,,,,,,,,,,,,,,,,,,,,,,,,,,,,,
,,,,,,,,,,,,,,,,,610d3c0535871d8bfa25107f,19,2022-02-12_18h04.01.519,lexical_decision_task_DD_L3,2021.2.3,MacIntel,60.0024001,,,,,,,,,,,,0.573,1,,,,,,,,,,,,,,z,1,0.573,,,,,,,,0.006145833,-0.423315972,0,0,0,,0,101,101,158,1,EGECT,LB,old,z,./images/EGECTLB.png,,,,,,,,,,,,,,,,,,,,,,,,,,,,,,,,,,
,,,,,,,,,,,,,,,,,610d3c0535871d8bfa25107f,19,2022-02-12_18h04.01.519,lexical_decision_task_DD_L3,2021.2.3,MacIntel,60.0024001,,,,,,,,,,,,1.1754,1,,,,,,,,,,,,,,m,1,1.1754,,,,,,,,0.006145833,-0.423315972,0,0,0,,0,102,102,43,1,MOSQUE,C,old,m,./images/MOSQUE.png,,,,,,,,,,,,,,,,,,,,,,,,,,,,,,,,,,
,,,,,,,,,,,,,,,,,610d3c0535871d8bfa25107f,19,2022-02-12_18h04.01.519,lexical_decision_task_DD_L3,2021.2.3,MacIntel,60.0024001,,,,,,,,,,,,0.613,1,,,,,,,,,,,,,,z,1,0.613,,,,,,,,0.006145833,-0.423315972,0,0,0,,0,103,103,135,1,JOODY,C,old,z,./images/JOODY.png,,,,,,,,,,,,,,,,,,,,,,,,,,,,,,,,,,
,,,,,,,,,,,,,,,,,610d3c0535871d8bfa25107f,19,2022-02-12_18h04.01.519,lexical_decision_task_DD_L3,2021.2.3,MacIntel,60.0024001,,,,,,,,,,,,0.5808,1,,,,,,,,,,,,,,m,1,0.5808,,,,,,,,0.006145833,-0.423315972,0,0,0,,0,104,104,77,1,COUCH,HB,old,m,./images/COUCHHB.png,,,,,,,,,,,,,,,,,,,,,,,,,,,,,,,,,,
,,,,,,,,,,,,,,,,,610d3c0535871d8bfa25107f,19,2022-02-12_18h04.01.519,lexical_decision_task_DD_L3,2021.2.3,MacIntel,60.0024001,,,,,,,,,,,,0.5519,0,,,,,,,,,,,,,,z,0,0.5519,,,,,,,,0.006145833,-0.423315972,0,0,0,,0,105,105,16,1,PENCE,C,old,m,./images/PENCE.png,,,,,,,,,,,,,,,,,,,,,,,,,,,,,,,,,,
,,,,,,,,,,,,,,,,,610d3c0535871d8bfa25107f,19,2022-02-12_18h04.01.519,lexical_decision_task_DD_L3,2021.2.3,MacIntel,60.0024001,,,,,,,,,,,,1.1204,1,,,,,,,,,,,,,,z,1,1.1204,,,,,,,,0.006145833,-0.423315972,0,0,0,,0,106,106,107,1,FASKS,LB,old,z,./images/FASKSLB.png,,,,,,,,,,,,,,,,,,,,,,,,,,,,,,,,,,
,,,,,,,,,,,,,,,,,610d3c0535871d8bfa25107f,19,2022-02-12_18h04.01.519,lexical_decision_task_DD_L3,2021.2.3,MacIntel,60.0024001,,,,,,,,,,,,0.7119,1,,,,,,,,,,,,,,z,1,0.7119,,,,,,,,0.006145833,-0.423315972,0,0,0,,0,107,107,108,1,GRUET,C,old,z,./images/GRUET.png,,,,,,,,,,,,,,,,,,,,,,,,,,,,,,,,,,
,,,,,,,,,,,,,,,,,610d3c0535871d8bfa25107f,19,2022-02-12_18h04.01.519,lexical_decision_task_DD_L3,2021.2.3,MacIntel,60.0024001,,,,,,,,,,,,0.5245,1,,,,,,,,,,,,,,z,1,0.5245,,,,,,,,0.006145833,-0.423315972,0,0,0,,0,108,108,156,1,HIXES,C,old,z,./images/HIXES.png,,,,,,,,,,,,,,,,,,,,,,,,,,,,,,,,,,
,,,,,,,,,,,,,,,,,610d3c0535871d8bfa25107f,19,2022-02-12_18h04.01.519,lexical_decision_task_DD_L3,2021.2.3,MacIntel,60.0024001,,,,,,,,,,,,0.5826,1,,,,,,,,,,,,,,m,1,0.5826,,,,,,,,0.006145833,-0.423315972,0,0,0,,0,109,109,4,1,MUSCLE,C,old,m,./images/MUSCLE.png,,,,,,,,,,,,,,,,,,,,,,,,,,,,,,,,,,
,,,,,,,,,,,,,,,,,610d3c0535871d8bfa25107f,19,2022-02-12_18h04.01.519,lexical_decision_task_DD_L3,2021.2.3,MacIntel,60.0024001,,,,,,,,,,,,0.549,1,,,,,,,,,,,,,,z,1,0.549,,,,,,,,0.006145833,-0.423315972,0,0,0,,0,110,110,140,1,DOVET,LB,old,z,./images/DOVETLB.png,,,,,,,,,,,,,,,,,,,,,,,,,,,,,,,,,,
,,,,,,,,,,,,,,,,,610d3c0535871d8bfa25107f,19,2022-02-12_18h04.01.519,lexical_decision_task_DD_L3,2021.2.3,MacIntel,60.0024001,,,,,,,,,,,,0.5587,1,,,,,,,,,,,,,,z,1,0.5587,,,,,,,,0.006145833,-0.423315972,0,0,0,,0,111,111,118,1,BAVEL,HB,old,z,./images/BAVELHB.png,,,,,,,,,,,,,,,,,,,,,,,,,,,,,,,,,,
,,,,,,,,,,,,,,,,,610d3c0535871d8bfa25107f,19,2022-02-12_18h04.01.519,lexical_decision_task_DD_L3,2021.2.3,MacIntel,60.0024001,,,,,,,,,,,,0.6019,1,,,,,,,,,,,,,,m,1,0.6019,,,,,,,,0.006145833,-0.423315972,0,0,0,,0,112,112,20,1,CRADLE,HB,old,m,./images/CRADLEHB.png,,,,,,,,,,,,,,,,,,,,,,,,,,,,,,,,,,
,,,,,,,,,,,,,,,,,610d3c0535871d8bfa25107f,19,2022-02-12_18h04.01.519,lexical_decision_task_DD_L3,2021.2.3,MacIntel,60.0024001,,,,,,,,,,,,0.5942,1,,,,,,,,,,,,,,m,1,0.5942,,,,,,,,0.006145833,-0.423315972,0,0,0,,0,113,113,27,1,ATTIC,LB,old,m,./images/ATTICLB.png,,,,,,,,,,,,,,,,,,,,,,,,,,,,,,,,,,
,,,,,,,,,,,,,,,,,610d3c0535871d8bfa25107f,19,2022-02-12_18h04.01.519,lexical_decision_task_DD_L3,2021.2.3,MacIntel,60.0024001,,,,,,,,,,,,0.6803,1,,,,,,,,,,,,,,m,1,0.6803,,,,,,,,0.006145833,-0.423315972,0,0,0,,0,114,114,78,1,LITTER,LB,old,m,./images/LITTERLB.png,,,,,,,,,,,,,,,,,,,,,,,,,,,,,,,,,,
,,,,,,,,,,,,,,,,,610d3c0535871d8bfa25107f,19,2022-02-12_18h04.01.519,lexical_decision_task_DD_L3,2021.2.3,MacIntel,60.0024001,,,,,,,,,,,,0.7754,1,,,,,,,,,,,,,,z,1,0.7754,,,,,,,,0.006145833,-0.423315972,0,0,0,,0,115,115,134,1,TROSS,LB,old,z,./images/TROSSLB.png,,,,,,,,,,,,,,,,,,,,,,,,,,,,,,,,,,
,,,,,,,,,,,,,,,,,610d3c0535871d8bfa25107f,19,2022-02-12_18h04.01.519,lexical_decision_task_DD_L3,2021.2.3,MacIntel,60.0024001,,,,,,,,,,,,0.5943,1,,,,,,,,,,,,,,z,1,0.5943,,,,,,,,0.006145833,-0.423315972,0,0,0,,0,116,116,152,1,FRAIN,LB,old,z,./images/FRAINLB.png,,,,,,,,,,,,,,,,,,,,,,,,,,,,,,,,,,
,,,,,,,,,,,,,,,,,610d3c0535871d8bfa25107f,19,2022-02-12_18h04.01.519,lexical_decision_task_DD_L3,2021.2.3,MacIntel,60.0024001,,,,,,,,,,,,0.9814,1,,,,,,,,,,,,,,z,1,0.9814,,,,,,,,0.006145833,-0.423315972,0,0,0,,0,117,117,139,1,BLEAR,HB,old,z,./images/BLEARHB.png,,,,,,,,,,,,,,,,,,,,,,,,,,,,,,,,,,
,,,,,,,,,,,,,,,,,610d3c0535871d8bfa25107f,19,2022-02-12_18h04.01.519,lexical_decision_task_DD_L3,2021.2.3,MacIntel,60.0024001,,,,,,,,,,,,0.5257,1,,,,,,,,,,,,,,m,1,0.5257,,,,,,,,0.006145833,-0.423315972,0,0,0,,0,118,118,36,1,THROAT,LB,old,m,./images/THROATLB.png,,,,,,,,,,,,,,,,,,,,,,,,,,,,,,,,,,
,,,,,,,,,,,,,,,,,610d3c0535871d8bfa25107f,19,2022-02-12_18h04.01.519,lexical_decision_task_DD_L3,2021.2.3,MacIntel,60.0024001,,,,,,,,,,,,0.5658,1,,,,,,,,,,,,,,z,1,0.5658,,,,,,,,0.006145833,-0.423315972,0,0,0,,0,119,119,124,1,TUNCH,HB,old,z,./images/TUNCHHB.png,,,,,,,,,,,,,,,,,,,,,,,,,,,,,,,,,,
,,,,,,,,,,,,,,,,,610d3c0535871d8bfa25107f,19,2022-02-12_18h04.01.519,lexical_decision_task_DD_L3,2021.2.3,MacIntel,60.0024001,,,,,,,,,,,,0.7027,1,,,,,,,,,,,,,,z,1,0.7027,,,,,,,,0.006145833,-0.423315972,0,0,0,,0,120,120,105,1,MOKER,C,old,z,./images/MOKER.png,,,,,,,,,,,,,,,,,,,,,,,,,,,,,,,,,,
,,,,,,,,,,,,,,,,,610d3c0535871d8bfa25107f,19,2022-02-12_18h04.01.519,lexical_decision_task_DD_L3,2021.2.3,MacIntel,60.0024001,,,,,,,,,,,,0.6077,1,,,,,,,,,,,,,,m,1,0.6077,,,,,,,,0.006145833,-0.423315972,0,0,0,,0,121,121,76,1,INFANT,C,old,m,./images/INFANT.png,,,,,,,,,,,,,,,,,,,,,,,,,,,,,,,,,,
,,,,,,,,,,,,,,,,,610d3c0535871d8bfa25107f,19,2022-02-12_18h04.01.519,lexical_decision_task_DD_L3,2021.2.3,MacIntel,60.0024001,,,,,,,,,,,,0.5903,1,,,,,,,,,,,,,,m,1,0.5903,,,,,,,,0.006145833,-0.423315972,0,0,0,,0,122,122,9,1,RHINO,LB,old,m,./images/RHINOLB.png,,,,,,,,,,,,,,,,,,,,,,,,,,,,,,,,,,
,,,,,,,,,,,,,,,,,610d3c0535871d8bfa25107f,19,2022-02-12_18h04.01.519,lexical_decision_task_DD_L3,2021.2.3,MacIntel,60.0024001,,,,,,,,,,,,0.5885,1,,,,,,,,,,,,,,z,1,0.5885,,,,,,,,0.006145833,-0.423315972,0,0,0,,0,123,123,155,1,CANGY,LB,old,z,./images/CANGYLB.png,,,,,,,,,,,,,,,,,,,,,,,,,,,,,,,,,,
,,,,,,,,,,,,,,,,,610d3c0535871d8bfa25107f,19,2022-02-12_18h04.01.519,lexical_decision_task_DD_L3,2021.2.3,MacIntel,60.0024001,,,,,,,,,,,,0.6468,1,,,,,,,,,,,,,,z,1,0.6468,,,,,,,,0.006145833,-0.423315972,0,0,0,,0,124,124,92,1,PAIMS,LB,old,z,./images/PAIMSLB.png,,,,,,,,,,,,,,,,,,,,,,,,,,,,,,,,,,
,,,,,,,,,,,,,,,,,610d3c0535871d8bfa25107f,19,2022-02-12_18h04.01.519,lexical_decision_task_DD_L3,2021.2.3,MacIntel,60.0024001,,,,,,,,,,,,0.7935,1,,,,,,,,,,,,,,m,1,0.7935,,,,,,,,0.006145833,-0.423315972,0,0,0,space,0,125,125,5,1,PASTA,HB,old,m,./images/PASTAHB.png,5.7981,,,,,,,,,,,,,,,,,,,,,,,,,,,,,,,,,
,,,,,,,,,,,,,,,,,610d3c0535871d8bfa25107f,19,2022-02-12_18h04.01.519,lexical_decision_task_DD_L3,2021.2.3,MacIntel,60.0024001,,,,,,,,,,,,0.6377,1,,,,,,,,,,,,,,z,1,0.6377,,,,,,,,0.006145833,-0.423315972,0,0,0,,0,126,126,87,1,TRING,C,old,z,./images/TRING.png,,,,,,,,,,,,,,,,,,,,,,,,,,,,,,,,,,
,,,,,,,,,,,,,,,,,610d3c0535871d8bfa25107f,19,2022-02-12_18h04.01.519,lexical_decision_task_DD_L3,2021.2.3,MacIntel,60.0024001,,,,,,,,,,,,0.5793,1,,,,,,,,,,,,,,m,1,0.5793,,,,,,,,0.006145833,-0.423315972,0,0,0,,0,127,127,18,1,JAGUAR,LB,old,m,./images/JAGUARLB.png,,,,,,,,,,,,,,,,,,,,,,,,,,,,,,,,,,
,,,,,,,,,,,,,,,,,610d3c0535871d8bfa25107f,19,2022-02-12_18h04.01.519,lexical_decision_task_DD_L3,2021.2.3,MacIntel,60.0024001,,,,,,,,,,,,0.7559,1,,,,,,,,,,,,,,z,1,0.7559,,,,,,,,0.006145833,-0.423315972,0,0,0,,0,128,128,86,1,AIFED,LB,old,z,./images/AIFEDLB.png,,,,,,,,,,,,,,,,,,,,,,,,,,,,,,,,,,
,,,,,,,,,,,,,,,,,610d3c0535871d8bfa25107f,19,2022-02-12_18h04.01.519,lexical_decision_task_DD_L3,2021.2.3,MacIntel,60.0024001,,,,,,,,,,,,0.7536,1,,,,,,,,,,,,,,z,1,0.7536,,,,,,,,0.006145833,-0.423315972,0,0,0,,0,129,129,120,1,RINED,C,old,z,./images/RINED.png,,,,,,,,,,,,,,,,,,,,,,,,,,,,,,,,,,
,,,,,,,,,,,,,,,,,610d3c0535871d8bfa25107f,19,2022-02-12_18h04.01.519,lexical_decision_task_DD_L3,2021.2.3,MacIntel,60.0024001,,,,,,,,,,,,0.613,1,,,,,,,,,,,,,,z,1,0.613,,,,,,,,0.006145833,-0.423315972,0,0,0,,0,130,130,138,1,PLICE,C,old,z,./images/PLICE.png,,,,,,,,,,,,,,,,,,,,,,,,,,,,,,,,,,
,,,,,,,,,,,,,,,,,610d3c0535871d8bfa25107f,19,2022-02-12_18h04.01.519,lexical_decision_task_DD_L3,2021.2.3,MacIntel,60.0024001,,,,,,,,,,,,0.6724,1,,,,,,,,,,,,,,z,1,0.6724,,,,,,,,0.006145833,-0.423315972,0,0,0,,0,131,131,93,1,SMONE,C,old,z,./images/SMONE.png,,,,,,,,,,,,,,,,,,,,,,,,,,,,,,,,,,
,,,,,,,,,,,,,,,,,610d3c0535871d8bfa25107f,19,2022-02-12_18h04.01.519,lexical_decision_task_DD_L3,2021.2.3,MacIntel,60.0024001,,,,,,,,,,,,0.5535,1,,,,,,,,,,,,,,m,1,0.5535,,,,,,,,0.006145833,-0.423315972,0,0,0,,0,132,132,82,1,SUNSET,C,old,m,./images/SUNSET.png,,,,,,,,,,,,,,,,,,,,,,,,,,,,,,,,,,
,,,,,,,,,,,,,,,,,610d3c0535871d8bfa25107f,19,2022-02-12_18h04.01.519,lexical_decision_task_DD_L3,2021.2.3,MacIntel,60.0024001,,,,,,,,,,,,0.5826,1,,,,,,,,,,,,,,m,1,0.5826,,,,,,,,0.006145833,-0.423315972,0,0,0,,0,133,133,21,1,KIDNEY,LB,old,m,./images/KIDNEYLB.png,,,,,,,,,,,,,,,,,,,,,,,,,,,,,,,,,,
,,,,,,,,,,,,,,,,,610d3c0535871d8bfa25107f,19,2022-02-12_18h04.01.519,lexical_decision_task_DD_L3,2021.2.3,MacIntel,60.0024001,,,,,,,,,,,,0.6642,1,,,,,,,,,,,,,,z,1,0.6642,,,,,,,,0.006145833,-0.423315972,0,0,0,,0,134,134,109,1,BURGE,HB,old,z,./images/BURGEHB.png,,,,,,,,,,,,,,,,,,,,,,,,,,,,,,,,,,
,,,,,,,,,,,,,,,,,610d3c0535871d8bfa25107f,19,2022-02-12_18h04.01.519,lexical_decision_task_DD_L3,2021.2.3,MacIntel,60.0024001,,,,,,,,,,,,0.7164,1,,,,,,,,,,,,,,z,1,0.7164,,,,,,,,0.006145833,-0.423315972,0,0,0,,0,135,135,142,1,PLASK,HB,old,z,./images/PLASKHB.png,,,,,,,,,,,,,,,,,,,,,,,,,,,,,,,,,,
,,,,,,,,,,,,,,,,,610d3c0535871d8bfa25107f,19,2022-02-12_18h04.01.519,lexical_decision_task_DD_L3,2021.2.3,MacIntel,60.0024001,,,,,,,,,,,,0.8237,1,,,,,,,,,,,,,,m,1,0.8237,,,,,,,,0.006145833,-0.423315972,0,0,0,,0,136,136,50,1,MALLET,HB,old,m,./images/MALLETHB.png,,,,,,,,,,,,,,,,,,,,,,,,,,,,,,,,,,
,,,,,,,,,,,,,,,,,610d3c0535871d8bfa25107f,19,2022-02-12_18h04.01.519,lexical_decision_task_DD_L3,2021.2.3,MacIntel,60.0024001,,,,,,,,,,,,0.5775,1,,,,,,,,,,,,,,m,1,0.5775,,,,,,,,0.006145833,-0.423315972,0,0,0,,0,137,137,22,1,MELON,C,old,m,./images/MELON.png,,,,,,,,,,,,,,,,,,,,,,,,,,,,,,,,,,
,,,,,,,,,,,,,,,,,610d3c0535871d8bfa25107f,19,2022-02-12_18h04.01.519,lexical_decision_task_DD_L3,2021.2.3,MacIntel,60.0024001,,,,,,,,,,,,0.5457,1,,,,,,,,,,,,,,z,1,0.5457,,,,,,,,0.006145833,-0.423315972,0,0,0,,0,138,138,117,1,STEEG,C,old,z,./images/STEEG.png,,,,,,,,,,,,,,,,,,,,,,,,,,,,,,,,,,
,,,,,,,,,,,,,,,,,610d3c0535871d8bfa25107f,19,2022-02-12_18h04.01.519,lexical_decision_task_DD_L3,2021.2.3,MacIntel,60.0024001,,,,,,,,,,,,0.6165,1,,,,,,,,,,,,,,z,1,0.6165,,,,,,,,0.006145833,-0.423315972,0,0,0,,0,139,139,154,1,THINT,HB,old,z,./images/THINTHB.png,,,,,,,,,,,,,,,,,,,,,,,,,,,,,,,,,,
,,,,,,,,,,,,,,,,,610d3c0535871d8bfa25107f,19,2022-02-12_18h04.01.519,lexical_decision_task_DD_L3,2021.2.3,MacIntel,60.0024001,,,,,,,,,,,,0.595,0,,,,,,,,,,,,,,z,0,0.595,,,,,,,,0.006145833,-0.423315972,0,0,0,,0,140,140,38,1,LADDER,HB,old,m,./images/LADDERHB.png,,,,,,,,,,,,,,,,,,,,,,,,,,,,,,,,,,
,,,,,,,,,,,,,,,,,610d3c0535871d8bfa25107f,19,2022-02-12_18h04.01.519,lexical_decision_task_DD_L3,2021.2.3,MacIntel,60.0024001,,,,,,,,,,,,0.733,1,,,,,,,,,,,,,,z,1,0.733,,,,,,,,0.006145833,-0.423315972,0,0,0,,0,141,141,157,1,INLER,HB,old,z,./images/INLERHB.png,,,,,,,,,,,,,,,,,,,,,,,,,,,,,,,,,,
,,,,,,,,,,,,,,,,,610d3c0535871d8bfa25107f,19,2022-02-12_18h04.01.519,lexical_decision_task_DD_L3,2021.2.3,MacIntel,60.0024001,,,,,,,,,,,,0.7746,1,,,,,,,,,,,,,,z,1,0.7746,,,,,,,,0.006145833,-0.423315972,0,0,0,,0,142,142,112,1,MYING,HB,old,z,./images/MYINGHB.png,,,,,,,,,,,,,,,,,,,,,,,,,,,,,,,,,,
,,,,,,,,,,,,,,,,,610d3c0535871d8bfa25107f,19,2022-02-12_18h04.01.519,lexical_decision_task_DD_L3,2021.2.3,MacIntel,60.0024001,,,,,,,,,,,,0.6453,1,,,,,,,,,,,,,,z,1,0.6453,,,,,,,,0.006145833,-0.423315972,0,0,0,,0,143,143,153,1,CLUPS,C,old,z,./images/CLUPS.png,,,,,,,,,,,,,,,,,,,,,,,,,,,,,,,,,,
,,,,,,,,,,,,,,,,,610d3c0535871d8bfa25107f,19,2022-02-12_18h04.01.519,lexical_decision_task_DD_L3,2021.2.3,MacIntel,60.0024001,,,,,,,,,,,,0.5595,1,,,,,,,,,,,,,,z,1,0.5595,,,,,,,,0.006145833,-0.423315972,0,0,0,,0,144,144,103,1,FLORT,HB,old,z,./images/FLORTHB.png,,,,,,,,,,,,,,,,,,,,,,,,,,,,,,,,,,
,,,,,,,,,,,,,,,,,610d3c0535871d8bfa25107f,19,2022-02-12_18h04.01.519,lexical_decision_task_DD_L3,2021.2.3,MacIntel,60.0024001,,,,,,,,,,,,0.4883,1,,,,,,,,,,,,,,z,1,0.4883,,,,,,,,0.006145833,-0.423315972,0,0,0,,0,145,145,111,1,HOSSE,C,old,z,./images/HOSSE.png,,,,,,,,,,,,,,,,,,,,,,,,,,,,,,,,,,
,,,,,,,,,,,,,,,,,610d3c0535871d8bfa25107f,19,2022-02-12_18h04.01.519,lexical_decision_task_DD_L3,2021.2.3,MacIntel,60.0024001,,,,,,,,,,,,0.7754,1,,,,,,,,,,,,,,m,1,0.7754,,,,,,,,0.006145833,-0.423315972,0,0,0,,0,146,146,71,1,PIMPLE,HB,old,m,./images/PIMPLEHB.png,,,,,,,,,,,,,,,,,,,,,,,,,,,,,,,,,,
,,,,,,,,,,,,,,,,,610d3c0535871d8bfa25107f,19,2022-02-12_18h04.01.519,lexical_decision_task_DD_L3,2021.2.3,MacIntel,60.0024001,,,,,,,,,,,,0.9824,1,,,,,,,,,,,,,,z,1,0.9824,,,,,,,,0.006145833,-0.423315972,0,0,0,,0,147,147,88,1,GLUSH,HB,old,z,./images/GLUSHHB.png,,,,,,,,,,,,,,,,,,,,,,,,,,,,,,,,,,
,,,,,,,,,,,,,,,,,610d3c0535871d8bfa25107f,19,2022-02-12_18h04.01.519,lexical_decision_task_DD_L3,2021.2.3,MacIntel,60.0024001,,,,,,,,,,,,0.5562,1,,,,,,,,,,,,,,m,1,0.5562,,,,,,,,0.006145833,-0.423315972,0,0,0,,0,148,148,61,1,CANDLE,C,old,m,./images/CANDLE.png,,,,,,,,,,,,,,,,,,,,,,,,,,,,,,,,,,
,,,,,,,,,,,,,,,,,610d3c0535871d8bfa25107f,19,2022-02-12_18h04.01.519,lexical_decision_task_DD_L3,2021.2.3,MacIntel,60.0024001,,,,,,,,,,,,0.5899,1,,,,,,,,,,,,,,z,1,0.5899,,,,,,,,0.006145833,-0.423315972,0,0,0,,0,149,149,143,1,MONGS,LB,old,z,./images/MONGSLB.png,,,,,,,,,,,,,,,,,,,,,,,,,,,,,,,,,,
,,,,,,,,,,,,,,,,,610d3c0535871d8bfa25107f,19,2022-02-12_18h04.01.519,lexical_decision_task_DD_L3,2021.2.3,MacIntel,60.0024001,,,,,,,,,,,,0.6171,1,,,,,,,,,,,,,,z,1,0.6171,,,,,,,,0.006145833,-0.423315972,0,0,0,,0,150,150,85,1,CHULK,HB,old,z,./images/CHULKHB.png,,,,,,,,,,,,,,,,,,,,,,,,,,,,,,,,,,
,,,,,,,,,,,,,,,,,610d3c0535871d8bfa25107f,19,2022-02-12_18h04.01.519,lexical_decision_task_DD_L3,2021.2.3,MacIntel,60.0024001,,,,,,,,,,,,0.5781,0,,,,,,,,,,,,,,z,0,0.5781,,,,,,,,0.006145833,-0.423315972,0,0,0,,0,151,151,65,1,FARMER,HB,old,m,./images/FARMERHB.png,,,,,,,,,,,,,,,,,,,,,,,,,,,,,,,,,,
,,,,,,,,,,,,,,,,,610d3c0535871d8bfa25107f,19,2022-02-12_18h04.01.519,lexical_decision_task_DD_L3,2021.2.3,MacIntel,60.0024001,,,,,,,,,,,,0.5924,1,,,,,,,,,,,,,,m,1,0.5924,,,,,,,,0.006145833,-0.423315972,0,0,0,,0,152,152,66,1,SWEAT,LB,old,m,./images/SWEATLB.png,,,,,,,,,,,,,,,,,,,,,,,,,,,,,,,,,,
,,,,,,,,,,,,,,,,,610d3c0535871d8bfa25107f,19,2022-02-12_18h04.01.519,lexical_decision_task_DD_L3,2021.2.3,MacIntel,60.0024001,,,,,,,,,,,,0.8535,1,,,,,,,,,,,,,,z,1,0.8535,,,,,,,,0.006145833,-0.423315972,0,0,0,,0,153,153,130,1,CRILL,HB,old,z,./images/CRILLHB.png,,,,,,,,,,,,,,,,,,,,,,,,,,,,,,,,,,
,,,,,,,,,,,,,,,,,610d3c0535871d8bfa25107f,19,2022-02-12_18h04.01.519,lexical_decision_task_DD_L3,2021.2.3,MacIntel,60.0024001,,,,,,,,,,,,0.6274,1,,,,,,,,,,,,,,m,1,0.6274,,,,,,,,0.006145833,-0.423315972,0,0,0,,0,154,154,42,1,FOLDER,LB,old,m,./images/FOLDERLB.png,,,,,,,,,,,,,,,,,,,,,,,,,,,,,,,,,,
,,,,,,,,,,,,,,,,,610d3c0535871d8bfa25107f,19,2022-02-12_18h04.01.519,lexical_decision_task_DD_L3,2021.2.3,MacIntel,60.0024001,,,,,,,,,,,,0.9736,1,,,,,,,,,,,,,,z,1,0.9736,,,,,,,,0.006145833,-0.423315972,0,0,0,,0,155,155,90,1,NEAST,C,old,z,./images/NEAST.png,,,,,,,,,,,,,,,,,,,,,,,,,,,,,,,,,,
,,,,,,,,,,,,,,,,,610d3c0535871d8bfa25107f,19,2022-02-12_18h04.01.519,lexical_decision_task_DD_L3,2021.2.3,MacIntel,60.0024001,,,,,,,,,,,,0.7741,1,,,,,,,,,,,,,,z,1,0.7741,,,,,,,,0.006145833,-0.423315972,0,0,0,,0,156,156,113,1,LINEW,LB,old,z,./images/LINEWLB.png,,,,,,,,,,,,,,,,,,,,,,,,,,,,,,,,,,
,,,,,,,,,,,,,,,,,610d3c0535871d8bfa25107f,19,2022-02-12_18h04.01.519,lexical_decision_task_DD_L3,2021.2.3,MacIntel,60.0024001,,,,,,,,,,,,0.6067,1,,,,,,,,,,,,,,m,1,0.6067,,,,,,,,0.006145833,-0.423315972,0,0,0,,0,157,157,7,1,PAINT,C,old,m,./images/PAINT.png,,,,,,,,,,,,,,,,,,,,,,,,,,,,,,,,,,
,,,,,,,,,,,,,,,,,610d3c0535871d8bfa25107f,19,2022-02-12_18h04.01.519,lexical_decision_task_DD_L3,2021.2.3,MacIntel,60.0024001,,,,,,,,,,,,0.6469,1,,,,,,,,,,,,,,z,1,0.6469,,,,,,,,0.006145833,-0.423315972,0,0,0,,0,158,158,99,1,BACKY,C,old,z,./images/BACKY.png,,,,,,,,,,,,,,,,,,,,,,,,,,,,,,,,,,
,,,,,,,,,,,,,,,,,610d3c0535871d8bfa25107f,19,2022-02-12_18h04.01.519,lexical_decision_task_DD_L3,2021.2.3,MacIntel,60.0024001,,,,,,,,,,,,0.6508,1,,,,,,,,,,,,,,m,1,0.6508,,,,,,,,0.006145833,-0.423315972,0,0,0,,0,159,159,75,1,GRAIN,LB,old,m,./images/GRAINLB.png,,,,,,,,,,,,,,,,,,,,,,,,,,,,,,,,,,
,,,,,,,,,,,,,,,,,610d3c0535871d8bfa25107f,19,2022-02-12_18h04.01.519,lexical_decision_task_DD_L3,2021.2.3,MacIntel,60.0024001,,,,,,,,,,,,0.6245,1,,,,,,,,,,,,,,m,1,0.6245,,,,,,,,0.006145833,-0.423315972,0,0,0,,0,160,160,64,1,JELLY,C,old,m,./images/JELLY.png,,,,,,,,,,,,,,,,,,,,,,,,,,,,,,,,,,
,,,,,,,,,,,,,,,,,610d3c0535871d8bfa25107f,19,2022-02-12_18h04.01.519,lexical_decision_task_DD_L3,2021.2.3,MacIntel,60.0024001,,,,,,,,,,,,0.7321,1,,,,,,,,,,,,,,z,1,0.7321,,,,,,,,0.006145833,-0.423315972,0,0,0,,0,161,161,146,1,MOOST,LB,old,z,./images/MOOSTLB.png,,,,,,,,,,,,,,,,,,,,,,,,,,,,,,,,,,
,,,,,,,,,,,,,,,,,610d3c0535871d8bfa25107f,19,2022-02-12_18h04.01.519,lexical_decision_task_DD_L3,2021.2.3,MacIntel,60.0024001,,,,,,,,,,,,0.5797,1,,,,,,,,,,,,,,m,1,0.5797,,,,,,,,0.006145833,-0.423315972,0,0,0,,0,162,162,79,1,CRUST,C,old,m,./images/CRUST.png,,,,,,,,,,,,,,,,,,,,,,,,,,,,,,,,,,
,,,,,,,,,,,,,,,,,610d3c0535871d8bfa25107f,19,2022-02-12_18h04.01.519,lexical_decision_task_DD_L3,2021.2.3,MacIntel,60.0024001,,,,,,,,,,,,0.6761,1,,,,,,,,,,,,,,m,1,0.6761,,,,,,,,0.006145833,-0.423315972,0,0,0,,0,163,163,74,1,CEMENT,HB,old,m,./images/CEMENTHB.png,,,,,,,,,,,,,,,,,,,,,,,,,,,,,,,,,,
,,,,,,,,,,,,,,,,,610d3c0535871d8bfa25107f,19,2022-02-12_18h04.01.519,lexical_decision_task_DD_L3,2021.2.3,MacIntel,60.0024001,,,,,,,,,,,,0.4918,1,,,,,,,,,,,,,,m,1,0.4918,,,,,,,,0.006145833,-0.423315972,0,0,0,,0,164,164,37,1,BIRTH,C,old,m,./images/BIRTH.png,,,,,,,,,,,,,,,,,,,,,,,,,,,,,,,,,,
,,,,,,,,,,,,,,,,,610d3c0535871d8bfa25107f,19,2022-02-12_18h04.01.519,lexical_decision_task_DD_L3,2021.2.3,MacIntel,60.0024001,,,,,,,,,,,,0.5646,1,,,,,,,,,,,,,,z,1,0.5646,,,,,,,,0.006145833,-0.423315972,0,0,0,,0,165,165,122,1,BLOOT,LB,old,z,./images/BLOOTLB.png,,,,,,,,,,,,,,,,,,,,,,,,,,,,,,,,,,
,,,,,,,,,,,,,,,,,610d3c0535871d8bfa25107f,19,2022-02-12_18h04.01.519,lexical_decision_task_DD_L3,2021.2.3,MacIntel,60.0024001,,,,,,,,,,,,0.6666,1,,,,,,,,,,,,,,z,1,0.6666,,,,,,,,0.006145833,-0.423315972,0,0,0,,0,166,166,136,1,WERVE,HB,old,z,./images/WERVEHB.png,,,,,,,,,,,,,,,,,,,,,,,,,,,,,,,,,,
,,,,,,,,,,,,,,,,,610d3c0535871d8bfa25107f,19,2022-02-12_18h04.01.519,lexical_decision_task_DD_L3,2021.2.3,MacIntel,60.0024001,,,,,,,,,,,,0.5438,1,,,,,,,,,,,,,,z,1,0.5438,,,,,,,,0.006145833,-0.423315972,0,0,0,,0,167,167,141,1,PLEET,C,old,z,./images/PLEET.png,,,,,,,,,,,,,,,,,,,,,,,,,,,,,,,,,,
,,,,,,,,,,,,,,,,,610d3c0535871d8bfa25107f,19,2022-02-12_18h04.01.519,lexical_decision_task_DD_L3,2021.2.3,MacIntel,60.0024001,,,,,,,,,,,,,,,,,,,,,,,,,,,,,,,,,,,,,,,,,,,,,,,,,How likely will it be that you will recognize the words presented slighly blurred on a scale of 0 (not likely) to 100 (most likely)?,,,,,0.006145833,-0.425277778,1,0,0,jol_adv,5,11.009,0,0,0,1,1,,,,,,,,,,,,,,,,,,,,
,,,,,,,,,,,,,,,,,610d3c0535871d8bfa25107f,19,2022-02-12_18h04.01.519,lexical_decision_task_DD_L3,2021.2.3,MacIntel,60.0024001,,,,,,,,,,,,,,,,,,,,,,,,,,,,,,,,,,,,,,,,,,,,,,,,,How likely will it be that you will recognize the words presented very blurred on a scale of 0 (not likely) to 100 (most likely)?,,,,,,,,,,,3,6.4897,0,1,1,2,1,,,,,,,,,,,,,,,,,,,,
,,,,,,,,,,,,,,,,,610d3c0535871d8bfa25107f,19,2022-02-12_18h04.01.519,lexical_decision_task_DD_L3,2021.2.3,MacIntel,60.0024001,,,,,,,,,,,,,,,,,,,,,,,,,,,,,,,,,,,,,,,,,,,,,,,,,How likely will it be that you will recognize the words presented clearly on a scale of 0 (not likely) to 100 (most likely)?,,,,,,,,,,,6,4.646,0,2,2,0,1,,,,,,,,,,,,,,,,,,,,
,0.122517361,-0.368962674,1,0,0,instr_done_button,,,,,,1,test,"In the next phase you will be presented with the words from the the first phase. Your job is to decide whether you remember seeing the word or not. If you remember seeing the word press ""old"" or type ""m"". If you do not remember seeing the word press ""new"" or type ""z"". Please press the space bar or click on continue to begin. ",,,610d3c0535871d8bfa25107f,19,2022-02-12_18h04.01.519,lexical_decision_task_DD_L3,2021.2.3,MacIntel,60.0024001,,,,,,,,,,,,,,,,,,,,,,,,,,,,,,,,,,,,,,,,,,,,,,,,,,,,,,,,,,,,,,,,,,,0,0,0,0,1,,,,,,,,,,,,,,,
space,0.117951389,-0.385086806,0,0,0,,,,,,,1,test,"In the next phase you will be presented with the words from the the first phase. Your job is to decide whether you remember seeing the word or not. If you remember seeing the word press ""old"" or type ""m"". If you do not remember seeing the word press ""new"" or type ""z"". Please press the space bar or click on continue to begin. ",,,610d3c0535871d8bfa25107f,19,2022-02-12_18h04.01.519,lexical_decision_task_DD_L3,2021.2.3,MacIntel,60.0024001,1.9348,,,,,,,,,,,,,,,,,,,,,,,,,,,,,,,,,,,,,,,,,,,,,,,,,,,,,,,,,,,,,,,,,,1,0,1,0,1,,,,,,,,,,,,,,,
,0.080616319,-0.388572049,1,0,0,instr_done_button,,,,,,1,test,"In the next phase you will be presented with the words from the the first phase. Your job is to decide whether you remember seeing the word or not. If you remember seeing the word press ""old"" or type ""m"". If you do not remember seeing the word press ""new"" or type ""z"". Please press the space bar or click on continue to begin. ",,,610d3c0535871d8bfa25107f,19,2022-02-12_18h04.01.519,lexical_decision_task_DD_L3,2021.2.3,MacIntel,60.0024001,,,,,,,,,,,,,,,,,,,,,,,,,,,,,,,,,,,,,,,,,,,,,,,,,,,,,,,,,,,,,,,,,,,2,0,2,0,1,,,,,,,,,,,,,,,
space,0.080616319,-0.388572049,0,0,0,,,,,,,1,test,"In the next phase you will be presented with the words from the the first phase. Your job is to decide whether you remember seeing the word or not. If you remember seeing the word press ""old"" or type ""m"". If you do not remember seeing the word press ""new"" or type ""z"". Please press the space bar or click on continue to begin. ",,,610d3c0535871d8bfa25107f,19,2022-02-12_18h04.01.519,lexical_decision_task_DD_L3,2021.2.3,MacIntel,60.0024001,1.0425,,,,,,,,,,,,,,,,,,,,,,,,,,,,,,,,,,,,,,,,,,,,,,,,,,,,,,,,,,,,,,,,,,3,0,3,0,1,,,,,,,,,,,,,,,
space,0.080616319,-0.388572049,0,0,0,,,,,,,1,test,"In the next phase you will be presented with the words from the the first phase. Your job is to decide whether you remember seeing the word or not. If you remember seeing the word press ""old"" or type ""m"". If you do not remember seeing the word press ""new"" or type ""z"". Please press the space bar or click on continue to begin. ",,,610d3c0535871d8bfa25107f,19,2022-02-12_18h04.01.519,lexical_decision_task_DD_L3,2021.2.3,MacIntel,60.0024001,0.6003,,,,,,,,,,,,,,,,,,,,,,,,,,,,,,,,,,,,,,,,,,,,,,,,,,,,,,,,,,,,,,,,,,4,0,4,0,1,,,,,,,,,,,,,,,
,,,,,,,,,,,,,,,,,610d3c0535871d8bfa25107f,19,2022-02-12_18h04.01.519,lexical_decision_task_DD_L3,2021.2.3,MacIntel,60.0024001,,,,,,,,,,,,2.9591,1,,,,,,,,,,,,,,,,,,,,,,,,0.080616319,-0.388572049,0,0,0,,,,,,,FINGER,LB,m,m,./images/FINGERLB.png,,,,,,,,,,,,,,,,,,,,m,1,2.9591,,,,,,,,0,0,0,3,1
,,,,,,,,,,,,,,,,,610d3c0535871d8bfa25107f,19,2022-02-12_18h04.01.519,lexical_decision_task_DD_L3,2021.2.3,MacIntel,60.0024001,,,,,,,,,,,,1.9586,0,,,,,,,,,,,,,,,,,,,,,,,,0.080616319,-0.388572049,0,0,0,,,,,,,BAMBOO,HB,z,m,./images/BAMBOOHB.png,,,,,,,,,,,,,,,,,,,,m,0,1.9586,,,,,,,,0,1,1,89,1
,,,,,,,,,,,,,,,,,610d3c0535871d8bfa25107f,19,2022-02-12_18h04.01.519,lexical_decision_task_DD_L3,2021.2.3,MacIntel,60.0024001,,,,,,,,,,,,0.6477,1,,,,,,,,,,,,,,,,,,,,,,,,0.080616319,-0.388572049,0,0,0,,,,,,,TRIPOD,LB,m,m,./images/TRIPODLB.png,,,,,,,,,,,,,,,,,,,,m,1,0.6477,,,,,,,,0,2,2,54,1
,,,,,,,,,,,,,,,,,610d3c0535871d8bfa25107f,19,2022-02-12_18h04.01.519,lexical_decision_task_DD_L3,2021.2.3,MacIntel,60.0024001,,,,,,,,,,,,1.1533,0,,,,,,,,,,,,,,,,,,,,,,,,0.080616319,-0.388572049,0,0,0,,,,,,,STOVE,HB,z,m,./images/STOVEHB.png,,,,,,,,,,,,,,,,,,,,m,0,1.1533,,,,,,,,0,3,3,86,1
,,,,,,,,,,,,,,,,,610d3c0535871d8bfa25107f,19,2022-02-12_18h04.01.519,lexical_decision_task_DD_L3,2021.2.3,MacIntel,60.0024001,,,,,,,,,,,,0.8016,1,,,,,,,,,,,,,,,,,,,,,,,,0.080616319,-0.388572049,0,0,0,,,,,,,MUSCLE,C,m,m,./images/MUSCLE.png,,,,,,,,,,,,,,,,,,,,m,1,0.8016,,,,,,,,0,4,4,4,1
,,,,,,,,,,,,,,,,,610d3c0535871d8bfa25107f,19,2022-02-12_18h04.01.519,lexical_decision_task_DD_L3,2021.2.3,MacIntel,60.0024001,,,,,,,,,,,,0.8655,1,,,,,,,,,,,,,,,,,,,,,,,,0.080616319,-0.388572049,0,0,0,,,,,,,VALLEY,HB,z,m,./images/VALLEYHB.png,,,,,,,,,,,,,,,,,,,,z,1,0.8655,,,,,,,,0,5,5,152,1
,,,,,,,,,,,,,,,,,610d3c0535871d8bfa25107f,19,2022-02-12_18h04.01.519,lexical_decision_task_DD_L3,2021.2.3,MacIntel,60.0024001,,,,,,,,,,,,1.0395,1,,,,,,,,,,,,,,,,,,,,,,,,0.080616319,-0.388572049,0,0,0,,,,,,,SHORE,LB,m,m,./images/SHORELB.png,,,,,,,,,,,,,,,,,,,,m,1,1.0395,,,,,,,,0,6,6,12,1
,,,,,,,,,,,,,,,,,610d3c0535871d8bfa25107f,19,2022-02-12_18h04.01.519,lexical_decision_task_DD_L3,2021.2.3,MacIntel,60.0024001,,,,,,,,,,,,0.651,1,,,,,,,,,,,,,,,,,,,,,,,,0.080616319,-0.388572049,0,0,0,,,,,,,ONION,LB,m,m,./images/ONIONLB.png,,,,,,,,,,,,,,,,,,,,m,1,0.651,,,,,,,,0,7,7,51,1
,,,,,,,,,,,,,,,,,610d3c0535871d8bfa25107f,19,2022-02-12_18h04.01.519,lexical_decision_task_DD_L3,2021.2.3,MacIntel,60.0024001,,,,,,,,,,,,1.3133,1,,,,,,,,,,,,,,,,,,,,,,,,0.080616319,-0.388572049,0,0,0,,,,,,,SPORT,LB,m,m,./images/SPORTLB.png,,,,,,,,,,,,,,,,,,,,m,1,1.3133,,,,,,,,0,8,8,48,1
,,,,,,,,,,,,,,,,,610d3c0535871d8bfa25107f,19,2022-02-12_18h04.01.519,lexical_decision_task_DD_L3,2021.2.3,MacIntel,60.0024001,,,,,,,,,,,,0.8796,1,,,,,,,,,,,,,,,,,,,,,,,,0.080616319,-0.388572049,0,0,0,,,,,,,COLLAR,LB,z,m,./images/COLLARLB.png,,,,,,,,,,,,,,,,,,,,z,1,0.8796,,,,,,,,0,9,9,99,1
,,,,,,,,,,,,,,,,,610d3c0535871d8bfa25107f,19,2022-02-12_18h04.01.519,lexical_decision_task_DD_L3,2021.2.3,MacIntel,60.0024001,,,,,,,,,,,,0.9876,1,,,,,,,,,,,,,,,,,,,,,,,,0.080616319,-0.388572049,0,0,0,,,,,,,STATUE,LB,z,m,./images/STATUELB.png,,,,,,,,,,,,,,,,,,,,z,1,0.9876,,,,,,,,0,10,10,150,1
,,,,,,,,,,,,,,,,,610d3c0535871d8bfa25107f,19,2022-02-12_18h04.01.519,lexical_decision_task_DD_L3,2021.2.3,MacIntel,60.0024001,,,,,,,,,,,,0.8155,1,,,,,,,,,,,,,,,,,,,,,,,,0.080616319,-0.388572049,0,0,0,,,,,,,SCREW,LB,m,m,./images/SCREWLB.png,,,,,,,,,,,,,,,,,,,,m,1,0.8155,,,,,,,,0,11,11,24,1
,,,,,,,,,,,,,,,,,610d3c0535871d8bfa25107f,19,2022-02-12_18h04.01.519,lexical_decision_task_DD_L3,2021.2.3,MacIntel,60.0024001,,,,,,,,,,,,1.1848,1,,,,,,,,,,,,,,,,,,,,,,,,0.080616319,-0.388572049,0,0,0,,,,,,,CLOUD,HB,z,m,./images/CLOUDHB.png,,,,,,,,,,,,,,,,,,,,z,1,1.1848,,,,,,,,0,12,12,110,1
,,,,,,,,,,,,,,,,,610d3c0535871d8bfa25107f,19,2022-02-12_18h04.01.519,lexical_decision_task_DD_L3,2021.2.3,MacIntel,60.0024001,,,,,,,,,,,,1.2223,1,,,,,,,,,,,,,,,,,,,,,,,,0.080616319,-0.388572049,0,0,0,,,,,,,FARMER,HB,m,m,./images/FARMERHB.png,,,,,,,,,,,,,,,,,,,,m,1,1.2223,,,,,,,,0,13,13,65,1
,,,,,,,,,,,,,,,,,610d3c0535871d8bfa25107f,19,2022-02-12_18h04.01.519,lexical_decision_task_DD_L3,2021.2.3,MacIntel,60.0024001,,,,,,,,,,,,1.0692,1,,,,,,,,,,,,,,,,,,,,,,,,0.080616319,-0.388572049,0,0,0,,,,,,,SAILOR,C,m,m,./images/SAILOR.png,,,,,,,,,,,,,,,,,,,,m,1,1.0692,,,,,,,,0,14,14,67,1
,,,,,,,,,,,,,,,,,610d3c0535871d8bfa25107f,19,2022-02-12_18h04.01.519,lexical_decision_task_DD_L3,2021.2.3,MacIntel,60.0024001,,,,,,,,,,,,0.7427,1,,,,,,,,,,,,,,,,,,,,,,,,0.080616319,-0.388572049,0,0,0,,,,,,,BISHOP,C,z,m,./images/BISHOP.png,,,,,,,,,,,,,,,,,,,,z,1,0.7427,,,,,,,,0,15,15,133,1
,,,,,,,,,,,,,,,,,610d3c0535871d8bfa25107f,19,2022-02-12_18h04.01.519,lexical_decision_task_DD_L3,2021.2.3,MacIntel,60.0024001,,,,,,,,,,,,1.167,1,,,,,,,,,,,,,,,,,,,,,,,,0.080616319,-0.388572049,0,0,0,,,,,,,RULER,C,z,m,./images/RULER.png,,,,,,,,,,,,,,,,,,,,z,1,1.167,,,,,,,,0,16,16,163,1
,,,,,,,,,,,,,,,,,610d3c0535871d8bfa25107f,19,2022-02-12_18h04.01.519,lexical_decision_task_DD_L3,2021.2.3,MacIntel,60.0024001,,,,,,,,,,,,1.159,0,,,,,,,,,,,,,,,,,,,,,,,,0.080616319,-0.388572049,0,0,0,,,,,,,BELLY,C,m,m,./images/BELLY.png,,,,,,,,,,,,,,,,,,,,z,0,1.159,,,,,,,,0,17,17,10,1
,,,,,,,,,,,,,,,,,610d3c0535871d8bfa25107f,19,2022-02-12_18h04.01.519,lexical_decision_task_DD_L3,2021.2.3,MacIntel,60.0024001,,,,,,,,,,,,0.8373,0,,,,,,,,,,,,,,,,,,,,,,,,0.080616319,-0.388572049,0,0,0,,,,,,,POSTER,HB,z,m,./images/POSTERHB.png,,,,,,,,,,,,,,,,,,,,m,0,0.8373,,,,,,,,0,18,18,137,1
,,,,,,,,,,,,,,,,,610d3c0535871d8bfa25107f,19,2022-02-12_18h04.01.519,lexical_decision_task_DD_L3,2021.2.3,MacIntel,60.0024001,,,,,,,,,,,,0.7504,1,,,,,,,,,,,,,,,,,,,,,,,,0.080616319,-0.388572049,0,0,0,,,,,,,TIGER,C,z,m,./images/TIGER.png,,,,,,,,,,,,,,,,,,,,z,1,0.7504,,,,,,,,0,19,19,121,1
,,,,,,,,,,,,,,,,,610d3c0535871d8bfa25107f,19,2022-02-12_18h04.01.519,lexical_decision_task_DD_L3,2021.2.3,MacIntel,60.0024001,,,,,,,,,,,,0.6518,1,,,,,,,,,,,,,,,,,,,,,,,,0.080616319,-0.388572049,0,0,0,,,,,,,CEMENT,HB,m,m,./images/CEMENTHB.png,,,,,,,,,,,,,,,,,,,,m,1,0.6518,,,,,,,,0,20,20,74,1
,,,,,,,,,,,,,,,,,610d3c0535871d8bfa25107f,19,2022-02-12_18h04.01.519,lexical_decision_task_DD_L3,2021.2.3,MacIntel,60.0024001,,,,,,,,,,,,0.7655,1,,,,,,,,,,,,,,,,,,,,,,,,0.080616319,-0.388572049,0,0,0,,,,,,,PARADE,HB,z,m,./images/PARADEHB.png,,,,,,,,,,,,,,,,,,,,z,1,0.7655,,,,,,,,0,21,21,101,1
,,,,,,,,,,,,,,,,,610d3c0535871d8bfa25107f,19,2022-02-12_18h04.01.519,lexical_decision_task_DD_L3,2021.2.3,MacIntel,60.0024001,,,,,,,,,,,,0.6795,1,,,,,,,,,,,,,,,,,,,,,,,,0.080616319,-0.388572049,0,0,0,,,,,,,WALRUS,HB,m,m,./images/WALRUSHB.png,,,,,,,,,,,,,,,,,,,,m,1,0.6795,,,,,,,,0,22,22,23,1
,,,,,,,,,,,,,,,,,610d3c0535871d8bfa25107f,19,2022-02-12_18h04.01.519,lexical_decision_task_DD_L3,2021.2.3,MacIntel,60.0024001,,,,,,,,,,,,0.7916,1,,,,,,,,,,,,,,,,,,,,,,,,0.080616319,-0.388572049,0,0,0,,,,,,,FENCE,HB,z,m,./images/FENCEHB.png,,,,,,,,,,,,,,,,,,,,z,1,0.7916,,,,,,,,0,23,23,98,1
,,,,,,,,,,,,,,,,,610d3c0535871d8bfa25107f,19,2022-02-12_18h04.01.519,lexical_decision_task_DD_L3,2021.2.3,MacIntel,60.0024001,,,,,,,,,,,,0.6157,1,,,,,,,,,,,,,,,,,,,,,,,,0.080616319,-0.388572049,0,0,0,,,,,,,PIMPLE,HB,m,m,./images/PIMPLEHB.png,,,,,,,,,,,,,,,,,,,,m,1,0.6157,,,,,,,,0,24,24,71,1
,,,,,,,,,,,,,,,,,610d3c0535871d8bfa25107f,19,2022-02-12_18h04.01.519,lexical_decision_task_DD_L3,2021.2.3,MacIntel,60.0024001,,,,,,,,,,,,0.7399,1,,,,,,,,,,,,,,,,,,,,,,,,0.080616319,-0.388572049,0,0,0,,,,,,,SAUCE,LB,z,m,./images/SAUCELB.png,,,,,,,,,,,,,,,,,,,,z,1,0.7399,,,,,,,,0,25,25,135,1
,,,,,,,,,,,,,,,,,610d3c0535871d8bfa25107f,19,2022-02-12_18h04.01.519,lexical_decision_task_DD_L3,2021.2.3,MacIntel,60.0024001,,,,,,,,,,,,0.6262,1,,,,,,,,,,,,,,,,,,,,,,,,0.080616319,-0.388572049,0,0,0,,,,,,,CRUMB,HB,m,m,./images/CRUMBHB.png,,,,,,,,,,,,,,,,,,,,m,1,0.6262,,,,,,,,0,26,26,29,1
,,,,,,,,,,,,,,,,,610d3c0535871d8bfa25107f,19,2022-02-12_18h04.01.519,lexical_decision_task_DD_L3,2021.2.3,MacIntel,60.0024001,,,,,,,,,,,,0.7239,1,,,,,,,,,,,,,,,,,,,,,,,,0.080616319,-0.388572049,0,0,0,,,,,,,ATTIC,LB,m,m,./images/ATTICLB.png,,,,,,,,,,,,,,,,,,,,m,1,0.7239,,,,,,,,0,27,27,27,1
,,,,,,,,,,,,,,,,,610d3c0535871d8bfa25107f,19,2022-02-12_18h04.01.519,lexical_decision_task_DD_L3,2021.2.3,MacIntel,60.0024001,,,,,,,,,,,,1.1995,0,,,,,,,,,,,,,,,,,,,,,,,,0.080616319,-0.388572049,0,0,0,,,,,,,CHAIN,LB,z,m,./images/CHAINLB.png,,,,,,,,,,,,,,,,,,,,m,0,1.1995,,,,,,,,0,28,28,126,1
,,,,,,,,,,,,,,,,,610d3c0535871d8bfa25107f,19,2022-02-12_18h04.01.519,lexical_decision_task_DD_L3,2021.2.3,MacIntel,60.0024001,,,,,,,,,,,,0.8234,1,,,,,,,,,,,,,,,,,,,,,,,,0.080616319,-0.388572049,0,0,0,,,,,,,BANANA,C,z,m,./images/BANANA.png,,,,,,,,,,,,,,,,,,,,z,1,0.8234,,,,,,,,0,29,29,154,1
,,,,,,,,,,,,,,,,,610d3c0535871d8bfa25107f,19,2022-02-12_18h04.01.519,lexical_decision_task_DD_L3,2021.2.3,MacIntel,60.0024001,,,,,,,,,,,,0.9992,0,,,,,,,,,,,,,,,,,,,,,,,,0.080616319,-0.388572049,0,0,0,,,,,,,POKER,C,z,m,./images/POKER.png,,,,,,,,,,,,,,,,,,,,m,0,0.9992,,,,,,,,0,30,30,151,1
,,,,,,,,,,,,,,,,,610d3c0535871d8bfa25107f,19,2022-02-12_18h04.01.519,lexical_decision_task_DD_L3,2021.2.3,MacIntel,60.0024001,,,,,,,,,,,,0.8016,1,,,,,,,,,,,,,,,,,,,,,,,,0.080616319,-0.388572049,0,0,0,,,,,,,SMOKER,HB,m,m,./images/SMOKERHB.png,,,,,,,,,,,,,,,,,,,,m,1,0.8016,,,,,,,,0,31,31,26,1
,,,,,,,,,,,,,,,,,610d3c0535871d8bfa25107f,19,2022-02-12_18h04.01.519,lexical_decision_task_DD_L3,2021.2.3,MacIntel,60.0024001,,,,,,,,,,,,1.0172,1,,,,,,,,,,,,,,,,,,,,,,,,0.080616319,-0.388572049,0,0,0,,,,,,,LITTER,LB,m,m,./images/LITTERLB.png,,,,,,,,,,,,,,,,,,,,m,1,1.0172,,,,,,,,0,32,32,78,1
,,,,,,,,,,,,,,,,,610d3c0535871d8bfa25107f,19,2022-02-12_18h04.01.519,lexical_decision_task_DD_L3,2021.2.3,MacIntel,60.0024001,,,,,,,,,,,,0.6002,1,,,,,,,,,,,,,,,,,,,,,,,,0.080616319,-0.388572049,0,0,0,,,,,,,CANOE,C,z,m,./images/CANOE.png,,,,,,,,,,,,,,,,,,,,z,1,0.6002,,,,,,,,0,33,33,142,1
,,,,,,,,,,,,,,,,,610d3c0535871d8bfa25107f,19,2022-02-12_18h04.01.519,lexical_decision_task_DD_L3,2021.2.3,MacIntel,60.0024001,,,,,,,,,,,,0.8173,1,,,,,,,,,,,,,,,,,,,,,,,,0.080616319,-0.388572049,0,0,0,,,,,,,BANNER,C,m,m,./images/BANNER.png,,,,,,,,,,,,,,,,,,,,m,1,0.8173,,,,,,,,0,34,34,52,1
,,,,,,,,,,,,,,,,,610d3c0535871d8bfa25107f,19,2022-02-12_18h04.01.519,lexical_decision_task_DD_L3,2021.2.3,MacIntel,60.0024001,,,,,,,,,,,,0.9662,0,,,,,,,,,,,,,,,,,,,,,,,,0.080616319,-0.388572049,0,0,0,,,,,,,PICKLE,HB,m,m,./images/PICKLEHB.png,,,,,,,,,,,,,,,,,,,,z,0,0.9662,,,,,,,,0,35,35,14,1
,,,,,,,,,,,,,,,,,610d3c0535871d8bfa25107f,19,2022-02-12_18h04.01.519,lexical_decision_task_DD_L3,2021.2.3,MacIntel,60.0024001,,,,,,,,,,,,0.8278,1,,,,,,,,,,,,,,,,,,,,,,,,0.080616319,-0.388572049,0,0,0,,,,,,,BEARD,HB,m,m,./images/BEARDHB.png,,,,,,,,,,,,,,,,,,,,m,1,0.8278,,,,,,,,0,36,36,2,1
,,,,,,,,,,,,,,,,,610d3c0535871d8bfa25107f,19,2022-02-12_18h04.01.519,lexical_decision_task_DD_L3,2021.2.3,MacIntel,60.0024001,,,,,,,,,,,,0.8492,1,,,,,,,,,,,,,,,,,,,,,,,,0.080616319,-0.388572049,0,0,0,,,,,,,MELON,C,m,m,./images/MELON.png,,,,,,,,,,,,,,,,,,,,m,1,0.8492,,,,,,,,0,37,37,22,1
,,,,,,,,,,,,,,,,,610d3c0535871d8bfa25107f,19,2022-02-12_18h04.01.519,lexical_decision_task_DD_L3,2021.2.3,MacIntel,60.0024001,,,,,,,,,,,,2.1439,0,,,,,,,,,,,,,,,,,,,,,,,,0.080616319,-0.388572049,0,0,0,,,,,,,MALLET,HB,m,m,./images/MALLETHB.png,,,,,,,,,,,,,,,,,,,,z,0,2.1439,,,,,,,,0,38,38,50,1
,,,,,,,,,,,,,,,,,610d3c0535871d8bfa25107f,19,2022-02-12_18h04.01.519,lexical_decision_task_DD_L3,2021.2.3,MacIntel,60.0024001,,,,,,,,,,,,2.0337,1,,,,,,,,,,,,,,,,,,,,,,,,0.080616319,-0.388572049,0,0,0,,,,,,,CLIFF,HB,z,m,./images/CLIFFHB.png,,,,,,,,,,,,,,,,,,,,z,1,2.0337,,,,,,,,0,39,39,92,1
,,,,,,,,,,,,,,,,,610d3c0535871d8bfa25107f,19,2022-02-12_18h04.01.519,lexical_decision_task_DD_L3,2021.2.3,MacIntel,60.0024001,,,,,,,,,,,,1.5028,0,,,,,,,,,,,,,,,,,,,,,,,,0.080616319,-0.388572049,0,0,0,,,,,,,STRING,HB,m,m,./images/STRINGHB.png,,,,,,,,,,,,,,,,,,,,z,0,1.5028,,,,,,,,0,40,40,41,1
,,,,,,,,,,,,,,,,,610d3c0535871d8bfa25107f,19,2022-02-12_18h04.01.519,lexical_decision_task_DD_L3,2021.2.3,MacIntel,60.0024001,,,,,,,,,,,,1.9178,0,,,,,,,,,,,,,,,,,,,,,,,,0.080616319,-0.388572049,0,0,0,space,,,,,,JUNGLE,HB,m,m,./images/JUNGLEHB.png,1.2376,,,,,,,,,,,,,,,,,,,z,0,1.9178,,,,,,,,0,41,41,83,1
,,,,,,,,,,,,,,,,,610d3c0535871d8bfa25107f,19,2022-02-12_18h04.01.519,lexical_decision_task_DD_L3,2021.2.3,MacIntel,60.0024001,,,,,,,,,,,,0.8505,0,,,,,,,,,,,,,,,,,,,,,,,,0.080616319,-0.388572049,0,0,0,,,,,,,INFANT,C,m,m,./images/INFANT.png,,,,,,,,,,,,,,,,,,,,z,0,0.8505,,,,,,,,0,42,42,76,1
,,,,,,,,,,,,,,,,,610d3c0535871d8bfa25107f,19,2022-02-12_18h04.01.519,lexical_decision_task_DD_L3,2021.2.3,MacIntel,60.0024001,,,,,,,,,,,,1.4879,1,,,,,,,,,,,,,,,,,,,,,,,,0.080616319,-0.388572049,0,0,0,,,,,,,PASTA,HB,m,m,./images/PASTAHB.png,,,,,,,,,,,,,,,,,,,,m,1,1.4879,,,,,,,,0,43,43,5,1
,,,,,,,,,,,,,,,,,610d3c0535871d8bfa25107f,19,2022-02-12_18h04.01.519,lexical_decision_task_DD_L3,2021.2.3,MacIntel,60.0024001,,,,,,,,,,,,0.7013,1,,,,,,,,,,,,,,,,,,,,,,,,0.080616319,-0.388572049,0,0,0,,,,,,,MOTOR,C,m,m,./images/MOTOR.png,,,,,,,,,,,,,,,,,,,,m,1,0.7013,,,,,,,,0,44,44,13,1
,,,,,,,,,,,,,,,,,610d3c0535871d8bfa25107f,19,2022-02-12_18h04.01.519,lexical_decision_task_DD_L3,2021.2.3,MacIntel,60.0024001,,,,,,,,,,,,1.1838,1,,,,,,,,,,,,,,,,,,,,,,,,0.080616319,-0.388572049,0,0,0,,,,,,,MUMMY,C,z,m,./images/MUMMY.png,,,,,,,,,,,,,,,,,,,,z,1,1.1838,,,,,,,,0,45,45,130,1
,,,,,,,,,,,,,,,,,610d3c0535871d8bfa25107f,19,2022-02-12_18h04.01.519,lexical_decision_task_DD_L3,2021.2.3,MacIntel,60.0024001,,,,,,,,,,,,0.9593,1,,,,,,,,,,,,,,,,,,,,,,,,0.080616319,-0.388572049,0,0,0,,,,,,,CLOWN,C,z,m,./images/CLOWN.png,,,,,,,,,,,,,,,,,,,,z,1,0.9593,,,,,,,,0,46,46,106,1
,,,,,,,,,,,,,,,,,610d3c0535871d8bfa25107f,19,2022-02-12_18h04.01.519,lexical_decision_task_DD_L3,2021.2.3,MacIntel,60.0024001,,,,,,,,,,,,0.6625,1,,,,,,,,,,,,,,,,,,,,,,,,0.080616319,-0.388572049,0,0,0,,,,,,,JAGUAR,LB,m,m,./images/JAGUARLB.png,,,,,,,,,,,,,,,,,,,,m,1,0.6625,,,,,,,,0,47,47,18,1
,,,,,,,,,,,,,,,,,610d3c0535871d8bfa25107f,19,2022-02-12_18h04.01.519,lexical_decision_task_DD_L3,2021.2.3,MacIntel,60.0024001,,,,,,,,,,,,0.7174,1,,,,,,,,,,,,,,,,,,,,,,,,0.080616319,-0.388572049,0,0,0,,,,,,,WRIST,C,m,m,./images/WRIST.png,,,,,,,,,,,,,,,,,,,,m,1,0.7174,,,,,,,,0,48,48,25,1
,,,,,,,,,,,,,,,,,610d3c0535871d8bfa25107f,19,2022-02-12_18h04.01.519,lexical_decision_task_DD_L3,2021.2.3,MacIntel,60.0024001,,,,,,,,,,,,0.6339,1,,,,,,,,,,,,,,,,,,,,,,,,0.080616319,-0.388572049,0,0,0,,,,,,,DOUGH,C,m,m,./images/DOUGH.png,,,,,,,,,,,,,,,,,,,,m,1,0.6339,,,,,,,,0,49,49,19,1
,,,,,,,,,,,,,,,,,610d3c0535871d8bfa25107f,19,2022-02-12_18h04.01.519,lexical_decision_task_DD_L3,2021.2.3,MacIntel,60.0024001,,,,,,,,,,,,0.7363,1,,,,,,,,,,,,,,,,,,,,,,,,0.080616319,-0.388572049,0,0,0,,,,,,,BROOM,LB,z,m,./images/BROOMLB.png,,,,,,,,,,,,,,,,,,,,z,1,0.7363,,,,,,,,0,50,50,162,1
,,,,,,,,,,,,,,,,,610d3c0535871d8bfa25107f,19,2022-02-12_18h04.01.519,lexical_decision_task_DD_L3,2021.2.3,MacIntel,60.0024001,,,,,,,,,,,,1.1026,1,,,,,,,,,,,,,,,,,,,,,,,,0.080616319,-0.388572049,0,0,0,,,,,,,WALNUT,LB,z,m,./images/WALNUTLB.png,,,,,,,,,,,,,,,,,,,,z,1,1.1026,,,,,,,,0,51,51,84,1
,,,,,,,,,,,,,,,,,610d3c0535871d8bfa25107f,19,2022-02-12_18h04.01.519,lexical_decision_task_DD_L3,2021.2.3,MacIntel,60.0024001,,,,,,,,,,,,1.1343,1,,,,,,,,,,,,,,,,,,,,,,,,0.080616319,-0.388572049,0,0,0,,,,,,,PEBBLE,C,z,m,./images/PEBBLE.png,,,,,,,,,,,,,,,,,,,,z,1,1.1343,,,,,,,,0,52,52,166,1
,,,,,,,,,,,,,,,,,610d3c0535871d8bfa25107f,19,2022-02-12_18h04.01.519,lexical_decision_task_DD_L3,2021.2.3,MacIntel,60.0024001,,,,,,,,,,,,1.5166,1,,,,,,,,,,,,,,,,,,,,,,,,0.080616319,-0.388572049,0,0,0,,,,,,,MIDGET,C,z,m,./images/MIDGET.png,,,,,,,,,,,,,,,,,,,,z,1,1.5166,,,,,,,,0,53,53,160,1
,,,,,,,,,,,,,,,,,610d3c0535871d8bfa25107f,19,2022-02-12_18h04.01.519,lexical_decision_task_DD_L3,2021.2.3,MacIntel,60.0024001,,,,,,,,,,,,0.9274,0,,,,,,,,,,,,,,,,,,,,,,,,0.080616319,-0.388572049,0,0,0,,,,,,,SLOPE,LB,z,m,./images/SLOPELB.png,,,,,,,,,,,,,,,,,,,,m,0,0.9274,,,,,,,,0,54,54,114,1
,,,,,,,,,,,,,,,,,610d3c0535871d8bfa25107f,19,2022-02-12_18h04.01.519,lexical_decision_task_DD_L3,2021.2.3,MacIntel,60.0024001,,,,,,,,,,,,1.3248,0,,,,,,,,,,,,,,,,,,,,,,,,0.080616319,-0.388572049,0,0,0,,,,,,,BRUSH,HB,z,m,./images/BRUSHHB.png,,,,,,,,,,,,,,,,,,,,m,0,1.3248,,,,,,,,0,55,55,143,1
,,,,,,,,,,,,,,,,,610d3c0535871d8bfa25107f,19,2022-02-12_18h04.01.519,lexical_decision_task_DD_L3,2021.2.3,MacIntel,60.0024001,,,,,,,,,,,,1.0237,1,,,,,,,,,,,,,,,,,,,,,,,,0.080616319,-0.388572049,0,0,0,,,,,,,PENCE,C,m,m,./images/PENCE.png,,,,,,,,,,,,,,,,,,,,m,1,1.0237,,,,,,,,0,56,56,16,1
,,,,,,,,,,,,,,,,,610d3c0535871d8bfa25107f,19,2022-02-12_18h04.01.519,lexical_decision_task_DD_L3,2021.2.3,MacIntel,60.0024001,,,,,,,,,,,,0.735,1,,,,,,,,,,,,,,,,,,,,,,,,0.080616319,-0.388572049,0,0,0,,,,,,,DIVER,LB,z,m,./images/DIVERLB.png,,,,,,,,,,,,,,,,,,,,z,1,0.735,,,,,,,,0,57,57,93,1
,,,,,,,,,,,,,,,,,610d3c0535871d8bfa25107f,19,2022-02-12_18h04.01.519,lexical_decision_task_DD_L3,2021.2.3,MacIntel,60.0024001,,,,,,,,,,,,1.4746,1,,,,,,,,,,,,,,,,,,,,,,,,0.080616319,-0.388572049,0,0,0,,,,,,,PURSE,HB,m,m,./images/PURSEHB.png,,,,,,,,,,,,,,,,,,,,m,1,1.4746,,,,,,,,0,58,58,62,1
,,,,,,,,,,,,,,,,,610d3c0535871d8bfa25107f,19,2022-02-12_18h04.01.519,lexical_decision_task_DD_L3,2021.2.3,MacIntel,60.0024001,,,,,,,,,,,,0.6658,1,,,,,,,,,,,,,,,,,,,,,,,,0.080616319,-0.388572049,0,0,0,,,,,,,RHINO,LB,m,m,./images/RHINOLB.png,,,,,,,,,,,,,,,,,,,,m,1,0.6658,,,,,,,,0,59,59,9,1
,,,,,,,,,,,,,,,,,610d3c0535871d8bfa25107f,19,2022-02-12_18h04.01.519,lexical_decision_task_DD_L3,2021.2.3,MacIntel,60.0024001,,,,,,,,,,,,1.1004,1,,,,,,,,,,,,,,,,,,,,,,,,0.080616319,-0.388572049,0,0,0,,,,,,,BRIDE,C,z,m,./images/BRIDE.png,,,,,,,,,,,,,,,,,,,,z,1,1.1004,,,,,,,,0,60,60,148,1
,,,,,,,,,,,,,,,,,610d3c0535871d8bfa25107f,19,2022-02-12_18h04.01.519,lexical_decision_task_DD_L3,2021.2.3,MacIntel,60.0024001,,,,,,,,,,,,0.77,1,,,,,,,,,,,,,,,,,,,,,,,,0.080616319,-0.388572049,0,0,0,,,,,,,LAGOON,HB,z,m,./images/LAGOONHB.png,,,,,,,,,,,,,,,,,,,,z,1,0.77,,,,,,,,0,61,61,131,1
,,,,,,,,,,,,,,,,,610d3c0535871d8bfa25107f,19,2022-02-12_18h04.01.519,lexical_decision_task_DD_L3,2021.2.3,MacIntel,60.0024001,,,,,,,,,,,,0.7307,1,,,,,,,,,,,,,,,,,,,,,,,,0.080616319,-0.388572049,0,0,0,,,,,,,DANCER,LB,z,m,./images/DANCERLB.png,,,,,,,,,,,,,,,,,,,,z,1,0.7307,,,,,,,,0,62,62,105,1
,,,,,,,,,,,,,,,,,610d3c0535871d8bfa25107f,19,2022-02-12_18h04.01.519,lexical_decision_task_DD_L3,2021.2.3,MacIntel,60.0024001,,,,,,,,,,,,0.9682,1,,,,,,,,,,,,,,,,,,,,,,,,0.080616319,-0.388572049,0,0,0,,,,,,,ARROW,LB,z,m,./images/ARROWLB.png,,,,,,,,,,,,,,,,,,,,z,1,0.9682,,,,,,,,0,63,63,153,1
,,,,,,,,,,,,,,,,,610d3c0535871d8bfa25107f,19,2022-02-12_18h04.01.519,lexical_decision_task_DD_L3,2021.2.3,MacIntel,60.0024001,,,,,,,,,,,,0.6624,1,,,,,,,,,,,,,,,,,,,,,,,,0.080616319,-0.388572049,0,0,0,,,,,,,MAGGOT,LB,m,m,./images/MAGGOTLB.png,,,,,,,,,,,,,,,,,,,,m,1,0.6624,,,,,,,,0,64,64,33,1
,,,,,,,,,,,,,,,,,610d3c0535871d8bfa25107f,19,2022-02-12_18h04.01.519,lexical_decision_task_DD_L3,2021.2.3,MacIntel,60.0024001,,,,,,,,,,,,0.9715,1,,,,,,,,,,,,,,,,,,,,,,,,0.080616319,-0.388572049,0,0,0,,,,,,,SNACK,C,m,m,./images/SNACK.png,,,,,,,,,,,,,,,,,,,,m,1,0.9715,,,,,,,,0,65,65,73,1
,,,,,,,,,,,,,,,,,610d3c0535871d8bfa25107f,19,2022-02-12_18h04.01.519,lexical_decision_task_DD_L3,2021.2.3,MacIntel,60.0024001,,,,,,,,,,,,0.7097,1,,,,,,,,,,,,,,,,,,,,,,,,0.080616319,-0.388572049,0,0,0,,,,,,,GRAIN,LB,m,m,./images/GRAINLB.png,,,,,,,,,,,,,,,,,,,,m,1,0.7097,,,,,,,,0,66,66,75,1
,,,,,,,,,,,,,,,,,610d3c0535871d8bfa25107f,19,2022-02-12_18h04.01.519,lexical_decision_task_DD_L3,2021.2.3,MacIntel,60.0024001,,,,,,,,,,,,0.861,1,,,,,,,,,,,,,,,,,,,,,,,,0.080616319,-0.388572049,0,0,0,,,,,,,ARTIST,C,z,m,./images/ARTIST.png,,,,,,,,,,,,,,,,,,,,z,1,0.861,,,,,,,,0,67,67,145,1
,,,,,,,,,,,,,,,,,610d3c0535871d8bfa25107f,19,2022-02-12_18h04.01.519,lexical_decision_task_DD_L3,2021.2.3,MacIntel,60.0024001,,,,,,,,,,,,1.0874,1,,,,,,,,,,,,,,,,,,,,,,,,0.080616319,-0.388572049,0,0,0,,,,,,,CLOTH,HB,z,m,./images/CLOTHHB.png,,,,,,,,,,,,,,,,,,,,z,1,1.0874,,,,,,,,0,68,68,107,1
,,,,,,,,,,,,,,,,,610d3c0535871d8bfa25107f,19,2022-02-12_18h04.01.519,lexical_decision_task_DD_L3,2021.2.3,MacIntel,60.0024001,,,,,,,,,,,,1.135,0,,,,,,,,,,,,,,,,,,,,,,,,0.080616319,-0.388572049,0,0,0,,,,,,,FALCON,C,m,m,./images/FALCON.png,,,,,,,,,,,,,,,,,,,,z,0,1.135,,,,,,,,0,69,69,28,1
,,,,,,,,,,,,,,,,,610d3c0535871d8bfa25107f,19,2022-02-12_18h04.01.519,lexical_decision_task_DD_L3,2021.2.3,MacIntel,60.0024001,,,,,,,,,,,,1.2084,1,,,,,,,,,,,,,,,,,,,,,,,,0.080616319,-0.388572049,0,0,0,,,,,,,DONKEY,C,z,m,./images/DONKEY.png,,,,,,,,,,,,,,,,,,,,z,1,1.2084,,,,,,,,0,70,70,103,1
,,,,,,,,,,,,,,,,,610d3c0535871d8bfa25107f,19,2022-02-12_18h04.01.519,lexical_decision_task_DD_L3,2021.2.3,MacIntel,60.0024001,,,,,,,,,,,,0.7159,1,,,,,,,,,,,,,,,,,,,,,,,,0.080616319,-0.388572049,0,0,0,,,,,,,STORM,LB,m,m,./images/STORMLB.png,,,,,,,,,,,,,,,,,,,,m,1,0.7159,,,,,,,,0,71,71,30,1
,,,,,,,,,,,,,,,,,610d3c0535871d8bfa25107f,19,2022-02-12_18h04.01.519,lexical_decision_task_DD_L3,2021.2.3,MacIntel,60.0024001,,,,,,,,,,,,0.9579,1,,,,,,,,,,,,,,,,,,,,,,,,0.080616319,-0.388572049,0,0,0,,,,,,,TULIP,HB,m,m,./images/TULIPHB.png,,,,,,,,,,,,,,,,,,,,m,1,0.9579,,,,,,,,0,72,72,8,1
,,,,,,,,,,,,,,,,,610d3c0535871d8bfa25107f,19,2022-02-12_18h04.01.519,lexical_decision_task_DD_L3,2021.2.3,MacIntel,60.0024001,,,,,,,,,,,,0.7102,0,,,,,,,,,,,,,,,,,,,,,,,,0.080616319,-0.388572049,0,0,0,,,,,,,SQUARE,LB,m,m,./images/SQUARELB.png,,,,,,,,,,,,,,,,,,,,z,0,0.7102,,,,,,,,0,73,73,6,1
,,,,,,,,,,,,,,,,,610d3c0535871d8bfa25107f,19,2022-02-12_18h04.01.519,lexical_decision_task_DD_L3,2021.2.3,MacIntel,60.0024001,,,,,,,,,,,,0.6537,1,,,,,,,,,,,,,,,,,,,,,,,,0.080616319,-0.388572049,0,0,0,,,,,,,LADDER,HB,m,m,./images/LADDERHB.png,,,,,,,,,,,,,,,,,,,,m,1,0.6537,,,,,,,,0,74,74,38,1
,,,,,,,,,,,,,,,,,610d3c0535871d8bfa25107f,19,2022-02-12_18h04.01.519,lexical_decision_task_DD_L3,2021.2.3,MacIntel,60.0024001,,,,,,,,,,,,0.8156,1,,,,,,,,,,,,,,,,,,,,,,,,0.080616319,-0.388572049,0,0,0,,,,,,,CRATER,LB,z,m,./images/CRATERLB.png,,,,,,,,,,,,,,,,,,,,z,1,0.8156,,,,,,,,0,75,75,87,1
,,,,,,,,,,,,,,,,,610d3c0535871d8bfa25107f,19,2022-02-12_18h04.01.519,lexical_decision_task_DD_L3,2021.2.3,MacIntel,60.0024001,,,,,,,,,,,,1.0394,1,,,,,,,,,,,,,,,,,,,,,,,,0.080616319,-0.388572049,0,0,0,,,,,,,PLANK,C,m,m,./images/PLANK.png,,,,,,,,,,,,,,,,,,,,m,1,1.0394,,,,,,,,0,76,76,1,1
,,,,,,,,,,,,,,,,,610d3c0535871d8bfa25107f,19,2022-02-12_18h04.01.519,lexical_decision_task_DD_L3,2021.2.3,MacIntel,60.0024001,,,,,,,,,,,,1.0987,1,,,,,,,,,,,,,,,,,,,,,,,,0.080616319,-0.388572049,0,0,0,,,,,,,WAGON,C,z,m,./images/WAGON.png,,,,,,,,,,,,,,,,,,,,z,1,1.0987,,,,,,,,0,77,77,91,1
,,,,,,,,,,,,,,,,,610d3c0535871d8bfa25107f,19,2022-02-12_18h04.01.519,lexical_decision_task_DD_L3,2021.2.3,MacIntel,60.0024001,,,,,,,,,,,,1.2193,0,,,,,,,,,,,,,,,,,,,,,,,,0.080616319,-0.388572049,0,0,0,,,,,,,BONNET,HB,m,m,./images/BONNETHB.png,,,,,,,,,,,,,,,,,,,,z,0,1.2193,,,,,,,,0,78,78,11,1
,,,,,,,,,,,,,,,,,610d3c0535871d8bfa25107f,19,2022-02-12_18h04.01.519,lexical_decision_task_DD_L3,2021.2.3,MacIntel,60.0024001,,,,,,,,,,,,0.8382,0,,,,,,,,,,,,,,,,,,,,,,,,0.080616319,-0.388572049,0,0,0,,,,,,,SKIING,HB,m,m,./images/SKIINGHB.png,,,,,,,,,,,,,,,,,,,,z,0,0.8382,,,,,,,,0,79,79,17,1
,,,,,,,,,,,,,,,,,610d3c0535871d8bfa25107f,19,2022-02-12_18h04.01.519,lexical_decision_task_DD_L3,2021.2.3,MacIntel,60.0024001,,,,,,,,,,,,0.7938,1,,,,,,,,,,,,,,,,,,,,,,,,0.080616319,-0.388572049,0,0,0,,,,,,,PACKET,HB,m,m,./images/PACKETHB.png,,,,,,,,,,,,,,,,,,,,m,1,0.7938,,,,,,,,0,80,80,56,1
,,,,,,,,,,,,,,,,,610d3c0535871d8bfa25107f,19,2022-02-12_18h04.01.519,lexical_decision_task_DD_L3,2021.2.3,MacIntel,60.0024001,,,,,,,,,,,,0.8379,1,,,,,,,,,,,,,,,,,,,,,,,,0.080616319,-0.388572049,0,0,0,,,,,,,PAINT,C,m,m,./images/PAINT.png,,,,,,,,,,,,,,,,,,,,m,1,0.8379,,,,,,,,0,81,81,7,1
,,,,,,,,,,,,,,,,,610d3c0535871d8bfa25107f,19,2022-02-12_18h04.01.519,lexical_decision_task_DD_L3,2021.2.3,MacIntel,60.0024001,,,,,,,,,,,,0.8334,1,,,,,,,,,,,,,,,,,,,,,,,,0.080616319,-0.388572049,0,0,0,,,,,,,GRANNY,HB,z,m,./images/GRANNYHB.png,,,,,,,,,,,,,,,,,,,,z,1,0.8334,,,,,,,,0,82,82,104,1
,,,,,,,,,,,,,,,,,610d3c0535871d8bfa25107f,19,2022-02-12_18h04.01.519,lexical_decision_task_DD_L3,2021.2.3,MacIntel,60.0024001,,,,,,,,,,,,0.979,1,,,,,,,,,,,,,,,,,,,,,,,,0.080616319,-0.388572049,0,0,0,space,,,,,,HAMMER,LB,z,m,./images/HAMMERLB.png,0.947,,,,,,,,,,,,,,,,,,,z,1,0.979,,,,,,,,0,83,83,159,1
,,,,,,,,,,,,,,,,,610d3c0535871d8bfa25107f,19,2022-02-12_18h04.01.519,lexical_decision_task_DD_L3,2021.2.3,MacIntel,60.0024001,,,,,,,,,,,,0.6224,1,,,,,,,,,,,,,,,,,,,,,,,,0.080616319,-0.388572049,0,0,0,,,,,,,CRUST,C,m,m,./images/CRUST.png,,,,,,,,,,,,,,,,,,,,m,1,0.6224,,,,,,,,0,84,84,79,1
,,,,,,,,,,,,,,,,,610d3c0535871d8bfa25107f,19,2022-02-12_18h04.01.519,lexical_decision_task_DD_L3,2021.2.3,MacIntel,60.0024001,,,,,,,,,,,,0.8158,1,,,,,,,,,,,,,,,,,,,,,,,,0.080616319,-0.388572049,0,0,0,,,,,,,HEATER,HB,z,m,./images/HEATERHB.png,,,,,,,,,,,,,,,,,,,,z,1,0.8158,,,,,,,,0,85,85,140,1
,,,,,,,,,,,,,,,,,610d3c0535871d8bfa25107f,19,2022-02-12_18h04.01.519,lexical_decision_task_DD_L3,2021.2.3,MacIntel,60.0024001,,,,,,,,,,,,0.6035,1,,,,,,,,,,,,,,,,,,,,,,,,0.080616319,-0.388572049,0,0,0,,,,,,,FLESH,LB,z,m,./images/FLESHLB.png,,,,,,,,,,,,,,,,,,,,z,1,0.6035,,,,,,,,0,86,86,108,1
,,,,,,,,,,,,,,,,,610d3c0535871d8bfa25107f,19,2022-02-12_18h04.01.519,lexical_decision_task_DD_L3,2021.2.3,MacIntel,60.0024001,,,,,,,,,,,,0.7064,1,,,,,,,,,,,,,,,,,,,,,,,,0.080616319,-0.388572049,0,0,0,,,,,,,FERRY,LB,z,m,./images/FERRYLB.png,,,,,,,,,,,,,,,,,,,,z,1,0.7064,,,,,,,,0,87,87,141,1
,,,,,,,,,,,,,,,,,610d3c0535871d8bfa25107f,19,2022-02-12_18h04.01.519,lexical_decision_task_DD_L3,2021.2.3,MacIntel,60.0024001,,,,,,,,,,,,0.6536,1,,,,,,,,,,,,,,,,,,,,,,,,0.080616319,-0.388572049,0,0,0,,,,,,,SPINE,HB,z,m,./images/SPINEHB.png,,,,,,,,,,,,,,,,,,,,z,1,0.6536,,,,,,,,0,88,88,149,1
,,,,,,,,,,,,,,,,,610d3c0535871d8bfa25107f,19,2022-02-12_18h04.01.519,lexical_decision_task_DD_L3,2021.2.3,MacIntel,60.0024001,,,,,,,,,,,,0.8552,1,,,,,,,,,,,,,,,,,,,,,,,,0.080616319,-0.388572049,0,0,0,,,,,,,LLAMA,HB,z,m,./images/LLAMAHB.png,,,,,,,,,,,,,,,,,,,,z,1,0.8552,,,,,,,,0,89,89,119,1
,,,,,,,,,,,,,,,,,610d3c0535871d8bfa25107f,19,2022-02-12_18h04.01.519,lexical_decision_task_DD_L3,2021.2.3,MacIntel,60.0024001,,,,,,,,,,,,0.8013,1,,,,,,,,,,,,,,,,,,,,,,,,0.080616319,-0.388572049,0,0,0,,,,,,,SWING,C,m,m,./images/SWING.png,,,,,,,,,,,,,,,,,,,,m,1,0.8013,,,,,,,,0,90,90,40,1
,,,,,,,,,,,,,,,,,610d3c0535871d8bfa25107f,19,2022-02-12_18h04.01.519,lexical_decision_task_DD_L3,2021.2.3,MacIntel,60.0024001,,,,,,,,,,,,0.6081,0,,,,,,,,,,,,,,,,,,,,,,,,0.080616319,-0.388572049,0,0,0,,,,,,,TWINS,LB,m,m,./images/TWINSLB.png,,,,,,,,,,,,,,,,,,,,z,0,0.6081,,,,,,,,0,91,91,60,1
,,,,,,,,,,,,,,,,,610d3c0535871d8bfa25107f,19,2022-02-12_18h04.01.519,lexical_decision_task_DD_L3,2021.2.3,MacIntel,60.0024001,,,,,,,,,,,,1.1401,1,,,,,,,,,,,,,,,,,,,,,,,,0.080616319,-0.388572049,0,0,0,,,,,,,DRILL,LB,z,m,./images/DRILLLB.png,,,,,,,,,,,,,,,,,,,,z,1,1.1401,,,,,,,,0,92,92,165,1
,,,,,,,,,,,,,,,,,610d3c0535871d8bfa25107f,19,2022-02-12_18h04.01.519,lexical_decision_task_DD_L3,2021.2.3,MacIntel,60.0024001,,,,,,,,,,,,0.9218,1,,,,,,,,,,,,,,,,,,,,,,,,0.080616319,-0.388572049,0,0,0,,,,,,,SHIELD,LB,z,m,./images/SHIELDLB.png,,,,,,,,,,,,,,,,,,,,z,1,0.9218,,,,,,,,0,93,93,132,1
,,,,,,,,,,,,,,,,,610d3c0535871d8bfa25107f,19,2022-02-12_18h04.01.519,lexical_decision_task_DD_L3,2021.2.3,MacIntel,60.0024001,,,,,,,,,,,,0.7079,1,,,,,,,,,,,,,,,,,,,,,,,,0.080616319,-0.388572049,0,0,0,,,,,,,BUNNY,C,z,m,./images/BUNNY.png,,,,,,,,,,,,,,,,,,,,z,1,0.7079,,,,,,,,0,94,94,97,1
,,,,,,,,,,,,,,,,,610d3c0535871d8bfa25107f,19,2022-02-12_18h04.01.519,lexical_decision_task_DD_L3,2021.2.3,MacIntel,60.0024001,,,,,,,,,,,,1.124,1,,,,,,,,,,,,,,,,,,,,,,,,0.080616319,-0.388572049,0,0,0,,,,,,,STAIN,LB,z,m,./images/STAINLB.png,,,,,,,,,,,,,,,,,,,,z,1,1.124,,,,,,,,0,95,95,90,1
,,,,,,,,,,,,,,,,,610d3c0535871d8bfa25107f,19,2022-02-12_18h04.01.519,lexical_decision_task_DD_L3,2021.2.3,MacIntel,60.0024001,,,,,,,,,,,,0.6472,1,,,,,,,,,,,,,,,,,,,,,,,,0.080616319,-0.388572049,0,0,0,,,,,,,CANDLE,C,m,m,./images/CANDLE.png,,,,,,,,,,,,,,,,,,,,m,1,0.6472,,,,,,,,0,96,96,61,1
,,,,,,,,,,,,,,,,,610d3c0535871d8bfa25107f,19,2022-02-12_18h04.01.519,lexical_decision_task_DD_L3,2021.2.3,MacIntel,60.0024001,,,,,,,,,,,,0.9004,1,,,,,,,,,,,,,,,,,,,,,,,,0.080616319,-0.388572049,0,0,0,,,,,,,MONKEY,LB,z,m,./images/MONKEYLB.png,,,,,,,,,,,,,,,,,,,,z,1,0.9004,,,,,,,,0,97,97,129,1
,,,,,,,,,,,,,,,,,610d3c0535871d8bfa25107f,19,2022-02-12_18h04.01.519,lexical_decision_task_DD_L3,2021.2.3,MacIntel,60.0024001,,,,,,,,,,,,1.3758,0,,,,,,,,,,,,,,,,,,,,,,,,0.080616319,-0.388572049,0,0,0,,,,,,,CANYON,C,m,m,./images/CANYON.png,,,,,,,,,,,,,,,,,,,,z,0,1.3758,,,,,,,,0,98,98,34,1
,,,,,,,,,,,,,,,,,610d3c0535871d8bfa25107f,19,2022-02-12_18h04.01.519,lexical_decision_task_DD_L3,2021.2.3,MacIntel,60.0024001,,,,,,,,,,,,0.7902,1,,,,,,,,,,,,,,,,,,,,,,,,0.080616319,-0.388572049,0,0,0,,,,,,,BARREL,HB,m,m,./images/BARRELHB.png,,,,,,,,,,,,,,,,,,,,m,1,0.7902,,,,,,,,0,99,99,32,1
,,,,,,,,,,,,,,,,,610d3c0535871d8bfa25107f,19,2022-02-12_18h04.01.519,lexical_decision_task_DD_L3,2021.2.3,MacIntel,60.0024001,,,,,,,,,,,,0.7985,1,,,,,,,,,,,,,,,,,,,,,,,,0.080616319,-0.388572049,0,0,0,,,,,,,BOXER,C,z,m,./images/BOXER.png,,,,,,,,,,,,,,,,,,,,z,1,0.7985,,,,,,,,0,100,100,88,1
,,,,,,,,,,,,,,,,,610d3c0535871d8bfa25107f,19,2022-02-12_18h04.01.519,lexical_decision_task_DD_L3,2021.2.3,MacIntel,60.0024001,,,,,,,,,,,,0.8875,1,,,,,,,,,,,,,,,,,,,,,,,,0.080616319,-0.388572049,0,0,0,,,,,,,MOSQUE,C,m,m,./images/MOSQUE.png,,,,,,,,,,,,,,,,,,,,m,1,0.8875,,,,,,,,0,101,101,43,1
,,,,,,,,,,,,,,,,,610d3c0535871d8bfa25107f,19,2022-02-12_18h04.01.519,lexical_decision_task_DD_L3,2021.2.3,MacIntel,60.0024001,,,,,,,,,,,,0.6663,1,,,,,,,,,,,,,,,,,,,,,,,,0.080616319,-0.388572049,0,0,0,,,,,,,RAZOR,C,z,m,./images/RAZOR.png,,,,,,,,,,,,,,,,,,,,z,1,0.6663,,,,,,,,0,102,102,118,1
,,,,,,,,,,,,,,,,,610d3c0535871d8bfa25107f,19,2022-02-12_18h04.01.519,lexical_decision_task_DD_L3,2021.2.3,MacIntel,60.0024001,,,,,,,,,,,,0.6288,1,,,,,,,,,,,,,,,,,,,,,,,,0.080616319,-0.388572049,0,0,0,,,,,,,JUMPER,HB,z,m,./images/JUMPERHB.png,,,,,,,,,,,,,,,,,,,,z,1,0.6288,,,,,,,,0,103,103,158,1
,,,,,,,,,,,,,,,,,610d3c0535871d8bfa25107f,19,2022-02-12_18h04.01.519,lexical_decision_task_DD_L3,2021.2.3,MacIntel,60.0024001,,,,,,,,,,,,0.6671,1,,,,,,,,,,,,,,,,,,,,,,,,0.080616319,-0.388572049,0,0,0,,,,,,,DESERT,C,z,m,./images/DESERT.png,,,,,,,,,,,,,,,,,,,,z,1,0.6671,,,,,,,,0,104,104,136,1
,,,,,,,,,,,,,,,,,610d3c0535871d8bfa25107f,19,2022-02-12_18h04.01.519,lexical_decision_task_DD_L3,2021.2.3,MacIntel,60.0024001,,,,,,,,,,,,0.7131,1,,,,,,,,,,,,,,,,,,,,,,,,0.080616319,-0.388572049,0,0,0,,,,,,,QUILL,C,m,m,./images/QUILL.png,,,,,,,,,,,,,,,,,,,,m,1,0.7131,,,,,,,,0,105,105,31,1
,,,,,,,,,,,,,,,,,610d3c0535871d8bfa25107f,19,2022-02-12_18h04.01.519,lexical_decision_task_DD_L3,2021.2.3,MacIntel,60.0024001,,,,,,,,,,,,0.7485,1,,,,,,,,,,,,,,,,,,,,,,,,0.080616319,-0.388572049,0,0,0,,,,,,,PLANET,HB,z,m,./images/PLANETHB.png,,,,,,,,,,,,,,,,,,,,z,1,0.7485,,,,,,,,0,106,106,164,1
,,,,,,,,,,,,,,,,,610d3c0535871d8bfa25107f,19,2022-02-12_18h04.01.519,lexical_decision_task_DD_L3,2021.2.3,MacIntel,60.0024001,,,,,,,,,,,,1.7338,1,,,,,,,,,,,,,,,,,,,,,,,,0.080616319,-0.388572049,0,0,0,,,,,,,LIZARD,HB,m,m,./images/LIZARDHB.png,,,,,,,,,,,,,,,,,,,,m,1,1.7338,,,,,,,,0,107,107,44,1
,,,,,,,,,,,,,,,,,610d3c0535871d8bfa25107f,19,2022-02-12_18h04.01.519,lexical_decision_task_DD_L3,2021.2.3,MacIntel,60.0024001,,,,,,,,,,,,0.6997,1,,,,,,,,,,,,,,,,,,,,,,,,0.080616319,-0.388572049,0,0,0,,,,,,,MOOSE,LB,m,m,./images/MOOSELB.png,,,,,,,,,,,,,,,,,,,,m,1,0.6997,,,,,,,,0,108,108,57,1
,,,,,,,,,,,,,,,,,610d3c0535871d8bfa25107f,19,2022-02-12_18h04.01.519,lexical_decision_task_DD_L3,2021.2.3,MacIntel,60.0024001,,,,,,,,,,,,0.7419,1,,,,,,,,,,,,,,,,,,,,,,,,0.080616319,-0.388572049,0,0,0,,,,,,,STEAK,C,z,m,./images/STEAK.png,,,,,,,,,,,,,,,,,,,,z,1,0.7419,,,,,,,,0,109,109,115,1
,,,,,,,,,,,,,,,,,610d3c0535871d8bfa25107f,19,2022-02-12_18h04.01.519,lexical_decision_task_DD_L3,2021.2.3,MacIntel,60.0024001,,,,,,,,,,,,1.4744,1,,,,,,,,,,,,,,,,,,,,,,,,0.080616319,-0.388572049,0,0,0,,,,,,,MEDAL,HB,z,m,./images/MEDALHB.png,,,,,,,,,,,,,,,,,,,,z,1,1.4744,,,,,,,,0,110,110,95,1
,,,,,,,,,,,,,,,,,610d3c0535871d8bfa25107f,19,2022-02-12_18h04.01.519,lexical_decision_task_DD_L3,2021.2.3,MacIntel,60.0024001,,,,,,,,,,,,1.5224,1,,,,,,,,,,,,,,,,,,,,,,,,0.080616319,-0.388572049,0,0,0,,,,,,,SHELF,LB,m,m,./images/SHELFLB.png,,,,,,,,,,,,,,,,,,,,m,1,1.5224,,,,,,,,0,111,111,39,1
,,,,,,,,,,,,,,,,,610d3c0535871d8bfa25107f,19,2022-02-12_18h04.01.519,lexical_decision_task_DD_L3,2021.2.3,MacIntel,60.0024001,,,,,,,,,,,,0.881,0,,,,,,,,,,,,,,,,,,,,,,,,0.080616319,-0.388572049,0,0,0,,,,,,,BASKET,HB,z,m,./images/BASKETHB.png,,,,,,,,,,,,,,,,,,,,m,0,0.881,,,,,,,,0,112,112,128,1
,,,,,,,,,,,,,,,,,610d3c0535871d8bfa25107f,19,2022-02-12_18h04.01.519,lexical_decision_task_DD_L3,2021.2.3,MacIntel,60.0024001,,,,,,,,,,,,0.6177,1,,,,,,,,,,,,,,,,,,,,,,,,0.080616319,-0.388572049,0,0,0,,,,,,,DRUMS,C,m,m,./images/DRUMS.png,,,,,,,,,,,,,,,,,,,,m,1,0.6177,,,,,,,,0,113,113,49,1
,,,,,,,,,,,,,,,,,610d3c0535871d8bfa25107f,19,2022-02-12_18h04.01.519,lexical_decision_task_DD_L3,2021.2.3,MacIntel,60.0024001,,,,,,,,,,,,0.7553,1,,,,,,,,,,,,,,,,,,,,,,,,0.080616319,-0.388572049,0,0,0,,,,,,,GARDEN,C,z,m,./images/GARDEN.png,,,,,,,,,,,,,,,,,,,,z,1,0.7553,,,,,,,,0,114,114,94,1
,,,,,,,,,,,,,,,,,610d3c0535871d8bfa25107f,19,2022-02-12_18h04.01.519,lexical_decision_task_DD_L3,2021.2.3,MacIntel,60.0024001,,,,,,,,,,,,0.6325,1,,,,,,,,,,,,,,,,,,,,,,,,0.080616319,-0.388572049,0,0,0,,,,,,,PILOT,HB,z,m,./images/PILOTHB.png,,,,,,,,,,,,,,,,,,,,z,1,0.6325,,,,,,,,0,115,115,134,1
,,,,,,,,,,,,,,,,,610d3c0535871d8bfa25107f,19,2022-02-12_18h04.01.519,lexical_decision_task_DD_L3,2021.2.3,MacIntel,60.0024001,,,,,,,,,,,,1.0939,1,,,,,,,,,,,,,,,,,,,,,,,,0.080616319,-0.388572049,0,0,0,,,,,,,GRAPE,C,z,m,./images/GRAPE.png,,,,,,,,,,,,,,,,,,,,z,1,1.0939,,,,,,,,0,116,116,100,1
,,,,,,,,,,,,,,,,,610d3c0535871d8bfa25107f,19,2022-02-12_18h04.01.519,lexical_decision_task_DD_L3,2021.2.3,MacIntel,60.0024001,,,,,,,,,,,,0.9589,1,,,,,,,,,,,,,,,,,,,,,,,,0.080616319,-0.388572049,0,0,0,,,,,,,GREASE,LB,m,m,./images/GREASELB.png,,,,,,,,,,,,,,,,,,,,m,1,0.9589,,,,,,,,0,117,117,15,1
,,,,,,,,,,,,,,,,,610d3c0535871d8bfa25107f,19,2022-02-12_18h04.01.519,lexical_decision_task_DD_L3,2021.2.3,MacIntel,60.0024001,,,,,,,,,,,,0.6753,1,,,,,,,,,,,,,,,,,,,,,,,,0.080616319,-0.388572049,0,0,0,,,,,,,GLOVE,C,z,m,./images/GLOVE.png,,,,,,,,,,,,,,,,,,,,z,1,0.6753,,,,,,,,0,118,118,157,1
,,,,,,,,,,,,,,,,,610d3c0535871d8bfa25107f,19,2022-02-12_18h04.01.519,lexical_decision_task_DD_L3,2021.2.3,MacIntel,60.0024001,,,,,,,,,,,,0.9358,1,,,,,,,,,,,,,,,,,,,,,,,,0.080616319,-0.388572049,0,0,0,,,,,,,PISTOL,HB,z,m,./images/PISTOLHB.png,,,,,,,,,,,,,,,,,,,,z,1,0.9358,,,,,,,,0,119,119,113,1
,,,,,,,,,,,,,,,,,610d3c0535871d8bfa25107f,19,2022-02-12_18h04.01.519,lexical_decision_task_DD_L3,2021.2.3,MacIntel,60.0024001,,,,,,,,,,,,0.8696,1,,,,,,,,,,,,,,,,,,,,,,,,0.080616319,-0.388572049,0,0,0,,,,,,,PEACH,HB,m,m,./images/PEACHHB.png,,,,,,,,,,,,,,,,,,,,m,1,0.8696,,,,,,,,0,120,120,35,1
,,,,,,,,,,,,,,,,,610d3c0535871d8bfa25107f,19,2022-02-12_18h04.01.519,lexical_decision_task_DD_L3,2021.2.3,MacIntel,60.0024001,,,,,,,,,,,,0.7593,1,,,,,,,,,,,,,,,,,,,,,,,,0.080616319,-0.388572049,0,0,0,,,,,,,CHALK,C,z,m,./images/CHALK.png,,,,,,,,,,,,,,,,,,,,z,1,0.7593,,,,,,,,0,121,121,109,1
,,,,,,,,,,,,,,,,,610d3c0535871d8bfa25107f,19,2022-02-12_18h04.01.519,lexical_decision_task_DD_L3,2021.2.3,MacIntel,60.0024001,,,,,,,,,,,,0.9169,1,,,,,,,,,,,,,,,,,,,,,,,,0.080616319,-0.388572049,0,0,0,,,,,,,ENGINE,HB,z,m,./images/ENGINEHB.png,,,,,,,,,,,,,,,,,,,,z,1,0.9169,,,,,,,,0,122,122,122,1
,,,,,,,,,,,,,,,,,610d3c0535871d8bfa25107f,19,2022-02-12_18h04.01.519,lexical_decision_task_DD_L3,2021.2.3,MacIntel,60.0024001,,,,,,,,,,,,0.5933,1,,,,,,,,,,,,,,,,,,,,,,,,0.080616319,-0.388572049,0,0,0,,,,,,,PEARL,C,m,m,./images/PEARL.png,,,,,,,,,,,,,,,,,,,,m,1,0.5933,,,,,,,,0,123,123,46,1
,,,,,,,,,,,,,,,,,610d3c0535871d8bfa25107f,19,2022-02-12_18h04.01.519,lexical_decision_task_DD_L3,2021.2.3,MacIntel,60.0024001,,,,,,,,,,,,0.8443,1,,,,,,,,,,,,,,,,,,,,,,,,0.080616319,-0.388572049,0,0,0,,,,,,,MAMMAL,HB,z,m,./images/MAMMALHB.png,,,,,,,,,,,,,,,,,,,,z,1,0.8443,,,,,,,,0,124,124,146,1
,,,,,,,,,,,,,,,,,610d3c0535871d8bfa25107f,19,2022-02-12_18h04.01.519,lexical_decision_task_DD_L3,2021.2.3,MacIntel,60.0024001,,,,,,,,,,,,0.719,1,,,,,,,,,,,,,,,,,,,,,,,,0.080616319,-0.388572049,0,0,0,space,,,,,,WHEEL,HB,z,m,./images/WHEELHB.png,0.8436,,,,,,,,,,,,,,,,,,,z,1,0.719,,,,,,,,0,125,125,161,1
,,,,,,,,,,,,,,,,,610d3c0535871d8bfa25107f,19,2022-02-12_18h04.01.519,lexical_decision_task_DD_L3,2021.2.3,MacIntel,60.0024001,,,,,,,,,,,,1.0597,1,,,,,,,,,,,,,,,,,,,,,,,,0.080616319,-0.388572049,0,0,0,,,,,,,KIDNEY,LB,m,m,./images/KIDNEYLB.png,,,,,,,,,,,,,,,,,,,,m,1,1.0597,,,,,,,,0,126,126,21,1
,,,,,,,,,,,,,,,,,610d3c0535871d8bfa25107f,19,2022-02-12_18h04.01.519,lexical_decision_task_DD_L3,2021.2.3,MacIntel,60.0024001,,,,,,,,,,,,0.8597,1,,,,,,,,,,,,,,,,,,,,,,,,0.080616319,-0.388572049,0,0,0,,,,,,,CARPET,HB,m,m,./images/CARPETHB.png,,,,,,,,,,,,,,,,,,,,m,1,0.8597,,,,,,,,0,127,127,53,1
,,,,,,,,,,,,,,,,,610d3c0535871d8bfa25107f,19,2022-02-12_18h04.01.519,lexical_decision_task_DD_L3,2021.2.3,MacIntel,60.0024001,,,,,,,,,,,,0.7802,0,,,,,,,,,,,,,,,,,,,,,,,,0.080616319,-0.388572049,0,0,0,,,,,,,JELLY,C,m,m,./images/JELLY.png,,,,,,,,,,,,,,,,,,,,z,0,0.7802,,,,,,,,0,128,128,64,1
