key_resp.keys,key_resp.rt,instr_done_touch.x,instr_done_touch.y,instr_done_touch.leftButton,instr_done_touch.midButton,instr_done_touch.rightButton,instruction_pages.thisRepN,instruction_pages.thisTrialN,instruction_pages.thisN,instruction_pages.thisIndex,instruction_pages.ran,pageN,phase,instruct_text,has_image,instruct_image,participant,age,date,expName,psychopyVersion,OS,frameRate,response.keys,response.corr,response.rt,touch_resp.x,touch_resp.y,touch_resp.leftButton,touch_resp.midButton,touch_resp.rightButton,touch_resp.time,touch_resp.clicked_name,rt,corr,practrials.thisRepN,practrials.thisTrialN,practrials.thisN,practrials.thisIndex,practrials.ran,TrialID,Target,corrAns,end_of_practice_trials_pages.thisRepN,end_of_practice_trials_pages.thisTrialN,end_of_practice_trials_pages.thisN,end_of_practice_trials_pages.thisIndex,end_of_practice_trials_pages.ran,key_resp_2.keys,key_resp_2.corr,key_resp_2.rt,targ_click.x,targ_click.y,targ_click.leftButton,targ_click.midButton,targ_click.rightButton,targ_click.time,targ_click.clicked_name,break_done_touch.x,break_done_touch.y,break_done_touch.leftButton,break_done_touch.midButton,break_done_touch.rightButton,break_done_keyboard.keys,maintrials.thisRepN,maintrials.thisTrialN,maintrials.thisN,maintrials.thisIndex,maintrials.ran,string,blur,study,lex,stim_path,break_done_keyboard.rt,mouse_2.x,mouse_2.y,mouse_2.leftButton,mouse_2.midButton,mouse_2.rightButton,mouse_2.clicked_name,slider.response,slider.rt,trials.thisRepN,trials.thisTrialN,trials.thisN,trials.thisIndex,trials.ran,test_instructions.thisRepN,test_instructions.thisTrialN,test_instructions.thisN,test_instructions.thisIndex,test_instructions.ran,instr_done_touch.clicked_name,key_resp_3.keys,key_resp_3.corr,key_resp_3.rt,test_click.x,test_click.y,test_click.leftButton,test_click.midButton,test_click.rightButton,test_click.time,test_click.clicked_name,test_phase.thisRepN,test_phase.thisTrialN,test_phase.thisN,test_phase.thisIndex,test_phase.ran
space,20.5682,0.1305,-0.351,0,0,0,0,0,0,0,1,1,instructions,"INSTRUCTIONS
At the start of each trial, look at the plus sign  (+) in the center of the screen.  This tells you that a trial is about to begin and where to look. Second, the plus sign will disappear and a string of letters will appear. Your task is to determine if the string of letters is a word or not. If the item is a word press the M key (on keyboard)  or touch the word button (phone/tablet).  If the item is not a word,  press the  Z key (on keyboard)  or touch the nonword button (on phone/tablet). 
Press the space bar or touch  continue.",0,,6112dd8e4f8c8dd1b427088e,27,2022-02-12_17h57.52.282,lexical_decision_task_DD_L4,2021.2.3,Win32,61.67129201,,,,,,,,,,,,,,,,,,,,,,,,,,,,,,,,,,,,,,,,,,,,,,,,,,,,,,,,,,,,,,,,,,,,,,,,,,,,,,,,,,,,,,
space,17.6273,0.1305,-0.351,0,0,0,0,1,1,1,1,2,instructions,"If your device has a keyboard, press the 'Z' key for nonwords and the 'M' key for words.





Press the space bar or touch the button below to continue.",0,keyboard-example.gif,6112dd8e4f8c8dd1b427088e,27,2022-02-12_17h57.52.282,lexical_decision_task_DD_L4,2021.2.3,Win32,61.67129201,,,,,,,,,,,,,,,,,,,,,,,,,,,,,,,,,,,,,,,,,,,,,,,,,,,,,,,,,,,,,,,,,,,,,,,,,,,,,,,,,,,,,,
space,10.6892,0.1305,-0.351,0,0,0,0,2,2,2,1,3,instructions,"If you are using a touchscreen only device, use the buttons on the screen. Do not use the mouse.





Press the space bar or touch the button below to continue.",0,touchscreen-example.gif,6112dd8e4f8c8dd1b427088e,27,2022-02-12_17h57.52.282,lexical_decision_task_DD_L4,2021.2.3,Win32,61.67129201,,,,,,,,,,,,,,,,,,,,,,,,,,,,,,,,,,,,,,,,,,,,,,,,,,,,,,,,,,,,,,,,,,,,,,,,,,,,,,,,,,,,,,
space,8.9246,0.1305,-0.351,0,0,0,0,3,3,3,1,4,instructions,"It is very important that you respond as quickly and accurately as possible, as each letter string will only be on the screen for two seconds. If you do not respond within this time, the message 'Too slow!' will be displayed and the experiment will progress to the next letter string. The first 20 trials will be practice trials and you will receive feedback on your answers. 

Press the space bar or touch the button below to start the practice trials.",0,,6112dd8e4f8c8dd1b427088e,27,2022-02-12_17h57.52.282,lexical_decision_task_DD_L4,2021.2.3,Win32,61.67129201,,,,,,,,,,,,,,,,,,,,,,,,,,,,,,,,,,,,,,,,,,,,,,,,,,,,,,,,,,,,,,,,,,,,,,,,,,,,,,,,,,,,,,
,,,,,,,,,,,,,,,,,6112dd8e4f8c8dd1b427088e,27,2022-02-12_17h57.52.282,lexical_decision_task_DD_L4,2021.2.3,Win32,61.67129201,z,1,0.6497,,,,,,,,0.6497,1,0,0,0,8,1,1001,ASLERT,z,,,,,,,,,,,,,,,,,,,,,,,,,,,,,,,,,,,,,,,,,,,,,,,,,,,,,,,,,,,,,,,,,,
,,,,,,,,,,,,,,,,,6112dd8e4f8c8dd1b427088e,27,2022-02-12_17h57.52.282,lexical_decision_task_DD_L4,2021.2.3,Win32,61.67129201,z,1,0.6844,,,,,,,,0.6844,1,0,1,1,14,1,1001,THRALE,z,,,,,,,,,,,,,,,,,,,,,,,,,,,,,,,,,,,,,,,,,,,,,,,,,,,,,,,,,,,,,,,,,,
,,,,,,,,,,,,,,,,,6112dd8e4f8c8dd1b427088e,27,2022-02-12_17h57.52.282,lexical_decision_task_DD_L4,2021.2.3,Win32,61.67129201,m,1,0.496,,,,,,,,0.496,1,0,2,2,1,1,1001,ADJUST,m,,,,,,,,,,,,,,,,,,,,,,,,,,,,,,,,,,,,,,,,,,,,,,,,,,,,,,,,,,,,,,,,,,
,,,,,,,,,,,,,,,,,6112dd8e4f8c8dd1b427088e,27,2022-02-12_17h57.52.282,lexical_decision_task_DD_L4,2021.2.3,Win32,61.67129201,z,1,0.6765,,,,,,,,0.6765,1,0,3,3,15,1,1001,WHAISE,z,,,,,,,,,,,,,,,,,,,,,,,,,,,,,,,,,,,,,,,,,,,,,,,,,,,,,,,,,,,,,,,,,,
,,,,,,,,,,,,,,,,,6112dd8e4f8c8dd1b427088e,27,2022-02-12_17h57.52.282,lexical_decision_task_DD_L4,2021.2.3,Win32,61.67129201,z,1,0.6875,,,,,,,,0.6875,1,0,4,4,9,1,1001,FARINY,z,,,,,,,,,,,,,,,,,,,,,,,,,,,,,,,,,,,,,,,,,,,,,,,,,,,,,,,,,,,,,,,,,,
,,,,,,,,,,,,,,,,,6112dd8e4f8c8dd1b427088e,27,2022-02-12_17h57.52.282,lexical_decision_task_DD_L4,2021.2.3,Win32,61.67129201,m,1,0.4459,,,,,,,,0.4459,1,0,5,5,4,1,1001,SQUEAK,m,,,,,,,,,,,,,,,,,,,,,,,,,,,,,,,,,,,,,,,,,,,,,,,,,,,,,,,,,,,,,,,,,,
,,,,,,,,,,,,,,,,,6112dd8e4f8c8dd1b427088e,27,2022-02-12_17h57.52.282,lexical_decision_task_DD_L4,2021.2.3,Win32,61.67129201,z,1,0.6775,,,,,,,,0.6775,1,0,6,6,12,1,1001,SPRINY,z,,,,,,,,,,,,,,,,,,,,,,,,,,,,,,,,,,,,,,,,,,,,,,,,,,,,,,,,,,,,,,,,,,
,,,,,,,,,,,,,,,,,6112dd8e4f8c8dd1b427088e,27,2022-02-12_17h57.52.282,lexical_decision_task_DD_L4,2021.2.3,Win32,61.67129201,m,1,0.5235,,,,,,,,0.5235,1,0,7,7,6,1,1001,ZOMBIE,m,,,,,,,,,,,,,,,,,,,,,,,,,,,,,,,,,,,,,,,,,,,,,,,,,,,,,,,,,,,,,,,,,,
,,,,,,,,,,,,,,,,,6112dd8e4f8c8dd1b427088e,27,2022-02-12_17h57.52.282,lexical_decision_task_DD_L4,2021.2.3,Win32,61.67129201,z,1,0.5778,,,,,,,,0.5778,1,0,8,8,11,1,1001,RASHET,z,,,,,,,,,,,,,,,,,,,,,,,,,,,,,,,,,,,,,,,,,,,,,,,,,,,,,,,,,,,,,,,,,,
,,,,,,,,,,,,,,,,,6112dd8e4f8c8dd1b427088e,27,2022-02-12_17h57.52.282,lexical_decision_task_DD_L4,2021.2.3,Win32,61.67129201,m,1,0.5274,,,,,,,,0.5274,1,0,9,9,5,1,1001,OBTAIN,m,,,,,,,,,,,,,,,,,,,,,,,,,,,,,,,,,,,,,,,,,,,,,,,,,,,,,,,,,,,,,,,,,,
,,,,,,,,,,,,,,,,,6112dd8e4f8c8dd1b427088e,27,2022-02-12_17h57.52.282,lexical_decision_task_DD_L4,2021.2.3,Win32,61.67129201,z,1,0.627,,,,,,,,0.627,1,0,10,10,10,1,1001,INLADE,z,,,,,,,,,,,,,,,,,,,,,,,,,,,,,,,,,,,,,,,,,,,,,,,,,,,,,,,,,,,,,,,,,,
,,,,,,,,,,,,,,,,,6112dd8e4f8c8dd1b427088e,27,2022-02-12_17h57.52.282,lexical_decision_task_DD_L4,2021.2.3,Win32,61.67129201,m,1,0.4784,,,,,,,,0.4784,1,0,11,11,7,1,1001,VOLUME,m,,,,,,,,,,,,,,,,,,,,,,,,,,,,,,,,,,,,,,,,,,,,,,,,,,,,,,,,,,,,,,,,,,
,,,,,,,,,,,,,,,,,6112dd8e4f8c8dd1b427088e,27,2022-02-12_17h57.52.282,lexical_decision_task_DD_L4,2021.2.3,Win32,61.67129201,m,1,0.6425,,,,,,,,0.6425,1,0,12,12,0,1,1001,UTOPIA,m,,,,,,,,,,,,,,,,,,,,,,,,,,,,,,,,,,,,,,,,,,,,,,,,,,,,,,,,,,,,,,,,,,
,,,,,,,,,,,,,,,,,6112dd8e4f8c8dd1b427088e,27,2022-02-12_17h57.52.282,lexical_decision_task_DD_L4,2021.2.3,Win32,61.67129201,m,1,0.5996,,,,,,,,0.5996,1,0,13,13,3,1,1001,MATRIX,m,,,,,,,,,,,,,,,,,,,,,,,,,,,,,,,,,,,,,,,,,,,,,,,,,,,,,,,,,,,,,,,,,,
,,,,,,,,,,,,,,,,,6112dd8e4f8c8dd1b427088e,27,2022-02-12_17h57.52.282,lexical_decision_task_DD_L4,2021.2.3,Win32,61.67129201,z,1,0.5858,,,,,,,,0.5858,1,0,14,14,13,1,1001,ROUPET,z,,,,,,,,,,,,,,,,,,,,,,,,,,,,,,,,,,,,,,,,,,,,,,,,,,,,,,,,,,,,,,,,,,
,,,,,,,,,,,,,,,,,6112dd8e4f8c8dd1b427088e,27,2022-02-12_17h57.52.282,lexical_decision_task_DD_L4,2021.2.3,Win32,61.67129201,m,1,0.5173,,,,,,,,0.5173,1,0,15,15,2,1,1001,ALMOND,m,,,,,,,,,,,,,,,,,,,,,,,,,,,,,,,,,,,,,,,,,,,,,,,,,,,,,,,,,,,,,,,,,,
space,2.0393,0.1305,-0.351,0,0,0,,,,,,1,end_of_practice,"You have completed the practice trials. During the experimental trials, you will not receive feedback. 
Before you begin, please ensure that you are in a comfortable and quiet location and will not be disturbed for about 15 minutes, as we cannot use your data if you do not complete all the trials. 
 When you are ready to start the experimental trials, please press space or touch the button below.",,,6112dd8e4f8c8dd1b427088e,27,2022-02-12_17h57.52.282,lexical_decision_task_DD_L4,2021.2.3,Win32,61.67129201,,,,,,,,,,,,,,,,,,,,,0,0,0,0,1,,,,,,,,,,,,,,,,,,,,,,,,,,,,,,,,,,,,,,,,,,,,,,,,,,,,,,,,,,,,,
,,,,,,,,,,,,,,,,,6112dd8e4f8c8dd1b427088e,27,2022-02-12_17h57.52.282,lexical_decision_task_DD_L4,2021.2.3,Win32,61.67129201,,,,,,,,,,,0.7724,1,,,,,,,,,,,,,,z,1,0.7724,,,,,,,,0.1305,-0.351,0,0,0,,0,0,0,130,1,CRILL,HB,old,z,./images/CRILLHB.png,,,,,,,,,,,,,,,,,,,,,,,,,,,,,,,,,,,
,,,,,,,,,,,,,,,,,6112dd8e4f8c8dd1b427088e,27,2022-02-12_17h57.52.282,lexical_decision_task_DD_L4,2021.2.3,Win32,61.67129201,,,,,,,,,,,0.5872,1,,,,,,,,,,,,,,m,1,0.5872,,,,,,,,0.1305,-0.351,0,0,0,,0,1,1,16,1,GRAPE,HB,old,m,./images/GRAPEHB.png,,,,,,,,,,,,,,,,,,,,,,,,,,,,,,,,,,,
,,,,,,,,,,,,,,,,,6112dd8e4f8c8dd1b427088e,27,2022-02-12_17h57.52.282,lexical_decision_task_DD_L4,2021.2.3,Win32,61.67129201,,,,,,,,,,,0.6317,1,,,,,,,,,,,,,,z,1,0.6317,,,,,,,,0.1305,-0.351,0,0,0,,0,2,2,129,1,PRANS,C,old,z,./images/PRANS.png,,,,,,,,,,,,,,,,,,,,,,,,,,,,,,,,,,,
,,,,,,,,,,,,,,,,,6112dd8e4f8c8dd1b427088e,27,2022-02-12_17h57.52.282,lexical_decision_task_DD_L4,2021.2.3,Win32,61.67129201,,,,,,,,,,,0.6128,1,,,,,,,,,,,,,,z,1,0.6128,,,,,,,,0.1305,-0.351,0,0,0,,0,3,3,117,1,STEEG,C,old,z,./images/STEEG.png,,,,,,,,,,,,,,,,,,,,,,,,,,,,,,,,,,,
,,,,,,,,,,,,,,,,,6112dd8e4f8c8dd1b427088e,27,2022-02-12_17h57.52.282,lexical_decision_task_DD_L4,2021.2.3,Win32,61.67129201,,,,,,,,,,,0.5509,0,,,,,,,,,,,,,,m,0,0.5509,,,,,,,,0.1305,-0.351,0,0,0,,0,4,4,149,1,VEASE,LB,old,z,./images/VEASELB.png,,,,,,,,,,,,,,,,,,,,,,,,,,,,,,,,,,,
,,,,,,,,,,,,,,,,,6112dd8e4f8c8dd1b427088e,27,2022-02-12_17h57.52.282,lexical_decision_task_DD_L4,2021.2.3,Win32,61.67129201,,,,,,,,,,,0.5398,1,,,,,,,,,,,,,,m,1,0.5398,,,,,,,,0.1305,-0.351,0,0,0,,0,5,5,43,1,STOOL,HB,old,m,./images/STOOLHB.png,,,,,,,,,,,,,,,,,,,,,,,,,,,,,,,,,,,
,,,,,,,,,,,,,,,,,6112dd8e4f8c8dd1b427088e,27,2022-02-12_17h57.52.282,lexical_decision_task_DD_L4,2021.2.3,Win32,61.67129201,,,,,,,,,,,0.702,0,,,,,,,,,,,,,,m,0,0.702,,,,,,,,0.1305,-0.351,0,0,0,,0,6,6,106,1,CLUMS,HB,old,z,./images/CLUMSHB.png,,,,,,,,,,,,,,,,,,,,,,,,,,,,,,,,,,,
,,,,,,,,,,,,,,,,,6112dd8e4f8c8dd1b427088e,27,2022-02-12_17h57.52.282,lexical_decision_task_DD_L4,2021.2.3,Win32,61.67129201,,,,,,,,,,,0.6484,1,,,,,,,,,,,,,,m,1,0.6484,,,,,,,,0.1305,-0.351,0,0,0,,0,7,7,34,1,RAZOR,HB,old,m,./images/RAZORHB.png,,,,,,,,,,,,,,,,,,,,,,,,,,,,,,,,,,,
,,,,,,,,,,,,,,,,,6112dd8e4f8c8dd1b427088e,27,2022-02-12_17h57.52.282,lexical_decision_task_DD_L4,2021.2.3,Win32,61.67129201,,,,,,,,,,,0.5202,1,,,,,,,,,,,,,,m,1,0.5202,,,,,,,,0.1305,-0.351,0,0,0,,0,8,8,75,1,HAMMER,C,old,m,./images/HAMMER.png,,,,,,,,,,,,,,,,,,,,,,,,,,,,,,,,,,,
,,,,,,,,,,,,,,,,,6112dd8e4f8c8dd1b427088e,27,2022-02-12_17h57.52.282,lexical_decision_task_DD_L4,2021.2.3,Win32,61.67129201,,,,,,,,,,,0.6894,0,,,,,,,,,,,,,,z,0,0.6894,,,,,,,,0.1305,-0.351,0,0,0,,0,9,9,46,1,MUMMY,HB,old,m,./images/MUMMYHB.png,,,,,,,,,,,,,,,,,,,,,,,,,,,,,,,,,,,
,,,,,,,,,,,,,,,,,6112dd8e4f8c8dd1b427088e,27,2022-02-12_17h57.52.282,lexical_decision_task_DD_L4,2021.2.3,Win32,61.67129201,,,,,,,,,,,0.5166,1,,,,,,,,,,,,,,m,1,0.5166,,,,,,,,0.1305,-0.351,0,0,0,,0,10,10,6,1,STAIN,C,old,m,./images/STAIN.png,,,,,,,,,,,,,,,,,,,,,,,,,,,,,,,,,,,
,,,,,,,,,,,,,,,,,6112dd8e4f8c8dd1b427088e,27,2022-02-12_17h57.52.282,lexical_decision_task_DD_L4,2021.2.3,Win32,61.67129201,,,,,,,,,,,0.5391,1,,,,,,,,,,,,,,m,1,0.5391,,,,,,,,0.1305,-0.351,0,0,0,,0,11,11,70,1,BANANA,HB,old,m,./images/BANANAHB.png,,,,,,,,,,,,,,,,,,,,,,,,,,,,,,,,,,,
,,,,,,,,,,,,,,,,,6112dd8e4f8c8dd1b427088e,27,2022-02-12_17h57.52.282,lexical_decision_task_DD_L4,2021.2.3,Win32,61.67129201,,,,,,,,,,,0.5802,1,,,,,,,,,,,,,,m,1,0.5802,,,,,,,,0.1305,-0.351,0,0,0,,0,12,12,13,1,BUNNY,HB,old,m,./images/BUNNYHB.png,,,,,,,,,,,,,,,,,,,,,,,,,,,,,,,,,,,
,,,,,,,,,,,,,,,,,6112dd8e4f8c8dd1b427088e,27,2022-02-12_17h57.52.282,lexical_decision_task_DD_L4,2021.2.3,Win32,61.67129201,,,,,,,,,,,0.5843,1,,,,,,,,,,,,,,m,1,0.5843,,,,,,,,0.1305,-0.351,0,0,0,,0,13,13,82,1,PEBBLE,HB,old,m,./images/PEBBLEHB.png,,,,,,,,,,,,,,,,,,,,,,,,,,,,,,,,,,,
,,,,,,,,,,,,,,,,,6112dd8e4f8c8dd1b427088e,27,2022-02-12_17h57.52.282,lexical_decision_task_DD_L4,2021.2.3,Win32,61.67129201,,,,,,,,,,,0.5961,1,,,,,,,,,,,,,,z,1,0.5961,,,,,,,,0.1305,-0.351,0,0,0,,0,14,14,86,1,AIFED,LB,old,z,./images/AIFEDLB.png,,,,,,,,,,,,,,,,,,,,,,,,,,,,,,,,,,,
,,,,,,,,,,,,,,,,,6112dd8e4f8c8dd1b427088e,27,2022-02-12_17h57.52.282,lexical_decision_task_DD_L4,2021.2.3,Win32,61.67129201,,,,,,,,,,,0.6594,0,,,,,,,,,,,,,,m,0,0.6594,,,,,,,,0.1305,-0.351,0,0,0,,0,15,15,85,1,CHULK,HB,old,z,./images/CHULKHB.png,,,,,,,,,,,,,,,,,,,,,,,,,,,,,,,,,,,
,,,,,,,,,,,,,,,,,6112dd8e4f8c8dd1b427088e,27,2022-02-12_17h57.52.282,lexical_decision_task_DD_L4,2021.2.3,Win32,61.67129201,,,,,,,,,,,0.6861,1,,,,,,,,,,,,,,z,1,0.6861,,,,,,,,0.1305,-0.351,0,0,0,,0,16,16,138,1,PLICE,C,old,z,./images/PLICE.png,,,,,,,,,,,,,,,,,,,,,,,,,,,,,,,,,,,
,,,,,,,,,,,,,,,,,6112dd8e4f8c8dd1b427088e,27,2022-02-12_17h57.52.282,lexical_decision_task_DD_L4,2021.2.3,Win32,61.67129201,,,,,,,,,,,0.562,1,,,,,,,,,,,,,,m,1,0.562,,,,,,,,0.1305,-0.351,0,0,0,,0,17,17,21,1,DANCER,C,old,m,./images/DANCER.png,,,,,,,,,,,,,,,,,,,,,,,,,,,,,,,,,,,
,,,,,,,,,,,,,,,,,6112dd8e4f8c8dd1b427088e,27,2022-02-12_17h57.52.282,lexical_decision_task_DD_L4,2021.2.3,Win32,61.67129201,,,,,,,,,,,0.6706,1,,,,,,,,,,,,,,m,1,0.6706,,,,,,,,0.1305,-0.351,0,0,0,,0,18,18,19,1,DONKEY,HB,old,m,./images/DONKEYHB.png,,,,,,,,,,,,,,,,,,,,,,,,,,,,,,,,,,,
,,,,,,,,,,,,,,,,,6112dd8e4f8c8dd1b427088e,27,2022-02-12_17h57.52.282,lexical_decision_task_DD_L4,2021.2.3,Win32,61.67129201,,,,,,,,,,,0.6162,1,,,,,,,,,,,,,,z,1,0.6162,,,,,,,,0.1305,-0.351,0,0,0,,0,19,19,131,1,NACES,LB,old,z,./images/NACESLB.png,,,,,,,,,,,,,,,,,,,,,,,,,,,,,,,,,,,
,,,,,,,,,,,,,,,,,6112dd8e4f8c8dd1b427088e,27,2022-02-12_17h57.52.282,lexical_decision_task_DD_L4,2021.2.3,Win32,61.67129201,,,,,,,,,,,0.5404,1,,,,,,,,,,,,,,m,1,0.5404,,,,,,,,0.1305,-0.351,0,0,0,,0,20,20,42,1,CHAIN,C,old,m,./images/CHAIN.png,,,,,,,,,,,,,,,,,,,,,,,,,,,,,,,,,,,
,,,,,,,,,,,,,,,,,6112dd8e4f8c8dd1b427088e,27,2022-02-12_17h57.52.282,lexical_decision_task_DD_L4,2021.2.3,Win32,61.67129201,,,,,,,,,,,0.6691,1,,,,,,,,,,,,,,m,1,0.6691,,,,,,,,0.1305,-0.351,0,0,0,,0,21,21,22,1,CLOWN,HB,old,m,./images/CLOWNHB.png,,,,,,,,,,,,,,,,,,,,,,,,,,,,,,,,,,,
,,,,,,,,,,,,,,,,,6112dd8e4f8c8dd1b427088e,27,2022-02-12_17h57.52.282,lexical_decision_task_DD_L4,2021.2.3,Win32,61.67129201,,,,,,,,,,,0.6844,1,,,,,,,,,,,,,,z,1,0.6844,,,,,,,,0.1305,-0.351,0,0,0,,0,22,22,100,1,DRIBS,HB,old,z,./images/DRIBSHB.png,,,,,,,,,,,,,,,,,,,,,,,,,,,,,,,,,,,
,,,,,,,,,,,,,,,,,6112dd8e4f8c8dd1b427088e,27,2022-02-12_17h57.52.282,lexical_decision_task_DD_L4,2021.2.3,Win32,61.67129201,,,,,,,,,,,0.5516,1,,,,,,,,,,,,,,m,1,0.5516,,,,,,,,0.1305,-0.351,0,0,0,,0,23,23,77,1,WHEEL,LB,old,m,./images/WHEELLB.png,,,,,,,,,,,,,,,,,,,,,,,,,,,,,,,,,,,
,,,,,,,,,,,,,,,,,6112dd8e4f8c8dd1b427088e,27,2022-02-12_17h57.52.282,lexical_decision_task_DD_L4,2021.2.3,Win32,61.67129201,,,,,,,,,,,0.5718,1,,,,,,,,,,,,,,z,1,0.5718,,,,,,,,0.1305,-0.351,0,0,0,,0,24,24,143,1,MONGS,LB,old,z,./images/MONGSLB.png,,,,,,,,,,,,,,,,,,,,,,,,,,,,,,,,,,,
,,,,,,,,,,,,,,,,,6112dd8e4f8c8dd1b427088e,27,2022-02-12_17h57.52.282,lexical_decision_task_DD_L4,2021.2.3,Win32,61.67129201,,,,,,,,,,,0.6472,1,,,,,,,,,,,,,,z,1,0.6472,,,,,,,,0.1305,-0.351,0,0,0,,0,25,25,141,1,PLEET,C,old,z,./images/PLEET.png,,,,,,,,,,,,,,,,,,,,,,,,,,,,,,,,,,,
,,,,,,,,,,,,,,,,,6112dd8e4f8c8dd1b427088e,27,2022-02-12_17h57.52.282,lexical_decision_task_DD_L4,2021.2.3,Win32,61.67129201,,,,,,,,,,,0.734,1,,,,,,,,,,,,,,z,1,0.734,,,,,,,,0.1305,-0.351,0,0,0,,0,26,26,90,1,NEAST,C,old,z,./images/NEAST.png,,,,,,,,,,,,,,,,,,,,,,,,,,,,,,,,,,,
,,,,,,,,,,,,,,,,,6112dd8e4f8c8dd1b427088e,27,2022-02-12_17h57.52.282,lexical_decision_task_DD_L4,2021.2.3,Win32,61.67129201,,,,,,,,,,,0.8429,1,,,,,,,,,,,,,,z,1,0.8429,,,,,,,,0.1305,-0.351,0,0,0,,0,27,27,136,1,WERVE,HB,old,z,./images/WERVEHB.png,,,,,,,,,,,,,,,,,,,,,,,,,,,,,,,,,,,
,,,,,,,,,,,,,,,,,6112dd8e4f8c8dd1b427088e,27,2022-02-12_17h57.52.282,lexical_decision_task_DD_L4,2021.2.3,Win32,61.67129201,,,,,,,,,,,0.6889,1,,,,,,,,,,,,,,z,1,0.6889,,,,,,,,0.1305,-0.351,0,0,0,,0,28,28,152,1,FRAIN,LB,old,z,./images/FRAINLB.png,,,,,,,,,,,,,,,,,,,,,,,,,,,,,,,,,,,
,,,,,,,,,,,,,,,,,6112dd8e4f8c8dd1b427088e,27,2022-02-12_17h57.52.282,lexical_decision_task_DD_L4,2021.2.3,Win32,61.67129201,,,,,,,,,,,0.6217,1,,,,,,,,,,,,,,m,1,0.6217,,,,,,,,0.1305,-0.351,0,0,0,,0,29,29,14,1,FENCE,LB,old,m,./images/FENCELB.png,,,,,,,,,,,,,,,,,,,,,,,,,,,,,,,,,,,
,,,,,,,,,,,,,,,,,6112dd8e4f8c8dd1b427088e,27,2022-02-12_17h57.52.282,lexical_decision_task_DD_L4,2021.2.3,Win32,61.67129201,,,,,,,,,,,0.5484,1,,,,,,,,,,,,,,z,1,0.5484,,,,,,,,0.1305,-0.351,0,0,0,,0,30,30,108,1,GRUET,C,old,z,./images/GRUET.png,,,,,,,,,,,,,,,,,,,,,,,,,,,,,,,,,,,
,,,,,,,,,,,,,,,,,6112dd8e4f8c8dd1b427088e,27,2022-02-12_17h57.52.282,lexical_decision_task_DD_L4,2021.2.3,Win32,61.67129201,,,,,,,,,,,0.6595,1,,,,,,,,,,,,,,m,1,0.6595,,,,,,,,0.1305,-0.351,0,0,0,,0,31,31,10,1,GARDEN,HB,old,m,./images/GARDENHB.png,,,,,,,,,,,,,,,,,,,,,,,,,,,,,,,,,,,
,,,,,,,,,,,,,,,,,6112dd8e4f8c8dd1b427088e,27,2022-02-12_17h57.52.282,lexical_decision_task_DD_L4,2021.2.3,Win32,61.67129201,,,,,,,,,,,0.5529,1,,,,,,,,,,,,,,z,1,0.5529,,,,,,,,0.1305,-0.351,0,0,0,,0,32,32,113,1,LINEW,LB,old,z,./images/LINEWLB.png,,,,,,,,,,,,,,,,,,,,,,,,,,,,,,,,,,,
,,,,,,,,,,,,,,,,,6112dd8e4f8c8dd1b427088e,27,2022-02-12_17h57.52.282,lexical_decision_task_DD_L4,2021.2.3,Win32,61.67129201,,,,,,,,,,,0.6122,1,,,,,,,,,,,,,,z,1,0.6122,,,,,,,,0.1305,-0.351,0,0,0,,0,33,33,98,1,BAMPS,LB,old,z,./images/BAMPSLB.png,,,,,,,,,,,,,,,,,,,,,,,,,,,,,,,,,,,
,,,,,,,,,,,,,,,,,6112dd8e4f8c8dd1b427088e,27,2022-02-12_17h57.52.282,lexical_decision_task_DD_L4,2021.2.3,Win32,61.67129201,,,,,,,,,,,0.5701,1,,,,,,,,,,,,,,z,1,0.5701,,,,,,,,0.1305,-0.351,0,0,0,,0,34,34,153,1,CLUPS,C,old,z,./images/CLUPS.png,,,,,,,,,,,,,,,,,,,,,,,,,,,,,,,,,,,
,,,,,,,,,,,,,,,,,6112dd8e4f8c8dd1b427088e,27,2022-02-12_17h57.52.282,lexical_decision_task_DD_L4,2021.2.3,Win32,61.67129201,,,,,,,,,,,0.5284,1,,,,,,,,,,,,,,m,1,0.5284,,,,,,,,0.1305,-0.351,0,0,0,,0,35,35,71,1,BUBBLE,LB,old,m,./images/BUBBLELB.png,,,,,,,,,,,,,,,,,,,,,,,,,,,,,,,,,,,
,,,,,,,,,,,,,,,,,6112dd8e4f8c8dd1b427088e,27,2022-02-12_17h57.52.282,lexical_decision_task_DD_L4,2021.2.3,Win32,61.67129201,,,,,,,,,,,0.8138,1,,,,,,,,,,,,,,m,1,0.8138,,,,,,,,0.1305,-0.351,0,0,0,,0,36,36,3,1,CRATER,C,old,m,./images/CRATER.png,,,,,,,,,,,,,,,,,,,,,,,,,,,,,,,,,,,
,,,,,,,,,,,,,,,,,6112dd8e4f8c8dd1b427088e,27,2022-02-12_17h57.52.282,lexical_decision_task_DD_L4,2021.2.3,Win32,61.67129201,,,,,,,,,,,0.722,1,,,,,,,,,,,,,,z,1,0.722,,,,,,,,0.1305,-0.351,0,0,0,,0,37,37,103,1,FLORT,HB,old,z,./images/FLORTHB.png,,,,,,,,,,,,,,,,,,,,,,,,,,,,,,,,,,,
,,,,,,,,,,,,,,,,,6112dd8e4f8c8dd1b427088e,27,2022-02-12_17h57.52.282,lexical_decision_task_DD_L4,2021.2.3,Win32,61.67129201,,,,,,,,,,,0.8881,0,,,,,,,,,,,,,,m,0,0.8881,,,,,,,,0.1305,-0.351,0,0,0,,0,38,38,128,1,GRIFT,LB,old,z,./images/GRIFTLB.png,,,,,,,,,,,,,,,,,,,,,,,,,,,,,,,,,,,
,,,,,,,,,,,,,,,,,6112dd8e4f8c8dd1b427088e,27,2022-02-12_17h57.52.282,lexical_decision_task_DD_L4,2021.2.3,Win32,61.67129201,,,,,,,,,,,0.602,1,,,,,,,,,,,,,,m,1,0.602,,,,,,,,0.1305,-0.351,0,0,0,,0,39,39,12,1,BLOKE,C,old,m,./images/BLOKE.png,,,,,,,,,,,,,,,,,,,,,,,,,,,,,,,,,,,
,,,,,,,,,,,,,,,,,6112dd8e4f8c8dd1b427088e,27,2022-02-12_17h57.52.282,lexical_decision_task_DD_L4,2021.2.3,Win32,61.67129201,,,,,,,,,,,0.5334,1,,,,,,,,,,,,,,z,1,0.5334,,,,,,,,0.1305,-0.351,0,0,0,,0,40,40,132,1,SCIFF,C,old,z,./images/SCIFF.png,,,,,,,,,,,,,,,,,,,,,,,,,,,,,,,,,,,
,,,,,,,,,,,,,,,,,6112dd8e4f8c8dd1b427088e,27,2022-02-12_17h57.52.282,lexical_decision_task_DD_L4,2021.2.3,Win32,61.67129201,,,,,,,,,,,0.678,1,,,,,,,,,,,,,,m,1,0.678,,,,,,,,0.1305,-0.351,0,0,0,space,0,41,41,53,1,POSTER,LB,old,m,./images/POSTERLB.png,2.2669,,,,,,,,,,,,,,,,,,,,,,,,,,,,,,,,,,
,,,,,,,,,,,,,,,,,6112dd8e4f8c8dd1b427088e,27,2022-02-12_17h57.52.282,lexical_decision_task_DD_L4,2021.2.3,Win32,61.67129201,,,,,,,,,,,0.5482,1,,,,,,,,,,,,,,m,1,0.5482,,,,,,,,0.1305,-0.351,0,0,0,,0,42,42,38,1,ENGINE,LB,old,m,./images/ENGINELB.png,,,,,,,,,,,,,,,,,,,,,,,,,,,,,,,,,,,
,,,,,,,,,,,,,,,,,6112dd8e4f8c8dd1b427088e,27,2022-02-12_17h57.52.282,lexical_decision_task_DD_L4,2021.2.3,Win32,61.67129201,,,,,,,,,,,0.6429,1,,,,,,,,,,,,,,z,1,0.6429,,,,,,,,0.1305,-0.351,0,0,0,,0,43,43,125,1,MOOKY,LB,old,z,./images/MOOKYLB.png,,,,,,,,,,,,,,,,,,,,,,,,,,,,,,,,,,,
,,,,,,,,,,,,,,,,,6112dd8e4f8c8dd1b427088e,27,2022-02-12_17h57.52.282,lexical_decision_task_DD_L4,2021.2.3,Win32,61.67129201,,,,,,,,,,,0.6566,1,,,,,,,,,,,,,,m,1,0.6566,,,,,,,,0.1305,-0.351,0,0,0,,0,44,44,62,1,MAMMAL,LB,old,m,./images/MAMMALLB.png,,,,,,,,,,,,,,,,,,,,,,,,,,,,,,,,,,,
,,,,,,,,,,,,,,,,,6112dd8e4f8c8dd1b427088e,27,2022-02-12_17h57.52.282,lexical_decision_task_DD_L4,2021.2.3,Win32,61.67129201,,,,,,,,,,,0.6151,1,,,,,,,,,,,,,,m,1,0.6151,,,,,,,,0.1305,-0.351,0,0,0,,0,45,45,8,1,CLIFF,LB,old,m,./images/CLIFFLB.png,,,,,,,,,,,,,,,,,,,,,,,,,,,,,,,,,,,
,,,,,,,,,,,,,,,,,6112dd8e4f8c8dd1b427088e,27,2022-02-12_17h57.52.282,lexical_decision_task_DD_L4,2021.2.3,Win32,61.67129201,,,,,,,,,,,0.5178,1,,,,,,,,,,,,,,m,1,0.5178,,,,,,,,0.1305,-0.351,0,0,0,,0,46,46,33,1,SAUNA,C,old,m,./images/SAUNA.png,,,,,,,,,,,,,,,,,,,,,,,,,,,,,,,,,,,
,,,,,,,,,,,,,,,,,6112dd8e4f8c8dd1b427088e,27,2022-02-12_17h57.52.282,lexical_decision_task_DD_L4,2021.2.3,Win32,61.67129201,,,,,,,,,,,0.4993,1,,,,,,,,,,,,,,m,1,0.4993,,,,,,,,0.1305,-0.351,0,0,0,,0,47,47,18,1,PARCEL,C,old,m,./images/PARCEL.png,,,,,,,,,,,,,,,,,,,,,,,,,,,,,,,,,,,
,,,,,,,,,,,,,,,,,6112dd8e4f8c8dd1b427088e,27,2022-02-12_17h57.52.282,lexical_decision_task_DD_L4,2021.2.3,Win32,61.67129201,,,,,,,,,,,0.4927,1,,,,,,,,,,,,,,m,1,0.4927,,,,,,,,0.1305,-0.351,0,0,0,,0,48,48,54,1,CHERRY,C,old,m,./images/CHERRY.png,,,,,,,,,,,,,,,,,,,,,,,,,,,,,,,,,,,
,,,,,,,,,,,,,,,,,6112dd8e4f8c8dd1b427088e,27,2022-02-12_17h57.52.282,lexical_decision_task_DD_L4,2021.2.3,Win32,61.67129201,,,,,,,,,,,0.8657,1,,,,,,,,,,,,,,z,1,0.8657,,,,,,,,0.1305,-0.351,0,0,0,,0,49,49,133,1,POWDY,HB,old,z,./images/POWDYHB.png,,,,,,,,,,,,,,,,,,,,,,,,,,,,,,,,,,,
,,,,,,,,,,,,,,,,,6112dd8e4f8c8dd1b427088e,27,2022-02-12_17h57.52.282,lexical_decision_task_DD_L4,2021.2.3,Win32,61.67129201,,,,,,,,,,,0.9476,1,,,,,,,,,,,,,,z,1,0.9476,,,,,,,,0.1305,-0.351,0,0,0,,0,50,50,163,1,GAMBA,HB,old,z,./images/GAMBAHB.png,,,,,,,,,,,,,,,,,,,,,,,,,,,,,,,,,,,
,,,,,,,,,,,,,,,,,6112dd8e4f8c8dd1b427088e,27,2022-02-12_17h57.52.282,lexical_decision_task_DD_L4,2021.2.3,Win32,61.67129201,,,,,,,,,,,0.4471,1,,,,,,,,,,,,,,m,1,0.4471,,,,,,,,0.1305,-0.351,0,0,0,,0,51,51,48,1,SHIELD,C,old,m,./images/SHIELD.png,,,,,,,,,,,,,,,,,,,,,,,,,,,,,,,,,,,
,,,,,,,,,,,,,,,,,6112dd8e4f8c8dd1b427088e,27,2022-02-12_17h57.52.282,lexical_decision_task_DD_L4,2021.2.3,Win32,61.67129201,,,,,,,,,,,0.6172,1,,,,,,,,,,,,,,z,1,0.6172,,,,,,,,0.1305,-0.351,0,0,0,,0,52,52,116,1,BALGY,LB,old,z,./images/BALGYLB.png,,,,,,,,,,,,,,,,,,,,,,,,,,,,,,,,,,,
,,,,,,,,,,,,,,,,,6112dd8e4f8c8dd1b427088e,27,2022-02-12_17h57.52.282,lexical_decision_task_DD_L4,2021.2.3,Win32,61.67129201,,,,,,,,,,,0.5888,1,,,,,,,,,,,,,,z,1,0.5888,,,,,,,,0.1305,-0.351,0,0,0,,0,53,53,155,1,CANGY,LB,old,z,./images/CANGYLB.png,,,,,,,,,,,,,,,,,,,,,,,,,,,,,,,,,,,
,,,,,,,,,,,,,,,,,6112dd8e4f8c8dd1b427088e,27,2022-02-12_17h57.52.282,lexical_decision_task_DD_L4,2021.2.3,Win32,61.67129201,,,,,,,,,,,0.7422,1,,,,,,,,,,,,,,z,1,0.7422,,,,,,,,0.1305,-0.351,0,0,0,,0,54,54,107,1,FASKS,LB,old,z,./images/FASKSLB.png,,,,,,,,,,,,,,,,,,,,,,,,,,,,,,,,,,,
,,,,,,,,,,,,,,,,,6112dd8e4f8c8dd1b427088e,27,2022-02-12_17h57.52.282,lexical_decision_task_DD_L4,2021.2.3,Win32,61.67129201,,,,,,,,,,,0.5735,1,,,,,,,,,,,,,,m,1,0.5735,,,,,,,,0.1305,-0.351,0,0,0,,0,55,55,47,1,LAGOON,LB,old,m,./images/LAGOONLB.png,,,,,,,,,,,,,,,,,,,,,,,,,,,,,,,,,,,
,,,,,,,,,,,,,,,,,6112dd8e4f8c8dd1b427088e,27,2022-02-12_17h57.52.282,lexical_decision_task_DD_L4,2021.2.3,Win32,61.67129201,,,,,,,,,,,0.4884,1,,,,,,,,,,,,,,m,1,0.4884,,,,,,,,0.1305,-0.351,0,0,0,,0,56,56,78,1,BROOM,C,old,m,./images/BROOM.png,,,,,,,,,,,,,,,,,,,,,,,,,,,,,,,,,,,
,,,,,,,,,,,,,,,,,6112dd8e4f8c8dd1b427088e,27,2022-02-12_17h57.52.282,lexical_decision_task_DD_L4,2021.2.3,Win32,61.67129201,,,,,,,,,,,0.5777,1,,,,,,,,,,,,,,z,1,0.5777,,,,,,,,0.1305,-0.351,0,0,0,,0,57,57,102,1,DULLE,C,old,z,./images/DULLE.png,,,,,,,,,,,,,,,,,,,,,,,,,,,,,,,,,,,
,,,,,,,,,,,,,,,,,6112dd8e4f8c8dd1b427088e,27,2022-02-12_17h57.52.282,lexical_decision_task_DD_L4,2021.2.3,Win32,61.67129201,,,,,,,,,,,0.6056,1,,,,,,,,,,,,,,m,1,0.6056,,,,,,,,0.1305,-0.351,0,0,0,,0,58,58,72,1,FLASK,C,old,m,./images/FLASK.png,,,,,,,,,,,,,,,,,,,,,,,,,,,,,,,,,,,
,,,,,,,,,,,,,,,,,6112dd8e4f8c8dd1b427088e,27,2022-02-12_17h57.52.282,lexical_decision_task_DD_L4,2021.2.3,Win32,61.67129201,,,,,,,,,,,0.6447,0,,,,,,,,,,,,,,z,0,0.6447,,,,,,,,0.1305,-0.351,0,0,0,,0,59,59,64,1,BRIDE,HB,old,m,./images/BRIDEHB.png,,,,,,,,,,,,,,,,,,,,,,,,,,,,,,,,,,,
,,,,,,,,,,,,,,,,,6112dd8e4f8c8dd1b427088e,27,2022-02-12_17h57.52.282,lexical_decision_task_DD_L4,2021.2.3,Win32,61.67129201,,,,,,,,,,,0.6136,1,,,,,,,,,,,,,,z,1,0.6136,,,,,,,,0.1305,-0.351,0,0,0,,0,60,60,87,1,TRING,C,old,z,./images/TRING.png,,,,,,,,,,,,,,,,,,,,,,,,,,,,,,,,,,,
,,,,,,,,,,,,,,,,,6112dd8e4f8c8dd1b427088e,27,2022-02-12_17h57.52.282,lexical_decision_task_DD_L4,2021.2.3,Win32,61.67129201,,,,,,,,,,,0.8056,1,,,,,,,,,,,,,,m,1,0.8056,,,,,,,,0.1305,-0.351,0,0,0,,0,61,61,1,1,TOWEL,HB,old,m,./images/TOWELHB.png,,,,,,,,,,,,,,,,,,,,,,,,,,,,,,,,,,,
,,,,,,,,,,,,,,,,,6112dd8e4f8c8dd1b427088e,27,2022-02-12_17h57.52.282,lexical_decision_task_DD_L4,2021.2.3,Win32,61.67129201,,,,,,,,,,,0.6304,1,,,,,,,,,,,,,,m,1,0.6304,,,,,,,,0.1305,-0.351,0,0,0,,0,62,62,73,1,GLOVE,HB,old,m,./images/GLOVEHB.png,,,,,,,,,,,,,,,,,,,,,,,,,,,,,,,,,,,
,,,,,,,,,,,,,,,,,6112dd8e4f8c8dd1b427088e,27,2022-02-12_17h57.52.282,lexical_decision_task_DD_L4,2021.2.3,Win32,61.67129201,,,,,,,,,,,0.5709,1,,,,,,,,,,,,,,z,1,0.5709,,,,,,,,0.1305,-0.351,0,0,0,,0,63,63,167,1,ZONET,LB,old,z,./images/ZONETLB.png,,,,,,,,,,,,,,,,,,,,,,,,,,,,,,,,,,,
,,,,,,,,,,,,,,,,,6112dd8e4f8c8dd1b427088e,27,2022-02-12_17h57.52.282,lexical_decision_task_DD_L4,2021.2.3,Win32,61.67129201,,,,,,,,,,,0.6822,0,,,,,,,,,,,,,,z,0,0.6822,,,,,,,,0.1305,-0.351,0,0,0,,0,64,64,58,1,CANOE,HB,old,m,./images/CANOEHB.png,,,,,,,,,,,,,,,,,,,,,,,,,,,,,,,,,,,
,,,,,,,,,,,,,,,,,6112dd8e4f8c8dd1b427088e,27,2022-02-12_17h57.52.282,lexical_decision_task_DD_L4,2021.2.3,Win32,61.67129201,,,,,,,,,,,0.4891,1,,,,,,,,,,,,,,m,1,0.4891,,,,,,,,0.1305,-0.351,0,0,0,,0,65,65,63,1,BAKER,C,old,m,./images/BAKER.png,,,,,,,,,,,,,,,,,,,,,,,,,,,,,,,,,,,
,,,,,,,,,,,,,,,,,6112dd8e4f8c8dd1b427088e,27,2022-02-12_17h57.52.282,lexical_decision_task_DD_L4,2021.2.3,Win32,61.67129201,,,,,,,,,,,0.5325,1,,,,,,,,,,,,,,z,1,0.5325,,,,,,,,0.1305,-0.351,0,0,0,,0,66,66,150,1,NOOLS,C,old,z,./images/NOOLS.png,,,,,,,,,,,,,,,,,,,,,,,,,,,,,,,,,,,
,,,,,,,,,,,,,,,,,6112dd8e4f8c8dd1b427088e,27,2022-02-12_17h57.52.282,lexical_decision_task_DD_L4,2021.2.3,Win32,61.67129201,,,,,,,,,,,0.6211,1,,,,,,,,,,,,,,m,1,0.6211,,,,,,,,0.1305,-0.351,0,0,0,,0,67,67,31,1,STEAK,HB,old,m,./images/STEAKHB.png,,,,,,,,,,,,,,,,,,,,,,,,,,,,,,,,,,,
,,,,,,,,,,,,,,,,,6112dd8e4f8c8dd1b427088e,27,2022-02-12_17h57.52.282,lexical_decision_task_DD_L4,2021.2.3,Win32,61.67129201,,,,,,,,,,,0.5325,1,,,,,,,,,,,,,,m,1,0.5325,,,,,,,,0.1305,-0.351,0,0,0,,0,68,68,29,1,PISTOL,LB,old,m,./images/PISTOLLB.png,,,,,,,,,,,,,,,,,,,,,,,,,,,,,,,,,,,
,,,,,,,,,,,,,,,,,6112dd8e4f8c8dd1b427088e,27,2022-02-12_17h57.52.282,lexical_decision_task_DD_L4,2021.2.3,Win32,61.67129201,,,,,,,,,,,0.6753,1,,,,,,,,,,,,,,z,1,0.6753,,,,,,,,0.1305,-0.351,0,0,0,,0,69,69,115,1,MAWNS,HB,old,z,./images/MAWNSHB.png,,,,,,,,,,,,,,,,,,,,,,,,,,,,,,,,,,,
,,,,,,,,,,,,,,,,,6112dd8e4f8c8dd1b427088e,27,2022-02-12_17h57.52.282,lexical_decision_task_DD_L4,2021.2.3,Win32,61.67129201,,,,,,,,,,,0.6336,1,,,,,,,,,,,,,,z,1,0.6336,,,,,,,,0.1305,-0.351,0,0,0,,0,70,70,105,1,MOKER,C,old,z,./images/MOKER.png,,,,,,,,,,,,,,,,,,,,,,,,,,,,,,,,,,,
,,,,,,,,,,,,,,,,,6112dd8e4f8c8dd1b427088e,27,2022-02-12_17h57.52.282,lexical_decision_task_DD_L4,2021.2.3,Win32,61.67129201,,,,,,,,,,,0.6802,1,,,,,,,,,,,,,,z,1,0.6802,,,,,,,,0.1305,-0.351,0,0,0,,0,71,71,164,1,SGREW,LB,old,z,./images/SGREWLB.png,,,,,,,,,,,,,,,,,,,,,,,,,,,,,,,,,,,
,,,,,,,,,,,,,,,,,6112dd8e4f8c8dd1b427088e,27,2022-02-12_17h57.52.282,lexical_decision_task_DD_L4,2021.2.3,Win32,61.67129201,,,,,,,,,,,0.4954,1,,,,,,,,,,,,,,m,1,0.4954,,,,,,,,0.1305,-0.351,0,0,0,,0,72,72,23,1,CLOTH,LB,old,m,./images/CLOTHLB.png,,,,,,,,,,,,,,,,,,,,,,,,,,,,,,,,,,,
,,,,,,,,,,,,,,,,,6112dd8e4f8c8dd1b427088e,27,2022-02-12_17h57.52.282,lexical_decision_task_DD_L4,2021.2.3,Win32,61.67129201,,,,,,,,,,,0.7454,1,,,,,,,,,,,,,,m,1,0.7454,,,,,,,,0.1305,-0.351,0,0,0,,0,73,73,57,1,FERRY,C,old,m,./images/FERRY.png,,,,,,,,,,,,,,,,,,,,,,,,,,,,,,,,,,,
,,,,,,,,,,,,,,,,,6112dd8e4f8c8dd1b427088e,27,2022-02-12_17h57.52.282,lexical_decision_task_DD_L4,2021.2.3,Win32,61.67129201,,,,,,,,,,,0.6305,0,,,,,,,,,,,,,,z,0,0.6305,,,,,,,,0.1305,-0.351,0,0,0,,0,74,74,28,1,CASINO,HB,old,m,./images/CASINOHB.png,,,,,,,,,,,,,,,,,,,,,,,,,,,,,,,,,,,
,,,,,,,,,,,,,,,,,6112dd8e4f8c8dd1b427088e,27,2022-02-12_17h57.52.282,lexical_decision_task_DD_L4,2021.2.3,Win32,61.67129201,,,,,,,,,,,0.5061,1,,,,,,,,,,,,,,m,1,0.5061,,,,,,,,0.1305,-0.351,0,0,0,,0,75,75,50,1,PILOT,LB,old,m,./images/PILOTLB.png,,,,,,,,,,,,,,,,,,,,,,,,,,,,,,,,,,,
,,,,,,,,,,,,,,,,,6112dd8e4f8c8dd1b427088e,27,2022-02-12_17h57.52.282,lexical_decision_task_DD_L4,2021.2.3,Win32,61.67129201,,,,,,,,,,,0.4664,1,,,,,,,,,,,,,,m,1,0.4664,,,,,,,,0.1305,-0.351,0,0,0,,0,76,76,80,1,PLANET,LB,old,m,./images/PLANETLB.png,,,,,,,,,,,,,,,,,,,,,,,,,,,,,,,,,,,
,,,,,,,,,,,,,,,,,6112dd8e4f8c8dd1b427088e,27,2022-02-12_17h57.52.282,lexical_decision_task_DD_L4,2021.2.3,Win32,61.67129201,,,,,,,,,,,0.4855,1,,,,,,,,,,,,,,z,1,0.4855,,,,,,,,0.1305,-0.351,0,0,0,,0,77,77,162,1,LEICH,C,old,z,./images/LEICH.png,,,,,,,,,,,,,,,,,,,,,,,,,,,,,,,,,,,
,,,,,,,,,,,,,,,,,6112dd8e4f8c8dd1b427088e,27,2022-02-12_17h57.52.282,lexical_decision_task_DD_L4,2021.2.3,Win32,61.67129201,,,,,,,,,,,0.68,1,,,,,,,,,,,,,,z,1,0.68,,,,,,,,0.1305,-0.351,0,0,0,,0,78,78,126,1,GUELS,C,old,z,./images/GUELS.png,,,,,,,,,,,,,,,,,,,,,,,,,,,,,,,,,,,
,,,,,,,,,,,,,,,,,6112dd8e4f8c8dd1b427088e,27,2022-02-12_17h57.52.282,lexical_decision_task_DD_L4,2021.2.3,Win32,61.67129201,,,,,,,,,,,0.5841,1,,,,,,,,,,,,,,m,1,0.5841,,,,,,,,0.1305,-0.351,0,0,0,,0,79,79,66,1,STATUE,C,old,m,./images/STATUE.png,,,,,,,,,,,,,,,,,,,,,,,,,,,,,,,,,,,
,,,,,,,,,,,,,,,,,6112dd8e4f8c8dd1b427088e,27,2022-02-12_17h57.52.282,lexical_decision_task_DD_L4,2021.2.3,Win32,61.67129201,,,,,,,,,,,0.6705,1,,,,,,,,,,,,,,z,1,0.6705,,,,,,,,0.1305,-0.351,0,0,0,,0,80,80,158,1,EGECT,LB,old,z,./images/EGECTLB.png,,,,,,,,,,,,,,,,,,,,,,,,,,,,,,,,,,,
,,,,,,,,,,,,,,,,,6112dd8e4f8c8dd1b427088e,27,2022-02-12_17h57.52.282,lexical_decision_task_DD_L4,2021.2.3,Win32,61.67129201,,,,,,,,,,,0.5434,1,,,,,,,,,,,,,,z,1,0.5434,,,,,,,,0.1305,-0.351,0,0,0,,0,81,81,123,1,SEDGE,C,old,z,./images/SEDGE.png,,,,,,,,,,,,,,,,,,,,,,,,,,,,,,,,,,,
,,,,,,,,,,,,,,,,,6112dd8e4f8c8dd1b427088e,27,2022-02-12_17h57.52.282,lexical_decision_task_DD_L4,2021.2.3,Win32,61.67129201,,,,,,,,,,,0.5687,1,,,,,,,,,,,,,,z,1,0.5687,,,,,,,,0.1305,-0.351,0,0,0,,0,82,82,89,1,DRIEK,LB,old,z,./images/DRIEKLB.png,,,,,,,,,,,,,,,,,,,,,,,,,,,,,,,,,,,
,,,,,,,,,,,,,,,,,6112dd8e4f8c8dd1b427088e,27,2022-02-12_17h57.52.282,lexical_decision_task_DD_L4,2021.2.3,Win32,61.67129201,,,,,,,,,,,0.4658,1,,,,,,,,,,,,,,m,1,0.4658,,,,,,,,0.1305,-0.351,0,0,0,space,0,83,83,41,1,STREAM,LB,old,m,./images/STREAMLB.png,2.0644,,,,,,,,,,,,,,,,,,,,,,,,,,,,,,,,,,
,,,,,,,,,,,,,,,,,6112dd8e4f8c8dd1b427088e,27,2022-02-12_17h57.52.282,lexical_decision_task_DD_L4,2021.2.3,Win32,61.67129201,,,,,,,,,,,0.5295,1,,,,,,,,,,,,,,m,1,0.5295,,,,,,,,0.1305,-0.351,0,0,0,,0,84,84,24,1,FLESH,C,old,m,./images/FLESH.png,,,,,,,,,,,,,,,,,,,,,,,,,,,,,,,,,,,
,,,,,,,,,,,,,,,,,6112dd8e4f8c8dd1b427088e,27,2022-02-12_17h57.52.282,lexical_decision_task_DD_L4,2021.2.3,Win32,61.67129201,,,,,,,,,,,0.6551,1,,,,,,,,,,,,,,z,1,0.6551,,,,,,,,0.1305,-0.351,0,0,0,,0,85,85,122,1,BLOOT,LB,old,z,./images/BLOOTLB.png,,,,,,,,,,,,,,,,,,,,,,,,,,,,,,,,,,,
,,,,,,,,,,,,,,,,,6112dd8e4f8c8dd1b427088e,27,2022-02-12_17h57.52.282,lexical_decision_task_DD_L4,2021.2.3,Win32,61.67129201,,,,,,,,,,,0.5888,0,,,,,,,,,,,,,,z,0,0.5888,,,,,,,,0.1305,-0.351,0,0,0,,0,86,86,7,1,WAGON,HB,old,m,./images/WAGONHB.png,,,,,,,,,,,,,,,,,,,,,,,,,,,,,,,,,,,
,,,,,,,,,,,,,,,,,6112dd8e4f8c8dd1b427088e,27,2022-02-12_17h57.52.282,lexical_decision_task_DD_L4,2021.2.3,Win32,61.67129201,,,,,,,,,,,0.4931,1,,,,,,,,,,,,,,m,1,0.4931,,,,,,,,0.1305,-0.351,0,0,0,,0,87,87,65,1,SPINE,LB,old,m,./images/SPINELB.png,,,,,,,,,,,,,,,,,,,,,,,,,,,,,,,,,,,
,,,,,,,,,,,,,,,,,6112dd8e4f8c8dd1b427088e,27,2022-02-12_17h57.52.282,lexical_decision_task_DD_L4,2021.2.3,Win32,61.67129201,,,,,,,,,,,0.4728,1,,,,,,,,,,,,,,m,1,0.4728,,,,,,,,0.1305,-0.351,0,0,0,,0,88,88,51,1,SAUCE,C,old,m,./images/SAUCE.png,,,,,,,,,,,,,,,,,,,,,,,,,,,,,,,,,,,
,,,,,,,,,,,,,,,,,6112dd8e4f8c8dd1b427088e,27,2022-02-12_17h57.52.282,lexical_decision_task_DD_L4,2021.2.3,Win32,61.67129201,,,,,,,,,,,0.5007,1,,,,,,,,,,,,,,m,1,0.5007,,,,,,,,0.1305,-0.351,0,0,0,,0,89,89,36,1,BOILER,C,old,m,./images/BOILER.png,,,,,,,,,,,,,,,,,,,,,,,,,,,,,,,,,,,
,,,,,,,,,,,,,,,,,6112dd8e4f8c8dd1b427088e,27,2022-02-12_17h57.52.282,lexical_decision_task_DD_L4,2021.2.3,Win32,61.67129201,,,,,,,,,,,0.8565,1,,,,,,,,,,,,,,z,1,0.8565,,,,,,,,0.1305,-0.351,0,0,0,,0,90,90,118,1,BAVEL,HB,old,z,./images/BAVELHB.png,,,,,,,,,,,,,,,,,,,,,,,,,,,,,,,,,,,
,,,,,,,,,,,,,,,,,6112dd8e4f8c8dd1b427088e,27,2022-02-12_17h57.52.282,lexical_decision_task_DD_L4,2021.2.3,Win32,61.67129201,,,,,,,,,,,0.4592,1,,,,,,,,,,,,,,m,1,0.4592,,,,,,,,0.1305,-0.351,0,0,0,,0,91,91,60,1,CURRY,C,old,m,./images/CURRY.png,,,,,,,,,,,,,,,,,,,,,,,,,,,,,,,,,,,
,,,,,,,,,,,,,,,,,6112dd8e4f8c8dd1b427088e,27,2022-02-12_17h57.52.282,lexical_decision_task_DD_L4,2021.2.3,Win32,61.67129201,,,,,,,,,,,0.9971,1,,,,,,,,,,,,,,z,1,0.9971,,,,,,,,0.1305,-0.351,0,0,0,,0,92,92,151,1,TINKY,HB,old,z,./images/TINKYHB.png,,,,,,,,,,,,,,,,,,,,,,,,,,,,,,,,,,,
,,,,,,,,,,,,,,,,,6112dd8e4f8c8dd1b427088e,27,2022-02-12_17h57.52.282,lexical_decision_task_DD_L4,2021.2.3,Win32,61.67129201,,,,,,,,,,,0.6362,1,,,,,,,,,,,,,,m,1,0.6362,,,,,,,,0.1305,-0.351,0,0,0,,0,93,93,32,1,HOCKEY,LB,old,m,./images/HOCKEYLB.png,,,,,,,,,,,,,,,,,,,,,,,,,,,,,,,,,,,
,,,,,,,,,,,,,,,,,6112dd8e4f8c8dd1b427088e,27,2022-02-12_17h57.52.282,lexical_decision_task_DD_L4,2021.2.3,Win32,61.67129201,,,,,,,,,,,0.5112,1,,,,,,,,,,,,,,m,1,0.5112,,,,,,,,0.1305,-0.351,0,0,0,,0,94,94,81,1,DRILL,C,old,m,./images/DRILL.png,,,,,,,,,,,,,,,,,,,,,,,,,,,,,,,,,,,
,,,,,,,,,,,,,,,,,6112dd8e4f8c8dd1b427088e,27,2022-02-12_17h57.52.282,lexical_decision_task_DD_L4,2021.2.3,Win32,61.67129201,,,,,,,,,,,0.5105,1,,,,,,,,,,,,,,m,1,0.5105,,,,,,,,0.1305,-0.351,0,0,0,,0,95,95,0,1,WALNUT,C,old,m,./images/WALNUT.png,,,,,,,,,,,,,,,,,,,,,,,,,,,,,,,,,,,
,,,,,,,,,,,,,,,,,6112dd8e4f8c8dd1b427088e,27,2022-02-12_17h57.52.282,lexical_decision_task_DD_L4,2021.2.3,Win32,61.67129201,,,,,,,,,,,0.4608,1,,,,,,,,,,,,,,m,1,0.4608,,,,,,,,0.1305,-0.351,0,0,0,,0,96,96,30,1,SLOPE,C,old,m,./images/SLOPE.png,,,,,,,,,,,,,,,,,,,,,,,,,,,,,,,,,,,
,,,,,,,,,,,,,,,,,6112dd8e4f8c8dd1b427088e,27,2022-02-12_17h57.52.282,lexical_decision_task_DD_L4,2021.2.3,Win32,61.67129201,,,,,,,,,,,0.4552,1,,,,,,,,,,,,,,m,1,0.4552,,,,,,,,0.1305,-0.351,0,0,0,,0,97,97,26,1,CLOUD,LB,old,m,./images/CLOUDLB.png,,,,,,,,,,,,,,,,,,,,,,,,,,,,,,,,,,,
,,,,,,,,,,,,,,,,,6112dd8e4f8c8dd1b427088e,27,2022-02-12_17h57.52.282,lexical_decision_task_DD_L4,2021.2.3,Win32,61.67129201,,,,,,,,,,,0.5115,1,,,,,,,,,,,,,,m,1,0.5115,,,,,,,,0.1305,-0.351,0,0,0,,0,98,98,44,1,BASKET,LB,old,m,./images/BASKETLB.png,,,,,,,,,,,,,,,,,,,,,,,,,,,,,,,,,,,
,,,,,,,,,,,,,,,,,6112dd8e4f8c8dd1b427088e,27,2022-02-12_17h57.52.282,lexical_decision_task_DD_L4,2021.2.3,Win32,61.67129201,,,,,,,,,,,0.5153,1,,,,,,,,,,,,,,m,1,0.5153,,,,,,,,0.1305,-0.351,0,0,0,,0,99,99,2,1,STOVE,LB,old,m,./images/STOVELB.png,,,,,,,,,,,,,,,,,,,,,,,,,,,,,,,,,,,
,,,,,,,,,,,,,,,,,6112dd8e4f8c8dd1b427088e,27,2022-02-12_17h57.52.282,lexical_decision_task_DD_L4,2021.2.3,Win32,61.67129201,,,,,,,,,,,0.8158,0,,,,,,,,,,,,,,z,0,0.8158,,,,,,,,0.1305,-0.351,0,0,0,,0,100,100,49,1,BISHOP,HB,old,m,./images/BISHOPHB.png,,,,,,,,,,,,,,,,,,,,,,,,,,,,,,,,,,,
,,,,,,,,,,,,,,,,,6112dd8e4f8c8dd1b427088e,27,2022-02-12_17h57.52.282,lexical_decision_task_DD_L4,2021.2.3,Win32,61.67129201,,,,,,,,,,,0.7224,1,,,,,,,,,,,,,,z,1,0.7224,,,,,,,,0.1305,-0.351,0,0,0,,0,101,101,127,1,NINDY,HB,old,z,./images/NINDYHB.png,,,,,,,,,,,,,,,,,,,,,,,,,,,,,,,,,,,
,,,,,,,,,,,,,,,,,6112dd8e4f8c8dd1b427088e,27,2022-02-12_17h57.52.282,lexical_decision_task_DD_L4,2021.2.3,Win32,61.67129201,,,,,,,,,,,0.6479,1,,,,,,,,,,,,,,m,1,0.6479,,,,,,,,0.1305,-0.351,0,0,0,,0,102,102,67,1,POKER,HB,old,m,./images/POKERHB.png,,,,,,,,,,,,,,,,,,,,,,,,,,,,,,,,,,,
,,,,,,,,,,,,,,,,,6112dd8e4f8c8dd1b427088e,27,2022-02-12_17h57.52.282,lexical_decision_task_DD_L4,2021.2.3,Win32,61.67129201,,,,,,,,,,,0.6538,1,,,,,,,,,,,,,,m,1,0.6538,,,,,,,,0.1305,-0.351,0,0,0,,0,103,103,37,1,TIGER,HB,old,m,./images/TIGERHB.png,,,,,,,,,,,,,,,,,,,,,,,,,,,,,,,,,,,
,,,,,,,,,,,,,,,,,6112dd8e4f8c8dd1b427088e,27,2022-02-12_17h57.52.282,lexical_decision_task_DD_L4,2021.2.3,Win32,61.67129201,,,,,,,,,,,0.641,1,,,,,,,,,,,,,,z,1,0.641,,,,,,,,0.1305,-0.351,0,0,0,,0,104,104,165,1,TROWN,C,old,z,./images/TROWN.png,,,,,,,,,,,,,,,,,,,,,,,,,,,,,,,,,,,
,,,,,,,,,,,,,,,,,6112dd8e4f8c8dd1b427088e,27,2022-02-12_17h57.52.282,lexical_decision_task_DD_L4,2021.2.3,Win32,61.67129201,,,,,,,,,,,0.6359,1,,,,,,,,,,,,,,m,1,0.6359,,,,,,,,0.1305,-0.351,0,0,0,,0,105,105,11,1,MEDAL,LB,old,m,./images/MEDALLB.png,,,,,,,,,,,,,,,,,,,,,,,,,,,,,,,,,,,
,,,,,,,,,,,,,,,,,6112dd8e4f8c8dd1b427088e,27,2022-02-12_17h57.52.282,lexical_decision_task_DD_L4,2021.2.3,Win32,61.67129201,,,,,,,,,,,0.4953,1,,,,,,,,,,,,,,m,1,0.4953,,,,,,,,0.1305,-0.351,0,0,0,,0,106,106,83,1,WHISKY,LB,old,m,./images/WHISKYLB.png,,,,,,,,,,,,,,,,,,,,,,,,,,,,,,,,,,,
,,,,,,,,,,,,,,,,,6112dd8e4f8c8dd1b427088e,27,2022-02-12_17h57.52.282,lexical_decision_task_DD_L4,2021.2.3,Win32,61.67129201,,,,,,,,,,,0.6599,1,,,,,,,,,,,,,,z,1,0.6599,,,,,,,,0.1305,-0.351,0,0,0,,0,107,107,92,1,PAIMS,LB,old,z,./images/PAIMSLB.png,,,,,,,,,,,,,,,,,,,,,,,,,,,,,,,,,,,
,,,,,,,,,,,,,,,,,6112dd8e4f8c8dd1b427088e,27,2022-02-12_17h57.52.282,lexical_decision_task_DD_L4,2021.2.3,Win32,61.67129201,,,,,,,,,,,0.8909,1,,,,,,,,,,,,,,z,1,0.8909,,,,,,,,0.1305,-0.351,0,0,0,,0,108,108,104,1,GITTY,LB,old,z,./images/GITTYLB.png,,,,,,,,,,,,,,,,,,,,,,,,,,,,,,,,,,,
,,,,,,,,,,,,,,,,,6112dd8e4f8c8dd1b427088e,27,2022-02-12_17h57.52.282,lexical_decision_task_DD_L4,2021.2.3,Win32,61.67129201,,,,,,,,,,,1.2233,1,,,,,,,,,,,,,,z,1,1.2233,,,,,,,,0.1305,-0.351,0,0,0,,0,109,109,154,1,THINT,HB,old,z,./images/THINTHB.png,,,,,,,,,,,,,,,,,,,,,,,,,,,,,,,,,,,
,,,,,,,,,,,,,,,,,6112dd8e4f8c8dd1b427088e,27,2022-02-12_17h57.52.282,lexical_decision_task_DD_L4,2021.2.3,Win32,61.67129201,,,,,,,,,,,0.5838,1,,,,,,,,,,,,,,z,1,0.5838,,,,,,,,0.1305,-0.351,0,0,0,,0,110,110,135,1,JOODY,C,old,z,./images/JOODY.png,,,,,,,,,,,,,,,,,,,,,,,,,,,,,,,,,,,
,,,,,,,,,,,,,,,,,6112dd8e4f8c8dd1b427088e,27,2022-02-12_17h57.52.282,lexical_decision_task_DD_L4,2021.2.3,Win32,61.67129201,,,,,,,,,,,0.7289,1,,,,,,,,,,,,,,m,1,0.7289,,,,,,,,0.1305,-0.351,0,0,0,,0,111,111,35,1,LLAMA,LB,old,m,./images/LLAMALB.png,,,,,,,,,,,,,,,,,,,,,,,,,,,,,,,,,,,
,,,,,,,,,,,,,,,,,6112dd8e4f8c8dd1b427088e,27,2022-02-12_17h57.52.282,lexical_decision_task_DD_L4,2021.2.3,Win32,61.67129201,,,,,,,,,,,0.4533,1,,,,,,,,,,,,,,m,1,0.4533,,,,,,,,0.1305,-0.351,0,0,0,,0,112,112,27,1,BUTTER,C,old,m,./images/BUTTER.png,,,,,,,,,,,,,,,,,,,,,,,,,,,,,,,,,,,
,,,,,,,,,,,,,,,,,6112dd8e4f8c8dd1b427088e,27,2022-02-12_17h57.52.282,lexical_decision_task_DD_L4,2021.2.3,Win32,61.67129201,,,,,,,,,,,0.4144,1,,,,,,,,,,,,,,m,1,0.4144,,,,,,,,0.1305,-0.351,0,0,0,,0,113,113,39,1,CANDY,C,old,m,./images/CANDY.png,,,,,,,,,,,,,,,,,,,,,,,,,,,,,,,,,,,
,,,,,,,,,,,,,,,,,6112dd8e4f8c8dd1b427088e,27,2022-02-12_17h57.52.282,lexical_decision_task_DD_L4,2021.2.3,Win32,61.67129201,,,,,,,,,,,0.7006,1,,,,,,,,,,,,,,z,1,0.7006,,,,,,,,0.1305,-0.351,0,0,0,,0,114,114,97,1,CHIDS,HB,old,z,./images/CHIDSHB.png,,,,,,,,,,,,,,,,,,,,,,,,,,,,,,,,,,,
,,,,,,,,,,,,,,,,,6112dd8e4f8c8dd1b427088e,27,2022-02-12_17h57.52.282,lexical_decision_task_DD_L4,2021.2.3,Win32,61.67129201,,,,,,,,,,,0.9787,1,,,,,,,,,,,,,,z,1,0.9787,,,,,,,,0.1305,-0.351,0,0,0,,0,115,115,94,1,BLANS,HB,old,z,./images/BLANSHB.png,,,,,,,,,,,,,,,,,,,,,,,,,,,,,,,,,,,
,,,,,,,,,,,,,,,,,6112dd8e4f8c8dd1b427088e,27,2022-02-12_17h57.52.282,lexical_decision_task_DD_L4,2021.2.3,Win32,61.67129201,,,,,,,,,,,0.5977,1,,,,,,,,,,,,,,z,1,0.5977,,,,,,,,0.1305,-0.351,0,0,0,,0,116,116,95,1,HANTY,LB,old,z,./images/HANTYLB.png,,,,,,,,,,,,,,,,,,,,,,,,,,,,,,,,,,,
,,,,,,,,,,,,,,,,,6112dd8e4f8c8dd1b427088e,27,2022-02-12_17h57.52.282,lexical_decision_task_DD_L4,2021.2.3,Win32,61.67129201,,,,,,,,,,,0.5698,1,,,,,,,,,,,,,,m,1,0.5698,,,,,,,,0.1305,-0.351,0,0,0,,0,117,117,25,1,CHALK,HB,old,m,./images/CHALKHB.png,,,,,,,,,,,,,,,,,,,,,,,,,,,,,,,,,,,
,,,,,,,,,,,,,,,,,6112dd8e4f8c8dd1b427088e,27,2022-02-12_17h57.52.282,lexical_decision_task_DD_L4,2021.2.3,Win32,61.67129201,,,,,,,,,,,0.4612,1,,,,,,,,,,,,,,m,1,0.4612,,,,,,,,0.1305,-0.351,0,0,0,,0,118,118,5,1,BAMBOO,LB,old,m,./images/BAMBOOLB.png,,,,,,,,,,,,,,,,,,,,,,,,,,,,,,,,,,,
,,,,,,,,,,,,,,,,,6112dd8e4f8c8dd1b427088e,27,2022-02-12_17h57.52.282,lexical_decision_task_DD_L4,2021.2.3,Win32,61.67129201,,,,,,,,,,,0.6261,1,,,,,,,,,,,,,,z,1,0.6261,,,,,,,,0.1305,-0.351,0,0,0,,0,119,119,119,1,PAFER,LB,old,z,./images/PAFERLB.png,,,,,,,,,,,,,,,,,,,,,,,,,,,,,,,,,,,
,,,,,,,,,,,,,,,,,6112dd8e4f8c8dd1b427088e,27,2022-02-12_17h57.52.282,lexical_decision_task_DD_L4,2021.2.3,Win32,61.67129201,,,,,,,,,,,0.8761,1,,,,,,,,,,,,,,z,1,0.8761,,,,,,,,0.1305,-0.351,0,0,0,,0,120,120,140,1,DOVET,LB,old,z,./images/DOVETLB.png,,,,,,,,,,,,,,,,,,,,,,,,,,,,,,,,,,,
,,,,,,,,,,,,,,,,,6112dd8e4f8c8dd1b427088e,27,2022-02-12_17h57.52.282,lexical_decision_task_DD_L4,2021.2.3,Win32,61.67129201,,,,,,,,,,,0.5018,1,,,,,,,,,,,,,,m,1,0.5018,,,,,,,,0.1305,-0.351,0,0,0,,0,121,121,9,1,DIVER,C,old,m,./images/DIVER.png,,,,,,,,,,,,,,,,,,,,,,,,,,,,,,,,,,,
,,,,,,,,,,,,,,,,,6112dd8e4f8c8dd1b427088e,27,2022-02-12_17h57.52.282,lexical_decision_task_DD_L4,2021.2.3,Win32,61.67129201,,,,,,,,,,,0.6495,1,,,,,,,,,,,,,,z,1,0.6495,,,,,,,,0.1305,-0.351,0,0,0,,0,122,122,147,1,ZOLES,C,old,z,./images/ZOLES.png,,,,,,,,,,,,,,,,,,,,,,,,,,,,,,,,,,,
,,,,,,,,,,,,,,,,,6112dd8e4f8c8dd1b427088e,27,2022-02-12_17h57.52.282,lexical_decision_task_DD_L4,2021.2.3,Win32,61.67129201,,,,,,,,,,,1.0194,1,,,,,,,,,,,,,,m,1,1.0194,,,,,,,,0.1305,-0.351,0,0,0,,0,123,123,79,1,RULER,HB,old,m,./images/RULERHB.png,,,,,,,,,,,,,,,,,,,,,,,,,,,,,,,,,,,
,,,,,,,,,,,,,,,,,6112dd8e4f8c8dd1b427088e,27,2022-02-12_17h57.52.282,lexical_decision_task_DD_L4,2021.2.3,Win32,61.67129201,,,,,,,,,,,0.4958,1,,,,,,,,,,,,,,m,1,0.4958,,,,,,,,0.1305,-0.351,0,0,0,,0,124,124,17,1,PARADE,LB,old,m,./images/PARADELB.png,,,,,,,,,,,,,,,,,,,,,,,,,,,,,,,,,,,
,,,,,,,,,,,,,,,,,6112dd8e4f8c8dd1b427088e,27,2022-02-12_17h57.52.282,lexical_decision_task_DD_L4,2021.2.3,Win32,61.67129201,,,,,,,,,,,1.0013,1,,,,,,,,,,,,,,z,1,1.0013,,,,,,,,0.1305,-0.351,0,0,0,space,0,125,125,109,1,BURGE,HB,old,z,./images/BURGEHB.png,12.7231,,,,,,,,,,,,,,,,,,,,,,,,,,,,,,,,,,
,,,,,,,,,,,,,,,,,6112dd8e4f8c8dd1b427088e,27,2022-02-12_17h57.52.282,lexical_decision_task_DD_L4,2021.2.3,Win32,61.67129201,,,,,,,,,,,0.7256,1,,,,,,,,,,,,,,z,1,0.7256,,,,,,,,0.1305,-0.351,0,0,0,,0,126,126,157,1,INLER,HB,old,z,./images/INLERHB.png,,,,,,,,,,,,,,,,,,,,,,,,,,,,,,,,,,,
,,,,,,,,,,,,,,,,,6112dd8e4f8c8dd1b427088e,27,2022-02-12_17h57.52.282,lexical_decision_task_DD_L4,2021.2.3,Win32,61.67129201,,,,,,,,,,,0.6366,1,,,,,,,,,,,,,,m,1,0.6366,,,,,,,,0.1305,-0.351,0,0,0,,0,127,127,20,1,GRANNY,LB,old,m,./images/GRANNYLB.png,,,,,,,,,,,,,,,,,,,,,,,,,,,,,,,,,,,
,,,,,,,,,,,,,,,,,6112dd8e4f8c8dd1b427088e,27,2022-02-12_17h57.52.282,lexical_decision_task_DD_L4,2021.2.3,Win32,61.67129201,,,,,,,,,,,0.6033,0,,,,,,,,,,,,,,m,0,0.6033,,,,,,,,0.1305,-0.351,0,0,0,,0,128,128,159,1,CUDDY,C,old,z,./images/CUDDY.png,,,,,,,,,,,,,,,,,,,,,,,,,,,,,,,,,,,
,,,,,,,,,,,,,,,,,6112dd8e4f8c8dd1b427088e,27,2022-02-12_17h57.52.282,lexical_decision_task_DD_L4,2021.2.3,Win32,61.67129201,,,,,,,,,,,0.7008,1,,,,,,,,,,,,,,z,1,0.7008,,,,,,,,0.1305,-0.351,0,0,0,,0,129,129,134,1,TROSS,LB,old,z,./images/TROSSLB.png,,,,,,,,,,,,,,,,,,,,,,,,,,,,,,,,,,,
,,,,,,,,,,,,,,,,,6112dd8e4f8c8dd1b427088e,27,2022-02-12_17h57.52.282,lexical_decision_task_DD_L4,2021.2.3,Win32,61.67129201,,,,,,,,,,,0.753,1,,,,,,,,,,,,,,z,1,0.753,,,,,,,,0.1305,-0.351,0,0,0,,0,130,130,124,1,TUNCH,HB,old,z,./images/TUNCHHB.png,,,,,,,,,,,,,,,,,,,,,,,,,,,,,,,,,,,
,,,,,,,,,,,,,,,,,6112dd8e4f8c8dd1b427088e,27,2022-02-12_17h57.52.282,lexical_decision_task_DD_L4,2021.2.3,Win32,61.67129201,,,,,,,,,,,1.0646,1,,,,,,,,,,,,,,z,1,1.0646,,,,,,,,0.1305,-0.351,0,0,0,,0,131,131,148,1,JOMS,HB,old,z,./images/JOMSHB.png,,,,,,,,,,,,,,,,,,,,,,,,,,,,,,,,,,,
,,,,,,,,,,,,,,,,,6112dd8e4f8c8dd1b427088e,27,2022-02-12_17h57.52.282,lexical_decision_task_DD_L4,2021.2.3,Win32,61.67129201,,,,,,,,,,,0.7209,1,,,,,,,,,,,,,,m,1,0.7209,,,,,,,,0.1305,-0.351,0,0,0,,0,132,132,40,1,SNAKE,HB,old,m,./images/SNAKEHB.png,,,,,,,,,,,,,,,,,,,,,,,,,,,,,,,,,,,
,,,,,,,,,,,,,,,,,6112dd8e4f8c8dd1b427088e,27,2022-02-12_17h57.52.282,lexical_decision_task_DD_L4,2021.2.3,Win32,61.67129201,,,,,,,,,,,0.6613,1,,,,,,,,,,,,,,z,1,0.6613,,,,,,,,0.1305,-0.351,0,0,0,,0,133,133,161,1,BLAPS,LB,old,z,./images/BLAPSLB.png,,,,,,,,,,,,,,,,,,,,,,,,,,,,,,,,,,,
,,,,,,,,,,,,,,,,,6112dd8e4f8c8dd1b427088e,27,2022-02-12_17h57.52.282,lexical_decision_task_DD_L4,2021.2.3,Win32,61.67129201,,,,,,,,,,,0.7957,1,,,,,,,,,,,,,,z,1,0.7957,,,,,,,,0.1305,-0.351,0,0,0,,0,134,134,84,1,HAXES,C,old,z,./images/HAXES.png,,,,,,,,,,,,,,,,,,,,,,,,,,,,,,,,,,,
,,,,,,,,,,,,,,,,,6112dd8e4f8c8dd1b427088e,27,2022-02-12_17h57.52.282,lexical_decision_task_DD_L4,2021.2.3,Win32,61.67129201,,,,,,,,,,,0.8491,1,,,,,,,,,,,,,,z,1,0.8491,,,,,,,,0.1305,-0.351,0,0,0,,0,135,135,88,1,GLUSH,HB,old,z,./images/GLUSHHB.png,,,,,,,,,,,,,,,,,,,,,,,,,,,,,,,,,,,
,,,,,,,,,,,,,,,,,6112dd8e4f8c8dd1b427088e,27,2022-02-12_17h57.52.282,lexical_decision_task_DD_L4,2021.2.3,Win32,61.67129201,,,,,,,,,,,0.8864,1,,,,,,,,,,,,,,m,1,0.8864,,,,,,,,0.1305,-0.351,0,0,0,,0,136,136,76,1,MIDGET,HB,old,m,./images/MIDGETHB.png,,,,,,,,,,,,,,,,,,,,,,,,,,,,,,,,,,,
,,,,,,,,,,,,,,,,,6112dd8e4f8c8dd1b427088e,27,2022-02-12_17h57.52.282,lexical_decision_task_DD_L4,2021.2.3,Win32,61.67129201,,,,,,,,,,,0.6691,1,,,,,,,,,,,,,,z,1,0.6691,,,,,,,,0.1305,-0.351,0,0,0,,0,137,137,99,1,BACKY,C,old,z,./images/BACKY.png,,,,,,,,,,,,,,,,,,,,,,,,,,,,,,,,,,,
,,,,,,,,,,,,,,,,,6112dd8e4f8c8dd1b427088e,27,2022-02-12_17h57.52.282,lexical_decision_task_DD_L4,2021.2.3,Win32,61.67129201,,,,,,,,,,,0.6702,1,,,,,,,,,,,,,,z,1,0.6702,,,,,,,,0.1305,-0.351,0,0,0,,0,138,138,101,1,GLEET,LB,old,z,./images/GLEETLB.png,,,,,,,,,,,,,,,,,,,,,,,,,,,,,,,,,,,
,,,,,,,,,,,,,,,,,6112dd8e4f8c8dd1b427088e,27,2022-02-12_17h57.52.282,lexical_decision_task_DD_L4,2021.2.3,Win32,61.67129201,,,,,,,,,,,0.8648,1,,,,,,,,,,,,,,m,1,0.8648,,,,,,,,0.1305,-0.351,0,0,0,,0,139,139,55,1,ALLEY,HB,old,m,./images/ALLEYHB.png,,,,,,,,,,,,,,,,,,,,,,,,,,,,,,,,,,,
,,,,,,,,,,,,,,,,,6112dd8e4f8c8dd1b427088e,27,2022-02-12_17h57.52.282,lexical_decision_task_DD_L4,2021.2.3,Win32,61.67129201,,,,,,,,,,,0.572,1,,,,,,,,,,,,,,m,1,0.572,,,,,,,,0.1305,-0.351,0,0,0,,0,140,140,15,1,COLLAR,C,old,m,./images/COLLAR.png,,,,,,,,,,,,,,,,,,,,,,,,,,,,,,,,,,,
,,,,,,,,,,,,,,,,,6112dd8e4f8c8dd1b427088e,27,2022-02-12_17h57.52.282,lexical_decision_task_DD_L4,2021.2.3,Win32,61.67129201,,,,,,,,,,,0.6149,1,,,,,,,,,,,,,,z,1,0.6149,,,,,,,,0.1305,-0.351,0,0,0,,0,141,141,146,1,MOOST,LB,old,z,./images/MOOSTLB.png,,,,,,,,,,,,,,,,,,,,,,,,,,,,,,,,,,,
,,,,,,,,,,,,,,,,,6112dd8e4f8c8dd1b427088e,27,2022-02-12_17h57.52.282,lexical_decision_task_DD_L4,2021.2.3,Win32,61.67129201,,,,,,,,,,,0.6325,1,,,,,,,,,,,,,,z,1,0.6325,,,,,,,,0.1305,-0.351,0,0,0,,0,142,142,111,1,HOSSE,C,old,z,./images/HOSSE.png,,,,,,,,,,,,,,,,,,,,,,,,,,,,,,,,,,,
,,,,,,,,,,,,,,,,,6112dd8e4f8c8dd1b427088e,27,2022-02-12_17h57.52.282,lexical_decision_task_DD_L4,2021.2.3,Win32,61.67129201,,,,,,,,,,,0.5461,1,,,,,,,,,,,,,,z,1,0.5461,,,,,,,,0.1305,-0.351,0,0,0,,0,143,143,144,1,NAIRY,C,old,z,./images/NAIRY.png,,,,,,,,,,,,,,,,,,,,,,,,,,,,,,,,,,,
,,,,,,,,,,,,,,,,,6112dd8e4f8c8dd1b427088e,27,2022-02-12_17h57.52.282,lexical_decision_task_DD_L4,2021.2.3,Win32,61.67129201,,,,,,,,,,,1.0667,1,,,,,,,,,,,,,,z,1,1.0667,,,,,,,,0.1305,-0.351,0,0,0,,0,144,144,166,1,SHORY,HB,old,z,./images/SHORYHB.png,,,,,,,,,,,,,,,,,,,,,,,,,,,,,,,,,,,
,,,,,,,,,,,,,,,,,6112dd8e4f8c8dd1b427088e,27,2022-02-12_17h57.52.282,lexical_decision_task_DD_L4,2021.2.3,Win32,61.67129201,,,,,,,,,,,0.5463,1,,,,,,,,,,,,,,z,1,0.5463,,,,,,,,0.1305,-0.351,0,0,0,,0,145,145,137,1,JOOST,LB,old,z,./images/JOOSTLB.png,,,,,,,,,,,,,,,,,,,,,,,,,,,,,,,,,,,
,,,,,,,,,,,,,,,,,6112dd8e4f8c8dd1b427088e,27,2022-02-12_17h57.52.282,lexical_decision_task_DD_L4,2021.2.3,Win32,61.67129201,,,,,,,,,,,0.5252,1,,,,,,,,,,,,,,m,1,0.5252,,,,,,,,0.1305,-0.351,0,0,0,,0,146,146,59,1,BRUSH,LB,old,m,./images/BRUSHLB.png,,,,,,,,,,,,,,,,,,,,,,,,,,,,,,,,,,,
,,,,,,,,,,,,,,,,,6112dd8e4f8c8dd1b427088e,27,2022-02-12_17h57.52.282,lexical_decision_task_DD_L4,2021.2.3,Win32,61.67129201,,,,,,,,,,,0.8376,1,,,,,,,,,,,,,,m,1,0.8376,,,,,,,,0.1305,-0.351,0,0,0,,0,147,147,4,1,BOXER,HB,old,m,./images/BOXERHB.png,,,,,,,,,,,,,,,,,,,,,,,,,,,,,,,,,,,
,,,,,,,,,,,,,,,,,6112dd8e4f8c8dd1b427088e,27,2022-02-12_17h57.52.282,lexical_decision_task_DD_L4,2021.2.3,Win32,61.67129201,,,,,,,,,,,0.9036,1,,,,,,,,,,,,,,z,1,0.9036,,,,,,,,0.1305,-0.351,0,0,0,,0,148,148,139,1,BLEAR,HB,old,z,./images/BLEARHB.png,,,,,,,,,,,,,,,,,,,,,,,,,,,,,,,,,,,
,,,,,,,,,,,,,,,,,6112dd8e4f8c8dd1b427088e,27,2022-02-12_17h57.52.282,lexical_decision_task_DD_L4,2021.2.3,Win32,61.67129201,,,,,,,,,,,0.5808,1,,,,,,,,,,,,,,z,1,0.5808,,,,,,,,0.1305,-0.351,0,0,0,,0,149,149,120,1,RINED,C,old,z,./images/RINED.png,,,,,,,,,,,,,,,,,,,,,,,,,,,,,,,,,,,
,,,,,,,,,,,,,,,,,6112dd8e4f8c8dd1b427088e,27,2022-02-12_17h57.52.282,lexical_decision_task_DD_L4,2021.2.3,Win32,61.67129201,,,,,,,,,,,0.5787,1,,,,,,,,,,,,,,m,1,0.5787,,,,,,,,0.1305,-0.351,0,0,0,,0,150,150,69,1,ARROW,C,old,m,./images/ARROW.png,,,,,,,,,,,,,,,,,,,,,,,,,,,,,,,,,,,
,,,,,,,,,,,,,,,,,6112dd8e4f8c8dd1b427088e,27,2022-02-12_17h57.52.282,lexical_decision_task_DD_L4,2021.2.3,Win32,61.67129201,,,,,,,,,,,0.8201,1,,,,,,,,,,,,,,z,1,0.8201,,,,,,,,0.1305,-0.351,0,0,0,,0,151,151,145,1,LAMEL,HB,old,z,./images/LAMELHB.png,,,,,,,,,,,,,,,,,,,,,,,,,,,,,,,,,,,
,,,,,,,,,,,,,,,,,6112dd8e4f8c8dd1b427088e,27,2022-02-12_17h57.52.282,lexical_decision_task_DD_L4,2021.2.3,Win32,61.67129201,,,,,,,,,,,0.8031,1,,,,,,,,,,,,,,m,1,0.8031,,,,,,,,0.1305,-0.351,0,0,0,,0,152,152,52,1,DESERT,HB,old,m,./images/DESERTHB.png,,,,,,,,,,,,,,,,,,,,,,,,,,,,,,,,,,,
,,,,,,,,,,,,,,,,,6112dd8e4f8c8dd1b427088e,27,2022-02-12_17h57.52.282,lexical_decision_task_DD_L4,2021.2.3,Win32,61.67129201,,,,,,,,,,,0.8846,1,,,,,,,,,,,,,,z,1,0.8846,,,,,,,,0.1305,-0.351,0,0,0,,0,153,153,160,1,VEETS,HB,old,z,./images/VEETSHB.png,,,,,,,,,,,,,,,,,,,,,,,,,,,,,,,,,,,
,,,,,,,,,,,,,,,,,6112dd8e4f8c8dd1b427088e,27,2022-02-12_17h57.52.282,lexical_decision_task_DD_L4,2021.2.3,Win32,61.67129201,,,,,,,,,,,0.7596,1,,,,,,,,,,,,,,z,1,0.7596,,,,,,,,0.1305,-0.351,0,0,0,,0,154,154,112,1,MYING,HB,old,z,./images/MYINGHB.png,,,,,,,,,,,,,,,,,,,,,,,,,,,,,,,,,,,
,,,,,,,,,,,,,,,,,6112dd8e4f8c8dd1b427088e,27,2022-02-12_17h57.52.282,lexical_decision_task_DD_L4,2021.2.3,Win32,61.67129201,,,,,,,,,,,0.5567,1,,,,,,,,,,,,,,m,1,0.5567,,,,,,,,0.1305,-0.351,0,0,0,,0,155,155,74,1,JUMPER,LB,old,m,./images/JUMPERLB.png,,,,,,,,,,,,,,,,,,,,,,,,,,,,,,,,,,,
,,,,,,,,,,,,,,,,,6112dd8e4f8c8dd1b427088e,27,2022-02-12_17h57.52.282,lexical_decision_task_DD_L4,2021.2.3,Win32,61.67129201,,,,,,,,,,,0.8952,0,,,,,,,,,,,,,,m,0,0.8952,,,,,,,,0.1305,-0.351,0,0,0,,0,156,156,142,1,PLASK,HB,old,z,./images/PLASKHB.png,,,,,,,,,,,,,,,,,,,,,,,,,,,,,,,,,,,
,,,,,,,,,,,,,,,,,6112dd8e4f8c8dd1b427088e,27,2022-02-12_17h57.52.282,lexical_decision_task_DD_L4,2021.2.3,Win32,61.67129201,,,,,,,,,,,0.974,1,,,,,,,,,,,,,,z,1,0.974,,,,,,,,0.1305,-0.351,0,0,0,,0,157,157,121,1,CEERS,HB,old,z,./images/CEERSHB.png,,,,,,,,,,,,,,,,,,,,,,,,,,,,,,,,,,,
,,,,,,,,,,,,,,,,,6112dd8e4f8c8dd1b427088e,27,2022-02-12_17h57.52.282,lexical_decision_task_DD_L4,2021.2.3,Win32,61.67129201,,,,,,,,,,,0.5177,1,,,,,,,,,,,,,,m,1,0.5177,,,,,,,,0.1305,-0.351,0,0,0,,0,158,158,56,1,HEATER,LB,old,m,./images/HEATERLB.png,,,,,,,,,,,,,,,,,,,,,,,,,,,,,,,,,,,
,,,,,,,,,,,,,,,,,6112dd8e4f8c8dd1b427088e,27,2022-02-12_17h57.52.282,lexical_decision_task_DD_L4,2021.2.3,Win32,61.67129201,,,,,,,,,,,0.5492,1,,,,,,,,,,,,,,z,1,0.5492,,,,,,,,0.1305,-0.351,0,0,0,,0,159,159,114,1,RIKES,C,old,z,./images/RIKES.png,,,,,,,,,,,,,,,,,,,,,,,,,,,,,,,,,,,
,,,,,,,,,,,,,,,,,6112dd8e4f8c8dd1b427088e,27,2022-02-12_17h57.52.282,lexical_decision_task_DD_L4,2021.2.3,Win32,61.67129201,,,,,,,,,,,0.6021,1,,,,,,,,,,,,,,m,1,0.6021,,,,,,,,0.1305,-0.351,0,0,0,,0,160,160,61,1,ARTIST,HB,old,m,./images/ARTISTHB.png,,,,,,,,,,,,,,,,,,,,,,,,,,,,,,,,,,,
,,,,,,,,,,,,,,,,,6112dd8e4f8c8dd1b427088e,27,2022-02-12_17h57.52.282,lexical_decision_task_DD_L4,2021.2.3,Win32,61.67129201,,,,,,,,,,,0.6131,1,,,,,,,,,,,,,,m,1,0.6131,,,,,,,,0.1305,-0.351,0,0,0,,0,161,161,68,1,VALLEY,LB,old,m,./images/VALLEYLB.png,,,,,,,,,,,,,,,,,,,,,,,,,,,,,,,,,,,
,,,,,,,,,,,,,,,,,6112dd8e4f8c8dd1b427088e,27,2022-02-12_17h57.52.282,lexical_decision_task_DD_L4,2021.2.3,Win32,61.67129201,,,,,,,,,,,0.4733,1,,,,,,,,,,,,,,m,1,0.4733,,,,,,,,0.1305,-0.351,0,0,0,,0,162,162,45,1,MONKEY,C,old,m,./images/MONKEY.png,,,,,,,,,,,,,,,,,,,,,,,,,,,,,,,,,,,
,,,,,,,,,,,,,,,,,6112dd8e4f8c8dd1b427088e,27,2022-02-12_17h57.52.282,lexical_decision_task_DD_L4,2021.2.3,Win32,61.67129201,,,,,,,,,,,0.6161,1,,,,,,,,,,,,,,z,1,0.6161,,,,,,,,0.1305,-0.351,0,0,0,,0,163,163,93,1,SMONE,C,old,z,./images/SMONE.png,,,,,,,,,,,,,,,,,,,,,,,,,,,,,,,,,,,
,,,,,,,,,,,,,,,,,6112dd8e4f8c8dd1b427088e,27,2022-02-12_17h57.52.282,lexical_decision_task_DD_L4,2021.2.3,Win32,61.67129201,,,,,,,,,,,0.5605,1,,,,,,,,,,,,,,z,1,0.5605,,,,,,,,0.1305,-0.351,0,0,0,,0,164,164,156,1,HIXES,C,old,z,./images/HIXES.png,,,,,,,,,,,,,,,,,,,,,,,,,,,,,,,,,,,
,,,,,,,,,,,,,,,,,6112dd8e4f8c8dd1b427088e,27,2022-02-12_17h57.52.282,lexical_decision_task_DD_L4,2021.2.3,Win32,61.67129201,,,,,,,,,,,0.5676,1,,,,,,,,,,,,,,z,1,0.5676,,,,,,,,0.1305,-0.351,0,0,0,,0,165,165,96,1,KEAMS,C,old,z,./images/KEAMS.png,,,,,,,,,,,,,,,,,,,,,,,,,,,,,,,,,,,
,,,,,,,,,,,,,,,,,6112dd8e4f8c8dd1b427088e,27,2022-02-12_17h57.52.282,lexical_decision_task_DD_L4,2021.2.3,Win32,61.67129201,,,,,,,,,,,0.8358,1,,,,,,,,,,,,,,z,1,0.8358,,,,,,,,0.1305,-0.351,0,0,0,,0,166,166,91,1,SHENS,HB,old,z,./images/SHENSHB.png,,,,,,,,,,,,,,,,,,,,,,,,,,,,,,,,,,,
,,,,,,,,,,,,,,,,,6112dd8e4f8c8dd1b427088e,27,2022-02-12_17h57.52.282,lexical_decision_task_DD_L4,2021.2.3,Win32,61.67129201,,,,,,,,,,,0.8695,1,,,,,,,,,,,,,,z,1,0.8695,,,,,,,,0.1305,-0.351,0,0,0,,0,167,167,110,1,CRUNK,LB,old,z,./images/CRUNKLB.png,,,,,,,,,,,,,,,,,,,,,,,,,,,,,,,,,,,
,,,,,,,,,,,,,,,,,6112dd8e4f8c8dd1b427088e,27,2022-02-12_17h57.52.282,lexical_decision_task_DD_L4,2021.2.3,Win32,61.67129201,,,,,,,,,,,,,,,,,,,,,,,,,,,,,,,,,,,,,,,,,,,,,,,,How likely will it be that you will recognize the words presented very blurred on a scale of 0 (not likely) to 100 (most likely)?,,,,,0.001,-0.362,1,0,0,jol_adv,3,7.6945,0,0,0,2,1,,,,,,,,,,,,,,,,,,,,,
,,,,,,,,,,,,,,,,,6112dd8e4f8c8dd1b427088e,27,2022-02-12_17h57.52.282,lexical_decision_task_DD_L4,2021.2.3,Win32,61.67129201,,,,,,,,,,,,,,,,,,,,,,,,,,,,,,,,,,,,,,,,,,,,,,,,How likely will it be that you will recognize the words presented slighly blurred on a scale of 0 (not likely) to 100 (most likely)?,,,,,,,,,,,3,0.7374,0,1,1,1,1,,,,,,,,,,,,,,,,,,,,,
,,,,,,,,,,,,,,,,,6112dd8e4f8c8dd1b427088e,27,2022-02-12_17h57.52.282,lexical_decision_task_DD_L4,2021.2.3,Win32,61.67129201,,,,,,,,,,,,,,,,,,,,,,,,,,,,,,,,,,,,,,,,,,,,,,,,How likely will it be that you will recognize the words presented clearly on a scale of 0 (not likely) to 100 (most likely)?,,,,,,,,,,,3,0.5714,0,2,2,0,1,,,,,,,,,,,,,,,,,,,,,
space,18.2172,0.0095,-0.3075,0,0,0,,,,,,1,test,"In the next phase you will be presented with the words from the the first phase. Your job is to decide whether you remember seeing the word or not. If you remember seeing the word press ""old"" or type ""m"". If you do not remember seeing the word press ""new"" or type ""z"". Please press the space bar or click on continue to begin. ",,,6112dd8e4f8c8dd1b427088e,27,2022-02-12_17h57.52.282,lexical_decision_task_DD_L4,2021.2.3,Win32,61.67129201,,,,,,,,,,,,,,,,,,,,,,,,,,,,,,,,,,,,,,,,,,,,,,,,,,,,,,,,,,,,,,,,,,0,0,0,0,1,,,,,,,,,,,,,,,,
,,0.009,-0.402,1,0,0,,,,,,1,test,"In the next phase you will be presented with the words from the the first phase. Your job is to decide whether you remember seeing the word or not. If you remember seeing the word press ""old"" or type ""m"". If you do not remember seeing the word press ""new"" or type ""z"". Please press the space bar or click on continue to begin. ",,,6112dd8e4f8c8dd1b427088e,27,2022-02-12_17h57.52.282,lexical_decision_task_DD_L4,2021.2.3,Win32,61.67129201,,,,,,,,,,,,,,,,,,,,,,,,,,,,,,,,,,,,,,,,,,,,,,,,,,,,,,,,,,,,,,,,,,1,0,1,0,1,instr_done_button,,,,,,,,,,,,,,,
space,0.7697,0.041,-0.3175,0,0,0,,,,,,1,test,"In the next phase you will be presented with the words from the the first phase. Your job is to decide whether you remember seeing the word or not. If you remember seeing the word press ""old"" or type ""m"". If you do not remember seeing the word press ""new"" or type ""z"". Please press the space bar or click on continue to begin. ",,,6112dd8e4f8c8dd1b427088e,27,2022-02-12_17h57.52.282,lexical_decision_task_DD_L4,2021.2.3,Win32,61.67129201,,,,,,,,,,,,,,,,,,,,,,,,,,,,,,,,,,,,,,,,,,,,,,,,,,,,,,,,,,,,,,,,,,2,0,2,0,1,,,,,,,,,,,,,,,,
space,2.2269,-0.0525,-0.186,0,0,0,,,,,,1,test,"In the next phase you will be presented with the words from the the first phase. Your job is to decide whether you remember seeing the word or not. If you remember seeing the word press ""old"" or type ""m"". If you do not remember seeing the word press ""new"" or type ""z"". Please press the space bar or click on continue to begin. ",,,6112dd8e4f8c8dd1b427088e,27,2022-02-12_17h57.52.282,lexical_decision_task_DD_L4,2021.2.3,Win32,61.67129201,,,,,,,,,,,,,,,,,,,,,,,,,,,,,,,,,,,,,,,,,,,,,,,,,,,,,,,,,,,,,,,,,,3,0,3,0,1,,,,,,,,,,,,,,,,
space,1.3237,-0.0525,-0.186,0,0,0,,,,,,1,test,"In the next phase you will be presented with the words from the the first phase. Your job is to decide whether you remember seeing the word or not. If you remember seeing the word press ""old"" or type ""m"". If you do not remember seeing the word press ""new"" or type ""z"". Please press the space bar or click on continue to begin. ",,,6112dd8e4f8c8dd1b427088e,27,2022-02-12_17h57.52.282,lexical_decision_task_DD_L4,2021.2.3,Win32,61.67129201,,,,,,,,,,,,,,,,,,,,,,,,,,,,,,,,,,,,,,,,,,,,,,,,,,,,,,,,,,,,,,,,,,4,0,4,0,1,,,,,,,,,,,,,,,,
,,,,,,,,,,,,,,,,,6112dd8e4f8c8dd1b427088e,27,2022-02-12_17h57.52.282,lexical_decision_task_DD_L4,2021.2.3,Win32,61.67129201,,,,,,,,,,,1.5737,0,,,,,,,,,,,,,,,,,,,,,,,,-0.0525,-0.186,0,0,0,,,,,,,MEDAL,LB,m,y,./images/MEDALLB.png,,,,,,,,,,,,,,,,,,,,,z,0,1.5737,,,,,,,,0,0,0,11,1
,,,,,,,,,,,,,,,,,6112dd8e4f8c8dd1b427088e,27,2022-02-12_17h57.52.282,lexical_decision_task_DD_L4,2021.2.3,Win32,61.67129201,,,,,,,,,,,1.4831,1,,,,,,,,,,,,,,,,,,,,,,,,-0.0525,-0.186,0,0,0,,,,,,,WRIST,HB,z,y,./images/WRISTHB.png,,,,,,,,,,,,,,,,,,,,,z,1,1.4831,,,,,,,,0,1,1,109,1
,,,,,,,,,,,,,,,,,6112dd8e4f8c8dd1b427088e,27,2022-02-12_17h57.52.282,lexical_decision_task_DD_L4,2021.2.3,Win32,61.67129201,,,,,,,,,,,1.2076,0,,,,,,,,,,,,,,,,,,,,,,,,-0.0525,-0.186,0,0,0,,,,,,,CANYON,HB,z,y,./images/CANYONHB.png,,,,,,,,,,,,,,,,,,,,,m,0,1.2076,,,,,,,,0,2,2,118,1
,,,,,,,,,,,,,,,,,6112dd8e4f8c8dd1b427088e,27,2022-02-12_17h57.52.282,lexical_decision_task_DD_L4,2021.2.3,Win32,61.67129201,,,,,,,,,,,0.7582,1,,,,,,,,,,,,,,,,,,,,,,,,-0.0525,-0.186,0,0,0,,,,,,,FINGER,C,z,y,./images/FINGER.png,,,,,,,,,,,,,,,,,,,,,z,1,0.7582,,,,,,,,0,3,3,87,1
,,,,,,,,,,,,,,,,,6112dd8e4f8c8dd1b427088e,27,2022-02-12_17h57.52.282,lexical_decision_task_DD_L4,2021.2.3,Win32,61.67129201,,,,,,,,,,,0.767,1,,,,,,,,,,,,,,,,,,,,,,,,-0.0525,-0.186,0,0,0,,,,,,,PISTOL,LB,m,y,./images/PISTOLLB.png,,,,,,,,,,,,,,,,,,,,,m,1,0.767,,,,,,,,0,4,4,29,1
,,,,,,,,,,,,,,,,,6112dd8e4f8c8dd1b427088e,27,2022-02-12_17h57.52.282,lexical_decision_task_DD_L4,2021.2.3,Win32,61.67129201,,,,,,,,,,,0.7352,1,,,,,,,,,,,,,,,,,,,,,,,,-0.0525,-0.186,0,0,0,,,,,,,CASINO,HB,m,y,./images/CASINOHB.png,,,,,,,,,,,,,,,,,,,,,m,1,0.7352,,,,,,,,0,5,5,28,1
,,,,,,,,,,,,,,,,,6112dd8e4f8c8dd1b427088e,27,2022-02-12_17h57.52.282,lexical_decision_task_DD_L4,2021.2.3,Win32,61.67129201,,,,,,,,,,,0.7146,1,,,,,,,,,,,,,,,,,,,,,,,,-0.0525,-0.186,0,0,0,,,,,,,BIRTH,HB,z,y,./images/BIRTHHB.png,,,,,,,,,,,,,,,,,,,,,z,1,0.7146,,,,,,,,0,6,6,121,1
,,,,,,,,,,,,,,,,,6112dd8e4f8c8dd1b427088e,27,2022-02-12_17h57.52.282,lexical_decision_task_DD_L4,2021.2.3,Win32,61.67129201,,,,,,,,,,,0.9055,1,,,,,,,,,,,,,,,,,,,,,,,,-0.0525,-0.186,0,0,0,,,,,,,NOOSE,C,z,y,./images/NOOSE.png,,,,,,,,,,,,,,,,,,,,,z,1,0.9055,,,,,,,,0,7,7,156,1
,,,,,,,,,,,,,,,,,6112dd8e4f8c8dd1b427088e,27,2022-02-12_17h57.52.282,lexical_decision_task_DD_L4,2021.2.3,Win32,61.67129201,,,,,,,,,,,1.0439,0,,,,,,,,,,,,,,,,,,,,,,,,-0.0525,-0.186,0,0,0,,,,,,,SAUCE,C,m,y,./images/SAUCE.png,,,,,,,,,,,,,,,,,,,,,z,0,1.0439,,,,,,,,0,8,8,51,1
,,,,,,,,,,,,,,,,,6112dd8e4f8c8dd1b427088e,27,2022-02-12_17h57.52.282,lexical_decision_task_DD_L4,2021.2.3,Win32,61.67129201,,,,,,,,,,,0.7763,1,,,,,,,,,,,,,,,,,,,,,,,,-0.0525,-0.186,0,0,0,,,,,,,DOUGH,HB,z,y,./images/DOUGHHB.png,,,,,,,,,,,,,,,,,,,,,z,1,0.7763,,,,,,,,0,9,9,103,1
,,,,,,,,,,,,,,,,,6112dd8e4f8c8dd1b427088e,27,2022-02-12_17h57.52.282,lexical_decision_task_DD_L4,2021.2.3,Win32,61.67129201,,,,,,,,,,,0.7163,1,,,,,,,,,,,,,,,,,,,,,,,,-0.0525,-0.186,0,0,0,,,,,,,CHERRY,C,m,y,./images/CHERRY.png,,,,,,,,,,,,,,,,,,,,,m,1,0.7163,,,,,,,,0,10,10,54,1
,,,,,,,,,,,,,,,,,6112dd8e4f8c8dd1b427088e,27,2022-02-12_17h57.52.282,lexical_decision_task_DD_L4,2021.2.3,Win32,61.67129201,,,,,,,,,,,0.8051,1,,,,,,,,,,,,,,,,,,,,,,,,-0.0525,-0.186,0,0,0,,,,,,,BABOON,HB,z,y,./images/BABOONHB.png,,,,,,,,,,,,,,,,,,,,,z,1,0.8051,,,,,,,,0,11,11,142,1
,,,,,,,,,,,,,,,,,6112dd8e4f8c8dd1b427088e,27,2022-02-12_17h57.52.282,lexical_decision_task_DD_L4,2021.2.3,Win32,61.67129201,,,,,,,,,,,0.7663,1,,,,,,,,,,,,,,,,,,,,,,,,-0.0525,-0.186,0,0,0,,,,,,,FALCON,HB,z,y,./images/FALCONHB.png,,,,,,,,,,,,,,,,,,,,,z,1,0.7663,,,,,,,,0,12,12,112,1
,,,,,,,,,,,,,,,,,6112dd8e4f8c8dd1b427088e,27,2022-02-12_17h57.52.282,lexical_decision_task_DD_L4,2021.2.3,Win32,61.67129201,,,,,,,,,,,0.7083,1,,,,,,,,,,,,,,,,,,,,,,,,-0.0525,-0.186,0,0,0,,,,,,,ALLEY,HB,m,y,./images/ALLEYHB.png,,,,,,,,,,,,,,,,,,,,,m,1,0.7083,,,,,,,,0,13,13,55,1
,,,,,,,,,,,,,,,,,6112dd8e4f8c8dd1b427088e,27,2022-02-12_17h57.52.282,lexical_decision_task_DD_L4,2021.2.3,Win32,61.67129201,,,,,,,,,,,1.7004,1,,,,,,,,,,,,,,,,,,,,,,,,-0.0525,-0.186,0,0,0,,,,,,,PENCE,HB,z,y,./images/PENCEHB.png,,,,,,,,,,,,,,,,,,,,,z,1,1.7004,,,,,,,,0,14,14,100,1
,,,,,,,,,,,,,,,,,6112dd8e4f8c8dd1b427088e,27,2022-02-12_17h57.52.282,lexical_decision_task_DD_L4,2021.2.3,Win32,61.67129201,,,,,,,,,,,0.9462,1,,,,,,,,,,,,,,,,,,,,,,,,-0.0525,-0.186,0,0,0,,,,,,,MUMMY,HB,m,y,./images/MUMMYHB.png,,,,,,,,,,,,,,,,,,,,,m,1,0.9462,,,,,,,,0,15,15,46,1
,,,,,,,,,,,,,,,,,6112dd8e4f8c8dd1b427088e,27,2022-02-12_17h57.52.282,lexical_decision_task_DD_L4,2021.2.3,Win32,61.67129201,,,,,,,,,,,0.6852,1,,,,,,,,,,,,,,,,,,,,,,,,-0.0525,-0.186,0,0,0,,,,,,,SWEAT,C,z,y,./images/SWEAT.png,,,,,,,,,,,,,,,,,,,,,z,1,0.6852,,,,,,,,0,16,16,150,1
,,,,,,,,,,,,,,,,,6112dd8e4f8c8dd1b427088e,27,2022-02-12_17h57.52.282,lexical_decision_task_DD_L4,2021.2.3,Win32,61.67129201,,,,,,,,,,,0.7824,1,,,,,,,,,,,,,,,,,,,,,,,,-0.0525,-0.186,0,0,0,,,,,,,RHINO,C,z,y,./images/RHINO.png,,,,,,,,,,,,,,,,,,,,,z,1,0.7824,,,,,,,,0,17,17,93,1
,,,,,,,,,,,,,,,,,6112dd8e4f8c8dd1b427088e,27,2022-02-12_17h57.52.282,lexical_decision_task_DD_L4,2021.2.3,Win32,61.67129201,,,,,,,,,,,0.7329,1,,,,,,,,,,,,,,,,,,,,,,,,-0.0525,-0.186,0,0,0,,,,,,,PIMPLE,LB,z,y,./images/PIMPLELB.png,,,,,,,,,,,,,,,,,,,,,z,1,0.7329,,,,,,,,0,18,18,155,1
,,,,,,,,,,,,,,,,,6112dd8e4f8c8dd1b427088e,27,2022-02-12_17h57.52.282,lexical_decision_task_DD_L4,2021.2.3,Win32,61.67129201,,,,,,,,,,,0.8129,1,,,,,,,,,,,,,,,,,,,,,,,,-0.0525,-0.186,0,0,0,,,,,,,SUNSET,HB,z,y,./images/SUNSETHB.png,,,,,,,,,,,,,,,,,,,,,z,1,0.8129,,,,,,,,0,19,19,166,1
,,,,,,,,,,,,,,,,,6112dd8e4f8c8dd1b427088e,27,2022-02-12_17h57.52.282,lexical_decision_task_DD_L4,2021.2.3,Win32,61.67129201,,,,,,,,,,,0.6719,1,,,,,,,,,,,,,,,,,,,,,,,,-0.0525,-0.186,0,0,0,,,,,,,FOLDER,C,z,y,./images/FOLDER.png,,,,,,,,,,,,,,,,,,,,,z,1,0.6719,,,,,,,,0,20,20,126,1
,,,,,,,,,,,,,,,,,6112dd8e4f8c8dd1b427088e,27,2022-02-12_17h57.52.282,lexical_decision_task_DD_L4,2021.2.3,Win32,61.67129201,,,,,,,,,,,0.6269,1,,,,,,,,,,,,,,,,,,,,,,,,-0.0525,-0.186,0,0,0,,,,,,,CHALK,HB,m,y,./images/CHALKHB.png,,,,,,,,,,,,,,,,,,,,,m,1,0.6269,,,,,,,,0,21,21,25,1
,,,,,,,,,,,,,,,,,6112dd8e4f8c8dd1b427088e,27,2022-02-12_17h57.52.282,lexical_decision_task_DD_L4,2021.2.3,Win32,61.67129201,,,,,,,,,,,0.6094,1,,,,,,,,,,,,,,,,,,,,,,,,-0.0525,-0.186,0,0,0,,,,,,,JUMPER,LB,m,y,./images/JUMPERLB.png,,,,,,,,,,,,,,,,,,,,,m,1,0.6094,,,,,,,,0,22,22,74,1
,,,,,,,,,,,,,,,,,6112dd8e4f8c8dd1b427088e,27,2022-02-12_17h57.52.282,lexical_decision_task_DD_L4,2021.2.3,Win32,61.67129201,,,,,,,,,,,0.9241,1,,,,,,,,,,,,,,,,,,,,,,,,-0.0525,-0.186,0,0,0,,,,,,,BOILER,C,m,y,./images/BOILER.png,,,,,,,,,,,,,,,,,,,,,m,1,0.9241,,,,,,,,0,23,23,36,1
,,,,,,,,,,,,,,,,,6112dd8e4f8c8dd1b427088e,27,2022-02-12_17h57.52.282,lexical_decision_task_DD_L4,2021.2.3,Win32,61.67129201,,,,,,,,,,,0.7722,1,,,,,,,,,,,,,,,,,,,,,,,,-0.0525,-0.186,0,0,0,,,,,,,BARREL,LB,z,y,./images/BARRELLB.png,,,,,,,,,,,,,,,,,,,,,z,1,0.7722,,,,,,,,0,24,24,116,1
,,,,,,,,,,,,,,,,,6112dd8e4f8c8dd1b427088e,27,2022-02-12_17h57.52.282,lexical_decision_task_DD_L4,2021.2.3,Win32,61.67129201,,,,,,,,,,,0.7153,1,,,,,,,,,,,,,,,,,,,,,,,,-0.0525,-0.186,0,0,0,,,,,,,ONION,C,z,y,./images/ONION.png,,,,,,,,,,,,,,,,,,,,,z,1,0.7153,,,,,,,,0,25,25,135,1
,,,,,,,,,,,,,,,,,6112dd8e4f8c8dd1b427088e,27,2022-02-12_17h57.52.282,lexical_decision_task_DD_L4,2021.2.3,Win32,61.67129201,,,,,,,,,,,0.9164,0,,,,,,,,,,,,,,,,,,,,,,,,-0.0525,-0.186,0,0,0,,,,,,,GLOVE,HB,m,y,./images/GLOVEHB.png,,,,,,,,,,,,,,,,,,,,,z,0,0.9164,,,,,,,,0,26,26,73,1
,,,,,,,,,,,,,,,,,6112dd8e4f8c8dd1b427088e,27,2022-02-12_17h57.52.282,lexical_decision_task_DD_L4,2021.2.3,Win32,61.67129201,,,,,,,,,,,0.2502,1,,,,,,,,,,,,,,,,,,,,,,,,-0.0525,-0.186,0,0,0,,,,,,,CURRY,C,m,y,./images/CURRY.png,,,,,,,,,,,,,,,,,,,,,m,1,0.2502,,,,,,,,0,27,27,60,1
,,,,,,,,,,,,,,,,,6112dd8e4f8c8dd1b427088e,27,2022-02-12_17h57.52.282,lexical_decision_task_DD_L4,2021.2.3,Win32,61.67129201,,,,,,,,,,,0.7052,1,,,,,,,,,,,,,,,,,,,,,,,,-0.0525,-0.186,0,0,0,,,,,,,TWINS,C,z,y,./images/TWINS.png,,,,,,,,,,,,,,,,,,,,,z,1,0.7052,,,,,,,,0,28,28,144,1
,,,,,,,,,,,,,,,,,6112dd8e4f8c8dd1b427088e,27,2022-02-12_17h57.52.282,lexical_decision_task_DD_L4,2021.2.3,Win32,61.67129201,,,,,,,,,,,0.6501,1,,,,,,,,,,,,,,,,,,,,,,,,-0.0525,-0.186,0,0,0,,,,,,,MALLET,LB,z,y,./images/MALLETLB.png,,,,,,,,,,,,,,,,,,,,,z,1,0.6501,,,,,,,,0,29,29,134,1
,,,,,,,,,,,,,,,,,6112dd8e4f8c8dd1b427088e,27,2022-02-12_17h57.52.282,lexical_decision_task_DD_L4,2021.2.3,Win32,61.67129201,,,,,,,,,,,0.6474,1,,,,,,,,,,,,,,,,,,,,,,,,-0.0525,-0.186,0,0,0,,,,,,,LAGOON,LB,m,y,./images/LAGOONLB.png,,,,,,,,,,,,,,,,,,,,,m,1,0.6474,,,,,,,,0,30,30,47,1
,,,,,,,,,,,,,,,,,6112dd8e4f8c8dd1b427088e,27,2022-02-12_17h57.52.282,lexical_decision_task_DD_L4,2021.2.3,Win32,61.67129201,,,,,,,,,,,0.7424,1,,,,,,,,,,,,,,,,,,,,,,,,-0.0525,-0.186,0,0,0,,,,,,,BUNNY,HB,m,y,./images/BUNNYHB.png,,,,,,,,,,,,,,,,,,,,,m,1,0.7424,,,,,,,,0,31,31,13,1
,,,,,,,,,,,,,,,,,6112dd8e4f8c8dd1b427088e,27,2022-02-12_17h57.52.282,lexical_decision_task_DD_L4,2021.2.3,Win32,61.67129201,,,,,,,,,,,0.6474,1,,,,,,,,,,,,,,,,,,,,,,,,-0.0525,-0.186,0,0,0,,,,,,,KIDNEY,C,z,y,./images/KIDNEY.png,,,,,,,,,,,,,,,,,,,,,z,1,0.6474,,,,,,,,0,32,32,105,1
,,,,,,,,,,,,,,,,,6112dd8e4f8c8dd1b427088e,27,2022-02-12_17h57.52.282,lexical_decision_task_DD_L4,2021.2.3,Win32,61.67129201,,,,,,,,,,,0.7197,1,,,,,,,,,,,,,,,,,,,,,,,,-0.0525,-0.186,0,0,0,,,,,,,CANDLE,HB,z,y,./images/CANDLEHB.png,,,,,,,,,,,,,,,,,,,,,z,1,0.7197,,,,,,,,0,33,33,145,1
,,,,,,,,,,,,,,,,,6112dd8e4f8c8dd1b427088e,27,2022-02-12_17h57.52.282,lexical_decision_task_DD_L4,2021.2.3,Win32,61.67129201,,,,,,,,,,,0.8094,1,,,,,,,,,,,,,,,,,,,,,,,,-0.0525,-0.186,0,0,0,,,,,,,CLOWN,HB,m,y,./images/CLOWNHB.png,,,,,,,,,,,,,,,,,,,,,m,1,0.8094,,,,,,,,0,34,34,22,1
,,,,,,,,,,,,,,,,,6112dd8e4f8c8dd1b427088e,27,2022-02-12_17h57.52.282,lexical_decision_task_DD_L4,2021.2.3,Win32,61.67129201,,,,,,,,,,,0.5993,1,,,,,,,,,,,,,,,,,,,,,,,,-0.0525,-0.186,0,0,0,,,,,,,SLOPE,C,m,y,./images/SLOPE.png,,,,,,,,,,,,,,,,,,,,,m,1,0.5993,,,,,,,,0,35,35,30,1
,,,,,,,,,,,,,,,,,6112dd8e4f8c8dd1b427088e,27,2022-02-12_17h57.52.282,lexical_decision_task_DD_L4,2021.2.3,Win32,61.67129201,,,,,,,,,,,0.5267,0,,,,,,,,,,,,,,,,,,,,,,,,-0.0525,-0.186,0,0,0,,,,,,,COOKER,C,z,y,./images/COOKER.png,,,,,,,,,,,,,,,,,,,,,m,0,0.5267,,,,,,,,0,36,36,153,1
,,,,,,,,,,,,,,,,,6112dd8e4f8c8dd1b427088e,27,2022-02-12_17h57.52.282,lexical_decision_task_DD_L4,2021.2.3,Win32,61.67129201,,,,,,,,,,,0.8002,0,,,,,,,,,,,,,,,,,,,,,,,,-0.0525,-0.186,0,0,0,,,,,,,ENGINE,LB,m,y,./images/ENGINELB.png,,,,,,,,,,,,,,,,,,,,,z,0,0.8002,,,,,,,,0,37,37,38,1
,,,,,,,,,,,,,,,,,6112dd8e4f8c8dd1b427088e,27,2022-02-12_17h57.52.282,lexical_decision_task_DD_L4,2021.2.3,Win32,61.67129201,,,,,,,,,,,0.639,1,,,,,,,,,,,,,,,,,,,,,,,,-0.0525,-0.186,0,0,0,,,,,,,CEMENT,LB,z,y,./images/CEMENTLB.png,,,,,,,,,,,,,,,,,,,,,z,1,0.639,,,,,,,,0,38,38,158,1
,,,,,,,,,,,,,,,,,6112dd8e4f8c8dd1b427088e,27,2022-02-12_17h57.52.282,lexical_decision_task_DD_L4,2021.2.3,Win32,61.67129201,,,,,,,,,,,0.5987,0,,,,,,,,,,,,,,,,,,,,,,,,-0.0525,-0.186,0,0,0,,,,,,,FLESH,C,m,y,./images/FLESH.png,,,,,,,,,,,,,,,,,,,,,z,0,0.5987,,,,,,,,0,39,39,24,1
,,,,,,,,,,,,,,,,,6112dd8e4f8c8dd1b427088e,27,2022-02-12_17h57.52.282,lexical_decision_task_DD_L4,2021.2.3,Win32,61.67129201,,,,,,,,,,,1.2115,1,,,,,,,,,,,,,,,,,,,,,,,,-0.0525,-0.186,0,0,0,,,,,,,THROAT,C,z,y,./images/THROAT.png,,,,,,,,,,,,,,,,,,,,,z,1,1.2115,,,,,,,,0,40,40,120,1
,,,,,,,,,,,,,,,,,6112dd8e4f8c8dd1b427088e,27,2022-02-12_17h57.52.282,lexical_decision_task_DD_L4,2021.2.3,Win32,61.67129201,,,,,,,,,,,0.5389,1,,,,,,,,,,,,,,,,,,,,,,,,-0.0525,-0.186,0,0,0,space,,,,,,BUTTER,C,m,y,./images/BUTTER.png,1.2955,,,,,,,,,,,,,,,,,,,,m,1,0.5389,,,,,,,,0,41,41,27,1
,,,,,,,,,,,,,,,,,6112dd8e4f8c8dd1b427088e,27,2022-02-12_17h57.52.282,lexical_decision_task_DD_L4,2021.2.3,Win32,61.67129201,,,,,,,,,,,0.6415,1,,,,,,,,,,,,,,,,,,,,,,,,-0.0525,-0.186,0,0,0,,,,,,,RAZOR,HB,m,y,./images/RAZORHB.png,,,,,,,,,,,,,,,,,,,,,m,1,0.6415,,,,,,,,0,42,42,34,1
,,,,,,,,,,,,,,,,,6112dd8e4f8c8dd1b427088e,27,2022-02-12_17h57.52.282,lexical_decision_task_DD_L4,2021.2.3,Win32,61.67129201,,,,,,,,,,,0.6787,1,,,,,,,,,,,,,,,,,,,,,,,,-0.0525,-0.186,0,0,0,,,,,,,MONKEY,C,m,y,./images/MONKEY.png,,,,,,,,,,,,,,,,,,,,,m,1,0.6787,,,,,,,,0,43,43,45,1
,,,,,,,,,,,,,,,,,6112dd8e4f8c8dd1b427088e,27,2022-02-12_17h57.52.282,lexical_decision_task_DD_L4,2021.2.3,Win32,61.67129201,,,,,,,,,,,0.7033,1,,,,,,,,,,,,,,,,,,,,,,,,-0.0525,-0.186,0,0,0,,,,,,,CLIFF,LB,m,y,./images/CLIFFLB.png,,,,,,,,,,,,,,,,,,,,,m,1,0.7033,,,,,,,,0,44,44,8,1
,,,,,,,,,,,,,,,,,6112dd8e4f8c8dd1b427088e,27,2022-02-12_17h57.52.282,lexical_decision_task_DD_L4,2021.2.3,Win32,61.67129201,,,,,,,,,,,0.8496,0,,,,,,,,,,,,,,,,,,,,,,,,-0.0525,-0.186,0,0,0,,,,,,,CRATER,C,m,y,./images/CRATER.png,,,,,,,,,,,,,,,,,,,,,z,0,0.8496,,,,,,,,0,45,45,3,1
,,,,,,,,,,,,,,,,,6112dd8e4f8c8dd1b427088e,27,2022-02-12_17h57.52.282,lexical_decision_task_DD_L4,2021.2.3,Win32,61.67129201,,,,,,,,,,,0.7175,1,,,,,,,,,,,,,,,,,,,,,,,,-0.0525,-0.186,0,0,0,,,,,,,PURSE,LB,z,y,./images/PURSELB.png,,,,,,,,,,,,,,,,,,,,,z,1,0.7175,,,,,,,,0,46,46,146,1
,,,,,,,,,,,,,,,,,6112dd8e4f8c8dd1b427088e,27,2022-02-12_17h57.52.282,lexical_decision_task_DD_L4,2021.2.3,Win32,61.67129201,,,,,,,,,,,0.7359,0,,,,,,,,,,,,,,,,,,,,,,,,-0.0525,-0.186,0,0,0,,,,,,,SPINE,LB,m,y,./images/SPINELB.png,,,,,,,,,,,,,,,,,,,,,z,0,0.7359,,,,,,,,0,47,47,65,1
,,,,,,,,,,,,,,,,,6112dd8e4f8c8dd1b427088e,27,2022-02-12_17h57.52.282,lexical_decision_task_DD_L4,2021.2.3,Win32,61.67129201,,,,,,,,,,,0.617,1,,,,,,,,,,,,,,,,,,,,,,,,-0.0525,-0.186,0,0,0,,,,,,,DANCER,C,m,y,./images/DANCER.png,,,,,,,,,,,,,,,,,,,,,m,1,0.617,,,,,,,,0,48,48,21,1
,,,,,,,,,,,,,,,,,6112dd8e4f8c8dd1b427088e,27,2022-02-12_17h57.52.282,lexical_decision_task_DD_L4,2021.2.3,Win32,61.67129201,,,,,,,,,,,0.8182,1,,,,,,,,,,,,,,,,,,,,,,,,-0.0525,-0.186,0,0,0,,,,,,,COUCH,LB,z,y,./images/COUCHLB.png,,,,,,,,,,,,,,,,,,,,,z,1,0.8182,,,,,,,,0,49,49,161,1
,,,,,,,,,,,,,,,,,6112dd8e4f8c8dd1b427088e,27,2022-02-12_17h57.52.282,lexical_decision_task_DD_L4,2021.2.3,Win32,61.67129201,,,,,,,,,,,0.6165,1,,,,,,,,,,,,,,,,,,,,,,,,-0.0525,-0.186,0,0,0,,,,,,,MAGGOT,C,z,y,./images/MAGGOT.png,,,,,,,,,,,,,,,,,,,,,z,1,0.6165,,,,,,,,0,50,50,117,1
,,,,,,,,,,,,,,,,,6112dd8e4f8c8dd1b427088e,27,2022-02-12_17h57.52.282,lexical_decision_task_DD_L4,2021.2.3,Win32,61.67129201,,,,,,,,,,,0.6019,1,,,,,,,,,,,,,,,,,,,,,,,,-0.0525,-0.186,0,0,0,,,,,,,LIZARD,LB,z,y,./images/LIZARDLB.png,,,,,,,,,,,,,,,,,,,,,z,1,0.6019,,,,,,,,0,51,51,128,1
,,,,,,,,,,,,,,,,,6112dd8e4f8c8dd1b427088e,27,2022-02-12_17h57.52.282,lexical_decision_task_DD_L4,2021.2.3,Win32,61.67129201,,,,,,,,,,,1.3869,0,,,,,,,,,,,,,,,,,,,,,,,,-0.0525,-0.186,0,0,0,,,,,,,WHEEL,LB,m,y,./images/WHEELLB.png,,,,,,,,,,,,,,,,,,,,,z,0,1.3869,,,,,,,,0,52,52,77,1
,,,,,,,,,,,,,,,,,6112dd8e4f8c8dd1b427088e,27,2022-02-12_17h57.52.282,lexical_decision_task_DD_L4,2021.2.3,Win32,61.67129201,,,,,,,,,,,0.8305,1,,,,,,,,,,,,,,,,,,,,,,,,-0.0525,-0.186,0,0,0,,,,,,,MUSCLE,HB,z,y,./images/MUSCLEHB.png,,,,,,,,,,,,,,,,,,,,,z,1,0.8305,,,,,,,,0,53,53,88,1
,,,,,,,,,,,,,,,,,6112dd8e4f8c8dd1b427088e,27,2022-02-12_17h57.52.282,lexical_decision_task_DD_L4,2021.2.3,Win32,61.67129201,,,,,,,,,,,1.5719,1,,,,,,,,,,,,,,,,,,,,,,,,-0.0525,-0.186,0,0,0,,,,,,,POODLE,C,z,y,./images/POODLE.png,,,,,,,,,,,,,,,,,,,,,z,1,1.5719,,,,,,,,0,54,54,165,1
,,,,,,,,,,,,,,,,,6112dd8e4f8c8dd1b427088e,27,2022-02-12_17h57.52.282,lexical_decision_task_DD_L4,2021.2.3,Win32,61.67129201,,,,,,,,,,,0.9826,1,,,,,,,,,,,,,,,,,,,,,,,,-0.0525,-0.186,0,0,0,,,,,,,PARADE,LB,m,y,./images/PARADELB.png,,,,,,,,,,,,,,,,,,,,,m,1,0.9826,,,,,,,,0,55,55,17,1
,,,,,,,,,,,,,,,,,6112dd8e4f8c8dd1b427088e,27,2022-02-12_17h57.52.282,lexical_decision_task_DD_L4,2021.2.3,Win32,61.67129201,,,,,,,,,,,0.6446,1,,,,,,,,,,,,,,,,,,,,,,,,-0.0525,-0.186,0,0,0,,,,,,,BRUSH,LB,m,y,./images/BRUSHLB.png,,,,,,,,,,,,,,,,,,,,,m,1,0.6446,,,,,,,,0,56,56,59,1
,,,,,,,,,,,,,,,,,6112dd8e4f8c8dd1b427088e,27,2022-02-12_17h57.52.282,lexical_decision_task_DD_L4,2021.2.3,Win32,61.67129201,,,,,,,,,,,0.6598,1,,,,,,,,,,,,,,,,,,,,,,,,-0.0525,-0.186,0,0,0,,,,,,,PILOT,LB,m,y,./images/PILOTLB.png,,,,,,,,,,,,,,,,,,,,,m,1,0.6598,,,,,,,,0,57,57,50,1
,,,,,,,,,,,,,,,,,6112dd8e4f8c8dd1b427088e,27,2022-02-12_17h57.52.282,lexical_decision_task_DD_L4,2021.2.3,Win32,61.67129201,,,,,,,,,,,0.5985,1,,,,,,,,,,,,,,,,,,,,,,,,-0.0525,-0.186,0,0,0,,,,,,,CANDY,C,m,y,./images/CANDY.png,,,,,,,,,,,,,,,,,,,,,m,1,0.5985,,,,,,,,0,58,58,39,1
,,,,,,,,,,,,,,,,,6112dd8e4f8c8dd1b427088e,27,2022-02-12_17h57.52.282,lexical_decision_task_DD_L4,2021.2.3,Win32,61.67129201,,,,,,,,,,,0.9502,1,,,,,,,,,,,,,,,,,,,,,,,,-0.0525,-0.186,0,0,0,,,,,,,MAMMAL,LB,m,y,./images/MAMMALLB.png,,,,,,,,,,,,,,,,,,,,,m,1,0.9502,,,,,,,,0,59,59,62,1
,,,,,,,,,,,,,,,,,6112dd8e4f8c8dd1b427088e,27,2022-02-12_17h57.52.282,lexical_decision_task_DD_L4,2021.2.3,Win32,61.67129201,,,,,,,,,,,0.6915,1,,,,,,,,,,,,,,,,,,,,,,,,-0.0525,-0.186,0,0,0,,,,,,,RULER,HB,m,y,./images/RULERHB.png,,,,,,,,,,,,,,,,,,,,,m,1,0.6915,,,,,,,,0,60,60,79,1
,,,,,,,,,,,,,,,,,6112dd8e4f8c8dd1b427088e,27,2022-02-12_17h57.52.282,lexical_decision_task_DD_L4,2021.2.3,Win32,61.67129201,,,,,,,,,,,0.7249,1,,,,,,,,,,,,,,,,,,,,,,,,-0.0525,-0.186,0,0,0,,,,,,,PLANK,HB,z,y,./images/PLANKHB.png,,,,,,,,,,,,,,,,,,,,,z,1,0.7249,,,,,,,,0,61,61,85,1
,,,,,,,,,,,,,,,,,6112dd8e4f8c8dd1b427088e,27,2022-02-12_17h57.52.282,lexical_decision_task_DD_L4,2021.2.3,Win32,61.67129201,,,,,,,,,,,0.8025,0,,,,,,,,,,,,,,,,,,,,,,,,-0.0525,-0.186,0,0,0,,,,,,,SNAKE,HB,m,y,./images/SNAKEHB.png,,,,,,,,,,,,,,,,,,,,,z,0,0.8025,,,,,,,,0,62,62,40,1
,,,,,,,,,,,,,,,,,6112dd8e4f8c8dd1b427088e,27,2022-02-12_17h57.52.282,lexical_decision_task_DD_L4,2021.2.3,Win32,61.67129201,,,,,,,,,,,0.6254,1,,,,,,,,,,,,,,,,,,,,,,,,-0.0525,-0.186,0,0,0,,,,,,,CLOTH,LB,m,y,./images/CLOTHLB.png,,,,,,,,,,,,,,,,,,,,,m,1,0.6254,,,,,,,,0,63,63,23,1
,,,,,,,,,,,,,,,,,6112dd8e4f8c8dd1b427088e,27,2022-02-12_17h57.52.282,lexical_decision_task_DD_L4,2021.2.3,Win32,61.67129201,,,,,,,,,,,0.6731,1,,,,,,,,,,,,,,,,,,,,,,,,-0.0525,-0.186,0,0,0,,,,,,,CRUST,HB,z,y,./images/CRUSTHB.png,,,,,,,,,,,,,,,,,,,,,z,1,0.6731,,,,,,,,0,64,64,163,1
,,,,,,,,,,,,,,,,,6112dd8e4f8c8dd1b427088e,27,2022-02-12_17h57.52.282,lexical_decision_task_DD_L4,2021.2.3,Win32,61.67129201,,,,,,,,,,,0.7344,1,,,,,,,,,,,,,,,,,,,,,,,,-0.0525,-0.186,0,0,0,,,,,,,SPORT,C,z,y,./images/SPORT.png,,,,,,,,,,,,,,,,,,,,,z,1,0.7344,,,,,,,,0,65,65,132,1
,,,,,,,,,,,,,,,,,6112dd8e4f8c8dd1b427088e,27,2022-02-12_17h57.52.282,lexical_decision_task_DD_L4,2021.2.3,Win32,61.67129201,,,,,,,,,,,0.6362,1,,,,,,,,,,,,,,,,,,,,,,,,-0.0525,-0.186,0,0,0,,,,,,,URINE,HB,z,y,./images/URINEHB.png,,,,,,,,,,,,,,,,,,,,,z,1,0.6362,,,,,,,,0,66,66,154,1
,,,,,,,,,,,,,,,,,6112dd8e4f8c8dd1b427088e,27,2022-02-12_17h57.52.282,lexical_decision_task_DD_L4,2021.2.3,Win32,61.67129201,,,,,,,,,,,0.7409,1,,,,,,,,,,,,,,,,,,,,,,,,-0.0525,-0.186,0,0,0,,,,,,,TOMATO,C,z,y,./images/TOMATO.png,,,,,,,,,,,,,,,,,,,,,z,1,0.7409,,,,,,,,0,67,67,84,1
,,,,,,,,,,,,,,,,,6112dd8e4f8c8dd1b427088e,27,2022-02-12_17h57.52.282,lexical_decision_task_DD_L4,2021.2.3,Win32,61.67129201,,,,,,,,,,,0.8754,1,,,,,,,,,,,,,,,,,,,,,,,,-0.0525,-0.186,0,0,0,,,,,,,STREAM,LB,m,y,./images/STREAMLB.png,,,,,,,,,,,,,,,,,,,,,m,1,0.8754,,,,,,,,0,68,68,41,1
,,,,,,,,,,,,,,,,,6112dd8e4f8c8dd1b427088e,27,2022-02-12_17h57.52.282,lexical_decision_task_DD_L4,2021.2.3,Win32,61.67129201,,,,,,,,,,,0.7129,1,,,,,,,,,,,,,,,,,,,,,,,,-0.0525,-0.186,0,0,0,,,,,,,PASTA,LB,z,y,./images/PASTALB.png,,,,,,,,,,,,,,,,,,,,,z,1,0.7129,,,,,,,,0,69,69,89,1
,,,,,,,,,,,,,,,,,6112dd8e4f8c8dd1b427088e,27,2022-02-12_17h57.52.282,lexical_decision_task_DD_L4,2021.2.3,Win32,61.67129201,,,,,,,,,,,0.7603,1,,,,,,,,,,,,,,,,,,,,,,,,-0.0525,-0.186,0,0,0,,,,,,,STORM,C,z,y,./images/STORM.png,,,,,,,,,,,,,,,,,,,,,z,1,0.7603,,,,,,,,0,70,70,114,1
,,,,,,,,,,,,,,,,,6112dd8e4f8c8dd1b427088e,27,2022-02-12_17h57.52.282,lexical_decision_task_DD_L4,2021.2.3,Win32,61.67129201,,,,,,,,,,,0.7345,1,,,,,,,,,,,,,,,,,,,,,,,,-0.0525,-0.186,0,0,0,,,,,,,BANNER,HB,z,y,./images/BANNERHB.png,,,,,,,,,,,,,,,,,,,,,z,1,0.7345,,,,,,,,0,71,71,136,1
,,,,,,,,,,,,,,,,,6112dd8e4f8c8dd1b427088e,27,2022-02-12_17h57.52.282,lexical_decision_task_DD_L4,2021.2.3,Win32,61.67129201,,,,,,,,,,,0.7744,1,,,,,,,,,,,,,,,,,,,,,,,,-0.0525,-0.186,0,0,0,,,,,,,CRADLE,LB,z,y,./images/CRADLELB.png,,,,,,,,,,,,,,,,,,,,,z,1,0.7744,,,,,,,,0,72,72,104,1
,,,,,,,,,,,,,,,,,6112dd8e4f8c8dd1b427088e,27,2022-02-12_17h57.52.282,lexical_decision_task_DD_L4,2021.2.3,Win32,61.67129201,,,,,,,,,,,0.7336,1,,,,,,,,,,,,,,,,,,,,,,,,-0.0525,-0.186,0,0,0,,,,,,,SHELF,C,z,y,./images/SHELF.png,,,,,,,,,,,,,,,,,,,,,z,1,0.7336,,,,,,,,0,73,73,123,1
,,,,,,,,,,,,,,,,,6112dd8e4f8c8dd1b427088e,27,2022-02-12_17h57.52.282,lexical_decision_task_DD_L4,2021.2.3,Win32,61.67129201,,,,,,,,,,,0.6171,1,,,,,,,,,,,,,,,,,,,,,,,,-0.0525,-0.186,0,0,0,,,,,,,GRANNY,LB,m,y,./images/GRANNYLB.png,,,,,,,,,,,,,,,,,,,,,m,1,0.6171,,,,,,,,0,74,74,20,1
,,,,,,,,,,,,,,,,,6112dd8e4f8c8dd1b427088e,27,2022-02-12_17h57.52.282,lexical_decision_task_DD_L4,2021.2.3,Win32,61.67129201,,,,,,,,,,,0.641,0,,,,,,,,,,,,,,,,,,,,,,,,-0.0525,-0.186,0,0,0,,,,,,,GARDEN,HB,m,y,./images/GARDENHB.png,,,,,,,,,,,,,,,,,,,,,z,0,0.641,,,,,,,,0,75,75,10,1
,,,,,,,,,,,,,,,,,6112dd8e4f8c8dd1b427088e,27,2022-02-12_17h57.52.282,lexical_decision_task_DD_L4,2021.2.3,Win32,61.67129201,,,,,,,,,,,0.8838,1,,,,,,,,,,,,,,,,,,,,,,,,-0.0525,-0.186,0,0,0,,,,,,,ATTIC,C,z,y,./images/ATTIC.png,,,,,,,,,,,,,,,,,,,,,z,1,0.8838,,,,,,,,0,76,76,111,1
,,,,,,,,,,,,,,,,,6112dd8e4f8c8dd1b427088e,27,2022-02-12_17h57.52.282,lexical_decision_task_DD_L4,2021.2.3,Win32,61.67129201,,,,,,,,,,,0.696,0,,,,,,,,,,,,,,,,,,,,,,,,-0.0525,-0.186,0,0,0,,,,,,,BASKET,LB,m,y,./images/BASKETLB.png,,,,,,,,,,,,,,,,,,,,,z,0,0.696,,,,,,,,0,77,77,44,1
,,,,,,,,,,,,,,,,,6112dd8e4f8c8dd1b427088e,27,2022-02-12_17h57.52.282,lexical_decision_task_DD_L4,2021.2.3,Win32,61.67129201,,,,,,,,,,,0.6489,1,,,,,,,,,,,,,,,,,,,,,,,,-0.0525,-0.186,0,0,0,,,,,,,CARPET,LB,z,y,./images/CARPETLB.png,,,,,,,,,,,,,,,,,,,,,z,1,0.6489,,,,,,,,0,78,78,137,1
,,,,,,,,,,,,,,,,,6112dd8e4f8c8dd1b427088e,27,2022-02-12_17h57.52.282,lexical_decision_task_DD_L4,2021.2.3,Win32,61.67129201,,,,,,,,,,,0.6417,1,,,,,,,,,,,,,,,,,,,,,,,,-0.0525,-0.186,0,0,0,,,,,,,FLASK,C,m,y,./images/FLASK.png,,,,,,,,,,,,,,,,,,,,,m,1,0.6417,,,,,,,,0,79,79,72,1
,,,,,,,,,,,,,,,,,6112dd8e4f8c8dd1b427088e,27,2022-02-12_17h57.52.282,lexical_decision_task_DD_L4,2021.2.3,Win32,61.67129201,,,,,,,,,,,0.6786,1,,,,,,,,,,,,,,,,,,,,,,,,-0.0525,-0.186,0,0,0,,,,,,,GRAIN,C,z,y,./images/GRAIN.png,,,,,,,,,,,,,,,,,,,,,z,1,0.6786,,,,,,,,0,80,80,159,1
,,,,,,,,,,,,,,,,,6112dd8e4f8c8dd1b427088e,27,2022-02-12_17h57.52.282,lexical_decision_task_DD_L4,2021.2.3,Win32,61.67129201,,,,,,,,,,,0.6971,1,,,,,,,,,,,,,,,,,,,,,,,,-0.0525,-0.186,0,0,0,,,,,,,JAGUAR,C,z,y,./images/JAGUAR.png,,,,,,,,,,,,,,,,,,,,,z,1,0.6971,,,,,,,,0,81,81,102,1
,,,,,,,,,,,,,,,,,6112dd8e4f8c8dd1b427088e,27,2022-02-12_17h57.52.282,lexical_decision_task_DD_L4,2021.2.3,Win32,61.67129201,,,,,,,,,,,0.8505,0,,,,,,,,,,,,,,,,,,,,,,,,-0.0525,-0.186,0,0,0,,,,,,,BISHOP,HB,m,y,./images/BISHOPHB.png,,,,,,,,,,,,,,,,,,,,,z,0,0.8505,,,,,,,,0,82,82,49,1
,,,,,,,,,,,,,,,,,6112dd8e4f8c8dd1b427088e,27,2022-02-12_17h57.52.282,lexical_decision_task_DD_L4,2021.2.3,Win32,61.67129201,,,,,,,,,,,1.09,1,,,,,,,,,,,,,,,,,,,,,,,,-0.0525,-0.186,0,0,0,space,,,,,,FARMER,LB,z,y,./images/FARMERLB.png,25.2485,,,,,,,,,,,,,,,,,,,,z,1,1.09,,,,,,,,0,83,83,149,1
,,,,,,,,,,,,,,,,,6112dd8e4f8c8dd1b427088e,27,2022-02-12_17h57.52.282,lexical_decision_task_DD_L4,2021.2.3,Win32,61.67129201,,,,,,,,,,,0.8513,1,,,,,,,,,,,,,,,,,,,,,,,,-0.0525,-0.186,0,0,0,,,,,,,CRUMB,LB,z,y,./images/CRUMBLB.png,,,,,,,,,,,,,,,,,,,,,z,1,0.8513,,,,,,,,0,84,84,113,1
,,,,,,,,,,,,,,,,,6112dd8e4f8c8dd1b427088e,27,2022-02-12_17h57.52.282,lexical_decision_task_DD_L4,2021.2.3,Win32,61.67129201,,,,,,,,,,,0.6949,1,,,,,,,,,,,,,,,,,,,,,,,,-0.0525,-0.186,0,0,0,,,,,,,STRING,LB,z,y,./images/STRINGLB.png,,,,,,,,,,,,,,,,,,,,,z,1,0.6949,,,,,,,,0,85,85,125,1
,,,,,,,,,,,,,,,,,6112dd8e4f8c8dd1b427088e,27,2022-02-12_17h57.52.282,lexical_decision_task_DD_L4,2021.2.3,Win32,61.67129201,,,,,,,,,,,0.7018,1,,,,,,,,,,,,,,,,,,,,,,,,-0.0525,-0.186,0,0,0,,,,,,,HAMMER,C,m,y,./images/HAMMER.png,,,,,,,,,,,,,,,,,,,,,m,1,0.7018,,,,,,,,0,86,86,75,1
,,,,,,,,,,,,,,,,,6112dd8e4f8c8dd1b427088e,27,2022-02-12_17h57.52.282,lexical_decision_task_DD_L4,2021.2.3,Win32,61.67129201,,,,,,,,,,,0.8672,1,,,,,,,,,,,,,,,,,,,,,,,,-0.0525,-0.186,0,0,0,,,,,,,MIRROR,C,z,y,./images/MIRROR.png,,,,,,,,,,,,,,,,,,,,,z,1,0.8672,,,,,,,,0,87,87,147,1
,,,,,,,,,,,,,,,,,6112dd8e4f8c8dd1b427088e,27,2022-02-12_17h57.52.282,lexical_decision_task_DD_L4,2021.2.3,Win32,61.67129201,,,,,,,,,,,0.5875,1,,,,,,,,,,,,,,,,,,,,,,,,-0.0525,-0.186,0,0,0,,,,,,,MELON,HB,z,y,./images/MELONHB.png,,,,,,,,,,,,,,,,,,,,,z,1,0.5875,,,,,,,,0,88,88,106,1
,,,,,,,,,,,,,,,,,6112dd8e4f8c8dd1b427088e,27,2022-02-12_17h57.52.282,lexical_decision_task_DD_L4,2021.2.3,Win32,61.67129201,,,,,,,,,,,0.5672,1,,,,,,,,,,,,,,,,,,,,,,,,-0.0525,-0.186,0,0,0,,,,,,,WEASEL,LB,z,y,./images/WEASELLB.png,,,,,,,,,,,,,,,,,,,,,z,1,0.5672,,,,,,,,0,89,89,164,1
,,,,,,,,,,,,,,,,,6112dd8e4f8c8dd1b427088e,27,2022-02-12_17h57.52.282,lexical_decision_task_DD_L4,2021.2.3,Win32,61.67129201,,,,,,,,,,,0.831,1,,,,,,,,,,,,,,,,,,,,,,,,-0.0525,-0.186,0,0,0,,,,,,,COLLAR,C,m,y,./images/COLLAR.png,,,,,,,,,,,,,,,,,,,,,m,1,0.831,,,,,,,,0,90,90,15,1
,,,,,,,,,,,,,,,,,6112dd8e4f8c8dd1b427088e,27,2022-02-12_17h57.52.282,lexical_decision_task_DD_L4,2021.2.3,Win32,61.67129201,,,,,,,,,,,0.5445,1,,,,,,,,,,,,,,,,,,,,,,,,-0.0525,-0.186,0,0,0,,,,,,,SQUARE,C,z,y,./images/SQUARE.png,,,,,,,,,,,,,,,,,,,,,z,1,0.5445,,,,,,,,0,91,91,90,1
,,,,,,,,,,,,,,,,,6112dd8e4f8c8dd1b427088e,27,2022-02-12_17h57.52.282,lexical_decision_task_DD_L4,2021.2.3,Win32,61.67129201,,,,,,,,,,,0.7237,0,,,,,,,,,,,,,,,,,,,,,,,,-0.0525,-0.186,0,0,0,,,,,,,POSTER,LB,m,y,./images/POSTERLB.png,,,,,,,,,,,,,,,,,,,,,z,0,0.7237,,,,,,,,0,92,92,53,1
,,,,,,,,,,,,,,,,,6112dd8e4f8c8dd1b427088e,27,2022-02-12_17h57.52.282,lexical_decision_task_DD_L4,2021.2.3,Win32,61.67129201,,,,,,,,,,,0.8342,0,,,,,,,,,,,,,,,,,,,,,,,,-0.0525,-0.186,0,0,0,,,,,,,PARCEL,C,m,y,./images/PARCEL.png,,,,,,,,,,,,,,,,,,,,,z,0,0.8342,,,,,,,,0,93,93,18,1
,,,,,,,,,,,,,,,,,6112dd8e4f8c8dd1b427088e,27,2022-02-12_17h57.52.282,lexical_decision_task_DD_L4,2021.2.3,Win32,61.67129201,,,,,,,,,,,0.533,1,,,,,,,,,,,,,,,,,,,,,,,,-0.0525,-0.186,0,0,0,,,,,,,FENCE,LB,m,y,./images/FENCELB.png,,,,,,,,,,,,,,,,,,,,,m,1,0.533,,,,,,,,0,94,94,14,1
,,,,,,,,,,,,,,,,,6112dd8e4f8c8dd1b427088e,27,2022-02-12_17h57.52.282,lexical_decision_task_DD_L4,2021.2.3,Win32,61.67129201,,,,,,,,,,,0.6123,1,,,,,,,,,,,,,,,,,,,,,,,,-0.0525,-0.186,0,0,0,,,,,,,HOCKEY,LB,m,y,./images/HOCKEYLB.png,,,,,,,,,,,,,,,,,,,,,m,1,0.6123,,,,,,,,0,95,95,32,1
,,,,,,,,,,,,,,,,,6112dd8e4f8c8dd1b427088e,27,2022-02-12_17h57.52.282,lexical_decision_task_DD_L4,2021.2.3,Win32,61.67129201,,,,,,,,,,,0.7352,1,,,,,,,,,,,,,,,,,,,,,,,,-0.0525,-0.186,0,0,0,,,,,,,PICKLE,LB,z,y,./images/PICKLELB.png,,,,,,,,,,,,,,,,,,,,,z,1,0.7352,,,,,,,,0,96,96,98,1
,,,,,,,,,,,,,,,,,6112dd8e4f8c8dd1b427088e,27,2022-02-12_17h57.52.282,lexical_decision_task_DD_L4,2021.2.3,Win32,61.67129201,,,,,,,,,,,0.7627,1,,,,,,,,,,,,,,,,,,,,,,,,-0.0525,-0.186,0,0,0,,,,,,,DRUMS,HB,z,y,./images/DRUMSHB.png,,,,,,,,,,,,,,,,,,,,,z,1,0.7627,,,,,,,,0,97,97,133,1
,,,,,,,,,,,,,,,,,6112dd8e4f8c8dd1b427088e,27,2022-02-12_17h57.52.282,lexical_decision_task_DD_L4,2021.2.3,Win32,61.67129201,,,,,,,,,,,0.7193,0,,,,,,,,,,,,,,,,,,,,,,,,-0.0525,-0.186,0,0,0,,,,,,,STOVE,LB,m,y,./images/STOVELB.png,,,,,,,,,,,,,,,,,,,,,z,0,0.7193,,,,,,,,0,98,98,2,1
,,,,,,,,,,,,,,,,,6112dd8e4f8c8dd1b427088e,27,2022-02-12_17h57.52.282,lexical_decision_task_DD_L4,2021.2.3,Win32,61.67129201,,,,,,,,,,,0.7007,1,,,,,,,,,,,,,,,,,,,,,,,,-0.0525,-0.186,0,0,0,,,,,,,PACKET,LB,z,y,./images/PACKETLB.png,,,,,,,,,,,,,,,,,,,,,z,1,0.7007,,,,,,,,0,99,99,140,1
,,,,,,,,,,,,,,,,,6112dd8e4f8c8dd1b427088e,27,2022-02-12_17h57.52.282,lexical_decision_task_DD_L4,2021.2.3,Win32,61.67129201,,,,,,,,,,,0.6271,1,,,,,,,,,,,,,,,,,,,,,,,,-0.0525,-0.186,0,0,0,,,,,,,PAINT,HB,z,y,./images/PAINTHB.png,,,,,,,,,,,,,,,,,,,,,z,1,0.6271,,,,,,,,0,100,100,91,1
,,,,,,,,,,,,,,,,,6112dd8e4f8c8dd1b427088e,27,2022-02-12_17h57.52.282,lexical_decision_task_DD_L4,2021.2.3,Win32,61.67129201,,,,,,,,,,,0.5884,1,,,,,,,,,,,,,,,,,,,,,,,,-0.0525,-0.186,0,0,0,,,,,,,TRIPOD,C,z,y,./images/TRIPOD.png,,,,,,,,,,,,,,,,,,,,,z,1,0.5884,,,,,,,,0,101,101,138,1
,,,,,,,,,,,,,,,,,6112dd8e4f8c8dd1b427088e,27,2022-02-12_17h57.52.282,lexical_decision_task_DD_L4,2021.2.3,Win32,61.67129201,,,,,,,,,,,0.6643,1,,,,,,,,,,,,,,,,,,,,,,,,-0.0525,-0.186,0,0,0,,,,,,,INFANT,HB,z,y,./images/INFANTHB.png,,,,,,,,,,,,,,,,,,,,,z,1,0.6643,,,,,,,,0,102,102,160,1
,,,,,,,,,,,,,,,,,6112dd8e4f8c8dd1b427088e,27,2022-02-12_17h57.52.282,lexical_decision_task_DD_L4,2021.2.3,Win32,61.67129201,,,,,,,,,,,0.9489,1,,,,,,,,,,,,,,,,,,,,,,,,-0.0525,-0.186,0,0,0,,,,,,,BAKER,C,m,y,./images/BAKER.png,,,,,,,,,,,,,,,,,,,,,m,1,0.9489,,,,,,,,0,103,103,63,1
,,,,,,,,,,,,,,,,,6112dd8e4f8c8dd1b427088e,27,2022-02-12_17h57.52.282,lexical_decision_task_DD_L4,2021.2.3,Win32,61.67129201,,,,,,,,,,,0.7772,1,,,,,,,,,,,,,,,,,,,,,,,,-0.0525,-0.186,0,0,0,,,,,,,DONKEY,HB,m,y,./images/DONKEYHB.png,,,,,,,,,,,,,,,,,,,,,m,1,0.7772,,,,,,,,0,104,104,19,1
,,,,,,,,,,,,,,,,,6112dd8e4f8c8dd1b427088e,27,2022-02-12_17h57.52.282,lexical_decision_task_DD_L4,2021.2.3,Win32,61.67129201,,,,,,,,,,,0.6033,1,,,,,,,,,,,,,,,,,,,,,,,,-0.0525,-0.186,0,0,0,,,,,,,MIDGET,HB,m,y,./images/MIDGETHB.png,,,,,,,,,,,,,,,,,,,,,m,1,0.6033,,,,,,,,0,105,105,76,1
,,,,,,,,,,,,,,,,,6112dd8e4f8c8dd1b427088e,27,2022-02-12_17h57.52.282,lexical_decision_task_DD_L4,2021.2.3,Win32,61.67129201,,,,,,,,,,,0.6769,0,,,,,,,,,,,,,,,,,,,,,,,,-0.0525,-0.186,0,0,0,,,,,,,ARROW,C,m,y,./images/ARROW.png,,,,,,,,,,,,,,,,,,,,,z,0,0.6769,,,,,,,,0,106,106,69,1
,,,,,,,,,,,,,,,,,6112dd8e4f8c8dd1b427088e,27,2022-02-12_17h57.52.282,lexical_decision_task_DD_L4,2021.2.3,Win32,61.67129201,,,,,,,,,,,0.9018,0,,,,,,,,,,,,,,,,,,,,,,,,-0.0525,-0.186,0,0,0,,,,,,,BAMBOO,LB,m,y,./images/BAMBOOLB.png,,,,,,,,,,,,,,,,,,,,,z,0,0.9018,,,,,,,,0,107,107,5,1
,,,,,,,,,,,,,,,,,6112dd8e4f8c8dd1b427088e,27,2022-02-12_17h57.52.282,lexical_decision_task_DD_L4,2021.2.3,Win32,61.67129201,,,,,,,,,,,0.6808,0,,,,,,,,,,,,,,,,,,,,,,,,-0.0525,-0.186,0,0,0,,,,,,,TOWEL,HB,m,y,./images/TOWELHB.png,,,,,,,,,,,,,,,,,,,,,z,0,0.6808,,,,,,,,0,108,108,1,1
,,,,,,,,,,,,,,,,,6112dd8e4f8c8dd1b427088e,27,2022-02-12_17h57.52.282,lexical_decision_task_DD_L4,2021.2.3,Win32,61.67129201,,,,,,,,,,,1.4834,1,,,,,,,,,,,,,,,,,,,,,,,,-0.0525,-0.186,0,0,0,,,,,,,SHORE,C,z,y,./images/SHORE.png,,,,,,,,,,,,,,,,,,,,,z,1,1.4834,,,,,,,,0,109,109,96,1
,,,,,,,,,,,,,,,,,6112dd8e4f8c8dd1b427088e,27,2022-02-12_17h57.52.282,lexical_decision_task_DD_L4,2021.2.3,Win32,61.67129201,,,,,,,,,,,0.6015,1,,,,,,,,,,,,,,,,,,,,,,,,-0.0525,-0.186,0,0,0,,,,,,,GREASE,C,z,y,./images/GREASE.png,,,,,,,,,,,,,,,,,,,,,z,1,0.6015,,,,,,,,0,110,110,99,1
,,,,,,,,,,,,,,,,,6112dd8e4f8c8dd1b427088e,27,2022-02-12_17h57.52.282,lexical_decision_task_DD_L4,2021.2.3,Win32,61.67129201,,,,,,,,,,,0.5693,0,,,,,,,,,,,,,,,,,,,,,,,,-0.0525,-0.186,0,0,0,,,,,,,VALLEY,LB,m,y,./images/VALLEYLB.png,,,,,,,,,,,,,,,,,,,,,z,0,0.5693,,,,,,,,0,111,111,68,1
,,,,,,,,,,,,,,,,,6112dd8e4f8c8dd1b427088e,27,2022-02-12_17h57.52.282,lexical_decision_task_DD_L4,2021.2.3,Win32,61.67129201,,,,,,,,,,,0.6406,1,,,,,,,,,,,,,,,,,,,,,,,,-0.0525,-0.186,0,0,0,,,,,,,BOXER,HB,m,y,./images/BOXERHB.png,,,,,,,,,,,,,,,,,,,,,m,1,0.6406,,,,,,,,0,112,112,4,1
,,,,,,,,,,,,,,,,,6112dd8e4f8c8dd1b427088e,27,2022-02-12_17h57.52.282,lexical_decision_task_DD_L4,2021.2.3,Win32,61.67129201,,,,,,,,,,,0.7083,1,,,,,,,,,,,,,,,,,,,,,,,,-0.0525,-0.186,0,0,0,,,,,,,SMOKER,LB,z,y,./images/SMOKERLB.png,,,,,,,,,,,,,,,,,,,,,z,1,0.7083,,,,,,,,0,113,113,110,1
,,,,,,,,,,,,,,,,,6112dd8e4f8c8dd1b427088e,27,2022-02-12_17h57.52.282,lexical_decision_task_DD_L4,2021.2.3,Win32,61.67129201,,,,,,,,,,,0.5654,1,,,,,,,,,,,,,,,,,,,,,,,,-0.0525,-0.186,0,0,0,,,,,,,TORCH,LB,z,y,./images/TORCHLB.png,,,,,,,,,,,,,,,,,,,,,z,1,0.5654,,,,,,,,0,114,114,152,1
,,,,,,,,,,,,,,,,,6112dd8e4f8c8dd1b427088e,27,2022-02-12_17h57.52.282,lexical_decision_task_DD_L4,2021.2.3,Win32,61.67129201,,,,,,,,,,,0.7002,0,,,,,,,,,,,,,,,,,,,,,,,,-0.0525,-0.186,0,0,0,,,,,,,STEAK,HB,m,y,./images/STEAKHB.png,,,,,,,,,,,,,,,,,,,,,z,0,0.7002,,,,,,,,0,115,115,31,1
,,,,,,,,,,,,,,,,,6112dd8e4f8c8dd1b427088e,27,2022-02-12_17h57.52.282,lexical_decision_task_DD_L4,2021.2.3,Win32,61.67129201,,,,,,,,,,,0.952,1,,,,,,,,,,,,,,,,,,,,,,,,-0.0525,-0.186,0,0,0,,,,,,,LITTER,C,z,y,./images/LITTER.png,,,,,,,,,,,,,,,,,,,,,z,1,0.952,,,,,,,,0,116,116,162,1
,,,,,,,,,,,,,,,,,6112dd8e4f8c8dd1b427088e,27,2022-02-12_17h57.52.282,lexical_decision_task_DD_L4,2021.2.3,Win32,61.67129201,,,,,,,,,,,0.9061,1,,,,,,,,,,,,,,,,,,,,,,,,-0.0525,-0.186,0,0,0,,,,,,,SAILOR,HB,z,y,./images/SAILORHB.png,,,,,,,,,,,,,,,,,,,,,z,1,0.9061,,,,,,,,0,117,117,151,1
,,,,,,,,,,,,,,,,,6112dd8e4f8c8dd1b427088e,27,2022-02-12_17h57.52.282,lexical_decision_task_DD_L4,2021.2.3,Win32,61.67129201,,,,,,,,,,,1.054,1,,,,,,,,,,,,,,,,,,,,,,,,-0.0525,-0.186,0,0,0,,,,,,,STOOL,HB,m,y,./images/STOOLHB.png,,,,,,,,,,,,,,,,,,,,,m,1,1.054,,,,,,,,0,118,118,43,1
,,,,,,,,,,,,,,,,,6112dd8e4f8c8dd1b427088e,27,2022-02-12_17h57.52.282,lexical_decision_task_DD_L4,2021.2.3,Win32,61.67129201,,,,,,,,,,,0.802,1,,,,,,,,,,,,,,,,,,,,,,,,-0.0525,-0.186,0,0,0,,,,,,,BONNET,LB,z,y,./images/BONNETLB.png,,,,,,,,,,,,,,,,,,,,,z,1,0.802,,,,,,,,0,119,119,95,1
,,,,,,,,,,,,,,,,,6112dd8e4f8c8dd1b427088e,27,2022-02-12_17h57.52.282,lexical_decision_task_DD_L4,2021.2.3,Win32,61.67129201,,,,,,,,,,,0.6643,1,,,,,,,,,,,,,,,,,,,,,,,,-0.0525,-0.186,0,0,0,,,,,,,MUFFIN,HB,z,y,./images/MUFFINHB.png,,,,,,,,,,,,,,,,,,,,,z,1,0.6643,,,,,,,,0,120,120,139,1
,,,,,,,,,,,,,,,,,6112dd8e4f8c8dd1b427088e,27,2022-02-12_17h57.52.282,lexical_decision_task_DD_L4,2021.2.3,Win32,61.67129201,,,,,,,,,,,0.6804,1,,,,,,,,,,,,,,,,,,,,,,,,-0.0525,-0.186,0,0,0,,,,,,,BURIAL,LB,z,y,./images/BURIALLB.png,,,,,,,,,,,,,,,,,,,,,z,1,0.6804,,,,,,,,0,121,121,143,1
,,,,,,,,,,,,,,,,,6112dd8e4f8c8dd1b427088e,27,2022-02-12_17h57.52.282,lexical_decision_task_DD_L4,2021.2.3,Win32,61.67129201,,,,,,,,,,,0.639,1,,,,,,,,,,,,,,,,,,,,,,,,-0.0525,-0.186,0,0,0,,,,,,,BELLY,HB,z,y,./images/BELLYHB.png,,,,,,,,,,,,,,,,,,,,,z,1,0.639,,,,,,,,0,122,122,94,1
,,,,,,,,,,,,,,,,,6112dd8e4f8c8dd1b427088e,27,2022-02-12_17h57.52.282,lexical_decision_task_DD_L4,2021.2.3,Win32,61.67129201,,,,,,,,,,,0.7132,0,,,,,,,,,,,,,,,,,,,,,,,,-0.0525,-0.186,0,0,0,,,,,,,HEATER,LB,m,y,./images/HEATERLB.png,,,,,,,,,,,,,,,,,,,,,z,0,0.7132,,,,,,,,0,123,123,56,1
,,,,,,,,,,,,,,,,,6112dd8e4f8c8dd1b427088e,27,2022-02-12_17h57.52.282,lexical_decision_task_DD_L4,2021.2.3,Win32,61.67129201,,,,,,,,,,,1.3987,1,,,,,,,,,,,,,,,,,,,,,,,,-0.0525,-0.186,0,0,0,,,,,,,MOTOR,HB,z,y,./images/MOTORHB.png,,,,,,,,,,,,,,,,,,,,,z,1,1.3987,,,,,,,,0,124,124,97,1
,,,,,,,,,,,,,,,,,6112dd8e4f8c8dd1b427088e,27,2022-02-12_17h57.52.282,lexical_decision_task_DD_L4,2021.2.3,Win32,61.67129201,,,,,,,,,,,1.0967,1,,,,,,,,,,,,,,,,,,,,,,,,-0.0525,-0.186,0,0,0,space,,,,,,JUNGLE,LB,z,y,./images/JUNGLELB.png,18.5691,,,,,,,,,,,,,,,,,,,,z,1,1.0967,,,,,,,,0,125,125,167,1
,,,,,,,,,,,,,,,,,6112dd8e4f8c8dd1b427088e,27,2022-02-12_17h57.52.282,lexical_decision_task_DD_L4,2021.2.3,Win32,61.67129201,,,,,,,,,,,0.8356,1,,,,,,,,,,,,,,,,,,,,,,,,-0.0525,-0.186,0,0,0,,,,,,,LADDER,LB,z,y,./images/LADDERLB.png,,,,,,,,,,,,,,,,,,,,,z,1,0.8356,,,,,,,,0,126,126,122,1
,,,,,,,,,,,,,,,,,6112dd8e4f8c8dd1b427088e,27,2022-02-12_17h57.52.282,lexical_decision_task_DD_L4,2021.2.3,Win32,61.67129201,,,,,,,,,,,0.845,1,,,,,,,,,,,,,,,,,,,,,,,,-0.0525,-0.186,0,0,0,,,,,,,SNACK,HB,z,y,./images/SNACKHB.png,,,,,,,,,,,,,,,,,,,,,z,1,0.845,,,,,,,,0,127,127,157,1
,,,,,,,,,,,,,,,,,6112dd8e4f8c8dd1b427088e,27,2022-02-12_17h57.52.282,lexical_decision_task_DD_L4,2021.2.3,Win32,61.67129201,,,,,,,,,,,1.0452,0,,,,,,,,,,,,,,,,,,,,,,,,-0.0525,-0.186,0,0,0,,,,,,,DESERT,HB,m,y,./images/DESERTHB.png,,,,,,,,,,,,,,,,,,,,,z,0,1.0452,,,,,,,,0,128,128,52,1
,,,,,,,,,,,,,,,,,6112dd8e4f8c8dd1b427088e,27,2022-02-12_17h57.52.282,lexical_decision_task_DD_L4,2021.2.3,Win32,61.67129201,,,,,,,,,,,0.6278,0,,,,,,,,,,,,,,,,,,,,,,,,-0.0525,-0.186,0,0,0,,,,,,,STATUE,C,m,y,./images/STATUE.png,,,,,,,,,,,,,,,,,,,,,z,0,0.6278,,,,,,,,0,129,129,66,1
,,,,,,,,,,,,,,,,,6112dd8e4f8c8dd1b427088e,27,2022-02-12_17h57.52.282,lexical_decision_task_DD_L4,2021.2.3,Win32,61.67129201,,,,,,,,,,,0.6852,0,,,,,,,,,,,,,,,,,,,,,,,,-0.0525,-0.186,0,0,0,,,,,,,DIVER,C,m,y,./images/DIVER.png,,,,,,,,,,,,,,,,,,,,,z,0,0.6852,,,,,,,,0,130,130,9,1
,,,,,,,,,,,,,,,,,6112dd8e4f8c8dd1b427088e,27,2022-02-12_17h57.52.282,lexical_decision_task_DD_L4,2021.2.3,Win32,61.67129201,,,,,,,,,,,0.9514,1,,,,,,,,,,,,,,,,,,,,,,,,-0.0525,-0.186,0,0,0,,,,,,,FERRY,C,m,y,./images/FERRY.png,,,,,,,,,,,,,,,,,,,,,m,1,0.9514,,,,,,,,0,131,131,57,1
,,,,,,,,,,,,,,,,,6112dd8e4f8c8dd1b427088e,27,2022-02-12_17h57.52.282,lexical_decision_task_DD_L4,2021.2.3,Win32,61.67129201,,,,,,,,,,,1.0781,0,,,,,,,,,,,,,,,,,,,,,,,,-0.0525,-0.186,0,0,0,,,,,,,STAIN,C,m,y,./images/STAIN.png,,,,,,,,,,,,,,,,,,,,,z,0,1.0781,,,,,,,,0,132,132,6,1
,,,,,,,,,,,,,,,,,6112dd8e4f8c8dd1b427088e,27,2022-02-12_17h57.52.282,lexical_decision_task_DD_L4,2021.2.3,Win32,61.67129201,,,,,,,,,,,0.6768,1,,,,,,,,,,,,,,,,,,,,,,,,-0.0525,-0.186,0,0,0,,,,,,,SCREW,C,z,y,./images/SCREW.png,,,,,,,,,,,,,,,,,,,,,z,1,0.6768,,,,,,,,0,133,133,108,1
,,,,,,,,,,,,,,,,,6112dd8e4f8c8dd1b427088e,27,2022-02-12_17h57.52.282,lexical_decision_task_DD_L4,2021.2.3,Win32,61.67129201,,,,,,,,,,,0.634,1,,,,,,,,,,,,,,,,,,,,,,,,-0.0525,-0.186,0,0,0,,,,,,,TULIP,LB,z,y,./images/TULIPLB.png,,,,,,,,,,,,,,,,,,,,,z,1,0.634,,,,,,,,0,134,134,92,1
,,,,,,,,,,,,,,,,,6112dd8e4f8c8dd1b427088e,27,2022-02-12_17h57.52.282,lexical_decision_task_DD_L4,2021.2.3,Win32,61.67129201,,,,,,,,,,,0.8379,0,,,,,,,,,,,,,,,,,,,,,,,,-0.0525,-0.186,0,0,0,,,,,,,BLOKE,C,m,y,./images/BLOKE.png,,,,,,,,,,,,,,,,,,,,,z,0,0.8379,,,,,,,,0,135,135,12,1
,,,,,,,,,,,,,,,,,6112dd8e4f8c8dd1b427088e,27,2022-02-12_17h57.52.282,lexical_decision_task_DD_L4,2021.2.3,Win32,61.67129201,,,,,,,,,,,0.9956,0,,,,,,,,,,,,,,,,,,,,,,,,-0.0525,-0.186,0,0,0,,,,,,,BUBBLE,LB,m,y,./images/BUBBLELB.png,,,,,,,,,,,,,,,,,,,,,z,0,0.9956,,,,,,,,0,136,136,71,1
,,,,,,,,,,,,,,,,,6112dd8e4f8c8dd1b427088e,27,2022-02-12_17h57.52.282,lexical_decision_task_DD_L4,2021.2.3,Win32,61.67129201,,,,,,,,,,,0.7184,1,,,,,,,,,,,,,,,,,,,,,,,,-0.0525,-0.186,0,0,0,,,,,,,POKER,HB,m,y,./images/POKERHB.png,,,,,,,,,,,,,,,,,,,,,m,1,0.7184,,,,,,,,0,137,137,67,1
,,,,,,,,,,,,,,,,,6112dd8e4f8c8dd1b427088e,27,2022-02-12_17h57.52.282,lexical_decision_task_DD_L4,2021.2.3,Win32,61.67129201,,,,,,,,,,,0.6804,0,,,,,,,,,,,,,,,,,,,,,,,,-0.0525,-0.186,0,0,0,,,,,,,WHISKY,LB,m,y,./images/WHISKYLB.png,,,,,,,,,,,,,,,,,,,,,z,0,0.6804,,,,,,,,0,138,138,83,1
,,,,,,,,,,,,,,,,,6112dd8e4f8c8dd1b427088e,27,2022-02-12_17h57.52.282,lexical_decision_task_DD_L4,2021.2.3,Win32,61.67129201,,,,,,,,,,,0.6529,1,,,,,,,,,,,,,,,,,,,,,,,,-0.0525,-0.186,0,0,0,,,,,,,WALRUS,LB,z,y,./images/WALRUSLB.png,,,,,,,,,,,,,,,,,,,,,z,1,0.6529,,,,,,,,0,139,139,107,1
,,,,,,,,,,,,,,,,,6112dd8e4f8c8dd1b427088e,27,2022-02-12_17h57.52.282,lexical_decision_task_DD_L4,2021.2.3,Win32,61.67129201,,,,,,,,,,,1.0563,1,,,,,,,,,,,,,,,,,,,,,,,,-0.0525,-0.186,0,0,0,,,,,,,PEARL,HB,z,y,./images/PEARLHB.png,,,,,,,,,,,,,,,,,,,,,z,1,1.0563,,,,,,,,0,140,140,130,1
,,,,,,,,,,,,,,,,,6112dd8e4f8c8dd1b427088e,27,2022-02-12_17h57.52.282,lexical_decision_task_DD_L4,2021.2.3,Win32,61.67129201,,,,,,,,,,,0.8928,1,,,,,,,,,,,,,,,,,,,,,,,,-0.0525,-0.186,0,0,0,,,,,,,BEARD,LB,z,y,./images/BEARDLB.png,,,,,,,,,,,,,,,,,,,,,z,1,0.8928,,,,,,,,0,141,141,86,1
,,,,,,,,,,,,,,,,,6112dd8e4f8c8dd1b427088e,27,2022-02-12_17h57.52.282,lexical_decision_task_DD_L4,2021.2.3,Win32,61.67129201,,,,,,,,,,,1.063,1,,,,,,,,,,,,,,,,,,,,,,,,-0.0525,-0.186,0,0,0,,,,,,,PEBBLE,HB,m,y,./images/PEBBLEHB.png,,,,,,,,,,,,,,,,,,,,,m,1,1.063,,,,,,,,0,142,142,82,1
