key_resp.keys,instr_done_touch.x,instr_done_touch.y,instr_done_touch.leftButton,instr_done_touch.midButton,instr_done_touch.rightButton,instr_done_touch.clicked_name,instruction_pages.thisRepN,instruction_pages.thisTrialN,instruction_pages.thisN,instruction_pages.thisIndex,instruction_pages.ran,pageN,phase,instruct_text,has_image,instruct_image,participant,age,date,expName,psychopyVersion,OS,frameRate,response.keys,response.corr,touch_resp.x,touch_resp.y,touch_resp.leftButton,touch_resp.midButton,touch_resp.rightButton,touch_resp.time,touch_resp.clicked_name,rt,corr,practrials.thisRepN,practrials.thisTrialN,practrials.thisN,practrials.thisIndex,practrials.ran,TrialID,Target,corrAns,end_of_practice_trials_pages.thisRepN,end_of_practice_trials_pages.thisTrialN,end_of_practice_trials_pages.thisN,end_of_practice_trials_pages.thisIndex,end_of_practice_trials_pages.ran,key_resp_2.keys,key_resp_2.corr,targ_click.x,targ_click.y,targ_click.leftButton,targ_click.midButton,targ_click.rightButton,targ_click.time,targ_click.clicked_name,break_done_touch.x,break_done_touch.y,break_done_touch.leftButton,break_done_touch.midButton,break_done_touch.rightButton,break_done_keyboard.keys,maintrials.thisRepN,maintrials.thisTrialN,maintrials.thisN,maintrials.thisIndex,maintrials.ran,string,blur,study,lex,stim_path,break_done_touch.clicked_name,mouse_2.x,mouse_2.y,mouse_2.leftButton,mouse_2.midButton,mouse_2.rightButton,mouse_2.clicked_name,slider.response,slider.rt,trials.thisRepN,trials.thisTrialN,trials.thisN,trials.thisIndex,trials.ran,test_instructions.thisRepN,test_instructions.thisTrialN,test_instructions.thisN,test_instructions.thisIndex,test_instructions.ran,key_resp_3.keys,key_resp_3.corr,test_click.x,test_click.y,test_click.leftButton,test_click.midButton,test_click.rightButton,test_click.time,test_click.clicked_name,test_phase.thisRepN,test_phase.thisTrialN,test_phase.thisN,test_phase.thisIndex,test_phase.ran
,0.141836735,-0.367857143,1,0,0,instr_done_button,0,0,0,0,1,1,instructions,"INSTRUCTIONS
At the start of each trial, look at the plus sign  (+) in the center of the screen.  This tells you that a trial is about to begin and where to look. Second, the plus sign will disappear and a string of letters will appear. Your task is to determine if the string of letters is a word or not. If the item is a word press the M key (on keyboard)  or touch the word button (phone/tablet).  If the item is not a word,  press the  Z key (on keyboard)  or touch the nonword button (on phone/tablet). 
Press the space bar or touch  continue.",0,,611334fbb359c699d561b029,18,2022-02-12_16h58.40.956,lexical_decision_task_DD,2021.2.3,iPhone,30.3030303,,,,,,,,,,,,,,,,,,,,,,,,,,,,,,,,,,,,,,,,,,,,,,,,,,,,,,,,,,,,,,,,,,,,,,,,,,,,,,,,,,
,0.142857143,-0.391326531,1,0,0,instr_done_button,0,1,1,1,1,2,instructions,"If your device has a keyboard, press the 'Z' key for nonwords and the 'M' key for words.





Press the space bar or touch the button below to continue.",0,keyboard-example.gif,611334fbb359c699d561b029,18,2022-02-12_16h58.40.956,lexical_decision_task_DD,2021.2.3,iPhone,30.3030303,,,,,,,,,,,,,,,,,,,,,,,,,,,,,,,,,,,,,,,,,,,,,,,,,,,,,,,,,,,,,,,,,,,,,,,,,,,,,,,,,,
,0.140816327,-0.380102041,1,0,0,instr_done_button,0,2,2,2,1,3,instructions,"If you are using a touchscreen only device, use the buttons on the screen. Do not use the mouse.





Press the space bar or touch the button below to continue.",0,touchscreen-example.gif,611334fbb359c699d561b029,18,2022-02-12_16h58.40.956,lexical_decision_task_DD,2021.2.3,iPhone,30.3030303,,,,,,,,,,,,,,,,,,,,,,,,,,,,,,,,,,,,,,,,,,,,,,,,,,,,,,,,,,,,,,,,,,,,,,,,,,,,,,,,,,
,0.103061224,-0.370918367,1,0,0,instr_done_button,0,3,3,3,1,4,instructions,"It is very important that you respond as quickly and accurately as possible, as each letter string will only be on the screen for two seconds. If you do not respond within this time, the message 'Too slow!' will be displayed and the experiment will progress to the next letter string. The first 20 trials will be practice trials and you will receive feedback on your answers. 

Press the space bar or touch the button below to start the practice trials.",0,,611334fbb359c699d561b029,18,2022-02-12_16h58.40.956,lexical_decision_task_DD,2021.2.3,iPhone,30.3030303,,,,,,,,,,,,,,,,,,,,,,,,,,,,,,,,,,,,,,,,,,,,,,,,,,,,,,,,,,,,,,,,,,,,,,,,,,,,,,,,,,
,,,,,,,,,,,,,,,,,611334fbb359c699d561b029,18,2022-02-12_16h58.40.956,lexical_decision_task_DD,2021.2.3,iPhone,30.3030303,,0,-0.32755102,-0.29744898,1,0,0,1.228,button_left,1.228,1,0,0,0,11,1,1001,RASHET,z,,,,,,,,,,,,,,,,,,,,,,,,,,,,,,,,,,,,,,,,,,,,,,,,,,,,,,,,,,,,,,,
,,,,,,,,,,,,,,,,,611334fbb359c699d561b029,18,2022-02-12_16h58.40.956,lexical_decision_task_DD,2021.2.3,iPhone,30.3030303,,0,0.301020408,-0.296428571,1,0,0,0.895,button_right,0.895,1,0,1,1,7,1,1001,VOLUME,m,,,,,,,,,,,,,,,,,,,,,,,,,,,,,,,,,,,,,,,,,,,,,,,,,,,,,,,,,,,,,,,
,,,,,,,,,,,,,,,,,611334fbb359c699d561b029,18,2022-02-12_16h58.40.956,lexical_decision_task_DD,2021.2.3,iPhone,30.3030303,,0,-0.305102041,-0.267857143,1,0,0,0.932,button_left,0.932,1,0,2,2,15,1,1001,WHAISE,z,,,,,,,,,,,,,,,,,,,,,,,,,,,,,,,,,,,,,,,,,,,,,,,,,,,,,,,,,,,,,,,
,,,,,,,,,,,,,,,,,611334fbb359c699d561b029,18,2022-02-12_16h58.40.956,lexical_decision_task_DD,2021.2.3,iPhone,30.3030303,,0,0.33877551,-0.305612245,1,0,0,0.862,button_right,0.862,1,0,3,3,2,1,1001,ALMOND,m,,,,,,,,,,,,,,,,,,,,,,,,,,,,,,,,,,,,,,,,,,,,,,,,,,,,,,,,,,,,,,,
,,,,,,,,,,,,,,,,,611334fbb359c699d561b029,18,2022-02-12_16h58.40.956,lexical_decision_task_DD,2021.2.3,iPhone,30.3030303,,0,-0.284693878,-0.285204082,1,0,0,0.829,button_left,0.829,1,0,4,4,14,1,1001,THRALE,z,,,,,,,,,,,,,,,,,,,,,,,,,,,,,,,,,,,,,,,,,,,,,,,,,,,,,,,,,,,,,,,
,,,,,,,,,,,,,,,,,611334fbb359c699d561b029,18,2022-02-12_16h58.40.956,lexical_decision_task_DD,2021.2.3,iPhone,30.3030303,,0,0.339795918,-0.295408163,1,0,0,0.862,button_right,0.862,1,0,5,5,0,1,1001,UTOPIA,m,,,,,,,,,,,,,,,,,,,,,,,,,,,,,,,,,,,,,,,,,,,,,,,,,,,,,,,,,,,,,,,
,,,,,,,,,,,,,,,,,611334fbb359c699d561b029,18,2022-02-12_16h58.40.956,lexical_decision_task_DD,2021.2.3,iPhone,30.3030303,,0,-0.279591837,-0.259693878,1,0,0,0.893,button_left,0.893,1,0,6,6,12,1,1001,SPRINY,z,,,,,,,,,,,,,,,,,,,,,,,,,,,,,,,,,,,,,,,,,,,,,,,,,,,,,,,,,,,,,,,
,,,,,,,,,,,,,,,,,611334fbb359c699d561b029,18,2022-02-12_16h58.40.956,lexical_decision_task_DD,2021.2.3,iPhone,30.3030303,,0,-0.293877551,-0.290306122,1,0,0,0.929,button_left,0.929,1,0,7,7,9,1,1001,FARINY,z,,,,,,,,,,,,,,,,,,,,,,,,,,,,,,,,,,,,,,,,,,,,,,,,,,,,,,,,,,,,,,,
,,,,,,,,,,,,,,,,,611334fbb359c699d561b029,18,2022-02-12_16h58.40.956,lexical_decision_task_DD,2021.2.3,iPhone,30.3030303,,0,-0.28877551,-0.30255102,1,0,0,0.792,button_left,0.792,1,0,8,8,8,1,1001,ASLERT,z,,,,,,,,,,,,,,,,,,,,,,,,,,,,,,,,,,,,,,,,,,,,,,,,,,,,,,,,,,,,,,,
,,,,,,,,,,,,,,,,,611334fbb359c699d561b029,18,2022-02-12_16h58.40.956,lexical_decision_task_DD,2021.2.3,iPhone,30.3030303,,0,0.319387755,-0.270918367,1,0,0,0.759,button_right,0.759,1,0,9,9,3,1,1001,MATRIX,m,,,,,,,,,,,,,,,,,,,,,,,,,,,,,,,,,,,,,,,,,,,,,,,,,,,,,,,,,,,,,,,
,,,,,,,,,,,,,,,,,611334fbb359c699d561b029,18,2022-02-12_16h58.40.956,lexical_decision_task_DD,2021.2.3,iPhone,30.3030303,,0,-0.271428571,-0.270918367,1,0,0,0.756,button_left,0.756,1,0,10,10,10,1,1001,INLADE,z,,,,,,,,,,,,,,,,,,,,,,,,,,,,,,,,,,,,,,,,,,,,,,,,,,,,,,,,,,,,,,,
,,,,,,,,,,,,,,,,,611334fbb359c699d561b029,18,2022-02-12_16h58.40.956,lexical_decision_task_DD,2021.2.3,iPhone,30.3030303,,0,0.336734694,-0.29744898,1,0,0,0.727,button_right,0.727,1,0,11,11,1,1,1001,ADJUST,m,,,,,,,,,,,,,,,,,,,,,,,,,,,,,,,,,,,,,,,,,,,,,,,,,,,,,,,,,,,,,,,
,,,,,,,,,,,,,,,,,611334fbb359c699d561b029,18,2022-02-12_16h58.40.956,lexical_decision_task_DD,2021.2.3,iPhone,30.3030303,,0,0.319387755,-0.303571429,1,0,0,0.73,button_right,0.73,1,0,12,12,4,1,1001,SQUEAK,m,,,,,,,,,,,,,,,,,,,,,,,,,,,,,,,,,,,,,,,,,,,,,,,,,,,,,,,,,,,,,,,
,,,,,,,,,,,,,,,,,611334fbb359c699d561b029,18,2022-02-12_16h58.40.956,lexical_decision_task_DD,2021.2.3,iPhone,30.3030303,,0,0.319387755,-0.277040816,1,0,0,0.63,button_right,0.63,1,0,13,13,5,1,1001,OBTAIN,m,,,,,,,,,,,,,,,,,,,,,,,,,,,,,,,,,,,,,,,,,,,,,,,,,,,,,,,,,,,,,,,
,,,,,,,,,,,,,,,,,611334fbb359c699d561b029,18,2022-02-12_16h58.40.956,lexical_decision_task_DD,2021.2.3,iPhone,30.3030303,,0,0.294897959,-0.304591837,1,0,0,0.663,button_right,0.663,1,0,14,14,6,1,1001,ZOMBIE,m,,,,,,,,,,,,,,,,,,,,,,,,,,,,,,,,,,,,,,,,,,,,,,,,,,,,,,,,,,,,,,,
,,,,,,,,,,,,,,,,,611334fbb359c699d561b029,18,2022-02-12_16h58.40.956,lexical_decision_task_DD,2021.2.3,iPhone,30.3030303,,0,-0.290816327,-0.288265306,1,0,0,0.598,button_left,0.598,1,0,15,15,13,1,1001,ROUPET,z,,,,,,,,,,,,,,,,,,,,,,,,,,,,,,,,,,,,,,,,,,,,,,,,,,,,,,,,,,,,,,,
,0.092857143,-0.389285714,1,0,0,instr_done_button,,,,,,1,end_of_practice,"You have completed the practice trials. During the experimental trials, you will not receive feedback. 
Before you begin, please ensure that you are in a comfortable and quiet location and will not be disturbed for about 15 minutes, as we cannot use your data if you do not complete all the trials. 
 When you are ready to start the experimental trials, please press space or touch the button below.",,,611334fbb359c699d561b029,18,2022-02-12_16h58.40.956,lexical_decision_task_DD,2021.2.3,iPhone,30.3030303,,,,,,,,,,,,,,,,,,,,0,0,0,0,1,,,,,,,,,,,,,,,,,,,,,,,,,,,,,,,,,,,,,,,,,,,,,,,,,,,,,,,,,,
,,,,,,,,,,,,,,,,,611334fbb359c699d561b029,18,2022-02-12_16h58.40.956,lexical_decision_task_DD,2021.2.3,iPhone,30.3030303,,,,,,,,,,1.591,1,,,,,,,,,,,,,,,0,0.289795918,-0.295408163,1,0,0,1.591,button_right_main,0.289795918,-0.295408163,1,0,0,,0,0,0,64,1,JELLY,HB,old,m,./images/JELLYHB.png,,,,,,,,,,,,,,,,,,,,,,,,,,,,,,,,,
,,,,,,,,,,,,,,,,,611334fbb359c699d561b029,18,2022-02-12_16h58.40.956,lexical_decision_task_DD,2021.2.3,iPhone,30.3030303,,,,,,,,,,1.201,1,,,,,,,,,,,,,,,0,0.284693878,-0.344387755,1,0,0,1.201,button_right_main,0.284693878,-0.344387755,1,0,0,,0,1,1,82,1,SUNSET,HB,old,m,./images/SUNSETHB.png,,,,,,,,,,,,,,,,,,,,,,,,,,,,,,,,,
,,,,,,,,,,,,,,,,,611334fbb359c699d561b029,18,2022-02-12_16h58.40.956,lexical_decision_task_DD,2021.2.3,iPhone,30.3030303,,,,,,,,,,0.8,1,,,,,,,,,,,,,,,0,0.297959184,-0.256632653,1,0,0,0.8,button_right_main,0.297959184,-0.256632653,1,0,0,,0,2,2,13,1,MOTOR,HB,old,m,./images/MOTORHB.png,,,,,,,,,,,,,,,,,,,,,,,,,,,,,,,,,
,,,,,,,,,,,,,,,,,611334fbb359c699d561b029,18,2022-02-12_16h58.40.956,lexical_decision_task_DD,2021.2.3,iPhone,30.3030303,,,,,,,,,,0.897,1,,,,,,,,,,,,,,,0,0.27755102,-0.278061224,1,0,0,0.897,button_right_main,0.27755102,-0.278061224,1,0,0,,0,3,3,74,1,CEMENT,LB,old,m,./images/CEMENTLB.png,,,,,,,,,,,,,,,,,,,,,,,,,,,,,,,,,
,,,,,,,,,,,,,,,,,611334fbb359c699d561b029,18,2022-02-12_16h58.40.956,lexical_decision_task_DD,2021.2.3,iPhone,30.3030303,,,,,,,,,,0.632,1,,,,,,,,,,,,,,,0,0.294897959,-0.283163265,1,0,0,0.632,button_right_main,0.294897959,-0.283163265,1,0,0,,0,4,4,15,1,GREASE,C,old,m,./images/GREASE.png,,,,,,,,,,,,,,,,,,,,,,,,,,,,,,,,,
,,,,,,,,,,,,,,,,,611334fbb359c699d561b029,18,2022-02-12_16h58.40.956,lexical_decision_task_DD,2021.2.3,iPhone,30.3030303,,,,,,,,,,0.831,1,,,,,,,,,,,,,,,0,-0.290816327,-0.288265306,1,0,0,0.831,button_left_main,-0.290816327,-0.288265306,1,0,0,,0,5,5,150,1,NOOLS,C,old,z,./images/NOOLS.png,,,,,,,,,,,,,,,,,,,,,,,,,,,,,,,,,
,,,,,,,,,,,,,,,,,611334fbb359c699d561b029,18,2022-02-12_16h58.40.956,lexical_decision_task_DD,2021.2.3,iPhone,30.3030303,,,,,,,,,,0.935,1,,,,,,,,,,,,,,,0,-0.268367347,-0.284183673,1,0,0,0.935,button_left_main,-0.268367347,-0.284183673,1,0,0,,0,6,6,143,1,MONGS,LB,old,z,./images/MONGSLB.png,,,,,,,,,,,,,,,,,,,,,,,,,,,,,,,,,
,,,,,,,,,,,,,,,,,611334fbb359c699d561b029,18,2022-02-12_16h58.40.956,lexical_decision_task_DD,2021.2.3,iPhone,30.3030303,,,,,,,,,,0.829,1,,,,,,,,,,,,,,,0,0.271428571,-0.272959184,1,0,0,0.829,button_right_main,0.271428571,-0.272959184,1,0,0,,0,7,7,33,1,MAGGOT,C,old,m,./images/MAGGOT.png,,,,,,,,,,,,,,,,,,,,,,,,,,,,,,,,,
,,,,,,,,,,,,,,,,,611334fbb359c699d561b029,18,2022-02-12_16h58.40.956,lexical_decision_task_DD,2021.2.3,iPhone,30.3030303,,,,,,,,,,1.164,1,,,,,,,,,,,,,,,0,-0.295918367,-0.301530612,1,0,0,1.164,button_left_main,-0.295918367,-0.301530612,1,0,0,,0,8,8,142,1,PLASK,HB,old,z,./images/PLASKHB.png,,,,,,,,,,,,,,,,,,,,,,,,,,,,,,,,,
,,,,,,,,,,,,,,,,,611334fbb359c699d561b029,18,2022-02-12_16h58.40.956,lexical_decision_task_DD,2021.2.3,iPhone,30.3030303,,,,,,,,,,0.869,1,,,,,,,,,,,,,,,0,-0.271428571,-0.267857143,1,0,0,0.869,button_left_main,-0.271428571,-0.267857143,1,0,0,,0,9,9,146,1,MOOST,LB,old,z,./images/MOOSTLB.png,,,,,,,,,,,,,,,,,,,,,,,,,,,,,,,,,
,,,,,,,,,,,,,,,,,611334fbb359c699d561b029,18,2022-02-12_16h58.40.956,lexical_decision_task_DD,2021.2.3,iPhone,30.3030303,,,,,,,,,,0.763,1,,,,,,,,,,,,,,,0,0.292857143,-0.290306122,1,0,0,0.763,button_right_main,0.292857143,-0.290306122,1,0,0,,0,10,10,8,1,TULIP,LB,old,m,./images/TULIPLB.png,,,,,,,,,,,,,,,,,,,,,,,,,,,,,,,,,
,,,,,,,,,,,,,,,,,611334fbb359c699d561b029,18,2022-02-12_16h58.40.956,lexical_decision_task_DD,2021.2.3,iPhone,30.3030303,,,,,,,,,,0.631,1,,,,,,,,,,,,,,,0,0.3,-0.301530612,1,0,0,0.631,button_right_main,0.3,-0.301530612,1,0,0,,0,11,11,65,1,FARMER,LB,old,m,./images/FARMERLB.png,,,,,,,,,,,,,,,,,,,,,,,,,,,,,,,,,
,,,,,,,,,,,,,,,,,611334fbb359c699d561b029,18,2022-02-12_16h58.40.956,lexical_decision_task_DD,2021.2.3,iPhone,30.3030303,,,,,,,,,,0.632,1,,,,,,,,,,,,,,,0,0.303061224,-0.298469388,1,0,0,0.632,button_right_main,0.303061224,-0.298469388,1,0,0,,0,12,12,69,1,COOKER,C,old,m,./images/COOKER.png,,,,,,,,,,,,,,,,,,,,,,,,,,,,,,,,,
,,,,,,,,,,,,,,,,,611334fbb359c699d561b029,18,2022-02-12_16h58.40.956,lexical_decision_task_DD,2021.2.3,iPhone,30.3030303,,,,,,,,,,0.73,1,,,,,,,,,,,,,,,0,0.278571429,-0.23622449,1,0,0,0.73,button_right_main,0.278571429,-0.23622449,1,0,0,,0,13,13,53,1,CARPET,LB,old,m,./images/CARPETLB.png,,,,,,,,,,,,,,,,,,,,,,,,,,,,,,,,,
,,,,,,,,,,,,,,,,,611334fbb359c699d561b029,18,2022-02-12_16h58.40.956,lexical_decision_task_DD,2021.2.3,iPhone,30.3030303,,,,,,,,,,1.166,1,,,,,,,,,,,,,,,0,0.287755102,-0.301530612,1,0,0,1.166,button_right_main,0.287755102,-0.301530612,1,0,0,,0,14,14,46,1,PEARL,HB,old,m,./images/PEARLHB.png,,,,,,,,,,,,,,,,,,,,,,,,,,,,,,,,,
,,,,,,,,,,,,,,,,,611334fbb359c699d561b029,18,2022-02-12_16h58.40.956,lexical_decision_task_DD,2021.2.3,iPhone,30.3030303,,,,,,,,,,1.363,1,,,,,,,,,,,,,,,0,0.289795918,-0.258673469,1,0,0,1.363,button_right_main,0.289795918,-0.258673469,1,0,0,,0,15,15,72,1,NOOSE,C,old,m,./images/NOOSE.png,,,,,,,,,,,,,,,,,,,,,,,,,,,,,,,,,
,,,,,,,,,,,,,,,,,611334fbb359c699d561b029,18,2022-02-12_16h58.40.956,lexical_decision_task_DD,2021.2.3,iPhone,30.3030303,,,,,,,,,,0.831,1,,,,,,,,,,,,,,,0,-0.278571429,-0.294387755,1,0,0,0.831,button_left_main,-0.278571429,-0.294387755,1,0,0,,0,16,16,155,1,CANGY,LB,old,z,./images/CANGYLB.png,,,,,,,,,,,,,,,,,,,,,,,,,,,,,,,,,
,,,,,,,,,,,,,,,,,611334fbb359c699d561b029,18,2022-02-12_16h58.40.956,lexical_decision_task_DD,2021.2.3,iPhone,30.3030303,,,,,,,,,,0.933,1,,,,,,,,,,,,,,,0,0.291836735,-0.301530612,1,0,0,0.933,button_right_main,0.291836735,-0.301530612,1,0,0,,0,17,17,40,1,SWING,HB,old,m,./images/SWINGHB.png,,,,,,,,,,,,,,,,,,,,,,,,,,,,,,,,,
,,,,,,,,,,,,,,,,,611334fbb359c699d561b029,18,2022-02-12_16h58.40.956,lexical_decision_task_DD,2021.2.3,iPhone,30.3030303,,,,,,,,,,0.731,1,,,,,,,,,,,,,,,0,0.26122449,-0.265816327,1,0,0,0.731,button_right_main,0.26122449,-0.265816327,1,0,0,,0,18,18,26,1,SMOKER,LB,old,m,./images/SMOKERLB.png,,,,,,,,,,,,,,,,,,,,,,,,,,,,,,,,,
,,,,,,,,,,,,,,,,,611334fbb359c699d561b029,18,2022-02-12_16h58.40.956,lexical_decision_task_DD,2021.2.3,iPhone,30.3030303,,,,,,,,,,0.831,1,,,,,,,,,,,,,,,0,0.287755102,-0.294387755,1,0,0,0.831,button_right_main,0.287755102,-0.294387755,1,0,0,,0,19,19,70,1,URINE,HB,old,m,./images/URINEHB.png,,,,,,,,,,,,,,,,,,,,,,,,,,,,,,,,,
,,,,,,,,,,,,,,,,,611334fbb359c699d561b029,18,2022-02-12_16h58.40.956,lexical_decision_task_DD,2021.2.3,iPhone,30.3030303,,,,,,,,,,0.664,1,,,,,,,,,,,,,,,0,0.267346939,-0.259693878,1,0,0,0.664,button_right_main,0.267346939,-0.259693878,1,0,0,,0,20,20,20,1,CRADLE,LB,old,m,./images/CRADLELB.png,,,,,,,,,,,,,,,,,,,,,,,,,,,,,,,,,
,,,,,,,,,,,,,,,,,611334fbb359c699d561b029,18,2022-02-12_16h58.40.956,lexical_decision_task_DD,2021.2.3,iPhone,30.3030303,,,,,,,,,,0.8,1,,,,,,,,,,,,,,,0,-0.281632653,-0.307653061,1,0,0,0.8,button_left_main,-0.281632653,-0.307653061,1,0,0,,0,21,21,165,1,TROWN,C,old,z,./images/TROWN.png,,,,,,,,,,,,,,,,,,,,,,,,,,,,,,,,,
,,,,,,,,,,,,,,,,,611334fbb359c699d561b029,18,2022-02-12_16h58.40.956,lexical_decision_task_DD,2021.2.3,iPhone,30.3030303,,,,,,,,,,1.633,1,,,,,,,,,,,,,,,0,-0.235714286,-0.231122449,1,0,0,1.633,button_left_main,-0.235714286,-0.231122449,1,0,0,,0,22,22,121,1,CEERS,HB,old,z,./images/CEERSHB.png,,,,,,,,,,,,,,,,,,,,,,,,,,,,,,,,,
,,,,,,,,,,,,,,,,,611334fbb359c699d561b029,18,2022-02-12_16h58.40.956,lexical_decision_task_DD,2021.2.3,iPhone,30.3030303,,,,,,,,,,1.099,1,,,,,,,,,,,,,,,0,-0.273469388,-0.279081633,1,0,0,1.099,button_left_main,-0.273469388,-0.279081633,1,0,0,,0,23,23,133,1,POWDY,HB,old,z,./images/POWDYHB.png,,,,,,,,,,,,,,,,,,,,,,,,,,,,,,,,,
,,,,,,,,,,,,,,,,,611334fbb359c699d561b029,18,2022-02-12_16h58.40.956,lexical_decision_task_DD,2021.2.3,iPhone,30.3030303,,,,,,,,,,0.664,1,,,,,,,,,,,,,,,0,0.285714286,-0.275,1,0,0,0.664,button_right_main,0.285714286,-0.275,1,0,0,,0,24,24,44,1,LIZARD,LB,old,m,./images/LIZARDLB.png,,,,,,,,,,,,,,,,,,,,,,,,,,,,,,,,,
,,,,,,,,,,,,,,,,,611334fbb359c699d561b029,18,2022-02-12_16h58.40.956,lexical_decision_task_DD,2021.2.3,iPhone,30.3030303,,,,,,,,,,0.897,1,,,,,,,,,,,,,,,0,0.284693878,-0.296428571,1,0,0,0.897,button_right_main,0.284693878,-0.296428571,1,0,0,,0,25,25,49,1,DRUMS,HB,old,m,./images/DRUMSHB.png,,,,,,,,,,,,,,,,,,,,,,,,,,,,,,,,,
,,,,,,,,,,,,,,,,,611334fbb359c699d561b029,18,2022-02-12_16h58.40.956,lexical_decision_task_DD,2021.2.3,iPhone,30.3030303,,,,,,,,,,1.333,1,,,,,,,,,,,,,,,0,-0.279591837,-0.270918367,1,0,0,1.333,button_left_main,-0.279591837,-0.270918367,1,0,0,,0,26,26,154,1,THINT,HB,old,z,./images/THINTHB.png,,,,,,,,,,,,,,,,,,,,,,,,,,,,,,,,,
,,,,,,,,,,,,,,,,,611334fbb359c699d561b029,18,2022-02-12_16h58.40.956,lexical_decision_task_DD,2021.2.3,iPhone,30.3030303,,,,,,,,,,1.433,1,,,,,,,,,,,,,,,0,-0.255102041,-0.261734694,1,0,0,1.433,button_left_main,-0.255102041,-0.261734694,1,0,0,,0,27,27,163,1,GAMBA,HB,old,z,./images/GAMBAHB.png,,,,,,,,,,,,,,,,,,,,,,,,,,,,,,,,,
,,,,,,,,,,,,,,,,,611334fbb359c699d561b029,18,2022-02-12_16h58.40.956,lexical_decision_task_DD,2021.2.3,iPhone,30.3030303,,,,,,,,,,0.934,1,,,,,,,,,,,,,,,0,-0.275510204,-0.278061224,1,0,0,0.934,button_left_main,-0.275510204,-0.278061224,1,0,0,,0,28,28,101,1,GLEET,LB,old,z,./images/GLEETLB.png,,,,,,,,,,,,,,,,,,,,,,,,,,,,,,,,,
,,,,,,,,,,,,,,,,,611334fbb359c699d561b029,18,2022-02-12_16h58.40.956,lexical_decision_task_DD,2021.2.3,iPhone,30.3030303,,,,,,,,,,0.997,1,,,,,,,,,,,,,,,0,0.287755102,-0.28622449,1,0,0,0.997,button_right_main,0.287755102,-0.28622449,1,0,0,,0,29,29,31,1,QUILL,HB,old,m,./images/QUILLHB.png,,,,,,,,,,,,,,,,,,,,,,,,,,,,,,,,,
,,,,,,,,,,,,,,,,,611334fbb359c699d561b029,18,2022-02-12_16h58.40.956,lexical_decision_task_DD,2021.2.3,iPhone,30.3030303,,,,,,,,,,0.731,1,,,,,,,,,,,,,,,0,0.278571429,-0.229081633,1,0,0,0.731,button_right_main,0.278571429,-0.229081633,1,0,0,,0,30,30,12,1,SHORE,C,old,m,./images/SHORE.png,,,,,,,,,,,,,,,,,,,,,,,,,,,,,,,,,
,,,,,,,,,,,,,,,,,611334fbb359c699d561b029,18,2022-02-12_16h58.40.956,lexical_decision_task_DD,2021.2.3,iPhone,30.3030303,,,,,,,,,,1.897,1,,,,,,,,,,,,,,,0,-0.265306122,-0.257653061,1,0,0,1.897,button_left_main,-0.265306122,-0.257653061,1,0,0,,0,31,31,127,1,NINDY,HB,old,z,./images/NINDYHB.png,,,,,,,,,,,,,,,,,,,,,,,,,,,,,,,,,
,,,,,,,,,,,,,,,,,611334fbb359c699d561b029,18,2022-02-12_16h58.40.956,lexical_decision_task_DD,2021.2.3,iPhone,30.3030303,,,,,,,,,,0.834,1,,,,,,,,,,,,,,,0,-0.253061224,-0.271938776,1,0,0,0.834,button_left_main,-0.253061224,-0.271938776,1,0,0,,0,32,32,141,1,PLEET,C,old,z,./images/PLEET.png,,,,,,,,,,,,,,,,,,,,,,,,,,,,,,,,,
,,,,,,,,,,,,,,,,,611334fbb359c699d561b029,18,2022-02-12_16h58.40.956,lexical_decision_task_DD,2021.2.3,iPhone,30.3030303,,,,,,,,,,1.33,1,,,,,,,,,,,,,,,0,-0.31122449,-0.299489796,1,0,0,1.33,button_left_main,-0.31122449,-0.299489796,1,0,0,,0,33,33,151,1,TINKY,HB,old,z,./images/TINKYHB.png,,,,,,,,,,,,,,,,,,,,,,,,,,,,,,,,,
,,,,,,,,,,,,,,,,,611334fbb359c699d561b029,18,2022-02-12_16h58.40.956,lexical_decision_task_DD,2021.2.3,iPhone,30.3030303,,,,,,,,,,0.968,1,,,,,,,,,,,,,,,0,0.318367347,-0.294387755,1,0,0,0.968,button_right_main,0.318367347,-0.294387755,1,0,0,,0,34,34,28,1,FALCON,HB,old,m,./images/FALCONHB.png,,,,,,,,,,,,,,,,,,,,,,,,,,,,,,,,,
,,,,,,,,,,,,,,,,,611334fbb359c699d561b029,18,2022-02-12_16h58.40.956,lexical_decision_task_DD,2021.2.3,iPhone,30.3030303,,,,,,,,,,0.83,1,,,,,,,,,,,,,,,0,0.280612245,-0.289285714,1,0,0,0.83,button_right_main,0.280612245,-0.289285714,1,0,0,,0,35,35,66,1,SWEAT,C,old,m,./images/SWEAT.png,,,,,,,,,,,,,,,,,,,,,,,,,,,,,,,,,
,,,,,,,,,,,,,,,,,611334fbb359c699d561b029,18,2022-02-12_16h58.40.956,lexical_decision_task_DD,2021.2.3,iPhone,30.3030303,,,,,,,,,,1.065,1,,,,,,,,,,,,,,,0,0.307142857,-0.270918367,1,0,0,1.065,button_right_main,0.307142857,-0.270918367,1,0,0,,0,36,36,1,1,PLANK,HB,old,m,./images/PLANKHB.png,,,,,,,,,,,,,,,,,,,,,,,,,,,,,,,,,
,,,,,,,,,,,,,,,,,611334fbb359c699d561b029,18,2022-02-12_16h58.40.956,lexical_decision_task_DD,2021.2.3,iPhone,30.3030303,,,,,,,,,,0.798,1,,,,,,,,,,,,,,,0,-0.32755102,-0.328061224,1,0,0,0.798,button_left_main,-0.32755102,-0.328061224,1,0,0,,0,37,37,138,1,PLICE,C,old,z,./images/PLICE.png,,,,,,,,,,,,,,,,,,,,,,,,,,,,,,,,,
,,,,,,,,,,,,,,,,,611334fbb359c699d561b029,18,2022-02-12_16h58.40.956,lexical_decision_task_DD,2021.2.3,iPhone,30.3030303,,,,,,,,,,0.931,1,,,,,,,,,,,,,,,0,0.33877551,-0.298469388,1,0,0,0.931,button_right_main,0.33877551,-0.298469388,1,0,0,,0,38,38,18,1,JAGUAR,C,old,m,./images/JAGUAR.png,,,,,,,,,,,,,,,,,,,,,,,,,,,,,,,,,
,,,,,,,,,,,,,,,,,611334fbb359c699d561b029,18,2022-02-12_16h58.40.956,lexical_decision_task_DD,2021.2.3,iPhone,30.3030303,,,,,,,,,,0.634,1,,,,,,,,,,,,,,,0,0.323469388,-0.284183673,1,0,0,0.634,button_right_main,0.323469388,-0.284183673,1,0,0,,0,39,39,78,1,LITTER,C,old,m,./images/LITTER.png,,,,,,,,,,,,,,,,,,,,,,,,,,,,,,,,,
,,,,,,,,,,,,,,,,,611334fbb359c699d561b029,18,2022-02-12_16h58.40.956,lexical_decision_task_DD,2021.2.3,iPhone,30.3030303,,,,,,,,,,0.569,1,,,,,,,,,,,,,,,0,0.291836735,-0.284183673,1,0,0,0.569,button_right_main,0.291836735,-0.284183673,1,0,0,,0,40,40,47,1,BERRY,LB,old,m,./images/BERRYLB.png,,,,,,,,,,,,,,,,,,,,,,,,,,,,,,,,,
,,,,,,,,,,,,,,,,,611334fbb359c699d561b029,18,2022-02-12_16h58.40.956,lexical_decision_task_DD,2021.2.3,iPhone,30.3030303,,,,,,,,,,0.697,1,,,,,,,,,,,,,,,0,0.253061224,-0.283163265,1,0,0,0.697,button_right_main,0.096938776,-0.366836735,1,0,0,,0,41,41,56,1,PACKET,LB,old,m,./images/PACKETLB.png,break_done_button,,,,,,,,,,,,,,,,,,,,,,,,,,,,,,,,
,,,,,,,,,,,,,,,,,611334fbb359c699d561b029,18,2022-02-12_16h58.40.956,lexical_decision_task_DD,2021.2.3,iPhone,30.3030303,,,,,,,,,,1.134,1,,,,,,,,,,,,,,,0,0.281632653,-0.268877551,1,0,0,1.134,button_right_main,0.281632653,-0.268877551,1,0,0,,0,42,42,52,1,BANNER,HB,old,m,./images/BANNERHB.png,,,,,,,,,,,,,,,,,,,,,,,,,,,,,,,,,
,,,,,,,,,,,,,,,,,611334fbb359c699d561b029,18,2022-02-12_16h58.40.956,lexical_decision_task_DD,2021.2.3,iPhone,30.3030303,,,,,,,,,,0.863,1,,,,,,,,,,,,,,,0,-0.244897959,-0.282142857,1,0,0,0.863,button_left_main,-0.244897959,-0.282142857,1,0,0,,0,43,43,99,1,BACKY,C,old,z,./images/BACKY.png,,,,,,,,,,,,,,,,,,,,,,,,,,,,,,,,,
,,,,,,,,,,,,,,,,,611334fbb359c699d561b029,18,2022-02-12_16h58.40.956,lexical_decision_task_DD,2021.2.3,iPhone,30.3030303,,,,,,,,,,0.934,1,,,,,,,,,,,,,,,0,-0.265306122,-0.320918367,1,0,0,0.934,button_left_main,-0.265306122,-0.320918367,1,0,0,,0,44,44,167,1,ZONET,LB,old,z,./images/ZONETLB.png,,,,,,,,,,,,,,,,,,,,,,,,,,,,,,,,,
,,,,,,,,,,,,,,,,,611334fbb359c699d561b029,18,2022-02-12_16h58.40.956,lexical_decision_task_DD,2021.2.3,iPhone,30.3030303,,,,,,,,,,1.335,1,,,,,,,,,,,,,,,0,-0.252040816,-0.289285714,1,0,0,1.335,button_left_main,-0.252040816,-0.289285714,1,0,0,,0,45,45,97,1,CHIDS,HB,old,z,./images/CHIDSHB.png,,,,,,,,,,,,,,,,,,,,,,,,,,,,,,,,,
,,,,,,,,,,,,,,,,,611334fbb359c699d561b029,18,2022-02-12_16h58.40.956,lexical_decision_task_DD,2021.2.3,iPhone,30.3030303,,,,,,,,,,0.631,1,,,,,,,,,,,,,,,0,0.27755102,-0.275,1,0,0,0.631,button_right_main,0.27755102,-0.275,1,0,0,,0,46,46,27,1,ATTIC,C,old,m,./images/ATTIC.png,,,,,,,,,,,,,,,,,,,,,,,,,,,,,,,,,
,,,,,,,,,,,,,,,,,611334fbb359c699d561b029,18,2022-02-12_16h58.40.956,lexical_decision_task_DD,2021.2.3,iPhone,30.3030303,,,,,,,,,,0.765,1,,,,,,,,,,,,,,,0,-0.198979592,-0.29744898,1,0,0,0.765,button_left_main,-0.262244898,-0.296428571,1,0,0,,0,47,47,162,1,LEICH,C,old,z,./images/LEICH.png,,,,,,,,,,,,,,,,,,,,,,,,,,,,,,,,,
,,,,,,,,,,,,,,,,,611334fbb359c699d561b029,18,2022-02-12_16h58.40.956,lexical_decision_task_DD,2021.2.3,iPhone,30.3030303,,,,,,,,,,0.696,1,,,,,,,,,,,,,,,0,0.27755102,-0.340306122,1,0,0,0.696,button_right_main,0.27755102,-0.340306122,1,0,0,,0,48,48,59,1,BURIAL,LB,old,m,./images/BURIALLB.png,,,,,,,,,,,,,,,,,,,,,,,,,,,,,,,,,
,,,,,,,,,,,,,,,,,611334fbb359c699d561b029,18,2022-02-12_16h58.40.956,lexical_decision_task_DD,2021.2.3,iPhone,30.3030303,,,,,,,,,,0.897,1,,,,,,,,,,,,,,,0,0.312244898,-0.341326531,1,0,0,0.897,button_right_main,0.312244898,-0.341326531,1,0,0,,0,49,49,22,1,MELON,HB,old,m,./images/MELONHB.png,,,,,,,,,,,,,,,,,,,,,,,,,,,,,,,,,
,,,,,,,,,,,,,,,,,611334fbb359c699d561b029,18,2022-02-12_16h58.40.956,lexical_decision_task_DD,2021.2.3,iPhone,30.3030303,,,,,,,,,,0.833,1,,,,,,,,,,,,,,,0,0.270408163,-0.334183673,1,0,0,0.833,button_right_main,0.270408163,-0.334183673,1,0,0,,0,50,50,58,1,BABOON,HB,old,m,./images/BABOONHB.png,,,,,,,,,,,,,,,,,,,,,,,,,,,,,,,,,
,,,,,,,,,,,,,,,,,611334fbb359c699d561b029,18,2022-02-12_16h58.40.956,lexical_decision_task_DD,2021.2.3,iPhone,30.3030303,,,,,,,,,,0.701,1,,,,,,,,,,,,,,,0,0.303061224,-0.316836735,1,0,0,0.701,button_right_main,0.303061224,-0.316836735,1,0,0,,0,51,51,71,1,PIMPLE,LB,old,m,./images/PIMPLELB.png,,,,,,,,,,,,,,,,,,,,,,,,,,,,,,,,,
,,,,,,,,,,,,,,,,,611334fbb359c699d561b029,18,2022-02-12_16h58.40.956,lexical_decision_task_DD,2021.2.3,iPhone,30.3030303,,,,,,,,,,0.698,1,,,,,,,,,,,,,,,0,-0.284693878,-0.307653061,1,0,0,0.698,button_left_main,-0.284693878,-0.307653061,1,0,0,,0,52,52,114,1,RIKES,C,old,z,./images/RIKES.png,,,,,,,,,,,,,,,,,,,,,,,,,,,,,,,,,
,,,,,,,,,,,,,,,,,611334fbb359c699d561b029,18,2022-02-12_16h58.40.956,lexical_decision_task_DD,2021.2.3,iPhone,30.3030303,,,,,,,,,,0.9,1,,,,,,,,,,,,,,,0,-0.214285714,-0.242346939,1,0,0,0.9,button_left_main,-0.214285714,-0.242346939,1,0,0,,0,53,53,100,1,DRIBS,HB,old,z,./images/DRIBSHB.png,,,,,,,,,,,,,,,,,,,,,,,,,,,,,,,,,
,,,,,,,,,,,,,,,,,611334fbb359c699d561b029,18,2022-02-12_16h58.40.956,lexical_decision_task_DD,2021.2.3,iPhone,30.3030303,,,,,,,,,,0.764,1,,,,,,,,,,,,,,,0,-0.320408163,-0.338265306,1,0,0,0.764,button_left_main,-0.320408163,-0.338265306,1,0,0,,0,54,54,98,1,BAMPS,LB,old,z,./images/BAMPSLB.png,,,,,,,,,,,,,,,,,,,,,,,,,,,,,,,,,
,,,,,,,,,,,,,,,,,611334fbb359c699d561b029,18,2022-02-12_16h58.40.956,lexical_decision_task_DD,2021.2.3,iPhone,30.3030303,,,,,,,,,,0.698,1,,,,,,,,,,,,,,,0,-0.27244898,-0.294387755,1,0,0,0.698,button_left_main,-0.27244898,-0.294387755,1,0,0,,0,55,55,103,1,FLORT,HB,old,z,./images/FLORTHB.png,,,,,,,,,,,,,,,,,,,,,,,,,,,,,,,,,
,,,,,,,,,,,,,,,,,611334fbb359c699d561b029,18,2022-02-12_16h58.40.956,lexical_decision_task_DD,2021.2.3,iPhone,30.3030303,,,,,,,,,,0.797,1,,,,,,,,,,,,,,,0,-0.233673469,-0.243367347,1,0,0,0.797,button_left_main,-0.233673469,-0.243367347,1,0,0,,0,56,56,148,1,JOMS,HB,old,z,./images/JOMSHB.png,,,,,,,,,,,,,,,,,,,,,,,,,,,,,,,,,
,,,,,,,,,,,,,,,,,611334fbb359c699d561b029,18,2022-02-12_16h58.40.956,lexical_decision_task_DD,2021.2.3,iPhone,30.3030303,,,,,,,,,,0.701,1,,,,,,,,,,,,,,,0,-0.27755102,-0.285204082,1,0,0,0.701,button_left_main,-0.27755102,-0.285204082,1,0,0,,0,57,57,95,1,HANTY,LB,old,z,./images/HANTYLB.png,,,,,,,,,,,,,,,,,,,,,,,,,,,,,,,,,
,,,,,,,,,,,,,,,,,611334fbb359c699d561b029,18,2022-02-12_16h58.40.956,lexical_decision_task_DD,2021.2.3,iPhone,30.3030303,,,,,,,,,,0.666,1,,,,,,,,,,,,,,,0,0.280612245,-0.253571429,1,0,0,0.666,button_right_main,0.280612245,-0.253571429,1,0,0,,0,58,58,62,1,PURSE,LB,old,m,./images/PURSELB.png,,,,,,,,,,,,,,,,,,,,,,,,,,,,,,,,,
,,,,,,,,,,,,,,,,,611334fbb359c699d561b029,18,2022-02-12_16h58.40.956,lexical_decision_task_DD,2021.2.3,iPhone,30.3030303,,,,,,,,,,0.634,1,,,,,,,,,,,,,,,0,-0.267346939,-0.283163265,1,0,0,0.634,button_left_main,-0.267346939,-0.283163265,1,0,0,,0,59,59,145,1,LAMEL,HB,old,z,./images/LAMELHB.png,,,,,,,,,,,,,,,,,,,,,,,,,,,,,,,,,
,,,,,,,,,,,,,,,,,611334fbb359c699d561b029,18,2022-02-12_16h58.40.956,lexical_decision_task_DD,2021.2.3,iPhone,30.3030303,,,,,,,,,,0.698,1,,,,,,,,,,,,,,,0,-0.255102041,-0.249489796,1,0,0,0.698,button_left_main,-0.255102041,-0.249489796,1,0,0,,0,60,60,152,1,FRAIN,LB,old,z,./images/FRAINLB.png,,,,,,,,,,,,,,,,,,,,,,,,,,,,,,,,,
,,,,,,,,,,,,,,,,,611334fbb359c699d561b029,18,2022-02-12_16h58.40.956,lexical_decision_task_DD,2021.2.3,iPhone,30.3030303,,,,,,,,,,0.73,1,,,,,,,,,,,,,,,0,0.254081633,-0.317857143,1,0,0,0.73,button_right_main,0.254081633,-0.317857143,1,0,0,,0,61,61,75,1,GRAIN,C,old,m,./images/GRAIN.png,,,,,,,,,,,,,,,,,,,,,,,,,,,,,,,,,
,,,,,,,,,,,,,,,,,611334fbb359c699d561b029,18,2022-02-12_16h58.40.956,lexical_decision_task_DD,2021.2.3,iPhone,30.3030303,,,,,,,,,,0.997,1,,,,,,,,,,,,,,,0,-0.268367347,-0.299489796,1,0,0,0.997,button_left_main,-0.268367347,-0.299489796,1,0,0,,0,62,62,157,1,INLER,HB,old,z,./images/INLERHB.png,,,,,,,,,,,,,,,,,,,,,,,,,,,,,,,,,
,,,,,,,,,,,,,,,,,611334fbb359c699d561b029,18,2022-02-12_16h58.40.956,lexical_decision_task_DD,2021.2.3,iPhone,30.3030303,,,,,,,,,,0.764,1,,,,,,,,,,,,,,,0,-0.268367347,-0.299489796,1,0,0,0.764,button_left_main,-0.268367347,-0.299489796,1,0,0,,0,63,63,105,1,MOKER,C,old,z,./images/MOKER.png,,,,,,,,,,,,,,,,,,,,,,,,,,,,,,,,,
,,,,,,,,,,,,,,,,,611334fbb359c699d561b029,18,2022-02-12_16h58.40.956,lexical_decision_task_DD,2021.2.3,iPhone,30.3030303,,,,,,,,,,0.998,1,,,,,,,,,,,,,,,0,0.293877551,-0.279081633,1,0,0,0.998,button_right_main,0.293877551,-0.279081633,1,0,0,,0,64,64,60,1,TWINS,C,old,m,./images/TWINS.png,,,,,,,,,,,,,,,,,,,,,,,,,,,,,,,,,
,,,,,,,,,,,,,,,,,611334fbb359c699d561b029,18,2022-02-12_16h58.40.956,lexical_decision_task_DD,2021.2.3,iPhone,30.3030303,,,,,,,,,,0.697,1,,,,,,,,,,,,,,,0,0.186734694,-0.295408163,1,0,0,0.697,button_right_main,0.304081633,-0.328061224,1,0,0,,0,65,65,25,1,WRIST,HB,old,m,./images/WRISTHB.png,,,,,,,,,,,,,,,,,,,,,,,,,,,,,,,,,
,,,,,,,,,,,,,,,,,611334fbb359c699d561b029,18,2022-02-12_16h58.40.956,lexical_decision_task_DD,2021.2.3,iPhone,30.3030303,,,,,,,,,,0.764,1,,,,,,,,,,,,,,,0,-0.287755102,-0.272959184,1,0,0,0.764,button_left_main,-0.287755102,-0.272959184,1,0,0,,0,66,66,132,1,SCIFF,C,old,z,./images/SCIFF.png,,,,,,,,,,,,,,,,,,,,,,,,,,,,,,,,,
,,,,,,,,,,,,,,,,,611334fbb359c699d561b029,18,2022-02-12_16h58.40.956,lexical_decision_task_DD,2021.2.3,iPhone,30.3030303,,,,,,,,,,0.831,1,,,,,,,,,,,,,,,0,-0.3,-0.289285714,1,0,0,0.831,button_left_main,-0.3,-0.289285714,1,0,0,,0,67,67,139,1,BLEAR,HB,old,z,./images/BLEARHB.png,,,,,,,,,,,,,,,,,,,,,,,,,,,,,,,,,
,,,,,,,,,,,,,,,,,611334fbb359c699d561b029,18,2022-02-12_16h58.40.956,lexical_decision_task_DD,2021.2.3,iPhone,30.3030303,,,,,,,,,,0.664,1,,,,,,,,,,,,,,,0,-0.233673469,-0.278061224,1,0,0,0.664,button_left_main,-0.233673469,-0.278061224,1,0,0,,0,68,68,122,1,BLOOT,LB,old,z,./images/BLOOTLB.png,,,,,,,,,,,,,,,,,,,,,,,,,,,,,,,,,
,,,,,,,,,,,,,,,,,611334fbb359c699d561b029,18,2022-02-12_16h58.40.956,lexical_decision_task_DD,2021.2.3,iPhone,30.3030303,,,,,,,,,,0.697,1,,,,,,,,,,,,,,,0,0.346938776,-0.343367347,1,0,0,0.697,button_right_main,0.346938776,-0.343367347,1,0,0,,0,69,69,35,1,PEACH,LB,old,m,./images/PEACHLB.png,,,,,,,,,,,,,,,,,,,,,,,,,,,,,,,,,
,,,,,,,,,,,,,,,,,611334fbb359c699d561b029,18,2022-02-12_16h58.40.956,lexical_decision_task_DD,2021.2.3,iPhone,30.3030303,,,,,,,,,,0.6,1,,,,,,,,,,,,,,,0,-0.268367347,-0.272959184,1,0,0,0.6,button_left_main,-0.268367347,-0.272959184,1,0,0,,0,70,70,87,1,TRING,C,old,z,./images/TRING.png,,,,,,,,,,,,,,,,,,,,,,,,,,,,,,,,,
,,,,,,,,,,,,,,,,,611334fbb359c699d561b029,18,2022-02-12_16h58.40.956,lexical_decision_task_DD,2021.2.3,iPhone,30.3030303,,,,,,,,,,1.1,1,,,,,,,,,,,,,,,0,-0.271428571,-0.259693878,1,0,0,1.1,button_left_main,-0.271428571,-0.259693878,1,0,0,,0,71,71,112,1,MYING,HB,old,z,./images/MYINGHB.png,,,,,,,,,,,,,,,,,,,,,,,,,,,,,,,,,
,,,,,,,,,,,,,,,,,611334fbb359c699d561b029,18,2022-02-12_16h58.40.956,lexical_decision_task_DD,2021.2.3,iPhone,30.3030303,,,,,,,,,,0.932,1,,,,,,,,,,,,,,,0,-0.274489796,-0.316836735,1,0,0,0.932,button_left_main,-0.274489796,-0.316836735,1,0,0,,0,72,72,94,1,BLANS,HB,old,z,./images/BLANSHB.png,,,,,,,,,,,,,,,,,,,,,,,,,,,,,,,,,
,,,,,,,,,,,,,,,,,611334fbb359c699d561b029,18,2022-02-12_16h58.40.956,lexical_decision_task_DD,2021.2.3,iPhone,30.3030303,,,,,,,,,,1.564,1,,,,,,,,,,,,,,,0,-0.23877551,-0.249489796,1,0,0,1.564,button_left_main,-0.23877551,-0.249489796,1,0,0,,0,73,73,115,1,MAWNS,HB,old,z,./images/MAWNSHB.png,,,,,,,,,,,,,,,,,,,,,,,,,,,,,,,,,
,,,,,,,,,,,,,,,,,611334fbb359c699d561b029,18,2022-02-12_16h58.40.956,lexical_decision_task_DD,2021.2.3,iPhone,30.3030303,,,,,,,,,,0.664,1,,,,,,,,,,,,,,,0,0.297959184,-0.312755102,1,0,0,0.664,button_right_main,0.297959184,-0.312755102,1,0,0,,0,74,74,77,1,COUCH,LB,old,m,./images/COUCHLB.png,,,,,,,,,,,,,,,,,,,,,,,,,,,,,,,,,
,,,,,,,,,,,,,,,,,611334fbb359c699d561b029,18,2022-02-12_16h58.40.956,lexical_decision_task_DD,2021.2.3,iPhone,30.3030303,,,,,,,,,,0.764,1,,,,,,,,,,,,,,,0,-0.295918367,-0.305612245,1,0,0,0.764,button_left_main,-0.295918367,-0.305612245,1,0,0,,0,75,75,107,1,FASKS,LB,old,z,./images/FASKSLB.png,,,,,,,,,,,,,,,,,,,,,,,,,,,,,,,,,
,,,,,,,,,,,,,,,,,611334fbb359c699d561b029,18,2022-02-12_16h58.40.956,lexical_decision_task_DD,2021.2.3,iPhone,30.3030303,,,,,,,,,,0.992,1,,,,,,,,,,,,,,,0,0.343877551,-0.303571429,1,0,0,0.992,button_right_main,0.343877551,-0.303571429,1,0,0,,0,76,76,81,1,POODLE,C,old,m,./images/POODLE.png,,,,,,,,,,,,,,,,,,,,,,,,,,,,,,,,,
,,,,,,,,,,,,,,,,,611334fbb359c699d561b029,18,2022-02-12_16h58.40.956,lexical_decision_task_DD,2021.2.3,iPhone,30.3030303,,,,,,,,,,0.733,1,,,,,,,,,,,,,,,0,-0.282653061,-0.311734694,1,0,0,0.733,button_left_main,-0.282653061,-0.311734694,1,0,0,,0,77,77,128,1,GRIFT,LB,old,z,./images/GRIFTLB.png,,,,,,,,,,,,,,,,,,,,,,,,,,,,,,,,,
,,,,,,,,,,,,,,,,,611334fbb359c699d561b029,18,2022-02-12_16h58.40.956,lexical_decision_task_DD,2021.2.3,iPhone,30.3030303,,,,,,,,,,0.796,1,,,,,,,,,,,,,,,0,-0.304081633,-0.342346939,1,0,0,0.796,button_left_main,-0.304081633,-0.342346939,1,0,0,,0,78,78,119,1,PAFER,LB,old,z,./images/PAFERLB.png,,,,,,,,,,,,,,,,,,,,,,,,,,,,,,,,,
,,,,,,,,,,,,,,,,,611334fbb359c699d561b029,18,2022-02-12_16h58.40.956,lexical_decision_task_DD,2021.2.3,iPhone,30.3030303,,,,,,,,,,1.329,1,,,,,,,,,,,,,,,0,0.276530612,-0.294387755,1,0,0,1.329,button_right_main,0.276530612,-0.294387755,1,0,0,,0,79,79,73,1,SNACK,HB,old,m,./images/SNACKHB.png,,,,,,,,,,,,,,,,,,,,,,,,,,,,,,,,,
,,,,,,,,,,,,,,,,,611334fbb359c699d561b029,18,2022-02-12_16h58.40.956,lexical_decision_task_DD,2021.2.3,iPhone,30.3030303,,,,,,,,,,0.732,1,,,,,,,,,,,,,,,0,-0.265306122,-0.238265306,1,0,0,0.732,button_left_main,-0.265306122,-0.238265306,1,0,0,,0,80,80,137,1,JOOST,LB,old,z,./images/JOOSTLB.png,,,,,,,,,,,,,,,,,,,,,,,,,,,,,,,,,
,,,,,,,,,,,,,,,,,611334fbb359c699d561b029,18,2022-02-12_16h58.40.956,lexical_decision_task_DD,2021.2.3,iPhone,30.3030303,,,,,,,,,,1.132,1,,,,,,,,,,,,,,,0,0.335714286,-0.277040816,1,0,0,1.132,button_right_main,0.335714286,-0.277040816,1,0,0,,0,81,81,55,1,MUFFIN,HB,old,m,./images/MUFFINHB.png,,,,,,,,,,,,,,,,,,,,,,,,,,,,,,,,,
,,,,,,,,,,,,,,,,,611334fbb359c699d561b029,18,2022-02-12_16h58.40.956,lexical_decision_task_DD,2021.2.3,iPhone,30.3030303,,,,,,,,,,0.832,1,,,,,,,,,,,,,,,0,-0.291836735,-0.278061224,1,0,0,0.832,button_left_main,-0.291836735,-0.278061224,1,0,0,,0,82,82,84,1,HAXES,C,old,z,./images/HAXES.png,,,,,,,,,,,,,,,,,,,,,,,,,,,,,,,,,
,,,,,,,,,,,,,,,,,611334fbb359c699d561b029,18,2022-02-12_16h58.40.956,lexical_decision_task_DD,2021.2.3,iPhone,30.3030303,,,,,,,,,,0.834,1,,,,,,,,,,,,,,,0,-0.280612245,-0.272959184,1,0,0,0.834,button_left_main,0.192857143,-0.358673469,1,0,0,,0,83,83,104,1,GITTY,LB,old,z,./images/GITTYLB.png,break_done_button,,,,,,,,,,,,,,,,,,,,,,,,,,,,,,,,
,,,,,,,,,,,,,,,,,611334fbb359c699d561b029,18,2022-02-12_16h58.40.956,lexical_decision_task_DD,2021.2.3,iPhone,30.3030303,,,,,,,,,,1.2,1,,,,,,,,,,,,,,,0,-0.256122449,-0.242346939,1,0,0,1.2,button_left_main,-0.256122449,-0.242346939,1,0,0,,0,84,84,106,1,CLUMS,HB,old,z,./images/CLUMSHB.png,,,,,,,,,,,,,,,,,,,,,,,,,,,,,,,,,
,,,,,,,,,,,,,,,,,611334fbb359c699d561b029,18,2022-02-12_16h58.40.956,lexical_decision_task_DD,2021.2.3,iPhone,30.3030303,,,,,,,,,,0.932,1,,,,,,,,,,,,,,,0,0.303061224,-0.296428571,1,0,0,0.932,button_right_main,0.303061224,-0.296428571,1,0,0,,0,85,85,11,1,BONNET,LB,old,m,./images/BONNETLB.png,,,,,,,,,,,,,,,,,,,,,,,,,,,,,,,,,
,,,,,,,,,,,,,,,,,611334fbb359c699d561b029,18,2022-02-12_16h58.40.956,lexical_decision_task_DD,2021.2.3,iPhone,30.3030303,,,,,,,,,,0.631,1,,,,,,,,,,,,,,,0,-0.262244898,-0.269897959,1,0,0,0.631,button_left_main,-0.262244898,-0.269897959,1,0,0,,0,86,86,126,1,GUELS,C,old,z,./images/GUELS.png,,,,,,,,,,,,,,,,,,,,,,,,,,,,,,,,,
,,,,,,,,,,,,,,,,,611334fbb359c699d561b029,18,2022-02-12_16h58.40.956,lexical_decision_task_DD,2021.2.3,iPhone,30.3030303,,,,,,,,,,0.63,1,,,,,,,,,,,,,,,0,0.318367347,-0.318877551,1,0,0,0.63,button_right_main,0.318367347,-0.318877551,1,0,0,,0,87,87,39,1,SHELF,C,old,m,./images/SHELF.png,,,,,,,,,,,,,,,,,,,,,,,,,,,,,,,,,
,,,,,,,,,,,,,,,,,611334fbb359c699d561b029,18,2022-02-12_16h58.40.956,lexical_decision_task_DD,2021.2.3,iPhone,30.3030303,,,,,,,,,,0.765,1,,,,,,,,,,,,,,,0,-0.226530612,-0.246428571,1,0,0,0.765,button_left_main,-0.226530612,-0.246428571,1,0,0,,0,88,88,118,1,BAVEL,HB,old,z,./images/BAVELHB.png,,,,,,,,,,,,,,,,,,,,,,,,,,,,,,,,,
,,,,,,,,,,,,,,,,,611334fbb359c699d561b029,18,2022-02-12_16h58.40.956,lexical_decision_task_DD,2021.2.3,iPhone,30.3030303,,,,,,,,,,0.664,1,,,,,,,,,,,,,,,0,-0.271428571,-0.309693878,1,0,0,0.664,button_left_main,-0.271428571,-0.309693878,1,0,0,,0,89,89,144,1,NAIRY,C,old,z,./images/NAIRY.png,,,,,,,,,,,,,,,,,,,,,,,,,,,,,,,,,
,,,,,,,,,,,,,,,,,611334fbb359c699d561b029,18,2022-02-12_16h58.40.956,lexical_decision_task_DD,2021.2.3,iPhone,30.3030303,,,,,,,,,,0.731,1,,,,,,,,,,,,,,,0,-0.247959184,-0.307653061,1,0,0,0.731,button_left_main,-0.247959184,-0.307653061,1,0,0,,0,90,90,93,1,SMONE,C,old,z,./images/SMONE.png,,,,,,,,,,,,,,,,,,,,,,,,,,,,,,,,,
,,,,,,,,,,,,,,,,,611334fbb359c699d561b029,18,2022-02-12_16h58.40.956,lexical_decision_task_DD,2021.2.3,iPhone,30.3030303,,,,,,,,,,0.664,1,,,,,,,,,,,,,,,0,0.33877551,-0.345408163,1,0,0,0.664,button_right_main,0.33877551,-0.345408163,1,0,0,,0,91,91,41,1,STRING,LB,old,m,./images/STRINGLB.png,,,,,,,,,,,,,,,,,,,,,,,,,,,,,,,,,
,,,,,,,,,,,,,,,,,611334fbb359c699d561b029,18,2022-02-12_16h58.40.956,lexical_decision_task_DD,2021.2.3,iPhone,30.3030303,,,,,,,,,,0.731,1,,,,,,,,,,,,,,,0,-0.280612245,-0.265816327,1,0,0,0.731,button_left_main,-0.280612245,-0.265816327,1,0,0,,0,92,92,156,1,HIXES,C,old,z,./images/HIXES.png,,,,,,,,,,,,,,,,,,,,,,,,,,,,,,,,,
,,,,,,,,,,,,,,,,,611334fbb359c699d561b029,18,2022-02-12_16h58.40.956,lexical_decision_task_DD,2021.2.3,iPhone,30.3030303,,,,,,,,,,0.73,1,,,,,,,,,,,,,,,0,0.335714286,-0.284183673,1,0,0,0.73,button_right_main,0.335714286,-0.284183673,1,0,0,,0,93,93,63,1,MIRROR,C,old,m,./images/MIRROR.png,,,,,,,,,,,,,,,,,,,,,,,,,,,,,,,,,
,,,,,,,,,,,,,,,,,611334fbb359c699d561b029,18,2022-02-12_16h58.40.956,lexical_decision_task_DD,2021.2.3,iPhone,30.3030303,,,,,,,,,,0.731,1,,,,,,,,,,,,,,,0,0.339795918,-0.305612245,1,0,0,0.731,button_right_main,0.339795918,-0.305612245,1,0,0,,0,94,94,57,1,MOOSE,C,old,m,./images/MOOSE.png,,,,,,,,,,,,,,,,,,,,,,,,,,,,,,,,,
,,,,,,,,,,,,,,,,,611334fbb359c699d561b029,18,2022-02-12_16h58.40.956,lexical_decision_task_DD,2021.2.3,iPhone,30.3030303,,,,,,,,,,0.864,1,,,,,,,,,,,,,,,0,-0.242857143,-0.237244898,1,0,0,0.864,button_left_main,-0.242857143,-0.237244898,1,0,0,,0,95,95,136,1,WERVE,HB,old,z,./images/WERVEHB.png,,,,,,,,,,,,,,,,,,,,,,,,,,,,,,,,,
,,,,,,,,,,,,,,,,,611334fbb359c699d561b029,18,2022-02-12_16h58.40.956,lexical_decision_task_DD,2021.2.3,iPhone,30.3030303,,,,,,,,,,1.031,1,,,,,,,,,,,,,,,0,-0.27244898,-0.283163265,1,0,0,1.031,button_left_main,-0.27244898,-0.283163265,1,0,0,,0,96,96,159,1,CUDDY,C,old,z,./images/CUDDY.png,,,,,,,,,,,,,,,,,,,,,,,,,,,,,,,,,
,,,,,,,,,,,,,,,,,611334fbb359c699d561b029,18,2022-02-12_16h58.40.956,lexical_decision_task_DD,2021.2.3,iPhone,30.3030303,,,,,,,,,,0.868,1,,,,,,,,,,,,,,,0,-0.26122449,-0.277040816,1,0,0,0.868,button_left_main,-0.26122449,-0.277040816,1,0,0,,0,97,97,131,1,NACES,LB,old,z,./images/NACESLB.png,,,,,,,,,,,,,,,,,,,,,,,,,,,,,,,,,
,,,,,,,,,,,,,,,,,611334fbb359c699d561b029,18,2022-02-12_16h58.40.956,lexical_decision_task_DD,2021.2.3,iPhone,30.3030303,,,,,,,,,,0.664,1,,,,,,,,,,,,,,,0,0.279591837,-0.279081633,1,0,0,0.664,button_right_main,0.279591837,-0.279081633,1,0,0,,0,98,98,3,1,FINGER,C,old,m,./images/FINGER.png,,,,,,,,,,,,,,,,,,,,,,,,,,,,,,,,,
,,,,,,,,,,,,,,,,,611334fbb359c699d561b029,18,2022-02-12_16h58.40.956,lexical_decision_task_DD,2021.2.3,iPhone,30.3030303,,,,,,,,,,0.732,1,,,,,,,,,,,,,,,0,0.310204082,-0.285204082,1,0,0,0.732,button_right_main,0.310204082,-0.285204082,1,0,0,,0,99,99,24,1,SCREW,C,old,m,./images/SCREW.png,,,,,,,,,,,,,,,,,,,,,,,,,,,,,,,,,
,,,,,,,,,,,,,,,,,611334fbb359c699d561b029,18,2022-02-12_16h58.40.956,lexical_decision_task_DD,2021.2.3,iPhone,30.3030303,,,,,,,,,,0.73,1,,,,,,,,,,,,,,,0,-0.287755102,-0.332142857,1,0,0,0.73,button_left_main,-0.287755102,-0.332142857,1,0,0,,0,100,100,89,1,DRIEK,LB,old,z,./images/DRIEKLB.png,,,,,,,,,,,,,,,,,,,,,,,,,,,,,,,,,
,,,,,,,,,,,,,,,,,611334fbb359c699d561b029,18,2022-02-12_16h58.40.956,lexical_decision_task_DD,2021.2.3,iPhone,30.3030303,,,,,,,,,,1.297,1,,,,,,,,,,,,,,,0,-0.268367347,-0.350510204,1,0,0,1.297,button_left_main,-0.268367347,-0.350510204,1,0,0,,0,101,101,166,1,SHORY,HB,old,z,./images/SHORYHB.png,,,,,,,,,,,,,,,,,,,,,,,,,,,,,,,,,
,,,,,,,,,,,,,,,,,611334fbb359c699d561b029,18,2022-02-12_16h58.40.956,lexical_decision_task_DD,2021.2.3,iPhone,30.3030303,,,,,,,,,,0.664,1,,,,,,,,,,,,,,,0,-0.248979592,-0.314795918,1,0,0,0.664,button_left_main,-0.248979592,-0.314795918,1,0,0,,0,102,102,117,1,STEEG,C,old,z,./images/STEEG.png,,,,,,,,,,,,,,,,,,,,,,,,,,,,,,,,,
,,,,,,,,,,,,,,,,,611334fbb359c699d561b029,18,2022-02-12_16h58.40.956,lexical_decision_task_DD,2021.2.3,iPhone,30.3030303,,,,,,,,,,1.133,1,,,,,,,,,,,,,,,0,0.289795918,-0.308673469,1,0,0,1.133,button_right_main,0.289795918,-0.308673469,1,0,0,,0,103,103,37,1,BIRTH,HB,old,m,./images/BIRTHHB.png,,,,,,,,,,,,,,,,,,,,,,,,,,,,,,,,,
,,,,,,,,,,,,,,,,,611334fbb359c699d561b029,18,2022-02-12_16h58.40.956,lexical_decision_task_DD,2021.2.3,iPhone,30.3030303,,,,,,,,,,0.664,1,,,,,,,,,,,,,,,0,-0.259183673,-0.328061224,1,0,0,0.664,button_left_main,-0.259183673,-0.328061224,1,0,0,,0,104,104,113,1,LINEW,LB,old,z,./images/LINEWLB.png,,,,,,,,,,,,,,,,,,,,,,,,,,,,,,,,,
,,,,,,,,,,,,,,,,,611334fbb359c699d561b029,18,2022-02-12_16h58.40.956,lexical_decision_task_DD,2021.2.3,iPhone,30.3030303,,,,,,,,,,0.667,1,,,,,,,,,,,,,,,0,-0.248979592,-0.329081633,1,0,0,0.667,button_left_main,-0.248979592,-0.329081633,1,0,0,,0,105,105,140,1,DOVET,LB,old,z,./images/DOVETLB.png,,,,,,,,,,,,,,,,,,,,,,,,,,,,,,,,,
,,,,,,,,,,,,,,,,,611334fbb359c699d561b029,18,2022-02-12_16h58.40.956,lexical_decision_task_DD,2021.2.3,iPhone,30.3030303,,,,,,,,,,0.768,1,,,,,,,,,,,,,,,0,0.305102041,-0.323979592,1,0,0,0.768,button_right_main,0.305102041,-0.323979592,1,0,0,,0,106,106,4,1,MUSCLE,HB,old,m,./images/MUSCLEHB.png,,,,,,,,,,,,,,,,,,,,,,,,,,,,,,,,,
,,,,,,,,,,,,,,,,,611334fbb359c699d561b029,18,2022-02-12_16h58.40.956,lexical_decision_task_DD,2021.2.3,iPhone,30.3030303,,,,,,,,,,0.802,1,,,,,,,,,,,,,,,0,-0.265306122,-0.318877551,1,0,0,0.802,button_left_main,-0.265306122,-0.318877551,1,0,0,,0,107,107,109,1,BURGE,HB,old,z,./images/BURGEHB.png,,,,,,,,,,,,,,,,,,,,,,,,,,,,,,,,,
,,,,,,,,,,,,,,,,,611334fbb359c699d561b029,18,2022-02-12_16h58.40.956,lexical_decision_task_DD,2021.2.3,iPhone,30.3030303,,,,,,,,,,0.663,1,,,,,,,,,,,,,,,0,-0.273469388,-0.317857143,1,0,0,0.663,button_left_main,-0.273469388,-0.317857143,1,0,0,,0,108,108,90,1,NEAST,C,old,z,./images/NEAST.png,,,,,,,,,,,,,,,,,,,,,,,,,,,,,,,,,
,,,,,,,,,,,,,,,,,611334fbb359c699d561b029,18,2022-02-12_16h58.40.956,lexical_decision_task_DD,2021.2.3,iPhone,30.3030303,,,,,,,,,,0.798,1,,,,,,,,,,,,,,,0,0.298979592,-0.299489796,1,0,0,0.798,button_right_main,0.298979592,-0.299489796,1,0,0,,0,109,109,79,1,CRUST,HB,old,m,./images/CRUSTHB.png,,,,,,,,,,,,,,,,,,,,,,,,,,,,,,,,,
,,,,,,,,,,,,,,,,,611334fbb359c699d561b029,18,2022-02-12_16h58.40.956,lexical_decision_task_DD,2021.2.3,iPhone,30.3030303,,,,,,,,,,0.564,1,,,,,,,,,,,,,,,0,0.317346939,-0.268877551,1,0,0,0.564,button_right_main,0.317346939,-0.268877551,1,0,0,,0,110,110,14,1,PICKLE,LB,old,m,./images/PICKLELB.png,,,,,,,,,,,,,,,,,,,,,,,,,,,,,,,,,
,,,,,,,,,,,,,,,,,611334fbb359c699d561b029,18,2022-02-12_16h58.40.956,lexical_decision_task_DD,2021.2.3,iPhone,30.3030303,,,,,,,,,,0.831,1,,,,,,,,,,,,,,,0,0.283673469,-0.246428571,1,0,0,0.831,button_right_main,0.283673469,-0.246428571,1,0,0,,0,111,111,19,1,DOUGH,HB,old,m,./images/DOUGHHB.png,,,,,,,,,,,,,,,,,,,,,,,,,,,,,,,,,
,,,,,,,,,,,,,,,,,611334fbb359c699d561b029,18,2022-02-12_16h58.40.956,lexical_decision_task_DD,2021.2.3,iPhone,30.3030303,,,,,,,,,,0.564,1,,,,,,,,,,,,,,,0,0.278571429,-0.29744898,1,0,0,0.564,button_right_main,0.278571429,-0.29744898,1,0,0,,0,112,112,48,1,SPORT,C,old,m,./images/SPORT.png,,,,,,,,,,,,,,,,,,,,,,,,,,,,,,,,,
,,,,,,,,,,,,,,,,,611334fbb359c699d561b029,18,2022-02-12_16h58.40.956,lexical_decision_task_DD,2021.2.3,iPhone,30.3030303,,,,,,,,,,0.764,1,,,,,,,,,,,,,,,0,-0.273469388,-0.312755102,1,0,0,0.764,button_left_main,-0.273469388,-0.312755102,1,0,0,,0,113,113,161,1,BLAPS,LB,old,z,./images/BLAPSLB.png,,,,,,,,,,,,,,,,,,,,,,,,,,,,,,,,,
,,,,,,,,,,,,,,,,,611334fbb359c699d561b029,18,2022-02-12_16h58.40.956,lexical_decision_task_DD,2021.2.3,iPhone,30.3030303,,,,,,,,,,0.698,1,,,,,,,,,,,,,,,0,-0.262244898,-0.277040816,1,0,0,0.698,button_left_main,-0.262244898,-0.277040816,1,0,0,,0,114,114,111,1,HOSSE,C,old,z,./images/HOSSE.png,,,,,,,,,,,,,,,,,,,,,,,,,,,,,,,,,
,,,,,,,,,,,,,,,,,611334fbb359c699d561b029,18,2022-02-12_16h58.40.956,lexical_decision_task_DD,2021.2.3,iPhone,30.3030303,,,,,,,,,,0.635,1,,,,,,,,,,,,,,,0,0.308163265,-0.288265306,1,0,0,0.635,button_right_main,0.308163265,-0.288265306,1,0,0,,0,115,115,54,1,TRIPOD,C,old,m,./images/TRIPOD.png,,,,,,,,,,,,,,,,,,,,,,,,,,,,,,,,,
,,,,,,,,,,,,,,,,,611334fbb359c699d561b029,18,2022-02-12_16h58.40.956,lexical_decision_task_DD,2021.2.3,iPhone,30.3030303,,,,,,,,,,0.865,1,,,,,,,,,,,,,,,0,-0.281632653,-0.28622449,1,0,0,0.865,button_left_main,-0.281632653,-0.28622449,1,0,0,,0,116,116,123,1,SEDGE,C,old,z,./images/SEDGE.png,,,,,,,,,,,,,,,,,,,,,,,,,,,,,,,,,
,,,,,,,,,,,,,,,,,611334fbb359c699d561b029,18,2022-02-12_16h58.40.956,lexical_decision_task_DD,2021.2.3,iPhone,30.3030303,,,,,,,,,,0.631,0,,,,,,,,,,,,,,,0,0.303061224,-0.268877551,1,0,0,0.631,button_right_main,0.303061224,-0.268877551,1,0,0,,0,117,117,110,1,CRUNK,LB,old,z,./images/CRUNKLB.png,,,,,,,,,,,,,,,,,,,,,,,,,,,,,,,,,
,,,,,,,,,,,,,,,,,611334fbb359c699d561b029,18,2022-02-12_16h58.40.956,lexical_decision_task_DD,2021.2.3,iPhone,30.3030303,,,,,,,,,,0.698,1,,,,,,,,,,,,,,,0,0.283673469,-0.316836735,1,0,0,0.698,button_right_main,0.283673469,-0.316836735,1,0,0,,0,118,118,51,1,ONION,C,old,m,./images/ONION.png,,,,,,,,,,,,,,,,,,,,,,,,,,,,,,,,,
,,,,,,,,,,,,,,,,,611334fbb359c699d561b029,18,2022-02-12_16h58.40.956,lexical_decision_task_DD,2021.2.3,iPhone,30.3030303,,,,,,,,,,0.531,1,,,,,,,,,,,,,,,0,0.301020408,-0.317857143,1,0,0,0.531,button_right_main,0.301020408,-0.317857143,1,0,0,,0,119,119,2,1,BEARD,LB,old,m,./images/BEARDLB.png,,,,,,,,,,,,,,,,,,,,,,,,,,,,,,,,,
,,,,,,,,,,,,,,,,,611334fbb359c699d561b029,18,2022-02-12_16h58.40.956,lexical_decision_task_DD,2021.2.3,iPhone,30.3030303,,,,,,,,,,0.7,1,,,,,,,,,,,,,,,0,0.305102041,-0.309693878,1,0,0,0.7,button_right_main,0.305102041,-0.309693878,1,0,0,,0,120,120,9,1,RHINO,C,old,m,./images/RHINO.png,,,,,,,,,,,,,,,,,,,,,,,,,,,,,,,,,
,,,,,,,,,,,,,,,,,611334fbb359c699d561b029,18,2022-02-12_16h58.40.956,lexical_decision_task_DD,2021.2.3,iPhone,30.3030303,,,,,,,,,,0.735,1,,,,,,,,,,,,,,,0,-0.278571429,-0.298469388,1,0,0,0.735,button_left_main,-0.278571429,-0.298469388,1,0,0,,0,121,121,125,1,MOOKY,LB,old,z,./images/MOOKYLB.png,,,,,,,,,,,,,,,,,,,,,,,,,,,,,,,,,
,,,,,,,,,,,,,,,,,611334fbb359c699d561b029,18,2022-02-12_16h58.40.956,lexical_decision_task_DD,2021.2.3,iPhone,30.3030303,,,,,,,,,,0.731,0,,,,,,,,,,,,,,,0,0.305102041,-0.296428571,1,0,0,0.731,button_right_main,0.305102041,-0.296428571,1,0,0,,0,122,122,85,1,CHULK,HB,old,z,./images/CHULKHB.png,,,,,,,,,,,,,,,,,,,,,,,,,,,,,,,,,
,,,,,,,,,,,,,,,,,611334fbb359c699d561b029,18,2022-02-12_16h58.40.956,lexical_decision_task_DD,2021.2.3,iPhone,30.3030303,,,,,,,,,,0.831,1,,,,,,,,,,,,,,,0,-0.282653061,-0.284183673,1,0,0,0.831,button_left_main,-0.282653061,-0.284183673,1,0,0,,0,123,123,92,1,PAIMS,LB,old,z,./images/PAIMSLB.png,,,,,,,,,,,,,,,,,,,,,,,,,,,,,,,,,
,,,,,,,,,,,,,,,,,611334fbb359c699d561b029,18,2022-02-12_16h58.40.956,lexical_decision_task_DD,2021.2.3,iPhone,30.3030303,,,,,,,,,,0.995,1,,,,,,,,,,,,,,,0,0.296938776,-0.264795918,1,0,0,0.995,button_right_main,0.296938776,-0.264795918,1,0,0,,0,124,124,16,1,PENCE,HB,old,m,./images/PENCEHB.png,,,,,,,,,,,,,,,,,,,,,,,,,,,,,,,,,
,,,,,,,,,,,,,,,,,611334fbb359c699d561b029,18,2022-02-12_16h58.40.956,lexical_decision_task_DD,2021.2.3,iPhone,30.3030303,,,,,,,,,,0.73,1,,,,,,,,,,,,,,,0,-0.297959184,-0.291326531,1,0,0,0.73,button_left_main,0.058163265,-0.357653061,1,0,0,,0,125,125,147,1,ZOLES,C,old,z,./images/ZOLES.png,break_done_button,,,,,,,,,,,,,,,,,,,,,,,,,,,,,,,,
,,,,,,,,,,,,,,,,,611334fbb359c699d561b029,18,2022-02-12_16h58.40.956,lexical_decision_task_DD,2021.2.3,iPhone,30.3030303,,,,,,,,,,0.997,1,,,,,,,,,,,,,,,0,0.283673469,-0.291326531,1,0,0,0.997,button_right_main,0.283673469,-0.291326531,1,0,0,,0,126,126,7,1,PAINT,HB,old,m,./images/PAINTHB.png,,,,,,,,,,,,,,,,,,,,,,,,,,,,,,,,,
,,,,,,,,,,,,,,,,,611334fbb359c699d561b029,18,2022-02-12_16h58.40.956,lexical_decision_task_DD,2021.2.3,iPhone,30.3030303,,,,,,,,,,0.597,1,,,,,,,,,,,,,,,0,0.114285714,-0.301530612,1,0,0,0.597,button_right_main,0.313265306,-0.318877551,1,0,0,,0,127,127,45,1,KITTEN,C,old,m,./images/KITTEN.png,,,,,,,,,,,,,,,,,,,,,,,,,,,,,,,,,
,,,,,,,,,,,,,,,,,611334fbb359c699d561b029,18,2022-02-12_16h58.40.956,lexical_decision_task_DD,2021.2.3,iPhone,30.3030303,,,,,,,,,,0.598,1,,,,,,,,,,,,,,,0,0.265306122,-0.261734694,1,0,0,0.598,button_right_main,0.265306122,-0.261734694,1,0,0,,0,128,128,5,1,PASTA,LB,old,m,./images/PASTALB.png,,,,,,,,,,,,,,,,,,,,,,,,,,,,,,,,,
,,,,,,,,,,,,,,,,,611334fbb359c699d561b029,18,2022-02-12_16h58.40.956,lexical_decision_task_DD,2021.2.3,iPhone,30.3030303,,,,,,,,,,0.634,1,,,,,,,,,,,,,,,0,-0.22755102,-0.246428571,1,0,0,0.634,button_left_main,-0.22755102,-0.246428571,1,0,0,,0,129,129,135,1,JOODY,C,old,z,./images/JOODY.png,,,,,,,,,,,,,,,,,,,,,,,,,,,,,,,,,
,,,,,,,,,,,,,,,,,611334fbb359c699d561b029,18,2022-02-12_16h58.40.956,lexical_decision_task_DD,2021.2.3,iPhone,30.3030303,,,,,,,,,,0.698,1,,,,,,,,,,,,,,,0,-0.26122449,-0.258673469,1,0,0,0.698,button_left_main,-0.26122449,-0.258673469,1,0,0,,0,130,130,149,1,VEASE,LB,old,z,./images/VEASELB.png,,,,,,,,,,,,,,,,,,,,,,,,,,,,,,,,,
,,,,,,,,,,,,,,,,,611334fbb359c699d561b029,18,2022-02-12_16h58.40.956,lexical_decision_task_DD,2021.2.3,iPhone,30.3030303,,,,,,,,,,0.632,1,,,,,,,,,,,,,,,0,0.279591837,-0.285204082,1,0,0,0.632,button_right_main,0.279591837,-0.285204082,1,0,0,,0,131,131,23,1,WALRUS,LB,old,m,./images/WALRUSLB.png,,,,,,,,,,,,,,,,,,,,,,,,,,,,,,,,,
,,,,,,,,,,,,,,,,,611334fbb359c699d561b029,18,2022-02-12_16h58.40.956,lexical_decision_task_DD,2021.2.3,iPhone,30.3030303,,,,,,,,,,1.101,1,,,,,,,,,,,,,,,0,-0.264285714,-0.29744898,1,0,0,1.101,button_left_main,-0.264285714,-0.29744898,1,0,0,,0,132,132,91,1,SHENS,HB,old,z,./images/SHENSHB.png,,,,,,,,,,,,,,,,,,,,,,,,,,,,,,,,,
,,,,,,,,,,,,,,,,,611334fbb359c699d561b029,18,2022-02-12_16h58.40.956,lexical_decision_task_DD,2021.2.3,iPhone,30.3030303,,,,,,,,,,0.6,1,,,,,,,,,,,,,,,0,0.284693878,-0.278061224,1,0,0,0.6,button_right_main,0.284693878,-0.278061224,1,0,0,,0,133,133,36,1,THROAT,C,old,m,./images/THROAT.png,,,,,,,,,,,,,,,,,,,,,,,,,,,,,,,,,
,,,,,,,,,,,,,,,,,611334fbb359c699d561b029,18,2022-02-12_16h58.40.956,lexical_decision_task_DD,2021.2.3,iPhone,30.3030303,,,,,,,,,,0.697,1,,,,,,,,,,,,,,,0,0.268367347,-0.272959184,1,0,0,0.697,button_right_main,0.268367347,-0.272959184,1,0,0,,0,134,134,83,1,JUNGLE,LB,old,m,./images/JUNGLELB.png,,,,,,,,,,,,,,,,,,,,,,,,,,,,,,,,,
,,,,,,,,,,,,,,,,,611334fbb359c699d561b029,18,2022-02-12_16h58.40.956,lexical_decision_task_DD,2021.2.3,iPhone,30.3030303,,,,,,,,,,0.964,1,,,,,,,,,,,,,,,0,0.284693878,-0.231122449,1,0,0,0.964,button_right_main,0.284693878,-0.231122449,1,0,0,,0,135,135,68,1,TORCH,LB,old,m,./images/TORCHLB.png,,,,,,,,,,,,,,,,,,,,,,,,,,,,,,,,,
,,,,,,,,,,,,,,,,,611334fbb359c699d561b029,18,2022-02-12_16h58.40.956,lexical_decision_task_DD,2021.2.3,iPhone,30.3030303,,,,,,,,,,0.865,1,,,,,,,,,,,,,,,0,-0.264285714,-0.277040816,1,0,0,0.865,button_left_main,-0.264285714,-0.277040816,1,0,0,,0,136,136,120,1,RINED,C,old,z,./images/RINED.png,,,,,,,,,,,,,,,,,,,,,,,,,,,,,,,,,
,,,,,,,,,,,,,,,,,611334fbb359c699d561b029,18,2022-02-12_16h58.40.956,lexical_decision_task_DD,2021.2.3,iPhone,30.3030303,,,,,,,,,,0.764,1,,,,,,,,,,,,,,,0,-0.247959184,-0.271938776,1,0,0,0.764,button_left_main,-0.247959184,-0.271938776,1,0,0,,0,137,137,129,1,PRANS,C,old,z,./images/PRANS.png,,,,,,,,,,,,,,,,,,,,,,,,,,,,,,,,,
,,,,,,,,,,,,,,,,,611334fbb359c699d561b029,18,2022-02-12_16h58.40.956,lexical_decision_task_DD,2021.2.3,iPhone,30.3030303,,,,,,,,,,1.267,1,,,,,,,,,,,,,,,0,0.291836735,-0.253571429,1,0,0,1.267,button_right_main,0.291836735,-0.253571429,1,0,0,,0,138,138,38,1,LADDER,LB,old,m,./images/LADDERLB.png,,,,,,,,,,,,,,,,,,,,,,,,,,,,,,,,,
,,,,,,,,,,,,,,,,,611334fbb359c699d561b029,18,2022-02-12_16h58.40.956,lexical_decision_task_DD,2021.2.3,iPhone,30.3030303,,,,,,,,,,1.498,1,,,,,,,,,,,,,,,0,0.287755102,-0.268877551,1,0,0,1.498,button_right_main,0.287755102,-0.268877551,1,0,0,,0,139,139,29,1,CRUMB,LB,old,m,./images/CRUMBLB.png,,,,,,,,,,,,,,,,,,,,,,,,,,,,,,,,,
,,,,,,,,,,,,,,,,,611334fbb359c699d561b029,18,2022-02-12_16h58.40.956,lexical_decision_task_DD,2021.2.3,iPhone,30.3030303,,,,,,,,,,0.763,1,,,,,,,,,,,,,,,0,-0.287755102,-0.276020408,1,0,0,0.763,button_left_main,-0.287755102,-0.276020408,1,0,0,,0,140,140,116,1,BALGY,LB,old,z,./images/BALGYLB.png,,,,,,,,,,,,,,,,,,,,,,,,,,,,,,,,,
,,,,,,,,,,,,,,,,,611334fbb359c699d561b029,18,2022-02-12_16h58.40.956,lexical_decision_task_DD,2021.2.3,iPhone,30.3030303,,,,,,,,,,0.665,1,,,,,,,,,,,,,,,0,0.241836735,-0.288265306,1,0,0,0.665,button_right_main,0.241836735,-0.288265306,1,0,0,,0,141,141,6,1,SQUARE,C,old,m,./images/SQUARE.png,,,,,,,,,,,,,,,,,,,,,,,,,,,,,,,,,
,,,,,,,,,,,,,,,,,611334fbb359c699d561b029,18,2022-02-12_16h58.40.956,lexical_decision_task_DD,2021.2.3,iPhone,30.3030303,,,,,,,,,,1.067,0,,,,,,,,,,,,,,,0,-0.255102041,-0.282142857,1,0,0,1.067,button_left_main,-0.255102041,-0.282142857,1,0,0,,0,142,142,61,1,CANDLE,HB,old,m,./images/CANDLEHB.png,,,,,,,,,,,,,,,,,,,,,,,,,,,,,,,,,
,,,,,,,,,,,,,,,,,611334fbb359c699d561b029,18,2022-02-12_16h58.40.956,lexical_decision_task_DD,2021.2.3,iPhone,30.3030303,,,,,,,,,,0.765,1,,,,,,,,,,,,,,,0,0.290816327,-0.237244898,1,0,0,0.765,button_right_main,0.290816327,-0.237244898,1,0,0,,0,143,143,10,1,BELLY,HB,old,m,./images/BELLYHB.png,,,,,,,,,,,,,,,,,,,,,,,,,,,,,,,,,
,,,,,,,,,,,,,,,,,611334fbb359c699d561b029,18,2022-02-12_16h58.40.956,lexical_decision_task_DD,2021.2.3,iPhone,30.3030303,,,,,,,,,,1.431,1,,,,,,,,,,,,,,,0,0.297959184,-0.269897959,1,0,0,1.431,button_right_main,0.297959184,-0.269897959,1,0,0,,0,144,144,43,1,MOSQUE,HB,old,m,./images/MOSQUEHB.png,,,,,,,,,,,,,,,,,,,,,,,,,,,,,,,,,
,,,,,,,,,,,,,,,,,611334fbb359c699d561b029,18,2022-02-12_16h58.40.956,lexical_decision_task_DD,2021.2.3,iPhone,30.3030303,,,,,,,,,,0.798,1,,,,,,,,,,,,,,,0,-0.271428571,-0.292346939,1,0,0,0.798,button_left_main,-0.271428571,-0.292346939,1,0,0,,0,145,145,102,1,DULLE,C,old,z,./images/DULLE.png,,,,,,,,,,,,,,,,,,,,,,,,,,,,,,,,,
,,,,,,,,,,,,,,,,,611334fbb359c699d561b029,18,2022-02-12_16h58.40.956,lexical_decision_task_DD,2021.2.3,iPhone,30.3030303,,,,,,,,,,0.864,1,,,,,,,,,,,,,,,0,-0.262244898,-0.327040816,1,0,0,0.864,button_left_main,-0.262244898,-0.327040816,1,0,0,,0,146,146,134,1,TROSS,LB,old,z,./images/TROSSLB.png,,,,,,,,,,,,,,,,,,,,,,,,,,,,,,,,,
,,,,,,,,,,,,,,,,,611334fbb359c699d561b029,18,2022-02-12_16h58.40.956,lexical_decision_task_DD,2021.2.3,iPhone,30.3030303,,,,,,,,,,1.23,1,,,,,,,,,,,,,,,0,-0.26122449,-0.292346939,1,0,0,1.23,button_left_main,-0.26122449,-0.292346939,1,0,0,,0,147,147,88,1,GLUSH,HB,old,z,./images/GLUSHHB.png,,,,,,,,,,,,,,,,,,,,,,,,,,,,,,,,,
,,,,,,,,,,,,,,,,,611334fbb359c699d561b029,18,2022-02-12_16h58.40.956,lexical_decision_task_DD,2021.2.3,iPhone,30.3030303,,,,,,,,,,1.031,1,,,,,,,,,,,,,,,0,-0.221428571,-0.244387755,1,0,0,1.031,button_left_main,-0.221428571,-0.244387755,1,0,0,,0,148,148,160,1,VEETS,HB,old,z,./images/VEETSHB.png,,,,,,,,,,,,,,,,,,,,,,,,,,,,,,,,,
,,,,,,,,,,,,,,,,,611334fbb359c699d561b029,18,2022-02-12_16h58.40.956,lexical_decision_task_DD,2021.2.3,iPhone,30.3030303,,,,,,,,,,0.666,1,,,,,,,,,,,,,,,0,-0.265306122,-0.318877551,1,0,0,0.666,button_left_main,-0.265306122,-0.318877551,1,0,0,,0,149,149,108,1,GRUET,C,old,z,./images/GRUET.png,,,,,,,,,,,,,,,,,,,,,,,,,,,,,,,,,
,,,,,,,,,,,,,,,,,611334fbb359c699d561b029,18,2022-02-12_16h58.40.956,lexical_decision_task_DD,2021.2.3,iPhone,30.3030303,,,,,,,,,,0.698,1,,,,,,,,,,,,,,,0,0.290816327,-0.325,1,0,0,0.698,button_right_main,0.290816327,-0.325,1,0,0,,0,150,150,30,1,STORM,C,old,m,./images/STORM.png,,,,,,,,,,,,,,,,,,,,,,,,,,,,,,,,,
,,,,,,,,,,,,,,,,,611334fbb359c699d561b029,18,2022-02-12_16h58.40.956,lexical_decision_task_DD,2021.2.3,iPhone,30.3030303,,,,,,,,,,0.834,0,,,,,,,,,,,,,,,0,-0.254081633,-0.314795918,1,0,0,0.834,button_left_main,-0.254081633,-0.314795918,1,0,0,,0,151,151,34,1,CANYON,HB,old,m,./images/CANYONHB.png,,,,,,,,,,,,,,,,,,,,,,,,,,,,,,,,,
,,,,,,,,,,,,,,,,,611334fbb359c699d561b029,18,2022-02-12_16h58.40.956,lexical_decision_task_DD,2021.2.3,iPhone,30.3030303,,,,,,,,,,0.765,1,,,,,,,,,,,,,,,0,-0.26122449,-0.294387755,1,0,0,0.765,button_left_main,-0.26122449,-0.294387755,1,0,0,,0,152,152,86,1,AIFED,LB,old,z,./images/AIFEDLB.png,,,,,,,,,,,,,,,,,,,,,,,,,,,,,,,,,
,,,,,,,,,,,,,,,,,611334fbb359c699d561b029,18,2022-02-12_16h58.40.956,lexical_decision_task_DD,2021.2.3,iPhone,30.3030303,,,,,,,,,,0.731,1,,,,,,,,,,,,,,,0,0.247959184,-0.265816327,1,0,0,0.731,button_right_main,0.247959184,-0.265816327,1,0,0,,0,153,153,21,1,KIDNEY,C,old,m,./images/KIDNEY.png,,,,,,,,,,,,,,,,,,,,,,,,,,,,,,,,,
,,,,,,,,,,,,,,,,,611334fbb359c699d561b029,18,2022-02-12_16h58.40.956,lexical_decision_task_DD,2021.2.3,iPhone,30.3030303,,,,,,,,,,1.197,1,,,,,,,,,,,,,,,0,-0.248979592,-0.282142857,1,0,0,1.197,button_left_main,-0.248979592,-0.282142857,1,0,0,,0,154,154,124,1,TUNCH,HB,old,z,./images/TUNCHHB.png,,,,,,,,,,,,,,,,,,,,,,,,,,,,,,,,,
,,,,,,,,,,,,,,,,,611334fbb359c699d561b029,18,2022-02-12_16h58.40.956,lexical_decision_task_DD,2021.2.3,iPhone,30.3030303,,,,,,,,,,0.732,1,,,,,,,,,,,,,,,0,0.308163265,-0.334183673,1,0,0,0.732,button_right_main,0.308163265,-0.334183673,1,0,0,,0,155,155,80,1,WEASEL,LB,old,m,./images/WEASELLB.png,,,,,,,,,,,,,,,,,,,,,,,,,,,,,,,,,
,,,,,,,,,,,,,,,,,611334fbb359c699d561b029,18,2022-02-12_16h58.40.956,lexical_decision_task_DD,2021.2.3,iPhone,30.3030303,,,,,,,,,,1.898,0,,,,,,,,,,,,,,,0,-0.240816327,-0.262755102,1,0,0,1.898,button_left_main,-0.240816327,-0.262755102,1,0,0,,0,156,156,67,1,SAILOR,HB,old,m,./images/SAILORHB.png,,,,,,,,,,,,,,,,,,,,,,,,,,,,,,,,,
,,,,,,,,,,,,,,,,,611334fbb359c699d561b029,18,2022-02-12_16h58.40.956,lexical_decision_task_DD,2021.2.3,iPhone,30.3030303,,,,,,,,,,0.864,1,,,,,,,,,,,,,,,0,-0.209183673,-0.246428571,1,0,0,0.864,button_left_main,-0.209183673,-0.246428571,1,0,0,,0,157,157,96,1,KEAMS,C,old,z,./images/KEAMS.png,,,,,,,,,,,,,,,,,,,,,,,,,,,,,,,,,
,,,,,,,,,,,,,,,,,611334fbb359c699d561b029,18,2022-02-12_16h58.40.956,lexical_decision_task_DD,2021.2.3,iPhone,30.3030303,,,,,,,,,,0.831,1,,,,,,,,,,,,,,,0,-0.247959184,-0.291326531,1,0,0,0.831,button_left_main,-0.247959184,-0.291326531,1,0,0,,0,158,158,158,1,EGECT,LB,old,z,./images/EGECTLB.png,,,,,,,,,,,,,,,,,,,,,,,,,,,,,,,,,
,,,,,,,,,,,,,,,,,611334fbb359c699d561b029,18,2022-02-12_16h58.40.956,lexical_decision_task_DD,2021.2.3,iPhone,30.3030303,,,,,,,,,,0.734,1,,,,,,,,,,,,,,,0,-0.240816327,-0.272959184,1,0,0,0.734,button_left_main,-0.240816327,-0.272959184,1,0,0,,0,159,159,164,1,SGREW,LB,old,z,./images/SGREWLB.png,,,,,,,,,,,,,,,,,,,,,,,,,,,,,,,,,
,,,,,,,,,,,,,,,,,611334fbb359c699d561b029,18,2022-02-12_16h58.40.956,lexical_decision_task_DD,2021.2.3,iPhone,30.3030303,,,,,,,,,,1.831,1,,,,,,,,,,,,,,,0,0.344897959,-0.277040816,1,0,0,1.831,button_right_main,0.344897959,-0.277040816,1,0,0,,0,160,160,76,1,INFANT,HB,old,m,./images/INFANTHB.png,,,,,,,,,,,,,,,,,,,,,,,,,,,,,,,,,
,,,,,,,,,,,,,,,,,611334fbb359c699d561b029,18,2022-02-12_16h58.40.956,lexical_decision_task_DD,2021.2.3,iPhone,30.3030303,,,,,,,,,,0.664,1,,,,,,,,,,,,,,,0,0.307142857,-0.258673469,1,0,0,0.664,button_right_main,0.307142857,-0.258673469,1,0,0,,0,161,161,50,1,MALLET,LB,old,m,./images/MALLETLB.png,,,,,,,,,,,,,,,,,,,,,,,,,,,,,,,,,
,,,,,,,,,,,,,,,,,611334fbb359c699d561b029,18,2022-02-12_16h58.40.956,lexical_decision_task_DD,2021.2.3,iPhone,30.3030303,,,,,,,,,,0.697,1,,,,,,,,,,,,,,,0,0.281632653,-0.246428571,1,0,0,0.697,button_right_main,0.281632653,-0.246428571,1,0,0,,0,162,162,17,1,SKIING,LB,old,m,./images/SKIINGLB.png,,,,,,,,,,,,,,,,,,,,,,,,,,,,,,,,,
,,,,,,,,,,,,,,,,,611334fbb359c699d561b029,18,2022-02-12_16h58.40.956,lexical_decision_task_DD,2021.2.3,iPhone,30.3030303,,,,,,,,,,0.798,1,,,,,,,,,,,,,,,0,0.310204082,-0.23622449,1,0,0,0.798,button_right_main,0.310204082,-0.23622449,1,0,0,,0,163,163,0,1,TOMATO,C,old,m,./images/TOMATO.png,,,,,,,,,,,,,,,,,,,,,,,,,,,,,,,,,
,,,,,,,,,,,,,,,,,611334fbb359c699d561b029,18,2022-02-12_16h58.40.956,lexical_decision_task_DD,2021.2.3,iPhone,30.3030303,,,,,,,,,,0.665,1,,,,,,,,,,,,,,,0,0.297959184,-0.248469388,1,0,0,0.665,button_right_main,0.297959184,-0.248469388,1,0,0,,0,164,164,32,1,BARREL,LB,old,m,./images/BARRELLB.png,,,,,,,,,,,,,,,,,,,,,,,,,,,,,,,,,
,,,,,,,,,,,,,,,,,611334fbb359c699d561b029,18,2022-02-12_16h58.40.956,lexical_decision_task_DD,2021.2.3,iPhone,30.3030303,,,,,,,,,,0.831,1,,,,,,,,,,,,,,,0,-0.264285714,-0.275,1,0,0,0.831,button_left_main,-0.264285714,-0.275,1,0,0,,0,165,165,153,1,CLUPS,C,old,z,./images/CLUPS.png,,,,,,,,,,,,,,,,,,,,,,,,,,,,,,,,,
,,,,,,,,,,,,,,,,,611334fbb359c699d561b029,18,2022-02-12_16h58.40.956,lexical_decision_task_DD,2021.2.3,iPhone,30.3030303,,,,,,,,,,2.334,1,,,,,,,,,,,,,,,0,-0.210204082,-0.257653061,1,0,0,2.334,button_left_main,-0.210204082,-0.257653061,1,0,0,,0,166,166,130,1,CRILL,HB,old,z,./images/CRILLHB.png,,,,,,,,,,,,,,,,,,,,,,,,,,,,,,,,,
,,,,,,,,,,,,,,,,,611334fbb359c699d561b029,18,2022-02-12_16h58.40.956,lexical_decision_task_DD,2021.2.3,iPhone,30.3030303,,,,,,,,,,0.864,1,,,,,,,,,,,,,,,0,0.363265306,-0.255612245,1,0,0,0.864,button_right_main,0.363265306,-0.255612245,1,0,0,,0,167,167,42,1,FOLDER,C,old,m,./images/FOLDER.png,,,,,,,,,,,,,,,,,,,,,,,,,,,,,,,,,
,,,,,,,,,,,,,,,,,611334fbb359c699d561b029,18,2022-02-12_16h58.40.956,lexical_decision_task_DD,2021.2.3,iPhone,30.3030303,,,,,,,,,,,,,,,,,,,,,,,,,,,,,,,,,,,,,,,,,,,,,,How likely will it be that you will recognize the words presented clearly on a scale of 0 (not likely) to 100 (most likely)?,,,,,0.02244898,-0.400510204,1,0,0,jol_adv,5,11.546,0,0,0,0,1,,,,,,,,,,,,,,,,,,,
,,,,,,,,,,,,,,,,,611334fbb359c699d561b029,18,2022-02-12_16h58.40.956,lexical_decision_task_DD,2021.2.3,iPhone,30.3030303,,,,,,,,,,,,,,,,,,,,,,,,,,,,,,,,,,,,,,,,,,,,,,How likely will it be that you will recognize the words presented slighly blurred on a scale of 0 (not likely) to 100 (most likely)?,,,,,,,,,,,6,5.442,0,1,1,1,1,,,,,,,,,,,,,,,,,,,
,,,,,,,,,,,,,,,,,611334fbb359c699d561b029,18,2022-02-12_16h58.40.956,lexical_decision_task_DD,2021.2.3,iPhone,30.3030303,,,,,,,,,,,,,,,,,,,,,,,,,,,,,,,,,,,,,,,,,,,,,,How likely will it be that you will recognize the words presented very blurred on a scale of 0 (not likely) to 100 (most likely)?,,,,,,,,,,,4,5.677,0,2,2,2,1,,,,,,,,,,,,,,,,,,,
,0.186734694,-0.354591837,1,0,0,instr_done_button,,,,,,1,test,"In the next phase you will be presented with the words from the the first phase. Your job is to decide whether you remember seeing the word or not. If you remember seeing the word press ""old"" or type ""m"". If you do not remember seeing the word press ""new"" or type ""z"". Please press the space bar or click on continue to begin. ",,,611334fbb359c699d561b029,18,2022-02-12_16h58.40.956,lexical_decision_task_DD,2021.2.3,iPhone,30.3030303,,,,,,,,,,,,,,,,,,,,,,,,,,,,,,,,,,,,,,,,,,,,,,,,,,,,,,,,,,,,,,,,0,0,0,0,1,,,,,,,,,,,,,,
,0.040816327,-0.383163265,1,0,0,instr_done_button,,,,,,1,test,"In the next phase you will be presented with the words from the the first phase. Your job is to decide whether you remember seeing the word or not. If you remember seeing the word press ""old"" or type ""m"". If you do not remember seeing the word press ""new"" or type ""z"". Please press the space bar or click on continue to begin. ",,,611334fbb359c699d561b029,18,2022-02-12_16h58.40.956,lexical_decision_task_DD,2021.2.3,iPhone,30.3030303,,,,,,,,,,,,,,,,,,,,,,,,,,,,,,,,,,,,,,,,,,,,,,,,,,,,,,,,,,,,,,,,1,0,1,0,1,,,,,,,,,,,,,,
,-0.044897959,-0.389285714,1,0,0,instr_done_button,,,,,,1,test,"In the next phase you will be presented with the words from the the first phase. Your job is to decide whether you remember seeing the word or not. If you remember seeing the word press ""old"" or type ""m"". If you do not remember seeing the word press ""new"" or type ""z"". Please press the space bar or click on continue to begin. ",,,611334fbb359c699d561b029,18,2022-02-12_16h58.40.956,lexical_decision_task_DD,2021.2.3,iPhone,30.3030303,,,,,,,,,,,,,,,,,,,,,,,,,,,,,,,,,,,,,,,,,,,,,,,,,,,,,,,,,,,,,,,,2,0,2,0,1,,,,,,,,,,,,,,
,0.024489796,-0.376020408,1,0,0,instr_done_button,,,,,,1,test,"In the next phase you will be presented with the words from the the first phase. Your job is to decide whether you remember seeing the word or not. If you remember seeing the word press ""old"" or type ""m"". If you do not remember seeing the word press ""new"" or type ""z"". Please press the space bar or click on continue to begin. ",,,611334fbb359c699d561b029,18,2022-02-12_16h58.40.956,lexical_decision_task_DD,2021.2.3,iPhone,30.3030303,,,,,,,,,,,,,,,,,,,,,,,,,,,,,,,,,,,,,,,,,,,,,,,,,,,,,,,,,,,,,,,,3,0,3,0,1,,,,,,,,,,,,,,
,0.083673469,-0.401530612,1,0,0,instr_done_button,,,,,,1,test,"In the next phase you will be presented with the words from the the first phase. Your job is to decide whether you remember seeing the word or not. If you remember seeing the word press ""old"" or type ""m"". If you do not remember seeing the word press ""new"" or type ""z"". Please press the space bar or click on continue to begin. ",,,611334fbb359c699d561b029,18,2022-02-12_16h58.40.956,lexical_decision_task_DD,2021.2.3,iPhone,30.3030303,,,,,,,,,,,,,,,,,,,,,,,,,,,,,,,,,,,,,,,,,,,,,,,,,,,,,,,,,,,,,,,,4,0,4,0,1,,,,,,,,,,,,,,
,,,,,,,,,,,,,,,,,611334fbb359c699d561b029,18,2022-02-12_16h58.40.956,lexical_decision_task_DD,2021.2.3,iPhone,30.3030303,,,,,,,,,,2.19,1,,,,,,,,,,,,,,,,,,,,,,,0.291836735,-0.322959184,1,0,0,,,,,,,SPORT,C,m,m,./images/SPORT.png,,,,,,,,,,,,,,,,,,,,,0,0.291836735,-0.322959184,1,0,0,2.19,button_right_test,0,0,0,48,1
,,,,,,,,,,,,,,,,,611334fbb359c699d561b029,18,2022-02-12_16h58.40.956,lexical_decision_task_DD,2021.2.3,iPhone,30.3030303,,,,,,,,,,1.363,1,,,,,,,,,,,,,,,,,,,,,,,0.323469388,-0.278061224,1,0,0,,,,,,,INFANT,HB,m,m,./images/INFANTHB.png,,,,,,,,,,,,,,,,,,,,,0,0.323469388,-0.278061224,1,0,0,1.363,button_right_test,0,1,1,76,1
,,,,,,,,,,,,,,,,,611334fbb359c699d561b029,18,2022-02-12_16h58.40.956,lexical_decision_task_DD,2021.2.3,iPhone,30.3030303,,,,,,,,,,1.229,1,,,,,,,,,,,,,,,,,,,,,,,-0.274489796,-0.298469388,1,0,0,,,,,,,BUTTER,C,z,m,./images/BUTTER.png,,,,,,,,,,,,,,,,,,,,,0,-0.274489796,-0.298469388,1,0,0,1.229,button_left_test,0,2,2,111,1
,,,,,,,,,,,,,,,,,611334fbb359c699d561b029,18,2022-02-12_16h58.40.956,lexical_decision_task_DD,2021.2.3,iPhone,30.3030303,,,,,,,,,,1.696,1,,,,,,,,,,,,,,,,,,,,,,,-0.290816327,-0.323979592,1,0,0,,,,,,,MUMMY,HB,z,m,./images/MUMMYHB.png,,,,,,,,,,,,,,,,,,,,,0,-0.290816327,-0.323979592,1,0,0,1.696,button_left_test,0,3,3,130,1
,,,,,,,,,,,,,,,,,611334fbb359c699d561b029,18,2022-02-12_16h58.40.956,lexical_decision_task_DD,2021.2.3,iPhone,30.3030303,,,,,,,,,,1.695,1,,,,,,,,,,,,,,,,,,,,,,,-0.27244898,-0.314795918,1,0,0,,,,,,,HEATER,LB,z,m,./images/HEATERLB.png,,,,,,,,,,,,,,,,,,,,,0,-0.27244898,-0.314795918,1,0,0,1.695,button_left_test,0,4,4,140,1
,,,,,,,,,,,,,,,,,611334fbb359c699d561b029,18,2022-02-12_16h58.40.956,lexical_decision_task_DD,2021.2.3,iPhone,30.3030303,,,,,,,,,,0.963,1,,,,,,,,,,,,,,,,,,,,,,,-0.28877551,-0.33622449,1,0,0,,,,,,,CASINO,HB,z,m,./images/CASINOHB.png,,,,,,,,,,,,,,,,,,,,,0,-0.28877551,-0.33622449,1,0,0,0.963,button_left_test,0,5,5,112,1
,,,,,,,,,,,,,,,,,611334fbb359c699d561b029,18,2022-02-12_16h58.40.956,lexical_decision_task_DD,2021.2.3,iPhone,30.3030303,,,,,,,,,,0.729,1,,,,,,,,,,,,,,,,,,,,,,,-0.209183673,-0.276020408,1,0,0,,,,,,,CLOUD,LB,z,m,./images/CLOUDLB.png,,,,,,,,,,,,,,,,,,,,,0,-0.209183673,-0.276020408,1,0,0,0.729,button_left_test,0,6,6,110,1
,,,,,,,,,,,,,,,,,611334fbb359c699d561b029,18,2022-02-12_16h58.40.956,lexical_decision_task_DD,2021.2.3,iPhone,30.3030303,,,,,,,,,,1.094,1,,,,,,,,,,,,,,,,,,,,,,,0.290816327,-0.290306122,1,0,0,,,,,,,STORM,C,m,m,./images/STORM.png,,,,,,,,,,,,,,,,,,,,,0,0.290816327,-0.290306122,1,0,0,1.094,button_right_test,0,7,7,30,1
,,,,,,,,,,,,,,,,,611334fbb359c699d561b029,18,2022-02-12_16h58.40.956,lexical_decision_task_DD,2021.2.3,iPhone,30.3030303,,,,,,,,,,1.029,1,,,,,,,,,,,,,,,,,,,,,,,0.3,-0.288265306,1,0,0,,,,,,,FALCON,HB,m,m,./images/FALCONHB.png,,,,,,,,,,,,,,,,,,,,,0,0.3,-0.288265306,1,0,0,1.029,button_right_test,0,8,8,28,1
,,,,,,,,,,,,,,,,,611334fbb359c699d561b029,18,2022-02-12_16h58.40.956,lexical_decision_task_DD,2021.2.3,iPhone,30.3030303,,,,,,,,,,1.029,0,,,,,,,,,,,,,,,,,,,,,,,-0.256122449,-0.30255102,1,0,0,,,,,,,CEMENT,LB,m,m,./images/CEMENTLB.png,,,,,,,,,,,,,,,,,,,,,0,-0.256122449,-0.30255102,1,0,0,1.029,button_left_test,0,9,9,74,1
,,,,,,,,,,,,,,,,,611334fbb359c699d561b029,18,2022-02-12_16h58.40.956,lexical_decision_task_DD,2021.2.3,iPhone,30.3030303,,,,,,,,,,1.363,0,,,,,,,,,,,,,,,,,,,,,,,0.267346939,-0.292346939,1,0,0,,,,,,,WAGON,HB,z,m,./images/WAGONHB.png,,,,,,,,,,,,,,,,,,,,,0,0.267346939,-0.292346939,1,0,0,1.363,button_right_test,0,10,10,91,1
,,,,,,,,,,,,,,,,,611334fbb359c699d561b029,18,2022-02-12_16h58.40.956,lexical_decision_task_DD,2021.2.3,iPhone,30.3030303,,,,,,,,,,1.329,1,,,,,,,,,,,,,,,,,,,,,,,0.27244898,-0.284183673,1,0,0,,,,,,,PEACH,LB,m,m,./images/PEACHLB.png,,,,,,,,,,,,,,,,,,,,,0,0.27244898,-0.284183673,1,0,0,1.329,button_right_test,0,11,11,35,1
,,,,,,,,,,,,,,,,,611334fbb359c699d561b029,18,2022-02-12_16h58.40.956,lexical_decision_task_DD,2021.2.3,iPhone,30.3030303,,,,,,,,,,1.297,1,,,,,,,,,,,,,,,,,,,,,,,-0.278571429,-0.292346939,1,0,0,,,,,,,VALLEY,LB,z,m,./images/VALLEYLB.png,,,,,,,,,,,,,,,,,,,,,0,-0.278571429,-0.292346939,1,0,0,1.297,button_left_test,0,12,12,152,1
,,,,,,,,,,,,,,,,,611334fbb359c699d561b029,18,2022-02-12_16h58.40.956,lexical_decision_task_DD,2021.2.3,iPhone,30.3030303,,,,,,,,,,1.196,1,,,,,,,,,,,,,,,,,,,,,,,-0.274489796,-0.322959184,1,0,0,,,,,,,SPINE,LB,z,m,./images/SPINELB.png,,,,,,,,,,,,,,,,,,,,,0,-0.274489796,-0.322959184,1,0,0,1.196,button_left_test,0,13,13,149,1
,,,,,,,,,,,,,,,,,611334fbb359c699d561b029,18,2022-02-12_16h58.40.956,lexical_decision_task_DD,2021.2.3,iPhone,30.3030303,,,,,,,,,,0.73,0,,,,,,,,,,,,,,,,,,,,,,,-0.23877551,-0.303571429,1,0,0,,,,,,,PIMPLE,LB,m,m,./images/PIMPLELB.png,,,,,,,,,,,,,,,,,,,,,0,-0.23877551,-0.303571429,1,0,0,0.73,button_left_test,0,14,14,71,1
,,,,,,,,,,,,,,,,,611334fbb359c699d561b029,18,2022-02-12_16h58.40.956,lexical_decision_task_DD,2021.2.3,iPhone,30.3030303,,,,,,,,,,0.732,1,,,,,,,,,,,,,,,,,,,,,,,-0.212244898,-0.272959184,1,0,0,,,,,,,MAMMAL,LB,z,m,./images/MAMMALLB.png,,,,,,,,,,,,,,,,,,,,,0,-0.212244898,-0.272959184,1,0,0,0.732,button_left_test,0,15,15,146,1
,,,,,,,,,,,,,,,,,611334fbb359c699d561b029,18,2022-02-12_16h58.40.956,lexical_decision_task_DD,2021.2.3,iPhone,30.3030303,,,,,,,,,,1.129,0,,,,,,,,,,,,,,,,,,,,,,,0.265306122,-0.291326531,1,0,0,,,,,,,BAKER,C,z,m,./images/BAKER.png,,,,,,,,,,,,,,,,,,,,,0,0.265306122,-0.291326531,1,0,0,1.129,button_right_test,0,16,16,147,1
,,,,,,,,,,,,,,,,,611334fbb359c699d561b029,18,2022-02-12_16h58.40.956,lexical_decision_task_DD,2021.2.3,iPhone,30.3030303,,,,,,,,,,0.862,1,,,,,,,,,,,,,,,,,,,,,,,-0.240816327,-0.29744898,1,0,0,,,,,,,HOCKEY,LB,z,m,./images/HOCKEYLB.png,,,,,,,,,,,,,,,,,,,,,0,-0.240816327,-0.29744898,1,0,0,0.862,button_left_test,0,17,17,116,1
,,,,,,,,,,,,,,,,,611334fbb359c699d561b029,18,2022-02-12_16h58.40.956,lexical_decision_task_DD,2021.2.3,iPhone,30.3030303,,,,,,,,,,0.899,0,,,,,,,,,,,,,,,,,,,,,,,-0.233673469,-0.30255102,1,0,0,,,,,,,PACKET,LB,m,m,./images/PACKETLB.png,,,,,,,,,,,,,,,,,,,,,0,-0.233673469,-0.30255102,1,0,0,0.899,button_left_test,0,18,18,56,1
,,,,,,,,,,,,,,,,,611334fbb359c699d561b029,18,2022-02-12_16h58.40.956,lexical_decision_task_DD,2021.2.3,iPhone,30.3030303,,,,,,,,,,0.696,1,,,,,,,,,,,,,,,,,,,,,,,-0.220408163,-0.298469388,1,0,0,,,,,,,BRUSH,LB,z,m,./images/BRUSHLB.png,,,,,,,,,,,,,,,,,,,,,0,-0.220408163,-0.298469388,1,0,0,0.696,button_left_test,0,19,19,143,1
,,,,,,,,,,,,,,,,,611334fbb359c699d561b029,18,2022-02-12_16h58.40.956,lexical_decision_task_DD,2021.2.3,iPhone,30.3030303,,,,,,,,,,0.632,1,,,,,,,,,,,,,,,,,,,,,,,-0.216326531,-0.312755102,1,0,0,,,,,,,BLOKE,C,z,m,./images/BLOKE.png,,,,,,,,,,,,,,,,,,,,,0,-0.216326531,-0.312755102,1,0,0,0.632,button_left_test,0,20,20,96,1
,,,,,,,,,,,,,,,,,611334fbb359c699d561b029,18,2022-02-12_16h58.40.956,lexical_decision_task_DD,2021.2.3,iPhone,30.3030303,,,,,,,,,,1.13,1,,,,,,,,,,,,,,,,,,,,,,,0.308163265,-0.29744898,1,0,0,,,,,,,WRIST,HB,m,m,./images/WRISTHB.png,,,,,,,,,,,,,,,,,,,,,0,0.308163265,-0.29744898,1,0,0,1.13,button_right_test,0,21,21,25,1
,,,,,,,,,,,,,,,,,611334fbb359c699d561b029,18,2022-02-12_16h58.40.956,lexical_decision_task_DD,2021.2.3,iPhone,30.3030303,,,,,,,,,,1.099,1,,,,,,,,,,,,,,,,,,,,,,,-0.244897959,-0.304591837,1,0,0,,,,,,,BOILER,C,z,m,./images/BOILER.png,,,,,,,,,,,,,,,,,,,,,0,-0.244897959,-0.304591837,1,0,0,1.099,button_left_test,0,22,22,120,1
,,,,,,,,,,,,,,,,,611334fbb359c699d561b029,18,2022-02-12_16h58.40.956,lexical_decision_task_DD,2021.2.3,iPhone,30.3030303,,,,,,,,,,1.563,0,,,,,,,,,,,,,,,,,,,,,,,0.310204082,-0.256632653,1,0,0,,,,,,,BASKET,LB,z,m,./images/BASKETLB.png,,,,,,,,,,,,,,,,,,,,,0,0.310204082,-0.256632653,1,0,0,1.563,button_right_test,0,23,23,128,1
,,,,,,,,,,,,,,,,,611334fbb359c699d561b029,18,2022-02-12_16h58.40.956,lexical_decision_task_DD,2021.2.3,iPhone,30.3030303,,,,,,,,,,1.028,1,,,,,,,,,,,,,,,,,,,,,,,-0.216326531,-0.271938776,1,0,0,,,,,,,DRILL,C,z,m,./images/DRILL.png,,,,,,,,,,,,,,,,,,,,,0,-0.216326531,-0.271938776,1,0,0,1.028,button_left_test,0,24,24,165,1
,,,,,,,,,,,,,,,,,611334fbb359c699d561b029,18,2022-02-12_16h58.40.956,lexical_decision_task_DD,2021.2.3,iPhone,30.3030303,,,,,,,,,,0.929,1,,,,,,,,,,,,,,,,,,,,,,,0.312244898,-0.290306122,1,0,0,,,,,,,MELON,HB,m,m,./images/MELONHB.png,,,,,,,,,,,,,,,,,,,,,0,0.312244898,-0.290306122,1,0,0,0.929,button_right_test,0,25,25,22,1
,,,,,,,,,,,,,,,,,611334fbb359c699d561b029,18,2022-02-12_16h58.40.956,lexical_decision_task_DD,2021.2.3,iPhone,30.3030303,,,,,,,,,,0.929,0,,,,,,,,,,,,,,,,,,,,,,,-0.212244898,-0.26377551,1,0,0,,,,,,,CRUST,HB,m,m,./images/CRUSTHB.png,,,,,,,,,,,,,,,,,,,,,0,-0.212244898,-0.26377551,1,0,0,0.929,button_left_test,0,26,26,79,1
,,,,,,,,,,,,,,,,,611334fbb359c699d561b029,18,2022-02-12_16h58.40.956,lexical_decision_task_DD,2021.2.3,iPhone,30.3030303,,,,,,,,,,0.698,1,,,,,,,,,,,,,,,,,,,,,,,-0.203061224,-0.264795918,1,0,0,,,,,,,COLLAR,C,z,m,./images/COLLAR.png,,,,,,,,,,,,,,,,,,,,,0,-0.203061224,-0.264795918,1,0,0,0.698,button_left_test,0,27,27,99,1
,,,,,,,,,,,,,,,,,611334fbb359c699d561b029,18,2022-02-12_16h58.40.956,lexical_decision_task_DD,2021.2.3,iPhone,30.3030303,,,,,,,,,,0.731,1,,,,,,,,,,,,,,,,,,,,,,,0.320408163,-0.322959184,1,0,0,,,,,,,NOOSE,C,m,m,./images/NOOSE.png,,,,,,,,,,,,,,,,,,,,,0,0.320408163,-0.322959184,1,0,0,0.731,button_right_test,0,28,28,72,1
,,,,,,,,,,,,,,,,,611334fbb359c699d561b029,18,2022-02-12_16h58.40.956,lexical_decision_task_DD,2021.2.3,iPhone,30.3030303,,,,,,,,,,1.197,1,,,,,,,,,,,,,,,,,,,,,,,-0.259183673,-0.271938776,1,0,0,,,,,,,CLIFF,LB,z,m,./images/CLIFFLB.png,,,,,,,,,,,,,,,,,,,,,0,-0.195918367,-0.253571429,1,0,0,1.197,button_left_test,0,29,29,92,1
,,,,,,,,,,,,,,,,,611334fbb359c699d561b029,18,2022-02-12_16h58.40.956,lexical_decision_task_DD,2021.2.3,iPhone,30.3030303,,,,,,,,,,0.663,0,,,,,,,,,,,,,,,,,,,,,,,-0.232653061,-0.259693878,1,0,0,,,,,,,BEARD,LB,m,m,./images/BEARDLB.png,,,,,,,,,,,,,,,,,,,,,0,-0.232653061,-0.259693878,1,0,0,0.663,button_left_test,0,30,30,2,1
,,,,,,,,,,,,,,,,,611334fbb359c699d561b029,18,2022-02-12_16h58.40.956,lexical_decision_task_DD,2021.2.3,iPhone,30.3030303,,,,,,,,,,0.663,1,,,,,,,,,,,,,,,,,,,,,,,-0.216326531,-0.257653061,1,0,0,,,,,,,CLOWN,HB,z,m,./images/CLOWNHB.png,,,,,,,,,,,,,,,,,,,,,0,-0.216326531,-0.257653061,1,0,0,0.663,button_left_test,0,31,31,106,1
,,,,,,,,,,,,,,,,,611334fbb359c699d561b029,18,2022-02-12_16h58.40.956,lexical_decision_task_DD,2021.2.3,iPhone,30.3030303,,,,,,,,,,0.599,1,,,,,,,,,,,,,,,,,,,,,,,-0.207142857,-0.246428571,1,0,0,,,,,,,PLANET,LB,z,m,./images/PLANETLB.png,,,,,,,,,,,,,,,,,,,,,0,-0.207142857,-0.246428571,1,0,0,0.599,button_left_test,0,32,32,164,1
,,,,,,,,,,,,,,,,,611334fbb359c699d561b029,18,2022-02-12_16h58.40.956,lexical_decision_task_DD,2021.2.3,iPhone,30.3030303,,,,,,,,,,0.796,1,,,,,,,,,,,,,,,,,,,,,,,-0.209183673,-0.249489796,1,0,0,,,,,,,ARTIST,HB,z,m,./images/ARTISTHB.png,,,,,,,,,,,,,,,,,,,,,0,-0.189795918,-0.238265306,1,0,0,0.796,button_left_test,0,33,33,145,1
,,,,,,,,,,,,,,,,,611334fbb359c699d561b029,18,2022-02-12_16h58.40.956,lexical_decision_task_DD,2021.2.3,iPhone,30.3030303,,,,,,,,,,0.83,1,,,,,,,,,,,,,,,,,,,,,,,-0.232653061,-0.279081633,1,0,0,,,,,,,DIVER,C,z,m,./images/DIVER.png,,,,,,,,,,,,,,,,,,,,,0,-0.232653061,-0.279081633,1,0,0,0.83,button_left_test,0,34,34,93,1
,,,,,,,,,,,,,,,,,611334fbb359c699d561b029,18,2022-02-12_16h58.40.956,lexical_decision_task_DD,2021.2.3,iPhone,30.3030303,,,,,,,,,,0.963,1,,,,,,,,,,,,,,,,,,,,,,,0.312244898,-0.301530612,1,0,0,,,,,,,GRAIN,C,m,m,./images/GRAIN.png,,,,,,,,,,,,,,,,,,,,,0,0.312244898,-0.301530612,1,0,0,0.963,button_right_test,0,35,35,75,1
,,,,,,,,,,,,,,,,,611334fbb359c699d561b029,18,2022-02-12_16h58.40.956,lexical_decision_task_DD,2021.2.3,iPhone,30.3030303,,,,,,,,,,0.799,1,,,,,,,,,,,,,,,,,,,,,,,0.340816327,-0.309693878,1,0,0,,,,,,,MUFFIN,HB,m,m,./images/MUFFINHB.png,,,,,,,,,,,,,,,,,,,,,0,0.340816327,-0.309693878,1,0,0,0.799,button_right_test,0,36,36,55,1
,,,,,,,,,,,,,,,,,611334fbb359c699d561b029,18,2022-02-12_16h58.40.956,lexical_decision_task_DD,2021.2.3,iPhone,30.3030303,,,,,,,,,,0.762,1,,,,,,,,,,,,,,,,,,,,,,,0.332653061,-0.301530612,1,0,0,,,,,,,BURIAL,LB,m,m,./images/BURIALLB.png,,,,,,,,,,,,,,,,,,,,,0,0.332653061,-0.301530612,1,0,0,0.762,button_right_test,0,37,37,59,1
,,,,,,,,,,,,,,,,,611334fbb359c699d561b029,18,2022-02-12_16h58.40.956,lexical_decision_task_DD,2021.2.3,iPhone,30.3030303,,,,,,,,,,0.729,1,,,,,,,,,,,,,,,,,,,,,,,0.301020408,-0.258673469,1,0,0,,,,,,,PURSE,LB,m,m,./images/PURSELB.png,,,,,,,,,,,,,,,,,,,,,0,0.301020408,-0.258673469,1,0,0,0.729,button_right_test,0,38,38,62,1
,,,,,,,,,,,,,,,,,611334fbb359c699d561b029,18,2022-02-12_16h58.40.956,lexical_decision_task_DD,2021.2.3,iPhone,30.3030303,,,,,,,,,,1.061,1,,,,,,,,,,,,,,,,,,,,,,,-0.228571429,-0.284183673,1,0,0,,,,,,,HAMMER,C,z,m,./images/HAMMER.png,,,,,,,,,,,,,,,,,,,,,0,-0.228571429,-0.284183673,1,0,0,1.061,button_left_test,0,39,39,159,1
,,,,,,,,,,,,,,,,,611334fbb359c699d561b029,18,2022-02-12_16h58.40.956,lexical_decision_task_DD,2021.2.3,iPhone,30.3030303,,,,,,,,,,1.163,1,,,,,,,,,,,,,,,,,,,,,,,-0.214285714,-0.253571429,1,0,0,,,,,,,FERRY,C,z,m,./images/FERRY.png,,,,,,,,,,,,,,,,,,,,,0,-0.214285714,-0.253571429,1,0,0,1.163,button_left_test,0,40,40,141,1
,,,,,,,,,,,,,,,,,611334fbb359c699d561b029,18,2022-02-12_16h58.40.956,lexical_decision_task_DD,2021.2.3,iPhone,30.3030303,,,,,,,,,,0.962,1,,,,,,,,,,,,,,,,,,,,,,,0.104081633,-0.361734694,1,0,0,,,,,,,WEASEL,LB,m,m,./images/WEASELLB.png,break_done_button,,,,,,,,,,,,,,,,,,,,0,0.32244898,-0.294387755,1,0,0,0.962,button_right_test,0,41,41,80,1
,,,,,,,,,,,,,,,,,611334fbb359c699d561b029,18,2022-02-12_16h58.40.956,lexical_decision_task_DD,2021.2.3,iPhone,30.3030303,,,,,,,,,,1.001,1,,,,,,,,,,,,,,,,,,,,,,,0.243877551,-0.232142857,1,0,0,,,,,,,MIRROR,C,m,m,./images/MIRROR.png,,,,,,,,,,,,,,,,,,,,,0,0.243877551,-0.232142857,1,0,0,1.001,button_right_test,0,42,42,63,1
,,,,,,,,,,,,,,,,,611334fbb359c699d561b029,18,2022-02-12_16h58.40.956,lexical_decision_task_DD,2021.2.3,iPhone,30.3030303,,,,,,,,,,0.798,1,,,,,,,,,,,,,,,,,,,,,,,0.226530612,-0.308673469,1,0,0,,,,,,,RHINO,C,m,m,./images/RHINO.png,,,,,,,,,,,,,,,,,,,,,0,0.226530612,-0.308673469,1,0,0,0.798,button_right_test,0,43,43,9,1
,,,,,,,,,,,,,,,,,611334fbb359c699d561b029,18,2022-02-12_16h58.40.956,lexical_decision_task_DD,2021.2.3,iPhone,30.3030303,,,,,,,,,,1.796,0,,,,,,,,,,,,,,,,,,,,,,,-0.256122449,-0.288265306,1,0,0,,,,,,,ONION,C,m,m,./images/ONION.png,,,,,,,,,,,,,,,,,,,,,0,-0.256122449,-0.288265306,1,0,0,1.796,button_left_test,0,44,44,51,1
,,,,,,,,,,,,,,,,,611334fbb359c699d561b029,18,2022-02-12_16h58.40.956,lexical_decision_task_DD,2021.2.3,iPhone,30.3030303,,,,,,,,,,1.032,1,,,,,,,,,,,,,,,,,,,,,,,-0.248979592,-0.283163265,1,0,0,,,,,,,CLOTH,LB,z,m,./images/CLOTHLB.png,,,,,,,,,,,,,,,,,,,,,0,-0.248979592,-0.283163265,1,0,0,1.032,button_left_test,0,45,45,107,1
,,,,,,,,,,,,,,,,,611334fbb359c699d561b029,18,2022-02-12_16h58.40.956,lexical_decision_task_DD,2021.2.3,iPhone,30.3030303,,,,,,,,,,1.131,1,,,,,,,,,,,,,,,,,,,,,,,0.264285714,-0.304591837,1,0,0,,,,,,,MOSQUE,HB,m,m,./images/MOSQUEHB.png,,,,,,,,,,,,,,,,,,,,,0,0.264285714,-0.304591837,1,0,0,1.131,button_right_test,0,46,46,43,1
,,,,,,,,,,,,,,,,,611334fbb359c699d561b029,18,2022-02-12_16h58.40.956,lexical_decision_task_DD,2021.2.3,iPhone,30.3030303,,,,,,,,,,1.899,1,,,,,,,,,,,,,,,,,,,,,,,0.308163265,-0.308673469,1,0,0,,,,,,,SAILOR,HB,m,m,./images/SAILORHB.png,,,,,,,,,,,,,,,,,,,,,0,0.308163265,-0.308673469,1,0,0,1.899,button_right_test,0,47,47,67,1
,,,,,,,,,,,,,,,,,611334fbb359c699d561b029,18,2022-02-12_16h58.40.956,lexical_decision_task_DD,2021.2.3,iPhone,30.3030303,,,,,,,,,,2.596,1,,,,,,,,,,,,,,,,,,,,,,,-0.235714286,-0.303571429,1,0,0,,,,,,,GRAPE,HB,z,m,./images/GRAPEHB.png,,,,,,,,,,,,,,,,,,,,,0,-0.235714286,-0.303571429,1,0,0,2.596,button_left_test,0,48,48,100,1
,,,,,,,,,,,,,,,,,611334fbb359c699d561b029,18,2022-02-12_16h58.40.956,lexical_decision_task_DD,2021.2.3,iPhone,30.3030303,,,,,,,,,,0.862,1,,,,,,,,,,,,,,,,,,,,,,,-0.256122449,-0.334183673,1,0,0,,,,,,,JUMPER,LB,z,m,./images/JUMPERLB.png,,,,,,,,,,,,,,,,,,,,,0,-0.256122449,-0.334183673,1,0,0,0.862,button_left_test,0,49,49,158,1
,,,,,,,,,,,,,,,,,611334fbb359c699d561b029,18,2022-02-12_16h58.40.956,lexical_decision_task_DD,2021.2.3,iPhone,30.3030303,,,,,,,,,,0.863,1,,,,,,,,,,,,,,,,,,,,,,,0.280612245,-0.334183673,1,0,0,,,,,,,SQUARE,C,m,m,./images/SQUARE.png,,,,,,,,,,,,,,,,,,,,,0,0.280612245,-0.334183673,1,0,0,0.863,button_right_test,0,50,50,6,1
,,,,,,,,,,,,,,,,,611334fbb359c699d561b029,18,2022-02-12_16h58.40.956,lexical_decision_task_DD,2021.2.3,iPhone,30.3030303,,,,,,,,,,1.963,1,,,,,,,,,,,,,,,,,,,,,,,-0.245918367,-0.316836735,1,0,0,,,,,,,BAMBOO,LB,z,m,./images/BAMBOOLB.png,,,,,,,,,,,,,,,,,,,,,0,-0.245918367,-0.316836735,1,0,0,1.963,button_left_test,0,51,51,89,1
,,,,,,,,,,,,,,,,,611334fbb359c699d561b029,18,2022-02-12_16h58.40.956,lexical_decision_task_DD,2021.2.3,iPhone,30.3030303,,,,,,,,,,1.163,0,,,,,,,,,,,,,,,,,,,,,,,-0.212244898,-0.295408163,1,0,0,,,,,,,POODLE,C,m,m,./images/POODLE.png,,,,,,,,,,,,,,,,,,,,,0,-0.212244898,-0.295408163,1,0,0,1.163,button_left_test,0,52,52,81,1
,,,,,,,,,,,,,,,,,611334fbb359c699d561b029,18,2022-02-12_16h58.40.956,lexical_decision_task_DD,2021.2.3,iPhone,30.3030303,,,,,,,,,,0.897,1,,,,,,,,,,,,,,,,,,,,,,,-0.212244898,-0.278061224,1,0,0,,,,,,,CHALK,HB,z,m,./images/CHALKHB.png,,,,,,,,,,,,,,,,,,,,,0,-0.212244898,-0.278061224,1,0,0,0.897,button_left_test,0,53,53,109,1
,,,,,,,,,,,,,,,,,611334fbb359c699d561b029,18,2022-02-12_16h58.40.956,lexical_decision_task_DD,2021.2.3,iPhone,30.3030303,,,,,,,,,,0.697,1,,,,,,,,,,,,,,,,,,,,,,,-0.218367347,-0.272959184,1,0,0,,,,,,,ARROW,C,z,m,./images/ARROW.png,,,,,,,,,,,,,,,,,,,,,0,-0.192857143,-0.255612245,1,0,0,0.697,button_left_test,0,54,54,153,1
,,,,,,,,,,,,,,,,,611334fbb359c699d561b029,18,2022-02-12_16h58.40.956,lexical_decision_task_DD,2021.2.3,iPhone,30.3030303,,,,,,,,,,0.662,1,,,,,,,,,,,,,,,,,,,,,,,-0.229591837,-0.323979592,1,0,0,,,,,,,PILOT,LB,z,m,./images/PILOTLB.png,,,,,,,,,,,,,,,,,,,,,0,-0.229591837,-0.323979592,1,0,0,0.662,button_left_test,0,55,55,134,1
,,,,,,,,,,,,,,,,,611334fbb359c699d561b029,18,2022-02-12_16h58.40.956,lexical_decision_task_DD,2021.2.3,iPhone,30.3030303,,,,,,,,,,0.865,1,,,,,,,,,,,,,,,,,,,,,,,0.307142857,-0.294387755,1,0,0,,,,,,,JAGUAR,C,m,m,./images/JAGUAR.png,,,,,,,,,,,,,,,,,,,,,0,0.307142857,-0.294387755,1,0,0,0.865,button_right_test,0,56,56,18,1
,,,,,,,,,,,,,,,,,611334fbb359c699d561b029,18,2022-02-12_16h58.40.956,lexical_decision_task_DD,2021.2.3,iPhone,30.3030303,,,,,,,,,,1.562,1,,,,,,,,,,,,,,,,,,,,,,,-0.267346939,-0.315816327,1,0,0,,,,,,,BROOM,C,z,m,./images/BROOM.png,,,,,,,,,,,,,,,,,,,,,0,-0.267346939,-0.315816327,1,0,0,1.562,button_left_test,0,57,57,162,1
,,,,,,,,,,,,,,,,,611334fbb359c699d561b029,18,2022-02-12_16h58.40.956,lexical_decision_task_DD,2021.2.3,iPhone,30.3030303,,,,,,,,,,1.029,1,,,,,,,,,,,,,,,,,,,,,,,0.273469388,-0.279081633,1,0,0,,,,,,,KIDNEY,C,m,m,./images/KIDNEY.png,,,,,,,,,,,,,,,,,,,,,0,0.273469388,-0.279081633,1,0,0,1.029,button_right_test,0,58,58,21,1
,,,,,,,,,,,,,,,,,611334fbb359c699d561b029,18,2022-02-12_16h58.40.956,lexical_decision_task_DD,2021.2.3,iPhone,30.3030303,,,,,,,,,,1.063,0,,,,,,,,,,,,,,,,,,,,,,,0.252040816,-0.283163265,1,0,0,,,,,,,CURRY,C,z,m,./images/CURRY.png,,,,,,,,,,,,,,,,,,,,,0,0.252040816,-0.283163265,1,0,0,1.063,button_right_test,0,59,59,144,1
,,,,,,,,,,,,,,,,,611334fbb359c699d561b029,18,2022-02-12_16h58.40.956,lexical_decision_task_DD,2021.2.3,iPhone,30.3030303,,,,,,,,,,2.03,1,,,,,,,,,,,,,,,,,,,,,,,-0.291836735,-0.301530612,1,0,0,,,,,,,DANCER,C,z,m,./images/DANCER.png,,,,,,,,,,,,,,,,,,,,,0,-0.291836735,-0.301530612,1,0,0,2.03,button_left_test,0,60,60,105,1
,,,,,,,,,,,,,,,,,611334fbb359c699d561b029,18,2022-02-12_16h58.40.956,lexical_decision_task_DD,2021.2.3,iPhone,30.3030303,,,,,,,,,,1.595,1,,,,,,,,,,,,,,,,,,,,,,,0.330612245,-0.28622449,1,0,0,,,,,,,MOOSE,C,m,m,./images/MOOSE.png,,,,,,,,,,,,,,,,,,,,,0,0.330612245,-0.28622449,1,0,0,1.595,button_right_test,0,61,61,57,1
,,,,,,,,,,,,,,,,,611334fbb359c699d561b029,18,2022-02-12_16h58.40.956,lexical_decision_task_DD,2021.2.3,iPhone,30.3030303,,,,,,,,,,1.465,1,,,,,,,,,,,,,,,,,,,,,,,0.326530612,-0.258673469,1,0,0,,,,,,,THROAT,C,m,m,./images/THROAT.png,,,,,,,,,,,,,,,,,,,,,0,0.326530612,-0.258673469,1,0,0,1.465,button_right_test,0,62,62,36,1
,,,,,,,,,,,,,,,,,611334fbb359c699d561b029,18,2022-02-12_16h58.40.956,lexical_decision_task_DD,2021.2.3,iPhone,30.3030303,,,,,,,,,,0.864,1,,,,,,,,,,,,,,,,,,,,,,,0.244897959,-0.279081633,1,0,0,,,,,,,PICKLE,LB,m,m,./images/PICKLELB.png,,,,,,,,,,,,,,,,,,,,,0,0.244897959,-0.279081633,1,0,0,0.864,button_right_test,0,63,63,14,1
,,,,,,,,,,,,,,,,,611334fbb359c699d561b029,18,2022-02-12_16h58.40.956,lexical_decision_task_DD,2021.2.3,iPhone,30.3030303,,,,,,,,,,1.43,1,,,,,,,,,,,,,,,,,,,,,,,-0.259183673,-0.258673469,1,0,0,,,,,,,STATUE,C,z,m,./images/STATUE.png,,,,,,,,,,,,,,,,,,,,,0,-0.259183673,-0.258673469,1,0,0,1.43,button_left_test,0,64,64,150,1
,,,,,,,,,,,,,,,,,611334fbb359c699d561b029,18,2022-02-12_16h58.40.956,lexical_decision_task_DD,2021.2.3,iPhone,30.3030303,,,,,,,,,,0.801,1,,,,,,,,,,,,,,,,,,,,,,,-0.22244898,-0.230102041,1,0,0,,,,,,,MEDAL,LB,z,m,./images/MEDALLB.png,,,,,,,,,,,,,,,,,,,,,0,-0.22244898,-0.230102041,1,0,0,0.801,button_left_test,0,65,65,95,1
,,,,,,,,,,,,,,,,,611334fbb359c699d561b029,18,2022-02-12_16h58.40.956,lexical_decision_task_DD,2021.2.3,iPhone,30.3030303,,,,,,,,,,0.663,1,,,,,,,,,,,,,,,,,,,,,,,-0.271428571,-0.284183673,1,0,0,,,,,,,MIDGET,HB,z,m,./images/MIDGETHB.png,,,,,,,,,,,,,,,,,,,,,0,-0.271428571,-0.284183673,1,0,0,0.663,button_left_test,0,66,66,160,1
,,,,,,,,,,,,,,,,,611334fbb359c699d561b029,18,2022-02-12_16h58.40.956,lexical_decision_task_DD,2021.2.3,iPhone,30.3030303,,,,,,,,,,0.796,1,,,,,,,,,,,,,,,,,,,,,,,-0.271428571,-0.342346939,1,0,0,,,,,,,STOVE,LB,z,m,./images/STOVELB.png,,,,,,,,,,,,,,,,,,,,,0,-0.187755102,-0.269897959,1,0,0,0.796,button_left_test,0,67,67,86,1
,,,,,,,,,,,,,,,,,611334fbb359c699d561b029,18,2022-02-12_16h58.40.956,lexical_decision_task_DD,2021.2.3,iPhone,30.3030303,,,,,,,,,,0.696,1,,,,,,,,,,,,,,,,,,,,,,,-0.205102041,-0.315816327,1,0,0,,,,,,,STEAK,HB,z,m,./images/STEAKHB.png,,,,,,,,,,,,,,,,,,,,,0,-0.205102041,-0.315816327,1,0,0,0.696,button_left_test,0,68,68,115,1
,,,,,,,,,,,,,,,,,611334fbb359c699d561b029,18,2022-02-12_16h58.40.956,lexical_decision_task_DD,2021.2.3,iPhone,30.3030303,,,,,,,,,,1.129,1,,,,,,,,,,,,,,,,,,,,,,,0.316326531,-0.278061224,1,0,0,,,,,,,GREASE,C,m,m,./images/GREASE.png,,,,,,,,,,,,,,,,,,,,,0,0.316326531,-0.278061224,1,0,0,1.129,button_right_test,0,69,69,15,1
,,,,,,,,,,,,,,,,,611334fbb359c699d561b029,18,2022-02-12_16h58.40.956,lexical_decision_task_DD,2021.2.3,iPhone,30.3030303,,,,,,,,,,1.332,1,,,,,,,,,,,,,,,,,,,,,,,-0.219387755,-0.318877551,1,0,0,,,,,,,GRANNY,LB,z,m,./images/GRANNYLB.png,,,,,,,,,,,,,,,,,,,,,0,-0.219387755,-0.318877551,1,0,0,1.332,button_left_test,0,70,70,104,1
,,,,,,,,,,,,,,,,,611334fbb359c699d561b029,18,2022-02-12_16h58.40.956,lexical_decision_task_DD,2021.2.3,iPhone,30.3030303,,,,,,,,,,3.565,1,,,,,,,,,,,,,,,,,,,,,,,0.298979592,-0.323979592,1,0,0,,,,,,,BELLY,HB,m,m,./images/BELLYHB.png,,,,,,,,,,,,,,,,,,,,,0,0.298979592,-0.323979592,1,0,0,3.565,button_right_test,0,71,71,10,1
,,,,,,,,,,,,,,,,,611334fbb359c699d561b029,18,2022-02-12_16h58.40.956,lexical_decision_task_DD,2021.2.3,iPhone,30.3030303,,,,,,,,,,2.795,1,,,,,,,,,,,,,,,,,,,,,,,-0.223469388,-0.321938776,1,0,0,,,,,,,BOXER,HB,z,m,./images/BOXERHB.png,,,,,,,,,,,,,,,,,,,,,0,-0.223469388,-0.321938776,1,0,0,2.795,button_left_test,0,72,72,88,1
,,,,,,,,,,,,,,,,,611334fbb359c699d561b029,18,2022-02-12_16h58.40.956,lexical_decision_task_DD,2021.2.3,iPhone,30.3030303,,,,,,,,,,1.062,1,,,,,,,,,,,,,,,,,,,,,,,-0.259183673,-0.268877551,1,0,0,,,,,,,DONKEY,HB,z,m,./images/DONKEYHB.png,,,,,,,,,,,,,,,,,,,,,0,-0.259183673,-0.268877551,1,0,0,1.062,button_left_test,0,73,73,103,1
,,,,,,,,,,,,,,,,,611334fbb359c699d561b029,18,2022-02-12_16h58.40.956,lexical_decision_task_DD,2021.2.3,iPhone,30.3030303,,,,,,,,,,1.062,1,,,,,,,,,,,,,,,,,,,,,,,0.332653061,-0.262755102,1,0,0,,,,,,,BANNER,HB,m,m,./images/BANNERHB.png,,,,,,,,,,,,,,,,,,,,,0,0.332653061,-0.262755102,1,0,0,1.062,button_right_test,0,74,74,52,1
,,,,,,,,,,,,,,,,,611334fbb359c699d561b029,18,2022-02-12_16h58.40.956,lexical_decision_task_DD,2021.2.3,iPhone,30.3030303,,,,,,,,,,1.566,1,,,,,,,,,,,,,,,,,,,,,,,-0.280612245,-0.320918367,1,0,0,,,,,,,CRATER,C,z,m,./images/CRATER.png,,,,,,,,,,,,,,,,,,,,,0,-0.280612245,-0.320918367,1,0,0,1.566,button_left_test,0,75,75,87,1
,,,,,,,,,,,,,,,,,611334fbb359c699d561b029,18,2022-02-12_16h58.40.956,lexical_decision_task_DD,2021.2.3,iPhone,30.3030303,,,,,,,,,,1.229,1,,,,,,,,,,,,,,,,,,,,,,,-0.240816327,-0.294387755,1,0,0,,,,,,,FLESH,C,z,m,./images/FLESH.png,,,,,,,,,,,,,,,,,,,,,0,-0.240816327,-0.294387755,1,0,0,1.229,button_left_test,0,76,76,108,1
,,,,,,,,,,,,,,,,,611334fbb359c699d561b029,18,2022-02-12_16h58.40.956,lexical_decision_task_DD,2021.2.3,iPhone,30.3030303,,,,,,,,,,1.996,1,,,,,,,,,,,,,,,,,,,,,,,-0.236734694,-0.285204082,1,0,0,,,,,,,PISTOL,LB,z,m,./images/PISTOLLB.png,,,,,,,,,,,,,,,,,,,,,0,-0.236734694,-0.285204082,1,0,0,1.996,button_left_test,0,77,77,113,1
,,,,,,,,,,,,,,,,,611334fbb359c699d561b029,18,2022-02-12_16h58.40.956,lexical_decision_task_DD,2021.2.3,iPhone,30.3030303,,,,,,,,,,1.532,1,,,,,,,,,,,,,,,,,,,,,,,0.319387755,-0.229081633,1,0,0,,,,,,,BONNET,LB,m,m,./images/BONNETLB.png,,,,,,,,,,,,,,,,,,,,,0,0.319387755,-0.229081633,1,0,0,1.532,button_right_test,0,78,78,11,1
,,,,,,,,,,,,,,,,,611334fbb359c699d561b029,18,2022-02-12_16h58.40.956,lexical_decision_task_DD,2021.2.3,iPhone,30.3030303,,,,,,,,,,2.763,1,,,,,,,,,,,,,,,,,,,,,,,0.307142857,-0.25255102,1,0,0,,,,,,,LIZARD,LB,m,m,./images/LIZARDLB.png,,,,,,,,,,,,,,,,,,,,,0,0.307142857,-0.25255102,1,0,0,2.763,button_right_test,0,79,79,44,1
,,,,,,,,,,,,,,,,,611334fbb359c699d561b029,18,2022-02-12_16h58.40.956,lexical_decision_task_DD,2021.2.3,iPhone,30.3030303,,,,,,,,,,0.999,1,,,,,,,,,,,,,,,,,,,,,,,0.293877551,-0.341326531,1,0,0,,,,,,,SWING,HB,m,m,./images/SWINGHB.png,,,,,,,,,,,,,,,,,,,,,0,0.293877551,-0.341326531,1,0,0,0.999,button_right_test,0,80,80,40,1
,,,,,,,,,,,,,,,,,611334fbb359c699d561b029,18,2022-02-12_16h58.40.956,lexical_decision_task_DD,2021.2.3,iPhone,30.3030303,,,,,,,,,,1.729,0,,,,,,,,,,,,,,,,,,,,,,,0.274489796,-0.283163265,1,0,0,,,,,,,FENCE,LB,z,m,./images/FENCELB.png,,,,,,,,,,,,,,,,,,,,,0,0.274489796,-0.283163265,1,0,0,1.729,button_right_test,0,81,81,98,1
,,,,,,,,,,,,,,,,,611334fbb359c699d561b029,18,2022-02-12_16h58.40.956,lexical_decision_task_DD,2021.2.3,iPhone,30.3030303,,,,,,,,,,1.128,1,,,,,,,,,,,,,,,,,,,,,,,-0.258163265,-0.314795918,1,0,0,,,,,,,SHIELD,C,z,m,./images/SHIELD.png,,,,,,,,,,,,,,,,,,,,,0,-0.258163265,-0.314795918,1,0,0,1.128,button_left_test,0,82,82,132,1
,,,,,,,,,,,,,,,,,611334fbb359c699d561b029,18,2022-02-12_16h58.40.956,lexical_decision_task_DD,2021.2.3,iPhone,30.3030303,,,,,,,,,,2.73,0,,,,,,,,,,,,,,,,,,,,,,,0.135714286,-0.384183673,1,0,0,,,,,,,BIRTH,HB,m,m,./images/BIRTHHB.png,break_done_button,,,,,,,,,,,,,,,,,,,,0,-0.286734694,-0.331122449,1,0,0,2.73,button_left_test,0,83,83,37,1
,,,,,,,,,,,,,,,,,611334fbb359c699d561b029,18,2022-02-12_16h58.40.956,lexical_decision_task_DD,2021.2.3,iPhone,30.3030303,,,,,,,,,,4.699,1,,,,,,,,,,,,,,,,,,,,,,,0.389795918,-0.276020408,1,0,0,,,,,,,FOLDER,C,m,m,./images/FOLDER.png,,,,,,,,,,,,,,,,,,,,,0,0.389795918,-0.276020408,1,0,0,4.699,button_right_test,0,84,84,42,1
,,,,,,,,,,,,,,,,,611334fbb359c699d561b029,18,2022-02-12_16h58.40.956,lexical_decision_task_DD,2021.2.3,iPhone,30.3030303,,,,,,,,,,3.063,1,,,,,,,,,,,,,,,,,,,,,,,0.32755102,-0.292346939,1,0,0,,,,,,,PENCE,HB,m,m,./images/PENCEHB.png,,,,,,,,,,,,,,,,,,,,,0,0.32755102,-0.292346939,1,0,0,3.063,button_right_test,0,85,85,16,1
,,,,,,,,,,,,,,,,,611334fbb359c699d561b029,18,2022-02-12_16h58.40.956,lexical_decision_task_DD,2021.2.3,iPhone,30.3030303,,,,,,,,,,1.496,1,,,,,,,,,,,,,,,,,,,,,,,0.317346939,-0.231122449,1,0,0,,,,,,,STRING,LB,m,m,./images/STRINGLB.png,,,,,,,,,,,,,,,,,,,,,0,0.317346939,-0.231122449,1,0,0,1.496,button_right_test,0,86,86,41,1
,,,,,,,,,,,,,,,,,611334fbb359c699d561b029,18,2022-02-12_16h58.40.956,lexical_decision_task_DD,2021.2.3,iPhone,30.3030303,,,,,,,,,,13.028,0,,,,,,,,,,,,,,,,,,,,,,,-0.281632653,-0.298469388,1,0,0,,,,,,,BARREL,LB,m,m,./images/BARRELLB.png,,,,,,,,,,,,,,,,,,,,,0,-0.281632653,-0.298469388,1,0,0,13.028,button_left_test,0,87,87,32,1
,,,,,,,,,,,,,,,,,611334fbb359c699d561b029,18,2022-02-12_16h58.40.956,lexical_decision_task_DD,2021.2.3,iPhone,30.3030303,,,,,,,,,,13.397,1,,,,,,,,,,,,,,,,,,,,,,,0.336734694,-0.284183673,1,0,0,,,,,,,BABOON,HB,m,m,./images/BABOONHB.png,,,,,,,,,,,,,,,,,,,,,0,-0.196938776,-0.30255102,1,0,0,13.397,button_right_test,0,88,88,58,1
,,,,,,,,,,,,,,,,,611334fbb359c699d561b029,18,2022-02-12_16h58.40.956,lexical_decision_task_DD,2021.2.3,iPhone,30.3030303,,,,,,,,,,6.832,1,,,,,,,,,,,,,,,,,,,,,,,0.353061224,-0.299489796,1,0,0,,,,,,,SCREW,C,m,m,./images/SCREW.png,,,,,,,,,,,,,,,,,,,,,0,0.353061224,-0.299489796,1,0,0,6.832,button_right_test,0,89,89,24,1
,,,,,,,,,,,,,,,,,611334fbb359c699d561b029,18,2022-02-12_16h58.40.956,lexical_decision_task_DD,2021.2.3,iPhone,30.3030303,,,,,,,,,,10.062,0,,,,,,,,,,,,,,,,,,,,,,,-0.264285714,-0.305612245,1,0,0,,,,,,,PAINT,HB,m,m,./images/PAINTHB.png,,,,,,,,,,,,,,,,,,,,,0,-0.264285714,-0.305612245,1,0,0,10.062,button_left_test,0,90,90,7,1
,,,,,,,,,,,,,,,,,611334fbb359c699d561b029,18,2022-02-12_16h58.40.956,lexical_decision_task_DD,2021.2.3,iPhone,30.3030303,,,,,,,,,,1.262,0,,,,,,,,,,,,,,,,,,,,,,,0.329591837,-0.267857143,1,0,0,,,,,,,POSTER,LB,z,m,./images/POSTERLB.png,,,,,,,,,,,,,,,,,,,,,0,0.329591837,-0.267857143,1,0,0,1.262,button_right_test,0,91,91,137,1
,,,,,,,,,,,,,,,,,611334fbb359c699d561b029,18,2022-02-12_16h58.40.956,lexical_decision_task_DD,2021.2.3,iPhone,30.3030303,,,,,,,,,,0.829,0,,,,,,,,,,,,,,,,,,,,,,,0.371428571,-0.296428571,1,0,0,,,,,,,WHISKY,LB,z,m,./images/WHISKYLB.png,,,,,,,,,,,,,,,,,,,,,0,0.371428571,-0.296428571,1,0,0,0.829,button_right_test,0,92,92,167,1
,,,,,,,,,,,,,,,,,611334fbb359c699d561b029,18,2022-02-12_16h58.40.956,lexical_decision_task_DD,2021.2.3,iPhone,30.3030303,,,,,,,,,,2.533,0,,,,,,,,,,,,,,,,,,,,,,,0.325510204,-0.322959184,1,0,0,,,,,,,WHEEL,LB,z,m,./images/WHEELLB.png,,,,,,,,,,,,,,,,,,,,,0,0.325510204,-0.322959184,1,0,0,2.533,button_right_test,0,93,93,161,1
,,,,,,,,,,,,,,,,,611334fbb359c699d561b029,18,2022-02-12_16h58.40.956,lexical_decision_task_DD,2021.2.3,iPhone,30.3030303,,,,,,,,,,5.329,0,,,,,,,,,,,,,,,,,,,,,,,-0.251020408,-0.317857143,1,0,0,,,,,,,PASTA,LB,m,m,./images/PASTALB.png,,,,,,,,,,,,,,,,,,,,,0,-0.251020408,-0.317857143,1,0,0,5.329,button_left_test,0,94,94,5,1
,,,,,,,,,,,,,,,,,611334fbb359c699d561b029,18,2022-02-12_16h58.40.956,lexical_decision_task_DD,2021.2.3,iPhone,30.3030303,,,,,,,,,,1.496,0,,,,,,,,,,,,,,,,,,,,,,,0.335714286,-0.221938776,1,0,0,,,,,,,STAIN,C,z,m,./images/STAIN.png,,,,,,,,,,,,,,,,,,,,,0,0.335714286,-0.221938776,1,0,0,1.496,button_right_test,0,95,95,90,1
,,,,,,,,,,,,,,,,,611334fbb359c699d561b029,18,2022-02-12_16h58.40.956,lexical_decision_task_DD,2021.2.3,iPhone,30.3030303,,,,,,,,,,1.299,1,,,,,,,,,,,,,,,,,,,,,,,-0.279591837,-0.327040816,1,0,0,,,,,,,ALLEY,HB,z,m,./images/ALLEYHB.png,,,,,,,,,,,,,,,,,,,,,0,-0.279591837,-0.327040816,1,0,0,1.299,button_left_test,0,96,96,139,1
,,,,,,,,,,,,,,,,,611334fbb359c699d561b029,18,2022-02-12_16h58.40.956,lexical_decision_task_DD,2021.2.3,iPhone,30.3030303,,,,,,,,,,1.73,1,,,,,,,,,,,,,,,,,,,,,,,-0.225510204,-0.311734694,1,0,0,,,,,,,POKER,HB,z,m,./images/POKERHB.png,,,,,,,,,,,,,,,,,,,,,0,-0.225510204,-0.311734694,1,0,0,1.73,button_left_test,0,97,97,151,1
,,,,,,,,,,,,,,,,,611334fbb359c699d561b029,18,2022-02-12_16h58.40.956,lexical_decision_task_DD,2021.2.3,iPhone,30.3030303,,,,,,,,,,6.332,1,,,,,,,,,,,,,,,,,,,,,,,0.318367347,-0.290306122,1,0,0,,,,,,,FARMER,LB,m,m,./images/FARMERLB.png,,,,,,,,,,,,,,,,,,,,,0,0.318367347,-0.290306122,1,0,0,6.332,button_right_test,0,98,98,65,1
,,,,,,,,,,,,,,,,,611334fbb359c699d561b029,18,2022-02-12_16h58.40.956,lexical_decision_task_DD,2021.2.3,iPhone,30.3030303,,,,,,,,,,3.966,1,,,,,,,,,,,,,,,,,,,,,,,-0.269387755,-0.362755102,1,0,0,,,,,,,BUBBLE,LB,z,m,./images/BUBBLELB.png,,,,,,,,,,,,,,,,,,,,,0,-0.269387755,-0.362755102,1,0,0,3.966,button_left_test,0,99,99,155,1
