key_resp.keys,instr_done_touch.x,instr_done_touch.y,instr_done_touch.leftButton,instr_done_touch.midButton,instr_done_touch.rightButton,instr_done_touch.clicked_name,instruction_pages.thisRepN,instruction_pages.thisTrialN,instruction_pages.thisN,instruction_pages.thisIndex,instruction_pages.ran,pageN,phase,instruct_text,has_image,instruct_image,participant,age,date,expName,psychopyVersion,OS,frameRate,response.keys,response.corr,touch_resp.x,touch_resp.y,touch_resp.leftButton,touch_resp.midButton,touch_resp.rightButton,touch_resp.time,touch_resp.clicked_name,rt,corr,practrials.thisRepN,practrials.thisTrialN,practrials.thisN,practrials.thisIndex,practrials.ran,TrialID,Target,corrAns,end_of_practice_trials_pages.thisRepN,end_of_practice_trials_pages.thisTrialN,end_of_practice_trials_pages.thisN,end_of_practice_trials_pages.thisIndex,end_of_practice_trials_pages.ran,key_resp_2.keys,key_resp_2.corr,targ_click.x,targ_click.y,targ_click.leftButton,targ_click.midButton,targ_click.rightButton,targ_click.time,targ_click.clicked_name,break_done_touch.x,break_done_touch.y,break_done_touch.leftButton,break_done_touch.midButton,break_done_touch.rightButton,break_done_keyboard.keys,maintrials.thisRepN,maintrials.thisTrialN,maintrials.thisN,maintrials.thisIndex,maintrials.ran,string,blur,study,lex,stim_path,break_done_touch.clicked_name,mouse_2.x,mouse_2.y,mouse_2.leftButton,mouse_2.midButton,mouse_2.rightButton,mouse_2.clicked_name,slider.response,slider.rt,trials.thisRepN,trials.thisTrialN,trials.thisN,trials.thisIndex,trials.ran,test_instructions.thisRepN,test_instructions.thisTrialN,test_instructions.thisN,test_instructions.thisIndex,test_instructions.ran,key_resp_3.keys,key_resp_3.corr,test_click.x,test_click.y,test_click.leftButton,test_click.midButton,test_click.rightButton,test_click.time,test_click.clicked_name,test_phase.thisRepN,test_phase.thisTrialN,test_phase.thisN,test_phase.thisIndex,test_phase.ran
,0.044433095,-0.419816139,1,0,0,instr_done_button,0,0,0,0,1,1,instructions,"INSTRUCTIONS
At the start of each trial, look at the plus sign  (+) in the center of the screen.  This tells you that a trial is about to begin and where to look. Second, the plus sign will disappear and a string of letters will appear. Your task is to determine if the string of letters is a word or not. If the item is a word press the M key (on keyboard)  or touch the word button (phone/tablet).  If the item is not a word,  press the  Z key (on keyboard)  or touch the nonword button (on phone/tablet). 
Press the space bar or touch  continue.",0,,611adfca9a449cd8843049af,36,2022-02-12_13h27.34.926,lexical_decision_task_DD_L3,2021.2.3,iPhone,62.5,,,,,,,,,,,,,,,,,,,,,,,,,,,,,,,,,,,,,,,,,,,,,,,,,,,,,,,,,,,,,,,,,,,,,,,,,,,,,,,,,,
,0.048518897,-0.383043922,1,0,0,instr_done_button,0,1,1,1,1,2,instructions,"If your device has a keyboard, press the 'Z' key for nonwords and the 'M' key for words.





Press the space bar or touch the button below to continue.",0,keyboard-example.gif,611adfca9a449cd8843049af,36,2022-02-12_13h27.34.926,lexical_decision_task_DD_L3,2021.2.3,iPhone,62.5,,,,,,,,,,,,,,,,,,,,,,,,,,,,,,,,,,,,,,,,,,,,,,,,,,,,,,,,,,,,,,,,,,,,,,,,,,,,,,,,,,
,0.090398366,-0.396322778,1,0,0,instr_done_button,0,2,2,2,1,3,instructions,"If you are using a touchscreen only device, use the buttons on the screen. Do not use the mouse.





Press the space bar or touch the button below to continue.",0,touchscreen-example.gif,611adfca9a449cd8843049af,36,2022-02-12_13h27.34.926,lexical_decision_task_DD_L3,2021.2.3,iPhone,62.5,,,,,,,,,,,,,,,,,,,,,,,,,,,,,,,,,,,,,,,,,,,,,,,,,,,,,,,,,,,,,,,,,,,,,,,,,,,,,,,,,,
,0.013789581,-0.401430031,1,0,0,instr_done_button,0,3,3,3,1,4,instructions,"It is very important that you respond as quickly and accurately as possible, as each letter string will only be on the screen for two seconds. If you do not respond within this time, the message 'Too slow!' will be displayed and the experiment will progress to the next letter string. The first 20 trials will be practice trials and you will receive feedback on your answers. 

Press the space bar or touch the button below to start the practice trials.",0,,611adfca9a449cd8843049af,36,2022-02-12_13h27.34.926,lexical_decision_task_DD_L3,2021.2.3,iPhone,62.5,,,,,,,,,,,,,,,,,,,,,,,,,,,,,,,,,,,,,,,,,,,,,,,,,,,,,,,,,,,,,,,,,,,,,,,,,,,,,,,,,,
,,,,,,,,,,,,,,,,,611adfca9a449cd8843049af,36,2022-02-12_13h27.34.926,lexical_decision_task_DD_L3,2021.2.3,iPhone,62.5,,0,0.356996936,-0.28804903,1,0,0,1.767,button_right,1.767,1,0,0,0,5,1,1001,OBTAIN,m,,,,,,,,,,,,,,,,,,,,,,,,,,,,,,,,,,,,,,,,,,,,,,,,,,,,,,,,,,,,,,,
,,,,,,,,,,,,,,,,,611adfca9a449cd8843049af,36,2022-02-12_13h27.34.926,lexical_decision_task_DD_L3,2021.2.3,iPhone,62.5,,0,0.392747702,-0.28804903,1,0,0,0.786,button_right,0.786,1,0,1,1,1,1,1001,ADJUST,m,,,,,,,,,,,,,,,,,,,,,,,,,,,,,,,,,,,,,,,,,,,,,,,,,,,,,,,,,,,,,,,
,,,,,,,,,,,,,,,,,611adfca9a449cd8843049af,36,2022-02-12_13h27.34.926,lexical_decision_task_DD_L3,2021.2.3,iPhone,62.5,,0,-0.306945863,-0.322778345,1,0,0,0.77,button_left,0.77,1,0,2,2,15,1,1001,WHAISE,z,,,,,,,,,,,,,,,,,,,,,,,,,,,,,,,,,,,,,,,,,,,,,,,,,,,,,,,,,,,,,,,
,,,,,,,,,,,,,,,,,611adfca9a449cd8843049af,36,2022-02-12_13h27.34.926,lexical_decision_task_DD_L3,2021.2.3,iPhone,62.5,,0,0.369254341,-0.290091931,1,0,0,0.736,button_right,0.736,1,0,3,3,2,1,1001,ALMOND,m,,,,,,,,,,,,,,,,,,,,,,,,,,,,,,,,,,,,,,,,,,,,,,,,,,,,,,,,,,,,,,,
,,,,,,,,,,,,,,,,,611adfca9a449cd8843049af,36,2022-02-12_13h27.34.926,lexical_decision_task_DD_L3,2021.2.3,iPhone,62.5,,0,-0.36618999,-0.290091931,1,0,0,0.736,button_left,0.736,1,0,4,4,9,1,1001,FARINY,z,,,,,,,,,,,,,,,,,,,,,,,,,,,,,,,,,,,,,,,,,,,,,,,,,,,,,,,,,,,,,,,
,,,,,,,,,,,,,,,,,611adfca9a449cd8843049af,36,2022-02-12_13h27.34.926,lexical_decision_task_DD_L3,2021.2.3,iPhone,62.5,,0,0.397854954,-0.262512768,1,0,0,0.552,button_right,0.552,0,0,5,5,11,1,1001,RASHET,z,,,,,,,,,,,,,,,,,,,,,,,,,,,,,,,,,,,,,,,,,,,,,,,,,,,,,,,,,,,,,,,
,,,,,,,,,,,,,,,,,611adfca9a449cd8843049af,36,2022-02-12_13h27.34.926,lexical_decision_task_DD_L3,2021.2.3,iPhone,62.5,,0,0.38968335,-0.328907048,1,0,0,0.819,button_right,0.819,1,0,6,6,3,1,1001,MATRIX,m,,,,,,,,,,,,,,,,,,,,,,,,,,,,,,,,,,,,,,,,,,,,,,,,,,,,,,,,,,,,,,,
,,,,,,,,,,,,,,,,,611adfca9a449cd8843049af,36,2022-02-12_13h27.34.926,lexical_decision_task_DD_L3,2021.2.3,iPhone,62.5,,0,-0.340653728,-0.270684372,1,0,0,1.136,button_left,1.136,1,0,7,7,10,1,1001,INLADE,z,,,,,,,,,,,,,,,,,,,,,,,,,,,,,,,,,,,,,,,,,,,,,,,,,,,,,,,,,,,,,,,
,,,,,,,,,,,,,,,,,611adfca9a449cd8843049af,36,2022-02-12_13h27.34.926,lexical_decision_task_DD_L3,2021.2.3,iPhone,62.5,,0,0.336567926,-0.299284985,1,0,0,0.719,button_right,0.719,1,0,8,8,6,1,1001,ZOMBIE,m,,,,,,,,,,,,,,,,,,,,,,,,,,,,,,,,,,,,,,,,,,,,,,,,,,,,,,,,,,,,,,,
,,,,,,,,,,,,,,,,,611adfca9a449cd8843049af,36,2022-02-12_13h27.34.926,lexical_decision_task_DD_L3,2021.2.3,iPhone,62.5,,0,0.259959142,-0.325842697,1,0,0,0.734,button_right,0.734,1,0,9,9,4,1,1001,SQUEAK,m,,,,,,,,,,,,,,,,,,,,,,,,,,,,,,,,,,,,,,,,,,,,,,,,,,,,,,,,,,,,,,,
,,,,,,,,,,,,,,,,,611adfca9a449cd8843049af,36,2022-02-12_13h27.34.926,lexical_decision_task_DD_L3,2021.2.3,iPhone,62.5,,0,-0.29979571,-0.320735444,1,0,0,0.836,button_left,0.836,1,0,10,10,13,1,1001,ROUPET,z,,,,,,,,,,,,,,,,,,,,,,,,,,,,,,,,,,,,,,,,,,,,,,,,,,,,,,,,,,,,,,,
,,,,,,,,,,,,,,,,,611adfca9a449cd8843049af,36,2022-02-12_13h27.34.926,lexical_decision_task_DD_L3,2021.2.3,iPhone,62.5,,0,-0.268130746,-0.304392237,1,0,0,0.869,button_left,0.869,1,0,11,11,12,1,1001,SPRINY,z,,,,,,,,,,,,,,,,,,,,,,,,,,,,,,,,,,,,,,,,,,,,,,,,,,,,,,,,,,,,,,,
,,,,,,,,,,,,,,,,,611adfca9a449cd8843049af,36,2022-02-12_13h27.34.926,lexical_decision_task_DD_L3,2021.2.3,iPhone,62.5,,0,-0.281409602,-0.301327886,1,0,0,0.752,button_left,0.752,1,0,12,12,14,1,1001,THRALE,z,,,,,,,,,,,,,,,,,,,,,,,,,,,,,,,,,,,,,,,,,,,,,,,,,,,,,,,,,,,,,,,
,,,,,,,,,,,,,,,,,611adfca9a449cd8843049af,36,2022-02-12_13h27.34.926,lexical_decision_task_DD_L3,2021.2.3,iPhone,62.5,,0,-0.34473953,-0.304392237,1,0,0,1.052,button_left,1.052,1,0,13,13,8,1,1001,ASLERT,z,,,,,,,,,,,,,,,,,,,,,,,,,,,,,,,,,,,,,,,,,,,,,,,,,,,,,,,,,,,,,,,
,,,,,,,,,,,,,,,,,611adfca9a449cd8843049af,36,2022-02-12_13h27.34.926,lexical_decision_task_DD_L3,2021.2.3,iPhone,62.5,,0,0.274259448,-0.295199183,1,0,0,0.687,button_right,0.687,1,0,14,14,0,1,1001,UTOPIA,m,,,,,,,,,,,,,,,,,,,,,,,,,,,,,,,,,,,,,,,,,,,,,,,,,,,,,,,,,,,,,,,
,,,,,,,,,,,,,,,,,611adfca9a449cd8843049af,36,2022-02-12_13h27.34.926,lexical_decision_task_DD_L3,2021.2.3,iPhone,62.5,,0,0.307967314,-0.308478039,1,0,0,0.586,button_right,0.586,1,0,15,15,7,1,1001,VOLUME,m,,,,,,,,,,,,,,,,,,,,,,,,,,,,,,,,,,,,,,,,,,,,,,,,,,,,,,,,,,,,,,,
,0.086312564,-0.394279877,1,0,0,instr_done_button,,,,,,1,end_of_practice,"You have completed the practice trials. During the experimental trials, you will not receive feedback. 
Before you begin, please ensure that you are in a comfortable and quiet location and will not be disturbed for about 15 minutes, as we cannot use your data if you do not complete all the trials. 
 When you are ready to start the experimental trials, please press space or touch the button below.",,,611adfca9a449cd8843049af,36,2022-02-12_13h27.34.926,lexical_decision_task_DD_L3,2021.2.3,iPhone,62.5,,,,,,,,,,,,,,,,,,,,0,0,0,0,1,,,,,,,,,,,,,,,,,,,,,,,,,,,,,,,,,,,,,,,,,,,,,,,,,,,,,,,,,,
,,,,,,,,,,,,,,,,,611adfca9a449cd8843049af,36,2022-02-12_13h27.34.926,lexical_decision_task_DD_L3,2021.2.3,iPhone,62.5,,,,,,,,,,0.83,1,,,,,,,,,,,,,,,0,-0.30081716,-0.280898876,1,0,0,0.83,button_left_main,-0.30081716,-0.280898876,1,0,0,,0,0,0,84,1,HAXES,C,old,z,./images/HAXES.png,,,,,,,,,,,,,,,,,,,,,,,,,,,,,,,,,
,,,,,,,,,,,,,,,,,611adfca9a449cd8843049af,36,2022-02-12_13h27.34.926,lexical_decision_task_DD_L3,2021.2.3,iPhone,62.5,,,,,,,,,,0.919,0,,,,,,,,,,,,,,,0,-0.297752809,-0.308478039,1,0,0,0.919,button_left_main,-0.297752809,-0.308478039,1,0,0,,0,1,1,67,1,SAILOR,C,old,m,./images/SAILOR.png,,,,,,,,,,,,,,,,,,,,,,,,,,,,,,,,,
,,,,,,,,,,,,,,,,,611adfca9a449cd8843049af,36,2022-02-12_13h27.34.926,lexical_decision_task_DD_L3,2021.2.3,iPhone,62.5,,,,,,,,,,0.903,1,,,,,,,,,,,,,,,0,0.340653728,-0.305413687,1,0,0,0.903,button_right_main,0.340653728,-0.305413687,1,0,0,,0,2,2,52,1,BANNER,C,old,m,./images/BANNER.png,,,,,,,,,,,,,,,,,,,,,,,,,,,,,,,,,
,,,,,,,,,,,,,,,,,611adfca9a449cd8843049af,36,2022-02-12_13h27.34.926,lexical_decision_task_DD_L3,2021.2.3,iPhone,62.5,,,,,,,,,,0.969,1,,,,,,,,,,,,,,,0,0.333503575,-0.314606742,1,0,0,0.969,button_right_main,0.333503575,-0.314606742,1,0,0,,0,3,3,27,1,ATTIC,LB,old,m,./images/ATTICLB.png,,,,,,,,,,,,,,,,,,,,,,,,,,,,,,,,,
,,,,,,,,,,,,,,,,,611adfca9a449cd8843049af,36,2022-02-12_13h27.34.926,lexical_decision_task_DD_L3,2021.2.3,iPhone,62.5,,,,,,,,,,1.003,0,,,,,,,,,,,,,,,0,0.360061287,-0.312563841,1,0,0,1.003,button_right_main,0.360061287,-0.312563841,1,0,0,,0,4,4,139,1,BLEAR,HB,old,z,./images/BLEARHB.png,,,,,,,,,,,,,,,,,,,,,,,,,,,,,,,,,
,,,,,,,,,,,,,,,,,611adfca9a449cd8843049af,36,2022-02-12_13h27.34.926,lexical_decision_task_DD_L3,2021.2.3,iPhone,62.5,,,,,,,,,,0.837,1,,,,,,,,,,,,,,,0,-0.289581205,-0.295199183,1,0,0,0.837,button_left_main,-0.289581205,-0.295199183,1,0,0,,0,5,5,144,1,NAIRY,C,old,z,./images/NAIRY.png,,,,,,,,,,,,,,,,,,,,,,,,,,,,,,,,,
,,,,,,,,,,,,,,,,,611adfca9a449cd8843049af,36,2022-02-12_13h27.34.926,lexical_decision_task_DD_L3,2021.2.3,iPhone,62.5,,,,,,,,,,1.07,1,,,,,,,,,,,,,,,0,-0.305924413,-0.291113381,1,0,0,1.07,button_left_main,-0.305924413,-0.291113381,1,0,0,,0,6,6,95,1,HANTY,LB,old,z,./images/HANTYLB.png,,,,,,,,,,,,,,,,,,,,,,,,,,,,,,,,,
,,,,,,,,,,,,,,,,,611adfca9a449cd8843049af,36,2022-02-12_13h27.34.926,lexical_decision_task_DD_L3,2021.2.3,iPhone,62.5,,,,,,,,,,0.653,1,,,,,,,,,,,,,,,0,0.341675179,-0.291113381,1,0,0,0.653,button_right_main,0.341675179,-0.291113381,1,0,0,,0,7,7,22,1,MELON,C,old,m,./images/MELON.png,,,,,,,,,,,,,,,,,,,,,,,,,,,,,,,,,
,,,,,,,,,,,,,,,,,611adfca9a449cd8843049af,36,2022-02-12_13h27.34.926,lexical_decision_task_DD_L3,2021.2.3,iPhone,62.5,,,,,,,,,,0.853,1,,,,,,,,,,,,,,,0,0.327374872,-0.268641471,1,0,0,0.853,button_right_main,0.327374872,-0.268641471,1,0,0,,0,8,8,45,1,KITTEN,LB,old,m,./images/KITTENLB.png,,,,,,,,,,,,,,,,,,,,,,,,,,,,,,,,,
,,,,,,,,,,,,,,,,,611adfca9a449cd8843049af,36,2022-02-12_13h27.34.926,lexical_decision_task_DD_L3,2021.2.3,iPhone,62.5,,,,,,,,,,0.77,1,,,,,,,,,,,,,,,0,-0.315117467,-0.272727273,1,0,0,0.77,button_left_main,-0.315117467,-0.272727273,1,0,0,,0,9,9,134,1,TROSS,LB,old,z,./images/TROSSLB.png,,,,,,,,,,,,,,,,,,,,,,,,,,,,,,,,,
,,,,,,,,,,,,,,,,,611adfca9a449cd8843049af,36,2022-02-12_13h27.34.926,lexical_decision_task_DD_L3,2021.2.3,iPhone,62.5,,,,,,,,,,2.036,1,,,,,,,,,,,,,,,0,-0.335546476,-0.324821246,1,0,0,2.036,button_left_main,-0.335546476,-0.324821246,1,0,0,,0,10,10,115,1,MAWNS,HB,old,z,./images/MAWNSHB.png,,,,,,,,,,,,,,,,,,,,,,,,,,,,,,,,,
,,,,,,,,,,,,,,,,,611adfca9a449cd8843049af,36,2022-02-12_13h27.34.926,lexical_decision_task_DD_L3,2021.2.3,iPhone,62.5,,,,,,,,,,0.887,1,,,,,,,,,,,,,,,0,-0.349846782,-0.320735444,1,0,0,0.887,button_left_main,-0.349846782,-0.320735444,1,0,0,,0,11,11,124,1,TUNCH,HB,old,z,./images/TUNCHHB.png,,,,,,,,,,,,,,,,,,,,,,,,,,,,,,,,,
,,,,,,,,,,,,,,,,,611adfca9a449cd8843049af,36,2022-02-12_13h27.34.926,lexical_decision_task_DD_L3,2021.2.3,iPhone,62.5,,,,,,,,,,0.636,1,,,,,,,,,,,,,,,0,0.330439224,-0.357507661,1,0,0,0.636,button_right_main,0.330439224,-0.357507661,1,0,0,,0,12,12,55,1,MUFFIN,C,old,m,./images/MUFFIN.png,,,,,,,,,,,,,,,,,,,,,,,,,,,,,,,,,
,,,,,,,,,,,,,,,,,611adfca9a449cd8843049af,36,2022-02-12_13h27.34.926,lexical_decision_task_DD_L3,2021.2.3,iPhone,62.5,,,,,,,,,,0.773,1,,,,,,,,,,,,,,,0,-0.397854954,-0.312563841,1,0,0,0.773,button_left_main,-0.397854954,-0.312563841,1,0,0,,0,13,13,98,1,BAMPS,LB,old,z,./images/BAMPSLB.png,,,,,,,,,,,,,,,,,,,,,,,,,,,,,,,,,
,,,,,,,,,,,,,,,,,611adfca9a449cd8843049af,36,2022-02-12_13h27.34.926,lexical_decision_task_DD_L3,2021.2.3,iPhone,62.5,,,,,,,,,,0.653,1,,,,,,,,,,,,,,,0,0.355975485,-0.314606742,1,0,0,0.653,button_right_main,0.355975485,-0.314606742,1,0,0,,0,14,14,16,1,PENCE,C,old,m,./images/PENCE.png,,,,,,,,,,,,,,,,,,,,,,,,,,,,,,,,,
,,,,,,,,,,,,,,,,,611adfca9a449cd8843049af,36,2022-02-12_13h27.34.926,lexical_decision_task_DD_L3,2021.2.3,iPhone,62.5,,,,,,,,,,0.902,1,,,,,,,,,,,,,,,0,0.34473953,-0.343207354,1,0,0,0.902,button_right_main,0.34473953,-0.343207354,1,0,0,,0,15,15,80,1,WEASEL,HB,old,m,./images/WEASELHB.png,,,,,,,,,,,,,,,,,,,,,,,,,,,,,,,,,
,,,,,,,,,,,,,,,,,611adfca9a449cd8843049af,36,2022-02-12_13h27.34.926,lexical_decision_task_DD_L3,2021.2.3,iPhone,62.5,,,,,,,,,,1.037,1,,,,,,,,,,,,,,,0,0.34371808,-0.327885598,1,0,0,1.037,button_right_main,0.34371808,-0.327885598,1,0,0,,0,16,16,44,1,LIZARD,HB,old,m,./images/LIZARDHB.png,,,,,,,,,,,,,,,,,,,,,,,,,,,,,,,,,
,,,,,,,,,,,,,,,,,611adfca9a449cd8843049af,36,2022-02-12_13h27.34.926,lexical_decision_task_DD_L3,2021.2.3,iPhone,62.5,,,,,,,,,,1.252,1,,,,,,,,,,,,,,,0,-0.345760981,-0.359550562,1,0,0,1.252,button_left_main,-0.345760981,-0.359550562,1,0,0,,0,17,17,148,1,JOMS,HB,old,z,./images/JOMSHB.png,,,,,,,,,,,,,,,,,,,,,,,,,,,,,,,,,
,,,,,,,,,,,,,,,,,611adfca9a449cd8843049af,36,2022-02-12_13h27.34.926,lexical_decision_task_DD_L3,2021.2.3,iPhone,62.5,,,,,,,,,,0.822,1,,,,,,,,,,,,,,,0,-0.295709908,-0.290091931,1,0,0,0.822,button_left_main,-0.295709908,-0.290091931,1,0,0,,0,18,18,93,1,SMONE,C,old,z,./images/SMONE.png,,,,,,,,,,,,,,,,,,,,,,,,,,,,,,,,,
,,,,,,,,,,,,,,,,,611adfca9a449cd8843049af,36,2022-02-12_13h27.34.926,lexical_decision_task_DD_L3,2021.2.3,iPhone,62.5,,,,,,,,,,0.686,1,,,,,,,,,,,,,,,0,-0.303881512,-0.365679265,1,0,0,0.686,button_left_main,-0.303881512,-0.365679265,1,0,0,,0,19,19,101,1,GLEET,LB,old,z,./images/GLEETLB.png,,,,,,,,,,,,,,,,,,,,,,,,,,,,,,,,,
,,,,,,,,,,,,,,,,,611adfca9a449cd8843049af,36,2022-02-12_13h27.34.926,lexical_decision_task_DD_L3,2021.2.3,iPhone,62.5,,,,,,,,,,0.953,0,,,,,,,,,,,,,,,0,0.330439224,-0.329928498,1,0,0,0.953,button_right_main,0.330439224,-0.329928498,1,0,0,,0,20,20,166,1,SHORY,HB,old,z,./images/SHORYHB.png,,,,,,,,,,,,,,,,,,,,,,,,,,,,,,,,,
,,,,,,,,,,,,,,,,,611adfca9a449cd8843049af,36,2022-02-12_13h27.34.926,lexical_decision_task_DD_L3,2021.2.3,iPhone,62.5,,,,,,,,,,0.903,1,,,,,,,,,,,,,,,0,-0.355975485,-0.327885598,1,0,0,0.903,button_left_main,-0.355975485,-0.327885598,1,0,0,,0,21,21,154,1,THINT,HB,old,z,./images/THINTHB.png,,,,,,,,,,,,,,,,,,,,,,,,,,,,,,,,,
,,,,,,,,,,,,,,,,,611adfca9a449cd8843049af,36,2022-02-12_13h27.34.926,lexical_decision_task_DD_L3,2021.2.3,iPhone,62.5,,,,,,,,,,0.753,1,,,,,,,,,,,,,,,0,-0.280388151,-0.361593463,1,0,0,0.753,button_left_main,-0.280388151,-0.361593463,1,0,0,,0,22,22,152,1,FRAIN,LB,old,z,./images/FRAINLB.png,,,,,,,,,,,,,,,,,,,,,,,,,,,,,,,,,
,,,,,,,,,,,,,,,,,611adfca9a449cd8843049af,36,2022-02-12_13h27.34.926,lexical_decision_task_DD_L3,2021.2.3,iPhone,62.5,,,,,,,,,,1.303,1,,,,,,,,,,,,,,,0,-0.251787538,-0.324821246,1,0,0,1.303,button_left_main,-0.251787538,-0.324821246,1,0,0,,0,23,23,105,1,MOKER,C,old,z,./images/MOKER.png,,,,,,,,,,,,,,,,,,,,,,,,,,,,,,,,,
,,,,,,,,,,,,,,,,,611adfca9a449cd8843049af,36,2022-02-12_13h27.34.926,lexical_decision_task_DD_L3,2021.2.3,iPhone,62.5,,,,,,,,,,0.919,1,,,,,,,,,,,,,,,0,0.315117467,-0.360572012,1,0,0,0.919,button_right_main,0.315117467,-0.360572012,1,0,0,,0,24,24,53,1,CARPET,HB,old,m,./images/CARPETHB.png,,,,,,,,,,,,,,,,,,,,,,,,,,,,,,,,,
,,,,,,,,,,,,,,,,,611adfca9a449cd8843049af,36,2022-02-12_13h27.34.926,lexical_decision_task_DD_L3,2021.2.3,iPhone,62.5,,,,,,,,,,0.72,1,,,,,,,,,,,,,,,0,0.329417773,-0.292134831,1,0,0,0.72,button_right_main,0.329417773,-0.292134831,1,0,0,,0,25,25,18,1,JAGUAR,LB,old,m,./images/JAGUARLB.png,,,,,,,,,,,,,,,,,,,,,,,,,,,,,,,,,
,,,,,,,,,,,,,,,,,611adfca9a449cd8843049af,36,2022-02-12_13h27.34.926,lexical_decision_task_DD_L3,2021.2.3,iPhone,62.5,,,,,,,,,,0.887,1,,,,,,,,,,,,,,,0,-0.297752809,-0.322778345,1,0,0,0.887,button_left_main,-0.297752809,-0.322778345,1,0,0,,0,26,26,155,1,CANGY,LB,old,z,./images/CANGYLB.png,,,,,,,,,,,,,,,,,,,,,,,,,,,,,,,,,
,,,,,,,,,,,,,,,,,611adfca9a449cd8843049af,36,2022-02-12_13h27.34.926,lexical_decision_task_DD_L3,2021.2.3,iPhone,62.5,,,,,,,,,,0.621,1,,,,,,,,,,,,,,,0,0.288559755,-0.281920327,1,0,0,0.621,button_right_main,0.288559755,-0.281920327,1,0,0,,0,27,27,7,1,PAINT,C,old,m,./images/PAINT.png,,,,,,,,,,,,,,,,,,,,,,,,,,,,,,,,,
,,,,,,,,,,,,,,,,,611adfca9a449cd8843049af,36,2022-02-12_13h27.34.926,lexical_decision_task_DD_L3,2021.2.3,iPhone,62.5,,,,,,,,,,0.77,1,,,,,,,,,,,,,,,0,-0.272216547,-0.371807967,1,0,0,0.77,button_left_main,-0.272216547,-0.371807967,1,0,0,,0,28,28,112,1,MYING,HB,old,z,./images/MYINGHB.png,,,,,,,,,,,,,,,,,,,,,,,,,,,,,,,,,
,,,,,,,,,,,,,,,,,611adfca9a449cd8843049af,36,2022-02-12_13h27.34.926,lexical_decision_task_DD_L3,2021.2.3,iPhone,62.5,,,,,,,,,,0.703,1,,,,,,,,,,,,,,,0,-0.270173647,-0.367722165,1,0,0,0.703,button_left_main,-0.270173647,-0.367722165,1,0,0,,0,29,29,130,1,CRILL,HB,old,z,./images/CRILLHB.png,,,,,,,,,,,,,,,,,,,,,,,,,,,,,,,,,
,,,,,,,,,,,,,,,,,611adfca9a449cd8843049af,36,2022-02-12_13h27.34.926,lexical_decision_task_DD_L3,2021.2.3,iPhone,62.5,,,,,,,,,,0.603,1,,,,,,,,,,,,,,,0,0.291624106,-0.340143003,1,0,0,0.603,button_right_main,0.291624106,-0.340143003,1,0,0,,0,30,30,49,1,DRUMS,C,old,m,./images/DRUMS.png,,,,,,,,,,,,,,,,,,,,,,,,,,,,,,,,,
,,,,,,,,,,,,,,,,,611adfca9a449cd8843049af,36,2022-02-12_13h27.34.926,lexical_decision_task_DD_L3,2021.2.3,iPhone,62.5,,,,,,,,,,0.853,1,,,,,,,,,,,,,,,0,0.381511747,-0.315628192,1,0,0,0.853,button_right_main,0.381511747,-0.315628192,1,0,0,,0,31,31,37,1,BIRTH,C,old,m,./images/BIRTH.png,,,,,,,,,,,,,,,,,,,,,,,,,,,,,,,,,
,,,,,,,,,,,,,,,,,611adfca9a449cd8843049af,36,2022-02-12_13h27.34.926,lexical_decision_task_DD_L3,2021.2.3,iPhone,62.5,,,,,,,,,,0.636,1,,,,,,,,,,,,,,,0,0.338610827,-0.309499489,1,0,0,0.636,button_right_main,0.338610827,-0.309499489,1,0,0,,0,32,32,64,1,JELLY,C,old,m,./images/JELLY.png,,,,,,,,,,,,,,,,,,,,,,,,,,,,,,,,,
,,,,,,,,,,,,,,,,,611adfca9a449cd8843049af,36,2022-02-12_13h27.34.926,lexical_decision_task_DD_L3,2021.2.3,iPhone,62.5,,,,,,,,,,0.803,1,,,,,,,,,,,,,,,0,-0.241573034,-0.337078652,1,0,0,0.803,button_left_main,-0.241573034,-0.337078652,1,0,0,,0,33,33,87,1,TRING,C,old,z,./images/TRING.png,,,,,,,,,,,,,,,,,,,,,,,,,,,,,,,,,
,,,,,,,,,,,,,,,,,611adfca9a449cd8843049af,36,2022-02-12_13h27.34.926,lexical_decision_task_DD_L3,2021.2.3,iPhone,62.5,,,,,,,,,,0.67,1,,,,,,,,,,,,,,,0,-0.263023493,-0.293156282,1,0,0,0.67,button_left_main,-0.263023493,-0.293156282,1,0,0,,0,34,34,165,1,TROWN,C,old,z,./images/TROWN.png,,,,,,,,,,,,,,,,,,,,,,,,,,,,,,,,,
,,,,,,,,,,,,,,,,,611adfca9a449cd8843049af,36,2022-02-12_13h27.34.926,lexical_decision_task_DD_L3,2021.2.3,iPhone,62.5,,,,,,,,,,0.637,1,,,,,,,,,,,,,,,0,0.092441267,-0.294177732,1,0,0,0.637,button_right_main,0.369254341,-0.349336057,1,0,0,,0,35,35,39,1,SHELF,LB,old,m,./images/SHELFLB.png,,,,,,,,,,,,,,,,,,,,,,,,,,,,,,,,,
,,,,,,,,,,,,,,,,,611adfca9a449cd8843049af,36,2022-02-12_13h27.34.926,lexical_decision_task_DD_L3,2021.2.3,iPhone,62.5,,,,,,,,,,1.002,0,,,,,,,,,,,,,,,0,0.351889683,-0.309499489,1,0,0,1.002,button_right_main,0.351889683,-0.309499489,1,0,0,,0,36,36,110,1,CRUNK,LB,old,z,./images/CRUNKLB.png,,,,,,,,,,,,,,,,,,,,,,,,,,,,,,,,,
,,,,,,,,,,,,,,,,,611adfca9a449cd8843049af,36,2022-02-12_13h27.34.926,lexical_decision_task_DD_L3,2021.2.3,iPhone,62.5,,,,,,,,,,0.72,1,,,,,,,,,,,,,,,0,0.36618999,-0.315628192,1,0,0,0.72,button_right_main,0.36618999,-0.315628192,1,0,0,,0,37,37,31,1,QUILL,C,old,m,./images/QUILL.png,,,,,,,,,,,,,,,,,,,,,,,,,,,,,,,,,
,,,,,,,,,,,,,,,,,611adfca9a449cd8843049af,36,2022-02-12_13h27.34.926,lexical_decision_task_DD_L3,2021.2.3,iPhone,62.5,,,,,,,,,,0.938,1,,,,,,,,,,,,,,,0,0.391726251,-0.31052094,1,0,0,0.938,button_right_main,0.391726251,-0.31052094,1,0,0,,0,38,38,29,1,CRUMB,HB,old,m,./images/CRUMBHB.png,,,,,,,,,,,,,,,,,,,,,,,,,,,,,,,,,
,,,,,,,,,,,,,,,,,611adfca9a449cd8843049af,36,2022-02-12_13h27.34.926,lexical_decision_task_DD_L3,2021.2.3,iPhone,62.5,,,,,,,,,,0.72,1,,,,,,,,,,,,,,,0,0.385597549,-0.312563841,1,0,0,0.72,button_right_main,0.385597549,-0.312563841,1,0,0,,0,39,39,59,1,BURIAL,HB,old,m,./images/BURIALHB.png,,,,,,,,,,,,,,,,,,,,,,,,,,,,,,,,,
,,,,,,,,,,,,,,,,,611adfca9a449cd8843049af,36,2022-02-12_13h27.34.926,lexical_decision_task_DD_L3,2021.2.3,iPhone,62.5,,,,,,,,,,0.737,1,,,,,,,,,,,,,,,0,0.386618999,-0.299284985,1,0,0,0.737,button_right_main,0.386618999,-0.299284985,1,0,0,,0,40,40,1,1,PLANK,C,old,m,./images/PLANK.png,,,,,,,,,,,,,,,,,,,,,,,,,,,,,,,,,
,,,,,,,,,,,,,,,,,611adfca9a449cd8843049af,36,2022-02-12_13h27.34.926,lexical_decision_task_DD_L3,2021.2.3,iPhone,62.5,,,,,,,,,,0.871,1,,,,,,,,,,,,,,,0,-0.330439224,-0.31052094,1,0,0,0.871,button_left_main,0.05566905,-0.409601634,1,0,0,,0,41,41,99,1,BACKY,C,old,z,./images/BACKY.png,break_done_button,,,,,,,,,,,,,,,,,,,,,,,,,,,,,,,,
,,,,,,,,,,,,,,,,,611adfca9a449cd8843049af,36,2022-02-12_13h27.34.926,lexical_decision_task_DD_L3,2021.2.3,iPhone,62.5,,,,,,,,,,0.82,1,,,,,,,,,,,,,,,0,-0.338610827,-0.286006129,1,0,0,0.82,button_left_main,-0.338610827,-0.286006129,1,0,0,,0,42,42,92,1,PAIMS,LB,old,z,./images/PAIMSLB.png,,,,,,,,,,,,,,,,,,,,,,,,,,,,,,,,,
,,,,,,,,,,,,,,,,,611adfca9a449cd8843049af,36,2022-02-12_13h27.34.926,lexical_decision_task_DD_L3,2021.2.3,iPhone,62.5,,,,,,,,,,0.718,1,,,,,,,,,,,,,,,0,0.274259448,-0.303370787,1,0,0,0.718,button_right_main,0.274259448,-0.303370787,1,0,0,,0,43,43,32,1,BARREL,HB,old,m,./images/BARRELHB.png,,,,,,,,,,,,,,,,,,,,,,,,,,,,,,,,,
,,,,,,,,,,,,,,,,,611adfca9a449cd8843049af,36,2022-02-12_13h27.34.926,lexical_decision_task_DD_L3,2021.2.3,iPhone,62.5,,,,,,,,,,0.97,1,,,,,,,,,,,,,,,0,0.295709908,-0.330949949,1,0,0,0.97,button_right_main,0.295709908,-0.330949949,1,0,0,,0,44,44,8,1,TULIP,HB,old,m,./images/TULIPHB.png,,,,,,,,,,,,,,,,,,,,,,,,,,,,,,,,,
,,,,,,,,,,,,,,,,,611adfca9a449cd8843049af,36,2022-02-12_13h27.34.926,lexical_decision_task_DD_L3,2021.2.3,iPhone,62.5,,,,,,,,,,0.803,1,,,,,,,,,,,,,,,0,0.32226762,-0.351378958,1,0,0,0.803,button_right_main,0.32226762,-0.351378958,1,0,0,,0,45,45,10,1,BELLY,C,old,m,./images/BELLY.png,,,,,,,,,,,,,,,,,,,,,,,,,,,,,,,,,
,,,,,,,,,,,,,,,,,611adfca9a449cd8843049af,36,2022-02-12_13h27.34.926,lexical_decision_task_DD_L3,2021.2.3,iPhone,62.5,,,,,,,,,,0.82,1,,,,,,,,,,,,,,,0,-0.253830439,-0.370786517,1,0,0,0.82,button_left_main,-0.253830439,-0.370786517,1,0,0,,0,46,46,121,1,CEERS,HB,old,z,./images/CEERSHB.png,,,,,,,,,,,,,,,,,,,,,,,,,,,,,,,,,
,,,,,,,,,,,,,,,,,611adfca9a449cd8843049af,36,2022-02-12_13h27.34.926,lexical_decision_task_DD_L3,2021.2.3,iPhone,62.5,,,,,,,,,,0.654,1,,,,,,,,,,,,,,,0,0.272216547,-0.31052094,1,0,0,0.654,button_right_main,0.272216547,-0.31052094,1,0,0,,0,47,47,75,1,GRAIN,LB,old,m,./images/GRAINLB.png,,,,,,,,,,,,,,,,,,,,,,,,,,,,,,,,,
,,,,,,,,,,,,,,,,,611adfca9a449cd8843049af,36,2022-02-12_13h27.34.926,lexical_decision_task_DD_L3,2021.2.3,iPhone,62.5,,,,,,,,,,0.671,1,,,,,,,,,,,,,,,0,0.223186925,-0.330949949,1,0,0,0.671,button_right_main,0.223186925,-0.330949949,1,0,0,,0,48,48,43,1,MOSQUE,C,old,m,./images/MOSQUE.png,,,,,,,,,,,,,,,,,,,,,,,,,,,,,,,,,
,,,,,,,,,,,,,,,,,611adfca9a449cd8843049af,36,2022-02-12_13h27.34.926,lexical_decision_task_DD_L3,2021.2.3,iPhone,62.5,,,,,,,,,,0.553,1,,,,,,,,,,,,,,,0,0.219101124,-0.304392237,1,0,0,0.553,button_right_main,0.219101124,-0.304392237,1,0,0,,0,49,49,48,1,SPORT,LB,old,m,./images/SPORTLB.png,,,,,,,,,,,,,,,,,,,,,,,,,,,,,,,,,
,,,,,,,,,,,,,,,,,611adfca9a449cd8843049af,36,2022-02-12_13h27.34.926,lexical_decision_task_DD_L3,2021.2.3,iPhone,62.5,,,,,,,,,,0.72,1,,,,,,,,,,,,,,,0,0.25485189,-0.346271706,1,0,0,0.72,button_right_main,0.25485189,-0.346271706,1,0,0,,0,50,50,68,1,TORCH,HB,old,m,./images/TORCHHB.png,,,,,,,,,,,,,,,,,,,,,,,,,,,,,,,,,
,,,,,,,,,,,,,,,,,611adfca9a449cd8843049af,36,2022-02-12_13h27.34.926,lexical_decision_task_DD_L3,2021.2.3,iPhone,62.5,,,,,,,,,,1.087,1,,,,,,,,,,,,,,,0,0.222165475,-0.346271706,1,0,0,1.087,button_right_main,0.222165475,-0.346271706,1,0,0,,0,51,51,33,1,MAGGOT,LB,old,m,./images/MAGGOTLB.png,,,,,,,,,,,,,,,,,,,,,,,,,,,,,,,,,
,,,,,,,,,,,,,,,,,611adfca9a449cd8843049af,36,2022-02-12_13h27.34.926,lexical_decision_task_DD_L3,2021.2.3,iPhone,62.5,,,,,,,,,,0.669,1,,,,,,,,,,,,,,,0,-0.30081716,-0.337078652,1,0,0,0.669,button_left_main,-0.30081716,-0.337078652,1,0,0,,0,52,52,132,1,SCIFF,C,old,z,./images/SCIFF.png,,,,,,,,,,,,,,,,,,,,,,,,,,,,,,,,,
,,,,,,,,,,,,,,,,,611adfca9a449cd8843049af,36,2022-02-12_13h27.34.926,lexical_decision_task_DD_L3,2021.2.3,iPhone,62.5,,,,,,,,,,1.035,0,,,,,,,,,,,,,,,0,0.226251277,-0.308478039,1,0,0,1.035,button_right_main,0.226251277,-0.308478039,1,0,0,,0,53,53,128,1,GRIFT,LB,old,z,./images/GRIFTLB.png,,,,,,,,,,,,,,,,,,,,,,,,,,,,,,,,,
,,,,,,,,,,,,,,,,,611adfca9a449cd8843049af,36,2022-02-12_13h27.34.926,lexical_decision_task_DD_L3,2021.2.3,iPhone,62.5,,,,,,,,,,0.77,1,,,,,,,,,,,,,,,0,-0.330439224,-0.315628192,1,0,0,0.77,button_left_main,-0.330439224,-0.315628192,1,0,0,,0,54,54,147,1,ZOLES,C,old,z,./images/ZOLES.png,,,,,,,,,,,,,,,,,,,,,,,,,,,,,,,,,
,,,,,,,,,,,,,,,,,611adfca9a449cd8843049af,36,2022-02-12_13h27.34.926,lexical_decision_task_DD_L3,2021.2.3,iPhone,62.5,,,,,,,,,,1.07,1,,,,,,,,,,,,,,,0,-0.258937692,-0.327885598,1,0,0,1.07,button_left_main,-0.258937692,-0.327885598,1,0,0,,0,55,55,136,1,WERVE,HB,old,z,./images/WERVEHB.png,,,,,,,,,,,,,,,,,,,,,,,,,,,,,,,,,
,,,,,,,,,,,,,,,,,611adfca9a449cd8843049af,36,2022-02-12_13h27.34.926,lexical_decision_task_DD_L3,2021.2.3,iPhone,62.5,,,,,,,,,,0.82,1,,,,,,,,,,,,,,,0,0.286516854,-0.345250255,1,0,0,0.82,button_right_main,0.286516854,-0.345250255,1,0,0,,0,56,56,26,1,SMOKER,HB,old,m,./images/SMOKERHB.png,,,,,,,,,,,,,,,,,,,,,,,,,,,,,,,,,
,,,,,,,,,,,,,,,,,611adfca9a449cd8843049af,36,2022-02-12_13h27.34.926,lexical_decision_task_DD_L3,2021.2.3,iPhone,62.5,,,,,,,,,,0.837,1,,,,,,,,,,,,,,,0,-0.286516854,-0.315628192,1,0,0,0.837,button_left_main,-0.286516854,-0.315628192,1,0,0,,0,57,57,160,1,VEETS,HB,old,z,./images/VEETSHB.png,,,,,,,,,,,,,,,,,,,,,,,,,,,,,,,,,
,,,,,,,,,,,,,,,,,611adfca9a449cd8843049af,36,2022-02-12_13h27.34.926,lexical_decision_task_DD_L3,2021.2.3,iPhone,62.5,,,,,,,,,,0.737,1,,,,,,,,,,,,,,,0,0.222165475,-0.367722165,1,0,0,0.737,button_right_main,0.222165475,-0.367722165,1,0,0,,0,58,58,58,1,BABOON,C,old,m,./images/BABOON.png,,,,,,,,,,,,,,,,,,,,,,,,,,,,,,,,,
,,,,,,,,,,,,,,,,,611adfca9a449cd8843049af,36,2022-02-12_13h27.34.926,lexical_decision_task_DD_L3,2021.2.3,iPhone,62.5,,,,,,,,,,0.618,1,,,,,,,,,,,,,,,0,0.103677222,-0.378958121,1,0,0,0.618,button_right_main,0.235444331,-0.366700715,1,0,0,,0,59,59,77,1,COUCH,HB,old,m,./images/COUCHHB.png,,,,,,,,,,,,,,,,,,,,,,,,,,,,,,,,,
,,,,,,,,,,,,,,,,,611adfca9a449cd8843049af,36,2022-02-12_13h27.34.926,lexical_decision_task_DD_L3,2021.2.3,iPhone,62.5,,,,,,,,,,0.653,1,,,,,,,,,,,,,,,0,0.274259448,-0.327885598,1,0,0,0.653,button_right_main,0.274259448,-0.327885598,1,0,0,,0,60,60,62,1,PURSE,HB,old,m,./images/PURSEHB.png,,,,,,,,,,,,,,,,,,,,,,,,,,,,,,,,,
,,,,,,,,,,,,,,,,,611adfca9a449cd8843049af,36,2022-02-12_13h27.34.926,lexical_decision_task_DD_L3,2021.2.3,iPhone,62.5,,,,,,,,,,0.77,1,,,,,,,,,,,,,,,0,-0.361082737,-0.297242084,1,0,0,0.77,button_left_main,-0.361082737,-0.297242084,1,0,0,,0,61,61,129,1,PRANS,C,old,z,./images/PRANS.png,,,,,,,,,,,,,,,,,,,,,,,,,,,,,,,,,
,,,,,,,,,,,,,,,,,611adfca9a449cd8843049af,36,2022-02-12_13h27.34.926,lexical_decision_task_DD_L3,2021.2.3,iPhone,62.5,,,,,,,,,,0.986,1,,,,,,,,,,,,,,,0,-0.334525026,-0.351378958,1,0,0,0.986,button_left_main,-0.334525026,-0.351378958,1,0,0,,0,62,62,146,1,MOOST,LB,old,z,./images/MOOSTLB.png,,,,,,,,,,,,,,,,,,,,,,,,,,,,,,,,,
,,,,,,,,,,,,,,,,,611adfca9a449cd8843049af,36,2022-02-12_13h27.34.926,lexical_decision_task_DD_L3,2021.2.3,iPhone,62.5,,,,,,,,,,0.787,1,,,,,,,,,,,,,,,0,0.284473953,-0.359550562,1,0,0,0.787,button_right_main,0.284473953,-0.359550562,1,0,0,,0,63,63,11,1,BONNET,HB,old,m,./images/BONNETHB.png,,,,,,,,,,,,,,,,,,,,,,,,,,,,,,,,,
,,,,,,,,,,,,,,,,,611adfca9a449cd8843049af,36,2022-02-12_13h27.34.926,lexical_decision_task_DD_L3,2021.2.3,iPhone,62.5,,,,,,,,,,0.853,1,,,,,,,,,,,,,,,0,-0.319203269,-0.339121553,1,0,0,0.853,button_left_main,-0.319203269,-0.339121553,1,0,0,,0,64,64,151,1,TINKY,HB,old,z,./images/TINKYHB.png,,,,,,,,,,,,,,,,,,,,,,,,,,,,,,,,,
,,,,,,,,,,,,,,,,,611adfca9a449cd8843049af,36,2022-02-12_13h27.34.926,lexical_decision_task_DD_L3,2021.2.3,iPhone,62.5,,,,,,,,,,0.687,1,,,,,,,,,,,,,,,0,-0.290602656,-0.363636364,1,0,0,0.687,button_left_main,-0.290602656,-0.363636364,1,0,0,,0,65,65,117,1,STEEG,C,old,z,./images/STEEG.png,,,,,,,,,,,,,,,,,,,,,,,,,,,,,,,,,
,,,,,,,,,,,,,,,,,611adfca9a449cd8843049af,36,2022-02-12_13h27.34.926,lexical_decision_task_DD_L3,2021.2.3,iPhone,62.5,,,,,,,,,,0.687,1,,,,,,,,,,,,,,,0,0.284473953,-0.361593463,1,0,0,0.687,button_right_main,0.284473953,-0.361593463,1,0,0,,0,66,66,61,1,CANDLE,C,old,m,./images/CANDLE.png,,,,,,,,,,,,,,,,,,,,,,,,,,,,,,,,,
,,,,,,,,,,,,,,,,,611adfca9a449cd8843049af,36,2022-02-12_13h27.34.926,lexical_decision_task_DD_L3,2021.2.3,iPhone,62.5,,,,,,,,,,0.603,1,,,,,,,,,,,,,,,0,0.265066394,-0.370786517,1,0,0,0.603,button_right_main,0.265066394,-0.370786517,1,0,0,,0,67,67,6,1,SQUARE,LB,old,m,./images/SQUARELB.png,,,,,,,,,,,,,,,,,,,,,,,,,,,,,,,,,
,,,,,,,,,,,,,,,,,611adfca9a449cd8843049af,36,2022-02-12_13h27.34.926,lexical_decision_task_DD_L3,2021.2.3,iPhone,62.5,,,,,,,,,,0.738,1,,,,,,,,,,,,,,,0,0.262002043,-0.383043922,1,0,0,0.738,button_right_main,0.262002043,-0.383043922,1,0,0,,0,68,68,81,1,POODLE,LB,old,m,./images/POODLELB.png,,,,,,,,,,,,,,,,,,,,,,,,,,,,,,,,,
,,,,,,,,,,,,,,,,,611adfca9a449cd8843049af,36,2022-02-12_13h27.34.926,lexical_decision_task_DD_L3,2021.2.3,iPhone,62.5,,,,,,,,,,0.82,1,,,,,,,,,,,,,,,0,0.257916241,-0.351378958,1,0,0,0.82,button_right_main,0.257916241,-0.351378958,1,0,0,,0,69,69,71,1,PIMPLE,HB,old,m,./images/PIMPLEHB.png,,,,,,,,,,,,,,,,,,,,,,,,,,,,,,,,,
,,,,,,,,,,,,,,,,,611adfca9a449cd8843049af,36,2022-02-12_13h27.34.926,lexical_decision_task_DD_L3,2021.2.3,iPhone,62.5,,,,,,,,,,0.753,1,,,,,,,,,,,,,,,0,-0.335546476,-0.359550562,1,0,0,0.753,button_left_main,-0.335546476,-0.359550562,1,0,0,,0,70,70,111,1,HOSSE,C,old,z,./images/HOSSE.png,,,,,,,,,,,,,,,,,,,,,,,,,,,,,,,,,
,,,,,,,,,,,,,,,,,611adfca9a449cd8843049af,36,2022-02-12_13h27.34.926,lexical_decision_task_DD_L3,2021.2.3,iPhone,62.5,,,,,,,,,,0.686,1,,,,,,,,,,,,,,,0,-0.284473953,-0.349336057,1,0,0,0.686,button_left_main,-0.284473953,-0.349336057,1,0,0,,0,71,71,138,1,PLICE,C,old,z,./images/PLICE.png,,,,,,,,,,,,,,,,,,,,,,,,,,,,,,,,,
,,,,,,,,,,,,,,,,,611adfca9a449cd8843049af,36,2022-02-12_13h27.34.926,lexical_decision_task_DD_L3,2021.2.3,iPhone,62.5,,,,,,,,,,0.637,1,,,,,,,,,,,,,,,0,-0.2773238,-0.342185904,1,0,0,0.637,button_left_main,-0.2773238,-0.342185904,1,0,0,,0,72,72,116,1,BALGY,LB,old,z,./images/BALGYLB.png,,,,,,,,,,,,,,,,,,,,,,,,,,,,,,,,,
,,,,,,,,,,,,,,,,,611adfca9a449cd8843049af,36,2022-02-12_13h27.34.926,lexical_decision_task_DD_L3,2021.2.3,iPhone,62.5,,,,,,,,,,0.754,1,,,,,,,,,,,,,,,0,-0.295709908,-0.326864147,1,0,0,0.754,button_left_main,-0.295709908,-0.326864147,1,0,0,,0,73,73,156,1,HIXES,C,old,z,./images/HIXES.png,,,,,,,,,,,,,,,,,,,,,,,,,,,,,,,,,
,,,,,,,,,,,,,,,,,611adfca9a449cd8843049af,36,2022-02-12_13h27.34.926,lexical_decision_task_DD_L3,2021.2.3,iPhone,62.5,,,,,,,,,,0.72,1,,,,,,,,,,,,,,,0,-0.271195097,-0.351378958,1,0,0,0.72,button_left_main,-0.271195097,-0.351378958,1,0,0,,0,74,74,125,1,MOOKY,LB,old,z,./images/MOOKYLB.png,,,,,,,,,,,,,,,,,,,,,,,,,,,,,,,,,
,,,,,,,,,,,,,,,,,611adfca9a449cd8843049af,36,2022-02-12_13h27.34.926,lexical_decision_task_DD_L3,2021.2.3,iPhone,62.5,,,,,,,,,,0.77,1,,,,,,,,,,,,,,,0,0.295709908,-0.363636364,1,0,0,0.77,button_right_main,0.295709908,-0.363636364,1,0,0,,0,75,75,41,1,STRING,HB,old,m,./images/STRINGHB.png,,,,,,,,,,,,,,,,,,,,,,,,,,,,,,,,,
,,,,,,,,,,,,,,,,,611adfca9a449cd8843049af,36,2022-02-12_13h27.34.926,lexical_decision_task_DD_L3,2021.2.3,iPhone,62.5,,,,,,,,,,0.57,1,,,,,,,,,,,,,,,0,0.236465781,-0.354443309,1,0,0,0.57,button_right_main,0.236465781,-0.354443309,1,0,0,,0,76,76,12,1,SHORE,LB,old,m,./images/SHORELB.png,,,,,,,,,,,,,,,,,,,,,,,,,,,,,,,,,
,,,,,,,,,,,,,,,,,611adfca9a449cd8843049af,36,2022-02-12_13h27.34.926,lexical_decision_task_DD_L3,2021.2.3,iPhone,62.5,,,,,,,,,,0.737,1,,,,,,,,,,,,,,,0,-0.285495403,-0.348314607,1,0,0,0.737,button_left_main,-0.285495403,-0.348314607,1,0,0,,0,77,77,96,1,KEAMS,C,old,z,./images/KEAMS.png,,,,,,,,,,,,,,,,,,,,,,,,,,,,,,,,,
,,,,,,,,,,,,,,,,,611adfca9a449cd8843049af,36,2022-02-12_13h27.34.926,lexical_decision_task_DD_L3,2021.2.3,iPhone,62.5,,,,,,,,,,0.692,1,,,,,,,,,,,,,,,0,-0.253830439,-0.37793667,1,0,0,0.692,button_left_main,-0.253830439,-0.37793667,1,0,0,,0,78,78,122,1,BLOOT,LB,old,z,./images/BLOOTLB.png,,,,,,,,,,,,,,,,,,,,,,,,,,,,,,,,,
,,,,,,,,,,,,,,,,,611adfca9a449cd8843049af,36,2022-02-12_13h27.34.926,lexical_decision_task_DD_L3,2021.2.3,iPhone,62.5,,,,,,,,,,0.602,1,,,,,,,,,,,,,,,0,-0.23237998,-0.37691522,1,0,0,0.602,button_left_main,-0.23237998,-0.37691522,1,0,0,,0,79,79,135,1,JOODY,C,old,z,./images/JOODY.png,,,,,,,,,,,,,,,,,,,,,,,,,,,,,,,,,
,,,,,,,,,,,,,,,,,611adfca9a449cd8843049af,36,2022-02-12_13h27.34.926,lexical_decision_task_DD_L3,2021.2.3,iPhone,62.5,,,,,,,,,,0.936,1,,,,,,,,,,,,,,,0,0.275280899,-0.364657814,1,0,0,0.936,button_right_main,0.275280899,-0.364657814,1,0,0,,0,80,80,50,1,MALLET,HB,old,m,./images/MALLETHB.png,,,,,,,,,,,,,,,,,,,,,,,,,,,,,,,,,
,,,,,,,,,,,,,,,,,611adfca9a449cd8843049af,36,2022-02-12_13h27.34.926,lexical_decision_task_DD_L3,2021.2.3,iPhone,62.5,,,,,,,,,,1.403,1,,,,,,,,,,,,,,,0,-0.2773238,-0.3340143,1,0,0,1.403,button_left_main,-0.2773238,-0.3340143,1,0,0,,0,81,81,140,1,DOVET,LB,old,z,./images/DOVETLB.png,,,,,,,,,,,,,,,,,,,,,,,,,,,,,,,,,
,,,,,,,,,,,,,,,,,611adfca9a449cd8843049af,36,2022-02-12_13h27.34.926,lexical_decision_task_DD_L3,2021.2.3,iPhone,62.5,,,,,,,,,,0.786,1,,,,,,,,,,,,,,,0,0.23340143,-0.346271706,1,0,0,0.786,button_right_main,0.23340143,-0.346271706,1,0,0,,0,82,82,13,1,MOTOR,C,old,m,./images/MOTOR.png,,,,,,,,,,,,,,,,,,,,,,,,,,,,,,,,,
,,,,,,,,,,,,,,,,,611adfca9a449cd8843049af,36,2022-02-12_13h27.34.926,lexical_decision_task_DD_L3,2021.2.3,iPhone,62.5,,,,,,,,,,0.886,1,,,,,,,,,,,,,,,0,0.18947906,-0.329928498,1,0,0,0.886,button_right_main,0.028089888,-0.436159346,1,0,0,,0,83,83,54,1,TRIPOD,LB,old,m,./images/TRIPODLB.png,break_done_button,,,,,,,,,,,,,,,,,,,,,,,,,,,,,,,,
,,,,,,,,,,,,,,,,,611adfca9a449cd8843049af,36,2022-02-12_13h27.34.926,lexical_decision_task_DD_L3,2021.2.3,iPhone,62.5,,,,,,,,,,0.854,1,,,,,,,,,,,,,,,0,-0.349846782,-0.31052094,1,0,0,0.854,button_left_main,-0.349846782,-0.31052094,1,0,0,,0,84,84,97,1,CHIDS,HB,old,z,./images/CHIDSHB.png,,,,,,,,,,,,,,,,,,,,,,,,,,,,,,,,,
,,,,,,,,,,,,,,,,,611adfca9a449cd8843049af,36,2022-02-12_13h27.34.926,lexical_decision_task_DD_L3,2021.2.3,iPhone,62.5,,,,,,,,,,0.87,1,,,,,,,,,,,,,,,0,0.262002043,-0.340143003,1,0,0,0.87,button_right_main,0.262002043,-0.340143003,1,0,0,,0,85,85,72,1,NOOSE,LB,old,m,./images/NOOSELB.png,,,,,,,,,,,,,,,,,,,,,,,,,,,,,,,,,
,,,,,,,,,,,,,,,,,611adfca9a449cd8843049af,36,2022-02-12_13h27.34.926,lexical_decision_task_DD_L3,2021.2.3,iPhone,62.5,,,,,,,,,,1.019,1,,,,,,,,,,,,,,,0,0.268130746,-0.338100102,1,0,0,1.019,button_right_main,0.268130746,-0.338100102,1,0,0,,0,86,86,20,1,CRADLE,HB,old,m,./images/CRADLEHB.png,,,,,,,,,,,,,,,,,,,,,,,,,,,,,,,,,
,,,,,,,,,,,,,,,,,611adfca9a449cd8843049af,36,2022-02-12_13h27.34.926,lexical_decision_task_DD_L3,2021.2.3,iPhone,62.5,,,,,,,,,,0.703,1,,,,,,,,,,,,,,,0,0.265066394,-0.345250255,1,0,0,0.703,button_right_main,0.265066394,-0.345250255,1,0,0,,0,87,87,5,1,PASTA,HB,old,m,./images/PASTAHB.png,,,,,,,,,,,,,,,,,,,,,,,,,,,,,,,,,
,,,,,,,,,,,,,,,,,611adfca9a449cd8843049af,36,2022-02-12_13h27.34.926,lexical_decision_task_DD_L3,2021.2.3,iPhone,62.5,,,,,,,,,,1.169,1,,,,,,,,,,,,,,,0,-0.371297242,-0.321756895,1,0,0,1.169,button_left_main,-0.371297242,-0.321756895,1,0,0,,0,88,88,106,1,CLUMS,HB,old,z,./images/CLUMSHB.png,,,,,,,,,,,,,,,,,,,,,,,,,,,,,,,,,
,,,,,,,,,,,,,,,,,611adfca9a449cd8843049af,36,2022-02-12_13h27.34.926,lexical_decision_task_DD_L3,2021.2.3,iPhone,62.5,,,,,,,,,,0.837,1,,,,,,,,,,,,,,,0,-0.298774259,-0.33299285,1,0,0,0.837,button_left_main,-0.298774259,-0.33299285,1,0,0,,0,89,89,163,1,GAMBA,HB,old,z,./images/GAMBAHB.png,,,,,,,,,,,,,,,,,,,,,,,,,,,,,,,,,
,,,,,,,,,,,,,,,,,611adfca9a449cd8843049af,36,2022-02-12_13h27.34.926,lexical_decision_task_DD_L3,2021.2.3,iPhone,62.5,,,,,,,,,,0.703,1,,,,,,,,,,,,,,,0,0.226251277,-0.321756895,1,0,0,0.703,button_right_main,0.226251277,-0.321756895,1,0,0,,0,90,90,57,1,MOOSE,LB,old,m,./images/MOOSELB.png,,,,,,,,,,,,,,,,,,,,,,,,,,,,,,,,,
,,,,,,,,,,,,,,,,,611adfca9a449cd8843049af,36,2022-02-12_13h27.34.926,lexical_decision_task_DD_L3,2021.2.3,iPhone,62.5,,,,,,,,,,0.72,1,,,,,,,,,,,,,,,0,0.243615935,-0.361593463,1,0,0,0.72,button_right_main,0.243615935,-0.361593463,1,0,0,,0,91,91,14,1,PICKLE,HB,old,m,./images/PICKLEHB.png,,,,,,,,,,,,,,,,,,,,,,,,,,,,,,,,,
,,,,,,,,,,,,,,,,,611adfca9a449cd8843049af,36,2022-02-12_13h27.34.926,lexical_decision_task_DD_L3,2021.2.3,iPhone,62.5,,,,,,,,,,0.804,1,,,,,,,,,,,,,,,0,-0.333503575,-0.347293156,1,0,0,0.804,button_left_main,-0.333503575,-0.347293156,1,0,0,,0,92,92,143,1,MONGS,LB,old,z,./images/MONGSLB.png,,,,,,,,,,,,,,,,,,,,,,,,,,,,,,,,,
,,,,,,,,,,,,,,,,,611adfca9a449cd8843049af,36,2022-02-12_13h27.34.926,lexical_decision_task_DD_L3,2021.2.3,iPhone,62.5,,,,,,,,,,0.853,1,,,,,,,,,,,,,,,0,-0.258937692,-0.324821246,1,0,0,0.853,button_left_main,-0.258937692,-0.324821246,1,0,0,,0,93,93,88,1,GLUSH,HB,old,z,./images/GLUSHHB.png,,,,,,,,,,,,,,,,,,,,,,,,,,,,,,,,,
,,,,,,,,,,,,,,,,,611adfca9a449cd8843049af,36,2022-02-12_13h27.34.926,lexical_decision_task_DD_L3,2021.2.3,iPhone,62.5,,,,,,,,,,0.703,1,,,,,,,,,,,,,,,0,0.137385087,-0.354443309,1,0,0,0.703,button_right_main,0.236465781,-0.383043922,1,0,0,,0,94,94,42,1,FOLDER,LB,old,m,./images/FOLDERLB.png,,,,,,,,,,,,,,,,,,,,,,,,,,,,,,,,,
,,,,,,,,,,,,,,,,,611adfca9a449cd8843049af,36,2022-02-12_13h27.34.926,lexical_decision_task_DD_L3,2021.2.3,iPhone,62.5,,,,,,,,,,0.655,1,,,,,,,,,,,,,,,0,0.271195097,-0.337078652,1,0,0,0.655,button_right_main,0.271195097,-0.337078652,1,0,0,,0,95,95,25,1,WRIST,C,old,m,./images/WRIST.png,,,,,,,,,,,,,,,,,,,,,,,,,,,,,,,,,
,,,,,,,,,,,,,,,,,611adfca9a449cd8843049af,36,2022-02-12_13h27.34.926,lexical_decision_task_DD_L3,2021.2.3,iPhone,62.5,,,,,,,,,,0.952,1,,,,,,,,,,,,,,,0,-0.349846782,-0.373850868,1,0,0,0.952,button_left_main,-0.349846782,-0.373850868,1,0,0,,0,96,96,133,1,POWDY,HB,old,z,./images/POWDYHB.png,,,,,,,,,,,,,,,,,,,,,,,,,,,,,,,,,
,,,,,,,,,,,,,,,,,611adfca9a449cd8843049af,36,2022-02-12_13h27.34.926,lexical_decision_task_DD_L3,2021.2.3,iPhone,62.5,,,,,,,,,,1.12,1,,,,,,,,,,,,,,,0,0.273237998,-0.373850868,1,0,0,1.12,button_right_main,0.273237998,-0.373850868,1,0,0,,0,97,97,65,1,FARMER,HB,old,m,./images/FARMERHB.png,,,,,,,,,,,,,,,,,,,,,,,,,,,,,,,,,
,,,,,,,,,,,,,,,,,611adfca9a449cd8843049af,36,2022-02-12_13h27.34.926,lexical_decision_task_DD_L3,2021.2.3,iPhone,62.5,,,,,,,,,,0.82,1,,,,,,,,,,,,,,,0,-0.329417773,-0.346271706,1,0,0,0.82,button_left_main,-0.329417773,-0.346271706,1,0,0,,0,98,98,164,1,SGREW,LB,old,z,./images/SGREWLB.png,,,,,,,,,,,,,,,,,,,,,,,,,,,,,,,,,
,,,,,,,,,,,,,,,,,611adfca9a449cd8843049af,36,2022-02-12_13h27.34.926,lexical_decision_task_DD_L3,2021.2.3,iPhone,62.5,,,,,,,,,,0.704,1,,,,,,,,,,,,,,,0,0.242594484,-0.323799796,1,0,0,0.704,button_right_main,0.242594484,-0.323799796,1,0,0,,0,99,99,82,1,SUNSET,C,old,m,./images/SUNSET.png,,,,,,,,,,,,,,,,,,,,,,,,,,,,,,,,,
,,,,,,,,,,,,,,,,,611adfca9a449cd8843049af,36,2022-02-12_13h27.34.926,lexical_decision_task_DD_L3,2021.2.3,iPhone,62.5,,,,,,,,,,0.753,1,,,,,,,,,,,,,,,0,-0.284473953,-0.327885598,1,0,0,0.753,button_left_main,-0.284473953,-0.327885598,1,0,0,,0,100,100,149,1,VEASE,LB,old,z,./images/VEASELB.png,,,,,,,,,,,,,,,,,,,,,,,,,,,,,,,,,
,,,,,,,,,,,,,,,,,611adfca9a449cd8843049af,36,2022-02-12_13h27.34.926,lexical_decision_task_DD_L3,2021.2.3,iPhone,62.5,,,,,,,,,,0.753,1,,,,,,,,,,,,,,,0,-0.21195097,-0.353421859,1,0,0,0.753,button_left_main,-0.21195097,-0.353421859,1,0,0,,0,101,101,104,1,GITTY,LB,old,z,./images/GITTYLB.png,,,,,,,,,,,,,,,,,,,,,,,,,,,,,,,,,
,,,,,,,,,,,,,,,,,611adfca9a449cd8843049af,36,2022-02-12_13h27.34.926,lexical_decision_task_DD_L3,2021.2.3,iPhone,62.5,,,,,,,,,,0.737,1,,,,,,,,,,,,,,,0,0.251787538,-0.345250255,1,0,0,0.737,button_right_main,0.251787538,-0.345250255,1,0,0,,0,102,102,78,1,LITTER,LB,old,m,./images/LITTERLB.png,,,,,,,,,,,,,,,,,,,,,,,,,,,,,,,,,
,,,,,,,,,,,,,,,,,611adfca9a449cd8843049af,36,2022-02-12_13h27.34.926,lexical_decision_task_DD_L3,2021.2.3,iPhone,62.5,,,,,,,,,,0.719,1,,,,,,,,,,,,,,,0,-0.315117467,-0.342185904,1,0,0,0.719,button_left_main,-0.315117467,-0.342185904,1,0,0,,0,103,103,102,1,DULLE,C,old,z,./images/DULLE.png,,,,,,,,,,,,,,,,,,,,,,,,,,,,,,,,,
,,,,,,,,,,,,,,,,,611adfca9a449cd8843049af,36,2022-02-12_13h27.34.926,lexical_decision_task_DD_L3,2021.2.3,iPhone,62.5,,,,,,,,,,0.686,1,,,,,,,,,,,,,,,0,0.272216547,-0.383043922,1,0,0,0.686,button_right_main,0.272216547,-0.383043922,1,0,0,,0,104,104,4,1,MUSCLE,C,old,m,./images/MUSCLE.png,,,,,,,,,,,,,,,,,,,,,,,,,,,,,,,,,
,,,,,,,,,,,,,,,,,611adfca9a449cd8843049af,36,2022-02-12_13h27.34.926,lexical_decision_task_DD_L3,2021.2.3,iPhone,62.5,,,,,,,,,,0.82,1,,,,,,,,,,,,,,,0,-0.3886619,-0.358529111,1,0,0,0.82,button_left_main,-0.3886619,-0.358529111,1,0,0,,0,105,105,127,1,NINDY,HB,old,z,./images/NINDYHB.png,,,,,,,,,,,,,,,,,,,,,,,,,,,,,,,,,
,,,,,,,,,,,,,,,,,611adfca9a449cd8843049af,36,2022-02-12_13h27.34.926,lexical_decision_task_DD_L3,2021.2.3,iPhone,62.5,,,,,,,,,,1.42,1,,,,,,,,,,,,,,,0,-0.249744637,-0.322778345,1,0,0,1.42,button_left_main,-0.249744637,-0.322778345,1,0,0,,0,106,106,157,1,INLER,HB,old,z,./images/INLERHB.png,,,,,,,,,,,,,,,,,,,,,,,,,,,,,,,,,
,,,,,,,,,,,,,,,,,611adfca9a449cd8843049af,36,2022-02-12_13h27.34.926,lexical_decision_task_DD_L3,2021.2.3,iPhone,62.5,,,,,,,,,,0.636,1,,,,,,,,,,,,,,,0,0.21195097,-0.362614913,1,0,0,0.636,button_right_main,0.21195097,-0.362614913,1,0,0,,0,107,107,79,1,CRUST,C,old,m,./images/CRUST.png,,,,,,,,,,,,,,,,,,,,,,,,,,,,,,,,,
,,,,,,,,,,,,,,,,,611adfca9a449cd8843049af,36,2022-02-12_13h27.34.926,lexical_decision_task_DD_L3,2021.2.3,iPhone,62.5,,,,,,,,,,0.771,1,,,,,,,,,,,,,,,0,0.209908069,-0.359550562,1,0,0,0.771,button_right_main,0.209908069,-0.359550562,1,0,0,,0,108,108,38,1,LADDER,HB,old,m,./images/LADDERHB.png,,,,,,,,,,,,,,,,,,,,,,,,,,,,,,,,,
,,,,,,,,,,,,,,,,,611adfca9a449cd8843049af,36,2022-02-12_13h27.34.926,lexical_decision_task_DD_L3,2021.2.3,iPhone,62.5,,,,,,,,,,0.885,1,,,,,,,,,,,,,,,0,-0.32226762,-0.307456588,1,0,0,0.885,button_left_main,-0.32226762,-0.307456588,1,0,0,,0,109,109,85,1,CHULK,HB,old,z,./images/CHULKHB.png,,,,,,,,,,,,,,,,,,,,,,,,,,,,,,,,,
,,,,,,,,,,,,,,,,,611adfca9a449cd8843049af,36,2022-02-12_13h27.34.926,lexical_decision_task_DD_L3,2021.2.3,iPhone,62.5,,,,,,,,,,0.704,1,,,,,,,,,,,,,,,0,-0.260980592,-0.330949949,1,0,0,0.704,button_left_main,-0.260980592,-0.330949949,1,0,0,,0,110,110,89,1,DRIEK,LB,old,z,./images/DRIEKLB.png,,,,,,,,,,,,,,,,,,,,,,,,,,,,,,,,,
,,,,,,,,,,,,,,,,,611adfca9a449cd8843049af,36,2022-02-12_13h27.34.926,lexical_decision_task_DD_L3,2021.2.3,iPhone,62.5,,,,,,,,,,0.587,1,,,,,,,,,,,,,,,0,-0.217058223,-0.364657814,1,0,0,0.587,button_left_main,-0.217058223,-0.364657814,1,0,0,,0,111,111,141,1,PLEET,C,old,z,./images/PLEET.png,,,,,,,,,,,,,,,,,,,,,,,,,,,,,,,,,
,,,,,,,,,,,,,,,,,611adfca9a449cd8843049af,36,2022-02-12_13h27.34.926,lexical_decision_task_DD_L3,2021.2.3,iPhone,62.5,,,,,,,,,,0.62,1,,,,,,,,,,,,,,,0,-0.219101124,-0.367722165,1,0,0,0.62,button_left_main,-0.219101124,-0.367722165,1,0,0,,0,112,112,114,1,RIKES,C,old,z,./images/RIKES.png,,,,,,,,,,,,,,,,,,,,,,,,,,,,,,,,,
,,,,,,,,,,,,,,,,,611adfca9a449cd8843049af,36,2022-02-12_13h27.34.926,lexical_decision_task_DD_L3,2021.2.3,iPhone,62.5,,,,,,,,,,0.804,1,,,,,,,,,,,,,,,0,-0.236465781,-0.363636364,1,0,0,0.804,button_left_main,-0.236465781,-0.363636364,1,0,0,,0,113,113,103,1,FLORT,HB,old,z,./images/FLORTHB.png,,,,,,,,,,,,,,,,,,,,,,,,,,,,,,,,,
,,,,,,,,,,,,,,,,,611adfca9a449cd8843049af,36,2022-02-12_13h27.34.926,lexical_decision_task_DD_L3,2021.2.3,iPhone,62.5,,,,,,,,,,1.037,1,,,,,,,,,,,,,,,0,0.280388151,-0.407558733,1,0,0,1.037,button_right_main,0.30081716,-0.331971399,1,0,0,,0,114,114,23,1,WALRUS,HB,old,m,./images/WALRUSHB.png,,,,,,,,,,,,,,,,,,,,,,,,,,,,,,,,,
,,,,,,,,,,,,,,,,,611adfca9a449cd8843049af,36,2022-02-12_13h27.34.926,lexical_decision_task_DD_L3,2021.2.3,iPhone,62.5,,,,,,,,,,0.785,1,,,,,,,,,,,,,,,0,-0.32124617,-0.299284985,1,0,0,0.785,button_left_main,-0.32124617,-0.299284985,1,0,0,,0,115,115,94,1,BLANS,HB,old,z,./images/BLANSHB.png,,,,,,,,,,,,,,,,,,,,,,,,,,,,,,,,,
,,,,,,,,,,,,,,,,,611adfca9a449cd8843049af,36,2022-02-12_13h27.34.926,lexical_decision_task_DD_L3,2021.2.3,iPhone,62.5,,,,,,,,,,0.786,1,,,,,,,,,,,,,,,0,-0.287538304,-0.291113381,1,0,0,0.786,button_left_main,-0.287538304,-0.291113381,1,0,0,,0,116,116,158,1,EGECT,LB,old,z,./images/EGECTLB.png,,,,,,,,,,,,,,,,,,,,,,,,,,,,,,,,,
,,,,,,,,,,,,,,,,,611adfca9a449cd8843049af,36,2022-02-12_13h27.34.926,lexical_decision_task_DD_L3,2021.2.3,iPhone,62.5,,,,,,,,,,0.786,1,,,,,,,,,,,,,,,0,-0.274259448,-0.33299285,1,0,0,0.786,button_left_main,-0.274259448,-0.33299285,1,0,0,,0,117,117,86,1,AIFED,LB,old,z,./images/AIFEDLB.png,,,,,,,,,,,,,,,,,,,,,,,,,,,,,,,,,
,,,,,,,,,,,,,,,,,611adfca9a449cd8843049af,36,2022-02-12_13h27.34.926,lexical_decision_task_DD_L3,2021.2.3,iPhone,62.5,,,,,,,,,,0.588,1,,,,,,,,,,,,,,,0,-0.215015322,-0.307456588,1,0,0,0.588,button_left_main,-0.215015322,-0.307456588,1,0,0,,0,118,118,162,1,LEICH,C,old,z,./images/LEICH.png,,,,,,,,,,,,,,,,,,,,,,,,,,,,,,,,,
,,,,,,,,,,,,,,,,,611adfca9a449cd8843049af,36,2022-02-12_13h27.34.926,lexical_decision_task_DD_L3,2021.2.3,iPhone,62.5,,,,,,,,,,0.752,0,,,,,,,,,,,,,,,0,-0.200715015,-0.360572012,1,0,0,0.752,button_left_main,-0.200715015,-0.360572012,1,0,0,,0,119,119,17,1,SKIING,HB,old,m,./images/SKIINGHB.png,,,,,,,,,,,,,,,,,,,,,,,,,,,,,,,,,
,,,,,,,,,,,,,,,,,611adfca9a449cd8843049af,36,2022-02-12_13h27.34.926,lexical_decision_task_DD_L3,2021.2.3,iPhone,62.5,,,,,,,,,,0.92,1,,,,,,,,,,,,,,,0,-0.2773238,-0.364657814,1,0,0,0.92,button_left_main,-0.2773238,-0.364657814,1,0,0,,0,120,120,107,1,FASKS,LB,old,z,./images/FASKSLB.png,,,,,,,,,,,,,,,,,,,,,,,,,,,,,,,,,
,,,,,,,,,,,,,,,,,611adfca9a449cd8843049af,36,2022-02-12_13h27.34.926,lexical_decision_task_DD_L3,2021.2.3,iPhone,62.5,,,,,,,,,,0.804,1,,,,,,,,,,,,,,,0,0.281409602,-0.302349336,1,0,0,0.804,button_right_main,0.281409602,-0.302349336,1,0,0,,0,121,121,9,1,RHINO,LB,old,m,./images/RHINOLB.png,,,,,,,,,,,,,,,,,,,,,,,,,,,,,,,,,
,,,,,,,,,,,,,,,,,611adfca9a449cd8843049af,36,2022-02-12_13h27.34.926,lexical_decision_task_DD_L3,2021.2.3,iPhone,62.5,,,,,,,,,,0.653,1,,,,,,,,,,,,,,,0,0.252808989,-0.326864147,1,0,0,0.653,button_right_main,0.252808989,-0.326864147,1,0,0,,0,122,122,21,1,KIDNEY,LB,old,m,./images/KIDNEYLB.png,,,,,,,,,,,,,,,,,,,,,,,,,,,,,,,,,
,,,,,,,,,,,,,,,,,611adfca9a449cd8843049af,36,2022-02-12_13h27.34.926,lexical_decision_task_DD_L3,2021.2.3,iPhone,62.5,,,,,,,,,,0.652,1,,,,,,,,,,,,,,,0,0.276302349,-0.357507661,1,0,0,0.652,button_right_main,0.276302349,-0.357507661,1,0,0,,0,123,123,24,1,SCREW,LB,old,m,./images/SCREWLB.png,,,,,,,,,,,,,,,,,,,,,,,,,,,,,,,,,
,,,,,,,,,,,,,,,,,611adfca9a449cd8843049af,36,2022-02-12_13h27.34.926,lexical_decision_task_DD_L3,2021.2.3,iPhone,62.5,,,,,,,,,,1.119,1,,,,,,,,,,,,,,,0,0.293667007,-0.371807967,1,0,0,1.119,button_right_main,0.293667007,-0.371807967,1,0,0,,0,124,124,74,1,CEMENT,HB,old,m,./images/CEMENTHB.png,,,,,,,,,,,,,,,,,,,,,,,,,,,,,,,,,
,,,,,,,,,,,,,,,,,611adfca9a449cd8843049af,36,2022-02-12_13h27.34.926,lexical_decision_task_DD_L3,2021.2.3,iPhone,62.5,,,,,,,,,,0.753,1,,,,,,,,,,,,,,,0,-0.346782431,-0.321756895,1,0,0,0.753,button_left_main,0.004596527,-0.417773238,1,0,0,,0,125,125,126,1,GUELS,C,old,z,./images/GUELS.png,break_done_button,,,,,,,,,,,,,,,,,,,,,,,,,,,,,,,,
,,,,,,,,,,,,,,,,,611adfca9a449cd8843049af,36,2022-02-12_13h27.34.926,lexical_decision_task_DD_L3,2021.2.3,iPhone,62.5,,,,,,,,,,0.67,1,,,,,,,,,,,,,,,0,-0.291624106,-0.337078652,1,0,0,0.67,button_left_main,-0.291624106,-0.337078652,1,0,0,,0,126,126,161,1,BLAPS,LB,old,z,./images/BLAPSLB.png,,,,,,,,,,,,,,,,,,,,,,,,,,,,,,,,,
,,,,,,,,,,,,,,,,,611adfca9a449cd8843049af,36,2022-02-12_13h27.34.926,lexical_decision_task_DD_L3,2021.2.3,iPhone,62.5,,,,,,,,,,0.654,1,,,,,,,,,,,,,,,0,0.260980592,-0.368743616,1,0,0,0.654,button_right_main,0.260980592,-0.368743616,1,0,0,,0,127,127,28,1,FALCON,C,old,m,./images/FALCON.png,,,,,,,,,,,,,,,,,,,,,,,,,,,,,,,,,
,,,,,,,,,,,,,,,,,611adfca9a449cd8843049af,36,2022-02-12_13h27.34.926,lexical_decision_task_DD_L3,2021.2.3,iPhone,62.5,,,,,,,,,,0.585,1,,,,,,,,,,,,,,,0,0.181307457,-0.375893769,1,0,0,0.585,button_right_main,0.296731359,-0.346271706,1,0,0,,0,128,128,40,1,SWING,C,old,m,./images/SWING.png,,,,,,,,,,,,,,,,,,,,,,,,,,,,,,,,,
,,,,,,,,,,,,,,,,,611adfca9a449cd8843049af,36,2022-02-12_13h27.34.926,lexical_decision_task_DD_L3,2021.2.3,iPhone,62.5,,,,,,,,,,0.719,0,,,,,,,,,,,,,,,0,-0.275280899,-0.345250255,1,0,0,0.719,button_left_main,-0.275280899,-0.345250255,1,0,0,,0,129,129,47,1,BERRY,HB,old,m,./images/BERRYHB.png,,,,,,,,,,,,,,,,,,,,,,,,,,,,,,,,,
,,,,,,,,,,,,,,,,,611adfca9a449cd8843049af,36,2022-02-12_13h27.34.926,lexical_decision_task_DD_L3,2021.2.3,iPhone,62.5,,,,,,,,,,0.953,1,,,,,,,,,,,,,,,0,-0.293667007,-0.329928498,1,0,0,0.953,button_left_main,-0.293667007,-0.329928498,1,0,0,,0,130,130,91,1,SHENS,HB,old,z,./images/SHENSHB.png,,,,,,,,,,,,,,,,,,,,,,,,,,,,,,,,,
,,,,,,,,,,,,,,,,,611adfca9a449cd8843049af,36,2022-02-12_13h27.34.926,lexical_decision_task_DD_L3,2021.2.3,iPhone,62.5,,,,,,,,,,0.784,1,,,,,,,,,,,,,,,0,0.291624106,-0.324821246,1,0,0,0.784,button_right_main,0.291624106,-0.324821246,1,0,0,,0,131,131,83,1,JUNGLE,HB,old,m,./images/JUNGLEHB.png,,,,,,,,,,,,,,,,,,,,,,,,,,,,,,,,,
,,,,,,,,,,,,,,,,,611adfca9a449cd8843049af,36,2022-02-12_13h27.34.926,lexical_decision_task_DD_L3,2021.2.3,iPhone,62.5,,,,,,,,,,0.803,1,,,,,,,,,,,,,,,0,-0.307967314,-0.349336057,1,0,0,0.803,button_left_main,-0.307967314,-0.349336057,1,0,0,,0,132,132,113,1,LINEW,LB,old,z,./images/LINEWLB.png,,,,,,,,,,,,,,,,,,,,,,,,,,,,,,,,,
,,,,,,,,,,,,,,,,,611adfca9a449cd8843049af,36,2022-02-12_13h27.34.926,lexical_decision_task_DD_L3,2021.2.3,iPhone,62.5,,,,,,,,,,0.748,1,,,,,,,,,,,,,,,0,0.32226762,-0.31052094,1,0,0,0.748,button_right_main,0.32226762,-0.31052094,1,0,0,,0,133,133,66,1,SWEAT,LB,old,m,./images/SWEATLB.png,,,,,,,,,,,,,,,,,,,,,,,,,,,,,,,,,
,,,,,,,,,,,,,,,,,611adfca9a449cd8843049af,36,2022-02-12_13h27.34.926,lexical_decision_task_DD_L3,2021.2.3,iPhone,62.5,,,,,,,,,,0.736,1,,,,,,,,,,,,,,,0,-0.283452503,-0.299284985,1,0,0,0.736,button_left_main,-0.283452503,-0.299284985,1,0,0,,0,134,134,123,1,SEDGE,C,old,z,./images/SEDGE.png,,,,,,,,,,,,,,,,,,,,,,,,,,,,,,,,,
,,,,,,,,,,,,,,,,,611adfca9a449cd8843049af,36,2022-02-12_13h27.34.926,lexical_decision_task_DD_L3,2021.2.3,iPhone,62.5,,,,,,,,,,0.787,1,,,,,,,,,,,,,,,0,0.272216547,-0.31052094,1,0,0,0.787,button_right_main,0.272216547,-0.31052094,1,0,0,,0,135,135,70,1,URINE,C,old,m,./images/URINE.png,,,,,,,,,,,,,,,,,,,,,,,,,,,,,,,,,
,,,,,,,,,,,,,,,,,611adfca9a449cd8843049af,36,2022-02-12_13h27.34.926,lexical_decision_task_DD_L3,2021.2.3,iPhone,62.5,,,,,,,,,,0.837,1,,,,,,,,,,,,,,,0,0.290602656,-0.306435138,1,0,0,0.837,button_right_main,0.290602656,-0.306435138,1,0,0,,0,136,136,19,1,DOUGH,C,old,m,./images/DOUGH.png,,,,,,,,,,,,,,,,,,,,,,,,,,,,,,,,,
,,,,,,,,,,,,,,,,,611adfca9a449cd8843049af,36,2022-02-12_13h27.34.926,lexical_decision_task_DD_L3,2021.2.3,iPhone,62.5,,,,,,,,,,0.687,1,,,,,,,,,,,,,,,0,-0.287538304,-0.317671093,1,0,0,0.687,button_left_main,-0.287538304,-0.317671093,1,0,0,,0,137,137,167,1,ZONET,LB,old,z,./images/ZONETLB.png,,,,,,,,,,,,,,,,,,,,,,,,,,,,,,,,,
,,,,,,,,,,,,,,,,,611adfca9a449cd8843049af,36,2022-02-12_13h27.34.926,lexical_decision_task_DD_L3,2021.2.3,iPhone,62.5,,,,,,,,,,1.12,1,,,,,,,,,,,,,,,0,0.292645557,-0.309499489,1,0,0,1.12,button_right_main,0.292645557,-0.309499489,1,0,0,,0,138,138,69,1,COOKER,LB,old,m,./images/COOKERLB.png,,,,,,,,,,,,,,,,,,,,,,,,,,,,,,,,,
,,,,,,,,,,,,,,,,,611adfca9a449cd8843049af,36,2022-02-12_13h27.34.926,lexical_decision_task_DD_L3,2021.2.3,iPhone,62.5,,,,,,,,,,0.919,1,,,,,,,,,,,,,,,0,-0.276302349,-0.316649642,1,0,0,0.919,button_left_main,-0.276302349,-0.316649642,1,0,0,,0,139,139,119,1,PAFER,LB,old,z,./images/PAFERLB.png,,,,,,,,,,,,,,,,,,,,,,,,,,,,,,,,,
,,,,,,,,,,,,,,,,,611adfca9a449cd8843049af,36,2022-02-12_13h27.34.926,lexical_decision_task_DD_L3,2021.2.3,iPhone,62.5,,,,,,,,,,0.803,1,,,,,,,,,,,,,,,0,0.281409602,-0.323799796,1,0,0,0.803,button_right_main,0.281409602,-0.323799796,1,0,0,,0,140,140,56,1,PACKET,HB,old,m,./images/PACKETHB.png,,,,,,,,,,,,,,,,,,,,,,,,,,,,,,,,,
,,,,,,,,,,,,,,,,,611adfca9a449cd8843049af,36,2022-02-12_13h27.34.926,lexical_decision_task_DD_L3,2021.2.3,iPhone,62.5,,,,,,,,,,0.753,1,,,,,,,,,,,,,,,0,0.269152196,-0.297242084,1,0,0,0.753,button_right_main,0.269152196,-0.297242084,1,0,0,,0,141,141,3,1,FINGER,LB,old,m,./images/FINGERLB.png,,,,,,,,,,,,,,,,,,,,,,,,,,,,,,,,,
,,,,,,,,,,,,,,,,,611adfca9a449cd8843049af,36,2022-02-12_13h27.34.926,lexical_decision_task_DD_L3,2021.2.3,iPhone,62.5,,,,,,,,,,1.602,1,,,,,,,,,,,,,,,0,-0.315117467,-0.297242084,1,0,0,1.602,button_left_main,-0.315117467,-0.297242084,1,0,0,,0,142,142,100,1,DRIBS,HB,old,z,./images/DRIBSHB.png,,,,,,,,,,,,,,,,,,,,,,,,,,,,,,,,,
,,,,,,,,,,,,,,,,,611adfca9a449cd8843049af,36,2022-02-12_13h27.34.926,lexical_decision_task_DD_L3,2021.2.3,iPhone,62.5,,,,,,,,,,1.136,1,,,,,,,,,,,,,,,0,0.298774259,-0.308478039,1,0,0,1.136,button_right_main,0.298774259,-0.308478039,1,0,0,,0,143,143,0,1,TOMATO,LB,old,m,./images/TOMATOLB.png,,,,,,,,,,,,,,,,,,,,,,,,,,,,,,,,,
,,,,,,,,,,,,,,,,,611adfca9a449cd8843049af,36,2022-02-12_13h27.34.926,lexical_decision_task_DD_L3,2021.2.3,iPhone,62.5,,,,,,,,,,0.603,1,,,,,,,,,,,,,,,0,0.236465781,-0.325842697,1,0,0,0.603,button_right_main,0.236465781,-0.325842697,1,0,0,,0,144,144,36,1,THROAT,LB,old,m,./images/THROATLB.png,,,,,,,,,,,,,,,,,,,,,,,,,,,,,,,,,
,,,,,,,,,,,,,,,,,611adfca9a449cd8843049af,36,2022-02-12_13h27.34.926,lexical_decision_task_DD_L3,2021.2.3,iPhone,62.5,,,,,,,,,,0.637,1,,,,,,,,,,,,,,,0,0.249744637,-0.297242084,1,0,0,0.637,button_right_main,0.249744637,-0.297242084,1,0,0,,0,145,145,76,1,INFANT,C,old,m,./images/INFANT.png,,,,,,,,,,,,,,,,,,,,,,,,,,,,,,,,,
,,,,,,,,,,,,,,,,,611adfca9a449cd8843049af,36,2022-02-12_13h27.34.926,lexical_decision_task_DD_L3,2021.2.3,iPhone,62.5,,,,,,,,,,0.819,1,,,,,,,,,,,,,,,0,-0.325331971,-0.320735444,1,0,0,0.819,button_left_main,-0.325331971,-0.320735444,1,0,0,,0,146,146,118,1,BAVEL,HB,old,z,./images/BAVELHB.png,,,,,,,,,,,,,,,,,,,,,,,,,,,,,,,,,
,,,,,,,,,,,,,,,,,611adfca9a449cd8843049af,36,2022-02-12_13h27.34.926,lexical_decision_task_DD_L3,2021.2.3,iPhone,62.5,,,,,,,,,,0.737,1,,,,,,,,,,,,,,,0,-0.271195097,-0.352400409,1,0,0,0.737,button_left_main,-0.271195097,-0.352400409,1,0,0,,0,147,147,131,1,NACES,LB,old,z,./images/NACESLB.png,,,,,,,,,,,,,,,,,,,,,,,,,,,,,,,,,
,,,,,,,,,,,,,,,,,611adfca9a449cd8843049af,36,2022-02-12_13h27.34.926,lexical_decision_task_DD_L3,2021.2.3,iPhone,62.5,,,,,,,,,,1.32,0,,,,,,,,,,,,,,,0,0.292645557,-0.308478039,1,0,0,1.32,button_right_main,0.292645557,-0.308478039,1,0,0,,0,148,148,137,1,JOOST,LB,old,z,./images/JOOSTLB.png,,,,,,,,,,,,,,,,,,,,,,,,,,,,,,,,,
,,,,,,,,,,,,,,,,,611adfca9a449cd8843049af,36,2022-02-12_13h27.34.926,lexical_decision_task_DD_L3,2021.2.3,iPhone,62.5,,,,,,,,,,0.636,1,,,,,,,,,,,,,,,0,0.224208376,-0.271705822,1,0,0,0.636,button_right_main,0.224208376,-0.271705822,1,0,0,,0,149,149,51,1,ONION,LB,old,m,./images/ONIONLB.png,,,,,,,,,,,,,,,,,,,,,,,,,,,,,,,,,
,,,,,,,,,,,,,,,,,611adfca9a449cd8843049af,36,2022-02-12_13h27.34.926,lexical_decision_task_DD_L3,2021.2.3,iPhone,62.5,,,,,,,,,,0.953,1,,,,,,,,,,,,,,,0,0.238508682,-0.282941777,1,0,0,0.953,button_right_main,0.238508682,-0.282941777,1,0,0,,0,150,150,2,1,BEARD,HB,old,m,./images/BEARDHB.png,,,,,,,,,,,,,,,,,,,,,,,,,,,,,,,,,
,,,,,,,,,,,,,,,,,611adfca9a449cd8843049af,36,2022-02-12_13h27.34.926,lexical_decision_task_DD_L3,2021.2.3,iPhone,62.5,,,,,,,,,,0.803,1,,,,,,,,,,,,,,,0,-0.331460674,-0.286006129,1,0,0,0.803,button_left_main,-0.331460674,-0.286006129,1,0,0,,0,151,151,120,1,RINED,C,old,z,./images/RINED.png,,,,,,,,,,,,,,,,,,,,,,,,,,,,,,,,,
,,,,,,,,,,,,,,,,,611adfca9a449cd8843049af,36,2022-02-12_13h27.34.926,lexical_decision_task_DD_L3,2021.2.3,iPhone,62.5,,,,,,,,,,0.687,1,,,,,,,,,,,,,,,0,0.276302349,-0.339121553,1,0,0,0.687,button_right_main,0.276302349,-0.339121553,1,0,0,,0,152,152,30,1,STORM,LB,old,m,./images/STORMLB.png,,,,,,,,,,,,,,,,,,,,,,,,,,,,,,,,,
,,,,,,,,,,,,,,,,,611adfca9a449cd8843049af,36,2022-02-12_13h27.34.926,lexical_decision_task_DD_L3,2021.2.3,iPhone,62.5,,,,,,,,,,1.019,1,,,,,,,,,,,,,,,0,-0.319203269,-0.321756895,1,0,0,1.019,button_left_main,-0.319203269,-0.321756895,1,0,0,,0,153,153,145,1,LAMEL,HB,old,z,./images/LAMELHB.png,,,,,,,,,,,,,,,,,,,,,,,,,,,,,,,,,
,,,,,,,,,,,,,,,,,611adfca9a449cd8843049af,36,2022-02-12_13h27.34.926,lexical_decision_task_DD_L3,2021.2.3,iPhone,62.5,,,,,,,,,,0.737,1,,,,,,,,,,,,,,,0,0.264044944,-0.317671093,1,0,0,0.737,button_right_main,0.264044944,-0.317671093,1,0,0,,0,154,154,34,1,CANYON,C,old,m,./images/CANYON.png,,,,,,,,,,,,,,,,,,,,,,,,,,,,,,,,,
,,,,,,,,,,,,,,,,,611adfca9a449cd8843049af,36,2022-02-12_13h27.34.926,lexical_decision_task_DD_L3,2021.2.3,iPhone,62.5,,,,,,,,,,0.936,1,,,,,,,,,,,,,,,0,-0.324310521,-0.320735444,1,0,0,0.936,button_left_main,-0.324310521,-0.320735444,1,0,0,,0,155,155,142,1,PLASK,HB,old,z,./images/PLASKHB.png,,,,,,,,,,,,,,,,,,,,,,,,,,,,,,,,,
,,,,,,,,,,,,,,,,,611adfca9a449cd8843049af,36,2022-02-12_13h27.34.926,lexical_decision_task_DD_L3,2021.2.3,iPhone,62.5,,,,,,,,,,0.737,1,,,,,,,,,,,,,,,0,-0.295709908,-0.31052094,1,0,0,0.737,button_left_main,-0.295709908,-0.31052094,1,0,0,,0,156,156,150,1,NOOLS,C,old,z,./images/NOOLS.png,,,,,,,,,,,,,,,,,,,,,,,,,,,,,,,,,
,,,,,,,,,,,,,,,,,611adfca9a449cd8843049af,36,2022-02-12_13h27.34.926,lexical_decision_task_DD_L3,2021.2.3,iPhone,62.5,,,,,,,,,,1.203,1,,,,,,,,,,,,,,,0,0.308988764,-0.318692543,1,0,0,1.203,button_right_main,0.308988764,-0.318692543,1,0,0,,0,157,157,46,1,PEARL,C,old,m,./images/PEARL.png,,,,,,,,,,,,,,,,,,,,,,,,,,,,,,,,,
,,,,,,,,,,,,,,,,,611adfca9a449cd8843049af,36,2022-02-12_13h27.34.926,lexical_decision_task_DD_L3,2021.2.3,iPhone,62.5,,,,,,,,,,0.786,1,,,,,,,,,,,,,,,0,-0.271195097,-0.320735444,1,0,0,0.786,button_left_main,-0.271195097,-0.320735444,1,0,0,,0,158,158,108,1,GRUET,C,old,z,./images/GRUET.png,,,,,,,,,,,,,,,,,,,,,,,,,,,,,,,,,
,,,,,,,,,,,,,,,,,611adfca9a449cd8843049af,36,2022-02-12_13h27.34.926,lexical_decision_task_DD_L3,2021.2.3,iPhone,62.5,,,,,,,,,,0.653,1,,,,,,,,,,,,,,,0,0.330439224,-0.324821246,1,0,0,0.653,button_right_main,0.330439224,-0.324821246,1,0,0,,0,159,159,73,1,SNACK,C,old,m,./images/SNACK.png,,,,,,,,,,,,,,,,,,,,,,,,,,,,,,,,,
,,,,,,,,,,,,,,,,,611adfca9a449cd8843049af,36,2022-02-12_13h27.34.926,lexical_decision_task_DD_L3,2021.2.3,iPhone,62.5,,,,,,,,,,0.553,1,,,,,,,,,,,,,,,0,0.282431052,-0.324821246,1,0,0,0.553,button_right_main,0.282431052,-0.324821246,1,0,0,,0,160,160,15,1,GREASE,LB,old,m,./images/GREASELB.png,,,,,,,,,,,,,,,,,,,,,,,,,,,,,,,,,
,,,,,,,,,,,,,,,,,611adfca9a449cd8843049af,36,2022-02-12_13h27.34.926,lexical_decision_task_DD_L3,2021.2.3,iPhone,62.5,,,,,,,,,,0.619,1,,,,,,,,,,,,,,,0,0.316138917,-0.314606742,1,0,0,0.619,button_right_main,0.316138917,-0.314606742,1,0,0,,0,161,161,63,1,MIRROR,LB,old,m,./images/MIRRORLB.png,,,,,,,,,,,,,,,,,,,,,,,,,,,,,,,,,
,,,,,,,,,,,,,,,,,611adfca9a449cd8843049af,36,2022-02-12_13h27.34.926,lexical_decision_task_DD_L3,2021.2.3,iPhone,62.5,,,,,,,,,,0.67,1,,,,,,,,,,,,,,,0,0.295709908,-0.345250255,1,0,0,0.67,button_right_main,0.295709908,-0.345250255,1,0,0,,0,162,162,35,1,PEACH,HB,old,m,./images/PEACHHB.png,,,,,,,,,,,,,,,,,,,,,,,,,,,,,,,,,
,,,,,,,,,,,,,,,,,611adfca9a449cd8843049af,36,2022-02-12_13h27.34.926,lexical_decision_task_DD_L3,2021.2.3,iPhone,62.5,,,,,,,,,,0.853,1,,,,,,,,,,,,,,,0,-0.403983657,-0.323799796,1,0,0,0.853,button_left_main,-0.403983657,-0.323799796,1,0,0,,0,163,163,109,1,BURGE,HB,old,z,./images/BURGEHB.png,,,,,,,,,,,,,,,,,,,,,,,,,,,,,,,,,
,,,,,,,,,,,,,,,,,611adfca9a449cd8843049af,36,2022-02-12_13h27.34.926,lexical_decision_task_DD_L3,2021.2.3,iPhone,62.5,,,,,,,,,,0.769,1,,,,,,,,,,,,,,,0,-0.242594484,-0.330949949,1,0,0,0.769,button_left_main,-0.242594484,-0.330949949,1,0,0,,0,164,164,90,1,NEAST,C,old,z,./images/NEAST.png,,,,,,,,,,,,,,,,,,,,,,,,,,,,,,,,,
,,,,,,,,,,,,,,,,,611adfca9a449cd8843049af,36,2022-02-12_13h27.34.926,lexical_decision_task_DD_L3,2021.2.3,iPhone,62.5,,,,,,,,,,0.653,1,,,,,,,,,,,,,,,0,-0.312053115,-0.341164454,1,0,0,0.653,button_left_main,-0.312053115,-0.341164454,1,0,0,,0,165,165,153,1,CLUPS,C,old,z,./images/CLUPS.png,,,,,,,,,,,,,,,,,,,,,,,,,,,,,,,,,
,,,,,,,,,,,,,,,,,611adfca9a449cd8843049af,36,2022-02-12_13h27.34.926,lexical_decision_task_DD_L3,2021.2.3,iPhone,62.5,,,,,,,,,,0.686,1,,,,,,,,,,,,,,,0,-0.260980592,-0.319713994,1,0,0,0.686,button_left_main,-0.260980592,-0.319713994,1,0,0,,0,166,166,159,1,CUDDY,C,old,z,./images/CUDDY.png,,,,,,,,,,,,,,,,,,,,,,,,,,,,,,,,,
,,,,,,,,,,,,,,,,,611adfca9a449cd8843049af,36,2022-02-12_13h27.34.926,lexical_decision_task_DD_L3,2021.2.3,iPhone,62.5,,,,,,,,,,0.819,1,,,,,,,,,,,,,,,0,0.335546476,-0.326864147,1,0,0,0.819,button_right_main,0.335546476,-0.326864147,1,0,0,,0,167,167,60,1,TWINS,LB,old,m,./images/TWINSLB.png,,,,,,,,,,,,,,,,,,,,,,,,,,,,,,,,,
,,,,,,,,,,,,,,,,,611adfca9a449cd8843049af,36,2022-02-12_13h27.34.926,lexical_decision_task_DD_L3,2021.2.3,iPhone,62.5,,,,,,,,,,,,,,,,,,,,,,,,,,,,,,,,,,,,,,,,,,,,,,How likely will it be that you will recognize the words presented clearly on a scale of 0 (not likely) to 100 (most likely)?,,,,,0.002553626,-0.411644535,1,0,0,jol_adv,5,9.567,0,0,0,0,1,,,,,,,,,,,,,,,,,,,
,,,,,,,,,,,,,,,,,611adfca9a449cd8843049af,36,2022-02-12_13h27.34.926,lexical_decision_task_DD_L3,2021.2.3,iPhone,62.5,,,,,,,,,,,,,,,,,,,,,,,,,,,,,,,,,,,,,,,,,,,,,,How likely will it be that you will recognize the words presented very blurred on a scale of 0 (not likely) to 100 (most likely)?,,,,,,,,,,,5,1.264,0,1,1,2,1,,,,,,,,,,,,,,,,,,,
,,,,,,,,,,,,,,,,,611adfca9a449cd8843049af,36,2022-02-12_13h27.34.926,lexical_decision_task_DD_L3,2021.2.3,iPhone,62.5,,,,,,,,,,,,,,,,,,,,,,,,,,,,,,,,,,,,,,,,,,,,,,How likely will it be that you will recognize the words presented slighly blurred on a scale of 0 (not likely) to 100 (most likely)?,,,,,,,,,,,6,9.209,0,2,2,1,1,,,,,,,,,,,,,,,,,,,
,0.09959142,-0.395301328,1,0,0,instr_done_button,,,,,,1,test,"In the next phase you will be presented with the words from the the first phase. Your job is to decide whether you remember seeing the word or not. If you remember seeing the word press ""old"" or type ""m"". If you do not remember seeing the word press ""new"" or type ""z"". Please press the space bar or click on continue to begin. ",,,611adfca9a449cd8843049af,36,2022-02-12_13h27.34.926,lexical_decision_task_DD_L3,2021.2.3,iPhone,62.5,,,,,,,,,,,,,,,,,,,,,,,,,,,,,,,,,,,,,,,,,,,,,,,,,,,,,,,,,,,,,,,,0,0,0,0,1,,,,,,,,,,,,,,
,0.043411645,-0.384065373,1,0,0,instr_done_button,,,,,,1,test,"In the next phase you will be presented with the words from the the first phase. Your job is to decide whether you remember seeing the word or not. If you remember seeing the word press ""old"" or type ""m"". If you do not remember seeing the word press ""new"" or type ""z"". Please press the space bar or click on continue to begin. ",,,611adfca9a449cd8843049af,36,2022-02-12_13h27.34.926,lexical_decision_task_DD_L3,2021.2.3,iPhone,62.5,,,,,,,,,,,,,,,,,,,,,,,,,,,,,,,,,,,,,,,,,,,,,,,,,,,,,,,,,,,,,,,,1,0,1,0,1,,,,,,,,,,,,,,
,-0.018896834,-0.409601634,1,0,0,instr_done_button,,,,,,1,test,"In the next phase you will be presented with the words from the the first phase. Your job is to decide whether you remember seeing the word or not. If you remember seeing the word press ""old"" or type ""m"". If you do not remember seeing the word press ""new"" or type ""z"". Please press the space bar or click on continue to begin. ",,,611adfca9a449cd8843049af,36,2022-02-12_13h27.34.926,lexical_decision_task_DD_L3,2021.2.3,iPhone,62.5,,,,,,,,,,,,,,,,,,,,,,,,,,,,,,,,,,,,,,,,,,,,,,,,,,,,,,,,,,,,,,,,2,0,2,0,1,,,,,,,,,,,,,,
,0.063840654,-0.388151175,1,0,0,instr_done_button,,,,,,1,test,"In the next phase you will be presented with the words from the the first phase. Your job is to decide whether you remember seeing the word or not. If you remember seeing the word press ""old"" or type ""m"". If you do not remember seeing the word press ""new"" or type ""z"". Please press the space bar or click on continue to begin. ",,,611adfca9a449cd8843049af,36,2022-02-12_13h27.34.926,lexical_decision_task_DD_L3,2021.2.3,iPhone,62.5,,,,,,,,,,,,,,,,,,,,,,,,,,,,,,,,,,,,,,,,,,,,,,,,,,,,,,,,,,,,,,,,3,0,3,0,1,,,,,,,,,,,,,,
,0.05566905,-0.35546476,1,0,0,instr_done_button,,,,,,1,test,"In the next phase you will be presented with the words from the the first phase. Your job is to decide whether you remember seeing the word or not. If you remember seeing the word press ""old"" or type ""m"". If you do not remember seeing the word press ""new"" or type ""z"". Please press the space bar or click on continue to begin. ",,,611adfca9a449cd8843049af,36,2022-02-12_13h27.34.926,lexical_decision_task_DD_L3,2021.2.3,iPhone,62.5,,,,,,,,,,,,,,,,,,,,,,,,,,,,,,,,,,,,,,,,,,,,,,,,,,,,,,,,,,,,,,,,4,0,4,0,1,,,,,,,,,,,,,,
,,,,,,,,,,,,,,,,,611adfca9a449cd8843049af,36,2022-02-12_13h27.34.926,lexical_decision_task_DD_L3,2021.2.3,iPhone,62.5,,,,,,,,,,3.998,0,,,,,,,,,,,,,,,,,,,,,,,0.332482125,-0.315628192,1,0,0,,,,,,,MIDGET,C,z,m,./images/MIDGET.png,,,,,,,,,,,,,,,,,,,,,0,0.332482125,-0.315628192,1,0,0,3.998,button_right_test,0,0,0,160,1
,,,,,,,,,,,,,,,,,611adfca9a449cd8843049af,36,2022-02-12_13h27.34.926,lexical_decision_task_DD_L3,2021.2.3,iPhone,62.5,,,,,,,,,,1.119,1,,,,,,,,,,,,,,,,,,,,,,,-0.36618999,-0.337078652,1,0,0,,,,,,,CLOUD,HB,z,m,./images/CLOUDHB.png,,,,,,,,,,,,,,,,,,,,,0,-0.36618999,-0.337078652,1,0,0,1.119,button_left_test,0,1,1,110,1
,,,,,,,,,,,,,,,,,611adfca9a449cd8843049af,36,2022-02-12_13h27.34.926,lexical_decision_task_DD_L3,2021.2.3,iPhone,62.5,,,,,,,,,,1.552,1,,,,,,,,,,,,,,,,,,,,,,,0.373340143,-0.291113381,1,0,0,,,,,,,CARPET,HB,m,m,./images/CARPETHB.png,,,,,,,,,,,,,,,,,,,,,0,0.373340143,-0.291113381,1,0,0,1.552,button_right_test,0,2,2,53,1
,,,,,,,,,,,,,,,,,611adfca9a449cd8843049af,36,2022-02-12_13h27.34.926,lexical_decision_task_DD_L3,2021.2.3,iPhone,62.5,,,,,,,,,,1.019,1,,,,,,,,,,,,,,,,,,,,,,,0.370275792,-0.297242084,1,0,0,,,,,,,BELLY,C,m,m,./images/BELLY.png,,,,,,,,,,,,,,,,,,,,,0,0.370275792,-0.297242084,1,0,0,1.019,button_right_test,0,3,3,10,1
,,,,,,,,,,,,,,,,,611adfca9a449cd8843049af,36,2022-02-12_13h27.34.926,lexical_decision_task_DD_L3,2021.2.3,iPhone,62.5,,,,,,,,,,0.669,1,,,,,,,,,,,,,,,,,,,,,,,0.429519918,-0.290091931,1,0,0,,,,,,,TULIP,HB,m,m,./images/TULIPHB.png,,,,,,,,,,,,,,,,,,,,,0,0.429519918,-0.290091931,1,0,0,0.669,button_right_test,0,4,4,8,1
,,,,,,,,,,,,,,,,,611adfca9a449cd8843049af,36,2022-02-12_13h27.34.926,lexical_decision_task_DD_L3,2021.2.3,iPhone,62.5,,,,,,,,,,0.753,1,,,,,,,,,,,,,,,,,,,,,,,0.41215526,-0.290091931,1,0,0,,,,,,,SPORT,LB,m,m,./images/SPORTLB.png,,,,,,,,,,,,,,,,,,,,,0,0.41215526,-0.290091931,1,0,0,0.753,button_right_test,0,5,5,48,1
,,,,,,,,,,,,,,,,,611adfca9a449cd8843049af,36,2022-02-12_13h27.34.926,lexical_decision_task_DD_L3,2021.2.3,iPhone,62.5,,,,,,,,,,0.703,0,,,,,,,,,,,,,,,,,,,,,,,0.414198161,-0.26659857,1,0,0,,,,,,,BUNNY,C,z,m,./images/BUNNY.png,,,,,,,,,,,,,,,,,,,,,0,0.414198161,-0.26659857,1,0,0,0.703,button_right_test,0,6,6,97,1
,,,,,,,,,,,,,,,,,611adfca9a449cd8843049af,36,2022-02-12_13h27.34.926,lexical_decision_task_DD_L3,2021.2.3,iPhone,62.5,,,,,,,,,,1.019,1,,,,,,,,,,,,,,,,,,,,,,,-0.394790603,-0.316649642,1,0,0,,,,,,,STOOL,C,z,m,./images/STOOL.png,,,,,,,,,,,,,,,,,,,,,0,-0.394790603,-0.316649642,1,0,0,1.019,button_left_test,0,7,7,127,1
,,,,,,,,,,,,,,,,,611adfca9a449cd8843049af,36,2022-02-12_13h27.34.926,lexical_decision_task_DD_L3,2021.2.3,iPhone,62.5,,,,,,,,,,1.037,1,,,,,,,,,,,,,,,,,,,,,,,-0.38968335,-0.318692543,1,0,0,,,,,,,MUMMY,C,z,m,./images/MUMMY.png,,,,,,,,,,,,,,,,,,,,,0,-0.38968335,-0.318692543,1,0,0,1.037,button_left_test,0,8,8,130,1
,,,,,,,,,,,,,,,,,611adfca9a449cd8843049af,36,2022-02-12_13h27.34.926,lexical_decision_task_DD_L3,2021.2.3,iPhone,62.5,,,,,,,,,,1.102,1,,,,,,,,,,,,,,,,,,,,,,,0.418283963,-0.297242084,1,0,0,,,,,,,PAINT,C,m,m,./images/PAINT.png,,,,,,,,,,,,,,,,,,,,,0,0.418283963,-0.297242084,1,0,0,1.102,button_right_test,0,9,9,7,1
,,,,,,,,,,,,,,,,,611adfca9a449cd8843049af,36,2022-02-12_13h27.34.926,lexical_decision_task_DD_L3,2021.2.3,iPhone,62.5,,,,,,,,,,0.866,1,,,,,,,,,,,,,,,,,,,,,,,-0.428498468,-0.293156282,1,0,0,,,,,,,BANANA,C,z,m,./images/BANANA.png,,,,,,,,,,,,,,,,,,,,,0,-0.428498468,-0.293156282,1,0,0,0.866,button_left_test,0,10,10,154,1
,,,,,,,,,,,,,,,,,611adfca9a449cd8843049af,36,2022-02-12_13h27.34.926,lexical_decision_task_DD_L3,2021.2.3,iPhone,62.5,,,,,,,,,,0.785,0,,,,,,,,,,,,,,,,,,,,,,,0.419305414,-0.294177732,1,0,0,,,,,,,HOCKEY,HB,z,m,./images/HOCKEYHB.png,,,,,,,,,,,,,,,,,,,,,0,0.419305414,-0.294177732,1,0,0,0.785,button_right_test,0,11,11,116,1
,,,,,,,,,,,,,,,,,611adfca9a449cd8843049af,36,2022-02-12_13h27.34.926,lexical_decision_task_DD_L3,2021.2.3,iPhone,62.5,,,,,,,,,,1.203,1,,,,,,,,,,,,,,,,,,,,,,,-0.396833504,-0.303370787,1,0,0,,,,,,,POKER,C,z,m,./images/POKER.png,,,,,,,,,,,,,,,,,,,,,0,-0.396833504,-0.303370787,1,0,0,1.203,button_left_test,0,12,12,151,1
,,,,,,,,,,,,,,,,,611adfca9a449cd8843049af,36,2022-02-12_13h27.34.926,lexical_decision_task_DD_L3,2021.2.3,iPhone,62.5,,,,,,,,,,0.82,1,,,,,,,,,,,,,,,,,,,,,,,0.475485189,-0.273748723,1,0,0,,,,,,,FALCON,C,m,m,./images/FALCON.png,,,,,,,,,,,,,,,,,,,,,0,0.475485189,-0.273748723,1,0,0,0.82,button_right_test,0,13,13,28,1
,,,,,,,,,,,,,,,,,611adfca9a449cd8843049af,36,2022-02-12_13h27.34.926,lexical_decision_task_DD_L3,2021.2.3,iPhone,62.5,,,,,,,,,,1.335,1,,,,,,,,,,,,,,,,,,,,,,,-0.399897855,-0.297242084,1,0,0,,,,,,,BLOKE,LB,z,m,./images/BLOKELB.png,,,,,,,,,,,,,,,,,,,,,0,-0.399897855,-0.297242084,1,0,0,1.335,button_left_test,0,14,14,96,1
,,,,,,,,,,,,,,,,,611adfca9a449cd8843049af,36,2022-02-12_13h27.34.926,lexical_decision_task_DD_L3,2021.2.3,iPhone,62.5,,,,,,,,,,0.669,1,,,,,,,,,,,,,,,,,,,,,,,0.427477017,-0.287027579,1,0,0,,,,,,,PICKLE,HB,m,m,./images/PICKLEHB.png,,,,,,,,,,,,,,,,,,,,,0,0.427477017,-0.287027579,1,0,0,0.669,button_right_test,0,15,15,14,1
,,,,,,,,,,,,,,,,,611adfca9a449cd8843049af,36,2022-02-12_13h27.34.926,lexical_decision_task_DD_L3,2021.2.3,iPhone,62.5,,,,,,,,,,0.653,1,,,,,,,,,,,,,,,,,,,,,,,0.459141982,-0.283963228,1,0,0,,,,,,,SWEAT,LB,m,m,./images/SWEATLB.png,,,,,,,,,,,,,,,,,,,,,0,0.459141982,-0.283963228,1,0,0,0.653,button_right_test,0,16,16,66,1
,,,,,,,,,,,,,,,,,611adfca9a449cd8843049af,36,2022-02-12_13h27.34.926,lexical_decision_task_DD_L3,2021.2.3,iPhone,62.5,,,,,,,,,,1.385,1,,,,,,,,,,,,,,,,,,,,,,,-0.396833504,-0.305413687,1,0,0,,,,,,,CLOTH,HB,z,m,./images/CLOTHHB.png,,,,,,,,,,,,,,,,,,,,,0,-0.396833504,-0.305413687,1,0,0,1.385,button_left_test,0,17,17,107,1
,,,,,,,,,,,,,,,,,611adfca9a449cd8843049af,36,2022-02-12_13h27.34.926,lexical_decision_task_DD_L3,2021.2.3,iPhone,62.5,,,,,,,,,,0.62,1,,,,,,,,,,,,,,,,,,,,,,,0.435648621,-0.28804903,1,0,0,,,,,,,DOUGH,C,m,m,./images/DOUGH.png,,,,,,,,,,,,,,,,,,,,,0,0.435648621,-0.28804903,1,0,0,0.62,button_right_test,0,18,18,19,1
,,,,,,,,,,,,,,,,,611adfca9a449cd8843049af,36,2022-02-12_13h27.34.926,lexical_decision_task_DD_L3,2021.2.3,iPhone,62.5,,,,,,,,,,0.669,1,,,,,,,,,,,,,,,,,,,,,,,0.440755873,-0.282941777,1,0,0,,,,,,,URINE,C,m,m,./images/URINE.png,,,,,,,,,,,,,,,,,,,,,0,0.440755873,-0.282941777,1,0,0,0.669,button_right_test,0,19,19,70,1
,,,,,,,,,,,,,,,,,611adfca9a449cd8843049af,36,2022-02-12_13h27.34.926,lexical_decision_task_DD_L3,2021.2.3,iPhone,62.5,,,,,,,,,,0.653,1,,,,,,,,,,,,,,,,,,,,,,,0.441777324,-0.272727273,1,0,0,,,,,,,BEARD,HB,m,m,./images/BEARDHB.png,,,,,,,,,,,,,,,,,,,,,0,0.441777324,-0.272727273,1,0,0,0.653,button_right_test,0,20,20,2,1
,,,,,,,,,,,,,,,,,611adfca9a449cd8843049af,36,2022-02-12_13h27.34.926,lexical_decision_task_DD_L3,2021.2.3,iPhone,62.5,,,,,,,,,,1.086,1,,,,,,,,,,,,,,,,,,,,,,,-0.418283963,-0.28804903,1,0,0,,,,,,,CHAIN,LB,z,m,./images/CHAINLB.png,,,,,,,,,,,,,,,,,,,,,0,-0.418283963,-0.28804903,1,0,0,1.086,button_left_test,0,21,21,126,1
,,,,,,,,,,,,,,,,,611adfca9a449cd8843049af,36,2022-02-12_13h27.34.926,lexical_decision_task_DD_L3,2021.2.3,iPhone,62.5,,,,,,,,,,1.153,1,,,,,,,,,,,,,,,,,,,,,,,-0.390704801,-0.305413687,1,0,0,,,,,,,WAGON,C,z,m,./images/WAGON.png,,,,,,,,,,,,,,,,,,,,,0,-0.390704801,-0.305413687,1,0,0,1.153,button_left_test,0,22,22,91,1
,,,,,,,,,,,,,,,,,611adfca9a449cd8843049af,36,2022-02-12_13h27.34.926,lexical_decision_task_DD_L3,2021.2.3,iPhone,62.5,,,,,,,,,,1.104,1,,,,,,,,,,,,,,,,,,,,,,,-0.383554648,-0.31052094,1,0,0,,,,,,,TIGER,C,z,m,./images/TIGER.png,,,,,,,,,,,,,,,,,,,,,0,-0.383554648,-0.31052094,1,0,0,1.104,button_left_test,0,23,23,121,1
,,,,,,,,,,,,,,,,,611adfca9a449cd8843049af,36,2022-02-12_13h27.34.926,lexical_decision_task_DD_L3,2021.2.3,iPhone,62.5,,,,,,,,,,0.72,1,,,,,,,,,,,,,,,,,,,,,,,0.445863126,-0.287027579,1,0,0,,,,,,,KIDNEY,LB,m,m,./images/KIDNEYLB.png,,,,,,,,,,,,,,,,,,,,,0,0.445863126,-0.287027579,1,0,0,0.72,button_right_test,0,24,24,21,1
,,,,,,,,,,,,,,,,,611adfca9a449cd8843049af,36,2022-02-12_13h27.34.926,lexical_decision_task_DD_L3,2021.2.3,iPhone,62.5,,,,,,,,,,0.819,1,,,,,,,,,,,,,,,,,,,,,,,-0.405005107,-0.301327886,1,0,0,,,,,,,ARROW,LB,z,m,./images/ARROWLB.png,,,,,,,,,,,,,,,,,,,,,0,-0.405005107,-0.301327886,1,0,0,0.819,button_left_test,0,25,25,153,1
,,,,,,,,,,,,,,,,,611adfca9a449cd8843049af,36,2022-02-12_13h27.34.926,lexical_decision_task_DD_L3,2021.2.3,iPhone,62.5,,,,,,,,,,0.653,1,,,,,,,,,,,,,,,,,,,,,,,0.431562819,-0.278855975,1,0,0,,,,,,,TOMATO,LB,m,m,./images/TOMATOLB.png,,,,,,,,,,,,,,,,,,,,,0,0.431562819,-0.278855975,1,0,0,0.653,button_right_test,0,26,26,0,1
,,,,,,,,,,,,,,,,,611adfca9a449cd8843049af,36,2022-02-12_13h27.34.926,lexical_decision_task_DD_L3,2021.2.3,iPhone,62.5,,,,,,,,,,0.603,1,,,,,,,,,,,,,,,,,,,,,,,0.429519918,-0.277834525,1,0,0,,,,,,,BABOON,C,m,m,./images/BABOON.png,,,,,,,,,,,,,,,,,,,,,0,0.429519918,-0.277834525,1,0,0,0.603,button_right_test,0,27,27,58,1
,,,,,,,,,,,,,,,,,611adfca9a449cd8843049af,36,2022-02-12_13h27.34.926,lexical_decision_task_DD_L3,2021.2.3,iPhone,62.5,,,,,,,,,,0.603,1,,,,,,,,,,,,,,,,,,,,,,,0.438712972,-0.295199183,1,0,0,,,,,,,PLANK,C,m,m,./images/PLANK.png,,,,,,,,,,,,,,,,,,,,,0,0.438712972,-0.295199183,1,0,0,0.603,button_right_test,0,28,28,1,1
,,,,,,,,,,,,,,,,,611adfca9a449cd8843049af,36,2022-02-12_13h27.34.926,lexical_decision_task_DD_L3,2021.2.3,iPhone,62.5,,,,,,,,,,0.687,1,,,,,,,,,,,,,,,,,,,,,,,-0.36721144,-0.307456588,1,0,0,,,,,,,STATUE,LB,z,m,./images/STATUELB.png,,,,,,,,,,,,,,,,,,,,,0,-0.36721144,-0.307456588,1,0,0,0.687,button_left_test,0,29,29,150,1
,,,,,,,,,,,,,,,,,611adfca9a449cd8843049af,36,2022-02-12_13h27.34.926,lexical_decision_task_DD_L3,2021.2.3,iPhone,62.5,,,,,,,,,,0.703,1,,,,,,,,,,,,,,,,,,,,,,,0.437691522,-0.303370787,1,0,0,,,,,,,PURSE,HB,m,m,./images/PURSEHB.png,,,,,,,,,,,,,,,,,,,,,0,0.437691522,-0.303370787,1,0,0,0.703,button_right_test,0,30,30,62,1
,,,,,,,,,,,,,,,,,611adfca9a449cd8843049af,36,2022-02-12_13h27.34.926,lexical_decision_task_DD_L3,2021.2.3,iPhone,62.5,,,,,,,,,,0.803,1,,,,,,,,,,,,,,,,,,,,,,,-0.370275792,-0.28804903,1,0,0,,,,,,,DANCER,LB,z,m,./images/DANCERLB.png,,,,,,,,,,,,,,,,,,,,,0,-0.370275792,-0.28804903,1,0,0,0.803,button_left_test,0,31,31,105,1
,,,,,,,,,,,,,,,,,611adfca9a449cd8843049af,36,2022-02-12_13h27.34.926,lexical_decision_task_DD_L3,2021.2.3,iPhone,62.5,,,,,,,,,,0.803,1,,,,,,,,,,,,,,,,,,,,,,,-0.372318693,-0.309499489,1,0,0,,,,,,,MEDAL,HB,z,m,./images/MEDALHB.png,,,,,,,,,,,,,,,,,,,,,0,-0.372318693,-0.309499489,1,0,0,0.803,button_left_test,0,32,32,95,1
,,,,,,,,,,,,,,,,,611adfca9a449cd8843049af,36,2022-02-12_13h27.34.926,lexical_decision_task_DD_L3,2021.2.3,iPhone,62.5,,,,,,,,,,0.652,1,,,,,,,,,,,,,,,,,,,,,,,0.425434116,-0.293156282,1,0,0,,,,,,,CRUST,C,m,m,./images/CRUST.png,,,,,,,,,,,,,,,,,,,,,0,0.425434116,-0.293156282,1,0,0,0.652,button_right_test,0,33,33,79,1
,,,,,,,,,,,,,,,,,611adfca9a449cd8843049af,36,2022-02-12_13h27.34.926,lexical_decision_task_DD_L3,2021.2.3,iPhone,62.5,,,,,,,,,,0.886,0,,,,,,,,,,,,,,,,,,,,,,,0.429519918,-0.282941777,1,0,0,,,,,,,STOVE,HB,z,m,./images/STOVEHB.png,,,,,,,,,,,,,,,,,,,,,0,0.429519918,-0.282941777,1,0,0,0.886,button_right_test,0,34,34,86,1
,,,,,,,,,,,,,,,,,611adfca9a449cd8843049af,36,2022-02-12_13h27.34.926,lexical_decision_task_DD_L3,2021.2.3,iPhone,62.5,,,,,,,,,,1.052,1,,,,,,,,,,,,,,,,,,,,,,,0.45607763,-0.272727273,1,0,0,,,,,,,SAILOR,C,m,m,./images/SAILOR.png,,,,,,,,,,,,,,,,,,,,,0,0.45607763,-0.272727273,1,0,0,1.052,button_right_test,0,35,35,67,1
,,,,,,,,,,,,,,,,,611adfca9a449cd8843049af,36,2022-02-12_13h27.34.926,lexical_decision_task_DD_L3,2021.2.3,iPhone,62.5,,,,,,,,,,0.769,1,,,,,,,,,,,,,,,,,,,,,,,0.442798774,-0.296220633,1,0,0,,,,,,,SUNSET,C,m,m,./images/SUNSET.png,,,,,,,,,,,,,,,,,,,,,0,0.442798774,-0.296220633,1,0,0,0.769,button_right_test,0,36,36,82,1
,,,,,,,,,,,,,,,,,611adfca9a449cd8843049af,36,2022-02-12_13h27.34.926,lexical_decision_task_DD_L3,2021.2.3,iPhone,62.5,,,,,,,,,,0.619,0,,,,,,,,,,,,,,,,,,,,,,,0.445863126,-0.287027579,1,0,0,,,,,,,BUTTER,LB,z,m,./images/BUTTERLB.png,,,,,,,,,,,,,,,,,,,,,0,0.445863126,-0.287027579,1,0,0,0.619,button_right_test,0,37,37,111,1
,,,,,,,,,,,,,,,,,611adfca9a449cd8843049af,36,2022-02-12_13h27.34.926,lexical_decision_task_DD_L3,2021.2.3,iPhone,62.5,,,,,,,,,,1.02,1,,,,,,,,,,,,,,,,,,,,,,,-0.375383044,-0.299284985,1,0,0,,,,,,,GRANNY,HB,z,m,./images/GRANNYHB.png,,,,,,,,,,,,,,,,,,,,,0,-0.375383044,-0.299284985,1,0,0,1.02,button_left_test,0,38,38,104,1
,,,,,,,,,,,,,,,,,611adfca9a449cd8843049af,36,2022-02-12_13h27.34.926,lexical_decision_task_DD_L3,2021.2.3,iPhone,62.5,,,,,,,,,,0.719,1,,,,,,,,,,,,,,,,,,,,,,,0.437691522,-0.291113381,1,0,0,,,,,,,FINGER,LB,m,m,./images/FINGERLB.png,,,,,,,,,,,,,,,,,,,,,0,0.437691522,-0.291113381,1,0,0,0.719,button_right_test,0,39,39,3,1
,,,,,,,,,,,,,,,,,611adfca9a449cd8843049af,36,2022-02-12_13h27.34.926,lexical_decision_task_DD_L3,2021.2.3,iPhone,62.5,,,,,,,,,,2.518,1,,,,,,,,,,,,,,,,,,,,,,,0.41215526,-0.309499489,1,0,0,,,,,,,MALLET,HB,m,m,./images/MALLETHB.png,,,,,,,,,,,,,,,,,,,,,0,0.41215526,-0.309499489,1,0,0,2.518,button_right_test,0,40,40,50,1
,,,,,,,,,,,,,,,,,611adfca9a449cd8843049af,36,2022-02-12_13h27.34.926,lexical_decision_task_DD_L3,2021.2.3,iPhone,62.5,,,,,,,,,,1.186,1,,,,,,,,,,,,,,,,,,,,,,,0.087334014,-0.416751788,1,0,0,,,,,,,PARADE,HB,z,m,./images/PARADEHB.png,break_done_button,,,,,,,,,,,,,,,,,,,,0,-0.337589377,-0.307456588,1,0,0,1.186,button_left_test,0,41,41,101,1
,,,,,,,,,,,,,,,,,611adfca9a449cd8843049af,36,2022-02-12_13h27.34.926,lexical_decision_task_DD_L3,2021.2.3,iPhone,62.5,,,,,,,,,,1.069,1,,,,,,,,,,,,,,,,,,,,,,,-0.365168539,-0.313585291,1,0,0,,,,,,,HEATER,HB,z,m,./images/HEATERHB.png,,,,,,,,,,,,,,,,,,,,,0,-0.365168539,-0.313585291,1,0,0,1.069,button_left_test,0,42,42,140,1
,,,,,,,,,,,,,,,,,611adfca9a449cd8843049af,36,2022-02-12_13h27.34.926,lexical_decision_task_DD_L3,2021.2.3,iPhone,62.5,,,,,,,,,,0.62,1,,,,,,,,,,,,,,,,,,,,,,,0.41215526,-0.291113381,1,0,0,,,,,,,JAGUAR,LB,m,m,./images/JAGUARLB.png,,,,,,,,,,,,,,,,,,,,,0,0.41215526,-0.291113381,1,0,0,0.62,button_right_test,0,43,43,18,1
,,,,,,,,,,,,,,,,,611adfca9a449cd8843049af,36,2022-02-12_13h27.34.926,lexical_decision_task_DD_L3,2021.2.3,iPhone,62.5,,,,,,,,,,1.285,0,,,,,,,,,,,,,,,,,,,,,,,-0.368232891,-0.303370787,1,0,0,,,,,,,KITTEN,LB,m,m,./images/KITTENLB.png,,,,,,,,,,,,,,,,,,,,,0,-0.368232891,-0.303370787,1,0,0,1.285,button_left_test,0,44,44,45,1
,,,,,,,,,,,,,,,,,611adfca9a449cd8843049af,36,2022-02-12_13h27.34.926,lexical_decision_task_DD_L3,2021.2.3,iPhone,62.5,,,,,,,,,,0.788,0,,,,,,,,,,,,,,,,,,,,,,,0.391726251,-0.286006129,1,0,0,,,,,,,SHIELD,LB,z,m,./images/SHIELDLB.png,,,,,,,,,,,,,,,,,,,,,0,0.391726251,-0.286006129,1,0,0,0.788,button_right_test,0,45,45,132,1
,,,,,,,,,,,,,,,,,611adfca9a449cd8843049af,36,2022-02-12_13h27.34.926,lexical_decision_task_DD_L3,2021.2.3,iPhone,62.5,,,,,,,,,,0.77,1,,,,,,,,,,,,,,,,,,,,,,,-0.376404494,-0.304392237,1,0,0,,,,,,,SAUNA,LB,z,m,./images/SAUNALB.png,,,,,,,,,,,,,,,,,,,,,0,-0.376404494,-0.304392237,1,0,0,0.77,button_left_test,0,46,46,117,1
,,,,,,,,,,,,,,,,,611adfca9a449cd8843049af,36,2022-02-12_13h27.34.926,lexical_decision_task_DD_L3,2021.2.3,iPhone,62.5,,,,,,,,,,1.486,0,,,,,,,,,,,,,,,,,,,,,,,-0.370275792,-0.31052094,1,0,0,,,,,,,CANDLE,C,m,m,./images/CANDLE.png,,,,,,,,,,,,,,,,,,,,,0,-0.370275792,-0.31052094,1,0,0,1.486,button_left_test,0,47,47,61,1
,,,,,,,,,,,,,,,,,611adfca9a449cd8843049af,36,2022-02-12_13h27.34.926,lexical_decision_task_DD_L3,2021.2.3,iPhone,62.5,,,,,,,,,,0.752,0,,,,,,,,,,,,,,,,,,,,,,,0.384576098,-0.291113381,1,0,0,,,,,,,BRUSH,HB,z,m,./images/BRUSHHB.png,,,,,,,,,,,,,,,,,,,,,0,0.384576098,-0.291113381,1,0,0,0.752,button_right_test,0,48,48,143,1
,,,,,,,,,,,,,,,,,611adfca9a449cd8843049af,36,2022-02-12_13h27.34.926,lexical_decision_task_DD_L3,2021.2.3,iPhone,62.5,,,,,,,,,,0.669,1,,,,,,,,,,,,,,,,,,,,,,,0.393769152,-0.293156282,1,0,0,,,,,,,BERRY,HB,m,m,./images/BERRYHB.png,,,,,,,,,,,,,,,,,,,,,0,0.393769152,-0.293156282,1,0,0,0.669,button_right_test,0,49,49,47,1
,,,,,,,,,,,,,,,,,611adfca9a449cd8843049af,36,2022-02-12_13h27.34.926,lexical_decision_task_DD_L3,2021.2.3,iPhone,62.5,,,,,,,,,,0.702,1,,,,,,,,,,,,,,,,,,,,,,,0.397854954,-0.303370787,1,0,0,,,,,,,LIZARD,HB,m,m,./images/LIZARDHB.png,,,,,,,,,,,,,,,,,,,,,0,0.397854954,-0.303370787,1,0,0,0.702,button_right_test,0,50,50,44,1
,,,,,,,,,,,,,,,,,611adfca9a449cd8843049af,36,2022-02-12_13h27.34.926,lexical_decision_task_DD_L3,2021.2.3,iPhone,62.5,,,,,,,,,,0.919,1,,,,,,,,,,,,,,,,,,,,,,,-0.359039837,-0.314606742,1,0,0,,,,,,,GRAPE,C,z,m,./images/GRAPE.png,,,,,,,,,,,,,,,,,,,,,0,-0.359039837,-0.314606742,1,0,0,0.919,button_left_test,0,51,51,100,1
,,,,,,,,,,,,,,,,,611adfca9a449cd8843049af,36,2022-02-12_13h27.34.926,lexical_decision_task_DD_L3,2021.2.3,iPhone,62.5,,,,,,,,,,0.852,0,,,,,,,,,,,,,,,,,,,,,,,0.405005107,-0.296220633,1,0,0,,,,,,,MONKEY,LB,z,m,./images/MONKEYLB.png,,,,,,,,,,,,,,,,,,,,,0,0.405005107,-0.296220633,1,0,0,0.852,button_right_test,0,52,52,129,1
,,,,,,,,,,,,,,,,,611adfca9a449cd8843049af,36,2022-02-12_13h27.34.926,lexical_decision_task_DD_L3,2021.2.3,iPhone,62.5,,,,,,,,,,1.169,0,,,,,,,,,,,,,,,,,,,,,,,-0.362104188,-0.301327886,1,0,0,,,,,,,GRAIN,LB,m,m,./images/GRAINLB.png,,,,,,,,,,,,,,,,,,,,,0,-0.362104188,-0.301327886,1,0,0,1.169,button_left_test,0,53,53,75,1
,,,,,,,,,,,,,,,,,611adfca9a449cd8843049af,36,2022-02-12_13h27.34.926,lexical_decision_task_DD_L3,2021.2.3,iPhone,62.5,,,,,,,,,,0.869,1,,,,,,,,,,,,,,,,,,,,,,,-0.354954035,-0.298263534,1,0,0,,,,,,,SAUCE,LB,z,m,./images/SAUCELB.png,,,,,,,,,,,,,,,,,,,,,0,-0.354954035,-0.298263534,1,0,0,0.869,button_left_test,0,54,54,135,1
,,,,,,,,,,,,,,,,,611adfca9a449cd8843049af,36,2022-02-12_13h27.34.926,lexical_decision_task_DD_L3,2021.2.3,iPhone,62.5,,,,,,,,,,0.569,0,,,,,,,,,,,,,,,,,,,,,,,0.408069459,-0.297242084,1,0,0,,,,,,,BAMBOO,HB,z,m,./images/BAMBOOHB.png,,,,,,,,,,,,,,,,,,,,,0,0.408069459,-0.297242084,1,0,0,0.569,button_right_test,0,55,55,89,1
,,,,,,,,,,,,,,,,,611adfca9a449cd8843049af,36,2022-02-12_13h27.34.926,lexical_decision_task_DD_L3,2021.2.3,iPhone,62.5,,,,,,,,,,1.319,1,,,,,,,,,,,,,,,,,,,,,,,0.405005107,-0.312563841,1,0,0,,,,,,,TORCH,HB,m,m,./images/TORCHHB.png,,,,,,,,,,,,,,,,,,,,,0,0.405005107,-0.312563841,1,0,0,1.319,button_right_test,0,56,56,68,1
,,,,,,,,,,,,,,,,,611adfca9a449cd8843049af,36,2022-02-12_13h27.34.926,lexical_decision_task_DD_L3,2021.2.3,iPhone,62.5,,,,,,,,,,3.518,0,,,,,,,,,,,,,,,,,,,,,,,0.361082737,-0.315628192,1,0,0,,,,,,,HAMMER,LB,z,m,./images/HAMMERLB.png,,,,,,,,,,,,,,,,,,,,,0,0.361082737,-0.315628192,1,0,0,3.518,button_right_test,0,57,57,159,1
,,,,,,,,,,,,,,,,,611adfca9a449cd8843049af,36,2022-02-12_13h27.34.926,lexical_decision_task_DD_L3,2021.2.3,iPhone,62.5,,,,,,,,,,1.485,1,,,,,,,,,,,,,,,,,,,,,,,-0.370275792,-0.316649642,1,0,0,,,,,,,LAGOON,HB,z,m,./images/LAGOONHB.png,,,,,,,,,,,,,,,,,,,,,0,-0.370275792,-0.316649642,1,0,0,1.485,button_left_test,0,58,58,131,1
,,,,,,,,,,,,,,,,,611adfca9a449cd8843049af,36,2022-02-12_13h27.34.926,lexical_decision_task_DD_L3,2021.2.3,iPhone,62.5,,,,,,,,,,3.783,1,,,,,,,,,,,,,,,,,,,,,,,0.372318693,-0.295199183,1,0,0,,,,,,,SKIING,HB,m,m,./images/SKIINGHB.png,,,,,,,,,,,,,,,,,,,,,0,0.372318693,-0.295199183,1,0,0,3.783,button_right_test,0,59,59,17,1
,,,,,,,,,,,,,,,,,611adfca9a449cd8843049af,36,2022-02-12_13h27.34.926,lexical_decision_task_DD_L3,2021.2.3,iPhone,62.5,,,,,,,,,,1.601,1,,,,,,,,,,,,,,,,,,,,,,,-0.34473953,-0.325842697,1,0,0,,,,,,,GLOVE,C,z,m,./images/GLOVE.png,,,,,,,,,,,,,,,,,,,,,0,-0.34473953,-0.325842697,1,0,0,1.601,button_left_test,0,60,60,157,1
,,,,,,,,,,,,,,,,,611adfca9a449cd8843049af,36,2022-02-12_13h27.34.926,lexical_decision_task_DD_L3,2021.2.3,iPhone,62.5,,,,,,,,,,0.836,1,,,,,,,,,,,,,,,,,,,,,,,-0.326353422,-0.327885598,1,0,0,,,,,,,LLAMA,HB,z,m,./images/LLAMAHB.png,,,,,,,,,,,,,,,,,,,,,0,-0.326353422,-0.327885598,1,0,0,0.836,button_left_test,0,61,61,119,1
,,,,,,,,,,,,,,,,,611adfca9a449cd8843049af,36,2022-02-12_13h27.34.926,lexical_decision_task_DD_L3,2021.2.3,iPhone,62.5,,,,,,,,,,1.002,1,,,,,,,,,,,,,,,,,,,,,,,-0.330439224,-0.344228805,1,0,0,,,,,,,BUBBLE,HB,z,m,./images/BUBBLEHB.png,,,,,,,,,,,,,,,,,,,,,0,-0.330439224,-0.344228805,1,0,0,1.002,button_left_test,0,62,62,155,1
,,,,,,,,,,,,,,,,,611adfca9a449cd8843049af,36,2022-02-12_13h27.34.926,lexical_decision_task_DD_L3,2021.2.3,iPhone,62.5,,,,,,,,,,2.92,0,,,,,,,,,,,,,,,,,,,,,,,-0.308988764,-0.337078652,1,0,0,,,,,,,FARMER,HB,m,m,./images/FARMERHB.png,,,,,,,,,,,,,,,,,,,,,0,-0.308988764,-0.337078652,1,0,0,2.92,button_left_test,0,63,63,65,1
,,,,,,,,,,,,,,,,,611adfca9a449cd8843049af,36,2022-02-12_13h27.34.926,lexical_decision_task_DD_L3,2021.2.3,iPhone,62.5,,,,,,,,,,1.086,1,,,,,,,,,,,,,,,,,,,,,,,-0.329417773,-0.320735444,1,0,0,,,,,,,WHEEL,HB,z,m,./images/WHEELHB.png,,,,,,,,,,,,,,,,,,,,,0,-0.329417773,-0.320735444,1,0,0,1.086,button_left_test,0,64,64,161,1
,,,,,,,,,,,,,,,,,611adfca9a449cd8843049af,36,2022-02-12_13h27.34.926,lexical_decision_task_DD_L3,2021.2.3,iPhone,62.5,,,,,,,,,,0.854,1,,,,,,,,,,,,,,,,,,,,,,,-0.349846782,-0.325842697,1,0,0,,,,,,,WALNUT,LB,z,m,./images/WALNUTLB.png,,,,,,,,,,,,,,,,,,,,,0,-0.349846782,-0.325842697,1,0,0,0.854,button_left_test,0,65,65,84,1
,,,,,,,,,,,,,,,,,611adfca9a449cd8843049af,36,2022-02-12_13h27.34.926,lexical_decision_task_DD_L3,2021.2.3,iPhone,62.5,,,,,,,,,,0.72,1,,,,,,,,,,,,,,,,,,,,,,,-0.346782431,-0.318692543,1,0,0,,,,,,,FLESH,LB,z,m,./images/FLESHLB.png,,,,,,,,,,,,,,,,,,,,,0,-0.346782431,-0.318692543,1,0,0,0.72,button_left_test,0,66,66,108,1
,,,,,,,,,,,,,,,,,611adfca9a449cd8843049af,36,2022-02-12_13h27.34.926,lexical_decision_task_DD_L3,2021.2.3,iPhone,62.5,,,,,,,,,,0.67,1,,,,,,,,,,,,,,,,,,,,,,,0.391726251,-0.312563841,1,0,0,,,,,,,LITTER,LB,m,m,./images/LITTERLB.png,,,,,,,,,,,,,,,,,,,,,0,0.391726251,-0.312563841,1,0,0,0.67,button_right_test,0,67,67,78,1
,,,,,,,,,,,,,,,,,611adfca9a449cd8843049af,36,2022-02-12_13h27.34.926,lexical_decision_task_DD_L3,2021.2.3,iPhone,62.5,,,,,,,,,,0.836,1,,,,,,,,,,,,,,,,,,,,,,,0.390704801,-0.315628192,1,0,0,,,,,,,WRIST,C,m,m,./images/WRIST.png,,,,,,,,,,,,,,,,,,,,,0,0.390704801,-0.315628192,1,0,0,0.836,button_right_test,0,68,68,25,1
,,,,,,,,,,,,,,,,,611adfca9a449cd8843049af,36,2022-02-12_13h27.34.926,lexical_decision_task_DD_L3,2021.2.3,iPhone,62.5,,,,,,,,,,0.985,1,,,,,,,,,,,,,,,,,,,,,,,-0.342696629,-0.342185904,1,0,0,,,,,,,PLANET,HB,z,m,./images/PLANETHB.png,,,,,,,,,,,,,,,,,,,,,0,-0.342696629,-0.342185904,1,0,0,0.985,button_left_test,0,69,69,164,1
,,,,,,,,,,,,,,,,,611adfca9a449cd8843049af,36,2022-02-12_13h27.34.926,lexical_decision_task_DD_L3,2021.2.3,iPhone,62.5,,,,,,,,,,0.985,1,,,,,,,,,,,,,,,,,,,,,,,-0.328396323,-0.322778345,1,0,0,,,,,,,BRIDE,C,z,m,./images/BRIDE.png,,,,,,,,,,,,,,,,,,,,,0,-0.328396323,-0.322778345,1,0,0,0.985,button_left_test,0,70,70,148,1
,,,,,,,,,,,,,,,,,611adfca9a449cd8843049af,36,2022-02-12_13h27.34.926,lexical_decision_task_DD_L3,2021.2.3,iPhone,62.5,,,,,,,,,,0.603,1,,,,,,,,,,,,,,,,,,,,,,,0.386618999,-0.297242084,1,0,0,,,,,,,NOOSE,LB,m,m,./images/NOOSELB.png,,,,,,,,,,,,,,,,,,,,,0,0.386618999,-0.297242084,1,0,0,0.603,button_right_test,0,71,71,72,1
,,,,,,,,,,,,,,,,,611adfca9a449cd8843049af,36,2022-02-12_13h27.34.926,lexical_decision_task_DD_L3,2021.2.3,iPhone,62.5,,,,,,,,,,0.952,1,,,,,,,,,,,,,,,,,,,,,,,-0.333503575,-0.330949949,1,0,0,,,,,,,BASKET,HB,z,m,./images/BASKETHB.png,,,,,,,,,,,,,,,,,,,,,0,-0.333503575,-0.330949949,1,0,0,0.952,button_left_test,0,72,72,128,1
,,,,,,,,,,,,,,,,,611adfca9a449cd8843049af,36,2022-02-12_13h27.34.926,lexical_decision_task_DD_L3,2021.2.3,iPhone,62.5,,,,,,,,,,1.384,1,,,,,,,,,,,,,,,,,,,,,,,-0.338610827,-0.338100102,1,0,0,,,,,,,PISTOL,HB,z,m,./images/PISTOLHB.png,,,,,,,,,,,,,,,,,,,,,0,-0.338610827,-0.338100102,1,0,0,1.384,button_left_test,0,73,73,113,1
,,,,,,,,,,,,,,,,,611adfca9a449cd8843049af,36,2022-02-12_13h27.34.926,lexical_decision_task_DD_L3,2021.2.3,iPhone,62.5,,,,,,,,,,0.735,1,,,,,,,,,,,,,,,,,,,,,,,0.382533197,-0.307456588,1,0,0,,,,,,,GREASE,LB,m,m,./images/GREASELB.png,,,,,,,,,,,,,,,,,,,,,0,0.382533197,-0.307456588,1,0,0,0.735,button_right_test,0,74,74,15,1
,,,,,,,,,,,,,,,,,611adfca9a449cd8843049af,36,2022-02-12_13h27.34.926,lexical_decision_task_DD_L3,2021.2.3,iPhone,62.5,,,,,,,,,,0.801,0,,,,,,,,,,,,,,,,,,,,,,,0.38968335,-0.293156282,1,0,0,,,,,,,DESERT,C,z,m,./images/DESERT.png,,,,,,,,,,,,,,,,,,,,,0,0.38968335,-0.293156282,1,0,0,0.801,button_right_test,0,75,75,136,1
,,,,,,,,,,,,,,,,,611adfca9a449cd8843049af,36,2022-02-12_13h27.34.926,lexical_decision_task_DD_L3,2021.2.3,iPhone,62.5,,,,,,,,,,0.969,1,,,,,,,,,,,,,,,,,,,,,,,-0.340653728,-0.3340143,1,0,0,,,,,,,BOILER,LB,z,m,./images/BOILERLB.png,,,,,,,,,,,,,,,,,,,,,0,-0.340653728,-0.3340143,1,0,0,0.969,button_left_test,0,76,76,120,1
,,,,,,,,,,,,,,,,,611adfca9a449cd8843049af,36,2022-02-12_13h27.34.926,lexical_decision_task_DD_L3,2021.2.3,iPhone,62.5,,,,,,,,,,0.72,1,,,,,,,,,,,,,,,,,,,,,,,0.390704801,-0.319713994,1,0,0,,,,,,,ONION,LB,m,m,./images/ONIONLB.png,,,,,,,,,,,,,,,,,,,,,0,0.390704801,-0.319713994,1,0,0,0.72,button_right_test,0,77,77,51,1
,,,,,,,,,,,,,,,,,611adfca9a449cd8843049af,36,2022-02-12_13h27.34.926,lexical_decision_task_DD_L3,2021.2.3,iPhone,62.5,,,,,,,,,,0.819,1,,,,,,,,,,,,,,,,,,,,,,,-0.333503575,-0.331971399,1,0,0,,,,,,,CHERRY,LB,z,m,./images/CHERRYLB.png,,,,,,,,,,,,,,,,,,,,,0,-0.333503575,-0.331971399,1,0,0,0.819,button_left_test,0,78,78,138,1
,,,,,,,,,,,,,,,,,611adfca9a449cd8843049af,36,2022-02-12_13h27.34.926,lexical_decision_task_DD_L3,2021.2.3,iPhone,62.5,,,,,,,,,,0.836,1,,,,,,,,,,,,,,,,,,,,,,,-0.320224719,-0.328907048,1,0,0,,,,,,,CHALK,C,z,m,./images/CHALK.png,,,,,,,,,,,,,,,,,,,,,0,-0.320224719,-0.328907048,1,0,0,0.836,button_left_test,0,79,79,109,1
,,,,,,,,,,,,,,,,,611adfca9a449cd8843049af,36,2022-02-12_13h27.34.926,lexical_decision_task_DD_L3,2021.2.3,iPhone,62.5,,,,,,,,,,0.886,1,,,,,,,,,,,,,,,,,,,,,,,-0.329417773,-0.342185904,1,0,0,,,,,,,CRATER,LB,z,m,./images/CRATERLB.png,,,,,,,,,,,,,,,,,,,,,0,-0.329417773,-0.342185904,1,0,0,0.886,button_left_test,0,80,80,87,1
,,,,,,,,,,,,,,,,,611adfca9a449cd8843049af,36,2022-02-12_13h27.34.926,lexical_decision_task_DD_L3,2021.2.3,iPhone,62.5,,,,,,,,,,0.72,1,,,,,,,,,,,,,,,,,,,,,,,0.393769152,-0.326864147,1,0,0,,,,,,,MELON,C,m,m,./images/MELON.png,,,,,,,,,,,,,,,,,,,,,0,0.393769152,-0.326864147,1,0,0,0.72,button_right_test,0,81,81,22,1
,,,,,,,,,,,,,,,,,611adfca9a449cd8843049af,36,2022-02-12_13h27.34.926,lexical_decision_task_DD_L3,2021.2.3,iPhone,62.5,,,,,,,,,,0.719,1,,,,,,,,,,,,,,,,,,,,,,,0.399897855,-0.278855975,1,0,0,,,,,,,BURIAL,HB,m,m,./images/BURIALHB.png,,,,,,,,,,,,,,,,,,,,,0,0.399897855,-0.278855975,1,0,0,0.719,button_right_test,0,82,82,59,1
,,,,,,,,,,,,,,,,,611adfca9a449cd8843049af,36,2022-02-12_13h27.34.926,lexical_decision_task_DD_L3,2021.2.3,iPhone,62.5,,,,,,,,,,0.699,0,,,,,,,,,,,,,,,,,,,,,,,0.064862104,-0.409601634,1,0,0,,,,,,,CANOE,C,z,m,./images/CANOE.png,break_done_button,,,,,,,,,,,,,,,,,,,,0,0.399897855,-0.297242084,1,0,0,0.699,button_right_test,0,83,83,142,1
,,,,,,,,,,,,,,,,,611adfca9a449cd8843049af,36,2022-02-12_13h27.34.926,lexical_decision_task_DD_L3,2021.2.3,iPhone,62.5,,,,,,,,,,1.119,1,,,,,,,,,,,,,,,,,,,,,,,-0.316138917,-0.319713994,1,0,0,,,,,,,BAKER,LB,z,m,./images/BAKERLB.png,,,,,,,,,,,,,,,,,,,,,0,-0.316138917,-0.319713994,1,0,0,1.119,button_left_test,0,84,84,147,1
,,,,,,,,,,,,,,,,,611adfca9a449cd8843049af,36,2022-02-12_13h27.34.926,lexical_decision_task_DD_L3,2021.2.3,iPhone,62.5,,,,,,,,,,0.702,1,,,,,,,,,,,,,,,,,,,,,,,-0.331460674,-0.349336057,1,0,0,,,,,,,DRILL,LB,z,m,./images/DRILLLB.png,,,,,,,,,,,,,,,,,,,,,0,-0.331460674,-0.349336057,1,0,0,0.702,button_left_test,0,85,85,165,1
,,,,,,,,,,,,,,,,,611adfca9a449cd8843049af,36,2022-02-12_13h27.34.926,lexical_decision_task_DD_L3,2021.2.3,iPhone,62.5,,,,,,,,,,0.586,1,,,,,,,,,,,,,,,,,,,,,,,0.361082737,-0.299284985,1,0,0,,,,,,,SCREW,LB,m,m,./images/SCREWLB.png,,,,,,,,,,,,,,,,,,,,,0,0.361082737,-0.299284985,1,0,0,0.586,button_right_test,0,86,86,24,1
,,,,,,,,,,,,,,,,,611adfca9a449cd8843049af,36,2022-02-12_13h27.34.926,lexical_decision_task_DD_L3,2021.2.3,iPhone,62.5,,,,,,,,,,0.852,1,,,,,,,,,,,,,,,,,,,,,,,-0.32226762,-0.338100102,1,0,0,,,,,,,CURRY,LB,z,m,./images/CURRYLB.png,,,,,,,,,,,,,,,,,,,,,0,-0.32226762,-0.338100102,1,0,0,0.852,button_left_test,0,87,87,144,1
,,,,,,,,,,,,,,,,,611adfca9a449cd8843049af,36,2022-02-12_13h27.34.926,lexical_decision_task_DD_L3,2021.2.3,iPhone,62.5,,,,,,,,,,1.12,1,,,,,,,,,,,,,,,,,,,,,,,0.361082737,-0.301327886,1,0,0,,,,,,,SHELF,LB,m,m,./images/SHELFLB.png,,,,,,,,,,,,,,,,,,,,,0,0.361082737,-0.301327886,1,0,0,1.12,button_right_test,0,88,88,39,1
,,,,,,,,,,,,,,,,,611adfca9a449cd8843049af,36,2022-02-12_13h27.34.926,lexical_decision_task_DD_L3,2021.2.3,iPhone,62.5,,,,,,,,,,0.703,1,,,,,,,,,,,,,,,,,,,,,,,0.376404494,-0.304392237,1,0,0,,,,,,,THROAT,LB,m,m,./images/THROATLB.png,,,,,,,,,,,,,,,,,,,,,0,0.376404494,-0.304392237,1,0,0,0.703,button_right_test,0,89,89,36,1
,,,,,,,,,,,,,,,,,611adfca9a449cd8843049af,36,2022-02-12_13h27.34.926,lexical_decision_task_DD_L3,2021.2.3,iPhone,62.5,,,,,,,,,,0.736,1,,,,,,,,,,,,,,,,,,,,,,,0.374361593,-0.309499489,1,0,0,,,,,,,MAGGOT,LB,m,m,./images/MAGGOTLB.png,,,,,,,,,,,,,,,,,,,,,0,0.374361593,-0.309499489,1,0,0,0.736,button_right_test,0,90,90,33,1
,,,,,,,,,,,,,,,,,611adfca9a449cd8843049af,36,2022-02-12_13h27.34.926,lexical_decision_task_DD_L3,2021.2.3,iPhone,62.5,,,,,,,,,,0.602,1,,,,,,,,,,,,,,,,,,,,,,,0.375383044,-0.307456588,1,0,0,,,,,,,SHORE,LB,m,m,./images/SHORELB.png,,,,,,,,,,,,,,,,,,,,,0,0.375383044,-0.307456588,1,0,0,0.602,button_right_test,0,91,91,12,1
,,,,,,,,,,,,,,,,,611adfca9a449cd8843049af,36,2022-02-12_13h27.34.926,lexical_decision_task_DD_L3,2021.2.3,iPhone,62.5,,,,,,,,,,0.703,1,,,,,,,,,,,,,,,,,,,,,,,0.390704801,-0.292134831,1,0,0,,,,,,,TRIPOD,LB,m,m,./images/TRIPODLB.png,,,,,,,,,,,,,,,,,,,,,0,0.390704801,-0.292134831,1,0,0,0.703,button_right_test,0,92,92,54,1
,,,,,,,,,,,,,,,,,611adfca9a449cd8843049af,36,2022-02-12_13h27.34.926,lexical_decision_task_DD_L3,2021.2.3,iPhone,62.5,,,,,,,,,,0.636,1,,,,,,,,,,,,,,,,,,,,,,,0.385597549,-0.298263534,1,0,0,,,,,,,BANNER,C,m,m,./images/BANNER.png,,,,,,,,,,,,,,,,,,,,,0,0.385597549,-0.298263534,1,0,0,0.636,button_right_test,0,93,93,52,1
,,,,,,,,,,,,,,,,,611adfca9a449cd8843049af,36,2022-02-12_13h27.34.926,lexical_decision_task_DD_L3,2021.2.3,iPhone,62.5,,,,,,,,,,0.653,1,,,,,,,,,,,,,,,,,,,,,,,0.38968335,-0.307456588,1,0,0,,,,,,,COOKER,LB,m,m,./images/COOKERLB.png,,,,,,,,,,,,,,,,,,,,,0,0.38968335,-0.307456588,1,0,0,0.653,button_right_test,0,94,94,69,1
,,,,,,,,,,,,,,,,,611adfca9a449cd8843049af,36,2022-02-12_13h27.34.926,lexical_decision_task_DD_L3,2021.2.3,iPhone,62.5,,,,,,,,,,0.869,0,,,,,,,,,,,,,,,,,,,,,,,-0.325331971,-0.345250255,1,0,0,,,,,,,QUILL,C,m,m,./images/QUILL.png,,,,,,,,,,,,,,,,,,,,,0,-0.325331971,-0.345250255,1,0,0,0.869,button_left_test,0,95,95,31,1
,,,,,,,,,,,,,,,,,611adfca9a449cd8843049af,36,2022-02-12_13h27.34.926,lexical_decision_task_DD_L3,2021.2.3,iPhone,62.5,,,,,,,,,,0.853,1,,,,,,,,,,,,,,,,,,,,,,,0.371297242,-0.291113381,1,0,0,,,,,,,POODLE,LB,m,m,./images/POODLELB.png,,,,,,,,,,,,,,,,,,,,,0,0.371297242,-0.291113381,1,0,0,0.853,button_right_test,0,96,96,81,1
,,,,,,,,,,,,,,,,,611adfca9a449cd8843049af,36,2022-02-12_13h27.34.926,lexical_decision_task_DD_L3,2021.2.3,iPhone,62.5,,,,,,,,,,0.753,1,,,,,,,,,,,,,,,,,,,,,,,-0.32328907,-0.358529111,1,0,0,,,,,,,FENCE,HB,z,m,./images/FENCEHB.png,,,,,,,,,,,,,,,,,,,,,0,-0.32328907,-0.358529111,1,0,0,0.753,button_left_test,0,97,97,98,1
,,,,,,,,,,,,,,,,,611adfca9a449cd8843049af,36,2022-02-12_13h27.34.926,lexical_decision_task_DD_L3,2021.2.3,iPhone,62.5,,,,,,,,,,0.72,1,,,,,,,,,,,,,,,,,,,,,,,0.383554648,-0.313585291,1,0,0,,,,,,,FOLDER,LB,m,m,./images/FOLDERLB.png,,,,,,,,,,,,,,,,,,,,,0,0.383554648,-0.313585291,1,0,0,0.72,button_right_test,0,98,98,42,1
,,,,,,,,,,,,,,,,,611adfca9a449cd8843049af,36,2022-02-12_13h27.34.926,lexical_decision_task_DD_L3,2021.2.3,iPhone,62.5,,,,,,,,,,0.769,1,,,,,,,,,,,,,,,,,,,,,,,-0.333503575,-0.353421859,1,0,0,,,,,,,BOXER,C,z,m,./images/BOXER.png,,,,,,,,,,,,,,,,,,,,,0,-0.333503575,-0.353421859,1,0,0,0.769,button_left_test,0,99,99,88,1
,,,,,,,,,,,,,,,,,611adfca9a449cd8843049af,36,2022-02-12_13h27.34.926,lexical_decision_task_DD_L3,2021.2.3,iPhone,62.5,,,,,,,,,,0.752,0,,,,,,,,,,,,,,,,,,,,,,,0.387640449,-0.315628192,1,0,0,,,,,,,FERRY,LB,z,m,./images/FERRYLB.png,,,,,,,,,,,,,,,,,,,,,0,0.387640449,-0.315628192,1,0,0,0.752,button_right_test,0,100,100,141,1
,,,,,,,,,,,,,,,,,611adfca9a449cd8843049af,36,2022-02-12_13h27.34.926,lexical_decision_task_DD_L3,2021.2.3,iPhone,62.5,,,,,,,,,,0.703,1,,,,,,,,,,,,,,,,,,,,,,,-0.329417773,-0.357507661,1,0,0,,,,,,,CASINO,C,z,m,./images/CASINO.png,,,,,,,,,,,,,,,,,,,,,0,-0.329417773,-0.357507661,1,0,0,0.703,button_left_test,0,101,101,112,1
,,,,,,,,,,,,,,,,,611adfca9a449cd8843049af,36,2022-02-12_13h27.34.926,lexical_decision_task_DD_L3,2021.2.3,iPhone,62.5,,,,,,,,,,2.334,1,,,,,,,,,,,,,,,,,,,,,,,0.364147089,-0.299284985,1,0,0,,,,,,,MOTOR,C,m,m,./images/MOTOR.png,,,,,,,,,,,,,,,,,,,,,0,0.364147089,-0.299284985,1,0,0,2.334,button_right_test,0,102,102,13,1
