key_resp.keys,key_resp.rt,instr_done_touch.x,instr_done_touch.y,instr_done_touch.leftButton,instr_done_touch.midButton,instr_done_touch.rightButton,instruction_pages.thisRepN,instruction_pages.thisTrialN,instruction_pages.thisN,instruction_pages.thisIndex,instruction_pages.ran,pageN,phase,instruct_text,has_image,instruct_image,participant,age,date,expName,psychopyVersion,OS,frameRate,response.keys,response.corr,response.rt,touch_resp.x,touch_resp.y,touch_resp.leftButton,touch_resp.midButton,touch_resp.rightButton,touch_resp.time,touch_resp.clicked_name,rt,corr,practrials.thisRepN,practrials.thisTrialN,practrials.thisN,practrials.thisIndex,practrials.ran,TrialID,Target,corrAns,end_of_practice_trials_pages.thisRepN,end_of_practice_trials_pages.thisTrialN,end_of_practice_trials_pages.thisN,end_of_practice_trials_pages.thisIndex,end_of_practice_trials_pages.ran,key_resp_2.keys,key_resp_2.corr,key_resp_2.rt,targ_click.x,targ_click.y,targ_click.leftButton,targ_click.midButton,targ_click.rightButton,targ_click.time,targ_click.clicked_name,break_done_touch.x,break_done_touch.y,break_done_touch.leftButton,break_done_touch.midButton,break_done_touch.rightButton,break_done_keyboard.keys,maintrials.thisRepN,maintrials.thisTrialN,maintrials.thisN,maintrials.thisIndex,maintrials.ran,string,blur,study,lex,stim_path,break_done_keyboard.rt,mouse_2.x,mouse_2.y,mouse_2.leftButton,mouse_2.midButton,mouse_2.rightButton,mouse_2.clicked_name,slider.response,slider.rt,trials.thisRepN,trials.thisTrialN,trials.thisN,trials.thisIndex,trials.ran,test_instructions.thisRepN,test_instructions.thisTrialN,test_instructions.thisN,test_instructions.thisIndex,test_instructions.ran,instr_done_touch.clicked_name,key_resp_3.keys,key_resp_3.corr,key_resp_3.rt,test_click.x,test_click.y,test_click.leftButton,test_click.midButton,test_click.rightButton,test_click.time,test_click.clicked_name,test_phase.thisRepN,test_phase.thisTrialN,test_phase.thisN,test_phase.thisIndex,test_phase.ran
space,226.2779,0.227777811,-0.183333354,0,0,0,0,0,0,0,1,1,instructions,"INSTRUCTIONS
At the start of each trial, look at the plus sign  (+) in the center of the screen.  This tells you that a trial is about to begin and where to look. Second, the plus sign will disappear and a string of letters will appear. Your task is to determine if the string of letters is a word or not. If the item is a word press the M key (on keyboard)  or touch the word button (phone/tablet).  If the item is not a word,  press the  Z key (on keyboard)  or touch the nonword button (on phone/tablet). 
Press the space bar or touch  continue.",0,,612e1df9913c996adb2a42a6,64,2022-02-12_15h53.11.877,lexical_decision_task_DD_L3,2021.2.3,Win32,60.28090904,,,,,,,,,,,,,,,,,,,,,,,,,,,,,,,,,,,,,,,,,,,,,,,,,,,,,,,,,,,,,,,,,,,,,,,,,,,,,,,,,,,,,,
space,10.3385,-0.484259247,0.056481468,0,0,0,0,1,1,1,1,2,instructions,"If your device has a keyboard, press the 'Z' key for nonwords and the 'M' key for words.





Press the space bar or touch the button below to continue.",0,keyboard-example.gif,612e1df9913c996adb2a42a6,64,2022-02-12_15h53.11.877,lexical_decision_task_DD_L3,2021.2.3,Win32,60.28090904,,,,,,,,,,,,,,,,,,,,,,,,,,,,,,,,,,,,,,,,,,,,,,,,,,,,,,,,,,,,,,,,,,,,,,,,,,,,,,,,,,,,,,
space,4.4477,-0.484259247,0.056481468,0,0,0,0,2,2,2,1,3,instructions,"If you are using a touchscreen only device, use the buttons on the screen. Do not use the mouse.





Press the space bar or touch the button below to continue.",0,touchscreen-example.gif,612e1df9913c996adb2a42a6,64,2022-02-12_15h53.11.877,lexical_decision_task_DD_L3,2021.2.3,Win32,60.28090904,,,,,,,,,,,,,,,,,,,,,,,,,,,,,,,,,,,,,,,,,,,,,,,,,,,,,,,,,,,,,,,,,,,,,,,,,,,,,,,,,,,,,,
space,6.6953,-0.484259247,0.056481468,0,0,0,0,3,3,3,1,4,instructions,"It is very important that you respond as quickly and accurately as possible, as each letter string will only be on the screen for two seconds. If you do not respond within this time, the message 'Too slow!' will be displayed and the experiment will progress to the next letter string. The first 20 trials will be practice trials and you will receive feedback on your answers. 

Press the space bar or touch the button below to start the practice trials.",0,,612e1df9913c996adb2a42a6,64,2022-02-12_15h53.11.877,lexical_decision_task_DD_L3,2021.2.3,Win32,60.28090904,,,,,,,,,,,,,,,,,,,,,,,,,,,,,,,,,,,,,,,,,,,,,,,,,,,,,,,,,,,,,,,,,,,,,,,,,,,,,,,,,,,,,,
,,,,,,,,,,,,,,,,,612e1df9913c996adb2a42a6,64,2022-02-12_15h53.11.877,lexical_decision_task_DD_L3,2021.2.3,Win32,60.28090904,m,1,1.7952,,,,,,,,1.7952,1,0,0,0,7,1,1001,VOLUME,m,,,,,,,,,,,,,,,,,,,,,,,,,,,,,,,,,,,,,,,,,,,,,,,,,,,,,,,,,,,,,,,,,,
,,,,,,,,,,,,,,,,,612e1df9913c996adb2a42a6,64,2022-02-12_15h53.11.877,lexical_decision_task_DD_L3,2021.2.3,Win32,60.28090904,z,1,1.765,,,,,,,,1.765,1,0,1,1,8,1,1001,ASLERT,z,,,,,,,,,,,,,,,,,,,,,,,,,,,,,,,,,,,,,,,,,,,,,,,,,,,,,,,,,,,,,,,,,,
,,,,,,,,,,,,,,,,,612e1df9913c996adb2a42a6,64,2022-02-12_15h53.11.877,lexical_decision_task_DD_L3,2021.2.3,Win32,60.28090904,z,1,1.4349,,,,,,,,1.4349,1,0,2,2,13,1,1001,ROUPET,z,,,,,,,,,,,,,,,,,,,,,,,,,,,,,,,,,,,,,,,,,,,,,,,,,,,,,,,,,,,,,,,,,,
,,,,,,,,,,,,,,,,,612e1df9913c996adb2a42a6,64,2022-02-12_15h53.11.877,lexical_decision_task_DD_L3,2021.2.3,Win32,60.28090904,m,1,0.6658,,,,,,,,0.6658,1,0,3,3,6,1,1001,ZOMBIE,m,,,,,,,,,,,,,,,,,,,,,,,,,,,,,,,,,,,,,,,,,,,,,,,,,,,,,,,,,,,,,,,,,,
,,,,,,,,,,,,,,,,,612e1df9913c996adb2a42a6,64,2022-02-12_15h53.11.877,lexical_decision_task_DD_L3,2021.2.3,Win32,60.28090904,z,1,1.3172,,,,,,,,1.3172,1,0,4,4,14,1,1001,THRALE,z,,,,,,,,,,,,,,,,,,,,,,,,,,,,,,,,,,,,,,,,,,,,,,,,,,,,,,,,,,,,,,,,,,
,,,,,,,,,,,,,,,,,612e1df9913c996adb2a42a6,64,2022-02-12_15h53.11.877,lexical_decision_task_DD_L3,2021.2.3,Win32,60.28090904,m,1,1.1513,,,,,,,,1.1513,1,0,5,5,5,1,1001,OBTAIN,m,,,,,,,,,,,,,,,,,,,,,,,,,,,,,,,,,,,,,,,,,,,,,,,,,,,,,,,,,,,,,,,,,,
,,,,,,,,,,,,,,,,,612e1df9913c996adb2a42a6,64,2022-02-12_15h53.11.877,lexical_decision_task_DD_L3,2021.2.3,Win32,60.28090904,z,1,1.45,,,,,,,,1.45,1,0,6,6,10,1,1001,INLADE,z,,,,,,,,,,,,,,,,,,,,,,,,,,,,,,,,,,,,,,,,,,,,,,,,,,,,,,,,,,,,,,,,,,
,,,,,,,,,,,,,,,,,612e1df9913c996adb2a42a6,64,2022-02-12_15h53.11.877,lexical_decision_task_DD_L3,2021.2.3,Win32,60.28090904,m,1,0.8343,,,,,,,,0.8343,1,0,7,7,1,1,1001,ADJUST,m,,,,,,,,,,,,,,,,,,,,,,,,,,,,,,,,,,,,,,,,,,,,,,,,,,,,,,,,,,,,,,,,,,
,,,,,,,,,,,,,,,,,612e1df9913c996adb2a42a6,64,2022-02-12_15h53.11.877,lexical_decision_task_DD_L3,2021.2.3,Win32,60.28090904,z,1,1.3141,,,,,,,,1.3141,1,0,8,8,9,1,1001,FARINY,z,,,,,,,,,,,,,,,,,,,,,,,,,,,,,,,,,,,,,,,,,,,,,,,,,,,,,,,,,,,,,,,,,,
,,,,,,,,,,,,,,,,,612e1df9913c996adb2a42a6,64,2022-02-12_15h53.11.877,lexical_decision_task_DD_L3,2021.2.3,Win32,60.28090904,m,1,0.6147,,,,,,,,0.6147,1,0,9,9,4,1,1001,SQUEAK,m,,,,,,,,,,,,,,,,,,,,,,,,,,,,,,,,,,,,,,,,,,,,,,,,,,,,,,,,,,,,,,,,,,
,,,,,,,,,,,,,,,,,612e1df9913c996adb2a42a6,64,2022-02-12_15h53.11.877,lexical_decision_task_DD_L3,2021.2.3,Win32,60.28090904,z,1,0.9987,,,,,,,,0.9987,1,0,10,10,11,1,1001,RASHET,z,,,,,,,,,,,,,,,,,,,,,,,,,,,,,,,,,,,,,,,,,,,,,,,,,,,,,,,,,,,,,,,,,,
,,,,,,,,,,,,,,,,,612e1df9913c996adb2a42a6,64,2022-02-12_15h53.11.877,lexical_decision_task_DD_L3,2021.2.3,Win32,60.28090904,z,1,1.5346,,,,,,,,1.5346,1,0,11,11,12,1,1001,SPRINY,z,,,,,,,,,,,,,,,,,,,,,,,,,,,,,,,,,,,,,,,,,,,,,,,,,,,,,,,,,,,,,,,,,,
,,,,,,,,,,,,,,,,,612e1df9913c996adb2a42a6,64,2022-02-12_15h53.11.877,lexical_decision_task_DD_L3,2021.2.3,Win32,60.28090904,m,1,1.3511,,,,,,,,1.3511,1,0,12,12,0,1,1001,UTOPIA,m,,,,,,,,,,,,,,,,,,,,,,,,,,,,,,,,,,,,,,,,,,,,,,,,,,,,,,,,,,,,,,,,,,
,,,,,,,,,,,,,,,,,612e1df9913c996adb2a42a6,64,2022-02-12_15h53.11.877,lexical_decision_task_DD_L3,2021.2.3,Win32,60.28090904,m,1,1.1528,,,,,,,,1.1528,1,0,13,13,2,1,1001,ALMOND,m,,,,,,,,,,,,,,,,,,,,,,,,,,,,,,,,,,,,,,,,,,,,,,,,,,,,,,,,,,,,,,,,,,
,,,,,,,,,,,,,,,,,612e1df9913c996adb2a42a6,64,2022-02-12_15h53.11.877,lexical_decision_task_DD_L3,2021.2.3,Win32,60.28090904,z,1,0.8503,,,,,,,,0.8503,1,0,14,14,15,1,1001,WHAISE,z,,,,,,,,,,,,,,,,,,,,,,,,,,,,,,,,,,,,,,,,,,,,,,,,,,,,,,,,,,,,,,,,,,
,,,,,,,,,,,,,,,,,612e1df9913c996adb2a42a6,64,2022-02-12_15h53.11.877,lexical_decision_task_DD_L3,2021.2.3,Win32,60.28090904,m,1,1.1338,,,,,,,,1.1338,1,0,15,15,3,1,1001,MATRIX,m,,,,,,,,,,,,,,,,,,,,,,,,,,,,,,,,,,,,,,,,,,,,,,,,,,,,,,,,,,,,,,,,,,
space,24.5423,-0.484259247,0.056481468,0,0,0,,,,,,1,end_of_practice,"You have completed the practice trials. During the experimental trials, you will not receive feedback. 
Before you begin, please ensure that you are in a comfortable and quiet location and will not be disturbed for about 15 minutes, as we cannot use your data if you do not complete all the trials. 
 When you are ready to start the experimental trials, please press space or touch the button below.",,,612e1df9913c996adb2a42a6,64,2022-02-12_15h53.11.877,lexical_decision_task_DD_L3,2021.2.3,Win32,60.28090904,,,,,,,,,,,,,,,,,,,,,0,0,0,0,1,,,,,,,,,,,,,,,,,,,,,,,,,,,,,,,,,,,,,,,,,,,,,,,,,,,,,,,,,,,,,
,,,,,,,,,,,,,,,,,612e1df9913c996adb2a42a6,64,2022-02-12_15h53.11.877,lexical_decision_task_DD_L3,2021.2.3,Win32,60.28090904,,,,,,,,,,,1.3919,1,,,,,,,,,,,,,,m,1,1.3919,,,,,,,,-0.484259247,0.056481468,0,0,0,,0,0,0,77,1,COUCH,HB,old,m,./images/COUCHHB.png,,,,,,,,,,,,,,,,,,,,,,,,,,,,,,,,,,,
,,,,,,,,,,,,,,,,,612e1df9913c996adb2a42a6,64,2022-02-12_15h53.11.877,lexical_decision_task_DD_L3,2021.2.3,Win32,60.28090904,,,,,,,,,,,1.3241,1,,,,,,,,,,,,,,z,1,1.3241,,,,,,,,-0.484259247,0.056481468,0,0,0,,0,1,1,144,1,NAIRY,C,old,z,./images/NAIRY.png,,,,,,,,,,,,,,,,,,,,,,,,,,,,,,,,,,,
,,,,,,,,,,,,,,,,,612e1df9913c996adb2a42a6,64,2022-02-12_15h53.11.877,lexical_decision_task_DD_L3,2021.2.3,Win32,60.28090904,,,,,,,,,,,1.0822,1,,,,,,,,,,,,,,z,1,1.0822,,,,,,,,-0.484259247,0.056481468,0,0,0,,0,2,2,138,1,PLICE,C,old,z,./images/PLICE.png,,,,,,,,,,,,,,,,,,,,,,,,,,,,,,,,,,,
,,,,,,,,,,,,,,,,,612e1df9913c996adb2a42a6,64,2022-02-12_15h53.11.877,lexical_decision_task_DD_L3,2021.2.3,Win32,60.28090904,,,,,,,,,,,1.2822,1,,,,,,,,,,,,,,z,1,1.2822,,,,,,,,-0.484259247,0.056481468,0,0,0,,0,3,3,116,1,BALGY,LB,old,z,./images/BALGYLB.png,,,,,,,,,,,,,,,,,,,,,,,,,,,,,,,,,,,
,,,,,,,,,,,,,,,,,612e1df9913c996adb2a42a6,64,2022-02-12_15h53.11.877,lexical_decision_task_DD_L3,2021.2.3,Win32,60.28090904,,,,,,,,,,,0.5463,1,,,,,,,,,,,,,,m,1,0.5463,,,,,,,,-0.484259247,0.056481468,0,0,0,,0,4,4,63,1,MIRROR,LB,old,m,./images/MIRRORLB.png,,,,,,,,,,,,,,,,,,,,,,,,,,,,,,,,,,,
,,,,,,,,,,,,,,,,,612e1df9913c996adb2a42a6,64,2022-02-12_15h53.11.877,lexical_decision_task_DD_L3,2021.2.3,Win32,60.28090904,,,,,,,,,,,1.5501,1,,,,,,,,,,,,,,z,1,1.5501,,,,,,,,-0.484259247,0.056481468,0,0,0,,0,5,5,106,1,CLUMS,HB,old,z,./images/CLUMSHB.png,,,,,,,,,,,,,,,,,,,,,,,,,,,,,,,,,,,
,,,,,,,,,,,,,,,,,612e1df9913c996adb2a42a6,64,2022-02-12_15h53.11.877,lexical_decision_task_DD_L3,2021.2.3,Win32,60.28090904,,,,,,,,,,,0.7326,1,,,,,,,,,,,,,,m,1,0.7326,,,,,,,,-0.484259247,0.056481468,0,0,0,,0,6,6,39,1,SHELF,LB,old,m,./images/SHELFLB.png,,,,,,,,,,,,,,,,,,,,,,,,,,,,,,,,,,,
,,,,,,,,,,,,,,,,,612e1df9913c996adb2a42a6,64,2022-02-12_15h53.11.877,lexical_decision_task_DD_L3,2021.2.3,Win32,60.28090904,,,,,,,,,,,1.8963,1,,,,,,,,,,,,,,z,1,1.8963,,,,,,,,-0.484259247,0.056481468,0,0,0,,0,7,7,163,1,GAMBA,HB,old,z,./images/GAMBAHB.png,,,,,,,,,,,,,,,,,,,,,,,,,,,,,,,,,,,
,,,,,,,,,,,,,,,,,612e1df9913c996adb2a42a6,64,2022-02-12_15h53.11.877,lexical_decision_task_DD_L3,2021.2.3,Win32,60.28090904,,,,,,,,,,,0.7349,1,,,,,,,,,,,,,,z,1,0.7349,,,,,,,,-0.484259247,0.056481468,0,0,0,,0,8,8,135,1,JOODY,C,old,z,./images/JOODY.png,,,,,,,,,,,,,,,,,,,,,,,,,,,,,,,,,,,
,,,,,,,,,,,,,,,,,612e1df9913c996adb2a42a6,64,2022-02-12_15h53.11.877,lexical_decision_task_DD_L3,2021.2.3,Win32,60.28090904,,,,,,,,,,,0.9309,1,,,,,,,,,,,,,,m,1,0.9309,,,,,,,,-0.484259247,0.056481468,0,0,0,,0,9,9,74,1,CEMENT,HB,old,m,./images/CEMENTHB.png,,,,,,,,,,,,,,,,,,,,,,,,,,,,,,,,,,,
,,,,,,,,,,,,,,,,,612e1df9913c996adb2a42a6,64,2022-02-12_15h53.11.877,lexical_decision_task_DD_L3,2021.2.3,Win32,60.28090904,,,,,,,,,,,0.5961,1,,,,,,,,,,,,,,m,1,0.5961,,,,,,,,-0.484259247,0.056481468,0,0,0,,0,10,10,79,1,CRUST,C,old,m,./images/CRUST.png,,,,,,,,,,,,,,,,,,,,,,,,,,,,,,,,,,,
,,,,,,,,,,,,,,,,,612e1df9913c996adb2a42a6,64,2022-02-12_15h53.11.877,lexical_decision_task_DD_L3,2021.2.3,Win32,60.28090904,,,,,,,,,,,1.6102,1,,,,,,,,,,,,,,z,1,1.6102,,,,,,,,-0.484259247,0.056481468,0,0,0,,0,11,11,124,1,TUNCH,HB,old,z,./images/TUNCHHB.png,,,,,,,,,,,,,,,,,,,,,,,,,,,,,,,,,,,
,,,,,,,,,,,,,,,,,612e1df9913c996adb2a42a6,64,2022-02-12_15h53.11.877,lexical_decision_task_DD_L3,2021.2.3,Win32,60.28090904,,,,,,,,,,,0.6167,1,,,,,,,,,,,,,,m,1,0.6167,,,,,,,,-0.484259247,0.056481468,0,0,0,,0,12,12,45,1,KITTEN,LB,old,m,./images/KITTENLB.png,,,,,,,,,,,,,,,,,,,,,,,,,,,,,,,,,,,
,,,,,,,,,,,,,,,,,612e1df9913c996adb2a42a6,64,2022-02-12_15h53.11.877,lexical_decision_task_DD_L3,2021.2.3,Win32,60.28090904,,,,,,,,,,,1.2525,1,,,,,,,,,,,,,,m,1,1.2525,,,,,,,,-0.484259247,0.056481468,0,0,0,,0,13,13,3,1,FINGER,LB,old,m,./images/FINGERLB.png,,,,,,,,,,,,,,,,,,,,,,,,,,,,,,,,,,,
,,,,,,,,,,,,,,,,,612e1df9913c996adb2a42a6,64,2022-02-12_15h53.11.877,lexical_decision_task_DD_L3,2021.2.3,Win32,60.28090904,,,,,,,,,,,1.838,1,,,,,,,,,,,,,,z,1,1.838,,,,,,,,-0.484259247,0.056481468,0,0,0,,0,14,14,107,1,FASKS,LB,old,z,./images/FASKSLB.png,,,,,,,,,,,,,,,,,,,,,,,,,,,,,,,,,,,
,,,,,,,,,,,,,,,,,612e1df9913c996adb2a42a6,64,2022-02-12_15h53.11.877,lexical_decision_task_DD_L3,2021.2.3,Win32,60.28090904,,,,,,,,,,,0.821,1,,,,,,,,,,,,,,z,1,0.821,,,,,,,,-0.484259247,0.056481468,0,0,0,,0,15,15,105,1,MOKER,C,old,z,./images/MOKER.png,,,,,,,,,,,,,,,,,,,,,,,,,,,,,,,,,,,
,,,,,,,,,,,,,,,,,612e1df9913c996adb2a42a6,64,2022-02-12_15h53.11.877,lexical_decision_task_DD_L3,2021.2.3,Win32,60.28090904,,,,,,,,,,,0.9479,1,,,,,,,,,,,,,,z,1,0.9479,,,,,,,,-0.484259247,0.056481468,0,0,0,,0,16,16,158,1,EGECT,LB,old,z,./images/EGECTLB.png,,,,,,,,,,,,,,,,,,,,,,,,,,,,,,,,,,,
,,,,,,,,,,,,,,,,,612e1df9913c996adb2a42a6,64,2022-02-12_15h53.11.877,lexical_decision_task_DD_L3,2021.2.3,Win32,60.28090904,,,,,,,,,,,1.9077,1,,,,,,,,,,,,,,z,1,1.9077,,,,,,,,-0.484259247,0.056481468,0,0,0,,0,17,17,95,1,HANTY,LB,old,z,./images/HANTYLB.png,,,,,,,,,,,,,,,,,,,,,,,,,,,,,,,,,,,
,,,,,,,,,,,,,,,,,612e1df9913c996adb2a42a6,64,2022-02-12_15h53.11.877,lexical_decision_task_DD_L3,2021.2.3,Win32,60.28090904,,,,,,,,,,,0.5653,1,,,,,,,,,,,,,,m,1,0.5653,,,,,,,,-0.484259247,0.056481468,0,0,0,,0,18,18,25,1,WRIST,C,old,m,./images/WRIST.png,,,,,,,,,,,,,,,,,,,,,,,,,,,,,,,,,,,
,,,,,,,,,,,,,,,,,612e1df9913c996adb2a42a6,64,2022-02-12_15h53.11.877,lexical_decision_task_DD_L3,2021.2.3,Win32,60.28090904,,,,,,,,,,,1.1014,1,,,,,,,,,,,,,,z,1,1.1014,,,,,,,,-0.484259247,0.056481468,0,0,0,,0,19,19,134,1,TROSS,LB,old,z,./images/TROSSLB.png,,,,,,,,,,,,,,,,,,,,,,,,,,,,,,,,,,,
,,,,,,,,,,,,,,,,,612e1df9913c996adb2a42a6,64,2022-02-12_15h53.11.877,lexical_decision_task_DD_L3,2021.2.3,Win32,60.28090904,,,,,,,,,,,0.7723,1,,,,,,,,,,,,,,m,1,0.7723,,,,,,,,-0.484259247,0.056481468,0,0,0,,0,20,20,68,1,TORCH,HB,old,m,./images/TORCHHB.png,,,,,,,,,,,,,,,,,,,,,,,,,,,,,,,,,,,
,,,,,,,,,,,,,,,,,612e1df9913c996adb2a42a6,64,2022-02-12_15h53.11.877,lexical_decision_task_DD_L3,2021.2.3,Win32,60.28090904,,,,,,,,,,,0.7955,1,,,,,,,,,,,,,,m,1,0.7955,,,,,,,,-0.484259247,0.056481468,0,0,0,,0,21,21,20,1,CRADLE,HB,old,m,./images/CRADLEHB.png,,,,,,,,,,,,,,,,,,,,,,,,,,,,,,,,,,,
,,,,,,,,,,,,,,,,,612e1df9913c996adb2a42a6,64,2022-02-12_15h53.11.877,lexical_decision_task_DD_L3,2021.2.3,Win32,60.28090904,,,,,,,,,,,0.9082,1,,,,,,,,,,,,,,z,1,0.9082,,,,,,,,-0.484259247,0.056481468,0,0,0,,0,22,22,139,1,BLEAR,HB,old,z,./images/BLEARHB.png,,,,,,,,,,,,,,,,,,,,,,,,,,,,,,,,,,,
,,,,,,,,,,,,,,,,,612e1df9913c996adb2a42a6,64,2022-02-12_15h53.11.877,lexical_decision_task_DD_L3,2021.2.3,Win32,60.28090904,,,,,,,,,,,1.2995,1,,,,,,,,,,,,,,z,1,1.2995,,,,,,,,-0.484259247,0.056481468,0,0,0,,0,23,23,91,1,SHENS,HB,old,z,./images/SHENSHB.png,,,,,,,,,,,,,,,,,,,,,,,,,,,,,,,,,,,
,,,,,,,,,,,,,,,,,612e1df9913c996adb2a42a6,64,2022-02-12_15h53.11.877,lexical_decision_task_DD_L3,2021.2.3,Win32,60.28090904,,,,,,,,,,,0.8149,0,,,,,,,,,,,,,,m,0,0.8149,,,,,,,,-0.484259247,0.056481468,0,0,0,,0,24,24,128,1,GRIFT,LB,old,z,./images/GRIFTLB.png,,,,,,,,,,,,,,,,,,,,,,,,,,,,,,,,,,,
,,,,,,,,,,,,,,,,,612e1df9913c996adb2a42a6,64,2022-02-12_15h53.11.877,lexical_decision_task_DD_L3,2021.2.3,Win32,60.28090904,,,,,,,,,,,0.9596,1,,,,,,,,,,,,,,z,1,0.9596,,,,,,,,-0.484259247,0.056481468,0,0,0,,0,25,25,136,1,WERVE,HB,old,z,./images/WERVEHB.png,,,,,,,,,,,,,,,,,,,,,,,,,,,,,,,,,,,
,,,,,,,,,,,,,,,,,612e1df9913c996adb2a42a6,64,2022-02-12_15h53.11.877,lexical_decision_task_DD_L3,2021.2.3,Win32,60.28090904,,,,,,,,,,,0.7897,1,,,,,,,,,,,,,,z,1,0.7897,,,,,,,,-0.484259247,0.056481468,0,0,0,,0,26,26,92,1,PAIMS,LB,old,z,./images/PAIMSLB.png,,,,,,,,,,,,,,,,,,,,,,,,,,,,,,,,,,,
,,,,,,,,,,,,,,,,,612e1df9913c996adb2a42a6,64,2022-02-12_15h53.11.877,lexical_decision_task_DD_L3,2021.2.3,Win32,60.28090904,,,,,,,,,,,0.7007,1,,,,,,,,,,,,,,m,1,0.7007,,,,,,,,-0.484259247,0.056481468,0,0,0,,0,27,27,9,1,RHINO,LB,old,m,./images/RHINOLB.png,,,,,,,,,,,,,,,,,,,,,,,,,,,,,,,,,,,
,,,,,,,,,,,,,,,,,612e1df9913c996adb2a42a6,64,2022-02-12_15h53.11.877,lexical_decision_task_DD_L3,2021.2.3,Win32,60.28090904,,,,,,,,,,,0.7039,1,,,,,,,,,,,,,,m,1,0.7039,,,,,,,,-0.484259247,0.056481468,0,0,0,,0,28,28,30,1,STORM,LB,old,m,./images/STORMLB.png,,,,,,,,,,,,,,,,,,,,,,,,,,,,,,,,,,,
,,,,,,,,,,,,,,,,,612e1df9913c996adb2a42a6,64,2022-02-12_15h53.11.877,lexical_decision_task_DD_L3,2021.2.3,Win32,60.28090904,,,,,,,,,,,0.5302,1,,,,,,,,,,,,,,m,1,0.5302,,,,,,,,-0.484259247,0.056481468,0,0,0,,0,29,29,36,1,THROAT,LB,old,m,./images/THROATLB.png,,,,,,,,,,,,,,,,,,,,,,,,,,,,,,,,,,,
,,,,,,,,,,,,,,,,,612e1df9913c996adb2a42a6,64,2022-02-12_15h53.11.877,lexical_decision_task_DD_L3,2021.2.3,Win32,60.28090904,,,,,,,,,,,0.6677,1,,,,,,,,,,,,,,m,1,0.6677,,,,,,,,-0.484259247,0.056481468,0,0,0,,0,30,30,46,1,PEARL,C,old,m,./images/PEARL.png,,,,,,,,,,,,,,,,,,,,,,,,,,,,,,,,,,,
,,,,,,,,,,,,,,,,,612e1df9913c996adb2a42a6,64,2022-02-12_15h53.11.877,lexical_decision_task_DD_L3,2021.2.3,Win32,60.28090904,,,,,,,,,,,0.7095,1,,,,,,,,,,,,,,z,1,0.7095,,,,,,,,-0.484259247,0.056481468,0,0,0,,0,31,31,160,1,VEETS,HB,old,z,./images/VEETSHB.png,,,,,,,,,,,,,,,,,,,,,,,,,,,,,,,,,,,
,,,,,,,,,,,,,,,,,612e1df9913c996adb2a42a6,64,2022-02-12_15h53.11.877,lexical_decision_task_DD_L3,2021.2.3,Win32,60.28090904,,,,,,,,,,,0.8198,1,,,,,,,,,,,,,,z,1,0.8198,,,,,,,,-0.484259247,0.056481468,0,0,0,,0,32,32,96,1,KEAMS,C,old,z,./images/KEAMS.png,,,,,,,,,,,,,,,,,,,,,,,,,,,,,,,,,,,
,,,,,,,,,,,,,,,,,612e1df9913c996adb2a42a6,64,2022-02-12_15h53.11.877,lexical_decision_task_DD_L3,2021.2.3,Win32,60.28090904,,,,,,,,,,,0.881,1,,,,,,,,,,,,,,z,1,0.881,,,,,,,,-0.484259247,0.056481468,0,0,0,,0,33,33,167,1,ZONET,LB,old,z,./images/ZONETLB.png,,,,,,,,,,,,,,,,,,,,,,,,,,,,,,,,,,,
,,,,,,,,,,,,,,,,,612e1df9913c996adb2a42a6,64,2022-02-12_15h53.11.877,lexical_decision_task_DD_L3,2021.2.3,Win32,60.28090904,,,,,,,,,,,0.7516,1,,,,,,,,,,,,,,m,1,0.7516,,,,,,,,-0.484259247,0.056481468,0,0,0,,0,34,34,62,1,PURSE,HB,old,m,./images/PURSEHB.png,,,,,,,,,,,,,,,,,,,,,,,,,,,,,,,,,,,
,,,,,,,,,,,,,,,,,612e1df9913c996adb2a42a6,64,2022-02-12_15h53.11.877,lexical_decision_task_DD_L3,2021.2.3,Win32,60.28090904,,,,,,,,,,,0.7804,1,,,,,,,,,,,,,,z,1,0.7804,,,,,,,,-0.484259247,0.056481468,0,0,0,,0,35,35,122,1,BLOOT,LB,old,z,./images/BLOOTLB.png,,,,,,,,,,,,,,,,,,,,,,,,,,,,,,,,,,,
,,,,,,,,,,,,,,,,,612e1df9913c996adb2a42a6,64,2022-02-12_15h53.11.877,lexical_decision_task_DD_L3,2021.2.3,Win32,60.28090904,,,,,,,,,,,0.5128,1,,,,,,,,,,,,,,m,1,0.5128,,,,,,,,-0.484259247,0.056481468,0,0,0,,0,36,36,49,1,DRUMS,C,old,m,./images/DRUMS.png,,,,,,,,,,,,,,,,,,,,,,,,,,,,,,,,,,,
,,,,,,,,,,,,,,,,,612e1df9913c996adb2a42a6,64,2022-02-12_15h53.11.877,lexical_decision_task_DD_L3,2021.2.3,Win32,60.28090904,,,,,,,,,,,0.5134,1,,,,,,,,,,,,,,m,1,0.5134,,,,,,,,-0.484259247,0.056481468,0,0,0,,0,37,37,67,1,SAILOR,C,old,m,./images/SAILOR.png,,,,,,,,,,,,,,,,,,,,,,,,,,,,,,,,,,,
,,,,,,,,,,,,,,,,,612e1df9913c996adb2a42a6,64,2022-02-12_15h53.11.877,lexical_decision_task_DD_L3,2021.2.3,Win32,60.28090904,,,,,,,,,,,0.8139,1,,,,,,,,,,,,,,z,1,0.8139,,,,,,,,-0.484259247,0.056481468,0,0,0,,0,38,38,85,1,CHULK,HB,old,z,./images/CHULKHB.png,,,,,,,,,,,,,,,,,,,,,,,,,,,,,,,,,,,
,,,,,,,,,,,,,,,,,612e1df9913c996adb2a42a6,64,2022-02-12_15h53.11.877,lexical_decision_task_DD_L3,2021.2.3,Win32,60.28090904,,,,,,,,,,,1.0689,1,,,,,,,,,,,,,,m,1,1.0689,,,,,,,,-0.484259247,0.056481468,0,0,0,,0,39,39,72,1,NOOSE,LB,old,m,./images/NOOSELB.png,,,,,,,,,,,,,,,,,,,,,,,,,,,,,,,,,,,
,,,,,,,,,,,,,,,,,612e1df9913c996adb2a42a6,64,2022-02-12_15h53.11.877,lexical_decision_task_DD_L3,2021.2.3,Win32,60.28090904,,,,,,,,,,,0.5822,1,,,,,,,,,,,,,,z,1,0.5822,,,,,,,,-0.484259247,0.056481468,0,0,0,,0,40,40,156,1,HIXES,C,old,z,./images/HIXES.png,,,,,,,,,,,,,,,,,,,,,,,,,,,,,,,,,,,
,,,,,,,,,,,,,,,,,612e1df9913c996adb2a42a6,64,2022-02-12_15h53.11.877,lexical_decision_task_DD_L3,2021.2.3,Win32,60.28090904,,,,,,,,,,,1.5521,1,,,,,,,,,,,,,,m,1,1.5521,,,,,,,,-0.484259247,0.056481468,0,0,0,space,0,41,41,65,1,FARMER,HB,old,m,./images/FARMERHB.png,93.3746,,,,,,,,,,,,,,,,,,,,,,,,,,,,,,,,,,
,,,,,,,,,,,,,,,,,612e1df9913c996adb2a42a6,64,2022-02-12_15h53.11.877,lexical_decision_task_DD_L3,2021.2.3,Win32,60.28090904,,,,,,,,,,,1.0308,1,,,,,,,,,,,,,,z,1,1.0308,,,,,,,,-0.484259247,0.056481468,0,0,0,,0,42,42,90,1,NEAST,C,old,z,./images/NEAST.png,,,,,,,,,,,,,,,,,,,,,,,,,,,,,,,,,,,
,,,,,,,,,,,,,,,,,612e1df9913c996adb2a42a6,64,2022-02-12_15h53.11.877,lexical_decision_task_DD_L3,2021.2.3,Win32,60.28090904,,,,,,,,,,,1.2186,1,,,,,,,,,,,,,,z,1,1.2186,,,,,,,,-0.484259247,0.056481468,0,0,0,,0,43,43,99,1,BACKY,C,old,z,./images/BACKY.png,,,,,,,,,,,,,,,,,,,,,,,,,,,,,,,,,,,
,,,,,,,,,,,,,,,,,612e1df9913c996adb2a42a6,64,2022-02-12_15h53.11.877,lexical_decision_task_DD_L3,2021.2.3,Win32,60.28090904,,,,,,,,,,,1.8675,1,,,,,,,,,,,,,,m,1,1.8675,,,,,,,,-0.484259247,0.056481468,0,0,0,,0,44,44,17,1,SKIING,HB,old,m,./images/SKIINGHB.png,,,,,,,,,,,,,,,,,,,,,,,,,,,,,,,,,,,
,,,,,,,,,,,,,,,,,612e1df9913c996adb2a42a6,64,2022-02-12_15h53.11.877,lexical_decision_task_DD_L3,2021.2.3,Win32,60.28090904,,,,,,,,,,,0.6939,1,,,,,,,,,,,,,,m,1,0.6939,,,,,,,,-0.484259247,0.056481468,0,0,0,,0,45,45,58,1,BABOON,C,old,m,./images/BABOON.png,,,,,,,,,,,,,,,,,,,,,,,,,,,,,,,,,,,
,,,,,,,,,,,,,,,,,612e1df9913c996adb2a42a6,64,2022-02-12_15h53.11.877,lexical_decision_task_DD_L3,2021.2.3,Win32,60.28090904,,,,,,,,,,,0.7965,1,,,,,,,,,,,,,,z,1,0.7965,,,,,,,,-0.484259247,0.056481468,0,0,0,,0,46,46,148,1,JOMS,HB,old,z,./images/JOMSHB.png,,,,,,,,,,,,,,,,,,,,,,,,,,,,,,,,,,,
,,,,,,,,,,,,,,,,,612e1df9913c996adb2a42a6,64,2022-02-12_15h53.11.877,lexical_decision_task_DD_L3,2021.2.3,Win32,60.28090904,,,,,,,,,,,0.9686,1,,,,,,,,,,,,,,m,1,0.9686,,,,,,,,-0.484259247,0.056481468,0,0,0,,0,47,47,32,1,BARREL,HB,old,m,./images/BARRELHB.png,,,,,,,,,,,,,,,,,,,,,,,,,,,,,,,,,,,
,,,,,,,,,,,,,,,,,612e1df9913c996adb2a42a6,64,2022-02-12_15h53.11.877,lexical_decision_task_DD_L3,2021.2.3,Win32,60.28090904,,,,,,,,,,,0.6342,1,,,,,,,,,,,,,,m,1,0.6342,,,,,,,,-0.484259247,0.056481468,0,0,0,,0,48,48,73,1,SNACK,C,old,m,./images/SNACK.png,,,,,,,,,,,,,,,,,,,,,,,,,,,,,,,,,,,
,,,,,,,,,,,,,,,,,612e1df9913c996adb2a42a6,64,2022-02-12_15h53.11.877,lexical_decision_task_DD_L3,2021.2.3,Win32,60.28090904,,,,,,,,,,,1.3358,1,,,,,,,,,,,,,,z,1,1.3358,,,,,,,,-0.484259247,0.056481468,0,0,0,,0,49,49,121,1,CEERS,HB,old,z,./images/CEERSHB.png,,,,,,,,,,,,,,,,,,,,,,,,,,,,,,,,,,,
,,,,,,,,,,,,,,,,,612e1df9913c996adb2a42a6,64,2022-02-12_15h53.11.877,lexical_decision_task_DD_L3,2021.2.3,Win32,60.28090904,,,,,,,,,,,0.5825,1,,,,,,,,,,,,,,m,1,0.5825,,,,,,,,-0.484259247,0.056481468,0,0,0,,0,50,50,42,1,FOLDER,LB,old,m,./images/FOLDERLB.png,,,,,,,,,,,,,,,,,,,,,,,,,,,,,,,,,,,
,,,,,,,,,,,,,,,,,612e1df9913c996adb2a42a6,64,2022-02-12_15h53.11.877,lexical_decision_task_DD_L3,2021.2.3,Win32,60.28090904,,,,,,,,,,,1.0488,1,,,,,,,,,,,,,,z,1,1.0488,,,,,,,,-0.484259247,0.056481468,0,0,0,,0,51,51,157,1,INLER,HB,old,z,./images/INLERHB.png,,,,,,,,,,,,,,,,,,,,,,,,,,,,,,,,,,,
,,,,,,,,,,,,,,,,,612e1df9913c996adb2a42a6,64,2022-02-12_15h53.11.877,lexical_decision_task_DD_L3,2021.2.3,Win32,60.28090904,,,,,,,,,,,0.734,1,,,,,,,,,,,,,,z,1,0.734,,,,,,,,-0.484259247,0.056481468,0,0,0,,0,52,52,146,1,MOOST,LB,old,z,./images/MOOSTLB.png,,,,,,,,,,,,,,,,,,,,,,,,,,,,,,,,,,,
,,,,,,,,,,,,,,,,,612e1df9913c996adb2a42a6,64,2022-02-12_15h53.11.877,lexical_decision_task_DD_L3,2021.2.3,Win32,60.28090904,,,,,,,,,,,0.6656,1,,,,,,,,,,,,,,m,1,0.6656,,,,,,,,-0.484259247,0.056481468,0,0,0,,0,53,53,83,1,JUNGLE,HB,old,m,./images/JUNGLEHB.png,,,,,,,,,,,,,,,,,,,,,,,,,,,,,,,,,,,
,,,,,,,,,,,,,,,,,612e1df9913c996adb2a42a6,64,2022-02-12_15h53.11.877,lexical_decision_task_DD_L3,2021.2.3,Win32,60.28090904,,,,,,,,,,,0.8802,1,,,,,,,,,,,,,,m,1,0.8802,,,,,,,,-0.484259247,0.056481468,0,0,0,,0,54,54,8,1,TULIP,HB,old,m,./images/TULIPHB.png,,,,,,,,,,,,,,,,,,,,,,,,,,,,,,,,,,,
,,,,,,,,,,,,,,,,,612e1df9913c996adb2a42a6,64,2022-02-12_15h53.11.877,lexical_decision_task_DD_L3,2021.2.3,Win32,60.28090904,,,,,,,,,,,0.5475,1,,,,,,,,,,,,,,m,1,0.5475,,,,,,,,-0.484259247,0.056481468,0,0,0,,0,55,55,61,1,CANDLE,C,old,m,./images/CANDLE.png,,,,,,,,,,,,,,,,,,,,,,,,,,,,,,,,,,,
,,,,,,,,,,,,,,,,,612e1df9913c996adb2a42a6,64,2022-02-12_15h53.11.877,lexical_decision_task_DD_L3,2021.2.3,Win32,60.28090904,,,,,,,,,,,0.5293,1,,,,,,,,,,,,,,m,1,0.5293,,,,,,,,-0.484259247,0.056481468,0,0,0,,0,56,56,81,1,POODLE,LB,old,m,./images/POODLELB.png,,,,,,,,,,,,,,,,,,,,,,,,,,,,,,,,,,,
,,,,,,,,,,,,,,,,,612e1df9913c996adb2a42a6,64,2022-02-12_15h53.11.877,lexical_decision_task_DD_L3,2021.2.3,Win32,60.28090904,,,,,,,,,,,0.5301,1,,,,,,,,,,,,,,m,1,0.5301,,,,,,,,-0.484259247,0.056481468,0,0,0,,0,57,57,57,1,MOOSE,LB,old,m,./images/MOOSELB.png,,,,,,,,,,,,,,,,,,,,,,,,,,,,,,,,,,,
,,,,,,,,,,,,,,,,,612e1df9913c996adb2a42a6,64,2022-02-12_15h53.11.877,lexical_decision_task_DD_L3,2021.2.3,Win32,60.28090904,,,,,,,,,,,0.4795,1,,,,,,,,,,,,,,m,1,0.4795,,,,,,,,-0.484259247,0.056481468,0,0,0,,0,58,58,6,1,SQUARE,LB,old,m,./images/SQUARELB.png,,,,,,,,,,,,,,,,,,,,,,,,,,,,,,,,,,,
,,,,,,,,,,,,,,,,,612e1df9913c996adb2a42a6,64,2022-02-12_15h53.11.877,lexical_decision_task_DD_L3,2021.2.3,Win32,60.28090904,,,,,,,,,,,0.5192,1,,,,,,,,,,,,,,m,1,0.5192,,,,,,,,-0.484259247,0.056481468,0,0,0,,0,59,59,51,1,ONION,LB,old,m,./images/ONIONLB.png,,,,,,,,,,,,,,,,,,,,,,,,,,,,,,,,,,,
,,,,,,,,,,,,,,,,,612e1df9913c996adb2a42a6,64,2022-02-12_15h53.11.877,lexical_decision_task_DD_L3,2021.2.3,Win32,60.28090904,,,,,,,,,,,0.8307,1,,,,,,,,,,,,,,z,1,0.8307,,,,,,,,-0.484259247,0.056481468,0,0,0,,0,60,60,155,1,CANGY,LB,old,z,./images/CANGYLB.png,,,,,,,,,,,,,,,,,,,,,,,,,,,,,,,,,,,
,,,,,,,,,,,,,,,,,612e1df9913c996adb2a42a6,64,2022-02-12_15h53.11.877,lexical_decision_task_DD_L3,2021.2.3,Win32,60.28090904,,,,,,,,,,,1.1782,1,,,,,,,,,,,,,,m,1,1.1782,,,,,,,,-0.484259247,0.056481468,0,0,0,,0,61,61,56,1,PACKET,HB,old,m,./images/PACKETHB.png,,,,,,,,,,,,,,,,,,,,,,,,,,,,,,,,,,,
,,,,,,,,,,,,,,,,,612e1df9913c996adb2a42a6,64,2022-02-12_15h53.11.877,lexical_decision_task_DD_L3,2021.2.3,Win32,60.28090904,,,,,,,,,,,1.8155,1,,,,,,,,,,,,,,z,1,1.8155,,,,,,,,-0.484259247,0.056481468,0,0,0,,0,62,62,115,1,MAWNS,HB,old,z,./images/MAWNSHB.png,,,,,,,,,,,,,,,,,,,,,,,,,,,,,,,,,,,
,,,,,,,,,,,,,,,,,612e1df9913c996adb2a42a6,64,2022-02-12_15h53.11.877,lexical_decision_task_DD_L3,2021.2.3,Win32,60.28090904,,,,,,,,,,,0.8983,1,,,,,,,,,,,,,,z,1,0.8983,,,,,,,,-0.484259247,0.056481468,0,0,0,,0,63,63,104,1,GITTY,LB,old,z,./images/GITTYLB.png,,,,,,,,,,,,,,,,,,,,,,,,,,,,,,,,,,,
,,,,,,,,,,,,,,,,,612e1df9913c996adb2a42a6,64,2022-02-12_15h53.11.877,lexical_decision_task_DD_L3,2021.2.3,Win32,60.28090904,,,,,,,,,,,0.9614,1,,,,,,,,,,,,,,z,1,0.9614,,,,,,,,-0.484259247,0.056481468,0,0,0,,0,64,64,150,1,NOOLS,C,old,z,./images/NOOLS.png,,,,,,,,,,,,,,,,,,,,,,,,,,,,,,,,,,,
,,,,,,,,,,,,,,,,,612e1df9913c996adb2a42a6,64,2022-02-12_15h53.11.877,lexical_decision_task_DD_L3,2021.2.3,Win32,60.28090904,,,,,,,,,,,0.9731,1,,,,,,,,,,,,,,z,1,0.9731,,,,,,,,-0.484259247,0.056481468,0,0,0,,0,65,65,109,1,BURGE,HB,old,z,./images/BURGEHB.png,,,,,,,,,,,,,,,,,,,,,,,,,,,,,,,,,,,
,,,,,,,,,,,,,,,,,612e1df9913c996adb2a42a6,64,2022-02-12_15h53.11.877,lexical_decision_task_DD_L3,2021.2.3,Win32,60.28090904,,,,,,,,,,,9.0825,1,,,,,,,,,,,,,,z,1,9.0825,,,,,,,,-0.484259247,0.056481468,0,0,0,,0,66,66,100,1,DRIBS,HB,old,z,./images/DRIBSHB.png,,,,,,,,,,,,,,,,,,,,,,,,,,,,,,,,,,,
,,,,,,,,,,,,,,,,,612e1df9913c996adb2a42a6,64,2022-02-12_15h53.11.877,lexical_decision_task_DD_L3,2021.2.3,Win32,60.28090904,,,,,,,,,,,0.7149,1,,,,,,,,,,,,,,z,1,0.7149,,,,,,,,-0.484259247,0.056481468,0,0,0,,0,67,67,164,1,SGREW,LB,old,z,./images/SGREWLB.png,,,,,,,,,,,,,,,,,,,,,,,,,,,,,,,,,,,
,,,,,,,,,,,,,,,,,612e1df9913c996adb2a42a6,64,2022-02-12_15h53.11.877,lexical_decision_task_DD_L3,2021.2.3,Win32,60.28090904,,,,,,,,,,,0.6694,1,,,,,,,,,,,,,,m,1,0.6694,,,,,,,,-0.484259247,0.056481468,0,0,0,,0,68,68,69,1,COOKER,LB,old,m,./images/COOKERLB.png,,,,,,,,,,,,,,,,,,,,,,,,,,,,,,,,,,,
,,,,,,,,,,,,,,,,,612e1df9913c996adb2a42a6,64,2022-02-12_15h53.11.877,lexical_decision_task_DD_L3,2021.2.3,Win32,60.28090904,,,,,,,,,,,0.4834,1,,,,,,,,,,,,,,m,1,0.4834,,,,,,,,-0.484259247,0.056481468,0,0,0,,0,69,69,15,1,GREASE,LB,old,m,./images/GREASELB.png,,,,,,,,,,,,,,,,,,,,,,,,,,,,,,,,,,,
,,,,,,,,,,,,,,,,,612e1df9913c996adb2a42a6,64,2022-02-12_15h53.11.877,lexical_decision_task_DD_L3,2021.2.3,Win32,60.28090904,,,,,,,,,,,0.6836,1,,,,,,,,,,,,,,z,1,0.6836,,,,,,,,-0.484259247,0.056481468,0,0,0,,0,70,70,89,1,DRIEK,LB,old,z,./images/DRIEKLB.png,,,,,,,,,,,,,,,,,,,,,,,,,,,,,,,,,,,
,,,,,,,,,,,,,,,,,612e1df9913c996adb2a42a6,64,2022-02-12_15h53.11.877,lexical_decision_task_DD_L3,2021.2.3,Win32,60.28090904,,,,,,,,,,,0.5599,1,,,,,,,,,,,,,,m,1,0.5599,,,,,,,,-0.484259247,0.056481468,0,0,0,,0,71,71,34,1,CANYON,C,old,m,./images/CANYON.png,,,,,,,,,,,,,,,,,,,,,,,,,,,,,,,,,,,
,,,,,,,,,,,,,,,,,612e1df9913c996adb2a42a6,64,2022-02-12_15h53.11.877,lexical_decision_task_DD_L3,2021.2.3,Win32,60.28090904,,,,,,,,,,,0.5897,1,,,,,,,,,,,,,,m,1,0.5897,,,,,,,,-0.484259247,0.056481468,0,0,0,,0,72,72,66,1,SWEAT,LB,old,m,./images/SWEATLB.png,,,,,,,,,,,,,,,,,,,,,,,,,,,,,,,,,,,
,,,,,,,,,,,,,,,,,612e1df9913c996adb2a42a6,64,2022-02-12_15h53.11.877,lexical_decision_task_DD_L3,2021.2.3,Win32,60.28090904,,,,,,,,,,,0.5917,1,,,,,,,,,,,,,,z,1,0.5917,,,,,,,,-0.484259247,0.056481468,0,0,0,,0,73,73,113,1,LINEW,LB,old,z,./images/LINEWLB.png,,,,,,,,,,,,,,,,,,,,,,,,,,,,,,,,,,,
,,,,,,,,,,,,,,,,,612e1df9913c996adb2a42a6,64,2022-02-12_15h53.11.877,lexical_decision_task_DD_L3,2021.2.3,Win32,60.28090904,,,,,,,,,,,0.6613,1,,,,,,,,,,,,,,m,1,0.6613,,,,,,,,-0.484259247,0.056481468,0,0,0,,0,74,74,70,1,URINE,C,old,m,./images/URINE.png,,,,,,,,,,,,,,,,,,,,,,,,,,,,,,,,,,,
,,,,,,,,,,,,,,,,,612e1df9913c996adb2a42a6,64,2022-02-12_15h53.11.877,lexical_decision_task_DD_L3,2021.2.3,Win32,60.28090904,,,,,,,,,,,0.5863,1,,,,,,,,,,,,,,m,1,0.5863,,,,,,,,-0.484259247,0.056481468,0,0,0,,0,75,75,40,1,SWING,C,old,m,./images/SWING.png,,,,,,,,,,,,,,,,,,,,,,,,,,,,,,,,,,,
,,,,,,,,,,,,,,,,,612e1df9913c996adb2a42a6,64,2022-02-12_15h53.11.877,lexical_decision_task_DD_L3,2021.2.3,Win32,60.28090904,,,,,,,,,,,0.6631,1,,,,,,,,,,,,,,m,1,0.6631,,,,,,,,-0.484259247,0.056481468,0,0,0,,0,76,76,52,1,BANNER,C,old,m,./images/BANNER.png,,,,,,,,,,,,,,,,,,,,,,,,,,,,,,,,,,,
,,,,,,,,,,,,,,,,,612e1df9913c996adb2a42a6,64,2022-02-12_15h53.11.877,lexical_decision_task_DD_L3,2021.2.3,Win32,60.28090904,,,,,,,,,,,0.7512,0,,,,,,,,,,,,,,m,0,0.7512,,,,,,,,-0.484259247,0.056481468,0,0,0,,0,77,77,110,1,CRUNK,LB,old,z,./images/CRUNKLB.png,,,,,,,,,,,,,,,,,,,,,,,,,,,,,,,,,,,
,,,,,,,,,,,,,,,,,612e1df9913c996adb2a42a6,64,2022-02-12_15h53.11.877,lexical_decision_task_DD_L3,2021.2.3,Win32,60.28090904,,,,,,,,,,,1.1946,1,,,,,,,,,,,,,,m,1,1.1946,,,,,,,,-0.484259247,0.056481468,0,0,0,,0,78,78,71,1,PIMPLE,HB,old,m,./images/PIMPLEHB.png,,,,,,,,,,,,,,,,,,,,,,,,,,,,,,,,,,,
,,,,,,,,,,,,,,,,,612e1df9913c996adb2a42a6,64,2022-02-12_15h53.11.877,lexical_decision_task_DD_L3,2021.2.3,Win32,60.28090904,,,,,,,,,,,0.521,1,,,,,,,,,,,,,,m,1,0.521,,,,,,,,-0.484259247,0.056481468,0,0,0,,0,79,79,7,1,PAINT,C,old,m,./images/PAINT.png,,,,,,,,,,,,,,,,,,,,,,,,,,,,,,,,,,,
,,,,,,,,,,,,,,,,,612e1df9913c996adb2a42a6,64,2022-02-12_15h53.11.877,lexical_decision_task_DD_L3,2021.2.3,Win32,60.28090904,,,,,,,,,,,0.5691,1,,,,,,,,,,,,,,m,1,0.5691,,,,,,,,-0.484259247,0.056481468,0,0,0,,0,80,80,60,1,TWINS,LB,old,m,./images/TWINSLB.png,,,,,,,,,,,,,,,,,,,,,,,,,,,,,,,,,,,
,,,,,,,,,,,,,,,,,612e1df9913c996adb2a42a6,64,2022-02-12_15h53.11.877,lexical_decision_task_DD_L3,2021.2.3,Win32,60.28090904,,,,,,,,,,,0.6809,1,,,,,,,,,,,,,,z,1,0.6809,,,,,,,,-0.484259247,0.056481468,0,0,0,,0,81,81,131,1,NACES,LB,old,z,./images/NACESLB.png,,,,,,,,,,,,,,,,,,,,,,,,,,,,,,,,,,,
,,,,,,,,,,,,,,,,,612e1df9913c996adb2a42a6,64,2022-02-12_15h53.11.877,lexical_decision_task_DD_L3,2021.2.3,Win32,60.28090904,,,,,,,,,,,0.88,1,,,,,,,,,,,,,,z,1,0.88,,,,,,,,-0.484259247,0.056481468,0,0,0,,0,82,82,93,1,SMONE,C,old,z,./images/SMONE.png,,,,,,,,,,,,,,,,,,,,,,,,,,,,,,,,,,,
,,,,,,,,,,,,,,,,,612e1df9913c996adb2a42a6,64,2022-02-12_15h53.11.877,lexical_decision_task_DD_L3,2021.2.3,Win32,60.28090904,,,,,,,,,,,0.6679,1,,,,,,,,,,,,,,z,1,0.6679,,,,,,,,-0.484259247,0.056481468,0,0,0,space,0,83,83,126,1,GUELS,C,old,z,./images/GUELS.png,1.6334,,,,,,,,,,,,,,,,,,,,,,,,,,,,,,,,,,
,,,,,,,,,,,,,,,,,612e1df9913c996adb2a42a6,64,2022-02-12_15h53.11.877,lexical_decision_task_DD_L3,2021.2.3,Win32,60.28090904,,,,,,,,,,,0.571,1,,,,,,,,,,,,,,m,1,0.571,,,,,,,,-0.484259247,0.056481468,0,0,0,,0,84,84,0,1,TOMATO,LB,old,m,./images/TOMATOLB.png,,,,,,,,,,,,,,,,,,,,,,,,,,,,,,,,,,,
,,,,,,,,,,,,,,,,,612e1df9913c996adb2a42a6,64,2022-02-12_15h53.11.877,lexical_decision_task_DD_L3,2021.2.3,Win32,60.28090904,,,,,,,,,,,0.7819,1,,,,,,,,,,,,,,m,1,0.7819,,,,,,,,-0.484259247,0.056481468,0,0,0,,0,85,85,22,1,MELON,C,old,m,./images/MELON.png,,,,,,,,,,,,,,,,,,,,,,,,,,,,,,,,,,,
,,,,,,,,,,,,,,,,,612e1df9913c996adb2a42a6,64,2022-02-12_15h53.11.877,lexical_decision_task_DD_L3,2021.2.3,Win32,60.28090904,,,,,,,,,,,0.9832,1,,,,,,,,,,,,,,z,1,0.9832,,,,,,,,-0.484259247,0.056481468,0,0,0,,0,86,86,142,1,PLASK,HB,old,z,./images/PLASKHB.png,,,,,,,,,,,,,,,,,,,,,,,,,,,,,,,,,,,
,,,,,,,,,,,,,,,,,612e1df9913c996adb2a42a6,64,2022-02-12_15h53.11.877,lexical_decision_task_DD_L3,2021.2.3,Win32,60.28090904,,,,,,,,,,,1.3205,1,,,,,,,,,,,,,,m,1,1.3205,,,,,,,,-0.484259247,0.056481468,0,0,0,,0,87,87,43,1,MOSQUE,C,old,m,./images/MOSQUE.png,,,,,,,,,,,,,,,,,,,,,,,,,,,,,,,,,,,
,,,,,,,,,,,,,,,,,612e1df9913c996adb2a42a6,64,2022-02-12_15h53.11.877,lexical_decision_task_DD_L3,2021.2.3,Win32,60.28090904,,,,,,,,,,,0.7812,1,,,,,,,,,,,,,,z,1,0.7812,,,,,,,,-0.484259247,0.056481468,0,0,0,,0,88,88,101,1,GLEET,LB,old,z,./images/GLEETLB.png,,,,,,,,,,,,,,,,,,,,,,,,,,,,,,,,,,,
,,,,,,,,,,,,,,,,,612e1df9913c996adb2a42a6,64,2022-02-12_15h53.11.877,lexical_decision_task_DD_L3,2021.2.3,Win32,60.28090904,,,,,,,,,,,0.7778,1,,,,,,,,,,,,,,m,1,0.7778,,,,,,,,-0.484259247,0.056481468,0,0,0,,0,89,89,31,1,QUILL,C,old,m,./images/QUILL.png,,,,,,,,,,,,,,,,,,,,,,,,,,,,,,,,,,,
,,,,,,,,,,,,,,,,,612e1df9913c996adb2a42a6,64,2022-02-12_15h53.11.877,lexical_decision_task_DD_L3,2021.2.3,Win32,60.28090904,,,,,,,,,,,0.4772,1,,,,,,,,,,,,,,m,1,0.4772,,,,,,,,-0.484259247,0.056481468,0,0,0,,0,90,90,48,1,SPORT,LB,old,m,./images/SPORTLB.png,,,,,,,,,,,,,,,,,,,,,,,,,,,,,,,,,,,
,,,,,,,,,,,,,,,,,612e1df9913c996adb2a42a6,64,2022-02-12_15h53.11.877,lexical_decision_task_DD_L3,2021.2.3,Win32,60.28090904,,,,,,,,,,,0.5853,1,,,,,,,,,,,,,,m,1,0.5853,,,,,,,,-0.484259247,0.056481468,0,0,0,,0,91,91,82,1,SUNSET,C,old,m,./images/SUNSET.png,,,,,,,,,,,,,,,,,,,,,,,,,,,,,,,,,,,
,,,,,,,,,,,,,,,,,612e1df9913c996adb2a42a6,64,2022-02-12_15h53.11.877,lexical_decision_task_DD_L3,2021.2.3,Win32,60.28090904,,,,,,,,,,,0.7348,1,,,,,,,,,,,,,,m,1,0.7348,,,,,,,,-0.484259247,0.056481468,0,0,0,,0,92,92,2,1,BEARD,HB,old,m,./images/BEARDHB.png,,,,,,,,,,,,,,,,,,,,,,,,,,,,,,,,,,,
,,,,,,,,,,,,,,,,,612e1df9913c996adb2a42a6,64,2022-02-12_15h53.11.877,lexical_decision_task_DD_L3,2021.2.3,Win32,60.28090904,,,,,,,,,,,0.7321,1,,,,,,,,,,,,,,m,1,0.7321,,,,,,,,-0.484259247,0.056481468,0,0,0,,0,93,93,14,1,PICKLE,HB,old,m,./images/PICKLEHB.png,,,,,,,,,,,,,,,,,,,,,,,,,,,,,,,,,,,
,,,,,,,,,,,,,,,,,612e1df9913c996adb2a42a6,64,2022-02-12_15h53.11.877,lexical_decision_task_DD_L3,2021.2.3,Win32,60.28090904,,,,,,,,,,,0.4785,1,,,,,,,,,,,,,,m,1,0.4785,,,,,,,,-0.484259247,0.056481468,0,0,0,,0,94,94,37,1,BIRTH,C,old,m,./images/BIRTH.png,,,,,,,,,,,,,,,,,,,,,,,,,,,,,,,,,,,
,,,,,,,,,,,,,,,,,612e1df9913c996adb2a42a6,64,2022-02-12_15h53.11.877,lexical_decision_task_DD_L3,2021.2.3,Win32,60.28090904,,,,,,,,,,,0.5364,1,,,,,,,,,,,,,,m,1,0.5364,,,,,,,,-0.484259247,0.056481468,0,0,0,,0,95,95,21,1,KIDNEY,LB,old,m,./images/KIDNEYLB.png,,,,,,,,,,,,,,,,,,,,,,,,,,,,,,,,,,,
,,,,,,,,,,,,,,,,,612e1df9913c996adb2a42a6,64,2022-02-12_15h53.11.877,lexical_decision_task_DD_L3,2021.2.3,Win32,60.28090904,,,,,,,,,,,0.9691,1,,,,,,,,,,,,,,z,1,0.9691,,,,,,,,-0.484259247,0.056481468,0,0,0,,0,96,96,140,1,DOVET,LB,old,z,./images/DOVETLB.png,,,,,,,,,,,,,,,,,,,,,,,,,,,,,,,,,,,
,,,,,,,,,,,,,,,,,612e1df9913c996adb2a42a6,64,2022-02-12_15h53.11.877,lexical_decision_task_DD_L3,2021.2.3,Win32,60.28090904,,,,,,,,,,,1.6786,1,,,,,,,,,,,,,,z,1,1.6786,,,,,,,,-0.484259247,0.056481468,0,0,0,,0,97,97,165,1,TROWN,C,old,z,./images/TROWN.png,,,,,,,,,,,,,,,,,,,,,,,,,,,,,,,,,,,
,,,,,,,,,,,,,,,,,612e1df9913c996adb2a42a6,64,2022-02-12_15h53.11.877,lexical_decision_task_DD_L3,2021.2.3,Win32,60.28090904,,,,,,,,,,,0.7354,1,,,,,,,,,,,,,,m,1,0.7354,,,,,,,,-0.484259247,0.056481468,0,0,0,,0,98,98,80,1,WEASEL,HB,old,m,./images/WEASELHB.png,,,,,,,,,,,,,,,,,,,,,,,,,,,,,,,,,,,
,,,,,,,,,,,,,,,,,612e1df9913c996adb2a42a6,64,2022-02-12_15h53.11.877,lexical_decision_task_DD_L3,2021.2.3,Win32,60.28090904,,,,,,,,,,,1.449,1,,,,,,,,,,,,,,z,1,1.449,,,,,,,,-0.484259247,0.056481468,0,0,0,,0,99,99,154,1,THINT,HB,old,z,./images/THINTHB.png,,,,,,,,,,,,,,,,,,,,,,,,,,,,,,,,,,,
,,,,,,,,,,,,,,,,,612e1df9913c996adb2a42a6,64,2022-02-12_15h53.11.877,lexical_decision_task_DD_L3,2021.2.3,Win32,60.28090904,,,,,,,,,,,0.6693,1,,,,,,,,,,,,,,z,1,0.6693,,,,,,,,-0.484259247,0.056481468,0,0,0,,0,100,100,111,1,HOSSE,C,old,z,./images/HOSSE.png,,,,,,,,,,,,,,,,,,,,,,,,,,,,,,,,,,,
,,,,,,,,,,,,,,,,,612e1df9913c996adb2a42a6,64,2022-02-12_15h53.11.877,lexical_decision_task_DD_L3,2021.2.3,Win32,60.28090904,,,,,,,,,,,0.7687,1,,,,,,,,,,,,,,z,1,0.7687,,,,,,,,-0.484259247,0.056481468,0,0,0,,0,101,101,143,1,MONGS,LB,old,z,./images/MONGSLB.png,,,,,,,,,,,,,,,,,,,,,,,,,,,,,,,,,,,
,,,,,,,,,,,,,,,,,612e1df9913c996adb2a42a6,64,2022-02-12_15h53.11.877,lexical_decision_task_DD_L3,2021.2.3,Win32,60.28090904,,,,,,,,,,,1.1688,1,,,,,,,,,,,,,,m,1,1.1688,,,,,,,,-0.484259247,0.056481468,0,0,0,,0,102,102,44,1,LIZARD,HB,old,m,./images/LIZARDHB.png,,,,,,,,,,,,,,,,,,,,,,,,,,,,,,,,,,,
,,,,,,,,,,,,,,,,,612e1df9913c996adb2a42a6,64,2022-02-12_15h53.11.877,lexical_decision_task_DD_L3,2021.2.3,Win32,60.28090904,,,,,,,,,,,0.615,1,,,,,,,,,,,,,,m,1,0.615,,,,,,,,-0.484259247,0.056481468,0,0,0,,0,103,103,33,1,MAGGOT,LB,old,m,./images/MAGGOTLB.png,,,,,,,,,,,,,,,,,,,,,,,,,,,,,,,,,,,
,,,,,,,,,,,,,,,,,612e1df9913c996adb2a42a6,64,2022-02-12_15h53.11.877,lexical_decision_task_DD_L3,2021.2.3,Win32,60.28090904,,,,,,,,,,,1.3626,1,,,,,,,,,,,,,,z,1,1.3626,,,,,,,,-0.484259247,0.056481468,0,0,0,,0,104,104,151,1,TINKY,HB,old,z,./images/TINKYHB.png,,,,,,,,,,,,,,,,,,,,,,,,,,,,,,,,,,,
,,,,,,,,,,,,,,,,,612e1df9913c996adb2a42a6,64,2022-02-12_15h53.11.877,lexical_decision_task_DD_L3,2021.2.3,Win32,60.28090904,,,,,,,,,,,0.6909,1,,,,,,,,,,,,,,m,1,0.6909,,,,,,,,-0.484259247,0.056481468,0,0,0,,0,105,105,53,1,CARPET,HB,old,m,./images/CARPETHB.png,,,,,,,,,,,,,,,,,,,,,,,,,,,,,,,,,,,
,,,,,,,,,,,,,,,,,612e1df9913c996adb2a42a6,64,2022-02-12_15h53.11.877,lexical_decision_task_DD_L3,2021.2.3,Win32,60.28090904,,,,,,,,,,,0.7149,1,,,,,,,,,,,,,,z,1,0.7149,,,,,,,,-0.484259247,0.056481468,0,0,0,,0,106,106,87,1,TRING,C,old,z,./images/TRING.png,,,,,,,,,,,,,,,,,,,,,,,,,,,,,,,,,,,
,,,,,,,,,,,,,,,,,612e1df9913c996adb2a42a6,64,2022-02-12_15h53.11.877,lexical_decision_task_DD_L3,2021.2.3,Win32,60.28090904,,,,,,,,,,,0.6469,1,,,,,,,,,,,,,,z,1,0.6469,,,,,,,,-0.484259247,0.056481468,0,0,0,,0,107,107,162,1,LEICH,C,old,z,./images/LEICH.png,,,,,,,,,,,,,,,,,,,,,,,,,,,,,,,,,,,
,,,,,,,,,,,,,,,,,612e1df9913c996adb2a42a6,64,2022-02-12_15h53.11.877,lexical_decision_task_DD_L3,2021.2.3,Win32,60.28090904,,,,,,,,,,,0.6914,1,,,,,,,,,,,,,,z,1,0.6914,,,,,,,,-0.484259247,0.056481468,0,0,0,,0,108,108,132,1,SCIFF,C,old,z,./images/SCIFF.png,,,,,,,,,,,,,,,,,,,,,,,,,,,,,,,,,,,
,,,,,,,,,,,,,,,,,612e1df9913c996adb2a42a6,64,2022-02-12_15h53.11.877,lexical_decision_task_DD_L3,2021.2.3,Win32,60.28090904,,,,,,,,,,,1.3338,1,,,,,,,,,,,,,,m,1,1.3338,,,,,,,,-0.484259247,0.056481468,0,0,0,,0,109,109,50,1,MALLET,HB,old,m,./images/MALLETHB.png,,,,,,,,,,,,,,,,,,,,,,,,,,,,,,,,,,,
,,,,,,,,,,,,,,,,,612e1df9913c996adb2a42a6,64,2022-02-12_15h53.11.877,lexical_decision_task_DD_L3,2021.2.3,Win32,60.28090904,,,,,,,,,,,0.7039,1,,,,,,,,,,,,,,z,1,0.7039,,,,,,,,-0.484259247,0.056481468,0,0,0,,0,110,110,125,1,MOOKY,LB,old,z,./images/MOOKYLB.png,,,,,,,,,,,,,,,,,,,,,,,,,,,,,,,,,,,
,,,,,,,,,,,,,,,,,612e1df9913c996adb2a42a6,64,2022-02-12_15h53.11.877,lexical_decision_task_DD_L3,2021.2.3,Win32,60.28090904,,,,,,,,,,,1.6995,1,,,,,,,,,,,,,,z,1,1.6995,,,,,,,,-0.484259247,0.056481468,0,0,0,,0,111,111,133,1,POWDY,HB,old,z,./images/POWDYHB.png,,,,,,,,,,,,,,,,,,,,,,,,,,,,,,,,,,,
,,,,,,,,,,,,,,,,,612e1df9913c996adb2a42a6,64,2022-02-12_15h53.11.877,lexical_decision_task_DD_L3,2021.2.3,Win32,60.28090904,,,,,,,,,,,0.5118,1,,,,,,,,,,,,,,m,1,0.5118,,,,,,,,-0.484259247,0.056481468,0,0,0,,0,112,112,1,1,PLANK,C,old,m,./images/PLANK.png,,,,,,,,,,,,,,,,,,,,,,,,,,,,,,,,,,,
,,,,,,,,,,,,,,,,,612e1df9913c996adb2a42a6,64,2022-02-12_15h53.11.877,lexical_decision_task_DD_L3,2021.2.3,Win32,60.28090904,,,,,,,,,,,0.6602,1,,,,,,,,,,,,,,z,1,0.6602,,,,,,,,-0.484259247,0.056481468,0,0,0,,0,113,113,119,1,PAFER,LB,old,z,./images/PAFERLB.png,,,,,,,,,,,,,,,,,,,,,,,,,,,,,,,,,,,
,,,,,,,,,,,,,,,,,612e1df9913c996adb2a42a6,64,2022-02-12_15h53.11.877,lexical_decision_task_DD_L3,2021.2.3,Win32,60.28090904,,,,,,,,,,,0.5953,1,,,,,,,,,,,,,,z,1,0.5953,,,,,,,,-0.484259247,0.056481468,0,0,0,,0,114,114,117,1,STEEG,C,old,z,./images/STEEG.png,,,,,,,,,,,,,,,,,,,,,,,,,,,,,,,,,,,
,,,,,,,,,,,,,,,,,612e1df9913c996adb2a42a6,64,2022-02-12_15h53.11.877,lexical_decision_task_DD_L3,2021.2.3,Win32,60.28090904,,,,,,,,,,,0.6968,1,,,,,,,,,,,,,,m,1,0.6968,,,,,,,,-0.484259247,0.056481468,0,0,0,,0,115,115,64,1,JELLY,C,old,m,./images/JELLY.png,,,,,,,,,,,,,,,,,,,,,,,,,,,,,,,,,,,
,,,,,,,,,,,,,,,,,612e1df9913c996adb2a42a6,64,2022-02-12_15h53.11.877,lexical_decision_task_DD_L3,2021.2.3,Win32,60.28090904,,,,,,,,,,,0.5496,1,,,,,,,,,,,,,,m,1,0.5496,,,,,,,,-0.484259247,0.056481468,0,0,0,,0,116,116,75,1,GRAIN,LB,old,m,./images/GRAINLB.png,,,,,,,,,,,,,,,,,,,,,,,,,,,,,,,,,,,
,,,,,,,,,,,,,,,,,612e1df9913c996adb2a42a6,64,2022-02-12_15h53.11.877,lexical_decision_task_DD_L3,2021.2.3,Win32,60.28090904,,,,,,,,,,,0.626,1,,,,,,,,,,,,,,z,1,0.626,,,,,,,,-0.484259247,0.056481468,0,0,0,,0,117,117,86,1,AIFED,LB,old,z,./images/AIFEDLB.png,,,,,,,,,,,,,,,,,,,,,,,,,,,,,,,,,,,
,,,,,,,,,,,,,,,,,612e1df9913c996adb2a42a6,64,2022-02-12_15h53.11.877,lexical_decision_task_DD_L3,2021.2.3,Win32,60.28090904,,,,,,,,,,,0.582,1,,,,,,,,,,,,,,m,1,0.582,,,,,,,,-0.484259247,0.056481468,0,0,0,,0,118,118,10,1,BELLY,C,old,m,./images/BELLY.png,,,,,,,,,,,,,,,,,,,,,,,,,,,,,,,,,,,
,,,,,,,,,,,,,,,,,612e1df9913c996adb2a42a6,64,2022-02-12_15h53.11.877,lexical_decision_task_DD_L3,2021.2.3,Win32,60.28090904,,,,,,,,,,,0.5693,1,,,,,,,,,,,,,,m,1,0.5693,,,,,,,,-0.484259247,0.056481468,0,0,0,,0,119,119,76,1,INFANT,C,old,m,./images/INFANT.png,,,,,,,,,,,,,,,,,,,,,,,,,,,,,,,,,,,
,,,,,,,,,,,,,,,,,612e1df9913c996adb2a42a6,64,2022-02-12_15h53.11.877,lexical_decision_task_DD_L3,2021.2.3,Win32,60.28090904,,,,,,,,,,,0.8974,1,,,,,,,,,,,,,,z,1,0.8974,,,,,,,,-0.484259247,0.056481468,0,0,0,,0,120,120,94,1,BLANS,HB,old,z,./images/BLANSHB.png,,,,,,,,,,,,,,,,,,,,,,,,,,,,,,,,,,,
,,,,,,,,,,,,,,,,,612e1df9913c996adb2a42a6,64,2022-02-12_15h53.11.877,lexical_decision_task_DD_L3,2021.2.3,Win32,60.28090904,,,,,,,,,,,0.6458,1,,,,,,,,,,,,,,m,1,0.6458,,,,,,,,-0.484259247,0.056481468,0,0,0,,0,121,121,24,1,SCREW,LB,old,m,./images/SCREWLB.png,,,,,,,,,,,,,,,,,,,,,,,,,,,,,,,,,,,
,,,,,,,,,,,,,,,,,612e1df9913c996adb2a42a6,64,2022-02-12_15h53.11.877,lexical_decision_task_DD_L3,2021.2.3,Win32,60.28090904,,,,,,,,,,,0.5885,1,,,,,,,,,,,,,,z,1,0.5885,,,,,,,,-0.484259247,0.056481468,0,0,0,,0,122,122,137,1,JOOST,LB,old,z,./images/JOOSTLB.png,,,,,,,,,,,,,,,,,,,,,,,,,,,,,,,,,,,
,,,,,,,,,,,,,,,,,612e1df9913c996adb2a42a6,64,2022-02-12_15h53.11.877,lexical_decision_task_DD_L3,2021.2.3,Win32,60.28090904,,,,,,,,,,,0.7809,1,,,,,,,,,,,,,,m,1,0.7809,,,,,,,,-0.484259247,0.056481468,0,0,0,,0,123,123,47,1,BERRY,HB,old,m,./images/BERRYHB.png,,,,,,,,,,,,,,,,,,,,,,,,,,,,,,,,,,,
,,,,,,,,,,,,,,,,,612e1df9913c996adb2a42a6,64,2022-02-12_15h53.11.877,lexical_decision_task_DD_L3,2021.2.3,Win32,60.28090904,,,,,,,,,,,0.5179,1,,,,,,,,,,,,,,m,1,0.5179,,,,,,,,-0.484259247,0.056481468,0,0,0,,0,124,124,13,1,MOTOR,C,old,m,./images/MOTOR.png,,,,,,,,,,,,,,,,,,,,,,,,,,,,,,,,,,,
,,,,,,,,,,,,,,,,,612e1df9913c996adb2a42a6,64,2022-02-12_15h53.11.877,lexical_decision_task_DD_L3,2021.2.3,Win32,60.28090904,,,,,,,,,,,0.6831,1,,,,,,,,,,,,,,z,1,0.6831,,,,,,,,-0.484259247,0.056481468,0,0,0,space,0,125,125,112,1,MYING,HB,old,z,./images/MYINGHB.png,183.7537,,,,,,,,,,,,,,,,,,,,,,,,,,,,,,,,,,
,,,,,,,,,,,,,,,,,612e1df9913c996adb2a42a6,64,2022-02-12_15h53.11.877,lexical_decision_task_DD_L3,2021.2.3,Win32,60.28090904,,,,,,,,,,,0.7627,1,,,,,,,,,,,,,,m,1,0.7627,,,,,,,,-0.484259247,0.056481468,0,0,0,,0,126,126,29,1,CRUMB,HB,old,m,./images/CRUMBHB.png,,,,,,,,,,,,,,,,,,,,,,,,,,,,,,,,,,,
,,,,,,,,,,,,,,,,,612e1df9913c996adb2a42a6,64,2022-02-12_15h53.11.877,lexical_decision_task_DD_L3,2021.2.3,Win32,60.28090904,,,,,,,,,,,0.6482,1,,,,,,,,,,,,,,z,1,0.6482,,,,,,,,-0.484259247,0.056481468,0,0,0,,0,127,127,108,1,GRUET,C,old,z,./images/GRUET.png,,,,,,,,,,,,,,,,,,,,,,,,,,,,,,,,,,,
,,,,,,,,,,,,,,,,,612e1df9913c996adb2a42a6,64,2022-02-12_15h53.11.877,lexical_decision_task_DD_L3,2021.2.3,Win32,60.28090904,,,,,,,,,,,0.6859,1,,,,,,,,,,,,,,m,1,0.6859,,,,,,,,-0.484259247,0.056481468,0,0,0,,0,128,128,54,1,TRIPOD,LB,old,m,./images/TRIPODLB.png,,,,,,,,,,,,,,,,,,,,,,,,,,,,,,,,,,,
,,,,,,,,,,,,,,,,,612e1df9913c996adb2a42a6,64,2022-02-12_15h53.11.877,lexical_decision_task_DD_L3,2021.2.3,Win32,60.28090904,,,,,,,,,,,0.8351,1,,,,,,,,,,,,,,z,1,0.8351,,,,,,,,-0.484259247,0.056481468,0,0,0,,0,129,129,118,1,BAVEL,HB,old,z,./images/BAVELHB.png,,,,,,,,,,,,,,,,,,,,,,,,,,,,,,,,,,,
,,,,,,,,,,,,,,,,,612e1df9913c996adb2a42a6,64,2022-02-12_15h53.11.877,lexical_decision_task_DD_L3,2021.2.3,Win32,60.28090904,,,,,,,,,,,0.7517,1,,,,,,,,,,,,,,m,1,0.7517,,,,,,,,-0.484259247,0.056481468,0,0,0,,0,130,130,59,1,BURIAL,HB,old,m,./images/BURIALHB.png,,,,,,,,,,,,,,,,,,,,,,,,,,,,,,,,,,,
,,,,,,,,,,,,,,,,,612e1df9913c996adb2a42a6,64,2022-02-12_15h53.11.877,lexical_decision_task_DD_L3,2021.2.3,Win32,60.28090904,,,,,,,,,,,0.5451,1,,,,,,,,,,,,,,z,1,0.5451,,,,,,,,-0.484259247,0.056481468,0,0,0,,0,131,131,102,1,DULLE,C,old,z,./images/DULLE.png,,,,,,,,,,,,,,,,,,,,,,,,,,,,,,,,,,,
,,,,,,,,,,,,,,,,,612e1df9913c996adb2a42a6,64,2022-02-12_15h53.11.877,lexical_decision_task_DD_L3,2021.2.3,Win32,60.28090904,,,,,,,,,,,0.976,1,,,,,,,,,,,,,,m,1,0.976,,,,,,,,-0.484259247,0.056481468,0,0,0,,0,132,132,5,1,PASTA,HB,old,m,./images/PASTAHB.png,,,,,,,,,,,,,,,,,,,,,,,,,,,,,,,,,,,
,,,,,,,,,,,,,,,,,612e1df9913c996adb2a42a6,64,2022-02-12_15h53.11.877,lexical_decision_task_DD_L3,2021.2.3,Win32,60.28090904,,,,,,,,,,,0.5683,1,,,,,,,,,,,,,,m,1,0.5683,,,,,,,,-0.484259247,0.056481468,0,0,0,,0,133,133,19,1,DOUGH,C,old,m,./images/DOUGH.png,,,,,,,,,,,,,,,,,,,,,,,,,,,,,,,,,,,
,,,,,,,,,,,,,,,,,612e1df9913c996adb2a42a6,64,2022-02-12_15h53.11.877,lexical_decision_task_DD_L3,2021.2.3,Win32,60.28090904,,,,,,,,,,,0.7303,1,,,,,,,,,,,,,,z,1,0.7303,,,,,,,,-0.484259247,0.056481468,0,0,0,,0,134,134,130,1,CRILL,HB,old,z,./images/CRILLHB.png,,,,,,,,,,,,,,,,,,,,,,,,,,,,,,,,,,,
,,,,,,,,,,,,,,,,,612e1df9913c996adb2a42a6,64,2022-02-12_15h53.11.877,lexical_decision_task_DD_L3,2021.2.3,Win32,60.28090904,,,,,,,,,,,0.5499,1,,,,,,,,,,,,,,m,1,0.5499,,,,,,,,-0.484259247,0.056481468,0,0,0,,0,135,135,55,1,MUFFIN,C,old,m,./images/MUFFIN.png,,,,,,,,,,,,,,,,,,,,,,,,,,,,,,,,,,,
,,,,,,,,,,,,,,,,,612e1df9913c996adb2a42a6,64,2022-02-12_15h53.11.877,lexical_decision_task_DD_L3,2021.2.3,Win32,60.28090904,,,,,,,,,,,0.6203,1,,,,,,,,,,,,,,z,1,0.6203,,,,,,,,-0.484259247,0.056481468,0,0,0,,0,136,136,161,1,BLAPS,LB,old,z,./images/BLAPSLB.png,,,,,,,,,,,,,,,,,,,,,,,,,,,,,,,,,,,
,,,,,,,,,,,,,,,,,612e1df9913c996adb2a42a6,64,2022-02-12_15h53.11.877,lexical_decision_task_DD_L3,2021.2.3,Win32,60.28090904,,,,,,,,,,,3.2332,1,,,,,,,,,,,,,,z,1,3.2332,,,,,,,,-0.484259247,0.056481468,0,0,0,,0,137,137,145,1,LAMEL,HB,old,z,./images/LAMELHB.png,,,,,,,,,,,,,,,,,,,,,,,,,,,,,,,,,,,
,,,,,,,,,,,,,,,,,612e1df9913c996adb2a42a6,64,2022-02-12_15h53.11.877,lexical_decision_task_DD_L3,2021.2.3,Win32,60.28090904,,,,,,,,,,,0.6921,1,,,,,,,,,,,,,,z,1,0.6921,,,,,,,,-0.484259247,0.056481468,0,0,0,,0,138,138,129,1,PRANS,C,old,z,./images/PRANS.png,,,,,,,,,,,,,,,,,,,,,,,,,,,,,,,,,,,
,,,,,,,,,,,,,,,,,612e1df9913c996adb2a42a6,64,2022-02-12_15h53.11.877,lexical_decision_task_DD_L3,2021.2.3,Win32,60.28090904,,,,,,,,,,,1.4796,1,,,,,,,,,,,,,,z,1,1.4796,,,,,,,,-0.484259247,0.056481468,0,0,0,,0,139,139,114,1,RIKES,C,old,z,./images/RIKES.png,,,,,,,,,,,,,,,,,,,,,,,,,,,,,,,,,,,
,,,,,,,,,,,,,,,,,612e1df9913c996adb2a42a6,64,2022-02-12_15h53.11.877,lexical_decision_task_DD_L3,2021.2.3,Win32,60.28090904,,,,,,,,,,,0.8398,1,,,,,,,,,,,,,,m,1,0.8398,,,,,,,,-0.484259247,0.056481468,0,0,0,,0,140,140,11,1,BONNET,HB,old,m,./images/BONNETHB.png,,,,,,,,,,,,,,,,,,,,,,,,,,,,,,,,,,,
,,,,,,,,,,,,,,,,,612e1df9913c996adb2a42a6,64,2022-02-12_15h53.11.877,lexical_decision_task_DD_L3,2021.2.3,Win32,60.28090904,,,,,,,,,,,0.5205,1,,,,,,,,,,,,,,z,1,0.5205,,,,,,,,-0.484259247,0.056481468,0,0,0,,0,141,141,123,1,SEDGE,C,old,z,./images/SEDGE.png,,,,,,,,,,,,,,,,,,,,,,,,,,,,,,,,,,,
,,,,,,,,,,,,,,,,,612e1df9913c996adb2a42a6,64,2022-02-12_15h53.11.877,lexical_decision_task_DD_L3,2021.2.3,Win32,60.28090904,,,,,,,,,,,0.6823,1,,,,,,,,,,,,,,m,1,0.6823,,,,,,,,-0.484259247,0.056481468,0,0,0,,0,142,142,12,1,SHORE,LB,old,m,./images/SHORELB.png,,,,,,,,,,,,,,,,,,,,,,,,,,,,,,,,,,,
,,,,,,,,,,,,,,,,,612e1df9913c996adb2a42a6,64,2022-02-12_15h53.11.877,lexical_decision_task_DD_L3,2021.2.3,Win32,60.28090904,,,,,,,,,,,0.9507,1,,,,,,,,,,,,,,m,1,0.9507,,,,,,,,-0.484259247,0.056481468,0,0,0,,0,143,143,78,1,LITTER,LB,old,m,./images/LITTERLB.png,,,,,,,,,,,,,,,,,,,,,,,,,,,,,,,,,,,
,,,,,,,,,,,,,,,,,612e1df9913c996adb2a42a6,64,2022-02-12_15h53.11.877,lexical_decision_task_DD_L3,2021.2.3,Win32,60.28090904,,,,,,,,,,,1.0811,1,,,,,,,,,,,,,,z,1,1.0811,,,,,,,,-0.484259247,0.056481468,0,0,0,,0,144,144,97,1,CHIDS,HB,old,z,./images/CHIDSHB.png,,,,,,,,,,,,,,,,,,,,,,,,,,,,,,,,,,,
,,,,,,,,,,,,,,,,,612e1df9913c996adb2a42a6,64,2022-02-12_15h53.11.877,lexical_decision_task_DD_L3,2021.2.3,Win32,60.28090904,,,,,,,,,,,0.7465,1,,,,,,,,,,,,,,z,1,0.7465,,,,,,,,-0.484259247,0.056481468,0,0,0,,0,145,145,149,1,VEASE,LB,old,z,./images/VEASELB.png,,,,,,,,,,,,,,,,,,,,,,,,,,,,,,,,,,,
,,,,,,,,,,,,,,,,,612e1df9913c996adb2a42a6,64,2022-02-12_15h53.11.877,lexical_decision_task_DD_L3,2021.2.3,Win32,60.28090904,,,,,,,,,,,0.753,1,,,,,,,,,,,,,,m,1,0.753,,,,,,,,-0.484259247,0.056481468,0,0,0,,0,146,146,4,1,MUSCLE,C,old,m,./images/MUSCLE.png,,,,,,,,,,,,,,,,,,,,,,,,,,,,,,,,,,,
,,,,,,,,,,,,,,,,,612e1df9913c996adb2a42a6,64,2022-02-12_15h53.11.877,lexical_decision_task_DD_L3,2021.2.3,Win32,60.28090904,,,,,,,,,,,0.8353,1,,,,,,,,,,,,,,m,1,0.8353,,,,,,,,-0.484259247,0.056481468,0,0,0,,0,147,147,35,1,PEACH,HB,old,m,./images/PEACHHB.png,,,,,,,,,,,,,,,,,,,,,,,,,,,,,,,,,,,
,,,,,,,,,,,,,,,,,612e1df9913c996adb2a42a6,64,2022-02-12_15h53.11.877,lexical_decision_task_DD_L3,2021.2.3,Win32,60.28090904,,,,,,,,,,,1.7346,1,,,,,,,,,,,,,,z,1,1.7346,,,,,,,,-0.484259247,0.056481468,0,0,0,,0,148,148,166,1,SHORY,HB,old,z,./images/SHORYHB.png,,,,,,,,,,,,,,,,,,,,,,,,,,,,,,,,,,,
,,,,,,,,,,,,,,,,,612e1df9913c996adb2a42a6,64,2022-02-12_15h53.11.877,lexical_decision_task_DD_L3,2021.2.3,Win32,60.28090904,,,,,,,,,,,5.7903,1,,,,,,,,,,,,,,z,1,5.7903,,,,,,,,-0.484259247,0.056481468,0,0,0,,0,149,149,159,1,CUDDY,C,old,z,./images/CUDDY.png,,,,,,,,,,,,,,,,,,,,,,,,,,,,,,,,,,,
,,,,,,,,,,,,,,,,,612e1df9913c996adb2a42a6,64,2022-02-12_15h53.11.877,lexical_decision_task_DD_L3,2021.2.3,Win32,60.28090904,,,,,,,,,,,0.7694,1,,,,,,,,,,,,,,z,1,0.7694,,,,,,,,-0.484259247,0.056481468,0,0,0,,0,150,150,152,1,FRAIN,LB,old,z,./images/FRAINLB.png,,,,,,,,,,,,,,,,,,,,,,,,,,,,,,,,,,,
,,,,,,,,,,,,,,,,,612e1df9913c996adb2a42a6,64,2022-02-12_15h53.11.877,lexical_decision_task_DD_L3,2021.2.3,Win32,60.28090904,,,,,,,,,,,0.7659,1,,,,,,,,,,,,,,z,1,0.7659,,,,,,,,-0.484259247,0.056481468,0,0,0,,0,151,151,147,1,ZOLES,C,old,z,./images/ZOLES.png,,,,,,,,,,,,,,,,,,,,,,,,,,,,,,,,,,,
,,,,,,,,,,,,,,,,,612e1df9913c996adb2a42a6,64,2022-02-12_15h53.11.877,lexical_decision_task_DD_L3,2021.2.3,Win32,60.28090904,,,,,,,,,,,1.0483,1,,,,,,,,,,,,,,m,1,1.0483,,,,,,,,-0.484259247,0.056481468,0,0,0,,0,152,152,26,1,SMOKER,HB,old,m,./images/SMOKERHB.png,,,,,,,,,,,,,,,,,,,,,,,,,,,,,,,,,,,
,,,,,,,,,,,,,,,,,612e1df9913c996adb2a42a6,64,2022-02-12_15h53.11.877,lexical_decision_task_DD_L3,2021.2.3,Win32,60.28090904,,,,,,,,,,,0.7019,1,,,,,,,,,,,,,,m,1,0.7019,,,,,,,,-0.484259247,0.056481468,0,0,0,,0,153,153,18,1,JAGUAR,LB,old,m,./images/JAGUARLB.png,,,,,,,,,,,,,,,,,,,,,,,,,,,,,,,,,,,
,,,,,,,,,,,,,,,,,612e1df9913c996adb2a42a6,64,2022-02-12_15h53.11.877,lexical_decision_task_DD_L3,2021.2.3,Win32,60.28090904,,,,,,,,,,,0.8154,1,,,,,,,,,,,,,,m,1,0.8154,,,,,,,,-0.484259247,0.056481468,0,0,0,,0,154,154,23,1,WALRUS,HB,old,m,./images/WALRUSHB.png,,,,,,,,,,,,,,,,,,,,,,,,,,,,,,,,,,,
,,,,,,,,,,,,,,,,,612e1df9913c996adb2a42a6,64,2022-02-12_15h53.11.877,lexical_decision_task_DD_L3,2021.2.3,Win32,60.28090904,,,,,,,,,,,7.562,0,,,,,,,,,,,,,,z,0,7.562,,,,,,,,-0.484259247,0.056481468,0,0,0,,0,155,155,16,1,PENCE,C,old,m,./images/PENCE.png,,,,,,,,,,,,,,,,,,,,,,,,,,,,,,,,,,,
,,,,,,,,,,,,,,,,,612e1df9913c996adb2a42a6,64,2022-02-12_15h53.11.877,lexical_decision_task_DD_L3,2021.2.3,Win32,60.28090904,,,,,,,,,,,0.8179,1,,,,,,,,,,,,,,z,1,0.8179,,,,,,,,-0.484259247,0.056481468,0,0,0,,0,156,156,84,1,HAXES,C,old,z,./images/HAXES.png,,,,,,,,,,,,,,,,,,,,,,,,,,,,,,,,,,,
,,,,,,,,,,,,,,,,,612e1df9913c996adb2a42a6,64,2022-02-12_15h53.11.877,lexical_decision_task_DD_L3,2021.2.3,Win32,60.28090904,,,,,,,,,,,1.3432,1,,,,,,,,,,,,,,z,1,1.3432,,,,,,,,-0.484259247,0.056481468,0,0,0,,0,157,157,103,1,FLORT,HB,old,z,./images/FLORTHB.png,,,,,,,,,,,,,,,,,,,,,,,,,,,,,,,,,,,
,,,,,,,,,,,,,,,,,612e1df9913c996adb2a42a6,64,2022-02-12_15h53.11.877,lexical_decision_task_DD_L3,2021.2.3,Win32,60.28090904,,,,,,,,,,,2.4183,1,,,,,,,,,,,,,,z,1,2.4183,,,,,,,,-0.484259247,0.056481468,0,0,0,,0,158,158,88,1,GLUSH,HB,old,z,./images/GLUSHHB.png,,,,,,,,,,,,,,,,,,,,,,,,,,,,,,,,,,,
,,,,,,,,,,,,,,,,,612e1df9913c996adb2a42a6,64,2022-02-12_15h53.11.877,lexical_decision_task_DD_L3,2021.2.3,Win32,60.28090904,,,,,,,,,,,0.6984,1,,,,,,,,,,,,,,m,1,0.6984,,,,,,,,-0.484259247,0.056481468,0,0,0,,0,159,159,28,1,FALCON,C,old,m,./images/FALCON.png,,,,,,,,,,,,,,,,,,,,,,,,,,,,,,,,,,,
,,,,,,,,,,,,,,,,,612e1df9913c996adb2a42a6,64,2022-02-12_15h53.11.877,lexical_decision_task_DD_L3,2021.2.3,Win32,60.28090904,,,,,,,,,,,0.755,1,,,,,,,,,,,,,,m,1,0.755,,,,,,,,-0.484259247,0.056481468,0,0,0,,0,160,160,41,1,STRING,HB,old,m,./images/STRINGHB.png,,,,,,,,,,,,,,,,,,,,,,,,,,,,,,,,,,,
,,,,,,,,,,,,,,,,,612e1df9913c996adb2a42a6,64,2022-02-12_15h53.11.877,lexical_decision_task_DD_L3,2021.2.3,Win32,60.28090904,,,,,,,,,,,0.7468,1,,,,,,,,,,,,,,z,1,0.7468,,,,,,,,-0.484259247,0.056481468,0,0,0,,0,161,161,153,1,CLUPS,C,old,z,./images/CLUPS.png,,,,,,,,,,,,,,,,,,,,,,,,,,,,,,,,,,,
,,,,,,,,,,,,,,,,,612e1df9913c996adb2a42a6,64,2022-02-12_15h53.11.877,lexical_decision_task_DD_L3,2021.2.3,Win32,60.28090904,,,,,,,,,,,5.7162,0,,,,,,,,,,,,,,z,0,5.7162,,,,,,,,-0.484259247,0.056481468,0,0,0,,0,162,162,38,1,LADDER,HB,old,m,./images/LADDERHB.png,,,,,,,,,,,,,,,,,,,,,,,,,,,,,,,,,,,
,,,,,,,,,,,,,,,,,612e1df9913c996adb2a42a6,64,2022-02-12_15h53.11.877,lexical_decision_task_DD_L3,2021.2.3,Win32,60.28090904,,,,,,,,,,,0.7851,1,,,,,,,,,,,,,,z,1,0.7851,,,,,,,,-0.484259247,0.056481468,0,0,0,,0,163,163,127,1,NINDY,HB,old,z,./images/NINDYHB.png,,,,,,,,,,,,,,,,,,,,,,,,,,,,,,,,,,,
,,,,,,,,,,,,,,,,,612e1df9913c996adb2a42a6,64,2022-02-12_15h53.11.877,lexical_decision_task_DD_L3,2021.2.3,Win32,60.28090904,,,,,,,,,,,0.807,1,,,,,,,,,,,,,,z,1,0.807,,,,,,,,-0.484259247,0.056481468,0,0,0,,0,164,164,98,1,BAMPS,LB,old,z,./images/BAMPSLB.png,,,,,,,,,,,,,,,,,,,,,,,,,,,,,,,,,,,
,,,,,,,,,,,,,,,,,612e1df9913c996adb2a42a6,64,2022-02-12_15h53.11.877,lexical_decision_task_DD_L3,2021.2.3,Win32,60.28090904,,,,,,,,,,,2.1437,0,,,,,,,,,,,,,,m,0,2.1437,,,,,,,,-0.484259247,0.056481468,0,0,0,,0,165,165,141,1,PLEET,C,old,z,./images/PLEET.png,,,,,,,,,,,,,,,,,,,,,,,,,,,,,,,,,,,
,,,,,,,,,,,,,,,,,612e1df9913c996adb2a42a6,64,2022-02-12_15h53.11.877,lexical_decision_task_DD_L3,2021.2.3,Win32,60.28090904,,,,,,,,,,,0.6489,1,,,,,,,,,,,,,,m,1,0.6489,,,,,,,,-0.484259247,0.056481468,0,0,0,,0,166,166,27,1,ATTIC,LB,old,m,./images/ATTICLB.png,,,,,,,,,,,,,,,,,,,,,,,,,,,,,,,,,,,
,,,,,,,,,,,,,,,,,612e1df9913c996adb2a42a6,64,2022-02-12_15h53.11.877,lexical_decision_task_DD_L3,2021.2.3,Win32,60.28090904,,,,,,,,,,,0.8153,1,,,,,,,,,,,,,,z,1,0.8153,,,,,,,,-0.484259247,0.056481468,0,0,0,,0,167,167,120,1,RINED,C,old,z,./images/RINED.png,,,,,,,,,,,,,,,,,,,,,,,,,,,,,,,,,,,
,,,,,,,,,,,,,,,,,612e1df9913c996adb2a42a6,64,2022-02-12_15h53.11.877,lexical_decision_task_DD_L3,2021.2.3,Win32,60.28090904,,,,,,,,,,,,,,,,,,,,,,,,,,,,,,,,,,,,,,,,,,,,,,,,How likely will it be that you will recognize the words presented very blurred on a scale of 0 (not likely) to 100 (most likely)?,,,,,-0.002777751,-0.425925954,1,0,0,jol_adv,2,9.7677,0,0,0,2,1,,,,,,,,,,,,,,,,,,,,,
,,,,,,,,,,,,,,,,,612e1df9913c996adb2a42a6,64,2022-02-12_15h53.11.877,lexical_decision_task_DD_L3,2021.2.3,Win32,60.28090904,,,,,,,,,,,,,,,,,,,,,,,,,,,,,,,,,,,,,,,,,,,,,,,,How likely will it be that you will recognize the words presented slighly blurred on a scale of 0 (not likely) to 100 (most likely)?,,,,,,,,,,,2,5.1138,0,1,1,1,1,,,,,,,,,,,,,,,,,,,,,
,,,,,,,,,,,,,,,,,612e1df9913c996adb2a42a6,64,2022-02-12_15h53.11.877,lexical_decision_task_DD_L3,2021.2.3,Win32,60.28090904,,,,,,,,,,,,,,,,,,,,,,,,,,,,,,,,,,,,,,,,,,,,,,,,How likely will it be that you will recognize the words presented clearly on a scale of 0 (not likely) to 100 (most likely)?,,,,,,,,,,,2,9.0358,0,2,2,0,1,,,,,,,,,,,,,,,,,,,,,
space,379.0629,-0.294444427,-0.232407486,0,0,0,,,,,,1,test,"In the next phase you will be presented with the words from the the first phase. Your job is to decide whether you remember seeing the word or not. If you remember seeing the word press ""old"" or type ""m"". If you do not remember seeing the word press ""new"" or type ""z"". Please press the space bar or click on continue to begin. ",,,612e1df9913c996adb2a42a6,64,2022-02-12_15h53.11.877,lexical_decision_task_DD_L3,2021.2.3,Win32,60.28090904,,,,,,,,,,,,,,,,,,,,,,,,,,,,,,,,,,,,,,,,,,,,,,,,,,,,,,,,,,,,,,,,,,0,0,0,0,1,,,,,,,,,,,,,,,,
space,4.2974,-0.294444427,-0.232407486,0,0,0,,,,,,1,test,"In the next phase you will be presented with the words from the the first phase. Your job is to decide whether you remember seeing the word or not. If you remember seeing the word press ""old"" or type ""m"". If you do not remember seeing the word press ""new"" or type ""z"". Please press the space bar or click on continue to begin. ",,,612e1df9913c996adb2a42a6,64,2022-02-12_15h53.11.877,lexical_decision_task_DD_L3,2021.2.3,Win32,60.28090904,,,,,,,,,,,,,,,,,,,,,,,,,,,,,,,,,,,,,,,,,,,,,,,,,,,,,,,,,,,,,,,,,,1,0,1,0,1,,,,,,,,,,,,,,,,
,,-0.088888865,-0.372222248,1,0,0,,,,,,1,test,"In the next phase you will be presented with the words from the the first phase. Your job is to decide whether you remember seeing the word or not. If you remember seeing the word press ""old"" or type ""m"". If you do not remember seeing the word press ""new"" or type ""z"". Please press the space bar or click on continue to begin. ",,,612e1df9913c996adb2a42a6,64,2022-02-12_15h53.11.877,lexical_decision_task_DD_L3,2021.2.3,Win32,60.28090904,,,,,,,,,,,,,,,,,,,,,,,,,,,,,,,,,,,,,,,,,,,,,,,,,,,,,,,,,,,,,,,,,,2,0,2,0,1,instr_done_button,,,,,,,,,,,,,,,
,,-0.088888865,-0.372222248,1,0,0,,,,,,1,test,"In the next phase you will be presented with the words from the the first phase. Your job is to decide whether you remember seeing the word or not. If you remember seeing the word press ""old"" or type ""m"". If you do not remember seeing the word press ""new"" or type ""z"". Please press the space bar or click on continue to begin. ",,,612e1df9913c996adb2a42a6,64,2022-02-12_15h53.11.877,lexical_decision_task_DD_L3,2021.2.3,Win32,60.28090904,,,,,,,,,,,,,,,,,,,,,,,,,,,,,,,,,,,,,,,,,,,,,,,,,,,,,,,,,,,,,,,,,,3,0,3,0,1,instr_done_button,,,,,,,,,,,,,,,
space,0.8374,-0.080555531,-0.384259286,0,0,0,,,,,,1,test,"In the next phase you will be presented with the words from the the first phase. Your job is to decide whether you remember seeing the word or not. If you remember seeing the word press ""old"" or type ""m"". If you do not remember seeing the word press ""new"" or type ""z"". Please press the space bar or click on continue to begin. ",,,612e1df9913c996adb2a42a6,64,2022-02-12_15h53.11.877,lexical_decision_task_DD_L3,2021.2.3,Win32,60.28090904,,,,,,,,,,,,,,,,,,,,,,,,,,,,,,,,,,,,,,,,,,,,,,,,,,,,,,,,,,,,,,,,,,4,0,4,0,1,,,,,,,,,,,,,,,,
,,,,,,,,,,,,,,,,,612e1df9913c996adb2a42a6,64,2022-02-12_15h53.11.877,lexical_decision_task_DD_L3,2021.2.3,Win32,60.28090904,,,,,,,,,,,3.199,1,,,,,,,,,,,,,,,,,,,,,,,,-0.080555531,-0.384259286,0,0,0,,,,,,,ALLEY,C,z,m,./images/ALLEY.png,,,,,,,,,,,,,,,,,,,,,z,1,3.199,,,,,,,,0,0,0,139,1
,,,,,,,,,,,,,,,,,612e1df9913c996adb2a42a6,64,2022-02-12_15h53.11.877,lexical_decision_task_DD_L3,2021.2.3,Win32,60.28090904,,,,,,,,,,,1.4512,1,,,,,,,,,,,,,,,,,,,,,,,,-0.080555531,-0.384259286,0,0,0,,,,,,,TIGER,C,z,m,./images/TIGER.png,,,,,,,,,,,,,,,,,,,,,z,1,1.4512,,,,,,,,0,1,1,121,1
,,,,,,,,,,,,,,,,,612e1df9913c996adb2a42a6,64,2022-02-12_15h53.11.877,lexical_decision_task_DD_L3,2021.2.3,Win32,60.28090904,,,,,,,,,,,0.9685,1,,,,,,,,,,,,,,,,,,,,,,,,-0.080555531,-0.384259286,0,0,0,,,,,,,BUNNY,C,z,m,./images/BUNNY.png,,,,,,,,,,,,,,,,,,,,,z,1,0.9685,,,,,,,,0,2,2,97,1
,,,,,,,,,,,,,,,,,612e1df9913c996adb2a42a6,64,2022-02-12_15h53.11.877,lexical_decision_task_DD_L3,2021.2.3,Win32,60.28090904,,,,,,,,,,,1.1508,1,,,,,,,,,,,,,,,,,,,,,,,,-0.080555531,-0.384259286,0,0,0,,,,,,,STAIN,LB,z,m,./images/STAINLB.png,,,,,,,,,,,,,,,,,,,,,z,1,1.1508,,,,,,,,0,3,3,90,1
,,,,,,,,,,,,,,,,,612e1df9913c996adb2a42a6,64,2022-02-12_15h53.11.877,lexical_decision_task_DD_L3,2021.2.3,Win32,60.28090904,,,,,,,,,,,0.9665,1,,,,,,,,,,,,,,,,,,,,,,,,-0.080555531,-0.384259286,0,0,0,,,,,,,CLOUD,HB,z,m,./images/CLOUDHB.png,,,,,,,,,,,,,,,,,,,,,z,1,0.9665,,,,,,,,0,4,4,110,1
,,,,,,,,,,,,,,,,,612e1df9913c996adb2a42a6,64,2022-02-12_15h53.11.877,lexical_decision_task_DD_L3,2021.2.3,Win32,60.28090904,,,,,,,,,,,1.2185,1,,,,,,,,,,,,,,,,,,,,,,,,-0.080555531,-0.384259286,0,0,0,,,,,,,FOLDER,LB,m,m,./images/FOLDERLB.png,,,,,,,,,,,,,,,,,,,,,m,1,1.2185,,,,,,,,0,5,5,42,1
,,,,,,,,,,,,,,,,,612e1df9913c996adb2a42a6,64,2022-02-12_15h53.11.877,lexical_decision_task_DD_L3,2021.2.3,Win32,60.28090904,,,,,,,,,,,0.7669,1,,,,,,,,,,,,,,,,,,,,,,,,-0.080555531,-0.384259286,0,0,0,,,,,,,MOOSE,LB,m,m,./images/MOOSELB.png,,,,,,,,,,,,,,,,,,,,,m,1,0.7669,,,,,,,,0,6,6,57,1
,,,,,,,,,,,,,,,,,612e1df9913c996adb2a42a6,64,2022-02-12_15h53.11.877,lexical_decision_task_DD_L3,2021.2.3,Win32,60.28090904,,,,,,,,,,,0.5851,1,,,,,,,,,,,,,,,,,,,,,,,,-0.080555531,-0.384259286,0,0,0,,,,,,,GREASE,LB,m,m,./images/GREASELB.png,,,,,,,,,,,,,,,,,,,,,m,1,0.5851,,,,,,,,0,7,7,15,1
,,,,,,,,,,,,,,,,,612e1df9913c996adb2a42a6,64,2022-02-12_15h53.11.877,lexical_decision_task_DD_L3,2021.2.3,Win32,60.28090904,,,,,,,,,,,1.4007,0,,,,,,,,,,,,,,,,,,,,,,,,-0.080555531,-0.384259286,0,0,0,,,,,,,WHISKY,HB,z,m,./images/WHISKYHB.png,,,,,,,,,,,,,,,,,,,,,m,0,1.4007,,,,,,,,0,8,8,167,1
,,,,,,,,,,,,,,,,,612e1df9913c996adb2a42a6,64,2022-02-12_15h53.11.877,lexical_decision_task_DD_L3,2021.2.3,Win32,60.28090904,,,,,,,,,,,0.918,0,,,,,,,,,,,,,,,,,,,,,,,,-0.080555531,-0.384259286,0,0,0,,,,,,,JUMPER,HB,z,m,./images/JUMPERHB.png,,,,,,,,,,,,,,,,,,,,,m,0,0.918,,,,,,,,0,9,9,158,1
,,,,,,,,,,,,,,,,,612e1df9913c996adb2a42a6,64,2022-02-12_15h53.11.877,lexical_decision_task_DD_L3,2021.2.3,Win32,60.28090904,,,,,,,,,,,0.552,1,,,,,,,,,,,,,,,,,,,,,,,,-0.080555531,-0.384259286,0,0,0,,,,,,,BEARD,HB,m,m,./images/BEARDHB.png,,,,,,,,,,,,,,,,,,,,,m,1,0.552,,,,,,,,0,10,10,2,1
,,,,,,,,,,,,,,,,,612e1df9913c996adb2a42a6,64,2022-02-12_15h53.11.877,lexical_decision_task_DD_L3,2021.2.3,Win32,60.28090904,,,,,,,,,,,0.6864,1,,,,,,,,,,,,,,,,,,,,,,,,-0.080555531,-0.384259286,0,0,0,,,,,,,CRUST,C,m,m,./images/CRUST.png,,,,,,,,,,,,,,,,,,,,,m,1,0.6864,,,,,,,,0,11,11,79,1
,,,,,,,,,,,,,,,,,612e1df9913c996adb2a42a6,64,2022-02-12_15h53.11.877,lexical_decision_task_DD_L3,2021.2.3,Win32,60.28090904,,,,,,,,,,,0.5689,1,,,,,,,,,,,,,,,,,,,,,,,,-0.080555531,-0.384259286,0,0,0,,,,,,,SWEAT,LB,m,m,./images/SWEATLB.png,,,,,,,,,,,,,,,,,,,,,m,1,0.5689,,,,,,,,0,12,12,66,1
,,,,,,,,,,,,,,,,,612e1df9913c996adb2a42a6,64,2022-02-12_15h53.11.877,lexical_decision_task_DD_L3,2021.2.3,Win32,60.28090904,,,,,,,,,,,1.4017,1,,,,,,,,,,,,,,,,,,,,,,,,-0.080555531,-0.384259286,0,0,0,,,,,,,HAMMER,LB,z,m,./images/HAMMERLB.png,,,,,,,,,,,,,,,,,,,,,z,1,1.4017,,,,,,,,0,13,13,159,1
,,,,,,,,,,,,,,,,,612e1df9913c996adb2a42a6,64,2022-02-12_15h53.11.877,lexical_decision_task_DD_L3,2021.2.3,Win32,60.28090904,,,,,,,,,,,0.6845,1,,,,,,,,,,,,,,,,,,,,,,,,-0.080555531,-0.384259286,0,0,0,,,,,,,MUSCLE,C,m,m,./images/MUSCLE.png,,,,,,,,,,,,,,,,,,,,,m,1,0.6845,,,,,,,,0,14,14,4,1
,,,,,,,,,,,,,,,,,612e1df9913c996adb2a42a6,64,2022-02-12_15h53.11.877,lexical_decision_task_DD_L3,2021.2.3,Win32,60.28090904,,,,,,,,,,,0.6856,1,,,,,,,,,,,,,,,,,,,,,,,,-0.080555531,-0.384259286,0,0,0,,,,,,,TRIPOD,LB,m,m,./images/TRIPODLB.png,,,,,,,,,,,,,,,,,,,,,m,1,0.6856,,,,,,,,0,15,15,54,1
,,,,,,,,,,,,,,,,,612e1df9913c996adb2a42a6,64,2022-02-12_15h53.11.877,lexical_decision_task_DD_L3,2021.2.3,Win32,60.28090904,,,,,,,,,,,3.4009,1,,,,,,,,,,,,,,,,,,,,,,,,-0.080555531,-0.384259286,0,0,0,,,,,,,STREAM,HB,z,m,./images/STREAMHB.png,,,,,,,,,,,,,,,,,,,,,z,1,3.4009,,,,,,,,0,16,16,125,1
,,,,,,,,,,,,,,,,,612e1df9913c996adb2a42a6,64,2022-02-12_15h53.11.877,lexical_decision_task_DD_L3,2021.2.3,Win32,60.28090904,,,,,,,,,,,1.7345,0,,,,,,,,,,,,,,,,,,,,,,,,-0.080555531,-0.384259286,0,0,0,,,,,,,SHIELD,LB,z,m,./images/SHIELDLB.png,,,,,,,,,,,,,,,,,,,,,m,0,1.7345,,,,,,,,0,17,17,132,1
,,,,,,,,,,,,,,,,,612e1df9913c996adb2a42a6,64,2022-02-12_15h53.11.877,lexical_decision_task_DD_L3,2021.2.3,Win32,60.28090904,,,,,,,,,,,0.6198,1,,,,,,,,,,,,,,,,,,,,,,,,-0.080555531,-0.384259286,0,0,0,,,,,,,BARREL,HB,m,m,./images/BARRELHB.png,,,,,,,,,,,,,,,,,,,,,m,1,0.6198,,,,,,,,0,18,18,32,1
,,,,,,,,,,,,,,,,,612e1df9913c996adb2a42a6,64,2022-02-12_15h53.11.877,lexical_decision_task_DD_L3,2021.2.3,Win32,60.28090904,,,,,,,,,,,1.2687,1,,,,,,,,,,,,,,,,,,,,,,,,-0.080555531,-0.384259286,0,0,0,,,,,,,MUMMY,C,z,m,./images/MUMMY.png,,,,,,,,,,,,,,,,,,,,,z,1,1.2687,,,,,,,,0,19,19,130,1
,,,,,,,,,,,,,,,,,612e1df9913c996adb2a42a6,64,2022-02-12_15h53.11.877,lexical_decision_task_DD_L3,2021.2.3,Win32,60.28090904,,,,,,,,,,,1.4015,1,,,,,,,,,,,,,,,,,,,,,,,,-0.080555531,-0.384259286,0,0,0,,,,,,,CASINO,C,z,m,./images/CASINO.png,,,,,,,,,,,,,,,,,,,,,z,1,1.4015,,,,,,,,0,20,20,112,1
,,,,,,,,,,,,,,,,,612e1df9913c996adb2a42a6,64,2022-02-12_15h53.11.877,lexical_decision_task_DD_L3,2021.2.3,Win32,60.28090904,,,,,,,,,,,3.0007,0,,,,,,,,,,,,,,,,,,,,,,,,-0.080555531,-0.384259286,0,0,0,,,,,,,BRIDE,C,z,m,./images/BRIDE.png,,,,,,,,,,,,,,,,,,,,,m,0,3.0007,,,,,,,,0,21,21,148,1
,,,,,,,,,,,,,,,,,612e1df9913c996adb2a42a6,64,2022-02-12_15h53.11.877,lexical_decision_task_DD_L3,2021.2.3,Win32,60.28090904,,,,,,,,,,,0.7175,0,,,,,,,,,,,,,,,,,,,,,,,,-0.080555531,-0.384259286,0,0,0,,,,,,,BUBBLE,HB,z,m,./images/BUBBLEHB.png,,,,,,,,,,,,,,,,,,,,,m,0,0.7175,,,,,,,,0,22,22,155,1
,,,,,,,,,,,,,,,,,612e1df9913c996adb2a42a6,64,2022-02-12_15h53.11.877,lexical_decision_task_DD_L3,2021.2.3,Win32,60.28090904,,,,,,,,,,,1.0846,0,,,,,,,,,,,,,,,,,,,,,,,,-0.080555531,-0.384259286,0,0,0,,,,,,,FENCE,HB,z,m,./images/FENCEHB.png,,,,,,,,,,,,,,,,,,,,,m,0,1.0846,,,,,,,,0,23,23,98,1
,,,,,,,,,,,,,,,,,612e1df9913c996adb2a42a6,64,2022-02-12_15h53.11.877,lexical_decision_task_DD_L3,2021.2.3,Win32,60.28090904,,,,,,,,,,,0.7176,0,,,,,,,,,,,,,,,,,,,,,,,,-0.080555531,-0.384259286,0,0,0,,,,,,,BISHOP,C,z,m,./images/BISHOP.png,,,,,,,,,,,,,,,,,,,,,m,0,0.7176,,,,,,,,0,24,24,133,1
,,,,,,,,,,,,,,,,,612e1df9913c996adb2a42a6,64,2022-02-12_15h53.11.877,lexical_decision_task_DD_L3,2021.2.3,Win32,60.28090904,,,,,,,,,,,1.0851,1,,,,,,,,,,,,,,,,,,,,,,,,-0.080555531,-0.384259286,0,0,0,,,,,,,MIDGET,C,z,m,./images/MIDGET.png,,,,,,,,,,,,,,,,,,,,,z,1,1.0851,,,,,,,,0,25,25,160,1
,,,,,,,,,,,,,,,,,612e1df9913c996adb2a42a6,64,2022-02-12_15h53.11.877,lexical_decision_task_DD_L3,2021.2.3,Win32,60.28090904,,,,,,,,,,,0.9177,1,,,,,,,,,,,,,,,,,,,,,,,,-0.080555531,-0.384259286,0,0,0,,,,,,,FLESH,LB,z,m,./images/FLESHLB.png,,,,,,,,,,,,,,,,,,,,,z,1,0.9177,,,,,,,,0,26,26,108,1
,,,,,,,,,,,,,,,,,612e1df9913c996adb2a42a6,64,2022-02-12_15h53.11.877,lexical_decision_task_DD_L3,2021.2.3,Win32,60.28090904,,,,,,,,,,,0.7174,1,,,,,,,,,,,,,,,,,,,,,,,,-0.080555531,-0.384259286,0,0,0,,,,,,,MALLET,HB,m,m,./images/MALLETHB.png,,,,,,,,,,,,,,,,,,,,,m,1,0.7174,,,,,,,,0,27,27,50,1
,,,,,,,,,,,,,,,,,612e1df9913c996adb2a42a6,64,2022-02-12_15h53.11.877,lexical_decision_task_DD_L3,2021.2.3,Win32,60.28090904,,,,,,,,,,,0.8494,1,,,,,,,,,,,,,,,,,,,,,,,,-0.080555531,-0.384259286,0,0,0,,,,,,,ENGINE,HB,z,m,./images/ENGINEHB.png,,,,,,,,,,,,,,,,,,,,,z,1,0.8494,,,,,,,,0,28,28,122,1
,,,,,,,,,,,,,,,,,612e1df9913c996adb2a42a6,64,2022-02-12_15h53.11.877,lexical_decision_task_DD_L3,2021.2.3,Win32,60.28090904,,,,,,,,,,,0.8012,1,,,,,,,,,,,,,,,,,,,,,,,,-0.080555531,-0.384259286,0,0,0,,,,,,,SAUCE,LB,z,m,./images/SAUCELB.png,,,,,,,,,,,,,,,,,,,,,z,1,0.8012,,,,,,,,0,29,29,135,1
,,,,,,,,,,,,,,,,,612e1df9913c996adb2a42a6,64,2022-02-12_15h53.11.877,lexical_decision_task_DD_L3,2021.2.3,Win32,60.28090904,,,,,,,,,,,0.8018,1,,,,,,,,,,,,,,,,,,,,,,,,-0.080555531,-0.384259286,0,0,0,,,,,,,TOWEL,C,z,m,./images/TOWEL.png,,,,,,,,,,,,,,,,,,,,,z,1,0.8018,,,,,,,,0,30,30,85,1
,,,,,,,,,,,,,,,,,612e1df9913c996adb2a42a6,64,2022-02-12_15h53.11.877,lexical_decision_task_DD_L3,2021.2.3,Win32,60.28090904,,,,,,,,,,,0.7002,1,,,,,,,,,,,,,,,,,,,,,,,,-0.080555531,-0.384259286,0,0,0,,,,,,,INFANT,C,m,m,./images/INFANT.png,,,,,,,,,,,,,,,,,,,,,m,1,0.7002,,,,,,,,0,31,31,76,1
,,,,,,,,,,,,,,,,,612e1df9913c996adb2a42a6,64,2022-02-12_15h53.11.877,lexical_decision_task_DD_L3,2021.2.3,Win32,60.28090904,,,,,,,,,,,0.7508,1,,,,,,,,,,,,,,,,,,,,,,,,-0.080555531,-0.384259286,0,0,0,,,,,,,WALNUT,LB,z,m,./images/WALNUTLB.png,,,,,,,,,,,,,,,,,,,,,z,1,0.7508,,,,,,,,0,32,32,84,1
,,,,,,,,,,,,,,,,,612e1df9913c996adb2a42a6,64,2022-02-12_15h53.11.877,lexical_decision_task_DD_L3,2021.2.3,Win32,60.28090904,,,,,,,,,,,1.7326,1,,,,,,,,,,,,,,,,,,,,,,,,-0.080555531,-0.384259286,0,0,0,,,,,,,RULER,C,z,m,./images/RULER.png,,,,,,,,,,,,,,,,,,,,,z,1,1.7326,,,,,,,,0,33,33,163,1
,,,,,,,,,,,,,,,,,612e1df9913c996adb2a42a6,64,2022-02-12_15h53.11.877,lexical_decision_task_DD_L3,2021.2.3,Win32,60.28090904,,,,,,,,,,,0.5861,1,,,,,,,,,,,,,,,,,,,,,,,,-0.080555531,-0.384259286,0,0,0,,,,,,,COOKER,LB,m,m,./images/COOKERLB.png,,,,,,,,,,,,,,,,,,,,,m,1,0.5861,,,,,,,,0,34,34,69,1
,,,,,,,,,,,,,,,,,612e1df9913c996adb2a42a6,64,2022-02-12_15h53.11.877,lexical_decision_task_DD_L3,2021.2.3,Win32,60.28090904,,,,,,,,,,,0.5009,0,,,,,,,,,,,,,,,,,,,,,,,,-0.080555531,-0.384259286,0,0,0,,,,,,,CANOE,C,z,m,./images/CANOE.png,,,,,,,,,,,,,,,,,,,,,m,0,0.5009,,,,,,,,0,35,35,142,1
,,,,,,,,,,,,,,,,,612e1df9913c996adb2a42a6,64,2022-02-12_15h53.11.877,lexical_decision_task_DD_L3,2021.2.3,Win32,60.28090904,,,,,,,,,,,0.9017,1,,,,,,,,,,,,,,,,,,,,,,,,-0.080555531,-0.384259286,0,0,0,,,,,,,STOVE,HB,z,m,./images/STOVEHB.png,,,,,,,,,,,,,,,,,,,,,z,1,0.9017,,,,,,,,0,36,36,86,1
,,,,,,,,,,,,,,,,,612e1df9913c996adb2a42a6,64,2022-02-12_15h53.11.877,lexical_decision_task_DD_L3,2021.2.3,Win32,60.28090904,,,,,,,,,,,0.7839,1,,,,,,,,,,,,,,,,,,,,,,,,-0.080555531,-0.384259286,0,0,0,,,,,,,FINGER,LB,m,m,./images/FINGERLB.png,,,,,,,,,,,,,,,,,,,,,m,1,0.7839,,,,,,,,0,37,37,3,1
,,,,,,,,,,,,,,,,,612e1df9913c996adb2a42a6,64,2022-02-12_15h53.11.877,lexical_decision_task_DD_L3,2021.2.3,Win32,60.28090904,,,,,,,,,,,0.5287,1,,,,,,,,,,,,,,,,,,,,,,,,-0.080555531,-0.384259286,0,0,0,,,,,,,MIRROR,LB,m,m,./images/MIRRORLB.png,,,,,,,,,,,,,,,,,,,,,m,1,0.5287,,,,,,,,0,38,38,63,1
,,,,,,,,,,,,,,,,,612e1df9913c996adb2a42a6,64,2022-02-12_15h53.11.877,lexical_decision_task_DD_L3,2021.2.3,Win32,60.28090904,,,,,,,,,,,0.6648,1,,,,,,,,,,,,,,,,,,,,,,,,-0.080555531,-0.384259286,0,0,0,,,,,,,SNAKE,C,z,m,./images/SNAKE.png,,,,,,,,,,,,,,,,,,,,,z,1,0.6648,,,,,,,,0,39,39,124,1
,,,,,,,,,,,,,,,,,612e1df9913c996adb2a42a6,64,2022-02-12_15h53.11.877,lexical_decision_task_DD_L3,2021.2.3,Win32,60.28090904,,,,,,,,,,,0.6844,1,,,,,,,,,,,,,,,,,,,,,,,,-0.080555531,-0.384259286,0,0,0,,,,,,,PICKLE,HB,m,m,./images/PICKLEHB.png,,,,,,,,,,,,,,,,,,,,,m,1,0.6844,,,,,,,,0,40,40,14,1
,,,,,,,,,,,,,,,,,612e1df9913c996adb2a42a6,64,2022-02-12_15h53.11.877,lexical_decision_task_DD_L3,2021.2.3,Win32,60.28090904,,,,,,,,,,,0.8336,1,,,,,,,,,,,,,,,,,,,,,,,,-0.080555531,-0.384259286,0,0,0,space,,,,,,GLOVE,C,z,m,./images/GLOVE.png,1.6704,,,,,,,,,,,,,,,,,,,,z,1,0.8336,,,,,,,,0,41,41,157,1
,,,,,,,,,,,,,,,,,612e1df9913c996adb2a42a6,64,2022-02-12_15h53.11.877,lexical_decision_task_DD_L3,2021.2.3,Win32,60.28090904,,,,,,,,,,,0.9509,1,,,,,,,,,,,,,,,,,,,,,,,,-0.080555531,-0.384259286,0,0,0,,,,,,,GRANNY,HB,z,m,./images/GRANNYHB.png,,,,,,,,,,,,,,,,,,,,,z,1,0.9509,,,,,,,,0,42,42,104,1
,,,,,,,,,,,,,,,,,612e1df9913c996adb2a42a6,64,2022-02-12_15h53.11.877,lexical_decision_task_DD_L3,2021.2.3,Win32,60.28090904,,,,,,,,,,,0.6354,1,,,,,,,,,,,,,,,,,,,,,,,,-0.080555531,-0.384259286,0,0,0,,,,,,,TULIP,HB,m,m,./images/TULIPHB.png,,,,,,,,,,,,,,,,,,,,,m,1,0.6354,,,,,,,,0,43,43,8,1
,,,,,,,,,,,,,,,,,612e1df9913c996adb2a42a6,64,2022-02-12_15h53.11.877,lexical_decision_task_DD_L3,2021.2.3,Win32,60.28090904,,,,,,,,,,,0.8846,1,,,,,,,,,,,,,,,,,,,,,,,,-0.080555531,-0.384259286,0,0,0,,,,,,,PISTOL,HB,z,m,./images/PISTOLHB.png,,,,,,,,,,,,,,,,,,,,,z,1,0.8846,,,,,,,,0,44,44,113,1
,,,,,,,,,,,,,,,,,612e1df9913c996adb2a42a6,64,2022-02-12_15h53.11.877,lexical_decision_task_DD_L3,2021.2.3,Win32,60.28090904,,,,,,,,,,,0.5015,1,,,,,,,,,,,,,,,,,,,,,,,,-0.080555531,-0.384259286,0,0,0,,,,,,,ONION,LB,m,m,./images/ONIONLB.png,,,,,,,,,,,,,,,,,,,,,m,1,0.5015,,,,,,,,0,45,45,51,1
,,,,,,,,,,,,,,,,,612e1df9913c996adb2a42a6,64,2022-02-12_15h53.11.877,lexical_decision_task_DD_L3,2021.2.3,Win32,60.28090904,,,,,,,,,,,0.8017,1,,,,,,,,,,,,,,,,,,,,,,,,-0.080555531,-0.384259286,0,0,0,,,,,,,POSTER,HB,z,m,./images/POSTERHB.png,,,,,,,,,,,,,,,,,,,,,z,1,0.8017,,,,,,,,0,46,46,137,1
,,,,,,,,,,,,,,,,,612e1df9913c996adb2a42a6,64,2022-02-12_15h53.11.877,lexical_decision_task_DD_L3,2021.2.3,Win32,60.28090904,,,,,,,,,,,0.7679,0,,,,,,,,,,,,,,,,,,,,,,,,-0.080555531,-0.384259286,0,0,0,,,,,,,SUNSET,C,m,m,./images/SUNSET.png,,,,,,,,,,,,,,,,,,,,,z,0,0.7679,,,,,,,,0,47,47,82,1
,,,,,,,,,,,,,,,,,612e1df9913c996adb2a42a6,64,2022-02-12_15h53.11.877,lexical_decision_task_DD_L3,2021.2.3,Win32,60.28090904,,,,,,,,,,,0.567,1,,,,,,,,,,,,,,,,,,,,,,,,-0.080555531,-0.384259286,0,0,0,,,,,,,QUILL,C,m,m,./images/QUILL.png,,,,,,,,,,,,,,,,,,,,,m,1,0.567,,,,,,,,0,48,48,31,1
,,,,,,,,,,,,,,,,,612e1df9913c996adb2a42a6,64,2022-02-12_15h53.11.877,lexical_decision_task_DD_L3,2021.2.3,Win32,60.28090904,,,,,,,,,,,0.7005,1,,,,,,,,,,,,,,,,,,,,,,,,-0.080555531,-0.384259286,0,0,0,,,,,,,PEBBLE,C,z,m,./images/PEBBLE.png,,,,,,,,,,,,,,,,,,,,,z,1,0.7005,,,,,,,,0,49,49,166,1
,,,,,,,,,,,,,,,,,612e1df9913c996adb2a42a6,64,2022-02-12_15h53.11.877,lexical_decision_task_DD_L3,2021.2.3,Win32,60.28090904,,,,,,,,,,,0.6377,1,,,,,,,,,,,,,,,,,,,,,,,,-0.080555531,-0.384259286,0,0,0,,,,,,,POKER,C,z,m,./images/POKER.png,,,,,,,,,,,,,,,,,,,,,z,1,0.6377,,,,,,,,0,50,50,151,1
,,,,,,,,,,,,,,,,,612e1df9913c996adb2a42a6,64,2022-02-12_15h53.11.877,lexical_decision_task_DD_L3,2021.2.3,Win32,60.28090904,,,,,,,,,,,0.5854,1,,,,,,,,,,,,,,,,,,,,,,,,-0.080555531,-0.384259286,0,0,0,,,,,,,JUNGLE,HB,m,m,./images/JUNGLEHB.png,,,,,,,,,,,,,,,,,,,,,m,1,0.5854,,,,,,,,0,51,51,83,1
,,,,,,,,,,,,,,,,,612e1df9913c996adb2a42a6,64,2022-02-12_15h53.11.877,lexical_decision_task_DD_L3,2021.2.3,Win32,60.28090904,,,,,,,,,,,0.7856,0,,,,,,,,,,,,,,,,,,,,,,,,-0.080555531,-0.384259286,0,0,0,,,,,,,RAZOR,C,z,m,./images/RAZOR.png,,,,,,,,,,,,,,,,,,,,,m,0,0.7856,,,,,,,,0,52,52,118,1
,,,,,,,,,,,,,,,,,612e1df9913c996adb2a42a6,64,2022-02-12_15h53.11.877,lexical_decision_task_DD_L3,2021.2.3,Win32,60.28090904,,,,,,,,,,,0.4847,1,,,,,,,,,,,,,,,,,,,,,,,,-0.080555531,-0.384259286,0,0,0,,,,,,,URINE,C,m,m,./images/URINE.png,,,,,,,,,,,,,,,,,,,,,m,1,0.4847,,,,,,,,0,53,53,70,1
,,,,,,,,,,,,,,,,,612e1df9913c996adb2a42a6,64,2022-02-12_15h53.11.877,lexical_decision_task_DD_L3,2021.2.3,Win32,60.28090904,,,,,,,,,,,0.6688,1,,,,,,,,,,,,,,,,,,,,,,,,-0.080555531,-0.384259286,0,0,0,,,,,,,LLAMA,HB,z,m,./images/LLAMAHB.png,,,,,,,,,,,,,,,,,,,,,z,1,0.6688,,,,,,,,0,54,54,119,1
,,,,,,,,,,,,,,,,,612e1df9913c996adb2a42a6,64,2022-02-12_15h53.11.877,lexical_decision_task_DD_L3,2021.2.3,Win32,60.28090904,,,,,,,,,,,0.6339,1,,,,,,,,,,,,,,,,,,,,,,,,-0.080555531,-0.384259286,0,0,0,,,,,,,DRUMS,C,m,m,./images/DRUMS.png,,,,,,,,,,,,,,,,,,,,,m,1,0.6339,,,,,,,,0,55,55,49,1
,,,,,,,,,,,,,,,,,612e1df9913c996adb2a42a6,64,2022-02-12_15h53.11.877,lexical_decision_task_DD_L3,2021.2.3,Win32,60.28090904,,,,,,,,,,,1.3854,1,,,,,,,,,,,,,,,,,,,,,,,,-0.080555531,-0.384259286,0,0,0,,,,,,,BLOKE,LB,z,m,./images/BLOKELB.png,,,,,,,,,,,,,,,,,,,,,z,1,1.3854,,,,,,,,0,56,56,96,1
,,,,,,,,,,,,,,,,,612e1df9913c996adb2a42a6,64,2022-02-12_15h53.11.877,lexical_decision_task_DD_L3,2021.2.3,Win32,60.28090904,,,,,,,,,,,0.4999,1,,,,,,,,,,,,,,,,,,,,,,,,-0.080555531,-0.384259286,0,0,0,,,,,,,MAGGOT,LB,m,m,./images/MAGGOTLB.png,,,,,,,,,,,,,,,,,,,,,m,1,0.4999,,,,,,,,0,57,57,33,1
,,,,,,,,,,,,,,,,,612e1df9913c996adb2a42a6,64,2022-02-12_15h53.11.877,lexical_decision_task_DD_L3,2021.2.3,Win32,60.28090904,,,,,,,,,,,0.5674,1,,,,,,,,,,,,,,,,,,,,,,,,-0.080555531,-0.384259286,0,0,0,,,,,,,SWING,C,m,m,./images/SWING.png,,,,,,,,,,,,,,,,,,,,,m,1,0.5674,,,,,,,,0,58,58,40,1
,,,,,,,,,,,,,,,,,612e1df9913c996adb2a42a6,64,2022-02-12_15h53.11.877,lexical_decision_task_DD_L3,2021.2.3,Win32,60.28090904,,,,,,,,,,,0.5013,1,,,,,,,,,,,,,,,,,,,,,,,,-0.080555531,-0.384259286,0,0,0,,,,,,,BURIAL,HB,m,m,./images/BURIALHB.png,,,,,,,,,,,,,,,,,,,,,m,1,0.5013,,,,,,,,0,59,59,59,1
,,,,,,,,,,,,,,,,,612e1df9913c996adb2a42a6,64,2022-02-12_15h53.11.877,lexical_decision_task_DD_L3,2021.2.3,Win32,60.28090904,,,,,,,,,,,0.5369,1,,,,,,,,,,,,,,,,,,,,,,,,-0.080555531,-0.384259286,0,0,0,,,,,,,KITTEN,LB,m,m,./images/KITTENLB.png,,,,,,,,,,,,,,,,,,,,,m,1,0.5369,,,,,,,,0,60,60,45,1
,,,,,,,,,,,,,,,,,612e1df9913c996adb2a42a6,64,2022-02-12_15h53.11.877,lexical_decision_task_DD_L3,2021.2.3,Win32,60.28090904,,,,,,,,,,,0.5454,1,,,,,,,,,,,,,,,,,,,,,,,,-0.080555531,-0.384259286,0,0,0,,,,,,,TWINS,LB,m,m,./images/TWINSLB.png,,,,,,,,,,,,,,,,,,,,,m,1,0.5454,,,,,,,,0,61,61,60,1
,,,,,,,,,,,,,,,,,612e1df9913c996adb2a42a6,64,2022-02-12_15h53.11.877,lexical_decision_task_DD_L3,2021.2.3,Win32,60.28090904,,,,,,,,,,,0.8865,0,,,,,,,,,,,,,,,,,,,,,,,,-0.080555531,-0.384259286,0,0,0,,,,,,,BASKET,HB,z,m,./images/BASKETHB.png,,,,,,,,,,,,,,,,,,,,,m,0,0.8865,,,,,,,,0,62,62,128,1
,,,,,,,,,,,,,,,,,612e1df9913c996adb2a42a6,64,2022-02-12_15h53.11.877,lexical_decision_task_DD_L3,2021.2.3,Win32,60.28090904,,,,,,,,,,,0.705,1,,,,,,,,,,,,,,,,,,,,,,,,-0.080555531,-0.384259286,0,0,0,,,,,,,VALLEY,HB,z,m,./images/VALLEYHB.png,,,,,,,,,,,,,,,,,,,,,z,1,0.705,,,,,,,,0,63,63,152,1
,,,,,,,,,,,,,,,,,612e1df9913c996adb2a42a6,64,2022-02-12_15h53.11.877,lexical_decision_task_DD_L3,2021.2.3,Win32,60.28090904,,,,,,,,,,,0.8691,1,,,,,,,,,,,,,,,,,,,,,,,,-0.080555531,-0.384259286,0,0,0,,,,,,,BUTTER,LB,z,m,./images/BUTTERLB.png,,,,,,,,,,,,,,,,,,,,,z,1,0.8691,,,,,,,,0,64,64,111,1
,,,,,,,,,,,,,,,,,612e1df9913c996adb2a42a6,64,2022-02-12_15h53.11.877,lexical_decision_task_DD_L3,2021.2.3,Win32,60.28090904,,,,,,,,,,,0.8502,1,,,,,,,,,,,,,,,,,,,,,,,,-0.080555531,-0.384259286,0,0,0,,,,,,,CHERRY,LB,z,m,./images/CHERRYLB.png,,,,,,,,,,,,,,,,,,,,,z,1,0.8502,,,,,,,,0,65,65,138,1
,,,,,,,,,,,,,,,,,612e1df9913c996adb2a42a6,64,2022-02-12_15h53.11.877,lexical_decision_task_DD_L3,2021.2.3,Win32,60.28090904,,,,,,,,,,,0.8912,1,,,,,,,,,,,,,,,,,,,,,,,,-0.080555531,-0.384259286,0,0,0,,,,,,,NOOSE,LB,m,m,./images/NOOSELB.png,,,,,,,,,,,,,,,,,,,,,m,1,0.8912,,,,,,,,0,66,66,72,1
,,,,,,,,,,,,,,,,,612e1df9913c996adb2a42a6,64,2022-02-12_15h53.11.877,lexical_decision_task_DD_L3,2021.2.3,Win32,60.28090904,,,,,,,,,,,0.9534,1,,,,,,,,,,,,,,,,,,,,,,,,-0.080555531,-0.384259286,0,0,0,,,,,,,SAUNA,LB,z,m,./images/SAUNALB.png,,,,,,,,,,,,,,,,,,,,,z,1,0.9534,,,,,,,,0,67,67,117,1
,,,,,,,,,,,,,,,,,612e1df9913c996adb2a42a6,64,2022-02-12_15h53.11.877,lexical_decision_task_DD_L3,2021.2.3,Win32,60.28090904,,,,,,,,,,,0.8806,1,,,,,,,,,,,,,,,,,,,,,,,,-0.080555531,-0.384259286,0,0,0,,,,,,,SLOPE,LB,z,m,./images/SLOPELB.png,,,,,,,,,,,,,,,,,,,,,z,1,0.8806,,,,,,,,0,68,68,114,1
,,,,,,,,,,,,,,,,,612e1df9913c996adb2a42a6,64,2022-02-12_15h53.11.877,lexical_decision_task_DD_L3,2021.2.3,Win32,60.28090904,,,,,,,,,,,1.1826,1,,,,,,,,,,,,,,,,,,,,,,,,-0.080555531,-0.384259286,0,0,0,,,,,,,SHORE,LB,m,m,./images/SHORELB.png,,,,,,,,,,,,,,,,,,,,,m,1,1.1826,,,,,,,,0,69,69,12,1
,,,,,,,,,,,,,,,,,612e1df9913c996adb2a42a6,64,2022-02-12_15h53.11.877,lexical_decision_task_DD_L3,2021.2.3,Win32,60.28090904,,,,,,,,,,,0.5566,1,,,,,,,,,,,,,,,,,,,,,,,,-0.080555531,-0.384259286,0,0,0,,,,,,,SQUARE,LB,m,m,./images/SQUARELB.png,,,,,,,,,,,,,,,,,,,,,m,1,0.5566,,,,,,,,0,70,70,6,1
,,,,,,,,,,,,,,,,,612e1df9913c996adb2a42a6,64,2022-02-12_15h53.11.877,lexical_decision_task_DD_L3,2021.2.3,Win32,60.28090904,,,,,,,,,,,0.6514,1,,,,,,,,,,,,,,,,,,,,,,,,-0.080555531,-0.384259286,0,0,0,,,,,,,SMOKER,HB,m,m,./images/SMOKERHB.png,,,,,,,,,,,,,,,,,,,,,m,1,0.6514,,,,,,,,0,71,71,26,1
,,,,,,,,,,,,,,,,,612e1df9913c996adb2a42a6,64,2022-02-12_15h53.11.877,lexical_decision_task_DD_L3,2021.2.3,Win32,60.28090904,,,,,,,,,,,0.8683,1,,,,,,,,,,,,,,,,,,,,,,,,-0.080555531,-0.384259286,0,0,0,,,,,,,PEACH,HB,m,m,./images/PEACHHB.png,,,,,,,,,,,,,,,,,,,,,m,1,0.8683,,,,,,,,0,72,72,35,1
,,,,,,,,,,,,,,,,,612e1df9913c996adb2a42a6,64,2022-02-12_15h53.11.877,lexical_decision_task_DD_L3,2021.2.3,Win32,60.28090904,,,,,,,,,,,0.7293,1,,,,,,,,,,,,,,,,,,,,,,,,-0.080555531,-0.384259286,0,0,0,,,,,,,PASTA,HB,m,m,./images/PASTAHB.png,,,,,,,,,,,,,,,,,,,,,m,1,0.7293,,,,,,,,0,73,73,5,1
,,,,,,,,,,,,,,,,,612e1df9913c996adb2a42a6,64,2022-02-12_15h53.11.877,lexical_decision_task_DD_L3,2021.2.3,Win32,60.28090904,,,,,,,,,,,0.7013,1,,,,,,,,,,,,,,,,,,,,,,,,-0.080555531,-0.384259286,0,0,0,,,,,,,ATTIC,LB,m,m,./images/ATTICLB.png,,,,,,,,,,,,,,,,,,,,,m,1,0.7013,,,,,,,,0,74,74,27,1
,,,,,,,,,,,,,,,,,612e1df9913c996adb2a42a6,64,2022-02-12_15h53.11.877,lexical_decision_task_DD_L3,2021.2.3,Win32,60.28090904,,,,,,,,,,,0.6842,1,,,,,,,,,,,,,,,,,,,,,,,,-0.080555531,-0.384259286,0,0,0,,,,,,,DIVER,LB,z,m,./images/DIVERLB.png,,,,,,,,,,,,,,,,,,,,,z,1,0.6842,,,,,,,,0,75,75,93,1
,,,,,,,,,,,,,,,,,612e1df9913c996adb2a42a6,64,2022-02-12_15h53.11.877,lexical_decision_task_DD_L3,2021.2.3,Win32,60.28090904,,,,,,,,,,,1.8996,1,,,,,,,,,,,,,,,,,,,,,,,,-0.080555531,-0.384259286,0,0,0,,,,,,,PENCE,C,m,m,./images/PENCE.png,,,,,,,,,,,,,,,,,,,,,m,1,1.8996,,,,,,,,0,76,76,16,1
,,,,,,,,,,,,,,,,,612e1df9913c996adb2a42a6,64,2022-02-12_15h53.11.877,lexical_decision_task_DD_L3,2021.2.3,Win32,60.28090904,,,,,,,,,,,1.0405,0,,,,,,,,,,,,,,,,,,,,,,,,-0.080555531,-0.384259286,0,0,0,,,,,,,CHAIN,LB,z,m,./images/CHAINLB.png,,,,,,,,,,,,,,,,,,,,,m,0,1.0405,,,,,,,,0,77,77,126,1
,,,,,,,,,,,,,,,,,612e1df9913c996adb2a42a6,64,2022-02-12_15h53.11.877,lexical_decision_task_DD_L3,2021.2.3,Win32,60.28090904,,,,,,,,,,,1.0868,0,,,,,,,,,,,,,,,,,,,,,,,,-0.080555531,-0.384259286,0,0,0,,,,,,,CRADLE,HB,m,m,./images/CRADLEHB.png,,,,,,,,,,,,,,,,,,,,,z,0,1.0868,,,,,,,,0,78,78,20,1
,,,,,,,,,,,,,,,,,612e1df9913c996adb2a42a6,64,2022-02-12_15h53.11.877,lexical_decision_task_DD_L3,2021.2.3,Win32,60.28090904,,,,,,,,,,,1.1338,1,,,,,,,,,,,,,,,,,,,,,,,,-0.080555531,-0.384259286,0,0,0,,,,,,,STEAK,C,z,m,./images/STEAK.png,,,,,,,,,,,,,,,,,,,,,z,1,1.1338,,,,,,,,0,79,79,115,1
,,,,,,,,,,,,,,,,,612e1df9913c996adb2a42a6,64,2022-02-12_15h53.11.877,lexical_decision_task_DD_L3,2021.2.3,Win32,60.28090904,,,,,,,,,,,0.6367,1,,,,,,,,,,,,,,,,,,,,,,,,-0.080555531,-0.384259286,0,0,0,,,,,,,CANDLE,C,m,m,./images/CANDLE.png,,,,,,,,,,,,,,,,,,,,,m,1,0.6367,,,,,,,,0,80,80,61,1
,,,,,,,,,,,,,,,,,612e1df9913c996adb2a42a6,64,2022-02-12_15h53.11.877,lexical_decision_task_DD_L3,2021.2.3,Win32,60.28090904,,,,,,,,,,,0.9181,1,,,,,,,,,,,,,,,,,,,,,,,,-0.080555531,-0.384259286,0,0,0,,,,,,,FERRY,LB,z,m,./images/FERRYLB.png,,,,,,,,,,,,,,,,,,,,,z,1,0.9181,,,,,,,,0,81,81,141,1
,,,,,,,,,,,,,,,,,612e1df9913c996adb2a42a6,64,2022-02-12_15h53.11.877,lexical_decision_task_DD_L3,2021.2.3,Win32,60.28090904,,,,,,,,,,,0.5667,1,,,,,,,,,,,,,,,,,,,,,,,,-0.080555531,-0.384259286,0,0,0,,,,,,,CARPET,HB,m,m,./images/CARPETHB.png,,,,,,,,,,,,,,,,,,,,,m,1,0.5667,,,,,,,,0,82,82,53,1
,,,,,,,,,,,,,,,,,612e1df9913c996adb2a42a6,64,2022-02-12_15h53.11.877,lexical_decision_task_DD_L3,2021.2.3,Win32,60.28090904,,,,,,,,,,,0.7343,1,,,,,,,,,,,,,,,,,,,,,,,,-0.080555531,-0.384259286,0,0,0,space,,,,,,TORCH,HB,m,m,./images/TORCHHB.png,1.1534,,,,,,,,,,,,,,,,,,,,m,1,0.7343,,,,,,,,0,83,83,68,1
,,,,,,,,,,,,,,,,,612e1df9913c996adb2a42a6,64,2022-02-12_15h53.11.877,lexical_decision_task_DD_L3,2021.2.3,Win32,60.28090904,,,,,,,,,,,0.8181,1,,,,,,,,,,,,,,,,,,,,,,,,-0.080555531,-0.384259286,0,0,0,,,,,,,SAILOR,C,m,m,./images/SAILOR.png,,,,,,,,,,,,,,,,,,,,,m,1,0.8181,,,,,,,,0,84,84,67,1
,,,,,,,,,,,,,,,,,612e1df9913c996adb2a42a6,64,2022-02-12_15h53.11.877,lexical_decision_task_DD_L3,2021.2.3,Win32,60.28090904,,,,,,,,,,,0.502,0,,,,,,,,,,,,,,,,,,,,,,,,-0.080555531,-0.384259286,0,0,0,,,,,,,BRUSH,HB,z,m,./images/BRUSHHB.png,,,,,,,,,,,,,,,,,,,,,m,0,0.502,,,,,,,,0,85,85,143,1
,,,,,,,,,,,,,,,,,612e1df9913c996adb2a42a6,64,2022-02-12_15h53.11.877,lexical_decision_task_DD_L3,2021.2.3,Win32,60.28090904,,,,,,,,,,,0.6016,0,,,,,,,,,,,,,,,,,,,,,,,,-0.080555531,-0.384259286,0,0,0,,,,,,,CRATER,LB,z,m,./images/CRATERLB.png,,,,,,,,,,,,,,,,,,,,,m,0,0.6016,,,,,,,,0,86,86,87,1
,,,,,,,,,,,,,,,,,612e1df9913c996adb2a42a6,64,2022-02-12_15h53.11.877,lexical_decision_task_DD_L3,2021.2.3,Win32,60.28090904,,,,,,,,,,,0.6309,1,,,,,,,,,,,,,,,,,,,,,,,,-0.080555531,-0.384259286,0,0,0,,,,,,,FARMER,HB,m,m,./images/FARMERHB.png,,,,,,,,,,,,,,,,,,,,,m,1,0.6309,,,,,,,,0,87,87,65,1
,,,,,,,,,,,,,,,,,612e1df9913c996adb2a42a6,64,2022-02-12_15h53.11.877,lexical_decision_task_DD_L3,2021.2.3,Win32,60.28090904,,,,,,,,,,,0.6182,0,,,,,,,,,,,,,,,,,,,,,,,,-0.080555531,-0.384259286,0,0,0,,,,,,,BIRTH,C,m,m,./images/BIRTH.png,,,,,,,,,,,,,,,,,,,,,z,0,0.6182,,,,,,,,0,88,88,37,1
,,,,,,,,,,,,,,,,,612e1df9913c996adb2a42a6,64,2022-02-12_15h53.11.877,lexical_decision_task_DD_L3,2021.2.3,Win32,60.28090904,,,,,,,,,,,0.652,1,,,,,,,,,,,,,,,,,,,,,,,,-0.080555531,-0.384259286,0,0,0,,,,,,,BELLY,C,m,m,./images/BELLY.png,,,,,,,,,,,,,,,,,,,,,m,1,0.652,,,,,,,,0,89,89,10,1
,,,,,,,,,,,,,,,,,612e1df9913c996adb2a42a6,64,2022-02-12_15h53.11.877,lexical_decision_task_DD_L3,2021.2.3,Win32,60.28090904,,,,,,,,,,,0.5864,1,,,,,,,,,,,,,,,,,,,,,,,,-0.080555531,-0.384259286,0,0,0,,,,,,,SKIING,HB,m,m,./images/SKIINGHB.png,,,,,,,,,,,,,,,,,,,,,m,1,0.5864,,,,,,,,0,90,90,17,1
,,,,,,,,,,,,,,,,,612e1df9913c996adb2a42a6,64,2022-02-12_15h53.11.877,lexical_decision_task_DD_L3,2021.2.3,Win32,60.28090904,,,,,,,,,,,0.7163,1,,,,,,,,,,,,,,,,,,,,,,,,-0.080555531,-0.384259286,0,0,0,,,,,,,BANNER,C,m,m,./images/BANNER.png,,,,,,,,,,,,,,,,,,,,,m,1,0.7163,,,,,,,,0,91,91,52,1
,,,,,,,,,,,,,,,,,612e1df9913c996adb2a42a6,64,2022-02-12_15h53.11.877,lexical_decision_task_DD_L3,2021.2.3,Win32,60.28090904,,,,,,,,,,,0.4517,0,,,,,,,,,,,,,,,,,,,,,,,,-0.080555531,-0.384259286,0,0,0,,,,,,,SPINE,HB,z,m,./images/SPINEHB.png,,,,,,,,,,,,,,,,,,,,,m,0,0.4517,,,,,,,,0,92,92,149,1
,,,,,,,,,,,,,,,,,612e1df9913c996adb2a42a6,64,2022-02-12_15h53.11.877,lexical_decision_task_DD_L3,2021.2.3,Win32,60.28090904,,,,,,,,,,,1.1187,1,,,,,,,,,,,,,,,,,,,,,,,,-0.080555531,-0.384259286,0,0,0,,,,,,,BROOM,LB,z,m,./images/BROOMLB.png,,,,,,,,,,,,,,,,,,,,,z,1,1.1187,,,,,,,,0,93,93,162,1
,,,,,,,,,,,,,,,,,612e1df9913c996adb2a42a6,64,2022-02-12_15h53.11.877,lexical_decision_task_DD_L3,2021.2.3,Win32,60.28090904,,,,,,,,,,,0.701,1,,,,,,,,,,,,,,,,,,,,,,,,-0.080555531,-0.384259286,0,0,0,,,,,,,GARDEN,C,z,m,./images/GARDEN.png,,,,,,,,,,,,,,,,,,,,,z,1,0.701,,,,,,,,0,94,94,94,1
,,,,,,,,,,,,,,,,,612e1df9913c996adb2a42a6,64,2022-02-12_15h53.11.877,lexical_decision_task_DD_L3,2021.2.3,Win32,60.28090904,,,,,,,,,,,0.9008,1,,,,,,,,,,,,,,,,,,,,,,,,-0.080555531,-0.384259286,0,0,0,,,,,,,HEATER,HB,z,m,./images/HEATERHB.png,,,,,,,,,,,,,,,,,,,,,z,1,0.9008,,,,,,,,0,95,95,140,1
,,,,,,,,,,,,,,,,,612e1df9913c996adb2a42a6,64,2022-02-12_15h53.11.877,lexical_decision_task_DD_L3,2021.2.3,Win32,60.28090904,,,,,,,,,,,1.0855,1,,,,,,,,,,,,,,,,,,,,,,,,-0.080555531,-0.384259286,0,0,0,,,,,,,CLOTH,HB,z,m,./images/CLOTHHB.png,,,,,,,,,,,,,,,,,,,,,z,1,1.0855,,,,,,,,0,96,96,107,1
,,,,,,,,,,,,,,,,,612e1df9913c996adb2a42a6,64,2022-02-12_15h53.11.877,lexical_decision_task_DD_L3,2021.2.3,Win32,60.28090904,,,,,,,,,,,0.5364,1,,,,,,,,,,,,,,,,,,,,,,,,-0.080555531,-0.384259286,0,0,0,,,,,,,PACKET,HB,m,m,./images/PACKETHB.png,,,,,,,,,,,,,,,,,,,,,m,1,0.5364,,,,,,,,0,97,97,56,1
,,,,,,,,,,,,,,,,,612e1df9913c996adb2a42a6,64,2022-02-12_15h53.11.877,lexical_decision_task_DD_L3,2021.2.3,Win32,60.28090904,,,,,,,,,,,0.601,0,,,,,,,,,,,,,,,,,,,,,,,,-0.080555531,-0.384259286,0,0,0,,,,,,,WHEEL,HB,z,m,./images/WHEELHB.png,,,,,,,,,,,,,,,,,,,,,m,0,0.601,,,,,,,,0,98,98,161,1
,,,,,,,,,,,,,,,,,612e1df9913c996adb2a42a6,64,2022-02-12_15h53.11.877,lexical_decision_task_DD_L3,2021.2.3,Win32,60.28090904,,,,,,,,,,,0.8181,1,,,,,,,,,,,,,,,,,,,,,,,,-0.080555531,-0.384259286,0,0,0,,,,,,,ARROW,LB,z,m,./images/ARROWLB.png,,,,,,,,,,,,,,,,,,,,,z,1,0.8181,,,,,,,,0,99,99,153,1
,,,,,,,,,,,,,,,,,612e1df9913c996adb2a42a6,64,2022-02-12_15h53.11.877,lexical_decision_task_DD_L3,2021.2.3,Win32,60.28090904,,,,,,,,,,,0.8661,0,,,,,,,,,,,,,,,,,,,,,,,,-0.080555531,-0.384259286,0,0,0,,,,,,,MOTOR,C,m,m,./images/MOTOR.png,,,,,,,,,,,,,,,,,,,,,z,0,0.8661,,,,,,,,0,100,100,13,1
,,,,,,,,,,,,,,,,,612e1df9913c996adb2a42a6,64,2022-02-12_15h53.11.877,lexical_decision_task_DD_L3,2021.2.3,Win32,60.28090904,,,,,,,,,,,0.9294,1,,,,,,,,,,,,,,,,,,,,,,,,-0.080555531,-0.384259286,0,0,0,,,,,,,WRIST,C,m,m,./images/WRIST.png,,,,,,,,,,,,,,,,,,,,,m,1,0.9294,,,,,,,,0,101,101,25,1
,,,,,,,,,,,,,,,,,612e1df9913c996adb2a42a6,64,2022-02-12_15h53.11.877,lexical_decision_task_DD_L3,2021.2.3,Win32,60.28090904,,,,,,,,,,,1.0539,1,,,,,,,,,,,,,,,,,,,,,,,,-0.080555531,-0.384259286,0,0,0,,,,,,,SNACK,C,m,m,./images/SNACK.png,,,,,,,,,,,,,,,,,,,,,m,1,1.0539,,,,,,,,0,102,102,73,1
,,,,,,,,,,,,,,,,,612e1df9913c996adb2a42a6,64,2022-02-12_15h53.11.877,lexical_decision_task_DD_L3,2021.2.3,Win32,60.28090904,,,,,,,,,,,0.763,1,,,,,,,,,,,,,,,,,,,,,,,,-0.080555531,-0.384259286,0,0,0,,,,,,,BONNET,HB,m,m,./images/BONNETHB.png,,,,,,,,,,,,,,,,,,,,,m,1,0.763,,,,,,,,0,103,103,11,1
,,,,,,,,,,,,,,,,,612e1df9913c996adb2a42a6,64,2022-02-12_15h53.11.877,lexical_decision_task_DD_L3,2021.2.3,Win32,60.28090904,,,,,,,,,,,1.0176,1,,,,,,,,,,,,,,,,,,,,,,,,-0.080555531,-0.384259286,0,0,0,,,,,,,LADDER,HB,m,m,./images/LADDERHB.png,,,,,,,,,,,,,,,,,,,,,m,1,1.0176,,,,,,,,0,104,104,38,1
,,,,,,,,,,,,,,,,,612e1df9913c996adb2a42a6,64,2022-02-12_15h53.11.877,lexical_decision_task_DD_L3,2021.2.3,Win32,60.28090904,,,,,,,,,,,0.8326,1,,,,,,,,,,,,,,,,,,,,,,,,-0.080555531,-0.384259286,0,0,0,,,,,,,KIDNEY,LB,m,m,./images/KIDNEYLB.png,,,,,,,,,,,,,,,,,,,,,m,1,0.8326,,,,,,,,0,105,105,21,1
,,,,,,,,,,,,,,,,,612e1df9913c996adb2a42a6,64,2022-02-12_15h53.11.877,lexical_decision_task_DD_L3,2021.2.3,Win32,60.28090904,,,,,,,,,,,1.02,1,,,,,,,,,,,,,,,,,,,,,,,,-0.080555531,-0.384259286,0,0,0,,,,,,,PILOT,HB,z,m,./images/PILOTHB.png,,,,,,,,,,,,,,,,,,,,,z,1,1.02,,,,,,,,0,106,106,134,1
,,,,,,,,,,,,,,,,,612e1df9913c996adb2a42a6,64,2022-02-12_15h53.11.877,lexical_decision_task_DD_L3,2021.2.3,Win32,60.28090904,,,,,,,,,,,0.7837,1,,,,,,,,,,,,,,,,,,,,,,,,-0.080555531,-0.384259286,0,0,0,,,,,,,PARCEL,LB,z,m,./images/PARCELLB.png,,,,,,,,,,,,,,,,,,,,,z,1,0.7837,,,,,,,,0,107,107,102,1
,,,,,,,,,,,,,,,,,612e1df9913c996adb2a42a6,64,2022-02-12_15h53.11.877,lexical_decision_task_DD_L3,2021.2.3,Win32,60.28090904,,,,,,,,,,,0.7519,1,,,,,,,,,,,,,,,,,,,,,,,,-0.080555531,-0.384259286,0,0,0,,,,,,,JAGUAR,LB,m,m,./images/JAGUARLB.png,,,,,,,,,,,,,,,,,,,,,m,1,0.7519,,,,,,,,0,108,108,18,1
,,,,,,,,,,,,,,,,,612e1df9913c996adb2a42a6,64,2022-02-12_15h53.11.877,lexical_decision_task_DD_L3,2021.2.3,Win32,60.28090904,,,,,,,,,,,0.7844,1,,,,,,,,,,,,,,,,,,,,,,,,-0.080555531,-0.384259286,0,0,0,,,,,,,PLANET,HB,z,m,./images/PLANETHB.png,,,,,,,,,,,,,,,,,,,,,z,1,0.7844,,,,,,,,0,109,109,164,1
,,,,,,,,,,,,,,,,,612e1df9913c996adb2a42a6,64,2022-02-12_15h53.11.877,lexical_decision_task_DD_L3,2021.2.3,Win32,60.28090904,,,,,,,,,,,0.7849,1,,,,,,,,,,,,,,,,,,,,,,,,-0.080555531,-0.384259286,0,0,0,,,,,,,WAGON,C,z,m,./images/WAGON.png,,,,,,,,,,,,,,,,,,,,,z,1,0.7849,,,,,,,,0,110,110,91,1
,,,,,,,,,,,,,,,,,612e1df9913c996adb2a42a6,64,2022-02-12_15h53.11.877,lexical_decision_task_DD_L3,2021.2.3,Win32,60.28090904,,,,,,,,,,,0.639,1,,,,,,,,,,,,,,,,,,,,,,,,-0.080555531,-0.384259286,0,0,0,,,,,,,PURSE,HB,m,m,./images/PURSEHB.png,,,,,,,,,,,,,,,,,,,,,m,1,0.639,,,,,,,,0,111,111,62,1
,,,,,,,,,,,,,,,,,612e1df9913c996adb2a42a6,64,2022-02-12_15h53.11.877,lexical_decision_task_DD_L3,2021.2.3,Win32,60.28090904,,,,,,,,,,,0.5546,1,,,,,,,,,,,,,,,,,,,,,,,,-0.080555531,-0.384259286,0,0,0,,,,,,,CRUMB,HB,m,m,./images/CRUMBHB.png,,,,,,,,,,,,,,,,,,,,,m,1,0.5546,,,,,,,,0,112,112,29,1
,,,,,,,,,,,,,,,,,612e1df9913c996adb2a42a6,64,2022-02-12_15h53.11.877,lexical_decision_task_DD_L3,2021.2.3,Win32,60.28090904,,,,,,,,,,,0.8336,1,,,,,,,,,,,,,,,,,,,,,,,,-0.080555531,-0.384259286,0,0,0,,,,,,,PARADE,HB,z,m,./images/PARADEHB.png,,,,,,,,,,,,,,,,,,,,,z,1,0.8336,,,,,,,,0,113,113,101,1
,,,,,,,,,,,,,,,,,612e1df9913c996adb2a42a6,64,2022-02-12_15h53.11.877,lexical_decision_task_DD_L3,2021.2.3,Win32,60.28090904,,,,,,,,,,,1.2492,1,,,,,,,,,,,,,,,,,,,,,,,,-0.080555531,-0.384259286,0,0,0,,,,,,,DANCER,LB,z,m,./images/DANCERLB.png,,,,,,,,,,,,,,,,,,,,,z,1,1.2492,,,,,,,,0,114,114,105,1
,,,,,,,,,,,,,,,,,612e1df9913c996adb2a42a6,64,2022-02-12_15h53.11.877,lexical_decision_task_DD_L3,2021.2.3,Win32,60.28090904,,,,,,,,,,,0.502,1,,,,,,,,,,,,,,,,,,,,,,,,-0.080555531,-0.384259286,0,0,0,,,,,,,BERRY,HB,m,m,./images/BERRYHB.png,,,,,,,,,,,,,,,,,,,,,m,1,0.502,,,,,,,,0,115,115,47,1
,,,,,,,,,,,,,,,,,612e1df9913c996adb2a42a6,64,2022-02-12_15h53.11.877,lexical_decision_task_DD_L3,2021.2.3,Win32,60.28090904,,,,,,,,,,,0.9023,1,,,,,,,,,,,,,,,,,,,,,,,,-0.080555531,-0.384259286,0,0,0,,,,,,,GRAPE,C,z,m,./images/GRAPE.png,,,,,,,,,,,,,,,,,,,,,z,1,0.9023,,,,,,,,0,116,116,100,1
,,,,,,,,,,,,,,,,,612e1df9913c996adb2a42a6,64,2022-02-12_15h53.11.877,lexical_decision_task_DD_L3,2021.2.3,Win32,60.28090904,,,,,,,,,,,0.7189,1,,,,,,,,,,,,,,,,,,,,,,,,-0.080555531,-0.384259286,0,0,0,,,,,,,CLIFF,HB,z,m,./images/CLIFFHB.png,,,,,,,,,,,,,,,,,,,,,z,1,0.7189,,,,,,,,0,117,117,92,1
,,,,,,,,,,,,,,,,,612e1df9913c996adb2a42a6,64,2022-02-12_15h53.11.877,lexical_decision_task_DD_L3,2021.2.3,Win32,60.28090904,,,,,,,,,,,0.6509,0,,,,,,,,,,,,,,,,,,,,,,,,-0.080555531,-0.384259286,0,0,0,,,,,,,MAMMAL,HB,z,m,./images/MAMMALHB.png,,,,,,,,,,,,,,,,,,,,,m,0,0.6509,,,,,,,,0,118,118,146,1
,,,,,,,,,,,,,,,,,612e1df9913c996adb2a42a6,64,2022-02-12_15h53.11.877,lexical_decision_task_DD_L3,2021.2.3,Win32,60.28090904,,,,,,,,,,,0.6179,1,,,,,,,,,,,,,,,,,,,,,,,,-0.080555531,-0.384259286,0,0,0,,,,,,,POODLE,LB,m,m,./images/POODLELB.png,,,,,,,,,,,,,,,,,,,,,m,1,0.6179,,,,,,,,0,119,119,81,1
,,,,,,,,,,,,,,,,,612e1df9913c996adb2a42a6,64,2022-02-12_15h53.11.877,lexical_decision_task_DD_L3,2021.2.3,Win32,60.28090904,,,,,,,,,,,0.8015,0,,,,,,,,,,,,,,,,,,,,,,,,-0.080555531,-0.384259286,0,0,0,,,,,,,FALCON,C,m,m,./images/FALCON.png,,,,,,,,,,,,,,,,,,,,,z,0,0.8015,,,,,,,,0,120,120,28,1
,,,,,,,,,,,,,,,,,612e1df9913c996adb2a42a6,64,2022-02-12_15h53.11.877,lexical_decision_task_DD_L3,2021.2.3,Win32,60.28090904,,,,,,,,,,,0.6342,0,,,,,,,,,,,,,,,,,,,,,,,,-0.080555531,-0.384259286,0,0,0,,,,,,,BABOON,C,m,m,./images/BABOON.png,,,,,,,,,,,,,,,,,,,,,z,0,0.6342,,,,,,,,0,121,121,58,1
,,,,,,,,,,,,,,,,,612e1df9913c996adb2a42a6,64,2022-02-12_15h53.11.877,lexical_decision_task_DD_L3,2021.2.3,Win32,60.28090904,,,,,,,,,,,0.6347,1,,,,,,,,,,,,,,,,,,,,,,,,-0.080555531,-0.384259286,0,0,0,,,,,,,TOMATO,LB,m,m,./images/TOMATOLB.png,,,,,,,,,,,,,,,,,,,,,m,1,0.6347,,,,,,,,0,122,122,0,1
,,,,,,,,,,,,,,,,,612e1df9913c996adb2a42a6,64,2022-02-12_15h53.11.877,lexical_decision_task_DD_L3,2021.2.3,Win32,60.28090904,,,,,,,,,,,0.9874,0,,,,,,,,,,,,,,,,,,,,,,,,-0.080555531,-0.384259286,0,0,0,,,,,,,CANYON,C,m,m,./images/CANYON.png,,,,,,,,,,,,,,,,,,,,,z,0,0.9874,,,,,,,,0,123,123,34,1
,,,,,,,,,,,,,,,,,612e1df9913c996adb2a42a6,64,2022-02-12_15h53.11.877,lexical_decision_task_DD_L3,2021.2.3,Win32,60.28090904,,,,,,,,,,,0.5678,1,,,,,,,,,,,,,,,,,,,,,,,,-0.080555531,-0.384259286,0,0,0,,,,,,,JELLY,C,m,m,./images/JELLY.png,,,,,,,,,,,,,,,,,,,,,m,1,0.5678,,,,,,,,0,124,124,64,1
,,,,,,,,,,,,,,,,,612e1df9913c996adb2a42a6,64,2022-02-12_15h53.11.877,lexical_decision_task_DD_L3,2021.2.3,Win32,60.28090904,,,,,,,,,,,0.5686,1,,,,,,,,,,,,,,,,,,,,,,,,-0.080555531,-0.384259286,0,0,0,space,,,,,,PEARL,C,m,m,./images/PEARL.png,190.2562,,,,,,,,,,,,,,,,,,,,m,1,0.5686,,,,,,,,0,125,125,46,1
,,,,,,,,,,,,,,,,,612e1df9913c996adb2a42a6,64,2022-02-12_15h53.11.877,lexical_decision_task_DD_L3,2021.2.3,Win32,60.28090904,,,,,,,,,,,0.7672,0,,,,,,,,,,,,,,,,,,,,,,,,-0.080555531,-0.384259286,0,0,0,,,,,,,BAKER,LB,z,m,./images/BAKERLB.png,,,,,,,,,,,,,,,,,,,,,m,0,0.7672,,,,,,,,0,126,126,147,1
,,,,,,,,,,,,,,,,,612e1df9913c996adb2a42a6,64,2022-02-12_15h53.11.877,lexical_decision_task_DD_L3,2021.2.3,Win32,60.28090904,,,,,,,,,,,0.8828,1,,,,,,,,,,,,,,,,,,,,,,,,-0.080555531,-0.384259286,0,0,0,,,,,,,DONKEY,C,z,m,./images/DONKEY.png,,,,,,,,,,,,,,,,,,,,,z,1,0.8828,,,,,,,,0,127,127,103,1
,,,,,,,,,,,,,,,,,612e1df9913c996adb2a42a6,64,2022-02-12_15h53.11.877,lexical_decision_task_DD_L3,2021.2.3,Win32,60.28090904,,,,,,,,,,,0.702,1,,,,,,,,,,,,,,,,,,,,,,,,-0.080555531,-0.384259286,0,0,0,,,,,,,MELON,C,m,m,./images/MELON.png,,,,,,,,,,,,,,,,,,,,,m,1,0.702,,,,,,,,0,128,128,22,1
,,,,,,,,,,,,,,,,,612e1df9913c996adb2a42a6,64,2022-02-12_15h53.11.877,lexical_decision_task_DD_L3,2021.2.3,Win32,60.28090904,,,,,,,,,,,1.0195,1,,,,,,,,,,,,,,,,,,,,,,,,-0.080555531,-0.384259286,0,0,0,,,,,,,MEDAL,HB,z,m,./images/MEDALHB.png,,,,,,,,,,,,,,,,,,,,,z,1,1.0195,,,,,,,,0,129,129,95,1
,,,,,,,,,,,,,,,,,612e1df9913c996adb2a42a6,64,2022-02-12_15h53.11.877,lexical_decision_task_DD_L3,2021.2.3,Win32,60.28090904,,,,,,,,,,,0.6868,1,,,,,,,,,,,,,,,,,,,,,,,,-0.080555531,-0.384259286,0,0,0,,,,,,,PIMPLE,HB,m,m,./images/PIMPLEHB.png,,,,,,,,,,,,,,,,,,,,,m,1,0.6868,,,,,,,,0,130,130,71,1
