key_resp.keys,key_resp.rt,instr_done_touch.x,instr_done_touch.y,instr_done_touch.leftButton,instr_done_touch.midButton,instr_done_touch.rightButton,instruction_pages.thisRepN,instruction_pages.thisTrialN,instruction_pages.thisN,instruction_pages.thisIndex,instruction_pages.ran,pageN,phase,instruct_text,has_image,instruct_image,participant,age,date,expName,psychopyVersion,OS,frameRate,response.keys,response.corr,response.rt,touch_resp.x,touch_resp.y,touch_resp.leftButton,touch_resp.midButton,touch_resp.rightButton,touch_resp.time,touch_resp.clicked_name,rt,corr,practrials.thisRepN,practrials.thisTrialN,practrials.thisN,practrials.thisIndex,practrials.ran,TrialID,Target,corrAns,end_of_practice_trials_pages.thisRepN,end_of_practice_trials_pages.thisTrialN,end_of_practice_trials_pages.thisN,end_of_practice_trials_pages.thisIndex,end_of_practice_trials_pages.ran,key_resp_2.keys,key_resp_2.corr,key_resp_2.rt,targ_click.x,targ_click.y,targ_click.leftButton,targ_click.midButton,targ_click.rightButton,targ_click.time,targ_click.clicked_name,break_done_touch.x,break_done_touch.y,break_done_touch.leftButton,break_done_touch.midButton,break_done_touch.rightButton,break_done_keyboard.keys,maintrials.thisRepN,maintrials.thisTrialN,maintrials.thisN,maintrials.thisIndex,maintrials.ran,string,blur,study,lex,stim_path,break_done_keyboard.rt,mouse_2.x,mouse_2.y,mouse_2.leftButton,mouse_2.midButton,mouse_2.rightButton,mouse_2.clicked_name,slider.response,slider.rt,trials.thisRepN,trials.thisTrialN,trials.thisN,trials.thisIndex,trials.ran,test_instructions.thisRepN,test_instructions.thisTrialN,test_instructions.thisN,test_instructions.thisIndex,test_instructions.ran,instr_done_touch.clicked_name,key_resp_3.keys,key_resp_3.corr,key_resp_3.rt,test_click.x,test_click.y,test_click.leftButton,test_click.midButton,test_click.rightButton,test_click.time,test_click.clicked_name,test_phase.thisRepN,test_phase.thisTrialN,test_phase.thisN,test_phase.thisIndex,test_phase.ran
space,25.8,0.24875,-0.22625,0,0,0,0,0,0,0,1,1,instructions,"INSTRUCTIONS
At the start of each trial, look at the plus sign  (+) in the center of the screen.  This tells you that a trial is about to begin and where to look. Second, the plus sign will disappear and a string of letters will appear. Your task is to determine if the string of letters is a word or not. If the item is a word press the M key (on keyboard)  or touch the word button (phone/tablet).  If the item is not a word,  press the  Z key (on keyboard)  or touch the nonword button (on phone/tablet). 
Press the space bar or touch  continue.",0,,613c381cde82d55e452d621a,30,2022-02-12_16h48.23.776,lexical_decision_task_DD,2021.2.3,MacIntel,58.82352941,,,,,,,,,,,,,,,,,,,,,,,,,,,,,,,,,,,,,,,,,,,,,,,,,,,,,,,,,,,,,,,,,,,,,,,,,,,,,,,,,,,,,,
space,5.433,0.24875,-0.22625,0,0,0,0,1,1,1,1,2,instructions,"If your device has a keyboard, press the 'Z' key for nonwords and the 'M' key for words.





Press the space bar or touch the button below to continue.",0,keyboard-example.gif,613c381cde82d55e452d621a,30,2022-02-12_16h48.23.776,lexical_decision_task_DD,2021.2.3,MacIntel,58.82352941,,,,,,,,,,,,,,,,,,,,,,,,,,,,,,,,,,,,,,,,,,,,,,,,,,,,,,,,,,,,,,,,,,,,,,,,,,,,,,,,,,,,,,
space,2.531,0.24875,-0.22625,0,0,0,0,2,2,2,1,3,instructions,"If you are using a touchscreen only device, use the buttons on the screen. Do not use the mouse.





Press the space bar or touch the button below to continue.",0,touchscreen-example.gif,613c381cde82d55e452d621a,30,2022-02-12_16h48.23.776,lexical_decision_task_DD,2021.2.3,MacIntel,58.82352941,,,,,,,,,,,,,,,,,,,,,,,,,,,,,,,,,,,,,,,,,,,,,,,,,,,,,,,,,,,,,,,,,,,,,,,,,,,,,,,,,,,,,,
space,9.077,0.24875,-0.22625,0,0,0,0,3,3,3,1,4,instructions,"It is very important that you respond as quickly and accurately as possible, as each letter string will only be on the screen for two seconds. If you do not respond within this time, the message 'Too slow!' will be displayed and the experiment will progress to the next letter string. The first 20 trials will be practice trials and you will receive feedback on your answers. 

Press the space bar or touch the button below to start the practice trials.",0,,613c381cde82d55e452d621a,30,2022-02-12_16h48.23.776,lexical_decision_task_DD,2021.2.3,MacIntel,58.82352941,,,,,,,,,,,,,,,,,,,,,,,,,,,,,,,,,,,,,,,,,,,,,,,,,,,,,,,,,,,,,,,,,,,,,,,,,,,,,,,,,,,,,,
,,,,,,,,,,,,,,,,,613c381cde82d55e452d621a,30,2022-02-12_16h48.23.776,lexical_decision_task_DD,2021.2.3,MacIntel,58.82352941,z,1,1.097,,,,,,,,1.097,1,0,0,0,11,1,1001,RASHET,z,,,,,,,,,,,,,,,,,,,,,,,,,,,,,,,,,,,,,,,,,,,,,,,,,,,,,,,,,,,,,,,,,,
,,,,,,,,,,,,,,,,,613c381cde82d55e452d621a,30,2022-02-12_16h48.23.776,lexical_decision_task_DD,2021.2.3,MacIntel,58.82352941,z,1,1.088,,,,,,,,1.088,1,0,1,1,10,1,1001,INLADE,z,,,,,,,,,,,,,,,,,,,,,,,,,,,,,,,,,,,,,,,,,,,,,,,,,,,,,,,,,,,,,,,,,,
,,,,,,,,,,,,,,,,,613c381cde82d55e452d621a,30,2022-02-12_16h48.23.776,lexical_decision_task_DD,2021.2.3,MacIntel,58.82352941,m,1,0.701,,,,,,,,0.701,1,0,2,2,6,1,1001,ZOMBIE,m,,,,,,,,,,,,,,,,,,,,,,,,,,,,,,,,,,,,,,,,,,,,,,,,,,,,,,,,,,,,,,,,,,
,,,,,,,,,,,,,,,,,613c381cde82d55e452d621a,30,2022-02-12_16h48.23.776,lexical_decision_task_DD,2021.2.3,MacIntel,58.82352941,m,1,0.62,,,,,,,,0.62,1,0,3,3,2,1,1001,ALMOND,m,,,,,,,,,,,,,,,,,,,,,,,,,,,,,,,,,,,,,,,,,,,,,,,,,,,,,,,,,,,,,,,,,,
,,,,,,,,,,,,,,,,,613c381cde82d55e452d621a,30,2022-02-12_16h48.23.776,lexical_decision_task_DD,2021.2.3,MacIntel,58.82352941,z,1,0.953,,,,,,,,0.953,1,0,4,4,12,1,1001,SPRINY,z,,,,,,,,,,,,,,,,,,,,,,,,,,,,,,,,,,,,,,,,,,,,,,,,,,,,,,,,,,,,,,,,,,
,,,,,,,,,,,,,,,,,613c381cde82d55e452d621a,30,2022-02-12_16h48.23.776,lexical_decision_task_DD,2021.2.3,MacIntel,58.82352941,m,1,0.7,,,,,,,,0.7,1,0,5,5,3,1,1001,MATRIX,m,,,,,,,,,,,,,,,,,,,,,,,,,,,,,,,,,,,,,,,,,,,,,,,,,,,,,,,,,,,,,,,,,,
,,,,,,,,,,,,,,,,,613c381cde82d55e452d621a,30,2022-02-12_16h48.23.776,lexical_decision_task_DD,2021.2.3,MacIntel,58.82352941,m,1,0.677,,,,,,,,0.677,1,0,6,6,1,1,1001,ADJUST,m,,,,,,,,,,,,,,,,,,,,,,,,,,,,,,,,,,,,,,,,,,,,,,,,,,,,,,,,,,,,,,,,,,
,,,,,,,,,,,,,,,,,613c381cde82d55e452d621a,30,2022-02-12_16h48.23.776,lexical_decision_task_DD,2021.2.3,MacIntel,58.82352941,z,1,0.702,,,,,,,,0.702,1,0,7,7,15,1,1001,WHAISE,z,,,,,,,,,,,,,,,,,,,,,,,,,,,,,,,,,,,,,,,,,,,,,,,,,,,,,,,,,,,,,,,,,,
,,,,,,,,,,,,,,,,,613c381cde82d55e452d621a,30,2022-02-12_16h48.23.776,lexical_decision_task_DD,2021.2.3,MacIntel,58.82352941,z,1,0.812,,,,,,,,0.812,1,0,8,8,14,1,1001,THRALE,z,,,,,,,,,,,,,,,,,,,,,,,,,,,,,,,,,,,,,,,,,,,,,,,,,,,,,,,,,,,,,,,,,,
,,,,,,,,,,,,,,,,,613c381cde82d55e452d621a,30,2022-02-12_16h48.23.776,lexical_decision_task_DD,2021.2.3,MacIntel,58.82352941,m,1,0.695,,,,,,,,0.695,1,0,9,9,5,1,1001,OBTAIN,m,,,,,,,,,,,,,,,,,,,,,,,,,,,,,,,,,,,,,,,,,,,,,,,,,,,,,,,,,,,,,,,,,,
,,,,,,,,,,,,,,,,,613c381cde82d55e452d621a,30,2022-02-12_16h48.23.776,lexical_decision_task_DD,2021.2.3,MacIntel,58.82352941,z,1,0.804,,,,,,,,0.804,1,0,10,10,13,1,1001,ROUPET,z,,,,,,,,,,,,,,,,,,,,,,,,,,,,,,,,,,,,,,,,,,,,,,,,,,,,,,,,,,,,,,,,,,
,,,,,,,,,,,,,,,,,613c381cde82d55e452d621a,30,2022-02-12_16h48.23.776,lexical_decision_task_DD,2021.2.3,MacIntel,58.82352941,m,1,0.64,,,,,,,,0.64,1,0,11,11,0,1,1001,UTOPIA,m,,,,,,,,,,,,,,,,,,,,,,,,,,,,,,,,,,,,,,,,,,,,,,,,,,,,,,,,,,,,,,,,,,
,,,,,,,,,,,,,,,,,613c381cde82d55e452d621a,30,2022-02-12_16h48.23.776,lexical_decision_task_DD,2021.2.3,MacIntel,58.82352941,m,1,0.63,,,,,,,,0.63,1,0,12,12,7,1,1001,VOLUME,m,,,,,,,,,,,,,,,,,,,,,,,,,,,,,,,,,,,,,,,,,,,,,,,,,,,,,,,,,,,,,,,,,,
,,,,,,,,,,,,,,,,,613c381cde82d55e452d621a,30,2022-02-12_16h48.23.776,lexical_decision_task_DD,2021.2.3,MacIntel,58.82352941,z,1,0.717,,,,,,,,0.717,1,0,13,13,9,1,1001,FARINY,z,,,,,,,,,,,,,,,,,,,,,,,,,,,,,,,,,,,,,,,,,,,,,,,,,,,,,,,,,,,,,,,,,,
,,,,,,,,,,,,,,,,,613c381cde82d55e452d621a,30,2022-02-12_16h48.23.776,lexical_decision_task_DD,2021.2.3,MacIntel,58.82352941,m,1,0.63,,,,,,,,0.63,1,0,14,14,4,1,1001,SQUEAK,m,,,,,,,,,,,,,,,,,,,,,,,,,,,,,,,,,,,,,,,,,,,,,,,,,,,,,,,,,,,,,,,,,,
,,,,,,,,,,,,,,,,,613c381cde82d55e452d621a,30,2022-02-12_16h48.23.776,lexical_decision_task_DD,2021.2.3,MacIntel,58.82352941,z,1,0.714,,,,,,,,0.714,1,0,15,15,8,1,1001,ASLERT,z,,,,,,,,,,,,,,,,,,,,,,,,,,,,,,,,,,,,,,,,,,,,,,,,,,,,,,,,,,,,,,,,,,
space,3.96,0.24875,-0.22625,0,0,0,,,,,,1,end_of_practice,"You have completed the practice trials. During the experimental trials, you will not receive feedback. 
Before you begin, please ensure that you are in a comfortable and quiet location and will not be disturbed for about 15 minutes, as we cannot use your data if you do not complete all the trials. 
 When you are ready to start the experimental trials, please press space or touch the button below.",,,613c381cde82d55e452d621a,30,2022-02-12_16h48.23.776,lexical_decision_task_DD,2021.2.3,MacIntel,58.82352941,,,,,,,,,,,,,,,,,,,,,0,0,0,0,1,,,,,,,,,,,,,,,,,,,,,,,,,,,,,,,,,,,,,,,,,,,,,,,,,,,,,,,,,,,,,
,,,,,,,,,,,,,,,,,613c381cde82d55e452d621a,30,2022-02-12_16h48.23.776,lexical_decision_task_DD,2021.2.3,MacIntel,58.82352941,,,,,,,,,,,0.675,1,,,,,,,,,,,,,,m,1,0.675,,,,,,,,0.24875,-0.22625,0,0,0,,0,0,0,57,1,MOOSE,C,old,m,./images/MOOSE.png,,,,,,,,,,,,,,,,,,,,,,,,,,,,,,,,,,,
,,,,,,,,,,,,,,,,,613c381cde82d55e452d621a,30,2022-02-12_16h48.23.776,lexical_decision_task_DD,2021.2.3,MacIntel,58.82352941,,,,,,,,,,,1.82,0,,,,,,,,,,,,,,m,0,1.82,,,,,,,,0.24875,-0.22625,0,0,0,,0,1,1,100,1,DRIBS,HB,old,z,./images/DRIBSHB.png,,,,,,,,,,,,,,,,,,,,,,,,,,,,,,,,,,,
,,,,,,,,,,,,,,,,,613c381cde82d55e452d621a,30,2022-02-12_16h48.23.776,lexical_decision_task_DD,2021.2.3,MacIntel,58.82352941,,,,,,,,,,,0.68,1,,,,,,,,,,,,,,m,1,0.68,,,,,,,,0.24875,-0.22625,0,0,0,,0,2,2,29,1,CRUMB,LB,old,m,./images/CRUMBLB.png,,,,,,,,,,,,,,,,,,,,,,,,,,,,,,,,,,,
,,,,,,,,,,,,,,,,,613c381cde82d55e452d621a,30,2022-02-12_16h48.23.776,lexical_decision_task_DD,2021.2.3,MacIntel,58.82352941,,,,,,,,,,,0.682,1,,,,,,,,,,,,,,z,1,0.682,,,,,,,,0.24875,-0.22625,0,0,0,,0,3,3,167,1,ZONET,LB,old,z,./images/ZONETLB.png,,,,,,,,,,,,,,,,,,,,,,,,,,,,,,,,,,,
,,,,,,,,,,,,,,,,,613c381cde82d55e452d621a,30,2022-02-12_16h48.23.776,lexical_decision_task_DD,2021.2.3,MacIntel,58.82352941,,,,,,,,,,,0.681,1,,,,,,,,,,,,,,m,1,0.681,,,,,,,,0.24875,-0.22625,0,0,0,,0,4,4,77,1,COUCH,LB,old,m,./images/COUCHLB.png,,,,,,,,,,,,,,,,,,,,,,,,,,,,,,,,,,,
,,,,,,,,,,,,,,,,,613c381cde82d55e452d621a,30,2022-02-12_16h48.23.776,lexical_decision_task_DD,2021.2.3,MacIntel,58.82352941,,,,,,,,,,,1.592,1,,,,,,,,,,,,,,z,1,1.592,,,,,,,,0.24875,-0.22625,0,0,0,,0,5,5,109,1,BURGE,HB,old,z,./images/BURGEHB.png,,,,,,,,,,,,,,,,,,,,,,,,,,,,,,,,,,,
,,,,,,,,,,,,,,,,,613c381cde82d55e452d621a,30,2022-02-12_16h48.23.776,lexical_decision_task_DD,2021.2.3,MacIntel,58.82352941,,,,,,,,,,,0.983,1,,,,,,,,,,,,,,m,1,0.983,,,,,,,,0.24875,-0.22625,0,0,0,,0,6,6,70,1,URINE,HB,old,m,./images/URINEHB.png,,,,,,,,,,,,,,,,,,,,,,,,,,,,,,,,,,,
,,,,,,,,,,,,,,,,,613c381cde82d55e452d621a,30,2022-02-12_16h48.23.776,lexical_decision_task_DD,2021.2.3,MacIntel,58.82352941,,,,,,,,,,,0.709,1,,,,,,,,,,,,,,m,1,0.709,,,,,,,,0.24875,-0.22625,0,0,0,,0,7,7,7,1,PAINT,HB,old,m,./images/PAINTHB.png,,,,,,,,,,,,,,,,,,,,,,,,,,,,,,,,,,,
,,,,,,,,,,,,,,,,,613c381cde82d55e452d621a,30,2022-02-12_16h48.23.776,lexical_decision_task_DD,2021.2.3,MacIntel,58.82352941,,,,,,,,,,,0.682,1,,,,,,,,,,,,,,z,1,0.682,,,,,,,,0.24875,-0.22625,0,0,0,,0,8,8,102,1,DULLE,C,old,z,./images/DULLE.png,,,,,,,,,,,,,,,,,,,,,,,,,,,,,,,,,,,
,,,,,,,,,,,,,,,,,613c381cde82d55e452d621a,30,2022-02-12_16h48.23.776,lexical_decision_task_DD,2021.2.3,MacIntel,58.82352941,,,,,,,,,,,0.783,1,,,,,,,,,,,,,,m,1,0.783,,,,,,,,0.24875,-0.22625,0,0,0,,0,9,9,12,1,SHORE,C,old,m,./images/SHORE.png,,,,,,,,,,,,,,,,,,,,,,,,,,,,,,,,,,,
,,,,,,,,,,,,,,,,,613c381cde82d55e452d621a,30,2022-02-12_16h48.23.776,lexical_decision_task_DD,2021.2.3,MacIntel,58.82352941,,,,,,,,,,,0.581,1,,,,,,,,,,,,,,m,1,0.581,,,,,,,,0.24875,-0.22625,0,0,0,,0,10,10,78,1,LITTER,C,old,m,./images/LITTER.png,,,,,,,,,,,,,,,,,,,,,,,,,,,,,,,,,,,
,,,,,,,,,,,,,,,,,613c381cde82d55e452d621a,30,2022-02-12_16h48.23.776,lexical_decision_task_DD,2021.2.3,MacIntel,58.82352941,,,,,,,,,,,1.414,1,,,,,,,,,,,,,,z,1,1.414,,,,,,,,0.24875,-0.22625,0,0,0,,0,11,11,157,1,INLER,HB,old,z,./images/INLERHB.png,,,,,,,,,,,,,,,,,,,,,,,,,,,,,,,,,,,
,,,,,,,,,,,,,,,,,613c381cde82d55e452d621a,30,2022-02-12_16h48.23.776,lexical_decision_task_DD,2021.2.3,MacIntel,58.82352941,,,,,,,,,,,0.908,1,,,,,,,,,,,,,,z,1,0.908,,,,,,,,0.24875,-0.22625,0,0,0,,0,12,12,87,1,TRING,C,old,z,./images/TRING.png,,,,,,,,,,,,,,,,,,,,,,,,,,,,,,,,,,,
,,,,,,,,,,,,,,,,,613c381cde82d55e452d621a,30,2022-02-12_16h48.23.776,lexical_decision_task_DD,2021.2.3,MacIntel,58.82352941,,,,,,,,,,,1.06,1,,,,,,,,,,,,,,z,1,1.06,,,,,,,,0.24875,-0.22625,0,0,0,,0,13,13,115,1,MAWNS,HB,old,z,./images/MAWNSHB.png,,,,,,,,,,,,,,,,,,,,,,,,,,,,,,,,,,,
,,,,,,,,,,,,,,,,,613c381cde82d55e452d621a,30,2022-02-12_16h48.23.776,lexical_decision_task_DD,2021.2.3,MacIntel,58.82352941,,,,,,,,,,,0.859,1,,,,,,,,,,,,,,m,1,0.859,,,,,,,,0.24875,-0.22625,0,0,0,,0,14,14,10,1,BELLY,HB,old,m,./images/BELLYHB.png,,,,,,,,,,,,,,,,,,,,,,,,,,,,,,,,,,,
,,,,,,,,,,,,,,,,,613c381cde82d55e452d621a,30,2022-02-12_16h48.23.776,lexical_decision_task_DD,2021.2.3,MacIntel,58.82352941,,,,,,,,,,,0.833,1,,,,,,,,,,,,,,z,1,0.833,,,,,,,,0.24875,-0.22625,0,0,0,,0,15,15,137,1,JOOST,LB,old,z,./images/JOOSTLB.png,,,,,,,,,,,,,,,,,,,,,,,,,,,,,,,,,,,
,,,,,,,,,,,,,,,,,613c381cde82d55e452d621a,30,2022-02-12_16h48.23.776,lexical_decision_task_DD,2021.2.3,MacIntel,58.82352941,,,,,,,,,,,0.985,1,,,,,,,,,,,,,,m,1,0.985,,,,,,,,0.24875,-0.22625,0,0,0,,0,16,16,75,1,GRAIN,C,old,m,./images/GRAIN.png,,,,,,,,,,,,,,,,,,,,,,,,,,,,,,,,,,,
,,,,,,,,,,,,,,,,,613c381cde82d55e452d621a,30,2022-02-12_16h48.23.776,lexical_decision_task_DD,2021.2.3,MacIntel,58.82352941,,,,,,,,,,,0.937,1,,,,,,,,,,,,,,m,1,0.937,,,,,,,,0.24875,-0.22625,0,0,0,,0,17,17,25,1,WRIST,HB,old,m,./images/WRISTHB.png,,,,,,,,,,,,,,,,,,,,,,,,,,,,,,,,,,,
,,,,,,,,,,,,,,,,,613c381cde82d55e452d621a,30,2022-02-12_16h48.23.776,lexical_decision_task_DD,2021.2.3,MacIntel,58.82352941,,,,,,,,,,,0.783,1,,,,,,,,,,,,,,m,1,0.783,,,,,,,,0.24875,-0.22625,0,0,0,,0,18,18,64,1,JELLY,HB,old,m,./images/JELLYHB.png,,,,,,,,,,,,,,,,,,,,,,,,,,,,,,,,,,,
,,,,,,,,,,,,,,,,,613c381cde82d55e452d621a,30,2022-02-12_16h48.23.776,lexical_decision_task_DD,2021.2.3,MacIntel,58.82352941,,,,,,,,,,,0.731,1,,,,,,,,,,,,,,z,1,0.731,,,,,,,,0.24875,-0.22625,0,0,0,,0,19,19,158,1,EGECT,LB,old,z,./images/EGECTLB.png,,,,,,,,,,,,,,,,,,,,,,,,,,,,,,,,,,,
,,,,,,,,,,,,,,,,,613c381cde82d55e452d621a,30,2022-02-12_16h48.23.776,lexical_decision_task_DD,2021.2.3,MacIntel,58.82352941,,,,,,,,,,,0.581,1,,,,,,,,,,,,,,m,1,0.581,,,,,,,,0.24875,-0.22625,0,0,0,,0,20,20,45,1,KITTEN,C,old,m,./images/KITTEN.png,,,,,,,,,,,,,,,,,,,,,,,,,,,,,,,,,,,
,,,,,,,,,,,,,,,,,613c381cde82d55e452d621a,30,2022-02-12_16h48.23.776,lexical_decision_task_DD,2021.2.3,MacIntel,58.82352941,,,,,,,,,,,0.733,1,,,,,,,,,,,,,,m,1,0.733,,,,,,,,0.24875,-0.22625,0,0,0,,0,21,21,4,1,MUSCLE,HB,old,m,./images/MUSCLEHB.png,,,,,,,,,,,,,,,,,,,,,,,,,,,,,,,,,,,
,,,,,,,,,,,,,,,,,613c381cde82d55e452d621a,30,2022-02-12_16h48.23.776,lexical_decision_task_DD,2021.2.3,MacIntel,58.82352941,,,,,,,,,,,0.582,1,,,,,,,,,,,,,,m,1,0.582,,,,,,,,0.24875,-0.22625,0,0,0,,0,22,22,26,1,SMOKER,LB,old,m,./images/SMOKERLB.png,,,,,,,,,,,,,,,,,,,,,,,,,,,,,,,,,,,
,,,,,,,,,,,,,,,,,613c381cde82d55e452d621a,30,2022-02-12_16h48.23.776,lexical_decision_task_DD,2021.2.3,MacIntel,58.82352941,,,,,,,,,,,0.633,1,,,,,,,,,,,,,,z,1,0.633,,,,,,,,0.24875,-0.22625,0,0,0,,0,23,23,138,1,PLICE,C,old,z,./images/PLICE.png,,,,,,,,,,,,,,,,,,,,,,,,,,,,,,,,,,,
,,,,,,,,,,,,,,,,,613c381cde82d55e452d621a,30,2022-02-12_16h48.23.776,lexical_decision_task_DD,2021.2.3,MacIntel,58.82352941,,,,,,,,,,,0.733,1,,,,,,,,,,,,,,z,1,0.733,,,,,,,,0.24875,-0.22625,0,0,0,,0,24,24,123,1,SEDGE,C,old,z,./images/SEDGE.png,,,,,,,,,,,,,,,,,,,,,,,,,,,,,,,,,,,
,,,,,,,,,,,,,,,,,613c381cde82d55e452d621a,30,2022-02-12_16h48.23.776,lexical_decision_task_DD,2021.2.3,MacIntel,58.82352941,,,,,,,,,,,0.632,1,,,,,,,,,,,,,,m,1,0.632,,,,,,,,0.24875,-0.22625,0,0,0,,0,25,25,33,1,MAGGOT,C,old,m,./images/MAGGOT.png,,,,,,,,,,,,,,,,,,,,,,,,,,,,,,,,,,,
,,,,,,,,,,,,,,,,,613c381cde82d55e452d621a,30,2022-02-12_16h48.23.776,lexical_decision_task_DD,2021.2.3,MacIntel,58.82352941,,,,,,,,,,,0.682,1,,,,,,,,,,,,,,m,1,0.682,,,,,,,,0.24875,-0.22625,0,0,0,,0,26,26,56,1,PACKET,LB,old,m,./images/PACKETLB.png,,,,,,,,,,,,,,,,,,,,,,,,,,,,,,,,,,,
,,,,,,,,,,,,,,,,,613c381cde82d55e452d621a,30,2022-02-12_16h48.23.776,lexical_decision_task_DD,2021.2.3,MacIntel,58.82352941,,,,,,,,,,,1.743,1,,,,,,,,,,,,,,z,1,1.743,,,,,,,,0.24875,-0.22625,0,0,0,,0,27,27,85,1,CHULK,HB,old,z,./images/CHULKHB.png,,,,,,,,,,,,,,,,,,,,,,,,,,,,,,,,,,,
,,,,,,,,,,,,,,,,,613c381cde82d55e452d621a,30,2022-02-12_16h48.23.776,lexical_decision_task_DD,2021.2.3,MacIntel,58.82352941,,,,,,,,,,,0.832,1,,,,,,,,,,,,,,z,1,0.832,,,,,,,,0.24875,-0.22625,0,0,0,,0,28,28,95,1,HANTY,LB,old,z,./images/HANTYLB.png,,,,,,,,,,,,,,,,,,,,,,,,,,,,,,,,,,,
,,,,,,,,,,,,,,,,,613c381cde82d55e452d621a,30,2022-02-12_16h48.23.776,lexical_decision_task_DD,2021.2.3,MacIntel,58.82352941,,,,,,,,,,,0.58,1,,,,,,,,,,,,,,z,1,0.58,,,,,,,,0.24875,-0.22625,0,0,0,,0,29,29,119,1,PAFER,LB,old,z,./images/PAFERLB.png,,,,,,,,,,,,,,,,,,,,,,,,,,,,,,,,,,,
,,,,,,,,,,,,,,,,,613c381cde82d55e452d621a,30,2022-02-12_16h48.23.776,lexical_decision_task_DD,2021.2.3,MacIntel,58.82352941,,,,,,,,,,,0.809,1,,,,,,,,,,,,,,m,1,0.809,,,,,,,,0.24875,-0.22625,0,0,0,,0,30,30,76,1,INFANT,HB,old,m,./images/INFANTHB.png,,,,,,,,,,,,,,,,,,,,,,,,,,,,,,,,,,,
,,,,,,,,,,,,,,,,,613c381cde82d55e452d621a,30,2022-02-12_16h48.23.776,lexical_decision_task_DD,2021.2.3,MacIntel,58.82352941,,,,,,,,,,,1.262,1,,,,,,,,,,,,,,z,1,1.262,,,,,,,,0.24875,-0.22625,0,0,0,,0,31,31,121,1,CEERS,HB,old,z,./images/CEERSHB.png,,,,,,,,,,,,,,,,,,,,,,,,,,,,,,,,,,,
,,,,,,,,,,,,,,,,,613c381cde82d55e452d621a,30,2022-02-12_16h48.23.776,lexical_decision_task_DD,2021.2.3,MacIntel,58.82352941,,,,,,,,,,,0.658,0,,,,,,,,,,,,,,z,0,0.658,,,,,,,,0.24875,-0.22625,0,0,0,,0,32,32,67,1,SAILOR,HB,old,m,./images/SAILORHB.png,,,,,,,,,,,,,,,,,,,,,,,,,,,,,,,,,,,
,,,,,,,,,,,,,,,,,613c381cde82d55e452d621a,30,2022-02-12_16h48.23.776,lexical_decision_task_DD,2021.2.3,MacIntel,58.82352941,,,,,,,,,,,0.859,1,,,,,,,,,,,,,,z,1,0.859,,,,,,,,0.24875,-0.22625,0,0,0,,0,33,33,111,1,HOSSE,C,old,z,./images/HOSSE.png,,,,,,,,,,,,,,,,,,,,,,,,,,,,,,,,,,,
,,,,,,,,,,,,,,,,,613c381cde82d55e452d621a,30,2022-02-12_16h48.23.776,lexical_decision_task_DD,2021.2.3,MacIntel,58.82352941,,,,,,,,,,,0.932,1,,,,,,,,,,,,,,z,1,0.932,,,,,,,,0.24875,-0.22625,0,0,0,,0,34,34,151,1,TINKY,HB,old,z,./images/TINKYHB.png,,,,,,,,,,,,,,,,,,,,,,,,,,,,,,,,,,,
,,,,,,,,,,,,,,,,,613c381cde82d55e452d621a,30,2022-02-12_16h48.23.776,lexical_decision_task_DD,2021.2.3,MacIntel,58.82352941,,,,,,,,,,,0.581,1,,,,,,,,,,,,,,m,1,0.581,,,,,,,,0.24875,-0.22625,0,0,0,,0,35,35,69,1,COOKER,C,old,m,./images/COOKER.png,,,,,,,,,,,,,,,,,,,,,,,,,,,,,,,,,,,
,,,,,,,,,,,,,,,,,613c381cde82d55e452d621a,30,2022-02-12_16h48.23.776,lexical_decision_task_DD,2021.2.3,MacIntel,58.82352941,,,,,,,,,,,0.582,1,,,,,,,,,,,,,,m,1,0.582,,,,,,,,0.24875,-0.22625,0,0,0,,0,36,36,0,1,TOMATO,C,old,m,./images/TOMATO.png,,,,,,,,,,,,,,,,,,,,,,,,,,,,,,,,,,,
,,,,,,,,,,,,,,,,,613c381cde82d55e452d621a,30,2022-02-12_16h48.23.776,lexical_decision_task_DD,2021.2.3,MacIntel,58.82352941,,,,,,,,,,,0.629,1,,,,,,,,,,,,,,z,1,0.629,,,,,,,,0.24875,-0.22625,0,0,0,,0,37,37,108,1,GRUET,C,old,z,./images/GRUET.png,,,,,,,,,,,,,,,,,,,,,,,,,,,,,,,,,,,
,,,,,,,,,,,,,,,,,613c381cde82d55e452d621a,30,2022-02-12_16h48.23.776,lexical_decision_task_DD,2021.2.3,MacIntel,58.82352941,,,,,,,,,,,0.693,1,,,,,,,,,,,,,,z,1,0.693,,,,,,,,0.24875,-0.22625,0,0,0,,0,38,38,104,1,GITTY,LB,old,z,./images/GITTYLB.png,,,,,,,,,,,,,,,,,,,,,,,,,,,,,,,,,,,
,,,,,,,,,,,,,,,,,613c381cde82d55e452d621a,30,2022-02-12_16h48.23.776,lexical_decision_task_DD,2021.2.3,MacIntel,58.82352941,,,,,,,,,,,1.023,1,,,,,,,,,,,,,,z,1,1.023,,,,,,,,0.24875,-0.22625,0,0,0,,0,39,39,130,1,CRILL,HB,old,z,./images/CRILLHB.png,,,,,,,,,,,,,,,,,,,,,,,,,,,,,,,,,,,
,,,,,,,,,,,,,,,,,613c381cde82d55e452d621a,30,2022-02-12_16h48.23.776,lexical_decision_task_DD,2021.2.3,MacIntel,58.82352941,,,,,,,,,,,0.962,1,,,,,,,,,,,,,,z,1,0.962,,,,,,,,0.24875,-0.22625,0,0,0,,0,40,40,118,1,BAVEL,HB,old,z,./images/BAVELHB.png,,,,,,,,,,,,,,,,,,,,,,,,,,,,,,,,,,,
,,,,,,,,,,,,,,,,,613c381cde82d55e452d621a,30,2022-02-12_16h48.23.776,lexical_decision_task_DD,2021.2.3,MacIntel,58.82352941,,,,,,,,,,,0.659,1,,,,,,,,,,,,,,m,1,0.659,,,,,,,,0.24875,-0.22625,0,0,0,space,0,41,41,18,1,JAGUAR,C,old,m,./images/JAGUAR.png,2.237,,,,,,,,,,,,,,,,,,,,,,,,,,,,,,,,,,
,,,,,,,,,,,,,,,,,613c381cde82d55e452d621a,30,2022-02-12_16h48.23.776,lexical_decision_task_DD,2021.2.3,MacIntel,58.82352941,,,,,,,,,,,0.962,1,,,,,,,,,,,,,,z,1,0.962,,,,,,,,0.24875,-0.22625,0,0,0,,0,42,42,142,1,PLASK,HB,old,z,./images/PLASKHB.png,,,,,,,,,,,,,,,,,,,,,,,,,,,,,,,,,,,
,,,,,,,,,,,,,,,,,613c381cde82d55e452d621a,30,2022-02-12_16h48.23.776,lexical_decision_task_DD,2021.2.3,MacIntel,58.82352941,,,,,,,,,,,0.784,1,,,,,,,,,,,,,,z,1,0.784,,,,,,,,0.24875,-0.22625,0,0,0,,0,43,43,161,1,BLAPS,LB,old,z,./images/BLAPSLB.png,,,,,,,,,,,,,,,,,,,,,,,,,,,,,,,,,,,
,,,,,,,,,,,,,,,,,613c381cde82d55e452d621a,30,2022-02-12_16h48.23.776,lexical_decision_task_DD,2021.2.3,MacIntel,58.82352941,,,,,,,,,,,0.631,1,,,,,,,,,,,,,,m,1,0.631,,,,,,,,0.24875,-0.22625,0,0,0,,0,44,44,51,1,ONION,C,old,m,./images/ONION.png,,,,,,,,,,,,,,,,,,,,,,,,,,,,,,,,,,,
,,,,,,,,,,,,,,,,,613c381cde82d55e452d621a,30,2022-02-12_16h48.23.776,lexical_decision_task_DD,2021.2.3,MacIntel,58.82352941,,,,,,,,,,,0.682,1,,,,,,,,,,,,,,m,1,0.682,,,,,,,,0.24875,-0.22625,0,0,0,,0,45,45,32,1,BARREL,LB,old,m,./images/BARRELLB.png,,,,,,,,,,,,,,,,,,,,,,,,,,,,,,,,,,,
,,,,,,,,,,,,,,,,,613c381cde82d55e452d621a,30,2022-02-12_16h48.23.776,lexical_decision_task_DD,2021.2.3,MacIntel,58.82352941,,,,,,,,,,,0.582,1,,,,,,,,,,,,,,m,1,0.582,,,,,,,,0.24875,-0.22625,0,0,0,,0,46,46,47,1,BERRY,LB,old,m,./images/BERRYLB.png,,,,,,,,,,,,,,,,,,,,,,,,,,,,,,,,,,,
,,,,,,,,,,,,,,,,,613c381cde82d55e452d621a,30,2022-02-12_16h48.23.776,lexical_decision_task_DD,2021.2.3,MacIntel,58.82352941,,,,,,,,,,,0.732,1,,,,,,,,,,,,,,z,1,0.732,,,,,,,,0.24875,-0.22625,0,0,0,,0,47,47,153,1,CLUPS,C,old,z,./images/CLUPS.png,,,,,,,,,,,,,,,,,,,,,,,,,,,,,,,,,,,
,,,,,,,,,,,,,,,,,613c381cde82d55e452d621a,30,2022-02-12_16h48.23.776,lexical_decision_task_DD,2021.2.3,MacIntel,58.82352941,,,,,,,,,,,0.63,1,,,,,,,,,,,,,,m,1,0.63,,,,,,,,0.24875,-0.22625,0,0,0,,0,48,48,50,1,MALLET,LB,old,m,./images/MALLETLB.png,,,,,,,,,,,,,,,,,,,,,,,,,,,,,,,,,,,
,,,,,,,,,,,,,,,,,613c381cde82d55e452d621a,30,2022-02-12_16h48.23.776,lexical_decision_task_DD,2021.2.3,MacIntel,58.82352941,,,,,,,,,,,0.733,1,,,,,,,,,,,,,,z,1,0.733,,,,,,,,0.24875,-0.22625,0,0,0,,0,49,49,124,1,TUNCH,HB,old,z,./images/TUNCHHB.png,,,,,,,,,,,,,,,,,,,,,,,,,,,,,,,,,,,
,,,,,,,,,,,,,,,,,613c381cde82d55e452d621a,30,2022-02-12_16h48.23.776,lexical_decision_task_DD,2021.2.3,MacIntel,58.82352941,,,,,,,,,,,0.962,1,,,,,,,,,,,,,,m,1,0.962,,,,,,,,0.24875,-0.22625,0,0,0,,0,50,50,22,1,MELON,HB,old,m,./images/MELONHB.png,,,,,,,,,,,,,,,,,,,,,,,,,,,,,,,,,,,
,,,,,,,,,,,,,,,,,613c381cde82d55e452d621a,30,2022-02-12_16h48.23.776,lexical_decision_task_DD,2021.2.3,MacIntel,58.82352941,,,,,,,,,,,0.644,1,,,,,,,,,,,,,,z,1,0.644,,,,,,,,0.24875,-0.22625,0,0,0,,0,51,51,149,1,VEASE,LB,old,z,./images/VEASELB.png,,,,,,,,,,,,,,,,,,,,,,,,,,,,,,,,,,,
,,,,,,,,,,,,,,,,,613c381cde82d55e452d621a,30,2022-02-12_16h48.23.776,lexical_decision_task_DD,2021.2.3,MacIntel,58.82352941,,,,,,,,,,,0.631,1,,,,,,,,,,,,,,m,1,0.631,,,,,,,,0.24875,-0.22625,0,0,0,,0,52,52,14,1,PICKLE,LB,old,m,./images/PICKLELB.png,,,,,,,,,,,,,,,,,,,,,,,,,,,,,,,,,,,
,,,,,,,,,,,,,,,,,613c381cde82d55e452d621a,30,2022-02-12_16h48.23.776,lexical_decision_task_DD,2021.2.3,MacIntel,58.82352941,,,,,,,,,,,0.759,1,,,,,,,,,,,,,,m,1,0.759,,,,,,,,0.24875,-0.22625,0,0,0,,0,53,53,54,1,TRIPOD,C,old,m,./images/TRIPOD.png,,,,,,,,,,,,,,,,,,,,,,,,,,,,,,,,,,,
,,,,,,,,,,,,,,,,,613c381cde82d55e452d621a,30,2022-02-12_16h48.23.776,lexical_decision_task_DD,2021.2.3,MacIntel,58.82352941,,,,,,,,,,,0.682,1,,,,,,,,,,,,,,m,1,0.682,,,,,,,,0.24875,-0.22625,0,0,0,,0,54,54,8,1,TULIP,LB,old,m,./images/TULIPLB.png,,,,,,,,,,,,,,,,,,,,,,,,,,,,,,,,,,,
,,,,,,,,,,,,,,,,,613c381cde82d55e452d621a,30,2022-02-12_16h48.23.776,lexical_decision_task_DD,2021.2.3,MacIntel,58.82352941,,,,,,,,,,,0.859,1,,,,,,,,,,,,,,z,1,0.859,,,,,,,,0.24875,-0.22625,0,0,0,,0,55,55,129,1,PRANS,C,old,z,./images/PRANS.png,,,,,,,,,,,,,,,,,,,,,,,,,,,,,,,,,,,
,,,,,,,,,,,,,,,,,613c381cde82d55e452d621a,30,2022-02-12_16h48.23.776,lexical_decision_task_DD,2021.2.3,MacIntel,58.82352941,,,,,,,,,,,0.733,1,,,,,,,,,,,,,,z,1,0.733,,,,,,,,0.24875,-0.22625,0,0,0,,0,56,56,93,1,SMONE,C,old,z,./images/SMONE.png,,,,,,,,,,,,,,,,,,,,,,,,,,,,,,,,,,,
,,,,,,,,,,,,,,,,,613c381cde82d55e452d621a,30,2022-02-12_16h48.23.776,lexical_decision_task_DD,2021.2.3,MacIntel,58.82352941,,,,,,,,,,,0.681,1,,,,,,,,,,,,,,m,1,0.681,,,,,,,,0.24875,-0.22625,0,0,0,,0,57,57,39,1,SHELF,C,old,m,./images/SHELF.png,,,,,,,,,,,,,,,,,,,,,,,,,,,,,,,,,,,
,,,,,,,,,,,,,,,,,613c381cde82d55e452d621a,30,2022-02-12_16h48.23.776,lexical_decision_task_DD,2021.2.3,MacIntel,58.82352941,,,,,,,,,,,1.261,1,,,,,,,,,,,,,,m,1,1.261,,,,,,,,0.24875,-0.22625,0,0,0,,0,58,58,34,1,CANYON,HB,old,m,./images/CANYONHB.png,,,,,,,,,,,,,,,,,,,,,,,,,,,,,,,,,,,
,,,,,,,,,,,,,,,,,613c381cde82d55e452d621a,30,2022-02-12_16h48.23.776,lexical_decision_task_DD,2021.2.3,MacIntel,58.82352941,,,,,,,,,,,0.732,1,,,,,,,,,,,,,,z,1,0.732,,,,,,,,0.24875,-0.22625,0,0,0,,0,59,59,114,1,RIKES,C,old,z,./images/RIKES.png,,,,,,,,,,,,,,,,,,,,,,,,,,,,,,,,,,,
,,,,,,,,,,,,,,,,,613c381cde82d55e452d621a,30,2022-02-12_16h48.23.776,lexical_decision_task_DD,2021.2.3,MacIntel,58.82352941,,,,,,,,,,,0.809,1,,,,,,,,,,,,,,m,1,0.809,,,,,,,,0.24875,-0.22625,0,0,0,,0,60,60,1,1,PLANK,HB,old,m,./images/PLANKHB.png,,,,,,,,,,,,,,,,,,,,,,,,,,,,,,,,,,,
,,,,,,,,,,,,,,,,,613c381cde82d55e452d621a,30,2022-02-12_16h48.23.776,lexical_decision_task_DD,2021.2.3,MacIntel,58.82352941,,,,,,,,,,,0.608,1,,,,,,,,,,,,,,m,1,0.608,,,,,,,,0.24875,-0.22625,0,0,0,,0,61,61,83,1,JUNGLE,LB,old,m,./images/JUNGLELB.png,,,,,,,,,,,,,,,,,,,,,,,,,,,,,,,,,,,
,,,,,,,,,,,,,,,,,613c381cde82d55e452d621a,30,2022-02-12_16h48.23.776,lexical_decision_task_DD,2021.2.3,MacIntel,58.82352941,,,,,,,,,,,0.632,1,,,,,,,,,,,,,,m,1,0.632,,,,,,,,0.24875,-0.22625,0,0,0,,0,62,62,80,1,WEASEL,LB,old,m,./images/WEASELLB.png,,,,,,,,,,,,,,,,,,,,,,,,,,,,,,,,,,,
,,,,,,,,,,,,,,,,,613c381cde82d55e452d621a,30,2022-02-12_16h48.23.776,lexical_decision_task_DD,2021.2.3,MacIntel,58.82352941,,,,,,,,,,,0.632,1,,,,,,,,,,,,,,z,1,0.632,,,,,,,,0.24875,-0.22625,0,0,0,,0,63,63,101,1,GLEET,LB,old,z,./images/GLEETLB.png,,,,,,,,,,,,,,,,,,,,,,,,,,,,,,,,,,,
,,,,,,,,,,,,,,,,,613c381cde82d55e452d621a,30,2022-02-12_16h48.23.776,lexical_decision_task_DD,2021.2.3,MacIntel,58.82352941,,,,,,,,,,,0.679,1,,,,,,,,,,,,,,m,1,0.679,,,,,,,,0.24875,-0.22625,0,0,0,,0,64,64,11,1,BONNET,LB,old,m,./images/BONNETLB.png,,,,,,,,,,,,,,,,,,,,,,,,,,,,,,,,,,,
,,,,,,,,,,,,,,,,,613c381cde82d55e452d621a,30,2022-02-12_16h48.23.776,lexical_decision_task_DD,2021.2.3,MacIntel,58.82352941,,,,,,,,,,,1.163,1,,,,,,,,,,,,,,z,1,1.163,,,,,,,,0.24875,-0.22625,0,0,0,,0,65,65,120,1,RINED,C,old,z,./images/RINED.png,,,,,,,,,,,,,,,,,,,,,,,,,,,,,,,,,,,
,,,,,,,,,,,,,,,,,613c381cde82d55e452d621a,30,2022-02-12_16h48.23.776,lexical_decision_task_DD,2021.2.3,MacIntel,58.82352941,,,,,,,,,,,0.731,1,,,,,,,,,,,,,,m,1,0.731,,,,,,,,0.24875,-0.22625,0,0,0,,0,66,66,74,1,CEMENT,LB,old,m,./images/CEMENTLB.png,,,,,,,,,,,,,,,,,,,,,,,,,,,,,,,,,,,
,,,,,,,,,,,,,,,,,613c381cde82d55e452d621a,30,2022-02-12_16h48.23.776,lexical_decision_task_DD,2021.2.3,MacIntel,58.82352941,,,,,,,,,,,1.139,0,,,,,,,,,,,,,,z,0,1.139,,,,,,,,0.24875,-0.22625,0,0,0,,0,67,67,43,1,MOSQUE,HB,old,m,./images/MOSQUEHB.png,,,,,,,,,,,,,,,,,,,,,,,,,,,,,,,,,,,
,,,,,,,,,,,,,,,,,613c381cde82d55e452d621a,30,2022-02-12_16h48.23.776,lexical_decision_task_DD,2021.2.3,MacIntel,58.82352941,,,,,,,,,,,1.086,1,,,,,,,,,,,,,,z,1,1.086,,,,,,,,0.24875,-0.22625,0,0,0,,0,68,68,160,1,VEETS,HB,old,z,./images/VEETSHB.png,,,,,,,,,,,,,,,,,,,,,,,,,,,,,,,,,,,
,,,,,,,,,,,,,,,,,613c381cde82d55e452d621a,30,2022-02-12_16h48.23.776,lexical_decision_task_DD,2021.2.3,MacIntel,58.82352941,,,,,,,,,,,0.859,1,,,,,,,,,,,,,,z,1,0.859,,,,,,,,0.24875,-0.22625,0,0,0,,0,69,69,146,1,MOOST,LB,old,z,./images/MOOSTLB.png,,,,,,,,,,,,,,,,,,,,,,,,,,,,,,,,,,,
,,,,,,,,,,,,,,,,,613c381cde82d55e452d621a,30,2022-02-12_16h48.23.776,lexical_decision_task_DD,2021.2.3,MacIntel,58.82352941,,,,,,,,,,,0.96,1,,,,,,,,,,,,,,m,1,0.96,,,,,,,,0.24875,-0.22625,0,0,0,,0,70,70,49,1,DRUMS,HB,old,m,./images/DRUMSHB.png,,,,,,,,,,,,,,,,,,,,,,,,,,,,,,,,,,,
,,,,,,,,,,,,,,,,,613c381cde82d55e452d621a,30,2022-02-12_16h48.23.776,lexical_decision_task_DD,2021.2.3,MacIntel,58.82352941,,,,,,,,,,,1.162,1,,,,,,,,,,,,,,z,1,1.162,,,,,,,,0.24875,-0.22625,0,0,0,,0,71,71,136,1,WERVE,HB,old,z,./images/WERVEHB.png,,,,,,,,,,,,,,,,,,,,,,,,,,,,,,,,,,,
,,,,,,,,,,,,,,,,,613c381cde82d55e452d621a,30,2022-02-12_16h48.23.776,lexical_decision_task_DD,2021.2.3,MacIntel,58.82352941,,,,,,,,,,,0.935,1,,,,,,,,,,,,,,z,1,0.935,,,,,,,,0.24875,-0.22625,0,0,0,,0,72,72,147,1,ZOLES,C,old,z,./images/ZOLES.png,,,,,,,,,,,,,,,,,,,,,,,,,,,,,,,,,,,
,,,,,,,,,,,,,,,,,613c381cde82d55e452d621a,30,2022-02-12_16h48.23.776,lexical_decision_task_DD,2021.2.3,MacIntel,58.82352941,,,,,,,,,,,0.684,1,,,,,,,,,,,,,,m,1,0.684,,,,,,,,0.24875,-0.22625,0,0,0,,0,73,73,3,1,FINGER,C,old,m,./images/FINGER.png,,,,,,,,,,,,,,,,,,,,,,,,,,,,,,,,,,,
,,,,,,,,,,,,,,,,,613c381cde82d55e452d621a,30,2022-02-12_16h48.23.776,lexical_decision_task_DD,2021.2.3,MacIntel,58.82352941,,,,,,,,,,,0.733,1,,,,,,,,,,,,,,z,1,0.733,,,,,,,,0.24875,-0.22625,0,0,0,,0,74,74,126,1,GUELS,C,old,z,./images/GUELS.png,,,,,,,,,,,,,,,,,,,,,,,,,,,,,,,,,,,
,,,,,,,,,,,,,,,,,613c381cde82d55e452d621a,30,2022-02-12_16h48.23.776,lexical_decision_task_DD,2021.2.3,MacIntel,58.82352941,,,,,,,,,,,1.162,1,,,,,,,,,,,,,,z,1,1.162,,,,,,,,0.24875,-0.22625,0,0,0,,0,75,75,97,1,CHIDS,HB,old,z,./images/CHIDSHB.png,,,,,,,,,,,,,,,,,,,,,,,,,,,,,,,,,,,
,,,,,,,,,,,,,,,,,613c381cde82d55e452d621a,30,2022-02-12_16h48.23.776,lexical_decision_task_DD,2021.2.3,MacIntel,58.82352941,,,,,,,,,,,0.581,1,,,,,,,,,,,,,,m,1,0.581,,,,,,,,0.24875,-0.22625,0,0,0,,0,76,76,68,1,TORCH,LB,old,m,./images/TORCHLB.png,,,,,,,,,,,,,,,,,,,,,,,,,,,,,,,,,,,
,,,,,,,,,,,,,,,,,613c381cde82d55e452d621a,30,2022-02-12_16h48.23.776,lexical_decision_task_DD,2021.2.3,MacIntel,58.82352941,,,,,,,,,,,0.935,1,,,,,,,,,,,,,,z,1,0.935,,,,,,,,0.24875,-0.22625,0,0,0,,0,77,77,134,1,TROSS,LB,old,z,./images/TROSSLB.png,,,,,,,,,,,,,,,,,,,,,,,,,,,,,,,,,,,
,,,,,,,,,,,,,,,,,613c381cde82d55e452d621a,30,2022-02-12_16h48.23.776,lexical_decision_task_DD,2021.2.3,MacIntel,58.82352941,,,,,,,,,,,0.708,1,,,,,,,,,,,,,,m,1,0.708,,,,,,,,0.24875,-0.22625,0,0,0,,0,78,78,73,1,SNACK,HB,old,m,./images/SNACKHB.png,,,,,,,,,,,,,,,,,,,,,,,,,,,,,,,,,,,
,,,,,,,,,,,,,,,,,613c381cde82d55e452d621a,30,2022-02-12_16h48.23.776,lexical_decision_task_DD,2021.2.3,MacIntel,58.82352941,,,,,,,,,,,0.631,1,,,,,,,,,,,,,,z,1,0.631,,,,,,,,0.24875,-0.22625,0,0,0,,0,79,79,117,1,STEEG,C,old,z,./images/STEEG.png,,,,,,,,,,,,,,,,,,,,,,,,,,,,,,,,,,,
,,,,,,,,,,,,,,,,,613c381cde82d55e452d621a,30,2022-02-12_16h48.23.776,lexical_decision_task_DD,2021.2.3,MacIntel,58.82352941,,,,,,,,,,,0.732,1,,,,,,,,,,,,,,m,1,0.732,,,,,,,,0.24875,-0.22625,0,0,0,,0,80,80,17,1,SKIING,LB,old,m,./images/SKIINGLB.png,,,,,,,,,,,,,,,,,,,,,,,,,,,,,,,,,,,
,,,,,,,,,,,,,,,,,613c381cde82d55e452d621a,30,2022-02-12_16h48.23.776,lexical_decision_task_DD,2021.2.3,MacIntel,58.82352941,,,,,,,,,,,0.558,1,,,,,,,,,,,,,,m,1,0.558,,,,,,,,0.24875,-0.22625,0,0,0,,0,81,81,81,1,POODLE,C,old,m,./images/POODLE.png,,,,,,,,,,,,,,,,,,,,,,,,,,,,,,,,,,,
,,,,,,,,,,,,,,,,,613c381cde82d55e452d621a,30,2022-02-12_16h48.23.776,lexical_decision_task_DD,2021.2.3,MacIntel,58.82352941,,,,,,,,,,,0.682,1,,,,,,,,,,,,,,z,1,0.682,,,,,,,,0.24875,-0.22625,0,0,0,,0,82,82,141,1,PLEET,C,old,z,./images/PLEET.png,,,,,,,,,,,,,,,,,,,,,,,,,,,,,,,,,,,
,,,,,,,,,,,,,,,,,613c381cde82d55e452d621a,30,2022-02-12_16h48.23.776,lexical_decision_task_DD,2021.2.3,MacIntel,58.82352941,,,,,,,,,,,0.809,1,,,,,,,,,,,,,,z,1,0.809,,,,,,,,0.24875,-0.22625,0,0,0,space,0,83,83,125,1,MOOKY,LB,old,z,./images/MOOKYLB.png,0.946,,,,,,,,,,,,,,,,,,,,,,,,,,,,,,,,,,
,,,,,,,,,,,,,,,,,613c381cde82d55e452d621a,30,2022-02-12_16h48.23.776,lexical_decision_task_DD,2021.2.3,MacIntel,58.82352941,,,,,,,,,,,0.759,0,,,,,,,,,,,,,,z,0,0.759,,,,,,,,0.24875,-0.22625,0,0,0,,0,84,84,37,1,BIRTH,HB,old,m,./images/BIRTHHB.png,,,,,,,,,,,,,,,,,,,,,,,,,,,,,,,,,,,
,,,,,,,,,,,,,,,,,613c381cde82d55e452d621a,30,2022-02-12_16h48.23.776,lexical_decision_task_DD,2021.2.3,MacIntel,58.82352941,,,,,,,,,,,0.86,1,,,,,,,,,,,,,,z,1,0.86,,,,,,,,0.24875,-0.22625,0,0,0,,0,85,85,154,1,THINT,HB,old,z,./images/THINTHB.png,,,,,,,,,,,,,,,,,,,,,,,,,,,,,,,,,,,
,,,,,,,,,,,,,,,,,613c381cde82d55e452d621a,30,2022-02-12_16h48.23.776,lexical_decision_task_DD,2021.2.3,MacIntel,58.82352941,,,,,,,,,,,1.013,1,,,,,,,,,,,,,,z,1,1.013,,,,,,,,0.24875,-0.22625,0,0,0,,0,86,86,99,1,BACKY,C,old,z,./images/BACKY.png,,,,,,,,,,,,,,,,,,,,,,,,,,,,,,,,,,,
,,,,,,,,,,,,,,,,,613c381cde82d55e452d621a,30,2022-02-12_16h48.23.776,lexical_decision_task_DD,2021.2.3,MacIntel,58.82352941,,,,,,,,,,,0.631,1,,,,,,,,,,,,,,m,1,0.631,,,,,,,,0.24875,-0.22625,0,0,0,,0,87,87,21,1,KIDNEY,C,old,m,./images/KIDNEY.png,,,,,,,,,,,,,,,,,,,,,,,,,,,,,,,,,,,
,,,,,,,,,,,,,,,,,613c381cde82d55e452d621a,30,2022-02-12_16h48.23.776,lexical_decision_task_DD,2021.2.3,MacIntel,58.82352941,,,,,,,,,,,0.532,1,,,,,,,,,,,,,,m,1,0.532,,,,,,,,0.24875,-0.22625,0,0,0,,0,88,88,2,1,BEARD,LB,old,m,./images/BEARDLB.png,,,,,,,,,,,,,,,,,,,,,,,,,,,,,,,,,,,
,,,,,,,,,,,,,,,,,613c381cde82d55e452d621a,30,2022-02-12_16h48.23.776,lexical_decision_task_DD,2021.2.3,MacIntel,58.82352941,,,,,,,,,,,0.63,1,,,,,,,,,,,,,,m,1,0.63,,,,,,,,0.24875,-0.22625,0,0,0,,0,89,89,59,1,BURIAL,LB,old,m,./images/BURIALLB.png,,,,,,,,,,,,,,,,,,,,,,,,,,,,,,,,,,,
,,,,,,,,,,,,,,,,,613c381cde82d55e452d621a,30,2022-02-12_16h48.23.776,lexical_decision_task_DD,2021.2.3,MacIntel,58.82352941,,,,,,,,,,,0.732,1,,,,,,,,,,,,,,z,1,0.732,,,,,,,,0.24875,-0.22625,0,0,0,,0,90,90,155,1,CANGY,LB,old,z,./images/CANGYLB.png,,,,,,,,,,,,,,,,,,,,,,,,,,,,,,,,,,,
,,,,,,,,,,,,,,,,,613c381cde82d55e452d621a,30,2022-02-12_16h48.23.776,lexical_decision_task_DD,2021.2.3,MacIntel,58.82352941,,,,,,,,,,,0.608,1,,,,,,,,,,,,,,m,1,0.608,,,,,,,,0.24875,-0.22625,0,0,0,,0,91,91,20,1,CRADLE,LB,old,m,./images/CRADLELB.png,,,,,,,,,,,,,,,,,,,,,,,,,,,,,,,,,,,
,,,,,,,,,,,,,,,,,613c381cde82d55e452d621a,30,2022-02-12_16h48.23.776,lexical_decision_task_DD,2021.2.3,MacIntel,58.82352941,,,,,,,,,,,0.588,1,,,,,,,,,,,,,,m,1,0.588,,,,,,,,0.24875,-0.22625,0,0,0,,0,92,92,79,1,CRUST,HB,old,m,./images/CRUSTHB.png,,,,,,,,,,,,,,,,,,,,,,,,,,,,,,,,,,,
,,,,,,,,,,,,,,,,,613c381cde82d55e452d621a,30,2022-02-12_16h48.23.776,lexical_decision_task_DD,2021.2.3,MacIntel,58.82352941,,,,,,,,,,,1.011,1,,,,,,,,,,,,,,m,1,1.011,,,,,,,,0.24875,-0.22625,0,0,0,,0,93,93,63,1,MIRROR,C,old,m,./images/MIRROR.png,,,,,,,,,,,,,,,,,,,,,,,,,,,,,,,,,,,
,,,,,,,,,,,,,,,,,613c381cde82d55e452d621a,30,2022-02-12_16h48.23.776,lexical_decision_task_DD,2021.2.3,MacIntel,58.82352941,,,,,,,,,,,0.998,1,,,,,,,,,,,,,,z,1,0.998,,,,,,,,0.24875,-0.22625,0,0,0,,0,94,94,103,1,FLORT,HB,old,z,./images/FLORTHB.png,,,,,,,,,,,,,,,,,,,,,,,,,,,,,,,,,,,
,,,,,,,,,,,,,,,,,613c381cde82d55e452d621a,30,2022-02-12_16h48.23.776,lexical_decision_task_DD,2021.2.3,MacIntel,58.82352941,,,,,,,,,,,1.149,1,,,,,,,,,,,,,,z,1,1.149,,,,,,,,0.24875,-0.22625,0,0,0,,0,95,95,133,1,POWDY,HB,old,z,./images/POWDYHB.png,,,,,,,,,,,,,,,,,,,,,,,,,,,,,,,,,,,
,,,,,,,,,,,,,,,,,613c381cde82d55e452d621a,30,2022-02-12_16h48.23.776,lexical_decision_task_DD,2021.2.3,MacIntel,58.82352941,,,,,,,,,,,0.784,1,,,,,,,,,,,,,,z,1,0.784,,,,,,,,0.24875,-0.22625,0,0,0,,0,96,96,144,1,NAIRY,C,old,z,./images/NAIRY.png,,,,,,,,,,,,,,,,,,,,,,,,,,,,,,,,,,,
,,,,,,,,,,,,,,,,,613c381cde82d55e452d621a,30,2022-02-12_16h48.23.776,lexical_decision_task_DD,2021.2.3,MacIntel,58.82352941,,,,,,,,,,,0.884,0,,,,,,,,,,,,,,m,0,0.884,,,,,,,,0.24875,-0.22625,0,0,0,,0,97,97,166,1,SHORY,HB,old,z,./images/SHORYHB.png,,,,,,,,,,,,,,,,,,,,,,,,,,,,,,,,,,,
,,,,,,,,,,,,,,,,,613c381cde82d55e452d621a,30,2022-02-12_16h48.23.776,lexical_decision_task_DD,2021.2.3,MacIntel,58.82352941,,,,,,,,,,,0.859,1,,,,,,,,,,,,,,m,1,0.859,,,,,,,,0.24875,-0.22625,0,0,0,,0,98,98,52,1,BANNER,HB,old,m,./images/BANNERHB.png,,,,,,,,,,,,,,,,,,,,,,,,,,,,,,,,,,,
,,,,,,,,,,,,,,,,,613c381cde82d55e452d621a,30,2022-02-12_16h48.23.776,lexical_decision_task_DD,2021.2.3,MacIntel,58.82352941,,,,,,,,,,,0.682,1,,,,,,,,,,,,,,m,1,0.682,,,,,,,,0.24875,-0.22625,0,0,0,,0,99,99,55,1,MUFFIN,HB,old,m,./images/MUFFINHB.png,,,,,,,,,,,,,,,,,,,,,,,,,,,,,,,,,,,
,,,,,,,,,,,,,,,,,613c381cde82d55e452d621a,30,2022-02-12_16h48.23.776,lexical_decision_task_DD,2021.2.3,MacIntel,58.82352941,,,,,,,,,,,0.833,1,,,,,,,,,,,,,,m,1,0.833,,,,,,,,0.24875,-0.22625,0,0,0,,0,100,100,28,1,FALCON,HB,old,m,./images/FALCONHB.png,,,,,,,,,,,,,,,,,,,,,,,,,,,,,,,,,,,
,,,,,,,,,,,,,,,,,613c381cde82d55e452d621a,30,2022-02-12_16h48.23.776,lexical_decision_task_DD,2021.2.3,MacIntel,58.82352941,,,,,,,,,,,0.681,1,,,,,,,,,,,,,,z,1,0.681,,,,,,,,0.24875,-0.22625,0,0,0,,0,101,101,159,1,CUDDY,C,old,z,./images/CUDDY.png,,,,,,,,,,,,,,,,,,,,,,,,,,,,,,,,,,,
,,,,,,,,,,,,,,,,,613c381cde82d55e452d621a,30,2022-02-12_16h48.23.776,lexical_decision_task_DD,2021.2.3,MacIntel,58.82352941,,,,,,,,,,,0.731,1,,,,,,,,,,,,,,z,1,0.731,,,,,,,,0.24875,-0.22625,0,0,0,,0,102,102,116,1,BALGY,LB,old,z,./images/BALGYLB.png,,,,,,,,,,,,,,,,,,,,,,,,,,,,,,,,,,,
,,,,,,,,,,,,,,,,,613c381cde82d55e452d621a,30,2022-02-12_16h48.23.776,lexical_decision_task_DD,2021.2.3,MacIntel,58.82352941,,,,,,,,,,,0.784,1,,,,,,,,,,,,,,m,1,0.784,,,,,,,,0.24875,-0.22625,0,0,0,,0,103,103,13,1,MOTOR,HB,old,m,./images/MOTORHB.png,,,,,,,,,,,,,,,,,,,,,,,,,,,,,,,,,,,
,,,,,,,,,,,,,,,,,613c381cde82d55e452d621a,30,2022-02-12_16h48.23.776,lexical_decision_task_DD,2021.2.3,MacIntel,58.82352941,,,,,,,,,,,0.531,1,,,,,,,,,,,,,,m,1,0.531,,,,,,,,0.24875,-0.22625,0,0,0,,0,104,104,66,1,SWEAT,C,old,m,./images/SWEAT.png,,,,,,,,,,,,,,,,,,,,,,,,,,,,,,,,,,,
,,,,,,,,,,,,,,,,,613c381cde82d55e452d621a,30,2022-02-12_16h48.23.776,lexical_decision_task_DD,2021.2.3,MacIntel,58.82352941,,,,,,,,,,,0.96,1,,,,,,,,,,,,,,z,1,0.96,,,,,,,,0.24875,-0.22625,0,0,0,,0,105,105,163,1,GAMBA,HB,old,z,./images/GAMBAHB.png,,,,,,,,,,,,,,,,,,,,,,,,,,,,,,,,,,,
,,,,,,,,,,,,,,,,,613c381cde82d55e452d621a,30,2022-02-12_16h48.23.776,lexical_decision_task_DD,2021.2.3,MacIntel,58.82352941,,,,,,,,,,,0.606,1,,,,,,,,,,,,,,m,1,0.606,,,,,,,,0.24875,-0.22625,0,0,0,,0,106,106,5,1,PASTA,LB,old,m,./images/PASTALB.png,,,,,,,,,,,,,,,,,,,,,,,,,,,,,,,,,,,
,,,,,,,,,,,,,,,,,613c381cde82d55e452d621a,30,2022-02-12_16h48.23.776,lexical_decision_task_DD,2021.2.3,MacIntel,58.82352941,,,,,,,,,,,0.695,1,,,,,,,,,,,,,,m,1,0.695,,,,,,,,0.24875,-0.22625,0,0,0,,0,107,107,6,1,SQUARE,C,old,m,./images/SQUARE.png,,,,,,,,,,,,,,,,,,,,,,,,,,,,,,,,,,,
,,,,,,,,,,,,,,,,,613c381cde82d55e452d621a,30,2022-02-12_16h48.23.776,lexical_decision_task_DD,2021.2.3,MacIntel,58.82352941,,,,,,,,,,,0.406,1,,,,,,,,,,,,,,m,1,0.406,,,,,,,,0.24875,-0.22625,0,0,0,,0,108,108,27,1,ATTIC,C,old,m,./images/ATTIC.png,,,,,,,,,,,,,,,,,,,,,,,,,,,,,,,,,,,
,,,,,,,,,,,,,,,,,613c381cde82d55e452d621a,30,2022-02-12_16h48.23.776,lexical_decision_task_DD,2021.2.3,MacIntel,58.82352941,,,,,,,,,,,0.556,1,,,,,,,,,,,,,,m,1,0.556,,,,,,,,0.24875,-0.22625,0,0,0,,0,109,109,65,1,FARMER,LB,old,m,./images/FARMERLB.png,,,,,,,,,,,,,,,,,,,,,,,,,,,,,,,,,,,
,,,,,,,,,,,,,,,,,613c381cde82d55e452d621a,30,2022-02-12_16h48.23.776,lexical_decision_task_DD,2021.2.3,MacIntel,58.82352941,,,,,,,,,,,0.744,1,,,,,,,,,,,,,,z,1,0.744,,,,,,,,0.24875,-0.22625,0,0,0,,0,110,110,92,1,PAIMS,LB,old,z,./images/PAIMSLB.png,,,,,,,,,,,,,,,,,,,,,,,,,,,,,,,,,,,
,,,,,,,,,,,,,,,,,613c381cde82d55e452d621a,30,2022-02-12_16h48.23.776,lexical_decision_task_DD,2021.2.3,MacIntel,58.82352941,,,,,,,,,,,0.58,1,,,,,,,,,,,,,,m,1,0.58,,,,,,,,0.24875,-0.22625,0,0,0,,0,111,111,42,1,FOLDER,C,old,m,./images/FOLDER.png,,,,,,,,,,,,,,,,,,,,,,,,,,,,,,,,,,,
,,,,,,,,,,,,,,,,,613c381cde82d55e452d621a,30,2022-02-12_16h48.23.776,lexical_decision_task_DD,2021.2.3,MacIntel,58.82352941,,,,,,,,,,,0.506,0,,,,,,,,,,,,,,m,0,0.506,,,,,,,,0.24875,-0.22625,0,0,0,,0,112,112,110,1,CRUNK,LB,old,z,./images/CRUNKLB.png,,,,,,,,,,,,,,,,,,,,,,,,,,,,,,,,,,,
,,,,,,,,,,,,,,,,,613c381cde82d55e452d621a,30,2022-02-12_16h48.23.776,lexical_decision_task_DD,2021.2.3,MacIntel,58.82352941,,,,,,,,,,,0.658,1,,,,,,,,,,,,,,m,1,0.658,,,,,,,,0.24875,-0.22625,0,0,0,,0,113,113,41,1,STRING,LB,old,m,./images/STRINGLB.png,,,,,,,,,,,,,,,,,,,,,,,,,,,,,,,,,,,
,,,,,,,,,,,,,,,,,613c381cde82d55e452d621a,30,2022-02-12_16h48.23.776,lexical_decision_task_DD,2021.2.3,MacIntel,58.82352941,,,,,,,,,,,0.38,1,,,,,,,,,,,,,,m,1,0.38,,,,,,,,0.24875,-0.22625,0,0,0,,0,114,114,71,1,PIMPLE,LB,old,m,./images/PIMPLELB.png,,,,,,,,,,,,,,,,,,,,,,,,,,,,,,,,,,,
,,,,,,,,,,,,,,,,,613c381cde82d55e452d621a,30,2022-02-12_16h48.23.776,lexical_decision_task_DD,2021.2.3,MacIntel,58.82352941,,,,,,,,,,,0.657,1,,,,,,,,,,,,,,z,1,0.657,,,,,,,,0.24875,-0.22625,0,0,0,,0,115,115,86,1,AIFED,LB,old,z,./images/AIFEDLB.png,,,,,,,,,,,,,,,,,,,,,,,,,,,,,,,,,,,
,,,,,,,,,,,,,,,,,613c381cde82d55e452d621a,30,2022-02-12_16h48.23.776,lexical_decision_task_DD,2021.2.3,MacIntel,58.82352941,,,,,,,,,,,1.391,1,,,,,,,,,,,,,,z,1,1.391,,,,,,,,0.24875,-0.22625,0,0,0,,0,116,116,128,1,GRIFT,LB,old,z,./images/GRIFTLB.png,,,,,,,,,,,,,,,,,,,,,,,,,,,,,,,,,,,
,,,,,,,,,,,,,,,,,613c381cde82d55e452d621a,30,2022-02-12_16h48.23.776,lexical_decision_task_DD,2021.2.3,MacIntel,58.82352941,,,,,,,,,,,0.555,1,,,,,,,,,,,,,,m,1,0.555,,,,,,,,0.24875,-0.22625,0,0,0,,0,117,117,23,1,WALRUS,LB,old,m,./images/WALRUSLB.png,,,,,,,,,,,,,,,,,,,,,,,,,,,,,,,,,,,
,,,,,,,,,,,,,,,,,613c381cde82d55e452d621a,30,2022-02-12_16h48.23.776,lexical_decision_task_DD,2021.2.3,MacIntel,58.82352941,,,,,,,,,,,1.113,1,,,,,,,,,,,,,,z,1,1.113,,,,,,,,0.24875,-0.22625,0,0,0,,0,118,118,105,1,MOKER,C,old,z,./images/MOKER.png,,,,,,,,,,,,,,,,,,,,,,,,,,,,,,,,,,,
,,,,,,,,,,,,,,,,,613c381cde82d55e452d621a,30,2022-02-12_16h48.23.776,lexical_decision_task_DD,2021.2.3,MacIntel,58.82352941,,,,,,,,,,,0.78,1,,,,,,,,,,,,,,z,1,0.78,,,,,,,,0.24875,-0.22625,0,0,0,,0,119,119,164,1,SGREW,LB,old,z,./images/SGREWLB.png,,,,,,,,,,,,,,,,,,,,,,,,,,,,,,,,,,,
,,,,,,,,,,,,,,,,,613c381cde82d55e452d621a,30,2022-02-12_16h48.23.776,lexical_decision_task_DD,2021.2.3,MacIntel,58.82352941,,,,,,,,,,,0.759,1,,,,,,,,,,,,,,z,1,0.759,,,,,,,,0.24875,-0.22625,0,0,0,,0,120,120,132,1,SCIFF,C,old,z,./images/SCIFF.png,,,,,,,,,,,,,,,,,,,,,,,,,,,,,,,,,,,
,,,,,,,,,,,,,,,,,613c381cde82d55e452d621a,30,2022-02-12_16h48.23.776,lexical_decision_task_DD,2021.2.3,MacIntel,58.82352941,,,,,,,,,,,0.781,1,,,,,,,,,,,,,,z,1,0.781,,,,,,,,0.24875,-0.22625,0,0,0,,0,121,121,107,1,FASKS,LB,old,z,./images/FASKSLB.png,,,,,,,,,,,,,,,,,,,,,,,,,,,,,,,,,,,
,,,,,,,,,,,,,,,,,613c381cde82d55e452d621a,30,2022-02-12_16h48.23.776,lexical_decision_task_DD,2021.2.3,MacIntel,58.82352941,,,,,,,,,,,1.083,0,,,,,,,,,,,,,,z,0,1.083,,,,,,,,0.24875,-0.22625,0,0,0,,0,122,122,61,1,CANDLE,HB,old,m,./images/CANDLEHB.png,,,,,,,,,,,,,,,,,,,,,,,,,,,,,,,,,,,
,,,,,,,,,,,,,,,,,613c381cde82d55e452d621a,30,2022-02-12_16h48.23.776,lexical_decision_task_DD,2021.2.3,MacIntel,58.82352941,,,,,,,,,,,0.831,1,,,,,,,,,,,,,,z,1,0.831,,,,,,,,0.24875,-0.22625,0,0,0,,0,123,123,165,1,TROWN,C,old,z,./images/TROWN.png,,,,,,,,,,,,,,,,,,,,,,,,,,,,,,,,,,,
,,,,,,,,,,,,,,,,,613c381cde82d55e452d621a,30,2022-02-12_16h48.23.776,lexical_decision_task_DD,2021.2.3,MacIntel,58.82352941,,,,,,,,,,,0.609,1,,,,,,,,,,,,,,z,1,0.609,,,,,,,,0.24875,-0.22625,0,0,0,,0,124,124,96,1,KEAMS,C,old,z,./images/KEAMS.png,,,,,,,,,,,,,,,,,,,,,,,,,,,,,,,,,,,
,,,,,,,,,,,,,,,,,613c381cde82d55e452d621a,30,2022-02-12_16h48.23.776,lexical_decision_task_DD,2021.2.3,MacIntel,58.82352941,,,,,,,,,,,1.432,1,,,,,,,,,,,,,,z,1,1.432,,,,,,,,0.24875,-0.22625,0,0,0,space,0,125,125,106,1,CLUMS,HB,old,z,./images/CLUMSHB.png,1.047,,,,,,,,,,,,,,,,,,,,,,,,,,,,,,,,,,
,,,,,,,,,,,,,,,,,613c381cde82d55e452d621a,30,2022-02-12_16h48.23.776,lexical_decision_task_DD,2021.2.3,MacIntel,58.82352941,,,,,,,,,,,0.681,1,,,,,,,,,,,,,,m,1,0.681,,,,,,,,0.24875,-0.22625,0,0,0,,0,126,126,40,1,SWING,HB,old,m,./images/SWINGHB.png,,,,,,,,,,,,,,,,,,,,,,,,,,,,,,,,,,,
,,,,,,,,,,,,,,,,,613c381cde82d55e452d621a,30,2022-02-12_16h48.23.776,lexical_decision_task_DD,2021.2.3,MacIntel,58.82352941,,,,,,,,,,,0.831,1,,,,,,,,,,,,,,z,1,0.831,,,,,,,,0.24875,-0.22625,0,0,0,,0,127,127,98,1,BAMPS,LB,old,z,./images/BAMPSLB.png,,,,,,,,,,,,,,,,,,,,,,,,,,,,,,,,,,,
,,,,,,,,,,,,,,,,,613c381cde82d55e452d621a,30,2022-02-12_16h48.23.776,lexical_decision_task_DD,2021.2.3,MacIntel,58.82352941,,,,,,,,,,,0.632,1,,,,,,,,,,,,,,m,1,0.632,,,,,,,,0.24875,-0.22625,0,0,0,,0,128,128,62,1,PURSE,LB,old,m,./images/PURSELB.png,,,,,,,,,,,,,,,,,,,,,,,,,,,,,,,,,,,
,,,,,,,,,,,,,,,,,613c381cde82d55e452d621a,30,2022-02-12_16h48.23.776,lexical_decision_task_DD,2021.2.3,MacIntel,58.82352941,,,,,,,,,,,0.758,1,,,,,,,,,,,,,,z,1,0.758,,,,,,,,0.24875,-0.22625,0,0,0,,0,129,129,131,1,NACES,LB,old,z,./images/NACESLB.png,,,,,,,,,,,,,,,,,,,,,,,,,,,,,,,,,,,
,,,,,,,,,,,,,,,,,613c381cde82d55e452d621a,30,2022-02-12_16h48.23.776,lexical_decision_task_DD,2021.2.3,MacIntel,58.82352941,,,,,,,,,,,1.139,1,,,,,,,,,,,,,,z,1,1.139,,,,,,,,0.24875,-0.22625,0,0,0,,0,130,130,94,1,BLANS,HB,old,z,./images/BLANSHB.png,,,,,,,,,,,,,,,,,,,,,,,,,,,,,,,,,,,
,,,,,,,,,,,,,,,,,613c381cde82d55e452d621a,30,2022-02-12_16h48.23.776,lexical_decision_task_DD,2021.2.3,MacIntel,58.82352941,,,,,,,,,,,1.303,1,,,,,,,,,,,,,,m,1,1.303,,,,,,,,0.24875,-0.22625,0,0,0,,0,131,131,58,1,BABOON,HB,old,m,./images/BABOONHB.png,,,,,,,,,,,,,,,,,,,,,,,,,,,,,,,,,,,
,,,,,,,,,,,,,,,,,613c381cde82d55e452d621a,30,2022-02-12_16h48.23.776,lexical_decision_task_DD,2021.2.3,MacIntel,58.82352941,,,,,,,,,,,1.073,1,,,,,,,,,,,,,,m,1,1.073,,,,,,,,0.24875,-0.22625,0,0,0,,0,132,132,46,1,PEARL,HB,old,m,./images/PEARLHB.png,,,,,,,,,,,,,,,,,,,,,,,,,,,,,,,,,,,
,,,,,,,,,,,,,,,,,613c381cde82d55e452d621a,30,2022-02-12_16h48.23.776,lexical_decision_task_DD,2021.2.3,MacIntel,58.82352941,,,,,,,,,,,1.111,1,,,,,,,,,,,,,,z,1,1.111,,,,,,,,0.24875,-0.22625,0,0,0,,0,133,133,148,1,JOMS,HB,old,z,./images/JOMSHB.png,,,,,,,,,,,,,,,,,,,,,,,,,,,,,,,,,,,
,,,,,,,,,,,,,,,,,613c381cde82d55e452d621a,30,2022-02-12_16h48.23.776,lexical_decision_task_DD,2021.2.3,MacIntel,58.82352941,,,,,,,,,,,1.44,1,,,,,,,,,,,,,,z,1,1.44,,,,,,,,0.24875,-0.22625,0,0,0,,0,134,134,88,1,GLUSH,HB,old,z,./images/GLUSHHB.png,,,,,,,,,,,,,,,,,,,,,,,,,,,,,,,,,,,
,,,,,,,,,,,,,,,,,613c381cde82d55e452d621a,30,2022-02-12_16h48.23.776,lexical_decision_task_DD,2021.2.3,MacIntel,58.82352941,,,,,,,,,,,0.608,1,,,,,,,,,,,,,,m,1,0.608,,,,,,,,0.24875,-0.22625,0,0,0,,0,135,135,24,1,SCREW,C,old,m,./images/SCREW.png,,,,,,,,,,,,,,,,,,,,,,,,,,,,,,,,,,,
,,,,,,,,,,,,,,,,,613c381cde82d55e452d621a,30,2022-02-12_16h48.23.776,lexical_decision_task_DD,2021.2.3,MacIntel,58.82352941,,,,,,,,,,,0.782,0,,,,,,,,,,,,,,z,0,0.782,,,,,,,,0.24875,-0.22625,0,0,0,,0,136,136,31,1,QUILL,HB,old,m,./images/QUILLHB.png,,,,,,,,,,,,,,,,,,,,,,,,,,,,,,,,,,,
,,,,,,,,,,,,,,,,,613c381cde82d55e452d621a,30,2022-02-12_16h48.23.776,lexical_decision_task_DD,2021.2.3,MacIntel,58.82352941,,,,,,,,,,,0.582,1,,,,,,,,,,,,,,m,1,0.582,,,,,,,,0.24875,-0.22625,0,0,0,,0,137,137,44,1,LIZARD,LB,old,m,./images/LIZARDLB.png,,,,,,,,,,,,,,,,,,,,,,,,,,,,,,,,,,,
,,,,,,,,,,,,,,,,,613c381cde82d55e452d621a,30,2022-02-12_16h48.23.776,lexical_decision_task_DD,2021.2.3,MacIntel,58.82352941,,,,,,,,,,,0.529,1,,,,,,,,,,,,,,m,1,0.529,,,,,,,,0.24875,-0.22625,0,0,0,,0,138,138,36,1,THROAT,C,old,m,./images/THROAT.png,,,,,,,,,,,,,,,,,,,,,,,,,,,,,,,,,,,
,,,,,,,,,,,,,,,,,613c381cde82d55e452d621a,30,2022-02-12_16h48.23.776,lexical_decision_task_DD,2021.2.3,MacIntel,58.82352941,,,,,,,,,,,0.596,1,,,,,,,,,,,,,,m,1,0.596,,,,,,,,0.24875,-0.22625,0,0,0,,0,139,139,53,1,CARPET,LB,old,m,./images/CARPETLB.png,,,,,,,,,,,,,,,,,,,,,,,,,,,,,,,,,,,
,,,,,,,,,,,,,,,,,613c381cde82d55e452d621a,30,2022-02-12_16h48.23.776,lexical_decision_task_DD,2021.2.3,MacIntel,58.82352941,,,,,,,,,,,0.694,1,,,,,,,,,,,,,,m,1,0.694,,,,,,,,0.24875,-0.22625,0,0,0,,0,140,140,82,1,SUNSET,HB,old,m,./images/SUNSETHB.png,,,,,,,,,,,,,,,,,,,,,,,,,,,,,,,,,,,
,,,,,,,,,,,,,,,,,613c381cde82d55e452d621a,30,2022-02-12_16h48.23.776,lexical_decision_task_DD,2021.2.3,MacIntel,58.82352941,,,,,,,,,,,0.63,1,,,,,,,,,,,,,,z,1,0.63,,,,,,,,0.24875,-0.22625,0,0,0,,0,141,141,135,1,JOODY,C,old,z,./images/JOODY.png,,,,,,,,,,,,,,,,,,,,,,,,,,,,,,,,,,,
,,,,,,,,,,,,,,,,,613c381cde82d55e452d621a,30,2022-02-12_16h48.23.776,lexical_decision_task_DD,2021.2.3,MacIntel,58.82352941,,,,,,,,,,,0.694,0,,,,,,,,,,,,,,z,0,0.694,,,,,,,,0.24875,-0.22625,0,0,0,,0,142,142,72,1,NOOSE,C,old,m,./images/NOOSE.png,,,,,,,,,,,,,,,,,,,,,,,,,,,,,,,,,,,
,,,,,,,,,,,,,,,,,613c381cde82d55e452d621a,30,2022-02-12_16h48.23.776,lexical_decision_task_DD,2021.2.3,MacIntel,58.82352941,,,,,,,,,,,0.923,1,,,,,,,,,,,,,,z,1,0.923,,,,,,,,0.24875,-0.22625,0,0,0,,0,143,143,113,1,LINEW,LB,old,z,./images/LINEWLB.png,,,,,,,,,,,,,,,,,,,,,,,,,,,,,,,,,,,
,,,,,,,,,,,,,,,,,613c381cde82d55e452d621a,30,2022-02-12_16h48.23.776,lexical_decision_task_DD,2021.2.3,MacIntel,58.82352941,,,,,,,,,,,0.757,1,,,,,,,,,,,,,,z,1,0.757,,,,,,,,0.24875,-0.22625,0,0,0,,0,144,144,150,1,NOOLS,C,old,z,./images/NOOLS.png,,,,,,,,,,,,,,,,,,,,,,,,,,,,,,,,,,,
,,,,,,,,,,,,,,,,,613c381cde82d55e452d621a,30,2022-02-12_16h48.23.776,lexical_decision_task_DD,2021.2.3,MacIntel,58.82352941,,,,,,,,,,,1.262,1,,,,,,,,,,,,,,m,1,1.262,,,,,,,,0.24875,-0.22625,0,0,0,,0,145,145,19,1,DOUGH,HB,old,m,./images/DOUGHHB.png,,,,,,,,,,,,,,,,,,,,,,,,,,,,,,,,,,,
,,,,,,,,,,,,,,,,,613c381cde82d55e452d621a,30,2022-02-12_16h48.23.776,lexical_decision_task_DD,2021.2.3,MacIntel,58.82352941,,,,,,,,,,,0.909,1,,,,,,,,,,,,,,z,1,0.909,,,,,,,,0.24875,-0.22625,0,0,0,,0,146,146,127,1,NINDY,HB,old,z,./images/NINDYHB.png,,,,,,,,,,,,,,,,,,,,,,,,,,,,,,,,,,,
,,,,,,,,,,,,,,,,,613c381cde82d55e452d621a,30,2022-02-12_16h48.23.776,lexical_decision_task_DD,2021.2.3,MacIntel,58.82352941,,,,,,,,,,,1.034,1,,,,,,,,,,,,,,z,1,1.034,,,,,,,,0.24875,-0.22625,0,0,0,,0,147,147,91,1,SHENS,HB,old,z,./images/SHENSHB.png,,,,,,,,,,,,,,,,,,,,,,,,,,,,,,,,,,,
,,,,,,,,,,,,,,,,,613c381cde82d55e452d621a,30,2022-02-12_16h48.23.776,lexical_decision_task_DD,2021.2.3,MacIntel,58.82352941,,,,,,,,,,,0.858,1,,,,,,,,,,,,,,z,1,0.858,,,,,,,,0.24875,-0.22625,0,0,0,,0,148,148,84,1,HAXES,C,old,z,./images/HAXES.png,,,,,,,,,,,,,,,,,,,,,,,,,,,,,,,,,,,
,,,,,,,,,,,,,,,,,613c381cde82d55e452d621a,30,2022-02-12_16h48.23.776,lexical_decision_task_DD,2021.2.3,MacIntel,58.82352941,,,,,,,,,,,0.682,1,,,,,,,,,,,,,,z,1,0.682,,,,,,,,0.24875,-0.22625,0,0,0,,0,149,149,90,1,NEAST,C,old,z,./images/NEAST.png,,,,,,,,,,,,,,,,,,,,,,,,,,,,,,,,,,,
,,,,,,,,,,,,,,,,,613c381cde82d55e452d621a,30,2022-02-12_16h48.23.776,lexical_decision_task_DD,2021.2.3,MacIntel,58.82352941,,,,,,,,,,,1.841,1,,,,,,,,,,,,,,z,1,1.841,,,,,,,,0.24875,-0.22625,0,0,0,,0,150,150,112,1,MYING,HB,old,z,./images/MYINGHB.png,,,,,,,,,,,,,,,,,,,,,,,,,,,,,,,,,,,
,,,,,,,,,,,,,,,,,613c381cde82d55e452d621a,30,2022-02-12_16h48.23.776,lexical_decision_task_DD,2021.2.3,MacIntel,58.82352941,,,,,,,,,,,1.289,1,,,,,,,,,,,,,,z,1,1.289,,,,,,,,0.24875,-0.22625,0,0,0,,0,151,151,140,1,DOVET,LB,old,z,./images/DOVETLB.png,,,,,,,,,,,,,,,,,,,,,,,,,,,,,,,,,,,
,,,,,,,,,,,,,,,,,613c381cde82d55e452d621a,30,2022-02-12_16h48.23.776,lexical_decision_task_DD,2021.2.3,MacIntel,58.82352941,,,,,,,,,,,0.809,1,,,,,,,,,,,,,,z,1,0.809,,,,,,,,0.24875,-0.22625,0,0,0,,0,152,152,145,1,LAMEL,HB,old,z,./images/LAMELHB.png,,,,,,,,,,,,,,,,,,,,,,,,,,,,,,,,,,,
,,,,,,,,,,,,,,,,,613c381cde82d55e452d621a,30,2022-02-12_16h48.23.776,lexical_decision_task_DD,2021.2.3,MacIntel,58.82352941,,,,,,,,,,,0.756,1,,,,,,,,,,,,,,m,1,0.756,,,,,,,,0.24875,-0.22625,0,0,0,,0,153,153,48,1,SPORT,C,old,m,./images/SPORT.png,,,,,,,,,,,,,,,,,,,,,,,,,,,,,,,,,,,
,,,,,,,,,,,,,,,,,613c381cde82d55e452d621a,30,2022-02-12_16h48.23.776,lexical_decision_task_DD,2021.2.3,MacIntel,58.82352941,,,,,,,,,,,0.812,1,,,,,,,,,,,,,,z,1,0.812,,,,,,,,0.24875,-0.22625,0,0,0,,0,154,154,152,1,FRAIN,LB,old,z,./images/FRAINLB.png,,,,,,,,,,,,,,,,,,,,,,,,,,,,,,,,,,,
,,,,,,,,,,,,,,,,,613c381cde82d55e452d621a,30,2022-02-12_16h48.23.776,lexical_decision_task_DD,2021.2.3,MacIntel,58.82352941,,,,,,,,,,,0.909,1,,,,,,,,,,,,,,m,1,0.909,,,,,,,,0.24875,-0.22625,0,0,0,,0,155,155,30,1,STORM,C,old,m,./images/STORM.png,,,,,,,,,,,,,,,,,,,,,,,,,,,,,,,,,,,
,,,,,,,,,,,,,,,,,613c381cde82d55e452d621a,30,2022-02-12_16h48.23.776,lexical_decision_task_DD,2021.2.3,MacIntel,58.82352941,,,,,,,,,,,0.808,1,,,,,,,,,,,,,,z,1,0.808,,,,,,,,0.24875,-0.22625,0,0,0,,0,156,156,156,1,HIXES,C,old,z,./images/HIXES.png,,,,,,,,,,,,,,,,,,,,,,,,,,,,,,,,,,,
,,,,,,,,,,,,,,,,,613c381cde82d55e452d621a,30,2022-02-12_16h48.23.776,lexical_decision_task_DD,2021.2.3,MacIntel,58.82352941,,,,,,,,,,,0.807,1,,,,,,,,,,,,,,m,1,0.807,,,,,,,,0.24875,-0.22625,0,0,0,,0,157,157,38,1,LADDER,LB,old,m,./images/LADDERLB.png,,,,,,,,,,,,,,,,,,,,,,,,,,,,,,,,,,,
,,,,,,,,,,,,,,,,,613c381cde82d55e452d621a,30,2022-02-12_16h48.23.776,lexical_decision_task_DD,2021.2.3,MacIntel,58.82352941,,,,,,,,,,,0.558,1,,,,,,,,,,,,,,m,1,0.558,,,,,,,,0.24875,-0.22625,0,0,0,,0,158,158,60,1,TWINS,C,old,m,./images/TWINS.png,,,,,,,,,,,,,,,,,,,,,,,,,,,,,,,,,,,
,,,,,,,,,,,,,,,,,613c381cde82d55e452d621a,30,2022-02-12_16h48.23.776,lexical_decision_task_DD,2021.2.3,MacIntel,58.82352941,,,,,,,,,,,0.709,1,,,,,,,,,,,,,,z,1,0.709,,,,,,,,0.24875,-0.22625,0,0,0,,0,159,159,89,1,DRIEK,LB,old,z,./images/DRIEKLB.png,,,,,,,,,,,,,,,,,,,,,,,,,,,,,,,,,,,
,,,,,,,,,,,,,,,,,613c381cde82d55e452d621a,30,2022-02-12_16h48.23.776,lexical_decision_task_DD,2021.2.3,MacIntel,58.82352941,,,,,,,,,,,0.657,1,,,,,,,,,,,,,,m,1,0.657,,,,,,,,0.24875,-0.22625,0,0,0,,0,160,160,15,1,GREASE,C,old,m,./images/GREASE.png,,,,,,,,,,,,,,,,,,,,,,,,,,,,,,,,,,,
,,,,,,,,,,,,,,,,,613c381cde82d55e452d621a,30,2022-02-12_16h48.23.776,lexical_decision_task_DD,2021.2.3,MacIntel,58.82352941,,,,,,,,,,,1.425,0,,,,,,,,,,,,,,z,0,1.425,,,,,,,,0.24875,-0.22625,0,0,0,,0,161,161,16,1,PENCE,HB,old,m,./images/PENCEHB.png,,,,,,,,,,,,,,,,,,,,,,,,,,,,,,,,,,,
,,,,,,,,,,,,,,,,,613c381cde82d55e452d621a,30,2022-02-12_16h48.23.776,lexical_decision_task_DD,2021.2.3,MacIntel,58.82352941,,,,,,,,,,,0.858,1,,,,,,,,,,,,,,z,1,0.858,,,,,,,,0.24875,-0.22625,0,0,0,,0,162,162,122,1,BLOOT,LB,old,z,./images/BLOOTLB.png,,,,,,,,,,,,,,,,,,,,,,,,,,,,,,,,,,,
,,,,,,,,,,,,,,,,,613c381cde82d55e452d621a,30,2022-02-12_16h48.23.776,lexical_decision_task_DD,2021.2.3,MacIntel,58.82352941,,,,,,,,,,,0.732,1,,,,,,,,,,,,,,z,1,0.732,,,,,,,,0.24875,-0.22625,0,0,0,,0,163,163,162,1,LEICH,C,old,z,./images/LEICH.png,,,,,,,,,,,,,,,,,,,,,,,,,,,,,,,,,,,
,,,,,,,,,,,,,,,,,613c381cde82d55e452d621a,30,2022-02-12_16h48.23.776,lexical_decision_task_DD,2021.2.3,MacIntel,58.82352941,,,,,,,,,,,1.235,1,,,,,,,,,,,,,,z,1,1.235,,,,,,,,0.24875,-0.22625,0,0,0,,0,164,164,139,1,BLEAR,HB,old,z,./images/BLEARHB.png,,,,,,,,,,,,,,,,,,,,,,,,,,,,,,,,,,,
,,,,,,,,,,,,,,,,,613c381cde82d55e452d621a,30,2022-02-12_16h48.23.776,lexical_decision_task_DD,2021.2.3,MacIntel,58.82352941,,,,,,,,,,,0.808,1,,,,,,,,,,,,,,m,1,0.808,,,,,,,,0.24875,-0.22625,0,0,0,,0,165,165,9,1,RHINO,C,old,m,./images/RHINO.png,,,,,,,,,,,,,,,,,,,,,,,,,,,,,,,,,,,
,,,,,,,,,,,,,,,,,613c381cde82d55e452d621a,30,2022-02-12_16h48.23.776,lexical_decision_task_DD,2021.2.3,MacIntel,58.82352941,,,,,,,,,,,0.827,1,,,,,,,,,,,,,,z,1,0.827,,,,,,,,0.24875,-0.22625,0,0,0,,0,166,166,143,1,MONGS,LB,old,z,./images/MONGSLB.png,,,,,,,,,,,,,,,,,,,,,,,,,,,,,,,,,,,
,,,,,,,,,,,,,,,,,613c381cde82d55e452d621a,30,2022-02-12_16h48.23.776,lexical_decision_task_DD,2021.2.3,MacIntel,58.82352941,,,,,,,,,,,0.908,1,,,,,,,,,,,,,,m,1,0.908,,,,,,,,0.24875,-0.22625,0,0,0,,0,167,167,35,1,PEACH,LB,old,m,./images/PEACHLB.png,,,,,,,,,,,,,,,,,,,,,,,,,,,,,,,,,,,
,,,,,,,,,,,,,,,,,613c381cde82d55e452d621a,30,2022-02-12_16h48.23.776,lexical_decision_task_DD,2021.2.3,MacIntel,58.82352941,,,,,,,,,,,,,,,,,,,,,,,,,,,,,,,,,,,,,,,,,,,,,,,,How likely will it be that you will recognize the words presented clearly on a scale of 0 (not likely) to 100 (most likely)?,,,,,-0.01625,-0.43,1,0,0,jol_adv,4,8.413,0,0,0,0,1,,,,,,,,,,,,,,,,,,,,,
,,,,,,,,,,,,,,,,,613c381cde82d55e452d621a,30,2022-02-12_16h48.23.776,lexical_decision_task_DD,2021.2.3,MacIntel,58.82352941,,,,,,,,,,,,,,,,,,,,,,,,,,,,,,,,,,,,,,,,,,,,,,,,How likely will it be that you will recognize the words presented very blurred on a scale of 0 (not likely) to 100 (most likely)?,,,,,,,,,,,3,2.513,0,1,1,2,1,,,,,,,,,,,,,,,,,,,,,
,,,,,,,,,,,,,,,,,613c381cde82d55e452d621a,30,2022-02-12_16h48.23.776,lexical_decision_task_DD,2021.2.3,MacIntel,58.82352941,,,,,,,,,,,,,,,,,,,,,,,,,,,,,,,,,,,,,,,,,,,,,,,,How likely will it be that you will recognize the words presented slighly blurred on a scale of 0 (not likely) to 100 (most likely)?,,,,,,,,,,,3,5.322,0,2,2,1,1,,,,,,,,,,,,,,,,,,,,,
space,10.919,-0.0075,-0.1975,0,0,0,,,,,,1,test,"In the next phase you will be presented with the words from the the first phase. Your job is to decide whether you remember seeing the word or not. If you remember seeing the word press ""old"" or type ""m"". If you do not remember seeing the word press ""new"" or type ""z"". Please press the space bar or click on continue to begin. ",,,613c381cde82d55e452d621a,30,2022-02-12_16h48.23.776,lexical_decision_task_DD,2021.2.3,MacIntel,58.82352941,,,,,,,,,,,,,,,,,,,,,,,,,,,,,,,,,,,,,,,,,,,,,,,,,,,,,,,,,,,,,,,,,,0,0,0,0,1,,,,,,,,,,,,,,,,
,,-0.00375,-0.37125,1,0,0,,,,,,1,test,"In the next phase you will be presented with the words from the the first phase. Your job is to decide whether you remember seeing the word or not. If you remember seeing the word press ""old"" or type ""m"". If you do not remember seeing the word press ""new"" or type ""z"". Please press the space bar or click on continue to begin. ",,,613c381cde82d55e452d621a,30,2022-02-12_16h48.23.776,lexical_decision_task_DD,2021.2.3,MacIntel,58.82352941,,,,,,,,,,,,,,,,,,,,,,,,,,,,,,,,,,,,,,,,,,,,,,,,,,,,,,,,,,,,,,,,,,1,0,1,0,1,instr_done_button,,,,,,,,,,,,,,,
space,2.962,0.02125,-0.01625,0,0,0,,,,,,1,test,"In the next phase you will be presented with the words from the the first phase. Your job is to decide whether you remember seeing the word or not. If you remember seeing the word press ""old"" or type ""m"". If you do not remember seeing the word press ""new"" or type ""z"". Please press the space bar or click on continue to begin. ",,,613c381cde82d55e452d621a,30,2022-02-12_16h48.23.776,lexical_decision_task_DD,2021.2.3,MacIntel,58.82352941,,,,,,,,,,,,,,,,,,,,,,,,,,,,,,,,,,,,,,,,,,,,,,,,,,,,,,,,,,,,,,,,,,2,0,2,0,1,,,,,,,,,,,,,,,,
,,0.005,-0.4225,1,0,0,,,,,,1,test,"In the next phase you will be presented with the words from the the first phase. Your job is to decide whether you remember seeing the word or not. If you remember seeing the word press ""old"" or type ""m"". If you do not remember seeing the word press ""new"" or type ""z"". Please press the space bar or click on continue to begin. ",,,613c381cde82d55e452d621a,30,2022-02-12_16h48.23.776,lexical_decision_task_DD,2021.2.3,MacIntel,58.82352941,,,,,,,,,,,,,,,,,,,,,,,,,,,,,,,,,,,,,,,,,,,,,,,,,,,,,,,,,,,,,,,,,,3,0,3,0,1,instr_done_button,,,,,,,,,,,,,,,
,,0.005,-0.4225,1,0,0,,,,,,1,test,"In the next phase you will be presented with the words from the the first phase. Your job is to decide whether you remember seeing the word or not. If you remember seeing the word press ""old"" or type ""m"". If you do not remember seeing the word press ""new"" or type ""z"". Please press the space bar or click on continue to begin. ",,,613c381cde82d55e452d621a,30,2022-02-12_16h48.23.776,lexical_decision_task_DD,2021.2.3,MacIntel,58.82352941,,,,,,,,,,,,,,,,,,,,,,,,,,,,,,,,,,,,,,,,,,,,,,,,,,,,,,,,,,,,,,,,,,4,0,4,0,1,instr_done_button,,,,,,,,,,,,,,,
,,,,,,,,,,,,,,,,,613c381cde82d55e452d621a,30,2022-02-12_16h48.23.776,lexical_decision_task_DD,2021.2.3,MacIntel,58.82352941,,,,,,,,,,,1.609,0,,,,,,,,,,,,,,,,,,,,,,,,0.1375,-0.17125,0,0,0,,,,,,,BLOKE,C,z,m,./images/BLOKE.png,,,,,,,,,,,,,,,,,,,,,m,0,1.609,,,,,,,,0,0,0,96,1
,,,,,,,,,,,,,,,,,613c381cde82d55e452d621a,30,2022-02-12_16h48.23.776,lexical_decision_task_DD,2021.2.3,MacIntel,58.82352941,,,,,,,,,,,0.594,1,,,,,,,,,,,,,,,,,,,,,,,,0.1375,-0.17125,0,0,0,,,,,,,MOOSE,C,m,m,./images/MOOSE.png,,,,,,,,,,,,,,,,,,,,,m,1,0.594,,,,,,,,0,1,1,57,1
,,,,,,,,,,,,,,,,,613c381cde82d55e452d621a,30,2022-02-12_16h48.23.776,lexical_decision_task_DD,2021.2.3,MacIntel,58.82352941,,,,,,,,,,,3.154,1,,,,,,,,,,,,,,,,,,,,,,,,0.1375,-0.17125,0,0,0,,,,,,,GARDEN,HB,z,m,./images/GARDENHB.png,,,,,,,,,,,,,,,,,,,,,z,1,3.154,,,,,,,,0,2,2,94,1
,,,,,,,,,,,,,,,,,613c381cde82d55e452d621a,30,2022-02-12_16h48.23.776,lexical_decision_task_DD,2021.2.3,MacIntel,58.82352941,,,,,,,,,,,0.912,1,,,,,,,,,,,,,,,,,,,,,,,,0.1375,-0.17125,0,0,0,,,,,,,DOUGH,HB,m,m,./images/DOUGHHB.png,,,,,,,,,,,,,,,,,,,,,m,1,0.912,,,,,,,,0,3,3,19,1
,,,,,,,,,,,,,,,,,613c381cde82d55e452d621a,30,2022-02-12_16h48.23.776,lexical_decision_task_DD,2021.2.3,MacIntel,58.82352941,,,,,,,,,,,0.873,1,,,,,,,,,,,,,,,,,,,,,,,,0.1375,-0.17125,0,0,0,,,,,,,BUNNY,HB,z,m,./images/BUNNYHB.png,,,,,,,,,,,,,,,,,,,,,z,1,0.873,,,,,,,,0,4,4,97,1
,,,,,,,,,,,,,,,,,613c381cde82d55e452d621a,30,2022-02-12_16h48.23.776,lexical_decision_task_DD,2021.2.3,MacIntel,58.82352941,,,,,,,,,,,1.717,0,,,,,,,,,,,,,,,,,,,,,,,,0.1375,-0.17125,0,0,0,,,,,,,VALLEY,LB,z,m,./images/VALLEYLB.png,,,,,,,,,,,,,,,,,,,,,m,0,1.717,,,,,,,,0,5,5,152,1
,,,,,,,,,,,,,,,,,613c381cde82d55e452d621a,30,2022-02-12_16h48.23.776,lexical_decision_task_DD,2021.2.3,MacIntel,58.82352941,,,,,,,,,,,0.781,1,,,,,,,,,,,,,,,,,,,,,,,,0.1375,-0.17125,0,0,0,,,,,,,PIMPLE,LB,m,m,./images/PIMPLELB.png,,,,,,,,,,,,,,,,,,,,,m,1,0.781,,,,,,,,0,6,6,71,1
,,,,,,,,,,,,,,,,,613c381cde82d55e452d621a,30,2022-02-12_16h48.23.776,lexical_decision_task_DD,2021.2.3,MacIntel,58.82352941,,,,,,,,,,,0.878,0,,,,,,,,,,,,,,,,,,,,,,,,0.1375,-0.17125,0,0,0,,,,,,,MUMMY,HB,z,m,./images/MUMMYHB.png,,,,,,,,,,,,,,,,,,,,,m,0,0.878,,,,,,,,0,7,7,130,1
,,,,,,,,,,,,,,,,,613c381cde82d55e452d621a,30,2022-02-12_16h48.23.776,lexical_decision_task_DD,2021.2.3,MacIntel,58.82352941,,,,,,,,,,,0.79,1,,,,,,,,,,,,,,,,,,,,,,,,0.1375,-0.17125,0,0,0,,,,,,,CRUMB,LB,m,m,./images/CRUMBLB.png,,,,,,,,,,,,,,,,,,,,,m,1,0.79,,,,,,,,0,8,8,29,1
,,,,,,,,,,,,,,,,,613c381cde82d55e452d621a,30,2022-02-12_16h48.23.776,lexical_decision_task_DD,2021.2.3,MacIntel,58.82352941,,,,,,,,,,,0.954,0,,,,,,,,,,,,,,,,,,,,,,,,0.1375,-0.17125,0,0,0,,,,,,,STAIN,C,z,m,./images/STAIN.png,,,,,,,,,,,,,,,,,,,,,m,0,0.954,,,,,,,,0,9,9,90,1
,,,,,,,,,,,,,,,,,613c381cde82d55e452d621a,30,2022-02-12_16h48.23.776,lexical_decision_task_DD,2021.2.3,MacIntel,58.82352941,,,,,,,,,,,0.714,1,,,,,,,,,,,,,,,,,,,,,,,,0.1375,-0.17125,0,0,0,,,,,,,GRANNY,LB,z,m,./images/GRANNYLB.png,,,,,,,,,,,,,,,,,,,,,z,1,0.714,,,,,,,,0,10,10,104,1
,,,,,,,,,,,,,,,,,613c381cde82d55e452d621a,30,2022-02-12_16h48.23.776,lexical_decision_task_DD,2021.2.3,MacIntel,58.82352941,,,,,,,,,,,1.691,1,,,,,,,,,,,,,,,,,,,,,,,,0.1375,-0.17125,0,0,0,,,,,,,BRUSH,LB,z,m,./images/BRUSHLB.png,,,,,,,,,,,,,,,,,,,,,z,1,1.691,,,,,,,,0,11,11,143,1
,,,,,,,,,,,,,,,,,613c381cde82d55e452d621a,30,2022-02-12_16h48.23.776,lexical_decision_task_DD,2021.2.3,MacIntel,58.82352941,,,,,,,,,,,1.539,1,,,,,,,,,,,,,,,,,,,,,,,,0.1375,-0.17125,0,0,0,,,,,,,PISTOL,LB,z,m,./images/PISTOLLB.png,,,,,,,,,,,,,,,,,,,,,z,1,1.539,,,,,,,,0,12,12,113,1
,,,,,,,,,,,,,,,,,613c381cde82d55e452d621a,30,2022-02-12_16h48.23.776,lexical_decision_task_DD,2021.2.3,MacIntel,58.82352941,,,,,,,,,,,0.633,0,,,,,,,,,,,,,,,,,,,,,,,,0.1375,-0.17125,0,0,0,,,,,,,BROOM,C,z,m,./images/BROOM.png,,,,,,,,,,,,,,,,,,,,,m,0,0.633,,,,,,,,0,13,13,162,1
,,,,,,,,,,,,,,,,,613c381cde82d55e452d621a,30,2022-02-12_16h48.23.776,lexical_decision_task_DD,2021.2.3,MacIntel,58.82352941,,,,,,,,,,,0.74,1,,,,,,,,,,,,,,,,,,,,,,,,0.1375,-0.17125,0,0,0,,,,,,,SNACK,HB,m,m,./images/SNACKHB.png,,,,,,,,,,,,,,,,,,,,,m,1,0.74,,,,,,,,0,14,14,73,1
,,,,,,,,,,,,,,,,,613c381cde82d55e452d621a,30,2022-02-12_16h48.23.776,lexical_decision_task_DD,2021.2.3,MacIntel,58.82352941,,,,,,,,,,,0.742,1,,,,,,,,,,,,,,,,,,,,,,,,0.1375,-0.17125,0,0,0,,,,,,,FALCON,HB,m,m,./images/FALCONHB.png,,,,,,,,,,,,,,,,,,,,,m,1,0.742,,,,,,,,0,15,15,28,1
,,,,,,,,,,,,,,,,,613c381cde82d55e452d621a,30,2022-02-12_16h48.23.776,lexical_decision_task_DD,2021.2.3,MacIntel,58.82352941,,,,,,,,,,,1.11,1,,,,,,,,,,,,,,,,,,,,,,,,0.1375,-0.17125,0,0,0,,,,,,,SWING,HB,m,m,./images/SWINGHB.png,,,,,,,,,,,,,,,,,,,,,m,1,1.11,,,,,,,,0,16,16,40,1
,,,,,,,,,,,,,,,,,613c381cde82d55e452d621a,30,2022-02-12_16h48.23.776,lexical_decision_task_DD,2021.2.3,MacIntel,58.82352941,,,,,,,,,,,0.739,1,,,,,,,,,,,,,,,,,,,,,,,,0.1375,-0.17125,0,0,0,,,,,,,TWINS,C,m,m,./images/TWINS.png,,,,,,,,,,,,,,,,,,,,,m,1,0.739,,,,,,,,0,17,17,60,1
,,,,,,,,,,,,,,,,,613c381cde82d55e452d621a,30,2022-02-12_16h48.23.776,lexical_decision_task_DD,2021.2.3,MacIntel,58.82352941,,,,,,,,,,,1.726,0,,,,,,,,,,,,,,,,,,,,,,,,0.1375,-0.17125,0,0,0,,,,,,,CRATER,C,z,m,./images/CRATER.png,,,,,,,,,,,,,,,,,,,,,m,0,1.726,,,,,,,,0,18,18,87,1
,,,,,,,,,,,,,,,,,613c381cde82d55e452d621a,30,2022-02-12_16h48.23.776,lexical_decision_task_DD,2021.2.3,MacIntel,58.82352941,,,,,,,,,,,1.061,0,,,,,,,,,,,,,,,,,,,,,,,,0.1375,-0.17125,0,0,0,,,,,,,FLASK,C,z,m,./images/FLASK.png,,,,,,,,,,,,,,,,,,,,,m,0,1.061,,,,,,,,0,19,19,156,1
,,,,,,,,,,,,,,,,,613c381cde82d55e452d621a,30,2022-02-12_16h48.23.776,lexical_decision_task_DD,2021.2.3,MacIntel,58.82352941,,,,,,,,,,,0.928,1,,,,,,,,,,,,,,,,,,,,,,,,0.1375,-0.17125,0,0,0,,,,,,,CEMENT,LB,m,m,./images/CEMENTLB.png,,,,,,,,,,,,,,,,,,,,,m,1,0.928,,,,,,,,0,20,20,74,1
,,,,,,,,,,,,,,,,,613c381cde82d55e452d621a,30,2022-02-12_16h48.23.776,lexical_decision_task_DD,2021.2.3,MacIntel,58.82352941,,,,,,,,,,,1.201,1,,,,,,,,,,,,,,,,,,,,,,,,0.1375,-0.17125,0,0,0,,,,,,,BURIAL,LB,m,m,./images/BURIALLB.png,,,,,,,,,,,,,,,,,,,,,m,1,1.201,,,,,,,,0,21,21,59,1
,,,,,,,,,,,,,,,,,613c381cde82d55e452d621a,30,2022-02-12_16h48.23.776,lexical_decision_task_DD,2021.2.3,MacIntel,58.82352941,,,,,,,,,,,2.341,0,,,,,,,,,,,,,,,,,,,,,,,,0.1375,-0.17125,0,0,0,,,,,,,CLOUD,LB,z,m,./images/CLOUDLB.png,,,,,,,,,,,,,,,,,,,,,m,0,2.341,,,,,,,,0,22,22,110,1
,,,,,,,,,,,,,,,,,613c381cde82d55e452d621a,30,2022-02-12_16h48.23.776,lexical_decision_task_DD,2021.2.3,MacIntel,58.82352941,,,,,,,,,,,2.06,0,,,,,,,,,,,,,,,,,,,,,,,,0.1375,-0.17125,0,0,0,,,,,,,ARROW,C,z,m,./images/ARROW.png,,,,,,,,,,,,,,,,,,,,,m,0,2.06,,,,,,,,0,23,23,153,1
,,,,,,,,,,,,,,,,,613c381cde82d55e452d621a,30,2022-02-12_16h48.23.776,lexical_decision_task_DD,2021.2.3,MacIntel,58.82352941,,,,,,,,,,,1.248,0,,,,,,,,,,,,,,,,,,,,,,,,0.1375,-0.17125,0,0,0,,,,,,,LLAMA,LB,z,m,./images/LLAMALB.png,,,,,,,,,,,,,,,,,,,,,m,0,1.248,,,,,,,,0,24,24,119,1
,,,,,,,,,,,,,,,,,613c381cde82d55e452d621a,30,2022-02-12_16h48.23.776,lexical_decision_task_DD,2021.2.3,MacIntel,58.82352941,,,,,,,,,,,1.136,1,,,,,,,,,,,,,,,,,,,,,,,,0.1375,-0.17125,0,0,0,,,,,,,PARADE,LB,z,m,./images/PARADELB.png,,,,,,,,,,,,,,,,,,,,,z,1,1.136,,,,,,,,0,25,25,101,1
,,,,,,,,,,,,,,,,,613c381cde82d55e452d621a,30,2022-02-12_16h48.23.776,lexical_decision_task_DD,2021.2.3,MacIntel,58.82352941,,,,,,,,,,,0.74,1,,,,,,,,,,,,,,,,,,,,,,,,0.1375,-0.17125,0,0,0,,,,,,,SPORT,C,m,m,./images/SPORT.png,,,,,,,,,,,,,,,,,,,,,m,1,0.74,,,,,,,,0,26,26,48,1
,,,,,,,,,,,,,,,,,613c381cde82d55e452d621a,30,2022-02-12_16h48.23.776,lexical_decision_task_DD,2021.2.3,MacIntel,58.82352941,,,,,,,,,,,1.055,1,,,,,,,,,,,,,,,,,,,,,,,,0.1375,-0.17125,0,0,0,,,,,,,CRUST,HB,m,m,./images/CRUSTHB.png,,,,,,,,,,,,,,,,,,,,,m,1,1.055,,,,,,,,0,27,27,79,1
,,,,,,,,,,,,,,,,,613c381cde82d55e452d621a,30,2022-02-12_16h48.23.776,lexical_decision_task_DD,2021.2.3,MacIntel,58.82352941,,,,,,,,,,,0.899,0,,,,,,,,,,,,,,,,,,,,,,,,0.1375,-0.17125,0,0,0,,,,,,,HAMMER,C,z,m,./images/HAMMER.png,,,,,,,,,,,,,,,,,,,,,m,0,0.899,,,,,,,,0,28,28,159,1
,,,,,,,,,,,,,,,,,613c381cde82d55e452d621a,30,2022-02-12_16h48.23.776,lexical_decision_task_DD,2021.2.3,MacIntel,58.82352941,,,,,,,,,,,1.271,0,,,,,,,,,,,,,,,,,,,,,,,,0.1375,-0.17125,0,0,0,,,,,,,PAINT,HB,m,m,./images/PAINTHB.png,,,,,,,,,,,,,,,,,,,,,z,0,1.271,,,,,,,,0,29,29,7,1
,,,,,,,,,,,,,,,,,613c381cde82d55e452d621a,30,2022-02-12_16h48.23.776,lexical_decision_task_DD,2021.2.3,MacIntel,58.82352941,,,,,,,,,,,0.79,0,,,,,,,,,,,,,,,,,,,,,,,,0.1375,-0.17125,0,0,0,,,,,,,CHERRY,C,z,m,./images/CHERRY.png,,,,,,,,,,,,,,,,,,,,,m,0,0.79,,,,,,,,0,30,30,138,1
,,,,,,,,,,,,,,,,,613c381cde82d55e452d621a,30,2022-02-12_16h48.23.776,lexical_decision_task_DD,2021.2.3,MacIntel,58.82352941,,,,,,,,,,,1.159,0,,,,,,,,,,,,,,,,,,,,,,,,0.1375,-0.17125,0,0,0,,,,,,,QUILL,HB,m,m,./images/QUILLHB.png,,,,,,,,,,,,,,,,,,,,,z,0,1.159,,,,,,,,0,31,31,31,1
,,,,,,,,,,,,,,,,,613c381cde82d55e452d621a,30,2022-02-12_16h48.23.776,lexical_decision_task_DD,2021.2.3,MacIntel,58.82352941,,,,,,,,,,,1.06,1,,,,,,,,,,,,,,,,,,,,,,,,0.1375,-0.17125,0,0,0,,,,,,,STOOL,HB,z,m,./images/STOOLHB.png,,,,,,,,,,,,,,,,,,,,,z,1,1.06,,,,,,,,0,32,32,127,1
,,,,,,,,,,,,,,,,,613c381cde82d55e452d621a,30,2022-02-12_16h48.23.776,lexical_decision_task_DD,2021.2.3,MacIntel,58.82352941,,,,,,,,,,,0.853,0,,,,,,,,,,,,,,,,,,,,,,,,0.1375,-0.17125,0,0,0,,,,,,,COOKER,C,m,m,./images/COOKER.png,,,,,,,,,,,,,,,,,,,,,z,0,0.853,,,,,,,,0,33,33,69,1
,,,,,,,,,,,,,,,,,613c381cde82d55e452d621a,30,2022-02-12_16h48.23.776,lexical_decision_task_DD,2021.2.3,MacIntel,58.82352941,,,,,,,,,,,0.776,0,,,,,,,,,,,,,,,,,,,,,,,,0.1375,-0.17125,0,0,0,,,,,,,BUBBLE,LB,z,m,./images/BUBBLELB.png,,,,,,,,,,,,,,,,,,,,,m,0,0.776,,,,,,,,0,34,34,155,1
,,,,,,,,,,,,,,,,,613c381cde82d55e452d621a,30,2022-02-12_16h48.23.776,lexical_decision_task_DD,2021.2.3,MacIntel,58.82352941,,,,,,,,,,,1.199,1,,,,,,,,,,,,,,,,,,,,,,,,0.1375,-0.17125,0,0,0,,,,,,,WALNUT,C,z,m,./images/WALNUT.png,,,,,,,,,,,,,,,,,,,,,z,1,1.199,,,,,,,,0,35,35,84,1
,,,,,,,,,,,,,,,,,613c381cde82d55e452d621a,30,2022-02-12_16h48.23.776,lexical_decision_task_DD,2021.2.3,MacIntel,58.82352941,,,,,,,,,,,0.913,1,,,,,,,,,,,,,,,,,,,,,,,,0.1375,-0.17125,0,0,0,,,,,,,KIDNEY,C,m,m,./images/KIDNEY.png,,,,,,,,,,,,,,,,,,,,,m,1,0.913,,,,,,,,0,36,36,21,1
,,,,,,,,,,,,,,,,,613c381cde82d55e452d621a,30,2022-02-12_16h48.23.776,lexical_decision_task_DD,2021.2.3,MacIntel,58.82352941,,,,,,,,,,,1.341,1,,,,,,,,,,,,,,,,,,,,,,,,0.1375,-0.17125,0,0,0,,,,,,,BIRTH,HB,m,m,./images/BIRTHHB.png,,,,,,,,,,,,,,,,,,,,,m,1,1.341,,,,,,,,0,37,37,37,1
,,,,,,,,,,,,,,,,,613c381cde82d55e452d621a,30,2022-02-12_16h48.23.776,lexical_decision_task_DD,2021.2.3,MacIntel,58.82352941,,,,,,,,,,,3.94,0,,,,,,,,,,,,,,,,,,,,,,,,0.1375,-0.17125,0,0,0,,,,,,,SCREW,C,m,m,./images/SCREW.png,,,,,,,,,,,,,,,,,,,,,z,0,3.94,,,,,,,,0,38,38,24,1
,,,,,,,,,,,,,,,,,613c381cde82d55e452d621a,30,2022-02-12_16h48.23.776,lexical_decision_task_DD,2021.2.3,MacIntel,58.82352941,,,,,,,,,,,1.15,1,,,,,,,,,,,,,,,,,,,,,,,,0.1375,-0.17125,0,0,0,,,,,,,GLOVE,HB,z,m,./images/GLOVEHB.png,,,,,,,,,,,,,,,,,,,,,z,1,1.15,,,,,,,,0,39,39,157,1
,,,,,,,,,,,,,,,,,613c381cde82d55e452d621a,30,2022-02-12_16h48.23.776,lexical_decision_task_DD,2021.2.3,MacIntel,58.82352941,,,,,,,,,,,0.681,1,,,,,,,,,,,,,,,,,,,,,,,,0.1375,-0.17125,0,0,0,,,,,,,RHINO,C,m,m,./images/RHINO.png,,,,,,,,,,,,,,,,,,,,,m,1,0.681,,,,,,,,0,40,40,9,1
,,,,,,,,,,,,,,,,,613c381cde82d55e452d621a,30,2022-02-12_16h48.23.776,lexical_decision_task_DD,2021.2.3,MacIntel,58.82352941,,,,,,,,,,,0.925,0,,,,,,,,,,,,,,,,,,,,,,,,0.1375,-0.17125,0,0,0,space,,,,,,MIDGET,HB,z,m,./images/MIDGETHB.png,1.2,,,,,,,,,,,,,,,,,,,,m,0,0.925,,,,,,,,0,41,41,160,1
,,,,,,,,,,,,,,,,,613c381cde82d55e452d621a,30,2022-02-12_16h48.23.776,lexical_decision_task_DD,2021.2.3,MacIntel,58.82352941,,,,,,,,,,,0.63,1,,,,,,,,,,,,,,,,,,,,,,,,0.1375,-0.17125,0,0,0,,,,,,,SUNSET,HB,m,m,./images/SUNSETHB.png,,,,,,,,,,,,,,,,,,,,,m,1,0.63,,,,,,,,0,42,42,82,1
,,,,,,,,,,,,,,,,,613c381cde82d55e452d621a,30,2022-02-12_16h48.23.776,lexical_decision_task_DD,2021.2.3,MacIntel,58.82352941,,,,,,,,,,,0.727,1,,,,,,,,,,,,,,,,,,,,,,,,0.1375,-0.17125,0,0,0,,,,,,,SKIING,LB,m,m,./images/SKIINGLB.png,,,,,,,,,,,,,,,,,,,,,m,1,0.727,,,,,,,,0,43,43,17,1
,,,,,,,,,,,,,,,,,613c381cde82d55e452d621a,30,2022-02-12_16h48.23.776,lexical_decision_task_DD,2021.2.3,MacIntel,58.82352941,,,,,,,,,,,0.889,1,,,,,,,,,,,,,,,,,,,,,,,,0.1375,-0.17125,0,0,0,,,,,,,CASINO,HB,z,m,./images/CASINOHB.png,,,,,,,,,,,,,,,,,,,,,z,1,0.889,,,,,,,,0,44,44,112,1
,,,,,,,,,,,,,,,,,613c381cde82d55e452d621a,30,2022-02-12_16h48.23.776,lexical_decision_task_DD,2021.2.3,MacIntel,58.82352941,,,,,,,,,,,0.826,1,,,,,,,,,,,,,,,,,,,,,,,,0.1375,-0.17125,0,0,0,,,,,,,LAGOON,LB,z,m,./images/LAGOONLB.png,,,,,,,,,,,,,,,,,,,,,z,1,0.826,,,,,,,,0,45,45,131,1
,,,,,,,,,,,,,,,,,613c381cde82d55e452d621a,30,2022-02-12_16h48.23.776,lexical_decision_task_DD,2021.2.3,MacIntel,58.82352941,,,,,,,,,,,0.841,0,,,,,,,,,,,,,,,,,,,,,,,,0.1375,-0.17125,0,0,0,,,,,,,FENCE,LB,z,m,./images/FENCELB.png,,,,,,,,,,,,,,,,,,,,,m,0,0.841,,,,,,,,0,46,46,98,1
,,,,,,,,,,,,,,,,,613c381cde82d55e452d621a,30,2022-02-12_16h48.23.776,lexical_decision_task_DD,2021.2.3,MacIntel,58.82352941,,,,,,,,,,,1.049,1,,,,,,,,,,,,,,,,,,,,,,,,0.1375,-0.17125,0,0,0,,,,,,,TRIPOD,C,m,m,./images/TRIPOD.png,,,,,,,,,,,,,,,,,,,,,m,1,1.049,,,,,,,,0,47,47,54,1
,,,,,,,,,,,,,,,,,613c381cde82d55e452d621a,30,2022-02-12_16h48.23.776,lexical_decision_task_DD,2021.2.3,MacIntel,58.82352941,,,,,,,,,,,0.678,1,,,,,,,,,,,,,,,,,,,,,,,,0.1375,-0.17125,0,0,0,,,,,,,ATTIC,C,m,m,./images/ATTIC.png,,,,,,,,,,,,,,,,,,,,,m,1,0.678,,,,,,,,0,48,48,27,1
,,,,,,,,,,,,,,,,,613c381cde82d55e452d621a,30,2022-02-12_16h48.23.776,lexical_decision_task_DD,2021.2.3,MacIntel,58.82352941,,,,,,,,,,,0.683,1,,,,,,,,,,,,,,,,,,,,,,,,0.1375,-0.17125,0,0,0,,,,,,,URINE,HB,m,m,./images/URINEHB.png,,,,,,,,,,,,,,,,,,,,,m,1,0.683,,,,,,,,0,49,49,70,1
,,,,,,,,,,,,,,,,,613c381cde82d55e452d621a,30,2022-02-12_16h48.23.776,lexical_decision_task_DD,2021.2.3,MacIntel,58.82352941,,,,,,,,,,,0.904,0,,,,,,,,,,,,,,,,,,,,,,,,0.1375,-0.17125,0,0,0,,,,,,,CANDY,C,z,m,./images/CANDY.png,,,,,,,,,,,,,,,,,,,,,m,0,0.904,,,,,,,,0,50,50,123,1
,,,,,,,,,,,,,,,,,613c381cde82d55e452d621a,30,2022-02-12_16h48.23.776,lexical_decision_task_DD,2021.2.3,MacIntel,58.82352941,,,,,,,,,,,0.875,1,,,,,,,,,,,,,,,,,,,,,,,,0.1375,-0.17125,0,0,0,,,,,,,POSTER,LB,z,m,./images/POSTERLB.png,,,,,,,,,,,,,,,,,,,,,z,1,0.875,,,,,,,,0,51,51,137,1
,,,,,,,,,,,,,,,,,613c381cde82d55e452d621a,30,2022-02-12_16h48.23.776,lexical_decision_task_DD,2021.2.3,MacIntel,58.82352941,,,,,,,,,,,0.89,1,,,,,,,,,,,,,,,,,,,,,,,,0.1375,-0.17125,0,0,0,,,,,,,SAUNA,C,z,m,./images/SAUNA.png,,,,,,,,,,,,,,,,,,,,,z,1,0.89,,,,,,,,0,52,52,117,1
,,,,,,,,,,,,,,,,,613c381cde82d55e452d621a,30,2022-02-12_16h48.23.776,lexical_decision_task_DD,2021.2.3,MacIntel,58.82352941,,,,,,,,,,,0.692,1,,,,,,,,,,,,,,,,,,,,,,,,0.1375,-0.17125,0,0,0,,,,,,,BEARD,LB,m,m,./images/BEARDLB.png,,,,,,,,,,,,,,,,,,,,,m,1,0.692,,,,,,,,0,53,53,2,1
,,,,,,,,,,,,,,,,,613c381cde82d55e452d621a,30,2022-02-12_16h48.23.776,lexical_decision_task_DD,2021.2.3,MacIntel,58.82352941,,,,,,,,,,,1.013,0,,,,,,,,,,,,,,,,,,,,,,,,0.1375,-0.17125,0,0,0,,,,,,,JELLY,HB,m,m,./images/JELLYHB.png,,,,,,,,,,,,,,,,,,,,,z,0,1.013,,,,,,,,0,54,54,64,1
,,,,,,,,,,,,,,,,,613c381cde82d55e452d621a,30,2022-02-12_16h48.23.776,lexical_decision_task_DD,2021.2.3,MacIntel,58.82352941,,,,,,,,,,,1.592,1,,,,,,,,,,,,,,,,,,,,,,,,0.1375,-0.17125,0,0,0,,,,,,,MOSQUE,HB,m,m,./images/MOSQUEHB.png,,,,,,,,,,,,,,,,,,,,,m,1,1.592,,,,,,,,0,55,55,43,1
,,,,,,,,,,,,,,,,,613c381cde82d55e452d621a,30,2022-02-12_16h48.23.776,lexical_decision_task_DD,2021.2.3,MacIntel,58.82352941,,,,,,,,,,,0.855,1,,,,,,,,,,,,,,,,,,,,,,,,0.1375,-0.17125,0,0,0,,,,,,,SAILOR,HB,m,m,./images/SAILORHB.png,,,,,,,,,,,,,,,,,,,,,m,1,0.855,,,,,,,,0,56,56,67,1
,,,,,,,,,,,,,,,,,613c381cde82d55e452d621a,30,2022-02-12_16h48.23.776,lexical_decision_task_DD,2021.2.3,MacIntel,58.82352941,,,,,,,,,,,0.995,1,,,,,,,,,,,,,,,,,,,,,,,,0.1375,-0.17125,0,0,0,,,,,,,FLESH,C,z,m,./images/FLESH.png,,,,,,,,,,,,,,,,,,,,,z,1,0.995,,,,,,,,0,57,57,108,1
,,,,,,,,,,,,,,,,,613c381cde82d55e452d621a,30,2022-02-12_16h48.23.776,lexical_decision_task_DD,2021.2.3,MacIntel,58.82352941,,,,,,,,,,,1.073,1,,,,,,,,,,,,,,,,,,,,,,,,0.1375,-0.17125,0,0,0,,,,,,,WHISKY,LB,z,m,./images/WHISKYLB.png,,,,,,,,,,,,,,,,,,,,,z,1,1.073,,,,,,,,0,58,58,167,1
,,,,,,,,,,,,,,,,,613c381cde82d55e452d621a,30,2022-02-12_16h48.23.776,lexical_decision_task_DD,2021.2.3,MacIntel,58.82352941,,,,,,,,,,,0.84,1,,,,,,,,,,,,,,,,,,,,,,,,0.1375,-0.17125,0,0,0,,,,,,,PEBBLE,HB,z,m,./images/PEBBLEHB.png,,,,,,,,,,,,,,,,,,,,,z,1,0.84,,,,,,,,0,59,59,166,1
,,,,,,,,,,,,,,,,,613c381cde82d55e452d621a,30,2022-02-12_16h48.23.776,lexical_decision_task_DD,2021.2.3,MacIntel,58.82352941,,,,,,,,,,,0.681,1,,,,,,,,,,,,,,,,,,,,,,,,0.1375,-0.17125,0,0,0,,,,,,,PARCEL,C,z,m,./images/PARCEL.png,,,,,,,,,,,,,,,,,,,,,z,1,0.681,,,,,,,,0,60,60,102,1
,,,,,,,,,,,,,,,,,613c381cde82d55e452d621a,30,2022-02-12_16h48.23.776,lexical_decision_task_DD,2021.2.3,MacIntel,58.82352941,,,,,,,,,,,1.101,1,,,,,,,,,,,,,,,,,,,,,,,,0.1375,-0.17125,0,0,0,,,,,,,FERRY,C,z,m,./images/FERRY.png,,,,,,,,,,,,,,,,,,,,,z,1,1.101,,,,,,,,0,61,61,141,1
,,,,,,,,,,,,,,,,,613c381cde82d55e452d621a,30,2022-02-12_16h48.23.776,lexical_decision_task_DD,2021.2.3,MacIntel,58.82352941,,,,,,,,,,,0.962,1,,,,,,,,,,,,,,,,,,,,,,,,0.1375,-0.17125,0,0,0,,,,,,,TIGER,HB,z,m,./images/TIGERHB.png,,,,,,,,,,,,,,,,,,,,,z,1,0.962,,,,,,,,0,62,62,121,1
,,,,,,,,,,,,,,,,,613c381cde82d55e452d621a,30,2022-02-12_16h48.23.776,lexical_decision_task_DD,2021.2.3,MacIntel,58.82352941,,,,,,,,,,,0.839,1,,,,,,,,,,,,,,,,,,,,,,,,0.1375,-0.17125,0,0,0,,,,,,,BABOON,HB,m,m,./images/BABOONHB.png,,,,,,,,,,,,,,,,,,,,,m,1,0.839,,,,,,,,0,63,63,58,1
,,,,,,,,,,,,,,,,,613c381cde82d55e452d621a,30,2022-02-12_16h48.23.776,lexical_decision_task_DD,2021.2.3,MacIntel,58.82352941,,,,,,,,,,,0.804,1,,,,,,,,,,,,,,,,,,,,,,,,0.1375,-0.17125,0,0,0,,,,,,,SAUCE,C,z,m,./images/SAUCE.png,,,,,,,,,,,,,,,,,,,,,z,1,0.804,,,,,,,,0,64,64,135,1
,,,,,,,,,,,,,,,,,613c381cde82d55e452d621a,30,2022-02-12_16h48.23.776,lexical_decision_task_DD,2021.2.3,MacIntel,58.82352941,,,,,,,,,,,1.193,1,,,,,,,,,,,,,,,,,,,,,,,,0.1375,-0.17125,0,0,0,,,,,,,DIVER,C,z,m,./images/DIVER.png,,,,,,,,,,,,,,,,,,,,,z,1,1.193,,,,,,,,0,65,65,93,1
,,,,,,,,,,,,,,,,,613c381cde82d55e452d621a,30,2022-02-12_16h48.23.776,lexical_decision_task_DD,2021.2.3,MacIntel,58.82352941,,,,,,,,,,,1.161,0,,,,,,,,,,,,,,,,,,,,,,,,0.1375,-0.17125,0,0,0,,,,,,,BAMBOO,LB,z,m,./images/BAMBOOLB.png,,,,,,,,,,,,,,,,,,,,,m,0,1.161,,,,,,,,0,66,66,89,1
,,,,,,,,,,,,,,,,,613c381cde82d55e452d621a,30,2022-02-12_16h48.23.776,lexical_decision_task_DD,2021.2.3,MacIntel,58.82352941,,,,,,,,,,,0.739,1,,,,,,,,,,,,,,,,,,,,,,,,0.1375,-0.17125,0,0,0,,,,,,,BOXER,HB,z,m,./images/BOXERHB.png,,,,,,,,,,,,,,,,,,,,,z,1,0.739,,,,,,,,0,67,67,88,1
,,,,,,,,,,,,,,,,,613c381cde82d55e452d621a,30,2022-02-12_16h48.23.776,lexical_decision_task_DD,2021.2.3,MacIntel,58.82352941,,,,,,,,,,,0.74,1,,,,,,,,,,,,,,,,,,,,,,,,0.1375,-0.17125,0,0,0,,,,,,,WALRUS,LB,m,m,./images/WALRUSLB.png,,,,,,,,,,,,,,,,,,,,,m,1,0.74,,,,,,,,0,68,68,23,1
,,,,,,,,,,,,,,,,,613c381cde82d55e452d621a,30,2022-02-12_16h48.23.776,lexical_decision_task_DD,2021.2.3,MacIntel,58.82352941,,,,,,,,,,,0.956,1,,,,,,,,,,,,,,,,,,,,,,,,0.1375,-0.17125,0,0,0,,,,,,,BAKER,C,z,m,./images/BAKER.png,,,,,,,,,,,,,,,,,,,,,z,1,0.956,,,,,,,,0,69,69,147,1
,,,,,,,,,,,,,,,,,613c381cde82d55e452d621a,30,2022-02-12_16h48.23.776,lexical_decision_task_DD,2021.2.3,MacIntel,58.82352941,,,,,,,,,,,1.048,1,,,,,,,,,,,,,,,,,,,,,,,,0.1375,-0.17125,0,0,0,,,,,,,LITTER,C,m,m,./images/LITTER.png,,,,,,,,,,,,,,,,,,,,,m,1,1.048,,,,,,,,0,70,70,78,1
,,,,,,,,,,,,,,,,,613c381cde82d55e452d621a,30,2022-02-12_16h48.23.776,lexical_decision_task_DD,2021.2.3,MacIntel,58.82352941,,,,,,,,,,,0.775,1,,,,,,,,,,,,,,,,,,,,,,,,0.1375,-0.17125,0,0,0,,,,,,,PACKET,LB,m,m,./images/PACKETLB.png,,,,,,,,,,,,,,,,,,,,,m,1,0.775,,,,,,,,0,71,71,56,1
,,,,,,,,,,,,,,,,,613c381cde82d55e452d621a,30,2022-02-12_16h48.23.776,lexical_decision_task_DD,2021.2.3,MacIntel,58.82352941,,,,,,,,,,,0.813,1,,,,,,,,,,,,,,,,,,,,,,,,0.1375,-0.17125,0,0,0,,,,,,,MONKEY,C,z,m,./images/MONKEY.png,,,,,,,,,,,,,,,,,,,,,z,1,0.813,,,,,,,,0,72,72,129,1
,,,,,,,,,,,,,,,,,613c381cde82d55e452d621a,30,2022-02-12_16h48.23.776,lexical_decision_task_DD,2021.2.3,MacIntel,58.82352941,,,,,,,,,,,1.108,1,,,,,,,,,,,,,,,,,,,,,,,,0.1375,-0.17125,0,0,0,,,,,,,GRAPE,HB,z,m,./images/GRAPEHB.png,,,,,,,,,,,,,,,,,,,,,z,1,1.108,,,,,,,,0,73,73,100,1
,,,,,,,,,,,,,,,,,613c381cde82d55e452d621a,30,2022-02-12_16h48.23.776,lexical_decision_task_DD,2021.2.3,MacIntel,58.82352941,,,,,,,,,,,0.79,1,,,,,,,,,,,,,,,,,,,,,,,,0.1375,-0.17125,0,0,0,,,,,,,JUMPER,LB,z,m,./images/JUMPERLB.png,,,,,,,,,,,,,,,,,,,,,z,1,0.79,,,,,,,,0,74,74,158,1
,,,,,,,,,,,,,,,,,613c381cde82d55e452d621a,30,2022-02-12_16h48.23.776,lexical_decision_task_DD,2021.2.3,MacIntel,58.82352941,,,,,,,,,,,0.79,0,,,,,,,,,,,,,,,,,,,,,,,,0.1375,-0.17125,0,0,0,,,,,,,PASTA,LB,m,m,./images/PASTALB.png,,,,,,,,,,,,,,,,,,,,,z,0,0.79,,,,,,,,0,75,75,5,1
,,,,,,,,,,,,,,,,,613c381cde82d55e452d621a,30,2022-02-12_16h48.23.776,lexical_decision_task_DD,2021.2.3,MacIntel,58.82352941,,,,,,,,,,,0.906,0,,,,,,,,,,,,,,,,,,,,,,,,0.1375,-0.17125,0,0,0,,,,,,,MOTOR,HB,m,m,./images/MOTORHB.png,,,,,,,,,,,,,,,,,,,,,z,0,0.906,,,,,,,,0,76,76,13,1
,,,,,,,,,,,,,,,,,613c381cde82d55e452d621a,30,2022-02-12_16h48.23.776,lexical_decision_task_DD,2021.2.3,MacIntel,58.82352941,,,,,,,,,,,0.694,1,,,,,,,,,,,,,,,,,,,,,,,,0.1375,-0.17125,0,0,0,,,,,,,RAZOR,HB,z,m,./images/RAZORHB.png,,,,,,,,,,,,,,,,,,,,,z,1,0.694,,,,,,,,0,77,77,118,1
,,,,,,,,,,,,,,,,,613c381cde82d55e452d621a,30,2022-02-12_16h48.23.776,lexical_decision_task_DD,2021.2.3,MacIntel,58.82352941,,,,,,,,,,,0.762,1,,,,,,,,,,,,,,,,,,,,,,,,0.1375,-0.17125,0,0,0,,,,,,,DRUMS,HB,m,m,./images/DRUMSHB.png,,,,,,,,,,,,,,,,,,,,,m,1,0.762,,,,,,,,0,78,78,49,1
,,,,,,,,,,,,,,,,,613c381cde82d55e452d621a,30,2022-02-12_16h48.23.776,lexical_decision_task_DD,2021.2.3,MacIntel,58.82352941,,,,,,,,,,,1.045,1,,,,,,,,,,,,,,,,,,,,,,,,0.1375,-0.17125,0,0,0,,,,,,,JUNGLE,LB,m,m,./images/JUNGLELB.png,,,,,,,,,,,,,,,,,,,,,m,1,1.045,,,,,,,,0,79,79,83,1
,,,,,,,,,,,,,,,,,613c381cde82d55e452d621a,30,2022-02-12_16h48.23.776,lexical_decision_task_DD,2021.2.3,MacIntel,58.82352941,,,,,,,,,,,0.875,1,,,,,,,,,,,,,,,,,,,,,,,,0.1375,-0.17125,0,0,0,,,,,,,CRADLE,LB,m,m,./images/CRADLELB.png,,,,,,,,,,,,,,,,,,,,,m,1,0.875,,,,,,,,0,80,80,20,1
,,,,,,,,,,,,,,,,,613c381cde82d55e452d621a,30,2022-02-12_16h48.23.776,lexical_decision_task_DD,2021.2.3,MacIntel,58.82352941,,,,,,,,,,,1.053,1,,,,,,,,,,,,,,,,,,,,,,,,0.1375,-0.17125,0,0,0,,,,,,,WAGON,HB,z,m,./images/WAGONHB.png,,,,,,,,,,,,,,,,,,,,,z,1,1.053,,,,,,,,0,81,81,91,1
,,,,,,,,,,,,,,,,,613c381cde82d55e452d621a,30,2022-02-12_16h48.23.776,lexical_decision_task_DD,2021.2.3,MacIntel,58.82352941,,,,,,,,,,,0.789,1,,,,,,,,,,,,,,,,,,,,,,,,0.1375,-0.17125,0,0,0,,,,,,,STORM,C,m,m,./images/STORM.png,,,,,,,,,,,,,,,,,,,,,m,1,0.789,,,,,,,,0,82,82,30,1
,,,,,,,,,,,,,,,,,613c381cde82d55e452d621a,30,2022-02-12_16h48.23.776,lexical_decision_task_DD,2021.2.3,MacIntel,58.82352941,,,,,,,,,,,0.813,1,,,,,,,,,,,,,,,,,,,,,,,,0.1375,-0.17125,0,0,0,space,,,,,,JAGUAR,C,m,m,./images/JAGUAR.png,1.126,,,,,,,,,,,,,,,,,,,,m,1,0.813,,,,,,,,0,83,83,18,1
,,,,,,,,,,,,,,,,,613c381cde82d55e452d621a,30,2022-02-12_16h48.23.776,lexical_decision_task_DD,2021.2.3,MacIntel,58.82352941,,,,,,,,,,,0.628,0,,,,,,,,,,,,,,,,,,,,,,,,0.1375,-0.17125,0,0,0,,,,,,,BASKET,LB,z,m,./images/BASKETLB.png,,,,,,,,,,,,,,,,,,,,,m,0,0.628,,,,,,,,0,84,84,128,1
,,,,,,,,,,,,,,,,,613c381cde82d55e452d621a,30,2022-02-12_16h48.23.776,lexical_decision_task_DD,2021.2.3,MacIntel,58.82352941,,,,,,,,,,,0.803,1,,,,,,,,,,,,,,,,,,,,,,,,0.1375,-0.17125,0,0,0,,,,,,,FINGER,C,m,m,./images/FINGER.png,,,,,,,,,,,,,,,,,,,,,m,1,0.803,,,,,,,,0,85,85,3,1
,,,,,,,,,,,,,,,,,613c381cde82d55e452d621a,30,2022-02-12_16h48.23.776,lexical_decision_task_DD,2021.2.3,MacIntel,58.82352941,,,,,,,,,,,0.685,1,,,,,,,,,,,,,,,,,,,,,,,,0.1375,-0.17125,0,0,0,,,,,,,HEATER,LB,z,m,./images/HEATERLB.png,,,,,,,,,,,,,,,,,,,,,z,1,0.685,,,,,,,,0,86,86,140,1
,,,,,,,,,,,,,,,,,613c381cde82d55e452d621a,30,2022-02-12_16h48.23.776,lexical_decision_task_DD,2021.2.3,MacIntel,58.82352941,,,,,,,,,,,0.693,1,,,,,,,,,,,,,,,,,,,,,,,,0.1375,-0.17125,0,0,0,,,,,,,CARPET,LB,m,m,./images/CARPETLB.png,,,,,,,,,,,,,,,,,,,,,m,1,0.693,,,,,,,,0,87,87,53,1
,,,,,,,,,,,,,,,,,613c381cde82d55e452d621a,30,2022-02-12_16h48.23.776,lexical_decision_task_DD,2021.2.3,MacIntel,58.82352941,,,,,,,,,,,0.888,0,,,,,,,,,,,,,,,,,,,,,,,,0.1375,-0.17125,0,0,0,,,,,,,FOLDER,C,m,m,./images/FOLDER.png,,,,,,,,,,,,,,,,,,,,,z,0,0.888,,,,,,,,0,88,88,42,1
,,,,,,,,,,,,,,,,,613c381cde82d55e452d621a,30,2022-02-12_16h48.23.776,lexical_decision_task_DD,2021.2.3,MacIntel,58.82352941,,,,,,,,,,,0.596,1,,,,,,,,,,,,,,,,,,,,,,,,0.1375,-0.17125,0,0,0,,,,,,,STREAM,LB,z,m,./images/STREAMLB.png,,,,,,,,,,,,,,,,,,,,,z,1,0.596,,,,,,,,0,89,89,125,1
,,,,,,,,,,,,,,,,,613c381cde82d55e452d621a,30,2022-02-12_16h48.23.776,lexical_decision_task_DD,2021.2.3,MacIntel,58.82352941,,,,,,,,,,,1.091,1,,,,,,,,,,,,,,,,,,,,,,,,0.1375,-0.17125,0,0,0,,,,,,,MUFFIN,HB,m,m,./images/MUFFINHB.png,,,,,,,,,,,,,,,,,,,,,m,1,1.091,,,,,,,,0,90,90,55,1
,,,,,,,,,,,,,,,,,613c381cde82d55e452d621a,30,2022-02-12_16h48.23.776,lexical_decision_task_DD,2021.2.3,MacIntel,58.82352941,,,,,,,,,,,0.657,1,,,,,,,,,,,,,,,,,,,,,,,,0.1375,-0.17125,0,0,0,,,,,,,PEARL,HB,m,m,./images/PEARLHB.png,,,,,,,,,,,,,,,,,,,,,m,1,0.657,,,,,,,,0,91,91,46,1
,,,,,,,,,,,,,,,,,613c381cde82d55e452d621a,30,2022-02-12_16h48.23.776,lexical_decision_task_DD,2021.2.3,MacIntel,58.82352941,,,,,,,,,,,0.853,1,,,,,,,,,,,,,,,,,,,,,,,,0.1375,-0.17125,0,0,0,,,,,,,WRIST,HB,m,m,./images/WRISTHB.png,,,,,,,,,,,,,,,,,,,,,m,1,0.853,,,,,,,,0,92,92,25,1
,,,,,,,,,,,,,,,,,613c381cde82d55e452d621a,30,2022-02-12_16h48.23.776,lexical_decision_task_DD,2021.2.3,MacIntel,58.82352941,,,,,,,,,,,0.81,1,,,,,,,,,,,,,,,,,,,,,,,,0.1375,-0.17125,0,0,0,,,,,,,BRIDE,HB,z,m,./images/BRIDEHB.png,,,,,,,,,,,,,,,,,,,,,z,1,0.81,,,,,,,,0,93,93,148,1
,,,,,,,,,,,,,,,,,613c381cde82d55e452d621a,30,2022-02-12_16h48.23.776,lexical_decision_task_DD,2021.2.3,MacIntel,58.82352941,,,,,,,,,,,0.838,0,,,,,,,,,,,,,,,,,,,,,,,,0.1375,-0.17125,0,0,0,,,,,,,MIRROR,C,m,m,./images/MIRROR.png,,,,,,,,,,,,,,,,,,,,,z,0,0.838,,,,,,,,0,94,94,63,1
,,,,,,,,,,,,,,,,,613c381cde82d55e452d621a,30,2022-02-12_16h48.23.776,lexical_decision_task_DD,2021.2.3,MacIntel,58.82352941,,,,,,,,,,,0.953,1,,,,,,,,,,,,,,,,,,,,,,,,0.1375,-0.17125,0,0,0,,,,,,,PILOT,LB,z,m,./images/PILOTLB.png,,,,,,,,,,,,,,,,,,,,,z,1,0.953,,,,,,,,0,95,95,134,1
,,,,,,,,,,,,,,,,,613c381cde82d55e452d621a,30,2022-02-12_16h48.23.776,lexical_decision_task_DD,2021.2.3,MacIntel,58.82352941,,,,,,,,,,,0.813,1,,,,,,,,,,,,,,,,,,,,,,,,0.1375,-0.17125,0,0,0,,,,,,,BELLY,HB,m,m,./images/BELLYHB.png,,,,,,,,,,,,,,,,,,,,,m,1,0.813,,,,,,,,0,96,96,10,1
,,,,,,,,,,,,,,,,,613c381cde82d55e452d621a,30,2022-02-12_16h48.23.776,lexical_decision_task_DD,2021.2.3,MacIntel,58.82352941,,,,,,,,,,,0.675,1,,,,,,,,,,,,,,,,,,,,,,,,0.1375,-0.17125,0,0,0,,,,,,,DRILL,C,z,m,./images/DRILL.png,,,,,,,,,,,,,,,,,,,,,z,1,0.675,,,,,,,,0,97,97,165,1
,,,,,,,,,,,,,,,,,613c381cde82d55e452d621a,30,2022-02-12_16h48.23.776,lexical_decision_task_DD,2021.2.3,MacIntel,58.82352941,,,,,,,,,,,0.912,0,,,,,,,,,,,,,,,,,,,,,,,,0.1375,-0.17125,0,0,0,,,,,,,MELON,HB,m,m,./images/MELONHB.png,,,,,,,,,,,,,,,,,,,,,z,0,0.912,,,,,,,,0,98,98,22,1
,,,,,,,,,,,,,,,,,613c381cde82d55e452d621a,30,2022-02-12_16h48.23.776,lexical_decision_task_DD,2021.2.3,MacIntel,58.82352941,,,,,,,,,,,0.675,1,,,,,,,,,,,,,,,,,,,,,,,,0.1375,-0.17125,0,0,0,,,,,,,MAGGOT,C,m,m,./images/MAGGOT.png,,,,,,,,,,,,,,,,,,,,,m,1,0.675,,,,,,,,0,99,99,33,1
,,,,,,,,,,,,,,,,,613c381cde82d55e452d621a,30,2022-02-12_16h48.23.776,lexical_decision_task_DD,2021.2.3,MacIntel,58.82352941,,,,,,,,,,,0.731,0,,,,,,,,,,,,,,,,,,,,,,,,0.1375,-0.17125,0,0,0,,,,,,,LADDER,LB,m,m,./images/LADDERLB.png,,,,,,,,,,,,,,,,,,,,,z,0,0.731,,,,,,,,0,100,100,38,1
,,,,,,,,,,,,,,,,,613c381cde82d55e452d621a,30,2022-02-12_16h48.23.776,lexical_decision_task_DD,2021.2.3,MacIntel,58.82352941,,,,,,,,,,,1.072,1,,,,,,,,,,,,,,,,,,,,,,,,0.1375,-0.17125,0,0,0,,,,,,,COLLAR,C,z,m,./images/COLLAR.png,,,,,,,,,,,,,,,,,,,,,z,1,1.072,,,,,,,,0,101,101,99,1
,,,,,,,,,,,,,,,,,613c381cde82d55e452d621a,30,2022-02-12_16h48.23.776,lexical_decision_task_DD,2021.2.3,MacIntel,58.82352941,,,,,,,,,,,1.101,0,,,,,,,,,,,,,,,,,,,,,,,,0.1375,-0.17125,0,0,0,,,,,,,BUTTER,C,z,m,./images/BUTTER.png,,,,,,,,,,,,,,,,,,,,,m,0,1.101,,,,,,,,0,102,102,111,1
,,,,,,,,,,,,,,,,,613c381cde82d55e452d621a,30,2022-02-12_16h48.23.776,lexical_decision_task_DD,2021.2.3,MacIntel,58.82352941,,,,,,,,,,,0.607,1,,,,,,,,,,,,,,,,,,,,,,,,0.1375,-0.17125,0,0,0,,,,,,,POKER,HB,z,m,./images/POKERHB.png,,,,,,,,,,,,,,,,,,,,,z,1,0.607,,,,,,,,0,103,103,151,1
,,,,,,,,,,,,,,,,,613c381cde82d55e452d621a,30,2022-02-12_16h48.23.776,lexical_decision_task_DD,2021.2.3,MacIntel,58.82352941,,,,,,,,,,,0.641,1,,,,,,,,,,,,,,,,,,,,,,,,0.1375,-0.17125,0,0,0,,,,,,,CLOTH,LB,z,m,./images/CLOTHLB.png,,,,,,,,,,,,,,,,,,,,,z,1,0.641,,,,,,,,0,104,104,107,1
,,,,,,,,,,,,,,,,,613c381cde82d55e452d621a,30,2022-02-12_16h48.23.776,lexical_decision_task_DD,2021.2.3,MacIntel,58.82352941,,,,,,,,,,,0.579,0,,,,,,,,,,,,,,,,,,,,,,,,0.1375,-0.17125,0,0,0,,,,,,,CANYON,HB,m,m,./images/CANYONHB.png,,,,,,,,,,,,,,,,,,,,,z,0,0.579,,,,,,,,0,105,105,34,1
,,,,,,,,,,,,,,,,,613c381cde82d55e452d621a,30,2022-02-12_16h48.23.776,lexical_decision_task_DD,2021.2.3,MacIntel,58.82352941,,,,,,,,,,,0.704,0,,,,,,,,,,,,,,,,,,,,,,,,0.1375,-0.17125,0,0,0,,,,,,,PICKLE,LB,m,m,./images/PICKLELB.png,,,,,,,,,,,,,,,,,,,,,z,0,0.704,,,,,,,,0,106,106,14,1
,,,,,,,,,,,,,,,,,613c381cde82d55e452d621a,30,2022-02-12_16h48.23.776,lexical_decision_task_DD,2021.2.3,MacIntel,58.82352941,,,,,,,,,,,0.68,1,,,,,,,,,,,,,,,,,,,,,,,,0.1375,-0.17125,0,0,0,,,,,,,WEASEL,LB,m,m,./images/WEASELLB.png,,,,,,,,,,,,,,,,,,,,,m,1,0.68,,,,,,,,0,107,107,80,1
,,,,,,,,,,,,,,,,,613c381cde82d55e452d621a,30,2022-02-12_16h48.23.776,lexical_decision_task_DD,2021.2.3,MacIntel,58.82352941,,,,,,,,,,,0.813,1,,,,,,,,,,,,,,,,,,,,,,,,0.1375,-0.17125,0,0,0,,,,,,,SLOPE,C,z,m,./images/SLOPE.png,,,,,,,,,,,,,,,,,,,,,z,1,0.813,,,,,,,,0,108,108,114,1
,,,,,,,,,,,,,,,,,613c381cde82d55e452d621a,30,2022-02-12_16h48.23.776,lexical_decision_task_DD,2021.2.3,MacIntel,58.82352941,,,,,,,,,,,1.019,1,,,,,,,,,,,,,,,,,,,,,,,,0.1375,-0.17125,0,0,0,,,,,,,NOOSE,C,m,m,./images/NOOSE.png,,,,,,,,,,,,,,,,,,,,,m,1,1.019,,,,,,,,0,109,109,72,1
,,,,,,,,,,,,,,,,,613c381cde82d55e452d621a,30,2022-02-12_16h48.23.776,lexical_decision_task_DD,2021.2.3,MacIntel,58.82352941,,,,,,,,,,,1.426,1,,,,,,,,,,,,,,,,,,,,,,,,0.1375,-0.17125,0,0,0,,,,,,,CHAIN,C,z,m,./images/CHAIN.png,,,,,,,,,,,,,,,,,,,,,z,1,1.426,,,,,,,,0,110,110,126,1
,,,,,,,,,,,,,,,,,613c381cde82d55e452d621a,30,2022-02-12_16h48.23.776,lexical_decision_task_DD,2021.2.3,MacIntel,58.82352941,,,,,,,,,,,0.678,1,,,,,,,,,,,,,,,,,,,,,,,,0.1375,-0.17125,0,0,0,,,,,,,STATUE,C,z,m,./images/STATUE.png,,,,,,,,,,,,,,,,,,,,,z,1,0.678,,,,,,,,0,111,111,150,1
,,,,,,,,,,,,,,,,,613c381cde82d55e452d621a,30,2022-02-12_16h48.23.776,lexical_decision_task_DD,2021.2.3,MacIntel,58.82352941,,,,,,,,,,,0.755,1,,,,,,,,,,,,,,,,,,,,,,,,0.1375,-0.17125,0,0,0,,,,,,,DANCER,C,z,m,./images/DANCER.png,,,,,,,,,,,,,,,,,,,,,z,1,0.755,,,,,,,,0,112,112,105,1
,,,,,,,,,,,,,,,,,613c381cde82d55e452d621a,30,2022-02-12_16h48.23.776,lexical_decision_task_DD,2021.2.3,MacIntel,58.82352941,,,,,,,,,,,0.848,1,,,,,,,,,,,,,,,,,,,,,,,,0.1375,-0.17125,0,0,0,,,,,,,SHIELD,C,z,m,./images/SHIELD.png,,,,,,,,,,,,,,,,,,,,,z,1,0.848,,,,,,,,0,113,113,132,1
,,,,,,,,,,,,,,,,,613c381cde82d55e452d621a,30,2022-02-12_16h48.23.776,lexical_decision_task_DD,2021.2.3,MacIntel,58.82352941,,,,,,,,,,,0.763,1,,,,,,,,,,,,,,,,,,,,,,,,0.1375,-0.17125,0,0,0,,,,,,,PLANK,HB,m,m,./images/PLANKHB.png,,,,,,,,,,,,,,,,,,,,,m,1,0.763,,,,,,,,0,114,114,1,1
,,,,,,,,,,,,,,,,,613c381cde82d55e452d621a,30,2022-02-12_16h48.23.776,lexical_decision_task_DD,2021.2.3,MacIntel,58.82352941,,,,,,,,,,,0.872,0,,,,,,,,,,,,,,,,,,,,,,,,0.1375,-0.17125,0,0,0,,,,,,,COUCH,LB,m,m,./images/COUCHLB.png,,,,,,,,,,,,,,,,,,,,,z,0,0.872,,,,,,,,0,115,115,77,1
,,,,,,,,,,,,,,,,,613c381cde82d55e452d621a,30,2022-02-12_16h48.23.776,lexical_decision_task_DD,2021.2.3,MacIntel,58.82352941,,,,,,,,,,,0.911,0,,,,,,,,,,,,,,,,,,,,,,,,0.1375,-0.17125,0,0,0,,,,,,,PEACH,LB,m,m,./images/PEACHLB.png,,,,,,,,,,,,,,,,,,,,,z,0,0.911,,,,,,,,0,116,116,35,1
,,,,,,,,,,,,,,,,,613c381cde82d55e452d621a,30,2022-02-12_16h48.23.776,lexical_decision_task_DD,2021.2.3,MacIntel,58.82352941,,,,,,,,,,,0.657,0,,,,,,,,,,,,,,,,,,,,,,,,0.1375,-0.17125,0,0,0,,,,,,,TULIP,LB,m,m,./images/TULIPLB.png,,,,,,,,,,,,,,,,,,,,,z,0,0.657,,,,,,,,0,117,117,8,1
,,,,,,,,,,,,,,,,,613c381cde82d55e452d621a,30,2022-02-12_16h48.23.776,lexical_decision_task_DD,2021.2.3,MacIntel,58.82352941,,,,,,,,,,,0.841,1,,,,,,,,,,,,,,,,,,,,,,,,0.1375,-0.17125,0,0,0,,,,,,,SNAKE,HB,z,m,./images/SNAKEHB.png,,,,,,,,,,,,,,,,,,,,,z,1,0.841,,,,,,,,0,118,118,124,1
,,,,,,,,,,,,,,,,,613c381cde82d55e452d621a,30,2022-02-12_16h48.23.776,lexical_decision_task_DD,2021.2.3,MacIntel,58.82352941,,,,,,,,,,,0.677,1,,,,,,,,,,,,,,,,,,,,,,,,0.1375,-0.17125,0,0,0,,,,,,,DONKEY,HB,z,m,./images/DONKEYHB.png,,,,,,,,,,,,,,,,,,,,,z,1,0.677,,,,,,,,0,119,119,103,1
,,,,,,,,,,,,,,,,,613c381cde82d55e452d621a,30,2022-02-12_16h48.23.776,lexical_decision_task_DD,2021.2.3,MacIntel,58.82352941,,,,,,,,,,,1.157,0,,,,,,,,,,,,,,,,,,,,,,,,0.1375,-0.17125,0,0,0,,,,,,,BERRY,LB,m,m,./images/BERRYLB.png,,,,,,,,,,,,,,,,,,,,,z,0,1.157,,,,,,,,0,120,120,47,1
,,,,,,,,,,,,,,,,,613c381cde82d55e452d621a,30,2022-02-12_16h48.23.776,lexical_decision_task_DD,2021.2.3,MacIntel,58.82352941,,,,,,,,,,,1.366,1,,,,,,,,,,,,,,,,,,,,,,,,0.1375,-0.17125,0,0,0,,,,,,,DESERT,HB,z,m,./images/DESERTHB.png,,,,,,,,,,,,,,,,,,,,,z,1,1.366,,,,,,,,0,121,121,136,1
,,,,,,,,,,,,,,,,,613c381cde82d55e452d621a,30,2022-02-12_16h48.23.776,lexical_decision_task_DD,2021.2.3,MacIntel,58.82352941,,,,,,,,,,,1.355,1,,,,,,,,,,,,,,,,,,,,,,,,0.1375,-0.17125,0,0,0,,,,,,,MALLET,LB,m,m,./images/MALLETLB.png,,,,,,,,,,,,,,,,,,,,,m,1,1.355,,,,,,,,0,122,122,50,1
,,,,,,,,,,,,,,,,,613c381cde82d55e452d621a,30,2022-02-12_16h48.23.776,lexical_decision_task_DD,2021.2.3,MacIntel,58.82352941,,,,,,,,,,,0.825,1,,,,,,,,,,,,,,,,,,,,,,,,0.1375,-0.17125,0,0,0,,,,,,,SMOKER,LB,m,m,./images/SMOKERLB.png,,,,,,,,,,,,,,,,,,,,,m,1,0.825,,,,,,,,0,123,123,26,1
,,,,,,,,,,,,,,,,,613c381cde82d55e452d621a,30,2022-02-12_16h48.23.776,lexical_decision_task_DD,2021.2.3,MacIntel,58.82352941,,,,,,,,,,,1.418,1,,,,,,,,,,,,,,,,,,,,,,,,0.1375,-0.17125,0,0,0,,,,,,,KITTEN,C,m,m,./images/KITTEN.png,,,,,,,,,,,,,,,,,,,,,m,1,1.418,,,,,,,,0,124,124,45,1
,,,,,,,,,,,,,,,,,613c381cde82d55e452d621a,30,2022-02-12_16h48.23.776,lexical_decision_task_DD,2021.2.3,MacIntel,58.82352941,,,,,,,,,,,0.676,1,,,,,,,,,,,,,,,,,,,,,,,,0.1375,-0.17125,0,0,0,space,,,,,,MAMMAL,LB,z,m,./images/MAMMALLB.png,1.065,,,,,,,,,,,,,,,,,,,,z,1,0.676,,,,,,,,0,125,125,146,1
,,,,,,,,,,,,,,,,,613c381cde82d55e452d621a,30,2022-02-12_16h48.23.776,lexical_decision_task_DD,2021.2.3,MacIntel,58.82352941,,,,,,,,,,,0.699,1,,,,,,,,,,,,,,,,,,,,,,,,0.1375,-0.17125,0,0,0,,,,,,,TOMATO,C,m,m,./images/TOMATO.png,,,,,,,,,,,,,,,,,,,,,m,1,0.699,,,,,,,,0,126,126,0,1
,,,,,,,,,,,,,,,,,613c381cde82d55e452d621a,30,2022-02-12_16h48.23.776,lexical_decision_task_DD,2021.2.3,MacIntel,58.82352941,,,,,,,,,,,0.738,1,,,,,,,,,,,,,,,,,,,,,,,,0.1375,-0.17125,0,0,0,,,,,,,TOWEL,HB,z,m,./images/TOWELHB.png,,,,,,,,,,,,,,,,,,,,,z,1,0.738,,,,,,,,0,127,127,85,1
,,,,,,,,,,,,,,,,,613c381cde82d55e452d621a,30,2022-02-12_16h48.23.776,lexical_decision_task_DD,2021.2.3,MacIntel,58.82352941,,,,,,,,,,,0.804,1,,,,,,,,,,,,,,,,,,,,,,,,0.1375,-0.17125,0,0,0,,,,,,,THROAT,C,m,m,./images/THROAT.png,,,,,,,,,,,,,,,,,,,,,m,1,0.804,,,,,,,,0,128,128,36,1
,,,,,,,,,,,,,,,,,613c381cde82d55e452d621a,30,2022-02-12_16h48.23.776,lexical_decision_task_DD,2021.2.3,MacIntel,58.82352941,,,,,,,,,,,1.465,1,,,,,,,,,,,,,,,,,,,,,,,,0.1375,-0.17125,0,0,0,,,,,,,PENCE,HB,m,m,./images/PENCEHB.png,,,,,,,,,,,,,,,,,,,,,m,1,1.465,,,,,,,,0,129,129,16,1
,,,,,,,,,,,,,,,,,613c381cde82d55e452d621a,30,2022-02-12_16h48.23.776,lexical_decision_task_DD,2021.2.3,MacIntel,58.82352941,,,,,,,,,,,2.401,1,,,,,,,,,,,,,,,,,,,,,,,,0.1375,-0.17125,0,0,0,,,,,,,ALLEY,HB,z,m,./images/ALLEYHB.png,,,,,,,,,,,,,,,,,,,,,z,1,2.401,,,,,,,,0,130,130,139,1
,,,,,,,,,,,,,,,,,613c381cde82d55e452d621a,30,2022-02-12_16h48.23.776,lexical_decision_task_DD,2021.2.3,MacIntel,58.82352941,,,,,,,,,,,0.862,0,,,,,,,,,,,,,,,,,,,,,,,,0.1375,-0.17125,0,0,0,,,,,,,BARREL,LB,m,m,./images/BARRELLB.png,,,,,,,,,,,,,,,,,,,,,z,0,0.862,,,,,,,,0,131,131,32,1
,,,,,,,,,,,,,,,,,613c381cde82d55e452d621a,30,2022-02-12_16h48.23.776,lexical_decision_task_DD,2021.2.3,MacIntel,58.82352941,,,,,,,,,,,0.68,0,,,,,,,,,,,,,,,,,,,,,,,,0.1375,-0.17125,0,0,0,,,,,,,CANDLE,HB,m,m,./images/CANDLEHB.png,,,,,,,,,,,,,,,,,,,,,z,0,0.68,,,,,,,,0,132,132,61,1
,,,,,,,,,,,,,,,,,613c381cde82d55e452d621a,30,2022-02-12_16h48.23.776,lexical_decision_task_DD,2021.2.3,MacIntel,58.82352941,,,,,,,,,,,0.953,1,,,,,,,,,,,,,,,,,,,,,,,,0.1375,-0.17125,0,0,0,,,,,,,FARMER,LB,m,m,./images/FARMERLB.png,,,,,,,,,,,,,,,,,,,,,m,1,0.953,,,,,,,,0,133,133,65,1
,,,,,,,,,,,,,,,,,613c381cde82d55e452d621a,30,2022-02-12_16h48.23.776,lexical_decision_task_DD,2021.2.3,MacIntel,58.82352941,,,,,,,,,,,0.79,0,,,,,,,,,,,,,,,,,,,,,,,,0.1375,-0.17125,0,0,0,,,,,,,LIZARD,LB,m,m,./images/LIZARDLB.png,,,,,,,,,,,,,,,,,,,,,z,0,0.79,,,,,,,,0,134,134,44,1
,,,,,,,,,,,,,,,,,613c381cde82d55e452d621a,30,2022-02-12_16h48.23.776,lexical_decision_task_DD,2021.2.3,MacIntel,58.82352941,,,,,,,,,,,0.855,0,,,,,,,,,,,,,,,,,,,,,,,,0.1375,-0.17125,0,0,0,,,,,,,WHEEL,LB,z,m,./images/WHEELLB.png,,,,,,,,,,,,,,,,,,,,,m,0,0.855,,,,,,,,0,135,135,161,1
,,,,,,,,,,,,,,,,,613c381cde82d55e452d621a,30,2022-02-12_16h48.23.776,lexical_decision_task_DD,2021.2.3,MacIntel,58.82352941,,,,,,,,,,,0.675,1,,,,,,,,,,,,,,,,,,,,,,,,0.1375,-0.17125,0,0,0,,,,,,,CLIFF,LB,z,m,./images/CLIFFLB.png,,,,,,,,,,,,,,,,,,,,,z,1,0.675,,,,,,,,0,136,136,92,1
,,,,,,,,,,,,,,,,,613c381cde82d55e452d621a,30,2022-02-12_16h48.23.776,lexical_decision_task_DD,2021.2.3,MacIntel,58.82352941,,,,,,,,,,,0.764,1,,,,,,,,,,,,,,,,,,,,,,,,0.1375,-0.17125,0,0,0,,,,,,,GRAIN,C,m,m,./images/GRAIN.png,,,,,,,,,,,,,,,,,,,,,m,1,0.764,,,,,,,,0,137,137,75,1
,,,,,,,,,,,,,,,,,613c381cde82d55e452d621a,30,2022-02-12_16h48.23.776,lexical_decision_task_DD,2021.2.3,MacIntel,58.82352941,,,,,,,,,,,1.713,1,,,,,,,,,,,,,,,,,,,,,,,,0.1375,-0.17125,0,0,0,,,,,,,POODLE,C,m,m,./images/POODLE.png,,,,,,,,,,,,,,,,,,,,,m,1,1.713,,,,,,,,0,138,138,81,1
,,,,,,,,,,,,,,,,,613c381cde82d55e452d621a,30,2022-02-12_16h48.23.776,lexical_decision_task_DD,2021.2.3,MacIntel,58.82352941,,,,,,,,,,,1.158,0,,,,,,,,,,,,,,,,,,,,,,,,0.1375,-0.17125,0,0,0,,,,,,,TORCH,LB,m,m,./images/TORCHLB.png,,,,,,,,,,,,,,,,,,,,,z,0,1.158,,,,,,,,0,139,139,68,1
,,,,,,,,,,,,,,,,,613c381cde82d55e452d621a,30,2022-02-12_16h48.23.776,lexical_decision_task_DD,2021.2.3,MacIntel,58.82352941,,,,,,,,,,,0.912,0,,,,,,,,,,,,,,,,,,,,,,,,0.1375,-0.17125,0,0,0,,,,,,,ONION,C,m,m,./images/ONION.png,,,,,,,,,,,,,,,,,,,,,z,0,0.912,,,,,,,,0,140,140,51,1
,,,,,,,,,,,,,,,,,613c381cde82d55e452d621a,30,2022-02-12_16h48.23.776,lexical_decision_task_DD,2021.2.3,MacIntel,58.82352941,,,,,,,,,,,0.68,1,,,,,,,,,,,,,,,,,,,,,,,,0.1375,-0.17125,0,0,0,,,,,,,BONNET,LB,m,m,./images/BONNETLB.png,,,,,,,,,,,,,,,,,,,,,m,1,0.68,,,,,,,,0,141,141,11,1
,,,,,,,,,,,,,,,,,613c381cde82d55e452d621a,30,2022-02-12_16h48.23.776,lexical_decision_task_DD,2021.2.3,MacIntel,58.82352941,,,,,,,,,,,1.363,1,,,,,,,,,,,,,,,,,,,,,,,,0.1375,-0.17125,0,0,0,,,,,,,CANOE,HB,z,m,./images/CANOEHB.png,,,,,,,,,,,,,,,,,,,,,z,1,1.363,,,,,,,,0,142,142,142,1
