key_resp.keys,instr_done_touch.x,instr_done_touch.y,instr_done_touch.leftButton,instr_done_touch.midButton,instr_done_touch.rightButton,instr_done_touch.clicked_name,instruction_pages.thisRepN,instruction_pages.thisTrialN,instruction_pages.thisN,instruction_pages.thisIndex,instruction_pages.ran,pageN,phase,instruct_text,has_image,instruct_image,participant,age,date,expName,psychopyVersion,OS,frameRate,response.keys,response.corr,touch_resp.x,touch_resp.y,touch_resp.leftButton,touch_resp.midButton,touch_resp.rightButton,touch_resp.time,touch_resp.clicked_name,rt,corr,practrials.thisRepN,practrials.thisTrialN,practrials.thisN,practrials.thisIndex,practrials.ran,TrialID,Target,corrAns,end_of_practice_trials_pages.thisRepN,end_of_practice_trials_pages.thisTrialN,end_of_practice_trials_pages.thisN,end_of_practice_trials_pages.thisIndex,end_of_practice_trials_pages.ran,key_resp_2.keys,key_resp_2.corr,targ_click.x,targ_click.y,targ_click.leftButton,targ_click.midButton,targ_click.rightButton,targ_click.time,targ_click.clicked_name,break_done_touch.x,break_done_touch.y,break_done_touch.leftButton,break_done_touch.midButton,break_done_touch.rightButton,break_done_keyboard.keys,maintrials.thisRepN,maintrials.thisTrialN,maintrials.thisN,maintrials.thisIndex,maintrials.ran,string,blur,study,lex,stim_path,break_done_touch.clicked_name,mouse_2.x,mouse_2.y,mouse_2.leftButton,mouse_2.midButton,mouse_2.rightButton,mouse_2.clicked_name,slider.response,slider.rt,trials.thisRepN,trials.thisTrialN,trials.thisN,trials.thisIndex,trials.ran,test_instructions.thisRepN,test_instructions.thisTrialN,test_instructions.thisN,test_instructions.thisIndex,test_instructions.ran,key_resp_3.keys,key_resp_3.corr,test_click.x,test_click.y,test_click.leftButton,test_click.midButton,test_click.rightButton,test_click.time,test_click.clicked_name,test_phase.thisRepN,test_phase.thisTrialN,test_phase.thisN,test_phase.thisIndex,test_phase.ran
,0.013580247,-0.403703704,1,0,0,instr_done_button,0,0,0,0,1,1,instructions,"INSTRUCTIONS
At the start of each trial, look at the plus sign  (+) in the center of the screen.  This tells you that a trial is about to begin and where to look. Second, the plus sign will disappear and a string of letters will appear. Your task is to determine if the string of letters is a word or not. If the item is a word press the M key (on keyboard)  or touch the word button (phone/tablet).  If the item is not a word,  press the  Z key (on keyboard)  or touch the nonword button (on phone/tablet). 
Press the space bar or touch  continue.",0,,61494b2ba9fdd44794e4c5d3,61,2022-02-12_16h55.36.583,lexical_decision_task_DD_L5,2021.2.3,MacIntel,58.82352941,,,,,,,,,,,,,,,,,,,,,,,,,,,,,,,,,,,,,,,,,,,,,,,,,,,,,,,,,,,,,,,,,,,,,,,,,,,,,,,,,,
,0.013580247,-0.381481481,1,0,0,instr_done_button,0,1,1,1,1,2,instructions,"If your device has a keyboard, press the 'Z' key for nonwords and the 'M' key for words.





Press the space bar or touch the button below to continue.",0,keyboard-example.gif,61494b2ba9fdd44794e4c5d3,61,2022-02-12_16h55.36.583,lexical_decision_task_DD_L5,2021.2.3,MacIntel,58.82352941,,,,,,,,,,,,,,,,,,,,,,,,,,,,,,,,,,,,,,,,,,,,,,,,,,,,,,,,,,,,,,,,,,,,,,,,,,,,,,,,,,
,0.00617284,-0.396296296,1,0,0,instr_done_button,0,2,2,2,1,3,instructions,"If you are using a touchscreen only device, use the buttons on the screen. Do not use the mouse.





Press the space bar or touch the button below to continue.",0,touchscreen-example.gif,61494b2ba9fdd44794e4c5d3,61,2022-02-12_16h55.36.583,lexical_decision_task_DD_L5,2021.2.3,MacIntel,58.82352941,,,,,,,,,,,,,,,,,,,,,,,,,,,,,,,,,,,,,,,,,,,,,,,,,,,,,,,,,,,,,,,,,,,,,,,,,,,,,,,,,,
,-0.016049383,-0.395061728,1,0,0,instr_done_button,0,3,3,3,1,4,instructions,"It is very important that you respond as quickly and accurately as possible, as each letter string will only be on the screen for two seconds. If you do not respond within this time, the message 'Too slow!' will be displayed and the experiment will progress to the next letter string. The first 20 trials will be practice trials and you will receive feedback on your answers. 

Press the space bar or touch the button below to start the practice trials.",0,,61494b2ba9fdd44794e4c5d3,61,2022-02-12_16h55.36.583,lexical_decision_task_DD_L5,2021.2.3,MacIntel,58.82352941,,,,,,,,,,,,,,,,,,,,,,,,,,,,,,,,,,,,,,,,,,,,,,,,,,,,,,,,,,,,,,,,,,,,,,,,,,,,,,,,,,
,,,,,,,,,,,,,,,,,61494b2ba9fdd44794e4c5d3,61,2022-02-12_16h55.36.583,lexical_decision_task_DD_L5,2021.2.3,MacIntel,58.82352941,,0,-0.392592593,-0.324691358,1,0,0,2.492,button_left,2.492,1,0,0,0,8,1,1001,ASLERT,z,,,,,,,,,,,,,,,,,,,,,,,,,,,,,,,,,,,,,,,,,,,,,,,,,,,,,,,,,,,,,,,
,,,,,,,,,,,,,,,,,61494b2ba9fdd44794e4c5d3,61,2022-02-12_16h55.36.583,lexical_decision_task_DD_L5,2021.2.3,MacIntel,58.82352941,,0,0.409876543,-0.285185185,1,0,0,1.386,button_right,1.386,1,0,1,1,5,1,1001,OBTAIN,m,,,,,,,,,,,,,,,,,,,,,,,,,,,,,,,,,,,,,,,,,,,,,,,,,,,,,,,,,,,,,,,
,,,,,,,,,,,,,,,,,61494b2ba9fdd44794e4c5d3,61,2022-02-12_16h55.36.583,lexical_decision_task_DD_L5,2021.2.3,MacIntel,58.82352941,,0,-0.382716049,-0.288888889,1,0,0,0.872,button_left,0.872,1,0,2,2,12,1,1001,SPRINY,z,,,,,,,,,,,,,,,,,,,,,,,,,,,,,,,,,,,,,,,,,,,,,,,,,,,,,,,,,,,,,,,
,,,,,,,,,,,,,,,,,61494b2ba9fdd44794e4c5d3,61,2022-02-12_16h55.36.583,lexical_decision_task_DD_L5,2021.2.3,MacIntel,58.82352941,,0,0.403703704,-0.281481481,1,0,0,0.741,button_right,0.741,1,0,3,3,4,1,1001,SQUEAK,m,,,,,,,,,,,,,,,,,,,,,,,,,,,,,,,,,,,,,,,,,,,,,,,,,,,,,,,,,,,,,,,
,,,,,,,,,,,,,,,,,61494b2ba9fdd44794e4c5d3,61,2022-02-12_16h55.36.583,lexical_decision_task_DD_L5,2021.2.3,MacIntel,58.82352941,,0,0.403703704,-0.277777778,1,0,0,0.974,button_right,0.974,1,0,4,4,3,1,1001,MATRIX,m,,,,,,,,,,,,,,,,,,,,,,,,,,,,,,,,,,,,,,,,,,,,,,,,,,,,,,,,,,,,,,,
,,,,,,,,,,,,,,,,,61494b2ba9fdd44794e4c5d3,61,2022-02-12_16h55.36.583,lexical_decision_task_DD_L5,2021.2.3,MacIntel,58.82352941,,0,0.416049383,-0.27037037,1,0,0,0.772,button_right,0.772,1,0,5,5,1,1,1001,ADJUST,m,,,,,,,,,,,,,,,,,,,,,,,,,,,,,,,,,,,,,,,,,,,,,,,,,,,,,,,,,,,,,,,
,,,,,,,,,,,,,,,,,61494b2ba9fdd44794e4c5d3,61,2022-02-12_16h55.36.583,lexical_decision_task_DD_L5,2021.2.3,MacIntel,58.82352941,,0,-0.383950617,-0.291358025,1,0,0,1.274,button_left,1.274,1,0,6,6,10,1,1001,INLADE,z,,,,,,,,,,,,,,,,,,,,,,,,,,,,,,,,,,,,,,,,,,,,,,,,,,,,,,,,,,,,,,,
,,,,,,,,,,,,,,,,,61494b2ba9fdd44794e4c5d3,61,2022-02-12_16h55.36.583,lexical_decision_task_DD_L5,2021.2.3,MacIntel,58.82352941,,0,-0.401234568,-0.279012346,1,0,0,0.99,button_left,0.99,1,0,7,7,14,1,1001,THRALE,z,,,,,,,,,,,,,,,,,,,,,,,,,,,,,,,,,,,,,,,,,,,,,,,,,,,,,,,,,,,,,,,
,,,,,,,,,,,,,,,,,61494b2ba9fdd44794e4c5d3,61,2022-02-12_16h55.36.583,lexical_decision_task_DD_L5,2021.2.3,MacIntel,58.82352941,,0,-0.380246914,-0.292592593,1,0,0,0.777,button_left,0.777,1,0,8,8,11,1,1001,RASHET,z,,,,,,,,,,,,,,,,,,,,,,,,,,,,,,,,,,,,,,,,,,,,,,,,,,,,,,,,,,,,,,,
,,,,,,,,,,,,,,,,,61494b2ba9fdd44794e4c5d3,61,2022-02-12_16h55.36.583,lexical_decision_task_DD_L5,2021.2.3,MacIntel,58.82352941,,0,-0.380246914,-0.292592593,1,0,0,0.941,button_left,0.941,1,0,9,9,15,1,1001,WHAISE,z,,,,,,,,,,,,,,,,,,,,,,,,,,,,,,,,,,,,,,,,,,,,,,,,,,,,,,,,,,,,,,,
,,,,,,,,,,,,,,,,,61494b2ba9fdd44794e4c5d3,61,2022-02-12_16h55.36.583,lexical_decision_task_DD_L5,2021.2.3,MacIntel,58.82352941,,0,0.4,-0.266666667,1,0,0,0.883,button_right,0.883,1,0,10,10,0,1,1001,UTOPIA,m,,,,,,,,,,,,,,,,,,,,,,,,,,,,,,,,,,,,,,,,,,,,,,,,,,,,,,,,,,,,,,,
,,,,,,,,,,,,,,,,,61494b2ba9fdd44794e4c5d3,61,2022-02-12_16h55.36.583,lexical_decision_task_DD_L5,2021.2.3,MacIntel,58.82352941,,0,0.402469136,-0.264197531,1,0,0,0.906,button_right,0.906,1,0,11,11,6,1,1001,ZOMBIE,m,,,,,,,,,,,,,,,,,,,,,,,,,,,,,,,,,,,,,,,,,,,,,,,,,,,,,,,,,,,,,,,
,,,,,,,,,,,,,,,,,61494b2ba9fdd44794e4c5d3,61,2022-02-12_16h55.36.583,lexical_decision_task_DD_L5,2021.2.3,MacIntel,58.82352941,,0,0.414814815,-0.254320988,1,0,0,0.75,button_right,0.75,1,0,12,12,2,1,1001,ALMOND,m,,,,,,,,,,,,,,,,,,,,,,,,,,,,,,,,,,,,,,,,,,,,,,,,,,,,,,,,,,,,,,,
,,,,,,,,,,,,,,,,,61494b2ba9fdd44794e4c5d3,61,2022-02-12_16h55.36.583,lexical_decision_task_DD_L5,2021.2.3,MacIntel,58.82352941,,0,-0.366666667,-0.311111111,1,0,0,0.869,button_left,0.869,1,0,13,13,13,1,1001,ROUPET,z,,,,,,,,,,,,,,,,,,,,,,,,,,,,,,,,,,,,,,,,,,,,,,,,,,,,,,,,,,,,,,,
,,,,,,,,,,,,,,,,,61494b2ba9fdd44794e4c5d3,61,2022-02-12_16h55.36.583,lexical_decision_task_DD_L5,2021.2.3,MacIntel,58.82352941,,0,-0.371604938,-0.308641975,1,0,0,0.738,button_left,0.738,1,0,14,14,9,1,1001,FARINY,z,,,,,,,,,,,,,,,,,,,,,,,,,,,,,,,,,,,,,,,,,,,,,,,,,,,,,,,,,,,,,,,
,,,,,,,,,,,,,,,,,61494b2ba9fdd44794e4c5d3,61,2022-02-12_16h55.36.583,lexical_decision_task_DD_L5,2021.2.3,MacIntel,58.82352941,,0,0.407407407,-0.256790123,1,0,0,0.723,button_right,0.723,1,0,15,15,7,1,1001,VOLUME,m,,,,,,,,,,,,,,,,,,,,,,,,,,,,,,,,,,,,,,,,,,,,,,,,,,,,,,,,,,,,,,,
,-0.012345679,-0.379012346,1,0,0,instr_done_button,,,,,,1,end_of_practice,"You have completed the practice trials. During the experimental trials, you will not receive feedback. 
Before you begin, please ensure that you are in a comfortable and quiet location and will not be disturbed for about 15 minutes, as we cannot use your data if you do not complete all the trials. 
 When you are ready to start the experimental trials, please press space or touch the button below.",,,61494b2ba9fdd44794e4c5d3,61,2022-02-12_16h55.36.583,lexical_decision_task_DD_L5,2021.2.3,MacIntel,58.82352941,,,,,,,,,,,,,,,,,,,,0,0,0,0,1,,,,,,,,,,,,,,,,,,,,,,,,,,,,,,,,,,,,,,,,,,,,,,,,,,,,,,,,,,
,,,,,,,,,,,,,,,,,61494b2ba9fdd44794e4c5d3,61,2022-02-12_16h55.36.583,lexical_decision_task_DD_L5,2021.2.3,MacIntel,58.82352941,,,,,,,,,,1.765,1,,,,,,,,,,,,,,,0,0.392592593,-0.258024691,1,0,0,1.765,button_right_main,0.392592593,-0.258024691,1,0,0,,0,0,0,39,1,CANDY,HB,old,m,./images/CANDYHB.png,,,,,,,,,,,,,,,,,,,,,,,,,,,,,,,,,
,,,,,,,,,,,,,,,,,61494b2ba9fdd44794e4c5d3,61,2022-02-12_16h55.36.583,lexical_decision_task_DD_L5,2021.2.3,MacIntel,58.82352941,,,,,,,,,,0.856,1,,,,,,,,,,,,,,,0,-0.383950617,-0.286419753,1,0,0,0.856,button_left_main,-0.383950617,-0.286419753,1,0,0,,0,1,1,126,1,GUELS,C,old,z,./images/GUELS.png,,,,,,,,,,,,,,,,,,,,,,,,,,,,,,,,,
,,,,,,,,,,,,,,,,,61494b2ba9fdd44794e4c5d3,61,2022-02-12_16h55.36.583,lexical_decision_task_DD_L5,2021.2.3,MacIntel,58.82352941,,,,,,,,,,1.053,1,,,,,,,,,,,,,,,0,0.387654321,-0.283950617,1,0,0,1.053,button_right_main,0.387654321,-0.283950617,1,0,0,,0,2,2,69,1,ARROW,HB,old,m,./images/ARROWHB.png,,,,,,,,,,,,,,,,,,,,,,,,,,,,,,,,,
,,,,,,,,,,,,,,,,,61494b2ba9fdd44794e4c5d3,61,2022-02-12_16h55.36.583,lexical_decision_task_DD_L5,2021.2.3,MacIntel,58.82352941,,,,,,,,,,0.904,1,,,,,,,,,,,,,,,0,0.397530864,-0.27037037,1,0,0,0.904,button_right_main,0.397530864,-0.27037037,1,0,0,,0,3,3,74,1,JUMPER,C,old,m,./images/JUMPER.png,,,,,,,,,,,,,,,,,,,,,,,,,,,,,,,,,
,,,,,,,,,,,,,,,,,61494b2ba9fdd44794e4c5d3,61,2022-02-12_16h55.36.583,lexical_decision_task_DD_L5,2021.2.3,MacIntel,58.82352941,,,,,,,,,,1.441,1,,,,,,,,,,,,,,,0,-0.361728395,-0.303703704,1,0,0,1.441,button_left_main,-0.361728395,-0.303703704,1,0,0,,0,4,4,115,1,MAWNS,HB,old,z,./images/MAWNSHB.png,,,,,,,,,,,,,,,,,,,,,,,,,,,,,,,,,
,,,,,,,,,,,,,,,,,61494b2ba9fdd44794e4c5d3,61,2022-02-12_16h55.36.583,lexical_decision_task_DD_L5,2021.2.3,MacIntel,58.82352941,,,,,,,,,,0.839,1,,,,,,,,,,,,,,,0,-0.366666667,-0.298765432,1,0,0,0.839,button_left_main,-0.366666667,-0.298765432,1,0,0,,0,5,5,143,1,MONGS,LB,old,z,./images/MONGSLB.png,,,,,,,,,,,,,,,,,,,,,,,,,,,,,,,,,
,,,,,,,,,,,,,,,,,61494b2ba9fdd44794e4c5d3,61,2022-02-12_16h55.36.583,lexical_decision_task_DD_L5,2021.2.3,MacIntel,58.82352941,,,,,,,,,,0.74,1,,,,,,,,,,,,,,,0,0.39382716,-0.264197531,1,0,0,0.74,button_right_main,0.39382716,-0.264197531,1,0,0,,0,6,6,41,1,STREAM,C,old,m,./images/STREAM.png,,,,,,,,,,,,,,,,,,,,,,,,,,,,,,,,,
,,,,,,,,,,,,,,,,,61494b2ba9fdd44794e4c5d3,61,2022-02-12_16h55.36.583,lexical_decision_task_DD_L5,2021.2.3,MacIntel,58.82352941,,,,,,,,,,0.783,1,,,,,,,,,,,,,,,0,0.398765432,-0.272839506,1,0,0,0.783,button_right_main,0.398765432,-0.272839506,1,0,0,,0,7,7,55,1,ALLEY,LB,old,m,./images/ALLEYLB.png,,,,,,,,,,,,,,,,,,,,,,,,,,,,,,,,,
,,,,,,,,,,,,,,,,,61494b2ba9fdd44794e4c5d3,61,2022-02-12_16h55.36.583,lexical_decision_task_DD_L5,2021.2.3,MacIntel,58.82352941,,,,,,,,,,0.873,1,,,,,,,,,,,,,,,0,-0.387654321,-0.27654321,1,0,0,0.873,button_left_main,-0.387654321,-0.27654321,1,0,0,,0,8,8,92,1,PAIMS,LB,old,z,./images/PAIMSLB.png,,,,,,,,,,,,,,,,,,,,,,,,,,,,,,,,,
,,,,,,,,,,,,,,,,,61494b2ba9fdd44794e4c5d3,61,2022-02-12_16h55.36.583,lexical_decision_task_DD_L5,2021.2.3,MacIntel,58.82352941,,,,,,,,,,1.824,1,,,,,,,,,,,,,,,0,0.390123457,-0.285185185,1,0,0,1.824,button_right_main,0.390123457,-0.285185185,1,0,0,,0,9,9,15,1,COLLAR,HB,old,m,./images/COLLARHB.png,,,,,,,,,,,,,,,,,,,,,,,,,,,,,,,,,
,,,,,,,,,,,,,,,,,61494b2ba9fdd44794e4c5d3,61,2022-02-12_16h55.36.583,lexical_decision_task_DD_L5,2021.2.3,MacIntel,58.82352941,,,,,,,,,,0.79,1,,,,,,,,,,,,,,,0,-0.390123457,-0.279012346,1,0,0,0.79,button_left_main,-0.390123457,-0.279012346,1,0,0,,0,10,10,84,1,HAXES,C,old,z,./images/HAXES.png,,,,,,,,,,,,,,,,,,,,,,,,,,,,,,,,,
,,,,,,,,,,,,,,,,,61494b2ba9fdd44794e4c5d3,61,2022-02-12_16h55.36.583,lexical_decision_task_DD_L5,2021.2.3,MacIntel,58.82352941,,,,,,,,,,0.856,1,,,,,,,,,,,,,,,0,0.403703704,-0.262962963,1,0,0,0.856,button_right_main,0.403703704,-0.262962963,1,0,0,,0,11,11,44,1,BASKET,C,old,m,./images/BASKET.png,,,,,,,,,,,,,,,,,,,,,,,,,,,,,,,,,
,,,,,,,,,,,,,,,,,61494b2ba9fdd44794e4c5d3,61,2022-02-12_16h55.36.583,lexical_decision_task_DD_L5,2021.2.3,MacIntel,58.82352941,,,,,,,,,,1.69,1,,,,,,,,,,,,,,,0,-0.385185185,-0.279012346,1,0,0,1.69,button_left_main,-0.385185185,-0.279012346,1,0,0,,0,12,12,112,1,MYING,HB,old,z,./images/MYINGHB.png,,,,,,,,,,,,,,,,,,,,,,,,,,,,,,,,,
,,,,,,,,,,,,,,,,,61494b2ba9fdd44794e4c5d3,61,2022-02-12_16h55.36.583,lexical_decision_task_DD_L5,2021.2.3,MacIntel,58.82352941,,,,,,,,,,0.842,1,,,,,,,,,,,,,,,0,-0.379012346,-0.282716049,1,0,0,0.842,button_left_main,-0.379012346,-0.282716049,1,0,0,,0,13,13,167,1,ZONET,LB,old,z,./images/ZONETLB.png,,,,,,,,,,,,,,,,,,,,,,,,,,,,,,,,,
,,,,,,,,,,,,,,,,,61494b2ba9fdd44794e4c5d3,61,2022-02-12_16h55.36.583,lexical_decision_task_DD_L5,2021.2.3,MacIntel,58.82352941,,,,,,,,,,1.12,1,,,,,,,,,,,,,,,0,0.387654321,-0.262962963,1,0,0,1.12,button_right_main,0.387654321,-0.262962963,1,0,0,,0,14,14,21,1,DANCER,HB,old,m,./images/DANCERHB.png,,,,,,,,,,,,,,,,,,,,,,,,,,,,,,,,,
,,,,,,,,,,,,,,,,,61494b2ba9fdd44794e4c5d3,61,2022-02-12_16h55.36.583,lexical_decision_task_DD_L5,2021.2.3,MacIntel,58.82352941,,,,,,,,,,1.009,1,,,,,,,,,,,,,,,0,-0.396296296,-0.27037037,1,0,0,1.009,button_left_main,-0.396296296,-0.27037037,1,0,0,,0,15,15,102,1,DULLE,C,old,z,./images/DULLE.png,,,,,,,,,,,,,,,,,,,,,,,,,,,,,,,,,
,,,,,,,,,,,,,,,,,61494b2ba9fdd44794e4c5d3,61,2022-02-12_16h55.36.583,lexical_decision_task_DD_L5,2021.2.3,MacIntel,58.82352941,,,,,,,,,,0.893,1,,,,,,,,,,,,,,,0,-0.4,-0.265432099,1,0,0,0.893,button_left_main,-0.4,-0.265432099,1,0,0,,0,16,16,131,1,NACES,LB,old,z,./images/NACESLB.png,,,,,,,,,,,,,,,,,,,,,,,,,,,,,,,,,
,,,,,,,,,,,,,,,,,61494b2ba9fdd44794e4c5d3,61,2022-02-12_16h55.36.583,lexical_decision_task_DD_L5,2021.2.3,MacIntel,58.82352941,,,,,,,,,,0.748,1,,,,,,,,,,,,,,,0,0.397530864,-0.250617284,1,0,0,0.748,button_right_main,0.397530864,-0.250617284,1,0,0,,0,17,17,73,1,GLOVE,LB,old,m,./images/GLOVELB.png,,,,,,,,,,,,,,,,,,,,,,,,,,,,,,,,,
,,,,,,,,,,,,,,,,,61494b2ba9fdd44794e4c5d3,61,2022-02-12_16h55.36.583,lexical_decision_task_DD_L5,2021.2.3,MacIntel,58.82352941,,,,,,,,,,0.749,1,,,,,,,,,,,,,,,0,-0.4,-0.279012346,1,0,0,0.749,button_left_main,-0.4,-0.279012346,1,0,0,,0,18,18,158,1,EGECT,LB,old,z,./images/EGECTLB.png,,,,,,,,,,,,,,,,,,,,,,,,,,,,,,,,,
,,,,,,,,,,,,,,,,,61494b2ba9fdd44794e4c5d3,61,2022-02-12_16h55.36.583,lexical_decision_task_DD_L5,2021.2.3,MacIntel,58.82352941,,,,,,,,,,0.694,1,,,,,,,,,,,,,,,0,0.403703704,-0.259259259,1,0,0,0.694,button_right_main,0.403703704,-0.259259259,1,0,0,,0,19,19,40,1,SNAKE,LB,old,m,./images/SNAKELB.png,,,,,,,,,,,,,,,,,,,,,,,,,,,,,,,,,
,,,,,,,,,,,,,,,,,61494b2ba9fdd44794e4c5d3,61,2022-02-12_16h55.36.583,lexical_decision_task_DD_L5,2021.2.3,MacIntel,58.82352941,,,,,,,,,,0.74,1,,,,,,,,,,,,,,,0,-0.385185185,-0.296296296,1,0,0,0.74,button_left_main,-0.385185185,-0.296296296,1,0,0,,0,20,20,87,1,TRING,C,old,z,./images/TRING.png,,,,,,,,,,,,,,,,,,,,,,,,,,,,,,,,,
,,,,,,,,,,,,,,,,,61494b2ba9fdd44794e4c5d3,61,2022-02-12_16h55.36.583,lexical_decision_task_DD_L5,2021.2.3,MacIntel,58.82352941,,,,,,,,,,0.792,1,,,,,,,,,,,,,,,0,0.403703704,-0.258024691,1,0,0,0.792,button_right_main,0.403703704,-0.258024691,1,0,0,,0,21,21,31,1,STEAK,LB,old,m,./images/STEAKLB.png,,,,,,,,,,,,,,,,,,,,,,,,,,,,,,,,,
,,,,,,,,,,,,,,,,,61494b2ba9fdd44794e4c5d3,61,2022-02-12_16h55.36.583,lexical_decision_task_DD_L5,2021.2.3,MacIntel,58.82352941,,,,,,,,,,1.171,1,,,,,,,,,,,,,,,0,0.4,-0.267901235,1,0,0,1.171,button_right_main,0.4,-0.267901235,1,0,0,,0,22,22,42,1,CHAIN,HB,old,m,./images/CHAINHB.png,,,,,,,,,,,,,,,,,,,,,,,,,,,,,,,,,
,,,,,,,,,,,,,,,,,61494b2ba9fdd44794e4c5d3,61,2022-02-12_16h55.36.583,lexical_decision_task_DD_L5,2021.2.3,MacIntel,58.82352941,,,,,,,,,,0.909,1,,,,,,,,,,,,,,,0,0.409876543,-0.256790123,1,0,0,0.909,button_right_main,0.409876543,-0.256790123,1,0,0,,0,23,23,20,1,GRANNY,C,old,m,./images/GRANNY.png,,,,,,,,,,,,,,,,,,,,,,,,,,,,,,,,,
,,,,,,,,,,,,,,,,,61494b2ba9fdd44794e4c5d3,61,2022-02-12_16h55.36.583,lexical_decision_task_DD_L5,2021.2.3,MacIntel,58.82352941,,,,,,,,,,1.157,1,,,,,,,,,,,,,,,0,0.403703704,-0.254320988,1,0,0,1.157,button_right_main,0.403703704,-0.254320988,1,0,0,,0,24,24,81,1,DRILL,HB,old,m,./images/DRILLHB.png,,,,,,,,,,,,,,,,,,,,,,,,,,,,,,,,,
,,,,,,,,,,,,,,,,,61494b2ba9fdd44794e4c5d3,61,2022-02-12_16h55.36.583,lexical_decision_task_DD_L5,2021.2.3,MacIntel,58.82352941,,,,,,,,,,0.691,1,,,,,,,,,,,,,,,0,-0.390123457,-0.286419753,1,0,0,0.691,button_left_main,-0.390123457,-0.286419753,1,0,0,,0,25,25,98,1,BAMPS,LB,old,z,./images/BAMPSLB.png,,,,,,,,,,,,,,,,,,,,,,,,,,,,,,,,,
,,,,,,,,,,,,,,,,,61494b2ba9fdd44794e4c5d3,61,2022-02-12_16h55.36.583,lexical_decision_task_DD_L5,2021.2.3,MacIntel,58.82352941,,,,,,,,,,1.525,1,,,,,,,,,,,,,,,0,0.416049383,-0.250617284,1,0,0,1.525,button_right_main,0.416049383,-0.250617284,1,0,0,,0,26,26,72,1,FLASK,HB,old,m,./images/FLASKHB.png,,,,,,,,,,,,,,,,,,,,,,,,,,,,,,,,,
,,,,,,,,,,,,,,,,,61494b2ba9fdd44794e4c5d3,61,2022-02-12_16h55.36.583,lexical_decision_task_DD_L5,2021.2.3,MacIntel,58.82352941,,,,,,,,,,0.858,1,,,,,,,,,,,,,,,0,-0.391358025,-0.279012346,1,0,0,0.858,button_left_main,-0.391358025,-0.279012346,1,0,0,,0,27,27,134,1,TROSS,LB,old,z,./images/TROSSLB.png,,,,,,,,,,,,,,,,,,,,,,,,,,,,,,,,,
,,,,,,,,,,,,,,,,,61494b2ba9fdd44794e4c5d3,61,2022-02-12_16h55.36.583,lexical_decision_task_DD_L5,2021.2.3,MacIntel,58.82352941,,,,,,,,,,0.676,1,,,,,,,,,,,,,,,0,0.412345679,-0.254320988,1,0,0,0.676,button_right_main,0.412345679,-0.254320988,1,0,0,,0,28,28,80,1,PLANET,C,old,m,./images/PLANET.png,,,,,,,,,,,,,,,,,,,,,,,,,,,,,,,,,
,,,,,,,,,,,,,,,,,61494b2ba9fdd44794e4c5d3,61,2022-02-12_16h55.36.583,lexical_decision_task_DD_L5,2021.2.3,MacIntel,58.82352941,,,,,,,,,,0.808,1,,,,,,,,,,,,,,,0,-0.380246914,-0.287654321,1,0,0,0.808,button_left_main,-0.380246914,-0.287654321,1,0,0,,0,29,29,164,1,SGREW,LB,old,z,./images/SGREWLB.png,,,,,,,,,,,,,,,,,,,,,,,,,,,,,,,,,
,,,,,,,,,,,,,,,,,61494b2ba9fdd44794e4c5d3,61,2022-02-12_16h55.36.583,lexical_decision_task_DD_L5,2021.2.3,MacIntel,58.82352941,,,,,,,,,,0.958,1,,,,,,,,,,,,,,,0,-0.387654321,-0.281481481,1,0,0,0.958,button_left_main,-0.387654321,-0.281481481,1,0,0,,0,30,30,140,1,DOVET,LB,old,z,./images/DOVETLB.png,,,,,,,,,,,,,,,,,,,,,,,,,,,,,,,,,
,,,,,,,,,,,,,,,,,61494b2ba9fdd44794e4c5d3,61,2022-02-12_16h55.36.583,lexical_decision_task_DD_L5,2021.2.3,MacIntel,58.82352941,,,,,,,,,,1,1,,,,,,,,,,,,,,,0,-0.387654321,-0.287654321,1,0,0,1,button_left_main,-0.387654321,-0.287654321,1,0,0,,0,31,31,122,1,BLOOT,LB,old,z,./images/BLOOTLB.png,,,,,,,,,,,,,,,,,,,,,,,,,,,,,,,,,
,,,,,,,,,,,,,,,,,61494b2ba9fdd44794e4c5d3,61,2022-02-12_16h55.36.583,lexical_decision_task_DD_L5,2021.2.3,MacIntel,58.82352941,,,,,,,,,,0.824,1,,,,,,,,,,,,,,,0,-0.367901235,-0.295061728,1,0,0,0.824,button_left_main,-0.367901235,-0.295061728,1,0,0,,0,32,32,137,1,JOOST,LB,old,z,./images/JOOSTLB.png,,,,,,,,,,,,,,,,,,,,,,,,,,,,,,,,,
,,,,,,,,,,,,,,,,,61494b2ba9fdd44794e4c5d3,61,2022-02-12_16h55.36.583,lexical_decision_task_DD_L5,2021.2.3,MacIntel,58.82352941,,,,,,,,,,0.643,1,,,,,,,,,,,,,,,0,0.404938272,-0.249382716,1,0,0,0.643,button_right_main,0.404938272,-0.249382716,1,0,0,,0,33,33,4,1,BOXER,LB,old,m,./images/BOXERLB.png,,,,,,,,,,,,,,,,,,,,,,,,,,,,,,,,,
,,,,,,,,,,,,,,,,,61494b2ba9fdd44794e4c5d3,61,2022-02-12_16h55.36.583,lexical_decision_task_DD_L5,2021.2.3,MacIntel,58.82352941,,,,,,,,,,0.675,1,,,,,,,,,,,,,,,0,0.409876543,-0.251851852,1,0,0,0.675,button_right_main,0.409876543,-0.251851852,1,0,0,,0,34,34,22,1,CLOWN,LB,old,m,./images/CLOWNLB.png,,,,,,,,,,,,,,,,,,,,,,,,,,,,,,,,,
,,,,,,,,,,,,,,,,,61494b2ba9fdd44794e4c5d3,61,2022-02-12_16h55.36.583,lexical_decision_task_DD_L5,2021.2.3,MacIntel,58.82352941,,,,,,,,,,0.692,1,,,,,,,,,,,,,,,0,0.403703704,-0.255555556,1,0,0,0.692,button_right_main,0.403703704,-0.255555556,1,0,0,,0,35,35,43,1,STOOL,LB,old,m,./images/STOOLLB.png,,,,,,,,,,,,,,,,,,,,,,,,,,,,,,,,,
,,,,,,,,,,,,,,,,,61494b2ba9fdd44794e4c5d3,61,2022-02-12_16h55.36.583,lexical_decision_task_DD_L5,2021.2.3,MacIntel,58.82352941,,,,,,,,,,1.433,1,,,,,,,,,,,,,,,0,-0.385185185,-0.288888889,1,0,0,1.433,button_left_main,-0.385185185,-0.288888889,1,0,0,,0,36,36,97,1,CHIDS,HB,old,z,./images/CHIDSHB.png,,,,,,,,,,,,,,,,,,,,,,,,,,,,,,,,,
,,,,,,,,,,,,,,,,,61494b2ba9fdd44794e4c5d3,61,2022-02-12_16h55.36.583,lexical_decision_task_DD_L5,2021.2.3,MacIntel,58.82352941,,,,,,,,,,2.093,1,,,,,,,,,,,,,,,0,-0.408641975,-0.258024691,1,0,0,2.093,button_left_main,-0.408641975,-0.258024691,1,0,0,,0,37,37,133,1,POWDY,HB,old,z,./images/POWDYHB.png,,,,,,,,,,,,,,,,,,,,,,,,,,,,,,,,,
,,,,,,,,,,,,,,,,,61494b2ba9fdd44794e4c5d3,61,2022-02-12_16h55.36.583,lexical_decision_task_DD_L5,2021.2.3,MacIntel,58.82352941,,,,,,,,,,0.673,1,,,,,,,,,,,,,,,0,0.401234568,-0.24691358,1,0,0,0.673,button_right_main,0.401234568,-0.24691358,1,0,0,,0,38,38,83,1,WHISKY,C,old,m,./images/WHISKY.png,,,,,,,,,,,,,,,,,,,,,,,,,,,,,,,,,
,,,,,,,,,,,,,,,,,61494b2ba9fdd44794e4c5d3,61,2022-02-12_16h55.36.583,lexical_decision_task_DD_L5,2021.2.3,MacIntel,58.82352941,,,,,,,,,,0.74,1,,,,,,,,,,,,,,,0,-0.396296296,-0.277777778,1,0,0,0.74,button_left_main,-0.396296296,-0.277777778,1,0,0,,0,39,39,90,1,NEAST,C,old,z,./images/NEAST.png,,,,,,,,,,,,,,,,,,,,,,,,,,,,,,,,,
,,,,,,,,,,,,,,,,,61494b2ba9fdd44794e4c5d3,61,2022-02-12_16h55.36.583,lexical_decision_task_DD_L5,2021.2.3,MacIntel,58.82352941,,,,,,,,,,0.825,1,,,,,,,,,,,,,,,0,0.407407407,-0.240740741,1,0,0,0.825,button_right_main,0.407407407,-0.240740741,1,0,0,,0,40,40,8,1,CLIFF,C,old,m,./images/CLIFF.png,,,,,,,,,,,,,,,,,,,,,,,,,,,,,,,,,
,,,,,,,,,,,,,,,,,61494b2ba9fdd44794e4c5d3,61,2022-02-12_16h55.36.583,lexical_decision_task_DD_L5,2021.2.3,MacIntel,58.82352941,,,,,,,,,,1.291,1,,,,,,,,,,,,,,,0,-0.387654321,-0.27654321,1,0,0,1.291,button_left_main,-0.014814815,-0.395061728,1,0,0,,0,41,41,139,1,BLEAR,HB,old,z,./images/BLEARHB.png,break_done_button,,,,,,,,,,,,,,,,,,,,,,,,,,,,,,,,
,,,,,,,,,,,,,,,,,61494b2ba9fdd44794e4c5d3,61,2022-02-12_16h55.36.583,lexical_decision_task_DD_L5,2021.2.3,MacIntel,58.82352941,,,,,,,,,,1.025,1,,,,,,,,,,,,,,,0,0.374074074,-0.288888889,1,0,0,1.025,button_right_main,0.374074074,-0.288888889,1,0,0,,0,42,42,46,1,MUMMY,LB,old,m,./images/MUMMYLB.png,,,,,,,,,,,,,,,,,,,,,,,,,,,,,,,,,
,,,,,,,,,,,,,,,,,61494b2ba9fdd44794e4c5d3,61,2022-02-12_16h55.36.583,lexical_decision_task_DD_L5,2021.2.3,MacIntel,58.82352941,,,,,,,,,,1.01,1,,,,,,,,,,,,,,,0,0.371604938,-0.277777778,1,0,0,1.01,button_right_main,0.371604938,-0.277777778,1,0,0,,0,43,43,48,1,SHIELD,HB,old,m,./images/SHIELDHB.png,,,,,,,,,,,,,,,,,,,,,,,,,,,,,,,,,
,,,,,,,,,,,,,,,,,61494b2ba9fdd44794e4c5d3,61,2022-02-12_16h55.36.583,lexical_decision_task_DD_L5,2021.2.3,MacIntel,58.82352941,,,,,,,,,,0.758,1,,,,,,,,,,,,,,,0,0.379012346,-0.251851852,1,0,0,0.758,button_right_main,0.379012346,-0.251851852,1,0,0,,0,44,44,1,1,TOWEL,LB,old,m,./images/TOWELLB.png,,,,,,,,,,,,,,,,,,,,,,,,,,,,,,,,,
,,,,,,,,,,,,,,,,,61494b2ba9fdd44794e4c5d3,61,2022-02-12_16h55.36.583,lexical_decision_task_DD_L5,2021.2.3,MacIntel,58.82352941,,,,,,,,,,0.707,1,,,,,,,,,,,,,,,0,0.382716049,-0.261728395,1,0,0,0.707,button_right_main,0.382716049,-0.261728395,1,0,0,,0,45,45,10,1,GARDEN,LB,old,m,./images/GARDENLB.png,,,,,,,,,,,,,,,,,,,,,,,,,,,,,,,,,
,,,,,,,,,,,,,,,,,61494b2ba9fdd44794e4c5d3,61,2022-02-12_16h55.36.583,lexical_decision_task_DD_L5,2021.2.3,MacIntel,58.82352941,,,,,,,,,,1.415,1,,,,,,,,,,,,,,,0,0.369135802,-0.265432099,1,0,0,1.415,button_right_main,0.369135802,-0.265432099,1,0,0,,0,46,46,27,1,BUTTER,HB,old,m,./images/BUTTERHB.png,,,,,,,,,,,,,,,,,,,,,,,,,,,,,,,,,
,,,,,,,,,,,,,,,,,61494b2ba9fdd44794e4c5d3,61,2022-02-12_16h55.36.583,lexical_decision_task_DD_L5,2021.2.3,MacIntel,58.82352941,,,,,,,,,,0.659,1,,,,,,,,,,,,,,,0,-0.390123457,-0.27654321,1,0,0,0.659,button_left_main,-0.390123457,-0.27654321,1,0,0,,0,47,47,108,1,GRUET,C,old,z,./images/GRUET.png,,,,,,,,,,,,,,,,,,,,,,,,,,,,,,,,,
,,,,,,,,,,,,,,,,,61494b2ba9fdd44794e4c5d3,61,2022-02-12_16h55.36.583,lexical_decision_task_DD_L5,2021.2.3,MacIntel,58.82352941,,,,,,,,,,1.191,1,,,,,,,,,,,,,,,0,-0.4,-0.27037037,1,0,0,1.191,button_left_main,-0.4,-0.27037037,1,0,0,,0,48,48,118,1,BAVEL,HB,old,z,./images/BAVELHB.png,,,,,,,,,,,,,,,,,,,,,,,,,,,,,,,,,
,,,,,,,,,,,,,,,,,61494b2ba9fdd44794e4c5d3,61,2022-02-12_16h55.36.583,lexical_decision_task_DD_L5,2021.2.3,MacIntel,58.82352941,,,,,,,,,,1.061,1,,,,,,,,,,,,,,,0,-0.385185185,-0.283950617,1,0,0,1.061,button_left_main,-0.385185185,-0.283950617,1,0,0,,0,49,49,160,1,VEETS,HB,old,z,./images/VEETSHB.png,,,,,,,,,,,,,,,,,,,,,,,,,,,,,,,,,
,,,,,,,,,,,,,,,,,61494b2ba9fdd44794e4c5d3,61,2022-02-12_16h55.36.583,lexical_decision_task_DD_L5,2021.2.3,MacIntel,58.82352941,,,,,,,,,,0.727,1,,,,,,,,,,,,,,,0,0.388888889,-0.254320988,1,0,0,0.727,button_right_main,0.388888889,-0.254320988,1,0,0,,0,50,50,47,1,LAGOON,C,old,m,./images/LAGOON.png,,,,,,,,,,,,,,,,,,,,,,,,,,,,,,,,,
,,,,,,,,,,,,,,,,,61494b2ba9fdd44794e4c5d3,61,2022-02-12_16h55.36.583,lexical_decision_task_DD_L5,2021.2.3,MacIntel,58.82352941,,,,,,,,,,1.315,1,,,,,,,,,,,,,,,0,-0.395061728,-0.27654321,1,0,0,1.315,button_left_main,-0.395061728,-0.27654321,1,0,0,,0,51,51,151,1,TINKY,HB,old,z,./images/TINKYHB.png,,,,,,,,,,,,,,,,,,,,,,,,,,,,,,,,,
,,,,,,,,,,,,,,,,,61494b2ba9fdd44794e4c5d3,61,2022-02-12_16h55.36.583,lexical_decision_task_DD_L5,2021.2.3,MacIntel,58.82352941,,,,,,,,,,0.897,1,,,,,,,,,,,,,,,0,-0.396296296,-0.27654321,1,0,0,0.897,button_left_main,-0.396296296,-0.27654321,1,0,0,,0,52,52,105,1,MOKER,C,old,z,./images/MOKER.png,,,,,,,,,,,,,,,,,,,,,,,,,,,,,,,,,
,,,,,,,,,,,,,,,,,61494b2ba9fdd44794e4c5d3,61,2022-02-12_16h55.36.583,lexical_decision_task_DD_L5,2021.2.3,MacIntel,58.82352941,,,,,,,,,,0.677,1,,,,,,,,,,,,,,,0,0.395061728,-0.254320988,1,0,0,0.677,button_right_main,0.395061728,-0.254320988,1,0,0,,0,53,53,25,1,CHALK,LB,old,m,./images/CHALKLB.png,,,,,,,,,,,,,,,,,,,,,,,,,,,,,,,,,
,,,,,,,,,,,,,,,,,61494b2ba9fdd44794e4c5d3,61,2022-02-12_16h55.36.583,lexical_decision_task_DD_L5,2021.2.3,MacIntel,58.82352941,,,,,,,,,,0.721,1,,,,,,,,,,,,,,,0,-0.387654321,-0.285185185,1,0,0,0.721,button_left_main,-0.387654321,-0.285185185,1,0,0,,0,54,54,86,1,AIFED,LB,old,z,./images/AIFEDLB.png,,,,,,,,,,,,,,,,,,,,,,,,,,,,,,,,,
,,,,,,,,,,,,,,,,,61494b2ba9fdd44794e4c5d3,61,2022-02-12_16h55.36.583,lexical_decision_task_DD_L5,2021.2.3,MacIntel,58.82352941,,,,,,,,,,1.74,1,,,,,,,,,,,,,,,0,0.401234568,-0.258024691,1,0,0,1.74,button_right_main,0.401234568,-0.258024691,1,0,0,,0,55,55,57,1,FERRY,HB,old,m,./images/FERRYHB.png,,,,,,,,,,,,,,,,,,,,,,,,,,,,,,,,,
,,,,,,,,,,,,,,,,,61494b2ba9fdd44794e4c5d3,61,2022-02-12_16h55.36.583,lexical_decision_task_DD_L5,2021.2.3,MacIntel,58.82352941,,,,,,,,,,0.842,1,,,,,,,,,,,,,,,0,0.408641975,-0.251851852,1,0,0,0.842,button_right_main,0.408641975,-0.251851852,1,0,0,,0,56,56,34,1,RAZOR,LB,old,m,./images/RAZORLB.png,,,,,,,,,,,,,,,,,,,,,,,,,,,,,,,,,
,,,,,,,,,,,,,,,,,61494b2ba9fdd44794e4c5d3,61,2022-02-12_16h55.36.583,lexical_decision_task_DD_L5,2021.2.3,MacIntel,58.82352941,,,,,,,,,,0.757,1,,,,,,,,,,,,,,,0,0.402469136,-0.256790123,1,0,0,0.757,button_right_main,0.402469136,-0.256790123,1,0,0,,0,57,57,16,1,GRAPE,LB,old,m,./images/GRAPELB.png,,,,,,,,,,,,,,,,,,,,,,,,,,,,,,,,,
,,,,,,,,,,,,,,,,,61494b2ba9fdd44794e4c5d3,61,2022-02-12_16h55.36.583,lexical_decision_task_DD_L5,2021.2.3,MacIntel,58.82352941,,,,,,,,,,0.825,1,,,,,,,,,,,,,,,0,0.396296296,-0.261728395,1,0,0,0.825,button_right_main,0.396296296,-0.261728395,1,0,0,,0,58,58,67,1,POKER,LB,old,m,./images/POKERLB.png,,,,,,,,,,,,,,,,,,,,,,,,,,,,,,,,,
,,,,,,,,,,,,,,,,,61494b2ba9fdd44794e4c5d3,61,2022-02-12_16h55.36.583,lexical_decision_task_DD_L5,2021.2.3,MacIntel,58.82352941,,,,,,,,,,2.54,1,,,,,,,,,,,,,,,0,0.387654321,-0.264197531,1,0,0,2.54,button_right_main,0.387654321,-0.264197531,1,0,0,,0,59,59,3,1,CRATER,HB,old,m,./images/CRATERHB.png,,,,,,,,,,,,,,,,,,,,,,,,,,,,,,,,,
,,,,,,,,,,,,,,,,,61494b2ba9fdd44794e4c5d3,61,2022-02-12_16h55.36.583,lexical_decision_task_DD_L5,2021.2.3,MacIntel,58.82352941,,,,,,,,,,0.792,1,,,,,,,,,,,,,,,0,0.398765432,-0.256790123,1,0,0,0.792,button_right_main,0.398765432,-0.256790123,1,0,0,,0,60,60,64,1,BRIDE,LB,old,m,./images/BRIDELB.png,,,,,,,,,,,,,,,,,,,,,,,,,,,,,,,,,
,,,,,,,,,,,,,,,,,61494b2ba9fdd44794e4c5d3,61,2022-02-12_16h55.36.583,lexical_decision_task_DD_L5,2021.2.3,MacIntel,58.82352941,,,,,,,,,,0.676,1,,,,,,,,,,,,,,,0,0.391358025,-0.265432099,1,0,0,0.676,button_right_main,0.391358025,-0.265432099,1,0,0,,0,61,61,56,1,HEATER,C,old,m,./images/HEATER.png,,,,,,,,,,,,,,,,,,,,,,,,,,,,,,,,,
,,,,,,,,,,,,,,,,,61494b2ba9fdd44794e4c5d3,61,2022-02-12_16h55.36.583,lexical_decision_task_DD_L5,2021.2.3,MacIntel,58.82352941,,,,,,,,,,1.291,1,,,,,,,,,,,,,,,0,-0.411111111,-0.266666667,1,0,0,1.291,button_left_main,-0.411111111,-0.266666667,1,0,0,,0,62,62,109,1,BURGE,HB,old,z,./images/BURGEHB.png,,,,,,,,,,,,,,,,,,,,,,,,,,,,,,,,,
,,,,,,,,,,,,,,,,,61494b2ba9fdd44794e4c5d3,61,2022-02-12_16h55.36.583,lexical_decision_task_DD_L5,2021.2.3,MacIntel,58.82352941,,,,,,,,,,0.792,1,,,,,,,,,,,,,,,0,0.387654321,-0.261728395,1,0,0,0.792,button_right_main,0.387654321,-0.261728395,1,0,0,,0,63,63,14,1,FENCE,C,old,m,./images/FENCE.png,,,,,,,,,,,,,,,,,,,,,,,,,,,,,,,,,
,,,,,,,,,,,,,,,,,61494b2ba9fdd44794e4c5d3,61,2022-02-12_16h55.36.583,lexical_decision_task_DD_L5,2021.2.3,MacIntel,58.82352941,,,,,,,,,,0.857,1,,,,,,,,,,,,,,,0,-0.408641975,-0.281481481,1,0,0,0.857,button_left_main,-0.408641975,-0.281481481,1,0,0,,0,64,64,129,1,PRANS,C,old,z,./images/PRANS.png,,,,,,,,,,,,,,,,,,,,,,,,,,,,,,,,,
,,,,,,,,,,,,,,,,,61494b2ba9fdd44794e4c5d3,61,2022-02-12_16h55.36.583,lexical_decision_task_DD_L5,2021.2.3,MacIntel,58.82352941,,,,,,,,,,1.025,1,,,,,,,,,,,,,,,0,-0.411111111,-0.271604938,1,0,0,1.025,button_left_main,-0.411111111,-0.271604938,1,0,0,,0,65,65,165,1,TROWN,C,old,z,./images/TROWN.png,,,,,,,,,,,,,,,,,,,,,,,,,,,,,,,,,
,,,,,,,,,,,,,,,,,61494b2ba9fdd44794e4c5d3,61,2022-02-12_16h55.36.583,lexical_decision_task_DD_L5,2021.2.3,MacIntel,58.82352941,,,,,,,,,,1.024,1,,,,,,,,,,,,,,,0,0.388888889,-0.256790123,1,0,0,1.024,button_right_main,0.388888889,-0.256790123,1,0,0,,0,66,66,30,1,SLOPE,HB,old,m,./images/SLOPEHB.png,,,,,,,,,,,,,,,,,,,,,,,,,,,,,,,,,
,,,,,,,,,,,,,,,,,61494b2ba9fdd44794e4c5d3,61,2022-02-12_16h55.36.583,lexical_decision_task_DD_L5,2021.2.3,MacIntel,58.82352941,,,,,,,,,,0.743,1,,,,,,,,,,,,,,,0,0.395061728,-0.250617284,1,0,0,0.743,button_right_main,0.395061728,-0.250617284,1,0,0,,0,67,67,61,1,ARTIST,LB,old,m,./images/ARTISTLB.png,,,,,,,,,,,,,,,,,,,,,,,,,,,,,,,,,
,,,,,,,,,,,,,,,,,61494b2ba9fdd44794e4c5d3,61,2022-02-12_16h55.36.583,lexical_decision_task_DD_L5,2021.2.3,MacIntel,58.82352941,,,,,,,,,,1.173,1,,,,,,,,,,,,,,,0,-0.392592593,-0.288888889,1,0,0,1.173,button_left_main,-0.392592593,-0.288888889,1,0,0,,0,68,68,94,1,BLANS,HB,old,z,./images/BLANSHB.png,,,,,,,,,,,,,,,,,,,,,,,,,,,,,,,,,
,,,,,,,,,,,,,,,,,61494b2ba9fdd44794e4c5d3,61,2022-02-12_16h55.36.583,lexical_decision_task_DD_L5,2021.2.3,MacIntel,58.82352941,,,,,,,,,,1.126,1,,,,,,,,,,,,,,,0,-0.4,-0.286419753,1,0,0,1.126,button_left_main,-0.4,-0.286419753,1,0,0,,0,69,69,162,1,LEICH,C,old,z,./images/LEICH.png,,,,,,,,,,,,,,,,,,,,,,,,,,,,,,,,,
,,,,,,,,,,,,,,,,,61494b2ba9fdd44794e4c5d3,61,2022-02-12_16h55.36.583,lexical_decision_task_DD_L5,2021.2.3,MacIntel,58.82352941,,,,,,,,,,0.956,1,,,,,,,,,,,,,,,0,0.401234568,-0.241975309,1,0,0,0.956,button_right_main,0.401234568,-0.241975309,1,0,0,,0,70,70,51,1,SAUCE,HB,old,m,./images/SAUCEHB.png,,,,,,,,,,,,,,,,,,,,,,,,,,,,,,,,,
,,,,,,,,,,,,,,,,,61494b2ba9fdd44794e4c5d3,61,2022-02-12_16h55.36.583,lexical_decision_task_DD_L5,2021.2.3,MacIntel,58.82352941,,,,,,,,,,0.858,1,,,,,,,,,,,,,,,0,-0.412345679,-0.27654321,1,0,0,0.858,button_left_main,-0.412345679,-0.27654321,1,0,0,,0,71,71,101,1,GLEET,LB,old,z,./images/GLEETLB.png,,,,,,,,,,,,,,,,,,,,,,,,,,,,,,,,,
,,,,,,,,,,,,,,,,,61494b2ba9fdd44794e4c5d3,61,2022-02-12_16h55.36.583,lexical_decision_task_DD_L5,2021.2.3,MacIntel,58.82352941,,,,,,,,,,1.44,1,,,,,,,,,,,,,,,0,0.385185185,-0.265432099,1,0,0,1.44,button_right_main,0.385185185,-0.265432099,1,0,0,,0,72,72,45,1,MONKEY,HB,old,m,./images/MONKEYHB.png,,,,,,,,,,,,,,,,,,,,,,,,,,,,,,,,,
,,,,,,,,,,,,,,,,,61494b2ba9fdd44794e4c5d3,61,2022-02-12_16h55.36.583,lexical_decision_task_DD_L5,2021.2.3,MacIntel,58.82352941,,,,,,,,,,0.892,0,,,,,,,,,,,,,,,0,-0.418518519,-0.27037037,1,0,0,0.892,button_left_main,-0.418518519,-0.27037037,1,0,0,,0,73,73,7,1,WAGON,LB,old,m,./images/WAGONLB.png,,,,,,,,,,,,,,,,,,,,,,,,,,,,,,,,,
,,,,,,,,,,,,,,,,,61494b2ba9fdd44794e4c5d3,61,2022-02-12_16h55.36.583,lexical_decision_task_DD_L5,2021.2.3,MacIntel,58.82352941,,,,,,,,,,1.212,1,,,,,,,,,,,,,,,0,0.392592593,-0.260493827,1,0,0,1.212,button_right_main,0.392592593,-0.260493827,1,0,0,,0,74,74,62,1,MAMMAL,C,old,m,./images/MAMMAL.png,,,,,,,,,,,,,,,,,,,,,,,,,,,,,,,,,
,,,,,,,,,,,,,,,,,61494b2ba9fdd44794e4c5d3,61,2022-02-12_16h55.36.583,lexical_decision_task_DD_L5,2021.2.3,MacIntel,58.82352941,,,,,,,,,,0.732,1,,,,,,,,,,,,,,,0,0.398765432,-0.248148148,1,0,0,0.732,button_right_main,0.398765432,-0.248148148,1,0,0,,0,75,75,65,1,SPINE,C,old,m,./images/SPINE.png,,,,,,,,,,,,,,,,,,,,,,,,,,,,,,,,,
,,,,,,,,,,,,,,,,,61494b2ba9fdd44794e4c5d3,61,2022-02-12_16h55.36.583,lexical_decision_task_DD_L5,2021.2.3,MacIntel,58.82352941,,,,,,,,,,1.369,1,,,,,,,,,,,,,,,0,-0.398765432,-0.301234568,1,0,0,1.369,button_left_main,-0.398765432,-0.301234568,1,0,0,,0,76,76,145,1,LAMEL,HB,old,z,./images/LAMELHB.png,,,,,,,,,,,,,,,,,,,,,,,,,,,,,,,,,
,,,,,,,,,,,,,,,,,61494b2ba9fdd44794e4c5d3,61,2022-02-12_16h55.36.583,lexical_decision_task_DD_L5,2021.2.3,MacIntel,58.82352941,,,,,,,,,,0.707,1,,,,,,,,,,,,,,,0,0.396296296,-0.251851852,1,0,0,0.707,button_right_main,0.396296296,-0.251851852,1,0,0,,0,77,77,37,1,TIGER,LB,old,m,./images/TIGERLB.png,,,,,,,,,,,,,,,,,,,,,,,,,,,,,,,,,
,,,,,,,,,,,,,,,,,61494b2ba9fdd44794e4c5d3,61,2022-02-12_16h55.36.583,lexical_decision_task_DD_L5,2021.2.3,MacIntel,58.82352941,,,,,,,,,,0.714,1,,,,,,,,,,,,,,,0,0.388888889,-0.260493827,1,0,0,0.714,button_right_main,0.388888889,-0.260493827,1,0,0,,0,78,78,19,1,DONKEY,LB,old,m,./images/DONKEYLB.png,,,,,,,,,,,,,,,,,,,,,,,,,,,,,,,,,
,,,,,,,,,,,,,,,,,61494b2ba9fdd44794e4c5d3,61,2022-02-12_16h55.36.583,lexical_decision_task_DD_L5,2021.2.3,MacIntel,58.82352941,,,,,,,,,,1.555,1,,,,,,,,,,,,,,,0,-0.402469136,-0.282716049,1,0,0,1.555,button_left_main,-0.402469136,-0.282716049,1,0,0,,0,79,79,166,1,SHORY,HB,old,z,./images/SHORYHB.png,,,,,,,,,,,,,,,,,,,,,,,,,,,,,,,,,
,,,,,,,,,,,,,,,,,61494b2ba9fdd44794e4c5d3,61,2022-02-12_16h55.36.583,lexical_decision_task_DD_L5,2021.2.3,MacIntel,58.82352941,,,,,,,,,,1.025,1,,,,,,,,,,,,,,,0,-0.420987654,-0.271604938,1,0,0,1.025,button_left_main,-0.420987654,-0.271604938,1,0,0,,0,80,80,104,1,GITTY,LB,old,z,./images/GITTYLB.png,,,,,,,,,,,,,,,,,,,,,,,,,,,,,,,,,
,,,,,,,,,,,,,,,,,61494b2ba9fdd44794e4c5d3,61,2022-02-12_16h55.36.583,lexical_decision_task_DD_L5,2021.2.3,MacIntel,58.82352941,,,,,,,,,,2.707,0,,,,,,,,,,,,,,,0,0.383950617,-0.258024691,1,0,0,2.707,button_right_main,0.383950617,-0.258024691,1,0,0,,0,81,81,128,1,GRIFT,LB,old,z,./images/GRIFTLB.png,,,,,,,,,,,,,,,,,,,,,,,,,,,,,,,,,
,,,,,,,,,,,,,,,,,61494b2ba9fdd44794e4c5d3,61,2022-02-12_16h55.36.583,lexical_decision_task_DD_L5,2021.2.3,MacIntel,58.82352941,,,,,,,,,,0.79,1,,,,,,,,,,,,,,,0,0.379012346,-0.272839506,1,0,0,0.79,button_right_main,0.379012346,-0.272839506,1,0,0,,0,82,82,77,1,WHEEL,C,old,m,./images/WHEEL.png,,,,,,,,,,,,,,,,,,,,,,,,,,,,,,,,,
,,,,,,,,,,,,,,,,,61494b2ba9fdd44794e4c5d3,61,2022-02-12_16h55.36.583,lexical_decision_task_DD_L5,2021.2.3,MacIntel,58.82352941,,,,,,,,,,0.858,1,,,,,,,,,,,,,,,0,-0.404938272,-0.285185185,1,0,0,0.858,button_left_main,0.011111111,-0.383950617,1,0,0,,0,83,83,144,1,NAIRY,C,old,z,./images/NAIRY.png,break_done_button,,,,,,,,,,,,,,,,,,,,,,,,,,,,,,,,
,,,,,,,,,,,,,,,,,61494b2ba9fdd44794e4c5d3,61,2022-02-12_16h55.36.583,lexical_decision_task_DD_L5,2021.2.3,MacIntel,58.82352941,,,,,,,,,,1.093,1,,,,,,,,,,,,,,,0,0.369135802,-0.251851852,1,0,0,1.093,button_right_main,0.369135802,-0.251851852,1,0,0,,0,84,84,70,1,BANANA,LB,old,m,./images/BANANALB.png,,,,,,,,,,,,,,,,,,,,,,,,,,,,,,,,,
,,,,,,,,,,,,,,,,,61494b2ba9fdd44794e4c5d3,61,2022-02-12_16h55.36.583,lexical_decision_task_DD_L5,2021.2.3,MacIntel,58.82352941,,,,,,,,,,0.691,1,,,,,,,,,,,,,,,0,-0.407407407,-0.259259259,1,0,0,0.691,button_left_main,-0.407407407,-0.259259259,1,0,0,,0,85,85,147,1,ZOLES,C,old,z,./images/ZOLES.png,,,,,,,,,,,,,,,,,,,,,,,,,,,,,,,,,
,,,,,,,,,,,,,,,,,61494b2ba9fdd44794e4c5d3,61,2022-02-12_16h55.36.583,lexical_decision_task_DD_L5,2021.2.3,MacIntel,58.82352941,,,,,,,,,,0.674,1,,,,,,,,,,,,,,,0,0.365432099,-0.266666667,1,0,0,0.674,button_right_main,0.365432099,-0.266666667,1,0,0,,0,86,86,2,1,STOVE,C,old,m,./images/STOVE.png,,,,,,,,,,,,,,,,,,,,,,,,,,,,,,,,,
,,,,,,,,,,,,,,,,,61494b2ba9fdd44794e4c5d3,61,2022-02-12_16h55.36.583,lexical_decision_task_DD_L5,2021.2.3,MacIntel,58.82352941,,,,,,,,,,1.277,1,,,,,,,,,,,,,,,0,-0.396296296,-0.277777778,1,0,0,1.277,button_left_main,-0.396296296,-0.277777778,1,0,0,,0,87,87,163,1,GAMBA,HB,old,z,./images/GAMBAHB.png,,,,,,,,,,,,,,,,,,,,,,,,,,,,,,,,,
,,,,,,,,,,,,,,,,,61494b2ba9fdd44794e4c5d3,61,2022-02-12_16h55.36.583,lexical_decision_task_DD_L5,2021.2.3,MacIntel,58.82352941,,,,,,,,,,0.675,1,,,,,,,,,,,,,,,0,0.367901235,-0.27037037,1,0,0,0.675,button_right_main,0.367901235,-0.27037037,1,0,0,,0,88,88,38,1,ENGINE,C,old,m,./images/ENGINE.png,,,,,,,,,,,,,,,,,,,,,,,,,,,,,,,,,
,,,,,,,,,,,,,,,,,61494b2ba9fdd44794e4c5d3,61,2022-02-12_16h55.36.583,lexical_decision_task_DD_L5,2021.2.3,MacIntel,58.82352941,,,,,,,,,,1.087,1,,,,,,,,,,,,,,,0,0.364197531,-0.261728395,1,0,0,1.087,button_right_main,0.364197531,-0.261728395,1,0,0,,0,89,89,63,1,BAKER,HB,old,m,./images/BAKERHB.png,,,,,,,,,,,,,,,,,,,,,,,,,,,,,,,,,
,,,,,,,,,,,,,,,,,61494b2ba9fdd44794e4c5d3,61,2022-02-12_16h55.36.583,lexical_decision_task_DD_L5,2021.2.3,MacIntel,58.82352941,,,,,,,,,,0.757,1,,,,,,,,,,,,,,,0,0.379012346,-0.239506173,1,0,0,0.757,button_right_main,0.379012346,-0.239506173,1,0,0,,0,90,90,23,1,CLOTH,C,old,m,./images/CLOTH.png,,,,,,,,,,,,,,,,,,,,,,,,,,,,,,,,,
,,,,,,,,,,,,,,,,,61494b2ba9fdd44794e4c5d3,61,2022-02-12_16h55.36.583,lexical_decision_task_DD_L5,2021.2.3,MacIntel,58.82352941,,,,,,,,,,1.618,1,,,,,,,,,,,,,,,0,0.382716049,-0.243209877,1,0,0,1.618,button_right_main,0.382716049,-0.243209877,1,0,0,,0,91,91,6,1,STAIN,HB,old,m,./images/STAINHB.png,,,,,,,,,,,,,,,,,,,,,,,,,,,,,,,,,
,,,,,,,,,,,,,,,,,61494b2ba9fdd44794e4c5d3,61,2022-02-12_16h55.36.583,lexical_decision_task_DD_L5,2021.2.3,MacIntel,58.82352941,,,,,,,,,,0.741,1,,,,,,,,,,,,,,,0,-0.407407407,-0.274074074,1,0,0,0.741,button_left_main,-0.407407407,-0.274074074,1,0,0,,0,92,92,125,1,MOOKY,LB,old,z,./images/MOOKYLB.png,,,,,,,,,,,,,,,,,,,,,,,,,,,,,,,,,
,,,,,,,,,,,,,,,,,61494b2ba9fdd44794e4c5d3,61,2022-02-12_16h55.36.583,lexical_decision_task_DD_L5,2021.2.3,MacIntel,58.82352941,,,,,,,,,,0.93,1,,,,,,,,,,,,,,,0,-0.414814815,-0.266666667,1,0,0,0.93,button_left_main,-0.414814815,-0.266666667,1,0,0,,0,93,93,119,1,PAFER,LB,old,z,./images/PAFERLB.png,,,,,,,,,,,,,,,,,,,,,,,,,,,,,,,,,
,,,,,,,,,,,,,,,,,61494b2ba9fdd44794e4c5d3,61,2022-02-12_16h55.36.583,lexical_decision_task_DD_L5,2021.2.3,MacIntel,58.82352941,,,,,,,,,,0.825,1,,,,,,,,,,,,,,,0,-0.409876543,-0.271604938,1,0,0,0.825,button_left_main,-0.409876543,-0.271604938,1,0,0,,0,94,94,153,1,CLUPS,C,old,z,./images/CLUPS.png,,,,,,,,,,,,,,,,,,,,,,,,,,,,,,,,,
,,,,,,,,,,,,,,,,,61494b2ba9fdd44794e4c5d3,61,2022-02-12_16h55.36.583,lexical_decision_task_DD_L5,2021.2.3,MacIntel,58.82352941,,,,,,,,,,0.761,1,,,,,,,,,,,,,,,0,-0.409876543,-0.260493827,1,0,0,0.761,button_left_main,-0.409876543,-0.260493827,1,0,0,,0,95,95,89,1,DRIEK,LB,old,z,./images/DRIEKLB.png,,,,,,,,,,,,,,,,,,,,,,,,,,,,,,,,,
,,,,,,,,,,,,,,,,,61494b2ba9fdd44794e4c5d3,61,2022-02-12_16h55.36.583,lexical_decision_task_DD_L5,2021.2.3,MacIntel,58.82352941,,,,,,,,,,0.691,1,,,,,,,,,,,,,,,0,0.361728395,-0.245679012,1,0,0,0.691,button_right_main,0.361728395,-0.245679012,1,0,0,,0,96,96,68,1,VALLEY,C,old,m,./images/VALLEY.png,,,,,,,,,,,,,,,,,,,,,,,,,,,,,,,,,
,,,,,,,,,,,,,,,,,61494b2ba9fdd44794e4c5d3,61,2022-02-12_16h55.36.583,lexical_decision_task_DD_L5,2021.2.3,MacIntel,58.82352941,,,,,,,,,,0.759,1,,,,,,,,,,,,,,,0,-0.40617284,-0.269135802,1,0,0,0.759,button_left_main,-0.40617284,-0.269135802,1,0,0,,0,97,97,93,1,SMONE,C,old,z,./images/SMONE.png,,,,,,,,,,,,,,,,,,,,,,,,,,,,,,,,,
,,,,,,,,,,,,,,,,,61494b2ba9fdd44794e4c5d3,61,2022-02-12_16h55.36.583,lexical_decision_task_DD_L5,2021.2.3,MacIntel,58.82352941,,,,,,,,,,1.785,0,,,,,,,,,,,,,,,0,-0.396296296,-0.281481481,1,0,0,1.785,button_left_main,-0.396296296,-0.281481481,1,0,0,,0,98,98,36,1,BOILER,HB,old,m,./images/BOILERHB.png,,,,,,,,,,,,,,,,,,,,,,,,,,,,,,,,,
,,,,,,,,,,,,,,,,,61494b2ba9fdd44794e4c5d3,61,2022-02-12_16h55.36.583,lexical_decision_task_DD_L5,2021.2.3,MacIntel,58.82352941,,,,,,,,,,0.976,1,,,,,,,,,,,,,,,0,-0.397530864,-0.280246914,1,0,0,0.976,button_left_main,-0.397530864,-0.280246914,1,0,0,,0,99,99,95,1,HANTY,LB,old,z,./images/HANTYLB.png,,,,,,,,,,,,,,,,,,,,,,,,,,,,,,,,,
,,,,,,,,,,,,,,,,,61494b2ba9fdd44794e4c5d3,61,2022-02-12_16h55.36.583,lexical_decision_task_DD_L5,2021.2.3,MacIntel,58.82352941,,,,,,,,,,0.755,1,,,,,,,,,,,,,,,0,0.372839506,-0.243209877,1,0,0,0.755,button_right_main,0.372839506,-0.243209877,1,0,0,,0,100,100,11,1,MEDAL,C,old,m,./images/MEDAL.png,,,,,,,,,,,,,,,,,,,,,,,,,,,,,,,,,
,,,,,,,,,,,,,,,,,61494b2ba9fdd44794e4c5d3,61,2022-02-12_16h55.36.583,lexical_decision_task_DD_L5,2021.2.3,MacIntel,58.82352941,,,,,,,,,,1.909,1,,,,,,,,,,,,,,,0,0.371604938,-0.258024691,1,0,0,1.909,button_right_main,0.371604938,-0.258024691,1,0,0,,0,101,101,12,1,BLOKE,HB,old,m,./images/BLOKEHB.png,,,,,,,,,,,,,,,,,,,,,,,,,,,,,,,,,
,,,,,,,,,,,,,,,,,61494b2ba9fdd44794e4c5d3,61,2022-02-12_16h55.36.583,lexical_decision_task_DD_L5,2021.2.3,MacIntel,58.82352941,,,,,,,,,,0.724,1,,,,,,,,,,,,,,,0,0.374074074,-0.260493827,1,0,0,0.724,button_right_main,0.374074074,-0.260493827,1,0,0,,0,102,102,29,1,PISTOL,C,old,m,./images/PISTOL.png,,,,,,,,,,,,,,,,,,,,,,,,,,,,,,,,,
,,,,,,,,,,,,,,,,,61494b2ba9fdd44794e4c5d3,61,2022-02-12_16h55.36.583,lexical_decision_task_DD_L5,2021.2.3,MacIntel,58.82352941,,,,,,,,,,2.159,1,,,,,,,,,,,,,,,0,0.366666667,-0.254320988,1,0,0,2.159,button_right_main,0.366666667,-0.254320988,1,0,0,,0,103,103,60,1,CURRY,HB,old,m,./images/CURRYHB.png,,,,,,,,,,,,,,,,,,,,,,,,,,,,,,,,,
,,,,,,,,,,,,,,,,,61494b2ba9fdd44794e4c5d3,61,2022-02-12_16h55.36.583,lexical_decision_task_DD_L5,2021.2.3,MacIntel,58.82352941,,,,,,,,,,0.872,1,,,,,,,,,,,,,,,0,-0.402469136,-0.275308642,1,0,0,0.872,button_left_main,-0.402469136,-0.275308642,1,0,0,,0,104,104,100,1,DRIBS,HB,old,z,./images/DRIBSHB.png,,,,,,,,,,,,,,,,,,,,,,,,,,,,,,,,,
,,,,,,,,,,,,,,,,,61494b2ba9fdd44794e4c5d3,61,2022-02-12_16h55.36.583,lexical_decision_task_DD_L5,2021.2.3,MacIntel,58.82352941,,,,,,,,,,0.641,1,,,,,,,,,,,,,,,0,-0.407407407,-0.277777778,1,0,0,0.641,button_left_main,-0.407407407,-0.277777778,1,0,0,,0,105,105,111,1,HOSSE,C,old,z,./images/HOSSE.png,,,,,,,,,,,,,,,,,,,,,,,,,,,,,,,,,
,,,,,,,,,,,,,,,,,61494b2ba9fdd44794e4c5d3,61,2022-02-12_16h55.36.583,lexical_decision_task_DD_L5,2021.2.3,MacIntel,58.82352941,,,,,,,,,,1.305,1,,,,,,,,,,,,,,,0,-0.39382716,-0.280246914,1,0,0,1.305,button_left_main,-0.39382716,-0.280246914,1,0,0,,0,106,106,121,1,CEERS,HB,old,z,./images/CEERSHB.png,,,,,,,,,,,,,,,,,,,,,,,,,,,,,,,,,
,,,,,,,,,,,,,,,,,61494b2ba9fdd44794e4c5d3,61,2022-02-12_16h55.36.583,lexical_decision_task_DD_L5,2021.2.3,MacIntel,58.82352941,,,,,,,,,,0.923,1,,,,,,,,,,,,,,,0,0.367901235,-0.255555556,1,0,0,0.923,button_right_main,0.367901235,-0.255555556,1,0,0,,0,107,107,18,1,PARCEL,HB,old,m,./images/PARCELHB.png,,,,,,,,,,,,,,,,,,,,,,,,,,,,,,,,,
,,,,,,,,,,,,,,,,,61494b2ba9fdd44794e4c5d3,61,2022-02-12_16h55.36.583,lexical_decision_task_DD_L5,2021.2.3,MacIntel,58.82352941,,,,,,,,,,1.158,1,,,,,,,,,,,,,,,0,0.37037037,-0.251851852,1,0,0,1.158,button_right_main,0.37037037,-0.251851852,1,0,0,,0,108,108,54,1,CHERRY,HB,old,m,./images/CHERRYHB.png,,,,,,,,,,,,,,,,,,,,,,,,,,,,,,,,,
,,,,,,,,,,,,,,,,,61494b2ba9fdd44794e4c5d3,61,2022-02-12_16h55.36.583,lexical_decision_task_DD_L5,2021.2.3,MacIntel,58.82352941,,,,,,,,,,1.621,1,,,,,,,,,,,,,,,0,-0.386419753,-0.286419753,1,0,0,1.621,button_left_main,-0.386419753,-0.286419753,1,0,0,,0,109,109,142,1,PLASK,HB,old,z,./images/PLASKHB.png,,,,,,,,,,,,,,,,,,,,,,,,,,,,,,,,,
,,,,,,,,,,,,,,,,,61494b2ba9fdd44794e4c5d3,61,2022-02-12_16h55.36.583,lexical_decision_task_DD_L5,2021.2.3,MacIntel,58.82352941,,,,,,,,,,0.776,1,,,,,,,,,,,,,,,0,-0.407407407,-0.271604938,1,0,0,0.776,button_left_main,-0.407407407,-0.271604938,1,0,0,,0,110,110,149,1,VEASE,LB,old,z,./images/VEASELB.png,,,,,,,,,,,,,,,,,,,,,,,,,,,,,,,,,
,,,,,,,,,,,,,,,,,61494b2ba9fdd44794e4c5d3,61,2022-02-12_16h55.36.583,lexical_decision_task_DD_L5,2021.2.3,MacIntel,58.82352941,,,,,,,,,,0.76,1,,,,,,,,,,,,,,,0,0.365432099,-0.255555556,1,0,0,0.76,button_right_main,0.365432099,-0.255555556,1,0,0,,0,111,111,32,1,HOCKEY,C,old,m,./images/HOCKEY.png,,,,,,,,,,,,,,,,,,,,,,,,,,,,,,,,,
,,,,,,,,,,,,,,,,,61494b2ba9fdd44794e4c5d3,61,2022-02-12_16h55.36.583,lexical_decision_task_DD_L5,2021.2.3,MacIntel,58.82352941,,,,,,,,,,0.794,1,,,,,,,,,,,,,,,0,-0.392592593,-0.285185185,1,0,0,0.794,button_left_main,-0.392592593,-0.285185185,1,0,0,,0,112,112,113,1,LINEW,LB,old,z,./images/LINEWLB.png,,,,,,,,,,,,,,,,,,,,,,,,,,,,,,,,,
,,,,,,,,,,,,,,,,,61494b2ba9fdd44794e4c5d3,61,2022-02-12_16h55.36.583,lexical_decision_task_DD_L5,2021.2.3,MacIntel,58.82352941,,,,,,,,,,1.007,1,,,,,,,,,,,,,,,0,-0.388888889,-0.283950617,1,0,0,1.007,button_left_main,-0.388888889,-0.283950617,1,0,0,,0,113,113,124,1,TUNCH,HB,old,z,./images/TUNCHHB.png,,,,,,,,,,,,,,,,,,,,,,,,,,,,,,,,,
,,,,,,,,,,,,,,,,,61494b2ba9fdd44794e4c5d3,61,2022-02-12_16h55.36.583,lexical_decision_task_DD_L5,2021.2.3,MacIntel,58.82352941,,,,,,,,,,0.888,1,,,,,,,,,,,,,,,0,-0.413580247,-0.272839506,1,0,0,0.888,button_left_main,-0.413580247,-0.272839506,1,0,0,,0,114,114,155,1,CANGY,LB,old,z,./images/CANGYLB.png,,,,,,,,,,,,,,,,,,,,,,,,,,,,,,,,,
,,,,,,,,,,,,,,,,,61494b2ba9fdd44794e4c5d3,61,2022-02-12_16h55.36.583,lexical_decision_task_DD_L5,2021.2.3,MacIntel,58.82352941,,,,,,,,,,0.743,1,,,,,,,,,,,,,,,0,0.360493827,-0.259259259,1,0,0,0.743,button_right_main,0.360493827,-0.259259259,1,0,0,,0,115,115,52,1,DESERT,LB,old,m,./images/DESERTLB.png,,,,,,,,,,,,,,,,,,,,,,,,,,,,,,,,,
,,,,,,,,,,,,,,,,,61494b2ba9fdd44794e4c5d3,61,2022-02-12_16h55.36.583,lexical_decision_task_DD_L5,2021.2.3,MacIntel,58.82352941,,,,,,,,,,0.694,1,,,,,,,,,,,,,,,0,-0.408641975,-0.275308642,1,0,0,0.694,button_left_main,-0.408641975,-0.275308642,1,0,0,,0,116,116,135,1,JOODY,C,old,z,./images/JOODY.png,,,,,,,,,,,,,,,,,,,,,,,,,,,,,,,,,
,,,,,,,,,,,,,,,,,61494b2ba9fdd44794e4c5d3,61,2022-02-12_16h55.36.583,lexical_decision_task_DD_L5,2021.2.3,MacIntel,58.82352941,,,,,,,,,,1.173,1,,,,,,,,,,,,,,,0,-0.4,-0.287654321,1,0,0,1.173,button_left_main,-0.4,-0.287654321,1,0,0,,0,117,117,130,1,CRILL,HB,old,z,./images/CRILLHB.png,,,,,,,,,,,,,,,,,,,,,,,,,,,,,,,,,
,,,,,,,,,,,,,,,,,61494b2ba9fdd44794e4c5d3,61,2022-02-12_16h55.36.583,lexical_decision_task_DD_L5,2021.2.3,MacIntel,58.82352941,,,,,,,,,,0.975,1,,,,,,,,,,,,,,,0,-0.395061728,-0.286419753,1,0,0,0.975,button_left_main,-0.395061728,-0.286419753,1,0,0,,0,118,118,114,1,RIKES,C,old,z,./images/RIKES.png,,,,,,,,,,,,,,,,,,,,,,,,,,,,,,,,,
,,,,,,,,,,,,,,,,,61494b2ba9fdd44794e4c5d3,61,2022-02-12_16h55.36.583,lexical_decision_task_DD_L5,2021.2.3,MacIntel,58.82352941,,,,,,,,,,1.824,1,,,,,,,,,,,,,,,0,-0.404938272,-0.274074074,1,0,0,1.824,button_left_main,-0.404938272,-0.274074074,1,0,0,,0,119,119,157,1,INLER,HB,old,z,./images/INLERHB.png,,,,,,,,,,,,,,,,,,,,,,,,,,,,,,,,,
,,,,,,,,,,,,,,,,,61494b2ba9fdd44794e4c5d3,61,2022-02-12_16h55.36.583,lexical_decision_task_DD_L5,2021.2.3,MacIntel,58.82352941,,,,,,,,,,1.459,1,,,,,,,,,,,,,,,0,-0.387654321,-0.287654321,1,0,0,1.459,button_left_main,-0.387654321,-0.287654321,1,0,0,,0,120,120,136,1,WERVE,HB,old,z,./images/WERVEHB.png,,,,,,,,,,,,,,,,,,,,,,,,,,,,,,,,,
,,,,,,,,,,,,,,,,,61494b2ba9fdd44794e4c5d3,61,2022-02-12_16h55.36.583,lexical_decision_task_DD_L5,2021.2.3,MacIntel,58.82352941,,,,,,,,,,0.709,1,,,,,,,,,,,,,,,0,0.369135802,-0.250617284,1,0,0,0.709,button_right_main,0.369135802,-0.250617284,1,0,0,,0,121,121,17,1,PARADE,C,old,m,./images/PARADE.png,,,,,,,,,,,,,,,,,,,,,,,,,,,,,,,,,
,,,,,,,,,,,,,,,,,61494b2ba9fdd44794e4c5d3,61,2022-02-12_16h55.36.583,lexical_decision_task_DD_L5,2021.2.3,MacIntel,58.82352941,,,,,,,,,,0.658,1,,,,,,,,,,,,,,,0,0.372839506,-0.249382716,1,0,0,0.658,button_right_main,0.372839506,-0.249382716,1,0,0,,0,122,122,13,1,BUNNY,LB,old,m,./images/BUNNYLB.png,,,,,,,,,,,,,,,,,,,,,,,,,,,,,,,,,
,,,,,,,,,,,,,,,,,61494b2ba9fdd44794e4c5d3,61,2022-02-12_16h55.36.583,lexical_decision_task_DD_L5,2021.2.3,MacIntel,58.82352941,,,,,,,,,,0.775,1,,,,,,,,,,,,,,,0,-0.392592593,-0.285185185,1,0,0,0.775,button_left_main,-0.392592593,-0.285185185,1,0,0,,0,123,123,156,1,HIXES,C,old,z,./images/HIXES.png,,,,,,,,,,,,,,,,,,,,,,,,,,,,,,,,,
,,,,,,,,,,,,,,,,,61494b2ba9fdd44794e4c5d3,61,2022-02-12_16h55.36.583,lexical_decision_task_DD_L5,2021.2.3,MacIntel,58.82352941,,,,,,,,,,0.809,1,,,,,,,,,,,,,,,0,0.37654321,-0.248148148,1,0,0,0.809,button_right_main,0.37654321,-0.248148148,1,0,0,,0,124,124,79,1,RULER,LB,old,m,./images/RULERLB.png,,,,,,,,,,,,,,,,,,,,,,,,,,,,,,,,,
,,,,,,,,,,,,,,,,,61494b2ba9fdd44794e4c5d3,61,2022-02-12_16h55.36.583,lexical_decision_task_DD_L5,2021.2.3,MacIntel,58.82352941,,,,,,,,,,0.756,1,,,,,,,,,,,,,,,0,-0.403703704,-0.283950617,1,0,0,0.756,button_left_main,-0.008641975,-0.395061728,1,0,0,,0,125,125,161,1,BLAPS,LB,old,z,./images/BLAPSLB.png,break_done_button,,,,,,,,,,,,,,,,,,,,,,,,,,,,,,,,
,,,,,,,,,,,,,,,,,61494b2ba9fdd44794e4c5d3,61,2022-02-12_16h55.36.583,lexical_decision_task_DD_L5,2021.2.3,MacIntel,58.82352941,,,,,,,,,,1.539,1,,,,,,,,,,,,,,,0,-0.37037037,-0.292592593,1,0,0,1.539,button_left_main,-0.37037037,-0.292592593,1,0,0,,0,126,126,106,1,CLUMS,HB,old,z,./images/CLUMSHB.png,,,,,,,,,,,,,,,,,,,,,,,,,,,,,,,,,
,,,,,,,,,,,,,,,,,61494b2ba9fdd44794e4c5d3,61,2022-02-12_16h55.36.583,lexical_decision_task_DD_L5,2021.2.3,MacIntel,58.82352941,,,,,,,,,,0.643,1,,,,,,,,,,,,,,,0,0.335802469,-0.266666667,1,0,0,0.643,button_right_main,0.335802469,-0.266666667,1,0,0,,0,127,127,5,1,BAMBOO,C,old,m,./images/BAMBOO.png,,,,,,,,,,,,,,,,,,,,,,,,,,,,,,,,,
,,,,,,,,,,,,,,,,,61494b2ba9fdd44794e4c5d3,61,2022-02-12_16h55.36.583,lexical_decision_task_DD_L5,2021.2.3,MacIntel,58.82352941,,,,,,,,,,0.642,1,,,,,,,,,,,,,,,0,-0.4,-0.280246914,1,0,0,0.642,button_left_main,-0.4,-0.280246914,1,0,0,,0,128,128,150,1,NOOLS,C,old,z,./images/NOOLS.png,,,,,,,,,,,,,,,,,,,,,,,,,,,,,,,,,
,,,,,,,,,,,,,,,,,61494b2ba9fdd44794e4c5d3,61,2022-02-12_16h55.36.583,lexical_decision_task_DD_L5,2021.2.3,MacIntel,58.82352941,,,,,,,,,,0.594,1,,,,,,,,,,,,,,,0,-0.408641975,-0.27037037,1,0,0,0.594,button_left_main,-0.408641975,-0.27037037,1,0,0,,0,129,129,117,1,STEEG,C,old,z,./images/STEEG.png,,,,,,,,,,,,,,,,,,,,,,,,,,,,,,,,,
,,,,,,,,,,,,,,,,,61494b2ba9fdd44794e4c5d3,61,2022-02-12_16h55.36.583,lexical_decision_task_DD_L5,2021.2.3,MacIntel,58.82352941,,,,,,,,,,0.757,1,,,,,,,,,,,,,,,0,-0.40617284,-0.27037037,1,0,0,0.757,button_left_main,-0.40617284,-0.27037037,1,0,0,,0,130,130,110,1,CRUNK,LB,old,z,./images/CRUNKLB.png,,,,,,,,,,,,,,,,,,,,,,,,,,,,,,,,,
,,,,,,,,,,,,,,,,,61494b2ba9fdd44794e4c5d3,61,2022-02-12_16h55.36.583,lexical_decision_task_DD_L5,2021.2.3,MacIntel,58.82352941,,,,,,,,,,1.242,1,,,,,,,,,,,,,,,0,0.358024691,-0.262962963,1,0,0,1.242,button_right_main,0.358024691,-0.262962963,1,0,0,,0,131,131,24,1,FLESH,HB,old,m,./images/FLESHHB.png,,,,,,,,,,,,,,,,,,,,,,,,,,,,,,,,,
,,,,,,,,,,,,,,,,,61494b2ba9fdd44794e4c5d3,61,2022-02-12_16h55.36.583,lexical_decision_task_DD_L5,2021.2.3,MacIntel,58.82352941,,,,,,,,,,1.575,1,,,,,,,,,,,,,,,0,-0.4,-0.277777778,1,0,0,1.575,button_left_main,-0.4,-0.277777778,1,0,0,,0,132,132,154,1,THINT,HB,old,z,./images/THINTHB.png,,,,,,,,,,,,,,,,,,,,,,,,,,,,,,,,,
,,,,,,,,,,,,,,,,,61494b2ba9fdd44794e4c5d3,61,2022-02-12_16h55.36.583,lexical_decision_task_DD_L5,2021.2.3,MacIntel,58.82352941,,,,,,,,,,1.627,0,,,,,,,,,,,,,,,0,0.37037037,-0.249382716,1,0,0,1.627,button_right_main,0.37037037,-0.249382716,1,0,0,,0,133,133,123,1,SEDGE,C,old,z,./images/SEDGE.png,,,,,,,,,,,,,,,,,,,,,,,,,,,,,,,,,
,,,,,,,,,,,,,,,,,61494b2ba9fdd44794e4c5d3,61,2022-02-12_16h55.36.583,lexical_decision_task_DD_L5,2021.2.3,MacIntel,58.82352941,,,,,,,,,,0.66,1,,,,,,,,,,,,,,,0,0.37037037,-0.259259259,1,0,0,0.66,button_right_main,0.37037037,-0.259259259,1,0,0,,0,134,134,53,1,POSTER,C,old,m,./images/POSTER.png,,,,,,,,,,,,,,,,,,,,,,,,,,,,,,,,,
,,,,,,,,,,,,,,,,,61494b2ba9fdd44794e4c5d3,61,2022-02-12_16h55.36.583,lexical_decision_task_DD_L5,2021.2.3,MacIntel,58.82352941,,,,,,,,,,1.38,1,,,,,,,,,,,,,,,0,0.366666667,-0.251851852,1,0,0,1.38,button_right_main,0.366666667,-0.251851852,1,0,0,,0,135,135,33,1,SAUNA,HB,old,m,./images/SAUNAHB.png,,,,,,,,,,,,,,,,,,,,,,,,,,,,,,,,,
,,,,,,,,,,,,,,,,,61494b2ba9fdd44794e4c5d3,61,2022-02-12_16h55.36.583,lexical_decision_task_DD_L5,2021.2.3,MacIntel,58.82352941,,,,,,,,,,0.975,1,,,,,,,,,,,,,,,0,0.360493827,-0.258024691,1,0,0,0.975,button_right_main,0.360493827,-0.258024691,1,0,0,,0,136,136,66,1,STATUE,HB,old,m,./images/STATUEHB.png,,,,,,,,,,,,,,,,,,,,,,,,,,,,,,,,,
,,,,,,,,,,,,,,,,,61494b2ba9fdd44794e4c5d3,61,2022-02-12_16h55.36.583,lexical_decision_task_DD_L5,2021.2.3,MacIntel,58.82352941,,,,,,,,,,1.59,1,,,,,,,,,,,,,,,0,-0.371604938,-0.274074074,1,0,0,1.59,button_left_main,-0.371604938,-0.274074074,1,0,0,,0,137,137,127,1,NINDY,HB,old,z,./images/NINDYHB.png,,,,,,,,,,,,,,,,,,,,,,,,,,,,,,,,,
,,,,,,,,,,,,,,,,,61494b2ba9fdd44794e4c5d3,61,2022-02-12_16h55.36.583,lexical_decision_task_DD_L5,2021.2.3,MacIntel,58.82352941,,,,,,,,,,0.692,1,,,,,,,,,,,,,,,0,0.386419753,-0.235802469,1,0,0,0.692,button_right_main,0.386419753,-0.235802469,1,0,0,,0,138,138,58,1,CANOE,LB,old,m,./images/CANOELB.png,,,,,,,,,,,,,,,,,,,,,,,,,,,,,,,,,
,,,,,,,,,,,,,,,,,61494b2ba9fdd44794e4c5d3,61,2022-02-12_16h55.36.583,lexical_decision_task_DD_L5,2021.2.3,MacIntel,58.82352941,,,,,,,,,,1.657,1,,,,,,,,,,,,,,,0,-0.397530864,-0.266666667,1,0,0,1.657,button_left_main,-0.397530864,-0.266666667,1,0,0,,0,139,139,91,1,SHENS,HB,old,z,./images/SHENSHB.png,,,,,,,,,,,,,,,,,,,,,,,,,,,,,,,,,
,,,,,,,,,,,,,,,,,61494b2ba9fdd44794e4c5d3,61,2022-02-12_16h55.36.583,lexical_decision_task_DD_L5,2021.2.3,MacIntel,58.82352941,,,,,,,,,,1.034,1,,,,,,,,,,,,,,,0,-0.387654321,-0.280246914,1,0,0,1.034,button_left_main,-0.387654321,-0.280246914,1,0,0,,0,140,140,107,1,FASKS,LB,old,z,./images/FASKSLB.png,,,,,,,,,,,,,,,,,,,,,,,,,,,,,,,,,
,,,,,,,,,,,,,,,,,61494b2ba9fdd44794e4c5d3,61,2022-02-12_16h55.36.583,lexical_decision_task_DD_L5,2021.2.3,MacIntel,58.82352941,,,,,,,,,,0.922,1,,,,,,,,,,,,,,,0,0.381481481,-0.250617284,1,0,0,0.922,button_right_main,0.381481481,-0.250617284,1,0,0,,0,141,141,35,1,LLAMA,C,old,m,./images/LLAMA.png,,,,,,,,,,,,,,,,,,,,,,,,,,,,,,,,,
,,,,,,,,,,,,,,,,,61494b2ba9fdd44794e4c5d3,61,2022-02-12_16h55.36.583,lexical_decision_task_DD_L5,2021.2.3,MacIntel,58.82352941,,,,,,,,,,1.11,1,,,,,,,,,,,,,,,0,0.375308642,-0.249382716,1,0,0,1.11,button_right_main,0.375308642,-0.249382716,1,0,0,,0,142,142,9,1,DIVER,HB,old,m,./images/DIVERHB.png,,,,,,,,,,,,,,,,,,,,,,,,,,,,,,,,,
,,,,,,,,,,,,,,,,,61494b2ba9fdd44794e4c5d3,61,2022-02-12_16h55.36.583,lexical_decision_task_DD_L5,2021.2.3,MacIntel,58.82352941,,,,,,,,,,1.427,1,,,,,,,,,,,,,,,0,-0.364197531,-0.29382716,1,0,0,1.427,button_left_main,-0.364197531,-0.29382716,1,0,0,,0,143,143,103,1,FLORT,HB,old,z,./images/FLORTHB.png,,,,,,,,,,,,,,,,,,,,,,,,,,,,,,,,,
,,,,,,,,,,,,,,,,,61494b2ba9fdd44794e4c5d3,61,2022-02-12_16h55.36.583,lexical_decision_task_DD_L5,2021.2.3,MacIntel,58.82352941,,,,,,,,,,0.859,1,,,,,,,,,,,,,,,0,-0.40617284,-0.261728395,1,0,0,0.859,button_left_main,-0.40617284,-0.261728395,1,0,0,,0,144,144,146,1,MOOST,LB,old,z,./images/MOOSTLB.png,,,,,,,,,,,,,,,,,,,,,,,,,,,,,,,,,
,,,,,,,,,,,,,,,,,61494b2ba9fdd44794e4c5d3,61,2022-02-12_16h55.36.583,lexical_decision_task_DD_L5,2021.2.3,MacIntel,58.82352941,,,,,,,,,,2.341,0,,,,,,,,,,,,,,,0,-0.390123457,-0.267901235,1,0,0,2.341,button_left_main,-0.390123457,-0.267901235,1,0,0,,0,145,145,75,1,HAMMER,HB,old,m,./images/HAMMERHB.png,,,,,,,,,,,,,,,,,,,,,,,,,,,,,,,,,
,,,,,,,,,,,,,,,,,61494b2ba9fdd44794e4c5d3,61,2022-02-12_16h55.36.583,lexical_decision_task_DD_L5,2021.2.3,MacIntel,58.82352941,,,,,,,,,,0.81,1,,,,,,,,,,,,,,,0,-0.385185185,-0.272839506,1,0,0,0.81,button_left_main,-0.385185185,-0.272839506,1,0,0,,0,146,146,132,1,SCIFF,C,old,z,./images/SCIFF.png,,,,,,,,,,,,,,,,,,,,,,,,,,,,,,,,,
,,,,,,,,,,,,,,,,,61494b2ba9fdd44794e4c5d3,61,2022-02-12_16h55.36.583,lexical_decision_task_DD_L5,2021.2.3,MacIntel,58.82352941,,,,,,,,,,0.758,1,,,,,,,,,,,,,,,0,0.371604938,-0.259259259,1,0,0,0.758,button_right_main,0.371604938,-0.259259259,1,0,0,,0,147,147,76,1,MIDGET,LB,old,m,./images/MIDGETLB.png,,,,,,,,,,,,,,,,,,,,,,,,,,,,,,,,,
,,,,,,,,,,,,,,,,,61494b2ba9fdd44794e4c5d3,61,2022-02-12_16h55.36.583,lexical_decision_task_DD_L5,2021.2.3,MacIntel,58.82352941,,,,,,,,,,0.683,1,,,,,,,,,,,,,,,0,-0.395061728,-0.272839506,1,0,0,0.683,button_left_main,-0.395061728,-0.272839506,1,0,0,,0,148,148,120,1,RINED,C,old,z,./images/RINED.png,,,,,,,,,,,,,,,,,,,,,,,,,,,,,,,,,
,,,,,,,,,,,,,,,,,61494b2ba9fdd44794e4c5d3,61,2022-02-12_16h55.36.583,lexical_decision_task_DD_L5,2021.2.3,MacIntel,58.82352941,,,,,,,,,,0.908,1,,,,,,,,,,,,,,,0,-0.390123457,-0.27037037,1,0,0,0.908,button_left_main,-0.390123457,-0.27037037,1,0,0,,0,149,149,99,1,BACKY,C,old,z,./images/BACKY.png,,,,,,,,,,,,,,,,,,,,,,,,,,,,,,,,,
,,,,,,,,,,,,,,,,,61494b2ba9fdd44794e4c5d3,61,2022-02-12_16h55.36.583,lexical_decision_task_DD_L5,2021.2.3,MacIntel,58.82352941,,,,,,,,,,0.675,1,,,,,,,,,,,,,,,0,0.371604938,-0.256790123,1,0,0,0.675,button_right_main,0.371604938,-0.256790123,1,0,0,,0,150,150,26,1,CLOUD,C,old,m,./images/CLOUD.png,,,,,,,,,,,,,,,,,,,,,,,,,,,,,,,,,
,,,,,,,,,,,,,,,,,61494b2ba9fdd44794e4c5d3,61,2022-02-12_16h55.36.583,lexical_decision_task_DD_L5,2021.2.3,MacIntel,58.82352941,,,,,,,,,,0.748,1,,,,,,,,,,,,,,,0,0.374074074,-0.25308642,1,0,0,0.748,button_right_main,0.374074074,-0.25308642,1,0,0,,0,151,151,59,1,BRUSH,C,old,m,./images/BRUSH.png,,,,,,,,,,,,,,,,,,,,,,,,,,,,,,,,,
,,,,,,,,,,,,,,,,,61494b2ba9fdd44794e4c5d3,61,2022-02-12_16h55.36.583,lexical_decision_task_DD_L5,2021.2.3,MacIntel,58.82352941,,,,,,,,,,0.739,1,,,,,,,,,,,,,,,0,-0.388888889,-0.27654321,1,0,0,0.739,button_left_main,-0.388888889,-0.27654321,1,0,0,,0,152,152,116,1,BALGY,LB,old,z,./images/BALGYLB.png,,,,,,,,,,,,,,,,,,,,,,,,,,,,,,,,,
,,,,,,,,,,,,,,,,,61494b2ba9fdd44794e4c5d3,61,2022-02-12_16h55.36.583,lexical_decision_task_DD_L5,2021.2.3,MacIntel,58.82352941,,,,,,,,,,0.759,1,,,,,,,,,,,,,,,0,-0.401234568,-0.275308642,1,0,0,0.759,button_left_main,-0.401234568,-0.275308642,1,0,0,,0,153,153,141,1,PLEET,C,old,z,./images/PLEET.png,,,,,,,,,,,,,,,,,,,,,,,,,,,,,,,,,
,,,,,,,,,,,,,,,,,61494b2ba9fdd44794e4c5d3,61,2022-02-12_16h55.36.583,lexical_decision_task_DD_L5,2021.2.3,MacIntel,58.82352941,,,,,,,,,,0.644,1,,,,,,,,,,,,,,,0,-0.390123457,-0.283950617,1,0,0,0.644,button_left_main,-0.390123457,-0.283950617,1,0,0,,0,154,154,96,1,KEAMS,C,old,z,./images/KEAMS.png,,,,,,,,,,,,,,,,,,,,,,,,,,,,,,,,,
,,,,,,,,,,,,,,,,,61494b2ba9fdd44794e4c5d3,61,2022-02-12_16h55.36.583,lexical_decision_task_DD_L5,2021.2.3,MacIntel,58.82352941,,,,,,,,,,1.239,1,,,,,,,,,,,,,,,0,0.367901235,-0.264197531,1,0,0,1.239,button_right_main,0.367901235,-0.264197531,1,0,0,,0,155,155,78,1,BROOM,HB,old,m,./images/BROOMHB.png,,,,,,,,,,,,,,,,,,,,,,,,,,,,,,,,,
,,,,,,,,,,,,,,,,,61494b2ba9fdd44794e4c5d3,61,2022-02-12_16h55.36.583,lexical_decision_task_DD_L5,2021.2.3,MacIntel,58.82352941,,,,,,,,,,1.165,1,,,,,,,,,,,,,,,0,-0.380246914,-0.287654321,1,0,0,1.165,button_left_main,-0.380246914,-0.287654321,1,0,0,,0,156,156,85,1,CHULK,HB,old,z,./images/CHULKHB.png,,,,,,,,,,,,,,,,,,,,,,,,,,,,,,,,,
,,,,,,,,,,,,,,,,,61494b2ba9fdd44794e4c5d3,61,2022-02-12_16h55.36.583,lexical_decision_task_DD_L5,2021.2.3,MacIntel,58.82352941,,,,,,,,,,0.687,1,,,,,,,,,,,,,,,0,0.365432099,-0.259259259,1,0,0,0.687,button_right_main,0.365432099,-0.259259259,1,0,0,,0,157,157,49,1,BISHOP,LB,old,m,./images/BISHOPLB.png,,,,,,,,,,,,,,,,,,,,,,,,,,,,,,,,,
,,,,,,,,,,,,,,,,,61494b2ba9fdd44794e4c5d3,61,2022-02-12_16h55.36.583,lexical_decision_task_DD_L5,2021.2.3,MacIntel,58.82352941,,,,,,,,,,1.092,1,,,,,,,,,,,,,,,0,-0.385185185,-0.283950617,1,0,0,1.092,button_left_main,-0.385185185,-0.283950617,1,0,0,,0,158,158,88,1,GLUSH,HB,old,z,./images/GLUSHHB.png,,,,,,,,,,,,,,,,,,,,,,,,,,,,,,,,,
,,,,,,,,,,,,,,,,,61494b2ba9fdd44794e4c5d3,61,2022-02-12_16h55.36.583,lexical_decision_task_DD_L5,2021.2.3,MacIntel,58.82352941,,,,,,,,,,0.627,1,,,,,,,,,,,,,,,0,0.37037037,-0.254320988,1,0,0,0.627,button_right_main,0.37037037,-0.254320988,1,0,0,,0,159,159,50,1,PILOT,C,old,m,./images/PILOT.png,,,,,,,,,,,,,,,,,,,,,,,,,,,,,,,,,
,,,,,,,,,,,,,,,,,61494b2ba9fdd44794e4c5d3,61,2022-02-12_16h55.36.583,lexical_decision_task_DD_L5,2021.2.3,MacIntel,58.82352941,,,,,,,,,,1.038,1,,,,,,,,,,,,,,,0,0.358024691,-0.272839506,1,0,0,1.038,button_right_main,0.358024691,-0.272839506,1,0,0,,0,160,160,0,1,WALNUT,HB,old,m,./images/WALNUTHB.png,,,,,,,,,,,,,,,,,,,,,,,,,,,,,,,,,
,,,,,,,,,,,,,,,,,61494b2ba9fdd44794e4c5d3,61,2022-02-12_16h55.36.583,lexical_decision_task_DD_L5,2021.2.3,MacIntel,58.82352941,,,,,,,,,,0.727,1,,,,,,,,,,,,,,,0,-0.390123457,-0.279012346,1,0,0,0.727,button_left_main,-0.390123457,-0.279012346,1,0,0,,0,161,161,138,1,PLICE,C,old,z,./images/PLICE.png,,,,,,,,,,,,,,,,,,,,,,,,,,,,,,,,,
,,,,,,,,,,,,,,,,,61494b2ba9fdd44794e4c5d3,61,2022-02-12_16h55.36.583,lexical_decision_task_DD_L5,2021.2.3,MacIntel,58.82352941,,,,,,,,,,0.777,1,,,,,,,,,,,,,,,0,0.367901235,-0.266666667,1,0,0,0.777,button_right_main,0.367901235,-0.266666667,1,0,0,,0,162,162,28,1,CASINO,LB,old,m,./images/CASINOLB.png,,,,,,,,,,,,,,,,,,,,,,,,,,,,,,,,,
,,,,,,,,,,,,,,,,,61494b2ba9fdd44794e4c5d3,61,2022-02-12_16h55.36.583,lexical_decision_task_DD_L5,2021.2.3,MacIntel,58.82352941,,,,,,,,,,0.827,1,,,,,,,,,,,,,,,0,0.377777778,-0.267901235,1,0,0,0.827,button_right_main,0.377777778,-0.267901235,1,0,0,,0,163,163,82,1,PEBBLE,LB,old,m,./images/PEBBLELB.png,,,,,,,,,,,,,,,,,,,,,,,,,,,,,,,,,
,,,,,,,,,,,,,,,,,61494b2ba9fdd44794e4c5d3,61,2022-02-12_16h55.36.583,lexical_decision_task_DD_L5,2021.2.3,MacIntel,58.82352941,,,,,,,,,,1.007,1,,,,,,,,,,,,,,,0,-0.395061728,-0.275308642,1,0,0,1.007,button_left_main,-0.395061728,-0.275308642,1,0,0,,0,164,164,159,1,CUDDY,C,old,z,./images/CUDDY.png,,,,,,,,,,,,,,,,,,,,,,,,,,,,,,,,,
,,,,,,,,,,,,,,,,,61494b2ba9fdd44794e4c5d3,61,2022-02-12_16h55.36.583,lexical_decision_task_DD_L5,2021.2.3,MacIntel,58.82352941,,,,,,,,,,1.176,1,,,,,,,,,,,,,,,0,-0.39382716,-0.275308642,1,0,0,1.176,button_left_main,-0.39382716,-0.275308642,1,0,0,,0,165,165,148,1,JOMS,HB,old,z,./images/JOMSHB.png,,,,,,,,,,,,,,,,,,,,,,,,,,,,,,,,,
,,,,,,,,,,,,,,,,,61494b2ba9fdd44794e4c5d3,61,2022-02-12_16h55.36.583,lexical_decision_task_DD_L5,2021.2.3,MacIntel,58.82352941,,,,,,,,,,0.775,1,,,,,,,,,,,,,,,0,-0.411111111,-0.262962963,1,0,0,0.775,button_left_main,-0.411111111,-0.262962963,1,0,0,,0,166,166,152,1,FRAIN,LB,old,z,./images/FRAINLB.png,,,,,,,,,,,,,,,,,,,,,,,,,,,,,,,,,
,,,,,,,,,,,,,,,,,61494b2ba9fdd44794e4c5d3,61,2022-02-12_16h55.36.583,lexical_decision_task_DD_L5,2021.2.3,MacIntel,58.82352941,,,,,,,,,,0.593,1,,,,,,,,,,,,,,,0,0.369135802,-0.258024691,1,0,0,0.593,button_right_main,0.369135802,-0.258024691,1,0,0,,0,167,167,71,1,BUBBLE,C,old,m,./images/BUBBLE.png,,,,,,,,,,,,,,,,,,,,,,,,,,,,,,,,,
,,,,,,,,,,,,,,,,,61494b2ba9fdd44794e4c5d3,61,2022-02-12_16h55.36.583,lexical_decision_task_DD_L5,2021.2.3,MacIntel,58.82352941,,,,,,,,,,,,,,,,,,,,,,,,,,,,,,,,,,,,,,,,,,,,,,How likely will it be that you will recognize the words presented very blurred on a scale of 0 (not likely) to 100 (most likely)?,,,,,0.013580247,-0.40617284,1,0,0,jol_adv,4,9.281,0,0,0,2,1,,,,,,,,,,,,,,,,,,,
,,,,,,,,,,,,,,,,,61494b2ba9fdd44794e4c5d3,61,2022-02-12_16h55.36.583,lexical_decision_task_DD_L5,2021.2.3,MacIntel,58.82352941,,,,,,,,,,,,,,,,,,,,,,,,,,,,,,,,,,,,,,,,,,,,,,How likely will it be that you will recognize the words presented clearly on a scale of 0 (not likely) to 100 (most likely)?,,,,,,,,,,,5,4.594,0,1,1,0,1,,,,,,,,,,,,,,,,,,,
,,,,,,,,,,,,,,,,,61494b2ba9fdd44794e4c5d3,61,2022-02-12_16h55.36.583,lexical_decision_task_DD_L5,2021.2.3,MacIntel,58.82352941,,,,,,,,,,,,,,,,,,,,,,,,,,,,,,,,,,,,,,,,,,,,,,How likely will it be that you will recognize the words presented slighly blurred on a scale of 0 (not likely) to 100 (most likely)?,,,,,,,,,,,4,1.496,0,2,2,1,1,,,,,,,,,,,,,,,,,,,
,-0.008641975,-0.383950617,1,0,0,instr_done_button,,,,,,1,test,"In the next phase you will be presented with the words from the the first phase. Your job is to decide whether you remember seeing the word or not. If you remember seeing the word press ""old"" or type ""m"". If you do not remember seeing the word press ""new"" or type ""z"". Please press the space bar or click on continue to begin. ",,,61494b2ba9fdd44794e4c5d3,61,2022-02-12_16h55.36.583,lexical_decision_task_DD_L5,2021.2.3,MacIntel,58.82352941,,,,,,,,,,,,,,,,,,,,,,,,,,,,,,,,,,,,,,,,,,,,,,,,,,,,,,,,,,,,,,,,0,0,0,0,1,,,,,,,,,,,,,,
,-0.022222222,-0.381481481,1,0,0,instr_done_button,,,,,,1,test,"In the next phase you will be presented with the words from the the first phase. Your job is to decide whether you remember seeing the word or not. If you remember seeing the word press ""old"" or type ""m"". If you do not remember seeing the word press ""new"" or type ""z"". Please press the space bar or click on continue to begin. ",,,61494b2ba9fdd44794e4c5d3,61,2022-02-12_16h55.36.583,lexical_decision_task_DD_L5,2021.2.3,MacIntel,58.82352941,,,,,,,,,,,,,,,,,,,,,,,,,,,,,,,,,,,,,,,,,,,,,,,,,,,,,,,,,,,,,,,,1,0,1,0,1,,,,,,,,,,,,,,
,0.00617284,-0.377777778,1,0,0,instr_done_button,,,,,,1,test,"In the next phase you will be presented with the words from the the first phase. Your job is to decide whether you remember seeing the word or not. If you remember seeing the word press ""old"" or type ""m"". If you do not remember seeing the word press ""new"" or type ""z"". Please press the space bar or click on continue to begin. ",,,61494b2ba9fdd44794e4c5d3,61,2022-02-12_16h55.36.583,lexical_decision_task_DD_L5,2021.2.3,MacIntel,58.82352941,,,,,,,,,,,,,,,,,,,,,,,,,,,,,,,,,,,,,,,,,,,,,,,,,,,,,,,,,,,,,,,,2,0,2,0,1,,,,,,,,,,,,,,
,-0.001234568,-0.396296296,1,0,0,instr_done_button,,,,,,1,test,"In the next phase you will be presented with the words from the the first phase. Your job is to decide whether you remember seeing the word or not. If you remember seeing the word press ""old"" or type ""m"". If you do not remember seeing the word press ""new"" or type ""z"". Please press the space bar or click on continue to begin. ",,,61494b2ba9fdd44794e4c5d3,61,2022-02-12_16h55.36.583,lexical_decision_task_DD_L5,2021.2.3,MacIntel,58.82352941,,,,,,,,,,,,,,,,,,,,,,,,,,,,,,,,,,,,,,,,,,,,,,,,,,,,,,,,,,,,,,,,3,0,3,0,1,,,,,,,,,,,,,,
,0.012345679,-0.396296296,1,0,0,instr_done_button,,,,,,1,test,"In the next phase you will be presented with the words from the the first phase. Your job is to decide whether you remember seeing the word or not. If you remember seeing the word press ""old"" or type ""m"". If you do not remember seeing the word press ""new"" or type ""z"". Please press the space bar or click on continue to begin. ",,,61494b2ba9fdd44794e4c5d3,61,2022-02-12_16h55.36.583,lexical_decision_task_DD_L5,2021.2.3,MacIntel,58.82352941,,,,,,,,,,,,,,,,,,,,,,,,,,,,,,,,,,,,,,,,,,,,,,,,,,,,,,,,,,,,,,,,4,0,4,0,1,,,,,,,,,,,,,,
,,,,,,,,,,,,,,,,,61494b2ba9fdd44794e4c5d3,61,2022-02-12_16h55.36.583,lexical_decision_task_DD_L5,2021.2.3,MacIntel,58.82352941,,,,,,,,,,2.687,1,,,,,,,,,,,,,,,,,,,,,,,-0.390123457,-0.292592593,1,0,0,,,,,,,NOOSE,HB,z,y,./images/NOOSEHB.png,,,,,,,,,,,,,,,,,,,,,0,-0.390123457,-0.292592593,1,0,0,2.687,button_left_test,0,0,0,156,1
,,,,,,,,,,,,,,,,,61494b2ba9fdd44794e4c5d3,61,2022-02-12_16h55.36.583,lexical_decision_task_DD_L5,2021.2.3,MacIntel,58.82352941,,,,,,,,,,1.27,1,,,,,,,,,,,,,,,,,,,,,,,-0.392592593,-0.296296296,1,0,0,,,,,,,DOUGH,LB,z,y,./images/DOUGHLB.png,,,,,,,,,,,,,,,,,,,,,0,-0.392592593,-0.296296296,1,0,0,1.27,button_left_test,0,1,1,103,1
,,,,,,,,,,,,,,,,,61494b2ba9fdd44794e4c5d3,61,2022-02-12_16h55.36.583,lexical_decision_task_DD_L5,2021.2.3,MacIntel,58.82352941,,,,,,,,,,0.808,1,,,,,,,,,,,,,,,,,,,,,,,-0.39382716,-0.288888889,1,0,0,,,,,,,BIRTH,LB,z,y,./images/BIRTHLB.png,,,,,,,,,,,,,,,,,,,,,0,-0.39382716,-0.288888889,1,0,0,0.808,button_left_test,0,2,2,121,1
,,,,,,,,,,,,,,,,,61494b2ba9fdd44794e4c5d3,61,2022-02-12_16h55.36.583,lexical_decision_task_DD_L5,2021.2.3,MacIntel,58.82352941,,,,,,,,,,1.224,1,,,,,,,,,,,,,,,,,,,,,,,-0.381481481,-0.296296296,1,0,0,,,,,,,LADDER,C,z,y,./images/LADDER.png,,,,,,,,,,,,,,,,,,,,,0,-0.381481481,-0.296296296,1,0,0,1.224,button_left_test,0,3,3,122,1
,,,,,,,,,,,,,,,,,61494b2ba9fdd44794e4c5d3,61,2022-02-12_16h55.36.583,lexical_decision_task_DD_L5,2021.2.3,MacIntel,58.82352941,,,,,,,,,,0.757,1,,,,,,,,,,,,,,,,,,,,,,,0.402469136,-0.258024691,1,0,0,,,,,,,MAMMAL,C,m,y,./images/MAMMAL.png,,,,,,,,,,,,,,,,,,,,,0,0.402469136,-0.258024691,1,0,0,0.757,button_right_test,0,4,4,62,1
,,,,,,,,,,,,,,,,,61494b2ba9fdd44794e4c5d3,61,2022-02-12_16h55.36.583,lexical_decision_task_DD_L5,2021.2.3,MacIntel,58.82352941,,,,,,,,,,1.041,1,,,,,,,,,,,,,,,,,,,,,,,0.396296296,-0.261728395,1,0,0,,,,,,,ARTIST,LB,m,y,./images/ARTISTLB.png,,,,,,,,,,,,,,,,,,,,,0,0.396296296,-0.261728395,1,0,0,1.041,button_right_test,0,5,5,61,1
,,,,,,,,,,,,,,,,,61494b2ba9fdd44794e4c5d3,61,2022-02-12_16h55.36.583,lexical_decision_task_DD_L5,2021.2.3,MacIntel,58.82352941,,,,,,,,,,0.724,1,,,,,,,,,,,,,,,,,,,,,,,0.398765432,-0.272839506,1,0,0,,,,,,,SNAKE,LB,m,y,./images/SNAKELB.png,,,,,,,,,,,,,,,,,,,,,0,0.398765432,-0.272839506,1,0,0,0.724,button_right_test,0,6,6,40,1
,,,,,,,,,,,,,,,,,61494b2ba9fdd44794e4c5d3,61,2022-02-12_16h55.36.583,lexical_decision_task_DD_L5,2021.2.3,MacIntel,58.82352941,,,,,,,,,,1.004,1,,,,,,,,,,,,,,,,,,,,,,,-0.388888889,-0.302469136,1,0,0,,,,,,,SQUARE,HB,z,y,./images/SQUAREHB.png,,,,,,,,,,,,,,,,,,,,,0,-0.388888889,-0.302469136,1,0,0,1.004,button_left_test,0,7,7,90,1
,,,,,,,,,,,,,,,,,61494b2ba9fdd44794e4c5d3,61,2022-02-12_16h55.36.583,lexical_decision_task_DD_L5,2021.2.3,MacIntel,58.82352941,,,,,,,,,,1.433,1,,,,,,,,,,,,,,,,,,,,,,,-0.402469136,-0.281481481,1,0,0,,,,,,,TORCH,C,z,y,./images/TORCH.png,,,,,,,,,,,,,,,,,,,,,0,-0.402469136,-0.281481481,1,0,0,1.433,button_left_test,0,8,8,152,1
,,,,,,,,,,,,,,,,,61494b2ba9fdd44794e4c5d3,61,2022-02-12_16h55.36.583,lexical_decision_task_DD_L5,2021.2.3,MacIntel,58.82352941,,,,,,,,,,1.373,1,,,,,,,,,,,,,,,,,,,,,,,-0.403703704,-0.286419753,1,0,0,,,,,,,PEARL,LB,z,y,./images/PEARLLB.png,,,,,,,,,,,,,,,,,,,,,0,-0.403703704,-0.286419753,1,0,0,1.373,button_left_test,0,9,9,130,1
,,,,,,,,,,,,,,,,,61494b2ba9fdd44794e4c5d3,61,2022-02-12_16h55.36.583,lexical_decision_task_DD_L5,2021.2.3,MacIntel,58.82352941,,,,,,,,,,0.999,1,,,,,,,,,,,,,,,,,,,,,,,0.390123457,-0.280246914,1,0,0,,,,,,,TOWEL,LB,m,y,./images/TOWELLB.png,,,,,,,,,,,,,,,,,,,,,0,0.390123457,-0.280246914,1,0,0,0.999,button_right_test,0,10,10,1,1
,,,,,,,,,,,,,,,,,61494b2ba9fdd44794e4c5d3,61,2022-02-12_16h55.36.583,lexical_decision_task_DD_L5,2021.2.3,MacIntel,58.82352941,,,,,,,,,,1.422,1,,,,,,,,,,,,,,,,,,,,,,,-0.404938272,-0.266666667,1,0,0,,,,,,,FOLDER,HB,z,y,./images/FOLDERHB.png,,,,,,,,,,,,,,,,,,,,,0,-0.404938272,-0.266666667,1,0,0,1.422,button_left_test,0,11,11,126,1
,,,,,,,,,,,,,,,,,61494b2ba9fdd44794e4c5d3,61,2022-02-12_16h55.36.583,lexical_decision_task_DD_L5,2021.2.3,MacIntel,58.82352941,,,,,,,,,,1.271,1,,,,,,,,,,,,,,,,,,,,,,,-0.40617284,-0.304938272,1,0,0,,,,,,,MUSCLE,LB,z,y,./images/MUSCLELB.png,,,,,,,,,,,,,,,,,,,,,0,-0.40617284,-0.304938272,1,0,0,1.271,button_left_test,0,12,12,88,1
,,,,,,,,,,,,,,,,,61494b2ba9fdd44794e4c5d3,61,2022-02-12_16h55.36.583,lexical_decision_task_DD_L5,2021.2.3,MacIntel,58.82352941,,,,,,,,,,0.667,1,,,,,,,,,,,,,,,,,,,,,,,0.398765432,-0.27037037,1,0,0,,,,,,,GARDEN,LB,m,y,./images/GARDENLB.png,,,,,,,,,,,,,,,,,,,,,0,0.398765432,-0.27037037,1,0,0,0.667,button_right_test,0,13,13,10,1
,,,,,,,,,,,,,,,,,61494b2ba9fdd44794e4c5d3,61,2022-02-12_16h55.36.583,lexical_decision_task_DD_L5,2021.2.3,MacIntel,58.82352941,,,,,,,,,,1.074,1,,,,,,,,,,,,,,,,,,,,,,,-0.404938272,-0.287654321,1,0,0,,,,,,,TRIPOD,HB,z,y,./images/TRIPODHB.png,,,,,,,,,,,,,,,,,,,,,0,-0.404938272,-0.287654321,1,0,0,1.074,button_left_test,0,14,14,138,1
,,,,,,,,,,,,,,,,,61494b2ba9fdd44794e4c5d3,61,2022-02-12_16h55.36.583,lexical_decision_task_DD_L5,2021.2.3,MacIntel,58.82352941,,,,,,,,,,0.69,1,,,,,,,,,,,,,,,,,,,,,,,0.398765432,-0.271604938,1,0,0,,,,,,,STATUE,HB,m,y,./images/STATUEHB.png,,,,,,,,,,,,,,,,,,,,,0,0.398765432,-0.271604938,1,0,0,0.69,button_right_test,0,15,15,66,1
,,,,,,,,,,,,,,,,,61494b2ba9fdd44794e4c5d3,61,2022-02-12_16h55.36.583,lexical_decision_task_DD_L5,2021.2.3,MacIntel,58.82352941,,,,,,,,,,1.059,1,,,,,,,,,,,,,,,,,,,,,,,-0.392592593,-0.277777778,1,0,0,,,,,,,PIMPLE,C,z,y,./images/PIMPLE.png,,,,,,,,,,,,,,,,,,,,,0,-0.392592593,-0.277777778,1,0,0,1.059,button_left_test,0,16,16,155,1
,,,,,,,,,,,,,,,,,61494b2ba9fdd44794e4c5d3,61,2022-02-12_16h55.36.583,lexical_decision_task_DD_L5,2021.2.3,MacIntel,58.82352941,,,,,,,,,,0.971,1,,,,,,,,,,,,,,,,,,,,,,,0.386419753,-0.266666667,1,0,0,,,,,,,FLASK,HB,m,y,./images/FLASKHB.png,,,,,,,,,,,,,,,,,,,,,0,0.386419753,-0.266666667,1,0,0,0.971,button_right_test,0,17,17,72,1
,,,,,,,,,,,,,,,,,61494b2ba9fdd44794e4c5d3,61,2022-02-12_16h55.36.583,lexical_decision_task_DD_L5,2021.2.3,MacIntel,58.82352941,,,,,,,,,,1.471,1,,,,,,,,,,,,,,,,,,,,,,,-0.40617284,-0.29382716,1,0,0,,,,,,,SUNSET,LB,z,y,./images/SUNSETLB.png,,,,,,,,,,,,,,,,,,,,,0,-0.40617284,-0.29382716,1,0,0,1.471,button_left_test,0,18,18,166,1
,,,,,,,,,,,,,,,,,61494b2ba9fdd44794e4c5d3,61,2022-02-12_16h55.36.583,lexical_decision_task_DD_L5,2021.2.3,MacIntel,58.82352941,,,,,,,,,,1.392,1,,,,,,,,,,,,,,,,,,,,,,,-0.408641975,-0.279012346,1,0,0,,,,,,,CRUMB,C,z,y,./images/CRUMB.png,,,,,,,,,,,,,,,,,,,,,0,-0.408641975,-0.279012346,1,0,0,1.392,button_left_test,0,19,19,113,1
,,,,,,,,,,,,,,,,,61494b2ba9fdd44794e4c5d3,61,2022-02-12_16h55.36.583,lexical_decision_task_DD_L5,2021.2.3,MacIntel,58.82352941,,,,,,,,,,0.708,1,,,,,,,,,,,,,,,,,,,,,,,0.397530864,-0.266666667,1,0,0,,,,,,,BLOKE,HB,m,y,./images/BLOKEHB.png,,,,,,,,,,,,,,,,,,,,,0,0.397530864,-0.266666667,1,0,0,0.708,button_right_test,0,20,20,12,1
,,,,,,,,,,,,,,,,,61494b2ba9fdd44794e4c5d3,61,2022-02-12_16h55.36.583,lexical_decision_task_DD_L5,2021.2.3,MacIntel,58.82352941,,,,,,,,,,0.84,1,,,,,,,,,,,,,,,,,,,,,,,0.39382716,-0.264197531,1,0,0,,,,,,,CHERRY,HB,m,y,./images/CHERRYHB.png,,,,,,,,,,,,,,,,,,,,,0,0.39382716,-0.264197531,1,0,0,0.84,button_right_test,0,21,21,54,1
,,,,,,,,,,,,,,,,,61494b2ba9fdd44794e4c5d3,61,2022-02-12_16h55.36.583,lexical_decision_task_DD_L5,2021.2.3,MacIntel,58.82352941,,,,,,,,,,0.622,1,,,,,,,,,,,,,,,,,,,,,,,0.388888889,-0.265432099,1,0,0,,,,,,,BANANA,LB,m,y,./images/BANANALB.png,,,,,,,,,,,,,,,,,,,,,0,0.388888889,-0.265432099,1,0,0,0.622,button_right_test,0,22,22,70,1
,,,,,,,,,,,,,,,,,61494b2ba9fdd44794e4c5d3,61,2022-02-12_16h55.36.583,lexical_decision_task_DD_L5,2021.2.3,MacIntel,58.82352941,,,,,,,,,,1.191,1,,,,,,,,,,,,,,,,,,,,,,,-0.359259259,-0.291358025,1,0,0,,,,,,,BONNET,C,z,y,./images/BONNET.png,,,,,,,,,,,,,,,,,,,,,0,-0.359259259,-0.291358025,1,0,0,1.191,button_left_test,0,23,23,95,1
,,,,,,,,,,,,,,,,,61494b2ba9fdd44794e4c5d3,61,2022-02-12_16h55.36.583,lexical_decision_task_DD_L5,2021.2.3,MacIntel,58.82352941,,,,,,,,,,1.092,1,,,,,,,,,,,,,,,,,,,,,,,-0.40617284,-0.272839506,1,0,0,,,,,,,SPORT,HB,z,y,./images/SPORTHB.png,,,,,,,,,,,,,,,,,,,,,0,-0.40617284,-0.272839506,1,0,0,1.092,button_left_test,0,24,24,132,1
,,,,,,,,,,,,,,,,,61494b2ba9fdd44794e4c5d3,61,2022-02-12_16h55.36.583,lexical_decision_task_DD_L5,2021.2.3,MacIntel,58.82352941,,,,,,,,,,0.776,1,,,,,,,,,,,,,,,,,,,,,,,0.388888889,-0.260493827,1,0,0,,,,,,,CHALK,LB,m,y,./images/CHALKLB.png,,,,,,,,,,,,,,,,,,,,,0,0.388888889,-0.260493827,1,0,0,0.776,button_right_test,0,25,25,25,1
,,,,,,,,,,,,,,,,,61494b2ba9fdd44794e4c5d3,61,2022-02-12_16h55.36.583,lexical_decision_task_DD_L5,2021.2.3,MacIntel,58.82352941,,,,,,,,,,0.942,1,,,,,,,,,,,,,,,,,,,,,,,-0.385185185,-0.285185185,1,0,0,,,,,,,TOMATO,HB,z,y,./images/TOMATOHB.png,,,,,,,,,,,,,,,,,,,,,0,-0.385185185,-0.285185185,1,0,0,0.942,button_left_test,0,26,26,84,1
,,,,,,,,,,,,,,,,,61494b2ba9fdd44794e4c5d3,61,2022-02-12_16h55.36.583,lexical_decision_task_DD_L5,2021.2.3,MacIntel,58.82352941,,,,,,,,,,0.888,1,,,,,,,,,,,,,,,,,,,,,,,0.381481481,-0.251851852,1,0,0,,,,,,,DANCER,HB,m,y,./images/DANCERHB.png,,,,,,,,,,,,,,,,,,,,,0,0.381481481,-0.251851852,1,0,0,0.888,button_right_test,0,27,27,21,1
,,,,,,,,,,,,,,,,,61494b2ba9fdd44794e4c5d3,61,2022-02-12_16h55.36.583,lexical_decision_task_DD_L5,2021.2.3,MacIntel,58.82352941,,,,,,,,,,0.691,1,,,,,,,,,,,,,,,,,,,,,,,0.390123457,-0.258024691,1,0,0,,,,,,,BASKET,C,m,y,./images/BASKET.png,,,,,,,,,,,,,,,,,,,,,0,0.390123457,-0.258024691,1,0,0,0.691,button_right_test,0,28,28,44,1
,,,,,,,,,,,,,,,,,61494b2ba9fdd44794e4c5d3,61,2022-02-12_16h55.36.583,lexical_decision_task_DD_L5,2021.2.3,MacIntel,58.82352941,,,,,,,,,,0.918,1,,,,,,,,,,,,,,,,,,,,,,,-0.367901235,-0.285185185,1,0,0,,,,,,,FALCON,LB,z,y,./images/FALCONLB.png,,,,,,,,,,,,,,,,,,,,,0,-0.367901235,-0.285185185,1,0,0,0.918,button_left_test,0,29,29,112,1
,,,,,,,,,,,,,,,,,61494b2ba9fdd44794e4c5d3,61,2022-02-12_16h55.36.583,lexical_decision_task_DD_L5,2021.2.3,MacIntel,58.82352941,,,,,,,,,,0.759,1,,,,,,,,,,,,,,,,,,,,,,,0.390123457,-0.262962963,1,0,0,,,,,,,MUMMY,LB,m,y,./images/MUMMYLB.png,,,,,,,,,,,,,,,,,,,,,0,0.390123457,-0.262962963,1,0,0,0.759,button_right_test,0,30,30,46,1
,,,,,,,,,,,,,,,,,61494b2ba9fdd44794e4c5d3,61,2022-02-12_16h55.36.583,lexical_decision_task_DD_L5,2021.2.3,MacIntel,58.82352941,,,,,,,,,,0.943,1,,,,,,,,,,,,,,,,,,,,,,,0.401234568,-0.255555556,1,0,0,,,,,,,SLOPE,HB,m,y,./images/SLOPEHB.png,,,,,,,,,,,,,,,,,,,,,0,0.401234568,-0.255555556,1,0,0,0.943,button_right_test,0,31,31,30,1
,,,,,,,,,,,,,,,,,61494b2ba9fdd44794e4c5d3,61,2022-02-12_16h55.36.583,lexical_decision_task_DD_L5,2021.2.3,MacIntel,58.82352941,,,,,,,,,,1.077,1,,,,,,,,,,,,,,,,,,,,,,,-0.372839506,-0.288888889,1,0,0,,,,,,,MELON,LB,z,y,./images/MELONLB.png,,,,,,,,,,,,,,,,,,,,,0,-0.372839506,-0.288888889,1,0,0,1.077,button_left_test,0,32,32,106,1
,,,,,,,,,,,,,,,,,61494b2ba9fdd44794e4c5d3,61,2022-02-12_16h55.36.583,lexical_decision_task_DD_L5,2021.2.3,MacIntel,58.82352941,,,,,,,,,,0.889,1,,,,,,,,,,,,,,,,,,,,,,,-0.354320988,-0.3,1,0,0,,,,,,,DRUMS,LB,z,y,./images/DRUMSLB.png,,,,,,,,,,,,,,,,,,,,,0,-0.354320988,-0.3,1,0,0,0.889,button_left_test,0,33,33,133,1
,,,,,,,,,,,,,,,,,61494b2ba9fdd44794e4c5d3,61,2022-02-12_16h55.36.583,lexical_decision_task_DD_L5,2021.2.3,MacIntel,58.82352941,,,,,,,,,,0.896,1,,,,,,,,,,,,,,,,,,,,,,,0.391358025,-0.258024691,1,0,0,,,,,,,STOVE,C,m,y,./images/STOVE.png,,,,,,,,,,,,,,,,,,,,,0,0.391358025,-0.258024691,1,0,0,0.896,button_right_test,0,34,34,2,1
,,,,,,,,,,,,,,,,,61494b2ba9fdd44794e4c5d3,61,2022-02-12_16h55.36.583,lexical_decision_task_DD_L5,2021.2.3,MacIntel,58.82352941,,,,,,,,,,0.958,1,,,,,,,,,,,,,,,,,,,,,,,-0.366666667,-0.297530864,1,0,0,,,,,,,RHINO,HB,z,y,./images/RHINOHB.png,,,,,,,,,,,,,,,,,,,,,0,-0.366666667,-0.297530864,1,0,0,0.958,button_left_test,0,35,35,93,1
,,,,,,,,,,,,,,,,,61494b2ba9fdd44794e4c5d3,61,2022-02-12_16h55.36.583,lexical_decision_task_DD_L5,2021.2.3,MacIntel,58.82352941,,,,,,,,,,1.677,1,,,,,,,,,,,,,,,,,,,,,,,-0.375308642,-0.303703704,1,0,0,,,,,,,PEACH,C,z,y,./images/PEACH.png,,,,,,,,,,,,,,,,,,,,,0,-0.375308642,-0.303703704,1,0,0,1.677,button_left_test,0,36,36,119,1
,,,,,,,,,,,,,,,,,61494b2ba9fdd44794e4c5d3,61,2022-02-12_16h55.36.583,lexical_decision_task_DD_L5,2021.2.3,MacIntel,58.82352941,,,,,,,,,,0.689,1,,,,,,,,,,,,,,,,,,,,,,,0.381481481,-0.245679012,1,0,0,,,,,,,HOCKEY,C,m,y,./images/HOCKEY.png,,,,,,,,,,,,,,,,,,,,,0,0.381481481,-0.245679012,1,0,0,0.689,button_right_test,0,37,37,32,1
,,,,,,,,,,,,,,,,,61494b2ba9fdd44794e4c5d3,61,2022-02-12_16h55.36.583,lexical_decision_task_DD_L5,2021.2.3,MacIntel,58.82352941,,,,,,,,,,1.274,1,,,,,,,,,,,,,,,,,,,,,,,-0.361728395,-0.285185185,1,0,0,,,,,,,PACKET,C,z,y,./images/PACKET.png,,,,,,,,,,,,,,,,,,,,,0,-0.361728395,-0.285185185,1,0,0,1.274,button_left_test,0,38,38,140,1
,,,,,,,,,,,,,,,,,61494b2ba9fdd44794e4c5d3,61,2022-02-12_16h55.36.583,lexical_decision_task_DD_L5,2021.2.3,MacIntel,58.82352941,,,,,,,,,,1.524,0,,,,,,,,,,,,,,,,,,,,,,,0.37037037,-0.261728395,1,0,0,,,,,,,CRUST,LB,z,y,./images/CRUSTLB.png,,,,,,,,,,,,,,,,,,,,,0,0.37037037,-0.261728395,1,0,0,1.524,button_right_test,0,39,39,163,1
,,,,,,,,,,,,,,,,,61494b2ba9fdd44794e4c5d3,61,2022-02-12_16h55.36.583,lexical_decision_task_DD_L5,2021.2.3,MacIntel,58.82352941,,,,,,,,,,0.993,1,,,,,,,,,,,,,,,,,,,,,,,-0.349382716,-0.295061728,1,0,0,,,,,,,FARMER,C,z,y,./images/FARMER.png,,,,,,,,,,,,,,,,,,,,,0,-0.349382716,-0.295061728,1,0,0,0.993,button_left_test,0,40,40,149,1
,,,,,,,,,,,,,,,,,61494b2ba9fdd44794e4c5d3,61,2022-02-12_16h55.36.583,lexical_decision_task_DD_L5,2021.2.3,MacIntel,58.82352941,,,,,,,,,,0.789,1,,,,,,,,,,,,,,,,,,,,,,,0.009876543,-0.371604938,1,0,0,,,,,,,SHIELD,HB,m,y,./images/SHIELDHB.png,break_done_button,,,,,,,,,,,,,,,,,,,,0,0.382716049,-0.250617284,1,0,0,0.789,button_right_test,0,41,41,48,1
,,,,,,,,,,,,,,,,,61494b2ba9fdd44794e4c5d3,61,2022-02-12_16h55.36.583,lexical_decision_task_DD_L5,2021.2.3,MacIntel,58.82352941,,,,,,,,,,1.291,1,,,,,,,,,,,,,,,,,,,,,,,0.387654321,-0.279012346,1,0,0,,,,,,,WAGON,LB,m,y,./images/WAGONLB.png,,,,,,,,,,,,,,,,,,,,,0,0.387654321,-0.279012346,1,0,0,1.291,button_right_test,0,42,42,7,1
,,,,,,,,,,,,,,,,,61494b2ba9fdd44794e4c5d3,61,2022-02-12_16h55.36.583,lexical_decision_task_DD_L5,2021.2.3,MacIntel,58.82352941,,,,,,,,,,1.04,1,,,,,,,,,,,,,,,,,,,,,,,-0.372839506,-0.266666667,1,0,0,,,,,,,COOKER,HB,z,y,./images/COOKERHB.png,,,,,,,,,,,,,,,,,,,,,0,-0.372839506,-0.266666667,1,0,0,1.04,button_left_test,0,43,43,153,1
,,,,,,,,,,,,,,,,,61494b2ba9fdd44794e4c5d3,61,2022-02-12_16h55.36.583,lexical_decision_task_DD_L5,2021.2.3,MacIntel,58.82352941,,,,,,,,,,0.941,1,,,,,,,,,,,,,,,,,,,,,,,-0.40617284,-0.285185185,1,0,0,,,,,,,BEARD,C,z,y,./images/BEARD.png,,,,,,,,,,,,,,,,,,,,,0,-0.40617284,-0.285185185,1,0,0,0.941,button_left_test,0,44,44,86,1
,,,,,,,,,,,,,,,,,61494b2ba9fdd44794e4c5d3,61,2022-02-12_16h55.36.583,lexical_decision_task_DD_L5,2021.2.3,MacIntel,58.82352941,,,,,,,,,,1.059,1,,,,,,,,,,,,,,,,,,,,,,,-0.396296296,-0.286419753,1,0,0,,,,,,,SNACK,LB,z,y,./images/SNACKLB.png,,,,,,,,,,,,,,,,,,,,,0,-0.396296296,-0.286419753,1,0,0,1.059,button_left_test,0,45,45,157,1
,,,,,,,,,,,,,,,,,61494b2ba9fdd44794e4c5d3,61,2022-02-12_16h55.36.583,lexical_decision_task_DD_L5,2021.2.3,MacIntel,58.82352941,,,,,,,,,,1.125,1,,,,,,,,,,,,,,,,,,,,,,,-0.388888889,-0.291358025,1,0,0,,,,,,,MUFFIN,LB,z,y,./images/MUFFINLB.png,,,,,,,,,,,,,,,,,,,,,0,-0.388888889,-0.291358025,1,0,0,1.125,button_left_test,0,46,46,139,1
,,,,,,,,,,,,,,,,,61494b2ba9fdd44794e4c5d3,61,2022-02-12_16h55.36.583,lexical_decision_task_DD_L5,2021.2.3,MacIntel,58.82352941,,,,,,,,,,1.192,1,,,,,,,,,,,,,,,,,,,,,,,0.37654321,-0.260493827,1,0,0,,,,,,,ARROW,HB,m,y,./images/ARROWHB.png,,,,,,,,,,,,,,,,,,,,,0,0.37654321,-0.260493827,1,0,0,1.192,button_right_test,0,47,47,69,1
,,,,,,,,,,,,,,,,,61494b2ba9fdd44794e4c5d3,61,2022-02-12_16h55.36.583,lexical_decision_task_DD_L5,2021.2.3,MacIntel,58.82352941,,,,,,,,,,0.863,1,,,,,,,,,,,,,,,,,,,,,,,0.37654321,-0.266666667,1,0,0,,,,,,,BRUSH,C,m,y,./images/BRUSH.png,,,,,,,,,,,,,,,,,,,,,0,0.37654321,-0.266666667,1,0,0,0.863,button_right_test,0,48,48,59,1
,,,,,,,,,,,,,,,,,61494b2ba9fdd44794e4c5d3,61,2022-02-12_16h55.36.583,lexical_decision_task_DD_L5,2021.2.3,MacIntel,58.82352941,,,,,,,,,,0.737,1,,,,,,,,,,,,,,,,,,,,,,,0.379012346,-0.261728395,1,0,0,,,,,,,BUTTER,HB,m,y,./images/BUTTERHB.png,,,,,,,,,,,,,,,,,,,,,0,0.379012346,-0.261728395,1,0,0,0.737,button_right_test,0,49,49,27,1
,,,,,,,,,,,,,,,,,61494b2ba9fdd44794e4c5d3,61,2022-02-12_16h55.36.583,lexical_decision_task_DD_L5,2021.2.3,MacIntel,58.82352941,,,,,,,,,,0.723,1,,,,,,,,,,,,,,,,,,,,,,,0.380246914,-0.265432099,1,0,0,,,,,,,WALNUT,HB,m,y,./images/WALNUTHB.png,,,,,,,,,,,,,,,,,,,,,0,0.380246914,-0.265432099,1,0,0,0.723,button_right_test,0,50,50,0,1
,,,,,,,,,,,,,,,,,61494b2ba9fdd44794e4c5d3,61,2022-02-12_16h55.36.583,lexical_decision_task_DD_L5,2021.2.3,MacIntel,58.82352941,,,,,,,,,,0.842,1,,,,,,,,,,,,,,,,,,,,,,,0.391358025,-0.255555556,1,0,0,,,,,,,STOOL,LB,m,y,./images/STOOLLB.png,,,,,,,,,,,,,,,,,,,,,0,0.391358025,-0.255555556,1,0,0,0.842,button_right_test,0,51,51,43,1
,,,,,,,,,,,,,,,,,61494b2ba9fdd44794e4c5d3,61,2022-02-12_16h55.36.583,lexical_decision_task_DD_L5,2021.2.3,MacIntel,58.82352941,,,,,,,,,,0.957,1,,,,,,,,,,,,,,,,,,,,,,,-0.377777778,-0.295061728,1,0,0,,,,,,,BANNER,LB,z,y,./images/BANNERLB.png,,,,,,,,,,,,,,,,,,,,,0,-0.377777778,-0.295061728,1,0,0,0.957,button_left_test,0,52,52,136,1
,,,,,,,,,,,,,,,,,61494b2ba9fdd44794e4c5d3,61,2022-02-12_16h55.36.583,lexical_decision_task_DD_L5,2021.2.3,MacIntel,58.82352941,,,,,,,,,,1.209,1,,,,,,,,,,,,,,,,,,,,,,,0.396296296,-0.259259259,1,0,0,,,,,,,CANDY,HB,m,y,./images/CANDYHB.png,,,,,,,,,,,,,,,,,,,,,0,0.396296296,-0.259259259,1,0,0,1.209,button_right_test,0,53,53,39,1
,,,,,,,,,,,,,,,,,61494b2ba9fdd44794e4c5d3,61,2022-02-12_16h55.36.583,lexical_decision_task_DD_L5,2021.2.3,MacIntel,58.82352941,,,,,,,,,,0.941,1,,,,,,,,,,,,,,,,,,,,,,,-0.372839506,-0.292592593,1,0,0,,,,,,,JAGUAR,HB,z,y,./images/JAGUARHB.png,,,,,,,,,,,,,,,,,,,,,0,-0.372839506,-0.292592593,1,0,0,0.941,button_left_test,0,54,54,102,1
,,,,,,,,,,,,,,,,,61494b2ba9fdd44794e4c5d3,61,2022-02-12_16h55.36.583,lexical_decision_task_DD_L5,2021.2.3,MacIntel,58.82352941,,,,,,,,,,0.857,0,,,,,,,,,,,,,,,,,,,,,,,0.39382716,-0.260493827,1,0,0,,,,,,,STORM,HB,z,y,./images/STORMHB.png,,,,,,,,,,,,,,,,,,,,,0,0.39382716,-0.260493827,1,0,0,0.857,button_right_test,0,55,55,114,1
,,,,,,,,,,,,,,,,,61494b2ba9fdd44794e4c5d3,61,2022-02-12_16h55.36.583,lexical_decision_task_DD_L5,2021.2.3,MacIntel,58.82352941,,,,,,,,,,0.771,0,,,,,,,,,,,,,,,,,,,,,,,0.403703704,-0.254320988,1,0,0,,,,,,,MOOSE,HB,z,y,./images/MOOSEHB.png,,,,,,,,,,,,,,,,,,,,,0,0.403703704,-0.254320988,1,0,0,0.771,button_right_test,0,56,56,141,1
,,,,,,,,,,,,,,,,,61494b2ba9fdd44794e4c5d3,61,2022-02-12_16h55.36.583,lexical_decision_task_DD_L5,2021.2.3,MacIntel,58.82352941,,,,,,,,,,0.791,1,,,,,,,,,,,,,,,,,,,,,,,-0.37654321,-0.286419753,1,0,0,,,,,,,PASTA,C,z,y,./images/PASTA.png,,,,,,,,,,,,,,,,,,,,,0,-0.37654321,-0.286419753,1,0,0,0.791,button_left_test,0,57,57,89,1
,,,,,,,,,,,,,,,,,61494b2ba9fdd44794e4c5d3,61,2022-02-12_16h55.36.583,lexical_decision_task_DD_L5,2021.2.3,MacIntel,58.82352941,,,,,,,,,,1.041,1,,,,,,,,,,,,,,,,,,,,,,,-0.377777778,-0.279012346,1,0,0,,,,,,,KIDNEY,HB,z,y,./images/KIDNEYHB.png,,,,,,,,,,,,,,,,,,,,,0,-0.377777778,-0.279012346,1,0,0,1.041,button_left_test,0,58,58,105,1
,,,,,,,,,,,,,,,,,61494b2ba9fdd44794e4c5d3,61,2022-02-12_16h55.36.583,lexical_decision_task_DD_L5,2021.2.3,MacIntel,58.82352941,,,,,,,,,,0.691,1,,,,,,,,,,,,,,,,,,,,,,,0.396296296,-0.261728395,1,0,0,,,,,,,CASINO,LB,m,y,./images/CASINOLB.png,,,,,,,,,,,,,,,,,,,,,0,0.396296296,-0.261728395,1,0,0,0.691,button_right_test,0,59,59,28,1
,,,,,,,,,,,,,,,,,61494b2ba9fdd44794e4c5d3,61,2022-02-12_16h55.36.583,lexical_decision_task_DD_L5,2021.2.3,MacIntel,58.82352941,,,,,,,,,,0.708,1,,,,,,,,,,,,,,,,,,,,,,,0.377777778,-0.275308642,1,0,0,,,,,,,FERRY,HB,m,y,./images/FERRYHB.png,,,,,,,,,,,,,,,,,,,,,0,0.377777778,-0.275308642,1,0,0,0.708,button_right_test,0,60,60,57,1
,,,,,,,,,,,,,,,,,61494b2ba9fdd44794e4c5d3,61,2022-02-12_16h55.36.583,lexical_decision_task_DD_L5,2021.2.3,MacIntel,58.82352941,,,,,,,,,,1.073,1,,,,,,,,,,,,,,,,,,,,,,,-0.355555556,-0.279012346,1,0,0,,,,,,,MAGGOT,HB,z,y,./images/MAGGOTHB.png,,,,,,,,,,,,,,,,,,,,,0,-0.355555556,-0.279012346,1,0,0,1.073,button_left_test,0,61,61,117,1
,,,,,,,,,,,,,,,,,61494b2ba9fdd44794e4c5d3,61,2022-02-12_16h55.36.583,lexical_decision_task_DD_L5,2021.2.3,MacIntel,58.82352941,,,,,,,,,,1.022,1,,,,,,,,,,,,,,,,,,,,,,,-0.366666667,-0.281481481,1,0,0,,,,,,,ATTIC,HB,z,y,./images/ATTICHB.png,,,,,,,,,,,,,,,,,,,,,0,-0.366666667,-0.281481481,1,0,0,1.022,button_left_test,0,62,62,111,1
,,,,,,,,,,,,,,,,,61494b2ba9fdd44794e4c5d3,61,2022-02-12_16h55.36.583,lexical_decision_task_DD_L5,2021.2.3,MacIntel,58.82352941,,,,,,,,,,0.994,0,,,,,,,,,,,,,,,,,,,,,,,0.402469136,-0.251851852,1,0,0,,,,,,,THROAT,HB,z,y,./images/THROATHB.png,,,,,,,,,,,,,,,,,,,,,0,0.402469136,-0.251851852,1,0,0,0.994,button_right_test,0,63,63,120,1
,,,,,,,,,,,,,,,,,61494b2ba9fdd44794e4c5d3,61,2022-02-12_16h55.36.583,lexical_decision_task_DD_L5,2021.2.3,MacIntel,58.82352941,,,,,,,,,,0.691,1,,,,,,,,,,,,,,,,,,,,,,,0.395061728,-0.269135802,1,0,0,,,,,,,BUNNY,LB,m,y,./images/BUNNYLB.png,,,,,,,,,,,,,,,,,,,,,0,0.395061728,-0.269135802,1,0,0,0.691,button_right_test,0,64,64,13,1
,,,,,,,,,,,,,,,,,61494b2ba9fdd44794e4c5d3,61,2022-02-12_16h55.36.583,lexical_decision_task_DD_L5,2021.2.3,MacIntel,58.82352941,,,,,,,,,,1.444,1,,,,,,,,,,,,,,,,,,,,,,,-0.351851852,-0.283950617,1,0,0,,,,,,,BERRY,C,z,y,./images/BERRY.png,,,,,,,,,,,,,,,,,,,,,0,-0.351851852,-0.283950617,1,0,0,1.444,button_left_test,0,65,65,131,1
,,,,,,,,,,,,,,,,,61494b2ba9fdd44794e4c5d3,61,2022-02-12_16h55.36.583,lexical_decision_task_DD_L5,2021.2.3,MacIntel,58.82352941,,,,,,,,,,0.909,1,,,,,,,,,,,,,,,,,,,,,,,0.385185185,-0.260493827,1,0,0,,,,,,,ALLEY,LB,m,y,./images/ALLEYLB.png,,,,,,,,,,,,,,,,,,,,,0,0.385185185,-0.260493827,1,0,0,0.909,button_right_test,0,66,66,55,1
,,,,,,,,,,,,,,,,,61494b2ba9fdd44794e4c5d3,61,2022-02-12_16h55.36.583,lexical_decision_task_DD_L5,2021.2.3,MacIntel,58.82352941,,,,,,,,,,0.925,1,,,,,,,,,,,,,,,,,,,,,,,-0.375308642,-0.27654321,1,0,0,,,,,,,INFANT,LB,z,y,./images/INFANTLB.png,,,,,,,,,,,,,,,,,,,,,0,-0.375308642,-0.27654321,1,0,0,0.925,button_left_test,0,67,67,160,1
,,,,,,,,,,,,,,,,,61494b2ba9fdd44794e4c5d3,61,2022-02-12_16h55.36.583,lexical_decision_task_DD_L5,2021.2.3,MacIntel,58.82352941,,,,,,,,,,0.97,1,,,,,,,,,,,,,,,,,,,,,,,-0.367901235,-0.272839506,1,0,0,,,,,,,SWING,LB,z,y,./images/SWINGLB.png,,,,,,,,,,,,,,,,,,,,,0,-0.367901235,-0.272839506,1,0,0,0.97,button_left_test,0,68,68,124,1
,,,,,,,,,,,,,,,,,61494b2ba9fdd44794e4c5d3,61,2022-02-12_16h55.36.583,lexical_decision_task_DD_L5,2021.2.3,MacIntel,58.82352941,,,,,,,,,,1.075,1,,,,,,,,,,,,,,,,,,,,,,,-0.374074074,-0.274074074,1,0,0,,,,,,,PLANK,LB,z,y,./images/PLANKLB.png,,,,,,,,,,,,,,,,,,,,,0,-0.374074074,-0.274074074,1,0,0,1.075,button_left_test,0,69,69,85,1
,,,,,,,,,,,,,,,,,61494b2ba9fdd44794e4c5d3,61,2022-02-12_16h55.36.583,lexical_decision_task_DD_L5,2021.2.3,MacIntel,58.82352941,,,,,,,,,,0.757,1,,,,,,,,,,,,,,,,,,,,,,,0.398765432,-0.245679012,1,0,0,,,,,,,RULER,LB,m,y,./images/RULERLB.png,,,,,,,,,,,,,,,,,,,,,0,0.398765432,-0.245679012,1,0,0,0.757,button_right_test,0,70,70,79,1
,,,,,,,,,,,,,,,,,61494b2ba9fdd44794e4c5d3,61,2022-02-12_16h55.36.583,lexical_decision_task_DD_L5,2021.2.3,MacIntel,58.82352941,,,,,,,,,,1.44,0,,,,,,,,,,,,,,,,,,,,,,,0.4,-0.245679012,1,0,0,,,,,,,SHORE,HB,z,y,./images/SHOREHB.png,,,,,,,,,,,,,,,,,,,,,0,0.4,-0.245679012,1,0,0,1.44,button_right_test,0,71,71,96,1
,,,,,,,,,,,,,,,,,61494b2ba9fdd44794e4c5d3,61,2022-02-12_16h55.36.583,lexical_decision_task_DD_L5,2021.2.3,MacIntel,58.82352941,,,,,,,,,,0.792,1,,,,,,,,,,,,,,,,,,,,,,,0.386419753,-0.264197531,1,0,0,,,,,,,DONKEY,LB,m,y,./images/DONKEYLB.png,,,,,,,,,,,,,,,,,,,,,0,0.386419753,-0.264197531,1,0,0,0.792,button_right_test,0,72,72,19,1
,,,,,,,,,,,,,,,,,61494b2ba9fdd44794e4c5d3,61,2022-02-12_16h55.36.583,lexical_decision_task_DD_L5,2021.2.3,MacIntel,58.82352941,,,,,,,,,,0.776,1,,,,,,,,,,,,,,,,,,,,,,,-0.374074074,-0.27037037,1,0,0,,,,,,,ONION,HB,z,y,./images/ONIONHB.png,,,,,,,,,,,,,,,,,,,,,0,-0.374074074,-0.27037037,1,0,0,0.776,button_left_test,0,73,73,135,1
,,,,,,,,,,,,,,,,,61494b2ba9fdd44794e4c5d3,61,2022-02-12_16h55.36.583,lexical_decision_task_DD_L5,2021.2.3,MacIntel,58.82352941,,,,,,,,,,0.906,1,,,,,,,,,,,,,,,,,,,,,,,0.392592593,-0.258024691,1,0,0,,,,,,,CLIFF,C,m,y,./images/CLIFF.png,,,,,,,,,,,,,,,,,,,,,0,0.392592593,-0.258024691,1,0,0,0.906,button_right_test,0,74,74,8,1
,,,,,,,,,,,,,,,,,61494b2ba9fdd44794e4c5d3,61,2022-02-12_16h55.36.583,lexical_decision_task_DD_L5,2021.2.3,MacIntel,58.82352941,,,,,,,,,,1.575,0,,,,,,,,,,,,,,,,,,,,,,,0.395061728,-0.258024691,1,0,0,,,,,,,SCREW,HB,z,y,./images/SCREWHB.png,,,,,,,,,,,,,,,,,,,,,0,0.395061728,-0.258024691,1,0,0,1.575,button_right_test,0,75,75,108,1
,,,,,,,,,,,,,,,,,61494b2ba9fdd44794e4c5d3,61,2022-02-12_16h55.36.583,lexical_decision_task_DD_L5,2021.2.3,MacIntel,58.82352941,,,,,,,,,,0.976,1,,,,,,,,,,,,,,,,,,,,,,,-0.383950617,-0.275308642,1,0,0,,,,,,,WEASEL,C,z,y,./images/WEASEL.png,,,,,,,,,,,,,,,,,,,,,0,-0.383950617,-0.275308642,1,0,0,0.976,button_left_test,0,76,76,164,1
,,,,,,,,,,,,,,,,,61494b2ba9fdd44794e4c5d3,61,2022-02-12_16h55.36.583,lexical_decision_task_DD_L5,2021.2.3,MacIntel,58.82352941,,,,,,,,,,0.854,1,,,,,,,,,,,,,,,,,,,,,,,0.392592593,-0.261728395,1,0,0,,,,,,,ENGINE,C,m,y,./images/ENGINE.png,,,,,,,,,,,,,,,,,,,,,0,0.392592593,-0.261728395,1,0,0,0.854,button_right_test,0,77,77,38,1
,,,,,,,,,,,,,,,,,61494b2ba9fdd44794e4c5d3,61,2022-02-12_16h55.36.583,lexical_decision_task_DD_L5,2021.2.3,MacIntel,58.82352941,,,,,,,,,,0.791,1,,,,,,,,,,,,,,,,,,,,,,,-0.391358025,-0.27654321,1,0,0,,,,,,,SKIING,C,z,y,./images/SKIING.png,,,,,,,,,,,,,,,,,,,,,0,-0.391358025,-0.27654321,1,0,0,0.791,button_left_test,0,78,78,101,1
,,,,,,,,,,,,,,,,,61494b2ba9fdd44794e4c5d3,61,2022-02-12_16h55.36.583,lexical_decision_task_DD_L5,2021.2.3,MacIntel,58.82352941,,,,,,,,,,0.759,1,,,,,,,,,,,,,,,,,,,,,,,0.390123457,-0.264197531,1,0,0,,,,,,,VALLEY,C,m,y,./images/VALLEY.png,,,,,,,,,,,,,,,,,,,,,0,0.390123457,-0.264197531,1,0,0,0.759,button_right_test,0,79,79,68,1
,,,,,,,,,,,,,,,,,61494b2ba9fdd44794e4c5d3,61,2022-02-12_16h55.36.583,lexical_decision_task_DD_L5,2021.2.3,MacIntel,58.82352941,,,,,,,,,,0.908,1,,,,,,,,,,,,,,,,,,,,,,,0.39382716,-0.259259259,1,0,0,,,,,,,MONKEY,HB,m,y,./images/MONKEYHB.png,,,,,,,,,,,,,,,,,,,,,0,0.39382716,-0.259259259,1,0,0,0.908,button_right_test,0,80,80,45,1
,,,,,,,,,,,,,,,,,61494b2ba9fdd44794e4c5d3,61,2022-02-12_16h55.36.583,lexical_decision_task_DD_L5,2021.2.3,MacIntel,58.82352941,,,,,,,,,,0.774,1,,,,,,,,,,,,,,,,,,,,,,,0.381481481,-0.266666667,1,0,0,,,,,,,LLAMA,C,m,y,./images/LLAMA.png,,,,,,,,,,,,,,,,,,,,,0,0.381481481,-0.266666667,1,0,0,0.774,button_right_test,0,81,81,35,1
,,,,,,,,,,,,,,,,,61494b2ba9fdd44794e4c5d3,61,2022-02-12_16h55.36.583,lexical_decision_task_DD_L5,2021.2.3,MacIntel,58.82352941,,,,,,,,,,0.722,1,,,,,,,,,,,,,,,,,,,,,,,-0.382716049,-0.277777778,1,0,0,,,,,,,URINE,LB,z,y,./images/URINELB.png,,,,,,,,,,,,,,,,,,,,,0,-0.382716049,-0.277777778,1,0,0,0.722,button_left_test,0,82,82,154,1
,,,,,,,,,,,,,,,,,61494b2ba9fdd44794e4c5d3,61,2022-02-12_16h55.36.583,lexical_decision_task_DD_L5,2021.2.3,MacIntel,58.82352941,,,,,,,,,,1.357,1,,,,,,,,,,,,,,,,,,,,,,,0.102469136,-0.408641975,1,0,0,,,,,,,MOTOR,LB,z,y,./images/MOTORLB.png,break_done_button,,,,,,,,,,,,,,,,,,,,0,-0.390123457,-0.272839506,1,0,0,1.357,button_left_test,0,83,83,97,1
,,,,,,,,,,,,,,,,,61494b2ba9fdd44794e4c5d3,61,2022-02-12_16h55.36.583,lexical_decision_task_DD_L5,2021.2.3,MacIntel,58.82352941,,,,,,,,,,0.877,1,,,,,,,,,,,,,,,,,,,,,,,0.362962963,-0.260493827,1,0,0,,,,,,,JUMPER,C,m,y,./images/JUMPER.png,,,,,,,,,,,,,,,,,,,,,0,0.362962963,-0.260493827,1,0,0,0.877,button_right_test,0,84,84,74,1
,,,,,,,,,,,,,,,,,61494b2ba9fdd44794e4c5d3,61,2022-02-12_16h55.36.583,lexical_decision_task_DD_L5,2021.2.3,MacIntel,58.82352941,,,,,,,,,,0.889,1,,,,,,,,,,,,,,,,,,,,,,,0.367901235,-0.266666667,1,0,0,,,,,,,BRIDE,LB,m,y,./images/BRIDELB.png,,,,,,,,,,,,,,,,,,,,,0,0.367901235,-0.266666667,1,0,0,0.889,button_right_test,0,85,85,64,1
,,,,,,,,,,,,,,,,,61494b2ba9fdd44794e4c5d3,61,2022-02-12_16h55.36.583,lexical_decision_task_DD_L5,2021.2.3,MacIntel,58.82352941,,,,,,,,,,1.056,1,,,,,,,,,,,,,,,,,,,,,,,-0.367901235,-0.285185185,1,0,0,,,,,,,MALLET,C,z,y,./images/MALLET.png,,,,,,,,,,,,,,,,,,,,,0,-0.367901235,-0.285185185,1,0,0,1.056,button_left_test,0,86,86,134,1
,,,,,,,,,,,,,,,,,61494b2ba9fdd44794e4c5d3,61,2022-02-12_16h55.36.583,lexical_decision_task_DD_L5,2021.2.3,MacIntel,58.82352941,,,,,,,,,,1.74,1,,,,,,,,,,,,,,,,,,,,,,,0.371604938,-0.264197531,1,0,0,,,,,,,BAKER,HB,m,y,./images/BAKERHB.png,,,,,,,,,,,,,,,,,,,,,0,0.371604938,-0.264197531,1,0,0,1.74,button_right_test,0,87,87,63,1
,,,,,,,,,,,,,,,,,61494b2ba9fdd44794e4c5d3,61,2022-02-12_16h55.36.583,lexical_decision_task_DD_L5,2021.2.3,MacIntel,58.82352941,,,,,,,,,,1.089,1,,,,,,,,,,,,,,,,,,,,,,,0.381481481,-0.265432099,1,0,0,,,,,,,DRILL,HB,m,y,./images/DRILLHB.png,,,,,,,,,,,,,,,,,,,,,0,0.381481481,-0.265432099,1,0,0,1.089,button_right_test,0,88,88,81,1
,,,,,,,,,,,,,,,,,61494b2ba9fdd44794e4c5d3,61,2022-02-12_16h55.36.583,lexical_decision_task_DD_L5,2021.2.3,MacIntel,58.82352941,,,,,,,,,,1.212,0,,,,,,,,,,,,,,,,,,,,,,,-0.383950617,-0.285185185,1,0,0,,,,,,,BUBBLE,C,m,y,./images/BUBBLE.png,,,,,,,,,,,,,,,,,,,,,0,-0.383950617,-0.285185185,1,0,0,1.212,button_left_test,0,89,89,71,1
,,,,,,,,,,,,,,,,,61494b2ba9fdd44794e4c5d3,61,2022-02-12_16h55.36.583,lexical_decision_task_DD_L5,2021.2.3,MacIntel,58.82352941,,,,,,,,,,0.858,1,,,,,,,,,,,,,,,,,,,,,,,0.392592593,-0.265432099,1,0,0,,,,,,,DESERT,LB,m,y,./images/DESERTLB.png,,,,,,,,,,,,,,,,,,,,,0,0.392592593,-0.265432099,1,0,0,0.858,button_right_test,0,90,90,52,1
,,,,,,,,,,,,,,,,,61494b2ba9fdd44794e4c5d3,61,2022-02-12_16h55.36.583,lexical_decision_task_DD_L5,2021.2.3,MacIntel,58.82352941,,,,,,,,,,0.81,1,,,,,,,,,,,,,,,,,,,,,,,-0.381481481,-0.287654321,1,0,0,,,,,,,BURIAL,C,z,y,./images/BURIAL.png,,,,,,,,,,,,,,,,,,,,,0,-0.381481481,-0.287654321,1,0,0,0.81,button_left_test,0,91,91,143,1
,,,,,,,,,,,,,,,,,61494b2ba9fdd44794e4c5d3,61,2022-02-12_16h55.36.583,lexical_decision_task_DD_L5,2021.2.3,MacIntel,58.82352941,,,,,,,,,,0.941,1,,,,,,,,,,,,,,,,,,,,,,,-0.381481481,-0.288888889,1,0,0,,,,,,,CARPET,C,z,y,./images/CARPET.png,,,,,,,,,,,,,,,,,,,,,0,-0.381481481,-0.288888889,1,0,0,0.941,button_left_test,0,92,92,137,1
,,,,,,,,,,,,,,,,,61494b2ba9fdd44794e4c5d3,61,2022-02-12_16h55.36.583,lexical_decision_task_DD_L5,2021.2.3,MacIntel,58.82352941,,,,,,,,,,1.73,1,,,,,,,,,,,,,,,,,,,,,,,0.385185185,-0.251851852,1,0,0,,,,,,,SPINE,C,m,y,./images/SPINE.png,,,,,,,,,,,,,,,,,,,,,0,0.385185185,-0.251851852,1,0,0,1.73,button_right_test,0,93,93,65,1
,,,,,,,,,,,,,,,,,61494b2ba9fdd44794e4c5d3,61,2022-02-12_16h55.36.583,lexical_decision_task_DD_L5,2021.2.3,MacIntel,58.82352941,,,,,,,,,,0.709,1,,,,,,,,,,,,,,,,,,,,,,,0.385185185,-0.267901235,1,0,0,,,,,,,BROOM,HB,m,y,./images/BROOMHB.png,,,,,,,,,,,,,,,,,,,,,0,0.385185185,-0.267901235,1,0,0,0.709,button_right_test,0,94,94,78,1
