key_resp.keys,instr_done_touch.x,instr_done_touch.y,instr_done_touch.leftButton,instr_done_touch.midButton,instr_done_touch.rightButton,instr_done_touch.clicked_name,instruction_pages.thisRepN,instruction_pages.thisTrialN,instruction_pages.thisN,instruction_pages.thisIndex,instruction_pages.ran,pageN,phase,instruct_text,has_image,instruct_image,participant,age,date,expName,psychopyVersion,OS,frameRate,response.keys,response.corr,response.rt,touch_resp.x,touch_resp.y,touch_resp.leftButton,touch_resp.midButton,touch_resp.rightButton,touch_resp.time,touch_resp.clicked_name,rt,corr,practrials.thisRepN,practrials.thisTrialN,practrials.thisN,practrials.thisIndex,practrials.ran,TrialID,Target,corrAns,end_of_practice_trials_pages.thisRepN,end_of_practice_trials_pages.thisTrialN,end_of_practice_trials_pages.thisN,end_of_practice_trials_pages.thisIndex,end_of_practice_trials_pages.ran,key_resp_2.keys,key_resp_2.corr,key_resp_2.rt,targ_click.x,targ_click.y,targ_click.leftButton,targ_click.midButton,targ_click.rightButton,targ_click.time,targ_click.clicked_name,break_done_touch.x,break_done_touch.y,break_done_touch.leftButton,break_done_touch.midButton,break_done_touch.rightButton,break_done_keyboard.keys,maintrials.thisRepN,maintrials.thisTrialN,maintrials.thisN,maintrials.thisIndex,maintrials.ran,string,blur,study,lex,stim_path,break_done_keyboard.rt,mouse_2.x,mouse_2.y,mouse_2.leftButton,mouse_2.midButton,mouse_2.rightButton,mouse_2.clicked_name,slider.response,slider.rt,trials.thisRepN,trials.thisTrialN,trials.thisN,trials.thisIndex,trials.ran,test_instructions.thisRepN,test_instructions.thisTrialN,test_instructions.thisN,test_instructions.thisIndex,test_instructions.ran,key_resp.rt,key_resp_3.keys,key_resp_3.corr,key_resp_3.rt,test_click.x,test_click.y,test_click.leftButton,test_click.midButton,test_click.rightButton,test_click.time,test_click.clicked_name,test_phase.thisRepN,test_phase.thisTrialN,test_phase.thisN,test_phase.thisIndex,test_phase.ran,break_done_touch.clicked_name
,0.078703718,-0.419444458,1,0,0,instr_done_button,0,0,0,0,1,1,instructions,"INSTRUCTIONS
At the start of each trial, look at the plus sign  (+) in the center of the screen.  This tells you that a trial is about to begin and where to look. Second, the plus sign will disappear and a string of letters will appear. Your task is to determine if the string of letters is a word or not. If the item is a word press the M key (on keyboard)  or touch the word button (phone/tablet).  If the item is not a word,  press the  Z key (on keyboard)  or touch the nonword button (on phone/tablet). 
Press the space bar or touch  continue.",0,,614f56ca93028ed09c869a69,59,2022-02-12_16h56.24.709,lexical_decision_task_DD_L6,2021.2.3,Win32,59.35774915,,,,,,,,,,,,,,,,,,,,,,,,,,,,,,,,,,,,,,,,,,,,,,,,,,,,,,,,,,,,,,,,,,,,,,,,,,,,,,,,,,,,,,,
,0.033333347,-0.411111125,1,0,0,instr_done_button,0,1,1,1,1,2,instructions,"If your device has a keyboard, press the 'Z' key for nonwords and the 'M' key for words.





Press the space bar or touch the button below to continue.",0,keyboard-example.gif,614f56ca93028ed09c869a69,59,2022-02-12_16h56.24.709,lexical_decision_task_DD_L6,2021.2.3,Win32,59.35774915,,,,,,,,,,,,,,,,,,,,,,,,,,,,,,,,,,,,,,,,,,,,,,,,,,,,,,,,,,,,,,,,,,,,,,,,,,,,,,,,,,,,,,,
,0.033333347,-0.406481495,1,0,0,instr_done_button,0,2,2,2,1,3,instructions,"If you are using a touchscreen only device, use the buttons on the screen. Do not use the mouse.





Press the space bar or touch the button below to continue.",0,touchscreen-example.gif,614f56ca93028ed09c869a69,59,2022-02-12_16h56.24.709,lexical_decision_task_DD_L6,2021.2.3,Win32,59.35774915,,,,,,,,,,,,,,,,,,,,,,,,,,,,,,,,,,,,,,,,,,,,,,,,,,,,,,,,,,,,,,,,,,,,,,,,,,,,,,,,,,,,,,,
,0.033333347,-0.406481495,1,0,0,instr_done_button,0,3,3,3,1,4,instructions,"It is very important that you respond as quickly and accurately as possible, as each letter string will only be on the screen for two seconds. If you do not respond within this time, the message 'Too slow!' will be displayed and the experiment will progress to the next letter string. The first 20 trials will be practice trials and you will receive feedback on your answers. 

Press the space bar or touch the button below to start the practice trials.",0,,614f56ca93028ed09c869a69,59,2022-02-12_16h56.24.709,lexical_decision_task_DD_L6,2021.2.3,Win32,59.35774915,,,,,,,,,,,,,,,,,,,,,,,,,,,,,,,,,,,,,,,,,,,,,,,,,,,,,,,,,,,,,,,,,,,,,,,,,,,,,,,,,,,,,,,
,,,,,,,,,,,,,,,,,614f56ca93028ed09c869a69,59,2022-02-12_16h56.24.709,lexical_decision_task_DD_L6,2021.2.3,Win32,59.35774915,m,1,2.3572,,,,,,,,2.3572,1,0,0,0,2,1,1001,ALMOND,m,,,,,,,,,,,,,,,,,,,,,,,,,,,,,,,,,,,,,,,,,,,,,,,,,,,,,,,,,,,,,,,,,,,
,,,,,,,,,,,,,,,,,614f56ca93028ed09c869a69,59,2022-02-12_16h56.24.709,lexical_decision_task_DD_L6,2021.2.3,Win32,59.35774915,m,1,0.7832,,,,,,,,0.7832,1,0,1,1,0,1,1001,UTOPIA,m,,,,,,,,,,,,,,,,,,,,,,,,,,,,,,,,,,,,,,,,,,,,,,,,,,,,,,,,,,,,,,,,,,,
,,,,,,,,,,,,,,,,,614f56ca93028ed09c869a69,59,2022-02-12_16h56.24.709,lexical_decision_task_DD_L6,2021.2.3,Win32,59.35774915,z,1,1.0661,,,,,,,,1.0661,1,0,2,2,12,1,1001,SPRINY,z,,,,,,,,,,,,,,,,,,,,,,,,,,,,,,,,,,,,,,,,,,,,,,,,,,,,,,,,,,,,,,,,,,,
,,,,,,,,,,,,,,,,,614f56ca93028ed09c869a69,59,2022-02-12_16h56.24.709,lexical_decision_task_DD_L6,2021.2.3,Win32,59.35774915,m,1,0.7414,,,,,,,,0.7414,1,0,3,3,3,1,1001,MATRIX,m,,,,,,,,,,,,,,,,,,,,,,,,,,,,,,,,,,,,,,,,,,,,,,,,,,,,,,,,,,,,,,,,,,,
,,,,,,,,,,,,,,,,,614f56ca93028ed09c869a69,59,2022-02-12_16h56.24.709,lexical_decision_task_DD_L6,2021.2.3,Win32,59.35774915,z,1,0.8998,,,,,,,,0.8998,1,0,4,4,8,1,1001,ASLERT,z,,,,,,,,,,,,,,,,,,,,,,,,,,,,,,,,,,,,,,,,,,,,,,,,,,,,,,,,,,,,,,,,,,,
,,,,,,,,,,,,,,,,,614f56ca93028ed09c869a69,59,2022-02-12_16h56.24.709,lexical_decision_task_DD_L6,2021.2.3,Win32,59.35774915,m,1,0.6861,,,,,,,,0.6861,1,0,5,5,4,1,1001,SQUEAK,m,,,,,,,,,,,,,,,,,,,,,,,,,,,,,,,,,,,,,,,,,,,,,,,,,,,,,,,,,,,,,,,,,,,
,,,,,,,,,,,,,,,,,614f56ca93028ed09c869a69,59,2022-02-12_16h56.24.709,lexical_decision_task_DD_L6,2021.2.3,Win32,59.35774915,m,1,0.6129,,,,,,,,0.6129,1,0,6,6,6,1,1001,ZOMBIE,m,,,,,,,,,,,,,,,,,,,,,,,,,,,,,,,,,,,,,,,,,,,,,,,,,,,,,,,,,,,,,,,,,,,
,,,,,,,,,,,,,,,,,614f56ca93028ed09c869a69,59,2022-02-12_16h56.24.709,lexical_decision_task_DD_L6,2021.2.3,Win32,59.35774915,z,1,0.8538,,,,,,,,0.8538,1,0,7,7,15,1,1001,WHAISE,z,,,,,,,,,,,,,,,,,,,,,,,,,,,,,,,,,,,,,,,,,,,,,,,,,,,,,,,,,,,,,,,,,,,
,,,,,,,,,,,,,,,,,614f56ca93028ed09c869a69,59,2022-02-12_16h56.24.709,lexical_decision_task_DD_L6,2021.2.3,Win32,59.35774915,m,0,0.714,,,,,,,,0.714,0,0,8,8,13,1,1001,ROUPET,z,,,,,,,,,,,,,,,,,,,,,,,,,,,,,,,,,,,,,,,,,,,,,,,,,,,,,,,,,,,,,,,,,,,
,,,,,,,,,,,,,,,,,614f56ca93028ed09c869a69,59,2022-02-12_16h56.24.709,lexical_decision_task_DD_L6,2021.2.3,Win32,59.35774915,m,1,0.776,,,,,,,,0.776,1,0,9,9,5,1,1001,OBTAIN,m,,,,,,,,,,,,,,,,,,,,,,,,,,,,,,,,,,,,,,,,,,,,,,,,,,,,,,,,,,,,,,,,,,,
,,,,,,,,,,,,,,,,,614f56ca93028ed09c869a69,59,2022-02-12_16h56.24.709,lexical_decision_task_DD_L6,2021.2.3,Win32,59.35774915,m,1,0.6494,,,,,,,,0.6494,1,0,10,10,7,1,1001,VOLUME,m,,,,,,,,,,,,,,,,,,,,,,,,,,,,,,,,,,,,,,,,,,,,,,,,,,,,,,,,,,,,,,,,,,,
,,,,,,,,,,,,,,,,,614f56ca93028ed09c869a69,59,2022-02-12_16h56.24.709,lexical_decision_task_DD_L6,2021.2.3,Win32,59.35774915,z,1,0.7558,,,,,,,,0.7558,1,0,11,11,9,1,1001,FARINY,z,,,,,,,,,,,,,,,,,,,,,,,,,,,,,,,,,,,,,,,,,,,,,,,,,,,,,,,,,,,,,,,,,,,
,,,,,,,,,,,,,,,,,614f56ca93028ed09c869a69,59,2022-02-12_16h56.24.709,lexical_decision_task_DD_L6,2021.2.3,Win32,59.35774915,z,1,1.3805,,,,,,,,1.3805,1,0,12,12,10,1,1001,INLADE,z,,,,,,,,,,,,,,,,,,,,,,,,,,,,,,,,,,,,,,,,,,,,,,,,,,,,,,,,,,,,,,,,,,,
,,,,,,,,,,,,,,,,,614f56ca93028ed09c869a69,59,2022-02-12_16h56.24.709,lexical_decision_task_DD_L6,2021.2.3,Win32,59.35774915,m,1,0.6589,,,,,,,,0.6589,1,0,13,13,1,1,1001,ADJUST,m,,,,,,,,,,,,,,,,,,,,,,,,,,,,,,,,,,,,,,,,,,,,,,,,,,,,,,,,,,,,,,,,,,,
,,,,,,,,,,,,,,,,,614f56ca93028ed09c869a69,59,2022-02-12_16h56.24.709,lexical_decision_task_DD_L6,2021.2.3,Win32,59.35774915,z,1,0.7677,,,,,,,,0.7677,1,0,14,14,14,1,1001,THRALE,z,,,,,,,,,,,,,,,,,,,,,,,,,,,,,,,,,,,,,,,,,,,,,,,,,,,,,,,,,,,,,,,,,,,
,,,,,,,,,,,,,,,,,614f56ca93028ed09c869a69,59,2022-02-12_16h56.24.709,lexical_decision_task_DD_L6,2021.2.3,Win32,59.35774915,z,1,0.7056,,,,,,,,0.7056,1,0,15,15,11,1,1001,RASHET,z,,,,,,,,,,,,,,,,,,,,,,,,,,,,,,,,,,,,,,,,,,,,,,,,,,,,,,,,,,,,,,,,,,,
,0.005555569,-0.417592606,1,0,0,instr_done_button,,,,,,1,end_of_practice,"You have completed the practice trials. During the experimental trials, you will not receive feedback. 
Before you begin, please ensure that you are in a comfortable and quiet location and will not be disturbed for about 15 minutes, as we cannot use your data if you do not complete all the trials. 
 When you are ready to start the experimental trials, please press space or touch the button below.",,,614f56ca93028ed09c869a69,59,2022-02-12_16h56.24.709,lexical_decision_task_DD_L6,2021.2.3,Win32,59.35774915,,,,,,,,,,,,,,,,,,,,,0,0,0,0,1,,,,,,,,,,,,,,,,,,,,,,,,,,,,,,,,,,,,,,,,,,,,,,,,,,,,,,,,,,,,,,
,,,,,,,,,,,,,,,,,614f56ca93028ed09c869a69,59,2022-02-12_16h56.24.709,lexical_decision_task_DD_L6,2021.2.3,Win32,59.35774915,,,,,,,,,,,2.9254,1,,,,,,,,,,,,,,z,1,2.9254,,,,,,,,0.005555569,-0.417592606,0,0,0,,0,0,0,133,1,POWDY,HB,z,z,./images/POWDYHB.png,,,,,,,,,,,,,,,,,,,,,,,,,,,,,,,,,,,,
,,,,,,,,,,,,,,,,,614f56ca93028ed09c869a69,59,2022-02-12_16h56.24.709,lexical_decision_task_DD_L6,2021.2.3,Win32,59.35774915,,,,,,,,,,,1.0993,1,,,,,,,,,,,,,,m,1,1.0993,,,,,,,,0.005555569,-0.417592606,0,0,0,,0,1,1,66,1,STATUE,LB,m,m,./images/STATUELB.png,,,,,,,,,,,,,,,,,,,,,,,,,,,,,,,,,,,,
,,,,,,,,,,,,,,,,,614f56ca93028ed09c869a69,59,2022-02-12_16h56.24.709,lexical_decision_task_DD_L6,2021.2.3,Win32,59.35774915,,,,,,,,,,,0.5752,1,,,,,,,,,,,,,,m,1,0.5752,,,,,,,,0.005555569,-0.417592606,0,0,0,,0,2,2,37,1,TIGER,C,m,m,./images/TIGER.png,,,,,,,,,,,,,,,,,,,,,,,,,,,,,,,,,,,,
,,,,,,,,,,,,,,,,,614f56ca93028ed09c869a69,59,2022-02-12_16h56.24.709,lexical_decision_task_DD_L6,2021.2.3,Win32,59.35774915,,,,,,,,,,,0.6279,1,,,,,,,,,,,,,,m,1,0.6279,,,,,,,,0.005555569,-0.417592606,0,0,0,,0,3,3,78,1,BROOM,LB,m,m,./images/BROOMLB.png,,,,,,,,,,,,,,,,,,,,,,,,,,,,,,,,,,,,
,,,,,,,,,,,,,,,,,614f56ca93028ed09c869a69,59,2022-02-12_16h56.24.709,lexical_decision_task_DD_L6,2021.2.3,Win32,59.35774915,,,,,,,,,,,1.281,1,,,,,,,,,,,,,,z,1,1.281,,,,,,,,0.005555569,-0.417592606,0,0,0,,0,4,4,85,1,CHULK,HB,z,z,./images/CHULKHB.png,,,,,,,,,,,,,,,,,,,,,,,,,,,,,,,,,,,,
,,,,,,,,,,,,,,,,,614f56ca93028ed09c869a69,59,2022-02-12_16h56.24.709,lexical_decision_task_DD_L6,2021.2.3,Win32,59.35774915,,,,,,,,,,,0.8715,1,,,,,,,,,,,,,,z,1,0.8715,,,,,,,,0.005555569,-0.417592606,0,0,0,,0,5,5,109,1,BURGE,HB,z,z,./images/BURGEHB.png,,,,,,,,,,,,,,,,,,,,,,,,,,,,,,,,,,,,
,,,,,,,,,,,,,,,,,614f56ca93028ed09c869a69,59,2022-02-12_16h56.24.709,lexical_decision_task_DD_L6,2021.2.3,Win32,59.35774915,,,,,,,,,,,1.3614,1,,,,,,,,,,,,,,z,1,1.3614,,,,,,,,0.005555569,-0.417592606,0,0,0,,0,6,6,121,1,CEERS,HB,z,z,./images/CEERSHB.png,,,,,,,,,,,,,,,,,,,,,,,,,,,,,,,,,,,,
,,,,,,,,,,,,,,,,,614f56ca93028ed09c869a69,59,2022-02-12_16h56.24.709,lexical_decision_task_DD_L6,2021.2.3,Win32,59.35774915,,,,,,,,,,,0.6138,1,,,,,,,,,,,,,,m,1,0.6138,,,,,,,,0.005555569,-0.417592606,0,0,0,,0,7,7,17,1,PARADE,HB,m,m,./images/PARADEHB.png,,,,,,,,,,,,,,,,,,,,,,,,,,,,,,,,,,,,
,,,,,,,,,,,,,,,,,614f56ca93028ed09c869a69,59,2022-02-12_16h56.24.709,lexical_decision_task_DD_L6,2021.2.3,Win32,59.35774915,,,,,,,,,,,0.9698,1,,,,,,,,,,,,,,m,1,0.9698,,,,,,,,0.005555569,-0.417592606,0,0,0,,0,8,8,41,1,STREAM,HB,m,m,./images/STREAMHB.png,,,,,,,,,,,,,,,,,,,,,,,,,,,,,,,,,,,,
,,,,,,,,,,,,,,,,,614f56ca93028ed09c869a69,59,2022-02-12_16h56.24.709,lexical_decision_task_DD_L6,2021.2.3,Win32,59.35774915,,,,,,,,,,,0.6913,1,,,,,,,,,,,,,,m,1,0.6913,,,,,,,,0.005555569,-0.417592606,0,0,0,,0,9,9,1,1,TOWEL,C,m,m,./images/TOWEL.png,,,,,,,,,,,,,,,,,,,,,,,,,,,,,,,,,,,,
,,,,,,,,,,,,,,,,,614f56ca93028ed09c869a69,59,2022-02-12_16h56.24.709,lexical_decision_task_DD_L6,2021.2.3,Win32,59.35774915,,,,,,,,,,,0.6241,1,,,,,,,,,,,,,,m,1,0.6241,,,,,,,,0.005555569,-0.417592606,0,0,0,,0,10,10,82,1,PEBBLE,C,m,m,./images/PEBBLE.png,,,,,,,,,,,,,,,,,,,,,,,,,,,,,,,,,,,,
,,,,,,,,,,,,,,,,,614f56ca93028ed09c869a69,59,2022-02-12_16h56.24.709,lexical_decision_task_DD_L6,2021.2.3,Win32,59.35774915,,,,,,,,,,,0.7193,1,,,,,,,,,,,,,,z,1,0.7193,,,,,,,,0.005555569,-0.417592606,0,0,0,,0,11,11,146,1,MOOST,LB,z,z,./images/MOOSTLB.png,,,,,,,,,,,,,,,,,,,,,,,,,,,,,,,,,,,,
,,,,,,,,,,,,,,,,,614f56ca93028ed09c869a69,59,2022-02-12_16h56.24.709,lexical_decision_task_DD_L6,2021.2.3,Win32,59.35774915,,,,,,,,,,,1.0104,0,,,,,,,,,,,,,,z,0,1.0104,,,,,,,,0.005555569,-0.417592606,0,0,0,,0,12,12,35,1,LLAMA,HB,m,m,./images/LLAMAHB.png,,,,,,,,,,,,,,,,,,,,,,,,,,,,,,,,,,,,
,,,,,,,,,,,,,,,,,614f56ca93028ed09c869a69,59,2022-02-12_16h56.24.709,lexical_decision_task_DD_L6,2021.2.3,Win32,59.35774915,,,,,,,,,,,1.1519,1,,,,,,,,,,,,,,z,1,1.1519,,,,,,,,0.005555569,-0.417592606,0,0,0,,0,13,13,115,1,MAWNS,HB,z,z,./images/MAWNSHB.png,,,,,,,,,,,,,,,,,,,,,,,,,,,,,,,,,,,,
,,,,,,,,,,,,,,,,,614f56ca93028ed09c869a69,59,2022-02-12_16h56.24.709,lexical_decision_task_DD_L6,2021.2.3,Win32,59.35774915,,,,,,,,,,,0.6175,1,,,,,,,,,,,,,,m,1,0.6175,,,,,,,,0.005555569,-0.417592606,0,0,0,,0,14,14,70,1,BANANA,C,m,m,./images/BANANA.png,,,,,,,,,,,,,,,,,,,,,,,,,,,,,,,,,,,,
,,,,,,,,,,,,,,,,,614f56ca93028ed09c869a69,59,2022-02-12_16h56.24.709,lexical_decision_task_DD_L6,2021.2.3,Win32,59.35774915,,,,,,,,,,,0.6858,1,,,,,,,,,,,,,,z,1,0.6858,,,,,,,,0.005555569,-0.417592606,0,0,0,,0,15,15,108,1,GRUET,C,z,z,./images/GRUET.png,,,,,,,,,,,,,,,,,,,,,,,,,,,,,,,,,,,,
,,,,,,,,,,,,,,,,,614f56ca93028ed09c869a69,59,2022-02-12_16h56.24.709,lexical_decision_task_DD_L6,2021.2.3,Win32,59.35774915,,,,,,,,,,,0.7965,1,,,,,,,,,,,,,,z,1,0.7965,,,,,,,,0.005555569,-0.417592606,0,0,0,,0,16,16,140,1,DOVET,LB,z,z,./images/DOVETLB.png,,,,,,,,,,,,,,,,,,,,,,,,,,,,,,,,,,,,
,,,,,,,,,,,,,,,,,614f56ca93028ed09c869a69,59,2022-02-12_16h56.24.709,lexical_decision_task_DD_L6,2021.2.3,Win32,59.35774915,,,,,,,,,,,0.7435,1,,,,,,,,,,,,,,m,1,0.7435,,,,,,,,0.005555569,-0.417592606,0,0,0,,0,17,17,12,1,BLOKE,LB,m,m,./images/BLOKELB.png,,,,,,,,,,,,,,,,,,,,,,,,,,,,,,,,,,,,
,,,,,,,,,,,,,,,,,614f56ca93028ed09c869a69,59,2022-02-12_16h56.24.709,lexical_decision_task_DD_L6,2021.2.3,Win32,59.35774915,,,,,,,,,,,0.5741,1,,,,,,,,,,,,,,m,1,0.5741,,,,,,,,0.005555569,-0.417592606,0,0,0,,0,18,18,21,1,DANCER,LB,m,m,./images/DANCERLB.png,,,,,,,,,,,,,,,,,,,,,,,,,,,,,,,,,,,,
,,,,,,,,,,,,,,,,,614f56ca93028ed09c869a69,59,2022-02-12_16h56.24.709,lexical_decision_task_DD_L6,2021.2.3,Win32,59.35774915,,,,,,,,,,,0.5984,1,,,,,,,,,,,,,,m,1,0.5984,,,,,,,,0.005555569,-0.417592606,0,0,0,,0,19,19,61,1,ARTIST,C,m,m,./images/ARTIST.png,,,,,,,,,,,,,,,,,,,,,,,,,,,,,,,,,,,,
,,,,,,,,,,,,,,,,,614f56ca93028ed09c869a69,59,2022-02-12_16h56.24.709,lexical_decision_task_DD_L6,2021.2.3,Win32,59.35774915,,,,,,,,,,,0.9862,1,,,,,,,,,,,,,,m,1,0.9862,,,,,,,,0.005555569,-0.417592606,0,0,0,,0,20,20,53,1,POSTER,HB,m,m,./images/POSTERHB.png,,,,,,,,,,,,,,,,,,,,,,,,,,,,,,,,,,,,
,,,,,,,,,,,,,,,,,614f56ca93028ed09c869a69,59,2022-02-12_16h56.24.709,lexical_decision_task_DD_L6,2021.2.3,Win32,59.35774915,,,,,,,,,,,0.8628,1,,,,,,,,,,,,,,m,1,0.8628,,,,,,,,0.005555569,-0.417592606,0,0,0,,0,21,21,14,1,FENCE,HB,m,m,./images/FENCEHB.png,,,,,,,,,,,,,,,,,,,,,,,,,,,,,,,,,,,,
,,,,,,,,,,,,,,,,,614f56ca93028ed09c869a69,59,2022-02-12_16h56.24.709,lexical_decision_task_DD_L6,2021.2.3,Win32,59.35774915,,,,,,,,,,,1.2142,0,,,,,,,,,,,,,,m,0,1.2142,,,,,,,,0.005555569,-0.417592606,0,0,0,,0,22,22,144,1,NAIRY,C,z,z,./images/NAIRY.png,,,,,,,,,,,,,,,,,,,,,,,,,,,,,,,,,,,,
,,,,,,,,,,,,,,,,,614f56ca93028ed09c869a69,59,2022-02-12_16h56.24.709,lexical_decision_task_DD_L6,2021.2.3,Win32,59.35774915,,,,,,,,,,,0.6488,1,,,,,,,,,,,,,,m,1,0.6488,,,,,,,,0.005555569,-0.417592606,0,0,0,,0,23,23,73,1,GLOVE,C,m,m,./images/GLOVE.png,,,,,,,,,,,,,,,,,,,,,,,,,,,,,,,,,,,,
,,,,,,,,,,,,,,,,,614f56ca93028ed09c869a69,59,2022-02-12_16h56.24.709,lexical_decision_task_DD_L6,2021.2.3,Win32,59.35774915,,,,,,,,,,,0.7276,1,,,,,,,,,,,,,,z,1,0.7276,,,,,,,,0.005555569,-0.417592606,0,0,0,,0,24,24,119,1,PAFER,LB,z,z,./images/PAFERLB.png,,,,,,,,,,,,,,,,,,,,,,,,,,,,,,,,,,,,
,,,,,,,,,,,,,,,,,614f56ca93028ed09c869a69,59,2022-02-12_16h56.24.709,lexical_decision_task_DD_L6,2021.2.3,Win32,59.35774915,,,,,,,,,,,0.6098,1,,,,,,,,,,,,,,m,1,0.6098,,,,,,,,0.005555569,-0.417592606,0,0,0,,0,25,25,0,1,WALNUT,LB,m,m,./images/WALNUTLB.png,,,,,,,,,,,,,,,,,,,,,,,,,,,,,,,,,,,,
,,,,,,,,,,,,,,,,,614f56ca93028ed09c869a69,59,2022-02-12_16h56.24.709,lexical_decision_task_DD_L6,2021.2.3,Win32,59.35774915,,,,,,,,,,,0.947,1,,,,,,,,,,,,,,z,1,0.947,,,,,,,,0.005555569,-0.417592606,0,0,0,,0,26,26,100,1,DRIBS,HB,z,z,./images/DRIBSHB.png,,,,,,,,,,,,,,,,,,,,,,,,,,,,,,,,,,,,
,,,,,,,,,,,,,,,,,614f56ca93028ed09c869a69,59,2022-02-12_16h56.24.709,lexical_decision_task_DD_L6,2021.2.3,Win32,59.35774915,,,,,,,,,,,1.1567,1,,,,,,,,,,,,,,z,1,1.1567,,,,,,,,0.005555569,-0.417592606,0,0,0,,0,27,27,94,1,BLANS,HB,z,z,./images/BLANSHB.png,,,,,,,,,,,,,,,,,,,,,,,,,,,,,,,,,,,,
,,,,,,,,,,,,,,,,,614f56ca93028ed09c869a69,59,2022-02-12_16h56.24.709,lexical_decision_task_DD_L6,2021.2.3,Win32,59.35774915,,,,,,,,,,,0.9189,1,,,,,,,,,,,,,,m,1,0.9189,,,,,,,,0.005555569,-0.417592606,0,0,0,,0,28,28,65,1,SPINE,HB,m,m,./images/SPINEHB.png,,,,,,,,,,,,,,,,,,,,,,,,,,,,,,,,,,,,
,,,,,,,,,,,,,,,,,614f56ca93028ed09c869a69,59,2022-02-12_16h56.24.709,lexical_decision_task_DD_L6,2021.2.3,Win32,59.35774915,,,,,,,,,,,1.2668,1,,,,,,,,,,,,,,z,1,1.2668,,,,,,,,0.005555569,-0.417592606,0,0,0,,0,29,29,118,1,BAVEL,HB,z,z,./images/BAVELHB.png,,,,,,,,,,,,,,,,,,,,,,,,,,,,,,,,,,,,
,,,,,,,,,,,,,,,,,614f56ca93028ed09c869a69,59,2022-02-12_16h56.24.709,lexical_decision_task_DD_L6,2021.2.3,Win32,59.35774915,,,,,,,,,,,0.8916,1,,,,,,,,,,,,,,z,1,0.8916,,,,,,,,0.005555569,-0.417592606,0,0,0,,0,30,30,138,1,PLICE,C,z,z,./images/PLICE.png,,,,,,,,,,,,,,,,,,,,,,,,,,,,,,,,,,,,
,,,,,,,,,,,,,,,,,614f56ca93028ed09c869a69,59,2022-02-12_16h56.24.709,lexical_decision_task_DD_L6,2021.2.3,Win32,59.35774915,,,,,,,,,,,0.6259,1,,,,,,,,,,,,,,m,1,0.6259,,,,,,,,0.005555569,-0.417592606,0,0,0,,0,31,31,58,1,CANOE,C,m,m,./images/CANOE.png,,,,,,,,,,,,,,,,,,,,,,,,,,,,,,,,,,,,
,,,,,,,,,,,,,,,,,614f56ca93028ed09c869a69,59,2022-02-12_16h56.24.709,lexical_decision_task_DD_L6,2021.2.3,Win32,59.35774915,,,,,,,,,,,1.3229,1,,,,,,,,,,,,,,z,1,1.3229,,,,,,,,0.005555569,-0.417592606,0,0,0,,0,32,32,104,1,GITTY,LB,z,z,./images/GITTYLB.png,,,,,,,,,,,,,,,,,,,,,,,,,,,,,,,,,,,,
,,,,,,,,,,,,,,,,,614f56ca93028ed09c869a69,59,2022-02-12_16h56.24.709,lexical_decision_task_DD_L6,2021.2.3,Win32,59.35774915,,,,,,,,,,,1.1037,1,,,,,,,,,,,,,,z,1,1.1037,,,,,,,,0.005555569,-0.417592606,0,0,0,,0,33,33,160,1,VEETS,HB,z,z,./images/VEETSHB.png,,,,,,,,,,,,,,,,,,,,,,,,,,,,,,,,,,,,
,,,,,,,,,,,,,,,,,614f56ca93028ed09c869a69,59,2022-02-12_16h56.24.709,lexical_decision_task_DD_L6,2021.2.3,Win32,59.35774915,,,,,,,,,,,0.656,1,,,,,,,,,,,,,,m,1,0.656,,,,,,,,0.005555569,-0.417592606,0,0,0,,0,34,34,56,1,HEATER,HB,m,m,./images/HEATERHB.png,,,,,,,,,,,,,,,,,,,,,,,,,,,,,,,,,,,,
,,,,,,,,,,,,,,,,,614f56ca93028ed09c869a69,59,2022-02-12_16h56.24.709,lexical_decision_task_DD_L6,2021.2.3,Win32,59.35774915,,,,,,,,,,,1.5707,1,,,,,,,,,,,,,,z,1,1.5707,,,,,,,,0.005555569,-0.417592606,0,0,0,,0,35,35,155,1,CANGY,LB,z,z,./images/CANGYLB.png,,,,,,,,,,,,,,,,,,,,,,,,,,,,,,,,,,,,
,,,,,,,,,,,,,,,,,614f56ca93028ed09c869a69,59,2022-02-12_16h56.24.709,lexical_decision_task_DD_L6,2021.2.3,Win32,59.35774915,,,,,,,,,,,0.7649,1,,,,,,,,,,,,,,z,1,0.7649,,,,,,,,0.005555569,-0.417592606,0,0,0,,0,36,36,102,1,DULLE,C,z,z,./images/DULLE.png,,,,,,,,,,,,,,,,,,,,,,,,,,,,,,,,,,,,
,,,,,,,,,,,,,,,,,614f56ca93028ed09c869a69,59,2022-02-12_16h56.24.709,lexical_decision_task_DD_L6,2021.2.3,Win32,59.35774915,,,,,,,,,,,0.5862,1,,,,,,,,,,,,,,m,1,0.5862,,,,,,,,0.005555569,-0.417592606,0,0,0,,0,37,37,25,1,CHALK,C,m,m,./images/CHALK.png,,,,,,,,,,,,,,,,,,,,,,,,,,,,,,,,,,,,
,,,,,,,,,,,,,,,,,614f56ca93028ed09c869a69,59,2022-02-12_16h56.24.709,lexical_decision_task_DD_L6,2021.2.3,Win32,59.35774915,,,,,,,,,,,1.029,1,,,,,,,,,,,,,,m,1,1.029,,,,,,,,0.005555569,-0.417592606,0,0,0,,0,38,38,44,1,BASKET,HB,m,m,./images/BASKETHB.png,,,,,,,,,,,,,,,,,,,,,,,,,,,,,,,,,,,,
,,,,,,,,,,,,,,,,,614f56ca93028ed09c869a69,59,2022-02-12_16h56.24.709,lexical_decision_task_DD_L6,2021.2.3,Win32,59.35774915,,,,,,,,,,,1.8224,1,,,,,,,,,,,,,,z,1,1.8224,,,,,,,,0.005555569,-0.417592606,0,0,0,,0,39,39,157,1,INLER,HB,z,z,./images/INLERHB.png,,,,,,,,,,,,,,,,,,,,,,,,,,,,,,,,,,,,
,,,,,,,,,,,,,,,,,614f56ca93028ed09c869a69,59,2022-02-12_16h56.24.709,lexical_decision_task_DD_L6,2021.2.3,Win32,59.35774915,,,,,,,,,,,0.8632,1,,,,,,,,,,,,,,z,1,0.8632,,,,,,,,0.005555569,-0.417592606,0,0,0,,0,40,40,125,1,MOOKY,LB,z,z,./images/MOOKYLB.png,,,,,,,,,,,,,,,,,,,,,,,,,,,,,,,,,,,,
,,,,,,,,,,,,,,,,,614f56ca93028ed09c869a69,59,2022-02-12_16h56.24.709,lexical_decision_task_DD_L6,2021.2.3,Win32,59.35774915,,,,,,,,,,,1.2525,1,,,,,,,,,,,,,,z,1,1.2525,,,,,,,,0.005555569,-0.417592606,0,0,0,space,0,41,41,163,1,GAMBA,HB,z,z,./images/GAMBAHB.png,5.3695,,,,,,,,,,,,,,,,,,,,,,,,,,,,,,,,,,,
,,,,,,,,,,,,,,,,,614f56ca93028ed09c869a69,59,2022-02-12_16h56.24.709,lexical_decision_task_DD_L6,2021.2.3,Win32,59.35774915,,,,,,,,,,,0.61,1,,,,,,,,,,,,,,m,1,0.61,,,,,,,,0.005555569,-0.417592606,0,0,0,,0,42,42,45,1,MONKEY,LB,m,m,./images/MONKEYLB.png,,,,,,,,,,,,,,,,,,,,,,,,,,,,,,,,,,,,
,,,,,,,,,,,,,,,,,614f56ca93028ed09c869a69,59,2022-02-12_16h56.24.709,lexical_decision_task_DD_L6,2021.2.3,Win32,59.35774915,,,,,,,,,,,0.7132,0,,,,,,,,,,,,,,m,0,0.7132,,,,,,,,0.005555569,-0.417592606,0,0,0,,0,43,43,128,1,GRIFT,LB,z,z,./images/GRIFTLB.png,,,,,,,,,,,,,,,,,,,,,,,,,,,,,,,,,,,,
,,,,,,,,,,,,,,,,,614f56ca93028ed09c869a69,59,2022-02-12_16h56.24.709,lexical_decision_task_DD_L6,2021.2.3,Win32,59.35774915,,,,,,,,,,,0.7125,1,,,,,,,,,,,,,,z,1,0.7125,,,,,,,,0.005555569,-0.417592606,0,0,0,,0,44,44,161,1,BLAPS,LB,z,z,./images/BLAPSLB.png,,,,,,,,,,,,,,,,,,,,,,,,,,,,,,,,,,,,
,,,,,,,,,,,,,,,,,614f56ca93028ed09c869a69,59,2022-02-12_16h56.24.709,lexical_decision_task_DD_L6,2021.2.3,Win32,59.35774915,,,,,,,,,,,1.4032,1,,,,,,,,,,,,,,m,1,1.4032,,,,,,,,0.005555569,-0.417592606,0,0,0,,0,45,45,74,1,JUMPER,HB,m,m,./images/JUMPERHB.png,,,,,,,,,,,,,,,,,,,,,,,,,,,,,,,,,,,,
,,,,,,,,,,,,,,,,,614f56ca93028ed09c869a69,59,2022-02-12_16h56.24.709,lexical_decision_task_DD_L6,2021.2.3,Win32,59.35774915,,,,,,,,,,,0.5986,1,,,,,,,,,,,,,,m,1,0.5986,,,,,,,,0.005555569,-0.417592606,0,0,0,,0,46,46,23,1,CLOTH,HB,m,m,./images/CLOTHHB.png,,,,,,,,,,,,,,,,,,,,,,,,,,,,,,,,,,,,
,,,,,,,,,,,,,,,,,614f56ca93028ed09c869a69,59,2022-02-12_16h56.24.709,lexical_decision_task_DD_L6,2021.2.3,Win32,59.35774915,,,,,,,,,,,0.5624,1,,,,,,,,,,,,,,m,1,0.5624,,,,,,,,0.005555569,-0.417592606,0,0,0,,0,47,47,9,1,DIVER,LB,m,m,./images/DIVERLB.png,,,,,,,,,,,,,,,,,,,,,,,,,,,,,,,,,,,,
,,,,,,,,,,,,,,,,,614f56ca93028ed09c869a69,59,2022-02-12_16h56.24.709,lexical_decision_task_DD_L6,2021.2.3,Win32,59.35774915,,,,,,,,,,,0.8193,1,,,,,,,,,,,,,,z,1,0.8193,,,,,,,,0.005555569,-0.417592606,0,0,0,,0,48,48,86,1,AIFED,LB,z,z,./images/AIFEDLB.png,,,,,,,,,,,,,,,,,,,,,,,,,,,,,,,,,,,,
,,,,,,,,,,,,,,,,,614f56ca93028ed09c869a69,59,2022-02-12_16h56.24.709,lexical_decision_task_DD_L6,2021.2.3,Win32,59.35774915,,,,,,,,,,,0.6612,1,,,,,,,,,,,,,,m,1,0.6612,,,,,,,,0.005555569,-0.417592606,0,0,0,,0,49,49,69,1,ARROW,LB,m,m,./images/ARROWLB.png,,,,,,,,,,,,,,,,,,,,,,,,,,,,,,,,,,,,
,,,,,,,,,,,,,,,,,614f56ca93028ed09c869a69,59,2022-02-12_16h56.24.709,lexical_decision_task_DD_L6,2021.2.3,Win32,59.35774915,,,,,,,,,,,0.6517,1,,,,,,,,,,,,,,m,1,0.6517,,,,,,,,0.005555569,-0.417592606,0,0,0,,0,50,50,42,1,CHAIN,LB,m,m,./images/CHAINLB.png,,,,,,,,,,,,,,,,,,,,,,,,,,,,,,,,,,,,
,,,,,,,,,,,,,,,,,614f56ca93028ed09c869a69,59,2022-02-12_16h56.24.709,lexical_decision_task_DD_L6,2021.2.3,Win32,59.35774915,,,,,,,,,,,0.7302,1,,,,,,,,,,,,,,z,1,0.7302,,,,,,,,0.005555569,-0.417592606,0,0,0,,0,51,51,93,1,SMONE,C,z,z,./images/SMONE.png,,,,,,,,,,,,,,,,,,,,,,,,,,,,,,,,,,,,
,,,,,,,,,,,,,,,,,614f56ca93028ed09c869a69,59,2022-02-12_16h56.24.709,lexical_decision_task_DD_L6,2021.2.3,Win32,59.35774915,,,,,,,,,,,0.5775,1,,,,,,,,,,,,,,m,1,0.5775,,,,,,,,0.005555569,-0.417592606,0,0,0,,0,52,52,39,1,CANDY,LB,m,m,./images/CANDYLB.png,,,,,,,,,,,,,,,,,,,,,,,,,,,,,,,,,,,,
,,,,,,,,,,,,,,,,,614f56ca93028ed09c869a69,59,2022-02-12_16h56.24.709,lexical_decision_task_DD_L6,2021.2.3,Win32,59.35774915,,,,,,,,,,,0.6368,1,,,,,,,,,,,,,,z,1,0.6368,,,,,,,,0.005555569,-0.417592606,0,0,0,,0,53,53,96,1,KEAMS,C,z,z,./images/KEAMS.png,,,,,,,,,,,,,,,,,,,,,,,,,,,,,,,,,,,,
,,,,,,,,,,,,,,,,,614f56ca93028ed09c869a69,59,2022-02-12_16h56.24.709,lexical_decision_task_DD_L6,2021.2.3,Win32,59.35774915,,,,,,,,,,,1.0658,1,,,,,,,,,,,,,,m,1,1.0658,,,,,,,,0.005555569,-0.417592606,0,0,0,,0,54,54,32,1,HOCKEY,HB,m,m,./images/HOCKEYHB.png,,,,,,,,,,,,,,,,,,,,,,,,,,,,,,,,,,,,
,,,,,,,,,,,,,,,,,614f56ca93028ed09c869a69,59,2022-02-12_16h56.24.709,lexical_decision_task_DD_L6,2021.2.3,Win32,59.35774915,,,,,,,,,,,0.674,1,,,,,,,,,,,,,,z,1,0.674,,,,,,,,0.005555569,-0.417592606,0,0,0,,0,55,55,116,1,BALGY,LB,z,z,./images/BALGYLB.png,,,,,,,,,,,,,,,,,,,,,,,,,,,,,,,,,,,,
,,,,,,,,,,,,,,,,,614f56ca93028ed09c869a69,59,2022-02-12_16h56.24.709,lexical_decision_task_DD_L6,2021.2.3,Win32,59.35774915,,,,,,,,,,,1.6688,1,,,,,,,,,,,,,,z,1,1.6688,,,,,,,,0.005555569,-0.417592606,0,0,0,,0,56,56,91,1,SHENS,HB,z,z,./images/SHENSHB.png,,,,,,,,,,,,,,,,,,,,,,,,,,,,,,,,,,,,
,,,,,,,,,,,,,,,,,614f56ca93028ed09c869a69,59,2022-02-12_16h56.24.709,lexical_decision_task_DD_L6,2021.2.3,Win32,59.35774915,,,,,,,,,,,0.6178,1,,,,,,,,,,,,,,m,1,0.6178,,,,,,,,0.005555569,-0.417592606,0,0,0,,0,57,57,15,1,COLLAR,LB,m,m,./images/COLLARLB.png,,,,,,,,,,,,,,,,,,,,,,,,,,,,,,,,,,,,
,,,,,,,,,,,,,,,,,614f56ca93028ed09c869a69,59,2022-02-12_16h56.24.709,lexical_decision_task_DD_L6,2021.2.3,Win32,59.35774915,,,,,,,,,,,0.7275,1,,,,,,,,,,,,,,z,1,0.7275,,,,,,,,0.005555569,-0.417592606,0,0,0,,0,58,58,107,1,FASKS,LB,z,z,./images/FASKSLB.png,,,,,,,,,,,,,,,,,,,,,,,,,,,,,,,,,,,,
,,,,,,,,,,,,,,,,,614f56ca93028ed09c869a69,59,2022-02-12_16h56.24.709,lexical_decision_task_DD_L6,2021.2.3,Win32,59.35774915,,,,,,,,,,,0.7601,1,,,,,,,,,,,,,,m,1,0.7601,,,,,,,,0.005555569,-0.417592606,0,0,0,,0,59,59,8,1,CLIFF,HB,m,m,./images/CLIFFHB.png,,,,,,,,,,,,,,,,,,,,,,,,,,,,,,,,,,,,
,,,,,,,,,,,,,,,,,614f56ca93028ed09c869a69,59,2022-02-12_16h56.24.709,lexical_decision_task_DD_L6,2021.2.3,Win32,59.35774915,,,,,,,,,,,0.8874,1,,,,,,,,,,,,,,m,1,0.8874,,,,,,,,0.005555569,-0.417592606,0,0,0,,0,60,60,38,1,ENGINE,HB,m,m,./images/ENGINEHB.png,,,,,,,,,,,,,,,,,,,,,,,,,,,,,,,,,,,,
,,,,,,,,,,,,,,,,,614f56ca93028ed09c869a69,59,2022-02-12_16h56.24.709,lexical_decision_task_DD_L6,2021.2.3,Win32,59.35774915,,,,,,,,,,,0.6035,1,,,,,,,,,,,,,,m,1,0.6035,,,,,,,,0.005555569,-0.417592606,0,0,0,,0,61,61,28,1,CASINO,C,m,m,./images/CASINO.png,,,,,,,,,,,,,,,,,,,,,,,,,,,,,,,,,,,,
,,,,,,,,,,,,,,,,,614f56ca93028ed09c869a69,59,2022-02-12_16h56.24.709,lexical_decision_task_DD_L6,2021.2.3,Win32,59.35774915,,,,,,,,,,,0.6977,1,,,,,,,,,,,,,,z,1,0.6977,,,,,,,,0.005555569,-0.417592606,0,0,0,,0,62,62,110,1,CRUNK,LB,z,z,./images/CRUNKLB.png,,,,,,,,,,,,,,,,,,,,,,,,,,,,,,,,,,,,
,,,,,,,,,,,,,,,,,614f56ca93028ed09c869a69,59,2022-02-12_16h56.24.709,lexical_decision_task_DD_L6,2021.2.3,Win32,59.35774915,,,,,,,,,,,0.7934,1,,,,,,,,,,,,,,z,1,0.7934,,,,,,,,0.005555569,-0.417592606,0,0,0,,0,63,63,126,1,GUELS,C,z,z,./images/GUELS.png,,,,,,,,,,,,,,,,,,,,,,,,,,,,,,,,,,,,
,,,,,,,,,,,,,,,,,614f56ca93028ed09c869a69,59,2022-02-12_16h56.24.709,lexical_decision_task_DD_L6,2021.2.3,Win32,59.35774915,,,,,,,,,,,0.6091,1,,,,,,,,,,,,,,z,1,0.6091,,,,,,,,0.005555569,-0.417592606,0,0,0,,0,64,64,135,1,JOODY,C,z,z,./images/JOODY.png,,,,,,,,,,,,,,,,,,,,,,,,,,,,,,,,,,,,
,,,,,,,,,,,,,,,,,614f56ca93028ed09c869a69,59,2022-02-12_16h56.24.709,lexical_decision_task_DD_L6,2021.2.3,Win32,59.35774915,,,,,,,,,,,0.5613,1,,,,,,,,,,,,,,m,1,0.5613,,,,,,,,0.005555569,-0.417592606,0,0,0,,0,65,65,7,1,WAGON,C,m,m,./images/WAGON.png,,,,,,,,,,,,,,,,,,,,,,,,,,,,,,,,,,,,
,,,,,,,,,,,,,,,,,614f56ca93028ed09c869a69,59,2022-02-12_16h56.24.709,lexical_decision_task_DD_L6,2021.2.3,Win32,59.35774915,,,,,,,,,,,0.7645,1,,,,,,,,,,,,,,z,1,0.7645,,,,,,,,0.005555569,-0.417592606,0,0,0,,0,66,66,111,1,HOSSE,C,z,z,./images/HOSSE.png,,,,,,,,,,,,,,,,,,,,,,,,,,,,,,,,,,,,
,,,,,,,,,,,,,,,,,614f56ca93028ed09c869a69,59,2022-02-12_16h56.24.709,lexical_decision_task_DD_L6,2021.2.3,Win32,59.35774915,,,,,,,,,,,0.7136,1,,,,,,,,,,,,,,m,1,0.7136,,,,,,,,0.005555569,-0.417592606,0,0,0,,0,67,67,29,1,PISTOL,HB,m,m,./images/PISTOLHB.png,,,,,,,,,,,,,,,,,,,,,,,,,,,,,,,,,,,,
,,,,,,,,,,,,,,,,,614f56ca93028ed09c869a69,59,2022-02-12_16h56.24.709,lexical_decision_task_DD_L6,2021.2.3,Win32,59.35774915,,,,,,,,,,,2.2491,1,,,,,,,,,,,,,,z,1,2.2491,,,,,,,,0.005555569,-0.417592606,0,0,0,,0,68,68,97,1,CHIDS,HB,z,z,./images/CHIDSHB.png,,,,,,,,,,,,,,,,,,,,,,,,,,,,,,,,,,,,
,,,,,,,,,,,,,,,,,614f56ca93028ed09c869a69,59,2022-02-12_16h56.24.709,lexical_decision_task_DD_L6,2021.2.3,Win32,59.35774915,,,,,,,,,,,1.2355,1,,,,,,,,,,,,,,z,1,1.2355,,,,,,,,0.005555569,-0.417592606,0,0,0,,0,69,69,154,1,THINT,HB,z,z,./images/THINTHB.png,,,,,,,,,,,,,,,,,,,,,,,,,,,,,,,,,,,,
,,,,,,,,,,,,,,,,,614f56ca93028ed09c869a69,59,2022-02-12_16h56.24.709,lexical_decision_task_DD_L6,2021.2.3,Win32,59.35774915,,,,,,,,,,,1.0604,1,,,,,,,,,,,,,,z,1,1.0604,,,,,,,,0.005555569,-0.417592606,0,0,0,,0,70,70,148,1,JOMS,HB,z,z,./images/JOMSHB.png,,,,,,,,,,,,,,,,,,,,,,,,,,,,,,,,,,,,
,,,,,,,,,,,,,,,,,614f56ca93028ed09c869a69,59,2022-02-12_16h56.24.709,lexical_decision_task_DD_L6,2021.2.3,Win32,59.35774915,,,,,,,,,,,0.9357,1,,,,,,,,,,,,,,z,1,0.9357,,,,,,,,0.005555569,-0.417592606,0,0,0,,0,71,71,145,1,LAMEL,HB,z,z,./images/LAMELHB.png,,,,,,,,,,,,,,,,,,,,,,,,,,,,,,,,,,,,
,,,,,,,,,,,,,,,,,614f56ca93028ed09c869a69,59,2022-02-12_16h56.24.709,lexical_decision_task_DD_L6,2021.2.3,Win32,59.35774915,,,,,,,,,,,0.5281,1,,,,,,,,,,,,,,m,1,0.5281,,,,,,,,0.005555569,-0.417592606,0,0,0,,0,72,72,16,1,GRAPE,C,m,m,./images/GRAPE.png,,,,,,,,,,,,,,,,,,,,,,,,,,,,,,,,,,,,
,,,,,,,,,,,,,,,,,614f56ca93028ed09c869a69,59,2022-02-12_16h56.24.709,lexical_decision_task_DD_L6,2021.2.3,Win32,59.35774915,,,,,,,,,,,0.6111,1,,,,,,,,,,,,,,m,1,0.6111,,,,,,,,0.005555569,-0.417592606,0,0,0,,0,73,73,60,1,CURRY,LB,m,m,./images/CURRYLB.png,,,,,,,,,,,,,,,,,,,,,,,,,,,,,,,,,,,,
,,,,,,,,,,,,,,,,,614f56ca93028ed09c869a69,59,2022-02-12_16h56.24.709,lexical_decision_task_DD_L6,2021.2.3,Win32,59.35774915,,,,,,,,,,,0.5053,1,,,,,,,,,,,,,,m,1,0.5053,,,,,,,,0.006481551,-0.417592606,0,0,0,,0,74,74,63,1,BAKER,LB,m,m,./images/BAKERLB.png,,,,,,,,,,,,,,,,,,,,,,,,,,,,,,,,,,,,
,,,,,,,,,,,,,,,,,614f56ca93028ed09c869a69,59,2022-02-12_16h56.24.709,lexical_decision_task_DD_L6,2021.2.3,Win32,59.35774915,,,,,,,,,,,0.7216,1,,,,,,,,,,,,,,m,1,0.7216,,,,,,,,0.006481551,-0.417592606,0,0,0,,0,75,75,26,1,CLOUD,HB,m,m,./images/CLOUDHB.png,,,,,,,,,,,,,,,,,,,,,,,,,,,,,,,,,,,,
,,,,,,,,,,,,,,,,,614f56ca93028ed09c869a69,59,2022-02-12_16h56.24.709,lexical_decision_task_DD_L6,2021.2.3,Win32,59.35774915,,,,,,,,,,,0.6921,1,,,,,,,,,,,,,,z,1,0.6921,,,,,,,,0.007407421,-0.417592606,0,0,0,,0,76,76,141,1,PLEET,C,z,z,./images/PLEET.png,,,,,,,,,,,,,,,,,,,,,,,,,,,,,,,,,,,,
,,,,,,,,,,,,,,,,,614f56ca93028ed09c869a69,59,2022-02-12_16h56.24.709,lexical_decision_task_DD_L6,2021.2.3,Win32,59.35774915,,,,,,,,,,,0.7198,1,,,,,,,,,,,,,,m,1,0.7198,,,,,,,,0.007407421,-0.417592606,0,0,0,,0,77,77,33,1,SAUNA,LB,m,m,./images/SAUNALB.png,,,,,,,,,,,,,,,,,,,,,,,,,,,,,,,,,,,,
,,,,,,,,,,,,,,,,,614f56ca93028ed09c869a69,59,2022-02-12_16h56.24.709,lexical_decision_task_DD_L6,2021.2.3,Win32,59.35774915,,,,,,,,,,,1.0859,1,,,,,,,,,,,,,,z,1,1.0859,,,,,,,,0.007407421,-0.417592606,0,0,0,,0,78,78,95,1,HANTY,LB,z,z,./images/HANTYLB.png,,,,,,,,,,,,,,,,,,,,,,,,,,,,,,,,,,,,
,,,,,,,,,,,,,,,,,614f56ca93028ed09c869a69,59,2022-02-12_16h56.24.709,lexical_decision_task_DD_L6,2021.2.3,Win32,59.35774915,,,,,,,,,,,0.6919,1,,,,,,,,,,,,,,z,1,0.6919,,,,,,,,0.007407421,-0.417592606,0,0,0,,0,79,79,105,1,MOKER,C,z,z,./images/MOKER.png,,,,,,,,,,,,,,,,,,,,,,,,,,,,,,,,,,,,
,,,,,,,,,,,,,,,,,614f56ca93028ed09c869a69,59,2022-02-12_16h56.24.709,lexical_decision_task_DD_L6,2021.2.3,Win32,59.35774915,,,,,,,,,,,0.6275,1,,,,,,,,,,,,,,m,1,0.6275,,,,,,,,0.007407421,-0.417592606,0,0,0,,0,80,80,54,1,CHERRY,LB,m,m,./images/CHERRYLB.png,,,,,,,,,,,,,,,,,,,,,,,,,,,,,,,,,,,,
,,,,,,,,,,,,,,,,,614f56ca93028ed09c869a69,59,2022-02-12_16h56.24.709,lexical_decision_task_DD_L6,2021.2.3,Win32,59.35774915,,,,,,,,,,,0.5581,1,,,,,,,,,,,,,,m,1,0.5581,,,,,,,,0.008333347,-0.417592606,0,0,0,,0,81,81,55,1,ALLEY,C,m,m,./images/ALLEY.png,,,,,,,,,,,,,,,,,,,,,,,,,,,,,,,,,,,,
,,,,,,,,,,,,,,,,,614f56ca93028ed09c869a69,59,2022-02-12_16h56.24.709,lexical_decision_task_DD_L6,2021.2.3,Win32,59.35774915,,,,,,,,,,,0.759,1,,,,,,,,,,,,,,z,1,0.759,,,,,,,,0.008333347,-0.417592606,0,0,0,,0,82,82,84,1,HAXES,C,z,z,./images/HAXES.png,,,,,,,,,,,,,,,,,,,,,,,,,,,,,,,,,,,,
,,,,,,,,,,,,,,,,,614f56ca93028ed09c869a69,59,2022-02-12_16h56.24.709,lexical_decision_task_DD_L6,2021.2.3,Win32,59.35774915,,,,,,,,,,,0.7998,1,,,,,,,,,,,,,,z,1,0.7998,,,,,,,,0.009259273,-0.417592606,0,0,0,space,0,83,83,156,1,HIXES,C,z,z,./images/HIXES.png,2.4061,,,,,,,,,,,,,,,,,,,,,,,,,,,,,,,,,,,
,,,,,,,,,,,,,,,,,614f56ca93028ed09c869a69,59,2022-02-12_16h56.24.709,lexical_decision_task_DD_L6,2021.2.3,Win32,59.35774915,,,,,,,,,,,0.8629,1,,,,,,,,,,,,,,z,1,0.8629,,,,,,,,0.009259273,-0.417592606,0,0,0,,0,84,84,88,1,GLUSH,HB,z,z,./images/GLUSHHB.png,,,,,,,,,,,,,,,,,,,,,,,,,,,,,,,,,,,,
,,,,,,,,,,,,,,,,,614f56ca93028ed09c869a69,59,2022-02-12_16h56.24.709,lexical_decision_task_DD_L6,2021.2.3,Win32,59.35774915,,,,,,,,,,,0.6043,1,,,,,,,,,,,,,,m,1,0.6043,,,,,,,,0.009259273,-0.417592606,0,0,0,,0,85,85,34,1,RAZOR,C,m,m,./images/RAZOR.png,,,,,,,,,,,,,,,,,,,,,,,,,,,,,,,,,,,,
,,,,,,,,,,,,,,,,,614f56ca93028ed09c869a69,59,2022-02-12_16h56.24.709,lexical_decision_task_DD_L6,2021.2.3,Win32,59.35774915,,,,,,,,,,,0.7124,1,,,,,,,,,,,,,,z,1,0.7124,,,,,,,,0.009259273,-0.417592606,0,0,0,,0,86,86,134,1,TROSS,LB,z,z,./images/TROSSLB.png,,,,,,,,,,,,,,,,,,,,,,,,,,,,,,,,,,,,
,,,,,,,,,,,,,,,,,614f56ca93028ed09c869a69,59,2022-02-12_16h56.24.709,lexical_decision_task_DD_L6,2021.2.3,Win32,59.35774915,,,,,,,,,,,0.6231,1,,,,,,,,,,,,,,m,1,0.6231,,,,,,,,0.011111181,-0.418518589,0,0,0,,0,87,87,57,1,FERRY,LB,m,m,./images/FERRYLB.png,,,,,,,,,,,,,,,,,,,,,,,,,,,,,,,,,,,,
,,,,,,,,,,,,,,,,,614f56ca93028ed09c869a69,59,2022-02-12_16h56.24.709,lexical_decision_task_DD_L6,2021.2.3,Win32,59.35774915,,,,,,,,,,,1.0651,1,,,,,,,,,,,,,,m,1,1.0651,,,,,,,,0.011111181,-0.419444458,0,0,0,,0,88,88,50,1,PILOT,HB,m,m,./images/PILOTHB.png,,,,,,,,,,,,,,,,,,,,,,,,,,,,,,,,,,,,
,,,,,,,,,,,,,,,,,614f56ca93028ed09c869a69,59,2022-02-12_16h56.24.709,lexical_decision_task_DD_L6,2021.2.3,Win32,59.35774915,,,,,,,,,,,0.5328,1,,,,,,,,,,,,,,m,1,0.5328,,,,,,,,0.011111181,-0.418518589,0,0,0,,0,89,89,43,1,STOOL,C,m,m,./images/STOOL.png,,,,,,,,,,,,,,,,,,,,,,,,,,,,,,,,,,,,
,,,,,,,,,,,,,,,,,614f56ca93028ed09c869a69,59,2022-02-12_16h56.24.709,lexical_decision_task_DD_L6,2021.2.3,Win32,59.35774915,,,,,,,,,,,0.6952,1,,,,,,,,,,,,,,m,1,0.6952,,,,,,,,0.011111181,-0.418518589,0,0,0,,0,90,90,83,1,WHISKY,HB,m,m,./images/WHISKYHB.png,,,,,,,,,,,,,,,,,,,,,,,,,,,,,,,,,,,,
,,,,,,,,,,,,,,,,,614f56ca93028ed09c869a69,59,2022-02-12_16h56.24.709,lexical_decision_task_DD_L6,2021.2.3,Win32,59.35774915,,,,,,,,,,,0.6764,1,,,,,,,,,,,,,,m,1,0.6764,,,,,,,,0.011111181,-0.418518589,0,0,0,,0,91,91,5,1,BAMBOO,HB,m,m,./images/BAMBOOHB.png,,,,,,,,,,,,,,,,,,,,,,,,,,,,,,,,,,,,
,,,,,,,,,,,,,,,,,614f56ca93028ed09c869a69,59,2022-02-12_16h56.24.709,lexical_decision_task_DD_L6,2021.2.3,Win32,59.35774915,,,,,,,,,,,0.545,1,,,,,,,,,,,,,,m,1,0.545,,,,,,,,0.011111181,-0.418518589,0,0,0,,0,92,92,10,1,GARDEN,C,m,m,./images/GARDEN.png,,,,,,,,,,,,,,,,,,,,,,,,,,,,,,,,,,,,
,,,,,,,,,,,,,,,,,614f56ca93028ed09c869a69,59,2022-02-12_16h56.24.709,lexical_decision_task_DD_L6,2021.2.3,Win32,59.35774915,,,,,,,,,,,0.751,1,,,,,,,,,,,,,,m,1,0.751,,,,,,,,0.011111181,-0.418518589,0,0,0,,0,93,93,46,1,MUMMY,C,m,m,./images/MUMMY.png,,,,,,,,,,,,,,,,,,,,,,,,,,,,,,,,,,,,
,,,,,,,,,,,,,,,,,614f56ca93028ed09c869a69,59,2022-02-12_16h56.24.709,lexical_decision_task_DD_L6,2021.2.3,Win32,59.35774915,,,,,,,,,,,0.6611,1,,,,,,,,,,,,,,m,1,0.6611,,,,,,,,0.011111181,-0.418518589,0,0,0,,0,94,94,13,1,BUNNY,C,m,m,./images/BUNNY.png,,,,,,,,,,,,,,,,,,,,,,,,,,,,,,,,,,,,
,,,,,,,,,,,,,,,,,614f56ca93028ed09c869a69,59,2022-02-12_16h56.24.709,lexical_decision_task_DD_L6,2021.2.3,Win32,59.35774915,,,,,,,,,,,0.6433,1,,,,,,,,,,,,,,z,1,0.6433,,,,,,,,0.011111181,-0.418518589,0,0,0,,0,95,95,164,1,SGREW,LB,z,z,./images/SGREWLB.png,,,,,,,,,,,,,,,,,,,,,,,,,,,,,,,,,,,,
,,,,,,,,,,,,,,,,,614f56ca93028ed09c869a69,59,2022-02-12_16h56.24.709,lexical_decision_task_DD_L6,2021.2.3,Win32,59.35774915,,,,,,,,,,,0.6182,1,,,,,,,,,,,,,,m,1,0.6182,,,,,,,,0.011111181,-0.418518589,0,0,0,,0,96,96,4,1,BOXER,C,m,m,./images/BOXER.png,,,,,,,,,,,,,,,,,,,,,,,,,,,,,,,,,,,,
,,,,,,,,,,,,,,,,,614f56ca93028ed09c869a69,59,2022-02-12_16h56.24.709,lexical_decision_task_DD_L6,2021.2.3,Win32,59.35774915,,,,,,,,,,,0.7798,1,,,,,,,,,,,,,,z,1,0.7798,,,,,,,,0.011111181,-0.418518589,0,0,0,,0,97,97,162,1,LEICH,C,z,z,./images/LEICH.png,,,,,,,,,,,,,,,,,,,,,,,,,,,,,,,,,,,,
,,,,,,,,,,,,,,,,,614f56ca93028ed09c869a69,59,2022-02-12_16h56.24.709,lexical_decision_task_DD_L6,2021.2.3,Win32,59.35774915,,,,,,,,,,,0.6692,1,,,,,,,,,,,,,,m,1,0.6692,,,,,,,,0.010185199,-0.418518589,0,0,0,,0,98,98,36,1,BOILER,LB,m,m,./images/BOILERLB.png,,,,,,,,,,,,,,,,,,,,,,,,,,,,,,,,,,,,
,,,,,,,,,,,,,,,,,614f56ca93028ed09c869a69,59,2022-02-12_16h56.24.709,lexical_decision_task_DD_L6,2021.2.3,Win32,59.35774915,,,,,,,,,,,0.7782,1,,,,,,,,,,,,,,z,1,0.7782,,,,,,,,0.010185199,-0.418518589,0,0,0,,0,99,99,103,1,FLORT,HB,z,z,./images/FLORTHB.png,,,,,,,,,,,,,,,,,,,,,,,,,,,,,,,,,,,,
,,,,,,,,,,,,,,,,,614f56ca93028ed09c869a69,59,2022-02-12_16h56.24.709,lexical_decision_task_DD_L6,2021.2.3,Win32,59.35774915,,,,,,,,,,,0.6967,1,,,,,,,,,,,,,,m,1,0.6967,,,,,,,,0.010185199,-0.418518589,0,0,0,,0,100,100,68,1,VALLEY,HB,m,m,./images/VALLEYHB.png,,,,,,,,,,,,,,,,,,,,,,,,,,,,,,,,,,,,
,,,,,,,,,,,,,,,,,614f56ca93028ed09c869a69,59,2022-02-12_16h56.24.709,lexical_decision_task_DD_L6,2021.2.3,Win32,59.35774915,,,,,,,,,,,0.5548,1,,,,,,,,,,,,,,m,1,0.5548,,,,,,,,0.010185199,-0.418518589,0,0,0,,0,101,101,52,1,DESERT,C,m,m,./images/DESERT.png,,,,,,,,,,,,,,,,,,,,,,,,,,,,,,,,,,,,
,,,,,,,,,,,,,,,,,614f56ca93028ed09c869a69,59,2022-02-12_16h56.24.709,lexical_decision_task_DD_L6,2021.2.3,Win32,59.35774915,,,,,,,,,,,0.686,1,,,,,,,,,,,,,,z,1,0.686,,,,,,,,0.010185199,-0.418518589,0,0,0,,0,102,102,167,1,ZONET,LB,z,z,./images/ZONETLB.png,,,,,,,,,,,,,,,,,,,,,,,,,,,,,,,,,,,,
,,,,,,,,,,,,,,,,,614f56ca93028ed09c869a69,59,2022-02-12_16h56.24.709,lexical_decision_task_DD_L6,2021.2.3,Win32,59.35774915,,,,,,,,,,,0.6606,1,,,,,,,,,,,,,,z,1,0.6606,,,,,,,,0.010185199,-0.418518589,0,0,0,,0,103,103,123,1,SEDGE,C,z,z,./images/SEDGE.png,,,,,,,,,,,,,,,,,,,,,,,,,,,,,,,,,,,,
,,,,,,,,,,,,,,,,,614f56ca93028ed09c869a69,59,2022-02-12_16h56.24.709,lexical_decision_task_DD_L6,2021.2.3,Win32,59.35774915,,,,,,,,,,,1.7339,1,,,,,,,,,,,,,,z,1,1.7339,,,,,,,,0.010185199,-0.418518589,0,0,0,,0,104,104,112,1,MYING,HB,z,z,./images/MYINGHB.png,,,,,,,,,,,,,,,,,,,,,,,,,,,,,,,,,,,,
,,,,,,,,,,,,,,,,,614f56ca93028ed09c869a69,59,2022-02-12_16h56.24.709,lexical_decision_task_DD_L6,2021.2.3,Win32,59.35774915,,,,,,,,,,,0.6724,1,,,,,,,,,,,,,,m,1,0.6724,,,,,,,,0.010185199,-0.418518589,0,0,0,,0,105,105,59,1,BRUSH,HB,m,m,./images/BRUSHHB.png,,,,,,,,,,,,,,,,,,,,,,,,,,,,,,,,,,,,
,,,,,,,,,,,,,,,,,614f56ca93028ed09c869a69,59,2022-02-12_16h56.24.709,lexical_decision_task_DD_L6,2021.2.3,Win32,59.35774915,,,,,,,,,,,1.7344,1,,,,,,,,,,,,,,z,1,1.7344,,,,,,,,0.010185199,-0.418518589,0,0,0,,0,106,106,136,1,WERVE,HB,z,z,./images/WERVEHB.png,,,,,,,,,,,,,,,,,,,,,,,,,,,,,,,,,,,,
,,,,,,,,,,,,,,,,,614f56ca93028ed09c869a69,59,2022-02-12_16h56.24.709,lexical_decision_task_DD_L6,2021.2.3,Win32,59.35774915,,,,,,,,,,,0.9914,1,,,,,,,,,,,,,,z,1,0.9914,,,,,,,,0.010185199,-0.418518589,0,0,0,,0,107,107,153,1,CLUPS,C,z,z,./images/CLUPS.png,,,,,,,,,,,,,,,,,,,,,,,,,,,,,,,,,,,,
,,,,,,,,,,,,,,,,,614f56ca93028ed09c869a69,59,2022-02-12_16h56.24.709,lexical_decision_task_DD_L6,2021.2.3,Win32,59.35774915,,,,,,,,,,,0.6276,1,,,,,,,,,,,,,,m,1,0.6276,,,,,,,,0.010185199,-0.418518589,0,0,0,,0,108,108,76,1,MIDGET,C,m,m,./images/MIDGET.png,,,,,,,,,,,,,,,,,,,,,,,,,,,,,,,,,,,,
,,,,,,,,,,,,,,,,,614f56ca93028ed09c869a69,59,2022-02-12_16h56.24.709,lexical_decision_task_DD_L6,2021.2.3,Win32,59.35774915,,,,,,,,,,,0.7444,1,,,,,,,,,,,,,,z,1,0.7444,,,,,,,,0.010185199,-0.418518589,0,0,0,,0,109,109,152,1,FRAIN,LB,z,z,./images/FRAINLB.png,,,,,,,,,,,,,,,,,,,,,,,,,,,,,,,,,,,,
,,,,,,,,,,,,,,,,,614f56ca93028ed09c869a69,59,2022-02-12_16h56.24.709,lexical_decision_task_DD_L6,2021.2.3,Win32,59.35774915,,,,,,,,,,,0.6139,1,,,,,,,,,,,,,,m,1,0.6139,,,,,,,,0.010185199,-0.418518589,0,0,0,,0,110,110,27,1,BUTTER,LB,m,m,./images/BUTTERLB.png,,,,,,,,,,,,,,,,,,,,,,,,,,,,,,,,,,,,
,,,,,,,,,,,,,,,,,614f56ca93028ed09c869a69,59,2022-02-12_16h56.24.709,lexical_decision_task_DD_L6,2021.2.3,Win32,59.35774915,,,,,,,,,,,0.7635,1,,,,,,,,,,,,,,m,1,0.7635,,,,,,,,0.010185199,-0.418518589,0,0,0,,0,111,111,11,1,MEDAL,HB,m,m,./images/MEDALHB.png,,,,,,,,,,,,,,,,,,,,,,,,,,,,,,,,,,,,
,,,,,,,,,,,,,,,,,614f56ca93028ed09c869a69,59,2022-02-12_16h56.24.709,lexical_decision_task_DD_L6,2021.2.3,Win32,59.35774915,,,,,,,,,,,0.4627,1,,,,,,,,,,,,,,m,1,0.4627,,,,,,,,0.010185199,-0.418518589,0,0,0,,0,112,112,40,1,SNAKE,C,m,m,./images/SNAKE.png,,,,,,,,,,,,,,,,,,,,,,,,,,,,,,,,,,,,
,,,,,,,,,,,,,,,,,614f56ca93028ed09c869a69,59,2022-02-12_16h56.24.709,lexical_decision_task_DD_L6,2021.2.3,Win32,59.35774915,,,,,,,,,,,0.7305,1,,,,,,,,,,,,,,z,1,0.7305,,,,,,,,0.010185199,-0.418518589,0,0,0,,0,113,113,131,1,NACES,LB,z,z,./images/NACESLB.png,,,,,,,,,,,,,,,,,,,,,,,,,,,,,,,,,,,,
,,,,,,,,,,,,,,,,,614f56ca93028ed09c869a69,59,2022-02-12_16h56.24.709,lexical_decision_task_DD_L6,2021.2.3,Win32,59.35774915,,,,,,,,,,,0.6509,1,,,,,,,,,,,,,,m,1,0.6509,,,,,,,,0.010185199,-0.418518589,0,0,0,,0,114,114,24,1,FLESH,LB,m,m,./images/FLESHLB.png,,,,,,,,,,,,,,,,,,,,,,,,,,,,,,,,,,,,
,,,,,,,,,,,,,,,,,614f56ca93028ed09c869a69,59,2022-02-12_16h56.24.709,lexical_decision_task_DD_L6,2021.2.3,Win32,59.35774915,,,,,,,,,,,0.5161,1,,,,,,,,,,,,,,m,1,0.5161,,,,,,,,0.010185199,-0.418518589,0,0,0,,0,115,115,22,1,CLOWN,C,m,m,./images/CLOWN.png,,,,,,,,,,,,,,,,,,,,,,,,,,,,,,,,,,,,
,,,,,,,,,,,,,,,,,614f56ca93028ed09c869a69,59,2022-02-12_16h56.24.709,lexical_decision_task_DD_L6,2021.2.3,Win32,59.35774915,,,,,,,,,,,0.5432,1,,,,,,,,,,,,,,m,1,0.5432,,,,,,,,0.010185199,-0.418518589,0,0,0,,0,116,116,18,1,PARCEL,LB,m,m,./images/PARCELLB.png,,,,,,,,,,,,,,,,,,,,,,,,,,,,,,,,,,,,
,,,,,,,,,,,,,,,,,614f56ca93028ed09c869a69,59,2022-02-12_16h56.24.709,lexical_decision_task_DD_L6,2021.2.3,Win32,59.35774915,,,,,,,,,,,0.8834,1,,,,,,,,,,,,,,m,1,0.8834,,,,,,,,0.010185199,-0.418518589,0,0,0,,0,117,117,2,1,STOVE,HB,m,m,./images/STOVEHB.png,,,,,,,,,,,,,,,,,,,,,,,,,,,,,,,,,,,,
,,,,,,,,,,,,,,,,,614f56ca93028ed09c869a69,59,2022-02-12_16h56.24.709,lexical_decision_task_DD_L6,2021.2.3,Win32,59.35774915,,,,,,,,,,,0.643,1,,,,,,,,,,,,,,z,1,0.643,,,,,,,,0.010185199,-0.418518589,0,0,0,,0,118,118,99,1,BACKY,C,z,z,./images/BACKY.png,,,,,,,,,,,,,,,,,,,,,,,,,,,,,,,,,,,,
,,,,,,,,,,,,,,,,,614f56ca93028ed09c869a69,59,2022-02-12_16h56.24.709,lexical_decision_task_DD_L6,2021.2.3,Win32,59.35774915,,,,,,,,,,,0.9519,1,,,,,,,,,,,,,,z,1,0.9519,,,,,,,,0.010185199,-0.418518589,0,0,0,,0,119,119,142,1,PLASK,HB,z,z,./images/PLASKHB.png,,,,,,,,,,,,,,,,,,,,,,,,,,,,,,,,,,,,
,,,,,,,,,,,,,,,,,614f56ca93028ed09c869a69,59,2022-02-12_16h56.24.709,lexical_decision_task_DD_L6,2021.2.3,Win32,59.35774915,,,,,,,,,,,1.7491,1,,,,,,,,,,,,,,m,1,1.7491,,,,,,,,0.010185199,-0.418518589,0,0,0,,0,120,120,62,1,MAMMAL,HB,m,m,./images/MAMMALHB.png,,,,,,,,,,,,,,,,,,,,,,,,,,,,,,,,,,,,
,,,,,,,,,,,,,,,,,614f56ca93028ed09c869a69,59,2022-02-12_16h56.24.709,lexical_decision_task_DD_L6,2021.2.3,Win32,59.35774915,,,,,,,,,,,0.5112,1,,,,,,,,,,,,,,m,1,0.5112,,,,,,,,0.011111181,-0.417592606,0,0,0,,0,121,121,30,1,SLOPE,LB,m,m,./images/SLOPELB.png,,,,,,,,,,,,,,,,,,,,,,,,,,,,,,,,,,,,
,,,,,,,,,,,,,,,,,614f56ca93028ed09c869a69,59,2022-02-12_16h56.24.709,lexical_decision_task_DD_L6,2021.2.3,Win32,59.35774915,,,,,,,,,,,1.5367,1,,,,,,,,,,,,,,m,1,1.5367,,,,,,,,0.011111181,-0.417592606,0,0,0,,0,122,122,80,1,PLANET,HB,m,m,./images/PLANETHB.png,,,,,,,,,,,,,,,,,,,,,,,,,,,,,,,,,,,,
,,,,,,,,,,,,,,,,,614f56ca93028ed09c869a69,59,2022-02-12_16h56.24.709,lexical_decision_task_DD_L6,2021.2.3,Win32,59.35774915,,,,,,,,,,,0.7832,1,,,,,,,,,,,,,,z,1,0.7832,,,,,,,,0.010185199,-0.41666668,0,0,0,,0,123,123,122,1,BLOOT,LB,z,z,./images/BLOOTLB.png,,,,,,,,,,,,,,,,,,,,,,,,,,,,,,,,,,,,
,,,,,,,,,,,,,,,,,614f56ca93028ed09c869a69,59,2022-02-12_16h56.24.709,lexical_decision_task_DD_L6,2021.2.3,Win32,59.35774915,,,,,,,,,,,0.8611,1,,,,,,,,,,,,,,z,1,0.8611,,,,,,,,0.010185199,-0.41666668,0,0,0,,0,124,124,92,1,PAIMS,LB,z,z,./images/PAIMSLB.png,,,,,,,,,,,,,,,,,,,,,,,,,,,,,,,,,,,,
,,,,,,,,,,,,,,,,,614f56ca93028ed09c869a69,59,2022-02-12_16h56.24.709,lexical_decision_task_DD_L6,2021.2.3,Win32,59.35774915,,,,,,,,,,,0.5686,1,,,,,,,,,,,,,,m,1,0.5686,,,,,,,,0.013888902,-0.418518589,0,0,0,space,0,125,125,19,1,DONKEY,C,m,m,./images/DONKEY.png,1.6639,,,,,,,,,,,,,,,,,,,,,,,,,,,,,,,,,,,
,,,,,,,,,,,,,,,,,614f56ca93028ed09c869a69,59,2022-02-12_16h56.24.709,lexical_decision_task_DD_L6,2021.2.3,Win32,59.35774915,,,,,,,,,,,0.7623,1,,,,,,,,,,,,,,z,1,0.7623,,,,,,,,0.013888902,-0.418518589,0,0,0,,0,126,126,147,1,ZOLES,C,z,z,./images/ZOLES.png,,,,,,,,,,,,,,,,,,,,,,,,,,,,,,,,,,,,
,,,,,,,,,,,,,,,,,614f56ca93028ed09c869a69,59,2022-02-12_16h56.24.709,lexical_decision_task_DD_L6,2021.2.3,Win32,59.35774915,,,,,,,,,,,0.5431,1,,,,,,,,,,,,,,z,1,0.5431,,,,,,,,0.013888902,-0.418518589,0,0,0,,0,127,127,150,1,NOOLS,C,z,z,./images/NOOLS.png,,,,,,,,,,,,,,,,,,,,,,,,,,,,,,,,,,,,
,,,,,,,,,,,,,,,,,614f56ca93028ed09c869a69,59,2022-02-12_16h56.24.709,lexical_decision_task_DD_L6,2021.2.3,Win32,59.35774915,,,,,,,,,,,0.4793,1,,,,,,,,,,,,,,m,1,0.4793,,,,,,,,0.013888902,-0.418518589,0,0,0,,0,128,128,64,1,BRIDE,C,m,m,./images/BRIDE.png,,,,,,,,,,,,,,,,,,,,,,,,,,,,,,,,,,,,
,,,,,,,,,,,,,,,,,614f56ca93028ed09c869a69,59,2022-02-12_16h56.24.709,lexical_decision_task_DD_L6,2021.2.3,Win32,59.35774915,,,,,,,,,,,0.5793,1,,,,,,,,,,,,,,m,1,0.5793,,,,,,,,0.013888902,-0.418518589,0,0,0,,0,129,129,6,1,STAIN,LB,m,m,./images/STAINLB.png,,,,,,,,,,,,,,,,,,,,,,,,,,,,,,,,,,,,
,,,,,,,,,,,,,,,,,614f56ca93028ed09c869a69,59,2022-02-12_16h56.24.709,lexical_decision_task_DD_L6,2021.2.3,Win32,59.35774915,,,,,,,,,,,0.6638,1,,,,,,,,,,,,,,z,1,0.6638,,,,,,,,0.013888902,-0.418518589,0,0,0,,0,130,130,149,1,VEASE,LB,z,z,./images/VEASELB.png,,,,,,,,,,,,,,,,,,,,,,,,,,,,,,,,,,,,
,,,,,,,,,,,,,,,,,614f56ca93028ed09c869a69,59,2022-02-12_16h56.24.709,lexical_decision_task_DD_L6,2021.2.3,Win32,59.35774915,,,,,,,,,,,0.8005,1,,,,,,,,,,,,,,m,1,0.8005,,,,,,,,0.013888902,-0.418518589,0,0,0,,0,131,131,20,1,GRANNY,HB,m,m,./images/GRANNYHB.png,,,,,,,,,,,,,,,,,,,,,,,,,,,,,,,,,,,,
,,,,,,,,,,,,,,,,,614f56ca93028ed09c869a69,59,2022-02-12_16h56.24.709,lexical_decision_task_DD_L6,2021.2.3,Win32,59.35774915,,,,,,,,,,,0.96,1,,,,,,,,,,,,,,m,1,0.96,,,,,,,,0.012962976,-0.418518589,0,0,0,,0,132,132,47,1,LAGOON,HB,m,m,./images/LAGOONHB.png,,,,,,,,,,,,,,,,,,,,,,,,,,,,,,,,,,,,
,,,,,,,,,,,,,,,,,614f56ca93028ed09c869a69,59,2022-02-12_16h56.24.709,lexical_decision_task_DD_L6,2021.2.3,Win32,59.35774915,,,,,,,,,,,0.6361,1,,,,,,,,,,,,,,z,1,0.6361,,,,,,,,0.013888902,-0.418518589,0,0,0,,0,133,133,137,1,JOOST,LB,z,z,./images/JOOSTLB.png,,,,,,,,,,,,,,,,,,,,,,,,,,,,,,,,,,,,
,,,,,,,,,,,,,,,,,614f56ca93028ed09c869a69,59,2022-02-12_16h56.24.709,lexical_decision_task_DD_L6,2021.2.3,Win32,59.35774915,,,,,,,,,,,0.9709,1,,,,,,,,,,,,,,z,1,0.9709,,,,,,,,0.013888902,-0.418518589,0,0,0,,0,134,134,106,1,CLUMS,HB,z,z,./images/CLUMSHB.png,,,,,,,,,,,,,,,,,,,,,,,,,,,,,,,,,,,,
,,,,,,,,,,,,,,,,,614f56ca93028ed09c869a69,59,2022-02-12_16h56.24.709,lexical_decision_task_DD_L6,2021.2.3,Win32,59.35774915,,,,,,,,,,,0.5937,1,,,,,,,,,,,,,,m,1,0.5937,,,,,,,,0.013888902,-0.418518589,0,0,0,,0,135,135,48,1,SHIELD,LB,m,m,./images/SHIELDLB.png,,,,,,,,,,,,,,,,,,,,,,,,,,,,,,,,,,,,
,,,,,,,,,,,,,,,,,614f56ca93028ed09c869a69,59,2022-02-12_16h56.24.709,lexical_decision_task_DD_L6,2021.2.3,Win32,59.35774915,,,,,,,,,,,1.074,0,,,,,,,,,,,,,,m,0,1.074,,,,,,,,0.014814828,-0.419444458,0,0,0,,0,136,136,120,1,RINED,C,z,z,./images/RINED.png,,,,,,,,,,,,,,,,,,,,,,,,,,,,,,,,,,,,
,,,,,,,,,,,,,,,,,614f56ca93028ed09c869a69,59,2022-02-12_16h56.24.709,lexical_decision_task_DD_L6,2021.2.3,Win32,59.35774915,,,,,,,,,,,1.1498,1,,,,,,,,,,,,,,z,1,1.1498,,,,,,,,0.014814828,-0.419444458,0,0,0,,0,137,137,124,1,TUNCH,HB,z,z,./images/TUNCHHB.png,,,,,,,,,,,,,,,,,,,,,,,,,,,,,,,,,,,,
,,,,,,,,,,,,,,,,,614f56ca93028ed09c869a69,59,2022-02-12_16h56.24.709,lexical_decision_task_DD_L6,2021.2.3,Win32,59.35774915,,,,,,,,,,,0.6078,1,,,,,,,,,,,,,,m,1,0.6078,,,,,,,,0.014814828,-0.419444458,0,0,0,,0,138,138,51,1,SAUCE,LB,m,m,./images/SAUCELB.png,,,,,,,,,,,,,,,,,,,,,,,,,,,,,,,,,,,,
,,,,,,,,,,,,,,,,,614f56ca93028ed09c869a69,59,2022-02-12_16h56.24.709,lexical_decision_task_DD_L6,2021.2.3,Win32,59.35774915,,,,,,,,,,,0.5942,1,,,,,,,,,,,,,,m,1,0.5942,,,,,,,,0.015740811,-0.419444458,0,0,0,,0,139,139,75,1,HAMMER,LB,m,m,./images/HAMMERLB.png,,,,,,,,,,,,,,,,,,,,,,,,,,,,,,,,,,,,
,,,,,,,,,,,,,,,,,614f56ca93028ed09c869a69,59,2022-02-12_16h56.24.709,lexical_decision_task_DD_L6,2021.2.3,Win32,59.35774915,,,,,,,,,,,0.4898,1,,,,,,,,,,,,,,m,1,0.4898,,,,,,,,0.015740811,-0.419444458,0,0,0,,0,140,140,31,1,STEAK,C,m,m,./images/STEAK.png,,,,,,,,,,,,,,,,,,,,,,,,,,,,,,,,,,,,
,,,,,,,,,,,,,,,,,614f56ca93028ed09c869a69,59,2022-02-12_16h56.24.709,lexical_decision_task_DD_L6,2021.2.3,Win32,59.35774915,,,,,,,,,,,1.2053,1,,,,,,,,,,,,,,z,1,1.2053,,,,,,,,0.015740811,-0.419444458,0,0,0,,0,141,141,127,1,NINDY,HB,z,z,./images/NINDYHB.png,,,,,,,,,,,,,,,,,,,,,,,,,,,,,,,,,,,,
,,,,,,,,,,,,,,,,,614f56ca93028ed09c869a69,59,2022-02-12_16h56.24.709,lexical_decision_task_DD_L6,2021.2.3,Win32,59.35774915,,,,,,,,,,,0.6006,1,,,,,,,,,,,,,,z,1,0.6006,,,,,,,,0.015740811,-0.419444458,0,0,0,,0,142,142,165,1,TROWN,C,z,z,./images/TROWN.png,,,,,,,,,,,,,,,,,,,,,,,,,,,,,,,,,,,,
,,,,,,,,,,,,,,,,,614f56ca93028ed09c869a69,59,2022-02-12_16h56.24.709,lexical_decision_task_DD_L6,2021.2.3,Win32,59.35774915,,,,,,,,,,,0.5986,1,,,,,,,,,,,,,,m,1,0.5986,,,,,,,,0.015740811,-0.419444458,0,0,0,,0,143,143,67,1,POKER,C,m,m,./images/POKER.png,,,,,,,,,,,,,,,,,,,,,,,,,,,,,,,,,,,,
,,,,,,,,,,,,,,,,,614f56ca93028ed09c869a69,59,2022-02-12_16h56.24.709,lexical_decision_task_DD_L6,2021.2.3,Win32,59.35774915,,,,,,,,,,,1.9662,1,,,,,,,,,,,,,,z,1,1.9662,,,,,,,,0.015740811,-0.419444458,0,0,0,,0,144,144,159,1,CUDDY,C,z,z,./images/CUDDY.png,,,,,,,,,,,,,,,,,,,,,,,,,,,,,,,,,,,,
,,,,,,,,,,,,,,,,,614f56ca93028ed09c869a69,59,2022-02-12_16h56.24.709,lexical_decision_task_DD_L6,2021.2.3,Win32,59.35774915,,,,,,,,,,,0.7508,1,,,,,,,,,,,,,,z,1,0.7508,,,,,,,,0.015740811,-0.419444458,0,0,0,,0,145,145,98,1,BAMPS,LB,z,z,./images/BAMPSLB.png,,,,,,,,,,,,,,,,,,,,,,,,,,,,,,,,,,,,
,,,,,,,,,,,,,,,,,614f56ca93028ed09c869a69,59,2022-02-12_16h56.24.709,lexical_decision_task_DD_L6,2021.2.3,Win32,59.35774915,,,,,,,,,,,0.5631,1,,,,,,,,,,,,,,m,1,0.5631,,,,,,,,0.015740811,-0.419444458,0,0,0,,0,146,146,72,1,FLASK,LB,m,m,./images/FLASKLB.png,,,,,,,,,,,,,,,,,,,,,,,,,,,,,,,,,,,,
,,,,,,,,,,,,,,,,,614f56ca93028ed09c869a69,59,2022-02-12_16h56.24.709,lexical_decision_task_DD_L6,2021.2.3,Win32,59.35774915,,,,,,,,,,,0.7213,1,,,,,,,,,,,,,,z,1,0.7213,,,,,,,,0.015740811,-0.419444458,0,0,0,,0,147,147,132,1,SCIFF,C,z,z,./images/SCIFF.png,,,,,,,,,,,,,,,,,,,,,,,,,,,,,,,,,,,,
,,,,,,,,,,,,,,,,,614f56ca93028ed09c869a69,59,2022-02-12_16h56.24.709,lexical_decision_task_DD_L6,2021.2.3,Win32,59.35774915,,,,,,,,,,,0.5688,1,,,,,,,,,,,,,,m,1,0.5688,,,,,,,,0.015740811,-0.419444458,0,0,0,,0,148,148,79,1,RULER,C,m,m,./images/RULER.png,,,,,,,,,,,,,,,,,,,,,,,,,,,,,,,,,,,,
,,,,,,,,,,,,,,,,,614f56ca93028ed09c869a69,59,2022-02-12_16h56.24.709,lexical_decision_task_DD_L6,2021.2.3,Win32,59.35774915,,,,,,,,,,,0.6524,1,,,,,,,,,,,,,,z,1,0.6524,,,,,,,,0.015740811,-0.419444458,0,0,0,,0,149,149,87,1,TRING,C,z,z,./images/TRING.png,,,,,,,,,,,,,,,,,,,,,,,,,,,,,,,,,,,,
,,,,,,,,,,,,,,,,,614f56ca93028ed09c869a69,59,2022-02-12_16h56.24.709,lexical_decision_task_DD_L6,2021.2.3,Win32,59.35774915,,,,,,,,,,,0.5778,1,,,,,,,,,,,,,,z,1,0.5778,,,,,,,,0.012962976,-0.419444458,0,0,0,,0,150,150,117,1,STEEG,C,z,z,./images/STEEG.png,,,,,,,,,,,,,,,,,,,,,,,,,,,,,,,,,,,,
,,,,,,,,,,,,,,,,,614f56ca93028ed09c869a69,59,2022-02-12_16h56.24.709,lexical_decision_task_DD_L6,2021.2.3,Win32,59.35774915,,,,,,,,,,,0.6449,1,,,,,,,,,,,,,,z,1,0.6449,,,,,,,,0.012962976,-0.419444458,0,0,0,,0,151,151,90,1,NEAST,C,z,z,./images/NEAST.png,,,,,,,,,,,,,,,,,,,,,,,,,,,,,,,,,,,,
,,,,,,,,,,,,,,,,,614f56ca93028ed09c869a69,59,2022-02-12_16h56.24.709,lexical_decision_task_DD_L6,2021.2.3,Win32,59.35774915,,,,,,,,,,,1.2996,1,,,,,,,,,,,,,,z,1,1.2996,,,,,,,,0.012962976,-0.419444458,0,0,0,,0,152,152,113,1,LINEW,LB,z,z,./images/LINEWLB.png,,,,,,,,,,,,,,,,,,,,,,,,,,,,,,,,,,,,
,,,,,,,,,,,,,,,,,614f56ca93028ed09c869a69,59,2022-02-12_16h56.24.709,lexical_decision_task_DD_L6,2021.2.3,Win32,59.35774915,,,,,,,,,,,0.7521,1,,,,,,,,,,,,,,m,1,0.7521,,,,,,,,0.012962976,-0.419444458,0,0,0,,0,153,153,77,1,WHEEL,HB,m,m,./images/WHEELHB.png,,,,,,,,,,,,,,,,,,,,,,,,,,,,,,,,,,,,
,,,,,,,,,,,,,,,,,614f56ca93028ed09c869a69,59,2022-02-12_16h56.24.709,lexical_decision_task_DD_L6,2021.2.3,Win32,59.35774915,,,,,,,,,,,0.6878,1,,,,,,,,,,,,,,z,1,0.6878,,,,,,,,0.012962976,-0.419444458,0,0,0,,0,154,154,114,1,RIKES,C,z,z,./images/RIKES.png,,,,,,,,,,,,,,,,,,,,,,,,,,,,,,,,,,,,
,,,,,,,,,,,,,,,,,614f56ca93028ed09c869a69,59,2022-02-12_16h56.24.709,lexical_decision_task_DD_L6,2021.2.3,Win32,59.35774915,,,,,,,,,,,1.5383,1,,,,,,,,,,,,,,z,1,1.5383,,,,,,,,0.012962976,-0.419444458,0,0,0,,0,155,155,139,1,BLEAR,HB,z,z,./images/BLEARHB.png,,,,,,,,,,,,,,,,,,,,,,,,,,,,,,,,,,,,
,,,,,,,,,,,,,,,,,614f56ca93028ed09c869a69,59,2022-02-12_16h56.24.709,lexical_decision_task_DD_L6,2021.2.3,Win32,59.35774915,,,,,,,,,,,0.8889,1,,,,,,,,,,,,,,z,1,0.8889,,,,,,,,0.012962976,-0.419444458,0,0,0,,0,156,156,143,1,MONGS,LB,z,z,./images/MONGSLB.png,,,,,,,,,,,,,,,,,,,,,,,,,,,,,,,,,,,,
,,,,,,,,,,,,,,,,,614f56ca93028ed09c869a69,59,2022-02-12_16h56.24.709,lexical_decision_task_DD_L6,2021.2.3,Win32,59.35774915,,,,,,,,,,,0.6528,1,,,,,,,,,,,,,,z,1,0.6528,,,,,,,,0.012962976,-0.419444458,0,0,0,,0,157,157,101,1,GLEET,LB,z,z,./images/GLEETLB.png,,,,,,,,,,,,,,,,,,,,,,,,,,,,,,,,,,,,
,,,,,,,,,,,,,,,,,614f56ca93028ed09c869a69,59,2022-02-12_16h56.24.709,lexical_decision_task_DD_L6,2021.2.3,Win32,59.35774915,,,,,,,,,,,0.6945,1,,,,,,,,,,,,,,m,1,0.6945,,,,,,,,0.012962976,-0.419444458,0,0,0,,0,158,158,81,1,DRILL,LB,m,m,./images/DRILLLB.png,,,,,,,,,,,,,,,,,,,,,,,,,,,,,,,,,,,,
,,,,,,,,,,,,,,,,,614f56ca93028ed09c869a69,59,2022-02-12_16h56.24.709,lexical_decision_task_DD_L6,2021.2.3,Win32,59.35774915,,,,,,,,,,,0.7038,1,,,,,,,,,,,,,,z,1,0.7038,,,,,,,,0.012962976,-0.419444458,0,0,0,,0,159,159,129,1,PRANS,C,z,z,./images/PRANS.png,,,,,,,,,,,,,,,,,,,,,,,,,,,,,,,,,,,,
,,,,,,,,,,,,,,,,,614f56ca93028ed09c869a69,59,2022-02-12_16h56.24.709,lexical_decision_task_DD_L6,2021.2.3,Win32,59.35774915,,,,,,,,,,,0.9902,1,,,,,,,,,,,,,,z,1,0.9902,,,,,,,,0.012962976,-0.419444458,0,0,0,,0,160,160,89,1,DRIEK,LB,z,z,./images/DRIEKLB.png,,,,,,,,,,,,,,,,,,,,,,,,,,,,,,,,,,,,
,,,,,,,,,,,,,,,,,614f56ca93028ed09c869a69,59,2022-02-12_16h56.24.709,lexical_decision_task_DD_L6,2021.2.3,Win32,59.35774915,,,,,,,,,,,1.8003,1,,,,,,,,,,,,,,z,1,1.8003,,,,,,,,0.012962976,-0.419444458,0,0,0,,0,161,161,166,1,SHORY,HB,z,z,./images/SHORYHB.png,,,,,,,,,,,,,,,,,,,,,,,,,,,,,,,,,,,,
,,,,,,,,,,,,,,,,,614f56ca93028ed09c869a69,59,2022-02-12_16h56.24.709,lexical_decision_task_DD_L6,2021.2.3,Win32,59.35774915,,,,,,,,,,,0.9269,1,,,,,,,,,,,,,,m,1,0.9269,,,,,,,,0.012962976,-0.419444458,0,0,0,,0,162,162,71,1,BUBBLE,HB,m,m,./images/BUBBLEHB.png,,,,,,,,,,,,,,,,,,,,,,,,,,,,,,,,,,,,
,,,,,,,,,,,,,,,,,614f56ca93028ed09c869a69,59,2022-02-12_16h56.24.709,lexical_decision_task_DD_L6,2021.2.3,Win32,59.35774915,,,,,,,,,,,1.0291,1,,,,,,,,,,,,,,z,1,1.0291,,,,,,,,0.01203705,-0.419444458,0,0,0,,0,163,163,158,1,EGECT,LB,z,z,./images/EGECTLB.png,,,,,,,,,,,,,,,,,,,,,,,,,,,,,,,,,,,,
,,,,,,,,,,,,,,,,,614f56ca93028ed09c869a69,59,2022-02-12_16h56.24.709,lexical_decision_task_DD_L6,2021.2.3,Win32,59.35774915,,,,,,,,,,,2.5273,1,,,,,,,,,,,,,,z,1,2.5273,,,,,,,,0.01203705,-0.419444458,0,0,0,,0,164,164,151,1,TINKY,HB,z,z,./images/TINKYHB.png,,,,,,,,,,,,,,,,,,,,,,,,,,,,,,,,,,,,
,,,,,,,,,,,,,,,,,614f56ca93028ed09c869a69,59,2022-02-12_16h56.24.709,lexical_decision_task_DD_L6,2021.2.3,Win32,59.35774915,,,,,,,,,,,0.5541,1,,,,,,,,,,,,,,m,1,0.5541,,,,,,,,0.01203705,-0.419444458,0,0,0,,0,165,165,49,1,BISHOP,C,m,m,./images/BISHOP.png,,,,,,,,,,,,,,,,,,,,,,,,,,,,,,,,,,,,
,,,,,,,,,,,,,,,,,614f56ca93028ed09c869a69,59,2022-02-12_16h56.24.709,lexical_decision_task_DD_L6,2021.2.3,Win32,59.35774915,,,,,,,,,,,1.0725,1,,,,,,,,,,,,,,z,1,1.0725,,,,,,,,0.012962976,-0.420370384,0,0,0,,0,166,166,130,1,CRILL,HB,z,z,./images/CRILLHB.png,,,,,,,,,,,,,,,,,,,,,,,,,,,,,,,,,,,,
,,,,,,,,,,,,,,,,,614f56ca93028ed09c869a69,59,2022-02-12_16h56.24.709,lexical_decision_task_DD_L6,2021.2.3,Win32,59.35774915,,,,,,,,,,,0.9775,1,,,,,,,,,,,,,,m,1,0.9775,,,,,,,,0.012962976,-0.420370384,0,0,0,,0,167,167,3,1,CRATER,LB,m,m,./images/CRATERLB.png,,,,,,,,,,,,,,,,,,,,,,,,,,,,,,,,,,,,
,,,,,,,,,,,,,,,,,614f56ca93028ed09c869a69,59,2022-02-12_16h56.24.709,lexical_decision_task_DD_L6,2021.2.3,Win32,59.35774915,,,,,,,,,,,,,,,,,,,,,,,,,,,,,,,,,,,,,,,,,,,,,,,,How likely will it be that you will recognize the words presented slighly blurred on a scale of 0 (not likely) to 100 (most likely)?,,,,,-0.024999987,-0.415740754,1,0,0,jol_adv,5,8.0679,0,0,0,1,1,,,,,,,,,,,,,,,,,,,,,,
,,,,,,,,,,,,,,,,,614f56ca93028ed09c869a69,59,2022-02-12_16h56.24.709,lexical_decision_task_DD_L6,2021.2.3,Win32,59.35774915,,,,,,,,,,,,,,,,,,,,,,,,,,,,,,,,,,,,,,,,,,,,,,,,How likely will it be that you will recognize the words presented very blurred on a scale of 0 (not likely) to 100 (most likely)?,,,,,,,,,,,3,9.1878,0,1,1,2,1,,,,,,,,,,,,,,,,,,,,,,
,,,,,,,,,,,,,,,,,614f56ca93028ed09c869a69,59,2022-02-12_16h56.24.709,lexical_decision_task_DD_L6,2021.2.3,Win32,59.35774915,,,,,,,,,,,,,,,,,,,,,,,,,,,,,,,,,,,,,,,,,,,,,,,,How likely will it be that you will recognize the words presented clearly on a scale of 0 (not likely) to 100 (most likely)?,,,,,,,,,,,6,6.732,0,2,2,0,1,,,,,,,,,,,,,,,,,,,,,,
,0.087962978,-0.400925939,1,0,0,instr_done_button,,,,,,1,test,"In the next phase you will be presented with the words from the the first phase. Your job is to decide whether you remember seeing the word or not. If you remember seeing the word press ""old"" or type ""m"". If you do not remember seeing the word press ""new"" or type ""z"". Please press the space bar or click on continue to begin. ",,,614f56ca93028ed09c869a69,59,2022-02-12_16h56.24.709,lexical_decision_task_DD_L6,2021.2.3,Win32,59.35774915,,,,,,,,,,,,,,,,,,,,,,,,,,,,,,,,,,,,,,,,,,,,,,,,,,,,,,,,,,,,,,,,,,0,0,0,0,1,,,,,,,,,,,,,,,,,
,0.031481495,-0.415740754,1,0,0,instr_done_button,,,,,,1,test,"In the next phase you will be presented with the words from the the first phase. Your job is to decide whether you remember seeing the word or not. If you remember seeing the word press ""old"" or type ""m"". If you do not remember seeing the word press ""new"" or type ""z"". Please press the space bar or click on continue to begin. ",,,614f56ca93028ed09c869a69,59,2022-02-12_16h56.24.709,lexical_decision_task_DD_L6,2021.2.3,Win32,59.35774915,,,,,,,,,,,,,,,,,,,,,,,,,,,,,,,,,,,,,,,,,,,,,,,,,,,,,,,,,,,,,,,,,,1,0,1,0,1,,,,,,,,,,,,,,,,,
,0.014814828,-0.376851921,1,0,0,instr_done_button,,,,,,1,test,"In the next phase you will be presented with the words from the the first phase. Your job is to decide whether you remember seeing the word or not. If you remember seeing the word press ""old"" or type ""m"". If you do not remember seeing the word press ""new"" or type ""z"". Please press the space bar or click on continue to begin. ",,,614f56ca93028ed09c869a69,59,2022-02-12_16h56.24.709,lexical_decision_task_DD_L6,2021.2.3,Win32,59.35774915,,,,,,,,,,,,,,,,,,,,,,,,,,,,,,,,,,,,,,,,,,,,,,,,,,,,,,,,,,,,,,,,,,2,0,2,0,1,,,,,,,,,,,,,,,,,
,0.014814828,-0.376851921,1,0,0,instr_done_button,,,,,,1,test,"In the next phase you will be presented with the words from the the first phase. Your job is to decide whether you remember seeing the word or not. If you remember seeing the word press ""old"" or type ""m"". If you do not remember seeing the word press ""new"" or type ""z"". Please press the space bar or click on continue to begin. ",,,614f56ca93028ed09c869a69,59,2022-02-12_16h56.24.709,lexical_decision_task_DD_L6,2021.2.3,Win32,59.35774915,,,,,,,,,,,,,,,,,,,,,,,,,,,,,,,,,,,,,,,,,,,,,,,,,,,,,,,,,,,,,,,,,,3,0,3,0,1,,,,,,,,,,,,,,,,,
space,0.014814828,-0.376851921,0,0,0,,,,,,,1,test,"In the next phase you will be presented with the words from the the first phase. Your job is to decide whether you remember seeing the word or not. If you remember seeing the word press ""old"" or type ""m"". If you do not remember seeing the word press ""new"" or type ""z"". Please press the space bar or click on continue to begin. ",,,614f56ca93028ed09c869a69,59,2022-02-12_16h56.24.709,lexical_decision_task_DD_L6,2021.2.3,Win32,59.35774915,,,,,,,,,,,,,,,,,,,,,,,,,,,,,,,,,,,,,,,,,,,,,,,,,,,,,,,,,,,,,,,,,,4,0,4,0,1,6.7882,,,,,,,,,,,,,,,,
,,,,,,,,,,,,,,,,,614f56ca93028ed09c869a69,59,2022-02-12_16h56.24.709,lexical_decision_task_DD_L6,2021.2.3,Win32,59.35774915,,,,,,,,,,,2.5158,0,,,,,,,,,,,,,,,,,,,,,,,,0.014814828,-0.376851921,0,0,0,,,,,,,TRIPOD,LB,z,y,./images/TRIPODLB.png,,,,,,,,,,,,,,,,,,,,,m,0,2.5158,,,,,,,,0,0,0,138,1,
,,,,,,,,,,,,,,,,,614f56ca93028ed09c869a69,59,2022-02-12_16h56.24.709,lexical_decision_task_DD_L6,2021.2.3,Win32,59.35774915,,,,,,,,,,,0.7173,0,,,,,,,,,,,,,,,,,,,,,,,,0.014814828,-0.376851921,0,0,0,,,,,,,MALLET,HB,z,y,./images/MALLETHB.png,,,,,,,,,,,,,,,,,,,,,m,0,0.7173,,,,,,,,0,1,1,134,1,
,,,,,,,,,,,,,,,,,614f56ca93028ed09c869a69,59,2022-02-12_16h56.24.709,lexical_decision_task_DD_L6,2021.2.3,Win32,59.35774915,,,,,,,,,,,0.7781,0,,,,,,,,,,,,,,,,,,,,,,,,0.014814828,-0.376851921,0,0,0,,,,,,,GRAIN,LB,z,y,./images/GRAINLB.png,,,,,,,,,,,,,,,,,,,,,m,0,0.7781,,,,,,,,0,2,2,159,1,
,,,,,,,,,,,,,,,,,614f56ca93028ed09c869a69,59,2022-02-12_16h56.24.709,lexical_decision_task_DD_L6,2021.2.3,Win32,59.35774915,,,,,,,,,,,1.8601,1,,,,,,,,,,,,,,,,,,,,,,,,0.014814828,-0.376851921,0,0,0,,,,,,,SPORT,LB,z,y,./images/SPORTLB.png,,,,,,,,,,,,,,,,,,,,,z,1,1.8601,,,,,,,,0,3,3,132,1,
,,,,,,,,,,,,,,,,,614f56ca93028ed09c869a69,59,2022-02-12_16h56.24.709,lexical_decision_task_DD_L6,2021.2.3,Win32,59.35774915,,,,,,,,,,,1.819,0,,,,,,,,,,,,,,,,,,,,,,,,0.014814828,-0.376851921,0,0,0,,,,,,,MOOSE,LB,z,y,./images/MOOSELB.png,,,,,,,,,,,,,,,,,,,,,m,0,1.819,,,,,,,,0,4,4,141,1,
,,,,,,,,,,,,,,,,,614f56ca93028ed09c869a69,59,2022-02-12_16h56.24.709,lexical_decision_task_DD_L6,2021.2.3,Win32,59.35774915,,,,,,,,,,,0.7046,1,,,,,,,,,,,,,,,,,,,,,,,,0.014814828,-0.376851921,0,0,0,,,,,,,HOCKEY,HB,m,y,./images/HOCKEYHB.png,,,,,,,,,,,,,,,,,,,,,m,1,0.7046,,,,,,,,0,5,5,32,1,
,,,,,,,,,,,,,,,,,614f56ca93028ed09c869a69,59,2022-02-12_16h56.24.709,lexical_decision_task_DD_L6,2021.2.3,Win32,59.35774915,,,,,,,,,,,0.7753,1,,,,,,,,,,,,,,,,,,,,,,,,0.014814828,-0.376851921,0,0,0,,,,,,,FINGER,LB,z,y,./images/FINGERLB.png,,,,,,,,,,,,,,,,,,,,,z,1,0.7753,,,,,,,,0,6,6,87,1,
,,,,,,,,,,,,,,,,,614f56ca93028ed09c869a69,59,2022-02-12_16h56.24.709,lexical_decision_task_DD_L6,2021.2.3,Win32,59.35774915,,,,,,,,,,,0.8419,1,,,,,,,,,,,,,,,,,,,,,,,,0.014814828,-0.376851921,0,0,0,,,,,,,WAGON,C,m,y,./images/WAGON.png,,,,,,,,,,,,,,,,,,,,,m,1,0.8419,,,,,,,,0,7,7,7,1,
,,,,,,,,,,,,,,,,,614f56ca93028ed09c869a69,59,2022-02-12_16h56.24.709,lexical_decision_task_DD_L6,2021.2.3,Win32,59.35774915,,,,,,,,,,,0.7368,1,,,,,,,,,,,,,,,,,,,,,,,,0.014814828,-0.376851921,0,0,0,,,,,,,CLIFF,HB,m,y,./images/CLIFFHB.png,,,,,,,,,,,,,,,,,,,,,m,1,0.7368,,,,,,,,0,8,8,8,1,
,,,,,,,,,,,,,,,,,614f56ca93028ed09c869a69,59,2022-02-12_16h56.24.709,lexical_decision_task_DD_L6,2021.2.3,Win32,59.35774915,,,,,,,,,,,2.5715,0,,,,,,,,,,,,,,,,,,,,,,,,0.014814828,-0.376851921,0,0,0,,,,,,,COOKER,LB,z,y,./images/COOKERLB.png,,,,,,,,,,,,,,,,,,,,,m,0,2.5715,,,,,,,,0,9,9,153,1,
,,,,,,,,,,,,,,,,,614f56ca93028ed09c869a69,59,2022-02-12_16h56.24.709,lexical_decision_task_DD_L6,2021.2.3,Win32,59.35774915,,,,,,,,,,,2.0837,0,,,,,,,,,,,,,,,,,,,,,,,,0.014814828,-0.376851921,0,0,0,,,,,,,MELON,C,z,y,./images/MELON.png,,,,,,,,,,,,,,,,,,,,,m,0,2.0837,,,,,,,,0,10,10,106,1,
,,,,,,,,,,,,,,,,,614f56ca93028ed09c869a69,59,2022-02-12_16h56.24.709,lexical_decision_task_DD_L6,2021.2.3,Win32,59.35774915,,,,,,,,,,,1.2403,1,,,,,,,,,,,,,,,,,,,,,,,,0.014814828,-0.376851921,0,0,0,,,,,,,THROAT,LB,z,y,./images/THROATLB.png,,,,,,,,,,,,,,,,,,,,,z,1,1.2403,,,,,,,,0,11,11,120,1,
,,,,,,,,,,,,,,,,,614f56ca93028ed09c869a69,59,2022-02-12_16h56.24.709,lexical_decision_task_DD_L6,2021.2.3,Win32,59.35774915,,,,,,,,,,,0.9288,0,,,,,,,,,,,,,,,,,,,,,,,,0.014814828,-0.376851921,0,0,0,,,,,,,PEARL,C,z,y,./images/PEARL.png,,,,,,,,,,,,,,,,,,,,,m,0,0.9288,,,,,,,,0,12,12,130,1,
,,,,,,,,,,,,,,,,,614f56ca93028ed09c869a69,59,2022-02-12_16h56.24.709,lexical_decision_task_DD_L6,2021.2.3,Win32,59.35774915,,,,,,,,,,,1.1329,1,,,,,,,,,,,,,,,,,,,,,,,,0.014814828,-0.376851921,0,0,0,,,,,,,URINE,C,z,y,./images/URINE.png,,,,,,,,,,,,,,,,,,,,,z,1,1.1329,,,,,,,,0,13,13,154,1,
,,,,,,,,,,,,,,,,,614f56ca93028ed09c869a69,59,2022-02-12_16h56.24.709,lexical_decision_task_DD_L6,2021.2.3,Win32,59.35774915,,,,,,,,,,,1.3873,1,,,,,,,,,,,,,,,,,,,,,,,,0.014814828,-0.376851921,0,0,0,,,,,,,FALCON,C,z,y,./images/FALCON.png,,,,,,,,,,,,,,,,,,,,,z,1,1.3873,,,,,,,,0,14,14,112,1,
,,,,,,,,,,,,,,,,,614f56ca93028ed09c869a69,59,2022-02-12_16h56.24.709,lexical_decision_task_DD_L6,2021.2.3,Win32,59.35774915,,,,,,,,,,,0.8119,1,,,,,,,,,,,,,,,,,,,,,,,,0.014814828,-0.376851921,0,0,0,,,,,,,HAMMER,LB,m,y,./images/HAMMERLB.png,,,,,,,,,,,,,,,,,,,,,m,1,0.8119,,,,,,,,0,15,15,75,1,
,,,,,,,,,,,,,,,,,614f56ca93028ed09c869a69,59,2022-02-12_16h56.24.709,lexical_decision_task_DD_L6,2021.2.3,Win32,59.35774915,,,,,,,,,,,0.964,0,,,,,,,,,,,,,,,,,,,,,,,,0.014814828,-0.376851921,0,0,0,,,,,,,WHEEL,HB,m,y,./images/WHEELHB.png,,,,,,,,,,,,,,,,,,,,,z,0,0.964,,,,,,,,0,16,16,77,1,
,,,,,,,,,,,,,,,,,614f56ca93028ed09c869a69,59,2022-02-12_16h56.24.709,lexical_decision_task_DD_L6,2021.2.3,Win32,59.35774915,,,,,,,,,,,0.7496,1,,,,,,,,,,,,,,,,,,,,,,,,0.014814828,-0.376851921,0,0,0,,,,,,,BUNNY,C,m,y,./images/BUNNY.png,,,,,,,,,,,,,,,,,,,,,m,1,0.7496,,,,,,,,0,17,17,13,1,
,,,,,,,,,,,,,,,,,614f56ca93028ed09c869a69,59,2022-02-12_16h56.24.709,lexical_decision_task_DD_L6,2021.2.3,Win32,59.35774915,,,,,,,,,,,0.5574,1,,,,,,,,,,,,,,,,,,,,,,,,0.014814828,-0.376851921,0,0,0,,,,,,,CHERRY,LB,m,y,./images/CHERRYLB.png,,,,,,,,,,,,,,,,,,,,,m,1,0.5574,,,,,,,,0,18,18,54,1,
,,,,,,,,,,,,,,,,,614f56ca93028ed09c869a69,59,2022-02-12_16h56.24.709,lexical_decision_task_DD_L6,2021.2.3,Win32,59.35774915,,,,,,,,,,,0.7838,0,,,,,,,,,,,,,,,,,,,,,,,,0.014814828,-0.376851921,0,0,0,,,,,,,BANNER,C,z,y,./images/BANNER.png,,,,,,,,,,,,,,,,,,,,,m,0,0.7838,,,,,,,,0,19,19,136,1,
,,,,,,,,,,,,,,,,,614f56ca93028ed09c869a69,59,2022-02-12_16h56.24.709,lexical_decision_task_DD_L6,2021.2.3,Win32,59.35774915,,,,,,,,,,,0.832,0,,,,,,,,,,,,,,,,,,,,,,,,0.014814828,-0.376851921,0,0,0,,,,,,,TORCH,HB,z,y,./images/TORCHHB.png,,,,,,,,,,,,,,,,,,,,,m,0,0.832,,,,,,,,0,20,20,152,1,
,,,,,,,,,,,,,,,,,614f56ca93028ed09c869a69,59,2022-02-12_16h56.24.709,lexical_decision_task_DD_L6,2021.2.3,Win32,59.35774915,,,,,,,,,,,0.7476,1,,,,,,,,,,,,,,,,,,,,,,,,0.014814828,-0.376851921,0,0,0,,,,,,,MEDAL,HB,m,y,./images/MEDALHB.png,,,,,,,,,,,,,,,,,,,,,m,1,0.7476,,,,,,,,0,21,21,11,1,
,,,,,,,,,,,,,,,,,614f56ca93028ed09c869a69,59,2022-02-12_16h56.24.709,lexical_decision_task_DD_L6,2021.2.3,Win32,59.35774915,,,,,,,,,,,0.7222,1,,,,,,,,,,,,,,,,,,,,,,,,0.014814828,-0.376851921,0,0,0,,,,,,,JAGUAR,LB,z,y,./images/JAGUARLB.png,,,,,,,,,,,,,,,,,,,,,z,1,0.7222,,,,,,,,0,22,22,102,1,
,,,,,,,,,,,,,,,,,614f56ca93028ed09c869a69,59,2022-02-12_16h56.24.709,lexical_decision_task_DD_L6,2021.2.3,Win32,59.35774915,,,,,,,,,,,0.6642,1,,,,,,,,,,,,,,,,,,,,,,,,0.014814828,-0.376851921,0,0,0,,,,,,,STEAK,C,m,y,./images/STEAK.png,,,,,,,,,,,,,,,,,,,,,m,1,0.6642,,,,,,,,0,23,23,31,1,
,,,,,,,,,,,,,,,,,614f56ca93028ed09c869a69,59,2022-02-12_16h56.24.709,lexical_decision_task_DD_L6,2021.2.3,Win32,59.35774915,,,,,,,,,,,1.3469,1,,,,,,,,,,,,,,,,,,,,,,,,0.014814828,-0.376851921,0,0,0,,,,,,,CHALK,C,m,y,./images/CHALK.png,,,,,,,,,,,,,,,,,,,,,m,1,1.3469,,,,,,,,0,24,24,25,1,
,,,,,,,,,,,,,,,,,614f56ca93028ed09c869a69,59,2022-02-12_16h56.24.709,lexical_decision_task_DD_L6,2021.2.3,Win32,59.35774915,,,,,,,,,,,1.1963,0,,,,,,,,,,,,,,,,,,,,,,,,0.014814828,-0.376851921,0,0,0,,,,,,,SHELF,LB,z,y,./images/SHELFLB.png,,,,,,,,,,,,,,,,,,,,,m,0,1.1963,,,,,,,,0,25,25,123,1,
,,,,,,,,,,,,,,,,,614f56ca93028ed09c869a69,59,2022-02-12_16h56.24.709,lexical_decision_task_DD_L6,2021.2.3,Win32,59.35774915,,,,,,,,,,,0.6403,0,,,,,,,,,,,,,,,,,,,,,,,,0.014814828,-0.376851921,0,0,0,,,,,,,FLESH,LB,m,y,./images/FLESHLB.png,,,,,,,,,,,,,,,,,,,,,z,0,0.6403,,,,,,,,0,26,26,24,1,
,,,,,,,,,,,,,,,,,614f56ca93028ed09c869a69,59,2022-02-12_16h56.24.709,lexical_decision_task_DD_L6,2021.2.3,Win32,59.35774915,,,,,,,,,,,0.913,1,,,,,,,,,,,,,,,,,,,,,,,,0.014814828,-0.376851921,0,0,0,,,,,,,FERRY,LB,m,y,./images/FERRYLB.png,,,,,,,,,,,,,,,,,,,,,m,1,0.913,,,,,,,,0,27,27,57,1,
,,,,,,,,,,,,,,,,,614f56ca93028ed09c869a69,59,2022-02-12_16h56.24.709,lexical_decision_task_DD_L6,2021.2.3,Win32,59.35774915,,,,,,,,,,,0.6673,1,,,,,,,,,,,,,,,,,,,,,,,,0.014814828,-0.376851921,0,0,0,,,,,,,MIDGET,C,m,y,./images/MIDGET.png,,,,,,,,,,,,,,,,,,,,,m,1,0.6673,,,,,,,,0,28,28,76,1,
,,,,,,,,,,,,,,,,,614f56ca93028ed09c869a69,59,2022-02-12_16h56.24.709,lexical_decision_task_DD_L6,2021.2.3,Win32,59.35774915,,,,,,,,,,,0.5854,1,,,,,,,,,,,,,,,,,,,,,,,,0.014814828,-0.376851921,0,0,0,,,,,,,STOOL,C,m,y,./images/STOOL.png,,,,,,,,,,,,,,,,,,,,,m,1,0.5854,,,,,,,,0,29,29,43,1,
,,,,,,,,,,,,,,,,,614f56ca93028ed09c869a69,59,2022-02-12_16h56.24.709,lexical_decision_task_DD_L6,2021.2.3,Win32,59.35774915,,,,,,,,,,,1.0833,0,,,,,,,,,,,,,,,,,,,,,,,,0.014814828,-0.376851921,0,0,0,,,,,,,SWEAT,LB,z,y,./images/SWEATLB.png,,,,,,,,,,,,,,,,,,,,,m,0,1.0833,,,,,,,,0,30,30,150,1,
,,,,,,,,,,,,,,,,,614f56ca93028ed09c869a69,59,2022-02-12_16h56.24.709,lexical_decision_task_DD_L6,2021.2.3,Win32,59.35774915,,,,,,,,,,,0.8884,1,,,,,,,,,,,,,,,,,,,,,,,,0.014814828,-0.376851921,0,0,0,,,,,,,WRIST,C,z,y,./images/WRIST.png,,,,,,,,,,,,,,,,,,,,,z,1,0.8884,,,,,,,,0,31,31,109,1,
,,,,,,,,,,,,,,,,,614f56ca93028ed09c869a69,59,2022-02-12_16h56.24.709,lexical_decision_task_DD_L6,2021.2.3,Win32,59.35774915,,,,,,,,,,,0.7103,1,,,,,,,,,,,,,,,,,,,,,,,,0.014814828,-0.376851921,0,0,0,,,,,,,BROOM,LB,m,y,./images/BROOMLB.png,,,,,,,,,,,,,,,,,,,,,m,1,0.7103,,,,,,,,0,32,32,78,1,
,,,,,,,,,,,,,,,,,614f56ca93028ed09c869a69,59,2022-02-12_16h56.24.709,lexical_decision_task_DD_L6,2021.2.3,Win32,59.35774915,,,,,,,,,,,1.5383,0,,,,,,,,,,,,,,,,,,,,,,,,0.014814828,-0.376851921,0,0,0,,,,,,,JUMPER,HB,m,y,./images/JUMPERHB.png,,,,,,,,,,,,,,,,,,,,,z,0,1.5383,,,,,,,,0,33,33,74,1,
,,,,,,,,,,,,,,,,,614f56ca93028ed09c869a69,59,2022-02-12_16h56.24.709,lexical_decision_task_DD_L6,2021.2.3,Win32,59.35774915,,,,,,,,,,,0.9635,0,,,,,,,,,,,,,,,,,,,,,,,,0.014814828,-0.376851921,0,0,0,,,,,,,PLANK,C,z,y,./images/PLANK.png,,,,,,,,,,,,,,,,,,,,,m,0,0.9635,,,,,,,,0,34,34,85,1,
,,,,,,,,,,,,,,,,,614f56ca93028ed09c869a69,59,2022-02-12_16h56.24.709,lexical_decision_task_DD_L6,2021.2.3,Win32,59.35774915,,,,,,,,,,,0.8579,1,,,,,,,,,,,,,,,,,,,,,,,,0.014814828,-0.376851921,0,0,0,,,,,,,DONKEY,C,m,y,./images/DONKEY.png,,,,,,,,,,,,,,,,,,,,,m,1,0.8579,,,,,,,,0,35,35,19,1,
,,,,,,,,,,,,,,,,,614f56ca93028ed09c869a69,59,2022-02-12_16h56.24.709,lexical_decision_task_DD_L6,2021.2.3,Win32,59.35774915,,,,,,,,,,,1.2411,0,,,,,,,,,,,,,,,,,,,,,,,,0.014814828,-0.376851921,0,0,0,,,,,,,SKIING,HB,z,y,./images/SKIINGHB.png,,,,,,,,,,,,,,,,,,,,,m,0,1.2411,,,,,,,,0,36,36,101,1,
,,,,,,,,,,,,,,,,,614f56ca93028ed09c869a69,59,2022-02-12_16h56.24.709,lexical_decision_task_DD_L6,2021.2.3,Win32,59.35774915,,,,,,,,,,,0.7705,1,,,,,,,,,,,,,,,,,,,,,,,,0.014814828,-0.376851921,0,0,0,,,,,,,BOXER,C,m,y,./images/BOXER.png,,,,,,,,,,,,,,,,,,,,,m,1,0.7705,,,,,,,,0,37,37,4,1,
,,,,,,,,,,,,,,,,,614f56ca93028ed09c869a69,59,2022-02-12_16h56.24.709,lexical_decision_task_DD_L6,2021.2.3,Win32,59.35774915,,,,,,,,,,,1.2819,1,,,,,,,,,,,,,,,,,,,,,,,,0.014814828,-0.376851921,0,0,0,,,,,,,BIRTH,C,z,y,./images/BIRTH.png,,,,,,,,,,,,,,,,,,,,,z,1,1.2819,,,,,,,,0,38,38,121,1,
,,,,,,,,,,,,,,,,,614f56ca93028ed09c869a69,59,2022-02-12_16h56.24.709,lexical_decision_task_DD_L6,2021.2.3,Win32,59.35774915,,,,,,,,,,,0.7663,1,,,,,,,,,,,,,,,,,,,,,,,,0.014814828,-0.376851921,0,0,0,,,,,,,SPINE,HB,m,y,./images/SPINEHB.png,,,,,,,,,,,,,,,,,,,,,m,1,0.7663,,,,,,,,0,39,39,65,1,
,,,,,,,,,,,,,,,,,614f56ca93028ed09c869a69,59,2022-02-12_16h56.24.709,lexical_decision_task_DD_L6,2021.2.3,Win32,59.35774915,,,,,,,,,,,0.9209,0,,,,,,,,,,,,,,,,,,,,,,,,0.014814828,-0.376851921,0,0,0,,,,,,,PICKLE,HB,z,y,./images/PICKLEHB.png,,,,,,,,,,,,,,,,,,,,,m,0,0.9209,,,,,,,,0,40,40,98,1,
,,,,,,,,,,,,,,,,,614f56ca93028ed09c869a69,59,2022-02-12_16h56.24.709,lexical_decision_task_DD_L6,2021.2.3,Win32,59.35774915,,,,,,,,,,,1.6905,1,,,,,,,,,,,,,,,,,,,,,,,,-0.020370357,-0.41666668,1,0,0,,,,,,,DANCER,LB,m,y,./images/DANCERLB.png,,,,,,,,,,,,,,,,,,,,,m,1,1.6905,,,,,,,,0,41,41,21,1,break_done_button
,,,,,,,,,,,,,,,,,614f56ca93028ed09c869a69,59,2022-02-12_16h56.24.709,lexical_decision_task_DD_L6,2021.2.3,Win32,59.35774915,,,,,,,,,,,1.1841,0,,,,,,,,,,,,,,,,,,,,,,,,-0.024074061,-0.443518533,0,0,0,,,,,,,SWING,C,z,y,./images/SWING.png,,,,,,,,,,,,,,,,,,,,,m,0,1.1841,,,,,,,,0,42,42,124,1,
,,,,,,,,,,,,,,,,,614f56ca93028ed09c869a69,59,2022-02-12_16h56.24.709,lexical_decision_task_DD_L6,2021.2.3,Win32,59.35774915,,,,,,,,,,,0.6532,1,,,,,,,,,,,,,,,,,,,,,,,,-0.024999987,-0.443518533,0,0,0,,,,,,,DIVER,LB,m,y,./images/DIVERLB.png,,,,,,,,,,,,,,,,,,,,,m,1,0.6532,,,,,,,,0,43,43,9,1,
,,,,,,,,,,,,,,,,,614f56ca93028ed09c869a69,59,2022-02-12_16h56.24.709,lexical_decision_task_DD_L6,2021.2.3,Win32,59.35774915,,,,,,,,,,,0.6028,1,,,,,,,,,,,,,,,,,,,,,,,,-0.024999987,-0.443518533,0,0,0,,,,,,,TOWEL,C,m,y,./images/TOWEL.png,,,,,,,,,,,,,,,,,,,,,m,1,0.6028,,,,,,,,0,44,44,1,1,
,,,,,,,,,,,,,,,,,614f56ca93028ed09c869a69,59,2022-02-12_16h56.24.709,lexical_decision_task_DD_L6,2021.2.3,Win32,59.35774915,,,,,,,,,,,0.8095,0,,,,,,,,,,,,,,,,,,,,,,,,-0.024999987,-0.443518533,0,0,0,,,,,,,MIRROR,LB,z,y,./images/MIRRORLB.png,,,,,,,,,,,,,,,,,,,,,m,0,0.8095,,,,,,,,0,45,45,147,1,
,,,,,,,,,,,,,,,,,614f56ca93028ed09c869a69,59,2022-02-12_16h56.24.709,lexical_decision_task_DD_L6,2021.2.3,Win32,59.35774915,,,,,,,,,,,1.3431,0,,,,,,,,,,,,,,,,,,,,,,,,-0.024999987,-0.444444459,0,0,0,,,,,,,ARTIST,C,m,y,./images/ARTIST.png,,,,,,,,,,,,,,,,,,,,,z,0,1.3431,,,,,,,,0,46,46,61,1,
,,,,,,,,,,,,,,,,,614f56ca93028ed09c869a69,59,2022-02-12_16h56.24.709,lexical_decision_task_DD_L6,2021.2.3,Win32,59.35774915,,,,,,,,,,,0.7695,1,,,,,,,,,,,,,,,,,,,,,,,,-0.024999987,-0.444444459,0,0,0,,,,,,,DOUGH,C,z,y,./images/DOUGH.png,,,,,,,,,,,,,,,,,,,,,z,1,0.7695,,,,,,,,0,47,47,103,1,
,,,,,,,,,,,,,,,,,614f56ca93028ed09c869a69,59,2022-02-12_16h56.24.709,lexical_decision_task_DD_L6,2021.2.3,Win32,59.35774915,,,,,,,,,,,0.7556,0,,,,,,,,,,,,,,,,,,,,,,,,-0.024999987,-0.444444459,0,0,0,,,,,,,KIDNEY,LB,z,y,./images/KIDNEYLB.png,,,,,,,,,,,,,,,,,,,,,m,0,0.7556,,,,,,,,0,48,48,105,1,
,,,,,,,,,,,,,,,,,614f56ca93028ed09c869a69,59,2022-02-12_16h56.24.709,lexical_decision_task_DD_L6,2021.2.3,Win32,59.35774915,,,,,,,,,,,1.5166,1,,,,,,,,,,,,,,,,,,,,,,,,-0.023148135,-0.447222236,0,0,0,,,,,,,PEACH,HB,z,y,./images/PEACHHB.png,,,,,,,,,,,,,,,,,,,,,z,1,1.5166,,,,,,,,0,49,49,119,1,
,,,,,,,,,,,,,,,,,614f56ca93028ed09c869a69,59,2022-02-12_16h56.24.709,lexical_decision_task_DD_L6,2021.2.3,Win32,59.35774915,,,,,,,,,,,0.9851,0,,,,,,,,,,,,,,,,,,,,,,,,-0.024074061,-0.446296367,0,0,0,,,,,,,LITTER,LB,z,y,./images/LITTERLB.png,,,,,,,,,,,,,,,,,,,,,m,0,0.9851,,,,,,,,0,50,50,162,1,
,,,,,,,,,,,,,,,,,614f56ca93028ed09c869a69,59,2022-02-12_16h56.24.709,lexical_decision_task_DD_L6,2021.2.3,Win32,59.35774915,,,,,,,,,,,1.1128,1,,,,,,,,,,,,,,,,,,,,,,,,-0.024074061,-0.446296367,0,0,0,,,,,,,ARROW,LB,m,y,./images/ARROWLB.png,,,,,,,,,,,,,,,,,,,,,m,1,1.1128,,,,,,,,0,51,51,69,1,
,,,,,,,,,,,,,,,,,614f56ca93028ed09c869a69,59,2022-02-12_16h56.24.709,lexical_decision_task_DD_L6,2021.2.3,Win32,59.35774915,,,,,,,,,,,0.7166,1,,,,,,,,,,,,,,,,,,,,,,,,-0.024074061,-0.446296367,0,0,0,,,,,,,PIMPLE,HB,z,y,./images/PIMPLEHB.png,,,,,,,,,,,,,,,,,,,,,z,1,0.7166,,,,,,,,0,52,52,155,1,
,,,,,,,,,,,,,,,,,614f56ca93028ed09c869a69,59,2022-02-12_16h56.24.709,lexical_decision_task_DD_L6,2021.2.3,Win32,59.35774915,,,,,,,,,,,0.8405,1,,,,,,,,,,,,,,,,,,,,,,,,-0.024074061,-0.446296367,0,0,0,,,,,,,BISHOP,C,m,y,./images/BISHOP.png,,,,,,,,,,,,,,,,,,,,,m,1,0.8405,,,,,,,,0,53,53,49,1,
,,,,,,,,,,,,,,,,,614f56ca93028ed09c869a69,59,2022-02-12_16h56.24.709,lexical_decision_task_DD_L6,2021.2.3,Win32,59.35774915,,,,,,,,,,,0.7568,1,,,,,,,,,,,,,,,,,,,,,,,,-0.024074061,-0.446296367,0,0,0,,,,,,,TIGER,C,m,y,./images/TIGER.png,,,,,,,,,,,,,,,,,,,,,m,1,0.7568,,,,,,,,0,54,54,37,1,
,,,,,,,,,,,,,,,,,614f56ca93028ed09c869a69,59,2022-02-12_16h56.24.709,lexical_decision_task_DD_L6,2021.2.3,Win32,59.35774915,,,,,,,,,,,0.7917,1,,,,,,,,,,,,,,,,,,,,,,,,-0.024074061,-0.446296367,0,0,0,,,,,,,JELLY,C,z,y,./images/JELLY.png,,,,,,,,,,,,,,,,,,,,,z,1,0.7917,,,,,,,,0,55,55,148,1,
,,,,,,,,,,,,,,,,,614f56ca93028ed09c869a69,59,2022-02-12_16h56.24.709,lexical_decision_task_DD_L6,2021.2.3,Win32,59.35774915,,,,,,,,,,,0.83,1,,,,,,,,,,,,,,,,,,,,,,,,-0.024074061,-0.446296367,0,0,0,,,,,,,BLOKE,LB,m,y,./images/BLOKELB.png,,,,,,,,,,,,,,,,,,,,,m,1,0.83,,,,,,,,0,56,56,12,1,
,,,,,,,,,,,,,,,,,614f56ca93028ed09c869a69,59,2022-02-12_16h56.24.709,lexical_decision_task_DD_L6,2021.2.3,Win32,59.35774915,,,,,,,,,,,0.6637,1,,,,,,,,,,,,,,,,,,,,,,,,-0.024074061,-0.446296367,0,0,0,,,,,,,BUTTER,LB,m,y,./images/BUTTERLB.png,,,,,,,,,,,,,,,,,,,,,m,1,0.6637,,,,,,,,0,57,57,27,1,
,,,,,,,,,,,,,,,,,614f56ca93028ed09c869a69,59,2022-02-12_16h56.24.709,lexical_decision_task_DD_L6,2021.2.3,Win32,59.35774915,,,,,,,,,,,0.6498,1,,,,,,,,,,,,,,,,,,,,,,,,-0.024074061,-0.446296367,0,0,0,,,,,,,MOSQUE,C,z,y,./images/MOSQUE.png,,,,,,,,,,,,,,,,,,,,,z,1,0.6498,,,,,,,,0,58,58,127,1,
,,,,,,,,,,,,,,,,,614f56ca93028ed09c869a69,59,2022-02-12_16h56.24.709,lexical_decision_task_DD_L6,2021.2.3,Win32,59.35774915,,,,,,,,,,,1.5738,0,,,,,,,,,,,,,,,,,,,,,,,,-0.024074061,-0.446296367,0,0,0,,,,,,,BERRY,HB,z,y,./images/BERRYHB.png,,,,,,,,,,,,,,,,,,,,,m,0,1.5738,,,,,,,,0,59,59,131,1,
,,,,,,,,,,,,,,,,,614f56ca93028ed09c869a69,59,2022-02-12_16h56.24.709,lexical_decision_task_DD_L6,2021.2.3,Win32,59.35774915,,,,,,,,,,,0.7983,1,,,,,,,,,,,,,,,,,,,,,,,,-0.024074061,-0.446296367,0,0,0,,,,,,,TOMATO,LB,z,y,./images/TOMATOLB.png,,,,,,,,,,,,,,,,,,,,,z,1,0.7983,,,,,,,,0,60,60,84,1,
,,,,,,,,,,,,,,,,,614f56ca93028ed09c869a69,59,2022-02-12_16h56.24.709,lexical_decision_task_DD_L6,2021.2.3,Win32,59.35774915,,,,,,,,,,,1.3188,0,,,,,,,,,,,,,,,,,,,,,,,,-0.024074061,-0.446296367,0,0,0,,,,,,,POODLE,LB,z,y,./images/POODLELB.png,,,,,,,,,,,,,,,,,,,,,m,0,1.3188,,,,,,,,0,61,61,165,1,
,,,,,,,,,,,,,,,,,614f56ca93028ed09c869a69,59,2022-02-12_16h56.24.709,lexical_decision_task_DD_L6,2021.2.3,Win32,59.35774915,,,,,,,,,,,1.2256,0,,,,,,,,,,,,,,,,,,,,,,,,-0.024074061,-0.446296367,0,0,0,,,,,,,FOLDER,LB,z,y,./images/FOLDERLB.png,,,,,,,,,,,,,,,,,,,,,m,0,1.2256,,,,,,,,0,62,62,126,1,
,,,,,,,,,,,,,,,,,614f56ca93028ed09c869a69,59,2022-02-12_16h56.24.709,lexical_decision_task_DD_L6,2021.2.3,Win32,59.35774915,,,,,,,,,,,0.8495,1,,,,,,,,,,,,,,,,,,,,,,,,-0.024074061,-0.446296367,0,0,0,,,,,,,PEBBLE,C,m,y,./images/PEBBLE.png,,,,,,,,,,,,,,,,,,,,,m,1,0.8495,,,,,,,,0,63,63,82,1,
,,,,,,,,,,,,,,,,,614f56ca93028ed09c869a69,59,2022-02-12_16h56.24.709,lexical_decision_task_DD_L6,2021.2.3,Win32,59.35774915,,,,,,,,,,,0.7573,1,,,,,,,,,,,,,,,,,,,,,,,,-0.024074061,-0.446296367,0,0,0,,,,,,,MAMMAL,HB,m,y,./images/MAMMALHB.png,,,,,,,,,,,,,,,,,,,,,m,1,0.7573,,,,,,,,0,64,64,62,1,
,,,,,,,,,,,,,,,,,614f56ca93028ed09c869a69,59,2022-02-12_16h56.24.709,lexical_decision_task_DD_L6,2021.2.3,Win32,59.35774915,,,,,,,,,,,1.1461,0,,,,,,,,,,,,,,,,,,,,,,,,-0.024074061,-0.446296367,0,0,0,,,,,,,JUNGLE,HB,z,y,./images/JUNGLEHB.png,,,,,,,,,,,,,,,,,,,,,m,0,1.1461,,,,,,,,0,65,65,167,1,
,,,,,,,,,,,,,,,,,614f56ca93028ed09c869a69,59,2022-02-12_16h56.24.709,lexical_decision_task_DD_L6,2021.2.3,Win32,59.35774915,,,,,,,,,,,0.7319,1,,,,,,,,,,,,,,,,,,,,,,,,-0.024074061,-0.446296367,0,0,0,,,,,,,GARDEN,C,m,y,./images/GARDEN.png,,,,,,,,,,,,,,,,,,,,,m,1,0.7319,,,,,,,,0,66,66,10,1,
,,,,,,,,,,,,,,,,,614f56ca93028ed09c869a69,59,2022-02-12_16h56.24.709,lexical_decision_task_DD_L6,2021.2.3,Win32,59.35774915,,,,,,,,,,,0.9314,0,,,,,,,,,,,,,,,,,,,,,,,,-0.024074061,-0.446296367,0,0,0,,,,,,,SAUCE,LB,m,y,./images/SAUCELB.png,,,,,,,,,,,,,,,,,,,,,z,0,0.9314,,,,,,,,0,67,67,51,1,
,,,,,,,,,,,,,,,,,614f56ca93028ed09c869a69,59,2022-02-12_16h56.24.709,lexical_decision_task_DD_L6,2021.2.3,Win32,59.35774915,,,,,,,,,,,1.0002,1,,,,,,,,,,,,,,,,,,,,,,,,-0.024074061,-0.446296367,0,0,0,,,,,,,CARPET,HB,z,y,./images/CARPETHB.png,,,,,,,,,,,,,,,,,,,,,z,1,1.0002,,,,,,,,0,68,68,137,1,
,,,,,,,,,,,,,,,,,614f56ca93028ed09c869a69,59,2022-02-12_16h56.24.709,lexical_decision_task_DD_L6,2021.2.3,Win32,59.35774915,,,,,,,,,,,1.7654,1,,,,,,,,,,,,,,,,,,,,,,,,-0.026851839,-0.444444459,0,0,0,,,,,,,KITTEN,LB,z,y,./images/KITTENLB.png,,,,,,,,,,,,,,,,,,,,,z,1,1.7654,,,,,,,,0,69,69,129,1,
,,,,,,,,,,,,,,,,,614f56ca93028ed09c869a69,59,2022-02-12_16h56.24.709,lexical_decision_task_DD_L6,2021.2.3,Win32,59.35774915,,,,,,,,,,,0.848,0,,,,,,,,,,,,,,,,,,,,,,,,-0.025925857,-0.445370384,0,0,0,,,,,,,LLAMA,HB,m,y,./images/LLAMAHB.png,,,,,,,,,,,,,,,,,,,,,z,0,0.848,,,,,,,,0,70,70,35,1,
,,,,,,,,,,,,,,,,,614f56ca93028ed09c869a69,59,2022-02-12_16h56.24.709,lexical_decision_task_DD_L6,2021.2.3,Win32,59.35774915,,,,,,,,,,,0.6461,0,,,,,,,,,,,,,,,,,,,,,,,,-0.025925857,-0.445370384,0,0,0,,,,,,,SCREW,LB,z,y,./images/SCREWLB.png,,,,,,,,,,,,,,,,,,,,,m,0,0.6461,,,,,,,,0,71,71,108,1,
,,,,,,,,,,,,,,,,,614f56ca93028ed09c869a69,59,2022-02-12_16h56.24.709,lexical_decision_task_DD_L6,2021.2.3,Win32,59.35774915,,,,,,,,,,,0.7419,1,,,,,,,,,,,,,,,,,,,,,,,,-0.023148135,-0.449074088,0,0,0,,,,,,,RHINO,LB,z,y,./images/RHINOLB.png,,,,,,,,,,,,,,,,,,,,,z,1,0.7419,,,,,,,,0,72,72,93,1,
,,,,,,,,,,,,,,,,,614f56ca93028ed09c869a69,59,2022-02-12_16h56.24.709,lexical_decision_task_DD_L6,2021.2.3,Win32,59.35774915,,,,,,,,,,,1.0305,0,,,,,,,,,,,,,,,,,,,,,,,,-0.023148135,-0.449074088,0,0,0,,,,,,,ATTIC,LB,z,y,./images/ATTICLB.png,,,,,,,,,,,,,,,,,,,,,m,0,1.0305,,,,,,,,0,73,73,111,1,
,,,,,,,,,,,,,,,,,614f56ca93028ed09c869a69,59,2022-02-12_16h56.24.709,lexical_decision_task_DD_L6,2021.2.3,Win32,59.35774915,,,,,,,,,,,0.7177,0,,,,,,,,,,,,,,,,,,,,,,,,-0.020370357,-0.451851866,0,0,0,,,,,,,BARREL,HB,z,y,./images/BARRELHB.png,,,,,,,,,,,,,,,,,,,,,m,0,0.7177,,,,,,,,0,74,74,116,1,
,,,,,,,,,,,,,,,,,614f56ca93028ed09c869a69,59,2022-02-12_16h56.24.709,lexical_decision_task_DD_L6,2021.2.3,Win32,59.35774915,,,,,,,,,,,1.1963,0,,,,,,,,,,,,,,,,,,,,,,,,-0.018518506,-0.453703718,0,0,0,,,,,,,BURIAL,HB,z,y,./images/BURIALHB.png,,,,,,,,,,,,,,,,,,,,,m,0,1.1963,,,,,,,,0,75,75,143,1,
,,,,,,,,,,,,,,,,,614f56ca93028ed09c869a69,59,2022-02-12_16h56.24.709,lexical_decision_task_DD_L6,2021.2.3,Win32,59.35774915,,,,,,,,,,,0.7145,0,,,,,,,,,,,,,,,,,,,,,,,,-0.018518506,-0.453703718,0,0,0,,,,,,,SNACK,C,z,y,./images/SNACK.png,,,,,,,,,,,,,,,,,,,,,m,0,0.7145,,,,,,,,0,76,76,157,1,
,,,,,,,,,,,,,,,,,614f56ca93028ed09c869a69,59,2022-02-12_16h56.24.709,lexical_decision_task_DD_L6,2021.2.3,Win32,59.35774915,,,,,,,,,,,1.0434,0,,,,,,,,,,,,,,,,,,,,,,,,-0.018518506,-0.453703718,0,0,0,,,,,,,CLOTH,HB,m,y,./images/CLOTHHB.png,,,,,,,,,,,,,,,,,,,,,z,0,1.0434,,,,,,,,0,77,77,23,1,
,,,,,,,,,,,,,,,,,614f56ca93028ed09c869a69,59,2022-02-12_16h56.24.709,lexical_decision_task_DD_L6,2021.2.3,Win32,59.35774915,,,,,,,,,,,1.5099,0,,,,,,,,,,,,,,,,,,,,,,,,-0.018518506,-0.453703718,0,0,0,,,,,,,ENGINE,HB,m,y,./images/ENGINEHB.png,,,,,,,,,,,,,,,,,,,,,z,0,1.5099,,,,,,,,0,78,78,38,1,
,,,,,,,,,,,,,,,,,614f56ca93028ed09c869a69,59,2022-02-12_16h56.24.709,lexical_decision_task_DD_L6,2021.2.3,Win32,59.35774915,,,,,,,,,,,0.6737,1,,,,,,,,,,,,,,,,,,,,,,,,-0.021296227,-0.45092594,0,0,0,,,,,,,STATUE,LB,m,y,./images/STATUELB.png,,,,,,,,,,,,,,,,,,,,,m,1,0.6737,,,,,,,,0,79,79,66,1,
,,,,,,,,,,,,,,,,,614f56ca93028ed09c869a69,59,2022-02-12_16h56.24.709,lexical_decision_task_DD_L6,2021.2.3,Win32,59.35774915,,,,,,,,,,,0.7362,1,,,,,,,,,,,,,,,,,,,,,,,,-0.014814802,-0.454629644,0,0,0,,,,,,,CANDLE,C,z,y,./images/CANDLE.png,,,,,,,,,,,,,,,,,,,,,z,1,0.7362,,,,,,,,0,80,80,145,1,
,,,,,,,,,,,,,,,,,614f56ca93028ed09c869a69,59,2022-02-12_16h56.24.709,lexical_decision_task_DD_L6,2021.2.3,Win32,59.35774915,,,,,,,,,,,0.6937,1,,,,,,,,,,,,,,,,,,,,,,,,-0.014814802,-0.454629644,0,0,0,,,,,,,BUBBLE,HB,m,y,./images/BUBBLEHB.png,,,,,,,,,,,,,,,,,,,,,m,1,0.6937,,,,,,,,0,81,81,71,1,
,,,,,,,,,,,,,,,,,614f56ca93028ed09c869a69,59,2022-02-12_16h56.24.709,lexical_decision_task_DD_L6,2021.2.3,Win32,59.35774915,,,,,,,,,,,1.3432,1,,,,,,,,,,,,,,,,,,,,,,,,-0.014814802,-0.454629644,0,0,0,,,,,,,QUILL,C,z,y,./images/QUILL.png,,,,,,,,,,,,,,,,,,,,,z,1,1.3432,,,,,,,,0,82,82,115,1,
,,,,,,,,,,,,,,,,,614f56ca93028ed09c869a69,59,2022-02-12_16h56.24.709,lexical_decision_task_DD_L6,2021.2.3,Win32,59.35774915,,,,,,,,,,,1.4632,0,,,,,,,,,,,,,,,,,,,,,,,,0.032407421,-0.33240742,0,0,0,space,,,,,,HEATER,HB,m,y,./images/HEATERHB.png,4.3296,,,,,,,,,,,,,,,,,,,,z,0,1.4632,,,,,,,,0,83,83,56,1,
,,,,,,,,,,,,,,,,,614f56ca93028ed09c869a69,59,2022-02-12_16h56.24.709,lexical_decision_task_DD_L6,2021.2.3,Win32,59.35774915,,,,,,,,,,,0.7394,1,,,,,,,,,,,,,,,,,,,,,,,,0.032407421,-0.33240742,0,0,0,,,,,,,MONKEY,LB,m,y,./images/MONKEYLB.png,,,,,,,,,,,,,,,,,,,,,m,1,0.7394,,,,,,,,0,84,84,45,1,
,,,,,,,,,,,,,,,,,614f56ca93028ed09c869a69,59,2022-02-12_16h56.24.709,lexical_decision_task_DD_L6,2021.2.3,Win32,59.35774915,,,,,,,,,,,0.7636,0,,,,,,,,,,,,,,,,,,,,,,,,0.032407421,-0.33240742,0,0,0,,,,,,,CASINO,C,m,y,./images/CASINO.png,,,,,,,,,,,,,,,,,,,,,z,0,0.7636,,,,,,,,0,85,85,28,1,
,,,,,,,,,,,,,,,,,614f56ca93028ed09c869a69,59,2022-02-12_16h56.24.709,lexical_decision_task_DD_L6,2021.2.3,Win32,59.35774915,,,,,,,,,,,0.7252,0,,,,,,,,,,,,,,,,,,,,,,,,0.032407421,-0.33240742,0,0,0,,,,,,,LADDER,HB,z,y,./images/LADDERHB.png,,,,,,,,,,,,,,,,,,,,,m,0,0.7252,,,,,,,,0,86,86,122,1,
,,,,,,,,,,,,,,,,,614f56ca93028ed09c869a69,59,2022-02-12_16h56.24.709,lexical_decision_task_DD_L6,2021.2.3,Win32,59.35774915,,,,,,,,,,,0.9221,1,,,,,,,,,,,,,,,,,,,,,,,,0.032407421,-0.33240742,0,0,0,,,,,,,BOILER,LB,m,y,./images/BOILERLB.png,,,,,,,,,,,,,,,,,,,,,m,1,0.9221,,,,,,,,0,87,87,36,1,
,,,,,,,,,,,,,,,,,614f56ca93028ed09c869a69,59,2022-02-12_16h56.24.709,lexical_decision_task_DD_L6,2021.2.3,Win32,59.35774915,,,,,,,,,,,1.0091,1,,,,,,,,,,,,,,,,,,,,,,,,0.032407421,-0.33240742,0,0,0,,,,,,,BAMBOO,HB,m,y,./images/BAMBOOHB.png,,,,,,,,,,,,,,,,,,,,,m,1,1.0091,,,,,,,,0,88,88,5,1,
,,,,,,,,,,,,,,,,,614f56ca93028ed09c869a69,59,2022-02-12_16h56.24.709,lexical_decision_task_DD_L6,2021.2.3,Win32,59.35774915,,,,,,,,,,,0.6484,1,,,,,,,,,,,,,,,,,,,,,,,,0.032407421,-0.33240742,0,0,0,,,,,,,MAGGOT,LB,z,y,./images/MAGGOTLB.png,,,,,,,,,,,,,,,,,,,,,z,1,0.6484,,,,,,,,0,89,89,117,1,
,,,,,,,,,,,,,,,,,614f56ca93028ed09c869a69,59,2022-02-12_16h56.24.709,lexical_decision_task_DD_L6,2021.2.3,Win32,59.35774915,,,,,,,,,,,0.8178,1,,,,,,,,,,,,,,,,,,,,,,,,0.032407421,-0.33240742,0,0,0,,,,,,,SNAKE,C,m,y,./images/SNAKE.png,,,,,,,,,,,,,,,,,,,,,m,1,0.8178,,,,,,,,0,90,90,40,1,
,,,,,,,,,,,,,,,,,614f56ca93028ed09c869a69,59,2022-02-12_16h56.24.709,lexical_decision_task_DD_L6,2021.2.3,Win32,59.35774915,,,,,,,,,,,1.2498,1,,,,,,,,,,,,,,,,,,,,,,,,0.032407421,-0.33240742,0,0,0,,,,,,,BELLY,C,z,y,./images/BELLY.png,,,,,,,,,,,,,,,,,,,,,z,1,1.2498,,,,,,,,0,91,91,94,1,
,,,,,,,,,,,,,,,,,614f56ca93028ed09c869a69,59,2022-02-12_16h56.24.709,lexical_decision_task_DD_L6,2021.2.3,Win32,59.35774915,,,,,,,,,,,0.9365,1,,,,,,,,,,,,,,,,,,,,,,,,0.032407421,-0.33240742,0,0,0,,,,,,,BAKER,LB,m,y,./images/BAKERLB.png,,,,,,,,,,,,,,,,,,,,,m,1,0.9365,,,,,,,,0,92,92,63,1,
,,,,,,,,,,,,,,,,,614f56ca93028ed09c869a69,59,2022-02-12_16h56.24.709,lexical_decision_task_DD_L6,2021.2.3,Win32,59.35774915,,,,,,,,,,,0.6033,1,,,,,,,,,,,,,,,,,,,,,,,,0.032407421,-0.33240742,0,0,0,,,,,,,CANDY,LB,m,y,./images/CANDYLB.png,,,,,,,,,,,,,,,,,,,,,m,1,0.6033,,,,,,,,0,93,93,39,1,
,,,,,,,,,,,,,,,,,614f56ca93028ed09c869a69,59,2022-02-12_16h56.24.709,lexical_decision_task_DD_L6,2021.2.3,Win32,59.35774915,,,,,,,,,,,0.8965,1,,,,,,,,,,,,,,,,,,,,,,,,0.032407421,-0.33240742,0,0,0,,,,,,,POSTER,HB,m,y,./images/POSTERHB.png,,,,,,,,,,,,,,,,,,,,,m,1,0.8965,,,,,,,,0,94,94,53,1,
,,,,,,,,,,,,,,,,,614f56ca93028ed09c869a69,59,2022-02-12_16h56.24.709,lexical_decision_task_DD_L6,2021.2.3,Win32,59.35774915,,,,,,,,,,,0.754,1,,,,,,,,,,,,,,,,,,,,,,,,0.0296297,-0.33240742,0,0,0,,,,,,,BASKET,HB,m,y,./images/BASKETHB.png,,,,,,,,,,,,,,,,,,,,,m,1,0.754,,,,,,,,0,95,95,44,1,
,,,,,,,,,,,,,,,,,614f56ca93028ed09c869a69,59,2022-02-12_16h56.24.709,lexical_decision_task_DD_L6,2021.2.3,Win32,59.35774915,,,,,,,,,,,0.7504,1,,,,,,,,,,,,,,,,,,,,,,,,0.027777791,-0.333333346,0,0,0,,,,,,,CANOE,C,m,y,./images/CANOE.png,,,,,,,,,,,,,,,,,,,,,m,1,0.7504,,,,,,,,0,96,96,58,1,
,,,,,,,,,,,,,,,,,614f56ca93028ed09c869a69,59,2022-02-12_16h56.24.709,lexical_decision_task_DD_L6,2021.2.3,Win32,59.35774915,,,,,,,,,,,1.3704,1,,,,,,,,,,,,,,,,,,,,,,,,0.027777791,-0.333333346,0,0,0,,,,,,,DRILL,LB,m,y,./images/DRILLLB.png,,,,,,,,,,,,,,,,,,,,,m,1,1.3704,,,,,,,,0,97,97,81,1,
,,,,,,,,,,,,,,,,,614f56ca93028ed09c869a69,59,2022-02-12_16h56.24.709,lexical_decision_task_DD_L6,2021.2.3,Win32,59.35774915,,,,,,,,,,,0.8991,1,,,,,,,,,,,,,,,,,,,,,,,,0.027777791,-0.333333346,0,0,0,,,,,,,SAUNA,LB,m,y,./images/SAUNALB.png,,,,,,,,,,,,,,,,,,,,,m,1,0.8991,,,,,,,,0,98,98,33,1,
,,,,,,,,,,,,,,,,,614f56ca93028ed09c869a69,59,2022-02-12_16h56.24.709,lexical_decision_task_DD_L6,2021.2.3,Win32,59.35774915,,,,,,,,,,,0.8213,1,,,,,,,,,,,,,,,,,,,,,,,,0.026851865,-0.333333346,0,0,0,,,,,,,FARMER,HB,z,y,./images/FARMERHB.png,,,,,,,,,,,,,,,,,,,,,z,1,0.8213,,,,,,,,0,99,99,149,1,
,,,,,,,,,,,,,,,,,614f56ca93028ed09c869a69,59,2022-02-12_16h56.24.709,lexical_decision_task_DD_L6,2021.2.3,Win32,59.35774915,,,,,,,,,,,0.689,1,,,,,,,,,,,,,,,,,,,,,,,,0.026851865,-0.333333346,0,0,0,,,,,,,TULIP,HB,z,y,./images/TULIPHB.png,,,,,,,,,,,,,,,,,,,,,z,1,0.689,,,,,,,,0,100,100,92,1,
,,,,,,,,,,,,,,,,,614f56ca93028ed09c869a69,59,2022-02-12_16h56.24.709,lexical_decision_task_DD_L6,2021.2.3,Win32,59.35774915,,,,,,,,,,,1.0797,0,,,,,,,,,,,,,,,,,,,,,,,,0.026851865,-0.333333346,0,0,0,,,,,,,GRANNY,HB,m,y,./images/GRANNYHB.png,,,,,,,,,,,,,,,,,,,,,z,0,1.0797,,,,,,,,0,101,101,20,1,
,,,,,,,,,,,,,,,,,614f56ca93028ed09c869a69,59,2022-02-12_16h56.24.709,lexical_decision_task_DD_L6,2021.2.3,Win32,59.35774915,,,,,,,,,,,1.1206,1,,,,,,,,,,,,,,,,,,,,,,,,0.026851865,-0.333333346,0,0,0,,,,,,,STAIN,LB,m,y,./images/STAINLB.png,,,,,,,,,,,,,,,,,,,,,m,1,1.1206,,,,,,,,0,102,102,6,1,
,,,,,,,,,,,,,,,,,614f56ca93028ed09c869a69,59,2022-02-12_16h56.24.709,lexical_decision_task_DD_L6,2021.2.3,Win32,59.35774915,,,,,,,,,,,1.5412,1,,,,,,,,,,,,,,,,,,,,,,,,0.026851865,-0.333333346,0,0,0,,,,,,,PAINT,C,z,y,./images/PAINT.png,,,,,,,,,,,,,,,,,,,,,z,1,1.5412,,,,,,,,0,103,103,91,1,
,,,,,,,,,,,,,,,,,614f56ca93028ed09c869a69,59,2022-02-12_16h56.24.709,lexical_decision_task_DD_L6,2021.2.3,Win32,59.35774915,,,,,,,,,,,0.869,0,,,,,,,,,,,,,,,,,,,,,,,,0.026851865,-0.333333346,0,0,0,,,,,,,CRUST,C,z,y,./images/CRUST.png,,,,,,,,,,,,,,,,,,,,,m,0,0.869,,,,,,,,0,104,104,163,1,
,,,,,,,,,,,,,,,,,614f56ca93028ed09c869a69,59,2022-02-12_16h56.24.709,lexical_decision_task_DD_L6,2021.2.3,Win32,59.35774915,,,,,,,,,,,1.2082,1,,,,,,,,,,,,,,,,,,,,,,,,0.027777791,-0.333333346,0,0,0,,,,,,,COUCH,HB,z,y,./images/COUCHHB.png,,,,,,,,,,,,,,,,,,,,,z,1,1.2082,,,,,,,,0,105,105,161,1,
,,,,,,,,,,,,,,,,,614f56ca93028ed09c869a69,59,2022-02-12_16h56.24.709,lexical_decision_task_DD_L6,2021.2.3,Win32,59.35774915,,,,,,,,,,,0.6317,0,,,,,,,,,,,,,,,,,,,,,,,,0.031481495,-0.334259272,0,0,0,,,,,,,CRUMB,HB,z,y,./images/CRUMBHB.png,,,,,,,,,,,,,,,,,,,,,m,0,0.6317,,,,,,,,0,106,106,113,1,
,,,,,,,,,,,,,,,,,614f56ca93028ed09c869a69,59,2022-02-12_16h56.24.709,lexical_decision_task_DD_L6,2021.2.3,Win32,59.35774915,,,,,,,,,,,1.5165,1,,,,,,,,,,,,,,,,,,,,,,,,0.032407421,-0.335185254,0,0,0,,,,,,,SHORE,LB,z,y,./images/SHORELB.png,,,,,,,,,,,,,,,,,,,,,z,1,1.5165,,,,,,,,0,107,107,96,1,
,,,,,,,,,,,,,,,,,614f56ca93028ed09c869a69,59,2022-02-12_16h56.24.709,lexical_decision_task_DD_L6,2021.2.3,Win32,59.35774915,,,,,,,,,,,1.9535,0,,,,,,,,,,,,,,,,,,,,,,,,0.032407421,-0.335185254,0,0,0,,,,,,,DESERT,C,m,y,./images/DESERT.png,,,,,,,,,,,,,,,,,,,,,z,0,1.9535,,,,,,,,0,108,108,52,1,
,,,,,,,,,,,,,,,,,614f56ca93028ed09c869a69,59,2022-02-12_16h56.24.709,lexical_decision_task_DD_L6,2021.2.3,Win32,59.35774915,,,,,,,,,,,1.1207,1,,,,,,,,,,,,,,,,,,,,,,,,0.032407421,-0.335185254,0,0,0,,,,,,,CANYON,C,z,y,./images/CANYON.png,,,,,,,,,,,,,,,,,,,,,z,1,1.1207,,,,,,,,0,109,109,118,1,
,,,,,,,,,,,,,,,,,614f56ca93028ed09c869a69,59,2022-02-12_16h56.24.709,lexical_decision_task_DD_L6,2021.2.3,Win32,59.35774915,,,,,,,,,,,1.2699,1,,,,,,,,,,,,,,,,,,,,,,,,0.032407421,-0.335185254,0,0,0,,,,,,,TWINS,LB,z,y,./images/TWINSLB.png,,,,,,,,,,,,,,,,,,,,,z,1,1.2699,,,,,,,,0,110,110,144,1,
,,,,,,,,,,,,,,,,,614f56ca93028ed09c869a69,59,2022-02-12_16h56.24.709,lexical_decision_task_DD_L6,2021.2.3,Win32,59.35774915,,,,,,,,,,,0.5979,1,,,,,,,,,,,,,,,,,,,,,,,,0.032407421,-0.335185254,0,0,0,,,,,,,RULER,C,m,y,./images/RULER.png,,,,,,,,,,,,,,,,,,,,,m,1,0.5979,,,,,,,,0,111,111,79,1,
,,,,,,,,,,,,,,,,,614f56ca93028ed09c869a69,59,2022-02-12_16h56.24.709,lexical_decision_task_DD_L6,2021.2.3,Win32,59.35774915,,,,,,,,,,,0.7587,1,,,,,,,,,,,,,,,,,,,,,,,,0.032407421,-0.335185254,0,0,0,,,,,,,MUSCLE,C,z,y,./images/MUSCLE.png,,,,,,,,,,,,,,,,,,,,,z,1,0.7587,,,,,,,,0,112,112,88,1,
,,,,,,,,,,,,,,,,,614f56ca93028ed09c869a69,59,2022-02-12_16h56.24.709,lexical_decision_task_DD_L6,2021.2.3,Win32,59.35774915,,,,,,,,,,,0.721,1,,,,,,,,,,,,,,,,,,,,,,,,0.032407421,-0.335185254,0,0,0,,,,,,,STRING,HB,z,y,./images/STRINGHB.png,,,,,,,,,,,,,,,,,,,,,z,1,0.721,,,,,,,,0,113,113,125,1,
,,,,,,,,,,,,,,,,,614f56ca93028ed09c869a69,59,2022-02-12_16h56.24.709,lexical_decision_task_DD_L6,2021.2.3,Win32,59.35774915,,,,,,,,,,,0.9839,1,,,,,,,,,,,,,,,,,,,,,,,,0.032407421,-0.335185254,0,0,0,,,,,,,BONNET,HB,z,y,./images/BONNETHB.png,,,,,,,,,,,,,,,,,,,,,z,1,0.9839,,,,,,,,0,114,114,95,1,
,,,,,,,,,,,,,,,,,614f56ca93028ed09c869a69,59,2022-02-12_16h56.24.709,lexical_decision_task_DD_L6,2021.2.3,Win32,59.35774915,,,,,,,,,,,0.7805,1,,,,,,,,,,,,,,,,,,,,,,,,0.032407421,-0.335185254,0,0,0,,,,,,,MUMMY,C,m,y,./images/MUMMY.png,,,,,,,,,,,,,,,,,,,,,m,1,0.7805,,,,,,,,0,115,115,46,1,
,,,,,,,,,,,,,,,,,614f56ca93028ed09c869a69,59,2022-02-12_16h56.24.709,lexical_decision_task_DD_L6,2021.2.3,Win32,59.35774915,,,,,,,,,,,0.6477,1,,,,,,,,,,,,,,,,,,,,,,,,0.032407421,-0.335185254,0,0,0,,,,,,,ALLEY,C,m,y,./images/ALLEY.png,,,,,,,,,,,,,,,,,,,,,m,1,0.6477,,,,,,,,0,116,116,55,1,
,,,,,,,,,,,,,,,,,614f56ca93028ed09c869a69,59,2022-02-12_16h56.24.709,lexical_decision_task_DD_L6,2021.2.3,Win32,59.35774915,,,,,,,,,,,1.5108,0,,,,,,,,,,,,,,,,,,,,,,,,0.031481495,-0.335185254,0,0,0,,,,,,,MUFFIN,C,z,y,./images/MUFFIN.png,,,,,,,,,,,,,,,,,,,,,m,0,1.5108,,,,,,,,0,117,117,139,1,
,,,,,,,,,,,,,,,,,614f56ca93028ed09c869a69,59,2022-02-12_16h56.24.709,lexical_decision_task_DD_L6,2021.2.3,Win32,59.35774915,,,,,,,,,,,0.8974,1,,,,,,,,,,,,,,,,,,,,,,,,0.031481495,-0.335185254,0,0,0,,,,,,,STREAM,HB,m,y,./images/STREAMHB.png,,,,,,,,,,,,,,,,,,,,,m,1,0.8974,,,,,,,,0,118,118,41,1,
,,,,,,,,,,,,,,,,,614f56ca93028ed09c869a69,59,2022-02-12_16h56.24.709,lexical_decision_task_DD_L6,2021.2.3,Win32,59.35774915,,,,,,,,,,,0.9677,1,,,,,,,,,,,,,,,,,,,,,,,,0.031481495,-0.335185254,0,0,0,,,,,,,PACKET,HB,z,y,./images/PACKETHB.png,,,,,,,,,,,,,,,,,,,,,z,1,0.9677,,,,,,,,0,119,119,140,1,
,,,,,,,,,,,,,,,,,614f56ca93028ed09c869a69,59,2022-02-12_16h56.24.709,lexical_decision_task_DD_L6,2021.2.3,Win32,59.35774915,,,,,,,,,,,0.774,1,,,,,,,,,,,,,,,,,,,,,,,,0.031481495,-0.335185254,0,0,0,,,,,,,PLANET,HB,m,y,./images/PLANETHB.png,,,,,,,,,,,,,,,,,,,,,m,1,0.774,,,,,,,,0,120,120,80,1,
,,,,,,,,,,,,,,,,,614f56ca93028ed09c869a69,59,2022-02-12_16h56.24.709,lexical_decision_task_DD_L6,2021.2.3,Win32,59.35774915,,,,,,,,,,,0.8333,1,,,,,,,,,,,,,,,,,,,,,,,,0.031481495,-0.335185254,0,0,0,,,,,,,STOVE,HB,m,y,./images/STOVEHB.png,,,,,,,,,,,,,,,,,,,,,m,1,0.8333,,,,,,,,0,121,121,2,1,
,,,,,,,,,,,,,,,,,614f56ca93028ed09c869a69,59,2022-02-12_16h56.24.709,lexical_decision_task_DD_L6,2021.2.3,Win32,59.35774915,,,,,,,,,,,1.0464,1,,,,,,,,,,,,,,,,,,,,,,,,0.031481495,-0.335185254,0,0,0,,,,,,,SUNSET,C,z,y,./images/SUNSET.png,,,,,,,,,,,,,,,,,,,,,z,1,1.0464,,,,,,,,0,122,122,166,1,
,,,,,,,,,,,,,,,,,614f56ca93028ed09c869a69,59,2022-02-12_16h56.24.709,lexical_decision_task_DD_L6,2021.2.3,Win32,59.35774915,,,,,,,,,,,0.6325,1,,,,,,,,,,,,,,,,,,,,,,,,0.031481495,-0.335185254,0,0,0,,,,,,,GLOVE,C,m,y,./images/GLOVE.png,,,,,,,,,,,,,,,,,,,,,m,1,0.6325,,,,,,,,0,123,123,73,1,
,,,,,,,,,,,,,,,,,614f56ca93028ed09c869a69,59,2022-02-12_16h56.24.709,lexical_decision_task_DD_L6,2021.2.3,Win32,59.35774915,,,,,,,,,,,0.7362,1,,,,,,,,,,,,,,,,,,,,,,,,0.031481495,-0.335185254,0,0,0,,,,,,,GRAPE,C,m,y,./images/GRAPE.png,,,,,,,,,,,,,,,,,,,,,m,1,0.7362,,,,,,,,0,124,124,16,1,
,,,,,,,,,,,,,,,,,614f56ca93028ed09c869a69,59,2022-02-12_16h56.24.709,lexical_decision_task_DD_L6,2021.2.3,Win32,59.35774915,,,,,,,,,,,0.6852,1,,,,,,,,,,,,,,,,,,,,,,,,0.070370385,-0.27314816,0,0,0,space,,,,,,FENCE,HB,m,y,./images/FENCEHB.png,2.0336,,,,,,,,,,,,,,,,,,,,m,1,0.6852,,,,,,,,0,125,125,14,1,
,,,,,,,,,,,,,,,,,614f56ca93028ed09c869a69,59,2022-02-12_16h56.24.709,lexical_decision_task_DD_L6,2021.2.3,Win32,59.35774915,,,,,,,,,,,0.8634,1,,,,,,,,,,,,,,,,,,,,,,,,0.069444459,-0.276851863,0,0,0,,,,,,,RAZOR,C,m,y,./images/RAZOR.png,,,,,,,,,,,,,,,,,,,,,m,1,0.8634,,,,,,,,0,126,126,34,1,
,,,,,,,,,,,,,,,,,614f56ca93028ed09c869a69,59,2022-02-12_16h56.24.709,lexical_decision_task_DD_L6,2021.2.3,Win32,59.35774915,,,,,,,,,,,0.8715,1,,,,,,,,,,,,,,,,,,,,,,,,0.041666681,-0.314814827,0,0,0,,,,,,,SHIELD,LB,m,y,./images/SHIELDLB.png,,,,,,,,,,,,,,,,,,,,,m,1,0.8715,,,,,,,,0,127,127,48,1,
,,,,,,,,,,,,,,,,,614f56ca93028ed09c869a69,59,2022-02-12_16h56.24.709,lexical_decision_task_DD_L6,2021.2.3,Win32,59.35774915,,,,,,,,,,,0.6919,1,,,,,,,,,,,,,,,,,,,,,,,,0.041666681,-0.314814827,0,0,0,,,,,,,DRUMS,C,z,y,./images/DRUMS.png,,,,,,,,,,,,,,,,,,,,,z,1,0.6919,,,,,,,,0,128,128,133,1,
,,,,,,,,,,,,,,,,,614f56ca93028ed09c869a69,59,2022-02-12_16h56.24.709,lexical_decision_task_DD_L6,2021.2.3,Win32,59.35774915,,,,,,,,,,,0.6899,1,,,,,,,,,,,,,,,,,,,,,,,,0.041666681,-0.314814827,0,0,0,,,,,,,PISTOL,HB,m,y,./images/PISTOLHB.png,,,,,,,,,,,,,,,,,,,,,m,1,0.6899,,,,,,,,0,129,129,29,1,
,,,,,,,,,,,,,,,,,614f56ca93028ed09c869a69,59,2022-02-12_16h56.24.709,lexical_decision_task_DD_L6,2021.2.3,Win32,59.35774915,,,,,,,,,,,0.9827,0,,,,,,,,,,,,,,,,,,,,,,,,0.041666681,-0.314814827,0,0,0,,,,,,,PURSE,HB,z,y,./images/PURSEHB.png,,,,,,,,,,,,,,,,,,,,,m,0,0.9827,,,,,,,,0,130,130,146,1,
