key_resp.keys,key_resp.rt,instr_done_touch.x,instr_done_touch.y,instr_done_touch.leftButton,instr_done_touch.midButton,instr_done_touch.rightButton,instruction_pages.thisRepN,instruction_pages.thisTrialN,instruction_pages.thisN,instruction_pages.thisIndex,instruction_pages.ran,pageN,phase,instruct_text,has_image,instruct_image,participant,age,date,expName,psychopyVersion,OS,frameRate,response.keys,response.corr,response.rt,touch_resp.x,touch_resp.y,touch_resp.leftButton,touch_resp.midButton,touch_resp.rightButton,touch_resp.time,touch_resp.clicked_name,rt,corr,practrials.thisRepN,practrials.thisTrialN,practrials.thisN,practrials.thisIndex,practrials.ran,TrialID,Target,corrAns,end_of_practice_trials_pages.thisRepN,end_of_practice_trials_pages.thisTrialN,end_of_practice_trials_pages.thisN,end_of_practice_trials_pages.thisIndex,end_of_practice_trials_pages.ran,key_resp_2.keys,key_resp_2.corr,key_resp_2.rt,targ_click.x,targ_click.y,targ_click.leftButton,targ_click.midButton,targ_click.rightButton,targ_click.time,targ_click.clicked_name,break_done_touch.x,break_done_touch.y,break_done_touch.leftButton,break_done_touch.midButton,break_done_touch.rightButton,break_done_keyboard.keys,maintrials.thisRepN,maintrials.thisTrialN,maintrials.thisN,maintrials.thisIndex,maintrials.ran,string,blur,study,lex,stim_path,break_done_keyboard.rt,mouse_2.x,mouse_2.y,mouse_2.leftButton,mouse_2.midButton,mouse_2.rightButton,mouse_2.clicked_name,slider.response,slider.rt,trials.thisRepN,trials.thisTrialN,trials.thisN,trials.thisIndex,trials.ran,test_instructions.thisRepN,test_instructions.thisTrialN,test_instructions.thisN,test_instructions.thisIndex,test_instructions.ran,instr_done_touch.clicked_name,key_resp_3.keys,key_resp_3.corr,key_resp_3.rt,test_click.x,test_click.y,test_click.leftButton,test_click.midButton,test_click.rightButton,test_click.time,test_click.clicked_name,test_phase.thisRepN,test_phase.thisTrialN,test_phase.thisN,test_phase.thisIndex,test_phase.ran
space,21.1506,0.622395833,-0.091145833,0,0,0,0,0,0,0,1,1,instructions,"INSTRUCTIONS
At the start of each trial, look at the plus sign  (+) in the center of the screen.  This tells you that a trial is about to begin and where to look. Second, the plus sign will disappear and a string of letters will appear. Your task is to determine if the string of letters is a word or not. If the item is a word press the M key (on keyboard)  or touch the word button (phone/tablet).  If the item is not a word,  press the  Z key (on keyboard)  or touch the nonword button (on phone/tablet). 
Press the space bar or touch  continue.",0,,614fe0e4ec9ce4a2a4154771,32,2022-02-12_17h49.15.362,lexical_decision_task_DD_L2,2021.2.3,Win32,59.99520038,,,,,,,,,,,,,,,,,,,,,,,,,,,,,,,,,,,,,,,,,,,,,,,,,,,,,,,,,,,,,,,,,,,,,,,,,,,,,,,,,,,,,,
space,7.0732,0.622395833,-0.091145833,0,0,0,0,1,1,1,1,2,instructions,"If your device has a keyboard, press the 'Z' key for nonwords and the 'M' key for words.





Press the space bar or touch the button below to continue.",0,keyboard-example.gif,614fe0e4ec9ce4a2a4154771,32,2022-02-12_17h49.15.362,lexical_decision_task_DD_L2,2021.2.3,Win32,59.99520038,,,,,,,,,,,,,,,,,,,,,,,,,,,,,,,,,,,,,,,,,,,,,,,,,,,,,,,,,,,,,,,,,,,,,,,,,,,,,,,,,,,,,,
space,2.9236,0.622395833,-0.091145833,0,0,0,0,2,2,2,1,3,instructions,"If you are using a touchscreen only device, use the buttons on the screen. Do not use the mouse.





Press the space bar or touch the button below to continue.",0,touchscreen-example.gif,614fe0e4ec9ce4a2a4154771,32,2022-02-12_17h49.15.362,lexical_decision_task_DD_L2,2021.2.3,Win32,59.99520038,,,,,,,,,,,,,,,,,,,,,,,,,,,,,,,,,,,,,,,,,,,,,,,,,,,,,,,,,,,,,,,,,,,,,,,,,,,,,,,,,,,,,,
space,10.9613,0.8359375,0.07421875,0,0,0,0,3,3,3,1,4,instructions,"It is very important that you respond as quickly and accurately as possible, as each letter string will only be on the screen for two seconds. If you do not respond within this time, the message 'Too slow!' will be displayed and the experiment will progress to the next letter string. The first 20 trials will be practice trials and you will receive feedback on your answers. 

Press the space bar or touch the button below to start the practice trials.",0,,614fe0e4ec9ce4a2a4154771,32,2022-02-12_17h49.15.362,lexical_decision_task_DD_L2,2021.2.3,Win32,59.99520038,,,,,,,,,,,,,,,,,,,,,,,,,,,,,,,,,,,,,,,,,,,,,,,,,,,,,,,,,,,,,,,,,,,,,,,,,,,,,,,,,,,,,,
,,,,,,,,,,,,,,,,,614fe0e4ec9ce4a2a4154771,32,2022-02-12_17h49.15.362,lexical_decision_task_DD_L2,2021.2.3,Win32,59.99520038,m,1,1.7535,,,,,,,,1.7535,1,0,0,0,2,1,1001,ALMOND,m,,,,,,,,,,,,,,,,,,,,,,,,,,,,,,,,,,,,,,,,,,,,,,,,,,,,,,,,,,,,,,,,,,
,,,,,,,,,,,,,,,,,614fe0e4ec9ce4a2a4154771,32,2022-02-12_17h49.15.362,lexical_decision_task_DD_L2,2021.2.3,Win32,59.99520038,m,1,0.771,,,,,,,,0.771,1,0,1,1,5,1,1001,OBTAIN,m,,,,,,,,,,,,,,,,,,,,,,,,,,,,,,,,,,,,,,,,,,,,,,,,,,,,,,,,,,,,,,,,,,
,,,,,,,,,,,,,,,,,614fe0e4ec9ce4a2a4154771,32,2022-02-12_17h49.15.362,lexical_decision_task_DD_L2,2021.2.3,Win32,59.99520038,z,1,0.8921,,,,,,,,0.8921,1,0,2,2,8,1,1001,ASLERT,z,,,,,,,,,,,,,,,,,,,,,,,,,,,,,,,,,,,,,,,,,,,,,,,,,,,,,,,,,,,,,,,,,,
,,,,,,,,,,,,,,,,,614fe0e4ec9ce4a2a4154771,32,2022-02-12_17h49.15.362,lexical_decision_task_DD_L2,2021.2.3,Win32,59.99520038,m,1,0.8542,,,,,,,,0.8542,1,0,3,3,0,1,1001,UTOPIA,m,,,,,,,,,,,,,,,,,,,,,,,,,,,,,,,,,,,,,,,,,,,,,,,,,,,,,,,,,,,,,,,,,,
,,,,,,,,,,,,,,,,,614fe0e4ec9ce4a2a4154771,32,2022-02-12_17h49.15.362,lexical_decision_task_DD_L2,2021.2.3,Win32,59.99520038,z,1,1.1102,,,,,,,,1.1102,1,0,4,4,10,1,1001,INLADE,z,,,,,,,,,,,,,,,,,,,,,,,,,,,,,,,,,,,,,,,,,,,,,,,,,,,,,,,,,,,,,,,,,,
,,,,,,,,,,,,,,,,,614fe0e4ec9ce4a2a4154771,32,2022-02-12_17h49.15.362,lexical_decision_task_DD_L2,2021.2.3,Win32,59.99520038,m,1,0.6727,,,,,,,,0.6727,1,0,5,5,1,1,1001,ADJUST,m,,,,,,,,,,,,,,,,,,,,,,,,,,,,,,,,,,,,,,,,,,,,,,,,,,,,,,,,,,,,,,,,,,
,,,,,,,,,,,,,,,,,614fe0e4ec9ce4a2a4154771,32,2022-02-12_17h49.15.362,lexical_decision_task_DD_L2,2021.2.3,Win32,59.99520038,m,1,0.655,,,,,,,,0.655,1,0,6,6,4,1,1001,SQUEAK,m,,,,,,,,,,,,,,,,,,,,,,,,,,,,,,,,,,,,,,,,,,,,,,,,,,,,,,,,,,,,,,,,,,
,,,,,,,,,,,,,,,,,614fe0e4ec9ce4a2a4154771,32,2022-02-12_17h49.15.362,lexical_decision_task_DD_L2,2021.2.3,Win32,59.99520038,z,1,0.7313,,,,,,,,0.7313,1,0,7,7,13,1,1001,ROUPET,z,,,,,,,,,,,,,,,,,,,,,,,,,,,,,,,,,,,,,,,,,,,,,,,,,,,,,,,,,,,,,,,,,,
,,,,,,,,,,,,,,,,,614fe0e4ec9ce4a2a4154771,32,2022-02-12_17h49.15.362,lexical_decision_task_DD_L2,2021.2.3,Win32,59.99520038,z,1,0.7809,,,,,,,,0.7809,1,0,8,8,14,1,1001,THRALE,z,,,,,,,,,,,,,,,,,,,,,,,,,,,,,,,,,,,,,,,,,,,,,,,,,,,,,,,,,,,,,,,,,,
,,,,,,,,,,,,,,,,,614fe0e4ec9ce4a2a4154771,32,2022-02-12_17h49.15.362,lexical_decision_task_DD_L2,2021.2.3,Win32,59.99520038,z,1,0.6899,,,,,,,,0.6899,1,0,9,9,9,1,1001,FARINY,z,,,,,,,,,,,,,,,,,,,,,,,,,,,,,,,,,,,,,,,,,,,,,,,,,,,,,,,,,,,,,,,,,,
,,,,,,,,,,,,,,,,,614fe0e4ec9ce4a2a4154771,32,2022-02-12_17h49.15.362,lexical_decision_task_DD_L2,2021.2.3,Win32,59.99520038,z,1,0.9813,,,,,,,,0.9813,1,0,10,10,12,1,1001,SPRINY,z,,,,,,,,,,,,,,,,,,,,,,,,,,,,,,,,,,,,,,,,,,,,,,,,,,,,,,,,,,,,,,,,,,
,,,,,,,,,,,,,,,,,614fe0e4ec9ce4a2a4154771,32,2022-02-12_17h49.15.362,lexical_decision_task_DD_L2,2021.2.3,Win32,59.99520038,m,1,0.5932,,,,,,,,0.5932,1,0,11,11,6,1,1001,ZOMBIE,m,,,,,,,,,,,,,,,,,,,,,,,,,,,,,,,,,,,,,,,,,,,,,,,,,,,,,,,,,,,,,,,,,,
,,,,,,,,,,,,,,,,,614fe0e4ec9ce4a2a4154771,32,2022-02-12_17h49.15.362,lexical_decision_task_DD_L2,2021.2.3,Win32,59.99520038,m,1,0.5116,,,,,,,,0.5116,1,0,12,12,7,1,1001,VOLUME,m,,,,,,,,,,,,,,,,,,,,,,,,,,,,,,,,,,,,,,,,,,,,,,,,,,,,,,,,,,,,,,,,,,
,,,,,,,,,,,,,,,,,614fe0e4ec9ce4a2a4154771,32,2022-02-12_17h49.15.362,lexical_decision_task_DD_L2,2021.2.3,Win32,59.99520038,z,1,0.547,,,,,,,,0.547,1,0,13,13,11,1,1001,RASHET,z,,,,,,,,,,,,,,,,,,,,,,,,,,,,,,,,,,,,,,,,,,,,,,,,,,,,,,,,,,,,,,,,,,
,,,,,,,,,,,,,,,,,614fe0e4ec9ce4a2a4154771,32,2022-02-12_17h49.15.362,lexical_decision_task_DD_L2,2021.2.3,Win32,59.99520038,m,1,0.6784,,,,,,,,0.6784,1,0,14,14,3,1,1001,MATRIX,m,,,,,,,,,,,,,,,,,,,,,,,,,,,,,,,,,,,,,,,,,,,,,,,,,,,,,,,,,,,,,,,,,,
,,,,,,,,,,,,,,,,,614fe0e4ec9ce4a2a4154771,32,2022-02-12_17h49.15.362,lexical_decision_task_DD_L2,2021.2.3,Win32,59.99520038,z,1,0.7011,,,,,,,,0.7011,1,0,15,15,15,1,1001,WHAISE,z,,,,,,,,,,,,,,,,,,,,,,,,,,,,,,,,,,,,,,,,,,,,,,,,,,,,,,,,,,,,,,,,,,
space,11.2467,0.8359375,0.07421875,0,0,0,,,,,,1,end_of_practice,"You have completed the practice trials. During the experimental trials, you will not receive feedback. 
Before you begin, please ensure that you are in a comfortable and quiet location and will not be disturbed for about 15 minutes, as we cannot use your data if you do not complete all the trials. 
 When you are ready to start the experimental trials, please press space or touch the button below.",,,614fe0e4ec9ce4a2a4154771,32,2022-02-12_17h49.15.362,lexical_decision_task_DD_L2,2021.2.3,Win32,59.99520038,,,,,,,,,,,,,,,,,,,,,0,0,0,0,1,,,,,,,,,,,,,,,,,,,,,,,,,,,,,,,,,,,,,,,,,,,,,,,,,,,,,,,,,,,,,
,,,,,,,,,,,,,,,,,614fe0e4ec9ce4a2a4154771,32,2022-02-12_17h49.15.362,lexical_decision_task_DD_L2,2021.2.3,Win32,59.99520038,,,,,,,,,,,0.671,1,,,,,,,,,,,,,,m,1,0.671,,,,,,,,0.8359375,0.07421875,0,0,0,,0,0,0,20,1,CRADLE,C,old,m,./images/CRADLE.png,,,,,,,,,,,,,,,,,,,,,,,,,,,,,,,,,,,
,,,,,,,,,,,,,,,,,614fe0e4ec9ce4a2a4154771,32,2022-02-12_17h49.15.362,lexical_decision_task_DD_L2,2021.2.3,Win32,59.99520038,,,,,,,,,,,0.8493,1,,,,,,,,,,,,,,z,1,0.8493,,,,,,,,0.8359375,0.07421875,0,0,0,,0,1,1,123,1,SEDGE,C,old,z,./images/SEDGE.png,,,,,,,,,,,,,,,,,,,,,,,,,,,,,,,,,,,
,,,,,,,,,,,,,,,,,614fe0e4ec9ce4a2a4154771,32,2022-02-12_17h49.15.362,lexical_decision_task_DD_L2,2021.2.3,Win32,59.99520038,,,,,,,,,,,0.8064,1,,,,,,,,,,,,,,m,1,0.8064,,,,,,,,0.8359375,0.07421875,0,0,0,,0,2,2,25,1,WRIST,LB,old,m,./images/WRISTLB.png,,,,,,,,,,,,,,,,,,,,,,,,,,,,,,,,,,,
,,,,,,,,,,,,,,,,,614fe0e4ec9ce4a2a4154771,32,2022-02-12_17h49.15.362,lexical_decision_task_DD_L2,2021.2.3,Win32,59.99520038,,,,,,,,,,,0.8473,1,,,,,,,,,,,,,,z,1,0.8473,,,,,,,,0.8359375,0.07421875,0,0,0,,0,3,3,113,1,LINEW,LB,old,z,./images/LINEWLB.png,,,,,,,,,,,,,,,,,,,,,,,,,,,,,,,,,,,
,,,,,,,,,,,,,,,,,614fe0e4ec9ce4a2a4154771,32,2022-02-12_17h49.15.362,lexical_decision_task_DD_L2,2021.2.3,Win32,59.99520038,,,,,,,,,,,0.698,1,,,,,,,,,,,,,,m,1,0.698,,,,,,,,0.8359375,0.07421875,0,0,0,,0,4,4,28,1,FALCON,LB,old,m,./images/FALCONLB.png,,,,,,,,,,,,,,,,,,,,,,,,,,,,,,,,,,,
,,,,,,,,,,,,,,,,,614fe0e4ec9ce4a2a4154771,32,2022-02-12_17h49.15.362,lexical_decision_task_DD_L2,2021.2.3,Win32,59.99520038,,,,,,,,,,,1.316,1,,,,,,,,,,,,,,z,1,1.316,,,,,,,,0.8359375,0.07421875,0,0,0,,0,5,5,151,1,TINKY,HB,old,z,./images/TINKYHB.png,,,,,,,,,,,,,,,,,,,,,,,,,,,,,,,,,,,
,,,,,,,,,,,,,,,,,614fe0e4ec9ce4a2a4154771,32,2022-02-12_17h49.15.362,lexical_decision_task_DD_L2,2021.2.3,Win32,59.99520038,,,,,,,,,,,0.6312,1,,,,,,,,,,,,,,m,1,0.6312,,,,,,,,0.8359375,0.07421875,0,0,0,,0,6,6,24,1,SCREW,HB,old,m,./images/SCREWHB.png,,,,,,,,,,,,,,,,,,,,,,,,,,,,,,,,,,,
,,,,,,,,,,,,,,,,,614fe0e4ec9ce4a2a4154771,32,2022-02-12_17h49.15.362,lexical_decision_task_DD_L2,2021.2.3,Win32,59.99520038,,,,,,,,,,,0.7621,1,,,,,,,,,,,,,,z,1,0.7621,,,,,,,,0.8359375,0.07421875,0,0,0,,0,7,7,92,1,PAIMS,LB,old,z,./images/PAIMSLB.png,,,,,,,,,,,,,,,,,,,,,,,,,,,,,,,,,,,
,,,,,,,,,,,,,,,,,614fe0e4ec9ce4a2a4154771,32,2022-02-12_17h49.15.362,lexical_decision_task_DD_L2,2021.2.3,Win32,59.99520038,,,,,,,,,,,0.5552,1,,,,,,,,,,,,,,m,1,0.5552,,,,,,,,0.8359375,0.07421875,0,0,0,,0,8,8,4,1,MUSCLE,LB,old,m,./images/MUSCLELB.png,,,,,,,,,,,,,,,,,,,,,,,,,,,,,,,,,,,
,,,,,,,,,,,,,,,,,614fe0e4ec9ce4a2a4154771,32,2022-02-12_17h49.15.362,lexical_decision_task_DD_L2,2021.2.3,Win32,59.99520038,,,,,,,,,,,0.6866,1,,,,,,,,,,,,,,m,1,0.6866,,,,,,,,0.8359375,0.07421875,0,0,0,,0,9,9,75,1,GRAIN,HB,old,m,./images/GRAINHB.png,,,,,,,,,,,,,,,,,,,,,,,,,,,,,,,,,,,
,,,,,,,,,,,,,,,,,614fe0e4ec9ce4a2a4154771,32,2022-02-12_17h49.15.362,lexical_decision_task_DD_L2,2021.2.3,Win32,59.99520038,,,,,,,,,,,0.8902,1,,,,,,,,,,,,,,z,1,0.8902,,,,,,,,0.8359375,0.07421875,0,0,0,,0,10,10,130,1,CRILL,HB,old,z,./images/CRILLHB.png,,,,,,,,,,,,,,,,,,,,,,,,,,,,,,,,,,,
,,,,,,,,,,,,,,,,,614fe0e4ec9ce4a2a4154771,32,2022-02-12_17h49.15.362,lexical_decision_task_DD_L2,2021.2.3,Win32,59.99520038,,,,,,,,,,,0.8858,1,,,,,,,,,,,,,,z,1,0.8858,,,,,,,,0.8359375,0.07421875,0,0,0,,0,11,11,133,1,POWDY,HB,old,z,./images/POWDYHB.png,,,,,,,,,,,,,,,,,,,,,,,,,,,,,,,,,,,
,,,,,,,,,,,,,,,,,614fe0e4ec9ce4a2a4154771,32,2022-02-12_17h49.15.362,lexical_decision_task_DD_L2,2021.2.3,Win32,59.99520038,,,,,,,,,,,0.6401,1,,,,,,,,,,,,,,z,1,0.6401,,,,,,,,0.8359375,0.07421875,0,0,0,,0,12,12,143,1,MONGS,LB,old,z,./images/MONGSLB.png,,,,,,,,,,,,,,,,,,,,,,,,,,,,,,,,,,,
,,,,,,,,,,,,,,,,,614fe0e4ec9ce4a2a4154771,32,2022-02-12_17h49.15.362,lexical_decision_task_DD_L2,2021.2.3,Win32,59.99520038,,,,,,,,,,,0.7158,1,,,,,,,,,,,,,,z,1,0.7158,,,,,,,,0.8359375,0.07421875,0,0,0,,0,13,13,89,1,DRIEK,LB,old,z,./images/DRIEKLB.png,,,,,,,,,,,,,,,,,,,,,,,,,,,,,,,,,,,
,,,,,,,,,,,,,,,,,614fe0e4ec9ce4a2a4154771,32,2022-02-12_17h49.15.362,lexical_decision_task_DD_L2,2021.2.3,Win32,59.99520038,,,,,,,,,,,0.5955,1,,,,,,,,,,,,,,z,1,0.5955,,,,,,,,0.8359375,0.07421875,0,0,0,,0,14,14,131,1,NACES,LB,old,z,./images/NACESLB.png,,,,,,,,,,,,,,,,,,,,,,,,,,,,,,,,,,,
,,,,,,,,,,,,,,,,,614fe0e4ec9ce4a2a4154771,32,2022-02-12_17h49.15.362,lexical_decision_task_DD_L2,2021.2.3,Win32,59.99520038,,,,,,,,,,,0.542,1,,,,,,,,,,,,,,m,1,0.542,,,,,,,,0.8359375,0.07421875,0,0,0,,0,15,15,6,1,SQUARE,HB,old,m,./images/SQUAREHB.png,,,,,,,,,,,,,,,,,,,,,,,,,,,,,,,,,,,
,,,,,,,,,,,,,,,,,614fe0e4ec9ce4a2a4154771,32,2022-02-12_17h49.15.362,lexical_decision_task_DD_L2,2021.2.3,Win32,59.99520038,,,,,,,,,,,0.8446,1,,,,,,,,,,,,,,z,1,0.8446,,,,,,,,0.8359375,0.07421875,0,0,0,,0,16,16,136,1,WERVE,HB,old,z,./images/WERVEHB.png,,,,,,,,,,,,,,,,,,,,,,,,,,,,,,,,,,,
,,,,,,,,,,,,,,,,,614fe0e4ec9ce4a2a4154771,32,2022-02-12_17h49.15.362,lexical_decision_task_DD_L2,2021.2.3,Win32,59.99520038,,,,,,,,,,,0.5808,1,,,,,,,,,,,,,,m,1,0.5808,,,,,,,,0.8359375,0.07421875,0,0,0,,0,17,17,14,1,PICKLE,C,old,m,./images/PICKLE.png,,,,,,,,,,,,,,,,,,,,,,,,,,,,,,,,,,,
,,,,,,,,,,,,,,,,,614fe0e4ec9ce4a2a4154771,32,2022-02-12_17h49.15.362,lexical_decision_task_DD_L2,2021.2.3,Win32,59.99520038,,,,,,,,,,,1.2969,1,,,,,,,,,,,,,,m,1,1.2969,,,,,,,,0.8359375,0.07421875,0,0,0,,0,18,18,50,1,MALLET,C,old,m,./images/MALLET.png,,,,,,,,,,,,,,,,,,,,,,,,,,,,,,,,,,,
,,,,,,,,,,,,,,,,,614fe0e4ec9ce4a2a4154771,32,2022-02-12_17h49.15.362,lexical_decision_task_DD_L2,2021.2.3,Win32,59.99520038,,,,,,,,,,,0.5795,1,,,,,,,,,,,,,,z,1,0.5795,,,,,,,,0.8359375,0.07421875,0,0,0,,0,19,19,153,1,CLUPS,C,old,z,./images/CLUPS.png,,,,,,,,,,,,,,,,,,,,,,,,,,,,,,,,,,,
,,,,,,,,,,,,,,,,,614fe0e4ec9ce4a2a4154771,32,2022-02-12_17h49.15.362,lexical_decision_task_DD_L2,2021.2.3,Win32,59.99520038,,,,,,,,,,,0.634,1,,,,,,,,,,,,,,m,1,0.634,,,,,,,,0.8359375,0.07421875,0,0,0,,0,20,20,1,1,PLANK,LB,old,m,./images/PLANKLB.png,,,,,,,,,,,,,,,,,,,,,,,,,,,,,,,,,,,
,,,,,,,,,,,,,,,,,614fe0e4ec9ce4a2a4154771,32,2022-02-12_17h49.15.362,lexical_decision_task_DD_L2,2021.2.3,Win32,59.99520038,,,,,,,,,,,0.5864,1,,,,,,,,,,,,,,m,1,0.5864,,,,,,,,0.8359375,0.07421875,0,0,0,,0,21,21,7,1,PAINT,LB,old,m,./images/PAINTLB.png,,,,,,,,,,,,,,,,,,,,,,,,,,,,,,,,,,,
,,,,,,,,,,,,,,,,,614fe0e4ec9ce4a2a4154771,32,2022-02-12_17h49.15.362,lexical_decision_task_DD_L2,2021.2.3,Win32,59.99520038,,,,,,,,,,,0.7621,1,,,,,,,,,,,,,,m,1,0.7621,,,,,,,,0.8359375,0.07421875,0,0,0,,0,22,22,72,1,NOOSE,HB,old,m,./images/NOOSEHB.png,,,,,,,,,,,,,,,,,,,,,,,,,,,,,,,,,,,
,,,,,,,,,,,,,,,,,614fe0e4ec9ce4a2a4154771,32,2022-02-12_17h49.15.362,lexical_decision_task_DD_L2,2021.2.3,Win32,59.99520038,,,,,,,,,,,0.5809,0,,,,,,,,,,,,,,m,0,0.5809,,,,,,,,0.8359375,0.07421875,0,0,0,,0,23,23,129,1,PRANS,C,old,z,./images/PRANS.png,,,,,,,,,,,,,,,,,,,,,,,,,,,,,,,,,,,
,,,,,,,,,,,,,,,,,614fe0e4ec9ce4a2a4154771,32,2022-02-12_17h49.15.362,lexical_decision_task_DD_L2,2021.2.3,Win32,59.99520038,,,,,,,,,,,0.8428,1,,,,,,,,,,,,,,z,1,0.8428,,,,,,,,0.8359375,0.07421875,0,0,0,,0,24,24,154,1,THINT,HB,old,z,./images/THINTHB.png,,,,,,,,,,,,,,,,,,,,,,,,,,,,,,,,,,,
,,,,,,,,,,,,,,,,,614fe0e4ec9ce4a2a4154771,32,2022-02-12_17h49.15.362,lexical_decision_task_DD_L2,2021.2.3,Win32,59.99520038,,,,,,,,,,,0.7093,1,,,,,,,,,,,,,,z,1,0.7093,,,,,,,,0.8359375,0.07421875,0,0,0,,0,25,25,134,1,TROSS,LB,old,z,./images/TROSSLB.png,,,,,,,,,,,,,,,,,,,,,,,,,,,,,,,,,,,
,,,,,,,,,,,,,,,,,614fe0e4ec9ce4a2a4154771,32,2022-02-12_17h49.15.362,lexical_decision_task_DD_L2,2021.2.3,Win32,59.99520038,,,,,,,,,,,0.6209,1,,,,,,,,,,,,,,m,1,0.6209,,,,,,,,0.8359375,0.07421875,0,0,0,,0,26,26,81,1,POODLE,HB,old,m,./images/POODLEHB.png,,,,,,,,,,,,,,,,,,,,,,,,,,,,,,,,,,,
,,,,,,,,,,,,,,,,,614fe0e4ec9ce4a2a4154771,32,2022-02-12_17h49.15.362,lexical_decision_task_DD_L2,2021.2.3,Win32,59.99520038,,,,,,,,,,,0.6236,1,,,,,,,,,,,,,,m,1,0.6236,,,,,,,,0.8359375,0.07421875,0,0,0,,0,27,27,73,1,SNACK,LB,old,m,./images/SNACKLB.png,,,,,,,,,,,,,,,,,,,,,,,,,,,,,,,,,,,
,,,,,,,,,,,,,,,,,614fe0e4ec9ce4a2a4154771,32,2022-02-12_17h49.15.362,lexical_decision_task_DD_L2,2021.2.3,Win32,59.99520038,,,,,,,,,,,0.6744,1,,,,,,,,,,,,,,m,1,0.6744,,,,,,,,0.8359375,0.07421875,0,0,0,,0,28,28,31,1,QUILL,LB,old,m,./images/QUILLLB.png,,,,,,,,,,,,,,,,,,,,,,,,,,,,,,,,,,,
,,,,,,,,,,,,,,,,,614fe0e4ec9ce4a2a4154771,32,2022-02-12_17h49.15.362,lexical_decision_task_DD_L2,2021.2.3,Win32,59.99520038,,,,,,,,,,,0.5844,1,,,,,,,,,,,,,,m,1,0.5844,,,,,,,,0.8359375,0.07421875,0,0,0,,0,29,29,79,1,CRUST,LB,old,m,./images/CRUSTLB.png,,,,,,,,,,,,,,,,,,,,,,,,,,,,,,,,,,,
,,,,,,,,,,,,,,,,,614fe0e4ec9ce4a2a4154771,32,2022-02-12_17h49.15.362,lexical_decision_task_DD_L2,2021.2.3,Win32,59.99520038,,,,,,,,,,,0.7662,1,,,,,,,,,,,,,,m,1,0.7662,,,,,,,,0.8359375,0.07421875,0,0,0,,0,30,30,8,1,TULIP,C,old,m,./images/TULIP.png,,,,,,,,,,,,,,,,,,,,,,,,,,,,,,,,,,,
,,,,,,,,,,,,,,,,,614fe0e4ec9ce4a2a4154771,32,2022-02-12_17h49.15.362,lexical_decision_task_DD_L2,2021.2.3,Win32,59.99520038,,,,,,,,,,,0.7555,1,,,,,,,,,,,,,,m,1,0.7555,,,,,,,,0.8359375,0.07421875,0,0,0,,0,31,31,54,1,TRIPOD,HB,old,m,./images/TRIPODHB.png,,,,,,,,,,,,,,,,,,,,,,,,,,,,,,,,,,,
,,,,,,,,,,,,,,,,,614fe0e4ec9ce4a2a4154771,32,2022-02-12_17h49.15.362,lexical_decision_task_DD_L2,2021.2.3,Win32,59.99520038,,,,,,,,,,,0.5349,1,,,,,,,,,,,,,,m,1,0.5349,,,,,,,,0.8359375,0.07421875,0,0,0,,0,32,32,35,1,PEACH,C,old,m,./images/PEACH.png,,,,,,,,,,,,,,,,,,,,,,,,,,,,,,,,,,,
,,,,,,,,,,,,,,,,,614fe0e4ec9ce4a2a4154771,32,2022-02-12_17h49.15.362,lexical_decision_task_DD_L2,2021.2.3,Win32,59.99520038,,,,,,,,,,,0.6318,1,,,,,,,,,,,,,,m,1,0.6318,,,,,,,,0.8359375,0.07421875,0,0,0,,0,33,33,66,1,SWEAT,HB,old,m,./images/SWEATHB.png,,,,,,,,,,,,,,,,,,,,,,,,,,,,,,,,,,,
,,,,,,,,,,,,,,,,,614fe0e4ec9ce4a2a4154771,32,2022-02-12_17h49.15.362,lexical_decision_task_DD_L2,2021.2.3,Win32,59.99520038,,,,,,,,,,,0.6638,1,,,,,,,,,,,,,,m,1,0.6638,,,,,,,,0.8359375,0.07421875,0,0,0,,0,34,34,36,1,THROAT,HB,old,m,./images/THROATHB.png,,,,,,,,,,,,,,,,,,,,,,,,,,,,,,,,,,,
,,,,,,,,,,,,,,,,,614fe0e4ec9ce4a2a4154771,32,2022-02-12_17h49.15.362,lexical_decision_task_DD_L2,2021.2.3,Win32,59.99520038,,,,,,,,,,,0.8777,1,,,,,,,,,,,,,,m,1,0.8777,,,,,,,,0.8359375,0.07421875,0,0,0,,0,35,35,16,1,PENCE,LB,old,m,./images/PENCELB.png,,,,,,,,,,,,,,,,,,,,,,,,,,,,,,,,,,,
,,,,,,,,,,,,,,,,,614fe0e4ec9ce4a2a4154771,32,2022-02-12_17h49.15.362,lexical_decision_task_DD_L2,2021.2.3,Win32,59.99520038,,,,,,,,,,,0.7025,1,,,,,,,,,,,,,,z,1,0.7025,,,,,,,,0.8359375,0.07421875,0,0,0,,0,36,36,155,1,CANGY,LB,old,z,./images/CANGYLB.png,,,,,,,,,,,,,,,,,,,,,,,,,,,,,,,,,,,
,,,,,,,,,,,,,,,,,614fe0e4ec9ce4a2a4154771,32,2022-02-12_17h49.15.362,lexical_decision_task_DD_L2,2021.2.3,Win32,59.99520038,,,,,,,,,,,0.6208,1,,,,,,,,,,,,,,m,1,0.6208,,,,,,,,0.8359375,0.07421875,0,0,0,,0,37,37,37,1,BIRTH,LB,old,m,./images/BIRTHLB.png,,,,,,,,,,,,,,,,,,,,,,,,,,,,,,,,,,,
,,,,,,,,,,,,,,,,,614fe0e4ec9ce4a2a4154771,32,2022-02-12_17h49.15.362,lexical_decision_task_DD_L2,2021.2.3,Win32,59.99520038,,,,,,,,,,,0.7049,1,,,,,,,,,,,,,,z,1,0.7049,,,,,,,,0.8359375,0.07421875,0,0,0,,0,38,38,96,1,KEAMS,C,old,z,./images/KEAMS.png,,,,,,,,,,,,,,,,,,,,,,,,,,,,,,,,,,,
,,,,,,,,,,,,,,,,,614fe0e4ec9ce4a2a4154771,32,2022-02-12_17h49.15.362,lexical_decision_task_DD_L2,2021.2.3,Win32,59.99520038,,,,,,,,,,,0.5829,1,,,,,,,,,,,,,,m,1,0.5829,,,,,,,,0.8359375,0.07421875,0,0,0,,0,39,39,70,1,URINE,LB,old,m,./images/URINELB.png,,,,,,,,,,,,,,,,,,,,,,,,,,,,,,,,,,,
,,,,,,,,,,,,,,,,,614fe0e4ec9ce4a2a4154771,32,2022-02-12_17h49.15.362,lexical_decision_task_DD_L2,2021.2.3,Win32,59.99520038,,,,,,,,,,,0.9386,1,,,,,,,,,,,,,,z,1,0.9386,,,,,,,,0.8359375,0.07421875,0,0,0,,0,40,40,109,1,BURGE,HB,old,z,./images/BURGEHB.png,,,,,,,,,,,,,,,,,,,,,,,,,,,,,,,,,,,
,,,,,,,,,,,,,,,,,614fe0e4ec9ce4a2a4154771,32,2022-02-12_17h49.15.362,lexical_decision_task_DD_L2,2021.2.3,Win32,59.99520038,,,,,,,,,,,0.8564,1,,,,,,,,,,,,,,z,1,0.8564,,,,,,,,0.8359375,0.07421875,0,0,0,space,0,41,41,112,1,MYING,HB,old,z,./images/MYINGHB.png,4.9488,,,,,,,,,,,,,,,,,,,,,,,,,,,,,,,,,,
,,,,,,,,,,,,,,,,,614fe0e4ec9ce4a2a4154771,32,2022-02-12_17h49.15.362,lexical_decision_task_DD_L2,2021.2.3,Win32,59.99520038,,,,,,,,,,,0.5847,1,,,,,,,,,,,,,,m,1,0.5847,,,,,,,,0.8359375,0.07421875,0,0,0,,0,42,42,71,1,PIMPLE,C,old,m,./images/PIMPLE.png,,,,,,,,,,,,,,,,,,,,,,,,,,,,,,,,,,,
,,,,,,,,,,,,,,,,,614fe0e4ec9ce4a2a4154771,32,2022-02-12_17h49.15.362,lexical_decision_task_DD_L2,2021.2.3,Win32,59.99520038,,,,,,,,,,,0.7571,1,,,,,,,,,,,,,,m,1,0.7571,,,,,,,,0.8359375,0.07421875,0,0,0,,0,43,43,56,1,PACKET,C,old,m,./images/PACKET.png,,,,,,,,,,,,,,,,,,,,,,,,,,,,,,,,,,,
,,,,,,,,,,,,,,,,,614fe0e4ec9ce4a2a4154771,32,2022-02-12_17h49.15.362,lexical_decision_task_DD_L2,2021.2.3,Win32,59.99520038,,,,,,,,,,,0.5932,1,,,,,,,,,,,,,,m,1,0.5932,,,,,,,,0.8359375,0.07421875,0,0,0,,0,44,44,10,1,BELLY,LB,old,m,./images/BELLYLB.png,,,,,,,,,,,,,,,,,,,,,,,,,,,,,,,,,,,
,,,,,,,,,,,,,,,,,614fe0e4ec9ce4a2a4154771,32,2022-02-12_17h49.15.362,lexical_decision_task_DD_L2,2021.2.3,Win32,59.99520038,,,,,,,,,,,0.5389,1,,,,,,,,,,,,,,m,1,0.5389,,,,,,,,0.8359375,0.07421875,0,0,0,,0,45,45,48,1,SPORT,HB,old,m,./images/SPORTHB.png,,,,,,,,,,,,,,,,,,,,,,,,,,,,,,,,,,,
,,,,,,,,,,,,,,,,,614fe0e4ec9ce4a2a4154771,32,2022-02-12_17h49.15.362,lexical_decision_task_DD_L2,2021.2.3,Win32,59.99520038,,,,,,,,,,,0.5811,1,,,,,,,,,,,,,,m,1,0.5811,,,,,,,,0.8359375,0.07421875,0,0,0,,0,46,46,27,1,ATTIC,HB,old,m,./images/ATTICHB.png,,,,,,,,,,,,,,,,,,,,,,,,,,,,,,,,,,,
,,,,,,,,,,,,,,,,,614fe0e4ec9ce4a2a4154771,32,2022-02-12_17h49.15.362,lexical_decision_task_DD_L2,2021.2.3,Win32,59.99520038,,,,,,,,,,,0.5392,1,,,,,,,,,,,,,,m,1,0.5392,,,,,,,,0.8359375,0.07421875,0,0,0,,0,47,47,55,1,MUFFIN,LB,old,m,./images/MUFFINLB.png,,,,,,,,,,,,,,,,,,,,,,,,,,,,,,,,,,,
,,,,,,,,,,,,,,,,,614fe0e4ec9ce4a2a4154771,32,2022-02-12_17h49.15.362,lexical_decision_task_DD_L2,2021.2.3,Win32,59.99520038,,,,,,,,,,,0.6744,1,,,,,,,,,,,,,,z,1,0.6744,,,,,,,,0.8359375,0.07421875,0,0,0,,0,48,48,118,1,BAVEL,HB,old,z,./images/BAVELHB.png,,,,,,,,,,,,,,,,,,,,,,,,,,,,,,,,,,,
,,,,,,,,,,,,,,,,,614fe0e4ec9ce4a2a4154771,32,2022-02-12_17h49.15.362,lexical_decision_task_DD_L2,2021.2.3,Win32,59.99520038,,,,,,,,,,,0.584,1,,,,,,,,,,,,,,m,1,0.584,,,,,,,,0.8359375,0.07421875,0,0,0,,0,49,49,2,1,BEARD,C,old,m,./images/BEARD.png,,,,,,,,,,,,,,,,,,,,,,,,,,,,,,,,,,,
,,,,,,,,,,,,,,,,,614fe0e4ec9ce4a2a4154771,32,2022-02-12_17h49.15.362,lexical_decision_task_DD_L2,2021.2.3,Win32,59.99520038,,,,,,,,,,,0.7342,1,,,,,,,,,,,,,,m,1,0.7342,,,,,,,,0.8359375,0.07421875,0,0,0,,0,50,50,13,1,MOTOR,LB,old,m,./images/MOTORLB.png,,,,,,,,,,,,,,,,,,,,,,,,,,,,,,,,,,,
,,,,,,,,,,,,,,,,,614fe0e4ec9ce4a2a4154771,32,2022-02-12_17h49.15.362,lexical_decision_task_DD_L2,2021.2.3,Win32,59.99520038,,,,,,,,,,,0.62,1,,,,,,,,,,,,,,z,1,0.62,,,,,,,,0.8359375,0.07421875,0,0,0,,0,51,51,88,1,GLUSH,HB,old,z,./images/GLUSHHB.png,,,,,,,,,,,,,,,,,,,,,,,,,,,,,,,,,,,
,,,,,,,,,,,,,,,,,614fe0e4ec9ce4a2a4154771,32,2022-02-12_17h49.15.362,lexical_decision_task_DD_L2,2021.2.3,Win32,59.99520038,,,,,,,,,,,0.6608,1,,,,,,,,,,,,,,m,1,0.6608,,,,,,,,0.8359375,0.07421875,0,0,0,,0,52,52,15,1,GREASE,HB,old,m,./images/GREASEHB.png,,,,,,,,,,,,,,,,,,,,,,,,,,,,,,,,,,,
,,,,,,,,,,,,,,,,,614fe0e4ec9ce4a2a4154771,32,2022-02-12_17h49.15.362,lexical_decision_task_DD_L2,2021.2.3,Win32,59.99520038,,,,,,,,,,,0.7282,1,,,,,,,,,,,,,,z,1,0.7282,,,,,,,,0.8359375,0.07421875,0,0,0,,0,53,53,158,1,EGECT,LB,old,z,./images/EGECTLB.png,,,,,,,,,,,,,,,,,,,,,,,,,,,,,,,,,,,
,,,,,,,,,,,,,,,,,614fe0e4ec9ce4a2a4154771,32,2022-02-12_17h49.15.362,lexical_decision_task_DD_L2,2021.2.3,Win32,59.99520038,,,,,,,,,,,0.5323,1,,,,,,,,,,,,,,m,1,0.5323,,,,,,,,0.8359375,0.07421875,0,0,0,,0,54,54,41,1,STRING,C,old,m,./images/STRING.png,,,,,,,,,,,,,,,,,,,,,,,,,,,,,,,,,,,
,,,,,,,,,,,,,,,,,614fe0e4ec9ce4a2a4154771,32,2022-02-12_17h49.15.362,lexical_decision_task_DD_L2,2021.2.3,Win32,59.99520038,,,,,,,,,,,0.807,1,,,,,,,,,,,,,,z,1,0.807,,,,,,,,0.8359375,0.07421875,0,0,0,,0,55,55,148,1,JOMS,HB,old,z,./images/JOMSHB.png,,,,,,,,,,,,,,,,,,,,,,,,,,,,,,,,,,,
,,,,,,,,,,,,,,,,,614fe0e4ec9ce4a2a4154771,32,2022-02-12_17h49.15.362,lexical_decision_task_DD_L2,2021.2.3,Win32,59.99520038,,,,,,,,,,,0.7127,1,,,,,,,,,,,,,,m,1,0.7127,,,,,,,,0.8359375,0.07421875,0,0,0,,0,56,56,22,1,MELON,LB,old,m,./images/MELONLB.png,,,,,,,,,,,,,,,,,,,,,,,,,,,,,,,,,,,
,,,,,,,,,,,,,,,,,614fe0e4ec9ce4a2a4154771,32,2022-02-12_17h49.15.362,lexical_decision_task_DD_L2,2021.2.3,Win32,59.99520038,,,,,,,,,,,0.6708,1,,,,,,,,,,,,,,z,1,0.6708,,,,,,,,0.8359375,0.07421875,0,0,0,,0,57,57,121,1,CEERS,HB,old,z,./images/CEERSHB.png,,,,,,,,,,,,,,,,,,,,,,,,,,,,,,,,,,,
,,,,,,,,,,,,,,,,,614fe0e4ec9ce4a2a4154771,32,2022-02-12_17h49.15.362,lexical_decision_task_DD_L2,2021.2.3,Win32,59.99520038,,,,,,,,,,,0.5862,1,,,,,,,,,,,,,,z,1,0.5862,,,,,,,,0.8359375,0.07421875,0,0,0,,0,58,58,152,1,FRAIN,LB,old,z,./images/FRAINLB.png,,,,,,,,,,,,,,,,,,,,,,,,,,,,,,,,,,,
,,,,,,,,,,,,,,,,,614fe0e4ec9ce4a2a4154771,32,2022-02-12_17h49.15.362,lexical_decision_task_DD_L2,2021.2.3,Win32,59.99520038,,,,,,,,,,,0.6169,1,,,,,,,,,,,,,,z,1,0.6169,,,,,,,,0.8359375,0.07421875,0,0,0,,0,59,59,107,1,FASKS,LB,old,z,./images/FASKSLB.png,,,,,,,,,,,,,,,,,,,,,,,,,,,,,,,,,,,
,,,,,,,,,,,,,,,,,614fe0e4ec9ce4a2a4154771,32,2022-02-12_17h49.15.362,lexical_decision_task_DD_L2,2021.2.3,Win32,59.99520038,,,,,,,,,,,0.6863,1,,,,,,,,,,,,,,z,1,0.6863,,,,,,,,0.8359375,0.07421875,0,0,0,,0,60,60,164,1,SGREW,LB,old,z,./images/SGREWLB.png,,,,,,,,,,,,,,,,,,,,,,,,,,,,,,,,,,,
,,,,,,,,,,,,,,,,,614fe0e4ec9ce4a2a4154771,32,2022-02-12_17h49.15.362,lexical_decision_task_DD_L2,2021.2.3,Win32,59.99520038,,,,,,,,,,,0.5907,1,,,,,,,,,,,,,,z,1,0.5907,,,,,,,,0.8359375,0.07421875,0,0,0,,0,61,61,111,1,HOSSE,C,old,z,./images/HOSSE.png,,,,,,,,,,,,,,,,,,,,,,,,,,,,,,,,,,,
,,,,,,,,,,,,,,,,,614fe0e4ec9ce4a2a4154771,32,2022-02-12_17h49.15.362,lexical_decision_task_DD_L2,2021.2.3,Win32,59.99520038,,,,,,,,,,,0.6282,1,,,,,,,,,,,,,,z,1,0.6282,,,,,,,,0.8359375,0.07421875,0,0,0,,0,62,62,140,1,DOVET,LB,old,z,./images/DOVETLB.png,,,,,,,,,,,,,,,,,,,,,,,,,,,,,,,,,,,
,,,,,,,,,,,,,,,,,614fe0e4ec9ce4a2a4154771,32,2022-02-12_17h49.15.362,lexical_decision_task_DD_L2,2021.2.3,Win32,59.99520038,,,,,,,,,,,0.4397,1,,,,,,,,,,,,,,m,1,0.4397,,,,,,,,0.8359375,0.07421875,0,0,0,,0,63,63,47,1,BERRY,C,old,m,./images/BERRY.png,,,,,,,,,,,,,,,,,,,,,,,,,,,,,,,,,,,
,,,,,,,,,,,,,,,,,614fe0e4ec9ce4a2a4154771,32,2022-02-12_17h49.15.362,lexical_decision_task_DD_L2,2021.2.3,Win32,59.99520038,,,,,,,,,,,1.2084,0,,,,,,,,,,,,,,m,0,1.2084,,,,,,,,0.8359375,0.07421875,0,0,0,,0,64,64,110,1,CRUNK,LB,old,z,./images/CRUNKLB.png,,,,,,,,,,,,,,,,,,,,,,,,,,,,,,,,,,,
,,,,,,,,,,,,,,,,,614fe0e4ec9ce4a2a4154771,32,2022-02-12_17h49.15.362,lexical_decision_task_DD_L2,2021.2.3,Win32,59.99520038,,,,,,,,,,,0.818,1,,,,,,,,,,,,,,z,1,0.818,,,,,,,,0.8359375,0.07421875,0,0,0,,0,65,65,98,1,BAMPS,LB,old,z,./images/BAMPSLB.png,,,,,,,,,,,,,,,,,,,,,,,,,,,,,,,,,,,
,,,,,,,,,,,,,,,,,614fe0e4ec9ce4a2a4154771,32,2022-02-12_17h49.15.362,lexical_decision_task_DD_L2,2021.2.3,Win32,59.99520038,,,,,,,,,,,0.6227,1,,,,,,,,,,,,,,m,1,0.6227,,,,,,,,0.8359375,0.07421875,0,0,0,,0,66,66,45,1,KITTEN,HB,old,m,./images/KITTENHB.png,,,,,,,,,,,,,,,,,,,,,,,,,,,,,,,,,,,
,,,,,,,,,,,,,,,,,614fe0e4ec9ce4a2a4154771,32,2022-02-12_17h49.15.362,lexical_decision_task_DD_L2,2021.2.3,Win32,59.99520038,,,,,,,,,,,0.8784,1,,,,,,,,,,,,,,z,1,0.8784,,,,,,,,0.8359375,0.07421875,0,0,0,,0,67,67,104,1,GITTY,LB,old,z,./images/GITTYLB.png,,,,,,,,,,,,,,,,,,,,,,,,,,,,,,,,,,,
,,,,,,,,,,,,,,,,,614fe0e4ec9ce4a2a4154771,32,2022-02-12_17h49.15.362,lexical_decision_task_DD_L2,2021.2.3,Win32,59.99520038,,,,,,,,,,,0.6628,1,,,,,,,,,,,,,,m,1,0.6628,,,,,,,,0.8359375,0.07421875,0,0,0,,0,68,68,34,1,CANYON,LB,old,m,./images/CANYONLB.png,,,,,,,,,,,,,,,,,,,,,,,,,,,,,,,,,,,
,,,,,,,,,,,,,,,,,614fe0e4ec9ce4a2a4154771,32,2022-02-12_17h49.15.362,lexical_decision_task_DD_L2,2021.2.3,Win32,59.99520038,,,,,,,,,,,0.6218,1,,,,,,,,,,,,,,z,1,0.6218,,,,,,,,0.8359375,0.07421875,0,0,0,,0,69,69,125,1,MOOKY,LB,old,z,./images/MOOKYLB.png,,,,,,,,,,,,,,,,,,,,,,,,,,,,,,,,,,,
,,,,,,,,,,,,,,,,,614fe0e4ec9ce4a2a4154771,32,2022-02-12_17h49.15.362,lexical_decision_task_DD_L2,2021.2.3,Win32,59.99520038,,,,,,,,,,,0.602,1,,,,,,,,,,,,,,z,1,0.602,,,,,,,,0.8359375,0.07421875,0,0,0,,0,70,70,149,1,VEASE,LB,old,z,./images/VEASELB.png,,,,,,,,,,,,,,,,,,,,,,,,,,,,,,,,,,,
,,,,,,,,,,,,,,,,,614fe0e4ec9ce4a2a4154771,32,2022-02-12_17h49.15.362,lexical_decision_task_DD_L2,2021.2.3,Win32,59.99520038,,,,,,,,,,,0.5752,1,,,,,,,,,,,,,,z,1,0.5752,,,,,,,,0.8359375,0.07421875,0,0,0,,0,71,71,95,1,HANTY,LB,old,z,./images/HANTYLB.png,,,,,,,,,,,,,,,,,,,,,,,,,,,,,,,,,,,
,,,,,,,,,,,,,,,,,614fe0e4ec9ce4a2a4154771,32,2022-02-12_17h49.15.362,lexical_decision_task_DD_L2,2021.2.3,Win32,59.99520038,,,,,,,,,,,0.5959,1,,,,,,,,,,,,,,m,1,0.5959,,,,,,,,0.8359375,0.07421875,0,0,0,,0,72,72,21,1,KIDNEY,HB,old,m,./images/KIDNEYHB.png,,,,,,,,,,,,,,,,,,,,,,,,,,,,,,,,,,,
,,,,,,,,,,,,,,,,,614fe0e4ec9ce4a2a4154771,32,2022-02-12_17h49.15.362,lexical_decision_task_DD_L2,2021.2.3,Win32,59.99520038,,,,,,,,,,,0.5733,1,,,,,,,,,,,,,,z,1,0.5733,,,,,,,,0.8359375,0.07421875,0,0,0,,0,73,73,105,1,MOKER,C,old,z,./images/MOKER.png,,,,,,,,,,,,,,,,,,,,,,,,,,,,,,,,,,,
,,,,,,,,,,,,,,,,,614fe0e4ec9ce4a2a4154771,32,2022-02-12_17h49.15.362,lexical_decision_task_DD_L2,2021.2.3,Win32,59.99520038,,,,,,,,,,,1.192,1,,,,,,,,,,,,,,m,1,1.192,,,,,,,,0.8359375,0.07421875,0,0,0,,0,74,74,69,1,COOKER,HB,old,m,./images/COOKERHB.png,,,,,,,,,,,,,,,,,,,,,,,,,,,,,,,,,,,
,,,,,,,,,,,,,,,,,614fe0e4ec9ce4a2a4154771,32,2022-02-12_17h49.15.362,lexical_decision_task_DD_L2,2021.2.3,Win32,59.99520038,,,,,,,,,,,0.6112,1,,,,,,,,,,,,,,m,1,0.6112,,,,,,,,0.8359375,0.07421875,0,0,0,,0,75,75,49,1,DRUMS,LB,old,m,./images/DRUMSLB.png,,,,,,,,,,,,,,,,,,,,,,,,,,,,,,,,,,,
,,,,,,,,,,,,,,,,,614fe0e4ec9ce4a2a4154771,32,2022-02-12_17h49.15.362,lexical_decision_task_DD_L2,2021.2.3,Win32,59.99520038,,,,,,,,,,,0.5381,1,,,,,,,,,,,,,,z,1,0.5381,,,,,,,,0.8359375,0.07421875,0,0,0,,0,76,76,167,1,ZONET,LB,old,z,./images/ZONETLB.png,,,,,,,,,,,,,,,,,,,,,,,,,,,,,,,,,,,
,,,,,,,,,,,,,,,,,614fe0e4ec9ce4a2a4154771,32,2022-02-12_17h49.15.362,lexical_decision_task_DD_L2,2021.2.3,Win32,59.99520038,,,,,,,,,,,0.6238,1,,,,,,,,,,,,,,z,1,0.6238,,,,,,,,0.8359375,0.07421875,0,0,0,,0,77,77,132,1,SCIFF,C,old,z,./images/SCIFF.png,,,,,,,,,,,,,,,,,,,,,,,,,,,,,,,,,,,
,,,,,,,,,,,,,,,,,614fe0e4ec9ce4a2a4154771,32,2022-02-12_17h49.15.362,lexical_decision_task_DD_L2,2021.2.3,Win32,59.99520038,,,,,,,,,,,0.6057,1,,,,,,,,,,,,,,m,1,0.6057,,,,,,,,0.8359375,0.07421875,0,0,0,,0,78,78,19,1,DOUGH,LB,old,m,./images/DOUGHLB.png,,,,,,,,,,,,,,,,,,,,,,,,,,,,,,,,,,,
,,,,,,,,,,,,,,,,,614fe0e4ec9ce4a2a4154771,32,2022-02-12_17h49.15.362,lexical_decision_task_DD_L2,2021.2.3,Win32,59.99520038,,,,,,,,,,,0.7434,1,,,,,,,,,,,,,,z,1,0.7434,,,,,,,,0.8359375,0.07421875,0,0,0,,0,79,79,142,1,PLASK,HB,old,z,./images/PLASKHB.png,,,,,,,,,,,,,,,,,,,,,,,,,,,,,,,,,,,
,,,,,,,,,,,,,,,,,614fe0e4ec9ce4a2a4154771,32,2022-02-12_17h49.15.362,lexical_decision_task_DD_L2,2021.2.3,Win32,59.99520038,,,,,,,,,,,0.6225,1,,,,,,,,,,,,,,m,1,0.6225,,,,,,,,0.8359375,0.07421875,0,0,0,,0,80,80,63,1,MIRROR,HB,old,m,./images/MIRRORHB.png,,,,,,,,,,,,,,,,,,,,,,,,,,,,,,,,,,,
,,,,,,,,,,,,,,,,,614fe0e4ec9ce4a2a4154771,32,2022-02-12_17h49.15.362,lexical_decision_task_DD_L2,2021.2.3,Win32,59.99520038,,,,,,,,,,,0.5738,1,,,,,,,,,,,,,,z,1,0.5738,,,,,,,,0.8359375,0.07421875,0,0,0,,0,81,81,84,1,HAXES,C,old,z,./images/HAXES.png,,,,,,,,,,,,,,,,,,,,,,,,,,,,,,,,,,,
,,,,,,,,,,,,,,,,,614fe0e4ec9ce4a2a4154771,32,2022-02-12_17h49.15.362,lexical_decision_task_DD_L2,2021.2.3,Win32,59.99520038,,,,,,,,,,,0.6182,1,,,,,,,,,,,,,,z,1,0.6182,,,,,,,,0.8359375,0.07421875,0,0,0,,0,82,82,165,1,TROWN,C,old,z,./images/TROWN.png,,,,,,,,,,,,,,,,,,,,,,,,,,,,,,,,,,,
,,,,,,,,,,,,,,,,,614fe0e4ec9ce4a2a4154771,32,2022-02-12_17h49.15.362,lexical_decision_task_DD_L2,2021.2.3,Win32,59.99520038,,,,,,,,,,,0.5623,1,,,,,,,,,,,,,,z,1,0.5623,,,,,,,,0.8359375,0.07421875,0,0,0,space,0,83,83,156,1,HIXES,C,old,z,./images/HIXES.png,5.5352,,,,,,,,,,,,,,,,,,,,,,,,,,,,,,,,,,
,,,,,,,,,,,,,,,,,614fe0e4ec9ce4a2a4154771,32,2022-02-12_17h49.15.362,lexical_decision_task_DD_L2,2021.2.3,Win32,59.99520038,,,,,,,,,,,1.1777,1,,,,,,,,,,,,,,z,1,1.1777,,,,,,,,0.8359375,0.07421875,0,0,0,,0,84,84,145,1,LAMEL,HB,old,z,./images/LAMELHB.png,,,,,,,,,,,,,,,,,,,,,,,,,,,,,,,,,,,
,,,,,,,,,,,,,,,,,614fe0e4ec9ce4a2a4154771,32,2022-02-12_17h49.15.362,lexical_decision_task_DD_L2,2021.2.3,Win32,59.99520038,,,,,,,,,,,0.8393,1,,,,,,,,,,,,,,z,1,0.8393,,,,,,,,0.8359375,0.07421875,0,0,0,,0,85,85,115,1,MAWNS,HB,old,z,./images/MAWNSHB.png,,,,,,,,,,,,,,,,,,,,,,,,,,,,,,,,,,,
,,,,,,,,,,,,,,,,,614fe0e4ec9ce4a2a4154771,32,2022-02-12_17h49.15.362,lexical_decision_task_DD_L2,2021.2.3,Win32,59.99520038,,,,,,,,,,,0.794,1,,,,,,,,,,,,,,z,1,0.794,,,,,,,,0.8359375,0.07421875,0,0,0,,0,86,86,91,1,SHENS,HB,old,z,./images/SHENSHB.png,,,,,,,,,,,,,,,,,,,,,,,,,,,,,,,,,,,
,,,,,,,,,,,,,,,,,614fe0e4ec9ce4a2a4154771,32,2022-02-12_17h49.15.362,lexical_decision_task_DD_L2,2021.2.3,Win32,59.99520038,,,,,,,,,,,0.6289,1,,,,,,,,,,,,,,m,1,0.6289,,,,,,,,0.8359375,0.07421875,0,0,0,,0,87,87,74,1,CEMENT,C,old,m,./images/CEMENT.png,,,,,,,,,,,,,,,,,,,,,,,,,,,,,,,,,,,
,,,,,,,,,,,,,,,,,614fe0e4ec9ce4a2a4154771,32,2022-02-12_17h49.15.362,lexical_decision_task_DD_L2,2021.2.3,Win32,59.99520038,,,,,,,,,,,0.6697,1,,,,,,,,,,,,,,z,1,0.6697,,,,,,,,0.8359375,0.07421875,0,0,0,,0,88,88,102,1,DULLE,C,old,z,./images/DULLE.png,,,,,,,,,,,,,,,,,,,,,,,,,,,,,,,,,,,
,,,,,,,,,,,,,,,,,614fe0e4ec9ce4a2a4154771,32,2022-02-12_17h49.15.362,lexical_decision_task_DD_L2,2021.2.3,Win32,59.99520038,,,,,,,,,,,0.6149,1,,,,,,,,,,,,,,m,1,0.6149,,,,,,,,0.8359375,0.07421875,0,0,0,,0,89,89,78,1,LITTER,HB,old,m,./images/LITTERHB.png,,,,,,,,,,,,,,,,,,,,,,,,,,,,,,,,,,,
,,,,,,,,,,,,,,,,,614fe0e4ec9ce4a2a4154771,32,2022-02-12_17h49.15.362,lexical_decision_task_DD_L2,2021.2.3,Win32,59.99520038,,,,,,,,,,,0.7587,1,,,,,,,,,,,,,,z,1,0.7587,,,,,,,,0.8359375,0.07421875,0,0,0,,0,90,90,100,1,DRIBS,HB,old,z,./images/DRIBSHB.png,,,,,,,,,,,,,,,,,,,,,,,,,,,,,,,,,,,
,,,,,,,,,,,,,,,,,614fe0e4ec9ce4a2a4154771,32,2022-02-12_17h49.15.362,lexical_decision_task_DD_L2,2021.2.3,Win32,59.99520038,,,,,,,,,,,0.5718,1,,,,,,,,,,,,,,m,1,0.5718,,,,,,,,0.8359375,0.07421875,0,0,0,,0,91,91,23,1,WALRUS,C,old,m,./images/WALRUS.png,,,,,,,,,,,,,,,,,,,,,,,,,,,,,,,,,,,
,,,,,,,,,,,,,,,,,614fe0e4ec9ce4a2a4154771,32,2022-02-12_17h49.15.362,lexical_decision_task_DD_L2,2021.2.3,Win32,59.99520038,,,,,,,,,,,0.5462,1,,,,,,,,,,,,,,m,1,0.5462,,,,,,,,0.8359375,0.07421875,0,0,0,,0,92,92,5,1,PASTA,C,old,m,./images/PASTA.png,,,,,,,,,,,,,,,,,,,,,,,,,,,,,,,,,,,
,,,,,,,,,,,,,,,,,614fe0e4ec9ce4a2a4154771,32,2022-02-12_17h49.15.362,lexical_decision_task_DD_L2,2021.2.3,Win32,59.99520038,,,,,,,,,,,0.4962,1,,,,,,,,,,,,,,m,1,0.4962,,,,,,,,0.8359375,0.07421875,0,0,0,,0,93,93,65,1,FARMER,C,old,m,./images/FARMER.png,,,,,,,,,,,,,,,,,,,,,,,,,,,,,,,,,,,
,,,,,,,,,,,,,,,,,614fe0e4ec9ce4a2a4154771,32,2022-02-12_17h49.15.362,lexical_decision_task_DD_L2,2021.2.3,Win32,59.99520038,,,,,,,,,,,0.7376,1,,,,,,,,,,,,,,m,1,0.7376,,,,,,,,0.8359375,0.07421875,0,0,0,,0,94,94,0,1,TOMATO,HB,old,m,./images/TOMATOHB.png,,,,,,,,,,,,,,,,,,,,,,,,,,,,,,,,,,,
,,,,,,,,,,,,,,,,,614fe0e4ec9ce4a2a4154771,32,2022-02-12_17h49.15.362,lexical_decision_task_DD_L2,2021.2.3,Win32,59.99520038,,,,,,,,,,,0.6923,1,,,,,,,,,,,,,,z,1,0.6923,,,,,,,,0.8359375,0.07421875,0,0,0,,0,95,95,119,1,PAFER,LB,old,z,./images/PAFERLB.png,,,,,,,,,,,,,,,,,,,,,,,,,,,,,,,,,,,
,,,,,,,,,,,,,,,,,614fe0e4ec9ce4a2a4154771,32,2022-02-12_17h49.15.362,lexical_decision_task_DD_L2,2021.2.3,Win32,59.99520038,,,,,,,,,,,0.9625,1,,,,,,,,,,,,,,m,1,0.9625,,,,,,,,0.8359375,0.07421875,0,0,0,,0,96,96,17,1,SKIING,C,old,m,./images/SKIING.png,,,,,,,,,,,,,,,,,,,,,,,,,,,,,,,,,,,
,,,,,,,,,,,,,,,,,614fe0e4ec9ce4a2a4154771,32,2022-02-12_17h49.15.362,lexical_decision_task_DD_L2,2021.2.3,Win32,59.99520038,,,,,,,,,,,0.5863,1,,,,,,,,,,,,,,z,1,0.5863,,,,,,,,0.8359375,0.07421875,0,0,0,,0,97,97,147,1,ZOLES,C,old,z,./images/ZOLES.png,,,,,,,,,,,,,,,,,,,,,,,,,,,,,,,,,,,
,,,,,,,,,,,,,,,,,614fe0e4ec9ce4a2a4154771,32,2022-02-12_17h49.15.362,lexical_decision_task_DD_L2,2021.2.3,Win32,59.99520038,,,,,,,,,,,0.6306,1,,,,,,,,,,,,,,m,1,0.6306,,,,,,,,0.8359375,0.07421875,0,0,0,,0,98,98,46,1,PEARL,LB,old,m,./images/PEARLLB.png,,,,,,,,,,,,,,,,,,,,,,,,,,,,,,,,,,,
,,,,,,,,,,,,,,,,,614fe0e4ec9ce4a2a4154771,32,2022-02-12_17h49.15.362,lexical_decision_task_DD_L2,2021.2.3,Win32,59.99520038,,,,,,,,,,,1.11,1,,,,,,,,,,,,,,z,1,1.11,,,,,,,,0.8359375,0.07421875,0,0,0,,0,99,99,166,1,SHORY,HB,old,z,./images/SHORYHB.png,,,,,,,,,,,,,,,,,,,,,,,,,,,,,,,,,,,
,,,,,,,,,,,,,,,,,614fe0e4ec9ce4a2a4154771,32,2022-02-12_17h49.15.362,lexical_decision_task_DD_L2,2021.2.3,Win32,59.99520038,,,,,,,,,,,0.6833,1,,,,,,,,,,,,,,z,1,0.6833,,,,,,,,0.8359375,0.07421875,0,0,0,,0,100,100,103,1,FLORT,HB,old,z,./images/FLORTHB.png,,,,,,,,,,,,,,,,,,,,,,,,,,,,,,,,,,,
,,,,,,,,,,,,,,,,,614fe0e4ec9ce4a2a4154771,32,2022-02-12_17h49.15.362,lexical_decision_task_DD_L2,2021.2.3,Win32,59.99520038,,,,,,,,,,,0.879,1,,,,,,,,,,,,,,z,1,0.879,,,,,,,,0.8359375,0.07421875,0,0,0,,0,101,101,139,1,BLEAR,HB,old,z,./images/BLEARHB.png,,,,,,,,,,,,,,,,,,,,,,,,,,,,,,,,,,,
,,,,,,,,,,,,,,,,,614fe0e4ec9ce4a2a4154771,32,2022-02-12_17h49.15.362,lexical_decision_task_DD_L2,2021.2.3,Win32,59.99520038,,,,,,,,,,,0.5788,1,,,,,,,,,,,,,,m,1,0.5788,,,,,,,,0.8359375,0.07421875,0,0,0,,0,102,102,51,1,ONION,HB,old,m,./images/ONIONHB.png,,,,,,,,,,,,,,,,,,,,,,,,,,,,,,,,,,,
,,,,,,,,,,,,,,,,,614fe0e4ec9ce4a2a4154771,32,2022-02-12_17h49.15.362,lexical_decision_task_DD_L2,2021.2.3,Win32,59.99520038,,,,,,,,,,,1.1365,1,,,,,,,,,,,,,,z,1,1.1365,,,,,,,,0.8359375,0.07421875,0,0,0,,0,103,103,127,1,NINDY,HB,old,z,./images/NINDYHB.png,,,,,,,,,,,,,,,,,,,,,,,,,,,,,,,,,,,
,,,,,,,,,,,,,,,,,614fe0e4ec9ce4a2a4154771,32,2022-02-12_17h49.15.362,lexical_decision_task_DD_L2,2021.2.3,Win32,59.99520038,,,,,,,,,,,0.7119,1,,,,,,,,,,,,,,z,1,0.7119,,,,,,,,0.8359375,0.07421875,0,0,0,,0,104,104,124,1,TUNCH,HB,old,z,./images/TUNCHHB.png,,,,,,,,,,,,,,,,,,,,,,,,,,,,,,,,,,,
,,,,,,,,,,,,,,,,,614fe0e4ec9ce4a2a4154771,32,2022-02-12_17h49.15.362,lexical_decision_task_DD_L2,2021.2.3,Win32,59.99520038,,,,,,,,,,,0.9761,1,,,,,,,,,,,,,,z,1,0.9761,,,,,,,,0.8359375,0.07421875,0,0,0,,0,105,105,150,1,NOOLS,C,old,z,./images/NOOLS.png,,,,,,,,,,,,,,,,,,,,,,,,,,,,,,,,,,,
,,,,,,,,,,,,,,,,,614fe0e4ec9ce4a2a4154771,32,2022-02-12_17h49.15.362,lexical_decision_task_DD_L2,2021.2.3,Win32,59.99520038,,,,,,,,,,,0.6714,1,,,,,,,,,,,,,,z,1,0.6714,,,,,,,,0.8359375,0.07421875,0,0,0,,0,106,106,114,1,RIKES,C,old,z,./images/RIKES.png,,,,,,,,,,,,,,,,,,,,,,,,,,,,,,,,,,,
,,,,,,,,,,,,,,,,,614fe0e4ec9ce4a2a4154771,32,2022-02-12_17h49.15.362,lexical_decision_task_DD_L2,2021.2.3,Win32,59.99520038,,,,,,,,,,,0.6628,1,,,,,,,,,,,,,,z,1,0.6628,,,,,,,,0.8359375,0.07421875,0,0,0,,0,107,107,128,1,GRIFT,LB,old,z,./images/GRIFTLB.png,,,,,,,,,,,,,,,,,,,,,,,,,,,,,,,,,,,
,,,,,,,,,,,,,,,,,614fe0e4ec9ce4a2a4154771,32,2022-02-12_17h49.15.362,lexical_decision_task_DD_L2,2021.2.3,Win32,59.99520038,,,,,,,,,,,0.5513,1,,,,,,,,,,,,,,z,1,0.5513,,,,,,,,0.8359375,0.07421875,0,0,0,,0,108,108,117,1,STEEG,C,old,z,./images/STEEG.png,,,,,,,,,,,,,,,,,,,,,,,,,,,,,,,,,,,
,,,,,,,,,,,,,,,,,614fe0e4ec9ce4a2a4154771,32,2022-02-12_17h49.15.362,lexical_decision_task_DD_L2,2021.2.3,Win32,59.99520038,,,,,,,,,,,0.7022,1,,,,,,,,,,,,,,m,1,0.7022,,,,,,,,0.8359375,0.07421875,0,0,0,,0,109,109,39,1,SHELF,HB,old,m,./images/SHELFHB.png,,,,,,,,,,,,,,,,,,,,,,,,,,,,,,,,,,,
,,,,,,,,,,,,,,,,,614fe0e4ec9ce4a2a4154771,32,2022-02-12_17h49.15.362,lexical_decision_task_DD_L2,2021.2.3,Win32,59.99520038,,,,,,,,,,,0.6818,1,,,,,,,,,,,,,,z,1,0.6818,,,,,,,,0.8359375,0.07421875,0,0,0,,0,110,110,163,1,GAMBA,HB,old,z,./images/GAMBAHB.png,,,,,,,,,,,,,,,,,,,,,,,,,,,,,,,,,,,
,,,,,,,,,,,,,,,,,614fe0e4ec9ce4a2a4154771,32,2022-02-12_17h49.15.362,lexical_decision_task_DD_L2,2021.2.3,Win32,59.99520038,,,,,,,,,,,0.7513,1,,,,,,,,,,,,,,m,1,0.7513,,,,,,,,0.8359375,0.07421875,0,0,0,,0,111,111,11,1,BONNET,C,old,m,./images/BONNET.png,,,,,,,,,,,,,,,,,,,,,,,,,,,,,,,,,,,
,,,,,,,,,,,,,,,,,614fe0e4ec9ce4a2a4154771,32,2022-02-12_17h49.15.362,lexical_decision_task_DD_L2,2021.2.3,Win32,59.99520038,,,,,,,,,,,0.9156,1,,,,,,,,,,,,,,m,1,0.9156,,,,,,,,0.8359375,0.07421875,0,0,0,,0,112,112,52,1,BANNER,LB,old,m,./images/BANNERLB.png,,,,,,,,,,,,,,,,,,,,,,,,,,,,,,,,,,,
,,,,,,,,,,,,,,,,,614fe0e4ec9ce4a2a4154771,32,2022-02-12_17h49.15.362,lexical_decision_task_DD_L2,2021.2.3,Win32,59.99520038,,,,,,,,,,,0.5427,1,,,,,,,,,,,,,,m,1,0.5427,,,,,,,,0.8359375,0.07421875,0,0,0,,0,113,113,77,1,COUCH,C,old,m,./images/COUCH.png,,,,,,,,,,,,,,,,,,,,,,,,,,,,,,,,,,,
,,,,,,,,,,,,,,,,,614fe0e4ec9ce4a2a4154771,32,2022-02-12_17h49.15.362,lexical_decision_task_DD_L2,2021.2.3,Win32,59.99520038,,,,,,,,,,,0.5758,1,,,,,,,,,,,,,,m,1,0.5758,,,,,,,,0.8359375,0.07421875,0,0,0,,0,114,114,42,1,FOLDER,HB,old,m,./images/FOLDERHB.png,,,,,,,,,,,,,,,,,,,,,,,,,,,,,,,,,,,
,,,,,,,,,,,,,,,,,614fe0e4ec9ce4a2a4154771,32,2022-02-12_17h49.15.362,lexical_decision_task_DD_L2,2021.2.3,Win32,59.99520038,,,,,,,,,,,0.6625,1,,,,,,,,,,,,,,z,1,0.6625,,,,,,,,0.8359375,0.07421875,0,0,0,,0,115,115,90,1,NEAST,C,old,z,./images/NEAST.png,,,,,,,,,,,,,,,,,,,,,,,,,,,,,,,,,,,
,,,,,,,,,,,,,,,,,614fe0e4ec9ce4a2a4154771,32,2022-02-12_17h49.15.362,lexical_decision_task_DD_L2,2021.2.3,Win32,59.99520038,,,,,,,,,,,0.4878,1,,,,,,,,,,,,,,m,1,0.4878,,,,,,,,0.8359375,0.07421875,0,0,0,,0,116,116,26,1,SMOKER,C,old,m,./images/SMOKER.png,,,,,,,,,,,,,,,,,,,,,,,,,,,,,,,,,,,
,,,,,,,,,,,,,,,,,614fe0e4ec9ce4a2a4154771,32,2022-02-12_17h49.15.362,lexical_decision_task_DD_L2,2021.2.3,Win32,59.99520038,,,,,,,,,,,0.5943,1,,,,,,,,,,,,,,m,1,0.5943,,,,,,,,0.8359375,0.07421875,0,0,0,,0,117,117,18,1,JAGUAR,HB,old,m,./images/JAGUARHB.png,,,,,,,,,,,,,,,,,,,,,,,,,,,,,,,,,,,
,,,,,,,,,,,,,,,,,614fe0e4ec9ce4a2a4154771,32,2022-02-12_17h49.15.362,lexical_decision_task_DD_L2,2021.2.3,Win32,59.99520038,,,,,,,,,,,0.5299,1,,,,,,,,,,,,,,z,1,0.5299,,,,,,,,0.8359375,0.07421875,0,0,0,,0,118,118,86,1,AIFED,LB,old,z,./images/AIFEDLB.png,,,,,,,,,,,,,,,,,,,,,,,,,,,,,,,,,,,
,,,,,,,,,,,,,,,,,614fe0e4ec9ce4a2a4154771,32,2022-02-12_17h49.15.362,lexical_decision_task_DD_L2,2021.2.3,Win32,59.99520038,,,,,,,,,,,0.5766,1,,,,,,,,,,,,,,m,1,0.5766,,,,,,,,0.8359375,0.07421875,0,0,0,,0,119,119,80,1,WEASEL,C,old,m,./images/WEASEL.png,,,,,,,,,,,,,,,,,,,,,,,,,,,,,,,,,,,
,,,,,,,,,,,,,,,,,614fe0e4ec9ce4a2a4154771,32,2022-02-12_17h49.15.362,lexical_decision_task_DD_L2,2021.2.3,Win32,59.99520038,,,,,,,,,,,0.6683,1,,,,,,,,,,,,,,z,1,0.6683,,,,,,,,0.8359375,0.07421875,0,0,0,,0,120,120,122,1,BLOOT,LB,old,z,./images/BLOOTLB.png,,,,,,,,,,,,,,,,,,,,,,,,,,,,,,,,,,,
,,,,,,,,,,,,,,,,,614fe0e4ec9ce4a2a4154771,32,2022-02-12_17h49.15.362,lexical_decision_task_DD_L2,2021.2.3,Win32,59.99520038,,,,,,,,,,,0.6529,1,,,,,,,,,,,,,,z,1,0.6529,,,,,,,,0.8359375,0.07421875,0,0,0,,0,121,121,160,1,VEETS,HB,old,z,./images/VEETSHB.png,,,,,,,,,,,,,,,,,,,,,,,,,,,,,,,,,,,
,,,,,,,,,,,,,,,,,614fe0e4ec9ce4a2a4154771,32,2022-02-12_17h49.15.362,lexical_decision_task_DD_L2,2021.2.3,Win32,59.99520038,,,,,,,,,,,0.6252,1,,,,,,,,,,,,,,m,1,0.6252,,,,,,,,0.8359375,0.07421875,0,0,0,,0,122,122,40,1,SWING,LB,old,m,./images/SWINGLB.png,,,,,,,,,,,,,,,,,,,,,,,,,,,,,,,,,,,
,,,,,,,,,,,,,,,,,614fe0e4ec9ce4a2a4154771,32,2022-02-12_17h49.15.362,lexical_decision_task_DD_L2,2021.2.3,Win32,59.99520038,,,,,,,,,,,0.5864,1,,,,,,,,,,,,,,z,1,0.5864,,,,,,,,0.8359375,0.07421875,0,0,0,,0,123,123,126,1,GUELS,C,old,z,./images/GUELS.png,,,,,,,,,,,,,,,,,,,,,,,,,,,,,,,,,,,
,,,,,,,,,,,,,,,,,614fe0e4ec9ce4a2a4154771,32,2022-02-12_17h49.15.362,lexical_decision_task_DD_L2,2021.2.3,Win32,59.99520038,,,,,,,,,,,0.7628,1,,,,,,,,,,,,,,z,1,0.7628,,,,,,,,0.8359375,0.07421875,0,0,0,,0,124,124,159,1,CUDDY,C,old,z,./images/CUDDY.png,,,,,,,,,,,,,,,,,,,,,,,,,,,,,,,,,,,
,,,,,,,,,,,,,,,,,614fe0e4ec9ce4a2a4154771,32,2022-02-12_17h49.15.362,lexical_decision_task_DD_L2,2021.2.3,Win32,59.99520038,,,,,,,,,,,0.7633,1,,,,,,,,,,,,,,m,1,0.7633,,,,,,,,0.8359375,0.07421875,0,0,0,space,0,125,125,44,1,LIZARD,C,old,m,./images/LIZARD.png,1.7318,,,,,,,,,,,,,,,,,,,,,,,,,,,,,,,,,,
,,,,,,,,,,,,,,,,,614fe0e4ec9ce4a2a4154771,32,2022-02-12_17h49.15.362,lexical_decision_task_DD_L2,2021.2.3,Win32,59.99520038,,,,,,,,,,,0.5743,1,,,,,,,,,,,,,,z,1,0.5743,,,,,,,,0.8359375,0.07421875,0,0,0,,0,126,126,87,1,TRING,C,old,z,./images/TRING.png,,,,,,,,,,,,,,,,,,,,,,,,,,,,,,,,,,,
,,,,,,,,,,,,,,,,,614fe0e4ec9ce4a2a4154771,32,2022-02-12_17h49.15.362,lexical_decision_task_DD_L2,2021.2.3,Win32,59.99520038,,,,,,,,,,,0.5359,1,,,,,,,,,,,,,,m,1,0.5359,,,,,,,,0.8359375,0.07421875,0,0,0,,0,127,127,76,1,INFANT,LB,old,m,./images/INFANTLB.png,,,,,,,,,,,,,,,,,,,,,,,,,,,,,,,,,,,
,,,,,,,,,,,,,,,,,614fe0e4ec9ce4a2a4154771,32,2022-02-12_17h49.15.362,lexical_decision_task_DD_L2,2021.2.3,Win32,59.99520038,,,,,,,,,,,0.6197,1,,,,,,,,,,,,,,m,1,0.6197,,,,,,,,0.8359375,0.07421875,0,0,0,,0,128,128,29,1,CRUMB,C,old,m,./images/CRUMB.png,,,,,,,,,,,,,,,,,,,,,,,,,,,,,,,,,,,
,,,,,,,,,,,,,,,,,614fe0e4ec9ce4a2a4154771,32,2022-02-12_17h49.15.362,lexical_decision_task_DD_L2,2021.2.3,Win32,59.99520038,,,,,,,,,,,0.6867,1,,,,,,,,,,,,,,z,1,0.6867,,,,,,,,0.8359375,0.07421875,0,0,0,,0,129,129,106,1,CLUMS,HB,old,z,./images/CLUMSHB.png,,,,,,,,,,,,,,,,,,,,,,,,,,,,,,,,,,,
,,,,,,,,,,,,,,,,,614fe0e4ec9ce4a2a4154771,32,2022-02-12_17h49.15.362,lexical_decision_task_DD_L2,2021.2.3,Win32,59.99520038,,,,,,,,,,,0.608,1,,,,,,,,,,,,,,m,1,0.608,,,,,,,,0.8359375,0.07421875,0,0,0,,0,130,130,58,1,BABOON,LB,old,m,./images/BABOONLB.png,,,,,,,,,,,,,,,,,,,,,,,,,,,,,,,,,,,
,,,,,,,,,,,,,,,,,614fe0e4ec9ce4a2a4154771,32,2022-02-12_17h49.15.362,lexical_decision_task_DD_L2,2021.2.3,Win32,59.99520038,,,,,,,,,,,0.5877,1,,,,,,,,,,,,,,z,1,0.5877,,,,,,,,0.8359375,0.07421875,0,0,0,,0,131,131,99,1,BACKY,C,old,z,./images/BACKY.png,,,,,,,,,,,,,,,,,,,,,,,,,,,,,,,,,,,
,,,,,,,,,,,,,,,,,614fe0e4ec9ce4a2a4154771,32,2022-02-12_17h49.15.362,lexical_decision_task_DD_L2,2021.2.3,Win32,59.99520038,,,,,,,,,,,0.5844,1,,,,,,,,,,,,,,z,1,0.5844,,,,,,,,0.8359375,0.07421875,0,0,0,,0,132,132,146,1,MOOST,LB,old,z,./images/MOOSTLB.png,,,,,,,,,,,,,,,,,,,,,,,,,,,,,,,,,,,
,,,,,,,,,,,,,,,,,614fe0e4ec9ce4a2a4154771,32,2022-02-12_17h49.15.362,lexical_decision_task_DD_L2,2021.2.3,Win32,59.99520038,,,,,,,,,,,0.6118,1,,,,,,,,,,,,,,m,1,0.6118,,,,,,,,0.8359375,0.07421875,0,0,0,,0,133,133,30,1,STORM,HB,old,m,./images/STORMHB.png,,,,,,,,,,,,,,,,,,,,,,,,,,,,,,,,,,,
,,,,,,,,,,,,,,,,,614fe0e4ec9ce4a2a4154771,32,2022-02-12_17h49.15.362,lexical_decision_task_DD_L2,2021.2.3,Win32,59.99520038,,,,,,,,,,,0.7071,1,,,,,,,,,,,,,,m,1,0.7071,,,,,,,,0.8359375,0.07421875,0,0,0,,0,134,134,59,1,BURIAL,C,old,m,./images/BURIAL.png,,,,,,,,,,,,,,,,,,,,,,,,,,,,,,,,,,,
,,,,,,,,,,,,,,,,,614fe0e4ec9ce4a2a4154771,32,2022-02-12_17h49.15.362,lexical_decision_task_DD_L2,2021.2.3,Win32,59.99520038,,,,,,,,,,,0.6049,1,,,,,,,,,,,,,,m,1,0.6049,,,,,,,,0.8359375,0.07421875,0,0,0,,0,135,135,68,1,TORCH,C,old,m,./images/TORCH.png,,,,,,,,,,,,,,,,,,,,,,,,,,,,,,,,,,,
,,,,,,,,,,,,,,,,,614fe0e4ec9ce4a2a4154771,32,2022-02-12_17h49.15.362,lexical_decision_task_DD_L2,2021.2.3,Win32,59.99520038,,,,,,,,,,,0.5248,1,,,,,,,,,,,,,,z,1,0.5248,,,,,,,,0.8359375,0.07421875,0,0,0,,0,136,136,141,1,PLEET,C,old,z,./images/PLEET.png,,,,,,,,,,,,,,,,,,,,,,,,,,,,,,,,,,,
,,,,,,,,,,,,,,,,,614fe0e4ec9ce4a2a4154771,32,2022-02-12_17h49.15.362,lexical_decision_task_DD_L2,2021.2.3,Win32,59.99520038,,,,,,,,,,,0.6223,1,,,,,,,,,,,,,,z,1,0.6223,,,,,,,,0.8359375,0.07421875,0,0,0,,0,137,137,138,1,PLICE,C,old,z,./images/PLICE.png,,,,,,,,,,,,,,,,,,,,,,,,,,,,,,,,,,,
,,,,,,,,,,,,,,,,,614fe0e4ec9ce4a2a4154771,32,2022-02-12_17h49.15.362,lexical_decision_task_DD_L2,2021.2.3,Win32,59.99520038,,,,,,,,,,,0.5411,1,,,,,,,,,,,,,,z,1,0.5411,,,,,,,,0.8359375,0.07421875,0,0,0,,0,138,138,135,1,JOODY,C,old,z,./images/JOODY.png,,,,,,,,,,,,,,,,,,,,,,,,,,,,,,,,,,,
,,,,,,,,,,,,,,,,,614fe0e4ec9ce4a2a4154771,32,2022-02-12_17h49.15.362,lexical_decision_task_DD_L2,2021.2.3,Win32,59.99520038,,,,,,,,,,,0.8779,1,,,,,,,,,,,,,,z,1,0.8779,,,,,,,,0.8359375,0.07421875,0,0,0,,0,139,139,157,1,INLER,HB,old,z,./images/INLERHB.png,,,,,,,,,,,,,,,,,,,,,,,,,,,,,,,,,,,
,,,,,,,,,,,,,,,,,614fe0e4ec9ce4a2a4154771,32,2022-02-12_17h49.15.362,lexical_decision_task_DD_L2,2021.2.3,Win32,59.99520038,,,,,,,,,,,1.317,1,,,,,,,,,,,,,,z,1,1.317,,,,,,,,0.8359375,0.07421875,0,0,0,,0,140,140,120,1,RINED,C,old,z,./images/RINED.png,,,,,,,,,,,,,,,,,,,,,,,,,,,,,,,,,,,
,,,,,,,,,,,,,,,,,614fe0e4ec9ce4a2a4154771,32,2022-02-12_17h49.15.362,lexical_decision_task_DD_L2,2021.2.3,Win32,59.99520038,,,,,,,,,,,0.7027,1,,,,,,,,,,,,,,m,1,0.7027,,,,,,,,0.8359375,0.07421875,0,0,0,,0,141,141,67,1,SAILOR,LB,old,m,./images/SAILORLB.png,,,,,,,,,,,,,,,,,,,,,,,,,,,,,,,,,,,
,,,,,,,,,,,,,,,,,614fe0e4ec9ce4a2a4154771,32,2022-02-12_17h49.15.362,lexical_decision_task_DD_L2,2021.2.3,Win32,59.99520038,,,,,,,,,,,0.5724,1,,,,,,,,,,,,,,z,1,0.5724,,,,,,,,0.8359375,0.07421875,0,0,0,,0,142,142,116,1,BALGY,LB,old,z,./images/BALGYLB.png,,,,,,,,,,,,,,,,,,,,,,,,,,,,,,,,,,,
,,,,,,,,,,,,,,,,,614fe0e4ec9ce4a2a4154771,32,2022-02-12_17h49.15.362,lexical_decision_task_DD_L2,2021.2.3,Win32,59.99520038,,,,,,,,,,,0.5316,1,,,,,,,,,,,,,,m,1,0.5316,,,,,,,,0.8359375,0.07421875,0,0,0,,0,143,143,83,1,JUNGLE,C,old,m,./images/JUNGLE.png,,,,,,,,,,,,,,,,,,,,,,,,,,,,,,,,,,,
,,,,,,,,,,,,,,,,,614fe0e4ec9ce4a2a4154771,32,2022-02-12_17h49.15.362,lexical_decision_task_DD_L2,2021.2.3,Win32,59.99520038,,,,,,,,,,,0.5849,1,,,,,,,,,,,,,,z,1,0.5849,,,,,,,,0.8359375,0.07421875,0,0,0,,0,144,144,93,1,SMONE,C,old,z,./images/SMONE.png,,,,,,,,,,,,,,,,,,,,,,,,,,,,,,,,,,,
,,,,,,,,,,,,,,,,,614fe0e4ec9ce4a2a4154771,32,2022-02-12_17h49.15.362,lexical_decision_task_DD_L2,2021.2.3,Win32,59.99520038,,,,,,,,,,,0.6274,1,,,,,,,,,,,,,,m,1,0.6274,,,,,,,,0.8359375,0.07421875,0,0,0,,0,145,145,64,1,JELLY,LB,old,m,./images/JELLYLB.png,,,,,,,,,,,,,,,,,,,,,,,,,,,,,,,,,,,
,,,,,,,,,,,,,,,,,614fe0e4ec9ce4a2a4154771,32,2022-02-12_17h49.15.362,lexical_decision_task_DD_L2,2021.2.3,Win32,59.99520038,,,,,,,,,,,0.5898,1,,,,,,,,,,,,,,m,1,0.5898,,,,,,,,0.8359375,0.07421875,0,0,0,,0,146,146,61,1,CANDLE,LB,old,m,./images/CANDLELB.png,,,,,,,,,,,,,,,,,,,,,,,,,,,,,,,,,,,
,,,,,,,,,,,,,,,,,614fe0e4ec9ce4a2a4154771,32,2022-02-12_17h49.15.362,lexical_decision_task_DD_L2,2021.2.3,Win32,59.99520038,,,,,,,,,,,0.6645,1,,,,,,,,,,,,,,m,1,0.6645,,,,,,,,0.8359375,0.07421875,0,0,0,,0,147,147,9,1,RHINO,HB,old,m,./images/RHINOHB.png,,,,,,,,,,,,,,,,,,,,,,,,,,,,,,,,,,,
,,,,,,,,,,,,,,,,,614fe0e4ec9ce4a2a4154771,32,2022-02-12_17h49.15.362,lexical_decision_task_DD_L2,2021.2.3,Win32,59.99520038,,,,,,,,,,,0.52,1,,,,,,,,,,,,,,z,1,0.52,,,,,,,,0.8359375,0.07421875,0,0,0,,0,148,148,144,1,NAIRY,C,old,z,./images/NAIRY.png,,,,,,,,,,,,,,,,,,,,,,,,,,,,,,,,,,,
,,,,,,,,,,,,,,,,,614fe0e4ec9ce4a2a4154771,32,2022-02-12_17h49.15.362,lexical_decision_task_DD_L2,2021.2.3,Win32,59.99520038,,,,,,,,,,,0.4944,1,,,,,,,,,,,,,,m,1,0.4944,,,,,,,,0.8359375,0.07421875,0,0,0,,0,149,149,57,1,MOOSE,HB,old,m,./images/MOOSEHB.png,,,,,,,,,,,,,,,,,,,,,,,,,,,,,,,,,,,
,,,,,,,,,,,,,,,,,614fe0e4ec9ce4a2a4154771,32,2022-02-12_17h49.15.362,lexical_decision_task_DD_L2,2021.2.3,Win32,59.99520038,,,,,,,,,,,0.633,1,,,,,,,,,,,,,,m,1,0.633,,,,,,,,0.8359375,0.07421875,0,0,0,,0,150,150,62,1,PURSE,C,old,m,./images/PURSE.png,,,,,,,,,,,,,,,,,,,,,,,,,,,,,,,,,,,
,,,,,,,,,,,,,,,,,614fe0e4ec9ce4a2a4154771,32,2022-02-12_17h49.15.362,lexical_decision_task_DD_L2,2021.2.3,Win32,59.99520038,,,,,,,,,,,0.6394,1,,,,,,,,,,,,,,m,1,0.6394,,,,,,,,0.8359375,0.07421875,0,0,0,,0,151,151,60,1,TWINS,HB,old,m,./images/TWINSHB.png,,,,,,,,,,,,,,,,,,,,,,,,,,,,,,,,,,,
,,,,,,,,,,,,,,,,,614fe0e4ec9ce4a2a4154771,32,2022-02-12_17h49.15.362,lexical_decision_task_DD_L2,2021.2.3,Win32,59.99520038,,,,,,,,,,,0.5979,1,,,,,,,,,,,,,,z,1,0.5979,,,,,,,,0.8359375,0.07421875,0,0,0,,0,152,152,161,1,BLAPS,LB,old,z,./images/BLAPSLB.png,,,,,,,,,,,,,,,,,,,,,,,,,,,,,,,,,,,
,,,,,,,,,,,,,,,,,614fe0e4ec9ce4a2a4154771,32,2022-02-12_17h49.15.362,lexical_decision_task_DD_L2,2021.2.3,Win32,59.99520038,,,,,,,,,,,0.5709,1,,,,,,,,,,,,,,m,1,0.5709,,,,,,,,0.8359375,0.07421875,0,0,0,,0,153,153,32,1,BARREL,C,old,m,./images/BARREL.png,,,,,,,,,,,,,,,,,,,,,,,,,,,,,,,,,,,
,,,,,,,,,,,,,,,,,614fe0e4ec9ce4a2a4154771,32,2022-02-12_17h49.15.362,lexical_decision_task_DD_L2,2021.2.3,Win32,59.99520038,,,,,,,,,,,0.6267,1,,,,,,,,,,,,,,z,1,0.6267,,,,,,,,0.8359375,0.07421875,0,0,0,,0,154,154,97,1,CHIDS,HB,old,z,./images/CHIDSHB.png,,,,,,,,,,,,,,,,,,,,,,,,,,,,,,,,,,,
,,,,,,,,,,,,,,,,,614fe0e4ec9ce4a2a4154771,32,2022-02-12_17h49.15.362,lexical_decision_task_DD_L2,2021.2.3,Win32,59.99520038,,,,,,,,,,,0.5177,1,,,,,,,,,,,,,,m,1,0.5177,,,,,,,,0.8359375,0.07421875,0,0,0,,0,155,155,53,1,CARPET,C,old,m,./images/CARPET.png,,,,,,,,,,,,,,,,,,,,,,,,,,,,,,,,,,,
,,,,,,,,,,,,,,,,,614fe0e4ec9ce4a2a4154771,32,2022-02-12_17h49.15.362,lexical_decision_task_DD_L2,2021.2.3,Win32,59.99520038,,,,,,,,,,,0.6732,1,,,,,,,,,,,,,,z,1,0.6732,,,,,,,,0.8359375,0.07421875,0,0,0,,0,156,156,101,1,GLEET,LB,old,z,./images/GLEETLB.png,,,,,,,,,,,,,,,,,,,,,,,,,,,,,,,,,,,
,,,,,,,,,,,,,,,,,614fe0e4ec9ce4a2a4154771,32,2022-02-12_17h49.15.362,lexical_decision_task_DD_L2,2021.2.3,Win32,59.99520038,,,,,,,,,,,1.6279,1,,,,,,,,,,,,,,m,1,1.6279,,,,,,,,0.8359375,0.07421875,0,0,0,,0,157,157,33,1,MAGGOT,HB,old,m,./images/MAGGOTHB.png,,,,,,,,,,,,,,,,,,,,,,,,,,,,,,,,,,,
,,,,,,,,,,,,,,,,,614fe0e4ec9ce4a2a4154771,32,2022-02-12_17h49.15.362,lexical_decision_task_DD_L2,2021.2.3,Win32,59.99520038,,,,,,,,,,,0.631,1,,,,,,,,,,,,,,z,1,0.631,,,,,,,,0.8359375,0.07421875,0,0,0,,0,158,158,94,1,BLANS,HB,old,z,./images/BLANSHB.png,,,,,,,,,,,,,,,,,,,,,,,,,,,,,,,,,,,
,,,,,,,,,,,,,,,,,614fe0e4ec9ce4a2a4154771,32,2022-02-12_17h49.15.362,lexical_decision_task_DD_L2,2021.2.3,Win32,59.99520038,,,,,,,,,,,0.5411,1,,,,,,,,,,,,,,m,1,0.5411,,,,,,,,0.8359375,0.07421875,0,0,0,,0,159,159,3,1,FINGER,HB,old,m,./images/FINGERHB.png,,,,,,,,,,,,,,,,,,,,,,,,,,,,,,,,,,,
,,,,,,,,,,,,,,,,,614fe0e4ec9ce4a2a4154771,32,2022-02-12_17h49.15.362,lexical_decision_task_DD_L2,2021.2.3,Win32,59.99520038,,,,,,,,,,,0.7513,1,,,,,,,,,,,,,,m,1,0.7513,,,,,,,,0.8359375,0.07421875,0,0,0,,0,160,160,43,1,MOSQUE,LB,old,m,./images/MOSQUELB.png,,,,,,,,,,,,,,,,,,,,,,,,,,,,,,,,,,,
,,,,,,,,,,,,,,,,,614fe0e4ec9ce4a2a4154771,32,2022-02-12_17h49.15.362,lexical_decision_task_DD_L2,2021.2.3,Win32,59.99520038,,,,,,,,,,,0.5386,1,,,,,,,,,,,,,,z,1,0.5386,,,,,,,,0.8359375,0.07421875,0,0,0,,0,161,161,108,1,GRUET,C,old,z,./images/GRUET.png,,,,,,,,,,,,,,,,,,,,,,,,,,,,,,,,,,,
,,,,,,,,,,,,,,,,,614fe0e4ec9ce4a2a4154771,32,2022-02-12_17h49.15.362,lexical_decision_task_DD_L2,2021.2.3,Win32,59.99520038,,,,,,,,,,,0.6031,1,,,,,,,,,,,,,,z,1,0.6031,,,,,,,,0.8359375,0.07421875,0,0,0,,0,162,162,162,1,LEICH,C,old,z,./images/LEICH.png,,,,,,,,,,,,,,,,,,,,,,,,,,,,,,,,,,,
,,,,,,,,,,,,,,,,,614fe0e4ec9ce4a2a4154771,32,2022-02-12_17h49.15.362,lexical_decision_task_DD_L2,2021.2.3,Win32,59.99520038,,,,,,,,,,,0.5924,0,,,,,,,,,,,,,,z,0,0.5924,,,,,,,,0.8359375,0.07421875,0,0,0,,0,163,163,82,1,SUNSET,LB,old,m,./images/SUNSETLB.png,,,,,,,,,,,,,,,,,,,,,,,,,,,,,,,,,,,
,,,,,,,,,,,,,,,,,614fe0e4ec9ce4a2a4154771,32,2022-02-12_17h49.15.362,lexical_decision_task_DD_L2,2021.2.3,Win32,59.99520038,,,,,,,,,,,0.6741,1,,,,,,,,,,,,,,z,1,0.6741,,,,,,,,0.8359375,0.07421875,0,0,0,,0,164,164,85,1,CHULK,HB,old,z,./images/CHULKHB.png,,,,,,,,,,,,,,,,,,,,,,,,,,,,,,,,,,,
,,,,,,,,,,,,,,,,,614fe0e4ec9ce4a2a4154771,32,2022-02-12_17h49.15.362,lexical_decision_task_DD_L2,2021.2.3,Win32,59.99520038,,,,,,,,,,,0.5953,1,,,,,,,,,,,,,,z,1,0.5953,,,,,,,,0.8359375,0.07421875,0,0,0,,0,165,165,137,1,JOOST,LB,old,z,./images/JOOSTLB.png,,,,,,,,,,,,,,,,,,,,,,,,,,,,,,,,,,,
,,,,,,,,,,,,,,,,,614fe0e4ec9ce4a2a4154771,32,2022-02-12_17h49.15.362,lexical_decision_task_DD_L2,2021.2.3,Win32,59.99520038,,,,,,,,,,,0.512,1,,,,,,,,,,,,,,m,1,0.512,,,,,,,,0.8359375,0.07421875,0,0,0,,0,166,166,38,1,LADDER,C,old,m,./images/LADDER.png,,,,,,,,,,,,,,,,,,,,,,,,,,,,,,,,,,,
,,,,,,,,,,,,,,,,,614fe0e4ec9ce4a2a4154771,32,2022-02-12_17h49.15.362,lexical_decision_task_DD_L2,2021.2.3,Win32,59.99520038,,,,,,,,,,,0.6644,1,,,,,,,,,,,,,,m,1,0.6644,,,,,,,,0.8359375,0.07421875,0,0,0,,0,167,167,12,1,SHORE,HB,old,m,./images/SHOREHB.png,,,,,,,,,,,,,,,,,,,,,,,,,,,,,,,,,,,
,,,,,,,,,,,,,,,,,614fe0e4ec9ce4a2a4154771,32,2022-02-12_17h49.15.362,lexical_decision_task_DD_L2,2021.2.3,Win32,59.99520038,,,,,,,,,,,,,,,,,,,,,,,,,,,,,,,,,,,,,,,,,,,,,,,,How likely will it be that you will recognize the words presented very blurred on a scale of 0 (not likely) to 100 (most likely)?,,,,,0.00390625,-0.415364583,1,0,0,jol_adv,3,8.6462,0,0,0,2,1,,,,,,,,,,,,,,,,,,,,,
,,,,,,,,,,,,,,,,,614fe0e4ec9ce4a2a4154771,32,2022-02-12_17h49.15.362,lexical_decision_task_DD_L2,2021.2.3,Win32,59.99520038,,,,,,,,,,,,,,,,,,,,,,,,,,,,,,,,,,,,,,,,,,,,,,,,How likely will it be that you will recognize the words presented slighly blurred on a scale of 0 (not likely) to 100 (most likely)?,,,,,,,,,,,5,3.9097,0,1,1,1,1,,,,,,,,,,,,,,,,,,,,,
,,,,,,,,,,,,,,,,,614fe0e4ec9ce4a2a4154771,32,2022-02-12_17h49.15.362,lexical_decision_task_DD_L2,2021.2.3,Win32,59.99520038,,,,,,,,,,,,,,,,,,,,,,,,,,,,,,,,,,,,,,,,,,,,,,,,How likely will it be that you will recognize the words presented clearly on a scale of 0 (not likely) to 100 (most likely)?,,,,,,,,,,,6,2.627,0,2,2,0,1,,,,,,,,,,,,,,,,,,,,,
space,20.2583,0.502604167,-0.247395833,0,0,0,,,,,,1,test,"In the next phase you will be presented with the words from the the first phase. Your job is to decide whether you remember seeing the word or not. If you remember seeing the word press ""old"" or type ""m"". If you do not remember seeing the word press ""new"" or type ""z"". Please press the space bar or click on continue to begin. ",,,614fe0e4ec9ce4a2a4154771,32,2022-02-12_17h49.15.362,lexical_decision_task_DD_L2,2021.2.3,Win32,59.99520038,,,,,,,,,,,,,,,,,,,,,,,,,,,,,,,,,,,,,,,,,,,,,,,,,,,,,,,,,,,,,,,,,,0,0,0,0,1,,,,,,,,,,,,,,,,
space,3.6939,0.502604167,-0.247395833,0,0,0,,,,,,1,test,"In the next phase you will be presented with the words from the the first phase. Your job is to decide whether you remember seeing the word or not. If you remember seeing the word press ""old"" or type ""m"". If you do not remember seeing the word press ""new"" or type ""z"". Please press the space bar or click on continue to begin. ",,,614fe0e4ec9ce4a2a4154771,32,2022-02-12_17h49.15.362,lexical_decision_task_DD_L2,2021.2.3,Win32,59.99520038,,,,,,,,,,,,,,,,,,,,,,,,,,,,,,,,,,,,,,,,,,,,,,,,,,,,,,,,,,,,,,,,,,1,0,1,0,1,,,,,,,,,,,,,,,,
,,0.104166667,-0.384114583,1,0,0,,,,,,1,test,"In the next phase you will be presented with the words from the the first phase. Your job is to decide whether you remember seeing the word or not. If you remember seeing the word press ""old"" or type ""m"". If you do not remember seeing the word press ""new"" or type ""z"". Please press the space bar or click on continue to begin. ",,,614fe0e4ec9ce4a2a4154771,32,2022-02-12_17h49.15.362,lexical_decision_task_DD_L2,2021.2.3,Win32,59.99520038,,,,,,,,,,,,,,,,,,,,,,,,,,,,,,,,,,,,,,,,,,,,,,,,,,,,,,,,,,,,,,,,,,2,0,2,0,1,instr_done_button,,,,,,,,,,,,,,,
,,-0.00390625,-0.411458333,1,0,0,,,,,,1,test,"In the next phase you will be presented with the words from the the first phase. Your job is to decide whether you remember seeing the word or not. If you remember seeing the word press ""old"" or type ""m"". If you do not remember seeing the word press ""new"" or type ""z"". Please press the space bar or click on continue to begin. ",,,614fe0e4ec9ce4a2a4154771,32,2022-02-12_17h49.15.362,lexical_decision_task_DD_L2,2021.2.3,Win32,59.99520038,,,,,,,,,,,,,,,,,,,,,,,,,,,,,,,,,,,,,,,,,,,,,,,,,,,,,,,,,,,,,,,,,,3,0,3,0,1,instr_done_button,,,,,,,,,,,,,,,
,,0.01953125,-0.368489583,1,0,0,,,,,,1,test,"In the next phase you will be presented with the words from the the first phase. Your job is to decide whether you remember seeing the word or not. If you remember seeing the word press ""old"" or type ""m"". If you do not remember seeing the word press ""new"" or type ""z"". Please press the space bar or click on continue to begin. ",,,614fe0e4ec9ce4a2a4154771,32,2022-02-12_17h49.15.362,lexical_decision_task_DD_L2,2021.2.3,Win32,59.99520038,,,,,,,,,,,,,,,,,,,,,,,,,,,,,,,,,,,,,,,,,,,,,,,,,,,,,,,,,,,,,,,,,,4,0,4,0,1,instr_done_button,,,,,,,,,,,,,,,
,,,,,,,,,,,,,,,,,614fe0e4ec9ce4a2a4154771,32,2022-02-12_17h49.15.362,lexical_decision_task_DD_L2,2021.2.3,Win32,59.99520038,,,,,,,,,,,3.5488,0,,,,,,,,,,,,,,,,,,,,,,,,0.529947917,0.109375,0,0,0,,,,,,,PICKLE,C,m,y,./images/PICKLE.png,,,,,,,,,,,,,,,,,,,,,z,0,3.5488,,,,,,,,0,0,0,14,1
,,,,,,,,,,,,,,,,,614fe0e4ec9ce4a2a4154771,32,2022-02-12_17h49.15.362,lexical_decision_task_DD_L2,2021.2.3,Win32,59.99520038,,,,,,,,,,,1.078,1,,,,,,,,,,,,,,,,,,,,,,,,0.529947917,0.109375,0,0,0,,,,,,,HOCKEY,C,z,y,./images/HOCKEY.png,,,,,,,,,,,,,,,,,,,,,z,1,1.078,,,,,,,,0,1,1,116,1
,,,,,,,,,,,,,,,,,614fe0e4ec9ce4a2a4154771,32,2022-02-12_17h49.15.362,lexical_decision_task_DD_L2,2021.2.3,Win32,59.99520038,,,,,,,,,,,2.3878,1,,,,,,,,,,,,,,,,,,,,,,,,0.529947917,0.109375,0,0,0,,,,,,,CANDY,HB,z,y,./images/CANDYHB.png,,,,,,,,,,,,,,,,,,,,,z,1,2.3878,,,,,,,,0,2,2,123,1
,,,,,,,,,,,,,,,,,614fe0e4ec9ce4a2a4154771,32,2022-02-12_17h49.15.362,lexical_decision_task_DD_L2,2021.2.3,Win32,59.99520038,,,,,,,,,,,1.3027,1,,,,,,,,,,,,,,,,,,,,,,,,0.529947917,0.109375,0,0,0,,,,,,,GLOVE,LB,z,y,./images/GLOVELB.png,,,,,,,,,,,,,,,,,,,,,z,1,1.3027,,,,,,,,0,3,3,157,1
,,,,,,,,,,,,,,,,,614fe0e4ec9ce4a2a4154771,32,2022-02-12_17h49.15.362,lexical_decision_task_DD_L2,2021.2.3,Win32,59.99520038,,,,,,,,,,,0.6818,1,,,,,,,,,,,,,,,,,,,,,,,,0.529947917,0.109375,0,0,0,,,,,,,BURIAL,C,m,y,./images/BURIAL.png,,,,,,,,,,,,,,,,,,,,,m,1,0.6818,,,,,,,,0,4,4,59,1
,,,,,,,,,,,,,,,,,614fe0e4ec9ce4a2a4154771,32,2022-02-12_17h49.15.362,lexical_decision_task_DD_L2,2021.2.3,Win32,59.99520038,,,,,,,,,,,0.8092,0,,,,,,,,,,,,,,,,,,,,,,,,0.529947917,0.109375,0,0,0,,,,,,,STREAM,C,z,y,./images/STREAM.png,,,,,,,,,,,,,,,,,,,,,m,0,0.8092,,,,,,,,0,5,5,125,1
,,,,,,,,,,,,,,,,,614fe0e4ec9ce4a2a4154771,32,2022-02-12_17h49.15.362,lexical_decision_task_DD_L2,2021.2.3,Win32,59.99520038,,,,,,,,,,,0.7089,1,,,,,,,,,,,,,,,,,,,,,,,,0.529947917,0.109375,0,0,0,,,,,,,DIVER,HB,z,y,./images/DIVERHB.png,,,,,,,,,,,,,,,,,,,,,z,1,0.7089,,,,,,,,0,6,6,93,1
,,,,,,,,,,,,,,,,,614fe0e4ec9ce4a2a4154771,32,2022-02-12_17h49.15.362,lexical_decision_task_DD_L2,2021.2.3,Win32,59.99520038,,,,,,,,,,,0.6615,1,,,,,,,,,,,,,,,,,,,,,,,,0.529947917,0.109375,0,0,0,,,,,,,WHEEL,C,z,y,./images/WHEEL.png,,,,,,,,,,,,,,,,,,,,,z,1,0.6615,,,,,,,,0,7,7,161,1
,,,,,,,,,,,,,,,,,614fe0e4ec9ce4a2a4154771,32,2022-02-12_17h49.15.362,lexical_decision_task_DD_L2,2021.2.3,Win32,59.99520038,,,,,,,,,,,0.9333,1,,,,,,,,,,,,,,,,,,,,,,,,0.529947917,0.109375,0,0,0,,,,,,,WEASEL,C,m,y,./images/WEASEL.png,,,,,,,,,,,,,,,,,,,,,m,1,0.9333,,,,,,,,0,8,8,80,1
,,,,,,,,,,,,,,,,,614fe0e4ec9ce4a2a4154771,32,2022-02-12_17h49.15.362,lexical_decision_task_DD_L2,2021.2.3,Win32,59.99520038,,,,,,,,,,,0.9194,0,,,,,,,,,,,,,,,,,,,,,,,,0.529947917,0.109375,0,0,0,,,,,,,BUTTER,HB,z,y,./images/BUTTERHB.png,,,,,,,,,,,,,,,,,,,,,m,0,0.9194,,,,,,,,0,9,9,111,1
,,,,,,,,,,,,,,,,,614fe0e4ec9ce4a2a4154771,32,2022-02-12_17h49.15.362,lexical_decision_task_DD_L2,2021.2.3,Win32,59.99520038,,,,,,,,,,,0.5668,1,,,,,,,,,,,,,,,,,,,,,,,,0.529947917,0.109375,0,0,0,,,,,,,STORM,HB,m,y,./images/STORMHB.png,,,,,,,,,,,,,,,,,,,,,m,1,0.5668,,,,,,,,0,10,10,30,1
,,,,,,,,,,,,,,,,,614fe0e4ec9ce4a2a4154771,32,2022-02-12_17h49.15.362,lexical_decision_task_DD_L2,2021.2.3,Win32,59.99520038,,,,,,,,,,,0.6223,1,,,,,,,,,,,,,,,,,,,,,,,,0.529947917,0.109375,0,0,0,,,,,,,HEATER,C,z,y,./images/HEATER.png,,,,,,,,,,,,,,,,,,,,,z,1,0.6223,,,,,,,,0,11,11,140,1
,,,,,,,,,,,,,,,,,614fe0e4ec9ce4a2a4154771,32,2022-02-12_17h49.15.362,lexical_decision_task_DD_L2,2021.2.3,Win32,59.99520038,,,,,,,,,,,0.9434,1,,,,,,,,,,,,,,,,,,,,,,,,0.529947917,0.109375,0,0,0,,,,,,,MUSCLE,LB,m,y,./images/MUSCLELB.png,,,,,,,,,,,,,,,,,,,,,m,1,0.9434,,,,,,,,0,12,12,4,1
,,,,,,,,,,,,,,,,,614fe0e4ec9ce4a2a4154771,32,2022-02-12_17h49.15.362,lexical_decision_task_DD_L2,2021.2.3,Win32,59.99520038,,,,,,,,,,,0.6861,1,,,,,,,,,,,,,,,,,,,,,,,,0.529947917,0.109375,0,0,0,,,,,,,BONNET,C,m,y,./images/BONNET.png,,,,,,,,,,,,,,,,,,,,,m,1,0.6861,,,,,,,,0,13,13,11,1
,,,,,,,,,,,,,,,,,614fe0e4ec9ce4a2a4154771,32,2022-02-12_17h49.15.362,lexical_decision_task_DD_L2,2021.2.3,Win32,59.99520038,,,,,,,,,,,1.0886,1,,,,,,,,,,,,,,,,,,,,,,,,0.529947917,0.109375,0,0,0,,,,,,,STOOL,LB,z,y,./images/STOOLLB.png,,,,,,,,,,,,,,,,,,,,,z,1,1.0886,,,,,,,,0,14,14,127,1
,,,,,,,,,,,,,,,,,614fe0e4ec9ce4a2a4154771,32,2022-02-12_17h49.15.362,lexical_decision_task_DD_L2,2021.2.3,Win32,59.99520038,,,,,,,,,,,1.2463,0,,,,,,,,,,,,,,,,,,,,,,,,0.529947917,0.109375,0,0,0,,,,,,,MONKEY,HB,z,y,./images/MONKEYHB.png,,,,,,,,,,,,,,,,,,,,,m,0,1.2463,,,,,,,,0,15,15,129,1
,,,,,,,,,,,,,,,,,614fe0e4ec9ce4a2a4154771,32,2022-02-12_17h49.15.362,lexical_decision_task_DD_L2,2021.2.3,Win32,59.99520038,,,,,,,,,,,0.6542,1,,,,,,,,,,,,,,,,,,,,,,,,0.529947917,0.109375,0,0,0,,,,,,,BARREL,C,m,y,./images/BARREL.png,,,,,,,,,,,,,,,,,,,,,m,1,0.6542,,,,,,,,0,16,16,32,1
,,,,,,,,,,,,,,,,,614fe0e4ec9ce4a2a4154771,32,2022-02-12_17h49.15.362,lexical_decision_task_DD_L2,2021.2.3,Win32,59.99520038,,,,,,,,,,,0.6467,1,,,,,,,,,,,,,,,,,,,,,,,,0.529947917,0.109375,0,0,0,,,,,,,GREASE,HB,m,y,./images/GREASEHB.png,,,,,,,,,,,,,,,,,,,,,m,1,0.6467,,,,,,,,0,17,17,15,1
,,,,,,,,,,,,,,,,,614fe0e4ec9ce4a2a4154771,32,2022-02-12_17h49.15.362,lexical_decision_task_DD_L2,2021.2.3,Win32,59.99520038,,,,,,,,,,,0.6686,1,,,,,,,,,,,,,,,,,,,,,,,,0.529947917,0.109375,0,0,0,,,,,,,GRANNY,C,z,y,./images/GRANNY.png,,,,,,,,,,,,,,,,,,,,,z,1,0.6686,,,,,,,,0,18,18,104,1
,,,,,,,,,,,,,,,,,614fe0e4ec9ce4a2a4154771,32,2022-02-12_17h49.15.362,lexical_decision_task_DD_L2,2021.2.3,Win32,59.99520038,,,,,,,,,,,0.6876,1,,,,,,,,,,,,,,,,,,,,,,,,0.529947917,0.109375,0,0,0,,,,,,,PURSE,C,m,y,./images/PURSE.png,,,,,,,,,,,,,,,,,,,,,m,1,0.6876,,,,,,,,0,19,19,62,1
,,,,,,,,,,,,,,,,,614fe0e4ec9ce4a2a4154771,32,2022-02-12_17h49.15.362,lexical_decision_task_DD_L2,2021.2.3,Win32,59.99520038,,,,,,,,,,,0.8027,1,,,,,,,,,,,,,,,,,,,,,,,,0.529947917,0.109375,0,0,0,,,,,,,FARMER,C,m,y,./images/FARMER.png,,,,,,,,,,,,,,,,,,,,,m,1,0.8027,,,,,,,,0,20,20,65,1
,,,,,,,,,,,,,,,,,614fe0e4ec9ce4a2a4154771,32,2022-02-12_17h49.15.362,lexical_decision_task_DD_L2,2021.2.3,Win32,59.99520038,,,,,,,,,,,0.6383,1,,,,,,,,,,,,,,,,,,,,,,,,0.529947917,0.109375,0,0,0,,,,,,,DRUMS,LB,m,y,./images/DRUMSLB.png,,,,,,,,,,,,,,,,,,,,,m,1,0.6383,,,,,,,,0,21,21,49,1
,,,,,,,,,,,,,,,,,614fe0e4ec9ce4a2a4154771,32,2022-02-12_17h49.15.362,lexical_decision_task_DD_L2,2021.2.3,Win32,59.99520038,,,,,,,,,,,0.6857,1,,,,,,,,,,,,,,,,,,,,,,,,0.529947917,0.109375,0,0,0,,,,,,,SWEAT,HB,m,y,./images/SWEATHB.png,,,,,,,,,,,,,,,,,,,,,m,1,0.6857,,,,,,,,0,22,22,66,1
,,,,,,,,,,,,,,,,,614fe0e4ec9ce4a2a4154771,32,2022-02-12_17h49.15.362,lexical_decision_task_DD_L2,2021.2.3,Win32,59.99520038,,,,,,,,,,,0.7415,1,,,,,,,,,,,,,,,,,,,,,,,,0.529947917,0.109375,0,0,0,,,,,,,LITTER,HB,m,y,./images/LITTERHB.png,,,,,,,,,,,,,,,,,,,,,m,1,0.7415,,,,,,,,0,23,23,78,1
,,,,,,,,,,,,,,,,,614fe0e4ec9ce4a2a4154771,32,2022-02-12_17h49.15.362,lexical_decision_task_DD_L2,2021.2.3,Win32,59.99520038,,,,,,,,,,,0.8445,0,,,,,,,,,,,,,,,,,,,,,,,,0.529947917,0.109375,0,0,0,,,,,,,BRUSH,C,z,y,./images/BRUSH.png,,,,,,,,,,,,,,,,,,,,,m,0,0.8445,,,,,,,,0,24,24,143,1
,,,,,,,,,,,,,,,,,614fe0e4ec9ce4a2a4154771,32,2022-02-12_17h49.15.362,lexical_decision_task_DD_L2,2021.2.3,Win32,59.99520038,,,,,,,,,,,0.5811,1,,,,,,,,,,,,,,,,,,,,,,,,0.529947917,0.109375,0,0,0,,,,,,,SWING,LB,m,y,./images/SWINGLB.png,,,,,,,,,,,,,,,,,,,,,m,1,0.5811,,,,,,,,0,25,25,40,1
,,,,,,,,,,,,,,,,,614fe0e4ec9ce4a2a4154771,32,2022-02-12_17h49.15.362,lexical_decision_task_DD_L2,2021.2.3,Win32,59.99520038,,,,,,,,,,,0.7229,1,,,,,,,,,,,,,,,,,,,,,,,,0.529947917,0.109375,0,0,0,,,,,,,CHALK,LB,z,y,./images/CHALKLB.png,,,,,,,,,,,,,,,,,,,,,z,1,0.7229,,,,,,,,0,26,26,109,1
,,,,,,,,,,,,,,,,,614fe0e4ec9ce4a2a4154771,32,2022-02-12_17h49.15.362,lexical_decision_task_DD_L2,2021.2.3,Win32,59.99520038,,,,,,,,,,,0.7285,1,,,,,,,,,,,,,,,,,,,,,,,,0.529947917,0.109375,0,0,0,,,,,,,PEACH,C,m,y,./images/PEACH.png,,,,,,,,,,,,,,,,,,,,,m,1,0.7285,,,,,,,,0,27,27,35,1
,,,,,,,,,,,,,,,,,614fe0e4ec9ce4a2a4154771,32,2022-02-12_17h49.15.362,lexical_decision_task_DD_L2,2021.2.3,Win32,59.99520038,,,,,,,,,,,0.8754,1,,,,,,,,,,,,,,,,,,,,,,,,0.529947917,0.109375,0,0,0,,,,,,,WALNUT,HB,z,y,./images/WALNUTHB.png,,,,,,,,,,,,,,,,,,,,,z,1,0.8754,,,,,,,,0,28,28,84,1
,,,,,,,,,,,,,,,,,614fe0e4ec9ce4a2a4154771,32,2022-02-12_17h49.15.362,lexical_decision_task_DD_L2,2021.2.3,Win32,59.99520038,,,,,,,,,,,0.6941,1,,,,,,,,,,,,,,,,,,,,,,,,0.529947917,0.109375,0,0,0,,,,,,,SMOKER,C,m,y,./images/SMOKER.png,,,,,,,,,,,,,,,,,,,,,m,1,0.6941,,,,,,,,0,29,29,26,1
,,,,,,,,,,,,,,,,,614fe0e4ec9ce4a2a4154771,32,2022-02-12_17h49.15.362,lexical_decision_task_DD_L2,2021.2.3,Win32,59.99520038,,,,,,,,,,,0.5995,1,,,,,,,,,,,,,,,,,,,,,,,,0.529947917,0.109375,0,0,0,,,,,,,BABOON,LB,m,y,./images/BABOONLB.png,,,,,,,,,,,,,,,,,,,,,m,1,0.5995,,,,,,,,0,30,30,58,1
,,,,,,,,,,,,,,,,,614fe0e4ec9ce4a2a4154771,32,2022-02-12_17h49.15.362,lexical_decision_task_DD_L2,2021.2.3,Win32,59.99520038,,,,,,,,,,,0.8717,1,,,,,,,,,,,,,,,,,,,,,,,,0.529947917,0.109375,0,0,0,,,,,,,URINE,LB,m,y,./images/URINELB.png,,,,,,,,,,,,,,,,,,,,,m,1,0.8717,,,,,,,,0,31,31,70,1
,,,,,,,,,,,,,,,,,614fe0e4ec9ce4a2a4154771,32,2022-02-12_17h49.15.362,lexical_decision_task_DD_L2,2021.2.3,Win32,59.99520038,,,,,,,,,,,0.7641,1,,,,,,,,,,,,,,,,,,,,,,,,0.529947917,0.109375,0,0,0,,,,,,,MAMMAL,C,z,y,./images/MAMMAL.png,,,,,,,,,,,,,,,,,,,,,z,1,0.7641,,,,,,,,0,32,32,146,1
,,,,,,,,,,,,,,,,,614fe0e4ec9ce4a2a4154771,32,2022-02-12_17h49.15.362,lexical_decision_task_DD_L2,2021.2.3,Win32,59.99520038,,,,,,,,,,,0.675,1,,,,,,,,,,,,,,,,,,,,,,,,0.529947917,0.109375,0,0,0,,,,,,,TWINS,HB,m,y,./images/TWINSHB.png,,,,,,,,,,,,,,,,,,,,,m,1,0.675,,,,,,,,0,33,33,60,1
,,,,,,,,,,,,,,,,,614fe0e4ec9ce4a2a4154771,32,2022-02-12_17h49.15.362,lexical_decision_task_DD_L2,2021.2.3,Win32,59.99520038,,,,,,,,,,,0.5529,1,,,,,,,,,,,,,,,,,,,,,,,,0.529947917,0.109375,0,0,0,,,,,,,LADDER,C,m,y,./images/LADDER.png,,,,,,,,,,,,,,,,,,,,,m,1,0.5529,,,,,,,,0,34,34,38,1
,,,,,,,,,,,,,,,,,614fe0e4ec9ce4a2a4154771,32,2022-02-12_17h49.15.362,lexical_decision_task_DD_L2,2021.2.3,Win32,59.99520038,,,,,,,,,,,0.7443,1,,,,,,,,,,,,,,,,,,,,,,,,0.529947917,0.109375,0,0,0,,,,,,,DANCER,HB,z,y,./images/DANCERHB.png,,,,,,,,,,,,,,,,,,,,,z,1,0.7443,,,,,,,,0,35,35,105,1
,,,,,,,,,,,,,,,,,614fe0e4ec9ce4a2a4154771,32,2022-02-12_17h49.15.362,lexical_decision_task_DD_L2,2021.2.3,Win32,59.99520038,,,,,,,,,,,0.5996,1,,,,,,,,,,,,,,,,,,,,,,,,0.529947917,0.109375,0,0,0,,,,,,,CEMENT,C,m,y,./images/CEMENT.png,,,,,,,,,,,,,,,,,,,,,m,1,0.5996,,,,,,,,0,36,36,74,1
,,,,,,,,,,,,,,,,,614fe0e4ec9ce4a2a4154771,32,2022-02-12_17h49.15.362,lexical_decision_task_DD_L2,2021.2.3,Win32,59.99520038,,,,,,,,,,,0.8154,1,,,,,,,,,,,,,,,,,,,,,,,,0.529947917,0.109375,0,0,0,,,,,,,BLOKE,HB,z,y,./images/BLOKEHB.png,,,,,,,,,,,,,,,,,,,,,z,1,0.8154,,,,,,,,0,37,37,96,1
,,,,,,,,,,,,,,,,,614fe0e4ec9ce4a2a4154771,32,2022-02-12_17h49.15.362,lexical_decision_task_DD_L2,2021.2.3,Win32,59.99520038,,,,,,,,,,,0.725,1,,,,,,,,,,,,,,,,,,,,,,,,0.529947917,0.109375,0,0,0,,,,,,,TOMATO,HB,m,y,./images/TOMATOHB.png,,,,,,,,,,,,,,,,,,,,,m,1,0.725,,,,,,,,0,38,38,0,1
,,,,,,,,,,,,,,,,,614fe0e4ec9ce4a2a4154771,32,2022-02-12_17h49.15.362,lexical_decision_task_DD_L2,2021.2.3,Win32,59.99520038,,,,,,,,,,,0.7951,1,,,,,,,,,,,,,,,,,,,,,,,,0.529947917,0.109375,0,0,0,,,,,,,CANYON,LB,m,y,./images/CANYONLB.png,,,,,,,,,,,,,,,,,,,,,m,1,0.7951,,,,,,,,0,39,39,34,1
,,,,,,,,,,,,,,,,,614fe0e4ec9ce4a2a4154771,32,2022-02-12_17h49.15.362,lexical_decision_task_DD_L2,2021.2.3,Win32,59.99520038,,,,,,,,,,,0.6475,0,,,,,,,,,,,,,,,,,,,,,,,,0.529947917,0.109375,0,0,0,,,,,,,HAMMER,HB,z,y,./images/HAMMERHB.png,,,,,,,,,,,,,,,,,,,,,m,0,0.6475,,,,,,,,0,40,40,159,1
,,,,,,,,,,,,,,,,,614fe0e4ec9ce4a2a4154771,32,2022-02-12_17h49.15.362,lexical_decision_task_DD_L2,2021.2.3,Win32,59.99520038,,,,,,,,,,,0.6373,0,,,,,,,,,,,,,,,,,,,,,,,,0.529947917,0.109375,0,0,0,space,,,,,,SLOPE,HB,z,y,./images/SLOPEHB.png,8.817,,,,,,,,,,,,,,,,,,,,m,0,0.6373,,,,,,,,0,41,41,114,1
,,,,,,,,,,,,,,,,,614fe0e4ec9ce4a2a4154771,32,2022-02-12_17h49.15.362,lexical_decision_task_DD_L2,2021.2.3,Win32,59.99520038,,,,,,,,,,,1.783,1,,,,,,,,,,,,,,,,,,,,,,,,0.529947917,0.109375,0,0,0,,,,,,,FOLDER,HB,m,y,./images/FOLDERHB.png,,,,,,,,,,,,,,,,,,,,,m,1,1.783,,,,,,,,0,42,42,42,1
,,,,,,,,,,,,,,,,,614fe0e4ec9ce4a2a4154771,32,2022-02-12_17h49.15.362,lexical_decision_task_DD_L2,2021.2.3,Win32,59.99520038,,,,,,,,,,,0.6733,1,,,,,,,,,,,,,,,,,,,,,,,,0.529947917,0.109375,0,0,0,,,,,,,SHORE,HB,m,y,./images/SHOREHB.png,,,,,,,,,,,,,,,,,,,,,m,1,0.6733,,,,,,,,0,43,43,12,1
,,,,,,,,,,,,,,,,,614fe0e4ec9ce4a2a4154771,32,2022-02-12_17h49.15.362,lexical_decision_task_DD_L2,2021.2.3,Win32,59.99520038,,,,,,,,,,,1.2253,0,,,,,,,,,,,,,,,,,,,,,,,,0.529947917,0.109375,0,0,0,,,,,,,MELON,LB,m,y,./images/MELONLB.png,,,,,,,,,,,,,,,,,,,,,z,0,1.2253,,,,,,,,0,44,44,22,1
,,,,,,,,,,,,,,,,,614fe0e4ec9ce4a2a4154771,32,2022-02-12_17h49.15.362,lexical_decision_task_DD_L2,2021.2.3,Win32,59.99520038,,,,,,,,,,,0.6894,0,,,,,,,,,,,,,,,,,,,,,,,,0.529947917,0.109375,0,0,0,,,,,,,CANOE,LB,z,y,./images/CANOELB.png,,,,,,,,,,,,,,,,,,,,,m,0,0.6894,,,,,,,,0,45,45,142,1
,,,,,,,,,,,,,,,,,614fe0e4ec9ce4a2a4154771,32,2022-02-12_17h49.15.362,lexical_decision_task_DD_L2,2021.2.3,Win32,59.99520038,,,,,,,,,,,0.779,1,,,,,,,,,,,,,,,,,,,,,,,,0.529947917,0.109375,0,0,0,,,,,,,PARADE,C,z,y,./images/PARADE.png,,,,,,,,,,,,,,,,,,,,,z,1,0.779,,,,,,,,0,46,46,101,1
,,,,,,,,,,,,,,,,,614fe0e4ec9ce4a2a4154771,32,2022-02-12_17h49.15.362,lexical_decision_task_DD_L2,2021.2.3,Win32,59.99520038,,,,,,,,,,,0.6953,1,,,,,,,,,,,,,,,,,,,,,,,,0.529947917,0.109375,0,0,0,,,,,,,TORCH,C,m,y,./images/TORCH.png,,,,,,,,,,,,,,,,,,,,,m,1,0.6953,,,,,,,,0,47,47,68,1
,,,,,,,,,,,,,,,,,614fe0e4ec9ce4a2a4154771,32,2022-02-12_17h49.15.362,lexical_decision_task_DD_L2,2021.2.3,Win32,59.99520038,,,,,,,,,,,0.9385,1,,,,,,,,,,,,,,,,,,,,,,,,0.529947917,0.109375,0,0,0,,,,,,,PIMPLE,C,m,y,./images/PIMPLE.png,,,,,,,,,,,,,,,,,,,,,m,1,0.9385,,,,,,,,0,48,48,71,1
,,,,,,,,,,,,,,,,,614fe0e4ec9ce4a2a4154771,32,2022-02-12_17h49.15.362,lexical_decision_task_DD_L2,2021.2.3,Win32,59.99520038,,,,,,,,,,,0.7723,0,,,,,,,,,,,,,,,,,,,,,,,,0.529947917,0.109375,0,0,0,,,,,,,SNACK,LB,m,y,./images/SNACKLB.png,,,,,,,,,,,,,,,,,,,,,z,0,0.7723,,,,,,,,0,49,49,73,1
,,,,,,,,,,,,,,,,,614fe0e4ec9ce4a2a4154771,32,2022-02-12_17h49.15.362,lexical_decision_task_DD_L2,2021.2.3,Win32,59.99520038,,,,,,,,,,,0.9237,1,,,,,,,,,,,,,,,,,,,,,,,,0.529947917,0.109375,0,0,0,,,,,,,WRIST,LB,m,y,./images/WRISTLB.png,,,,,,,,,,,,,,,,,,,,,m,1,0.9237,,,,,,,,0,50,50,25,1
,,,,,,,,,,,,,,,,,614fe0e4ec9ce4a2a4154771,32,2022-02-12_17h49.15.362,lexical_decision_task_DD_L2,2021.2.3,Win32,59.99520038,,,,,,,,,,,0.6452,1,,,,,,,,,,,,,,,,,,,,,,,,0.529947917,0.109375,0,0,0,,,,,,,SUNSET,LB,m,y,./images/SUNSETLB.png,,,,,,,,,,,,,,,,,,,,,m,1,0.6452,,,,,,,,0,51,51,82,1
,,,,,,,,,,,,,,,,,614fe0e4ec9ce4a2a4154771,32,2022-02-12_17h49.15.362,lexical_decision_task_DD_L2,2021.2.3,Win32,59.99520038,,,,,,,,,,,0.587,1,,,,,,,,,,,,,,,,,,,,,,,,0.529947917,0.109375,0,0,0,,,,,,,MAGGOT,HB,m,y,./images/MAGGOTHB.png,,,,,,,,,,,,,,,,,,,,,m,1,0.587,,,,,,,,0,52,52,33,1
,,,,,,,,,,,,,,,,,614fe0e4ec9ce4a2a4154771,32,2022-02-12_17h49.15.362,lexical_decision_task_DD_L2,2021.2.3,Win32,59.99520038,,,,,,,,,,,0.9614,0,,,,,,,,,,,,,,,,,,,,,,,,0.529947917,0.109375,0,0,0,,,,,,,BIRTH,LB,m,y,./images/BIRTHLB.png,,,,,,,,,,,,,,,,,,,,,z,0,0.9614,,,,,,,,0,53,53,37,1
,,,,,,,,,,,,,,,,,614fe0e4ec9ce4a2a4154771,32,2022-02-12_17h49.15.362,lexical_decision_task_DD_L2,2021.2.3,Win32,59.99520038,,,,,,,,,,,0.7548,1,,,,,,,,,,,,,,,,,,,,,,,,0.529947917,0.109375,0,0,0,,,,,,,POSTER,C,z,y,./images/POSTER.png,,,,,,,,,,,,,,,,,,,,,z,1,0.7548,,,,,,,,0,54,54,137,1
,,,,,,,,,,,,,,,,,614fe0e4ec9ce4a2a4154771,32,2022-02-12_17h49.15.362,lexical_decision_task_DD_L2,2021.2.3,Win32,59.99520038,,,,,,,,,,,0.627,1,,,,,,,,,,,,,,,,,,,,,,,,0.529947917,0.109375,0,0,0,,,,,,,ATTIC,HB,m,y,./images/ATTICHB.png,,,,,,,,,,,,,,,,,,,,,m,1,0.627,,,,,,,,0,55,55,27,1
,,,,,,,,,,,,,,,,,614fe0e4ec9ce4a2a4154771,32,2022-02-12_17h49.15.362,lexical_decision_task_DD_L2,2021.2.3,Win32,59.99520038,,,,,,,,,,,0.9076,1,,,,,,,,,,,,,,,,,,,,,,,,0.529947917,0.109375,0,0,0,,,,,,,STEAK,LB,z,y,./images/STEAKLB.png,,,,,,,,,,,,,,,,,,,,,z,1,0.9076,,,,,,,,0,56,56,115,1
,,,,,,,,,,,,,,,,,614fe0e4ec9ce4a2a4154771,32,2022-02-12_17h49.15.362,lexical_decision_task_DD_L2,2021.2.3,Win32,59.99520038,,,,,,,,,,,0.7307,0,,,,,,,,,,,,,,,,,,,,,,,,0.529947917,0.109375,0,0,0,,,,,,,STOVE,C,z,y,./images/STOVE.png,,,,,,,,,,,,,,,,,,,,,m,0,0.7307,,,,,,,,0,57,57,86,1
,,,,,,,,,,,,,,,,,614fe0e4ec9ce4a2a4154771,32,2022-02-12_17h49.15.362,lexical_decision_task_DD_L2,2021.2.3,Win32,59.99520038,,,,,,,,,,,0.9869,1,,,,,,,,,,,,,,,,,,,,,,,,0.529947917,0.109375,0,0,0,,,,,,,NOOSE,HB,m,y,./images/NOOSEHB.png,,,,,,,,,,,,,,,,,,,,,m,1,0.9869,,,,,,,,0,58,58,72,1
,,,,,,,,,,,,,,,,,614fe0e4ec9ce4a2a4154771,32,2022-02-12_17h49.15.362,lexical_decision_task_DD_L2,2021.2.3,Win32,59.99520038,,,,,,,,,,,0.6793,1,,,,,,,,,,,,,,,,,,,,,,,,0.529947917,0.109375,0,0,0,,,,,,,TOWEL,LB,z,y,./images/TOWELLB.png,,,,,,,,,,,,,,,,,,,,,z,1,0.6793,,,,,,,,0,59,59,85,1
,,,,,,,,,,,,,,,,,614fe0e4ec9ce4a2a4154771,32,2022-02-12_17h49.15.362,lexical_decision_task_DD_L2,2021.2.3,Win32,59.99520038,,,,,,,,,,,1.0669,1,,,,,,,,,,,,,,,,,,,,,,,,0.529947917,0.109375,0,0,0,,,,,,,FALCON,LB,m,y,./images/FALCONLB.png,,,,,,,,,,,,,,,,,,,,,m,1,1.0669,,,,,,,,0,60,60,28,1
,,,,,,,,,,,,,,,,,614fe0e4ec9ce4a2a4154771,32,2022-02-12_17h49.15.362,lexical_decision_task_DD_L2,2021.2.3,Win32,59.99520038,,,,,,,,,,,0.7429,1,,,,,,,,,,,,,,,,,,,,,,,,0.529947917,0.109375,0,0,0,,,,,,,PAINT,LB,m,y,./images/PAINTLB.png,,,,,,,,,,,,,,,,,,,,,m,1,0.7429,,,,,,,,0,61,61,7,1
,,,,,,,,,,,,,,,,,614fe0e4ec9ce4a2a4154771,32,2022-02-12_17h49.15.362,lexical_decision_task_DD_L2,2021.2.3,Win32,59.99520038,,,,,,,,,,,0.6231,0,,,,,,,,,,,,,,,,,,,,,,,,0.529947917,0.109375,0,0,0,,,,,,,POKER,LB,z,y,./images/POKERLB.png,,,,,,,,,,,,,,,,,,,,,m,0,0.6231,,,,,,,,0,62,62,151,1
,,,,,,,,,,,,,,,,,614fe0e4ec9ce4a2a4154771,32,2022-02-12_17h49.15.362,lexical_decision_task_DD_L2,2021.2.3,Win32,59.99520038,,,,,,,,,,,0.6136,0,,,,,,,,,,,,,,,,,,,,,,,,0.529947917,0.109375,0,0,0,,,,,,,BERRY,C,m,y,./images/BERRY.png,,,,,,,,,,,,,,,,,,,,,z,0,0.6136,,,,,,,,0,63,63,47,1
,,,,,,,,,,,,,,,,,614fe0e4ec9ce4a2a4154771,32,2022-02-12_17h49.15.362,lexical_decision_task_DD_L2,2021.2.3,Win32,59.99520038,,,,,,,,,,,0.7111,1,,,,,,,,,,,,,,,,,,,,,,,,0.529947917,0.109375,0,0,0,,,,,,,SAUNA,HB,z,y,./images/SAUNAHB.png,,,,,,,,,,,,,,,,,,,,,z,1,0.7111,,,,,,,,0,64,64,117,1
,,,,,,,,,,,,,,,,,614fe0e4ec9ce4a2a4154771,32,2022-02-12_17h49.15.362,lexical_decision_task_DD_L2,2021.2.3,Win32,59.99520038,,,,,,,,,,,0.7672,0,,,,,,,,,,,,,,,,,,,,,,,,0.529947917,0.109375,0,0,0,,,,,,,COLLAR,HB,z,y,./images/COLLARHB.png,,,,,,,,,,,,,,,,,,,,,m,0,0.7672,,,,,,,,0,65,65,99,1
,,,,,,,,,,,,,,,,,614fe0e4ec9ce4a2a4154771,32,2022-02-12_17h49.15.362,lexical_decision_task_DD_L2,2021.2.3,Win32,59.99520038,,,,,,,,,,,0.7306,0,,,,,,,,,,,,,,,,,,,,,,,,0.529947917,0.109375,0,0,0,,,,,,,BOILER,HB,z,y,./images/BOILERHB.png,,,,,,,,,,,,,,,,,,,,,m,0,0.7306,,,,,,,,0,66,66,120,1
,,,,,,,,,,,,,,,,,614fe0e4ec9ce4a2a4154771,32,2022-02-12_17h49.15.362,lexical_decision_task_DD_L2,2021.2.3,Win32,59.99520038,,,,,,,,,,,0.7207,0,,,,,,,,,,,,,,,,,,,,,,,,0.529947917,0.109375,0,0,0,,,,,,,WHISKY,C,z,y,./images/WHISKY.png,,,,,,,,,,,,,,,,,,,,,m,0,0.7207,,,,,,,,0,67,67,167,1
,,,,,,,,,,,,,,,,,614fe0e4ec9ce4a2a4154771,32,2022-02-12_17h49.15.362,lexical_decision_task_DD_L2,2021.2.3,Win32,59.99520038,,,,,,,,,,,0.7303,0,,,,,,,,,,,,,,,,,,,,,,,,0.529947917,0.109375,0,0,0,,,,,,,MUFFIN,LB,m,y,./images/MUFFINLB.png,,,,,,,,,,,,,,,,,,,,,z,0,0.7303,,,,,,,,0,68,68,55,1
,,,,,,,,,,,,,,,,,614fe0e4ec9ce4a2a4154771,32,2022-02-12_17h49.15.362,lexical_decision_task_DD_L2,2021.2.3,Win32,59.99520038,,,,,,,,,,,0.8519,0,,,,,,,,,,,,,,,,,,,,,,,,0.529947917,0.109375,0,0,0,,,,,,,ARTIST,LB,z,y,./images/ARTISTLB.png,,,,,,,,,,,,,,,,,,,,,m,0,0.8519,,,,,,,,0,69,69,145,1
,,,,,,,,,,,,,,,,,614fe0e4ec9ce4a2a4154771,32,2022-02-12_17h49.15.362,lexical_decision_task_DD_L2,2021.2.3,Win32,59.99520038,,,,,,,,,,,0.7134,0,,,,,,,,,,,,,,,,,,,,,,,,0.529947917,0.109375,0,0,0,,,,,,,JELLY,LB,m,y,./images/JELLYLB.png,,,,,,,,,,,,,,,,,,,,,z,0,0.7134,,,,,,,,0,70,70,64,1
,,,,,,,,,,,,,,,,,614fe0e4ec9ce4a2a4154771,32,2022-02-12_17h49.15.362,lexical_decision_task_DD_L2,2021.2.3,Win32,59.99520038,,,,,,,,,,,0.6042,1,,,,,,,,,,,,,,,,,,,,,,,,0.529947917,0.109375,0,0,0,,,,,,,MOSQUE,LB,m,y,./images/MOSQUELB.png,,,,,,,,,,,,,,,,,,,,,m,1,0.6042,,,,,,,,0,71,71,43,1
,,,,,,,,,,,,,,,,,614fe0e4ec9ce4a2a4154771,32,2022-02-12_17h49.15.362,lexical_decision_task_DD_L2,2021.2.3,Win32,59.99520038,,,,,,,,,,,0.7065,1,,,,,,,,,,,,,,,,,,,,,,,,0.529947917,0.109375,0,0,0,,,,,,,PARCEL,HB,z,y,./images/PARCELHB.png,,,,,,,,,,,,,,,,,,,,,z,1,0.7065,,,,,,,,0,72,72,102,1
,,,,,,,,,,,,,,,,,614fe0e4ec9ce4a2a4154771,32,2022-02-12_17h49.15.362,lexical_decision_task_DD_L2,2021.2.3,Win32,59.99520038,,,,,,,,,,,0.6568,1,,,,,,,,,,,,,,,,,,,,,,,,0.529947917,0.109375,0,0,0,,,,,,,KIDNEY,HB,m,y,./images/KIDNEYHB.png,,,,,,,,,,,,,,,,,,,,,m,1,0.6568,,,,,,,,0,73,73,21,1
,,,,,,,,,,,,,,,,,614fe0e4ec9ce4a2a4154771,32,2022-02-12_17h49.15.362,lexical_decision_task_DD_L2,2021.2.3,Win32,59.99520038,,,,,,,,,,,0.9306,1,,,,,,,,,,,,,,,,,,,,,,,,0.529947917,0.109375,0,0,0,,,,,,,CLOWN,LB,z,y,./images/CLOWNLB.png,,,,,,,,,,,,,,,,,,,,,z,1,0.9306,,,,,,,,0,74,74,106,1
,,,,,,,,,,,,,,,,,614fe0e4ec9ce4a2a4154771,32,2022-02-12_17h49.15.362,lexical_decision_task_DD_L2,2021.2.3,Win32,59.99520038,,,,,,,,,,,0.7948,1,,,,,,,,,,,,,,,,,,,,,,,,0.529947917,0.109375,0,0,0,,,,,,,RAZOR,LB,z,y,./images/RAZORLB.png,,,,,,,,,,,,,,,,,,,,,z,1,0.7948,,,,,,,,0,75,75,118,1
,,,,,,,,,,,,,,,,,614fe0e4ec9ce4a2a4154771,32,2022-02-12_17h49.15.362,lexical_decision_task_DD_L2,2021.2.3,Win32,59.99520038,,,,,,,,,,,1.1891,0,,,,,,,,,,,,,,,,,,,,,,,,0.529947917,0.109375,0,0,0,,,,,,,TIGER,LB,z,y,./images/TIGERLB.png,,,,,,,,,,,,,,,,,,,,,m,0,1.1891,,,,,,,,0,76,76,121,1
,,,,,,,,,,,,,,,,,614fe0e4ec9ce4a2a4154771,32,2022-02-12_17h49.15.362,lexical_decision_task_DD_L2,2021.2.3,Win32,59.99520038,,,,,,,,,,,0.6811,1,,,,,,,,,,,,,,,,,,,,,,,,0.529947917,0.109375,0,0,0,,,,,,,MEDAL,C,z,y,./images/MEDAL.png,,,,,,,,,,,,,,,,,,,,,z,1,0.6811,,,,,,,,0,77,77,95,1
,,,,,,,,,,,,,,,,,614fe0e4ec9ce4a2a4154771,32,2022-02-12_17h49.15.362,lexical_decision_task_DD_L2,2021.2.3,Win32,59.99520038,,,,,,,,,,,0.7061,1,,,,,,,,,,,,,,,,,,,,,,,,0.529947917,0.109375,0,0,0,,,,,,,BANNER,LB,m,y,./images/BANNERLB.png,,,,,,,,,,,,,,,,,,,,,m,1,0.7061,,,,,,,,0,78,78,52,1
,,,,,,,,,,,,,,,,,614fe0e4ec9ce4a2a4154771,32,2022-02-12_17h49.15.362,lexical_decision_task_DD_L2,2021.2.3,Win32,59.99520038,,,,,,,,,,,0.6048,1,,,,,,,,,,,,,,,,,,,,,,,,0.529947917,0.109375,0,0,0,,,,,,,SCREW,HB,m,y,./images/SCREWHB.png,,,,,,,,,,,,,,,,,,,,,m,1,0.6048,,,,,,,,0,79,79,24,1
,,,,,,,,,,,,,,,,,614fe0e4ec9ce4a2a4154771,32,2022-02-12_17h49.15.362,lexical_decision_task_DD_L2,2021.2.3,Win32,59.99520038,,,,,,,,,,,1.3283,0,,,,,,,,,,,,,,,,,,,,,,,,0.529947917,0.109375,0,0,0,,,,,,,STATUE,HB,z,y,./images/STATUEHB.png,,,,,,,,,,,,,,,,,,,,,m,0,1.3283,,,,,,,,0,80,80,150,1
,,,,,,,,,,,,,,,,,614fe0e4ec9ce4a2a4154771,32,2022-02-12_17h49.15.362,lexical_decision_task_DD_L2,2021.2.3,Win32,59.99520038,,,,,,,,,,,0.631,0,,,,,,,,,,,,,,,,,,,,,,,,0.529947917,0.109375,0,0,0,,,,,,,MUMMY,LB,z,y,./images/MUMMYLB.png,,,,,,,,,,,,,,,,,,,,,m,0,0.631,,,,,,,,0,81,81,130,1
,,,,,,,,,,,,,,,,,614fe0e4ec9ce4a2a4154771,32,2022-02-12_17h49.15.362,lexical_decision_task_DD_L2,2021.2.3,Win32,59.99520038,,,,,,,,,,,0.8408,0,,,,,,,,,,,,,,,,,,,,,,,,0.529947917,0.109375,0,0,0,,,,,,,FINGER,HB,m,y,./images/FINGERHB.png,,,,,,,,,,,,,,,,,,,,,z,0,0.8408,,,,,,,,0,82,82,3,1
,,,,,,,,,,,,,,,,,614fe0e4ec9ce4a2a4154771,32,2022-02-12_17h49.15.362,lexical_decision_task_DD_L2,2021.2.3,Win32,59.99520038,,,,,,,,,,,0.8748,0,,,,,,,,,,,,,,,,,,,,,,,,0.529947917,0.109375,0,0,0,space,,,,,,DRILL,HB,z,y,./images/DRILLHB.png,2.8494,,,,,,,,,,,,,,,,,,,,m,0,0.8748,,,,,,,,0,83,83,165,1
,,,,,,,,,,,,,,,,,614fe0e4ec9ce4a2a4154771,32,2022-02-12_17h49.15.362,lexical_decision_task_DD_L2,2021.2.3,Win32,59.99520038,,,,,,,,,,,0.768,1,,,,,,,,,,,,,,,,,,,,,,,,0.529947917,0.109375,0,0,0,,,,,,,RHINO,HB,m,y,./images/RHINOHB.png,,,,,,,,,,,,,,,,,,,,,m,1,0.768,,,,,,,,0,84,84,9,1
,,,,,,,,,,,,,,,,,614fe0e4ec9ce4a2a4154771,32,2022-02-12_17h49.15.362,lexical_decision_task_DD_L2,2021.2.3,Win32,59.99520038,,,,,,,,,,,0.8784,1,,,,,,,,,,,,,,,,,,,,,,,,0.529947917,0.109375,0,0,0,,,,,,,SPORT,HB,m,y,./images/SPORTHB.png,,,,,,,,,,,,,,,,,,,,,m,1,0.8784,,,,,,,,0,85,85,48,1
,,,,,,,,,,,,,,,,,614fe0e4ec9ce4a2a4154771,32,2022-02-12_17h49.15.362,lexical_decision_task_DD_L2,2021.2.3,Win32,59.99520038,,,,,,,,,,,0.8162,1,,,,,,,,,,,,,,,,,,,,,,,,0.529947917,0.109375,0,0,0,,,,,,,POODLE,HB,m,y,./images/POODLEHB.png,,,,,,,,,,,,,,,,,,,,,m,1,0.8162,,,,,,,,0,86,86,81,1
,,,,,,,,,,,,,,,,,614fe0e4ec9ce4a2a4154771,32,2022-02-12_17h49.15.362,lexical_decision_task_DD_L2,2021.2.3,Win32,59.99520038,,,,,,,,,,,0.8468,1,,,,,,,,,,,,,,,,,,,,,,,,0.529947917,0.109375,0,0,0,,,,,,,BUBBLE,C,z,y,./images/BUBBLE.png,,,,,,,,,,,,,,,,,,,,,z,1,0.8468,,,,,,,,0,87,87,155,1
,,,,,,,,,,,,,,,,,614fe0e4ec9ce4a2a4154771,32,2022-02-12_17h49.15.362,lexical_decision_task_DD_L2,2021.2.3,Win32,59.99520038,,,,,,,,,,,0.6316,0,,,,,,,,,,,,,,,,,,,,,,,,0.529947917,0.109375,0,0,0,,,,,,,BANANA,LB,z,y,./images/BANANALB.png,,,,,,,,,,,,,,,,,,,,,m,0,0.6316,,,,,,,,0,88,88,154,1
,,,,,,,,,,,,,,,,,614fe0e4ec9ce4a2a4154771,32,2022-02-12_17h49.15.362,lexical_decision_task_DD_L2,2021.2.3,Win32,59.99520038,,,,,,,,,,,0.5915,1,,,,,,,,,,,,,,,,,,,,,,,,0.529947917,0.109375,0,0,0,,,,,,,GRAIN,HB,m,y,./images/GRAINHB.png,,,,,,,,,,,,,,,,,,,,,m,1,0.5915,,,,,,,,0,89,89,75,1
,,,,,,,,,,,,,,,,,614fe0e4ec9ce4a2a4154771,32,2022-02-12_17h49.15.362,lexical_decision_task_DD_L2,2021.2.3,Win32,59.99520038,,,,,,,,,,,0.7087,0,,,,,,,,,,,,,,,,,,,,,,,,0.529947917,0.109375,0,0,0,,,,,,,PACKET,C,m,y,./images/PACKET.png,,,,,,,,,,,,,,,,,,,,,z,0,0.7087,,,,,,,,0,90,90,56,1
,,,,,,,,,,,,,,,,,614fe0e4ec9ce4a2a4154771,32,2022-02-12_17h49.15.362,lexical_decision_task_DD_L2,2021.2.3,Win32,59.99520038,,,,,,,,,,,0.6555,1,,,,,,,,,,,,,,,,,,,,,,,,0.529947917,0.109375,0,0,0,,,,,,,LLAMA,C,z,y,./images/LLAMA.png,,,,,,,,,,,,,,,,,,,,,z,1,0.6555,,,,,,,,0,91,91,119,1
,,,,,,,,,,,,,,,,,614fe0e4ec9ce4a2a4154771,32,2022-02-12_17h49.15.362,lexical_decision_task_DD_L2,2021.2.3,Win32,59.99520038,,,,,,,,,,,0.6411,1,,,,,,,,,,,,,,,,,,,,,,,,0.529947917,0.109375,0,0,0,,,,,,,SHELF,HB,m,y,./images/SHELFHB.png,,,,,,,,,,,,,,,,,,,,,m,1,0.6411,,,,,,,,0,92,92,39,1
,,,,,,,,,,,,,,,,,614fe0e4ec9ce4a2a4154771,32,2022-02-12_17h49.15.362,lexical_decision_task_DD_L2,2021.2.3,Win32,59.99520038,,,,,,,,,,,0.6618,1,,,,,,,,,,,,,,,,,,,,,,,,0.529947917,0.109375,0,0,0,,,,,,,SAILOR,LB,m,y,./images/SAILORLB.png,,,,,,,,,,,,,,,,,,,,,m,1,0.6618,,,,,,,,0,93,93,67,1
,,,,,,,,,,,,,,,,,614fe0e4ec9ce4a2a4154771,32,2022-02-12_17h49.15.362,lexical_decision_task_DD_L2,2021.2.3,Win32,59.99520038,,,,,,,,,,,0.8558,1,,,,,,,,,,,,,,,,,,,,,,,,0.529947917,0.109375,0,0,0,,,,,,,BROOM,HB,z,y,./images/BROOMHB.png,,,,,,,,,,,,,,,,,,,,,z,1,0.8558,,,,,,,,0,94,94,162,1
,,,,,,,,,,,,,,,,,614fe0e4ec9ce4a2a4154771,32,2022-02-12_17h49.15.362,lexical_decision_task_DD_L2,2021.2.3,Win32,59.99520038,,,,,,,,,,,12.4651,0,,,,,,,,,,,,,,,,,,,,,,,,0.114583333,-0.3203125,0,0,0,,,,,,,MOTOR,LB,m,y,./images/MOTORLB.png,,,,,,,,,,,,,,,,,,,,,z,0,12.4651,0.114583333,-0.3203125,1,0,0,12.1488,,0,95,95,13,1
,,,,,,,,,,,,,,,,,614fe0e4ec9ce4a2a4154771,32,2022-02-12_17h49.15.362,lexical_decision_task_DD_L2,2021.2.3,Win32,59.99520038,,,,,,,,,,,1.4139,1,,,,,,,,,,,,,,,,,,,,,,,,0.34765625,0.0234375,0,0,0,,,,,,,CHAIN,HB,z,y,./images/CHAINHB.png,,,,,,,,,,,,,,,,,,,,,z,1,1.4139,,,,,,,,0,96,96,126,1
,,,,,,,,,,,,,,,,,614fe0e4ec9ce4a2a4154771,32,2022-02-12_17h49.15.362,lexical_decision_task_DD_L2,2021.2.3,Win32,59.99520038,,,,,,,,,,,1.0596,1,,,,,,,,,,,,,,,,,,,,,,,,0.34765625,0.0234375,0,0,0,,,,,,,CLOTH,C,z,y,./images/CLOTH.png,,,,,,,,,,,,,,,,,,,,,z,1,1.0596,,,,,,,,0,97,97,107,1
,,,,,,,,,,,,,,,,,614fe0e4ec9ce4a2a4154771,32,2022-02-12_17h49.15.362,lexical_decision_task_DD_L2,2021.2.3,Win32,59.99520038,,,,,,,,,,,0.7413,1,,,,,,,,,,,,,,,,,,,,,,,,0.34765625,0.0234375,0,0,0,,,,,,,MALLET,C,m,y,./images/MALLET.png,,,,,,,,,,,,,,,,,,,,,m,1,0.7413,,,,,,,,0,98,98,50,1
,,,,,,,,,,,,,,,,,614fe0e4ec9ce4a2a4154771,32,2022-02-12_17h49.15.362,lexical_decision_task_DD_L2,2021.2.3,Win32,59.99520038,,,,,,,,,,,0.7888,1,,,,,,,,,,,,,,,,,,,,,,,,0.34765625,0.0234375,0,0,0,,,,,,,SKIING,C,m,y,./images/SKIING.png,,,,,,,,,,,,,,,,,,,,,m,1,0.7888,,,,,,,,0,99,99,17,1
,,,,,,,,,,,,,,,,,614fe0e4ec9ce4a2a4154771,32,2022-02-12_17h49.15.362,lexical_decision_task_DD_L2,2021.2.3,Win32,59.99520038,,,,,,,,,,,0.8002,1,,,,,,,,,,,,,,,,,,,,,,,,0.34765625,0.0234375,0,0,0,,,,,,,CRADLE,C,m,y,./images/CRADLE.png,,,,,,,,,,,,,,,,,,,,,m,1,0.8002,,,,,,,,0,100,100,20,1
,,,,,,,,,,,,,,,,,614fe0e4ec9ce4a2a4154771,32,2022-02-12_17h49.15.362,lexical_decision_task_DD_L2,2021.2.3,Win32,59.99520038,,,,,,,,,,,0.7752,0,,,,,,,,,,,,,,,,,,,,,,,,0.34765625,0.0234375,0,0,0,,,,,,,WAGON,LB,z,y,./images/WAGONLB.png,,,,,,,,,,,,,,,,,,,,,m,0,0.7752,,,,,,,,0,101,101,91,1
,,,,,,,,,,,,,,,,,614fe0e4ec9ce4a2a4154771,32,2022-02-12_17h49.15.362,lexical_decision_task_DD_L2,2021.2.3,Win32,59.99520038,,,,,,,,,,,1.5639,1,,,,,,,,,,,,,,,,,,,,,,,,0.34765625,0.0234375,0,0,0,,,,,,,CLIFF,C,z,y,./images/CLIFF.png,,,,,,,,,,,,,,,,,,,,,z,1,1.5639,,,,,,,,0,102,102,92,1
,,,,,,,,,,,,,,,,,614fe0e4ec9ce4a2a4154771,32,2022-02-12_17h49.15.362,lexical_decision_task_DD_L2,2021.2.3,Win32,59.99520038,,,,,,,,,,,0.6968,0,,,,,,,,,,,,,,,,,,,,,,,,0.34765625,0.0234375,0,0,0,,,,,,,THROAT,HB,m,y,./images/THROATHB.png,,,,,,,,,,,,,,,,,,,,,z,0,0.6968,,,,,,,,0,103,103,36,1
,,,,,,,,,,,,,,,,,614fe0e4ec9ce4a2a4154771,32,2022-02-12_17h49.15.362,lexical_decision_task_DD_L2,2021.2.3,Win32,59.99520038,,,,,,,,,,,0.7301,1,,,,,,,,,,,,,,,,,,,,,,,,0.34765625,0.0234375,0,0,0,,,,,,,PLANK,LB,m,y,./images/PLANKLB.png,,,,,,,,,,,,,,,,,,,,,m,1,0.7301,,,,,,,,0,104,104,1,1
,,,,,,,,,,,,,,,,,614fe0e4ec9ce4a2a4154771,32,2022-02-12_17h49.15.362,lexical_decision_task_DD_L2,2021.2.3,Win32,59.99520038,,,,,,,,,,,0.6458,1,,,,,,,,,,,,,,,,,,,,,,,,0.34765625,0.0234375,0,0,0,,,,,,,FENCE,C,z,y,./images/FENCE.png,,,,,,,,,,,,,,,,,,,,,z,1,0.6458,,,,,,,,0,105,105,98,1
,,,,,,,,,,,,,,,,,614fe0e4ec9ce4a2a4154771,32,2022-02-12_17h49.15.362,lexical_decision_task_DD_L2,2021.2.3,Win32,59.99520038,,,,,,,,,,,0.5692,1,,,,,,,,,,,,,,,,,,,,,,,,0.34765625,0.0234375,0,0,0,,,,,,,ALLEY,LB,z,y,./images/ALLEYLB.png,,,,,,,,,,,,,,,,,,,,,z,1,0.5692,,,,,,,,0,106,106,139,1
,,,,,,,,,,,,,,,,,614fe0e4ec9ce4a2a4154771,32,2022-02-12_17h49.15.362,lexical_decision_task_DD_L2,2021.2.3,Win32,59.99520038,,,,,,,,,,,0.7036,1,,,,,,,,,,,,,,,,,,,,,,,,0.34765625,0.0234375,0,0,0,,,,,,,CURRY,HB,z,y,./images/CURRYHB.png,,,,,,,,,,,,,,,,,,,,,z,1,0.7036,,,,,,,,0,107,107,144,1
,,,,,,,,,,,,,,,,,614fe0e4ec9ce4a2a4154771,32,2022-02-12_17h49.15.362,lexical_decision_task_DD_L2,2021.2.3,Win32,59.99520038,,,,,,,,,,,1.2615,1,,,,,,,,,,,,,,,,,,,,,,,,0.34765625,0.0234375,0,0,0,,,,,,,ENGINE,C,z,y,./images/ENGINE.png,,,,,,,,,,,,,,,,,,,,,z,1,1.2615,,,,,,,,0,108,108,122,1
,,,,,,,,,,,,,,,,,614fe0e4ec9ce4a2a4154771,32,2022-02-12_17h49.15.362,lexical_decision_task_DD_L2,2021.2.3,Win32,59.99520038,,,,,,,,,,,0.7563,1,,,,,,,,,,,,,,,,,,,,,,,,0.34765625,0.0234375,0,0,0,,,,,,,GARDEN,LB,z,y,./images/GARDENLB.png,,,,,,,,,,,,,,,,,,,,,z,1,0.7563,,,,,,,,0,109,109,94,1
,,,,,,,,,,,,,,,,,614fe0e4ec9ce4a2a4154771,32,2022-02-12_17h49.15.362,lexical_decision_task_DD_L2,2021.2.3,Win32,59.99520038,,,,,,,,,,,0.7543,1,,,,,,,,,,,,,,,,,,,,,,,,0.34765625,0.0234375,0,0,0,,,,,,,CASINO,LB,z,y,./images/CASINOLB.png,,,,,,,,,,,,,,,,,,,,,z,1,0.7543,,,,,,,,0,110,110,112,1
,,,,,,,,,,,,,,,,,614fe0e4ec9ce4a2a4154771,32,2022-02-12_17h49.15.362,lexical_decision_task_DD_L2,2021.2.3,Win32,59.99520038,,,,,,,,,,,0.5506,0,,,,,,,,,,,,,,,,,,,,,,,,0.34765625,0.0234375,0,0,0,,,,,,,ARROW,HB,z,y,./images/ARROWHB.png,,,,,,,,,,,,,,,,,,,,,m,0,0.5506,,,,,,,,0,111,111,153,1
,,,,,,,,,,,,,,,,,614fe0e4ec9ce4a2a4154771,32,2022-02-12_17h49.15.362,lexical_decision_task_DD_L2,2021.2.3,Win32,59.99520038,,,,,,,,,,,0.6972,1,,,,,,,,,,,,,,,,,,,,,,,,0.34765625,0.0234375,0,0,0,,,,,,,PEBBLE,LB,z,y,./images/PEBBLELB.png,,,,,,,,,,,,,,,,,,,,,z,1,0.6972,,,,,,,,0,112,112,166,1
,,,,,,,,,,,,,,,,,614fe0e4ec9ce4a2a4154771,32,2022-02-12_17h49.15.362,lexical_decision_task_DD_L2,2021.2.3,Win32,59.99520038,,,,,,,,,,,0.6889,1,,,,,,,,,,,,,,,,,,,,,,,,0.34765625,0.0234375,0,0,0,,,,,,,CLOUD,C,z,y,./images/CLOUD.png,,,,,,,,,,,,,,,,,,,,,z,1,0.6889,,,,,,,,0,113,113,110,1
,,,,,,,,,,,,,,,,,614fe0e4ec9ce4a2a4154771,32,2022-02-12_17h49.15.362,lexical_decision_task_DD_L2,2021.2.3,Win32,59.99520038,,,,,,,,,,,0.6203,1,,,,,,,,,,,,,,,,,,,,,,,,0.34765625,0.0234375,0,0,0,,,,,,,BAMBOO,C,z,y,./images/BAMBOO.png,,,,,,,,,,,,,,,,,,,,,z,1,0.6203,,,,,,,,0,114,114,89,1
,,,,,,,,,,,,,,,,,614fe0e4ec9ce4a2a4154771,32,2022-02-12_17h49.15.362,lexical_decision_task_DD_L2,2021.2.3,Win32,59.99520038,,,,,,,,,,,0.6203,1,,,,,,,,,,,,,,,,,,,,,,,,0.34765625,0.0234375,0,0,0,,,,,,,BAKER,HB,z,y,./images/BAKERHB.png,,,,,,,,,,,,,,,,,,,,,z,1,0.6203,,,,,,,,0,115,115,147,1
,,,,,,,,,,,,,,,,,614fe0e4ec9ce4a2a4154771,32,2022-02-12_17h49.15.362,lexical_decision_task_DD_L2,2021.2.3,Win32,59.99520038,,,,,,,,,,,0.6555,1,,,,,,,,,,,,,,,,,,,,,,,,0.34765625,0.0234375,0,0,0,,,,,,,SQUARE,HB,m,y,./images/SQUAREHB.png,,,,,,,,,,,,,,,,,,,,,m,1,0.6555,,,,,,,,0,116,116,6,1
,,,,,,,,,,,,,,,,,614fe0e4ec9ce4a2a4154771,32,2022-02-12_17h49.15.362,lexical_decision_task_DD_L2,2021.2.3,Win32,59.99520038,,,,,,,,,,,0.5581,0,,,,,,,,,,,,,,,,,,,,,,,,0.34765625,0.0234375,0,0,0,,,,,,,GRAPE,LB,z,y,./images/GRAPELB.png,,,,,,,,,,,,,,,,,,,,,m,0,0.5581,,,,,,,,0,117,117,100,1
,,,,,,,,,,,,,,,,,614fe0e4ec9ce4a2a4154771,32,2022-02-12_17h49.15.362,lexical_decision_task_DD_L2,2021.2.3,Win32,59.99520038,,,,,,,,,,,0.8742,1,,,,,,,,,,,,,,,,,,,,,,,,0.34765625,0.0234375,0,0,0,,,,,,,DONKEY,LB,z,y,./images/DONKEYLB.png,,,,,,,,,,,,,,,,,,,,,z,1,0.8742,,,,,,,,0,118,118,103,1
,,,,,,,,,,,,,,,,,614fe0e4ec9ce4a2a4154771,32,2022-02-12_17h49.15.362,lexical_decision_task_DD_L2,2021.2.3,Win32,59.99520038,,,,,,,,,,,0.65,0,,,,,,,,,,,,,,,,,,,,,,,,0.34765625,0.0234375,0,0,0,,,,,,,CARPET,C,m,y,./images/CARPET.png,,,,,,,,,,,,,,,,,,,,,z,0,0.65,,,,,,,,0,119,119,53,1
,,,,,,,,,,,,,,,,,614fe0e4ec9ce4a2a4154771,32,2022-02-12_17h49.15.362,lexical_decision_task_DD_L2,2021.2.3,Win32,59.99520038,,,,,,,,,,,0.6264,1,,,,,,,,,,,,,,,,,,,,,,,,0.34765625,0.0234375,0,0,0,,,,,,,PISTOL,C,z,y,./images/PISTOL.png,,,,,,,,,,,,,,,,,,,,,z,1,0.6264,,,,,,,,0,120,120,113,1
,,,,,,,,,,,,,,,,,614fe0e4ec9ce4a2a4154771,32,2022-02-12_17h49.15.362,lexical_decision_task_DD_L2,2021.2.3,Win32,59.99520038,,,,,,,,,,,0.6976,1,,,,,,,,,,,,,,,,,,,,,,,,0.34765625,0.0234375,0,0,0,,,,,,,CANDLE,LB,m,y,./images/CANDLELB.png,,,,,,,,,,,,,,,,,,,,,m,1,0.6976,,,,,,,,0,121,121,61,1
,,,,,,,,,,,,,,,,,614fe0e4ec9ce4a2a4154771,32,2022-02-12_17h49.15.362,lexical_decision_task_DD_L2,2021.2.3,Win32,59.99520038,,,,,,,,,,,0.9071,1,,,,,,,,,,,,,,,,,,,,,,,,0.34765625,0.0234375,0,0,0,,,,,,,BRIDE,LB,z,y,./images/BRIDELB.png,,,,,,,,,,,,,,,,,,,,,z,1,0.9071,,,,,,,,0,122,122,148,1
,,,,,,,,,,,,,,,,,614fe0e4ec9ce4a2a4154771,32,2022-02-12_17h49.15.362,lexical_decision_task_DD_L2,2021.2.3,Win32,59.99520038,,,,,,,,,,,0.6994,1,,,,,,,,,,,,,,,,,,,,,,,,0.34765625,0.0234375,0,0,0,,,,,,,CRUST,LB,m,y,./images/CRUSTLB.png,,,,,,,,,,,,,,,,,,,,,m,1,0.6994,,,,,,,,0,123,123,79,1
,,,,,,,,,,,,,,,,,614fe0e4ec9ce4a2a4154771,32,2022-02-12_17h49.15.362,lexical_decision_task_DD_L2,2021.2.3,Win32,59.99520038,,,,,,,,,,,1.0733,1,,,,,,,,,,,,,,,,,,,,,,,,0.34765625,0.0234375,0,0,0,,,,,,,BASKET,C,z,y,./images/BASKET.png,,,,,,,,,,,,,,,,,,,,,z,1,1.0733,,,,,,,,0,124,124,128,1
,,,,,,,,,,,,,,,,,614fe0e4ec9ce4a2a4154771,32,2022-02-12_17h49.15.362,lexical_decision_task_DD_L2,2021.2.3,Win32,59.99520038,,,,,,,,,,,1.0083,1,,,,,,,,,,,,,,,,,,,,,,,,0.34765625,0.0234375,0,0,0,space,,,,,,PLANET,C,z,y,./images/PLANET.png,3.9614,,,,,,,,,,,,,,,,,,,,z,1,1.0083,,,,,,,,0,125,125,164,1
,,,,,,,,,,,,,,,,,614fe0e4ec9ce4a2a4154771,32,2022-02-12_17h49.15.362,lexical_decision_task_DD_L2,2021.2.3,Win32,59.99520038,,,,,,,,,,,1.2397,1,,,,,,,,,,,,,,,,,,,,,,,,0.34765625,0.0234375,0,0,0,,,,,,,PENCE,LB,m,y,./images/PENCELB.png,,,,,,,,,,,,,,,,,,,,,m,1,1.2397,,,,,,,,0,126,126,16,1
,,,,,,,,,,,,,,,,,614fe0e4ec9ce4a2a4154771,32,2022-02-12_17h49.15.362,lexical_decision_task_DD_L2,2021.2.3,Win32,59.99520038,,,,,,,,,,,0.6317,1,,,,,,,,,,,,,,,,,,,,,,,,0.34765625,0.0234375,0,0,0,,,,,,,BUNNY,LB,z,y,./images/BUNNYLB.png,,,,,,,,,,,,,,,,,,,,,z,1,0.6317,,,,,,,,0,127,127,97,1
,,,,,,,,,,,,,,,,,614fe0e4ec9ce4a2a4154771,32,2022-02-12_17h49.15.362,lexical_decision_task_DD_L2,2021.2.3,Win32,59.99520038,,,,,,,,,,,0.6402,1,,,,,,,,,,,,,,,,,,,,,,,,0.34765625,0.0234375,0,0,0,,,,,,,FLESH,HB,z,y,./images/FLESHHB.png,,,,,,,,,,,,,,,,,,,,,z,1,0.6402,,,,,,,,0,128,128,108,1
,,,,,,,,,,,,,,,,,614fe0e4ec9ce4a2a4154771,32,2022-02-12_17h49.15.362,lexical_decision_task_DD_L2,2021.2.3,Win32,59.99520038,,,,,,,,,,,0.5486,1,,,,,,,,,,,,,,,,,,,,,,,,0.34765625,0.0234375,0,0,0,,,,,,,DOUGH,LB,m,y,./images/DOUGHLB.png,,,,,,,,,,,,,,,,,,,,,m,1,0.5486,,,,,,,,0,129,129,19,1
,,,,,,,,,,,,,,,,,614fe0e4ec9ce4a2a4154771,32,2022-02-12_17h49.15.362,lexical_decision_task_DD_L2,2021.2.3,Win32,59.99520038,,,,,,,,,,,0.7132,1,,,,,,,,,,,,,,,,,,,,,,,,0.34765625,0.0234375,0,0,0,,,,,,,SPINE,C,z,y,./images/SPINE.png,,,,,,,,,,,,,,,,,,,,,z,1,0.7132,,,,,,,,0,130,130,149,1
,,,,,,,,,,,,,,,,,614fe0e4ec9ce4a2a4154771,32,2022-02-12_17h49.15.362,lexical_decision_task_DD_L2,2021.2.3,Win32,59.99520038,,,,,,,,,,,0.6984,1,,,,,,,,,,,,,,,,,,,,,,,,0.34765625,0.0234375,0,0,0,,,,,,,COOKER,HB,m,y,./images/COOKERHB.png,,,,,,,,,,,,,,,,,,,,,m,1,0.6984,,,,,,,,0,131,131,69,1
,,,,,,,,,,,,,,,,,614fe0e4ec9ce4a2a4154771,32,2022-02-12_17h49.15.362,lexical_decision_task_DD_L2,2021.2.3,Win32,59.99520038,,,,,,,,,,,0.6396,1,,,,,,,,,,,,,,,,,,,,,,,,0.34765625,0.0234375,0,0,0,,,,,,,JUNGLE,C,m,y,./images/JUNGLE.png,,,,,,,,,,,,,,,,,,,,,m,1,0.6396,,,,,,,,0,132,132,83,1
,,,,,,,,,,,,,,,,,614fe0e4ec9ce4a2a4154771,32,2022-02-12_17h49.15.362,lexical_decision_task_DD_L2,2021.2.3,Win32,59.99520038,,,,,,,,,,,0.6805,0,,,,,,,,,,,,,,,,,,,,,,,,0.34765625,0.0234375,0,0,0,,,,,,,TRIPOD,HB,m,y,./images/TRIPODHB.png,,,,,,,,,,,,,,,,,,,,,z,0,0.6805,,,,,,,,0,133,133,54,1
,,,,,,,,,,,,,,,,,614fe0e4ec9ce4a2a4154771,32,2022-02-12_17h49.15.362,lexical_decision_task_DD_L2,2021.2.3,Win32,59.99520038,,,,,,,,,,,0.6163,1,,,,,,,,,,,,,,,,,,,,,,,,0.34765625,0.0234375,0,0,0,,,,,,,LIZARD,C,m,y,./images/LIZARD.png,,,,,,,,,,,,,,,,,,,,,m,1,0.6163,,,,,,,,0,134,134,44,1
,,,,,,,,,,,,,,,,,614fe0e4ec9ce4a2a4154771,32,2022-02-12_17h49.15.362,lexical_decision_task_DD_L2,2021.2.3,Win32,59.99520038,,,,,,,,,,,0.5913,1,,,,,,,,,,,,,,,,,,,,,,,,0.34765625,0.0234375,0,0,0,,,,,,,COUCH,C,m,y,./images/COUCH.png,,,,,,,,,,,,,,,,,,,,,m,1,0.5913,,,,,,,,0,135,135,77,1
