key_resp.keys,instr_done_touch.x,instr_done_touch.y,instr_done_touch.leftButton,instr_done_touch.midButton,instr_done_touch.rightButton,instr_done_touch.clicked_name,instruction_pages.thisRepN,instruction_pages.thisTrialN,instruction_pages.thisN,instruction_pages.thisIndex,instruction_pages.ran,pageN,phase,instruct_text,has_image,instruct_image,participant,age,date,expName,psychopyVersion,OS,frameRate,response.keys,response.corr,touch_resp.x,touch_resp.y,touch_resp.leftButton,touch_resp.midButton,touch_resp.rightButton,touch_resp.time,touch_resp.clicked_name,rt,corr,practrials.thisRepN,practrials.thisTrialN,practrials.thisN,practrials.thisIndex,practrials.ran,TrialID,Target,corrAns,end_of_practice_trials_pages.thisRepN,end_of_practice_trials_pages.thisTrialN,end_of_practice_trials_pages.thisN,end_of_practice_trials_pages.thisIndex,end_of_practice_trials_pages.ran,key_resp_2.keys,key_resp_2.corr,targ_click.x,targ_click.y,targ_click.leftButton,targ_click.midButton,targ_click.rightButton,targ_click.time,targ_click.clicked_name,break_done_touch.x,break_done_touch.y,break_done_touch.leftButton,break_done_touch.midButton,break_done_touch.rightButton,break_done_keyboard.keys,maintrials.thisRepN,maintrials.thisTrialN,maintrials.thisN,maintrials.thisIndex,maintrials.ran,string,blur,study,lex,stim_path,break_done_touch.clicked_name,mouse_2.x,mouse_2.y,mouse_2.leftButton,mouse_2.midButton,mouse_2.rightButton,mouse_2.clicked_name,slider.response,slider.rt,trials.thisRepN,trials.thisTrialN,trials.thisN,trials.thisIndex,trials.ran,test_instructions.thisRepN,test_instructions.thisTrialN,test_instructions.thisN,test_instructions.thisIndex,test_instructions.ran,key_resp_3.keys,key_resp_3.corr,test_click.x,test_click.y,test_click.leftButton,test_click.midButton,test_click.rightButton,test_click.time,test_click.clicked_name,test_phase.thisRepN,test_phase.thisTrialN,test_phase.thisN,test_phase.thisIndex,test_phase.ran
,-0.033333333,-0.4375,1,0,0,instr_done_button,0,0,0,0,1,1,instructions,"INSTRUCTIONS
At the start of each trial, look at the plus sign  (+) in the center of the screen.  This tells you that a trial is about to begin and where to look. Second, the plus sign will disappear and a string of letters will appear. Your task is to determine if the string of letters is a word or not. If the item is a word press the M key (on keyboard)  or touch the word button (phone/tablet).  If the item is not a word,  press the  Z key (on keyboard)  or touch the nonword button (on phone/tablet). 
Press the space bar or touch  continue.",0,,615542e63024889a5c432983,30,2022-02-12_17h42.55.075,lexical_decision_task_DD_L4,2021.2.3,Linux aarch64,59.80861244,,,,,,,,,,,,,,,,,,,,,,,,,,,,,,,,,,,,,,,,,,,,,,,,,,,,,,,,,,,,,,,,,,,,,,,,,,,,,,,,,,
,0.038888889,-0.404166667,1,0,0,instr_done_button,0,1,1,1,1,2,instructions,"If your device has a keyboard, press the 'Z' key for nonwords and the 'M' key for words.





Press the space bar or touch the button below to continue.",0,keyboard-example.gif,615542e63024889a5c432983,30,2022-02-12_17h42.55.075,lexical_decision_task_DD_L4,2021.2.3,Linux aarch64,59.80861244,,,,,,,,,,,,,,,,,,,,,,,,,,,,,,,,,,,,,,,,,,,,,,,,,,,,,,,,,,,,,,,,,,,,,,,,,,,,,,,,,,
,0.036111111,-0.4125,1,0,0,instr_done_button,0,2,2,2,1,3,instructions,"If you are using a touchscreen only device, use the buttons on the screen. Do not use the mouse.





Press the space bar or touch the button below to continue.",0,touchscreen-example.gif,615542e63024889a5c432983,30,2022-02-12_17h42.55.075,lexical_decision_task_DD_L4,2021.2.3,Linux aarch64,59.80861244,,,,,,,,,,,,,,,,,,,,,,,,,,,,,,,,,,,,,,,,,,,,,,,,,,,,,,,,,,,,,,,,,,,,,,,,,,,,,,,,,,
,0.083333333,-0.401388889,1,0,0,instr_done_button,0,3,3,3,1,4,instructions,"It is very important that you respond as quickly and accurately as possible, as each letter string will only be on the screen for two seconds. If you do not respond within this time, the message 'Too slow!' will be displayed and the experiment will progress to the next letter string. The first 20 trials will be practice trials and you will receive feedback on your answers. 

Press the space bar or touch the button below to start the practice trials.",0,,615542e63024889a5c432983,30,2022-02-12_17h42.55.075,lexical_decision_task_DD_L4,2021.2.3,Linux aarch64,59.80861244,,,,,,,,,,,,,,,,,,,,,,,,,,,,,,,,,,,,,,,,,,,,,,,,,,,,,,,,,,,,,,,,,,,,,,,,,,,,,,,,,,
,,,,,,,,,,,,,,,,,615542e63024889a5c432983,30,2022-02-12_17h42.55.075,lexical_decision_task_DD_L4,2021.2.3,Linux aarch64,59.80861244,,0,-0.369444444,-0.348611111,1,0,0,1.224,button_left,1.224,1,0,0,0,9,1,1001,FARINY,z,,,,,,,,,,,,,,,,,,,,,,,,,,,,,,,,,,,,,,,,,,,,,,,,,,,,,,,,,,,,,,,
,,,,,,,,,,,,,,,,,615542e63024889a5c432983,30,2022-02-12_17h42.55.075,lexical_decision_task_DD_L4,2021.2.3,Linux aarch64,59.80861244,,0,-0.372222222,-0.295833333,1,0,0,0.696,button_left,0.696,1,0,1,1,15,1,1001,WHAISE,z,,,,,,,,,,,,,,,,,,,,,,,,,,,,,,,,,,,,,,,,,,,,,,,,,,,,,,,,,,,,,,,
,,,,,,,,,,,,,,,,,615542e63024889a5c432983,30,2022-02-12_17h42.55.075,lexical_decision_task_DD_L4,2021.2.3,Linux aarch64,59.80861244,,0,0.338888889,-0.295833333,1,0,0,0.593,button_right,0.593,1,0,2,2,1,1,1001,ADJUST,m,,,,,,,,,,,,,,,,,,,,,,,,,,,,,,,,,,,,,,,,,,,,,,,,,,,,,,,,,,,,,,,
,,,,,,,,,,,,,,,,,615542e63024889a5c432983,30,2022-02-12_17h42.55.075,lexical_decision_task_DD_L4,2021.2.3,Linux aarch64,59.80861244,,0,-0.369444444,-0.290277778,1,0,0,0.798,button_left,0.798,1,0,3,3,8,1,1001,ASLERT,z,,,,,,,,,,,,,,,,,,,,,,,,,,,,,,,,,,,,,,,,,,,,,,,,,,,,,,,,,,,,,,,
,,,,,,,,,,,,,,,,,615542e63024889a5c432983,30,2022-02-12_17h42.55.075,lexical_decision_task_DD_L4,2021.2.3,Linux aarch64,59.80861244,,0,-0.361111111,-0.270833333,1,0,0,0.67,button_left,0.67,1,0,4,4,14,1,1001,THRALE,z,,,,,,,,,,,,,,,,,,,,,,,,,,,,,,,,,,,,,,,,,,,,,,,,,,,,,,,,,,,,,,,
,,,,,,,,,,,,,,,,,615542e63024889a5c432983,30,2022-02-12_17h42.55.075,lexical_decision_task_DD_L4,2021.2.3,Linux aarch64,59.80861244,,0,-0.355555556,-0.270833333,1,0,0,0.672,button_left,0.672,1,0,5,5,13,1,1001,ROUPET,z,,,,,,,,,,,,,,,,,,,,,,,,,,,,,,,,,,,,,,,,,,,,,,,,,,,,,,,,,,,,,,,
,,,,,,,,,,,,,,,,,615542e63024889a5c432983,30,2022-02-12_17h42.55.075,lexical_decision_task_DD_L4,2021.2.3,Linux aarch64,59.80861244,,0,0.327777778,-0.293055556,1,0,0,0.689,button_right,0.689,1,0,6,6,4,1,1001,SQUEAK,m,,,,,,,,,,,,,,,,,,,,,,,,,,,,,,,,,,,,,,,,,,,,,,,,,,,,,,,,,,,,,,,
,,,,,,,,,,,,,,,,,615542e63024889a5c432983,30,2022-02-12_17h42.55.075,lexical_decision_task_DD_L4,2021.2.3,Linux aarch64,59.80861244,,0,0.322222222,-0.279166667,1,0,0,0.594,button_right,0.594,1,0,7,7,2,1,1001,ALMOND,m,,,,,,,,,,,,,,,,,,,,,,,,,,,,,,,,,,,,,,,,,,,,,,,,,,,,,,,,,,,,,,,
,,,,,,,,,,,,,,,,,615542e63024889a5c432983,30,2022-02-12_17h42.55.075,lexical_decision_task_DD_L4,2021.2.3,Linux aarch64,59.80861244,,0,0.311111111,-0.290277778,1,0,0,0.551,button_right,0.551,1,0,8,8,7,1,1001,VOLUME,m,,,,,,,,,,,,,,,,,,,,,,,,,,,,,,,,,,,,,,,,,,,,,,,,,,,,,,,,,,,,,,,
,,,,,,,,,,,,,,,,,615542e63024889a5c432983,30,2022-02-12_17h42.55.075,lexical_decision_task_DD_L4,2021.2.3,Linux aarch64,59.80861244,,0,-0.355555556,-0.281944444,1,0,0,0.566,button_left,0.566,1,0,9,9,10,1,1001,INLADE,z,,,,,,,,,,,,,,,,,,,,,,,,,,,,,,,,,,,,,,,,,,,,,,,,,,,,,,,,,,,,,,,
,,,,,,,,,,,,,,,,,615542e63024889a5c432983,30,2022-02-12_17h42.55.075,lexical_decision_task_DD_L4,2021.2.3,Linux aarch64,59.80861244,,0,0.308333333,-0.293055556,1,0,0,0.619,button_right,0.619,1,0,10,10,3,1,1001,MATRIX,m,,,,,,,,,,,,,,,,,,,,,,,,,,,,,,,,,,,,,,,,,,,,,,,,,,,,,,,,,,,,,,,
,,,,,,,,,,,,,,,,,615542e63024889a5c432983,30,2022-02-12_17h42.55.075,lexical_decision_task_DD_L4,2021.2.3,Linux aarch64,59.80861244,,0,-0.355555556,-0.293055556,1,0,0,0.783,button_left,0.783,1,0,11,11,11,1,1001,RASHET,z,,,,,,,,,,,,,,,,,,,,,,,,,,,,,,,,,,,,,,,,,,,,,,,,,,,,,,,,,,,,,,,
,,,,,,,,,,,,,,,,,615542e63024889a5c432983,30,2022-02-12_17h42.55.075,lexical_decision_task_DD_L4,2021.2.3,Linux aarch64,59.80861244,,0,0.305555556,-0.293055556,1,0,0,0.567,button_right,0.567,1,0,12,12,5,1,1001,OBTAIN,m,,,,,,,,,,,,,,,,,,,,,,,,,,,,,,,,,,,,,,,,,,,,,,,,,,,,,,,,,,,,,,,
,,,,,,,,,,,,,,,,,615542e63024889a5c432983,30,2022-02-12_17h42.55.075,lexical_decision_task_DD_L4,2021.2.3,Linux aarch64,59.80861244,,0,0.316666667,-0.2875,1,0,0,0.646,button_right,0.646,1,0,13,13,0,1,1001,UTOPIA,m,,,,,,,,,,,,,,,,,,,,,,,,,,,,,,,,,,,,,,,,,,,,,,,,,,,,,,,,,,,,,,,
,,,,,,,,,,,,,,,,,615542e63024889a5c432983,30,2022-02-12_17h42.55.075,lexical_decision_task_DD_L4,2021.2.3,Linux aarch64,59.80861244,,0,0.311111111,-0.281944444,1,0,0,0.551,button_right,0.551,1,0,14,14,6,1,1001,ZOMBIE,m,,,,,,,,,,,,,,,,,,,,,,,,,,,,,,,,,,,,,,,,,,,,,,,,,,,,,,,,,,,,,,,
,,,,,,,,,,,,,,,,,615542e63024889a5c432983,30,2022-02-12_17h42.55.075,lexical_decision_task_DD_L4,2021.2.3,Linux aarch64,59.80861244,,0,-0.361111111,-0.295833333,1,0,0,0.727,button_left,0.727,1,0,15,15,12,1,1001,SPRINY,z,,,,,,,,,,,,,,,,,,,,,,,,,,,,,,,,,,,,,,,,,,,,,,,,,,,,,,,,,,,,,,,
,-0.113888889,-0.423611111,1,0,0,instr_done_button,,,,,,1,end_of_practice,"You have completed the practice trials. During the experimental trials, you will not receive feedback. 
Before you begin, please ensure that you are in a comfortable and quiet location and will not be disturbed for about 15 minutes, as we cannot use your data if you do not complete all the trials. 
 When you are ready to start the experimental trials, please press space or touch the button below.",,,615542e63024889a5c432983,30,2022-02-12_17h42.55.075,lexical_decision_task_DD_L4,2021.2.3,Linux aarch64,59.80861244,,,,,,,,,,,,,,,,,,,,0,0,0,0,1,,,,,,,,,,,,,,,,,,,,,,,,,,,,,,,,,,,,,,,,,,,,,,,,,,,,,,,,,,
,,,,,,,,,,,,,,,,,615542e63024889a5c432983,30,2022-02-12_17h42.55.075,lexical_decision_task_DD_L4,2021.2.3,Linux aarch64,59.80861244,,,,,,,,,,1.414,1,,,,,,,,,,,,,,,0,-0.375,-0.3375,1,0,0,1.414,button_left_main,-0.375,-0.3375,1,0,0,,0,0,0,112,1,MYING,HB,old,z,./images/MYINGHB.png,,,,,,,,,,,,,,,,,,,,,,,,,,,,,,,,,
,,,,,,,,,,,,,,,,,615542e63024889a5c432983,30,2022-02-12_17h42.55.075,lexical_decision_task_DD_L4,2021.2.3,Linux aarch64,59.80861244,,,,,,,,,,0.869,1,,,,,,,,,,,,,,,0,-0.358333333,-0.315277778,1,0,0,0.869,button_left_main,-0.358333333,-0.315277778,1,0,0,,0,1,1,95,1,HANTY,LB,old,z,./images/HANTYLB.png,,,,,,,,,,,,,,,,,,,,,,,,,,,,,,,,,
,,,,,,,,,,,,,,,,,615542e63024889a5c432983,30,2022-02-12_17h42.55.075,lexical_decision_task_DD_L4,2021.2.3,Linux aarch64,59.80861244,,,,,,,,,,0.916,1,,,,,,,,,,,,,,,0,-0.336111111,-0.320833333,1,0,0,0.916,button_left_main,-0.336111111,-0.320833333,1,0,0,,0,2,2,100,1,DRIBS,HB,old,z,./images/DRIBSHB.png,,,,,,,,,,,,,,,,,,,,,,,,,,,,,,,,,
,,,,,,,,,,,,,,,,,615542e63024889a5c432983,30,2022-02-12_17h42.55.075,lexical_decision_task_DD_L4,2021.2.3,Linux aarch64,59.80861244,,,,,,,,,,1.154,1,,,,,,,,,,,,,,,0,-0.338888889,-0.318055556,1,0,0,1.154,button_left_main,-0.338888889,-0.318055556,1,0,0,,0,3,3,88,1,GLUSH,HB,old,z,./images/GLUSHHB.png,,,,,,,,,,,,,,,,,,,,,,,,,,,,,,,,,
,,,,,,,,,,,,,,,,,615542e63024889a5c432983,30,2022-02-12_17h42.55.075,lexical_decision_task_DD_L4,2021.2.3,Linux aarch64,59.80861244,,,,,,,,,,0.833,1,,,,,,,,,,,,,,,0,-0.330555556,-0.329166667,1,0,0,0.833,button_left_main,-0.330555556,-0.329166667,1,0,0,,0,4,4,106,1,CLUMS,HB,old,z,./images/CLUMSHB.png,,,,,,,,,,,,,,,,,,,,,,,,,,,,,,,,,
,,,,,,,,,,,,,,,,,615542e63024889a5c432983,30,2022-02-12_17h42.55.075,lexical_decision_task_DD_L4,2021.2.3,Linux aarch64,59.80861244,,,,,,,,,,0.71,1,,,,,,,,,,,,,,,0,-0.355555556,-0.3125,1,0,0,0.71,button_left_main,-0.355555556,-0.3125,1,0,0,,0,5,5,116,1,BALGY,LB,old,z,./images/BALGYLB.png,,,,,,,,,,,,,,,,,,,,,,,,,,,,,,,,,
,,,,,,,,,,,,,,,,,615542e63024889a5c432983,30,2022-02-12_17h42.55.075,lexical_decision_task_DD_L4,2021.2.3,Linux aarch64,59.80861244,,,,,,,,,,0.532,1,,,,,,,,,,,,,,,0,-0.325,-0.323611111,1,0,0,0.532,button_left_main,-0.325,-0.323611111,1,0,0,,0,6,6,155,1,CANGY,LB,old,z,./images/CANGYLB.png,,,,,,,,,,,,,,,,,,,,,,,,,,,,,,,,,
,,,,,,,,,,,,,,,,,615542e63024889a5c432983,30,2022-02-12_17h42.55.075,lexical_decision_task_DD_L4,2021.2.3,Linux aarch64,59.80861244,,,,,,,,,,0.578,1,,,,,,,,,,,,,,,0,-0.319444444,-0.323611111,1,0,0,0.578,button_left_main,-0.319444444,-0.323611111,1,0,0,,0,7,7,137,1,JOOST,LB,old,z,./images/JOOSTLB.png,,,,,,,,,,,,,,,,,,,,,,,,,,,,,,,,,
,,,,,,,,,,,,,,,,,615542e63024889a5c432983,30,2022-02-12_17h42.55.075,lexical_decision_task_DD_L4,2021.2.3,Linux aarch64,59.80861244,,,,,,,,,,0.996,1,,,,,,,,,,,,,,,0,0.308333333,-0.309722222,1,0,0,0.996,button_right_main,0.308333333,-0.309722222,1,0,0,,0,8,8,64,1,BRIDE,HB,old,m,./images/BRIDEHB.png,,,,,,,,,,,,,,,,,,,,,,,,,,,,,,,,,
,,,,,,,,,,,,,,,,,615542e63024889a5c432983,30,2022-02-12_17h42.55.075,lexical_decision_task_DD_L4,2021.2.3,Linux aarch64,59.80861244,,,,,,,,,,0.686,1,,,,,,,,,,,,,,,0,0.313888889,-0.304166667,1,0,0,0.686,button_right_main,0.313888889,-0.304166667,1,0,0,,0,9,9,49,1,BISHOP,HB,old,m,./images/BISHOPHB.png,,,,,,,,,,,,,,,,,,,,,,,,,,,,,,,,,
,,,,,,,,,,,,,,,,,615542e63024889a5c432983,30,2022-02-12_17h42.55.075,lexical_decision_task_DD_L4,2021.2.3,Linux aarch64,59.80861244,,,,,,,,,,0.716,1,,,,,,,,,,,,,,,0,0.305555556,-0.304166667,1,0,0,0.716,button_right_main,0.305555556,-0.304166667,1,0,0,,0,10,10,57,1,FERRY,C,old,m,./images/FERRY.png,,,,,,,,,,,,,,,,,,,,,,,,,,,,,,,,,
,,,,,,,,,,,,,,,,,615542e63024889a5c432983,30,2022-02-12_17h42.55.075,lexical_decision_task_DD_L4,2021.2.3,Linux aarch64,59.80861244,,,,,,,,,,0.652,1,,,,,,,,,,,,,,,0,0.302777778,-0.301388889,1,0,0,0.652,button_right_main,0.302777778,-0.301388889,1,0,0,,0,11,11,50,1,PILOT,LB,old,m,./images/PILOTLB.png,,,,,,,,,,,,,,,,,,,,,,,,,,,,,,,,,
,,,,,,,,,,,,,,,,,615542e63024889a5c432983,30,2022-02-12_17h42.55.075,lexical_decision_task_DD_L4,2021.2.3,Linux aarch64,59.80861244,,,,,,,,,,0.705,1,,,,,,,,,,,,,,,0,-0.319444444,-0.326388889,1,0,0,0.705,button_left_main,-0.319444444,-0.326388889,1,0,0,,0,12,12,117,1,STEEG,C,old,z,./images/STEEG.png,,,,,,,,,,,,,,,,,,,,,,,,,,,,,,,,,
,,,,,,,,,,,,,,,,,615542e63024889a5c432983,30,2022-02-12_17h42.55.075,lexical_decision_task_DD_L4,2021.2.3,Linux aarch64,59.80861244,,,,,,,,,,0.683,1,,,,,,,,,,,,,,,0,0.3,-0.301388889,1,0,0,0.683,button_right_main,0.3,-0.301388889,1,0,0,,0,13,13,0,1,WALNUT,C,old,m,./images/WALNUT.png,,,,,,,,,,,,,,,,,,,,,,,,,,,,,,,,,
,,,,,,,,,,,,,,,,,615542e63024889a5c432983,30,2022-02-12_17h42.55.075,lexical_decision_task_DD_L4,2021.2.3,Linux aarch64,59.80861244,,,,,,,,,,0.746,0,,,,,,,,,,,,,,,0,-0.322222222,-0.323611111,1,0,0,0.746,button_left_main,-0.322222222,-0.323611111,1,0,0,,0,14,14,58,1,CANOE,HB,old,m,./images/CANOEHB.png,,,,,,,,,,,,,,,,,,,,,,,,,,,,,,,,,
,,,,,,,,,,,,,,,,,615542e63024889a5c432983,30,2022-02-12_17h42.55.075,lexical_decision_task_DD_L4,2021.2.3,Linux aarch64,59.80861244,,,,,,,,,,0.74,1,,,,,,,,,,,,,,,0,-0.336111111,-0.315277778,1,0,0,0.74,button_left_main,-0.336111111,-0.315277778,1,0,0,,0,15,15,86,1,AIFED,LB,old,z,./images/AIFEDLB.png,,,,,,,,,,,,,,,,,,,,,,,,,,,,,,,,,
,,,,,,,,,,,,,,,,,615542e63024889a5c432983,30,2022-02-12_17h42.55.075,lexical_decision_task_DD_L4,2021.2.3,Linux aarch64,59.80861244,,,,,,,,,,0.845,0,,,,,,,,,,,,,,,0,0.308333333,-0.290277778,1,0,0,0.845,button_right_main,0.308333333,-0.290277778,1,0,0,,0,16,16,104,1,GITTY,LB,old,z,./images/GITTYLB.png,,,,,,,,,,,,,,,,,,,,,,,,,,,,,,,,,
,,,,,,,,,,,,,,,,,615542e63024889a5c432983,30,2022-02-12_17h42.55.075,lexical_decision_task_DD_L4,2021.2.3,Linux aarch64,59.80861244,,,,,,,,,,1.315,0,,,,,,,,,,,,,,,0,0.313888889,-0.293055556,1,0,0,1.315,button_right_main,0.313888889,-0.293055556,1,0,0,,0,17,17,142,1,PLASK,HB,old,z,./images/PLASKHB.png,,,,,,,,,,,,,,,,,,,,,,,,,,,,,,,,,
,,,,,,,,,,,,,,,,,615542e63024889a5c432983,30,2022-02-12_17h42.55.075,lexical_decision_task_DD_L4,2021.2.3,Linux aarch64,59.80861244,,,,,,,,,,1.099,1,,,,,,,,,,,,,,,0,-0.325,-0.315277778,1,0,0,1.099,button_left_main,-0.325,-0.315277778,1,0,0,,0,18,18,151,1,TINKY,HB,old,z,./images/TINKYHB.png,,,,,,,,,,,,,,,,,,,,,,,,,,,,,,,,,
,,,,,,,,,,,,,,,,,615542e63024889a5c432983,30,2022-02-12_17h42.55.075,lexical_decision_task_DD_L4,2021.2.3,Linux aarch64,59.80861244,,,,,,,,,,0.747,1,,,,,,,,,,,,,,,0,0.311111111,-0.290277778,1,0,0,0.747,button_right_main,0.311111111,-0.290277778,1,0,0,,0,19,19,39,1,CANDY,C,old,m,./images/CANDY.png,,,,,,,,,,,,,,,,,,,,,,,,,,,,,,,,,
,,,,,,,,,,,,,,,,,615542e63024889a5c432983,30,2022-02-12_17h42.55.075,lexical_decision_task_DD_L4,2021.2.3,Linux aarch64,59.80861244,,,,,,,,,,0.834,1,,,,,,,,,,,,,,,0,-0.325,-0.3125,1,0,0,0.834,button_left_main,-0.325,-0.3125,1,0,0,,0,20,20,119,1,PAFER,LB,old,z,./images/PAFERLB.png,,,,,,,,,,,,,,,,,,,,,,,,,,,,,,,,,
,,,,,,,,,,,,,,,,,615542e63024889a5c432983,30,2022-02-12_17h42.55.075,lexical_decision_task_DD_L4,2021.2.3,Linux aarch64,59.80861244,,,,,,,,,,0.703,1,,,,,,,,,,,,,,,0,0.308333333,-0.290277778,1,0,0,0.703,button_right_main,0.308333333,-0.290277778,1,0,0,,0,21,21,63,1,BAKER,C,old,m,./images/BAKER.png,,,,,,,,,,,,,,,,,,,,,,,,,,,,,,,,,
,,,,,,,,,,,,,,,,,615542e63024889a5c432983,30,2022-02-12_17h42.55.075,lexical_decision_task_DD_L4,2021.2.3,Linux aarch64,59.80861244,,,,,,,,,,0.787,1,,,,,,,,,,,,,,,0,-0.333333333,-0.306944444,1,0,0,0.787,button_left_main,-0.333333333,-0.306944444,1,0,0,,0,22,22,129,1,PRANS,C,old,z,./images/PRANS.png,,,,,,,,,,,,,,,,,,,,,,,,,,,,,,,,,
,,,,,,,,,,,,,,,,,615542e63024889a5c432983,30,2022-02-12_17h42.55.075,lexical_decision_task_DD_L4,2021.2.3,Linux aarch64,59.80861244,,,,,,,,,,0.615,1,,,,,,,,,,,,,,,0,0.311111111,-0.284722222,1,0,0,0.615,button_right_main,0.311111111,-0.284722222,1,0,0,,0,23,23,62,1,MAMMAL,LB,old,m,./images/MAMMALLB.png,,,,,,,,,,,,,,,,,,,,,,,,,,,,,,,,,
,,,,,,,,,,,,,,,,,615542e63024889a5c432983,30,2022-02-12_17h42.55.075,lexical_decision_task_DD_L4,2021.2.3,Linux aarch64,59.80861244,,,,,,,,,,0.664,1,,,,,,,,,,,,,,,0,0.302777778,-0.276388889,1,0,0,0.664,button_right_main,0.302777778,-0.276388889,1,0,0,,0,24,24,12,1,BLOKE,C,old,m,./images/BLOKE.png,,,,,,,,,,,,,,,,,,,,,,,,,,,,,,,,,
,,,,,,,,,,,,,,,,,615542e63024889a5c432983,30,2022-02-12_17h42.55.075,lexical_decision_task_DD_L4,2021.2.3,Linux aarch64,59.80861244,,,,,,,,,,0.887,1,,,,,,,,,,,,,,,0,-0.327777778,-0.309722222,1,0,0,0.887,button_left_main,-0.327777778,-0.309722222,1,0,0,,0,25,25,103,1,FLORT,HB,old,z,./images/FLORTHB.png,,,,,,,,,,,,,,,,,,,,,,,,,,,,,,,,,
,,,,,,,,,,,,,,,,,615542e63024889a5c432983,30,2022-02-12_17h42.55.075,lexical_decision_task_DD_L4,2021.2.3,Linux aarch64,59.80861244,,,,,,,,,,0.741,1,,,,,,,,,,,,,,,0,-0.325,-0.3125,1,0,0,0.741,button_left_main,-0.325,-0.3125,1,0,0,,0,26,26,147,1,ZOLES,C,old,z,./images/ZOLES.png,,,,,,,,,,,,,,,,,,,,,,,,,,,,,,,,,
,,,,,,,,,,,,,,,,,615542e63024889a5c432983,30,2022-02-12_17h42.55.075,lexical_decision_task_DD_L4,2021.2.3,Linux aarch64,59.80861244,,,,,,,,,,0.631,1,,,,,,,,,,,,,,,0,0.305555556,-0.2875,1,0,0,0.631,button_right_main,0.305555556,-0.2875,1,0,0,,0,27,27,81,1,DRILL,C,old,m,./images/DRILL.png,,,,,,,,,,,,,,,,,,,,,,,,,,,,,,,,,
,,,,,,,,,,,,,,,,,615542e63024889a5c432983,30,2022-02-12_17h42.55.075,lexical_decision_task_DD_L4,2021.2.3,Linux aarch64,59.80861244,,,,,,,,,,1.283,1,,,,,,,,,,,,,,,0,-0.319444444,-0.315277778,1,0,0,1.283,button_left_main,-0.319444444,-0.315277778,1,0,0,,0,28,28,121,1,CEERS,HB,old,z,./images/CEERSHB.png,,,,,,,,,,,,,,,,,,,,,,,,,,,,,,,,,
,,,,,,,,,,,,,,,,,615542e63024889a5c432983,30,2022-02-12_17h42.55.075,lexical_decision_task_DD_L4,2021.2.3,Linux aarch64,59.80861244,,,,,,,,,,0.867,1,,,,,,,,,,,,,,,0,-0.319444444,-0.309722222,1,0,0,0.867,button_left_main,-0.319444444,-0.309722222,1,0,0,,0,29,29,145,1,LAMEL,HB,old,z,./images/LAMELHB.png,,,,,,,,,,,,,,,,,,,,,,,,,,,,,,,,,
,,,,,,,,,,,,,,,,,615542e63024889a5c432983,30,2022-02-12_17h42.55.075,lexical_decision_task_DD_L4,2021.2.3,Linux aarch64,59.80861244,,,,,,,,,,1.007,1,,,,,,,,,,,,,,,0,-0.316666667,-0.309722222,1,0,0,1.007,button_left_main,-0.316666667,-0.309722222,1,0,0,,0,30,30,157,1,INLER,HB,old,z,./images/INLERHB.png,,,,,,,,,,,,,,,,,,,,,,,,,,,,,,,,,
,,,,,,,,,,,,,,,,,615542e63024889a5c432983,30,2022-02-12_17h42.55.075,lexical_decision_task_DD_L4,2021.2.3,Linux aarch64,59.80861244,,,,,,,,,,0.814,1,,,,,,,,,,,,,,,0,0.297222222,-0.2875,1,0,0,0.814,button_right_main,0.297222222,-0.2875,1,0,0,,0,31,31,33,1,SAUNA,C,old,m,./images/SAUNA.png,,,,,,,,,,,,,,,,,,,,,,,,,,,,,,,,,
,,,,,,,,,,,,,,,,,615542e63024889a5c432983,30,2022-02-12_17h42.55.075,lexical_decision_task_DD_L4,2021.2.3,Linux aarch64,59.80861244,,,,,,,,,,1.066,1,,,,,,,,,,,,,,,0,-0.313888889,-0.306944444,1,0,0,1.066,button_left_main,-0.313888889,-0.306944444,1,0,0,,0,32,32,163,1,GAMBA,HB,old,z,./images/GAMBAHB.png,,,,,,,,,,,,,,,,,,,,,,,,,,,,,,,,,
,,,,,,,,,,,,,,,,,615542e63024889a5c432983,30,2022-02-12_17h42.55.075,lexical_decision_task_DD_L4,2021.2.3,Linux aarch64,59.80861244,,,,,,,,,,0.946,0,,,,,,,,,,,,,,,0,0.3,-0.273611111,1,0,0,0.946,button_right_main,0.3,-0.273611111,1,0,0,,0,33,33,143,1,MONGS,LB,old,z,./images/MONGSLB.png,,,,,,,,,,,,,,,,,,,,,,,,,,,,,,,,,
,,,,,,,,,,,,,,,,,615542e63024889a5c432983,30,2022-02-12_17h42.55.075,lexical_decision_task_DD_L4,2021.2.3,Linux aarch64,59.80861244,,,,,,,,,,0.677,1,,,,,,,,,,,,,,,0,0.294444444,-0.281944444,1,0,0,0.677,button_right_main,0.294444444,-0.281944444,1,0,0,,0,34,34,68,1,VALLEY,LB,old,m,./images/VALLEYLB.png,,,,,,,,,,,,,,,,,,,,,,,,,,,,,,,,,
,,,,,,,,,,,,,,,,,615542e63024889a5c432983,30,2022-02-12_17h42.55.075,lexical_decision_task_DD_L4,2021.2.3,Linux aarch64,59.80861244,,,,,,,,,,0.631,1,,,,,,,,,,,,,,,0,0.311111111,-0.304166667,1,0,0,0.631,button_right_main,0.311111111,-0.304166667,1,0,0,,0,35,35,80,1,PLANET,LB,old,m,./images/PLANETLB.png,,,,,,,,,,,,,,,,,,,,,,,,,,,,,,,,,
,,,,,,,,,,,,,,,,,615542e63024889a5c432983,30,2022-02-12_17h42.55.075,lexical_decision_task_DD_L4,2021.2.3,Linux aarch64,59.80861244,,,,,,,,,,0.962,1,,,,,,,,,,,,,,,0,-0.313888889,-0.309722222,1,0,0,0.962,button_left_main,-0.313888889,-0.309722222,1,0,0,,0,36,36,85,1,CHULK,HB,old,z,./images/CHULKHB.png,,,,,,,,,,,,,,,,,,,,,,,,,,,,,,,,,
,,,,,,,,,,,,,,,,,615542e63024889a5c432983,30,2022-02-12_17h42.55.075,lexical_decision_task_DD_L4,2021.2.3,Linux aarch64,59.80861244,,,,,,,,,,0.698,1,,,,,,,,,,,,,,,0,0.291666667,-0.284722222,1,0,0,0.698,button_right_main,0.291666667,-0.284722222,1,0,0,,0,37,37,27,1,BUTTER,C,old,m,./images/BUTTER.png,,,,,,,,,,,,,,,,,,,,,,,,,,,,,,,,,
,,,,,,,,,,,,,,,,,615542e63024889a5c432983,30,2022-02-12_17h42.55.075,lexical_decision_task_DD_L4,2021.2.3,Linux aarch64,59.80861244,,,,,,,,,,0.752,1,,,,,,,,,,,,,,,0,-0.305555556,-0.304166667,1,0,0,0.752,button_left_main,-0.305555556,-0.304166667,1,0,0,,0,38,38,105,1,MOKER,C,old,z,./images/MOKER.png,,,,,,,,,,,,,,,,,,,,,,,,,,,,,,,,,
,,,,,,,,,,,,,,,,,615542e63024889a5c432983,30,2022-02-12_17h42.55.075,lexical_decision_task_DD_L4,2021.2.3,Linux aarch64,59.80861244,,,,,,,,,,0.648,1,,,,,,,,,,,,,,,0,0.297222222,-0.276388889,1,0,0,0.648,button_right_main,0.297222222,-0.276388889,1,0,0,,0,39,39,29,1,PISTOL,LB,old,m,./images/PISTOLLB.png,,,,,,,,,,,,,,,,,,,,,,,,,,,,,,,,,
,,,,,,,,,,,,,,,,,615542e63024889a5c432983,30,2022-02-12_17h42.55.075,lexical_decision_task_DD_L4,2021.2.3,Linux aarch64,59.80861244,,,,,,,,,,1.179,0,,,,,,,,,,,,,,,0,0.313888889,-0.290277778,1,0,0,1.179,button_right_main,0.313888889,-0.290277778,1,0,0,,0,40,40,114,1,RIKES,C,old,z,./images/RIKES.png,,,,,,,,,,,,,,,,,,,,,,,,,,,,,,,,,
,,,,,,,,,,,,,,,,,615542e63024889a5c432983,30,2022-02-12_17h42.55.075,lexical_decision_task_DD_L4,2021.2.3,Linux aarch64,59.80861244,,,,,,,,,,0.815,1,,,,,,,,,,,,,,,0,-0.319444444,-0.304166667,1,0,0,0.815,button_left_main,0.094444444,-0.401388889,1,0,0,,0,41,41,153,1,CLUPS,C,old,z,./images/CLUPS.png,break_done_button,,,,,,,,,,,,,,,,,,,,,,,,,,,,,,,,
,,,,,,,,,,,,,,,,,615542e63024889a5c432983,30,2022-02-12_17h42.55.075,lexical_decision_task_DD_L4,2021.2.3,Linux aarch64,59.80861244,,,,,,,,,,1.373,1,,,,,,,,,,,,,,,0,-0.355555556,-0.298611111,1,0,0,1.373,button_left_main,-0.355555556,-0.298611111,1,0,0,,0,42,42,97,1,CHIDS,HB,old,z,./images/CHIDSHB.png,,,,,,,,,,,,,,,,,,,,,,,,,,,,,,,,,
,,,,,,,,,,,,,,,,,615542e63024889a5c432983,30,2022-02-12_17h42.55.075,lexical_decision_task_DD_L4,2021.2.3,Linux aarch64,59.80861244,,,,,,,,,,0.639,1,,,,,,,,,,,,,,,0,0.311111111,-0.293055556,1,0,0,0.639,button_right_main,0.311111111,-0.293055556,1,0,0,,0,43,43,9,1,DIVER,C,old,m,./images/DIVER.png,,,,,,,,,,,,,,,,,,,,,,,,,,,,,,,,,
,,,,,,,,,,,,,,,,,615542e63024889a5c432983,30,2022-02-12_17h42.55.075,lexical_decision_task_DD_L4,2021.2.3,Linux aarch64,59.80861244,,,,,,,,,,0.641,1,,,,,,,,,,,,,,,0,0.319444444,-0.2875,1,0,0,0.641,button_right_main,0.319444444,-0.2875,1,0,0,,0,44,44,66,1,STATUE,C,old,m,./images/STATUE.png,,,,,,,,,,,,,,,,,,,,,,,,,,,,,,,,,
,,,,,,,,,,,,,,,,,615542e63024889a5c432983,30,2022-02-12_17h42.55.075,lexical_decision_task_DD_L4,2021.2.3,Linux aarch64,59.80861244,,,,,,,,,,0.836,1,,,,,,,,,,,,,,,0,0.308333333,-0.284722222,1,0,0,0.836,button_right_main,0.308333333,-0.284722222,1,0,0,,0,45,45,3,1,CRATER,C,old,m,./images/CRATER.png,,,,,,,,,,,,,,,,,,,,,,,,,,,,,,,,,
,,,,,,,,,,,,,,,,,615542e63024889a5c432983,30,2022-02-12_17h42.55.075,lexical_decision_task_DD_L4,2021.2.3,Linux aarch64,59.80861244,,,,,,,,,,0.716,1,,,,,,,,,,,,,,,0,0.313888889,-0.295833333,1,0,0,0.716,button_right_main,0.313888889,-0.295833333,1,0,0,,0,46,46,17,1,PARADE,LB,old,m,./images/PARADELB.png,,,,,,,,,,,,,,,,,,,,,,,,,,,,,,,,,
,,,,,,,,,,,,,,,,,615542e63024889a5c432983,30,2022-02-12_17h42.55.075,lexical_decision_task_DD_L4,2021.2.3,Linux aarch64,59.80861244,,,,,,,,,,0.666,1,,,,,,,,,,,,,,,0,0.325,-0.293055556,1,0,0,0.666,button_right_main,0.325,-0.293055556,1,0,0,,0,47,47,83,1,WHISKY,LB,old,m,./images/WHISKYLB.png,,,,,,,,,,,,,,,,,,,,,,,,,,,,,,,,,
,,,,,,,,,,,,,,,,,615542e63024889a5c432983,30,2022-02-12_17h42.55.075,lexical_decision_task_DD_L4,2021.2.3,Linux aarch64,59.80861244,,,,,,,,,,0.887,1,,,,,,,,,,,,,,,0,0.313888889,-0.301388889,1,0,0,0.887,button_right_main,0.313888889,-0.301388889,1,0,0,,0,48,48,70,1,BANANA,HB,old,m,./images/BANANAHB.png,,,,,,,,,,,,,,,,,,,,,,,,,,,,,,,,,
,,,,,,,,,,,,,,,,,615542e63024889a5c432983,30,2022-02-12_17h42.55.075,lexical_decision_task_DD_L4,2021.2.3,Linux aarch64,59.80861244,,,,,,,,,,0.699,1,,,,,,,,,,,,,,,0,0.297222222,-0.298611111,1,0,0,0.699,button_right_main,0.297222222,-0.298611111,1,0,0,,0,49,49,19,1,DONKEY,HB,old,m,./images/DONKEYHB.png,,,,,,,,,,,,,,,,,,,,,,,,,,,,,,,,,
,,,,,,,,,,,,,,,,,615542e63024889a5c432983,30,2022-02-12_17h42.55.075,lexical_decision_task_DD_L4,2021.2.3,Linux aarch64,59.80861244,,,,,,,,,,0.859,1,,,,,,,,,,,,,,,0,-0.333333333,-0.295833333,1,0,0,0.859,button_left_main,-0.333333333,-0.295833333,1,0,0,,0,50,50,99,1,BACKY,C,old,z,./images/BACKY.png,,,,,,,,,,,,,,,,,,,,,,,,,,,,,,,,,
,,,,,,,,,,,,,,,,,615542e63024889a5c432983,30,2022-02-12_17h42.55.075,lexical_decision_task_DD_L4,2021.2.3,Linux aarch64,59.80861244,,,,,,,,,,0.82,1,,,,,,,,,,,,,,,0,0.291666667,-0.3125,1,0,0,0.82,button_right_main,0.291666667,-0.3125,1,0,0,,0,51,51,28,1,CASINO,HB,old,m,./images/CASINOHB.png,,,,,,,,,,,,,,,,,,,,,,,,,,,,,,,,,
,,,,,,,,,,,,,,,,,615542e63024889a5c432983,30,2022-02-12_17h42.55.075,lexical_decision_task_DD_L4,2021.2.3,Linux aarch64,59.80861244,,,,,,,,,,0.766,1,,,,,,,,,,,,,,,0,-0.338888889,-0.293055556,1,0,0,0.766,button_left_main,-0.338888889,-0.293055556,1,0,0,,0,52,52,111,1,HOSSE,C,old,z,./images/HOSSE.png,,,,,,,,,,,,,,,,,,,,,,,,,,,,,,,,,
,,,,,,,,,,,,,,,,,615542e63024889a5c432983,30,2022-02-12_17h42.55.075,lexical_decision_task_DD_L4,2021.2.3,Linux aarch64,59.80861244,,,,,,,,,,0.846,1,,,,,,,,,,,,,,,0,-0.333333333,-0.295833333,1,0,0,0.846,button_left_main,-0.333333333,-0.295833333,1,0,0,,0,53,53,131,1,NACES,LB,old,z,./images/NACESLB.png,,,,,,,,,,,,,,,,,,,,,,,,,,,,,,,,,
,,,,,,,,,,,,,,,,,615542e63024889a5c432983,30,2022-02-12_17h42.55.075,lexical_decision_task_DD_L4,2021.2.3,Linux aarch64,59.80861244,,,,,,,,,,0.748,1,,,,,,,,,,,,,,,0,-0.330555556,-0.295833333,1,0,0,0.748,button_left_main,-0.330555556,-0.295833333,1,0,0,,0,54,54,152,1,FRAIN,LB,old,z,./images/FRAINLB.png,,,,,,,,,,,,,,,,,,,,,,,,,,,,,,,,,
,,,,,,,,,,,,,,,,,615542e63024889a5c432983,30,2022-02-12_17h42.55.075,lexical_decision_task_DD_L4,2021.2.3,Linux aarch64,59.80861244,,,,,,,,,,0.778,1,,,,,,,,,,,,,,,0,-0.333333333,-0.301388889,1,0,0,0.778,button_left_main,-0.333333333,-0.301388889,1,0,0,,0,55,55,136,1,WERVE,HB,old,z,./images/WERVEHB.png,,,,,,,,,,,,,,,,,,,,,,,,,,,,,,,,,
,,,,,,,,,,,,,,,,,615542e63024889a5c432983,30,2022-02-12_17h42.55.075,lexical_decision_task_DD_L4,2021.2.3,Linux aarch64,59.80861244,,,,,,,,,,0.665,1,,,,,,,,,,,,,,,0,-0.316666667,-0.306944444,1,0,0,0.665,button_left_main,-0.316666667,-0.306944444,1,0,0,,0,56,56,167,1,ZONET,LB,old,z,./images/ZONETLB.png,,,,,,,,,,,,,,,,,,,,,,,,,,,,,,,,,
,,,,,,,,,,,,,,,,,615542e63024889a5c432983,30,2022-02-12_17h42.55.075,lexical_decision_task_DD_L4,2021.2.3,Linux aarch64,59.80861244,,,,,,,,,,0.623,1,,,,,,,,,,,,,,,0,-0.319444444,-0.304166667,1,0,0,0.623,button_left_main,-0.319444444,-0.304166667,1,0,0,,0,57,57,108,1,GRUET,C,old,z,./images/GRUET.png,,,,,,,,,,,,,,,,,,,,,,,,,,,,,,,,,
,,,,,,,,,,,,,,,,,615542e63024889a5c432983,30,2022-02-12_17h42.55.075,lexical_decision_task_DD_L4,2021.2.3,Linux aarch64,59.80861244,,,,,,,,,,0.801,1,,,,,,,,,,,,,,,0,0.302777778,-0.293055556,1,0,0,0.801,button_right_main,0.302777778,-0.293055556,1,0,0,,0,58,58,8,1,CLIFF,LB,old,m,./images/CLIFFLB.png,,,,,,,,,,,,,,,,,,,,,,,,,,,,,,,,,
,,,,,,,,,,,,,,,,,615542e63024889a5c432983,30,2022-02-12_17h42.55.075,lexical_decision_task_DD_L4,2021.2.3,Linux aarch64,59.80861244,,,,,,,,,,0.622,1,,,,,,,,,,,,,,,0,0.294444444,-0.293055556,1,0,0,0.622,button_right_main,0.294444444,-0.293055556,1,0,0,,0,59,59,78,1,BROOM,C,old,m,./images/BROOM.png,,,,,,,,,,,,,,,,,,,,,,,,,,,,,,,,,
,,,,,,,,,,,,,,,,,615542e63024889a5c432983,30,2022-02-12_17h42.55.075,lexical_decision_task_DD_L4,2021.2.3,Linux aarch64,59.80861244,,,,,,,,,,0.776,1,,,,,,,,,,,,,,,0,-0.319444444,-0.3125,1,0,0,0.776,button_left_main,-0.319444444,-0.3125,1,0,0,,0,60,60,127,1,NINDY,HB,old,z,./images/NINDYHB.png,,,,,,,,,,,,,,,,,,,,,,,,,,,,,,,,,
,,,,,,,,,,,,,,,,,615542e63024889a5c432983,30,2022-02-12_17h42.55.075,lexical_decision_task_DD_L4,2021.2.3,Linux aarch64,59.80861244,,,,,,,,,,0.701,1,,,,,,,,,,,,,,,0,-0.333333333,-0.301388889,1,0,0,0.701,button_left_main,-0.333333333,-0.301388889,1,0,0,,0,61,61,126,1,GUELS,C,old,z,./images/GUELS.png,,,,,,,,,,,,,,,,,,,,,,,,,,,,,,,,,
,,,,,,,,,,,,,,,,,615542e63024889a5c432983,30,2022-02-12_17h42.55.075,lexical_decision_task_DD_L4,2021.2.3,Linux aarch64,59.80861244,,,,,,,,,,0.971,1,,,,,,,,,,,,,,,0,-0.333333333,-0.309722222,1,0,0,0.971,button_left_main,-0.333333333,-0.309722222,1,0,0,,0,62,62,133,1,POWDY,HB,old,z,./images/POWDYHB.png,,,,,,,,,,,,,,,,,,,,,,,,,,,,,,,,,
,,,,,,,,,,,,,,,,,615542e63024889a5c432983,30,2022-02-12_17h42.55.075,lexical_decision_task_DD_L4,2021.2.3,Linux aarch64,59.80861244,,,,,,,,,,0.724,1,,,,,,,,,,,,,,,0,0.313888889,-0.304166667,1,0,0,0.724,button_right_main,0.313888889,-0.304166667,1,0,0,,0,63,63,67,1,POKER,HB,old,m,./images/POKERHB.png,,,,,,,,,,,,,,,,,,,,,,,,,,,,,,,,,
,,,,,,,,,,,,,,,,,615542e63024889a5c432983,30,2022-02-12_17h42.55.075,lexical_decision_task_DD_L4,2021.2.3,Linux aarch64,59.80861244,,,,,,,,,,0.553,1,,,,,,,,,,,,,,,0,0.297222222,-0.309722222,1,0,0,0.553,button_right_main,0.297222222,-0.309722222,1,0,0,,0,64,64,54,1,CHERRY,C,old,m,./images/CHERRY.png,,,,,,,,,,,,,,,,,,,,,,,,,,,,,,,,,
,,,,,,,,,,,,,,,,,615542e63024889a5c432983,30,2022-02-12_17h42.55.075,lexical_decision_task_DD_L4,2021.2.3,Linux aarch64,59.80861244,,,,,,,,,,0.628,1,,,,,,,,,,,,,,,0,0.3,-0.301388889,1,0,0,0.628,button_right_main,0.3,-0.301388889,1,0,0,,0,65,65,18,1,PARCEL,C,old,m,./images/PARCEL.png,,,,,,,,,,,,,,,,,,,,,,,,,,,,,,,,,
,,,,,,,,,,,,,,,,,615542e63024889a5c432983,30,2022-02-12_17h42.55.075,lexical_decision_task_DD_L4,2021.2.3,Linux aarch64,59.80861244,,,,,,,,,,0.614,1,,,,,,,,,,,,,,,0,0.3,-0.306944444,1,0,0,0.614,button_right_main,0.3,-0.306944444,1,0,0,,0,66,66,44,1,BASKET,LB,old,m,./images/BASKETLB.png,,,,,,,,,,,,,,,,,,,,,,,,,,,,,,,,,
,,,,,,,,,,,,,,,,,615542e63024889a5c432983,30,2022-02-12_17h42.55.075,lexical_decision_task_DD_L4,2021.2.3,Linux aarch64,59.80861244,,,,,,,,,,0.609,1,,,,,,,,,,,,,,,0,0.308333333,-0.301388889,1,0,0,0.609,button_right_main,0.308333333,-0.301388889,1,0,0,,0,67,67,14,1,FENCE,LB,old,m,./images/FENCELB.png,,,,,,,,,,,,,,,,,,,,,,,,,,,,,,,,,
,,,,,,,,,,,,,,,,,615542e63024889a5c432983,30,2022-02-12_17h42.55.075,lexical_decision_task_DD_L4,2021.2.3,Linux aarch64,59.80861244,,,,,,,,,,0.629,1,,,,,,,,,,,,,,,0,-0.325,-0.306944444,1,0,0,0.629,button_left_main,-0.325,-0.306944444,1,0,0,,0,68,68,141,1,PLEET,C,old,z,./images/PLEET.png,,,,,,,,,,,,,,,,,,,,,,,,,,,,,,,,,
,,,,,,,,,,,,,,,,,615542e63024889a5c432983,30,2022-02-12_17h42.55.075,lexical_decision_task_DD_L4,2021.2.3,Linux aarch64,59.80861244,,,,,,,,,,0.76,1,,,,,,,,,,,,,,,0,0.316666667,-0.295833333,1,0,0,0.76,button_right_main,0.316666667,-0.295833333,1,0,0,,0,69,69,47,1,LAGOON,LB,old,m,./images/LAGOONLB.png,,,,,,,,,,,,,,,,,,,,,,,,,,,,,,,,,
,,,,,,,,,,,,,,,,,615542e63024889a5c432983,30,2022-02-12_17h42.55.075,lexical_decision_task_DD_L4,2021.2.3,Linux aarch64,59.80861244,,,,,,,,,,0.55,1,,,,,,,,,,,,,,,0,0.311111111,-0.295833333,1,0,0,0.55,button_right_main,0.311111111,-0.295833333,1,0,0,,0,70,70,45,1,MONKEY,C,old,m,./images/MONKEY.png,,,,,,,,,,,,,,,,,,,,,,,,,,,,,,,,,
,,,,,,,,,,,,,,,,,615542e63024889a5c432983,30,2022-02-12_17h42.55.075,lexical_decision_task_DD_L4,2021.2.3,Linux aarch64,59.80861244,,,,,,,,,,0.698,1,,,,,,,,,,,,,,,0,-0.308333333,-0.309722222,1,0,0,0.698,button_left_main,-0.308333333,-0.309722222,1,0,0,,0,71,71,158,1,EGECT,LB,old,z,./images/EGECTLB.png,,,,,,,,,,,,,,,,,,,,,,,,,,,,,,,,,
,,,,,,,,,,,,,,,,,615542e63024889a5c432983,30,2022-02-12_17h42.55.075,lexical_decision_task_DD_L4,2021.2.3,Linux aarch64,59.80861244,,,,,,,,,,0.585,1,,,,,,,,,,,,,,,0,0.308333333,-0.306944444,1,0,0,0.585,button_right_main,0.308333333,-0.306944444,1,0,0,,0,72,72,77,1,WHEEL,LB,old,m,./images/WHEELLB.png,,,,,,,,,,,,,,,,,,,,,,,,,,,,,,,,,
,,,,,,,,,,,,,,,,,615542e63024889a5c432983,30,2022-02-12_17h42.55.075,lexical_decision_task_DD_L4,2021.2.3,Linux aarch64,59.80861244,,,,,,,,,,0.766,1,,,,,,,,,,,,,,,0,0.308333333,-0.306944444,1,0,0,0.766,button_right_main,0.308333333,-0.306944444,1,0,0,,0,73,73,23,1,CLOTH,LB,old,m,./images/CLOTHLB.png,,,,,,,,,,,,,,,,,,,,,,,,,,,,,,,,,
,,,,,,,,,,,,,,,,,615542e63024889a5c432983,30,2022-02-12_17h42.55.075,lexical_decision_task_DD_L4,2021.2.3,Linux aarch64,59.80861244,,,,,,,,,,0.666,1,,,,,,,,,,,,,,,0,0.291666667,-0.301388889,1,0,0,0.666,button_right_main,0.291666667,-0.301388889,1,0,0,,0,74,74,41,1,STREAM,LB,old,m,./images/STREAMLB.png,,,,,,,,,,,,,,,,,,,,,,,,,,,,,,,,,
,,,,,,,,,,,,,,,,,615542e63024889a5c432983,30,2022-02-12_17h42.55.075,lexical_decision_task_DD_L4,2021.2.3,Linux aarch64,59.80861244,,,,,,,,,,0.771,1,,,,,,,,,,,,,,,0,-0.358333333,-0.301388889,1,0,0,0.771,button_left_main,-0.358333333,-0.301388889,1,0,0,,0,75,75,138,1,PLICE,C,old,z,./images/PLICE.png,,,,,,,,,,,,,,,,,,,,,,,,,,,,,,,,,
,,,,,,,,,,,,,,,,,615542e63024889a5c432983,30,2022-02-12_17h42.55.075,lexical_decision_task_DD_L4,2021.2.3,Linux aarch64,59.80861244,,,,,,,,,,0.829,1,,,,,,,,,,,,,,,0,0.308333333,-0.304166667,1,0,0,0.829,button_right_main,0.308333333,-0.304166667,1,0,0,,0,76,76,16,1,GRAPE,HB,old,m,./images/GRAPEHB.png,,,,,,,,,,,,,,,,,,,,,,,,,,,,,,,,,
,,,,,,,,,,,,,,,,,615542e63024889a5c432983,30,2022-02-12_17h42.55.075,lexical_decision_task_DD_L4,2021.2.3,Linux aarch64,59.80861244,,,,,,,,,,0.699,1,,,,,,,,,,,,,,,0,-0.305555556,-0.309722222,1,0,0,0.699,button_left_main,-0.305555556,-0.309722222,1,0,0,,0,77,77,139,1,BLEAR,HB,old,z,./images/BLEARHB.png,,,,,,,,,,,,,,,,,,,,,,,,,,,,,,,,,
,,,,,,,,,,,,,,,,,615542e63024889a5c432983,30,2022-02-12_17h42.55.075,lexical_decision_task_DD_L4,2021.2.3,Linux aarch64,59.80861244,,,,,,,,,,0.815,1,,,,,,,,,,,,,,,0,-0.316666667,-0.315277778,1,0,0,0.815,button_left_main,-0.316666667,-0.315277778,1,0,0,,0,78,78,115,1,MAWNS,HB,old,z,./images/MAWNSHB.png,,,,,,,,,,,,,,,,,,,,,,,,,,,,,,,,,
,,,,,,,,,,,,,,,,,615542e63024889a5c432983,30,2022-02-12_17h42.55.075,lexical_decision_task_DD_L4,2021.2.3,Linux aarch64,59.80861244,,,,,,,,,,0.838,1,,,,,,,,,,,,,,,0,0.313888889,-0.304166667,1,0,0,0.838,button_right_main,0.313888889,-0.304166667,1,0,0,,0,79,79,43,1,STOOL,HB,old,m,./images/STOOLHB.png,,,,,,,,,,,,,,,,,,,,,,,,,,,,,,,,,
,,,,,,,,,,,,,,,,,615542e63024889a5c432983,30,2022-02-12_17h42.55.075,lexical_decision_task_DD_L4,2021.2.3,Linux aarch64,59.80861244,,,,,,,,,,1.197,0,,,,,,,,,,,,,,,0,-0.319444444,-0.3125,1,0,0,1.197,button_left_main,-0.319444444,-0.3125,1,0,0,,0,80,80,79,1,RULER,HB,old,m,./images/RULERHB.png,,,,,,,,,,,,,,,,,,,,,,,,,,,,,,,,,
,,,,,,,,,,,,,,,,,615542e63024889a5c432983,30,2022-02-12_17h42.55.075,lexical_decision_task_DD_L4,2021.2.3,Linux aarch64,59.80861244,,,,,,,,,,0.681,0,,,,,,,,,,,,,,,0,0.319444444,-0.295833333,1,0,0,0.681,button_right_main,0.319444444,-0.295833333,1,0,0,,0,81,81,110,1,CRUNK,LB,old,z,./images/CRUNKLB.png,,,,,,,,,,,,,,,,,,,,,,,,,,,,,,,,,
,,,,,,,,,,,,,,,,,615542e63024889a5c432983,30,2022-02-12_17h42.55.075,lexical_decision_task_DD_L4,2021.2.3,Linux aarch64,59.80861244,,,,,,,,,,0.7,1,,,,,,,,,,,,,,,0,0.302777778,-0.295833333,1,0,0,0.7,button_right_main,0.302777778,-0.295833333,1,0,0,,0,82,82,10,1,GARDEN,HB,old,m,./images/GARDENHB.png,,,,,,,,,,,,,,,,,,,,,,,,,,,,,,,,,
,,,,,,,,,,,,,,,,,615542e63024889a5c432983,30,2022-02-12_17h42.55.075,lexical_decision_task_DD_L4,2021.2.3,Linux aarch64,59.80861244,,,,,,,,,,0.686,1,,,,,,,,,,,,,,,0,-0.316666667,-0.306944444,1,0,0,0.686,button_left_main,0.069444444,-0.448611111,1,0,0,,0,83,83,93,1,SMONE,C,old,z,./images/SMONE.png,break_done_button,,,,,,,,,,,,,,,,,,,,,,,,,,,,,,,,
,,,,,,,,,,,,,,,,,615542e63024889a5c432983,30,2022-02-12_17h42.55.075,lexical_decision_task_DD_L4,2021.2.3,Linux aarch64,59.80861244,,,,,,,,,,0.747,1,,,,,,,,,,,,,,,0,-0.363888889,-0.290277778,1,0,0,0.747,button_left_main,-0.363888889,-0.290277778,1,0,0,,0,84,84,132,1,SCIFF,C,old,z,./images/SCIFF.png,,,,,,,,,,,,,,,,,,,,,,,,,,,,,,,,,
,,,,,,,,,,,,,,,,,615542e63024889a5c432983,30,2022-02-12_17h42.55.075,lexical_decision_task_DD_L4,2021.2.3,Linux aarch64,59.80861244,,,,,,,,,,0.639,1,,,,,,,,,,,,,,,0,0.35,-0.301388889,1,0,0,0.639,button_right_main,0.35,-0.301388889,1,0,0,,0,85,85,56,1,HEATER,LB,old,m,./images/HEATERLB.png,,,,,,,,,,,,,,,,,,,,,,,,,,,,,,,,,
,,,,,,,,,,,,,,,,,615542e63024889a5c432983,30,2022-02-12_17h42.55.075,lexical_decision_task_DD_L4,2021.2.3,Linux aarch64,59.80861244,,,,,,,,,,0.732,1,,,,,,,,,,,,,,,0,-0.344444444,-0.293055556,1,0,0,0.732,button_left_main,-0.344444444,-0.293055556,1,0,0,,0,86,86,107,1,FASKS,LB,old,z,./images/FASKSLB.png,,,,,,,,,,,,,,,,,,,,,,,,,,,,,,,,,
,,,,,,,,,,,,,,,,,615542e63024889a5c432983,30,2022-02-12_17h42.55.075,lexical_decision_task_DD_L4,2021.2.3,Linux aarch64,59.80861244,,,,,,,,,,0.784,1,,,,,,,,,,,,,,,0,-0.325,-0.301388889,1,0,0,0.784,button_left_main,-0.325,-0.301388889,1,0,0,,0,87,87,113,1,LINEW,LB,old,z,./images/LINEWLB.png,,,,,,,,,,,,,,,,,,,,,,,,,,,,,,,,,
,,,,,,,,,,,,,,,,,615542e63024889a5c432983,30,2022-02-12_17h42.55.075,lexical_decision_task_DD_L4,2021.2.3,Linux aarch64,59.80861244,,,,,,,,,,0.633,0,,,,,,,,,,,,,,,0,0.316666667,-0.290277778,1,0,0,0.633,button_right_main,0.316666667,-0.290277778,1,0,0,,0,88,88,128,1,GRIFT,LB,old,z,./images/GRIFTLB.png,,,,,,,,,,,,,,,,,,,,,,,,,,,,,,,,,
,,,,,,,,,,,,,,,,,615542e63024889a5c432983,30,2022-02-12_17h42.55.075,lexical_decision_task_DD_L4,2021.2.3,Linux aarch64,59.80861244,,,,,,,,,,0.688,1,,,,,,,,,,,,,,,0,-0.316666667,-0.309722222,1,0,0,0.688,button_left_main,-0.316666667,-0.309722222,1,0,0,,0,89,89,120,1,RINED,C,old,z,./images/RINED.png,,,,,,,,,,,,,,,,,,,,,,,,,,,,,,,,,
,,,,,,,,,,,,,,,,,615542e63024889a5c432983,30,2022-02-12_17h42.55.075,lexical_decision_task_DD_L4,2021.2.3,Linux aarch64,59.80861244,,,,,,,,,,0.581,1,,,,,,,,,,,,,,,0,0.316666667,-0.295833333,1,0,0,0.581,button_right_main,0.316666667,-0.295833333,1,0,0,,0,90,90,21,1,DANCER,C,old,m,./images/DANCER.png,,,,,,,,,,,,,,,,,,,,,,,,,,,,,,,,,
,,,,,,,,,,,,,,,,,615542e63024889a5c432983,30,2022-02-12_17h42.55.075,lexical_decision_task_DD_L4,2021.2.3,Linux aarch64,59.80861244,,,,,,,,,,1.22,1,,,,,,,,,,,,,,,0,-0.325,-0.295833333,1,0,0,1.22,button_left_main,-0.325,-0.295833333,1,0,0,,0,91,91,166,1,SHORY,HB,old,z,./images/SHORYHB.png,,,,,,,,,,,,,,,,,,,,,,,,,,,,,,,,,
,,,,,,,,,,,,,,,,,615542e63024889a5c432983,30,2022-02-12_17h42.55.075,lexical_decision_task_DD_L4,2021.2.3,Linux aarch64,59.80861244,,,,,,,,,,0.582,1,,,,,,,,,,,,,,,0,0.316666667,-0.293055556,1,0,0,0.582,button_right_main,0.316666667,-0.293055556,1,0,0,,0,92,92,38,1,ENGINE,LB,old,m,./images/ENGINELB.png,,,,,,,,,,,,,,,,,,,,,,,,,,,,,,,,,
,,,,,,,,,,,,,,,,,615542e63024889a5c432983,30,2022-02-12_17h42.55.075,lexical_decision_task_DD_L4,2021.2.3,Linux aarch64,59.80861244,,,,,,,,,,0.596,1,,,,,,,,,,,,,,,0,-0.322222222,-0.298611111,1,0,0,0.596,button_left_main,-0.322222222,-0.298611111,1,0,0,,0,93,93,164,1,SGREW,LB,old,z,./images/SGREWLB.png,,,,,,,,,,,,,,,,,,,,,,,,,,,,,,,,,
,,,,,,,,,,,,,,,,,615542e63024889a5c432983,30,2022-02-12_17h42.55.075,lexical_decision_task_DD_L4,2021.2.3,Linux aarch64,59.80861244,,,,,,,,,,0.728,1,,,,,,,,,,,,,,,0,0.313888889,-0.284722222,1,0,0,0.728,button_right_main,0.313888889,-0.284722222,1,0,0,,0,94,94,22,1,CLOWN,HB,old,m,./images/CLOWNHB.png,,,,,,,,,,,,,,,,,,,,,,,,,,,,,,,,,
,,,,,,,,,,,,,,,,,615542e63024889a5c432983,30,2022-02-12_17h42.55.075,lexical_decision_task_DD_L4,2021.2.3,Linux aarch64,59.80861244,,,,,,,,,,0.678,1,,,,,,,,,,,,,,,0,0.3,-0.273611111,1,0,0,0.678,button_right_main,0.3,-0.273611111,1,0,0,,0,95,95,55,1,ALLEY,HB,old,m,./images/ALLEYHB.png,,,,,,,,,,,,,,,,,,,,,,,,,,,,,,,,,
,,,,,,,,,,,,,,,,,615542e63024889a5c432983,30,2022-02-12_17h42.55.075,lexical_decision_task_DD_L4,2021.2.3,Linux aarch64,59.80861244,,,,,,,,,,0.541,1,,,,,,,,,,,,,,,0,0.311111111,-0.265277778,1,0,0,0.541,button_right_main,0.311111111,-0.265277778,1,0,0,,0,96,96,11,1,MEDAL,LB,old,m,./images/MEDALLB.png,,,,,,,,,,,,,,,,,,,,,,,,,,,,,,,,,
,,,,,,,,,,,,,,,,,615542e63024889a5c432983,30,2022-02-12_17h42.55.075,lexical_decision_task_DD_L4,2021.2.3,Linux aarch64,59.80861244,,,,,,,,,,0.704,1,,,,,,,,,,,,,,,0,-0.313888889,-0.301388889,1,0,0,0.704,button_left_main,-0.313888889,-0.301388889,1,0,0,,0,97,97,125,1,MOOKY,LB,old,z,./images/MOOKYLB.png,,,,,,,,,,,,,,,,,,,,,,,,,,,,,,,,,
,,,,,,,,,,,,,,,,,615542e63024889a5c432983,30,2022-02-12_17h42.55.075,lexical_decision_task_DD_L4,2021.2.3,Linux aarch64,59.80861244,,,,,,,,,,0.547,1,,,,,,,,,,,,,,,0,0.319444444,-0.290277778,1,0,0,0.547,button_right_main,0.319444444,-0.290277778,1,0,0,,0,98,98,30,1,SLOPE,C,old,m,./images/SLOPE.png,,,,,,,,,,,,,,,,,,,,,,,,,,,,,,,,,
,,,,,,,,,,,,,,,,,615542e63024889a5c432983,30,2022-02-12_17h42.55.075,lexical_decision_task_DD_L4,2021.2.3,Linux aarch64,59.80861244,,,,,,,,,,0.612,1,,,,,,,,,,,,,,,0,0.311111111,-0.284722222,1,0,0,0.612,button_right_main,0.311111111,-0.284722222,1,0,0,,0,99,99,26,1,CLOUD,LB,old,m,./images/CLOUDLB.png,,,,,,,,,,,,,,,,,,,,,,,,,,,,,,,,,
,,,,,,,,,,,,,,,,,615542e63024889a5c432983,30,2022-02-12_17h42.55.075,lexical_decision_task_DD_L4,2021.2.3,Linux aarch64,59.80861244,,,,,,,,,,0.577,1,,,,,,,,,,,,,,,0,0.311111111,-0.2875,1,0,0,0.577,button_right_main,0.311111111,-0.2875,1,0,0,,0,100,100,32,1,HOCKEY,LB,old,m,./images/HOCKEYLB.png,,,,,,,,,,,,,,,,,,,,,,,,,,,,,,,,,
,,,,,,,,,,,,,,,,,615542e63024889a5c432983,30,2022-02-12_17h42.55.075,lexical_decision_task_DD_L4,2021.2.3,Linux aarch64,59.80861244,,,,,,,,,,0.814,1,,,,,,,,,,,,,,,0,-0.319444444,-0.290277778,1,0,0,0.814,button_left_main,-0.319444444,-0.290277778,1,0,0,,0,101,101,165,1,TROWN,C,old,z,./images/TROWN.png,,,,,,,,,,,,,,,,,,,,,,,,,,,,,,,,,
,,,,,,,,,,,,,,,,,615542e63024889a5c432983,30,2022-02-12_17h42.55.075,lexical_decision_task_DD_L4,2021.2.3,Linux aarch64,59.80861244,,,,,,,,,,0.581,1,,,,,,,,,,,,,,,0,0.316666667,-0.279166667,1,0,0,0.581,button_right_main,0.316666667,-0.279166667,1,0,0,,0,102,102,24,1,FLESH,C,old,m,./images/FLESH.png,,,,,,,,,,,,,,,,,,,,,,,,,,,,,,,,,
,,,,,,,,,,,,,,,,,615542e63024889a5c432983,30,2022-02-12_17h42.55.075,lexical_decision_task_DD_L4,2021.2.3,Linux aarch64,59.80861244,,,,,,,,,,0.869,0,,,,,,,,,,,,,,,0,-0.308333333,-0.290277778,1,0,0,0.869,button_left_main,-0.308333333,-0.290277778,1,0,0,,0,103,103,40,1,SNAKE,HB,old,m,./images/SNAKEHB.png,,,,,,,,,,,,,,,,,,,,,,,,,,,,,,,,,
,,,,,,,,,,,,,,,,,615542e63024889a5c432983,30,2022-02-12_17h42.55.075,lexical_decision_task_DD_L4,2021.2.3,Linux aarch64,59.80861244,,,,,,,,,,0.55,1,,,,,,,,,,,,,,,0,0.313888889,-0.276388889,1,0,0,0.55,button_right_main,0.313888889,-0.276388889,1,0,0,,0,104,104,59,1,BRUSH,LB,old,m,./images/BRUSHLB.png,,,,,,,,,,,,,,,,,,,,,,,,,,,,,,,,,
,,,,,,,,,,,,,,,,,615542e63024889a5c432983,30,2022-02-12_17h42.55.075,lexical_decision_task_DD_L4,2021.2.3,Linux aarch64,59.80861244,,,,,,,,,,0.681,1,,,,,,,,,,,,,,,0,-0.311111111,-0.2875,1,0,0,0.681,button_left_main,-0.311111111,-0.2875,1,0,0,,0,105,105,150,1,NOOLS,C,old,z,./images/NOOLS.png,,,,,,,,,,,,,,,,,,,,,,,,,,,,,,,,,
,,,,,,,,,,,,,,,,,615542e63024889a5c432983,30,2022-02-12_17h42.55.075,lexical_decision_task_DD_L4,2021.2.3,Linux aarch64,59.80861244,,,,,,,,,,0.749,1,,,,,,,,,,,,,,,0,-0.308333333,-0.290277778,1,0,0,0.749,button_left_main,-0.308333333,-0.290277778,1,0,0,,0,106,106,146,1,MOOST,LB,old,z,./images/MOOSTLB.png,,,,,,,,,,,,,,,,,,,,,,,,,,,,,,,,,
,,,,,,,,,,,,,,,,,615542e63024889a5c432983,30,2022-02-12_17h42.55.075,lexical_decision_task_DD_L4,2021.2.3,Linux aarch64,59.80861244,,,,,,,,,,0.62,1,,,,,,,,,,,,,,,0,0.313888889,-0.284722222,1,0,0,0.62,button_right_main,0.313888889,-0.284722222,1,0,0,,0,107,107,51,1,SAUCE,C,old,m,./images/SAUCE.png,,,,,,,,,,,,,,,,,,,,,,,,,,,,,,,,,
,,,,,,,,,,,,,,,,,615542e63024889a5c432983,30,2022-02-12_17h42.55.075,lexical_decision_task_DD_L4,2021.2.3,Linux aarch64,59.80861244,,,,,,,,,,0.747,0,,,,,,,,,,,,,,,0,-0.313888889,-0.290277778,1,0,0,0.747,button_left_main,-0.313888889,-0.290277778,1,0,0,,0,108,108,31,1,STEAK,HB,old,m,./images/STEAKHB.png,,,,,,,,,,,,,,,,,,,,,,,,,,,,,,,,,
,,,,,,,,,,,,,,,,,615542e63024889a5c432983,30,2022-02-12_17h42.55.075,lexical_decision_task_DD_L4,2021.2.3,Linux aarch64,59.80861244,,,,,,,,,,0.701,1,,,,,,,,,,,,,,,0,0.316666667,-0.284722222,1,0,0,0.701,button_right_main,0.316666667,-0.284722222,1,0,0,,0,109,109,65,1,SPINE,LB,old,m,./images/SPINELB.png,,,,,,,,,,,,,,,,,,,,,,,,,,,,,,,,,
,,,,,,,,,,,,,,,,,615542e63024889a5c432983,30,2022-02-12_17h42.55.075,lexical_decision_task_DD_L4,2021.2.3,Linux aarch64,59.80861244,,,,,,,,,,0.837,1,,,,,,,,,,,,,,,0,-0.316666667,-0.281944444,1,0,0,0.837,button_left_main,-0.316666667,-0.281944444,1,0,0,,0,110,110,84,1,HAXES,C,old,z,./images/HAXES.png,,,,,,,,,,,,,,,,,,,,,,,,,,,,,,,,,
,,,,,,,,,,,,,,,,,615542e63024889a5c432983,30,2022-02-12_17h42.55.075,lexical_decision_task_DD_L4,2021.2.3,Linux aarch64,59.80861244,,,,,,,,,,0.702,1,,,,,,,,,,,,,,,0,0.313888889,-0.279166667,1,0,0,0.702,button_right_main,0.313888889,-0.279166667,1,0,0,,0,111,111,42,1,CHAIN,C,old,m,./images/CHAIN.png,,,,,,,,,,,,,,,,,,,,,,,,,,,,,,,,,
,,,,,,,,,,,,,,,,,615542e63024889a5c432983,30,2022-02-12_17h42.55.075,lexical_decision_task_DD_L4,2021.2.3,Linux aarch64,59.80861244,,,,,,,,,,0.719,1,,,,,,,,,,,,,,,0,-0.347222222,-0.268055556,1,0,0,0.719,button_left_main,-0.347222222,-0.268055556,1,0,0,,0,112,112,134,1,TROSS,LB,old,z,./images/TROSSLB.png,,,,,,,,,,,,,,,,,,,,,,,,,,,,,,,,,
,,,,,,,,,,,,,,,,,615542e63024889a5c432983,30,2022-02-12_17h42.55.075,lexical_decision_task_DD_L4,2021.2.3,Linux aarch64,59.80861244,,,,,,,,,,0.606,1,,,,,,,,,,,,,,,0,0.313888889,-0.273611111,1,0,0,0.606,button_right_main,0.313888889,-0.273611111,1,0,0,,0,113,113,74,1,JUMPER,LB,old,m,./images/JUMPERLB.png,,,,,,,,,,,,,,,,,,,,,,,,,,,,,,,,,
,,,,,,,,,,,,,,,,,615542e63024889a5c432983,30,2022-02-12_17h42.55.075,lexical_decision_task_DD_L4,2021.2.3,Linux aarch64,59.80861244,,,,,,,,,,1,1,,,,,,,,,,,,,,,0,-0.352777778,-0.281944444,1,0,0,1,button_left_main,-0.352777778,-0.281944444,1,0,0,,0,114,114,118,1,BAVEL,HB,old,z,./images/BAVELHB.png,,,,,,,,,,,,,,,,,,,,,,,,,,,,,,,,,
,,,,,,,,,,,,,,,,,615542e63024889a5c432983,30,2022-02-12_17h42.55.075,lexical_decision_task_DD_L4,2021.2.3,Linux aarch64,59.80861244,,,,,,,,,,1.147,1,,,,,,,,,,,,,,,0,-0.330555556,-0.290277778,1,0,0,1.147,button_left_main,-0.330555556,-0.290277778,1,0,0,,0,115,115,124,1,TUNCH,HB,old,z,./images/TUNCHHB.png,,,,,,,,,,,,,,,,,,,,,,,,,,,,,,,,,
,,,,,,,,,,,,,,,,,615542e63024889a5c432983,30,2022-02-12_17h42.55.075,lexical_decision_task_DD_L4,2021.2.3,Linux aarch64,59.80861244,,,,,,,,,,0.73,1,,,,,,,,,,,,,,,0,0.316666667,-0.273611111,1,0,0,0.73,button_right_main,0.316666667,-0.273611111,1,0,0,,0,116,116,69,1,ARROW,C,old,m,./images/ARROW.png,,,,,,,,,,,,,,,,,,,,,,,,,,,,,,,,,
,,,,,,,,,,,,,,,,,615542e63024889a5c432983,30,2022-02-12_17h42.55.075,lexical_decision_task_DD_L4,2021.2.3,Linux aarch64,59.80861244,,,,,,,,,,0.621,1,,,,,,,,,,,,,,,0,0.313888889,-0.2625,1,0,0,0.621,button_right_main,0.313888889,-0.2625,1,0,0,,0,117,117,36,1,BOILER,C,old,m,./images/BOILER.png,,,,,,,,,,,,,,,,,,,,,,,,,,,,,,,,,
,,,,,,,,,,,,,,,,,615542e63024889a5c432983,30,2022-02-12_17h42.55.075,lexical_decision_task_DD_L4,2021.2.3,Linux aarch64,59.80861244,,,,,,,,,,0.695,1,,,,,,,,,,,,,,,0,0.3,-0.270833333,1,0,0,0.695,button_right_main,0.3,-0.270833333,1,0,0,,0,118,118,53,1,POSTER,LB,old,m,./images/POSTERLB.png,,,,,,,,,,,,,,,,,,,,,,,,,,,,,,,,,
,,,,,,,,,,,,,,,,,615542e63024889a5c432983,30,2022-02-12_17h42.55.075,lexical_decision_task_DD_L4,2021.2.3,Linux aarch64,59.80861244,,,,,,,,,,0.747,1,,,,,,,,,,,,,,,0,0.302777778,-0.279166667,1,0,0,0.747,button_right_main,0.302777778,-0.279166667,1,0,0,,0,119,119,73,1,GLOVE,HB,old,m,./images/GLOVEHB.png,,,,,,,,,,,,,,,,,,,,,,,,,,,,,,,,,
,,,,,,,,,,,,,,,,,615542e63024889a5c432983,30,2022-02-12_17h42.55.075,lexical_decision_task_DD_L4,2021.2.3,Linux aarch64,59.80861244,,,,,,,,,,0.914,1,,,,,,,,,,,,,,,0,-0.338888889,-0.279166667,1,0,0,0.914,button_left_main,-0.338888889,-0.279166667,1,0,0,,0,120,120,130,1,CRILL,HB,old,z,./images/CRILLHB.png,,,,,,,,,,,,,,,,,,,,,,,,,,,,,,,,,
,,,,,,,,,,,,,,,,,615542e63024889a5c432983,30,2022-02-12_17h42.55.075,lexical_decision_task_DD_L4,2021.2.3,Linux aarch64,59.80861244,,,,,,,,,,0.933,1,,,,,,,,,,,,,,,0,-0.338888889,-0.281944444,1,0,0,0.933,button_left_main,-0.338888889,-0.281944444,1,0,0,,0,121,121,123,1,SEDGE,C,old,z,./images/SEDGE.png,,,,,,,,,,,,,,,,,,,,,,,,,,,,,,,,,
,,,,,,,,,,,,,,,,,615542e63024889a5c432983,30,2022-02-12_17h42.55.075,lexical_decision_task_DD_L4,2021.2.3,Linux aarch64,59.80861244,,,,,,,,,,1.052,1,,,,,,,,,,,,,,,0,-0.336111111,-0.284722222,1,0,0,1.052,button_left_main,-0.336111111,-0.284722222,1,0,0,,0,122,122,149,1,VEASE,LB,old,z,./images/VEASELB.png,,,,,,,,,,,,,,,,,,,,,,,,,,,,,,,,,
,,,,,,,,,,,,,,,,,615542e63024889a5c432983,30,2022-02-12_17h42.55.075,lexical_decision_task_DD_L4,2021.2.3,Linux aarch64,59.80861244,,,,,,,,,,0.793,1,,,,,,,,,,,,,,,0,0.311111111,-0.290277778,1,0,0,0.793,button_right_main,0.311111111,-0.290277778,1,0,0,,0,123,123,20,1,GRANNY,LB,old,m,./images/GRANNYLB.png,,,,,,,,,,,,,,,,,,,,,,,,,,,,,,,,,
,,,,,,,,,,,,,,,,,615542e63024889a5c432983,30,2022-02-12_17h42.55.075,lexical_decision_task_DD_L4,2021.2.3,Linux aarch64,59.80861244,,,,,,,,,,0.68,1,,,,,,,,,,,,,,,0,0.308333333,-0.293055556,1,0,0,0.68,button_right_main,0.308333333,-0.293055556,1,0,0,,0,124,124,35,1,LLAMA,LB,old,m,./images/LLAMALB.png,,,,,,,,,,,,,,,,,,,,,,,,,,,,,,,,,
,,,,,,,,,,,,,,,,,615542e63024889a5c432983,30,2022-02-12_17h42.55.075,lexical_decision_task_DD_L4,2021.2.3,Linux aarch64,59.80861244,,,,,,,,,,1.084,0,,,,,,,,,,,,,,,0,-0.341666667,-0.301388889,1,0,0,1.084,button_left_main,0.086111111,-0.384722222,1,0,0,,0,125,125,37,1,TIGER,HB,old,m,./images/TIGERHB.png,break_done_button,,,,,,,,,,,,,,,,,,,,,,,,,,,,,,,,
,,,,,,,,,,,,,,,,,615542e63024889a5c432983,30,2022-02-12_17h42.55.075,lexical_decision_task_DD_L4,2021.2.3,Linux aarch64,59.80861244,,,,,,,,,,0.723,1,,,,,,,,,,,,,,,0,-0.372222222,-0.298611111,1,0,0,0.723,button_left_main,-0.372222222,-0.298611111,1,0,0,,0,126,126,101,1,GLEET,LB,old,z,./images/GLEETLB.png,,,,,,,,,,,,,,,,,,,,,,,,,,,,,,,,,
,,,,,,,,,,,,,,,,,615542e63024889a5c432983,30,2022-02-12_17h42.55.075,lexical_decision_task_DD_L4,2021.2.3,Linux aarch64,59.80861244,,,,,,,,,,0.879,1,,,,,,,,,,,,,,,0,0.333333333,-0.2625,1,0,0,0.879,button_right_main,0.333333333,-0.2625,1,0,0,,0,127,127,82,1,PEBBLE,HB,old,m,./images/PEBBLEHB.png,,,,,,,,,,,,,,,,,,,,,,,,,,,,,,,,,
,,,,,,,,,,,,,,,,,615542e63024889a5c432983,30,2022-02-12_17h42.55.075,lexical_decision_task_DD_L4,2021.2.3,Linux aarch64,59.80861244,,,,,,,,,,0.871,1,,,,,,,,,,,,,,,0,-0.369444444,-0.295833333,1,0,0,0.871,button_left_main,-0.369444444,-0.295833333,1,0,0,,0,128,128,148,1,JOMS,HB,old,z,./images/JOMSHB.png,,,,,,,,,,,,,,,,,,,,,,,,,,,,,,,,,
,,,,,,,,,,,,,,,,,615542e63024889a5c432983,30,2022-02-12_17h42.55.075,lexical_decision_task_DD_L4,2021.2.3,Linux aarch64,59.80861244,,,,,,,,,,0.834,1,,,,,,,,,,,,,,,0,-0.358333333,-0.295833333,1,0,0,0.834,button_left_main,-0.358333333,-0.295833333,1,0,0,,0,129,129,91,1,SHENS,HB,old,z,./images/SHENSHB.png,,,,,,,,,,,,,,,,,,,,,,,,,,,,,,,,,
,,,,,,,,,,,,,,,,,615542e63024889a5c432983,30,2022-02-12_17h42.55.075,lexical_decision_task_DD_L4,2021.2.3,Linux aarch64,59.80861244,,,,,,,,,,0.574,1,,,,,,,,,,,,,,,0,0.319444444,-0.268055556,1,0,0,0.574,button_right_main,0.319444444,-0.268055556,1,0,0,,0,130,130,72,1,FLASK,C,old,m,./images/FLASK.png,,,,,,,,,,,,,,,,,,,,,,,,,,,,,,,,,
,,,,,,,,,,,,,,,,,615542e63024889a5c432983,30,2022-02-12_17h42.55.075,lexical_decision_task_DD_L4,2021.2.3,Linux aarch64,59.80861244,,,,,,,,,,0.694,1,,,,,,,,,,,,,,,0,-0.358333333,-0.2875,1,0,0,0.694,button_left_main,-0.358333333,-0.2875,1,0,0,,0,131,131,156,1,HIXES,C,old,z,./images/HIXES.png,,,,,,,,,,,,,,,,,,,,,,,,,,,,,,,,,
,,,,,,,,,,,,,,,,,615542e63024889a5c432983,30,2022-02-12_17h42.55.075,lexical_decision_task_DD_L4,2021.2.3,Linux aarch64,59.80861244,,,,,,,,,,0.96,1,,,,,,,,,,,,,,,0,-0.366666667,-0.2875,1,0,0,0.96,button_left_main,-0.366666667,-0.2875,1,0,0,,0,132,132,94,1,BLANS,HB,old,z,./images/BLANSHB.png,,,,,,,,,,,,,,,,,,,,,,,,,,,,,,,,,
,,,,,,,,,,,,,,,,,615542e63024889a5c432983,30,2022-02-12_17h42.55.075,lexical_decision_task_DD_L4,2021.2.3,Linux aarch64,59.80861244,,,,,,,,,,0.815,1,,,,,,,,,,,,,,,0,-0.352777778,-0.2875,1,0,0,0.815,button_left_main,-0.352777778,-0.2875,1,0,0,,0,133,133,144,1,NAIRY,C,old,z,./images/NAIRY.png,,,,,,,,,,,,,,,,,,,,,,,,,,,,,,,,,
,,,,,,,,,,,,,,,,,615542e63024889a5c432983,30,2022-02-12_17h42.55.075,lexical_decision_task_DD_L4,2021.2.3,Linux aarch64,59.80861244,,,,,,,,,,0.619,1,,,,,,,,,,,,,,,0,0.308333333,-0.259722222,1,0,0,0.619,button_right_main,0.308333333,-0.259722222,1,0,0,,0,134,134,5,1,BAMBOO,LB,old,m,./images/BAMBOOLB.png,,,,,,,,,,,,,,,,,,,,,,,,,,,,,,,,,
,,,,,,,,,,,,,,,,,615542e63024889a5c432983,30,2022-02-12_17h42.55.075,lexical_decision_task_DD_L4,2021.2.3,Linux aarch64,59.80861244,,,,,,,,,,0.723,1,,,,,,,,,,,,,,,0,-0.361111111,-0.281944444,1,0,0,0.723,button_left_main,-0.361111111,-0.281944444,1,0,0,,0,135,135,92,1,PAIMS,LB,old,z,./images/PAIMSLB.png,,,,,,,,,,,,,,,,,,,,,,,,,,,,,,,,,
,,,,,,,,,,,,,,,,,615542e63024889a5c432983,30,2022-02-12_17h42.55.075,lexical_decision_task_DD_L4,2021.2.3,Linux aarch64,59.80861244,,,,,,,,,,0.805,1,,,,,,,,,,,,,,,0,-0.35,-0.2875,1,0,0,0.805,button_left_main,-0.35,-0.2875,1,0,0,,0,136,136,98,1,BAMPS,LB,old,z,./images/BAMPSLB.png,,,,,,,,,,,,,,,,,,,,,,,,,,,,,,,,,
,,,,,,,,,,,,,,,,,615542e63024889a5c432983,30,2022-02-12_17h42.55.075,lexical_decision_task_DD_L4,2021.2.3,Linux aarch64,59.80861244,,,,,,,,,,0.692,1,,,,,,,,,,,,,,,0,0.322222222,-0.2625,1,0,0,0.692,button_right_main,0.322222222,-0.2625,1,0,0,,0,137,137,6,1,STAIN,C,old,m,./images/STAIN.png,,,,,,,,,,,,,,,,,,,,,,,,,,,,,,,,,
,,,,,,,,,,,,,,,,,615542e63024889a5c432983,30,2022-02-12_17h42.55.075,lexical_decision_task_DD_L4,2021.2.3,Linux aarch64,59.80861244,,,,,,,,,,0.683,1,,,,,,,,,,,,,,,0,-0.352777778,-0.284722222,1,0,0,0.683,button_left_main,-0.352777778,-0.284722222,1,0,0,,0,138,138,90,1,NEAST,C,old,z,./images/NEAST.png,,,,,,,,,,,,,,,,,,,,,,,,,,,,,,,,,
,,,,,,,,,,,,,,,,,615542e63024889a5c432983,30,2022-02-12_17h42.55.075,lexical_decision_task_DD_L4,2021.2.3,Linux aarch64,59.80861244,,,,,,,,,,0.967,1,,,,,,,,,,,,,,,0,0.322222222,-0.273611111,1,0,0,0.967,button_right_main,0.322222222,-0.273611111,1,0,0,,0,139,139,13,1,BUNNY,HB,old,m,./images/BUNNYHB.png,,,,,,,,,,,,,,,,,,,,,,,,,,,,,,,,,
,,,,,,,,,,,,,,,,,615542e63024889a5c432983,30,2022-02-12_17h42.55.075,lexical_decision_task_DD_L4,2021.2.3,Linux aarch64,59.80861244,,,,,,,,,,0.717,1,,,,,,,,,,,,,,,0,-0.361111111,-0.279166667,1,0,0,0.717,button_left_main,-0.361111111,-0.279166667,1,0,0,,0,140,140,96,1,KEAMS,C,old,z,./images/KEAMS.png,,,,,,,,,,,,,,,,,,,,,,,,,,,,,,,,,
,,,,,,,,,,,,,,,,,615542e63024889a5c432983,30,2022-02-12_17h42.55.075,lexical_decision_task_DD_L4,2021.2.3,Linux aarch64,59.80861244,,,,,,,,,,0.697,1,,,,,,,,,,,,,,,0,0.327777778,-0.273611111,1,0,0,0.697,button_right_main,0.327777778,-0.273611111,1,0,0,,0,141,141,52,1,DESERT,HB,old,m,./images/DESERTHB.png,,,,,,,,,,,,,,,,,,,,,,,,,,,,,,,,,
,,,,,,,,,,,,,,,,,615542e63024889a5c432983,30,2022-02-12_17h42.55.075,lexical_decision_task_DD_L4,2021.2.3,Linux aarch64,59.80861244,,,,,,,,,,0.896,0,,,,,,,,,,,,,,,0,-0.35,-0.2875,1,0,0,0.896,button_left_main,-0.35,-0.2875,1,0,0,,0,142,142,4,1,BOXER,HB,old,m,./images/BOXERHB.png,,,,,,,,,,,,,,,,,,,,,,,,,,,,,,,,,
,,,,,,,,,,,,,,,,,615542e63024889a5c432983,30,2022-02-12_17h42.55.075,lexical_decision_task_DD_L4,2021.2.3,Linux aarch64,59.80861244,,,,,,,,,,1.406,1,,,,,,,,,,,,,,,0,-0.333333333,-0.281944444,1,0,0,1.406,button_left_main,-0.333333333,-0.281944444,1,0,0,,0,143,143,109,1,BURGE,HB,old,z,./images/BURGEHB.png,,,,,,,,,,,,,,,,,,,,,,,,,,,,,,,,,
,,,,,,,,,,,,,,,,,615542e63024889a5c432983,30,2022-02-12_17h42.55.075,lexical_decision_task_DD_L4,2021.2.3,Linux aarch64,59.80861244,,,,,,,,,,0.745,1,,,,,,,,,,,,,,,0,0.319444444,-0.268055556,1,0,0,0.745,button_right_main,0.319444444,-0.268055556,1,0,0,,0,144,144,34,1,RAZOR,HB,old,m,./images/RAZORHB.png,,,,,,,,,,,,,,,,,,,,,,,,,,,,,,,,,
,,,,,,,,,,,,,,,,,615542e63024889a5c432983,30,2022-02-12_17h42.55.075,lexical_decision_task_DD_L4,2021.2.3,Linux aarch64,59.80861244,,,,,,,,,,0.673,1,,,,,,,,,,,,,,,0,0.319444444,-0.268055556,1,0,0,0.673,button_right_main,0.319444444,-0.268055556,1,0,0,,0,145,145,7,1,WAGON,HB,old,m,./images/WAGONHB.png,,,,,,,,,,,,,,,,,,,,,,,,,,,,,,,,,
,,,,,,,,,,,,,,,,,615542e63024889a5c432983,30,2022-02-12_17h42.55.075,lexical_decision_task_DD_L4,2021.2.3,Linux aarch64,59.80861244,,,,,,,,,,0.76,1,,,,,,,,,,,,,,,0,-0.341666667,-0.2875,1,0,0,0.76,button_left_main,-0.341666667,-0.2875,1,0,0,,0,146,146,160,1,VEETS,HB,old,z,./images/VEETSHB.png,,,,,,,,,,,,,,,,,,,,,,,,,,,,,,,,,
,,,,,,,,,,,,,,,,,615542e63024889a5c432983,30,2022-02-12_17h42.55.075,lexical_decision_task_DD_L4,2021.2.3,Linux aarch64,59.80861244,,,,,,,,,,0.647,1,,,,,,,,,,,,,,,0,0.316666667,-0.265277778,1,0,0,0.647,button_right_main,0.316666667,-0.265277778,1,0,0,,0,147,147,25,1,CHALK,HB,old,m,./images/CHALKHB.png,,,,,,,,,,,,,,,,,,,,,,,,,,,,,,,,,
,,,,,,,,,,,,,,,,,615542e63024889a5c432983,30,2022-02-12_17h42.55.075,lexical_decision_task_DD_L4,2021.2.3,Linux aarch64,59.80861244,,,,,,,,,,0.668,1,,,,,,,,,,,,,,,0,0.313888889,-0.284722222,1,0,0,0.668,button_right_main,0.313888889,-0.284722222,1,0,0,,0,148,148,15,1,COLLAR,C,old,m,./images/COLLAR.png,,,,,,,,,,,,,,,,,,,,,,,,,,,,,,,,,
,,,,,,,,,,,,,,,,,615542e63024889a5c432983,30,2022-02-12_17h42.55.075,lexical_decision_task_DD_L4,2021.2.3,Linux aarch64,59.80861244,,,,,,,,,,0.701,1,,,,,,,,,,,,,,,0,-0.35,-0.273611111,1,0,0,0.701,button_left_main,-0.35,-0.273611111,1,0,0,,0,149,149,102,1,DULLE,C,old,z,./images/DULLE.png,,,,,,,,,,,,,,,,,,,,,,,,,,,,,,,,,
,,,,,,,,,,,,,,,,,615542e63024889a5c432983,30,2022-02-12_17h42.55.075,lexical_decision_task_DD_L4,2021.2.3,Linux aarch64,59.80861244,,,,,,,,,,0.677,0,,,,,,,,,,,,,,,0,0.316666667,-0.276388889,1,0,0,0.677,button_right_main,0.316666667,-0.276388889,1,0,0,,0,150,150,140,1,DOVET,LB,old,z,./images/DOVETLB.png,,,,,,,,,,,,,,,,,,,,,,,,,,,,,,,,,
,,,,,,,,,,,,,,,,,615542e63024889a5c432983,30,2022-02-12_17h42.55.075,lexical_decision_task_DD_L4,2021.2.3,Linux aarch64,59.80861244,,,,,,,,,,0.896,1,,,,,,,,,,,,,,,0,-0.338888889,-0.279166667,1,0,0,0.896,button_left_main,-0.338888889,-0.279166667,1,0,0,,0,151,151,162,1,LEICH,C,old,z,./images/LEICH.png,,,,,,,,,,,,,,,,,,,,,,,,,,,,,,,,,
,,,,,,,,,,,,,,,,,615542e63024889a5c432983,30,2022-02-12_17h42.55.075,lexical_decision_task_DD_L4,2021.2.3,Linux aarch64,59.80861244,,,,,,,,,,0.632,1,,,,,,,,,,,,,,,0,0.322222222,-0.270833333,1,0,0,0.632,button_right_main,0.322222222,-0.270833333,1,0,0,,0,152,152,71,1,BUBBLE,LB,old,m,./images/BUBBLELB.png,,,,,,,,,,,,,,,,,,,,,,,,,,,,,,,,,
,,,,,,,,,,,,,,,,,615542e63024889a5c432983,30,2022-02-12_17h42.55.075,lexical_decision_task_DD_L4,2021.2.3,Linux aarch64,59.80861244,,,,,,,,,,1.337,1,,,,,,,,,,,,,,,0,-0.338888889,-0.281944444,1,0,0,1.337,button_left_main,-0.338888889,-0.281944444,1,0,0,,0,153,153,87,1,TRING,C,old,z,./images/TRING.png,,,,,,,,,,,,,,,,,,,,,,,,,,,,,,,,,
,,,,,,,,,,,,,,,,,615542e63024889a5c432983,30,2022-02-12_17h42.55.075,lexical_decision_task_DD_L4,2021.2.3,Linux aarch64,59.80861244,,,,,,,,,,0.734,1,,,,,,,,,,,,,,,0,-0.341666667,-0.279166667,1,0,0,0.734,button_left_main,-0.341666667,-0.279166667,1,0,0,,0,154,154,89,1,DRIEK,LB,old,z,./images/DRIEKLB.png,,,,,,,,,,,,,,,,,,,,,,,,,,,,,,,,,
,,,,,,,,,,,,,,,,,615542e63024889a5c432983,30,2022-02-12_17h42.55.075,lexical_decision_task_DD_L4,2021.2.3,Linux aarch64,59.80861244,,,,,,,,,,0.814,1,,,,,,,,,,,,,,,0,0.311111111,-0.270833333,1,0,0,0.814,button_right_main,0.311111111,-0.270833333,1,0,0,,0,155,155,76,1,MIDGET,HB,old,m,./images/MIDGETHB.png,,,,,,,,,,,,,,,,,,,,,,,,,,,,,,,,,
,,,,,,,,,,,,,,,,,615542e63024889a5c432983,30,2022-02-12_17h42.55.075,lexical_decision_task_DD_L4,2021.2.3,Linux aarch64,59.80861244,,,,,,,,,,0.747,1,,,,,,,,,,,,,,,0,-0.333333333,-0.284722222,1,0,0,0.747,button_left_main,-0.333333333,-0.284722222,1,0,0,,0,156,156,122,1,BLOOT,LB,old,z,./images/BLOOTLB.png,,,,,,,,,,,,,,,,,,,,,,,,,,,,,,,,,
,,,,,,,,,,,,,,,,,615542e63024889a5c432983,30,2022-02-12_17h42.55.075,lexical_decision_task_DD_L4,2021.2.3,Linux aarch64,59.80861244,,,,,,,,,,0.615,1,,,,,,,,,,,,,,,0,0.311111111,-0.268055556,1,0,0,0.615,button_right_main,0.311111111,-0.268055556,1,0,0,,0,157,157,60,1,CURRY,C,old,m,./images/CURRY.png,,,,,,,,,,,,,,,,,,,,,,,,,,,,,,,,,
,,,,,,,,,,,,,,,,,615542e63024889a5c432983,30,2022-02-12_17h42.55.075,lexical_decision_task_DD_L4,2021.2.3,Linux aarch64,59.80861244,,,,,,,,,,1.452,1,,,,,,,,,,,,,,,0,-0.338888889,-0.281944444,1,0,0,1.452,button_left_main,-0.338888889,-0.281944444,1,0,0,,0,158,158,154,1,THINT,HB,old,z,./images/THINTHB.png,,,,,,,,,,,,,,,,,,,,,,,,,,,,,,,,,
,,,,,,,,,,,,,,,,,615542e63024889a5c432983,30,2022-02-12_17h42.55.075,lexical_decision_task_DD_L4,2021.2.3,Linux aarch64,59.80861244,,,,,,,,,,1.062,1,,,,,,,,,,,,,,,0,-0.333333333,-0.284722222,1,0,0,1.062,button_left_main,-0.333333333,-0.284722222,1,0,0,,0,159,159,159,1,CUDDY,C,old,z,./images/CUDDY.png,,,,,,,,,,,,,,,,,,,,,,,,,,,,,,,,,
,,,,,,,,,,,,,,,,,615542e63024889a5c432983,30,2022-02-12_17h42.55.075,lexical_decision_task_DD_L4,2021.2.3,Linux aarch64,59.80861244,,,,,,,,,,0.681,1,,,,,,,,,,,,,,,0,0.308333333,-0.270833333,1,0,0,0.681,button_right_main,0.308333333,-0.270833333,1,0,0,,0,160,160,75,1,HAMMER,C,old,m,./images/HAMMER.png,,,,,,,,,,,,,,,,,,,,,,,,,,,,,,,,,
,,,,,,,,,,,,,,,,,615542e63024889a5c432983,30,2022-02-12_17h42.55.075,lexical_decision_task_DD_L4,2021.2.3,Linux aarch64,59.80861244,,,,,,,,,,0.772,1,,,,,,,,,,,,,,,0,-0.330555556,-0.284722222,1,0,0,0.772,button_left_main,-0.330555556,-0.284722222,1,0,0,,0,161,161,161,1,BLAPS,LB,old,z,./images/BLAPSLB.png,,,,,,,,,,,,,,,,,,,,,,,,,,,,,,,,,
,,,,,,,,,,,,,,,,,615542e63024889a5c432983,30,2022-02-12_17h42.55.075,lexical_decision_task_DD_L4,2021.2.3,Linux aarch64,59.80861244,,,,,,,,,,0.578,1,,,,,,,,,,,,,,,0,-0.330555556,-0.270833333,1,0,0,0.578,button_left_main,-0.330555556,-0.270833333,1,0,0,,0,162,162,135,1,JOODY,C,old,z,./images/JOODY.png,,,,,,,,,,,,,,,,,,,,,,,,,,,,,,,,,
,,,,,,,,,,,,,,,,,615542e63024889a5c432983,30,2022-02-12_17h42.55.075,lexical_decision_task_DD_L4,2021.2.3,Linux aarch64,59.80861244,,,,,,,,,,1.065,1,,,,,,,,,,,,,,,0,0.311111111,-0.2875,1,0,0,1.065,button_right_main,0.311111111,-0.2875,1,0,0,,0,163,163,46,1,MUMMY,HB,old,m,./images/MUMMYHB.png,,,,,,,,,,,,,,,,,,,,,,,,,,,,,,,,,
,,,,,,,,,,,,,,,,,615542e63024889a5c432983,30,2022-02-12_17h42.55.075,lexical_decision_task_DD_L4,2021.2.3,Linux aarch64,59.80861244,,,,,,,,,,0.652,1,,,,,,,,,,,,,,,0,0.313888889,-0.270833333,1,0,0,0.652,button_right_main,0.313888889,-0.270833333,1,0,0,,0,164,164,48,1,SHIELD,C,old,m,./images/SHIELD.png,,,,,,,,,,,,,,,,,,,,,,,,,,,,,,,,,
,,,,,,,,,,,,,,,,,615542e63024889a5c432983,30,2022-02-12_17h42.55.075,lexical_decision_task_DD_L4,2021.2.3,Linux aarch64,59.80861244,,,,,,,,,,0.81,1,,,,,,,,,,,,,,,0,0.313888889,-0.273611111,1,0,0,0.81,button_right_main,0.313888889,-0.273611111,1,0,0,,0,165,165,1,1,TOWEL,HB,old,m,./images/TOWELHB.png,,,,,,,,,,,,,,,,,,,,,,,,,,,,,,,,,
,,,,,,,,,,,,,,,,,615542e63024889a5c432983,30,2022-02-12_17h42.55.075,lexical_decision_task_DD_L4,2021.2.3,Linux aarch64,59.80861244,,,,,,,,,,0.664,1,,,,,,,,,,,,,,,0,0.313888889,-0.265277778,1,0,0,0.664,button_right_main,0.313888889,-0.265277778,1,0,0,,0,166,166,61,1,ARTIST,HB,old,m,./images/ARTISTHB.png,,,,,,,,,,,,,,,,,,,,,,,,,,,,,,,,,
,,,,,,,,,,,,,,,,,615542e63024889a5c432983,30,2022-02-12_17h42.55.075,lexical_decision_task_DD_L4,2021.2.3,Linux aarch64,59.80861244,,,,,,,,,,0.565,1,,,,,,,,,,,,,,,0,0.322222222,-0.284722222,1,0,0,0.565,button_right_main,0.322222222,-0.284722222,1,0,0,,0,167,167,2,1,STOVE,LB,old,m,./images/STOVELB.png,,,,,,,,,,,,,,,,,,,,,,,,,,,,,,,,,
,,,,,,,,,,,,,,,,,615542e63024889a5c432983,30,2022-02-12_17h42.55.075,lexical_decision_task_DD_L4,2021.2.3,Linux aarch64,59.80861244,,,,,,,,,,,,,,,,,,,,,,,,,,,,,,,,,,,,,,,,,,,,,,How likely will it be that you will recognize the words presented slighly blurred on a scale of 0 (not likely) to 100 (most likely)?,,,,,0.002777778,-0.3875,1,0,0,jol_adv,5,6.369,0,0,0,1,1,,,,,,,,,,,,,,,,,,,
,,,,,,,,,,,,,,,,,615542e63024889a5c432983,30,2022-02-12_17h42.55.075,lexical_decision_task_DD_L4,2021.2.3,Linux aarch64,59.80861244,,,,,,,,,,,,,,,,,,,,,,,,,,,,,,,,,,,,,,,,,,,,,,How likely will it be that you will recognize the words presented very blurred on a scale of 0 (not likely) to 100 (most likely)?,,,,,,,,,,,3,3.899,0,1,1,2,1,,,,,,,,,,,,,,,,,,,
,,,,,,,,,,,,,,,,,615542e63024889a5c432983,30,2022-02-12_17h42.55.075,lexical_decision_task_DD_L4,2021.2.3,Linux aarch64,59.80861244,,,,,,,,,,,,,,,,,,,,,,,,,,,,,,,,,,,,,,,,,,,,,,How likely will it be that you will recognize the words presented clearly on a scale of 0 (not likely) to 100 (most likely)?,,,,,,,,,,,6,3.912,0,2,2,0,1,,,,,,,,,,,,,,,,,,,
,0.061111111,-0.406944444,1,0,0,instr_done_button,,,,,,1,test,"In the next phase you will be presented with the words from the the first phase. Your job is to decide whether you remember seeing the word or not. If you remember seeing the word press ""old"" or type ""m"". If you do not remember seeing the word press ""new"" or type ""z"". Please press the space bar or click on continue to begin. ",,,615542e63024889a5c432983,30,2022-02-12_17h42.55.075,lexical_decision_task_DD_L4,2021.2.3,Linux aarch64,59.80861244,,,,,,,,,,,,,,,,,,,,,,,,,,,,,,,,,,,,,,,,,,,,,,,,,,,,,,,,,,,,,,,,0,0,0,0,1,,,,,,,,,,,,,,
,0.091666667,-0.406944444,1,0,0,instr_done_button,,,,,,1,test,"In the next phase you will be presented with the words from the the first phase. Your job is to decide whether you remember seeing the word or not. If you remember seeing the word press ""old"" or type ""m"". If you do not remember seeing the word press ""new"" or type ""z"". Please press the space bar or click on continue to begin. ",,,615542e63024889a5c432983,30,2022-02-12_17h42.55.075,lexical_decision_task_DD_L4,2021.2.3,Linux aarch64,59.80861244,,,,,,,,,,,,,,,,,,,,,,,,,,,,,,,,,,,,,,,,,,,,,,,,,,,,,,,,,,,,,,,,1,0,1,0,1,,,,,,,,,,,,,,
,0.016666667,-0.415277778,1,0,0,instr_done_button,,,,,,1,test,"In the next phase you will be presented with the words from the the first phase. Your job is to decide whether you remember seeing the word or not. If you remember seeing the word press ""old"" or type ""m"". If you do not remember seeing the word press ""new"" or type ""z"". Please press the space bar or click on continue to begin. ",,,615542e63024889a5c432983,30,2022-02-12_17h42.55.075,lexical_decision_task_DD_L4,2021.2.3,Linux aarch64,59.80861244,,,,,,,,,,,,,,,,,,,,,,,,,,,,,,,,,,,,,,,,,,,,,,,,,,,,,,,,,,,,,,,,2,0,2,0,1,,,,,,,,,,,,,,
,0.077777778,-0.434722222,1,0,0,instr_done_button,,,,,,1,test,"In the next phase you will be presented with the words from the the first phase. Your job is to decide whether you remember seeing the word or not. If you remember seeing the word press ""old"" or type ""m"". If you do not remember seeing the word press ""new"" or type ""z"". Please press the space bar or click on continue to begin. ",,,615542e63024889a5c432983,30,2022-02-12_17h42.55.075,lexical_decision_task_DD_L4,2021.2.3,Linux aarch64,59.80861244,,,,,,,,,,,,,,,,,,,,,,,,,,,,,,,,,,,,,,,,,,,,,,,,,,,,,,,,,,,,,,,,3,0,3,0,1,,,,,,,,,,,,,,
,0.033333333,-0.3875,1,0,0,instr_done_button,,,,,,1,test,"In the next phase you will be presented with the words from the the first phase. Your job is to decide whether you remember seeing the word or not. If you remember seeing the word press ""old"" or type ""m"". If you do not remember seeing the word press ""new"" or type ""z"". Please press the space bar or click on continue to begin. ",,,615542e63024889a5c432983,30,2022-02-12_17h42.55.075,lexical_decision_task_DD_L4,2021.2.3,Linux aarch64,59.80861244,,,,,,,,,,,,,,,,,,,,,,,,,,,,,,,,,,,,,,,,,,,,,,,,,,,,,,,,,,,,,,,,4,0,4,0,1,,,,,,,,,,,,,,
,,,,,,,,,,,,,,,,,615542e63024889a5c432983,30,2022-02-12_17h42.55.075,lexical_decision_task_DD_L4,2021.2.3,Linux aarch64,59.80861244,,,,,,,,,,1.438,1,,,,,,,,,,,,,,,,,,,,,,,-0.341666667,-0.323611111,1,0,0,,,,,,,STORM,C,z,y,./images/STORM.png,,,,,,,,,,,,,,,,,,,,,0,-0.341666667,-0.323611111,1,0,0,1.438,button_left_test,0,0,0,114,1
,,,,,,,,,,,,,,,,,615542e63024889a5c432983,30,2022-02-12_17h42.55.075,lexical_decision_task_DD_L4,2021.2.3,Linux aarch64,59.80861244,,,,,,,,,,1.127,1,,,,,,,,,,,,,,,,,,,,,,,0.430555556,-0.323611111,1,0,0,,,,,,,CLIFF,LB,m,y,./images/CLIFFLB.png,,,,,,,,,,,,,,,,,,,,,0,0.430555556,-0.323611111,1,0,0,1.127,button_right_test,0,1,1,8,1
,,,,,,,,,,,,,,,,,615542e63024889a5c432983,30,2022-02-12_17h42.55.075,lexical_decision_task_DD_L4,2021.2.3,Linux aarch64,59.80861244,,,,,,,,,,0.655,1,,,,,,,,,,,,,,,,,,,,,,,0.355555556,-0.295833333,1,0,0,,,,,,,GRAPE,HB,m,y,./images/GRAPEHB.png,,,,,,,,,,,,,,,,,,,,,0,0.355555556,-0.295833333,1,0,0,0.655,button_right_test,0,2,2,16,1
,,,,,,,,,,,,,,,,,615542e63024889a5c432983,30,2022-02-12_17h42.55.075,lexical_decision_task_DD_L4,2021.2.3,Linux aarch64,59.80861244,,,,,,,,,,0.864,1,,,,,,,,,,,,,,,,,,,,,,,0.35,-0.2875,1,0,0,,,,,,,GRANNY,LB,m,y,./images/GRANNYLB.png,,,,,,,,,,,,,,,,,,,,,0,0.35,-0.2875,1,0,0,0.864,button_right_test,0,3,3,20,1
,,,,,,,,,,,,,,,,,615542e63024889a5c432983,30,2022-02-12_17h42.55.075,lexical_decision_task_DD_L4,2021.2.3,Linux aarch64,59.80861244,,,,,,,,,,0.641,1,,,,,,,,,,,,,,,,,,,,,,,0.352777778,-0.279166667,1,0,0,,,,,,,STAIN,C,m,y,./images/STAIN.png,,,,,,,,,,,,,,,,,,,,,0,0.352777778,-0.279166667,1,0,0,0.641,button_right_test,0,4,4,6,1
,,,,,,,,,,,,,,,,,615542e63024889a5c432983,30,2022-02-12_17h42.55.075,lexical_decision_task_DD_L4,2021.2.3,Linux aarch64,59.80861244,,,,,,,,,,0.588,1,,,,,,,,,,,,,,,,,,,,,,,0.344444444,-0.2875,1,0,0,,,,,,,SLOPE,C,m,y,./images/SLOPE.png,,,,,,,,,,,,,,,,,,,,,0,0.344444444,-0.2875,1,0,0,0.588,button_right_test,0,5,5,30,1
,,,,,,,,,,,,,,,,,615542e63024889a5c432983,30,2022-02-12_17h42.55.075,lexical_decision_task_DD_L4,2021.2.3,Linux aarch64,59.80861244,,,,,,,,,,0.907,1,,,,,,,,,,,,,,,,,,,,,,,-0.361111111,-0.315277778,1,0,0,,,,,,,SWING,HB,z,y,./images/SWINGHB.png,,,,,,,,,,,,,,,,,,,,,0,-0.361111111,-0.315277778,1,0,0,0.907,button_left_test,0,6,6,124,1
,,,,,,,,,,,,,,,,,615542e63024889a5c432983,30,2022-02-12_17h42.55.075,lexical_decision_task_DD_L4,2021.2.3,Linux aarch64,59.80861244,,,,,,,,,,0.775,0,,,,,,,,,,,,,,,,,,,,,,,0.341666667,-0.273611111,1,0,0,,,,,,,CRUST,HB,z,y,./images/CRUSTHB.png,,,,,,,,,,,,,,,,,,,,,0,0.341666667,-0.273611111,1,0,0,0.775,button_right_test,0,7,7,163,1
,,,,,,,,,,,,,,,,,615542e63024889a5c432983,30,2022-02-12_17h42.55.075,lexical_decision_task_DD_L4,2021.2.3,Linux aarch64,59.80861244,,,,,,,,,,0.883,1,,,,,,,,,,,,,,,,,,,,,,,-0.358333333,-0.273611111,1,0,0,,,,,,,JELLY,HB,z,y,./images/JELLYHB.png,,,,,,,,,,,,,,,,,,,,,0,-0.358333333,-0.273611111,1,0,0,0.883,button_left_test,0,8,8,148,1
,,,,,,,,,,,,,,,,,615542e63024889a5c432983,30,2022-02-12_17h42.55.075,lexical_decision_task_DD_L4,2021.2.3,Linux aarch64,59.80861244,,,,,,,,,,0.647,1,,,,,,,,,,,,,,,,,,,,,,,-0.333333333,-0.276388889,1,0,0,,,,,,,KITTEN,C,z,y,./images/KITTEN.png,,,,,,,,,,,,,,,,,,,,,0,-0.333333333,-0.276388889,1,0,0,0.647,button_left_test,0,9,9,129,1
,,,,,,,,,,,,,,,,,615542e63024889a5c432983,30,2022-02-12_17h42.55.075,lexical_decision_task_DD_L4,2021.2.3,Linux aarch64,59.80861244,,,,,,,,,,1.162,0,,,,,,,,,,,,,,,,,,,,,,,-0.361111111,-0.290277778,1,0,0,,,,,,,STEAK,HB,m,y,./images/STEAKHB.png,,,,,,,,,,,,,,,,,,,,,0,-0.361111111,-0.290277778,1,0,0,1.162,button_left_test,0,10,10,31,1
,,,,,,,,,,,,,,,,,615542e63024889a5c432983,30,2022-02-12_17h42.55.075,lexical_decision_task_DD_L4,2021.2.3,Linux aarch64,59.80861244,,,,,,,,,,0.894,1,,,,,,,,,,,,,,,,,,,,,,,-0.363888889,-0.279166667,1,0,0,,,,,,,MAGGOT,C,z,y,./images/MAGGOT.png,,,,,,,,,,,,,,,,,,,,,0,-0.363888889,-0.279166667,1,0,0,0.894,button_left_test,0,11,11,117,1
,,,,,,,,,,,,,,,,,615542e63024889a5c432983,30,2022-02-12_17h42.55.075,lexical_decision_task_DD_L4,2021.2.3,Linux aarch64,59.80861244,,,,,,,,,,0.732,0,,,,,,,,,,,,,,,,,,,,,,,-0.391666667,-0.268055556,1,0,0,,,,,,,MUMMY,HB,m,y,./images/MUMMYHB.png,,,,,,,,,,,,,,,,,,,,,0,-0.391666667,-0.268055556,1,0,0,0.732,button_left_test,0,12,12,46,1
,,,,,,,,,,,,,,,,,615542e63024889a5c432983,30,2022-02-12_17h42.55.075,lexical_decision_task_DD_L4,2021.2.3,Linux aarch64,59.80861244,,,,,,,,,,0.665,1,,,,,,,,,,,,,,,,,,,,,,,0.361111111,-0.231944444,1,0,0,,,,,,,CHALK,HB,m,y,./images/CHALKHB.png,,,,,,,,,,,,,,,,,,,,,0,0.361111111,-0.231944444,1,0,0,0.665,button_right_test,0,13,13,25,1
,,,,,,,,,,,,,,,,,615542e63024889a5c432983,30,2022-02-12_17h42.55.075,lexical_decision_task_DD_L4,2021.2.3,Linux aarch64,59.80861244,,,,,,,,,,0.812,1,,,,,,,,,,,,,,,,,,,,,,,-0.388888889,-0.259722222,1,0,0,,,,,,,JAGUAR,C,z,y,./images/JAGUAR.png,,,,,,,,,,,,,,,,,,,,,0,-0.388888889,-0.259722222,1,0,0,0.812,button_left_test,0,14,14,102,1
,,,,,,,,,,,,,,,,,615542e63024889a5c432983,30,2022-02-12_17h42.55.075,lexical_decision_task_DD_L4,2021.2.3,Linux aarch64,59.80861244,,,,,,,,,,0.862,1,,,,,,,,,,,,,,,,,,,,,,,-0.366666667,-0.248611111,1,0,0,,,,,,,SMOKER,LB,z,y,./images/SMOKERLB.png,,,,,,,,,,,,,,,,,,,,,0,-0.366666667,-0.248611111,1,0,0,0.862,button_left_test,0,15,15,110,1
,,,,,,,,,,,,,,,,,615542e63024889a5c432983,30,2022-02-12_17h42.55.075,lexical_decision_task_DD_L4,2021.2.3,Linux aarch64,59.80861244,,,,,,,,,,0.925,1,,,,,,,,,,,,,,,,,,,,,,,-0.363888889,-0.240277778,1,0,0,,,,,,,BABOON,HB,z,y,./images/BABOONHB.png,,,,,,,,,,,,,,,,,,,,,0,-0.363888889,-0.240277778,1,0,0,0.925,button_left_test,0,16,16,142,1
,,,,,,,,,,,,,,,,,615542e63024889a5c432983,30,2022-02-12_17h42.55.075,lexical_decision_task_DD_L4,2021.2.3,Linux aarch64,59.80861244,,,,,,,,,,0.763,1,,,,,,,,,,,,,,,,,,,,,,,0.355555556,-0.234722222,1,0,0,,,,,,,TIGER,HB,m,y,./images/TIGERHB.png,,,,,,,,,,,,,,,,,,,,,0,0.355555556,-0.234722222,1,0,0,0.763,button_right_test,0,17,17,37,1
,,,,,,,,,,,,,,,,,615542e63024889a5c432983,30,2022-02-12_17h42.55.075,lexical_decision_task_DD_L4,2021.2.3,Linux aarch64,59.80861244,,,,,,,,,,0.879,1,,,,,,,,,,,,,,,,,,,,,,,-0.377777778,-0.2375,1,0,0,,,,,,,TOMATO,C,z,y,./images/TOMATO.png,,,,,,,,,,,,,,,,,,,,,0,-0.377777778,-0.2375,1,0,0,0.879,button_left_test,0,18,18,84,1
,,,,,,,,,,,,,,,,,615542e63024889a5c432983,30,2022-02-12_17h42.55.075,lexical_decision_task_DD_L4,2021.2.3,Linux aarch64,59.80861244,,,,,,,,,,0.796,1,,,,,,,,,,,,,,,,,,,,,,,-0.394444444,-0.229166667,1,0,0,,,,,,,BONNET,LB,z,y,./images/BONNETLB.png,,,,,,,,,,,,,,,,,,,,,0,-0.394444444,-0.229166667,1,0,0,0.796,button_left_test,0,19,19,95,1
,,,,,,,,,,,,,,,,,615542e63024889a5c432983,30,2022-02-12_17h42.55.075,lexical_decision_task_DD_L4,2021.2.3,Linux aarch64,59.80861244,,,,,,,,,,1.001,0,,,,,,,,,,,,,,,,,,,,,,,0.344444444,-0.2125,1,0,0,,,,,,,PENCE,HB,z,y,./images/PENCEHB.png,,,,,,,,,,,,,,,,,,,,,0,0.344444444,-0.2125,1,0,0,1.001,button_right_test,0,20,20,100,1
,,,,,,,,,,,,,,,,,615542e63024889a5c432983,30,2022-02-12_17h42.55.075,lexical_decision_task_DD_L4,2021.2.3,Linux aarch64,59.80861244,,,,,,,,,,0.864,1,,,,,,,,,,,,,,,,,,,,,,,0.352777778,-0.234722222,1,0,0,,,,,,,ENGINE,LB,m,y,./images/ENGINELB.png,,,,,,,,,,,,,,,,,,,,,0,0.352777778,-0.234722222,1,0,0,0.864,button_right_test,0,21,21,38,1
,,,,,,,,,,,,,,,,,615542e63024889a5c432983,30,2022-02-12_17h42.55.075,lexical_decision_task_DD_L4,2021.2.3,Linux aarch64,59.80861244,,,,,,,,,,0.925,1,,,,,,,,,,,,,,,,,,,,,,,0.336111111,-0.223611111,1,0,0,,,,,,,SHIELD,C,m,y,./images/SHIELD.png,,,,,,,,,,,,,,,,,,,,,0,0.336111111,-0.223611111,1,0,0,0.925,button_right_test,0,22,22,48,1
,,,,,,,,,,,,,,,,,615542e63024889a5c432983,30,2022-02-12_17h42.55.075,lexical_decision_task_DD_L4,2021.2.3,Linux aarch64,59.80861244,,,,,,,,,,0.876,1,,,,,,,,,,,,,,,,,,,,,,,0.336111111,-0.231944444,1,0,0,,,,,,,CLOTH,LB,m,y,./images/CLOTHLB.png,,,,,,,,,,,,,,,,,,,,,0,0.336111111,-0.231944444,1,0,0,0.876,button_right_test,0,23,23,23,1
,,,,,,,,,,,,,,,,,615542e63024889a5c432983,30,2022-02-12_17h42.55.075,lexical_decision_task_DD_L4,2021.2.3,Linux aarch64,59.80861244,,,,,,,,,,0.762,1,,,,,,,,,,,,,,,,,,,,,,,0.327777778,-0.270833333,1,0,0,,,,,,,STOVE,LB,m,y,./images/STOVELB.png,,,,,,,,,,,,,,,,,,,,,0,0.327777778,-0.270833333,1,0,0,0.762,button_right_test,0,24,24,2,1
,,,,,,,,,,,,,,,,,615542e63024889a5c432983,30,2022-02-12_17h42.55.075,lexical_decision_task_DD_L4,2021.2.3,Linux aarch64,59.80861244,,,,,,,,,,0.755,1,,,,,,,,,,,,,,,,,,,,,,,0.338888889,-0.229166667,1,0,0,,,,,,,BANANA,HB,m,y,./images/BANANAHB.png,,,,,,,,,,,,,,,,,,,,,0,0.338888889,-0.229166667,1,0,0,0.755,button_right_test,0,25,25,70,1
,,,,,,,,,,,,,,,,,615542e63024889a5c432983,30,2022-02-12_17h42.55.075,lexical_decision_task_DD_L4,2021.2.3,Linux aarch64,59.80861244,,,,,,,,,,0.719,1,,,,,,,,,,,,,,,,,,,,,,,0.327777778,-0.273611111,1,0,0,,,,,,,POKER,HB,m,y,./images/POKERHB.png,,,,,,,,,,,,,,,,,,,,,0,0.327777778,-0.273611111,1,0,0,0.719,button_right_test,0,26,26,67,1
,,,,,,,,,,,,,,,,,615542e63024889a5c432983,30,2022-02-12_17h42.55.075,lexical_decision_task_DD_L4,2021.2.3,Linux aarch64,59.80861244,,,,,,,,,,0.73,1,,,,,,,,,,,,,,,,,,,,,,,0.336111111,-0.259722222,1,0,0,,,,,,,FERRY,C,m,y,./images/FERRY.png,,,,,,,,,,,,,,,,,,,,,0,0.336111111,-0.259722222,1,0,0,0.73,button_right_test,0,27,27,57,1
,,,,,,,,,,,,,,,,,615542e63024889a5c432983,30,2022-02-12_17h42.55.075,lexical_decision_task_DD_L4,2021.2.3,Linux aarch64,59.80861244,,,,,,,,,,0.857,1,,,,,,,,,,,,,,,,,,,,,,,-0.355555556,-0.276388889,1,0,0,,,,,,,WEASEL,LB,z,y,./images/WEASELLB.png,,,,,,,,,,,,,,,,,,,,,0,-0.355555556,-0.276388889,1,0,0,0.857,button_left_test,0,28,28,164,1
,,,,,,,,,,,,,,,,,615542e63024889a5c432983,30,2022-02-12_17h42.55.075,lexical_decision_task_DD_L4,2021.2.3,Linux aarch64,59.80861244,,,,,,,,,,0.727,1,,,,,,,,,,,,,,,,,,,,,,,0.325,-0.265277778,1,0,0,,,,,,,SPINE,LB,m,y,./images/SPINELB.png,,,,,,,,,,,,,,,,,,,,,0,0.325,-0.265277778,1,0,0,0.727,button_right_test,0,29,29,65,1
,,,,,,,,,,,,,,,,,615542e63024889a5c432983,30,2022-02-12_17h42.55.075,lexical_decision_task_DD_L4,2021.2.3,Linux aarch64,59.80861244,,,,,,,,,,0.933,1,,,,,,,,,,,,,,,,,,,,,,,-0.35,-0.268055556,1,0,0,,,,,,,MOOSE,C,z,y,./images/MOOSE.png,,,,,,,,,,,,,,,,,,,,,0,-0.35,-0.268055556,1,0,0,0.933,button_left_test,0,30,30,141,1
,,,,,,,,,,,,,,,,,615542e63024889a5c432983,30,2022-02-12_17h42.55.075,lexical_decision_task_DD_L4,2021.2.3,Linux aarch64,59.80861244,,,,,,,,,,0.86,1,,,,,,,,,,,,,,,,,,,,,,,0.322222222,-0.248611111,1,0,0,,,,,,,MAMMAL,LB,m,y,./images/MAMMALLB.png,,,,,,,,,,,,,,,,,,,,,0,0.322222222,-0.248611111,1,0,0,0.86,button_right_test,0,31,31,62,1
,,,,,,,,,,,,,,,,,615542e63024889a5c432983,30,2022-02-12_17h42.55.075,lexical_decision_task_DD_L4,2021.2.3,Linux aarch64,59.80861244,,,,,,,,,,0.882,0,,,,,,,,,,,,,,,,,,,,,,,-0.352777778,-0.2625,1,0,0,,,,,,,RULER,HB,m,y,./images/RULERHB.png,,,,,,,,,,,,,,,,,,,,,0,-0.352777778,-0.2625,1,0,0,0.882,button_left_test,0,32,32,79,1
,,,,,,,,,,,,,,,,,615542e63024889a5c432983,30,2022-02-12_17h42.55.075,lexical_decision_task_DD_L4,2021.2.3,Linux aarch64,59.80861244,,,,,,,,,,0.828,1,,,,,,,,,,,,,,,,,,,,,,,0.313888889,-0.254166667,1,0,0,,,,,,,WHEEL,LB,m,y,./images/WHEELLB.png,,,,,,,,,,,,,,,,,,,,,0,0.313888889,-0.254166667,1,0,0,0.828,button_right_test,0,33,33,77,1
,,,,,,,,,,,,,,,,,615542e63024889a5c432983,30,2022-02-12_17h42.55.075,lexical_decision_task_DD_L4,2021.2.3,Linux aarch64,59.80861244,,,,,,,,,,1.431,0,,,,,,,,,,,,,,,,,,,,,,,-0.35,-0.276388889,1,0,0,,,,,,,STREAM,LB,m,y,./images/STREAMLB.png,,,,,,,,,,,,,,,,,,,,,0,-0.35,-0.276388889,1,0,0,1.431,button_left_test,0,34,34,41,1
,,,,,,,,,,,,,,,,,615542e63024889a5c432983,30,2022-02-12_17h42.55.075,lexical_decision_task_DD_L4,2021.2.3,Linux aarch64,59.80861244,,,,,,,,,,0.935,1,,,,,,,,,,,,,,,,,,,,,,,0.308333333,-0.276388889,1,0,0,,,,,,,SAUNA,C,m,y,./images/SAUNA.png,,,,,,,,,,,,,,,,,,,,,0,0.308333333,-0.276388889,1,0,0,0.935,button_right_test,0,35,35,33,1
,,,,,,,,,,,,,,,,,615542e63024889a5c432983,30,2022-02-12_17h42.55.075,lexical_decision_task_DD_L4,2021.2.3,Linux aarch64,59.80861244,,,,,,,,,,0.746,1,,,,,,,,,,,,,,,,,,,,,,,0.3,-0.251388889,1,0,0,,,,,,,COLLAR,C,m,y,./images/COLLAR.png,,,,,,,,,,,,,,,,,,,,,0,0.3,-0.251388889,1,0,0,0.746,button_right_test,0,36,36,15,1
,,,,,,,,,,,,,,,,,615542e63024889a5c432983,30,2022-02-12_17h42.55.075,lexical_decision_task_DD_L4,2021.2.3,Linux aarch64,59.80861244,,,,,,,,,,0.805,1,,,,,,,,,,,,,,,,,,,,,,,-0.338888889,-0.276388889,1,0,0,,,,,,,MUFFIN,HB,z,y,./images/MUFFINHB.png,,,,,,,,,,,,,,,,,,,,,0,-0.338888889,-0.276388889,1,0,0,0.805,button_left_test,0,37,37,139,1
,,,,,,,,,,,,,,,,,615542e63024889a5c432983,30,2022-02-12_17h42.55.075,lexical_decision_task_DD_L4,2021.2.3,Linux aarch64,59.80861244,,,,,,,,,,0.701,1,,,,,,,,,,,,,,,,,,,,,,,0.313888889,-0.268055556,1,0,0,,,,,,,PILOT,LB,m,y,./images/PILOTLB.png,,,,,,,,,,,,,,,,,,,,,0,0.313888889,-0.268055556,1,0,0,0.701,button_right_test,0,38,38,50,1
,,,,,,,,,,,,,,,,,615542e63024889a5c432983,30,2022-02-12_17h42.55.075,lexical_decision_task_DD_L4,2021.2.3,Linux aarch64,59.80861244,,,,,,,,,,0.858,1,,,,,,,,,,,,,,,,,,,,,,,0.322222222,-0.268055556,1,0,0,,,,,,,BUBBLE,LB,m,y,./images/BUBBLELB.png,,,,,,,,,,,,,,,,,,,,,0,0.322222222,-0.268055556,1,0,0,0.858,button_right_test,0,39,39,71,1
,,,,,,,,,,,,,,,,,615542e63024889a5c432983,30,2022-02-12_17h42.55.075,lexical_decision_task_DD_L4,2021.2.3,Linux aarch64,59.80861244,,,,,,,,,,1.063,1,,,,,,,,,,,,,,,,,,,,,,,0.319444444,-0.248611111,1,0,0,,,,,,,BAMBOO,LB,m,y,./images/BAMBOOLB.png,,,,,,,,,,,,,,,,,,,,,0,0.319444444,-0.248611111,1,0,0,1.063,button_right_test,0,40,40,5,1
,,,,,,,,,,,,,,,,,615542e63024889a5c432983,30,2022-02-12_17h42.55.075,lexical_decision_task_DD_L4,2021.2.3,Linux aarch64,59.80861244,,,,,,,,,,0.747,1,,,,,,,,,,,,,,,,,,,,,,,0.075,-0.395833333,1,0,0,,,,,,,PLANET,LB,m,y,./images/PLANETLB.png,break_done_button,,,,,,,,,,,,,,,,,,,,0,0.319444444,-0.251388889,1,0,0,0.747,button_right_test,0,41,41,80,1
,,,,,,,,,,,,,,,,,615542e63024889a5c432983,30,2022-02-12_17h42.55.075,lexical_decision_task_DD_L4,2021.2.3,Linux aarch64,59.80861244,,,,,,,,,,0.966,0,,,,,,,,,,,,,,,,,,,,,,,-0.35,-0.306944444,1,0,0,,,,,,,MEDAL,LB,m,y,./images/MEDALLB.png,,,,,,,,,,,,,,,,,,,,,0,-0.35,-0.306944444,1,0,0,0.966,button_left_test,0,42,42,11,1
,,,,,,,,,,,,,,,,,615542e63024889a5c432983,30,2022-02-12_17h42.55.075,lexical_decision_task_DD_L4,2021.2.3,Linux aarch64,59.80861244,,,,,,,,,,1.243,1,,,,,,,,,,,,,,,,,,,,,,,-0.355555556,-0.276388889,1,0,0,,,,,,,SCREW,C,z,y,./images/SCREW.png,,,,,,,,,,,,,,,,,,,,,0,-0.355555556,-0.276388889,1,0,0,1.243,button_left_test,0,43,43,108,1
,,,,,,,,,,,,,,,,,615542e63024889a5c432983,30,2022-02-12_17h42.55.075,lexical_decision_task_DD_L4,2021.2.3,Linux aarch64,59.80861244,,,,,,,,,,1.034,1,,,,,,,,,,,,,,,,,,,,,,,-0.355555556,-0.304166667,1,0,0,,,,,,,CEMENT,LB,z,y,./images/CEMENTLB.png,,,,,,,,,,,,,,,,,,,,,0,-0.355555556,-0.304166667,1,0,0,1.034,button_left_test,0,44,44,158,1
,,,,,,,,,,,,,,,,,615542e63024889a5c432983,30,2022-02-12_17h42.55.075,lexical_decision_task_DD_L4,2021.2.3,Linux aarch64,59.80861244,,,,,,,,,,0.864,0,,,,,,,,,,,,,,,,,,,,,,,0.338888889,-0.248611111,1,0,0,,,,,,,SHELF,C,z,y,./images/SHELF.png,,,,,,,,,,,,,,,,,,,,,0,0.338888889,-0.248611111,1,0,0,0.864,button_right_test,0,45,45,123,1
,,,,,,,,,,,,,,,,,615542e63024889a5c432983,30,2022-02-12_17h42.55.075,lexical_decision_task_DD_L4,2021.2.3,Linux aarch64,59.80861244,,,,,,,,,,0.798,1,,,,,,,,,,,,,,,,,,,,,,,0.322222222,-0.276388889,1,0,0,,,,,,,BROOM,C,m,y,./images/BROOM.png,,,,,,,,,,,,,,,,,,,,,0,0.322222222,-0.276388889,1,0,0,0.798,button_right_test,0,46,46,78,1
,,,,,,,,,,,,,,,,,615542e63024889a5c432983,30,2022-02-12_17h42.55.075,lexical_decision_task_DD_L4,2021.2.3,Linux aarch64,59.80861244,,,,,,,,,,0.777,1,,,,,,,,,,,,,,,,,,,,,,,0.305555556,-0.2625,1,0,0,,,,,,,FENCE,LB,m,y,./images/FENCELB.png,,,,,,,,,,,,,,,,,,,,,0,0.305555556,-0.2625,1,0,0,0.777,button_right_test,0,47,47,14,1
,,,,,,,,,,,,,,,,,615542e63024889a5c432983,30,2022-02-12_17h42.55.075,lexical_decision_task_DD_L4,2021.2.3,Linux aarch64,59.80861244,,,,,,,,,,0.595,1,,,,,,,,,,,,,,,,,,,,,,,0.319444444,-0.248611111,1,0,0,,,,,,,BOILER,C,m,y,./images/BOILER.png,,,,,,,,,,,,,,,,,,,,,0,0.319444444,-0.248611111,1,0,0,0.595,button_right_test,0,48,48,36,1
,,,,,,,,,,,,,,,,,615542e63024889a5c432983,30,2022-02-12_17h42.55.075,lexical_decision_task_DD_L4,2021.2.3,Linux aarch64,59.80861244,,,,,,,,,,0.579,1,,,,,,,,,,,,,,,,,,,,,,,0.319444444,-0.254166667,1,0,0,,,,,,,DANCER,C,m,y,./images/DANCER.png,,,,,,,,,,,,,,,,,,,,,0,0.319444444,-0.254166667,1,0,0,0.579,button_right_test,0,49,49,21,1
,,,,,,,,,,,,,,,,,615542e63024889a5c432983,30,2022-02-12_17h42.55.075,lexical_decision_task_DD_L4,2021.2.3,Linux aarch64,59.80861244,,,,,,,,,,0.631,0,,,,,,,,,,,,,,,,,,,,,,,0.319444444,-0.259722222,1,0,0,,,,,,,PAINT,HB,z,y,./images/PAINTHB.png,,,,,,,,,,,,,,,,,,,,,0,0.319444444,-0.259722222,1,0,0,0.631,button_right_test,0,50,50,91,1
,,,,,,,,,,,,,,,,,615542e63024889a5c432983,30,2022-02-12_17h42.55.075,lexical_decision_task_DD_L4,2021.2.3,Linux aarch64,59.80861244,,,,,,,,,,0.725,1,,,,,,,,,,,,,,,,,,,,,,,0.316666667,-0.259722222,1,0,0,,,,,,,CANDY,C,m,y,./images/CANDY.png,,,,,,,,,,,,,,,,,,,,,0,0.316666667,-0.259722222,1,0,0,0.725,button_right_test,0,51,51,39,1
,,,,,,,,,,,,,,,,,615542e63024889a5c432983,30,2022-02-12_17h42.55.075,lexical_decision_task_DD_L4,2021.2.3,Linux aarch64,59.80861244,,,,,,,,,,0.673,1,,,,,,,,,,,,,,,,,,,,,,,0.322222222,-0.273611111,1,0,0,,,,,,,HAMMER,C,m,y,./images/HAMMER.png,,,,,,,,,,,,,,,,,,,,,0,0.322222222,-0.273611111,1,0,0,0.673,button_right_test,0,52,52,75,1
,,,,,,,,,,,,,,,,,615542e63024889a5c432983,30,2022-02-12_17h42.55.075,lexical_decision_task_DD_L4,2021.2.3,Linux aarch64,59.80861244,,,,,,,,,,0.518,1,,,,,,,,,,,,,,,,,,,,,,,0.327777778,-0.251388889,1,0,0,,,,,,,CHERRY,C,m,y,./images/CHERRY.png,,,,,,,,,,,,,,,,,,,,,0,0.327777778,-0.251388889,1,0,0,0.518,button_right_test,0,53,53,54,1
,,,,,,,,,,,,,,,,,615542e63024889a5c432983,30,2022-02-12_17h42.55.075,lexical_decision_task_DD_L4,2021.2.3,Linux aarch64,59.80861244,,,,,,,,,,0.67,0,,,,,,,,,,,,,,,,,,,,,,,0.319444444,-0.245833333,1,0,0,,,,,,,SWEAT,C,z,y,./images/SWEAT.png,,,,,,,,,,,,,,,,,,,,,0,0.319444444,-0.245833333,1,0,0,0.67,button_right_test,0,54,54,150,1
,,,,,,,,,,,,,,,,,615542e63024889a5c432983,30,2022-02-12_17h42.55.075,lexical_decision_task_DD_L4,2021.2.3,Linux aarch64,59.80861244,,,,,,,,,,0.651,1,,,,,,,,,,,,,,,,,,,,,,,0.311111111,-0.268055556,1,0,0,,,,,,,MIDGET,HB,m,y,./images/MIDGETHB.png,,,,,,,,,,,,,,,,,,,,,0,0.311111111,-0.268055556,1,0,0,0.651,button_right_test,0,55,55,76,1
,,,,,,,,,,,,,,,,,615542e63024889a5c432983,30,2022-02-12_17h42.55.075,lexical_decision_task_DD_L4,2021.2.3,Linux aarch64,59.80861244,,,,,,,,,,0.631,1,,,,,,,,,,,,,,,,,,,,,,,0.319444444,-0.265277778,1,0,0,,,,,,,CASINO,HB,m,y,./images/CASINOHB.png,,,,,,,,,,,,,,,,,,,,,0,0.319444444,-0.265277778,1,0,0,0.631,button_right_test,0,56,56,28,1
,,,,,,,,,,,,,,,,,615542e63024889a5c432983,30,2022-02-12_17h42.55.075,lexical_decision_task_DD_L4,2021.2.3,Linux aarch64,59.80861244,,,,,,,,,,0.618,1,,,,,,,,,,,,,,,,,,,,,,,0.316666667,-0.265277778,1,0,0,,,,,,,VALLEY,LB,m,y,./images/VALLEYLB.png,,,,,,,,,,,,,,,,,,,,,0,0.316666667,-0.265277778,1,0,0,0.618,button_right_test,0,57,57,68,1
,,,,,,,,,,,,,,,,,615542e63024889a5c432983,30,2022-02-12_17h42.55.075,lexical_decision_task_DD_L4,2021.2.3,Linux aarch64,59.80861244,,,,,,,,,,0.811,1,,,,,,,,,,,,,,,,,,,,,,,-0.327777778,-0.298611111,1,0,0,,,,,,,LIZARD,LB,z,y,./images/LIZARDLB.png,,,,,,,,,,,,,,,,,,,,,0,-0.327777778,-0.298611111,1,0,0,0.811,button_left_test,0,58,58,128,1
,,,,,,,,,,,,,,,,,615542e63024889a5c432983,30,2022-02-12_17h42.55.075,lexical_decision_task_DD_L4,2021.2.3,Linux aarch64,59.80861244,,,,,,,,,,0.687,1,,,,,,,,,,,,,,,,,,,,,,,-0.330555556,-0.2875,1,0,0,,,,,,,WRIST,HB,z,y,./images/WRISTHB.png,,,,,,,,,,,,,,,,,,,,,0,-0.330555556,-0.2875,1,0,0,0.687,button_left_test,0,59,59,109,1
,,,,,,,,,,,,,,,,,615542e63024889a5c432983,30,2022-02-12_17h42.55.075,lexical_decision_task_DD_L4,2021.2.3,Linux aarch64,59.80861244,,,,,,,,,,0.821,1,,,,,,,,,,,,,,,,,,,,,,,-0.330555556,-0.2875,1,0,0,,,,,,,CRUMB,LB,z,y,./images/CRUMBLB.png,,,,,,,,,,,,,,,,,,,,,0,-0.330555556,-0.2875,1,0,0,0.821,button_left_test,0,60,60,113,1
,,,,,,,,,,,,,,,,,615542e63024889a5c432983,30,2022-02-12_17h42.55.075,lexical_decision_task_DD_L4,2021.2.3,Linux aarch64,59.80861244,,,,,,,,,,0.781,1,,,,,,,,,,,,,,,,,,,,,,,0.308333333,-0.256944444,1,0,0,,,,,,,DESERT,HB,m,y,./images/DESERTHB.png,,,,,,,,,,,,,,,,,,,,,0,0.308333333,-0.256944444,1,0,0,0.781,button_right_test,0,61,61,52,1
,,,,,,,,,,,,,,,,,615542e63024889a5c432983,30,2022-02-12_17h42.55.075,lexical_decision_task_DD_L4,2021.2.3,Linux aarch64,59.80861244,,,,,,,,,,0.913,1,,,,,,,,,,,,,,,,,,,,,,,-0.352777778,-0.281944444,1,0,0,,,,,,,PURSE,LB,z,y,./images/PURSELB.png,,,,,,,,,,,,,,,,,,,,,0,-0.352777778,-0.281944444,1,0,0,0.913,button_left_test,0,62,62,146,1
,,,,,,,,,,,,,,,,,615542e63024889a5c432983,30,2022-02-12_17h42.55.075,lexical_decision_task_DD_L4,2021.2.3,Linux aarch64,59.80861244,,,,,,,,,,0.647,1,,,,,,,,,,,,,,,,,,,,,,,0.336111111,-0.290277778,1,0,0,,,,,,,FLASK,C,m,y,./images/FLASK.png,,,,,,,,,,,,,,,,,,,,,0,0.336111111,-0.290277778,1,0,0,0.647,button_right_test,0,63,63,72,1
,,,,,,,,,,,,,,,,,615542e63024889a5c432983,30,2022-02-12_17h42.55.075,lexical_decision_task_DD_L4,2021.2.3,Linux aarch64,59.80861244,,,,,,,,,,0.628,1,,,,,,,,,,,,,,,,,,,,,,,0.322222222,-0.2875,1,0,0,,,,,,,PEBBLE,HB,m,y,./images/PEBBLEHB.png,,,,,,,,,,,,,,,,,,,,,0,0.322222222,-0.2875,1,0,0,0.628,button_right_test,0,64,64,82,1
,,,,,,,,,,,,,,,,,615542e63024889a5c432983,30,2022-02-12_17h42.55.075,lexical_decision_task_DD_L4,2021.2.3,Linux aarch64,59.80861244,,,,,,,,,,0.777,1,,,,,,,,,,,,,,,,,,,,,,,-0.333333333,-0.281944444,1,0,0,,,,,,,POODLE,C,z,y,./images/POODLE.png,,,,,,,,,,,,,,,,,,,,,0,-0.333333333,-0.281944444,1,0,0,0.777,button_left_test,0,65,65,165,1
,,,,,,,,,,,,,,,,,615542e63024889a5c432983,30,2022-02-12_17h42.55.075,lexical_decision_task_DD_L4,2021.2.3,Linux aarch64,59.80861244,,,,,,,,,,0.93,0,,,,,,,,,,,,,,,,,,,,,,,0.316666667,-0.273611111,1,0,0,,,,,,,RHINO,C,z,y,./images/RHINO.png,,,,,,,,,,,,,,,,,,,,,0,0.316666667,-0.273611111,1,0,0,0.93,button_right_test,0,66,66,93,1
,,,,,,,,,,,,,,,,,615542e63024889a5c432983,30,2022-02-12_17h42.55.075,lexical_decision_task_DD_L4,2021.2.3,Linux aarch64,59.80861244,,,,,,,,,,0.862,1,,,,,,,,,,,,,,,,,,,,,,,-0.327777778,-0.281944444,1,0,0,,,,,,,SKIING,LB,z,y,./images/SKIINGLB.png,,,,,,,,,,,,,,,,,,,,,0,-0.327777778,-0.281944444,1,0,0,0.862,button_left_test,0,67,67,101,1
,,,,,,,,,,,,,,,,,615542e63024889a5c432983,30,2022-02-12_17h42.55.075,lexical_decision_task_DD_L4,2021.2.3,Linux aarch64,59.80861244,,,,,,,,,,0.786,1,,,,,,,,,,,,,,,,,,,,,,,-0.330555556,-0.279166667,1,0,0,,,,,,,THROAT,C,z,y,./images/THROAT.png,,,,,,,,,,,,,,,,,,,,,0,-0.330555556,-0.279166667,1,0,0,0.786,button_left_test,0,68,68,120,1
,,,,,,,,,,,,,,,,,615542e63024889a5c432983,30,2022-02-12_17h42.55.075,lexical_decision_task_DD_L4,2021.2.3,Linux aarch64,59.80861244,,,,,,,,,,0.927,0,,,,,,,,,,,,,,,,,,,,,,,-0.333333333,-0.284722222,1,0,0,,,,,,,LAGOON,LB,m,y,./images/LAGOONLB.png,,,,,,,,,,,,,,,,,,,,,0,-0.333333333,-0.284722222,1,0,0,0.927,button_left_test,0,69,69,47,1
,,,,,,,,,,,,,,,,,615542e63024889a5c432983,30,2022-02-12_17h42.55.075,lexical_decision_task_DD_L4,2021.2.3,Linux aarch64,59.80861244,,,,,,,,,,0.798,1,,,,,,,,,,,,,,,,,,,,,,,0.319444444,-0.273611111,1,0,0,,,,,,,STATUE,C,m,y,./images/STATUE.png,,,,,,,,,,,,,,,,,,,,,0,0.319444444,-0.273611111,1,0,0,0.798,button_right_test,0,70,70,66,1
,,,,,,,,,,,,,,,,,615542e63024889a5c432983,30,2022-02-12_17h42.55.075,lexical_decision_task_DD_L4,2021.2.3,Linux aarch64,59.80861244,,,,,,,,,,0.698,1,,,,,,,,,,,,,,,,,,,,,,,0.330555556,-0.273611111,1,0,0,,,,,,,HOCKEY,LB,m,y,./images/HOCKEYLB.png,,,,,,,,,,,,,,,,,,,,,0,0.330555556,-0.273611111,1,0,0,0.698,button_right_test,0,71,71,32,1
,,,,,,,,,,,,,,,,,615542e63024889a5c432983,30,2022-02-12_17h42.55.075,lexical_decision_task_DD_L4,2021.2.3,Linux aarch64,59.80861244,,,,,,,,,,0.862,1,,,,,,,,,,,,,,,,,,,,,,,-0.344444444,-0.279166667,1,0,0,,,,,,,GREASE,C,z,y,./images/GREASE.png,,,,,,,,,,,,,,,,,,,,,0,-0.344444444,-0.279166667,1,0,0,0.862,button_left_test,0,72,72,99,1
,,,,,,,,,,,,,,,,,615542e63024889a5c432983,30,2022-02-12_17h42.55.075,lexical_decision_task_DD_L4,2021.2.3,Linux aarch64,59.80861244,,,,,,,,,,0.8,1,,,,,,,,,,,,,,,,,,,,,,,0.333333333,-0.251388889,1,0,0,,,,,,,JUMPER,LB,m,y,./images/JUMPERLB.png,,,,,,,,,,,,,,,,,,,,,0,0.333333333,-0.251388889,1,0,0,0.8,button_right_test,0,73,73,74,1
,,,,,,,,,,,,,,,,,615542e63024889a5c432983,30,2022-02-12_17h42.55.075,lexical_decision_task_DD_L4,2021.2.3,Linux aarch64,59.80861244,,,,,,,,,,1.801,1,,,,,,,,,,,,,,,,,,,,,,,-0.361111111,-0.281944444,1,0,0,,,,,,,BELLY,HB,z,y,./images/BELLYHB.png,,,,,,,,,,,,,,,,,,,,,0,-0.361111111,-0.281944444,1,0,0,1.801,button_left_test,0,74,74,94,1
,,,,,,,,,,,,,,,,,615542e63024889a5c432983,30,2022-02-12_17h42.55.075,lexical_decision_task_DD_L4,2021.2.3,Linux aarch64,59.80861244,,,,,,,,,,0.907,0,,,,,,,,,,,,,,,,,,,,,,,0.361111111,-0.245833333,1,0,0,,,,,,,SPORT,C,z,y,./images/SPORT.png,,,,,,,,,,,,,,,,,,,,,0,0.361111111,-0.245833333,1,0,0,0.907,button_right_test,0,75,75,132,1
,,,,,,,,,,,,,,,,,615542e63024889a5c432983,30,2022-02-12_17h42.55.075,lexical_decision_task_DD_L4,2021.2.3,Linux aarch64,59.80861244,,,,,,,,,,1.036,0,,,,,,,,,,,,,,,,,,,,,,,-0.361111111,-0.284722222,1,0,0,,,,,,,POSTER,LB,m,y,./images/POSTERLB.png,,,,,,,,,,,,,,,,,,,,,0,-0.361111111,-0.284722222,1,0,0,1.036,button_left_test,0,76,76,53,1
,,,,,,,,,,,,,,,,,615542e63024889a5c432983,30,2022-02-12_17h42.55.075,lexical_decision_task_DD_L4,2021.2.3,Linux aarch64,59.80861244,,,,,,,,,,0.782,1,,,,,,,,,,,,,,,,,,,,,,,-0.338888889,-0.293055556,1,0,0,,,,,,,BERRY,LB,z,y,./images/BERRYLB.png,,,,,,,,,,,,,,,,,,,,,0,-0.338888889,-0.293055556,1,0,0,0.782,button_left_test,0,77,77,131,1
,,,,,,,,,,,,,,,,,615542e63024889a5c432983,30,2022-02-12_17h42.55.075,lexical_decision_task_DD_L4,2021.2.3,Linux aarch64,59.80861244,,,,,,,,,,1.025,1,,,,,,,,,,,,,,,,,,,,,,,-0.355555556,-0.3125,1,0,0,,,,,,,FINGER,C,z,y,./images/FINGER.png,,,,,,,,,,,,,,,,,,,,,0,-0.355555556,-0.3125,1,0,0,1.025,button_left_test,0,78,78,87,1
,,,,,,,,,,,,,,,,,615542e63024889a5c432983,30,2022-02-12_17h42.55.075,lexical_decision_task_DD_L4,2021.2.3,Linux aarch64,59.80861244,,,,,,,,,,0.693,1,,,,,,,,,,,,,,,,,,,,,,,-0.35,-0.293055556,1,0,0,,,,,,,MALLET,LB,z,y,./images/MALLETLB.png,,,,,,,,,,,,,,,,,,,,,0,-0.35,-0.293055556,1,0,0,0.693,button_left_test,0,79,79,134,1
,,,,,,,,,,,,,,,,,615542e63024889a5c432983,30,2022-02-12_17h42.55.075,lexical_decision_task_DD_L4,2021.2.3,Linux aarch64,59.80861244,,,,,,,,,,0.708,1,,,,,,,,,,,,,,,,,,,,,,,0.341666667,-0.243055556,1,0,0,,,,,,,BISHOP,HB,m,y,./images/BISHOPHB.png,,,,,,,,,,,,,,,,,,,,,0,0.341666667,-0.243055556,1,0,0,0.708,button_right_test,0,80,80,49,1
,,,,,,,,,,,,,,,,,615542e63024889a5c432983,30,2022-02-12_17h42.55.075,lexical_decision_task_DD_L4,2021.2.3,Linux aarch64,59.80861244,,,,,,,,,,0.671,0,,,,,,,,,,,,,,,,,,,,,,,0.316666667,-0.259722222,1,0,0,,,,,,,WALRUS,LB,z,y,./images/WALRUSLB.png,,,,,,,,,,,,,,,,,,,,,0,0.316666667,-0.259722222,1,0,0,0.671,button_right_test,0,81,81,107,1
,,,,,,,,,,,,,,,,,615542e63024889a5c432983,30,2022-02-12_17h42.55.075,lexical_decision_task_DD_L4,2021.2.3,Linux aarch64,59.80861244,,,,,,,,,,0.663,1,,,,,,,,,,,,,,,,,,,,,,,0.327777778,-0.2625,1,0,0,,,,,,,WAGON,HB,m,y,./images/WAGONHB.png,,,,,,,,,,,,,,,,,,,,,0,0.327777778,-0.2625,1,0,0,0.663,button_right_test,0,82,82,7,1
,,,,,,,,,,,,,,,,,615542e63024889a5c432983,30,2022-02-12_17h42.55.075,lexical_decision_task_DD_L4,2021.2.3,Linux aarch64,59.80861244,,,,,,,,,,0.688,1,,,,,,,,,,,,,,,,,,,,,,,0.108333333,-0.401388889,1,0,0,,,,,,,MOSQUE,HB,z,y,./images/MOSQUEHB.png,break_done_button,,,,,,,,,,,,,,,,,,,,0,-0.336111111,-0.293055556,1,0,0,0.688,button_left_test,0,83,83,127,1
,,,,,,,,,,,,,,,,,615542e63024889a5c432983,30,2022-02-12_17h42.55.075,lexical_decision_task_DD_L4,2021.2.3,Linux aarch64,59.80861244,,,,,,,,,,0.833,1,,,,,,,,,,,,,,,,,,,,,,,0.363888889,-0.284722222,1,0,0,,,,,,,STOOL,HB,m,y,./images/STOOLHB.png,,,,,,,,,,,,,,,,,,,,,0,0.363888889,-0.284722222,1,0,0,0.833,button_right_test,0,84,84,43,1
,,,,,,,,,,,,,,,,,615542e63024889a5c432983,30,2022-02-12_17h42.55.075,lexical_decision_task_DD_L4,2021.2.3,Linux aarch64,59.80861244,,,,,,,,,,0.813,1,,,,,,,,,,,,,,,,,,,,,,,-0.355555556,-0.281944444,1,0,0,,,,,,,SNACK,HB,z,y,./images/SNACKHB.png,,,,,,,,,,,,,,,,,,,,,0,-0.355555556,-0.281944444,1,0,0,0.813,button_left_test,0,85,85,157,1
,,,,,,,,,,,,,,,,,615542e63024889a5c432983,30,2022-02-12_17h42.55.075,lexical_decision_task_DD_L4,2021.2.3,Linux aarch64,59.80861244,,,,,,,,,,0.594,1,,,,,,,,,,,,,,,,,,,,,,,-0.336111111,-0.290277778,1,0,0,,,,,,,NOOSE,C,z,y,./images/NOOSE.png,,,,,,,,,,,,,,,,,,,,,0,-0.336111111,-0.290277778,1,0,0,0.594,button_left_test,0,86,86,156,1
,,,,,,,,,,,,,,,,,615542e63024889a5c432983,30,2022-02-12_17h42.55.075,lexical_decision_task_DD_L4,2021.2.3,Linux aarch64,59.80861244,,,,,,,,,,0.736,1,,,,,,,,,,,,,,,,,,,,,,,-0.338888889,-0.2875,1,0,0,,,,,,,LITTER,C,z,y,./images/LITTER.png,,,,,,,,,,,,,,,,,,,,,0,-0.338888889,-0.2875,1,0,0,0.736,button_left_test,0,87,87,162,1
,,,,,,,,,,,,,,,,,615542e63024889a5c432983,30,2022-02-12_17h42.55.075,lexical_decision_task_DD_L4,2021.2.3,Linux aarch64,59.80861244,,,,,,,,,,0.715,1,,,,,,,,,,,,,,,,,,,,,,,-0.336111111,-0.2875,1,0,0,,,,,,,MIRROR,C,z,y,./images/MIRROR.png,,,,,,,,,,,,,,,,,,,,,0,-0.336111111,-0.2875,1,0,0,0.715,button_left_test,0,88,88,147,1
,,,,,,,,,,,,,,,,,615542e63024889a5c432983,30,2022-02-12_17h42.55.075,lexical_decision_task_DD_L4,2021.2.3,Linux aarch64,59.80861244,,,,,,,,,,0.834,1,,,,,,,,,,,,,,,,,,,,,,,-0.338888889,-0.2875,1,0,0,,,,,,,PIMPLE,LB,z,y,./images/PIMPLELB.png,,,,,,,,,,,,,,,,,,,,,0,-0.338888889,-0.2875,1,0,0,0.834,button_left_test,0,89,89,155,1
,,,,,,,,,,,,,,,,,615542e63024889a5c432983,30,2022-02-12_17h42.55.075,lexical_decision_task_DD_L4,2021.2.3,Linux aarch64,59.80861244,,,,,,,,,,0.715,1,,,,,,,,,,,,,,,,,,,,,,,-0.344444444,-0.2875,1,0,0,,,,,,,CARPET,LB,z,y,./images/CARPETLB.png,,,,,,,,,,,,,,,,,,,,,0,-0.344444444,-0.2875,1,0,0,0.715,button_left_test,0,90,90,137,1
,,,,,,,,,,,,,,,,,615542e63024889a5c432983,30,2022-02-12_17h42.55.075,lexical_decision_task_DD_L4,2021.2.3,Linux aarch64,59.80861244,,,,,,,,,,0.766,1,,,,,,,,,,,,,,,,,,,,,,,0.327777778,-0.259722222,1,0,0,,,,,,,CLOWN,HB,m,y,./images/CLOWNHB.png,,,,,,,,,,,,,,,,,,,,,0,0.327777778,-0.259722222,1,0,0,0.766,button_right_test,0,91,91,22,1
