key_resp.keys,instr_done_touch.x,instr_done_touch.y,instr_done_touch.leftButton,instr_done_touch.midButton,instr_done_touch.rightButton,instr_done_touch.clicked_name,instruction_pages.thisRepN,instruction_pages.thisTrialN,instruction_pages.thisN,instruction_pages.thisIndex,instruction_pages.ran,pageN,phase,instruct_text,has_image,instruct_image,participant,age,date,expName,psychopyVersion,OS,frameRate,key_resp.rt,response.keys,response.corr,response.rt,touch_resp.x,touch_resp.y,touch_resp.leftButton,touch_resp.midButton,touch_resp.rightButton,touch_resp.time,touch_resp.clicked_name,rt,corr,practrials.thisRepN,practrials.thisTrialN,practrials.thisN,practrials.thisIndex,practrials.ran,TrialID,Target,corrAns,end_of_practice_trials_pages.thisRepN,end_of_practice_trials_pages.thisTrialN,end_of_practice_trials_pages.thisN,end_of_practice_trials_pages.thisIndex,end_of_practice_trials_pages.ran,key_resp_2.keys,key_resp_2.corr,key_resp_2.rt,targ_click.x,targ_click.y,targ_click.leftButton,targ_click.midButton,targ_click.rightButton,targ_click.time,targ_click.clicked_name,break_done_touch.x,break_done_touch.y,break_done_touch.leftButton,break_done_touch.midButton,break_done_touch.rightButton,break_done_keyboard.keys,maintrials.thisRepN,maintrials.thisTrialN,maintrials.thisN,maintrials.thisIndex,maintrials.ran,string,blur,study,lex,stim_path,break_done_keyboard.rt,mouse_2.x,mouse_2.y,mouse_2.leftButton,mouse_2.midButton,mouse_2.rightButton,mouse_2.clicked_name,slider.response,slider.rt,trials.thisRepN,trials.thisTrialN,trials.thisN,trials.thisIndex,trials.ran,test_instructions.thisRepN,test_instructions.thisTrialN,test_instructions.thisN,test_instructions.thisIndex,test_instructions.ran,key_resp_3.keys,key_resp_3.corr,key_resp_3.rt,test_click.x,test_click.y,test_click.leftButton,test_click.midButton,test_click.rightButton,test_click.time,test_click.clicked_name,test_phase.thisRepN,test_phase.thisTrialN,test_phase.thisN,test_phase.thisIndex,test_phase.ran
,0.009259259,-0.403703704,1,0,0,instr_done_button,0,0,0,0,1,1,instructions,"INSTRUCTIONS
At the start of each trial, look at the plus sign  (+) in the center of the screen.  This tells you that a trial is about to begin and where to look. Second, the plus sign will disappear and a string of letters will appear. Your task is to determine if the string of letters is a word or not. If the item is a word press the M key (on keyboard)  or touch the word button (phone/tablet).  If the item is not a word,  press the  Z key (on keyboard)  or touch the nonword button (on phone/tablet). 
Press the space bar or touch  continue.",0,,61690ac66e1ca0506e2ef890,18,2022-02-12_12h23.00.316,lexical_decision_task_DD_L2,2021.2.3,Win32,60.00960154,,,,,,,,,,,,,,,,,,,,,,,,,,,,,,,,,,,,,,,,,,,,,,,,,,,,,,,,,,,,,,,,,,,,,,,,,,,,,,,,,,,,,,
space,0.787962963,-0.344444444,0,0,0,,0,1,1,1,1,2,instructions,"If your device has a keyboard, press the 'Z' key for nonwords and the 'M' key for words.





Press the space bar or touch the button below to continue.",0,keyboard-example.gif,61690ac66e1ca0506e2ef890,18,2022-02-12_12h23.00.316,lexical_decision_task_DD_L2,2021.2.3,Win32,60.00960154,6.9508,,,,,,,,,,,,,,,,,,,,,,,,,,,,,,,,,,,,,,,,,,,,,,,,,,,,,,,,,,,,,,,,,,,,,,,,,,,,,,,,,,,,,
space,0.787962963,-0.344444444,0,0,0,,0,2,2,2,1,3,instructions,"If you are using a touchscreen only device, use the buttons on the screen. Do not use the mouse.





Press the space bar or touch the button below to continue.",0,touchscreen-example.gif,61690ac66e1ca0506e2ef890,18,2022-02-12_12h23.00.316,lexical_decision_task_DD_L2,2021.2.3,Win32,60.00960154,4.3119,,,,,,,,,,,,,,,,,,,,,,,,,,,,,,,,,,,,,,,,,,,,,,,,,,,,,,,,,,,,,,,,,,,,,,,,,,,,,,,,,,,,,
space,0.734259259,-0.212037037,0,0,0,,0,3,3,3,1,4,instructions,"It is very important that you respond as quickly and accurately as possible, as each letter string will only be on the screen for two seconds. If you do not respond within this time, the message 'Too slow!' will be displayed and the experiment will progress to the next letter string. The first 20 trials will be practice trials and you will receive feedback on your answers. 

Press the space bar or touch the button below to start the practice trials.",0,,61690ac66e1ca0506e2ef890,18,2022-02-12_12h23.00.316,lexical_decision_task_DD_L2,2021.2.3,Win32,60.00960154,34.1149,,,,,,,,,,,,,,,,,,,,,,,,,,,,,,,,,,,,,,,,,,,,,,,,,,,,,,,,,,,,,,,,,,,,,,,,,,,,,,,,,,,,,
,,,,,,,,,,,,,,,,,61690ac66e1ca0506e2ef890,18,2022-02-12_12h23.00.316,lexical_decision_task_DD_L2,2021.2.3,Win32,60.00960154,,m,1,1.5947,,,,,,,,1.5947,1,0,0,0,0,1,1001,UTOPIA,m,,,,,,,,,,,,,,,,,,,,,,,,,,,,,,,,,,,,,,,,,,,,,,,,,,,,,,,,,,,,,,,,,
,,,,,,,,,,,,,,,,,61690ac66e1ca0506e2ef890,18,2022-02-12_12h23.00.316,lexical_decision_task_DD_L2,2021.2.3,Win32,60.00960154,,m,1,0.948,,,,,,,,0.948,1,0,1,1,1,1,1001,ADJUST,m,,,,,,,,,,,,,,,,,,,,,,,,,,,,,,,,,,,,,,,,,,,,,,,,,,,,,,,,,,,,,,,,,
,,,,,,,,,,,,,,,,,61690ac66e1ca0506e2ef890,18,2022-02-12_12h23.00.316,lexical_decision_task_DD_L2,2021.2.3,Win32,60.00960154,,z,1,1.4512,,,,,,,,1.4512,1,0,2,2,9,1,1001,FARINY,z,,,,,,,,,,,,,,,,,,,,,,,,,,,,,,,,,,,,,,,,,,,,,,,,,,,,,,,,,,,,,,,,,
,,,,,,,,,,,,,,,,,61690ac66e1ca0506e2ef890,18,2022-02-12_12h23.00.316,lexical_decision_task_DD_L2,2021.2.3,Win32,60.00960154,,m,1,0.8501,,,,,,,,0.8501,1,0,3,3,5,1,1001,OBTAIN,m,,,,,,,,,,,,,,,,,,,,,,,,,,,,,,,,,,,,,,,,,,,,,,,,,,,,,,,,,,,,,,,,,
,,,,,,,,,,,,,,,,,61690ac66e1ca0506e2ef890,18,2022-02-12_12h23.00.316,lexical_decision_task_DD_L2,2021.2.3,Win32,60.00960154,,z,1,1.6193,,,,,,,,1.6193,1,0,4,4,11,1,1001,RASHET,z,,,,,,,,,,,,,,,,,,,,,,,,,,,,,,,,,,,,,,,,,,,,,,,,,,,,,,,,,,,,,,,,,
,,,,,,,,,,,,,,,,,61690ac66e1ca0506e2ef890,18,2022-02-12_12h23.00.316,lexical_decision_task_DD_L2,2021.2.3,Win32,60.00960154,,m,1,0.75,,,,,,,,0.75,1,0,5,5,2,1,1001,ALMOND,m,,,,,,,,,,,,,,,,,,,,,,,,,,,,,,,,,,,,,,,,,,,,,,,,,,,,,,,,,,,,,,,,,
,,,,,,,,,,,,,,,,,61690ac66e1ca0506e2ef890,18,2022-02-12_12h23.00.316,lexical_decision_task_DD_L2,2021.2.3,Win32,60.00960154,,z,1,0.9671,,,,,,,,0.9671,1,0,6,6,13,1,1001,ROUPET,z,,,,,,,,,,,,,,,,,,,,,,,,,,,,,,,,,,,,,,,,,,,,,,,,,,,,,,,,,,,,,,,,,
,,,,,,,,,,,,,,,,,61690ac66e1ca0506e2ef890,18,2022-02-12_12h23.00.316,lexical_decision_task_DD_L2,2021.2.3,Win32,60.00960154,,m,1,0.6492,,,,,,,,0.6492,1,0,7,7,6,1,1001,ZOMBIE,m,,,,,,,,,,,,,,,,,,,,,,,,,,,,,,,,,,,,,,,,,,,,,,,,,,,,,,,,,,,,,,,,,
,,,,,,,,,,,,,,,,,61690ac66e1ca0506e2ef890,18,2022-02-12_12h23.00.316,lexical_decision_task_DD_L2,2021.2.3,Win32,60.00960154,,m,0,1.1336,,,,,,,,1.1336,0,0,8,8,10,1,1001,INLADE,z,,,,,,,,,,,,,,,,,,,,,,,,,,,,,,,,,,,,,,,,,,,,,,,,,,,,,,,,,,,,,,,,,
,,,,,,,,,,,,,,,,,61690ac66e1ca0506e2ef890,18,2022-02-12_12h23.00.316,lexical_decision_task_DD_L2,2021.2.3,Win32,60.00960154,,z,1,1.2354,,,,,,,,1.2354,1,0,9,9,14,1,1001,THRALE,z,,,,,,,,,,,,,,,,,,,,,,,,,,,,,,,,,,,,,,,,,,,,,,,,,,,,,,,,,,,,,,,,,
,,,,,,,,,,,,,,,,,61690ac66e1ca0506e2ef890,18,2022-02-12_12h23.00.316,lexical_decision_task_DD_L2,2021.2.3,Win32,60.00960154,,z,1,2.0087,,,,,,,,2.0087,1,0,10,10,12,1,1001,SPRINY,z,,,,,,,,,,,,,,,,,,,,,,,,,,,,,,,,,,,,,,,,,,,,,,,,,,,,,,,,,,,,,,,,,
,,,,,,,,,,,,,,,,,61690ac66e1ca0506e2ef890,18,2022-02-12_12h23.00.316,lexical_decision_task_DD_L2,2021.2.3,Win32,60.00960154,,m,1,0.8902,,,,,,,,0.8902,1,0,11,11,3,1,1001,MATRIX,m,,,,,,,,,,,,,,,,,,,,,,,,,,,,,,,,,,,,,,,,,,,,,,,,,,,,,,,,,,,,,,,,,
,,,,,,,,,,,,,,,,,61690ac66e1ca0506e2ef890,18,2022-02-12_12h23.00.316,lexical_decision_task_DD_L2,2021.2.3,Win32,60.00960154,,z,1,1.0901,,,,,,,,1.0901,1,0,12,12,15,1,1001,WHAISE,z,,,,,,,,,,,,,,,,,,,,,,,,,,,,,,,,,,,,,,,,,,,,,,,,,,,,,,,,,,,,,,,,,
,,,,,,,,,,,,,,,,,61690ac66e1ca0506e2ef890,18,2022-02-12_12h23.00.316,lexical_decision_task_DD_L2,2021.2.3,Win32,60.00960154,,m,1,1.3499,,,,,,,,1.3499,1,0,13,13,4,1,1001,SQUEAK,m,,,,,,,,,,,,,,,,,,,,,,,,,,,,,,,,,,,,,,,,,,,,,,,,,,,,,,,,,,,,,,,,,
,,,,,,,,,,,,,,,,,61690ac66e1ca0506e2ef890,18,2022-02-12_12h23.00.316,lexical_decision_task_DD_L2,2021.2.3,Win32,60.00960154,,z,1,1.0126,,,,,,,,1.0126,1,0,14,14,8,1,1001,ASLERT,z,,,,,,,,,,,,,,,,,,,,,,,,,,,,,,,,,,,,,,,,,,,,,,,,,,,,,,,,,,,,,,,,,
,,,,,,,,,,,,,,,,,61690ac66e1ca0506e2ef890,18,2022-02-12_12h23.00.316,lexical_decision_task_DD_L2,2021.2.3,Win32,60.00960154,,m,1,0.6157,,,,,,,,0.6157,1,0,15,15,7,1,1001,VOLUME,m,,,,,,,,,,,,,,,,,,,,,,,,,,,,,,,,,,,,,,,,,,,,,,,,,,,,,,,,,,,,,,,,,
space,0.734259259,-0.212037037,0,0,0,,,,,,,1,end_of_practice,"You have completed the practice trials. During the experimental trials, you will not receive feedback. 
Before you begin, please ensure that you are in a comfortable and quiet location and will not be disturbed for about 15 minutes, as we cannot use your data if you do not complete all the trials. 
 When you are ready to start the experimental trials, please press space or touch the button below.",,,61690ac66e1ca0506e2ef890,18,2022-02-12_12h23.00.316,lexical_decision_task_DD_L2,2021.2.3,Win32,60.00960154,8.6654,,,,,,,,,,,,,,,,,,,,,0,0,0,0,1,,,,,,,,,,,,,,,,,,,,,,,,,,,,,,,,,,,,,,,,,,,,,,,,,,,,,,,,,,,,
,,,,,,,,,,,,,,,,,61690ac66e1ca0506e2ef890,18,2022-02-12_12h23.00.316,lexical_decision_task_DD_L2,2021.2.3,Win32,60.00960154,,,,,,,,,,,,1.1034,1,,,,,,,,,,,,,,m,1,1.1034,,,,,,,,0.734259259,-0.212037037,0,0,0,,0,0,0,46,1,PEARL,LB,old,m,./images/PEARLLB.png,,,,,,,,,,,,,,,,,,,,,,,,,,,,,,,,,,
,,,,,,,,,,,,,,,,,61690ac66e1ca0506e2ef890,18,2022-02-12_12h23.00.316,lexical_decision_task_DD_L2,2021.2.3,Win32,60.00960154,,,,,,,,,,,,0.8012,1,,,,,,,,,,,,,,m,1,0.8012,,,,,,,,0.734259259,-0.212037037,0,0,0,,0,1,1,44,1,LIZARD,C,old,m,./images/LIZARD.png,,,,,,,,,,,,,,,,,,,,,,,,,,,,,,,,,,
,,,,,,,,,,,,,,,,,61690ac66e1ca0506e2ef890,18,2022-02-12_12h23.00.316,lexical_decision_task_DD_L2,2021.2.3,Win32,60.00960154,,,,,,,,,,,,1.1163,1,,,,,,,,,,,,,,z,1,1.1163,,,,,,,,0.734259259,-0.212037037,0,0,0,,0,2,2,131,1,NACES,LB,old,z,./images/NACESLB.png,,,,,,,,,,,,,,,,,,,,,,,,,,,,,,,,,,
,,,,,,,,,,,,,,,,,61690ac66e1ca0506e2ef890,18,2022-02-12_12h23.00.316,lexical_decision_task_DD_L2,2021.2.3,Win32,60.00960154,,,,,,,,,,,,0.5909,1,,,,,,,,,,,,,,m,1,0.5909,,,,,,,,0.734259259,-0.212037037,0,0,0,,0,3,3,5,1,PASTA,C,old,m,./images/PASTA.png,,,,,,,,,,,,,,,,,,,,,,,,,,,,,,,,,,
,,,,,,,,,,,,,,,,,61690ac66e1ca0506e2ef890,18,2022-02-12_12h23.00.316,lexical_decision_task_DD_L2,2021.2.3,Win32,60.00960154,,,,,,,,,,,,1.4139,1,,,,,,,,,,,,,,m,1,1.4139,,,,,,,,0.734259259,-0.212037037,0,0,0,,0,4,4,49,1,DRUMS,LB,old,m,./images/DRUMSLB.png,,,,,,,,,,,,,,,,,,,,,,,,,,,,,,,,,,
,,,,,,,,,,,,,,,,,61690ac66e1ca0506e2ef890,18,2022-02-12_12h23.00.316,lexical_decision_task_DD_L2,2021.2.3,Win32,60.00960154,,,,,,,,,,,,2.3183,1,,,,,,,,,,,,,,z,1,2.3183,,,,,,,,0.734259259,-0.212037037,0,0,0,,0,5,5,154,1,THINT,HB,old,z,./images/THINTHB.png,,,,,,,,,,,,,,,,,,,,,,,,,,,,,,,,,,
,,,,,,,,,,,,,,,,,61690ac66e1ca0506e2ef890,18,2022-02-12_12h23.00.316,lexical_decision_task_DD_L2,2021.2.3,Win32,60.00960154,,,,,,,,,,,,1.0734,1,,,,,,,,,,,,,,z,1,1.0734,,,,,,,,0.734259259,-0.212037037,0,0,0,,0,6,6,144,1,NAIRY,C,old,z,./images/NAIRY.png,,,,,,,,,,,,,,,,,,,,,,,,,,,,,,,,,,
,,,,,,,,,,,,,,,,,61690ac66e1ca0506e2ef890,18,2022-02-12_12h23.00.316,lexical_decision_task_DD_L2,2021.2.3,Win32,60.00960154,,,,,,,,,,,,0.8613,1,,,,,,,,,,,,,,z,1,0.8613,,,,,,,,0.734259259,-0.212037037,0,0,0,,0,7,7,161,1,BLAPS,LB,old,z,./images/BLAPSLB.png,,,,,,,,,,,,,,,,,,,,,,,,,,,,,,,,,,
,,,,,,,,,,,,,,,,,61690ac66e1ca0506e2ef890,18,2022-02-12_12h23.00.316,lexical_decision_task_DD_L2,2021.2.3,Win32,60.00960154,,,,,,,,,,,,0.8033,0,,,,,,,,,,,,,,z,0,0.8033,,,,,,,,0.734259259,-0.212037037,0,0,0,,0,8,8,17,1,SKIING,C,old,m,./images/SKIING.png,,,,,,,,,,,,,,,,,,,,,,,,,,,,,,,,,,
,,,,,,,,,,,,,,,,,61690ac66e1ca0506e2ef890,18,2022-02-12_12h23.00.316,lexical_decision_task_DD_L2,2021.2.3,Win32,60.00960154,,,,,,,,,,,,0.9781,1,,,,,,,,,,,,,,m,1,0.9781,,,,,,,,0.734259259,-0.212037037,0,0,0,,0,9,9,58,1,BABOON,LB,old,m,./images/BABOONLB.png,,,,,,,,,,,,,,,,,,,,,,,,,,,,,,,,,,
,,,,,,,,,,,,,,,,,61690ac66e1ca0506e2ef890,18,2022-02-12_12h23.00.316,lexical_decision_task_DD_L2,2021.2.3,Win32,60.00960154,,,,,,,,,,,,0.8747,1,,,,,,,,,,,,,,z,1,0.8747,,,,,,,,0.734259259,-0.212037037,0,0,0,,0,10,10,95,1,HANTY,LB,old,z,./images/HANTYLB.png,,,,,,,,,,,,,,,,,,,,,,,,,,,,,,,,,,
,,,,,,,,,,,,,,,,,61690ac66e1ca0506e2ef890,18,2022-02-12_12h23.00.316,lexical_decision_task_DD_L2,2021.2.3,Win32,60.00960154,,,,,,,,,,,,0.8909,0,,,,,,,,,,,,,,m,0,0.8909,,,,,,,,0.734259259,-0.212037037,0,0,0,,0,11,11,104,1,GITTY,LB,old,z,./images/GITTYLB.png,,,,,,,,,,,,,,,,,,,,,,,,,,,,,,,,,,
,,,,,,,,,,,,,,,,,61690ac66e1ca0506e2ef890,18,2022-02-12_12h23.00.316,lexical_decision_task_DD_L2,2021.2.3,Win32,60.00960154,,,,,,,,,,,,1.03,1,,,,,,,,,,,,,,m,1,1.03,,,,,,,,0.734259259,-0.212037037,0,0,0,,0,12,12,51,1,ONION,HB,old,m,./images/ONIONHB.png,,,,,,,,,,,,,,,,,,,,,,,,,,,,,,,,,,
,,,,,,,,,,,,,,,,,61690ac66e1ca0506e2ef890,18,2022-02-12_12h23.00.316,lexical_decision_task_DD_L2,2021.2.3,Win32,60.00960154,,,,,,,,,,,,1.3988,1,,,,,,,,,,,,,,z,1,1.3988,,,,,,,,0.734259259,-0.212037037,0,0,0,,0,13,13,135,1,JOODY,C,old,z,./images/JOODY.png,,,,,,,,,,,,,,,,,,,,,,,,,,,,,,,,,,
,,,,,,,,,,,,,,,,,61690ac66e1ca0506e2ef890,18,2022-02-12_12h23.00.316,lexical_decision_task_DD_L2,2021.2.3,Win32,60.00960154,,,,,,,,,,,,0.9514,1,,,,,,,,,,,,,,z,1,0.9514,,,,,,,,0.734259259,-0.212037037,0,0,0,,0,14,14,156,1,HIXES,C,old,z,./images/HIXES.png,,,,,,,,,,,,,,,,,,,,,,,,,,,,,,,,,,
,,,,,,,,,,,,,,,,,61690ac66e1ca0506e2ef890,18,2022-02-12_12h23.00.316,lexical_decision_task_DD_L2,2021.2.3,Win32,60.00960154,,,,,,,,,,,,1.1372,0,,,,,,,,,,,,,,m,0,1.1372,,,,,,,,0.734259259,-0.212037037,0,0,0,,0,15,15,152,1,FRAIN,LB,old,z,./images/FRAINLB.png,,,,,,,,,,,,,,,,,,,,,,,,,,,,,,,,,,
,,,,,,,,,,,,,,,,,61690ac66e1ca0506e2ef890,18,2022-02-12_12h23.00.316,lexical_decision_task_DD_L2,2021.2.3,Win32,60.00960154,,,,,,,,,,,,2.9189,0,,,,,,,,,,,,,,m,0,2.9189,,,,,,,,0.734259259,-0.212037037,0,0,0,,0,16,16,157,1,INLER,HB,old,z,./images/INLERHB.png,,,,,,,,,,,,,,,,,,,,,,,,,,,,,,,,,,
,,,,,,,,,,,,,,,,,61690ac66e1ca0506e2ef890,18,2022-02-12_12h23.00.316,lexical_decision_task_DD_L2,2021.2.3,Win32,60.00960154,,,,,,,,,,,,0.6026,1,,,,,,,,,,,,,,m,1,0.6026,,,,,,,,0.734259259,-0.212037037,0,0,0,,0,17,17,64,1,JELLY,LB,old,m,./images/JELLYLB.png,,,,,,,,,,,,,,,,,,,,,,,,,,,,,,,,,,
,,,,,,,,,,,,,,,,,61690ac66e1ca0506e2ef890,18,2022-02-12_12h23.00.316,lexical_decision_task_DD_L2,2021.2.3,Win32,60.00960154,,,,,,,,,,,,0.7248,1,,,,,,,,,,,,,,m,1,0.7248,,,,,,,,0.734259259,-0.212037037,0,0,0,,0,18,18,71,1,PIMPLE,C,old,m,./images/PIMPLE.png,,,,,,,,,,,,,,,,,,,,,,,,,,,,,,,,,,
,,,,,,,,,,,,,,,,,61690ac66e1ca0506e2ef890,18,2022-02-12_12h23.00.316,lexical_decision_task_DD_L2,2021.2.3,Win32,60.00960154,,,,,,,,,,,,1.4607,1,,,,,,,,,,,,,,m,1,1.4607,,,,,,,,0.734259259,-0.212037037,0,0,0,,0,19,19,77,1,COUCH,C,old,m,./images/COUCH.png,,,,,,,,,,,,,,,,,,,,,,,,,,,,,,,,,,
,,,,,,,,,,,,,,,,,61690ac66e1ca0506e2ef890,18,2022-02-12_12h23.00.316,lexical_decision_task_DD_L2,2021.2.3,Win32,60.00960154,,,,,,,,,,,,1.3739,1,,,,,,,,,,,,,,z,1,1.3739,,,,,,,,0.734259259,-0.212037037,0,0,0,,0,20,20,108,1,GRUET,C,old,z,./images/GRUET.png,,,,,,,,,,,,,,,,,,,,,,,,,,,,,,,,,,
,,,,,,,,,,,,,,,,,61690ac66e1ca0506e2ef890,18,2022-02-12_12h23.00.316,lexical_decision_task_DD_L2,2021.2.3,Win32,60.00960154,,,,,,,,,,,,0.9698,1,,,,,,,,,,,,,,z,1,0.9698,,,,,,,,0.734259259,-0.212037037,0,0,0,,0,21,21,102,1,DULLE,C,old,z,./images/DULLE.png,,,,,,,,,,,,,,,,,,,,,,,,,,,,,,,,,,
,,,,,,,,,,,,,,,,,61690ac66e1ca0506e2ef890,18,2022-02-12_12h23.00.316,lexical_decision_task_DD_L2,2021.2.3,Win32,60.00960154,,,,,,,,,,,,0.8975,1,,,,,,,,,,,,,,z,1,0.8975,,,,,,,,0.734259259,-0.212037037,0,0,0,,0,22,22,146,1,MOOST,LB,old,z,./images/MOOSTLB.png,,,,,,,,,,,,,,,,,,,,,,,,,,,,,,,,,,
,,,,,,,,,,,,,,,,,61690ac66e1ca0506e2ef890,18,2022-02-12_12h23.00.316,lexical_decision_task_DD_L2,2021.2.3,Win32,60.00960154,,,,,,,,,,,,0.6713,1,,,,,,,,,,,,,,z,1,0.6713,,,,,,,,0.734259259,-0.212037037,0,0,0,,0,23,23,137,1,JOOST,LB,old,z,./images/JOOSTLB.png,,,,,,,,,,,,,,,,,,,,,,,,,,,,,,,,,,
,,,,,,,,,,,,,,,,,61690ac66e1ca0506e2ef890,18,2022-02-12_12h23.00.316,lexical_decision_task_DD_L2,2021.2.3,Win32,60.00960154,,,,,,,,,,,,1.8469,1,,,,,,,,,,,,,,z,1,1.8469,,,,,,,,0.734259259,-0.212037037,0,0,0,,0,24,24,112,1,MYING,HB,old,z,./images/MYINGHB.png,,,,,,,,,,,,,,,,,,,,,,,,,,,,,,,,,,
,,,,,,,,,,,,,,,,,61690ac66e1ca0506e2ef890,18,2022-02-12_12h23.00.316,lexical_decision_task_DD_L2,2021.2.3,Win32,60.00960154,,,,,,,,,,,,0.6095,1,,,,,,,,,,,,,,m,1,0.6095,,,,,,,,0.734259259,-0.212037037,0,0,0,,0,25,25,29,1,CRUMB,C,old,m,./images/CRUMB.png,,,,,,,,,,,,,,,,,,,,,,,,,,,,,,,,,,
,,,,,,,,,,,,,,,,,61690ac66e1ca0506e2ef890,18,2022-02-12_12h23.00.316,lexical_decision_task_DD_L2,2021.2.3,Win32,60.00960154,,,,,,,,,,,,0.6741,1,,,,,,,,,,,,,,m,1,0.6741,,,,,,,,0.734259259,-0.212037037,0,0,0,,0,26,26,75,1,GRAIN,HB,old,m,./images/GRAINHB.png,,,,,,,,,,,,,,,,,,,,,,,,,,,,,,,,,,
,,,,,,,,,,,,,,,,,61690ac66e1ca0506e2ef890,18,2022-02-12_12h23.00.316,lexical_decision_task_DD_L2,2021.2.3,Win32,60.00960154,,,,,,,,,,,,0.7582,1,,,,,,,,,,,,,,z,1,0.7582,,,,,,,,0.734259259,-0.212037037,0,0,0,,0,27,27,90,1,NEAST,C,old,z,./images/NEAST.png,,,,,,,,,,,,,,,,,,,,,,,,,,,,,,,,,,
,,,,,,,,,,,,,,,,,61690ac66e1ca0506e2ef890,18,2022-02-12_12h23.00.316,lexical_decision_task_DD_L2,2021.2.3,Win32,60.00960154,,,,,,,,,,,,0.7535,1,,,,,,,,,,,,,,z,1,0.7535,,,,,,,,0.734259259,-0.212037037,0,0,0,,0,28,28,125,1,MOOKY,LB,old,z,./images/MOOKYLB.png,,,,,,,,,,,,,,,,,,,,,,,,,,,,,,,,,,
,,,,,,,,,,,,,,,,,61690ac66e1ca0506e2ef890,18,2022-02-12_12h23.00.316,lexical_decision_task_DD_L2,2021.2.3,Win32,60.00960154,,,,,,,,,,,,1.1049,1,,,,,,,,,,,,,,z,1,1.1049,,,,,,,,0.734259259,-0.212037037,0,0,0,,0,29,29,159,1,CUDDY,C,old,z,./images/CUDDY.png,,,,,,,,,,,,,,,,,,,,,,,,,,,,,,,,,,
,,,,,,,,,,,,,,,,,61690ac66e1ca0506e2ef890,18,2022-02-12_12h23.00.316,lexical_decision_task_DD_L2,2021.2.3,Win32,60.00960154,,,,,,,,,,,,0.9881,1,,,,,,,,,,,,,,m,1,0.9881,,,,,,,,0.734259259,-0.212037037,0,0,0,,0,30,30,20,1,CRADLE,C,old,m,./images/CRADLE.png,,,,,,,,,,,,,,,,,,,,,,,,,,,,,,,,,,
,,,,,,,,,,,,,,,,,61690ac66e1ca0506e2ef890,18,2022-02-12_12h23.00.316,lexical_decision_task_DD_L2,2021.2.3,Win32,60.00960154,,,,,,,,,,,,0.7979,1,,,,,,,,,,,,,,z,1,0.7979,,,,,,,,0.734259259,-0.212037037,0,0,0,,0,31,31,111,1,HOSSE,C,old,z,./images/HOSSE.png,,,,,,,,,,,,,,,,,,,,,,,,,,,,,,,,,,
,,,,,,,,,,,,,,,,,61690ac66e1ca0506e2ef890,18,2022-02-12_12h23.00.316,lexical_decision_task_DD_L2,2021.2.3,Win32,60.00960154,,,,,,,,,,,,0.9229,1,,,,,,,,,,,,,,z,1,0.9229,,,,,,,,0.734259259,-0.212037037,0,0,0,,0,32,32,101,1,GLEET,LB,old,z,./images/GLEETLB.png,,,,,,,,,,,,,,,,,,,,,,,,,,,,,,,,,,
,,,,,,,,,,,,,,,,,61690ac66e1ca0506e2ef890,18,2022-02-12_12h23.00.316,lexical_decision_task_DD_L2,2021.2.3,Win32,60.00960154,,,,,,,,,,,,0.8467,1,,,,,,,,,,,,,,z,1,0.8467,,,,,,,,0.734259259,-0.212037037,0,0,0,,0,33,33,126,1,GUELS,C,old,z,./images/GUELS.png,,,,,,,,,,,,,,,,,,,,,,,,,,,,,,,,,,
,,,,,,,,,,,,,,,,,61690ac66e1ca0506e2ef890,18,2022-02-12_12h23.00.316,lexical_decision_task_DD_L2,2021.2.3,Win32,60.00960154,,,,,,,,,,,,1.7214,0,,,,,,,,,,,,,,m,0,1.7214,,,,,,,,0.734259259,-0.212037037,0,0,0,,0,34,34,130,1,CRILL,HB,old,z,./images/CRILLHB.png,,,,,,,,,,,,,,,,,,,,,,,,,,,,,,,,,,
,,,,,,,,,,,,,,,,,61690ac66e1ca0506e2ef890,18,2022-02-12_12h23.00.316,lexical_decision_task_DD_L2,2021.2.3,Win32,60.00960154,,,,,,,,,,,,0.7286,1,,,,,,,,,,,,,,m,1,0.7286,,,,,,,,0.734259259,-0.212037037,0,0,0,,0,35,35,37,1,BIRTH,LB,old,m,./images/BIRTHLB.png,,,,,,,,,,,,,,,,,,,,,,,,,,,,,,,,,,
,,,,,,,,,,,,,,,,,61690ac66e1ca0506e2ef890,18,2022-02-12_12h23.00.316,lexical_decision_task_DD_L2,2021.2.3,Win32,60.00960154,,,,,,,,,,,,1.5731,1,,,,,,,,,,,,,,z,1,1.5731,,,,,,,,0.734259259,-0.212037037,0,0,0,,0,36,36,87,1,TRING,C,old,z,./images/TRING.png,,,,,,,,,,,,,,,,,,,,,,,,,,,,,,,,,,
,,,,,,,,,,,,,,,,,61690ac66e1ca0506e2ef890,18,2022-02-12_12h23.00.316,lexical_decision_task_DD_L2,2021.2.3,Win32,60.00960154,,,,,,,,,,,,0.7414,1,,,,,,,,,,,,,,m,1,0.7414,,,,,,,,0.734259259,-0.212037037,0,0,0,,0,37,37,66,1,SWEAT,HB,old,m,./images/SWEATHB.png,,,,,,,,,,,,,,,,,,,,,,,,,,,,,,,,,,
,,,,,,,,,,,,,,,,,61690ac66e1ca0506e2ef890,18,2022-02-12_12h23.00.316,lexical_decision_task_DD_L2,2021.2.3,Win32,60.00960154,,,,,,,,,,,,0.8717,1,,,,,,,,,,,,,,z,1,0.8717,,,,,,,,0.734259259,-0.212037037,0,0,0,,0,38,38,134,1,TROSS,LB,old,z,./images/TROSSLB.png,,,,,,,,,,,,,,,,,,,,,,,,,,,,,,,,,,
,,,,,,,,,,,,,,,,,61690ac66e1ca0506e2ef890,18,2022-02-12_12h23.00.316,lexical_decision_task_DD_L2,2021.2.3,Win32,60.00960154,,,,,,,,,,,,1.6171,1,,,,,,,,,,,,,,m,1,1.6171,,,,,,,,0.734259259,-0.212037037,0,0,0,,0,39,39,43,1,MOSQUE,LB,old,m,./images/MOSQUELB.png,,,,,,,,,,,,,,,,,,,,,,,,,,,,,,,,,,
,,,,,,,,,,,,,,,,,61690ac66e1ca0506e2ef890,18,2022-02-12_12h23.00.316,lexical_decision_task_DD_L2,2021.2.3,Win32,60.00960154,,,,,,,,,,,,0.8835,1,,,,,,,,,,,,,,m,1,0.8835,,,,,,,,0.734259259,-0.212037037,0,0,0,,0,40,40,82,1,SUNSET,LB,old,m,./images/SUNSETLB.png,,,,,,,,,,,,,,,,,,,,,,,,,,,,,,,,,,
,,,,,,,,,,,,,,,,,61690ac66e1ca0506e2ef890,18,2022-02-12_12h23.00.316,lexical_decision_task_DD_L2,2021.2.3,Win32,60.00960154,,,,,,,,,,,,2.6532,1,,,,,,,,,,,,,,z,1,2.6532,,,,,,,,0.734259259,-0.212037037,0,0,0,space,0,41,41,136,1,WERVE,HB,old,z,./images/WERVEHB.png,5.6069,,,,,,,,,,,,,,,,,,,,,,,,,,,,,,,,,
,,,,,,,,,,,,,,,,,61690ac66e1ca0506e2ef890,18,2022-02-12_12h23.00.316,lexical_decision_task_DD_L2,2021.2.3,Win32,60.00960154,,,,,,,,,,,,0.9987,1,,,,,,,,,,,,,,m,1,0.9987,,,,,,,,0.734259259,-0.212037037,0,0,0,,0,42,42,9,1,RHINO,HB,old,m,./images/RHINOHB.png,,,,,,,,,,,,,,,,,,,,,,,,,,,,,,,,,,
,,,,,,,,,,,,,,,,,61690ac66e1ca0506e2ef890,18,2022-02-12_12h23.00.316,lexical_decision_task_DD_L2,2021.2.3,Win32,60.00960154,,,,,,,,,,,,0.6253,1,,,,,,,,,,,,,,m,1,0.6253,,,,,,,,0.734259259,-0.212037037,0,0,0,,0,43,43,22,1,MELON,LB,old,m,./images/MELONLB.png,,,,,,,,,,,,,,,,,,,,,,,,,,,,,,,,,,
,,,,,,,,,,,,,,,,,61690ac66e1ca0506e2ef890,18,2022-02-12_12h23.00.316,lexical_decision_task_DD_L2,2021.2.3,Win32,60.00960154,,,,,,,,,,,,0.6873,1,,,,,,,,,,,,,,z,1,0.6873,,,,,,,,0.734259259,-0.212037037,0,0,0,,0,44,44,141,1,PLEET,C,old,z,./images/PLEET.png,,,,,,,,,,,,,,,,,,,,,,,,,,,,,,,,,,
,,,,,,,,,,,,,,,,,61690ac66e1ca0506e2ef890,18,2022-02-12_12h23.00.316,lexical_decision_task_DD_L2,2021.2.3,Win32,60.00960154,,,,,,,,,,,,1.0892,1,,,,,,,,,,,,,,z,1,1.0892,,,,,,,,0.734259259,-0.212037037,0,0,0,,0,45,45,98,1,BAMPS,LB,old,z,./images/BAMPSLB.png,,,,,,,,,,,,,,,,,,,,,,,,,,,,,,,,,,
,,,,,,,,,,,,,,,,,61690ac66e1ca0506e2ef890,18,2022-02-12_12h23.00.316,lexical_decision_task_DD_L2,2021.2.3,Win32,60.00960154,,,,,,,,,,,,1.0389,1,,,,,,,,,,,,,,z,1,1.0389,,,,,,,,0.734259259,-0.212037037,0,0,0,,0,46,46,158,1,EGECT,LB,old,z,./images/EGECTLB.png,,,,,,,,,,,,,,,,,,,,,,,,,,,,,,,,,,
,,,,,,,,,,,,,,,,,61690ac66e1ca0506e2ef890,18,2022-02-12_12h23.00.316,lexical_decision_task_DD_L2,2021.2.3,Win32,60.00960154,,,,,,,,,,,,3.0281,1,,,,,,,,,,,,,,z,1,3.0281,,,,,,,,0.734259259,-0.212037037,0,0,0,,0,47,47,166,1,SHORY,HB,old,z,./images/SHORYHB.png,,,,,,,,,,,,,,,,,,,,,,,,,,,,,,,,,,
,,,,,,,,,,,,,,,,,61690ac66e1ca0506e2ef890,18,2022-02-12_12h23.00.316,lexical_decision_task_DD_L2,2021.2.3,Win32,60.00960154,,,,,,,,,,,,2.4339,1,,,,,,,,,,,,,,z,1,2.4339,,,,,,,,0.734259259,-0.212037037,0,0,0,,0,48,48,139,1,BLEAR,HB,old,z,./images/BLEARHB.png,,,,,,,,,,,,,,,,,,,,,,,,,,,,,,,,,,
,,,,,,,,,,,,,,,,,61690ac66e1ca0506e2ef890,18,2022-02-12_12h23.00.316,lexical_decision_task_DD_L2,2021.2.3,Win32,60.00960154,,,,,,,,,,,,1.1244,1,,,,,,,,,,,,,,m,1,1.1244,,,,,,,,0.734259259,-0.212037037,0,0,0,,0,49,49,72,1,NOOSE,HB,old,m,./images/NOOSEHB.png,,,,,,,,,,,,,,,,,,,,,,,,,,,,,,,,,,
,,,,,,,,,,,,,,,,,61690ac66e1ca0506e2ef890,18,2022-02-12_12h23.00.316,lexical_decision_task_DD_L2,2021.2.3,Win32,60.00960154,,,,,,,,,,,,1.9408,1,,,,,,,,,,,,,,m,1,1.9408,,,,,,,,0.734259259,-0.212037037,0,0,0,,0,50,50,81,1,POODLE,HB,old,m,./images/POODLEHB.png,,,,,,,,,,,,,,,,,,,,,,,,,,,,,,,,,,
,,,,,,,,,,,,,,,,,61690ac66e1ca0506e2ef890,18,2022-02-12_12h23.00.316,lexical_decision_task_DD_L2,2021.2.3,Win32,60.00960154,,,,,,,,,,,,0.6909,1,,,,,,,,,,,,,,m,1,0.6909,,,,,,,,0.734259259,-0.212037037,0,0,0,,0,51,51,27,1,ATTIC,HB,old,m,./images/ATTICHB.png,,,,,,,,,,,,,,,,,,,,,,,,,,,,,,,,,,
,,,,,,,,,,,,,,,,,61690ac66e1ca0506e2ef890,18,2022-02-12_12h23.00.316,lexical_decision_task_DD_L2,2021.2.3,Win32,60.00960154,,,,,,,,,,,,0.6477,1,,,,,,,,,,,,,,m,1,0.6477,,,,,,,,0.734259259,-0.212037037,0,0,0,,0,52,52,14,1,PICKLE,C,old,m,./images/PICKLE.png,,,,,,,,,,,,,,,,,,,,,,,,,,,,,,,,,,
,,,,,,,,,,,,,,,,,61690ac66e1ca0506e2ef890,18,2022-02-12_12h23.00.316,lexical_decision_task_DD_L2,2021.2.3,Win32,60.00960154,,,,,,,,,,,,1.293,1,,,,,,,,,,,,,,z,1,1.293,,,,,,,,0.734259259,-0.212037037,0,0,0,,0,53,53,124,1,TUNCH,HB,old,z,./images/TUNCHHB.png,,,,,,,,,,,,,,,,,,,,,,,,,,,,,,,,,,
,,,,,,,,,,,,,,,,,61690ac66e1ca0506e2ef890,18,2022-02-12_12h23.00.316,lexical_decision_task_DD_L2,2021.2.3,Win32,60.00960154,,,,,,,,,,,,2.3032,1,,,,,,,,,,,,,,z,1,2.3032,,,,,,,,0.734259259,-0.212037037,0,0,0,,0,54,54,140,1,DOVET,LB,old,z,./images/DOVETLB.png,,,,,,,,,,,,,,,,,,,,,,,,,,,,,,,,,,
,,,,,,,,,,,,,,,,,61690ac66e1ca0506e2ef890,18,2022-02-12_12h23.00.316,lexical_decision_task_DD_L2,2021.2.3,Win32,60.00960154,,,,,,,,,,,,0.865,1,,,,,,,,,,,,,,z,1,0.865,,,,,,,,0.734259259,-0.212037037,0,0,0,,0,55,55,165,1,TROWN,C,old,z,./images/TROWN.png,,,,,,,,,,,,,,,,,,,,,,,,,,,,,,,,,,
,,,,,,,,,,,,,,,,,61690ac66e1ca0506e2ef890,18,2022-02-12_12h23.00.316,lexical_decision_task_DD_L2,2021.2.3,Win32,60.00960154,,,,,,,,,,,,0.7326,1,,,,,,,,,,,,,,m,1,0.7326,,,,,,,,0.734259259,-0.212037037,0,0,0,,0,56,56,63,1,MIRROR,HB,old,m,./images/MIRRORHB.png,,,,,,,,,,,,,,,,,,,,,,,,,,,,,,,,,,
,,,,,,,,,,,,,,,,,61690ac66e1ca0506e2ef890,18,2022-02-12_12h23.00.316,lexical_decision_task_DD_L2,2021.2.3,Win32,60.00960154,,,,,,,,,,,,0.6204,1,,,,,,,,,,,,,,m,1,0.6204,,,,,,,,0.734259259,-0.212037037,0,0,0,,0,57,57,47,1,BERRY,C,old,m,./images/BERRY.png,,,,,,,,,,,,,,,,,,,,,,,,,,,,,,,,,,
,,,,,,,,,,,,,,,,,61690ac66e1ca0506e2ef890,18,2022-02-12_12h23.00.316,lexical_decision_task_DD_L2,2021.2.3,Win32,60.00960154,,,,,,,,,,,,0.7083,1,,,,,,,,,,,,,,m,1,0.7083,,,,,,,,0.734259259,-0.212037037,0,0,0,,0,58,58,76,1,INFANT,LB,old,m,./images/INFANTLB.png,,,,,,,,,,,,,,,,,,,,,,,,,,,,,,,,,,
,,,,,,,,,,,,,,,,,61690ac66e1ca0506e2ef890,18,2022-02-12_12h23.00.316,lexical_decision_task_DD_L2,2021.2.3,Win32,60.00960154,,,,,,,,,,,,0.5404,1,,,,,,,,,,,,,,m,1,0.5404,,,,,,,,0.734259259,-0.212037037,0,0,0,,0,59,59,32,1,BARREL,C,old,m,./images/BARREL.png,,,,,,,,,,,,,,,,,,,,,,,,,,,,,,,,,,
,,,,,,,,,,,,,,,,,61690ac66e1ca0506e2ef890,18,2022-02-12_12h23.00.316,lexical_decision_task_DD_L2,2021.2.3,Win32,60.00960154,,,,,,,,,,,,0.9218,0,,,,,,,,,,,,,,m,0,0.9218,,,,,,,,0.734259259,-0.212037037,0,0,0,,0,60,60,100,1,DRIBS,HB,old,z,./images/DRIBSHB.png,,,,,,,,,,,,,,,,,,,,,,,,,,,,,,,,,,
,,,,,,,,,,,,,,,,,61690ac66e1ca0506e2ef890,18,2022-02-12_12h23.00.316,lexical_decision_task_DD_L2,2021.2.3,Win32,60.00960154,,,,,,,,,,,,0.5284,1,,,,,,,,,,,,,,m,1,0.5284,,,,,,,,0.734259259,-0.212037037,0,0,0,,0,61,61,61,1,CANDLE,LB,old,m,./images/CANDLELB.png,,,,,,,,,,,,,,,,,,,,,,,,,,,,,,,,,,
,,,,,,,,,,,,,,,,,61690ac66e1ca0506e2ef890,18,2022-02-12_12h23.00.316,lexical_decision_task_DD_L2,2021.2.3,Win32,60.00960154,,,,,,,,,,,,0.7235,1,,,,,,,,,,,,,,m,1,0.7235,,,,,,,,0.734259259,-0.212037037,0,0,0,,0,62,62,53,1,CARPET,C,old,m,./images/CARPET.png,,,,,,,,,,,,,,,,,,,,,,,,,,,,,,,,,,
,,,,,,,,,,,,,,,,,61690ac66e1ca0506e2ef890,18,2022-02-12_12h23.00.316,lexical_decision_task_DD_L2,2021.2.3,Win32,60.00960154,,,,,,,,,,,,4.3789,1,,,,,,,,,,,,,,z,1,4.3789,,,,,,,,0.734259259,-0.212037037,0,0,0,,0,63,63,120,1,RINED,C,old,z,./images/RINED.png,,,,,,,,,,,,,,,,,,,,,,,,,,,,,,,,,,
,,,,,,,,,,,,,,,,,61690ac66e1ca0506e2ef890,18,2022-02-12_12h23.00.316,lexical_decision_task_DD_L2,2021.2.3,Win32,60.00960154,,,,,,,,,,,,0.5706,1,,,,,,,,,,,,,,m,1,0.5706,,,,,,,,0.734259259,-0.212037037,0,0,0,,0,64,64,79,1,CRUST,LB,old,m,./images/CRUSTLB.png,,,,,,,,,,,,,,,,,,,,,,,,,,,,,,,,,,
,,,,,,,,,,,,,,,,,61690ac66e1ca0506e2ef890,18,2022-02-12_12h23.00.316,lexical_decision_task_DD_L2,2021.2.3,Win32,60.00960154,,,,,,,,,,,,0.6759,1,,,,,,,,,,,,,,m,1,0.6759,,,,,,,,0.734259259,-0.212037037,0,0,0,,0,65,65,56,1,PACKET,C,old,m,./images/PACKET.png,,,,,,,,,,,,,,,,,,,,,,,,,,,,,,,,,,
,,,,,,,,,,,,,,,,,61690ac66e1ca0506e2ef890,18,2022-02-12_12h23.00.316,lexical_decision_task_DD_L2,2021.2.3,Win32,60.00960154,,,,,,,,,,,,1.8535,1,,,,,,,,,,,,,,z,1,1.8535,,,,,,,,0.734259259,-0.212037037,0,0,0,,0,66,66,133,1,POWDY,HB,old,z,./images/POWDYHB.png,,,,,,,,,,,,,,,,,,,,,,,,,,,,,,,,,,
,,,,,,,,,,,,,,,,,61690ac66e1ca0506e2ef890,18,2022-02-12_12h23.00.316,lexical_decision_task_DD_L2,2021.2.3,Win32,60.00960154,,,,,,,,,,,,3.1242,1,,,,,,,,,,,,,,z,1,3.1242,,,,,,,,0.734259259,-0.212037037,0,0,0,,0,67,67,162,1,LEICH,C,old,z,./images/LEICH.png,,,,,,,,,,,,,,,,,,,,,,,,,,,,,,,,,,
,,,,,,,,,,,,,,,,,61690ac66e1ca0506e2ef890,18,2022-02-12_12h23.00.316,lexical_decision_task_DD_L2,2021.2.3,Win32,60.00960154,,,,,,,,,,,,1.4827,1,,,,,,,,,,,,,,z,1,1.4827,,,,,,,,0.734259259,-0.212037037,0,0,0,,0,68,68,160,1,VEETS,HB,old,z,./images/VEETSHB.png,,,,,,,,,,,,,,,,,,,,,,,,,,,,,,,,,,
,,,,,,,,,,,,,,,,,61690ac66e1ca0506e2ef890,18,2022-02-12_12h23.00.316,lexical_decision_task_DD_L2,2021.2.3,Win32,60.00960154,,,,,,,,,,,,0.7707,1,,,,,,,,,,,,,,m,1,0.7707,,,,,,,,0.734259259,-0.212037037,0,0,0,,0,69,69,65,1,FARMER,C,old,m,./images/FARMER.png,,,,,,,,,,,,,,,,,,,,,,,,,,,,,,,,,,
,,,,,,,,,,,,,,,,,61690ac66e1ca0506e2ef890,18,2022-02-12_12h23.00.316,lexical_decision_task_DD_L2,2021.2.3,Win32,60.00960154,,,,,,,,,,,,2.5088,1,,,,,,,,,,,,,,z,1,2.5088,,,,,,,,0.734259259,-0.212037037,0,0,0,,0,70,70,103,1,FLORT,HB,old,z,./images/FLORTHB.png,,,,,,,,,,,,,,,,,,,,,,,,,,,,,,,,,,
,,,,,,,,,,,,,,,,,61690ac66e1ca0506e2ef890,18,2022-02-12_12h23.00.316,lexical_decision_task_DD_L2,2021.2.3,Win32,60.00960154,,,,,,,,,,,,6.791,1,,,,,,,,,,,,,,m,1,6.791,,,,,,,,0.734259259,-0.212037037,0,0,0,,0,71,71,33,1,MAGGOT,HB,old,m,./images/MAGGOTHB.png,,,,,,,,,,,,,,,,,,,,,,,,,,,,,,,,,,
,,,,,,,,,,,,,,,,,61690ac66e1ca0506e2ef890,18,2022-02-12_12h23.00.316,lexical_decision_task_DD_L2,2021.2.3,Win32,60.00960154,,,,,,,,,,,,0.809,1,,,,,,,,,,,,,,z,1,0.809,,,,,,,,0.734259259,-0.212037037,0,0,0,,0,72,72,114,1,RIKES,C,old,z,./images/RIKES.png,,,,,,,,,,,,,,,,,,,,,,,,,,,,,,,,,,
,,,,,,,,,,,,,,,,,61690ac66e1ca0506e2ef890,18,2022-02-12_12h23.00.316,lexical_decision_task_DD_L2,2021.2.3,Win32,60.00960154,,,,,,,,,,,,1.4441,1,,,,,,,,,,,,,,z,1,1.4441,,,,,,,,0.734259259,-0.212037037,0,0,0,,0,73,73,85,1,CHULK,HB,old,z,./images/CHULKHB.png,,,,,,,,,,,,,,,,,,,,,,,,,,,,,,,,,,
,,,,,,,,,,,,,,,,,61690ac66e1ca0506e2ef890,18,2022-02-12_12h23.00.316,lexical_decision_task_DD_L2,2021.2.3,Win32,60.00960154,,,,,,,,,,,,1.3437,1,,,,,,,,,,,,,,z,1,1.3437,,,,,,,,0.734259259,-0.212037037,0,0,0,,0,74,74,148,1,JOMS,HB,old,z,./images/JOMSHB.png,,,,,,,,,,,,,,,,,,,,,,,,,,,,,,,,,,
,,,,,,,,,,,,,,,,,61690ac66e1ca0506e2ef890,18,2022-02-12_12h23.00.316,lexical_decision_task_DD_L2,2021.2.3,Win32,60.00960154,,,,,,,,,,,,0.5815,1,,,,,,,,,,,,,,m,1,0.5815,,,,,,,,0.734259259,-0.212037037,0,0,0,,0,75,75,38,1,LADDER,C,old,m,./images/LADDER.png,,,,,,,,,,,,,,,,,,,,,,,,,,,,,,,,,,
,,,,,,,,,,,,,,,,,61690ac66e1ca0506e2ef890,18,2022-02-12_12h23.00.316,lexical_decision_task_DD_L2,2021.2.3,Win32,60.00960154,,,,,,,,,,,,0.6517,1,,,,,,,,,,,,,,z,1,0.6517,,,,,,,,0.734259259,-0.212037037,0,0,0,,0,76,76,96,1,KEAMS,C,old,z,./images/KEAMS.png,,,,,,,,,,,,,,,,,,,,,,,,,,,,,,,,,,
,,,,,,,,,,,,,,,,,61690ac66e1ca0506e2ef890,18,2022-02-12_12h23.00.316,lexical_decision_task_DD_L2,2021.2.3,Win32,60.00960154,,,,,,,,,,,,1.7761,1,,,,,,,,,,,,,,z,1,1.7761,,,,,,,,0.734259259,-0.212037037,0,0,0,,0,77,77,94,1,BLANS,HB,old,z,./images/BLANSHB.png,,,,,,,,,,,,,,,,,,,,,,,,,,,,,,,,,,
,,,,,,,,,,,,,,,,,61690ac66e1ca0506e2ef890,18,2022-02-12_12h23.00.316,lexical_decision_task_DD_L2,2021.2.3,Win32,60.00960154,,,,,,,,,,,,0.6126,1,,,,,,,,,,,,,,m,1,0.6126,,,,,,,,0.734259259,-0.212037037,0,0,0,,0,78,78,39,1,SHELF,HB,old,m,./images/SHELFHB.png,,,,,,,,,,,,,,,,,,,,,,,,,,,,,,,,,,
,,,,,,,,,,,,,,,,,61690ac66e1ca0506e2ef890,18,2022-02-12_12h23.00.316,lexical_decision_task_DD_L2,2021.2.3,Win32,60.00960154,,,,,,,,,,,,0.6346,1,,,,,,,,,,,,,,m,1,0.6346,,,,,,,,0.734259259,-0.212037037,0,0,0,,0,79,79,26,1,SMOKER,C,old,m,./images/SMOKER.png,,,,,,,,,,,,,,,,,,,,,,,,,,,,,,,,,,
,,,,,,,,,,,,,,,,,61690ac66e1ca0506e2ef890,18,2022-02-12_12h23.00.316,lexical_decision_task_DD_L2,2021.2.3,Win32,60.00960154,,,,,,,,,,,,0.5661,1,,,,,,,,,,,,,,m,1,0.5661,,,,,,,,0.734259259,-0.212037037,0,0,0,,0,80,80,55,1,MUFFIN,LB,old,m,./images/MUFFINLB.png,,,,,,,,,,,,,,,,,,,,,,,,,,,,,,,,,,
,,,,,,,,,,,,,,,,,61690ac66e1ca0506e2ef890,18,2022-02-12_12h23.00.316,lexical_decision_task_DD_L2,2021.2.3,Win32,60.00960154,,,,,,,,,,,,0.5715,1,,,,,,,,,,,,,,z,1,0.5715,,,,,,,,0.734259259,-0.212037037,0,0,0,,0,81,81,132,1,SCIFF,C,old,z,./images/SCIFF.png,,,,,,,,,,,,,,,,,,,,,,,,,,,,,,,,,,
,,,,,,,,,,,,,,,,,61690ac66e1ca0506e2ef890,18,2022-02-12_12h23.00.316,lexical_decision_task_DD_L2,2021.2.3,Win32,60.00960154,,,,,,,,,,,,0.6366,1,,,,,,,,,,,,,,z,1,0.6366,,,,,,,,0.734259259,-0.212037037,0,0,0,,0,82,82,153,1,CLUPS,C,old,z,./images/CLUPS.png,,,,,,,,,,,,,,,,,,,,,,,,,,,,,,,,,,
,,,,,,,,,,,,,,,,,61690ac66e1ca0506e2ef890,18,2022-02-12_12h23.00.316,lexical_decision_task_DD_L2,2021.2.3,Win32,60.00960154,,,,,,,,,,,,0.8983,1,,,,,,,,,,,,,,z,1,0.8983,,,,,,,,0.734259259,-0.212037037,0,0,0,space,0,83,83,155,1,CANGY,LB,old,z,./images/CANGYLB.png,3.1229,,,,,,,,,,,,,,,,,,,,,,,,,,,,,,,,,
,,,,,,,,,,,,,,,,,61690ac66e1ca0506e2ef890,18,2022-02-12_12h23.00.316,lexical_decision_task_DD_L2,2021.2.3,Win32,60.00960154,,,,,,,,,,,,0.7459,1,,,,,,,,,,,,,,z,1,0.7459,,,,,,,,0.734259259,-0.212037037,0,0,0,,0,84,84,150,1,NOOLS,C,old,z,./images/NOOLS.png,,,,,,,,,,,,,,,,,,,,,,,,,,,,,,,,,,
,,,,,,,,,,,,,,,,,61690ac66e1ca0506e2ef890,18,2022-02-12_12h23.00.316,lexical_decision_task_DD_L2,2021.2.3,Win32,60.00960154,,,,,,,,,,,,0.7515,1,,,,,,,,,,,,,,m,1,0.7515,,,,,,,,0.734259259,-0.212037037,0,0,0,,0,85,85,3,1,FINGER,HB,old,m,./images/FINGERHB.png,,,,,,,,,,,,,,,,,,,,,,,,,,,,,,,,,,
,,,,,,,,,,,,,,,,,61690ac66e1ca0506e2ef890,18,2022-02-12_12h23.00.316,lexical_decision_task_DD_L2,2021.2.3,Win32,60.00960154,,,,,,,,,,,,0.5335,1,,,,,,,,,,,,,,z,1,0.5335,,,,,,,,0.734259259,-0.212037037,0,0,0,,0,86,86,123,1,SEDGE,C,old,z,./images/SEDGE.png,,,,,,,,,,,,,,,,,,,,,,,,,,,,,,,,,,
,,,,,,,,,,,,,,,,,61690ac66e1ca0506e2ef890,18,2022-02-12_12h23.00.316,lexical_decision_task_DD_L2,2021.2.3,Win32,60.00960154,,,,,,,,,,,,0.7935,1,,,,,,,,,,,,,,m,1,0.7935,,,,,,,,0.734259259,-0.212037037,0,0,0,,0,87,87,42,1,FOLDER,HB,old,m,./images/FOLDERHB.png,,,,,,,,,,,,,,,,,,,,,,,,,,,,,,,,,,
,,,,,,,,,,,,,,,,,61690ac66e1ca0506e2ef890,18,2022-02-12_12h23.00.316,lexical_decision_task_DD_L2,2021.2.3,Win32,60.00960154,,,,,,,,,,,,1.1938,1,,,,,,,,,,,,,,m,1,1.1938,,,,,,,,0.734259259,-0.212037037,0,0,0,,0,88,88,69,1,COOKER,HB,old,m,./images/COOKERHB.png,,,,,,,,,,,,,,,,,,,,,,,,,,,,,,,,,,
,,,,,,,,,,,,,,,,,61690ac66e1ca0506e2ef890,18,2022-02-12_12h23.00.316,lexical_decision_task_DD_L2,2021.2.3,Win32,60.00960154,,,,,,,,,,,,1.0429,1,,,,,,,,,,,,,,z,1,1.0429,,,,,,,,0.734259259,-0.212037037,0,0,0,,0,89,89,164,1,SGREW,LB,old,z,./images/SGREWLB.png,,,,,,,,,,,,,,,,,,,,,,,,,,,,,,,,,,
,,,,,,,,,,,,,,,,,61690ac66e1ca0506e2ef890,18,2022-02-12_12h23.00.316,lexical_decision_task_DD_L2,2021.2.3,Win32,60.00960154,,,,,,,,,,,,1.1035,1,,,,,,,,,,,,,,m,1,1.1035,,,,,,,,0.734259259,-0.212037037,0,0,0,,0,90,90,70,1,URINE,LB,old,m,./images/URINELB.png,,,,,,,,,,,,,,,,,,,,,,,,,,,,,,,,,,
,,,,,,,,,,,,,,,,,61690ac66e1ca0506e2ef890,18,2022-02-12_12h23.00.316,lexical_decision_task_DD_L2,2021.2.3,Win32,60.00960154,,,,,,,,,,,,0.7768,1,,,,,,,,,,,,,,z,1,0.7768,,,,,,,,0.734259259,-0.212037037,0,0,0,,0,91,91,113,1,LINEW,LB,old,z,./images/LINEWLB.png,,,,,,,,,,,,,,,,,,,,,,,,,,,,,,,,,,
,,,,,,,,,,,,,,,,,61690ac66e1ca0506e2ef890,18,2022-02-12_12h23.00.316,lexical_decision_task_DD_L2,2021.2.3,Win32,60.00960154,,,,,,,,,,,,0.7819,1,,,,,,,,,,,,,,m,1,0.7819,,,,,,,,0.734259259,-0.212037037,0,0,0,,0,92,92,11,1,BONNET,C,old,m,./images/BONNET.png,,,,,,,,,,,,,,,,,,,,,,,,,,,,,,,,,,
,,,,,,,,,,,,,,,,,61690ac66e1ca0506e2ef890,18,2022-02-12_12h23.00.316,lexical_decision_task_DD_L2,2021.2.3,Win32,60.00960154,,,,,,,,,,,,2.7319,1,,,,,,,,,,,,,,z,1,2.7319,,,,,,,,0.734259259,-0.212037037,0,0,0,,0,93,93,97,1,CHIDS,HB,old,z,./images/CHIDSHB.png,,,,,,,,,,,,,,,,,,,,,,,,,,,,,,,,,,
,,,,,,,,,,,,,,,,,61690ac66e1ca0506e2ef890,18,2022-02-12_12h23.00.316,lexical_decision_task_DD_L2,2021.2.3,Win32,60.00960154,,,,,,,,,,,,1.3221,1,,,,,,,,,,,,,,z,1,1.3221,,,,,,,,0.734259259,-0.212037037,0,0,0,,0,94,94,143,1,MONGS,LB,old,z,./images/MONGSLB.png,,,,,,,,,,,,,,,,,,,,,,,,,,,,,,,,,,
,,,,,,,,,,,,,,,,,61690ac66e1ca0506e2ef890,18,2022-02-12_12h23.00.316,lexical_decision_task_DD_L2,2021.2.3,Win32,60.00960154,,,,,,,,,,,,1.2693,1,,,,,,,,,,,,,,z,1,1.2693,,,,,,,,0.734259259,-0.212037037,0,0,0,,0,95,95,116,1,BALGY,LB,old,z,./images/BALGYLB.png,,,,,,,,,,,,,,,,,,,,,,,,,,,,,,,,,,
,,,,,,,,,,,,,,,,,61690ac66e1ca0506e2ef890,18,2022-02-12_12h23.00.316,lexical_decision_task_DD_L2,2021.2.3,Win32,60.00960154,,,,,,,,,,,,0.6349,1,,,,,,,,,,,,,,m,1,0.6349,,,,,,,,0.734259259,-0.212037037,0,0,0,,0,96,96,19,1,DOUGH,LB,old,m,./images/DOUGHLB.png,,,,,,,,,,,,,,,,,,,,,,,,,,,,,,,,,,
,,,,,,,,,,,,,,,,,61690ac66e1ca0506e2ef890,18,2022-02-12_12h23.00.316,lexical_decision_task_DD_L2,2021.2.3,Win32,60.00960154,,,,,,,,,,,,0.6752,1,,,,,,,,,,,,,,m,1,0.6752,,,,,,,,0.734259259,-0.212037037,0,0,0,,0,97,97,48,1,SPORT,HB,old,m,./images/SPORTHB.png,,,,,,,,,,,,,,,,,,,,,,,,,,,,,,,,,,
,,,,,,,,,,,,,,,,,61690ac66e1ca0506e2ef890,18,2022-02-12_12h23.00.316,lexical_decision_task_DD_L2,2021.2.3,Win32,60.00960154,,,,,,,,,,,,0.6312,1,,,,,,,,,,,,,,z,1,0.6312,,,,,,,,0.734259259,-0.212037037,0,0,0,,0,98,98,119,1,PAFER,LB,old,z,./images/PAFERLB.png,,,,,,,,,,,,,,,,,,,,,,,,,,,,,,,,,,
,,,,,,,,,,,,,,,,,61690ac66e1ca0506e2ef890,18,2022-02-12_12h23.00.316,lexical_decision_task_DD_L2,2021.2.3,Win32,60.00960154,,,,,,,,,,,,2.141,1,,,,,,,,,,,,,,z,1,2.141,,,,,,,,0.734259259,-0.212037037,0,0,0,,0,99,99,145,1,LAMEL,HB,old,z,./images/LAMELHB.png,,,,,,,,,,,,,,,,,,,,,,,,,,,,,,,,,,
,,,,,,,,,,,,,,,,,61690ac66e1ca0506e2ef890,18,2022-02-12_12h23.00.316,lexical_decision_task_DD_L2,2021.2.3,Win32,60.00960154,,,,,,,,,,,,0.6805,1,,,,,,,,,,,,,,m,1,0.6805,,,,,,,,0.734259259,-0.212037037,0,0,0,,0,100,100,24,1,SCREW,HB,old,m,./images/SCREWHB.png,,,,,,,,,,,,,,,,,,,,,,,,,,,,,,,,,,
,,,,,,,,,,,,,,,,,61690ac66e1ca0506e2ef890,18,2022-02-12_12h23.00.316,lexical_decision_task_DD_L2,2021.2.3,Win32,60.00960154,,,,,,,,,,,,0.6909,1,,,,,,,,,,,,,,z,1,0.6909,,,,,,,,0.734259259,-0.212037037,0,0,0,,0,101,101,92,1,PAIMS,LB,old,z,./images/PAIMSLB.png,,,,,,,,,,,,,,,,,,,,,,,,,,,,,,,,,,
,,,,,,,,,,,,,,,,,61690ac66e1ca0506e2ef890,18,2022-02-12_12h23.00.316,lexical_decision_task_DD_L2,2021.2.3,Win32,60.00960154,,,,,,,,,,,,0.5092,1,,,,,,,,,,,,,,m,1,0.5092,,,,,,,,0.734259259,-0.212037037,0,0,0,,0,102,102,83,1,JUNGLE,C,old,m,./images/JUNGLE.png,,,,,,,,,,,,,,,,,,,,,,,,,,,,,,,,,,
,,,,,,,,,,,,,,,,,61690ac66e1ca0506e2ef890,18,2022-02-12_12h23.00.316,lexical_decision_task_DD_L2,2021.2.3,Win32,60.00960154,,,,,,,,,,,,0.4527,1,,,,,,,,,,,,,,m,1,0.4527,,,,,,,,0.734259259,-0.212037037,0,0,0,,0,103,103,62,1,PURSE,C,old,m,./images/PURSE.png,,,,,,,,,,,,,,,,,,,,,,,,,,,,,,,,,,
,,,,,,,,,,,,,,,,,61690ac66e1ca0506e2ef890,18,2022-02-12_12h23.00.316,lexical_decision_task_DD_L2,2021.2.3,Win32,60.00960154,,,,,,,,,,,,0.4443,1,,,,,,,,,,,,,,m,1,0.4443,,,,,,,,0.734259259,-0.212037037,0,0,0,,0,104,104,41,1,STRING,C,old,m,./images/STRING.png,,,,,,,,,,,,,,,,,,,,,,,,,,,,,,,,,,
,,,,,,,,,,,,,,,,,61690ac66e1ca0506e2ef890,18,2022-02-12_12h23.00.316,lexical_decision_task_DD_L2,2021.2.3,Win32,60.00960154,,,,,,,,,,,,0.6362,1,,,,,,,,,,,,,,m,1,0.6362,,,,,,,,0.734259259,-0.212037037,0,0,0,,0,105,105,15,1,GREASE,HB,old,m,./images/GREASEHB.png,,,,,,,,,,,,,,,,,,,,,,,,,,,,,,,,,,
,,,,,,,,,,,,,,,,,61690ac66e1ca0506e2ef890,18,2022-02-12_12h23.00.316,lexical_decision_task_DD_L2,2021.2.3,Win32,60.00960154,,,,,,,,,,,,0.5962,1,,,,,,,,,,,,,,z,1,0.5962,,,,,,,,0.734259259,-0.212037037,0,0,0,,0,106,106,89,1,DRIEK,LB,old,z,./images/DRIEKLB.png,,,,,,,,,,,,,,,,,,,,,,,,,,,,,,,,,,
,,,,,,,,,,,,,,,,,61690ac66e1ca0506e2ef890,18,2022-02-12_12h23.00.316,lexical_decision_task_DD_L2,2021.2.3,Win32,60.00960154,,,,,,,,,,,,1.2162,1,,,,,,,,,,,,,,z,1,1.2162,,,,,,,,0.734259259,-0.212037037,0,0,0,,0,107,107,106,1,CLUMS,HB,old,z,./images/CLUMSHB.png,,,,,,,,,,,,,,,,,,,,,,,,,,,,,,,,,,
,,,,,,,,,,,,,,,,,61690ac66e1ca0506e2ef890,18,2022-02-12_12h23.00.316,lexical_decision_task_DD_L2,2021.2.3,Win32,60.00960154,,,,,,,,,,,,0.5525,1,,,,,,,,,,,,,,m,1,0.5525,,,,,,,,0.734259259,-0.212037037,0,0,0,,0,108,108,52,1,BANNER,LB,old,m,./images/BANNERLB.png,,,,,,,,,,,,,,,,,,,,,,,,,,,,,,,,,,
,,,,,,,,,,,,,,,,,61690ac66e1ca0506e2ef890,18,2022-02-12_12h23.00.316,lexical_decision_task_DD_L2,2021.2.3,Win32,60.00960154,,,,,,,,,,,,0.9759,1,,,,,,,,,,,,,,m,1,0.9759,,,,,,,,0.734259259,-0.212037037,0,0,0,,0,109,109,28,1,FALCON,LB,old,m,./images/FALCONLB.png,,,,,,,,,,,,,,,,,,,,,,,,,,,,,,,,,,
,,,,,,,,,,,,,,,,,61690ac66e1ca0506e2ef890,18,2022-02-12_12h23.00.316,lexical_decision_task_DD_L2,2021.2.3,Win32,60.00960154,,,,,,,,,,,,1.6423,1,,,,,,,,,,,,,,m,1,1.6423,,,,,,,,0.734259259,-0.212037037,0,0,0,,0,110,110,16,1,PENCE,LB,old,m,./images/PENCELB.png,,,,,,,,,,,,,,,,,,,,,,,,,,,,,,,,,,
,,,,,,,,,,,,,,,,,61690ac66e1ca0506e2ef890,18,2022-02-12_12h23.00.316,lexical_decision_task_DD_L2,2021.2.3,Win32,60.00960154,,,,,,,,,,,,0.5414,1,,,,,,,,,,,,,,m,1,0.5414,,,,,,,,0.734259259,-0.212037037,0,0,0,,0,111,111,7,1,PAINT,LB,old,m,./images/PAINTLB.png,,,,,,,,,,,,,,,,,,,,,,,,,,,,,,,,,,
,,,,,,,,,,,,,,,,,61690ac66e1ca0506e2ef890,18,2022-02-12_12h23.00.316,lexical_decision_task_DD_L2,2021.2.3,Win32,60.00960154,,,,,,,,,,,,0.7615,1,,,,,,,,,,,,,,m,1,0.7615,,,,,,,,0.734259259,-0.212037037,0,0,0,,0,112,112,18,1,JAGUAR,HB,old,m,./images/JAGUARHB.png,,,,,,,,,,,,,,,,,,,,,,,,,,,,,,,,,,
,,,,,,,,,,,,,,,,,61690ac66e1ca0506e2ef890,18,2022-02-12_12h23.00.316,lexical_decision_task_DD_L2,2021.2.3,Win32,60.00960154,,,,,,,,,,,,0.5649,1,,,,,,,,,,,,,,m,1,0.5649,,,,,,,,0.734259259,-0.212037037,0,0,0,,0,113,113,67,1,SAILOR,LB,old,m,./images/SAILORLB.png,,,,,,,,,,,,,,,,,,,,,,,,,,,,,,,,,,
,,,,,,,,,,,,,,,,,61690ac66e1ca0506e2ef890,18,2022-02-12_12h23.00.316,lexical_decision_task_DD_L2,2021.2.3,Win32,60.00960154,,,,,,,,,,,,0.6015,1,,,,,,,,,,,,,,m,1,0.6015,,,,,,,,0.734259259,-0.212037037,0,0,0,,0,114,114,4,1,MUSCLE,LB,old,m,./images/MUSCLELB.png,,,,,,,,,,,,,,,,,,,,,,,,,,,,,,,,,,
,,,,,,,,,,,,,,,,,61690ac66e1ca0506e2ef890,18,2022-02-12_12h23.00.316,lexical_decision_task_DD_L2,2021.2.3,Win32,60.00960154,,,,,,,,,,,,0.9646,1,,,,,,,,,,,,,,m,1,0.9646,,,,,,,,0.734259259,-0.212037037,0,0,0,,0,115,115,54,1,TRIPOD,HB,old,m,./images/TRIPODHB.png,,,,,,,,,,,,,,,,,,,,,,,,,,,,,,,,,,
,,,,,,,,,,,,,,,,,61690ac66e1ca0506e2ef890,18,2022-02-12_12h23.00.316,lexical_decision_task_DD_L2,2021.2.3,Win32,60.00960154,,,,,,,,,,,,0.5017,1,,,,,,,,,,,,,,m,1,0.5017,,,,,,,,0.734259259,-0.212037037,0,0,0,,0,116,116,73,1,SNACK,LB,old,m,./images/SNACKLB.png,,,,,,,,,,,,,,,,,,,,,,,,,,,,,,,,,,
,,,,,,,,,,,,,,,,,61690ac66e1ca0506e2ef890,18,2022-02-12_12h23.00.316,lexical_decision_task_DD_L2,2021.2.3,Win32,60.00960154,,,,,,,,,,,,0.555,1,,,,,,,,,,,,,,m,1,0.555,,,,,,,,0.734259259,-0.212037037,0,0,0,,0,117,117,2,1,BEARD,C,old,m,./images/BEARD.png,,,,,,,,,,,,,,,,,,,,,,,,,,,,,,,,,,
,,,,,,,,,,,,,,,,,61690ac66e1ca0506e2ef890,18,2022-02-12_12h23.00.316,lexical_decision_task_DD_L2,2021.2.3,Win32,60.00960154,,,,,,,,,,,,1.4472,1,,,,,,,,,,,,,,z,1,1.4472,,,,,,,,0.734259259,-0.212037037,0,0,0,,0,118,118,151,1,TINKY,HB,old,z,./images/TINKYHB.png,,,,,,,,,,,,,,,,,,,,,,,,,,,,,,,,,,
,,,,,,,,,,,,,,,,,61690ac66e1ca0506e2ef890,18,2022-02-12_12h23.00.316,lexical_decision_task_DD_L2,2021.2.3,Win32,60.00960154,,,,,,,,,,,,0.6889,1,,,,,,,,,,,,,,z,1,0.6889,,,,,,,,0.734259259,-0.212037037,0,0,0,,0,119,119,105,1,MOKER,C,old,z,./images/MOKER.png,,,,,,,,,,,,,,,,,,,,,,,,,,,,,,,,,,
,,,,,,,,,,,,,,,,,61690ac66e1ca0506e2ef890,18,2022-02-12_12h23.00.316,lexical_decision_task_DD_L2,2021.2.3,Win32,60.00960154,,,,,,,,,,,,0.6601,1,,,,,,,,,,,,,,m,1,0.6601,,,,,,,,0.734259259,-0.212037037,0,0,0,,0,120,120,0,1,TOMATO,HB,old,m,./images/TOMATOHB.png,,,,,,,,,,,,,,,,,,,,,,,,,,,,,,,,,,
,,,,,,,,,,,,,,,,,61690ac66e1ca0506e2ef890,18,2022-02-12_12h23.00.316,lexical_decision_task_DD_L2,2021.2.3,Win32,60.00960154,,,,,,,,,,,,1.4036,1,,,,,,,,,,,,,,z,1,1.4036,,,,,,,,0.734259259,-0.212037037,0,0,0,,0,121,121,109,1,BURGE,HB,old,z,./images/BURGEHB.png,,,,,,,,,,,,,,,,,,,,,,,,,,,,,,,,,,
,,,,,,,,,,,,,,,,,61690ac66e1ca0506e2ef890,18,2022-02-12_12h23.00.316,lexical_decision_task_DD_L2,2021.2.3,Win32,60.00960154,,,,,,,,,,,,1.0852,1,,,,,,,,,,,,,,z,1,1.0852,,,,,,,,0.734259259,-0.212037037,0,0,0,,0,122,122,99,1,BACKY,C,old,z,./images/BACKY.png,,,,,,,,,,,,,,,,,,,,,,,,,,,,,,,,,,
,,,,,,,,,,,,,,,,,61690ac66e1ca0506e2ef890,18,2022-02-12_12h23.00.316,lexical_decision_task_DD_L2,2021.2.3,Win32,60.00960154,,,,,,,,,,,,0.5357,0,,,,,,,,,,,,,,m,0,0.5357,,,,,,,,0.734259259,-0.212037037,0,0,0,,0,123,123,110,1,CRUNK,LB,old,z,./images/CRUNKLB.png,,,,,,,,,,,,,,,,,,,,,,,,,,,,,,,,,,
,,,,,,,,,,,,,,,,,61690ac66e1ca0506e2ef890,18,2022-02-12_12h23.00.316,lexical_decision_task_DD_L2,2021.2.3,Win32,60.00960154,,,,,,,,,,,,1.5955,1,,,,,,,,,,,,,,z,1,1.5955,,,,,,,,0.734259259,-0.212037037,0,0,0,,0,124,124,127,1,NINDY,HB,old,z,./images/NINDYHB.png,,,,,,,,,,,,,,,,,,,,,,,,,,,,,,,,,,
,,,,,,,,,,,,,,,,,61690ac66e1ca0506e2ef890,18,2022-02-12_12h23.00.316,lexical_decision_task_DD_L2,2021.2.3,Win32,60.00960154,,,,,,,,,,,,1.7255,1,,,,,,,,,,,,,,z,1,1.7255,,,,,,,,0.734259259,-0.212037037,0,0,0,space,0,125,125,121,1,CEERS,HB,old,z,./images/CEERSHB.png,2.2735,,,,,,,,,,,,,,,,,,,,,,,,,,,,,,,,,
,,,,,,,,,,,,,,,,,61690ac66e1ca0506e2ef890,18,2022-02-12_12h23.00.316,lexical_decision_task_DD_L2,2021.2.3,Win32,60.00960154,,,,,,,,,,,,0.8486,1,,,,,,,,,,,,,,m,1,0.8486,,,,,,,,0.734259259,-0.212037037,0,0,0,,0,126,126,31,1,QUILL,LB,old,m,./images/QUILLLB.png,,,,,,,,,,,,,,,,,,,,,,,,,,,,,,,,,,
,,,,,,,,,,,,,,,,,61690ac66e1ca0506e2ef890,18,2022-02-12_12h23.00.316,lexical_decision_task_DD_L2,2021.2.3,Win32,60.00960154,,,,,,,,,,,,0.7499,1,,,,,,,,,,,,,,z,1,0.7499,,,,,,,,0.734259259,-0.212037037,0,0,0,,0,127,127,93,1,SMONE,C,old,z,./images/SMONE.png,,,,,,,,,,,,,,,,,,,,,,,,,,,,,,,,,,
,,,,,,,,,,,,,,,,,61690ac66e1ca0506e2ef890,18,2022-02-12_12h23.00.316,lexical_decision_task_DD_L2,2021.2.3,Win32,60.00960154,,,,,,,,,,,,0.6043,1,,,,,,,,,,,,,,m,1,0.6043,,,,,,,,0.734259259,-0.212037037,0,0,0,,0,128,128,45,1,KITTEN,HB,old,m,./images/KITTENHB.png,,,,,,,,,,,,,,,,,,,,,,,,,,,,,,,,,,
,,,,,,,,,,,,,,,,,61690ac66e1ca0506e2ef890,18,2022-02-12_12h23.00.316,lexical_decision_task_DD_L2,2021.2.3,Win32,60.00960154,,,,,,,,,,,,0.5889,1,,,,,,,,,,,,,,m,1,0.5889,,,,,,,,0.734259259,-0.212037037,0,0,0,,0,129,129,80,1,WEASEL,C,old,m,./images/WEASEL.png,,,,,,,,,,,,,,,,,,,,,,,,,,,,,,,,,,
,,,,,,,,,,,,,,,,,61690ac66e1ca0506e2ef890,18,2022-02-12_12h23.00.316,lexical_decision_task_DD_L2,2021.2.3,Win32,60.00960154,,,,,,,,,,,,0.8056,1,,,,,,,,,,,,,,m,1,0.8056,,,,,,,,0.734259259,-0.212037037,0,0,0,,0,130,130,50,1,MALLET,C,old,m,./images/MALLET.png,,,,,,,,,,,,,,,,,,,,,,,,,,,,,,,,,,
,,,,,,,,,,,,,,,,,61690ac66e1ca0506e2ef890,18,2022-02-12_12h23.00.316,lexical_decision_task_DD_L2,2021.2.3,Win32,60.00960154,,,,,,,,,,,,2.8211,1,,,,,,,,,,,,,,m,1,2.8211,,,,,,,,0.734259259,-0.212037037,0,0,0,,0,131,131,6,1,SQUARE,HB,old,m,./images/SQUAREHB.png,,,,,,,,,,,,,,,,,,,,,,,,,,,,,,,,,,
,,,,,,,,,,,,,,,,,61690ac66e1ca0506e2ef890,18,2022-02-12_12h23.00.316,lexical_decision_task_DD_L2,2021.2.3,Win32,60.00960154,,,,,,,,,,,,0.8973,1,,,,,,,,,,,,,,m,1,0.8973,,,,,,,,0.734259259,-0.212037037,0,0,0,,0,132,132,36,1,THROAT,HB,old,m,./images/THROATHB.png,,,,,,,,,,,,,,,,,,,,,,,,,,,,,,,,,,
,,,,,,,,,,,,,,,,,61690ac66e1ca0506e2ef890,18,2022-02-12_12h23.00.316,lexical_decision_task_DD_L2,2021.2.3,Win32,60.00960154,,,,,,,,,,,,0.5703,1,,,,,,,,,,,,,,m,1,0.5703,,,,,,,,0.734259259,-0.212037037,0,0,0,,0,133,133,21,1,KIDNEY,HB,old,m,./images/KIDNEYHB.png,,,,,,,,,,,,,,,,,,,,,,,,,,,,,,,,,,
,,,,,,,,,,,,,,,,,61690ac66e1ca0506e2ef890,18,2022-02-12_12h23.00.316,lexical_decision_task_DD_L2,2021.2.3,Win32,60.00960154,,,,,,,,,,,,1.0061,1,,,,,,,,,,,,,,m,1,1.0061,,,,,,,,0.734259259,-0.212037037,0,0,0,,0,134,134,12,1,SHORE,HB,old,m,./images/SHOREHB.png,,,,,,,,,,,,,,,,,,,,,,,,,,,,,,,,,,
,,,,,,,,,,,,,,,,,61690ac66e1ca0506e2ef890,18,2022-02-12_12h23.00.316,lexical_decision_task_DD_L2,2021.2.3,Win32,60.00960154,,,,,,,,,,,,1.4796,1,,,,,,,,,,,,,,m,1,1.4796,,,,,,,,0.734259259,-0.212037037,0,0,0,,0,135,135,30,1,STORM,HB,old,m,./images/STORMHB.png,,,,,,,,,,,,,,,,,,,,,,,,,,,,,,,,,,
,,,,,,,,,,,,,,,,,61690ac66e1ca0506e2ef890,18,2022-02-12_12h23.00.316,lexical_decision_task_DD_L2,2021.2.3,Win32,60.00960154,,,,,,,,,,,,1.0458,1,,,,,,,,,,,,,,z,1,1.0458,,,,,,,,0.734259259,-0.212037037,0,0,0,,0,136,136,86,1,AIFED,LB,old,z,./images/AIFEDLB.png,,,,,,,,,,,,,,,,,,,,,,,,,,,,,,,,,,
,,,,,,,,,,,,,,,,,61690ac66e1ca0506e2ef890,18,2022-02-12_12h23.00.316,lexical_decision_task_DD_L2,2021.2.3,Win32,60.00960154,,,,,,,,,,,,2.4052,1,,,,,,,,,,,,,,z,1,2.4052,,,,,,,,0.734259259,-0.212037037,0,0,0,,0,137,137,115,1,MAWNS,HB,old,z,./images/MAWNSHB.png,,,,,,,,,,,,,,,,,,,,,,,,,,,,,,,,,,
,,,,,,,,,,,,,,,,,61690ac66e1ca0506e2ef890,18,2022-02-12_12h23.00.316,lexical_decision_task_DD_L2,2021.2.3,Win32,60.00960154,,,,,,,,,,,,0.738,1,,,,,,,,,,,,,,m,1,0.738,,,,,,,,0.734259259,-0.212037037,0,0,0,,0,138,138,68,1,TORCH,C,old,m,./images/TORCH.png,,,,,,,,,,,,,,,,,,,,,,,,,,,,,,,,,,
,,,,,,,,,,,,,,,,,61690ac66e1ca0506e2ef890,18,2022-02-12_12h23.00.316,lexical_decision_task_DD_L2,2021.2.3,Win32,60.00960154,,,,,,,,,,,,1.2383,1,,,,,,,,,,,,,,m,1,1.2383,,,,,,,,0.734259259,-0.212037037,0,0,0,,0,139,139,78,1,LITTER,HB,old,m,./images/LITTERHB.png,,,,,,,,,,,,,,,,,,,,,,,,,,,,,,,,,,
,,,,,,,,,,,,,,,,,61690ac66e1ca0506e2ef890,18,2022-02-12_12h23.00.316,lexical_decision_task_DD_L2,2021.2.3,Win32,60.00960154,,,,,,,,,,,,1.3385,1,,,,,,,,,,,,,,z,1,1.3385,,,,,,,,0.734259259,-0.212037037,0,0,0,,0,140,140,88,1,GLUSH,HB,old,z,./images/GLUSHHB.png,,,,,,,,,,,,,,,,,,,,,,,,,,,,,,,,,,
,,,,,,,,,,,,,,,,,61690ac66e1ca0506e2ef890,18,2022-02-12_12h23.00.316,lexical_decision_task_DD_L2,2021.2.3,Win32,60.00960154,,,,,,,,,,,,0.5182,1,,,,,,,,,,,,,,m,1,0.5182,,,,,,,,0.734259259,-0.212037037,0,0,0,,0,141,141,40,1,SWING,LB,old,m,./images/SWINGLB.png,,,,,,,,,,,,,,,,,,,,,,,,,,,,,,,,,,
,,,,,,,,,,,,,,,,,61690ac66e1ca0506e2ef890,18,2022-02-12_12h23.00.316,lexical_decision_task_DD_L2,2021.2.3,Win32,60.00960154,,,,,,,,,,,,0.5943,1,,,,,,,,,,,,,,m,1,0.5943,,,,,,,,0.734259259,-0.212037037,0,0,0,,0,142,142,1,1,PLANK,LB,old,m,./images/PLANKLB.png,,,,,,,,,,,,,,,,,,,,,,,,,,,,,,,,,,
,,,,,,,,,,,,,,,,,61690ac66e1ca0506e2ef890,18,2022-02-12_12h23.00.316,lexical_decision_task_DD_L2,2021.2.3,Win32,60.00960154,,,,,,,,,,,,0.8045,1,,,,,,,,,,,,,,z,1,0.8045,,,,,,,,0.734259259,-0.212037037,0,0,0,,0,143,143,149,1,VEASE,LB,old,z,./images/VEASELB.png,,,,,,,,,,,,,,,,,,,,,,,,,,,,,,,,,,
,,,,,,,,,,,,,,,,,61690ac66e1ca0506e2ef890,18,2022-02-12_12h23.00.316,lexical_decision_task_DD_L2,2021.2.3,Win32,60.00960154,,,,,,,,,,,,0.8878,1,,,,,,,,,,,,,,z,1,0.8878,,,,,,,,0.734259259,-0.212037037,0,0,0,,0,144,144,122,1,BLOOT,LB,old,z,./images/BLOOTLB.png,,,,,,,,,,,,,,,,,,,,,,,,,,,,,,,,,,
,,,,,,,,,,,,,,,,,61690ac66e1ca0506e2ef890,18,2022-02-12_12h23.00.316,lexical_decision_task_DD_L2,2021.2.3,Win32,60.00960154,,,,,,,,,,,,1.2071,1,,,,,,,,,,,,,,z,1,1.2071,,,,,,,,0.734259259,-0.212037037,0,0,0,,0,145,145,142,1,PLASK,HB,old,z,./images/PLASKHB.png,,,,,,,,,,,,,,,,,,,,,,,,,,,,,,,,,,
,,,,,,,,,,,,,,,,,61690ac66e1ca0506e2ef890,18,2022-02-12_12h23.00.316,lexical_decision_task_DD_L2,2021.2.3,Win32,60.00960154,,,,,,,,,,,,0.7402,1,,,,,,,,,,,,,,z,1,0.7402,,,,,,,,0.734259259,-0.212037037,0,0,0,,0,146,146,128,1,GRIFT,LB,old,z,./images/GRIFTLB.png,,,,,,,,,,,,,,,,,,,,,,,,,,,,,,,,,,
,,,,,,,,,,,,,,,,,61690ac66e1ca0506e2ef890,18,2022-02-12_12h23.00.316,lexical_decision_task_DD_L2,2021.2.3,Win32,60.00960154,,,,,,,,,,,,0.8324,1,,,,,,,,,,,,,,z,1,0.8324,,,,,,,,0.734259259,-0.212037037,0,0,0,,0,147,147,107,1,FASKS,LB,old,z,./images/FASKSLB.png,,,,,,,,,,,,,,,,,,,,,,,,,,,,,,,,,,
,,,,,,,,,,,,,,,,,61690ac66e1ca0506e2ef890,18,2022-02-12_12h23.00.316,lexical_decision_task_DD_L2,2021.2.3,Win32,60.00960154,,,,,,,,,,,,1.0003,1,,,,,,,,,,,,,,z,1,1.0003,,,,,,,,0.734259259,-0.212037037,0,0,0,,0,148,148,91,1,SHENS,HB,old,z,./images/SHENSHB.png,,,,,,,,,,,,,,,,,,,,,,,,,,,,,,,,,,
,,,,,,,,,,,,,,,,,61690ac66e1ca0506e2ef890,18,2022-02-12_12h23.00.316,lexical_decision_task_DD_L2,2021.2.3,Win32,60.00960154,,,,,,,,,,,,0.8931,1,,,,,,,,,,,,,,z,1,0.8931,,,,,,,,0.734259259,-0.212037037,0,0,0,,0,149,149,118,1,BAVEL,HB,old,z,./images/BAVELHB.png,,,,,,,,,,,,,,,,,,,,,,,,,,,,,,,,,,
,,,,,,,,,,,,,,,,,61690ac66e1ca0506e2ef890,18,2022-02-12_12h23.00.316,lexical_decision_task_DD_L2,2021.2.3,Win32,60.00960154,,,,,,,,,,,,0.6018,1,,,,,,,,,,,,,,z,1,0.6018,,,,,,,,0.734259259,-0.212037037,0,0,0,,0,150,150,147,1,ZOLES,C,old,z,./images/ZOLES.png,,,,,,,,,,,,,,,,,,,,,,,,,,,,,,,,,,
,,,,,,,,,,,,,,,,,61690ac66e1ca0506e2ef890,18,2022-02-12_12h23.00.316,lexical_decision_task_DD_L2,2021.2.3,Win32,60.00960154,,,,,,,,,,,,0.5345,1,,,,,,,,,,,,,,z,1,0.5345,,,,,,,,0.734259259,-0.212037037,0,0,0,,0,151,151,138,1,PLICE,C,old,z,./images/PLICE.png,,,,,,,,,,,,,,,,,,,,,,,,,,,,,,,,,,
,,,,,,,,,,,,,,,,,61690ac66e1ca0506e2ef890,18,2022-02-12_12h23.00.316,lexical_decision_task_DD_L2,2021.2.3,Win32,60.00960154,,,,,,,,,,,,0.5857,1,,,,,,,,,,,,,,m,1,0.5857,,,,,,,,0.734259259,-0.212037037,0,0,0,,0,152,152,25,1,WRIST,LB,old,m,./images/WRISTLB.png,,,,,,,,,,,,,,,,,,,,,,,,,,,,,,,,,,
,,,,,,,,,,,,,,,,,61690ac66e1ca0506e2ef890,18,2022-02-12_12h23.00.316,lexical_decision_task_DD_L2,2021.2.3,Win32,60.00960154,,,,,,,,,,,,0.917,0,,,,,,,,,,,,,,m,0,0.917,,,,,,,,0.734259259,-0.212037037,0,0,0,,0,153,153,84,1,HAXES,C,old,z,./images/HAXES.png,,,,,,,,,,,,,,,,,,,,,,,,,,,,,,,,,,
,,,,,,,,,,,,,,,,,61690ac66e1ca0506e2ef890,18,2022-02-12_12h23.00.316,lexical_decision_task_DD_L2,2021.2.3,Win32,60.00960154,,,,,,,,,,,,0.792,1,,,,,,,,,,,,,,z,1,0.792,,,,,,,,0.734259259,-0.212037037,0,0,0,,0,154,154,167,1,ZONET,LB,old,z,./images/ZONETLB.png,,,,,,,,,,,,,,,,,,,,,,,,,,,,,,,,,,
,,,,,,,,,,,,,,,,,61690ac66e1ca0506e2ef890,18,2022-02-12_12h23.00.316,lexical_decision_task_DD_L2,2021.2.3,Win32,60.00960154,,,,,,,,,,,,0.7119,1,,,,,,,,,,,,,,m,1,0.7119,,,,,,,,0.734259259,-0.212037037,0,0,0,,0,155,155,13,1,MOTOR,LB,old,m,./images/MOTORLB.png,,,,,,,,,,,,,,,,,,,,,,,,,,,,,,,,,,
,,,,,,,,,,,,,,,,,61690ac66e1ca0506e2ef890,18,2022-02-12_12h23.00.316,lexical_decision_task_DD_L2,2021.2.3,Win32,60.00960154,,,,,,,,,,,,0.7641,1,,,,,,,,,,,,,,z,1,0.7641,,,,,,,,0.734259259,-0.212037037,0,0,0,,0,156,156,117,1,STEEG,C,old,z,./images/STEEG.png,,,,,,,,,,,,,,,,,,,,,,,,,,,,,,,,,,
,,,,,,,,,,,,,,,,,61690ac66e1ca0506e2ef890,18,2022-02-12_12h23.00.316,lexical_decision_task_DD_L2,2021.2.3,Win32,60.00960154,,,,,,,,,,,,0.5621,1,,,,,,,,,,,,,,m,1,0.5621,,,,,,,,0.734259259,-0.212037037,0,0,0,,0,157,157,10,1,BELLY,LB,old,m,./images/BELLYLB.png,,,,,,,,,,,,,,,,,,,,,,,,,,,,,,,,,,
,,,,,,,,,,,,,,,,,61690ac66e1ca0506e2ef890,18,2022-02-12_12h23.00.316,lexical_decision_task_DD_L2,2021.2.3,Win32,60.00960154,,,,,,,,,,,,0.5727,1,,,,,,,,,,,,,,m,1,0.5727,,,,,,,,0.734259259,-0.212037037,0,0,0,,0,158,158,35,1,PEACH,C,old,m,./images/PEACH.png,,,,,,,,,,,,,,,,,,,,,,,,,,,,,,,,,,
,,,,,,,,,,,,,,,,,61690ac66e1ca0506e2ef890,18,2022-02-12_12h23.00.316,lexical_decision_task_DD_L2,2021.2.3,Win32,60.00960154,,,,,,,,,,,,0.6492,1,,,,,,,,,,,,,,z,1,0.6492,,,,,,,,0.734259259,-0.212037037,0,0,0,,0,159,159,129,1,PRANS,C,old,z,./images/PRANS.png,,,,,,,,,,,,,,,,,,,,,,,,,,,,,,,,,,
,,,,,,,,,,,,,,,,,61690ac66e1ca0506e2ef890,18,2022-02-12_12h23.00.316,lexical_decision_task_DD_L2,2021.2.3,Win32,60.00960154,,,,,,,,,,,,0.624,1,,,,,,,,,,,,,,m,1,0.624,,,,,,,,0.734259259,-0.212037037,0,0,0,,0,160,160,34,1,CANYON,LB,old,m,./images/CANYONLB.png,,,,,,,,,,,,,,,,,,,,,,,,,,,,,,,,,,
,,,,,,,,,,,,,,,,,61690ac66e1ca0506e2ef890,18,2022-02-12_12h23.00.316,lexical_decision_task_DD_L2,2021.2.3,Win32,60.00960154,,,,,,,,,,,,0.7391,1,,,,,,,,,,,,,,m,1,0.7391,,,,,,,,0.734259259,-0.212037037,0,0,0,,0,161,161,8,1,TULIP,C,old,m,./images/TULIP.png,,,,,,,,,,,,,,,,,,,,,,,,,,,,,,,,,,
,,,,,,,,,,,,,,,,,61690ac66e1ca0506e2ef890,18,2022-02-12_12h23.00.316,lexical_decision_task_DD_L2,2021.2.3,Win32,60.00960154,,,,,,,,,,,,0.9108,1,,,,,,,,,,,,,,m,1,0.9108,,,,,,,,0.734259259,-0.212037037,0,0,0,,0,162,162,57,1,MOOSE,HB,old,m,./images/MOOSEHB.png,,,,,,,,,,,,,,,,,,,,,,,,,,,,,,,,,,
,,,,,,,,,,,,,,,,,61690ac66e1ca0506e2ef890,18,2022-02-12_12h23.00.316,lexical_decision_task_DD_L2,2021.2.3,Win32,60.00960154,,,,,,,,,,,,0.6238,1,,,,,,,,,,,,,,m,1,0.6238,,,,,,,,0.734259259,-0.212037037,0,0,0,,0,163,163,60,1,TWINS,HB,old,m,./images/TWINSHB.png,,,,,,,,,,,,,,,,,,,,,,,,,,,,,,,,,,
,,,,,,,,,,,,,,,,,61690ac66e1ca0506e2ef890,18,2022-02-12_12h23.00.316,lexical_decision_task_DD_L2,2021.2.3,Win32,60.00960154,,,,,,,,,,,,1.1193,1,,,,,,,,,,,,,,m,1,1.1193,,,,,,,,0.734259259,-0.212037037,0,0,0,,0,164,164,59,1,BURIAL,C,old,m,./images/BURIAL.png,,,,,,,,,,,,,,,,,,,,,,,,,,,,,,,,,,
,,,,,,,,,,,,,,,,,61690ac66e1ca0506e2ef890,18,2022-02-12_12h23.00.316,lexical_decision_task_DD_L2,2021.2.3,Win32,60.00960154,,,,,,,,,,,,0.9951,1,,,,,,,,,,,,,,m,1,0.9951,,,,,,,,0.734259259,-0.212037037,0,0,0,,0,165,165,74,1,CEMENT,C,old,m,./images/CEMENT.png,,,,,,,,,,,,,,,,,,,,,,,,,,,,,,,,,,
,,,,,,,,,,,,,,,,,61690ac66e1ca0506e2ef890,18,2022-02-12_12h23.00.316,lexical_decision_task_DD_L2,2021.2.3,Win32,60.00960154,,,,,,,,,,,,2.2662,1,,,,,,,,,,,,,,z,1,2.2662,,,,,,,,0.734259259,-0.212037037,0,0,0,,0,166,166,163,1,GAMBA,HB,old,z,./images/GAMBAHB.png,,,,,,,,,,,,,,,,,,,,,,,,,,,,,,,,,,
,,,,,,,,,,,,,,,,,61690ac66e1ca0506e2ef890,18,2022-02-12_12h23.00.316,lexical_decision_task_DD_L2,2021.2.3,Win32,60.00960154,,,,,,,,,,,,0.9214,1,,,,,,,,,,,,,,m,1,0.9214,,,,,,,,0.734259259,-0.212037037,0,0,0,,0,167,167,23,1,WALRUS,C,old,m,./images/WALRUS.png,,,,,,,,,,,,,,,,,,,,,,,,,,,,,,,,,,
,,,,,,,,,,,,,,,,,61690ac66e1ca0506e2ef890,18,2022-02-12_12h23.00.316,lexical_decision_task_DD_L2,2021.2.3,Win32,60.00960154,,,,,,,,,,,,,,,,,,,,,,,,,,,,,,,,,,,,,,,,,,,,,,,,,How likely will it be that you will recognize the words presented slighly blurred on a scale of 0 (not likely) to 100 (most likely)?,,,,,0.000925926,-0.418518519,1,0,0,jol_adv,6,14.2166,0,0,0,1,1,,,,,,,,,,,,,,,,,,,,
,,,,,,,,,,,,,,,,,61690ac66e1ca0506e2ef890,18,2022-02-12_12h23.00.316,lexical_decision_task_DD_L2,2021.2.3,Win32,60.00960154,,,,,,,,,,,,,,,,,,,,,,,,,,,,,,,,,,,,,,,,,,,,,,,,,How likely will it be that you will recognize the words presented clearly on a scale of 0 (not likely) to 100 (most likely)?,,,,,,,,,,,6,6.9692,0,1,1,0,1,,,,,,,,,,,,,,,,,,,,
,,,,,,,,,,,,,,,,,61690ac66e1ca0506e2ef890,18,2022-02-12_12h23.00.316,lexical_decision_task_DD_L2,2021.2.3,Win32,60.00960154,,,,,,,,,,,,,,,,,,,,,,,,,,,,,,,,,,,,,,,,,,,,,,,,,How likely will it be that you will recognize the words presented very blurred on a scale of 0 (not likely) to 100 (most likely)?,,,,,,,,,,,4,3.6219,0,2,2,2,1,,,,,,,,,,,,,,,,,,,,
space,0.007407407,-0.39537037,0,0,0,,,,,,,1,test,"In the next phase you will be presented with the words from the the first phase. Your job is to decide whether you remember seeing the word or not. If you remember seeing the word press ""old"" or type ""m"". If you do not remember seeing the word press ""new"" or type ""z"". Please press the space bar or click on continue to begin. ",,,61690ac66e1ca0506e2ef890,18,2022-02-12_12h23.00.316,lexical_decision_task_DD_L2,2021.2.3,Win32,60.00960154,15.8964,,,,,,,,,,,,,,,,,,,,,,,,,,,,,,,,,,,,,,,,,,,,,,,,,,,,,,,,,,,,,,,,,,0,0,0,0,1,,,,,,,,,,,,,,,
,0.081481481,-0.417592593,1,0,0,instr_done_button,,,,,,1,test,"In the next phase you will be presented with the words from the the first phase. Your job is to decide whether you remember seeing the word or not. If you remember seeing the word press ""old"" or type ""m"". If you do not remember seeing the word press ""new"" or type ""z"". Please press the space bar or click on continue to begin. ",,,61690ac66e1ca0506e2ef890,18,2022-02-12_12h23.00.316,lexical_decision_task_DD_L2,2021.2.3,Win32,60.00960154,,,,,,,,,,,,,,,,,,,,,,,,,,,,,,,,,,,,,,,,,,,,,,,,,,,,,,,,,,,,,,,,,,,1,0,1,0,1,,,,,,,,,,,,,,,
,0.137037037,-0.392592593,1,0,0,instr_done_button,,,,,,1,test,"In the next phase you will be presented with the words from the the first phase. Your job is to decide whether you remember seeing the word or not. If you remember seeing the word press ""old"" or type ""m"". If you do not remember seeing the word press ""new"" or type ""z"". Please press the space bar or click on continue to begin. ",,,61690ac66e1ca0506e2ef890,18,2022-02-12_12h23.00.316,lexical_decision_task_DD_L2,2021.2.3,Win32,60.00960154,,,,,,,,,,,,,,,,,,,,,,,,,,,,,,,,,,,,,,,,,,,,,,,,,,,,,,,,,,,,,,,,,,,2,0,2,0,1,,,,,,,,,,,,,,,
,-0.009259259,-0.39537037,1,0,0,instr_done_button,,,,,,1,test,"In the next phase you will be presented with the words from the the first phase. Your job is to decide whether you remember seeing the word or not. If you remember seeing the word press ""old"" or type ""m"". If you do not remember seeing the word press ""new"" or type ""z"". Please press the space bar or click on continue to begin. ",,,61690ac66e1ca0506e2ef890,18,2022-02-12_12h23.00.316,lexical_decision_task_DD_L2,2021.2.3,Win32,60.00960154,,,,,,,,,,,,,,,,,,,,,,,,,,,,,,,,,,,,,,,,,,,,,,,,,,,,,,,,,,,,,,,,,,,3,0,3,0,1,,,,,,,,,,,,,,,
space,0.563888889,-0.226851852,0,0,0,,,,,,,1,test,"In the next phase you will be presented with the words from the the first phase. Your job is to decide whether you remember seeing the word or not. If you remember seeing the word press ""old"" or type ""m"". If you do not remember seeing the word press ""new"" or type ""z"". Please press the space bar or click on continue to begin. ",,,61690ac66e1ca0506e2ef890,18,2022-02-12_12h23.00.316,lexical_decision_task_DD_L2,2021.2.3,Win32,60.00960154,1.9239,,,,,,,,,,,,,,,,,,,,,,,,,,,,,,,,,,,,,,,,,,,,,,,,,,,,,,,,,,,,,,,,,,4,0,4,0,1,,,,,,,,,,,,,,,
,,,,,,,,,,,,,,,,,61690ac66e1ca0506e2ef890,18,2022-02-12_12h23.00.316,lexical_decision_task_DD_L2,2021.2.3,Win32,60.00960154,,,,,,,,,,,,3.1011,0,,,,,,,,,,,,,,,,,,,,,,,,0.563888889,-0.226851852,0,0,0,,,,,,,TIGER,LB,z,y,./images/TIGERLB.png,,,,,,,,,,,,,,,,,,,,m,0,3.1011,,,,,,,,0,0,0,121,1
,,,,,,,,,,,,,,,,,61690ac66e1ca0506e2ef890,18,2022-02-12_12h23.00.316,lexical_decision_task_DD_L2,2021.2.3,Win32,60.00960154,,,,,,,,,,,,0.9857,1,,,,,,,,,,,,,,,,,,,,,,,,0.563888889,-0.226851852,0,0,0,,,,,,,QUILL,LB,m,y,./images/QUILLLB.png,,,,,,,,,,,,,,,,,,,,m,1,0.9857,,,,,,,,0,1,1,31,1
,,,,,,,,,,,,,,,,,61690ac66e1ca0506e2ef890,18,2022-02-12_12h23.00.316,lexical_decision_task_DD_L2,2021.2.3,Win32,60.00960154,,,,,,,,,,,,1.6762,1,,,,,,,,,,,,,,,,,,,,,,,,0.563888889,-0.226851852,0,0,0,,,,,,,SPINE,C,z,y,./images/SPINE.png,,,,,,,,,,,,,,,,,,,,z,1,1.6762,,,,,,,,0,2,2,149,1
,,,,,,,,,,,,,,,,,61690ac66e1ca0506e2ef890,18,2022-02-12_12h23.00.316,lexical_decision_task_DD_L2,2021.2.3,Win32,60.00960154,,,,,,,,,,,,0.8428,0,,,,,,,,,,,,,,,,,,,,,,,,0.563888889,-0.226851852,0,0,0,,,,,,,PILOT,C,z,y,./images/PILOT.png,,,,,,,,,,,,,,,,,,,,m,0,0.8428,,,,,,,,0,3,3,134,1
,,,,,,,,,,,,,,,,,61690ac66e1ca0506e2ef890,18,2022-02-12_12h23.00.316,lexical_decision_task_DD_L2,2021.2.3,Win32,60.00960154,,,,,,,,,,,,0.6126,1,,,,,,,,,,,,,,,,,,,,,,,,0.563888889,-0.226851852,0,0,0,,,,,,,KIDNEY,HB,m,y,./images/KIDNEYHB.png,,,,,,,,,,,,,,,,,,,,m,1,0.6126,,,,,,,,0,4,4,21,1
,,,,,,,,,,,,,,,,,61690ac66e1ca0506e2ef890,18,2022-02-12_12h23.00.316,lexical_decision_task_DD_L2,2021.2.3,Win32,60.00960154,,,,,,,,,,,,1.495,1,,,,,,,,,,,,,,,,,,,,,,,,0.563888889,-0.226851852,0,0,0,,,,,,,GRANNY,C,z,y,./images/GRANNY.png,,,,,,,,,,,,,,,,,,,,z,1,1.495,,,,,,,,0,5,5,104,1
,,,,,,,,,,,,,,,,,61690ac66e1ca0506e2ef890,18,2022-02-12_12h23.00.316,lexical_decision_task_DD_L2,2021.2.3,Win32,60.00960154,,,,,,,,,,,,0.6343,1,,,,,,,,,,,,,,,,,,,,,,,,0.563888889,-0.226851852,0,0,0,,,,,,,CARPET,C,m,y,./images/CARPET.png,,,,,,,,,,,,,,,,,,,,m,1,0.6343,,,,,,,,0,6,6,53,1
,,,,,,,,,,,,,,,,,61690ac66e1ca0506e2ef890,18,2022-02-12_12h23.00.316,lexical_decision_task_DD_L2,2021.2.3,Win32,60.00960154,,,,,,,,,,,,0.6149,1,,,,,,,,,,,,,,,,,,,,,,,,0.563888889,-0.226851852,0,0,0,,,,,,,GRAIN,HB,m,y,./images/GRAINHB.png,,,,,,,,,,,,,,,,,,,,m,1,0.6149,,,,,,,,0,7,7,75,1
,,,,,,,,,,,,,,,,,61690ac66e1ca0506e2ef890,18,2022-02-12_12h23.00.316,lexical_decision_task_DD_L2,2021.2.3,Win32,60.00960154,,,,,,,,,,,,0.5616,1,,,,,,,,,,,,,,,,,,,,,,,,0.563888889,-0.226851852,0,0,0,,,,,,,LIZARD,C,m,y,./images/LIZARD.png,,,,,,,,,,,,,,,,,,,,m,1,0.5616,,,,,,,,0,8,8,44,1
,,,,,,,,,,,,,,,,,61690ac66e1ca0506e2ef890,18,2022-02-12_12h23.00.316,lexical_decision_task_DD_L2,2021.2.3,Win32,60.00960154,,,,,,,,,,,,0.7942,1,,,,,,,,,,,,,,,,,,,,,,,,0.563888889,-0.226851852,0,0,0,,,,,,,PEARL,LB,m,y,./images/PEARLLB.png,,,,,,,,,,,,,,,,,,,,m,1,0.7942,,,,,,,,0,9,9,46,1
,,,,,,,,,,,,,,,,,61690ac66e1ca0506e2ef890,18,2022-02-12_12h23.00.316,lexical_decision_task_DD_L2,2021.2.3,Win32,60.00960154,,,,,,,,,,,,0.7744,1,,,,,,,,,,,,,,,,,,,,,,,,0.563888889,-0.226851852,0,0,0,,,,,,,LITTER,HB,m,y,./images/LITTERHB.png,,,,,,,,,,,,,,,,,,,,m,1,0.7744,,,,,,,,0,10,10,78,1
,,,,,,,,,,,,,,,,,61690ac66e1ca0506e2ef890,18,2022-02-12_12h23.00.316,lexical_decision_task_DD_L2,2021.2.3,Win32,60.00960154,,,,,,,,,,,,0.6619,1,,,,,,,,,,,,,,,,,,,,,,,,0.563888889,-0.226851852,0,0,0,,,,,,,PEACH,C,m,y,./images/PEACH.png,,,,,,,,,,,,,,,,,,,,m,1,0.6619,,,,,,,,0,11,11,35,1
,,,,,,,,,,,,,,,,,61690ac66e1ca0506e2ef890,18,2022-02-12_12h23.00.316,lexical_decision_task_DD_L2,2021.2.3,Win32,60.00960154,,,,,,,,,,,,0.8535,1,,,,,,,,,,,,,,,,,,,,,,,,0.563888889,-0.226851852,0,0,0,,,,,,,CLOUD,C,z,y,./images/CLOUD.png,,,,,,,,,,,,,,,,,,,,z,1,0.8535,,,,,,,,0,12,12,110,1
,,,,,,,,,,,,,,,,,61690ac66e1ca0506e2ef890,18,2022-02-12_12h23.00.316,lexical_decision_task_DD_L2,2021.2.3,Win32,60.00960154,,,,,,,,,,,,0.8467,1,,,,,,,,,,,,,,,,,,,,,,,,0.563888889,-0.226851852,0,0,0,,,,,,,CANDY,HB,z,y,./images/CANDYHB.png,,,,,,,,,,,,,,,,,,,,z,1,0.8467,,,,,,,,0,13,13,123,1
,,,,,,,,,,,,,,,,,61690ac66e1ca0506e2ef890,18,2022-02-12_12h23.00.316,lexical_decision_task_DD_L2,2021.2.3,Win32,60.00960154,,,,,,,,,,,,1.8262,0,,,,,,,,,,,,,,,,,,,,,,,,0.563888889,-0.226851852,0,0,0,,,,,,,HAMMER,HB,z,y,./images/HAMMERHB.png,,,,,,,,,,,,,,,,,,,,m,0,1.8262,,,,,,,,0,14,14,159,1
,,,,,,,,,,,,,,,,,61690ac66e1ca0506e2ef890,18,2022-02-12_12h23.00.316,lexical_decision_task_DD_L2,2021.2.3,Win32,60.00960154,,,,,,,,,,,,0.6434,1,,,,,,,,,,,,,,,,,,,,,,,,0.563888889,-0.226851852,0,0,0,,,,,,,PLANK,LB,m,y,./images/PLANKLB.png,,,,,,,,,,,,,,,,,,,,m,1,0.6434,,,,,,,,0,15,15,1,1
,,,,,,,,,,,,,,,,,61690ac66e1ca0506e2ef890,18,2022-02-12_12h23.00.316,lexical_decision_task_DD_L2,2021.2.3,Win32,60.00960154,,,,,,,,,,,,0.8732,0,,,,,,,,,,,,,,,,,,,,,,,,0.563888889,-0.226851852,0,0,0,,,,,,,PISTOL,C,z,y,./images/PISTOL.png,,,,,,,,,,,,,,,,,,,,m,0,0.8732,,,,,,,,0,16,16,113,1
,,,,,,,,,,,,,,,,,61690ac66e1ca0506e2ef890,18,2022-02-12_12h23.00.316,lexical_decision_task_DD_L2,2021.2.3,Win32,60.00960154,,,,,,,,,,,,1.1199,1,,,,,,,,,,,,,,,,,,,,,,,,0.563888889,-0.226851852,0,0,0,,,,,,,PARCEL,HB,z,y,./images/PARCELHB.png,,,,,,,,,,,,,,,,,,,,z,1,1.1199,,,,,,,,0,17,17,102,1
,,,,,,,,,,,,,,,,,61690ac66e1ca0506e2ef890,18,2022-02-12_12h23.00.316,lexical_decision_task_DD_L2,2021.2.3,Win32,60.00960154,,,,,,,,,,,,2.3456,1,,,,,,,,,,,,,,,,,,,,,,,,0.563888889,-0.226851852,0,0,0,,,,,,,HEATER,C,z,y,./images/HEATER.png,,,,,,,,,,,,,,,,,,,,z,1,2.3456,,,,,,,,0,18,18,140,1
,,,,,,,,,,,,,,,,,61690ac66e1ca0506e2ef890,18,2022-02-12_12h23.00.316,lexical_decision_task_DD_L2,2021.2.3,Win32,60.00960154,,,,,,,,,,,,0.615,1,,,,,,,,,,,,,,,,,,,,,,,,0.563888889,-0.226851852,0,0,0,,,,,,,WRIST,LB,m,y,./images/WRISTLB.png,,,,,,,,,,,,,,,,,,,,m,1,0.615,,,,,,,,0,19,19,25,1
,,,,,,,,,,,,,,,,,61690ac66e1ca0506e2ef890,18,2022-02-12_12h23.00.316,lexical_decision_task_DD_L2,2021.2.3,Win32,60.00960154,,,,,,,,,,,,0.7613,1,,,,,,,,,,,,,,,,,,,,,,,,0.563888889,-0.226851852,0,0,0,,,,,,,MUMMY,LB,z,y,./images/MUMMYLB.png,,,,,,,,,,,,,,,,,,,,z,1,0.7613,,,,,,,,0,20,20,130,1
,,,,,,,,,,,,,,,,,61690ac66e1ca0506e2ef890,18,2022-02-12_12h23.00.316,lexical_decision_task_DD_L2,2021.2.3,Win32,60.00960154,,,,,,,,,,,,0.6253,1,,,,,,,,,,,,,,,,,,,,,,,,0.563888889,-0.226851852,0,0,0,,,,,,,PASTA,C,m,y,./images/PASTA.png,,,,,,,,,,,,,,,,,,,,m,1,0.6253,,,,,,,,0,21,21,5,1
,,,,,,,,,,,,,,,,,61690ac66e1ca0506e2ef890,18,2022-02-12_12h23.00.316,lexical_decision_task_DD_L2,2021.2.3,Win32,60.00960154,,,,,,,,,,,,0.9918,1,,,,,,,,,,,,,,,,,,,,,,,,0.563888889,-0.226851852,0,0,0,,,,,,,BANANA,LB,z,y,./images/BANANALB.png,,,,,,,,,,,,,,,,,,,,z,1,0.9918,,,,,,,,0,22,22,154,1
,,,,,,,,,,,,,,,,,61690ac66e1ca0506e2ef890,18,2022-02-12_12h23.00.316,lexical_decision_task_DD_L2,2021.2.3,Win32,60.00960154,,,,,,,,,,,,0.5618,1,,,,,,,,,,,,,,,,,,,,,,,,0.563888889,-0.226851852,0,0,0,,,,,,,MOOSE,HB,m,y,./images/MOOSEHB.png,,,,,,,,,,,,,,,,,,,,m,1,0.5618,,,,,,,,0,23,23,57,1
,,,,,,,,,,,,,,,,,61690ac66e1ca0506e2ef890,18,2022-02-12_12h23.00.316,lexical_decision_task_DD_L2,2021.2.3,Win32,60.00960154,,,,,,,,,,,,1.2443,0,,,,,,,,,,,,,,,,,,,,,,,,0.563888889,-0.226851852,0,0,0,,,,,,,FLASK,HB,z,y,./images/FLASKHB.png,,,,,,,,,,,,,,,,,,,,m,0,1.2443,,,,,,,,0,24,24,156,1
,,,,,,,,,,,,,,,,,61690ac66e1ca0506e2ef890,18,2022-02-12_12h23.00.316,lexical_decision_task_DD_L2,2021.2.3,Win32,60.00960154,,,,,,,,,,,,0.7037,1,,,,,,,,,,,,,,,,,,,,,,,,0.563888889,-0.226851852,0,0,0,,,,,,,POKER,LB,z,y,./images/POKERLB.png,,,,,,,,,,,,,,,,,,,,z,1,0.7037,,,,,,,,0,25,25,151,1
,,,,,,,,,,,,,,,,,61690ac66e1ca0506e2ef890,18,2022-02-12_12h23.00.316,lexical_decision_task_DD_L2,2021.2.3,Win32,60.00960154,,,,,,,,,,,,0.647,1,,,,,,,,,,,,,,,,,,,,,,,,0.563888889,-0.226851852,0,0,0,,,,,,,BERRY,C,m,y,./images/BERRY.png,,,,,,,,,,,,,,,,,,,,m,1,0.647,,,,,,,,0,26,26,47,1
,,,,,,,,,,,,,,,,,61690ac66e1ca0506e2ef890,18,2022-02-12_12h23.00.316,lexical_decision_task_DD_L2,2021.2.3,Win32,60.00960154,,,,,,,,,,,,1.297,1,,,,,,,,,,,,,,,,,,,,,,,,0.563888889,-0.226851852,0,0,0,,,,,,,BARREL,C,m,y,./images/BARREL.png,,,,,,,,,,,,,,,,,,,,m,1,1.297,,,,,,,,0,27,27,32,1
,,,,,,,,,,,,,,,,,61690ac66e1ca0506e2ef890,18,2022-02-12_12h23.00.316,lexical_decision_task_DD_L2,2021.2.3,Win32,60.00960154,,,,,,,,,,,,2.0573,0,,,,,,,,,,,,,,,,,,,,,,,,0.563888889,-0.226851852,0,0,0,,,,,,,PIMPLE,C,m,y,./images/PIMPLE.png,,,,,,,,,,,,,,,,,,,,z,0,2.0573,,,,,,,,0,28,28,71,1
,,,,,,,,,,,,,,,,,61690ac66e1ca0506e2ef890,18,2022-02-12_12h23.00.316,lexical_decision_task_DD_L2,2021.2.3,Win32,60.00960154,,,,,,,,,,,,0.7199,1,,,,,,,,,,,,,,,,,,,,,,,,0.563888889,-0.226851852,0,0,0,,,,,,,SHELF,HB,m,y,./images/SHELFHB.png,,,,,,,,,,,,,,,,,,,,m,1,0.7199,,,,,,,,0,29,29,39,1
,,,,,,,,,,,,,,,,,61690ac66e1ca0506e2ef890,18,2022-02-12_12h23.00.316,lexical_decision_task_DD_L2,2021.2.3,Win32,60.00960154,,,,,,,,,,,,1.6262,1,,,,,,,,,,,,,,,,,,,,,,,,0.563888889,-0.226851852,0,0,0,,,,,,,CANDLE,LB,m,y,./images/CANDLELB.png,,,,,,,,,,,,,,,,,,,,m,1,1.6262,,,,,,,,0,30,30,61,1
,,,,,,,,,,,,,,,,,61690ac66e1ca0506e2ef890,18,2022-02-12_12h23.00.316,lexical_decision_task_DD_L2,2021.2.3,Win32,60.00960154,,,,,,,,,,,,0.8231,1,,,,,,,,,,,,,,,,,,,,,,,,0.563888889,-0.226851852,0,0,0,,,,,,,CRUST,LB,m,y,./images/CRUSTLB.png,,,,,,,,,,,,,,,,,,,,m,1,0.8231,,,,,,,,0,31,31,79,1
,,,,,,,,,,,,,,,,,61690ac66e1ca0506e2ef890,18,2022-02-12_12h23.00.316,lexical_decision_task_DD_L2,2021.2.3,Win32,60.00960154,,,,,,,,,,,,1.1593,1,,,,,,,,,,,,,,,,,,,,,,,,0.563888889,-0.226851852,0,0,0,,,,,,,GLOVE,LB,z,y,./images/GLOVELB.png,,,,,,,,,,,,,,,,,,,,z,1,1.1593,,,,,,,,0,32,32,157,1
,,,,,,,,,,,,,,,,,61690ac66e1ca0506e2ef890,18,2022-02-12_12h23.00.316,lexical_decision_task_DD_L2,2021.2.3,Win32,60.00960154,,,,,,,,,,,,0.8844,1,,,,,,,,,,,,,,,,,,,,,,,,0.563888889,-0.226851852,0,0,0,,,,,,,COLLAR,HB,z,y,./images/COLLARHB.png,,,,,,,,,,,,,,,,,,,,z,1,0.8844,,,,,,,,0,33,33,99,1
,,,,,,,,,,,,,,,,,61690ac66e1ca0506e2ef890,18,2022-02-12_12h23.00.316,lexical_decision_task_DD_L2,2021.2.3,Win32,60.00960154,,,,,,,,,,,,1.1424,0,,,,,,,,,,,,,,,,,,,,,,,,0.563888889,-0.226851852,0,0,0,,,,,,,BAKER,HB,z,y,./images/BAKERHB.png,,,,,,,,,,,,,,,,,,,,m,0,1.1424,,,,,,,,0,34,34,147,1
,,,,,,,,,,,,,,,,,61690ac66e1ca0506e2ef890,18,2022-02-12_12h23.00.316,lexical_decision_task_DD_L2,2021.2.3,Win32,60.00960154,,,,,,,,,,,,0.6513,1,,,,,,,,,,,,,,,,,,,,,,,,0.563888889,-0.226851852,0,0,0,,,,,,,TWINS,HB,m,y,./images/TWINSHB.png,,,,,,,,,,,,,,,,,,,,m,1,0.6513,,,,,,,,0,35,35,60,1
,,,,,,,,,,,,,,,,,61690ac66e1ca0506e2ef890,18,2022-02-12_12h23.00.316,lexical_decision_task_DD_L2,2021.2.3,Win32,60.00960154,,,,,,,,,,,,0.5746,1,,,,,,,,,,,,,,,,,,,,,,,,0.563888889,-0.226851852,0,0,0,,,,,,,MIRROR,HB,m,y,./images/MIRRORHB.png,,,,,,,,,,,,,,,,,,,,m,1,0.5746,,,,,,,,0,36,36,63,1
,,,,,,,,,,,,,,,,,61690ac66e1ca0506e2ef890,18,2022-02-12_12h23.00.316,lexical_decision_task_DD_L2,2021.2.3,Win32,60.00960154,,,,,,,,,,,,0.6823,1,,,,,,,,,,,,,,,,,,,,,,,,0.563888889,-0.226851852,0,0,0,,,,,,,CEMENT,C,m,y,./images/CEMENT.png,,,,,,,,,,,,,,,,,,,,m,1,0.6823,,,,,,,,0,37,37,74,1
,,,,,,,,,,,,,,,,,61690ac66e1ca0506e2ef890,18,2022-02-12_12h23.00.316,lexical_decision_task_DD_L2,2021.2.3,Win32,60.00960154,,,,,,,,,,,,0.8414,1,,,,,,,,,,,,,,,,,,,,,,,,0.563888889,-0.226851852,0,0,0,,,,,,,ALLEY,LB,z,y,./images/ALLEYLB.png,,,,,,,,,,,,,,,,,,,,z,1,0.8414,,,,,,,,0,38,38,139,1
,,,,,,,,,,,,,,,,,61690ac66e1ca0506e2ef890,18,2022-02-12_12h23.00.316,lexical_decision_task_DD_L2,2021.2.3,Win32,60.00960154,,,,,,,,,,,,0.9711,1,,,,,,,,,,,,,,,,,,,,,,,,0.563888889,-0.226851852,0,0,0,,,,,,,BURIAL,C,m,y,./images/BURIAL.png,,,,,,,,,,,,,,,,,,,,m,1,0.9711,,,,,,,,0,39,39,59,1
,,,,,,,,,,,,,,,,,61690ac66e1ca0506e2ef890,18,2022-02-12_12h23.00.316,lexical_decision_task_DD_L2,2021.2.3,Win32,60.00960154,,,,,,,,,,,,1.0579,1,,,,,,,,,,,,,,,,,,,,,,,,0.563888889,-0.226851852,0,0,0,,,,,,,BELLY,LB,m,y,./images/BELLYLB.png,,,,,,,,,,,,,,,,,,,,m,1,1.0579,,,,,,,,0,40,40,10,1
,,,,,,,,,,,,,,,,,61690ac66e1ca0506e2ef890,18,2022-02-12_12h23.00.316,lexical_decision_task_DD_L2,2021.2.3,Win32,60.00960154,,,,,,,,,,,,1.11,1,,,,,,,,,,,,,,,,,,,,,,,,0.563888889,-0.226851852,0,0,0,space,,,,,,PLANET,C,z,y,./images/PLANET.png,3.403,,,,,,,,,,,,,,,,,,,z,1,1.11,,,,,,,,0,41,41,164,1
,,,,,,,,,,,,,,,,,61690ac66e1ca0506e2ef890,18,2022-02-12_12h23.00.316,lexical_decision_task_DD_L2,2021.2.3,Win32,60.00960154,,,,,,,,,,,,0.737,1,,,,,,,,,,,,,,,,,,,,,,,,0.563888889,-0.226851852,0,0,0,,,,,,,COUCH,C,m,y,./images/COUCH.png,,,,,,,,,,,,,,,,,,,,m,1,0.737,,,,,,,,0,42,42,77,1
,,,,,,,,,,,,,,,,,61690ac66e1ca0506e2ef890,18,2022-02-12_12h23.00.316,lexical_decision_task_DD_L2,2021.2.3,Win32,60.00960154,,,,,,,,,,,,1.2569,0,,,,,,,,,,,,,,,,,,,,,,,,0.563888889,-0.226851852,0,0,0,,,,,,,CANOE,LB,z,y,./images/CANOELB.png,,,,,,,,,,,,,,,,,,,,m,0,1.2569,,,,,,,,0,43,43,142,1
,,,,,,,,,,,,,,,,,61690ac66e1ca0506e2ef890,18,2022-02-12_12h23.00.316,lexical_decision_task_DD_L2,2021.2.3,Win32,60.00960154,,,,,,,,,,,,1.1295,1,,,,,,,,,,,,,,,,,,,,,,,,0.563888889,-0.226851852,0,0,0,,,,,,,CRATER,HB,z,y,./images/CRATERHB.png,,,,,,,,,,,,,,,,,,,,z,1,1.1295,,,,,,,,0,44,44,87,1
,,,,,,,,,,,,,,,,,61690ac66e1ca0506e2ef890,18,2022-02-12_12h23.00.316,lexical_decision_task_DD_L2,2021.2.3,Win32,60.00960154,,,,,,,,,,,,0.7364,0,,,,,,,,,,,,,,,,,,,,,,,,0.563888889,-0.226851852,0,0,0,,,,,,,WHEEL,C,z,y,./images/WHEEL.png,,,,,,,,,,,,,,,,,,,,m,0,0.7364,,,,,,,,0,45,45,161,1
,,,,,,,,,,,,,,,,,61690ac66e1ca0506e2ef890,18,2022-02-12_12h23.00.316,lexical_decision_task_DD_L2,2021.2.3,Win32,60.00960154,,,,,,,,,,,,1.0749,0,,,,,,,,,,,,,,,,,,,,,,,,0.563888889,-0.226851852,0,0,0,,,,,,,STREAM,C,z,y,./images/STREAM.png,,,,,,,,,,,,,,,,,,,,m,0,1.0749,,,,,,,,0,46,46,125,1
,,,,,,,,,,,,,,,,,61690ac66e1ca0506e2ef890,18,2022-02-12_12h23.00.316,lexical_decision_task_DD_L2,2021.2.3,Win32,60.00960154,,,,,,,,,,,,0.722,1,,,,,,,,,,,,,,,,,,,,,,,,0.563888889,-0.226851852,0,0,0,,,,,,,DRILL,HB,z,y,./images/DRILLHB.png,,,,,,,,,,,,,,,,,,,,z,1,0.722,,,,,,,,0,47,47,165,1
,,,,,,,,,,,,,,,,,61690ac66e1ca0506e2ef890,18,2022-02-12_12h23.00.316,lexical_decision_task_DD_L2,2021.2.3,Win32,60.00960154,,,,,,,,,,,,0.7586,1,,,,,,,,,,,,,,,,,,,,,,,,0.563888889,-0.226851852,0,0,0,,,,,,,GREASE,HB,m,y,./images/GREASEHB.png,,,,,,,,,,,,,,,,,,,,m,1,0.7586,,,,,,,,0,48,48,15,1
,,,,,,,,,,,,,,,,,61690ac66e1ca0506e2ef890,18,2022-02-12_12h23.00.316,lexical_decision_task_DD_L2,2021.2.3,Win32,60.00960154,,,,,,,,,,,,0.6916,1,,,,,,,,,,,,,,,,,,,,,,,,0.563888889,-0.226851852,0,0,0,,,,,,,TULIP,C,m,y,./images/TULIP.png,,,,,,,,,,,,,,,,,,,,m,1,0.6916,,,,,,,,0,49,49,8,1
,,,,,,,,,,,,,,,,,61690ac66e1ca0506e2ef890,18,2022-02-12_12h23.00.316,lexical_decision_task_DD_L2,2021.2.3,Win32,60.00960154,,,,,,,,,,,,0.5421,1,,,,,,,,,,,,,,,,,,,,,,,,0.563888889,-0.226851852,0,0,0,,,,,,,CRUMB,C,m,y,./images/CRUMB.png,,,,,,,,,,,,,,,,,,,,m,1,0.5421,,,,,,,,0,50,50,29,1
,,,,,,,,,,,,,,,,,61690ac66e1ca0506e2ef890,18,2022-02-12_12h23.00.316,lexical_decision_task_DD_L2,2021.2.3,Win32,60.00960154,,,,,,,,,,,,0.9748,1,,,,,,,,,,,,,,,,,,,,,,,,0.563888889,-0.226851852,0,0,0,,,,,,,BUBBLE,C,z,y,./images/BUBBLE.png,,,,,,,,,,,,,,,,,,,,z,1,0.9748,,,,,,,,0,51,51,155,1
,,,,,,,,,,,,,,,,,61690ac66e1ca0506e2ef890,18,2022-02-12_12h23.00.316,lexical_decision_task_DD_L2,2021.2.3,Win32,60.00960154,,,,,,,,,,,,1.067,1,,,,,,,,,,,,,,,,,,,,,,,,0.563888889,-0.226851852,0,0,0,,,,,,,BIRTH,LB,m,y,./images/BIRTHLB.png,,,,,,,,,,,,,,,,,,,,m,1,1.067,,,,,,,,0,52,52,37,1
,,,,,,,,,,,,,,,,,61690ac66e1ca0506e2ef890,18,2022-02-12_12h23.00.316,lexical_decision_task_DD_L2,2021.2.3,Win32,60.00960154,,,,,,,,,,,,0.594,1,,,,,,,,,,,,,,,,,,,,,,,,0.563888889,-0.226851852,0,0,0,,,,,,,ATTIC,HB,m,y,./images/ATTICHB.png,,,,,,,,,,,,,,,,,,,,m,1,0.594,,,,,,,,0,53,53,27,1
,,,,,,,,,,,,,,,,,61690ac66e1ca0506e2ef890,18,2022-02-12_12h23.00.316,lexical_decision_task_DD_L2,2021.2.3,Win32,60.00960154,,,,,,,,,,,,0.6936,0,,,,,,,,,,,,,,,,,,,,,,,,0.563888889,-0.226851852,0,0,0,,,,,,,WHISKY,C,z,y,./images/WHISKY.png,,,,,,,,,,,,,,,,,,,,m,0,0.6936,,,,,,,,0,54,54,167,1
,,,,,,,,,,,,,,,,,61690ac66e1ca0506e2ef890,18,2022-02-12_12h23.00.316,lexical_decision_task_DD_L2,2021.2.3,Win32,60.00960154,,,,,,,,,,,,0.8638,0,,,,,,,,,,,,,,,,,,,,,,,,0.563888889,-0.226851852,0,0,0,,,,,,,STAIN,HB,z,y,./images/STAINHB.png,,,,,,,,,,,,,,,,,,,,m,0,0.8638,,,,,,,,0,55,55,90,1
,,,,,,,,,,,,,,,,,61690ac66e1ca0506e2ef890,18,2022-02-12_12h23.00.316,lexical_decision_task_DD_L2,2021.2.3,Win32,60.00960154,,,,,,,,,,,,0.6871,1,,,,,,,,,,,,,,,,,,,,,,,,0.563888889,-0.226851852,0,0,0,,,,,,,DIVER,HB,z,y,./images/DIVERHB.png,,,,,,,,,,,,,,,,,,,,z,1,0.6871,,,,,,,,0,56,56,93,1
,,,,,,,,,,,,,,,,,61690ac66e1ca0506e2ef890,18,2022-02-12_12h23.00.316,lexical_decision_task_DD_L2,2021.2.3,Win32,60.00960154,,,,,,,,,,,,0.5672,1,,,,,,,,,,,,,,,,,,,,,,,,0.563888889,-0.226851852,0,0,0,,,,,,,FINGER,HB,m,y,./images/FINGERHB.png,,,,,,,,,,,,,,,,,,,,m,1,0.5672,,,,,,,,0,57,57,3,1
,,,,,,,,,,,,,,,,,61690ac66e1ca0506e2ef890,18,2022-02-12_12h23.00.316,lexical_decision_task_DD_L2,2021.2.3,Win32,60.00960154,,,,,,,,,,,,0.5839,1,,,,,,,,,,,,,,,,,,,,,,,,0.563888889,-0.226851852,0,0,0,,,,,,,SQUARE,HB,m,y,./images/SQUAREHB.png,,,,,,,,,,,,,,,,,,,,m,1,0.5839,,,,,,,,0,58,58,6,1
,,,,,,,,,,,,,,,,,61690ac66e1ca0506e2ef890,18,2022-02-12_12h23.00.316,lexical_decision_task_DD_L2,2021.2.3,Win32,60.00960154,,,,,,,,,,,,1.3829,1,,,,,,,,,,,,,,,,,,,,,,,,0.563888889,-0.226851852,0,0,0,,,,,,,CLOTH,C,z,y,./images/CLOTH.png,,,,,,,,,,,,,,,,,,,,z,1,1.3829,,,,,,,,0,59,59,107,1
,,,,,,,,,,,,,,,,,61690ac66e1ca0506e2ef890,18,2022-02-12_12h23.00.316,lexical_decision_task_DD_L2,2021.2.3,Win32,60.00960154,,,,,,,,,,,,0.8929,0,,,,,,,,,,,,,,,,,,,,,,,,0.563888889,-0.226851852,0,0,0,,,,,,,CLIFF,C,z,y,./images/CLIFF.png,,,,,,,,,,,,,,,,,,,,m,0,0.8929,,,,,,,,0,60,60,92,1
,,,,,,,,,,,,,,,,,61690ac66e1ca0506e2ef890,18,2022-02-12_12h23.00.316,lexical_decision_task_DD_L2,2021.2.3,Win32,60.00960154,,,,,,,,,,,,0.6328,0,,,,,,,,,,,,,,,,,,,,,,,,0.563888889,-0.226851852,0,0,0,,,,,,,CHAIN,HB,z,y,./images/CHAINHB.png,,,,,,,,,,,,,,,,,,,,m,0,0.6328,,,,,,,,0,61,61,126,1
,,,,,,,,,,,,,,,,,61690ac66e1ca0506e2ef890,18,2022-02-12_12h23.00.316,lexical_decision_task_DD_L2,2021.2.3,Win32,60.00960154,,,,,,,,,,,,0.8628,1,,,,,,,,,,,,,,,,,,,,,,,,0.563888889,-0.226851852,0,0,0,,,,,,,SHORE,HB,m,y,./images/SHOREHB.png,,,,,,,,,,,,,,,,,,,,m,1,0.8628,,,,,,,,0,62,62,12,1
,,,,,,,,,,,,,,,,,61690ac66e1ca0506e2ef890,18,2022-02-12_12h23.00.316,lexical_decision_task_DD_L2,2021.2.3,Win32,60.00960154,,,,,,,,,,,,0.8258,1,,,,,,,,,,,,,,,,,,,,,,,,0.563888889,-0.226851852,0,0,0,,,,,,,COOKER,HB,m,y,./images/COOKERHB.png,,,,,,,,,,,,,,,,,,,,m,1,0.8258,,,,,,,,0,63,63,69,1
,,,,,,,,,,,,,,,,,61690ac66e1ca0506e2ef890,18,2022-02-12_12h23.00.316,lexical_decision_task_DD_L2,2021.2.3,Win32,60.00960154,,,,,,,,,,,,1.3527,1,,,,,,,,,,,,,,,,,,,,,,,,0.563888889,-0.226851852,0,0,0,,,,,,,BRIDE,LB,z,y,./images/BRIDELB.png,,,,,,,,,,,,,,,,,,,,z,1,1.3527,,,,,,,,0,64,64,148,1
,,,,,,,,,,,,,,,,,61690ac66e1ca0506e2ef890,18,2022-02-12_12h23.00.316,lexical_decision_task_DD_L2,2021.2.3,Win32,60.00960154,,,,,,,,,,,,1.1156,1,,,,,,,,,,,,,,,,,,,,,,,,0.563888889,-0.226851852,0,0,0,,,,,,,DANCER,HB,z,y,./images/DANCERHB.png,,,,,,,,,,,,,,,,,,,,z,1,1.1156,,,,,,,,0,65,65,105,1
,,,,,,,,,,,,,,,,,61690ac66e1ca0506e2ef890,18,2022-02-12_12h23.00.316,lexical_decision_task_DD_L2,2021.2.3,Win32,60.00960154,,,,,,,,,,,,0.7836,1,,,,,,,,,,,,,,,,,,,,,,,,0.563888889,-0.226851852,0,0,0,,,,,,,FARMER,C,m,y,./images/FARMER.png,,,,,,,,,,,,,,,,,,,,m,1,0.7836,,,,,,,,0,66,66,65,1
,,,,,,,,,,,,,,,,,61690ac66e1ca0506e2ef890,18,2022-02-12_12h23.00.316,lexical_decision_task_DD_L2,2021.2.3,Win32,60.00960154,,,,,,,,,,,,0.6217,1,,,,,,,,,,,,,,,,,,,,,,,,0.563888889,-0.226851852,0,0,0,,,,,,,FALCON,LB,m,y,./images/FALCONLB.png,,,,,,,,,,,,,,,,,,,,m,1,0.6217,,,,,,,,0,67,67,28,1
,,,,,,,,,,,,,,,,,61690ac66e1ca0506e2ef890,18,2022-02-12_12h23.00.316,lexical_decision_task_DD_L2,2021.2.3,Win32,60.00960154,,,,,,,,,,,,0.5213,0,,,,,,,,,,,,,,,,,,,,,,,,0.563888889,-0.226851852,0,0,0,,,,,,,BAMBOO,C,z,y,./images/BAMBOO.png,,,,,,,,,,,,,,,,,,,,m,0,0.5213,,,,,,,,0,68,68,89,1
,,,,,,,,,,,,,,,,,61690ac66e1ca0506e2ef890,18,2022-02-12_12h23.00.316,lexical_decision_task_DD_L2,2021.2.3,Win32,60.00960154,,,,,,,,,,,,1.3946,1,,,,,,,,,,,,,,,,,,,,,,,,0.563888889,-0.226851852,0,0,0,,,,,,,TORCH,C,m,y,./images/TORCH.png,,,,,,,,,,,,,,,,,,,,m,1,1.3946,,,,,,,,0,69,69,68,1
,,,,,,,,,,,,,,,,,61690ac66e1ca0506e2ef890,18,2022-02-12_12h23.00.316,lexical_decision_task_DD_L2,2021.2.3,Win32,60.00960154,,,,,,,,,,,,0.5975,0,,,,,,,,,,,,,,,,,,,,,,,,0.563888889,-0.226851852,0,0,0,,,,,,,SHIELD,HB,z,y,./images/SHIELDHB.png,,,,,,,,,,,,,,,,,,,,m,0,0.5975,,,,,,,,0,70,70,132,1
,,,,,,,,,,,,,,,,,61690ac66e1ca0506e2ef890,18,2022-02-12_12h23.00.316,lexical_decision_task_DD_L2,2021.2.3,Win32,60.00960154,,,,,,,,,,,,0.5849,1,,,,,,,,,,,,,,,,,,,,,,,,0.563888889,-0.226851852,0,0,0,,,,,,,SWING,LB,m,y,./images/SWINGLB.png,,,,,,,,,,,,,,,,,,,,m,1,0.5849,,,,,,,,0,71,71,40,1
,,,,,,,,,,,,,,,,,61690ac66e1ca0506e2ef890,18,2022-02-12_12h23.00.316,lexical_decision_task_DD_L2,2021.2.3,Win32,60.00960154,,,,,,,,,,,,0.5436,1,,,,,,,,,,,,,,,,,,,,,,,,0.563888889,-0.226851852,0,0,0,,,,,,,TOMATO,HB,m,y,./images/TOMATOHB.png,,,,,,,,,,,,,,,,,,,,m,1,0.5436,,,,,,,,0,72,72,0,1
,,,,,,,,,,,,,,,,,61690ac66e1ca0506e2ef890,18,2022-02-12_12h23.00.316,lexical_decision_task_DD_L2,2021.2.3,Win32,60.00960154,,,,,,,,,,,,0.614,1,,,,,,,,,,,,,,,,,,,,,,,,0.563888889,-0.226851852,0,0,0,,,,,,,MELON,LB,m,y,./images/MELONLB.png,,,,,,,,,,,,,,,,,,,,m,1,0.614,,,,,,,,0,73,73,22,1
,,,,,,,,,,,,,,,,,61690ac66e1ca0506e2ef890,18,2022-02-12_12h23.00.316,lexical_decision_task_DD_L2,2021.2.3,Win32,60.00960154,,,,,,,,,,,,1.2961,0,,,,,,,,,,,,,,,,,,,,,,,,0.563888889,-0.226851852,0,0,0,,,,,,,SLOPE,HB,z,y,./images/SLOPEHB.png,,,,,,,,,,,,,,,,,,,,m,0,1.2961,,,,,,,,0,74,74,114,1
,,,,,,,,,,,,,,,,,61690ac66e1ca0506e2ef890,18,2022-02-12_12h23.00.316,lexical_decision_task_DD_L2,2021.2.3,Win32,60.00960154,,,,,,,,,,,,0.5261,1,,,,,,,,,,,,,,,,,,,,,,,,0.563888889,-0.226851852,0,0,0,,,,,,,STRING,C,m,y,./images/STRING.png,,,,,,,,,,,,,,,,,,,,m,1,0.5261,,,,,,,,0,75,75,41,1
,,,,,,,,,,,,,,,,,61690ac66e1ca0506e2ef890,18,2022-02-12_12h23.00.316,lexical_decision_task_DD_L2,2021.2.3,Win32,60.00960154,,,,,,,,,,,,1.2134,0,,,,,,,,,,,,,,,,,,,,,,,,0.563888889,-0.226851852,0,0,0,,,,,,,BOXER,LB,z,y,./images/BOXERLB.png,,,,,,,,,,,,,,,,,,,,m,0,1.2134,,,,,,,,0,76,76,88,1
,,,,,,,,,,,,,,,,,61690ac66e1ca0506e2ef890,18,2022-02-12_12h23.00.316,lexical_decision_task_DD_L2,2021.2.3,Win32,60.00960154,,,,,,,,,,,,0.5867,1,,,,,,,,,,,,,,,,,,,,,,,,0.563888889,-0.226851852,0,0,0,,,,,,,POODLE,HB,m,y,./images/POODLEHB.png,,,,,,,,,,,,,,,,,,,,m,1,0.5867,,,,,,,,0,77,77,81,1
,,,,,,,,,,,,,,,,,61690ac66e1ca0506e2ef890,18,2022-02-12_12h23.00.316,lexical_decision_task_DD_L2,2021.2.3,Win32,60.00960154,,,,,,,,,,,,1.1356,1,,,,,,,,,,,,,,,,,,,,,,,,0.563888889,-0.226851852,0,0,0,,,,,,,BISHOP,LB,z,y,./images/BISHOPLB.png,,,,,,,,,,,,,,,,,,,,z,1,1.1356,,,,,,,,0,78,78,133,1
,,,,,,,,,,,,,,,,,61690ac66e1ca0506e2ef890,18,2022-02-12_12h23.00.316,lexical_decision_task_DD_L2,2021.2.3,Win32,60.00960154,,,,,,,,,,,,5.8055,1,,,,,,,,,,,,,,,,,,,,,,,,0.563888889,-0.226851852,0,0,0,,,,,,,DESERT,LB,z,y,./images/DESERTLB.png,,,,,,,,,,,,,,,,,,,,z,1,5.8055,,,,,,,,0,79,79,136,1
,,,,,,,,,,,,,,,,,61690ac66e1ca0506e2ef890,18,2022-02-12_12h23.00.316,lexical_decision_task_DD_L2,2021.2.3,Win32,60.00960154,,,,,,,,,,,,1.2384,1,,,,,,,,,,,,,,,,,,,,,,,,0.563888889,-0.226851852,0,0,0,,,,,,,ENGINE,C,z,y,./images/ENGINE.png,,,,,,,,,,,,,,,,,,,,z,1,1.2384,,,,,,,,0,80,80,122,1
,,,,,,,,,,,,,,,,,61690ac66e1ca0506e2ef890,18,2022-02-12_12h23.00.316,lexical_decision_task_DD_L2,2021.2.3,Win32,60.00960154,,,,,,,,,,,,0.6711,1,,,,,,,,,,,,,,,,,,,,,,,,0.563888889,-0.226851852,0,0,0,,,,,,,LLAMA,C,z,y,./images/LLAMA.png,,,,,,,,,,,,,,,,,,,,z,1,0.6711,,,,,,,,0,81,81,119,1
,,,,,,,,,,,,,,,,,61690ac66e1ca0506e2ef890,18,2022-02-12_12h23.00.316,lexical_decision_task_DD_L2,2021.2.3,Win32,60.00960154,,,,,,,,,,,,1.1636,0,,,,,,,,,,,,,,,,,,,,,,,,0.563888889,-0.226851852,0,0,0,,,,,,,RULER,LB,z,y,./images/RULERLB.png,,,,,,,,,,,,,,,,,,,,m,0,1.1636,,,,,,,,0,82,82,163,1
,,,,,,,,,,,,,,,,,61690ac66e1ca0506e2ef890,18,2022-02-12_12h23.00.316,lexical_decision_task_DD_L2,2021.2.3,Win32,60.00960154,,,,,,,,,,,,0.5773,1,,,,,,,,,,,,,,,,,,,,,,,,0.563888889,-0.226851852,0,0,0,space,,,,,,DRUMS,LB,m,y,./images/DRUMSLB.png,9.5432,,,,,,,,,,,,,,,,,,,m,1,0.5773,,,,,,,,0,83,83,49,1
,,,,,,,,,,,,,,,,,61690ac66e1ca0506e2ef890,18,2022-02-12_12h23.00.316,lexical_decision_task_DD_L2,2021.2.3,Win32,60.00960154,,,,,,,,,,,,0.6258,1,,,,,,,,,,,,,,,,,,,,,,,,0.563888889,-0.226851852,0,0,0,,,,,,,WEASEL,C,m,y,./images/WEASEL.png,,,,,,,,,,,,,,,,,,,,m,1,0.6258,,,,,,,,0,84,84,80,1
,,,,,,,,,,,,,,,,,61690ac66e1ca0506e2ef890,18,2022-02-12_12h23.00.316,lexical_decision_task_DD_L2,2021.2.3,Win32,60.00960154,,,,,,,,,,,,0.8595,1,,,,,,,,,,,,,,,,,,,,,,,,0.563888889,-0.226851852,0,0,0,,,,,,,STORM,HB,m,y,./images/STORMHB.png,,,,,,,,,,,,,,,,,,,,m,1,0.8595,,,,,,,,0,85,85,30,1
,,,,,,,,,,,,,,,,,61690ac66e1ca0506e2ef890,18,2022-02-12_12h23.00.316,lexical_decision_task_DD_L2,2021.2.3,Win32,60.00960154,,,,,,,,,,,,0.7329,0,,,,,,,,,,,,,,,,,,,,,,,,0.563888889,-0.226851852,0,0,0,,,,,,,MAMMAL,C,z,y,./images/MAMMAL.png,,,,,,,,,,,,,,,,,,,,m,0,0.7329,,,,,,,,0,86,86,146,1
,,,,,,,,,,,,,,,,,61690ac66e1ca0506e2ef890,18,2022-02-12_12h23.00.316,lexical_decision_task_DD_L2,2021.2.3,Win32,60.00960154,,,,,,,,,,,,0.5226,1,,,,,,,,,,,,,,,,,,,,,,,,0.563888889,-0.226851852,0,0,0,,,,,,,PICKLE,C,m,y,./images/PICKLE.png,,,,,,,,,,,,,,,,,,,,m,1,0.5226,,,,,,,,0,87,87,14,1
,,,,,,,,,,,,,,,,,61690ac66e1ca0506e2ef890,18,2022-02-12_12h23.00.316,lexical_decision_task_DD_L2,2021.2.3,Win32,60.00960154,,,,,,,,,,,,0.6895,0,,,,,,,,,,,,,,,,,,,,,,,,0.563888889,-0.226851852,0,0,0,,,,,,,STOOL,LB,z,y,./images/STOOLLB.png,,,,,,,,,,,,,,,,,,,,m,0,0.6895,,,,,,,,0,88,88,127,1
,,,,,,,,,,,,,,,,,61690ac66e1ca0506e2ef890,18,2022-02-12_12h23.00.316,lexical_decision_task_DD_L2,2021.2.3,Win32,60.00960154,,,,,,,,,,,,0.7694,1,,,,,,,,,,,,,,,,,,,,,,,,0.563888889,-0.226851852,0,0,0,,,,,,,RAZOR,LB,z,y,./images/RAZORLB.png,,,,,,,,,,,,,,,,,,,,z,1,0.7694,,,,,,,,0,89,89,118,1
,,,,,,,,,,,,,,,,,61690ac66e1ca0506e2ef890,18,2022-02-12_12h23.00.316,lexical_decision_task_DD_L2,2021.2.3,Win32,60.00960154,,,,,,,,,,,,1.0849,0,,,,,,,,,,,,,,,,,,,,,,,,0.563888889,-0.226851852,0,0,0,,,,,,,BROOM,HB,z,y,./images/BROOMHB.png,,,,,,,,,,,,,,,,,,,,m,0,1.0849,,,,,,,,0,90,90,162,1
,,,,,,,,,,,,,,,,,61690ac66e1ca0506e2ef890,18,2022-02-12_12h23.00.316,lexical_decision_task_DD_L2,2021.2.3,Win32,60.00960154,,,,,,,,,,,,0.5447,1,,,,,,,,,,,,,,,,,,,,,,,,0.563888889,-0.226851852,0,0,0,,,,,,,MUFFIN,LB,m,y,./images/MUFFINLB.png,,,,,,,,,,,,,,,,,,,,m,1,0.5447,,,,,,,,0,91,91,55,1
,,,,,,,,,,,,,,,,,61690ac66e1ca0506e2ef890,18,2022-02-12_12h23.00.316,lexical_decision_task_DD_L2,2021.2.3,Win32,60.00960154,,,,,,,,,,,,0.8153,1,,,,,,,,,,,,,,,,,,,,,,,,0.563888889,-0.226851852,0,0,0,,,,,,,MIDGET,LB,z,y,./images/MIDGETLB.png,,,,,,,,,,,,,,,,,,,,z,1,0.8153,,,,,,,,0,92,92,160,1
,,,,,,,,,,,,,,,,,61690ac66e1ca0506e2ef890,18,2022-02-12_12h23.00.316,lexical_decision_task_DD_L2,2021.2.3,Win32,60.00960154,,,,,,,,,,,,0.9617,1,,,,,,,,,,,,,,,,,,,,,,,,0.563888889,-0.226851852,0,0,0,,,,,,,FLESH,HB,z,y,./images/FLESHHB.png,,,,,,,,,,,,,,,,,,,,z,1,0.9617,,,,,,,,0,93,93,108,1
,,,,,,,,,,,,,,,,,61690ac66e1ca0506e2ef890,18,2022-02-12_12h23.00.316,lexical_decision_task_DD_L2,2021.2.3,Win32,60.00960154,,,,,,,,,,,,1.2451,0,,,,,,,,,,,,,,,,,,,,,,,,0.563888889,-0.226851852,0,0,0,,,,,,,VALLEY,C,z,y,./images/VALLEY.png,,,,,,,,,,,,,,,,,,,,m,0,1.2451,,,,,,,,0,94,94,152,1
,,,,,,,,,,,,,,,,,61690ac66e1ca0506e2ef890,18,2022-02-12_12h23.00.316,lexical_decision_task_DD_L2,2021.2.3,Win32,60.00960154,,,,,,,,,,,,0.764,1,,,,,,,,,,,,,,,,,,,,,,,,0.563888889,-0.226851852,0,0,0,,,,,,,WALNUT,HB,z,y,./images/WALNUTHB.png,,,,,,,,,,,,,,,,,,,,z,1,0.764,,,,,,,,0,95,95,84,1
,,,,,,,,,,,,,,,,,61690ac66e1ca0506e2ef890,18,2022-02-12_12h23.00.316,lexical_decision_task_DD_L2,2021.2.3,Win32,60.00960154,,,,,,,,,,,,0.726,1,,,,,,,,,,,,,,,,,,,,,,,,0.563888889,-0.226851852,0,0,0,,,,,,,GRAPE,LB,z,y,./images/GRAPELB.png,,,,,,,,,,,,,,,,,,,,z,1,0.726,,,,,,,,0,96,96,100,1
,,,,,,,,,,,,,,,,,61690ac66e1ca0506e2ef890,18,2022-02-12_12h23.00.316,lexical_decision_task_DD_L2,2021.2.3,Win32,60.00960154,,,,,,,,,,,,0.6835,1,,,,,,,,,,,,,,,,,,,,,,,,0.563888889,-0.226851852,0,0,0,,,,,,,MALLET,C,m,y,./images/MALLET.png,,,,,,,,,,,,,,,,,,,,m,1,0.6835,,,,,,,,0,97,97,50,1
,,,,,,,,,,,,,,,,,61690ac66e1ca0506e2ef890,18,2022-02-12_12h23.00.316,lexical_decision_task_DD_L2,2021.2.3,Win32,60.00960154,,,,,,,,,,,,0.5631,1,,,,,,,,,,,,,,,,,,,,,,,,0.563888889,-0.226851852,0,0,0,,,,,,,ONION,HB,m,y,./images/ONIONHB.png,,,,,,,,,,,,,,,,,,,,m,1,0.5631,,,,,,,,0,98,98,51,1
,,,,,,,,,,,,,,,,,61690ac66e1ca0506e2ef890,18,2022-02-12_12h23.00.316,lexical_decision_task_DD_L2,2021.2.3,Win32,60.00960154,,,,,,,,,,,,0.9663,1,,,,,,,,,,,,,,,,,,,,,,,,0.563888889,-0.226851852,0,0,0,,,,,,,ARTIST,LB,z,y,./images/ARTISTLB.png,,,,,,,,,,,,,,,,,,,,z,1,0.9663,,,,,,,,0,99,99,145,1
,,,,,,,,,,,,,,,,,61690ac66e1ca0506e2ef890,18,2022-02-12_12h23.00.316,lexical_decision_task_DD_L2,2021.2.3,Win32,60.00960154,,,,,,,,,,,,0.6831,1,,,,,,,,,,,,,,,,,,,,,,,,0.563888889,-0.226851852,0,0,0,,,,,,,PACKET,C,m,y,./images/PACKET.png,,,,,,,,,,,,,,,,,,,,m,1,0.6831,,,,,,,,0,100,100,56,1
,,,,,,,,,,,,,,,,,61690ac66e1ca0506e2ef890,18,2022-02-12_12h23.00.316,lexical_decision_task_DD_L2,2021.2.3,Win32,60.00960154,,,,,,,,,,,,0.5835,0,,,,,,,,,,,,,,,,,,,,,,,,0.563888889,-0.226851852,0,0,0,,,,,,,CURRY,HB,z,y,./images/CURRYHB.png,,,,,,,,,,,,,,,,,,,,m,0,0.5835,,,,,,,,0,101,101,144,1
,,,,,,,,,,,,,,,,,61690ac66e1ca0506e2ef890,18,2022-02-12_12h23.00.316,lexical_decision_task_DD_L2,2021.2.3,Win32,60.00960154,,,,,,,,,,,,0.9333,1,,,,,,,,,,,,,,,,,,,,,,,,0.563888889,-0.226851852,0,0,0,,,,,,,DONKEY,LB,z,y,./images/DONKEYLB.png,,,,,,,,,,,,,,,,,,,,z,1,0.9333,,,,,,,,0,102,102,103,1
,,,,,,,,,,,,,,,,,61690ac66e1ca0506e2ef890,18,2022-02-12_12h23.00.316,lexical_decision_task_DD_L2,2021.2.3,Win32,60.00960154,,,,,,,,,,,,0.592,1,,,,,,,,,,,,,,,,,,,,,,,,0.563888889,-0.226851852,0,0,0,,,,,,,SMOKER,C,m,y,./images/SMOKER.png,,,,,,,,,,,,,,,,,,,,m,1,0.592,,,,,,,,0,103,103,26,1
,,,,,,,,,,,,,,,,,61690ac66e1ca0506e2ef890,18,2022-02-12_12h23.00.316,lexical_decision_task_DD_L2,2021.2.3,Win32,60.00960154,,,,,,,,,,,,0.7321,0,,,,,,,,,,,,,,,,,,,,,,,,0.563888889,-0.226851852,0,0,0,,,,,,,PAINT,LB,m,y,./images/PAINTLB.png,,,,,,,,,,,,,,,,,,,,z,0,0.7321,,,,,,,,0,104,104,7,1
,,,,,,,,,,,,,,,,,61690ac66e1ca0506e2ef890,18,2022-02-12_12h23.00.316,lexical_decision_task_DD_L2,2021.2.3,Win32,60.00960154,,,,,,,,,,,,0.7327,1,,,,,,,,,,,,,,,,,,,,,,,,0.563888889,-0.226851852,0,0,0,,,,,,,URINE,LB,m,y,./images/URINELB.png,,,,,,,,,,,,,,,,,,,,m,1,0.7327,,,,,,,,0,105,105,70,1
,,,,,,,,,,,,,,,,,61690ac66e1ca0506e2ef890,18,2022-02-12_12h23.00.316,lexical_decision_task_DD_L2,2021.2.3,Win32,60.00960154,,,,,,,,,,,,0.5524,1,,,,,,,,,,,,,,,,,,,,,,,,0.563888889,-0.226851852,0,0,0,,,,,,,SWEAT,HB,m,y,./images/SWEATHB.png,,,,,,,,,,,,,,,,,,,,m,1,0.5524,,,,,,,,0,106,106,66,1
,,,,,,,,,,,,,,,,,61690ac66e1ca0506e2ef890,18,2022-02-12_12h23.00.316,lexical_decision_task_DD_L2,2021.2.3,Win32,60.00960154,,,,,,,,,,,,1.3154,1,,,,,,,,,,,,,,,,,,,,,,,,0.563888889,-0.226851852,0,0,0,,,,,,,SKIING,C,m,y,./images/SKIING.png,,,,,,,,,,,,,,,,,,,,m,1,1.3154,,,,,,,,0,107,107,17,1
,,,,,,,,,,,,,,,,,61690ac66e1ca0506e2ef890,18,2022-02-12_12h23.00.316,lexical_decision_task_DD_L2,2021.2.3,Win32,60.00960154,,,,,,,,,,,,1.3655,0,,,,,,,,,,,,,,,,,,,,,,,,0.563888889,-0.226851852,0,0,0,,,,,,,GARDEN,LB,z,y,./images/GARDENLB.png,,,,,,,,,,,,,,,,,,,,m,0,1.3655,,,,,,,,0,108,108,94,1
,,,,,,,,,,,,,,,,,61690ac66e1ca0506e2ef890,18,2022-02-12_12h23.00.316,lexical_decision_task_DD_L2,2021.2.3,Win32,60.00960154,,,,,,,,,,,,1.2776,1,,,,,,,,,,,,,,,,,,,,,,,,0.563888889,-0.226851852,0,0,0,,,,,,,SNAKE,LB,z,y,./images/SNAKELB.png,,,,,,,,,,,,,,,,,,,,z,1,1.2776,,,,,,,,0,109,109,124,1
,,,,,,,,,,,,,,,,,61690ac66e1ca0506e2ef890,18,2022-02-12_12h23.00.316,lexical_decision_task_DD_L2,2021.2.3,Win32,60.00960154,,,,,,,,,,,,0.8343,1,,,,,,,,,,,,,,,,,,,,,,,,0.563888889,-0.226851852,0,0,0,,,,,,,BLOKE,HB,z,y,./images/BLOKEHB.png,,,,,,,,,,,,,,,,,,,,z,1,0.8343,,,,,,,,0,110,110,96,1
,,,,,,,,,,,,,,,,,61690ac66e1ca0506e2ef890,18,2022-02-12_12h23.00.316,lexical_decision_task_DD_L2,2021.2.3,Win32,60.00960154,,,,,,,,,,,,3.2042,1,,,,,,,,,,,,,,,,,,,,,,,,0.563888889,-0.226851852,0,0,0,,,,,,,ARROW,HB,z,y,./images/ARROWHB.png,,,,,,,,,,,,,,,,,,,,z,1,3.2042,,,,,,,,0,111,111,153,1
,,,,,,,,,,,,,,,,,61690ac66e1ca0506e2ef890,18,2022-02-12_12h23.00.316,lexical_decision_task_DD_L2,2021.2.3,Win32,60.00960154,,,,,,,,,,,,0.5473,1,,,,,,,,,,,,,,,,,,,,,,,,0.563888889,-0.226851852,0,0,0,,,,,,,SPORT,HB,m,y,./images/SPORTHB.png,,,,,,,,,,,,,,,,,,,,m,1,0.5473,,,,,,,,0,112,112,48,1
,,,,,,,,,,,,,,,,,61690ac66e1ca0506e2ef890,18,2022-02-12_12h23.00.316,lexical_decision_task_DD_L2,2021.2.3,Win32,60.00960154,,,,,,,,,,,,0.8673,0,,,,,,,,,,,,,,,,,,,,,,,,0.563888889,-0.226851852,0,0,0,,,,,,,SAUCE,HB,z,y,./images/SAUCEHB.png,,,,,,,,,,,,,,,,,,,,m,0,0.8673,,,,,,,,0,113,113,135,1
,,,,,,,,,,,,,,,,,61690ac66e1ca0506e2ef890,18,2022-02-12_12h23.00.316,lexical_decision_task_DD_L2,2021.2.3,Win32,60.00960154,,,,,,,,,,,,0.9839,1,,,,,,,,,,,,,,,,,,,,,,,,0.563888889,-0.226851852,0,0,0,,,,,,,BABOON,LB,m,y,./images/BABOONLB.png,,,,,,,,,,,,,,,,,,,,m,1,0.9839,,,,,,,,0,114,114,58,1
,,,,,,,,,,,,,,,,,61690ac66e1ca0506e2ef890,18,2022-02-12_12h23.00.316,lexical_decision_task_DD_L2,2021.2.3,Win32,60.00960154,,,,,,,,,,,,1.042,1,,,,,,,,,,,,,,,,,,,,,,,,0.563888889,-0.226851852,0,0,0,,,,,,,CHERRY,HB,z,y,./images/CHERRYHB.png,,,,,,,,,,,,,,,,,,,,z,1,1.042,,,,,,,,0,115,115,138,1
,,,,,,,,,,,,,,,,,61690ac66e1ca0506e2ef890,18,2022-02-12_12h23.00.316,lexical_decision_task_DD_L2,2021.2.3,Win32,60.00960154,,,,,,,,,,,,0.7429,1,,,,,,,,,,,,,,,,,,,,,,,,0.563888889,-0.226851852,0,0,0,,,,,,,MOSQUE,LB,m,y,./images/MOSQUELB.png,,,,,,,,,,,,,,,,,,,,m,1,0.7429,,,,,,,,0,116,116,43,1
,,,,,,,,,,,,,,,,,61690ac66e1ca0506e2ef890,18,2022-02-12_12h23.00.316,lexical_decision_task_DD_L2,2021.2.3,Win32,60.00960154,,,,,,,,,,,,0.8528,1,,,,,,,,,,,,,,,,,,,,,,,,0.563888889,-0.226851852,0,0,0,,,,,,,POSTER,C,z,y,./images/POSTER.png,,,,,,,,,,,,,,,,,,,,z,1,0.8528,,,,,,,,0,117,117,137,1
,,,,,,,,,,,,,,,,,61690ac66e1ca0506e2ef890,18,2022-02-12_12h23.00.316,lexical_decision_task_DD_L2,2021.2.3,Win32,60.00960154,,,,,,,,,,,,0.5563,0,,,,,,,,,,,,,,,,,,,,,,,,0.563888889,-0.226851852,0,0,0,,,,,,,BUNNY,LB,z,y,./images/BUNNYLB.png,,,,,,,,,,,,,,,,,,,,m,0,0.5563,,,,,,,,0,118,118,97,1
,,,,,,,,,,,,,,,,,61690ac66e1ca0506e2ef890,18,2022-02-12_12h23.00.316,lexical_decision_task_DD_L2,2021.2.3,Win32,60.00960154,,,,,,,,,,,,0.6892,1,,,,,,,,,,,,,,,,,,,,,,,,0.563888889,-0.226851852,0,0,0,,,,,,,RHINO,HB,m,y,./images/RHINOHB.png,,,,,,,,,,,,,,,,,,,,m,1,0.6892,,,,,,,,0,119,119,9,1
,,,,,,,,,,,,,,,,,61690ac66e1ca0506e2ef890,18,2022-02-12_12h23.00.316,lexical_decision_task_DD_L2,2021.2.3,Win32,60.00960154,,,,,,,,,,,,0.9392,1,,,,,,,,,,,,,,,,,,,,,,,,0.563888889,-0.226851852,0,0,0,,,,,,,STOVE,C,z,y,./images/STOVE.png,,,,,,,,,,,,,,,,,,,,z,1,0.9392,,,,,,,,0,120,120,86,1
,,,,,,,,,,,,,,,,,61690ac66e1ca0506e2ef890,18,2022-02-12_12h23.00.316,lexical_decision_task_DD_L2,2021.2.3,Win32,60.00960154,,,,,,,,,,,,0.8882,1,,,,,,,,,,,,,,,,,,,,,,,,0.563888889,-0.226851852,0,0,0,,,,,,,HOCKEY,C,z,y,./images/HOCKEY.png,,,,,,,,,,,,,,,,,,,,z,1,0.8882,,,,,,,,0,121,121,116,1
,,,,,,,,,,,,,,,,,61690ac66e1ca0506e2ef890,18,2022-02-12_12h23.00.316,lexical_decision_task_DD_L2,2021.2.3,Win32,60.00960154,,,,,,,,,,,,0.5488,1,,,,,,,,,,,,,,,,,,,,,,,,0.563888889,-0.226851852,0,0,0,,,,,,,KITTEN,HB,m,y,./images/KITTENHB.png,,,,,,,,,,,,,,,,,,,,m,1,0.5488,,,,,,,,0,122,122,45,1
,,,,,,,,,,,,,,,,,61690ac66e1ca0506e2ef890,18,2022-02-12_12h23.00.316,lexical_decision_task_DD_L2,2021.2.3,Win32,60.00960154,,,,,,,,,,,,0.7316,1,,,,,,,,,,,,,,,,,,,,,,,,0.563888889,-0.226851852,0,0,0,,,,,,,FERRY,HB,z,y,./images/FERRYHB.png,,,,,,,,,,,,,,,,,,,,z,1,0.7316,,,,,,,,0,123,123,141,1
,,,,,,,,,,,,,,,,,61690ac66e1ca0506e2ef890,18,2022-02-12_12h23.00.316,lexical_decision_task_DD_L2,2021.2.3,Win32,60.00960154,,,,,,,,,,,,0.6481,1,,,,,,,,,,,,,,,,,,,,,,,,0.563888889,-0.226851852,0,0,0,,,,,,,THROAT,HB,m,y,./images/THROATHB.png,,,,,,,,,,,,,,,,,,,,m,1,0.6481,,,,,,,,0,124,124,36,1
,,,,,,,,,,,,,,,,,61690ac66e1ca0506e2ef890,18,2022-02-12_12h23.00.316,lexical_decision_task_DD_L2,2021.2.3,Win32,60.00960154,,,,,,,,,,,,0.8379,0,,,,,,,,,,,,,,,,,,,,,,,,0.563888889,-0.226851852,0,0,0,space,,,,,,BASKET,C,z,y,./images/BASKET.png,2.2777,,,,,,,,,,,,,,,,,,,m,0,0.8379,,,,,,,,0,125,125,128,1
,,,,,,,,,,,,,,,,,61690ac66e1ca0506e2ef890,18,2022-02-12_12h23.00.316,lexical_decision_task_DD_L2,2021.2.3,Win32,60.00960154,,,,,,,,,,,,0.7831,1,,,,,,,,,,,,,,,,,,,,,,,,0.563888889,-0.226851852,0,0,0,,,,,,,JUMPER,C,z,y,./images/JUMPER.png,,,,,,,,,,,,,,,,,,,,z,1,0.7831,,,,,,,,0,126,126,158,1
,,,,,,,,,,,,,,,,,61690ac66e1ca0506e2ef890,18,2022-02-12_12h23.00.316,lexical_decision_task_DD_L2,2021.2.3,Win32,60.00960154,,,,,,,,,,,,0.5629,1,,,,,,,,,,,,,,,,,,,,,,,,0.563888889,-0.226851852,0,0,0,,,,,,,DOUGH,LB,m,y,./images/DOUGHLB.png,,,,,,,,,,,,,,,,,,,,m,1,0.5629,,,,,,,,0,127,127,19,1
,,,,,,,,,,,,,,,,,61690ac66e1ca0506e2ef890,18,2022-02-12_12h23.00.316,lexical_decision_task_DD_L2,2021.2.3,Win32,60.00960154,,,,,,,,,,,,0.7869,1,,,,,,,,,,,,,,,,,,,,,,,,0.563888889,-0.226851852,0,0,0,,,,,,,PEBBLE,LB,z,y,./images/PEBBLELB.png,,,,,,,,,,,,,,,,,,,,z,1,0.7869,,,,,,,,0,128,128,166,1
,,,,,,,,,,,,,,,,,61690ac66e1ca0506e2ef890,18,2022-02-12_12h23.00.316,lexical_decision_task_DD_L2,2021.2.3,Win32,60.00960154,,,,,,,,,,,,0.8669,1,,,,,,,,,,,,,,,,,,,,,,,,0.563888889,-0.226851852,0,0,0,,,,,,,BOILER,HB,z,y,./images/BOILERHB.png,,,,,,,,,,,,,,,,,,,,z,1,0.8669,,,,,,,,0,129,129,120,1
,,,,,,,,,,,,,,,,,61690ac66e1ca0506e2ef890,18,2022-02-12_12h23.00.316,lexical_decision_task_DD_L2,2021.2.3,Win32,60.00960154,,,,,,,,,,,,0.9231,1,,,,,,,,,,,,,,,,,,,,,,,,0.563888889,-0.226851852,0,0,0,,,,,,,WALRUS,C,m,y,./images/WALRUS.png,,,,,,,,,,,,,,,,,,,,m,1,0.9231,,,,,,,,0,130,130,23,1
,,,,,,,,,,,,,,,,,61690ac66e1ca0506e2ef890,18,2022-02-12_12h23.00.316,lexical_decision_task_DD_L2,2021.2.3,Win32,60.00960154,,,,,,,,,,,,0.5601,0,,,,,,,,,,,,,,,,,,,,,,,,0.563888889,-0.226851852,0,0,0,,,,,,,BUTTER,HB,z,y,./images/BUTTERHB.png,,,,,,,,,,,,,,,,,,,,m,0,0.5601,,,,,,,,0,131,131,111,1
