key_resp.keys,instr_done_touch.x,instr_done_touch.y,instr_done_touch.leftButton,instr_done_touch.midButton,instr_done_touch.rightButton,instr_done_touch.clicked_name,instruction_pages.thisRepN,instruction_pages.thisTrialN,instruction_pages.thisN,instruction_pages.thisIndex,instruction_pages.ran,pageN,phase,instruct_text,has_image,instruct_image,participant,age,date,expName,psychopyVersion,OS,frameRate,response.keys,response.corr,touch_resp.x,touch_resp.y,touch_resp.leftButton,touch_resp.midButton,touch_resp.rightButton,touch_resp.time,touch_resp.clicked_name,rt,corr,practrials.thisRepN,practrials.thisTrialN,practrials.thisN,practrials.thisIndex,practrials.ran,TrialID,Target,corrAns,end_of_practice_trials_pages.thisRepN,end_of_practice_trials_pages.thisTrialN,end_of_practice_trials_pages.thisN,end_of_practice_trials_pages.thisIndex,end_of_practice_trials_pages.ran,key_resp_2.keys,key_resp_2.corr,targ_click.x,targ_click.y,targ_click.leftButton,targ_click.midButton,targ_click.rightButton,targ_click.time,targ_click.clicked_name,break_done_touch.x,break_done_touch.y,break_done_touch.leftButton,break_done_touch.midButton,break_done_touch.rightButton,break_done_keyboard.keys,maintrials.thisRepN,maintrials.thisTrialN,maintrials.thisN,maintrials.thisIndex,maintrials.ran,string,blur,study,lex,stim_path,break_done_touch.clicked_name,mouse_2.x,mouse_2.y,mouse_2.leftButton,mouse_2.midButton,mouse_2.rightButton,mouse_2.clicked_name,slider.response,slider.rt,trials.thisRepN,trials.thisTrialN,trials.thisN,trials.thisIndex,trials.ran,test_instructions.thisRepN,test_instructions.thisTrialN,test_instructions.thisN,test_instructions.thisIndex,test_instructions.ran,key_resp_3.keys,key_resp_3.corr,test_click.x,test_click.y,test_click.leftButton,test_click.midButton,test_click.rightButton,test_click.time,test_click.clicked_name,test_phase.thisRepN,test_phase.thisTrialN,test_phase.thisN,test_phase.thisIndex,test_phase.ran
,-0.066763832,-0.379991698,1,0,0,instr_done_button,0,0,0,0,1,1,instructions,"INSTRUCTIONS
At the start of each trial, look at the plus sign  (+) in the center of the screen.  This tells you that a trial is about to begin and where to look. Second, the plus sign will disappear and a string of letters will appear. Your task is to determine if the string of letters is a word or not. If the item is a word press the M key (on keyboard)  or touch the word button (phone/tablet).  If the item is not a word,  press the  Z key (on keyboard)  or touch the nonword button (on phone/tablet). 
Press the space bar or touch  continue.",0,,616dd3845b2624e9720392fd,31,2022-02-12_10h46.14.787,lexical_decision_task_DD_L3,2021.2.3,Linux armv8l,59.93407252,,,,,,,,,,,,,,,,,,,,,,,,,,,,,,,,,,,,,,,,,,,,,,,,,,,,,,,,,,,,,,,,,,,,,,,,,,,,,,,,,,
,-0.054817533,-0.400037599,1,0,0,instr_done_button,0,1,1,1,1,2,instructions,"If your device has a keyboard, press the 'Z' key for nonwords and the 'M' key for words.





Press the space bar or touch the button below to continue.",0,keyboard-example.gif,616dd3845b2624e9720392fd,31,2022-02-12_10h46.14.787,lexical_decision_task_DD_L3,2021.2.3,Linux armv8l,59.93407252,,,,,,,,,,,,,,,,,,,,,,,,,,,,,,,,,,,,,,,,,,,,,,,,,,,,,,,,,,,,,,,,,,,,,,,,,,,,,,,,,,
,-0.083342358,-0.38107522,1,0,0,instr_done_button,0,2,2,2,1,3,instructions,"If you are using a touchscreen only device, use the buttons on the screen. Do not use the mouse.





Press the space bar or touch the button below to continue.",0,touchscreen-example.gif,616dd3845b2624e9720392fd,31,2022-02-12_10h46.14.787,lexical_decision_task_DD_L3,2021.2.3,Linux armv8l,59.93407252,,,,,,,,,,,,,,,,,,,,,,,,,,,,,,,,,,,,,,,,,,,,,,,,,,,,,,,,,,,,,,,,,,,,,,,,,,,,,,,,,,
,-0.107722569,-0.413582219,1,0,0,instr_done_button,0,3,3,3,1,4,instructions,"It is very important that you respond as quickly and accurately as possible, as each letter string will only be on the screen for two seconds. If you do not respond within this time, the message 'Too slow!' will be displayed and the experiment will progress to the next letter string. The first 20 trials will be practice trials and you will receive feedback on your answers. 

Press the space bar or touch the button below to start the practice trials.",0,,616dd3845b2624e9720392fd,31,2022-02-12_10h46.14.787,lexical_decision_task_DD_L3,2021.2.3,Linux armv8l,59.93407252,,,,,,,,,,,,,,,,,,,,,,,,,,,,,,,,,,,,,,,,,,,,,,,,,,,,,,,,,,,,,,,,,,,,,,,,,,,,,,,,,,
,,,,,,,,,,,,,,,,,616dd3845b2624e9720392fd,31,2022-02-12_10h46.14.787,lexical_decision_task_DD_L3,2021.2.3,Linux armv8l,59.93407252,,0,0.33941043,-0.312268896,1,0,0,5.3632,button_right,5.3632,1,0,0,0,7,1,1001,VOLUME,m,,,,,,,,,,,,,,,,,,,,,,,,,,,,,,,,,,,,,,,,,,,,,,,,,,,,,,,,,,,,,,,
,,,,,,,,,,,,,,,,,616dd3845b2624e9720392fd,31,2022-02-12_10h46.14.787,lexical_decision_task_DD_L3,2021.2.3,Linux armv8l,59.93407252,,0,0.315273915,-0.291139325,1,0,0,1.0442,button_right,1.0442,1,0,1,1,3,1,1001,MATRIX,m,,,,,,,,,,,,,,,,,,,,,,,,,,,,,,,,,,,,,,,,,,,,,,,,,,,,,,,,,,,,,,,
,,,,,,,,,,,,,,,,,616dd3845b2624e9720392fd,31,2022-02-12_10h46.14.787,lexical_decision_task_DD_L3,2021.2.3,Linux armv8l,59.93407252,,0,-0.396384147,-0.299266037,1,0,0,1.1123,button_left,1.1123,1,0,2,2,8,1,1001,ASLERT,z,,,,,,,,,,,,,,,,,,,,,,,,,,,,,,,,,,,,,,,,,,,,,,,,,,,,,,,,,,,,,,,
,,,,,,,,,,,,,,,,,616dd3845b2624e9720392fd,31,2022-02-12_10h46.14.787,lexical_decision_task_DD_L3,2021.2.3,Linux armv8l,59.93407252,,0,-0.397359348,-0.276511183,1,0,0,0.9512,button_left,0.9512,1,0,3,3,15,1,1001,WHAISE,z,,,,,,,,,,,,,,,,,,,,,,,,,,,,,,,,,,,,,,,,,,,,,,,,,,,,,,,,,,,,,,,
,,,,,,,,,,,,,,,,,616dd3845b2624e9720392fd,31,2022-02-12_10h46.14.787,lexical_decision_task_DD_L3,2021.2.3,Linux armv8l,59.93407252,,0,-0.387119664,-0.241295379,1,0,0,0.6583,button_left,0.6583,0,0,4,4,0,1,1001,UTOPIA,m,,,,,,,,,,,,,,,,,,,,,,,,,,,,,,,,,,,,,,,,,,,,,,,,,,,,,,,,,,,,,,,
,,,,,,,,,,,,,,,,,616dd3845b2624e9720392fd,31,2022-02-12_10h46.14.787,lexical_decision_task_DD_L3,2021.2.3,Linux armv8l,59.93407252,,0,-0.317879871,-0.300891469,1,0,0,0.9264,button_left,0.9264,1,0,5,5,13,1,1001,ROUPET,z,,,,,,,,,,,,,,,,,,,,,,,,,,,,,,,,,,,,,,,,,,,,,,,,,,,,,,,,,,,,,,,
,,,,,,,,,,,,,,,,,616dd3845b2624e9720392fd,31,2022-02-12_10h46.14.787,lexical_decision_task_DD_L3,2021.2.3,Linux armv8l,59.93407252,,0,0.292356547,-0.299266037,1,0,0,0.7882,button_right,0.7882,1,0,6,6,1,1,1001,ADJUST,m,,,,,,,,,,,,,,,,,,,,,,,,,,,,,,,,,,,,,,,,,,,,,,,,,,,,,,,,,,,,,,,
,,,,,,,,,,,,,,,,,616dd3845b2624e9720392fd,31,2022-02-12_10h46.14.787,lexical_decision_task_DD_L3,2021.2.3,Linux armv8l,59.93407252,,0,-0.368103111,-0.229376191,1,0,0,1.0752,button_left,1.0752,1,0,7,7,12,1,1001,SPRINY,z,,,,,,,,,,,,,,,,,,,,,,,,,,,,,,,,,,,,,,,,,,,,,,,,,,,,,,,,,,,,,,,
,,,,,,,,,,,,,,,,,616dd3845b2624e9720392fd,31,2022-02-12_10h46.14.787,lexical_decision_task_DD_L3,2021.2.3,Linux armv8l,59.93407252,,0,0.294794546,-0.291139325,1,0,0,0.8069,button_right,0.8069,1,0,8,8,4,1,1001,SQUEAK,m,,,,,,,,,,,,,,,,,,,,,,,,,,,,,,,,,,,,,,,,,,,,,,,,,,,,,,,,,,,,,,,
,,,,,,,,,,,,,,,,,616dd3845b2624e9720392fd,31,2022-02-12_10h46.14.787,lexical_decision_task_DD_L3,2021.2.3,Linux armv8l,59.93407252,,0,-0.342747698,-0.278136614,1,0,0,0.7618,button_left,0.7618,1,0,9,9,11,1,1001,RASHET,z,,,,,,,,,,,,,,,,,,,,,,,,,,,,,,,,,,,,,,,,,,,,,,,,,,,,,,,,,,,,,,,
,,,,,,,,,,,,,,,,,616dd3845b2624e9720392fd,31,2022-02-12_10h46.14.787,lexical_decision_task_DD_L3,2021.2.3,Linux armv8l,59.93407252,,0,0.284311091,-0.29439004,1,0,0,0.9289,button_right,0.9289,1,0,10,10,2,1,1001,ALMOND,m,,,,,,,,,,,,,,,,,,,,,,,,,,,,,,,,,,,,,,,,,,,,,,,,,,,,,,,,,,,,,,,
,,,,,,,,,,,,,,,,,616dd3845b2624e9720392fd,31,2022-02-12_10h46.14.787,lexical_decision_task_DD_L3,2021.2.3,Linux armv8l,59.93407252,,0,-0.341041083,-0.281387329,1,0,0,0.7194,button_left,0.7194,1,0,11,11,10,1,1001,INLADE,z,,,,,,,,,,,,,,,,,,,,,,,,,,,,,,,,,,,,,,,,,,,,,,,,,,,,,,,,,,,,,,,
,,,,,,,,,,,,,,,,,616dd3845b2624e9720392fd,31,2022-02-12_10h46.14.787,lexical_decision_task_DD_L3,2021.2.3,Linux armv8l,59.93407252,,0,-0.31032203,-0.271635185,1,0,0,0.7389,button_left,0.7389,1,0,12,12,14,1,1001,THRALE,z,,,,,,,,,,,,,,,,,,,,,,,,,,,,,,,,,,,,,,,,,,,,,,,,,,,,,,,,,,,,,,,
,,,,,,,,,,,,,,,,,616dd3845b2624e9720392fd,31,2022-02-12_10h46.14.787,lexical_decision_task_DD_L3,2021.2.3,Linux armv8l,59.93407252,,0,0.277972323,-0.279220137,1,0,0,0.9593,button_right,0.9593,1,0,13,13,6,1,1001,ZOMBIE,m,,,,,,,,,,,,,,,,,,,,,,,,,,,,,,,,,,,,,,,,,,,,,,,,,,,,,,,,,,,,,,,
,,,,,,,,,,,,,,,,,616dd3845b2624e9720392fd,31,2022-02-12_10h46.14.787,lexical_decision_task_DD_L3,2021.2.3,Linux armv8l,59.93407252,,0,-0.320317907,-0.304142183,1,0,0,0.8044,button_left,0.8044,1,0,14,14,9,1,1001,FARINY,z,,,,,,,,,,,,,,,,,,,,,,,,,,,,,,,,,,,,,,,,,,,,,,,,,,,,,,,,,,,,,,,
,,,,,,,,,,,,,,,,,616dd3845b2624e9720392fd,31,2022-02-12_10h46.14.787,lexical_decision_task_DD_L3,2021.2.3,Linux armv8l,59.93407252,,0,0.245790352,-0.261883189,1,0,0,1.0012,button_right,1.0012,1,0,15,15,5,1,1001,OBTAIN,m,,,,,,,,,,,,,,,,,,,,,,,,,,,,,,,,,,,,,,,,,,,,,,,,,,,,,,,,,,,,,,,
,-0.057499339,-0.401662882,1,0,0,instr_done_button,,,,,,1,end_of_practice,"You have completed the practice trials. During the experimental trials, you will not receive feedback. 
Before you begin, please ensure that you are in a comfortable and quiet location and will not be disturbed for about 15 minutes, as we cannot use your data if you do not complete all the trials. 
 When you are ready to start the experimental trials, please press space or touch the button below.",,,616dd3845b2624e9720392fd,31,2022-02-12_10h46.14.787,lexical_decision_task_DD_L3,2021.2.3,Linux armv8l,59.93407252,,,,,,,,,,,,,,,,,,,,0,0,0,0,1,,,,,,,,,,,,,,,,,,,,,,,,,,,,,,,,,,,,,,,,,,,,,,,,,,,,,,,,,,
,,,,,,,,,,,,,,,,,616dd3845b2624e9720392fd,31,2022-02-12_10h46.14.787,lexical_decision_task_DD_L3,2021.2.3,Linux armv8l,59.93407252,,,,,,,,,,1.8976,1,,,,,,,,,,,,,,,0,-0.447338766,-1.007375476,1,0,0,1.8976,button_right_main,0.354282268,-0.305225706,1,0,0,,0,0,0,74,1,CEMENT,HB,old,m,./images/CEMENTHB.png,,,,,,,,,,,,,,,,,,,,,,,,,,,,,,,,,
,,,,,,,,,,,,,,,,,616dd3845b2624e9720392fd,31,2022-02-12_10h46.14.787,lexical_decision_task_DD_L3,2021.2.3,Linux armv8l,59.93407252,,,,,,,,,,1.1469,1,,,,,,,,,,,,,,,0,-0.365908891,-0.279220137,1,0,0,1.1469,button_left_main,-0.365908891,-0.279220137,1,0,0,,0,1,1,150,1,NOOLS,C,old,z,./images/NOOLS.png,,,,,,,,,,,,,,,,,,,,,,,,,,,,,,,,,
,,,,,,,,,,,,,,,,,616dd3845b2624e9720392fd,31,2022-02-12_10h46.14.787,lexical_decision_task_DD_L3,2021.2.3,Linux armv8l,59.93407252,,,,,,,,,,1.0274,1,,,,,,,,,,,,,,,0,0.303571534,-0.293848278,1,0,0,1.0274,button_right_main,0.303571534,-0.293848278,1,0,0,,0,2,2,24,1,SCREW,LB,old,m,./images/SCREWLB.png,,,,,,,,,,,,,,,,,,,,,,,,,,,,,,,,,
,,,,,,,,,,,,,,,,,616dd3845b2624e9720392fd,31,2022-02-12_10h46.14.787,lexical_decision_task_DD_L3,2021.2.3,Linux armv8l,59.93407252,,,,,,,,,,1.0713,1,,,,,,,,,,,,,,,0,0.269682949,-0.336107273,1,0,0,1.0713,button_right_main,0.269682949,-0.336107273,1,0,0,,0,3,3,75,1,GRAIN,LB,old,m,./images/GRAINLB.png,,,,,,,,,,,,,,,,,,,,,,,,,,,,,,,,,
,,,,,,,,,,,,,,,,,616dd3845b2624e9720392fd,31,2022-02-12_10h46.14.787,lexical_decision_task_DD_L3,2021.2.3,Linux armv8l,59.93407252,,,,,,,,,,0.7985,1,,,,,,,,,,,,,,,0,-0.440999911,-1.006291954,1,0,0,0.7985,button_right_main,0.364521953,-0.291681086,1,0,0,,0,4,4,49,1,DRUMS,C,old,m,./images/DRUMS.png,,,,,,,,,,,,,,,,,,,,,,,,,,,,,,,,,
,,,,,,,,,,,,,,,,,616dd3845b2624e9720392fd,31,2022-02-12_10h46.14.787,lexical_decision_task_DD_L3,2021.2.3,Linux armv8l,59.93407252,,,,,,,,,,1.6335,0,,,,,,,,,,,,,,,0,0.315030144,-0.268926232,1,0,0,1.6335,button_right_main,0.315030144,-0.268926232,1,0,0,,0,5,5,166,1,SHORY,HB,old,z,./images/SHORYHB.png,,,,,,,,,,,,,,,,,,,,,,,,,,,,,,,,,
,,,,,,,,,,,,,,,,,616dd3845b2624e9720392fd,31,2022-02-12_10h46.14.787,lexical_decision_task_DD_L3,2021.2.3,Linux armv8l,59.93407252,,,,,,,,,,1.2967,1,,,,,,,,,,,,,,,0,0.261149879,-0.283554373,1,0,0,1.2967,button_right_main,0.261149879,-0.283554373,1,0,0,,0,6,6,14,1,PICKLE,HB,old,m,./images/PICKLEHB.png,,,,,,,,,,,,,,,,,,,,,,,,,,,,,,,,,
,,,,,,,,,,,,,,,,,616dd3845b2624e9720392fd,31,2022-02-12_10h46.14.787,lexical_decision_task_DD_L3,2021.2.3,Linux armv8l,59.93407252,,,,,,,,,,1.2875,1,,,,,,,,,,,,,,,0,0.257980495,-0.270009902,1,0,0,1.2875,button_right_main,0.257980495,-0.270009902,1,0,0,,0,7,7,2,1,BEARD,HB,old,m,./images/BEARDHB.png,,,,,,,,,,,,,,,,,,,,,,,,,,,,,,,,,
,,,,,,,,,,,,,,,,,616dd3845b2624e9720392fd,31,2022-02-12_10h46.14.787,lexical_decision_task_DD_L3,2021.2.3,Linux armv8l,59.93407252,,,,,,,,,,0.7908,1,,,,,,,,,,,,,,,0,-0.305933573,-0.277053092,1,0,0,0.7908,button_left_main,-0.305933573,-0.277053092,1,0,0,,0,8,8,135,1,JOODY,C,old,z,./images/JOODY.png,,,,,,,,,,,,,,,,,,,,,,,,,,,,,,,,,
,,,,,,,,,,,,,,,,,616dd3845b2624e9720392fd,31,2022-02-12_10h46.14.787,lexical_decision_task_DD_L3,2021.2.3,Linux armv8l,59.93407252,,,,,,,,,,1.6704,1,,,,,,,,,,,,,,,0,-0.441731319,-1.002499479,1,0,0,1.6704,button_right_main,0.314054915,-0.300891469,1,0,0,,0,9,9,34,1,CANYON,C,old,m,./images/CANYON.png,,,,,,,,,,,,,,,,,,,,,,,,,,,,,,,,,
,,,,,,,,,,,,,,,,,616dd3845b2624e9720392fd,31,2022-02-12_10h46.14.787,lexical_decision_task_DD_L3,2021.2.3,Linux armv8l,59.93407252,,,,,,,,,,1.2881,1,,,,,,,,,,,,,,,0,0.301133387,-0.24183714,1,0,0,1.2881,button_right_main,0.301133387,-0.24183714,1,0,0,,0,10,10,83,1,JUNGLE,HB,old,m,./images/JUNGLEHB.png,,,,,,,,,,,,,,,,,,,,,,,,,,,,,,,,,
,,,,,,,,,,,,,,,,,616dd3845b2624e9720392fd,31,2022-02-12_10h46.14.787,lexical_decision_task_DD_L3,2021.2.3,Linux armv8l,59.93407252,,,,,,,,,,1.0657,1,,,,,,,,,,,,,,,0,-0.291793083,-0.241295379,1,0,0,1.0657,button_left_main,-0.291793083,-0.241295379,1,0,0,,0,11,11,127,1,NINDY,HB,old,z,./images/NINDYHB.png,,,,,,,,,,,,,,,,,,,,,,,,,,,,,,,,,
,,,,,,,,,,,,,,,,,616dd3845b2624e9720392fd,31,2022-02-12_10h46.14.787,lexical_decision_task_DD_L3,2021.2.3,Linux armv8l,59.93407252,,,,,,,,,,0.9741,1,,,,,,,,,,,,,,,0,0.318199528,-0.266759187,1,0,0,0.9741,button_right_main,0.318199528,-0.266759187,1,0,0,,0,12,12,78,1,LITTER,LB,old,m,./images/LITTERLB.png,,,,,,,,,,,,,,,,,,,,,,,,,,,,,,,,,
,,,,,,,,,,,,,,,,,616dd3845b2624e9720392fd,31,2022-02-12_10h46.14.787,lexical_decision_task_DD_L3,2021.2.3,Linux armv8l,59.93407252,,,,,,,,,,1.0577,1,,,,,,,,,,,,,,,0,-0.280334362,-0.290055803,1,0,0,1.0577,button_left_main,-0.280334362,-0.290055803,1,0,0,,0,13,13,133,1,POWDY,HB,old,z,./images/POWDYHB.png,,,,,,,,,,,,,,,,,,,,,,,,,,,,,,,,,
,,,,,,,,,,,,,,,,,616dd3845b2624e9720392fd,31,2022-02-12_10h46.14.787,lexical_decision_task_DD_L3,2021.2.3,Linux armv8l,59.93407252,,,,,,,,,,1.0429,0,,,,,,,,,,,,,,,0,0.31454253,-0.291139325,1,0,0,1.0429,button_right_main,0.31454253,-0.291139325,1,0,0,,0,14,14,128,1,GRIFT,LB,old,z,./images/GRIFTLB.png,,,,,,,,,,,,,,,,,,,,,,,,,,,,,,,,,
,,,,,,,,,,,,,,,,,616dd3845b2624e9720392fd,31,2022-02-12_10h46.14.787,lexical_decision_task_DD_L3,2021.2.3,Linux armv8l,59.93407252,,,,,,,,,,1.1122,1,,,,,,,,,,,,,,,0,0.328926827,-0.294931801,1,0,0,1.1122,button_right_main,0.328926827,-0.294931801,1,0,0,,0,15,15,35,1,PEACH,HB,old,m,./images/PEACHHB.png,,,,,,,,,,,,,,,,,,,,,,,,,,,,,,,,,
,,,,,,,,,,,,,,,,,616dd3845b2624e9720392fd,31,2022-02-12_10h46.14.787,lexical_decision_task_DD_L3,2021.2.3,Linux armv8l,59.93407252,,,,,,,,,,0.9221,1,,,,,,,,,,,,,,,0,-0.353474987,-0.270551663,1,0,0,0.9221,button_left_main,-0.353474987,-0.270551663,1,0,0,,0,16,16,161,1,BLAPS,LB,old,z,./images/BLAPSLB.png,,,,,,,,,,,,,,,,,,,,,,,,,,,,,,,,,
,,,,,,,,,,,,,,,,,616dd3845b2624e9720392fd,31,2022-02-12_10h46.14.787,lexical_decision_task_DD_L3,2021.2.3,Linux armv8l,59.93407252,,,,,,,,,,2.1557,1,,,,,,,,,,,,,,,0,-0.315198065,-0.265133756,1,0,0,2.1557,button_left_main,-0.315198065,-0.265133756,1,0,0,,0,17,17,151,1,TINKY,HB,old,z,./images/TINKYHB.png,,,,,,,,,,,,,,,,,,,,,,,,,,,,,,,,,
,,,,,,,,,,,,,,,,,616dd3845b2624e9720392fd,31,2022-02-12_10h46.14.787,lexical_decision_task_DD_L3,2021.2.3,Linux armv8l,59.93407252,,,,,,,,,,1.6515,1,,,,,,,,,,,,,,,0,-0.335433645,-0.248880331,1,0,0,1.6515,button_left_main,-0.335433645,-0.248880331,1,0,0,,0,18,18,121,1,CEERS,HB,old,z,./images/CEERSHB.png,,,,,,,,,,,,,,,,,,,,,,,,,,,,,,,,,
,,,,,,,,,,,,,,,,,616dd3845b2624e9720392fd,31,2022-02-12_10h46.14.787,lexical_decision_task_DD_L3,2021.2.3,Linux armv8l,59.93407252,,,,,,,,,,1.8977,1,,,,,,,,,,,,,,,0,-0.349086549,0.989633903,1,0,0,1.8977,button_left_main,-0.377123786,-0.26134128,1,0,0,,0,19,19,156,1,HIXES,C,old,z,./images/HIXES.png,,,,,,,,,,,,,,,,,,,,,,,,,,,,,,,,,
,,,,,,,,,,,,,,,,,616dd3845b2624e9720392fd,31,2022-02-12_10h46.14.787,lexical_decision_task_DD_L3,2021.2.3,Linux armv8l,59.93407252,,,,,,,,,,1.063,1,,,,,,,,,,,,,,,0,-0.338359259,-0.273260617,1,0,0,1.063,button_left_main,-0.338359259,-0.273260617,1,0,0,,0,20,20,104,1,GITTY,LB,old,z,./images/GITTYLB.png,,,,,,,,,,,,,,,,,,,,,,,,,,,,,,,,,
,,,,,,,,,,,,,,,,,616dd3845b2624e9720392fd,31,2022-02-12_10h46.14.787,lexical_decision_task_DD_L3,2021.2.3,Linux armv8l,59.93407252,,,,,,,,,,0.8686,1,,,,,,,,,,,,,,,0,-0.328850978,-0.25538176,1,0,0,0.8686,button_left_main,-0.328850978,-0.25538176,1,0,0,,0,21,21,162,1,LEICH,C,old,z,./images/LEICH.png,,,,,,,,,,,,,,,,,,,,,,,,,,,,,,,,,
,,,,,,,,,,,,,,,,,616dd3845b2624e9720392fd,31,2022-02-12_10h46.14.787,lexical_decision_task_DD_L3,2021.2.3,Linux armv8l,59.93407252,,,,,,,,,,1.8739,1,,,,,,,,,,,,,,,0,-0.292524486,-0.286805088,1,0,0,1.8739,button_left_main,-0.292524486,-0.286805088,1,0,0,,0,22,22,130,1,CRILL,HB,old,z,./images/CRILLHB.png,,,,,,,,,,,,,,,,,,,,,,,,,,,,,,,,,
,,,,,,,,,,,,,,,,,616dd3845b2624e9720392fd,31,2022-02-12_10h46.14.787,lexical_decision_task_DD_L3,2021.2.3,Linux armv8l,59.93407252,,,,,,,,,,1.1541,1,,,,,,,,,,,,,,,0,-0.318367504,-0.236419381,1,0,0,1.1541,button_left_main,-0.318367504,-0.236419381,1,0,0,,0,23,23,155,1,CANGY,LB,old,z,./images/CANGYLB.png,,,,,,,,,,,,,,,,,,,,,,,,,,,,,,,,,
,,,,,,,,,,,,,,,,,616dd3845b2624e9720392fd,31,2022-02-12_10h46.14.787,lexical_decision_task_DD_L3,2021.2.3,Linux armv8l,59.93407252,,,,,,,,,,0.9474,1,,,,,,,,,,,,,,,0,-0.308371609,-0.243462572,1,0,0,0.9474,button_left_main,-0.308371609,-0.243462572,1,0,0,,0,24,24,114,1,RIKES,C,old,z,./images/RIKES.png,,,,,,,,,,,,,,,,,,,,,,,,,,,,,,,,,
,,,,,,,,,,,,,,,,,616dd3845b2624e9720392fd,31,2022-02-12_10h46.14.787,lexical_decision_task_DD_L3,2021.2.3,Linux armv8l,59.93407252,,,,,,,,,,0.8506,1,,,,,,,,,,,,,,,0,0.294794546,-0.292222995,1,0,0,0.8506,button_right_main,0.294794546,-0.292222995,1,0,0,,0,25,25,81,1,POODLE,LB,old,m,./images/POODLELB.png,,,,,,,,,,,,,,,,,,,,,,,,,,,,,,,,,
,,,,,,,,,,,,,,,,,616dd3845b2624e9720392fd,31,2022-02-12_10h46.14.787,lexical_decision_task_DD_L3,2021.2.3,Linux armv8l,59.93407252,,,,,,,,,,1.0291,1,,,,,,,,,,,,,,,0,0.324782214,-0.312810657,1,0,0,1.0291,button_right_main,0.324782214,-0.312810657,1,0,0,,0,26,26,60,1,TWINS,LB,old,m,./images/TWINSLB.png,,,,,,,,,,,,,,,,,,,,,,,,,,,,,,,,,
,,,,,,,,,,,,,,,,,616dd3845b2624e9720392fd,31,2022-02-12_10h46.14.787,lexical_decision_task_DD_L3,2021.2.3,Linux armv8l,59.93407252,,,,,,,,,,0.8364,1,,,,,,,,,,,,,,,0,-0.341284891,-0.25429809,1,0,0,0.8364,button_left_main,-0.341284891,-0.25429809,1,0,0,,0,27,27,120,1,RINED,C,old,z,./images/RINED.png,,,,,,,,,,,,,,,,,,,,,,,,,,,,,,,,,
,,,,,,,,,,,,,,,,,616dd3845b2624e9720392fd,31,2022-02-12_10h46.14.787,lexical_decision_task_DD_L3,2021.2.3,Linux armv8l,59.93407252,,,,,,,,,,0.7175,0,,,,,,,,,,,,,,,0,-0.335433645,-0.253214568,1,0,0,0.7175,button_left_main,-0.335433645,-0.253214568,1,0,0,,0,28,28,27,1,ATTIC,LB,old,m,./images/ATTICLB.png,,,,,,,,,,,,,,,,,,,,,,,,,,,,,,,,,
,,,,,,,,,,,,,,,,,616dd3845b2624e9720392fd,31,2022-02-12_10h46.14.787,lexical_decision_task_DD_L3,2021.2.3,Linux armv8l,59.93407252,,,,,,,,,,0.8236,1,,,,,,,,,,,,,,,0,-0.320074118,-0.283554373,1,0,0,0.8236,button_left_main,-0.320074118,-0.283554373,1,0,0,,0,29,29,147,1,ZOLES,C,old,z,./images/ZOLES.png,,,,,,,,,,,,,,,,,,,,,,,,,,,,,,,,,
,,,,,,,,,,,,,,,,,616dd3845b2624e9720392fd,31,2022-02-12_10h46.14.787,lexical_decision_task_DD_L3,2021.2.3,Linux armv8l,59.93407252,,,,,,,,,,0.9577,1,,,,,,,,,,,,,,,0,-0.336896452,-0.271635185,1,0,0,0.9577,button_left_main,-0.336896452,-0.271635185,1,0,0,,0,30,30,111,1,HOSSE,C,old,z,./images/HOSSE.png,,,,,,,,,,,,,,,,,,,,,,,,,,,,,,,,,
,,,,,,,,,,,,,,,,,616dd3845b2624e9720392fd,31,2022-02-12_10h46.14.787,lexical_decision_task_DD_L3,2021.2.3,Linux armv8l,59.93407252,,,,,,,,,,0.9186,1,,,,,,,,,,,,,,,0,0.305765689,-0.285721566,1,0,0,0.9186,button_right_main,0.305765689,-0.285721566,1,0,0,,0,31,31,16,1,PENCE,C,old,m,./images/PENCE.png,,,,,,,,,,,,,,,,,,,,,,,,,,,,,,,,,
,,,,,,,,,,,,,,,,,616dd3845b2624e9720392fd,31,2022-02-12_10h46.14.787,lexical_decision_task_DD_L3,2021.2.3,Linux armv8l,59.93407252,,,,,,,,,,0.7903,1,,,,,,,,,,,,,,,0,0.284311091,-0.283554373,1,0,0,0.7903,button_right_main,0.284311091,-0.283554373,1,0,0,,0,32,32,7,1,PAINT,C,old,m,./images/PAINT.png,,,,,,,,,,,,,,,,,,,,,,,,,,,,,,,,,
,,,,,,,,,,,,,,,,,616dd3845b2624e9720392fd,31,2022-02-12_10h46.14.787,lexical_decision_task_DD_L3,2021.2.3,Linux armv8l,59.93407252,,,,,,,,,,1.1638,1,,,,,,,,,,,,,,,0,-0.326656767,-0.248880331,1,0,0,1.1638,button_left_main,-0.326656767,-0.248880331,1,0,0,,0,33,33,92,1,PAIMS,LB,old,z,./images/PAIMSLB.png,,,,,,,,,,,,,,,,,,,,,,,,,,,,,,,,,
,,,,,,,,,,,,,,,,,616dd3845b2624e9720392fd,31,2022-02-12_10h46.14.787,lexical_decision_task_DD_L3,2021.2.3,Linux armv8l,59.93407252,,,,,,,,,,1.1553,1,,,,,,,,,,,,,,,0,-0.315198065,-0.268926232,1,0,0,1.1553,button_left_main,-0.315198065,-0.268926232,1,0,0,,0,34,34,122,1,BLOOT,LB,old,z,./images/BLOOTLB.png,,,,,,,,,,,,,,,,,,,,,,,,,,,,,,,,,
,,,,,,,,,,,,,,,,,616dd3845b2624e9720392fd,31,2022-02-12_10h46.14.787,lexical_decision_task_DD_L3,2021.2.3,Linux armv8l,59.93407252,,,,,,,,,,0.8408,1,,,,,,,,,,,,,,,0,-0.311541048,-0.26134128,1,0,0,0.8408,button_left_main,-0.311541048,-0.26134128,1,0,0,,0,35,35,93,1,SMONE,C,old,z,./images/SMONE.png,,,,,,,,,,,,,,,,,,,,,,,,,,,,,,,,,
,,,,,,,,,,,,,,,,,616dd3845b2624e9720392fd,31,2022-02-12_10h46.14.787,lexical_decision_task_DD_L3,2021.2.3,Linux armv8l,59.93407252,,,,,,,,,,1.0735,1,,,,,,,,,,,,,,,0,-0.340797276,-0.246713138,1,0,0,1.0735,button_left_main,-0.340797276,-0.246713138,1,0,0,,0,36,36,146,1,MOOST,LB,old,z,./images/MOOSTLB.png,,,,,,,,,,,,,,,,,,,,,,,,,,,,,,,,,
,,,,,,,,,,,,,,,,,616dd3845b2624e9720392fd,31,2022-02-12_10h46.14.787,lexical_decision_task_DD_L3,2021.2.3,Linux armv8l,59.93407252,,,,,,,,,,0.9471,0,,,,,,,,,,,,,,,0,0.273827562,-0.293306517,1,0,0,0.9471,button_right_main,0.273827562,-0.293306517,1,0,0,,0,37,37,132,1,SCIFF,C,old,z,./images/SCIFF.png,,,,,,,,,,,,,,,,,,,,,,,,,,,,,,,,,
,,,,,,,,,,,,,,,,,616dd3845b2624e9720392fd,31,2022-02-12_10h46.14.787,lexical_decision_task_DD_L3,2021.2.3,Linux armv8l,59.93407252,,,,,,,,,,1.2202,1,,,,,,,,,,,,,,,0,-0.274970731,-0.277594853,1,0,0,1.2202,button_left_main,-0.274970731,-0.277594853,1,0,0,,0,38,38,163,1,GAMBA,HB,old,z,./images/GAMBAHB.png,,,,,,,,,,,,,,,,,,,,,,,,,,,,,,,,,
,,,,,,,,,,,,,,,,,616dd3845b2624e9720392fd,31,2022-02-12_10h46.14.787,lexical_decision_task_DD_L3,2021.2.3,Linux armv8l,59.93407252,,,,,,,,,,0.8578,1,,,,,,,,,,,,,,,0,0.266757335,-0.268384471,1,0,0,0.8578,button_right_main,0.266757335,-0.268384471,1,0,0,,0,39,39,48,1,SPORT,LB,old,m,./images/SPORTLB.png,,,,,,,,,,,,,,,,,,,,,,,,,,,,,,,,,
,,,,,,,,,,,,,,,,,616dd3845b2624e9720392fd,31,2022-02-12_10h46.14.787,lexical_decision_task_DD_L3,2021.2.3,Linux armv8l,59.93407252,,,,,,,,,,0.8302,1,,,,,,,,,,,,,,,0,-0.311053415,-0.242920663,1,0,0,0.8302,button_left_main,-0.311053415,-0.242920663,1,0,0,,0,40,40,143,1,MONGS,LB,old,z,./images/MONGSLB.png,,,,,,,,,,,,,,,,,,,,,,,,,,,,,,,,,
,,,,,,,,,,,,,,,,,616dd3845b2624e9720392fd,31,2022-02-12_10h46.14.787,lexical_decision_task_DD_L3,2021.2.3,Linux armv8l,59.93407252,,,,,,,,,,1.038,1,,,,,,,,,,,,,,,0,0.348187197,-0.337732704,1,0,0,1.038,button_right_main,-0.023367058,-0.401662882,1,0,0,,0,41,41,4,1,MUSCLE,C,old,m,./images/MUSCLE.png,break_done_button,,,,,,,,,,,,,,,,,,,,,,,,,,,,,,,,
,,,,,,,,,,,,,,,,,616dd3845b2624e9720392fd,31,2022-02-12_10h46.14.787,lexical_decision_task_DD_L3,2021.2.3,Linux armv8l,59.93407252,,,,,,,,,,1.4749,0,,,,,,,,,,,,,,,0,0.345992968,-0.299807947,1,0,0,1.4749,button_right_main,0.345992968,-0.299807947,1,0,0,,0,42,42,141,1,PLEET,C,old,z,./images/PLEET.png,,,,,,,,,,,,,,,,,,,,,,,,,,,,,,,,,
,,,,,,,,,,,,,,,,,616dd3845b2624e9720392fd,31,2022-02-12_10h46.14.787,lexical_decision_task_DD_L3,2021.2.3,Linux armv8l,59.93407252,,,,,,,,,,1.5866,1,,,,,,,,,,,,,,,0,0.306497074,-0.298182515,1,0,0,1.5866,button_right_main,0.306497074,-0.298182515,1,0,0,,0,43,43,36,1,THROAT,LB,old,m,./images/THROATLB.png,,,,,,,,,,,,,,,,,,,,,,,,,,,,,,,,,
,,,,,,,,,,,,,,,,,616dd3845b2624e9720392fd,31,2022-02-12_10h46.14.787,lexical_decision_task_DD_L3,2021.2.3,Linux armv8l,59.93407252,,,,,,,,,,1.3633,1,,,,,,,,,,,,,,,0,0.308691377,-0.311185374,1,0,0,1.3633,button_right_main,0.308691377,-0.311185374,1,0,0,,0,44,44,23,1,WALRUS,HB,old,m,./images/WALRUSHB.png,,,,,,,,,,,,,,,,,,,,,,,,,,,,,,,,,
,,,,,,,,,,,,,,,,,616dd3845b2624e9720392fd,31,2022-02-12_10h46.14.787,lexical_decision_task_DD_L3,2021.2.3,Linux armv8l,59.93407252,,,,,,,,,,1.0057,1,,,,,,,,,,,,,,,0,0.320149986,-0.322020892,1,0,0,1.0057,button_right_main,0.320149986,-0.322020892,1,0,0,,0,45,45,79,1,CRUST,C,old,m,./images/CRUST.png,,,,,,,,,,,,,,,,,,,,,,,,,,,,,,,,,
,,,,,,,,,,,,,,,,,616dd3845b2624e9720392fd,31,2022-02-12_10h46.14.787,lexical_decision_task_DD_L3,2021.2.3,Linux armv8l,59.93407252,,,,,,,,,,0.8125,1,,,,,,,,,,,,,,,0,-0.348111347,-0.273260617,1,0,0,0.8125,button_left_main,-0.348111347,-0.273260617,1,0,0,,0,46,46,126,1,GUELS,C,old,z,./images/GUELS.png,,,,,,,,,,,,,,,,,,,,,,,,,,,,,,,,,
,,,,,,,,,,,,,,,,,616dd3845b2624e9720392fd,31,2022-02-12_10h46.14.787,lexical_decision_task_DD_L3,2021.2.3,Linux armv8l,59.93407252,,,,,,,,,,1.0034,1,,,,,,,,,,,,,,,0,0.317955758,-0.32093737,1,0,0,1.0034,button_right_main,0.317955758,-0.32093737,1,0,0,,0,47,47,71,1,PIMPLE,HB,old,m,./images/PIMPLEHB.png,,,,,,,,,,,,,,,,,,,,,,,,,,,,,,,,,
,,,,,,,,,,,,,,,,,616dd3845b2624e9720392fd,31,2022-02-12_10h46.14.787,lexical_decision_task_DD_L3,2021.2.3,Linux armv8l,59.93407252,,,,,,,,,,1.0253,1,,,,,,,,,,,,,,,0,0.322100371,-0.32093737,1,0,0,1.0253,button_right_main,0.322100371,-0.32093737,1,0,0,,0,48,48,69,1,COOKER,LB,old,m,./images/COOKERLB.png,,,,,,,,,,,,,,,,,,,,,,,,,,,,,,,,,
,,,,,,,,,,,,,,,,,616dd3845b2624e9720392fd,31,2022-02-12_10h46.14.787,lexical_decision_task_DD_L3,2021.2.3,Linux armv8l,59.93407252,,,,,,,,,,1.0396,0,,,,,,,,,,,,,,,0,-0.373954356,-0.299807947,1,0,0,1.0396,button_left_main,-0.373954356,-0.299807947,1,0,0,,0,49,49,17,1,SKIING,HB,old,m,./images/SKIINGHB.png,,,,,,,,,,,,,,,,,,,,,,,,,,,,,,,,,
,,,,,,,,,,,,,,,,,616dd3845b2624e9720392fd,31,2022-02-12_10h46.14.787,lexical_decision_task_DD_L3,2021.2.3,Linux armv8l,59.93407252,,,,,,,,,,1.0385,1,,,,,,,,,,,,,,,0,0.322100371,-0.306850989,1,0,0,1.0385,button_right_main,0.322100371,-0.306850989,1,0,0,,0,50,50,20,1,CRADLE,HB,old,m,./images/CRADLEHB.png,,,,,,,,,,,,,,,,,,,,,,,,,,,,,,,,,
,,,,,,,,,,,,,,,,,616dd3845b2624e9720392fd,31,2022-02-12_10h46.14.787,lexical_decision_task_DD_L3,2021.2.3,Linux armv8l,59.93407252,,,,,,,,,,0.8396,1,,,,,,,,,,,,,,,0,0.292844161,-0.319312086,1,0,0,0.8396,button_right_main,0.292844161,-0.319312086,1,0,0,,0,51,51,10,1,BELLY,C,old,m,./images/BELLY.png,,,,,,,,,,,,,,,,,,,,,,,,,,,,,,,,,
,,,,,,,,,,,,,,,,,616dd3845b2624e9720392fd,31,2022-02-12_10h46.14.787,lexical_decision_task_DD_L3,2021.2.3,Linux armv8l,59.93407252,,,,,,,,,,1.1273,1,,,,,,,,,,,,,,,0,0.289918622,-0.320395609,1,0,0,1.1273,button_right_main,0.289918622,-0.320395609,1,0,0,,0,52,52,68,1,TORCH,HB,old,m,./images/TORCHHB.png,,,,,,,,,,,,,,,,,,,,,,,,,,,,,,,,,
,,,,,,,,,,,,,,,,,616dd3845b2624e9720392fd,31,2022-02-12_10h46.14.787,lexical_decision_task_DD_L3,2021.2.3,Linux armv8l,59.93407252,,,,,,,,,,0.8629,1,,,,,,,,,,,,,,,0,0.330633441,-0.292222995,1,0,0,0.8629,button_right_main,0.330633441,-0.292222995,1,0,0,,0,53,53,13,1,MOTOR,C,old,m,./images/MOTOR.png,,,,,,,,,,,,,,,,,,,,,,,,,,,,,,,,,
,,,,,,,,,,,,,,,,,616dd3845b2624e9720392fd,31,2022-02-12_10h46.14.787,lexical_decision_task_DD_L3,2021.2.3,Linux armv8l,59.93407252,,,,,,,,,,0.7628,1,,,,,,,,,,,,,,,0,0.307959844,-0.318228416,1,0,0,0.7628,button_right_main,0.307959844,-0.318228416,1,0,0,,0,54,54,25,1,WRIST,C,old,m,./images/WRIST.png,,,,,,,,,,,,,,,,,,,,,,,,,,,,,,,,,
,,,,,,,,,,,,,,,,,616dd3845b2624e9720392fd,31,2022-02-12_10h46.14.787,lexical_decision_task_DD_L3,2021.2.3,Linux armv8l,59.93407252,,,,,,,,,,0.9639,1,,,,,,,,,,,,,,,0,0.303571534,-0.306309228,1,0,0,0.9639,button_right_main,0.303571534,-0.306309228,1,0,0,,0,55,55,15,1,GREASE,LB,old,m,./images/GREASELB.png,,,,,,,,,,,,,,,,,,,,,,,,,,,,,,,,,
,,,,,,,,,,,,,,,,,616dd3845b2624e9720392fd,31,2022-02-12_10h46.14.787,lexical_decision_task_DD_L3,2021.2.3,Linux armv8l,59.93407252,,,,,,,,,,1.1291,1,,,,,,,,,,,,,,,0,-0.365177488,-0.286263327,1,0,0,1.1291,button_left_main,-0.365177488,-0.286263327,1,0,0,,0,56,56,87,1,TRING,C,old,z,./images/TRING.png,,,,,,,,,,,,,,,,,,,,,,,,,,,,,,,,,
,,,,,,,,,,,,,,,,,616dd3845b2624e9720392fd,31,2022-02-12_10h46.14.787,lexical_decision_task_DD_L3,2021.2.3,Linux armv8l,59.93407252,,,,,,,,,,0.9407,1,,,,,,,,,,,,,,,0,-0.333727031,-0.311185374,1,0,0,0.9407,button_left_main,-0.333727031,-0.311185374,1,0,0,,0,57,57,148,1,JOMS,HB,old,z,./images/JOMSHB.png,,,,,,,,,,,,,,,,,,,,,,,,,,,,,,,,,
,,,,,,,,,,,,,,,,,616dd3845b2624e9720392fd,31,2022-02-12_10h46.14.787,lexical_decision_task_DD_L3,2021.2.3,Linux armv8l,59.93407252,,,,,,,,,,0.7369,0,,,,,,,,,,,,,,,0,0.3313649,-0.316603133,1,0,0,0.7369,button_right_main,0.3313649,-0.316603133,1,0,0,,0,58,58,165,1,TROWN,C,old,z,./images/TROWN.png,,,,,,,,,,,,,,,,,,,,,,,,,,,,,,,,,
,,,,,,,,,,,,,,,,,616dd3845b2624e9720392fd,31,2022-02-12_10h46.14.787,lexical_decision_task_DD_L3,2021.2.3,Linux armv8l,59.93407252,,,,,,,,,,1.2659,1,,,,,,,,,,,,,,,0,0.277728405,-0.291139325,1,0,0,1.2659,button_right_main,0.277728405,-0.291139325,1,0,0,,0,59,59,6,1,SQUARE,LB,old,m,./images/SQUARELB.png,,,,,,,,,,,,,,,,,,,,,,,,,,,,,,,,,
,,,,,,,,,,,,,,,,,616dd3845b2624e9720392fd,31,2022-02-12_10h46.14.787,lexical_decision_task_DD_L3,2021.2.3,Linux armv8l,59.93407252,,,,,,,,,,0.8411,1,,,,,,,,,,,,,,,0,0.316736758,-0.333940228,1,0,0,0.8411,button_right_main,0.316736758,-0.333940228,1,0,0,,0,60,60,1,1,PLANK,C,old,m,./images/PLANK.png,,,,,,,,,,,,,,,,,,,,,,,,,,,,,,,,,
,,,,,,,,,,,,,,,,,616dd3845b2624e9720392fd,31,2022-02-12_10h46.14.787,lexical_decision_task_DD_L3,2021.2.3,Linux armv8l,59.93407252,,,,,,,,,,1.0102,0,,,,,,,,,,,,,,,0,-0.332995628,-0.323646323,1,0,0,1.0102,button_left_main,-0.332995628,-0.323646323,1,0,0,,0,61,61,50,1,MALLET,HB,old,m,./images/MALLETHB.png,,,,,,,,,,,,,,,,,,,,,,,,,,,,,,,,,
,,,,,,,,,,,,,,,,,616dd3845b2624e9720392fd,31,2022-02-12_10h46.14.787,lexical_decision_task_DD_L3,2021.2.3,Linux armv8l,59.93407252,,,,,,,,,,0.7613,0,,,,,,,,,,,,,,,0,-0.264731046,-0.304142183,1,0,0,0.7613,button_left_main,-0.264731046,-0.304142183,1,0,0,,0,62,62,80,1,WEASEL,HB,old,m,./images/WEASELHB.png,,,,,,,,,,,,,,,,,,,,,,,,,,,,,,,,,
,,,,,,,,,,,,,,,,,616dd3845b2624e9720392fd,31,2022-02-12_10h46.14.787,lexical_decision_task_DD_L3,2021.2.3,Linux armv8l,59.93407252,,,,,,,,,,0.7662,1,,,,,,,,,,,,,,,0,0.326488828,-0.339899748,1,0,0,0.7662,button_right_main,0.326488828,-0.339899748,1,0,0,,0,63,63,66,1,SWEAT,LB,old,m,./images/SWEATLB.png,,,,,,,,,,,,,,,,,,,,,,,,,,,,,,,,,
,,,,,,,,,,,,,,,,,616dd3845b2624e9720392fd,31,2022-02-12_10h46.14.787,lexical_decision_task_DD_L3,2021.2.3,Linux armv8l,59.93407252,,,,,,,,,,0.9643,0,,,,,,,,,,,,,,,0,0.316736758,-0.342066941,1,0,0,0.9643,button_right_main,0.316736758,-0.342066941,1,0,0,,0,64,64,84,1,HAXES,C,old,z,./images/HAXES.png,,,,,,,,,,,,,,,,,,,,,,,,,,,,,,,,,
,,,,,,,,,,,,,,,,,616dd3845b2624e9720392fd,31,2022-02-12_10h46.14.787,lexical_decision_task_DD_L3,2021.2.3,Linux armv8l,59.93407252,,,,,,,,,,0.7863,1,,,,,,,,,,,,,,,0,-0.320805522,-0.29439004,1,0,0,0.7863,button_left_main,-0.320805522,-0.29439004,1,0,0,,0,65,65,131,1,NACES,LB,old,z,./images/NACESLB.png,,,,,,,,,,,,,,,,,,,,,,,,,,,,,,,,,
,,,,,,,,,,,,,,,,,616dd3845b2624e9720392fd,31,2022-02-12_10h46.14.787,lexical_decision_task_DD_L3,2021.2.3,Linux armv8l,59.93407252,,,,,,,,,,1.2862,1,,,,,,,,,,,,,,,0,0.325513599,-0.317144894,1,0,0,1.2862,button_right_main,0.325513599,-0.317144894,1,0,0,,0,66,66,47,1,BERRY,HB,old,m,./images/BERRYHB.png,,,,,,,,,,,,,,,,,,,,,,,,,,,,,,,,,
,,,,,,,,,,,,,,,,,616dd3845b2624e9720392fd,31,2022-02-12_10h46.14.787,lexical_decision_task_DD_L3,2021.2.3,Linux armv8l,59.93407252,,,,,,,,,,0.9171,1,,,,,,,,,,,,,,,0,-0.37249155,-0.274344139,1,0,0,0.9171,button_left_main,-0.37249155,-0.274344139,1,0,0,,0,67,67,107,1,FASKS,LB,old,z,./images/FASKSLB.png,,,,,,,,,,,,,,,,,,,,,,,,,,,,,,,,,
,,,,,,,,,,,,,,,,,616dd3845b2624e9720392fd,31,2022-02-12_10h46.14.787,lexical_decision_task_DD_L3,2021.2.3,Linux armv8l,59.93407252,,,,,,,,,,0.9375,1,,,,,,,,,,,,,,,0,-0.326656767,-0.317144894,1,0,0,0.9375,button_left_main,-0.326656767,-0.317144894,1,0,0,,0,68,68,99,1,BACKY,C,old,z,./images/BACKY.png,,,,,,,,,,,,,,,,,,,,,,,,,,,,,,,,,
,,,,,,,,,,,,,,,,,616dd3845b2624e9720392fd,31,2022-02-12_10h46.14.787,lexical_decision_task_DD_L3,2021.2.3,Linux armv8l,59.93407252,,,,,,,,,,0.7651,1,,,,,,,,,,,,,,,0,-0.325681557,-0.298724276,1,0,0,0.7651,button_left_main,-0.325681557,-0.298724276,1,0,0,,0,69,69,86,1,AIFED,LB,old,z,./images/AIFEDLB.png,,,,,,,,,,,,,,,,,,,,,,,,,,,,,,,,,
,,,,,,,,,,,,,,,,,616dd3845b2624e9720392fd,31,2022-02-12_10h46.14.787,lexical_decision_task_DD_L3,2021.2.3,Linux armv8l,59.93407252,,,,,,,,,,0.9287,1,,,,,,,,,,,,,,,0,0.364765723,-0.327438799,1,0,0,0.9287,button_right_main,0.364765723,-0.327438799,1,0,0,,0,70,70,64,1,JELLY,C,old,m,./images/JELLY.png,,,,,,,,,,,,,,,,,,,,,,,,,,,,,,,,,
,,,,,,,,,,,,,,,,,616dd3845b2624e9720392fd,31,2022-02-12_10h46.14.787,lexical_decision_task_DD_L3,2021.2.3,Linux armv8l,59.93407252,,,,,,,,,,0.6669,1,,,,,,,,,,,,,,,0,-0.337627855,-0.272718707,1,0,0,0.6669,button_left_main,-0.337627855,-0.272718707,1,0,0,,0,71,71,95,1,HANTY,LB,old,z,./images/HANTYLB.png,,,,,,,,,,,,,,,,,,,,,,,,,,,,,,,,,
,,,,,,,,,,,,,,,,,616dd3845b2624e9720392fd,31,2022-02-12_10h46.14.787,lexical_decision_task_DD_L3,2021.2.3,Linux armv8l,59.93407252,,,,,,,,,,0.6063,1,,,,,,,,,,,,,,,0,-0.341528698,-0.292222995,1,0,0,0.6063,button_left_main,-0.341528698,-0.292222995,1,0,0,,0,72,72,140,1,DOVET,LB,old,z,./images/DOVETLB.png,,,,,,,,,,,,,,,,,,,,,,,,,,,,,,,,,
,,,,,,,,,,,,,,,,,616dd3845b2624e9720392fd,31,2022-02-12_10h46.14.787,lexical_decision_task_DD_L3,2021.2.3,Linux armv8l,59.93407252,,,,,,,,,,1.5904,1,,,,,,,,,,,,,,,0,0.299914388,-0.300349708,1,0,0,1.5904,button_right_main,0.299914388,-0.300349708,1,0,0,,0,73,73,5,1,PASTA,HB,old,m,./images/PASTAHB.png,,,,,,,,,,,,,,,,,,,,,,,,,,,,,,,,,
,,,,,,,,,,,,,,,,,616dd3845b2624e9720392fd,31,2022-02-12_10h46.14.787,lexical_decision_task_DD_L3,2021.2.3,Linux armv8l,59.93407252,,,,,,,,,,0.7289,1,,,,,,,,,,,,,,,0,-0.301545152,-0.286805088,1,0,0,0.7289,button_left_main,-0.301545152,-0.286805088,1,0,0,,0,74,74,160,1,VEETS,HB,old,z,./images/VEETSHB.png,,,,,,,,,,,,,,,,,,,,,,,,,,,,,,,,,
,,,,,,,,,,,,,,,,,616dd3845b2624e9720392fd,31,2022-02-12_10h46.14.787,lexical_decision_task_DD_L3,2021.2.3,Linux armv8l,59.93407252,,,,,,,,,,1.1594,1,,,,,,,,,,,,,,,0,-0.348355145,-0.257007043,1,0,0,1.1594,button_left_main,-0.348355145,-0.257007043,1,0,0,,0,75,75,159,1,CUDDY,C,old,z,./images/CUDDY.png,,,,,,,,,,,,,,,,,,,,,,,,,,,,,,,,,
,,,,,,,,,,,,,,,,,616dd3845b2624e9720392fd,31,2022-02-12_10h46.14.787,lexical_decision_task_DD_L3,2021.2.3,Linux armv8l,59.93407252,,,,,,,,,,0.8731,0,,,,,,,,,,,,,,,0,-0.317879871,-0.297640754,1,0,0,0.8731,button_left_main,-0.317879871,-0.297640754,1,0,0,,0,76,76,29,1,CRUMB,HB,old,m,./images/CRUMBHB.png,,,,,,,,,,,,,,,,,,,,,,,,,,,,,,,,,
,,,,,,,,,,,,,,,,,616dd3845b2624e9720392fd,31,2022-02-12_10h46.14.787,lexical_decision_task_DD_L3,2021.2.3,Linux armv8l,59.93407252,,,,,,,,,,0.8597,1,,,,,,,,,,,,,,,0,-0.337140259,-0.286263327,1,0,0,0.8597,button_left_main,-0.337140259,-0.286263327,1,0,0,,0,77,77,138,1,PLICE,C,old,z,./images/PLICE.png,,,,,,,,,,,,,,,,,,,,,,,,,,,,,,,,,
,,,,,,,,,,,,,,,,,616dd3845b2624e9720392fd,31,2022-02-12_10h46.14.787,lexical_decision_task_DD_L3,2021.2.3,Linux armv8l,59.93407252,,,,,,,,,,0.7168,0,,,,,,,,,,,,,,,0,-0.31666089,-0.30143323,1,0,0,0.7168,button_left_main,-0.31666089,-0.30143323,1,0,0,,0,78,78,11,1,BONNET,HB,old,m,./images/BONNETHB.png,,,,,,,,,,,,,,,,,,,,,,,,,,,,,,,,,
,,,,,,,,,,,,,,,,,616dd3845b2624e9720392fd,31,2022-02-12_10h46.14.787,lexical_decision_task_DD_L3,2021.2.3,Linux armv8l,59.93407252,,,,,,,,,,0.894,1,,,,,,,,,,,,,,,0,0.312592145,-0.316061372,1,0,0,0.894,button_right_main,0.312592145,-0.316061372,1,0,0,,0,79,79,30,1,STORM,LB,old,m,./images/STORMLB.png,,,,,,,,,,,,,,,,,,,,,,,,,,,,,,,,,
,,,,,,,,,,,,,,,,,616dd3845b2624e9720392fd,31,2022-02-12_10h46.14.787,lexical_decision_task_DD_L3,2021.2.3,Linux armv8l,59.93407252,,,,,,,,,,1.0863,0,,,,,,,,,,,,,,,0,0.314054915,-0.281387329,1,0,0,1.0863,button_right_main,0.314054915,-0.281387329,1,0,0,,0,80,80,110,1,CRUNK,LB,old,z,./images/CRUNKLB.png,,,,,,,,,,,,,,,,,,,,,,,,,,,,,,,,,
,,,,,,,,,,,,,,,,,616dd3845b2624e9720392fd,31,2022-02-12_10h46.14.787,lexical_decision_task_DD_L3,2021.2.3,Linux armv8l,59.93407252,,,,,,,,,,1.6096,1,,,,,,,,,,,,,,,0,0.326001214,-0.290055803,1,0,0,1.6096,button_right_main,0.326001214,-0.290055803,1,0,0,,0,81,81,22,1,MELON,C,old,m,./images/MELON.png,,,,,,,,,,,,,,,,,,,,,,,,,,,,,,,,,
,,,,,,,,,,,,,,,,,616dd3845b2624e9720392fd,31,2022-02-12_10h46.14.787,lexical_decision_task_DD_L3,2021.2.3,Linux armv8l,59.93407252,,,,,,,,,,0.8163,1,,,,,,,,,,,,,,,0,-0.341041083,-0.324729845,1,0,0,0.8163,button_left_main,-0.341041083,-0.324729845,1,0,0,,0,82,82,85,1,CHULK,HB,old,z,./images/CHULKHB.png,,,,,,,,,,,,,,,,,,,,,,,,,,,,,,,,,
,,,,,,,,,,,,,,,,,616dd3845b2624e9720392fd,31,2022-02-12_10h46.14.787,lexical_decision_task_DD_L3,2021.2.3,Linux armv8l,59.93407252,,,,,,,,,,0.8555,1,,,,,,,,,,,,,,,0,-0.317879871,-0.31443594,1,0,0,0.8555,button_left_main,-0.092363043,-0.401662882,1,0,0,,0,83,83,124,1,TUNCH,HB,old,z,./images/TUNCHHB.png,break_done_button,,,,,,,,,,,,,,,,,,,,,,,,,,,,,,,,
,,,,,,,,,,,,,,,,,616dd3845b2624e9720392fd,31,2022-02-12_10h46.14.787,lexical_decision_task_DD_L3,2021.2.3,Linux armv8l,59.93407252,,,,,,,,,,0.6891,1,,,,,,,,,,,,,,,0,-0.305933573,-0.327438799,1,0,0,0.6891,button_left_main,-0.305933573,-0.327438799,1,0,0,,0,84,84,119,1,PAFER,LB,old,z,./images/PAFERLB.png,,,,,,,,,,,,,,,,,,,,,,,,,,,,,,,,,
,,,,,,,,,,,,,,,,,616dd3845b2624e9720392fd,31,2022-02-12_10h46.14.787,lexical_decision_task_DD_L3,2021.2.3,Linux armv8l,59.93407252,,,,,,,,,,1.0196,1,,,,,,,,,,,,,,,0,0.341848355,-0.297640754,1,0,0,1.0196,button_right_main,0.341848355,-0.297640754,1,0,0,,0,85,85,3,1,FINGER,LB,old,m,./images/FINGERLB.png,,,,,,,,,,,,,,,,,,,,,,,,,,,,,,,,,
,,,,,,,,,,,,,,,,,616dd3845b2624e9720392fd,31,2022-02-12_10h46.14.787,lexical_decision_task_DD_L3,2021.2.3,Linux armv8l,59.93407252,,,,,,,,,,1.2506,1,,,,,,,,,,,,,,,0,0.298695388,-0.300891469,1,0,0,1.2506,button_right_main,0.298695388,-0.300891469,1,0,0,,0,86,86,58,1,BABOON,C,old,m,./images/BABOON.png,,,,,,,,,,,,,,,,,,,,,,,,,,,,,,,,,
,,,,,,,,,,,,,,,,,616dd3845b2624e9720392fd,31,2022-02-12_10h46.14.787,lexical_decision_task_DD_L3,2021.2.3,Linux armv8l,59.93407252,,,,,,,,,,1.2087,1,,,,,,,,,,,,,,,0,0.306009459,-0.320395609,1,0,0,1.2087,button_right_main,0.306009459,-0.320395609,1,0,0,,0,87,87,53,1,CARPET,HB,old,m,./images/CARPETHB.png,,,,,,,,,,,,,,,,,,,,,,,,,,,,,,,,,
,,,,,,,,,,,,,,,,,616dd3845b2624e9720392fd,31,2022-02-12_10h46.14.787,lexical_decision_task_DD_L3,2021.2.3,Linux armv8l,59.93407252,,,,,,,,,,0.7932,1,,,,,,,,,,,,,,,0,-0.348111347,-0.306850989,1,0,0,0.7932,button_left_main,-0.348111347,-0.306850989,1,0,0,,0,88,88,89,1,DRIEK,LB,old,z,./images/DRIEKLB.png,,,,,,,,,,,,,,,,,,,,,,,,,,,,,,,,,
,,,,,,,,,,,,,,,,,616dd3845b2624e9720392fd,31,2022-02-12_10h46.14.787,lexical_decision_task_DD_L3,2021.2.3,Linux armv8l,59.93407252,,,,,,,,,,0.6629,1,,,,,,,,,,,,,,,0,-0.343966716,-0.261883189,1,0,0,0.6629,button_left_main,-0.343966716,-0.261883189,1,0,0,,0,89,89,158,1,EGECT,LB,old,z,./images/EGECTLB.png,,,,,,,,,,,,,,,,,,,,,,,,,,,,,,,,,
,,,,,,,,,,,,,,,,,616dd3845b2624e9720392fd,31,2022-02-12_10h46.14.787,lexical_decision_task_DD_L3,2021.2.3,Linux armv8l,59.93407252,,,,,,,,,,1.0822,1,,,,,,,,,,,,,,,0,0.337216127,-0.288972281,1,0,0,1.0822,button_right_main,0.337216127,-0.288972281,1,0,0,,0,90,90,44,1,LIZARD,HB,old,m,./images/LIZARDHB.png,,,,,,,,,,,,,,,,,,,,,,,,,,,,,,,,,
,,,,,,,,,,,,,,,,,616dd3845b2624e9720392fd,31,2022-02-12_10h46.14.787,lexical_decision_task_DD_L3,2021.2.3,Linux armv8l,59.93407252,,,,,,,,,,0.7895,1,,,,,,,,,,,,,,,0,-0.319586485,-0.316603133,1,0,0,0.7895,button_left_main,-0.319586485,-0.316603133,1,0,0,,0,91,91,97,1,CHIDS,HB,old,z,./images/CHIDSHB.png,,,,,,,,,,,,,,,,,,,,,,,,,,,,,,,,,
,,,,,,,,,,,,,,,,,616dd3845b2624e9720392fd,31,2022-02-12_10h46.14.787,lexical_decision_task_DD_L3,2021.2.3,Linux armv8l,59.93407252,,,,,,,,,,0.7511,1,,,,,,,,,,,,,,,0,-0.324462557,-0.313352418,1,0,0,0.7511,button_left_main,-0.324462557,-0.313352418,1,0,0,,0,92,92,115,1,MAWNS,HB,old,z,./images/MAWNSHB.png,,,,,,,,,,,,,,,,,,,,,,,,,,,,,,,,,
,,,,,,,,,,,,,,,,,616dd3845b2624e9720392fd,31,2022-02-12_10h46.14.787,lexical_decision_task_DD_L3,2021.2.3,Linux armv8l,59.93407252,,,,,,,,,,0.6917,1,,,,,,,,,,,,,,,0,-0.339090662,-0.299266037,1,0,0,0.6917,button_left_main,-0.339090662,-0.299266037,1,0,0,,0,93,93,113,1,LINEW,LB,old,z,./images/LINEWLB.png,,,,,,,,,,,,,,,,,,,,,,,,,,,,,,,,,
,,,,,,,,,,,,,,,,,616dd3845b2624e9720392fd,31,2022-02-12_10h46.14.787,lexical_decision_task_DD_L3,2021.2.3,Linux armv8l,59.93407252,,,,,,,,,,0.9654,1,,,,,,,,,,,,,,,0,0.316492914,-0.284638044,1,0,0,0.9654,button_right_main,0.316492914,-0.284638044,1,0,0,,0,94,94,0,1,TOMATO,LB,old,m,./images/TOMATOLB.png,,,,,,,,,,,,,,,,,,,,,,,,,,,,,,,,,
,,,,,,,,,,,,,,,,,616dd3845b2624e9720392fd,31,2022-02-12_10h46.14.787,lexical_decision_task_DD_L3,2021.2.3,Linux armv8l,59.93407252,,,,,,,,,,0.7362,1,,,,,,,,,,,,,,,0,-0.342991505,-0.294931801,1,0,0,0.7362,button_left_main,-0.342991505,-0.294931801,1,0,0,,0,95,95,149,1,VEASE,LB,old,z,./images/VEASELB.png,,,,,,,,,,,,,,,,,,,,,,,,,,,,,,,,,
,,,,,,,,,,,,,,,,,616dd3845b2624e9720392fd,31,2022-02-12_10h46.14.787,lexical_decision_task_DD_L3,2021.2.3,Linux armv8l,59.93407252,,,,,,,,,,1.3111,1,,,,,,,,,,,,,,,0,0.33941043,-0.31497785,1,0,0,1.3111,button_right_main,0.33941043,-0.31497785,1,0,0,,0,96,96,19,1,DOUGH,C,old,m,./images/DOUGH.png,,,,,,,,,,,,,,,,,,,,,,,,,,,,,,,,,
,,,,,,,,,,,,,,,,,616dd3845b2624e9720392fd,31,2022-02-12_10h46.14.787,lexical_decision_task_DD_L3,2021.2.3,Linux armv8l,59.93407252,,,,,,,,,,0.7114,1,,,,,,,,,,,,,,,0,-0.353231189,-0.29439004,1,0,0,0.7114,button_left_main,-0.353231189,-0.29439004,1,0,0,,0,97,97,98,1,BAMPS,LB,old,z,./images/BAMPSLB.png,,,,,,,,,,,,,,,,,,,,,,,,,,,,,,,,,
,,,,,,,,,,,,,,,,,616dd3845b2624e9720392fd,31,2022-02-12_10h46.14.787,lexical_decision_task_DD_L3,2021.2.3,Linux armv8l,59.93407252,,,,,,,,,,1.2013,1,,,,,,,,,,,,,,,0,0.308691377,-0.316061372,1,0,0,1.2013,button_right_main,0.308691377,-0.316061372,1,0,0,,0,98,98,76,1,INFANT,C,old,m,./images/INFANT.png,,,,,,,,,,,,,,,,,,,,,,,,,,,,,,,,,
,,,,,,,,,,,,,,,,,616dd3845b2624e9720392fd,31,2022-02-12_10h46.14.787,lexical_decision_task_DD_L3,2021.2.3,Linux armv8l,59.93407252,,,,,,,,,,1.0535,1,,,,,,,,,,,,,,,0,0.302596231,-0.288430519,1,0,0,1.0535,button_right_main,0.302596231,-0.288430519,1,0,0,,0,99,99,54,1,TRIPOD,LB,old,m,./images/TRIPODLB.png,,,,,,,,,,,,,,,,,,,,,,,,,,,,,,,,,
,,,,,,,,,,,,,,,,,616dd3845b2624e9720392fd,31,2022-02-12_10h46.14.787,lexical_decision_task_DD_L3,2021.2.3,Linux armv8l,59.93407252,,,,,,,,,,0.7829,1,,,,,,,,,,,,,,,0,-0.355181601,-0.273260617,1,0,0,0.7829,button_left_main,-0.355181601,-0.273260617,1,0,0,,0,100,100,167,1,ZONET,LB,old,z,./images/ZONETLB.png,,,,,,,,,,,,,,,,,,,,,,,,,,,,,,,,,
,,,,,,,,,,,,,,,,,616dd3845b2624e9720392fd,31,2022-02-12_10h46.14.787,lexical_decision_task_DD_L3,2021.2.3,Linux armv8l,59.93407252,,,,,,,,,,0.9341,1,,,,,,,,,,,,,,,0,0.318931061,-0.260257758,1,0,0,0.9341,button_right_main,0.318931061,-0.260257758,1,0,0,,0,101,101,55,1,MUFFIN,C,old,m,./images/MUFFIN.png,,,,,,,,,,,,,,,,,,,,,,,,,,,,,,,,,
,,,,,,,,,,,,,,,,,616dd3845b2624e9720392fd,31,2022-02-12_10h46.14.787,lexical_decision_task_DD_L3,2021.2.3,Linux armv8l,59.93407252,,,,,,,,,,0.7191,1,,,,,,,,,,,,,,,0,-0.333483224,-0.28192909,1,0,0,0.7191,button_left_main,-0.333483224,-0.28192909,1,0,0,,0,102,102,108,1,GRUET,C,old,z,./images/GRUET.png,,,,,,,,,,,,,,,,,,,,,,,,,,,,,,,,,
,,,,,,,,,,,,,,,,,616dd3845b2624e9720392fd,31,2022-02-12_10h46.14.787,lexical_decision_task_DD_L3,2021.2.3,Linux armv8l,59.93407252,,,,,,,,,,0.9835,1,,,,,,,,,,,,,,,0,0.327220213,-0.303058513,1,0,0,0.9835,button_right_main,0.327220213,-0.303058513,1,0,0,,0,103,103,70,1,URINE,C,old,m,./images/URINE.png,,,,,,,,,,,,,,,,,,,,,,,,,,,,,,,,,
,,,,,,,,,,,,,,,,,616dd3845b2624e9720392fd,31,2022-02-12_10h46.14.787,lexical_decision_task_DD_L3,2021.2.3,Linux armv8l,59.93407252,,,,,,,,,,0.7245,1,,,,,,,,,,,,,,,0,-0.290574046,-0.356153173,1,0,0,0.7245,button_left_main,-0.290574046,-0.356153173,1,0,0,,0,104,104,91,1,SHENS,HB,old,z,./images/SHENSHB.png,,,,,,,,,,,,,,,,,,,,,,,,,,,,,,,,,
,,,,,,,,,,,,,,,,,616dd3845b2624e9720392fd,31,2022-02-12_10h46.14.787,lexical_decision_task_DD_L3,2021.2.3,Linux armv8l,59.93407252,,,,,,,,,,0.6283,1,,,,,,,,,,,,,,,0,-0.305445995,-0.299807947,1,0,0,0.6283,button_left_main,-0.305445995,-0.299807947,1,0,0,,0,105,105,96,1,KEAMS,C,old,z,./images/KEAMS.png,,,,,,,,,,,,,,,,,,,,,,,,,,,,,,,,,
,,,,,,,,,,,,,,,,,616dd3845b2624e9720392fd,31,2022-02-12_10h46.14.787,lexical_decision_task_DD_L3,2021.2.3,Linux armv8l,59.93407252,,,,,,,,,,1.1156,1,,,,,,,,,,,,,,,0,0.303083846,-0.297640754,1,0,0,1.1156,button_right_main,0.303083846,-0.297640754,1,0,0,,0,106,106,28,1,FALCON,C,old,m,./images/FALCON.png,,,,,,,,,,,,,,,,,,,,,,,,,,,,,,,,,
,,,,,,,,,,,,,,,,,616dd3845b2624e9720392fd,31,2022-02-12_10h46.14.787,lexical_decision_task_DD_L3,2021.2.3,Linux armv8l,59.93407252,,,,,,,,,,0.7529,1,,,,,,,,,,,,,,,0,-0.31568568,-0.300891469,1,0,0,0.7529,button_left_main,-0.31568568,-0.300891469,1,0,0,,0,107,107,123,1,SEDGE,C,old,z,./images/SEDGE.png,,,,,,,,,,,,,,,,,,,,,,,,,,,,,,,,,
,,,,,,,,,,,,,,,,,616dd3845b2624e9720392fd,31,2022-02-12_10h46.14.787,lexical_decision_task_DD_L3,2021.2.3,Linux armv8l,59.93407252,,,,,,,,,,0.6506,1,,,,,,,,,,,,,,,0,-0.312028644,-0.293306517,1,0,0,0.6506,button_left_main,-0.312028644,-0.293306517,1,0,0,,0,108,108,103,1,FLORT,HB,old,z,./images/FLORTHB.png,,,,,,,,,,,,,,,,,,,,,,,,,,,,,,,,,
,,,,,,,,,,,,,,,,,616dd3845b2624e9720392fd,31,2022-02-12_10h46.14.787,lexical_decision_task_DD_L3,2021.2.3,Linux armv8l,59.93407252,,,,,,,,,,0.7418,1,,,,,,,,,,,,,,,0,-0.295937714,-0.329605843,1,0,0,0.7418,button_left_main,-0.295937714,-0.329605843,1,0,0,,0,109,109,116,1,BALGY,LB,old,z,./images/BALGYLB.png,,,,,,,,,,,,,,,,,,,,,,,,,,,,,,,,,
,,,,,,,,,,,,,,,,,616dd3845b2624e9720392fd,31,2022-02-12_10h46.14.787,lexical_decision_task_DD_L3,2021.2.3,Linux armv8l,59.93407252,,,,,,,,,,0.7948,1,,,,,,,,,,,,,,,0,-0.312028644,-0.275969422,1,0,0,0.7948,button_left_main,-0.312028644,-0.275969422,1,0,0,,0,110,110,134,1,TROSS,LB,old,z,./images/TROSSLB.png,,,,,,,,,,,,,,,,,,,,,,,,,,,,,,,,,
,,,,,,,,,,,,,,,,,616dd3845b2624e9720392fd,31,2022-02-12_10h46.14.787,lexical_decision_task_DD_L3,2021.2.3,Linux armv8l,59.93407252,,,,,,,,,,1.3414,1,,,,,,,,,,,,,,,0,0.331121056,-0.272718707,1,0,0,1.3414,button_right_main,0.331121056,-0.272718707,1,0,0,,0,111,111,37,1,BIRTH,C,old,m,./images/BIRTH.png,,,,,,,,,,,,,,,,,,,,,,,,,,,,,,,,,
,,,,,,,,,,,,,,,,,616dd3845b2624e9720392fd,31,2022-02-12_10h46.14.787,lexical_decision_task_DD_L3,2021.2.3,Linux armv8l,59.93407252,,,,,,,,,,0.6814,0,,,,,,,,,,,,,,,0,-0.31666089,-0.31443594,1,0,0,0.6814,button_left_main,-0.31666089,-0.31443594,1,0,0,,0,112,112,8,1,TULIP,HB,old,m,./images/TULIPHB.png,,,,,,,,,,,,,,,,,,,,,,,,,,,,,,,,,
,,,,,,,,,,,,,,,,,616dd3845b2624e9720392fd,31,2022-02-12_10h46.14.787,lexical_decision_task_DD_L3,2021.2.3,Linux armv8l,59.93407252,,,,,,,,,,0.5624,1,,,,,,,,,,,,,,,0,-0.317148486,-0.287346849,1,0,0,0.5624,button_left_main,-0.317148486,-0.287346849,1,0,0,,0,113,113,154,1,THINT,HB,old,z,./images/THINTHB.png,,,,,,,,,,,,,,,,,,,,,,,,,,,,,,,,,
,,,,,,,,,,,,,,,,,616dd3845b2624e9720392fd,31,2022-02-12_10h46.14.787,lexical_decision_task_DD_L3,2021.2.3,Linux armv8l,59.93407252,,,,,,,,,,0.6405,0,,,,,,,,,,,,,,,0,-0.329094785,-0.310101704,1,0,0,0.6405,button_left_main,-0.329094785,-0.310101704,1,0,0,,0,114,114,9,1,RHINO,LB,old,m,./images/RHINOLB.png,,,,,,,,,,,,,,,,,,,,,,,,,,,,,,,,,
,,,,,,,,,,,,,,,,,616dd3845b2624e9720392fd,31,2022-02-12_10h46.14.787,lexical_decision_task_DD_L3,2021.2.3,Linux armv8l,59.93407252,,,,,,,,,,0.8773,1,,,,,,,,,,,,,,,0,0.313811219,-0.283554373,1,0,0,0.8773,button_right_main,0.313811219,-0.283554373,1,0,0,,0,115,115,51,1,ONION,LB,old,m,./images/ONIONLB.png,,,,,,,,,,,,,,,,,,,,,,,,,,,,,,,,,
,,,,,,,,,,,,,,,,,616dd3845b2624e9720392fd,31,2022-02-12_10h46.14.787,lexical_decision_task_DD_L3,2021.2.3,Linux armv8l,59.93407252,,,,,,,,,,0.7057,1,,,,,,,,,,,,,,,0,-0.332264206,-0.289514042,1,0,0,0.7057,button_left_main,-0.332264206,-0.289514042,1,0,0,,0,116,116,106,1,CLUMS,HB,old,z,./images/CLUMSHB.png,,,,,,,,,,,,,,,,,,,,,,,,,,,,,,,,,
,,,,,,,,,,,,,,,,,616dd3845b2624e9720392fd,31,2022-02-12_10h46.14.787,lexical_decision_task_DD_L3,2021.2.3,Linux armv8l,59.93407252,,,,,,,,,,0.6458,1,,,,,,,,,,,,,,,0,-0.30812782,-0.345317655,1,0,0,0.6458,button_left_main,-0.30812782,-0.345317655,1,0,0,,0,117,117,109,1,BURGE,HB,old,z,./images/BURGEHB.png,,,,,,,,,,,,,,,,,,,,,,,,,,,,,,,,,
,,,,,,,,,,,,,,,,,616dd3845b2624e9720392fd,31,2022-02-12_10h46.14.787,lexical_decision_task_DD_L3,2021.2.3,Linux armv8l,59.93407252,,,,,,,,,,0.6875,1,,,,,,,,,,,,,,,0,-0.345429522,-0.291681086,1,0,0,0.6875,button_left_main,-0.345429522,-0.291681086,1,0,0,,0,118,118,118,1,BAVEL,HB,old,z,./images/BAVELHB.png,,,,,,,,,,,,,,,,,,,,,,,,,,,,,,,,,
,,,,,,,,,,,,,,,,,616dd3845b2624e9720392fd,31,2022-02-12_10h46.14.787,lexical_decision_task_DD_L3,2021.2.3,Linux armv8l,59.93407252,,,,,,,,,,0.8871,1,,,,,,,,,,,,,,,0,0.301621002,-0.318228416,1,0,0,0.8871,button_right_main,0.301621002,-0.318228416,1,0,0,,0,119,119,21,1,KIDNEY,LB,old,m,./images/KIDNEYLB.png,,,,,,,,,,,,,,,,,,,,,,,,,,,,,,,,,
,,,,,,,,,,,,,,,,,616dd3845b2624e9720392fd,31,2022-02-12_10h46.14.787,lexical_decision_task_DD_L3,2021.2.3,Linux armv8l,59.93407252,,,,,,,,,,0.6425,0,,,,,,,,,,,,,,,0,-0.306421206,-0.300891469,1,0,0,0.6425,button_left_main,-0.306421206,-0.300891469,1,0,0,,0,120,120,65,1,FARMER,HB,old,m,./images/FARMERHB.png,,,,,,,,,,,,,,,,,,,,,,,,,,,,,,,,,
,,,,,,,,,,,,,,,,,616dd3845b2624e9720392fd,31,2022-02-12_10h46.14.787,lexical_decision_task_DD_L3,2021.2.3,Linux armv8l,59.93407252,,,,,,,,,,0.9124,1,,,,,,,,,,,,,,,0,0.327464131,-0.285179805,1,0,0,0.9124,button_right_main,0.327464131,-0.285179805,1,0,0,,0,121,121,63,1,MIRROR,LB,old,m,./images/MIRRORLB.png,,,,,,,,,,,,,,,,,,,,,,,,,,,,,,,,,
,,,,,,,,,,,,,,,,,616dd3845b2624e9720392fd,31,2022-02-12_10h46.14.787,lexical_decision_task_DD_L3,2021.2.3,Linux armv8l,59.93407252,,,,,,,,,,0.6356,1,,,,,,,,,,,,,,,0,-0.34250389,-0.307392898,1,0,0,0.6356,button_left_main,-0.34250389,-0.307392898,1,0,0,,0,122,122,136,1,WERVE,HB,old,z,./images/WERVEHB.png,,,,,,,,,,,,,,,,,,,,,,,,,,,,,,,,,
,,,,,,,,,,,,,,,,,616dd3845b2624e9720392fd,31,2022-02-12_10h46.14.787,lexical_decision_task_DD_L3,2021.2.3,Linux armv8l,59.93407252,,,,,,,,,,1.3016,0,,,,,,,,,,,,,,,0,0.334778128,-0.290055803,1,0,0,1.3016,button_right_main,0.334778128,-0.290055803,1,0,0,,0,123,123,142,1,PLASK,HB,old,z,./images/PLASKHB.png,,,,,,,,,,,,,,,,,,,,,,,,,,,,,,,,,
,,,,,,,,,,,,,,,,,616dd3845b2624e9720392fd,31,2022-02-12_10h46.14.787,lexical_decision_task_DD_L3,2021.2.3,Linux armv8l,59.93407252,,,,,,,,,,0.9841,1,,,,,,,,,,,,,,,0,0.282848247,-0.322020892,1,0,0,0.9841,button_right_main,0.282848247,-0.322020892,1,0,0,,0,124,124,82,1,SUNSET,C,old,m,./images/SUNSET.png,,,,,,,,,,,,,,,,,,,,,,,,,,,,,,,,,
,,,,,,,,,,,,,,,,,616dd3845b2624e9720392fd,31,2022-02-12_10h46.14.787,lexical_decision_task_DD_L3,2021.2.3,Linux armv8l,59.93407252,,,,,,,,,,0.9586,1,,,,,,,,,,,,,,,0,0.305278148,-0.320395609,1,0,0,0.9586,button_right_main,-0.072371251,-0.359945649,1,0,0,,0,125,125,18,1,JAGUAR,LB,old,m,./images/JAGUARLB.png,break_done_button,,,,,,,,,,,,,,,,,,,,,,,,,,,,,,,,
,,,,,,,,,,,,,,,,,616dd3845b2624e9720392fd,31,2022-02-12_10h46.14.787,lexical_decision_task_DD_L3,2021.2.3,Linux armv8l,59.93407252,,,,,,,,,,0.857,1,,,,,,,,,,,,,,,0,-0.299350942,-0.287346849,1,0,0,0.857,button_left_main,-0.299350942,-0.287346849,1,0,0,,0,126,126,144,1,NAIRY,C,old,z,./images/NAIRY.png,,,,,,,,,,,,,,,,,,,,,,,,,,,,,,,,,
,,,,,,,,,,,,,,,,,616dd3845b2624e9720392fd,31,2022-02-12_10h46.14.787,lexical_decision_task_DD_L3,2021.2.3,Linux armv8l,59.93407252,,,,,,,,,,0.741,1,,,,,,,,,,,,,,,0,-0.317148486,-0.309559942,1,0,0,0.741,button_left_main,-0.317148486,-0.309559942,1,0,0,,0,127,127,137,1,JOOST,LB,old,z,./images/JOOSTLB.png,,,,,,,,,,,,,,,,,,,,,,,,,,,,,,,,,
,,,,,,,,,,,,,,,,,616dd3845b2624e9720392fd,31,2022-02-12_10h46.14.787,lexical_decision_task_DD_L3,2021.2.3,Linux armv8l,59.93407252,,,,,,,,,,0.6265,1,,,,,,,,,,,,,,,0,-0.298863346,-0.359945649,1,0,0,0.6265,button_left_main,-0.298863346,-0.359945649,1,0,0,,0,128,128,101,1,GLEET,LB,old,z,./images/GLEETLB.png,,,,,,,,,,,,,,,,,,,,,,,,,,,,,,,,,
,,,,,,,,,,,,,,,,,616dd3845b2624e9720392fd,31,2022-02-12_10h46.14.787,lexical_decision_task_DD_L3,2021.2.3,Linux armv8l,59.93407252,,,,,,,,,,0.9053,1,,,,,,,,,,,,,,,0,0.323563215,-0.307934659,1,0,0,0.9053,button_right_main,0.323563215,-0.307934659,1,0,0,,0,129,129,73,1,SNACK,C,old,m,./images/SNACK.png,,,,,,,,,,,,,,,,,,,,,,,,,,,,,,,,,
,,,,,,,,,,,,,,,,,616dd3845b2624e9720392fd,31,2022-02-12_10h46.14.787,lexical_decision_task_DD_L3,2021.2.3,Linux armv8l,59.93407252,,,,,,,,,,0.7416,1,,,,,,,,,,,,,,,0,-0.313979066,-0.317686655,1,0,0,0.7416,button_left_main,-0.313979066,-0.317686655,1,0,0,,0,130,130,125,1,MOOKY,LB,old,z,./images/MOOKYLB.png,,,,,,,,,,,,,,,,,,,,,,,,,,,,,,,,,
,,,,,,,,,,,,,,,,,616dd3845b2624e9720392fd,31,2022-02-12_10h46.14.787,lexical_decision_task_DD_L3,2021.2.3,Linux armv8l,59.93407252,,,,,,,,,,0.673,0,,,,,,,,,,,,,,,0,-0.323487347,-0.304683945,1,0,0,0.673,button_left_main,-0.323487347,-0.304683945,1,0,0,,0,131,131,62,1,PURSE,HB,old,m,./images/PURSEHB.png,,,,,,,,,,,,,,,,,,,,,,,,,,,,,,,,,
,,,,,,,,,,,,,,,,,616dd3845b2624e9720392fd,31,2022-02-12_10h46.14.787,lexical_decision_task_DD_L3,2021.2.3,Linux armv8l,59.93407252,,,,,,,,,,0.6902,0,,,,,,,,,,,,,,,0,-0.302520345,-0.303058513,1,0,0,0.6902,button_left_main,-0.302520345,-0.303058513,1,0,0,,0,132,132,59,1,BURIAL,HB,old,m,./images/BURIALHB.png,,,,,,,,,,,,,,,,,,,,,,,,,,,,,,,,,
,,,,,,,,,,,,,,,,,616dd3845b2624e9720392fd,31,2022-02-12_10h46.14.787,lexical_decision_task_DD_L3,2021.2.3,Linux armv8l,59.93407252,,,,,,,,,,0.9087,1,,,,,,,,,,,,,,,0,-0.344454312,-0.305225706,1,0,0,0.9087,button_left_main,-0.344454312,-0.305225706,1,0,0,,0,133,133,153,1,CLUPS,C,old,z,./images/CLUPS.png,,,,,,,,,,,,,,,,,,,,,,,,,,,,,,,,,
,,,,,,,,,,,,,,,,,616dd3845b2624e9720392fd,31,2022-02-12_10h46.14.787,lexical_decision_task_DD_L3,2021.2.3,Linux armv8l,59.93407252,,,,,,,,,,0.6522,0,,,,,,,,,,,,,,,0,-0.291305468,-0.336649034,1,0,0,0.6522,button_left_main,-0.291305468,-0.336649034,1,0,0,,0,134,134,31,1,QUILL,C,old,m,./images/QUILL.png,,,,,,,,,,,,,,,,,,,,,,,,,,,,,,,,,
,,,,,,,,,,,,,,,,,616dd3845b2624e9720392fd,31,2022-02-12_10h46.14.787,lexical_decision_task_DD_L3,2021.2.3,Linux armv8l,59.93407252,,,,,,,,,,0.6801,0,,,,,,,,,,,,,,,0,-0.312272451,-0.322020892,1,0,0,0.6801,button_left_main,-0.312272451,-0.322020892,1,0,0,,0,135,135,12,1,SHORE,LB,old,m,./images/SHORELB.png,,,,,,,,,,,,,,,,,,,,,,,,,,,,,,,,,
,,,,,,,,,,,,,,,,,616dd3845b2624e9720392fd,31,2022-02-12_10h46.14.787,lexical_decision_task_DD_L3,2021.2.3,Linux armv8l,59.93407252,,,,,,,,,,0.9266,1,,,,,,,,,,,,,,,0,-0.339090662,-0.292764756,1,0,0,0.9266,button_left_main,-0.339090662,-0.292764756,1,0,0,,0,136,136,152,1,FRAIN,LB,old,z,./images/FRAINLB.png,,,,,,,,,,,,,,,,,,,,,,,,,,,,,,,,,
,,,,,,,,,,,,,,,,,616dd3845b2624e9720392fd,31,2022-02-12_10h46.14.787,lexical_decision_task_DD_L3,2021.2.3,Linux armv8l,59.93407252,,,,,,,,,,2.1475,1,,,,,,,,,,,,,,,0,0.264075492,-0.263508473,1,0,0,2.1475,button_right_main,0.264075492,-0.263508473,1,0,0,,0,137,137,41,1,STRING,HB,old,m,./images/STRINGHB.png,,,,,,,,,,,,,,,,,,,,,,,,,,,,,,,,,
,,,,,,,,,,,,,,,,,616dd3845b2624e9720392fd,31,2022-02-12_10h46.14.787,lexical_decision_task_DD_L3,2021.2.3,Linux armv8l,59.93407252,,,,,,,,,,0.8216,1,,,,,,,,,,,,,,,0,0.309178917,-0.330147752,1,0,0,0.8216,button_right_main,0.309178917,-0.330147752,1,0,0,,0,138,138,42,1,FOLDER,LB,old,m,./images/FOLDERLB.png,,,,,,,,,,,,,,,,,,,,,,,,,,,,,,,,,
,,,,,,,,,,,,,,,,,616dd3845b2624e9720392fd,31,2022-02-12_10h46.14.787,lexical_decision_task_DD_L3,2021.2.3,Linux armv8l,59.93407252,,,,,,,,,,0.7775,1,,,,,,,,,,,,,,,0,0.312592145,-0.323104562,1,0,0,0.7775,button_right_main,0.312592145,-0.323104562,1,0,0,,0,139,139,40,1,SWING,C,old,m,./images/SWING.png,,,,,,,,,,,,,,,,,,,,,,,,,,,,,,,,,
,,,,,,,,,,,,,,,,,616dd3845b2624e9720392fd,31,2022-02-12_10h46.14.787,lexical_decision_task_DD_L3,2021.2.3,Linux armv8l,59.93407252,,,,,,,,,,1.0877,1,,,,,,,,,,,,,,,0,0.34257974,-0.32093737,1,0,0,1.0877,button_right_main,0.34257974,-0.32093737,1,0,0,,0,140,140,77,1,COUCH,HB,old,m,./images/COUCHHB.png,,,,,,,,,,,,,,,,,,,,,,,,,,,,,,,,,
,,,,,,,,,,,,,,,,,616dd3845b2624e9720392fd,31,2022-02-12_10h46.14.787,lexical_decision_task_DD_L3,2021.2.3,Linux armv8l,59.93407252,,,,,,,,,,0.8884,1,,,,,,,,,,,,,,,0,-0.337140259,-0.306309228,1,0,0,0.8884,button_left_main,-0.337140259,-0.306309228,1,0,0,,0,141,141,117,1,STEEG,C,old,z,./images/STEEG.png,,,,,,,,,,,,,,,,,,,,,,,,,,,,,,,,,
,,,,,,,,,,,,,,,,,616dd3845b2624e9720392fd,31,2022-02-12_10h46.14.787,lexical_decision_task_DD_L3,2021.2.3,Linux armv8l,59.93407252,,,,,,,,,,0.7385,1,,,,,,,,,,,,,,,0,-0.338359259,-0.351818937,1,0,0,0.7385,button_left_main,-0.338359259,-0.351818937,1,0,0,,0,142,142,102,1,DULLE,C,old,z,./images/DULLE.png,,,,,,,,,,,,,,,,,,,,,,,,,,,,,,,,,
,,,,,,,,,,,,,,,,,616dd3845b2624e9720392fd,31,2022-02-12_10h46.14.787,lexical_decision_task_DD_L3,2021.2.3,Linux armv8l,59.93407252,,,,,,,,,,1.0609,1,,,,,,,,,,,,,,,0,0.338678897,-0.28788861,1,0,0,1.0609,button_right_main,0.338678897,-0.28788861,1,0,0,,0,143,143,67,1,SAILOR,C,old,m,./images/SAILOR.png,,,,,,,,,,,,,,,,,,,,,,,,,,,,,,,,,
,,,,,,,,,,,,,,,,,616dd3845b2624e9720392fd,31,2022-02-12_10h46.14.787,lexical_decision_task_DD_L3,2021.2.3,Linux armv8l,59.93407252,,,,,,,,,,1.1686,1,,,,,,,,,,,,,,,0,0.288943318,-0.305225706,1,0,0,1.1686,button_right_main,0.288943318,-0.305225706,1,0,0,,0,144,144,38,1,LADDER,HB,old,m,./images/LADDERHB.png,,,,,,,,,,,,,,,,,,,,,,,,,,,,,,,,,
,,,,,,,,,,,,,,,,,616dd3845b2624e9720392fd,31,2022-02-12_10h46.14.787,lexical_decision_task_DD_L3,2021.2.3,Linux armv8l,59.93407252,,,,,,,,,,0.7424,1,,,,,,,,,,,,,,,0,-0.324706328,-0.329064082,1,0,0,0.7424,button_left_main,-0.324706328,-0.329064082,1,0,0,,0,145,145,94,1,BLANS,HB,old,z,./images/BLANSHB.png,,,,,,,,,,,,,,,,,,,,,,,,,,,,,,,,,
,,,,,,,,,,,,,,,,,616dd3845b2624e9720392fd,31,2022-02-12_10h46.14.787,lexical_decision_task_DD_L3,2021.2.3,Linux armv8l,59.93407252,,,,,,,,,,1.0257,1,,,,,,,,,,,,,,,0,0.319174757,-0.278678376,1,0,0,1.0257,button_right_main,0.319174757,-0.278678376,1,0,0,,0,146,146,57,1,MOOSE,LB,old,m,./images/MOOSELB.png,,,,,,,,,,,,,,,,,,,,,,,,,,,,,,,,,
,,,,,,,,,,,,,,,,,616dd3845b2624e9720392fd,31,2022-02-12_10h46.14.787,lexical_decision_task_DD_L3,2021.2.3,Linux armv8l,59.93407252,,,,,,,,,,0.7376,1,,,,,,,,,,,,,,,0,-0.35103697,-0.280845568,1,0,0,0.7376,button_left_main,-0.35103697,-0.280845568,1,0,0,,0,147,147,157,1,INLER,HB,old,z,./images/INLERHB.png,,,,,,,,,,,,,,,,,,,,,,,,,,,,,,,,,
,,,,,,,,,,,,,,,,,616dd3845b2624e9720392fd,31,2022-02-12_10h46.14.787,lexical_decision_task_DD_L3,2021.2.3,Linux armv8l,59.93407252,,,,,,,,,,0.7505,0,,,,,,,,,,,,,,,0,-0.308371609,-0.334481989,1,0,0,0.7505,button_left_main,-0.308371609,-0.334481989,1,0,0,,0,148,148,72,1,NOOSE,LB,old,m,./images/NOOSELB.png,,,,,,,,,,,,,,,,,,,,,,,,,,,,,,,,,
,,,,,,,,,,,,,,,,,616dd3845b2624e9720392fd,31,2022-02-12_10h46.14.787,lexical_decision_task_DD_L3,2021.2.3,Linux armv8l,59.93407252,,,,,,,,,,1.092,1,,,,,,,,,,,,,,,0,-0.284966626,-0.320395609,1,0,0,1.092,button_left_main,-0.284966626,-0.320395609,1,0,0,,0,149,149,164,1,SGREW,LB,old,z,./images/SGREWLB.png,,,,,,,,,,,,,,,,,,,,,,,,,,,,,,,,,
,,,,,,,,,,,,,,,,,616dd3845b2624e9720392fd,31,2022-02-12_10h46.14.787,lexical_decision_task_DD_L3,2021.2.3,Linux armv8l,59.93407252,,,,,,,,,,1.0487,1,,,,,,,,,,,,,,,0,0.273340022,-0.285179805,1,0,0,1.0487,button_right_main,0.273340022,-0.285179805,1,0,0,,0,150,150,39,1,SHELF,LB,old,m,./images/SHELFLB.png,,,,,,,,,,,,,,,,,,,,,,,,,,,,,,,,,
,,,,,,,,,,,,,,,,,616dd3845b2624e9720392fd,31,2022-02-12_10h46.14.787,lexical_decision_task_DD_L3,2021.2.3,Linux armv8l,59.93407252,,,,,,,,,,0.711,1,,,,,,,,,,,,,,,0,-0.30812782,-0.329064082,1,0,0,0.711,button_left_main,-0.30812782,-0.329064082,1,0,0,,0,151,151,139,1,BLEAR,HB,old,z,./images/BLEARHB.png,,,,,,,,,,,,,,,,,,,,,,,,,,,,,,,,,
,,,,,,,,,,,,,,,,,616dd3845b2624e9720392fd,31,2022-02-12_10h46.14.787,lexical_decision_task_DD_L3,2021.2.3,Linux armv8l,59.93407252,,,,,,,,,,0.8489,1,,,,,,,,,,,,,,,0,0.340873126,-0.334481989,1,0,0,0.8489,button_right_main,0.340873126,-0.334481989,1,0,0,,0,152,152,61,1,CANDLE,C,old,m,./images/CANDLE.png,,,,,,,,,,,,,,,,,,,,,,,,,,,,,,,,,
,,,,,,,,,,,,,,,,,616dd3845b2624e9720392fd,31,2022-02-12_10h46.14.787,lexical_decision_task_DD_L3,2021.2.3,Linux armv8l,59.93407252,,,,,,,,,,0.8184,1,,,,,,,,,,,,,,,0,-0.343722908,-0.305767467,1,0,0,0.8184,button_left_main,-0.343722908,-0.305767467,1,0,0,,0,153,153,129,1,PRANS,C,old,z,./images/PRANS.png,,,,,,,,,,,,,,,,,,,,,,,,,,,,,,,,,
,,,,,,,,,,,,,,,,,616dd3845b2624e9720392fd,31,2022-02-12_10h46.14.787,lexical_decision_task_DD_L3,2021.2.3,Linux armv8l,59.93407252,,,,,,,,,,1.4652,0,,,,,,,,,,,,,,,0,-0.356156812,-0.304683945,1,0,0,1.4652,button_left_main,-0.356156812,-0.304683945,1,0,0,,0,154,154,52,1,BANNER,C,old,m,./images/BANNER.png,,,,,,,,,,,,,,,,,,,,,,,,,,,,,,,,,
,,,,,,,,,,,,,,,,,616dd3845b2624e9720392fd,31,2022-02-12_10h46.14.787,lexical_decision_task_DD_L3,2021.2.3,Linux armv8l,59.93407252,,,,,,,,,,1.6566,1,,,,,,,,,,,,,,,0,0.266269721,-0.304683945,1,0,0,1.6566,button_right_main,0.266269721,-0.304683945,1,0,0,,0,155,155,26,1,SMOKER,HB,old,m,./images/SMOKERHB.png,,,,,,,,,,,,,,,,,,,,,,,,,,,,,,,,,
,,,,,,,,,,,,,,,,,616dd3845b2624e9720392fd,31,2022-02-12_10h46.14.787,lexical_decision_task_DD_L3,2021.2.3,Linux armv8l,59.93407252,,,,,,,,,,1.0318,1,,,,,,,,,,,,,,,0,0.337459898,-0.263508473,1,0,0,1.0318,button_right_main,0.337459898,-0.263508473,1,0,0,,0,156,156,33,1,MAGGOT,LB,old,m,./images/MAGGOTLB.png,,,,,,,,,,,,,,,,,,,,,,,,,,,,,,,,,
,,,,,,,,,,,,,,,,,616dd3845b2624e9720392fd,31,2022-02-12_10h46.14.787,lexical_decision_task_DD_L3,2021.2.3,Linux armv8l,59.93407252,,,,,,,,,,1.0708,0,,,,,,,,,,,,,,,0,0.306009459,-0.272176946,1,0,0,1.0708,button_right_main,0.306009459,-0.272176946,1,0,0,,0,157,157,90,1,NEAST,C,old,z,./images/NEAST.png,,,,,,,,,,,,,,,,,,,,,,,,,,,,,,,,,
,,,,,,,,,,,,,,,,,616dd3845b2624e9720392fd,31,2022-02-12_10h46.14.787,lexical_decision_task_DD_L3,2021.2.3,Linux armv8l,59.93407252,,,,,,,,,,0.6525,1,,,,,,,,,,,,,,,0,-0.341041083,-0.284638044,1,0,0,0.6525,button_left_main,-0.341041083,-0.284638044,1,0,0,,0,158,158,145,1,LAMEL,HB,old,z,./images/LAMELHB.png,,,,,,,,,,,,,,,,,,,,,,,,,,,,,,,,,
,,,,,,,,,,,,,,,,,616dd3845b2624e9720392fd,31,2022-02-12_10h46.14.787,lexical_decision_task_DD_L3,2021.2.3,Linux armv8l,59.93407252,,,,,,,,,,1.2549,1,,,,,,,,,,,,,,,0,0.312592145,-0.300891469,1,0,0,1.2549,button_right_main,0.312592145,-0.300891469,1,0,0,,0,159,159,56,1,PACKET,HB,old,m,./images/PACKETHB.png,,,,,,,,,,,,,,,,,,,,,,,,,,,,,,,,,
,,,,,,,,,,,,,,,,,616dd3845b2624e9720392fd,31,2022-02-12_10h46.14.787,lexical_decision_task_DD_L3,2021.2.3,Linux armv8l,59.93407252,,,,,,,,,,0.7754,1,,,,,,,,,,,,,,,0,0.291625236,-0.292764756,1,0,0,0.7754,button_right_main,0.291625236,-0.292764756,1,0,0,,0,160,160,45,1,KITTEN,LB,old,m,./images/KITTENLB.png,,,,,,,,,,,,,,,,,,,,,,,,,,,,,,,,,
,,,,,,,,,,,,,,,,,616dd3845b2624e9720392fd,31,2022-02-12_10h46.14.787,lexical_decision_task_DD_L3,2021.2.3,Linux armv8l,59.93407252,,,,,,,,,,1.2172,1,,,,,,,,,,,,,,,0,0.311373072,-0.289514042,1,0,0,1.2172,button_right_main,0.311373072,-0.289514042,1,0,0,,0,161,161,32,1,BARREL,HB,old,m,./images/BARRELHB.png,,,,,,,,,,,,,,,,,,,,,,,,,,,,,,,,,
,,,,,,,,,,,,,,,,,616dd3845b2624e9720392fd,31,2022-02-12_10h46.14.787,lexical_decision_task_DD_L3,2021.2.3,Linux armv8l,59.93407252,,,,,,,,,,0.7727,1,,,,,,,,,,,,,,,0,-0.32982617,-0.265133756,1,0,0,0.7727,button_left_main,-0.32982617,-0.265133756,1,0,0,,0,162,162,100,1,DRIBS,HB,old,z,./images/DRIBSHB.png,,,,,,,,,,,,,,,,,,,,,,,,,,,,,,,,,
,,,,,,,,,,,,,,,,,616dd3845b2624e9720392fd,31,2022-02-12_10h46.14.787,lexical_decision_task_DD_L3,2021.2.3,Linux armv8l,59.93407252,,,,,,,,,,0.7968,1,,,,,,,,,,,,,,,0,-0.261317818,-0.297640754,1,0,0,0.7968,button_left_main,-0.261317818,-0.297640754,1,0,0,,0,163,163,105,1,MOKER,C,old,z,./images/MOKER.png,,,,,,,,,,,,,,,,,,,,,,,,,,,,,,,,,
,,,,,,,,,,,,,,,,,616dd3845b2624e9720392fd,31,2022-02-12_10h46.14.787,lexical_decision_task_DD_L3,2021.2.3,Linux armv8l,59.93407252,,,,,,,,,,1.0613,1,,,,,,,,,,,,,,,0,-0.302276574,-0.319853847,1,0,0,1.0613,button_left_main,-0.302276574,-0.319853847,1,0,0,,0,164,164,112,1,MYING,HB,old,z,./images/MYINGHB.png,,,,,,,,,,,,,,,,,,,,,,,,,,,,,,,,,
,,,,,,,,,,,,,,,,,616dd3845b2624e9720392fd,31,2022-02-12_10h46.14.787,lexical_decision_task_DD_L3,2021.2.3,Linux armv8l,59.93407252,,,,,,,,,,1.5654,1,,,,,,,,,,,,,,,0,0.328439213,-0.32093737,1,0,0,1.5654,button_right_main,0.328439213,-0.32093737,1,0,0,,0,165,165,43,1,MOSQUE,C,old,m,./images/MOSQUE.png,,,,,,,,,,,,,,,,,,,,,,,,,,,,,,,,,
,,,,,,,,,,,,,,,,,616dd3845b2624e9720392fd,31,2022-02-12_10h46.14.787,lexical_decision_task_DD_L3,2021.2.3,Linux armv8l,59.93407252,,,,,,,,,,0.8033,1,,,,,,,,,,,,,,,0,-0.326169171,-0.312810657,1,0,0,0.8033,button_left_main,-0.326169171,-0.312810657,1,0,0,,0,166,166,88,1,GLUSH,HB,old,z,./images/GLUSHHB.png,,,,,,,,,,,,,,,,,,,,,,,,,,,,,,,,,
,,,,,,,,,,,,,,,,,616dd3845b2624e9720392fd,31,2022-02-12_10h46.14.787,lexical_decision_task_DD_L3,2021.2.3,Linux armv8l,59.93407252,,,,,,,,,,0.8791,1,,,,,,,,,,,,,,,0,0.329902056,-0.316061372,1,0,0,0.8791,button_right_main,0.329902056,-0.316061372,1,0,0,,0,167,167,46,1,PEARL,C,old,m,./images/PEARL.png,,,,,,,,,,,,,,,,,,,,,,,,,,,,,,,,,
,,,,,,,,,,,,,,,,,616dd3845b2624e9720392fd,31,2022-02-12_10h46.14.787,lexical_decision_task_DD_L3,2021.2.3,Linux armv8l,59.93407252,,,,,,,,,,,,,,,,,,,,,,,,,,,,,,,,,,,,,,,,,,,,,,How likely will it be that you will recognize the words presented clearly on a scale of 0 (not likely) to 100 (most likely)?,,,,,-0.003862881,-0.412498548,1,0,0,jol_adv,4,12.2551,0,0,0,0,1,,,,,,,,,,,,,,,,,,,
,,,,,,,,,,,,,,,,,616dd3845b2624e9720392fd,31,2022-02-12_10h46.14.787,lexical_decision_task_DD_L3,2021.2.3,Linux armv8l,59.93407252,,,,,,,,,,,,,,,,,,,,,,,,,,,,,,,,,,,,,,,,,,,,,,How likely will it be that you will recognize the words presented slighly blurred on a scale of 0 (not likely) to 100 (most likely)?,,,,,,,,,,,3,6.5453,0,1,1,1,1,,,,,,,,,,,,,,,,,,,
,,,,,,,,,,,,,,,,,616dd3845b2624e9720392fd,31,2022-02-12_10h46.14.787,lexical_decision_task_DD_L3,2021.2.3,Linux armv8l,59.93407252,,,,,,,,,,,,,,,,,,,,,,,,,,,,,,,,,,,,,,,,,,,,,,How likely will it be that you will recognize the words presented very blurred on a scale of 0 (not likely) to 100 (most likely)?,,,,,,,,,,,4,1.5451,0,2,2,2,1,,,,,,,,,,,,,,,,,,,
,-0.092363043,-0.378908028,1,0,0,instr_done_button,,,,,,1,test,"In the next phase you will be presented with the words from the the first phase. Your job is to decide whether you remember seeing the word or not. If you remember seeing the word press ""old"" or type ""m"". If you do not remember seeing the word press ""new"" or type ""z"". Please press the space bar or click on continue to begin. ",,,616dd3845b2624e9720392fd,31,2022-02-12_10h46.14.787,lexical_decision_task_DD_L3,2021.2.3,Linux armv8l,59.93407252,,,,,,,,,,,,,,,,,,,,,,,,,,,,,,,,,,,,,,,,,,,,,,,,,,,,,,,,,,,,,,,,0,0,0,0,1,,,,,,,,,,,,,,
,-0.030681129,-0.367530601,1,0,0,instr_done_button,,,,,,1,test,"In the next phase you will be presented with the words from the the first phase. Your job is to decide whether you remember seeing the word or not. If you remember seeing the word press ""old"" or type ""m"". If you do not remember seeing the word press ""new"" or type ""z"". Please press the space bar or click on continue to begin. ",,,616dd3845b2624e9720392fd,31,2022-02-12_10h46.14.787,lexical_decision_task_DD_L3,2021.2.3,Linux armv8l,59.93407252,,,,,,,,,,,,,,,,,,,,,,,,,,,,,,,,,,,,,,,,,,,,,,,,,,,,,,,,,,,,,,,,1,0,1,0,1,,,,,,,,,,,,,,
,-0.012639759,-0.4200835,1,0,0,instr_done_button,,,,,,1,test,"In the next phase you will be presented with the words from the the first phase. Your job is to decide whether you remember seeing the word or not. If you remember seeing the word press ""old"" or type ""m"". If you do not remember seeing the word press ""new"" or type ""z"". Please press the space bar or click on continue to begin. ",,,616dd3845b2624e9720392fd,31,2022-02-12_10h46.14.787,lexical_decision_task_DD_L3,2021.2.3,Linux armv8l,59.93407252,,,,,,,,,,,,,,,,,,,,,,,,,,,,,,,,,,,,,,,,,,,,,,,,,,,,,,,,,,,,,,,,2,0,2,0,1,,,,,,,,,,,,,,
,-0.054817533,-0.382158742,1,0,0,instr_done_button,,,,,,1,test,"In the next phase you will be presented with the words from the the first phase. Your job is to decide whether you remember seeing the word or not. If you remember seeing the word press ""old"" or type ""m"". If you do not remember seeing the word press ""new"" or type ""z"". Please press the space bar or click on continue to begin. ",,,616dd3845b2624e9720392fd,31,2022-02-12_10h46.14.787,lexical_decision_task_DD_L3,2021.2.3,Linux armv8l,59.93407252,,,,,,,,,,,,,,,,,,,,,,,,,,,,,,,,,,,,,,,,,,,,,,,,,,,,,,,,,,,,,,,,3,0,3,0,1,,,,,,,,,,,,,,
,-0.043602582,-0.401662882,1,0,0,instr_done_button,,,,,,1,test,"In the next phase you will be presented with the words from the the first phase. Your job is to decide whether you remember seeing the word or not. If you remember seeing the word press ""old"" or type ""m"". If you do not remember seeing the word press ""new"" or type ""z"". Please press the space bar or click on continue to begin. ",,,616dd3845b2624e9720392fd,31,2022-02-12_10h46.14.787,lexical_decision_task_DD_L3,2021.2.3,Linux armv8l,59.93407252,,,,,,,,,,,,,,,,,,,,,,,,,,,,,,,,,,,,,,,,,,,,,,,,,,,,,,,,,,,,,,,,4,0,4,0,1,,,,,,,,,,,,,,
,,,,,,,,,,,,,,,,,616dd3845b2624e9720392fd,31,2022-02-12_10h46.14.787,lexical_decision_task_DD_L3,2021.2.3,Linux armv8l,59.93407252,,,,,,,,,,4.7093,0,,,,,,,,,,,,,,,,,,,,,,,0.317955758,-0.287346849,1,0,0,,,,,,,RULER,C,z,m,./images/RULER.png,,,,,,,,,,,,,,,,,,,,,0,0.317955758,-0.287346849,1,0,0,4.7093,button_right_test,0,0,0,163,1
,,,,,,,,,,,,,,,,,616dd3845b2624e9720392fd,31,2022-02-12_10h46.14.787,lexical_decision_task_DD_L3,2021.2.3,Linux armv8l,59.93407252,,,,,,,,,,1.1677,1,,,,,,,,,,,,,,,,,,,,,,,0.295526005,-0.331773036,1,0,0,,,,,,,MALLET,HB,m,m,./images/MALLETHB.png,,,,,,,,,,,,,,,,,,,,,0,0.295526005,-0.331773036,1,0,0,1.1677,button_right_test,0,1,1,50,1
,,,,,,,,,,,,,,,,,616dd3845b2624e9720392fd,31,2022-02-12_10h46.14.787,lexical_decision_task_DD_L3,2021.2.3,Linux armv8l,59.93407252,,,,,,,,,,1.271,1,,,,,,,,,,,,,,,,,,,,,,,-0.37468576,-0.325271606,1,0,0,,,,,,,DESERT,C,z,m,./images/DESERT.png,,,,,,,,,,,,,,,,,,,,,0,-0.37468576,-0.325271606,1,0,0,1.271,button_left_test,0,2,2,136,1
,,,,,,,,,,,,,,,,,616dd3845b2624e9720392fd,31,2022-02-12_10h46.14.787,lexical_decision_task_DD_L3,2021.2.3,Linux armv8l,59.93407252,,,,,,,,,,0.9412,1,,,,,,,,,,,,,,,,,,,,,,,-0.360057646,-0.338274465,1,0,0,,,,,,,DRILL,LB,z,m,./images/DRILLLB.png,,,,,,,,,,,,,,,,,,,,,0,-0.360057646,-0.338274465,1,0,0,0.9412,button_left_test,0,3,3,165,1
,,,,,,,,,,,,,,,,,616dd3845b2624e9720392fd,31,2022-02-12_10h46.14.787,lexical_decision_task_DD_L3,2021.2.3,Linux armv8l,59.93407252,,,,,,,,,,0.894,1,,,,,,,,,,,,,,,,,,,,,,,-0.360301444,-0.263508473,1,0,0,,,,,,,BRUSH,HB,z,m,./images/BRUSHHB.png,,,,,,,,,,,,,,,,,,,,,0,-0.360301444,-0.263508473,1,0,0,0.894,button_left_test,0,4,4,143,1
,,,,,,,,,,,,,,,,,616dd3845b2624e9720392fd,31,2022-02-12_10h46.14.787,lexical_decision_task_DD_L3,2021.2.3,Linux armv8l,59.93407252,,,,,,,,,,0.8844,0,,,,,,,,,,,,,,,,,,,,,,,0.348431041,-0.305225706,1,0,0,,,,,,,MONKEY,LB,z,m,./images/MONKEYLB.png,,,,,,,,,,,,,,,,,,,,,0,0.348431041,-0.305225706,1,0,0,0.8844,button_right_test,0,5,5,129,1
,,,,,,,,,,,,,,,,,616dd3845b2624e9720392fd,31,2022-02-12_10h46.14.787,lexical_decision_task_DD_L3,2021.2.3,Linux armv8l,59.93407252,,,,,,,,,,1.5096,1,,,,,,,,,,,,,,,,,,,,,,,0.339166512,-0.285721566,1,0,0,,,,,,,JUNGLE,HB,m,m,./images/JUNGLEHB.png,,,,,,,,,,,,,,,,,,,,,0,0.339166512,-0.285721566,1,0,0,1.5096,button_right_test,0,6,6,83,1
,,,,,,,,,,,,,,,,,616dd3845b2624e9720392fd,31,2022-02-12_10h46.14.787,lexical_decision_task_DD_L3,2021.2.3,Linux armv8l,59.93407252,,,,,,,,,,1.3182,0,,,,,,,,,,,,,,,,,,,,,,,0.319418602,-0.298724276,1,0,0,,,,,,,BASKET,HB,z,m,./images/BASKETHB.png,,,,,,,,,,,,,,,,,,,,,0,0.319418602,-0.298724276,1,0,0,1.3182,button_right_test,0,7,7,128,1
,,,,,,,,,,,,,,,,,616dd3845b2624e9720392fd,31,2022-02-12_10h46.14.787,lexical_decision_task_DD_L3,2021.2.3,Linux armv8l,59.93407252,,,,,,,,,,1.0496,1,,,,,,,,,,,,,,,,,,,,,,,0.322100371,-0.322562801,1,0,0,,,,,,,BARREL,HB,m,m,./images/BARRELHB.png,,,,,,,,,,,,,,,,,,,,,0,0.322100371,-0.322562801,1,0,0,1.0496,button_right_test,0,8,8,32,1
,,,,,,,,,,,,,,,,,616dd3845b2624e9720392fd,31,2022-02-12_10h46.14.787,lexical_decision_task_DD_L3,2021.2.3,Linux armv8l,59.93407252,,,,,,,,,,0.8184,1,,,,,,,,,,,,,,,,,,,,,,,-0.352499777,-0.339899748,1,0,0,,,,,,,DIVER,LB,z,m,./images/DIVERLB.png,,,,,,,,,,,,,,,,,,,,,0,-0.352499777,-0.339899748,1,0,0,0.8184,button_left_test,0,9,9,93,1
,,,,,,,,,,,,,,,,,616dd3845b2624e9720392fd,31,2022-02-12_10h46.14.787,lexical_decision_task_DD_L3,2021.2.3,Linux armv8l,59.93407252,,,,,,,,,,2.0399,1,,,,,,,,,,,,,,,,,,,,,,,0.310885531,-0.287346849,1,0,0,,,,,,,SHELF,LB,m,m,./images/SHELFLB.png,,,,,,,,,,,,,,,,,,,,,0,0.310885531,-0.287346849,1,0,0,2.0399,button_right_test,0,10,10,39,1
,,,,,,,,,,,,,,,,,616dd3845b2624e9720392fd,31,2022-02-12_10h46.14.787,lexical_decision_task_DD_L3,2021.2.3,Linux armv8l,59.93407252,,,,,,,,,,2.3521,0,,,,,,,,,,,,,,,,,,,,,,,-0.377367584,-0.307934659,1,0,0,,,,,,,BURIAL,HB,m,m,./images/BURIALHB.png,,,,,,,,,,,,,,,,,,,,,0,-0.377367584,-0.307934659,1,0,0,2.3521,button_left_test,0,11,11,59,1
,,,,,,,,,,,,,,,,,616dd3845b2624e9720392fd,31,2022-02-12_10h46.14.787,lexical_decision_task_DD_L3,2021.2.3,Linux armv8l,59.93407252,,,,,,,,,,0.9362,0,,,,,,,,,,,,,,,,,,,,,,,-0.342016294,-0.365905317,1,0,0,,,,,,,MUSCLE,C,m,m,./images/MUSCLE.png,,,,,,,,,,,,,,,,,,,,,0,-0.342016294,-0.365905317,1,0,0,0.9362,button_left_test,0,12,12,4,1
,,,,,,,,,,,,,,,,,616dd3845b2624e9720392fd,31,2022-02-12_10h46.14.787,lexical_decision_task_DD_L3,2021.2.3,Linux armv8l,59.93407252,,,,,,,,,,0.8851,1,,,,,,,,,,,,,,,,,,,,,,,-0.339822084,-0.286805088,1,0,0,,,,,,,STATUE,LB,z,m,./images/STATUELB.png,,,,,,,,,,,,,,,,,,,,,0,-0.339822084,-0.286805088,1,0,0,0.8851,button_left_test,0,13,13,150,1
,,,,,,,,,,,,,,,,,616dd3845b2624e9720392fd,31,2022-02-12_10h46.14.787,lexical_decision_task_DD_L3,2021.2.3,Linux armv8l,59.93407252,,,,,,,,,,0.6981,0,,,,,,,,,,,,,,,,,,,,,,,-0.317392294,-0.255923521,1,0,0,,,,,,,BERRY,HB,m,m,./images/BERRYHB.png,,,,,,,,,,,,,,,,,,,,,0,-0.317392294,-0.255923521,1,0,0,0.6981,button_left_test,0,14,14,47,1
,,,,,,,,,,,,,,,,,616dd3845b2624e9720392fd,31,2022-02-12_10h46.14.787,lexical_decision_task_DD_L3,2021.2.3,Linux armv8l,59.93407252,,,,,,,,,,1.0017,1,,,,,,,,,,,,,,,,,,,,,,,-0.340065873,-0.317144894,1,0,0,,,,,,,PEBBLE,C,z,m,./images/PEBBLE.png,,,,,,,,,,,,,,,,,,,,,0,-0.340065873,-0.317144894,1,0,0,1.0017,button_left_test,0,15,15,166,1
,,,,,,,,,,,,,,,,,616dd3845b2624e9720392fd,31,2022-02-12_10h46.14.787,lexical_decision_task_DD_L3,2021.2.3,Linux armv8l,59.93407252,,,,,,,,,,1.1216,1,,,,,,,,,,,,,,,,,,,,,,,-0.324950153,-0.25538176,1,0,0,,,,,,,SHIELD,LB,z,m,./images/SHIELDLB.png,,,,,,,,,,,,,,,,,,,,,0,-0.324950153,-0.25538176,1,0,0,1.1216,button_left_test,0,16,16,132,1
,,,,,,,,,,,,,,,,,616dd3845b2624e9720392fd,31,2022-02-12_10h46.14.787,lexical_decision_task_DD_L3,2021.2.3,Linux armv8l,59.93407252,,,,,,,,,,0.9904,0,,,,,,,,,,,,,,,,,,,,,,,0.32283183,-0.306850989,1,0,0,,,,,,,DANCER,LB,z,m,./images/DANCERLB.png,,,,,,,,,,,,,,,,,,,,,0,0.32283183,-0.306850989,1,0,0,0.9904,button_right_test,0,17,17,105,1
,,,,,,,,,,,,,,,,,616dd3845b2624e9720392fd,31,2022-02-12_10h46.14.787,lexical_decision_task_DD_L3,2021.2.3,Linux armv8l,59.93407252,,,,,,,,,,1.241,0,,,,,,,,,,,,,,,,,,,,,,,-0.332995628,-0.335565511,1,0,0,,,,,,,MOTOR,C,m,m,./images/MOTOR.png,,,,,,,,,,,,,,,,,,,,,0,-0.332995628,-0.335565511,1,0,0,1.241,button_left_test,0,18,18,13,1
,,,,,,,,,,,,,,,,,616dd3845b2624e9720392fd,31,2022-02-12_10h46.14.787,lexical_decision_task_DD_L3,2021.2.3,Linux armv8l,59.93407252,,,,,,,,,,0.9752,1,,,,,,,,,,,,,,,,,,,,,,,-0.318367504,-0.264591995,1,0,0,,,,,,,WHEEL,HB,z,m,./images/WHEELHB.png,,,,,,,,,,,,,,,,,,,,,0,-0.318367504,-0.264591995,1,0,0,0.9752,button_left_test,0,19,19,161,1
,,,,,,,,,,,,,,,,,616dd3845b2624e9720392fd,31,2022-02-12_10h46.14.787,lexical_decision_task_DD_L3,2021.2.3,Linux armv8l,59.93407252,,,,,,,,,,1.1178,1,,,,,,,,,,,,,,,,,,,,,,,-0.320805522,-0.277053092,1,0,0,,,,,,,CHAIN,LB,z,m,./images/CHAINLB.png,,,,,,,,,,,,,,,,,,,,,0,-0.320805522,-0.277053092,1,0,0,1.1178,button_left_test,0,20,20,126,1
,,,,,,,,,,,,,,,,,616dd3845b2624e9720392fd,31,2022-02-12_10h46.14.787,lexical_decision_task_DD_L3,2021.2.3,Linux armv8l,59.93407252,,,,,,,,,,0.8959,1,,,,,,,,,,,,,,,,,,,,,,,0.307716073,-0.319853847,1,0,0,,,,,,,MOSQUE,C,m,m,./images/MOSQUE.png,,,,,,,,,,,,,,,,,,,,,0,0.307716073,-0.319853847,1,0,0,0.8959,button_right_test,0,21,21,43,1
,,,,,,,,,,,,,,,,,616dd3845b2624e9720392fd,31,2022-02-12_10h46.14.787,lexical_decision_task_DD_L3,2021.2.3,Linux armv8l,59.93407252,,,,,,,,,,0.8511,1,,,,,,,,,,,,,,,,,,,,,,,0.323806985,-0.307934659,1,0,0,,,,,,,JAGUAR,LB,m,m,./images/JAGUARLB.png,,,,,,,,,,,,,,,,,,,,,0,0.323806985,-0.307934659,1,0,0,0.8511,button_right_test,0,22,22,18,1
,,,,,,,,,,,,,,,,,616dd3845b2624e9720392fd,31,2022-02-12_10h46.14.787,lexical_decision_task_DD_L3,2021.2.3,Linux armv8l,59.93407252,,,,,,,,,,0.9565,1,,,,,,,,,,,,,,,,,,,,,,,0.295038464,-0.315519611,1,0,0,,,,,,,CRUMB,HB,m,m,./images/CRUMBHB.png,,,,,,,,,,,,,,,,,,,,,0,0.295038464,-0.315519611,1,0,0,0.9565,button_right_test,0,23,23,29,1
,,,,,,,,,,,,,,,,,616dd3845b2624e9720392fd,31,2022-02-12_10h46.14.787,lexical_decision_task_DD_L3,2021.2.3,Linux armv8l,59.93407252,,,,,,,,,,0.8597,0,,,,,,,,,,,,,,,,,,,,,,,-0.329094785,-0.274344139,1,0,0,,,,,,,FALCON,C,m,m,./images/FALCON.png,,,,,,,,,,,,,,,,,,,,,0,-0.329094785,-0.274344139,1,0,0,0.8597,button_left_test,0,24,24,28,1
,,,,,,,,,,,,,,,,,616dd3845b2624e9720392fd,31,2022-02-12_10h46.14.787,lexical_decision_task_DD_L3,2021.2.3,Linux armv8l,59.93407252,,,,,,,,,,0.9588,1,,,,,,,,,,,,,,,,,,,,,,,0.312835916,-0.348026461,1,0,0,,,,,,,MAGGOT,LB,m,m,./images/MAGGOTLB.png,,,,,,,,,,,,,,,,,,,,,0,0.312835916,-0.348026461,1,0,0,0.9588,button_right_test,0,25,25,33,1
,,,,,,,,,,,,,,,,,616dd3845b2624e9720392fd,31,2022-02-12_10h46.14.787,lexical_decision_task_DD_L3,2021.2.3,Linux armv8l,59.93407252,,,,,,,,,,0.8265,1,,,,,,,,,,,,,,,,,,,,,,,0.314054915,-0.343692224,1,0,0,,,,,,,FOLDER,LB,m,m,./images/FOLDERLB.png,,,,,,,,,,,,,,,,,,,,,0,0.314054915,-0.343692224,1,0,0,0.8265,button_right_test,0,26,26,42,1
,,,,,,,,,,,,,,,,,616dd3845b2624e9720392fd,31,2022-02-12_10h46.14.787,lexical_decision_task_DD_L3,2021.2.3,Linux armv8l,59.93407252,,,,,,,,,,0.8249,1,,,,,,,,,,,,,,,,,,,,,,,-0.276677345,-0.349110131,1,0,0,,,,,,,ENGINE,HB,z,m,./images/ENGINEHB.png,,,,,,,,,,,,,,,,,,,,,0,-0.276677345,-0.349110131,1,0,0,0.8249,button_left_test,0,27,27,122,1
,,,,,,,,,,,,,,,,,616dd3845b2624e9720392fd,31,2022-02-12_10h46.14.787,lexical_decision_task_DD_L3,2021.2.3,Linux armv8l,59.93407252,,,,,,,,,,1.125,1,,,,,,,,,,,,,,,,,,,,,,,-0.364446075,-0.305225706,1,0,0,,,,,,,MAMMAL,HB,z,m,./images/MAMMALHB.png,,,,,,,,,,,,,,,,,,,,,0,-0.364446075,-0.305225706,1,0,0,1.125,button_left_test,0,28,28,146,1
,,,,,,,,,,,,,,,,,616dd3845b2624e9720392fd,31,2022-02-12_10h46.14.787,lexical_decision_task_DD_L3,2021.2.3,Linux armv8l,59.93407252,,,,,,,,,,1.4222,0,,,,,,,,,,,,,,,,,,,,,,,-0.333483224,-0.293306517,1,0,0,,,,,,,WALRUS,HB,m,m,./images/WALRUSHB.png,,,,,,,,,,,,,,,,,,,,,0,-0.333483224,-0.293306517,1,0,0,1.4222,button_left_test,0,29,29,23,1
,,,,,,,,,,,,,,,,,616dd3845b2624e9720392fd,31,2022-02-12_10h46.14.787,lexical_decision_task_DD_L3,2021.2.3,Linux armv8l,59.93407252,,,,,,,,,,0.7133,0,,,,,,,,,,,,,,,,,,,,,,,-0.323731135,-0.280845568,1,0,0,,,,,,,LIZARD,HB,m,m,./images/LIZARDHB.png,,,,,,,,,,,,,,,,,,,,,0,-0.323731135,-0.280845568,1,0,0,0.7133,button_left_test,0,30,30,44,1
,,,,,,,,,,,,,,,,,616dd3845b2624e9720392fd,31,2022-02-12_10h46.14.787,lexical_decision_task_DD_L3,2021.2.3,Linux armv8l,59.93407252,,,,,,,,,,0.8475,1,,,,,,,,,,,,,,,,,,,,,,,0.322344289,-0.275427661,1,0,0,,,,,,,PAINT,C,m,m,./images/PAINT.png,,,,,,,,,,,,,,,,,,,,,0,0.322344289,-0.275427661,1,0,0,0.8475,button_right_test,0,31,31,7,1
,,,,,,,,,,,,,,,,,616dd3845b2624e9720392fd,31,2022-02-12_10h46.14.787,lexical_decision_task_DD_L3,2021.2.3,Linux armv8l,59.93407252,,,,,,,,,,1.0143,0,,,,,,,,,,,,,,,,,,,,,,,-0.332020417,-0.348026461,1,0,0,,,,,,,SUNSET,C,m,m,./images/SUNSET.png,,,,,,,,,,,,,,,,,,,,,0,-0.332020417,-0.348026461,1,0,0,1.0143,button_left_test,0,32,32,82,1
,,,,,,,,,,,,,,,,,616dd3845b2624e9720392fd,31,2022-02-12_10h46.14.787,lexical_decision_task_DD_L3,2021.2.3,Linux armv8l,59.93407252,,,,,,,,,,0.7257,1,,,,,,,,,,,,,,,,,,,,,,,-0.316417083,-0.288972281,1,0,0,,,,,,,CASINO,C,z,m,./images/CASINO.png,,,,,,,,,,,,,,,,,,,,,0,-0.316417083,-0.288972281,1,0,0,0.7257,button_left_test,0,33,33,112,1
,,,,,,,,,,,,,,,,,616dd3845b2624e9720392fd,31,2022-02-12_10h46.14.787,lexical_decision_task_DD_L3,2021.2.3,Linux armv8l,59.93407252,,,,,,,,,,0.7861,1,,,,,,,,,,,,,,,,,,,,,,,-0.293743504,-0.290597564,1,0,0,,,,,,,SAUNA,LB,z,m,./images/SAUNALB.png,,,,,,,,,,,,,,,,,,,,,0,-0.293743504,-0.290597564,1,0,0,0.7861,button_left_test,0,34,34,117,1
,,,,,,,,,,,,,,,,,616dd3845b2624e9720392fd,31,2022-02-12_10h46.14.787,lexical_decision_task_DD_L3,2021.2.3,Linux armv8l,59.93407252,,,,,,,,,,1.0082,1,,,,,,,,,,,,,,,,,,,,,,,0.309910302,-0.32093737,1,0,0,,,,,,,SKIING,HB,m,m,./images/SKIINGHB.png,,,,,,,,,,,,,,,,,,,,,0,0.309910302,-0.32093737,1,0,0,1.0082,button_right_test,0,35,35,17,1
,,,,,,,,,,,,,,,,,616dd3845b2624e9720392fd,31,2022-02-12_10h46.14.787,lexical_decision_task_DD_L3,2021.2.3,Linux armv8l,59.93407252,,,,,,,,,,0.9862,0,,,,,,,,,,,,,,,,,,,,,,,-0.358107224,-0.299266037,1,0,0,,,,,,,SNACK,C,m,m,./images/SNACK.png,,,,,,,,,,,,,,,,,,,,,0,-0.358107224,-0.299266037,1,0,0,0.9862,button_left_test,0,36,36,73,1
,,,,,,,,,,,,,,,,,616dd3845b2624e9720392fd,31,2022-02-12_10h46.14.787,lexical_decision_task_DD_L3,2021.2.3,Linux armv8l,59.93407252,,,,,,,,,,0.8274,1,,,,,,,,,,,,,,,,,,,,,,,-0.342991505,-0.304142183,1,0,0,,,,,,,TOWEL,C,z,m,./images/TOWEL.png,,,,,,,,,,,,,,,,,,,,,0,-0.342991505,-0.304142183,1,0,0,0.8274,button_left_test,0,37,37,85,1
,,,,,,,,,,,,,,,,,616dd3845b2624e9720392fd,31,2022-02-12_10h46.14.787,lexical_decision_task_DD_L3,2021.2.3,Linux armv8l,59.93407252,,,,,,,,,,0.8634,1,,,,,,,,,,,,,,,,,,,,,,,0.302108617,-0.309559942,1,0,0,,,,,,,BONNET,HB,m,m,./images/BONNETHB.png,,,,,,,,,,,,,,,,,,,,,0,0.302108617,-0.309559942,1,0,0,0.8634,button_right_test,0,38,38,11,1
,,,,,,,,,,,,,,,,,616dd3845b2624e9720392fd,31,2022-02-12_10h46.14.787,lexical_decision_task_DD_L3,2021.2.3,Linux armv8l,59.93407252,,,,,,,,,,0.7481,1,,,,,,,,,,,,,,,,,,,,,,,0.300889617,-0.300349708,1,0,0,,,,,,,ONION,LB,m,m,./images/ONIONLB.png,,,,,,,,,,,,,,,,,,,,,0,0.300889617,-0.300349708,1,0,0,0.7481,button_right_test,0,39,39,51,1
,,,,,,,,,,,,,,,,,616dd3845b2624e9720392fd,31,2022-02-12_10h46.14.787,lexical_decision_task_DD_L3,2021.2.3,Linux armv8l,59.93407252,,,,,,,,,,1.0193,1,,,,,,,,,,,,,,,,,,,,,,,0.305521845,-0.325271606,1,0,0,,,,,,,PASTA,HB,m,m,./images/PASTAHB.png,,,,,,,,,,,,,,,,,,,,,0,0.305521845,-0.325271606,1,0,0,1.0193,button_right_test,0,40,40,5,1
,,,,,,,,,,,,,,,,,616dd3845b2624e9720392fd,31,2022-02-12_10h46.14.787,lexical_decision_task_DD_L3,2021.2.3,Linux armv8l,59.93407252,,,,,,,,,,0.7055,1,,,,,,,,,,,,,,,,,,,,,,,-0.019710022,-0.398412316,1,0,0,,,,,,,COOKER,LB,m,m,./images/COOKERLB.png,break_done_button,,,,,,,,,,,,,,,,,,,,0,0.296745078,-0.306309228,1,0,0,0.7055,button_right_test,0,41,41,69,1
,,,,,,,,,,,,,,,,,616dd3845b2624e9720392fd,31,2022-02-12_10h46.14.787,lexical_decision_task_DD_L3,2021.2.3,Linux armv8l,59.93407252,,,,,,,,,,1.0998,0,,,,,,,,,,,,,,,,,,,,,,,0.282360632,-0.25429809,1,0,0,,,,,,,CLIFF,HB,z,m,./images/CLIFFHB.png,,,,,,,,,,,,,,,,,,,,,0,0.282360632,-0.25429809,1,0,0,1.0998,button_right_test,0,42,42,92,1
,,,,,,,,,,,,,,,,,616dd3845b2624e9720392fd,31,2022-02-12_10h46.14.787,lexical_decision_task_DD_L3,2021.2.3,Linux armv8l,59.93407252,,,,,,,,,,0.9413,1,,,,,,,,,,,,,,,,,,,,,,,0.306497074,-0.307392898,1,0,0,,,,,,,TULIP,HB,m,m,./images/TULIPHB.png,,,,,,,,,,,,,,,,,,,,,0,0.306497074,-0.307392898,1,0,0,0.9413,button_right_test,0,43,43,8,1
,,,,,,,,,,,,,,,,,616dd3845b2624e9720392fd,31,2022-02-12_10h46.14.787,lexical_decision_task_DD_L3,2021.2.3,Linux armv8l,59.93407252,,,,,,,,,,0.8964,1,,,,,,,,,,,,,,,,,,,,,,,-0.313979066,-0.297640754,1,0,0,,,,,,,WHISKY,HB,z,m,./images/WHISKYHB.png,,,,,,,,,,,,,,,,,,,,,0,-0.313979066,-0.297640754,1,0,0,0.8964,button_left_test,0,44,44,167,1
,,,,,,,,,,,,,,,,,616dd3845b2624e9720392fd,31,2022-02-12_10h46.14.787,lexical_decision_task_DD_L3,2021.2.3,Linux armv8l,59.93407252,,,,,,,,,,1.0856,1,,,,,,,,,,,,,,,,,,,,,,,-0.315929487,-0.325813368,1,0,0,,,,,,,FLESH,LB,z,m,./images/FLESHLB.png,,,,,,,,,,,,,,,,,,,,,0,-0.315929487,-0.325813368,1,0,0,1.0856,button_left_test,0,45,45,108,1
,,,,,,,,,,,,,,,,,616dd3845b2624e9720392fd,31,2022-02-12_10h46.14.787,lexical_decision_task_DD_L3,2021.2.3,Linux armv8l,59.93407252,,,,,,,,,,0.9039,1,,,,,,,,,,,,,,,,,,,,,,,-0.325681557,-0.270551663,1,0,0,,,,,,,BUNNY,C,z,m,./images/BUNNY.png,,,,,,,,,,,,,,,,,,,,,0,-0.325681557,-0.270551663,1,0,0,0.9039,button_left_test,0,46,46,97,1
,,,,,,,,,,,,,,,,,616dd3845b2624e9720392fd,31,2022-02-12_10h46.14.787,lexical_decision_task_DD_L3,2021.2.3,Linux armv8l,59.93407252,,,,,,,,,,0.77,1,,,,,,,,,,,,,,,,,,,,,,,0.272120948,-0.31497785,1,0,0,,,,,,,SHORE,LB,m,m,./images/SHORELB.png,,,,,,,,,,,,,,,,,,,,,0,0.272120948,-0.31497785,1,0,0,0.77,button_right_test,0,47,47,12,1
,,,,,,,,,,,,,,,,,616dd3845b2624e9720392fd,31,2022-02-12_10h46.14.787,lexical_decision_task_DD_L3,2021.2.3,Linux armv8l,59.93407252,,,,,,,,,,0.8144,1,,,,,,,,,,,,,,,,,,,,,,,0.262612797,-0.307934659,1,0,0,,,,,,,BANNER,C,m,m,./images/BANNER.png,,,,,,,,,,,,,,,,,,,,,0,0.262612797,-0.307934659,1,0,0,0.8144,button_right_test,0,48,48,52,1
,,,,,,,,,,,,,,,,,616dd3845b2624e9720392fd,31,2022-02-12_10h46.14.787,lexical_decision_task_DD_L3,2021.2.3,Linux armv8l,59.93407252,,,,,,,,,,0.9108,1,,,,,,,,,,,,,,,,,,,,,,,0.294306931,-0.323646323,1,0,0,,,,,,,MIRROR,LB,m,m,./images/MIRRORLB.png,,,,,,,,,,,,,,,,,,,,,0,0.294306931,-0.323646323,1,0,0,0.9108,button_right_test,0,49,49,63,1
,,,,,,,,,,,,,,,,,616dd3845b2624e9720392fd,31,2022-02-12_10h46.14.787,lexical_decision_task_DD_L3,2021.2.3,Linux armv8l,59.93407252,,,,,,,,,,0.9708,0,,,,,,,,,,,,,,,,,,,,,,,-0.326656767,-0.247255048,1,0,0,,,,,,,CANDLE,C,m,m,./images/CANDLE.png,,,,,,,,,,,,,,,,,,,,,0,-0.326656767,-0.247255048,1,0,0,0.9708,button_left_test,0,50,50,61,1
,,,,,,,,,,,,,,,,,616dd3845b2624e9720392fd,31,2022-02-12_10h46.14.787,lexical_decision_task_DD_L3,2021.2.3,Linux armv8l,59.93407252,,,,,,,,,,0.8931,1,,,,,,,,,,,,,,,,,,,,,,,0.30186492,-0.295473562,1,0,0,,,,,,,PEARL,C,m,m,./images/PEARL.png,,,,,,,,,,,,,,,,,,,,,0,0.30186492,-0.295473562,1,0,0,0.8931,button_right_test,0,51,51,46,1
,,,,,,,,,,,,,,,,,616dd3845b2624e9720392fd,31,2022-02-12_10h46.14.787,lexical_decision_task_DD_L3,2021.2.3,Linux armv8l,59.93407252,,,,,,,,,,1.1886,0,,,,,,,,,,,,,,,,,,,,,,,0.26846395,-0.272176946,1,0,0,,,,,,,DONKEY,C,z,m,./images/DONKEY.png,,,,,,,,,,,,,,,,,,,,,0,0.26846395,-0.272176946,1,0,0,1.1886,button_right_test,0,52,52,103,1
,,,,,,,,,,,,,,,,,616dd3845b2624e9720392fd,31,2022-02-12_10h46.14.787,lexical_decision_task_DD_L3,2021.2.3,Linux armv8l,59.93407252,,,,,,,,,,1.3603,1,,,,,,,,,,,,,,,,,,,,,,,-0.346160926,-0.304142183,1,0,0,,,,,,,SNAKE,C,z,m,./images/SNAKE.png,,,,,,,,,,,,,,,,,,,,,0,-0.346160926,-0.304142183,1,0,0,1.3603,button_left_test,0,53,53,124,1
,,,,,,,,,,,,,,,,,616dd3845b2624e9720392fd,31,2022-02-12_10h46.14.787,lexical_decision_task_DD_L3,2021.2.3,Linux armv8l,59.93407252,,,,,,,,,,1.0997,1,,,,,,,,,,,,,,,,,,,,,,,0.317955758,-0.311185374,1,0,0,,,,,,,SCREW,LB,m,m,./images/SCREWLB.png,,,,,,,,,,,,,,,,,,,,,0,0.317955758,-0.311185374,1,0,0,1.0997,button_right_test,0,54,54,24,1
,,,,,,,,,,,,,,,,,616dd3845b2624e9720392fd,31,2022-02-12_10h46.14.787,lexical_decision_task_DD_L3,2021.2.3,Linux armv8l,59.93407252,,,,,,,,,,0.8597,1,,,,,,,,,,,,,,,,,,,,,,,0.248959884,-0.309559942,1,0,0,,,,,,,SAILOR,C,m,m,./images/SAILOR.png,,,,,,,,,,,,,,,,,,,,,0,0.248959884,-0.309559942,1,0,0,0.8597,button_right_test,0,55,55,67,1
,,,,,,,,,,,,,,,,,616dd3845b2624e9720392fd,31,2022-02-12_10h46.14.787,lexical_decision_task_DD_L3,2021.2.3,Linux armv8l,59.93407252,,,,,,,,,,0.967,0,,,,,,,,,,,,,,,,,,,,,,,0.274559095,-0.294931801,1,0,0,,,,,,,CHALK,C,z,m,./images/CHALK.png,,,,,,,,,,,,,,,,,,,,,0,0.274559095,-0.294931801,1,0,0,0.967,button_right_test,0,56,56,109,1
,,,,,,,,,,,,,,,,,616dd3845b2624e9720392fd,31,2022-02-12_10h46.14.787,lexical_decision_task_DD_L3,2021.2.3,Linux armv8l,59.93407252,,,,,,,,,,0.9852,1,,,,,,,,,,,,,,,,,,,,,,,-0.307396417,-0.306850989,1,0,0,,,,,,,VALLEY,HB,z,m,./images/VALLEYHB.png,,,,,,,,,,,,,,,,,,,,,0,-0.307396417,-0.306850989,1,0,0,0.9852,button_left_test,0,57,57,152,1
,,,,,,,,,,,,,,,,,616dd3845b2624e9720392fd,31,2022-02-12_10h46.14.787,lexical_decision_task_DD_L3,2021.2.3,Linux armv8l,59.93407252,,,,,,,,,,0.8995,1,,,,,,,,,,,,,,,,,,,,,,,0.357939266,-0.301974991,1,0,0,,,,,,,LADDER,HB,m,m,./images/LADDERHB.png,,,,,,,,,,,,,,,,,,,,,0,0.357939266,-0.301974991,1,0,0,0.8995,button_right_test,0,58,58,38,1
,,,,,,,,,,,,,,,,,616dd3845b2624e9720392fd,31,2022-02-12_10h46.14.787,lexical_decision_task_DD_L3,2021.2.3,Linux armv8l,59.93407252,,,,,,,,,,0.9603,1,,,,,,,,,,,,,,,,,,,,,,,0.315273915,-0.288430519,1,0,0,,,,,,,CRADLE,HB,m,m,./images/CRADLEHB.png,,,,,,,,,,,,,,,,,,,,,0,0.315273915,-0.288430519,1,0,0,0.9603,button_right_test,0,59,59,20,1
,,,,,,,,,,,,,,,,,616dd3845b2624e9720392fd,31,2022-02-12_10h46.14.787,lexical_decision_task_DD_L3,2021.2.3,Linux armv8l,59.93407252,,,,,,,,,,0.9949,1,,,,,,,,,,,,,,,,,,,,,,,-0.344941917,-0.299266037,1,0,0,,,,,,,CHERRY,LB,z,m,./images/CHERRYLB.png,,,,,,,,,,,,,,,,,,,,,0,-0.344941917,-0.299266037,1,0,0,0.9949,button_left_test,0,60,60,138,1
,,,,,,,,,,,,,,,,,616dd3845b2624e9720392fd,31,2022-02-12_10h46.14.787,lexical_decision_task_DD_L3,2021.2.3,Linux armv8l,59.93407252,,,,,,,,,,0.7557,0,,,,,,,,,,,,,,,,,,,,,,,-0.331289014,-0.305225706,1,0,0,,,,,,,SQUARE,LB,m,m,./images/SQUARELB.png,,,,,,,,,,,,,,,,,,,,,0,-0.331289014,-0.305225706,1,0,0,0.7557,button_left_test,0,61,61,6,1
,,,,,,,,,,,,,,,,,616dd3845b2624e9720392fd,31,2022-02-12_10h46.14.787,lexical_decision_task_DD_L3,2021.2.3,Linux armv8l,59.93407252,,,,,,,,,,1.1887,0,,,,,,,,,,,,,,,,,,,,,,,-0.317148486,-0.310101704,1,0,0,,,,,,,ATTIC,LB,m,m,./images/ATTICLB.png,,,,,,,,,,,,,,,,,,,,,0,-0.317148486,-0.310101704,1,0,0,1.1887,button_left_test,0,62,62,27,1
,,,,,,,,,,,,,,,,,616dd3845b2624e9720392fd,31,2022-02-12_10h46.14.787,lexical_decision_task_DD_L3,2021.2.3,Linux armv8l,59.93407252,,,,,,,,,,0.9239,1,,,,,,,,,,,,,,,,,,,,,,,-0.311053415,-0.29439004,1,0,0,,,,,,,HAMMER,LB,z,m,./images/HAMMERLB.png,,,,,,,,,,,,,,,,,,,,,0,-0.311053415,-0.29439004,1,0,0,0.9239,button_left_test,0,63,63,159,1
,,,,,,,,,,,,,,,,,616dd3845b2624e9720392fd,31,2022-02-12_10h46.14.787,lexical_decision_task_DD_L3,2021.2.3,Linux armv8l,59.93407252,,,,,,,,,,0.7694,1,,,,,,,,,,,,,,,,,,,,,,,-0.310565837,-0.294931801,1,0,0,,,,,,,STAIN,LB,z,m,./images/STAINLB.png,,,,,,,,,,,,,,,,,,,,,0,-0.310565837,-0.294931801,1,0,0,0.7694,button_left_test,0,64,64,90,1
,,,,,,,,,,,,,,,,,616dd3845b2624e9720392fd,31,2022-02-12_10h46.14.787,lexical_decision_task_DD_L3,2021.2.3,Linux armv8l,59.93407252,,,,,,,,,,0.8595,1,,,,,,,,,,,,,,,,,,,,,,,-0.292524486,-0.312268896,1,0,0,,,,,,,PILOT,HB,z,m,./images/PILOTHB.png,,,,,,,,,,,,,,,,,,,,,0,-0.292524486,-0.312268896,1,0,0,0.8595,button_left_test,0,65,65,134,1
,,,,,,,,,,,,,,,,,616dd3845b2624e9720392fd,31,2022-02-12_10h46.14.787,lexical_decision_task_DD_L3,2021.2.3,Linux armv8l,59.93407252,,,,,,,,,,0.9354,1,,,,,,,,,,,,,,,,,,,,,,,-0.286917029,-0.312810657,1,0,0,,,,,,,HOCKEY,HB,z,m,./images/HOCKEYHB.png,,,,,,,,,,,,,,,,,,,,,0,-0.286917029,-0.312810657,1,0,0,0.9354,button_left_test,0,66,66,116,1
,,,,,,,,,,,,,,,,,616dd3845b2624e9720392fd,31,2022-02-12_10h46.14.787,lexical_decision_task_DD_L3,2021.2.3,Linux armv8l,59.93407252,,,,,,,,,,1.5035,1,,,,,,,,,,,,,,,,,,,,,,,-0.324706328,-0.278678376,1,0,0,,,,,,,COLLAR,LB,z,m,./images/COLLARLB.png,,,,,,,,,,,,,,,,,,,,,0,-0.324706328,-0.278678376,1,0,0,1.5035,button_left_test,0,67,67,99,1
,,,,,,,,,,,,,,,,,616dd3845b2624e9720392fd,31,2022-02-12_10h46.14.787,lexical_decision_task_DD_L3,2021.2.3,Linux armv8l,59.93407252,,,,,,,,,,0.6359,1,,,,,,,,,,,,,,,,,,,,,,,-0.238644239,-0.294931801,1,0,0,,,,,,,SAUCE,LB,z,m,./images/SAUCELB.png,,,,,,,,,,,,,,,,,,,,,0,-0.238644239,-0.294931801,1,0,0,0.6359,button_left_test,0,68,68,135,1
,,,,,,,,,,,,,,,,,616dd3845b2624e9720392fd,31,2022-02-12_10h46.14.787,lexical_decision_task_DD_L3,2021.2.3,Linux armv8l,59.93407252,,,,,,,,,,1.0202,0,,,,,,,,,,,,,,,,,,,,,,,0.278947404,-0.318770325,1,0,0,,,,,,,STEAK,C,z,m,./images/STEAK.png,,,,,,,,,,,,,,,,,,,,,0,0.278947404,-0.318770325,1,0,0,1.0202,button_right_test,0,69,69,115,1
,,,,,,,,,,,,,,,,,616dd3845b2624e9720392fd,31,2022-02-12_10h46.14.787,lexical_decision_task_DD_L3,2021.2.3,Linux armv8l,59.93407252,,,,,,,,,,1.2203,1,,,,,,,,,,,,,,,,,,,,,,,-0.323731135,-0.299266037,1,0,0,,,,,,,MUMMY,C,z,m,./images/MUMMY.png,,,,,,,,,,,,,,,,,,,,,0,-0.323731135,-0.299266037,1,0,0,1.2203,button_left_test,0,70,70,130,1
,,,,,,,,,,,,,,,,,616dd3845b2624e9720392fd,31,2022-02-12_10h46.14.787,lexical_decision_task_DD_L3,2021.2.3,Linux armv8l,59.93407252,,,,,,,,,,0.7564,1,,,,,,,,,,,,,,,,,,,,,,,-0.315929487,-0.322020892,1,0,0,,,,,,,POSTER,HB,z,m,./images/POSTERHB.png,,,,,,,,,,,,,,,,,,,,,0,-0.315929487,-0.322020892,1,0,0,0.7564,button_left_test,0,71,71,137,1
,,,,,,,,,,,,,,,,,616dd3845b2624e9720392fd,31,2022-02-12_10h46.14.787,lexical_decision_task_DD_L3,2021.2.3,Linux armv8l,59.93407252,,,,,,,,,,1.0775,0,,,,,,,,,,,,,,,,,,,,,,,-0.330801399,-0.268926232,1,0,0,,,,,,,PURSE,HB,m,m,./images/PURSEHB.png,,,,,,,,,,,,,,,,,,,,,0,-0.330801399,-0.268926232,1,0,0,1.0775,button_left_test,0,72,72,62,1
,,,,,,,,,,,,,,,,,616dd3845b2624e9720392fd,31,2022-02-12_10h46.14.787,lexical_decision_task_DD_L3,2021.2.3,Linux armv8l,59.93407252,,,,,,,,,,1.0743,1,,,,,,,,,,,,,,,,,,,,,,,0.289918622,-0.328522321,1,0,0,,,,,,,CANYON,C,m,m,./images/CANYON.png,,,,,,,,,,,,,,,,,,,,,0,0.289918622,-0.328522321,1,0,0,1.0743,button_right_test,0,73,73,34,1
,,,,,,,,,,,,,,,,,616dd3845b2624e9720392fd,31,2022-02-12_10h46.14.787,lexical_decision_task_DD_L3,2021.2.3,Linux armv8l,59.93407252,,,,,,,,,,1.2803,1,,,,,,,,,,,,,,,,,,,,,,,0.322344289,-0.303600422,1,0,0,,,,,,,MELON,C,m,m,./images/MELON.png,,,,,,,,,,,,,,,,,,,,,0,0.322344289,-0.303600422,1,0,0,1.2803,button_right_test,0,74,74,22,1
,,,,,,,,,,,,,,,,,616dd3845b2624e9720392fd,31,2022-02-12_10h46.14.787,lexical_decision_task_DD_L3,2021.2.3,Linux armv8l,59.93407252,,,,,,,,,,0.9748,0,,,,,,,,,,,,,,,,,,,,,,,0.296745078,-0.285179805,1,0,0,,,,,,,CRATER,LB,z,m,./images/CRATERLB.png,,,,,,,,,,,,,,,,,,,,,0,0.296745078,-0.285179805,1,0,0,0.9748,button_right_test,0,75,75,87,1
,,,,,,,,,,,,,,,,,616dd3845b2624e9720392fd,31,2022-02-12_10h46.14.787,lexical_decision_task_DD_L3,2021.2.3,Linux armv8l,59.93407252,,,,,,,,,,3.6647,0,,,,,,,,,,,,,,,,,,,,,,,0.324050903,-0.335565511,1,0,0,,,,,,,CLOUD,HB,z,m,./images/CLOUDHB.png,,,,,,,,,,,,,,,,,,,,,0,0.324050903,-0.335565511,1,0,0,3.6647,button_right_test,0,76,76,110,1
,,,,,,,,,,,,,,,,,616dd3845b2624e9720392fd,31,2022-02-12_10h46.14.787,lexical_decision_task_DD_L3,2021.2.3,Linux armv8l,59.93407252,,,,,,,,,,1.5998,0,,,,,,,,,,,,,,,,,,,,,,,-0.307152609,-0.336107273,1,0,0,,,,,,,QUILL,C,m,m,./images/QUILL.png,,,,,,,,,,,,,,,,,,,,,0,-0.307152609,-0.336107273,1,0,0,1.5998,button_left_test,0,77,77,31,1
,,,,,,,,,,,,,,,,,616dd3845b2624e9720392fd,31,2022-02-12_10h46.14.787,lexical_decision_task_DD_L3,2021.2.3,Linux armv8l,59.93407252,,,,,,,,,,5.7074,0,,,,,,,,,,,,,,,,,,,,,,,-0.321049329,-0.291139325,1,0,0,,,,,,,LITTER,LB,m,m,./images/LITTERLB.png,,,,,,,,,,,,,,,,,,,,,0,-0.321049329,-0.291139325,1,0,0,5.7074,button_left_test,0,78,78,78,1
,,,,,,,,,,,,,,,,,616dd3845b2624e9720392fd,31,2022-02-12_10h46.14.787,lexical_decision_task_DD_L3,2021.2.3,Linux armv8l,59.93407252,,,,,,,,,,1.0395,1,,,,,,,,,,,,,,,,,,,,,,,-0.316904679,-0.285179805,1,0,0,,,,,,,STREAM,HB,z,m,./images/STREAMHB.png,,,,,,,,,,,,,,,,,,,,,0,-0.316904679,-0.285179805,1,0,0,1.0395,button_left_test,0,79,79,125,1
,,,,,,,,,,,,,,,,,616dd3845b2624e9720392fd,31,2022-02-12_10h46.14.787,lexical_decision_task_DD_L3,2021.2.3,Linux armv8l,59.93407252,,,,,,,,,,1.125,0,,,,,,,,,,,,,,,,,,,,,,,0.272120948,-0.31497785,1,0,0,,,,,,,FENCE,HB,z,m,./images/FENCEHB.png,,,,,,,,,,,,,,,,,,,,,0,0.272120948,-0.31497785,1,0,0,1.125,button_right_test,0,80,80,98,1
,,,,,,,,,,,,,,,,,616dd3845b2624e9720392fd,31,2022-02-12_10h46.14.787,lexical_decision_task_DD_L3,2021.2.3,Linux armv8l,59.93407252,,,,,,,,,,5.6781,0,,,,,,,,,,,,,,,,,,,,,,,-0.319586485,-0.270009902,1,0,0,,,,,,,DRUMS,C,m,m,./images/DRUMS.png,,,,,,,,,,,,,,,,,,,,,0,-0.319586485,-0.270009902,1,0,0,5.6781,button_left_test,0,81,81,49,1
,,,,,,,,,,,,,,,,,616dd3845b2624e9720392fd,31,2022-02-12_10h46.14.787,lexical_decision_task_DD_L3,2021.2.3,Linux armv8l,59.93407252,,,,,,,,,,0.6662,1,,,,,,,,,,,,,,,,,,,,,,,-0.315929487,-0.299266037,1,0,0,,,,,,,PISTOL,HB,z,m,./images/PISTOLHB.png,,,,,,,,,,,,,,,,,,,,,0,-0.315929487,-0.299266037,1,0,0,0.6662,button_left_test,0,82,82,113,1
,,,,,,,,,,,,,,,,,616dd3845b2624e9720392fd,31,2022-02-12_10h46.14.787,lexical_decision_task_DD_L3,2021.2.3,Linux armv8l,59.93407252,,,,,,,,,,0.9555,1,,,,,,,,,,,,,,,,,,,,,,,-0.010933145,-0.351818937,1,0,0,,,,,,,PLANK,C,m,m,./images/PLANK.png,break_done_button,,,,,,,,,,,,,,,,,,,,0,0.307716073,-0.312810657,1,0,0,0.9555,button_right_test,0,83,83,1,1
,,,,,,,,,,,,,,,,,616dd3845b2624e9720392fd,31,2022-02-12_10h46.14.787,lexical_decision_task_DD_L3,2021.2.3,Linux armv8l,59.93407252,,,,,,,,,,2.1968,1,,,,,,,,,,,,,,,,,,,,,,,0.302352461,-0.300349708,1,0,0,,,,,,,COUCH,HB,m,m,./images/COUCHHB.png,,,,,,,,,,,,,,,,,,,,,0,0.302352461,-0.300349708,1,0,0,2.1968,button_right_test,0,84,84,77,1
,,,,,,,,,,,,,,,,,616dd3845b2624e9720392fd,31,2022-02-12_10h46.14.787,lexical_decision_task_DD_L3,2021.2.3,Linux armv8l,59.93407252,,,,,,,,,,1.6376,0,,,,,,,,,,,,,,,,,,,,,,,-0.324706328,-0.293306517,1,0,0,,,,,,,SPORT,LB,m,m,./images/SPORTLB.png,,,,,,,,,,,,,,,,,,,,,0,-0.324706328,-0.293306517,1,0,0,1.6376,button_left_test,0,85,85,48,1
,,,,,,,,,,,,,,,,,616dd3845b2624e9720392fd,31,2022-02-12_10h46.14.787,lexical_decision_task_DD_L3,2021.2.3,Linux armv8l,59.93407252,,,,,,,,,,1.0133,0,,,,,,,,,,,,,,,,,,,,,,,-0.344454312,-0.31497785,1,0,0,,,,,,,WRIST,C,m,m,./images/WRIST.png,,,,,,,,,,,,,,,,,,,,,0,-0.344454312,-0.31497785,1,0,0,1.0133,button_left_test,0,86,86,25,1
,,,,,,,,,,,,,,,,,616dd3845b2624e9720392fd,31,2022-02-12_10h46.14.787,lexical_decision_task_DD_L3,2021.2.3,Linux armv8l,59.93407252,,,,,,,,,,0.9736,0,,,,,,,,,,,,,,,,,,,,,,,-0.335433645,-0.338816226,1,0,0,,,,,,,FINGER,LB,m,m,./images/FINGERLB.png,,,,,,,,,,,,,,,,,,,,,0,-0.335433645,-0.338816226,1,0,0,0.9736,button_left_test,0,87,87,3,1
,,,,,,,,,,,,,,,,,616dd3845b2624e9720392fd,31,2022-02-12_10h46.14.787,lexical_decision_task_DD_L3,2021.2.3,Linux armv8l,59.93407252,,,,,,,,,,1.0611,1,,,,,,,,,,,,,,,,,,,,,,,0.356964111,-0.293848278,1,0,0,,,,,,,TRIPOD,LB,m,m,./images/TRIPODLB.png,,,,,,,,,,,,,,,,,,,,,0,0.356964111,-0.293848278,1,0,0,1.0611,button_right_test,0,88,88,54,1
