key_resp.keys,instr_done_touch.x,instr_done_touch.y,instr_done_touch.leftButton,instr_done_touch.midButton,instr_done_touch.rightButton,instr_done_touch.clicked_name,instruction_pages.thisRepN,instruction_pages.thisTrialN,instruction_pages.thisN,instruction_pages.thisIndex,instruction_pages.ran,pageN,phase,instruct_text,has_image,instruct_image,participant,age,date,expName,psychopyVersion,OS,frameRate,key_resp.rt,response.keys,response.corr,response.rt,touch_resp.x,touch_resp.y,touch_resp.leftButton,touch_resp.midButton,touch_resp.rightButton,touch_resp.time,touch_resp.clicked_name,rt,corr,practrials.thisRepN,practrials.thisTrialN,practrials.thisN,practrials.thisIndex,practrials.ran,TrialID,Target,corrAns,end_of_practice_trials_pages.thisRepN,end_of_practice_trials_pages.thisTrialN,end_of_practice_trials_pages.thisN,end_of_practice_trials_pages.thisIndex,end_of_practice_trials_pages.ran,key_resp_2.keys,key_resp_2.corr,key_resp_2.rt,targ_click.x,targ_click.y,targ_click.leftButton,targ_click.midButton,targ_click.rightButton,targ_click.time,targ_click.clicked_name,break_done_touch.x,break_done_touch.y,break_done_touch.leftButton,break_done_touch.midButton,break_done_touch.rightButton,break_done_keyboard.keys,maintrials.thisRepN,maintrials.thisTrialN,maintrials.thisN,maintrials.thisIndex,maintrials.ran,string,blur,study,lex,stim_path,break_done_keyboard.rt,mouse_2.x,mouse_2.y,mouse_2.leftButton,mouse_2.midButton,mouse_2.rightButton,mouse_2.clicked_name,slider.response,slider.rt,trials.thisRepN,trials.thisTrialN,trials.thisN,trials.thisIndex,trials.ran,test_instructions.thisRepN,test_instructions.thisTrialN,test_instructions.thisN,test_instructions.thisIndex,test_instructions.ran,key_resp_3.keys,key_resp_3.corr,key_resp_3.rt,test_click.x,test_click.y,test_click.leftButton,test_click.midButton,test_click.rightButton,test_click.time,test_click.clicked_name,test_phase.thisRepN,test_phase.thisTrialN,test_phase.thisN,test_phase.thisIndex,test_phase.ran
,-0.12,-0.367777778,1,0,0,instr_done_button,0,0,0,0,1,1,instructions,"INSTRUCTIONS
At the start of each trial, look at the plus sign  (+) in the center of the screen.  This tells you that a trial is about to begin and where to look. Second, the plus sign will disappear and a string of letters will appear. Your task is to determine if the string of letters is a word or not. If the item is a word press the M key (on keyboard)  or touch the word button (phone/tablet).  If the item is not a word,  press the  Z key (on keyboard)  or touch the nonword button (on phone/tablet). 
Press the space bar or touch  continue.",0,,61bb3a6540db417c1a13901a,42,2022-02-12_13h22.55.149,lexical_decision_task_DD_L5,2021.2.3,MacIntel,58.82352941,,,,,,,,,,,,,,,,,,,,,,,,,,,,,,,,,,,,,,,,,,,,,,,,,,,,,,,,,,,,,,,,,,,,,,,,,,,,,,,,,,,,,,
,-0.017777778,-0.397777778,1,0,0,instr_done_button,0,1,1,1,1,2,instructions,"If your device has a keyboard, press the 'Z' key for nonwords and the 'M' key for words.





Press the space bar or touch the button below to continue.",0,keyboard-example.gif,61bb3a6540db417c1a13901a,42,2022-02-12_13h22.55.149,lexical_decision_task_DD_L5,2021.2.3,MacIntel,58.82352941,,,,,,,,,,,,,,,,,,,,,,,,,,,,,,,,,,,,,,,,,,,,,,,,,,,,,,,,,,,,,,,,,,,,,,,,,,,,,,,,,,,,,,
space,-0.004444444,-0.406666667,0,0,0,,0,2,2,2,1,3,instructions,"If you are using a touchscreen only device, use the buttons on the screen. Do not use the mouse.





Press the space bar or touch the button below to continue.",0,touchscreen-example.gif,61bb3a6540db417c1a13901a,42,2022-02-12_13h22.55.149,lexical_decision_task_DD_L5,2021.2.3,MacIntel,58.82352941,2.841,,,,,,,,,,,,,,,,,,,,,,,,,,,,,,,,,,,,,,,,,,,,,,,,,,,,,,,,,,,,,,,,,,,,,,,,,,,,,,,,,,,,,
space,-0.004444444,-0.406666667,0,0,0,,0,3,3,3,1,4,instructions,"It is very important that you respond as quickly and accurately as possible, as each letter string will only be on the screen for two seconds. If you do not respond within this time, the message 'Too slow!' will be displayed and the experiment will progress to the next letter string. The first 20 trials will be practice trials and you will receive feedback on your answers. 

Press the space bar or touch the button below to start the practice trials.",0,,61bb3a6540db417c1a13901a,42,2022-02-12_13h22.55.149,lexical_decision_task_DD_L5,2021.2.3,MacIntel,58.82352941,2.463,,,,,,,,,,,,,,,,,,,,,,,,,,,,,,,,,,,,,,,,,,,,,,,,,,,,,,,,,,,,,,,,,,,,,,,,,,,,,,,,,,,,,
,,,,,,,,,,,,,,,,,61bb3a6540db417c1a13901a,42,2022-02-12_13h22.55.149,lexical_decision_task_DD_L5,2021.2.3,MacIntel,58.82352941,,m,1,1.486,,,,,,,,1.486,1,0,0,0,7,1,1001,VOLUME,m,,,,,,,,,,,,,,,,,,,,,,,,,,,,,,,,,,,,,,,,,,,,,,,,,,,,,,,,,,,,,,,,,
,,,,,,,,,,,,,,,,,61bb3a6540db417c1a13901a,42,2022-02-12_13h22.55.149,lexical_decision_task_DD_L5,2021.2.3,MacIntel,58.82352941,,m,1,0.975,,,,,,,,0.975,1,0,1,1,3,1,1001,MATRIX,m,,,,,,,,,,,,,,,,,,,,,,,,,,,,,,,,,,,,,,,,,,,,,,,,,,,,,,,,,,,,,,,,,
,,,,,,,,,,,,,,,,,61bb3a6540db417c1a13901a,42,2022-02-12_13h22.55.149,lexical_decision_task_DD_L5,2021.2.3,MacIntel,58.82352941,,z,1,1.21,,,,,,,,1.21,1,0,2,2,11,1,1001,RASHET,z,,,,,,,,,,,,,,,,,,,,,,,,,,,,,,,,,,,,,,,,,,,,,,,,,,,,,,,,,,,,,,,,,
,,,,,,,,,,,,,,,,,61bb3a6540db417c1a13901a,42,2022-02-12_13h22.55.149,lexical_decision_task_DD_L5,2021.2.3,MacIntel,58.82352941,,m,1,2.274,,,,,,,,2.274,1,0,3,3,4,1,1001,SQUEAK,m,,,,,,,,,,,,,,,,,,,,,,,,,,,,,,,,,,,,,,,,,,,,,,,,,,,,,,,,,,,,,,,,,
,,,,,,,,,,,,,,,,,61bb3a6540db417c1a13901a,42,2022-02-12_13h22.55.149,lexical_decision_task_DD_L5,2021.2.3,MacIntel,58.82352941,,z,1,1.426,,,,,,,,1.426,1,0,4,4,15,1,1001,WHAISE,z,,,,,,,,,,,,,,,,,,,,,,,,,,,,,,,,,,,,,,,,,,,,,,,,,,,,,,,,,,,,,,,,,
,,,,,,,,,,,,,,,,,61bb3a6540db417c1a13901a,42,2022-02-12_13h22.55.149,lexical_decision_task_DD_L5,2021.2.3,MacIntel,58.82352941,,m,1,0.767,,,,,,,,0.767,1,0,5,5,6,1,1001,ZOMBIE,m,,,,,,,,,,,,,,,,,,,,,,,,,,,,,,,,,,,,,,,,,,,,,,,,,,,,,,,,,,,,,,,,,
,,,,,,,,,,,,,,,,,61bb3a6540db417c1a13901a,42,2022-02-12_13h22.55.149,lexical_decision_task_DD_L5,2021.2.3,MacIntel,58.82352941,,z,1,0.762,,,,,,,,0.762,1,0,6,6,13,1,1001,ROUPET,z,,,,,,,,,,,,,,,,,,,,,,,,,,,,,,,,,,,,,,,,,,,,,,,,,,,,,,,,,,,,,,,,,
,,,,,,,,,,,,,,,,,61bb3a6540db417c1a13901a,42,2022-02-12_13h22.55.149,lexical_decision_task_DD_L5,2021.2.3,MacIntel,58.82352941,,m,1,1.007,,,,,,,,1.007,1,0,7,7,2,1,1001,ALMOND,m,,,,,,,,,,,,,,,,,,,,,,,,,,,,,,,,,,,,,,,,,,,,,,,,,,,,,,,,,,,,,,,,,
,,,,,,,,,,,,,,,,,61bb3a6540db417c1a13901a,42,2022-02-12_13h22.55.149,lexical_decision_task_DD_L5,2021.2.3,MacIntel,58.82352941,,m,1,0.875,,,,,,,,0.875,1,0,8,8,0,1,1001,UTOPIA,m,,,,,,,,,,,,,,,,,,,,,,,,,,,,,,,,,,,,,,,,,,,,,,,,,,,,,,,,,,,,,,,,,
,,,,,,,,,,,,,,,,,61bb3a6540db417c1a13901a,42,2022-02-12_13h22.55.149,lexical_decision_task_DD_L5,2021.2.3,MacIntel,58.82352941,,z,1,0.81,,,,,,,,0.81,1,0,9,9,8,1,1001,ASLERT,z,,,,,,,,,,,,,,,,,,,,,,,,,,,,,,,,,,,,,,,,,,,,,,,,,,,,,,,,,,,,,,,,,
,,,,,,,,,,,,,,,,,61bb3a6540db417c1a13901a,42,2022-02-12_13h22.55.149,lexical_decision_task_DD_L5,2021.2.3,MacIntel,58.82352941,,z,1,0.943,,,,,,,,0.943,1,0,10,10,12,1,1001,SPRINY,z,,,,,,,,,,,,,,,,,,,,,,,,,,,,,,,,,,,,,,,,,,,,,,,,,,,,,,,,,,,,,,,,,
,,,,,,,,,,,,,,,,,61bb3a6540db417c1a13901a,42,2022-02-12_13h22.55.149,lexical_decision_task_DD_L5,2021.2.3,MacIntel,58.82352941,,z,1,1.06,,,,,,,,1.06,1,0,11,11,10,1,1001,INLADE,z,,,,,,,,,,,,,,,,,,,,,,,,,,,,,,,,,,,,,,,,,,,,,,,,,,,,,,,,,,,,,,,,,
,,,,,,,,,,,,,,,,,61bb3a6540db417c1a13901a,42,2022-02-12_13h22.55.149,lexical_decision_task_DD_L5,2021.2.3,MacIntel,58.82352941,,z,1,0.899,,,,,,,,0.899,1,0,12,12,14,1,1001,THRALE,z,,,,,,,,,,,,,,,,,,,,,,,,,,,,,,,,,,,,,,,,,,,,,,,,,,,,,,,,,,,,,,,,,
,,,,,,,,,,,,,,,,,61bb3a6540db417c1a13901a,42,2022-02-12_13h22.55.149,lexical_decision_task_DD_L5,2021.2.3,MacIntel,58.82352941,,m,1,0.617,,,,,,,,0.617,1,0,13,13,1,1,1001,ADJUST,m,,,,,,,,,,,,,,,,,,,,,,,,,,,,,,,,,,,,,,,,,,,,,,,,,,,,,,,,,,,,,,,,,
,,,,,,,,,,,,,,,,,61bb3a6540db417c1a13901a,42,2022-02-12_13h22.55.149,lexical_decision_task_DD_L5,2021.2.3,MacIntel,58.82352941,,m,1,1,,,,,,,,1,1,0,14,14,5,1,1001,OBTAIN,m,,,,,,,,,,,,,,,,,,,,,,,,,,,,,,,,,,,,,,,,,,,,,,,,,,,,,,,,,,,,,,,,,
,,,,,,,,,,,,,,,,,61bb3a6540db417c1a13901a,42,2022-02-12_13h22.55.149,lexical_decision_task_DD_L5,2021.2.3,MacIntel,58.82352941,,z,1,1.217,,,,,,,,1.217,1,0,15,15,9,1,1001,FARINY,z,,,,,,,,,,,,,,,,,,,,,,,,,,,,,,,,,,,,,,,,,,,,,,,,,,,,,,,,,,,,,,,,,
,-0.04,-0.41,1,0,0,instr_done_button,,,,,,1,end_of_practice,"You have completed the practice trials. During the experimental trials, you will not receive feedback. 
Before you begin, please ensure that you are in a comfortable and quiet location and will not be disturbed for about 15 minutes, as we cannot use your data if you do not complete all the trials. 
 When you are ready to start the experimental trials, please press space or touch the button below.",,,61bb3a6540db417c1a13901a,42,2022-02-12_13h22.55.149,lexical_decision_task_DD_L5,2021.2.3,MacIntel,58.82352941,,,,,,,,,,,,,,,,,,,,,,0,0,0,0,1,,,,,,,,,,,,,,,,,,,,,,,,,,,,,,,,,,,,,,,,,,,,,,,,,,,,,,,,,,,,
,,,,,,,,,,,,,,,,,61bb3a6540db417c1a13901a,42,2022-02-12_13h22.55.149,lexical_decision_task_DD_L5,2021.2.3,MacIntel,58.82352941,,,,,,,,,,,,5.407,1,,,,,,,,,,,,,,z,1,5.407,,,,,,,,0.034444444,-0.022222222,0,0,0,,0,0,0,112,1,MYING,HB,old,z,./images/MYINGHB.png,,,,,,,,,,,,,,,,,,,,,,,,,,,,,,,,,,
,,,,,,,,,,,,,,,,,61bb3a6540db417c1a13901a,42,2022-02-12_13h22.55.149,lexical_decision_task_DD_L5,2021.2.3,MacIntel,58.82352941,,,,,,,,,,,,1.659,1,,,,,,,,,,,,,,m,1,1.659,,,,,,,,0.034444444,-0.022222222,0,0,0,,0,1,1,25,1,CHALK,LB,old,m,./images/CHALKLB.png,,,,,,,,,,,,,,,,,,,,,,,,,,,,,,,,,,
,,,,,,,,,,,,,,,,,61bb3a6540db417c1a13901a,42,2022-02-12_13h22.55.149,lexical_decision_task_DD_L5,2021.2.3,MacIntel,58.82352941,,,,,,,,,,,,0.71,1,,,,,,,,,,,,,,m,1,0.71,,,,,,,,0.034444444,-0.022222222,0,0,0,,0,2,2,16,1,GRAPE,LB,old,m,./images/GRAPELB.png,,,,,,,,,,,,,,,,,,,,,,,,,,,,,,,,,,
,,,,,,,,,,,,,,,,,61bb3a6540db417c1a13901a,42,2022-02-12_13h22.55.149,lexical_decision_task_DD_L5,2021.2.3,MacIntel,58.82352941,,,,,,,,,,,,1.261,1,,,,,,,,,,,,,,m,1,1.261,,,,,,,,0.034444444,-0.022222222,0,0,0,,0,3,3,20,1,GRANNY,C,old,m,./images/GRANNY.png,,,,,,,,,,,,,,,,,,,,,,,,,,,,,,,,,,
,,,,,,,,,,,,,,,,,61bb3a6540db417c1a13901a,42,2022-02-12_13h22.55.149,lexical_decision_task_DD_L5,2021.2.3,MacIntel,58.82352941,,,,,,,,,,,,1.528,1,,,,,,,,,,,,,,z,1,1.528,,,,,,,,0.034444444,-0.022222222,0,0,0,,0,4,4,148,1,JOMS,HB,old,z,./images/JOMSHB.png,,,,,,,,,,,,,,,,,,,,,,,,,,,,,,,,,,
,,,,,,,,,,,,,,,,,61bb3a6540db417c1a13901a,42,2022-02-12_13h22.55.149,lexical_decision_task_DD_L5,2021.2.3,MacIntel,58.82352941,,,,,,,,,,,,2.579,0,,,,,,,,,,,,,,m,0,2.579,,,,,,,,0.034444444,-0.022222222,0,0,0,,0,5,5,142,1,PLASK,HB,old,z,./images/PLASKHB.png,,,,,,,,,,,,,,,,,,,,,,,,,,,,,,,,,,
,,,,,,,,,,,,,,,,,61bb3a6540db417c1a13901a,42,2022-02-12_13h22.55.149,lexical_decision_task_DD_L5,2021.2.3,MacIntel,58.82352941,,,,,,,,,,,,0.996,1,,,,,,,,,,,,,,m,1,0.996,,,,,,,,0.034444444,-0.022222222,0,0,0,,0,6,6,73,1,GLOVE,LB,old,m,./images/GLOVELB.png,,,,,,,,,,,,,,,,,,,,,,,,,,,,,,,,,,
,,,,,,,,,,,,,,,,,61bb3a6540db417c1a13901a,42,2022-02-12_13h22.55.149,lexical_decision_task_DD_L5,2021.2.3,MacIntel,58.82352941,,,,,,,,,,,,0.941,1,,,,,,,,,,,,,,z,1,0.941,,,,,,,,0.034444444,-0.022222222,0,0,0,,0,7,7,108,1,GRUET,C,old,z,./images/GRUET.png,,,,,,,,,,,,,,,,,,,,,,,,,,,,,,,,,,
,,,,,,,,,,,,,,,,,61bb3a6540db417c1a13901a,42,2022-02-12_13h22.55.149,lexical_decision_task_DD_L5,2021.2.3,MacIntel,58.82352941,,,,,,,,,,,,1.1,1,,,,,,,,,,,,,,m,1,1.1,,,,,,,,0.034444444,-0.022222222,0,0,0,,0,8,8,24,1,FLESH,HB,old,m,./images/FLESHHB.png,,,,,,,,,,,,,,,,,,,,,,,,,,,,,,,,,,
,,,,,,,,,,,,,,,,,61bb3a6540db417c1a13901a,42,2022-02-12_13h22.55.149,lexical_decision_task_DD_L5,2021.2.3,MacIntel,58.82352941,,,,,,,,,,,,1.217,1,,,,,,,,,,,,,,m,1,1.217,,,,,,,,0.034444444,-0.022222222,0,0,0,,0,9,9,6,1,STAIN,HB,old,m,./images/STAINHB.png,,,,,,,,,,,,,,,,,,,,,,,,,,,,,,,,,,
,,,,,,,,,,,,,,,,,61bb3a6540db417c1a13901a,42,2022-02-12_13h22.55.149,lexical_decision_task_DD_L5,2021.2.3,MacIntel,58.82352941,,,,,,,,,,,,0.815,1,,,,,,,,,,,,,,z,1,0.815,,,,,,,,0.034444444,-0.022222222,0,0,0,,0,10,10,96,1,KEAMS,C,old,z,./images/KEAMS.png,,,,,,,,,,,,,,,,,,,,,,,,,,,,,,,,,,
,,,,,,,,,,,,,,,,,61bb3a6540db417c1a13901a,42,2022-02-12_13h22.55.149,lexical_decision_task_DD_L5,2021.2.3,MacIntel,58.82352941,,,,,,,,,,,,0.85,1,,,,,,,,,,,,,,m,1,0.85,,,,,,,,0.034444444,-0.022222222,0,0,0,,0,11,11,0,1,WALNUT,HB,old,m,./images/WALNUTHB.png,,,,,,,,,,,,,,,,,,,,,,,,,,,,,,,,,,
,,,,,,,,,,,,,,,,,61bb3a6540db417c1a13901a,42,2022-02-12_13h22.55.149,lexical_decision_task_DD_L5,2021.2.3,MacIntel,58.82352941,,,,,,,,,,,,1.011,1,,,,,,,,,,,,,,m,1,1.011,,,,,,,,0.034444444,-0.022222222,0,0,0,,0,12,12,34,1,RAZOR,LB,old,m,./images/RAZORLB.png,,,,,,,,,,,,,,,,,,,,,,,,,,,,,,,,,,
,,,,,,,,,,,,,,,,,61bb3a6540db417c1a13901a,42,2022-02-12_13h22.55.149,lexical_decision_task_DD_L5,2021.2.3,MacIntel,58.82352941,,,,,,,,,,,,1.016,1,,,,,,,,,,,,,,m,1,1.016,,,,,,,,0.034444444,-0.022222222,0,0,0,,0,13,13,54,1,CHERRY,HB,old,m,./images/CHERRYHB.png,,,,,,,,,,,,,,,,,,,,,,,,,,,,,,,,,,
,,,,,,,,,,,,,,,,,61bb3a6540db417c1a13901a,42,2022-02-12_13h22.55.149,lexical_decision_task_DD_L5,2021.2.3,MacIntel,58.82352941,,,,,,,,,,,,0.904,1,,,,,,,,,,,,,,m,1,0.904,,,,,,,,0.034444444,-0.022222222,0,0,0,,0,14,14,37,1,TIGER,LB,old,m,./images/TIGERLB.png,,,,,,,,,,,,,,,,,,,,,,,,,,,,,,,,,,
,,,,,,,,,,,,,,,,,61bb3a6540db417c1a13901a,42,2022-02-12_13h22.55.149,lexical_decision_task_DD_L5,2021.2.3,MacIntel,58.82352941,,,,,,,,,,,,0.928,1,,,,,,,,,,,,,,z,1,0.928,,,,,,,,0.034444444,-0.022222222,0,0,0,,0,15,15,86,1,AIFED,LB,old,z,./images/AIFEDLB.png,,,,,,,,,,,,,,,,,,,,,,,,,,,,,,,,,,
,,,,,,,,,,,,,,,,,61bb3a6540db417c1a13901a,42,2022-02-12_13h22.55.149,lexical_decision_task_DD_L5,2021.2.3,MacIntel,58.82352941,,,,,,,,,,,,1.216,1,,,,,,,,,,,,,,z,1,1.216,,,,,,,,0.034444444,-0.022222222,0,0,0,,0,16,16,102,1,DULLE,C,old,z,./images/DULLE.png,,,,,,,,,,,,,,,,,,,,,,,,,,,,,,,,,,
,,,,,,,,,,,,,,,,,61bb3a6540db417c1a13901a,42,2022-02-12_13h22.55.149,lexical_decision_task_DD_L5,2021.2.3,MacIntel,58.82352941,,,,,,,,,,,,0.967,1,,,,,,,,,,,,,,z,1,0.967,,,,,,,,0.034444444,-0.022222222,0,0,0,,0,17,17,87,1,TRING,C,old,z,./images/TRING.png,,,,,,,,,,,,,,,,,,,,,,,,,,,,,,,,,,
,,,,,,,,,,,,,,,,,61bb3a6540db417c1a13901a,42,2022-02-12_13h22.55.149,lexical_decision_task_DD_L5,2021.2.3,MacIntel,58.82352941,,,,,,,,,,,,0.8,1,,,,,,,,,,,,,,m,1,0.8,,,,,,,,0.034444444,-0.022222222,0,0,0,,0,18,18,27,1,BUTTER,HB,old,m,./images/BUTTERHB.png,,,,,,,,,,,,,,,,,,,,,,,,,,,,,,,,,,
,,,,,,,,,,,,,,,,,61bb3a6540db417c1a13901a,42,2022-02-12_13h22.55.149,lexical_decision_task_DD_L5,2021.2.3,MacIntel,58.82352941,,,,,,,,,,,,0.777,1,,,,,,,,,,,,,,z,1,0.777,,,,,,,,0.034444444,-0.022222222,0,0,0,,0,19,19,158,1,EGECT,LB,old,z,./images/EGECTLB.png,,,,,,,,,,,,,,,,,,,,,,,,,,,,,,,,,,
,,,,,,,,,,,,,,,,,61bb3a6540db417c1a13901a,42,2022-02-12_13h22.55.149,lexical_decision_task_DD_L5,2021.2.3,MacIntel,58.82352941,,,,,,,,,,,,0.762,0,,,,,,,,,,,,,,m,0,0.762,,,,,,,,0.034444444,-0.022222222,0,0,0,,0,20,20,103,1,FLORT,HB,old,z,./images/FLORTHB.png,,,,,,,,,,,,,,,,,,,,,,,,,,,,,,,,,,
,,,,,,,,,,,,,,,,,61bb3a6540db417c1a13901a,42,2022-02-12_13h22.55.149,lexical_decision_task_DD_L5,2021.2.3,MacIntel,58.82352941,,,,,,,,,,,,2.86,1,,,,,,,,,,,,,,z,1,2.86,,,,,,,,0.034444444,-0.022222222,0,0,0,,0,21,21,97,1,CHIDS,HB,old,z,./images/CHIDSHB.png,,,,,,,,,,,,,,,,,,,,,,,,,,,,,,,,,,
,,,,,,,,,,,,,,,,,61bb3a6540db417c1a13901a,42,2022-02-12_13h22.55.149,lexical_decision_task_DD_L5,2021.2.3,MacIntel,58.82352941,,,,,,,,,,,,0.878,1,,,,,,,,,,,,,,m,1,0.878,,,,,,,,0.034444444,-0.022222222,0,0,0,,0,22,22,62,1,MAMMAL,C,old,m,./images/MAMMAL.png,,,,,,,,,,,,,,,,,,,,,,,,,,,,,,,,,,
,,,,,,,,,,,,,,,,,61bb3a6540db417c1a13901a,42,2022-02-12_13h22.55.149,lexical_decision_task_DD_L5,2021.2.3,MacIntel,58.82352941,,,,,,,,,,,,0.99,1,,,,,,,,,,,,,,m,1,0.99,,,,,,,,0.034444444,-0.022222222,0,0,0,,0,23,23,31,1,STEAK,LB,old,m,./images/STEAKLB.png,,,,,,,,,,,,,,,,,,,,,,,,,,,,,,,,,,
,,,,,,,,,,,,,,,,,61bb3a6540db417c1a13901a,42,2022-02-12_13h22.55.149,lexical_decision_task_DD_L5,2021.2.3,MacIntel,58.82352941,,,,,,,,,,,,0.91,1,,,,,,,,,,,,,,m,1,0.91,,,,,,,,0.034444444,-0.022222222,0,0,0,,0,24,24,43,1,STOOL,LB,old,m,./images/STOOLLB.png,,,,,,,,,,,,,,,,,,,,,,,,,,,,,,,,,,
,,,,,,,,,,,,,,,,,61bb3a6540db417c1a13901a,42,2022-02-12_13h22.55.149,lexical_decision_task_DD_L5,2021.2.3,MacIntel,58.82352941,,,,,,,,,,,,0.967,1,,,,,,,,,,,,,,z,1,0.967,,,,,,,,0.034444444,-0.022222222,0,0,0,,0,25,25,120,1,RINED,C,old,z,./images/RINED.png,,,,,,,,,,,,,,,,,,,,,,,,,,,,,,,,,,
,,,,,,,,,,,,,,,,,61bb3a6540db417c1a13901a,42,2022-02-12_13h22.55.149,lexical_decision_task_DD_L5,2021.2.3,MacIntel,58.82352941,,,,,,,,,,,,0.684,1,,,,,,,,,,,,,,m,1,0.684,,,,,,,,0.034444444,-0.022222222,0,0,0,,0,26,26,61,1,ARTIST,LB,old,m,./images/ARTISTLB.png,,,,,,,,,,,,,,,,,,,,,,,,,,,,,,,,,,
,,,,,,,,,,,,,,,,,61bb3a6540db417c1a13901a,42,2022-02-12_13h22.55.149,lexical_decision_task_DD_L5,2021.2.3,MacIntel,58.82352941,,,,,,,,,,,,0.664,1,,,,,,,,,,,,,,m,1,0.664,,,,,,,,0.034444444,-0.022222222,0,0,0,,0,27,27,55,1,ALLEY,LB,old,m,./images/ALLEYLB.png,,,,,,,,,,,,,,,,,,,,,,,,,,,,,,,,,,
,,,,,,,,,,,,,,,,,61bb3a6540db417c1a13901a,42,2022-02-12_13h22.55.149,lexical_decision_task_DD_L5,2021.2.3,MacIntel,58.82352941,,,,,,,,,,,,0.716,1,,,,,,,,,,,,,,m,1,0.716,,,,,,,,0.034444444,-0.022222222,0,0,0,,0,28,28,49,1,BISHOP,LB,old,m,./images/BISHOPLB.png,,,,,,,,,,,,,,,,,,,,,,,,,,,,,,,,,,
,,,,,,,,,,,,,,,,,61bb3a6540db417c1a13901a,42,2022-02-12_13h22.55.149,lexical_decision_task_DD_L5,2021.2.3,MacIntel,58.82352941,,,,,,,,,,,,0.885,1,,,,,,,,,,,,,,m,1,0.885,,,,,,,,0.034444444,-0.022222222,0,0,0,,0,29,29,35,1,LLAMA,C,old,m,./images/LLAMA.png,,,,,,,,,,,,,,,,,,,,,,,,,,,,,,,,,,
,,,,,,,,,,,,,,,,,61bb3a6540db417c1a13901a,42,2022-02-12_13h22.55.149,lexical_decision_task_DD_L5,2021.2.3,MacIntel,58.82352941,,,,,,,,,,,,0.582,1,,,,,,,,,,,,,,m,1,0.582,,,,,,,,0.034444444,-0.022222222,0,0,0,,0,30,30,32,1,HOCKEY,C,old,m,./images/HOCKEY.png,,,,,,,,,,,,,,,,,,,,,,,,,,,,,,,,,,
,,,,,,,,,,,,,,,,,61bb3a6540db417c1a13901a,42,2022-02-12_13h22.55.149,lexical_decision_task_DD_L5,2021.2.3,MacIntel,58.82352941,,,,,,,,,,,,0.867,1,,,,,,,,,,,,,,z,1,0.867,,,,,,,,0.034444444,-0.022222222,0,0,0,,0,31,31,161,1,BLAPS,LB,old,z,./images/BLAPSLB.png,,,,,,,,,,,,,,,,,,,,,,,,,,,,,,,,,,
,,,,,,,,,,,,,,,,,61bb3a6540db417c1a13901a,42,2022-02-12_13h22.55.149,lexical_decision_task_DD_L5,2021.2.3,MacIntel,58.82352941,,,,,,,,,,,,0.678,1,,,,,,,,,,,,,,m,1,0.678,,,,,,,,0.034444444,-0.022222222,0,0,0,,0,32,32,1,1,TOWEL,LB,old,m,./images/TOWELLB.png,,,,,,,,,,,,,,,,,,,,,,,,,,,,,,,,,,
,,,,,,,,,,,,,,,,,61bb3a6540db417c1a13901a,42,2022-02-12_13h22.55.149,lexical_decision_task_DD_L5,2021.2.3,MacIntel,58.82352941,,,,,,,,,,,,3.683,1,,,,,,,,,,,,,,z,1,3.683,,,,,,,,0.034444444,-0.022222222,0,0,0,,0,33,33,139,1,BLEAR,HB,old,z,./images/BLEARHB.png,,,,,,,,,,,,,,,,,,,,,,,,,,,,,,,,,,
,,,,,,,,,,,,,,,,,61bb3a6540db417c1a13901a,42,2022-02-12_13h22.55.149,lexical_decision_task_DD_L5,2021.2.3,MacIntel,58.82352941,,,,,,,,,,,,2.028,1,,,,,,,,,,,,,,m,1,2.028,,,,,,,,0.034444444,-0.022222222,0,0,0,,0,34,34,52,1,DESERT,LB,old,m,./images/DESERTLB.png,,,,,,,,,,,,,,,,,,,,,,,,,,,,,,,,,,
,,,,,,,,,,,,,,,,,61bb3a6540db417c1a13901a,42,2022-02-12_13h22.55.149,lexical_decision_task_DD_L5,2021.2.3,MacIntel,58.82352941,,,,,,,,,,,,0.751,1,,,,,,,,,,,,,,z,1,0.751,,,,,,,,0.034444444,-0.022222222,0,0,0,,0,35,35,147,1,ZOLES,C,old,z,./images/ZOLES.png,,,,,,,,,,,,,,,,,,,,,,,,,,,,,,,,,,
,,,,,,,,,,,,,,,,,61bb3a6540db417c1a13901a,42,2022-02-12_13h22.55.149,lexical_decision_task_DD_L5,2021.2.3,MacIntel,58.82352941,,,,,,,,,,,,0.918,1,,,,,,,,,,,,,,z,1,0.918,,,,,,,,0.034444444,-0.022222222,0,0,0,,0,36,36,99,1,BACKY,C,old,z,./images/BACKY.png,,,,,,,,,,,,,,,,,,,,,,,,,,,,,,,,,,
,,,,,,,,,,,,,,,,,61bb3a6540db417c1a13901a,42,2022-02-12_13h22.55.149,lexical_decision_task_DD_L5,2021.2.3,MacIntel,58.82352941,,,,,,,,,,,,0.851,1,,,,,,,,,,,,,,m,1,0.851,,,,,,,,0.034444444,-0.022222222,0,0,0,,0,37,37,51,1,SAUCE,HB,old,m,./images/SAUCEHB.png,,,,,,,,,,,,,,,,,,,,,,,,,,,,,,,,,,
,,,,,,,,,,,,,,,,,61bb3a6540db417c1a13901a,42,2022-02-12_13h22.55.149,lexical_decision_task_DD_L5,2021.2.3,MacIntel,58.82352941,,,,,,,,,,,,2.932,1,,,,,,,,,,,,,,z,1,2.932,,,,,,,,0.034444444,-0.022222222,0,0,0,,0,38,38,163,1,GAMBA,HB,old,z,./images/GAMBAHB.png,,,,,,,,,,,,,,,,,,,,,,,,,,,,,,,,,,
,,,,,,,,,,,,,,,,,61bb3a6540db417c1a13901a,42,2022-02-12_13h22.55.149,lexical_decision_task_DD_L5,2021.2.3,MacIntel,58.82352941,,,,,,,,,,,,3.461,1,,,,,,,,,,,,,,z,1,3.461,,,,,,,,0.034444444,-0.022222222,0,0,0,,0,39,39,151,1,TINKY,HB,old,z,./images/TINKYHB.png,,,,,,,,,,,,,,,,,,,,,,,,,,,,,,,,,,
,,,,,,,,,,,,,,,,,61bb3a6540db417c1a13901a,42,2022-02-12_13h22.55.149,lexical_decision_task_DD_L5,2021.2.3,MacIntel,58.82352941,,,,,,,,,,,,2.684,1,,,,,,,,,,,,,,m,1,2.684,,,,,,,,0.034444444,-0.022222222,0,0,0,,0,40,40,45,1,MONKEY,HB,old,m,./images/MONKEYHB.png,,,,,,,,,,,,,,,,,,,,,,,,,,,,,,,,,,
,,,,,,,,,,,,,,,,,61bb3a6540db417c1a13901a,42,2022-02-12_13h22.55.149,lexical_decision_task_DD_L5,2021.2.3,MacIntel,58.82352941,,,,,,,,,,,,0.95,1,,,,,,,,,,,,,,z,1,0.95,,,,,,,,-0.073333333,-0.408888889,0,0,0,space,0,41,41,140,1,DOVET,LB,old,z,./images/DOVETLB.png,4.959,,,,,,,,,,,,,,,,,,,,,,,,,,,,,,,,,
,,,,,,,,,,,,,,,,,61bb3a6540db417c1a13901a,42,2022-02-12_13h22.55.149,lexical_decision_task_DD_L5,2021.2.3,MacIntel,58.82352941,,,,,,,,,,,,1.178,1,,,,,,,,,,,,,,m,1,1.178,,,,,,,,-0.073333333,-0.408888889,0,0,0,,0,42,42,76,1,MIDGET,LB,old,m,./images/MIDGETLB.png,,,,,,,,,,,,,,,,,,,,,,,,,,,,,,,,,,
,,,,,,,,,,,,,,,,,61bb3a6540db417c1a13901a,42,2022-02-12_13h22.55.149,lexical_decision_task_DD_L5,2021.2.3,MacIntel,58.82352941,,,,,,,,,,,,1.345,1,,,,,,,,,,,,,,m,1,1.345,,,,,,,,-0.073333333,-0.408888889,0,0,0,,0,43,43,60,1,CURRY,HB,old,m,./images/CURRYHB.png,,,,,,,,,,,,,,,,,,,,,,,,,,,,,,,,,,
,,,,,,,,,,,,,,,,,61bb3a6540db417c1a13901a,42,2022-02-12_13h22.55.149,lexical_decision_task_DD_L5,2021.2.3,MacIntel,58.82352941,,,,,,,,,,,,0.734,1,,,,,,,,,,,,,,z,1,0.734,,,,,,,,-0.073333333,-0.408888889,0,0,0,,0,44,44,89,1,DRIEK,LB,old,z,./images/DRIEKLB.png,,,,,,,,,,,,,,,,,,,,,,,,,,,,,,,,,,
,,,,,,,,,,,,,,,,,61bb3a6540db417c1a13901a,42,2022-02-12_13h22.55.149,lexical_decision_task_DD_L5,2021.2.3,MacIntel,58.82352941,,,,,,,,,,,,0.729,1,,,,,,,,,,,,,,m,1,0.729,,,,,,,,-0.073333333,-0.408888889,0,0,0,,0,45,45,79,1,RULER,LB,old,m,./images/RULERLB.png,,,,,,,,,,,,,,,,,,,,,,,,,,,,,,,,,,
,,,,,,,,,,,,,,,,,61bb3a6540db417c1a13901a,42,2022-02-12_13h22.55.149,lexical_decision_task_DD_L5,2021.2.3,MacIntel,58.82352941,,,,,,,,,,,,1.202,1,,,,,,,,,,,,,,m,1,1.202,,,,,,,,-0.073333333,-0.408888889,0,0,0,,0,46,46,82,1,PEBBLE,LB,old,m,./images/PEBBLELB.png,,,,,,,,,,,,,,,,,,,,,,,,,,,,,,,,,,
,,,,,,,,,,,,,,,,,61bb3a6540db417c1a13901a,42,2022-02-12_13h22.55.149,lexical_decision_task_DD_L5,2021.2.3,MacIntel,58.82352941,,,,,,,,,,,,0.649,1,,,,,,,,,,,,,,m,1,0.649,,,,,,,,-0.073333333,-0.408888889,0,0,0,,0,47,47,70,1,BANANA,LB,old,m,./images/BANANALB.png,,,,,,,,,,,,,,,,,,,,,,,,,,,,,,,,,,
,,,,,,,,,,,,,,,,,61bb3a6540db417c1a13901a,42,2022-02-12_13h22.55.149,lexical_decision_task_DD_L5,2021.2.3,MacIntel,58.82352941,,,,,,,,,,,,0.6,1,,,,,,,,,,,,,,m,1,0.6,,,,,,,,-0.073333333,-0.408888889,0,0,0,,0,48,48,11,1,MEDAL,C,old,m,./images/MEDAL.png,,,,,,,,,,,,,,,,,,,,,,,,,,,,,,,,,,
,,,,,,,,,,,,,,,,,61bb3a6540db417c1a13901a,42,2022-02-12_13h22.55.149,lexical_decision_task_DD_L5,2021.2.3,MacIntel,58.82352941,,,,,,,,,,,,0.701,1,,,,,,,,,,,,,,z,1,0.701,,,,,,,,-0.073333333,-0.408888889,0,0,0,,0,49,49,132,1,SCIFF,C,old,z,./images/SCIFF.png,,,,,,,,,,,,,,,,,,,,,,,,,,,,,,,,,,
,,,,,,,,,,,,,,,,,61bb3a6540db417c1a13901a,42,2022-02-12_13h22.55.149,lexical_decision_task_DD_L5,2021.2.3,MacIntel,58.82352941,,,,,,,,,,,,2.601,1,,,,,,,,,,,,,,m,1,2.601,,,,,,,,-0.073333333,-0.408888889,0,0,0,,0,50,50,42,1,CHAIN,HB,old,m,./images/CHAINHB.png,,,,,,,,,,,,,,,,,,,,,,,,,,,,,,,,,,
,,,,,,,,,,,,,,,,,61bb3a6540db417c1a13901a,42,2022-02-12_13h22.55.149,lexical_decision_task_DD_L5,2021.2.3,MacIntel,58.82352941,,,,,,,,,,,,0.583,1,,,,,,,,,,,,,,m,1,0.583,,,,,,,,-0.073333333,-0.408888889,0,0,0,,0,51,51,40,1,SNAKE,LB,old,m,./images/SNAKELB.png,,,,,,,,,,,,,,,,,,,,,,,,,,,,,,,,,,
,,,,,,,,,,,,,,,,,61bb3a6540db417c1a13901a,42,2022-02-12_13h22.55.149,lexical_decision_task_DD_L5,2021.2.3,MacIntel,58.82352941,,,,,,,,,,,,0.651,1,,,,,,,,,,,,,,m,1,0.651,,,,,,,,-0.073333333,-0.408888889,0,0,0,,0,52,52,80,1,PLANET,C,old,m,./images/PLANET.png,,,,,,,,,,,,,,,,,,,,,,,,,,,,,,,,,,
,,,,,,,,,,,,,,,,,61bb3a6540db417c1a13901a,42,2022-02-12_13h22.55.149,lexical_decision_task_DD_L5,2021.2.3,MacIntel,58.82352941,,,,,,,,,,,,1.51,1,,,,,,,,,,,,,,z,1,1.51,,,,,,,,-0.073333333,-0.408888889,0,0,0,,0,53,53,136,1,WERVE,HB,old,z,./images/WERVEHB.png,,,,,,,,,,,,,,,,,,,,,,,,,,,,,,,,,,
,,,,,,,,,,,,,,,,,61bb3a6540db417c1a13901a,42,2022-02-12_13h22.55.149,lexical_decision_task_DD_L5,2021.2.3,MacIntel,58.82352941,,,,,,,,,,,,0.794,1,,,,,,,,,,,,,,m,1,0.794,,,,,,,,-0.073333333,-0.408888889,0,0,0,,0,54,54,83,1,WHISKY,C,old,m,./images/WHISKY.png,,,,,,,,,,,,,,,,,,,,,,,,,,,,,,,,,,
,,,,,,,,,,,,,,,,,61bb3a6540db417c1a13901a,42,2022-02-12_13h22.55.149,lexical_decision_task_DD_L5,2021.2.3,MacIntel,58.82352941,,,,,,,,,,,,1.847,1,,,,,,,,,,,,,,z,1,1.847,,,,,,,,-0.073333333,-0.408888889,0,0,0,,0,55,55,133,1,POWDY,HB,old,z,./images/POWDYHB.png,,,,,,,,,,,,,,,,,,,,,,,,,,,,,,,,,,
,,,,,,,,,,,,,,,,,61bb3a6540db417c1a13901a,42,2022-02-12_13h22.55.149,lexical_decision_task_DD_L5,2021.2.3,MacIntel,58.82352941,,,,,,,,,,,,1.251,1,,,,,,,,,,,,,,z,1,1.251,,,,,,,,-0.073333333,-0.408888889,0,0,0,,0,56,56,153,1,CLUPS,C,old,z,./images/CLUPS.png,,,,,,,,,,,,,,,,,,,,,,,,,,,,,,,,,,
,,,,,,,,,,,,,,,,,61bb3a6540db417c1a13901a,42,2022-02-12_13h22.55.149,lexical_decision_task_DD_L5,2021.2.3,MacIntel,58.82352941,,,,,,,,,,,,0.768,1,,,,,,,,,,,,,,z,1,0.768,,,,,,,,-0.073333333,-0.408888889,0,0,0,,0,57,57,131,1,NACES,LB,old,z,./images/NACESLB.png,,,,,,,,,,,,,,,,,,,,,,,,,,,,,,,,,,
,,,,,,,,,,,,,,,,,61bb3a6540db417c1a13901a,42,2022-02-12_13h22.55.149,lexical_decision_task_DD_L5,2021.2.3,MacIntel,58.82352941,,,,,,,,,,,,0.901,1,,,,,,,,,,,,,,m,1,0.901,,,,,,,,-0.073333333,-0.408888889,0,0,0,,0,58,58,15,1,COLLAR,HB,old,m,./images/COLLARHB.png,,,,,,,,,,,,,,,,,,,,,,,,,,,,,,,,,,
,,,,,,,,,,,,,,,,,61bb3a6540db417c1a13901a,42,2022-02-12_13h22.55.149,lexical_decision_task_DD_L5,2021.2.3,MacIntel,58.82352941,,,,,,,,,,,,0.923,1,,,,,,,,,,,,,,z,1,0.923,,,,,,,,-0.073333333,-0.408888889,0,0,0,,0,59,59,159,1,CUDDY,C,old,z,./images/CUDDY.png,,,,,,,,,,,,,,,,,,,,,,,,,,,,,,,,,,
,,,,,,,,,,,,,,,,,61bb3a6540db417c1a13901a,42,2022-02-12_13h22.55.149,lexical_decision_task_DD_L5,2021.2.3,MacIntel,58.82352941,,,,,,,,,,,,0.861,1,,,,,,,,,,,,,,z,1,0.861,,,,,,,,-0.073333333,-0.408888889,0,0,0,,0,60,60,155,1,CANGY,LB,old,z,./images/CANGYLB.png,,,,,,,,,,,,,,,,,,,,,,,,,,,,,,,,,,
,,,,,,,,,,,,,,,,,61bb3a6540db417c1a13901a,42,2022-02-12_13h22.55.149,lexical_decision_task_DD_L5,2021.2.3,MacIntel,58.82352941,,,,,,,,,,,,0.75,1,,,,,,,,,,,,,,z,1,0.75,,,,,,,,-0.073333333,-0.408888889,0,0,0,,0,61,61,125,1,MOOKY,LB,old,z,./images/MOOKYLB.png,,,,,,,,,,,,,,,,,,,,,,,,,,,,,,,,,,
,,,,,,,,,,,,,,,,,61bb3a6540db417c1a13901a,42,2022-02-12_13h22.55.149,lexical_decision_task_DD_L5,2021.2.3,MacIntel,58.82352941,,,,,,,,,,,,0.635,1,,,,,,,,,,,,,,m,1,0.635,,,,,,,,-0.073333333,-0.408888889,0,0,0,,0,62,62,44,1,BASKET,C,old,m,./images/BASKET.png,,,,,,,,,,,,,,,,,,,,,,,,,,,,,,,,,,
,,,,,,,,,,,,,,,,,61bb3a6540db417c1a13901a,42,2022-02-12_13h22.55.149,lexical_decision_task_DD_L5,2021.2.3,MacIntel,58.82352941,,,,,,,,,,,,0.717,1,,,,,,,,,,,,,,z,1,0.717,,,,,,,,-0.073333333,-0.408888889,0,0,0,,0,63,63,119,1,PAFER,LB,old,z,./images/PAFERLB.png,,,,,,,,,,,,,,,,,,,,,,,,,,,,,,,,,,
,,,,,,,,,,,,,,,,,61bb3a6540db417c1a13901a,42,2022-02-12_13h22.55.149,lexical_decision_task_DD_L5,2021.2.3,MacIntel,58.82352941,,,,,,,,,,,,0.744,1,,,,,,,,,,,,,,z,1,0.744,,,,,,,,-0.073333333,-0.408888889,0,0,0,,0,64,64,116,1,BALGY,LB,old,z,./images/BALGYLB.png,,,,,,,,,,,,,,,,,,,,,,,,,,,,,,,,,,
,,,,,,,,,,,,,,,,,61bb3a6540db417c1a13901a,42,2022-02-12_13h22.55.149,lexical_decision_task_DD_L5,2021.2.3,MacIntel,58.82352941,,,,,,,,,,,,0.578,1,,,,,,,,,,,,,,z,1,0.578,,,,,,,,-0.073333333,-0.408888889,0,0,0,,0,65,65,122,1,BLOOT,LB,old,z,./images/BLOOTLB.png,,,,,,,,,,,,,,,,,,,,,,,,,,,,,,,,,,
,,,,,,,,,,,,,,,,,61bb3a6540db417c1a13901a,42,2022-02-12_13h22.55.149,lexical_decision_task_DD_L5,2021.2.3,MacIntel,58.82352941,,,,,,,,,,,,1.194,1,,,,,,,,,,,,,,m,1,1.194,,,,,,,,-0.073333333,-0.408888889,0,0,0,,0,66,66,81,1,DRILL,HB,old,m,./images/DRILLHB.png,,,,,,,,,,,,,,,,,,,,,,,,,,,,,,,,,,
,,,,,,,,,,,,,,,,,61bb3a6540db417c1a13901a,42,2022-02-12_13h22.55.149,lexical_decision_task_DD_L5,2021.2.3,MacIntel,58.82352941,,,,,,,,,,,,0.662,1,,,,,,,,,,,,,,m,1,0.662,,,,,,,,-0.073333333,-0.408888889,0,0,0,,0,67,67,47,1,LAGOON,C,old,m,./images/LAGOON.png,,,,,,,,,,,,,,,,,,,,,,,,,,,,,,,,,,
,,,,,,,,,,,,,,,,,61bb3a6540db417c1a13901a,42,2022-02-12_13h22.55.149,lexical_decision_task_DD_L5,2021.2.3,MacIntel,58.82352941,,,,,,,,,,,,0.894,1,,,,,,,,,,,,,,z,1,0.894,,,,,,,,-0.073333333,-0.408888889,0,0,0,,0,68,68,129,1,PRANS,C,old,z,./images/PRANS.png,,,,,,,,,,,,,,,,,,,,,,,,,,,,,,,,,,
,,,,,,,,,,,,,,,,,61bb3a6540db417c1a13901a,42,2022-02-12_13h22.55.149,lexical_decision_task_DD_L5,2021.2.3,MacIntel,58.82352941,,,,,,,,,,,,1.301,1,,,,,,,,,,,,,,z,1,1.301,,,,,,,,-0.073333333,-0.408888889,0,0,0,,0,69,69,106,1,CLUMS,HB,old,z,./images/CLUMSHB.png,,,,,,,,,,,,,,,,,,,,,,,,,,,,,,,,,,
,,,,,,,,,,,,,,,,,61bb3a6540db417c1a13901a,42,2022-02-12_13h22.55.149,lexical_decision_task_DD_L5,2021.2.3,MacIntel,58.82352941,,,,,,,,,,,,0.911,1,,,,,,,,,,,,,,z,1,0.911,,,,,,,,-0.073333333,-0.408888889,0,0,0,,0,70,70,98,1,BAMPS,LB,old,z,./images/BAMPSLB.png,,,,,,,,,,,,,,,,,,,,,,,,,,,,,,,,,,
,,,,,,,,,,,,,,,,,61bb3a6540db417c1a13901a,42,2022-02-12_13h22.55.149,lexical_decision_task_DD_L5,2021.2.3,MacIntel,58.82352941,,,,,,,,,,,,0.691,1,,,,,,,,,,,,,,m,1,0.691,,,,,,,,-0.073333333,-0.408888889,0,0,0,,0,71,71,77,1,WHEEL,C,old,m,./images/WHEEL.png,,,,,,,,,,,,,,,,,,,,,,,,,,,,,,,,,,
,,,,,,,,,,,,,,,,,61bb3a6540db417c1a13901a,42,2022-02-12_13h22.55.149,lexical_decision_task_DD_L5,2021.2.3,MacIntel,58.82352941,,,,,,,,,,,,0.69,1,,,,,,,,,,,,,,z,1,0.69,,,,,,,,-0.073333333,-0.408888889,0,0,0,,0,72,72,84,1,HAXES,C,old,z,./images/HAXES.png,,,,,,,,,,,,,,,,,,,,,,,,,,,,,,,,,,
,,,,,,,,,,,,,,,,,61bb3a6540db417c1a13901a,42,2022-02-12_13h22.55.149,lexical_decision_task_DD_L5,2021.2.3,MacIntel,58.82352941,,,,,,,,,,,,0.883,1,,,,,,,,,,,,,,m,1,0.883,,,,,,,,-0.073333333,-0.408888889,0,0,0,,0,73,73,23,1,CLOTH,C,old,m,./images/CLOTH.png,,,,,,,,,,,,,,,,,,,,,,,,,,,,,,,,,,
,,,,,,,,,,,,,,,,,61bb3a6540db417c1a13901a,42,2022-02-12_13h22.55.149,lexical_decision_task_DD_L5,2021.2.3,MacIntel,58.82352941,,,,,,,,,,,,0.585,1,,,,,,,,,,,,,,m,1,0.585,,,,,,,,-0.073333333,-0.408888889,0,0,0,,0,74,74,19,1,DONKEY,LB,old,m,./images/DONKEYLB.png,,,,,,,,,,,,,,,,,,,,,,,,,,,,,,,,,,
,,,,,,,,,,,,,,,,,61bb3a6540db417c1a13901a,42,2022-02-12_13h22.55.149,lexical_decision_task_DD_L5,2021.2.3,MacIntel,58.82352941,,,,,,,,,,,,1.948,1,,,,,,,,,,,,,,m,1,1.948,,,,,,,,-0.073333333,-0.408888889,0,0,0,,0,75,75,48,1,SHIELD,HB,old,m,./images/SHIELDHB.png,,,,,,,,,,,,,,,,,,,,,,,,,,,,,,,,,,
,,,,,,,,,,,,,,,,,61bb3a6540db417c1a13901a,42,2022-02-12_13h22.55.149,lexical_decision_task_DD_L5,2021.2.3,MacIntel,58.82352941,,,,,,,,,,,,0.645,1,,,,,,,,,,,,,,z,1,0.645,,,,,,,,-0.073333333,-0.408888889,0,0,0,,0,76,76,126,1,GUELS,C,old,z,./images/GUELS.png,,,,,,,,,,,,,,,,,,,,,,,,,,,,,,,,,,
,,,,,,,,,,,,,,,,,61bb3a6540db417c1a13901a,42,2022-02-12_13h22.55.149,lexical_decision_task_DD_L5,2021.2.3,MacIntel,58.82352941,,,,,,,,,,,,0.647,1,,,,,,,,,,,,,,z,1,0.647,,,,,,,,-0.073333333,-0.408888889,0,0,0,,0,77,77,141,1,PLEET,C,old,z,./images/PLEET.png,,,,,,,,,,,,,,,,,,,,,,,,,,,,,,,,,,
,,,,,,,,,,,,,,,,,61bb3a6540db417c1a13901a,42,2022-02-12_13h22.55.149,lexical_decision_task_DD_L5,2021.2.3,MacIntel,58.82352941,,,,,,,,,,,,0.794,1,,,,,,,,,,,,,,m,1,0.794,,,,,,,,-0.073333333,-0.408888889,0,0,0,,0,78,78,64,1,BRIDE,LB,old,m,./images/BRIDELB.png,,,,,,,,,,,,,,,,,,,,,,,,,,,,,,,,,,
,,,,,,,,,,,,,,,,,61bb3a6540db417c1a13901a,42,2022-02-12_13h22.55.149,lexical_decision_task_DD_L5,2021.2.3,MacIntel,58.82352941,,,,,,,,,,,,0.584,1,,,,,,,,,,,,,,z,1,0.584,,,,,,,,-0.073333333,-0.408888889,0,0,0,,0,79,79,150,1,NOOLS,C,old,z,./images/NOOLS.png,,,,,,,,,,,,,,,,,,,,,,,,,,,,,,,,,,
,,,,,,,,,,,,,,,,,61bb3a6540db417c1a13901a,42,2022-02-12_13h22.55.149,lexical_decision_task_DD_L5,2021.2.3,MacIntel,58.82352941,,,,,,,,,,,,1.129,1,,,,,,,,,,,,,,m,1,1.129,,,,,,,,-0.073333333,-0.408888889,0,0,0,,0,80,80,8,1,CLIFF,C,old,m,./images/CLIFF.png,,,,,,,,,,,,,,,,,,,,,,,,,,,,,,,,,,
,,,,,,,,,,,,,,,,,61bb3a6540db417c1a13901a,42,2022-02-12_13h22.55.149,lexical_decision_task_DD_L5,2021.2.3,MacIntel,58.82352941,,,,,,,,,,,,0.643,1,,,,,,,,,,,,,,z,1,0.643,,,,,,,,-0.073333333,-0.408888889,0,0,0,,0,81,81,137,1,JOOST,LB,old,z,./images/JOOSTLB.png,,,,,,,,,,,,,,,,,,,,,,,,,,,,,,,,,,
,,,,,,,,,,,,,,,,,61bb3a6540db417c1a13901a,42,2022-02-12_13h22.55.149,lexical_decision_task_DD_L5,2021.2.3,MacIntel,58.82352941,,,,,,,,,,,,1.092,0,,,,,,,,,,,,,,m,0,1.092,,,,,,,,-0.073333333,-0.408888889,0,0,0,,0,82,82,110,1,CRUNK,LB,old,z,./images/CRUNKLB.png,,,,,,,,,,,,,,,,,,,,,,,,,,,,,,,,,,
,,,,,,,,,,,,,,,,,61bb3a6540db417c1a13901a,42,2022-02-12_13h22.55.149,lexical_decision_task_DD_L5,2021.2.3,MacIntel,58.82352941,,,,,,,,,,,,0.711,1,,,,,,,,,,,,,,m,1,0.711,,,,,,,,-0.073333333,-0.408888889,0,0,0,space,0,83,83,29,1,PISTOL,C,old,m,./images/PISTOL.png,1.683,,,,,,,,,,,,,,,,,,,,,,,,,,,,,,,,,
,,,,,,,,,,,,,,,,,61bb3a6540db417c1a13901a,42,2022-02-12_13h22.55.149,lexical_decision_task_DD_L5,2021.2.3,MacIntel,58.82352941,,,,,,,,,,,,0.977,1,,,,,,,,,,,,,,z,1,0.977,,,,,,,,-0.073333333,-0.408888889,0,0,0,,0,84,84,152,1,FRAIN,LB,old,z,./images/FRAINLB.png,,,,,,,,,,,,,,,,,,,,,,,,,,,,,,,,,,
,,,,,,,,,,,,,,,,,61bb3a6540db417c1a13901a,42,2022-02-12_13h22.55.149,lexical_decision_task_DD_L5,2021.2.3,MacIntel,58.82352941,,,,,,,,,,,,0.778,1,,,,,,,,,,,,,,z,1,0.778,,,,,,,,-0.073333333,-0.408888889,0,0,0,,0,85,85,117,1,STEEG,C,old,z,./images/STEEG.png,,,,,,,,,,,,,,,,,,,,,,,,,,,,,,,,,,
,,,,,,,,,,,,,,,,,61bb3a6540db417c1a13901a,42,2022-02-12_13h22.55.149,lexical_decision_task_DD_L5,2021.2.3,MacIntel,58.82352941,,,,,,,,,,,,1.115,1,,,,,,,,,,,,,,m,1,1.115,,,,,,,,-0.073333333,-0.408888889,0,0,0,,0,86,86,30,1,SLOPE,HB,old,m,./images/SLOPEHB.png,,,,,,,,,,,,,,,,,,,,,,,,,,,,,,,,,,
,,,,,,,,,,,,,,,,,61bb3a6540db417c1a13901a,42,2022-02-12_13h22.55.149,lexical_decision_task_DD_L5,2021.2.3,MacIntel,58.82352941,,,,,,,,,,,,1.567,1,,,,,,,,,,,,,,m,1,1.567,,,,,,,,-0.073333333,-0.408888889,0,0,0,,0,87,87,9,1,DIVER,HB,old,m,./images/DIVERHB.png,,,,,,,,,,,,,,,,,,,,,,,,,,,,,,,,,,
,,,,,,,,,,,,,,,,,61bb3a6540db417c1a13901a,42,2022-02-12_13h22.55.149,lexical_decision_task_DD_L5,2021.2.3,MacIntel,58.82352941,,,,,,,,,,,,0.664,1,,,,,,,,,,,,,,z,1,0.664,,,,,,,,-0.073333333,-0.408888889,0,0,0,,0,88,88,134,1,TROSS,LB,old,z,./images/TROSSLB.png,,,,,,,,,,,,,,,,,,,,,,,,,,,,,,,,,,
,,,,,,,,,,,,,,,,,61bb3a6540db417c1a13901a,42,2022-02-12_13h22.55.149,lexical_decision_task_DD_L5,2021.2.3,MacIntel,58.82352941,,,,,,,,,,,,3.311,1,,,,,,,,,,,,,,z,1,3.311,,,,,,,,-0.073333333,-0.408888889,0,0,0,,0,89,89,85,1,CHULK,HB,old,z,./images/CHULKHB.png,,,,,,,,,,,,,,,,,,,,,,,,,,,,,,,,,,
,,,,,,,,,,,,,,,,,61bb3a6540db417c1a13901a,42,2022-02-12_13h22.55.149,lexical_decision_task_DD_L5,2021.2.3,MacIntel,58.82352941,,,,,,,,,,,,0.95,1,,,,,,,,,,,,,,m,1,0.95,,,,,,,,-0.073333333,-0.408888889,0,0,0,,0,90,90,50,1,PILOT,C,old,m,./images/PILOT.png,,,,,,,,,,,,,,,,,,,,,,,,,,,,,,,,,,
,,,,,,,,,,,,,,,,,61bb3a6540db417c1a13901a,42,2022-02-12_13h22.55.149,lexical_decision_task_DD_L5,2021.2.3,MacIntel,58.82352941,,,,,,,,,,,,1.511,1,,,,,,,,,,,,,,z,1,1.511,,,,,,,,-0.073333333,-0.408888889,0,0,0,,0,91,91,127,1,NINDY,HB,old,z,./images/NINDYHB.png,,,,,,,,,,,,,,,,,,,,,,,,,,,,,,,,,,
,,,,,,,,,,,,,,,,,61bb3a6540db417c1a13901a,42,2022-02-12_13h22.55.149,lexical_decision_task_DD_L5,2021.2.3,MacIntel,58.82352941,,,,,,,,,,,,1.115,1,,,,,,,,,,,,,,m,1,1.115,,,,,,,,-0.073333333,-0.408888889,0,0,0,,0,92,92,39,1,CANDY,HB,old,m,./images/CANDYHB.png,,,,,,,,,,,,,,,,,,,,,,,,,,,,,,,,,,
,,,,,,,,,,,,,,,,,61bb3a6540db417c1a13901a,42,2022-02-12_13h22.55.149,lexical_decision_task_DD_L5,2021.2.3,MacIntel,58.82352941,,,,,,,,,,,,0.856,1,,,,,,,,,,,,,,z,1,0.856,,,,,,,,-0.073333333,-0.408888889,0,0,0,,0,93,93,146,1,MOOST,LB,old,z,./images/MOOSTLB.png,,,,,,,,,,,,,,,,,,,,,,,,,,,,,,,,,,
,,,,,,,,,,,,,,,,,61bb3a6540db417c1a13901a,42,2022-02-12_13h22.55.149,lexical_decision_task_DD_L5,2021.2.3,MacIntel,58.82352941,,,,,,,,,,,,0.712,1,,,,,,,,,,,,,,z,1,0.712,,,,,,,,-0.073333333,-0.408888889,0,0,0,,0,94,94,149,1,VEASE,LB,old,z,./images/VEASELB.png,,,,,,,,,,,,,,,,,,,,,,,,,,,,,,,,,,
,,,,,,,,,,,,,,,,,61bb3a6540db417c1a13901a,42,2022-02-12_13h22.55.149,lexical_decision_task_DD_L5,2021.2.3,MacIntel,58.82352941,,,,,,,,,,,,0.747,1,,,,,,,,,,,,,,m,1,0.747,,,,,,,,-0.073333333,-0.408888889,0,0,0,,0,95,95,22,1,CLOWN,LB,old,m,./images/CLOWNLB.png,,,,,,,,,,,,,,,,,,,,,,,,,,,,,,,,,,
,,,,,,,,,,,,,,,,,61bb3a6540db417c1a13901a,42,2022-02-12_13h22.55.149,lexical_decision_task_DD_L5,2021.2.3,MacIntel,58.82352941,,,,,,,,,,,,1.352,1,,,,,,,,,,,,,,m,1,1.352,,,,,,,,-0.073333333,-0.408888889,0,0,0,,0,96,96,17,1,PARADE,C,old,m,./images/PARADE.png,,,,,,,,,,,,,,,,,,,,,,,,,,,,,,,,,,
,,,,,,,,,,,,,,,,,61bb3a6540db417c1a13901a,42,2022-02-12_13h22.55.149,lexical_decision_task_DD_L5,2021.2.3,MacIntel,58.82352941,,,,,,,,,,,,0.594,1,,,,,,,,,,,,,,m,1,0.594,,,,,,,,-0.073333333,-0.408888889,0,0,0,,0,97,97,14,1,FENCE,C,old,m,./images/FENCE.png,,,,,,,,,,,,,,,,,,,,,,,,,,,,,,,,,,
,,,,,,,,,,,,,,,,,61bb3a6540db417c1a13901a,42,2022-02-12_13h22.55.149,lexical_decision_task_DD_L5,2021.2.3,MacIntel,58.82352941,,,,,,,,,,,,0.717,1,,,,,,,,,,,,,,z,1,0.717,,,,,,,,-0.073333333,-0.408888889,0,0,0,,0,98,98,111,1,HOSSE,C,old,z,./images/HOSSE.png,,,,,,,,,,,,,,,,,,,,,,,,,,,,,,,,,,
,,,,,,,,,,,,,,,,,61bb3a6540db417c1a13901a,42,2022-02-12_13h22.55.149,lexical_decision_task_DD_L5,2021.2.3,MacIntel,58.82352941,,,,,,,,,,,,1.052,1,,,,,,,,,,,,,,m,1,1.052,,,,,,,,-0.073333333,-0.408888889,0,0,0,,0,99,99,69,1,ARROW,HB,old,m,./images/ARROWHB.png,,,,,,,,,,,,,,,,,,,,,,,,,,,,,,,,,,
,,,,,,,,,,,,,,,,,61bb3a6540db417c1a13901a,42,2022-02-12_13h22.55.149,lexical_decision_task_DD_L5,2021.2.3,MacIntel,58.82352941,,,,,,,,,,,,0.95,1,,,,,,,,,,,,,,m,1,0.95,,,,,,,,-0.073333333,-0.408888889,0,0,0,,0,100,100,53,1,POSTER,C,old,m,./images/POSTER.png,,,,,,,,,,,,,,,,,,,,,,,,,,,,,,,,,,
,,,,,,,,,,,,,,,,,61bb3a6540db417c1a13901a,42,2022-02-12_13h22.55.149,lexical_decision_task_DD_L5,2021.2.3,MacIntel,58.82352941,,,,,,,,,,,,2.15,1,,,,,,,,,,,,,,z,1,2.15,,,,,,,,-0.073333333,-0.408888889,0,0,0,,0,101,101,91,1,SHENS,HB,old,z,./images/SHENSHB.png,,,,,,,,,,,,,,,,,,,,,,,,,,,,,,,,,,
,,,,,,,,,,,,,,,,,61bb3a6540db417c1a13901a,42,2022-02-12_13h22.55.149,lexical_decision_task_DD_L5,2021.2.3,MacIntel,58.82352941,,,,,,,,,,,,1.418,1,,,,,,,,,,,,,,m,1,1.418,,,,,,,,-0.073333333,-0.408888889,0,0,0,,0,102,102,36,1,BOILER,HB,old,m,./images/BOILERHB.png,,,,,,,,,,,,,,,,,,,,,,,,,,,,,,,,,,
,,,,,,,,,,,,,,,,,61bb3a6540db417c1a13901a,42,2022-02-12_13h22.55.149,lexical_decision_task_DD_L5,2021.2.3,MacIntel,58.82352941,,,,,,,,,,,,0.876,1,,,,,,,,,,,,,,z,1,0.876,,,,,,,,-0.073333333,-0.408888889,0,0,0,,0,103,103,114,1,RIKES,C,old,z,./images/RIKES.png,,,,,,,,,,,,,,,,,,,,,,,,,,,,,,,,,,
,,,,,,,,,,,,,,,,,61bb3a6540db417c1a13901a,42,2022-02-12_13h22.55.149,lexical_decision_task_DD_L5,2021.2.3,MacIntel,58.82352941,,,,,,,,,,,,0.747,1,,,,,,,,,,,,,,m,1,0.747,,,,,,,,-0.073333333,-0.408888889,0,0,0,,0,104,104,66,1,STATUE,HB,old,m,./images/STATUEHB.png,,,,,,,,,,,,,,,,,,,,,,,,,,,,,,,,,,
,,,,,,,,,,,,,,,,,61bb3a6540db417c1a13901a,42,2022-02-12_13h22.55.149,lexical_decision_task_DD_L5,2021.2.3,MacIntel,58.82352941,,,,,,,,,,,,0.594,1,,,,,,,,,,,,,,m,1,0.594,,,,,,,,-0.073333333,-0.408888889,0,0,0,,0,105,105,2,1,STOVE,C,old,m,./images/STOVE.png,,,,,,,,,,,,,,,,,,,,,,,,,,,,,,,,,,
,,,,,,,,,,,,,,,,,61bb3a6540db417c1a13901a,42,2022-02-12_13h22.55.149,lexical_decision_task_DD_L5,2021.2.3,MacIntel,58.82352941,,,,,,,,,,,,0.784,1,,,,,,,,,,,,,,z,1,0.784,,,,,,,,-0.073333333,-0.408888889,0,0,0,,0,106,106,104,1,GITTY,LB,old,z,./images/GITTYLB.png,,,,,,,,,,,,,,,,,,,,,,,,,,,,,,,,,,
,,,,,,,,,,,,,,,,,61bb3a6540db417c1a13901a,42,2022-02-12_13h22.55.149,lexical_decision_task_DD_L5,2021.2.3,MacIntel,58.82352941,,,,,,,,,,,,1.462,1,,,,,,,,,,,,,,m,1,1.462,,,,,,,,-0.073333333,-0.408888889,0,0,0,,0,107,107,75,1,HAMMER,HB,old,m,./images/HAMMERHB.png,,,,,,,,,,,,,,,,,,,,,,,,,,,,,,,,,,
,,,,,,,,,,,,,,,,,61bb3a6540db417c1a13901a,42,2022-02-12_13h22.55.149,lexical_decision_task_DD_L5,2021.2.3,MacIntel,58.82352941,,,,,,,,,,,,0.628,1,,,,,,,,,,,,,,m,1,0.628,,,,,,,,-0.073333333,-0.408888889,0,0,0,,0,108,108,56,1,HEATER,C,old,m,./images/HEATER.png,,,,,,,,,,,,,,,,,,,,,,,,,,,,,,,,,,
,,,,,,,,,,,,,,,,,61bb3a6540db417c1a13901a,42,2022-02-12_13h22.55.149,lexical_decision_task_DD_L5,2021.2.3,MacIntel,58.82352941,,,,,,,,,,,,1.582,1,,,,,,,,,,,,,,m,1,1.582,,,,,,,,-0.073333333,-0.408888889,0,0,0,,0,109,109,57,1,FERRY,HB,old,m,./images/FERRYHB.png,,,,,,,,,,,,,,,,,,,,,,,,,,,,,,,,,,
,,,,,,,,,,,,,,,,,61bb3a6540db417c1a13901a,42,2022-02-12_13h22.55.149,lexical_decision_task_DD_L5,2021.2.3,MacIntel,58.82352941,,,,,,,,,,,,0.651,1,,,,,,,,,,,,,,z,1,0.651,,,,,,,,-0.073333333,-0.408888889,0,0,0,,0,110,110,101,1,GLEET,LB,old,z,./images/GLEETLB.png,,,,,,,,,,,,,,,,,,,,,,,,,,,,,,,,,,
,,,,,,,,,,,,,,,,,61bb3a6540db417c1a13901a,42,2022-02-12_13h22.55.149,lexical_decision_task_DD_L5,2021.2.3,MacIntel,58.82352941,,,,,,,,,,,,0.834,1,,,,,,,,,,,,,,m,1,0.834,,,,,,,,-0.073333333,-0.408888889,0,0,0,,0,111,111,72,1,FLASK,HB,old,m,./images/FLASKHB.png,,,,,,,,,,,,,,,,,,,,,,,,,,,,,,,,,,
,,,,,,,,,,,,,,,,,61bb3a6540db417c1a13901a,42,2022-02-12_13h22.55.149,lexical_decision_task_DD_L5,2021.2.3,MacIntel,58.82352941,,,,,,,,,,,,1.167,1,,,,,,,,,,,,,,z,1,1.167,,,,,,,,-0.073333333,-0.408888889,0,0,0,,0,112,112,145,1,LAMEL,HB,old,z,./images/LAMELHB.png,,,,,,,,,,,,,,,,,,,,,,,,,,,,,,,,,,
,,,,,,,,,,,,,,,,,61bb3a6540db417c1a13901a,42,2022-02-12_13h22.55.149,lexical_decision_task_DD_L5,2021.2.3,MacIntel,58.82352941,,,,,,,,,,,,0.757,1,,,,,,,,,,,,,,m,1,0.757,,,,,,,,-0.073333333,-0.408888889,0,0,0,,0,113,113,41,1,STREAM,C,old,m,./images/STREAM.png,,,,,,,,,,,,,,,,,,,,,,,,,,,,,,,,,,
,,,,,,,,,,,,,,,,,61bb3a6540db417c1a13901a,42,2022-02-12_13h22.55.149,lexical_decision_task_DD_L5,2021.2.3,MacIntel,58.82352941,,,,,,,,,,,,0.661,1,,,,,,,,,,,,,,m,1,0.661,,,,,,,,-0.073333333,-0.408888889,0,0,0,,0,114,114,13,1,BUNNY,LB,old,m,./images/BUNNYLB.png,,,,,,,,,,,,,,,,,,,,,,,,,,,,,,,,,,
,,,,,,,,,,,,,,,,,61bb3a6540db417c1a13901a,42,2022-02-12_13h22.55.149,lexical_decision_task_DD_L5,2021.2.3,MacIntel,58.82352941,,,,,,,,,,,,0.635,1,,,,,,,,,,,,,,z,1,0.635,,,,,,,,-0.073333333,-0.408888889,0,0,0,,0,115,115,138,1,PLICE,C,old,z,./images/PLICE.png,,,,,,,,,,,,,,,,,,,,,,,,,,,,,,,,,,
,,,,,,,,,,,,,,,,,61bb3a6540db417c1a13901a,42,2022-02-12_13h22.55.149,lexical_decision_task_DD_L5,2021.2.3,MacIntel,58.82352941,,,,,,,,,,,,1.4,1,,,,,,,,,,,,,,m,1,1.4,,,,,,,,-0.073333333,-0.408888889,0,0,0,,0,116,116,78,1,BROOM,HB,old,m,./images/BROOMHB.png,,,,,,,,,,,,,,,,,,,,,,,,,,,,,,,,,,
,,,,,,,,,,,,,,,,,61bb3a6540db417c1a13901a,42,2022-02-12_13h22.55.149,lexical_decision_task_DD_L5,2021.2.3,MacIntel,58.82352941,,,,,,,,,,,,1.333,1,,,,,,,,,,,,,,z,1,1.333,,,,,,,,-0.073333333,-0.408888889,0,0,0,,0,117,117,124,1,TUNCH,HB,old,z,./images/TUNCHHB.png,,,,,,,,,,,,,,,,,,,,,,,,,,,,,,,,,,
,,,,,,,,,,,,,,,,,61bb3a6540db417c1a13901a,42,2022-02-12_13h22.55.149,lexical_decision_task_DD_L5,2021.2.3,MacIntel,58.82352941,,,,,,,,,,,,1.167,1,,,,,,,,,,,,,,m,1,1.167,,,,,,,,-0.073333333,-0.408888889,0,0,0,,0,118,118,10,1,GARDEN,LB,old,m,./images/GARDENLB.png,,,,,,,,,,,,,,,,,,,,,,,,,,,,,,,,,,
,,,,,,,,,,,,,,,,,61bb3a6540db417c1a13901a,42,2022-02-12_13h22.55.149,lexical_decision_task_DD_L5,2021.2.3,MacIntel,58.82352941,,,,,,,,,,,,1.483,1,,,,,,,,,,,,,,m,1,1.483,,,,,,,,-0.073333333,-0.408888889,0,0,0,,0,119,119,21,1,DANCER,HB,old,m,./images/DANCERHB.png,,,,,,,,,,,,,,,,,,,,,,,,,,,,,,,,,,
,,,,,,,,,,,,,,,,,61bb3a6540db417c1a13901a,42,2022-02-12_13h22.55.149,lexical_decision_task_DD_L5,2021.2.3,MacIntel,58.82352941,,,,,,,,,,,,0.6,1,,,,,,,,,,,,,,m,1,0.6,,,,,,,,-0.073333333,-0.408888889,0,0,0,,0,120,120,28,1,CASINO,LB,old,m,./images/CASINOLB.png,,,,,,,,,,,,,,,,,,,,,,,,,,,,,,,,,,
,,,,,,,,,,,,,,,,,61bb3a6540db417c1a13901a,42,2022-02-12_13h22.55.149,lexical_decision_task_DD_L5,2021.2.3,MacIntel,58.82352941,,,,,,,,,,,,0.734,1,,,,,,,,,,,,,,z,1,0.734,,,,,,,,-0.073333333,-0.408888889,0,0,0,,0,121,121,113,1,LINEW,LB,old,z,./images/LINEWLB.png,,,,,,,,,,,,,,,,,,,,,,,,,,,,,,,,,,
,,,,,,,,,,,,,,,,,61bb3a6540db417c1a13901a,42,2022-02-12_13h22.55.149,lexical_decision_task_DD_L5,2021.2.3,MacIntel,58.82352941,,,,,,,,,,,,0.781,1,,,,,,,,,,,,,,z,1,0.781,,,,,,,,-0.073333333,-0.408888889,0,0,0,,0,122,122,164,1,SGREW,LB,old,z,./images/SGREWLB.png,,,,,,,,,,,,,,,,,,,,,,,,,,,,,,,,,,
,,,,,,,,,,,,,,,,,61bb3a6540db417c1a13901a,42,2022-02-12_13h22.55.149,lexical_decision_task_DD_L5,2021.2.3,MacIntel,58.82352941,,,,,,,,,,,,2.367,1,,,,,,,,,,,,,,z,1,2.367,,,,,,,,-0.073333333,-0.408888889,0,0,0,,0,123,123,109,1,BURGE,HB,old,z,./images/BURGEHB.png,,,,,,,,,,,,,,,,,,,,,,,,,,,,,,,,,,
,,,,,,,,,,,,,,,,,61bb3a6540db417c1a13901a,42,2022-02-12_13h22.55.149,lexical_decision_task_DD_L5,2021.2.3,MacIntel,58.82352941,,,,,,,,,,,,0.802,1,,,,,,,,,,,,,,z,1,0.802,,,,,,,,-0.073333333,-0.408888889,0,0,0,,0,124,124,160,1,VEETS,HB,old,z,./images/VEETSHB.png,,,,,,,,,,,,,,,,,,,,,,,,,,,,,,,,,,
,,,,,,,,,,,,,,,,,61bb3a6540db417c1a13901a,42,2022-02-12_13h22.55.149,lexical_decision_task_DD_L5,2021.2.3,MacIntel,58.82352941,,,,,,,,,,,,0.634,1,,,,,,,,,,,,,,z,1,0.634,,,,,,,,-0.073333333,-0.408888889,0,0,0,space,0,125,125,156,1,HIXES,C,old,z,./images/HIXES.png,1.25,,,,,,,,,,,,,,,,,,,,,,,,,,,,,,,,,
,,,,,,,,,,,,,,,,,61bb3a6540db417c1a13901a,42,2022-02-12_13h22.55.149,lexical_decision_task_DD_L5,2021.2.3,MacIntel,58.82352941,,,,,,,,,,,,0.979,1,,,,,,,,,,,,,,z,1,0.979,,,,,,,,-0.073333333,-0.408888889,0,0,0,,0,126,126,115,1,MAWNS,HB,old,z,./images/MAWNSHB.png,,,,,,,,,,,,,,,,,,,,,,,,,,,,,,,,,,
,,,,,,,,,,,,,,,,,61bb3a6540db417c1a13901a,42,2022-02-12_13h22.55.149,lexical_decision_task_DD_L5,2021.2.3,MacIntel,58.82352941,,,,,,,,,,,,1.482,1,,,,,,,,,,,,,,z,1,1.482,,,,,,,,-0.073333333,-0.408888889,0,0,0,,0,127,127,107,1,FASKS,LB,old,z,./images/FASKSLB.png,,,,,,,,,,,,,,,,,,,,,,,,,,,,,,,,,,
,,,,,,,,,,,,,,,,,61bb3a6540db417c1a13901a,42,2022-02-12_13h22.55.149,lexical_decision_task_DD_L5,2021.2.3,MacIntel,58.82352941,,,,,,,,,,,,1.378,1,,,,,,,,,,,,,,z,1,1.378,,,,,,,,-0.073333333,-0.408888889,0,0,0,,0,128,128,157,1,INLER,HB,old,z,./images/INLERHB.png,,,,,,,,,,,,,,,,,,,,,,,,,,,,,,,,,,
,,,,,,,,,,,,,,,,,61bb3a6540db417c1a13901a,42,2022-02-12_13h22.55.149,lexical_decision_task_DD_L5,2021.2.3,MacIntel,58.82352941,,,,,,,,,,,,0.701,1,,,,,,,,,,,,,,z,1,0.701,,,,,,,,-0.073333333,-0.408888889,0,0,0,,0,129,129,144,1,NAIRY,C,old,z,./images/NAIRY.png,,,,,,,,,,,,,,,,,,,,,,,,,,,,,,,,,,
,,,,,,,,,,,,,,,,,61bb3a6540db417c1a13901a,42,2022-02-12_13h22.55.149,lexical_decision_task_DD_L5,2021.2.3,MacIntel,58.82352941,,,,,,,,,,,,1.568,1,,,,,,,,,,,,,,z,1,1.568,,,,,,,,-0.073333333,-0.408888889,0,0,0,,0,130,130,166,1,SHORY,HB,old,z,./images/SHORYHB.png,,,,,,,,,,,,,,,,,,,,,,,,,,,,,,,,,,
,,,,,,,,,,,,,,,,,61bb3a6540db417c1a13901a,42,2022-02-12_13h22.55.149,lexical_decision_task_DD_L5,2021.2.3,MacIntel,58.82352941,,,,,,,,,,,,0.585,1,,,,,,,,,,,,,,z,1,0.585,,,,,,,,-0.073333333,-0.408888889,0,0,0,,0,131,131,135,1,JOODY,C,old,z,./images/JOODY.png,,,,,,,,,,,,,,,,,,,,,,,,,,,,,,,,,,
,,,,,,,,,,,,,,,,,61bb3a6540db417c1a13901a,42,2022-02-12_13h22.55.149,lexical_decision_task_DD_L5,2021.2.3,MacIntel,58.82352941,,,,,,,,,,,,1.652,0,,,,,,,,,,,,,,m,0,1.652,,,,,,,,-0.073333333,-0.408888889,0,0,0,,0,132,132,128,1,GRIFT,LB,old,z,./images/GRIFTLB.png,,,,,,,,,,,,,,,,,,,,,,,,,,,,,,,,,,
,,,,,,,,,,,,,,,,,61bb3a6540db417c1a13901a,42,2022-02-12_13h22.55.149,lexical_decision_task_DD_L5,2021.2.3,MacIntel,58.82352941,,,,,,,,,,,,2.534,1,,,,,,,,,,,,,,z,1,2.534,,,,,,,,-0.073333333,-0.408888889,0,0,0,,0,133,133,90,1,NEAST,C,old,z,./images/NEAST.png,,,,,,,,,,,,,,,,,,,,,,,,,,,,,,,,,,
,,,,,,,,,,,,,,,,,61bb3a6540db417c1a13901a,42,2022-02-12_13h22.55.149,lexical_decision_task_DD_L5,2021.2.3,MacIntel,58.82352941,,,,,,,,,,,,2.231,1,,,,,,,,,,,,,,m,1,2.231,,,,,,,,-0.073333333,-0.408888889,0,0,0,,0,134,134,33,1,SAUNA,HB,old,m,./images/SAUNAHB.png,,,,,,,,,,,,,,,,,,,,,,,,,,,,,,,,,,
,,,,,,,,,,,,,,,,,61bb3a6540db417c1a13901a,42,2022-02-12_13h22.55.149,lexical_decision_task_DD_L5,2021.2.3,MacIntel,58.82352941,,,,,,,,,,,,0.712,1,,,,,,,,,,,,,,m,1,0.712,,,,,,,,-0.073333333,-0.408888889,0,0,0,,0,135,135,65,1,SPINE,C,old,m,./images/SPINE.png,,,,,,,,,,,,,,,,,,,,,,,,,,,,,,,,,,
,,,,,,,,,,,,,,,,,61bb3a6540db417c1a13901a,42,2022-02-12_13h22.55.149,lexical_decision_task_DD_L5,2021.2.3,MacIntel,58.82352941,,,,,,,,,,,,0.577,1,,,,,,,,,,,,,,m,1,0.577,,,,,,,,-0.073333333,-0.408888889,0,0,0,,0,136,136,58,1,CANOE,LB,old,m,./images/CANOELB.png,,,,,,,,,,,,,,,,,,,,,,,,,,,,,,,,,,
,,,,,,,,,,,,,,,,,61bb3a6540db417c1a13901a,42,2022-02-12_13h22.55.149,lexical_decision_task_DD_L5,2021.2.3,MacIntel,58.82352941,,,,,,,,,,,,1.478,1,,,,,,,,,,,,,,z,1,1.478,,,,,,,,-0.073333333,-0.408888889,0,0,0,,0,137,137,118,1,BAVEL,HB,old,z,./images/BAVELHB.png,,,,,,,,,,,,,,,,,,,,,,,,,,,,,,,,,,
,,,,,,,,,,,,,,,,,61bb3a6540db417c1a13901a,42,2022-02-12_13h22.55.149,lexical_decision_task_DD_L5,2021.2.3,MacIntel,58.82352941,,,,,,,,,,,,1.366,1,,,,,,,,,,,,,,z,1,1.366,,,,,,,,-0.073333333,-0.408888889,0,0,0,,0,138,138,94,1,BLANS,HB,old,z,./images/BLANSHB.png,,,,,,,,,,,,,,,,,,,,,,,,,,,,,,,,,,
,,,,,,,,,,,,,,,,,61bb3a6540db417c1a13901a,42,2022-02-12_13h22.55.149,lexical_decision_task_DD_L5,2021.2.3,MacIntel,58.82352941,,,,,,,,,,,,0.768,1,,,,,,,,,,,,,,z,1,0.768,,,,,,,,-0.073333333,-0.408888889,0,0,0,,0,139,139,167,1,ZONET,LB,old,z,./images/ZONETLB.png,,,,,,,,,,,,,,,,,,,,,,,,,,,,,,,,,,
,,,,,,,,,,,,,,,,,61bb3a6540db417c1a13901a,42,2022-02-12_13h22.55.149,lexical_decision_task_DD_L5,2021.2.3,MacIntel,58.82352941,,,,,,,,,,,,2.683,1,,,,,,,,,,,,,,m,1,2.683,,,,,,,,-0.073333333,-0.408888889,0,0,0,,0,140,140,3,1,CRATER,HB,old,m,./images/CRATERHB.png,,,,,,,,,,,,,,,,,,,,,,,,,,,,,,,,,,
,,,,,,,,,,,,,,,,,61bb3a6540db417c1a13901a,42,2022-02-12_13h22.55.149,lexical_decision_task_DD_L5,2021.2.3,MacIntel,58.82352941,,,,,,,,,,,,1.565,0,,,,,,,,,,,,,,z,0,1.565,,,,,,,,-0.073333333,-0.408888889,0,0,0,,0,141,141,63,1,BAKER,HB,old,m,./images/BAKERHB.png,,,,,,,,,,,,,,,,,,,,,,,,,,,,,,,,,,
,,,,,,,,,,,,,,,,,61bb3a6540db417c1a13901a,42,2022-02-12_13h22.55.149,lexical_decision_task_DD_L5,2021.2.3,MacIntel,58.82352941,,,,,,,,,,,,0.885,1,,,,,,,,,,,,,,z,1,0.885,,,,,,,,-0.073333333,-0.408888889,0,0,0,,0,142,142,93,1,SMONE,C,old,z,./images/SMONE.png,,,,,,,,,,,,,,,,,,,,,,,,,,,,,,,,,,
,,,,,,,,,,,,,,,,,61bb3a6540db417c1a13901a,42,2022-02-12_13h22.55.149,lexical_decision_task_DD_L5,2021.2.3,MacIntel,58.82352941,,,,,,,,,,,,1.533,1,,,,,,,,,,,,,,m,1,1.533,,,,,,,,-0.073333333,-0.408888889,0,0,0,,0,143,143,12,1,BLOKE,HB,old,m,./images/BLOKEHB.png,,,,,,,,,,,,,,,,,,,,,,,,,,,,,,,,,,
,,,,,,,,,,,,,,,,,61bb3a6540db417c1a13901a,42,2022-02-12_13h22.55.149,lexical_decision_task_DD_L5,2021.2.3,MacIntel,58.82352941,,,,,,,,,,,,0.733,1,,,,,,,,,,,,,,m,1,0.733,,,,,,,,-0.073333333,-0.408888889,0,0,0,,0,144,144,38,1,ENGINE,C,old,m,./images/ENGINE.png,,,,,,,,,,,,,,,,,,,,,,,,,,,,,,,,,,
,,,,,,,,,,,,,,,,,61bb3a6540db417c1a13901a,42,2022-02-12_13h22.55.149,lexical_decision_task_DD_L5,2021.2.3,MacIntel,58.82352941,,,,,,,,,,,,0.968,1,,,,,,,,,,,,,,z,1,0.968,,,,,,,,-0.073333333,-0.408888889,0,0,0,,0,145,145,105,1,MOKER,C,old,z,./images/MOKER.png,,,,,,,,,,,,,,,,,,,,,,,,,,,,,,,,,,
,,,,,,,,,,,,,,,,,61bb3a6540db417c1a13901a,42,2022-02-12_13h22.55.149,lexical_decision_task_DD_L5,2021.2.3,MacIntel,58.82352941,,,,,,,,,,,,1.529,1,,,,,,,,,,,,,,z,1,1.529,,,,,,,,-0.073333333,-0.408888889,0,0,0,,0,146,146,162,1,LEICH,C,old,z,./images/LEICH.png,,,,,,,,,,,,,,,,,,,,,,,,,,,,,,,,,,
,,,,,,,,,,,,,,,,,61bb3a6540db417c1a13901a,42,2022-02-12_13h22.55.149,lexical_decision_task_DD_L5,2021.2.3,MacIntel,58.82352941,,,,,,,,,,,,1.217,1,,,,,,,,,,,,,,m,1,1.217,,,,,,,,-0.073333333,-0.408888889,0,0,0,,0,147,147,18,1,PARCEL,HB,old,m,./images/PARCELHB.png,,,,,,,,,,,,,,,,,,,,,,,,,,,,,,,,,,
,,,,,,,,,,,,,,,,,61bb3a6540db417c1a13901a,42,2022-02-12_13h22.55.149,lexical_decision_task_DD_L5,2021.2.3,MacIntel,58.82352941,,,,,,,,,,,,0.677,1,,,,,,,,,,,,,,z,1,0.677,,,,,,,,-0.073333333,-0.408888889,0,0,0,,0,148,148,143,1,MONGS,LB,old,z,./images/MONGSLB.png,,,,,,,,,,,,,,,,,,,,,,,,,,,,,,,,,,
,,,,,,,,,,,,,,,,,61bb3a6540db417c1a13901a,42,2022-02-12_13h22.55.149,lexical_decision_task_DD_L5,2021.2.3,MacIntel,58.82352941,,,,,,,,,,,,0.649,1,,,,,,,,,,,,,,z,1,0.649,,,,,,,,-0.073333333,-0.408888889,0,0,0,,0,149,149,92,1,PAIMS,LB,old,z,./images/PAIMSLB.png,,,,,,,,,,,,,,,,,,,,,,,,,,,,,,,,,,
,,,,,,,,,,,,,,,,,61bb3a6540db417c1a13901a,42,2022-02-12_13h22.55.149,lexical_decision_task_DD_L5,2021.2.3,MacIntel,58.82352941,,,,,,,,,,,,0.717,1,,,,,,,,,,,,,,m,1,0.717,,,,,,,,-0.073333333,-0.408888889,0,0,0,,0,150,150,7,1,WAGON,LB,old,m,./images/WAGONLB.png,,,,,,,,,,,,,,,,,,,,,,,,,,,,,,,,,,
,,,,,,,,,,,,,,,,,61bb3a6540db417c1a13901a,42,2022-02-12_13h22.55.149,lexical_decision_task_DD_L5,2021.2.3,MacIntel,58.82352941,,,,,,,,,,,,0.757,1,,,,,,,,,,,,,,z,1,0.757,,,,,,,,-0.073333333,-0.408888889,0,0,0,,0,151,151,165,1,TROWN,C,old,z,./images/TROWN.png,,,,,,,,,,,,,,,,,,,,,,,,,,,,,,,,,,
,,,,,,,,,,,,,,,,,61bb3a6540db417c1a13901a,42,2022-02-12_13h22.55.149,lexical_decision_task_DD_L5,2021.2.3,MacIntel,58.82352941,,,,,,,,,,,,1.16,1,,,,,,,,,,,,,,m,1,1.16,,,,,,,,-0.073333333,-0.408888889,0,0,0,,0,152,152,46,1,MUMMY,LB,old,m,./images/MUMMYLB.png,,,,,,,,,,,,,,,,,,,,,,,,,,,,,,,,,,
,,,,,,,,,,,,,,,,,61bb3a6540db417c1a13901a,42,2022-02-12_13h22.55.149,lexical_decision_task_DD_L5,2021.2.3,MacIntel,58.82352941,,,,,,,,,,,,2.232,1,,,,,,,,,,,,,,z,1,2.232,,,,,,,,-0.073333333,-0.408888889,0,0,0,,0,153,153,154,1,THINT,HB,old,z,./images/THINTHB.png,,,,,,,,,,,,,,,,,,,,,,,,,,,,,,,,,,
,,,,,,,,,,,,,,,,,61bb3a6540db417c1a13901a,42,2022-02-12_13h22.55.149,lexical_decision_task_DD_L5,2021.2.3,MacIntel,58.82352941,,,,,,,,,,,,1.035,1,,,,,,,,,,,,,,m,1,1.035,,,,,,,,-0.073333333,-0.408888889,0,0,0,,0,154,154,68,1,VALLEY,C,old,m,./images/VALLEY.png,,,,,,,,,,,,,,,,,,,,,,,,,,,,,,,,,,
,,,,,,,,,,,,,,,,,61bb3a6540db417c1a13901a,42,2022-02-12_13h22.55.149,lexical_decision_task_DD_L5,2021.2.3,MacIntel,58.82352941,,,,,,,,,,,,3.483,1,,,,,,,,,,,,,,m,1,3.483,,,,,,,,-0.073333333,-0.408888889,0,0,0,,0,155,155,26,1,CLOUD,C,old,m,./images/CLOUD.png,,,,,,,,,,,,,,,,,,,,,,,,,,,,,,,,,,
,,,,,,,,,,,,,,,,,61bb3a6540db417c1a13901a,42,2022-02-12_13h22.55.149,lexical_decision_task_DD_L5,2021.2.3,MacIntel,58.82352941,,,,,,,,,,,,1.001,1,,,,,,,,,,,,,,z,1,1.001,,,,,,,,-0.073333333,-0.408888889,0,0,0,,0,156,156,100,1,DRIBS,HB,old,z,./images/DRIBSHB.png,,,,,,,,,,,,,,,,,,,,,,,,,,,,,,,,,,
,,,,,,,,,,,,,,,,,61bb3a6540db417c1a13901a,42,2022-02-12_13h22.55.149,lexical_decision_task_DD_L5,2021.2.3,MacIntel,58.82352941,,,,,,,,,,,,0.701,1,,,,,,,,,,,,,,m,1,0.701,,,,,,,,-0.073333333,-0.408888889,0,0,0,,0,157,157,4,1,BOXER,LB,old,m,./images/BOXERLB.png,,,,,,,,,,,,,,,,,,,,,,,,,,,,,,,,,,
,,,,,,,,,,,,,,,,,61bb3a6540db417c1a13901a,42,2022-02-12_13h22.55.149,lexical_decision_task_DD_L5,2021.2.3,MacIntel,58.82352941,,,,,,,,,,,,0.623,1,,,,,,,,,,,,,,m,1,0.623,,,,,,,,-0.073333333,-0.408888889,0,0,0,,0,158,158,5,1,BAMBOO,C,old,m,./images/BAMBOO.png,,,,,,,,,,,,,,,,,,,,,,,,,,,,,,,,,,
,,,,,,,,,,,,,,,,,61bb3a6540db417c1a13901a,42,2022-02-12_13h22.55.149,lexical_decision_task_DD_L5,2021.2.3,MacIntel,58.82352941,,,,,,,,,,,,0.616,1,,,,,,,,,,,,,,m,1,0.616,,,,,,,,-0.073333333,-0.408888889,0,0,0,,0,159,159,67,1,POKER,LB,old,m,./images/POKERLB.png,,,,,,,,,,,,,,,,,,,,,,,,,,,,,,,,,,
,,,,,,,,,,,,,,,,,61bb3a6540db417c1a13901a,42,2022-02-12_13h22.55.149,lexical_decision_task_DD_L5,2021.2.3,MacIntel,58.82352941,,,,,,,,,,,,0.812,1,,,,,,,,,,,,,,m,1,0.812,,,,,,,,-0.073333333,-0.408888889,0,0,0,,0,160,160,59,1,BRUSH,C,old,m,./images/BRUSH.png,,,,,,,,,,,,,,,,,,,,,,,,,,,,,,,,,,
,,,,,,,,,,,,,,,,,61bb3a6540db417c1a13901a,42,2022-02-12_13h22.55.149,lexical_decision_task_DD_L5,2021.2.3,MacIntel,58.82352941,,,,,,,,,,,,1.312,1,,,,,,,,,,,,,,z,1,1.312,,,,,,,,-0.073333333,-0.408888889,0,0,0,,0,161,161,121,1,CEERS,HB,old,z,./images/CEERSHB.png,,,,,,,,,,,,,,,,,,,,,,,,,,,,,,,,,,
,,,,,,,,,,,,,,,,,61bb3a6540db417c1a13901a,42,2022-02-12_13h22.55.149,lexical_decision_task_DD_L5,2021.2.3,MacIntel,58.82352941,,,,,,,,,,,,1.017,1,,,,,,,,,,,,,,z,1,1.017,,,,,,,,-0.073333333,-0.408888889,0,0,0,,0,162,162,88,1,GLUSH,HB,old,z,./images/GLUSHHB.png,,,,,,,,,,,,,,,,,,,,,,,,,,,,,,,,,,
,,,,,,,,,,,,,,,,,61bb3a6540db417c1a13901a,42,2022-02-12_13h22.55.149,lexical_decision_task_DD_L5,2021.2.3,MacIntel,58.82352941,,,,,,,,,,,,0.976,1,,,,,,,,,,,,,,m,1,0.976,,,,,,,,-0.073333333,-0.408888889,0,0,0,,0,163,163,71,1,BUBBLE,C,old,m,./images/BUBBLE.png,,,,,,,,,,,,,,,,,,,,,,,,,,,,,,,,,,
,,,,,,,,,,,,,,,,,61bb3a6540db417c1a13901a,42,2022-02-12_13h22.55.149,lexical_decision_task_DD_L5,2021.2.3,MacIntel,58.82352941,,,,,,,,,,,,0.979,1,,,,,,,,,,,,,,z,1,0.979,,,,,,,,-0.073333333,-0.408888889,0,0,0,,0,164,164,130,1,CRILL,HB,old,z,./images/CRILLHB.png,,,,,,,,,,,,,,,,,,,,,,,,,,,,,,,,,,
,,,,,,,,,,,,,,,,,61bb3a6540db417c1a13901a,42,2022-02-12_13h22.55.149,lexical_decision_task_DD_L5,2021.2.3,MacIntel,58.82352941,,,,,,,,,,,,0.552,1,,,,,,,,,,,,,,m,1,0.552,,,,,,,,-0.073333333,-0.408888889,0,0,0,,0,165,165,74,1,JUMPER,C,old,m,./images/JUMPER.png,,,,,,,,,,,,,,,,,,,,,,,,,,,,,,,,,,
,,,,,,,,,,,,,,,,,61bb3a6540db417c1a13901a,42,2022-02-12_13h22.55.149,lexical_decision_task_DD_L5,2021.2.3,MacIntel,58.82352941,,,,,,,,,,,,0.717,1,,,,,,,,,,,,,,z,1,0.717,,,,,,,,-0.073333333,-0.408888889,0,0,0,,0,166,166,95,1,HANTY,LB,old,z,./images/HANTYLB.png,,,,,,,,,,,,,,,,,,,,,,,,,,,,,,,,,,
,,,,,,,,,,,,,,,,,61bb3a6540db417c1a13901a,42,2022-02-12_13h22.55.149,lexical_decision_task_DD_L5,2021.2.3,MacIntel,58.82352941,,,,,,,,,,,,0.851,1,,,,,,,,,,,,,,z,1,0.851,,,,,,,,-0.073333333,-0.408888889,0,0,0,,0,167,167,123,1,SEDGE,C,old,z,./images/SEDGE.png,,,,,,,,,,,,,,,,,,,,,,,,,,,,,,,,,,
,,,,,,,,,,,,,,,,,61bb3a6540db417c1a13901a,42,2022-02-12_13h22.55.149,lexical_decision_task_DD_L5,2021.2.3,MacIntel,58.82352941,,,,,,,,,,,,,,,,,,,,,,,,,,,,,,,,,,,,,,,,,,,,,,,,,How likely will it be that you will recognize the words presented slighly blurred on a scale of 0 (not likely) to 100 (most likely)?,,,,,0.003333333,-0.416666667,1,0,0,jol_adv,3,7.825,0,0,0,1,1,,,,,,,,,,,,,,,,,,,,
,,,,,,,,,,,,,,,,,61bb3a6540db417c1a13901a,42,2022-02-12_13h22.55.149,lexical_decision_task_DD_L5,2021.2.3,MacIntel,58.82352941,,,,,,,,,,,,,,,,,,,,,,,,,,,,,,,,,,,,,,,,,,,,,,,,,How likely will it be that you will recognize the words presented very blurred on a scale of 0 (not likely) to 100 (most likely)?,,,,,,,,,,,2,4.066,0,1,1,2,1,,,,,,,,,,,,,,,,,,,,
,,,,,,,,,,,,,,,,,61bb3a6540db417c1a13901a,42,2022-02-12_13h22.55.149,lexical_decision_task_DD_L5,2021.2.3,MacIntel,58.82352941,,,,,,,,,,,,,,,,,,,,,,,,,,,,,,,,,,,,,,,,,,,,,,,,,How likely will it be that you will recognize the words presented clearly on a scale of 0 (not likely) to 100 (most likely)?,,,,,,,,,,,5,4.122,0,2,2,0,1,,,,,,,,,,,,,,,,,,,,
,0.006666667,-0.408888889,1,0,0,instr_done_button,,,,,,1,test,"In the next phase you will be presented with the words from the the first phase. Your job is to decide whether you remember seeing the word or not. If you remember seeing the word press ""old"" or type ""m"". If you do not remember seeing the word press ""new"" or type ""z"". Please press the space bar or click on continue to begin. ",,,61bb3a6540db417c1a13901a,42,2022-02-12_13h22.55.149,lexical_decision_task_DD_L5,2021.2.3,MacIntel,58.82352941,,,,,,,,,,,,,,,,,,,,,,,,,,,,,,,,,,,,,,,,,,,,,,,,,,,,,,,,,,,,,,,,,,,0,0,0,0,1,,,,,,,,,,,,,,,
space,0.006666667,-0.408888889,0,0,0,,,,,,,1,test,"In the next phase you will be presented with the words from the the first phase. Your job is to decide whether you remember seeing the word or not. If you remember seeing the word press ""old"" or type ""m"". If you do not remember seeing the word press ""new"" or type ""z"". Please press the space bar or click on continue to begin. ",,,61bb3a6540db417c1a13901a,42,2022-02-12_13h22.55.149,lexical_decision_task_DD_L5,2021.2.3,MacIntel,58.82352941,2.651,,,,,,,,,,,,,,,,,,,,,,,,,,,,,,,,,,,,,,,,,,,,,,,,,,,,,,,,,,,,,,,,,,1,0,1,0,1,,,,,,,,,,,,,,,
space,0.006666667,-0.408888889,0,0,0,,,,,,,1,test,"In the next phase you will be presented with the words from the the first phase. Your job is to decide whether you remember seeing the word or not. If you remember seeing the word press ""old"" or type ""m"". If you do not remember seeing the word press ""new"" or type ""z"". Please press the space bar or click on continue to begin. ",,,61bb3a6540db417c1a13901a,42,2022-02-12_13h22.55.149,lexical_decision_task_DD_L5,2021.2.3,MacIntel,58.82352941,2.426,,,,,,,,,,,,,,,,,,,,,,,,,,,,,,,,,,,,,,,,,,,,,,,,,,,,,,,,,,,,,,,,,,2,0,2,0,1,,,,,,,,,,,,,,,
,0.006666667,-0.408888889,1,0,0,instr_done_button,,,,,,1,test,"In the next phase you will be presented with the words from the the first phase. Your job is to decide whether you remember seeing the word or not. If you remember seeing the word press ""old"" or type ""m"". If you do not remember seeing the word press ""new"" or type ""z"". Please press the space bar or click on continue to begin. ",,,61bb3a6540db417c1a13901a,42,2022-02-12_13h22.55.149,lexical_decision_task_DD_L5,2021.2.3,MacIntel,58.82352941,,,,,,,,,,,,,,,,,,,,,,,,,,,,,,,,,,,,,,,,,,,,,,,,,,,,,,,,,,,,,,,,,,,3,0,3,0,1,,,,,,,,,,,,,,,
,-0.104444444,-0.406666667,1,0,0,instr_done_button,,,,,,1,test,"In the next phase you will be presented with the words from the the first phase. Your job is to decide whether you remember seeing the word or not. If you remember seeing the word press ""old"" or type ""m"". If you do not remember seeing the word press ""new"" or type ""z"". Please press the space bar or click on continue to begin. ",,,61bb3a6540db417c1a13901a,42,2022-02-12_13h22.55.149,lexical_decision_task_DD_L5,2021.2.3,MacIntel,58.82352941,,,,,,,,,,,,,,,,,,,,,,,,,,,,,,,,,,,,,,,,,,,,,,,,,,,,,,,,,,,,,,,,,,,4,0,4,0,1,,,,,,,,,,,,,,,
,,,,,,,,,,,,,,,,,61bb3a6540db417c1a13901a,42,2022-02-12_13h22.55.149,lexical_decision_task_DD_L5,2021.2.3,MacIntel,58.82352941,,,,,,,,,,,,3.654,1,,,,,,,,,,,,,,,,,,,,,,,,-0.104444444,-0.406666667,0,0,0,,,,,,,BRIDE,LB,m,y,./images/BRIDELB.png,,,,,,,,,,,,,,,,,,,,m,1,3.654,,,,,,,,0,0,0,64,1
,,,,,,,,,,,,,,,,,61bb3a6540db417c1a13901a,42,2022-02-12_13h22.55.149,lexical_decision_task_DD_L5,2021.2.3,MacIntel,58.82352941,,,,,,,,,,,,1.743,1,,,,,,,,,,,,,,,,,,,,,,,,-0.104444444,-0.406666667,0,0,0,,,,,,,BISHOP,LB,m,y,./images/BISHOPLB.png,,,,,,,,,,,,,,,,,,,,m,1,1.743,,,,,,,,0,1,1,49,1
,,,,,,,,,,,,,,,,,61bb3a6540db417c1a13901a,42,2022-02-12_13h22.55.149,lexical_decision_task_DD_L5,2021.2.3,MacIntel,58.82352941,,,,,,,,,,,,0.578,1,,,,,,,,,,,,,,,,,,,,,,,,-0.104444444,-0.406666667,0,0,0,,,,,,,HAMMER,HB,m,y,./images/HAMMERHB.png,,,,,,,,,,,,,,,,,,,,m,1,0.578,,,,,,,,0,2,2,75,1
,,,,,,,,,,,,,,,,,61bb3a6540db417c1a13901a,42,2022-02-12_13h22.55.149,lexical_decision_task_DD_L5,2021.2.3,MacIntel,58.82352941,,,,,,,,,,,,0.885,1,,,,,,,,,,,,,,,,,,,,,,,,-0.104444444,-0.406666667,0,0,0,,,,,,,RULER,LB,m,y,./images/RULERLB.png,,,,,,,,,,,,,,,,,,,,m,1,0.885,,,,,,,,0,3,3,79,1
,,,,,,,,,,,,,,,,,61bb3a6540db417c1a13901a,42,2022-02-12_13h22.55.149,lexical_decision_task_DD_L5,2021.2.3,MacIntel,58.82352941,,,,,,,,,,,,0.648,0,,,,,,,,,,,,,,,,,,,,,,,,-0.104444444,-0.406666667,0,0,0,,,,,,,SMOKER,C,z,y,./images/SMOKER.png,,,,,,,,,,,,,,,,,,,,m,0,0.648,,,,,,,,0,4,4,110,1
,,,,,,,,,,,,,,,,,61bb3a6540db417c1a13901a,42,2022-02-12_13h22.55.149,lexical_decision_task_DD_L5,2021.2.3,MacIntel,58.82352941,,,,,,,,,,,,0.798,0,,,,,,,,,,,,,,,,,,,,,,,,-0.104444444,-0.406666667,0,0,0,,,,,,,NOOSE,HB,z,y,./images/NOOSEHB.png,,,,,,,,,,,,,,,,,,,,m,0,0.798,,,,,,,,0,5,5,156,1
,,,,,,,,,,,,,,,,,61bb3a6540db417c1a13901a,42,2022-02-12_13h22.55.149,lexical_decision_task_DD_L5,2021.2.3,MacIntel,58.82352941,,,,,,,,,,,,0.81,0,,,,,,,,,,,,,,,,,,,,,,,,-0.104444444,-0.406666667,0,0,0,,,,,,,ATTIC,HB,z,y,./images/ATTICHB.png,,,,,,,,,,,,,,,,,,,,m,0,0.81,,,,,,,,0,6,6,111,1
,,,,,,,,,,,,,,,,,61bb3a6540db417c1a13901a,42,2022-02-12_13h22.55.149,lexical_decision_task_DD_L5,2021.2.3,MacIntel,58.82352941,,,,,,,,,,,,0.567,0,,,,,,,,,,,,,,,,,,,,,,,,-0.104444444,-0.406666667,0,0,0,,,,,,,PASTA,C,z,y,./images/PASTA.png,,,,,,,,,,,,,,,,,,,,m,0,0.567,,,,,,,,0,7,7,89,1
,,,,,,,,,,,,,,,,,61bb3a6540db417c1a13901a,42,2022-02-12_13h22.55.149,lexical_decision_task_DD_L5,2021.2.3,MacIntel,58.82352941,,,,,,,,,,,,0.933,1,,,,,,,,,,,,,,,,,,,,,,,,-0.104444444,-0.406666667,0,0,0,,,,,,,MOSQUE,LB,z,y,./images/MOSQUELB.png,,,,,,,,,,,,,,,,,,,,z,1,0.933,,,,,,,,0,8,8,127,1
,,,,,,,,,,,,,,,,,61bb3a6540db417c1a13901a,42,2022-02-12_13h22.55.149,lexical_decision_task_DD_L5,2021.2.3,MacIntel,58.82352941,,,,,,,,,,,,1.584,1,,,,,,,,,,,,,,,,,,,,,,,,-0.104444444,-0.406666667,0,0,0,,,,,,,CASINO,LB,m,y,./images/CASINOLB.png,,,,,,,,,,,,,,,,,,,,m,1,1.584,,,,,,,,0,9,9,28,1
,,,,,,,,,,,,,,,,,61bb3a6540db417c1a13901a,42,2022-02-12_13h22.55.149,lexical_decision_task_DD_L5,2021.2.3,MacIntel,58.82352941,,,,,,,,,,,,0.733,1,,,,,,,,,,,,,,,,,,,,,,,,-0.104444444,-0.406666667,0,0,0,,,,,,,SWEAT,HB,z,y,./images/SWEATHB.png,,,,,,,,,,,,,,,,,,,,z,1,0.733,,,,,,,,0,10,10,150,1
,,,,,,,,,,,,,,,,,61bb3a6540db417c1a13901a,42,2022-02-12_13h22.55.149,lexical_decision_task_DD_L5,2021.2.3,MacIntel,58.82352941,,,,,,,,,,,,2.732,1,,,,,,,,,,,,,,,,,,,,,,,,-0.104444444,-0.406666667,0,0,0,,,,,,,MAGGOT,HB,z,y,./images/MAGGOTHB.png,,,,,,,,,,,,,,,,,,,,z,1,2.732,,,,,,,,0,11,11,117,1
,,,,,,,,,,,,,,,,,61bb3a6540db417c1a13901a,42,2022-02-12_13h22.55.149,lexical_decision_task_DD_L5,2021.2.3,MacIntel,58.82352941,,,,,,,,,,,,0.633,1,,,,,,,,,,,,,,,,,,,,,,,,-0.104444444,-0.406666667,0,0,0,,,,,,,POKER,LB,m,y,./images/POKERLB.png,,,,,,,,,,,,,,,,,,,,m,1,0.633,,,,,,,,0,12,12,67,1
,,,,,,,,,,,,,,,,,61bb3a6540db417c1a13901a,42,2022-02-12_13h22.55.149,lexical_decision_task_DD_L5,2021.2.3,MacIntel,58.82352941,,,,,,,,,,,,0.985,1,,,,,,,,,,,,,,,,,,,,,,,,-0.104444444,-0.406666667,0,0,0,,,,,,,MOOSE,HB,z,y,./images/MOOSEHB.png,,,,,,,,,,,,,,,,,,,,z,1,0.985,,,,,,,,0,13,13,141,1
,,,,,,,,,,,,,,,,,61bb3a6540db417c1a13901a,42,2022-02-12_13h22.55.149,lexical_decision_task_DD_L5,2021.2.3,MacIntel,58.82352941,,,,,,,,,,,,1.283,0,,,,,,,,,,,,,,,,,,,,,,,,-0.104444444,-0.406666667,0,0,0,,,,,,,PEBBLE,LB,m,y,./images/PEBBLELB.png,,,,,,,,,,,,,,,,,,,,z,0,1.283,,,,,,,,0,14,14,82,1
,,,,,,,,,,,,,,,,,61bb3a6540db417c1a13901a,42,2022-02-12_13h22.55.149,lexical_decision_task_DD_L5,2021.2.3,MacIntel,58.82352941,,,,,,,,,,,,0.667,1,,,,,,,,,,,,,,,,,,,,,,,,-0.104444444,-0.406666667,0,0,0,,,,,,,STEAK,LB,m,y,./images/STEAKLB.png,,,,,,,,,,,,,,,,,,,,m,1,0.667,,,,,,,,0,15,15,31,1
,,,,,,,,,,,,,,,,,61bb3a6540db417c1a13901a,42,2022-02-12_13h22.55.149,lexical_decision_task_DD_L5,2021.2.3,MacIntel,58.82352941,,,,,,,,,,,,0.862,1,,,,,,,,,,,,,,,,,,,,,,,,-0.104444444,-0.406666667,0,0,0,,,,,,,ENGINE,C,m,y,./images/ENGINE.png,,,,,,,,,,,,,,,,,,,,m,1,0.862,,,,,,,,0,16,16,38,1
,,,,,,,,,,,,,,,,,61bb3a6540db417c1a13901a,42,2022-02-12_13h22.55.149,lexical_decision_task_DD_L5,2021.2.3,MacIntel,58.82352941,,,,,,,,,,,,0.811,1,,,,,,,,,,,,,,,,,,,,,,,,-0.104444444,-0.406666667,0,0,0,,,,,,,BELLY,LB,z,y,./images/BELLYLB.png,,,,,,,,,,,,,,,,,,,,z,1,0.811,,,,,,,,0,17,17,94,1
,,,,,,,,,,,,,,,,,61bb3a6540db417c1a13901a,42,2022-02-12_13h22.55.149,lexical_decision_task_DD_L5,2021.2.3,MacIntel,58.82352941,,,,,,,,,,,,0.777,0,,,,,,,,,,,,,,,,,,,,,,,,-0.104444444,-0.406666667,0,0,0,,,,,,,FLESH,HB,m,y,./images/FLESHHB.png,,,,,,,,,,,,,,,,,,,,z,0,0.777,,,,,,,,0,18,18,24,1
,,,,,,,,,,,,,,,,,61bb3a6540db417c1a13901a,42,2022-02-12_13h22.55.149,lexical_decision_task_DD_L5,2021.2.3,MacIntel,58.82352941,,,,,,,,,,,,0.818,1,,,,,,,,,,,,,,,,,,,,,,,,-0.104444444,-0.406666667,0,0,0,,,,,,,CANOE,LB,m,y,./images/CANOELB.png,,,,,,,,,,,,,,,,,,,,m,1,0.818,,,,,,,,0,19,19,58,1
,,,,,,,,,,,,,,,,,61bb3a6540db417c1a13901a,42,2022-02-12_13h22.55.149,lexical_decision_task_DD_L5,2021.2.3,MacIntel,58.82352941,,,,,,,,,,,,1.177,1,,,,,,,,,,,,,,,,,,,,,,,,-0.104444444,-0.406666667,0,0,0,,,,,,,MUMMY,LB,m,y,./images/MUMMYLB.png,,,,,,,,,,,,,,,,,,,,m,1,1.177,,,,,,,,0,20,20,46,1
,,,,,,,,,,,,,,,,,61bb3a6540db417c1a13901a,42,2022-02-12_13h22.55.149,lexical_decision_task_DD_L5,2021.2.3,MacIntel,58.82352941,,,,,,,,,,,,1.732,0,,,,,,,,,,,,,,,,,,,,,,,,-0.104444444,-0.406666667,0,0,0,,,,,,,CANDLE,LB,z,y,./images/CANDLELB.png,,,,,,,,,,,,,,,,,,,,m,0,1.732,,,,,,,,0,21,21,145,1
,,,,,,,,,,,,,,,,,61bb3a6540db417c1a13901a,42,2022-02-12_13h22.55.149,lexical_decision_task_DD_L5,2021.2.3,MacIntel,58.82352941,,,,,,,,,,,,0.711,1,,,,,,,,,,,,,,,,,,,,,,,,-0.104444444,-0.406666667,0,0,0,,,,,,,MIDGET,LB,m,y,./images/MIDGETLB.png,,,,,,,,,,,,,,,,,,,,m,1,0.711,,,,,,,,0,22,22,76,1
,,,,,,,,,,,,,,,,,61bb3a6540db417c1a13901a,42,2022-02-12_13h22.55.149,lexical_decision_task_DD_L5,2021.2.3,MacIntel,58.82352941,,,,,,,,,,,,1.01,1,,,,,,,,,,,,,,,,,,,,,,,,-0.104444444,-0.406666667,0,0,0,,,,,,,URINE,LB,z,y,./images/URINELB.png,,,,,,,,,,,,,,,,,,,,z,1,1.01,,,,,,,,0,23,23,154,1
,,,,,,,,,,,,,,,,,61bb3a6540db417c1a13901a,42,2022-02-12_13h22.55.149,lexical_decision_task_DD_L5,2021.2.3,MacIntel,58.82352941,,,,,,,,,,,,0.777,0,,,,,,,,,,,,,,,,,,,,,,,,-0.104444444,-0.406666667,0,0,0,,,,,,,PACKET,C,z,y,./images/PACKET.png,,,,,,,,,,,,,,,,,,,,m,0,0.777,,,,,,,,0,24,24,140,1
,,,,,,,,,,,,,,,,,61bb3a6540db417c1a13901a,42,2022-02-12_13h22.55.149,lexical_decision_task_DD_L5,2021.2.3,MacIntel,58.82352941,,,,,,,,,,,,0.732,1,,,,,,,,,,,,,,,,,,,,,,,,-0.104444444,-0.406666667,0,0,0,,,,,,,CLOWN,LB,m,y,./images/CLOWNLB.png,,,,,,,,,,,,,,,,,,,,m,1,0.732,,,,,,,,0,25,25,22,1
,,,,,,,,,,,,,,,,,61bb3a6540db417c1a13901a,42,2022-02-12_13h22.55.149,lexical_decision_task_DD_L5,2021.2.3,MacIntel,58.82352941,,,,,,,,,,,,1.594,1,,,,,,,,,,,,,,,,,,,,,,,,-0.104444444,-0.406666667,0,0,0,,,,,,,PIMPLE,C,z,y,./images/PIMPLE.png,,,,,,,,,,,,,,,,,,,,z,1,1.594,,,,,,,,0,26,26,155,1
,,,,,,,,,,,,,,,,,61bb3a6540db417c1a13901a,42,2022-02-12_13h22.55.149,lexical_decision_task_DD_L5,2021.2.3,MacIntel,58.82352941,,,,,,,,,,,,0.967,0,,,,,,,,,,,,,,,,,,,,,,,,-0.104444444,-0.406666667,0,0,0,,,,,,,STORM,HB,z,y,./images/STORMHB.png,,,,,,,,,,,,,,,,,,,,m,0,0.967,,,,,,,,0,27,27,114,1
,,,,,,,,,,,,,,,,,61bb3a6540db417c1a13901a,42,2022-02-12_13h22.55.149,lexical_decision_task_DD_L5,2021.2.3,MacIntel,58.82352941,,,,,,,,,,,,1.31,1,,,,,,,,,,,,,,,,,,,,,,,,-0.104444444,-0.406666667,0,0,0,,,,,,,RHINO,HB,z,y,./images/RHINOHB.png,,,,,,,,,,,,,,,,,,,,z,1,1.31,,,,,,,,0,28,28,93,1
,,,,,,,,,,,,,,,,,61bb3a6540db417c1a13901a,42,2022-02-12_13h22.55.149,lexical_decision_task_DD_L5,2021.2.3,MacIntel,58.82352941,,,,,,,,,,,,1.017,0,,,,,,,,,,,,,,,,,,,,,,,,-0.104444444,-0.406666667,0,0,0,,,,,,,STOOL,LB,m,y,./images/STOOLLB.png,,,,,,,,,,,,,,,,,,,,z,0,1.017,,,,,,,,0,29,29,43,1
,,,,,,,,,,,,,,,,,61bb3a6540db417c1a13901a,42,2022-02-12_13h22.55.149,lexical_decision_task_DD_L5,2021.2.3,MacIntel,58.82352941,,,,,,,,,,,,0.684,0,,,,,,,,,,,,,,,,,,,,,,,,-0.104444444,-0.406666667,0,0,0,,,,,,,WEASEL,C,z,y,./images/WEASEL.png,,,,,,,,,,,,,,,,,,,,m,0,0.684,,,,,,,,0,30,30,164,1
,,,,,,,,,,,,,,,,,61bb3a6540db417c1a13901a,42,2022-02-12_13h22.55.149,lexical_decision_task_DD_L5,2021.2.3,MacIntel,58.82352941,,,,,,,,,,,,1.061,1,,,,,,,,,,,,,,,,,,,,,,,,-0.104444444,-0.406666667,0,0,0,,,,,,,DRUMS,LB,z,y,./images/DRUMSLB.png,,,,,,,,,,,,,,,,,,,,z,1,1.061,,,,,,,,0,31,31,133,1
,,,,,,,,,,,,,,,,,61bb3a6540db417c1a13901a,42,2022-02-12_13h22.55.149,lexical_decision_task_DD_L5,2021.2.3,MacIntel,58.82352941,,,,,,,,,,,,0.709,1,,,,,,,,,,,,,,,,,,,,,,,,-0.104444444,-0.406666667,0,0,0,,,,,,,WHISKY,C,m,y,./images/WHISKY.png,,,,,,,,,,,,,,,,,,,,m,1,0.709,,,,,,,,0,32,32,83,1
,,,,,,,,,,,,,,,,,61bb3a6540db417c1a13901a,42,2022-02-12_13h22.55.149,lexical_decision_task_DD_L5,2021.2.3,MacIntel,58.82352941,,,,,,,,,,,,0.661,1,,,,,,,,,,,,,,,,,,,,,,,,-0.104444444,-0.406666667,0,0,0,,,,,,,TORCH,C,z,y,./images/TORCH.png,,,,,,,,,,,,,,,,,,,,z,1,0.661,,,,,,,,0,33,33,152,1
,,,,,,,,,,,,,,,,,61bb3a6540db417c1a13901a,42,2022-02-12_13h22.55.149,lexical_decision_task_DD_L5,2021.2.3,MacIntel,58.82352941,,,,,,,,,,,,0.978,1,,,,,,,,,,,,,,,,,,,,,,,,-0.104444444,-0.406666667,0,0,0,,,,,,,TULIP,C,z,y,./images/TULIP.png,,,,,,,,,,,,,,,,,,,,z,1,0.978,,,,,,,,0,34,34,92,1
,,,,,,,,,,,,,,,,,61bb3a6540db417c1a13901a,42,2022-02-12_13h22.55.149,lexical_decision_task_DD_L5,2021.2.3,MacIntel,58.82352941,,,,,,,,,,,,1.929,0,,,,,,,,,,,,,,,,,,,,,,,,-0.104444444,-0.406666667,0,0,0,,,,,,,CANDY,HB,m,y,./images/CANDYHB.png,,,,,,,,,,,,,,,,,,,,z,0,1.929,,,,,,,,0,35,35,39,1
,,,,,,,,,,,,,,,,,61bb3a6540db417c1a13901a,42,2022-02-12_13h22.55.149,lexical_decision_task_DD_L5,2021.2.3,MacIntel,58.82352941,,,,,,,,,,,,1.067,0,,,,,,,,,,,,,,,,,,,,,,,,-0.104444444,-0.406666667,0,0,0,,,,,,,SWING,LB,z,y,./images/SWINGLB.png,,,,,,,,,,,,,,,,,,,,m,0,1.067,,,,,,,,0,36,36,124,1
,,,,,,,,,,,,,,,,,61bb3a6540db417c1a13901a,42,2022-02-12_13h22.55.149,lexical_decision_task_DD_L5,2021.2.3,MacIntel,58.82352941,,,,,,,,,,,,0.662,1,,,,,,,,,,,,,,,,,,,,,,,,-0.104444444,-0.406666667,0,0,0,,,,,,,LITTER,HB,z,y,./images/LITTERHB.png,,,,,,,,,,,,,,,,,,,,z,1,0.662,,,,,,,,0,37,37,162,1
,,,,,,,,,,,,,,,,,61bb3a6540db417c1a13901a,42,2022-02-12_13h22.55.149,lexical_decision_task_DD_L5,2021.2.3,MacIntel,58.82352941,,,,,,,,,,,,0.967,1,,,,,,,,,,,,,,,,,,,,,,,,-0.104444444,-0.406666667,0,0,0,,,,,,,POSTER,C,m,y,./images/POSTER.png,,,,,,,,,,,,,,,,,,,,m,1,0.967,,,,,,,,0,38,38,53,1
,,,,,,,,,,,,,,,,,61bb3a6540db417c1a13901a,42,2022-02-12_13h22.55.149,lexical_decision_task_DD_L5,2021.2.3,MacIntel,58.82352941,,,,,,,,,,,,0.931,1,,,,,,,,,,,,,,,,,,,,,,,,-0.104444444,-0.406666667,0,0,0,,,,,,,LLAMA,C,m,y,./images/LLAMA.png,,,,,,,,,,,,,,,,,,,,m,1,0.931,,,,,,,,0,39,39,35,1
,,,,,,,,,,,,,,,,,61bb3a6540db417c1a13901a,42,2022-02-12_13h22.55.149,lexical_decision_task_DD_L5,2021.2.3,MacIntel,58.82352941,,,,,,,,,,,,0.795,1,,,,,,,,,,,,,,,,,,,,,,,,-0.104444444,-0.406666667,0,0,0,,,,,,,ONION,HB,z,y,./images/ONIONHB.png,,,,,,,,,,,,,,,,,,,,z,1,0.795,,,,,,,,0,40,40,135,1
,,,,,,,,,,,,,,,,,61bb3a6540db417c1a13901a,42,2022-02-12_13h22.55.149,lexical_decision_task_DD_L5,2021.2.3,MacIntel,58.82352941,,,,,,,,,,,,0.616,1,,,,,,,,,,,,,,,,,,,,,,,,-0.104444444,-0.406666667,0,0,0,space,,,,,,MOTOR,LB,z,y,./images/MOTORLB.png,1.177,,,,,,,,,,,,,,,,,,,z,1,0.616,,,,,,,,0,41,41,97,1
,,,,,,,,,,,,,,,,,61bb3a6540db417c1a13901a,42,2022-02-12_13h22.55.149,lexical_decision_task_DD_L5,2021.2.3,MacIntel,58.82352941,,,,,,,,,,,,0.767,0,,,,,,,,,,,,,,,,,,,,,,,,-0.104444444,-0.406666667,0,0,0,,,,,,,SHIELD,HB,m,y,./images/SHIELDHB.png,,,,,,,,,,,,,,,,,,,,z,0,0.767,,,,,,,,0,42,42,48,1
,,,,,,,,,,,,,,,,,61bb3a6540db417c1a13901a,42,2022-02-12_13h22.55.149,lexical_decision_task_DD_L5,2021.2.3,MacIntel,58.82352941,,,,,,,,,,,,0.881,0,,,,,,,,,,,,,,,,,,,,,,,,-0.104444444,-0.406666667,0,0,0,,,,,,,MEDAL,C,m,y,./images/MEDAL.png,,,,,,,,,,,,,,,,,,,,z,0,0.881,,,,,,,,0,43,43,11,1
,,,,,,,,,,,,,,,,,61bb3a6540db417c1a13901a,42,2022-02-12_13h22.55.149,lexical_decision_task_DD_L5,2021.2.3,MacIntel,58.82352941,,,,,,,,,,,,0.994,1,,,,,,,,,,,,,,,,,,,,,,,,-0.104444444,-0.406666667,0,0,0,,,,,,,TRIPOD,HB,z,y,./images/TRIPODHB.png,,,,,,,,,,,,,,,,,,,,z,1,0.994,,,,,,,,0,44,44,138,1
,,,,,,,,,,,,,,,,,61bb3a6540db417c1a13901a,42,2022-02-12_13h22.55.149,lexical_decision_task_DD_L5,2021.2.3,MacIntel,58.82352941,,,,,,,,,,,,0.778,1,,,,,,,,,,,,,,,,,,,,,,,,-0.104444444,-0.406666667,0,0,0,,,,,,,STATUE,HB,m,y,./images/STATUEHB.png,,,,,,,,,,,,,,,,,,,,m,1,0.778,,,,,,,,0,45,45,66,1
,,,,,,,,,,,,,,,,,61bb3a6540db417c1a13901a,42,2022-02-12_13h22.55.149,lexical_decision_task_DD_L5,2021.2.3,MacIntel,58.82352941,,,,,,,,,,,,0.865,0,,,,,,,,,,,,,,,,,,,,,,,,-0.104444444,-0.406666667,0,0,0,,,,,,,MUFFIN,LB,z,y,./images/MUFFINLB.png,,,,,,,,,,,,,,,,,,,,m,0,0.865,,,,,,,,0,46,46,139,1
,,,,,,,,,,,,,,,,,61bb3a6540db417c1a13901a,42,2022-02-12_13h22.55.149,lexical_decision_task_DD_L5,2021.2.3,MacIntel,58.82352941,,,,,,,,,,,,1.051,1,,,,,,,,,,,,,,,,,,,,,,,,-0.104444444,-0.406666667,0,0,0,,,,,,,BRUSH,C,m,y,./images/BRUSH.png,,,,,,,,,,,,,,,,,,,,m,1,1.051,,,,,,,,0,47,47,59,1
,,,,,,,,,,,,,,,,,61bb3a6540db417c1a13901a,42,2022-02-12_13h22.55.149,lexical_decision_task_DD_L5,2021.2.3,MacIntel,58.82352941,,,,,,,,,,,,0.844,1,,,,,,,,,,,,,,,,,,,,,,,,-0.104444444,-0.406666667,0,0,0,,,,,,,CRADLE,C,z,y,./images/CRADLE.png,,,,,,,,,,,,,,,,,,,,z,1,0.844,,,,,,,,0,48,48,104,1
,,,,,,,,,,,,,,,,,61bb3a6540db417c1a13901a,42,2022-02-12_13h22.55.149,lexical_decision_task_DD_L5,2021.2.3,MacIntel,58.82352941,,,,,,,,,,,,0.766,0,,,,,,,,,,,,,,,,,,,,,,,,-0.104444444,-0.406666667,0,0,0,,,,,,,SAUCE,HB,m,y,./images/SAUCEHB.png,,,,,,,,,,,,,,,,,,,,z,0,0.766,,,,,,,,0,49,49,51,1
,,,,,,,,,,,,,,,,,61bb3a6540db417c1a13901a,42,2022-02-12_13h22.55.149,lexical_decision_task_DD_L5,2021.2.3,MacIntel,58.82352941,,,,,,,,,,,,0.717,1,,,,,,,,,,,,,,,,,,,,,,,,-0.104444444,-0.406666667,0,0,0,,,,,,,CRUMB,C,z,y,./images/CRUMB.png,,,,,,,,,,,,,,,,,,,,z,1,0.717,,,,,,,,0,50,50,113,1
,,,,,,,,,,,,,,,,,61bb3a6540db417c1a13901a,42,2022-02-12_13h22.55.149,lexical_decision_task_DD_L5,2021.2.3,MacIntel,58.82352941,,,,,,,,,,,,0.64,0,,,,,,,,,,,,,,,,,,,,,,,,-0.104444444,-0.406666667,0,0,0,,,,,,,CHALK,LB,m,y,./images/CHALKLB.png,,,,,,,,,,,,,,,,,,,,z,0,0.64,,,,,,,,0,51,51,25,1
,,,,,,,,,,,,,,,,,61bb3a6540db417c1a13901a,42,2022-02-12_13h22.55.149,lexical_decision_task_DD_L5,2021.2.3,MacIntel,58.82352941,,,,,,,,,,,,0.767,1,,,,,,,,,,,,,,,,,,,,,,,,-0.104444444,-0.406666667,0,0,0,,,,,,,SHELF,HB,z,y,./images/SHELFHB.png,,,,,,,,,,,,,,,,,,,,z,1,0.767,,,,,,,,0,52,52,123,1
,,,,,,,,,,,,,,,,,61bb3a6540db417c1a13901a,42,2022-02-12_13h22.55.149,lexical_decision_task_DD_L5,2021.2.3,MacIntel,58.82352941,,,,,,,,,,,,0.626,1,,,,,,,,,,,,,,,,,,,,,,,,-0.104444444,-0.406666667,0,0,0,,,,,,,STRING,C,z,y,./images/STRING.png,,,,,,,,,,,,,,,,,,,,z,1,0.626,,,,,,,,0,53,53,125,1
,,,,,,,,,,,,,,,,,61bb3a6540db417c1a13901a,42,2022-02-12_13h22.55.149,lexical_decision_task_DD_L5,2021.2.3,MacIntel,58.82352941,,,,,,,,,,,,0.584,1,,,,,,,,,,,,,,,,,,,,,,,,-0.104444444,-0.406666667,0,0,0,,,,,,,PAINT,LB,z,y,./images/PAINTLB.png,,,,,,,,,,,,,,,,,,,,z,1,0.584,,,,,,,,0,54,54,91,1
,,,,,,,,,,,,,,,,,61bb3a6540db417c1a13901a,42,2022-02-12_13h22.55.149,lexical_decision_task_DD_L5,2021.2.3,MacIntel,58.82352941,,,,,,,,,,,,0.678,1,,,,,,,,,,,,,,,,,,,,,,,,-0.104444444,-0.406666667,0,0,0,,,,,,,CLOTH,C,m,y,./images/CLOTH.png,,,,,,,,,,,,,,,,,,,,m,1,0.678,,,,,,,,0,55,55,23,1
,,,,,,,,,,,,,,,,,61bb3a6540db417c1a13901a,42,2022-02-12_13h22.55.149,lexical_decision_task_DD_L5,2021.2.3,MacIntel,58.82352941,,,,,,,,,,,,0.642,0,,,,,,,,,,,,,,,,,,,,,,,,-0.104444444,-0.406666667,0,0,0,,,,,,,FERRY,HB,m,y,./images/FERRYHB.png,,,,,,,,,,,,,,,,,,,,z,0,0.642,,,,,,,,0,56,56,57,1
,,,,,,,,,,,,,,,,,61bb3a6540db417c1a13901a,42,2022-02-12_13h22.55.149,lexical_decision_task_DD_L5,2021.2.3,MacIntel,58.82352941,,,,,,,,,,,,0.649,1,,,,,,,,,,,,,,,,,,,,,,,,-0.104444444,-0.406666667,0,0,0,,,,,,,PEACH,C,z,y,./images/PEACH.png,,,,,,,,,,,,,,,,,,,,z,1,0.649,,,,,,,,0,57,57,119,1
,,,,,,,,,,,,,,,,,61bb3a6540db417c1a13901a,42,2022-02-12_13h22.55.149,lexical_decision_task_DD_L5,2021.2.3,MacIntel,58.82352941,,,,,,,,,,,,0.631,0,,,,,,,,,,,,,,,,,,,,,,,,-0.104444444,-0.406666667,0,0,0,,,,,,,BUTTER,HB,m,y,./images/BUTTERHB.png,,,,,,,,,,,,,,,,,,,,z,0,0.631,,,,,,,,0,58,58,27,1
,,,,,,,,,,,,,,,,,61bb3a6540db417c1a13901a,42,2022-02-12_13h22.55.149,lexical_decision_task_DD_L5,2021.2.3,MacIntel,58.82352941,,,,,,,,,,,,0.862,1,,,,,,,,,,,,,,,,,,,,,,,,-0.104444444,-0.406666667,0,0,0,,,,,,,SAILOR,LB,z,y,./images/SAILORLB.png,,,,,,,,,,,,,,,,,,,,z,1,0.862,,,,,,,,0,59,59,151,1
,,,,,,,,,,,,,,,,,61bb3a6540db417c1a13901a,42,2022-02-12_13h22.55.149,lexical_decision_task_DD_L5,2021.2.3,MacIntel,58.82352941,,,,,,,,,,,,0.542,0,,,,,,,,,,,,,,,,,,,,,,,,-0.104444444,-0.406666667,0,0,0,,,,,,,BAKER,HB,m,y,./images/BAKERHB.png,,,,,,,,,,,,,,,,,,,,z,0,0.542,,,,,,,,0,60,60,63,1
,,,,,,,,,,,,,,,,,61bb3a6540db417c1a13901a,42,2022-02-12_13h22.55.149,lexical_decision_task_DD_L5,2021.2.3,MacIntel,58.82352941,,,,,,,,,,,,1.236,1,,,,,,,,,,,,,,,,,,,,,,,,-0.104444444,-0.406666667,0,0,0,,,,,,,CRATER,HB,m,y,./images/CRATERHB.png,,,,,,,,,,,,,,,,,,,,m,1,1.236,,,,,,,,0,61,61,3,1
,,,,,,,,,,,,,,,,,61bb3a6540db417c1a13901a,42,2022-02-12_13h22.55.149,lexical_decision_task_DD_L5,2021.2.3,MacIntel,58.82352941,,,,,,,,,,,,1.291,0,,,,,,,,,,,,,,,,,,,,,,,,-0.104444444,-0.406666667,0,0,0,,,,,,,COLLAR,HB,m,y,./images/COLLARHB.png,,,,,,,,,,,,,,,,,,,,z,0,1.291,,,,,,,,0,62,62,15,1
,,,,,,,,,,,,,,,,,61bb3a6540db417c1a13901a,42,2022-02-12_13h22.55.149,lexical_decision_task_DD_L5,2021.2.3,MacIntel,58.82352941,,,,,,,,,,,,0.651,0,,,,,,,,,,,,,,,,,,,,,,,,-0.104444444,-0.406666667,0,0,0,,,,,,,RAZOR,LB,m,y,./images/RAZORLB.png,,,,,,,,,,,,,,,,,,,,z,0,0.651,,,,,,,,0,63,63,34,1
,,,,,,,,,,,,,,,,,61bb3a6540db417c1a13901a,42,2022-02-12_13h22.55.149,lexical_decision_task_DD_L5,2021.2.3,MacIntel,58.82352941,,,,,,,,,,,,0.449,1,,,,,,,,,,,,,,,,,,,,,,,,-0.104444444,-0.406666667,0,0,0,,,,,,,PLANK,LB,z,y,./images/PLANKLB.png,,,,,,,,,,,,,,,,,,,,z,1,0.449,,,,,,,,0,64,64,85,1
,,,,,,,,,,,,,,,,,61bb3a6540db417c1a13901a,42,2022-02-12_13h22.55.149,lexical_decision_task_DD_L5,2021.2.3,MacIntel,58.82352941,,,,,,,,,,,,1.44,1,,,,,,,,,,,,,,,,,,,,,,,,-0.104444444,-0.406666667,0,0,0,,,,,,,MAMMAL,C,m,y,./images/MAMMAL.png,,,,,,,,,,,,,,,,,,,,m,1,1.44,,,,,,,,0,65,65,62,1
,,,,,,,,,,,,,,,,,61bb3a6540db417c1a13901a,42,2022-02-12_13h22.55.149,lexical_decision_task_DD_L5,2021.2.3,MacIntel,58.82352941,,,,,,,,,,,,1.517,1,,,,,,,,,,,,,,,,,,,,,,,,-0.104444444,-0.406666667,0,0,0,,,,,,,TOMATO,HB,z,y,./images/TOMATOHB.png,,,,,,,,,,,,,,,,,,,,z,1,1.517,,,,,,,,0,66,66,84,1
,,,,,,,,,,,,,,,,,61bb3a6540db417c1a13901a,42,2022-02-12_13h22.55.149,lexical_decision_task_DD_L5,2021.2.3,MacIntel,58.82352941,,,,,,,,,,,,1.293,1,,,,,,,,,,,,,,,,,,,,,,,,-0.104444444,-0.406666667,0,0,0,,,,,,,WHEEL,C,m,y,./images/WHEEL.png,,,,,,,,,,,,,,,,,,,,m,1,1.293,,,,,,,,0,67,67,77,1
,,,,,,,,,,,,,,,,,61bb3a6540db417c1a13901a,42,2022-02-12_13h22.55.149,lexical_decision_task_DD_L5,2021.2.3,MacIntel,58.82352941,,,,,,,,,,,,0.868,1,,,,,,,,,,,,,,,,,,,,,,,,-0.104444444,-0.406666667,0,0,0,,,,,,,SUNSET,LB,z,y,./images/SUNSETLB.png,,,,,,,,,,,,,,,,,,,,z,1,0.868,,,,,,,,0,68,68,166,1
,,,,,,,,,,,,,,,,,61bb3a6540db417c1a13901a,42,2022-02-12_13h22.55.149,lexical_decision_task_DD_L5,2021.2.3,MacIntel,58.82352941,,,,,,,,,,,,0.767,0,,,,,,,,,,,,,,,,,,,,,,,,-0.104444444,-0.406666667,0,0,0,,,,,,,GLOVE,LB,m,y,./images/GLOVELB.png,,,,,,,,,,,,,,,,,,,,z,0,0.767,,,,,,,,0,69,69,73,1
,,,,,,,,,,,,,,,,,61bb3a6540db417c1a13901a,42,2022-02-12_13h22.55.149,lexical_decision_task_DD_L5,2021.2.3,MacIntel,58.82352941,,,,,,,,,,,,0.493,1,,,,,,,,,,,,,,,,,,,,,,,,-0.104444444,-0.406666667,0,0,0,,,,,,,TWINS,HB,z,y,./images/TWINSHB.png,,,,,,,,,,,,,,,,,,,,z,1,0.493,,,,,,,,0,70,70,144,1
,,,,,,,,,,,,,,,,,61bb3a6540db417c1a13901a,42,2022-02-12_13h22.55.149,lexical_decision_task_DD_L5,2021.2.3,MacIntel,58.82352941,,,,,,,,,,,,0.643,1,,,,,,,,,,,,,,,,,,,,,,,,-0.104444444,-0.406666667,0,0,0,,,,,,,SHORE,HB,z,y,./images/SHOREHB.png,,,,,,,,,,,,,,,,,,,,z,1,0.643,,,,,,,,0,71,71,96,1
,,,,,,,,,,,,,,,,,61bb3a6540db417c1a13901a,42,2022-02-12_13h22.55.149,lexical_decision_task_DD_L5,2021.2.3,MacIntel,58.82352941,,,,,,,,,,,,0.927,1,,,,,,,,,,,,,,,,,,,,,,,,-0.104444444,-0.406666667,0,0,0,,,,,,,MALLET,C,z,y,./images/MALLET.png,,,,,,,,,,,,,,,,,,,,z,1,0.927,,,,,,,,0,72,72,134,1
,,,,,,,,,,,,,,,,,61bb3a6540db417c1a13901a,42,2022-02-12_13h22.55.149,lexical_decision_task_DD_L5,2021.2.3,MacIntel,58.82352941,,,,,,,,,,,,1.776,1,,,,,,,,,,,,,,,,,,,,,,,,-0.104444444,-0.406666667,0,0,0,,,,,,,BAMBOO,C,m,y,./images/BAMBOO.png,,,,,,,,,,,,,,,,,,,,m,1,1.776,,,,,,,,0,73,73,5,1
,,,,,,,,,,,,,,,,,61bb3a6540db417c1a13901a,42,2022-02-12_13h22.55.149,lexical_decision_task_DD_L5,2021.2.3,MacIntel,58.82352941,,,,,,,,,,,,1.162,0,,,,,,,,,,,,,,,,,,,,,,,,-0.104444444,-0.406666667,0,0,0,,,,,,,SNAKE,LB,m,y,./images/SNAKELB.png,,,,,,,,,,,,,,,,,,,,z,0,1.162,,,,,,,,0,74,74,40,1
,,,,,,,,,,,,,,,,,61bb3a6540db417c1a13901a,42,2022-02-12_13h22.55.149,lexical_decision_task_DD_L5,2021.2.3,MacIntel,58.82352941,,,,,,,,,,,,10.948,1,,,,,,,,,,,,,,,,,,,,,,,,-0.104444444,-0.406666667,0,0,0,,,,,,,DESERT,LB,m,y,./images/DESERTLB.png,,,,,,,,,,,,,,,,,,,,m,1,10.948,,,,,,,,0,75,75,52,1
,,,,,,,,,,,,,,,,,61bb3a6540db417c1a13901a,42,2022-02-12_13h22.55.149,lexical_decision_task_DD_L5,2021.2.3,MacIntel,58.82352941,,,,,,,,,,,,0.809,1,,,,,,,,,,,,,,,,,,,,,,,,-0.104444444,-0.406666667,0,0,0,,,,,,,THROAT,HB,z,y,./images/THROATHB.png,,,,,,,,,,,,,,,,,,,,z,1,0.809,,,,,,,,0,76,76,120,1
,,,,,,,,,,,,,,,,,61bb3a6540db417c1a13901a,42,2022-02-12_13h22.55.149,lexical_decision_task_DD_L5,2021.2.3,MacIntel,58.82352941,,,,,,,,,,,,0.579,1,,,,,,,,,,,,,,,,,,,,,,,,-0.104444444,-0.406666667,0,0,0,,,,,,,BONNET,C,z,y,./images/BONNET.png,,,,,,,,,,,,,,,,,,,,z,1,0.579,,,,,,,,0,77,77,95,1
,,,,,,,,,,,,,,,,,61bb3a6540db417c1a13901a,42,2022-02-12_13h22.55.149,lexical_decision_task_DD_L5,2021.2.3,MacIntel,58.82352941,,,,,,,,,,,,2.956,1,,,,,,,,,,,,,,,,,,,,,,,,-0.104444444,-0.406666667,0,0,0,,,,,,,GREASE,HB,z,y,./images/GREASEHB.png,,,,,,,,,,,,,,,,,,,,z,1,2.956,,,,,,,,0,78,78,99,1
,,,,,,,,,,,,,,,,,61bb3a6540db417c1a13901a,42,2022-02-12_13h22.55.149,lexical_decision_task_DD_L5,2021.2.3,MacIntel,58.82352941,,,,,,,,,,,,0.633,0,,,,,,,,,,,,,,,,,,,,,,,,-0.104444444,-0.406666667,0,0,0,,,,,,,PILOT,C,m,y,./images/PILOT.png,,,,,,,,,,,,,,,,,,,,z,0,0.633,,,,,,,,0,79,79,50,1
,,,,,,,,,,,,,,,,,61bb3a6540db417c1a13901a,42,2022-02-12_13h22.55.149,lexical_decision_task_DD_L5,2021.2.3,MacIntel,58.82352941,,,,,,,,,,,,0.791,1,,,,,,,,,,,,,,,,,,,,,,,,-0.104444444,-0.406666667,0,0,0,,,,,,,JAGUAR,HB,z,y,./images/JAGUARHB.png,,,,,,,,,,,,,,,,,,,,z,1,0.791,,,,,,,,0,80,80,102,1
,,,,,,,,,,,,,,,,,61bb3a6540db417c1a13901a,42,2022-02-12_13h22.55.149,lexical_decision_task_DD_L5,2021.2.3,MacIntel,58.82352941,,,,,,,,,,,,1.245,1,,,,,,,,,,,,,,,,,,,,,,,,-0.104444444,-0.406666667,0,0,0,,,,,,,COOKER,HB,z,y,./images/COOKERHB.png,,,,,,,,,,,,,,,,,,,,z,1,1.245,,,,,,,,0,81,81,153,1
,,,,,,,,,,,,,,,,,61bb3a6540db417c1a13901a,42,2022-02-12_13h22.55.149,lexical_decision_task_DD_L5,2021.2.3,MacIntel,58.82352941,,,,,,,,,,,,0.816,1,,,,,,,,,,,,,,,,,,,,,,,,-0.104444444,-0.406666667,0,0,0,,,,,,,SPINE,C,m,y,./images/SPINE.png,,,,,,,,,,,,,,,,,,,,m,1,0.816,,,,,,,,0,82,82,65,1
,,,,,,,,,,,,,,,,,61bb3a6540db417c1a13901a,42,2022-02-12_13h22.55.149,lexical_decision_task_DD_L5,2021.2.3,MacIntel,58.82352941,,,,,,,,,,,,0.761,1,,,,,,,,,,,,,,,,,,,,,,,,-0.104444444,-0.406666667,0,0,0,space,,,,,,CLIFF,C,m,y,./images/CLIFF.png,13.356,,,,,,,,,,,,,,,,,,,m,1,0.761,,,,,,,,0,83,83,8,1
,,,,,,,,,,,,,,,,,61bb3a6540db417c1a13901a,42,2022-02-12_13h22.55.149,lexical_decision_task_DD_L5,2021.2.3,MacIntel,58.82352941,,,,,,,,,,,,1.56,1,,,,,,,,,,,,,,,,,,,,,,,,-0.104444444,-0.406666667,0,0,0,,,,,,,PENCE,LB,z,y,./images/PENCELB.png,,,,,,,,,,,,,,,,,,,,z,1,1.56,,,,,,,,0,84,84,100,1
,,,,,,,,,,,,,,,,,61bb3a6540db417c1a13901a,42,2022-02-12_13h22.55.149,lexical_decision_task_DD_L5,2021.2.3,MacIntel,58.82352941,,,,,,,,,,,,0.577,0,,,,,,,,,,,,,,,,,,,,,,,,-0.104444444,-0.406666667,0,0,0,,,,,,,GARDEN,LB,m,y,./images/GARDENLB.png,,,,,,,,,,,,,,,,,,,,z,0,0.577,,,,,,,,0,85,85,10,1
,,,,,,,,,,,,,,,,,61bb3a6540db417c1a13901a,42,2022-02-12_13h22.55.149,lexical_decision_task_DD_L5,2021.2.3,MacIntel,58.82352941,,,,,,,,,,,,0.864,0,,,,,,,,,,,,,,,,,,,,,,,,-0.104444444,-0.406666667,0,0,0,,,,,,,JUNGLE,C,z,y,./images/JUNGLE.png,,,,,,,,,,,,,,,,,,,,m,0,0.864,,,,,,,,0,86,86,167,1
,,,,,,,,,,,,,,,,,61bb3a6540db417c1a13901a,42,2022-02-12_13h22.55.149,lexical_decision_task_DD_L5,2021.2.3,MacIntel,58.82352941,,,,,,,,,,,,1.113,1,,,,,,,,,,,,,,,,,,,,,,,,-0.104444444,-0.406666667,0,0,0,,,,,,,CHAIN,HB,m,y,./images/CHAINHB.png,,,,,,,,,,,,,,,,,,,,m,1,1.113,,,,,,,,0,87,87,42,1
,,,,,,,,,,,,,,,,,61bb3a6540db417c1a13901a,42,2022-02-12_13h22.55.149,lexical_decision_task_DD_L5,2021.2.3,MacIntel,58.82352941,,,,,,,,,,,,1.01,0,,,,,,,,,,,,,,,,,,,,,,,,-0.104444444,-0.406666667,0,0,0,,,,,,,LAGOON,C,m,y,./images/LAGOON.png,,,,,,,,,,,,,,,,,,,,z,0,1.01,,,,,,,,0,88,88,47,1
,,,,,,,,,,,,,,,,,61bb3a6540db417c1a13901a,42,2022-02-12_13h22.55.149,lexical_decision_task_DD_L5,2021.2.3,MacIntel,58.82352941,,,,,,,,,,,,0.955,0,,,,,,,,,,,,,,,,,,,,,,,,-0.104444444,-0.406666667,0,0,0,,,,,,,CARPET,C,z,y,./images/CARPET.png,,,,,,,,,,,,,,,,,,,,m,0,0.955,,,,,,,,0,89,89,137,1
,,,,,,,,,,,,,,,,,61bb3a6540db417c1a13901a,42,2022-02-12_13h22.55.149,lexical_decision_task_DD_L5,2021.2.3,MacIntel,58.82352941,,,,,,,,,,,,1.182,1,,,,,,,,,,,,,,,,,,,,,,,,-0.104444444,-0.406666667,0,0,0,,,,,,,JELLY,LB,z,y,./images/JELLYLB.png,,,,,,,,,,,,,,,,,,,,z,1,1.182,,,,,,,,0,90,90,148,1
,,,,,,,,,,,,,,,,,61bb3a6540db417c1a13901a,42,2022-02-12_13h22.55.149,lexical_decision_task_DD_L5,2021.2.3,MacIntel,58.82352941,,,,,,,,,,,,0.681,1,,,,,,,,,,,,,,,,,,,,,,,,-0.104444444,-0.406666667,0,0,0,,,,,,,BANANA,LB,m,y,./images/BANANALB.png,,,,,,,,,,,,,,,,,,,,m,1,0.681,,,,,,,,0,91,91,70,1
,,,,,,,,,,,,,,,,,61bb3a6540db417c1a13901a,42,2022-02-12_13h22.55.149,lexical_decision_task_DD_L5,2021.2.3,MacIntel,58.82352941,,,,,,,,,,,,0.815,1,,,,,,,,,,,,,,,,,,,,,,,,-0.104444444,-0.406666667,0,0,0,,,,,,,BEARD,C,z,y,./images/BEARD.png,,,,,,,,,,,,,,,,,,,,z,1,0.815,,,,,,,,0,92,92,86,1
,,,,,,,,,,,,,,,,,61bb3a6540db417c1a13901a,42,2022-02-12_13h22.55.149,lexical_decision_task_DD_L5,2021.2.3,MacIntel,58.82352941,,,,,,,,,,,,0.535,1,,,,,,,,,,,,,,,,,,,,,,,,-0.104444444,-0.406666667,0,0,0,,,,,,,CRUST,LB,z,y,./images/CRUSTLB.png,,,,,,,,,,,,,,,,,,,,z,1,0.535,,,,,,,,0,93,93,163,1
,,,,,,,,,,,,,,,,,61bb3a6540db417c1a13901a,42,2022-02-12_13h22.55.149,lexical_decision_task_DD_L5,2021.2.3,MacIntel,58.82352941,,,,,,,,,,,,1.443,1,,,,,,,,,,,,,,,,,,,,,,,,-0.104444444,-0.406666667,0,0,0,,,,,,,BANNER,LB,z,y,./images/BANNERLB.png,,,,,,,,,,,,,,,,,,,,z,1,1.443,,,,,,,,0,94,94,136,1
,,,,,,,,,,,,,,,,,61bb3a6540db417c1a13901a,42,2022-02-12_13h22.55.149,lexical_decision_task_DD_L5,2021.2.3,MacIntel,58.82352941,,,,,,,,,,,,1.011,0,,,,,,,,,,,,,,,,,,,,,,,,-0.104444444,-0.406666667,0,0,0,,,,,,,BLOKE,HB,m,y,./images/BLOKEHB.png,,,,,,,,,,,,,,,,,,,,z,0,1.011,,,,,,,,0,95,95,12,1
,,,,,,,,,,,,,,,,,61bb3a6540db417c1a13901a,42,2022-02-12_13h22.55.149,lexical_decision_task_DD_L5,2021.2.3,MacIntel,58.82352941,,,,,,,,,,,,0.699,0,,,,,,,,,,,,,,,,,,,,,,,,-0.104444444,-0.406666667,0,0,0,,,,,,,GRANNY,C,m,y,./images/GRANNY.png,,,,,,,,,,,,,,,,,,,,z,0,0.699,,,,,,,,0,96,96,20,1
,,,,,,,,,,,,,,,,,61bb3a6540db417c1a13901a,42,2022-02-12_13h22.55.149,lexical_decision_task_DD_L5,2021.2.3,MacIntel,58.82352941,,,,,,,,,,,,0.693,0,,,,,,,,,,,,,,,,,,,,,,,,-0.104444444,-0.406666667,0,0,0,,,,,,,BUNNY,LB,m,y,./images/BUNNYLB.png,,,,,,,,,,,,,,,,,,,,z,0,0.693,,,,,,,,0,97,97,13,1
,,,,,,,,,,,,,,,,,61bb3a6540db417c1a13901a,42,2022-02-12_13h22.55.149,lexical_decision_task_DD_L5,2021.2.3,MacIntel,58.82352941,,,,,,,,,,,,1.066,1,,,,,,,,,,,,,,,,,,,,,,,,-0.104444444,-0.406666667,0,0,0,,,,,,,SQUARE,HB,z,y,./images/SQUAREHB.png,,,,,,,,,,,,,,,,,,,,z,1,1.066,,,,,,,,0,98,98,90,1
,,,,,,,,,,,,,,,,,61bb3a6540db417c1a13901a,42,2022-02-12_13h22.55.149,lexical_decision_task_DD_L5,2021.2.3,MacIntel,58.82352941,,,,,,,,,,,,1.117,1,,,,,,,,,,,,,,,,,,,,,,,,-0.104444444,-0.406666667,0,0,0,,,,,,,BROOM,HB,m,y,./images/BROOMHB.png,,,,,,,,,,,,,,,,,,,,m,1,1.117,,,,,,,,0,99,99,78,1
,,,,,,,,,,,,,,,,,61bb3a6540db417c1a13901a,42,2022-02-12_13h22.55.149,lexical_decision_task_DD_L5,2021.2.3,MacIntel,58.82352941,,,,,,,,,,,,0.694,0,,,,,,,,,,,,,,,,,,,,,,,,-0.104444444,-0.406666667,0,0,0,,,,,,,WALRUS,C,z,y,./images/WALRUS.png,,,,,,,,,,,,,,,,,,,,m,0,0.694,,,,,,,,0,100,100,107,1
,,,,,,,,,,,,,,,,,61bb3a6540db417c1a13901a,42,2022-02-12_13h22.55.149,lexical_decision_task_DD_L5,2021.2.3,MacIntel,58.82352941,,,,,,,,,,,,0.617,1,,,,,,,,,,,,,,,,,,,,,,,,-0.104444444,-0.406666667,0,0,0,,,,,,,FLASK,HB,m,y,./images/FLASKHB.png,,,,,,,,,,,,,,,,,,,,m,1,0.617,,,,,,,,0,101,101,72,1
,,,,,,,,,,,,,,,,,61bb3a6540db417c1a13901a,42,2022-02-12_13h22.55.149,lexical_decision_task_DD_L5,2021.2.3,MacIntel,58.82352941,,,,,,,,,,,,0.6,0,,,,,,,,,,,,,,,,,,,,,,,,-0.104444444,-0.406666667,0,0,0,,,,,,,FOLDER,HB,z,y,./images/FOLDERHB.png,,,,,,,,,,,,,,,,,,,,m,0,0.6,,,,,,,,0,102,102,126,1
,,,,,,,,,,,,,,,,,61bb3a6540db417c1a13901a,42,2022-02-12_13h22.55.149,lexical_decision_task_DD_L5,2021.2.3,MacIntel,58.82352941,,,,,,,,,,,,0.717,1,,,,,,,,,,,,,,,,,,,,,,,,-0.104444444,-0.406666667,0,0,0,,,,,,,WRIST,LB,z,y,./images/WRISTLB.png,,,,,,,,,,,,,,,,,,,,z,1,0.717,,,,,,,,0,103,103,109,1
,,,,,,,,,,,,,,,,,61bb3a6540db417c1a13901a,42,2022-02-12_13h22.55.149,lexical_decision_task_DD_L5,2021.2.3,MacIntel,58.82352941,,,,,,,,,,,,0.651,0,,,,,,,,,,,,,,,,,,,,,,,,-0.104444444,-0.406666667,0,0,0,,,,,,,TOWEL,LB,m,y,./images/TOWELLB.png,,,,,,,,,,,,,,,,,,,,z,0,0.651,,,,,,,,0,104,104,1,1
,,,,,,,,,,,,,,,,,61bb3a6540db417c1a13901a,42,2022-02-12_13h22.55.149,lexical_decision_task_DD_L5,2021.2.3,MacIntel,58.82352941,,,,,,,,,,,,1.949,0,,,,,,,,,,,,,,,,,,,,,,,,-0.104444444,-0.406666667,0,0,0,,,,,,,DRILL,HB,m,y,./images/DRILLHB.png,,,,,,,,,,,,,,,,,,,,z,0,1.949,,,,,,,,0,105,105,81,1
,,,,,,,,,,,,,,,,,61bb3a6540db417c1a13901a,42,2022-02-12_13h22.55.149,lexical_decision_task_DD_L5,2021.2.3,MacIntel,58.82352941,,,,,,,,,,,,1.077,1,,,,,,,,,,,,,,,,,,,,,,,,-0.104444444,-0.406666667,0,0,0,,,,,,,GRAIN,HB,z,y,./images/GRAINHB.png,,,,,,,,,,,,,,,,,,,,z,1,1.077,,,,,,,,0,106,106,159,1
,,,,,,,,,,,,,,,,,61bb3a6540db417c1a13901a,42,2022-02-12_13h22.55.149,lexical_decision_task_DD_L5,2021.2.3,MacIntel,58.82352941,,,,,,,,,,,,0.66,1,,,,,,,,,,,,,,,,,,,,,,,,-0.104444444,-0.406666667,0,0,0,,,,,,,MONKEY,HB,m,y,./images/MONKEYHB.png,,,,,,,,,,,,,,,,,,,,m,1,0.66,,,,,,,,0,107,107,45,1
,,,,,,,,,,,,,,,,,61bb3a6540db417c1a13901a,42,2022-02-12_13h22.55.149,lexical_decision_task_DD_L5,2021.2.3,MacIntel,58.82352941,,,,,,,,,,,,0.7,1,,,,,,,,,,,,,,,,,,,,,,,,-0.104444444,-0.406666667,0,0,0,,,,,,,GRAPE,LB,m,y,./images/GRAPELB.png,,,,,,,,,,,,,,,,,,,,m,1,0.7,,,,,,,,0,108,108,16,1
,,,,,,,,,,,,,,,,,61bb3a6540db417c1a13901a,42,2022-02-12_13h22.55.149,lexical_decision_task_DD_L5,2021.2.3,MacIntel,58.82352941,,,,,,,,,,,,0.944,0,,,,,,,,,,,,,,,,,,,,,,,,-0.104444444,-0.406666667,0,0,0,,,,,,,STOVE,C,m,y,./images/STOVE.png,,,,,,,,,,,,,,,,,,,,z,0,0.944,,,,,,,,0,109,109,2,1
,,,,,,,,,,,,,,,,,61bb3a6540db417c1a13901a,42,2022-02-12_13h22.55.149,lexical_decision_task_DD_L5,2021.2.3,MacIntel,58.82352941,,,,,,,,,,,,1.149,1,,,,,,,,,,,,,,,,,,,,,,,,-0.104444444,-0.406666667,0,0,0,,,,,,,SAUNA,HB,m,y,./images/SAUNAHB.png,,,,,,,,,,,,,,,,,,,,m,1,1.149,,,,,,,,0,110,110,33,1
,,,,,,,,,,,,,,,,,61bb3a6540db417c1a13901a,42,2022-02-12_13h22.55.149,lexical_decision_task_DD_L5,2021.2.3,MacIntel,58.82352941,,,,,,,,,,,,0.817,0,,,,,,,,,,,,,,,,,,,,,,,,-0.104444444,-0.406666667,0,0,0,,,,,,,PLANET,C,m,y,./images/PLANET.png,,,,,,,,,,,,,,,,,,,,z,0,0.817,,,,,,,,0,111,111,80,1
,,,,,,,,,,,,,,,,,61bb3a6540db417c1a13901a,42,2022-02-12_13h22.55.149,lexical_decision_task_DD_L5,2021.2.3,MacIntel,58.82352941,,,,,,,,,,,,1.832,1,,,,,,,,,,,,,,,,,,,,,,,,-0.104444444,-0.406666667,0,0,0,,,,,,,MUSCLE,LB,z,y,./images/MUSCLELB.png,,,,,,,,,,,,,,,,,,,,z,1,1.832,,,,,,,,0,112,112,88,1
,,,,,,,,,,,,,,,,,61bb3a6540db417c1a13901a,42,2022-02-12_13h22.55.149,lexical_decision_task_DD_L5,2021.2.3,MacIntel,58.82352941,,,,,,,,,,,,0.993,0,,,,,,,,,,,,,,,,,,,,,,,,-0.104444444,-0.406666667,0,0,0,,,,,,,TIGER,LB,m,y,./images/TIGERLB.png,,,,,,,,,,,,,,,,,,,,z,0,0.993,,,,,,,,0,113,113,37,1
,,,,,,,,,,,,,,,,,61bb3a6540db417c1a13901a,42,2022-02-12_13h22.55.149,lexical_decision_task_DD_L5,2021.2.3,MacIntel,58.82352941,,,,,,,,,,,,0.652,1,,,,,,,,,,,,,,,,,,,,,,,,-0.104444444,-0.406666667,0,0,0,,,,,,,SLOPE,HB,m,y,./images/SLOPEHB.png,,,,,,,,,,,,,,,,,,,,m,1,0.652,,,,,,,,0,114,114,30,1
,,,,,,,,,,,,,,,,,61bb3a6540db417c1a13901a,42,2022-02-12_13h22.55.149,lexical_decision_task_DD_L5,2021.2.3,MacIntel,58.82352941,,,,,,,,,,,,0.832,1,,,,,,,,,,,,,,,,,,,,,,,,-0.104444444,-0.406666667,0,0,0,,,,,,,HOCKEY,C,m,y,./images/HOCKEY.png,,,,,,,,,,,,,,,,,,,,m,1,0.832,,,,,,,,0,115,115,32,1
,,,,,,,,,,,,,,,,,61bb3a6540db417c1a13901a,42,2022-02-12_13h22.55.149,lexical_decision_task_DD_L5,2021.2.3,MacIntel,58.82352941,,,,,,,,,,,,1.967,0,,,,,,,,,,,,,,,,,,,,,,,,-0.104444444,-0.406666667,0,0,0,,,,,,,BOILER,HB,m,y,./images/BOILERHB.png,,,,,,,,,,,,,,,,,,,,z,0,1.967,,,,,,,,0,116,116,36,1
,,,,,,,,,,,,,,,,,61bb3a6540db417c1a13901a,42,2022-02-12_13h22.55.149,lexical_decision_task_DD_L5,2021.2.3,MacIntel,58.82352941,,,,,,,,,,,,1.463,1,,,,,,,,,,,,,,,,,,,,,,,,-0.104444444,-0.406666667,0,0,0,,,,,,,POODLE,HB,z,y,./images/POODLEHB.png,,,,,,,,,,,,,,,,,,,,z,1,1.463,,,,,,,,0,117,117,165,1
,,,,,,,,,,,,,,,,,61bb3a6540db417c1a13901a,42,2022-02-12_13h22.55.149,lexical_decision_task_DD_L5,2021.2.3,MacIntel,58.82352941,,,,,,,,,,,,1.566,1,,,,,,,,,,,,,,,,,,,,,,,,-0.104444444,-0.406666667,0,0,0,,,,,,,LADDER,C,z,y,./images/LADDER.png,,,,,,,,,,,,,,,,,,,,z,1,1.566,,,,,,,,0,118,118,122,1
,,,,,,,,,,,,,,,,,61bb3a6540db417c1a13901a,42,2022-02-12_13h22.55.149,lexical_decision_task_DD_L5,2021.2.3,MacIntel,58.82352941,,,,,,,,,,,,1.217,0,,,,,,,,,,,,,,,,,,,,,,,,-0.104444444,-0.406666667,0,0,0,,,,,,,STREAM,C,m,y,./images/STREAM.png,,,,,,,,,,,,,,,,,,,,z,0,1.217,,,,,,,,0,119,119,41,1
,,,,,,,,,,,,,,,,,61bb3a6540db417c1a13901a,42,2022-02-12_13h22.55.149,lexical_decision_task_DD_L5,2021.2.3,MacIntel,58.82352941,,,,,,,,,,,,0.682,1,,,,,,,,,,,,,,,,,,,,,,,,-0.104444444,-0.406666667,0,0,0,,,,,,,CEMENT,C,z,y,./images/CEMENT.png,,,,,,,,,,,,,,,,,,,,z,1,0.682,,,,,,,,0,120,120,158,1
,,,,,,,,,,,,,,,,,61bb3a6540db417c1a13901a,42,2022-02-12_13h22.55.149,lexical_decision_task_DD_L5,2021.2.3,MacIntel,58.82352941,,,,,,,,,,,,0.827,0,,,,,,,,,,,,,,,,,,,,,,,,-0.104444444,-0.406666667,0,0,0,,,,,,,ARTIST,LB,m,y,./images/ARTISTLB.png,,,,,,,,,,,,,,,,,,,,z,0,0.827,,,,,,,,0,121,121,61,1
,,,,,,,,,,,,,,,,,61bb3a6540db417c1a13901a,42,2022-02-12_13h22.55.149,lexical_decision_task_DD_L5,2021.2.3,MacIntel,58.82352941,,,,,,,,,,,,0.611,1,,,,,,,,,,,,,,,,,,,,,,,,-0.104444444,-0.406666667,0,0,0,,,,,,,LIZARD,C,z,y,./images/LIZARD.png,,,,,,,,,,,,,,,,,,,,z,1,0.611,,,,,,,,0,122,122,128,1
,,,,,,,,,,,,,,,,,61bb3a6540db417c1a13901a,42,2022-02-12_13h22.55.149,lexical_decision_task_DD_L5,2021.2.3,MacIntel,58.82352941,,,,,,,,,,,,0.915,1,,,,,,,,,,,,,,,,,,,,,,,,-0.104444444,-0.406666667,0,0,0,,,,,,,PICKLE,C,z,y,./images/PICKLE.png,,,,,,,,,,,,,,,,,,,,z,1,0.915,,,,,,,,0,123,123,98,1
,,,,,,,,,,,,,,,,,61bb3a6540db417c1a13901a,42,2022-02-12_13h22.55.149,lexical_decision_task_DD_L5,2021.2.3,MacIntel,58.82352941,,,,,,,,,,,,1.225,1,,,,,,,,,,,,,,,,,,,,,,,,-0.104444444,-0.406666667,0,0,0,,,,,,,DANCER,HB,m,y,./images/DANCERHB.png,,,,,,,,,,,,,,,,,,,,m,1,1.225,,,,,,,,0,124,124,21,1
,,,,,,,,,,,,,,,,,61bb3a6540db417c1a13901a,42,2022-02-12_13h22.55.149,lexical_decision_task_DD_L5,2021.2.3,MacIntel,58.82352941,,,,,,,,,,,,0.96,1,,,,,,,,,,,,,,,,,,,,,,,,-0.104444444,-0.406666667,0,0,0,space,,,,,,BERRY,C,z,y,./images/BERRY.png,3.04,,,,,,,,,,,,,,,,,,,z,1,0.96,,,,,,,,0,125,125,131,1
,,,,,,,,,,,,,,,,,61bb3a6540db417c1a13901a,42,2022-02-12_13h22.55.149,lexical_decision_task_DD_L5,2021.2.3,MacIntel,58.82352941,,,,,,,,,,,,0.684,1,,,,,,,,,,,,,,,,,,,,,,,,-0.104444444,-0.406666667,0,0,0,,,,,,,SPORT,HB,z,y,./images/SPORTHB.png,,,,,,,,,,,,,,,,,,,,z,1,0.684,,,,,,,,0,126,126,132,1
,,,,,,,,,,,,,,,,,61bb3a6540db417c1a13901a,42,2022-02-12_13h22.55.149,lexical_decision_task_DD_L5,2021.2.3,MacIntel,58.82352941,,,,,,,,,,,,0.815,0,,,,,,,,,,,,,,,,,,,,,,,,-0.104444444,-0.406666667,0,0,0,,,,,,,BABOON,LB,z,y,./images/BABOONLB.png,,,,,,,,,,,,,,,,,,,,m,0,0.815,,,,,,,,0,127,127,142,1
,,,,,,,,,,,,,,,,,61bb3a6540db417c1a13901a,42,2022-02-12_13h22.55.149,lexical_decision_task_DD_L5,2021.2.3,MacIntel,58.82352941,,,,,,,,,,,,1.115,0,,,,,,,,,,,,,,,,,,,,,,,,-0.104444444,-0.406666667,0,0,0,,,,,,,VALLEY,C,m,y,./images/VALLEY.png,,,,,,,,,,,,,,,,,,,,z,0,1.115,,,,,,,,0,128,128,68,1
,,,,,,,,,,,,,,,,,61bb3a6540db417c1a13901a,42,2022-02-12_13h22.55.149,lexical_decision_task_DD_L5,2021.2.3,MacIntel,58.82352941,,,,,,,,,,,,1.176,1,,,,,,,,,,,,,,,,,,,,,,,,-0.104444444,-0.406666667,0,0,0,,,,,,,ARROW,HB,m,y,./images/ARROWHB.png,,,,,,,,,,,,,,,,,,,,m,1,1.176,,,,,,,,0,129,129,69,1
