key_resp.keys,instr_done_touch.x,instr_done_touch.y,instr_done_touch.leftButton,instr_done_touch.midButton,instr_done_touch.rightButton,instr_done_touch.clicked_name,instruction_pages.thisRepN,instruction_pages.thisTrialN,instruction_pages.thisN,instruction_pages.thisIndex,instruction_pages.ran,pageN,phase,instruct_text,has_image,instruct_image,participant,age,date,expName,psychopyVersion,OS,frameRate,response.keys,response.corr,response.rt,touch_resp.x,touch_resp.y,touch_resp.leftButton,touch_resp.midButton,touch_resp.rightButton,touch_resp.time,touch_resp.clicked_name,rt,corr,practrials.thisRepN,practrials.thisTrialN,practrials.thisN,practrials.thisIndex,practrials.ran,TrialID,Target,corrAns,end_of_practice_trials_pages.thisRepN,end_of_practice_trials_pages.thisTrialN,end_of_practice_trials_pages.thisN,end_of_practice_trials_pages.thisIndex,end_of_practice_trials_pages.ran,key_resp_2.keys,key_resp_2.corr,key_resp_2.rt,targ_click.x,targ_click.y,targ_click.leftButton,targ_click.midButton,targ_click.rightButton,targ_click.time,targ_click.clicked_name,break_done_touch.x,break_done_touch.y,break_done_touch.leftButton,break_done_touch.midButton,break_done_touch.rightButton,break_done_keyboard.keys,maintrials.thisRepN,maintrials.thisTrialN,maintrials.thisN,maintrials.thisIndex,maintrials.ran,string,blur,study,lex,stim_path,break_done_keyboard.rt,mouse_2.x,mouse_2.y,mouse_2.leftButton,mouse_2.midButton,mouse_2.rightButton,mouse_2.clicked_name,slider.response,slider.rt,trials.thisRepN,trials.thisTrialN,trials.thisN,trials.thisIndex,trials.ran,test_instructions.thisRepN,test_instructions.thisTrialN,test_instructions.thisN,test_instructions.thisIndex,test_instructions.ran,key_resp.rt,key_resp_3.keys,key_resp_3.corr,key_resp_3.rt,test_click.x,test_click.y,test_click.leftButton,test_click.midButton,test_click.rightButton,test_click.time,test_click.clicked_name,test_phase.thisRepN,test_phase.thisTrialN,test_phase.thisN,test_phase.thisIndex,test_phase.ran
,0.060185185,-0.391666667,1,0,0,instr_done_button,0,0,0,0,1,1,instructions,"INSTRUCTIONS
At the start of each trial, look at the plus sign  (+) in the center of the screen.  This tells you that a trial is about to begin and where to look. Second, the plus sign will disappear and a string of letters will appear. Your task is to determine if the string of letters is a word or not. If the item is a word press the M key (on keyboard)  or touch the word button (phone/tablet).  If the item is not a word,  press the  Z key (on keyboard)  or touch the nonword button (on phone/tablet). 
Press the space bar or touch  continue.",0,,,31,2022-02-12_16h08.03.208,lexical_decision_task_DD_L4,2021.2.3,Win32,59.91252771,,,,,,,,,,,,,,,,,,,,,,,,,,,,,,,,,,,,,,,,,,,,,,,,,,,,,,,,,,,,,,,,,,,,,,,,,,,,,,,,,,,,,,
,0.07962963,-0.403703704,1,0,0,instr_done_button,0,1,1,1,1,2,instructions,"If your device has a keyboard, press the 'Z' key for nonwords and the 'M' key for words.





Press the space bar or touch the button below to continue.",0,keyboard-example.gif,,31,2022-02-12_16h08.03.208,lexical_decision_task_DD_L4,2021.2.3,Win32,59.91252771,,,,,,,,,,,,,,,,,,,,,,,,,,,,,,,,,,,,,,,,,,,,,,,,,,,,,,,,,,,,,,,,,,,,,,,,,,,,,,,,,,,,,,
,0.034259259,-0.392592593,1,0,0,instr_done_button,0,2,2,2,1,3,instructions,"If you are using a touchscreen only device, use the buttons on the screen. Do not use the mouse.





Press the space bar or touch the button below to continue.",0,touchscreen-example.gif,,31,2022-02-12_16h08.03.208,lexical_decision_task_DD_L4,2021.2.3,Win32,59.91252771,,,,,,,,,,,,,,,,,,,,,,,,,,,,,,,,,,,,,,,,,,,,,,,,,,,,,,,,,,,,,,,,,,,,,,,,,,,,,,,,,,,,,,
,-0.012962963,-0.389814815,1,0,0,instr_done_button,0,3,3,3,1,4,instructions,"It is very important that you respond as quickly and accurately as possible, as each letter string will only be on the screen for two seconds. If you do not respond within this time, the message 'Too slow!' will be displayed and the experiment will progress to the next letter string. The first 20 trials will be practice trials and you will receive feedback on your answers. 

Press the space bar or touch the button below to start the practice trials.",0,,,31,2022-02-12_16h08.03.208,lexical_decision_task_DD_L4,2021.2.3,Win32,59.91252771,,,,,,,,,,,,,,,,,,,,,,,,,,,,,,,,,,,,,,,,,,,,,,,,,,,,,,,,,,,,,,,,,,,,,,,,,,,,,,,,,,,,,,
,,,,,,,,,,,,,,,,,,31,2022-02-12_16h08.03.208,lexical_decision_task_DD_L4,2021.2.3,Win32,59.91252771,z,1,1.5796,,,,,,,,1.5796,1,0,0,0,10,1,1001,INLADE,z,,,,,,,,,,,,,,,,,,,,,,,,,,,,,,,,,,,,,,,,,,,,,,,,,,,,,,,,,,,,,,,,,,
,,,,,,,,,,,,,,,,,,31,2022-02-12_16h08.03.208,lexical_decision_task_DD_L4,2021.2.3,Win32,59.91252771,m,1,0.8001,,,,,,,,0.8001,1,0,1,1,2,1,1001,ALMOND,m,,,,,,,,,,,,,,,,,,,,,,,,,,,,,,,,,,,,,,,,,,,,,,,,,,,,,,,,,,,,,,,,,,
,,,,,,,,,,,,,,,,,,31,2022-02-12_16h08.03.208,lexical_decision_task_DD_L4,2021.2.3,Win32,59.91252771,z,1,0.9621,,,,,,,,0.9621,1,0,2,2,11,1,1001,RASHET,z,,,,,,,,,,,,,,,,,,,,,,,,,,,,,,,,,,,,,,,,,,,,,,,,,,,,,,,,,,,,,,,,,,
,,,,,,,,,,,,,,,,,,31,2022-02-12_16h08.03.208,lexical_decision_task_DD_L4,2021.2.3,Win32,59.91252771,m,1,0.6069,,,,,,,,0.6069,1,0,3,3,7,1,1001,VOLUME,m,,,,,,,,,,,,,,,,,,,,,,,,,,,,,,,,,,,,,,,,,,,,,,,,,,,,,,,,,,,,,,,,,,
,,,,,,,,,,,,,,,,,,31,2022-02-12_16h08.03.208,lexical_decision_task_DD_L4,2021.2.3,Win32,59.91252771,m,1,0.6171,,,,,,,,0.6171,1,0,4,4,4,1,1001,SQUEAK,m,,,,,,,,,,,,,,,,,,,,,,,,,,,,,,,,,,,,,,,,,,,,,,,,,,,,,,,,,,,,,,,,,,
,,,,,,,,,,,,,,,,,,31,2022-02-12_16h08.03.208,lexical_decision_task_DD_L4,2021.2.3,Win32,59.91252771,m,1,0.5563,,,,,,,,0.5563,1,0,5,5,0,1,1001,UTOPIA,m,,,,,,,,,,,,,,,,,,,,,,,,,,,,,,,,,,,,,,,,,,,,,,,,,,,,,,,,,,,,,,,,,,
,,,,,,,,,,,,,,,,,,31,2022-02-12_16h08.03.208,lexical_decision_task_DD_L4,2021.2.3,Win32,59.91252771,z,1,0.9919,,,,,,,,0.9919,1,0,6,6,12,1,1001,SPRINY,z,,,,,,,,,,,,,,,,,,,,,,,,,,,,,,,,,,,,,,,,,,,,,,,,,,,,,,,,,,,,,,,,,,
,,,,,,,,,,,,,,,,,,31,2022-02-12_16h08.03.208,lexical_decision_task_DD_L4,2021.2.3,Win32,59.91252771,z,1,0.7395,,,,,,,,0.7395,1,0,7,7,9,1,1001,FARINY,z,,,,,,,,,,,,,,,,,,,,,,,,,,,,,,,,,,,,,,,,,,,,,,,,,,,,,,,,,,,,,,,,,,
,,,,,,,,,,,,,,,,,,31,2022-02-12_16h08.03.208,lexical_decision_task_DD_L4,2021.2.3,Win32,59.91252771,z,1,1.1768,,,,,,,,1.1768,1,0,8,8,15,1,1001,WHAISE,z,,,,,,,,,,,,,,,,,,,,,,,,,,,,,,,,,,,,,,,,,,,,,,,,,,,,,,,,,,,,,,,,,,
,,,,,,,,,,,,,,,,,,31,2022-02-12_16h08.03.208,lexical_decision_task_DD_L4,2021.2.3,Win32,59.91252771,z,1,0.9249,,,,,,,,0.9249,1,0,9,9,8,1,1001,ASLERT,z,,,,,,,,,,,,,,,,,,,,,,,,,,,,,,,,,,,,,,,,,,,,,,,,,,,,,,,,,,,,,,,,,,
,,,,,,,,,,,,,,,,,,31,2022-02-12_16h08.03.208,lexical_decision_task_DD_L4,2021.2.3,Win32,59.91252771,m,1,0.5475,,,,,,,,0.5475,1,0,10,10,6,1,1001,ZOMBIE,m,,,,,,,,,,,,,,,,,,,,,,,,,,,,,,,,,,,,,,,,,,,,,,,,,,,,,,,,,,,,,,,,,,
,,,,,,,,,,,,,,,,,,31,2022-02-12_16h08.03.208,lexical_decision_task_DD_L4,2021.2.3,Win32,59.91252771,m,1,0.6078,,,,,,,,0.6078,1,0,11,11,3,1,1001,MATRIX,m,,,,,,,,,,,,,,,,,,,,,,,,,,,,,,,,,,,,,,,,,,,,,,,,,,,,,,,,,,,,,,,,,,
,,,,,,,,,,,,,,,,,,31,2022-02-12_16h08.03.208,lexical_decision_task_DD_L4,2021.2.3,Win32,59.91252771,z,0,0.5468,,,,,,,,0.5468,0,0,12,12,5,1,1001,OBTAIN,m,,,,,,,,,,,,,,,,,,,,,,,,,,,,,,,,,,,,,,,,,,,,,,,,,,,,,,,,,,,,,,,,,,
,,,,,,,,,,,,,,,,,,31,2022-02-12_16h08.03.208,lexical_decision_task_DD_L4,2021.2.3,Win32,59.91252771,z,1,0.7841,,,,,,,,0.7841,1,0,13,13,14,1,1001,THRALE,z,,,,,,,,,,,,,,,,,,,,,,,,,,,,,,,,,,,,,,,,,,,,,,,,,,,,,,,,,,,,,,,,,,
,,,,,,,,,,,,,,,,,,31,2022-02-12_16h08.03.208,lexical_decision_task_DD_L4,2021.2.3,Win32,59.91252771,m,1,0.6114,,,,,,,,0.6114,1,0,14,14,1,1,1001,ADJUST,m,,,,,,,,,,,,,,,,,,,,,,,,,,,,,,,,,,,,,,,,,,,,,,,,,,,,,,,,,,,,,,,,,,
,,,,,,,,,,,,,,,,,,31,2022-02-12_16h08.03.208,lexical_decision_task_DD_L4,2021.2.3,Win32,59.91252771,z,1,1.0311,,,,,,,,1.0311,1,0,15,15,13,1,1001,ROUPET,z,,,,,,,,,,,,,,,,,,,,,,,,,,,,,,,,,,,,,,,,,,,,,,,,,,,,,,,,,,,,,,,,,,
,-0.056481481,-0.401851852,1,0,0,instr_done_button,,,,,,1,end_of_practice,"You have completed the practice trials. During the experimental trials, you will not receive feedback. 
Before you begin, please ensure that you are in a comfortable and quiet location and will not be disturbed for about 15 minutes, as we cannot use your data if you do not complete all the trials. 
 When you are ready to start the experimental trials, please press space or touch the button below.",,,,31,2022-02-12_16h08.03.208,lexical_decision_task_DD_L4,2021.2.3,Win32,59.91252771,,,,,,,,,,,,,,,,,,,,,0,0,0,0,1,,,,,,,,,,,,,,,,,,,,,,,,,,,,,,,,,,,,,,,,,,,,,,,,,,,,,,,,,,,,,
,,,,,,,,,,,,,,,,,,31,2022-02-12_16h08.03.208,lexical_decision_task_DD_L4,2021.2.3,Win32,59.91252771,,,,,,,,,,,1.2295,1,,,,,,,,,,,,,,z,1,1.2295,,,,,,,,0.562962963,-0.417592593,0,0,0,,0,0,0,152,1,FRAIN,LB,old,z,./images/FRAINLB.png,,,,,,,,,,,,,,,,,,,,,,,,,,,,,,,,,,,
,,,,,,,,,,,,,,,,,,31,2022-02-12_16h08.03.208,lexical_decision_task_DD_L4,2021.2.3,Win32,59.91252771,,,,,,,,,,,0.6677,1,,,,,,,,,,,,,,m,1,0.6677,,,,,,,,0.562962963,-0.417592593,0,0,0,,0,1,1,9,1,DIVER,C,old,m,./images/DIVER.png,,,,,,,,,,,,,,,,,,,,,,,,,,,,,,,,,,,
,,,,,,,,,,,,,,,,,,31,2022-02-12_16h08.03.208,lexical_decision_task_DD_L4,2021.2.3,Win32,59.91252771,,,,,,,,,,,0.799,1,,,,,,,,,,,,,,z,1,0.799,,,,,,,,0.562962963,-0.417592593,0,0,0,,0,2,2,86,1,AIFED,LB,old,z,./images/AIFEDLB.png,,,,,,,,,,,,,,,,,,,,,,,,,,,,,,,,,,,
,,,,,,,,,,,,,,,,,,31,2022-02-12_16h08.03.208,lexical_decision_task_DD_L4,2021.2.3,Win32,59.91252771,,,,,,,,,,,1.3263,1,,,,,,,,,,,,,,m,1,1.3263,,,,,,,,0.562962963,-0.417592593,0,0,0,,0,3,3,82,1,PEBBLE,HB,old,m,./images/PEBBLEHB.png,,,,,,,,,,,,,,,,,,,,,,,,,,,,,,,,,,,
,,,,,,,,,,,,,,,,,,31,2022-02-12_16h08.03.208,lexical_decision_task_DD_L4,2021.2.3,Win32,59.91252771,,,,,,,,,,,1.3202,1,,,,,,,,,,,,,,m,1,1.3202,,,,,,,,0.562962963,-0.417592593,0,0,0,,0,4,4,49,1,BISHOP,HB,old,m,./images/BISHOPHB.png,,,,,,,,,,,,,,,,,,,,,,,,,,,,,,,,,,,
,,,,,,,,,,,,,,,,,,31,2022-02-12_16h08.03.208,lexical_decision_task_DD_L4,2021.2.3,Win32,59.91252771,,,,,,,,,,,0.7703,1,,,,,,,,,,,,,,z,1,0.7703,,,,,,,,0.562962963,-0.417592593,0,0,0,,0,5,5,135,1,JOODY,C,old,z,./images/JOODY.png,,,,,,,,,,,,,,,,,,,,,,,,,,,,,,,,,,,
,,,,,,,,,,,,,,,,,,31,2022-02-12_16h08.03.208,lexical_decision_task_DD_L4,2021.2.3,Win32,59.91252771,,,,,,,,,,,1.1631,1,,,,,,,,,,,,,,z,1,1.1631,,,,,,,,0.562962963,-0.417592593,0,0,0,,0,6,6,134,1,TROSS,LB,old,z,./images/TROSSLB.png,,,,,,,,,,,,,,,,,,,,,,,,,,,,,,,,,,,
,,,,,,,,,,,,,,,,,,31,2022-02-12_16h08.03.208,lexical_decision_task_DD_L4,2021.2.3,Win32,59.91252771,,,,,,,,,,,0.8189,1,,,,,,,,,,,,,,m,1,0.8189,,,,,,,,0.562962963,-0.417592593,0,0,0,,0,7,7,31,1,STEAK,HB,old,m,./images/STEAKHB.png,,,,,,,,,,,,,,,,,,,,,,,,,,,,,,,,,,,
,,,,,,,,,,,,,,,,,,31,2022-02-12_16h08.03.208,lexical_decision_task_DD_L4,2021.2.3,Win32,59.91252771,,,,,,,,,,,0.777,1,,,,,,,,,,,,,,m,1,0.777,,,,,,,,0.562962963,-0.417592593,0,0,0,,0,8,8,53,1,POSTER,LB,old,m,./images/POSTERLB.png,,,,,,,,,,,,,,,,,,,,,,,,,,,,,,,,,,,
,,,,,,,,,,,,,,,,,,31,2022-02-12_16h08.03.208,lexical_decision_task_DD_L4,2021.2.3,Win32,59.91252771,,,,,,,,,,,1.617,1,,,,,,,,,,,,,,z,1,1.617,,,,,,,,0.562962963,-0.417592593,0,0,0,,0,9,9,127,1,NINDY,HB,old,z,./images/NINDYHB.png,,,,,,,,,,,,,,,,,,,,,,,,,,,,,,,,,,,
,,,,,,,,,,,,,,,,,,31,2022-02-12_16h08.03.208,lexical_decision_task_DD_L4,2021.2.3,Win32,59.91252771,,,,,,,,,,,2.3519,1,,,,,,,,,,,,,,z,1,2.3519,,,,,,,,0.562962963,-0.417592593,0,0,0,,0,10,10,94,1,BLANS,HB,old,z,./images/BLANSHB.png,,,,,,,,,,,,,,,,,,,,,,,,,,,,,,,,,,,
,,,,,,,,,,,,,,,,,,31,2022-02-12_16h08.03.208,lexical_decision_task_DD_L4,2021.2.3,Win32,59.91252771,,,,,,,,,,,1.3597,1,,,,,,,,,,,,,,m,1,1.3597,,,,,,,,0.562962963,-0.417592593,0,0,0,,0,11,11,70,1,BANANA,HB,old,m,./images/BANANAHB.png,,,,,,,,,,,,,,,,,,,,,,,,,,,,,,,,,,,
,,,,,,,,,,,,,,,,,,31,2022-02-12_16h08.03.208,lexical_decision_task_DD_L4,2021.2.3,Win32,59.91252771,,,,,,,,,,,0.6641,1,,,,,,,,,,,,,,z,1,0.6641,,,,,,,,0.562962963,-0.417592593,0,0,0,,0,12,12,120,1,RINED,C,old,z,./images/RINED.png,,,,,,,,,,,,,,,,,,,,,,,,,,,,,,,,,,,
,,,,,,,,,,,,,,,,,,31,2022-02-12_16h08.03.208,lexical_decision_task_DD_L4,2021.2.3,Win32,59.91252771,,,,,,,,,,,0.7011,1,,,,,,,,,,,,,,m,1,0.7011,,,,,,,,0.562962963,-0.417592593,0,0,0,,0,13,13,44,1,BASKET,LB,old,m,./images/BASKETLB.png,,,,,,,,,,,,,,,,,,,,,,,,,,,,,,,,,,,
,,,,,,,,,,,,,,,,,,31,2022-02-12_16h08.03.208,lexical_decision_task_DD_L4,2021.2.3,Win32,59.91252771,,,,,,,,,,,0.6878,1,,,,,,,,,,,,,,m,1,0.6878,,,,,,,,0.562962963,-0.417592593,0,0,0,,0,14,14,50,1,PILOT,LB,old,m,./images/PILOTLB.png,,,,,,,,,,,,,,,,,,,,,,,,,,,,,,,,,,,
,,,,,,,,,,,,,,,,,,31,2022-02-12_16h08.03.208,lexical_decision_task_DD_L4,2021.2.3,Win32,59.91252771,,,,,,,,,,,0.6358,1,,,,,,,,,,,,,,m,1,0.6358,,,,,,,,0.562962963,-0.417592593,0,0,0,,0,15,15,75,1,HAMMER,C,old,m,./images/HAMMER.png,,,,,,,,,,,,,,,,,,,,,,,,,,,,,,,,,,,
,,,,,,,,,,,,,,,,,,31,2022-02-12_16h08.03.208,lexical_decision_task_DD_L4,2021.2.3,Win32,59.91252771,,,,,,,,,,,0.7044,1,,,,,,,,,,,,,,z,1,0.7044,,,,,,,,0.562962963,-0.417592593,0,0,0,,0,16,16,105,1,MOKER,C,old,z,./images/MOKER.png,,,,,,,,,,,,,,,,,,,,,,,,,,,,,,,,,,,
,,,,,,,,,,,,,,,,,,31,2022-02-12_16h08.03.208,lexical_decision_task_DD_L4,2021.2.3,Win32,59.91252771,,,,,,,,,,,0.6028,0,,,,,,,,,,,,,,m,0,0.6028,,,,,,,,0.562962963,-0.417592593,0,0,0,,0,17,17,117,1,STEEG,C,old,z,./images/STEEG.png,,,,,,,,,,,,,,,,,,,,,,,,,,,,,,,,,,,
,,,,,,,,,,,,,,,,,,31,2022-02-12_16h08.03.208,lexical_decision_task_DD_L4,2021.2.3,Win32,59.91252771,,,,,,,,,,,0.7138,1,,,,,,,,,,,,,,m,1,0.7138,,,,,,,,0.562962963,-0.417592593,0,0,0,,0,18,18,71,1,BUBBLE,LB,old,m,./images/BUBBLELB.png,,,,,,,,,,,,,,,,,,,,,,,,,,,,,,,,,,,
,,,,,,,,,,,,,,,,,,31,2022-02-12_16h08.03.208,lexical_decision_task_DD_L4,2021.2.3,Win32,59.91252771,,,,,,,,,,,1.4445,1,,,,,,,,,,,,,,m,1,1.4445,,,,,,,,0.562962963,-0.417592593,0,0,0,,0,19,19,67,1,POKER,HB,old,m,./images/POKERHB.png,,,,,,,,,,,,,,,,,,,,,,,,,,,,,,,,,,,
,,,,,,,,,,,,,,,,,,31,2022-02-12_16h08.03.208,lexical_decision_task_DD_L4,2021.2.3,Win32,59.91252771,,,,,,,,,,,0.7226,1,,,,,,,,,,,,,,m,1,0.7226,,,,,,,,0.562962963,-0.417592593,0,0,0,,0,20,20,59,1,BRUSH,LB,old,m,./images/BRUSHLB.png,,,,,,,,,,,,,,,,,,,,,,,,,,,,,,,,,,,
,,,,,,,,,,,,,,,,,,31,2022-02-12_16h08.03.208,lexical_decision_task_DD_L4,2021.2.3,Win32,59.91252771,,,,,,,,,,,1.0437,0,,,,,,,,,,,,,,z,0,1.0437,,,,,,,,0.562962963,-0.417592593,0,0,0,,0,21,21,76,1,MIDGET,HB,old,m,./images/MIDGETHB.png,,,,,,,,,,,,,,,,,,,,,,,,,,,,,,,,,,,
,,,,,,,,,,,,,,,,,,31,2022-02-12_16h08.03.208,lexical_decision_task_DD_L4,2021.2.3,Win32,59.91252771,,,,,,,,,,,0.5932,1,,,,,,,,,,,,,,m,1,0.5932,,,,,,,,0.562962963,-0.417592593,0,0,0,,0,22,22,11,1,MEDAL,LB,old,m,./images/MEDALLB.png,,,,,,,,,,,,,,,,,,,,,,,,,,,,,,,,,,,
,,,,,,,,,,,,,,,,,,31,2022-02-12_16h08.03.208,lexical_decision_task_DD_L4,2021.2.3,Win32,59.91252771,,,,,,,,,,,1.3444,1,,,,,,,,,,,,,,z,1,1.3444,,,,,,,,0.562962963,-0.417592593,0,0,0,,0,23,23,163,1,GAMBA,HB,old,z,./images/GAMBAHB.png,,,,,,,,,,,,,,,,,,,,,,,,,,,,,,,,,,,
,,,,,,,,,,,,,,,,,,31,2022-02-12_16h08.03.208,lexical_decision_task_DD_L4,2021.2.3,Win32,59.91252771,,,,,,,,,,,1.4896,1,,,,,,,,,,,,,,m,1,1.4896,,,,,,,,0.562962963,-0.417592593,0,0,0,,0,24,24,40,1,SNAKE,HB,old,m,./images/SNAKEHB.png,,,,,,,,,,,,,,,,,,,,,,,,,,,,,,,,,,,
,,,,,,,,,,,,,,,,,,31,2022-02-12_16h08.03.208,lexical_decision_task_DD_L4,2021.2.3,Win32,59.91252771,,,,,,,,,,,1.3099,1,,,,,,,,,,,,,,z,1,1.3099,,,,,,,,0.562962963,-0.417592593,0,0,0,,0,25,25,109,1,BURGE,HB,old,z,./images/BURGEHB.png,,,,,,,,,,,,,,,,,,,,,,,,,,,,,,,,,,,
,,,,,,,,,,,,,,,,,,31,2022-02-12_16h08.03.208,lexical_decision_task_DD_L4,2021.2.3,Win32,59.91252771,,,,,,,,,,,0.5436,1,,,,,,,,,,,,,,m,1,0.5436,,,,,,,,0.562962963,-0.417592593,0,0,0,,0,26,26,80,1,PLANET,LB,old,m,./images/PLANETLB.png,,,,,,,,,,,,,,,,,,,,,,,,,,,,,,,,,,,
,,,,,,,,,,,,,,,,,,31,2022-02-12_16h08.03.208,lexical_decision_task_DD_L4,2021.2.3,Win32,59.91252771,,,,,,,,,,,0.5852,1,,,,,,,,,,,,,,m,1,0.5852,,,,,,,,0.562962963,-0.417592593,0,0,0,,0,27,27,15,1,COLLAR,C,old,m,./images/COLLAR.png,,,,,,,,,,,,,,,,,,,,,,,,,,,,,,,,,,,
,,,,,,,,,,,,,,,,,,31,2022-02-12_16h08.03.208,lexical_decision_task_DD_L4,2021.2.3,Win32,59.91252771,,,,,,,,,,,1.2084,1,,,,,,,,,,,,,,m,1,1.2084,,,,,,,,0.562962963,-0.417592593,0,0,0,,0,28,28,28,1,CASINO,HB,old,m,./images/CASINOHB.png,,,,,,,,,,,,,,,,,,,,,,,,,,,,,,,,,,,
,,,,,,,,,,,,,,,,,,31,2022-02-12_16h08.03.208,lexical_decision_task_DD_L4,2021.2.3,Win32,59.91252771,,,,,,,,,,,0.7431,1,,,,,,,,,,,,,,m,1,0.7431,,,,,,,,0.562962963,-0.417592593,0,0,0,,0,29,29,43,1,STOOL,HB,old,m,./images/STOOLHB.png,,,,,,,,,,,,,,,,,,,,,,,,,,,,,,,,,,,
,,,,,,,,,,,,,,,,,,31,2022-02-12_16h08.03.208,lexical_decision_task_DD_L4,2021.2.3,Win32,59.91252771,,,,,,,,,,,0.8973,1,,,,,,,,,,,,,,z,1,0.8973,,,,,,,,0.562962963,-0.417592593,0,0,0,,0,30,30,106,1,CLUMS,HB,old,z,./images/CLUMSHB.png,,,,,,,,,,,,,,,,,,,,,,,,,,,,,,,,,,,
,,,,,,,,,,,,,,,,,,31,2022-02-12_16h08.03.208,lexical_decision_task_DD_L4,2021.2.3,Win32,59.91252771,,,,,,,,,,,0.7318,1,,,,,,,,,,,,,,z,1,0.7318,,,,,,,,0.562962963,-0.417592593,0,0,0,,0,31,31,116,1,BALGY,LB,old,z,./images/BALGYLB.png,,,,,,,,,,,,,,,,,,,,,,,,,,,,,,,,,,,
,,,,,,,,,,,,,,,,,,31,2022-02-12_16h08.03.208,lexical_decision_task_DD_L4,2021.2.3,Win32,59.91252771,,,,,,,,,,,0.7259,1,,,,,,,,,,,,,,m,1,0.7259,,,,,,,,0.562962963,-0.417592593,0,0,0,,0,32,32,8,1,CLIFF,LB,old,m,./images/CLIFFLB.png,,,,,,,,,,,,,,,,,,,,,,,,,,,,,,,,,,,
,,,,,,,,,,,,,,,,,,31,2022-02-12_16h08.03.208,lexical_decision_task_DD_L4,2021.2.3,Win32,59.91252771,,,,,,,,,,,0.7359,1,,,,,,,,,,,,,,z,1,0.7359,,,,,,,,0.562962963,-0.417592593,0,0,0,,0,33,33,96,1,KEAMS,C,old,z,./images/KEAMS.png,,,,,,,,,,,,,,,,,,,,,,,,,,,,,,,,,,,
,,,,,,,,,,,,,,,,,,31,2022-02-12_16h08.03.208,lexical_decision_task_DD_L4,2021.2.3,Win32,59.91252771,,,,,,,,,,,0.7052,1,,,,,,,,,,,,,,m,1,0.7052,,,,,,,,0.562962963,-0.417592593,0,0,0,,0,34,34,47,1,LAGOON,LB,old,m,./images/LAGOONLB.png,,,,,,,,,,,,,,,,,,,,,,,,,,,,,,,,,,,
,,,,,,,,,,,,,,,,,,31,2022-02-12_16h08.03.208,lexical_decision_task_DD_L4,2021.2.3,Win32,59.91252771,,,,,,,,,,,0.6759,1,,,,,,,,,,,,,,z,1,0.6759,,,,,,,,0.562962963,-0.417592593,0,0,0,,0,35,35,167,1,ZONET,LB,old,z,./images/ZONETLB.png,,,,,,,,,,,,,,,,,,,,,,,,,,,,,,,,,,,
,,,,,,,,,,,,,,,,,,31,2022-02-12_16h08.03.208,lexical_decision_task_DD_L4,2021.2.3,Win32,59.91252771,,,,,,,,,,,2.2888,1,,,,,,,,,,,,,,z,1,2.2888,,,,,,,,0.562962963,-0.417592593,0,0,0,,0,36,36,112,1,MYING,HB,old,z,./images/MYINGHB.png,,,,,,,,,,,,,,,,,,,,,,,,,,,,,,,,,,,
,,,,,,,,,,,,,,,,,,31,2022-02-12_16h08.03.208,lexical_decision_task_DD_L4,2021.2.3,Win32,59.91252771,,,,,,,,,,,0.7073,1,,,,,,,,,,,,,,z,1,0.7073,,,,,,,,0.562962963,-0.417592593,0,0,0,,0,37,37,122,1,BLOOT,LB,old,z,./images/BLOOTLB.png,,,,,,,,,,,,,,,,,,,,,,,,,,,,,,,,,,,
,,,,,,,,,,,,,,,,,,31,2022-02-12_16h08.03.208,lexical_decision_task_DD_L4,2021.2.3,Win32,59.91252771,,,,,,,,,,,0.6539,0,,,,,,,,,,,,,,m,0,0.6539,,,,,,,,0.562962963,-0.417592593,0,0,0,,0,38,38,149,1,VEASE,LB,old,z,./images/VEASELB.png,,,,,,,,,,,,,,,,,,,,,,,,,,,,,,,,,,,
,,,,,,,,,,,,,,,,,,31,2022-02-12_16h08.03.208,lexical_decision_task_DD_L4,2021.2.3,Win32,59.91252771,,,,,,,,,,,0.8669,1,,,,,,,,,,,,,,z,1,0.8669,,,,,,,,0.562962963,-0.417592593,0,0,0,,0,39,39,126,1,GUELS,C,old,z,./images/GUELS.png,,,,,,,,,,,,,,,,,,,,,,,,,,,,,,,,,,,
,,,,,,,,,,,,,,,,,,31,2022-02-12_16h08.03.208,lexical_decision_task_DD_L4,2021.2.3,Win32,59.91252771,,,,,,,,,,,0.9347,1,,,,,,,,,,,,,,z,1,0.9347,,,,,,,,0.562962963,-0.417592593,0,0,0,,0,40,40,139,1,BLEAR,HB,old,z,./images/BLEARHB.png,,,,,,,,,,,,,,,,,,,,,,,,,,,,,,,,,,,
,,,,,,,,,,,,,,,,,,31,2022-02-12_16h08.03.208,lexical_decision_task_DD_L4,2021.2.3,Win32,59.91252771,,,,,,,,,,,0.9528,1,,,,,,,,,,,,,,z,1,0.9528,,,,,,,,0.562962963,-0.417592593,0,0,0,space,0,41,41,125,1,MOOKY,LB,old,z,./images/MOOKYLB.png,5.6887,,,,,,,,,,,,,,,,,,,,,,,,,,,,,,,,,,
,,,,,,,,,,,,,,,,,,31,2022-02-12_16h08.03.208,lexical_decision_task_DD_L4,2021.2.3,Win32,59.91252771,,,,,,,,,,,0.972,1,,,,,,,,,,,,,,m,1,0.972,,,,,,,,0.562962963,-0.417592593,0,0,0,,0,42,42,22,1,CLOWN,HB,old,m,./images/CLOWNHB.png,,,,,,,,,,,,,,,,,,,,,,,,,,,,,,,,,,,
,,,,,,,,,,,,,,,,,,31,2022-02-12_16h08.03.208,lexical_decision_task_DD_L4,2021.2.3,Win32,59.91252771,,,,,,,,,,,1.3809,1,,,,,,,,,,,,,,z,1,1.3809,,,,,,,,0.562962963,-0.417592593,0,0,0,,0,43,43,91,1,SHENS,HB,old,z,./images/SHENSHB.png,,,,,,,,,,,,,,,,,,,,,,,,,,,,,,,,,,,
,,,,,,,,,,,,,,,,,,31,2022-02-12_16h08.03.208,lexical_decision_task_DD_L4,2021.2.3,Win32,59.91252771,,,,,,,,,,,1.4118,1,,,,,,,,,,,,,,z,1,1.4118,,,,,,,,0.562962963,-0.417592593,0,0,0,,0,44,44,157,1,INLER,HB,old,z,./images/INLERHB.png,,,,,,,,,,,,,,,,,,,,,,,,,,,,,,,,,,,
,,,,,,,,,,,,,,,,,,31,2022-02-12_16h08.03.208,lexical_decision_task_DD_L4,2021.2.3,Win32,59.91252771,,,,,,,,,,,0.7146,1,,,,,,,,,,,,,,z,1,0.7146,,,,,,,,0.562962963,-0.417592593,0,0,0,,0,45,45,107,1,FASKS,LB,old,z,./images/FASKSLB.png,,,,,,,,,,,,,,,,,,,,,,,,,,,,,,,,,,,
,,,,,,,,,,,,,,,,,,31,2022-02-12_16h08.03.208,lexical_decision_task_DD_L4,2021.2.3,Win32,59.91252771,,,,,,,,,,,1.4055,1,,,,,,,,,,,,,,z,1,1.4055,,,,,,,,0.562962963,-0.417592593,0,0,0,,0,46,46,136,1,WERVE,HB,old,z,./images/WERVEHB.png,,,,,,,,,,,,,,,,,,,,,,,,,,,,,,,,,,,
,,,,,,,,,,,,,,,,,,31,2022-02-12_16h08.03.208,lexical_decision_task_DD_L4,2021.2.3,Win32,59.91252771,,,,,,,,,,,1.4598,1,,,,,,,,,,,,,,m,1,1.4598,,,,,,,,0.562962963,-0.417592593,0,0,0,,0,47,47,10,1,GARDEN,HB,old,m,./images/GARDENHB.png,,,,,,,,,,,,,,,,,,,,,,,,,,,,,,,,,,,
,,,,,,,,,,,,,,,,,,31,2022-02-12_16h08.03.208,lexical_decision_task_DD_L4,2021.2.3,Win32,59.91252771,,,,,,,,,,,0.6814,1,,,,,,,,,,,,,,z,1,0.6814,,,,,,,,0.562962963,-0.417592593,0,0,0,,0,48,48,155,1,CANGY,LB,old,z,./images/CANGYLB.png,,,,,,,,,,,,,,,,,,,,,,,,,,,,,,,,,,,
,,,,,,,,,,,,,,,,,,31,2022-02-12_16h08.03.208,lexical_decision_task_DD_L4,2021.2.3,Win32,59.91252771,,,,,,,,,,,0.6766,1,,,,,,,,,,,,,,m,1,0.6766,,,,,,,,0.562962963,-0.417592593,0,0,0,,0,49,49,2,1,STOVE,LB,old,m,./images/STOVELB.png,,,,,,,,,,,,,,,,,,,,,,,,,,,,,,,,,,,
,,,,,,,,,,,,,,,,,,31,2022-02-12_16h08.03.208,lexical_decision_task_DD_L4,2021.2.3,Win32,59.91252771,,,,,,,,,,,0.7205,1,,,,,,,,,,,,,,m,1,0.7205,,,,,,,,0.562962963,-0.417592593,0,0,0,,0,50,50,20,1,GRANNY,LB,old,m,./images/GRANNYLB.png,,,,,,,,,,,,,,,,,,,,,,,,,,,,,,,,,,,
,,,,,,,,,,,,,,,,,,31,2022-02-12_16h08.03.208,lexical_decision_task_DD_L4,2021.2.3,Win32,59.91252771,,,,,,,,,,,0.6427,1,,,,,,,,,,,,,,z,1,0.6427,,,,,,,,0.562962963,-0.417592593,0,0,0,,0,51,51,150,1,NOOLS,C,old,z,./images/NOOLS.png,,,,,,,,,,,,,,,,,,,,,,,,,,,,,,,,,,,
,,,,,,,,,,,,,,,,,,31,2022-02-12_16h08.03.208,lexical_decision_task_DD_L4,2021.2.3,Win32,59.91252771,,,,,,,,,,,0.7201,1,,,,,,,,,,,,,,m,1,0.7201,,,,,,,,0.562962963,-0.417592593,0,0,0,,0,52,52,39,1,CANDY,C,old,m,./images/CANDY.png,,,,,,,,,,,,,,,,,,,,,,,,,,,,,,,,,,,
,,,,,,,,,,,,,,,,,,31,2022-02-12_16h08.03.208,lexical_decision_task_DD_L4,2021.2.3,Win32,59.91252771,,,,,,,,,,,0.7781,1,,,,,,,,,,,,,,z,1,0.7781,,,,,,,,0.562962963,-0.417592593,0,0,0,,0,53,53,129,1,PRANS,C,old,z,./images/PRANS.png,,,,,,,,,,,,,,,,,,,,,,,,,,,,,,,,,,,
,,,,,,,,,,,,,,,,,,31,2022-02-12_16h08.03.208,lexical_decision_task_DD_L4,2021.2.3,Win32,59.91252771,,,,,,,,,,,0.7789,1,,,,,,,,,,,,,,m,1,0.7789,,,,,,,,0.562962963,-0.417592593,0,0,0,,0,54,54,26,1,CLOUD,LB,old,m,./images/CLOUDLB.png,,,,,,,,,,,,,,,,,,,,,,,,,,,,,,,,,,,
,,,,,,,,,,,,,,,,,,31,2022-02-12_16h08.03.208,lexical_decision_task_DD_L4,2021.2.3,Win32,59.91252771,,,,,,,,,,,0.722,1,,,,,,,,,,,,,,z,1,0.722,,,,,,,,0.562962963,-0.417592593,0,0,0,,0,55,55,123,1,SEDGE,C,old,z,./images/SEDGE.png,,,,,,,,,,,,,,,,,,,,,,,,,,,,,,,,,,,
,,,,,,,,,,,,,,,,,,31,2022-02-12_16h08.03.208,lexical_decision_task_DD_L4,2021.2.3,Win32,59.91252771,,,,,,,,,,,0.6761,1,,,,,,,,,,,,,,z,1,0.6761,,,,,,,,0.562962963,-0.417592593,0,0,0,,0,56,56,132,1,SCIFF,C,old,z,./images/SCIFF.png,,,,,,,,,,,,,,,,,,,,,,,,,,,,,,,,,,,
,,,,,,,,,,,,,,,,,,31,2022-02-12_16h08.03.208,lexical_decision_task_DD_L4,2021.2.3,Win32,59.91252771,,,,,,,,,,,0.936,1,,,,,,,,,,,,,,z,1,0.936,,,,,,,,0.562962963,-0.417592593,0,0,0,,0,57,57,159,1,CUDDY,C,old,z,./images/CUDDY.png,,,,,,,,,,,,,,,,,,,,,,,,,,,,,,,,,,,
,,,,,,,,,,,,,,,,,,31,2022-02-12_16h08.03.208,lexical_decision_task_DD_L4,2021.2.3,Win32,59.91252771,,,,,,,,,,,1.5613,1,,,,,,,,,,,,,,m,1,1.5613,,,,,,,,0.562962963,-0.417592593,0,0,0,,0,58,58,4,1,BOXER,HB,old,m,./images/BOXERHB.png,,,,,,,,,,,,,,,,,,,,,,,,,,,,,,,,,,,
,,,,,,,,,,,,,,,,,,31,2022-02-12_16h08.03.208,lexical_decision_task_DD_L4,2021.2.3,Win32,59.91252771,,,,,,,,,,,1.0989,1,,,,,,,,,,,,,,z,1,1.0989,,,,,,,,0.562962963,-0.417592593,0,0,0,,0,59,59,124,1,TUNCH,HB,old,z,./images/TUNCHHB.png,,,,,,,,,,,,,,,,,,,,,,,,,,,,,,,,,,,
,,,,,,,,,,,,,,,,,,31,2022-02-12_16h08.03.208,lexical_decision_task_DD_L4,2021.2.3,Win32,59.91252771,,,,,,,,,,,0.9494,1,,,,,,,,,,,,,,m,1,0.9494,,,,,,,,0.562962963,-0.417592593,0,0,0,,0,60,60,37,1,TIGER,HB,old,m,./images/TIGERHB.png,,,,,,,,,,,,,,,,,,,,,,,,,,,,,,,,,,,
,,,,,,,,,,,,,,,,,,31,2022-02-12_16h08.03.208,lexical_decision_task_DD_L4,2021.2.3,Win32,59.91252771,,,,,,,,,,,0.7672,1,,,,,,,,,,,,,,m,1,0.7672,,,,,,,,0.562962963,-0.417592593,0,0,0,,0,61,61,14,1,FENCE,LB,old,m,./images/FENCELB.png,,,,,,,,,,,,,,,,,,,,,,,,,,,,,,,,,,,
,,,,,,,,,,,,,,,,,,31,2022-02-12_16h08.03.208,lexical_decision_task_DD_L4,2021.2.3,Win32,59.91252771,,,,,,,,,,,1.2069,1,,,,,,,,,,,,,,m,1,1.2069,,,,,,,,0.562962963,-0.417592593,0,0,0,,0,62,62,1,1,TOWEL,HB,old,m,./images/TOWELHB.png,,,,,,,,,,,,,,,,,,,,,,,,,,,,,,,,,,,
,,,,,,,,,,,,,,,,,,31,2022-02-12_16h08.03.208,lexical_decision_task_DD_L4,2021.2.3,Win32,59.91252771,,,,,,,,,,,0.6773,1,,,,,,,,,,,,,,m,1,0.6773,,,,,,,,0.562962963,-0.417592593,0,0,0,,0,63,63,66,1,STATUE,C,old,m,./images/STATUE.png,,,,,,,,,,,,,,,,,,,,,,,,,,,,,,,,,,,
,,,,,,,,,,,,,,,,,,31,2022-02-12_16h08.03.208,lexical_decision_task_DD_L4,2021.2.3,Win32,59.91252771,,,,,,,,,,,0.642,1,,,,,,,,,,,,,,m,1,0.642,,,,,,,,0.562962963,-0.417592593,0,0,0,,0,64,64,65,1,SPINE,LB,old,m,./images/SPINELB.png,,,,,,,,,,,,,,,,,,,,,,,,,,,,,,,,,,,
,,,,,,,,,,,,,,,,,,31,2022-02-12_16h08.03.208,lexical_decision_task_DD_L4,2021.2.3,Win32,59.91252771,,,,,,,,,,,0.5832,1,,,,,,,,,,,,,,z,1,0.5832,,,,,,,,0.562962963,-0.417592593,0,0,0,,0,65,65,114,1,RIKES,C,old,z,./images/RIKES.png,,,,,,,,,,,,,,,,,,,,,,,,,,,,,,,,,,,
,,,,,,,,,,,,,,,,,,31,2022-02-12_16h08.03.208,lexical_decision_task_DD_L4,2021.2.3,Win32,59.91252771,,,,,,,,,,,0.6471,1,,,,,,,,,,,,,,m,1,0.6471,,,,,,,,0.562962963,-0.417592593,0,0,0,,0,66,66,48,1,SHIELD,C,old,m,./images/SHIELD.png,,,,,,,,,,,,,,,,,,,,,,,,,,,,,,,,,,,
,,,,,,,,,,,,,,,,,,31,2022-02-12_16h08.03.208,lexical_decision_task_DD_L4,2021.2.3,Win32,59.91252771,,,,,,,,,,,0.7643,1,,,,,,,,,,,,,,m,1,0.7643,,,,,,,,0.562962963,-0.417592593,0,0,0,,0,67,67,32,1,HOCKEY,LB,old,m,./images/HOCKEYLB.png,,,,,,,,,,,,,,,,,,,,,,,,,,,,,,,,,,,
,,,,,,,,,,,,,,,,,,31,2022-02-12_16h08.03.208,lexical_decision_task_DD_L4,2021.2.3,Win32,59.91252771,,,,,,,,,,,0.5335,1,,,,,,,,,,,,,,m,1,0.5335,,,,,,,,0.562962963,-0.417592593,0,0,0,,0,68,68,21,1,DANCER,C,old,m,./images/DANCER.png,,,,,,,,,,,,,,,,,,,,,,,,,,,,,,,,,,,
,,,,,,,,,,,,,,,,,,31,2022-02-12_16h08.03.208,lexical_decision_task_DD_L4,2021.2.3,Win32,59.91252771,,,,,,,,,,,0.622,1,,,,,,,,,,,,,,m,1,0.622,,,,,,,,0.562962963,-0.417592593,0,0,0,,0,69,69,27,1,BUTTER,C,old,m,./images/BUTTER.png,,,,,,,,,,,,,,,,,,,,,,,,,,,,,,,,,,,
,,,,,,,,,,,,,,,,,,31,2022-02-12_16h08.03.208,lexical_decision_task_DD_L4,2021.2.3,Win32,59.91252771,,,,,,,,,,,0.9088,1,,,,,,,,,,,,,,m,1,0.9088,,,,,,,,0.562962963,-0.417592593,0,0,0,,0,70,70,34,1,RAZOR,HB,old,m,./images/RAZORHB.png,,,,,,,,,,,,,,,,,,,,,,,,,,,,,,,,,,,
,,,,,,,,,,,,,,,,,,31,2022-02-12_16h08.03.208,lexical_decision_task_DD_L4,2021.2.3,Win32,59.91252771,,,,,,,,,,,0.8708,1,,,,,,,,,,,,,,m,1,0.8708,,,,,,,,0.562962963,-0.417592593,0,0,0,,0,71,71,25,1,CHALK,HB,old,m,./images/CHALKHB.png,,,,,,,,,,,,,,,,,,,,,,,,,,,,,,,,,,,
,,,,,,,,,,,,,,,,,,31,2022-02-12_16h08.03.208,lexical_decision_task_DD_L4,2021.2.3,Win32,59.91252771,,,,,,,,,,,0.6028,1,,,,,,,,,,,,,,m,1,0.6028,,,,,,,,0.562962963,-0.417592593,0,0,0,,0,72,72,51,1,SAUCE,C,old,m,./images/SAUCE.png,,,,,,,,,,,,,,,,,,,,,,,,,,,,,,,,,,,
,,,,,,,,,,,,,,,,,,31,2022-02-12_16h08.03.208,lexical_decision_task_DD_L4,2021.2.3,Win32,59.91252771,,,,,,,,,,,0.6815,1,,,,,,,,,,,,,,z,1,0.6815,,,,,,,,0.562962963,-0.417592593,0,0,0,,0,73,73,131,1,NACES,LB,old,z,./images/NACESLB.png,,,,,,,,,,,,,,,,,,,,,,,,,,,,,,,,,,,
,,,,,,,,,,,,,,,,,,31,2022-02-12_16h08.03.208,lexical_decision_task_DD_L4,2021.2.3,Win32,59.91252771,,,,,,,,,,,0.6139,1,,,,,,,,,,,,,,z,1,0.6139,,,,,,,,0.562962963,-0.417592593,0,0,0,,0,74,74,144,1,NAIRY,C,old,z,./images/NAIRY.png,,,,,,,,,,,,,,,,,,,,,,,,,,,,,,,,,,,
,,,,,,,,,,,,,,,,,,31,2022-02-12_16h08.03.208,lexical_decision_task_DD_L4,2021.2.3,Win32,59.91252771,,,,,,,,,,,0.9958,1,,,,,,,,,,,,,,z,1,0.9958,,,,,,,,0.562962963,-0.417592593,0,0,0,,0,75,75,145,1,LAMEL,HB,old,z,./images/LAMELHB.png,,,,,,,,,,,,,,,,,,,,,,,,,,,,,,,,,,,
,,,,,,,,,,,,,,,,,,31,2022-02-12_16h08.03.208,lexical_decision_task_DD_L4,2021.2.3,Win32,59.91252771,,,,,,,,,,,0.6923,1,,,,,,,,,,,,,,m,1,0.6923,,,,,,,,0.562962963,-0.417592593,0,0,0,,0,76,76,12,1,BLOKE,C,old,m,./images/BLOKE.png,,,,,,,,,,,,,,,,,,,,,,,,,,,,,,,,,,,
,,,,,,,,,,,,,,,,,,31,2022-02-12_16h08.03.208,lexical_decision_task_DD_L4,2021.2.3,Win32,59.91252771,,,,,,,,,,,0.8869,1,,,,,,,,,,,,,,z,1,0.8869,,,,,,,,0.562962963,-0.417592593,0,0,0,,0,77,77,158,1,EGECT,LB,old,z,./images/EGECTLB.png,,,,,,,,,,,,,,,,,,,,,,,,,,,,,,,,,,,
,,,,,,,,,,,,,,,,,,31,2022-02-12_16h08.03.208,lexical_decision_task_DD_L4,2021.2.3,Win32,59.91252771,,,,,,,,,,,0.6263,1,,,,,,,,,,,,,,m,1,0.6263,,,,,,,,0.562962963,-0.417592593,0,0,0,,0,78,78,81,1,DRILL,C,old,m,./images/DRILL.png,,,,,,,,,,,,,,,,,,,,,,,,,,,,,,,,,,,
,,,,,,,,,,,,,,,,,,31,2022-02-12_16h08.03.208,lexical_decision_task_DD_L4,2021.2.3,Win32,59.91252771,,,,,,,,,,,1.0171,1,,,,,,,,,,,,,,m,1,1.0171,,,,,,,,0.562962963,-0.417592593,0,0,0,,0,79,79,55,1,ALLEY,HB,old,m,./images/ALLEYHB.png,,,,,,,,,,,,,,,,,,,,,,,,,,,,,,,,,,,
,,,,,,,,,,,,,,,,,,31,2022-02-12_16h08.03.208,lexical_decision_task_DD_L4,2021.2.3,Win32,59.91252771,,,,,,,,,,,0.7824,1,,,,,,,,,,,,,,m,1,0.7824,,,,,,,,0.562962963,-0.417592593,0,0,0,,0,80,80,46,1,MUMMY,HB,old,m,./images/MUMMYHB.png,,,,,,,,,,,,,,,,,,,,,,,,,,,,,,,,,,,
,,,,,,,,,,,,,,,,,,31,2022-02-12_16h08.03.208,lexical_decision_task_DD_L4,2021.2.3,Win32,59.91252771,,,,,,,,,,,0.7272,1,,,,,,,,,,,,,,z,1,0.7272,,,,,,,,0.562962963,-0.417592593,0,0,0,,0,81,81,99,1,BACKY,C,old,z,./images/BACKY.png,,,,,,,,,,,,,,,,,,,,,,,,,,,,,,,,,,,
,,,,,,,,,,,,,,,,,,31,2022-02-12_16h08.03.208,lexical_decision_task_DD_L4,2021.2.3,Win32,59.91252771,,,,,,,,,,,1.7124,1,,,,,,,,,,,,,,z,1,1.7124,,,,,,,,0.562962963,-0.417592593,0,0,0,,0,82,82,154,1,THINT,HB,old,z,./images/THINTHB.png,,,,,,,,,,,,,,,,,,,,,,,,,,,,,,,,,,,
,,,,,,,,,,,,,,,,,,31,2022-02-12_16h08.03.208,lexical_decision_task_DD_L4,2021.2.3,Win32,59.91252771,,,,,,,,,,,0.7227,1,,,,,,,,,,,,,,z,1,0.7227,,,,,,,,0.562962963,-0.417592593,0,0,0,space,0,83,83,89,1,DRIEK,LB,old,z,./images/DRIEKLB.png,4.853,,,,,,,,,,,,,,,,,,,,,,,,,,,,,,,,,,
,,,,,,,,,,,,,,,,,,31,2022-02-12_16h08.03.208,lexical_decision_task_DD_L4,2021.2.3,Win32,59.91252771,,,,,,,,,,,0.8183,1,,,,,,,,,,,,,,z,1,0.8183,,,,,,,,0.562962963,-0.417592593,0,0,0,,0,84,84,142,1,PLASK,HB,old,z,./images/PLASKHB.png,,,,,,,,,,,,,,,,,,,,,,,,,,,,,,,,,,,
,,,,,,,,,,,,,,,,,,31,2022-02-12_16h08.03.208,lexical_decision_task_DD_L4,2021.2.3,Win32,59.91252771,,,,,,,,,,,0.6319,1,,,,,,,,,,,,,,m,1,0.6319,,,,,,,,0.562962963,-0.417592593,0,0,0,,0,85,85,41,1,STREAM,LB,old,m,./images/STREAMLB.png,,,,,,,,,,,,,,,,,,,,,,,,,,,,,,,,,,,
,,,,,,,,,,,,,,,,,,31,2022-02-12_16h08.03.208,lexical_decision_task_DD_L4,2021.2.3,Win32,59.91252771,,,,,,,,,,,0.8694,1,,,,,,,,,,,,,,z,1,0.8694,,,,,,,,0.562962963,-0.417592593,0,0,0,,0,86,86,103,1,FLORT,HB,old,z,./images/FLORTHB.png,,,,,,,,,,,,,,,,,,,,,,,,,,,,,,,,,,,
,,,,,,,,,,,,,,,,,,31,2022-02-12_16h08.03.208,lexical_decision_task_DD_L4,2021.2.3,Win32,59.91252771,,,,,,,,,,,0.6816,1,,,,,,,,,,,,,,m,1,0.6816,,,,,,,,0.562962963,-0.417592593,0,0,0,,0,87,87,72,1,FLASK,C,old,m,./images/FLASK.png,,,,,,,,,,,,,,,,,,,,,,,,,,,,,,,,,,,
,,,,,,,,,,,,,,,,,,31,2022-02-12_16h08.03.208,lexical_decision_task_DD_L4,2021.2.3,Win32,59.91252771,,,,,,,,,,,0.6454,1,,,,,,,,,,,,,,z,1,0.6454,,,,,,,,0.562962963,-0.417592593,0,0,0,,0,88,88,95,1,HANTY,LB,old,z,./images/HANTYLB.png,,,,,,,,,,,,,,,,,,,,,,,,,,,,,,,,,,,
,,,,,,,,,,,,,,,,,,31,2022-02-12_16h08.03.208,lexical_decision_task_DD_L4,2021.2.3,Win32,59.91252771,,,,,,,,,,,0.9004,1,,,,,,,,,,,,,,m,1,0.9004,,,,,,,,0.562962963,-0.417592593,0,0,0,,0,89,89,13,1,BUNNY,HB,old,m,./images/BUNNYHB.png,,,,,,,,,,,,,,,,,,,,,,,,,,,,,,,,,,,
,,,,,,,,,,,,,,,,,,31,2022-02-12_16h08.03.208,lexical_decision_task_DD_L4,2021.2.3,Win32,59.91252771,,,,,,,,,,,0.7673,1,,,,,,,,,,,,,,z,1,0.7673,,,,,,,,0.562962963,-0.417592593,0,0,0,,0,90,90,160,1,VEETS,HB,old,z,./images/VEETSHB.png,,,,,,,,,,,,,,,,,,,,,,,,,,,,,,,,,,,
,,,,,,,,,,,,,,,,,,31,2022-02-12_16h08.03.208,lexical_decision_task_DD_L4,2021.2.3,Win32,59.91252771,,,,,,,,,,,1.1743,1,,,,,,,,,,,,,,z,1,1.1743,,,,,,,,0.562962963,-0.417592593,0,0,0,,0,91,91,137,1,JOOST,LB,old,z,./images/JOOSTLB.png,,,,,,,,,,,,,,,,,,,,,,,,,,,,,,,,,,,
,,,,,,,,,,,,,,,,,,31,2022-02-12_16h08.03.208,lexical_decision_task_DD_L4,2021.2.3,Win32,59.91252771,,,,,,,,,,,1.2464,0,,,,,,,,,,,,,,m,0,1.2464,,,,,,,,0.562962963,-0.417592593,0,0,0,,0,92,92,166,1,SHORY,HB,old,z,./images/SHORYHB.png,,,,,,,,,,,,,,,,,,,,,,,,,,,,,,,,,,,
,,,,,,,,,,,,,,,,,,31,2022-02-12_16h08.03.208,lexical_decision_task_DD_L4,2021.2.3,Win32,59.91252771,,,,,,,,,,,0.7078,1,,,,,,,,,,,,,,m,1,0.7078,,,,,,,,0.562962963,-0.417592593,0,0,0,,0,93,93,60,1,CURRY,C,old,m,./images/CURRY.png,,,,,,,,,,,,,,,,,,,,,,,,,,,,,,,,,,,
,,,,,,,,,,,,,,,,,,31,2022-02-12_16h08.03.208,lexical_decision_task_DD_L4,2021.2.3,Win32,59.91252771,,,,,,,,,,,0.6223,1,,,,,,,,,,,,,,z,1,0.6223,,,,,,,,0.562962963,-0.417592593,0,0,0,,0,94,94,141,1,PLEET,C,old,z,./images/PLEET.png,,,,,,,,,,,,,,,,,,,,,,,,,,,,,,,,,,,
,,,,,,,,,,,,,,,,,,31,2022-02-12_16h08.03.208,lexical_decision_task_DD_L4,2021.2.3,Win32,59.91252771,,,,,,,,,,,0.7491,1,,,,,,,,,,,,,,m,1,0.7491,,,,,,,,0.562962963,-0.417592593,0,0,0,,0,95,95,18,1,PARCEL,C,old,m,./images/PARCEL.png,,,,,,,,,,,,,,,,,,,,,,,,,,,,,,,,,,,
,,,,,,,,,,,,,,,,,,31,2022-02-12_16h08.03.208,lexical_decision_task_DD_L4,2021.2.3,Win32,59.91252771,,,,,,,,,,,2.6298,1,,,,,,,,,,,,,,z,1,2.6298,,,,,,,,0.562962963,-0.417592593,0,0,0,,0,96,96,115,1,MAWNS,HB,old,z,./images/MAWNSHB.png,,,,,,,,,,,,,,,,,,,,,,,,,,,,,,,,,,,
,,,,,,,,,,,,,,,,,,31,2022-02-12_16h08.03.208,lexical_decision_task_DD_L4,2021.2.3,Win32,59.91252771,,,,,,,,,,,0.5959,1,,,,,,,,,,,,,,m,1,0.5959,,,,,,,,0.562962963,-0.417592593,0,0,0,,0,97,97,56,1,HEATER,LB,old,m,./images/HEATERLB.png,,,,,,,,,,,,,,,,,,,,,,,,,,,,,,,,,,,
,,,,,,,,,,,,,,,,,,31,2022-02-12_16h08.03.208,lexical_decision_task_DD_L4,2021.2.3,Win32,59.91252771,,,,,,,,,,,1.0837,1,,,,,,,,,,,,,,z,1,1.0837,,,,,,,,0.562962963,-0.417592593,0,0,0,,0,98,98,97,1,CHIDS,HB,old,z,./images/CHIDSHB.png,,,,,,,,,,,,,,,,,,,,,,,,,,,,,,,,,,,
,,,,,,,,,,,,,,,,,,31,2022-02-12_16h08.03.208,lexical_decision_task_DD_L4,2021.2.3,Win32,59.91252771,,,,,,,,,,,0.5345,1,,,,,,,,,,,,,,m,1,0.5345,,,,,,,,0.562962963,-0.417592593,0,0,0,,0,99,99,63,1,BAKER,C,old,m,./images/BAKER.png,,,,,,,,,,,,,,,,,,,,,,,,,,,,,,,,,,,
,,,,,,,,,,,,,,,,,,31,2022-02-12_16h08.03.208,lexical_decision_task_DD_L4,2021.2.3,Win32,59.91252771,,,,,,,,,,,0.6966,1,,,,,,,,,,,,,,z,1,0.6966,,,,,,,,0.562962963,-0.417592593,0,0,0,,0,100,100,104,1,GITTY,LB,old,z,./images/GITTYLB.png,,,,,,,,,,,,,,,,,,,,,,,,,,,,,,,,,,,
,,,,,,,,,,,,,,,,,,31,2022-02-12_16h08.03.208,lexical_decision_task_DD_L4,2021.2.3,Win32,59.91252771,,,,,,,,,,,1.955,1,,,,,,,,,,,,,,m,1,1.955,,,,,,,,0.562962963,-0.417592593,0,0,0,,0,101,101,19,1,DONKEY,HB,old,m,./images/DONKEYHB.png,,,,,,,,,,,,,,,,,,,,,,,,,,,,,,,,,,,
,,,,,,,,,,,,,,,,,,31,2022-02-12_16h08.03.208,lexical_decision_task_DD_L4,2021.2.3,Win32,59.91252771,,,,,,,,,,,1.6199,1,,,,,,,,,,,,,,z,1,1.6199,,,,,,,,0.562962963,-0.417592593,0,0,0,,0,102,102,148,1,JOMS,HB,old,z,./images/JOMSHB.png,,,,,,,,,,,,,,,,,,,,,,,,,,,,,,,,,,,
,,,,,,,,,,,,,,,,,,31,2022-02-12_16h08.03.208,lexical_decision_task_DD_L4,2021.2.3,Win32,59.91252771,,,,,,,,,,,1.4418,1,,,,,,,,,,,,,,m,1,1.4418,,,,,,,,0.562962963,-0.417592593,0,0,0,,0,103,103,58,1,CANOE,HB,old,m,./images/CANOEHB.png,,,,,,,,,,,,,,,,,,,,,,,,,,,,,,,,,,,
,,,,,,,,,,,,,,,,,,31,2022-02-12_16h08.03.208,lexical_decision_task_DD_L4,2021.2.3,Win32,59.91252771,,,,,,,,,,,0.912,1,,,,,,,,,,,,,,m,1,0.912,,,,,,,,0.562962963,-0.417592593,0,0,0,,0,104,104,24,1,FLESH,C,old,m,./images/FLESH.png,,,,,,,,,,,,,,,,,,,,,,,,,,,,,,,,,,,
,,,,,,,,,,,,,,,,,,31,2022-02-12_16h08.03.208,lexical_decision_task_DD_L4,2021.2.3,Win32,59.91252771,,,,,,,,,,,0.7618,1,,,,,,,,,,,,,,z,1,0.7618,,,,,,,,0.562962963,-0.417592593,0,0,0,,0,105,105,110,1,CRUNK,LB,old,z,./images/CRUNKLB.png,,,,,,,,,,,,,,,,,,,,,,,,,,,,,,,,,,,
,,,,,,,,,,,,,,,,,,31,2022-02-12_16h08.03.208,lexical_decision_task_DD_L4,2021.2.3,Win32,59.91252771,,,,,,,,,,,0.8585,1,,,,,,,,,,,,,,z,1,0.8585,,,,,,,,0.562962963,-0.417592593,0,0,0,,0,106,106,147,1,ZOLES,C,old,z,./images/ZOLES.png,,,,,,,,,,,,,,,,,,,,,,,,,,,,,,,,,,,
,,,,,,,,,,,,,,,,,,31,2022-02-12_16h08.03.208,lexical_decision_task_DD_L4,2021.2.3,Win32,59.91252771,,,,,,,,,,,0.8072,1,,,,,,,,,,,,,,z,1,0.8072,,,,,,,,0.562962963,-0.417592593,0,0,0,,0,107,107,146,1,MOOST,LB,old,z,./images/MOOSTLB.png,,,,,,,,,,,,,,,,,,,,,,,,,,,,,,,,,,,
,,,,,,,,,,,,,,,,,,31,2022-02-12_16h08.03.208,lexical_decision_task_DD_L4,2021.2.3,Win32,59.91252771,,,,,,,,,,,1.6377,1,,,,,,,,,,,,,,z,1,1.6377,,,,,,,,0.562962963,-0.417592593,0,0,0,,0,108,108,121,1,CEERS,HB,old,z,./images/CEERSHB.png,,,,,,,,,,,,,,,,,,,,,,,,,,,,,,,,,,,
,,,,,,,,,,,,,,,,,,31,2022-02-12_16h08.03.208,lexical_decision_task_DD_L4,2021.2.3,Win32,59.91252771,,,,,,,,,,,0.58,1,,,,,,,,,,,,,,z,1,0.58,,,,,,,,0.562962963,-0.417592593,0,0,0,,0,109,109,90,1,NEAST,C,old,z,./images/NEAST.png,,,,,,,,,,,,,,,,,,,,,,,,,,,,,,,,,,,
,,,,,,,,,,,,,,,,,,31,2022-02-12_16h08.03.208,lexical_decision_task_DD_L4,2021.2.3,Win32,59.91252771,,,,,,,,,,,0.6113,1,,,,,,,,,,,,,,m,1,0.6113,,,,,,,,0.562962963,-0.417592593,0,0,0,,0,110,110,17,1,PARADE,LB,old,m,./images/PARADELB.png,,,,,,,,,,,,,,,,,,,,,,,,,,,,,,,,,,,
,,,,,,,,,,,,,,,,,,31,2022-02-12_16h08.03.208,lexical_decision_task_DD_L4,2021.2.3,Win32,59.91252771,,,,,,,,,,,0.7136,1,,,,,,,,,,,,,,m,1,0.7136,,,,,,,,0.562962963,-0.417592593,0,0,0,,0,111,111,29,1,PISTOL,LB,old,m,./images/PISTOLLB.png,,,,,,,,,,,,,,,,,,,,,,,,,,,,,,,,,,,
,,,,,,,,,,,,,,,,,,31,2022-02-12_16h08.03.208,lexical_decision_task_DD_L4,2021.2.3,Win32,59.91252771,,,,,,,,,,,0.7724,1,,,,,,,,,,,,,,m,1,0.7724,,,,,,,,0.562962963,-0.417592593,0,0,0,,0,112,112,57,1,FERRY,C,old,m,./images/FERRY.png,,,,,,,,,,,,,,,,,,,,,,,,,,,,,,,,,,,
,,,,,,,,,,,,,,,,,,31,2022-02-12_16h08.03.208,lexical_decision_task_DD_L4,2021.2.3,Win32,59.91252771,,,,,,,,,,,1.3167,1,,,,,,,,,,,,,,m,1,1.3167,,,,,,,,0.562962963,-0.417592593,0,0,0,,0,113,113,54,1,CHERRY,C,old,m,./images/CHERRY.png,,,,,,,,,,,,,,,,,,,,,,,,,,,,,,,,,,,
,,,,,,,,,,,,,,,,,,31,2022-02-12_16h08.03.208,lexical_decision_task_DD_L4,2021.2.3,Win32,59.91252771,,,,,,,,,,,1.4873,1,,,,,,,,,,,,,,z,1,1.4873,,,,,,,,0.562962963,-0.417592593,0,0,0,,0,114,114,118,1,BAVEL,HB,old,z,./images/BAVELHB.png,,,,,,,,,,,,,,,,,,,,,,,,,,,,,,,,,,,
,,,,,,,,,,,,,,,,,,31,2022-02-12_16h08.03.208,lexical_decision_task_DD_L4,2021.2.3,Win32,59.91252771,,,,,,,,,,,1.21,1,,,,,,,,,,,,,,m,1,1.21,,,,,,,,0.562962963,-0.417592593,0,0,0,,0,115,115,64,1,BRIDE,HB,old,m,./images/BRIDEHB.png,,,,,,,,,,,,,,,,,,,,,,,,,,,,,,,,,,,
,,,,,,,,,,,,,,,,,,31,2022-02-12_16h08.03.208,lexical_decision_task_DD_L4,2021.2.3,Win32,59.91252771,,,,,,,,,,,0.7123,1,,,,,,,,,,,,,,z,1,0.7123,,,,,,,,0.562962963,-0.417592593,0,0,0,,0,116,116,128,1,GRIFT,LB,old,z,./images/GRIFTLB.png,,,,,,,,,,,,,,,,,,,,,,,,,,,,,,,,,,,
,,,,,,,,,,,,,,,,,,31,2022-02-12_16h08.03.208,lexical_decision_task_DD_L4,2021.2.3,Win32,59.91252771,,,,,,,,,,,0.6354,1,,,,,,,,,,,,,,m,1,0.6354,,,,,,,,0.562962963,-0.417592593,0,0,0,,0,117,117,30,1,SLOPE,C,old,m,./images/SLOPE.png,,,,,,,,,,,,,,,,,,,,,,,,,,,,,,,,,,,
,,,,,,,,,,,,,,,,,,31,2022-02-12_16h08.03.208,lexical_decision_task_DD_L4,2021.2.3,Win32,59.91252771,,,,,,,,,,,1.3204,1,,,,,,,,,,,,,,m,1,1.3204,,,,,,,,0.562962963,-0.417592593,0,0,0,,0,118,118,7,1,WAGON,HB,old,m,./images/WAGONHB.png,,,,,,,,,,,,,,,,,,,,,,,,,,,,,,,,,,,
,,,,,,,,,,,,,,,,,,31,2022-02-12_16h08.03.208,lexical_decision_task_DD_L4,2021.2.3,Win32,59.91252771,,,,,,,,,,,0.7476,1,,,,,,,,,,,,,,m,1,0.7476,,,,,,,,0.562962963,-0.417592593,0,0,0,,0,119,119,42,1,CHAIN,C,old,m,./images/CHAIN.png,,,,,,,,,,,,,,,,,,,,,,,,,,,,,,,,,,,
,,,,,,,,,,,,,,,,,,31,2022-02-12_16h08.03.208,lexical_decision_task_DD_L4,2021.2.3,Win32,59.91252771,,,,,,,,,,,0.668,1,,,,,,,,,,,,,,m,1,0.668,,,,,,,,0.562962963,-0.417592593,0,0,0,,0,120,120,68,1,VALLEY,LB,old,m,./images/VALLEYLB.png,,,,,,,,,,,,,,,,,,,,,,,,,,,,,,,,,,,
,,,,,,,,,,,,,,,,,,31,2022-02-12_16h08.03.208,lexical_decision_task_DD_L4,2021.2.3,Win32,59.91252771,,,,,,,,,,,0.656,1,,,,,,,,,,,,,,z,1,0.656,,,,,,,,0.562962963,-0.417592593,0,0,0,,0,121,121,92,1,PAIMS,LB,old,z,./images/PAIMSLB.png,,,,,,,,,,,,,,,,,,,,,,,,,,,,,,,,,,,
,,,,,,,,,,,,,,,,,,31,2022-02-12_16h08.03.208,lexical_decision_task_DD_L4,2021.2.3,Win32,59.91252771,,,,,,,,,,,0.7331,1,,,,,,,,,,,,,,m,1,0.7331,,,,,,,,0.562962963,-0.417592593,0,0,0,,0,122,122,23,1,CLOTH,LB,old,m,./images/CLOTHLB.png,,,,,,,,,,,,,,,,,,,,,,,,,,,,,,,,,,,
,,,,,,,,,,,,,,,,,,31,2022-02-12_16h08.03.208,lexical_decision_task_DD_L4,2021.2.3,Win32,59.91252771,,,,,,,,,,,1.0306,1,,,,,,,,,,,,,,z,1,1.0306,,,,,,,,0.562962963,-0.417592593,0,0,0,,0,123,123,100,1,DRIBS,HB,old,z,./images/DRIBSHB.png,,,,,,,,,,,,,,,,,,,,,,,,,,,,,,,,,,,
,,,,,,,,,,,,,,,,,,31,2022-02-12_16h08.03.208,lexical_decision_task_DD_L4,2021.2.3,Win32,59.91252771,,,,,,,,,,,0.6527,1,,,,,,,,,,,,,,m,1,0.6527,,,,,,,,0.562962963,-0.417592593,0,0,0,,0,124,124,78,1,BROOM,C,old,m,./images/BROOM.png,,,,,,,,,,,,,,,,,,,,,,,,,,,,,,,,,,,
,,,,,,,,,,,,,,,,,,31,2022-02-12_16h08.03.208,lexical_decision_task_DD_L4,2021.2.3,Win32,59.91252771,,,,,,,,,,,1.4503,1,,,,,,,,,,,,,,z,1,1.4503,,,,,,,,0.562962963,-0.417592593,0,0,0,space,0,125,125,88,1,GLUSH,HB,old,z,./images/GLUSHHB.png,5.1824,,,,,,,,,,,,,,,,,,,,,,,,,,,,,,,,,,
,,,,,,,,,,,,,,,,,,31,2022-02-12_16h08.03.208,lexical_decision_task_DD_L4,2021.2.3,Win32,59.91252771,,,,,,,,,,,0.662,1,,,,,,,,,,,,,,z,1,0.662,,,,,,,,0.562962963,-0.417592593,0,0,0,,0,126,126,153,1,CLUPS,C,old,z,./images/CLUPS.png,,,,,,,,,,,,,,,,,,,,,,,,,,,,,,,,,,,
,,,,,,,,,,,,,,,,,,31,2022-02-12_16h08.03.208,lexical_decision_task_DD_L4,2021.2.3,Win32,59.91252771,,,,,,,,,,,0.5788,1,,,,,,,,,,,,,,m,1,0.5788,,,,,,,,0.562962963,-0.417592593,0,0,0,,0,127,127,6,1,STAIN,C,old,m,./images/STAIN.png,,,,,,,,,,,,,,,,,,,,,,,,,,,,,,,,,,,
,,,,,,,,,,,,,,,,,,31,2022-02-12_16h08.03.208,lexical_decision_task_DD_L4,2021.2.3,Win32,59.91252771,,,,,,,,,,,0.5636,1,,,,,,,,,,,,,,m,1,0.5636,,,,,,,,0.562962963,-0.417592593,0,0,0,,0,128,128,0,1,WALNUT,C,old,m,./images/WALNUT.png,,,,,,,,,,,,,,,,,,,,,,,,,,,,,,,,,,,
,,,,,,,,,,,,,,,,,,31,2022-02-12_16h08.03.208,lexical_decision_task_DD_L4,2021.2.3,Win32,59.91252771,,,,,,,,,,,0.6035,1,,,,,,,,,,,,,,z,1,0.6035,,,,,,,,0.562962963,-0.417592593,0,0,0,,0,129,129,84,1,HAXES,C,old,z,./images/HAXES.png,,,,,,,,,,,,,,,,,,,,,,,,,,,,,,,,,,,
,,,,,,,,,,,,,,,,,,31,2022-02-12_16h08.03.208,lexical_decision_task_DD_L4,2021.2.3,Win32,59.91252771,,,,,,,,,,,0.6738,1,,,,,,,,,,,,,,m,1,0.6738,,,,,,,,0.562962963,-0.417592593,0,0,0,,0,130,130,33,1,SAUNA,C,old,m,./images/SAUNA.png,,,,,,,,,,,,,,,,,,,,,,,,,,,,,,,,,,,
,,,,,,,,,,,,,,,,,,31,2022-02-12_16h08.03.208,lexical_decision_task_DD_L4,2021.2.3,Win32,59.91252771,,,,,,,,,,,1.0858,1,,,,,,,,,,,,,,z,1,1.0858,,,,,,,,0.562962963,-0.417592593,0,0,0,,0,131,131,151,1,TINKY,HB,old,z,./images/TINKYHB.png,,,,,,,,,,,,,,,,,,,,,,,,,,,,,,,,,,,
,,,,,,,,,,,,,,,,,,31,2022-02-12_16h08.03.208,lexical_decision_task_DD_L4,2021.2.3,Win32,59.91252771,,,,,,,,,,,0.5616,1,,,,,,,,,,,,,,z,1,0.5616,,,,,,,,0.562962963,-0.417592593,0,0,0,,0,132,132,143,1,MONGS,LB,old,z,./images/MONGSLB.png,,,,,,,,,,,,,,,,,,,,,,,,,,,,,,,,,,,
,,,,,,,,,,,,,,,,,,31,2022-02-12_16h08.03.208,lexical_decision_task_DD_L4,2021.2.3,Win32,59.91252771,,,,,,,,,,,0.7382,1,,,,,,,,,,,,,,m,1,0.7382,,,,,,,,0.562962963,-0.417592593,0,0,0,,0,133,133,83,1,WHISKY,LB,old,m,./images/WHISKYLB.png,,,,,,,,,,,,,,,,,,,,,,,,,,,,,,,,,,,
,,,,,,,,,,,,,,,,,,31,2022-02-12_16h08.03.208,lexical_decision_task_DD_L4,2021.2.3,Win32,59.91252771,,,,,,,,,,,0.7244,1,,,,,,,,,,,,,,z,1,0.7244,,,,,,,,0.562962963,-0.417592593,0,0,0,,0,134,134,87,1,TRING,C,old,z,./images/TRING.png,,,,,,,,,,,,,,,,,,,,,,,,,,,,,,,,,,,
,,,,,,,,,,,,,,,,,,31,2022-02-12_16h08.03.208,lexical_decision_task_DD_L4,2021.2.3,Win32,59.91252771,,,,,,,,,,,0.8535,1,,,,,,,,,,,,,,z,1,0.8535,,,,,,,,0.562962963,-0.417592593,0,0,0,,0,135,135,113,1,LINEW,LB,old,z,./images/LINEWLB.png,,,,,,,,,,,,,,,,,,,,,,,,,,,,,,,,,,,
,,,,,,,,,,,,,,,,,,31,2022-02-12_16h08.03.208,lexical_decision_task_DD_L4,2021.2.3,Win32,59.91252771,,,,,,,,,,,0.6742,1,,,,,,,,,,,,,,z,1,0.6742,,,,,,,,0.562962963,-0.417592593,0,0,0,,0,136,136,101,1,GLEET,LB,old,z,./images/GLEETLB.png,,,,,,,,,,,,,,,,,,,,,,,,,,,,,,,,,,,
,,,,,,,,,,,,,,,,,,31,2022-02-12_16h08.03.208,lexical_decision_task_DD_L4,2021.2.3,Win32,59.91252771,,,,,,,,,,,0.5742,1,,,,,,,,,,,,,,z,1,0.5742,,,,,,,,0.562962963,-0.417592593,0,0,0,,0,137,137,119,1,PAFER,LB,old,z,./images/PAFERLB.png,,,,,,,,,,,,,,,,,,,,,,,,,,,,,,,,,,,
,,,,,,,,,,,,,,,,,,31,2022-02-12_16h08.03.208,lexical_decision_task_DD_L4,2021.2.3,Win32,59.91252771,,,,,,,,,,,0.9581,1,,,,,,,,,,,,,,z,1,0.9581,,,,,,,,0.562962963,-0.417592593,0,0,0,,0,138,138,85,1,CHULK,HB,old,z,./images/CHULKHB.png,,,,,,,,,,,,,,,,,,,,,,,,,,,,,,,,,,,
,,,,,,,,,,,,,,,,,,31,2022-02-12_16h08.03.208,lexical_decision_task_DD_L4,2021.2.3,Win32,59.91252771,,,,,,,,,,,0.6785,1,,,,,,,,,,,,,,z,1,0.6785,,,,,,,,0.562962963,-0.417592593,0,0,0,,0,139,139,156,1,HIXES,C,old,z,./images/HIXES.png,,,,,,,,,,,,,,,,,,,,,,,,,,,,,,,,,,,
,,,,,,,,,,,,,,,,,,31,2022-02-12_16h08.03.208,lexical_decision_task_DD_L4,2021.2.3,Win32,59.91252771,,,,,,,,,,,0.6833,1,,,,,,,,,,,,,,m,1,0.6833,,,,,,,,0.562962963,-0.417592593,0,0,0,,0,140,140,35,1,LLAMA,LB,old,m,./images/LLAMALB.png,,,,,,,,,,,,,,,,,,,,,,,,,,,,,,,,,,,
,,,,,,,,,,,,,,,,,,31,2022-02-12_16h08.03.208,lexical_decision_task_DD_L4,2021.2.3,Win32,59.91252771,,,,,,,,,,,0.6463,1,,,,,,,,,,,,,,z,1,0.6463,,,,,,,,0.562962963,-0.417592593,0,0,0,,0,141,141,164,1,SGREW,LB,old,z,./images/SGREWLB.png,,,,,,,,,,,,,,,,,,,,,,,,,,,,,,,,,,,
,,,,,,,,,,,,,,,,,,31,2022-02-12_16h08.03.208,lexical_decision_task_DD_L4,2021.2.3,Win32,59.91252771,,,,,,,,,,,0.6035,1,,,,,,,,,,,,,,z,1,0.6035,,,,,,,,0.562962963,-0.417592593,0,0,0,,0,142,142,93,1,SMONE,C,old,z,./images/SMONE.png,,,,,,,,,,,,,,,,,,,,,,,,,,,,,,,,,,,
,,,,,,,,,,,,,,,,,,31,2022-02-12_16h08.03.208,lexical_decision_task_DD_L4,2021.2.3,Win32,59.91252771,,,,,,,,,,,0.7782,1,,,,,,,,,,,,,,m,1,0.7782,,,,,,,,0.562962963,-0.417592593,0,0,0,,0,143,143,61,1,ARTIST,HB,old,m,./images/ARTISTHB.png,,,,,,,,,,,,,,,,,,,,,,,,,,,,,,,,,,,
,,,,,,,,,,,,,,,,,,31,2022-02-12_16h08.03.208,lexical_decision_task_DD_L4,2021.2.3,Win32,59.91252771,,,,,,,,,,,0.9622,1,,,,,,,,,,,,,,z,1,0.9622,,,,,,,,0.562962963,-0.417592593,0,0,0,,0,144,144,133,1,POWDY,HB,old,z,./images/POWDYHB.png,,,,,,,,,,,,,,,,,,,,,,,,,,,,,,,,,,,
,,,,,,,,,,,,,,,,,,31,2022-02-12_16h08.03.208,lexical_decision_task_DD_L4,2021.2.3,Win32,59.91252771,,,,,,,,,,,0.6589,1,,,,,,,,,,,,,,m,1,0.6589,,,,,,,,0.562962963,-0.417592593,0,0,0,,0,145,145,62,1,MAMMAL,LB,old,m,./images/MAMMALLB.png,,,,,,,,,,,,,,,,,,,,,,,,,,,,,,,,,,,
,,,,,,,,,,,,,,,,,,31,2022-02-12_16h08.03.208,lexical_decision_task_DD_L4,2021.2.3,Win32,59.91252771,,,,,,,,,,,0.5762,1,,,,,,,,,,,,,,m,1,0.5762,,,,,,,,0.562962963,-0.417592593,0,0,0,,0,146,146,77,1,WHEEL,LB,old,m,./images/WHEELLB.png,,,,,,,,,,,,,,,,,,,,,,,,,,,,,,,,,,,
,,,,,,,,,,,,,,,,,,31,2022-02-12_16h08.03.208,lexical_decision_task_DD_L4,2021.2.3,Win32,59.91252771,,,,,,,,,,,2.3913,1,,,,,,,,,,,,,,z,1,2.3913,,,,,,,,0.562962963,-0.417592593,0,0,0,,0,147,147,130,1,CRILL,HB,old,z,./images/CRILLHB.png,,,,,,,,,,,,,,,,,,,,,,,,,,,,,,,,,,,
,,,,,,,,,,,,,,,,,,31,2022-02-12_16h08.03.208,lexical_decision_task_DD_L4,2021.2.3,Win32,59.91252771,,,,,,,,,,,0.9509,0,,,,,,,,,,,,,,z,0,0.9509,,,,,,,,0.562962963,-0.417592593,0,0,0,,0,148,148,79,1,RULER,HB,old,m,./images/RULERHB.png,,,,,,,,,,,,,,,,,,,,,,,,,,,,,,,,,,,
,,,,,,,,,,,,,,,,,,31,2022-02-12_16h08.03.208,lexical_decision_task_DD_L4,2021.2.3,Win32,59.91252771,,,,,,,,,,,1.2316,1,,,,,,,,,,,,,,z,1,1.2316,,,,,,,,0.562962963,-0.417592593,0,0,0,,0,149,149,140,1,DOVET,LB,old,z,./images/DOVETLB.png,,,,,,,,,,,,,,,,,,,,,,,,,,,,,,,,,,,
,,,,,,,,,,,,,,,,,,31,2022-02-12_16h08.03.208,lexical_decision_task_DD_L4,2021.2.3,Win32,59.91252771,,,,,,,,,,,0.7984,1,,,,,,,,,,,,,,z,1,0.7984,,,,,,,,0.562962963,-0.417592593,0,0,0,,0,150,150,111,1,HOSSE,C,old,z,./images/HOSSE.png,,,,,,,,,,,,,,,,,,,,,,,,,,,,,,,,,,,
,,,,,,,,,,,,,,,,,,31,2022-02-12_16h08.03.208,lexical_decision_task_DD_L4,2021.2.3,Win32,59.91252771,,,,,,,,,,,0.573,1,,,,,,,,,,,,,,m,1,0.573,,,,,,,,0.562962963,-0.417592593,0,0,0,,0,151,151,38,1,ENGINE,LB,old,m,./images/ENGINELB.png,,,,,,,,,,,,,,,,,,,,,,,,,,,,,,,,,,,
,,,,,,,,,,,,,,,,,,31,2022-02-12_16h08.03.208,lexical_decision_task_DD_L4,2021.2.3,Win32,59.91252771,,,,,,,,,,,0.6291,1,,,,,,,,,,,,,,z,1,0.6291,,,,,,,,0.562962963,-0.417592593,0,0,0,,0,152,152,138,1,PLICE,C,old,z,./images/PLICE.png,,,,,,,,,,,,,,,,,,,,,,,,,,,,,,,,,,,
,,,,,,,,,,,,,,,,,,31,2022-02-12_16h08.03.208,lexical_decision_task_DD_L4,2021.2.3,Win32,59.91252771,,,,,,,,,,,1.0991,1,,,,,,,,,,,,,,m,1,1.0991,,,,,,,,0.562962963,-0.417592593,0,0,0,,0,153,153,16,1,GRAPE,HB,old,m,./images/GRAPEHB.png,,,,,,,,,,,,,,,,,,,,,,,,,,,,,,,,,,,
,,,,,,,,,,,,,,,,,,31,2022-02-12_16h08.03.208,lexical_decision_task_DD_L4,2021.2.3,Win32,59.91252771,,,,,,,,,,,0.9581,1,,,,,,,,,,,,,,m,1,0.9581,,,,,,,,0.562962963,-0.417592593,0,0,0,,0,154,154,52,1,DESERT,HB,old,m,./images/DESERTHB.png,,,,,,,,,,,,,,,,,,,,,,,,,,,,,,,,,,,
,,,,,,,,,,,,,,,,,,31,2022-02-12_16h08.03.208,lexical_decision_task_DD_L4,2021.2.3,Win32,59.91252771,,,,,,,,,,,0.7197,1,,,,,,,,,,,,,,m,1,0.7197,,,,,,,,0.562962963,-0.417592593,0,0,0,,0,155,155,69,1,ARROW,C,old,m,./images/ARROW.png,,,,,,,,,,,,,,,,,,,,,,,,,,,,,,,,,,,
,,,,,,,,,,,,,,,,,,31,2022-02-12_16h08.03.208,lexical_decision_task_DD_L4,2021.2.3,Win32,59.91252771,,,,,,,,,,,0.6171,1,,,,,,,,,,,,,,z,1,0.6171,,,,,,,,0.562962963,-0.417592593,0,0,0,,0,156,156,98,1,BAMPS,LB,old,z,./images/BAMPSLB.png,,,,,,,,,,,,,,,,,,,,,,,,,,,,,,,,,,,
,,,,,,,,,,,,,,,,,,31,2022-02-12_16h08.03.208,lexical_decision_task_DD_L4,2021.2.3,Win32,59.91252771,,,,,,,,,,,0.6229,1,,,,,,,,,,,,,,z,1,0.6229,,,,,,,,0.562962963,-0.417592593,0,0,0,,0,157,157,108,1,GRUET,C,old,z,./images/GRUET.png,,,,,,,,,,,,,,,,,,,,,,,,,,,,,,,,,,,
,,,,,,,,,,,,,,,,,,31,2022-02-12_16h08.03.208,lexical_decision_task_DD_L4,2021.2.3,Win32,59.91252771,,,,,,,,,,,0.6209,1,,,,,,,,,,,,,,m,1,0.6209,,,,,,,,0.562962963,-0.417592593,0,0,0,,0,158,158,5,1,BAMBOO,LB,old,m,./images/BAMBOOLB.png,,,,,,,,,,,,,,,,,,,,,,,,,,,,,,,,,,,
,,,,,,,,,,,,,,,,,,31,2022-02-12_16h08.03.208,lexical_decision_task_DD_L4,2021.2.3,Win32,59.91252771,,,,,,,,,,,0.691,1,,,,,,,,,,,,,,m,1,0.691,,,,,,,,0.562962963,-0.417592593,0,0,0,,0,159,159,3,1,CRATER,C,old,m,./images/CRATER.png,,,,,,,,,,,,,,,,,,,,,,,,,,,,,,,,,,,
,,,,,,,,,,,,,,,,,,31,2022-02-12_16h08.03.208,lexical_decision_task_DD_L4,2021.2.3,Win32,59.91252771,,,,,,,,,,,0.5905,1,,,,,,,,,,,,,,m,1,0.5905,,,,,,,,0.562962963,-0.417592593,0,0,0,,0,160,160,36,1,BOILER,C,old,m,./images/BOILER.png,,,,,,,,,,,,,,,,,,,,,,,,,,,,,,,,,,,
,,,,,,,,,,,,,,,,,,31,2022-02-12_16h08.03.208,lexical_decision_task_DD_L4,2021.2.3,Win32,59.91252771,,,,,,,,,,,0.6706,1,,,,,,,,,,,,,,z,1,0.6706,,,,,,,,0.562962963,-0.417592593,0,0,0,,0,161,161,102,1,DULLE,C,old,z,./images/DULLE.png,,,,,,,,,,,,,,,,,,,,,,,,,,,,,,,,,,,
,,,,,,,,,,,,,,,,,,31,2022-02-12_16h08.03.208,lexical_decision_task_DD_L4,2021.2.3,Win32,59.91252771,,,,,,,,,,,1.6018,1,,,,,,,,,,,,,,m,1,1.6018,,,,,,,,0.562962963,-0.417592593,0,0,0,,0,162,162,73,1,GLOVE,HB,old,m,./images/GLOVEHB.png,,,,,,,,,,,,,,,,,,,,,,,,,,,,,,,,,,,
,,,,,,,,,,,,,,,,,,31,2022-02-12_16h08.03.208,lexical_decision_task_DD_L4,2021.2.3,Win32,59.91252771,,,,,,,,,,,0.5526,1,,,,,,,,,,,,,,z,1,0.5526,,,,,,,,0.562962963,-0.417592593,0,0,0,,0,163,163,162,1,LEICH,C,old,z,./images/LEICH.png,,,,,,,,,,,,,,,,,,,,,,,,,,,,,,,,,,,
,,,,,,,,,,,,,,,,,,31,2022-02-12_16h08.03.208,lexical_decision_task_DD_L4,2021.2.3,Win32,59.91252771,,,,,,,,,,,0.6007,1,,,,,,,,,,,,,,m,1,0.6007,,,,,,,,0.562962963,-0.417592593,0,0,0,,0,164,164,74,1,JUMPER,LB,old,m,./images/JUMPERLB.png,,,,,,,,,,,,,,,,,,,,,,,,,,,,,,,,,,,
,,,,,,,,,,,,,,,,,,31,2022-02-12_16h08.03.208,lexical_decision_task_DD_L4,2021.2.3,Win32,59.91252771,,,,,,,,,,,0.6077,1,,,,,,,,,,,,,,z,1,0.6077,,,,,,,,0.562962963,-0.417592593,0,0,0,,0,165,165,165,1,TROWN,C,old,z,./images/TROWN.png,,,,,,,,,,,,,,,,,,,,,,,,,,,,,,,,,,,
,,,,,,,,,,,,,,,,,,31,2022-02-12_16h08.03.208,lexical_decision_task_DD_L4,2021.2.3,Win32,59.91252771,,,,,,,,,,,0.5592,1,,,,,,,,,,,,,,m,1,0.5592,,,,,,,,0.562962963,-0.417592593,0,0,0,,0,166,166,45,1,MONKEY,C,old,m,./images/MONKEY.png,,,,,,,,,,,,,,,,,,,,,,,,,,,,,,,,,,,
,,,,,,,,,,,,,,,,,,31,2022-02-12_16h08.03.208,lexical_decision_task_DD_L4,2021.2.3,Win32,59.91252771,,,,,,,,,,,0.8712,1,,,,,,,,,,,,,,z,1,0.8712,,,,,,,,0.562962963,-0.417592593,0,0,0,,0,167,167,161,1,BLAPS,LB,old,z,./images/BLAPSLB.png,,,,,,,,,,,,,,,,,,,,,,,,,,,,,,,,,,,
,,,,,,,,,,,,,,,,,,31,2022-02-12_16h08.03.208,lexical_decision_task_DD_L4,2021.2.3,Win32,59.91252771,,,,,,,,,,,,,,,,,,,,,,,,,,,,,,,,,,,,,,,,,,,,,,,,How likely will it be that you will recognize the words presented clearly on a scale of 0 (not likely) to 100 (most likely)?,,,,,-0.007407407,-0.403703704,1,0,0,jol_adv,6,9.1386,0,0,0,0,1,,,,,,,,,,,,,,,,,,,,,
,,,,,,,,,,,,,,,,,,31,2022-02-12_16h08.03.208,lexical_decision_task_DD_L4,2021.2.3,Win32,59.91252771,,,,,,,,,,,,,,,,,,,,,,,,,,,,,,,,,,,,,,,,,,,,,,,,How likely will it be that you will recognize the words presented slighly blurred on a scale of 0 (not likely) to 100 (most likely)?,,,,,,,,,,,6,6.2531,0,1,1,1,1,,,,,,,,,,,,,,,,,,,,,
,,,,,,,,,,,,,,,,,,31,2022-02-12_16h08.03.208,lexical_decision_task_DD_L4,2021.2.3,Win32,59.91252771,,,,,,,,,,,,,,,,,,,,,,,,,,,,,,,,,,,,,,,,,,,,,,,,How likely will it be that you will recognize the words presented very blurred on a scale of 0 (not likely) to 100 (most likely)?,,,,,,,,,,,4,5.5669,0,2,2,2,1,,,,,,,,,,,,,,,,,,,,,
,0.019444444,-0.393518519,1,0,0,instr_done_button,,,,,,1,test,"In the next phase you will be presented with the words from the the first phase. Your job is to decide whether you remember seeing the word or not. If you remember seeing the word press ""old"" or type ""m"". If you do not remember seeing the word press ""new"" or type ""z"". Please press the space bar or click on continue to begin. ",,,,31,2022-02-12_16h08.03.208,lexical_decision_task_DD_L4,2021.2.3,Win32,59.91252771,,,,,,,,,,,,,,,,,,,,,,,,,,,,,,,,,,,,,,,,,,,,,,,,,,,,,,,,,,,,,,,,,,0,0,0,0,1,,,,,,,,,,,,,,,,
,0.028703704,-0.414814815,1,0,0,instr_done_button,,,,,,1,test,"In the next phase you will be presented with the words from the the first phase. Your job is to decide whether you remember seeing the word or not. If you remember seeing the word press ""old"" or type ""m"". If you do not remember seeing the word press ""new"" or type ""z"". Please press the space bar or click on continue to begin. ",,,,31,2022-02-12_16h08.03.208,lexical_decision_task_DD_L4,2021.2.3,Win32,59.91252771,,,,,,,,,,,,,,,,,,,,,,,,,,,,,,,,,,,,,,,,,,,,,,,,,,,,,,,,,,,,,,,,,,1,0,1,0,1,,,,,,,,,,,,,,,,
space,0.426851852,-0.235185185,0,0,0,,,,,,,1,test,"In the next phase you will be presented with the words from the the first phase. Your job is to decide whether you remember seeing the word or not. If you remember seeing the word press ""old"" or type ""m"". If you do not remember seeing the word press ""new"" or type ""z"". Please press the space bar or click on continue to begin. ",,,,31,2022-02-12_16h08.03.208,lexical_decision_task_DD_L4,2021.2.3,Win32,59.91252771,,,,,,,,,,,,,,,,,,,,,,,,,,,,,,,,,,,,,,,,,,,,,,,,,,,,,,,,,,,,,,,,,,2,0,2,0,1,1.3435,,,,,,,,,,,,,,,
,-0.010185185,-0.4,1,0,0,instr_done_button,,,,,,1,test,"In the next phase you will be presented with the words from the the first phase. Your job is to decide whether you remember seeing the word or not. If you remember seeing the word press ""old"" or type ""m"". If you do not remember seeing the word press ""new"" or type ""z"". Please press the space bar or click on continue to begin. ",,,,31,2022-02-12_16h08.03.208,lexical_decision_task_DD_L4,2021.2.3,Win32,59.91252771,,,,,,,,,,,,,,,,,,,,,,,,,,,,,,,,,,,,,,,,,,,,,,,,,,,,,,,,,,,,,,,,,,3,0,3,0,1,,,,,,,,,,,,,,,,
,-0.003703704,-0.373148148,1,0,0,instr_done_button,,,,,,1,test,"In the next phase you will be presented with the words from the the first phase. Your job is to decide whether you remember seeing the word or not. If you remember seeing the word press ""old"" or type ""m"". If you do not remember seeing the word press ""new"" or type ""z"". Please press the space bar or click on continue to begin. ",,,,31,2022-02-12_16h08.03.208,lexical_decision_task_DD_L4,2021.2.3,Win32,59.91252771,,,,,,,,,,,,,,,,,,,,,,,,,,,,,,,,,,,,,,,,,,,,,,,,,,,,,,,,,,,,,,,,,,4,0,4,0,1,,,,,,,,,,,,,,,,
,,,,,,,,,,,,,,,,,,31,2022-02-12_16h08.03.208,lexical_decision_task_DD_L4,2021.2.3,Win32,59.91252771,,,,,,,,,,,2.5749,1,,,,,,,,,,,,,,,,,,,,,,,,0.025925926,-0.347222222,0,0,0,,,,,,,DIVER,C,m,y,./images/DIVER.png,,,,,,,,,,,,,,,,,,,,,m,1,2.5749,,,,,,,,0,0,0,9,1
,,,,,,,,,,,,,,,,,,31,2022-02-12_16h08.03.208,lexical_decision_task_DD_L4,2021.2.3,Win32,59.91252771,,,,,,,,,,,1.5901,1,,,,,,,,,,,,,,,,,,,,,,,,0.025925926,-0.347222222,0,0,0,,,,,,,GREASE,C,z,y,./images/GREASE.png,,,,,,,,,,,,,,,,,,,,,z,1,1.5901,,,,,,,,0,1,1,99,1
,,,,,,,,,,,,,,,,,,31,2022-02-12_16h08.03.208,lexical_decision_task_DD_L4,2021.2.3,Win32,59.91252771,,,,,,,,,,,1.3255,1,,,,,,,,,,,,,,,,,,,,,,,,0.025925926,-0.347222222,0,0,0,,,,,,,WAGON,HB,m,y,./images/WAGONHB.png,,,,,,,,,,,,,,,,,,,,,m,1,1.3255,,,,,,,,0,2,2,7,1
,,,,,,,,,,,,,,,,,,31,2022-02-12_16h08.03.208,lexical_decision_task_DD_L4,2021.2.3,Win32,59.91252771,,,,,,,,,,,0.5994,1,,,,,,,,,,,,,,,,,,,,,,,,0.025925926,-0.347222222,0,0,0,,,,,,,JUMPER,LB,m,y,./images/JUMPERLB.png,,,,,,,,,,,,,,,,,,,,,m,1,0.5994,,,,,,,,0,3,3,74,1
,,,,,,,,,,,,,,,,,,31,2022-02-12_16h08.03.208,lexical_decision_task_DD_L4,2021.2.3,Win32,59.91252771,,,,,,,,,,,1.5188,1,,,,,,,,,,,,,,,,,,,,,,,,0.025925926,-0.347222222,0,0,0,,,,,,,MOTOR,HB,z,y,./images/MOTORHB.png,,,,,,,,,,,,,,,,,,,,,z,1,1.5188,,,,,,,,0,4,4,97,1
,,,,,,,,,,,,,,,,,,31,2022-02-12_16h08.03.208,lexical_decision_task_DD_L4,2021.2.3,Win32,59.91252771,,,,,,,,,,,0.9056,1,,,,,,,,,,,,,,,,,,,,,,,,0.025925926,-0.347222222,0,0,0,,,,,,,BANANA,HB,m,y,./images/BANANAHB.png,,,,,,,,,,,,,,,,,,,,,m,1,0.9056,,,,,,,,0,5,5,70,1
,,,,,,,,,,,,,,,,,,31,2022-02-12_16h08.03.208,lexical_decision_task_DD_L4,2021.2.3,Win32,59.91252771,,,,,,,,,,,2.0352,1,,,,,,,,,,,,,,,,,,,,,,,,0.025925926,-0.347222222,0,0,0,,,,,,,PLANK,HB,z,y,./images/PLANKHB.png,,,,,,,,,,,,,,,,,,,,,z,1,2.0352,,,,,,,,0,6,6,85,1
,,,,,,,,,,,,,,,,,,31,2022-02-12_16h08.03.208,lexical_decision_task_DD_L4,2021.2.3,Win32,59.91252771,,,,,,,,,,,0.8568,1,,,,,,,,,,,,,,,,,,,,,,,,0.025925926,-0.347222222,0,0,0,,,,,,,CRATER,C,m,y,./images/CRATER.png,,,,,,,,,,,,,,,,,,,,,m,1,0.8568,,,,,,,,0,7,7,3,1
,,,,,,,,,,,,,,,,,,31,2022-02-12_16h08.03.208,lexical_decision_task_DD_L4,2021.2.3,Win32,59.91252771,,,,,,,,,,,0.8773,1,,,,,,,,,,,,,,,,,,,,,,,,0.025925926,-0.347222222,0,0,0,,,,,,,WALNUT,C,m,y,./images/WALNUT.png,,,,,,,,,,,,,,,,,,,,,m,1,0.8773,,,,,,,,0,8,8,0,1
,,,,,,,,,,,,,,,,,,31,2022-02-12_16h08.03.208,lexical_decision_task_DD_L4,2021.2.3,Win32,59.91252771,,,,,,,,,,,1.0501,1,,,,,,,,,,,,,,,,,,,,,,,,0.025925926,-0.347222222,0,0,0,,,,,,,MUFFIN,HB,z,y,./images/MUFFINHB.png,,,,,,,,,,,,,,,,,,,,,z,1,1.0501,,,,,,,,0,9,9,139,1
,,,,,,,,,,,,,,,,,,31,2022-02-12_16h08.03.208,lexical_decision_task_DD_L4,2021.2.3,Win32,59.91252771,,,,,,,,,,,1.9671,0,,,,,,,,,,,,,,,,,,,,,,,,0.025925926,-0.347222222,0,0,0,,,,,,,SCREW,C,z,y,./images/SCREW.png,,,,,,,,,,,,,,,,,,,,,m,0,1.9671,,,,,,,,0,10,10,108,1
,,,,,,,,,,,,,,,,,,31,2022-02-12_16h08.03.208,lexical_decision_task_DD_L4,2021.2.3,Win32,59.91252771,,,,,,,,,,,1.1822,0,,,,,,,,,,,,,,,,,,,,,,,,0.025925926,-0.347222222,0,0,0,,,,,,,BUBBLE,LB,m,y,./images/BUBBLELB.png,,,,,,,,,,,,,,,,,,,,,z,0,1.1822,,,,,,,,0,11,11,71,1
,,,,,,,,,,,,,,,,,,31,2022-02-12_16h08.03.208,lexical_decision_task_DD_L4,2021.2.3,Win32,59.91252771,,,,,,,,,,,0.918,0,,,,,,,,,,,,,,,,,,,,,,,,0.025925926,-0.347222222,0,0,0,,,,,,,BUNNY,HB,m,y,./images/BUNNYHB.png,,,,,,,,,,,,,,,,,,,,,z,0,0.918,,,,,,,,0,12,12,13,1
,,,,,,,,,,,,,,,,,,31,2022-02-12_16h08.03.208,lexical_decision_task_DD_L4,2021.2.3,Win32,59.91252771,,,,,,,,,,,0.624,1,,,,,,,,,,,,,,,,,,,,,,,,0.025925926,-0.347222222,0,0,0,,,,,,,TOWEL,HB,m,y,./images/TOWELHB.png,,,,,,,,,,,,,,,,,,,,,m,1,0.624,,,,,,,,0,13,13,1,1
,,,,,,,,,,,,,,,,,,31,2022-02-12_16h08.03.208,lexical_decision_task_DD_L4,2021.2.3,Win32,59.91252771,,,,,,,,,,,0.91,1,,,,,,,,,,,,,,,,,,,,,,,,0.025925926,-0.347222222,0,0,0,,,,,,,TOMATO,C,z,y,./images/TOMATO.png,,,,,,,,,,,,,,,,,,,,,z,1,0.91,,,,,,,,0,14,14,84,1
,,,,,,,,,,,,,,,,,,31,2022-02-12_16h08.03.208,lexical_decision_task_DD_L4,2021.2.3,Win32,59.91252771,,,,,,,,,,,1.5053,1,,,,,,,,,,,,,,,,,,,,,,,,0.025925926,-0.347222222,0,0,0,,,,,,,BEARD,LB,z,y,./images/BEARDLB.png,,,,,,,,,,,,,,,,,,,,,z,1,1.5053,,,,,,,,0,15,15,86,1
,,,,,,,,,,,,,,,,,,31,2022-02-12_16h08.03.208,lexical_decision_task_DD_L4,2021.2.3,Win32,59.91252771,,,,,,,,,,,0.8355,1,,,,,,,,,,,,,,,,,,,,,,,,0.025925926,-0.347222222,0,0,0,,,,,,,STATUE,C,m,y,./images/STATUE.png,,,,,,,,,,,,,,,,,,,,,m,1,0.8355,,,,,,,,0,16,16,66,1
,,,,,,,,,,,,,,,,,,31,2022-02-12_16h08.03.208,lexical_decision_task_DD_L4,2021.2.3,Win32,59.91252771,,,,,,,,,,,2.1369,1,,,,,,,,,,,,,,,,,,,,,,,,0.025925926,-0.347222222,0,0,0,,,,,,,STORM,C,z,y,./images/STORM.png,,,,,,,,,,,,,,,,,,,,,z,1,2.1369,,,,,,,,0,17,17,114,1
,,,,,,,,,,,,,,,,,,31,2022-02-12_16h08.03.208,lexical_decision_task_DD_L4,2021.2.3,Win32,59.91252771,,,,,,,,,,,1.5303,1,,,,,,,,,,,,,,,,,,,,,,,,0.025925926,-0.347222222,0,0,0,,,,,,,TRIPOD,C,z,y,./images/TRIPOD.png,,,,,,,,,,,,,,,,,,,,,z,1,1.5303,,,,,,,,0,18,18,138,1
,,,,,,,,,,,,,,,,,,31,2022-02-12_16h08.03.208,lexical_decision_task_DD_L4,2021.2.3,Win32,59.91252771,,,,,,,,,,,0.613,1,,,,,,,,,,,,,,,,,,,,,,,,0.025925926,-0.347222222,0,0,0,,,,,,,ARTIST,HB,m,y,./images/ARTISTHB.png,,,,,,,,,,,,,,,,,,,,,m,1,0.613,,,,,,,,0,19,19,61,1
,,,,,,,,,,,,,,,,,,31,2022-02-12_16h08.03.208,lexical_decision_task_DD_L4,2021.2.3,Win32,59.91252771,,,,,,,,,,,0.8347,1,,,,,,,,,,,,,,,,,,,,,,,,0.025925926,-0.347222222,0,0,0,,,,,,,MALLET,LB,z,y,./images/MALLETLB.png,,,,,,,,,,,,,,,,,,,,,z,1,0.8347,,,,,,,,0,20,20,134,1
,,,,,,,,,,,,,,,,,,31,2022-02-12_16h08.03.208,lexical_decision_task_DD_L4,2021.2.3,Win32,59.91252771,,,,,,,,,,,0.7044,1,,,,,,,,,,,,,,,,,,,,,,,,0.025925926,-0.347222222,0,0,0,,,,,,,FALCON,HB,z,y,./images/FALCONHB.png,,,,,,,,,,,,,,,,,,,,,z,1,0.7044,,,,,,,,0,21,21,112,1
,,,,,,,,,,,,,,,,,,31,2022-02-12_16h08.03.208,lexical_decision_task_DD_L4,2021.2.3,Win32,59.91252771,,,,,,,,,,,0.6347,1,,,,,,,,,,,,,,,,,,,,,,,,0.025925926,-0.347222222,0,0,0,,,,,,,PASTA,LB,z,y,./images/PASTALB.png,,,,,,,,,,,,,,,,,,,,,z,1,0.6347,,,,,,,,0,22,22,89,1
,,,,,,,,,,,,,,,,,,31,2022-02-12_16h08.03.208,lexical_decision_task_DD_L4,2021.2.3,Win32,59.91252771,,,,,,,,,,,0.8882,1,,,,,,,,,,,,,,,,,,,,,,,,0.025925926,-0.347222222,0,0,0,,,,,,,SNACK,HB,z,y,./images/SNACKHB.png,,,,,,,,,,,,,,,,,,,,,z,1,0.8882,,,,,,,,0,23,23,157,1
,,,,,,,,,,,,,,,,,,31,2022-02-12_16h08.03.208,lexical_decision_task_DD_L4,2021.2.3,Win32,59.91252771,,,,,,,,,,,0.6837,1,,,,,,,,,,,,,,,,,,,,,,,,0.025925926,-0.347222222,0,0,0,,,,,,,STOOL,HB,m,y,./images/STOOLHB.png,,,,,,,,,,,,,,,,,,,,,m,1,0.6837,,,,,,,,0,24,24,43,1
,,,,,,,,,,,,,,,,,,31,2022-02-12_16h08.03.208,lexical_decision_task_DD_L4,2021.2.3,Win32,59.91252771,,,,,,,,,,,0.5998,1,,,,,,,,,,,,,,,,,,,,,,,,0.025925926,-0.347222222,0,0,0,,,,,,,SNAKE,HB,m,y,./images/SNAKEHB.png,,,,,,,,,,,,,,,,,,,,,m,1,0.5998,,,,,,,,0,25,25,40,1
,,,,,,,,,,,,,,,,,,31,2022-02-12_16h08.03.208,lexical_decision_task_DD_L4,2021.2.3,Win32,59.91252771,,,,,,,,,,,0.7659,1,,,,,,,,,,,,,,,,,,,,,,,,0.025925926,-0.347222222,0,0,0,,,,,,,SHELF,C,z,y,./images/SHELF.png,,,,,,,,,,,,,,,,,,,,,z,1,0.7659,,,,,,,,0,26,26,123,1
,,,,,,,,,,,,,,,,,,31,2022-02-12_16h08.03.208,lexical_decision_task_DD_L4,2021.2.3,Win32,59.91252771,,,,,,,,,,,1.1343,1,,,,,,,,,,,,,,,,,,,,,,,,0.025925926,-0.347222222,0,0,0,,,,,,,BURIAL,LB,z,y,./images/BURIALLB.png,,,,,,,,,,,,,,,,,,,,,z,1,1.1343,,,,,,,,0,27,27,143,1
,,,,,,,,,,,,,,,,,,31,2022-02-12_16h08.03.208,lexical_decision_task_DD_L4,2021.2.3,Win32,59.91252771,,,,,,,,,,,0.9515,1,,,,,,,,,,,,,,,,,,,,,,,,0.025925926,-0.347222222,0,0,0,,,,,,,PARCEL,C,m,y,./images/PARCEL.png,,,,,,,,,,,,,,,,,,,,,m,1,0.9515,,,,,,,,0,28,28,18,1
,,,,,,,,,,,,,,,,,,31,2022-02-12_16h08.03.208,lexical_decision_task_DD_L4,2021.2.3,Win32,59.91252771,,,,,,,,,,,0.5684,1,,,,,,,,,,,,,,,,,,,,,,,,0.025925926,-0.347222222,0,0,0,,,,,,,ARROW,C,m,y,./images/ARROW.png,,,,,,,,,,,,,,,,,,,,,m,1,0.5684,,,,,,,,0,29,29,69,1
,,,,,,,,,,,,,,,,,,31,2022-02-12_16h08.03.208,lexical_decision_task_DD_L4,2021.2.3,Win32,59.91252771,,,,,,,,,,,0.6251,1,,,,,,,,,,,,,,,,,,,,,,,,0.025925926,-0.347222222,0,0,0,,,,,,,CANOE,HB,m,y,./images/CANOEHB.png,,,,,,,,,,,,,,,,,,,,,m,1,0.6251,,,,,,,,0,30,30,58,1
,,,,,,,,,,,,,,,,,,31,2022-02-12_16h08.03.208,lexical_decision_task_DD_L4,2021.2.3,Win32,59.91252771,,,,,,,,,,,0.5584,1,,,,,,,,,,,,,,,,,,,,,,,,0.025925926,-0.347222222,0,0,0,,,,,,,POKER,HB,m,y,./images/POKERHB.png,,,,,,,,,,,,,,,,,,,,,m,1,0.5584,,,,,,,,0,31,31,67,1
,,,,,,,,,,,,,,,,,,31,2022-02-12_16h08.03.208,lexical_decision_task_DD_L4,2021.2.3,Win32,59.91252771,,,,,,,,,,,0.6231,1,,,,,,,,,,,,,,,,,,,,,,,,0.025925926,-0.347222222,0,0,0,,,,,,,PISTOL,LB,m,y,./images/PISTOLLB.png,,,,,,,,,,,,,,,,,,,,,m,1,0.6231,,,,,,,,0,32,32,29,1
,,,,,,,,,,,,,,,,,,31,2022-02-12_16h08.03.208,lexical_decision_task_DD_L4,2021.2.3,Win32,59.91252771,,,,,,,,,,,0.8211,1,,,,,,,,,,,,,,,,,,,,,,,,0.025925926,-0.347222222,0,0,0,,,,,,,MELON,HB,z,y,./images/MELONHB.png,,,,,,,,,,,,,,,,,,,,,z,1,0.8211,,,,,,,,0,33,33,106,1
,,,,,,,,,,,,,,,,,,31,2022-02-12_16h08.03.208,lexical_decision_task_DD_L4,2021.2.3,Win32,59.91252771,,,,,,,,,,,0.6271,1,,,,,,,,,,,,,,,,,,,,,,,,0.025925926,-0.347222222,0,0,0,,,,,,,COLLAR,C,m,y,./images/COLLAR.png,,,,,,,,,,,,,,,,,,,,,m,1,0.6271,,,,,,,,0,34,34,15,1
,,,,,,,,,,,,,,,,,,31,2022-02-12_16h08.03.208,lexical_decision_task_DD_L4,2021.2.3,Win32,59.91252771,,,,,,,,,,,0.609,1,,,,,,,,,,,,,,,,,,,,,,,,0.025925926,-0.347222222,0,0,0,,,,,,,BUTTER,C,m,y,./images/BUTTER.png,,,,,,,,,,,,,,,,,,,,,m,1,0.609,,,,,,,,0,35,35,27,1
,,,,,,,,,,,,,,,,,,31,2022-02-12_16h08.03.208,lexical_decision_task_DD_L4,2021.2.3,Win32,59.91252771,,,,,,,,,,,0.8405,1,,,,,,,,,,,,,,,,,,,,,,,,0.025925926,-0.347222222,0,0,0,,,,,,,PENCE,HB,z,y,./images/PENCEHB.png,,,,,,,,,,,,,,,,,,,,,z,1,0.8405,,,,,,,,0,36,36,100,1
,,,,,,,,,,,,,,,,,,31,2022-02-12_16h08.03.208,lexical_decision_task_DD_L4,2021.2.3,Win32,59.91252771,,,,,,,,,,,1.2372,0,,,,,,,,,,,,,,,,,,,,,,,,0.025925926,-0.347222222,0,0,0,,,,,,,PEBBLE,HB,m,y,./images/PEBBLEHB.png,,,,,,,,,,,,,,,,,,,,,z,0,1.2372,,,,,,,,0,37,37,82,1
,,,,,,,,,,,,,,,,,,31,2022-02-12_16h08.03.208,lexical_decision_task_DD_L4,2021.2.3,Win32,59.91252771,,,,,,,,,,,0.8261,1,,,,,,,,,,,,,,,,,,,,,,,,0.025925926,-0.347222222,0,0,0,,,,,,,LAGOON,LB,m,y,./images/LAGOONLB.png,,,,,,,,,,,,,,,,,,,,,m,1,0.8261,,,,,,,,0,38,38,47,1
,,,,,,,,,,,,,,,,,,31,2022-02-12_16h08.03.208,lexical_decision_task_DD_L4,2021.2.3,Win32,59.91252771,,,,,,,,,,,0.6642,1,,,,,,,,,,,,,,,,,,,,,,,,0.025925926,-0.347222222,0,0,0,,,,,,,CRUMB,LB,z,y,./images/CRUMBLB.png,,,,,,,,,,,,,,,,,,,,,z,1,0.6642,,,,,,,,0,39,39,113,1
,,,,,,,,,,,,,,,,,,31,2022-02-12_16h08.03.208,lexical_decision_task_DD_L4,2021.2.3,Win32,59.91252771,,,,,,,,,,,0.9251,1,,,,,,,,,,,,,,,,,,,,,,,,0.025925926,-0.347222222,0,0,0,,,,,,,WEASEL,LB,z,y,./images/WEASELLB.png,,,,,,,,,,,,,,,,,,,,,z,1,0.9251,,,,,,,,0,40,40,164,1
,,,,,,,,,,,,,,,,,,31,2022-02-12_16h08.03.208,lexical_decision_task_DD_L4,2021.2.3,Win32,59.91252771,,,,,,,,,,,1.2161,0,,,,,,,,,,,,,,,,,,,,,,,,0.025925926,-0.347222222,0,0,0,space,,,,,,CHERRY,C,m,y,./images/CHERRY.png,2.9338,,,,,,,,,,,,,,,,,,,,z,0,1.2161,,,,,,,,0,41,41,54,1
,,,,,,,,,,,,,,,,,,31,2022-02-12_16h08.03.208,lexical_decision_task_DD_L4,2021.2.3,Win32,59.91252771,,,,,,,,,,,0.9992,1,,,,,,,,,,,,,,,,,,,,,,,,0.025925926,-0.347222222,0,0,0,,,,,,,PAINT,HB,z,y,./images/PAINTHB.png,,,,,,,,,,,,,,,,,,,,,z,1,0.9992,,,,,,,,0,42,42,91,1
,,,,,,,,,,,,,,,,,,31,2022-02-12_16h08.03.208,lexical_decision_task_DD_L4,2021.2.3,Win32,59.91252771,,,,,,,,,,,0.9505,1,,,,,,,,,,,,,,,,,,,,,,,,0.025925926,-0.347222222,0,0,0,,,,,,,CHAIN,C,m,y,./images/CHAIN.png,,,,,,,,,,,,,,,,,,,,,m,1,0.9505,,,,,,,,0,43,43,42,1
,,,,,,,,,,,,,,,,,,31,2022-02-12_16h08.03.208,lexical_decision_task_DD_L4,2021.2.3,Win32,59.91252771,,,,,,,,,,,0.8789,0,,,,,,,,,,,,,,,,,,,,,,,,0.025925926,-0.347222222,0,0,0,,,,,,,JUNGLE,LB,z,y,./images/JUNGLELB.png,,,,,,,,,,,,,,,,,,,,,m,0,0.8789,,,,,,,,0,44,44,167,1
,,,,,,,,,,,,,,,,,,31,2022-02-12_16h08.03.208,lexical_decision_task_DD_L4,2021.2.3,Win32,59.91252771,,,,,,,,,,,1.0117,1,,,,,,,,,,,,,,,,,,,,,,,,0.025925926,-0.347222222,0,0,0,,,,,,,PEARL,HB,z,y,./images/PEARLHB.png,,,,,,,,,,,,,,,,,,,,,z,1,1.0117,,,,,,,,0,45,45,130,1
,,,,,,,,,,,,,,,,,,31,2022-02-12_16h08.03.208,lexical_decision_task_DD_L4,2021.2.3,Win32,59.91252771,,,,,,,,,,,0.6019,1,,,,,,,,,,,,,,,,,,,,,,,,0.025925926,-0.347222222,0,0,0,,,,,,,MAMMAL,LB,m,y,./images/MAMMALLB.png,,,,,,,,,,,,,,,,,,,,,m,1,0.6019,,,,,,,,0,46,46,62,1
,,,,,,,,,,,,,,,,,,31,2022-02-12_16h08.03.208,lexical_decision_task_DD_L4,2021.2.3,Win32,59.91252771,,,,,,,,,,,0.7445,1,,,,,,,,,,,,,,,,,,,,,,,,0.025925926,-0.347222222,0,0,0,,,,,,,ALLEY,HB,m,y,./images/ALLEYHB.png,,,,,,,,,,,,,,,,,,,,,m,1,0.7445,,,,,,,,0,47,47,55,1
,,,,,,,,,,,,,,,,,,31,2022-02-12_16h08.03.208,lexical_decision_task_DD_L4,2021.2.3,Win32,59.91252771,,,,,,,,,,,0.6898,1,,,,,,,,,,,,,,,,,,,,,,,,0.025925926,-0.347222222,0,0,0,,,,,,,URINE,HB,z,y,./images/URINEHB.png,,,,,,,,,,,,,,,,,,,,,z,1,0.6898,,,,,,,,0,48,48,154,1
,,,,,,,,,,,,,,,,,,31,2022-02-12_16h08.03.208,lexical_decision_task_DD_L4,2021.2.3,Win32,59.91252771,,,,,,,,,,,0.6933,1,,,,,,,,,,,,,,,,,,,,,,,,0.025925926,-0.347222222,0,0,0,,,,,,,FINGER,C,z,y,./images/FINGER.png,,,,,,,,,,,,,,,,,,,,,z,1,0.6933,,,,,,,,0,49,49,87,1
,,,,,,,,,,,,,,,,,,31,2022-02-12_16h08.03.208,lexical_decision_task_DD_L4,2021.2.3,Win32,59.91252771,,,,,,,,,,,0.8725,0,,,,,,,,,,,,,,,,,,,,,,,,0.025925926,-0.347222222,0,0,0,,,,,,,WHEEL,LB,m,y,./images/WHEELLB.png,,,,,,,,,,,,,,,,,,,,,z,0,0.8725,,,,,,,,0,50,50,77,1
,,,,,,,,,,,,,,,,,,31,2022-02-12_16h08.03.208,lexical_decision_task_DD_L4,2021.2.3,Win32,59.91252771,,,,,,,,,,,0.8452,1,,,,,,,,,,,,,,,,,,,,,,,,0.025925926,-0.347222222,0,0,0,,,,,,,SWING,HB,z,y,./images/SWINGHB.png,,,,,,,,,,,,,,,,,,,,,z,1,0.8452,,,,,,,,0,51,51,124,1
,,,,,,,,,,,,,,,,,,31,2022-02-12_16h08.03.208,lexical_decision_task_DD_L4,2021.2.3,Win32,59.91252771,,,,,,,,,,,0.7697,1,,,,,,,,,,,,,,,,,,,,,,,,0.025925926,-0.347222222,0,0,0,,,,,,,NOOSE,C,z,y,./images/NOOSE.png,,,,,,,,,,,,,,,,,,,,,z,1,0.7697,,,,,,,,0,52,52,156,1
,,,,,,,,,,,,,,,,,,31,2022-02-12_16h08.03.208,lexical_decision_task_DD_L4,2021.2.3,Win32,59.91252771,,,,,,,,,,,0.9698,1,,,,,,,,,,,,,,,,,,,,,,,,0.025925926,-0.347222222,0,0,0,,,,,,,SAILOR,HB,z,y,./images/SAILORHB.png,,,,,,,,,,,,,,,,,,,,,z,1,0.9698,,,,,,,,0,53,53,151,1
,,,,,,,,,,,,,,,,,,31,2022-02-12_16h08.03.208,lexical_decision_task_DD_L4,2021.2.3,Win32,59.91252771,,,,,,,,,,,0.8503,1,,,,,,,,,,,,,,,,,,,,,,,,0.025925926,-0.347222222,0,0,0,,,,,,,GLOVE,HB,m,y,./images/GLOVEHB.png,,,,,,,,,,,,,,,,,,,,,m,1,0.8503,,,,,,,,0,54,54,73,1
,,,,,,,,,,,,,,,,,,31,2022-02-12_16h08.03.208,lexical_decision_task_DD_L4,2021.2.3,Win32,59.91252771,,,,,,,,,,,0.7345,1,,,,,,,,,,,,,,,,,,,,,,,,0.025925926,-0.347222222,0,0,0,,,,,,,PLANET,LB,m,y,./images/PLANETLB.png,,,,,,,,,,,,,,,,,,,,,m,1,0.7345,,,,,,,,0,55,55,80,1
,,,,,,,,,,,,,,,,,,31,2022-02-12_16h08.03.208,lexical_decision_task_DD_L4,2021.2.3,Win32,59.91252771,,,,,,,,,,,0.5845,1,,,,,,,,,,,,,,,,,,,,,,,,0.025925926,-0.347222222,0,0,0,,,,,,,STEAK,HB,m,y,./images/STEAKHB.png,,,,,,,,,,,,,,,,,,,,,m,1,0.5845,,,,,,,,0,56,56,31,1
,,,,,,,,,,,,,,,,,,31,2022-02-12_16h08.03.208,lexical_decision_task_DD_L4,2021.2.3,Win32,59.91252771,,,,,,,,,,,0.7193,1,,,,,,,,,,,,,,,,,,,,,,,,0.025925926,-0.347222222,0,0,0,,,,,,,DOUGH,HB,z,y,./images/DOUGHHB.png,,,,,,,,,,,,,,,,,,,,,z,1,0.7193,,,,,,,,0,57,57,103,1
,,,,,,,,,,,,,,,,,,31,2022-02-12_16h08.03.208,lexical_decision_task_DD_L4,2021.2.3,Win32,59.91252771,,,,,,,,,,,0.7053,1,,,,,,,,,,,,,,,,,,,,,,,,0.025925926,-0.347222222,0,0,0,,,,,,,BERRY,LB,z,y,./images/BERRYLB.png,,,,,,,,,,,,,,,,,,,,,z,1,0.7053,,,,,,,,0,58,58,131,1
,,,,,,,,,,,,,,,,,,31,2022-02-12_16h08.03.208,lexical_decision_task_DD_L4,2021.2.3,Win32,59.91252771,,,,,,,,,,,0.6359,1,,,,,,,,,,,,,,,,,,,,,,,,0.025925926,-0.347222222,0,0,0,,,,,,,SAUCE,C,m,y,./images/SAUCE.png,,,,,,,,,,,,,,,,,,,,,m,1,0.6359,,,,,,,,0,59,59,51,1
,,,,,,,,,,,,,,,,,,31,2022-02-12_16h08.03.208,lexical_decision_task_DD_L4,2021.2.3,Win32,59.91252771,,,,,,,,,,,0.6413,1,,,,,,,,,,,,,,,,,,,,,,,,0.025925926,-0.347222222,0,0,0,,,,,,,MUSCLE,HB,z,y,./images/MUSCLEHB.png,,,,,,,,,,,,,,,,,,,,,z,1,0.6413,,,,,,,,0,60,60,88,1
,,,,,,,,,,,,,,,,,,31,2022-02-12_16h08.03.208,lexical_decision_task_DD_L4,2021.2.3,Win32,59.91252771,,,,,,,,,,,0.6862,1,,,,,,,,,,,,,,,,,,,,,,,,0.025925926,-0.347222222,0,0,0,,,,,,,DRUMS,HB,z,y,./images/DRUMSHB.png,,,,,,,,,,,,,,,,,,,,,z,1,0.6862,,,,,,,,0,61,61,133,1
,,,,,,,,,,,,,,,,,,31,2022-02-12_16h08.03.208,lexical_decision_task_DD_L4,2021.2.3,Win32,59.91252771,,,,,,,,,,,1.2028,1,,,,,,,,,,,,,,,,,,,,,,,,0.025925926,-0.347222222,0,0,0,,,,,,,JAGUAR,C,z,y,./images/JAGUAR.png,,,,,,,,,,,,,,,,,,,,,z,1,1.2028,,,,,,,,0,62,62,102,1
,,,,,,,,,,,,,,,,,,31,2022-02-12_16h08.03.208,lexical_decision_task_DD_L4,2021.2.3,Win32,59.91252771,,,,,,,,,,,0.6803,1,,,,,,,,,,,,,,,,,,,,,,,,0.025925926,-0.347222222,0,0,0,,,,,,,SAUNA,C,m,y,./images/SAUNA.png,,,,,,,,,,,,,,,,,,,,,m,1,0.6803,,,,,,,,0,63,63,33,1
,,,,,,,,,,,,,,,,,,31,2022-02-12_16h08.03.208,lexical_decision_task_DD_L4,2021.2.3,Win32,59.91252771,,,,,,,,,,,3.2204,1,,,,,,,,,,,,,,,,,,,,,,,,0.025925926,-0.347222222,0,0,0,,,,,,,FARMER,LB,z,y,./images/FARMERLB.png,,,,,,,,,,,,,,,,,,,,,z,1,3.2204,,,,,,,,0,64,64,149,1
,,,,,,,,,,,,,,,,,,31,2022-02-12_16h08.03.208,lexical_decision_task_DD_L4,2021.2.3,Win32,59.91252771,,,,,,,,,,,0.7626,1,,,,,,,,,,,,,,,,,,,,,,,,0.025925926,-0.347222222,0,0,0,,,,,,,LITTER,C,z,y,./images/LITTER.png,,,,,,,,,,,,,,,,,,,,,z,1,0.7626,,,,,,,,0,65,65,162,1
,,,,,,,,,,,,,,,,,,31,2022-02-12_16h08.03.208,lexical_decision_task_DD_L4,2021.2.3,Win32,59.91252771,,,,,,,,,,,0.8439,1,,,,,,,,,,,,,,,,,,,,,,,,0.025925926,-0.347222222,0,0,0,,,,,,,TWINS,C,z,y,./images/TWINS.png,,,,,,,,,,,,,,,,,,,,,z,1,0.8439,,,,,,,,0,66,66,144,1
,,,,,,,,,,,,,,,,,,31,2022-02-12_16h08.03.208,lexical_decision_task_DD_L4,2021.2.3,Win32,59.91252771,,,,,,,,,,,0.6486,1,,,,,,,,,,,,,,,,,,,,,,,,0.025925926,-0.347222222,0,0,0,,,,,,,FERRY,C,m,y,./images/FERRY.png,,,,,,,,,,,,,,,,,,,,,m,1,0.6486,,,,,,,,0,67,67,57,1
,,,,,,,,,,,,,,,,,,31,2022-02-12_16h08.03.208,lexical_decision_task_DD_L4,2021.2.3,Win32,59.91252771,,,,,,,,,,,0.742,1,,,,,,,,,,,,,,,,,,,,,,,,0.025925926,-0.347222222,0,0,0,,,,,,,POSTER,LB,m,y,./images/POSTERLB.png,,,,,,,,,,,,,,,,,,,,,m,1,0.742,,,,,,,,0,68,68,53,1
,,,,,,,,,,,,,,,,,,31,2022-02-12_16h08.03.208,lexical_decision_task_DD_L4,2021.2.3,Win32,59.91252771,,,,,,,,,,,0.6155,1,,,,,,,,,,,,,,,,,,,,,,,,0.025925926,-0.347222222,0,0,0,,,,,,,WRIST,HB,z,y,./images/WRISTHB.png,,,,,,,,,,,,,,,,,,,,,z,1,0.6155,,,,,,,,0,69,69,109,1
,,,,,,,,,,,,,,,,,,31,2022-02-12_16h08.03.208,lexical_decision_task_DD_L4,2021.2.3,Win32,59.91252771,,,,,,,,,,,0.59,1,,,,,,,,,,,,,,,,,,,,,,,,0.025925926,-0.347222222,0,0,0,,,,,,,LIZARD,LB,z,y,./images/LIZARDLB.png,,,,,,,,,,,,,,,,,,,,,z,1,0.59,,,,,,,,0,70,70,128,1
,,,,,,,,,,,,,,,,,,31,2022-02-12_16h08.03.208,lexical_decision_task_DD_L4,2021.2.3,Win32,59.91252771,,,,,,,,,,,0.557,1,,,,,,,,,,,,,,,,,,,,,,,,0.025925926,-0.347222222,0,0,0,,,,,,,KIDNEY,C,z,y,./images/KIDNEY.png,,,,,,,,,,,,,,,,,,,,,z,1,0.557,,,,,,,,0,71,71,105,1
,,,,,,,,,,,,,,,,,,31,2022-02-12_16h08.03.208,lexical_decision_task_DD_L4,2021.2.3,Win32,59.91252771,,,,,,,,,,,0.6627,1,,,,,,,,,,,,,,,,,,,,,,,,0.025925926,-0.347222222,0,0,0,,,,,,,SLOPE,C,m,y,./images/SLOPE.png,,,,,,,,,,,,,,,,,,,,,m,1,0.6627,,,,,,,,0,72,72,30,1
,,,,,,,,,,,,,,,,,,31,2022-02-12_16h08.03.208,lexical_decision_task_DD_L4,2021.2.3,Win32,59.91252771,,,,,,,,,,,0.5788,1,,,,,,,,,,,,,,,,,,,,,,,,0.025925926,-0.347222222,0,0,0,,,,,,,DONKEY,HB,m,y,./images/DONKEYHB.png,,,,,,,,,,,,,,,,,,,,,m,1,0.5788,,,,,,,,0,73,73,19,1
,,,,,,,,,,,,,,,,,,31,2022-02-12_16h08.03.208,lexical_decision_task_DD_L4,2021.2.3,Win32,59.91252771,,,,,,,,,,,0.7067,0,,,,,,,,,,,,,,,,,,,,,,,,0.025925926,-0.347222222,0,0,0,,,,,,,BASKET,LB,m,y,./images/BASKETLB.png,,,,,,,,,,,,,,,,,,,,,z,0,0.7067,,,,,,,,0,74,74,44,1
,,,,,,,,,,,,,,,,,,31,2022-02-12_16h08.03.208,lexical_decision_task_DD_L4,2021.2.3,Win32,59.91252771,,,,,,,,,,,0.6215,1,,,,,,,,,,,,,,,,,,,,,,,,0.025925926,-0.347222222,0,0,0,,,,,,,WHISKY,LB,m,y,./images/WHISKYLB.png,,,,,,,,,,,,,,,,,,,,,m,1,0.6215,,,,,,,,0,75,75,83,1
,,,,,,,,,,,,,,,,,,31,2022-02-12_16h08.03.208,lexical_decision_task_DD_L4,2021.2.3,Win32,59.91252771,,,,,,,,,,,0.8995,1,,,,,,,,,,,,,,,,,,,,,,,,0.025925926,-0.347222222,0,0,0,,,,,,,CANDLE,HB,z,y,./images/CANDLEHB.png,,,,,,,,,,,,,,,,,,,,,z,1,0.8995,,,,,,,,0,76,76,145,1
,,,,,,,,,,,,,,,,,,31,2022-02-12_16h08.03.208,lexical_decision_task_DD_L4,2021.2.3,Win32,59.91252771,,,,,,,,,,,0.7989,0,,,,,,,,,,,,,,,,,,,,,,,,0.025925926,-0.347222222,0,0,0,,,,,,,BRIDE,HB,m,y,./images/BRIDEHB.png,,,,,,,,,,,,,,,,,,,,,z,0,0.7989,,,,,,,,0,77,77,64,1
,,,,,,,,,,,,,,,,,,31,2022-02-12_16h08.03.208,lexical_decision_task_DD_L4,2021.2.3,Win32,59.91252771,,,,,,,,,,,0.5667,1,,,,,,,,,,,,,,,,,,,,,,,,0.025925926,-0.347222222,0,0,0,,,,,,,BELLY,HB,z,y,./images/BELLYHB.png,,,,,,,,,,,,,,,,,,,,,z,1,0.5667,,,,,,,,0,78,78,94,1
,,,,,,,,,,,,,,,,,,31,2022-02-12_16h08.03.208,lexical_decision_task_DD_L4,2021.2.3,Win32,59.91252771,,,,,,,,,,,0.5898,1,,,,,,,,,,,,,,,,,,,,,,,,0.025925926,-0.347222222,0,0,0,,,,,,,SKIING,LB,z,y,./images/SKIINGLB.png,,,,,,,,,,,,,,,,,,,,,z,1,0.5898,,,,,,,,0,79,79,101,1
,,,,,,,,,,,,,,,,,,31,2022-02-12_16h08.03.208,lexical_decision_task_DD_L4,2021.2.3,Win32,59.91252771,,,,,,,,,,,1.3175,0,,,,,,,,,,,,,,,,,,,,,,,,0.025925926,-0.347222222,0,0,0,,,,,,,COOKER,C,z,y,./images/COOKER.png,,,,,,,,,,,,,,,,,,,,,m,0,1.3175,,,,,,,,0,80,80,153,1
,,,,,,,,,,,,,,,,,,31,2022-02-12_16h08.03.208,lexical_decision_task_DD_L4,2021.2.3,Win32,59.91252771,,,,,,,,,,,0.6316,0,,,,,,,,,,,,,,,,,,,,,,,,0.025925926,-0.347222222,0,0,0,,,,,,,CLOTH,LB,m,y,./images/CLOTHLB.png,,,,,,,,,,,,,,,,,,,,,z,0,0.6316,,,,,,,,0,81,81,23,1
,,,,,,,,,,,,,,,,,,31,2022-02-12_16h08.03.208,lexical_decision_task_DD_L4,2021.2.3,Win32,59.91252771,,,,,,,,,,,0.5819,1,,,,,,,,,,,,,,,,,,,,,,,,0.025925926,-0.347222222,0,0,0,,,,,,,BANNER,HB,z,y,./images/BANNERHB.png,,,,,,,,,,,,,,,,,,,,,z,1,0.5819,,,,,,,,0,82,82,136,1
,,,,,,,,,,,,,,,,,,31,2022-02-12_16h08.03.208,lexical_decision_task_DD_L4,2021.2.3,Win32,59.91252771,,,,,,,,,,,0.6294,1,,,,,,,,,,,,,,,,,,,,,,,,0.025925926,-0.347222222,0,0,0,space,,,,,,BOXER,HB,m,y,./images/BOXERHB.png,1.0682,,,,,,,,,,,,,,,,,,,,m,1,0.6294,,,,,,,,0,83,83,4,1
,,,,,,,,,,,,,,,,,,31,2022-02-12_16h08.03.208,lexical_decision_task_DD_L4,2021.2.3,Win32,59.91252771,,,,,,,,,,,0.6395,1,,,,,,,,,,,,,,,,,,,,,,,,0.025925926,-0.347222222,0,0,0,,,,,,,LLAMA,LB,m,y,./images/LLAMALB.png,,,,,,,,,,,,,,,,,,,,,m,1,0.6395,,,,,,,,0,84,84,35,1
,,,,,,,,,,,,,,,,,,31,2022-02-12_16h08.03.208,lexical_decision_task_DD_L4,2021.2.3,Win32,59.91252771,,,,,,,,,,,2.1334,0,,,,,,,,,,,,,,,,,,,,,,,,0.025925926,-0.347222222,0,0,0,,,,,,,HEATER,LB,m,y,./images/HEATERLB.png,,,,,,,,,,,,,,,,,,,,,z,0,2.1334,,,,,,,,0,85,85,56,1
,,,,,,,,,,,,,,,,,,31,2022-02-12_16h08.03.208,lexical_decision_task_DD_L4,2021.2.3,Win32,59.91252771,,,,,,,,,,,0.6942,1,,,,,,,,,,,,,,,,,,,,,,,,0.025925926,-0.347222222,0,0,0,,,,,,,QUILL,HB,z,y,./images/QUILLHB.png,,,,,,,,,,,,,,,,,,,,,z,1,0.6942,,,,,,,,0,86,86,115,1
,,,,,,,,,,,,,,,,,,31,2022-02-12_16h08.03.208,lexical_decision_task_DD_L4,2021.2.3,Win32,59.91252771,,,,,,,,,,,0.5775,1,,,,,,,,,,,,,,,,,,,,,,,,0.025925926,-0.347222222,0,0,0,,,,,,,ATTIC,C,z,y,./images/ATTIC.png,,,,,,,,,,,,,,,,,,,,,z,1,0.5775,,,,,,,,0,87,87,111,1
,,,,,,,,,,,,,,,,,,31,2022-02-12_16h08.03.208,lexical_decision_task_DD_L4,2021.2.3,Win32,59.91252771,,,,,,,,,,,0.6823,1,,,,,,,,,,,,,,,,,,,,,,,,0.025925926,-0.347222222,0,0,0,,,,,,,STAIN,C,m,y,./images/STAIN.png,,,,,,,,,,,,,,,,,,,,,m,1,0.6823,,,,,,,,0,88,88,6,1
,,,,,,,,,,,,,,,,,,31,2022-02-12_16h08.03.208,lexical_decision_task_DD_L4,2021.2.3,Win32,59.91252771,,,,,,,,,,,0.6695,1,,,,,,,,,,,,,,,,,,,,,,,,0.025925926,-0.347222222,0,0,0,,,,,,,CRADLE,LB,z,y,./images/CRADLELB.png,,,,,,,,,,,,,,,,,,,,,z,1,0.6695,,,,,,,,0,89,89,104,1
,,,,,,,,,,,,,,,,,,31,2022-02-12_16h08.03.208,lexical_decision_task_DD_L4,2021.2.3,Win32,59.91252771,,,,,,,,,,,0.7374,1,,,,,,,,,,,,,,,,,,,,,,,,0.025925926,-0.347222222,0,0,0,,,,,,,DRILL,C,m,y,./images/DRILL.png,,,,,,,,,,,,,,,,,,,,,m,1,0.7374,,,,,,,,0,90,90,81,1
,,,,,,,,,,,,,,,,,,31,2022-02-12_16h08.03.208,lexical_decision_task_DD_L4,2021.2.3,Win32,59.91252771,,,,,,,,,,,1.3389,1,,,,,,,,,,,,,,,,,,,,,,,,0.025925926,-0.347222222,0,0,0,,,,,,,CRUST,HB,z,y,./images/CRUSTHB.png,,,,,,,,,,,,,,,,,,,,,z,1,1.3389,,,,,,,,0,91,91,163,1
,,,,,,,,,,,,,,,,,,31,2022-02-12_16h08.03.208,lexical_decision_task_DD_L4,2021.2.3,Win32,59.91252771,,,,,,,,,,,0.8442,1,,,,,,,,,,,,,,,,,,,,,,,,0.025925926,-0.347222222,0,0,0,,,,,,,MOSQUE,HB,z,y,./images/MOSQUEHB.png,,,,,,,,,,,,,,,,,,,,,z,1,0.8442,,,,,,,,0,92,92,127,1
,,,,,,,,,,,,,,,,,,31,2022-02-12_16h08.03.208,lexical_decision_task_DD_L4,2021.2.3,Win32,59.91252771,,,,,,,,,,,0.5781,1,,,,,,,,,,,,,,,,,,,,,,,,0.025925926,-0.347222222,0,0,0,,,,,,,BIRTH,HB,z,y,./images/BIRTHHB.png,,,,,,,,,,,,,,,,,,,,,z,1,0.5781,,,,,,,,0,93,93,121,1
,,,,,,,,,,,,,,,,,,31,2022-02-12_16h08.03.208,lexical_decision_task_DD_L4,2021.2.3,Win32,59.91252771,,,,,,,,,,,0.8653,1,,,,,,,,,,,,,,,,,,,,,,,,0.025925926,-0.347222222,0,0,0,,,,,,,JELLY,HB,z,y,./images/JELLYHB.png,,,,,,,,,,,,,,,,,,,,,z,1,0.8653,,,,,,,,0,94,94,148,1
,,,,,,,,,,,,,,,,,,31,2022-02-12_16h08.03.208,lexical_decision_task_DD_L4,2021.2.3,Win32,59.91252771,,,,,,,,,,,0.6862,1,,,,,,,,,,,,,,,,,,,,,,,,0.025925926,-0.347222222,0,0,0,,,,,,,SUNSET,HB,z,y,./images/SUNSETHB.png,,,,,,,,,,,,,,,,,,,,,z,1,0.6862,,,,,,,,0,95,95,166,1
,,,,,,,,,,,,,,,,,,31,2022-02-12_16h08.03.208,lexical_decision_task_DD_L4,2021.2.3,Win32,59.91252771,,,,,,,,,,,1.1133,1,,,,,,,,,,,,,,,,,,,,,,,,0.025925926,-0.347222222,0,0,0,,,,,,,SPINE,LB,m,y,./images/SPINELB.png,,,,,,,,,,,,,,,,,,,,,m,1,1.1133,,,,,,,,0,96,96,65,1
,,,,,,,,,,,,,,,,,,31,2022-02-12_16h08.03.208,lexical_decision_task_DD_L4,2021.2.3,Win32,59.91252771,,,,,,,,,,,0.5804,1,,,,,,,,,,,,,,,,,,,,,,,,0.025925926,-0.347222222,0,0,0,,,,,,,FOLDER,C,z,y,./images/FOLDER.png,,,,,,,,,,,,,,,,,,,,,z,1,0.5804,,,,,,,,0,97,97,126,1
,,,,,,,,,,,,,,,,,,31,2022-02-12_16h08.03.208,lexical_decision_task_DD_L4,2021.2.3,Win32,59.91252771,,,,,,,,,,,0.7249,1,,,,,,,,,,,,,,,,,,,,,,,,0.025925926,-0.347222222,0,0,0,,,,,,,CLIFF,LB,m,y,./images/CLIFFLB.png,,,,,,,,,,,,,,,,,,,,,m,1,0.7249,,,,,,,,0,98,98,8,1
,,,,,,,,,,,,,,,,,,31,2022-02-12_16h08.03.208,lexical_decision_task_DD_L4,2021.2.3,Win32,59.91252771,,,,,,,,,,,1.3668,0,,,,,,,,,,,,,,,,,,,,,,,,0.025925926,-0.347222222,0,0,0,,,,,,,BABOON,HB,z,y,./images/BABOONHB.png,,,,,,,,,,,,,,,,,,,,,m,0,1.3668,,,,,,,,0,99,99,142,1
,,,,,,,,,,,,,,,,,,31,2022-02-12_16h08.03.208,lexical_decision_task_DD_L4,2021.2.3,Win32,59.91252771,,,,,,,,,,,0.6781,1,,,,,,,,,,,,,,,,,,,,,,,,0.025925926,-0.347222222,0,0,0,,,,,,,DANCER,C,m,y,./images/DANCER.png,,,,,,,,,,,,,,,,,,,,,m,1,0.6781,,,,,,,,0,100,100,21,1
,,,,,,,,,,,,,,,,,,31,2022-02-12_16h08.03.208,lexical_decision_task_DD_L4,2021.2.3,Win32,59.91252771,,,,,,,,,,,0.8823,1,,,,,,,,,,,,,,,,,,,,,,,,0.025925926,-0.347222222,0,0,0,,,,,,,THROAT,C,z,y,./images/THROAT.png,,,,,,,,,,,,,,,,,,,,,z,1,0.8823,,,,,,,,0,101,101,120,1
,,,,,,,,,,,,,,,,,,31,2022-02-12_16h08.03.208,lexical_decision_task_DD_L4,2021.2.3,Win32,59.91252771,,,,,,,,,,,0.726,1,,,,,,,,,,,,,,,,,,,,,,,,0.025925926,-0.347222222,0,0,0,,,,,,,RAZOR,HB,m,y,./images/RAZORHB.png,,,,,,,,,,,,,,,,,,,,,m,1,0.726,,,,,,,,0,102,102,34,1
,,,,,,,,,,,,,,,,,,31,2022-02-12_16h08.03.208,lexical_decision_task_DD_L4,2021.2.3,Win32,59.91252771,,,,,,,,,,,1.0248,1,,,,,,,,,,,,,,,,,,,,,,,,0.025925926,-0.347222222,0,0,0,,,,,,,PACKET,LB,z,y,./images/PACKETLB.png,,,,,,,,,,,,,,,,,,,,,z,1,1.0248,,,,,,,,0,103,103,140,1
,,,,,,,,,,,,,,,,,,31,2022-02-12_16h08.03.208,lexical_decision_task_DD_L4,2021.2.3,Win32,59.91252771,,,,,,,,,,,0.8619,1,,,,,,,,,,,,,,,,,,,,,,,,0.025925926,-0.347222222,0,0,0,,,,,,,HOCKEY,LB,m,y,./images/HOCKEYLB.png,,,,,,,,,,,,,,,,,,,,,m,1,0.8619,,,,,,,,0,104,104,32,1
,,,,,,,,,,,,,,,,,,31,2022-02-12_16h08.03.208,lexical_decision_task_DD_L4,2021.2.3,Win32,59.91252771,,,,,,,,,,,0.7709,0,,,,,,,,,,,,,,,,,,,,,,,,0.025925926,-0.347222222,0,0,0,,,,,,,CARPET,LB,z,y,./images/CARPETLB.png,,,,,,,,,,,,,,,,,,,,,m,0,0.7709,,,,,,,,0,105,105,137,1
,,,,,,,,,,,,,,,,,,31,2022-02-12_16h08.03.208,lexical_decision_task_DD_L4,2021.2.3,Win32,59.91252771,,,,,,,,,,,0.7069,1,,,,,,,,,,,,,,,,,,,,,,,,0.025925926,-0.347222222,0,0,0,,,,,,,BISHOP,HB,m,y,./images/BISHOPHB.png,,,,,,,,,,,,,,,,,,,,,m,1,0.7069,,,,,,,,0,106,106,49,1
,,,,,,,,,,,,,,,,,,31,2022-02-12_16h08.03.208,lexical_decision_task_DD_L4,2021.2.3,Win32,59.91252771,,,,,,,,,,,0.6217,1,,,,,,,,,,,,,,,,,,,,,,,,0.025925926,-0.347222222,0,0,0,,,,,,,ENGINE,LB,m,y,./images/ENGINELB.png,,,,,,,,,,,,,,,,,,,,,m,1,0.6217,,,,,,,,0,107,107,38,1
,,,,,,,,,,,,,,,,,,31,2022-02-12_16h08.03.208,lexical_decision_task_DD_L4,2021.2.3,Win32,59.91252771,,,,,,,,,,,0.7479,0,,,,,,,,,,,,,,,,,,,,,,,,0.025925926,-0.347222222,0,0,0,,,,,,,GRAPE,HB,m,y,./images/GRAPEHB.png,,,,,,,,,,,,,,,,,,,,,z,0,0.7479,,,,,,,,0,108,108,16,1
,,,,,,,,,,,,,,,,,,31,2022-02-12_16h08.03.208,lexical_decision_task_DD_L4,2021.2.3,Win32,59.91252771,,,,,,,,,,,1.7341,0,,,,,,,,,,,,,,,,,,,,,,,,0.025925926,-0.347222222,0,0,0,,,,,,,MONKEY,C,m,y,./images/MONKEY.png,,,,,,,,,,,,,,,,,,,,,z,0,1.7341,,,,,,,,0,109,109,45,1
,,,,,,,,,,,,,,,,,,31,2022-02-12_16h08.03.208,lexical_decision_task_DD_L4,2021.2.3,Win32,59.91252771,,,,,,,,,,,0.8943,1,,,,,,,,,,,,,,,,,,,,,,,,0.025925926,-0.347222222,0,0,0,,,,,,,BARREL,LB,z,y,./images/BARRELLB.png,,,,,,,,,,,,,,,,,,,,,z,1,0.8943,,,,,,,,0,110,110,116,1
,,,,,,,,,,,,,,,,,,31,2022-02-12_16h08.03.208,lexical_decision_task_DD_L4,2021.2.3,Win32,59.91252771,,,,,,,,,,,0.6017,1,,,,,,,,,,,,,,,,,,,,,,,,0.025925926,-0.347222222,0,0,0,,,,,,,PIMPLE,LB,z,y,./images/PIMPLELB.png,,,,,,,,,,,,,,,,,,,,,z,1,0.6017,,,,,,,,0,111,111,155,1
,,,,,,,,,,,,,,,,,,31,2022-02-12_16h08.03.208,lexical_decision_task_DD_L4,2021.2.3,Win32,59.91252771,,,,,,,,,,,0.6643,1,,,,,,,,,,,,,,,,,,,,,,,,0.025925926,-0.347222222,0,0,0,,,,,,,MEDAL,LB,m,y,./images/MEDALLB.png,,,,,,,,,,,,,,,,,,,,,m,1,0.6643,,,,,,,,0,112,112,11,1
,,,,,,,,,,,,,,,,,,31,2022-02-12_16h08.03.208,lexical_decision_task_DD_L4,2021.2.3,Win32,59.91252771,,,,,,,,,,,0.789,1,,,,,,,,,,,,,,,,,,,,,,,,0.025925926,-0.347222222,0,0,0,,,,,,,MOOSE,C,z,y,./images/MOOSE.png,,,,,,,,,,,,,,,,,,,,,z,1,0.789,,,,,,,,0,113,113,141,1
,,,,,,,,,,,,,,,,,,31,2022-02-12_16h08.03.208,lexical_decision_task_DD_L4,2021.2.3,Win32,59.91252771,,,,,,,,,,,0.5963,1,,,,,,,,,,,,,,,,,,,,,,,,0.025925926,-0.347222222,0,0,0,,,,,,,PEACH,LB,z,y,./images/PEACHLB.png,,,,,,,,,,,,,,,,,,,,,z,1,0.5963,,,,,,,,0,114,114,119,1
,,,,,,,,,,,,,,,,,,31,2022-02-12_16h08.03.208,lexical_decision_task_DD_L4,2021.2.3,Win32,59.91252771,,,,,,,,,,,0.5565,1,,,,,,,,,,,,,,,,,,,,,,,,0.025925926,-0.347222222,0,0,0,,,,,,,RHINO,C,z,y,./images/RHINO.png,,,,,,,,,,,,,,,,,,,,,z,1,0.5565,,,,,,,,0,115,115,93,1
,,,,,,,,,,,,,,,,,,31,2022-02-12_16h08.03.208,lexical_decision_task_DD_L4,2021.2.3,Win32,59.91252771,,,,,,,,,,,0.9172,0,,,,,,,,,,,,,,,,,,,,,,,,0.025925926,-0.347222222,0,0,0,,,,,,,BAKER,C,m,y,./images/BAKER.png,,,,,,,,,,,,,,,,,,,,,z,0,0.9172,,,,,,,,0,116,116,63,1
,,,,,,,,,,,,,,,,,,31,2022-02-12_16h08.03.208,lexical_decision_task_DD_L4,2021.2.3,Win32,59.91252771,,,,,,,,,,,0.6704,1,,,,,,,,,,,,,,,,,,,,,,,,0.025925926,-0.347222222,0,0,0,,,,,,,CURRY,C,m,y,./images/CURRY.png,,,,,,,,,,,,,,,,,,,,,m,1,0.6704,,,,,,,,0,117,117,60,1
,,,,,,,,,,,,,,,,,,31,2022-02-12_16h08.03.208,lexical_decision_task_DD_L4,2021.2.3,Win32,59.91252771,,,,,,,,,,,0.6265,1,,,,,,,,,,,,,,,,,,,,,,,,0.025925926,-0.347222222,0,0,0,,,,,,,RULER,HB,m,y,./images/RULERHB.png,,,,,,,,,,,,,,,,,,,,,m,1,0.6265,,,,,,,,0,118,118,79,1
,,,,,,,,,,,,,,,,,,31,2022-02-12_16h08.03.208,lexical_decision_task_DD_L4,2021.2.3,Win32,59.91252771,,,,,,,,,,,0.7125,1,,,,,,,,,,,,,,,,,,,,,,,,0.025925926,-0.347222222,0,0,0,,,,,,,BOILER,C,m,y,./images/BOILER.png,,,,,,,,,,,,,,,,,,,,,m,1,0.7125,,,,,,,,0,119,119,36,1
,,,,,,,,,,,,,,,,,,31,2022-02-12_16h08.03.208,lexical_decision_task_DD_L4,2021.2.3,Win32,59.91252771,,,,,,,,,,,0.723,1,,,,,,,,,,,,,,,,,,,,,,,,0.025925926,-0.347222222,0,0,0,,,,,,,GRANNY,LB,m,y,./images/GRANNYLB.png,,,,,,,,,,,,,,,,,,,,,m,1,0.723,,,,,,,,0,120,120,20,1
,,,,,,,,,,,,,,,,,,31,2022-02-12_16h08.03.208,lexical_decision_task_DD_L4,2021.2.3,Win32,59.91252771,,,,,,,,,,,0.566,1,,,,,,,,,,,,,,,,,,,,,,,,0.025925926,-0.347222222,0,0,0,,,,,,,FENCE,LB,m,y,./images/FENCELB.png,,,,,,,,,,,,,,,,,,,,,m,1,0.566,,,,,,,,0,121,121,14,1
,,,,,,,,,,,,,,,,,,31,2022-02-12_16h08.03.208,lexical_decision_task_DD_L4,2021.2.3,Win32,59.91252771,,,,,,,,,,,0.5978,1,,,,,,,,,,,,,,,,,,,,,,,,0.025925926,-0.347222222,0,0,0,,,,,,,DESERT,HB,m,y,./images/DESERTHB.png,,,,,,,,,,,,,,,,,,,,,m,1,0.5978,,,,,,,,0,122,122,52,1
,,,,,,,,,,,,,,,,,,31,2022-02-12_16h08.03.208,lexical_decision_task_DD_L4,2021.2.3,Win32,59.91252771,,,,,,,,,,,0.7569,1,,,,,,,,,,,,,,,,,,,,,,,,0.025925926,-0.347222222,0,0,0,,,,,,,SQUARE,C,z,y,./images/SQUARE.png,,,,,,,,,,,,,,,,,,,,,z,1,0.7569,,,,,,,,0,123,123,90,1
,,,,,,,,,,,,,,,,,,31,2022-02-12_16h08.03.208,lexical_decision_task_DD_L4,2021.2.3,Win32,59.91252771,,,,,,,,,,,0.7897,0,,,,,,,,,,,,,,,,,,,,,,,,0.025925926,-0.347222222,0,0,0,,,,,,,MUMMY,HB,m,y,./images/MUMMYHB.png,,,,,,,,,,,,,,,,,,,,,z,0,0.7897,,,,,,,,0,124,124,46,1
,,,,,,,,,,,,,,,,,,31,2022-02-12_16h08.03.208,lexical_decision_task_DD_L4,2021.2.3,Win32,59.91252771,,,,,,,,,,,0.8052,0,,,,,,,,,,,,,,,,,,,,,,,,0.025925926,-0.347222222,0,0,0,space,,,,,,BAMBOO,LB,m,y,./images/BAMBOOLB.png,0.932,,,,,,,,,,,,,,,,,,,,z,0,0.8052,,,,,,,,0,125,125,5,1
,,,,,,,,,,,,,,,,,,31,2022-02-12_16h08.03.208,lexical_decision_task_DD_L4,2021.2.3,Win32,59.91252771,,,,,,,,,,,0.7586,1,,,,,,,,,,,,,,,,,,,,,,,,0.025925926,-0.347222222,0,0,0,,,,,,,HAMMER,C,m,y,./images/HAMMER.png,,,,,,,,,,,,,,,,,,,,,m,1,0.7586,,,,,,,,0,126,126,75,1
,,,,,,,,,,,,,,,,,,31,2022-02-12_16h08.03.208,lexical_decision_task_DD_L4,2021.2.3,Win32,59.91252771,,,,,,,,,,,0.5341,1,,,,,,,,,,,,,,,,,,,,,,,,0.025925926,-0.347222222,0,0,0,,,,,,,ONION,C,z,y,./images/ONION.png,,,,,,,,,,,,,,,,,,,,,z,1,0.5341,,,,,,,,0,127,127,135,1
,,,,,,,,,,,,,,,,,,31,2022-02-12_16h08.03.208,lexical_decision_task_DD_L4,2021.2.3,Win32,59.91252771,,,,,,,,,,,0.6078,1,,,,,,,,,,,,,,,,,,,,,,,,0.025925926,-0.347222222,0,0,0,,,,,,,BONNET,LB,z,y,./images/BONNETLB.png,,,,,,,,,,,,,,,,,,,,,z,1,0.6078,,,,,,,,0,128,128,95,1
,,,,,,,,,,,,,,,,,,31,2022-02-12_16h08.03.208,lexical_decision_task_DD_L4,2021.2.3,Win32,59.91252771,,,,,,,,,,,0.8702,1,,,,,,,,,,,,,,,,,,,,,,,,0.025925926,-0.347222222,0,0,0,,,,,,,CLOWN,HB,m,y,./images/CLOWNHB.png,,,,,,,,,,,,,,,,,,,,,m,1,0.8702,,,,,,,,0,129,129,22,1
,,,,,,,,,,,,,,,,,,31,2022-02-12_16h08.03.208,lexical_decision_task_DD_L4,2021.2.3,Win32,59.91252771,,,,,,,,,,,0.6669,1,,,,,,,,,,,,,,,,,,,,,,,,0.025925926,-0.347222222,0,0,0,,,,,,,CANDY,C,m,y,./images/CANDY.png,,,,,,,,,,,,,,,,,,,,,m,1,0.6669,,,,,,,,0,130,130,39,1
,,,,,,,,,,,,,,,,,,31,2022-02-12_16h08.03.208,lexical_decision_task_DD_L4,2021.2.3,Win32,59.91252771,,,,,,,,,,,2.0634,0,,,,,,,,,,,,,,,,,,,,,,,,0.025925926,-0.347222222,0,0,0,,,,,,,CLOUD,LB,m,y,./images/CLOUDLB.png,,,,,,,,,,,,,,,,,,,,,z,0,2.0634,,,,,,,,0,131,131,26,1
,,,,,,,,,,,,,,,,,,31,2022-02-12_16h08.03.208,lexical_decision_task_DD_L4,2021.2.3,Win32,59.91252771,,,,,,,,,,,0.747,1,,,,,,,,,,,,,,,,,,,,,,,,0.025925926,-0.347222222,0,0,0,,,,,,,BLOKE,C,m,y,./images/BLOKE.png,,,,,,,,,,,,,,,,,,,,,m,1,0.747,,,,,,,,0,132,132,12,1
,,,,,,,,,,,,,,,,,,31,2022-02-12_16h08.03.208,lexical_decision_task_DD_L4,2021.2.3,Win32,59.91252771,,,,,,,,,,,0.5806,1,,,,,,,,,,,,,,,,,,,,,,,,0.025925926,-0.347222222,0,0,0,,,,,,,COUCH,LB,z,y,./images/COUCHLB.png,,,,,,,,,,,,,,,,,,,,,z,1,0.5806,,,,,,,,0,133,133,161,1
,,,,,,,,,,,,,,,,,,31,2022-02-12_16h08.03.208,lexical_decision_task_DD_L4,2021.2.3,Win32,59.91252771,,,,,,,,,,,0.7566,1,,,,,,,,,,,,,,,,,,,,,,,,0.025925926,-0.347222222,0,0,0,,,,,,,SWEAT,C,z,y,./images/SWEAT.png,,,,,,,,,,,,,,,,,,,,,z,1,0.7566,,,,,,,,0,134,134,150,1
,,,,,,,,,,,,,,,,,,31,2022-02-12_16h08.03.208,lexical_decision_task_DD_L4,2021.2.3,Win32,59.91252771,,,,,,,,,,,1.1729,1,,,,,,,,,,,,,,,,,,,,,,,,0.025925926,-0.347222222,0,0,0,,,,,,,PURSE,LB,z,y,./images/PURSELB.png,,,,,,,,,,,,,,,,,,,,,z,1,1.1729,,,,,,,,0,135,135,146,1
,,,,,,,,,,,,,,,,,,31,2022-02-12_16h08.03.208,lexical_decision_task_DD_L4,2021.2.3,Win32,59.91252771,,,,,,,,,,,0.6858,0,,,,,,,,,,,,,,,,,,,,,,,,0.025925926,-0.347222222,0,0,0,,,,,,,VALLEY,LB,m,y,./images/VALLEYLB.png,,,,,,,,,,,,,,,,,,,,,z,0,0.6858,,,,,,,,0,136,136,68,1
,,,,,,,,,,,,,,,,,,31,2022-02-12_16h08.03.208,lexical_decision_task_DD_L4,2021.2.3,Win32,59.91252771,,,,,,,,,,,0.5846,1,,,,,,,,,,,,,,,,,,,,,,,,0.025925926,-0.347222222,0,0,0,,,,,,,TORCH,LB,z,y,./images/TORCHLB.png,,,,,,,,,,,,,,,,,,,,,z,1,0.5846,,,,,,,,0,137,137,152,1
,,,,,,,,,,,,,,,,,,31,2022-02-12_16h08.03.208,lexical_decision_task_DD_L4,2021.2.3,Win32,59.91252771,,,,,,,,,,,0.8239,1,,,,,,,,,,,,,,,,,,,,,,,,0.025925926,-0.347222222,0,0,0,,,,,,,STREAM,LB,m,y,./images/STREAMLB.png,,,,,,,,,,,,,,,,,,,,,m,1,0.8239,,,,,,,,0,138,138,41,1
,,,,,,,,,,,,,,,,,,31,2022-02-12_16h08.03.208,lexical_decision_task_DD_L4,2021.2.3,Win32,59.91252771,,,,,,,,,,,0.5898,1,,,,,,,,,,,,,,,,,,,,,,,,0.025925926,-0.347222222,0,0,0,,,,,,,STOVE,LB,m,y,./images/STOVELB.png,,,,,,,,,,,,,,,,,,,,,m,1,0.5898,,,,,,,,0,139,139,2,1
,,,,,,,,,,,,,,,,,,31,2022-02-12_16h08.03.208,lexical_decision_task_DD_L4,2021.2.3,Win32,59.91252771,,,,,,,,,,,0.8692,0,,,,,,,,,,,,,,,,,,,,,,,,0.025925926,-0.347222222,0,0,0,,,,,,,BRUSH,LB,m,y,./images/BRUSHLB.png,,,,,,,,,,,,,,,,,,,,,z,0,0.8692,,,,,,,,0,140,140,59,1
,,,,,,,,,,,,,,,,,,31,2022-02-12_16h08.03.208,lexical_decision_task_DD_L4,2021.2.3,Win32,59.91252771,,,,,,,,,,,0.7053,1,,,,,,,,,,,,,,,,,,,,,,,,0.025925926,-0.347222222,0,0,0,,,,,,,GRAIN,C,z,y,./images/GRAIN.png,,,,,,,,,,,,,,,,,,,,,z,1,0.7053,,,,,,,,0,141,141,159,1
,,,,,,,,,,,,,,,,,,31,2022-02-12_16h08.03.208,lexical_decision_task_DD_L4,2021.2.3,Win32,59.91252771,,,,,,,,,,,0.8523,1,,,,,,,,,,,,,,,,,,,,,,,,0.025925926,-0.347222222,0,0,0,,,,,,,MIRROR,C,z,y,./images/MIRROR.png,,,,,,,,,,,,,,,,,,,,,z,1,0.8523,,,,,,,,0,142,142,147,1
,,,,,,,,,,,,,,,,,,31,2022-02-12_16h08.03.208,lexical_decision_task_DD_L4,2021.2.3,Win32,59.91252771,,,,,,,,,,,0.7286,0,,,,,,,,,,,,,,,,,,,,,,,,0.025925926,-0.347222222,0,0,0,,,,,,,STRING,LB,z,y,./images/STRINGLB.png,,,,,,,,,,,,,,,,,,,,,m,0,0.7286,,,,,,,,0,143,143,125,1
,,,,,,,,,,,,,,,,,,31,2022-02-12_16h08.03.208,lexical_decision_task_DD_L4,2021.2.3,Win32,59.91252771,,,,,,,,,,,0.6026,1,,,,,,,,,,,,,,,,,,,,,,,,0.025925926,-0.347222222,0,0,0,,,,,,,PILOT,LB,m,y,./images/PILOTLB.png,,,,,,,,,,,,,,,,,,,,,m,1,0.6026,,,,,,,,0,144,144,50,1
,,,,,,,,,,,,,,,,,,31,2022-02-12_16h08.03.208,lexical_decision_task_DD_L4,2021.2.3,Win32,59.91252771,,,,,,,,,,,0.6734,0,,,,,,,,,,,,,,,,,,,,,,,,0.025925926,-0.347222222,0,0,0,,,,,,,BROOM,C,m,y,./images/BROOM.png,,,,,,,,,,,,,,,,,,,,,z,0,0.6734,,,,,,,,0,145,145,78,1
,,,,,,,,,,,,,,,,,,31,2022-02-12_16h08.03.208,lexical_decision_task_DD_L4,2021.2.3,Win32,59.91252771,,,,,,,,,,,0.7496,0,,,,,,,,,,,,,,,,,,,,,,,,0.025925926,-0.347222222,0,0,0,,,,,,,SHIELD,C,m,y,./images/SHIELD.png,,,,,,,,,,,,,,,,,,,,,z,0,0.7496,,,,,,,,0,146,146,48,1
,,,,,,,,,,,,,,,,,,31,2022-02-12_16h08.03.208,lexical_decision_task_DD_L4,2021.2.3,Win32,59.91252771,,,,,,,,,,,0.6385,1,,,,,,,,,,,,,,,,,,,,,,,,0.025925926,-0.347222222,0,0,0,,,,,,,SMOKER,LB,z,y,./images/SMOKERLB.png,,,,,,,,,,,,,,,,,,,,,z,1,0.6385,,,,,,,,0,147,147,110,1
,,,,,,,,,,,,,,,,,,31,2022-02-12_16h08.03.208,lexical_decision_task_DD_L4,2021.2.3,Win32,59.91252771,,,,,,,,,,,0.5568,0,,,,,,,,,,,,,,,,,,,,,,,,0.025925926,-0.347222222,0,0,0,,,,,,,PARADE,LB,m,y,./images/PARADELB.png,,,,,,,,,,,,,,,,,,,,,z,0,0.5568,,,,,,,,0,148,148,17,1
,,,,,,,,,,,,,,,,,,31,2022-02-12_16h08.03.208,lexical_decision_task_DD_L4,2021.2.3,Win32,59.91252771,,,,,,,,,,,0.5965,1,,,,,,,,,,,,,,,,,,,,,,,,0.025925926,-0.347222222,0,0,0,,,,,,,WALRUS,LB,z,y,./images/WALRUSLB.png,,,,,,,,,,,,,,,,,,,,,z,1,0.5965,,,,,,,,0,149,149,107,1
,,,,,,,,,,,,,,,,,,31,2022-02-12_16h08.03.208,lexical_decision_task_DD_L4,2021.2.3,Win32,59.91252771,,,,,,,,,,,0.844,0,,,,,,,,,,,,,,,,,,,,,,,,0.025925926,-0.347222222,0,0,0,,,,,,,GARDEN,HB,m,y,./images/GARDENHB.png,,,,,,,,,,,,,,,,,,,,,z,0,0.844,,,,,,,,0,150,150,10,1
,,,,,,,,,,,,,,,,,,31,2022-02-12_16h08.03.208,lexical_decision_task_DD_L4,2021.2.3,Win32,59.91252771,,,,,,,,,,,0.6013,1,,,,,,,,,,,,,,,,,,,,,,,,0.025925926,-0.347222222,0,0,0,,,,,,,POODLE,C,z,y,./images/POODLE.png,,,,,,,,,,,,,,,,,,,,,z,1,0.6013,,,,,,,,0,151,151,165,1
,,,,,,,,,,,,,,,,,,31,2022-02-12_16h08.03.208,lexical_decision_task_DD_L4,2021.2.3,Win32,59.91252771,,,,,,,,,,,0.56,1,,,,,,,,,,,,,,,,,,,,,,,,0.025925926,-0.347222222,0,0,0,,,,,,,CANYON,HB,z,y,./images/CANYONHB.png,,,,,,,,,,,,,,,,,,,,,z,1,0.56,,,,,,,,0,152,152,118,1
,,,,,,,,,,,,,,,,,,31,2022-02-12_16h08.03.208,lexical_decision_task_DD_L4,2021.2.3,Win32,59.91252771,,,,,,,,,,,0.8723,1,,,,,,,,,,,,,,,,,,,,,,,,0.025925926,-0.347222222,0,0,0,,,,,,,LADDER,LB,z,y,./images/LADDERLB.png,,,,,,,,,,,,,,,,,,,,,z,1,0.8723,,,,,,,,0,153,153,122,1
,,,,,,,,,,,,,,,,,,31,2022-02-12_16h08.03.208,lexical_decision_task_DD_L4,2021.2.3,Win32,59.91252771,,,,,,,,,,,0.5491,0,,,,,,,,,,,,,,,,,,,,,,,,0.025925926,-0.347222222,0,0,0,,,,,,,FLESH,C,m,y,./images/FLESH.png,,,,,,,,,,,,,,,,,,,,,z,0,0.5491,,,,,,,,0,154,154,24,1
,,,,,,,,,,,,,,,,,,31,2022-02-12_16h08.03.208,lexical_decision_task_DD_L4,2021.2.3,Win32,59.91252771,,,,,,,,,,,0.678,1,,,,,,,,,,,,,,,,,,,,,,,,0.025925926,-0.347222222,0,0,0,,,,,,,FLASK,C,m,y,./images/FLASK.png,,,,,,,,,,,,,,,,,,,,,m,1,0.678,,,,,,,,0,155,155,72,1
,,,,,,,,,,,,,,,,,,31,2022-02-12_16h08.03.208,lexical_decision_task_DD_L4,2021.2.3,Win32,59.91252771,,,,,,,,,,,0.5781,1,,,,,,,,,,,,,,,,,,,,,,,,0.025925926,-0.347222222,0,0,0,,,,,,,KITTEN,C,z,y,./images/KITTEN.png,,,,,,,,,,,,,,,,,,,,,z,1,0.5781,,,,,,,,0,156,156,129,1
,,,,,,,,,,,,,,,,,,31,2022-02-12_16h08.03.208,lexical_decision_task_DD_L4,2021.2.3,Win32,59.91252771,,,,,,,,,,,0.6505,1,,,,,,,,,,,,,,,,,,,,,,,,0.025925926,-0.347222222,0,0,0,,,,,,,CASINO,HB,m,y,./images/CASINOHB.png,,,,,,,,,,,,,,,,,,,,,m,1,0.6505,,,,,,,,0,157,157,28,1
,,,,,,,,,,,,,,,,,,31,2022-02-12_16h08.03.208,lexical_decision_task_DD_L4,2021.2.3,Win32,59.91252771,,,,,,,,,,,0.7107,1,,,,,,,,,,,,,,,,,,,,,,,,0.025925926,-0.347222222,0,0,0,,,,,,,CHALK,HB,m,y,./images/CHALKHB.png,,,,,,,,,,,,,,,,,,,,,m,1,0.7107,,,,,,,,0,158,158,25,1
,,,,,,,,,,,,,,,,,,31,2022-02-12_16h08.03.208,lexical_decision_task_DD_L4,2021.2.3,Win32,59.91252771,,,,,,,,,,,0.6893,1,,,,,,,,,,,,,,,,,,,,,,,,0.025925926,-0.347222222,0,0,0,,,,,,,TULIP,LB,z,y,./images/TULIPLB.png,,,,,,,,,,,,,,,,,,,,,z,1,0.6893,,,,,,,,0,159,159,92,1
,,,,,,,,,,,,,,,,,,31,2022-02-12_16h08.03.208,lexical_decision_task_DD_L4,2021.2.3,Win32,59.91252771,,,,,,,,,,,0.5896,1,,,,,,,,,,,,,,,,,,,,,,,,0.025925926,-0.347222222,0,0,0,,,,,,,PICKLE,LB,z,y,./images/PICKLELB.png,,,,,,,,,,,,,,,,,,,,,z,1,0.5896,,,,,,,,0,160,160,98,1
