key_resp.keys,key_resp.rt,instr_done_touch.x,instr_done_touch.y,instr_done_touch.leftButton,instr_done_touch.midButton,instr_done_touch.rightButton,instruction_pages.thisRepN,instruction_pages.thisTrialN,instruction_pages.thisN,instruction_pages.thisIndex,instruction_pages.ran,pageN,phase,instruct_text,has_image,instruct_image,participant,age,date,expName,psychopyVersion,OS,frameRate,response.keys,response.corr,response.rt,touch_resp.x,touch_resp.y,touch_resp.leftButton,touch_resp.midButton,touch_resp.rightButton,touch_resp.time,touch_resp.clicked_name,rt,corr,practrials.thisRepN,practrials.thisTrialN,practrials.thisN,practrials.thisIndex,practrials.ran,TrialID,Target,corrAns,end_of_practice_trials_pages.thisRepN,end_of_practice_trials_pages.thisTrialN,end_of_practice_trials_pages.thisN,end_of_practice_trials_pages.thisIndex,end_of_practice_trials_pages.ran,key_resp_2.keys,key_resp_2.corr,key_resp_2.rt,targ_click.x,targ_click.y,targ_click.leftButton,targ_click.midButton,targ_click.rightButton,targ_click.time,targ_click.clicked_name,break_done_touch.x,break_done_touch.y,break_done_touch.leftButton,break_done_touch.midButton,break_done_touch.rightButton,break_done_keyboard.keys,maintrials.thisRepN,maintrials.thisTrialN,maintrials.thisN,maintrials.thisIndex,maintrials.ran,string,blur,study,lex,stim_path,break_done_keyboard.rt,mouse_2.x,mouse_2.y,mouse_2.leftButton,mouse_2.midButton,mouse_2.rightButton,mouse_2.clicked_name,slider.response,slider.rt,trials.thisRepN,trials.thisTrialN,trials.thisN,trials.thisIndex,trials.ran,test_instructions.thisRepN,test_instructions.thisTrialN,test_instructions.thisN,test_instructions.thisIndex,test_instructions.ran,instr_done_touch.clicked_name,key_resp_3.keys,key_resp_3.corr,key_resp_3.rt,test_click.x,test_click.y,test_click.leftButton,test_click.midButton,test_click.rightButton,test_click.time,test_click.clicked_name,test_phase.thisRepN,test_phase.thisTrialN,test_phase.thisN,test_phase.thisIndex,test_phase.ran
space,24.8711,0.359375,-0.274739583,0,0,0,0,0,0,0,1,1,instructions,"INSTRUCTIONS
At the start of each trial, look at the plus sign  (+) in the center of the screen.  This tells you that a trial is about to begin and where to look. Second, the plus sign will disappear and a string of letters will appear. Your task is to determine if the string of letters is a word or not. If the item is a word press the M key (on keyboard)  or touch the word button (phone/tablet).  If the item is not a word,  press the  Z key (on keyboard)  or touch the nonword button (on phone/tablet). 
Press the space bar or touch  continue.",0,,,48,2022-02-12_16h30.46.917,lexical_decision_task_DD_L4,2021.2.3,Win32,60.0348202,,,,,,,,,,,,,,,,,,,,,,,,,,,,,,,,,,,,,,,,,,,,,,,,,,,,,,,,,,,,,,,,,,,,,,,,,,,,,,,,,,,,,,
space,8.7537,0.359375,-0.274739583,0,0,0,0,1,1,1,1,2,instructions,"If your device has a keyboard, press the 'Z' key for nonwords and the 'M' key for words.





Press the space bar or touch the button below to continue.",0,keyboard-example.gif,,48,2022-02-12_16h30.46.917,lexical_decision_task_DD_L4,2021.2.3,Win32,60.0348202,,,,,,,,,,,,,,,,,,,,,,,,,,,,,,,,,,,,,,,,,,,,,,,,,,,,,,,,,,,,,,,,,,,,,,,,,,,,,,,,,,,,,,
space,4.7229,0.359375,-0.274739583,0,0,0,0,2,2,2,1,3,instructions,"If you are using a touchscreen only device, use the buttons on the screen. Do not use the mouse.





Press the space bar or touch the button below to continue.",0,touchscreen-example.gif,,48,2022-02-12_16h30.46.917,lexical_decision_task_DD_L4,2021.2.3,Win32,60.0348202,,,,,,,,,,,,,,,,,,,,,,,,,,,,,,,,,,,,,,,,,,,,,,,,,,,,,,,,,,,,,,,,,,,,,,,,,,,,,,,,,,,,,,
space,5.7951,0.359375,-0.274739583,0,0,0,0,3,3,3,1,4,instructions,"It is very important that you respond as quickly and accurately as possible, as each letter string will only be on the screen for two seconds. If you do not respond within this time, the message 'Too slow!' will be displayed and the experiment will progress to the next letter string. The first 20 trials will be practice trials and you will receive feedback on your answers. 

Press the space bar or touch the button below to start the practice trials.",0,,,48,2022-02-12_16h30.46.917,lexical_decision_task_DD_L4,2021.2.3,Win32,60.0348202,,,,,,,,,,,,,,,,,,,,,,,,,,,,,,,,,,,,,,,,,,,,,,,,,,,,,,,,,,,,,,,,,,,,,,,,,,,,,,,,,,,,,,
,,,,,,,,,,,,,,,,,,48,2022-02-12_16h30.46.917,lexical_decision_task_DD_L4,2021.2.3,Win32,60.0348202,m,1,1.0543,,,,,,,,1.0543,1,0,0,0,0,1,1001,UTOPIA,m,,,,,,,,,,,,,,,,,,,,,,,,,,,,,,,,,,,,,,,,,,,,,,,,,,,,,,,,,,,,,,,,,,
,,,,,,,,,,,,,,,,,,48,2022-02-12_16h30.46.917,lexical_decision_task_DD_L4,2021.2.3,Win32,60.0348202,m,1,0.9477,,,,,,,,0.9477,1,0,1,1,5,1,1001,OBTAIN,m,,,,,,,,,,,,,,,,,,,,,,,,,,,,,,,,,,,,,,,,,,,,,,,,,,,,,,,,,,,,,,,,,,
,,,,,,,,,,,,,,,,,,48,2022-02-12_16h30.46.917,lexical_decision_task_DD_L4,2021.2.3,Win32,60.0348202,z,1,0.7713,,,,,,,,0.7713,1,0,2,2,13,1,1001,ROUPET,z,,,,,,,,,,,,,,,,,,,,,,,,,,,,,,,,,,,,,,,,,,,,,,,,,,,,,,,,,,,,,,,,,,
,,,,,,,,,,,,,,,,,,48,2022-02-12_16h30.46.917,lexical_decision_task_DD_L4,2021.2.3,Win32,60.0348202,m,1,0.817,,,,,,,,0.817,1,0,3,3,2,1,1001,ALMOND,m,,,,,,,,,,,,,,,,,,,,,,,,,,,,,,,,,,,,,,,,,,,,,,,,,,,,,,,,,,,,,,,,,,
,,,,,,,,,,,,,,,,,,48,2022-02-12_16h30.46.917,lexical_decision_task_DD_L4,2021.2.3,Win32,60.0348202,z,1,0.8267,,,,,,,,0.8267,1,0,4,4,14,1,1001,THRALE,z,,,,,,,,,,,,,,,,,,,,,,,,,,,,,,,,,,,,,,,,,,,,,,,,,,,,,,,,,,,,,,,,,,
,,,,,,,,,,,,,,,,,,48,2022-02-12_16h30.46.917,lexical_decision_task_DD_L4,2021.2.3,Win32,60.0348202,z,1,1.5918,,,,,,,,1.5918,1,0,5,5,10,1,1001,INLADE,z,,,,,,,,,,,,,,,,,,,,,,,,,,,,,,,,,,,,,,,,,,,,,,,,,,,,,,,,,,,,,,,,,,
,,,,,,,,,,,,,,,,,,48,2022-02-12_16h30.46.917,lexical_decision_task_DD_L4,2021.2.3,Win32,60.0348202,z,1,0.8379,,,,,,,,0.8379,1,0,6,6,15,1,1001,WHAISE,z,,,,,,,,,,,,,,,,,,,,,,,,,,,,,,,,,,,,,,,,,,,,,,,,,,,,,,,,,,,,,,,,,,
,,,,,,,,,,,,,,,,,,48,2022-02-12_16h30.46.917,lexical_decision_task_DD_L4,2021.2.3,Win32,60.0348202,m,1,0.6816,,,,,,,,0.6816,1,0,7,7,3,1,1001,MATRIX,m,,,,,,,,,,,,,,,,,,,,,,,,,,,,,,,,,,,,,,,,,,,,,,,,,,,,,,,,,,,,,,,,,,
,,,,,,,,,,,,,,,,,,48,2022-02-12_16h30.46.917,lexical_decision_task_DD_L4,2021.2.3,Win32,60.0348202,m,1,0.7524,,,,,,,,0.7524,1,0,8,8,6,1,1001,ZOMBIE,m,,,,,,,,,,,,,,,,,,,,,,,,,,,,,,,,,,,,,,,,,,,,,,,,,,,,,,,,,,,,,,,,,,
,,,,,,,,,,,,,,,,,,48,2022-02-12_16h30.46.917,lexical_decision_task_DD_L4,2021.2.3,Win32,60.0348202,z,1,0.7325,,,,,,,,0.7325,1,0,9,9,11,1,1001,RASHET,z,,,,,,,,,,,,,,,,,,,,,,,,,,,,,,,,,,,,,,,,,,,,,,,,,,,,,,,,,,,,,,,,,,
,,,,,,,,,,,,,,,,,,48,2022-02-12_16h30.46.917,lexical_decision_task_DD_L4,2021.2.3,Win32,60.0348202,m,1,0.6399,,,,,,,,0.6399,1,0,10,10,4,1,1001,SQUEAK,m,,,,,,,,,,,,,,,,,,,,,,,,,,,,,,,,,,,,,,,,,,,,,,,,,,,,,,,,,,,,,,,,,,
,,,,,,,,,,,,,,,,,,48,2022-02-12_16h30.46.917,lexical_decision_task_DD_L4,2021.2.3,Win32,60.0348202,m,1,0.7401,,,,,,,,0.7401,1,0,11,11,1,1,1001,ADJUST,m,,,,,,,,,,,,,,,,,,,,,,,,,,,,,,,,,,,,,,,,,,,,,,,,,,,,,,,,,,,,,,,,,,
,,,,,,,,,,,,,,,,,,48,2022-02-12_16h30.46.917,lexical_decision_task_DD_L4,2021.2.3,Win32,60.0348202,z,1,0.8996,,,,,,,,0.8996,1,0,12,12,9,1,1001,FARINY,z,,,,,,,,,,,,,,,,,,,,,,,,,,,,,,,,,,,,,,,,,,,,,,,,,,,,,,,,,,,,,,,,,,
,,,,,,,,,,,,,,,,,,48,2022-02-12_16h30.46.917,lexical_decision_task_DD_L4,2021.2.3,Win32,60.0348202,m,1,0.6986,,,,,,,,0.6986,1,0,13,13,7,1,1001,VOLUME,m,,,,,,,,,,,,,,,,,,,,,,,,,,,,,,,,,,,,,,,,,,,,,,,,,,,,,,,,,,,,,,,,,,
,,,,,,,,,,,,,,,,,,48,2022-02-12_16h30.46.917,lexical_decision_task_DD_L4,2021.2.3,Win32,60.0348202,z,1,0.6814,,,,,,,,0.6814,1,0,14,14,12,1,1001,SPRINY,z,,,,,,,,,,,,,,,,,,,,,,,,,,,,,,,,,,,,,,,,,,,,,,,,,,,,,,,,,,,,,,,,,,
,,,,,,,,,,,,,,,,,,48,2022-02-12_16h30.46.917,lexical_decision_task_DD_L4,2021.2.3,Win32,60.0348202,z,1,0.9563,,,,,,,,0.9563,1,0,15,15,8,1,1001,ASLERT,z,,,,,,,,,,,,,,,,,,,,,,,,,,,,,,,,,,,,,,,,,,,,,,,,,,,,,,,,,,,,,,,,,,
space,11.0146,0.359375,-0.274739583,0,0,0,,,,,,1,end_of_practice,"You have completed the practice trials. During the experimental trials, you will not receive feedback. 
Before you begin, please ensure that you are in a comfortable and quiet location and will not be disturbed for about 15 minutes, as we cannot use your data if you do not complete all the trials. 
 When you are ready to start the experimental trials, please press space or touch the button below.",,,,48,2022-02-12_16h30.46.917,lexical_decision_task_DD_L4,2021.2.3,Win32,60.0348202,,,,,,,,,,,,,,,,,,,,,0,0,0,0,1,,,,,,,,,,,,,,,,,,,,,,,,,,,,,,,,,,,,,,,,,,,,,,,,,,,,,,,,,,,,,
,,,,,,,,,,,,,,,,,,48,2022-02-12_16h30.46.917,lexical_decision_task_DD_L4,2021.2.3,Win32,60.0348202,,,,,,,,,,,1.596,1,,,,,,,,,,,,,,m,1,1.596,,,,,,,,0.359375,-0.274739583,0,0,0,,0,0,0,1,1,TOWEL,HB,old,m,./images/TOWELHB.png,,,,,,,,,,,,,,,,,,,,,,,,,,,,,,,,,,,
,,,,,,,,,,,,,,,,,,48,2022-02-12_16h30.46.917,lexical_decision_task_DD_L4,2021.2.3,Win32,60.0348202,,,,,,,,,,,0.925,1,,,,,,,,,,,,,,z,1,0.925,,,,,,,,0.359375,-0.274739583,0,0,0,,0,1,1,108,1,GRUET,C,old,z,./images/GRUET.png,,,,,,,,,,,,,,,,,,,,,,,,,,,,,,,,,,,
,,,,,,,,,,,,,,,,,,48,2022-02-12_16h30.46.917,lexical_decision_task_DD_L4,2021.2.3,Win32,60.0348202,,,,,,,,,,,1.3854,1,,,,,,,,,,,,,,z,1,1.3854,,,,,,,,0.359375,-0.274739583,0,0,0,,0,2,2,167,1,ZONET,LB,old,z,./images/ZONETLB.png,,,,,,,,,,,,,,,,,,,,,,,,,,,,,,,,,,,
,,,,,,,,,,,,,,,,,,48,2022-02-12_16h30.46.917,lexical_decision_task_DD_L4,2021.2.3,Win32,60.0348202,,,,,,,,,,,0.6868,1,,,,,,,,,,,,,,z,1,0.6868,,,,,,,,0.359375,-0.274739583,0,0,0,,0,3,3,147,1,ZOLES,C,old,z,./images/ZOLES.png,,,,,,,,,,,,,,,,,,,,,,,,,,,,,,,,,,,
,,,,,,,,,,,,,,,,,,48,2022-02-12_16h30.46.917,lexical_decision_task_DD_L4,2021.2.3,Win32,60.0348202,,,,,,,,,,,1.1388,1,,,,,,,,,,,,,,z,1,1.1388,,,,,,,,0.359375,-0.274739583,0,0,0,,0,4,4,125,1,MOOKY,LB,old,z,./images/MOOKYLB.png,,,,,,,,,,,,,,,,,,,,,,,,,,,,,,,,,,,
,,,,,,,,,,,,,,,,,,48,2022-02-12_16h30.46.917,lexical_decision_task_DD_L4,2021.2.3,Win32,60.0348202,,,,,,,,,,,0.8143,1,,,,,,,,,,,,,,m,1,0.8143,,,,,,,,0.359375,-0.274739583,0,0,0,,0,5,5,67,1,POKER,HB,old,m,./images/POKERHB.png,,,,,,,,,,,,,,,,,,,,,,,,,,,,,,,,,,,
,,,,,,,,,,,,,,,,,,48,2022-02-12_16h30.46.917,lexical_decision_task_DD_L4,2021.2.3,Win32,60.0348202,,,,,,,,,,,1.4714,1,,,,,,,,,,,,,,z,1,1.4714,,,,,,,,0.359375,-0.274739583,0,0,0,,0,6,6,94,1,BLANS,HB,old,z,./images/BLANSHB.png,,,,,,,,,,,,,,,,,,,,,,,,,,,,,,,,,,,
,,,,,,,,,,,,,,,,,,48,2022-02-12_16h30.46.917,lexical_decision_task_DD_L4,2021.2.3,Win32,60.0348202,,,,,,,,,,,1.0112,1,,,,,,,,,,,,,,m,1,1.0112,,,,,,,,0.359375,-0.274739583,0,0,0,,0,7,7,70,1,BANANA,HB,old,m,./images/BANANAHB.png,,,,,,,,,,,,,,,,,,,,,,,,,,,,,,,,,,,
,,,,,,,,,,,,,,,,,,48,2022-02-12_16h30.46.917,lexical_decision_task_DD_L4,2021.2.3,Win32,60.0348202,,,,,,,,,,,0.9851,1,,,,,,,,,,,,,,z,1,0.9851,,,,,,,,0.359375,-0.274739583,0,0,0,,0,8,8,90,1,NEAST,C,old,z,./images/NEAST.png,,,,,,,,,,,,,,,,,,,,,,,,,,,,,,,,,,,
,,,,,,,,,,,,,,,,,,48,2022-02-12_16h30.46.917,lexical_decision_task_DD_L4,2021.2.3,Win32,60.0348202,,,,,,,,,,,1.1079,1,,,,,,,,,,,,,,z,1,1.1079,,,,,,,,0.359375,-0.274739583,0,0,0,,0,9,9,123,1,SEDGE,C,old,z,./images/SEDGE.png,,,,,,,,,,,,,,,,,,,,,,,,,,,,,,,,,,,
,,,,,,,,,,,,,,,,,,48,2022-02-12_16h30.46.917,lexical_decision_task_DD_L4,2021.2.3,Win32,60.0348202,,,,,,,,,,,0.8779,1,,,,,,,,,,,,,,m,1,0.8779,,,,,,,,0.359375,-0.274739583,0,0,0,,0,10,10,11,1,MEDAL,LB,old,m,./images/MEDALLB.png,,,,,,,,,,,,,,,,,,,,,,,,,,,,,,,,,,,
,,,,,,,,,,,,,,,,,,48,2022-02-12_16h30.46.917,lexical_decision_task_DD_L4,2021.2.3,Win32,60.0348202,,,,,,,,,,,1.0155,1,,,,,,,,,,,,,,m,1,1.0155,,,,,,,,0.359375,-0.274739583,0,0,0,,0,11,11,66,1,STATUE,C,old,m,./images/STATUE.png,,,,,,,,,,,,,,,,,,,,,,,,,,,,,,,,,,,
,,,,,,,,,,,,,,,,,,48,2022-02-12_16h30.46.917,lexical_decision_task_DD_L4,2021.2.3,Win32,60.0348202,,,,,,,,,,,1.2973,1,,,,,,,,,,,,,,z,1,1.2973,,,,,,,,0.359375,-0.274739583,0,0,0,,0,12,12,112,1,MYING,HB,old,z,./images/MYINGHB.png,,,,,,,,,,,,,,,,,,,,,,,,,,,,,,,,,,,
,,,,,,,,,,,,,,,,,,48,2022-02-12_16h30.46.917,lexical_decision_task_DD_L4,2021.2.3,Win32,60.0348202,,,,,,,,,,,0.7796,1,,,,,,,,,,,,,,z,1,0.7796,,,,,,,,0.359375,-0.274739583,0,0,0,,0,13,13,137,1,JOOST,LB,old,z,./images/JOOSTLB.png,,,,,,,,,,,,,,,,,,,,,,,,,,,,,,,,,,,
,,,,,,,,,,,,,,,,,,48,2022-02-12_16h30.46.917,lexical_decision_task_DD_L4,2021.2.3,Win32,60.0348202,,,,,,,,,,,1.3815,1,,,,,,,,,,,,,,m,1,1.3815,,,,,,,,0.359375,-0.274739583,0,0,0,,0,14,14,24,1,FLESH,C,old,m,./images/FLESH.png,,,,,,,,,,,,,,,,,,,,,,,,,,,,,,,,,,,
,,,,,,,,,,,,,,,,,,48,2022-02-12_16h30.46.917,lexical_decision_task_DD_L4,2021.2.3,Win32,60.0348202,,,,,,,,,,,1.2768,1,,,,,,,,,,,,,,m,1,1.2768,,,,,,,,0.359375,-0.274739583,0,0,0,,0,15,15,51,1,SAUCE,C,old,m,./images/SAUCE.png,,,,,,,,,,,,,,,,,,,,,,,,,,,,,,,,,,,
,,,,,,,,,,,,,,,,,,48,2022-02-12_16h30.46.917,lexical_decision_task_DD_L4,2021.2.3,Win32,60.0348202,,,,,,,,,,,1.5029,1,,,,,,,,,,,,,,z,1,1.5029,,,,,,,,0.359375,-0.274739583,0,0,0,,0,16,16,157,1,INLER,HB,old,z,./images/INLERHB.png,,,,,,,,,,,,,,,,,,,,,,,,,,,,,,,,,,,
,,,,,,,,,,,,,,,,,,48,2022-02-12_16h30.46.917,lexical_decision_task_DD_L4,2021.2.3,Win32,60.0348202,,,,,,,,,,,0.7241,1,,,,,,,,,,,,,,m,1,0.7241,,,,,,,,0.359375,-0.274739583,0,0,0,,0,17,17,15,1,COLLAR,C,old,m,./images/COLLAR.png,,,,,,,,,,,,,,,,,,,,,,,,,,,,,,,,,,,
,,,,,,,,,,,,,,,,,,48,2022-02-12_16h30.46.917,lexical_decision_task_DD_L4,2021.2.3,Win32,60.0348202,,,,,,,,,,,1.1821,1,,,,,,,,,,,,,,m,1,1.1821,,,,,,,,0.359375,-0.274739583,0,0,0,,0,18,18,22,1,CLOWN,HB,old,m,./images/CLOWNHB.png,,,,,,,,,,,,,,,,,,,,,,,,,,,,,,,,,,,
,,,,,,,,,,,,,,,,,,48,2022-02-12_16h30.46.917,lexical_decision_task_DD_L4,2021.2.3,Win32,60.0348202,,,,,,,,,,,0.6118,1,,,,,,,,,,,,,,m,1,0.6118,,,,,,,,0.359375,-0.274739583,0,0,0,,0,19,19,8,1,CLIFF,LB,old,m,./images/CLIFFLB.png,,,,,,,,,,,,,,,,,,,,,,,,,,,,,,,,,,,
,,,,,,,,,,,,,,,,,,48,2022-02-12_16h30.46.917,lexical_decision_task_DD_L4,2021.2.3,Win32,60.0348202,,,,,,,,,,,0.7021,1,,,,,,,,,,,,,,z,1,0.7021,,,,,,,,0.359375,-0.274739583,0,0,0,,0,20,20,146,1,MOOST,LB,old,z,./images/MOOSTLB.png,,,,,,,,,,,,,,,,,,,,,,,,,,,,,,,,,,,
,,,,,,,,,,,,,,,,,,48,2022-02-12_16h30.46.917,lexical_decision_task_DD_L4,2021.2.3,Win32,60.0348202,,,,,,,,,,,0.9031,1,,,,,,,,,,,,,,m,1,0.9031,,,,,,,,0.359375,-0.274739583,0,0,0,,0,21,21,20,1,GRANNY,LB,old,m,./images/GRANNYLB.png,,,,,,,,,,,,,,,,,,,,,,,,,,,,,,,,,,,
,,,,,,,,,,,,,,,,,,48,2022-02-12_16h30.46.917,lexical_decision_task_DD_L4,2021.2.3,Win32,60.0348202,,,,,,,,,,,1.3352,1,,,,,,,,,,,,,,z,1,1.3352,,,,,,,,0.359375,-0.274739583,0,0,0,,0,22,22,85,1,CHULK,HB,old,z,./images/CHULKHB.png,,,,,,,,,,,,,,,,,,,,,,,,,,,,,,,,,,,
,,,,,,,,,,,,,,,,,,48,2022-02-12_16h30.46.917,lexical_decision_task_DD_L4,2021.2.3,Win32,60.0348202,,,,,,,,,,,0.9385,1,,,,,,,,,,,,,,m,1,0.9385,,,,,,,,0.359375,-0.274739583,0,0,0,,0,23,23,12,1,BLOKE,C,old,m,./images/BLOKE.png,,,,,,,,,,,,,,,,,,,,,,,,,,,,,,,,,,,
,,,,,,,,,,,,,,,,,,48,2022-02-12_16h30.46.917,lexical_decision_task_DD_L4,2021.2.3,Win32,60.0348202,,,,,,,,,,,0.6829,1,,,,,,,,,,,,,,m,1,0.6829,,,,,,,,0.359375,-0.274739583,0,0,0,,0,24,24,0,1,WALNUT,C,old,m,./images/WALNUT.png,,,,,,,,,,,,,,,,,,,,,,,,,,,,,,,,,,,
,,,,,,,,,,,,,,,,,,48,2022-02-12_16h30.46.917,lexical_decision_task_DD_L4,2021.2.3,Win32,60.0348202,,,,,,,,,,,0.7105,1,,,,,,,,,,,,,,m,1,0.7105,,,,,,,,0.359375,-0.274739583,0,0,0,,0,25,25,50,1,PILOT,LB,old,m,./images/PILOTLB.png,,,,,,,,,,,,,,,,,,,,,,,,,,,,,,,,,,,
,,,,,,,,,,,,,,,,,,48,2022-02-12_16h30.46.917,lexical_decision_task_DD_L4,2021.2.3,Win32,60.0348202,,,,,,,,,,,0.7301,1,,,,,,,,,,,,,,z,1,0.7301,,,,,,,,0.359375,-0.274739583,0,0,0,,0,26,26,122,1,BLOOT,LB,old,z,./images/BLOOTLB.png,,,,,,,,,,,,,,,,,,,,,,,,,,,,,,,,,,,
,,,,,,,,,,,,,,,,,,48,2022-02-12_16h30.46.917,lexical_decision_task_DD_L4,2021.2.3,Win32,60.0348202,,,,,,,,,,,1.0628,1,,,,,,,,,,,,,,z,1,1.0628,,,,,,,,0.359375,-0.274739583,0,0,0,,0,27,27,138,1,PLICE,C,old,z,./images/PLICE.png,,,,,,,,,,,,,,,,,,,,,,,,,,,,,,,,,,,
,,,,,,,,,,,,,,,,,,48,2022-02-12_16h30.46.917,lexical_decision_task_DD_L4,2021.2.3,Win32,60.0348202,,,,,,,,,,,1.3646,1,,,,,,,,,,,,,,z,1,1.3646,,,,,,,,0.359375,-0.274739583,0,0,0,,0,28,28,118,1,BAVEL,HB,old,z,./images/BAVELHB.png,,,,,,,,,,,,,,,,,,,,,,,,,,,,,,,,,,,
,,,,,,,,,,,,,,,,,,48,2022-02-12_16h30.46.917,lexical_decision_task_DD_L4,2021.2.3,Win32,60.0348202,,,,,,,,,,,1.4459,1,,,,,,,,,,,,,,z,1,1.4459,,,,,,,,0.359375,-0.274739583,0,0,0,,0,29,29,151,1,TINKY,HB,old,z,./images/TINKYHB.png,,,,,,,,,,,,,,,,,,,,,,,,,,,,,,,,,,,
,,,,,,,,,,,,,,,,,,48,2022-02-12_16h30.46.917,lexical_decision_task_DD_L4,2021.2.3,Win32,60.0348202,,,,,,,,,,,0.6025,1,,,,,,,,,,,,,,m,1,0.6025,,,,,,,,0.359375,-0.274739583,0,0,0,,0,30,30,77,1,WHEEL,LB,old,m,./images/WHEELLB.png,,,,,,,,,,,,,,,,,,,,,,,,,,,,,,,,,,,
,,,,,,,,,,,,,,,,,,48,2022-02-12_16h30.46.917,lexical_decision_task_DD_L4,2021.2.3,Win32,60.0348202,,,,,,,,,,,1.0423,1,,,,,,,,,,,,,,z,1,1.0423,,,,,,,,0.359375,-0.274739583,0,0,0,,0,31,31,115,1,MAWNS,HB,old,z,./images/MAWNSHB.png,,,,,,,,,,,,,,,,,,,,,,,,,,,,,,,,,,,
,,,,,,,,,,,,,,,,,,48,2022-02-12_16h30.46.917,lexical_decision_task_DD_L4,2021.2.3,Win32,60.0348202,,,,,,,,,,,0.5947,1,,,,,,,,,,,,,,m,1,0.5947,,,,,,,,0.359375,-0.274739583,0,0,0,,0,32,32,2,1,STOVE,LB,old,m,./images/STOVELB.png,,,,,,,,,,,,,,,,,,,,,,,,,,,,,,,,,,,
,,,,,,,,,,,,,,,,,,48,2022-02-12_16h30.46.917,lexical_decision_task_DD_L4,2021.2.3,Win32,60.0348202,,,,,,,,,,,0.8693,1,,,,,,,,,,,,,,m,1,0.8693,,,,,,,,0.359375,-0.274739583,0,0,0,,0,33,33,49,1,BISHOP,HB,old,m,./images/BISHOPHB.png,,,,,,,,,,,,,,,,,,,,,,,,,,,,,,,,,,,
,,,,,,,,,,,,,,,,,,48,2022-02-12_16h30.46.917,lexical_decision_task_DD_L4,2021.2.3,Win32,60.0348202,,,,,,,,,,,0.9612,1,,,,,,,,,,,,,,z,1,0.9612,,,,,,,,0.359375,-0.274739583,0,0,0,,0,34,34,114,1,RIKES,C,old,z,./images/RIKES.png,,,,,,,,,,,,,,,,,,,,,,,,,,,,,,,,,,,
,,,,,,,,,,,,,,,,,,48,2022-02-12_16h30.46.917,lexical_decision_task_DD_L4,2021.2.3,Win32,60.0348202,,,,,,,,,,,0.964,1,,,,,,,,,,,,,,m,1,0.964,,,,,,,,0.359375,-0.274739583,0,0,0,,0,35,35,64,1,BRIDE,HB,old,m,./images/BRIDEHB.png,,,,,,,,,,,,,,,,,,,,,,,,,,,,,,,,,,,
,,,,,,,,,,,,,,,,,,48,2022-02-12_16h30.46.917,lexical_decision_task_DD_L4,2021.2.3,Win32,60.0348202,,,,,,,,,,,0.981,1,,,,,,,,,,,,,,z,1,0.981,,,,,,,,0.359375,-0.274739583,0,0,0,,0,36,36,141,1,PLEET,C,old,z,./images/PLEET.png,,,,,,,,,,,,,,,,,,,,,,,,,,,,,,,,,,,
,,,,,,,,,,,,,,,,,,48,2022-02-12_16h30.46.917,lexical_decision_task_DD_L4,2021.2.3,Win32,60.0348202,,,,,,,,,,,0.7134,1,,,,,,,,,,,,,,m,1,0.7134,,,,,,,,0.359375,-0.274739583,0,0,0,,0,37,37,78,1,BROOM,C,old,m,./images/BROOM.png,,,,,,,,,,,,,,,,,,,,,,,,,,,,,,,,,,,
,,,,,,,,,,,,,,,,,,48,2022-02-12_16h30.46.917,lexical_decision_task_DD_L4,2021.2.3,Win32,60.0348202,,,,,,,,,,,1.4759,1,,,,,,,,,,,,,,m,1,1.4759,,,,,,,,0.359375,-0.274739583,0,0,0,,0,38,38,76,1,MIDGET,HB,old,m,./images/MIDGETHB.png,,,,,,,,,,,,,,,,,,,,,,,,,,,,,,,,,,,
,,,,,,,,,,,,,,,,,,48,2022-02-12_16h30.46.917,lexical_decision_task_DD_L4,2021.2.3,Win32,60.0348202,,,,,,,,,,,0.5944,1,,,,,,,,,,,,,,m,1,0.5944,,,,,,,,0.359375,-0.274739583,0,0,0,,0,39,39,14,1,FENCE,LB,old,m,./images/FENCELB.png,,,,,,,,,,,,,,,,,,,,,,,,,,,,,,,,,,,
,,,,,,,,,,,,,,,,,,48,2022-02-12_16h30.46.917,lexical_decision_task_DD_L4,2021.2.3,Win32,60.0348202,,,,,,,,,,,0.6019,1,,,,,,,,,,,,,,z,1,0.6019,,,,,,,,0.359375,-0.274739583,0,0,0,,0,40,40,96,1,KEAMS,C,old,z,./images/KEAMS.png,,,,,,,,,,,,,,,,,,,,,,,,,,,,,,,,,,,
,,,,,,,,,,,,,,,,,,48,2022-02-12_16h30.46.917,lexical_decision_task_DD_L4,2021.2.3,Win32,60.0348202,,,,,,,,,,,0.5739,1,,,,,,,,,,,,,,m,1,0.5739,,,,,,,,0.359375,-0.274739583,0,0,0,space,0,41,41,42,1,CHAIN,C,old,m,./images/CHAIN.png,13.314,,,,,,,,,,,,,,,,,,,,,,,,,,,,,,,,,,
,,,,,,,,,,,,,,,,,,48,2022-02-12_16h30.46.917,lexical_decision_task_DD_L4,2021.2.3,Win32,60.0348202,,,,,,,,,,,0.6796,1,,,,,,,,,,,,,,m,1,0.6796,,,,,,,,0.359375,-0.274739583,0,0,0,,0,42,42,3,1,CRATER,C,old,m,./images/CRATER.png,,,,,,,,,,,,,,,,,,,,,,,,,,,,,,,,,,,
,,,,,,,,,,,,,,,,,,48,2022-02-12_16h30.46.917,lexical_decision_task_DD_L4,2021.2.3,Win32,60.0348202,,,,,,,,,,,0.681,1,,,,,,,,,,,,,,m,1,0.681,,,,,,,,0.359375,-0.274739583,0,0,0,,0,43,43,17,1,PARADE,LB,old,m,./images/PARADELB.png,,,,,,,,,,,,,,,,,,,,,,,,,,,,,,,,,,,
,,,,,,,,,,,,,,,,,,48,2022-02-12_16h30.46.917,lexical_decision_task_DD_L4,2021.2.3,Win32,60.0348202,,,,,,,,,,,0.9172,1,,,,,,,,,,,,,,m,1,0.9172,,,,,,,,0.359375,-0.274739583,0,0,0,,0,44,44,46,1,MUMMY,HB,old,m,./images/MUMMYHB.png,,,,,,,,,,,,,,,,,,,,,,,,,,,,,,,,,,,
,,,,,,,,,,,,,,,,,,48,2022-02-12_16h30.46.917,lexical_decision_task_DD_L4,2021.2.3,Win32,60.0348202,,,,,,,,,,,0.8961,1,,,,,,,,,,,,,,z,1,0.8961,,,,,,,,0.359375,-0.274739583,0,0,0,,0,45,45,103,1,FLORT,HB,old,z,./images/FLORTHB.png,,,,,,,,,,,,,,,,,,,,,,,,,,,,,,,,,,,
,,,,,,,,,,,,,,,,,,48,2022-02-12_16h30.46.917,lexical_decision_task_DD_L4,2021.2.3,Win32,60.0348202,,,,,,,,,,,0.5392,1,,,,,,,,,,,,,,m,1,0.5392,,,,,,,,0.359375,-0.274739583,0,0,0,,0,46,46,6,1,STAIN,C,old,m,./images/STAIN.png,,,,,,,,,,,,,,,,,,,,,,,,,,,,,,,,,,,
,,,,,,,,,,,,,,,,,,48,2022-02-12_16h30.46.917,lexical_decision_task_DD_L4,2021.2.3,Win32,60.0348202,,,,,,,,,,,1.3616,1,,,,,,,,,,,,,,z,1,1.3616,,,,,,,,0.359375,-0.274739583,0,0,0,,0,47,47,136,1,WERVE,HB,old,z,./images/WERVEHB.png,,,,,,,,,,,,,,,,,,,,,,,,,,,,,,,,,,,
,,,,,,,,,,,,,,,,,,48,2022-02-12_16h30.46.917,lexical_decision_task_DD_L4,2021.2.3,Win32,60.0348202,,,,,,,,,,,0.9312,1,,,,,,,,,,,,,,z,1,0.9312,,,,,,,,0.359375,-0.274739583,0,0,0,,0,48,48,134,1,TROSS,LB,old,z,./images/TROSSLB.png,,,,,,,,,,,,,,,,,,,,,,,,,,,,,,,,,,,
,,,,,,,,,,,,,,,,,,48,2022-02-12_16h30.46.917,lexical_decision_task_DD_L4,2021.2.3,Win32,60.0348202,,,,,,,,,,,0.6289,1,,,,,,,,,,,,,,z,1,0.6289,,,,,,,,0.359375,-0.274739583,0,0,0,,0,49,49,155,1,CANGY,LB,old,z,./images/CANGYLB.png,,,,,,,,,,,,,,,,,,,,,,,,,,,,,,,,,,,
,,,,,,,,,,,,,,,,,,48,2022-02-12_16h30.46.917,lexical_decision_task_DD_L4,2021.2.3,Win32,60.0348202,,,,,,,,,,,1.1721,1,,,,,,,,,,,,,,z,1,1.1721,,,,,,,,0.359375,-0.274739583,0,0,0,,0,50,50,130,1,CRILL,HB,old,z,./images/CRILLHB.png,,,,,,,,,,,,,,,,,,,,,,,,,,,,,,,,,,,
,,,,,,,,,,,,,,,,,,48,2022-02-12_16h30.46.917,lexical_decision_task_DD_L4,2021.2.3,Win32,60.0348202,,,,,,,,,,,0.9286,1,,,,,,,,,,,,,,z,1,0.9286,,,,,,,,0.359375,-0.274739583,0,0,0,,0,51,51,113,1,LINEW,LB,old,z,./images/LINEWLB.png,,,,,,,,,,,,,,,,,,,,,,,,,,,,,,,,,,,
,,,,,,,,,,,,,,,,,,48,2022-02-12_16h30.46.917,lexical_decision_task_DD_L4,2021.2.3,Win32,60.0348202,,,,,,,,,,,1.0784,1,,,,,,,,,,,,,,m,1,1.0784,,,,,,,,0.359375,-0.274739583,0,0,0,,0,52,52,79,1,RULER,HB,old,m,./images/RULERHB.png,,,,,,,,,,,,,,,,,,,,,,,,,,,,,,,,,,,
,,,,,,,,,,,,,,,,,,48,2022-02-12_16h30.46.917,lexical_decision_task_DD_L4,2021.2.3,Win32,60.0348202,,,,,,,,,,,1.4379,1,,,,,,,,,,,,,,z,1,1.4379,,,,,,,,0.359375,-0.274739583,0,0,0,,0,53,53,109,1,BURGE,HB,old,z,./images/BURGEHB.png,,,,,,,,,,,,,,,,,,,,,,,,,,,,,,,,,,,
,,,,,,,,,,,,,,,,,,48,2022-02-12_16h30.46.917,lexical_decision_task_DD_L4,2021.2.3,Win32,60.0348202,,,,,,,,,,,1.4292,1,,,,,,,,,,,,,,z,1,1.4292,,,,,,,,0.359375,-0.274739583,0,0,0,,0,54,54,91,1,SHENS,HB,old,z,./images/SHENSHB.png,,,,,,,,,,,,,,,,,,,,,,,,,,,,,,,,,,,
,,,,,,,,,,,,,,,,,,48,2022-02-12_16h30.46.917,lexical_decision_task_DD_L4,2021.2.3,Win32,60.0348202,,,,,,,,,,,0.6442,1,,,,,,,,,,,,,,m,1,0.6442,,,,,,,,0.359375,-0.274739583,0,0,0,,0,55,55,74,1,JUMPER,LB,old,m,./images/JUMPERLB.png,,,,,,,,,,,,,,,,,,,,,,,,,,,,,,,,,,,
,,,,,,,,,,,,,,,,,,48,2022-02-12_16h30.46.917,lexical_decision_task_DD_L4,2021.2.3,Win32,60.0348202,,,,,,,,,,,0.6785,1,,,,,,,,,,,,,,m,1,0.6785,,,,,,,,0.359375,-0.274739583,0,0,0,,0,56,56,53,1,POSTER,LB,old,m,./images/POSTERLB.png,,,,,,,,,,,,,,,,,,,,,,,,,,,,,,,,,,,
,,,,,,,,,,,,,,,,,,48,2022-02-12_16h30.46.917,lexical_decision_task_DD_L4,2021.2.3,Win32,60.0348202,,,,,,,,,,,0.5652,1,,,,,,,,,,,,,,z,1,0.5652,,,,,,,,0.359375,-0.274739583,0,0,0,,0,57,57,111,1,HOSSE,C,old,z,./images/HOSSE.png,,,,,,,,,,,,,,,,,,,,,,,,,,,,,,,,,,,
,,,,,,,,,,,,,,,,,,48,2022-02-12_16h30.46.917,lexical_decision_task_DD_L4,2021.2.3,Win32,60.0348202,,,,,,,,,,,0.9938,1,,,,,,,,,,,,,,m,1,0.9938,,,,,,,,0.359375,-0.274739583,0,0,0,,0,58,58,13,1,BUNNY,HB,old,m,./images/BUNNYHB.png,,,,,,,,,,,,,,,,,,,,,,,,,,,,,,,,,,,
,,,,,,,,,,,,,,,,,,48,2022-02-12_16h30.46.917,lexical_decision_task_DD_L4,2021.2.3,Win32,60.0348202,,,,,,,,,,,0.7847,1,,,,,,,,,,,,,,m,1,0.7847,,,,,,,,0.359375,-0.274739583,0,0,0,,0,59,59,80,1,PLANET,LB,old,m,./images/PLANETLB.png,,,,,,,,,,,,,,,,,,,,,,,,,,,,,,,,,,,
,,,,,,,,,,,,,,,,,,48,2022-02-12_16h30.46.917,lexical_decision_task_DD_L4,2021.2.3,Win32,60.0348202,,,,,,,,,,,0.7497,1,,,,,,,,,,,,,,z,1,0.7497,,,,,,,,0.359375,-0.274739583,0,0,0,,0,60,60,158,1,EGECT,LB,old,z,./images/EGECTLB.png,,,,,,,,,,,,,,,,,,,,,,,,,,,,,,,,,,,
,,,,,,,,,,,,,,,,,,48,2022-02-12_16h30.46.917,lexical_decision_task_DD_L4,2021.2.3,Win32,60.0348202,,,,,,,,,,,0.8099,1,,,,,,,,,,,,,,m,1,0.8099,,,,,,,,0.359375,-0.274739583,0,0,0,,0,61,61,29,1,PISTOL,LB,old,m,./images/PISTOLLB.png,,,,,,,,,,,,,,,,,,,,,,,,,,,,,,,,,,,
,,,,,,,,,,,,,,,,,,48,2022-02-12_16h30.46.917,lexical_decision_task_DD_L4,2021.2.3,Win32,60.0348202,,,,,,,,,,,1.3824,1,,,,,,,,,,,,,,z,1,1.3824,,,,,,,,0.359375,-0.274739583,0,0,0,,0,62,62,142,1,PLASK,HB,old,z,./images/PLASKHB.png,,,,,,,,,,,,,,,,,,,,,,,,,,,,,,,,,,,
,,,,,,,,,,,,,,,,,,48,2022-02-12_16h30.46.917,lexical_decision_task_DD_L4,2021.2.3,Win32,60.0348202,,,,,,,,,,,1.8661,1,,,,,,,,,,,,,,z,1,1.8661,,,,,,,,0.359375,-0.274739583,0,0,0,,0,63,63,100,1,DRIBS,HB,old,z,./images/DRIBSHB.png,,,,,,,,,,,,,,,,,,,,,,,,,,,,,,,,,,,
,,,,,,,,,,,,,,,,,,48,2022-02-12_16h30.46.917,lexical_decision_task_DD_L4,2021.2.3,Win32,60.0348202,,,,,,,,,,,0.5802,1,,,,,,,,,,,,,,m,1,0.5802,,,,,,,,0.359375,-0.274739583,0,0,0,,0,64,64,45,1,MONKEY,C,old,m,./images/MONKEY.png,,,,,,,,,,,,,,,,,,,,,,,,,,,,,,,,,,,
,,,,,,,,,,,,,,,,,,48,2022-02-12_16h30.46.917,lexical_decision_task_DD_L4,2021.2.3,Win32,60.0348202,,,,,,,,,,,1.2401,1,,,,,,,,,,,,,,z,1,1.2401,,,,,,,,0.359375,-0.274739583,0,0,0,,0,65,65,132,1,SCIFF,C,old,z,./images/SCIFF.png,,,,,,,,,,,,,,,,,,,,,,,,,,,,,,,,,,,
,,,,,,,,,,,,,,,,,,48,2022-02-12_16h30.46.917,lexical_decision_task_DD_L4,2021.2.3,Win32,60.0348202,,,,,,,,,,,1.8165,1,,,,,,,,,,,,,,z,1,1.8165,,,,,,,,0.359375,-0.274739583,0,0,0,,0,66,66,106,1,CLUMS,HB,old,z,./images/CLUMSHB.png,,,,,,,,,,,,,,,,,,,,,,,,,,,,,,,,,,,
,,,,,,,,,,,,,,,,,,48,2022-02-12_16h30.46.917,lexical_decision_task_DD_L4,2021.2.3,Win32,60.0348202,,,,,,,,,,,1.0318,1,,,,,,,,,,,,,,z,1,1.0318,,,,,,,,0.359375,-0.274739583,0,0,0,,0,67,67,88,1,GLUSH,HB,old,z,./images/GLUSHHB.png,,,,,,,,,,,,,,,,,,,,,,,,,,,,,,,,,,,
,,,,,,,,,,,,,,,,,,48,2022-02-12_16h30.46.917,lexical_decision_task_DD_L4,2021.2.3,Win32,60.0348202,,,,,,,,,,,0.6762,1,,,,,,,,,,,,,,z,1,0.6762,,,,,,,,0.359375,-0.274739583,0,0,0,,0,68,68,156,1,HIXES,C,old,z,./images/HIXES.png,,,,,,,,,,,,,,,,,,,,,,,,,,,,,,,,,,,
,,,,,,,,,,,,,,,,,,48,2022-02-12_16h30.46.917,lexical_decision_task_DD_L4,2021.2.3,Win32,60.0348202,,,,,,,,,,,0.5932,1,,,,,,,,,,,,,,z,1,0.5932,,,,,,,,0.359375,-0.274739583,0,0,0,,0,69,69,89,1,DRIEK,LB,old,z,./images/DRIEKLB.png,,,,,,,,,,,,,,,,,,,,,,,,,,,,,,,,,,,
,,,,,,,,,,,,,,,,,,48,2022-02-12_16h30.46.917,lexical_decision_task_DD_L4,2021.2.3,Win32,60.0348202,,,,,,,,,,,0.5071,1,,,,,,,,,,,,,,m,1,0.5071,,,,,,,,0.359375,-0.274739583,0,0,0,,0,70,70,39,1,CANDY,C,old,m,./images/CANDY.png,,,,,,,,,,,,,,,,,,,,,,,,,,,,,,,,,,,
,,,,,,,,,,,,,,,,,,48,2022-02-12_16h30.46.917,lexical_decision_task_DD_L4,2021.2.3,Win32,60.0348202,,,,,,,,,,,1.1607,1,,,,,,,,,,,,,,z,1,1.1607,,,,,,,,0.359375,-0.274739583,0,0,0,,0,71,71,154,1,THINT,HB,old,z,./images/THINTHB.png,,,,,,,,,,,,,,,,,,,,,,,,,,,,,,,,,,,
,,,,,,,,,,,,,,,,,,48,2022-02-12_16h30.46.917,lexical_decision_task_DD_L4,2021.2.3,Win32,60.0348202,,,,,,,,,,,0.7023,1,,,,,,,,,,,,,,m,1,0.7023,,,,,,,,0.359375,-0.274739583,0,0,0,,0,72,72,30,1,SLOPE,C,old,m,./images/SLOPE.png,,,,,,,,,,,,,,,,,,,,,,,,,,,,,,,,,,,
,,,,,,,,,,,,,,,,,,48,2022-02-12_16h30.46.917,lexical_decision_task_DD_L4,2021.2.3,Win32,60.0348202,,,,,,,,,,,1.0489,1,,,,,,,,,,,,,,z,1,1.0489,,,,,,,,0.359375,-0.274739583,0,0,0,,0,73,73,160,1,VEETS,HB,old,z,./images/VEETSHB.png,,,,,,,,,,,,,,,,,,,,,,,,,,,,,,,,,,,
,,,,,,,,,,,,,,,,,,48,2022-02-12_16h30.46.917,lexical_decision_task_DD_L4,2021.2.3,Win32,60.0348202,,,,,,,,,,,0.7955,1,,,,,,,,,,,,,,m,1,0.7955,,,,,,,,0.359375,-0.274739583,0,0,0,,0,74,74,21,1,DANCER,C,old,m,./images/DANCER.png,,,,,,,,,,,,,,,,,,,,,,,,,,,,,,,,,,,
,,,,,,,,,,,,,,,,,,48,2022-02-12_16h30.46.917,lexical_decision_task_DD_L4,2021.2.3,Win32,60.0348202,,,,,,,,,,,0.7939,1,,,,,,,,,,,,,,m,1,0.7939,,,,,,,,0.359375,-0.274739583,0,0,0,,0,75,75,48,1,SHIELD,C,old,m,./images/SHIELD.png,,,,,,,,,,,,,,,,,,,,,,,,,,,,,,,,,,,
,,,,,,,,,,,,,,,,,,48,2022-02-12_16h30.46.917,lexical_decision_task_DD_L4,2021.2.3,Win32,60.0348202,,,,,,,,,,,0.6736,1,,,,,,,,,,,,,,z,1,0.6736,,,,,,,,0.359375,-0.274739583,0,0,0,,0,76,76,140,1,DOVET,LB,old,z,./images/DOVETLB.png,,,,,,,,,,,,,,,,,,,,,,,,,,,,,,,,,,,
,,,,,,,,,,,,,,,,,,48,2022-02-12_16h30.46.917,lexical_decision_task_DD_L4,2021.2.3,Win32,60.0348202,,,,,,,,,,,0.8526,1,,,,,,,,,,,,,,z,1,0.8526,,,,,,,,0.359375,-0.274739583,0,0,0,,0,77,77,131,1,NACES,LB,old,z,./images/NACESLB.png,,,,,,,,,,,,,,,,,,,,,,,,,,,,,,,,,,,
,,,,,,,,,,,,,,,,,,48,2022-02-12_16h30.46.917,lexical_decision_task_DD_L4,2021.2.3,Win32,60.0348202,,,,,,,,,,,1.2608,1,,,,,,,,,,,,,,m,1,1.2608,,,,,,,,0.359375,-0.274739583,0,0,0,,0,78,78,82,1,PEBBLE,HB,old,m,./images/PEBBLEHB.png,,,,,,,,,,,,,,,,,,,,,,,,,,,,,,,,,,,
,,,,,,,,,,,,,,,,,,48,2022-02-12_16h30.46.917,lexical_decision_task_DD_L4,2021.2.3,Win32,60.0348202,,,,,,,,,,,1.0021,1,,,,,,,,,,,,,,m,1,1.0021,,,,,,,,0.359375,-0.274739583,0,0,0,,0,79,79,19,1,DONKEY,HB,old,m,./images/DONKEYHB.png,,,,,,,,,,,,,,,,,,,,,,,,,,,,,,,,,,,
,,,,,,,,,,,,,,,,,,48,2022-02-12_16h30.46.917,lexical_decision_task_DD_L4,2021.2.3,Win32,60.0348202,,,,,,,,,,,0.6553,1,,,,,,,,,,,,,,z,1,0.6553,,,,,,,,0.359375,-0.274739583,0,0,0,,0,80,80,161,1,BLAPS,LB,old,z,./images/BLAPSLB.png,,,,,,,,,,,,,,,,,,,,,,,,,,,,,,,,,,,
,,,,,,,,,,,,,,,,,,48,2022-02-12_16h30.46.917,lexical_decision_task_DD_L4,2021.2.3,Win32,60.0348202,,,,,,,,,,,1.099,1,,,,,,,,,,,,,,z,1,1.099,,,,,,,,0.359375,-0.274739583,0,0,0,,0,81,81,163,1,GAMBA,HB,old,z,./images/GAMBAHB.png,,,,,,,,,,,,,,,,,,,,,,,,,,,,,,,,,,,
,,,,,,,,,,,,,,,,,,48,2022-02-12_16h30.46.917,lexical_decision_task_DD_L4,2021.2.3,Win32,60.0348202,,,,,,,,,,,0.8226,0,,,,,,,,,,,,,,m,0,0.8226,,,,,,,,0.359375,-0.274739583,0,0,0,,0,82,82,87,1,TRING,C,old,z,./images/TRING.png,,,,,,,,,,,,,,,,,,,,,,,,,,,,,,,,,,,
,,,,,,,,,,,,,,,,,,48,2022-02-12_16h30.46.917,lexical_decision_task_DD_L4,2021.2.3,Win32,60.0348202,,,,,,,,,,,1.3134,1,,,,,,,,,,,,,,z,1,1.3134,,,,,,,,0.359375,-0.274739583,0,0,0,space,0,83,83,127,1,NINDY,HB,old,z,./images/NINDYHB.png,26.3358,,,,,,,,,,,,,,,,,,,,,,,,,,,,,,,,,,
,,,,,,,,,,,,,,,,,,48,2022-02-12_16h30.46.917,lexical_decision_task_DD_L4,2021.2.3,Win32,60.0348202,,,,,,,,,,,0.8937,1,,,,,,,,,,,,,,m,1,0.8937,,,,,,,,0.359375,-0.274739583,0,0,0,,0,84,84,59,1,BRUSH,LB,old,m,./images/BRUSHLB.png,,,,,,,,,,,,,,,,,,,,,,,,,,,,,,,,,,,
,,,,,,,,,,,,,,,,,,48,2022-02-12_16h30.46.917,lexical_decision_task_DD_L4,2021.2.3,Win32,60.0348202,,,,,,,,,,,0.672,1,,,,,,,,,,,,,,z,1,0.672,,,,,,,,0.359375,-0.274739583,0,0,0,,0,85,85,95,1,HANTY,LB,old,z,./images/HANTYLB.png,,,,,,,,,,,,,,,,,,,,,,,,,,,,,,,,,,,
,,,,,,,,,,,,,,,,,,48,2022-02-12_16h30.46.917,lexical_decision_task_DD_L4,2021.2.3,Win32,60.0348202,,,,,,,,,,,0.9845,1,,,,,,,,,,,,,,m,1,0.9845,,,,,,,,0.359375,-0.274739583,0,0,0,,0,86,86,60,1,CURRY,C,old,m,./images/CURRY.png,,,,,,,,,,,,,,,,,,,,,,,,,,,,,,,,,,,
,,,,,,,,,,,,,,,,,,48,2022-02-12_16h30.46.917,lexical_decision_task_DD_L4,2021.2.3,Win32,60.0348202,,,,,,,,,,,0.6465,1,,,,,,,,,,,,,,m,1,0.6465,,,,,,,,0.359375,-0.274739583,0,0,0,,0,87,87,44,1,BASKET,LB,old,m,./images/BASKETLB.png,,,,,,,,,,,,,,,,,,,,,,,,,,,,,,,,,,,
,,,,,,,,,,,,,,,,,,48,2022-02-12_16h30.46.917,lexical_decision_task_DD_L4,2021.2.3,Win32,60.0348202,,,,,,,,,,,0.7476,1,,,,,,,,,,,,,,m,1,0.7476,,,,,,,,0.359375,-0.274739583,0,0,0,,0,88,88,41,1,STREAM,LB,old,m,./images/STREAMLB.png,,,,,,,,,,,,,,,,,,,,,,,,,,,,,,,,,,,
,,,,,,,,,,,,,,,,,,48,2022-02-12_16h30.46.917,lexical_decision_task_DD_L4,2021.2.3,Win32,60.0348202,,,,,,,,,,,0.5572,1,,,,,,,,,,,,,,z,1,0.5572,,,,,,,,0.359375,-0.274739583,0,0,0,,0,89,89,84,1,HAXES,C,old,z,./images/HAXES.png,,,,,,,,,,,,,,,,,,,,,,,,,,,,,,,,,,,
,,,,,,,,,,,,,,,,,,48,2022-02-12_16h30.46.917,lexical_decision_task_DD_L4,2021.2.3,Win32,60.0348202,,,,,,,,,,,0.8696,1,,,,,,,,,,,,,,m,1,0.8696,,,,,,,,0.359375,-0.274739583,0,0,0,,0,90,90,34,1,RAZOR,HB,old,m,./images/RAZORHB.png,,,,,,,,,,,,,,,,,,,,,,,,,,,,,,,,,,,
,,,,,,,,,,,,,,,,,,48,2022-02-12_16h30.46.917,lexical_decision_task_DD_L4,2021.2.3,Win32,60.0348202,,,,,,,,,,,0.6126,1,,,,,,,,,,,,,,z,1,0.6126,,,,,,,,0.359375,-0.274739583,0,0,0,,0,91,91,165,1,TROWN,C,old,z,./images/TROWN.png,,,,,,,,,,,,,,,,,,,,,,,,,,,,,,,,,,,
,,,,,,,,,,,,,,,,,,48,2022-02-12_16h30.46.917,lexical_decision_task_DD_L4,2021.2.3,Win32,60.0348202,,,,,,,,,,,0.7432,1,,,,,,,,,,,,,,z,1,0.7432,,,,,,,,0.359375,-0.274739583,0,0,0,,0,92,92,164,1,SGREW,LB,old,z,./images/SGREWLB.png,,,,,,,,,,,,,,,,,,,,,,,,,,,,,,,,,,,
,,,,,,,,,,,,,,,,,,48,2022-02-12_16h30.46.917,lexical_decision_task_DD_L4,2021.2.3,Win32,60.0348202,,,,,,,,,,,1.0631,1,,,,,,,,,,,,,,m,1,1.0631,,,,,,,,0.359375,-0.274739583,0,0,0,,0,93,93,52,1,DESERT,HB,old,m,./images/DESERTHB.png,,,,,,,,,,,,,,,,,,,,,,,,,,,,,,,,,,,
,,,,,,,,,,,,,,,,,,48,2022-02-12_16h30.46.917,lexical_decision_task_DD_L4,2021.2.3,Win32,60.0348202,,,,,,,,,,,0.8673,1,,,,,,,,,,,,,,z,1,0.8673,,,,,,,,0.359375,-0.2734375,0,0,0,,0,94,94,98,1,BAMPS,LB,old,z,./images/BAMPSLB.png,,,,,,,,,,,,,,,,,,,,,,,,,,,,,,,,,,,
,,,,,,,,,,,,,,,,,,48,2022-02-12_16h30.46.917,lexical_decision_task_DD_L4,2021.2.3,Win32,60.0348202,,,,,,,,,,,1.1046,1,,,,,,,,,,,,,,z,1,1.1046,,,,,,,,0.356770833,-0.272135417,0,0,0,,0,95,95,148,1,JOMS,HB,old,z,./images/JOMSHB.png,,,,,,,,,,,,,,,,,,,,,,,,,,,,,,,,,,,
,,,,,,,,,,,,,,,,,,48,2022-02-12_16h30.46.917,lexical_decision_task_DD_L4,2021.2.3,Win32,60.0348202,,,,,,,,,,,0.7071,1,,,,,,,,,,,,,,m,1,0.7071,,,,,,,,0.3515625,-0.265625,0,0,0,,0,96,96,75,1,HAMMER,C,old,m,./images/HAMMER.png,,,,,,,,,,,,,,,,,,,,,,,,,,,,,,,,,,,
,,,,,,,,,,,,,,,,,,48,2022-02-12_16h30.46.917,lexical_decision_task_DD_L4,2021.2.3,Win32,60.0348202,,,,,,,,,,,0.8506,1,,,,,,,,,,,,,,m,1,0.8506,,,,,,,,0.3515625,-0.263020833,0,0,0,,0,97,97,73,1,GLOVE,HB,old,m,./images/GLOVEHB.png,,,,,,,,,,,,,,,,,,,,,,,,,,,,,,,,,,,
,,,,,,,,,,,,,,,,,,48,2022-02-12_16h30.46.917,lexical_decision_task_DD_L4,2021.2.3,Win32,60.0348202,,,,,,,,,,,0.7271,1,,,,,,,,,,,,,,z,1,0.7271,,,,,,,,0.350260417,-0.26171875,0,0,0,,0,98,98,107,1,FASKS,LB,old,z,./images/FASKSLB.png,,,,,,,,,,,,,,,,,,,,,,,,,,,,,,,,,,,
,,,,,,,,,,,,,,,,,,48,2022-02-12_16h30.46.917,lexical_decision_task_DD_L4,2021.2.3,Win32,60.0348202,,,,,,,,,,,0.7805,1,,,,,,,,,,,,,,z,1,0.7805,,,,,,,,0.350260417,-0.260416667,0,0,0,,0,99,99,135,1,JOODY,C,old,z,./images/JOODY.png,,,,,,,,,,,,,,,,,,,,,,,,,,,,,,,,,,,
,,,,,,,,,,,,,,,,,,48,2022-02-12_16h30.46.917,lexical_decision_task_DD_L4,2021.2.3,Win32,60.0348202,,,,,,,,,,,0.9111,1,,,,,,,,,,,,,,m,1,0.9111,,,,,,,,0.350260417,-0.260416667,0,0,0,,0,100,100,55,1,ALLEY,HB,old,m,./images/ALLEYHB.png,,,,,,,,,,,,,,,,,,,,,,,,,,,,,,,,,,,
,,,,,,,,,,,,,,,,,,48,2022-02-12_16h30.46.917,lexical_decision_task_DD_L4,2021.2.3,Win32,60.0348202,,,,,,,,,,,1.0954,0,,,,,,,,,,,,,,m,0,1.0954,,,,,,,,0.348958333,-0.259114583,0,0,0,,0,101,101,128,1,GRIFT,LB,old,z,./images/GRIFTLB.png,,,,,,,,,,,,,,,,,,,,,,,,,,,,,,,,,,,
,,,,,,,,,,,,,,,,,,48,2022-02-12_16h30.46.917,lexical_decision_task_DD_L4,2021.2.3,Win32,60.0348202,,,,,,,,,,,1.4966,1,,,,,,,,,,,,,,z,1,1.4966,,,,,,,,0.348958333,-0.259114583,0,0,0,,0,102,102,133,1,POWDY,HB,old,z,./images/POWDYHB.png,,,,,,,,,,,,,,,,,,,,,,,,,,,,,,,,,,,
,,,,,,,,,,,,,,,,,,48,2022-02-12_16h30.46.917,lexical_decision_task_DD_L4,2021.2.3,Win32,60.0348202,,,,,,,,,,,0.8527,1,,,,,,,,,,,,,,z,1,0.8527,,,,,,,,0.348958333,-0.259114583,0,0,0,,0,103,103,143,1,MONGS,LB,old,z,./images/MONGSLB.png,,,,,,,,,,,,,,,,,,,,,,,,,,,,,,,,,,,
,,,,,,,,,,,,,,,,,,48,2022-02-12_16h30.46.917,lexical_decision_task_DD_L4,2021.2.3,Win32,60.0348202,,,,,,,,,,,0.7196,1,,,,,,,,,,,,,,z,1,0.7196,,,,,,,,0.348958333,-0.259114583,0,0,0,,0,104,104,86,1,AIFED,LB,old,z,./images/AIFEDLB.png,,,,,,,,,,,,,,,,,,,,,,,,,,,,,,,,,,,
,,,,,,,,,,,,,,,,,,48,2022-02-12_16h30.46.917,lexical_decision_task_DD_L4,2021.2.3,Win32,60.0348202,,,,,,,,,,,1.0771,1,,,,,,,,,,,,,,m,1,1.0771,,,,,,,,0.348958333,-0.259114583,0,0,0,,0,105,105,28,1,CASINO,HB,old,m,./images/CASINOHB.png,,,,,,,,,,,,,,,,,,,,,,,,,,,,,,,,,,,
,,,,,,,,,,,,,,,,,,48,2022-02-12_16h30.46.917,lexical_decision_task_DD_L4,2021.2.3,Win32,60.0348202,,,,,,,,,,,0.684,1,,,,,,,,,,,,,,z,1,0.684,,,,,,,,0.348958333,-0.259114583,0,0,0,,0,106,106,93,1,SMONE,C,old,z,./images/SMONE.png,,,,,,,,,,,,,,,,,,,,,,,,,,,,,,,,,,,
,,,,,,,,,,,,,,,,,,48,2022-02-12_16h30.46.917,lexical_decision_task_DD_L4,2021.2.3,Win32,60.0348202,,,,,,,,,,,0.8454,1,,,,,,,,,,,,,,z,1,0.8454,,,,,,,,0.348958333,-0.259114583,0,0,0,,0,107,107,145,1,LAMEL,HB,old,z,./images/LAMELHB.png,,,,,,,,,,,,,,,,,,,,,,,,,,,,,,,,,,,
,,,,,,,,,,,,,,,,,,48,2022-02-12_16h30.46.917,lexical_decision_task_DD_L4,2021.2.3,Win32,60.0348202,,,,,,,,,,,0.9738,1,,,,,,,,,,,,,,m,1,0.9738,,,,,,,,0.348958333,-0.259114583,0,0,0,,0,108,108,4,1,BOXER,HB,old,m,./images/BOXERHB.png,,,,,,,,,,,,,,,,,,,,,,,,,,,,,,,,,,,
,,,,,,,,,,,,,,,,,,48,2022-02-12_16h30.46.917,lexical_decision_task_DD_L4,2021.2.3,Win32,60.0348202,,,,,,,,,,,0.9339,1,,,,,,,,,,,,,,z,1,0.9339,,,,,,,,0.348958333,-0.259114583,0,0,0,,0,109,109,139,1,BLEAR,HB,old,z,./images/BLEARHB.png,,,,,,,,,,,,,,,,,,,,,,,,,,,,,,,,,,,
,,,,,,,,,,,,,,,,,,48,2022-02-12_16h30.46.917,lexical_decision_task_DD_L4,2021.2.3,Win32,60.0348202,,,,,,,,,,,0.8649,1,,,,,,,,,,,,,,m,1,0.8649,,,,,,,,0.348958333,-0.259114583,0,0,0,,0,110,110,65,1,SPINE,LB,old,m,./images/SPINELB.png,,,,,,,,,,,,,,,,,,,,,,,,,,,,,,,,,,,
,,,,,,,,,,,,,,,,,,48,2022-02-12_16h30.46.917,lexical_decision_task_DD_L4,2021.2.3,Win32,60.0348202,,,,,,,,,,,0.8138,1,,,,,,,,,,,,,,m,1,0.8138,,,,,,,,0.348958333,-0.259114583,0,0,0,,0,111,111,47,1,LAGOON,LB,old,m,./images/LAGOONLB.png,,,,,,,,,,,,,,,,,,,,,,,,,,,,,,,,,,,
,,,,,,,,,,,,,,,,,,48,2022-02-12_16h30.46.917,lexical_decision_task_DD_L4,2021.2.3,Win32,60.0348202,,,,,,,,,,,0.8454,1,,,,,,,,,,,,,,z,1,0.8454,,,,,,,,0.348958333,-0.259114583,0,0,0,,0,112,112,124,1,TUNCH,HB,old,z,./images/TUNCHHB.png,,,,,,,,,,,,,,,,,,,,,,,,,,,,,,,,,,,
,,,,,,,,,,,,,,,,,,48,2022-02-12_16h30.46.917,lexical_decision_task_DD_L4,2021.2.3,Win32,60.0348202,,,,,,,,,,,0.5594,1,,,,,,,,,,,,,,m,1,0.5594,,,,,,,,0.348958333,-0.259114583,0,0,0,,0,113,113,38,1,ENGINE,LB,old,m,./images/ENGINELB.png,,,,,,,,,,,,,,,,,,,,,,,,,,,,,,,,,,,
,,,,,,,,,,,,,,,,,,48,2022-02-12_16h30.46.917,lexical_decision_task_DD_L4,2021.2.3,Win32,60.0348202,,,,,,,,,,,0.7263,1,,,,,,,,,,,,,,z,1,0.7263,,,,,,,,0.34765625,-0.259114583,0,0,0,,0,114,114,144,1,NAIRY,C,old,z,./images/NAIRY.png,,,,,,,,,,,,,,,,,,,,,,,,,,,,,,,,,,,
,,,,,,,,,,,,,,,,,,48,2022-02-12_16h30.46.917,lexical_decision_task_DD_L4,2021.2.3,Win32,60.0348202,,,,,,,,,,,0.8715,1,,,,,,,,,,,,,,m,1,0.8715,,,,,,,,0.34765625,-0.259114583,0,0,0,,0,115,115,23,1,CLOTH,LB,old,m,./images/CLOTHLB.png,,,,,,,,,,,,,,,,,,,,,,,,,,,,,,,,,,,
,,,,,,,,,,,,,,,,,,48,2022-02-12_16h30.46.917,lexical_decision_task_DD_L4,2021.2.3,Win32,60.0348202,,,,,,,,,,,1.4279,1,,,,,,,,,,,,,,m,1,1.4279,,,,,,,,0.34765625,-0.259114583,0,0,0,,0,116,116,40,1,SNAKE,HB,old,m,./images/SNAKEHB.png,,,,,,,,,,,,,,,,,,,,,,,,,,,,,,,,,,,
,,,,,,,,,,,,,,,,,,48,2022-02-12_16h30.46.917,lexical_decision_task_DD_L4,2021.2.3,Win32,60.0348202,,,,,,,,,,,0.8345,1,,,,,,,,,,,,,,m,1,0.8345,,,,,,,,0.34765625,-0.259114583,0,0,0,,0,117,117,72,1,FLASK,C,old,m,./images/FLASK.png,,,,,,,,,,,,,,,,,,,,,,,,,,,,,,,,,,,
,,,,,,,,,,,,,,,,,,48,2022-02-12_16h30.46.917,lexical_decision_task_DD_L4,2021.2.3,Win32,60.0348202,,,,,,,,,,,1.1845,1,,,,,,,,,,,,,,z,1,1.1845,,,,,,,,0.34765625,-0.259114583,0,0,0,,0,118,118,121,1,CEERS,HB,old,z,./images/CEERSHB.png,,,,,,,,,,,,,,,,,,,,,,,,,,,,,,,,,,,
,,,,,,,,,,,,,,,,,,48,2022-02-12_16h30.46.917,lexical_decision_task_DD_L4,2021.2.3,Win32,60.0348202,,,,,,,,,,,0.9474,1,,,,,,,,,,,,,,z,1,0.9474,,,,,,,,0.34765625,-0.259114583,0,0,0,,0,119,119,152,1,FRAIN,LB,old,z,./images/FRAINLB.png,,,,,,,,,,,,,,,,,,,,,,,,,,,,,,,,,,,
,,,,,,,,,,,,,,,,,,48,2022-02-12_16h30.46.917,lexical_decision_task_DD_L4,2021.2.3,Win32,60.0348202,,,,,,,,,,,0.7507,1,,,,,,,,,,,,,,m,1,0.7507,,,,,,,,0.34765625,-0.259114583,0,0,0,,0,120,120,69,1,ARROW,C,old,m,./images/ARROW.png,,,,,,,,,,,,,,,,,,,,,,,,,,,,,,,,,,,
,,,,,,,,,,,,,,,,,,48,2022-02-12_16h30.46.917,lexical_decision_task_DD_L4,2021.2.3,Win32,60.0348202,,,,,,,,,,,0.8952,1,,,,,,,,,,,,,,z,1,0.8952,,,,,,,,0.34765625,-0.259114583,0,0,0,,0,121,121,101,1,GLEET,LB,old,z,./images/GLEETLB.png,,,,,,,,,,,,,,,,,,,,,,,,,,,,,,,,,,,
,,,,,,,,,,,,,,,,,,48,2022-02-12_16h30.46.917,lexical_decision_task_DD_L4,2021.2.3,Win32,60.0348202,,,,,,,,,,,1.0895,1,,,,,,,,,,,,,,z,1,1.0895,,,,,,,,0.34765625,-0.259114583,0,0,0,,0,122,122,119,1,PAFER,LB,old,z,./images/PAFERLB.png,,,,,,,,,,,,,,,,,,,,,,,,,,,,,,,,,,,
,,,,,,,,,,,,,,,,,,48,2022-02-12_16h30.46.917,lexical_decision_task_DD_L4,2021.2.3,Win32,60.0348202,,,,,,,,,,,1.1179,1,,,,,,,,,,,,,,m,1,1.1179,,,,,,,,0.34765625,-0.259114583,0,0,0,,0,123,123,35,1,LLAMA,LB,old,m,./images/LLAMALB.png,,,,,,,,,,,,,,,,,,,,,,,,,,,,,,,,,,,
,,,,,,,,,,,,,,,,,,48,2022-02-12_16h30.46.917,lexical_decision_task_DD_L4,2021.2.3,Win32,60.0348202,,,,,,,,,,,0.7092,1,,,,,,,,,,,,,,m,1,0.7092,,,,,,,,0.348958333,-0.26171875,0,0,0,,0,124,124,54,1,CHERRY,C,old,m,./images/CHERRY.png,,,,,,,,,,,,,,,,,,,,,,,,,,,,,,,,,,,
,,,,,,,,,,,,,,,,,,48,2022-02-12_16h30.46.917,lexical_decision_task_DD_L4,2021.2.3,Win32,60.0348202,,,,,,,,,,,0.9662,0,,,,,,,,,,,,,,z,0,0.9662,,,,,,,,0.348958333,-0.26171875,0,0,0,space,0,125,125,83,1,WHISKY,LB,old,m,./images/WHISKYLB.png,17.6279,,,,,,,,,,,,,,,,,,,,,,,,,,,,,,,,,,
,,,,,,,,,,,,,,,,,,48,2022-02-12_16h30.46.917,lexical_decision_task_DD_L4,2021.2.3,Win32,60.0348202,,,,,,,,,,,0.8678,1,,,,,,,,,,,,,,m,1,0.8678,,,,,,,,0.348958333,-0.26171875,0,0,0,,0,126,126,32,1,HOCKEY,LB,old,m,./images/HOCKEYLB.png,,,,,,,,,,,,,,,,,,,,,,,,,,,,,,,,,,,
,,,,,,,,,,,,,,,,,,48,2022-02-12_16h30.46.917,lexical_decision_task_DD_L4,2021.2.3,Win32,60.0348202,,,,,,,,,,,0.662,1,,,,,,,,,,,,,,z,1,0.662,,,,,,,,0.348958333,-0.26171875,0,0,0,,0,127,127,116,1,BALGY,LB,old,z,./images/BALGYLB.png,,,,,,,,,,,,,,,,,,,,,,,,,,,,,,,,,,,
,,,,,,,,,,,,,,,,,,48,2022-02-12_16h30.46.917,lexical_decision_task_DD_L4,2021.2.3,Win32,60.0348202,,,,,,,,,,,0.9618,1,,,,,,,,,,,,,,m,1,0.9618,,,,,,,,0.34765625,-0.26171875,0,0,0,,0,128,128,10,1,GARDEN,HB,old,m,./images/GARDENHB.png,,,,,,,,,,,,,,,,,,,,,,,,,,,,,,,,,,,
,,,,,,,,,,,,,,,,,,48,2022-02-12_16h30.46.917,lexical_decision_task_DD_L4,2021.2.3,Win32,60.0348202,,,,,,,,,,,0.7339,1,,,,,,,,,,,,,,z,1,0.7339,,,,,,,,0.34765625,-0.256510417,0,0,0,,0,129,129,104,1,GITTY,LB,old,z,./images/GITTYLB.png,,,,,,,,,,,,,,,,,,,,,,,,,,,,,,,,,,,
,,,,,,,,,,,,,,,,,,48,2022-02-12_16h30.46.917,lexical_decision_task_DD_L4,2021.2.3,Win32,60.0348202,,,,,,,,,,,1.871,1,,,,,,,,,,,,,,z,1,1.871,,,,,,,,0.34765625,-0.256510417,0,0,0,,0,130,130,166,1,SHORY,HB,old,z,./images/SHORYHB.png,,,,,,,,,,,,,,,,,,,,,,,,,,,,,,,,,,,
,,,,,,,,,,,,,,,,,,48,2022-02-12_16h30.46.917,lexical_decision_task_DD_L4,2021.2.3,Win32,60.0348202,,,,,,,,,,,0.8481,1,,,,,,,,,,,,,,m,1,0.8481,,,,,,,,0.34765625,-0.256510417,0,0,0,,0,131,131,61,1,ARTIST,HB,old,m,./images/ARTISTHB.png,,,,,,,,,,,,,,,,,,,,,,,,,,,,,,,,,,,
,,,,,,,,,,,,,,,,,,48,2022-02-12_16h30.46.917,lexical_decision_task_DD_L4,2021.2.3,Win32,60.0348202,,,,,,,,,,,0.9772,1,,,,,,,,,,,,,,m,1,0.9772,,,,,,,,0.34765625,-0.256510417,0,0,0,,0,132,132,37,1,TIGER,HB,old,m,./images/TIGERHB.png,,,,,,,,,,,,,,,,,,,,,,,,,,,,,,,,,,,
,,,,,,,,,,,,,,,,,,48,2022-02-12_16h30.46.917,lexical_decision_task_DD_L4,2021.2.3,Win32,60.0348202,,,,,,,,,,,0.9802,1,,,,,,,,,,,,,,m,1,0.9802,,,,,,,,0.34765625,-0.256510417,0,0,0,,0,133,133,7,1,WAGON,HB,old,m,./images/WAGONHB.png,,,,,,,,,,,,,,,,,,,,,,,,,,,,,,,,,,,
,,,,,,,,,,,,,,,,,,48,2022-02-12_16h30.46.917,lexical_decision_task_DD_L4,2021.2.3,Win32,60.0348202,,,,,,,,,,,1.0569,1,,,,,,,,,,,,,,z,1,1.0569,,,,,,,,0.34765625,-0.256510417,0,0,0,,0,134,134,159,1,CUDDY,C,old,z,./images/CUDDY.png,,,,,,,,,,,,,,,,,,,,,,,,,,,,,,,,,,,
,,,,,,,,,,,,,,,,,,48,2022-02-12_16h30.46.917,lexical_decision_task_DD_L4,2021.2.3,Win32,60.0348202,,,,,,,,,,,1.0964,1,,,,,,,,,,,,,,z,1,1.0964,,,,,,,,0.34765625,-0.256510417,0,0,0,,0,135,135,102,1,DULLE,C,old,z,./images/DULLE.png,,,,,,,,,,,,,,,,,,,,,,,,,,,,,,,,,,,
,,,,,,,,,,,,,,,,,,48,2022-02-12_16h30.46.917,lexical_decision_task_DD_L4,2021.2.3,Win32,60.0348202,,,,,,,,,,,0.9243,1,,,,,,,,,,,,,,z,1,0.9243,,,,,,,,0.34765625,-0.256510417,0,0,0,,0,136,136,120,1,RINED,C,old,z,./images/RINED.png,,,,,,,,,,,,,,,,,,,,,,,,,,,,,,,,,,,
,,,,,,,,,,,,,,,,,,48,2022-02-12_16h30.46.917,lexical_decision_task_DD_L4,2021.2.3,Win32,60.0348202,,,,,,,,,,,0.5688,1,,,,,,,,,,,,,,z,1,0.5688,,,,,,,,0.34765625,-0.256510417,0,0,0,,0,137,137,150,1,NOOLS,C,old,z,./images/NOOLS.png,,,,,,,,,,,,,,,,,,,,,,,,,,,,,,,,,,,
,,,,,,,,,,,,,,,,,,48,2022-02-12_16h30.46.917,lexical_decision_task_DD_L4,2021.2.3,Win32,60.0348202,,,,,,,,,,,0.6947,1,,,,,,,,,,,,,,m,1,0.6947,,,,,,,,0.34765625,-0.255208333,0,0,0,,0,138,138,71,1,BUBBLE,LB,old,m,./images/BUBBLELB.png,,,,,,,,,,,,,,,,,,,,,,,,,,,,,,,,,,,
,,,,,,,,,,,,,,,,,,48,2022-02-12_16h30.46.917,lexical_decision_task_DD_L4,2021.2.3,Win32,60.0348202,,,,,,,,,,,0.6253,1,,,,,,,,,,,,,,z,1,0.6253,,,,,,,,0.346354167,-0.251302083,0,0,0,,0,139,139,126,1,GUELS,C,old,z,./images/GUELS.png,,,,,,,,,,,,,,,,,,,,,,,,,,,,,,,,,,,
,,,,,,,,,,,,,,,,,,48,2022-02-12_16h30.46.917,lexical_decision_task_DD_L4,2021.2.3,Win32,60.0348202,,,,,,,,,,,0.6813,1,,,,,,,,,,,,,,m,1,0.6813,,,,,,,,0.346354167,-0.251302083,0,0,0,,0,140,140,81,1,DRILL,C,old,m,./images/DRILL.png,,,,,,,,,,,,,,,,,,,,,,,,,,,,,,,,,,,
,,,,,,,,,,,,,,,,,,48,2022-02-12_16h30.46.917,lexical_decision_task_DD_L4,2021.2.3,Win32,60.0348202,,,,,,,,,,,0.949,1,,,,,,,,,,,,,,z,1,0.949,,,,,,,,0.346354167,-0.251302083,0,0,0,,0,141,141,99,1,BACKY,C,old,z,./images/BACKY.png,,,,,,,,,,,,,,,,,,,,,,,,,,,,,,,,,,,
,,,,,,,,,,,,,,,,,,48,2022-02-12_16h30.46.917,lexical_decision_task_DD_L4,2021.2.3,Win32,60.0348202,,,,,,,,,,,0.7742,1,,,,,,,,,,,,,,z,1,0.7742,,,,,,,,0.346354167,-0.251302083,0,0,0,,0,142,142,153,1,CLUPS,C,old,z,./images/CLUPS.png,,,,,,,,,,,,,,,,,,,,,,,,,,,,,,,,,,,
,,,,,,,,,,,,,,,,,,48,2022-02-12_16h30.46.917,lexical_decision_task_DD_L4,2021.2.3,Win32,60.0348202,,,,,,,,,,,0.8491,1,,,,,,,,,,,,,,m,1,0.8491,,,,,,,,0.346354167,-0.251302083,0,0,0,,0,143,143,9,1,DIVER,C,old,m,./images/DIVER.png,,,,,,,,,,,,,,,,,,,,,,,,,,,,,,,,,,,
,,,,,,,,,,,,,,,,,,48,2022-02-12_16h30.46.917,lexical_decision_task_DD_L4,2021.2.3,Win32,60.0348202,,,,,,,,,,,0.7683,1,,,,,,,,,,,,,,m,1,0.7683,,,,,,,,0.346354167,-0.248697917,0,0,0,,0,144,144,33,1,SAUNA,C,old,m,./images/SAUNA.png,,,,,,,,,,,,,,,,,,,,,,,,,,,,,,,,,,,
,,,,,,,,,,,,,,,,,,48,2022-02-12_16h30.46.917,lexical_decision_task_DD_L4,2021.2.3,Win32,60.0348202,,,,,,,,,,,0.7525,1,,,,,,,,,,,,,,m,1,0.7525,,,,,,,,0.346354167,-0.248697917,0,0,0,,0,145,145,16,1,GRAPE,HB,old,m,./images/GRAPEHB.png,,,,,,,,,,,,,,,,,,,,,,,,,,,,,,,,,,,
,,,,,,,,,,,,,,,,,,48,2022-02-12_16h30.46.917,lexical_decision_task_DD_L4,2021.2.3,Win32,60.0348202,,,,,,,,,,,0.5468,1,,,,,,,,,,,,,,m,1,0.5468,,,,,,,,0.346354167,-0.248697917,0,0,0,,0,146,146,27,1,BUTTER,C,old,m,./images/BUTTER.png,,,,,,,,,,,,,,,,,,,,,,,,,,,,,,,,,,,
,,,,,,,,,,,,,,,,,,48,2022-02-12_16h30.46.917,lexical_decision_task_DD_L4,2021.2.3,Win32,60.0348202,,,,,,,,,,,0.6738,1,,,,,,,,,,,,,,m,1,0.6738,,,,,,,,0.346354167,-0.248697917,0,0,0,,0,147,147,36,1,BOILER,C,old,m,./images/BOILER.png,,,,,,,,,,,,,,,,,,,,,,,,,,,,,,,,,,,
,,,,,,,,,,,,,,,,,,48,2022-02-12_16h30.46.917,lexical_decision_task_DD_L4,2021.2.3,Win32,60.0348202,,,,,,,,,,,0.6404,1,,,,,,,,,,,,,,m,1,0.6404,,,,,,,,0.346354167,-0.247395833,0,0,0,,0,148,148,18,1,PARCEL,C,old,m,./images/PARCEL.png,,,,,,,,,,,,,,,,,,,,,,,,,,,,,,,,,,,
,,,,,,,,,,,,,,,,,,48,2022-02-12_16h30.46.917,lexical_decision_task_DD_L4,2021.2.3,Win32,60.0348202,,,,,,,,,,,0.7186,1,,,,,,,,,,,,,,z,1,0.7186,,,,,,,,0.346354167,-0.247395833,0,0,0,,0,149,149,92,1,PAIMS,LB,old,z,./images/PAIMSLB.png,,,,,,,,,,,,,,,,,,,,,,,,,,,,,,,,,,,
,,,,,,,,,,,,,,,,,,48,2022-02-12_16h30.46.917,lexical_decision_task_DD_L4,2021.2.3,Win32,60.0348202,,,,,,,,,,,0.6626,1,,,,,,,,,,,,,,m,1,0.6626,,,,,,,,0.345052083,-0.24609375,0,0,0,,0,150,150,63,1,BAKER,C,old,m,./images/BAKER.png,,,,,,,,,,,,,,,,,,,,,,,,,,,,,,,,,,,
,,,,,,,,,,,,,,,,,,48,2022-02-12_16h30.46.917,lexical_decision_task_DD_L4,2021.2.3,Win32,60.0348202,,,,,,,,,,,0.9612,1,,,,,,,,,,,,,,m,1,0.9612,,,,,,,,0.34375,-0.24609375,0,0,0,,0,151,151,25,1,CHALK,HB,old,m,./images/CHALKHB.png,,,,,,,,,,,,,,,,,,,,,,,,,,,,,,,,,,,
,,,,,,,,,,,,,,,,,,48,2022-02-12_16h30.46.917,lexical_decision_task_DD_L4,2021.2.3,Win32,60.0348202,,,,,,,,,,,0.8789,1,,,,,,,,,,,,,,m,1,0.8789,,,,,,,,0.34375,-0.24609375,0,0,0,,0,152,152,43,1,STOOL,HB,old,m,./images/STOOLHB.png,,,,,,,,,,,,,,,,,,,,,,,,,,,,,,,,,,,
,,,,,,,,,,,,,,,,,,48,2022-02-12_16h30.46.917,lexical_decision_task_DD_L4,2021.2.3,Win32,60.0348202,,,,,,,,,,,0.6236,1,,,,,,,,,,,,,,z,1,0.6236,,,,,,,,0.34375,-0.244791667,0,0,0,,0,153,153,105,1,MOKER,C,old,z,./images/MOKER.png,,,,,,,,,,,,,,,,,,,,,,,,,,,,,,,,,,,
,,,,,,,,,,,,,,,,,,48,2022-02-12_16h30.46.917,lexical_decision_task_DD_L4,2021.2.3,Win32,60.0348202,,,,,,,,,,,1.2376,1,,,,,,,,,,,,,,m,1,1.2376,,,,,,,,0.34375,-0.244791667,0,0,0,,0,154,154,58,1,CANOE,HB,old,m,./images/CANOEHB.png,,,,,,,,,,,,,,,,,,,,,,,,,,,,,,,,,,,
,,,,,,,,,,,,,,,,,,48,2022-02-12_16h30.46.917,lexical_decision_task_DD_L4,2021.2.3,Win32,60.0348202,,,,,,,,,,,1.2238,1,,,,,,,,,,,,,,z,1,1.2238,,,,,,,,0.34375,-0.244791667,0,0,0,,0,155,155,97,1,CHIDS,HB,old,z,./images/CHIDSHB.png,,,,,,,,,,,,,,,,,,,,,,,,,,,,,,,,,,,
,,,,,,,,,,,,,,,,,,48,2022-02-12_16h30.46.917,lexical_decision_task_DD_L4,2021.2.3,Win32,60.0348202,,,,,,,,,,,0.7499,1,,,,,,,,,,,,,,m,1,0.7499,,,,,,,,0.34375,-0.244791667,0,0,0,,0,156,156,62,1,MAMMAL,LB,old,m,./images/MAMMALLB.png,,,,,,,,,,,,,,,,,,,,,,,,,,,,,,,,,,,
,,,,,,,,,,,,,,,,,,48,2022-02-12_16h30.46.917,lexical_decision_task_DD_L4,2021.2.3,Win32,60.0348202,,,,,,,,,,,0.5789,1,,,,,,,,,,,,,,m,1,0.5789,,,,,,,,0.34375,-0.244791667,0,0,0,,0,157,157,26,1,CLOUD,LB,old,m,./images/CLOUDLB.png,,,,,,,,,,,,,,,,,,,,,,,,,,,,,,,,,,,
,,,,,,,,,,,,,,,,,,48,2022-02-12_16h30.46.917,lexical_decision_task_DD_L4,2021.2.3,Win32,60.0348202,,,,,,,,,,,0.6495,1,,,,,,,,,,,,,,m,1,0.6495,,,,,,,,0.34375,-0.244791667,0,0,0,,0,158,158,5,1,BAMBOO,LB,old,m,./images/BAMBOOLB.png,,,,,,,,,,,,,,,,,,,,,,,,,,,,,,,,,,,
,,,,,,,,,,,,,,,,,,48,2022-02-12_16h30.46.917,lexical_decision_task_DD_L4,2021.2.3,Win32,60.0348202,,,,,,,,,,,1.077,1,,,,,,,,,,,,,,z,1,1.077,,,,,,,,0.34375,-0.244791667,0,0,0,,0,159,159,110,1,CRUNK,LB,old,z,./images/CRUNKLB.png,,,,,,,,,,,,,,,,,,,,,,,,,,,,,,,,,,,
,,,,,,,,,,,,,,,,,,48,2022-02-12_16h30.46.917,lexical_decision_task_DD_L4,2021.2.3,Win32,60.0348202,,,,,,,,,,,0.9837,1,,,,,,,,,,,,,,z,1,0.9837,,,,,,,,0.34375,-0.244791667,0,0,0,,0,160,160,149,1,VEASE,LB,old,z,./images/VEASELB.png,,,,,,,,,,,,,,,,,,,,,,,,,,,,,,,,,,,
,,,,,,,,,,,,,,,,,,48,2022-02-12_16h30.46.917,lexical_decision_task_DD_L4,2021.2.3,Win32,60.0348202,,,,,,,,,,,1.2118,1,,,,,,,,,,,,,,m,1,1.2118,,,,,,,,0.34375,-0.244791667,0,0,0,,0,161,161,31,1,STEAK,HB,old,m,./images/STEAKHB.png,,,,,,,,,,,,,,,,,,,,,,,,,,,,,,,,,,,
,,,,,,,,,,,,,,,,,,48,2022-02-12_16h30.46.917,lexical_decision_task_DD_L4,2021.2.3,Win32,60.0348202,,,,,,,,,,,0.7314,1,,,,,,,,,,,,,,m,1,0.7314,,,,,,,,0.34375,-0.244791667,0,0,0,,0,162,162,57,1,FERRY,C,old,m,./images/FERRY.png,,,,,,,,,,,,,,,,,,,,,,,,,,,,,,,,,,,
,,,,,,,,,,,,,,,,,,48,2022-02-12_16h30.46.917,lexical_decision_task_DD_L4,2021.2.3,Win32,60.0348202,,,,,,,,,,,0.5292,1,,,,,,,,,,,,,,m,1,0.5292,,,,,,,,0.34375,-0.244791667,0,0,0,,0,163,163,56,1,HEATER,LB,old,m,./images/HEATERLB.png,,,,,,,,,,,,,,,,,,,,,,,,,,,,,,,,,,,
,,,,,,,,,,,,,,,,,,48,2022-02-12_16h30.46.917,lexical_decision_task_DD_L4,2021.2.3,Win32,60.0348202,,,,,,,,,,,0.6947,1,,,,,,,,,,,,,,m,1,0.6947,,,,,,,,0.34375,-0.244791667,0,0,0,,0,164,164,68,1,VALLEY,LB,old,m,./images/VALLEYLB.png,,,,,,,,,,,,,,,,,,,,,,,,,,,,,,,,,,,
,,,,,,,,,,,,,,,,,,48,2022-02-12_16h30.46.917,lexical_decision_task_DD_L4,2021.2.3,Win32,60.0348202,,,,,,,,,,,1.0095,1,,,,,,,,,,,,,,z,1,1.0095,,,,,,,,0.34375,-0.244791667,0,0,0,,0,165,165,162,1,LEICH,C,old,z,./images/LEICH.png,,,,,,,,,,,,,,,,,,,,,,,,,,,,,,,,,,,
,,,,,,,,,,,,,,,,,,48,2022-02-12_16h30.46.917,lexical_decision_task_DD_L4,2021.2.3,Win32,60.0348202,,,,,,,,,,,0.6243,1,,,,,,,,,,,,,,z,1,0.6243,,,,,,,,0.34375,-0.243489583,0,0,0,,0,166,166,117,1,STEEG,C,old,z,./images/STEEG.png,,,,,,,,,,,,,,,,,,,,,,,,,,,,,,,,,,,
,,,,,,,,,,,,,,,,,,48,2022-02-12_16h30.46.917,lexical_decision_task_DD_L4,2021.2.3,Win32,60.0348202,,,,,,,,,,,1.1811,1,,,,,,,,,,,,,,z,1,1.1811,,,,,,,,0.34375,-0.243489583,0,0,0,,0,167,167,129,1,PRANS,C,old,z,./images/PRANS.png,,,,,,,,,,,,,,,,,,,,,,,,,,,,,,,,,,,
,,,,,,,,,,,,,,,,,,48,2022-02-12_16h30.46.917,lexical_decision_task_DD_L4,2021.2.3,Win32,60.0348202,,,,,,,,,,,,,,,,,,,,,,,,,,,,,,,,,,,,,,,,,,,,,,,,How likely will it be that you will recognize the words presented slighly blurred on a scale of 0 (not likely) to 100 (most likely)?,,,,,-0.002604167,-0.38671875,1,0,0,jol_adv,5,13.412,0,0,0,1,1,,,,,,,,,,,,,,,,,,,,,
,,,,,,,,,,,,,,,,,,48,2022-02-12_16h30.46.917,lexical_decision_task_DD_L4,2021.2.3,Win32,60.0348202,,,,,,,,,,,,,,,,,,,,,,,,,,,,,,,,,,,,,,,,,,,,,,,,How likely will it be that you will recognize the words presented clearly on a scale of 0 (not likely) to 100 (most likely)?,,,,,,,,,,,6,16.8663,0,1,1,0,1,,,,,,,,,,,,,,,,,,,,,
,,,,,,,,,,,,,,,,,,48,2022-02-12_16h30.46.917,lexical_decision_task_DD_L4,2021.2.3,Win32,60.0348202,,,,,,,,,,,,,,,,,,,,,,,,,,,,,,,,,,,,,,,,,,,,,,,,How likely will it be that you will recognize the words presented very blurred on a scale of 0 (not likely) to 100 (most likely)?,,,,,,,,,,,4,7.4867,0,2,2,2,1,,,,,,,,,,,,,,,,,,,,,
space,17.3931,0.184895833,-0.204427083,0,0,0,,,,,,1,test,"In the next phase you will be presented with the words from the the first phase. Your job is to decide whether you remember seeing the word or not. If you remember seeing the word press ""old"" or type ""m"". If you do not remember seeing the word press ""new"" or type ""z"". Please press the space bar or click on continue to begin. ",,,,48,2022-02-12_16h30.46.917,lexical_decision_task_DD_L4,2021.2.3,Win32,60.0348202,,,,,,,,,,,,,,,,,,,,,,,,,,,,,,,,,,,,,,,,,,,,,,,,,,,,,,,,,,,,,,,,,,0,0,0,0,1,,,,,,,,,,,,,,,,
,,0.095052083,-0.407552083,1,0,0,,,,,,1,test,"In the next phase you will be presented with the words from the the first phase. Your job is to decide whether you remember seeing the word or not. If you remember seeing the word press ""old"" or type ""m"". If you do not remember seeing the word press ""new"" or type ""z"". Please press the space bar or click on continue to begin. ",,,,48,2022-02-12_16h30.46.917,lexical_decision_task_DD_L4,2021.2.3,Win32,60.0348202,,,,,,,,,,,,,,,,,,,,,,,,,,,,,,,,,,,,,,,,,,,,,,,,,,,,,,,,,,,,,,,,,,1,0,1,0,1,instr_done_button,,,,,,,,,,,,,,,
space,3.7206,0.006510417,-0.274739583,0,0,0,,,,,,1,test,"In the next phase you will be presented with the words from the the first phase. Your job is to decide whether you remember seeing the word or not. If you remember seeing the word press ""old"" or type ""m"". If you do not remember seeing the word press ""new"" or type ""z"". Please press the space bar or click on continue to begin. ",,,,48,2022-02-12_16h30.46.917,lexical_decision_task_DD_L4,2021.2.3,Win32,60.0348202,,,,,,,,,,,,,,,,,,,,,,,,,,,,,,,,,,,,,,,,,,,,,,,,,,,,,,,,,,,,,,,,,,2,0,2,0,1,,,,,,,,,,,,,,,,
,,-0.010416667,-0.423177083,1,0,0,,,,,,1,test,"In the next phase you will be presented with the words from the the first phase. Your job is to decide whether you remember seeing the word or not. If you remember seeing the word press ""old"" or type ""m"". If you do not remember seeing the word press ""new"" or type ""z"". Please press the space bar or click on continue to begin. ",,,,48,2022-02-12_16h30.46.917,lexical_decision_task_DD_L4,2021.2.3,Win32,60.0348202,,,,,,,,,,,,,,,,,,,,,,,,,,,,,,,,,,,,,,,,,,,,,,,,,,,,,,,,,,,,,,,,,,3,0,3,0,1,instr_done_button,,,,,,,,,,,,,,,
,,-0.010416667,-0.423177083,1,0,0,,,,,,1,test,"In the next phase you will be presented with the words from the the first phase. Your job is to decide whether you remember seeing the word or not. If you remember seeing the word press ""old"" or type ""m"". If you do not remember seeing the word press ""new"" or type ""z"". Please press the space bar or click on continue to begin. ",,,,48,2022-02-12_16h30.46.917,lexical_decision_task_DD_L4,2021.2.3,Win32,60.0348202,,,,,,,,,,,,,,,,,,,,,,,,,,,,,,,,,,,,,,,,,,,,,,,,,,,,,,,,,,,,,,,,,,4,0,4,0,1,instr_done_button,,,,,,,,,,,,,,,
,,,,,,,,,,,,,,,,,,48,2022-02-12_16h30.46.917,lexical_decision_task_DD_L4,2021.2.3,Win32,60.0348202,,,,,,,,,,,1.7334,1,,,,,,,,,,,,,,,,,,,,,,,,-0.010416667,-0.423177083,0,0,0,,,,,,,LAGOON,LB,m,y,./images/LAGOONLB.png,,,,,,,,,,,,,,,,,,,,,m,1,1.7334,,,,,,,,0,0,0,47,1
,,,,,,,,,,,,,,,,,,48,2022-02-12_16h30.46.917,lexical_decision_task_DD_L4,2021.2.3,Win32,60.0348202,,,,,,,,,,,2.3062,0,,,,,,,,,,,,,,,,,,,,,,,,-0.010416667,-0.423177083,0,0,0,,,,,,,MONKEY,C,m,y,./images/MONKEY.png,,,,,,,,,,,,,,,,,,,,,z,0,2.3062,,,,,,,,0,1,1,45,1
,,,,,,,,,,,,,,,,,,48,2022-02-12_16h30.46.917,lexical_decision_task_DD_L4,2021.2.3,Win32,60.0348202,,,,,,,,,,,1.8815,1,,,,,,,,,,,,,,,,,,,,,,,,-0.010416667,-0.423177083,0,0,0,,,,,,,DONKEY,HB,m,y,./images/DONKEYHB.png,,,,,,,,,,,,,,,,,,,,,m,1,1.8815,,,,,,,,0,2,2,19,1
,,,,,,,,,,,,,,,,,,48,2022-02-12_16h30.46.917,lexical_decision_task_DD_L4,2021.2.3,Win32,60.0348202,,,,,,,,,,,0.9013,1,,,,,,,,,,,,,,,,,,,,,,,,-0.010416667,-0.423177083,0,0,0,,,,,,,BEARD,LB,z,y,./images/BEARDLB.png,,,,,,,,,,,,,,,,,,,,,z,1,0.9013,,,,,,,,0,3,3,86,1
,,,,,,,,,,,,,,,,,,48,2022-02-12_16h30.46.917,lexical_decision_task_DD_L4,2021.2.3,Win32,60.0348202,,,,,,,,,,,2.0427,1,,,,,,,,,,,,,,,,,,,,,,,,-0.010416667,-0.423177083,0,0,0,,,,,,,SKIING,LB,z,y,./images/SKIINGLB.png,,,,,,,,,,,,,,,,,,,,,z,1,2.0427,,,,,,,,0,4,4,101,1
,,,,,,,,,,,,,,,,,,48,2022-02-12_16h30.46.917,lexical_decision_task_DD_L4,2021.2.3,Win32,60.0348202,,,,,,,,,,,0.8746,1,,,,,,,,,,,,,,,,,,,,,,,,-0.010416667,-0.423177083,0,0,0,,,,,,,HEATER,LB,m,y,./images/HEATERLB.png,,,,,,,,,,,,,,,,,,,,,m,1,0.8746,,,,,,,,0,5,5,56,1
,,,,,,,,,,,,,,,,,,48,2022-02-12_16h30.46.917,lexical_decision_task_DD_L4,2021.2.3,Win32,60.0348202,,,,,,,,,,,2.2316,0,,,,,,,,,,,,,,,,,,,,,,,,-0.010416667,-0.423177083,0,0,0,,,,,,,HAMMER,C,m,y,./images/HAMMER.png,,,,,,,,,,,,,,,,,,,,,z,0,2.2316,,,,,,,,0,6,6,75,1
,,,,,,,,,,,,,,,,,,48,2022-02-12_16h30.46.917,lexical_decision_task_DD_L4,2021.2.3,Win32,60.0348202,,,,,,,,,,,1.0149,1,,,,,,,,,,,,,,,,,,,,,,,,-0.010416667,-0.423177083,0,0,0,,,,,,,STORM,C,z,y,./images/STORM.png,,,,,,,,,,,,,,,,,,,,,z,1,1.0149,,,,,,,,0,7,7,114,1
,,,,,,,,,,,,,,,,,,48,2022-02-12_16h30.46.917,lexical_decision_task_DD_L4,2021.2.3,Win32,60.0348202,,,,,,,,,,,1.3375,1,,,,,,,,,,,,,,,,,,,,,,,,-0.010416667,-0.423177083,0,0,0,,,,,,,PLANK,HB,z,y,./images/PLANKHB.png,,,,,,,,,,,,,,,,,,,,,z,1,1.3375,,,,,,,,0,8,8,85,1
,,,,,,,,,,,,,,,,,,48,2022-02-12_16h30.46.917,lexical_decision_task_DD_L4,2021.2.3,Win32,60.0348202,,,,,,,,,,,0.7461,1,,,,,,,,,,,,,,,,,,,,,,,,-0.010416667,-0.423177083,0,0,0,,,,,,,TORCH,LB,z,y,./images/TORCHLB.png,,,,,,,,,,,,,,,,,,,,,z,1,0.7461,,,,,,,,0,9,9,152,1
,,,,,,,,,,,,,,,,,,48,2022-02-12_16h30.46.917,lexical_decision_task_DD_L4,2021.2.3,Win32,60.0348202,,,,,,,,,,,1.0754,1,,,,,,,,,,,,,,,,,,,,,,,,-0.010416667,-0.423177083,0,0,0,,,,,,,WEASEL,LB,z,y,./images/WEASELLB.png,,,,,,,,,,,,,,,,,,,,,z,1,1.0754,,,,,,,,0,10,10,164,1
,,,,,,,,,,,,,,,,,,48,2022-02-12_16h30.46.917,lexical_decision_task_DD_L4,2021.2.3,Win32,60.0348202,,,,,,,,,,,0.7053,0,,,,,,,,,,,,,,,,,,,,,,,,-0.010416667,-0.423177083,0,0,0,,,,,,,BRIDE,HB,m,y,./images/BRIDEHB.png,,,,,,,,,,,,,,,,,,,,,z,0,0.7053,,,,,,,,0,11,11,64,1
,,,,,,,,,,,,,,,,,,48,2022-02-12_16h30.46.917,lexical_decision_task_DD_L4,2021.2.3,Win32,60.0348202,,,,,,,,,,,1.0343,0,,,,,,,,,,,,,,,,,,,,,,,,-0.010416667,-0.423177083,0,0,0,,,,,,,JUMPER,LB,m,y,./images/JUMPERLB.png,,,,,,,,,,,,,,,,,,,,,z,0,1.0343,,,,,,,,0,12,12,74,1
,,,,,,,,,,,,,,,,,,48,2022-02-12_16h30.46.917,lexical_decision_task_DD_L4,2021.2.3,Win32,60.0348202,,,,,,,,,,,0.8369,1,,,,,,,,,,,,,,,,,,,,,,,,-0.010416667,-0.423177083,0,0,0,,,,,,,FOLDER,C,z,y,./images/FOLDER.png,,,,,,,,,,,,,,,,,,,,,z,1,0.8369,,,,,,,,0,13,13,126,1
,,,,,,,,,,,,,,,,,,48,2022-02-12_16h30.46.917,lexical_decision_task_DD_L4,2021.2.3,Win32,60.0348202,,,,,,,,,,,0.784,1,,,,,,,,,,,,,,,,,,,,,,,,-0.010416667,-0.423177083,0,0,0,,,,,,,SNACK,HB,z,y,./images/SNACKHB.png,,,,,,,,,,,,,,,,,,,,,z,1,0.784,,,,,,,,0,14,14,157,1
,,,,,,,,,,,,,,,,,,48,2022-02-12_16h30.46.917,lexical_decision_task_DD_L4,2021.2.3,Win32,60.0348202,,,,,,,,,,,0.7326,1,,,,,,,,,,,,,,,,,,,,,,,,-0.010416667,-0.423177083,0,0,0,,,,,,,MIDGET,HB,m,y,./images/MIDGETHB.png,,,,,,,,,,,,,,,,,,,,,m,1,0.7326,,,,,,,,0,15,15,76,1
,,,,,,,,,,,,,,,,,,48,2022-02-12_16h30.46.917,lexical_decision_task_DD_L4,2021.2.3,Win32,60.0348202,,,,,,,,,,,0.8932,1,,,,,,,,,,,,,,,,,,,,,,,,-0.010416667,-0.423177083,0,0,0,,,,,,,MUFFIN,HB,z,y,./images/MUFFINHB.png,,,,,,,,,,,,,,,,,,,,,z,1,0.8932,,,,,,,,0,16,16,139,1
,,,,,,,,,,,,,,,,,,48,2022-02-12_16h30.46.917,lexical_decision_task_DD_L4,2021.2.3,Win32,60.0348202,,,,,,,,,,,1.2862,1,,,,,,,,,,,,,,,,,,,,,,,,-0.010416667,-0.423177083,0,0,0,,,,,,,DRUMS,HB,z,y,./images/DRUMSHB.png,,,,,,,,,,,,,,,,,,,,,z,1,1.2862,,,,,,,,0,17,17,133,1
,,,,,,,,,,,,,,,,,,48,2022-02-12_16h30.46.917,lexical_decision_task_DD_L4,2021.2.3,Win32,60.0348202,,,,,,,,,,,0.7712,0,,,,,,,,,,,,,,,,,,,,,,,,-0.010416667,-0.423177083,0,0,0,,,,,,,SPINE,LB,m,y,./images/SPINELB.png,,,,,,,,,,,,,,,,,,,,,z,0,0.7712,,,,,,,,0,18,18,65,1
,,,,,,,,,,,,,,,,,,48,2022-02-12_16h30.46.917,lexical_decision_task_DD_L4,2021.2.3,Win32,60.0348202,,,,,,,,,,,0.7354,1,,,,,,,,,,,,,,,,,,,,,,,,-0.010416667,-0.423177083,0,0,0,,,,,,,FINGER,C,z,y,./images/FINGER.png,,,,,,,,,,,,,,,,,,,,,z,1,0.7354,,,,,,,,0,19,19,87,1
,,,,,,,,,,,,,,,,,,48,2022-02-12_16h30.46.917,lexical_decision_task_DD_L4,2021.2.3,Win32,60.0348202,,,,,,,,,,,0.8472,1,,,,,,,,,,,,,,,,,,,,,,,,-0.010416667,-0.423177083,0,0,0,,,,,,,GRANNY,LB,m,y,./images/GRANNYLB.png,,,,,,,,,,,,,,,,,,,,,m,1,0.8472,,,,,,,,0,20,20,20,1
,,,,,,,,,,,,,,,,,,48,2022-02-12_16h30.46.917,lexical_decision_task_DD_L4,2021.2.3,Win32,60.0348202,,,,,,,,,,,1.3656,1,,,,,,,,,,,,,,,,,,,,,,,,-0.010416667,-0.423177083,0,0,0,,,,,,,GRAPE,HB,m,y,./images/GRAPEHB.png,,,,,,,,,,,,,,,,,,,,,m,1,1.3656,,,,,,,,0,21,21,16,1
,,,,,,,,,,,,,,,,,,48,2022-02-12_16h30.46.917,lexical_decision_task_DD_L4,2021.2.3,Win32,60.0348202,,,,,,,,,,,0.8751,0,,,,,,,,,,,,,,,,,,,,,,,,-0.010416667,-0.423177083,0,0,0,,,,,,,MEDAL,LB,m,y,./images/MEDALLB.png,,,,,,,,,,,,,,,,,,,,,z,0,0.8751,,,,,,,,0,22,22,11,1
,,,,,,,,,,,,,,,,,,48,2022-02-12_16h30.46.917,lexical_decision_task_DD_L4,2021.2.3,Win32,60.0348202,,,,,,,,,,,0.7924,1,,,,,,,,,,,,,,,,,,,,,,,,-0.010416667,-0.423177083,0,0,0,,,,,,,VALLEY,LB,m,y,./images/VALLEYLB.png,,,,,,,,,,,,,,,,,,,,,m,1,0.7924,,,,,,,,0,23,23,68,1
,,,,,,,,,,,,,,,,,,48,2022-02-12_16h30.46.917,lexical_decision_task_DD_L4,2021.2.3,Win32,60.0348202,,,,,,,,,,,1.007,1,,,,,,,,,,,,,,,,,,,,,,,,-0.010416667,-0.423177083,0,0,0,,,,,,,POKER,HB,m,y,./images/POKERHB.png,,,,,,,,,,,,,,,,,,,,,m,1,1.007,,,,,,,,0,24,24,67,1
,,,,,,,,,,,,,,,,,,48,2022-02-12_16h30.46.917,lexical_decision_task_DD_L4,2021.2.3,Win32,60.0348202,,,,,,,,,,,0.7746,1,,,,,,,,,,,,,,,,,,,,,,,,-0.010416667,-0.423177083,0,0,0,,,,,,,GLOVE,HB,m,y,./images/GLOVEHB.png,,,,,,,,,,,,,,,,,,,,,m,1,0.7746,,,,,,,,0,25,25,73,1
,,,,,,,,,,,,,,,,,,48,2022-02-12_16h30.46.917,lexical_decision_task_DD_L4,2021.2.3,Win32,60.0348202,,,,,,,,,,,0.8718,0,,,,,,,,,,,,,,,,,,,,,,,,-0.010416667,-0.423177083,0,0,0,,,,,,,FLESH,C,m,y,./images/FLESH.png,,,,,,,,,,,,,,,,,,,,,z,0,0.8718,,,,,,,,0,26,26,24,1
,,,,,,,,,,,,,,,,,,48,2022-02-12_16h30.46.917,lexical_decision_task_DD_L4,2021.2.3,Win32,60.0348202,,,,,,,,,,,1.0936,1,,,,,,,,,,,,,,,,,,,,,,,,-0.010416667,-0.423177083,0,0,0,,,,,,,PICKLE,LB,z,y,./images/PICKLELB.png,,,,,,,,,,,,,,,,,,,,,z,1,1.0936,,,,,,,,0,27,27,98,1
,,,,,,,,,,,,,,,,,,48,2022-02-12_16h30.46.917,lexical_decision_task_DD_L4,2021.2.3,Win32,60.0348202,,,,,,,,,,,0.8263,1,,,,,,,,,,,,,,,,,,,,,,,,-0.010416667,-0.423177083,0,0,0,,,,,,,POSTER,LB,m,y,./images/POSTERLB.png,,,,,,,,,,,,,,,,,,,,,m,1,0.8263,,,,,,,,0,28,28,53,1
,,,,,,,,,,,,,,,,,,48,2022-02-12_16h30.46.917,lexical_decision_task_DD_L4,2021.2.3,Win32,60.0348202,,,,,,,,,,,0.9155,1,,,,,,,,,,,,,,,,,,,,,,,,-0.010416667,-0.423177083,0,0,0,,,,,,,FARMER,LB,z,y,./images/FARMERLB.png,,,,,,,,,,,,,,,,,,,,,z,1,0.9155,,,,,,,,0,29,29,149,1
,,,,,,,,,,,,,,,,,,48,2022-02-12_16h30.46.917,lexical_decision_task_DD_L4,2021.2.3,Win32,60.0348202,,,,,,,,,,,1.8534,0,,,,,,,,,,,,,,,,,,,,,,,,-0.010416667,-0.423177083,0,0,0,,,,,,,SAUCE,C,m,y,./images/SAUCE.png,,,,,,,,,,,,,,,,,,,,,z,0,1.8534,,,,,,,,0,30,30,51,1
,,,,,,,,,,,,,,,,,,48,2022-02-12_16h30.46.917,lexical_decision_task_DD_L4,2021.2.3,Win32,60.0348202,,,,,,,,,,,1.324,1,,,,,,,,,,,,,,,,,,,,,,,,-0.010416667,-0.423177083,0,0,0,,,,,,,STRING,LB,z,y,./images/STRINGLB.png,,,,,,,,,,,,,,,,,,,,,z,1,1.324,,,,,,,,0,31,31,125,1
,,,,,,,,,,,,,,,,,,48,2022-02-12_16h30.46.917,lexical_decision_task_DD_L4,2021.2.3,Win32,60.0348202,,,,,,,,,,,1.1661,1,,,,,,,,,,,,,,,,,,,,,,,,-0.010416667,-0.423177083,0,0,0,,,,,,,CRATER,C,m,y,./images/CRATER.png,,,,,,,,,,,,,,,,,,,,,m,1,1.1661,,,,,,,,0,32,32,3,1
,,,,,,,,,,,,,,,,,,48,2022-02-12_16h30.46.917,lexical_decision_task_DD_L4,2021.2.3,Win32,60.0348202,,,,,,,,,,,0.9068,1,,,,,,,,,,,,,,,,,,,,,,,,-0.010416667,-0.423177083,0,0,0,,,,,,,CRUST,HB,z,y,./images/CRUSTHB.png,,,,,,,,,,,,,,,,,,,,,z,1,0.9068,,,,,,,,0,33,33,163,1
,,,,,,,,,,,,,,,,,,48,2022-02-12_16h30.46.917,lexical_decision_task_DD_L4,2021.2.3,Win32,60.0348202,,,,,,,,,,,1.0493,1,,,,,,,,,,,,,,,,,,,,,,,,-0.010416667,-0.423177083,0,0,0,,,,,,,JAGUAR,C,z,y,./images/JAGUAR.png,,,,,,,,,,,,,,,,,,,,,z,1,1.0493,,,,,,,,0,34,34,102,1
,,,,,,,,,,,,,,,,,,48,2022-02-12_16h30.46.917,lexical_decision_task_DD_L4,2021.2.3,Win32,60.0348202,,,,,,,,,,,1.8825,1,,,,,,,,,,,,,,,,,,,,,,,,-0.010416667,-0.423177083,0,0,0,,,,,,,BERRY,LB,z,y,./images/BERRYLB.png,,,,,,,,,,,,,,,,,,,,,z,1,1.8825,,,,,,,,0,35,35,131,1
,,,,,,,,,,,,,,,,,,48,2022-02-12_16h30.46.917,lexical_decision_task_DD_L4,2021.2.3,Win32,60.0348202,,,,,,,,,,,0.8654,0,,,,,,,,,,,,,,,,,,,,,,,,-0.010416667,-0.423177083,0,0,0,,,,,,,COLLAR,C,m,y,./images/COLLAR.png,,,,,,,,,,,,,,,,,,,,,z,0,0.8654,,,,,,,,0,36,36,15,1
,,,,,,,,,,,,,,,,,,48,2022-02-12_16h30.46.917,lexical_decision_task_DD_L4,2021.2.3,Win32,60.0348202,,,,,,,,,,,0.681,1,,,,,,,,,,,,,,,,,,,,,,,,-0.010416667,-0.423177083,0,0,0,,,,,,,CURRY,C,m,y,./images/CURRY.png,,,,,,,,,,,,,,,,,,,,,m,1,0.681,,,,,,,,0,37,37,60,1
,,,,,,,,,,,,,,,,,,48,2022-02-12_16h30.46.917,lexical_decision_task_DD_L4,2021.2.3,Win32,60.0348202,,,,,,,,,,,0.9382,0,,,,,,,,,,,,,,,,,,,,,,,,-0.010416667,-0.423177083,0,0,0,,,,,,,ARROW,C,m,y,./images/ARROW.png,,,,,,,,,,,,,,,,,,,,,z,0,0.9382,,,,,,,,0,38,38,69,1
,,,,,,,,,,,,,,,,,,48,2022-02-12_16h30.46.917,lexical_decision_task_DD_L4,2021.2.3,Win32,60.0348202,,,,,,,,,,,1.2073,1,,,,,,,,,,,,,,,,,,,,,,,,-0.010416667,-0.423177083,0,0,0,,,,,,,BARREL,LB,z,y,./images/BARRELLB.png,,,,,,,,,,,,,,,,,,,,,z,1,1.2073,,,,,,,,0,39,39,116,1
,,,,,,,,,,,,,,,,,,48,2022-02-12_16h30.46.917,lexical_decision_task_DD_L4,2021.2.3,Win32,60.0348202,,,,,,,,,,,1.0174,1,,,,,,,,,,,,,,,,,,,,,,,,-0.010416667,-0.423177083,0,0,0,,,,,,,BABOON,HB,z,y,./images/BABOONHB.png,,,,,,,,,,,,,,,,,,,,,z,1,1.0174,,,,,,,,0,40,40,142,1
,,,,,,,,,,,,,,,,,,48,2022-02-12_16h30.46.917,lexical_decision_task_DD_L4,2021.2.3,Win32,60.0348202,,,,,,,,,,,0.9081,1,,,,,,,,,,,,,,,,,,,,,,,,-0.010416667,-0.423177083,0,0,0,space,,,,,,LLAMA,LB,m,y,./images/LLAMALB.png,13.5592,,,,,,,,,,,,,,,,,,,,m,1,0.9081,,,,,,,,0,41,41,35,1
,,,,,,,,,,,,,,,,,,48,2022-02-12_16h30.46.917,lexical_decision_task_DD_L4,2021.2.3,Win32,60.0348202,,,,,,,,,,,2.1466,1,,,,,,,,,,,,,,,,,,,,,,,,-0.0078125,-0.428385417,0,0,0,,,,,,,NOOSE,C,z,y,./images/NOOSE.png,,,,,,,,,,,,,,,,,,,,,z,1,2.1466,,,,,,,,0,42,42,156,1
,,,,,,,,,,,,,,,,,,48,2022-02-12_16h30.46.917,lexical_decision_task_DD_L4,2021.2.3,Win32,60.0348202,,,,,,,,,,,1.6469,1,,,,,,,,,,,,,,,,,,,,,,,,-0.0078125,-0.427083333,0,0,0,,,,,,,PLANET,LB,m,y,./images/PLANETLB.png,,,,,,,,,,,,,,,,,,,,,m,1,1.6469,,,,,,,,0,43,43,80,1
,,,,,,,,,,,,,,,,,,48,2022-02-12_16h30.46.917,lexical_decision_task_DD_L4,2021.2.3,Win32,60.0348202,,,,,,,,,,,1.1392,1,,,,,,,,,,,,,,,,,,,,,,,,-0.01171875,-0.419270833,0,0,0,,,,,,,PENCE,HB,z,y,./images/PENCEHB.png,,,,,,,,,,,,,,,,,,,,,z,1,1.1392,,,,,,,,0,44,44,100,1
,,,,,,,,,,,,,,,,,,48,2022-02-12_16h30.46.917,lexical_decision_task_DD_L4,2021.2.3,Win32,60.0348202,,,,,,,,,,,0.734,0,,,,,,,,,,,,,,,,,,,,,,,,-0.013020833,-0.41796875,0,0,0,,,,,,,ENGINE,LB,m,y,./images/ENGINELB.png,,,,,,,,,,,,,,,,,,,,,z,0,0.734,,,,,,,,0,45,45,38,1
,,,,,,,,,,,,,,,,,,48,2022-02-12_16h30.46.917,lexical_decision_task_DD_L4,2021.2.3,Win32,60.0348202,,,,,,,,,,,0.7905,1,,,,,,,,,,,,,,,,,,,,,,,,-0.014322917,-0.416666667,0,0,0,,,,,,,CANOE,HB,m,y,./images/CANOEHB.png,,,,,,,,,,,,,,,,,,,,,m,1,0.7905,,,,,,,,0,46,46,58,1
,,,,,,,,,,,,,,,,,,48,2022-02-12_16h30.46.917,lexical_decision_task_DD_L4,2021.2.3,Win32,60.0348202,,,,,,,,,,,0.9486,1,,,,,,,,,,,,,,,,,,,,,,,,-0.014322917,-0.416666667,0,0,0,,,,,,,BOILER,C,m,y,./images/BOILER.png,,,,,,,,,,,,,,,,,,,,,m,1,0.9486,,,,,,,,0,47,47,36,1
,,,,,,,,,,,,,,,,,,48,2022-02-12_16h30.46.917,lexical_decision_task_DD_L4,2021.2.3,Win32,60.0348202,,,,,,,,,,,0.926,1,,,,,,,,,,,,,,,,,,,,,,,,-0.014322917,-0.416666667,0,0,0,,,,,,,BANANA,HB,m,y,./images/BANANAHB.png,,,,,,,,,,,,,,,,,,,,,m,1,0.926,,,,,,,,0,48,48,70,1
,,,,,,,,,,,,,,,,,,48,2022-02-12_16h30.46.917,lexical_decision_task_DD_L4,2021.2.3,Win32,60.0348202,,,,,,,,,,,1.0236,1,,,,,,,,,,,,,,,,,,,,,,,,-0.014322917,-0.416666667,0,0,0,,,,,,,CANYON,HB,z,y,./images/CANYONHB.png,,,,,,,,,,,,,,,,,,,,,z,1,1.0236,,,,,,,,0,49,49,118,1
,,,,,,,,,,,,,,,,,,48,2022-02-12_16h30.46.917,lexical_decision_task_DD_L4,2021.2.3,Win32,60.0348202,,,,,,,,,,,0.9712,1,,,,,,,,,,,,,,,,,,,,,,,,-0.014322917,-0.416666667,0,0,0,,,,,,,BAMBOO,LB,m,y,./images/BAMBOOLB.png,,,,,,,,,,,,,,,,,,,,,m,1,0.9712,,,,,,,,0,50,50,5,1
,,,,,,,,,,,,,,,,,,48,2022-02-12_16h30.46.917,lexical_decision_task_DD_L4,2021.2.3,Win32,60.0348202,,,,,,,,,,,0.9097,1,,,,,,,,,,,,,,,,,,,,,,,,-0.014322917,-0.416666667,0,0,0,,,,,,,PEACH,LB,z,y,./images/PEACHLB.png,,,,,,,,,,,,,,,,,,,,,z,1,0.9097,,,,,,,,0,51,51,119,1
,,,,,,,,,,,,,,,,,,48,2022-02-12_16h30.46.917,lexical_decision_task_DD_L4,2021.2.3,Win32,60.0348202,,,,,,,,,,,0.782,1,,,,,,,,,,,,,,,,,,,,,,,,-0.014322917,-0.416666667,0,0,0,,,,,,,TRIPOD,C,z,y,./images/TRIPOD.png,,,,,,,,,,,,,,,,,,,,,z,1,0.782,,,,,,,,0,52,52,138,1
,,,,,,,,,,,,,,,,,,48,2022-02-12_16h30.46.917,lexical_decision_task_DD_L4,2021.2.3,Win32,60.0348202,,,,,,,,,,,1.0323,1,,,,,,,,,,,,,,,,,,,,,,,,-0.014322917,-0.416666667,0,0,0,,,,,,,BLOKE,C,m,y,./images/BLOKE.png,,,,,,,,,,,,,,,,,,,,,m,1,1.0323,,,,,,,,0,53,53,12,1
,,,,,,,,,,,,,,,,,,48,2022-02-12_16h30.46.917,lexical_decision_task_DD_L4,2021.2.3,Win32,60.0348202,,,,,,,,,,,2.0732,1,,,,,,,,,,,,,,,,,,,,,,,,-0.013020833,-0.41796875,0,0,0,,,,,,,WRIST,HB,z,y,./images/WRISTHB.png,,,,,,,,,,,,,,,,,,,,,z,1,2.0732,,,,,,,,0,54,54,109,1
,,,,,,,,,,,,,,,,,,48,2022-02-12_16h30.46.917,lexical_decision_task_DD_L4,2021.2.3,Win32,60.0348202,,,,,,,,,,,0.8511,1,,,,,,,,,,,,,,,,,,,,,,,,-0.013020833,-0.41796875,0,0,0,,,,,,,MELON,HB,z,y,./images/MELONHB.png,,,,,,,,,,,,,,,,,,,,,z,1,0.8511,,,,,,,,0,55,55,106,1
,,,,,,,,,,,,,,,,,,48,2022-02-12_16h30.46.917,lexical_decision_task_DD_L4,2021.2.3,Win32,60.0348202,,,,,,,,,,,1.4554,1,,,,,,,,,,,,,,,,,,,,,,,,-0.013020833,-0.41796875,0,0,0,,,,,,,WHISKY,LB,m,y,./images/WHISKYLB.png,,,,,,,,,,,,,,,,,,,,,m,1,1.4554,,,,,,,,0,56,56,83,1
,,,,,,,,,,,,,,,,,,48,2022-02-12_16h30.46.917,lexical_decision_task_DD_L4,2021.2.3,Win32,60.0348202,,,,,,,,,,,1.3319,1,,,,,,,,,,,,,,,,,,,,,,,,-0.013020833,-0.41796875,0,0,0,,,,,,,ALLEY,HB,m,y,./images/ALLEYHB.png,,,,,,,,,,,,,,,,,,,,,m,1,1.3319,,,,,,,,0,57,57,55,1
,,,,,,,,,,,,,,,,,,48,2022-02-12_16h30.46.917,lexical_decision_task_DD_L4,2021.2.3,Win32,60.0348202,,,,,,,,,,,0.6853,1,,,,,,,,,,,,,,,,,,,,,,,,-0.013020833,-0.416666667,0,0,0,,,,,,,WALRUS,LB,z,y,./images/WALRUSLB.png,,,,,,,,,,,,,,,,,,,,,z,1,0.6853,,,,,,,,0,58,58,107,1
,,,,,,,,,,,,,,,,,,48,2022-02-12_16h30.46.917,lexical_decision_task_DD_L4,2021.2.3,Win32,60.0348202,,,,,,,,,,,1.3528,1,,,,,,,,,,,,,,,,,,,,,,,,-0.013020833,-0.416666667,0,0,0,,,,,,,GARDEN,HB,m,y,./images/GARDENHB.png,,,,,,,,,,,,,,,,,,,,,m,1,1.3528,,,,,,,,0,59,59,10,1
,,,,,,,,,,,,,,,,,,48,2022-02-12_16h30.46.917,lexical_decision_task_DD_L4,2021.2.3,Win32,60.0348202,,,,,,,,,,,0.9314,0,,,,,,,,,,,,,,,,,,,,,,,,-0.013020833,-0.416666667,0,0,0,,,,,,,BRUSH,LB,m,y,./images/BRUSHLB.png,,,,,,,,,,,,,,,,,,,,,z,0,0.9314,,,,,,,,0,60,60,59,1
,,,,,,,,,,,,,,,,,,48,2022-02-12_16h30.46.917,lexical_decision_task_DD_L4,2021.2.3,Win32,60.0348202,,,,,,,,,,,0.7669,1,,,,,,,,,,,,,,,,,,,,,,,,-0.013020833,-0.416666667,0,0,0,,,,,,,ONION,C,z,y,./images/ONION.png,,,,,,,,,,,,,,,,,,,,,z,1,0.7669,,,,,,,,0,61,61,135,1
,,,,,,,,,,,,,,,,,,48,2022-02-12_16h30.46.917,lexical_decision_task_DD_L4,2021.2.3,Win32,60.0348202,,,,,,,,,,,1.6829,1,,,,,,,,,,,,,,,,,,,,,,,,-0.013020833,-0.416666667,0,0,0,,,,,,,PEARL,HB,z,y,./images/PEARLHB.png,,,,,,,,,,,,,,,,,,,,,z,1,1.6829,,,,,,,,0,62,62,130,1
,,,,,,,,,,,,,,,,,,48,2022-02-12_16h30.46.917,lexical_decision_task_DD_L4,2021.2.3,Win32,60.0348202,,,,,,,,,,,0.9537,1,,,,,,,,,,,,,,,,,,,,,,,,-0.013020833,-0.416666667,0,0,0,,,,,,,TOWEL,HB,m,y,./images/TOWELHB.png,,,,,,,,,,,,,,,,,,,,,m,1,0.9537,,,,,,,,0,63,63,1,1
,,,,,,,,,,,,,,,,,,48,2022-02-12_16h30.46.917,lexical_decision_task_DD_L4,2021.2.3,Win32,60.0348202,,,,,,,,,,,1.0416,1,,,,,,,,,,,,,,,,,,,,,,,,-0.013020833,-0.416666667,0,0,0,,,,,,,SMOKER,LB,z,y,./images/SMOKERLB.png,,,,,,,,,,,,,,,,,,,,,z,1,1.0416,,,,,,,,0,64,64,110,1
,,,,,,,,,,,,,,,,,,48,2022-02-12_16h30.46.917,lexical_decision_task_DD_L4,2021.2.3,Win32,60.0348202,,,,,,,,,,,0.752,1,,,,,,,,,,,,,,,,,,,,,,,,-0.013020833,-0.416666667,0,0,0,,,,,,,CLOWN,HB,m,y,./images/CLOWNHB.png,,,,,,,,,,,,,,,,,,,,,m,1,0.752,,,,,,,,0,65,65,22,1
,,,,,,,,,,,,,,,,,,48,2022-02-12_16h30.46.917,lexical_decision_task_DD_L4,2021.2.3,Win32,60.0348202,,,,,,,,,,,0.8163,1,,,,,,,,,,,,,,,,,,,,,,,,-0.010416667,-0.4140625,0,0,0,,,,,,,STOOL,HB,m,y,./images/STOOLHB.png,,,,,,,,,,,,,,,,,,,,,m,1,0.8163,,,,,,,,0,66,66,43,1
,,,,,,,,,,,,,,,,,,48,2022-02-12_16h30.46.917,lexical_decision_task_DD_L4,2021.2.3,Win32,60.0348202,,,,,,,,,,,0.7479,1,,,,,,,,,,,,,,,,,,,,,,,,-0.006510417,-0.415364583,0,0,0,,,,,,,SAILOR,HB,z,y,./images/SAILORHB.png,,,,,,,,,,,,,,,,,,,,,z,1,0.7479,,,,,,,,0,67,67,151,1
,,,,,,,,,,,,,,,,,,48,2022-02-12_16h30.46.917,lexical_decision_task_DD_L4,2021.2.3,Win32,60.0348202,,,,,,,,,,,1.7128,1,,,,,,,,,,,,,,,,,,,,,,,,-0.006510417,-0.415364583,0,0,0,,,,,,,PIMPLE,LB,z,y,./images/PIMPLELB.png,,,,,,,,,,,,,,,,,,,,,z,1,1.7128,,,,,,,,0,68,68,155,1
,,,,,,,,,,,,,,,,,,48,2022-02-12_16h30.46.917,lexical_decision_task_DD_L4,2021.2.3,Win32,60.0348202,,,,,,,,,,,0.7367,1,,,,,,,,,,,,,,,,,,,,,,,,-0.006510417,-0.415364583,0,0,0,,,,,,,CHALK,HB,m,y,./images/CHALKHB.png,,,,,,,,,,,,,,,,,,,,,m,1,0.7367,,,,,,,,0,69,69,25,1
,,,,,,,,,,,,,,,,,,48,2022-02-12_16h30.46.917,lexical_decision_task_DD_L4,2021.2.3,Win32,60.0348202,,,,,,,,,,,1.0851,1,,,,,,,,,,,,,,,,,,,,,,,,-0.006510417,-0.415364583,0,0,0,,,,,,,STAIN,C,m,y,./images/STAIN.png,,,,,,,,,,,,,,,,,,,,,m,1,1.0851,,,,,,,,0,70,70,6,1
,,,,,,,,,,,,,,,,,,48,2022-02-12_16h30.46.917,lexical_decision_task_DD_L4,2021.2.3,Win32,60.0348202,,,,,,,,,,,0.9927,1,,,,,,,,,,,,,,,,,,,,,,,,-0.006510417,-0.415364583,0,0,0,,,,,,,SPORT,C,z,y,./images/SPORT.png,,,,,,,,,,,,,,,,,,,,,z,1,0.9927,,,,,,,,0,71,71,132,1
,,,,,,,,,,,,,,,,,,48,2022-02-12_16h30.46.917,lexical_decision_task_DD_L4,2021.2.3,Win32,60.0348202,,,,,,,,,,,1.0742,1,,,,,,,,,,,,,,,,,,,,,,,,-0.006510417,-0.415364583,0,0,0,,,,,,,MUSCLE,HB,z,y,./images/MUSCLEHB.png,,,,,,,,,,,,,,,,,,,,,z,1,1.0742,,,,,,,,0,72,72,88,1
,,,,,,,,,,,,,,,,,,48,2022-02-12_16h30.46.917,lexical_decision_task_DD_L4,2021.2.3,Win32,60.0348202,,,,,,,,,,,0.8146,1,,,,,,,,,,,,,,,,,,,,,,,,-0.006510417,-0.415364583,0,0,0,,,,,,,DANCER,C,m,y,./images/DANCER.png,,,,,,,,,,,,,,,,,,,,,m,1,0.8146,,,,,,,,0,73,73,21,1
,,,,,,,,,,,,,,,,,,48,2022-02-12_16h30.46.917,lexical_decision_task_DD_L4,2021.2.3,Win32,60.0348202,,,,,,,,,,,1.0772,0,,,,,,,,,,,,,,,,,,,,,,,,-0.006510417,-0.415364583,0,0,0,,,,,,,STATUE,C,m,y,./images/STATUE.png,,,,,,,,,,,,,,,,,,,,,z,0,1.0772,,,,,,,,0,74,74,66,1
,,,,,,,,,,,,,,,,,,48,2022-02-12_16h30.46.917,lexical_decision_task_DD_L4,2021.2.3,Win32,60.0348202,,,,,,,,,,,1.0753,1,,,,,,,,,,,,,,,,,,,,,,,,-0.006510417,-0.415364583,0,0,0,,,,,,,MOSQUE,HB,z,y,./images/MOSQUEHB.png,,,,,,,,,,,,,,,,,,,,,z,1,1.0753,,,,,,,,0,75,75,127,1
,,,,,,,,,,,,,,,,,,48,2022-02-12_16h30.46.917,lexical_decision_task_DD_L4,2021.2.3,Win32,60.0348202,,,,,,,,,,,0.9098,1,,,,,,,,,,,,,,,,,,,,,,,,-0.006510417,-0.415364583,0,0,0,,,,,,,QUILL,HB,z,y,./images/QUILLHB.png,,,,,,,,,,,,,,,,,,,,,z,1,0.9098,,,,,,,,0,76,76,115,1
,,,,,,,,,,,,,,,,,,48,2022-02-12_16h30.46.917,lexical_decision_task_DD_L4,2021.2.3,Win32,60.0348202,,,,,,,,,,,1.0845,0,,,,,,,,,,,,,,,,,,,,,,,,-0.006510417,-0.415364583,0,0,0,,,,,,,SHIELD,C,m,y,./images/SHIELD.png,,,,,,,,,,,,,,,,,,,,,z,0,1.0845,,,,,,,,0,77,77,48,1
,,,,,,,,,,,,,,,,,,48,2022-02-12_16h30.46.917,lexical_decision_task_DD_L4,2021.2.3,Win32,60.0348202,,,,,,,,,,,0.7343,0,,,,,,,,,,,,,,,,,,,,,,,,-0.006510417,-0.415364583,0,0,0,,,,,,,RULER,HB,m,y,./images/RULERHB.png,,,,,,,,,,,,,,,,,,,,,z,0,0.7343,,,,,,,,0,78,78,79,1
,,,,,,,,,,,,,,,,,,48,2022-02-12_16h30.46.917,lexical_decision_task_DD_L4,2021.2.3,Win32,60.0348202,,,,,,,,,,,0.8773,1,,,,,,,,,,,,,,,,,,,,,,,,-0.006510417,-0.415364583,0,0,0,,,,,,,BASKET,LB,m,y,./images/BASKETLB.png,,,,,,,,,,,,,,,,,,,,,m,1,0.8773,,,,,,,,0,79,79,44,1
,,,,,,,,,,,,,,,,,,48,2022-02-12_16h30.46.917,lexical_decision_task_DD_L4,2021.2.3,Win32,60.0348202,,,,,,,,,,,0.8937,1,,,,,,,,,,,,,,,,,,,,,,,,-0.006510417,-0.415364583,0,0,0,,,,,,,CASINO,HB,m,y,./images/CASINOHB.png,,,,,,,,,,,,,,,,,,,,,m,1,0.8937,,,,,,,,0,80,80,28,1
,,,,,,,,,,,,,,,,,,48,2022-02-12_16h30.46.917,lexical_decision_task_DD_L4,2021.2.3,Win32,60.0348202,,,,,,,,,,,0.7825,1,,,,,,,,,,,,,,,,,,,,,,,,-0.006510417,-0.415364583,0,0,0,,,,,,,BURIAL,LB,z,y,./images/BURIALLB.png,,,,,,,,,,,,,,,,,,,,,z,1,0.7825,,,,,,,,0,81,81,143,1
,,,,,,,,,,,,,,,,,,48,2022-02-12_16h30.46.917,lexical_decision_task_DD_L4,2021.2.3,Win32,60.0348202,,,,,,,,,,,1.0146,1,,,,,,,,,,,,,,,,,,,,,,,,-0.006510417,-0.415364583,0,0,0,,,,,,,WHEEL,LB,m,y,./images/WHEELLB.png,,,,,,,,,,,,,,,,,,,,,m,1,1.0146,,,,,,,,0,82,82,77,1
,,,,,,,,,,,,,,,,,,48,2022-02-12_16h30.46.917,lexical_decision_task_DD_L4,2021.2.3,Win32,60.0348202,,,,,,,,,,,0.8571,1,,,,,,,,,,,,,,,,,,,,,,,,-0.006510417,-0.415364583,0,0,0,space,,,,,,THROAT,C,z,y,./images/THROAT.png,44.0588,,,,,,,,,,,,,,,,,,,,z,1,0.8571,,,,,,,,0,83,83,120,1
,,,,,,,,,,,,,,,,,,48,2022-02-12_16h30.46.917,lexical_decision_task_DD_L4,2021.2.3,Win32,60.0348202,,,,,,,,,,,0.9101,1,,,,,,,,,,,,,,,,,,,,,,,,-0.006510417,-0.415364583,0,0,0,,,,,,,INFANT,HB,z,y,./images/INFANTHB.png,,,,,,,,,,,,,,,,,,,,,z,1,0.9101,,,,,,,,0,84,84,160,1
,,,,,,,,,,,,,,,,,,48,2022-02-12_16h30.46.917,lexical_decision_task_DD_L4,2021.2.3,Win32,60.0348202,,,,,,,,,,,0.8009,1,,,,,,,,,,,,,,,,,,,,,,,,-0.015625,-0.411458333,0,0,0,,,,,,,DOUGH,HB,z,y,./images/DOUGHHB.png,,,,,,,,,,,,,,,,,,,,,z,1,0.8009,,,,,,,,0,85,85,103,1
,,,,,,,,,,,,,,,,,,48,2022-02-12_16h30.46.917,lexical_decision_task_DD_L4,2021.2.3,Win32,60.0348202,,,,,,,,,,,1.0308,1,,,,,,,,,,,,,,,,,,,,,,,,-0.015625,-0.411458333,0,0,0,,,,,,,SLOPE,C,m,y,./images/SLOPE.png,,,,,,,,,,,,,,,,,,,,,m,1,1.0308,,,,,,,,0,86,86,30,1
,,,,,,,,,,,,,,,,,,48,2022-02-12_16h30.46.917,lexical_decision_task_DD_L4,2021.2.3,Win32,60.0348202,,,,,,,,,,,0.914,1,,,,,,,,,,,,,,,,,,,,,,,,-0.015625,-0.411458333,0,0,0,,,,,,,CANDLE,HB,z,y,./images/CANDLEHB.png,,,,,,,,,,,,,,,,,,,,,z,1,0.914,,,,,,,,0,87,87,145,1
,,,,,,,,,,,,,,,,,,48,2022-02-12_16h30.46.917,lexical_decision_task_DD_L4,2021.2.3,Win32,60.0348202,,,,,,,,,,,1.1732,1,,,,,,,,,,,,,,,,,,,,,,,,-0.015625,-0.411458333,0,0,0,,,,,,,BUNNY,HB,m,y,./images/BUNNYHB.png,,,,,,,,,,,,,,,,,,,,,m,1,1.1732,,,,,,,,0,88,88,13,1
,,,,,,,,,,,,,,,,,,48,2022-02-12_16h30.46.917,lexical_decision_task_DD_L4,2021.2.3,Win32,60.0348202,,,,,,,,,,,0.7491,1,,,,,,,,,,,,,,,,,,,,,,,,-0.015625,-0.411458333,0,0,0,,,,,,,MAGGOT,C,z,y,./images/MAGGOT.png,,,,,,,,,,,,,,,,,,,,,z,1,0.7491,,,,,,,,0,89,89,117,1
,,,,,,,,,,,,,,,,,,48,2022-02-12_16h30.46.917,lexical_decision_task_DD_L4,2021.2.3,Win32,60.0348202,,,,,,,,,,,1.1173,1,,,,,,,,,,,,,,,,,,,,,,,,-0.015625,-0.411458333,0,0,0,,,,,,,JUNGLE,LB,z,y,./images/JUNGLELB.png,,,,,,,,,,,,,,,,,,,,,z,1,1.1173,,,,,,,,0,90,90,167,1
,,,,,,,,,,,,,,,,,,48,2022-02-12_16h30.46.917,lexical_decision_task_DD_L4,2021.2.3,Win32,60.0348202,,,,,,,,,,,0.8732,1,,,,,,,,,,,,,,,,,,,,,,,,-0.015625,-0.411458333,0,0,0,,,,,,,URINE,HB,z,y,./images/URINEHB.png,,,,,,,,,,,,,,,,,,,,,z,1,0.8732,,,,,,,,0,91,91,154,1
,,,,,,,,,,,,,,,,,,48,2022-02-12_16h30.46.917,lexical_decision_task_DD_L4,2021.2.3,Win32,60.0348202,,,,,,,,,,,0.7935,1,,,,,,,,,,,,,,,,,,,,,,,,-0.015625,-0.411458333,0,0,0,,,,,,,STOVE,LB,m,y,./images/STOVELB.png,,,,,,,,,,,,,,,,,,,,,m,1,0.7935,,,,,,,,0,92,92,2,1
,,,,,,,,,,,,,,,,,,48,2022-02-12_16h30.46.917,lexical_decision_task_DD_L4,2021.2.3,Win32,60.0348202,,,,,,,,,,,0.7741,1,,,,,,,,,,,,,,,,,,,,,,,,-0.015625,-0.411458333,0,0,0,,,,,,,FERRY,C,m,y,./images/FERRY.png,,,,,,,,,,,,,,,,,,,,,m,1,0.7741,,,,,,,,0,93,93,57,1
,,,,,,,,,,,,,,,,,,48,2022-02-12_16h30.46.917,lexical_decision_task_DD_L4,2021.2.3,Win32,60.0348202,,,,,,,,,,,1.6981,0,,,,,,,,,,,,,,,,,,,,,,,,-0.015625,-0.411458333,0,0,0,,,,,,,PAINT,HB,z,y,./images/PAINTHB.png,,,,,,,,,,,,,,,,,,,,,m,0,1.6981,,,,,,,,0,94,94,91,1
,,,,,,,,,,,,,,,,,,48,2022-02-12_16h30.46.917,lexical_decision_task_DD_L4,2021.2.3,Win32,60.0348202,,,,,,,,,,,0.702,1,,,,,,,,,,,,,,,,,,,,,,,,-0.015625,-0.411458333,0,0,0,,,,,,,PARADE,LB,m,y,./images/PARADELB.png,,,,,,,,,,,,,,,,,,,,,m,1,0.702,,,,,,,,0,95,95,17,1
,,,,,,,,,,,,,,,,,,48,2022-02-12_16h30.46.917,lexical_decision_task_DD_L4,2021.2.3,Win32,60.0348202,,,,,,,,,,,0.9581,0,,,,,,,,,,,,,,,,,,,,,,,,-0.015625,-0.411458333,0,0,0,,,,,,,BOXER,HB,m,y,./images/BOXERHB.png,,,,,,,,,,,,,,,,,,,,,z,0,0.9581,,,,,,,,0,96,96,4,1
,,,,,,,,,,,,,,,,,,48,2022-02-12_16h30.46.917,lexical_decision_task_DD_L4,2021.2.3,Win32,60.0348202,,,,,,,,,,,1.0805,1,,,,,,,,,,,,,,,,,,,,,,,,-0.015625,-0.411458333,0,0,0,,,,,,,TWINS,C,z,y,./images/TWINS.png,,,,,,,,,,,,,,,,,,,,,z,1,1.0805,,,,,,,,0,97,97,144,1
,,,,,,,,,,,,,,,,,,48,2022-02-12_16h30.46.917,lexical_decision_task_DD_L4,2021.2.3,Win32,60.0348202,,,,,,,,,,,0.7545,1,,,,,,,,,,,,,,,,,,,,,,,,-0.015625,-0.411458333,0,0,0,,,,,,,COOKER,C,z,y,./images/COOKER.png,,,,,,,,,,,,,,,,,,,,,z,1,0.7545,,,,,,,,0,98,98,153,1
,,,,,,,,,,,,,,,,,,48,2022-02-12_16h30.46.917,lexical_decision_task_DD_L4,2021.2.3,Win32,60.0348202,,,,,,,,,,,1.1084,1,,,,,,,,,,,,,,,,,,,,,,,,-0.015625,-0.411458333,0,0,0,,,,,,,DESERT,HB,m,y,./images/DESERTHB.png,,,,,,,,,,,,,,,,,,,,,m,1,1.1084,,,,,,,,0,99,99,52,1
,,,,,,,,,,,,,,,,,,48,2022-02-12_16h30.46.917,lexical_decision_task_DD_L4,2021.2.3,Win32,60.0348202,,,,,,,,,,,1.0842,1,,,,,,,,,,,,,,,,,,,,,,,,-0.015625,-0.411458333,0,0,0,,,,,,,CHAIN,C,m,y,./images/CHAIN.png,,,,,,,,,,,,,,,,,,,,,m,1,1.0842,,,,,,,,0,100,100,42,1
,,,,,,,,,,,,,,,,,,48,2022-02-12_16h30.46.917,lexical_decision_task_DD_L4,2021.2.3,Win32,60.0348202,,,,,,,,,,,0.999,1,,,,,,,,,,,,,,,,,,,,,,,,-0.015625,-0.411458333,0,0,0,,,,,,,DRILL,C,m,y,./images/DRILL.png,,,,,,,,,,,,,,,,,,,,,m,1,0.999,,,,,,,,0,101,101,81,1
,,,,,,,,,,,,,,,,,,48,2022-02-12_16h30.46.917,lexical_decision_task_DD_L4,2021.2.3,Win32,60.0348202,,,,,,,,,,,1.6927,1,,,,,,,,,,,,,,,,,,,,,,,,-0.015625,-0.411458333,0,0,0,,,,,,,SCREW,C,z,y,./images/SCREW.png,,,,,,,,,,,,,,,,,,,,,z,1,1.6927,,,,,,,,0,102,102,108,1
,,,,,,,,,,,,,,,,,,48,2022-02-12_16h30.46.917,lexical_decision_task_DD_L4,2021.2.3,Win32,60.0348202,,,,,,,,,,,1.0543,1,,,,,,,,,,,,,,,,,,,,,,,,-0.015625,-0.411458333,0,0,0,,,,,,,CHERRY,C,m,y,./images/CHERRY.png,,,,,,,,,,,,,,,,,,,,,m,1,1.0543,,,,,,,,0,103,103,54,1
,,,,,,,,,,,,,,,,,,48,2022-02-12_16h30.46.917,lexical_decision_task_DD_L4,2021.2.3,Win32,60.0348202,,,,,,,,,,,1.0824,0,,,,,,,,,,,,,,,,,,,,,,,,-0.015625,-0.411458333,0,0,0,,,,,,,GREASE,C,z,y,./images/GREASE.png,,,,,,,,,,,,,,,,,,,,,m,0,1.0824,,,,,,,,0,104,104,99,1
,,,,,,,,,,,,,,,,,,48,2022-02-12_16h30.46.917,lexical_decision_task_DD_L4,2021.2.3,Win32,60.0348202,,,,,,,,,,,2.2068,1,,,,,,,,,,,,,,,,,,,,,,,,-0.015625,-0.411458333,0,0,0,,,,,,,FENCE,LB,m,y,./images/FENCELB.png,,,,,,,,,,,,,,,,,,,,,m,1,2.2068,,,,,,,,0,105,105,14,1
,,,,,,,,,,,,,,,,,,48,2022-02-12_16h30.46.917,lexical_decision_task_DD_L4,2021.2.3,Win32,60.0348202,,,,,,,,,,,0.8487,0,,,,,,,,,,,,,,,,,,,,,,,,-0.015625,-0.411458333,0,0,0,,,,,,,ARTIST,HB,m,y,./images/ARTISTHB.png,,,,,,,,,,,,,,,,,,,,,z,0,0.8487,,,,,,,,0,106,106,61,1
,,,,,,,,,,,,,,,,,,48,2022-02-12_16h30.46.917,lexical_decision_task_DD_L4,2021.2.3,Win32,60.0348202,,,,,,,,,,,0.9244,1,,,,,,,,,,,,,,,,,,,,,,,,-0.015625,-0.411458333,0,0,0,,,,,,,WALNUT,C,m,y,./images/WALNUT.png,,,,,,,,,,,,,,,,,,,,,m,1,0.9244,,,,,,,,0,107,107,0,1
,,,,,,,,,,,,,,,,,,48,2022-02-12_16h30.46.917,lexical_decision_task_DD_L4,2021.2.3,Win32,60.0348202,,,,,,,,,,,1.3095,0,,,,,,,,,,,,,,,,,,,,,,,,-0.015625,-0.411458333,0,0,0,,,,,,,MOOSE,C,z,y,./images/MOOSE.png,,,,,,,,,,,,,,,,,,,,,m,0,1.3095,,,,,,,,0,108,108,141,1
,,,,,,,,,,,,,,,,,,48,2022-02-12_16h30.46.917,lexical_decision_task_DD_L4,2021.2.3,Win32,60.0348202,,,,,,,,,,,0.909,1,,,,,,,,,,,,,,,,,,,,,,,,-0.015625,-0.411458333,0,0,0,,,,,,,BAKER,C,m,y,./images/BAKER.png,,,,,,,,,,,,,,,,,,,,,m,1,0.909,,,,,,,,0,109,109,63,1
,,,,,,,,,,,,,,,,,,48,2022-02-12_16h30.46.917,lexical_decision_task_DD_L4,2021.2.3,Win32,60.0348202,,,,,,,,,,,1.0972,0,,,,,,,,,,,,,,,,,,,,,,,,-0.015625,-0.411458333,0,0,0,,,,,,,GRAIN,C,z,y,./images/GRAIN.png,,,,,,,,,,,,,,,,,,,,,m,0,1.0972,,,,,,,,0,110,110,159,1
,,,,,,,,,,,,,,,,,,48,2022-02-12_16h30.46.917,lexical_decision_task_DD_L4,2021.2.3,Win32,60.0348202,,,,,,,,,,,1.1319,0,,,,,,,,,,,,,,,,,,,,,,,,-0.015625,-0.411458333,0,0,0,,,,,,,CLOTH,LB,m,y,./images/CLOTHLB.png,,,,,,,,,,,,,,,,,,,,,z,0,1.1319,,,,,,,,0,111,111,23,1
,,,,,,,,,,,,,,,,,,48,2022-02-12_16h30.46.917,lexical_decision_task_DD_L4,2021.2.3,Win32,60.0348202,,,,,,,,,,,0.7112,1,,,,,,,,,,,,,,,,,,,,,,,,-0.015625,-0.411458333,0,0,0,,,,,,,MIRROR,C,z,y,./images/MIRROR.png,,,,,,,,,,,,,,,,,,,,,z,1,0.7112,,,,,,,,0,112,112,147,1
,,,,,,,,,,,,,,,,,,48,2022-02-12_16h30.46.917,lexical_decision_task_DD_L4,2021.2.3,Win32,60.0348202,,,,,,,,,,,0.6885,1,,,,,,,,,,,,,,,,,,,,,,,,-0.015625,-0.411458333,0,0,0,,,,,,,RHINO,C,z,y,./images/RHINO.png,,,,,,,,,,,,,,,,,,,,,z,1,0.6885,,,,,,,,0,113,113,93,1
,,,,,,,,,,,,,,,,,,48,2022-02-12_16h30.46.917,lexical_decision_task_DD_L4,2021.2.3,Win32,60.0348202,,,,,,,,,,,0.7047,1,,,,,,,,,,,,,,,,,,,,,,,,-0.015625,-0.411458333,0,0,0,,,,,,,BROOM,C,m,y,./images/BROOM.png,,,,,,,,,,,,,,,,,,,,,m,1,0.7047,,,,,,,,0,114,114,78,1
,,,,,,,,,,,,,,,,,,48,2022-02-12_16h30.46.917,lexical_decision_task_DD_L4,2021.2.3,Win32,60.0348202,,,,,,,,,,,0.9882,1,,,,,,,,,,,,,,,,,,,,,,,,-0.015625,-0.411458333,0,0,0,,,,,,,CLIFF,LB,m,y,./images/CLIFFLB.png,,,,,,,,,,,,,,,,,,,,,m,1,0.9882,,,,,,,,0,115,115,8,1
,,,,,,,,,,,,,,,,,,48,2022-02-12_16h30.46.917,lexical_decision_task_DD_L4,2021.2.3,Win32,60.0348202,,,,,,,,,,,0.8215,1,,,,,,,,,,,,,,,,,,,,,,,,-0.015625,-0.411458333,0,0,0,,,,,,,BONNET,LB,z,y,./images/BONNETLB.png,,,,,,,,,,,,,,,,,,,,,z,1,0.8215,,,,,,,,0,116,116,95,1
,,,,,,,,,,,,,,,,,,48,2022-02-12_16h30.46.917,lexical_decision_task_DD_L4,2021.2.3,Win32,60.0348202,,,,,,,,,,,1.3178,1,,,,,,,,,,,,,,,,,,,,,,,,-0.015625,-0.411458333,0,0,0,,,,,,,CLOUD,LB,m,y,./images/CLOUDLB.png,,,,,,,,,,,,,,,,,,,,,m,1,1.3178,,,,,,,,0,117,117,26,1
,,,,,,,,,,,,,,,,,,48,2022-02-12_16h30.46.917,lexical_decision_task_DD_L4,2021.2.3,Win32,60.0348202,,,,,,,,,,,0.7495,1,,,,,,,,,,,,,,,,,,,,,,,,-0.015625,-0.411458333,0,0,0,,,,,,,MUMMY,HB,m,y,./images/MUMMYHB.png,,,,,,,,,,,,,,,,,,,,,m,1,0.7495,,,,,,,,0,118,118,46,1
,,,,,,,,,,,,,,,,,,48,2022-02-12_16h30.46.917,lexical_decision_task_DD_L4,2021.2.3,Win32,60.0348202,,,,,,,,,,,0.8018,1,,,,,,,,,,,,,,,,,,,,,,,,-0.015625,-0.411458333,0,0,0,,,,,,,PISTOL,LB,m,y,./images/PISTOLLB.png,,,,,,,,,,,,,,,,,,,,,m,1,0.8018,,,,,,,,0,119,119,29,1
,,,,,,,,,,,,,,,,,,48,2022-02-12_16h30.46.917,lexical_decision_task_DD_L4,2021.2.3,Win32,60.0348202,,,,,,,,,,,2.5644,0,,,,,,,,,,,,,,,,,,,,,,,,-0.015625,-0.411458333,0,0,0,,,,,,,SWING,HB,z,y,./images/SWINGHB.png,,,,,,,,,,,,,,,,,,,,,m,0,2.5644,,,,,,,,0,120,120,124,1
,,,,,,,,,,,,,,,,,,48,2022-02-12_16h30.46.917,lexical_decision_task_DD_L4,2021.2.3,Win32,60.0348202,,,,,,,,,,,0.9148,0,,,,,,,,,,,,,,,,,,,,,,,,-0.015625,-0.411458333,0,0,0,,,,,,,TIGER,HB,m,y,./images/TIGERHB.png,,,,,,,,,,,,,,,,,,,,,z,0,0.9148,,,,,,,,0,121,121,37,1
,,,,,,,,,,,,,,,,,,48,2022-02-12_16h30.46.917,lexical_decision_task_DD_L4,2021.2.3,Win32,60.0348202,,,,,,,,,,,0.5816,1,,,,,,,,,,,,,,,,,,,,,,,,-0.015625,-0.411458333,0,0,0,,,,,,,LIZARD,LB,z,y,./images/LIZARDLB.png,,,,,,,,,,,,,,,,,,,,,z,1,0.5816,,,,,,,,0,122,122,128,1
,,,,,,,,,,,,,,,,,,48,2022-02-12_16h30.46.917,lexical_decision_task_DD_L4,2021.2.3,Win32,60.0348202,,,,,,,,,,,2.0144,0,,,,,,,,,,,,,,,,,,,,,,,,-0.015625,-0.411458333,0,0,0,,,,,,,FLASK,C,m,y,./images/FLASK.png,,,,,,,,,,,,,,,,,,,,,z,0,2.0144,,,,,,,,0,123,123,72,1
,,,,,,,,,,,,,,,,,,48,2022-02-12_16h30.46.917,lexical_decision_task_DD_L4,2021.2.3,Win32,60.0348202,,,,,,,,,,,1.3078,1,,,,,,,,,,,,,,,,,,,,,,,,-0.015625,-0.411458333,0,0,0,,,,,,,BIRTH,HB,z,y,./images/BIRTHHB.png,,,,,,,,,,,,,,,,,,,,,z,1,1.3078,,,,,,,,0,124,124,121,1
,,,,,,,,,,,,,,,,,,48,2022-02-12_16h30.46.917,lexical_decision_task_DD_L4,2021.2.3,Win32,60.0348202,,,,,,,,,,,1.0477,1,,,,,,,,,,,,,,,,,,,,,,,,-0.015625,-0.411458333,0,0,0,space,,,,,,JELLY,HB,z,y,./images/JELLYHB.png,18.7237,,,,,,,,,,,,,,,,,,,,z,1,1.0477,,,,,,,,0,125,125,148,1
,,,,,,,,,,,,,,,,,,48,2022-02-12_16h30.46.917,lexical_decision_task_DD_L4,2021.2.3,Win32,60.0348202,,,,,,,,,,,1.6912,1,,,,,,,,,,,,,,,,,,,,,,,,-0.015625,-0.411458333,0,0,0,,,,,,,SWEAT,C,z,y,./images/SWEAT.png,,,,,,,,,,,,,,,,,,,,,z,1,1.6912,,,,,,,,0,126,126,150,1
,,,,,,,,,,,,,,,,,,48,2022-02-12_16h30.46.917,lexical_decision_task_DD_L4,2021.2.3,Win32,60.0348202,,,,,,,,,,,0.9645,1,,,,,,,,,,,,,,,,,,,,,,,,-0.015625,-0.411458333,0,0,0,,,,,,,RAZOR,HB,m,y,./images/RAZORHB.png,,,,,,,,,,,,,,,,,,,,,m,1,0.9645,,,,,,,,0,127,127,34,1
,,,,,,,,,,,,,,,,,,48,2022-02-12_16h30.46.917,lexical_decision_task_DD_L4,2021.2.3,Win32,60.0348202,,,,,,,,,,,1.015,1,,,,,,,,,,,,,,,,,,,,,,,,-0.015625,-0.411458333,0,0,0,,,,,,,TULIP,LB,z,y,./images/TULIPLB.png,,,,,,,,,,,,,,,,,,,,,z,1,1.015,,,,,,,,0,128,128,92,1
,,,,,,,,,,,,,,,,,,48,2022-02-12_16h30.46.917,lexical_decision_task_DD_L4,2021.2.3,Win32,60.0348202,,,,,,,,,,,1.0277,1,,,,,,,,,,,,,,,,,,,,,,,,-0.015625,-0.411458333,0,0,0,,,,,,,TOMATO,C,z,y,./images/TOMATO.png,,,,,,,,,,,,,,,,,,,,,z,1,1.0277,,,,,,,,0,129,129,84,1
,,,,,,,,,,,,,,,,,,48,2022-02-12_16h30.46.917,lexical_decision_task_DD_L4,2021.2.3,Win32,60.0348202,,,,,,,,,,,0.9826,1,,,,,,,,,,,,,,,,,,,,,,,,-0.015625,-0.411458333,0,0,0,,,,,,,BELLY,HB,z,y,./images/BELLYHB.png,,,,,,,,,,,,,,,,,,,,,z,1,0.9826,,,,,,,,0,130,130,94,1
,,,,,,,,,,,,,,,,,,48,2022-02-12_16h30.46.917,lexical_decision_task_DD_L4,2021.2.3,Win32,60.0348202,,,,,,,,,,,0.5826,1,,,,,,,,,,,,,,,,,,,,,,,,-0.015625,-0.411458333,0,0,0,,,,,,,FALCON,HB,z,y,./images/FALCONHB.png,,,,,,,,,,,,,,,,,,,,,z,1,0.5826,,,,,,,,0,131,131,112,1
,,,,,,,,,,,,,,,,,,48,2022-02-12_16h30.46.917,lexical_decision_task_DD_L4,2021.2.3,Win32,60.0348202,,,,,,,,,,,0.6324,1,,,,,,,,,,,,,,,,,,,,,,,,-0.015625,-0.411458333,0,0,0,,,,,,,SUNSET,HB,z,y,./images/SUNSETHB.png,,,,,,,,,,,,,,,,,,,,,z,1,0.6324,,,,,,,,0,132,132,166,1
,,,,,,,,,,,,,,,,,,48,2022-02-12_16h30.46.917,lexical_decision_task_DD_L4,2021.2.3,Win32,60.0348202,,,,,,,,,,,0.8162,1,,,,,,,,,,,,,,,,,,,,,,,,-0.015625,-0.411458333,0,0,0,,,,,,,BANNER,HB,z,y,./images/BANNERHB.png,,,,,,,,,,,,,,,,,,,,,z,1,0.8162,,,,,,,,0,133,133,136,1
,,,,,,,,,,,,,,,,,,48,2022-02-12_16h30.46.917,lexical_decision_task_DD_L4,2021.2.3,Win32,60.0348202,,,,,,,,,,,0.6034,1,,,,,,,,,,,,,,,,,,,,,,,,-0.015625,-0.411458333,0,0,0,,,,,,,CEMENT,LB,z,y,./images/CEMENTLB.png,,,,,,,,,,,,,,,,,,,,,z,1,0.6034,,,,,,,,0,134,134,158,1
,,,,,,,,,,,,,,,,,,48,2022-02-12_16h30.46.917,lexical_decision_task_DD_L4,2021.2.3,Win32,60.0348202,,,,,,,,,,,0.6354,1,,,,,,,,,,,,,,,,,,,,,,,,-0.015625,-0.411458333,0,0,0,,,,,,,SAUNA,C,m,y,./images/SAUNA.png,,,,,,,,,,,,,,,,,,,,,m,1,0.6354,,,,,,,,0,135,135,33,1
,,,,,,,,,,,,,,,,,,48,2022-02-12_16h30.46.917,lexical_decision_task_DD_L4,2021.2.3,Win32,60.0348202,,,,,,,,,,,0.6529,1,,,,,,,,,,,,,,,,,,,,,,,,-0.015625,-0.411458333,0,0,0,,,,,,,KITTEN,C,z,y,./images/KITTEN.png,,,,,,,,,,,,,,,,,,,,,z,1,0.6529,,,,,,,,0,136,136,129,1
,,,,,,,,,,,,,,,,,,48,2022-02-12_16h30.46.917,lexical_decision_task_DD_L4,2021.2.3,Win32,60.0348202,,,,,,,,,,,0.7172,1,,,,,,,,,,,,,,,,,,,,,,,,-0.015625,-0.411458333,0,0,0,,,,,,,MOTOR,HB,z,y,./images/MOTORHB.png,,,,,,,,,,,,,,,,,,,,,z,1,0.7172,,,,,,,,0,137,137,97,1
,,,,,,,,,,,,,,,,,,48,2022-02-12_16h30.46.917,lexical_decision_task_DD_L4,2021.2.3,Win32,60.0348202,,,,,,,,,,,0.6966,1,,,,,,,,,,,,,,,,,,,,,,,,-0.015625,-0.411458333,0,0,0,,,,,,,SQUARE,C,z,y,./images/SQUARE.png,,,,,,,,,,,,,,,,,,,,,z,1,0.6966,,,,,,,,0,138,138,90,1
,,,,,,,,,,,,,,,,,,48,2022-02-12_16h30.46.917,lexical_decision_task_DD_L4,2021.2.3,Win32,60.0348202,,,,,,,,,,,0.5881,0,,,,,,,,,,,,,,,,,,,,,,,,-0.015625,-0.411458333,0,0,0,,,,,,,PEBBLE,HB,m,y,./images/PEBBLEHB.png,,,,,,,,,,,,,,,,,,,,,z,0,0.5881,,,,,,,,0,139,139,82,1
,,,,,,,,,,,,,,,,,,48,2022-02-12_16h30.46.917,lexical_decision_task_DD_L4,2021.2.3,Win32,60.0348202,,,,,,,,,,,0.6656,0,,,,,,,,,,,,,,,,,,,,,,,,-0.015625,-0.411458333,0,0,0,,,,,,,BUBBLE,LB,m,y,./images/BUBBLELB.png,,,,,,,,,,,,,,,,,,,,,z,0,0.6656,,,,,,,,0,140,140,71,1
,,,,,,,,,,,,,,,,,,48,2022-02-12_16h30.46.917,lexical_decision_task_DD_L4,2021.2.3,Win32,60.0348202,,,,,,,,,,,2.0076,0,,,,,,,,,,,,,,,,,,,,,,,,-0.015625,-0.411458333,0,0,0,,,,,,,STREAM,LB,m,y,./images/STREAMLB.png,,,,,,,,,,,,,,,,,,,,,z,0,2.0076,,,,,,,,0,141,141,41,1
,,,,,,,,,,,,,,,,,,48,2022-02-12_16h30.46.917,lexical_decision_task_DD_L4,2021.2.3,Win32,60.0348202,,,,,,,,,,,0.7659,1,,,,,,,,,,,,,,,,,,,,,,,,-0.015625,-0.411458333,0,0,0,,,,,,,PARCEL,C,m,y,./images/PARCEL.png,,,,,,,,,,,,,,,,,,,,,m,1,0.7659,,,,,,,,0,142,142,18,1
,,,,,,,,,,,,,,,,,,48,2022-02-12_16h30.46.917,lexical_decision_task_DD_L4,2021.2.3,Win32,60.0348202,,,,,,,,,,,0.8482,1,,,,,,,,,,,,,,,,,,,,,,,,-0.015625,-0.411458333,0,0,0,,,,,,,CARPET,LB,z,y,./images/CARPETLB.png,,,,,,,,,,,,,,,,,,,,,z,1,0.8482,,,,,,,,0,143,143,137,1
,,,,,,,,,,,,,,,,,,48,2022-02-12_16h30.46.917,lexical_decision_task_DD_L4,2021.2.3,Win32,60.0348202,,,,,,,,,,,0.8903,1,,,,,,,,,,,,,,,,,,,,,,,,-0.015625,-0.411458333,0,0,0,,,,,,,POODLE,C,z,y,./images/POODLE.png,,,,,,,,,,,,,,,,,,,,,z,1,0.8903,,,,,,,,0,144,144,165,1
,,,,,,,,,,,,,,,,,,48,2022-02-12_16h30.46.917,lexical_decision_task_DD_L4,2021.2.3,Win32,60.0348202,,,,,,,,,,,0.9183,1,,,,,,,,,,,,,,,,,,,,,,,,-0.015625,-0.411458333,0,0,0,,,,,,,PILOT,LB,m,y,./images/PILOTLB.png,,,,,,,,,,,,,,,,,,,,,m,1,0.9183,,,,,,,,0,145,145,50,1
,,,,,,,,,,,,,,,,,,48,2022-02-12_16h30.46.917,lexical_decision_task_DD_L4,2021.2.3,Win32,60.0348202,,,,,,,,,,,0.9873,1,,,,,,,,,,,,,,,,,,,,,,,,-0.015625,-0.411458333,0,0,0,,,,,,,PASTA,LB,z,y,./images/PASTALB.png,,,,,,,,,,,,,,,,,,,,,z,1,0.9873,,,,,,,,0,146,146,89,1
,,,,,,,,,,,,,,,,,,48,2022-02-12_16h30.46.917,lexical_decision_task_DD_L4,2021.2.3,Win32,60.0348202,,,,,,,,,,,1.0349,1,,,,,,,,,,,,,,,,,,,,,,,,-0.015625,-0.411458333,0,0,0,,,,,,,SHELF,C,z,y,./images/SHELF.png,,,,,,,,,,,,,,,,,,,,,z,1,1.0349,,,,,,,,0,147,147,123,1
,,,,,,,,,,,,,,,,,,48,2022-02-12_16h30.46.917,lexical_decision_task_DD_L4,2021.2.3,Win32,60.0348202,,,,,,,,,,,0.6373,1,,,,,,,,,,,,,,,,,,,,,,,,-0.015625,-0.411458333,0,0,0,,,,,,,BUTTER,C,m,y,./images/BUTTER.png,,,,,,,,,,,,,,,,,,,,,m,1,0.6373,,,,,,,,0,148,148,27,1
,,,,,,,,,,,,,,,,,,48,2022-02-12_16h30.46.917,lexical_decision_task_DD_L4,2021.2.3,Win32,60.0348202,,,,,,,,,,,0.8153,1,,,,,,,,,,,,,,,,,,,,,,,,-0.015625,-0.411458333,0,0,0,,,,,,,BISHOP,HB,m,y,./images/BISHOPHB.png,,,,,,,,,,,,,,,,,,,,,m,1,0.8153,,,,,,,,0,149,149,49,1
,,,,,,,,,,,,,,,,,,48,2022-02-12_16h30.46.917,lexical_decision_task_DD_L4,2021.2.3,Win32,60.0348202,,,,,,,,,,,0.6926,1,,,,,,,,,,,,,,,,,,,,,,,,-0.015625,-0.411458333,0,0,0,,,,,,,DIVER,C,m,y,./images/DIVER.png,,,,,,,,,,,,,,,,,,,,,m,1,0.6926,,,,,,,,0,150,150,9,1
,,,,,,,,,,,,,,,,,,48,2022-02-12_16h30.46.917,lexical_decision_task_DD_L4,2021.2.3,Win32,60.0348202,,,,,,,,,,,1.3826,1,,,,,,,,,,,,,,,,,,,,,,,,-0.015625,-0.411458333,0,0,0,,,,,,,HOCKEY,LB,m,y,./images/HOCKEYLB.png,,,,,,,,,,,,,,,,,,,,,m,1,1.3826,,,,,,,,0,151,151,32,1
,,,,,,,,,,,,,,,,,,48,2022-02-12_16h30.46.917,lexical_decision_task_DD_L4,2021.2.3,Win32,60.0348202,,,,,,,,,,,0.8972,1,,,,,,,,,,,,,,,,,,,,,,,,-0.015625,-0.411458333,0,0,0,,,,,,,PURSE,LB,z,y,./images/PURSELB.png,,,,,,,,,,,,,,,,,,,,,z,1,0.8972,,,,,,,,0,152,152,146,1
,,,,,,,,,,,,,,,,,,48,2022-02-12_16h30.46.917,lexical_decision_task_DD_L4,2021.2.3,Win32,60.0348202,,,,,,,,,,,1.0802,1,,,,,,,,,,,,,,,,,,,,,,,,-0.015625,-0.411458333,0,0,0,,,,,,,COUCH,LB,z,y,./images/COUCHLB.png,,,,,,,,,,,,,,,,,,,,,z,1,1.0802,,,,,,,,0,153,153,161,1
,,,,,,,,,,,,,,,,,,48,2022-02-12_16h30.46.917,lexical_decision_task_DD_L4,2021.2.3,Win32,60.0348202,,,,,,,,,,,0.8351,1,,,,,,,,,,,,,,,,,,,,,,,,-0.015625,-0.411458333,0,0,0,,,,,,,SNAKE,HB,m,y,./images/SNAKEHB.png,,,,,,,,,,,,,,,,,,,,,m,1,0.8351,,,,,,,,0,154,154,40,1
,,,,,,,,,,,,,,,,,,48,2022-02-12_16h30.46.917,lexical_decision_task_DD_L4,2021.2.3,Win32,60.0348202,,,,,,,,,,,0.9982,1,,,,,,,,,,,,,,,,,,,,,,,,-0.015625,-0.411458333,0,0,0,,,,,,,ATTIC,C,z,y,./images/ATTIC.png,,,,,,,,,,,,,,,,,,,,,z,1,0.9982,,,,,,,,0,155,155,111,1
,,,,,,,,,,,,,,,,,,48,2022-02-12_16h30.46.917,lexical_decision_task_DD_L4,2021.2.3,Win32,60.0348202,,,,,,,,,,,0.7398,1,,,,,,,,,,,,,,,,,,,,,,,,-0.015625,-0.411458333,0,0,0,,,,,,,CRADLE,LB,z,y,./images/CRADLELB.png,,,,,,,,,,,,,,,,,,,,,z,1,0.7398,,,,,,,,0,156,156,104,1
,,,,,,,,,,,,,,,,,,48,2022-02-12_16h30.46.917,lexical_decision_task_DD_L4,2021.2.3,Win32,60.0348202,,,,,,,,,,,1.3633,0,,,,,,,,,,,,,,,,,,,,,,,,-0.015625,-0.411458333,0,0,0,,,,,,,MALLET,LB,z,y,./images/MALLETLB.png,,,,,,,,,,,,,,,,,,,,,m,0,1.3633,,,,,,,,0,157,157,134,1
,,,,,,,,,,,,,,,,,,48,2022-02-12_16h30.46.917,lexical_decision_task_DD_L4,2021.2.3,Win32,60.0348202,,,,,,,,,,,0.9153,1,,,,,,,,,,,,,,,,,,,,,,,,-0.015625,-0.411458333,0,0,0,,,,,,,SHORE,C,z,y,./images/SHORE.png,,,,,,,,,,,,,,,,,,,,,z,1,0.9153,,,,,,,,0,158,158,96,1
,,,,,,,,,,,,,,,,,,48,2022-02-12_16h30.46.917,lexical_decision_task_DD_L4,2021.2.3,Win32,60.0348202,,,,,,,,,,,2.0868,1,,,,,,,,,,,,,,,,,,,,,,,,-0.015625,-0.411458333,0,0,0,,,,,,,LITTER,C,z,y,./images/LITTER.png,,,,,,,,,,,,,,,,,,,,,z,1,2.0868,,,,,,,,0,159,159,162,1
,,,,,,,,,,,,,,,,,,48,2022-02-12_16h30.46.917,lexical_decision_task_DD_L4,2021.2.3,Win32,60.0348202,,,,,,,,,,,0.749,0,,,,,,,,,,,,,,,,,,,,,,,,-0.015625,-0.411458333,0,0,0,,,,,,,STEAK,HB,m,y,./images/STEAKHB.png,,,,,,,,,,,,,,,,,,,,,z,0,0.749,,,,,,,,0,160,160,31,1
,,,,,,,,,,,,,,,,,,48,2022-02-12_16h30.46.917,lexical_decision_task_DD_L4,2021.2.3,Win32,60.0348202,,,,,,,,,,,0.6564,1,,,,,,,,,,,,,,,,,,,,,,,,-0.015625,-0.411458333,0,0,0,,,,,,,LADDER,LB,z,y,./images/LADDERLB.png,,,,,,,,,,,,,,,,,,,,,z,1,0.6564,,,,,,,,0,161,161,122,1
,,,,,,,,,,,,,,,,,,48,2022-02-12_16h30.46.917,lexical_decision_task_DD_L4,2021.2.3,Win32,60.0348202,,,,,,,,,,,0.8159,1,,,,,,,,,,,,,,,,,,,,,,,,-0.015625,-0.411458333,0,0,0,,,,,,,CRUMB,LB,z,y,./images/CRUMBLB.png,,,,,,,,,,,,,,,,,,,,,z,1,0.8159,,,,,,,,0,162,162,113,1
,,,,,,,,,,,,,,,,,,48,2022-02-12_16h30.46.917,lexical_decision_task_DD_L4,2021.2.3,Win32,60.0348202,,,,,,,,,,,0.7106,1,,,,,,,,,,,,,,,,,,,,,,,,-0.015625,-0.411458333,0,0,0,,,,,,,WAGON,HB,m,y,./images/WAGONHB.png,,,,,,,,,,,,,,,,,,,,,m,1,0.7106,,,,,,,,0,163,163,7,1
