key_resp.keys,instr_done_touch.x,instr_done_touch.y,instr_done_touch.leftButton,instr_done_touch.midButton,instr_done_touch.rightButton,instr_done_touch.clicked_name,instruction_pages.thisRepN,instruction_pages.thisTrialN,instruction_pages.thisN,instruction_pages.thisIndex,instruction_pages.ran,pageN,phase,instruct_text,has_image,instruct_image,participant,age,date,expName,psychopyVersion,OS,frameRate,key_resp.rt,response.keys,response.corr,response.rt,touch_resp.x,touch_resp.y,touch_resp.leftButton,touch_resp.midButton,touch_resp.rightButton,touch_resp.time,touch_resp.clicked_name,rt,corr,practrials.thisRepN,practrials.thisTrialN,practrials.thisN,practrials.thisIndex,practrials.ran,TrialID,Target,corrAns,end_of_practice_trials_pages.thisRepN,end_of_practice_trials_pages.thisTrialN,end_of_practice_trials_pages.thisN,end_of_practice_trials_pages.thisIndex,end_of_practice_trials_pages.ran,key_resp_2.keys,key_resp_2.corr,key_resp_2.rt,targ_click.x,targ_click.y,targ_click.leftButton,targ_click.midButton,targ_click.rightButton,targ_click.time,targ_click.clicked_name,break_done_touch.x,break_done_touch.y,break_done_touch.leftButton,break_done_touch.midButton,break_done_touch.rightButton,break_done_keyboard.keys,maintrials.thisRepN,maintrials.thisTrialN,maintrials.thisN,maintrials.thisIndex,maintrials.ran,string,blur,study,lex,stim_path,break_done_touch.clicked_name,break_done_keyboard.rt,mouse_2.x,mouse_2.y,mouse_2.leftButton,mouse_2.midButton,mouse_2.rightButton,mouse_2.clicked_name,slider.response,slider.rt,trials.thisRepN,trials.thisTrialN,trials.thisN,trials.thisIndex,trials.ran,test_instructions.thisRepN,test_instructions.thisTrialN,test_instructions.thisN,test_instructions.thisIndex,test_instructions.ran,key_resp_3.keys,key_resp_3.corr,key_resp_3.rt,test_click.x,test_click.y,test_click.leftButton,test_click.midButton,test_click.rightButton,test_click.time,test_click.clicked_name,test_phase.thisRepN,test_phase.thisTrialN,test_phase.thisN,test_phase.thisIndex,test_phase.ran
,0.003703704,-0.424074074,1,0,0,instr_done_button,0,0,0,0,1,1,instructions,"INSTRUCTIONS
At the start of each trial, look at the plus sign  (+) in the center of the screen.  This tells you that a trial is about to begin and where to look. Second, the plus sign will disappear and a string of letters will appear. Your task is to determine if the string of letters is a word or not. If the item is a word press the M key (on keyboard)  or touch the word button (phone/tablet).  If the item is not a word,  press the  Z key (on keyboard)  or touch the nonword button (on phone/tablet). 
Press the space bar or touch  continue.",0,,,32,2022-02-12_12h29.51.987,lexical_decision_task_DD_L4,2021.2.3,Win32,60.33182504,,,,,,,,,,,,,,,,,,,,,,,,,,,,,,,,,,,,,,,,,,,,,,,,,,,,,,,,,,,,,,,,,,,,,,,,,,,,,,,,,,,,,,,
space,0.003703704,-0.424074074,0,0,0,,0,1,1,1,1,2,instructions,"If your device has a keyboard, press the 'Z' key for nonwords and the 'M' key for words.





Press the space bar or touch the button below to continue.",0,keyboard-example.gif,,32,2022-02-12_12h29.51.987,lexical_decision_task_DD_L4,2021.2.3,Win32,60.33182504,13.7333,,,,,,,,,,,,,,,,,,,,,,,,,,,,,,,,,,,,,,,,,,,,,,,,,,,,,,,,,,,,,,,,,,,,,,,,,,,,,,,,,,,,,,
space,0.003703704,-0.424074074,0,0,0,,0,2,2,2,1,3,instructions,"If you are using a touchscreen only device, use the buttons on the screen. Do not use the mouse.





Press the space bar or touch the button below to continue.",0,touchscreen-example.gif,,32,2022-02-12_12h29.51.987,lexical_decision_task_DD_L4,2021.2.3,Win32,60.33182504,0.0336,,,,,,,,,,,,,,,,,,,,,,,,,,,,,,,,,,,,,,,,,,,,,,,,,,,,,,,,,,,,,,,,,,,,,,,,,,,,,,,,,,,,,,
space,0.003703704,-0.424074074,0,0,0,,0,3,3,3,1,4,instructions,"It is very important that you respond as quickly and accurately as possible, as each letter string will only be on the screen for two seconds. If you do not respond within this time, the message 'Too slow!' will be displayed and the experiment will progress to the next letter string. The first 20 trials will be practice trials and you will receive feedback on your answers. 

Press the space bar or touch the button below to start the practice trials.",0,,,32,2022-02-12_12h29.51.987,lexical_decision_task_DD_L4,2021.2.3,Win32,60.33182504,2.2899,,,,,,,,,,,,,,,,,,,,,,,,,,,,,,,,,,,,,,,,,,,,,,,,,,,,,,,,,,,,,,,,,,,,,,,,,,,,,,,,,,,,,,
,,,,,,,,,,,,,,,,,,32,2022-02-12_12h29.51.987,lexical_decision_task_DD_L4,2021.2.3,Win32,60.33182504,,m,1,1.3722,,,,,,,,1.3722,1,0,0,0,6,1,1001,ZOMBIE,m,,,,,,,,,,,,,,,,,,,,,,,,,,,,,,,,,,,,,,,,,,,,,,,,,,,,,,,,,,,,,,,,,,
,,,,,,,,,,,,,,,,,,32,2022-02-12_12h29.51.987,lexical_decision_task_DD_L4,2021.2.3,Win32,60.33182504,,m,1,0.6416,,,,,,,,0.6416,1,0,1,1,5,1,1001,OBTAIN,m,,,,,,,,,,,,,,,,,,,,,,,,,,,,,,,,,,,,,,,,,,,,,,,,,,,,,,,,,,,,,,,,,,
,,,,,,,,,,,,,,,,,,32,2022-02-12_12h29.51.987,lexical_decision_task_DD_L4,2021.2.3,Win32,60.33182504,,z,1,0.6999,,,,,,,,0.6999,1,0,2,2,8,1,1001,ASLERT,z,,,,,,,,,,,,,,,,,,,,,,,,,,,,,,,,,,,,,,,,,,,,,,,,,,,,,,,,,,,,,,,,,,
,,,,,,,,,,,,,,,,,,32,2022-02-12_12h29.51.987,lexical_decision_task_DD_L4,2021.2.3,Win32,60.33182504,,m,1,0.8268,,,,,,,,0.8268,1,0,3,3,0,1,1001,UTOPIA,m,,,,,,,,,,,,,,,,,,,,,,,,,,,,,,,,,,,,,,,,,,,,,,,,,,,,,,,,,,,,,,,,,,
,,,,,,,,,,,,,,,,,,32,2022-02-12_12h29.51.987,lexical_decision_task_DD_L4,2021.2.3,Win32,60.33182504,,z,1,0.7853,,,,,,,,0.7853,1,0,4,4,15,1,1001,WHAISE,z,,,,,,,,,,,,,,,,,,,,,,,,,,,,,,,,,,,,,,,,,,,,,,,,,,,,,,,,,,,,,,,,,,
,,,,,,,,,,,,,,,,,,32,2022-02-12_12h29.51.987,lexical_decision_task_DD_L4,2021.2.3,Win32,60.33182504,,m,1,0.5891,,,,,,,,0.5891,1,0,5,5,2,1,1001,ALMOND,m,,,,,,,,,,,,,,,,,,,,,,,,,,,,,,,,,,,,,,,,,,,,,,,,,,,,,,,,,,,,,,,,,,
,,,,,,,,,,,,,,,,,,32,2022-02-12_12h29.51.987,lexical_decision_task_DD_L4,2021.2.3,Win32,60.33182504,,z,1,0.8206,,,,,,,,0.8206,1,0,6,6,11,1,1001,RASHET,z,,,,,,,,,,,,,,,,,,,,,,,,,,,,,,,,,,,,,,,,,,,,,,,,,,,,,,,,,,,,,,,,,,
,,,,,,,,,,,,,,,,,,32,2022-02-12_12h29.51.987,lexical_decision_task_DD_L4,2021.2.3,Win32,60.33182504,,z,1,0.8682,,,,,,,,0.8682,1,0,7,7,9,1,1001,FARINY,z,,,,,,,,,,,,,,,,,,,,,,,,,,,,,,,,,,,,,,,,,,,,,,,,,,,,,,,,,,,,,,,,,,
,,,,,,,,,,,,,,,,,,32,2022-02-12_12h29.51.987,lexical_decision_task_DD_L4,2021.2.3,Win32,60.33182504,,z,1,0.739,,,,,,,,0.739,1,0,8,8,13,1,1001,ROUPET,z,,,,,,,,,,,,,,,,,,,,,,,,,,,,,,,,,,,,,,,,,,,,,,,,,,,,,,,,,,,,,,,,,,
,,,,,,,,,,,,,,,,,,32,2022-02-12_12h29.51.987,lexical_decision_task_DD_L4,2021.2.3,Win32,60.33182504,,m,1,0.62,,,,,,,,0.62,1,0,9,9,1,1,1001,ADJUST,m,,,,,,,,,,,,,,,,,,,,,,,,,,,,,,,,,,,,,,,,,,,,,,,,,,,,,,,,,,,,,,,,,,
,,,,,,,,,,,,,,,,,,32,2022-02-12_12h29.51.987,lexical_decision_task_DD_L4,2021.2.3,Win32,60.33182504,,z,1,0.6694,,,,,,,,0.6694,1,0,10,10,14,1,1001,THRALE,z,,,,,,,,,,,,,,,,,,,,,,,,,,,,,,,,,,,,,,,,,,,,,,,,,,,,,,,,,,,,,,,,,,
,,,,,,,,,,,,,,,,,,32,2022-02-12_12h29.51.987,lexical_decision_task_DD_L4,2021.2.3,Win32,60.33182504,,m,1,0.5326,,,,,,,,0.5326,1,0,11,11,7,1,1001,VOLUME,m,,,,,,,,,,,,,,,,,,,,,,,,,,,,,,,,,,,,,,,,,,,,,,,,,,,,,,,,,,,,,,,,,,
,,,,,,,,,,,,,,,,,,32,2022-02-12_12h29.51.987,lexical_decision_task_DD_L4,2021.2.3,Win32,60.33182504,,z,1,0.836,,,,,,,,0.836,1,0,12,12,10,1,1001,INLADE,z,,,,,,,,,,,,,,,,,,,,,,,,,,,,,,,,,,,,,,,,,,,,,,,,,,,,,,,,,,,,,,,,,,
,,,,,,,,,,,,,,,,,,32,2022-02-12_12h29.51.987,lexical_decision_task_DD_L4,2021.2.3,Win32,60.33182504,,m,1,0.6162,,,,,,,,0.6162,1,0,13,13,3,1,1001,MATRIX,m,,,,,,,,,,,,,,,,,,,,,,,,,,,,,,,,,,,,,,,,,,,,,,,,,,,,,,,,,,,,,,,,,,
,,,,,,,,,,,,,,,,,,32,2022-02-12_12h29.51.987,lexical_decision_task_DD_L4,2021.2.3,Win32,60.33182504,,z,1,0.5549,,,,,,,,0.5549,1,0,14,14,12,1,1001,SPRINY,z,,,,,,,,,,,,,,,,,,,,,,,,,,,,,,,,,,,,,,,,,,,,,,,,,,,,,,,,,,,,,,,,,,
,,,,,,,,,,,,,,,,,,32,2022-02-12_12h29.51.987,lexical_decision_task_DD_L4,2021.2.3,Win32,60.33182504,,m,1,0.5564,,,,,,,,0.5564,1,0,15,15,4,1,1001,SQUEAK,m,,,,,,,,,,,,,,,,,,,,,,,,,,,,,,,,,,,,,,,,,,,,,,,,,,,,,,,,,,,,,,,,,,
space,0.003703704,-0.424074074,0,0,0,,,,,,,1,end_of_practice,"You have completed the practice trials. During the experimental trials, you will not receive feedback. 
Before you begin, please ensure that you are in a comfortable and quiet location and will not be disturbed for about 15 minutes, as we cannot use your data if you do not complete all the trials. 
 When you are ready to start the experimental trials, please press space or touch the button below.",,,,32,2022-02-12_12h29.51.987,lexical_decision_task_DD_L4,2021.2.3,Win32,60.33182504,2.1567,,,,,,,,,,,,,,,,,,,,,0,0,0,0,1,,,,,,,,,,,,,,,,,,,,,,,,,,,,,,,,,,,,,,,,,,,,,,,,,,,,,,,,,,,,,
,,,,,,,,,,,,,,,,,,32,2022-02-12_12h29.51.987,lexical_decision_task_DD_L4,2021.2.3,Win32,60.33182504,,,,,,,,,,,,1.1429,1,,,,,,,,,,,,,,z,1,1.1429,,,,,,,,-0.759259259,-0.249074074,0,0,0,,0,0,0,84,1,HAXES,C,old,z,./images/HAXES.png,,,,,,,,,,,,,,,,,,,,,,,,,,,,,,,,,,,
,,,,,,,,,,,,,,,,,,32,2022-02-12_12h29.51.987,lexical_decision_task_DD_L4,2021.2.3,Win32,60.33182504,,,,,,,,,,,,0.7511,1,,,,,,,,,,,,,,m,1,0.7511,,,,,,,,-0.759259259,-0.249074074,0,0,0,,0,1,1,44,1,BASKET,LB,old,m,./images/BASKETLB.png,,,,,,,,,,,,,,,,,,,,,,,,,,,,,,,,,,,
,,,,,,,,,,,,,,,,,,32,2022-02-12_12h29.51.987,lexical_decision_task_DD_L4,2021.2.3,Win32,60.33182504,,,,,,,,,,,,1.2627,1,,,,,,,,,,,,,,z,1,1.2627,,,,,,,,-0.759259259,-0.249074074,0,0,0,,0,2,2,97,1,CHIDS,HB,old,z,./images/CHIDSHB.png,,,,,,,,,,,,,,,,,,,,,,,,,,,,,,,,,,,
,,,,,,,,,,,,,,,,,,32,2022-02-12_12h29.51.987,lexical_decision_task_DD_L4,2021.2.3,Win32,60.33182504,,,,,,,,,,,,0.8792,1,,,,,,,,,,,,,,m,1,0.8792,,,,,,,,-0.759259259,-0.249074074,0,0,0,,0,3,3,76,1,MIDGET,HB,old,m,./images/MIDGETHB.png,,,,,,,,,,,,,,,,,,,,,,,,,,,,,,,,,,,
,,,,,,,,,,,,,,,,,,32,2022-02-12_12h29.51.987,lexical_decision_task_DD_L4,2021.2.3,Win32,60.33182504,,,,,,,,,,,,0.69,1,,,,,,,,,,,,,,m,1,0.69,,,,,,,,-0.759259259,-0.249074074,0,0,0,,0,4,4,70,1,BANANA,HB,old,m,./images/BANANAHB.png,,,,,,,,,,,,,,,,,,,,,,,,,,,,,,,,,,,
,,,,,,,,,,,,,,,,,,32,2022-02-12_12h29.51.987,lexical_decision_task_DD_L4,2021.2.3,Win32,60.33182504,,,,,,,,,,,,0.7505,1,,,,,,,,,,,,,,z,1,0.7505,,,,,,,,-0.759259259,-0.249074074,0,0,0,,0,5,5,111,1,HOSSE,C,old,z,./images/HOSSE.png,,,,,,,,,,,,,,,,,,,,,,,,,,,,,,,,,,,
,,,,,,,,,,,,,,,,,,32,2022-02-12_12h29.51.987,lexical_decision_task_DD_L4,2021.2.3,Win32,60.33182504,,,,,,,,,,,,0.584,1,,,,,,,,,,,,,,m,1,0.584,,,,,,,,-0.759259259,-0.249074074,0,0,0,,0,6,6,81,1,DRILL,C,old,m,./images/DRILL.png,,,,,,,,,,,,,,,,,,,,,,,,,,,,,,,,,,,
,,,,,,,,,,,,,,,,,,32,2022-02-12_12h29.51.987,lexical_decision_task_DD_L4,2021.2.3,Win32,60.33182504,,,,,,,,,,,,0.8298,0,,,,,,,,,,,,,,m,0,0.8298,,,,,,,,-0.759259259,-0.249074074,0,0,0,,0,7,7,156,1,HIXES,C,old,z,./images/HIXES.png,,,,,,,,,,,,,,,,,,,,,,,,,,,,,,,,,,,
,,,,,,,,,,,,,,,,,,32,2022-02-12_12h29.51.987,lexical_decision_task_DD_L4,2021.2.3,Win32,60.33182504,,,,,,,,,,,,0.6049,1,,,,,,,,,,,,,,z,1,0.6049,,,,,,,,-0.759259259,-0.249074074,0,0,0,,0,8,8,105,1,MOKER,C,old,z,./images/MOKER.png,,,,,,,,,,,,,,,,,,,,,,,,,,,,,,,,,,,
,,,,,,,,,,,,,,,,,,32,2022-02-12_12h29.51.987,lexical_decision_task_DD_L4,2021.2.3,Win32,60.33182504,,,,,,,,,,,,0.5872,1,,,,,,,,,,,,,,m,1,0.5872,,,,,,,,-0.759259259,-0.249074074,0,0,0,,0,9,9,24,1,FLESH,C,old,m,./images/FLESH.png,,,,,,,,,,,,,,,,,,,,,,,,,,,,,,,,,,,
,,,,,,,,,,,,,,,,,,32,2022-02-12_12h29.51.987,lexical_decision_task_DD_L4,2021.2.3,Win32,60.33182504,,,,,,,,,,,,0.745,1,,,,,,,,,,,,,,m,1,0.745,,,,,,,,-0.759259259,-0.249074074,0,0,0,,0,10,10,71,1,BUBBLE,LB,old,m,./images/BUBBLELB.png,,,,,,,,,,,,,,,,,,,,,,,,,,,,,,,,,,,
,,,,,,,,,,,,,,,,,,32,2022-02-12_12h29.51.987,lexical_decision_task_DD_L4,2021.2.3,Win32,60.33182504,,,,,,,,,,,,0.6326,1,,,,,,,,,,,,,,m,1,0.6326,,,,,,,,-0.759259259,-0.249074074,0,0,0,,0,11,11,60,1,CURRY,C,old,m,./images/CURRY.png,,,,,,,,,,,,,,,,,,,,,,,,,,,,,,,,,,,
,,,,,,,,,,,,,,,,,,32,2022-02-12_12h29.51.987,lexical_decision_task_DD_L4,2021.2.3,Win32,60.33182504,,,,,,,,,,,,0.9328,1,,,,,,,,,,,,,,m,1,0.9328,,,,,,,,-0.759259259,-0.249074074,0,0,0,,0,12,12,73,1,GLOVE,HB,old,m,./images/GLOVEHB.png,,,,,,,,,,,,,,,,,,,,,,,,,,,,,,,,,,,
,,,,,,,,,,,,,,,,,,32,2022-02-12_12h29.51.987,lexical_decision_task_DD_L4,2021.2.3,Win32,60.33182504,,,,,,,,,,,,0.6934,1,,,,,,,,,,,,,,z,1,0.6934,,,,,,,,-0.759259259,-0.249074074,0,0,0,,0,13,13,113,1,LINEW,LB,old,z,./images/LINEWLB.png,,,,,,,,,,,,,,,,,,,,,,,,,,,,,,,,,,,
,,,,,,,,,,,,,,,,,,32,2022-02-12_12h29.51.987,lexical_decision_task_DD_L4,2021.2.3,Win32,60.33182504,,,,,,,,,,,,0.6301,1,,,,,,,,,,,,,,m,1,0.6301,,,,,,,,-0.759259259,-0.249074074,0,0,0,,0,14,14,25,1,CHALK,HB,old,m,./images/CHALKHB.png,,,,,,,,,,,,,,,,,,,,,,,,,,,,,,,,,,,
,,,,,,,,,,,,,,,,,,32,2022-02-12_12h29.51.987,lexical_decision_task_DD_L4,2021.2.3,Win32,60.33182504,,,,,,,,,,,,0.7572,1,,,,,,,,,,,,,,m,1,0.7572,,,,,,,,-0.759259259,-0.249074074,0,0,0,,0,15,15,72,1,FLASK,C,old,m,./images/FLASK.png,,,,,,,,,,,,,,,,,,,,,,,,,,,,,,,,,,,
,,,,,,,,,,,,,,,,,,32,2022-02-12_12h29.51.987,lexical_decision_task_DD_L4,2021.2.3,Win32,60.33182504,,,,,,,,,,,,0.7886,1,,,,,,,,,,,,,,z,1,0.7886,,,,,,,,-0.759259259,-0.249074074,0,0,0,,0,16,16,112,1,MYING,HB,old,z,./images/MYINGHB.png,,,,,,,,,,,,,,,,,,,,,,,,,,,,,,,,,,,
,,,,,,,,,,,,,,,,,,32,2022-02-12_12h29.51.987,lexical_decision_task_DD_L4,2021.2.3,Win32,60.33182504,,,,,,,,,,,,0.8224,1,,,,,,,,,,,,,,z,1,0.8224,,,,,,,,-0.759259259,-0.249074074,0,0,0,,0,17,17,122,1,BLOOT,LB,old,z,./images/BLOOTLB.png,,,,,,,,,,,,,,,,,,,,,,,,,,,,,,,,,,,
,,,,,,,,,,,,,,,,,,32,2022-02-12_12h29.51.987,lexical_decision_task_DD_L4,2021.2.3,Win32,60.33182504,,,,,,,,,,,,0.7104,1,,,,,,,,,,,,,,z,1,0.7104,,,,,,,,-0.759259259,-0.249074074,0,0,0,,0,18,18,120,1,RINED,C,old,z,./images/RINED.png,,,,,,,,,,,,,,,,,,,,,,,,,,,,,,,,,,,
,,,,,,,,,,,,,,,,,,32,2022-02-12_12h29.51.987,lexical_decision_task_DD_L4,2021.2.3,Win32,60.33182504,,,,,,,,,,,,0.6129,1,,,,,,,,,,,,,,m,1,0.6129,,,,,,,,-0.759259259,-0.249074074,0,0,0,,0,19,19,35,1,LLAMA,LB,old,m,./images/LLAMALB.png,,,,,,,,,,,,,,,,,,,,,,,,,,,,,,,,,,,
,,,,,,,,,,,,,,,,,,32,2022-02-12_12h29.51.987,lexical_decision_task_DD_L4,2021.2.3,Win32,60.33182504,,,,,,,,,,,,0.7544,0,,,,,,,,,,,,,,m,0,0.7544,,,,,,,,-0.759259259,-0.249074074,0,0,0,,0,20,20,163,1,GAMBA,HB,old,z,./images/GAMBAHB.png,,,,,,,,,,,,,,,,,,,,,,,,,,,,,,,,,,,
,,,,,,,,,,,,,,,,,,32,2022-02-12_12h29.51.987,lexical_decision_task_DD_L4,2021.2.3,Win32,60.33182504,,,,,,,,,,,,0.5271,1,,,,,,,,,,,,,,z,1,0.5271,,,,,,,,-0.759259259,-0.249074074,0,0,0,,0,21,21,140,1,DOVET,LB,old,z,./images/DOVETLB.png,,,,,,,,,,,,,,,,,,,,,,,,,,,,,,,,,,,
,,,,,,,,,,,,,,,,,,32,2022-02-12_12h29.51.987,lexical_decision_task_DD_L4,2021.2.3,Win32,60.33182504,,,,,,,,,,,,0.6286,1,,,,,,,,,,,,,,z,1,0.6286,,,,,,,,-0.759259259,-0.249074074,0,0,0,,0,22,22,144,1,NAIRY,C,old,z,./images/NAIRY.png,,,,,,,,,,,,,,,,,,,,,,,,,,,,,,,,,,,
,,,,,,,,,,,,,,,,,,32,2022-02-12_12h29.51.987,lexical_decision_task_DD_L4,2021.2.3,Win32,60.33182504,,,,,,,,,,,,1.0078,1,,,,,,,,,,,,,,z,1,1.0078,,,,,,,,-0.759259259,-0.249074074,0,0,0,,0,23,23,127,1,NINDY,HB,old,z,./images/NINDYHB.png,,,,,,,,,,,,,,,,,,,,,,,,,,,,,,,,,,,
,,,,,,,,,,,,,,,,,,32,2022-02-12_12h29.51.987,lexical_decision_task_DD_L4,2021.2.3,Win32,60.33182504,,,,,,,,,,,,1.0218,0,,,,,,,,,,,,,,m,0,1.0218,,,,,,,,-0.759259259,-0.249074074,0,0,0,,0,24,24,100,1,DRIBS,HB,old,z,./images/DRIBSHB.png,,,,,,,,,,,,,,,,,,,,,,,,,,,,,,,,,,,
,,,,,,,,,,,,,,,,,,32,2022-02-12_12h29.51.987,lexical_decision_task_DD_L4,2021.2.3,Win32,60.33182504,,,,,,,,,,,,0.7247,0,,,,,,,,,,,,,,m,0,0.7247,,,,,,,,-0.759259259,-0.249074074,0,0,0,,0,25,25,92,1,PAIMS,LB,old,z,./images/PAIMSLB.png,,,,,,,,,,,,,,,,,,,,,,,,,,,,,,,,,,,
,,,,,,,,,,,,,,,,,,32,2022-02-12_12h29.51.987,lexical_decision_task_DD_L4,2021.2.3,Win32,60.33182504,,,,,,,,,,,,0.6546,1,,,,,,,,,,,,,,m,1,0.6546,,,,,,,,-0.759259259,-0.249074074,0,0,0,,0,26,26,2,1,STOVE,LB,old,m,./images/STOVELB.png,,,,,,,,,,,,,,,,,,,,,,,,,,,,,,,,,,,
,,,,,,,,,,,,,,,,,,32,2022-02-12_12h29.51.987,lexical_decision_task_DD_L4,2021.2.3,Win32,60.33182504,,,,,,,,,,,,0.8769,1,,,,,,,,,,,,,,z,1,0.8769,,,,,,,,-0.759259259,-0.249074074,0,0,0,,0,27,27,143,1,MONGS,LB,old,z,./images/MONGSLB.png,,,,,,,,,,,,,,,,,,,,,,,,,,,,,,,,,,,
,,,,,,,,,,,,,,,,,,32,2022-02-12_12h29.51.987,lexical_decision_task_DD_L4,2021.2.3,Win32,60.33182504,,,,,,,,,,,,0.9924,1,,,,,,,,,,,,,,z,1,0.9924,,,,,,,,-0.759259259,-0.249074074,0,0,0,,0,28,28,130,1,CRILL,HB,old,z,./images/CRILLHB.png,,,,,,,,,,,,,,,,,,,,,,,,,,,,,,,,,,,
,,,,,,,,,,,,,,,,,,32,2022-02-12_12h29.51.987,lexical_decision_task_DD_L4,2021.2.3,Win32,60.33182504,,,,,,,,,,,,0.6811,1,,,,,,,,,,,,,,z,1,0.6811,,,,,,,,-0.759259259,-0.249074074,0,0,0,,0,29,29,165,1,TROWN,C,old,z,./images/TROWN.png,,,,,,,,,,,,,,,,,,,,,,,,,,,,,,,,,,,
,,,,,,,,,,,,,,,,,,32,2022-02-12_12h29.51.987,lexical_decision_task_DD_L4,2021.2.3,Win32,60.33182504,,,,,,,,,,,,1.1285,1,,,,,,,,,,,,,,z,1,1.1285,,,,,,,,-0.759259259,-0.249074074,0,0,0,,0,30,30,139,1,BLEAR,HB,old,z,./images/BLEARHB.png,,,,,,,,,,,,,,,,,,,,,,,,,,,,,,,,,,,
,,,,,,,,,,,,,,,,,,32,2022-02-12_12h29.51.987,lexical_decision_task_DD_L4,2021.2.3,Win32,60.33182504,,,,,,,,,,,,0.9352,0,,,,,,,,,,,,,,m,0,0.9352,,,,,,,,-0.759259259,-0.249074074,0,0,0,,0,31,31,142,1,PLASK,HB,old,z,./images/PLASKHB.png,,,,,,,,,,,,,,,,,,,,,,,,,,,,,,,,,,,
,,,,,,,,,,,,,,,,,,32,2022-02-12_12h29.51.987,lexical_decision_task_DD_L4,2021.2.3,Win32,60.33182504,,,,,,,,,,,,0.9168,1,,,,,,,,,,,,,,z,1,0.9168,,,,,,,,-0.759259259,-0.249074074,0,0,0,,0,32,32,166,1,SHORY,HB,old,z,./images/SHORYHB.png,,,,,,,,,,,,,,,,,,,,,,,,,,,,,,,,,,,
,,,,,,,,,,,,,,,,,,32,2022-02-12_12h29.51.987,lexical_decision_task_DD_L4,2021.2.3,Win32,60.33182504,,,,,,,,,,,,0.7092,1,,,,,,,,,,,,,,z,1,0.7092,,,,,,,,-0.759259259,-0.249074074,0,0,0,,0,33,33,137,1,JOOST,LB,old,z,./images/JOOSTLB.png,,,,,,,,,,,,,,,,,,,,,,,,,,,,,,,,,,,
,,,,,,,,,,,,,,,,,,32,2022-02-12_12h29.51.987,lexical_decision_task_DD_L4,2021.2.3,Win32,60.33182504,,,,,,,,,,,,0.6158,1,,,,,,,,,,,,,,m,1,0.6158,,,,,,,,-0.759259259,-0.249074074,0,0,0,,0,34,34,45,1,MONKEY,C,old,m,./images/MONKEY.png,,,,,,,,,,,,,,,,,,,,,,,,,,,,,,,,,,,
,,,,,,,,,,,,,,,,,,32,2022-02-12_12h29.51.987,lexical_decision_task_DD_L4,2021.2.3,Win32,60.33182504,,,,,,,,,,,,0.6063,1,,,,,,,,,,,,,,z,1,0.6063,,,,,,,,-0.759259259,-0.249074074,0,0,0,,0,35,35,164,1,SGREW,LB,old,z,./images/SGREWLB.png,,,,,,,,,,,,,,,,,,,,,,,,,,,,,,,,,,,
,,,,,,,,,,,,,,,,,,32,2022-02-12_12h29.51.987,lexical_decision_task_DD_L4,2021.2.3,Win32,60.33182504,,,,,,,,,,,,0.6748,1,,,,,,,,,,,,,,z,1,0.6748,,,,,,,,-0.759259259,-0.249074074,0,0,0,,0,36,36,96,1,KEAMS,C,old,z,./images/KEAMS.png,,,,,,,,,,,,,,,,,,,,,,,,,,,,,,,,,,,
,,,,,,,,,,,,,,,,,,32,2022-02-12_12h29.51.987,lexical_decision_task_DD_L4,2021.2.3,Win32,60.33182504,,,,,,,,,,,,0.6857,1,,,,,,,,,,,,,,z,1,0.6857,,,,,,,,-0.759259259,-0.249074074,0,0,0,,0,37,37,87,1,TRING,C,old,z,./images/TRING.png,,,,,,,,,,,,,,,,,,,,,,,,,,,,,,,,,,,
,,,,,,,,,,,,,,,,,,32,2022-02-12_12h29.51.987,lexical_decision_task_DD_L4,2021.2.3,Win32,60.33182504,,,,,,,,,,,,0.6098,1,,,,,,,,,,,,,,z,1,0.6098,,,,,,,,-0.759259259,-0.249074074,0,0,0,,0,38,38,162,1,LEICH,C,old,z,./images/LEICH.png,,,,,,,,,,,,,,,,,,,,,,,,,,,,,,,,,,,
,,,,,,,,,,,,,,,,,,32,2022-02-12_12h29.51.987,lexical_decision_task_DD_L4,2021.2.3,Win32,60.33182504,,,,,,,,,,,,0.8864,1,,,,,,,,,,,,,,z,1,0.8864,,,,,,,,-0.759259259,-0.249074074,0,0,0,,0,39,39,109,1,BURGE,HB,old,z,./images/BURGEHB.png,,,,,,,,,,,,,,,,,,,,,,,,,,,,,,,,,,,
,,,,,,,,,,,,,,,,,,32,2022-02-12_12h29.51.987,lexical_decision_task_DD_L4,2021.2.3,Win32,60.33182504,,,,,,,,,,,,0.5879,1,,,,,,,,,,,,,,z,1,0.5879,,,,,,,,-0.759259259,-0.249074074,0,0,0,,0,40,40,147,1,ZOLES,C,old,z,./images/ZOLES.png,,,,,,,,,,,,,,,,,,,,,,,,,,,,,,,,,,,
,,,,,,,,,,,,,,,,,,32,2022-02-12_12h29.51.987,lexical_decision_task_DD_L4,2021.2.3,Win32,60.33182504,,,,,,,,,,,,0.5206,1,,,,,,,,,,,,,,m,1,0.5206,,,,,,,,0.027777778,-0.411111111,1,0,0,,0,41,41,9,1,DIVER,C,old,m,./images/DIVER.png,break_done_button,,,,,,,,,,,,,,,,,,,,,,,,,,,,,,,,,,
,,,,,,,,,,,,,,,,,,32,2022-02-12_12h29.51.987,lexical_decision_task_DD_L4,2021.2.3,Win32,60.33182504,,,,,,,,,,,,0.7186,1,,,,,,,,,,,,,,m,1,0.7186,,,,,,,,0.862962963,-0.321296296,0,0,0,,0,42,42,30,1,SLOPE,C,old,m,./images/SLOPE.png,,,,,,,,,,,,,,,,,,,,,,,,,,,,,,,,,,,
,,,,,,,,,,,,,,,,,,32,2022-02-12_12h29.51.987,lexical_decision_task_DD_L4,2021.2.3,Win32,60.33182504,,,,,,,,,,,,0.8685,1,,,,,,,,,,,,,,m,1,0.8685,,,,,,,,0.717592593,-0.226851852,0,0,0,,0,43,43,49,1,BISHOP,HB,old,m,./images/BISHOPHB.png,,,,,,,,,,,,,,,,,,,,,,,,,,,,,,,,,,,
,,,,,,,,,,,,,,,,,,32,2022-02-12_12h29.51.987,lexical_decision_task_DD_L4,2021.2.3,Win32,60.33182504,,,,,,,,,,,,0.6894,1,,,,,,,,,,,,,,z,1,0.6894,,,,,,,,0.717592593,-0.226851852,0,0,0,,0,44,44,123,1,SEDGE,C,old,z,./images/SEDGE.png,,,,,,,,,,,,,,,,,,,,,,,,,,,,,,,,,,,
,,,,,,,,,,,,,,,,,,32,2022-02-12_12h29.51.987,lexical_decision_task_DD_L4,2021.2.3,Win32,60.33182504,,,,,,,,,,,,0.5507,1,,,,,,,,,,,,,,m,1,0.5507,,,,,,,,0.717592593,-0.226851852,0,0,0,,0,45,45,80,1,PLANET,LB,old,m,./images/PLANETLB.png,,,,,,,,,,,,,,,,,,,,,,,,,,,,,,,,,,,
,,,,,,,,,,,,,,,,,,32,2022-02-12_12h29.51.987,lexical_decision_task_DD_L4,2021.2.3,Win32,60.33182504,,,,,,,,,,,,0.63,1,,,,,,,,,,,,,,m,1,0.63,,,,,,,,0.717592593,-0.226851852,0,0,0,,0,46,46,21,1,DANCER,C,old,m,./images/DANCER.png,,,,,,,,,,,,,,,,,,,,,,,,,,,,,,,,,,,
,,,,,,,,,,,,,,,,,,32,2022-02-12_12h29.51.987,lexical_decision_task_DD_L4,2021.2.3,Win32,60.33182504,,,,,,,,,,,,0.58,1,,,,,,,,,,,,,,z,1,0.58,,,,,,,,0.717592593,-0.226851852,0,0,0,,0,47,47,155,1,CANGY,LB,old,z,./images/CANGYLB.png,,,,,,,,,,,,,,,,,,,,,,,,,,,,,,,,,,,
,,,,,,,,,,,,,,,,,,32,2022-02-12_12h29.51.987,lexical_decision_task_DD_L4,2021.2.3,Win32,60.33182504,,,,,,,,,,,,0.5734,1,,,,,,,,,,,,,,m,1,0.5734,,,,,,,,0.717592593,-0.226851852,0,0,0,,0,48,48,54,1,CHERRY,C,old,m,./images/CHERRY.png,,,,,,,,,,,,,,,,,,,,,,,,,,,,,,,,,,,
,,,,,,,,,,,,,,,,,,32,2022-02-12_12h29.51.987,lexical_decision_task_DD_L4,2021.2.3,Win32,60.33182504,,,,,,,,,,,,0.5551,1,,,,,,,,,,,,,,m,1,0.5551,,,,,,,,0.717592593,-0.226851852,0,0,0,,0,49,49,29,1,PISTOL,LB,old,m,./images/PISTOLLB.png,,,,,,,,,,,,,,,,,,,,,,,,,,,,,,,,,,,
,,,,,,,,,,,,,,,,,,32,2022-02-12_12h29.51.987,lexical_decision_task_DD_L4,2021.2.3,Win32,60.33182504,,,,,,,,,,,,0.6177,0,,,,,,,,,,,,,,m,0,0.6177,,,,,,,,0.717592593,-0.226851852,0,0,0,,0,50,50,85,1,CHULK,HB,old,z,./images/CHULKHB.png,,,,,,,,,,,,,,,,,,,,,,,,,,,,,,,,,,,
,,,,,,,,,,,,,,,,,,32,2022-02-12_12h29.51.987,lexical_decision_task_DD_L4,2021.2.3,Win32,60.33182504,,,,,,,,,,,,0.6118,1,,,,,,,,,,,,,,m,1,0.6118,,,,,,,,0.717592593,-0.226851852,0,0,0,,0,51,51,22,1,CLOWN,HB,old,m,./images/CLOWNHB.png,,,,,,,,,,,,,,,,,,,,,,,,,,,,,,,,,,,
,,,,,,,,,,,,,,,,,,32,2022-02-12_12h29.51.987,lexical_decision_task_DD_L4,2021.2.3,Win32,60.33182504,,,,,,,,,,,,0.6743,1,,,,,,,,,,,,,,z,1,0.6743,,,,,,,,0.717592593,-0.226851852,0,0,0,,0,52,52,158,1,EGECT,LB,old,z,./images/EGECTLB.png,,,,,,,,,,,,,,,,,,,,,,,,,,,,,,,,,,,
,,,,,,,,,,,,,,,,,,32,2022-02-12_12h29.51.987,lexical_decision_task_DD_L4,2021.2.3,Win32,60.33182504,,,,,,,,,,,,0.626,1,,,,,,,,,,,,,,m,1,0.626,,,,,,,,0.717592593,-0.226851852,0,0,0,,0,53,53,78,1,BROOM,C,old,m,./images/BROOM.png,,,,,,,,,,,,,,,,,,,,,,,,,,,,,,,,,,,
,,,,,,,,,,,,,,,,,,32,2022-02-12_12h29.51.987,lexical_decision_task_DD_L4,2021.2.3,Win32,60.33182504,,,,,,,,,,,,0.6051,1,,,,,,,,,,,,,,m,1,0.6051,,,,,,,,0.717592593,-0.226851852,0,0,0,,0,54,54,6,1,STAIN,C,old,m,./images/STAIN.png,,,,,,,,,,,,,,,,,,,,,,,,,,,,,,,,,,,
,,,,,,,,,,,,,,,,,,32,2022-02-12_12h29.51.987,lexical_decision_task_DD_L4,2021.2.3,Win32,60.33182504,,,,,,,,,,,,0.5795,1,,,,,,,,,,,,,,m,1,0.5795,,,,,,,,0.717592593,-0.226851852,0,0,0,,0,55,55,50,1,PILOT,LB,old,m,./images/PILOTLB.png,,,,,,,,,,,,,,,,,,,,,,,,,,,,,,,,,,,
,,,,,,,,,,,,,,,,,,32,2022-02-12_12h29.51.987,lexical_decision_task_DD_L4,2021.2.3,Win32,60.33182504,,,,,,,,,,,,0.7315,1,,,,,,,,,,,,,,m,1,0.7315,,,,,,,,0.717592593,-0.226851852,0,0,0,,0,56,56,12,1,BLOKE,C,old,m,./images/BLOKE.png,,,,,,,,,,,,,,,,,,,,,,,,,,,,,,,,,,,
,,,,,,,,,,,,,,,,,,32,2022-02-12_12h29.51.987,lexical_decision_task_DD_L4,2021.2.3,Win32,60.33182504,,,,,,,,,,,,0.5894,1,,,,,,,,,,,,,,m,1,0.5894,,,,,,,,0.717592593,-0.226851852,0,0,0,,0,57,57,23,1,CLOTH,LB,old,m,./images/CLOTHLB.png,,,,,,,,,,,,,,,,,,,,,,,,,,,,,,,,,,,
,,,,,,,,,,,,,,,,,,32,2022-02-12_12h29.51.987,lexical_decision_task_DD_L4,2021.2.3,Win32,60.33182504,,,,,,,,,,,,0.9087,0,,,,,,,,,,,,,,m,0,0.9087,,,,,,,,0.717592593,-0.226851852,0,0,0,,0,58,58,133,1,POWDY,HB,old,z,./images/POWDYHB.png,,,,,,,,,,,,,,,,,,,,,,,,,,,,,,,,,,,
,,,,,,,,,,,,,,,,,,32,2022-02-12_12h29.51.987,lexical_decision_task_DD_L4,2021.2.3,Win32,60.33182504,,,,,,,,,,,,0.5912,1,,,,,,,,,,,,,,z,1,0.5912,,,,,,,,0.717592593,-0.226851852,0,0,0,,0,59,59,119,1,PAFER,LB,old,z,./images/PAFERLB.png,,,,,,,,,,,,,,,,,,,,,,,,,,,,,,,,,,,
,,,,,,,,,,,,,,,,,,32,2022-02-12_12h29.51.987,lexical_decision_task_DD_L4,2021.2.3,Win32,60.33182504,,,,,,,,,,,,0.7457,1,,,,,,,,,,,,,,z,1,0.7457,,,,,,,,0.717592593,-0.226851852,0,0,0,,0,60,60,161,1,BLAPS,LB,old,z,./images/BLAPSLB.png,,,,,,,,,,,,,,,,,,,,,,,,,,,,,,,,,,,
,,,,,,,,,,,,,,,,,,32,2022-02-12_12h29.51.987,lexical_decision_task_DD_L4,2021.2.3,Win32,60.33182504,,,,,,,,,,,,1.0695,1,,,,,,,,,,,,,,z,1,1.0695,,,,,,,,0.717592593,-0.226851852,0,0,0,,0,61,61,88,1,GLUSH,HB,old,z,./images/GLUSHHB.png,,,,,,,,,,,,,,,,,,,,,,,,,,,,,,,,,,,
,,,,,,,,,,,,,,,,,,32,2022-02-12_12h29.51.987,lexical_decision_task_DD_L4,2021.2.3,Win32,60.33182504,,,,,,,,,,,,0.6341,1,,,,,,,,,,,,,,m,1,0.6341,,,,,,,,0.717592593,-0.226851852,0,0,0,,0,62,62,47,1,LAGOON,LB,old,m,./images/LAGOONLB.png,,,,,,,,,,,,,,,,,,,,,,,,,,,,,,,,,,,
,,,,,,,,,,,,,,,,,,32,2022-02-12_12h29.51.987,lexical_decision_task_DD_L4,2021.2.3,Win32,60.33182504,,,,,,,,,,,,0.6663,1,,,,,,,,,,,,,,m,1,0.6663,,,,,,,,0.717592593,-0.226851852,0,0,0,,0,63,63,3,1,CRATER,C,old,m,./images/CRATER.png,,,,,,,,,,,,,,,,,,,,,,,,,,,,,,,,,,,
,,,,,,,,,,,,,,,,,,32,2022-02-12_12h29.51.987,lexical_decision_task_DD_L4,2021.2.3,Win32,60.33182504,,,,,,,,,,,,0.6017,1,,,,,,,,,,,,,,m,1,0.6017,,,,,,,,0.717592593,-0.226851852,0,0,0,,0,64,64,56,1,HEATER,LB,old,m,./images/HEATERLB.png,,,,,,,,,,,,,,,,,,,,,,,,,,,,,,,,,,,
,,,,,,,,,,,,,,,,,,32,2022-02-12_12h29.51.987,lexical_decision_task_DD_L4,2021.2.3,Win32,60.33182504,,,,,,,,,,,,0.7287,1,,,,,,,,,,,,,,m,1,0.7287,,,,,,,,0.717592593,-0.226851852,0,0,0,,0,65,65,58,1,CANOE,HB,old,m,./images/CANOEHB.png,,,,,,,,,,,,,,,,,,,,,,,,,,,,,,,,,,,
,,,,,,,,,,,,,,,,,,32,2022-02-12_12h29.51.987,lexical_decision_task_DD_L4,2021.2.3,Win32,60.33182504,,,,,,,,,,,,0.5712,1,,,,,,,,,,,,,,m,1,0.5712,,,,,,,,0.717592593,-0.226851852,0,0,0,,0,66,66,39,1,CANDY,C,old,m,./images/CANDY.png,,,,,,,,,,,,,,,,,,,,,,,,,,,,,,,,,,,
,,,,,,,,,,,,,,,,,,32,2022-02-12_12h29.51.987,lexical_decision_task_DD_L4,2021.2.3,Win32,60.33182504,,,,,,,,,,,,0.6512,1,,,,,,,,,,,,,,z,1,0.6512,,,,,,,,0.717592593,-0.226851852,0,0,0,,0,67,67,93,1,SMONE,C,old,z,./images/SMONE.png,,,,,,,,,,,,,,,,,,,,,,,,,,,,,,,,,,,
,,,,,,,,,,,,,,,,,,32,2022-02-12_12h29.51.987,lexical_decision_task_DD_L4,2021.2.3,Win32,60.33182504,,,,,,,,,,,,0.5504,1,,,,,,,,,,,,,,m,1,0.5504,,,,,,,,0.717592593,-0.226851852,0,0,0,,0,68,68,18,1,PARCEL,C,old,m,./images/PARCEL.png,,,,,,,,,,,,,,,,,,,,,,,,,,,,,,,,,,,
,,,,,,,,,,,,,,,,,,32,2022-02-12_12h29.51.987,lexical_decision_task_DD_L4,2021.2.3,Win32,60.33182504,,,,,,,,,,,,0.7832,1,,,,,,,,,,,,,,m,1,0.7832,,,,,,,,0.717592593,-0.226851852,0,0,0,,0,69,69,55,1,ALLEY,HB,old,m,./images/ALLEYHB.png,,,,,,,,,,,,,,,,,,,,,,,,,,,,,,,,,,,
,,,,,,,,,,,,,,,,,,32,2022-02-12_12h29.51.987,lexical_decision_task_DD_L4,2021.2.3,Win32,60.33182504,,,,,,,,,,,,0.7941,1,,,,,,,,,,,,,,z,1,0.7941,,,,,,,,0.717592593,-0.226851852,0,0,0,,0,70,70,159,1,CUDDY,C,old,z,./images/CUDDY.png,,,,,,,,,,,,,,,,,,,,,,,,,,,,,,,,,,,
,,,,,,,,,,,,,,,,,,32,2022-02-12_12h29.51.987,lexical_decision_task_DD_L4,2021.2.3,Win32,60.33182504,,,,,,,,,,,,0.7497,1,,,,,,,,,,,,,,z,1,0.7497,,,,,,,,0.717592593,-0.226851852,0,0,0,,0,71,71,107,1,FASKS,LB,old,z,./images/FASKSLB.png,,,,,,,,,,,,,,,,,,,,,,,,,,,,,,,,,,,
,,,,,,,,,,,,,,,,,,32,2022-02-12_12h29.51.987,lexical_decision_task_DD_L4,2021.2.3,Win32,60.33182504,,,,,,,,,,,,0.8247,1,,,,,,,,,,,,,,z,1,0.8247,,,,,,,,0.717592593,-0.226851852,0,0,0,,0,72,72,149,1,VEASE,LB,old,z,./images/VEASELB.png,,,,,,,,,,,,,,,,,,,,,,,,,,,,,,,,,,,
,,,,,,,,,,,,,,,,,,32,2022-02-12_12h29.51.987,lexical_decision_task_DD_L4,2021.2.3,Win32,60.33182504,,,,,,,,,,,,0.6155,1,,,,,,,,,,,,,,m,1,0.6155,,,,,,,,0.717592593,-0.226851852,0,0,0,,0,73,73,61,1,ARTIST,HB,old,m,./images/ARTISTHB.png,,,,,,,,,,,,,,,,,,,,,,,,,,,,,,,,,,,
,,,,,,,,,,,,,,,,,,32,2022-02-12_12h29.51.987,lexical_decision_task_DD_L4,2021.2.3,Win32,60.33182504,,,,,,,,,,,,0.8015,0,,,,,,,,,,,,,,m,0,0.8015,,,,,,,,0.717592593,-0.226851852,0,0,0,,0,74,74,110,1,CRUNK,LB,old,z,./images/CRUNKLB.png,,,,,,,,,,,,,,,,,,,,,,,,,,,,,,,,,,,
,,,,,,,,,,,,,,,,,,32,2022-02-12_12h29.51.987,lexical_decision_task_DD_L4,2021.2.3,Win32,60.33182504,,,,,,,,,,,,0.7492,1,,,,,,,,,,,,,,m,1,0.7492,,,,,,,,0.717592593,-0.226851852,0,0,0,,0,75,75,32,1,HOCKEY,LB,old,m,./images/HOCKEYLB.png,,,,,,,,,,,,,,,,,,,,,,,,,,,,,,,,,,,
,,,,,,,,,,,,,,,,,,32,2022-02-12_12h29.51.987,lexical_decision_task_DD_L4,2021.2.3,Win32,60.33182504,,,,,,,,,,,,0.5623,1,,,,,,,,,,,,,,z,1,0.5623,,,,,,,,0.717592593,-0.226851852,0,0,0,,0,76,76,108,1,GRUET,C,old,z,./images/GRUET.png,,,,,,,,,,,,,,,,,,,,,,,,,,,,,,,,,,,
,,,,,,,,,,,,,,,,,,32,2022-02-12_12h29.51.987,lexical_decision_task_DD_L4,2021.2.3,Win32,60.33182504,,,,,,,,,,,,0.6278,1,,,,,,,,,,,,,,z,1,0.6278,,,,,,,,0.717592593,-0.226851852,0,0,0,,0,77,77,153,1,CLUPS,C,old,z,./images/CLUPS.png,,,,,,,,,,,,,,,,,,,,,,,,,,,,,,,,,,,
,,,,,,,,,,,,,,,,,,32,2022-02-12_12h29.51.987,lexical_decision_task_DD_L4,2021.2.3,Win32,60.33182504,,,,,,,,,,,,1.1554,1,,,,,,,,,,,,,,z,1,1.1554,,,,,,,,0.717592593,-0.226851852,0,0,0,,0,78,78,145,1,LAMEL,HB,old,z,./images/LAMELHB.png,,,,,,,,,,,,,,,,,,,,,,,,,,,,,,,,,,,
,,,,,,,,,,,,,,,,,,32,2022-02-12_12h29.51.987,lexical_decision_task_DD_L4,2021.2.3,Win32,60.33182504,,,,,,,,,,,,0.8435,1,,,,,,,,,,,,,,m,1,0.8435,,,,,,,,0.717592593,-0.226851852,0,0,0,,0,79,79,64,1,BRIDE,HB,old,m,./images/BRIDEHB.png,,,,,,,,,,,,,,,,,,,,,,,,,,,,,,,,,,,
,,,,,,,,,,,,,,,,,,32,2022-02-12_12h29.51.987,lexical_decision_task_DD_L4,2021.2.3,Win32,60.33182504,,,,,,,,,,,,0.6956,1,,,,,,,,,,,,,,m,1,0.6956,,,,,,,,0.717592593,-0.226851852,0,0,0,,0,80,80,11,1,MEDAL,LB,old,m,./images/MEDALLB.png,,,,,,,,,,,,,,,,,,,,,,,,,,,,,,,,,,,
,,,,,,,,,,,,,,,,,,32,2022-02-12_12h29.51.987,lexical_decision_task_DD_L4,2021.2.3,Win32,60.33182504,,,,,,,,,,,,0.814,1,,,,,,,,,,,,,,z,1,0.814,,,,,,,,0.717592593,-0.226851852,0,0,0,,0,81,81,148,1,JOMS,HB,old,z,./images/JOMSHB.png,,,,,,,,,,,,,,,,,,,,,,,,,,,,,,,,,,,
,,,,,,,,,,,,,,,,,,32,2022-02-12_12h29.51.987,lexical_decision_task_DD_L4,2021.2.3,Win32,60.33182504,,,,,,,,,,,,0.4985,1,,,,,,,,,,,,,,m,1,0.4985,,,,,,,,0.717592593,-0.226851852,0,0,0,,0,82,82,0,1,WALNUT,C,old,m,./images/WALNUT.png,,,,,,,,,,,,,,,,,,,,,,,,,,,,,,,,,,,
,,,,,,,,,,,,,,,,,,32,2022-02-12_12h29.51.987,lexical_decision_task_DD_L4,2021.2.3,Win32,60.33182504,,,,,,,,,,,,0.8623,1,,,,,,,,,,,,,,z,1,0.8623,,,,,,,,0.030555556,-0.412037037,1,0,0,,0,83,83,103,1,FLORT,HB,old,z,./images/FLORTHB.png,break_done_button,,,,,,,,,,,,,,,,,,,,,,,,,,,,,,,,,,
,,,,,,,,,,,,,,,,,,32,2022-02-12_12h29.51.987,lexical_decision_task_DD_L4,2021.2.3,Win32,60.33182504,,,,,,,,,,,,0.4787,1,,,,,,,,,,,,,,m,1,0.4787,,,,,,,,0.782407407,-0.326851852,0,0,0,,0,84,84,27,1,BUTTER,C,old,m,./images/BUTTER.png,,,,,,,,,,,,,,,,,,,,,,,,,,,,,,,,,,,
,,,,,,,,,,,,,,,,,,32,2022-02-12_12h29.51.987,lexical_decision_task_DD_L4,2021.2.3,Win32,60.33182504,,,,,,,,,,,,0.4742,1,,,,,,,,,,,,,,z,1,0.4742,,,,,,,,0.765740741,-0.327777778,0,0,0,,0,85,85,132,1,SCIFF,C,old,z,./images/SCIFF.png,,,,,,,,,,,,,,,,,,,,,,,,,,,,,,,,,,,
,,,,,,,,,,,,,,,,,,32,2022-02-12_12h29.51.987,lexical_decision_task_DD_L4,2021.2.3,Win32,60.33182504,,,,,,,,,,,,0.4862,1,,,,,,,,,,,,,,m,1,0.4862,,,,,,,,0.765740741,-0.327777778,0,0,0,,0,86,86,8,1,CLIFF,LB,old,m,./images/CLIFFLB.png,,,,,,,,,,,,,,,,,,,,,,,,,,,,,,,,,,,
,,,,,,,,,,,,,,,,,,32,2022-02-12_12h29.51.987,lexical_decision_task_DD_L4,2021.2.3,Win32,60.33182504,,,,,,,,,,,,0.5839,1,,,,,,,,,,,,,,z,1,0.5839,,,,,,,,0.765740741,-0.327777778,0,0,0,,0,87,87,95,1,HANTY,LB,old,z,./images/HANTYLB.png,,,,,,,,,,,,,,,,,,,,,,,,,,,,,,,,,,,
,,,,,,,,,,,,,,,,,,32,2022-02-12_12h29.51.987,lexical_decision_task_DD_L4,2021.2.3,Win32,60.33182504,,,,,,,,,,,,0.5066,1,,,,,,,,,,,,,,m,1,0.5066,,,,,,,,0.765740741,-0.327777778,0,0,0,,0,88,88,59,1,BRUSH,LB,old,m,./images/BRUSHLB.png,,,,,,,,,,,,,,,,,,,,,,,,,,,,,,,,,,,
,,,,,,,,,,,,,,,,,,32,2022-02-12_12h29.51.987,lexical_decision_task_DD_L4,2021.2.3,Win32,60.33182504,,,,,,,,,,,,0.6317,1,,,,,,,,,,,,,,m,1,0.6317,,,,,,,,0.765740741,-0.327777778,0,0,0,,0,89,89,65,1,SPINE,LB,old,m,./images/SPINELB.png,,,,,,,,,,,,,,,,,,,,,,,,,,,,,,,,,,,
,,,,,,,,,,,,,,,,,,32,2022-02-12_12h29.51.987,lexical_decision_task_DD_L4,2021.2.3,Win32,60.33182504,,,,,,,,,,,,0.4974,1,,,,,,,,,,,,,,z,1,0.4974,,,,,,,,0.765740741,-0.327777778,0,0,0,,0,90,90,86,1,AIFED,LB,old,z,./images/AIFEDLB.png,,,,,,,,,,,,,,,,,,,,,,,,,,,,,,,,,,,
,,,,,,,,,,,,,,,,,,32,2022-02-12_12h29.51.987,lexical_decision_task_DD_L4,2021.2.3,Win32,60.33182504,,,,,,,,,,,,0.5045,1,,,,,,,,,,,,,,m,1,0.5045,,,,,,,,0.765740741,-0.327777778,0,0,0,,0,91,91,38,1,ENGINE,LB,old,m,./images/ENGINELB.png,,,,,,,,,,,,,,,,,,,,,,,,,,,,,,,,,,,
,,,,,,,,,,,,,,,,,,32,2022-02-12_12h29.51.987,lexical_decision_task_DD_L4,2021.2.3,Win32,60.33182504,,,,,,,,,,,,0.7715,1,,,,,,,,,,,,,,z,1,0.7715,,,,,,,,0.765740741,-0.327777778,0,0,0,,0,92,92,136,1,WERVE,HB,old,z,./images/WERVEHB.png,,,,,,,,,,,,,,,,,,,,,,,,,,,,,,,,,,,
,,,,,,,,,,,,,,,,,,32,2022-02-12_12h29.51.987,lexical_decision_task_DD_L4,2021.2.3,Win32,60.33182504,,,,,,,,,,,,0.6588,1,,,,,,,,,,,,,,z,1,0.6588,,,,,,,,0.765740741,-0.327777778,0,0,0,,0,93,93,121,1,CEERS,HB,old,z,./images/CEERSHB.png,,,,,,,,,,,,,,,,,,,,,,,,,,,,,,,,,,,
,,,,,,,,,,,,,,,,,,32,2022-02-12_12h29.51.987,lexical_decision_task_DD_L4,2021.2.3,Win32,60.33182504,,,,,,,,,,,,0.9932,1,,,,,,,,,,,,,,z,1,0.9932,,,,,,,,0.765740741,-0.327777778,0,0,0,,0,94,94,106,1,CLUMS,HB,old,z,./images/CLUMSHB.png,,,,,,,,,,,,,,,,,,,,,,,,,,,,,,,,,,,
,,,,,,,,,,,,,,,,,,32,2022-02-12_12h29.51.987,lexical_decision_task_DD_L4,2021.2.3,Win32,60.33182504,,,,,,,,,,,,0.7424,1,,,,,,,,,,,,,,z,1,0.7424,,,,,,,,0.765740741,-0.327777778,0,0,0,,0,95,95,129,1,PRANS,C,old,z,./images/PRANS.png,,,,,,,,,,,,,,,,,,,,,,,,,,,,,,,,,,,
,,,,,,,,,,,,,,,,,,32,2022-02-12_12h29.51.987,lexical_decision_task_DD_L4,2021.2.3,Win32,60.33182504,,,,,,,,,,,,0.6298,1,,,,,,,,,,,,,,z,1,0.6298,,,,,,,,0.765740741,-0.327777778,0,0,0,,0,96,96,98,1,BAMPS,LB,old,z,./images/BAMPSLB.png,,,,,,,,,,,,,,,,,,,,,,,,,,,,,,,,,,,
,,,,,,,,,,,,,,,,,,32,2022-02-12_12h29.51.987,lexical_decision_task_DD_L4,2021.2.3,Win32,60.33182504,,,,,,,,,,,,0.5015,1,,,,,,,,,,,,,,z,1,0.5015,,,,,,,,0.765740741,-0.327777778,0,0,0,,0,97,97,141,1,PLEET,C,old,z,./images/PLEET.png,,,,,,,,,,,,,,,,,,,,,,,,,,,,,,,,,,,
,,,,,,,,,,,,,,,,,,32,2022-02-12_12h29.51.987,lexical_decision_task_DD_L4,2021.2.3,Win32,60.33182504,,,,,,,,,,,,0.5786,1,,,,,,,,,,,,,,m,1,0.5786,,,,,,,,0.765740741,-0.327777778,0,0,0,,0,98,98,42,1,CHAIN,C,old,m,./images/CHAIN.png,,,,,,,,,,,,,,,,,,,,,,,,,,,,,,,,,,,
,,,,,,,,,,,,,,,,,,32,2022-02-12_12h29.51.987,lexical_decision_task_DD_L4,2021.2.3,Win32,60.33182504,,,,,,,,,,,,0.7114,0,,,,,,,,,,,,,,z,0,0.7114,,,,,,,,0.765740741,-0.327777778,0,0,0,,0,99,99,52,1,DESERT,HB,old,m,./images/DESERTHB.png,,,,,,,,,,,,,,,,,,,,,,,,,,,,,,,,,,,
,,,,,,,,,,,,,,,,,,32,2022-02-12_12h29.51.987,lexical_decision_task_DD_L4,2021.2.3,Win32,60.33182504,,,,,,,,,,,,0.6254,1,,,,,,,,,,,,,,z,1,0.6254,,,,,,,,0.765740741,-0.327777778,0,0,0,,0,100,100,134,1,TROSS,LB,old,z,./images/TROSSLB.png,,,,,,,,,,,,,,,,,,,,,,,,,,,,,,,,,,,
,,,,,,,,,,,,,,,,,,32,2022-02-12_12h29.51.987,lexical_decision_task_DD_L4,2021.2.3,Win32,60.33182504,,,,,,,,,,,,1.0012,0,,,,,,,,,,,,,,m,0,1.0012,,,,,,,,0.765740741,-0.327777778,0,0,0,,0,101,101,154,1,THINT,HB,old,z,./images/THINTHB.png,,,,,,,,,,,,,,,,,,,,,,,,,,,,,,,,,,,
,,,,,,,,,,,,,,,,,,32,2022-02-12_12h29.51.987,lexical_decision_task_DD_L4,2021.2.3,Win32,60.33182504,,,,,,,,,,,,0.6067,1,,,,,,,,,,,,,,m,1,0.6067,,,,,,,,0.765740741,-0.327777778,0,0,0,,0,102,102,63,1,BAKER,C,old,m,./images/BAKER.png,,,,,,,,,,,,,,,,,,,,,,,,,,,,,,,,,,,
,,,,,,,,,,,,,,,,,,32,2022-02-12_12h29.51.987,lexical_decision_task_DD_L4,2021.2.3,Win32,60.33182504,,,,,,,,,,,,0.9573,1,,,,,,,,,,,,,,m,1,0.9573,,,,,,,,0.765740741,-0.327777778,0,0,0,,0,103,103,34,1,RAZOR,HB,old,m,./images/RAZORHB.png,,,,,,,,,,,,,,,,,,,,,,,,,,,,,,,,,,,
,,,,,,,,,,,,,,,,,,32,2022-02-12_12h29.51.987,lexical_decision_task_DD_L4,2021.2.3,Win32,60.33182504,,,,,,,,,,,,0.609,1,,,,,,,,,,,,,,m,1,0.609,,,,,,,,0.765740741,-0.327777778,0,0,0,,0,104,104,36,1,BOILER,C,old,m,./images/BOILER.png,,,,,,,,,,,,,,,,,,,,,,,,,,,,,,,,,,,
,,,,,,,,,,,,,,,,,,32,2022-02-12_12h29.51.987,lexical_decision_task_DD_L4,2021.2.3,Win32,60.33182504,,,,,,,,,,,,0.989,1,,,,,,,,,,,,,,z,1,0.989,,,,,,,,0.765740741,-0.327777778,0,0,0,,0,105,105,91,1,SHENS,HB,old,z,./images/SHENSHB.png,,,,,,,,,,,,,,,,,,,,,,,,,,,,,,,,,,,
,,,,,,,,,,,,,,,,,,32,2022-02-12_12h29.51.987,lexical_decision_task_DD_L4,2021.2.3,Win32,60.33182504,,,,,,,,,,,,0.7248,1,,,,,,,,,,,,,,m,1,0.7248,,,,,,,,0.765740741,-0.327777778,0,0,0,,0,106,106,53,1,POSTER,LB,old,m,./images/POSTERLB.png,,,,,,,,,,,,,,,,,,,,,,,,,,,,,,,,,,,
,,,,,,,,,,,,,,,,,,32,2022-02-12_12h29.51.987,lexical_decision_task_DD_L4,2021.2.3,Win32,60.33182504,,,,,,,,,,,,0.7271,1,,,,,,,,,,,,,,m,1,0.7271,,,,,,,,0.765740741,-0.327777778,0,0,0,,0,107,107,31,1,STEAK,HB,old,m,./images/STEAKHB.png,,,,,,,,,,,,,,,,,,,,,,,,,,,,,,,,,,,
,,,,,,,,,,,,,,,,,,32,2022-02-12_12h29.51.987,lexical_decision_task_DD_L4,2021.2.3,Win32,60.33182504,,,,,,,,,,,,0.9132,0,,,,,,,,,,,,,,m,0,0.9132,,,,,,,,0.765740741,-0.327777778,0,0,0,,0,108,108,94,1,BLANS,HB,old,z,./images/BLANSHB.png,,,,,,,,,,,,,,,,,,,,,,,,,,,,,,,,,,,
,,,,,,,,,,,,,,,,,,32,2022-02-12_12h29.51.987,lexical_decision_task_DD_L4,2021.2.3,Win32,60.33182504,,,,,,,,,,,,0.7659,1,,,,,,,,,,,,,,m,1,0.7659,,,,,,,,0.765740741,-0.327777778,0,0,0,,0,109,109,1,1,TOWEL,HB,old,m,./images/TOWELHB.png,,,,,,,,,,,,,,,,,,,,,,,,,,,,,,,,,,,
,,,,,,,,,,,,,,,,,,32,2022-02-12_12h29.51.987,lexical_decision_task_DD_L4,2021.2.3,Win32,60.33182504,,,,,,,,,,,,0.636,1,,,,,,,,,,,,,,m,1,0.636,,,,,,,,0.765740741,-0.327777778,0,0,0,,0,110,110,17,1,PARADE,LB,old,m,./images/PARADELB.png,,,,,,,,,,,,,,,,,,,,,,,,,,,,,,,,,,,
,,,,,,,,,,,,,,,,,,32,2022-02-12_12h29.51.987,lexical_decision_task_DD_L4,2021.2.3,Win32,60.33182504,,,,,,,,,,,,0.5698,1,,,,,,,,,,,,,,m,1,0.5698,,,,,,,,0.765740741,-0.327777778,0,0,0,,0,111,111,83,1,WHISKY,LB,old,m,./images/WHISKYLB.png,,,,,,,,,,,,,,,,,,,,,,,,,,,,,,,,,,,
,,,,,,,,,,,,,,,,,,32,2022-02-12_12h29.51.987,lexical_decision_task_DD_L4,2021.2.3,Win32,60.33182504,,,,,,,,,,,,0.7781,1,,,,,,,,,,,,,,m,1,0.7781,,,,,,,,0.765740741,-0.327777778,0,0,0,,0,112,112,48,1,SHIELD,C,old,m,./images/SHIELD.png,,,,,,,,,,,,,,,,,,,,,,,,,,,,,,,,,,,
,,,,,,,,,,,,,,,,,,32,2022-02-12_12h29.51.987,lexical_decision_task_DD_L4,2021.2.3,Win32,60.33182504,,,,,,,,,,,,0.8186,1,,,,,,,,,,,,,,z,1,0.8186,,,,,,,,0.765740741,-0.327777778,0,0,0,,0,113,113,160,1,VEETS,HB,old,z,./images/VEETSHB.png,,,,,,,,,,,,,,,,,,,,,,,,,,,,,,,,,,,
,,,,,,,,,,,,,,,,,,32,2022-02-12_12h29.51.987,lexical_decision_task_DD_L4,2021.2.3,Win32,60.33182504,,,,,,,,,,,,0.5842,1,,,,,,,,,,,,,,m,1,0.5842,,,,,,,,0.765740741,-0.327777778,0,0,0,,0,114,114,15,1,COLLAR,C,old,m,./images/COLLAR.png,,,,,,,,,,,,,,,,,,,,,,,,,,,,,,,,,,,
,,,,,,,,,,,,,,,,,,32,2022-02-12_12h29.51.987,lexical_decision_task_DD_L4,2021.2.3,Win32,60.33182504,,,,,,,,,,,,0.8511,1,,,,,,,,,,,,,,m,1,0.8511,,,,,,,,0.765740741,-0.327777778,0,0,0,,0,115,115,40,1,SNAKE,HB,old,m,./images/SNAKEHB.png,,,,,,,,,,,,,,,,,,,,,,,,,,,,,,,,,,,
,,,,,,,,,,,,,,,,,,32,2022-02-12_12h29.51.987,lexical_decision_task_DD_L4,2021.2.3,Win32,60.33182504,,,,,,,,,,,,0.7578,0,,,,,,,,,,,,,,m,0,0.7578,,,,,,,,0.765740741,-0.327777778,0,0,0,,0,116,116,151,1,TINKY,HB,old,z,./images/TINKYHB.png,,,,,,,,,,,,,,,,,,,,,,,,,,,,,,,,,,,
,,,,,,,,,,,,,,,,,,32,2022-02-12_12h29.51.987,lexical_decision_task_DD_L4,2021.2.3,Win32,60.33182504,,,,,,,,,,,,0.9178,0,,,,,,,,,,,,,,m,0,0.9178,,,,,,,,0.765740741,-0.327777778,0,0,0,,0,117,117,118,1,BAVEL,HB,old,z,./images/BAVELHB.png,,,,,,,,,,,,,,,,,,,,,,,,,,,,,,,,,,,
,,,,,,,,,,,,,,,,,,32,2022-02-12_12h29.51.987,lexical_decision_task_DD_L4,2021.2.3,Win32,60.33182504,,,,,,,,,,,,0.7839,1,,,,,,,,,,,,,,m,1,0.7839,,,,,,,,0.768518519,-0.326851852,0,0,0,,0,118,118,4,1,BOXER,HB,old,m,./images/BOXERHB.png,,,,,,,,,,,,,,,,,,,,,,,,,,,,,,,,,,,
,,,,,,,,,,,,,,,,,,32,2022-02-12_12h29.51.987,lexical_decision_task_DD_L4,2021.2.3,Win32,60.33182504,,,,,,,,,,,,0.7278,1,,,,,,,,,,,,,,m,1,0.7278,,,,,,,,0.768518519,-0.326851852,0,0,0,,0,119,119,67,1,POKER,HB,old,m,./images/POKERHB.png,,,,,,,,,,,,,,,,,,,,,,,,,,,,,,,,,,,
,,,,,,,,,,,,,,,,,,32,2022-02-12_12h29.51.987,lexical_decision_task_DD_L4,2021.2.3,Win32,60.33182504,,,,,,,,,,,,0.9336,0,,,,,,,,,,,,,,m,0,0.9336,,,,,,,,0.768518519,-0.326851852,0,0,0,,0,120,120,128,1,GRIFT,LB,old,z,./images/GRIFTLB.png,,,,,,,,,,,,,,,,,,,,,,,,,,,,,,,,,,,
,,,,,,,,,,,,,,,,,,32,2022-02-12_12h29.51.987,lexical_decision_task_DD_L4,2021.2.3,Win32,60.33182504,,,,,,,,,,,,0.5887,1,,,,,,,,,,,,,,m,1,0.5887,,,,,,,,0.768518519,-0.326851852,0,0,0,,0,121,121,68,1,VALLEY,LB,old,m,./images/VALLEYLB.png,,,,,,,,,,,,,,,,,,,,,,,,,,,,,,,,,,,
,,,,,,,,,,,,,,,,,,32,2022-02-12_12h29.51.987,lexical_decision_task_DD_L4,2021.2.3,Win32,60.33182504,,,,,,,,,,,,0.5168,1,,,,,,,,,,,,,,m,1,0.5168,,,,,,,,0.768518519,-0.326851852,0,0,0,,0,122,122,26,1,CLOUD,LB,old,m,./images/CLOUDLB.png,,,,,,,,,,,,,,,,,,,,,,,,,,,,,,,,,,,
,,,,,,,,,,,,,,,,,,32,2022-02-12_12h29.51.987,lexical_decision_task_DD_L4,2021.2.3,Win32,60.33182504,,,,,,,,,,,,0.6624,1,,,,,,,,,,,,,,z,1,0.6624,,,,,,,,0.768518519,-0.326851852,0,0,0,,0,123,123,117,1,STEEG,C,old,z,./images/STEEG.png,,,,,,,,,,,,,,,,,,,,,,,,,,,,,,,,,,,
,,,,,,,,,,,,,,,,,,32,2022-02-12_12h29.51.987,lexical_decision_task_DD_L4,2021.2.3,Win32,60.33182504,,,,,,,,,,,,0.619,1,,,,,,,,,,,,,,m,1,0.619,,,,,,,,0.768518519,-0.326851852,0,0,0,,0,124,124,20,1,GRANNY,LB,old,m,./images/GRANNYLB.png,,,,,,,,,,,,,,,,,,,,,,,,,,,,,,,,,,,
,,,,,,,,,,,,,,,,,,32,2022-02-12_12h29.51.987,lexical_decision_task_DD_L4,2021.2.3,Win32,60.33182504,,,,,,,,,,,,0.5451,1,,,,,,,,,,,,,,m,1,0.5451,,,,,,,,0.768518519,-0.326851852,0,0,0,space,0,125,125,41,1,STREAM,LB,old,m,./images/STREAMLB.png,,1.6838,,,,,,,,,,,,,,,,,,,,,,,,,,,,,,,,,
,,,,,,,,,,,,,,,,,,32,2022-02-12_12h29.51.987,lexical_decision_task_DD_L4,2021.2.3,Win32,60.33182504,,,,,,,,,,,,0.4947,1,,,,,,,,,,,,,,m,1,0.4947,,,,,,,,0.768518519,-0.326851852,0,0,0,,0,126,126,57,1,FERRY,C,old,m,./images/FERRY.png,,,,,,,,,,,,,,,,,,,,,,,,,,,,,,,,,,,
,,,,,,,,,,,,,,,,,,32,2022-02-12_12h29.51.987,lexical_decision_task_DD_L4,2021.2.3,Win32,60.33182504,,,,,,,,,,,,0.7497,1,,,,,,,,,,,,,,z,1,0.7497,,,,,,,,0.768518519,-0.326851852,0,0,0,,0,127,127,104,1,GITTY,LB,old,z,./images/GITTYLB.png,,,,,,,,,,,,,,,,,,,,,,,,,,,,,,,,,,,
,,,,,,,,,,,,,,,,,,32,2022-02-12_12h29.51.987,lexical_decision_task_DD_L4,2021.2.3,Win32,60.33182504,,,,,,,,,,,,0.5347,1,,,,,,,,,,,,,,m,1,0.5347,,,,,,,,0.768518519,-0.326851852,0,0,0,,0,128,128,69,1,ARROW,C,old,m,./images/ARROW.png,,,,,,,,,,,,,,,,,,,,,,,,,,,,,,,,,,,
,,,,,,,,,,,,,,,,,,32,2022-02-12_12h29.51.987,lexical_decision_task_DD_L4,2021.2.3,Win32,60.33182504,,,,,,,,,,,,0.5326,1,,,,,,,,,,,,,,m,1,0.5326,,,,,,,,0.768518519,-0.326851852,0,0,0,,0,129,129,51,1,SAUCE,C,old,m,./images/SAUCE.png,,,,,,,,,,,,,,,,,,,,,,,,,,,,,,,,,,,
,,,,,,,,,,,,,,,,,,32,2022-02-12_12h29.51.987,lexical_decision_task_DD_L4,2021.2.3,Win32,60.33182504,,,,,,,,,,,,0.5117,1,,,,,,,,,,,,,,m,1,0.5117,,,,,,,,0.768518519,-0.326851852,0,0,0,,0,130,130,75,1,HAMMER,C,old,m,./images/HAMMER.png,,,,,,,,,,,,,,,,,,,,,,,,,,,,,,,,,,,
,,,,,,,,,,,,,,,,,,32,2022-02-12_12h29.51.987,lexical_decision_task_DD_L4,2021.2.3,Win32,60.33182504,,,,,,,,,,,,1.0738,1,,,,,,,,,,,,,,z,1,1.0738,,,,,,,,0.768518519,-0.326851852,0,0,0,,0,131,131,115,1,MAWNS,HB,old,z,./images/MAWNSHB.png,,,,,,,,,,,,,,,,,,,,,,,,,,,,,,,,,,,
,,,,,,,,,,,,,,,,,,32,2022-02-12_12h29.51.987,lexical_decision_task_DD_L4,2021.2.3,Win32,60.33182504,,,,,,,,,,,,0.6294,1,,,,,,,,,,,,,,m,1,0.6294,,,,,,,,0.768518519,-0.326851852,0,0,0,,0,132,132,62,1,MAMMAL,LB,old,m,./images/MAMMALLB.png,,,,,,,,,,,,,,,,,,,,,,,,,,,,,,,,,,,
,,,,,,,,,,,,,,,,,,32,2022-02-12_12h29.51.987,lexical_decision_task_DD_L4,2021.2.3,Win32,60.33182504,,,,,,,,,,,,0.8928,0,,,,,,,,,,,,,,z,0,0.8928,,,,,,,,0.768518519,-0.326851852,0,0,0,,0,133,133,13,1,BUNNY,HB,old,m,./images/BUNNYHB.png,,,,,,,,,,,,,,,,,,,,,,,,,,,,,,,,,,,
,,,,,,,,,,,,,,,,,,32,2022-02-12_12h29.51.987,lexical_decision_task_DD_L4,2021.2.3,Win32,60.33182504,,,,,,,,,,,,0.7843,0,,,,,,,,,,,,,,m,0,0.7843,,,,,,,,0.768518519,-0.326851852,0,0,0,,0,134,134,124,1,TUNCH,HB,old,z,./images/TUNCHHB.png,,,,,,,,,,,,,,,,,,,,,,,,,,,,,,,,,,,
,,,,,,,,,,,,,,,,,,32,2022-02-12_12h29.51.987,lexical_decision_task_DD_L4,2021.2.3,Win32,60.33182504,,,,,,,,,,,,0.7764,1,,,,,,,,,,,,,,m,1,0.7764,,,,,,,,0.768518519,-0.326851852,0,0,0,,0,135,135,19,1,DONKEY,HB,old,m,./images/DONKEYHB.png,,,,,,,,,,,,,,,,,,,,,,,,,,,,,,,,,,,
,,,,,,,,,,,,,,,,,,32,2022-02-12_12h29.51.987,lexical_decision_task_DD_L4,2021.2.3,Win32,60.33182504,,,,,,,,,,,,0.9447,1,,,,,,,,,,,,,,m,1,0.9447,,,,,,,,0.768518519,-0.326851852,0,0,0,,0,136,136,43,1,STOOL,HB,old,m,./images/STOOLHB.png,,,,,,,,,,,,,,,,,,,,,,,,,,,,,,,,,,,
,,,,,,,,,,,,,,,,,,32,2022-02-12_12h29.51.987,lexical_decision_task_DD_L4,2021.2.3,Win32,60.33182504,,,,,,,,,,,,0.8099,1,,,,,,,,,,,,,,z,1,0.8099,,,,,,,,0.768518519,-0.326851852,0,0,0,,0,137,137,167,1,ZONET,LB,old,z,./images/ZONETLB.png,,,,,,,,,,,,,,,,,,,,,,,,,,,,,,,,,,,
,,,,,,,,,,,,,,,,,,32,2022-02-12_12h29.51.987,lexical_decision_task_DD_L4,2021.2.3,Win32,60.33182504,,,,,,,,,,,,0.9376,1,,,,,,,,,,,,,,m,1,0.9376,,,,,,,,0.768518519,-0.326851852,0,0,0,,0,138,138,7,1,WAGON,HB,old,m,./images/WAGONHB.png,,,,,,,,,,,,,,,,,,,,,,,,,,,,,,,,,,,
,,,,,,,,,,,,,,,,,,32,2022-02-12_12h29.51.987,lexical_decision_task_DD_L4,2021.2.3,Win32,60.33182504,,,,,,,,,,,,0.634,1,,,,,,,,,,,,,,m,1,0.634,,,,,,,,0.768518519,-0.326851852,0,0,0,,0,139,139,37,1,TIGER,HB,old,m,./images/TIGERHB.png,,,,,,,,,,,,,,,,,,,,,,,,,,,,,,,,,,,
,,,,,,,,,,,,,,,,,,32,2022-02-12_12h29.51.987,lexical_decision_task_DD_L4,2021.2.3,Win32,60.33182504,,,,,,,,,,,,0.6642,1,,,,,,,,,,,,,,z,1,0.6642,,,,,,,,0.768518519,-0.326851852,0,0,0,,0,140,140,138,1,PLICE,C,old,z,./images/PLICE.png,,,,,,,,,,,,,,,,,,,,,,,,,,,,,,,,,,,
,,,,,,,,,,,,,,,,,,32,2022-02-12_12h29.51.987,lexical_decision_task_DD_L4,2021.2.3,Win32,60.33182504,,,,,,,,,,,,1.2674,1,,,,,,,,,,,,,,z,1,1.2674,,,,,,,,0.768518519,-0.326851852,0,0,0,,0,141,141,101,1,GLEET,LB,old,z,./images/GLEETLB.png,,,,,,,,,,,,,,,,,,,,,,,,,,,,,,,,,,,
,,,,,,,,,,,,,,,,,,32,2022-02-12_12h29.51.987,lexical_decision_task_DD_L4,2021.2.3,Win32,60.33182504,,,,,,,,,,,,0.6503,1,,,,,,,,,,,,,,m,1,0.6503,,,,,,,,0.768518519,-0.326851852,0,0,0,,0,142,142,77,1,WHEEL,LB,old,m,./images/WHEELLB.png,,,,,,,,,,,,,,,,,,,,,,,,,,,,,,,,,,,
,,,,,,,,,,,,,,,,,,32,2022-02-12_12h29.51.987,lexical_decision_task_DD_L4,2021.2.3,Win32,60.33182504,,,,,,,,,,,,0.5733,1,,,,,,,,,,,,,,z,1,0.5733,,,,,,,,0.768518519,-0.326851852,0,0,0,,0,143,143,131,1,NACES,LB,old,z,./images/NACESLB.png,,,,,,,,,,,,,,,,,,,,,,,,,,,,,,,,,,,
,,,,,,,,,,,,,,,,,,32,2022-02-12_12h29.51.987,lexical_decision_task_DD_L4,2021.2.3,Win32,60.33182504,,,,,,,,,,,,0.5509,1,,,,,,,,,,,,,,m,1,0.5509,,,,,,,,0.768518519,-0.326851852,0,0,0,,0,144,144,66,1,STATUE,C,old,m,./images/STATUE.png,,,,,,,,,,,,,,,,,,,,,,,,,,,,,,,,,,,
,,,,,,,,,,,,,,,,,,32,2022-02-12_12h29.51.987,lexical_decision_task_DD_L4,2021.2.3,Win32,60.33182504,,,,,,,,,,,,0.551,1,,,,,,,,,,,,,,z,1,0.551,,,,,,,,0.768518519,-0.326851852,0,0,0,,0,145,145,126,1,GUELS,C,old,z,./images/GUELS.png,,,,,,,,,,,,,,,,,,,,,,,,,,,,,,,,,,,
,,,,,,,,,,,,,,,,,,32,2022-02-12_12h29.51.987,lexical_decision_task_DD_L4,2021.2.3,Win32,60.33182504,,,,,,,,,,,,0.7175,1,,,,,,,,,,,,,,z,1,0.7175,,,,,,,,0.768518519,-0.326851852,0,0,0,,0,146,146,89,1,DRIEK,LB,old,z,./images/DRIEKLB.png,,,,,,,,,,,,,,,,,,,,,,,,,,,,,,,,,,,
,,,,,,,,,,,,,,,,,,32,2022-02-12_12h29.51.987,lexical_decision_task_DD_L4,2021.2.3,Win32,60.33182504,,,,,,,,,,,,0.5866,1,,,,,,,,,,,,,,z,1,0.5866,,,,,,,,0.768518519,-0.326851852,0,0,0,,0,147,147,90,1,NEAST,C,old,z,./images/NEAST.png,,,,,,,,,,,,,,,,,,,,,,,,,,,,,,,,,,,
,,,,,,,,,,,,,,,,,,32,2022-02-12_12h29.51.987,lexical_decision_task_DD_L4,2021.2.3,Win32,60.33182504,,,,,,,,,,,,0.6086,1,,,,,,,,,,,,,,m,1,0.6086,,,,,,,,0.768518519,-0.326851852,0,0,0,,0,148,148,5,1,BAMBOO,LB,old,m,./images/BAMBOOLB.png,,,,,,,,,,,,,,,,,,,,,,,,,,,,,,,,,,,
,,,,,,,,,,,,,,,,,,32,2022-02-12_12h29.51.987,lexical_decision_task_DD_L4,2021.2.3,Win32,60.33182504,,,,,,,,,,,,0.5774,1,,,,,,,,,,,,,,z,1,0.5774,,,,,,,,0.768518519,-0.326851852,0,0,0,,0,149,149,150,1,NOOLS,C,old,z,./images/NOOLS.png,,,,,,,,,,,,,,,,,,,,,,,,,,,,,,,,,,,
,,,,,,,,,,,,,,,,,,32,2022-02-12_12h29.51.987,lexical_decision_task_DD_L4,2021.2.3,Win32,60.33182504,,,,,,,,,,,,0.7856,1,,,,,,,,,,,,,,m,1,0.7856,,,,,,,,0.768518519,-0.326851852,0,0,0,,0,150,150,46,1,MUMMY,HB,old,m,./images/MUMMYHB.png,,,,,,,,,,,,,,,,,,,,,,,,,,,,,,,,,,,
,,,,,,,,,,,,,,,,,,32,2022-02-12_12h29.51.987,lexical_decision_task_DD_L4,2021.2.3,Win32,60.33182504,,,,,,,,,,,,0.7776,1,,,,,,,,,,,,,,m,1,0.7776,,,,,,,,0.768518519,-0.326851852,0,0,0,,0,151,151,33,1,SAUNA,C,old,m,./images/SAUNA.png,,,,,,,,,,,,,,,,,,,,,,,,,,,,,,,,,,,
,,,,,,,,,,,,,,,,,,32,2022-02-12_12h29.51.987,lexical_decision_task_DD_L4,2021.2.3,Win32,60.33182504,,,,,,,,,,,,0.7596,1,,,,,,,,,,,,,,m,1,0.7596,,,,,,,,0.768518519,-0.326851852,0,0,0,,0,152,152,16,1,GRAPE,HB,old,m,./images/GRAPEHB.png,,,,,,,,,,,,,,,,,,,,,,,,,,,,,,,,,,,
,,,,,,,,,,,,,,,,,,32,2022-02-12_12h29.51.987,lexical_decision_task_DD_L4,2021.2.3,Win32,60.33182504,,,,,,,,,,,,0.9057,1,,,,,,,,,,,,,,m,1,0.9057,,,,,,,,0.768518519,-0.326851852,0,0,0,,0,153,153,28,1,CASINO,HB,old,m,./images/CASINOHB.png,,,,,,,,,,,,,,,,,,,,,,,,,,,,,,,,,,,
,,,,,,,,,,,,,,,,,,32,2022-02-12_12h29.51.987,lexical_decision_task_DD_L4,2021.2.3,Win32,60.33182504,,,,,,,,,,,,0.734,1,,,,,,,,,,,,,,z,1,0.734,,,,,,,,0.768518519,-0.326851852,0,0,0,,0,154,154,125,1,MOOKY,LB,old,z,./images/MOOKYLB.png,,,,,,,,,,,,,,,,,,,,,,,,,,,,,,,,,,,
,,,,,,,,,,,,,,,,,,32,2022-02-12_12h29.51.987,lexical_decision_task_DD_L4,2021.2.3,Win32,60.33182504,,,,,,,,,,,,1.201,0,,,,,,,,,,,,,,z,0,1.201,,,,,,,,0.768518519,-0.326851852,0,0,0,,0,155,155,74,1,JUMPER,LB,old,m,./images/JUMPERLB.png,,,,,,,,,,,,,,,,,,,,,,,,,,,,,,,,,,,
,,,,,,,,,,,,,,,,,,32,2022-02-12_12h29.51.987,lexical_decision_task_DD_L4,2021.2.3,Win32,60.33182504,,,,,,,,,,,,1.3249,1,,,,,,,,,,,,,,z,1,1.3249,,,,,,,,0.768518519,-0.326851852,0,0,0,,0,156,156,157,1,INLER,HB,old,z,./images/INLERHB.png,,,,,,,,,,,,,,,,,,,,,,,,,,,,,,,,,,,
,,,,,,,,,,,,,,,,,,32,2022-02-12_12h29.51.987,lexical_decision_task_DD_L4,2021.2.3,Win32,60.33182504,,,,,,,,,,,,0.9744,1,,,,,,,,,,,,,,z,1,0.9744,,,,,,,,0.768518519,-0.326851852,0,0,0,,0,157,157,114,1,RIKES,C,old,z,./images/RIKES.png,,,,,,,,,,,,,,,,,,,,,,,,,,,,,,,,,,,
,,,,,,,,,,,,,,,,,,32,2022-02-12_12h29.51.987,lexical_decision_task_DD_L4,2021.2.3,Win32,60.33182504,,,,,,,,,,,,0.751,1,,,,,,,,,,,,,,z,1,0.751,,,,,,,,0.768518519,-0.326851852,0,0,0,,0,158,158,102,1,DULLE,C,old,z,./images/DULLE.png,,,,,,,,,,,,,,,,,,,,,,,,,,,,,,,,,,,
,,,,,,,,,,,,,,,,,,32,2022-02-12_12h29.51.987,lexical_decision_task_DD_L4,2021.2.3,Win32,60.33182504,,,,,,,,,,,,0.7754,1,,,,,,,,,,,,,,z,1,0.7754,,,,,,,,0.768518519,-0.326851852,0,0,0,,0,159,159,146,1,MOOST,LB,old,z,./images/MOOSTLB.png,,,,,,,,,,,,,,,,,,,,,,,,,,,,,,,,,,,
,,,,,,,,,,,,,,,,,,32,2022-02-12_12h29.51.987,lexical_decision_task_DD_L4,2021.2.3,Win32,60.33182504,,,,,,,,,,,,0.5538,1,,,,,,,,,,,,,,z,1,0.5538,,,,,,,,0.768518519,-0.326851852,0,0,0,,0,160,160,135,1,JOODY,C,old,z,./images/JOODY.png,,,,,,,,,,,,,,,,,,,,,,,,,,,,,,,,,,,
,,,,,,,,,,,,,,,,,,32,2022-02-12_12h29.51.987,lexical_decision_task_DD_L4,2021.2.3,Win32,60.33182504,,,,,,,,,,,,1.2339,1,,,,,,,,,,,,,,m,1,1.2339,,,,,,,,0.768518519,-0.326851852,0,0,0,,0,161,161,79,1,RULER,HB,old,m,./images/RULERHB.png,,,,,,,,,,,,,,,,,,,,,,,,,,,,,,,,,,,
,,,,,,,,,,,,,,,,,,32,2022-02-12_12h29.51.987,lexical_decision_task_DD_L4,2021.2.3,Win32,60.33182504,,,,,,,,,,,,0.5843,1,,,,,,,,,,,,,,z,1,0.5843,,,,,,,,0.768518519,-0.326851852,0,0,0,,0,162,162,99,1,BACKY,C,old,z,./images/BACKY.png,,,,,,,,,,,,,,,,,,,,,,,,,,,,,,,,,,,
,,,,,,,,,,,,,,,,,,32,2022-02-12_12h29.51.987,lexical_decision_task_DD_L4,2021.2.3,Win32,60.33182504,,,,,,,,,,,,0.5594,1,,,,,,,,,,,,,,m,1,0.5594,,,,,,,,0.768518519,-0.326851852,0,0,0,,0,163,163,14,1,FENCE,LB,old,m,./images/FENCELB.png,,,,,,,,,,,,,,,,,,,,,,,,,,,,,,,,,,,
,,,,,,,,,,,,,,,,,,32,2022-02-12_12h29.51.987,lexical_decision_task_DD_L4,2021.2.3,Win32,60.33182504,,,,,,,,,,,,0.5706,1,,,,,,,,,,,,,,z,1,0.5706,,,,,,,,0.768518519,-0.326851852,0,0,0,,0,164,164,116,1,BALGY,LB,old,z,./images/BALGYLB.png,,,,,,,,,,,,,,,,,,,,,,,,,,,,,,,,,,,
,,,,,,,,,,,,,,,,,,32,2022-02-12_12h29.51.987,lexical_decision_task_DD_L4,2021.2.3,Win32,60.33182504,,,,,,,,,,,,0.7205,1,,,,,,,,,,,,,,z,1,0.7205,,,,,,,,0.768518519,-0.326851852,0,0,0,,0,165,165,152,1,FRAIN,LB,old,z,./images/FRAINLB.png,,,,,,,,,,,,,,,,,,,,,,,,,,,,,,,,,,,
,,,,,,,,,,,,,,,,,,32,2022-02-12_12h29.51.987,lexical_decision_task_DD_L4,2021.2.3,Win32,60.33182504,,,,,,,,,,,,0.9875,1,,,,,,,,,,,,,,m,1,0.9875,,,,,,,,0.768518519,-0.326851852,0,0,0,,0,166,166,82,1,PEBBLE,HB,old,m,./images/PEBBLEHB.png,,,,,,,,,,,,,,,,,,,,,,,,,,,,,,,,,,,
,,,,,,,,,,,,,,,,,,32,2022-02-12_12h29.51.987,lexical_decision_task_DD_L4,2021.2.3,Win32,60.33182504,,,,,,,,,,,,0.922,0,,,,,,,,,,,,,,z,0,0.922,,,,,,,,0.768518519,-0.326851852,0,0,0,,0,167,167,10,1,GARDEN,HB,old,m,./images/GARDENHB.png,,,,,,,,,,,,,,,,,,,,,,,,,,,,,,,,,,,
,,,,,,,,,,,,,,,,,,32,2022-02-12_12h29.51.987,lexical_decision_task_DD_L4,2021.2.3,Win32,60.33182504,,,,,,,,,,,,,,,,,,,,,,,,,,,,,,,,,,,,,,,,,,,,,,,,,How likely will it be that you will recognize the words presented very blurred on a scale of 0 (not likely) to 100 (most likely)?,,,,,,0.009259259,-0.381481481,1,0,0,jol_adv,4,5.3841,0,0,0,2,1,,,,,,,,,,,,,,,,,,,,
,,,,,,,,,,,,,,,,,,32,2022-02-12_12h29.51.987,lexical_decision_task_DD_L4,2021.2.3,Win32,60.33182504,,,,,,,,,,,,,,,,,,,,,,,,,,,,,,,,,,,,,,,,,,,,,,,,,How likely will it be that you will recognize the words presented clearly on a scale of 0 (not likely) to 100 (most likely)?,,,,,,,,,,,,6,4.1946,0,1,1,0,1,,,,,,,,,,,,,,,,,,,,
,,,,,,,,,,,,,,,,,,32,2022-02-12_12h29.51.987,lexical_decision_task_DD_L4,2021.2.3,Win32,60.33182504,,,,,,,,,,,,,,,,,,,,,,,,,,,,,,,,,,,,,,,,,,,,,,,,,How likely will it be that you will recognize the words presented slighly blurred on a scale of 0 (not likely) to 100 (most likely)?,,,,,,,,,,,,6,2.4017,0,2,2,1,1,,,,,,,,,,,,,,,,,,,,
space,0.015740741,-0.412962963,0,0,0,,,,,,,1,test,"In the next phase you will be presented with the words from the the first phase. Your job is to decide whether you remember seeing the word or not. If you remember seeing the word press ""old"" or type ""m"". If you do not remember seeing the word press ""new"" or type ""z"". Please press the space bar or click on continue to begin. ",,,,32,2022-02-12_12h29.51.987,lexical_decision_task_DD_L4,2021.2.3,Win32,60.33182504,11.0121,,,,,,,,,,,,,,,,,,,,,,,,,,,,,,,,,,,,,,,,,,,,,,,,,,,,,,,,,,,,,,,,,,,0,0,0,0,1,,,,,,,,,,,,,,,
,0.015740741,-0.412962963,1,0,0,instr_done_button,,,,,,1,test,"In the next phase you will be presented with the words from the the first phase. Your job is to decide whether you remember seeing the word or not. If you remember seeing the word press ""old"" or type ""m"". If you do not remember seeing the word press ""new"" or type ""z"". Please press the space bar or click on continue to begin. ",,,,32,2022-02-12_12h29.51.987,lexical_decision_task_DD_L4,2021.2.3,Win32,60.33182504,,,,,,,,,,,,,,,,,,,,,,,,,,,,,,,,,,,,,,,,,,,,,,,,,,,,,,,,,,,,,,,,,,,,1,0,1,0,1,,,,,,,,,,,,,,,
space,0.530555556,-0.30462963,0,0,0,,,,,,,1,test,"In the next phase you will be presented with the words from the the first phase. Your job is to decide whether you remember seeing the word or not. If you remember seeing the word press ""old"" or type ""m"". If you do not remember seeing the word press ""new"" or type ""z"". Please press the space bar or click on continue to begin. ",,,,32,2022-02-12_12h29.51.987,lexical_decision_task_DD_L4,2021.2.3,Win32,60.33182504,6.8132,,,,,,,,,,,,,,,,,,,,,,,,,,,,,,,,,,,,,,,,,,,,,,,,,,,,,,,,,,,,,,,,,,,2,0,2,0,1,,,,,,,,,,,,,,,
,0.013888889,-0.409259259,1,0,0,instr_done_button,,,,,,1,test,"In the next phase you will be presented with the words from the the first phase. Your job is to decide whether you remember seeing the word or not. If you remember seeing the word press ""old"" or type ""m"". If you do not remember seeing the word press ""new"" or type ""z"". Please press the space bar or click on continue to begin. ",,,,32,2022-02-12_12h29.51.987,lexical_decision_task_DD_L4,2021.2.3,Win32,60.33182504,,,,,,,,,,,,,,,,,,,,,,,,,,,,,,,,,,,,,,,,,,,,,,,,,,,,,,,,,,,,,,,,,,,,3,0,3,0,1,,,,,,,,,,,,,,,
,0.013888889,-0.409259259,0,0,1,instr_done_button,,,,,,1,test,"In the next phase you will be presented with the words from the the first phase. Your job is to decide whether you remember seeing the word or not. If you remember seeing the word press ""old"" or type ""m"". If you do not remember seeing the word press ""new"" or type ""z"". Please press the space bar or click on continue to begin. ",,,,32,2022-02-12_12h29.51.987,lexical_decision_task_DD_L4,2021.2.3,Win32,60.33182504,,,,,,,,,,,,,,,,,,,,,,,,,,,,,,,,,,,,,,,,,,,,,,,,,,,,,,,,,,,,,,,,,,,,4,0,4,0,1,,,,,,,,,,,,,,,
,,,,,,,,,,,,,,,,,,32,2022-02-12_12h29.51.987,lexical_decision_task_DD_L4,2021.2.3,Win32,60.33182504,,,,,,,,,,,,3.4663,1,,,,,,,,,,,,,,,,,,,,,,,,0.761111111,-0.22037037,0,0,0,,,,,,,TULIP,LB,z,y,./images/TULIPLB.png,,,,,,,,,,,,,,,,,,,,,z,1,3.4663,0.761111111,-0.22037037,1,0,0,3.0472,,0,0,0,92,1
,,,,,,,,,,,,,,,,,,32,2022-02-12_12h29.51.987,lexical_decision_task_DD_L4,2021.2.3,Win32,60.33182504,,,,,,,,,,,,0.9664,1,,,,,,,,,,,,,,,,,,,,,,,,0.761111111,-0.22037037,0,0,0,,,,,,,VALLEY,LB,m,y,./images/VALLEYLB.png,,,,,,,,,,,,,,,,,,,,,m,1,0.9664,,,,,,,,0,1,1,68,1
,,,,,,,,,,,,,,,,,,32,2022-02-12_12h29.51.987,lexical_decision_task_DD_L4,2021.2.3,Win32,60.33182504,,,,,,,,,,,,0.6398,1,,,,,,,,,,,,,,,,,,,,,,,,0.761111111,-0.22037037,0,0,0,,,,,,,CLOWN,HB,m,y,./images/CLOWNHB.png,,,,,,,,,,,,,,,,,,,,,m,1,0.6398,,,,,,,,0,2,2,22,1
,,,,,,,,,,,,,,,,,,32,2022-02-12_12h29.51.987,lexical_decision_task_DD_L4,2021.2.3,Win32,60.33182504,,,,,,,,,,,,0.613,1,,,,,,,,,,,,,,,,,,,,,,,,0.761111111,-0.22037037,0,0,0,,,,,,,FENCE,LB,m,y,./images/FENCELB.png,,,,,,,,,,,,,,,,,,,,,m,1,0.613,,,,,,,,0,3,3,14,1
,,,,,,,,,,,,,,,,,,32,2022-02-12_12h29.51.987,lexical_decision_task_DD_L4,2021.2.3,Win32,60.33182504,,,,,,,,,,,,0.8928,1,,,,,,,,,,,,,,,,,,,,,,,,0.761111111,-0.22037037,0,0,0,,,,,,,DOUGH,HB,z,y,./images/DOUGHHB.png,,,,,,,,,,,,,,,,,,,,,z,1,0.8928,,,,,,,,0,4,4,103,1
,,,,,,,,,,,,,,,,,,32,2022-02-12_12h29.51.987,lexical_decision_task_DD_L4,2021.2.3,Win32,60.33182504,,,,,,,,,,,,0.679,1,,,,,,,,,,,,,,,,,,,,,,,,0.761111111,-0.22037037,0,0,0,,,,,,,DRUMS,HB,z,y,./images/DRUMSHB.png,,,,,,,,,,,,,,,,,,,,,z,1,0.679,,,,,,,,0,5,5,133,1
,,,,,,,,,,,,,,,,,,32,2022-02-12_12h29.51.987,lexical_decision_task_DD_L4,2021.2.3,Win32,60.33182504,,,,,,,,,,,,0.6441,1,,,,,,,,,,,,,,,,,,,,,,,,0.761111111,-0.22037037,0,0,0,,,,,,,STRING,LB,z,y,./images/STRINGLB.png,,,,,,,,,,,,,,,,,,,,,z,1,0.6441,,,,,,,,0,6,6,125,1
,,,,,,,,,,,,,,,,,,32,2022-02-12_12h29.51.987,lexical_decision_task_DD_L4,2021.2.3,Win32,60.33182504,,,,,,,,,,,,1.8105,1,,,,,,,,,,,,,,,,,,,,,,,,0.761111111,-0.22037037,0,0,0,,,,,,,SWEAT,C,z,y,./images/SWEAT.png,,,,,,,,,,,,,,,,,,,,,z,1,1.8105,,,,,,,,0,7,7,150,1
,,,,,,,,,,,,,,,,,,32,2022-02-12_12h29.51.987,lexical_decision_task_DD_L4,2021.2.3,Win32,60.33182504,,,,,,,,,,,,0.9835,0,,,,,,,,,,,,,,,,,,,,,,,,0.761111111,-0.22037037,0,0,0,,,,,,,FOLDER,C,z,y,./images/FOLDER.png,,,,,,,,,,,,,,,,,,,,,m,0,0.9835,,,,,,,,0,8,8,126,1
,,,,,,,,,,,,,,,,,,32,2022-02-12_12h29.51.987,lexical_decision_task_DD_L4,2021.2.3,Win32,60.33182504,,,,,,,,,,,,0.8475,1,,,,,,,,,,,,,,,,,,,,,,,,0.761111111,-0.22037037,0,0,0,,,,,,,CASINO,HB,m,y,./images/CASINOHB.png,,,,,,,,,,,,,,,,,,,,,m,1,0.8475,,,,,,,,0,9,9,28,1
,,,,,,,,,,,,,,,,,,32,2022-02-12_12h29.51.987,lexical_decision_task_DD_L4,2021.2.3,Win32,60.33182504,,,,,,,,,,,,0.878,1,,,,,,,,,,,,,,,,,,,,,,,,0.761111111,-0.22037037,0,0,0,,,,,,,JUMPER,LB,m,y,./images/JUMPERLB.png,,,,,,,,,,,,,,,,,,,,,m,1,0.878,,,,,,,,0,10,10,74,1
,,,,,,,,,,,,,,,,,,32,2022-02-12_12h29.51.987,lexical_decision_task_DD_L4,2021.2.3,Win32,60.33182504,,,,,,,,,,,,1.1952,1,,,,,,,,,,,,,,,,,,,,,,,,0.761111111,-0.22037037,0,0,0,,,,,,,HEATER,LB,m,y,./images/HEATERLB.png,,,,,,,,,,,,,,,,,,,,,m,1,1.1952,,,,,,,,0,11,11,56,1
,,,,,,,,,,,,,,,,,,32,2022-02-12_12h29.51.987,lexical_decision_task_DD_L4,2021.2.3,Win32,60.33182504,,,,,,,,,,,,0.6804,1,,,,,,,,,,,,,,,,,,,,,,,,0.761111111,-0.22037037,0,0,0,,,,,,,ARTIST,HB,m,y,./images/ARTISTHB.png,,,,,,,,,,,,,,,,,,,,,m,1,0.6804,,,,,,,,0,12,12,61,1
,,,,,,,,,,,,,,,,,,32,2022-02-12_12h29.51.987,lexical_decision_task_DD_L4,2021.2.3,Win32,60.33182504,,,,,,,,,,,,0.734,1,,,,,,,,,,,,,,,,,,,,,,,,0.761111111,-0.22037037,0,0,0,,,,,,,GRANNY,LB,m,y,./images/GRANNYLB.png,,,,,,,,,,,,,,,,,,,,,m,1,0.734,,,,,,,,0,13,13,20,1
,,,,,,,,,,,,,,,,,,32,2022-02-12_12h29.51.987,lexical_decision_task_DD_L4,2021.2.3,Win32,60.33182504,,,,,,,,,,,,0.6348,1,,,,,,,,,,,,,,,,,,,,,,,,0.761111111,-0.22037037,0,0,0,,,,,,,MIDGET,HB,m,y,./images/MIDGETHB.png,,,,,,,,,,,,,,,,,,,,,m,1,0.6348,,,,,,,,0,14,14,76,1
,,,,,,,,,,,,,,,,,,32,2022-02-12_12h29.51.987,lexical_decision_task_DD_L4,2021.2.3,Win32,60.33182504,,,,,,,,,,,,0.6612,1,,,,,,,,,,,,,,,,,,,,,,,,0.761111111,-0.22037037,0,0,0,,,,,,,DIVER,C,m,y,./images/DIVER.png,,,,,,,,,,,,,,,,,,,,,m,1,0.6612,,,,,,,,0,15,15,9,1
,,,,,,,,,,,,,,,,,,32,2022-02-12_12h29.51.987,lexical_decision_task_DD_L4,2021.2.3,Win32,60.33182504,,,,,,,,,,,,1.0342,1,,,,,,,,,,,,,,,,,,,,,,,,0.761111111,-0.22037037,0,0,0,,,,,,,SNAKE,HB,m,y,./images/SNAKEHB.png,,,,,,,,,,,,,,,,,,,,,m,1,1.0342,,,,,,,,0,16,16,40,1
,,,,,,,,,,,,,,,,,,32,2022-02-12_12h29.51.987,lexical_decision_task_DD_L4,2021.2.3,Win32,60.33182504,,,,,,,,,,,,0.8344,1,,,,,,,,,,,,,,,,,,,,,,,,0.761111111,-0.22037037,0,0,0,,,,,,,PILOT,LB,m,y,./images/PILOTLB.png,,,,,,,,,,,,,,,,,,,,,m,1,0.8344,,,,,,,,0,17,17,50,1
,,,,,,,,,,,,,,,,,,32,2022-02-12_12h29.51.987,lexical_decision_task_DD_L4,2021.2.3,Win32,60.33182504,,,,,,,,,,,,0.9018,0,,,,,,,,,,,,,,,,,,,,,,,,0.761111111,-0.22037037,0,0,0,,,,,,,FLASK,C,m,y,./images/FLASK.png,,,,,,,,,,,,,,,,,,,,,z,0,0.9018,,,,,,,,0,18,18,72,1
,,,,,,,,,,,,,,,,,,32,2022-02-12_12h29.51.987,lexical_decision_task_DD_L4,2021.2.3,Win32,60.33182504,,,,,,,,,,,,0.7443,1,,,,,,,,,,,,,,,,,,,,,,,,0.761111111,-0.22037037,0,0,0,,,,,,,DANCER,C,m,y,./images/DANCER.png,,,,,,,,,,,,,,,,,,,,,m,1,0.7443,,,,,,,,0,19,19,21,1
,,,,,,,,,,,,,,,,,,32,2022-02-12_12h29.51.987,lexical_decision_task_DD_L4,2021.2.3,Win32,60.33182504,,,,,,,,,,,,0.9374,1,,,,,,,,,,,,,,,,,,,,,,,,0.761111111,-0.22037037,0,0,0,,,,,,,JAGUAR,C,z,y,./images/JAGUAR.png,,,,,,,,,,,,,,,,,,,,,z,1,0.9374,,,,,,,,0,20,20,102,1
,,,,,,,,,,,,,,,,,,32,2022-02-12_12h29.51.987,lexical_decision_task_DD_L4,2021.2.3,Win32,60.33182504,,,,,,,,,,,,0.7392,1,,,,,,,,,,,,,,,,,,,,,,,,0.761111111,-0.22037037,0,0,0,,,,,,,PASTA,LB,z,y,./images/PASTALB.png,,,,,,,,,,,,,,,,,,,,,z,1,0.7392,,,,,,,,0,21,21,89,1
,,,,,,,,,,,,,,,,,,32,2022-02-12_12h29.51.987,lexical_decision_task_DD_L4,2021.2.3,Win32,60.33182504,,,,,,,,,,,,0.717,0,,,,,,,,,,,,,,,,,,,,,,,,0.761111111,-0.22037037,0,0,0,,,,,,,QUILL,HB,z,y,./images/QUILLHB.png,,,,,,,,,,,,,,,,,,,,,m,0,0.717,,,,,,,,0,22,22,115,1
,,,,,,,,,,,,,,,,,,32,2022-02-12_12h29.51.987,lexical_decision_task_DD_L4,2021.2.3,Win32,60.33182504,,,,,,,,,,,,0.7198,0,,,,,,,,,,,,,,,,,,,,,,,,0.761111111,-0.22037037,0,0,0,,,,,,,POODLE,C,z,y,./images/POODLE.png,,,,,,,,,,,,,,,,,,,,,m,0,0.7198,,,,,,,,0,23,23,165,1
,,,,,,,,,,,,,,,,,,32,2022-02-12_12h29.51.987,lexical_decision_task_DD_L4,2021.2.3,Win32,60.33182504,,,,,,,,,,,,1.1854,1,,,,,,,,,,,,,,,,,,,,,,,,0.761111111,-0.22037037,0,0,0,,,,,,,BERRY,LB,z,y,./images/BERRYLB.png,,,,,,,,,,,,,,,,,,,,,z,1,1.1854,,,,,,,,0,24,24,131,1
,,,,,,,,,,,,,,,,,,32,2022-02-12_12h29.51.987,lexical_decision_task_DD_L4,2021.2.3,Win32,60.33182504,,,,,,,,,,,,0.6577,1,,,,,,,,,,,,,,,,,,,,,,,,0.761111111,-0.22037037,0,0,0,,,,,,,JUNGLE,LB,z,y,./images/JUNGLELB.png,,,,,,,,,,,,,,,,,,,,,z,1,0.6577,,,,,,,,0,25,25,167,1
,,,,,,,,,,,,,,,,,,32,2022-02-12_12h29.51.987,lexical_decision_task_DD_L4,2021.2.3,Win32,60.33182504,,,,,,,,,,,,0.8938,0,,,,,,,,,,,,,,,,,,,,,,,,0.761111111,-0.22037037,0,0,0,,,,,,,SHELF,C,z,y,./images/SHELF.png,,,,,,,,,,,,,,,,,,,,,m,0,0.8938,,,,,,,,0,26,26,123,1
,,,,,,,,,,,,,,,,,,32,2022-02-12_12h29.51.987,lexical_decision_task_DD_L4,2021.2.3,Win32,60.33182504,,,,,,,,,,,,0.734,1,,,,,,,,,,,,,,,,,,,,,,,,0.761111111,-0.22037037,0,0,0,,,,,,,RULER,HB,m,y,./images/RULERHB.png,,,,,,,,,,,,,,,,,,,,,m,1,0.734,,,,,,,,0,27,27,79,1
,,,,,,,,,,,,,,,,,,32,2022-02-12_12h29.51.987,lexical_decision_task_DD_L4,2021.2.3,Win32,60.33182504,,,,,,,,,,,,0.8117,0,,,,,,,,,,,,,,,,,,,,,,,,0.761111111,-0.22037037,0,0,0,,,,,,,GRAIN,C,z,y,./images/GRAIN.png,,,,,,,,,,,,,,,,,,,,,m,0,0.8117,,,,,,,,0,28,28,159,1
,,,,,,,,,,,,,,,,,,32,2022-02-12_12h29.51.987,lexical_decision_task_DD_L4,2021.2.3,Win32,60.33182504,,,,,,,,,,,,1.0191,1,,,,,,,,,,,,,,,,,,,,,,,,0.761111111,-0.22037037,0,0,0,,,,,,,BASKET,LB,m,y,./images/BASKETLB.png,,,,,,,,,,,,,,,,,,,,,m,1,1.0191,,,,,,,,0,29,29,44,1
,,,,,,,,,,,,,,,,,,32,2022-02-12_12h29.51.987,lexical_decision_task_DD_L4,2021.2.3,Win32,60.33182504,,,,,,,,,,,,1.0666,1,,,,,,,,,,,,,,,,,,,,,,,,0.761111111,-0.22037037,0,0,0,,,,,,,JELLY,HB,z,y,./images/JELLYHB.png,,,,,,,,,,,,,,,,,,,,,z,1,1.0666,,,,,,,,0,30,30,148,1
,,,,,,,,,,,,,,,,,,32,2022-02-12_12h29.51.987,lexical_decision_task_DD_L4,2021.2.3,Win32,60.33182504,,,,,,,,,,,,0.7424,1,,,,,,,,,,,,,,,,,,,,,,,,0.761111111,-0.22037037,0,0,0,,,,,,,PARADE,LB,m,y,./images/PARADELB.png,,,,,,,,,,,,,,,,,,,,,m,1,0.7424,,,,,,,,0,31,31,17,1
,,,,,,,,,,,,,,,,,,32,2022-02-12_12h29.51.987,lexical_decision_task_DD_L4,2021.2.3,Win32,60.33182504,,,,,,,,,,,,0.7025,0,,,,,,,,,,,,,,,,,,,,,,,,0.761111111,-0.22037037,0,0,0,,,,,,,BABOON,HB,z,y,./images/BABOONHB.png,,,,,,,,,,,,,,,,,,,,,m,0,0.7025,,,,,,,,0,32,32,142,1
,,,,,,,,,,,,,,,,,,32,2022-02-12_12h29.51.987,lexical_decision_task_DD_L4,2021.2.3,Win32,60.33182504,,,,,,,,,,,,0.8415,1,,,,,,,,,,,,,,,,,,,,,,,,0.761111111,-0.22037037,0,0,0,,,,,,,STOOL,HB,m,y,./images/STOOLHB.png,,,,,,,,,,,,,,,,,,,,,m,1,0.8415,,,,,,,,0,33,33,43,1
,,,,,,,,,,,,,,,,,,32,2022-02-12_12h29.51.987,lexical_decision_task_DD_L4,2021.2.3,Win32,60.33182504,,,,,,,,,,,,0.7272,1,,,,,,,,,,,,,,,,,,,,,,,,0.761111111,-0.22037037,0,0,0,,,,,,,ARROW,C,m,y,./images/ARROW.png,,,,,,,,,,,,,,,,,,,,,m,1,0.7272,,,,,,,,0,34,34,69,1
,,,,,,,,,,,,,,,,,,32,2022-02-12_12h29.51.987,lexical_decision_task_DD_L4,2021.2.3,Win32,60.33182504,,,,,,,,,,,,1.3699,0,,,,,,,,,,,,,,,,,,,,,,,,0.761111111,-0.22037037,0,0,0,,,,,,,PAINT,HB,z,y,./images/PAINTHB.png,,,,,,,,,,,,,,,,,,,,,m,0,1.3699,,,,,,,,0,35,35,91,1
,,,,,,,,,,,,,,,,,,32,2022-02-12_12h29.51.987,lexical_decision_task_DD_L4,2021.2.3,Win32,60.33182504,,,,,,,,,,,,3.6838,1,,,,,,,,,,,,,,,,,,,,,,,,0.761111111,-0.22037037,0,0,0,,,,,,,SAILOR,HB,z,y,./images/SAILORHB.png,,,,,,,,,,,,,,,,,,,,,z,1,3.6838,,,,,,,,0,36,36,151,1
,,,,,,,,,,,,,,,,,,32,2022-02-12_12h29.51.987,lexical_decision_task_DD_L4,2021.2.3,Win32,60.33182504,,,,,,,,,,,,0.7969,0,,,,,,,,,,,,,,,,,,,,,,,,0.761111111,-0.22037037,0,0,0,,,,,,,MOTOR,HB,z,y,./images/MOTORHB.png,,,,,,,,,,,,,,,,,,,,,m,0,0.7969,,,,,,,,0,37,37,97,1
,,,,,,,,,,,,,,,,,,32,2022-02-12_12h29.51.987,lexical_decision_task_DD_L4,2021.2.3,Win32,60.33182504,,,,,,,,,,,,0.9633,1,,,,,,,,,,,,,,,,,,,,,,,,0.761111111,-0.22037037,0,0,0,,,,,,,WAGON,HB,m,y,./images/WAGONHB.png,,,,,,,,,,,,,,,,,,,,,m,1,0.9633,,,,,,,,0,38,38,7,1
,,,,,,,,,,,,,,,,,,32,2022-02-12_12h29.51.987,lexical_decision_task_DD_L4,2021.2.3,Win32,60.33182504,,,,,,,,,,,,0.6941,1,,,,,,,,,,,,,,,,,,,,,,,,0.761111111,-0.22037037,0,0,0,,,,,,,MONKEY,C,m,y,./images/MONKEY.png,,,,,,,,,,,,,,,,,,,,,m,1,0.6941,,,,,,,,0,39,39,45,1
,,,,,,,,,,,,,,,,,,32,2022-02-12_12h29.51.987,lexical_decision_task_DD_L4,2021.2.3,Win32,60.33182504,,,,,,,,,,,,0.6417,0,,,,,,,,,,,,,,,,,,,,,,,,0.761111111,-0.22037037,0,0,0,,,,,,,SHIELD,C,m,y,./images/SHIELD.png,,,,,,,,,,,,,,,,,,,,,z,0,0.6417,,,,,,,,0,40,40,48,1
,,,,,,,,,,,,,,,,,,32,2022-02-12_12h29.51.987,lexical_decision_task_DD_L4,2021.2.3,Win32,60.33182504,,,,,,,,,,,,0.6548,1,,,,,,,,,,,,,,,,,,,,,,,,0.761111111,-0.22037037,0,0,0,space,,,,,,SQUARE,C,z,y,./images/SQUARE.png,,1.5067,,,,,,,,,,,,,,,,,,,z,1,0.6548,,,,,,,,0,41,41,90,1
,,,,,,,,,,,,,,,,,,32,2022-02-12_12h29.51.987,lexical_decision_task_DD_L4,2021.2.3,Win32,60.33182504,,,,,,,,,,,,0.9177,1,,,,,,,,,,,,,,,,,,,,,,,,0.761111111,-0.22037037,0,0,0,,,,,,,FINGER,C,z,y,./images/FINGER.png,,,,,,,,,,,,,,,,,,,,,z,1,0.9177,,,,,,,,0,42,42,87,1
,,,,,,,,,,,,,,,,,,32,2022-02-12_12h29.51.987,lexical_decision_task_DD_L4,2021.2.3,Win32,60.33182504,,,,,,,,,,,,0.7436,1,,,,,,,,,,,,,,,,,,,,,,,,0.761111111,-0.22037037,0,0,0,,,,,,,PURSE,LB,z,y,./images/PURSELB.png,,,,,,,,,,,,,,,,,,,,,z,1,0.7436,,,,,,,,0,43,43,146,1
,,,,,,,,,,,,,,,,,,32,2022-02-12_12h29.51.987,lexical_decision_task_DD_L4,2021.2.3,Win32,60.33182504,,,,,,,,,,,,0.6676,0,,,,,,,,,,,,,,,,,,,,,,,,0.761111111,-0.22037037,0,0,0,,,,,,,BELLY,HB,z,y,./images/BELLYHB.png,,,,,,,,,,,,,,,,,,,,,m,0,0.6676,,,,,,,,0,44,44,94,1
,,,,,,,,,,,,,,,,,,32,2022-02-12_12h29.51.987,lexical_decision_task_DD_L4,2021.2.3,Win32,60.33182504,,,,,,,,,,,,0.6539,1,,,,,,,,,,,,,,,,,,,,,,,,0.761111111,-0.22037037,0,0,0,,,,,,,HOCKEY,LB,m,y,./images/HOCKEYLB.png,,,,,,,,,,,,,,,,,,,,,m,1,0.6539,,,,,,,,0,45,45,32,1
,,,,,,,,,,,,,,,,,,32,2022-02-12_12h29.51.987,lexical_decision_task_DD_L4,2021.2.3,Win32,60.33182504,,,,,,,,,,,,0.6014,1,,,,,,,,,,,,,,,,,,,,,,,,0.761111111,-0.22037037,0,0,0,,,,,,,BUNNY,HB,m,y,./images/BUNNYHB.png,,,,,,,,,,,,,,,,,,,,,m,1,0.6014,,,,,,,,0,46,46,13,1
,,,,,,,,,,,,,,,,,,32,2022-02-12_12h29.51.987,lexical_decision_task_DD_L4,2021.2.3,Win32,60.33182504,,,,,,,,,,,,0.7008,1,,,,,,,,,,,,,,,,,,,,,,,,0.761111111,-0.22037037,0,0,0,,,,,,,PISTOL,LB,m,y,./images/PISTOLLB.png,,,,,,,,,,,,,,,,,,,,,m,1,0.7008,,,,,,,,0,47,47,29,1
,,,,,,,,,,,,,,,,,,32,2022-02-12_12h29.51.987,lexical_decision_task_DD_L4,2021.2.3,Win32,60.33182504,,,,,,,,,,,,0.934,1,,,,,,,,,,,,,,,,,,,,,,,,0.761111111,-0.22037037,0,0,0,,,,,,,LADDER,LB,z,y,./images/LADDERLB.png,,,,,,,,,,,,,,,,,,,,,z,1,0.934,,,,,,,,0,48,48,122,1
,,,,,,,,,,,,,,,,,,32,2022-02-12_12h29.51.987,lexical_decision_task_DD_L4,2021.2.3,Win32,60.33182504,,,,,,,,,,,,0.6395,0,,,,,,,,,,,,,,,,,,,,,,,,0.761111111,-0.22037037,0,0,0,,,,,,,CANDY,C,m,y,./images/CANDY.png,,,,,,,,,,,,,,,,,,,,,z,0,0.6395,,,,,,,,0,49,49,39,1
,,,,,,,,,,,,,,,,,,32,2022-02-12_12h29.51.987,lexical_decision_task_DD_L4,2021.2.3,Win32,60.33182504,,,,,,,,,,,,0.7342,1,,,,,,,,,,,,,,,,,,,,,,,,0.761111111,-0.22037037,0,0,0,,,,,,,PLANK,HB,z,y,./images/PLANKHB.png,,,,,,,,,,,,,,,,,,,,,z,1,0.7342,,,,,,,,0,50,50,85,1
,,,,,,,,,,,,,,,,,,32,2022-02-12_12h29.51.987,lexical_decision_task_DD_L4,2021.2.3,Win32,60.33182504,,,,,,,,,,,,0.6183,0,,,,,,,,,,,,,,,,,,,,,,,,0.761111111,-0.22037037,0,0,0,,,,,,,SHORE,C,z,y,./images/SHORE.png,,,,,,,,,,,,,,,,,,,,,m,0,0.6183,,,,,,,,0,51,51,96,1
,,,,,,,,,,,,,,,,,,32,2022-02-12_12h29.51.987,lexical_decision_task_DD_L4,2021.2.3,Win32,60.33182504,,,,,,,,,,,,0.7343,1,,,,,,,,,,,,,,,,,,,,,,,,0.761111111,-0.22037037,0,0,0,,,,,,,DRILL,C,m,y,./images/DRILL.png,,,,,,,,,,,,,,,,,,,,,m,1,0.7343,,,,,,,,0,52,52,81,1
,,,,,,,,,,,,,,,,,,32,2022-02-12_12h29.51.987,lexical_decision_task_DD_L4,2021.2.3,Win32,60.33182504,,,,,,,,,,,,0.7594,1,,,,,,,,,,,,,,,,,,,,,,,,0.761111111,-0.22037037,0,0,0,,,,,,,POSTER,LB,m,y,./images/POSTERLB.png,,,,,,,,,,,,,,,,,,,,,m,1,0.7594,,,,,,,,0,53,53,53,1
,,,,,,,,,,,,,,,,,,32,2022-02-12_12h29.51.987,lexical_decision_task_DD_L4,2021.2.3,Win32,60.33182504,,,,,,,,,,,,0.6945,1,,,,,,,,,,,,,,,,,,,,,,,,0.761111111,-0.22037037,0,0,0,,,,,,,MOOSE,C,z,y,./images/MOOSE.png,,,,,,,,,,,,,,,,,,,,,z,1,0.6945,,,,,,,,0,54,54,141,1
,,,,,,,,,,,,,,,,,,32,2022-02-12_12h29.51.987,lexical_decision_task_DD_L4,2021.2.3,Win32,60.33182504,,,,,,,,,,,,0.6347,1,,,,,,,,,,,,,,,,,,,,,,,,0.761111111,-0.22037037,0,0,0,,,,,,,MOSQUE,HB,z,y,./images/MOSQUEHB.png,,,,,,,,,,,,,,,,,,,,,z,1,0.6347,,,,,,,,0,55,55,127,1
,,,,,,,,,,,,,,,,,,32,2022-02-12_12h29.51.987,lexical_decision_task_DD_L4,2021.2.3,Win32,60.33182504,,,,,,,,,,,,0.8416,1,,,,,,,,,,,,,,,,,,,,,,,,0.761111111,-0.22037037,0,0,0,,,,,,,CLIFF,LB,m,y,./images/CLIFFLB.png,,,,,,,,,,,,,,,,,,,,,m,1,0.8416,,,,,,,,0,56,56,8,1
,,,,,,,,,,,,,,,,,,32,2022-02-12_12h29.51.987,lexical_decision_task_DD_L4,2021.2.3,Win32,60.33182504,,,,,,,,,,,,0.5975,1,,,,,,,,,,,,,,,,,,,,,,,,0.761111111,-0.22037037,0,0,0,,,,,,,ENGINE,LB,m,y,./images/ENGINELB.png,,,,,,,,,,,,,,,,,,,,,m,1,0.5975,,,,,,,,0,57,57,38,1
,,,,,,,,,,,,,,,,,,32,2022-02-12_12h29.51.987,lexical_decision_task_DD_L4,2021.2.3,Win32,60.33182504,,,,,,,,,,,,0.7898,1,,,,,,,,,,,,,,,,,,,,,,,,0.761111111,-0.22037037,0,0,0,,,,,,,CEMENT,LB,z,y,./images/CEMENTLB.png,,,,,,,,,,,,,,,,,,,,,z,1,0.7898,,,,,,,,0,58,58,158,1
,,,,,,,,,,,,,,,,,,32,2022-02-12_12h29.51.987,lexical_decision_task_DD_L4,2021.2.3,Win32,60.33182504,,,,,,,,,,,,1.0921,0,,,,,,,,,,,,,,,,,,,,,,,,0.761111111,-0.22037037,0,0,0,,,,,,,ALLEY,HB,m,y,./images/ALLEYHB.png,,,,,,,,,,,,,,,,,,,,,z,0,1.0921,,,,,,,,0,59,59,55,1
,,,,,,,,,,,,,,,,,,32,2022-02-12_12h29.51.987,lexical_decision_task_DD_L4,2021.2.3,Win32,60.33182504,,,,,,,,,,,,0.7615,1,,,,,,,,,,,,,,,,,,,,,,,,0.761111111,-0.22037037,0,0,0,,,,,,,TIGER,HB,m,y,./images/TIGERHB.png,,,,,,,,,,,,,,,,,,,,,m,1,0.7615,,,,,,,,0,60,60,37,1
,,,,,,,,,,,,,,,,,,32,2022-02-12_12h29.51.987,lexical_decision_task_DD_L4,2021.2.3,Win32,60.33182504,,,,,,,,,,,,0.5365,1,,,,,,,,,,,,,,,,,,,,,,,,0.761111111,-0.22037037,0,0,0,,,,,,,CRUST,HB,z,y,./images/CRUSTHB.png,,,,,,,,,,,,,,,,,,,,,z,1,0.5365,,,,,,,,0,61,61,163,1
,,,,,,,,,,,,,,,,,,32,2022-02-12_12h29.51.987,lexical_decision_task_DD_L4,2021.2.3,Win32,60.33182504,,,,,,,,,,,,0.7505,1,,,,,,,,,,,,,,,,,,,,,,,,0.761111111,-0.22037037,0,0,0,,,,,,,THROAT,C,z,y,./images/THROAT.png,,,,,,,,,,,,,,,,,,,,,z,1,0.7505,,,,,,,,0,62,62,120,1
,,,,,,,,,,,,,,,,,,32,2022-02-12_12h29.51.987,lexical_decision_task_DD_L4,2021.2.3,Win32,60.33182504,,,,,,,,,,,,0.4766,0,,,,,,,,,,,,,,,,,,,,,,,,0.761111111,-0.22037037,0,0,0,,,,,,,PENCE,HB,z,y,./images/PENCEHB.png,,,,,,,,,,,,,,,,,,,,,m,0,0.4766,,,,,,,,0,63,63,100,1
,,,,,,,,,,,,,,,,,,32,2022-02-12_12h29.51.987,lexical_decision_task_DD_L4,2021.2.3,Win32,60.33182504,,,,,,,,,,,,0.7296,1,,,,,,,,,,,,,,,,,,,,,,,,0.761111111,-0.22037037,0,0,0,,,,,,,GARDEN,HB,m,y,./images/GARDENHB.png,,,,,,,,,,,,,,,,,,,,,m,1,0.7296,,,,,,,,0,64,64,10,1
,,,,,,,,,,,,,,,,,,32,2022-02-12_12h29.51.987,lexical_decision_task_DD_L4,2021.2.3,Win32,60.33182504,,,,,,,,,,,,1.3178,1,,,,,,,,,,,,,,,,,,,,,,,,0.761111111,-0.22037037,0,0,0,,,,,,,NOOSE,C,z,y,./images/NOOSE.png,,,,,,,,,,,,,,,,,,,,,z,1,1.3178,,,,,,,,0,65,65,156,1
,,,,,,,,,,,,,,,,,,32,2022-02-12_12h29.51.987,lexical_decision_task_DD_L4,2021.2.3,Win32,60.33182504,,,,,,,,,,,,0.7839,1,,,,,,,,,,,,,,,,,,,,,,,,0.761111111,-0.22037037,0,0,0,,,,,,,HAMMER,C,m,y,./images/HAMMER.png,,,,,,,,,,,,,,,,,,,,,m,1,0.7839,,,,,,,,0,66,66,75,1
,,,,,,,,,,,,,,,,,,32,2022-02-12_12h29.51.987,lexical_decision_task_DD_L4,2021.2.3,Win32,60.33182504,,,,,,,,,,,,2.2175,1,,,,,,,,,,,,,,,,,,,,,,,,0.761111111,-0.22037037,0,0,0,,,,,,,MALLET,LB,z,y,./images/MALLETLB.png,,,,,,,,,,,,,,,,,,,,,z,1,2.2175,,,,,,,,0,67,67,134,1
,,,,,,,,,,,,,,,,,,32,2022-02-12_12h29.51.987,lexical_decision_task_DD_L4,2021.2.3,Win32,60.33182504,,,,,,,,,,,,0.7018,1,,,,,,,,,,,,,,,,,,,,,,,,0.761111111,-0.22037037,0,0,0,,,,,,,STAIN,C,m,y,./images/STAIN.png,,,,,,,,,,,,,,,,,,,,,m,1,0.7018,,,,,,,,0,68,68,6,1
,,,,,,,,,,,,,,,,,,32,2022-02-12_12h29.51.987,lexical_decision_task_DD_L4,2021.2.3,Win32,60.33182504,,,,,,,,,,,,0.8438,1,,,,,,,,,,,,,,,,,,,,,,,,0.761111111,-0.22037037,0,0,0,,,,,,,INFANT,HB,z,y,./images/INFANTHB.png,,,,,,,,,,,,,,,,,,,,,z,1,0.8438,,,,,,,,0,69,69,160,1
,,,,,,,,,,,,,,,,,,32,2022-02-12_12h29.51.987,lexical_decision_task_DD_L4,2021.2.3,Win32,60.33182504,,,,,,,,,,,,1.2034,0,,,,,,,,,,,,,,,,,,,,,,,,0.761111111,-0.22037037,0,0,0,,,,,,,CANDLE,HB,z,y,./images/CANDLEHB.png,,,,,,,,,,,,,,,,,,,,,m,0,1.2034,,,,,,,,0,70,70,145,1
,,,,,,,,,,,,,,,,,,32,2022-02-12_12h29.51.987,lexical_decision_task_DD_L4,2021.2.3,Win32,60.33182504,,,,,,,,,,,,1.0406,1,,,,,,,,,,,,,,,,,,,,,,,,0.761111111,-0.22037037,0,0,0,,,,,,,CHAIN,C,m,y,./images/CHAIN.png,,,,,,,,,,,,,,,,,,,,,m,1,1.0406,,,,,,,,0,71,71,42,1
,,,,,,,,,,,,,,,,,,32,2022-02-12_12h29.51.987,lexical_decision_task_DD_L4,2021.2.3,Win32,60.33182504,,,,,,,,,,,,0.7631,1,,,,,,,,,,,,,,,,,,,,,,,,0.761111111,-0.22037037,0,0,0,,,,,,,BANANA,HB,m,y,./images/BANANAHB.png,,,,,,,,,,,,,,,,,,,,,m,1,0.7631,,,,,,,,0,72,72,70,1
,,,,,,,,,,,,,,,,,,32,2022-02-12_12h29.51.987,lexical_decision_task_DD_L4,2021.2.3,Win32,60.33182504,,,,,,,,,,,,0.7508,1,,,,,,,,,,,,,,,,,,,,,,,,0.761111111,-0.22037037,0,0,0,,,,,,,KITTEN,C,z,y,./images/KITTEN.png,,,,,,,,,,,,,,,,,,,,,z,1,0.7508,,,,,,,,0,73,73,129,1
,,,,,,,,,,,,,,,,,,32,2022-02-12_12h29.51.987,lexical_decision_task_DD_L4,2021.2.3,Win32,60.33182504,,,,,,,,,,,,0.922,1,,,,,,,,,,,,,,,,,,,,,,,,0.761111111,-0.22037037,0,0,0,,,,,,,CRADLE,LB,z,y,./images/CRADLELB.png,,,,,,,,,,,,,,,,,,,,,z,1,0.922,,,,,,,,0,74,74,104,1
,,,,,,,,,,,,,,,,,,32,2022-02-12_12h29.51.987,lexical_decision_task_DD_L4,2021.2.3,Win32,60.33182504,,,,,,,,,,,,0.9151,0,,,,,,,,,,,,,,,,,,,,,,,,0.761111111,-0.22037037,0,0,0,,,,,,,TOWEL,HB,m,y,./images/TOWELHB.png,,,,,,,,,,,,,,,,,,,,,z,0,0.9151,,,,,,,,0,75,75,1,1
,,,,,,,,,,,,,,,,,,32,2022-02-12_12h29.51.987,lexical_decision_task_DD_L4,2021.2.3,Win32,60.33182504,,,,,,,,,,,,0.899,1,,,,,,,,,,,,,,,,,,,,,,,,0.761111111,-0.22037037,0,0,0,,,,,,,MAGGOT,C,z,y,./images/MAGGOT.png,,,,,,,,,,,,,,,,,,,,,z,1,0.899,,,,,,,,0,76,76,117,1
,,,,,,,,,,,,,,,,,,32,2022-02-12_12h29.51.987,lexical_decision_task_DD_L4,2021.2.3,Win32,60.33182504,,,,,,,,,,,,1.0864,1,,,,,,,,,,,,,,,,,,,,,,,,0.761111111,-0.22037037,0,0,0,,,,,,,CHERRY,C,m,y,./images/CHERRY.png,,,,,,,,,,,,,,,,,,,,,m,1,1.0864,,,,,,,,0,77,77,54,1
,,,,,,,,,,,,,,,,,,32,2022-02-12_12h29.51.987,lexical_decision_task_DD_L4,2021.2.3,Win32,60.33182504,,,,,,,,,,,,0.5748,1,,,,,,,,,,,,,,,,,,,,,,,,0.761111111,-0.22037037,0,0,0,,,,,,,WHEEL,LB,m,y,./images/WHEELLB.png,,,,,,,,,,,,,,,,,,,,,m,1,0.5748,,,,,,,,0,78,78,77,1
,,,,,,,,,,,,,,,,,,32,2022-02-12_12h29.51.987,lexical_decision_task_DD_L4,2021.2.3,Win32,60.33182504,,,,,,,,,,,,0.6632,0,,,,,,,,,,,,,,,,,,,,,,,,0.761111111,-0.22037037,0,0,0,,,,,,,STREAM,LB,m,y,./images/STREAMLB.png,,,,,,,,,,,,,,,,,,,,,z,0,0.6632,,,,,,,,0,79,79,41,1
,,,,,,,,,,,,,,,,,,32,2022-02-12_12h29.51.987,lexical_decision_task_DD_L4,2021.2.3,Win32,60.33182504,,,,,,,,,,,,0.7647,1,,,,,,,,,,,,,,,,,,,,,,,,0.761111111,-0.22037037,0,0,0,,,,,,,COOKER,C,z,y,./images/COOKER.png,,,,,,,,,,,,,,,,,,,,,z,1,0.7647,,,,,,,,0,80,80,153,1
,,,,,,,,,,,,,,,,,,32,2022-02-12_12h29.51.987,lexical_decision_task_DD_L4,2021.2.3,Win32,60.33182504,,,,,,,,,,,,1.0628,1,,,,,,,,,,,,,,,,,,,,,,,,0.761111111,-0.22037037,0,0,0,,,,,,,SKIING,LB,z,y,./images/SKIINGLB.png,,,,,,,,,,,,,,,,,,,,,z,1,1.0628,,,,,,,,0,81,81,101,1
,,,,,,,,,,,,,,,,,,32,2022-02-12_12h29.51.987,lexical_decision_task_DD_L4,2021.2.3,Win32,60.33182504,,,,,,,,,,,,0.6901,1,,,,,,,,,,,,,,,,,,,,,,,,0.761111111,-0.22037037,0,0,0,,,,,,,TOMATO,C,z,y,./images/TOMATO.png,,,,,,,,,,,,,,,,,,,,,z,1,0.6901,,,,,,,,0,82,82,84,1
,,,,,,,,,,,,,,,,,,32,2022-02-12_12h29.51.987,lexical_decision_task_DD_L4,2021.2.3,Win32,60.33182504,,,,,,,,,,,,1.0303,1,,,,,,,,,,,,,,,,,,,,,,,,0.761111111,-0.22037037,0,0,0,space,,,,,,STATUE,C,m,y,./images/STATUE.png,,1.6292,,,,,,,,,,,,,,,,,,,m,1,1.0303,,,,,,,,0,83,83,66,1
,,,,,,,,,,,,,,,,,,32,2022-02-12_12h29.51.987,lexical_decision_task_DD_L4,2021.2.3,Win32,60.33182504,,,,,,,,,,,,0.8453,1,,,,,,,,,,,,,,,,,,,,,,,,0.761111111,-0.22037037,0,0,0,,,,,,,SCREW,C,z,y,./images/SCREW.png,,,,,,,,,,,,,,,,,,,,,z,1,0.8453,,,,,,,,0,84,84,108,1
,,,,,,,,,,,,,,,,,,32,2022-02-12_12h29.51.987,lexical_decision_task_DD_L4,2021.2.3,Win32,60.33182504,,,,,,,,,,,,1.4936,1,,,,,,,,,,,,,,,,,,,,,,,,0.761111111,-0.22037037,0,0,0,,,,,,,FALCON,HB,z,y,./images/FALCONHB.png,,,,,,,,,,,,,,,,,,,,,z,1,1.4936,,,,,,,,0,85,85,112,1
,,,,,,,,,,,,,,,,,,32,2022-02-12_12h29.51.987,lexical_decision_task_DD_L4,2021.2.3,Win32,60.33182504,,,,,,,,,,,,0.7771,1,,,,,,,,,,,,,,,,,,,,,,,,0.761111111,-0.22037037,0,0,0,,,,,,,URINE,HB,z,y,./images/URINEHB.png,,,,,,,,,,,,,,,,,,,,,z,1,0.7771,,,,,,,,0,86,86,154,1
,,,,,,,,,,,,,,,,,,32,2022-02-12_12h29.51.987,lexical_decision_task_DD_L4,2021.2.3,Win32,60.33182504,,,,,,,,,,,,0.7127,1,,,,,,,,,,,,,,,,,,,,,,,,0.761111111,-0.22037037,0,0,0,,,,,,,ATTIC,C,z,y,./images/ATTIC.png,,,,,,,,,,,,,,,,,,,,,z,1,0.7127,,,,,,,,0,87,87,111,1
,,,,,,,,,,,,,,,,,,32,2022-02-12_12h29.51.987,lexical_decision_task_DD_L4,2021.2.3,Win32,60.33182504,,,,,,,,,,,,0.7071,1,,,,,,,,,,,,,,,,,,,,,,,,0.761111111,-0.22037037,0,0,0,,,,,,,BURIAL,LB,z,y,./images/BURIALLB.png,,,,,,,,,,,,,,,,,,,,,z,1,0.7071,,,,,,,,0,88,88,143,1
,,,,,,,,,,,,,,,,,,32,2022-02-12_12h29.51.987,lexical_decision_task_DD_L4,2021.2.3,Win32,60.33182504,,,,,,,,,,,,0.6789,0,,,,,,,,,,,,,,,,,,,,,,,,0.761111111,-0.22037037,0,0,0,,,,,,,CRATER,C,m,y,./images/CRATER.png,,,,,,,,,,,,,,,,,,,,,z,0,0.6789,,,,,,,,0,89,89,3,1
,,,,,,,,,,,,,,,,,,32,2022-02-12_12h29.51.987,lexical_decision_task_DD_L4,2021.2.3,Win32,60.33182504,,,,,,,,,,,,0.4903,1,,,,,,,,,,,,,,,,,,,,,,,,0.761111111,-0.22037037,0,0,0,,,,,,,BRIDE,HB,m,y,./images/BRIDEHB.png,,,,,,,,,,,,,,,,,,,,,m,1,0.4903,,,,,,,,0,90,90,64,1
,,,,,,,,,,,,,,,,,,32,2022-02-12_12h29.51.987,lexical_decision_task_DD_L4,2021.2.3,Win32,60.33182504,,,,,,,,,,,,0.7011,1,,,,,,,,,,,,,,,,,,,,,,,,0.761111111,-0.22037037,0,0,0,,,,,,,MEDAL,LB,m,y,./images/MEDALLB.png,,,,,,,,,,,,,,,,,,,,,m,1,0.7011,,,,,,,,0,91,91,11,1
,,,,,,,,,,,,,,,,,,32,2022-02-12_12h29.51.987,lexical_decision_task_DD_L4,2021.2.3,Win32,60.33182504,,,,,,,,,,,,0.842,1,,,,,,,,,,,,,,,,,,,,,,,,0.761111111,-0.22037037,0,0,0,,,,,,,MUFFIN,HB,z,y,./images/MUFFINHB.png,,,,,,,,,,,,,,,,,,,,,z,1,0.842,,,,,,,,0,92,92,139,1
,,,,,,,,,,,,,,,,,,32,2022-02-12_12h29.51.987,lexical_decision_task_DD_L4,2021.2.3,Win32,60.33182504,,,,,,,,,,,,0.8803,1,,,,,,,,,,,,,,,,,,,,,,,,0.761111111,-0.22037037,0,0,0,,,,,,,COUCH,LB,z,y,./images/COUCHLB.png,,,,,,,,,,,,,,,,,,,,,z,1,0.8803,,,,,,,,0,93,93,161,1
,,,,,,,,,,,,,,,,,,32,2022-02-12_12h29.51.987,lexical_decision_task_DD_L4,2021.2.3,Win32,60.33182504,,,,,,,,,,,,0.6849,1,,,,,,,,,,,,,,,,,,,,,,,,0.761111111,-0.22037037,0,0,0,,,,,,,MUMMY,HB,m,y,./images/MUMMYHB.png,,,,,,,,,,,,,,,,,,,,,m,1,0.6849,,,,,,,,0,94,94,46,1
,,,,,,,,,,,,,,,,,,32,2022-02-12_12h29.51.987,lexical_decision_task_DD_L4,2021.2.3,Win32,60.33182504,,,,,,,,,,,,0.534,1,,,,,,,,,,,,,,,,,,,,,,,,0.761111111,-0.22037037,0,0,0,,,,,,,BUBBLE,LB,m,y,./images/BUBBLELB.png,,,,,,,,,,,,,,,,,,,,,m,1,0.534,,,,,,,,0,95,95,71,1
,,,,,,,,,,,,,,,,,,32,2022-02-12_12h29.51.987,lexical_decision_task_DD_L4,2021.2.3,Win32,60.33182504,,,,,,,,,,,,0.8233,1,,,,,,,,,,,,,,,,,,,,,,,,0.761111111,-0.22037037,0,0,0,,,,,,,PEARL,HB,z,y,./images/PEARLHB.png,,,,,,,,,,,,,,,,,,,,,z,1,0.8233,,,,,,,,0,96,96,130,1
,,,,,,,,,,,,,,,,,,32,2022-02-12_12h29.51.987,lexical_decision_task_DD_L4,2021.2.3,Win32,60.33182504,,,,,,,,,,,,1.1182,0,,,,,,,,,,,,,,,,,,,,,,,,0.761111111,-0.22037037,0,0,0,,,,,,,PACKET,LB,z,y,./images/PACKETLB.png,,,,,,,,,,,,,,,,,,,,,m,0,1.1182,,,,,,,,0,97,97,140,1
,,,,,,,,,,,,,,,,,,32,2022-02-12_12h29.51.987,lexical_decision_task_DD_L4,2021.2.3,Win32,60.33182504,,,,,,,,,,,,0.9336,0,,,,,,,,,,,,,,,,,,,,,,,,0.761111111,-0.22037037,0,0,0,,,,,,,TRIPOD,C,z,y,./images/TRIPOD.png,,,,,,,,,,,,,,,,,,,,,m,0,0.9336,,,,,,,,0,98,98,138,1
,,,,,,,,,,,,,,,,,,32,2022-02-12_12h29.51.987,lexical_decision_task_DD_L4,2021.2.3,Win32,60.33182504,,,,,,,,,,,,0.8519,0,,,,,,,,,,,,,,,,,,,,,,,,0.761111111,-0.22037037,0,0,0,,,,,,,STOVE,LB,m,y,./images/STOVELB.png,,,,,,,,,,,,,,,,,,,,,z,0,0.8519,,,,,,,,0,99,99,2,1
,,,,,,,,,,,,,,,,,,32,2022-02-12_12h29.51.987,lexical_decision_task_DD_L4,2021.2.3,Win32,60.33182504,,,,,,,,,,,,0.9917,1,,,,,,,,,,,,,,,,,,,,,,,,0.761111111,-0.22037037,0,0,0,,,,,,,BRUSH,LB,m,y,./images/BRUSHLB.png,,,,,,,,,,,,,,,,,,,,,m,1,0.9917,,,,,,,,0,100,100,59,1
,,,,,,,,,,,,,,,,,,32,2022-02-12_12h29.51.987,lexical_decision_task_DD_L4,2021.2.3,Win32,60.33182504,,,,,,,,,,,,0.7845,1,,,,,,,,,,,,,,,,,,,,,,,,0.761111111,-0.22037037,0,0,0,,,,,,,PARCEL,C,m,y,./images/PARCEL.png,,,,,,,,,,,,,,,,,,,,,m,1,0.7845,,,,,,,,0,101,101,18,1
,,,,,,,,,,,,,,,,,,32,2022-02-12_12h29.51.987,lexical_decision_task_DD_L4,2021.2.3,Win32,60.33182504,,,,,,,,,,,,1.0298,1,,,,,,,,,,,,,,,,,,,,,,,,0.761111111,-0.22037037,0,0,0,,,,,,,CANYON,HB,z,y,./images/CANYONHB.png,,,,,,,,,,,,,,,,,,,,,z,1,1.0298,,,,,,,,0,102,102,118,1
,,,,,,,,,,,,,,,,,,32,2022-02-12_12h29.51.987,lexical_decision_task_DD_L4,2021.2.3,Win32,60.33182504,,,,,,,,,,,,0.8214,1,,,,,,,,,,,,,,,,,,,,,,,,0.761111111,-0.22037037,0,0,0,,,,,,,WRIST,HB,z,y,./images/WRISTHB.png,,,,,,,,,,,,,,,,,,,,,z,1,0.8214,,,,,,,,0,103,103,109,1
,,,,,,,,,,,,,,,,,,32,2022-02-12_12h29.51.987,lexical_decision_task_DD_L4,2021.2.3,Win32,60.33182504,,,,,,,,,,,,0.7712,1,,,,,,,,,,,,,,,,,,,,,,,,0.761111111,-0.22037037,0,0,0,,,,,,,SAUNA,C,m,y,./images/SAUNA.png,,,,,,,,,,,,,,,,,,,,,m,1,0.7712,,,,,,,,0,104,104,33,1
,,,,,,,,,,,,,,,,,,32,2022-02-12_12h29.51.987,lexical_decision_task_DD_L4,2021.2.3,Win32,60.33182504,,,,,,,,,,,,0.851,0,,,,,,,,,,,,,,,,,,,,,,,,0.761111111,-0.22037037,0,0,0,,,,,,,SLOPE,C,m,y,./images/SLOPE.png,,,,,,,,,,,,,,,,,,,,,z,0,0.851,,,,,,,,0,105,105,30,1
,,,,,,,,,,,,,,,,,,32,2022-02-12_12h29.51.987,lexical_decision_task_DD_L4,2021.2.3,Win32,60.33182504,,,,,,,,,,,,0.8502,0,,,,,,,,,,,,,,,,,,,,,,,,0.761111111,-0.22037037,0,0,0,,,,,,,COLLAR,C,m,y,./images/COLLAR.png,,,,,,,,,,,,,,,,,,,,,z,0,0.8502,,,,,,,,0,106,106,15,1
,,,,,,,,,,,,,,,,,,32,2022-02-12_12h29.51.987,lexical_decision_task_DD_L4,2021.2.3,Win32,60.33182504,,,,,,,,,,,,0.7737,1,,,,,,,,,,,,,,,,,,,,,,,,0.761111111,-0.22037037,0,0,0,,,,,,,CARPET,LB,z,y,./images/CARPETLB.png,,,,,,,,,,,,,,,,,,,,,z,1,0.7737,,,,,,,,0,107,107,137,1
,,,,,,,,,,,,,,,,,,32,2022-02-12_12h29.51.987,lexical_decision_task_DD_L4,2021.2.3,Win32,60.33182504,,,,,,,,,,,,0.8378,1,,,,,,,,,,,,,,,,,,,,,,,,0.761111111,-0.22037037,0,0,0,,,,,,,DESERT,HB,m,y,./images/DESERTHB.png,,,,,,,,,,,,,,,,,,,,,m,1,0.8378,,,,,,,,0,108,108,52,1
,,,,,,,,,,,,,,,,,,32,2022-02-12_12h29.51.987,lexical_decision_task_DD_L4,2021.2.3,Win32,60.33182504,,,,,,,,,,,,0.8342,1,,,,,,,,,,,,,,,,,,,,,,,,0.761111111,-0.22037037,0,0,0,,,,,,,BEARD,LB,z,y,./images/BEARDLB.png,,,,,,,,,,,,,,,,,,,,,z,1,0.8342,,,,,,,,0,109,109,86,1
,,,,,,,,,,,,,,,,,,32,2022-02-12_12h29.51.987,lexical_decision_task_DD_L4,2021.2.3,Win32,60.33182504,,,,,,,,,,,,0.7524,1,,,,,,,,,,,,,,,,,,,,,,,,0.761111111,-0.22037037,0,0,0,,,,,,,BUTTER,C,m,y,./images/BUTTER.png,,,,,,,,,,,,,,,,,,,,,m,1,0.7524,,,,,,,,0,110,110,27,1
,,,,,,,,,,,,,,,,,,32,2022-02-12_12h29.51.987,lexical_decision_task_DD_L4,2021.2.3,Win32,60.33182504,,,,,,,,,,,,1.1376,1,,,,,,,,,,,,,,,,,,,,,,,,0.761111111,-0.22037037,0,0,0,,,,,,,BIRTH,HB,z,y,./images/BIRTHHB.png,,,,,,,,,,,,,,,,,,,,,z,1,1.1376,,,,,,,,0,111,111,121,1
,,,,,,,,,,,,,,,,,,32,2022-02-12_12h29.51.987,lexical_decision_task_DD_L4,2021.2.3,Win32,60.33182504,,,,,,,,,,,,1.0196,1,,,,,,,,,,,,,,,,,,,,,,,,0.761111111,-0.22037037,0,0,0,,,,,,,PEBBLE,HB,m,y,./images/PEBBLEHB.png,,,,,,,,,,,,,,,,,,,,,m,1,1.0196,,,,,,,,0,112,112,82,1
,,,,,,,,,,,,,,,,,,32,2022-02-12_12h29.51.987,lexical_decision_task_DD_L4,2021.2.3,Win32,60.33182504,,,,,,,,,,,,0.9456,0,,,,,,,,,,,,,,,,,,,,,,,,0.761111111,-0.22037037,0,0,0,,,,,,,SWING,HB,z,y,./images/SWINGHB.png,,,,,,,,,,,,,,,,,,,,,m,0,0.9456,,,,,,,,0,113,113,124,1
,,,,,,,,,,,,,,,,,,32,2022-02-12_12h29.51.987,lexical_decision_task_DD_L4,2021.2.3,Win32,60.33182504,,,,,,,,,,,,0.7622,1,,,,,,,,,,,,,,,,,,,,,,,,0.761111111,-0.22037037,0,0,0,,,,,,,WALRUS,LB,z,y,./images/WALRUSLB.png,,,,,,,,,,,,,,,,,,,,,z,1,0.7622,,,,,,,,0,114,114,107,1
,,,,,,,,,,,,,,,,,,32,2022-02-12_12h29.51.987,lexical_decision_task_DD_L4,2021.2.3,Win32,60.33182504,,,,,,,,,,,,0.6509,1,,,,,,,,,,,,,,,,,,,,,,,,0.761111111,-0.22037037,0,0,0,,,,,,,STEAK,HB,m,y,./images/STEAKHB.png,,,,,,,,,,,,,,,,,,,,,m,1,0.6509,,,,,,,,0,115,115,31,1
,,,,,,,,,,,,,,,,,,32,2022-02-12_12h29.51.987,lexical_decision_task_DD_L4,2021.2.3,Win32,60.33182504,,,,,,,,,,,,0.7447,1,,,,,,,,,,,,,,,,,,,,,,,,0.761111111,-0.22037037,0,0,0,,,,,,,GREASE,C,z,y,./images/GREASE.png,,,,,,,,,,,,,,,,,,,,,z,1,0.7447,,,,,,,,0,116,116,99,1
,,,,,,,,,,,,,,,,,,32,2022-02-12_12h29.51.987,lexical_decision_task_DD_L4,2021.2.3,Win32,60.33182504,,,,,,,,,,,,0.761,1,,,,,,,,,,,,,,,,,,,,,,,,0.761111111,-0.22037037,0,0,0,,,,,,,CLOUD,LB,m,y,./images/CLOUDLB.png,,,,,,,,,,,,,,,,,,,,,m,1,0.761,,,,,,,,0,117,117,26,1
,,,,,,,,,,,,,,,,,,32,2022-02-12_12h29.51.987,lexical_decision_task_DD_L4,2021.2.3,Win32,60.33182504,,,,,,,,,,,,0.6913,1,,,,,,,,,,,,,,,,,,,,,,,,0.761111111,-0.22037037,0,0,0,,,,,,,CURRY,C,m,y,./images/CURRY.png,,,,,,,,,,,,,,,,,,,,,m,1,0.6913,,,,,,,,0,118,118,60,1
,,,,,,,,,,,,,,,,,,32,2022-02-12_12h29.51.987,lexical_decision_task_DD_L4,2021.2.3,Win32,60.33182504,,,,,,,,,,,,0.6634,0,,,,,,,,,,,,,,,,,,,,,,,,0.761111111,-0.22037037,0,0,0,,,,,,,BROOM,C,m,y,./images/BROOM.png,,,,,,,,,,,,,,,,,,,,,z,0,0.6634,,,,,,,,0,119,119,78,1
,,,,,,,,,,,,,,,,,,32,2022-02-12_12h29.51.987,lexical_decision_task_DD_L4,2021.2.3,Win32,60.33182504,,,,,,,,,,,,0.8683,1,,,,,,,,,,,,,,,,,,,,,,,,0.761111111,-0.22037037,0,0,0,,,,,,,SUNSET,HB,z,y,./images/SUNSETHB.png,,,,,,,,,,,,,,,,,,,,,z,1,0.8683,,,,,,,,0,120,120,166,1
,,,,,,,,,,,,,,,,,,32,2022-02-12_12h29.51.987,lexical_decision_task_DD_L4,2021.2.3,Win32,60.33182504,,,,,,,,,,,,0.807,0,,,,,,,,,,,,,,,,,,,,,,,,0.761111111,-0.22037037,0,0,0,,,,,,,WEASEL,LB,z,y,./images/WEASELLB.png,,,,,,,,,,,,,,,,,,,,,m,0,0.807,,,,,,,,0,121,121,164,1
,,,,,,,,,,,,,,,,,,32,2022-02-12_12h29.51.987,lexical_decision_task_DD_L4,2021.2.3,Win32,60.33182504,,,,,,,,,,,,0.6074,0,,,,,,,,,,,,,,,,,,,,,,,,0.761111111,-0.22037037,0,0,0,,,,,,,MIRROR,C,z,y,./images/MIRROR.png,,,,,,,,,,,,,,,,,,,,,m,0,0.6074,,,,,,,,0,122,122,147,1
,,,,,,,,,,,,,,,,,,32,2022-02-12_12h29.51.987,lexical_decision_task_DD_L4,2021.2.3,Win32,60.33182504,,,,,,,,,,,,0.6451,1,,,,,,,,,,,,,,,,,,,,,,,,0.761111111,-0.22037037,0,0,0,,,,,,,TWINS,C,z,y,./images/TWINS.png,,,,,,,,,,,,,,,,,,,,,z,1,0.6451,,,,,,,,0,123,123,144,1
,,,,,,,,,,,,,,,,,,32,2022-02-12_12h29.51.987,lexical_decision_task_DD_L4,2021.2.3,Win32,60.33182504,,,,,,,,,,,,5.3297,0,,,,,,,,,,,,,,,,,,,,,,,,0.761111111,-0.22037037,0,0,0,,,,,,,BOXER,HB,m,y,./images/BOXERHB.png,,,,,,,,,,,,,,,,,,,,,z,0,5.3297,,,,,,,,0,124,124,4,1
,,,,,,,,,,,,,,,,,,32,2022-02-12_12h29.51.987,lexical_decision_task_DD_L4,2021.2.3,Win32,60.33182504,,,,,,,,,,,,0.5962,1,,,,,,,,,,,,,,,,,,,,,,,,0.761111111,-0.22037037,0,0,0,space,,,,,,WALNUT,C,m,y,./images/WALNUT.png,,1.3682,,,,,,,,,,,,,,,,,,,m,1,0.5962,,,,,,,,0,125,125,0,1
,,,,,,,,,,,,,,,,,,32,2022-02-12_12h29.51.987,lexical_decision_task_DD_L4,2021.2.3,Win32,60.33182504,,,,,,,,,,,,0.8132,1,,,,,,,,,,,,,,,,,,,,,,,,0.761111111,-0.22037037,0,0,0,,,,,,,STORM,C,z,y,./images/STORM.png,,,,,,,,,,,,,,,,,,,,,z,1,0.8132,,,,,,,,0,126,126,114,1
,,,,,,,,,,,,,,,,,,32,2022-02-12_12h29.51.987,lexical_decision_task_DD_L4,2021.2.3,Win32,60.33182504,,,,,,,,,,,,0.6586,1,,,,,,,,,,,,,,,,,,,,,,,,0.761111111,-0.22037037,0,0,0,,,,,,,BISHOP,HB,m,y,./images/BISHOPHB.png,,,,,,,,,,,,,,,,,,,,,m,1,0.6586,,,,,,,,0,127,127,49,1
,,,,,,,,,,,,,,,,,,32,2022-02-12_12h29.51.987,lexical_decision_task_DD_L4,2021.2.3,Win32,60.33182504,,,,,,,,,,,,0.5685,1,,,,,,,,,,,,,,,,,,,,,,,,0.761111111,-0.22037037,0,0,0,,,,,,,MAMMAL,LB,m,y,./images/MAMMALLB.png,,,,,,,,,,,,,,,,,,,,,m,1,0.5685,,,,,,,,0,128,128,62,1
,,,,,,,,,,,,,,,,,,32,2022-02-12_12h29.51.987,lexical_decision_task_DD_L4,2021.2.3,Win32,60.33182504,,,,,,,,,,,,0.6926,1,,,,,,,,,,,,,,,,,,,,,,,,0.761111111,-0.22037037,0,0,0,,,,,,,SAUCE,C,m,y,./images/SAUCE.png,,,,,,,,,,,,,,,,,,,,,m,1,0.6926,,,,,,,,0,129,129,51,1
,,,,,,,,,,,,,,,,,,32,2022-02-12_12h29.51.987,lexical_decision_task_DD_L4,2021.2.3,Win32,60.33182504,,,,,,,,,,,,0.6763,1,,,,,,,,,,,,,,,,,,,,,,,,0.761111111,-0.22037037,0,0,0,,,,,,,BOILER,C,m,y,./images/BOILER.png,,,,,,,,,,,,,,,,,,,,,m,1,0.6763,,,,,,,,0,130,130,36,1
,,,,,,,,,,,,,,,,,,32,2022-02-12_12h29.51.987,lexical_decision_task_DD_L4,2021.2.3,Win32,60.33182504,,,,,,,,,,,,0.7262,1,,,,,,,,,,,,,,,,,,,,,,,,0.761111111,-0.22037037,0,0,0,,,,,,,FERRY,C,m,y,./images/FERRY.png,,,,,,,,,,,,,,,,,,,,,m,1,0.7262,,,,,,,,0,131,131,57,1
,,,,,,,,,,,,,,,,,,32,2022-02-12_12h29.51.987,lexical_decision_task_DD_L4,2021.2.3,Win32,60.33182504,,,,,,,,,,,,0.7826,1,,,,,,,,,,,,,,,,,,,,,,,,0.761111111,-0.22037037,0,0,0,,,,,,,RHINO,C,z,y,./images/RHINO.png,,,,,,,,,,,,,,,,,,,,,z,1,0.7826,,,,,,,,0,132,132,93,1
,,,,,,,,,,,,,,,,,,32,2022-02-12_12h29.51.987,lexical_decision_task_DD_L4,2021.2.3,Win32,60.33182504,,,,,,,,,,,,0.6633,1,,,,,,,,,,,,,,,,,,,,,,,,0.761111111,-0.22037037,0,0,0,,,,,,,LITTER,C,z,y,./images/LITTER.png,,,,,,,,,,,,,,,,,,,,,z,1,0.6633,,,,,,,,0,133,133,162,1
,,,,,,,,,,,,,,,,,,32,2022-02-12_12h29.51.987,lexical_decision_task_DD_L4,2021.2.3,Win32,60.33182504,,,,,,,,,,,,0.729,0,,,,,,,,,,,,,,,,,,,,,,,,0.761111111,-0.22037037,0,0,0,,,,,,,BARREL,LB,z,y,./images/BARRELLB.png,,,,,,,,,,,,,,,,,,,,,m,0,0.729,,,,,,,,0,134,134,116,1
,,,,,,,,,,,,,,,,,,32,2022-02-12_12h29.51.987,lexical_decision_task_DD_L4,2021.2.3,Win32,60.33182504,,,,,,,,,,,,0.8032,1,,,,,,,,,,,,,,,,,,,,,,,,0.761111111,-0.22037037,0,0,0,,,,,,,TORCH,LB,z,y,./images/TORCHLB.png,,,,,,,,,,,,,,,,,,,,,z,1,0.8032,,,,,,,,0,135,135,152,1
,,,,,,,,,,,,,,,,,,32,2022-02-12_12h29.51.987,lexical_decision_task_DD_L4,2021.2.3,Win32,60.33182504,,,,,,,,,,,,0.9806,1,,,,,,,,,,,,,,,,,,,,,,,,0.761111111,-0.22037037,0,0,0,,,,,,,CANOE,HB,m,y,./images/CANOEHB.png,,,,,,,,,,,,,,,,,,,,,m,1,0.9806,,,,,,,,0,136,136,58,1
,,,,,,,,,,,,,,,,,,32,2022-02-12_12h29.51.987,lexical_decision_task_DD_L4,2021.2.3,Win32,60.33182504,,,,,,,,,,,,0.708,1,,,,,,,,,,,,,,,,,,,,,,,,0.761111111,-0.22037037,0,0,0,,,,,,,FLESH,C,m,y,./images/FLESH.png,,,,,,,,,,,,,,,,,,,,,m,1,0.708,,,,,,,,0,137,137,24,1
,,,,,,,,,,,,,,,,,,32,2022-02-12_12h29.51.987,lexical_decision_task_DD_L4,2021.2.3,Win32,60.33182504,,,,,,,,,,,,0.6712,1,,,,,,,,,,,,,,,,,,,,,,,,0.761111111,-0.22037037,0,0,0,,,,,,,BAMBOO,LB,m,y,./images/BAMBOOLB.png,,,,,,,,,,,,,,,,,,,,,m,1,0.6712,,,,,,,,0,138,138,5,1
,,,,,,,,,,,,,,,,,,32,2022-02-12_12h29.51.987,lexical_decision_task_DD_L4,2021.2.3,Win32,60.33182504,,,,,,,,,,,,0.6195,1,,,,,,,,,,,,,,,,,,,,,,,,0.761111111,-0.22037037,0,0,0,,,,,,,MELON,HB,z,y,./images/MELONHB.png,,,,,,,,,,,,,,,,,,,,,z,1,0.6195,,,,,,,,0,139,139,106,1
,,,,,,,,,,,,,,,,,,32,2022-02-12_12h29.51.987,lexical_decision_task_DD_L4,2021.2.3,Win32,60.33182504,,,,,,,,,,,,0.7237,0,,,,,,,,,,,,,,,,,,,,,,,,0.761111111,-0.22037037,0,0,0,,,,,,,BONNET,LB,z,y,./images/BONNETLB.png,,,,,,,,,,,,,,,,,,,,,m,0,0.7237,,,,,,,,0,140,140,95,1
,,,,,,,,,,,,,,,,,,32,2022-02-12_12h29.51.987,lexical_decision_task_DD_L4,2021.2.3,Win32,60.33182504,,,,,,,,,,,,0.9352,1,,,,,,,,,,,,,,,,,,,,,,,,0.761111111,-0.22037037,0,0,0,,,,,,,BLOKE,C,m,y,./images/BLOKE.png,,,,,,,,,,,,,,,,,,,,,m,1,0.9352,,,,,,,,0,141,141,12,1
,,,,,,,,,,,,,,,,,,32,2022-02-12_12h29.51.987,lexical_decision_task_DD_L4,2021.2.3,Win32,60.33182504,,,,,,,,,,,,0.6403,1,,,,,,,,,,,,,,,,,,,,,,,,0.761111111,-0.22037037,0,0,0,,,,,,,GLOVE,HB,m,y,./images/GLOVEHB.png,,,,,,,,,,,,,,,,,,,,,m,1,0.6403,,,,,,,,0,142,142,73,1
,,,,,,,,,,,,,,,,,,32,2022-02-12_12h29.51.987,lexical_decision_task_DD_L4,2021.2.3,Win32,60.33182504,,,,,,,,,,,,0.6238,1,,,,,,,,,,,,,,,,,,,,,,,,0.761111111,-0.22037037,0,0,0,,,,,,,PICKLE,LB,z,y,./images/PICKLELB.png,,,,,,,,,,,,,,,,,,,,,z,1,0.6238,,,,,,,,0,143,143,98,1
,,,,,,,,,,,,,,,,,,32,2022-02-12_12h29.51.987,lexical_decision_task_DD_L4,2021.2.3,Win32,60.33182504,,,,,,,,,,,,0.6695,1,,,,,,,,,,,,,,,,,,,,,,,,0.761111111,-0.22037037,0,0,0,,,,,,,CHALK,HB,m,y,./images/CHALKHB.png,,,,,,,,,,,,,,,,,,,,,m,1,0.6695,,,,,,,,0,144,144,25,1
,,,,,,,,,,,,,,,,,,32,2022-02-12_12h29.51.987,lexical_decision_task_DD_L4,2021.2.3,Win32,60.33182504,,,,,,,,,,,,0.6584,1,,,,,,,,,,,,,,,,,,,,,,,,0.761111111,-0.22037037,0,0,0,,,,,,,CRUMB,LB,z,y,./images/CRUMBLB.png,,,,,,,,,,,,,,,,,,,,,z,1,0.6584,,,,,,,,0,145,145,113,1
,,,,,,,,,,,,,,,,,,32,2022-02-12_12h29.51.987,lexical_decision_task_DD_L4,2021.2.3,Win32,60.33182504,,,,,,,,,,,,0.784,1,,,,,,,,,,,,,,,,,,,,,,,,0.761111111,-0.22037037,0,0,0,,,,,,,FARMER,LB,z,y,./images/FARMERLB.png,,,,,,,,,,,,,,,,,,,,,z,1,0.784,,,,,,,,0,146,146,149,1
,,,,,,,,,,,,,,,,,,32,2022-02-12_12h29.51.987,lexical_decision_task_DD_L4,2021.2.3,Win32,60.33182504,,,,,,,,,,,,0.9689,1,,,,,,,,,,,,,,,,,,,,,,,,0.761111111,-0.22037037,0,0,0,,,,,,,ONION,C,z,y,./images/ONION.png,,,,,,,,,,,,,,,,,,,,,z,1,0.9689,,,,,,,,0,147,147,135,1
,,,,,,,,,,,,,,,,,,32,2022-02-12_12h29.51.987,lexical_decision_task_DD_L4,2021.2.3,Win32,60.33182504,,,,,,,,,,,,0.7171,1,,,,,,,,,,,,,,,,,,,,,,,,0.761111111,-0.22037037,0,0,0,,,,,,,PLANET,LB,m,y,./images/PLANETLB.png,,,,,,,,,,,,,,,,,,,,,m,1,0.7171,,,,,,,,0,148,148,80,1
,,,,,,,,,,,,,,,,,,32,2022-02-12_12h29.51.987,lexical_decision_task_DD_L4,2021.2.3,Win32,60.33182504,,,,,,,,,,,,0.7548,1,,,,,,,,,,,,,,,,,,,,,,,,0.761111111,-0.22037037,0,0,0,,,,,,,LIZARD,LB,z,y,./images/LIZARDLB.png,,,,,,,,,,,,,,,,,,,,,z,1,0.7548,,,,,,,,0,149,149,128,1
,,,,,,,,,,,,,,,,,,32,2022-02-12_12h29.51.987,lexical_decision_task_DD_L4,2021.2.3,Win32,60.33182504,,,,,,,,,,,,0.6882,1,,,,,,,,,,,,,,,,,,,,,,,,0.761111111,-0.22037037,0,0,0,,,,,,,RAZOR,HB,m,y,./images/RAZORHB.png,,,,,,,,,,,,,,,,,,,,,m,1,0.6882,,,,,,,,0,150,150,34,1
,,,,,,,,,,,,,,,,,,32,2022-02-12_12h29.51.987,lexical_decision_task_DD_L4,2021.2.3,Win32,60.33182504,,,,,,,,,,,,0.6261,1,,,,,,,,,,,,,,,,,,,,,,,,0.761111111,-0.22037037,0,0,0,,,,,,,LLAMA,LB,m,y,./images/LLAMALB.png,,,,,,,,,,,,,,,,,,,,,m,1,0.6261,,,,,,,,0,151,151,35,1
,,,,,,,,,,,,,,,,,,32,2022-02-12_12h29.51.987,lexical_decision_task_DD_L4,2021.2.3,Win32,60.33182504,,,,,,,,,,,,0.8747,0,,,,,,,,,,,,,,,,,,,,,,,,0.761111111,-0.22037037,0,0,0,,,,,,,SPINE,LB,m,y,./images/SPINELB.png,,,,,,,,,,,,,,,,,,,,,z,0,0.8747,,,,,,,,0,152,152,65,1
,,,,,,,,,,,,,,,,,,32,2022-02-12_12h29.51.987,lexical_decision_task_DD_L4,2021.2.3,Win32,60.33182504,,,,,,,,,,,,0.773,1,,,,,,,,,,,,,,,,,,,,,,,,0.761111111,-0.22037037,0,0,0,,,,,,,POKER,HB,m,y,./images/POKERHB.png,,,,,,,,,,,,,,,,,,,,,m,1,0.773,,,,,,,,0,153,153,67,1
,,,,,,,,,,,,,,,,,,32,2022-02-12_12h29.51.987,lexical_decision_task_DD_L4,2021.2.3,Win32,60.33182504,,,,,,,,,,,,1.0172,0,,,,,,,,,,,,,,,,,,,,,,,,0.761111111,-0.22037037,0,0,0,,,,,,,GRAPE,HB,m,y,./images/GRAPEHB.png,,,,,,,,,,,,,,,,,,,,,z,0,1.0172,,,,,,,,0,154,154,16,1
,,,,,,,,,,,,,,,,,,32,2022-02-12_12h29.51.987,lexical_decision_task_DD_L4,2021.2.3,Win32,60.33182504,,,,,,,,,,,,0.9035,1,,,,,,,,,,,,,,,,,,,,,,,,0.761111111,-0.22037037,0,0,0,,,,,,,BAKER,C,m,y,./images/BAKER.png,,,,,,,,,,,,,,,,,,,,,m,1,0.9035,,,,,,,,0,155,155,63,1
,,,,,,,,,,,,,,,,,,32,2022-02-12_12h29.51.987,lexical_decision_task_DD_L4,2021.2.3,Win32,60.33182504,,,,,,,,,,,,0.9293,0,,,,,,,,,,,,,,,,,,,,,,,,0.761111111,-0.22037037,0,0,0,,,,,,,KIDNEY,C,z,y,./images/KIDNEY.png,,,,,,,,,,,,,,,,,,,,,m,0,0.9293,,,,,,,,0,156,156,105,1
,,,,,,,,,,,,,,,,,,32,2022-02-12_12h29.51.987,lexical_decision_task_DD_L4,2021.2.3,Win32,60.33182504,,,,,,,,,,,,0.8673,1,,,,,,,,,,,,,,,,,,,,,,,,0.761111111,-0.22037037,0,0,0,,,,,,,WHISKY,LB,m,y,./images/WHISKYLB.png,,,,,,,,,,,,,,,,,,,,,m,1,0.8673,,,,,,,,0,157,157,83,1
,,,,,,,,,,,,,,,,,,32,2022-02-12_12h29.51.987,lexical_decision_task_DD_L4,2021.2.3,Win32,60.33182504,,,,,,,,,,,,0.6894,0,,,,,,,,,,,,,,,,,,,,,,,,0.761111111,-0.22037037,0,0,0,,,,,,,BANNER,HB,z,y,./images/BANNERHB.png,,,,,,,,,,,,,,,,,,,,,m,0,0.6894,,,,,,,,0,158,158,136,1
,,,,,,,,,,,,,,,,,,32,2022-02-12_12h29.51.987,lexical_decision_task_DD_L4,2021.2.3,Win32,60.33182504,,,,,,,,,,,,0.7339,0,,,,,,,,,,,,,,,,,,,,,,,,0.761111111,-0.22037037,0,0,0,,,,,,,SNACK,HB,z,y,./images/SNACKHB.png,,,,,,,,,,,,,,,,,,,,,m,0,0.7339,,,,,,,,0,159,159,157,1
