key_resp.keys,key_resp.rt,instr_done_touch.x,instr_done_touch.y,instr_done_touch.leftButton,instr_done_touch.midButton,instr_done_touch.rightButton,instruction_pages.thisRepN,instruction_pages.thisTrialN,instruction_pages.thisN,instruction_pages.thisIndex,instruction_pages.ran,pageN,phase,instruct_text,has_image,instruct_image,participant,age,date,expName,psychopyVersion,OS,frameRate,response.keys,response.corr,response.rt,touch_resp.x,touch_resp.y,touch_resp.leftButton,touch_resp.midButton,touch_resp.rightButton,touch_resp.time,touch_resp.clicked_name,rt,corr,practrials.thisRepN,practrials.thisTrialN,practrials.thisN,practrials.thisIndex,practrials.ran,TrialID,Target,corrAns,end_of_practice_trials_pages.thisRepN,end_of_practice_trials_pages.thisTrialN,end_of_practice_trials_pages.thisN,end_of_practice_trials_pages.thisIndex,end_of_practice_trials_pages.ran,key_resp_2.keys,key_resp_2.corr,key_resp_2.rt,targ_click.x,targ_click.y,targ_click.leftButton,targ_click.midButton,targ_click.rightButton,targ_click.time,targ_click.clicked_name,break_done_touch.x,break_done_touch.y,break_done_touch.leftButton,break_done_touch.midButton,break_done_touch.rightButton,break_done_keyboard.keys,maintrials.thisRepN,maintrials.thisTrialN,maintrials.thisN,maintrials.thisIndex,maintrials.ran,string,blur,study,lex,stim_path,break_done_keyboard.rt,mouse_2.x,mouse_2.y,mouse_2.leftButton,mouse_2.midButton,mouse_2.rightButton,mouse_2.clicked_name,slider.response,slider.rt,trials.thisRepN,trials.thisTrialN,trials.thisN,trials.thisIndex,trials.ran,instr_done_touch.clicked_name,test_instructions.thisRepN,test_instructions.thisTrialN,test_instructions.thisN,test_instructions.thisIndex,test_instructions.ran,key_resp_3.keys,key_resp_3.corr,key_resp_3.rt,test_click.x,test_click.y,test_click.leftButton,test_click.midButton,test_click.rightButton,test_click.time,test_click.clicked_name,test_phase.thisRepN,test_phase.thisTrialN,test_phase.thisN,test_phase.thisIndex,test_phase.ran
space,17.8764,0.033333333,-0.114814815,0,0,0,0,0,0,0,1,1,instructions,"INSTRUCTIONS
At the start of each trial, look at the plus sign  (+) in the center of the screen.  This tells you that a trial is about to begin and where to look. Second, the plus sign will disappear and a string of letters will appear. Your task is to determine if the string of letters is a word or not. If the item is a word press the M key (on keyboard)  or touch the word button (phone/tablet).  If the item is not a word,  press the  Z key (on keyboard)  or touch the nonword button (on phone/tablet). 
Press the space bar or touch  continue.",0,,,26,2022-02-12_11h48.31.483,lexical_decision_task_DD_L4,2021.2.3,Win32,144.0299582,,,,,,,,,,,,,,,,,,,,,,,,,,,,,,,,,,,,,,,,,,,,,,,,,,,,,,,,,,,,,,,,,,,,,,,,,,,,,,,,,,,,,,
space,4.4113,0.033333333,-0.114814815,0,0,0,0,1,1,1,1,2,instructions,"If your device has a keyboard, press the 'Z' key for nonwords and the 'M' key for words.





Press the space bar or touch the button below to continue.",0,keyboard-example.gif,,26,2022-02-12_11h48.31.483,lexical_decision_task_DD_L4,2021.2.3,Win32,144.0299582,,,,,,,,,,,,,,,,,,,,,,,,,,,,,,,,,,,,,,,,,,,,,,,,,,,,,,,,,,,,,,,,,,,,,,,,,,,,,,,,,,,,,,
space,4.0531,0.033333333,-0.114814815,0,0,0,0,2,2,2,1,3,instructions,"If you are using a touchscreen only device, use the buttons on the screen. Do not use the mouse.





Press the space bar or touch the button below to continue.",0,touchscreen-example.gif,,26,2022-02-12_11h48.31.483,lexical_decision_task_DD_L4,2021.2.3,Win32,144.0299582,,,,,,,,,,,,,,,,,,,,,,,,,,,,,,,,,,,,,,,,,,,,,,,,,,,,,,,,,,,,,,,,,,,,,,,,,,,,,,,,,,,,,,
space,6.6116,0.033333333,-0.114814815,0,0,0,0,3,3,3,1,4,instructions,"It is very important that you respond as quickly and accurately as possible, as each letter string will only be on the screen for two seconds. If you do not respond within this time, the message 'Too slow!' will be displayed and the experiment will progress to the next letter string. The first 20 trials will be practice trials and you will receive feedback on your answers. 

Press the space bar or touch the button below to start the practice trials.",0,,,26,2022-02-12_11h48.31.483,lexical_decision_task_DD_L4,2021.2.3,Win32,144.0299582,,,,,,,,,,,,,,,,,,,,,,,,,,,,,,,,,,,,,,,,,,,,,,,,,,,,,,,,,,,,,,,,,,,,,,,,,,,,,,,,,,,,,,
,,,,,,,,,,,,,,,,,,26,2022-02-12_11h48.31.483,lexical_decision_task_DD_L4,2021.2.3,Win32,144.0299582,z,1,1.0489,,,,,,,,1.0489,1,0,0,0,14,1,1001,THRALE,z,,,,,,,,,,,,,,,,,,,,,,,,,,,,,,,,,,,,,,,,,,,,,,,,,,,,,,,,,,,,,,,,,,
,,,,,,,,,,,,,,,,,,26,2022-02-12_11h48.31.483,lexical_decision_task_DD_L4,2021.2.3,Win32,144.0299582,z,1,0.9104,,,,,,,,0.9104,1,0,1,1,9,1,1001,FARINY,z,,,,,,,,,,,,,,,,,,,,,,,,,,,,,,,,,,,,,,,,,,,,,,,,,,,,,,,,,,,,,,,,,,
,,,,,,,,,,,,,,,,,,26,2022-02-12_11h48.31.483,lexical_decision_task_DD_L4,2021.2.3,Win32,144.0299582,z,1,0.8955,,,,,,,,0.8955,1,0,2,2,15,1,1001,WHAISE,z,,,,,,,,,,,,,,,,,,,,,,,,,,,,,,,,,,,,,,,,,,,,,,,,,,,,,,,,,,,,,,,,,,
,,,,,,,,,,,,,,,,,,26,2022-02-12_11h48.31.483,lexical_decision_task_DD_L4,2021.2.3,Win32,144.0299582,z,1,0.9356,,,,,,,,0.9356,1,0,3,3,10,1,1001,INLADE,z,,,,,,,,,,,,,,,,,,,,,,,,,,,,,,,,,,,,,,,,,,,,,,,,,,,,,,,,,,,,,,,,,,
,,,,,,,,,,,,,,,,,,26,2022-02-12_11h48.31.483,lexical_decision_task_DD_L4,2021.2.3,Win32,144.0299582,z,1,0.9278,,,,,,,,0.9278,1,0,4,4,12,1,1001,SPRINY,z,,,,,,,,,,,,,,,,,,,,,,,,,,,,,,,,,,,,,,,,,,,,,,,,,,,,,,,,,,,,,,,,,,
,,,,,,,,,,,,,,,,,,26,2022-02-12_11h48.31.483,lexical_decision_task_DD_L4,2021.2.3,Win32,144.0299582,z,1,0.879,,,,,,,,0.879,1,0,5,5,13,1,1001,ROUPET,z,,,,,,,,,,,,,,,,,,,,,,,,,,,,,,,,,,,,,,,,,,,,,,,,,,,,,,,,,,,,,,,,,,
,,,,,,,,,,,,,,,,,,26,2022-02-12_11h48.31.483,lexical_decision_task_DD_L4,2021.2.3,Win32,144.0299582,m,1,0.8034,,,,,,,,0.8034,1,0,6,6,6,1,1001,ZOMBIE,m,,,,,,,,,,,,,,,,,,,,,,,,,,,,,,,,,,,,,,,,,,,,,,,,,,,,,,,,,,,,,,,,,,
,,,,,,,,,,,,,,,,,,26,2022-02-12_11h48.31.483,lexical_decision_task_DD_L4,2021.2.3,Win32,144.0299582,z,1,0.7494,,,,,,,,0.7494,1,0,7,7,8,1,1001,ASLERT,z,,,,,,,,,,,,,,,,,,,,,,,,,,,,,,,,,,,,,,,,,,,,,,,,,,,,,,,,,,,,,,,,,,
,,,,,,,,,,,,,,,,,,26,2022-02-12_11h48.31.483,lexical_decision_task_DD_L4,2021.2.3,Win32,144.0299582,m,1,0.7722,,,,,,,,0.7722,1,0,8,8,5,1,1001,OBTAIN,m,,,,,,,,,,,,,,,,,,,,,,,,,,,,,,,,,,,,,,,,,,,,,,,,,,,,,,,,,,,,,,,,,,
,,,,,,,,,,,,,,,,,,26,2022-02-12_11h48.31.483,lexical_decision_task_DD_L4,2021.2.3,Win32,144.0299582,z,1,0.7219,,,,,,,,0.7219,1,0,9,9,11,1,1001,RASHET,z,,,,,,,,,,,,,,,,,,,,,,,,,,,,,,,,,,,,,,,,,,,,,,,,,,,,,,,,,,,,,,,,,,
,,,,,,,,,,,,,,,,,,26,2022-02-12_11h48.31.483,lexical_decision_task_DD_L4,2021.2.3,Win32,144.0299582,m,1,0.6221,,,,,,,,0.6221,1,0,10,10,4,1,1001,SQUEAK,m,,,,,,,,,,,,,,,,,,,,,,,,,,,,,,,,,,,,,,,,,,,,,,,,,,,,,,,,,,,,,,,,,,
,,,,,,,,,,,,,,,,,,26,2022-02-12_11h48.31.483,lexical_decision_task_DD_L4,2021.2.3,Win32,144.0299582,m,1,0.7573,,,,,,,,0.7573,1,0,11,11,3,1,1001,MATRIX,m,,,,,,,,,,,,,,,,,,,,,,,,,,,,,,,,,,,,,,,,,,,,,,,,,,,,,,,,,,,,,,,,,,
,,,,,,,,,,,,,,,,,,26,2022-02-12_11h48.31.483,lexical_decision_task_DD_L4,2021.2.3,Win32,144.0299582,m,1,0.7494,,,,,,,,0.7494,1,0,12,12,7,1,1001,VOLUME,m,,,,,,,,,,,,,,,,,,,,,,,,,,,,,,,,,,,,,,,,,,,,,,,,,,,,,,,,,,,,,,,,,,
,,,,,,,,,,,,,,,,,,26,2022-02-12_11h48.31.483,lexical_decision_task_DD_L4,2021.2.3,Win32,144.0299582,m,1,1.0573,,,,,,,,1.0573,1,0,13,13,2,1,1001,ALMOND,m,,,,,,,,,,,,,,,,,,,,,,,,,,,,,,,,,,,,,,,,,,,,,,,,,,,,,,,,,,,,,,,,,,
,,,,,,,,,,,,,,,,,,26,2022-02-12_11h48.31.483,lexical_decision_task_DD_L4,2021.2.3,Win32,144.0299582,m,1,0.7457,,,,,,,,0.7457,1,0,14,14,0,1,1001,UTOPIA,m,,,,,,,,,,,,,,,,,,,,,,,,,,,,,,,,,,,,,,,,,,,,,,,,,,,,,,,,,,,,,,,,,,
,,,,,,,,,,,,,,,,,,26,2022-02-12_11h48.31.483,lexical_decision_task_DD_L4,2021.2.3,Win32,144.0299582,m,1,0.835,,,,,,,,0.835,1,0,15,15,1,1,1001,ADJUST,m,,,,,,,,,,,,,,,,,,,,,,,,,,,,,,,,,,,,,,,,,,,,,,,,,,,,,,,,,,,,,,,,,,
space,18.8071,0.1,-0.209259259,0,0,0,,,,,,1,end_of_practice,"You have completed the practice trials. During the experimental trials, you will not receive feedback. 
Before you begin, please ensure that you are in a comfortable and quiet location and will not be disturbed for about 15 minutes, as we cannot use your data if you do not complete all the trials. 
 When you are ready to start the experimental trials, please press space or touch the button below.",,,,26,2022-02-12_11h48.31.483,lexical_decision_task_DD_L4,2021.2.3,Win32,144.0299582,,,,,,,,,,,,,,,,,,,,,0,0,0,0,1,,,,,,,,,,,,,,,,,,,,,,,,,,,,,,,,,,,,,,,,,,,,,,,,,,,,,,,,,,,,,
,,,,,,,,,,,,,,,,,,26,2022-02-12_11h48.31.483,lexical_decision_task_DD_L4,2021.2.3,Win32,144.0299582,,,,,,,,,,,1.02,1,,,,,,,,,,,,,,m,1,1.02,,,,,,,,0.1,-0.209259259,0,0,0,,0,0,0,51,1,SAUCE,C,old,m,./images/SAUCE.png,,,,,,,,,,,,,,,,,,,,,,,,,,,,,,,,,,,
,,,,,,,,,,,,,,,,,,26,2022-02-12_11h48.31.483,lexical_decision_task_DD_L4,2021.2.3,Win32,144.0299582,,,,,,,,,,,1.09,1,,,,,,,,,,,,,,z,1,1.09,,,,,,,,0.1,-0.209259259,0,0,0,,0,1,1,98,1,BAMPS,LB,old,z,./images/BAMPSLB.png,,,,,,,,,,,,,,,,,,,,,,,,,,,,,,,,,,,
,,,,,,,,,,,,,,,,,,26,2022-02-12_11h48.31.483,lexical_decision_task_DD_L4,2021.2.3,Win32,144.0299582,,,,,,,,,,,1.1658,1,,,,,,,,,,,,,,z,1,1.1658,,,,,,,,0.1,-0.209259259,0,0,0,,0,2,2,144,1,NAIRY,C,old,z,./images/NAIRY.png,,,,,,,,,,,,,,,,,,,,,,,,,,,,,,,,,,,
,,,,,,,,,,,,,,,,,,26,2022-02-12_11h48.31.483,lexical_decision_task_DD_L4,2021.2.3,Win32,144.0299582,,,,,,,,,,,0.7267,1,,,,,,,,,,,,,,z,1,0.7267,,,,,,,,0.1,-0.209259259,0,0,0,,0,3,3,152,1,FRAIN,LB,old,z,./images/FRAINLB.png,,,,,,,,,,,,,,,,,,,,,,,,,,,,,,,,,,,
,,,,,,,,,,,,,,,,,,26,2022-02-12_11h48.31.483,lexical_decision_task_DD_L4,2021.2.3,Win32,144.0299582,,,,,,,,,,,0.9233,1,,,,,,,,,,,,,,z,1,0.9233,,,,,,,,0.1,-0.209259259,0,0,0,,0,4,4,138,1,PLICE,C,old,z,./images/PLICE.png,,,,,,,,,,,,,,,,,,,,,,,,,,,,,,,,,,,
,,,,,,,,,,,,,,,,,,26,2022-02-12_11h48.31.483,lexical_decision_task_DD_L4,2021.2.3,Win32,144.0299582,,,,,,,,,,,1.0434,1,,,,,,,,,,,,,,z,1,1.0434,,,,,,,,0.1,-0.209259259,0,0,0,,0,5,5,124,1,TUNCH,HB,old,z,./images/TUNCHHB.png,,,,,,,,,,,,,,,,,,,,,,,,,,,,,,,,,,,
,,,,,,,,,,,,,,,,,,26,2022-02-12_11h48.31.483,lexical_decision_task_DD_L4,2021.2.3,Win32,144.0299582,,,,,,,,,,,0.7708,1,,,,,,,,,,,,,,m,1,0.7708,,,,,,,,0.1,-0.209259259,0,0,0,,0,6,6,44,1,BASKET,LB,old,m,./images/BASKETLB.png,,,,,,,,,,,,,,,,,,,,,,,,,,,,,,,,,,,
,,,,,,,,,,,,,,,,,,26,2022-02-12_11h48.31.483,lexical_decision_task_DD_L4,2021.2.3,Win32,144.0299582,,,,,,,,,,,0.6963,1,,,,,,,,,,,,,,m,1,0.6963,,,,,,,,0.1,-0.209259259,0,0,0,,0,7,7,8,1,CLIFF,LB,old,m,./images/CLIFFLB.png,,,,,,,,,,,,,,,,,,,,,,,,,,,,,,,,,,,
,,,,,,,,,,,,,,,,,,26,2022-02-12_11h48.31.483,lexical_decision_task_DD_L4,2021.2.3,Win32,144.0299582,,,,,,,,,,,0.7043,1,,,,,,,,,,,,,,z,1,0.7043,,,,,,,,0.1,-0.209259259,0,0,0,,0,8,8,107,1,FASKS,LB,old,z,./images/FASKSLB.png,,,,,,,,,,,,,,,,,,,,,,,,,,,,,,,,,,,
,,,,,,,,,,,,,,,,,,26,2022-02-12_11h48.31.483,lexical_decision_task_DD_L4,2021.2.3,Win32,144.0299582,,,,,,,,,,,0.6433,1,,,,,,,,,,,,,,m,1,0.6433,,,,,,,,0.1,-0.209259259,0,0,0,,0,9,9,17,1,PARADE,LB,old,m,./images/PARADELB.png,,,,,,,,,,,,,,,,,,,,,,,,,,,,,,,,,,,
,,,,,,,,,,,,,,,,,,26,2022-02-12_11h48.31.483,lexical_decision_task_DD_L4,2021.2.3,Win32,144.0299582,,,,,,,,,,,1.0044,1,,,,,,,,,,,,,,z,1,1.0044,,,,,,,,0.1,-0.209259259,0,0,0,,0,10,10,136,1,WERVE,HB,old,z,./images/WERVEHB.png,,,,,,,,,,,,,,,,,,,,,,,,,,,,,,,,,,,
,,,,,,,,,,,,,,,,,,26,2022-02-12_11h48.31.483,lexical_decision_task_DD_L4,2021.2.3,Win32,144.0299582,,,,,,,,,,,0.7811,1,,,,,,,,,,,,,,z,1,0.7811,,,,,,,,0.1,-0.209259259,0,0,0,,0,11,11,86,1,AIFED,LB,old,z,./images/AIFEDLB.png,,,,,,,,,,,,,,,,,,,,,,,,,,,,,,,,,,,
,,,,,,,,,,,,,,,,,,26,2022-02-12_11h48.31.483,lexical_decision_task_DD_L4,2021.2.3,Win32,144.0299582,,,,,,,,,,,1.2009,1,,,,,,,,,,,,,,z,1,1.2009,,,,,,,,0.1,-0.209259259,0,0,0,,0,12,12,157,1,INLER,HB,old,z,./images/INLERHB.png,,,,,,,,,,,,,,,,,,,,,,,,,,,,,,,,,,,
,,,,,,,,,,,,,,,,,,26,2022-02-12_11h48.31.483,lexical_decision_task_DD_L4,2021.2.3,Win32,144.0299582,,,,,,,,,,,0.6559,1,,,,,,,,,,,,,,m,1,0.6559,,,,,,,,0.1,-0.209259259,0,0,0,,0,13,13,2,1,STOVE,LB,old,m,./images/STOVELB.png,,,,,,,,,,,,,,,,,,,,,,,,,,,,,,,,,,,
,,,,,,,,,,,,,,,,,,26,2022-02-12_11h48.31.483,lexical_decision_task_DD_L4,2021.2.3,Win32,144.0299582,,,,,,,,,,,0.988,1,,,,,,,,,,,,,,z,1,0.988,,,,,,,,0.1,-0.209259259,0,0,0,,0,14,14,97,1,CHIDS,HB,old,z,./images/CHIDSHB.png,,,,,,,,,,,,,,,,,,,,,,,,,,,,,,,,,,,
,,,,,,,,,,,,,,,,,,26,2022-02-12_11h48.31.483,lexical_decision_task_DD_L4,2021.2.3,Win32,144.0299582,,,,,,,,,,,0.8116,1,,,,,,,,,,,,,,z,1,0.8116,,,,,,,,0.1,-0.209259259,0,0,0,,0,15,15,165,1,TROWN,C,old,z,./images/TROWN.png,,,,,,,,,,,,,,,,,,,,,,,,,,,,,,,,,,,
,,,,,,,,,,,,,,,,,,26,2022-02-12_11h48.31.483,lexical_decision_task_DD_L4,2021.2.3,Win32,144.0299582,,,,,,,,,,,0.8156,1,,,,,,,,,,,,,,m,1,0.8156,,,,,,,,0.1,-0.209259259,0,0,0,,0,16,16,34,1,RAZOR,HB,old,m,./images/RAZORHB.png,,,,,,,,,,,,,,,,,,,,,,,,,,,,,,,,,,,
,,,,,,,,,,,,,,,,,,26,2022-02-12_11h48.31.483,lexical_decision_task_DD_L4,2021.2.3,Win32,144.0299582,,,,,,,,,,,0.7939,1,,,,,,,,,,,,,,m,1,0.7939,,,,,,,,0.1,-0.209259259,0,0,0,,0,17,17,27,1,BUTTER,C,old,m,./images/BUTTER.png,,,,,,,,,,,,,,,,,,,,,,,,,,,,,,,,,,,
,,,,,,,,,,,,,,,,,,26,2022-02-12_11h48.31.483,lexical_decision_task_DD_L4,2021.2.3,Win32,144.0299582,,,,,,,,,,,0.6992,1,,,,,,,,,,,,,,z,1,0.6992,,,,,,,,0.1,-0.209259259,0,0,0,,0,18,18,132,1,SCIFF,C,old,z,./images/SCIFF.png,,,,,,,,,,,,,,,,,,,,,,,,,,,,,,,,,,,
,,,,,,,,,,,,,,,,,,26,2022-02-12_11h48.31.483,lexical_decision_task_DD_L4,2021.2.3,Win32,144.0299582,,,,,,,,,,,1.1539,1,,,,,,,,,,,,,,z,1,1.1539,,,,,,,,0.1,-0.209259259,0,0,0,,0,19,19,130,1,CRILL,HB,old,z,./images/CRILLHB.png,,,,,,,,,,,,,,,,,,,,,,,,,,,,,,,,,,,
,,,,,,,,,,,,,,,,,,26,2022-02-12_11h48.31.483,lexical_decision_task_DD_L4,2021.2.3,Win32,144.0299582,,,,,,,,,,,0.8145,1,,,,,,,,,,,,,,z,1,0.8145,,,,,,,,0.1,-0.209259259,0,0,0,,0,20,20,122,1,BLOOT,LB,old,z,./images/BLOOTLB.png,,,,,,,,,,,,,,,,,,,,,,,,,,,,,,,,,,,
,,,,,,,,,,,,,,,,,,26,2022-02-12_11h48.31.483,lexical_decision_task_DD_L4,2021.2.3,Win32,144.0299582,,,,,,,,,,,0.6758,1,,,,,,,,,,,,,,m,1,0.6758,,,,,,,,0.1,-0.209259259,0,0,0,,0,21,21,11,1,MEDAL,LB,old,m,./images/MEDALLB.png,,,,,,,,,,,,,,,,,,,,,,,,,,,,,,,,,,,
,,,,,,,,,,,,,,,,,,26,2022-02-12_11h48.31.483,lexical_decision_task_DD_L4,2021.2.3,Win32,144.0299582,,,,,,,,,,,0.8639,1,,,,,,,,,,,,,,z,1,0.8639,,,,,,,,0.1,-0.209259259,0,0,0,,0,22,22,103,1,FLORT,HB,old,z,./images/FLORTHB.png,,,,,,,,,,,,,,,,,,,,,,,,,,,,,,,,,,,
,,,,,,,,,,,,,,,,,,26,2022-02-12_11h48.31.483,lexical_decision_task_DD_L4,2021.2.3,Win32,144.0299582,,,,,,,,,,,0.6394,1,,,,,,,,,,,,,,z,1,0.6394,,,,,,,,0.1,-0.209259259,0,0,0,,0,23,23,167,1,ZONET,LB,old,z,./images/ZONETLB.png,,,,,,,,,,,,,,,,,,,,,,,,,,,,,,,,,,,
,,,,,,,,,,,,,,,,,,26,2022-02-12_11h48.31.483,lexical_decision_task_DD_L4,2021.2.3,Win32,144.0299582,,,,,,,,,,,0.684,1,,,,,,,,,,,,,,m,1,0.684,,,,,,,,0.1,-0.209259259,0,0,0,,0,24,24,78,1,BROOM,C,old,m,./images/BROOM.png,,,,,,,,,,,,,,,,,,,,,,,,,,,,,,,,,,,
,,,,,,,,,,,,,,,,,,26,2022-02-12_11h48.31.483,lexical_decision_task_DD_L4,2021.2.3,Win32,144.0299582,,,,,,,,,,,0.8671,1,,,,,,,,,,,,,,z,1,0.8671,,,,,,,,0.1,-0.209259259,0,0,0,,0,25,25,149,1,VEASE,LB,old,z,./images/VEASELB.png,,,,,,,,,,,,,,,,,,,,,,,,,,,,,,,,,,,
,,,,,,,,,,,,,,,,,,26,2022-02-12_11h48.31.483,lexical_decision_task_DD_L4,2021.2.3,Win32,144.0299582,,,,,,,,,,,0.7642,1,,,,,,,,,,,,,,m,1,0.7642,,,,,,,,0.1,-0.209259259,0,0,0,,0,26,26,62,1,MAMMAL,LB,old,m,./images/MAMMALLB.png,,,,,,,,,,,,,,,,,,,,,,,,,,,,,,,,,,,
,,,,,,,,,,,,,,,,,,26,2022-02-12_11h48.31.483,lexical_decision_task_DD_L4,2021.2.3,Win32,144.0299582,,,,,,,,,,,0.7315,1,,,,,,,,,,,,,,z,1,0.7315,,,,,,,,0.1,-0.209259259,0,0,0,,0,27,27,87,1,TRING,C,old,z,./images/TRING.png,,,,,,,,,,,,,,,,,,,,,,,,,,,,,,,,,,,
,,,,,,,,,,,,,,,,,,26,2022-02-12_11h48.31.483,lexical_decision_task_DD_L4,2021.2.3,Win32,144.0299582,,,,,,,,,,,0.6771,1,,,,,,,,,,,,,,m,1,0.6771,,,,,,,,0.1,-0.209259259,0,0,0,,0,28,28,43,1,STOOL,HB,old,m,./images/STOOLHB.png,,,,,,,,,,,,,,,,,,,,,,,,,,,,,,,,,,,
,,,,,,,,,,,,,,,,,,26,2022-02-12_11h48.31.483,lexical_decision_task_DD_L4,2021.2.3,Win32,144.0299582,,,,,,,,,,,1.1186,1,,,,,,,,,,,,,,m,1,1.1186,,,,,,,,0.1,-0.209259259,0,0,0,,0,29,29,58,1,CANOE,HB,old,m,./images/CANOEHB.png,,,,,,,,,,,,,,,,,,,,,,,,,,,,,,,,,,,
,,,,,,,,,,,,,,,,,,26,2022-02-12_11h48.31.483,lexical_decision_task_DD_L4,2021.2.3,Win32,144.0299582,,,,,,,,,,,0.7425,1,,,,,,,,,,,,,,z,1,0.7425,,,,,,,,0.1,-0.209259259,0,0,0,,0,30,30,153,1,CLUPS,C,old,z,./images/CLUPS.png,,,,,,,,,,,,,,,,,,,,,,,,,,,,,,,,,,,
,,,,,,,,,,,,,,,,,,26,2022-02-12_11h48.31.483,lexical_decision_task_DD_L4,2021.2.3,Win32,144.0299582,,,,,,,,,,,1.2918,1,,,,,,,,,,,,,,m,1,1.2918,,,,,,,,0.1,-0.209259259,0,0,0,,0,31,31,37,1,TIGER,HB,old,m,./images/TIGERHB.png,,,,,,,,,,,,,,,,,,,,,,,,,,,,,,,,,,,
,,,,,,,,,,,,,,,,,,26,2022-02-12_11h48.31.483,lexical_decision_task_DD_L4,2021.2.3,Win32,144.0299582,,,,,,,,,,,1.4186,1,,,,,,,,,,,,,,z,1,1.4186,,,,,,,,0.1,-0.209259259,0,0,0,,0,32,32,151,1,TINKY,HB,old,z,./images/TINKYHB.png,,,,,,,,,,,,,,,,,,,,,,,,,,,,,,,,,,,
,,,,,,,,,,,,,,,,,,26,2022-02-12_11h48.31.483,lexical_decision_task_DD_L4,2021.2.3,Win32,144.0299582,,,,,,,,,,,0.8549,1,,,,,,,,,,,,,,z,1,0.8549,,,,,,,,0.1,-0.209259259,0,0,0,,0,33,33,146,1,MOOST,LB,old,z,./images/MOOSTLB.png,,,,,,,,,,,,,,,,,,,,,,,,,,,,,,,,,,,
,,,,,,,,,,,,,,,,,,26,2022-02-12_11h48.31.483,lexical_decision_task_DD_L4,2021.2.3,Win32,144.0299582,,,,,,,,,,,0.685,1,,,,,,,,,,,,,,m,1,0.685,,,,,,,,0.1,-0.209259259,0,0,0,,0,34,34,71,1,BUBBLE,LB,old,m,./images/BUBBLELB.png,,,,,,,,,,,,,,,,,,,,,,,,,,,,,,,,,,,
,,,,,,,,,,,,,,,,,,26,2022-02-12_11h48.31.483,lexical_decision_task_DD_L4,2021.2.3,Win32,144.0299582,,,,,,,,,,,1.0738,1,,,,,,,,,,,,,,z,1,1.0738,,,,,,,,0.1,-0.209259259,0,0,0,,0,35,35,118,1,BAVEL,HB,old,z,./images/BAVELHB.png,,,,,,,,,,,,,,,,,,,,,,,,,,,,,,,,,,,
,,,,,,,,,,,,,,,,,,26,2022-02-12_11h48.31.483,lexical_decision_task_DD_L4,2021.2.3,Win32,144.0299582,,,,,,,,,,,0.865,1,,,,,,,,,,,,,,m,1,0.865,,,,,,,,0.1,-0.209259259,0,0,0,,0,36,36,1,1,TOWEL,HB,old,m,./images/TOWELHB.png,,,,,,,,,,,,,,,,,,,,,,,,,,,,,,,,,,,
,,,,,,,,,,,,,,,,,,26,2022-02-12_11h48.31.483,lexical_decision_task_DD_L4,2021.2.3,Win32,144.0299582,,,,,,,,,,,1.244,1,,,,,,,,,,,,,,z,1,1.244,,,,,,,,0.1,-0.209259259,0,0,0,,0,37,37,142,1,PLASK,HB,old,z,./images/PLASKHB.png,,,,,,,,,,,,,,,,,,,,,,,,,,,,,,,,,,,
,,,,,,,,,,,,,,,,,,26,2022-02-12_11h48.31.483,lexical_decision_task_DD_L4,2021.2.3,Win32,144.0299582,,,,,,,,,,,0.7789,1,,,,,,,,,,,,,,m,1,0.7789,,,,,,,,0.1,-0.209259259,0,0,0,,0,38,38,31,1,STEAK,HB,old,m,./images/STEAKHB.png,,,,,,,,,,,,,,,,,,,,,,,,,,,,,,,,,,,
,,,,,,,,,,,,,,,,,,26,2022-02-12_11h48.31.483,lexical_decision_task_DD_L4,2021.2.3,Win32,144.0299582,,,,,,,,,,,0.8059,1,,,,,,,,,,,,,,m,1,0.8059,,,,,,,,0.1,-0.209259259,0,0,0,,0,39,39,0,1,WALNUT,C,old,m,./images/WALNUT.png,,,,,,,,,,,,,,,,,,,,,,,,,,,,,,,,,,,
,,,,,,,,,,,,,,,,,,26,2022-02-12_11h48.31.483,lexical_decision_task_DD_L4,2021.2.3,Win32,144.0299582,,,,,,,,,,,1.4659,1,,,,,,,,,,,,,,m,1,1.4659,,,,,,,,0.1,-0.209259259,0,0,0,,0,40,40,52,1,DESERT,HB,old,m,./images/DESERTHB.png,,,,,,,,,,,,,,,,,,,,,,,,,,,,,,,,,,,
,,,,,,,,,,,,,,,,,,26,2022-02-12_11h48.31.483,lexical_decision_task_DD_L4,2021.2.3,Win32,144.0299582,,,,,,,,,,,0.6394,1,,,,,,,,,,,,,,m,1,0.6394,,,,,,,,0.1,-0.209259259,0,0,0,space,0,41,41,6,1,STAIN,C,old,m,./images/STAIN.png,3.3019,,,,,,,,,,,,,,,,,,,,,,,,,,,,,,,,,,
,,,,,,,,,,,,,,,,,,26,2022-02-12_11h48.31.483,lexical_decision_task_DD_L4,2021.2.3,Win32,144.0299582,,,,,,,,,,,1.083,1,,,,,,,,,,,,,,z,1,1.083,,,,,,,,0.1,-0.209259259,0,0,0,,0,42,42,85,1,CHULK,HB,old,z,./images/CHULKHB.png,,,,,,,,,,,,,,,,,,,,,,,,,,,,,,,,,,,
,,,,,,,,,,,,,,,,,,26,2022-02-12_11h48.31.483,lexical_decision_task_DD_L4,2021.2.3,Win32,144.0299582,,,,,,,,,,,0.6286,1,,,,,,,,,,,,,,m,1,0.6286,,,,,,,,0.1,-0.209259259,0,0,0,,0,43,43,69,1,ARROW,C,old,m,./images/ARROW.png,,,,,,,,,,,,,,,,,,,,,,,,,,,,,,,,,,,
,,,,,,,,,,,,,,,,,,26,2022-02-12_11h48.31.483,lexical_decision_task_DD_L4,2021.2.3,Win32,144.0299582,,,,,,,,,,,0.6035,1,,,,,,,,,,,,,,z,1,0.6035,,,,,,,,0.1,-0.209259259,0,0,0,,0,44,44,162,1,LEICH,C,old,z,./images/LEICH.png,,,,,,,,,,,,,,,,,,,,,,,,,,,,,,,,,,,
,,,,,,,,,,,,,,,,,,26,2022-02-12_11h48.31.483,lexical_decision_task_DD_L4,2021.2.3,Win32,144.0299582,,,,,,,,,,,0.7598,1,,,,,,,,,,,,,,z,1,0.7598,,,,,,,,0.1,-0.209259259,0,0,0,,0,45,45,159,1,CUDDY,C,old,z,./images/CUDDY.png,,,,,,,,,,,,,,,,,,,,,,,,,,,,,,,,,,,
,,,,,,,,,,,,,,,,,,26,2022-02-12_11h48.31.483,lexical_decision_task_DD_L4,2021.2.3,Win32,144.0299582,,,,,,,,,,,1.42,1,,,,,,,,,,,,,,m,1,1.42,,,,,,,,0.1,-0.209259259,0,0,0,,0,46,46,82,1,PEBBLE,HB,old,m,./images/PEBBLEHB.png,,,,,,,,,,,,,,,,,,,,,,,,,,,,,,,,,,,
,,,,,,,,,,,,,,,,,,26,2022-02-12_11h48.31.483,lexical_decision_task_DD_L4,2021.2.3,Win32,144.0299582,,,,,,,,,,,0.7875,1,,,,,,,,,,,,,,m,1,0.7875,,,,,,,,0.1,-0.209259259,0,0,0,,0,47,47,73,1,GLOVE,HB,old,m,./images/GLOVEHB.png,,,,,,,,,,,,,,,,,,,,,,,,,,,,,,,,,,,
,,,,,,,,,,,,,,,,,,26,2022-02-12_11h48.31.483,lexical_decision_task_DD_L4,2021.2.3,Win32,144.0299582,,,,,,,,,,,0.6631,1,,,,,,,,,,,,,,z,1,0.6631,,,,,,,,0.1,-0.209259259,0,0,0,,0,48,48,126,1,GUELS,C,old,z,./images/GUELS.png,,,,,,,,,,,,,,,,,,,,,,,,,,,,,,,,,,,
,,,,,,,,,,,,,,,,,,26,2022-02-12_11h48.31.483,lexical_decision_task_DD_L4,2021.2.3,Win32,144.0299582,,,,,,,,,,,0.5847,1,,,,,,,,,,,,,,z,1,0.5847,,,,,,,,0.1,-0.209259259,0,0,0,,0,49,49,150,1,NOOLS,C,old,z,./images/NOOLS.png,,,,,,,,,,,,,,,,,,,,,,,,,,,,,,,,,,,
,,,,,,,,,,,,,,,,,,26,2022-02-12_11h48.31.483,lexical_decision_task_DD_L4,2021.2.3,Win32,144.0299582,,,,,,,,,,,0.6331,1,,,,,,,,,,,,,,z,1,0.6331,,,,,,,,0.1,-0.209259259,0,0,0,,0,50,50,117,1,STEEG,C,old,z,./images/STEEG.png,,,,,,,,,,,,,,,,,,,,,,,,,,,,,,,,,,,
,,,,,,,,,,,,,,,,,,26,2022-02-12_11h48.31.483,lexical_decision_task_DD_L4,2021.2.3,Win32,144.0299582,,,,,,,,,,,1.3058,1,,,,,,,,,,,,,,z,1,1.3058,,,,,,,,0.1,-0.209259259,0,0,0,,0,51,51,91,1,SHENS,HB,old,z,./images/SHENSHB.png,,,,,,,,,,,,,,,,,,,,,,,,,,,,,,,,,,,
,,,,,,,,,,,,,,,,,,26,2022-02-12_11h48.31.483,lexical_decision_task_DD_L4,2021.2.3,Win32,144.0299582,,,,,,,,,,,0.6574,1,,,,,,,,,,,,,,m,1,0.6574,,,,,,,,0.1,-0.209259259,0,0,0,,0,52,52,53,1,POSTER,LB,old,m,./images/POSTERLB.png,,,,,,,,,,,,,,,,,,,,,,,,,,,,,,,,,,,
,,,,,,,,,,,,,,,,,,26,2022-02-12_11h48.31.483,lexical_decision_task_DD_L4,2021.2.3,Win32,144.0299582,,,,,,,,,,,0.6018,1,,,,,,,,,,,,,,m,1,0.6018,,,,,,,,0.1,-0.209259259,0,0,0,,0,53,53,18,1,PARCEL,C,old,m,./images/PARCEL.png,,,,,,,,,,,,,,,,,,,,,,,,,,,,,,,,,,,
,,,,,,,,,,,,,,,,,,26,2022-02-12_11h48.31.483,lexical_decision_task_DD_L4,2021.2.3,Win32,144.0299582,,,,,,,,,,,0.965,1,,,,,,,,,,,,,,z,1,0.965,,,,,,,,0.1,-0.209259259,0,0,0,,0,54,54,133,1,POWDY,HB,old,z,./images/POWDYHB.png,,,,,,,,,,,,,,,,,,,,,,,,,,,,,,,,,,,
,,,,,,,,,,,,,,,,,,26,2022-02-12_11h48.31.483,lexical_decision_task_DD_L4,2021.2.3,Win32,144.0299582,,,,,,,,,,,0.6454,1,,,,,,,,,,,,,,m,1,0.6454,,,,,,,,0.1,-0.209259259,0,0,0,,0,55,55,72,1,FLASK,C,old,m,./images/FLASK.png,,,,,,,,,,,,,,,,,,,,,,,,,,,,,,,,,,,
,,,,,,,,,,,,,,,,,,26,2022-02-12_11h48.31.483,lexical_decision_task_DD_L4,2021.2.3,Win32,144.0299582,,,,,,,,,,,0.6401,1,,,,,,,,,,,,,,m,1,0.6401,,,,,,,,0.1,-0.209259259,0,0,0,,0,56,56,33,1,SAUNA,C,old,m,./images/SAUNA.png,,,,,,,,,,,,,,,,,,,,,,,,,,,,,,,,,,,
,,,,,,,,,,,,,,,,,,26,2022-02-12_11h48.31.483,lexical_decision_task_DD_L4,2021.2.3,Win32,144.0299582,,,,,,,,,,,1.0978,0,,,,,,,,,,,,,,z,0,1.0978,,,,,,,,0.1,-0.209259259,0,0,0,,0,57,57,13,1,BUNNY,HB,old,m,./images/BUNNYHB.png,,,,,,,,,,,,,,,,,,,,,,,,,,,,,,,,,,,
,,,,,,,,,,,,,,,,,,26,2022-02-12_11h48.31.483,lexical_decision_task_DD_L4,2021.2.3,Win32,144.0299582,,,,,,,,,,,0.6037,1,,,,,,,,,,,,,,m,1,0.6037,,,,,,,,0.1,-0.209259259,0,0,0,,0,58,58,45,1,MONKEY,C,old,m,./images/MONKEY.png,,,,,,,,,,,,,,,,,,,,,,,,,,,,,,,,,,,
,,,,,,,,,,,,,,,,,,26,2022-02-12_11h48.31.483,lexical_decision_task_DD_L4,2021.2.3,Win32,144.0299582,,,,,,,,,,,1.0413,1,,,,,,,,,,,,,,m,1,1.0413,,,,,,,,0.1,-0.209259259,0,0,0,,0,59,59,41,1,STREAM,LB,old,m,./images/STREAMLB.png,,,,,,,,,,,,,,,,,,,,,,,,,,,,,,,,,,,
,,,,,,,,,,,,,,,,,,26,2022-02-12_11h48.31.483,lexical_decision_task_DD_L4,2021.2.3,Win32,144.0299582,,,,,,,,,,,0.6248,1,,,,,,,,,,,,,,m,1,0.6248,,,,,,,,0.1,-0.209259259,0,0,0,,0,60,60,23,1,CLOTH,LB,old,m,./images/CLOTHLB.png,,,,,,,,,,,,,,,,,,,,,,,,,,,,,,,,,,,
,,,,,,,,,,,,,,,,,,26,2022-02-12_11h48.31.483,lexical_decision_task_DD_L4,2021.2.3,Win32,144.0299582,,,,,,,,,,,0.6145,1,,,,,,,,,,,,,,m,1,0.6145,,,,,,,,0.1,-0.209259259,0,0,0,,0,61,61,29,1,PISTOL,LB,old,m,./images/PISTOLLB.png,,,,,,,,,,,,,,,,,,,,,,,,,,,,,,,,,,,
,,,,,,,,,,,,,,,,,,26,2022-02-12_11h48.31.483,lexical_decision_task_DD_L4,2021.2.3,Win32,144.0299582,,,,,,,,,,,0.6182,1,,,,,,,,,,,,,,m,1,0.6182,,,,,,,,0.1,-0.209259259,0,0,0,,0,62,62,80,1,PLANET,LB,old,m,./images/PLANETLB.png,,,,,,,,,,,,,,,,,,,,,,,,,,,,,,,,,,,
,,,,,,,,,,,,,,,,,,26,2022-02-12_11h48.31.483,lexical_decision_task_DD_L4,2021.2.3,Win32,144.0299582,,,,,,,,,,,0.7362,1,,,,,,,,,,,,,,z,1,0.7362,,,,,,,,0.1,-0.209259259,0,0,0,,0,63,63,110,1,CRUNK,LB,old,z,./images/CRUNKLB.png,,,,,,,,,,,,,,,,,,,,,,,,,,,,,,,,,,,
,,,,,,,,,,,,,,,,,,26,2022-02-12_11h48.31.483,lexical_decision_task_DD_L4,2021.2.3,Win32,144.0299582,,,,,,,,,,,0.7391,1,,,,,,,,,,,,,,z,1,0.7391,,,,,,,,0.1,-0.209259259,0,0,0,,0,64,64,101,1,GLEET,LB,old,z,./images/GLEETLB.png,,,,,,,,,,,,,,,,,,,,,,,,,,,,,,,,,,,
,,,,,,,,,,,,,,,,,,26,2022-02-12_11h48.31.483,lexical_decision_task_DD_L4,2021.2.3,Win32,144.0299582,,,,,,,,,,,1.103,0,,,,,,,,,,,,,,m,0,1.103,,,,,,,,0.1,-0.209259259,0,0,0,,0,65,65,128,1,GRIFT,LB,old,z,./images/GRIFTLB.png,,,,,,,,,,,,,,,,,,,,,,,,,,,,,,,,,,,
,,,,,,,,,,,,,,,,,,26,2022-02-12_11h48.31.483,lexical_decision_task_DD_L4,2021.2.3,Win32,144.0299582,,,,,,,,,,,0.5795,1,,,,,,,,,,,,,,m,1,0.5795,,,,,,,,0.1,-0.209259259,0,0,0,,0,66,66,15,1,COLLAR,C,old,m,./images/COLLAR.png,,,,,,,,,,,,,,,,,,,,,,,,,,,,,,,,,,,
,,,,,,,,,,,,,,,,,,26,2022-02-12_11h48.31.483,lexical_decision_task_DD_L4,2021.2.3,Win32,144.0299582,,,,,,,,,,,0.6841,1,,,,,,,,,,,,,,z,1,0.6841,,,,,,,,0.1,-0.209259259,0,0,0,,0,67,67,134,1,TROSS,LB,old,z,./images/TROSSLB.png,,,,,,,,,,,,,,,,,,,,,,,,,,,,,,,,,,,
,,,,,,,,,,,,,,,,,,26,2022-02-12_11h48.31.483,lexical_decision_task_DD_L4,2021.2.3,Win32,144.0299582,,,,,,,,,,,0.7294,1,,,,,,,,,,,,,,z,1,0.7294,,,,,,,,0.1,-0.209259259,0,0,0,,0,68,68,155,1,CANGY,LB,old,z,./images/CANGYLB.png,,,,,,,,,,,,,,,,,,,,,,,,,,,,,,,,,,,
,,,,,,,,,,,,,,,,,,26,2022-02-12_11h48.31.483,lexical_decision_task_DD_L4,2021.2.3,Win32,144.0299582,,,,,,,,,,,0.5702,1,,,,,,,,,,,,,,m,1,0.5702,,,,,,,,0.1,-0.209259259,0,0,0,,0,69,69,26,1,CLOUD,LB,old,m,./images/CLOUDLB.png,,,,,,,,,,,,,,,,,,,,,,,,,,,,,,,,,,,
,,,,,,,,,,,,,,,,,,26,2022-02-12_11h48.31.483,lexical_decision_task_DD_L4,2021.2.3,Win32,144.0299582,,,,,,,,,,,0.6396,1,,,,,,,,,,,,,,z,1,0.6396,,,,,,,,0.1,-0.209259259,0,0,0,,0,70,70,93,1,SMONE,C,old,z,./images/SMONE.png,,,,,,,,,,,,,,,,,,,,,,,,,,,,,,,,,,,
,,,,,,,,,,,,,,,,,,26,2022-02-12_11h48.31.483,lexical_decision_task_DD_L4,2021.2.3,Win32,144.0299582,,,,,,,,,,,0.8461,1,,,,,,,,,,,,,,z,1,0.8461,,,,,,,,0.1,-0.209259259,0,0,0,,0,71,71,158,1,EGECT,LB,old,z,./images/EGECTLB.png,,,,,,,,,,,,,,,,,,,,,,,,,,,,,,,,,,,
,,,,,,,,,,,,,,,,,,26,2022-02-12_11h48.31.483,lexical_decision_task_DD_L4,2021.2.3,Win32,144.0299582,,,,,,,,,,,0.6659,1,,,,,,,,,,,,,,m,1,0.6659,,,,,,,,0.1,-0.209259259,0,0,0,,0,72,72,21,1,DANCER,C,old,m,./images/DANCER.png,,,,,,,,,,,,,,,,,,,,,,,,,,,,,,,,,,,
,,,,,,,,,,,,,,,,,,26,2022-02-12_11h48.31.483,lexical_decision_task_DD_L4,2021.2.3,Win32,144.0299582,,,,,,,,,,,0.6615,1,,,,,,,,,,,,,,m,1,0.6615,,,,,,,,0.1,-0.209259259,0,0,0,,0,73,73,66,1,STATUE,C,old,m,./images/STATUE.png,,,,,,,,,,,,,,,,,,,,,,,,,,,,,,,,,,,
,,,,,,,,,,,,,,,,,,26,2022-02-12_11h48.31.483,lexical_decision_task_DD_L4,2021.2.3,Win32,144.0299582,,,,,,,,,,,0.6273,1,,,,,,,,,,,,,,m,1,0.6273,,,,,,,,0.1,-0.209259259,0,0,0,,0,74,74,56,1,HEATER,LB,old,m,./images/HEATERLB.png,,,,,,,,,,,,,,,,,,,,,,,,,,,,,,,,,,,
,,,,,,,,,,,,,,,,,,26,2022-02-12_11h48.31.483,lexical_decision_task_DD_L4,2021.2.3,Win32,144.0299582,,,,,,,,,,,0.5972,1,,,,,,,,,,,,,,z,1,0.5972,,,,,,,,0.1,-0.209259259,0,0,0,,0,75,75,89,1,DRIEK,LB,old,z,./images/DRIEKLB.png,,,,,,,,,,,,,,,,,,,,,,,,,,,,,,,,,,,
,,,,,,,,,,,,,,,,,,26,2022-02-12_11h48.31.483,lexical_decision_task_DD_L4,2021.2.3,Win32,144.0299582,,,,,,,,,,,0.6477,1,,,,,,,,,,,,,,m,1,0.6477,,,,,,,,0.1,-0.209259259,0,0,0,,0,76,76,59,1,BRUSH,LB,old,m,./images/BRUSHLB.png,,,,,,,,,,,,,,,,,,,,,,,,,,,,,,,,,,,
,,,,,,,,,,,,,,,,,,26,2022-02-12_11h48.31.483,lexical_decision_task_DD_L4,2021.2.3,Win32,144.0299582,,,,,,,,,,,1.2157,1,,,,,,,,,,,,,,m,1,1.2157,,,,,,,,0.1,-0.209259259,0,0,0,,0,77,77,76,1,MIDGET,HB,old,m,./images/MIDGETHB.png,,,,,,,,,,,,,,,,,,,,,,,,,,,,,,,,,,,
,,,,,,,,,,,,,,,,,,26,2022-02-12_11h48.31.483,lexical_decision_task_DD_L4,2021.2.3,Win32,144.0299582,,,,,,,,,,,0.7212,1,,,,,,,,,,,,,,m,1,0.7212,,,,,,,,0.1,-0.209259259,0,0,0,,0,78,78,54,1,CHERRY,C,old,m,./images/CHERRY.png,,,,,,,,,,,,,,,,,,,,,,,,,,,,,,,,,,,
,,,,,,,,,,,,,,,,,,26,2022-02-12_11h48.31.483,lexical_decision_task_DD_L4,2021.2.3,Win32,144.0299582,,,,,,,,,,,1.0155,1,,,,,,,,,,,,,,z,1,1.0155,,,,,,,,0.1,-0.209259259,0,0,0,,0,79,79,106,1,CLUMS,HB,old,z,./images/CLUMSHB.png,,,,,,,,,,,,,,,,,,,,,,,,,,,,,,,,,,,
,,,,,,,,,,,,,,,,,,26,2022-02-12_11h48.31.483,lexical_decision_task_DD_L4,2021.2.3,Win32,144.0299582,,,,,,,,,,,0.6819,1,,,,,,,,,,,,,,z,1,0.6819,,,,,,,,0.1,-0.209259259,0,0,0,,0,80,80,156,1,HIXES,C,old,z,./images/HIXES.png,,,,,,,,,,,,,,,,,,,,,,,,,,,,,,,,,,,
,,,,,,,,,,,,,,,,,,26,2022-02-12_11h48.31.483,lexical_decision_task_DD_L4,2021.2.3,Win32,144.0299582,,,,,,,,,,,0.6491,1,,,,,,,,,,,,,,z,1,0.6491,,,,,,,,0.1,-0.209259259,0,0,0,,0,81,81,135,1,JOODY,C,old,z,./images/JOODY.png,,,,,,,,,,,,,,,,,,,,,,,,,,,,,,,,,,,
,,,,,,,,,,,,,,,,,,26,2022-02-12_11h48.31.483,lexical_decision_task_DD_L4,2021.2.3,Win32,144.0299582,,,,,,,,,,,0.6107,1,,,,,,,,,,,,,,z,1,0.6107,,,,,,,,0.1,-0.209259259,0,0,0,,0,82,82,116,1,BALGY,LB,old,z,./images/BALGYLB.png,,,,,,,,,,,,,,,,,,,,,,,,,,,,,,,,,,,
,,,,,,,,,,,,,,,,,,26,2022-02-12_11h48.31.483,lexical_decision_task_DD_L4,2021.2.3,Win32,144.0299582,,,,,,,,,,,0.6716,1,,,,,,,,,,,,,,z,1,0.6716,,,,,,,,0.1,-0.209259259,0,0,0,space,0,83,83,102,1,DULLE,C,old,z,./images/DULLE.png,3.7922,,,,,,,,,,,,,,,,,,,,,,,,,,,,,,,,,,
,,,,,,,,,,,,,,,,,,26,2022-02-12_11h48.31.483,lexical_decision_task_DD_L4,2021.2.3,Win32,144.0299582,,,,,,,,,,,1.2364,1,,,,,,,,,,,,,,z,1,1.2364,,,,,,,,0.1,-0.209259259,0,0,0,,0,84,84,115,1,MAWNS,HB,old,z,./images/MAWNSHB.png,,,,,,,,,,,,,,,,,,,,,,,,,,,,,,,,,,,
,,,,,,,,,,,,,,,,,,26,2022-02-12_11h48.31.483,lexical_decision_task_DD_L4,2021.2.3,Win32,144.0299582,,,,,,,,,,,1.1384,1,,,,,,,,,,,,,,m,1,1.1384,,,,,,,,0.1,-0.209259259,0,0,0,,0,85,85,67,1,POKER,HB,old,m,./images/POKERHB.png,,,,,,,,,,,,,,,,,,,,,,,,,,,,,,,,,,,
,,,,,,,,,,,,,,,,,,26,2022-02-12_11h48.31.483,lexical_decision_task_DD_L4,2021.2.3,Win32,144.0299582,,,,,,,,,,,0.779,1,,,,,,,,,,,,,,z,1,0.779,,,,,,,,0.1,-0.209259259,0,0,0,,0,86,86,141,1,PLEET,C,old,z,./images/PLEET.png,,,,,,,,,,,,,,,,,,,,,,,,,,,,,,,,,,,
,,,,,,,,,,,,,,,,,,26,2022-02-12_11h48.31.483,lexical_decision_task_DD_L4,2021.2.3,Win32,144.0299582,,,,,,,,,,,0.9721,1,,,,,,,,,,,,,,m,1,0.9721,,,,,,,,0.1,-0.209259259,0,0,0,,0,87,87,4,1,BOXER,HB,old,m,./images/BOXERHB.png,,,,,,,,,,,,,,,,,,,,,,,,,,,,,,,,,,,
,,,,,,,,,,,,,,,,,,26,2022-02-12_11h48.31.483,lexical_decision_task_DD_L4,2021.2.3,Win32,144.0299582,,,,,,,,,,,0.8278,1,,,,,,,,,,,,,,z,1,0.8278,,,,,,,,0.1,-0.209259259,0,0,0,,0,88,88,113,1,LINEW,LB,old,z,./images/LINEWLB.png,,,,,,,,,,,,,,,,,,,,,,,,,,,,,,,,,,,
,,,,,,,,,,,,,,,,,,26,2022-02-12_11h48.31.483,lexical_decision_task_DD_L4,2021.2.3,Win32,144.0299582,,,,,,,,,,,0.7702,1,,,,,,,,,,,,,,z,1,0.7702,,,,,,,,0.1,-0.209259259,0,0,0,,0,89,89,95,1,HANTY,LB,old,z,./images/HANTYLB.png,,,,,,,,,,,,,,,,,,,,,,,,,,,,,,,,,,,
,,,,,,,,,,,,,,,,,,26,2022-02-12_11h48.31.483,lexical_decision_task_DD_L4,2021.2.3,Win32,144.0299582,,,,,,,,,,,0.8735,1,,,,,,,,,,,,,,z,1,0.8735,,,,,,,,0.1,-0.209259259,0,0,0,,0,90,90,88,1,GLUSH,HB,old,z,./images/GLUSHHB.png,,,,,,,,,,,,,,,,,,,,,,,,,,,,,,,,,,,
,,,,,,,,,,,,,,,,,,26,2022-02-12_11h48.31.483,lexical_decision_task_DD_L4,2021.2.3,Win32,144.0299582,,,,,,,,,,,0.7502,1,,,,,,,,,,,,,,m,1,0.7502,,,,,,,,0.1,-0.209259259,0,0,0,,0,91,91,83,1,WHISKY,LB,old,m,./images/WHISKYLB.png,,,,,,,,,,,,,,,,,,,,,,,,,,,,,,,,,,,
,,,,,,,,,,,,,,,,,,26,2022-02-12_11h48.31.483,lexical_decision_task_DD_L4,2021.2.3,Win32,144.0299582,,,,,,,,,,,0.9996,1,,,,,,,,,,,,,,z,1,0.9996,,,,,,,,0.1,-0.209259259,0,0,0,,0,92,92,140,1,DOVET,LB,old,z,./images/DOVETLB.png,,,,,,,,,,,,,,,,,,,,,,,,,,,,,,,,,,,
,,,,,,,,,,,,,,,,,,26,2022-02-12_11h48.31.483,lexical_decision_task_DD_L4,2021.2.3,Win32,144.0299582,,,,,,,,,,,0.9124,1,,,,,,,,,,,,,,m,1,0.9124,,,,,,,,0.1,-0.209259259,0,0,0,,0,93,93,61,1,ARTIST,HB,old,m,./images/ARTISTHB.png,,,,,,,,,,,,,,,,,,,,,,,,,,,,,,,,,,,
,,,,,,,,,,,,,,,,,,26,2022-02-12_11h48.31.483,lexical_decision_task_DD_L4,2021.2.3,Win32,144.0299582,,,,,,,,,,,1.0104,1,,,,,,,,,,,,,,z,1,1.0104,,,,,,,,0.1,-0.209259259,0,0,0,,0,94,94,121,1,CEERS,HB,old,z,./images/CEERSHB.png,,,,,,,,,,,,,,,,,,,,,,,,,,,,,,,,,,,
,,,,,,,,,,,,,,,,,,26,2022-02-12_11h48.31.483,lexical_decision_task_DD_L4,2021.2.3,Win32,144.0299582,,,,,,,,,,,1.0826,1,,,,,,,,,,,,,,m,1,1.0826,,,,,,,,0.1,-0.209259259,0,0,0,,0,95,95,12,1,BLOKE,C,old,m,./images/BLOKE.png,,,,,,,,,,,,,,,,,,,,,,,,,,,,,,,,,,,
,,,,,,,,,,,,,,,,,,26,2022-02-12_11h48.31.483,lexical_decision_task_DD_L4,2021.2.3,Win32,144.0299582,,,,,,,,,,,1.0154,1,,,,,,,,,,,,,,z,1,1.0154,,,,,,,,0.1,-0.209259259,0,0,0,,0,96,96,160,1,VEETS,HB,old,z,./images/VEETSHB.png,,,,,,,,,,,,,,,,,,,,,,,,,,,,,,,,,,,
,,,,,,,,,,,,,,,,,,26,2022-02-12_11h48.31.483,lexical_decision_task_DD_L4,2021.2.3,Win32,144.0299582,,,,,,,,,,,0.8101,1,,,,,,,,,,,,,,z,1,0.8101,,,,,,,,0.1,-0.209259259,0,0,0,,0,97,97,119,1,PAFER,LB,old,z,./images/PAFERLB.png,,,,,,,,,,,,,,,,,,,,,,,,,,,,,,,,,,,
,,,,,,,,,,,,,,,,,,26,2022-02-12_11h48.31.483,lexical_decision_task_DD_L4,2021.2.3,Win32,144.0299582,,,,,,,,,,,0.8468,1,,,,,,,,,,,,,,m,1,0.8468,,,,,,,,0.1,-0.209259259,0,0,0,,0,98,98,49,1,BISHOP,HB,old,m,./images/BISHOPHB.png,,,,,,,,,,,,,,,,,,,,,,,,,,,,,,,,,,,
,,,,,,,,,,,,,,,,,,26,2022-02-12_11h48.31.483,lexical_decision_task_DD_L4,2021.2.3,Win32,144.0299582,,,,,,,,,,,0.7261,1,,,,,,,,,,,,,,m,1,0.7261,,,,,,,,0.1,-0.209259259,0,0,0,,0,99,99,38,1,ENGINE,LB,old,m,./images/ENGINELB.png,,,,,,,,,,,,,,,,,,,,,,,,,,,,,,,,,,,
,,,,,,,,,,,,,,,,,,26,2022-02-12_11h48.31.483,lexical_decision_task_DD_L4,2021.2.3,Win32,144.0299582,,,,,,,,,,,0.6201,1,,,,,,,,,,,,,,m,1,0.6201,,,,,,,,0.1,-0.209259259,0,0,0,,0,100,100,32,1,HOCKEY,LB,old,m,./images/HOCKEYLB.png,,,,,,,,,,,,,,,,,,,,,,,,,,,,,,,,,,,
,,,,,,,,,,,,,,,,,,26,2022-02-12_11h48.31.483,lexical_decision_task_DD_L4,2021.2.3,Win32,144.0299582,,,,,,,,,,,0.6191,1,,,,,,,,,,,,,,z,1,0.6191,,,,,,,,0.1,-0.209259259,0,0,0,,0,101,101,147,1,ZOLES,C,old,z,./images/ZOLES.png,,,,,,,,,,,,,,,,,,,,,,,,,,,,,,,,,,,
,,,,,,,,,,,,,,,,,,26,2022-02-12_11h48.31.483,lexical_decision_task_DD_L4,2021.2.3,Win32,144.0299582,,,,,,,,,,,0.6248,1,,,,,,,,,,,,,,m,1,0.6248,,,,,,,,0.1,-0.209259259,0,0,0,,0,102,102,39,1,CANDY,C,old,m,./images/CANDY.png,,,,,,,,,,,,,,,,,,,,,,,,,,,,,,,,,,,
,,,,,,,,,,,,,,,,,,26,2022-02-12_11h48.31.483,lexical_decision_task_DD_L4,2021.2.3,Win32,144.0299582,,,,,,,,,,,0.7086,1,,,,,,,,,,,,,,m,1,0.7086,,,,,,,,0.1,-0.209259259,0,0,0,,0,103,103,47,1,LAGOON,LB,old,m,./images/LAGOONLB.png,,,,,,,,,,,,,,,,,,,,,,,,,,,,,,,,,,,
,,,,,,,,,,,,,,,,,,26,2022-02-12_11h48.31.483,lexical_decision_task_DD_L4,2021.2.3,Win32,144.0299582,,,,,,,,,,,0.7296,1,,,,,,,,,,,,,,z,1,0.7296,,,,,,,,0.1,-0.209259259,0,0,0,,0,104,104,164,1,SGREW,LB,old,z,./images/SGREWLB.png,,,,,,,,,,,,,,,,,,,,,,,,,,,,,,,,,,,
,,,,,,,,,,,,,,,,,,26,2022-02-12_11h48.31.483,lexical_decision_task_DD_L4,2021.2.3,Win32,144.0299582,,,,,,,,,,,0.7633,1,,,,,,,,,,,,,,m,1,0.7633,,,,,,,,0.1,-0.209259259,0,0,0,,0,105,105,40,1,SNAKE,HB,old,m,./images/SNAKEHB.png,,,,,,,,,,,,,,,,,,,,,,,,,,,,,,,,,,,
,,,,,,,,,,,,,,,,,,26,2022-02-12_11h48.31.483,lexical_decision_task_DD_L4,2021.2.3,Win32,144.0299582,,,,,,,,,,,0.7359,1,,,,,,,,,,,,,,m,1,0.7359,,,,,,,,0.1,-0.209259259,0,0,0,,0,106,106,10,1,GARDEN,HB,old,m,./images/GARDENHB.png,,,,,,,,,,,,,,,,,,,,,,,,,,,,,,,,,,,
,,,,,,,,,,,,,,,,,,26,2022-02-12_11h48.31.483,lexical_decision_task_DD_L4,2021.2.3,Win32,144.0299582,,,,,,,,,,,0.6707,1,,,,,,,,,,,,,,m,1,0.6707,,,,,,,,0.1,-0.209259259,0,0,0,,0,107,107,25,1,CHALK,HB,old,m,./images/CHALKHB.png,,,,,,,,,,,,,,,,,,,,,,,,,,,,,,,,,,,
,,,,,,,,,,,,,,,,,,26,2022-02-12_11h48.31.483,lexical_decision_task_DD_L4,2021.2.3,Win32,144.0299582,,,,,,,,,,,0.7476,1,,,,,,,,,,,,,,z,1,0.7476,,,,,,,,0.1,-0.209259259,0,0,0,,0,108,108,90,1,NEAST,C,old,z,./images/NEAST.png,,,,,,,,,,,,,,,,,,,,,,,,,,,,,,,,,,,
,,,,,,,,,,,,,,,,,,26,2022-02-12_11h48.31.483,lexical_decision_task_DD_L4,2021.2.3,Win32,144.0299582,,,,,,,,,,,1.0941,1,,,,,,,,,,,,,,m,1,1.0941,,,,,,,,0.1,-0.209259259,0,0,0,,0,109,109,20,1,GRANNY,LB,old,m,./images/GRANNYLB.png,,,,,,,,,,,,,,,,,,,,,,,,,,,,,,,,,,,
,,,,,,,,,,,,,,,,,,26,2022-02-12_11h48.31.483,lexical_decision_task_DD_L4,2021.2.3,Win32,144.0299582,,,,,,,,,,,0.6206,1,,,,,,,,,,,,,,m,1,0.6206,,,,,,,,0.1,-0.209259259,0,0,0,,0,110,110,36,1,BOILER,C,old,m,./images/BOILER.png,,,,,,,,,,,,,,,,,,,,,,,,,,,,,,,,,,,
,,,,,,,,,,,,,,,,,,26,2022-02-12_11h48.31.483,lexical_decision_task_DD_L4,2021.2.3,Win32,144.0299582,,,,,,,,,,,0.5968,1,,,,,,,,,,,,,,z,1,0.5968,,,,,,,,0.1,-0.209259259,0,0,0,,0,111,111,143,1,MONGS,LB,old,z,./images/MONGSLB.png,,,,,,,,,,,,,,,,,,,,,,,,,,,,,,,,,,,
,,,,,,,,,,,,,,,,,,26,2022-02-12_11h48.31.483,lexical_decision_task_DD_L4,2021.2.3,Win32,144.0299582,,,,,,,,,,,0.8188,1,,,,,,,,,,,,,,m,1,0.8188,,,,,,,,0.1,-0.209259259,0,0,0,,0,112,112,46,1,MUMMY,HB,old,m,./images/MUMMYHB.png,,,,,,,,,,,,,,,,,,,,,,,,,,,,,,,,,,,
,,,,,,,,,,,,,,,,,,26,2022-02-12_11h48.31.483,lexical_decision_task_DD_L4,2021.2.3,Win32,144.0299582,,,,,,,,,,,0.9952,1,,,,,,,,,,,,,,m,1,0.9952,,,,,,,,0.1,-0.209259259,0,0,0,,0,113,113,7,1,WAGON,HB,old,m,./images/WAGONHB.png,,,,,,,,,,,,,,,,,,,,,,,,,,,,,,,,,,,
,,,,,,,,,,,,,,,,,,26,2022-02-12_11h48.31.483,lexical_decision_task_DD_L4,2021.2.3,Win32,144.0299582,,,,,,,,,,,0.7309,1,,,,,,,,,,,,,,m,1,0.7309,,,,,,,,0.1,-0.209259259,0,0,0,,0,114,114,14,1,FENCE,LB,old,m,./images/FENCELB.png,,,,,,,,,,,,,,,,,,,,,,,,,,,,,,,,,,,
,,,,,,,,,,,,,,,,,,26,2022-02-12_11h48.31.483,lexical_decision_task_DD_L4,2021.2.3,Win32,144.0299582,,,,,,,,,,,0.7218,1,,,,,,,,,,,,,,m,1,0.7218,,,,,,,,0.1,-0.209259259,0,0,0,,0,115,115,35,1,LLAMA,LB,old,m,./images/LLAMALB.png,,,,,,,,,,,,,,,,,,,,,,,,,,,,,,,,,,,
,,,,,,,,,,,,,,,,,,26,2022-02-12_11h48.31.483,lexical_decision_task_DD_L4,2021.2.3,Win32,144.0299582,,,,,,,,,,,0.6249,1,,,,,,,,,,,,,,z,1,0.6249,,,,,,,,0.1,-0.209259259,0,0,0,,0,116,116,131,1,NACES,LB,old,z,./images/NACESLB.png,,,,,,,,,,,,,,,,,,,,,,,,,,,,,,,,,,,
,,,,,,,,,,,,,,,,,,26,2022-02-12_11h48.31.483,lexical_decision_task_DD_L4,2021.2.3,Win32,144.0299582,,,,,,,,,,,1.0159,1,,,,,,,,,,,,,,z,1,1.0159,,,,,,,,0.1,-0.209259259,0,0,0,,0,117,117,100,1,DRIBS,HB,old,z,./images/DRIBSHB.png,,,,,,,,,,,,,,,,,,,,,,,,,,,,,,,,,,,
,,,,,,,,,,,,,,,,,,26,2022-02-12_11h48.31.483,lexical_decision_task_DD_L4,2021.2.3,Win32,144.0299582,,,,,,,,,,,0.8096,1,,,,,,,,,,,,,,m,1,0.8096,,,,,,,,0.1,-0.209259259,0,0,0,,0,118,118,3,1,CRATER,C,old,m,./images/CRATER.png,,,,,,,,,,,,,,,,,,,,,,,,,,,,,,,,,,,
,,,,,,,,,,,,,,,,,,26,2022-02-12_11h48.31.483,lexical_decision_task_DD_L4,2021.2.3,Win32,144.0299582,,,,,,,,,,,0.9115,1,,,,,,,,,,,,,,m,1,0.9115,,,,,,,,0.1,-0.209259259,0,0,0,,0,119,119,79,1,RULER,HB,old,m,./images/RULERHB.png,,,,,,,,,,,,,,,,,,,,,,,,,,,,,,,,,,,
,,,,,,,,,,,,,,,,,,26,2022-02-12_11h48.31.483,lexical_decision_task_DD_L4,2021.2.3,Win32,144.0299582,,,,,,,,,,,0.6515,1,,,,,,,,,,,,,,z,1,0.6515,,,,,,,,0.1,-0.209259259,0,0,0,,0,120,120,92,1,PAIMS,LB,old,z,./images/PAIMSLB.png,,,,,,,,,,,,,,,,,,,,,,,,,,,,,,,,,,,
,,,,,,,,,,,,,,,,,,26,2022-02-12_11h48.31.483,lexical_decision_task_DD_L4,2021.2.3,Win32,144.0299582,,,,,,,,,,,1.0067,1,,,,,,,,,,,,,,z,1,1.0067,,,,,,,,0.1,-0.209259259,0,0,0,,0,121,121,109,1,BURGE,HB,old,z,./images/BURGEHB.png,,,,,,,,,,,,,,,,,,,,,,,,,,,,,,,,,,,
,,,,,,,,,,,,,,,,,,26,2022-02-12_11h48.31.483,lexical_decision_task_DD_L4,2021.2.3,Win32,144.0299582,,,,,,,,,,,1.1737,1,,,,,,,,,,,,,,z,1,1.1737,,,,,,,,0.1,-0.209259259,0,0,0,,0,122,122,148,1,JOMS,HB,old,z,./images/JOMSHB.png,,,,,,,,,,,,,,,,,,,,,,,,,,,,,,,,,,,
,,,,,,,,,,,,,,,,,,26,2022-02-12_11h48.31.483,lexical_decision_task_DD_L4,2021.2.3,Win32,144.0299582,,,,,,,,,,,0.6506,1,,,,,,,,,,,,,,m,1,0.6506,,,,,,,,0.1,-0.209259259,0,0,0,,0,123,123,75,1,HAMMER,C,old,m,./images/HAMMER.png,,,,,,,,,,,,,,,,,,,,,,,,,,,,,,,,,,,
,,,,,,,,,,,,,,,,,,26,2022-02-12_11h48.31.483,lexical_decision_task_DD_L4,2021.2.3,Win32,144.0299582,,,,,,,,,,,0.6777,1,,,,,,,,,,,,,,m,1,0.6777,,,,,,,,0.1,-0.209259259,0,0,0,,0,124,124,57,1,FERRY,C,old,m,./images/FERRY.png,,,,,,,,,,,,,,,,,,,,,,,,,,,,,,,,,,,
,,,,,,,,,,,,,,,,,,26,2022-02-12_11h48.31.483,lexical_decision_task_DD_L4,2021.2.3,Win32,144.0299582,,,,,,,,,,,0.7033,1,,,,,,,,,,,,,,m,1,0.7033,,,,,,,,0.1,-0.209259259,0,0,0,space,0,125,125,70,1,BANANA,HB,old,m,./images/BANANAHB.png,6.1201,,,,,,,,,,,,,,,,,,,,,,,,,,,,,,,,,,
,,,,,,,,,,,,,,,,,,26,2022-02-12_11h48.31.483,lexical_decision_task_DD_L4,2021.2.3,Win32,144.0299582,,,,,,,,,,,0.7353,1,,,,,,,,,,,,,,m,1,0.7353,,,,,,,,0.1,-0.209259259,0,0,0,,0,126,126,16,1,GRAPE,HB,old,m,./images/GRAPEHB.png,,,,,,,,,,,,,,,,,,,,,,,,,,,,,,,,,,,
,,,,,,,,,,,,,,,,,,26,2022-02-12_11h48.31.483,lexical_decision_task_DD_L4,2021.2.3,Win32,144.0299582,,,,,,,,,,,0.715,1,,,,,,,,,,,,,,m,1,0.715,,,,,,,,0.1,-0.209259259,0,0,0,,0,127,127,9,1,DIVER,C,old,m,./images/DIVER.png,,,,,,,,,,,,,,,,,,,,,,,,,,,,,,,,,,,
,,,,,,,,,,,,,,,,,,26,2022-02-12_11h48.31.483,lexical_decision_task_DD_L4,2021.2.3,Win32,144.0299582,,,,,,,,,,,0.5987,1,,,,,,,,,,,,,,z,1,0.5987,,,,,,,,0.1,-0.209259259,0,0,0,,0,128,128,114,1,RIKES,C,old,z,./images/RIKES.png,,,,,,,,,,,,,,,,,,,,,,,,,,,,,,,,,,,
,,,,,,,,,,,,,,,,,,26,2022-02-12_11h48.31.483,lexical_decision_task_DD_L4,2021.2.3,Win32,144.0299582,,,,,,,,,,,0.7048,1,,,,,,,,,,,,,,z,1,0.7048,,,,,,,,0.1,-0.209259259,0,0,0,,0,129,129,129,1,PRANS,C,old,z,./images/PRANS.png,,,,,,,,,,,,,,,,,,,,,,,,,,,,,,,,,,,
,,,,,,,,,,,,,,,,,,26,2022-02-12_11h48.31.483,lexical_decision_task_DD_L4,2021.2.3,Win32,144.0299582,,,,,,,,,,,0.644,1,,,,,,,,,,,,,,m,1,0.644,,,,,,,,0.1,-0.209259259,0,0,0,,0,130,130,48,1,SHIELD,C,old,m,./images/SHIELD.png,,,,,,,,,,,,,,,,,,,,,,,,,,,,,,,,,,,
,,,,,,,,,,,,,,,,,,26,2022-02-12_11h48.31.483,lexical_decision_task_DD_L4,2021.2.3,Win32,144.0299582,,,,,,,,,,,0.5877,1,,,,,,,,,,,,,,m,1,0.5877,,,,,,,,0.1,-0.209259259,0,0,0,,0,131,131,81,1,DRILL,C,old,m,./images/DRILL.png,,,,,,,,,,,,,,,,,,,,,,,,,,,,,,,,,,,
,,,,,,,,,,,,,,,,,,26,2022-02-12_11h48.31.483,lexical_decision_task_DD_L4,2021.2.3,Win32,144.0299582,,,,,,,,,,,0.5794,1,,,,,,,,,,,,,,m,1,0.5794,,,,,,,,0.1,-0.209259259,0,0,0,,0,132,132,22,1,CLOWN,HB,old,m,./images/CLOWNHB.png,,,,,,,,,,,,,,,,,,,,,,,,,,,,,,,,,,,
,,,,,,,,,,,,,,,,,,26,2022-02-12_11h48.31.483,lexical_decision_task_DD_L4,2021.2.3,Win32,144.0299582,,,,,,,,,,,1.0259,1,,,,,,,,,,,,,,z,1,1.0259,,,,,,,,0.1,-0.209259259,0,0,0,,0,133,133,84,1,HAXES,C,old,z,./images/HAXES.png,,,,,,,,,,,,,,,,,,,,,,,,,,,,,,,,,,,
,,,,,,,,,,,,,,,,,,26,2022-02-12_11h48.31.483,lexical_decision_task_DD_L4,2021.2.3,Win32,144.0299582,,,,,,,,,,,0.8442,1,,,,,,,,,,,,,,z,1,0.8442,,,,,,,,0.1,-0.209259259,0,0,0,,0,134,134,99,1,BACKY,C,old,z,./images/BACKY.png,,,,,,,,,,,,,,,,,,,,,,,,,,,,,,,,,,,
,,,,,,,,,,,,,,,,,,26,2022-02-12_11h48.31.483,lexical_decision_task_DD_L4,2021.2.3,Win32,144.0299582,,,,,,,,,,,1.6291,1,,,,,,,,,,,,,,m,1,1.6291,,,,,,,,0.1,-0.209259259,0,0,0,,0,135,135,64,1,BRIDE,HB,old,m,./images/BRIDEHB.png,,,,,,,,,,,,,,,,,,,,,,,,,,,,,,,,,,,
,,,,,,,,,,,,,,,,,,26,2022-02-12_11h48.31.483,lexical_decision_task_DD_L4,2021.2.3,Win32,144.0299582,,,,,,,,,,,0.7677,1,,,,,,,,,,,,,,m,1,0.7677,,,,,,,,0.1,-0.209259259,0,0,0,,0,136,136,28,1,CASINO,HB,old,m,./images/CASINOHB.png,,,,,,,,,,,,,,,,,,,,,,,,,,,,,,,,,,,
,,,,,,,,,,,,,,,,,,26,2022-02-12_11h48.31.483,lexical_decision_task_DD_L4,2021.2.3,Win32,144.0299582,,,,,,,,,,,1.0119,1,,,,,,,,,,,,,,z,1,1.0119,,,,,,,,0.1,-0.209259259,0,0,0,,0,137,137,161,1,BLAPS,LB,old,z,./images/BLAPSLB.png,,,,,,,,,,,,,,,,,,,,,,,,,,,,,,,,,,,
,,,,,,,,,,,,,,,,,,26,2022-02-12_11h48.31.483,lexical_decision_task_DD_L4,2021.2.3,Win32,144.0299582,,,,,,,,,,,1.3126,1,,,,,,,,,,,,,,z,1,1.3126,,,,,,,,0.1,-0.209259259,0,0,0,,0,138,138,127,1,NINDY,HB,old,z,./images/NINDYHB.png,,,,,,,,,,,,,,,,,,,,,,,,,,,,,,,,,,,
,,,,,,,,,,,,,,,,,,26,2022-02-12_11h48.31.483,lexical_decision_task_DD_L4,2021.2.3,Win32,144.0299582,,,,,,,,,,,0.6567,1,,,,,,,,,,,,,,m,1,0.6567,,,,,,,,0.1,-0.209259259,0,0,0,,0,139,139,68,1,VALLEY,LB,old,m,./images/VALLEYLB.png,,,,,,,,,,,,,,,,,,,,,,,,,,,,,,,,,,,
,,,,,,,,,,,,,,,,,,26,2022-02-12_11h48.31.483,lexical_decision_task_DD_L4,2021.2.3,Win32,144.0299582,,,,,,,,,,,1.2162,1,,,,,,,,,,,,,,z,1,1.2162,,,,,,,,0.1,-0.209259259,0,0,0,,0,140,140,166,1,SHORY,HB,old,z,./images/SHORYHB.png,,,,,,,,,,,,,,,,,,,,,,,,,,,,,,,,,,,
,,,,,,,,,,,,,,,,,,26,2022-02-12_11h48.31.483,lexical_decision_task_DD_L4,2021.2.3,Win32,144.0299582,,,,,,,,,,,0.6753,1,,,,,,,,,,,,,,m,1,0.6753,,,,,,,,0.1,-0.209259259,0,0,0,,0,141,141,60,1,CURRY,C,old,m,./images/CURRY.png,,,,,,,,,,,,,,,,,,,,,,,,,,,,,,,,,,,
,,,,,,,,,,,,,,,,,,26,2022-02-12_11h48.31.483,lexical_decision_task_DD_L4,2021.2.3,Win32,144.0299582,,,,,,,,,,,0.7209,1,,,,,,,,,,,,,,z,1,0.7209,,,,,,,,0.1,-0.209259259,0,0,0,,0,142,142,137,1,JOOST,LB,old,z,./images/JOOSTLB.png,,,,,,,,,,,,,,,,,,,,,,,,,,,,,,,,,,,
,,,,,,,,,,,,,,,,,,26,2022-02-12_11h48.31.483,lexical_decision_task_DD_L4,2021.2.3,Win32,144.0299582,,,,,,,,,,,0.8146,1,,,,,,,,,,,,,,m,1,0.8146,,,,,,,,0.1,-0.209259259,0,0,0,,0,143,143,19,1,DONKEY,HB,old,m,./images/DONKEYHB.png,,,,,,,,,,,,,,,,,,,,,,,,,,,,,,,,,,,
,,,,,,,,,,,,,,,,,,26,2022-02-12_11h48.31.483,lexical_decision_task_DD_L4,2021.2.3,Win32,144.0299582,,,,,,,,,,,0.6545,1,,,,,,,,,,,,,,m,1,0.6545,,,,,,,,0.1,-0.209259259,0,0,0,,0,144,144,63,1,BAKER,C,old,m,./images/BAKER.png,,,,,,,,,,,,,,,,,,,,,,,,,,,,,,,,,,,
,,,,,,,,,,,,,,,,,,26,2022-02-12_11h48.31.483,lexical_decision_task_DD_L4,2021.2.3,Win32,144.0299582,,,,,,,,,,,1.0906,1,,,,,,,,,,,,,,z,1,1.0906,,,,,,,,0.1,-0.209259259,0,0,0,,0,145,145,154,1,THINT,HB,old,z,./images/THINTHB.png,,,,,,,,,,,,,,,,,,,,,,,,,,,,,,,,,,,
,,,,,,,,,,,,,,,,,,26,2022-02-12_11h48.31.483,lexical_decision_task_DD_L4,2021.2.3,Win32,144.0299582,,,,,,,,,,,0.74,1,,,,,,,,,,,,,,z,1,0.74,,,,,,,,0.1,-0.209259259,0,0,0,,0,146,146,108,1,GRUET,C,old,z,./images/GRUET.png,,,,,,,,,,,,,,,,,,,,,,,,,,,,,,,,,,,
,,,,,,,,,,,,,,,,,,26,2022-02-12_11h48.31.483,lexical_decision_task_DD_L4,2021.2.3,Win32,144.0299582,,,,,,,,,,,0.652,1,,,,,,,,,,,,,,m,1,0.652,,,,,,,,0.1,-0.209259259,0,0,0,,0,147,147,50,1,PILOT,LB,old,m,./images/PILOTLB.png,,,,,,,,,,,,,,,,,,,,,,,,,,,,,,,,,,,
,,,,,,,,,,,,,,,,,,26,2022-02-12_11h48.31.483,lexical_decision_task_DD_L4,2021.2.3,Win32,144.0299582,,,,,,,,,,,0.6635,1,,,,,,,,,,,,,,z,1,0.6635,,,,,,,,0.1,-0.209259259,0,0,0,,0,148,148,125,1,MOOKY,LB,old,z,./images/MOOKYLB.png,,,,,,,,,,,,,,,,,,,,,,,,,,,,,,,,,,,
,,,,,,,,,,,,,,,,,,26,2022-02-12_11h48.31.483,lexical_decision_task_DD_L4,2021.2.3,Win32,144.0299582,,,,,,,,,,,0.5643,1,,,,,,,,,,,,,,m,1,0.5643,,,,,,,,0.1,-0.209259259,0,0,0,,0,149,149,42,1,CHAIN,C,old,m,./images/CHAIN.png,,,,,,,,,,,,,,,,,,,,,,,,,,,,,,,,,,,
,,,,,,,,,,,,,,,,,,26,2022-02-12_11h48.31.483,lexical_decision_task_DD_L4,2021.2.3,Win32,144.0299582,,,,,,,,,,,0.6067,1,,,,,,,,,,,,,,z,1,0.6067,,,,,,,,0.1,-0.209259259,0,0,0,,0,150,150,96,1,KEAMS,C,old,z,./images/KEAMS.png,,,,,,,,,,,,,,,,,,,,,,,,,,,,,,,,,,,
,,,,,,,,,,,,,,,,,,26,2022-02-12_11h48.31.483,lexical_decision_task_DD_L4,2021.2.3,Win32,144.0299582,,,,,,,,,,,0.9322,1,,,,,,,,,,,,,,z,1,0.9322,,,,,,,,0.1,-0.209259259,0,0,0,,0,151,151,94,1,BLANS,HB,old,z,./images/BLANSHB.png,,,,,,,,,,,,,,,,,,,,,,,,,,,,,,,,,,,
,,,,,,,,,,,,,,,,,,26,2022-02-12_11h48.31.483,lexical_decision_task_DD_L4,2021.2.3,Win32,144.0299582,,,,,,,,,,,0.7292,1,,,,,,,,,,,,,,m,1,0.7292,,,,,,,,0.1,-0.209259259,0,0,0,,0,152,152,55,1,ALLEY,HB,old,m,./images/ALLEYHB.png,,,,,,,,,,,,,,,,,,,,,,,,,,,,,,,,,,,
,,,,,,,,,,,,,,,,,,26,2022-02-12_11h48.31.483,lexical_decision_task_DD_L4,2021.2.3,Win32,144.0299582,,,,,,,,,,,0.782,1,,,,,,,,,,,,,,m,1,0.782,,,,,,,,0.1,-0.209259259,0,0,0,,0,153,153,74,1,JUMPER,LB,old,m,./images/JUMPERLB.png,,,,,,,,,,,,,,,,,,,,,,,,,,,,,,,,,,,
,,,,,,,,,,,,,,,,,,26,2022-02-12_11h48.31.483,lexical_decision_task_DD_L4,2021.2.3,Win32,144.0299582,,,,,,,,,,,0.6939,1,,,,,,,,,,,,,,m,1,0.6939,,,,,,,,0.1,-0.209259259,0,0,0,,0,154,154,5,1,BAMBOO,LB,old,m,./images/BAMBOOLB.png,,,,,,,,,,,,,,,,,,,,,,,,,,,,,,,,,,,
,,,,,,,,,,,,,,,,,,26,2022-02-12_11h48.31.483,lexical_decision_task_DD_L4,2021.2.3,Win32,144.0299582,,,,,,,,,,,1.21,1,,,,,,,,,,,,,,z,1,1.21,,,,,,,,0.1,-0.209259259,0,0,0,,0,155,155,163,1,GAMBA,HB,old,z,./images/GAMBAHB.png,,,,,,,,,,,,,,,,,,,,,,,,,,,,,,,,,,,
,,,,,,,,,,,,,,,,,,26,2022-02-12_11h48.31.483,lexical_decision_task_DD_L4,2021.2.3,Win32,144.0299582,,,,,,,,,,,0.8796,1,,,,,,,,,,,,,,z,1,0.8796,,,,,,,,0.1,-0.209259259,0,0,0,,0,156,156,111,1,HOSSE,C,old,z,./images/HOSSE.png,,,,,,,,,,,,,,,,,,,,,,,,,,,,,,,,,,,
,,,,,,,,,,,,,,,,,,26,2022-02-12_11h48.31.483,lexical_decision_task_DD_L4,2021.2.3,Win32,144.0299582,,,,,,,,,,,0.6707,1,,,,,,,,,,,,,,m,1,0.6707,,,,,,,,0.1,-0.209259259,0,0,0,,0,157,157,77,1,WHEEL,LB,old,m,./images/WHEELLB.png,,,,,,,,,,,,,,,,,,,,,,,,,,,,,,,,,,,
,,,,,,,,,,,,,,,,,,26,2022-02-12_11h48.31.483,lexical_decision_task_DD_L4,2021.2.3,Win32,144.0299582,,,,,,,,,,,0.6104,1,,,,,,,,,,,,,,m,1,0.6104,,,,,,,,0.1,-0.209259259,0,0,0,,0,158,158,24,1,FLESH,C,old,m,./images/FLESH.png,,,,,,,,,,,,,,,,,,,,,,,,,,,,,,,,,,,
,,,,,,,,,,,,,,,,,,26,2022-02-12_11h48.31.483,lexical_decision_task_DD_L4,2021.2.3,Win32,144.0299582,,,,,,,,,,,0.7114,1,,,,,,,,,,,,,,z,1,0.7114,,,,,,,,0.1,-0.209259259,0,0,0,,0,159,159,120,1,RINED,C,old,z,./images/RINED.png,,,,,,,,,,,,,,,,,,,,,,,,,,,,,,,,,,,
,,,,,,,,,,,,,,,,,,26,2022-02-12_11h48.31.483,lexical_decision_task_DD_L4,2021.2.3,Win32,144.0299582,,,,,,,,,,,0.6751,1,,,,,,,,,,,,,,m,1,0.6751,,,,,,,,0.1,-0.209259259,0,0,0,,0,160,160,30,1,SLOPE,C,old,m,./images/SLOPE.png,,,,,,,,,,,,,,,,,,,,,,,,,,,,,,,,,,,
,,,,,,,,,,,,,,,,,,26,2022-02-12_11h48.31.483,lexical_decision_task_DD_L4,2021.2.3,Win32,144.0299582,,,,,,,,,,,0.5709,1,,,,,,,,,,,,,,z,1,0.5709,,,,,,,,0.1,-0.209259259,0,0,0,,0,161,161,105,1,MOKER,C,old,z,./images/MOKER.png,,,,,,,,,,,,,,,,,,,,,,,,,,,,,,,,,,,
,,,,,,,,,,,,,,,,,,26,2022-02-12_11h48.31.483,lexical_decision_task_DD_L4,2021.2.3,Win32,144.0299582,,,,,,,,,,,1.164,0,,,,,,,,,,,,,,m,0,1.164,,,,,,,,0.1,-0.209259259,0,0,0,,0,162,162,139,1,BLEAR,HB,old,z,./images/BLEARHB.png,,,,,,,,,,,,,,,,,,,,,,,,,,,,,,,,,,,
,,,,,,,,,,,,,,,,,,26,2022-02-12_11h48.31.483,lexical_decision_task_DD_L4,2021.2.3,Win32,144.0299582,,,,,,,,,,,1.0352,1,,,,,,,,,,,,,,z,1,1.0352,,,,,,,,0.1,-0.209259259,0,0,0,,0,163,163,112,1,MYING,HB,old,z,./images/MYINGHB.png,,,,,,,,,,,,,,,,,,,,,,,,,,,,,,,,,,,
,,,,,,,,,,,,,,,,,,26,2022-02-12_11h48.31.483,lexical_decision_task_DD_L4,2021.2.3,Win32,144.0299582,,,,,,,,,,,0.6482,1,,,,,,,,,,,,,,m,1,0.6482,,,,,,,,0.1,-0.209259259,0,0,0,,0,164,164,65,1,SPINE,LB,old,m,./images/SPINELB.png,,,,,,,,,,,,,,,,,,,,,,,,,,,,,,,,,,,
,,,,,,,,,,,,,,,,,,26,2022-02-12_11h48.31.483,lexical_decision_task_DD_L4,2021.2.3,Win32,144.0299582,,,,,,,,,,,1.0364,1,,,,,,,,,,,,,,z,1,1.0364,,,,,,,,0.1,-0.209259259,0,0,0,,0,165,165,104,1,GITTY,LB,old,z,./images/GITTYLB.png,,,,,,,,,,,,,,,,,,,,,,,,,,,,,,,,,,,
,,,,,,,,,,,,,,,,,,26,2022-02-12_11h48.31.483,lexical_decision_task_DD_L4,2021.2.3,Win32,144.0299582,,,,,,,,,,,0.9216,1,,,,,,,,,,,,,,z,1,0.9216,,,,,,,,0.1,-0.209259259,0,0,0,,0,166,166,123,1,SEDGE,C,old,z,./images/SEDGE.png,,,,,,,,,,,,,,,,,,,,,,,,,,,,,,,,,,,
,,,,,,,,,,,,,,,,,,26,2022-02-12_11h48.31.483,lexical_decision_task_DD_L4,2021.2.3,Win32,144.0299582,,,,,,,,,,,1.8235,1,,,,,,,,,,,,,,z,1,1.8235,,,,,,,,0.1,-0.209259259,0,0,0,,0,167,167,145,1,LAMEL,HB,old,z,./images/LAMELHB.png,,,,,,,,,,,,,,,,,,,,,,,,,,,,,,,,,,,
,,,,,,,,,,,,,,,,,,26,2022-02-12_11h48.31.483,lexical_decision_task_DD_L4,2021.2.3,Win32,144.0299582,,,,,,,,,,,,,,,,,,,,,,,,,,,,,,,,,,,,,,,,,,,,,,,,How likely will it be that you will recognize the words presented clearly on a scale of 0 (not likely) to 100 (most likely)?,,,,,0.016666667,-0.405555556,1,0,0,jol_adv,6,7.4382,0,0,0,0,1,,,,,,,,,,,,,,,,,,,,,
,,,,,,,,,,,,,,,,,,26,2022-02-12_11h48.31.483,lexical_decision_task_DD_L4,2021.2.3,Win32,144.0299582,,,,,,,,,,,,,,,,,,,,,,,,,,,,,,,,,,,,,,,,,,,,,,,,How likely will it be that you will recognize the words presented very blurred on a scale of 0 (not likely) to 100 (most likely)?,,,,,,,,,,,4,14.7587,0,1,1,2,1,,,,,,,,,,,,,,,,,,,,,
,,,,,,,,,,,,,,,,,,26,2022-02-12_11h48.31.483,lexical_decision_task_DD_L4,2021.2.3,Win32,144.0299582,,,,,,,,,,,,,,,,,,,,,,,,,,,,,,,,,,,,,,,,,,,,,,,,How likely will it be that you will recognize the words presented slighly blurred on a scale of 0 (not likely) to 100 (most likely)?,,,,,,,,,,,6,3.6532,0,2,2,1,1,,,,,,,,,,,,,,,,,,,,,
,,0.074074074,-0.382407407,1,0,0,,,,,,1,test,"In the next phase you will be presented with the words from the the first phase. Your job is to decide whether you remember seeing the word or not. If you remember seeing the word press ""old"" or type ""m"". If you do not remember seeing the word press ""new"" or type ""z"". Please press the space bar or click on continue to begin. ",,,,26,2022-02-12_11h48.31.483,lexical_decision_task_DD_L4,2021.2.3,Win32,144.0299582,,,,,,,,,,,,,,,,,,,,,,,,,,,,,,,,,,,,,,,,,,,,,,,,,,,,,,,,,,,,,,,,,,instr_done_button,0,0,0,0,1,,,,,,,,,,,,,,,
space,2.7015,0.52037037,-0.222222222,0,0,0,,,,,,1,test,"In the next phase you will be presented with the words from the the first phase. Your job is to decide whether you remember seeing the word or not. If you remember seeing the word press ""old"" or type ""m"". If you do not remember seeing the word press ""new"" or type ""z"". Please press the space bar or click on continue to begin. ",,,,26,2022-02-12_11h48.31.483,lexical_decision_task_DD_L4,2021.2.3,Win32,144.0299582,,,,,,,,,,,,,,,,,,,,,,,,,,,,,,,,,,,,,,,,,,,,,,,,,,,,,,,,,,,,,,,,,,,1,0,1,0,1,,,,,,,,,,,,,,,
,,-0.042592593,-0.384259259,1,0,0,,,,,,1,test,"In the next phase you will be presented with the words from the the first phase. Your job is to decide whether you remember seeing the word or not. If you remember seeing the word press ""old"" or type ""m"". If you do not remember seeing the word press ""new"" or type ""z"". Please press the space bar or click on continue to begin. ",,,,26,2022-02-12_11h48.31.483,lexical_decision_task_DD_L4,2021.2.3,Win32,144.0299582,,,,,,,,,,,,,,,,,,,,,,,,,,,,,,,,,,,,,,,,,,,,,,,,,,,,,,,,,,,,,,,,,,instr_done_button,2,0,2,0,1,,,,,,,,,,,,,,,
,,-0.039814815,-0.393518519,1,0,0,,,,,,1,test,"In the next phase you will be presented with the words from the the first phase. Your job is to decide whether you remember seeing the word or not. If you remember seeing the word press ""old"" or type ""m"". If you do not remember seeing the word press ""new"" or type ""z"". Please press the space bar or click on continue to begin. ",,,,26,2022-02-12_11h48.31.483,lexical_decision_task_DD_L4,2021.2.3,Win32,144.0299582,,,,,,,,,,,,,,,,,,,,,,,,,,,,,,,,,,,,,,,,,,,,,,,,,,,,,,,,,,,,,,,,,,instr_done_button,3,0,3,0,1,,,,,,,,,,,,,,,
,,-0.031481481,-0.40462963,1,0,0,,,,,,1,test,"In the next phase you will be presented with the words from the the first phase. Your job is to decide whether you remember seeing the word or not. If you remember seeing the word press ""old"" or type ""m"". If you do not remember seeing the word press ""new"" or type ""z"". Please press the space bar or click on continue to begin. ",,,,26,2022-02-12_11h48.31.483,lexical_decision_task_DD_L4,2021.2.3,Win32,144.0299582,,,,,,,,,,,,,,,,,,,,,,,,,,,,,,,,,,,,,,,,,,,,,,,,,,,,,,,,,,,,,,,,,,instr_done_button,4,0,4,0,1,,,,,,,,,,,,,,,
,,,,,,,,,,,,,,,,,,26,2022-02-12_11h48.31.483,lexical_decision_task_DD_L4,2021.2.3,Win32,144.0299582,,,,,,,,,,,2.6152,1,,,,,,,,,,,,,,,,,,,,,,,,0.508333333,-0.181481481,0,0,0,,,,,,,BOILER,C,m,y,./images/BOILER.png,,,,,,,,,,,,,,,,,,,,,m,1,2.6152,,,,,,,,0,0,0,36,1
,,,,,,,,,,,,,,,,,,26,2022-02-12_11h48.31.483,lexical_decision_task_DD_L4,2021.2.3,Win32,144.0299582,,,,,,,,,,,1.8226,1,,,,,,,,,,,,,,,,,,,,,,,,0.508333333,-0.181481481,0,0,0,,,,,,,PLANET,LB,m,y,./images/PLANETLB.png,,,,,,,,,,,,,,,,,,,,,m,1,1.8226,,,,,,,,0,1,1,80,1
,,,,,,,,,,,,,,,,,,26,2022-02-12_11h48.31.483,lexical_decision_task_DD_L4,2021.2.3,Win32,144.0299582,,,,,,,,,,,0.9588,1,,,,,,,,,,,,,,,,,,,,,,,,0.508333333,-0.181481481,0,0,0,,,,,,,CEMENT,LB,z,y,./images/CEMENTLB.png,,,,,,,,,,,,,,,,,,,,,z,1,0.9588,,,,,,,,0,2,2,158,1
,,,,,,,,,,,,,,,,,,26,2022-02-12_11h48.31.483,lexical_decision_task_DD_L4,2021.2.3,Win32,144.0299582,,,,,,,,,,,0.94,1,,,,,,,,,,,,,,,,,,,,,,,,0.508333333,-0.181481481,0,0,0,,,,,,,STOVE,LB,m,y,./images/STOVELB.png,,,,,,,,,,,,,,,,,,,,,m,1,0.94,,,,,,,,0,3,3,2,1
,,,,,,,,,,,,,,,,,,26,2022-02-12_11h48.31.483,lexical_decision_task_DD_L4,2021.2.3,Win32,144.0299582,,,,,,,,,,,0.9936,1,,,,,,,,,,,,,,,,,,,,,,,,0.508333333,-0.181481481,0,0,0,,,,,,,BLOKE,C,m,y,./images/BLOKE.png,,,,,,,,,,,,,,,,,,,,,m,1,0.9936,,,,,,,,0,4,4,12,1
,,,,,,,,,,,,,,,,,,26,2022-02-12_11h48.31.483,lexical_decision_task_DD_L4,2021.2.3,Win32,144.0299582,,,,,,,,,,,0.802,1,,,,,,,,,,,,,,,,,,,,,,,,0.508333333,-0.181481481,0,0,0,,,,,,,TRIPOD,C,z,y,./images/TRIPOD.png,,,,,,,,,,,,,,,,,,,,,z,1,0.802,,,,,,,,0,5,5,138,1
,,,,,,,,,,,,,,,,,,26,2022-02-12_11h48.31.483,lexical_decision_task_DD_L4,2021.2.3,Win32,144.0299582,,,,,,,,,,,2.545,0,,,,,,,,,,,,,,,,,,,,,,,,0.508333333,-0.181481481,0,0,0,,,,,,,GLOVE,HB,m,y,./images/GLOVEHB.png,,,,,,,,,,,,,,,,,,,,,z,0,2.545,,,,,,,,0,6,6,73,1
,,,,,,,,,,,,,,,,,,26,2022-02-12_11h48.31.483,lexical_decision_task_DD_L4,2021.2.3,Win32,144.0299582,,,,,,,,,,,0.8421,1,,,,,,,,,,,,,,,,,,,,,,,,0.508333333,-0.181481481,0,0,0,,,,,,,MELON,HB,z,y,./images/MELONHB.png,,,,,,,,,,,,,,,,,,,,,z,1,0.8421,,,,,,,,0,7,7,106,1
,,,,,,,,,,,,,,,,,,26,2022-02-12_11h48.31.483,lexical_decision_task_DD_L4,2021.2.3,Win32,144.0299582,,,,,,,,,,,1.1056,1,,,,,,,,,,,,,,,,,,,,,,,,0.508333333,-0.181481481,0,0,0,,,,,,,STEAK,HB,m,y,./images/STEAKHB.png,,,,,,,,,,,,,,,,,,,,,m,1,1.1056,,,,,,,,0,8,8,31,1
,,,,,,,,,,,,,,,,,,26,2022-02-12_11h48.31.483,lexical_decision_task_DD_L4,2021.2.3,Win32,144.0299582,,,,,,,,,,,0.7625,1,,,,,,,,,,,,,,,,,,,,,,,,0.508333333,-0.181481481,0,0,0,,,,,,,BAKER,C,m,y,./images/BAKER.png,,,,,,,,,,,,,,,,,,,,,m,1,0.7625,,,,,,,,0,9,9,63,1
,,,,,,,,,,,,,,,,,,26,2022-02-12_11h48.31.483,lexical_decision_task_DD_L4,2021.2.3,Win32,144.0299582,,,,,,,,,,,0.7029,1,,,,,,,,,,,,,,,,,,,,,,,,0.508333333,-0.181481481,0,0,0,,,,,,,BOXER,HB,m,y,./images/BOXERHB.png,,,,,,,,,,,,,,,,,,,,,m,1,0.7029,,,,,,,,0,10,10,4,1
,,,,,,,,,,,,,,,,,,26,2022-02-12_11h48.31.483,lexical_decision_task_DD_L4,2021.2.3,Win32,144.0299582,,,,,,,,,,,0.9435,1,,,,,,,,,,,,,,,,,,,,,,,,0.508333333,-0.181481481,0,0,0,,,,,,,BURIAL,LB,z,y,./images/BURIALLB.png,,,,,,,,,,,,,,,,,,,,,z,1,0.9435,,,,,,,,0,11,11,143,1
,,,,,,,,,,,,,,,,,,26,2022-02-12_11h48.31.483,lexical_decision_task_DD_L4,2021.2.3,Win32,144.0299582,,,,,,,,,,,1.2361,1,,,,,,,,,,,,,,,,,,,,,,,,0.508333333,-0.181481481,0,0,0,,,,,,,KIDNEY,C,z,y,./images/KIDNEY.png,,,,,,,,,,,,,,,,,,,,,z,1,1.2361,,,,,,,,0,12,12,105,1
,,,,,,,,,,,,,,,,,,26,2022-02-12_11h48.31.483,lexical_decision_task_DD_L4,2021.2.3,Win32,144.0299582,,,,,,,,,,,0.9098,1,,,,,,,,,,,,,,,,,,,,,,,,0.508333333,-0.181481481,0,0,0,,,,,,,FALCON,HB,z,y,./images/FALCONHB.png,,,,,,,,,,,,,,,,,,,,,z,1,0.9098,,,,,,,,0,13,13,112,1
,,,,,,,,,,,,,,,,,,26,2022-02-12_11h48.31.483,lexical_decision_task_DD_L4,2021.2.3,Win32,144.0299582,,,,,,,,,,,0.9819,1,,,,,,,,,,,,,,,,,,,,,,,,0.508333333,-0.181481481,0,0,0,,,,,,,SWING,HB,z,y,./images/SWINGHB.png,,,,,,,,,,,,,,,,,,,,,z,1,0.9819,,,,,,,,0,14,14,124,1
,,,,,,,,,,,,,,,,,,26,2022-02-12_11h48.31.483,lexical_decision_task_DD_L4,2021.2.3,Win32,144.0299582,,,,,,,,,,,0.78,1,,,,,,,,,,,,,,,,,,,,,,,,0.508333333,-0.181481481,0,0,0,,,,,,,DOUGH,HB,z,y,./images/DOUGHHB.png,,,,,,,,,,,,,,,,,,,,,z,1,0.78,,,,,,,,0,15,15,103,1
,,,,,,,,,,,,,,,,,,26,2022-02-12_11h48.31.483,lexical_decision_task_DD_L4,2021.2.3,Win32,144.0299582,,,,,,,,,,,0.708,1,,,,,,,,,,,,,,,,,,,,,,,,0.508333333,-0.181481481,0,0,0,,,,,,,WHISKY,LB,m,y,./images/WHISKYLB.png,,,,,,,,,,,,,,,,,,,,,m,1,0.708,,,,,,,,0,16,16,83,1
,,,,,,,,,,,,,,,,,,26,2022-02-12_11h48.31.483,lexical_decision_task_DD_L4,2021.2.3,Win32,144.0299582,,,,,,,,,,,0.8071,1,,,,,,,,,,,,,,,,,,,,,,,,0.508333333,-0.181481481,0,0,0,,,,,,,WALNUT,C,m,y,./images/WALNUT.png,,,,,,,,,,,,,,,,,,,,,m,1,0.8071,,,,,,,,0,17,17,0,1
,,,,,,,,,,,,,,,,,,26,2022-02-12_11h48.31.483,lexical_decision_task_DD_L4,2021.2.3,Win32,144.0299582,,,,,,,,,,,0.7436,1,,,,,,,,,,,,,,,,,,,,,,,,0.508333333,-0.181481481,0,0,0,,,,,,,CLOUD,LB,m,y,./images/CLOUDLB.png,,,,,,,,,,,,,,,,,,,,,m,1,0.7436,,,,,,,,0,18,18,26,1
,,,,,,,,,,,,,,,,,,26,2022-02-12_11h48.31.483,lexical_decision_task_DD_L4,2021.2.3,Win32,144.0299582,,,,,,,,,,,0.7309,1,,,,,,,,,,,,,,,,,,,,,,,,0.508333333,-0.181481481,0,0,0,,,,,,,SNAKE,HB,m,y,./images/SNAKEHB.png,,,,,,,,,,,,,,,,,,,,,m,1,0.7309,,,,,,,,0,19,19,40,1
,,,,,,,,,,,,,,,,,,26,2022-02-12_11h48.31.483,lexical_decision_task_DD_L4,2021.2.3,Win32,144.0299582,,,,,,,,,,,0.6649,1,,,,,,,,,,,,,,,,,,,,,,,,0.508333333,-0.181481481,0,0,0,,,,,,,SLOPE,C,m,y,./images/SLOPE.png,,,,,,,,,,,,,,,,,,,,,m,1,0.6649,,,,,,,,0,20,20,30,1
,,,,,,,,,,,,,,,,,,26,2022-02-12_11h48.31.483,lexical_decision_task_DD_L4,2021.2.3,Win32,144.0299582,,,,,,,,,,,0.6553,1,,,,,,,,,,,,,,,,,,,,,,,,0.508333333,-0.181481481,0,0,0,,,,,,,GRAPE,HB,m,y,./images/GRAPEHB.png,,,,,,,,,,,,,,,,,,,,,m,1,0.6553,,,,,,,,0,21,21,16,1
,,,,,,,,,,,,,,,,,,26,2022-02-12_11h48.31.483,lexical_decision_task_DD_L4,2021.2.3,Win32,144.0299582,,,,,,,,,,,0.8198,1,,,,,,,,,,,,,,,,,,,,,,,,0.508333333,-0.181481481,0,0,0,,,,,,,BUNNY,HB,m,y,./images/BUNNYHB.png,,,,,,,,,,,,,,,,,,,,,m,1,0.8198,,,,,,,,0,22,22,13,1
,,,,,,,,,,,,,,,,,,26,2022-02-12_11h48.31.483,lexical_decision_task_DD_L4,2021.2.3,Win32,144.0299582,,,,,,,,,,,0.6323,1,,,,,,,,,,,,,,,,,,,,,,,,0.508333333,-0.181481481,0,0,0,,,,,,,BASKET,LB,m,y,./images/BASKETLB.png,,,,,,,,,,,,,,,,,,,,,m,1,0.6323,,,,,,,,0,23,23,44,1
,,,,,,,,,,,,,,,,,,26,2022-02-12_11h48.31.483,lexical_decision_task_DD_L4,2021.2.3,Win32,144.0299582,,,,,,,,,,,0.6809,1,,,,,,,,,,,,,,,,,,,,,,,,0.508333333,-0.181481481,0,0,0,,,,,,,PIMPLE,LB,z,y,./images/PIMPLELB.png,,,,,,,,,,,,,,,,,,,,,z,1,0.6809,,,,,,,,0,24,24,155,1
,,,,,,,,,,,,,,,,,,26,2022-02-12_11h48.31.483,lexical_decision_task_DD_L4,2021.2.3,Win32,144.0299582,,,,,,,,,,,0.8491,1,,,,,,,,,,,,,,,,,,,,,,,,0.508333333,-0.181481481,0,0,0,,,,,,,PACKET,LB,z,y,./images/PACKETLB.png,,,,,,,,,,,,,,,,,,,,,z,1,0.8491,,,,,,,,0,25,25,140,1
,,,,,,,,,,,,,,,,,,26,2022-02-12_11h48.31.483,lexical_decision_task_DD_L4,2021.2.3,Win32,144.0299582,,,,,,,,,,,1.0985,1,,,,,,,,,,,,,,,,,,,,,,,,0.508333333,-0.181481481,0,0,0,,,,,,,JAGUAR,C,z,y,./images/JAGUAR.png,,,,,,,,,,,,,,,,,,,,,z,1,1.0985,,,,,,,,0,26,26,102,1
,,,,,,,,,,,,,,,,,,26,2022-02-12_11h48.31.483,lexical_decision_task_DD_L4,2021.2.3,Win32,144.0299582,,,,,,,,,,,0.8663,1,,,,,,,,,,,,,,,,,,,,,,,,0.508333333,-0.181481481,0,0,0,,,,,,,STOOL,HB,m,y,./images/STOOLHB.png,,,,,,,,,,,,,,,,,,,,,m,1,0.8663,,,,,,,,0,27,27,43,1
,,,,,,,,,,,,,,,,,,26,2022-02-12_11h48.31.483,lexical_decision_task_DD_L4,2021.2.3,Win32,144.0299582,,,,,,,,,,,0.8054,1,,,,,,,,,,,,,,,,,,,,,,,,0.508333333,-0.181481481,0,0,0,,,,,,,MAGGOT,C,z,y,./images/MAGGOT.png,,,,,,,,,,,,,,,,,,,,,z,1,0.8054,,,,,,,,0,28,28,117,1
,,,,,,,,,,,,,,,,,,26,2022-02-12_11h48.31.483,lexical_decision_task_DD_L4,2021.2.3,Win32,144.0299582,,,,,,,,,,,0.8945,1,,,,,,,,,,,,,,,,,,,,,,,,0.508333333,-0.181481481,0,0,0,,,,,,,PISTOL,LB,m,y,./images/PISTOLLB.png,,,,,,,,,,,,,,,,,,,,,m,1,0.8945,,,,,,,,0,29,29,29,1
,,,,,,,,,,,,,,,,,,26,2022-02-12_11h48.31.483,lexical_decision_task_DD_L4,2021.2.3,Win32,144.0299582,,,,,,,,,,,1.3425,1,,,,,,,,,,,,,,,,,,,,,,,,0.508333333,-0.181481481,0,0,0,,,,,,,GREASE,C,z,y,./images/GREASE.png,,,,,,,,,,,,,,,,,,,,,z,1,1.3425,,,,,,,,0,30,30,99,1
,,,,,,,,,,,,,,,,,,26,2022-02-12_11h48.31.483,lexical_decision_task_DD_L4,2021.2.3,Win32,144.0299582,,,,,,,,,,,0.7359,1,,,,,,,,,,,,,,,,,,,,,,,,0.508333333,-0.181481481,0,0,0,,,,,,,GRANNY,LB,m,y,./images/GRANNYLB.png,,,,,,,,,,,,,,,,,,,,,m,1,0.7359,,,,,,,,0,31,31,20,1
,,,,,,,,,,,,,,,,,,26,2022-02-12_11h48.31.483,lexical_decision_task_DD_L4,2021.2.3,Win32,144.0299582,,,,,,,,,,,0.8414,1,,,,,,,,,,,,,,,,,,,,,,,,0.508333333,-0.181481481,0,0,0,,,,,,,DESERT,HB,m,y,./images/DESERTHB.png,,,,,,,,,,,,,,,,,,,,,m,1,0.8414,,,,,,,,0,32,32,52,1
,,,,,,,,,,,,,,,,,,26,2022-02-12_11h48.31.483,lexical_decision_task_DD_L4,2021.2.3,Win32,144.0299582,,,,,,,,,,,0.7581,1,,,,,,,,,,,,,,,,,,,,,,,,0.508333333,-0.181481481,0,0,0,,,,,,,MONKEY,C,m,y,./images/MONKEY.png,,,,,,,,,,,,,,,,,,,,,m,1,0.7581,,,,,,,,0,33,33,45,1
,,,,,,,,,,,,,,,,,,26,2022-02-12_11h48.31.483,lexical_decision_task_DD_L4,2021.2.3,Win32,144.0299582,,,,,,,,,,,0.9124,1,,,,,,,,,,,,,,,,,,,,,,,,0.508333333,-0.181481481,0,0,0,,,,,,,COUCH,LB,z,y,./images/COUCHLB.png,,,,,,,,,,,,,,,,,,,,,z,1,0.9124,,,,,,,,0,34,34,161,1
,,,,,,,,,,,,,,,,,,26,2022-02-12_11h48.31.483,lexical_decision_task_DD_L4,2021.2.3,Win32,144.0299582,,,,,,,,,,,0.7836,1,,,,,,,,,,,,,,,,,,,,,,,,0.508333333,-0.181481481,0,0,0,,,,,,,DRILL,C,m,y,./images/DRILL.png,,,,,,,,,,,,,,,,,,,,,m,1,0.7836,,,,,,,,0,35,35,81,1
,,,,,,,,,,,,,,,,,,26,2022-02-12_11h48.31.483,lexical_decision_task_DD_L4,2021.2.3,Win32,144.0299582,,,,,,,,,,,1.5407,1,,,,,,,,,,,,,,,,,,,,,,,,0.508333333,-0.181481481,0,0,0,,,,,,,STAIN,C,m,y,./images/STAIN.png,,,,,,,,,,,,,,,,,,,,,m,1,1.5407,,,,,,,,0,36,36,6,1
,,,,,,,,,,,,,,,,,,26,2022-02-12_11h48.31.483,lexical_decision_task_DD_L4,2021.2.3,Win32,144.0299582,,,,,,,,,,,0.7754,1,,,,,,,,,,,,,,,,,,,,,,,,0.508333333,-0.181481481,0,0,0,,,,,,,ARTIST,HB,m,y,./images/ARTISTHB.png,,,,,,,,,,,,,,,,,,,,,m,1,0.7754,,,,,,,,0,37,37,61,1
,,,,,,,,,,,,,,,,,,26,2022-02-12_11h48.31.483,lexical_decision_task_DD_L4,2021.2.3,Win32,144.0299582,,,,,,,,,,,0.7169,1,,,,,,,,,,,,,,,,,,,,,,,,0.508333333,-0.181481481,0,0,0,,,,,,,CURRY,C,m,y,./images/CURRY.png,,,,,,,,,,,,,,,,,,,,,m,1,0.7169,,,,,,,,0,38,38,60,1
,,,,,,,,,,,,,,,,,,26,2022-02-12_11h48.31.483,lexical_decision_task_DD_L4,2021.2.3,Win32,144.0299582,,,,,,,,,,,1.0085,1,,,,,,,,,,,,,,,,,,,,,,,,0.508333333,-0.181481481,0,0,0,,,,,,,KITTEN,C,z,y,./images/KITTEN.png,,,,,,,,,,,,,,,,,,,,,z,1,1.0085,,,,,,,,0,39,39,129,1
,,,,,,,,,,,,,,,,,,26,2022-02-12_11h48.31.483,lexical_decision_task_DD_L4,2021.2.3,Win32,144.0299582,,,,,,,,,,,1.2409,1,,,,,,,,,,,,,,,,,,,,,,,,0.508333333,-0.181481481,0,0,0,,,,,,,MOOSE,C,z,y,./images/MOOSE.png,,,,,,,,,,,,,,,,,,,,,z,1,1.2409,,,,,,,,0,40,40,141,1
,,,,,,,,,,,,,,,,,,26,2022-02-12_11h48.31.483,lexical_decision_task_DD_L4,2021.2.3,Win32,144.0299582,,,,,,,,,,,0.7428,1,,,,,,,,,,,,,,,,,,,,,,,,0.508333333,-0.181481481,0,0,0,space,,,,,,CHAIN,C,m,y,./images/CHAIN.png,1.6786,,,,,,,,,,,,,,,,,,,,m,1,0.7428,,,,,,,,0,41,41,42,1
,,,,,,,,,,,,,,,,,,26,2022-02-12_11h48.31.483,lexical_decision_task_DD_L4,2021.2.3,Win32,144.0299582,,,,,,,,,,,0.9678,1,,,,,,,,,,,,,,,,,,,,,,,,0.508333333,-0.181481481,0,0,0,,,,,,,BUTTER,C,m,y,./images/BUTTER.png,,,,,,,,,,,,,,,,,,,,,m,1,0.9678,,,,,,,,0,42,42,27,1
,,,,,,,,,,,,,,,,,,26,2022-02-12_11h48.31.483,lexical_decision_task_DD_L4,2021.2.3,Win32,144.0299582,,,,,,,,,,,0.6751,1,,,,,,,,,,,,,,,,,,,,,,,,0.508333333,-0.181481481,0,0,0,,,,,,,MUMMY,HB,m,y,./images/MUMMYHB.png,,,,,,,,,,,,,,,,,,,,,m,1,0.6751,,,,,,,,0,43,43,46,1
,,,,,,,,,,,,,,,,,,26,2022-02-12_11h48.31.483,lexical_decision_task_DD_L4,2021.2.3,Win32,144.0299582,,,,,,,,,,,0.8435,1,,,,,,,,,,,,,,,,,,,,,,,,0.508333333,-0.181481481,0,0,0,,,,,,,WRIST,HB,z,y,./images/WRISTHB.png,,,,,,,,,,,,,,,,,,,,,z,1,0.8435,,,,,,,,0,44,44,109,1
,,,,,,,,,,,,,,,,,,26,2022-02-12_11h48.31.483,lexical_decision_task_DD_L4,2021.2.3,Win32,144.0299582,,,,,,,,,,,0.7839,1,,,,,,,,,,,,,,,,,,,,,,,,0.508333333,-0.181481481,0,0,0,,,,,,,QUILL,HB,z,y,./images/QUILLHB.png,,,,,,,,,,,,,,,,,,,,,z,1,0.7839,,,,,,,,0,45,45,115,1
,,,,,,,,,,,,,,,,,,26,2022-02-12_11h48.31.483,lexical_decision_task_DD_L4,2021.2.3,Win32,144.0299582,,,,,,,,,,,0.7991,1,,,,,,,,,,,,,,,,,,,,,,,,0.508333333,-0.181481481,0,0,0,,,,,,,BIRTH,HB,z,y,./images/BIRTHHB.png,,,,,,,,,,,,,,,,,,,,,z,1,0.7991,,,,,,,,0,46,46,121,1
,,,,,,,,,,,,,,,,,,26,2022-02-12_11h48.31.483,lexical_decision_task_DD_L4,2021.2.3,Win32,144.0299582,,,,,,,,,,,0.8,1,,,,,,,,,,,,,,,,,,,,,,,,0.508333333,-0.181481481,0,0,0,,,,,,,NOOSE,C,z,y,./images/NOOSE.png,,,,,,,,,,,,,,,,,,,,,z,1,0.8,,,,,,,,0,47,47,156,1
,,,,,,,,,,,,,,,,,,26,2022-02-12_11h48.31.483,lexical_decision_task_DD_L4,2021.2.3,Win32,144.0299582,,,,,,,,,,,0.754,1,,,,,,,,,,,,,,,,,,,,,,,,0.508333333,-0.181481481,0,0,0,,,,,,,TULIP,LB,z,y,./images/TULIPLB.png,,,,,,,,,,,,,,,,,,,,,z,1,0.754,,,,,,,,0,48,48,92,1
,,,,,,,,,,,,,,,,,,26,2022-02-12_11h48.31.483,lexical_decision_task_DD_L4,2021.2.3,Win32,144.0299582,,,,,,,,,,,0.7065,1,,,,,,,,,,,,,,,,,,,,,,,,0.508333333,-0.181481481,0,0,0,,,,,,,LAGOON,LB,m,y,./images/LAGOONLB.png,,,,,,,,,,,,,,,,,,,,,m,1,0.7065,,,,,,,,0,49,49,47,1
,,,,,,,,,,,,,,,,,,26,2022-02-12_11h48.31.483,lexical_decision_task_DD_L4,2021.2.3,Win32,144.0299582,,,,,,,,,,,0.6799,1,,,,,,,,,,,,,,,,,,,,,,,,0.508333333,-0.181481481,0,0,0,,,,,,,GARDEN,HB,m,y,./images/GARDENHB.png,,,,,,,,,,,,,,,,,,,,,m,1,0.6799,,,,,,,,0,50,50,10,1
,,,,,,,,,,,,,,,,,,26,2022-02-12_11h48.31.483,lexical_decision_task_DD_L4,2021.2.3,Win32,144.0299582,,,,,,,,,,,0.6446,1,,,,,,,,,,,,,,,,,,,,,,,,0.508333333,-0.181481481,0,0,0,,,,,,,DIVER,C,m,y,./images/DIVER.png,,,,,,,,,,,,,,,,,,,,,m,1,0.6446,,,,,,,,0,51,51,9,1
,,,,,,,,,,,,,,,,,,26,2022-02-12_11h48.31.483,lexical_decision_task_DD_L4,2021.2.3,Win32,144.0299582,,,,,,,,,,,0.6731,1,,,,,,,,,,,,,,,,,,,,,,,,0.508333333,-0.181481481,0,0,0,,,,,,,MAMMAL,LB,m,y,./images/MAMMALLB.png,,,,,,,,,,,,,,,,,,,,,m,1,0.6731,,,,,,,,0,52,52,62,1
,,,,,,,,,,,,,,,,,,26,2022-02-12_11h48.31.483,lexical_decision_task_DD_L4,2021.2.3,Win32,144.0299582,,,,,,,,,,,0.6873,1,,,,,,,,,,,,,,,,,,,,,,,,0.508333333,-0.181481481,0,0,0,,,,,,,CRUMB,LB,z,y,./images/CRUMBLB.png,,,,,,,,,,,,,,,,,,,,,z,1,0.6873,,,,,,,,0,53,53,113,1
,,,,,,,,,,,,,,,,,,26,2022-02-12_11h48.31.483,lexical_decision_task_DD_L4,2021.2.3,Win32,144.0299582,,,,,,,,,,,0.7502,1,,,,,,,,,,,,,,,,,,,,,,,,0.508333333,-0.181481481,0,0,0,,,,,,,PENCE,HB,z,y,./images/PENCEHB.png,,,,,,,,,,,,,,,,,,,,,z,1,0.7502,,,,,,,,0,54,54,100,1
,,,,,,,,,,,,,,,,,,26,2022-02-12_11h48.31.483,lexical_decision_task_DD_L4,2021.2.3,Win32,144.0299582,,,,,,,,,,,1.8887,1,,,,,,,,,,,,,,,,,,,,,,,,0.508333333,-0.181481481,0,0,0,,,,,,,ARROW,C,m,y,./images/ARROW.png,,,,,,,,,,,,,,,,,,,,,m,1,1.8887,,,,,,,,0,55,55,69,1
,,,,,,,,,,,,,,,,,,26,2022-02-12_11h48.31.483,lexical_decision_task_DD_L4,2021.2.3,Win32,144.0299582,,,,,,,,,,,0.8632,1,,,,,,,,,,,,,,,,,,,,,,,,0.508333333,-0.181481481,0,0,0,,,,,,,HAMMER,C,m,y,./images/HAMMER.png,,,,,,,,,,,,,,,,,,,,,m,1,0.8632,,,,,,,,0,56,56,75,1
,,,,,,,,,,,,,,,,,,26,2022-02-12_11h48.31.483,lexical_decision_task_DD_L4,2021.2.3,Win32,144.0299582,,,,,,,,,,,0.8016,1,,,,,,,,,,,,,,,,,,,,,,,,0.508333333,-0.181481481,0,0,0,,,,,,,WEASEL,LB,z,y,./images/WEASELLB.png,,,,,,,,,,,,,,,,,,,,,z,1,0.8016,,,,,,,,0,57,57,164,1
,,,,,,,,,,,,,,,,,,26,2022-02-12_11h48.31.483,lexical_decision_task_DD_L4,2021.2.3,Win32,144.0299582,,,,,,,,,,,0.6666,1,,,,,,,,,,,,,,,,,,,,,,,,0.508333333,-0.181481481,0,0,0,,,,,,,PEARL,HB,z,y,./images/PEARLHB.png,,,,,,,,,,,,,,,,,,,,,z,1,0.6666,,,,,,,,0,58,58,130,1
,,,,,,,,,,,,,,,,,,26,2022-02-12_11h48.31.483,lexical_decision_task_DD_L4,2021.2.3,Win32,144.0299582,,,,,,,,,,,0.7272,1,,,,,,,,,,,,,,,,,,,,,,,,0.508333333,-0.181481481,0,0,0,,,,,,,FERRY,C,m,y,./images/FERRY.png,,,,,,,,,,,,,,,,,,,,,m,1,0.7272,,,,,,,,0,59,59,57,1
,,,,,,,,,,,,,,,,,,26,2022-02-12_11h48.31.483,lexical_decision_task_DD_L4,2021.2.3,Win32,144.0299582,,,,,,,,,,,0.8622,1,,,,,,,,,,,,,,,,,,,,,,,,0.508333333,-0.181481481,0,0,0,,,,,,,CHALK,HB,m,y,./images/CHALKHB.png,,,,,,,,,,,,,,,,,,,,,m,1,0.8622,,,,,,,,0,60,60,25,1
,,,,,,,,,,,,,,,,,,26,2022-02-12_11h48.31.483,lexical_decision_task_DD_L4,2021.2.3,Win32,144.0299582,,,,,,,,,,,0.6738,1,,,,,,,,,,,,,,,,,,,,,,,,0.508333333,-0.181481481,0,0,0,,,,,,,FINGER,C,z,y,./images/FINGER.png,,,,,,,,,,,,,,,,,,,,,z,1,0.6738,,,,,,,,0,61,61,87,1
,,,,,,,,,,,,,,,,,,26,2022-02-12_11h48.31.483,lexical_decision_task_DD_L4,2021.2.3,Win32,144.0299582,,,,,,,,,,,0.7776,1,,,,,,,,,,,,,,,,,,,,,,,,0.508333333,-0.181481481,0,0,0,,,,,,,BRUSH,LB,m,y,./images/BRUSHLB.png,,,,,,,,,,,,,,,,,,,,,m,1,0.7776,,,,,,,,0,62,62,59,1
,,,,,,,,,,,,,,,,,,26,2022-02-12_11h48.31.483,lexical_decision_task_DD_L4,2021.2.3,Win32,144.0299582,,,,,,,,,,,0.8315,1,,,,,,,,,,,,,,,,,,,,,,,,0.508333333,-0.181481481,0,0,0,,,,,,,FARMER,LB,z,y,./images/FARMERLB.png,,,,,,,,,,,,,,,,,,,,,z,1,0.8315,,,,,,,,0,63,63,149,1
,,,,,,,,,,,,,,,,,,26,2022-02-12_11h48.31.483,lexical_decision_task_DD_L4,2021.2.3,Win32,144.0299582,,,,,,,,,,,0.6945,1,,,,,,,,,,,,,,,,,,,,,,,,0.508333333,-0.181481481,0,0,0,,,,,,,LIZARD,LB,z,y,./images/LIZARDLB.png,,,,,,,,,,,,,,,,,,,,,z,1,0.6945,,,,,,,,0,64,64,128,1
,,,,,,,,,,,,,,,,,,26,2022-02-12_11h48.31.483,lexical_decision_task_DD_L4,2021.2.3,Win32,144.0299582,,,,,,,,,,,0.771,1,,,,,,,,,,,,,,,,,,,,,,,,0.508333333,-0.181481481,0,0,0,,,,,,,CRUST,HB,z,y,./images/CRUSTHB.png,,,,,,,,,,,,,,,,,,,,,z,1,0.771,,,,,,,,0,65,65,163,1
,,,,,,,,,,,,,,,,,,26,2022-02-12_11h48.31.483,lexical_decision_task_DD_L4,2021.2.3,Win32,144.0299582,,,,,,,,,,,0.8285,1,,,,,,,,,,,,,,,,,,,,,,,,0.508333333,-0.181481481,0,0,0,,,,,,,MIRROR,C,z,y,./images/MIRROR.png,,,,,,,,,,,,,,,,,,,,,z,1,0.8285,,,,,,,,0,66,66,147,1
,,,,,,,,,,,,,,,,,,26,2022-02-12_11h48.31.483,lexical_decision_task_DD_L4,2021.2.3,Win32,144.0299582,,,,,,,,,,,0.7222,1,,,,,,,,,,,,,,,,,,,,,,,,0.508333333,-0.181481481,0,0,0,,,,,,,CLOTH,LB,m,y,./images/CLOTHLB.png,,,,,,,,,,,,,,,,,,,,,m,1,0.7222,,,,,,,,0,67,67,23,1
,,,,,,,,,,,,,,,,,,26,2022-02-12_11h48.31.483,lexical_decision_task_DD_L4,2021.2.3,Win32,144.0299582,,,,,,,,,,,0.7806,1,,,,,,,,,,,,,,,,,,,,,,,,0.508333333,-0.181481481,0,0,0,,,,,,,BANNER,HB,z,y,./images/BANNERHB.png,,,,,,,,,,,,,,,,,,,,,z,1,0.7806,,,,,,,,0,68,68,136,1
,,,,,,,,,,,,,,,,,,26,2022-02-12_11h48.31.483,lexical_decision_task_DD_L4,2021.2.3,Win32,144.0299582,,,,,,,,,,,0.8845,1,,,,,,,,,,,,,,,,,,,,,,,,0.508333333,-0.181481481,0,0,0,,,,,,,LADDER,LB,z,y,./images/LADDERLB.png,,,,,,,,,,,,,,,,,,,,,z,1,0.8845,,,,,,,,0,69,69,122,1
,,,,,,,,,,,,,,,,,,26,2022-02-12_11h48.31.483,lexical_decision_task_DD_L4,2021.2.3,Win32,144.0299582,,,,,,,,,,,0.6949,1,,,,,,,,,,,,,,,,,,,,,,,,0.508333333,-0.181481481,0,0,0,,,,,,,INFANT,HB,z,y,./images/INFANTHB.png,,,,,,,,,,,,,,,,,,,,,z,1,0.6949,,,,,,,,0,70,70,160,1
,,,,,,,,,,,,,,,,,,26,2022-02-12_11h48.31.483,lexical_decision_task_DD_L4,2021.2.3,Win32,144.0299582,,,,,,,,,,,0.694,1,,,,,,,,,,,,,,,,,,,,,,,,0.508333333,-0.181481481,0,0,0,,,,,,,URINE,HB,z,y,./images/URINEHB.png,,,,,,,,,,,,,,,,,,,,,z,1,0.694,,,,,,,,0,71,71,154,1
,,,,,,,,,,,,,,,,,,26,2022-02-12_11h48.31.483,lexical_decision_task_DD_L4,2021.2.3,Win32,144.0299582,,,,,,,,,,,0.6542,1,,,,,,,,,,,,,,,,,,,,,,,,0.508333333,-0.181481481,0,0,0,,,,,,,FENCE,LB,m,y,./images/FENCELB.png,,,,,,,,,,,,,,,,,,,,,m,1,0.6542,,,,,,,,0,72,72,14,1
,,,,,,,,,,,,,,,,,,26,2022-02-12_11h48.31.483,lexical_decision_task_DD_L4,2021.2.3,Win32,144.0299582,,,,,,,,,,,0.7781,1,,,,,,,,,,,,,,,,,,,,,,,,0.508333333,-0.181481481,0,0,0,,,,,,,JUNGLE,LB,z,y,./images/JUNGLELB.png,,,,,,,,,,,,,,,,,,,,,z,1,0.7781,,,,,,,,0,73,73,167,1
,,,,,,,,,,,,,,,,,,26,2022-02-12_11h48.31.483,lexical_decision_task_DD_L4,2021.2.3,Win32,144.0299582,,,,,,,,,,,0.7104,1,,,,,,,,,,,,,,,,,,,,,,,,0.508333333,-0.181481481,0,0,0,,,,,,,BUBBLE,LB,m,y,./images/BUBBLELB.png,,,,,,,,,,,,,,,,,,,,,m,1,0.7104,,,,,,,,0,74,74,71,1
,,,,,,,,,,,,,,,,,,26,2022-02-12_11h48.31.483,lexical_decision_task_DD_L4,2021.2.3,Win32,144.0299582,,,,,,,,,,,1.1777,0,,,,,,,,,,,,,,,,,,,,,,,,0.508333333,-0.181481481,0,0,0,,,,,,,MUFFIN,HB,z,y,./images/MUFFINHB.png,,,,,,,,,,,,,,,,,,,,,m,0,1.1777,,,,,,,,0,75,75,139,1
,,,,,,,,,,,,,,,,,,26,2022-02-12_11h48.31.483,lexical_decision_task_DD_L4,2021.2.3,Win32,144.0299582,,,,,,,,,,,1.0951,1,,,,,,,,,,,,,,,,,,,,,,,,0.508333333,-0.181481481,0,0,0,,,,,,,SAUCE,C,m,y,./images/SAUCE.png,,,,,,,,,,,,,,,,,,,,,m,1,1.0951,,,,,,,,0,76,76,51,1
,,,,,,,,,,,,,,,,,,26,2022-02-12_11h48.31.483,lexical_decision_task_DD_L4,2021.2.3,Win32,144.0299582,,,,,,,,,,,0.6762,1,,,,,,,,,,,,,,,,,,,,,,,,0.508333333,-0.181481481,0,0,0,,,,,,,SPINE,LB,m,y,./images/SPINELB.png,,,,,,,,,,,,,,,,,,,,,m,1,0.6762,,,,,,,,0,77,77,65,1
,,,,,,,,,,,,,,,,,,26,2022-02-12_11h48.31.483,lexical_decision_task_DD_L4,2021.2.3,Win32,144.0299582,,,,,,,,,,,0.6358,1,,,,,,,,,,,,,,,,,,,,,,,,0.508333333,-0.181481481,0,0,0,,,,,,,FLASK,C,m,y,./images/FLASK.png,,,,,,,,,,,,,,,,,,,,,m,1,0.6358,,,,,,,,0,78,78,72,1
,,,,,,,,,,,,,,,,,,26,2022-02-12_11h48.31.483,lexical_decision_task_DD_L4,2021.2.3,Win32,144.0299582,,,,,,,,,,,0.8959,1,,,,,,,,,,,,,,,,,,,,,,,,0.508333333,-0.181481481,0,0,0,,,,,,,SKIING,LB,z,y,./images/SKIINGLB.png,,,,,,,,,,,,,,,,,,,,,z,1,0.8959,,,,,,,,0,79,79,101,1
,,,,,,,,,,,,,,,,,,26,2022-02-12_11h48.31.483,lexical_decision_task_DD_L4,2021.2.3,Win32,144.0299582,,,,,,,,,,,0.685,1,,,,,,,,,,,,,,,,,,,,,,,,0.508333333,-0.181481481,0,0,0,,,,,,,BROOM,C,m,y,./images/BROOM.png,,,,,,,,,,,,,,,,,,,,,m,1,0.685,,,,,,,,0,80,80,78,1
,,,,,,,,,,,,,,,,,,26,2022-02-12_11h48.31.483,lexical_decision_task_DD_L4,2021.2.3,Win32,144.0299582,,,,,,,,,,,0.9604,1,,,,,,,,,,,,,,,,,,,,,,,,0.508333333,-0.181481481,0,0,0,,,,,,,CLOWN,HB,m,y,./images/CLOWNHB.png,,,,,,,,,,,,,,,,,,,,,m,1,0.9604,,,,,,,,0,81,81,22,1
,,,,,,,,,,,,,,,,,,26,2022-02-12_11h48.31.483,lexical_decision_task_DD_L4,2021.2.3,Win32,144.0299582,,,,,,,,,,,0.7295,1,,,,,,,,,,,,,,,,,,,,,,,,0.508333333,-0.181481481,0,0,0,,,,,,,POSTER,LB,m,y,./images/POSTERLB.png,,,,,,,,,,,,,,,,,,,,,m,1,0.7295,,,,,,,,0,82,82,53,1
,,,,,,,,,,,,,,,,,,26,2022-02-12_11h48.31.483,lexical_decision_task_DD_L4,2021.2.3,Win32,144.0299582,,,,,,,,,,,0.8129,1,,,,,,,,,,,,,,,,,,,,,,,,0.508333333,-0.181481481,0,0,0,space,,,,,,SHELF,C,z,y,./images/SHELF.png,2.3394,,,,,,,,,,,,,,,,,,,,z,1,0.8129,,,,,,,,0,83,83,123,1
,,,,,,,,,,,,,,,,,,26,2022-02-12_11h48.31.483,lexical_decision_task_DD_L4,2021.2.3,Win32,144.0299582,,,,,,,,,,,1.0456,1,,,,,,,,,,,,,,,,,,,,,,,,0.508333333,-0.181481481,0,0,0,,,,,,,STREAM,LB,m,y,./images/STREAMLB.png,,,,,,,,,,,,,,,,,,,,,m,1,1.0456,,,,,,,,0,84,84,41,1
,,,,,,,,,,,,,,,,,,26,2022-02-12_11h48.31.483,lexical_decision_task_DD_L4,2021.2.3,Win32,144.0299582,,,,,,,,,,,0.7571,1,,,,,,,,,,,,,,,,,,,,,,,,0.508333333,-0.181481481,0,0,0,,,,,,,BELLY,HB,z,y,./images/BELLYHB.png,,,,,,,,,,,,,,,,,,,,,z,1,0.7571,,,,,,,,0,85,85,94,1
,,,,,,,,,,,,,,,,,,26,2022-02-12_11h48.31.483,lexical_decision_task_DD_L4,2021.2.3,Win32,144.0299582,,,,,,,,,,,1.3285,1,,,,,,,,,,,,,,,,,,,,,,,,0.508333333,-0.181481481,0,0,0,,,,,,,STRING,LB,z,y,./images/STRINGLB.png,,,,,,,,,,,,,,,,,,,,,z,1,1.3285,,,,,,,,0,86,86,125,1
,,,,,,,,,,,,,,,,,,26,2022-02-12_11h48.31.483,lexical_decision_task_DD_L4,2021.2.3,Win32,144.0299582,,,,,,,,,,,0.8128,1,,,,,,,,,,,,,,,,,,,,,,,,0.508333333,-0.181481481,0,0,0,,,,,,,MIDGET,HB,m,y,./images/MIDGETHB.png,,,,,,,,,,,,,,,,,,,,,m,1,0.8128,,,,,,,,0,87,87,76,1
,,,,,,,,,,,,,,,,,,26,2022-02-12_11h48.31.483,lexical_decision_task_DD_L4,2021.2.3,Win32,144.0299582,,,,,,,,,,,0.8774,0,,,,,,,,,,,,,,,,,,,,,,,,0.508333333,-0.181481481,0,0,0,,,,,,,ENGINE,LB,m,y,./images/ENGINELB.png,,,,,,,,,,,,,,,,,,,,,z,0,0.8774,,,,,,,,0,88,88,38,1
,,,,,,,,,,,,,,,,,,26,2022-02-12_11h48.31.483,lexical_decision_task_DD_L4,2021.2.3,Win32,144.0299582,,,,,,,,,,,0.8444,1,,,,,,,,,,,,,,,,,,,,,,,,0.508333333,-0.181481481,0,0,0,,,,,,,SNACK,HB,z,y,./images/SNACKHB.png,,,,,,,,,,,,,,,,,,,,,z,1,0.8444,,,,,,,,0,89,89,157,1
,,,,,,,,,,,,,,,,,,26,2022-02-12_11h48.31.483,lexical_decision_task_DD_L4,2021.2.3,Win32,144.0299582,,,,,,,,,,,0.787,1,,,,,,,,,,,,,,,,,,,,,,,,0.508333333,-0.181481481,0,0,0,,,,,,,MUSCLE,HB,z,y,./images/MUSCLEHB.png,,,,,,,,,,,,,,,,,,,,,z,1,0.787,,,,,,,,0,90,90,88,1
,,,,,,,,,,,,,,,,,,26,2022-02-12_11h48.31.483,lexical_decision_task_DD_L4,2021.2.3,Win32,144.0299582,,,,,,,,,,,0.7114,1,,,,,,,,,,,,,,,,,,,,,,,,0.508333333,-0.181481481,0,0,0,,,,,,,RULER,HB,m,y,./images/RULERHB.png,,,,,,,,,,,,,,,,,,,,,m,1,0.7114,,,,,,,,0,91,91,79,1
,,,,,,,,,,,,,,,,,,26,2022-02-12_11h48.31.483,lexical_decision_task_DD_L4,2021.2.3,Win32,144.0299582,,,,,,,,,,,0.8405,1,,,,,,,,,,,,,,,,,,,,,,,,0.508333333,-0.181481481,0,0,0,,,,,,,RAZOR,HB,m,y,./images/RAZORHB.png,,,,,,,,,,,,,,,,,,,,,m,1,0.8405,,,,,,,,0,92,92,34,1
,,,,,,,,,,,,,,,,,,26,2022-02-12_11h48.31.483,lexical_decision_task_DD_L4,2021.2.3,Win32,144.0299582,,,,,,,,,,,0.6233,1,,,,,,,,,,,,,,,,,,,,,,,,0.508333333,-0.181481481,0,0,0,,,,,,,BAMBOO,LB,m,y,./images/BAMBOOLB.png,,,,,,,,,,,,,,,,,,,,,m,1,0.6233,,,,,,,,0,93,93,5,1
,,,,,,,,,,,,,,,,,,26,2022-02-12_11h48.31.483,lexical_decision_task_DD_L4,2021.2.3,Win32,144.0299582,,,,,,,,,,,0.6699,1,,,,,,,,,,,,,,,,,,,,,,,,0.508333333,-0.181481481,0,0,0,,,,,,,CANDLE,HB,z,y,./images/CANDLEHB.png,,,,,,,,,,,,,,,,,,,,,z,1,0.6699,,,,,,,,0,94,94,145,1
,,,,,,,,,,,,,,,,,,26,2022-02-12_11h48.31.483,lexical_decision_task_DD_L4,2021.2.3,Win32,144.0299582,,,,,,,,,,,0.6529,1,,,,,,,,,,,,,,,,,,,,,,,,0.508333333,-0.181481481,0,0,0,,,,,,,FLESH,C,m,y,./images/FLESH.png,,,,,,,,,,,,,,,,,,,,,m,1,0.6529,,,,,,,,0,95,95,24,1
,,,,,,,,,,,,,,,,,,26,2022-02-12_11h48.31.483,lexical_decision_task_DD_L4,2021.2.3,Win32,144.0299582,,,,,,,,,,,0.6881,1,,,,,,,,,,,,,,,,,,,,,,,,0.508333333,-0.181481481,0,0,0,,,,,,,ALLEY,HB,m,y,./images/ALLEYHB.png,,,,,,,,,,,,,,,,,,,,,m,1,0.6881,,,,,,,,0,96,96,55,1
,,,,,,,,,,,,,,,,,,26,2022-02-12_11h48.31.483,lexical_decision_task_DD_L4,2021.2.3,Win32,144.0299582,,,,,,,,,,,0.977,1,,,,,,,,,,,,,,,,,,,,,,,,0.508333333,-0.181481481,0,0,0,,,,,,,BRIDE,HB,m,y,./images/BRIDEHB.png,,,,,,,,,,,,,,,,,,,,,m,1,0.977,,,,,,,,0,97,97,64,1
,,,,,,,,,,,,,,,,,,26,2022-02-12_11h48.31.483,lexical_decision_task_DD_L4,2021.2.3,Win32,144.0299582,,,,,,,,,,,0.7418,1,,,,,,,,,,,,,,,,,,,,,,,,0.508333333,-0.181481481,0,0,0,,,,,,,TOWEL,HB,m,y,./images/TOWELHB.png,,,,,,,,,,,,,,,,,,,,,m,1,0.7418,,,,,,,,0,98,98,1,1
,,,,,,,,,,,,,,,,,,26,2022-02-12_11h48.31.483,lexical_decision_task_DD_L4,2021.2.3,Win32,144.0299582,,,,,,,,,,,1.2933,1,,,,,,,,,,,,,,,,,,,,,,,,0.508333333,-0.181481481,0,0,0,,,,,,,GRAIN,C,z,y,./images/GRAIN.png,,,,,,,,,,,,,,,,,,,,,z,1,1.2933,,,,,,,,0,99,99,159,1
,,,,,,,,,,,,,,,,,,26,2022-02-12_11h48.31.483,lexical_decision_task_DD_L4,2021.2.3,Win32,144.0299582,,,,,,,,,,,0.6672,1,,,,,,,,,,,,,,,,,,,,,,,,0.508333333,-0.181481481,0,0,0,,,,,,,SAUNA,C,m,y,./images/SAUNA.png,,,,,,,,,,,,,,,,,,,,,m,1,0.6672,,,,,,,,0,100,100,33,1
,,,,,,,,,,,,,,,,,,26,2022-02-12_11h48.31.483,lexical_decision_task_DD_L4,2021.2.3,Win32,144.0299582,,,,,,,,,,,0.6672,1,,,,,,,,,,,,,,,,,,,,,,,,0.508333333,-0.181481481,0,0,0,,,,,,,PILOT,LB,m,y,./images/PILOTLB.png,,,,,,,,,,,,,,,,,,,,,m,1,0.6672,,,,,,,,0,101,101,50,1
,,,,,,,,,,,,,,,,,,26,2022-02-12_11h48.31.483,lexical_decision_task_DD_L4,2021.2.3,Win32,144.0299582,,,,,,,,,,,0.8191,1,,,,,,,,,,,,,,,,,,,,,,,,0.508333333,-0.181481481,0,0,0,,,,,,,HEATER,LB,m,y,./images/HEATERLB.png,,,,,,,,,,,,,,,,,,,,,m,1,0.8191,,,,,,,,0,102,102,56,1
,,,,,,,,,,,,,,,,,,26,2022-02-12_11h48.31.483,lexical_decision_task_DD_L4,2021.2.3,Win32,144.0299582,,,,,,,,,,,0.9684,1,,,,,,,,,,,,,,,,,,,,,,,,0.508333333,-0.181481481,0,0,0,,,,,,,BONNET,LB,z,y,./images/BONNETLB.png,,,,,,,,,,,,,,,,,,,,,z,1,0.9684,,,,,,,,0,103,103,95,1
,,,,,,,,,,,,,,,,,,26,2022-02-12_11h48.31.483,lexical_decision_task_DD_L4,2021.2.3,Win32,144.0299582,,,,,,,,,,,0.7878,1,,,,,,,,,,,,,,,,,,,,,,,,0.508333333,-0.181481481,0,0,0,,,,,,,FOLDER,C,z,y,./images/FOLDER.png,,,,,,,,,,,,,,,,,,,,,z,1,0.7878,,,,,,,,0,104,104,126,1
,,,,,,,,,,,,,,,,,,26,2022-02-12_11h48.31.483,lexical_decision_task_DD_L4,2021.2.3,Win32,144.0299582,,,,,,,,,,,0.6764,1,,,,,,,,,,,,,,,,,,,,,,,,0.508333333,-0.181481481,0,0,0,,,,,,,BANANA,HB,m,y,./images/BANANAHB.png,,,,,,,,,,,,,,,,,,,,,m,1,0.6764,,,,,,,,0,105,105,70,1
,,,,,,,,,,,,,,,,,,26,2022-02-12_11h48.31.483,lexical_decision_task_DD_L4,2021.2.3,Win32,144.0299582,,,,,,,,,,,0.6111,1,,,,,,,,,,,,,,,,,,,,,,,,0.508333333,-0.181481481,0,0,0,,,,,,,MEDAL,LB,m,y,./images/MEDALLB.png,,,,,,,,,,,,,,,,,,,,,m,1,0.6111,,,,,,,,0,106,106,11,1
,,,,,,,,,,,,,,,,,,26,2022-02-12_11h48.31.483,lexical_decision_task_DD_L4,2021.2.3,Win32,144.0299582,,,,,,,,,,,0.7614,1,,,,,,,,,,,,,,,,,,,,,,,,0.508333333,-0.181481481,0,0,0,,,,,,,HOCKEY,LB,m,y,./images/HOCKEYLB.png,,,,,,,,,,,,,,,,,,,,,m,1,0.7614,,,,,,,,0,107,107,32,1
,,,,,,,,,,,,,,,,,,26,2022-02-12_11h48.31.483,lexical_decision_task_DD_L4,2021.2.3,Win32,144.0299582,,,,,,,,,,,0.8125,1,,,,,,,,,,,,,,,,,,,,,,,,0.508333333,-0.181481481,0,0,0,,,,,,,MOTOR,HB,z,y,./images/MOTORHB.png,,,,,,,,,,,,,,,,,,,,,z,1,0.8125,,,,,,,,0,108,108,97,1
,,,,,,,,,,,,,,,,,,26,2022-02-12_11h48.31.483,lexical_decision_task_DD_L4,2021.2.3,Win32,144.0299582,,,,,,,,,,,0.6816,1,,,,,,,,,,,,,,,,,,,,,,,,0.508333333,-0.181481481,0,0,0,,,,,,,TOMATO,C,z,y,./images/TOMATO.png,,,,,,,,,,,,,,,,,,,,,z,1,0.6816,,,,,,,,0,109,109,84,1
,,,,,,,,,,,,,,,,,,26,2022-02-12_11h48.31.483,lexical_decision_task_DD_L4,2021.2.3,Win32,144.0299582,,,,,,,,,,,0.7053,1,,,,,,,,,,,,,,,,,,,,,,,,0.508333333,-0.181481481,0,0,0,,,,,,,TIGER,HB,m,y,./images/TIGERHB.png,,,,,,,,,,,,,,,,,,,,,m,1,0.7053,,,,,,,,0,110,110,37,1
,,,,,,,,,,,,,,,,,,26,2022-02-12_11h48.31.483,lexical_decision_task_DD_L4,2021.2.3,Win32,144.0299582,,,,,,,,,,,0.8286,1,,,,,,,,,,,,,,,,,,,,,,,,0.508333333,-0.181481481,0,0,0,,,,,,,PARADE,LB,m,y,./images/PARADELB.png,,,,,,,,,,,,,,,,,,,,,m,1,0.8286,,,,,,,,0,111,111,17,1
,,,,,,,,,,,,,,,,,,26,2022-02-12_11h48.31.483,lexical_decision_task_DD_L4,2021.2.3,Win32,144.0299582,,,,,,,,,,,0.7936,1,,,,,,,,,,,,,,,,,,,,,,,,0.508333333,-0.181481481,0,0,0,,,,,,,VALLEY,LB,m,y,./images/VALLEYLB.png,,,,,,,,,,,,,,,,,,,,,m,1,0.7936,,,,,,,,0,112,112,68,1
,,,,,,,,,,,,,,,,,,26,2022-02-12_11h48.31.483,lexical_decision_task_DD_L4,2021.2.3,Win32,144.0299582,,,,,,,,,,,1.0907,1,,,,,,,,,,,,,,,,,,,,,,,,0.508333333,-0.181481481,0,0,0,,,,,,,COLLAR,C,m,y,./images/COLLAR.png,,,,,,,,,,,,,,,,,,,,,m,1,1.0907,,,,,,,,0,113,113,15,1
,,,,,,,,,,,,,,,,,,26,2022-02-12_11h48.31.483,lexical_decision_task_DD_L4,2021.2.3,Win32,144.0299582,,,,,,,,,,,0.6735,1,,,,,,,,,,,,,,,,,,,,,,,,0.508333333,-0.181481481,0,0,0,,,,,,,LLAMA,LB,m,y,./images/LLAMALB.png,,,,,,,,,,,,,,,,,,,,,m,1,0.6735,,,,,,,,0,114,114,35,1
,,,,,,,,,,,,,,,,,,26,2022-02-12_11h48.31.483,lexical_decision_task_DD_L4,2021.2.3,Win32,144.0299582,,,,,,,,,,,1.072,0,,,,,,,,,,,,,,,,,,,,,,,,0.508333333,-0.181481481,0,0,0,,,,,,,SWEAT,C,z,y,./images/SWEAT.png,,,,,,,,,,,,,,,,,,,,,m,0,1.072,,,,,,,,0,115,115,150,1
,,,,,,,,,,,,,,,,,,26,2022-02-12_11h48.31.483,lexical_decision_task_DD_L4,2021.2.3,Win32,144.0299582,,,,,,,,,,,0.7456,1,,,,,,,,,,,,,,,,,,,,,,,,0.508333333,-0.181481481,0,0,0,,,,,,,PEACH,LB,z,y,./images/PEACHLB.png,,,,,,,,,,,,,,,,,,,,,z,1,0.7456,,,,,,,,0,116,116,119,1
,,,,,,,,,,,,,,,,,,26,2022-02-12_11h48.31.483,lexical_decision_task_DD_L4,2021.2.3,Win32,144.0299582,,,,,,,,,,,1.1052,1,,,,,,,,,,,,,,,,,,,,,,,,0.508333333,-0.181481481,0,0,0,,,,,,,LITTER,C,z,y,./images/LITTER.png,,,,,,,,,,,,,,,,,,,,,z,1,1.1052,,,,,,,,0,117,117,162,1
,,,,,,,,,,,,,,,,,,26,2022-02-12_11h48.31.483,lexical_decision_task_DD_L4,2021.2.3,Win32,144.0299582,,,,,,,,,,,0.8165,1,,,,,,,,,,,,,,,,,,,,,,,,0.508333333,-0.181481481,0,0,0,,,,,,,MALLET,LB,z,y,./images/MALLETLB.png,,,,,,,,,,,,,,,,,,,,,z,1,0.8165,,,,,,,,0,118,118,134,1
,,,,,,,,,,,,,,,,,,26,2022-02-12_11h48.31.483,lexical_decision_task_DD_L4,2021.2.3,Win32,144.0299582,,,,,,,,,,,1.2534,1,,,,,,,,,,,,,,,,,,,,,,,,0.508333333,-0.181481481,0,0,0,,,,,,,COOKER,C,z,y,./images/COOKER.png,,,,,,,,,,,,,,,,,,,,,z,1,1.2534,,,,,,,,0,119,119,153,1
,,,,,,,,,,,,,,,,,,26,2022-02-12_11h48.31.483,lexical_decision_task_DD_L4,2021.2.3,Win32,144.0299582,,,,,,,,,,,0.7062,1,,,,,,,,,,,,,,,,,,,,,,,,0.508333333,-0.181481481,0,0,0,,,,,,,SQUARE,C,z,y,./images/SQUARE.png,,,,,,,,,,,,,,,,,,,,,z,1,0.7062,,,,,,,,0,120,120,90,1
,,,,,,,,,,,,,,,,,,26,2022-02-12_11h48.31.483,lexical_decision_task_DD_L4,2021.2.3,Win32,144.0299582,,,,,,,,,,,0.8066,1,,,,,,,,,,,,,,,,,,,,,,,,0.508333333,-0.181481481,0,0,0,,,,,,,CANDY,C,m,y,./images/CANDY.png,,,,,,,,,,,,,,,,,,,,,m,1,0.8066,,,,,,,,0,121,121,39,1
,,,,,,,,,,,,,,,,,,26,2022-02-12_11h48.31.483,lexical_decision_task_DD_L4,2021.2.3,Win32,144.0299582,,,,,,,,,,,0.7935,1,,,,,,,,,,,,,,,,,,,,,,,,0.508333333,-0.181481481,0,0,0,,,,,,,RHINO,C,z,y,./images/RHINO.png,,,,,,,,,,,,,,,,,,,,,z,1,0.7935,,,,,,,,0,122,122,93,1
,,,,,,,,,,,,,,,,,,26,2022-02-12_11h48.31.483,lexical_decision_task_DD_L4,2021.2.3,Win32,144.0299582,,,,,,,,,,,0.7041,1,,,,,,,,,,,,,,,,,,,,,,,,0.508333333,-0.181481481,0,0,0,,,,,,,PASTA,LB,z,y,./images/PASTALB.png,,,,,,,,,,,,,,,,,,,,,z,1,0.7041,,,,,,,,0,123,123,89,1
,,,,,,,,,,,,,,,,,,26,2022-02-12_11h48.31.483,lexical_decision_task_DD_L4,2021.2.3,Win32,144.0299582,,,,,,,,,,,0.9539,1,,,,,,,,,,,,,,,,,,,,,,,,0.508333333,-0.181481481,0,0,0,,,,,,,SHORE,C,z,y,./images/SHORE.png,,,,,,,,,,,,,,,,,,,,,z,1,0.9539,,,,,,,,0,124,124,96,1
,,,,,,,,,,,,,,,,,,26,2022-02-12_11h48.31.483,lexical_decision_task_DD_L4,2021.2.3,Win32,144.0299582,,,,,,,,,,,0.8209,1,,,,,,,,,,,,,,,,,,,,,,,,0.508333333,-0.181481481,0,0,0,space,,,,,,ATTIC,C,z,y,./images/ATTIC.png,2.042,,,,,,,,,,,,,,,,,,,,z,1,0.8209,,,,,,,,0,125,125,111,1
,,,,,,,,,,,,,,,,,,26,2022-02-12_11h48.31.483,lexical_decision_task_DD_L4,2021.2.3,Win32,144.0299582,,,,,,,,,,,0.9926,1,,,,,,,,,,,,,,,,,,,,,,,,0.508333333,-0.181481481,0,0,0,,,,,,,DANCER,C,m,y,./images/DANCER.png,,,,,,,,,,,,,,,,,,,,,m,1,0.9926,,,,,,,,0,126,126,21,1
,,,,,,,,,,,,,,,,,,26,2022-02-12_11h48.31.483,lexical_decision_task_DD_L4,2021.2.3,Win32,144.0299582,,,,,,,,,,,0.7271,1,,,,,,,,,,,,,,,,,,,,,,,,0.508333333,-0.181481481,0,0,0,,,,,,,DRUMS,HB,z,y,./images/DRUMSHB.png,,,,,,,,,,,,,,,,,,,,,z,1,0.7271,,,,,,,,0,127,127,133,1
,,,,,,,,,,,,,,,,,,26,2022-02-12_11h48.31.483,lexical_decision_task_DD_L4,2021.2.3,Win32,144.0299582,,,,,,,,,,,0.8682,1,,,,,,,,,,,,,,,,,,,,,,,,0.508333333,-0.181481481,0,0,0,,,,,,,CANYON,HB,z,y,./images/CANYONHB.png,,,,,,,,,,,,,,,,,,,,,z,1,0.8682,,,,,,,,0,128,128,118,1
,,,,,,,,,,,,,,,,,,26,2022-02-12_11h48.31.483,lexical_decision_task_DD_L4,2021.2.3,Win32,144.0299582,,,,,,,,,,,0.6961,1,,,,,,,,,,,,,,,,,,,,,,,,0.508333333,-0.181481481,0,0,0,,,,,,,CASINO,HB,m,y,./images/CASINOHB.png,,,,,,,,,,,,,,,,,,,,,m,1,0.6961,,,,,,,,0,129,129,28,1
,,,,,,,,,,,,,,,,,,26,2022-02-12_11h48.31.483,lexical_decision_task_DD_L4,2021.2.3,Win32,144.0299582,,,,,,,,,,,0.8181,1,,,,,,,,,,,,,,,,,,,,,,,,0.508333333,-0.181481481,0,0,0,,,,,,,PEBBLE,HB,m,y,./images/PEBBLEHB.png,,,,,,,,,,,,,,,,,,,,,m,1,0.8181,,,,,,,,0,130,130,82,1
,,,,,,,,,,,,,,,,,,26,2022-02-12_11h48.31.483,lexical_decision_task_DD_L4,2021.2.3,Win32,144.0299582,,,,,,,,,,,0.8281,0,,,,,,,,,,,,,,,,,,,,,,,,0.508333333,-0.181481481,0,0,0,,,,,,,CHERRY,C,m,y,./images/CHERRY.png,,,,,,,,,,,,,,,,,,,,,z,0,0.8281,,,,,,,,0,131,131,54,1
,,,,,,,,,,,,,,,,,,26,2022-02-12_11h48.31.483,lexical_decision_task_DD_L4,2021.2.3,Win32,144.0299582,,,,,,,,,,,0.7077,1,,,,,,,,,,,,,,,,,,,,,,,,0.508333333,-0.181481481,0,0,0,,,,,,,WHEEL,LB,m,y,./images/WHEELLB.png,,,,,,,,,,,,,,,,,,,,,m,1,0.7077,,,,,,,,0,132,132,77,1
,,,,,,,,,,,,,,,,,,26,2022-02-12_11h48.31.483,lexical_decision_task_DD_L4,2021.2.3,Win32,144.0299582,,,,,,,,,,,0.7376,1,,,,,,,,,,,,,,,,,,,,,,,,0.508333333,-0.181481481,0,0,0,,,,,,,BISHOP,HB,m,y,./images/BISHOPHB.png,,,,,,,,,,,,,,,,,,,,,m,1,0.7376,,,,,,,,0,133,133,49,1
,,,,,,,,,,,,,,,,,,26,2022-02-12_11h48.31.483,lexical_decision_task_DD_L4,2021.2.3,Win32,144.0299582,,,,,,,,,,,0.6672,1,,,,,,,,,,,,,,,,,,,,,,,,0.508333333,-0.181481481,0,0,0,,,,,,,PICKLE,LB,z,y,./images/PICKLELB.png,,,,,,,,,,,,,,,,,,,,,z,1,0.6672,,,,,,,,0,134,134,98,1
,,,,,,,,,,,,,,,,,,26,2022-02-12_11h48.31.483,lexical_decision_task_DD_L4,2021.2.3,Win32,144.0299582,,,,,,,,,,,0.771,1,,,,,,,,,,,,,,,,,,,,,,,,0.508333333,-0.181481481,0,0,0,,,,,,,PURSE,LB,z,y,./images/PURSELB.png,,,,,,,,,,,,,,,,,,,,,z,1,0.771,,,,,,,,0,135,135,146,1
,,,,,,,,,,,,,,,,,,26,2022-02-12_11h48.31.483,lexical_decision_task_DD_L4,2021.2.3,Win32,144.0299582,,,,,,,,,,,0.7727,0,,,,,,,,,,,,,,,,,,,,,,,,0.508333333,-0.181481481,0,0,0,,,,,,,BERRY,LB,z,y,./images/BERRYLB.png,,,,,,,,,,,,,,,,,,,,,m,0,0.7727,,,,,,,,0,136,136,131,1
,,,,,,,,,,,,,,,,,,26,2022-02-12_11h48.31.483,lexical_decision_task_DD_L4,2021.2.3,Win32,144.0299582,,,,,,,,,,,0.7309,1,,,,,,,,,,,,,,,,,,,,,,,,0.508333333,-0.181481481,0,0,0,,,,,,,POODLE,C,z,y,./images/POODLE.png,,,,,,,,,,,,,,,,,,,,,z,1,0.7309,,,,,,,,0,137,137,165,1
,,,,,,,,,,,,,,,,,,26,2022-02-12_11h48.31.483,lexical_decision_task_DD_L4,2021.2.3,Win32,144.0299582,,,,,,,,,,,0.8338,1,,,,,,,,,,,,,,,,,,,,,,,,0.508333333,-0.181481481,0,0,0,,,,,,,WALRUS,LB,z,y,./images/WALRUSLB.png,,,,,,,,,,,,,,,,,,,,,z,1,0.8338,,,,,,,,0,138,138,107,1
,,,,,,,,,,,,,,,,,,26,2022-02-12_11h48.31.483,lexical_decision_task_DD_L4,2021.2.3,Win32,144.0299582,,,,,,,,,,,0.6322,1,,,,,,,,,,,,,,,,,,,,,,,,0.508333333,-0.181481481,0,0,0,,,,,,,BEARD,LB,z,y,./images/BEARDLB.png,,,,,,,,,,,,,,,,,,,,,z,1,0.6322,,,,,,,,0,139,139,86,1
,,,,,,,,,,,,,,,,,,26,2022-02-12_11h48.31.483,lexical_decision_task_DD_L4,2021.2.3,Win32,144.0299582,,,,,,,,,,,0.8564,0,,,,,,,,,,,,,,,,,,,,,,,,0.508333333,-0.181481481,0,0,0,,,,,,,BARREL,LB,z,y,./images/BARRELLB.png,,,,,,,,,,,,,,,,,,,,,m,0,0.8564,,,,,,,,0,140,140,116,1
,,,,,,,,,,,,,,,,,,26,2022-02-12_11h48.31.483,lexical_decision_task_DD_L4,2021.2.3,Win32,144.0299582,,,,,,,,,,,0.7715,1,,,,,,,,,,,,,,,,,,,,,,,,0.508333333,-0.181481481,0,0,0,,,,,,,MOSQUE,HB,z,y,./images/MOSQUEHB.png,,,,,,,,,,,,,,,,,,,,,z,1,0.7715,,,,,,,,0,141,141,127,1
,,,,,,,,,,,,,,,,,,26,2022-02-12_11h48.31.483,lexical_decision_task_DD_L4,2021.2.3,Win32,144.0299582,,,,,,,,,,,0.7516,1,,,,,,,,,,,,,,,,,,,,,,,,0.508333333,-0.181481481,0,0,0,,,,,,,SUNSET,HB,z,y,./images/SUNSETHB.png,,,,,,,,,,,,,,,,,,,,,z,1,0.7516,,,,,,,,0,142,142,166,1
,,,,,,,,,,,,,,,,,,26,2022-02-12_11h48.31.483,lexical_decision_task_DD_L4,2021.2.3,Win32,144.0299582,,,,,,,,,,,0.7307,1,,,,,,,,,,,,,,,,,,,,,,,,0.508333333,-0.181481481,0,0,0,,,,,,,BABOON,HB,z,y,./images/BABOONHB.png,,,,,,,,,,,,,,,,,,,,,z,1,0.7307,,,,,,,,0,143,143,142,1
,,,,,,,,,,,,,,,,,,26,2022-02-12_11h48.31.483,lexical_decision_task_DD_L4,2021.2.3,Win32,144.0299582,,,,,,,,,,,0.7128,1,,,,,,,,,,,,,,,,,,,,,,,,0.508333333,-0.181481481,0,0,0,,,,,,,WAGON,HB,m,y,./images/WAGONHB.png,,,,,,,,,,,,,,,,,,,,,m,1,0.7128,,,,,,,,0,144,144,7,1
,,,,,,,,,,,,,,,,,,26,2022-02-12_11h48.31.483,lexical_decision_task_DD_L4,2021.2.3,Win32,144.0299582,,,,,,,,,,,0.7016,1,,,,,,,,,,,,,,,,,,,,,,,,0.508333333,-0.181481481,0,0,0,,,,,,,CRATER,C,m,y,./images/CRATER.png,,,,,,,,,,,,,,,,,,,,,m,1,0.7016,,,,,,,,0,145,145,3,1
,,,,,,,,,,,,,,,,,,26,2022-02-12_11h48.31.483,lexical_decision_task_DD_L4,2021.2.3,Win32,144.0299582,,,,,,,,,,,0.6966,1,,,,,,,,,,,,,,,,,,,,,,,,0.508333333,-0.181481481,0,0,0,,,,,,,TORCH,LB,z,y,./images/TORCHLB.png,,,,,,,,,,,,,,,,,,,,,z,1,0.6966,,,,,,,,0,146,146,152,1
,,,,,,,,,,,,,,,,,,26,2022-02-12_11h48.31.483,lexical_decision_task_DD_L4,2021.2.3,Win32,144.0299582,,,,,,,,,,,1.0338,0,,,,,,,,,,,,,,,,,,,,,,,,0.508333333,-0.181481481,0,0,0,,,,,,,SMOKER,LB,z,y,./images/SMOKERLB.png,,,,,,,,,,,,,,,,,,,,,m,0,1.0338,,,,,,,,0,147,147,110,1
,,,,,,,,,,,,,,,,,,26,2022-02-12_11h48.31.483,lexical_decision_task_DD_L4,2021.2.3,Win32,144.0299582,,,,,,,,,,,0.7011,1,,,,,,,,,,,,,,,,,,,,,,,,0.508333333,-0.181481481,0,0,0,,,,,,,SHIELD,C,m,y,./images/SHIELD.png,,,,,,,,,,,,,,,,,,,,,m,1,0.7011,,,,,,,,0,148,148,48,1
,,,,,,,,,,,,,,,,,,26,2022-02-12_11h48.31.483,lexical_decision_task_DD_L4,2021.2.3,Win32,144.0299582,,,,,,,,,,,0.744,1,,,,,,,,,,,,,,,,,,,,,,,,0.508333333,-0.181481481,0,0,0,,,,,,,PARCEL,C,m,y,./images/PARCEL.png,,,,,,,,,,,,,,,,,,,,,m,1,0.744,,,,,,,,0,149,149,18,1
,,,,,,,,,,,,,,,,,,26,2022-02-12_11h48.31.483,lexical_decision_task_DD_L4,2021.2.3,Win32,144.0299582,,,,,,,,,,,1.5857,1,,,,,,,,,,,,,,,,,,,,,,,,0.508333333,-0.181481481,0,0,0,,,,,,,SCREW,C,z,y,./images/SCREW.png,,,,,,,,,,,,,,,,,,,,,z,1,1.5857,,,,,,,,0,150,150,108,1
,,,,,,,,,,,,,,,,,,26,2022-02-12_11h48.31.483,lexical_decision_task_DD_L4,2021.2.3,Win32,144.0299582,,,,,,,,,,,1.3523,1,,,,,,,,,,,,,,,,,,,,,,,,0.508333333,-0.181481481,0,0,0,,,,,,,STORM,C,z,y,./images/STORM.png,,,,,,,,,,,,,,,,,,,,,z,1,1.3523,,,,,,,,0,151,151,114,1
,,,,,,,,,,,,,,,,,,26,2022-02-12_11h48.31.483,lexical_decision_task_DD_L4,2021.2.3,Win32,144.0299582,,,,,,,,,,,0.6873,1,,,,,,,,,,,,,,,,,,,,,,,,0.508333333,-0.181481481,0,0,0,,,,,,,CANOE,HB,m,y,./images/CANOEHB.png,,,,,,,,,,,,,,,,,,,,,m,1,0.6873,,,,,,,,0,152,152,58,1
,,,,,,,,,,,,,,,,,,26,2022-02-12_11h48.31.483,lexical_decision_task_DD_L4,2021.2.3,Win32,144.0299582,,,,,,,,,,,0.784,1,,,,,,,,,,,,,,,,,,,,,,,,0.508333333,-0.181481481,0,0,0,,,,,,,THROAT,C,z,y,./images/THROAT.png,,,,,,,,,,,,,,,,,,,,,z,1,0.784,,,,,,,,0,153,153,120,1
,,,,,,,,,,,,,,,,,,26,2022-02-12_11h48.31.483,lexical_decision_task_DD_L4,2021.2.3,Win32,144.0299582,,,,,,,,,,,0.972,1,,,,,,,,,,,,,,,,,,,,,,,,0.508333333,-0.181481481,0,0,0,,,,,,,DONKEY,HB,m,y,./images/DONKEYHB.png,,,,,,,,,,,,,,,,,,,,,m,1,0.972,,,,,,,,0,154,154,19,1
,,,,,,,,,,,,,,,,,,26,2022-02-12_11h48.31.483,lexical_decision_task_DD_L4,2021.2.3,Win32,144.0299582,,,,,,,,,,,0.6503,1,,,,,,,,,,,,,,,,,,,,,,,,0.508333333,-0.181481481,0,0,0,,,,,,,STATUE,C,m,y,./images/STATUE.png,,,,,,,,,,,,,,,,,,,,,m,1,0.6503,,,,,,,,0,155,155,66,1
,,,,,,,,,,,,,,,,,,26,2022-02-12_11h48.31.483,lexical_decision_task_DD_L4,2021.2.3,Win32,144.0299582,,,,,,,,,,,0.7572,1,,,,,,,,,,,,,,,,,,,,,,,,0.508333333,-0.181481481,0,0,0,,,,,,,CLIFF,LB,m,y,./images/CLIFFLB.png,,,,,,,,,,,,,,,,,,,,,m,1,0.7572,,,,,,,,0,156,156,8,1
,,,,,,,,,,,,,,,,,,26,2022-02-12_11h48.31.483,lexical_decision_task_DD_L4,2021.2.3,Win32,144.0299582,,,,,,,,,,,0.6774,1,,,,,,,,,,,,,,,,,,,,,,,,0.508333333,-0.181481481,0,0,0,,,,,,,SPORT,C,z,y,./images/SPORT.png,,,,,,,,,,,,,,,,,,,,,z,1,0.6774,,,,,,,,0,157,157,132,1
,,,,,,,,,,,,,,,,,,26,2022-02-12_11h48.31.483,lexical_decision_task_DD_L4,2021.2.3,Win32,144.0299582,,,,,,,,,,,0.8128,1,,,,,,,,,,,,,,,,,,,,,,,,0.508333333,-0.181481481,0,0,0,,,,,,,SAILOR,HB,z,y,./images/SAILORHB.png,,,,,,,,,,,,,,,,,,,,,z,1,0.8128,,,,,,,,0,158,158,151,1
,,,,,,,,,,,,,,,,,,26,2022-02-12_11h48.31.483,lexical_decision_task_DD_L4,2021.2.3,Win32,144.0299582,,,,,,,,,,,0.7363,1,,,,,,,,,,,,,,,,,,,,,,,,0.508333333,-0.181481481,0,0,0,,,,,,,TWINS,C,z,y,./images/TWINS.png,,,,,,,,,,,,,,,,,,,,,z,1,0.7363,,,,,,,,0,159,159,144,1
,,,,,,,,,,,,,,,,,,26,2022-02-12_11h48.31.483,lexical_decision_task_DD_L4,2021.2.3,Win32,144.0299582,,,,,,,,,,,0.7596,1,,,,,,,,,,,,,,,,,,,,,,,,0.508333333,-0.181481481,0,0,0,,,,,,,CARPET,LB,z,y,./images/CARPETLB.png,,,,,,,,,,,,,,,,,,,,,z,1,0.7596,,,,,,,,0,160,160,137,1
,,,,,,,,,,,,,,,,,,26,2022-02-12_11h48.31.483,lexical_decision_task_DD_L4,2021.2.3,Win32,144.0299582,,,,,,,,,,,0.7569,1,,,,,,,,,,,,,,,,,,,,,,,,0.508333333,-0.181481481,0,0,0,,,,,,,ONION,C,z,y,./images/ONION.png,,,,,,,,,,,,,,,,,,,,,z,1,0.7569,,,,,,,,0,161,161,135,1
,,,,,,,,,,,,,,,,,,26,2022-02-12_11h48.31.483,lexical_decision_task_DD_L4,2021.2.3,Win32,144.0299582,,,,,,,,,,,0.919,1,,,,,,,,,,,,,,,,,,,,,,,,0.508333333,-0.181481481,0,0,0,,,,,,,PAINT,HB,z,y,./images/PAINTHB.png,,,,,,,,,,,,,,,,,,,,,z,1,0.919,,,,,,,,0,162,162,91,1
,,,,,,,,,,,,,,,,,,26,2022-02-12_11h48.31.483,lexical_decision_task_DD_L4,2021.2.3,Win32,144.0299582,,,,,,,,,,,0.674,1,,,,,,,,,,,,,,,,,,,,,,,,0.508333333,-0.181481481,0,0,0,,,,,,,JUMPER,LB,m,y,./images/JUMPERLB.png,,,,,,,,,,,,,,,,,,,,,m,1,0.674,,,,,,,,0,163,163,74,1
,,,,,,,,,,,,,,,,,,26,2022-02-12_11h48.31.483,lexical_decision_task_DD_L4,2021.2.3,Win32,144.0299582,,,,,,,,,,,0.8407,1,,,,,,,,,,,,,,,,,,,,,,,,0.508333333,-0.181481481,0,0,0,,,,,,,CRADLE,LB,z,y,./images/CRADLELB.png,,,,,,,,,,,,,,,,,,,,,z,1,0.8407,,,,,,,,0,164,164,104,1
,,,,,,,,,,,,,,,,,,26,2022-02-12_11h48.31.483,lexical_decision_task_DD_L4,2021.2.3,Win32,144.0299582,,,,,,,,,,,1,1,,,,,,,,,,,,,,,,,,,,,,,,0.508333333,-0.181481481,0,0,0,,,,,,,JELLY,HB,z,y,./images/JELLYHB.png,,,,,,,,,,,,,,,,,,,,,z,1,1,,,,,,,,0,165,165,148,1
,,,,,,,,,,,,,,,,,,26,2022-02-12_11h48.31.483,lexical_decision_task_DD_L4,2021.2.3,Win32,144.0299582,,,,,,,,,,,0.8899,1,,,,,,,,,,,,,,,,,,,,,,,,0.508333333,-0.181481481,0,0,0,,,,,,,PLANK,HB,z,y,./images/PLANKHB.png,,,,,,,,,,,,,,,,,,,,,z,1,0.8899,,,,,,,,0,166,166,85,1
