key_resp.keys,key_resp.rt,instr_done_touch.x,instr_done_touch.y,instr_done_touch.leftButton,instr_done_touch.midButton,instr_done_touch.rightButton,instruction_pages.thisRepN,instruction_pages.thisTrialN,instruction_pages.thisN,instruction_pages.thisIndex,instruction_pages.ran,pageN,phase,instruct_text,has_image,instruct_image,participant,age,date,expName,psychopyVersion,OS,frameRate,response.keys,response.corr,response.rt,touch_resp.x,touch_resp.y,touch_resp.leftButton,touch_resp.midButton,touch_resp.rightButton,touch_resp.time,touch_resp.clicked_name,rt,corr,practrials.thisRepN,practrials.thisTrialN,practrials.thisN,practrials.thisIndex,practrials.ran,TrialID,Target,corrAns,end_of_practice_trials_pages.thisRepN,end_of_practice_trials_pages.thisTrialN,end_of_practice_trials_pages.thisN,end_of_practice_trials_pages.thisIndex,end_of_practice_trials_pages.ran,key_resp_2.keys,key_resp_2.corr,key_resp_2.rt,targ_click.x,targ_click.y,targ_click.leftButton,targ_click.midButton,targ_click.rightButton,targ_click.time,targ_click.clicked_name,break_done_touch.x,break_done_touch.y,break_done_touch.leftButton,break_done_touch.midButton,break_done_touch.rightButton,break_done_keyboard.keys,maintrials.thisRepN,maintrials.thisTrialN,maintrials.thisN,maintrials.thisIndex,maintrials.ran,string,blur,study,lex,stim_path,break_done_keyboard.rt,mouse_2.x,mouse_2.y,mouse_2.leftButton,mouse_2.midButton,mouse_2.rightButton,mouse_2.clicked_name,slider.response,slider.rt,trials.thisRepN,trials.thisTrialN,trials.thisN,trials.thisIndex,trials.ran,test_instructions.thisRepN,test_instructions.thisTrialN,test_instructions.thisN,test_instructions.thisIndex,test_instructions.ran,instr_done_touch.clicked_name,key_resp_3.keys,key_resp_3.corr,key_resp_3.rt,test_click.x,test_click.y,test_click.leftButton,test_click.midButton,test_click.rightButton,test_click.time,test_click.clicked_name,test_phase.thisRepN,test_phase.thisTrialN,test_phase.thisN,test_phase.thisIndex,test_phase.ran
space,23.6657,0.434546318,-0.172058956,0,0,0,0,0,0,0,1,1,instructions,"INSTRUCTIONS
At the start of each trial, look at the plus sign  (+) in the center of the screen.  This tells you that a trial is about to begin and where to look. Second, the plus sign will disappear and a string of letters will appear. Your task is to determine if the string of letters is a word or not. If the item is a word press the M key (on keyboard)  or touch the word button (phone/tablet).  If the item is not a word,  press the  Z key (on keyboard)  or touch the nonword button (on phone/tablet). 
Press the space bar or touch  continue.",0,,,19,2022-02-12_16h53.30.779,lexical_decision_task_DD_L4,2021.2.3,Linux x86_64,60.0060006,,,,,,,,,,,,,,,,,,,,,,,,,,,,,,,,,,,,,,,,,,,,,,,,,,,,,,,,,,,,,,,,,,,,,,,,,,,,,,,,,,,,,,
space,6.3215,0.434546318,-0.172058956,0,0,0,0,1,1,1,1,2,instructions,"If your device has a keyboard, press the 'Z' key for nonwords and the 'M' key for words.





Press the space bar or touch the button below to continue.",0,keyboard-example.gif,,19,2022-02-12_16h53.30.779,lexical_decision_task_DD_L4,2021.2.3,Linux x86_64,60.0060006,,,,,,,,,,,,,,,,,,,,,,,,,,,,,,,,,,,,,,,,,,,,,,,,,,,,,,,,,,,,,,,,,,,,,,,,,,,,,,,,,,,,,,
space,5.0086,0.434546318,-0.172058956,0,0,0,0,2,2,2,1,3,instructions,"If you are using a touchscreen only device, use the buttons on the screen. Do not use the mouse.





Press the space bar or touch the button below to continue.",0,touchscreen-example.gif,,19,2022-02-12_16h53.30.779,lexical_decision_task_DD_L4,2021.2.3,Linux x86_64,60.0060006,,,,,,,,,,,,,,,,,,,,,,,,,,,,,,,,,,,,,,,,,,,,,,,,,,,,,,,,,,,,,,,,,,,,,,,,,,,,,,,,,,,,,,
space,9.6836,0.434546318,-0.172058956,0,0,0,0,3,3,3,1,4,instructions,"It is very important that you respond as quickly and accurately as possible, as each letter string will only be on the screen for two seconds. If you do not respond within this time, the message 'Too slow!' will be displayed and the experiment will progress to the next letter string. The first 20 trials will be practice trials and you will receive feedback on your answers. 

Press the space bar or touch the button below to start the practice trials.",0,,,19,2022-02-12_16h53.30.779,lexical_decision_task_DD_L4,2021.2.3,Linux x86_64,60.0060006,,,,,,,,,,,,,,,,,,,,,,,,,,,,,,,,,,,,,,,,,,,,,,,,,,,,,,,,,,,,,,,,,,,,,,,,,,,,,,,,,,,,,,
,,,,,,,,,,,,,,,,,,19,2022-02-12_16h53.30.779,lexical_decision_task_DD_L4,2021.2.3,Linux x86_64,60.0060006,z,1,1.3226,,,,,,,,1.3226,1,0,0,0,11,1,1001,RASHET,z,,,,,,,,,,,,,,,,,,,,,,,,,,,,,,,,,,,,,,,,,,,,,,,,,,,,,,,,,,,,,,,,,,
,,,,,,,,,,,,,,,,,,19,2022-02-12_16h53.30.779,lexical_decision_task_DD_L4,2021.2.3,Linux x86_64,60.0060006,m,1,0.664,,,,,,,,0.664,1,0,1,1,2,1,1001,ALMOND,m,,,,,,,,,,,,,,,,,,,,,,,,,,,,,,,,,,,,,,,,,,,,,,,,,,,,,,,,,,,,,,,,,,
,,,,,,,,,,,,,,,,,,19,2022-02-12_16h53.30.779,lexical_decision_task_DD_L4,2021.2.3,Linux x86_64,60.0060006,m,1,0.595,,,,,,,,0.595,1,0,2,2,4,1,1001,SQUEAK,m,,,,,,,,,,,,,,,,,,,,,,,,,,,,,,,,,,,,,,,,,,,,,,,,,,,,,,,,,,,,,,,,,,
,,,,,,,,,,,,,,,,,,19,2022-02-12_16h53.30.779,lexical_decision_task_DD_L4,2021.2.3,Linux x86_64,60.0060006,m,1,0.5306,,,,,,,,0.5306,1,0,3,3,7,1,1001,VOLUME,m,,,,,,,,,,,,,,,,,,,,,,,,,,,,,,,,,,,,,,,,,,,,,,,,,,,,,,,,,,,,,,,,,,
,,,,,,,,,,,,,,,,,,19,2022-02-12_16h53.30.779,lexical_decision_task_DD_L4,2021.2.3,Linux x86_64,60.0060006,z,1,0.5256,,,,,,,,0.5256,1,0,4,4,13,1,1001,ROUPET,z,,,,,,,,,,,,,,,,,,,,,,,,,,,,,,,,,,,,,,,,,,,,,,,,,,,,,,,,,,,,,,,,,,
,,,,,,,,,,,,,,,,,,19,2022-02-12_16h53.30.779,lexical_decision_task_DD_L4,2021.2.3,Linux x86_64,60.0060006,m,0,0.8145,,,,,,,,0.8145,0,0,5,5,10,1,1001,INLADE,z,,,,,,,,,,,,,,,,,,,,,,,,,,,,,,,,,,,,,,,,,,,,,,,,,,,,,,,,,,,,,,,,,,
,,,,,,,,,,,,,,,,,,19,2022-02-12_16h53.30.779,lexical_decision_task_DD_L4,2021.2.3,Linux x86_64,60.0060006,m,1,0.548,,,,,,,,0.548,1,0,6,6,6,1,1001,ZOMBIE,m,,,,,,,,,,,,,,,,,,,,,,,,,,,,,,,,,,,,,,,,,,,,,,,,,,,,,,,,,,,,,,,,,,
,,,,,,,,,,,,,,,,,,19,2022-02-12_16h53.30.779,lexical_decision_task_DD_L4,2021.2.3,Linux x86_64,60.0060006,m,1,0.614,,,,,,,,0.614,1,0,7,7,3,1,1001,MATRIX,m,,,,,,,,,,,,,,,,,,,,,,,,,,,,,,,,,,,,,,,,,,,,,,,,,,,,,,,,,,,,,,,,,,
,,,,,,,,,,,,,,,,,,19,2022-02-12_16h53.30.779,lexical_decision_task_DD_L4,2021.2.3,Linux x86_64,60.0060006,z,1,0.6624,,,,,,,,0.6624,1,0,8,8,8,1,1001,ASLERT,z,,,,,,,,,,,,,,,,,,,,,,,,,,,,,,,,,,,,,,,,,,,,,,,,,,,,,,,,,,,,,,,,,,
,,,,,,,,,,,,,,,,,,19,2022-02-12_16h53.30.779,lexical_decision_task_DD_L4,2021.2.3,Linux x86_64,60.0060006,z,1,0.7469,,,,,,,,0.7469,1,0,9,9,15,1,1001,WHAISE,z,,,,,,,,,,,,,,,,,,,,,,,,,,,,,,,,,,,,,,,,,,,,,,,,,,,,,,,,,,,,,,,,,,
,,,,,,,,,,,,,,,,,,19,2022-02-12_16h53.30.779,lexical_decision_task_DD_L4,2021.2.3,Linux x86_64,60.0060006,z,0,0.5565,,,,,,,,0.5565,0,0,10,10,0,1,1001,UTOPIA,m,,,,,,,,,,,,,,,,,,,,,,,,,,,,,,,,,,,,,,,,,,,,,,,,,,,,,,,,,,,,,,,,,,
,,,,,,,,,,,,,,,,,,19,2022-02-12_16h53.30.779,lexical_decision_task_DD_L4,2021.2.3,Linux x86_64,60.0060006,z,1,0.8118,,,,,,,,0.8118,1,0,11,11,9,1,1001,FARINY,z,,,,,,,,,,,,,,,,,,,,,,,,,,,,,,,,,,,,,,,,,,,,,,,,,,,,,,,,,,,,,,,,,,
,,,,,,,,,,,,,,,,,,19,2022-02-12_16h53.30.779,lexical_decision_task_DD_L4,2021.2.3,Linux x86_64,60.0060006,m,1,0.5497,,,,,,,,0.5497,1,0,12,12,1,1,1001,ADJUST,m,,,,,,,,,,,,,,,,,,,,,,,,,,,,,,,,,,,,,,,,,,,,,,,,,,,,,,,,,,,,,,,,,,
,,,,,,,,,,,,,,,,,,19,2022-02-12_16h53.30.779,lexical_decision_task_DD_L4,2021.2.3,Linux x86_64,60.0060006,m,1,0.5796,,,,,,,,0.5796,1,0,13,13,5,1,1001,OBTAIN,m,,,,,,,,,,,,,,,,,,,,,,,,,,,,,,,,,,,,,,,,,,,,,,,,,,,,,,,,,,,,,,,,,,
,,,,,,,,,,,,,,,,,,19,2022-02-12_16h53.30.779,lexical_decision_task_DD_L4,2021.2.3,Linux x86_64,60.0060006,z,1,0.6503,,,,,,,,0.6503,1,0,14,14,14,1,1001,THRALE,z,,,,,,,,,,,,,,,,,,,,,,,,,,,,,,,,,,,,,,,,,,,,,,,,,,,,,,,,,,,,,,,,,,
,,,,,,,,,,,,,,,,,,19,2022-02-12_16h53.30.779,lexical_decision_task_DD_L4,2021.2.3,Linux x86_64,60.0060006,z,1,0.6473,,,,,,,,0.6473,1,0,15,15,12,1,1001,SPRINY,z,,,,,,,,,,,,,,,,,,,,,,,,,,,,,,,,,,,,,,,,,,,,,,,,,,,,,,,,,,,,,,,,,,
space,7.1202,0.434546318,-0.172058956,0,0,0,,,,,,1,end_of_practice,"You have completed the practice trials. During the experimental trials, you will not receive feedback. 
Before you begin, please ensure that you are in a comfortable and quiet location and will not be disturbed for about 15 minutes, as we cannot use your data if you do not complete all the trials. 
 When you are ready to start the experimental trials, please press space or touch the button below.",,,,19,2022-02-12_16h53.30.779,lexical_decision_task_DD_L4,2021.2.3,Linux x86_64,60.0060006,,,,,,,,,,,,,,,,,,,,,0,0,0,0,1,,,,,,,,,,,,,,,,,,,,,,,,,,,,,,,,,,,,,,,,,,,,,,,,,,,,,,,,,,,,,
,,,,,,,,,,,,,,,,,,19,2022-02-12_16h53.30.779,lexical_decision_task_DD_L4,2021.2.3,Linux x86_64,60.0060006,,,,,,,,,,,1.0396,1,,,,,,,,,,,,,,z,1,1.0396,,,,,,,,0.434546318,-0.172058956,0,0,0,,0,0,0,91,1,SHENS,HB,old,z,./images/SHENSHB.png,,,,,,,,,,,,,,,,,,,,,,,,,,,,,,,,,,,
,,,,,,,,,,,,,,,,,,19,2022-02-12_16h53.30.779,lexical_decision_task_DD_L4,2021.2.3,Linux x86_64,60.0060006,,,,,,,,,,,2.0031,1,,,,,,,,,,,,,,z,1,2.0031,,,,,,,,0.434546318,-0.172058956,0,0,0,,0,1,1,115,1,MAWNS,HB,old,z,./images/MAWNSHB.png,,,,,,,,,,,,,,,,,,,,,,,,,,,,,,,,,,,
,,,,,,,,,,,,,,,,,,19,2022-02-12_16h53.30.779,lexical_decision_task_DD_L4,2021.2.3,Linux x86_64,60.0060006,,,,,,,,,,,2.2897,0,,,,,,,,,,,,,,m,0,2.2897,,,,,,,,0.434546318,-0.172058956,0,0,0,,0,2,2,114,1,RIKES,C,old,z,./images/RIKES.png,,,,,,,,,,,,,,,,,,,,,,,,,,,,,,,,,,,
,,,,,,,,,,,,,,,,,,19,2022-02-12_16h53.30.779,lexical_decision_task_DD_L4,2021.2.3,Linux x86_64,60.0060006,,,,,,,,,,,1.9403,1,,,,,,,,,,,,,,z,1,1.9403,,,,,,,,0.434546318,-0.172058956,0,0,0,,0,3,3,154,1,THINT,HB,old,z,./images/THINTHB.png,,,,,,,,,,,,,,,,,,,,,,,,,,,,,,,,,,,
,,,,,,,,,,,,,,,,,,19,2022-02-12_16h53.30.779,lexical_decision_task_DD_L4,2021.2.3,Linux x86_64,60.0060006,,,,,,,,,,,3.0721,1,,,,,,,,,,,,,,z,1,3.0721,,,,,,,,0.434546318,-0.172058956,0,0,0,,0,4,4,152,1,FRAIN,LB,old,z,./images/FRAINLB.png,,,,,,,,,,,,,,,,,,,,,,,,,,,,,,,,,,,
,,,,,,,,,,,,,,,,,,19,2022-02-12_16h53.30.779,lexical_decision_task_DD_L4,2021.2.3,Linux x86_64,60.0060006,,,,,,,,,,,2.3759,1,,,,,,,,,,,,,,z,1,2.3759,,,,,,,,0.434546318,-0.172058956,0,0,0,,0,5,5,129,1,PRANS,C,old,z,./images/PRANS.png,,,,,,,,,,,,,,,,,,,,,,,,,,,,,,,,,,,
,,,,,,,,,,,,,,,,,,19,2022-02-12_16h53.30.779,lexical_decision_task_DD_L4,2021.2.3,Linux x86_64,60.0060006,,,,,,,,,,,3.3681,1,,,,,,,,,,,,,,z,1,3.3681,,,,,,,,0.434546318,-0.172058956,0,0,0,,0,6,6,94,1,BLANS,HB,old,z,./images/BLANSHB.png,,,,,,,,,,,,,,,,,,,,,,,,,,,,,,,,,,,
,,,,,,,,,,,,,,,,,,19,2022-02-12_16h53.30.779,lexical_decision_task_DD_L4,2021.2.3,Linux x86_64,60.0060006,,,,,,,,,,,0.686,1,,,,,,,,,,,,,,m,1,0.686,,,,,,,,0.434546318,-0.172058956,0,0,0,,0,7,7,57,1,FERRY,C,old,m,./images/FERRY.png,,,,,,,,,,,,,,,,,,,,,,,,,,,,,,,,,,,
,,,,,,,,,,,,,,,,,,19,2022-02-12_16h53.30.779,lexical_decision_task_DD_L4,2021.2.3,Linux x86_64,60.0060006,,,,,,,,,,,2.073,1,,,,,,,,,,,,,,z,1,2.073,,,,,,,,0.434546318,-0.172058956,0,0,0,,0,8,8,166,1,SHORY,HB,old,z,./images/SHORYHB.png,,,,,,,,,,,,,,,,,,,,,,,,,,,,,,,,,,,
,,,,,,,,,,,,,,,,,,19,2022-02-12_16h53.30.779,lexical_decision_task_DD_L4,2021.2.3,Linux x86_64,60.0060006,,,,,,,,,,,0.6115,1,,,,,,,,,,,,,,m,1,0.6115,,,,,,,,0.434546318,-0.172058956,0,0,0,,0,9,9,30,1,SLOPE,C,old,m,./images/SLOPE.png,,,,,,,,,,,,,,,,,,,,,,,,,,,,,,,,,,,
,,,,,,,,,,,,,,,,,,19,2022-02-12_16h53.30.779,lexical_decision_task_DD_L4,2021.2.3,Linux x86_64,60.0060006,,,,,,,,,,,1.4723,1,,,,,,,,,,,,,,m,1,1.4723,,,,,,,,0.434546318,-0.172058956,0,0,0,,0,10,10,82,1,PEBBLE,HB,old,m,./images/PEBBLEHB.png,,,,,,,,,,,,,,,,,,,,,,,,,,,,,,,,,,,
,,,,,,,,,,,,,,,,,,19,2022-02-12_16h53.30.779,lexical_decision_task_DD_L4,2021.2.3,Linux x86_64,60.0060006,,,,,,,,,,,1.4356,1,,,,,,,,,,,,,,z,1,1.4356,,,,,,,,0.434546318,-0.172058956,0,0,0,,0,11,11,85,1,CHULK,HB,old,z,./images/CHULKHB.png,,,,,,,,,,,,,,,,,,,,,,,,,,,,,,,,,,,
,,,,,,,,,,,,,,,,,,19,2022-02-12_16h53.30.779,lexical_decision_task_DD_L4,2021.2.3,Linux x86_64,60.0060006,,,,,,,,,,,0.7071,1,,,,,,,,,,,,,,m,1,0.7071,,,,,,,,0.434546318,-0.172058956,0,0,0,,0,12,12,27,1,BUTTER,C,old,m,./images/BUTTER.png,,,,,,,,,,,,,,,,,,,,,,,,,,,,,,,,,,,
,,,,,,,,,,,,,,,,,,19,2022-02-12_16h53.30.779,lexical_decision_task_DD_L4,2021.2.3,Linux x86_64,60.0060006,,,,,,,,,,,1.5686,1,,,,,,,,,,,,,,z,1,1.5686,,,,,,,,0.434546318,-0.172058956,0,0,0,,0,13,13,130,1,CRILL,HB,old,z,./images/CRILLHB.png,,,,,,,,,,,,,,,,,,,,,,,,,,,,,,,,,,,
,,,,,,,,,,,,,,,,,,19,2022-02-12_16h53.30.779,lexical_decision_task_DD_L4,2021.2.3,Linux x86_64,60.0060006,,,,,,,,,,,1.0542,0,,,,,,,,,,,,,,z,0,1.0542,,,,,,,,0.434546318,-0.172058956,0,0,0,,0,14,14,12,1,BLOKE,C,old,m,./images/BLOKE.png,,,,,,,,,,,,,,,,,,,,,,,,,,,,,,,,,,,
,,,,,,,,,,,,,,,,,,19,2022-02-12_16h53.30.779,lexical_decision_task_DD_L4,2021.2.3,Linux x86_64,60.0060006,,,,,,,,,,,1.7366,1,,,,,,,,,,,,,,z,1,1.7366,,,,,,,,0.434546318,-0.172058956,0,0,0,,0,15,15,121,1,CEERS,HB,old,z,./images/CEERSHB.png,,,,,,,,,,,,,,,,,,,,,,,,,,,,,,,,,,,
,,,,,,,,,,,,,,,,,,19,2022-02-12_16h53.30.779,lexical_decision_task_DD_L4,2021.2.3,Linux x86_64,60.0060006,,,,,,,,,,,0.5896,1,,,,,,,,,,,,,,m,1,0.5896,,,,,,,,0.434546318,-0.172058956,0,0,0,,0,16,16,51,1,SAUCE,C,old,m,./images/SAUCE.png,,,,,,,,,,,,,,,,,,,,,,,,,,,,,,,,,,,
,,,,,,,,,,,,,,,,,,19,2022-02-12_16h53.30.779,lexical_decision_task_DD_L4,2021.2.3,Linux x86_64,60.0060006,,,,,,,,,,,2.0725,1,,,,,,,,,,,,,,m,1,2.0725,,,,,,,,0.434546318,-0.172058956,0,0,0,,0,17,17,73,1,GLOVE,HB,old,m,./images/GLOVEHB.png,,,,,,,,,,,,,,,,,,,,,,,,,,,,,,,,,,,
,,,,,,,,,,,,,,,,,,19,2022-02-12_16h53.30.779,lexical_decision_task_DD_L4,2021.2.3,Linux x86_64,60.0060006,,,,,,,,,,,2.0307,1,,,,,,,,,,,,,,m,1,2.0307,,,,,,,,0.434546318,-0.172058956,0,0,0,,0,18,18,58,1,CANOE,HB,old,m,./images/CANOEHB.png,,,,,,,,,,,,,,,,,,,,,,,,,,,,,,,,,,,
,,,,,,,,,,,,,,,,,,19,2022-02-12_16h53.30.779,lexical_decision_task_DD_L4,2021.2.3,Linux x86_64,60.0060006,,,,,,,,,,,0.6286,1,,,,,,,,,,,,,,z,1,0.6286,,,,,,,,0.434546318,-0.172058956,0,0,0,,0,19,19,147,1,ZOLES,C,old,z,./images/ZOLES.png,,,,,,,,,,,,,,,,,,,,,,,,,,,,,,,,,,,
,,,,,,,,,,,,,,,,,,19,2022-02-12_16h53.30.779,lexical_decision_task_DD_L4,2021.2.3,Linux x86_64,60.0060006,,,,,,,,,,,0.8347,1,,,,,,,,,,,,,,z,1,0.8347,,,,,,,,0.434546318,-0.172058956,0,0,0,,0,20,20,95,1,HANTY,LB,old,z,./images/HANTYLB.png,,,,,,,,,,,,,,,,,,,,,,,,,,,,,,,,,,,
,,,,,,,,,,,,,,,,,,19,2022-02-12_16h53.30.779,lexical_decision_task_DD_L4,2021.2.3,Linux x86_64,60.0060006,,,,,,,,,,,1.1912,1,,,,,,,,,,,,,,m,1,1.1912,,,,,,,,0.434546318,-0.172058956,0,0,0,,0,21,21,31,1,STEAK,HB,old,m,./images/STEAKHB.png,,,,,,,,,,,,,,,,,,,,,,,,,,,,,,,,,,,
,,,,,,,,,,,,,,,,,,19,2022-02-12_16h53.30.779,lexical_decision_task_DD_L4,2021.2.3,Linux x86_64,60.0060006,,,,,,,,,,,1.6236,1,,,,,,,,,,,,,,z,1,1.6236,,,,,,,,0.434546318,-0.172058956,0,0,0,,0,22,22,100,1,DRIBS,HB,old,z,./images/DRIBSHB.png,,,,,,,,,,,,,,,,,,,,,,,,,,,,,,,,,,,
,,,,,,,,,,,,,,,,,,19,2022-02-12_16h53.30.779,lexical_decision_task_DD_L4,2021.2.3,Linux x86_64,60.0060006,,,,,,,,,,,0.5351,1,,,,,,,,,,,,,,m,1,0.5351,,,,,,,,0.434546318,-0.172058956,0,0,0,,0,23,23,50,1,PILOT,LB,old,m,./images/PILOTLB.png,,,,,,,,,,,,,,,,,,,,,,,,,,,,,,,,,,,
,,,,,,,,,,,,,,,,,,19,2022-02-12_16h53.30.779,lexical_decision_task_DD_L4,2021.2.3,Linux x86_64,60.0060006,,,,,,,,,,,0.7429,1,,,,,,,,,,,,,,z,1,0.7429,,,,,,,,0.434546318,-0.172058956,0,0,0,,0,24,24,119,1,PAFER,LB,old,z,./images/PAFERLB.png,,,,,,,,,,,,,,,,,,,,,,,,,,,,,,,,,,,
,,,,,,,,,,,,,,,,,,19,2022-02-12_16h53.30.779,lexical_decision_task_DD_L4,2021.2.3,Linux x86_64,60.0060006,,,,,,,,,,,0.6739,1,,,,,,,,,,,,,,m,1,0.6739,,,,,,,,0.434546318,-0.172058956,0,0,0,,0,25,25,40,1,SNAKE,HB,old,m,./images/SNAKEHB.png,,,,,,,,,,,,,,,,,,,,,,,,,,,,,,,,,,,
,,,,,,,,,,,,,,,,,,19,2022-02-12_16h53.30.779,lexical_decision_task_DD_L4,2021.2.3,Linux x86_64,60.0060006,,,,,,,,,,,0.8376,1,,,,,,,,,,,,,,m,1,0.8376,,,,,,,,0.434546318,-0.172058956,0,0,0,,0,26,26,18,1,PARCEL,C,old,m,./images/PARCEL.png,,,,,,,,,,,,,,,,,,,,,,,,,,,,,,,,,,,
,,,,,,,,,,,,,,,,,,19,2022-02-12_16h53.30.779,lexical_decision_task_DD_L4,2021.2.3,Linux x86_64,60.0060006,,,,,,,,,,,0.9388,1,,,,,,,,,,,,,,m,1,0.9388,,,,,,,,0.434546318,-0.172058956,0,0,0,,0,27,27,4,1,BOXER,HB,old,m,./images/BOXERHB.png,,,,,,,,,,,,,,,,,,,,,,,,,,,,,,,,,,,
,,,,,,,,,,,,,,,,,,19,2022-02-12_16h53.30.779,lexical_decision_task_DD_L4,2021.2.3,Linux x86_64,60.0060006,,,,,,,,,,,0.9373,1,,,,,,,,,,,,,,z,1,0.9373,,,,,,,,0.434546318,-0.172058956,0,0,0,,0,28,28,112,1,MYING,HB,old,z,./images/MYINGHB.png,,,,,,,,,,,,,,,,,,,,,,,,,,,,,,,,,,,
,,,,,,,,,,,,,,,,,,19,2022-02-12_16h53.30.779,lexical_decision_task_DD_L4,2021.2.3,Linux x86_64,60.0060006,,,,,,,,,,,1.0192,1,,,,,,,,,,,,,,m,1,1.0192,,,,,,,,0.434546318,-0.172058956,0,0,0,,0,29,29,28,1,CASINO,HB,old,m,./images/CASINOHB.png,,,,,,,,,,,,,,,,,,,,,,,,,,,,,,,,,,,
,,,,,,,,,,,,,,,,,,19,2022-02-12_16h53.30.779,lexical_decision_task_DD_L4,2021.2.3,Linux x86_64,60.0060006,,,,,,,,,,,1.4386,1,,,,,,,,,,,,,,m,1,1.4386,,,,,,,,0.434546318,-0.172058956,0,0,0,,0,30,30,64,1,BRIDE,HB,old,m,./images/BRIDEHB.png,,,,,,,,,,,,,,,,,,,,,,,,,,,,,,,,,,,
,,,,,,,,,,,,,,,,,,19,2022-02-12_16h53.30.779,lexical_decision_task_DD_L4,2021.2.3,Linux x86_64,60.0060006,,,,,,,,,,,0.6454,1,,,,,,,,,,,,,,z,1,0.6454,,,,,,,,0.434546318,-0.172058956,0,0,0,,0,31,31,137,1,JOOST,LB,old,z,./images/JOOSTLB.png,,,,,,,,,,,,,,,,,,,,,,,,,,,,,,,,,,,
,,,,,,,,,,,,,,,,,,19,2022-02-12_16h53.30.779,lexical_decision_task_DD_L4,2021.2.3,Linux x86_64,60.0060006,,,,,,,,,,,0.6843,0,,,,,,,,,,,,,,m,0,0.6843,,,,,,,,0.434546318,-0.172058956,0,0,0,,0,32,32,110,1,CRUNK,LB,old,z,./images/CRUNKLB.png,,,,,,,,,,,,,,,,,,,,,,,,,,,,,,,,,,,
,,,,,,,,,,,,,,,,,,19,2022-02-12_16h53.30.779,lexical_decision_task_DD_L4,2021.2.3,Linux x86_64,60.0060006,,,,,,,,,,,1.1691,1,,,,,,,,,,,,,,m,1,1.1691,,,,,,,,0.434546318,-0.172058956,0,0,0,,0,33,33,23,1,CLOTH,LB,old,m,./images/CLOTHLB.png,,,,,,,,,,,,,,,,,,,,,,,,,,,,,,,,,,,
,,,,,,,,,,,,,,,,,,19,2022-02-12_16h53.30.779,lexical_decision_task_DD_L4,2021.2.3,Linux x86_64,60.0060006,,,,,,,,,,,0.5396,1,,,,,,,,,,,,,,z,1,0.5396,,,,,,,,0.434546318,-0.172058956,0,0,0,,0,34,34,141,1,PLEET,C,old,z,./images/PLEET.png,,,,,,,,,,,,,,,,,,,,,,,,,,,,,,,,,,,
,,,,,,,,,,,,,,,,,,19,2022-02-12_16h53.30.779,lexical_decision_task_DD_L4,2021.2.3,Linux x86_64,60.0060006,,,,,,,,,,,0.6731,1,,,,,,,,,,,,,,m,1,0.6731,,,,,,,,0.434546318,-0.172058956,0,0,0,,0,35,35,29,1,PISTOL,LB,old,m,./images/PISTOLLB.png,,,,,,,,,,,,,,,,,,,,,,,,,,,,,,,,,,,
,,,,,,,,,,,,,,,,,,19,2022-02-12_16h53.30.779,lexical_decision_task_DD_L4,2021.2.3,Linux x86_64,60.0060006,,,,,,,,,,,0.6845,1,,,,,,,,,,,,,,z,1,0.6845,,,,,,,,0.434546318,-0.172058956,0,0,0,,0,36,36,151,1,TINKY,HB,old,z,./images/TINKYHB.png,,,,,,,,,,,,,,,,,,,,,,,,,,,,,,,,,,,
,,,,,,,,,,,,,,,,,,19,2022-02-12_16h53.30.779,lexical_decision_task_DD_L4,2021.2.3,Linux x86_64,60.0060006,,,,,,,,,,,1.2045,1,,,,,,,,,,,,,,z,1,1.2045,,,,,,,,0.434546318,-0.172058956,0,0,0,,0,37,37,127,1,NINDY,HB,old,z,./images/NINDYHB.png,,,,,,,,,,,,,,,,,,,,,,,,,,,,,,,,,,,
,,,,,,,,,,,,,,,,,,19,2022-02-12_16h53.30.779,lexical_decision_task_DD_L4,2021.2.3,Linux x86_64,60.0060006,,,,,,,,,,,1.1795,1,,,,,,,,,,,,,,z,1,1.1795,,,,,,,,0.434546318,-0.172058956,0,0,0,,0,38,38,144,1,NAIRY,C,old,z,./images/NAIRY.png,,,,,,,,,,,,,,,,,,,,,,,,,,,,,,,,,,,
,,,,,,,,,,,,,,,,,,19,2022-02-12_16h53.30.779,lexical_decision_task_DD_L4,2021.2.3,Linux x86_64,60.0060006,,,,,,,,,,,1.0694,1,,,,,,,,,,,,,,z,1,1.0694,,,,,,,,0.434546318,-0.172058956,0,0,0,,0,39,39,92,1,PAIMS,LB,old,z,./images/PAIMSLB.png,,,,,,,,,,,,,,,,,,,,,,,,,,,,,,,,,,,
,,,,,,,,,,,,,,,,,,19,2022-02-12_16h53.30.779,lexical_decision_task_DD_L4,2021.2.3,Linux x86_64,60.0060006,,,,,,,,,,,1.261,1,,,,,,,,,,,,,,z,1,1.261,,,,,,,,0.434546318,-0.172058956,0,0,0,,0,40,40,160,1,VEETS,HB,old,z,./images/VEETSHB.png,,,,,,,,,,,,,,,,,,,,,,,,,,,,,,,,,,,
,,,,,,,,,,,,,,,,,,19,2022-02-12_16h53.30.779,lexical_decision_task_DD_L4,2021.2.3,Linux x86_64,60.0060006,,,,,,,,,,,0.7884,1,,,,,,,,,,,,,,z,1,0.7884,,,,,,,,0.434546318,-0.172058956,0,0,0,space,0,41,41,122,1,BLOOT,LB,old,z,./images/BLOOTLB.png,8.6788,,,,,,,,,,,,,,,,,,,,,,,,,,,,,,,,,,
,,,,,,,,,,,,,,,,,,19,2022-02-12_16h53.30.779,lexical_decision_task_DD_L4,2021.2.3,Linux x86_64,60.0060006,,,,,,,,,,,0.8182,1,,,,,,,,,,,,,,z,1,0.8182,,,,,,,,0.434546318,-0.172058956,0,0,0,,0,42,42,111,1,HOSSE,C,old,z,./images/HOSSE.png,,,,,,,,,,,,,,,,,,,,,,,,,,,,,,,,,,,
,,,,,,,,,,,,,,,,,,19,2022-02-12_16h53.30.779,lexical_decision_task_DD_L4,2021.2.3,Linux x86_64,60.0060006,,,,,,,,,,,0.6896,1,,,,,,,,,,,,,,m,1,0.6896,,,,,,,,0.434546318,-0.172058956,0,0,0,,0,43,43,17,1,PARADE,LB,old,m,./images/PARADELB.png,,,,,,,,,,,,,,,,,,,,,,,,,,,,,,,,,,,
,,,,,,,,,,,,,,,,,,19,2022-02-12_16h53.30.779,lexical_decision_task_DD_L4,2021.2.3,Linux x86_64,60.0060006,,,,,,,,,,,0.5826,1,,,,,,,,,,,,,,m,1,0.5826,,,,,,,,0.434546318,-0.172058956,0,0,0,,0,44,44,83,1,WHISKY,LB,old,m,./images/WHISKYLB.png,,,,,,,,,,,,,,,,,,,,,,,,,,,,,,,,,,,
,,,,,,,,,,,,,,,,,,19,2022-02-12_16h53.30.779,lexical_decision_task_DD_L4,2021.2.3,Linux x86_64,60.0060006,,,,,,,,,,,0.8078,0,,,,,,,,,,,,,,z,0,0.8078,,,,,,,,0.434546318,-0.172058956,0,0,0,,0,45,45,34,1,RAZOR,HB,old,m,./images/RAZORHB.png,,,,,,,,,,,,,,,,,,,,,,,,,,,,,,,,,,,
,,,,,,,,,,,,,,,,,,19,2022-02-12_16h53.30.779,lexical_decision_task_DD_L4,2021.2.3,Linux x86_64,60.0060006,,,,,,,,,,,0.5512,1,,,,,,,,,,,,,,m,1,0.5512,,,,,,,,0.434546318,-0.172058956,0,0,0,,0,46,46,77,1,WHEEL,LB,old,m,./images/WHEELLB.png,,,,,,,,,,,,,,,,,,,,,,,,,,,,,,,,,,,
,,,,,,,,,,,,,,,,,,19,2022-02-12_16h53.30.779,lexical_decision_task_DD_L4,2021.2.3,Linux x86_64,60.0060006,,,,,,,,,,,0.5724,1,,,,,,,,,,,,,,z,1,0.5724,,,,,,,,0.434546318,-0.172058956,0,0,0,,0,47,47,117,1,STEEG,C,old,z,./images/STEEG.png,,,,,,,,,,,,,,,,,,,,,,,,,,,,,,,,,,,
,,,,,,,,,,,,,,,,,,19,2022-02-12_16h53.30.779,lexical_decision_task_DD_L4,2021.2.3,Linux x86_64,60.0060006,,,,,,,,,,,0.5571,1,,,,,,,,,,,,,,m,1,0.5571,,,,,,,,0.434546318,-0.172058956,0,0,0,,0,48,48,71,1,BUBBLE,LB,old,m,./images/BUBBLELB.png,,,,,,,,,,,,,,,,,,,,,,,,,,,,,,,,,,,
,,,,,,,,,,,,,,,,,,19,2022-02-12_16h53.30.779,lexical_decision_task_DD_L4,2021.2.3,Linux x86_64,60.0060006,,,,,,,,,,,0.5896,1,,,,,,,,,,,,,,m,1,0.5896,,,,,,,,0.434546318,-0.172058956,0,0,0,,0,49,49,60,1,CURRY,C,old,m,./images/CURRY.png,,,,,,,,,,,,,,,,,,,,,,,,,,,,,,,,,,,
,,,,,,,,,,,,,,,,,,19,2022-02-12_16h53.30.779,lexical_decision_task_DD_L4,2021.2.3,Linux x86_64,60.0060006,,,,,,,,,,,0.8027,1,,,,,,,,,,,,,,z,1,0.8027,,,,,,,,0.434546318,-0.172058956,0,0,0,,0,50,50,103,1,FLORT,HB,old,z,./images/FLORTHB.png,,,,,,,,,,,,,,,,,,,,,,,,,,,,,,,,,,,
,,,,,,,,,,,,,,,,,,19,2022-02-12_16h53.30.779,lexical_decision_task_DD_L4,2021.2.3,Linux x86_64,60.0060006,,,,,,,,,,,0.5503,1,,,,,,,,,,,,,,z,1,0.5503,,,,,,,,0.434546318,-0.172058956,0,0,0,,0,51,51,96,1,KEAMS,C,old,z,./images/KEAMS.png,,,,,,,,,,,,,,,,,,,,,,,,,,,,,,,,,,,
,,,,,,,,,,,,,,,,,,19,2022-02-12_16h53.30.779,lexical_decision_task_DD_L4,2021.2.3,Linux x86_64,60.0060006,,,,,,,,,,,0.7484,1,,,,,,,,,,,,,,m,1,0.7484,,,,,,,,0.434546318,-0.172058956,0,0,0,,0,52,52,41,1,STREAM,LB,old,m,./images/STREAMLB.png,,,,,,,,,,,,,,,,,,,,,,,,,,,,,,,,,,,
,,,,,,,,,,,,,,,,,,19,2022-02-12_16h53.30.779,lexical_decision_task_DD_L4,2021.2.3,Linux x86_64,60.0060006,,,,,,,,,,,0.625,1,,,,,,,,,,,,,,m,1,0.625,,,,,,,,0.434546318,-0.172058956,0,0,0,,0,53,53,69,1,ARROW,C,old,m,./images/ARROW.png,,,,,,,,,,,,,,,,,,,,,,,,,,,,,,,,,,,
,,,,,,,,,,,,,,,,,,19,2022-02-12_16h53.30.779,lexical_decision_task_DD_L4,2021.2.3,Linux x86_64,60.0060006,,,,,,,,,,,0.9703,1,,,,,,,,,,,,,,m,1,0.9703,,,,,,,,0.434546318,-0.172058956,0,0,0,,0,54,54,61,1,ARTIST,HB,old,m,./images/ARTISTHB.png,,,,,,,,,,,,,,,,,,,,,,,,,,,,,,,,,,,
,,,,,,,,,,,,,,,,,,19,2022-02-12_16h53.30.779,lexical_decision_task_DD_L4,2021.2.3,Linux x86_64,60.0060006,,,,,,,,,,,0.8195,1,,,,,,,,,,,,,,z,1,0.8195,,,,,,,,0.434546318,-0.172058956,0,0,0,,0,55,55,106,1,CLUMS,HB,old,z,./images/CLUMSHB.png,,,,,,,,,,,,,,,,,,,,,,,,,,,,,,,,,,,
,,,,,,,,,,,,,,,,,,19,2022-02-12_16h53.30.779,lexical_decision_task_DD_L4,2021.2.3,Linux x86_64,60.0060006,,,,,,,,,,,0.638,1,,,,,,,,,,,,,,z,1,0.638,,,,,,,,0.434546318,-0.172058956,0,0,0,,0,56,56,90,1,NEAST,C,old,z,./images/NEAST.png,,,,,,,,,,,,,,,,,,,,,,,,,,,,,,,,,,,
,,,,,,,,,,,,,,,,,,19,2022-02-12_16h53.30.779,lexical_decision_task_DD_L4,2021.2.3,Linux x86_64,60.0060006,,,,,,,,,,,1.1165,1,,,,,,,,,,,,,,z,1,1.1165,,,,,,,,0.434546318,-0.172058956,0,0,0,,0,57,57,109,1,BURGE,HB,old,z,./images/BURGEHB.png,,,,,,,,,,,,,,,,,,,,,,,,,,,,,,,,,,,
,,,,,,,,,,,,,,,,,,19,2022-02-12_16h53.30.779,lexical_decision_task_DD_L4,2021.2.3,Linux x86_64,60.0060006,,,,,,,,,,,0.6617,1,,,,,,,,,,,,,,z,1,0.6617,,,,,,,,0.434546318,-0.172058956,0,0,0,,0,58,58,149,1,VEASE,LB,old,z,./images/VEASELB.png,,,,,,,,,,,,,,,,,,,,,,,,,,,,,,,,,,,
,,,,,,,,,,,,,,,,,,19,2022-02-12_16h53.30.779,lexical_decision_task_DD_L4,2021.2.3,Linux x86_64,60.0060006,,,,,,,,,,,0.5611,1,,,,,,,,,,,,,,m,1,0.5611,,,,,,,,0.434546318,-0.172058956,0,0,0,,0,59,59,3,1,CRATER,C,old,m,./images/CRATER.png,,,,,,,,,,,,,,,,,,,,,,,,,,,,,,,,,,,
,,,,,,,,,,,,,,,,,,19,2022-02-12_16h53.30.779,lexical_decision_task_DD_L4,2021.2.3,Linux x86_64,60.0060006,,,,,,,,,,,0.655,1,,,,,,,,,,,,,,z,1,0.655,,,,,,,,0.434546318,-0.172058956,0,0,0,,0,60,60,101,1,GLEET,LB,old,z,./images/GLEETLB.png,,,,,,,,,,,,,,,,,,,,,,,,,,,,,,,,,,,
,,,,,,,,,,,,,,,,,,19,2022-02-12_16h53.30.779,lexical_decision_task_DD_L4,2021.2.3,Linux x86_64,60.0060006,,,,,,,,,,,0.7877,1,,,,,,,,,,,,,,m,1,0.7877,,,,,,,,0.434546318,-0.172058956,0,0,0,,0,61,61,35,1,LLAMA,LB,old,m,./images/LLAMALB.png,,,,,,,,,,,,,,,,,,,,,,,,,,,,,,,,,,,
,,,,,,,,,,,,,,,,,,19,2022-02-12_16h53.30.779,lexical_decision_task_DD_L4,2021.2.3,Linux x86_64,60.0060006,,,,,,,,,,,1.2166,1,,,,,,,,,,,,,,m,1,1.2166,,,,,,,,0.434546318,-0.172058956,0,0,0,,0,62,62,1,1,TOWEL,HB,old,m,./images/TOWELHB.png,,,,,,,,,,,,,,,,,,,,,,,,,,,,,,,,,,,
,,,,,,,,,,,,,,,,,,19,2022-02-12_16h53.30.779,lexical_decision_task_DD_L4,2021.2.3,Linux x86_64,60.0060006,,,,,,,,,,,0.554,1,,,,,,,,,,,,,,z,1,0.554,,,,,,,,0.434546318,-0.172058956,0,0,0,,0,63,63,123,1,SEDGE,C,old,z,./images/SEDGE.png,,,,,,,,,,,,,,,,,,,,,,,,,,,,,,,,,,,
,,,,,,,,,,,,,,,,,,19,2022-02-12_16h53.30.779,lexical_decision_task_DD_L4,2021.2.3,Linux x86_64,60.0060006,,,,,,,,,,,0.6776,1,,,,,,,,,,,,,,z,1,0.6776,,,,,,,,0.434546318,-0.172058956,0,0,0,,0,64,64,89,1,DRIEK,LB,old,z,./images/DRIEKLB.png,,,,,,,,,,,,,,,,,,,,,,,,,,,,,,,,,,,
,,,,,,,,,,,,,,,,,,19,2022-02-12_16h53.30.779,lexical_decision_task_DD_L4,2021.2.3,Linux x86_64,60.0060006,,,,,,,,,,,0.6987,1,,,,,,,,,,,,,,m,1,0.6987,,,,,,,,0.434546318,-0.172058956,0,0,0,,0,65,65,74,1,JUMPER,LB,old,m,./images/JUMPERLB.png,,,,,,,,,,,,,,,,,,,,,,,,,,,,,,,,,,,
,,,,,,,,,,,,,,,,,,19,2022-02-12_16h53.30.779,lexical_decision_task_DD_L4,2021.2.3,Linux x86_64,60.0060006,,,,,,,,,,,0.7702,0,,,,,,,,,,,,,,z,0,0.7702,,,,,,,,0.434546318,-0.172058956,0,0,0,,0,66,66,79,1,RULER,HB,old,m,./images/RULERHB.png,,,,,,,,,,,,,,,,,,,,,,,,,,,,,,,,,,,
,,,,,,,,,,,,,,,,,,19,2022-02-12_16h53.30.779,lexical_decision_task_DD_L4,2021.2.3,Linux x86_64,60.0060006,,,,,,,,,,,0.5827,1,,,,,,,,,,,,,,m,1,0.5827,,,,,,,,0.434546318,-0.172058956,0,0,0,,0,67,67,62,1,MAMMAL,LB,old,m,./images/MAMMALLB.png,,,,,,,,,,,,,,,,,,,,,,,,,,,,,,,,,,,
,,,,,,,,,,,,,,,,,,19,2022-02-12_16h53.30.779,lexical_decision_task_DD_L4,2021.2.3,Linux x86_64,60.0060006,,,,,,,,,,,0.584,1,,,,,,,,,,,,,,m,1,0.584,,,,,,,,0.434546318,-0.172058956,0,0,0,,0,68,68,5,1,BAMBOO,LB,old,m,./images/BAMBOOLB.png,,,,,,,,,,,,,,,,,,,,,,,,,,,,,,,,,,,
,,,,,,,,,,,,,,,,,,19,2022-02-12_16h53.30.779,lexical_decision_task_DD_L4,2021.2.3,Linux x86_64,60.0060006,,,,,,,,,,,0.6124,1,,,,,,,,,,,,,,z,1,0.6124,,,,,,,,0.434546318,-0.172058956,0,0,0,,0,69,69,158,1,EGECT,LB,old,z,./images/EGECTLB.png,,,,,,,,,,,,,,,,,,,,,,,,,,,,,,,,,,,
,,,,,,,,,,,,,,,,,,19,2022-02-12_16h53.30.779,lexical_decision_task_DD_L4,2021.2.3,Linux x86_64,60.0060006,,,,,,,,,,,0.669,1,,,,,,,,,,,,,,m,1,0.669,,,,,,,,0.434546318,-0.172058956,0,0,0,,0,70,70,7,1,WAGON,HB,old,m,./images/WAGONHB.png,,,,,,,,,,,,,,,,,,,,,,,,,,,,,,,,,,,
,,,,,,,,,,,,,,,,,,19,2022-02-12_16h53.30.779,lexical_decision_task_DD_L4,2021.2.3,Linux x86_64,60.0060006,,,,,,,,,,,0.6949,1,,,,,,,,,,,,,,z,1,0.6949,,,,,,,,0.434546318,-0.172058956,0,0,0,,0,71,71,138,1,PLICE,C,old,z,./images/PLICE.png,,,,,,,,,,,,,,,,,,,,,,,,,,,,,,,,,,,
,,,,,,,,,,,,,,,,,,19,2022-02-12_16h53.30.779,lexical_decision_task_DD_L4,2021.2.3,Linux x86_64,60.0060006,,,,,,,,,,,0.7575,1,,,,,,,,,,,,,,z,1,0.7575,,,,,,,,0.434546318,-0.172058956,0,0,0,,0,72,72,136,1,WERVE,HB,old,z,./images/WERVEHB.png,,,,,,,,,,,,,,,,,,,,,,,,,,,,,,,,,,,
,,,,,,,,,,,,,,,,,,19,2022-02-12_16h53.30.779,lexical_decision_task_DD_L4,2021.2.3,Linux x86_64,60.0060006,,,,,,,,,,,0.7881,1,,,,,,,,,,,,,,z,1,0.7881,,,,,,,,0.434546318,-0.172058956,0,0,0,,0,73,73,148,1,JOMS,HB,old,z,./images/JOMSHB.png,,,,,,,,,,,,,,,,,,,,,,,,,,,,,,,,,,,
,,,,,,,,,,,,,,,,,,19,2022-02-12_16h53.30.779,lexical_decision_task_DD_L4,2021.2.3,Linux x86_64,60.0060006,,,,,,,,,,,0.6502,1,,,,,,,,,,,,,,m,1,0.6502,,,,,,,,0.434546318,-0.172058956,0,0,0,,0,74,74,72,1,FLASK,C,old,m,./images/FLASK.png,,,,,,,,,,,,,,,,,,,,,,,,,,,,,,,,,,,
,,,,,,,,,,,,,,,,,,19,2022-02-12_16h53.30.779,lexical_decision_task_DD_L4,2021.2.3,Linux x86_64,60.0060006,,,,,,,,,,,0.7549,0,,,,,,,,,,,,,,z,0,0.7549,,,,,,,,0.434546318,-0.172058956,0,0,0,,0,75,75,76,1,MIDGET,HB,old,m,./images/MIDGETHB.png,,,,,,,,,,,,,,,,,,,,,,,,,,,,,,,,,,,
,,,,,,,,,,,,,,,,,,19,2022-02-12_16h53.30.779,lexical_decision_task_DD_L4,2021.2.3,Linux x86_64,60.0060006,,,,,,,,,,,0.7795,1,,,,,,,,,,,,,,z,1,0.7795,,,,,,,,0.434546318,-0.172058956,0,0,0,,0,76,76,131,1,NACES,LB,old,z,./images/NACESLB.png,,,,,,,,,,,,,,,,,,,,,,,,,,,,,,,,,,,
,,,,,,,,,,,,,,,,,,19,2022-02-12_16h53.30.779,lexical_decision_task_DD_L4,2021.2.3,Linux x86_64,60.0060006,,,,,,,,,,,0.6533,1,,,,,,,,,,,,,,m,1,0.6533,,,,,,,,0.434546318,-0.172058956,0,0,0,,0,77,77,8,1,CLIFF,LB,old,m,./images/CLIFFLB.png,,,,,,,,,,,,,,,,,,,,,,,,,,,,,,,,,,,
,,,,,,,,,,,,,,,,,,19,2022-02-12_16h53.30.779,lexical_decision_task_DD_L4,2021.2.3,Linux x86_64,60.0060006,,,,,,,,,,,0.6558,1,,,,,,,,,,,,,,z,1,0.6558,,,,,,,,0.434546318,-0.172058956,0,0,0,,0,78,78,132,1,SCIFF,C,old,z,./images/SCIFF.png,,,,,,,,,,,,,,,,,,,,,,,,,,,,,,,,,,,
,,,,,,,,,,,,,,,,,,19,2022-02-12_16h53.30.779,lexical_decision_task_DD_L4,2021.2.3,Linux x86_64,60.0060006,,,,,,,,,,,0.7354,1,,,,,,,,,,,,,,z,1,0.7354,,,,,,,,0.434546318,-0.172058956,0,0,0,,0,79,79,113,1,LINEW,LB,old,z,./images/LINEWLB.png,,,,,,,,,,,,,,,,,,,,,,,,,,,,,,,,,,,
,,,,,,,,,,,,,,,,,,19,2022-02-12_16h53.30.779,lexical_decision_task_DD_L4,2021.2.3,Linux x86_64,60.0060006,,,,,,,,,,,0.4625,1,,,,,,,,,,,,,,m,1,0.4625,,,,,,,,0.434546318,-0.172058956,0,0,0,,0,80,80,15,1,COLLAR,C,old,m,./images/COLLAR.png,,,,,,,,,,,,,,,,,,,,,,,,,,,,,,,,,,,
,,,,,,,,,,,,,,,,,,19,2022-02-12_16h53.30.779,lexical_decision_task_DD_L4,2021.2.3,Linux x86_64,60.0060006,,,,,,,,,,,0.5583,1,,,,,,,,,,,,,,z,1,0.5583,,,,,,,,0.434546318,-0.172058956,0,0,0,,0,81,81,135,1,JOODY,C,old,z,./images/JOODY.png,,,,,,,,,,,,,,,,,,,,,,,,,,,,,,,,,,,
,,,,,,,,,,,,,,,,,,19,2022-02-12_16h53.30.779,lexical_decision_task_DD_L4,2021.2.3,Linux x86_64,60.0060006,,,,,,,,,,,0.586,1,,,,,,,,,,,,,,m,1,0.586,,,,,,,,0.434546318,-0.172058956,0,0,0,,0,82,82,6,1,STAIN,C,old,m,./images/STAIN.png,,,,,,,,,,,,,,,,,,,,,,,,,,,,,,,,,,,
,,,,,,,,,,,,,,,,,,19,2022-02-12_16h53.30.779,lexical_decision_task_DD_L4,2021.2.3,Linux x86_64,60.0060006,,,,,,,,,,,0.7505,1,,,,,,,,,,,,,,z,1,0.7505,,,,,,,,0.434546318,-0.172058956,0,0,0,space,0,83,83,97,1,CHIDS,HB,old,z,./images/CHIDSHB.png,6.1216,,,,,,,,,,,,,,,,,,,,,,,,,,,,,,,,,,
,,,,,,,,,,,,,,,,,,19,2022-02-12_16h53.30.779,lexical_decision_task_DD_L4,2021.2.3,Linux x86_64,60.0060006,,,,,,,,,,,0.5415,1,,,,,,,,,,,,,,z,1,0.5415,,,,,,,,0.434546318,-0.172058956,0,0,0,,0,84,84,93,1,SMONE,C,old,z,./images/SMONE.png,,,,,,,,,,,,,,,,,,,,,,,,,,,,,,,,,,,
,,,,,,,,,,,,,,,,,,19,2022-02-12_16h53.30.779,lexical_decision_task_DD_L4,2021.2.3,Linux x86_64,60.0060006,,,,,,,,,,,0.6202,1,,,,,,,,,,,,,,m,1,0.6202,,,,,,,,0.434546318,-0.172058956,0,0,0,,0,85,85,20,1,GRANNY,LB,old,m,./images/GRANNYLB.png,,,,,,,,,,,,,,,,,,,,,,,,,,,,,,,,,,,
,,,,,,,,,,,,,,,,,,19,2022-02-12_16h53.30.779,lexical_decision_task_DD_L4,2021.2.3,Linux x86_64,60.0060006,,,,,,,,,,,0.4222,1,,,,,,,,,,,,,,m,1,0.4222,,,,,,,,0.434546318,-0.172058956,0,0,0,,0,86,86,21,1,DANCER,C,old,m,./images/DANCER.png,,,,,,,,,,,,,,,,,,,,,,,,,,,,,,,,,,,
,,,,,,,,,,,,,,,,,,19,2022-02-12_16h53.30.779,lexical_decision_task_DD_L4,2021.2.3,Linux x86_64,60.0060006,,,,,,,,,,,1.0044,1,,,,,,,,,,,,,,z,1,1.0044,,,,,,,,0.434546318,-0.172058956,0,0,0,,0,87,87,133,1,POWDY,HB,old,z,./images/POWDYHB.png,,,,,,,,,,,,,,,,,,,,,,,,,,,,,,,,,,,
,,,,,,,,,,,,,,,,,,19,2022-02-12_16h53.30.779,lexical_decision_task_DD_L4,2021.2.3,Linux x86_64,60.0060006,,,,,,,,,,,0.4692,1,,,,,,,,,,,,,,m,1,0.4692,,,,,,,,0.434546318,-0.172058956,0,0,0,,0,88,88,0,1,WALNUT,C,old,m,./images/WALNUT.png,,,,,,,,,,,,,,,,,,,,,,,,,,,,,,,,,,,
,,,,,,,,,,,,,,,,,,19,2022-02-12_16h53.30.779,lexical_decision_task_DD_L4,2021.2.3,Linux x86_64,60.0060006,,,,,,,,,,,0.6793,1,,,,,,,,,,,,,,z,1,0.6793,,,,,,,,0.434546318,-0.172058956,0,0,0,,0,89,89,108,1,GRUET,C,old,z,./images/GRUET.png,,,,,,,,,,,,,,,,,,,,,,,,,,,,,,,,,,,
,,,,,,,,,,,,,,,,,,19,2022-02-12_16h53.30.779,lexical_decision_task_DD_L4,2021.2.3,Linux x86_64,60.0060006,,,,,,,,,,,0.5059,1,,,,,,,,,,,,,,m,1,0.5059,,,,,,,,0.434546318,-0.172058956,0,0,0,,0,90,90,66,1,STATUE,C,old,m,./images/STATUE.png,,,,,,,,,,,,,,,,,,,,,,,,,,,,,,,,,,,
,,,,,,,,,,,,,,,,,,19,2022-02-12_16h53.30.779,lexical_decision_task_DD_L4,2021.2.3,Linux x86_64,60.0060006,,,,,,,,,,,0.6042,1,,,,,,,,,,,,,,z,1,0.6042,,,,,,,,0.434546318,-0.172058956,0,0,0,,0,91,91,142,1,PLASK,HB,old,z,./images/PLASKHB.png,,,,,,,,,,,,,,,,,,,,,,,,,,,,,,,,,,,
,,,,,,,,,,,,,,,,,,19,2022-02-12_16h53.30.779,lexical_decision_task_DD_L4,2021.2.3,Linux x86_64,60.0060006,,,,,,,,,,,0.9673,1,,,,,,,,,,,,,,z,1,0.9673,,,,,,,,0.434546318,-0.172058956,0,0,0,,0,92,92,99,1,BACKY,C,old,z,./images/BACKY.png,,,,,,,,,,,,,,,,,,,,,,,,,,,,,,,,,,,
,,,,,,,,,,,,,,,,,,19,2022-02-12_16h53.30.779,lexical_decision_task_DD_L4,2021.2.3,Linux x86_64,60.0060006,,,,,,,,,,,0.4561,1,,,,,,,,,,,,,,m,1,0.4561,,,,,,,,0.434546318,-0.172058956,0,0,0,,0,93,93,54,1,CHERRY,C,old,m,./images/CHERRY.png,,,,,,,,,,,,,,,,,,,,,,,,,,,,,,,,,,,
,,,,,,,,,,,,,,,,,,19,2022-02-12_16h53.30.779,lexical_decision_task_DD_L4,2021.2.3,Linux x86_64,60.0060006,,,,,,,,,,,0.5758,1,,,,,,,,,,,,,,z,1,0.5758,,,,,,,,0.434546318,-0.172058956,0,0,0,,0,94,94,102,1,DULLE,C,old,z,./images/DULLE.png,,,,,,,,,,,,,,,,,,,,,,,,,,,,,,,,,,,
,,,,,,,,,,,,,,,,,,19,2022-02-12_16h53.30.779,lexical_decision_task_DD_L4,2021.2.3,Linux x86_64,60.0060006,,,,,,,,,,,0.7801,1,,,,,,,,,,,,,,z,1,0.7801,,,,,,,,0.434546318,-0.172058956,0,0,0,,0,95,95,164,1,SGREW,LB,old,z,./images/SGREWLB.png,,,,,,,,,,,,,,,,,,,,,,,,,,,,,,,,,,,
,,,,,,,,,,,,,,,,,,19,2022-02-12_16h53.30.779,lexical_decision_task_DD_L4,2021.2.3,Linux x86_64,60.0060006,,,,,,,,,,,0.722,1,,,,,,,,,,,,,,z,1,0.722,,,,,,,,0.434546318,-0.172058956,0,0,0,,0,96,96,167,1,ZONET,LB,old,z,./images/ZONETLB.png,,,,,,,,,,,,,,,,,,,,,,,,,,,,,,,,,,,
,,,,,,,,,,,,,,,,,,19,2022-02-12_16h53.30.779,lexical_decision_task_DD_L4,2021.2.3,Linux x86_64,60.0060006,,,,,,,,,,,0.6201,1,,,,,,,,,,,,,,m,1,0.6201,,,,,,,,0.434546318,-0.172058956,0,0,0,,0,97,97,38,1,ENGINE,LB,old,m,./images/ENGINELB.png,,,,,,,,,,,,,,,,,,,,,,,,,,,,,,,,,,,
,,,,,,,,,,,,,,,,,,19,2022-02-12_16h53.30.779,lexical_decision_task_DD_L4,2021.2.3,Linux x86_64,60.0060006,,,,,,,,,,,0.9683,0,,,,,,,,,,,,,,z,0,0.9683,,,,,,,,0.434546318,-0.172058956,0,0,0,,0,98,98,46,1,MUMMY,HB,old,m,./images/MUMMYHB.png,,,,,,,,,,,,,,,,,,,,,,,,,,,,,,,,,,,
,,,,,,,,,,,,,,,,,,19,2022-02-12_16h53.30.779,lexical_decision_task_DD_L4,2021.2.3,Linux x86_64,60.0060006,,,,,,,,,,,0.7211,1,,,,,,,,,,,,,,z,1,0.7211,,,,,,,,0.434546318,-0.172058956,0,0,0,,0,99,99,86,1,AIFED,LB,old,z,./images/AIFEDLB.png,,,,,,,,,,,,,,,,,,,,,,,,,,,,,,,,,,,
,,,,,,,,,,,,,,,,,,19,2022-02-12_16h53.30.779,lexical_decision_task_DD_L4,2021.2.3,Linux x86_64,60.0060006,,,,,,,,,,,0.69,1,,,,,,,,,,,,,,z,1,0.69,,,,,,,,0.434546318,-0.172058956,0,0,0,,0,100,100,84,1,HAXES,C,old,z,./images/HAXES.png,,,,,,,,,,,,,,,,,,,,,,,,,,,,,,,,,,,
,,,,,,,,,,,,,,,,,,19,2022-02-12_16h53.30.779,lexical_decision_task_DD_L4,2021.2.3,Linux x86_64,60.0060006,,,,,,,,,,,2.1408,1,,,,,,,,,,,,,,z,1,2.1408,,,,,,,,0.434546318,-0.172058956,0,0,0,,0,101,101,157,1,INLER,HB,old,z,./images/INLERHB.png,,,,,,,,,,,,,,,,,,,,,,,,,,,,,,,,,,,
,,,,,,,,,,,,,,,,,,19,2022-02-12_16h53.30.779,lexical_decision_task_DD_L4,2021.2.3,Linux x86_64,60.0060006,,,,,,,,,,,0.741,1,,,,,,,,,,,,,,z,1,0.741,,,,,,,,0.434546318,-0.172058956,0,0,0,,0,102,102,146,1,MOOST,LB,old,z,./images/MOOSTLB.png,,,,,,,,,,,,,,,,,,,,,,,,,,,,,,,,,,,
,,,,,,,,,,,,,,,,,,19,2022-02-12_16h53.30.779,lexical_decision_task_DD_L4,2021.2.3,Linux x86_64,60.0060006,,,,,,,,,,,1.0729,1,,,,,,,,,,,,,,z,1,1.0729,,,,,,,,0.434546318,-0.172058956,0,0,0,,0,103,103,139,1,BLEAR,HB,old,z,./images/BLEARHB.png,,,,,,,,,,,,,,,,,,,,,,,,,,,,,,,,,,,
,,,,,,,,,,,,,,,,,,19,2022-02-12_16h53.30.779,lexical_decision_task_DD_L4,2021.2.3,Linux x86_64,60.0060006,,,,,,,,,,,0.4829,1,,,,,,,,,,,,,,m,1,0.4829,,,,,,,,0.434546318,-0.172058956,0,0,0,,0,104,104,75,1,HAMMER,C,old,m,./images/HAMMER.png,,,,,,,,,,,,,,,,,,,,,,,,,,,,,,,,,,,
,,,,,,,,,,,,,,,,,,19,2022-02-12_16h53.30.779,lexical_decision_task_DD_L4,2021.2.3,Linux x86_64,60.0060006,,,,,,,,,,,0.6194,1,,,,,,,,,,,,,,m,1,0.6194,,,,,,,,0.434546318,-0.172058956,0,0,0,,0,105,105,65,1,SPINE,LB,old,m,./images/SPINELB.png,,,,,,,,,,,,,,,,,,,,,,,,,,,,,,,,,,,
,,,,,,,,,,,,,,,,,,19,2022-02-12_16h53.30.779,lexical_decision_task_DD_L4,2021.2.3,Linux x86_64,60.0060006,,,,,,,,,,,0.3857,1,,,,,,,,,,,,,,m,1,0.3857,,,,,,,,0.434546318,-0.172058956,0,0,0,,0,106,106,26,1,CLOUD,LB,old,m,./images/CLOUDLB.png,,,,,,,,,,,,,,,,,,,,,,,,,,,,,,,,,,,
,,,,,,,,,,,,,,,,,,19,2022-02-12_16h53.30.779,lexical_decision_task_DD_L4,2021.2.3,Linux x86_64,60.0060006,,,,,,,,,,,0.5876,1,,,,,,,,,,,,,,m,1,0.5876,,,,,,,,0.434546318,-0.172058956,0,0,0,,0,107,107,43,1,STOOL,HB,old,m,./images/STOOLHB.png,,,,,,,,,,,,,,,,,,,,,,,,,,,,,,,,,,,
,,,,,,,,,,,,,,,,,,19,2022-02-12_16h53.30.779,lexical_decision_task_DD_L4,2021.2.3,Linux x86_64,60.0060006,,,,,,,,,,,0.423,1,,,,,,,,,,,,,,m,1,0.423,,,,,,,,0.434546318,-0.172058956,0,0,0,,0,108,108,78,1,BROOM,C,old,m,./images/BROOM.png,,,,,,,,,,,,,,,,,,,,,,,,,,,,,,,,,,,
,,,,,,,,,,,,,,,,,,19,2022-02-12_16h53.30.779,lexical_decision_task_DD_L4,2021.2.3,Linux x86_64,60.0060006,,,,,,,,,,,0.9547,1,,,,,,,,,,,,,,m,1,0.9547,,,,,,,,0.434546318,-0.172058956,0,0,0,,0,109,109,70,1,BANANA,HB,old,m,./images/BANANAHB.png,,,,,,,,,,,,,,,,,,,,,,,,,,,,,,,,,,,
,,,,,,,,,,,,,,,,,,19,2022-02-12_16h53.30.779,lexical_decision_task_DD_L4,2021.2.3,Linux x86_64,60.0060006,,,,,,,,,,,0.9093,1,,,,,,,,,,,,,,m,1,0.9093,,,,,,,,0.434546318,-0.172058956,0,0,0,,0,110,110,13,1,BUNNY,HB,old,m,./images/BUNNYHB.png,,,,,,,,,,,,,,,,,,,,,,,,,,,,,,,,,,,
,,,,,,,,,,,,,,,,,,19,2022-02-12_16h53.30.779,lexical_decision_task_DD_L4,2021.2.3,Linux x86_64,60.0060006,,,,,,,,,,,0.6045,1,,,,,,,,,,,,,,z,1,0.6045,,,,,,,,0.434546318,-0.172058956,0,0,0,,0,111,111,125,1,MOOKY,LB,old,z,./images/MOOKYLB.png,,,,,,,,,,,,,,,,,,,,,,,,,,,,,,,,,,,
,,,,,,,,,,,,,,,,,,19,2022-02-12_16h53.30.779,lexical_decision_task_DD_L4,2021.2.3,Linux x86_64,60.0060006,,,,,,,,,,,0.5768,1,,,,,,,,,,,,,,z,1,0.5768,,,,,,,,0.434546318,-0.172058956,0,0,0,,0,112,112,104,1,GITTY,LB,old,z,./images/GITTYLB.png,,,,,,,,,,,,,,,,,,,,,,,,,,,,,,,,,,,
,,,,,,,,,,,,,,,,,,19,2022-02-12_16h53.30.779,lexical_decision_task_DD_L4,2021.2.3,Linux x86_64,60.0060006,,,,,,,,,,,0.7587,1,,,,,,,,,,,,,,m,1,0.7587,,,,,,,,0.434546318,-0.172058956,0,0,0,,0,113,113,49,1,BISHOP,HB,old,m,./images/BISHOPHB.png,,,,,,,,,,,,,,,,,,,,,,,,,,,,,,,,,,,
,,,,,,,,,,,,,,,,,,19,2022-02-12_16h53.30.779,lexical_decision_task_DD_L4,2021.2.3,Linux x86_64,60.0060006,,,,,,,,,,,0.829,1,,,,,,,,,,,,,,m,1,0.829,,,,,,,,0.434546318,-0.172058956,0,0,0,,0,114,114,33,1,SAUNA,C,old,m,./images/SAUNA.png,,,,,,,,,,,,,,,,,,,,,,,,,,,,,,,,,,,
,,,,,,,,,,,,,,,,,,19,2022-02-12_16h53.30.779,lexical_decision_task_DD_L4,2021.2.3,Linux x86_64,60.0060006,,,,,,,,,,,0.6048,1,,,,,,,,,,,,,,m,1,0.6048,,,,,,,,0.434546318,-0.172058956,0,0,0,,0,115,115,22,1,CLOWN,HB,old,m,./images/CLOWNHB.png,,,,,,,,,,,,,,,,,,,,,,,,,,,,,,,,,,,
,,,,,,,,,,,,,,,,,,19,2022-02-12_16h53.30.779,lexical_decision_task_DD_L4,2021.2.3,Linux x86_64,60.0060006,,,,,,,,,,,1.2376,0,,,,,,,,,,,,,,z,0,1.2376,,,,,,,,0.434546318,-0.172058956,0,0,0,,0,116,116,67,1,POKER,HB,old,m,./images/POKERHB.png,,,,,,,,,,,,,,,,,,,,,,,,,,,,,,,,,,,
,,,,,,,,,,,,,,,,,,19,2022-02-12_16h53.30.779,lexical_decision_task_DD_L4,2021.2.3,Linux x86_64,60.0060006,,,,,,,,,,,1.5723,1,,,,,,,,,,,,,,z,1,1.5723,,,,,,,,0.434546318,-0.172058956,0,0,0,,0,117,117,88,1,GLUSH,HB,old,z,./images/GLUSHHB.png,,,,,,,,,,,,,,,,,,,,,,,,,,,,,,,,,,,
,,,,,,,,,,,,,,,,,,19,2022-02-12_16h53.30.779,lexical_decision_task_DD_L4,2021.2.3,Linux x86_64,60.0060006,,,,,,,,,,,0.6297,1,,,,,,,,,,,,,,m,1,0.6297,,,,,,,,0.434546318,-0.172058956,0,0,0,,0,118,118,55,1,ALLEY,HB,old,m,./images/ALLEYHB.png,,,,,,,,,,,,,,,,,,,,,,,,,,,,,,,,,,,
,,,,,,,,,,,,,,,,,,19,2022-02-12_16h53.30.779,lexical_decision_task_DD_L4,2021.2.3,Linux x86_64,60.0060006,,,,,,,,,,,0.7056,1,,,,,,,,,,,,,,z,1,0.7056,,,,,,,,0.434546318,-0.172058956,0,0,0,,0,119,119,165,1,TROWN,C,old,z,./images/TROWN.png,,,,,,,,,,,,,,,,,,,,,,,,,,,,,,,,,,,
,,,,,,,,,,,,,,,,,,19,2022-02-12_16h53.30.779,lexical_decision_task_DD_L4,2021.2.3,Linux x86_64,60.0060006,,,,,,,,,,,0.6255,1,,,,,,,,,,,,,,z,1,0.6255,,,,,,,,0.434546318,-0.172058956,0,0,0,,0,120,120,87,1,TRING,C,old,z,./images/TRING.png,,,,,,,,,,,,,,,,,,,,,,,,,,,,,,,,,,,
,,,,,,,,,,,,,,,,,,19,2022-02-12_16h53.30.779,lexical_decision_task_DD_L4,2021.2.3,Linux x86_64,60.0060006,,,,,,,,,,,0.5993,1,,,,,,,,,,,,,,m,1,0.5993,,,,,,,,0.434546318,-0.172058956,0,0,0,,0,121,121,11,1,MEDAL,LB,old,m,./images/MEDALLB.png,,,,,,,,,,,,,,,,,,,,,,,,,,,,,,,,,,,
,,,,,,,,,,,,,,,,,,19,2022-02-12_16h53.30.779,lexical_decision_task_DD_L4,2021.2.3,Linux x86_64,60.0060006,,,,,,,,,,,0.3709,1,,,,,,,,,,,,,,m,1,0.3709,,,,,,,,0.434546318,-0.172058956,0,0,0,,0,122,122,14,1,FENCE,LB,old,m,./images/FENCELB.png,,,,,,,,,,,,,,,,,,,,,,,,,,,,,,,,,,,
,,,,,,,,,,,,,,,,,,19,2022-02-12_16h53.30.779,lexical_decision_task_DD_L4,2021.2.3,Linux x86_64,60.0060006,,,,,,,,,,,0.6312,1,,,,,,,,,,,,,,z,1,0.6312,,,,,,,,0.434546318,-0.172058956,0,0,0,,0,123,123,143,1,MONGS,LB,old,z,./images/MONGSLB.png,,,,,,,,,,,,,,,,,,,,,,,,,,,,,,,,,,,
,,,,,,,,,,,,,,,,,,19,2022-02-12_16h53.30.779,lexical_decision_task_DD_L4,2021.2.3,Linux x86_64,60.0060006,,,,,,,,,,,0.9556,1,,,,,,,,,,,,,,z,1,0.9556,,,,,,,,0.434546318,-0.172058956,0,0,0,,0,124,124,118,1,BAVEL,HB,old,z,./images/BAVELHB.png,,,,,,,,,,,,,,,,,,,,,,,,,,,,,,,,,,,
,,,,,,,,,,,,,,,,,,19,2022-02-12_16h53.30.779,lexical_decision_task_DD_L4,2021.2.3,Linux x86_64,60.0060006,,,,,,,,,,,0.559,1,,,,,,,,,,,,,,z,1,0.559,,,,,,,,0.434546318,-0.172058956,0,0,0,space,0,125,125,134,1,TROSS,LB,old,z,./images/TROSSLB.png,4.5347,,,,,,,,,,,,,,,,,,,,,,,,,,,,,,,,,,
,,,,,,,,,,,,,,,,,,19,2022-02-12_16h53.30.779,lexical_decision_task_DD_L4,2021.2.3,Linux x86_64,60.0060006,,,,,,,,,,,0.5883,1,,,,,,,,,,,,,,m,1,0.5883,,,,,,,,0.434546318,-0.172058956,0,0,0,,0,126,126,80,1,PLANET,LB,old,m,./images/PLANETLB.png,,,,,,,,,,,,,,,,,,,,,,,,,,,,,,,,,,,
,,,,,,,,,,,,,,,,,,19,2022-02-12_16h53.30.779,lexical_decision_task_DD_L4,2021.2.3,Linux x86_64,60.0060006,,,,,,,,,,,0.4988,1,,,,,,,,,,,,,,z,1,0.4988,,,,,,,,0.434546318,-0.172058956,0,0,0,,0,127,127,126,1,GUELS,C,old,z,./images/GUELS.png,,,,,,,,,,,,,,,,,,,,,,,,,,,,,,,,,,,
,,,,,,,,,,,,,,,,,,19,2022-02-12_16h53.30.779,lexical_decision_task_DD_L4,2021.2.3,Linux x86_64,60.0060006,,,,,,,,,,,0.6457,0,,,,,,,,,,,,,,m,0,0.6457,,,,,,,,0.434546318,-0.172058956,0,0,0,,0,128,128,153,1,CLUPS,C,old,z,./images/CLUPS.png,,,,,,,,,,,,,,,,,,,,,,,,,,,,,,,,,,,
,,,,,,,,,,,,,,,,,,19,2022-02-12_16h53.30.779,lexical_decision_task_DD_L4,2021.2.3,Linux x86_64,60.0060006,,,,,,,,,,,0.7029,1,,,,,,,,,,,,,,z,1,0.7029,,,,,,,,0.434546318,-0.172058956,0,0,0,,0,129,129,107,1,FASKS,LB,old,z,./images/FASKSLB.png,,,,,,,,,,,,,,,,,,,,,,,,,,,,,,,,,,,
,,,,,,,,,,,,,,,,,,19,2022-02-12_16h53.30.779,lexical_decision_task_DD_L4,2021.2.3,Linux x86_64,60.0060006,,,,,,,,,,,0.5667,1,,,,,,,,,,,,,,m,1,0.5667,,,,,,,,0.434546318,-0.172058956,0,0,0,,0,130,130,36,1,BOILER,C,old,m,./images/BOILER.png,,,,,,,,,,,,,,,,,,,,,,,,,,,,,,,,,,,
,,,,,,,,,,,,,,,,,,19,2022-02-12_16h53.30.779,lexical_decision_task_DD_L4,2021.2.3,Linux x86_64,60.0060006,,,,,,,,,,,0.5732,1,,,,,,,,,,,,,,z,1,0.5732,,,,,,,,0.434546318,-0.172058956,0,0,0,,0,131,131,98,1,BAMPS,LB,old,z,./images/BAMPSLB.png,,,,,,,,,,,,,,,,,,,,,,,,,,,,,,,,,,,
,,,,,,,,,,,,,,,,,,19,2022-02-12_16h53.30.779,lexical_decision_task_DD_L4,2021.2.3,Linux x86_64,60.0060006,,,,,,,,,,,0.8436,1,,,,,,,,,,,,,,m,1,0.8436,,,,,,,,0.434546318,-0.172058956,0,0,0,,0,132,132,47,1,LAGOON,LB,old,m,./images/LAGOONLB.png,,,,,,,,,,,,,,,,,,,,,,,,,,,,,,,,,,,
,,,,,,,,,,,,,,,,,,19,2022-02-12_16h53.30.779,lexical_decision_task_DD_L4,2021.2.3,Linux x86_64,60.0060006,,,,,,,,,,,0.8384,0,,,,,,,,,,,,,,m,0,0.8384,,,,,,,,0.434546318,-0.172058956,0,0,0,,0,133,133,128,1,GRIFT,LB,old,z,./images/GRIFTLB.png,,,,,,,,,,,,,,,,,,,,,,,,,,,,,,,,,,,
,,,,,,,,,,,,,,,,,,19,2022-02-12_16h53.30.779,lexical_decision_task_DD_L4,2021.2.3,Linux x86_64,60.0060006,,,,,,,,,,,0.6403,1,,,,,,,,,,,,,,z,1,0.6403,,,,,,,,0.434546318,-0.172058956,0,0,0,,0,134,134,161,1,BLAPS,LB,old,z,./images/BLAPSLB.png,,,,,,,,,,,,,,,,,,,,,,,,,,,,,,,,,,,
,,,,,,,,,,,,,,,,,,19,2022-02-12_16h53.30.779,lexical_decision_task_DD_L4,2021.2.3,Linux x86_64,60.0060006,,,,,,,,,,,0.7278,1,,,,,,,,,,,,,,z,1,0.7278,,,,,,,,0.434546318,-0.172058956,0,0,0,,0,135,135,120,1,RINED,C,old,z,./images/RINED.png,,,,,,,,,,,,,,,,,,,,,,,,,,,,,,,,,,,
,,,,,,,,,,,,,,,,,,19,2022-02-12_16h53.30.779,lexical_decision_task_DD_L4,2021.2.3,Linux x86_64,60.0060006,,,,,,,,,,,0.8606,1,,,,,,,,,,,,,,m,1,0.8606,,,,,,,,0.434546318,-0.172058956,0,0,0,,0,136,136,10,1,GARDEN,HB,old,m,./images/GARDENHB.png,,,,,,,,,,,,,,,,,,,,,,,,,,,,,,,,,,,
,,,,,,,,,,,,,,,,,,19,2022-02-12_16h53.30.779,lexical_decision_task_DD_L4,2021.2.3,Linux x86_64,60.0060006,,,,,,,,,,,0.5356,0,,,,,,,,,,,,,,m,0,0.5356,,,,,,,,0.434546318,-0.172058956,0,0,0,,0,137,137,159,1,CUDDY,C,old,z,./images/CUDDY.png,,,,,,,,,,,,,,,,,,,,,,,,,,,,,,,,,,,
,,,,,,,,,,,,,,,,,,19,2022-02-12_16h53.30.779,lexical_decision_task_DD_L4,2021.2.3,Linux x86_64,60.0060006,,,,,,,,,,,0.8229,1,,,,,,,,,,,,,,m,1,0.8229,,,,,,,,0.434546318,-0.172058956,0,0,0,,0,138,138,48,1,SHIELD,C,old,m,./images/SHIELD.png,,,,,,,,,,,,,,,,,,,,,,,,,,,,,,,,,,,
,,,,,,,,,,,,,,,,,,19,2022-02-12_16h53.30.779,lexical_decision_task_DD_L4,2021.2.3,Linux x86_64,60.0060006,,,,,,,,,,,0.8077,1,,,,,,,,,,,,,,m,1,0.8077,,,,,,,,0.434546318,-0.172058956,0,0,0,,0,139,139,53,1,POSTER,LB,old,m,./images/POSTERLB.png,,,,,,,,,,,,,,,,,,,,,,,,,,,,,,,,,,,
,,,,,,,,,,,,,,,,,,19,2022-02-12_16h53.30.779,lexical_decision_task_DD_L4,2021.2.3,Linux x86_64,60.0060006,,,,,,,,,,,0.655,1,,,,,,,,,,,,,,m,1,0.655,,,,,,,,0.434546318,-0.172058956,0,0,0,,0,140,140,59,1,BRUSH,LB,old,m,./images/BRUSHLB.png,,,,,,,,,,,,,,,,,,,,,,,,,,,,,,,,,,,
,,,,,,,,,,,,,,,,,,19,2022-02-12_16h53.30.779,lexical_decision_task_DD_L4,2021.2.3,Linux x86_64,60.0060006,,,,,,,,,,,0.5563,1,,,,,,,,,,,,,,z,1,0.5563,,,,,,,,0.434546318,-0.172058956,0,0,0,,0,141,141,105,1,MOKER,C,old,z,./images/MOKER.png,,,,,,,,,,,,,,,,,,,,,,,,,,,,,,,,,,,
,,,,,,,,,,,,,,,,,,19,2022-02-12_16h53.30.779,lexical_decision_task_DD_L4,2021.2.3,Linux x86_64,60.0060006,,,,,,,,,,,0.6227,1,,,,,,,,,,,,,,z,1,0.6227,,,,,,,,0.434546318,-0.172058956,0,0,0,,0,142,142,155,1,CANGY,LB,old,z,./images/CANGYLB.png,,,,,,,,,,,,,,,,,,,,,,,,,,,,,,,,,,,
,,,,,,,,,,,,,,,,,,19,2022-02-12_16h53.30.779,lexical_decision_task_DD_L4,2021.2.3,Linux x86_64,60.0060006,,,,,,,,,,,1.7881,1,,,,,,,,,,,,,,z,1,1.7881,,,,,,,,0.434546318,-0.172058956,0,0,0,,0,143,143,163,1,GAMBA,HB,old,z,./images/GAMBAHB.png,,,,,,,,,,,,,,,,,,,,,,,,,,,,,,,,,,,
,,,,,,,,,,,,,,,,,,19,2022-02-12_16h53.30.779,lexical_decision_task_DD_L4,2021.2.3,Linux x86_64,60.0060006,,,,,,,,,,,0.6119,1,,,,,,,,,,,,,,m,1,0.6119,,,,,,,,0.434546318,-0.172058956,0,0,0,,0,144,144,63,1,BAKER,C,old,m,./images/BAKER.png,,,,,,,,,,,,,,,,,,,,,,,,,,,,,,,,,,,
,,,,,,,,,,,,,,,,,,19,2022-02-12_16h53.30.779,lexical_decision_task_DD_L4,2021.2.3,Linux x86_64,60.0060006,,,,,,,,,,,0.5227,1,,,,,,,,,,,,,,m,1,0.5227,,,,,,,,0.434546318,-0.172058956,0,0,0,,0,145,145,68,1,VALLEY,LB,old,m,./images/VALLEYLB.png,,,,,,,,,,,,,,,,,,,,,,,,,,,,,,,,,,,
,,,,,,,,,,,,,,,,,,19,2022-02-12_16h53.30.779,lexical_decision_task_DD_L4,2021.2.3,Linux x86_64,60.0060006,,,,,,,,,,,0.6837,1,,,,,,,,,,,,,,m,1,0.6837,,,,,,,,0.434546318,-0.172058956,0,0,0,,0,146,146,32,1,HOCKEY,LB,old,m,./images/HOCKEYLB.png,,,,,,,,,,,,,,,,,,,,,,,,,,,,,,,,,,,
,,,,,,,,,,,,,,,,,,19,2022-02-12_16h53.30.779,lexical_decision_task_DD_L4,2021.2.3,Linux x86_64,60.0060006,,,,,,,,,,,0.4979,1,,,,,,,,,,,,,,m,1,0.4979,,,,,,,,0.434546318,-0.172058956,0,0,0,,0,147,147,9,1,DIVER,C,old,m,./images/DIVER.png,,,,,,,,,,,,,,,,,,,,,,,,,,,,,,,,,,,
,,,,,,,,,,,,,,,,,,19,2022-02-12_16h53.30.779,lexical_decision_task_DD_L4,2021.2.3,Linux x86_64,60.0060006,,,,,,,,,,,0.5885,1,,,,,,,,,,,,,,z,1,0.5885,,,,,,,,0.434546318,-0.172058956,0,0,0,,0,148,148,162,1,LEICH,C,old,z,./images/LEICH.png,,,,,,,,,,,,,,,,,,,,,,,,,,,,,,,,,,,
,,,,,,,,,,,,,,,,,,19,2022-02-12_16h53.30.779,lexical_decision_task_DD_L4,2021.2.3,Linux x86_64,60.0060006,,,,,,,,,,,0.53,1,,,,,,,,,,,,,,m,1,0.53,,,,,,,,0.434546318,-0.172058956,0,0,0,,0,149,149,81,1,DRILL,C,old,m,./images/DRILL.png,,,,,,,,,,,,,,,,,,,,,,,,,,,,,,,,,,,
,,,,,,,,,,,,,,,,,,19,2022-02-12_16h53.30.779,lexical_decision_task_DD_L4,2021.2.3,Linux x86_64,60.0060006,,,,,,,,,,,0.5309,1,,,,,,,,,,,,,,m,1,0.5309,,,,,,,,0.434546318,-0.172058956,0,0,0,,0,150,150,24,1,FLESH,C,old,m,./images/FLESH.png,,,,,,,,,,,,,,,,,,,,,,,,,,,,,,,,,,,
,,,,,,,,,,,,,,,,,,19,2022-02-12_16h53.30.779,lexical_decision_task_DD_L4,2021.2.3,Linux x86_64,60.0060006,,,,,,,,,,,0.5084,1,,,,,,,,,,,,,,m,1,0.5084,,,,,,,,0.434546318,-0.172058956,0,0,0,,0,151,151,2,1,STOVE,LB,old,m,./images/STOVELB.png,,,,,,,,,,,,,,,,,,,,,,,,,,,,,,,,,,,
,,,,,,,,,,,,,,,,,,19,2022-02-12_16h53.30.779,lexical_decision_task_DD_L4,2021.2.3,Linux x86_64,60.0060006,,,,,,,,,,,0.5835,1,,,,,,,,,,,,,,m,1,0.5835,,,,,,,,0.434546318,-0.172058956,0,0,0,,0,152,152,42,1,CHAIN,C,old,m,./images/CHAIN.png,,,,,,,,,,,,,,,,,,,,,,,,,,,,,,,,,,,
,,,,,,,,,,,,,,,,,,19,2022-02-12_16h53.30.779,lexical_decision_task_DD_L4,2021.2.3,Linux x86_64,60.0060006,,,,,,,,,,,0.6359,1,,,,,,,,,,,,,,m,1,0.6359,,,,,,,,0.434546318,-0.172058956,0,0,0,,0,153,153,45,1,MONKEY,C,old,m,./images/MONKEY.png,,,,,,,,,,,,,,,,,,,,,,,,,,,,,,,,,,,
,,,,,,,,,,,,,,,,,,19,2022-02-12_16h53.30.779,lexical_decision_task_DD_L4,2021.2.3,Linux x86_64,60.0060006,,,,,,,,,,,0.5449,1,,,,,,,,,,,,,,m,1,0.5449,,,,,,,,0.434546318,-0.172058956,0,0,0,,0,154,154,44,1,BASKET,LB,old,m,./images/BASKETLB.png,,,,,,,,,,,,,,,,,,,,,,,,,,,,,,,,,,,
,,,,,,,,,,,,,,,,,,19,2022-02-12_16h53.30.779,lexical_decision_task_DD_L4,2021.2.3,Linux x86_64,60.0060006,,,,,,,,,,,0.6877,1,,,,,,,,,,,,,,z,1,0.6877,,,,,,,,0.434546318,-0.172058956,0,0,0,,0,155,155,145,1,LAMEL,HB,old,z,./images/LAMELHB.png,,,,,,,,,,,,,,,,,,,,,,,,,,,,,,,,,,,
,,,,,,,,,,,,,,,,,,19,2022-02-12_16h53.30.779,lexical_decision_task_DD_L4,2021.2.3,Linux x86_64,60.0060006,,,,,,,,,,,0.5897,1,,,,,,,,,,,,,,z,1,0.5897,,,,,,,,0.434546318,-0.172058956,0,0,0,,0,156,156,156,1,HIXES,C,old,z,./images/HIXES.png,,,,,,,,,,,,,,,,,,,,,,,,,,,,,,,,,,,
,,,,,,,,,,,,,,,,,,19,2022-02-12_16h53.30.779,lexical_decision_task_DD_L4,2021.2.3,Linux x86_64,60.0060006,,,,,,,,,,,0.7805,1,,,,,,,,,,,,,,m,1,0.7805,,,,,,,,0.434546318,-0.172058956,0,0,0,,0,157,157,25,1,CHALK,HB,old,m,./images/CHALKHB.png,,,,,,,,,,,,,,,,,,,,,,,,,,,,,,,,,,,
,,,,,,,,,,,,,,,,,,19,2022-02-12_16h53.30.779,lexical_decision_task_DD_L4,2021.2.3,Linux x86_64,60.0060006,,,,,,,,,,,0.5715,1,,,,,,,,,,,,,,z,1,0.5715,,,,,,,,0.434546318,-0.172058956,0,0,0,,0,158,158,150,1,NOOLS,C,old,z,./images/NOOLS.png,,,,,,,,,,,,,,,,,,,,,,,,,,,,,,,,,,,
,,,,,,,,,,,,,,,,,,19,2022-02-12_16h53.30.779,lexical_decision_task_DD_L4,2021.2.3,Linux x86_64,60.0060006,,,,,,,,,,,0.6068,1,,,,,,,,,,,,,,z,1,0.6068,,,,,,,,0.434546318,-0.172058956,0,0,0,,0,159,159,116,1,BALGY,LB,old,z,./images/BALGYLB.png,,,,,,,,,,,,,,,,,,,,,,,,,,,,,,,,,,,
,,,,,,,,,,,,,,,,,,19,2022-02-12_16h53.30.779,lexical_decision_task_DD_L4,2021.2.3,Linux x86_64,60.0060006,,,,,,,,,,,0.5392,1,,,,,,,,,,,,,,m,1,0.5392,,,,,,,,0.434546318,-0.172058956,0,0,0,,0,160,160,56,1,HEATER,LB,old,m,./images/HEATERLB.png,,,,,,,,,,,,,,,,,,,,,,,,,,,,,,,,,,,
,,,,,,,,,,,,,,,,,,19,2022-02-12_16h53.30.779,lexical_decision_task_DD_L4,2021.2.3,Linux x86_64,60.0060006,,,,,,,,,,,1.0843,1,,,,,,,,,,,,,,m,1,1.0843,,,,,,,,0.434546318,-0.172058956,0,0,0,,0,161,161,19,1,DONKEY,HB,old,m,./images/DONKEYHB.png,,,,,,,,,,,,,,,,,,,,,,,,,,,,,,,,,,,
,,,,,,,,,,,,,,,,,,19,2022-02-12_16h53.30.779,lexical_decision_task_DD_L4,2021.2.3,Linux x86_64,60.0060006,,,,,,,,,,,0.9703,1,,,,,,,,,,,,,,m,1,0.9703,,,,,,,,0.434546318,-0.172058956,0,0,0,,0,162,162,37,1,TIGER,HB,old,m,./images/TIGERHB.png,,,,,,,,,,,,,,,,,,,,,,,,,,,,,,,,,,,
,,,,,,,,,,,,,,,,,,19,2022-02-12_16h53.30.779,lexical_decision_task_DD_L4,2021.2.3,Linux x86_64,60.0060006,,,,,,,,,,,0.6703,0,,,,,,,,,,,,,,m,0,0.6703,,,,,,,,0.434546318,-0.172058956,0,0,0,,0,163,163,140,1,DOVET,LB,old,z,./images/DOVETLB.png,,,,,,,,,,,,,,,,,,,,,,,,,,,,,,,,,,,
,,,,,,,,,,,,,,,,,,19,2022-02-12_16h53.30.779,lexical_decision_task_DD_L4,2021.2.3,Linux x86_64,60.0060006,,,,,,,,,,,1.1516,1,,,,,,,,,,,,,,m,1,1.1516,,,,,,,,0.434546318,-0.172058956,0,0,0,,0,164,164,52,1,DESERT,HB,old,m,./images/DESERTHB.png,,,,,,,,,,,,,,,,,,,,,,,,,,,,,,,,,,,
,,,,,,,,,,,,,,,,,,19,2022-02-12_16h53.30.779,lexical_decision_task_DD_L4,2021.2.3,Linux x86_64,60.0060006,,,,,,,,,,,0.8067,1,,,,,,,,,,,,,,m,1,0.8067,,,,,,,,0.434546318,-0.172058956,0,0,0,,0,165,165,16,1,GRAPE,HB,old,m,./images/GRAPEHB.png,,,,,,,,,,,,,,,,,,,,,,,,,,,,,,,,,,,
,,,,,,,,,,,,,,,,,,19,2022-02-12_16h53.30.779,lexical_decision_task_DD_L4,2021.2.3,Linux x86_64,60.0060006,,,,,,,,,,,0.5927,1,,,,,,,,,,,,,,m,1,0.5927,,,,,,,,0.434546318,-0.172058956,0,0,0,,0,166,166,39,1,CANDY,C,old,m,./images/CANDY.png,,,,,,,,,,,,,,,,,,,,,,,,,,,,,,,,,,,
,,,,,,,,,,,,,,,,,,19,2022-02-12_16h53.30.779,lexical_decision_task_DD_L4,2021.2.3,Linux x86_64,60.0060006,,,,,,,,,,,0.955,1,,,,,,,,,,,,,,z,1,0.955,,,,,,,,0.434546318,-0.172058956,0,0,0,,0,167,167,124,1,TUNCH,HB,old,z,./images/TUNCHHB.png,,,,,,,,,,,,,,,,,,,,,,,,,,,,,,,,,,,
,,,,,,,,,,,,,,,,,,19,2022-02-12_16h53.30.779,lexical_decision_task_DD_L4,2021.2.3,Linux x86_64,60.0060006,,,,,,,,,,,,,,,,,,,,,,,,,,,,,,,,,,,,,,,,,,,,,,,,How likely will it be that you will recognize the words presented slighly blurred on a scale of 0 (not likely) to 100 (most likely)?,,,,,-0.009209262,-0.419669939,1,0,0,jol_adv,3,5.8152,0,0,0,1,1,,,,,,,,,,,,,,,,,,,,,
,,,,,,,,,,,,,,,,,,19,2022-02-12_16h53.30.779,lexical_decision_task_DD_L4,2021.2.3,Linux x86_64,60.0060006,,,,,,,,,,,,,,,,,,,,,,,,,,,,,,,,,,,,,,,,,,,,,,,,How likely will it be that you will recognize the words presented clearly on a scale of 0 (not likely) to 100 (most likely)?,,,,,,,,,,,6,8.227,0,1,1,0,1,,,,,,,,,,,,,,,,,,,,,
,,,,,,,,,,,,,,,,,,19,2022-02-12_16h53.30.779,lexical_decision_task_DD_L4,2021.2.3,Linux x86_64,60.0060006,,,,,,,,,,,,,,,,,,,,,,,,,,,,,,,,,,,,,,,,,,,,,,,,How likely will it be that you will recognize the words presented very blurred on a scale of 0 (not likely) to 100 (most likely)?,,,,,,,,,,,2,3.4431,0,2,2,2,1,,,,,,,,,,,,,,,,,,,,,
space,10.2573,-0.125127011,-0.282884717,0,0,0,,,,,,1,test,"In the next phase you will be presented with the words from the the first phase. Your job is to decide whether you remember seeing the word or not. If you remember seeing the word press ""old"" or type ""m"". If you do not remember seeing the word press ""new"" or type ""z"". Please press the space bar or click on continue to begin. ",,,,19,2022-02-12_16h53.30.779,lexical_decision_task_DD_L4,2021.2.3,Linux x86_64,60.0060006,,,,,,,,,,,,,,,,,,,,,,,,,,,,,,,,,,,,,,,,,,,,,,,,,,,,,,,,,,,,,,,,,,0,0,0,0,1,,,,,,,,,,,,,,,,
space,2.3932,-0.046255147,-0.393380617,0,0,0,,,,,,1,test,"In the next phase you will be presented with the words from the the first phase. Your job is to decide whether you remember seeing the word or not. If you remember seeing the word press ""old"" or type ""m"". If you do not remember seeing the word press ""new"" or type ""z"". Please press the space bar or click on continue to begin. ",,,,19,2022-02-12_16h53.30.779,lexical_decision_task_DD_L4,2021.2.3,Linux x86_64,60.0060006,,,,,,,,,,,,,,,,,,,,,,,,,,,,,,,,,,,,,,,,,,,,,,,,,,,,,,,,,,,,,,,,,,1,0,1,0,1,,,,,,,,,,,,,,,,
,,-0.01259279,-0.387766209,1,0,0,,,,,,1,test,"In the next phase you will be presented with the words from the the first phase. Your job is to decide whether you remember seeing the word or not. If you remember seeing the word press ""old"" or type ""m"". If you do not remember seeing the word press ""new"" or type ""z"". Please press the space bar or click on continue to begin. ",,,,19,2022-02-12_16h53.30.779,lexical_decision_task_DD_L4,2021.2.3,Linux x86_64,60.0060006,,,,,,,,,,,,,,,,,,,,,,,,,,,,,,,,,,,,,,,,,,,,,,,,,,,,,,,,,,,,,,,,,,2,0,2,0,1,instr_done_button,,,,,,,,,,,,,,,
space,1.6219,0.159517057,-0.169277273,0,0,0,,,,,,1,test,"In the next phase you will be presented with the words from the the first phase. Your job is to decide whether you remember seeing the word or not. If you remember seeing the word press ""old"" or type ""m"". If you do not remember seeing the word press ""new"" or type ""z"". Please press the space bar or click on continue to begin. ",,,,19,2022-02-12_16h53.30.779,lexical_decision_task_DD_L4,2021.2.3,Linux x86_64,60.0060006,,,,,,,,,,,,,,,,,,,,,,,,,,,,,,,,,,,,,,,,,,,,,,,,,,,,,,,,,,,,,,,,,,3,0,3,0,1,,,,,,,,,,,,,,,,
space,2.7846,-0.088855971,-0.182545682,0,0,0,,,,,,1,test,"In the next phase you will be presented with the words from the the first phase. Your job is to decide whether you remember seeing the word or not. If you remember seeing the word press ""old"" or type ""m"". If you do not remember seeing the word press ""new"" or type ""z"". Please press the space bar or click on continue to begin. ",,,,19,2022-02-12_16h53.30.779,lexical_decision_task_DD_L4,2021.2.3,Linux x86_64,60.0060006,,,,,,,,,,,,,,,,,,,,,,,,,,,,,,,,,,,,,,,,,,,,,,,,,,,,,,,,,,,,,,,,,,4,0,4,0,1,,,,,,,,,,,,,,,,
,,,,,,,,,,,,,,,,,,19,2022-02-12_16h53.30.779,lexical_decision_task_DD_L4,2021.2.3,Linux x86_64,60.0060006,,,,,,,,,,,1.4614,1,,,,,,,,,,,,,,,,,,,,,,,,-0.088855971,-0.182545682,0,0,0,,,,,,,GREASE,C,z,y,./images/GREASE.png,,,,,,,,,,,,,,,,,,,,,z,1,1.4614,,,,,,,,0,0,0,99,1
,,,,,,,,,,,,,,,,,,19,2022-02-12_16h53.30.779,lexical_decision_task_DD_L4,2021.2.3,Linux x86_64,60.0060006,,,,,,,,,,,0.5587,1,,,,,,,,,,,,,,,,,,,,,,,,-0.088855971,-0.182545682,0,0,0,,,,,,,DONKEY,HB,m,y,./images/DONKEYHB.png,,,,,,,,,,,,,,,,,,,,,m,1,0.5587,,,,,,,,0,1,1,19,1
,,,,,,,,,,,,,,,,,,19,2022-02-12_16h53.30.779,lexical_decision_task_DD_L4,2021.2.3,Linux x86_64,60.0060006,,,,,,,,,,,0.641,1,,,,,,,,,,,,,,,,,,,,,,,,-0.088855971,-0.182545682,0,0,0,,,,,,,FALCON,HB,z,y,./images/FALCONHB.png,,,,,,,,,,,,,,,,,,,,,z,1,0.641,,,,,,,,0,2,2,112,1
,,,,,,,,,,,,,,,,,,19,2022-02-12_16h53.30.779,lexical_decision_task_DD_L4,2021.2.3,Linux x86_64,60.0060006,,,,,,,,,,,0.6493,1,,,,,,,,,,,,,,,,,,,,,,,,-0.088855971,-0.182545682,0,0,0,,,,,,,ONION,C,z,y,./images/ONION.png,,,,,,,,,,,,,,,,,,,,,z,1,0.6493,,,,,,,,0,3,3,135,1
,,,,,,,,,,,,,,,,,,19,2022-02-12_16h53.30.779,lexical_decision_task_DD_L4,2021.2.3,Linux x86_64,60.0060006,,,,,,,,,,,0.722,1,,,,,,,,,,,,,,,,,,,,,,,,-0.088855971,-0.182545682,0,0,0,,,,,,,LITTER,C,z,y,./images/LITTER.png,,,,,,,,,,,,,,,,,,,,,z,1,0.722,,,,,,,,0,4,4,162,1
,,,,,,,,,,,,,,,,,,19,2022-02-12_16h53.30.779,lexical_decision_task_DD_L4,2021.2.3,Linux x86_64,60.0060006,,,,,,,,,,,0.7271,1,,,,,,,,,,,,,,,,,,,,,,,,-0.088855971,-0.182545682,0,0,0,,,,,,,BLOKE,C,m,y,./images/BLOKE.png,,,,,,,,,,,,,,,,,,,,,m,1,0.7271,,,,,,,,0,5,5,12,1
,,,,,,,,,,,,,,,,,,19,2022-02-12_16h53.30.779,lexical_decision_task_DD_L4,2021.2.3,Linux x86_64,60.0060006,,,,,,,,,,,0.532,1,,,,,,,,,,,,,,,,,,,,,,,,-0.088855971,-0.182545682,0,0,0,,,,,,,VALLEY,LB,m,y,./images/VALLEYLB.png,,,,,,,,,,,,,,,,,,,,,m,1,0.532,,,,,,,,0,6,6,68,1
,,,,,,,,,,,,,,,,,,19,2022-02-12_16h53.30.779,lexical_decision_task_DD_L4,2021.2.3,Linux x86_64,60.0060006,,,,,,,,,,,0.8131,0,,,,,,,,,,,,,,,,,,,,,,,,-0.088855971,-0.182545682,0,0,0,,,,,,,SHELF,C,z,y,./images/SHELF.png,,,,,,,,,,,,,,,,,,,,,m,0,0.8131,,,,,,,,0,7,7,123,1
,,,,,,,,,,,,,,,,,,19,2022-02-12_16h53.30.779,lexical_decision_task_DD_L4,2021.2.3,Linux x86_64,60.0060006,,,,,,,,,,,1.0331,1,,,,,,,,,,,,,,,,,,,,,,,,-0.088855971,-0.182545682,0,0,0,,,,,,,BRIDE,HB,m,y,./images/BRIDEHB.png,,,,,,,,,,,,,,,,,,,,,m,1,1.0331,,,,,,,,0,8,8,64,1
,,,,,,,,,,,,,,,,,,19,2022-02-12_16h53.30.779,lexical_decision_task_DD_L4,2021.2.3,Linux x86_64,60.0060006,,,,,,,,,,,0.7204,1,,,,,,,,,,,,,,,,,,,,,,,,-0.088855971,-0.182545682,0,0,0,,,,,,,SWEAT,C,z,y,./images/SWEAT.png,,,,,,,,,,,,,,,,,,,,,z,1,0.7204,,,,,,,,0,9,9,150,1
,,,,,,,,,,,,,,,,,,19,2022-02-12_16h53.30.779,lexical_decision_task_DD_L4,2021.2.3,Linux x86_64,60.0060006,,,,,,,,,,,0.6349,1,,,,,,,,,,,,,,,,,,,,,,,,-0.088855971,-0.182545682,0,0,0,,,,,,,RULER,HB,m,y,./images/RULERHB.png,,,,,,,,,,,,,,,,,,,,,m,1,0.6349,,,,,,,,0,10,10,79,1
,,,,,,,,,,,,,,,,,,19,2022-02-12_16h53.30.779,lexical_decision_task_DD_L4,2021.2.3,Linux x86_64,60.0060006,,,,,,,,,,,0.5298,1,,,,,,,,,,,,,,,,,,,,,,,,-0.088855971,-0.182545682,0,0,0,,,,,,,CLOUD,LB,m,y,./images/CLOUDLB.png,,,,,,,,,,,,,,,,,,,,,m,1,0.5298,,,,,,,,0,11,11,26,1
,,,,,,,,,,,,,,,,,,19,2022-02-12_16h53.30.779,lexical_decision_task_DD_L4,2021.2.3,Linux x86_64,60.0060006,,,,,,,,,,,0.5442,1,,,,,,,,,,,,,,,,,,,,,,,,-0.088855971,-0.182545682,0,0,0,,,,,,,POSTER,LB,m,y,./images/POSTERLB.png,,,,,,,,,,,,,,,,,,,,,m,1,0.5442,,,,,,,,0,12,12,53,1
,,,,,,,,,,,,,,,,,,19,2022-02-12_16h53.30.779,lexical_decision_task_DD_L4,2021.2.3,Linux x86_64,60.0060006,,,,,,,,,,,0.8111,1,,,,,,,,,,,,,,,,,,,,,,,,-0.088855971,-0.182545682,0,0,0,,,,,,,MOOSE,C,z,y,./images/MOOSE.png,,,,,,,,,,,,,,,,,,,,,z,1,0.8111,,,,,,,,0,13,13,141,1
,,,,,,,,,,,,,,,,,,19,2022-02-12_16h53.30.779,lexical_decision_task_DD_L4,2021.2.3,Linux x86_64,60.0060006,,,,,,,,,,,0.5261,1,,,,,,,,,,,,,,,,,,,,,,,,-0.088855971,-0.182545682,0,0,0,,,,,,,BASKET,LB,m,y,./images/BASKETLB.png,,,,,,,,,,,,,,,,,,,,,m,1,0.5261,,,,,,,,0,14,14,44,1
,,,,,,,,,,,,,,,,,,19,2022-02-12_16h53.30.779,lexical_decision_task_DD_L4,2021.2.3,Linux x86_64,60.0060006,,,,,,,,,,,0.6801,1,,,,,,,,,,,,,,,,,,,,,,,,-0.088855971,-0.182545682,0,0,0,,,,,,,QUILL,HB,z,y,./images/QUILLHB.png,,,,,,,,,,,,,,,,,,,,,z,1,0.6801,,,,,,,,0,15,15,115,1
,,,,,,,,,,,,,,,,,,19,2022-02-12_16h53.30.779,lexical_decision_task_DD_L4,2021.2.3,Linux x86_64,60.0060006,,,,,,,,,,,0.5792,1,,,,,,,,,,,,,,,,,,,,,,,,-0.088855971,-0.182545682,0,0,0,,,,,,,CLOTH,LB,m,y,./images/CLOTHLB.png,,,,,,,,,,,,,,,,,,,,,m,1,0.5792,,,,,,,,0,16,16,23,1
,,,,,,,,,,,,,,,,,,19,2022-02-12_16h53.30.779,lexical_decision_task_DD_L4,2021.2.3,Linux x86_64,60.0060006,,,,,,,,,,,0.6707,1,,,,,,,,,,,,,,,,,,,,,,,,-0.088855971,-0.182545682,0,0,0,,,,,,,MUFFIN,HB,z,y,./images/MUFFINHB.png,,,,,,,,,,,,,,,,,,,,,z,1,0.6707,,,,,,,,0,17,17,139,1
,,,,,,,,,,,,,,,,,,19,2022-02-12_16h53.30.779,lexical_decision_task_DD_L4,2021.2.3,Linux x86_64,60.0060006,,,,,,,,,,,0.8328,1,,,,,,,,,,,,,,,,,,,,,,,,-0.088855971,-0.182545682,0,0,0,,,,,,,PENCE,HB,z,y,./images/PENCEHB.png,,,,,,,,,,,,,,,,,,,,,z,1,0.8328,,,,,,,,0,18,18,100,1
,,,,,,,,,,,,,,,,,,19,2022-02-12_16h53.30.779,lexical_decision_task_DD_L4,2021.2.3,Linux x86_64,60.0060006,,,,,,,,,,,0.5252,0,,,,,,,,,,,,,,,,,,,,,,,,-0.088855971,-0.182545682,0,0,0,,,,,,,CANYON,HB,z,y,./images/CANYONHB.png,,,,,,,,,,,,,,,,,,,,,m,0,0.5252,,,,,,,,0,19,19,118,1
,,,,,,,,,,,,,,,,,,19,2022-02-12_16h53.30.779,lexical_decision_task_DD_L4,2021.2.3,Linux x86_64,60.0060006,,,,,,,,,,,0.6471,1,,,,,,,,,,,,,,,,,,,,,,,,-0.088855971,-0.182545682,0,0,0,,,,,,,CLIFF,LB,m,y,./images/CLIFFLB.png,,,,,,,,,,,,,,,,,,,,,m,1,0.6471,,,,,,,,0,20,20,8,1
,,,,,,,,,,,,,,,,,,19,2022-02-12_16h53.30.779,lexical_decision_task_DD_L4,2021.2.3,Linux x86_64,60.0060006,,,,,,,,,,,0.5699,0,,,,,,,,,,,,,,,,,,,,,,,,-0.088855971,-0.182545682,0,0,0,,,,,,,BERRY,LB,z,y,./images/BERRYLB.png,,,,,,,,,,,,,,,,,,,,,m,0,0.5699,,,,,,,,0,21,21,131,1
,,,,,,,,,,,,,,,,,,19,2022-02-12_16h53.30.779,lexical_decision_task_DD_L4,2021.2.3,Linux x86_64,60.0060006,,,,,,,,,,,0.5112,1,,,,,,,,,,,,,,,,,,,,,,,,-0.088855971,-0.182545682,0,0,0,,,,,,,FLASK,C,m,y,./images/FLASK.png,,,,,,,,,,,,,,,,,,,,,m,1,0.5112,,,,,,,,0,22,22,72,1
,,,,,,,,,,,,,,,,,,19,2022-02-12_16h53.30.779,lexical_decision_task_DD_L4,2021.2.3,Linux x86_64,60.0060006,,,,,,,,,,,0.4978,1,,,,,,,,,,,,,,,,,,,,,,,,-0.088855971,-0.182545682,0,0,0,,,,,,,CASINO,HB,m,y,./images/CASINOHB.png,,,,,,,,,,,,,,,,,,,,,m,1,0.4978,,,,,,,,0,23,23,28,1
,,,,,,,,,,,,,,,,,,19,2022-02-12_16h53.30.779,lexical_decision_task_DD_L4,2021.2.3,Linux x86_64,60.0060006,,,,,,,,,,,0.5646,1,,,,,,,,,,,,,,,,,,,,,,,,-0.088855971,-0.182545682,0,0,0,,,,,,,SAUCE,C,m,y,./images/SAUCE.png,,,,,,,,,,,,,,,,,,,,,m,1,0.5646,,,,,,,,0,24,24,51,1
,,,,,,,,,,,,,,,,,,19,2022-02-12_16h53.30.779,lexical_decision_task_DD_L4,2021.2.3,Linux x86_64,60.0060006,,,,,,,,,,,1.0465,0,,,,,,,,,,,,,,,,,,,,,,,,-0.088855971,-0.182545682,0,0,0,,,,,,,GRAIN,C,z,y,./images/GRAIN.png,,,,,,,,,,,,,,,,,,,,,m,0,1.0465,,,,,,,,0,25,25,159,1
,,,,,,,,,,,,,,,,,,19,2022-02-12_16h53.30.779,lexical_decision_task_DD_L4,2021.2.3,Linux x86_64,60.0060006,,,,,,,,,,,0.6777,0,,,,,,,,,,,,,,,,,,,,,,,,-0.088855971,-0.182545682,0,0,0,,,,,,,SQUARE,C,z,y,./images/SQUARE.png,,,,,,,,,,,,,,,,,,,,,m,0,0.6777,,,,,,,,0,26,26,90,1
,,,,,,,,,,,,,,,,,,19,2022-02-12_16h53.30.779,lexical_decision_task_DD_L4,2021.2.3,Linux x86_64,60.0060006,,,,,,,,,,,0.5803,1,,,,,,,,,,,,,,,,,,,,,,,,-0.088855971,-0.182545682,0,0,0,,,,,,,WAGON,HB,m,y,./images/WAGONHB.png,,,,,,,,,,,,,,,,,,,,,m,1,0.5803,,,,,,,,0,27,27,7,1
,,,,,,,,,,,,,,,,,,19,2022-02-12_16h53.30.779,lexical_decision_task_DD_L4,2021.2.3,Linux x86_64,60.0060006,,,,,,,,,,,0.6143,0,,,,,,,,,,,,,,,,,,,,,,,,-0.088855971,-0.182545682,0,0,0,,,,,,,CANDLE,HB,z,y,./images/CANDLEHB.png,,,,,,,,,,,,,,,,,,,,,m,0,0.6143,,,,,,,,0,28,28,145,1
,,,,,,,,,,,,,,,,,,19,2022-02-12_16h53.30.779,lexical_decision_task_DD_L4,2021.2.3,Linux x86_64,60.0060006,,,,,,,,,,,1.2361,1,,,,,,,,,,,,,,,,,,,,,,,,-0.088855971,-0.182545682,0,0,0,,,,,,,FARMER,LB,z,y,./images/FARMERLB.png,,,,,,,,,,,,,,,,,,,,,z,1,1.2361,,,,,,,,0,29,29,149,1
,,,,,,,,,,,,,,,,,,19,2022-02-12_16h53.30.779,lexical_decision_task_DD_L4,2021.2.3,Linux x86_64,60.0060006,,,,,,,,,,,0.8641,1,,,,,,,,,,,,,,,,,,,,,,,,-0.088855971,-0.182545682,0,0,0,,,,,,,PURSE,LB,z,y,./images/PURSELB.png,,,,,,,,,,,,,,,,,,,,,z,1,0.8641,,,,,,,,0,30,30,146,1
,,,,,,,,,,,,,,,,,,19,2022-02-12_16h53.30.779,lexical_decision_task_DD_L4,2021.2.3,Linux x86_64,60.0060006,,,,,,,,,,,0.6301,0,,,,,,,,,,,,,,,,,,,,,,,,-0.088855971,-0.182545682,0,0,0,,,,,,,PACKET,LB,z,y,./images/PACKETLB.png,,,,,,,,,,,,,,,,,,,,,m,0,0.6301,,,,,,,,0,31,31,140,1
,,,,,,,,,,,,,,,,,,19,2022-02-12_16h53.30.779,lexical_decision_task_DD_L4,2021.2.3,Linux x86_64,60.0060006,,,,,,,,,,,0.5983,0,,,,,,,,,,,,,,,,,,,,,,,,-0.088855971,-0.182545682,0,0,0,,,,,,,BARREL,LB,z,y,./images/BARRELLB.png,,,,,,,,,,,,,,,,,,,,,m,0,0.5983,,,,,,,,0,32,32,116,1
,,,,,,,,,,,,,,,,,,19,2022-02-12_16h53.30.779,lexical_decision_task_DD_L4,2021.2.3,Linux x86_64,60.0060006,,,,,,,,,,,0.7617,1,,,,,,,,,,,,,,,,,,,,,,,,-0.088855971,-0.182545682,0,0,0,,,,,,,BANNER,HB,z,y,./images/BANNERHB.png,,,,,,,,,,,,,,,,,,,,,z,1,0.7617,,,,,,,,0,33,33,136,1
,,,,,,,,,,,,,,,,,,19,2022-02-12_16h53.30.779,lexical_decision_task_DD_L4,2021.2.3,Linux x86_64,60.0060006,,,,,,,,,,,0.8016,1,,,,,,,,,,,,,,,,,,,,,,,,-0.088855971,-0.182545682,0,0,0,,,,,,,MOTOR,HB,z,y,./images/MOTORHB.png,,,,,,,,,,,,,,,,,,,,,z,1,0.8016,,,,,,,,0,34,34,97,1
,,,,,,,,,,,,,,,,,,19,2022-02-12_16h53.30.779,lexical_decision_task_DD_L4,2021.2.3,Linux x86_64,60.0060006,,,,,,,,,,,0.5625,1,,,,,,,,,,,,,,,,,,,,,,,,-0.088855971,-0.182545682,0,0,0,,,,,,,CLOWN,HB,m,y,./images/CLOWNHB.png,,,,,,,,,,,,,,,,,,,,,m,1,0.5625,,,,,,,,0,35,35,22,1
,,,,,,,,,,,,,,,,,,19,2022-02-12_16h53.30.779,lexical_decision_task_DD_L4,2021.2.3,Linux x86_64,60.0060006,,,,,,,,,,,0.7187,1,,,,,,,,,,,,,,,,,,,,,,,,-0.088855971,-0.182545682,0,0,0,,,,,,,ARROW,C,m,y,./images/ARROW.png,,,,,,,,,,,,,,,,,,,,,m,1,0.7187,,,,,,,,0,36,36,69,1
,,,,,,,,,,,,,,,,,,19,2022-02-12_16h53.30.779,lexical_decision_task_DD_L4,2021.2.3,Linux x86_64,60.0060006,,,,,,,,,,,0.7604,1,,,,,,,,,,,,,,,,,,,,,,,,-0.088855971,-0.182545682,0,0,0,,,,,,,FINGER,C,z,y,./images/FINGER.png,,,,,,,,,,,,,,,,,,,,,z,1,0.7604,,,,,,,,0,37,37,87,1
,,,,,,,,,,,,,,,,,,19,2022-02-12_16h53.30.779,lexical_decision_task_DD_L4,2021.2.3,Linux x86_64,60.0060006,,,,,,,,,,,0.679,1,,,,,,,,,,,,,,,,,,,,,,,,-0.088855971,-0.182545682,0,0,0,,,,,,,PEACH,LB,z,y,./images/PEACHLB.png,,,,,,,,,,,,,,,,,,,,,z,1,0.679,,,,,,,,0,38,38,119,1
,,,,,,,,,,,,,,,,,,19,2022-02-12_16h53.30.779,lexical_decision_task_DD_L4,2021.2.3,Linux x86_64,60.0060006,,,,,,,,,,,0.5077,1,,,,,,,,,,,,,,,,,,,,,,,,-0.088855971,-0.182545682,0,0,0,,,,,,,DIVER,C,m,y,./images/DIVER.png,,,,,,,,,,,,,,,,,,,,,m,1,0.5077,,,,,,,,0,39,39,9,1
,,,,,,,,,,,,,,,,,,19,2022-02-12_16h53.30.779,lexical_decision_task_DD_L4,2021.2.3,Linux x86_64,60.0060006,,,,,,,,,,,0.5446,0,,,,,,,,,,,,,,,,,,,,,,,,-0.088855971,-0.182545682,0,0,0,,,,,,,CARPET,LB,z,y,./images/CARPETLB.png,,,,,,,,,,,,,,,,,,,,,m,0,0.5446,,,,,,,,0,40,40,137,1
,,,,,,,,,,,,,,,,,,19,2022-02-12_16h53.30.779,lexical_decision_task_DD_L4,2021.2.3,Linux x86_64,60.0060006,,,,,,,,,,,0.6641,1,,,,,,,,,,,,,,,,,,,,,,,,-0.088855971,-0.182545682,0,0,0,space,,,,,,MEDAL,LB,m,y,./images/MEDALLB.png,1.5121,,,,,,,,,,,,,,,,,,,,m,1,0.6641,,,,,,,,0,41,41,11,1
,,,,,,,,,,,,,,,,,,19,2022-02-12_16h53.30.779,lexical_decision_task_DD_L4,2021.2.3,Linux x86_64,60.0060006,,,,,,,,,,,0.5773,1,,,,,,,,,,,,,,,,,,,,,,,,-0.088855971,-0.182545682,0,0,0,,,,,,,SPINE,LB,m,y,./images/SPINELB.png,,,,,,,,,,,,,,,,,,,,,m,1,0.5773,,,,,,,,0,42,42,65,1
,,,,,,,,,,,,,,,,,,19,2022-02-12_16h53.30.779,lexical_decision_task_DD_L4,2021.2.3,Linux x86_64,60.0060006,,,,,,,,,,,0.567,1,,,,,,,,,,,,,,,,,,,,,,,,-0.088855971,-0.182545682,0,0,0,,,,,,,DRILL,C,m,y,./images/DRILL.png,,,,,,,,,,,,,,,,,,,,,m,1,0.567,,,,,,,,0,43,43,81,1
,,,,,,,,,,,,,,,,,,19,2022-02-12_16h53.30.779,lexical_decision_task_DD_L4,2021.2.3,Linux x86_64,60.0060006,,,,,,,,,,,0.6812,1,,,,,,,,,,,,,,,,,,,,,,,,-0.088855971,-0.182545682,0,0,0,,,,,,,DOUGH,HB,z,y,./images/DOUGHHB.png,,,,,,,,,,,,,,,,,,,,,z,1,0.6812,,,,,,,,0,44,44,103,1
,,,,,,,,,,,,,,,,,,19,2022-02-12_16h53.30.779,lexical_decision_task_DD_L4,2021.2.3,Linux x86_64,60.0060006,,,,,,,,,,,0.544,1,,,,,,,,,,,,,,,,,,,,,,,,-0.088855971,-0.182545682,0,0,0,,,,,,,CHALK,HB,m,y,./images/CHALKHB.png,,,,,,,,,,,,,,,,,,,,,m,1,0.544,,,,,,,,0,45,45,25,1
,,,,,,,,,,,,,,,,,,19,2022-02-12_16h53.30.779,lexical_decision_task_DD_L4,2021.2.3,Linux x86_64,60.0060006,,,,,,,,,,,0.582,1,,,,,,,,,,,,,,,,,,,,,,,,-0.088855971,-0.182545682,0,0,0,,,,,,,JUMPER,LB,m,y,./images/JUMPERLB.png,,,,,,,,,,,,,,,,,,,,,m,1,0.582,,,,,,,,0,46,46,74,1
,,,,,,,,,,,,,,,,,,19,2022-02-12_16h53.30.779,lexical_decision_task_DD_L4,2021.2.3,Linux x86_64,60.0060006,,,,,,,,,,,0.5646,1,,,,,,,,,,,,,,,,,,,,,,,,-0.088855971,-0.182545682,0,0,0,,,,,,,BAMBOO,LB,m,y,./images/BAMBOOLB.png,,,,,,,,,,,,,,,,,,,,,m,1,0.5646,,,,,,,,0,47,47,5,1
,,,,,,,,,,,,,,,,,,19,2022-02-12_16h53.30.779,lexical_decision_task_DD_L4,2021.2.3,Linux x86_64,60.0060006,,,,,,,,,,,0.7144,1,,,,,,,,,,,,,,,,,,,,,,,,-0.088855971,-0.182545682,0,0,0,,,,,,,KITTEN,C,z,y,./images/KITTEN.png,,,,,,,,,,,,,,,,,,,,,z,1,0.7144,,,,,,,,0,48,48,129,1
,,,,,,,,,,,,,,,,,,19,2022-02-12_16h53.30.779,lexical_decision_task_DD_L4,2021.2.3,Linux x86_64,60.0060006,,,,,,,,,,,0.8001,1,,,,,,,,,,,,,,,,,,,,,,,,-0.088855971,-0.182545682,0,0,0,,,,,,,MAGGOT,C,z,y,./images/MAGGOT.png,,,,,,,,,,,,,,,,,,,,,z,1,0.8001,,,,,,,,0,49,49,117,1
,,,,,,,,,,,,,,,,,,19,2022-02-12_16h53.30.779,lexical_decision_task_DD_L4,2021.2.3,Linux x86_64,60.0060006,,,,,,,,,,,0.8667,1,,,,,,,,,,,,,,,,,,,,,,,,-0.088855971,-0.182545682,0,0,0,,,,,,,ATTIC,C,z,y,./images/ATTIC.png,,,,,,,,,,,,,,,,,,,,,z,1,0.8667,,,,,,,,0,50,50,111,1
,,,,,,,,,,,,,,,,,,19,2022-02-12_16h53.30.779,lexical_decision_task_DD_L4,2021.2.3,Linux x86_64,60.0060006,,,,,,,,,,,0.7147,1,,,,,,,,,,,,,,,,,,,,,,,,-0.088855971,-0.182545682,0,0,0,,,,,,,CHERRY,C,m,y,./images/CHERRY.png,,,,,,,,,,,,,,,,,,,,,m,1,0.7147,,,,,,,,0,51,51,54,1
,,,,,,,,,,,,,,,,,,19,2022-02-12_16h53.30.779,lexical_decision_task_DD_L4,2021.2.3,Linux x86_64,60.0060006,,,,,,,,,,,0.6107,1,,,,,,,,,,,,,,,,,,,,,,,,-0.088855971,-0.182545682,0,0,0,,,,,,,PARCEL,C,m,y,./images/PARCEL.png,,,,,,,,,,,,,,,,,,,,,m,1,0.6107,,,,,,,,0,52,52,18,1
,,,,,,,,,,,,,,,,,,19,2022-02-12_16h53.30.779,lexical_decision_task_DD_L4,2021.2.3,Linux x86_64,60.0060006,,,,,,,,,,,0.529,1,,,,,,,,,,,,,,,,,,,,,,,,-0.088855971,-0.182545682,0,0,0,,,,,,,CANDY,C,m,y,./images/CANDY.png,,,,,,,,,,,,,,,,,,,,,m,1,0.529,,,,,,,,0,53,53,39,1
,,,,,,,,,,,,,,,,,,19,2022-02-12_16h53.30.779,lexical_decision_task_DD_L4,2021.2.3,Linux x86_64,60.0060006,,,,,,,,,,,0.5455,1,,,,,,,,,,,,,,,,,,,,,,,,-0.088855971,-0.182545682,0,0,0,,,,,,,BISHOP,HB,m,y,./images/BISHOPHB.png,,,,,,,,,,,,,,,,,,,,,m,1,0.5455,,,,,,,,0,54,54,49,1
,,,,,,,,,,,,,,,,,,19,2022-02-12_16h53.30.779,lexical_decision_task_DD_L4,2021.2.3,Linux x86_64,60.0060006,,,,,,,,,,,0.7305,1,,,,,,,,,,,,,,,,,,,,,,,,-0.088855971,-0.182545682,0,0,0,,,,,,,JELLY,HB,z,y,./images/JELLYHB.png,,,,,,,,,,,,,,,,,,,,,z,1,0.7305,,,,,,,,0,55,55,148,1
,,,,,,,,,,,,,,,,,,19,2022-02-12_16h53.30.779,lexical_decision_task_DD_L4,2021.2.3,Linux x86_64,60.0060006,,,,,,,,,,,0.8979,1,,,,,,,,,,,,,,,,,,,,,,,,-0.088855971,-0.182545682,0,0,0,,,,,,,WRIST,HB,z,y,./images/WRISTHB.png,,,,,,,,,,,,,,,,,,,,,z,1,0.8979,,,,,,,,0,56,56,109,1
,,,,,,,,,,,,,,,,,,19,2022-02-12_16h53.30.779,lexical_decision_task_DD_L4,2021.2.3,Linux x86_64,60.0060006,,,,,,,,,,,0.5827,1,,,,,,,,,,,,,,,,,,,,,,,,-0.088855971,-0.182545682,0,0,0,,,,,,,MUMMY,HB,m,y,./images/MUMMYHB.png,,,,,,,,,,,,,,,,,,,,,m,1,0.5827,,,,,,,,0,57,57,46,1
,,,,,,,,,,,,,,,,,,19,2022-02-12_16h53.30.779,lexical_decision_task_DD_L4,2021.2.3,Linux x86_64,60.0060006,,,,,,,,,,,0.7644,1,,,,,,,,,,,,,,,,,,,,,,,,-0.088855971,-0.182545682,0,0,0,,,,,,,SWING,HB,z,y,./images/SWINGHB.png,,,,,,,,,,,,,,,,,,,,,z,1,0.7644,,,,,,,,0,58,58,124,1
,,,,,,,,,,,,,,,,,,19,2022-02-12_16h53.30.779,lexical_decision_task_DD_L4,2021.2.3,Linux x86_64,60.0060006,,,,,,,,,,,1.2777,0,,,,,,,,,,,,,,,,,,,,,,,,-0.088855971,-0.182545682,0,0,0,,,,,,,SUNSET,HB,z,y,./images/SUNSETHB.png,,,,,,,,,,,,,,,,,,,,,m,0,1.2777,,,,,,,,0,59,59,166,1
,,,,,,,,,,,,,,,,,,19,2022-02-12_16h53.30.779,lexical_decision_task_DD_L4,2021.2.3,Linux x86_64,60.0060006,,,,,,,,,,,0.5945,1,,,,,,,,,,,,,,,,,,,,,,,,-0.088855971,-0.182545682,0,0,0,,,,,,,ALLEY,HB,m,y,./images/ALLEYHB.png,,,,,,,,,,,,,,,,,,,,,m,1,0.5945,,,,,,,,0,60,60,55,1
,,,,,,,,,,,,,,,,,,19,2022-02-12_16h53.30.779,lexical_decision_task_DD_L4,2021.2.3,Linux x86_64,60.0060006,,,,,,,,,,,1.0837,1,,,,,,,,,,,,,,,,,,,,,,,,-0.088855971,-0.182545682,0,0,0,,,,,,,STOVE,LB,m,y,./images/STOVELB.png,,,,,,,,,,,,,,,,,,,,,m,1,1.0837,,,,,,,,0,61,61,2,1
,,,,,,,,,,,,,,,,,,19,2022-02-12_16h53.30.779,lexical_decision_task_DD_L4,2021.2.3,Linux x86_64,60.0060006,,,,,,,,,,,0.9422,0,,,,,,,,,,,,,,,,,,,,,,,,-0.088855971,-0.182545682,0,0,0,,,,,,,CRATER,C,m,y,./images/CRATER.png,,,,,,,,,,,,,,,,,,,,,z,0,0.9422,,,,,,,,0,62,62,3,1
,,,,,,,,,,,,,,,,,,19,2022-02-12_16h53.30.779,lexical_decision_task_DD_L4,2021.2.3,Linux x86_64,60.0060006,,,,,,,,,,,0.6785,1,,,,,,,,,,,,,,,,,,,,,,,,-0.088855971,-0.182545682,0,0,0,,,,,,,STOOL,HB,m,y,./images/STOOLHB.png,,,,,,,,,,,,,,,,,,,,,m,1,0.6785,,,,,,,,0,63,63,43,1
,,,,,,,,,,,,,,,,,,19,2022-02-12_16h53.30.779,lexical_decision_task_DD_L4,2021.2.3,Linux x86_64,60.0060006,,,,,,,,,,,0.5972,1,,,,,,,,,,,,,,,,,,,,,,,,-0.088855971,-0.182545682,0,0,0,,,,,,,BOILER,C,m,y,./images/BOILER.png,,,,,,,,,,,,,,,,,,,,,m,1,0.5972,,,,,,,,0,64,64,36,1
,,,,,,,,,,,,,,,,,,19,2022-02-12_16h53.30.779,lexical_decision_task_DD_L4,2021.2.3,Linux x86_64,60.0060006,,,,,,,,,,,0.8831,1,,,,,,,,,,,,,,,,,,,,,,,,-0.088855971,-0.182545682,0,0,0,,,,,,,WHISKY,LB,m,y,./images/WHISKYLB.png,,,,,,,,,,,,,,,,,,,,,m,1,0.8831,,,,,,,,0,65,65,83,1
,,,,,,,,,,,,,,,,,,19,2022-02-12_16h53.30.779,lexical_decision_task_DD_L4,2021.2.3,Linux x86_64,60.0060006,,,,,,,,,,,0.8638,1,,,,,,,,,,,,,,,,,,,,,,,,-0.088855971,-0.182545682,0,0,0,,,,,,,COUCH,LB,z,y,./images/COUCHLB.png,,,,,,,,,,,,,,,,,,,,,z,1,0.8638,,,,,,,,0,66,66,161,1
,,,,,,,,,,,,,,,,,,19,2022-02-12_16h53.30.779,lexical_decision_task_DD_L4,2021.2.3,Linux x86_64,60.0060006,,,,,,,,,,,0.5596,1,,,,,,,,,,,,,,,,,,,,,,,,-0.088855971,-0.182545682,0,0,0,,,,,,,PILOT,LB,m,y,./images/PILOTLB.png,,,,,,,,,,,,,,,,,,,,,m,1,0.5596,,,,,,,,0,67,67,50,1
,,,,,,,,,,,,,,,,,,19,2022-02-12_16h53.30.779,lexical_decision_task_DD_L4,2021.2.3,Linux x86_64,60.0060006,,,,,,,,,,,0.6507,1,,,,,,,,,,,,,,,,,,,,,,,,-0.088855971,-0.182545682,0,0,0,,,,,,,TOMATO,C,z,y,./images/TOMATO.png,,,,,,,,,,,,,,,,,,,,,z,1,0.6507,,,,,,,,0,68,68,84,1
,,,,,,,,,,,,,,,,,,19,2022-02-12_16h53.30.779,lexical_decision_task_DD_L4,2021.2.3,Linux x86_64,60.0060006,,,,,,,,,,,0.5868,1,,,,,,,,,,,,,,,,,,,,,,,,-0.088855971,-0.182545682,0,0,0,,,,,,,SLOPE,C,m,y,./images/SLOPE.png,,,,,,,,,,,,,,,,,,,,,m,1,0.5868,,,,,,,,0,69,69,30,1
,,,,,,,,,,,,,,,,,,19,2022-02-12_16h53.30.779,lexical_decision_task_DD_L4,2021.2.3,Linux x86_64,60.0060006,,,,,,,,,,,0.8291,1,,,,,,,,,,,,,,,,,,,,,,,,-0.088855971,-0.182545682,0,0,0,,,,,,,DANCER,C,m,y,./images/DANCER.png,,,,,,,,,,,,,,,,,,,,,m,1,0.8291,,,,,,,,0,70,70,21,1
,,,,,,,,,,,,,,,,,,19,2022-02-12_16h53.30.779,lexical_decision_task_DD_L4,2021.2.3,Linux x86_64,60.0060006,,,,,,,,,,,0.8265,1,,,,,,,,,,,,,,,,,,,,,,,,-0.088855971,-0.182545682,0,0,0,,,,,,,PLANK,HB,z,y,./images/PLANKHB.png,,,,,,,,,,,,,,,,,,,,,z,1,0.8265,,,,,,,,0,71,71,85,1
,,,,,,,,,,,,,,,,,,19,2022-02-12_16h53.30.779,lexical_decision_task_DD_L4,2021.2.3,Linux x86_64,60.0060006,,,,,,,,,,,0.9813,0,,,,,,,,,,,,,,,,,,,,,,,,-0.088855971,-0.182545682,0,0,0,,,,,,,PLANET,LB,m,y,./images/PLANETLB.png,,,,,,,,,,,,,,,,,,,,,z,0,0.9813,,,,,,,,0,72,72,80,1
,,,,,,,,,,,,,,,,,,19,2022-02-12_16h53.30.779,lexical_decision_task_DD_L4,2021.2.3,Linux x86_64,60.0060006,,,,,,,,,,,0.7983,1,,,,,,,,,,,,,,,,,,,,,,,,-0.088855971,-0.182545682,0,0,0,,,,,,,JUNGLE,LB,z,y,./images/JUNGLELB.png,,,,,,,,,,,,,,,,,,,,,z,1,0.7983,,,,,,,,0,73,73,167,1
,,,,,,,,,,,,,,,,,,19,2022-02-12_16h53.30.779,lexical_decision_task_DD_L4,2021.2.3,Linux x86_64,60.0060006,,,,,,,,,,,0.8127,1,,,,,,,,,,,,,,,,,,,,,,,,-0.088855971,-0.182545682,0,0,0,,,,,,,JAGUAR,C,z,y,./images/JAGUAR.png,,,,,,,,,,,,,,,,,,,,,z,1,0.8127,,,,,,,,0,74,74,102,1
,,,,,,,,,,,,,,,,,,19,2022-02-12_16h53.30.779,lexical_decision_task_DD_L4,2021.2.3,Linux x86_64,60.0060006,,,,,,,,,,,1.2307,0,,,,,,,,,,,,,,,,,,,,,,,,-0.088855971,-0.182545682,0,0,0,,,,,,,STORM,C,z,y,./images/STORM.png,,,,,,,,,,,,,,,,,,,,,m,0,1.2307,,,,,,,,0,75,75,114,1
,,,,,,,,,,,,,,,,,,19,2022-02-12_16h53.30.779,lexical_decision_task_DD_L4,2021.2.3,Linux x86_64,60.0060006,,,,,,,,,,,1.9964,1,,,,,,,,,,,,,,,,,,,,,,,,-0.088855971,-0.182545682,0,0,0,,,,,,,NOOSE,C,z,y,./images/NOOSE.png,,,,,,,,,,,,,,,,,,,,,z,1,1.9964,,,,,,,,0,76,76,156,1
,,,,,,,,,,,,,,,,,,19,2022-02-12_16h53.30.779,lexical_decision_task_DD_L4,2021.2.3,Linux x86_64,60.0060006,,,,,,,,,,,1.2783,0,,,,,,,,,,,,,,,,,,,,,,,,-0.088855971,-0.182545682,0,0,0,,,,,,,BONNET,LB,z,y,./images/BONNETLB.png,,,,,,,,,,,,,,,,,,,,,m,0,1.2783,,,,,,,,0,77,77,95,1
,,,,,,,,,,,,,,,,,,19,2022-02-12_16h53.30.779,lexical_decision_task_DD_L4,2021.2.3,Linux x86_64,60.0060006,,,,,,,,,,,0.9006,0,,,,,,,,,,,,,,,,,,,,,,,,-0.088855971,-0.182545682,0,0,0,,,,,,,SPORT,C,z,y,./images/SPORT.png,,,,,,,,,,,,,,,,,,,,,m,0,0.9006,,,,,,,,0,78,78,132,1
,,,,,,,,,,,,,,,,,,19,2022-02-12_16h53.30.779,lexical_decision_task_DD_L4,2021.2.3,Linux x86_64,60.0060006,,,,,,,,,,,0.4794,1,,,,,,,,,,,,,,,,,,,,,,,,-0.088855971,-0.182545682,0,0,0,,,,,,,COLLAR,C,m,y,./images/COLLAR.png,,,,,,,,,,,,,,,,,,,,,m,1,0.4794,,,,,,,,0,79,79,15,1
,,,,,,,,,,,,,,,,,,19,2022-02-12_16h53.30.779,lexical_decision_task_DD_L4,2021.2.3,Linux x86_64,60.0060006,,,,,,,,,,,1.0021,1,,,,,,,,,,,,,,,,,,,,,,,,-0.088855971,-0.182545682,0,0,0,,,,,,,STREAM,LB,m,y,./images/STREAMLB.png,,,,,,,,,,,,,,,,,,,,,m,1,1.0021,,,,,,,,0,80,80,41,1
,,,,,,,,,,,,,,,,,,19,2022-02-12_16h53.30.779,lexical_decision_task_DD_L4,2021.2.3,Linux x86_64,60.0060006,,,,,,,,,,,0.5678,1,,,,,,,,,,,,,,,,,,,,,,,,-0.088855971,-0.182545682,0,0,0,,,,,,,BUTTER,C,m,y,./images/BUTTER.png,,,,,,,,,,,,,,,,,,,,,m,1,0.5678,,,,,,,,0,81,81,27,1
,,,,,,,,,,,,,,,,,,19,2022-02-12_16h53.30.779,lexical_decision_task_DD_L4,2021.2.3,Linux x86_64,60.0060006,,,,,,,,,,,0.5509,1,,,,,,,,,,,,,,,,,,,,,,,,-0.088855971,-0.182545682,0,0,0,,,,,,,DESERT,HB,m,y,./images/DESERTHB.png,,,,,,,,,,,,,,,,,,,,,m,1,0.5509,,,,,,,,0,82,82,52,1
,,,,,,,,,,,,,,,,,,19,2022-02-12_16h53.30.779,lexical_decision_task_DD_L4,2021.2.3,Linux x86_64,60.0060006,,,,,,,,,,,0.9119,0,,,,,,,,,,,,,,,,,,,,,,,,-0.088855971,-0.182545682,0,0,0,space,,,,,,COOKER,C,z,y,./images/COOKER.png,19.5924,,,,,,,,,,,,,,,,,,,,m,0,0.9119,,,,,,,,0,83,83,153,1
,,,,,,,,,,,,,,,,,,19,2022-02-12_16h53.30.779,lexical_decision_task_DD_L4,2021.2.3,Linux x86_64,60.0060006,,,,,,,,,,,0.9635,1,,,,,,,,,,,,,,,,,,,,,,,,-0.088855971,-0.182545682,0,0,0,,,,,,,BANANA,HB,m,y,./images/BANANAHB.png,,,,,,,,,,,,,,,,,,,,,m,1,0.9635,,,,,,,,0,84,84,70,1
,,,,,,,,,,,,,,,,,,19,2022-02-12_16h53.30.779,lexical_decision_task_DD_L4,2021.2.3,Linux x86_64,60.0060006,,,,,,,,,,,0.6789,0,,,,,,,,,,,,,,,,,,,,,,,,-0.088855971,-0.182545682,0,0,0,,,,,,,LADDER,LB,z,y,./images/LADDERLB.png,,,,,,,,,,,,,,,,,,,,,m,0,0.6789,,,,,,,,0,85,85,122,1
,,,,,,,,,,,,,,,,,,19,2022-02-12_16h53.30.779,lexical_decision_task_DD_L4,2021.2.3,Linux x86_64,60.0060006,,,,,,,,,,,1.0108,0,,,,,,,,,,,,,,,,,,,,,,,,-0.088855971,-0.182545682,0,0,0,,,,,,,SMOKER,LB,z,y,./images/SMOKERLB.png,,,,,,,,,,,,,,,,,,,,,m,0,1.0108,,,,,,,,0,86,86,110,1
,,,,,,,,,,,,,,,,,,19,2022-02-12_16h53.30.779,lexical_decision_task_DD_L4,2021.2.3,Linux x86_64,60.0060006,,,,,,,,,,,0.5996,1,,,,,,,,,,,,,,,,,,,,,,,,-0.088855971,-0.182545682,0,0,0,,,,,,,TIGER,HB,m,y,./images/TIGERHB.png,,,,,,,,,,,,,,,,,,,,,m,1,0.5996,,,,,,,,0,87,87,37,1
,,,,,,,,,,,,,,,,,,19,2022-02-12_16h53.30.779,lexical_decision_task_DD_L4,2021.2.3,Linux x86_64,60.0060006,,,,,,,,,,,2.2496,1,,,,,,,,,,,,,,,,,,,,,,,,-0.088855971,-0.182545682,0,0,0,,,,,,,STATUE,C,m,y,./images/STATUE.png,,,,,,,,,,,,,,,,,,,,,m,1,2.2496,,,,,,,,0,88,88,66,1
,,,,,,,,,,,,,,,,,,19,2022-02-12_16h53.30.779,lexical_decision_task_DD_L4,2021.2.3,Linux x86_64,60.0060006,,,,,,,,,,,0.805,1,,,,,,,,,,,,,,,,,,,,,,,,-0.088855971,-0.182545682,0,0,0,,,,,,,FENCE,LB,m,y,./images/FENCELB.png,,,,,,,,,,,,,,,,,,,,,m,1,0.805,,,,,,,,0,89,89,14,1
,,,,,,,,,,,,,,,,,,19,2022-02-12_16h53.30.779,lexical_decision_task_DD_L4,2021.2.3,Linux x86_64,60.0060006,,,,,,,,,,,0.4994,1,,,,,,,,,,,,,,,,,,,,,,,,-0.088855971,-0.182545682,0,0,0,,,,,,,WALNUT,C,m,y,./images/WALNUT.png,,,,,,,,,,,,,,,,,,,,,m,1,0.4994,,,,,,,,0,90,90,0,1
,,,,,,,,,,,,,,,,,,19,2022-02-12_16h53.30.779,lexical_decision_task_DD_L4,2021.2.3,Linux x86_64,60.0060006,,,,,,,,,,,0.7113,1,,,,,,,,,,,,,,,,,,,,,,,,-0.088855971,-0.182545682,0,0,0,,,,,,,POODLE,C,z,y,./images/POODLE.png,,,,,,,,,,,,,,,,,,,,,z,1,0.7113,,,,,,,,0,91,91,165,1
,,,,,,,,,,,,,,,,,,19,2022-02-12_16h53.30.779,lexical_decision_task_DD_L4,2021.2.3,Linux x86_64,60.0060006,,,,,,,,,,,0.5491,1,,,,,,,,,,,,,,,,,,,,,,,,-0.088855971,-0.182545682,0,0,0,,,,,,,FERRY,C,m,y,./images/FERRY.png,,,,,,,,,,,,,,,,,,,,,m,1,0.5491,,,,,,,,0,92,92,57,1
,,,,,,,,,,,,,,,,,,19,2022-02-12_16h53.30.779,lexical_decision_task_DD_L4,2021.2.3,Linux x86_64,60.0060006,,,,,,,,,,,0.6933,1,,,,,,,,,,,,,,,,,,,,,,,,-0.088855971,-0.182545682,0,0,0,,,,,,,WHEEL,LB,m,y,./images/WHEELLB.png,,,,,,,,,,,,,,,,,,,,,m,1,0.6933,,,,,,,,0,93,93,77,1
,,,,,,,,,,,,,,,,,,19,2022-02-12_16h53.30.779,lexical_decision_task_DD_L4,2021.2.3,Linux x86_64,60.0060006,,,,,,,,,,,0.8658,1,,,,,,,,,,,,,,,,,,,,,,,,-0.088855971,-0.182545682,0,0,0,,,,,,,BELLY,HB,z,y,./images/BELLYHB.png,,,,,,,,,,,,,,,,,,,,,z,1,0.8658,,,,,,,,0,94,94,94,1
,,,,,,,,,,,,,,,,,,19,2022-02-12_16h53.30.779,lexical_decision_task_DD_L4,2021.2.3,Linux x86_64,60.0060006,,,,,,,,,,,0.582,1,,,,,,,,,,,,,,,,,,,,,,,,-0.088855971,-0.182545682,0,0,0,,,,,,,PEBBLE,HB,m,y,./images/PEBBLEHB.png,,,,,,,,,,,,,,,,,,,,,m,1,0.582,,,,,,,,0,95,95,82,1
,,,,,,,,,,,,,,,,,,19,2022-02-12_16h53.30.779,lexical_decision_task_DD_L4,2021.2.3,Linux x86_64,60.0060006,,,,,,,,,,,0.6606,1,,,,,,,,,,,,,,,,,,,,,,,,-0.088855971,-0.182545682,0,0,0,,,,,,,PEARL,HB,z,y,./images/PEARLHB.png,,,,,,,,,,,,,,,,,,,,,z,1,0.6606,,,,,,,,0,96,96,130,1
,,,,,,,,,,,,,,,,,,19,2022-02-12_16h53.30.779,lexical_decision_task_DD_L4,2021.2.3,Linux x86_64,60.0060006,,,,,,,,,,,0.9442,1,,,,,,,,,,,,,,,,,,,,,,,,-0.088855971,-0.182545682,0,0,0,,,,,,,TORCH,LB,z,y,./images/TORCHLB.png,,,,,,,,,,,,,,,,,,,,,z,1,0.9442,,,,,,,,0,97,97,152,1
,,,,,,,,,,,,,,,,,,19,2022-02-12_16h53.30.779,lexical_decision_task_DD_L4,2021.2.3,Linux x86_64,60.0060006,,,,,,,,,,,0.583,1,,,,,,,,,,,,,,,,,,,,,,,,-0.088855971,-0.182545682,0,0,0,,,,,,,CANOE,HB,m,y,./images/CANOEHB.png,,,,,,,,,,,,,,,,,,,,,m,1,0.583,,,,,,,,0,98,98,58,1
,,,,,,,,,,,,,,,,,,19,2022-02-12_16h53.30.779,lexical_decision_task_DD_L4,2021.2.3,Linux x86_64,60.0060006,,,,,,,,,,,0.5067,1,,,,,,,,,,,,,,,,,,,,,,,,-0.088855971,-0.182545682,0,0,0,,,,,,,HAMMER,C,m,y,./images/HAMMER.png,,,,,,,,,,,,,,,,,,,,,m,1,0.5067,,,,,,,,0,99,99,75,1
,,,,,,,,,,,,,,,,,,19,2022-02-12_16h53.30.779,lexical_decision_task_DD_L4,2021.2.3,Linux x86_64,60.0060006,,,,,,,,,,,0.4599,1,,,,,,,,,,,,,,,,,,,,,,,,-0.088855971,-0.182545682,0,0,0,,,,,,,CURRY,C,m,y,./images/CURRY.png,,,,,,,,,,,,,,,,,,,,,m,1,0.4599,,,,,,,,0,100,100,60,1
,,,,,,,,,,,,,,,,,,19,2022-02-12_16h53.30.779,lexical_decision_task_DD_L4,2021.2.3,Linux x86_64,60.0060006,,,,,,,,,,,0.5318,1,,,,,,,,,,,,,,,,,,,,,,,,-0.088855971,-0.182545682,0,0,0,,,,,,,BAKER,C,m,y,./images/BAKER.png,,,,,,,,,,,,,,,,,,,,,m,1,0.5318,,,,,,,,0,101,101,63,1
,,,,,,,,,,,,,,,,,,19,2022-02-12_16h53.30.779,lexical_decision_task_DD_L4,2021.2.3,Linux x86_64,60.0060006,,,,,,,,,,,0.6757,1,,,,,,,,,,,,,,,,,,,,,,,,-0.088855971,-0.182545682,0,0,0,,,,,,,PASTA,LB,z,y,./images/PASTALB.png,,,,,,,,,,,,,,,,,,,,,z,1,0.6757,,,,,,,,0,102,102,89,1
,,,,,,,,,,,,,,,,,,19,2022-02-12_16h53.30.779,lexical_decision_task_DD_L4,2021.2.3,Linux x86_64,60.0060006,,,,,,,,,,,0.7642,1,,,,,,,,,,,,,,,,,,,,,,,,-0.088855971,-0.182545682,0,0,0,,,,,,,URINE,HB,z,y,./images/URINEHB.png,,,,,,,,,,,,,,,,,,,,,z,1,0.7642,,,,,,,,0,103,103,154,1
,,,,,,,,,,,,,,,,,,19,2022-02-12_16h53.30.779,lexical_decision_task_DD_L4,2021.2.3,Linux x86_64,60.0060006,,,,,,,,,,,0.8788,1,,,,,,,,,,,,,,,,,,,,,,,,-0.088855971,-0.182545682,0,0,0,,,,,,,TULIP,LB,z,y,./images/TULIPLB.png,,,,,,,,,,,,,,,,,,,,,z,1,0.8788,,,,,,,,0,104,104,92,1
,,,,,,,,,,,,,,,,,,19,2022-02-12_16h53.30.779,lexical_decision_task_DD_L4,2021.2.3,Linux x86_64,60.0060006,,,,,,,,,,,0.6792,1,,,,,,,,,,,,,,,,,,,,,,,,-0.088855971,-0.182545682,0,0,0,,,,,,,BROOM,C,m,y,./images/BROOM.png,,,,,,,,,,,,,,,,,,,,,m,1,0.6792,,,,,,,,0,105,105,78,1
,,,,,,,,,,,,,,,,,,19,2022-02-12_16h53.30.779,lexical_decision_task_DD_L4,2021.2.3,Linux x86_64,60.0060006,,,,,,,,,,,0.7028,0,,,,,,,,,,,,,,,,,,,,,,,,-0.088855971,-0.182545682,0,0,0,,,,,,,CRADLE,LB,z,y,./images/CRADLELB.png,,,,,,,,,,,,,,,,,,,,,m,0,0.7028,,,,,,,,0,106,106,104,1
,,,,,,,,,,,,,,,,,,19,2022-02-12_16h53.30.779,lexical_decision_task_DD_L4,2021.2.3,Linux x86_64,60.0060006,,,,,,,,,,,0.5288,0,,,,,,,,,,,,,,,,,,,,,,,,-0.088855971,-0.182545682,0,0,0,,,,,,,MIRROR,C,z,y,./images/MIRROR.png,,,,,,,,,,,,,,,,,,,,,m,0,0.5288,,,,,,,,0,107,107,147,1
,,,,,,,,,,,,,,,,,,19,2022-02-12_16h53.30.779,lexical_decision_task_DD_L4,2021.2.3,Linux x86_64,60.0060006,,,,,,,,,,,0.7289,1,,,,,,,,,,,,,,,,,,,,,,,,-0.088855971,-0.182545682,0,0,0,,,,,,,HOCKEY,LB,m,y,./images/HOCKEYLB.png,,,,,,,,,,,,,,,,,,,,,m,1,0.7289,,,,,,,,0,108,108,32,1
,,,,,,,,,,,,,,,,,,19,2022-02-12_16h53.30.779,lexical_decision_task_DD_L4,2021.2.3,Linux x86_64,60.0060006,,,,,,,,,,,0.6856,1,,,,,,,,,,,,,,,,,,,,,,,,-0.088855971,-0.182545682,0,0,0,,,,,,,BUBBLE,LB,m,y,./images/BUBBLELB.png,,,,,,,,,,,,,,,,,,,,,m,1,0.6856,,,,,,,,0,109,109,71,1
,,,,,,,,,,,,,,,,,,19,2022-02-12_16h53.30.779,lexical_decision_task_DD_L4,2021.2.3,Linux x86_64,60.0060006,,,,,,,,,,,1.4696,1,,,,,,,,,,,,,,,,,,,,,,,,-0.088855971,-0.182545682,0,0,0,,,,,,,SHORE,C,z,y,./images/SHORE.png,,,,,,,,,,,,,,,,,,,,,z,1,1.4696,,,,,,,,0,110,110,96,1
,,,,,,,,,,,,,,,,,,19,2022-02-12_16h53.30.779,lexical_decision_task_DD_L4,2021.2.3,Linux x86_64,60.0060006,,,,,,,,,,,1.202,0,,,,,,,,,,,,,,,,,,,,,,,,-0.088855971,-0.182545682,0,0,0,,,,,,,STRING,LB,z,y,./images/STRINGLB.png,,,,,,,,,,,,,,,,,,,,,m,0,1.202,,,,,,,,0,111,111,125,1
,,,,,,,,,,,,,,,,,,19,2022-02-12_16h53.30.779,lexical_decision_task_DD_L4,2021.2.3,Linux x86_64,60.0060006,,,,,,,,,,,0.5618,1,,,,,,,,,,,,,,,,,,,,,,,,-0.088855971,-0.182545682,0,0,0,,,,,,,MAMMAL,LB,m,y,./images/MAMMALLB.png,,,,,,,,,,,,,,,,,,,,,m,1,0.5618,,,,,,,,0,112,112,62,1
,,,,,,,,,,,,,,,,,,19,2022-02-12_16h53.30.779,lexical_decision_task_DD_L4,2021.2.3,Linux x86_64,60.0060006,,,,,,,,,,,0.6933,1,,,,,,,,,,,,,,,,,,,,,,,,-0.088855971,-0.182545682,0,0,0,,,,,,,INFANT,HB,z,y,./images/INFANTHB.png,,,,,,,,,,,,,,,,,,,,,z,1,0.6933,,,,,,,,0,113,113,160,1
,,,,,,,,,,,,,,,,,,19,2022-02-12_16h53.30.779,lexical_decision_task_DD_L4,2021.2.3,Linux x86_64,60.0060006,,,,,,,,,,,0.8758,1,,,,,,,,,,,,,,,,,,,,,,,,-0.088855971,-0.182545682,0,0,0,,,,,,,FLESH,C,m,y,./images/FLESH.png,,,,,,,,,,,,,,,,,,,,,m,1,0.8758,,,,,,,,0,114,114,24,1
,,,,,,,,,,,,,,,,,,19,2022-02-12_16h53.30.779,lexical_decision_task_DD_L4,2021.2.3,Linux x86_64,60.0060006,,,,,,,,,,,0.6986,1,,,,,,,,,,,,,,,,,,,,,,,,-0.088855971,-0.182545682,0,0,0,,,,,,,KIDNEY,C,z,y,./images/KIDNEY.png,,,,,,,,,,,,,,,,,,,,,z,1,0.6986,,,,,,,,0,115,115,105,1
,,,,,,,,,,,,,,,,,,19,2022-02-12_16h53.30.779,lexical_decision_task_DD_L4,2021.2.3,Linux x86_64,60.0060006,,,,,,,,,,,0.6977,1,,,,,,,,,,,,,,,,,,,,,,,,-0.088855971,-0.182545682,0,0,0,,,,,,,MELON,HB,z,y,./images/MELONHB.png,,,,,,,,,,,,,,,,,,,,,z,1,0.6977,,,,,,,,0,116,116,106,1
,,,,,,,,,,,,,,,,,,19,2022-02-12_16h53.30.779,lexical_decision_task_DD_L4,2021.2.3,Linux x86_64,60.0060006,,,,,,,,,,,0.604,1,,,,,,,,,,,,,,,,,,,,,,,,-0.088855971,-0.182545682,0,0,0,,,,,,,MIDGET,HB,m,y,./images/MIDGETHB.png,,,,,,,,,,,,,,,,,,,,,m,1,0.604,,,,,,,,0,117,117,76,1
,,,,,,,,,,,,,,,,,,19,2022-02-12_16h53.30.779,lexical_decision_task_DD_L4,2021.2.3,Linux x86_64,60.0060006,,,,,,,,,,,0.9443,0,,,,,,,,,,,,,,,,,,,,,,,,-0.088855971,-0.182545682,0,0,0,,,,,,,THROAT,C,z,y,./images/THROAT.png,,,,,,,,,,,,,,,,,,,,,m,0,0.9443,,,,,,,,0,118,118,120,1
,,,,,,,,,,,,,,,,,,19,2022-02-12_16h53.30.779,lexical_decision_task_DD_L4,2021.2.3,Linux x86_64,60.0060006,,,,,,,,,,,0.6428,0,,,,,,,,,,,,,,,,,,,,,,,,-0.088855971,-0.182545682,0,0,0,,,,,,,BABOON,HB,z,y,./images/BABOONHB.png,,,,,,,,,,,,,,,,,,,,,m,0,0.6428,,,,,,,,0,119,119,142,1
,,,,,,,,,,,,,,,,,,19,2022-02-12_16h53.30.779,lexical_decision_task_DD_L4,2021.2.3,Linux x86_64,60.0060006,,,,,,,,,,,1.3819,0,,,,,,,,,,,,,,,,,,,,,,,,-0.088855971,-0.182545682,0,0,0,,,,,,,PARADE,LB,m,y,./images/PARADELB.png,,,,,,,,,,,,,,,,,,,,,z,0,1.3819,,,,,,,,0,120,120,17,1
,,,,,,,,,,,,,,,,,,19,2022-02-12_16h53.30.779,lexical_decision_task_DD_L4,2021.2.3,Linux x86_64,60.0060006,,,,,,,,,,,0.6813,1,,,,,,,,,,,,,,,,,,,,,,,,-0.088855971,-0.182545682,0,0,0,,,,,,,TWINS,C,z,y,./images/TWINS.png,,,,,,,,,,,,,,,,,,,,,z,1,0.6813,,,,,,,,0,121,121,144,1
,,,,,,,,,,,,,,,,,,19,2022-02-12_16h53.30.779,lexical_decision_task_DD_L4,2021.2.3,Linux x86_64,60.0060006,,,,,,,,,,,0.6947,1,,,,,,,,,,,,,,,,,,,,,,,,-0.088855971,-0.182545682,0,0,0,,,,,,,RHINO,C,z,y,./images/RHINO.png,,,,,,,,,,,,,,,,,,,,,z,1,0.6947,,,,,,,,0,122,122,93,1
,,,,,,,,,,,,,,,,,,19,2022-02-12_16h53.30.779,lexical_decision_task_DD_L4,2021.2.3,Linux x86_64,60.0060006,,,,,,,,,,,0.7457,1,,,,,,,,,,,,,,,,,,,,,,,,-0.088855971,-0.182545682,0,0,0,,,,,,,BEARD,LB,z,y,./images/BEARDLB.png,,,,,,,,,,,,,,,,,,,,,z,1,0.7457,,,,,,,,0,123,123,86,1
,,,,,,,,,,,,,,,,,,19,2022-02-12_16h53.30.779,lexical_decision_task_DD_L4,2021.2.3,Linux x86_64,60.0060006,,,,,,,,,,,0.5812,0,,,,,,,,,,,,,,,,,,,,,,,,-0.088855971,-0.182545682,0,0,0,,,,,,,ARTIST,HB,m,y,./images/ARTISTHB.png,,,,,,,,,,,,,,,,,,,,,z,0,0.5812,,,,,,,,0,124,124,61,1
,,,,,,,,,,,,,,,,,,19,2022-02-12_16h53.30.779,lexical_decision_task_DD_L4,2021.2.3,Linux x86_64,60.0060006,,,,,,,,,,,2.0165,1,,,,,,,,,,,,,,,,,,,,,,,,-0.088855971,-0.182545682,0,0,0,space,,,,,,CRUST,HB,z,y,./images/CRUSTHB.png,1.1144,,,,,,,,,,,,,,,,,,,,z,1,2.0165,,,,,,,,0,125,125,163,1
,,,,,,,,,,,,,,,,,,19,2022-02-12_16h53.30.779,lexical_decision_task_DD_L4,2021.2.3,Linux x86_64,60.0060006,,,,,,,,,,,2.1803,0,,,,,,,,,,,,,,,,,,,,,,,,-0.088855971,-0.182545682,0,0,0,,,,,,,PAINT,HB,z,y,./images/PAINTHB.png,,,,,,,,,,,,,,,,,,,,,m,0,2.1803,,,,,,,,0,126,126,91,1
,,,,,,,,,,,,,,,,,,19,2022-02-12_16h53.30.779,lexical_decision_task_DD_L4,2021.2.3,Linux x86_64,60.0060006,,,,,,,,,,,0.83,1,,,,,,,,,,,,,,,,,,,,,,,,-0.088855971,-0.182545682,0,0,0,,,,,,,RAZOR,HB,m,y,./images/RAZORHB.png,,,,,,,,,,,,,,,,,,,,,m,1,0.83,,,,,,,,0,127,127,34,1
,,,,,,,,,,,,,,,,,,19,2022-02-12_16h53.30.779,lexical_decision_task_DD_L4,2021.2.3,Linux x86_64,60.0060006,,,,,,,,,,,0.5672,1,,,,,,,,,,,,,,,,,,,,,,,,-0.088855971,-0.182545682,0,0,0,,,,,,,CHAIN,C,m,y,./images/CHAIN.png,,,,,,,,,,,,,,,,,,,,,m,1,0.5672,,,,,,,,0,128,128,42,1
,,,,,,,,,,,,,,,,,,19,2022-02-12_16h53.30.779,lexical_decision_task_DD_L4,2021.2.3,Linux x86_64,60.0060006,,,,,,,,,,,0.6368,1,,,,,,,,,,,,,,,,,,,,,,,,-0.088855971,-0.182545682,0,0,0,,,,,,,LIZARD,LB,z,y,./images/LIZARDLB.png,,,,,,,,,,,,,,,,,,,,,z,1,0.6368,,,,,,,,0,129,129,128,1
,,,,,,,,,,,,,,,,,,19,2022-02-12_16h53.30.779,lexical_decision_task_DD_L4,2021.2.3,Linux x86_64,60.0060006,,,,,,,,,,,1.2236,0,,,,,,,,,,,,,,,,,,,,,,,,-0.088855971,-0.182545682,0,0,0,,,,,,,SNAKE,HB,m,y,./images/SNAKEHB.png,,,,,,,,,,,,,,,,,,,,,z,0,1.2236,,,,,,,,0,130,130,40,1
,,,,,,,,,,,,,,,,,,19,2022-02-12_16h53.30.779,lexical_decision_task_DD_L4,2021.2.3,Linux x86_64,60.0060006,,,,,,,,,,,0.8785,1,,,,,,,,,,,,,,,,,,,,,,,,-0.088855971,-0.182545682,0,0,0,,,,,,,SKIING,LB,z,y,./images/SKIINGLB.png,,,,,,,,,,,,,,,,,,,,,z,1,0.8785,,,,,,,,0,131,131,101,1
,,,,,,,,,,,,,,,,,,19,2022-02-12_16h53.30.779,lexical_decision_task_DD_L4,2021.2.3,Linux x86_64,60.0060006,,,,,,,,,,,0.6092,1,,,,,,,,,,,,,,,,,,,,,,,,-0.088855971,-0.182545682,0,0,0,,,,,,,LLAMA,LB,m,y,./images/LLAMALB.png,,,,,,,,,,,,,,,,,,,,,m,1,0.6092,,,,,,,,0,132,132,35,1
,,,,,,,,,,,,,,,,,,19,2022-02-12_16h53.30.779,lexical_decision_task_DD_L4,2021.2.3,Linux x86_64,60.0060006,,,,,,,,,,,0.5463,0,,,,,,,,,,,,,,,,,,,,,,,,-0.088855971,-0.182545682,0,0,0,,,,,,,SCREW,C,z,y,./images/SCREW.png,,,,,,,,,,,,,,,,,,,,,m,0,0.5463,,,,,,,,0,133,133,108,1
,,,,,,,,,,,,,,,,,,19,2022-02-12_16h53.30.779,lexical_decision_task_DD_L4,2021.2.3,Linux x86_64,60.0060006,,,,,,,,,,,0.6459,1,,,,,,,,,,,,,,,,,,,,,,,,-0.088855971,-0.182545682,0,0,0,,,,,,,BIRTH,HB,z,y,./images/BIRTHHB.png,,,,,,,,,,,,,,,,,,,,,z,1,0.6459,,,,,,,,0,134,134,121,1
,,,,,,,,,,,,,,,,,,19,2022-02-12_16h53.30.779,lexical_decision_task_DD_L4,2021.2.3,Linux x86_64,60.0060006,,,,,,,,,,,0.5883,1,,,,,,,,,,,,,,,,,,,,,,,,-0.088855971,-0.182545682,0,0,0,,,,,,,BUNNY,HB,m,y,./images/BUNNYHB.png,,,,,,,,,,,,,,,,,,,,,m,1,0.5883,,,,,,,,0,135,135,13,1
,,,,,,,,,,,,,,,,,,19,2022-02-12_16h53.30.779,lexical_decision_task_DD_L4,2021.2.3,Linux x86_64,60.0060006,,,,,,,,,,,0.5454,1,,,,,,,,,,,,,,,,,,,,,,,,-0.088855971,-0.182545682,0,0,0,,,,,,,STEAK,HB,m,y,./images/STEAKHB.png,,,,,,,,,,,,,,,,,,,,,m,1,0.5454,,,,,,,,0,136,136,31,1
,,,,,,,,,,,,,,,,,,19,2022-02-12_16h53.30.779,lexical_decision_task_DD_L4,2021.2.3,Linux x86_64,60.0060006,,,,,,,,,,,1.1997,1,,,,,,,,,,,,,,,,,,,,,,,,-0.088855971,-0.182545682,0,0,0,,,,,,,SNACK,HB,z,y,./images/SNACKHB.png,,,,,,,,,,,,,,,,,,,,,z,1,1.1997,,,,,,,,0,137,137,157,1
,,,,,,,,,,,,,,,,,,19,2022-02-12_16h53.30.779,lexical_decision_task_DD_L4,2021.2.3,Linux x86_64,60.0060006,,,,,,,,,,,0.8187,1,,,,,,,,,,,,,,,,,,,,,,,,-0.088855971,-0.182545682,0,0,0,,,,,,,FOLDER,C,z,y,./images/FOLDER.png,,,,,,,,,,,,,,,,,,,,,z,1,0.8187,,,,,,,,0,138,138,126,1
,,,,,,,,,,,,,,,,,,19,2022-02-12_16h53.30.779,lexical_decision_task_DD_L4,2021.2.3,Linux x86_64,60.0060006,,,,,,,,,,,0.7297,1,,,,,,,,,,,,,,,,,,,,,,,,-0.088855971,-0.182545682,0,0,0,,,,,,,MUSCLE,HB,z,y,./images/MUSCLEHB.png,,,,,,,,,,,,,,,,,,,,,z,1,0.7297,,,,,,,,0,139,139,88,1
,,,,,,,,,,,,,,,,,,19,2022-02-12_16h53.30.779,lexical_decision_task_DD_L4,2021.2.3,Linux x86_64,60.0060006,,,,,,,,,,,0.5638,1,,,,,,,,,,,,,,,,,,,,,,,,-0.088855971,-0.182545682,0,0,0,,,,,,,HEATER,LB,m,y,./images/HEATERLB.png,,,,,,,,,,,,,,,,,,,,,m,1,0.5638,,,,,,,,0,140,140,56,1
,,,,,,,,,,,,,,,,,,19,2022-02-12_16h53.30.779,lexical_decision_task_DD_L4,2021.2.3,Linux x86_64,60.0060006,,,,,,,,,,,0.8123,1,,,,,,,,,,,,,,,,,,,,,,,,-0.088855971,-0.182545682,0,0,0,,,,,,,SAILOR,HB,z,y,./images/SAILORHB.png,,,,,,,,,,,,,,,,,,,,,z,1,0.8123,,,,,,,,0,141,141,151,1
,,,,,,,,,,,,,,,,,,19,2022-02-12_16h53.30.779,lexical_decision_task_DD_L4,2021.2.3,Linux x86_64,60.0060006,,,,,,,,,,,0.6804,1,,,,,,,,,,,,,,,,,,,,,,,,-0.088855971,-0.182545682,0,0,0,,,,,,,MONKEY,C,m,y,./images/MONKEY.png,,,,,,,,,,,,,,,,,,,,,m,1,0.6804,,,,,,,,0,142,142,45,1
,,,,,,,,,,,,,,,,,,19,2022-02-12_16h53.30.779,lexical_decision_task_DD_L4,2021.2.3,Linux x86_64,60.0060006,,,,,,,,,,,0.739,1,,,,,,,,,,,,,,,,,,,,,,,,-0.088855971,-0.182545682,0,0,0,,,,,,,PISTOL,LB,m,y,./images/PISTOLLB.png,,,,,,,,,,,,,,,,,,,,,m,1,0.739,,,,,,,,0,143,143,29,1
,,,,,,,,,,,,,,,,,,19,2022-02-12_16h53.30.779,lexical_decision_task_DD_L4,2021.2.3,Linux x86_64,60.0060006,,,,,,,,,,,0.6295,1,,,,,,,,,,,,,,,,,,,,,,,,-0.088855971,-0.182545682,0,0,0,,,,,,,MOSQUE,HB,z,y,./images/MOSQUEHB.png,,,,,,,,,,,,,,,,,,,,,z,1,0.6295,,,,,,,,0,144,144,127,1
,,,,,,,,,,,,,,,,,,19,2022-02-12_16h53.30.779,lexical_decision_task_DD_L4,2021.2.3,Linux x86_64,60.0060006,,,,,,,,,,,0.8194,1,,,,,,,,,,,,,,,,,,,,,,,,-0.088855971,-0.182545682,0,0,0,,,,,,,PICKLE,LB,z,y,./images/PICKLELB.png,,,,,,,,,,,,,,,,,,,,,z,1,0.8194,,,,,,,,0,145,145,98,1
,,,,,,,,,,,,,,,,,,19,2022-02-12_16h53.30.779,lexical_decision_task_DD_L4,2021.2.3,Linux x86_64,60.0060006,,,,,,,,,,,0.728,1,,,,,,,,,,,,,,,,,,,,,,,,-0.088855971,-0.182545682,0,0,0,,,,,,,MALLET,LB,z,y,./images/MALLETLB.png,,,,,,,,,,,,,,,,,,,,,z,1,0.728,,,,,,,,0,146,146,134,1
,,,,,,,,,,,,,,,,,,19,2022-02-12_16h53.30.779,lexical_decision_task_DD_L4,2021.2.3,Linux x86_64,60.0060006,,,,,,,,,,,0.5927,1,,,,,,,,,,,,,,,,,,,,,,,,-0.088855971,-0.182545682,0,0,0,,,,,,,LAGOON,LB,m,y,./images/LAGOONLB.png,,,,,,,,,,,,,,,,,,,,,m,1,0.5927,,,,,,,,0,147,147,47,1
,,,,,,,,,,,,,,,,,,19,2022-02-12_16h53.30.779,lexical_decision_task_DD_L4,2021.2.3,Linux x86_64,60.0060006,,,,,,,,,,,2.9468,0,,,,,,,,,,,,,,,,,,,,,,,,-0.088855971,-0.182545682,0,0,0,,,,,,,STAIN,C,m,y,./images/STAIN.png,,,,,,,,,,,,,,,,,,,,,z,0,2.9468,,,,,,,,0,148,148,6,1
,,,,,,,,,,,,,,,,,,19,2022-02-12_16h53.30.779,lexical_decision_task_DD_L4,2021.2.3,Linux x86_64,60.0060006,,,,,,,,,,,0.7904,1,,,,,,,,,,,,,,,,,,,,,,,,-0.088855971,-0.182545682,0,0,0,,,,,,,GRANNY,LB,m,y,./images/GRANNYLB.png,,,,,,,,,,,,,,,,,,,,,m,1,0.7904,,,,,,,,0,149,149,20,1
,,,,,,,,,,,,,,,,,,19,2022-02-12_16h53.30.779,lexical_decision_task_DD_L4,2021.2.3,Linux x86_64,60.0060006,,,,,,,,,,,0.8462,0,,,,,,,,,,,,,,,,,,,,,,,,-0.088855971,-0.182545682,0,0,0,,,,,,,TOWEL,HB,m,y,./images/TOWELHB.png,,,,,,,,,,,,,,,,,,,,,z,0,0.8462,,,,,,,,0,150,150,1,1
,,,,,,,,,,,,,,,,,,19,2022-02-12_16h53.30.779,lexical_decision_task_DD_L4,2021.2.3,Linux x86_64,60.0060006,,,,,,,,,,,0.577,1,,,,,,,,,,,,,,,,,,,,,,,,-0.088855971,-0.182545682,0,0,0,,,,,,,ENGINE,LB,m,y,./images/ENGINELB.png,,,,,,,,,,,,,,,,,,,,,m,1,0.577,,,,,,,,0,151,151,38,1
,,,,,,,,,,,,,,,,,,19,2022-02-12_16h53.30.779,lexical_decision_task_DD_L4,2021.2.3,Linux x86_64,60.0060006,,,,,,,,,,,0.6477,1,,,,,,,,,,,,,,,,,,,,,,,,-0.088855971,-0.182545682,0,0,0,,,,,,,SAUNA,C,m,y,./images/SAUNA.png,,,,,,,,,,,,,,,,,,,,,m,1,0.6477,,,,,,,,0,152,152,33,1
