key_resp.keys,instr_done_touch.x,instr_done_touch.y,instr_done_touch.leftButton,instr_done_touch.midButton,instr_done_touch.rightButton,instr_done_touch.clicked_name,instruction_pages.thisRepN,instruction_pages.thisTrialN,instruction_pages.thisN,instruction_pages.thisIndex,instruction_pages.ran,pageN,phase,instruct_text,has_image,instruct_image,participant,age,date,expName,psychopyVersion,OS,frameRate,key_resp.rt,response.keys,response.corr,response.rt,touch_resp.x,touch_resp.y,touch_resp.leftButton,touch_resp.midButton,touch_resp.rightButton,touch_resp.time,touch_resp.clicked_name,rt,corr,practrials.thisRepN,practrials.thisTrialN,practrials.thisN,practrials.thisIndex,practrials.ran,TrialID,Target,corrAns,end_of_practice_trials_pages.thisRepN,end_of_practice_trials_pages.thisTrialN,end_of_practice_trials_pages.thisN,end_of_practice_trials_pages.thisIndex,end_of_practice_trials_pages.ran,key_resp_2.keys,key_resp_2.corr,key_resp_2.rt,targ_click.x,targ_click.y,targ_click.leftButton,targ_click.midButton,targ_click.rightButton,targ_click.time,targ_click.clicked_name,break_done_touch.x,break_done_touch.y,break_done_touch.leftButton,break_done_touch.midButton,break_done_touch.rightButton,break_done_keyboard.keys,maintrials.thisRepN,maintrials.thisTrialN,maintrials.thisN,maintrials.thisIndex,maintrials.ran,string,blur,study,lex,stim_path,break_done_keyboard.rt,mouse_2.x,mouse_2.y,mouse_2.leftButton,mouse_2.midButton,mouse_2.rightButton,mouse_2.clicked_name,slider.response,slider.rt,trials.thisRepN,trials.thisTrialN,trials.thisN,trials.thisIndex,trials.ran,test_instructions.thisRepN,test_instructions.thisTrialN,test_instructions.thisN,test_instructions.thisIndex,test_instructions.ran,key_resp_3.keys,key_resp_3.corr,key_resp_3.rt,test_click.x,test_click.y,test_click.leftButton,test_click.midButton,test_click.rightButton,test_click.time,test_click.clicked_name,test_phase.thisRepN,test_phase.thisTrialN,test_phase.thisN,test_phase.thisIndex,test_phase.ran
,0.011162109,-0.39230957,1,0,0,instr_done_button,0,0,0,0,1,1,instructions,"INSTRUCTIONS
At the start of each trial, look at the plus sign  (+) in the center of the screen.  This tells you that a trial is about to begin and where to look. Second, the plus sign will disappear and a string of letters will appear. Your task is to determine if the string of letters is a word or not. If the item is a word press the M key (on keyboard)  or touch the word button (phone/tablet).  If the item is not a word,  press the  Z key (on keyboard)  or touch the nonword button (on phone/tablet). 
Press the space bar or touch  continue.",0,,,32,2022-02-12_13h22.51.671,lexical_decision_task_DD_L4,2021.2.3,MacIntel,59.97361161,,,,,,,,,,,,,,,,,,,,,,,,,,,,,,,,,,,,,,,,,,,,,,,,,,,,,,,,,,,,,,,,,,,,,,,,,,,,,,,,,,,,,,
space,0.446645508,-0.17828125,0,0,0,,0,1,1,1,1,2,instructions,"If your device has a keyboard, press the 'Z' key for nonwords and the 'M' key for words.





Press the space bar or touch the button below to continue.",0,keyboard-example.gif,,32,2022-02-12_13h22.51.671,lexical_decision_task_DD_L4,2021.2.3,MacIntel,59.97361161,5.3097,,,,,,,,,,,,,,,,,,,,,,,,,,,,,,,,,,,,,,,,,,,,,,,,,,,,,,,,,,,,,,,,,,,,,,,,,,,,,,,,,,,,,
space,0.446645508,-0.17828125,0,0,0,,0,2,2,2,1,3,instructions,"If you are using a touchscreen only device, use the buttons on the screen. Do not use the mouse.





Press the space bar or touch the button below to continue.",0,touchscreen-example.gif,,32,2022-02-12_13h22.51.671,lexical_decision_task_DD_L4,2021.2.3,MacIntel,59.97361161,3.7821,,,,,,,,,,,,,,,,,,,,,,,,,,,,,,,,,,,,,,,,,,,,,,,,,,,,,,,,,,,,,,,,,,,,,,,,,,,,,,,,,,,,,
space,0.446645508,-0.17828125,0,0,0,,0,3,3,3,1,4,instructions,"It is very important that you respond as quickly and accurately as possible, as each letter string will only be on the screen for two seconds. If you do not respond within this time, the message 'Too slow!' will be displayed and the experiment will progress to the next letter string. The first 20 trials will be practice trials and you will receive feedback on your answers. 

Press the space bar or touch the button below to start the practice trials.",0,,,32,2022-02-12_13h22.51.671,lexical_decision_task_DD_L4,2021.2.3,MacIntel,59.97361161,11.0495,,,,,,,,,,,,,,,,,,,,,,,,,,,,,,,,,,,,,,,,,,,,,,,,,,,,,,,,,,,,,,,,,,,,,,,,,,,,,,,,,,,,,
,,,,,,,,,,,,,,,,,,32,2022-02-12_13h22.51.671,lexical_decision_task_DD_L4,2021.2.3,MacIntel,59.97361161,,m,0,1.5157,,,,,,,,1.5157,0,0,0,0,10,1,1001,INLADE,z,,,,,,,,,,,,,,,,,,,,,,,,,,,,,,,,,,,,,,,,,,,,,,,,,,,,,,,,,,,,,,,,,
,,,,,,,,,,,,,,,,,,32,2022-02-12_13h22.51.671,lexical_decision_task_DD_L4,2021.2.3,MacIntel,59.97361161,,m,1,0.7634,,,,,,,,0.7634,1,0,1,1,1,1,1001,ADJUST,m,,,,,,,,,,,,,,,,,,,,,,,,,,,,,,,,,,,,,,,,,,,,,,,,,,,,,,,,,,,,,,,,,
,,,,,,,,,,,,,,,,,,32,2022-02-12_13h22.51.671,lexical_decision_task_DD_L4,2021.2.3,MacIntel,59.97361161,,z,1,0.8924,,,,,,,,0.8924,1,0,2,2,8,1,1001,ASLERT,z,,,,,,,,,,,,,,,,,,,,,,,,,,,,,,,,,,,,,,,,,,,,,,,,,,,,,,,,,,,,,,,,,
,,,,,,,,,,,,,,,,,,32,2022-02-12_13h22.51.671,lexical_decision_task_DD_L4,2021.2.3,MacIntel,59.97361161,,z,1,1.0965,,,,,,,,1.0965,1,0,3,3,9,1,1001,FARINY,z,,,,,,,,,,,,,,,,,,,,,,,,,,,,,,,,,,,,,,,,,,,,,,,,,,,,,,,,,,,,,,,,,
,,,,,,,,,,,,,,,,,,32,2022-02-12_13h22.51.671,lexical_decision_task_DD_L4,2021.2.3,MacIntel,59.97361161,,m,1,0.8478,,,,,,,,0.8478,1,0,4,4,0,1,1001,UTOPIA,m,,,,,,,,,,,,,,,,,,,,,,,,,,,,,,,,,,,,,,,,,,,,,,,,,,,,,,,,,,,,,,,,,
,,,,,,,,,,,,,,,,,,32,2022-02-12_13h22.51.671,lexical_decision_task_DD_L4,2021.2.3,MacIntel,59.97361161,,z,1,1.2197,,,,,,,,1.2197,1,0,5,5,12,1,1001,SPRINY,z,,,,,,,,,,,,,,,,,,,,,,,,,,,,,,,,,,,,,,,,,,,,,,,,,,,,,,,,,,,,,,,,,
,,,,,,,,,,,,,,,,,,32,2022-02-12_13h22.51.671,lexical_decision_task_DD_L4,2021.2.3,MacIntel,59.97361161,,m,1,0.7435,,,,,,,,0.7435,1,0,6,6,6,1,1001,ZOMBIE,m,,,,,,,,,,,,,,,,,,,,,,,,,,,,,,,,,,,,,,,,,,,,,,,,,,,,,,,,,,,,,,,,,
,,,,,,,,,,,,,,,,,,32,2022-02-12_13h22.51.671,lexical_decision_task_DD_L4,2021.2.3,MacIntel,59.97361161,,m,1,0.7504,,,,,,,,0.7504,1,0,7,7,5,1,1001,OBTAIN,m,,,,,,,,,,,,,,,,,,,,,,,,,,,,,,,,,,,,,,,,,,,,,,,,,,,,,,,,,,,,,,,,,
,,,,,,,,,,,,,,,,,,32,2022-02-12_13h22.51.671,lexical_decision_task_DD_L4,2021.2.3,MacIntel,59.97361161,,m,1,0.6979,,,,,,,,0.6979,1,0,8,8,3,1,1001,MATRIX,m,,,,,,,,,,,,,,,,,,,,,,,,,,,,,,,,,,,,,,,,,,,,,,,,,,,,,,,,,,,,,,,,,
,,,,,,,,,,,,,,,,,,32,2022-02-12_13h22.51.671,lexical_decision_task_DD_L4,2021.2.3,MacIntel,59.97361161,,z,1,0.831,,,,,,,,0.831,1,0,9,9,15,1,1001,WHAISE,z,,,,,,,,,,,,,,,,,,,,,,,,,,,,,,,,,,,,,,,,,,,,,,,,,,,,,,,,,,,,,,,,,
,,,,,,,,,,,,,,,,,,32,2022-02-12_13h22.51.671,lexical_decision_task_DD_L4,2021.2.3,MacIntel,59.97361161,,m,1,0.7447,,,,,,,,0.7447,1,0,10,10,4,1,1001,SQUEAK,m,,,,,,,,,,,,,,,,,,,,,,,,,,,,,,,,,,,,,,,,,,,,,,,,,,,,,,,,,,,,,,,,,
,,,,,,,,,,,,,,,,,,32,2022-02-12_13h22.51.671,lexical_decision_task_DD_L4,2021.2.3,MacIntel,59.97361161,,z,1,0.9163,,,,,,,,0.9163,1,0,11,11,11,1,1001,RASHET,z,,,,,,,,,,,,,,,,,,,,,,,,,,,,,,,,,,,,,,,,,,,,,,,,,,,,,,,,,,,,,,,,,
,,,,,,,,,,,,,,,,,,32,2022-02-12_13h22.51.671,lexical_decision_task_DD_L4,2021.2.3,MacIntel,59.97361161,,z,1,0.8006,,,,,,,,0.8006,1,0,12,12,13,1,1001,ROUPET,z,,,,,,,,,,,,,,,,,,,,,,,,,,,,,,,,,,,,,,,,,,,,,,,,,,,,,,,,,,,,,,,,,
,,,,,,,,,,,,,,,,,,32,2022-02-12_13h22.51.671,lexical_decision_task_DD_L4,2021.2.3,MacIntel,59.97361161,,m,1,0.6982,,,,,,,,0.6982,1,0,13,13,2,1,1001,ALMOND,m,,,,,,,,,,,,,,,,,,,,,,,,,,,,,,,,,,,,,,,,,,,,,,,,,,,,,,,,,,,,,,,,,
,,,,,,,,,,,,,,,,,,32,2022-02-12_13h22.51.671,lexical_decision_task_DD_L4,2021.2.3,MacIntel,59.97361161,,z,1,0.866,,,,,,,,0.866,1,0,14,14,14,1,1001,THRALE,z,,,,,,,,,,,,,,,,,,,,,,,,,,,,,,,,,,,,,,,,,,,,,,,,,,,,,,,,,,,,,,,,,
,,,,,,,,,,,,,,,,,,32,2022-02-12_13h22.51.671,lexical_decision_task_DD_L4,2021.2.3,MacIntel,59.97361161,,m,1,0.5953,,,,,,,,0.5953,1,0,15,15,7,1,1001,VOLUME,m,,,,,,,,,,,,,,,,,,,,,,,,,,,,,,,,,,,,,,,,,,,,,,,,,,,,,,,,,,,,,,,,,
space,0.446645508,-0.17828125,0,0,0,,,,,,,1,end_of_practice,"You have completed the practice trials. During the experimental trials, you will not receive feedback. 
Before you begin, please ensure that you are in a comfortable and quiet location and will not be disturbed for about 15 minutes, as we cannot use your data if you do not complete all the trials. 
 When you are ready to start the experimental trials, please press space or touch the button below.",,,,32,2022-02-12_13h22.51.671,lexical_decision_task_DD_L4,2021.2.3,MacIntel,59.97361161,41.1187,,,,,,,,,,,,,,,,,,,,,0,0,0,0,1,,,,,,,,,,,,,,,,,,,,,,,,,,,,,,,,,,,,,,,,,,,,,,,,,,,,,,,,,,,,
,,,,,,,,,,,,,,,,,,32,2022-02-12_13h22.51.671,lexical_decision_task_DD_L4,2021.2.3,MacIntel,59.97361161,,,,,,,,,,,,0.7836,0,,,,,,,,,,,,,,m,0,0.7836,,,,,,,,0.446645508,-0.17828125,0,0,0,,0,0,0,128,1,GRIFT,LB,old,z,./images/GRIFTLB.png,,,,,,,,,,,,,,,,,,,,,,,,,,,,,,,,,,
,,,,,,,,,,,,,,,,,,32,2022-02-12_13h22.51.671,lexical_decision_task_DD_L4,2021.2.3,MacIntel,59.97361161,,,,,,,,,,,,0.7161,1,,,,,,,,,,,,,,m,1,0.7161,,,,,,,,0.446645508,-0.17828125,0,0,0,,0,1,1,81,1,DRILL,C,old,m,./images/DRILL.png,,,,,,,,,,,,,,,,,,,,,,,,,,,,,,,,,,
,,,,,,,,,,,,,,,,,,32,2022-02-12_13h22.51.671,lexical_decision_task_DD_L4,2021.2.3,MacIntel,59.97361161,,,,,,,,,,,,1.8662,0,,,,,,,,,,,,,,m,0,1.8662,,,,,,,,0.446645508,-0.17828125,0,0,0,,0,2,2,127,1,NINDY,HB,old,z,./images/NINDYHB.png,,,,,,,,,,,,,,,,,,,,,,,,,,,,,,,,,,
,,,,,,,,,,,,,,,,,,32,2022-02-12_13h22.51.671,lexical_decision_task_DD_L4,2021.2.3,MacIntel,59.97361161,,,,,,,,,,,,0.7468,1,,,,,,,,,,,,,,z,1,0.7468,,,,,,,,0.446645508,-0.17828125,0,0,0,,0,3,3,126,1,GUELS,C,old,z,./images/GUELS.png,,,,,,,,,,,,,,,,,,,,,,,,,,,,,,,,,,
,,,,,,,,,,,,,,,,,,32,2022-02-12_13h22.51.671,lexical_decision_task_DD_L4,2021.2.3,MacIntel,59.97361161,,,,,,,,,,,,0.6494,1,,,,,,,,,,,,,,m,1,0.6494,,,,,,,,0.446645508,-0.17828125,0,0,0,,0,4,4,38,1,ENGINE,LB,old,m,./images/ENGINELB.png,,,,,,,,,,,,,,,,,,,,,,,,,,,,,,,,,,
,,,,,,,,,,,,,,,,,,32,2022-02-12_13h22.51.671,lexical_decision_task_DD_L4,2021.2.3,MacIntel,59.97361161,,,,,,,,,,,,0.9331,1,,,,,,,,,,,,,,z,1,0.9331,,,,,,,,0.446645508,-0.17828125,0,0,0,,0,5,5,146,1,MOOST,LB,old,z,./images/MOOSTLB.png,,,,,,,,,,,,,,,,,,,,,,,,,,,,,,,,,,
,,,,,,,,,,,,,,,,,,32,2022-02-12_13h22.51.671,lexical_decision_task_DD_L4,2021.2.3,MacIntel,59.97361161,,,,,,,,,,,,0.7138,1,,,,,,,,,,,,,,m,1,0.7138,,,,,,,,0.446645508,-0.17828125,0,0,0,,0,6,6,54,1,CHERRY,C,old,m,./images/CHERRY.png,,,,,,,,,,,,,,,,,,,,,,,,,,,,,,,,,,
,,,,,,,,,,,,,,,,,,32,2022-02-12_13h22.51.671,lexical_decision_task_DD_L4,2021.2.3,MacIntel,59.97361161,,,,,,,,,,,,2.2456,1,,,,,,,,,,,,,,z,1,2.2456,,,,,,,,0.446645508,-0.17828125,0,0,0,,0,7,7,115,1,MAWNS,HB,old,z,./images/MAWNSHB.png,,,,,,,,,,,,,,,,,,,,,,,,,,,,,,,,,,
,,,,,,,,,,,,,,,,,,32,2022-02-12_13h22.51.671,lexical_decision_task_DD_L4,2021.2.3,MacIntel,59.97361161,,,,,,,,,,,,0.849,1,,,,,,,,,,,,,,z,1,0.849,,,,,,,,0.446645508,-0.17828125,0,0,0,,0,8,8,116,1,BALGY,LB,old,z,./images/BALGYLB.png,,,,,,,,,,,,,,,,,,,,,,,,,,,,,,,,,,
,,,,,,,,,,,,,,,,,,32,2022-02-12_13h22.51.671,lexical_decision_task_DD_L4,2021.2.3,MacIntel,59.97361161,,,,,,,,,,,,0.85,1,,,,,,,,,,,,,,z,1,0.85,,,,,,,,0.446645508,-0.17828125,0,0,0,,0,9,9,95,1,HANTY,LB,old,z,./images/HANTYLB.png,,,,,,,,,,,,,,,,,,,,,,,,,,,,,,,,,,
,,,,,,,,,,,,,,,,,,32,2022-02-12_13h22.51.671,lexical_decision_task_DD_L4,2021.2.3,MacIntel,59.97361161,,,,,,,,,,,,0.9155,1,,,,,,,,,,,,,,z,1,0.9155,,,,,,,,0.446645508,-0.17828125,0,0,0,,0,10,10,152,1,FRAIN,LB,old,z,./images/FRAINLB.png,,,,,,,,,,,,,,,,,,,,,,,,,,,,,,,,,,
,,,,,,,,,,,,,,,,,,32,2022-02-12_13h22.51.671,lexical_decision_task_DD_L4,2021.2.3,MacIntel,59.97361161,,,,,,,,,,,,1.2008,1,,,,,,,,,,,,,,z,1,1.2008,,,,,,,,0.446645508,-0.17828125,0,0,0,,0,11,11,124,1,TUNCH,HB,old,z,./images/TUNCHHB.png,,,,,,,,,,,,,,,,,,,,,,,,,,,,,,,,,,
,,,,,,,,,,,,,,,,,,32,2022-02-12_13h22.51.671,lexical_decision_task_DD_L4,2021.2.3,MacIntel,59.97361161,,,,,,,,,,,,0.7153,1,,,,,,,,,,,,,,z,1,0.7153,,,,,,,,0.446645508,-0.17828125,0,0,0,,0,12,12,167,1,ZONET,LB,old,z,./images/ZONETLB.png,,,,,,,,,,,,,,,,,,,,,,,,,,,,,,,,,,
,,,,,,,,,,,,,,,,,,32,2022-02-12_13h22.51.671,lexical_decision_task_DD_L4,2021.2.3,MacIntel,59.97361161,,,,,,,,,,,,0.5638,1,,,,,,,,,,,,,,m,1,0.5638,,,,,,,,0.446645508,-0.17828125,0,0,0,,0,13,13,39,1,CANDY,C,old,m,./images/CANDY.png,,,,,,,,,,,,,,,,,,,,,,,,,,,,,,,,,,
,,,,,,,,,,,,,,,,,,32,2022-02-12_13h22.51.671,lexical_decision_task_DD_L4,2021.2.3,MacIntel,59.97361161,,,,,,,,,,,,0.6151,1,,,,,,,,,,,,,,m,1,0.6151,,,,,,,,0.446645508,-0.17828125,0,0,0,,0,14,14,27,1,BUTTER,C,old,m,./images/BUTTER.png,,,,,,,,,,,,,,,,,,,,,,,,,,,,,,,,,,
,,,,,,,,,,,,,,,,,,32,2022-02-12_13h22.51.671,lexical_decision_task_DD_L4,2021.2.3,MacIntel,59.97361161,,,,,,,,,,,,1.9003,1,,,,,,,,,,,,,,m,1,1.9003,,,,,,,,0.446645508,-0.17828125,0,0,0,,0,15,15,28,1,CASINO,HB,old,m,./images/CASINOHB.png,,,,,,,,,,,,,,,,,,,,,,,,,,,,,,,,,,
,,,,,,,,,,,,,,,,,,32,2022-02-12_13h22.51.671,lexical_decision_task_DD_L4,2021.2.3,MacIntel,59.97361161,,,,,,,,,,,,0.9837,1,,,,,,,,,,,,,,m,1,0.9837,,,,,,,,0.446645508,-0.17828125,0,0,0,,0,16,16,5,1,BAMBOO,LB,old,m,./images/BAMBOOLB.png,,,,,,,,,,,,,,,,,,,,,,,,,,,,,,,,,,
,,,,,,,,,,,,,,,,,,32,2022-02-12_13h22.51.671,lexical_decision_task_DD_L4,2021.2.3,MacIntel,59.97361161,,,,,,,,,,,,0.6771,1,,,,,,,,,,,,,,z,1,0.6771,,,,,,,,0.446645508,-0.17828125,0,0,0,,0,17,17,87,1,TRING,C,old,z,./images/TRING.png,,,,,,,,,,,,,,,,,,,,,,,,,,,,,,,,,,
,,,,,,,,,,,,,,,,,,32,2022-02-12_13h22.51.671,lexical_decision_task_DD_L4,2021.2.3,MacIntel,59.97361161,,,,,,,,,,,,0.8328,1,,,,,,,,,,,,,,m,1,0.8328,,,,,,,,0.446645508,-0.17828125,0,0,0,,0,18,18,30,1,SLOPE,C,old,m,./images/SLOPE.png,,,,,,,,,,,,,,,,,,,,,,,,,,,,,,,,,,
,,,,,,,,,,,,,,,,,,32,2022-02-12_13h22.51.671,lexical_decision_task_DD_L4,2021.2.3,MacIntel,59.97361161,,,,,,,,,,,,0.7828,1,,,,,,,,,,,,,,z,1,0.7828,,,,,,,,0.446645508,-0.17828125,0,0,0,,0,19,19,111,1,HOSSE,C,old,z,./images/HOSSE.png,,,,,,,,,,,,,,,,,,,,,,,,,,,,,,,,,,
,,,,,,,,,,,,,,,,,,32,2022-02-12_13h22.51.671,lexical_decision_task_DD_L4,2021.2.3,MacIntel,59.97361161,,,,,,,,,,,,1.5681,1,,,,,,,,,,,,,,z,1,1.5681,,,,,,,,0.446645508,-0.17828125,0,0,0,,0,20,20,157,1,INLER,HB,old,z,./images/INLERHB.png,,,,,,,,,,,,,,,,,,,,,,,,,,,,,,,,,,
,,,,,,,,,,,,,,,,,,32,2022-02-12_13h22.51.671,lexical_decision_task_DD_L4,2021.2.3,MacIntel,59.97361161,,,,,,,,,,,,1.5112,1,,,,,,,,,,,,,,z,1,1.5112,,,,,,,,0.446645508,-0.17828125,0,0,0,,0,21,21,136,1,WERVE,HB,old,z,./images/WERVEHB.png,,,,,,,,,,,,,,,,,,,,,,,,,,,,,,,,,,
,,,,,,,,,,,,,,,,,,32,2022-02-12_13h22.51.671,lexical_decision_task_DD_L4,2021.2.3,MacIntel,59.97361161,,,,,,,,,,,,1.0435,1,,,,,,,,,,,,,,z,1,1.0435,,,,,,,,0.446645508,-0.17828125,0,0,0,,0,22,22,102,1,DULLE,C,old,z,./images/DULLE.png,,,,,,,,,,,,,,,,,,,,,,,,,,,,,,,,,,
,,,,,,,,,,,,,,,,,,32,2022-02-12_13h22.51.671,lexical_decision_task_DD_L4,2021.2.3,MacIntel,59.97361161,,,,,,,,,,,,0.8297,1,,,,,,,,,,,,,,z,1,0.8297,,,,,,,,0.446645508,-0.17828125,0,0,0,,0,23,23,122,1,BLOOT,LB,old,z,./images/BLOOTLB.png,,,,,,,,,,,,,,,,,,,,,,,,,,,,,,,,,,
,,,,,,,,,,,,,,,,,,32,2022-02-12_13h22.51.671,lexical_decision_task_DD_L4,2021.2.3,MacIntel,59.97361161,,,,,,,,,,,,0.6455,1,,,,,,,,,,,,,,m,1,0.6455,,,,,,,,0.446645508,-0.17828125,0,0,0,,0,24,24,59,1,BRUSH,LB,old,m,./images/BRUSHLB.png,,,,,,,,,,,,,,,,,,,,,,,,,,,,,,,,,,
,,,,,,,,,,,,,,,,,,32,2022-02-12_13h22.51.671,lexical_decision_task_DD_L4,2021.2.3,MacIntel,59.97361161,,,,,,,,,,,,0.7979,1,,,,,,,,,,,,,,z,1,0.7979,,,,,,,,0.446645508,-0.17828125,0,0,0,,0,25,25,141,1,PLEET,C,old,z,./images/PLEET.png,,,,,,,,,,,,,,,,,,,,,,,,,,,,,,,,,,
,,,,,,,,,,,,,,,,,,32,2022-02-12_13h22.51.671,lexical_decision_task_DD_L4,2021.2.3,MacIntel,59.97361161,,,,,,,,,,,,0.7101,1,,,,,,,,,,,,,,m,1,0.7101,,,,,,,,0.446645508,-0.17828125,0,0,0,,0,26,26,36,1,BOILER,C,old,m,./images/BOILER.png,,,,,,,,,,,,,,,,,,,,,,,,,,,,,,,,,,
,,,,,,,,,,,,,,,,,,32,2022-02-12_13h22.51.671,lexical_decision_task_DD_L4,2021.2.3,MacIntel,59.97361161,,,,,,,,,,,,1.9857,1,,,,,,,,,,,,,,z,1,1.9857,,,,,,,,0.446645508,-0.17828125,0,0,0,,0,27,27,94,1,BLANS,HB,old,z,./images/BLANSHB.png,,,,,,,,,,,,,,,,,,,,,,,,,,,,,,,,,,
,,,,,,,,,,,,,,,,,,32,2022-02-12_13h22.51.671,lexical_decision_task_DD_L4,2021.2.3,MacIntel,59.97361161,,,,,,,,,,,,1.3487,1,,,,,,,,,,,,,,m,1,1.3487,,,,,,,,0.446645508,-0.17828125,0,0,0,,0,28,28,13,1,BUNNY,HB,old,m,./images/BUNNYHB.png,,,,,,,,,,,,,,,,,,,,,,,,,,,,,,,,,,
,,,,,,,,,,,,,,,,,,32,2022-02-12_13h22.51.671,lexical_decision_task_DD_L4,2021.2.3,MacIntel,59.97361161,,,,,,,,,,,,1.2652,1,,,,,,,,,,,,,,z,1,1.2652,,,,,,,,0.446645508,-0.17828125,0,0,0,,0,29,29,120,1,RINED,C,old,z,./images/RINED.png,,,,,,,,,,,,,,,,,,,,,,,,,,,,,,,,,,
,,,,,,,,,,,,,,,,,,32,2022-02-12_13h22.51.671,lexical_decision_task_DD_L4,2021.2.3,MacIntel,59.97361161,,,,,,,,,,,,1.1008,1,,,,,,,,,,,,,,m,1,1.1008,,,,,,,,0.446645508,-0.17828125,0,0,0,,0,30,30,64,1,BRIDE,HB,old,m,./images/BRIDEHB.png,,,,,,,,,,,,,,,,,,,,,,,,,,,,,,,,,,
,,,,,,,,,,,,,,,,,,32,2022-02-12_13h22.51.671,lexical_decision_task_DD_L4,2021.2.3,MacIntel,59.97361161,,,,,,,,,,,,0.8182,1,,,,,,,,,,,,,,m,1,0.8182,,,,,,,,0.446645508,-0.17828125,0,0,0,,0,31,31,12,1,BLOKE,C,old,m,./images/BLOKE.png,,,,,,,,,,,,,,,,,,,,,,,,,,,,,,,,,,
,,,,,,,,,,,,,,,,,,32,2022-02-12_13h22.51.671,lexical_decision_task_DD_L4,2021.2.3,MacIntel,59.97361161,,,,,,,,,,,,0.5966,1,,,,,,,,,,,,,,m,1,0.5966,,,,,,,,0.446645508,-0.17828125,0,0,0,,0,32,32,14,1,FENCE,LB,old,m,./images/FENCELB.png,,,,,,,,,,,,,,,,,,,,,,,,,,,,,,,,,,
,,,,,,,,,,,,,,,,,,32,2022-02-12_13h22.51.671,lexical_decision_task_DD_L4,2021.2.3,MacIntel,59.97361161,,,,,,,,,,,,0.6325,1,,,,,,,,,,,,,,m,1,0.6325,,,,,,,,0.446645508,-0.17828125,0,0,0,,0,33,33,23,1,CLOTH,LB,old,m,./images/CLOTHLB.png,,,,,,,,,,,,,,,,,,,,,,,,,,,,,,,,,,
,,,,,,,,,,,,,,,,,,32,2022-02-12_13h22.51.671,lexical_decision_task_DD_L4,2021.2.3,MacIntel,59.97361161,,,,,,,,,,,,0.8142,1,,,,,,,,,,,,,,z,1,0.8142,,,,,,,,0.446645508,-0.17828125,0,0,0,,0,34,34,138,1,PLICE,C,old,z,./images/PLICE.png,,,,,,,,,,,,,,,,,,,,,,,,,,,,,,,,,,
,,,,,,,,,,,,,,,,,,32,2022-02-12_13h22.51.671,lexical_decision_task_DD_L4,2021.2.3,MacIntel,59.97361161,,,,,,,,,,,,0.7138,1,,,,,,,,,,,,,,z,1,0.7138,,,,,,,,0.446645508,-0.17828125,0,0,0,,0,35,35,144,1,NAIRY,C,old,z,./images/NAIRY.png,,,,,,,,,,,,,,,,,,,,,,,,,,,,,,,,,,
,,,,,,,,,,,,,,,,,,32,2022-02-12_13h22.51.671,lexical_decision_task_DD_L4,2021.2.3,MacIntel,59.97361161,,,,,,,,,,,,0.7358,1,,,,,,,,,,,,,,z,1,0.7358,,,,,,,,0.446645508,-0.17828125,0,0,0,,0,36,36,143,1,MONGS,LB,old,z,./images/MONGSLB.png,,,,,,,,,,,,,,,,,,,,,,,,,,,,,,,,,,
,,,,,,,,,,,,,,,,,,32,2022-02-12_13h22.51.671,lexical_decision_task_DD_L4,2021.2.3,MacIntel,59.97361161,,,,,,,,,,,,0.6295,1,,,,,,,,,,,,,,z,1,0.6295,,,,,,,,0.446645508,-0.17828125,0,0,0,,0,37,37,132,1,SCIFF,C,old,z,./images/SCIFF.png,,,,,,,,,,,,,,,,,,,,,,,,,,,,,,,,,,
,,,,,,,,,,,,,,,,,,32,2022-02-12_13h22.51.671,lexical_decision_task_DD_L4,2021.2.3,MacIntel,59.97361161,,,,,,,,,,,,1.5713,1,,,,,,,,,,,,,,m,1,1.5713,,,,,,,,0.446645508,-0.17828125,0,0,0,,0,38,38,22,1,CLOWN,HB,old,m,./images/CLOWNHB.png,,,,,,,,,,,,,,,,,,,,,,,,,,,,,,,,,,
,,,,,,,,,,,,,,,,,,32,2022-02-12_13h22.51.671,lexical_decision_task_DD_L4,2021.2.3,MacIntel,59.97361161,,,,,,,,,,,,0.7155,1,,,,,,,,,,,,,,m,1,0.7155,,,,,,,,0.446645508,-0.17828125,0,0,0,,0,39,39,17,1,PARADE,LB,old,m,./images/PARADELB.png,,,,,,,,,,,,,,,,,,,,,,,,,,,,,,,,,,
,,,,,,,,,,,,,,,,,,32,2022-02-12_13h22.51.671,lexical_decision_task_DD_L4,2021.2.3,MacIntel,59.97361161,,,,,,,,,,,,0.7491,1,,,,,,,,,,,,,,z,1,0.7491,,,,,,,,0.446645508,-0.17828125,0,0,0,,0,40,40,113,1,LINEW,LB,old,z,./images/LINEWLB.png,,,,,,,,,,,,,,,,,,,,,,,,,,,,,,,,,,
,,,,,,,,,,,,,,,,,,32,2022-02-12_13h22.51.671,lexical_decision_task_DD_L4,2021.2.3,MacIntel,59.97361161,,,,,,,,,,,,1.3617,1,,,,,,,,,,,,,,z,1,1.3617,,,,,,,,0.446645508,-0.17828125,0,0,0,space,0,41,41,106,1,CLUMS,HB,old,z,./images/CLUMSHB.png,16.6637,,,,,,,,,,,,,,,,,,,,,,,,,,,,,,,,,
,,,,,,,,,,,,,,,,,,32,2022-02-12_13h22.51.671,lexical_decision_task_DD_L4,2021.2.3,MacIntel,59.97361161,,,,,,,,,,,,0.8673,1,,,,,,,,,,,,,,m,1,0.8673,,,,,,,,0.446645508,-0.17828125,0,0,0,,0,42,42,16,1,GRAPE,HB,old,m,./images/GRAPEHB.png,,,,,,,,,,,,,,,,,,,,,,,,,,,,,,,,,,
,,,,,,,,,,,,,,,,,,32,2022-02-12_13h22.51.671,lexical_decision_task_DD_L4,2021.2.3,MacIntel,59.97361161,,,,,,,,,,,,0.5679,1,,,,,,,,,,,,,,m,1,0.5679,,,,,,,,0.446645508,-0.17828125,0,0,0,,0,43,43,83,1,WHISKY,LB,old,m,./images/WHISKYLB.png,,,,,,,,,,,,,,,,,,,,,,,,,,,,,,,,,,
,,,,,,,,,,,,,,,,,,32,2022-02-12_13h22.51.671,lexical_decision_task_DD_L4,2021.2.3,MacIntel,59.97361161,,,,,,,,,,,,0.9504,1,,,,,,,,,,,,,,m,1,0.9504,,,,,,,,0.446645508,-0.17828125,0,0,0,,0,44,44,55,1,ALLEY,HB,old,m,./images/ALLEYHB.png,,,,,,,,,,,,,,,,,,,,,,,,,,,,,,,,,,
,,,,,,,,,,,,,,,,,,32,2022-02-12_13h22.51.671,lexical_decision_task_DD_L4,2021.2.3,MacIntel,59.97361161,,,,,,,,,,,,0.7989,1,,,,,,,,,,,,,,z,1,0.7989,,,,,,,,0.446645508,-0.17828125,0,0,0,,0,45,45,107,1,FASKS,LB,old,z,./images/FASKSLB.png,,,,,,,,,,,,,,,,,,,,,,,,,,,,,,,,,,
,,,,,,,,,,,,,,,,,,32,2022-02-12_13h22.51.671,lexical_decision_task_DD_L4,2021.2.3,MacIntel,59.97361161,,,,,,,,,,,,0.7974,1,,,,,,,,,,,,,,z,1,0.7974,,,,,,,,0.446645508,-0.17828125,0,0,0,,0,46,46,162,1,LEICH,C,old,z,./images/LEICH.png,,,,,,,,,,,,,,,,,,,,,,,,,,,,,,,,,,
,,,,,,,,,,,,,,,,,,32,2022-02-12_13h22.51.671,lexical_decision_task_DD_L4,2021.2.3,MacIntel,59.97361161,,,,,,,,,,,,1.3298,1,,,,,,,,,,,,,,m,1,1.3298,,,,,,,,0.446645508,-0.17828125,0,0,0,,0,47,47,37,1,TIGER,HB,old,m,./images/TIGERHB.png,,,,,,,,,,,,,,,,,,,,,,,,,,,,,,,,,,
,,,,,,,,,,,,,,,,,,32,2022-02-12_13h22.51.671,lexical_decision_task_DD_L4,2021.2.3,MacIntel,59.97361161,,,,,,,,,,,,0.8784,1,,,,,,,,,,,,,,m,1,0.8784,,,,,,,,0.446645508,-0.17828125,0,0,0,,0,48,48,56,1,HEATER,LB,old,m,./images/HEATERLB.png,,,,,,,,,,,,,,,,,,,,,,,,,,,,,,,,,,
,,,,,,,,,,,,,,,,,,32,2022-02-12_13h22.51.671,lexical_decision_task_DD_L4,2021.2.3,MacIntel,59.97361161,,,,,,,,,,,,0.5991,1,,,,,,,,,,,,,,m,1,0.5991,,,,,,,,0.446645508,-0.17828125,0,0,0,,0,49,49,72,1,FLASK,C,old,m,./images/FLASK.png,,,,,,,,,,,,,,,,,,,,,,,,,,,,,,,,,,
,,,,,,,,,,,,,,,,,,32,2022-02-12_13h22.51.671,lexical_decision_task_DD_L4,2021.2.3,MacIntel,59.97361161,,,,,,,,,,,,2.3019,1,,,,,,,,,,,,,,z,1,2.3019,,,,,,,,0.446645508,-0.17828125,0,0,0,,0,50,50,133,1,POWDY,HB,old,z,./images/POWDYHB.png,,,,,,,,,,,,,,,,,,,,,,,,,,,,,,,,,,
,,,,,,,,,,,,,,,,,,32,2022-02-12_13h22.51.671,lexical_decision_task_DD_L4,2021.2.3,MacIntel,59.97361161,,,,,,,,,,,,0.7494,1,,,,,,,,,,,,,,z,1,0.7494,,,,,,,,0.446645508,-0.17828125,0,0,0,,0,51,51,98,1,BAMPS,LB,old,z,./images/BAMPSLB.png,,,,,,,,,,,,,,,,,,,,,,,,,,,,,,,,,,
,,,,,,,,,,,,,,,,,,32,2022-02-12_13h22.51.671,lexical_decision_task_DD_L4,2021.2.3,MacIntel,59.97361161,,,,,,,,,,,,0.8994,1,,,,,,,,,,,,,,m,1,0.8994,,,,,,,,0.446645508,-0.17828125,0,0,0,,0,52,52,34,1,RAZOR,HB,old,m,./images/RAZORHB.png,,,,,,,,,,,,,,,,,,,,,,,,,,,,,,,,,,
,,,,,,,,,,,,,,,,,,32,2022-02-12_13h22.51.671,lexical_decision_task_DD_L4,2021.2.3,MacIntel,59.97361161,,,,,,,,,,,,1.4173,1,,,,,,,,,,,,,,z,1,1.4173,,,,,,,,0.446645508,-0.17828125,0,0,0,,0,53,53,151,1,TINKY,HB,old,z,./images/TINKYHB.png,,,,,,,,,,,,,,,,,,,,,,,,,,,,,,,,,,
,,,,,,,,,,,,,,,,,,32,2022-02-12_13h22.51.671,lexical_decision_task_DD_L4,2021.2.3,MacIntel,59.97361161,,,,,,,,,,,,0.9989,1,,,,,,,,,,,,,,m,1,0.9989,,,,,,,,0.446645508,-0.17828125,0,0,0,,0,54,54,76,1,MIDGET,HB,old,m,./images/MIDGETHB.png,,,,,,,,,,,,,,,,,,,,,,,,,,,,,,,,,,
,,,,,,,,,,,,,,,,,,32,2022-02-12_13h22.51.671,lexical_decision_task_DD_L4,2021.2.3,MacIntel,59.97361161,,,,,,,,,,,,0.7146,1,,,,,,,,,,,,,,z,1,0.7146,,,,,,,,0.446645508,-0.17828125,0,0,0,,0,55,55,117,1,STEEG,C,old,z,./images/STEEG.png,,,,,,,,,,,,,,,,,,,,,,,,,,,,,,,,,,
,,,,,,,,,,,,,,,,,,32,2022-02-12_13h22.51.671,lexical_decision_task_DD_L4,2021.2.3,MacIntel,59.97361161,,,,,,,,,,,,0.7309,1,,,,,,,,,,,,,,z,1,0.7309,,,,,,,,0.446645508,-0.17828125,0,0,0,,0,56,56,165,1,TROWN,C,old,z,./images/TROWN.png,,,,,,,,,,,,,,,,,,,,,,,,,,,,,,,,,,
,,,,,,,,,,,,,,,,,,32,2022-02-12_13h22.51.671,lexical_decision_task_DD_L4,2021.2.3,MacIntel,59.97361161,,,,,,,,,,,,0.9124,1,,,,,,,,,,,,,,z,1,0.9124,,,,,,,,0.446645508,-0.17828125,0,0,0,,0,57,57,134,1,TROSS,LB,old,z,./images/TROSSLB.png,,,,,,,,,,,,,,,,,,,,,,,,,,,,,,,,,,
,,,,,,,,,,,,,,,,,,32,2022-02-12_13h22.51.671,lexical_decision_task_DD_L4,2021.2.3,MacIntel,59.97361161,,,,,,,,,,,,0.6168,1,,,,,,,,,,,,,,m,1,0.6168,,,,,,,,0.446645508,-0.17828125,0,0,0,,0,58,58,44,1,BASKET,LB,old,m,./images/BASKETLB.png,,,,,,,,,,,,,,,,,,,,,,,,,,,,,,,,,,
,,,,,,,,,,,,,,,,,,32,2022-02-12_13h22.51.671,lexical_decision_task_DD_L4,2021.2.3,MacIntel,59.97361161,,,,,,,,,,,,0.611,1,,,,,,,,,,,,,,m,1,0.611,,,,,,,,0.446645508,-0.17828125,0,0,0,,0,59,59,75,1,HAMMER,C,old,m,./images/HAMMER.png,,,,,,,,,,,,,,,,,,,,,,,,,,,,,,,,,,
,,,,,,,,,,,,,,,,,,32,2022-02-12_13h22.51.671,lexical_decision_task_DD_L4,2021.2.3,MacIntel,59.97361161,,,,,,,,,,,,0.9315,1,,,,,,,,,,,,,,m,1,0.9315,,,,,,,,0.446645508,-0.17828125,0,0,0,,0,60,60,43,1,STOOL,HB,old,m,./images/STOOLHB.png,,,,,,,,,,,,,,,,,,,,,,,,,,,,,,,,,,
,,,,,,,,,,,,,,,,,,32,2022-02-12_13h22.51.671,lexical_decision_task_DD_L4,2021.2.3,MacIntel,59.97361161,,,,,,,,,,,,1.561,1,,,,,,,,,,,,,,z,1,1.561,,,,,,,,0.446645508,-0.17828125,0,0,0,,0,61,61,154,1,THINT,HB,old,z,./images/THINTHB.png,,,,,,,,,,,,,,,,,,,,,,,,,,,,,,,,,,
,,,,,,,,,,,,,,,,,,32,2022-02-12_13h22.51.671,lexical_decision_task_DD_L4,2021.2.3,MacIntel,59.97361161,,,,,,,,,,,,0.9157,1,,,,,,,,,,,,,,z,1,0.9157,,,,,,,,0.446645508,-0.17828125,0,0,0,,0,62,62,147,1,ZOLES,C,old,z,./images/ZOLES.png,,,,,,,,,,,,,,,,,,,,,,,,,,,,,,,,,,
,,,,,,,,,,,,,,,,,,32,2022-02-12_13h22.51.671,lexical_decision_task_DD_L4,2021.2.3,MacIntel,59.97361161,,,,,,,,,,,,1.4333,1,,,,,,,,,,,,,,m,1,1.4333,,,,,,,,0.446645508,-0.17828125,0,0,0,,0,63,63,49,1,BISHOP,HB,old,m,./images/BISHOPHB.png,,,,,,,,,,,,,,,,,,,,,,,,,,,,,,,,,,
,,,,,,,,,,,,,,,,,,32,2022-02-12_13h22.51.671,lexical_decision_task_DD_L4,2021.2.3,MacIntel,59.97361161,,,,,,,,,,,,1.2516,1,,,,,,,,,,,,,,z,1,1.2516,,,,,,,,0.446645508,-0.17828125,0,0,0,,0,64,64,130,1,CRILL,HB,old,z,./images/CRILLHB.png,,,,,,,,,,,,,,,,,,,,,,,,,,,,,,,,,,
,,,,,,,,,,,,,,,,,,32,2022-02-12_13h22.51.671,lexical_decision_task_DD_L4,2021.2.3,MacIntel,59.97361161,,,,,,,,,,,,0.9597,1,,,,,,,,,,,,,,z,1,0.9597,,,,,,,,0.446645508,-0.17828125,0,0,0,,0,65,65,114,1,RIKES,C,old,z,./images/RIKES.png,,,,,,,,,,,,,,,,,,,,,,,,,,,,,,,,,,
,,,,,,,,,,,,,,,,,,32,2022-02-12_13h22.51.671,lexical_decision_task_DD_L4,2021.2.3,MacIntel,59.97361161,,,,,,,,,,,,0.6482,1,,,,,,,,,,,,,,m,1,0.6482,,,,,,,,0.446645508,-0.17828125,0,0,0,,0,66,66,42,1,CHAIN,C,old,m,./images/CHAIN.png,,,,,,,,,,,,,,,,,,,,,,,,,,,,,,,,,,
,,,,,,,,,,,,,,,,,,32,2022-02-12_13h22.51.671,lexical_decision_task_DD_L4,2021.2.3,MacIntel,59.97361161,,,,,,,,,,,,0.882,1,,,,,,,,,,,,,,m,1,0.882,,,,,,,,0.446645508,-0.17828125,0,0,0,,0,67,67,67,1,POKER,HB,old,m,./images/POKERHB.png,,,,,,,,,,,,,,,,,,,,,,,,,,,,,,,,,,
,,,,,,,,,,,,,,,,,,32,2022-02-12_13h22.51.671,lexical_decision_task_DD_L4,2021.2.3,MacIntel,59.97361161,,,,,,,,,,,,0.8667,1,,,,,,,,,,,,,,z,1,0.8667,,,,,,,,0.446645508,-0.17828125,0,0,0,,0,68,68,161,1,BLAPS,LB,old,z,./images/BLAPSLB.png,,,,,,,,,,,,,,,,,,,,,,,,,,,,,,,,,,
,,,,,,,,,,,,,,,,,,32,2022-02-12_13h22.51.671,lexical_decision_task_DD_L4,2021.2.3,MacIntel,59.97361161,,,,,,,,,,,,1.5499,1,,,,,,,,,,,,,,z,1,1.5499,,,,,,,,0.446645508,-0.17828125,0,0,0,,0,69,69,109,1,BURGE,HB,old,z,./images/BURGEHB.png,,,,,,,,,,,,,,,,,,,,,,,,,,,,,,,,,,
,,,,,,,,,,,,,,,,,,32,2022-02-12_13h22.51.671,lexical_decision_task_DD_L4,2021.2.3,MacIntel,59.97361161,,,,,,,,,,,,0.6263,1,,,,,,,,,,,,,,m,1,0.6263,,,,,,,,0.446645508,-0.17828125,0,0,0,,0,70,70,24,1,FLESH,C,old,m,./images/FLESH.png,,,,,,,,,,,,,,,,,,,,,,,,,,,,,,,,,,
,,,,,,,,,,,,,,,,,,32,2022-02-12_13h22.51.671,lexical_decision_task_DD_L4,2021.2.3,MacIntel,59.97361161,,,,,,,,,,,,1.9169,1,,,,,,,,,,,,,,z,1,1.9169,,,,,,,,0.446645508,-0.17828125,0,0,0,,0,71,71,145,1,LAMEL,HB,old,z,./images/LAMELHB.png,,,,,,,,,,,,,,,,,,,,,,,,,,,,,,,,,,
,,,,,,,,,,,,,,,,,,32,2022-02-12_13h22.51.671,lexical_decision_task_DD_L4,2021.2.3,MacIntel,59.97361161,,,,,,,,,,,,0.8342,1,,,,,,,,,,,,,,z,1,0.8342,,,,,,,,0.446645508,-0.17828125,0,0,0,,0,72,72,101,1,GLEET,LB,old,z,./images/GLEETLB.png,,,,,,,,,,,,,,,,,,,,,,,,,,,,,,,,,,
,,,,,,,,,,,,,,,,,,32,2022-02-12_13h22.51.671,lexical_decision_task_DD_L4,2021.2.3,MacIntel,59.97361161,,,,,,,,,,,,0.7499,1,,,,,,,,,,,,,,m,1,0.7499,,,,,,,,0.446645508,-0.17828125,0,0,0,,0,73,73,65,1,SPINE,LB,old,m,./images/SPINELB.png,,,,,,,,,,,,,,,,,,,,,,,,,,,,,,,,,,
,,,,,,,,,,,,,,,,,,32,2022-02-12_13h22.51.671,lexical_decision_task_DD_L4,2021.2.3,MacIntel,59.97361161,,,,,,,,,,,,0.735,1,,,,,,,,,,,,,,z,1,0.735,,,,,,,,0.446645508,-0.17828125,0,0,0,,0,74,74,131,1,NACES,LB,old,z,./images/NACESLB.png,,,,,,,,,,,,,,,,,,,,,,,,,,,,,,,,,,
,,,,,,,,,,,,,,,,,,32,2022-02-12_13h22.51.671,lexical_decision_task_DD_L4,2021.2.3,MacIntel,59.97361161,,,,,,,,,,,,0.9873,1,,,,,,,,,,,,,,z,1,0.9873,,,,,,,,0.446645508,-0.17828125,0,0,0,,0,75,75,90,1,NEAST,C,old,z,./images/NEAST.png,,,,,,,,,,,,,,,,,,,,,,,,,,,,,,,,,,
,,,,,,,,,,,,,,,,,,32,2022-02-12_13h22.51.671,lexical_decision_task_DD_L4,2021.2.3,MacIntel,59.97361161,,,,,,,,,,,,0.7989,1,,,,,,,,,,,,,,m,1,0.7989,,,,,,,,0.446645508,-0.17828125,0,0,0,,0,76,76,35,1,LLAMA,LB,old,m,./images/LLAMALB.png,,,,,,,,,,,,,,,,,,,,,,,,,,,,,,,,,,
,,,,,,,,,,,,,,,,,,32,2022-02-12_13h22.51.671,lexical_decision_task_DD_L4,2021.2.3,MacIntel,59.97361161,,,,,,,,,,,,0.8999,1,,,,,,,,,,,,,,z,1,0.8999,,,,,,,,0.446645508,-0.17828125,0,0,0,,0,77,77,104,1,GITTY,LB,old,z,./images/GITTYLB.png,,,,,,,,,,,,,,,,,,,,,,,,,,,,,,,,,,
,,,,,,,,,,,,,,,,,,32,2022-02-12_13h22.51.671,lexical_decision_task_DD_L4,2021.2.3,MacIntel,59.97361161,,,,,,,,,,,,0.9832,1,,,,,,,,,,,,,,m,1,0.9832,,,,,,,,0.446645508,-0.17828125,0,0,0,,0,78,78,25,1,CHALK,HB,old,m,./images/CHALKHB.png,,,,,,,,,,,,,,,,,,,,,,,,,,,,,,,,,,
,,,,,,,,,,,,,,,,,,32,2022-02-12_13h22.51.671,lexical_decision_task_DD_L4,2021.2.3,MacIntel,59.97361161,,,,,,,,,,,,0.6187,1,,,,,,,,,,,,,,m,1,0.6187,,,,,,,,0.446645508,-0.17828125,0,0,0,,0,79,79,50,1,PILOT,LB,old,m,./images/PILOTLB.png,,,,,,,,,,,,,,,,,,,,,,,,,,,,,,,,,,
,,,,,,,,,,,,,,,,,,32,2022-02-12_13h22.51.671,lexical_decision_task_DD_L4,2021.2.3,MacIntel,59.97361161,,,,,,,,,,,,0.89,1,,,,,,,,,,,,,,m,1,0.89,,,,,,,,0.446645508,-0.17828125,0,0,0,,0,80,80,68,1,VALLEY,LB,old,m,./images/VALLEYLB.png,,,,,,,,,,,,,,,,,,,,,,,,,,,,,,,,,,
,,,,,,,,,,,,,,,,,,32,2022-02-12_13h22.51.671,lexical_decision_task_DD_L4,2021.2.3,MacIntel,59.97361161,,,,,,,,,,,,1.7657,1,,,,,,,,,,,,,,m,1,1.7657,,,,,,,,0.446645508,-0.17828125,0,0,0,,0,81,81,40,1,SNAKE,HB,old,m,./images/SNAKEHB.png,,,,,,,,,,,,,,,,,,,,,,,,,,,,,,,,,,
,,,,,,,,,,,,,,,,,,32,2022-02-12_13h22.51.671,lexical_decision_task_DD_L4,2021.2.3,MacIntel,59.97361161,,,,,,,,,,,,0.967,1,,,,,,,,,,,,,,m,1,0.967,,,,,,,,0.446645508,-0.17828125,0,0,0,,0,82,82,8,1,CLIFF,LB,old,m,./images/CLIFFLB.png,,,,,,,,,,,,,,,,,,,,,,,,,,,,,,,,,,
,,,,,,,,,,,,,,,,,,32,2022-02-12_13h22.51.671,lexical_decision_task_DD_L4,2021.2.3,MacIntel,59.97361161,,,,,,,,,,,,1.1497,1,,,,,,,,,,,,,,z,1,1.1497,,,,,,,,0.446645508,-0.17828125,0,0,0,space,0,83,83,142,1,PLASK,HB,old,z,./images/PLASKHB.png,66.5472,,,,,,,,,,,,,,,,,,,,,,,,,,,,,,,,,
,,,,,,,,,,,,,,,,,,32,2022-02-12_13h22.51.671,lexical_decision_task_DD_L4,2021.2.3,MacIntel,59.97361161,,,,,,,,,,,,0.63,1,,,,,,,,,,,,,,m,1,0.63,,,,,,,,0.446645508,-0.17828125,0,0,0,,0,84,84,60,1,CURRY,C,old,m,./images/CURRY.png,,,,,,,,,,,,,,,,,,,,,,,,,,,,,,,,,,
,,,,,,,,,,,,,,,,,,32,2022-02-12_13h22.51.671,lexical_decision_task_DD_L4,2021.2.3,MacIntel,59.97361161,,,,,,,,,,,,0.837,1,,,,,,,,,,,,,,m,1,0.837,,,,,,,,0.446645508,-0.17828125,0,0,0,,0,85,85,1,1,TOWEL,HB,old,m,./images/TOWELHB.png,,,,,,,,,,,,,,,,,,,,,,,,,,,,,,,,,,
,,,,,,,,,,,,,,,,,,32,2022-02-12_13h22.51.671,lexical_decision_task_DD_L4,2021.2.3,MacIntel,59.97361161,,,,,,,,,,,,0.5987,1,,,,,,,,,,,,,,z,1,0.5987,,,,,,,,0.446645508,-0.17828125,0,0,0,,0,86,86,105,1,MOKER,C,old,z,./images/MOKER.png,,,,,,,,,,,,,,,,,,,,,,,,,,,,,,,,,,
,,,,,,,,,,,,,,,,,,32,2022-02-12_13h22.51.671,lexical_decision_task_DD_L4,2021.2.3,MacIntel,59.97361161,,,,,,,,,,,,0.867,1,,,,,,,,,,,,,,z,1,0.867,,,,,,,,0.446645508,-0.17828125,0,0,0,,0,87,87,160,1,VEETS,HB,old,z,./images/VEETSHB.png,,,,,,,,,,,,,,,,,,,,,,,,,,,,,,,,,,
,,,,,,,,,,,,,,,,,,32,2022-02-12_13h22.51.671,lexical_decision_task_DD_L4,2021.2.3,MacIntel,59.97361161,,,,,,,,,,,,0.6328,1,,,,,,,,,,,,,,m,1,0.6328,,,,,,,,0.446645508,-0.17828125,0,0,0,,0,88,88,32,1,HOCKEY,LB,old,m,./images/HOCKEYLB.png,,,,,,,,,,,,,,,,,,,,,,,,,,,,,,,,,,
,,,,,,,,,,,,,,,,,,32,2022-02-12_13h22.51.671,lexical_decision_task_DD_L4,2021.2.3,MacIntel,59.97361161,,,,,,,,,,,,0.7632,1,,,,,,,,,,,,,,m,1,0.7632,,,,,,,,0.446645508,-0.17828125,0,0,0,,0,89,89,41,1,STREAM,LB,old,m,./images/STREAMLB.png,,,,,,,,,,,,,,,,,,,,,,,,,,,,,,,,,,
,,,,,,,,,,,,,,,,,,32,2022-02-12_13h22.51.671,lexical_decision_task_DD_L4,2021.2.3,MacIntel,59.97361161,,,,,,,,,,,,0.7992,1,,,,,,,,,,,,,,m,1,0.7992,,,,,,,,0.446645508,-0.17828125,0,0,0,,0,90,90,19,1,DONKEY,HB,old,m,./images/DONKEYHB.png,,,,,,,,,,,,,,,,,,,,,,,,,,,,,,,,,,
,,,,,,,,,,,,,,,,,,32,2022-02-12_13h22.51.671,lexical_decision_task_DD_L4,2021.2.3,MacIntel,59.97361161,,,,,,,,,,,,0.5344,1,,,,,,,,,,,,,,m,1,0.5344,,,,,,,,0.446645508,-0.17828125,0,0,0,,0,91,91,77,1,WHEEL,LB,old,m,./images/WHEELLB.png,,,,,,,,,,,,,,,,,,,,,,,,,,,,,,,,,,
,,,,,,,,,,,,,,,,,,32,2022-02-12_13h22.51.671,lexical_decision_task_DD_L4,2021.2.3,MacIntel,59.97361161,,,,,,,,,,,,0.7982,1,,,,,,,,,,,,,,m,1,0.7982,,,,,,,,0.446645508,-0.17828125,0,0,0,,0,92,92,79,1,RULER,HB,old,m,./images/RULERHB.png,,,,,,,,,,,,,,,,,,,,,,,,,,,,,,,,,,
,,,,,,,,,,,,,,,,,,32,2022-02-12_13h22.51.671,lexical_decision_task_DD_L4,2021.2.3,MacIntel,59.97361161,,,,,,,,,,,,0.5506,1,,,,,,,,,,,,,,m,1,0.5506,,,,,,,,0.446645508,-0.17828125,0,0,0,,0,93,93,11,1,MEDAL,LB,old,m,./images/MEDALLB.png,,,,,,,,,,,,,,,,,,,,,,,,,,,,,,,,,,
,,,,,,,,,,,,,,,,,,32,2022-02-12_13h22.51.671,lexical_decision_task_DD_L4,2021.2.3,MacIntel,59.97361161,,,,,,,,,,,,0.6481,1,,,,,,,,,,,,,,z,1,0.6481,,,,,,,,0.446645508,-0.17828125,0,0,0,,0,94,94,96,1,KEAMS,C,old,z,./images/KEAMS.png,,,,,,,,,,,,,,,,,,,,,,,,,,,,,,,,,,
,,,,,,,,,,,,,,,,,,32,2022-02-12_13h22.51.671,lexical_decision_task_DD_L4,2021.2.3,MacIntel,59.97361161,,,,,,,,,,,,0.866,1,,,,,,,,,,,,,,m,1,0.866,,,,,,,,0.446645508,-0.17828125,0,0,0,,0,95,95,46,1,MUMMY,HB,old,m,./images/MUMMYHB.png,,,,,,,,,,,,,,,,,,,,,,,,,,,,,,,,,,
,,,,,,,,,,,,,,,,,,32,2022-02-12_13h22.51.671,lexical_decision_task_DD_L4,2021.2.3,MacIntel,59.97361161,,,,,,,,,,,,0.6012,1,,,,,,,,,,,,,,m,1,0.6012,,,,,,,,0.446645508,-0.17828125,0,0,0,,0,96,96,20,1,GRANNY,LB,old,m,./images/GRANNYLB.png,,,,,,,,,,,,,,,,,,,,,,,,,,,,,,,,,,
,,,,,,,,,,,,,,,,,,32,2022-02-12_13h22.51.671,lexical_decision_task_DD_L4,2021.2.3,MacIntel,59.97361161,,,,,,,,,,,,0.7686,1,,,,,,,,,,,,,,m,1,0.7686,,,,,,,,0.446645508,-0.17828125,0,0,0,,0,97,97,4,1,BOXER,HB,old,m,./images/BOXERHB.png,,,,,,,,,,,,,,,,,,,,,,,,,,,,,,,,,,
,,,,,,,,,,,,,,,,,,32,2022-02-12_13h22.51.671,lexical_decision_task_DD_L4,2021.2.3,MacIntel,59.97361161,,,,,,,,,,,,1.8705,1,,,,,,,,,,,,,,z,1,1.8705,,,,,,,,0.446645508,-0.17828125,0,0,0,,0,98,98,163,1,GAMBA,HB,old,z,./images/GAMBAHB.png,,,,,,,,,,,,,,,,,,,,,,,,,,,,,,,,,,
,,,,,,,,,,,,,,,,,,32,2022-02-12_13h22.51.671,lexical_decision_task_DD_L4,2021.2.3,MacIntel,59.97361161,,,,,,,,,,,,0.6517,1,,,,,,,,,,,,,,m,1,0.6517,,,,,,,,0.446645508,-0.17828125,0,0,0,,0,99,99,71,1,BUBBLE,LB,old,m,./images/BUBBLELB.png,,,,,,,,,,,,,,,,,,,,,,,,,,,,,,,,,,
,,,,,,,,,,,,,,,,,,32,2022-02-12_13h22.51.671,lexical_decision_task_DD_L4,2021.2.3,MacIntel,59.97361161,,,,,,,,,,,,1.0653,1,,,,,,,,,,,,,,m,1,1.0653,,,,,,,,0.446645508,-0.17828125,0,0,0,,0,100,100,69,1,ARROW,C,old,m,./images/ARROW.png,,,,,,,,,,,,,,,,,,,,,,,,,,,,,,,,,,
,,,,,,,,,,,,,,,,,,32,2022-02-12_13h22.51.671,lexical_decision_task_DD_L4,2021.2.3,MacIntel,59.97361161,,,,,,,,,,,,1.0157,1,,,,,,,,,,,,,,z,1,1.0157,,,,,,,,0.446645508,-0.17828125,0,0,0,,0,101,101,156,1,HIXES,C,old,z,./images/HIXES.png,,,,,,,,,,,,,,,,,,,,,,,,,,,,,,,,,,
,,,,,,,,,,,,,,,,,,32,2022-02-12_13h22.51.671,lexical_decision_task_DD_L4,2021.2.3,MacIntel,59.97361161,,,,,,,,,,,,0.553,1,,,,,,,,,,,,,,m,1,0.553,,,,,,,,0.446645508,-0.17828125,0,0,0,,0,102,102,21,1,DANCER,C,old,m,./images/DANCER.png,,,,,,,,,,,,,,,,,,,,,,,,,,,,,,,,,,
,,,,,,,,,,,,,,,,,,32,2022-02-12_13h22.51.671,lexical_decision_task_DD_L4,2021.2.3,MacIntel,59.97361161,,,,,,,,,,,,0.5825,1,,,,,,,,,,,,,,m,1,0.5825,,,,,,,,0.446645508,-0.17828125,0,0,0,,0,103,103,62,1,MAMMAL,LB,old,m,./images/MAMMALLB.png,,,,,,,,,,,,,,,,,,,,,,,,,,,,,,,,,,
,,,,,,,,,,,,,,,,,,32,2022-02-12_13h22.51.671,lexical_decision_task_DD_L4,2021.2.3,MacIntel,59.97361161,,,,,,,,,,,,0.7632,1,,,,,,,,,,,,,,z,1,0.7632,,,,,,,,0.446645508,-0.17828125,0,0,0,,0,104,104,149,1,VEASE,LB,old,z,./images/VEASELB.png,,,,,,,,,,,,,,,,,,,,,,,,,,,,,,,,,,
,,,,,,,,,,,,,,,,,,32,2022-02-12_13h22.51.671,lexical_decision_task_DD_L4,2021.2.3,MacIntel,59.97361161,,,,,,,,,,,,1.386,1,,,,,,,,,,,,,,z,1,1.386,,,,,,,,0.446645508,-0.17828125,0,0,0,,0,105,105,118,1,BAVEL,HB,old,z,./images/BAVELHB.png,,,,,,,,,,,,,,,,,,,,,,,,,,,,,,,,,,
,,,,,,,,,,,,,,,,,,32,2022-02-12_13h22.51.671,lexical_decision_task_DD_L4,2021.2.3,MacIntel,59.97361161,,,,,,,,,,,,1.3206,1,,,,,,,,,,,,,,m,1,1.3206,,,,,,,,0.446645508,-0.17828125,0,0,0,,0,106,106,61,1,ARTIST,HB,old,m,./images/ARTISTHB.png,,,,,,,,,,,,,,,,,,,,,,,,,,,,,,,,,,
,,,,,,,,,,,,,,,,,,32,2022-02-12_13h22.51.671,lexical_decision_task_DD_L4,2021.2.3,MacIntel,59.97361161,,,,,,,,,,,,0.652,1,,,,,,,,,,,,,,m,1,0.652,,,,,,,,0.446645508,-0.17828125,0,0,0,,0,107,107,9,1,DIVER,C,old,m,./images/DIVER.png,,,,,,,,,,,,,,,,,,,,,,,,,,,,,,,,,,
,,,,,,,,,,,,,,,,,,32,2022-02-12_13h22.51.671,lexical_decision_task_DD_L4,2021.2.3,MacIntel,59.97361161,,,,,,,,,,,,0.6919,1,,,,,,,,,,,,,,m,1,0.6919,,,,,,,,0.446645508,-0.17828125,0,0,0,,0,108,108,18,1,PARCEL,C,old,m,./images/PARCEL.png,,,,,,,,,,,,,,,,,,,,,,,,,,,,,,,,,,
,,,,,,,,,,,,,,,,,,32,2022-02-12_13h22.51.671,lexical_decision_task_DD_L4,2021.2.3,MacIntel,59.97361161,,,,,,,,,,,,0.5673,1,,,,,,,,,,,,,,m,1,0.5673,,,,,,,,0.446645508,-0.17828125,0,0,0,,0,109,109,26,1,CLOUD,LB,old,m,./images/CLOUDLB.png,,,,,,,,,,,,,,,,,,,,,,,,,,,,,,,,,,
,,,,,,,,,,,,,,,,,,32,2022-02-12_13h22.51.671,lexical_decision_task_DD_L4,2021.2.3,MacIntel,59.97361161,,,,,,,,,,,,1.3828,1,,,,,,,,,,,,,,z,1,1.3828,,,,,,,,0.446645508,-0.17828125,0,0,0,,0,110,110,121,1,CEERS,HB,old,z,./images/CEERSHB.png,,,,,,,,,,,,,,,,,,,,,,,,,,,,,,,,,,
,,,,,,,,,,,,,,,,,,32,2022-02-12_13h22.51.671,lexical_decision_task_DD_L4,2021.2.3,MacIntel,59.97361161,,,,,,,,,,,,1.2459,1,,,,,,,,,,,,,,z,1,1.2459,,,,,,,,0.446645508,-0.17828125,0,0,0,,0,111,111,88,1,GLUSH,HB,old,z,./images/GLUSHHB.png,,,,,,,,,,,,,,,,,,,,,,,,,,,,,,,,,,
,,,,,,,,,,,,,,,,,,32,2022-02-12_13h22.51.671,lexical_decision_task_DD_L4,2021.2.3,MacIntel,59.97361161,,,,,,,,,,,,2.0632,1,,,,,,,,,,,,,,z,1,2.0632,,,,,,,,0.446645508,-0.17828125,0,0,0,,0,112,112,110,1,CRUNK,LB,old,z,./images/CRUNKLB.png,,,,,,,,,,,,,,,,,,,,,,,,,,,,,,,,,,
,,,,,,,,,,,,,,,,,,32,2022-02-12_13h22.51.671,lexical_decision_task_DD_L4,2021.2.3,MacIntel,59.97361161,,,,,,,,,,,,0.694,1,,,,,,,,,,,,,,m,1,0.694,,,,,,,,0.446645508,-0.17828125,0,0,0,,0,113,113,33,1,SAUNA,C,old,m,./images/SAUNA.png,,,,,,,,,,,,,,,,,,,,,,,,,,,,,,,,,,
,,,,,,,,,,,,,,,,,,32,2022-02-12_13h22.51.671,lexical_decision_task_DD_L4,2021.2.3,MacIntel,59.97361161,,,,,,,,,,,,0.6333,1,,,,,,,,,,,,,,m,1,0.6333,,,,,,,,0.446645508,-0.17828125,0,0,0,,0,114,114,47,1,LAGOON,LB,old,m,./images/LAGOONLB.png,,,,,,,,,,,,,,,,,,,,,,,,,,,,,,,,,,
,,,,,,,,,,,,,,,,,,32,2022-02-12_13h22.51.671,lexical_decision_task_DD_L4,2021.2.3,MacIntel,59.97361161,,,,,,,,,,,,0.845,1,,,,,,,,,,,,,,m,1,0.845,,,,,,,,0.446645508,-0.17828125,0,0,0,,0,115,115,70,1,BANANA,HB,old,m,./images/BANANAHB.png,,,,,,,,,,,,,,,,,,,,,,,,,,,,,,,,,,
,,,,,,,,,,,,,,,,,,32,2022-02-12_13h22.51.671,lexical_decision_task_DD_L4,2021.2.3,MacIntel,59.97361161,,,,,,,,,,,,3.317,1,,,,,,,,,,,,,,z,1,3.317,,,,,,,,0.446645508,-0.17828125,0,0,0,,0,116,116,166,1,SHORY,HB,old,z,./images/SHORYHB.png,,,,,,,,,,,,,,,,,,,,,,,,,,,,,,,,,,
,,,,,,,,,,,,,,,,,,32,2022-02-12_13h22.51.671,lexical_decision_task_DD_L4,2021.2.3,MacIntel,59.97361161,,,,,,,,,,,,0.7292,1,,,,,,,,,,,,,,m,1,0.7292,,,,,,,,0.446645508,-0.17828125,0,0,0,,0,117,117,2,1,STOVE,LB,old,m,./images/STOVELB.png,,,,,,,,,,,,,,,,,,,,,,,,,,,,,,,,,,
,,,,,,,,,,,,,,,,,,32,2022-02-12_13h22.51.671,lexical_decision_task_DD_L4,2021.2.3,MacIntel,59.97361161,,,,,,,,,,,,1.0515,1,,,,,,,,,,,,,,m,1,1.0515,,,,,,,,0.446645508,-0.17828125,0,0,0,,0,118,118,31,1,STEAK,HB,old,m,./images/STEAKHB.png,,,,,,,,,,,,,,,,,,,,,,,,,,,,,,,,,,
,,,,,,,,,,,,,,,,,,32,2022-02-12_13h22.51.671,lexical_decision_task_DD_L4,2021.2.3,MacIntel,59.97361161,,,,,,,,,,,,0.7481,1,,,,,,,,,,,,,,z,1,0.7481,,,,,,,,0.446645508,-0.17828125,0,0,0,,0,119,119,123,1,SEDGE,C,old,z,./images/SEDGE.png,,,,,,,,,,,,,,,,,,,,,,,,,,,,,,,,,,
,,,,,,,,,,,,,,,,,,32,2022-02-12_13h22.51.671,lexical_decision_task_DD_L4,2021.2.3,MacIntel,59.97361161,,,,,,,,,,,,1.2492,1,,,,,,,,,,,,,,z,1,1.2492,,,,,,,,0.446645508,-0.17828125,0,0,0,,0,120,120,148,1,JOMS,HB,old,z,./images/JOMSHB.png,,,,,,,,,,,,,,,,,,,,,,,,,,,,,,,,,,
,,,,,,,,,,,,,,,,,,32,2022-02-12_13h22.51.671,lexical_decision_task_DD_L4,2021.2.3,MacIntel,59.97361161,,,,,,,,,,,,0.7804,1,,,,,,,,,,,,,,z,1,0.7804,,,,,,,,0.446645508,-0.17828125,0,0,0,,0,121,121,153,1,CLUPS,C,old,z,./images/CLUPS.png,,,,,,,,,,,,,,,,,,,,,,,,,,,,,,,,,,
,,,,,,,,,,,,,,,,,,32,2022-02-12_13h22.51.671,lexical_decision_task_DD_L4,2021.2.3,MacIntel,59.97361161,,,,,,,,,,,,1.2177,1,,,,,,,,,,,,,,m,1,1.2177,,,,,,,,0.446645508,-0.17828125,0,0,0,,0,122,122,52,1,DESERT,HB,old,m,./images/DESERTHB.png,,,,,,,,,,,,,,,,,,,,,,,,,,,,,,,,,,
,,,,,,,,,,,,,,,,,,32,2022-02-12_13h22.51.671,lexical_decision_task_DD_L4,2021.2.3,MacIntel,59.97361161,,,,,,,,,,,,1.346,1,,,,,,,,,,,,,,z,1,1.346,,,,,,,,0.446645508,-0.17828125,0,0,0,,0,123,123,85,1,CHULK,HB,old,z,./images/CHULKHB.png,,,,,,,,,,,,,,,,,,,,,,,,,,,,,,,,,,
,,,,,,,,,,,,,,,,,,32,2022-02-12_13h22.51.671,lexical_decision_task_DD_L4,2021.2.3,MacIntel,59.97361161,,,,,,,,,,,,0.8488,1,,,,,,,,,,,,,,z,1,0.8488,,,,,,,,0.446645508,-0.17828125,0,0,0,,0,124,124,158,1,EGECT,LB,old,z,./images/EGECTLB.png,,,,,,,,,,,,,,,,,,,,,,,,,,,,,,,,,,
,,,,,,,,,,,,,,,,,,32,2022-02-12_13h22.51.671,lexical_decision_task_DD_L4,2021.2.3,MacIntel,59.97361161,,,,,,,,,,,,0.9707,1,,,,,,,,,,,,,,m,1,0.9707,,,,,,,,0.446645508,-0.17828125,0,0,0,space,0,125,125,10,1,GARDEN,HB,old,m,./images/GARDENHB.png,18.3249,,,,,,,,,,,,,,,,,,,,,,,,,,,,,,,,,
,,,,,,,,,,,,,,,,,,32,2022-02-12_13h22.51.671,lexical_decision_task_DD_L4,2021.2.3,MacIntel,59.97361161,,,,,,,,,,,,0.6994,1,,,,,,,,,,,,,,z,1,0.6994,,,,,,,,0.446645508,-0.17828125,0,0,0,,0,126,126,164,1,SGREW,LB,old,z,./images/SGREWLB.png,,,,,,,,,,,,,,,,,,,,,,,,,,,,,,,,,,
,,,,,,,,,,,,,,,,,,32,2022-02-12_13h22.51.671,lexical_decision_task_DD_L4,2021.2.3,MacIntel,59.97361161,,,,,,,,,,,,0.6677,1,,,,,,,,,,,,,,z,1,0.6677,,,,,,,,0.446645508,-0.17828125,0,0,0,,0,127,127,129,1,PRANS,C,old,z,./images/PRANS.png,,,,,,,,,,,,,,,,,,,,,,,,,,,,,,,,,,
,,,,,,,,,,,,,,,,,,32,2022-02-12_13h22.51.671,lexical_decision_task_DD_L4,2021.2.3,MacIntel,59.97361161,,,,,,,,,,,,0.8327,1,,,,,,,,,,,,,,m,1,0.8327,,,,,,,,0.446645508,-0.17828125,0,0,0,,0,128,128,73,1,GLOVE,HB,old,m,./images/GLOVEHB.png,,,,,,,,,,,,,,,,,,,,,,,,,,,,,,,,,,
,,,,,,,,,,,,,,,,,,32,2022-02-12_13h22.51.671,lexical_decision_task_DD_L4,2021.2.3,MacIntel,59.97361161,,,,,,,,,,,,0.7324,1,,,,,,,,,,,,,,m,1,0.7324,,,,,,,,0.446645508,-0.17828125,0,0,0,,0,129,129,66,1,STATUE,C,old,m,./images/STATUE.png,,,,,,,,,,,,,,,,,,,,,,,,,,,,,,,,,,
,,,,,,,,,,,,,,,,,,32,2022-02-12_13h22.51.671,lexical_decision_task_DD_L4,2021.2.3,MacIntel,59.97361161,,,,,,,,,,,,0.7653,1,,,,,,,,,,,,,,z,1,0.7653,,,,,,,,0.446645508,-0.17828125,0,0,0,,0,130,130,119,1,PAFER,LB,old,z,./images/PAFERLB.png,,,,,,,,,,,,,,,,,,,,,,,,,,,,,,,,,,
,,,,,,,,,,,,,,,,,,32,2022-02-12_13h22.51.671,lexical_decision_task_DD_L4,2021.2.3,MacIntel,59.97361161,,,,,,,,,,,,1.5001,1,,,,,,,,,,,,,,z,1,1.5001,,,,,,,,0.446645508,-0.17828125,0,0,0,,0,131,131,100,1,DRIBS,HB,old,z,./images/DRIBSHB.png,,,,,,,,,,,,,,,,,,,,,,,,,,,,,,,,,,
,,,,,,,,,,,,,,,,,,32,2022-02-12_13h22.51.671,lexical_decision_task_DD_L4,2021.2.3,MacIntel,59.97361161,,,,,,,,,,,,0.7119,1,,,,,,,,,,,,,,m,1,0.7119,,,,,,,,0.446645508,-0.17828125,0,0,0,,0,132,132,29,1,PISTOL,LB,old,m,./images/PISTOLLB.png,,,,,,,,,,,,,,,,,,,,,,,,,,,,,,,,,,
,,,,,,,,,,,,,,,,,,32,2022-02-12_13h22.51.671,lexical_decision_task_DD_L4,2021.2.3,MacIntel,59.97361161,,,,,,,,,,,,0.5482,1,,,,,,,,,,,,,,m,1,0.5482,,,,,,,,0.446645508,-0.17828125,0,0,0,,0,133,133,45,1,MONKEY,C,old,m,./images/MONKEY.png,,,,,,,,,,,,,,,,,,,,,,,,,,,,,,,,,,
,,,,,,,,,,,,,,,,,,32,2022-02-12_13h22.51.671,lexical_decision_task_DD_L4,2021.2.3,MacIntel,59.97361161,,,,,,,,,,,,1.3466,1,,,,,,,,,,,,,,m,1,1.3466,,,,,,,,0.446645508,-0.17828125,0,0,0,,0,134,134,82,1,PEBBLE,HB,old,m,./images/PEBBLEHB.png,,,,,,,,,,,,,,,,,,,,,,,,,,,,,,,,,,
,,,,,,,,,,,,,,,,,,32,2022-02-12_13h22.51.671,lexical_decision_task_DD_L4,2021.2.3,MacIntel,59.97361161,,,,,,,,,,,,0.7656,1,,,,,,,,,,,,,,z,1,0.7656,,,,,,,,0.446645508,-0.17828125,0,0,0,,0,135,135,86,1,AIFED,LB,old,z,./images/AIFEDLB.png,,,,,,,,,,,,,,,,,,,,,,,,,,,,,,,,,,
,,,,,,,,,,,,,,,,,,32,2022-02-12_13h22.51.671,lexical_decision_task_DD_L4,2021.2.3,MacIntel,59.97361161,,,,,,,,,,,,1.0839,1,,,,,,,,,,,,,,z,1,1.0839,,,,,,,,0.446645508,-0.17828125,0,0,0,,0,136,136,103,1,FLORT,HB,old,z,./images/FLORTHB.png,,,,,,,,,,,,,,,,,,,,,,,,,,,,,,,,,,
,,,,,,,,,,,,,,,,,,32,2022-02-12_13h22.51.671,lexical_decision_task_DD_L4,2021.2.3,MacIntel,59.97361161,,,,,,,,,,,,0.7847,1,,,,,,,,,,,,,,z,1,0.7847,,,,,,,,0.446645508,-0.17828125,0,0,0,,0,137,137,99,1,BACKY,C,old,z,./images/BACKY.png,,,,,,,,,,,,,,,,,,,,,,,,,,,,,,,,,,
,,,,,,,,,,,,,,,,,,32,2022-02-12_13h22.51.671,lexical_decision_task_DD_L4,2021.2.3,MacIntel,59.97361161,,,,,,,,,,,,0.9012,1,,,,,,,,,,,,,,z,1,0.9012,,,,,,,,0.446645508,-0.17828125,0,0,0,,0,138,138,93,1,SMONE,C,old,z,./images/SMONE.png,,,,,,,,,,,,,,,,,,,,,,,,,,,,,,,,,,
,,,,,,,,,,,,,,,,,,32,2022-02-12_13h22.51.671,lexical_decision_task_DD_L4,2021.2.3,MacIntel,59.97361161,,,,,,,,,,,,0.6004,1,,,,,,,,,,,,,,m,1,0.6004,,,,,,,,0.446645508,-0.17828125,0,0,0,,0,139,139,51,1,SAUCE,C,old,m,./images/SAUCE.png,,,,,,,,,,,,,,,,,,,,,,,,,,,,,,,,,,
,,,,,,,,,,,,,,,,,,32,2022-02-12_13h22.51.671,lexical_decision_task_DD_L4,2021.2.3,MacIntel,59.97361161,,,,,,,,,,,,1.2337,1,,,,,,,,,,,,,,z,1,1.2337,,,,,,,,0.446645508,-0.17828125,0,0,0,,0,140,140,112,1,MYING,HB,old,z,./images/MYINGHB.png,,,,,,,,,,,,,,,,,,,,,,,,,,,,,,,,,,
,,,,,,,,,,,,,,,,,,32,2022-02-12_13h22.51.671,lexical_decision_task_DD_L4,2021.2.3,MacIntel,59.97361161,,,,,,,,,,,,0.7631,1,,,,,,,,,,,,,,z,1,0.7631,,,,,,,,0.446645508,-0.17828125,0,0,0,,0,141,141,125,1,MOOKY,LB,old,z,./images/MOOKYLB.png,,,,,,,,,,,,,,,,,,,,,,,,,,,,,,,,,,
,,,,,,,,,,,,,,,,,,32,2022-02-12_13h22.51.671,lexical_decision_task_DD_L4,2021.2.3,MacIntel,59.97361161,,,,,,,,,,,,0.7436,1,,,,,,,,,,,,,,m,1,0.7436,,,,,,,,0.446645508,-0.17828125,0,0,0,,0,142,142,0,1,WALNUT,C,old,m,./images/WALNUT.png,,,,,,,,,,,,,,,,,,,,,,,,,,,,,,,,,,
,,,,,,,,,,,,,,,,,,32,2022-02-12_13h22.51.671,lexical_decision_task_DD_L4,2021.2.3,MacIntel,59.97361161,,,,,,,,,,,,2.2501,1,,,,,,,,,,,,,,m,1,2.2501,,,,,,,,0.446645508,-0.17828125,0,0,0,,0,143,143,58,1,CANOE,HB,old,m,./images/CANOEHB.png,,,,,,,,,,,,,,,,,,,,,,,,,,,,,,,,,,
,,,,,,,,,,,,,,,,,,32,2022-02-12_13h22.51.671,lexical_decision_task_DD_L4,2021.2.3,MacIntel,59.97361161,,,,,,,,,,,,0.9647,1,,,,,,,,,,,,,,m,1,0.9647,,,,,,,,0.446645508,-0.17828125,0,0,0,,0,144,144,57,1,FERRY,C,old,m,./images/FERRY.png,,,,,,,,,,,,,,,,,,,,,,,,,,,,,,,,,,
,,,,,,,,,,,,,,,,,,32,2022-02-12_13h22.51.671,lexical_decision_task_DD_L4,2021.2.3,MacIntel,59.97361161,,,,,,,,,,,,0.7013,1,,,,,,,,,,,,,,z,1,0.7013,,,,,,,,0.446645508,-0.17828125,0,0,0,,0,145,145,155,1,CANGY,LB,old,z,./images/CANGYLB.png,,,,,,,,,,,,,,,,,,,,,,,,,,,,,,,,,,
,,,,,,,,,,,,,,,,,,32,2022-02-12_13h22.51.671,lexical_decision_task_DD_L4,2021.2.3,MacIntel,59.97361161,,,,,,,,,,,,0.7504,1,,,,,,,,,,,,,,m,1,0.7504,,,,,,,,0.446645508,-0.17828125,0,0,0,,0,146,146,3,1,CRATER,C,old,m,./images/CRATER.png,,,,,,,,,,,,,,,,,,,,,,,,,,,,,,,,,,
,,,,,,,,,,,,,,,,,,32,2022-02-12_13h22.51.671,lexical_decision_task_DD_L4,2021.2.3,MacIntel,59.97361161,,,,,,,,,,,,2.2676,1,,,,,,,,,,,,,,z,1,2.2676,,,,,,,,0.446645508,-0.17828125,0,0,0,,0,147,147,91,1,SHENS,HB,old,z,./images/SHENSHB.png,,,,,,,,,,,,,,,,,,,,,,,,,,,,,,,,,,
,,,,,,,,,,,,,,,,,,32,2022-02-12_13h22.51.671,lexical_decision_task_DD_L4,2021.2.3,MacIntel,59.97361161,,,,,,,,,,,,2.3003,1,,,,,,,,,,,,,,m,1,2.3003,,,,,,,,0.446645508,-0.17828125,0,0,0,,0,148,148,7,1,WAGON,HB,old,m,./images/WAGONHB.png,,,,,,,,,,,,,,,,,,,,,,,,,,,,,,,,,,
,,,,,,,,,,,,,,,,,,32,2022-02-12_13h22.51.671,lexical_decision_task_DD_L4,2021.2.3,MacIntel,59.97361161,,,,,,,,,,,,0.6287,1,,,,,,,,,,,,,,m,1,0.6287,,,,,,,,0.446645508,-0.17828125,0,0,0,,0,149,149,53,1,POSTER,LB,old,m,./images/POSTERLB.png,,,,,,,,,,,,,,,,,,,,,,,,,,,,,,,,,,
,,,,,,,,,,,,,,,,,,32,2022-02-12_13h22.51.671,lexical_decision_task_DD_L4,2021.2.3,MacIntel,59.97361161,,,,,,,,,,,,0.5952,1,,,,,,,,,,,,,,m,1,0.5952,,,,,,,,0.446645508,-0.17828125,0,0,0,,0,150,150,80,1,PLANET,LB,old,m,./images/PLANETLB.png,,,,,,,,,,,,,,,,,,,,,,,,,,,,,,,,,,
,,,,,,,,,,,,,,,,,,32,2022-02-12_13h22.51.671,lexical_decision_task_DD_L4,2021.2.3,MacIntel,59.97361161,,,,,,,,,,,,2.9011,1,,,,,,,,,,,,,,z,1,2.9011,,,,,,,,0.446645508,-0.17828125,0,0,0,,0,151,151,97,1,CHIDS,HB,old,z,./images/CHIDSHB.png,,,,,,,,,,,,,,,,,,,,,,,,,,,,,,,,,,
,,,,,,,,,,,,,,,,,,32,2022-02-12_13h22.51.671,lexical_decision_task_DD_L4,2021.2.3,MacIntel,59.97361161,,,,,,,,,,,,0.4971,0,,,,,,,,,,,,,,m,0,0.4971,,,,,,,,0.446645508,-0.17828125,0,0,0,,0,152,152,159,1,CUDDY,C,old,z,./images/CUDDY.png,,,,,,,,,,,,,,,,,,,,,,,,,,,,,,,,,,
,,,,,,,,,,,,,,,,,,32,2022-02-12_13h22.51.671,lexical_decision_task_DD_L4,2021.2.3,MacIntel,59.97361161,,,,,,,,,,,,0.8163,1,,,,,,,,,,,,,,z,1,0.8163,,,,,,,,0.446645508,-0.17828125,0,0,0,,0,153,153,92,1,PAIMS,LB,old,z,./images/PAIMSLB.png,,,,,,,,,,,,,,,,,,,,,,,,,,,,,,,,,,
,,,,,,,,,,,,,,,,,,32,2022-02-12_13h22.51.671,lexical_decision_task_DD_L4,2021.2.3,MacIntel,59.97361161,,,,,,,,,,,,0.7004,1,,,,,,,,,,,,,,z,1,0.7004,,,,,,,,0.446645508,-0.17828125,0,0,0,,0,154,154,140,1,DOVET,LB,old,z,./images/DOVETLB.png,,,,,,,,,,,,,,,,,,,,,,,,,,,,,,,,,,
,,,,,,,,,,,,,,,,,,32,2022-02-12_13h22.51.671,lexical_decision_task_DD_L4,2021.2.3,MacIntel,59.97361161,,,,,,,,,,,,0.6442,1,,,,,,,,,,,,,,m,1,0.6442,,,,,,,,0.446645508,-0.17828125,0,0,0,,0,155,155,63,1,BAKER,C,old,m,./images/BAKER.png,,,,,,,,,,,,,,,,,,,,,,,,,,,,,,,,,,
,,,,,,,,,,,,,,,,,,32,2022-02-12_13h22.51.671,lexical_decision_task_DD_L4,2021.2.3,MacIntel,59.97361161,,,,,,,,,,,,0.6769,1,,,,,,,,,,,,,,m,1,0.6769,,,,,,,,0.446645508,-0.17828125,0,0,0,,0,156,156,48,1,SHIELD,C,old,m,./images/SHIELD.png,,,,,,,,,,,,,,,,,,,,,,,,,,,,,,,,,,
,,,,,,,,,,,,,,,,,,32,2022-02-12_13h22.51.671,lexical_decision_task_DD_L4,2021.2.3,MacIntel,59.97361161,,,,,,,,,,,,0.7503,1,,,,,,,,,,,,,,z,1,0.7503,,,,,,,,0.446645508,-0.17828125,0,0,0,,0,157,157,137,1,JOOST,LB,old,z,./images/JOOSTLB.png,,,,,,,,,,,,,,,,,,,,,,,,,,,,,,,,,,
,,,,,,,,,,,,,,,,,,32,2022-02-12_13h22.51.671,lexical_decision_task_DD_L4,2021.2.3,MacIntel,59.97361161,,,,,,,,,,,,1.7865,1,,,,,,,,,,,,,,z,1,1.7865,,,,,,,,0.446645508,-0.17828125,0,0,0,,0,158,158,139,1,BLEAR,HB,old,z,./images/BLEARHB.png,,,,,,,,,,,,,,,,,,,,,,,,,,,,,,,,,,
,,,,,,,,,,,,,,,,,,32,2022-02-12_13h22.51.671,lexical_decision_task_DD_L4,2021.2.3,MacIntel,59.97361161,,,,,,,,,,,,0.6604,1,,,,,,,,,,,,,,m,1,0.6604,,,,,,,,0.446645508,-0.17828125,0,0,0,,0,159,159,15,1,COLLAR,C,old,m,./images/COLLAR.png,,,,,,,,,,,,,,,,,,,,,,,,,,,,,,,,,,
,,,,,,,,,,,,,,,,,,32,2022-02-12_13h22.51.671,lexical_decision_task_DD_L4,2021.2.3,MacIntel,59.97361161,,,,,,,,,,,,0.7479,1,,,,,,,,,,,,,,z,1,0.7479,,,,,,,,0.446645508,-0.17828125,0,0,0,,0,160,160,135,1,JOODY,C,old,z,./images/JOODY.png,,,,,,,,,,,,,,,,,,,,,,,,,,,,,,,,,,
,,,,,,,,,,,,,,,,,,32,2022-02-12_13h22.51.671,lexical_decision_task_DD_L4,2021.2.3,MacIntel,59.97361161,,,,,,,,,,,,0.6477,1,,,,,,,,,,,,,,z,1,0.6477,,,,,,,,0.446645508,-0.17828125,0,0,0,,0,161,161,89,1,DRIEK,LB,old,z,./images/DRIEKLB.png,,,,,,,,,,,,,,,,,,,,,,,,,,,,,,,,,,
,,,,,,,,,,,,,,,,,,32,2022-02-12_13h22.51.671,lexical_decision_task_DD_L4,2021.2.3,MacIntel,59.97361161,,,,,,,,,,,,0.6325,1,,,,,,,,,,,,,,z,1,0.6325,,,,,,,,0.446645508,-0.17828125,0,0,0,,0,162,162,108,1,GRUET,C,old,z,./images/GRUET.png,,,,,,,,,,,,,,,,,,,,,,,,,,,,,,,,,,
,,,,,,,,,,,,,,,,,,32,2022-02-12_13h22.51.671,lexical_decision_task_DD_L4,2021.2.3,MacIntel,59.97361161,,,,,,,,,,,,0.6626,1,,,,,,,,,,,,,,m,1,0.6626,,,,,,,,0.446645508,-0.17828125,0,0,0,,0,163,163,6,1,STAIN,C,old,m,./images/STAIN.png,,,,,,,,,,,,,,,,,,,,,,,,,,,,,,,,,,
,,,,,,,,,,,,,,,,,,32,2022-02-12_13h22.51.671,lexical_decision_task_DD_L4,2021.2.3,MacIntel,59.97361161,,,,,,,,,,,,0.7684,1,,,,,,,,,,,,,,z,1,0.7684,,,,,,,,0.446645508,-0.17828125,0,0,0,,0,164,164,84,1,HAXES,C,old,z,./images/HAXES.png,,,,,,,,,,,,,,,,,,,,,,,,,,,,,,,,,,
,,,,,,,,,,,,,,,,,,32,2022-02-12_13h22.51.671,lexical_decision_task_DD_L4,2021.2.3,MacIntel,59.97361161,,,,,,,,,,,,0.7117,1,,,,,,,,,,,,,,m,1,0.7117,,,,,,,,0.446645508,-0.17828125,0,0,0,,0,165,165,74,1,JUMPER,LB,old,m,./images/JUMPERLB.png,,,,,,,,,,,,,,,,,,,,,,,,,,,,,,,,,,
,,,,,,,,,,,,,,,,,,32,2022-02-12_13h22.51.671,lexical_decision_task_DD_L4,2021.2.3,MacIntel,59.97361161,,,,,,,,,,,,0.616,1,,,,,,,,,,,,,,z,1,0.616,,,,,,,,0.446645508,-0.17828125,0,0,0,,0,166,166,150,1,NOOLS,C,old,z,./images/NOOLS.png,,,,,,,,,,,,,,,,,,,,,,,,,,,,,,,,,,
,,,,,,,,,,,,,,,,,,32,2022-02-12_13h22.51.671,lexical_decision_task_DD_L4,2021.2.3,MacIntel,59.97361161,,,,,,,,,,,,0.715,1,,,,,,,,,,,,,,m,1,0.715,,,,,,,,0.446645508,-0.17828125,0,0,0,,0,167,167,78,1,BROOM,C,old,m,./images/BROOM.png,,,,,,,,,,,,,,,,,,,,,,,,,,,,,,,,,,
,,,,,,,,,,,,,,,,,,32,2022-02-12_13h22.51.671,lexical_decision_task_DD_L4,2021.2.3,MacIntel,59.97361161,,,,,,,,,,,,,,,,,,,,,,,,,,,,,,,,,,,,,,,,,,,,,,,,,How likely will it be that you will recognize the words presented slighly blurred on a scale of 0 (not likely) to 100 (most likely)?,,,,,-0.017724609,-0.416728516,1,0,0,jol_adv,6,18.5863,0,0,0,1,1,,,,,,,,,,,,,,,,,,,,
,,,,,,,,,,,,,,,,,,32,2022-02-12_13h22.51.671,lexical_decision_task_DD_L4,2021.2.3,MacIntel,59.97361161,,,,,,,,,,,,,,,,,,,,,,,,,,,,,,,,,,,,,,,,,,,,,,,,,How likely will it be that you will recognize the words presented very blurred on a scale of 0 (not likely) to 100 (most likely)?,,,,,,,,,,,3,5.976,0,1,1,2,1,,,,,,,,,,,,,,,,,,,,
,,,,,,,,,,,,,,,,,,32,2022-02-12_13h22.51.671,lexical_decision_task_DD_L4,2021.2.3,MacIntel,59.97361161,,,,,,,,,,,,,,,,,,,,,,,,,,,,,,,,,,,,,,,,,,,,,,,,,How likely will it be that you will recognize the words presented clearly on a scale of 0 (not likely) to 100 (most likely)?,,,,,,,,,,,6,3.5738,0,2,2,0,1,,,,,,,,,,,,,,,,,,,,
,0.011489258,-0.384501953,1,0,0,instr_done_button,,,,,,1,test,"In the next phase you will be presented with the words from the the first phase. Your job is to decide whether you remember seeing the word or not. If you remember seeing the word press ""old"" or type ""m"". If you do not remember seeing the word press ""new"" or type ""z"". Please press the space bar or click on continue to begin. ",,,,32,2022-02-12_13h22.51.671,lexical_decision_task_DD_L4,2021.2.3,MacIntel,59.97361161,,,,,,,,,,,,,,,,,,,,,,,,,,,,,,,,,,,,,,,,,,,,,,,,,,,,,,,,,,,,,,,,,,,0,0,0,0,1,,,,,,,,,,,,,,,
space,0.769321289,-0.124384766,0,0,0,,,,,,,1,test,"In the next phase you will be presented with the words from the the first phase. Your job is to decide whether you remember seeing the word or not. If you remember seeing the word press ""old"" or type ""m"". If you do not remember seeing the word press ""new"" or type ""z"". Please press the space bar or click on continue to begin. ",,,,32,2022-02-12_13h22.51.671,lexical_decision_task_DD_L4,2021.2.3,MacIntel,59.97361161,3.295,,,,,,,,,,,,,,,,,,,,,,,,,,,,,,,,,,,,,,,,,,,,,,,,,,,,,,,,,,,,,,,,,,1,0,1,0,1,,,,,,,,,,,,,,,
space,-0.034545898,-0.377163086,0,0,0,,,,,,,1,test,"In the next phase you will be presented with the words from the the first phase. Your job is to decide whether you remember seeing the word or not. If you remember seeing the word press ""old"" or type ""m"". If you do not remember seeing the word press ""new"" or type ""z"". Please press the space bar or click on continue to begin. ",,,,32,2022-02-12_13h22.51.671,lexical_decision_task_DD_L4,2021.2.3,MacIntel,59.97361161,20.2437,,,,,,,,,,,,,,,,,,,,,,,,,,,,,,,,,,,,,,,,,,,,,,,,,,,,,,,,,,,,,,,,,,2,0,2,0,1,,,,,,,,,,,,,,,
,-0.065864258,-0.358491211,1,0,0,instr_done_button,,,,,,1,test,"In the next phase you will be presented with the words from the the first phase. Your job is to decide whether you remember seeing the word or not. If you remember seeing the word press ""old"" or type ""m"". If you do not remember seeing the word press ""new"" or type ""z"". Please press the space bar or click on continue to begin. ",,,,32,2022-02-12_13h22.51.671,lexical_decision_task_DD_L4,2021.2.3,MacIntel,59.97361161,,,,,,,,,,,,,,,,,,,,,,,,,,,,,,,,,,,,,,,,,,,,,,,,,,,,,,,,,,,,,,,,,,,3,0,3,0,1,,,,,,,,,,,,,,,
space,0.439858398,-0.271210938,0,0,0,,,,,,,1,test,"In the next phase you will be presented with the words from the the first phase. Your job is to decide whether you remember seeing the word or not. If you remember seeing the word press ""old"" or type ""m"". If you do not remember seeing the word press ""new"" or type ""z"". Please press the space bar or click on continue to begin. ",,,,32,2022-02-12_13h22.51.671,lexical_decision_task_DD_L4,2021.2.3,MacIntel,59.97361161,2.8213,,,,,,,,,,,,,,,,,,,,,,,,,,,,,,,,,,,,,,,,,,,,,,,,,,,,,,,,,,,,,,,,,,4,0,4,0,1,,,,,,,,,,,,,,,
,,,,,,,,,,,,,,,,,,32,2022-02-12_13h22.51.671,lexical_decision_task_DD_L4,2021.2.3,MacIntel,59.97361161,,,,,,,,,,,,2.6926,1,,,,,,,,,,,,,,,,,,,,,,,,0.439858398,-0.271210938,0,0,0,,,,,,,BUNNY,HB,m,y,./images/BUNNYHB.png,,,,,,,,,,,,,,,,,,,,m,1,2.6926,,,,,,,,0,0,0,13,1
,,,,,,,,,,,,,,,,,,32,2022-02-12_13h22.51.671,lexical_decision_task_DD_L4,2021.2.3,MacIntel,59.97361161,,,,,,,,,,,,0.7451,1,,,,,,,,,,,,,,,,,,,,,,,,0.439858398,-0.271210938,0,0,0,,,,,,,COLLAR,C,m,y,./images/COLLAR.png,,,,,,,,,,,,,,,,,,,,m,1,0.7451,,,,,,,,0,1,1,15,1
,,,,,,,,,,,,,,,,,,32,2022-02-12_13h22.51.671,lexical_decision_task_DD_L4,2021.2.3,MacIntel,59.97361161,,,,,,,,,,,,0.6482,1,,,,,,,,,,,,,,,,,,,,,,,,0.439858398,-0.271210938,0,0,0,,,,,,,MAMMAL,LB,m,y,./images/MAMMALLB.png,,,,,,,,,,,,,,,,,,,,m,1,0.6482,,,,,,,,0,2,2,62,1
,,,,,,,,,,,,,,,,,,32,2022-02-12_13h22.51.671,lexical_decision_task_DD_L4,2021.2.3,MacIntel,59.97361161,,,,,,,,,,,,0.7821,1,,,,,,,,,,,,,,,,,,,,,,,,0.439858398,-0.271210938,0,0,0,,,,,,,PEARL,HB,z,y,./images/PEARLHB.png,,,,,,,,,,,,,,,,,,,,z,1,0.7821,,,,,,,,0,3,3,130,1
,,,,,,,,,,,,,,,,,,32,2022-02-12_13h22.51.671,lexical_decision_task_DD_L4,2021.2.3,MacIntel,59.97361161,,,,,,,,,,,,1.1471,1,,,,,,,,,,,,,,,,,,,,,,,,0.439858398,-0.271210938,0,0,0,,,,,,,GLOVE,HB,m,y,./images/GLOVEHB.png,,,,,,,,,,,,,,,,,,,,m,1,1.1471,,,,,,,,0,4,4,73,1
,,,,,,,,,,,,,,,,,,32,2022-02-12_13h22.51.671,lexical_decision_task_DD_L4,2021.2.3,MacIntel,59.97361161,,,,,,,,,,,,0.9153,1,,,,,,,,,,,,,,,,,,,,,,,,0.439858398,-0.271210938,0,0,0,,,,,,,SLOPE,C,m,y,./images/SLOPE.png,,,,,,,,,,,,,,,,,,,,m,1,0.9153,,,,,,,,0,5,5,30,1
,,,,,,,,,,,,,,,,,,32,2022-02-12_13h22.51.671,lexical_decision_task_DD_L4,2021.2.3,MacIntel,59.97361161,,,,,,,,,,,,1.3513,1,,,,,,,,,,,,,,,,,,,,,,,,0.710620117,-0.206811523,0,0,0,,,,,,,MOTOR,HB,z,y,./images/MOTORHB.png,,,,,,,,,,,,,,,,,,,,z,1,1.3513,,,,,,,,0,6,6,97,1
,,,,,,,,,,,,,,,,,,32,2022-02-12_13h22.51.671,lexical_decision_task_DD_L4,2021.2.3,MacIntel,59.97361161,,,,,,,,,,,,0.6307,1,,,,,,,,,,,,,,,,,,,,,,,,0.710620117,-0.206811523,0,0,0,,,,,,,CHERRY,C,m,y,./images/CHERRY.png,,,,,,,,,,,,,,,,,,,,m,1,0.6307,,,,,,,,0,7,7,54,1
,,,,,,,,,,,,,,,,,,32,2022-02-12_13h22.51.671,lexical_decision_task_DD_L4,2021.2.3,MacIntel,59.97361161,,,,,,,,,,,,0.5779,0,,,,,,,,,,,,,,,,,,,,,,,,0.710620117,-0.206811523,0,0,0,,,,,,,MIRROR,C,z,y,./images/MIRROR.png,,,,,,,,,,,,,,,,,,,,m,0,0.5779,,,,,,,,0,8,8,147,1
,,,,,,,,,,,,,,,,,,32,2022-02-12_13h22.51.671,lexical_decision_task_DD_L4,2021.2.3,MacIntel,59.97361161,,,,,,,,,,,,0.7685,1,,,,,,,,,,,,,,,,,,,,,,,,0.710620117,-0.206811523,0,0,0,,,,,,,PASTA,LB,z,y,./images/PASTALB.png,,,,,,,,,,,,,,,,,,,,z,1,0.7685,,,,,,,,0,9,9,89,1
,,,,,,,,,,,,,,,,,,32,2022-02-12_13h22.51.671,lexical_decision_task_DD_L4,2021.2.3,MacIntel,59.97361161,,,,,,,,,,,,1.116,1,,,,,,,,,,,,,,,,,,,,,,,,0.710620117,-0.206811523,0,0,0,,,,,,,JUMPER,LB,m,y,./images/JUMPERLB.png,,,,,,,,,,,,,,,,,,,,m,1,1.116,,,,,,,,0,10,10,74,1
,,,,,,,,,,,,,,,,,,32,2022-02-12_13h22.51.671,lexical_decision_task_DD_L4,2021.2.3,MacIntel,59.97361161,,,,,,,,,,,,0.8834,1,,,,,,,,,,,,,,,,,,,,,,,,0.710620117,-0.206811523,0,0,0,,,,,,,THROAT,C,z,y,./images/THROAT.png,,,,,,,,,,,,,,,,,,,,z,1,0.8834,,,,,,,,0,11,11,120,1
,,,,,,,,,,,,,,,,,,32,2022-02-12_13h22.51.671,lexical_decision_task_DD_L4,2021.2.3,MacIntel,59.97361161,,,,,,,,,,,,1.016,0,,,,,,,,,,,,,,,,,,,,,,,,0.710620117,-0.206811523,0,0,0,,,,,,,PLANK,HB,z,y,./images/PLANKHB.png,,,,,,,,,,,,,,,,,,,,m,0,1.016,,,,,,,,0,12,12,85,1
,,,,,,,,,,,,,,,,,,32,2022-02-12_13h22.51.671,lexical_decision_task_DD_L4,2021.2.3,MacIntel,59.97361161,,,,,,,,,,,,1.0146,1,,,,,,,,,,,,,,,,,,,,,,,,0.710620117,-0.206811523,0,0,0,,,,,,,DONKEY,HB,m,y,./images/DONKEYHB.png,,,,,,,,,,,,,,,,,,,,m,1,1.0146,,,,,,,,0,13,13,19,1
,,,,,,,,,,,,,,,,,,32,2022-02-12_13h22.51.671,lexical_decision_task_DD_L4,2021.2.3,MacIntel,59.97361161,,,,,,,,,,,,0.7827,0,,,,,,,,,,,,,,,,,,,,,,,,0.710620117,-0.206811523,0,0,0,,,,,,,PAINT,HB,z,y,./images/PAINTHB.png,,,,,,,,,,,,,,,,,,,,m,0,0.7827,,,,,,,,0,14,14,91,1
,,,,,,,,,,,,,,,,,,32,2022-02-12_13h22.51.671,lexical_decision_task_DD_L4,2021.2.3,MacIntel,59.97361161,,,,,,,,,,,,0.7622,1,,,,,,,,,,,,,,,,,,,,,,,,0.710620117,-0.206811523,0,0,0,,,,,,,MUMMY,HB,m,y,./images/MUMMYHB.png,,,,,,,,,,,,,,,,,,,,m,1,0.7622,,,,,,,,0,15,15,46,1
,,,,,,,,,,,,,,,,,,32,2022-02-12_13h22.51.671,lexical_decision_task_DD_L4,2021.2.3,MacIntel,59.97361161,,,,,,,,,,,,0.7513,1,,,,,,,,,,,,,,,,,,,,,,,,0.710620117,-0.206811523,0,0,0,,,,,,,CANOE,HB,m,y,./images/CANOEHB.png,,,,,,,,,,,,,,,,,,,,m,1,0.7513,,,,,,,,0,16,16,58,1
,,,,,,,,,,,,,,,,,,32,2022-02-12_13h22.51.671,lexical_decision_task_DD_L4,2021.2.3,MacIntel,59.97361161,,,,,,,,,,,,0.7279,1,,,,,,,,,,,,,,,,,,,,,,,,0.710620117,-0.206811523,0,0,0,,,,,,,POSTER,LB,m,y,./images/POSTERLB.png,,,,,,,,,,,,,,,,,,,,m,1,0.7279,,,,,,,,0,17,17,53,1
,,,,,,,,,,,,,,,,,,32,2022-02-12_13h22.51.671,lexical_decision_task_DD_L4,2021.2.3,MacIntel,59.97361161,,,,,,,,,,,,0.7323,1,,,,,,,,,,,,,,,,,,,,,,,,0.710620117,-0.206811523,0,0,0,,,,,,,ARROW,C,m,y,./images/ARROW.png,,,,,,,,,,,,,,,,,,,,m,1,0.7323,,,,,,,,0,18,18,69,1
,,,,,,,,,,,,,,,,,,32,2022-02-12_13h22.51.671,lexical_decision_task_DD_L4,2021.2.3,MacIntel,59.97361161,,,,,,,,,,,,0.7515,1,,,,,,,,,,,,,,,,,,,,,,,,0.710620117,-0.206811523,0,0,0,,,,,,,BELLY,HB,z,y,./images/BELLYHB.png,,,,,,,,,,,,,,,,,,,,z,1,0.7515,,,,,,,,0,19,19,94,1
,,,,,,,,,,,,,,,,,,32,2022-02-12_13h22.51.671,lexical_decision_task_DD_L4,2021.2.3,MacIntel,59.97361161,,,,,,,,,,,,0.9155,1,,,,,,,,,,,,,,,,,,,,,,,,0.710620117,-0.206811523,0,0,0,,,,,,,MUFFIN,HB,z,y,./images/MUFFINHB.png,,,,,,,,,,,,,,,,,,,,z,1,0.9155,,,,,,,,0,20,20,139,1
,,,,,,,,,,,,,,,,,,32,2022-02-12_13h22.51.671,lexical_decision_task_DD_L4,2021.2.3,MacIntel,59.97361161,,,,,,,,,,,,0.7167,1,,,,,,,,,,,,,,,,,,,,,,,,0.710620117,-0.206811523,0,0,0,,,,,,,PIMPLE,LB,z,y,./images/PIMPLELB.png,,,,,,,,,,,,,,,,,,,,z,1,0.7167,,,,,,,,0,21,21,155,1
,,,,,,,,,,,,,,,,,,32,2022-02-12_13h22.51.671,lexical_decision_task_DD_L4,2021.2.3,MacIntel,59.97361161,,,,,,,,,,,,0.8521,0,,,,,,,,,,,,,,,,,,,,,,,,0.710620117,-0.206811523,0,0,0,,,,,,,CLOWN,HB,m,y,./images/CLOWNHB.png,,,,,,,,,,,,,,,,,,,,z,0,0.8521,,,,,,,,0,22,22,22,1
,,,,,,,,,,,,,,,,,,32,2022-02-12_13h22.51.671,lexical_decision_task_DD_L4,2021.2.3,MacIntel,59.97361161,,,,,,,,,,,,0.7829,1,,,,,,,,,,,,,,,,,,,,,,,,0.710620117,-0.206811523,0,0,0,,,,,,,ONION,C,z,y,./images/ONION.png,,,,,,,,,,,,,,,,,,,,z,1,0.7829,,,,,,,,0,23,23,135,1
,,,,,,,,,,,,,,,,,,32,2022-02-12_13h22.51.671,lexical_decision_task_DD_L4,2021.2.3,MacIntel,59.97361161,,,,,,,,,,,,0.7839,1,,,,,,,,,,,,,,,,,,,,,,,,0.710620117,-0.206811523,0,0,0,,,,,,,DOUGH,HB,z,y,./images/DOUGHHB.png,,,,,,,,,,,,,,,,,,,,z,1,0.7839,,,,,,,,0,24,24,103,1
,,,,,,,,,,,,,,,,,,32,2022-02-12_13h22.51.671,lexical_decision_task_DD_L4,2021.2.3,MacIntel,59.97361161,,,,,,,,,,,,0.6832,1,,,,,,,,,,,,,,,,,,,,,,,,0.710620117,-0.206811523,0,0,0,,,,,,,WALRUS,LB,z,y,./images/WALRUSLB.png,,,,,,,,,,,,,,,,,,,,z,1,0.6832,,,,,,,,0,25,25,107,1
,,,,,,,,,,,,,,,,,,32,2022-02-12_13h22.51.671,lexical_decision_task_DD_L4,2021.2.3,MacIntel,59.97361161,,,,,,,,,,,,1.6356,1,,,,,,,,,,,,,,,,,,,,,,,,0.710620117,-0.206811523,0,0,0,,,,,,,BLOKE,C,m,y,./images/BLOKE.png,,,,,,,,,,,,,,,,,,,,m,1,1.6356,,,,,,,,0,26,26,12,1
,,,,,,,,,,,,,,,,,,32,2022-02-12_13h22.51.671,lexical_decision_task_DD_L4,2021.2.3,MacIntel,59.97361161,,,,,,,,,,,,1.0669,0,,,,,,,,,,,,,,,,,,,,,,,,0.710620117,-0.206811523,0,0,0,,,,,,,CARPET,LB,z,y,./images/CARPETLB.png,,,,,,,,,,,,,,,,,,,,m,0,1.0669,,,,,,,,0,27,27,137,1
,,,,,,,,,,,,,,,,,,32,2022-02-12_13h22.51.671,lexical_decision_task_DD_L4,2021.2.3,MacIntel,59.97361161,,,,,,,,,,,,0.7159,1,,,,,,,,,,,,,,,,,,,,,,,,0.710620117,-0.206811523,0,0,0,,,,,,,BAMBOO,LB,m,y,./images/BAMBOOLB.png,,,,,,,,,,,,,,,,,,,,m,1,0.7159,,,,,,,,0,28,28,5,1
,,,,,,,,,,,,,,,,,,32,2022-02-12_13h22.51.671,lexical_decision_task_DD_L4,2021.2.3,MacIntel,59.97361161,,,,,,,,,,,,0.6876,1,,,,,,,,,,,,,,,,,,,,,,,,0.710620117,-0.206811523,0,0,0,,,,,,,CHAIN,C,m,y,./images/CHAIN.png,,,,,,,,,,,,,,,,,,,,m,1,0.6876,,,,,,,,0,29,29,42,1
,,,,,,,,,,,,,,,,,,32,2022-02-12_13h22.51.671,lexical_decision_task_DD_L4,2021.2.3,MacIntel,59.97361161,,,,,,,,,,,,0.684,1,,,,,,,,,,,,,,,,,,,,,,,,0.710620117,-0.206811523,0,0,0,,,,,,,WHEEL,LB,m,y,./images/WHEELLB.png,,,,,,,,,,,,,,,,,,,,m,1,0.684,,,,,,,,0,30,30,77,1
,,,,,,,,,,,,,,,,,,32,2022-02-12_13h22.51.671,lexical_decision_task_DD_L4,2021.2.3,MacIntel,59.97361161,,,,,,,,,,,,1.0518,1,,,,,,,,,,,,,,,,,,,,,,,,0.710620117,-0.206811523,0,0,0,,,,,,,SQUARE,C,z,y,./images/SQUARE.png,,,,,,,,,,,,,,,,,,,,z,1,1.0518,,,,,,,,0,31,31,90,1
,,,,,,,,,,,,,,,,,,32,2022-02-12_13h22.51.671,lexical_decision_task_DD_L4,2021.2.3,MacIntel,59.97361161,,,,,,,,,,,,0.8981,1,,,,,,,,,,,,,,,,,,,,,,,,0.710620117,-0.206811523,0,0,0,,,,,,,MAGGOT,C,z,y,./images/MAGGOT.png,,,,,,,,,,,,,,,,,,,,z,1,0.8981,,,,,,,,0,32,32,117,1
,,,,,,,,,,,,,,,,,,32,2022-02-12_13h22.51.671,lexical_decision_task_DD_L4,2021.2.3,MacIntel,59.97361161,,,,,,,,,,,,1.248,1,,,,,,,,,,,,,,,,,,,,,,,,0.710620117,-0.206811523,0,0,0,,,,,,,MEDAL,LB,m,y,./images/MEDALLB.png,,,,,,,,,,,,,,,,,,,,m,1,1.248,,,,,,,,0,33,33,11,1
,,,,,,,,,,,,,,,,,,32,2022-02-12_13h22.51.671,lexical_decision_task_DD_L4,2021.2.3,MacIntel,59.97361161,,,,,,,,,,,,1.0661,1,,,,,,,,,,,,,,,,,,,,,,,,0.710620117,-0.206811523,0,0,0,,,,,,,JUNGLE,LB,z,y,./images/JUNGLELB.png,,,,,,,,,,,,,,,,,,,,z,1,1.0661,,,,,,,,0,34,34,167,1
,,,,,,,,,,,,,,,,,,32,2022-02-12_13h22.51.671,lexical_decision_task_DD_L4,2021.2.3,MacIntel,59.97361161,,,,,,,,,,,,0.6661,1,,,,,,,,,,,,,,,,,,,,,,,,0.710620117,-0.206811523,0,0,0,,,,,,,WEASEL,LB,z,y,./images/WEASELLB.png,,,,,,,,,,,,,,,,,,,,z,1,0.6661,,,,,,,,0,35,35,164,1
,,,,,,,,,,,,,,,,,,32,2022-02-12_13h22.51.671,lexical_decision_task_DD_L4,2021.2.3,MacIntel,59.97361161,,,,,,,,,,,,1.5327,1,,,,,,,,,,,,,,,,,,,,,,,,0.710620117,-0.206811523,0,0,0,,,,,,,GRANNY,LB,m,y,./images/GRANNYLB.png,,,,,,,,,,,,,,,,,,,,m,1,1.5327,,,,,,,,0,36,36,20,1
,,,,,,,,,,,,,,,,,,32,2022-02-12_13h22.51.671,lexical_decision_task_DD_L4,2021.2.3,MacIntel,59.97361161,,,,,,,,,,,,0.9682,1,,,,,,,,,,,,,,,,,,,,,,,,0.710620117,-0.206811523,0,0,0,,,,,,,SAILOR,HB,z,y,./images/SAILORHB.png,,,,,,,,,,,,,,,,,,,,z,1,0.9682,,,,,,,,0,37,37,151,1
,,,,,,,,,,,,,,,,,,32,2022-02-12_13h22.51.671,lexical_decision_task_DD_L4,2021.2.3,MacIntel,59.97361161,,,,,,,,,,,,0.7003,0,,,,,,,,,,,,,,,,,,,,,,,,0.710620117,-0.206811523,0,0,0,,,,,,,BRIDE,HB,m,y,./images/BRIDEHB.png,,,,,,,,,,,,,,,,,,,,z,0,0.7003,,,,,,,,0,38,38,64,1
,,,,,,,,,,,,,,,,,,32,2022-02-12_13h22.51.671,lexical_decision_task_DD_L4,2021.2.3,MacIntel,59.97361161,,,,,,,,,,,,0.8781,1,,,,,,,,,,,,,,,,,,,,,,,,0.710620117,-0.206811523,0,0,0,,,,,,,ARTIST,HB,m,y,./images/ARTISTHB.png,,,,,,,,,,,,,,,,,,,,m,1,0.8781,,,,,,,,0,39,39,61,1
,,,,,,,,,,,,,,,,,,32,2022-02-12_13h22.51.671,lexical_decision_task_DD_L4,2021.2.3,MacIntel,59.97361161,,,,,,,,,,,,0.7295,1,,,,,,,,,,,,,,,,,,,,,,,,0.710620117,-0.206811523,0,0,0,,,,,,,CRATER,C,m,y,./images/CRATER.png,,,,,,,,,,,,,,,,,,,,m,1,0.7295,,,,,,,,0,40,40,3,1
,,,,,,,,,,,,,,,,,,32,2022-02-12_13h22.51.671,lexical_decision_task_DD_L4,2021.2.3,MacIntel,59.97361161,,,,,,,,,,,,0.6294,0,,,,,,,,,,,,,,,,,,,,,,,,0.710620117,-0.206811523,0,0,0,space,,,,,,POODLE,C,z,y,./images/POODLE.png,32.4012,,,,,,,,,,,,,,,,,,,m,0,0.6294,,,,,,,,0,41,41,165,1
,,,,,,,,,,,,,,,,,,32,2022-02-12_13h22.51.671,lexical_decision_task_DD_L4,2021.2.3,MacIntel,59.97361161,,,,,,,,,,,,0.8989,1,,,,,,,,,,,,,,,,,,,,,,,,0.710620117,-0.206811523,0,0,0,,,,,,,GRAIN,C,z,y,./images/GRAIN.png,,,,,,,,,,,,,,,,,,,,z,1,0.8989,,,,,,,,0,42,42,159,1
,,,,,,,,,,,,,,,,,,32,2022-02-12_13h22.51.671,lexical_decision_task_DD_L4,2021.2.3,MacIntel,59.97361161,,,,,,,,,,,,0.7119,1,,,,,,,,,,,,,,,,,,,,,,,,0.710620117,-0.206811523,0,0,0,,,,,,,CASINO,HB,m,y,./images/CASINOHB.png,,,,,,,,,,,,,,,,,,,,m,1,0.7119,,,,,,,,0,43,43,28,1
,,,,,,,,,,,,,,,,,,32,2022-02-12_13h22.51.671,lexical_decision_task_DD_L4,2021.2.3,MacIntel,59.97361161,,,,,,,,,,,,0.6991,0,,,,,,,,,,,,,,,,,,,,,,,,0.710620117,-0.206811523,0,0,0,,,,,,,BABOON,HB,z,y,./images/BABOONHB.png,,,,,,,,,,,,,,,,,,,,m,0,0.6991,,,,,,,,0,44,44,142,1
,,,,,,,,,,,,,,,,,,32,2022-02-12_13h22.51.671,lexical_decision_task_DD_L4,2021.2.3,MacIntel,59.97361161,,,,,,,,,,,,0.6991,0,,,,,,,,,,,,,,,,,,,,,,,,0.710620117,-0.206811523,0,0,0,,,,,,,DANCER,C,m,y,./images/DANCER.png,,,,,,,,,,,,,,,,,,,,z,0,0.6991,,,,,,,,0,45,45,21,1
,,,,,,,,,,,,,,,,,,32,2022-02-12_13h22.51.671,lexical_decision_task_DD_L4,2021.2.3,MacIntel,59.97361161,,,,,,,,,,,,0.7017,1,,,,,,,,,,,,,,,,,,,,,,,,0.710620117,-0.206811523,0,0,0,,,,,,,SNACK,HB,z,y,./images/SNACKHB.png,,,,,,,,,,,,,,,,,,,,z,1,0.7017,,,,,,,,0,46,46,157,1
,,,,,,,,,,,,,,,,,,32,2022-02-12_13h22.51.671,lexical_decision_task_DD_L4,2021.2.3,MacIntel,59.97361161,,,,,,,,,,,,0.9741,1,,,,,,,,,,,,,,,,,,,,,,,,0.710620117,-0.206811523,0,0,0,,,,,,,ALLEY,HB,m,y,./images/ALLEYHB.png,,,,,,,,,,,,,,,,,,,,m,1,0.9741,,,,,,,,0,47,47,55,1
,,,,,,,,,,,,,,,,,,32,2022-02-12_13h22.51.671,lexical_decision_task_DD_L4,2021.2.3,MacIntel,59.97361161,,,,,,,,,,,,0.6664,1,,,,,,,,,,,,,,,,,,,,,,,,0.710620117,-0.206811523,0,0,0,,,,,,,FLASK,C,m,y,./images/FLASK.png,,,,,,,,,,,,,,,,,,,,m,1,0.6664,,,,,,,,0,48,48,72,1
,,,,,,,,,,,,,,,,,,32,2022-02-12_13h22.51.671,lexical_decision_task_DD_L4,2021.2.3,MacIntel,59.97361161,,,,,,,,,,,,0.6322,1,,,,,,,,,,,,,,,,,,,,,,,,0.710620117,-0.206811523,0,0,0,,,,,,,RAZOR,HB,m,y,./images/RAZORHB.png,,,,,,,,,,,,,,,,,,,,m,1,0.6322,,,,,,,,0,49,49,34,1
,,,,,,,,,,,,,,,,,,32,2022-02-12_13h22.51.671,lexical_decision_task_DD_L4,2021.2.3,MacIntel,59.97361161,,,,,,,,,,,,0.767,1,,,,,,,,,,,,,,,,,,,,,,,,0.710620117,-0.206811523,0,0,0,,,,,,,CRUST,HB,z,y,./images/CRUSTHB.png,,,,,,,,,,,,,,,,,,,,z,1,0.767,,,,,,,,0,50,50,163,1
,,,,,,,,,,,,,,,,,,32,2022-02-12_13h22.51.671,lexical_decision_task_DD_L4,2021.2.3,MacIntel,59.97361161,,,,,,,,,,,,0.665,1,,,,,,,,,,,,,,,,,,,,,,,,0.710620117,-0.206811523,0,0,0,,,,,,,BOXER,HB,m,y,./images/BOXERHB.png,,,,,,,,,,,,,,,,,,,,m,1,0.665,,,,,,,,0,51,51,4,1
,,,,,,,,,,,,,,,,,,32,2022-02-12_13h22.51.671,lexical_decision_task_DD_L4,2021.2.3,MacIntel,59.97361161,,,,,,,,,,,,0.8666,1,,,,,,,,,,,,,,,,,,,,,,,,0.710620117,-0.206811523,0,0,0,,,,,,,SPORT,C,z,y,./images/SPORT.png,,,,,,,,,,,,,,,,,,,,z,1,0.8666,,,,,,,,0,52,52,132,1
,,,,,,,,,,,,,,,,,,32,2022-02-12_13h22.51.671,lexical_decision_task_DD_L4,2021.2.3,MacIntel,59.97361161,,,,,,,,,,,,0.8682,1,,,,,,,,,,,,,,,,,,,,,,,,0.710620117,-0.206811523,0,0,0,,,,,,,TOMATO,C,z,y,./images/TOMATO.png,,,,,,,,,,,,,,,,,,,,z,1,0.8682,,,,,,,,0,53,53,84,1
,,,,,,,,,,,,,,,,,,32,2022-02-12_13h22.51.671,lexical_decision_task_DD_L4,2021.2.3,MacIntel,59.97361161,,,,,,,,,,,,0.8,1,,,,,,,,,,,,,,,,,,,,,,,,0.710620117,-0.206811523,0,0,0,,,,,,,QUILL,HB,z,y,./images/QUILLHB.png,,,,,,,,,,,,,,,,,,,,z,1,0.8,,,,,,,,0,54,54,115,1
,,,,,,,,,,,,,,,,,,32,2022-02-12_13h22.51.671,lexical_decision_task_DD_L4,2021.2.3,MacIntel,59.97361161,,,,,,,,,,,,0.7013,1,,,,,,,,,,,,,,,,,,,,,,,,0.710620117,-0.206811523,0,0,0,,,,,,,RHINO,C,z,y,./images/RHINO.png,,,,,,,,,,,,,,,,,,,,z,1,0.7013,,,,,,,,0,55,55,93,1
,,,,,,,,,,,,,,,,,,32,2022-02-12_13h22.51.671,lexical_decision_task_DD_L4,2021.2.3,MacIntel,59.97361161,,,,,,,,,,,,0.6171,1,,,,,,,,,,,,,,,,,,,,,,,,0.710620117,-0.206811523,0,0,0,,,,,,,MIDGET,HB,m,y,./images/MIDGETHB.png,,,,,,,,,,,,,,,,,,,,m,1,0.6171,,,,,,,,0,56,56,76,1
,,,,,,,,,,,,,,,,,,32,2022-02-12_13h22.51.671,lexical_decision_task_DD_L4,2021.2.3,MacIntel,59.97361161,,,,,,,,,,,,0.617,1,,,,,,,,,,,,,,,,,,,,,,,,0.710620117,-0.206811523,0,0,0,,,,,,,STOOL,HB,m,y,./images/STOOLHB.png,,,,,,,,,,,,,,,,,,,,m,1,0.617,,,,,,,,0,57,57,43,1
,,,,,,,,,,,,,,,,,,32,2022-02-12_13h22.51.671,lexical_decision_task_DD_L4,2021.2.3,MacIntel,59.97361161,,,,,,,,,,,,0.5964,1,,,,,,,,,,,,,,,,,,,,,,,,0.710620117,-0.206811523,0,0,0,,,,,,,SAUCE,C,m,y,./images/SAUCE.png,,,,,,,,,,,,,,,,,,,,m,1,0.5964,,,,,,,,0,58,58,51,1
,,,,,,,,,,,,,,,,,,32,2022-02-12_13h22.51.671,lexical_decision_task_DD_L4,2021.2.3,MacIntel,59.97361161,,,,,,,,,,,,0.631,0,,,,,,,,,,,,,,,,,,,,,,,,0.710620117,-0.206811523,0,0,0,,,,,,,SHELF,C,z,y,./images/SHELF.png,,,,,,,,,,,,,,,,,,,,m,0,0.631,,,,,,,,0,59,59,123,1
,,,,,,,,,,,,,,,,,,32,2022-02-12_13h22.51.671,lexical_decision_task_DD_L4,2021.2.3,MacIntel,59.97361161,,,,,,,,,,,,0.9491,1,,,,,,,,,,,,,,,,,,,,,,,,0.710620117,-0.206811523,0,0,0,,,,,,,SHIELD,C,m,y,./images/SHIELD.png,,,,,,,,,,,,,,,,,,,,m,1,0.9491,,,,,,,,0,60,60,48,1
,,,,,,,,,,,,,,,,,,32,2022-02-12_13h22.51.671,lexical_decision_task_DD_L4,2021.2.3,MacIntel,59.97361161,,,,,,,,,,,,0.7325,0,,,,,,,,,,,,,,,,,,,,,,,,0.710620117,-0.206811523,0,0,0,,,,,,,SHORE,C,z,y,./images/SHORE.png,,,,,,,,,,,,,,,,,,,,m,0,0.7325,,,,,,,,0,61,61,96,1
,,,,,,,,,,,,,,,,,,32,2022-02-12_13h22.51.671,lexical_decision_task_DD_L4,2021.2.3,MacIntel,59.97361161,,,,,,,,,,,,0.7356,1,,,,,,,,,,,,,,,,,,,,,,,,0.710620117,-0.206811523,0,0,0,,,,,,,INFANT,HB,z,y,./images/INFANTHB.png,,,,,,,,,,,,,,,,,,,,z,1,0.7356,,,,,,,,0,62,62,160,1
,,,,,,,,,,,,,,,,,,32,2022-02-12_13h22.51.671,lexical_decision_task_DD_L4,2021.2.3,MacIntel,59.97361161,,,,,,,,,,,,0.8178,1,,,,,,,,,,,,,,,,,,,,,,,,0.710620117,-0.206811523,0,0,0,,,,,,,BOILER,C,m,y,./images/BOILER.png,,,,,,,,,,,,,,,,,,,,m,1,0.8178,,,,,,,,0,63,63,36,1
,,,,,,,,,,,,,,,,,,32,2022-02-12_13h22.51.671,lexical_decision_task_DD_L4,2021.2.3,MacIntel,59.97361161,,,,,,,,,,,,1.05,0,,,,,,,,,,,,,,,,,,,,,,,,0.710620117,-0.206811523,0,0,0,,,,,,,BRUSH,LB,m,y,./images/BRUSHLB.png,,,,,,,,,,,,,,,,,,,,z,0,1.05,,,,,,,,0,64,64,59,1
,,,,,,,,,,,,,,,,,,32,2022-02-12_13h22.51.671,lexical_decision_task_DD_L4,2021.2.3,MacIntel,59.97361161,,,,,,,,,,,,1.7192,0,,,,,,,,,,,,,,,,,,,,,,,,0.710620117,-0.206811523,0,0,0,,,,,,,SMOKER,LB,z,y,./images/SMOKERLB.png,,,,,,,,,,,,,,,,,,,,m,0,1.7192,,,,,,,,0,65,65,110,1
,,,,,,,,,,,,,,,,,,32,2022-02-12_13h22.51.671,lexical_decision_task_DD_L4,2021.2.3,MacIntel,59.97361161,,,,,,,,,,,,2.7158,0,,,,,,,,,,,,,,,,,,,,,,,,0.710620117,-0.206811523,0,0,0,,,,,,,PLANET,LB,m,y,./images/PLANETLB.png,,,,,,,,,,,,,,,,,,,,z,0,2.7158,,,,,,,,0,66,66,80,1
,,,,,,,,,,,,,,,,,,32,2022-02-12_13h22.51.671,lexical_decision_task_DD_L4,2021.2.3,MacIntel,59.97361161,,,,,,,,,,,,1.4354,1,,,,,,,,,,,,,,,,,,,,,,,,0.710620117,-0.206811523,0,0,0,,,,,,,JAGUAR,C,z,y,./images/JAGUAR.png,,,,,,,,,,,,,,,,,,,,z,1,1.4354,,,,,,,,0,67,67,102,1
,,,,,,,,,,,,,,,,,,32,2022-02-12_13h22.51.671,lexical_decision_task_DD_L4,2021.2.3,MacIntel,59.97361161,,,,,,,,,,,,0.7992,1,,,,,,,,,,,,,,,,,,,,,,,,0.710620117,-0.206811523,0,0,0,,,,,,,CRUMB,LB,z,y,./images/CRUMBLB.png,,,,,,,,,,,,,,,,,,,,z,1,0.7992,,,,,,,,0,68,68,113,1
,,,,,,,,,,,,,,,,,,32,2022-02-12_13h22.51.671,lexical_decision_task_DD_L4,2021.2.3,MacIntel,59.97361161,,,,,,,,,,,,0.8492,0,,,,,,,,,,,,,,,,,,,,,,,,0.710620117,-0.206811523,0,0,0,,,,,,,MOOSE,C,z,y,./images/MOOSE.png,,,,,,,,,,,,,,,,,,,,m,0,0.8492,,,,,,,,0,69,69,141,1
,,,,,,,,,,,,,,,,,,32,2022-02-12_13h22.51.671,lexical_decision_task_DD_L4,2021.2.3,MacIntel,59.97361161,,,,,,,,,,,,0.9663,1,,,,,,,,,,,,,,,,,,,,,,,,0.710620117,-0.206811523,0,0,0,,,,,,,ATTIC,C,z,y,./images/ATTIC.png,,,,,,,,,,,,,,,,,,,,z,1,0.9663,,,,,,,,0,70,70,111,1
,,,,,,,,,,,,,,,,,,32,2022-02-12_13h22.51.671,lexical_decision_task_DD_L4,2021.2.3,MacIntel,59.97361161,,,,,,,,,,,,0.9834,1,,,,,,,,,,,,,,,,,,,,,,,,0.710620117,-0.206811523,0,0,0,,,,,,,WAGON,HB,m,y,./images/WAGONHB.png,,,,,,,,,,,,,,,,,,,,m,1,0.9834,,,,,,,,0,71,71,7,1
,,,,,,,,,,,,,,,,,,32,2022-02-12_13h22.51.671,lexical_decision_task_DD_L4,2021.2.3,MacIntel,59.97361161,,,,,,,,,,,,1.1343,1,,,,,,,,,,,,,,,,,,,,,,,,0.710620117,-0.206811523,0,0,0,,,,,,,BURIAL,LB,z,y,./images/BURIALLB.png,,,,,,,,,,,,,,,,,,,,z,1,1.1343,,,,,,,,0,72,72,143,1
,,,,,,,,,,,,,,,,,,32,2022-02-12_13h22.51.671,lexical_decision_task_DD_L4,2021.2.3,MacIntel,59.97361161,,,,,,,,,,,,0.6323,1,,,,,,,,,,,,,,,,,,,,,,,,0.710620117,-0.206811523,0,0,0,,,,,,,TWINS,C,z,y,./images/TWINS.png,,,,,,,,,,,,,,,,,,,,z,1,0.6323,,,,,,,,0,73,73,144,1
,,,,,,,,,,,,,,,,,,32,2022-02-12_13h22.51.671,lexical_decision_task_DD_L4,2021.2.3,MacIntel,59.97361161,,,,,,,,,,,,0.6323,1,,,,,,,,,,,,,,,,,,,,,,,,0.710620117,-0.206811523,0,0,0,,,,,,,KITTEN,C,z,y,./images/KITTEN.png,,,,,,,,,,,,,,,,,,,,z,1,0.6323,,,,,,,,0,74,74,129,1
,,,,,,,,,,,,,,,,,,32,2022-02-12_13h22.51.671,lexical_decision_task_DD_L4,2021.2.3,MacIntel,59.97361161,,,,,,,,,,,,0.6682,1,,,,,,,,,,,,,,,,,,,,,,,,0.710620117,-0.206811523,0,0,0,,,,,,,PEBBLE,HB,m,y,./images/PEBBLEHB.png,,,,,,,,,,,,,,,,,,,,m,1,0.6682,,,,,,,,0,75,75,82,1
,,,,,,,,,,,,,,,,,,32,2022-02-12_13h22.51.671,lexical_decision_task_DD_L4,2021.2.3,MacIntel,59.97361161,,,,,,,,,,,,0.7493,1,,,,,,,,,,,,,,,,,,,,,,,,0.710620117,-0.206811523,0,0,0,,,,,,,DRILL,C,m,y,./images/DRILL.png,,,,,,,,,,,,,,,,,,,,m,1,0.7493,,,,,,,,0,76,76,81,1
,,,,,,,,,,,,,,,,,,32,2022-02-12_13h22.51.671,lexical_decision_task_DD_L4,2021.2.3,MacIntel,59.97361161,,,,,,,,,,,,0.6679,1,,,,,,,,,,,,,,,,,,,,,,,,0.710620117,-0.206811523,0,0,0,,,,,,,DRUMS,HB,z,y,./images/DRUMSHB.png,,,,,,,,,,,,,,,,,,,,z,1,0.6679,,,,,,,,0,77,77,133,1
,,,,,,,,,,,,,,,,,,32,2022-02-12_13h22.51.671,lexical_decision_task_DD_L4,2021.2.3,MacIntel,59.97361161,,,,,,,,,,,,0.7291,1,,,,,,,,,,,,,,,,,,,,,,,,0.710620117,-0.206811523,0,0,0,,,,,,,BAKER,C,m,y,./images/BAKER.png,,,,,,,,,,,,,,,,,,,,m,1,0.7291,,,,,,,,0,78,78,63,1
,,,,,,,,,,,,,,,,,,32,2022-02-12_13h22.51.671,lexical_decision_task_DD_L4,2021.2.3,MacIntel,59.97361161,,,,,,,,,,,,0.8697,1,,,,,,,,,,,,,,,,,,,,,,,,0.710620117,-0.206811523,0,0,0,,,,,,,TOWEL,HB,m,y,./images/TOWELHB.png,,,,,,,,,,,,,,,,,,,,m,1,0.8697,,,,,,,,0,79,79,1,1
,,,,,,,,,,,,,,,,,,32,2022-02-12_13h22.51.671,lexical_decision_task_DD_L4,2021.2.3,MacIntel,59.97361161,,,,,,,,,,,,0.6016,1,,,,,,,,,,,,,,,,,,,,,,,,0.710620117,-0.206811523,0,0,0,,,,,,,BROOM,C,m,y,./images/BROOM.png,,,,,,,,,,,,,,,,,,,,m,1,0.6016,,,,,,,,0,80,80,78,1
,,,,,,,,,,,,,,,,,,32,2022-02-12_13h22.51.671,lexical_decision_task_DD_L4,2021.2.3,MacIntel,59.97361161,,,,,,,,,,,,1.2854,0,,,,,,,,,,,,,,,,,,,,,,,,0.710620117,-0.206811523,0,0,0,,,,,,,PARADE,LB,m,y,./images/PARADELB.png,,,,,,,,,,,,,,,,,,,,z,0,1.2854,,,,,,,,0,81,81,17,1
,,,,,,,,,,,,,,,,,,32,2022-02-12_13h22.51.671,lexical_decision_task_DD_L4,2021.2.3,MacIntel,59.97361161,,,,,,,,,,,,1.0831,0,,,,,,,,,,,,,,,,,,,,,,,,0.710620117,-0.206811523,0,0,0,,,,,,,DIVER,C,m,y,./images/DIVER.png,,,,,,,,,,,,,,,,,,,,z,0,1.0831,,,,,,,,0,82,82,9,1
,,,,,,,,,,,,,,,,,,32,2022-02-12_13h22.51.671,lexical_decision_task_DD_L4,2021.2.3,MacIntel,59.97361161,,,,,,,,,,,,1.1169,1,,,,,,,,,,,,,,,,,,,,,,,,0.710620117,-0.206811523,0,0,0,space,,,,,,FERRY,C,m,y,./images/FERRY.png,153.3535,,,,,,,,,,,,,,,,,,,m,1,1.1169,,,,,,,,0,83,83,57,1
,,,,,,,,,,,,,,,,,,32,2022-02-12_13h22.51.671,lexical_decision_task_DD_L4,2021.2.3,MacIntel,59.97361161,,,,,,,,,,,,0.8492,0,,,,,,,,,,,,,,,,,,,,,,,,0.710620117,-0.206811523,0,0,0,,,,,,,LIZARD,LB,z,y,./images/LIZARDLB.png,,,,,,,,,,,,,,,,,,,,m,0,0.8492,,,,,,,,0,84,84,128,1
,,,,,,,,,,,,,,,,,,32,2022-02-12_13h22.51.671,lexical_decision_task_DD_L4,2021.2.3,MacIntel,59.97361161,,,,,,,,,,,,0.6998,0,,,,,,,,,,,,,,,,,,,,,,,,0.710620117,-0.206811523,0,0,0,,,,,,,CANDLE,HB,z,y,./images/CANDLEHB.png,,,,,,,,,,,,,,,,,,,,m,0,0.6998,,,,,,,,0,85,85,145,1
,,,,,,,,,,,,,,,,,,32,2022-02-12_13h22.51.671,lexical_decision_task_DD_L4,2021.2.3,MacIntel,59.97361161,,,,,,,,,,,,0.649,0,,,,,,,,,,,,,,,,,,,,,,,,0.710620117,-0.206811523,0,0,0,,,,,,,FARMER,LB,z,y,./images/FARMERLB.png,,,,,,,,,,,,,,,,,,,,m,0,0.649,,,,,,,,0,86,86,149,1
,,,,,,,,,,,,,,,,,,32,2022-02-12_13h22.51.671,lexical_decision_task_DD_L4,2021.2.3,MacIntel,59.97361161,,,,,,,,,,,,0.8786,0,,,,,,,,,,,,,,,,,,,,,,,,0.710620117,-0.206811523,0,0,0,,,,,,,SCREW,C,z,y,./images/SCREW.png,,,,,,,,,,,,,,,,,,,,m,0,0.8786,,,,,,,,0,87,87,108,1
,,,,,,,,,,,,,,,,,,32,2022-02-12_13h22.51.671,lexical_decision_task_DD_L4,2021.2.3,MacIntel,59.97361161,,,,,,,,,,,,0.8195,0,,,,,,,,,,,,,,,,,,,,,,,,0.710620117,-0.206811523,0,0,0,,,,,,,GRAPE,HB,m,y,./images/GRAPEHB.png,,,,,,,,,,,,,,,,,,,,z,0,0.8195,,,,,,,,0,88,88,16,1
,,,,,,,,,,,,,,,,,,32,2022-02-12_13h22.51.671,lexical_decision_task_DD_L4,2021.2.3,MacIntel,59.97361161,,,,,,,,,,,,0.782,1,,,,,,,,,,,,,,,,,,,,,,,,0.710620117,-0.206811523,0,0,0,,,,,,,COOKER,C,z,y,./images/COOKER.png,,,,,,,,,,,,,,,,,,,,z,1,0.782,,,,,,,,0,89,89,153,1
,,,,,,,,,,,,,,,,,,32,2022-02-12_13h22.51.671,lexical_decision_task_DD_L4,2021.2.3,MacIntel,59.97361161,,,,,,,,,,,,0.7665,0,,,,,,,,,,,,,,,,,,,,,,,,0.710620117,-0.206811523,0,0,0,,,,,,,PARCEL,C,m,y,./images/PARCEL.png,,,,,,,,,,,,,,,,,,,,z,0,0.7665,,,,,,,,0,90,90,18,1
,,,,,,,,,,,,,,,,,,32,2022-02-12_13h22.51.671,lexical_decision_task_DD_L4,2021.2.3,MacIntel,59.97361161,,,,,,,,,,,,0.7011,1,,,,,,,,,,,,,,,,,,,,,,,,0.710620117,-0.206811523,0,0,0,,,,,,,STRING,LB,z,y,./images/STRINGLB.png,,,,,,,,,,,,,,,,,,,,z,1,0.7011,,,,,,,,0,91,91,125,1
,,,,,,,,,,,,,,,,,,32,2022-02-12_13h22.51.671,lexical_decision_task_DD_L4,2021.2.3,MacIntel,59.97361161,,,,,,,,,,,,0.6656,1,,,,,,,,,,,,,,,,,,,,,,,,0.710620117,-0.206811523,0,0,0,,,,,,,KIDNEY,C,z,y,./images/KIDNEY.png,,,,,,,,,,,,,,,,,,,,z,1,0.6656,,,,,,,,0,92,92,105,1
,,,,,,,,,,,,,,,,,,32,2022-02-12_13h22.51.671,lexical_decision_task_DD_L4,2021.2.3,MacIntel,59.97361161,,,,,,,,,,,,0.6667,1,,,,,,,,,,,,,,,,,,,,,,,,0.710620117,-0.206811523,0,0,0,,,,,,,LLAMA,LB,m,y,./images/LLAMALB.png,,,,,,,,,,,,,,,,,,,,m,1,0.6667,,,,,,,,0,93,93,35,1
,,,,,,,,,,,,,,,,,,32,2022-02-12_13h22.51.671,lexical_decision_task_DD_L4,2021.2.3,MacIntel,59.97361161,,,,,,,,,,,,0.9665,1,,,,,,,,,,,,,,,,,,,,,,,,0.710620117,-0.206811523,0,0,0,,,,,,,CLIFF,LB,m,y,./images/CLIFFLB.png,,,,,,,,,,,,,,,,,,,,m,1,0.9665,,,,,,,,0,94,94,8,1
,,,,,,,,,,,,,,,,,,32,2022-02-12_13h22.51.671,lexical_decision_task_DD_L4,2021.2.3,MacIntel,59.97361161,,,,,,,,,,,,0.6938,0,,,,,,,,,,,,,,,,,,,,,,,,0.710620117,-0.206811523,0,0,0,,,,,,,CRADLE,LB,z,y,./images/CRADLELB.png,,,,,,,,,,,,,,,,,,,,m,0,0.6938,,,,,,,,0,95,95,104,1
,,,,,,,,,,,,,,,,,,32,2022-02-12_13h22.51.671,lexical_decision_task_DD_L4,2021.2.3,MacIntel,59.97361161,,,,,,,,,,,,0.6993,1,,,,,,,,,,,,,,,,,,,,,,,,0.710620117,-0.206811523,0,0,0,,,,,,,STATUE,C,m,y,./images/STATUE.png,,,,,,,,,,,,,,,,,,,,m,1,0.6993,,,,,,,,0,96,96,66,1
,,,,,,,,,,,,,,,,,,32,2022-02-12_13h22.51.671,lexical_decision_task_DD_L4,2021.2.3,MacIntel,59.97361161,,,,,,,,,,,,0.8675,1,,,,,,,,,,,,,,,,,,,,,,,,0.710620117,-0.206811523,0,0,0,,,,,,,STREAM,LB,m,y,./images/STREAMLB.png,,,,,,,,,,,,,,,,,,,,m,1,0.8675,,,,,,,,0,97,97,41,1
,,,,,,,,,,,,,,,,,,32,2022-02-12_13h22.51.671,lexical_decision_task_DD_L4,2021.2.3,MacIntel,59.97361161,,,,,,,,,,,,0.7504,1,,,,,,,,,,,,,,,,,,,,,,,,0.710620117,-0.206811523,0,0,0,,,,,,,BIRTH,HB,z,y,./images/BIRTHHB.png,,,,,,,,,,,,,,,,,,,,z,1,0.7504,,,,,,,,0,98,98,121,1
,,,,,,,,,,,,,,,,,,32,2022-02-12_13h22.51.671,lexical_decision_task_DD_L4,2021.2.3,MacIntel,59.97361161,,,,,,,,,,,,0.8343,1,,,,,,,,,,,,,,,,,,,,,,,,0.710620117,-0.206811523,0,0,0,,,,,,,CLOTH,LB,m,y,./images/CLOTHLB.png,,,,,,,,,,,,,,,,,,,,m,1,0.8343,,,,,,,,0,99,99,23,1
,,,,,,,,,,,,,,,,,,32,2022-02-12_13h22.51.671,lexical_decision_task_DD_L4,2021.2.3,MacIntel,59.97361161,,,,,,,,,,,,1.4324,1,,,,,,,,,,,,,,,,,,,,,,,,0.710620117,-0.206811523,0,0,0,,,,,,,CEMENT,LB,z,y,./images/CEMENTLB.png,,,,,,,,,,,,,,,,,,,,z,1,1.4324,,,,,,,,0,100,100,158,1
,,,,,,,,,,,,,,,,,,32,2022-02-12_13h22.51.671,lexical_decision_task_DD_L4,2021.2.3,MacIntel,59.97361161,,,,,,,,,,,,0.6333,1,,,,,,,,,,,,,,,,,,,,,,,,0.710620117,-0.206811523,0,0,0,,,,,,,PILOT,LB,m,y,./images/PILOTLB.png,,,,,,,,,,,,,,,,,,,,m,1,0.6333,,,,,,,,0,101,101,50,1
,,,,,,,,,,,,,,,,,,32,2022-02-12_13h22.51.671,lexical_decision_task_DD_L4,2021.2.3,MacIntel,59.97361161,,,,,,,,,,,,0.9324,0,,,,,,,,,,,,,,,,,,,,,,,,0.710620117,-0.206811523,0,0,0,,,,,,,FINGER,C,z,y,./images/FINGER.png,,,,,,,,,,,,,,,,,,,,m,0,0.9324,,,,,,,,0,102,102,87,1
,,,,,,,,,,,,,,,,,,32,2022-02-12_13h22.51.671,lexical_decision_task_DD_L4,2021.2.3,MacIntel,59.97361161,,,,,,,,,,,,0.7162,1,,,,,,,,,,,,,,,,,,,,,,,,0.710620117,-0.206811523,0,0,0,,,,,,,WALNUT,C,m,y,./images/WALNUT.png,,,,,,,,,,,,,,,,,,,,m,1,0.7162,,,,,,,,0,103,103,0,1
,,,,,,,,,,,,,,,,,,32,2022-02-12_13h22.51.671,lexical_decision_task_DD_L4,2021.2.3,MacIntel,59.97361161,,,,,,,,,,,,1.0993,1,,,,,,,,,,,,,,,,,,,,,,,,0.710620117,-0.206811523,0,0,0,,,,,,,JELLY,HB,z,y,./images/JELLYHB.png,,,,,,,,,,,,,,,,,,,,z,1,1.0993,,,,,,,,0,104,104,148,1
,,,,,,,,,,,,,,,,,,32,2022-02-12_13h22.51.671,lexical_decision_task_DD_L4,2021.2.3,MacIntel,59.97361161,,,,,,,,,,,,0.7112,1,,,,,,,,,,,,,,,,,,,,,,,,0.710620117,-0.206811523,0,0,0,,,,,,,LAGOON,LB,m,y,./images/LAGOONLB.png,,,,,,,,,,,,,,,,,,,,m,1,0.7112,,,,,,,,0,105,105,47,1
,,,,,,,,,,,,,,,,,,32,2022-02-12_13h22.51.671,lexical_decision_task_DD_L4,2021.2.3,MacIntel,59.97361161,,,,,,,,,,,,0.8497,1,,,,,,,,,,,,,,,,,,,,,,,,0.710620117,-0.206811523,0,0,0,,,,,,,TIGER,HB,m,y,./images/TIGERHB.png,,,,,,,,,,,,,,,,,,,,m,1,0.8497,,,,,,,,0,106,106,37,1
,,,,,,,,,,,,,,,,,,32,2022-02-12_13h22.51.671,lexical_decision_task_DD_L4,2021.2.3,MacIntel,59.97361161,,,,,,,,,,,,0.7139,1,,,,,,,,,,,,,,,,,,,,,,,,0.710620117,-0.206811523,0,0,0,,,,,,,PEACH,LB,z,y,./images/PEACHLB.png,,,,,,,,,,,,,,,,,,,,z,1,0.7139,,,,,,,,0,107,107,119,1
,,,,,,,,,,,,,,,,,,32,2022-02-12_13h22.51.671,lexical_decision_task_DD_L4,2021.2.3,MacIntel,59.97361161,,,,,,,,,,,,0.7664,0,,,,,,,,,,,,,,,,,,,,,,,,0.710620117,-0.206811523,0,0,0,,,,,,,HOCKEY,LB,m,y,./images/HOCKEYLB.png,,,,,,,,,,,,,,,,,,,,z,0,0.7664,,,,,,,,0,108,108,32,1
,,,,,,,,,,,,,,,,,,32,2022-02-12_13h22.51.671,lexical_decision_task_DD_L4,2021.2.3,MacIntel,59.97361161,,,,,,,,,,,,1.068,0,,,,,,,,,,,,,,,,,,,,,,,,0.710620117,-0.206811523,0,0,0,,,,,,,CLOUD,LB,m,y,./images/CLOUDLB.png,,,,,,,,,,,,,,,,,,,,z,0,1.068,,,,,,,,0,109,109,26,1
,,,,,,,,,,,,,,,,,,32,2022-02-12_13h22.51.671,lexical_decision_task_DD_L4,2021.2.3,MacIntel,59.97361161,,,,,,,,,,,,1.0496,0,,,,,,,,,,,,,,,,,,,,,,,,0.710620117,-0.206811523,0,0,0,,,,,,,TORCH,LB,z,y,./images/TORCHLB.png,,,,,,,,,,,,,,,,,,,,m,0,1.0496,,,,,,,,0,110,110,152,1
,,,,,,,,,,,,,,,,,,32,2022-02-12_13h22.51.671,lexical_decision_task_DD_L4,2021.2.3,MacIntel,59.97361161,,,,,,,,,,,,0.7653,1,,,,,,,,,,,,,,,,,,,,,,,,0.710620117,-0.206811523,0,0,0,,,,,,,GREASE,C,z,y,./images/GREASE.png,,,,,,,,,,,,,,,,,,,,z,1,0.7653,,,,,,,,0,111,111,99,1
,,,,,,,,,,,,,,,,,,32,2022-02-12_13h22.51.671,lexical_decision_task_DD_L4,2021.2.3,MacIntel,59.97361161,,,,,,,,,,,,0.8491,1,,,,,,,,,,,,,,,,,,,,,,,,0.710620117,-0.206811523,0,0,0,,,,,,,CHALK,HB,m,y,./images/CHALKHB.png,,,,,,,,,,,,,,,,,,,,m,1,0.8491,,,,,,,,0,112,112,25,1
,,,,,,,,,,,,,,,,,,32,2022-02-12_13h22.51.671,lexical_decision_task_DD_L4,2021.2.3,MacIntel,59.97361161,,,,,,,,,,,,0.7648,0,,,,,,,,,,,,,,,,,,,,,,,,0.710620117,-0.206811523,0,0,0,,,,,,,BANNER,HB,z,y,./images/BANNERHB.png,,,,,,,,,,,,,,,,,,,,m,0,0.7648,,,,,,,,0,113,113,136,1
,,,,,,,,,,,,,,,,,,32,2022-02-12_13h22.51.671,lexical_decision_task_DD_L4,2021.2.3,MacIntel,59.97361161,,,,,,,,,,,,0.7629,1,,,,,,,,,,,,,,,,,,,,,,,,0.710620117,-0.206811523,0,0,0,,,,,,,PISTOL,LB,m,y,./images/PISTOLLB.png,,,,,,,,,,,,,,,,,,,,m,1,0.7629,,,,,,,,0,114,114,29,1
,,,,,,,,,,,,,,,,,,32,2022-02-12_13h22.51.671,lexical_decision_task_DD_L4,2021.2.3,MacIntel,59.97361161,,,,,,,,,,,,0.7691,1,,,,,,,,,,,,,,,,,,,,,,,,0.710620117,-0.206811523,0,0,0,,,,,,,BASKET,LB,m,y,./images/BASKETLB.png,,,,,,,,,,,,,,,,,,,,m,1,0.7691,,,,,,,,0,115,115,44,1
,,,,,,,,,,,,,,,,,,32,2022-02-12_13h22.51.671,lexical_decision_task_DD_L4,2021.2.3,MacIntel,59.97361161,,,,,,,,,,,,3.2835,1,,,,,,,,,,,,,,,,,,,,,,,,0.710620117,-0.206811523,0,0,0,,,,,,,MONKEY,C,m,y,./images/MONKEY.png,,,,,,,,,,,,,,,,,,,,m,1,3.2835,,,,,,,,0,116,116,45,1
,,,,,,,,,,,,,,,,,,32,2022-02-12_13h22.51.671,lexical_decision_task_DD_L4,2021.2.3,MacIntel,59.97361161,,,,,,,,,,,,0.7518,1,,,,,,,,,,,,,,,,,,,,,,,,0.710620117,-0.206811523,0,0,0,,,,,,,STEAK,HB,m,y,./images/STEAKHB.png,,,,,,,,,,,,,,,,,,,,m,1,0.7518,,,,,,,,0,117,117,31,1
,,,,,,,,,,,,,,,,,,32,2022-02-12_13h22.51.671,lexical_decision_task_DD_L4,2021.2.3,MacIntel,59.97361161,,,,,,,,,,,,0.7162,1,,,,,,,,,,,,,,,,,,,,,,,,0.710620117,-0.206811523,0,0,0,,,,,,,TRIPOD,C,z,y,./images/TRIPOD.png,,,,,,,,,,,,,,,,,,,,z,1,0.7162,,,,,,,,0,118,118,138,1
,,,,,,,,,,,,,,,,,,32,2022-02-12_13h22.51.671,lexical_decision_task_DD_L4,2021.2.3,MacIntel,59.97361161,,,,,,,,,,,,1.0093,1,,,,,,,,,,,,,,,,,,,,,,,,0.710620117,-0.206811523,0,0,0,,,,,,,BUBBLE,LB,m,y,./images/BUBBLELB.png,,,,,,,,,,,,,,,,,,,,m,1,1.0093,,,,,,,,0,119,119,71,1
,,,,,,,,,,,,,,,,,,32,2022-02-12_13h22.51.671,lexical_decision_task_DD_L4,2021.2.3,MacIntel,59.97361161,,,,,,,,,,,,0.5929,1,,,,,,,,,,,,,,,,,,,,,,,,0.710620117,-0.206811523,0,0,0,,,,,,,SNAKE,HB,m,y,./images/SNAKEHB.png,,,,,,,,,,,,,,,,,,,,m,1,0.5929,,,,,,,,0,120,120,40,1
,,,,,,,,,,,,,,,,,,32,2022-02-12_13h22.51.671,lexical_decision_task_DD_L4,2021.2.3,MacIntel,59.97361161,,,,,,,,,,,,0.6655,1,,,,,,,,,,,,,,,,,,,,,,,,0.710620117,-0.206811523,0,0,0,,,,,,,MOSQUE,HB,z,y,./images/MOSQUEHB.png,,,,,,,,,,,,,,,,,,,,z,1,0.6655,,,,,,,,0,121,121,127,1
,,,,,,,,,,,,,,,,,,32,2022-02-12_13h22.51.671,lexical_decision_task_DD_L4,2021.2.3,MacIntel,59.97361161,,,,,,,,,,,,0.7651,1,,,,,,,,,,,,,,,,,,,,,,,,0.710620117,-0.206811523,0,0,0,,,,,,,BISHOP,HB,m,y,./images/BISHOPHB.png,,,,,,,,,,,,,,,,,,,,m,1,0.7651,,,,,,,,0,122,122,49,1
,,,,,,,,,,,,,,,,,,32,2022-02-12_13h22.51.671,lexical_decision_task_DD_L4,2021.2.3,MacIntel,59.97361161,,,,,,,,,,,,0.6668,1,,,,,,,,,,,,,,,,,,,,,,,,0.710620117,-0.206811523,0,0,0,,,,,,,PICKLE,LB,z,y,./images/PICKLELB.png,,,,,,,,,,,,,,,,,,,,z,1,0.6668,,,,,,,,0,123,123,98,1
,,,,,,,,,,,,,,,,,,32,2022-02-12_13h22.51.671,lexical_decision_task_DD_L4,2021.2.3,MacIntel,59.97361161,,,,,,,,,,,,0.9994,1,,,,,,,,,,,,,,,,,,,,,,,,0.710620117,-0.206811523,0,0,0,,,,,,,URINE,HB,z,y,./images/URINEHB.png,,,,,,,,,,,,,,,,,,,,z,1,0.9994,,,,,,,,0,124,124,154,1
,,,,,,,,,,,,,,,,,,32,2022-02-12_13h22.51.671,lexical_decision_task_DD_L4,2021.2.3,MacIntel,59.97361161,,,,,,,,,,,,0.7839,0,,,,,,,,,,,,,,,,,,,,,,,,0.710620117,-0.206811523,0,0,0,space,,,,,,STORM,C,z,y,./images/STORM.png,71.9848,,,,,,,,,,,,,,,,,,,m,0,0.7839,,,,,,,,0,125,125,114,1
,,,,,,,,,,,,,,,,,,32,2022-02-12_13h22.51.671,lexical_decision_task_DD_L4,2021.2.3,MacIntel,59.97361161,,,,,,,,,,,,1.0986,0,,,,,,,,,,,,,,,,,,,,,,,,0.710620117,-0.206811523,0,0,0,,,,,,,SUNSET,HB,z,y,./images/SUNSETHB.png,,,,,,,,,,,,,,,,,,,,m,0,1.0986,,,,,,,,0,126,126,166,1
,,,,,,,,,,,,,,,,,,32,2022-02-12_13h22.51.671,lexical_decision_task_DD_L4,2021.2.3,MacIntel,59.97361161,,,,,,,,,,,,0.7507,1,,,,,,,,,,,,,,,,,,,,,,,,0.710620117,-0.206811523,0,0,0,,,,,,,TULIP,LB,z,y,./images/TULIPLB.png,,,,,,,,,,,,,,,,,,,,z,1,0.7507,,,,,,,,0,127,127,92,1
,,,,,,,,,,,,,,,,,,32,2022-02-12_13h22.51.671,lexical_decision_task_DD_L4,2021.2.3,MacIntel,59.97361161,,,,,,,,,,,,0.8672,1,,,,,,,,,,,,,,,,,,,,,,,,0.710620117,-0.206811523,0,0,0,,,,,,,MUSCLE,HB,z,y,./images/MUSCLEHB.png,,,,,,,,,,,,,,,,,,,,z,1,0.8672,,,,,,,,0,128,128,88,1
,,,,,,,,,,,,,,,,,,32,2022-02-12_13h22.51.671,lexical_decision_task_DD_L4,2021.2.3,MacIntel,59.97361161,,,,,,,,,,,,0.6282,1,,,,,,,,,,,,,,,,,,,,,,,,0.710620117,-0.206811523,0,0,0,,,,,,,FLESH,C,m,y,./images/FLESH.png,,,,,,,,,,,,,,,,,,,,m,1,0.6282,,,,,,,,0,129,129,24,1
,,,,,,,,,,,,,,,,,,32,2022-02-12_13h22.51.671,lexical_decision_task_DD_L4,2021.2.3,MacIntel,59.97361161,,,,,,,,,,,,0.8983,0,,,,,,,,,,,,,,,,,,,,,,,,0.710620117,-0.206811523,0,0,0,,,,,,,LADDER,LB,z,y,./images/LADDERLB.png,,,,,,,,,,,,,,,,,,,,m,0,0.8983,,,,,,,,0,130,130,122,1
,,,,,,,,,,,,,,,,,,32,2022-02-12_13h22.51.671,lexical_decision_task_DD_L4,2021.2.3,MacIntel,59.97361161,,,,,,,,,,,,0.7152,1,,,,,,,,,,,,,,,,,,,,,,,,0.710620117,-0.206811523,0,0,0,,,,,,,RULER,HB,m,y,./images/RULERHB.png,,,,,,,,,,,,,,,,,,,,m,1,0.7152,,,,,,,,0,131,131,79,1
,,,,,,,,,,,,,,,,,,32,2022-02-12_13h22.51.671,lexical_decision_task_DD_L4,2021.2.3,MacIntel,59.97361161,,,,,,,,,,,,0.6321,1,,,,,,,,,,,,,,,,,,,,,,,,0.710620117,-0.206811523,0,0,0,,,,,,,WHISKY,LB,m,y,./images/WHISKYLB.png,,,,,,,,,,,,,,,,,,,,m,1,0.6321,,,,,,,,0,132,132,83,1
,,,,,,,,,,,,,,,,,,32,2022-02-12_13h22.51.671,lexical_decision_task_DD_L4,2021.2.3,MacIntel,59.97361161,,,,,,,,,,,,1.1318,1,,,,,,,,,,,,,,,,,,,,,,,,0.710620117,-0.206811523,0,0,0,,,,,,,FOLDER,C,z,y,./images/FOLDER.png,,,,,,,,,,,,,,,,,,,,z,1,1.1318,,,,,,,,0,133,133,126,1
,,,,,,,,,,,,,,,,,,32,2022-02-12_13h22.51.671,lexical_decision_task_DD_L4,2021.2.3,MacIntel,59.97361161,,,,,,,,,,,,0.7828,1,,,,,,,,,,,,,,,,,,,,,,,,0.710620117,-0.206811523,0,0,0,,,,,,,POKER,HB,m,y,./images/POKERHB.png,,,,,,,,,,,,,,,,,,,,m,1,0.7828,,,,,,,,0,134,134,67,1
,,,,,,,,,,,,,,,,,,32,2022-02-12_13h22.51.671,lexical_decision_task_DD_L4,2021.2.3,MacIntel,59.97361161,,,,,,,,,,,,0.5988,1,,,,,,,,,,,,,,,,,,,,,,,,0.710620117,-0.206811523,0,0,0,,,,,,,VALLEY,LB,m,y,./images/VALLEYLB.png,,,,,,,,,,,,,,,,,,,,m,1,0.5988,,,,,,,,0,135,135,68,1
,,,,,,,,,,,,,,,,,,32,2022-02-12_13h22.51.671,lexical_decision_task_DD_L4,2021.2.3,MacIntel,59.97361161,,,,,,,,,,,,0.9161,1,,,,,,,,,,,,,,,,,,,,,,,,0.710620117,-0.206811523,0,0,0,,,,,,,DESERT,HB,m,y,./images/DESERTHB.png,,,,,,,,,,,,,,,,,,,,m,1,0.9161,,,,,,,,0,136,136,52,1
,,,,,,,,,,,,,,,,,,32,2022-02-12_13h22.51.671,lexical_decision_task_DD_L4,2021.2.3,MacIntel,59.97361161,,,,,,,,,,,,0.7679,1,,,,,,,,,,,,,,,,,,,,,,,,0.710620117,-0.206811523,0,0,0,,,,,,,BANANA,HB,m,y,./images/BANANAHB.png,,,,,,,,,,,,,,,,,,,,m,1,0.7679,,,,,,,,0,137,137,70,1
,,,,,,,,,,,,,,,,,,32,2022-02-12_13h22.51.671,lexical_decision_task_DD_L4,2021.2.3,MacIntel,59.97361161,,,,,,,,,,,,0.7516,1,,,,,,,,,,,,,,,,,,,,,,,,0.710620117,-0.206811523,0,0,0,,,,,,,BEARD,LB,z,y,./images/BEARDLB.png,,,,,,,,,,,,,,,,,,,,z,1,0.7516,,,,,,,,0,138,138,86,1
,,,,,,,,,,,,,,,,,,32,2022-02-12_13h22.51.671,lexical_decision_task_DD_L4,2021.2.3,MacIntel,59.97361161,,,,,,,,,,,,0.8526,1,,,,,,,,,,,,,,,,,,,,,,,,0.710620117,-0.206811523,0,0,0,,,,,,,CANDY,C,m,y,./images/CANDY.png,,,,,,,,,,,,,,,,,,,,m,1,0.8526,,,,,,,,0,139,139,39,1
,,,,,,,,,,,,,,,,,,32,2022-02-12_13h22.51.671,lexical_decision_task_DD_L4,2021.2.3,MacIntel,59.97361161,,,,,,,,,,,,0.9331,0,,,,,,,,,,,,,,,,,,,,,,,,0.710620117,-0.206811523,0,0,0,,,,,,,PURSE,LB,z,y,./images/PURSELB.png,,,,,,,,,,,,,,,,,,,,m,0,0.9331,,,,,,,,0,140,140,146,1
,,,,,,,,,,,,,,,,,,32,2022-02-12_13h22.51.671,lexical_decision_task_DD_L4,2021.2.3,MacIntel,59.97361161,,,,,,,,,,,,0.6996,1,,,,,,,,,,,,,,,,,,,,,,,,0.710620117,-0.206811523,0,0,0,,,,,,,BUTTER,C,m,y,./images/BUTTER.png,,,,,,,,,,,,,,,,,,,,m,1,0.6996,,,,,,,,0,141,141,27,1
,,,,,,,,,,,,,,,,,,32,2022-02-12_13h22.51.671,lexical_decision_task_DD_L4,2021.2.3,MacIntel,59.97361161,,,,,,,,,,,,0.6991,1,,,,,,,,,,,,,,,,,,,,,,,,0.710620117,-0.206811523,0,0,0,,,,,,,FENCE,LB,m,y,./images/FENCELB.png,,,,,,,,,,,,,,,,,,,,m,1,0.6991,,,,,,,,0,142,142,14,1
,,,,,,,,,,,,,,,,,,32,2022-02-12_13h22.51.671,lexical_decision_task_DD_L4,2021.2.3,MacIntel,59.97361161,,,,,,,,,,,,0.7869,0,,,,,,,,,,,,,,,,,,,,,,,,0.710620117,-0.206811523,0,0,0,,,,,,,COUCH,LB,z,y,./images/COUCHLB.png,,,,,,,,,,,,,,,,,,,,m,0,0.7869,,,,,,,,0,143,143,161,1
,,,,,,,,,,,,,,,,,,32,2022-02-12_13h22.51.671,lexical_decision_task_DD_L4,2021.2.3,MacIntel,59.97361161,,,,,,,,,,,,0.6665,0,,,,,,,,,,,,,,,,,,,,,,,,0.710620117,-0.206811523,0,0,0,,,,,,,BERRY,LB,z,y,./images/BERRYLB.png,,,,,,,,,,,,,,,,,,,,m,0,0.6665,,,,,,,,0,144,144,131,1
,,,,,,,,,,,,,,,,,,32,2022-02-12_13h22.51.671,lexical_decision_task_DD_L4,2021.2.3,MacIntel,59.97361161,,,,,,,,,,,,0.8799,0,,,,,,,,,,,,,,,,,,,,,,,,0.710620117,-0.206811523,0,0,0,,,,,,,GARDEN,HB,m,y,./images/GARDENHB.png,,,,,,,,,,,,,,,,,,,,z,0,0.8799,,,,,,,,0,145,145,10,1
,,,,,,,,,,,,,,,,,,32,2022-02-12_13h22.51.671,lexical_decision_task_DD_L4,2021.2.3,MacIntel,59.97361161,,,,,,,,,,,,0.6984,1,,,,,,,,,,,,,,,,,,,,,,,,0.710620117,-0.206811523,0,0,0,,,,,,,SPINE,LB,m,y,./images/SPINELB.png,,,,,,,,,,,,,,,,,,,,m,1,0.6984,,,,,,,,0,146,146,65,1
,,,,,,,,,,,,,,,,,,32,2022-02-12_13h22.51.671,lexical_decision_task_DD_L4,2021.2.3,MacIntel,59.97361161,,,,,,,,,,,,0.6465,0,,,,,,,,,,,,,,,,,,,,,,,,0.710620117,-0.206811523,0,0,0,,,,,,,BARREL,LB,z,y,./images/BARRELLB.png,,,,,,,,,,,,,,,,,,,,m,0,0.6465,,,,,,,,0,147,147,116,1
,,,,,,,,,,,,,,,,,,32,2022-02-12_13h22.51.671,lexical_decision_task_DD_L4,2021.2.3,MacIntel,59.97361161,,,,,,,,,,,,1.0838,1,,,,,,,,,,,,,,,,,,,,,,,,0.710620117,-0.206811523,0,0,0,,,,,,,MALLET,LB,z,y,./images/MALLETLB.png,,,,,,,,,,,,,,,,,,,,z,1,1.0838,,,,,,,,0,148,148,134,1
,,,,,,,,,,,,,,,,,,32,2022-02-12_13h22.51.671,lexical_decision_task_DD_L4,2021.2.3,MacIntel,59.97361161,,,,,,,,,,,,0.7529,1,,,,,,,,,,,,,,,,,,,,,,,,0.710620117,-0.206811523,0,0,0,,,,,,,STAIN,C,m,y,./images/STAIN.png,,,,,,,,,,,,,,,,,,,,m,1,0.7529,,,,,,,,0,149,149,6,1
,,,,,,,,,,,,,,,,,,32,2022-02-12_13h22.51.671,lexical_decision_task_DD_L4,2021.2.3,MacIntel,59.97361161,,,,,,,,,,,,0.7156,1,,,,,,,,,,,,,,,,,,,,,,,,0.710620117,-0.206811523,0,0,0,,,,,,,LITTER,C,z,y,./images/LITTER.png,,,,,,,,,,,,,,,,,,,,z,1,0.7156,,,,,,,,0,150,150,162,1
,,,,,,,,,,,,,,,,,,32,2022-02-12_13h22.51.671,lexical_decision_task_DD_L4,2021.2.3,MacIntel,59.97361161,,,,,,,,,,,,0.7828,0,,,,,,,,,,,,,,,,,,,,,,,,0.710620117,-0.206811523,0,0,0,,,,,,,SWEAT,C,z,y,./images/SWEAT.png,,,,,,,,,,,,,,,,,,,,m,0,0.7828,,,,,,,,0,151,151,150,1
,,,,,,,,,,,,,,,,,,32,2022-02-12_13h22.51.671,lexical_decision_task_DD_L4,2021.2.3,MacIntel,59.97361161,,,,,,,,,,,,0.716,1,,,,,,,,,,,,,,,,,,,,,,,,0.710620117,-0.206811523,0,0,0,,,,,,,STOVE,LB,m,y,./images/STOVELB.png,,,,,,,,,,,,,,,,,,,,m,1,0.716,,,,,,,,0,152,152,2,1
,,,,,,,,,,,,,,,,,,32,2022-02-12_13h22.51.671,lexical_decision_task_DD_L4,2021.2.3,MacIntel,59.97361161,,,,,,,,,,,,0.763,1,,,,,,,,,,,,,,,,,,,,,,,,0.710620117,-0.206811523,0,0,0,,,,,,,CURRY,C,m,y,./images/CURRY.png,,,,,,,,,,,,,,,,,,,,m,1,0.763,,,,,,,,0,153,153,60,1
,,,,,,,,,,,,,,,,,,32,2022-02-12_13h22.51.671,lexical_decision_task_DD_L4,2021.2.3,MacIntel,59.97361161,,,,,,,,,,,,0.8494,1,,,,,,,,,,,,,,,,,,,,,,,,0.710620117,-0.206811523,0,0,0,,,,,,,HEATER,LB,m,y,./images/HEATERLB.png,,,,,,,,,,,,,,,,,,,,m,1,0.8494,,,,,,,,0,154,154,56,1
,,,,,,,,,,,,,,,,,,32,2022-02-12_13h22.51.671,lexical_decision_task_DD_L4,2021.2.3,MacIntel,59.97361161,,,,,,,,,,,,0.7666,1,,,,,,,,,,,,,,,,,,,,,,,,0.710620117,-0.206811523,0,0,0,,,,,,,MELON,HB,z,y,./images/MELONHB.png,,,,,,,,,,,,,,,,,,,,z,1,0.7666,,,,,,,,0,155,155,106,1
,,,,,,,,,,,,,,,,,,32,2022-02-12_13h22.51.671,lexical_decision_task_DD_L4,2021.2.3,MacIntel,59.97361161,,,,,,,,,,,,1.0808,1,,,,,,,,,,,,,,,,,,,,,,,,0.710620117,-0.206811523,0,0,0,,,,,,,PACKET,LB,z,y,./images/PACKETLB.png,,,,,,,,,,,,,,,,,,,,z,1,1.0808,,,,,,,,0,156,156,140,1
,,,,,,,,,,,,,,,,,,32,2022-02-12_13h22.51.671,lexical_decision_task_DD_L4,2021.2.3,MacIntel,59.97361161,,,,,,,,,,,,0.7,1,,,,,,,,,,,,,,,,,,,,,,,,0.710620117,-0.206811523,0,0,0,,,,,,,WRIST,HB,z,y,./images/WRISTHB.png,,,,,,,,,,,,,,,,,,,,z,1,0.7,,,,,,,,0,157,157,109,1
