key_resp.keys,instr_done_touch.x,instr_done_touch.y,instr_done_touch.leftButton,instr_done_touch.midButton,instr_done_touch.rightButton,instr_done_touch.clicked_name,instruction_pages.thisRepN,instruction_pages.thisTrialN,instruction_pages.thisN,instruction_pages.thisIndex,instruction_pages.ran,pageN,phase,instruct_text,has_image,instruct_image,participant,age,date,expName,psychopyVersion,OS,frameRate,response.keys,response.corr,response.rt,touch_resp.x,touch_resp.y,touch_resp.leftButton,touch_resp.midButton,touch_resp.rightButton,touch_resp.time,touch_resp.clicked_name,rt,corr,practrials.thisRepN,practrials.thisTrialN,practrials.thisN,practrials.thisIndex,practrials.ran,TrialID,Target,corrAns,key_resp.rt,end_of_practice_trials_pages.thisRepN,end_of_practice_trials_pages.thisTrialN,end_of_practice_trials_pages.thisN,end_of_practice_trials_pages.thisIndex,end_of_practice_trials_pages.ran,key_resp_2.keys,key_resp_2.corr,key_resp_2.rt,targ_click.x,targ_click.y,targ_click.leftButton,targ_click.midButton,targ_click.rightButton,targ_click.time,targ_click.clicked_name,break_done_touch.x,break_done_touch.y,break_done_touch.leftButton,break_done_touch.midButton,break_done_touch.rightButton,break_done_keyboard.keys,maintrials.thisRepN,maintrials.thisTrialN,maintrials.thisN,maintrials.thisIndex,maintrials.ran,string,blur,study,lex,stim_path,break_done_keyboard.rt,mouse_2.x,mouse_2.y,mouse_2.leftButton,mouse_2.midButton,mouse_2.rightButton,mouse_2.clicked_name,slider.response,slider.rt,trials.thisRepN,trials.thisTrialN,trials.thisN,trials.thisIndex,trials.ran,test_instructions.thisRepN,test_instructions.thisTrialN,test_instructions.thisN,test_instructions.thisIndex,test_instructions.ran,key_resp_3.keys,key_resp_3.corr,key_resp_3.rt,test_click.x,test_click.y,test_click.leftButton,test_click.midButton,test_click.rightButton,test_click.time,test_click.clicked_name,test_phase.thisRepN,test_phase.thisTrialN,test_phase.thisN,test_phase.thisIndex,test_phase.ran,break_done_touch.clicked_name
,0.079551838,-0.398879565,1,0,0,instr_done_button,0,0,0,0,1,1,instructions,"INSTRUCTIONS
At the start of each trial, look at the plus sign  (+) in the center of the screen.  This tells you that a trial is about to begin and where to look. Second, the plus sign will disappear and a string of letters will appear. Your task is to determine if the string of letters is a word or not. If the item is a word press the M key (on keyboard)  or touch the word button (phone/tablet).  If the item is not a word,  press the  Z key (on keyboard)  or touch the nonword button (on phone/tablet). 
Press the space bar or touch  continue.",0,,,33,2022-02-12_11h46.43.714,lexical_decision_task_DD_L4,2021.2.3,Win32,60.41931001,,,,,,,,,,,,,,,,,,,,,,,,,,,,,,,,,,,,,,,,,,,,,,,,,,,,,,,,,,,,,,,,,,,,,,,,,,,,,,,,,,,,,,,
,0.020168084,-0.397759117,1,0,0,instr_done_button,0,1,1,1,1,2,instructions,"If your device has a keyboard, press the 'Z' key for nonwords and the 'M' key for words.





Press the space bar or touch the button below to continue.",0,keyboard-example.gif,,33,2022-02-12_11h46.43.714,lexical_decision_task_DD_L4,2021.2.3,Win32,60.41931001,,,,,,,,,,,,,,,,,,,,,,,,,,,,,,,,,,,,,,,,,,,,,,,,,,,,,,,,,,,,,,,,,,,,,,,,,,,,,,,,,,,,,,,
,0.03473391,-0.38991598,1,0,0,instr_done_button,0,2,2,2,1,3,instructions,"If you are using a touchscreen only device, use the buttons on the screen. Do not use the mouse.





Press the space bar or touch the button below to continue.",0,touchscreen-example.gif,,33,2022-02-12_11h46.43.714,lexical_decision_task_DD_L4,2021.2.3,Win32,60.41931001,,,,,,,,,,,,,,,,,,,,,,,,,,,,,,,,,,,,,,,,,,,,,,,,,,,,,,,,,,,,,,,,,,,,,,,,,,,,,,,,,,,,,,,
,0.03473391,-0.38991598,1,0,0,instr_done_button,0,3,3,3,1,4,instructions,"It is very important that you respond as quickly and accurately as possible, as each letter string will only be on the screen for two seconds. If you do not respond within this time, the message 'Too slow!' will be displayed and the experiment will progress to the next letter string. The first 20 trials will be practice trials and you will receive feedback on your answers. 

Press the space bar or touch the button below to start the practice trials.",0,,,33,2022-02-12_11h46.43.714,lexical_decision_task_DD_L4,2021.2.3,Win32,60.41931001,,,,,,,,,,,,,,,,,,,,,,,,,,,,,,,,,,,,,,,,,,,,,,,,,,,,,,,,,,,,,,,,,,,,,,,,,,,,,,,,,,,,,,,
,,,,,,,,,,,,,,,,,,33,2022-02-12_11h46.43.714,lexical_decision_task_DD_L4,2021.2.3,Win32,60.41931001,z,1,0.9826,,,,,,,,0.9826,1,0,0,0,13,1,1001,ROUPET,z,,,,,,,,,,,,,,,,,,,,,,,,,,,,,,,,,,,,,,,,,,,,,,,,,,,,,,,,,,,,,,,,,,,
,,,,,,,,,,,,,,,,,,33,2022-02-12_11h46.43.714,lexical_decision_task_DD_L4,2021.2.3,Win32,60.41931001,z,1,0.634,,,,,,,,0.634,1,0,1,1,15,1,1001,WHAISE,z,,,,,,,,,,,,,,,,,,,,,,,,,,,,,,,,,,,,,,,,,,,,,,,,,,,,,,,,,,,,,,,,,,,
,,,,,,,,,,,,,,,,,,33,2022-02-12_11h46.43.714,lexical_decision_task_DD_L4,2021.2.3,Win32,60.41931001,m,0,0.8013,,,,,,,,0.8013,0,0,2,2,10,1,1001,INLADE,z,,,,,,,,,,,,,,,,,,,,,,,,,,,,,,,,,,,,,,,,,,,,,,,,,,,,,,,,,,,,,,,,,,,
,,,,,,,,,,,,,,,,,,33,2022-02-12_11h46.43.714,lexical_decision_task_DD_L4,2021.2.3,Win32,60.41931001,m,1,0.6228,,,,,,,,0.6228,1,0,3,3,6,1,1001,ZOMBIE,m,,,,,,,,,,,,,,,,,,,,,,,,,,,,,,,,,,,,,,,,,,,,,,,,,,,,,,,,,,,,,,,,,,,
,,,,,,,,,,,,,,,,,,33,2022-02-12_11h46.43.714,lexical_decision_task_DD_L4,2021.2.3,Win32,60.41931001,z,1,0.6578,,,,,,,,0.6578,1,0,4,4,14,1,1001,THRALE,z,,,,,,,,,,,,,,,,,,,,,,,,,,,,,,,,,,,,,,,,,,,,,,,,,,,,,,,,,,,,,,,,,,,
,,,,,,,,,,,,,,,,,,33,2022-02-12_11h46.43.714,lexical_decision_task_DD_L4,2021.2.3,Win32,60.41931001,z,1,0.8666,,,,,,,,0.8666,1,0,5,5,11,1,1001,RASHET,z,,,,,,,,,,,,,,,,,,,,,,,,,,,,,,,,,,,,,,,,,,,,,,,,,,,,,,,,,,,,,,,,,,,
,,,,,,,,,,,,,,,,,,33,2022-02-12_11h46.43.714,lexical_decision_task_DD_L4,2021.2.3,Win32,60.41931001,m,1,0.5681,,,,,,,,0.5681,1,0,6,6,7,1,1001,VOLUME,m,,,,,,,,,,,,,,,,,,,,,,,,,,,,,,,,,,,,,,,,,,,,,,,,,,,,,,,,,,,,,,,,,,,
,,,,,,,,,,,,,,,,,,33,2022-02-12_11h46.43.714,lexical_decision_task_DD_L4,2021.2.3,Win32,60.41931001,m,1,0.6575,,,,,,,,0.6575,1,0,7,7,0,1,1001,UTOPIA,m,,,,,,,,,,,,,,,,,,,,,,,,,,,,,,,,,,,,,,,,,,,,,,,,,,,,,,,,,,,,,,,,,,,
,,,,,,,,,,,,,,,,,,33,2022-02-12_11h46.43.714,lexical_decision_task_DD_L4,2021.2.3,Win32,60.41931001,m,1,0.5191,,,,,,,,0.5191,1,0,8,8,4,1,1001,SQUEAK,m,,,,,,,,,,,,,,,,,,,,,,,,,,,,,,,,,,,,,,,,,,,,,,,,,,,,,,,,,,,,,,,,,,,
,,,,,,,,,,,,,,,,,,33,2022-02-12_11h46.43.714,lexical_decision_task_DD_L4,2021.2.3,Win32,60.41931001,z,1,0.6059,,,,,,,,0.6059,1,0,9,9,9,1,1001,FARINY,z,,,,,,,,,,,,,,,,,,,,,,,,,,,,,,,,,,,,,,,,,,,,,,,,,,,,,,,,,,,,,,,,,,,
,,,,,,,,,,,,,,,,,,33,2022-02-12_11h46.43.714,lexical_decision_task_DD_L4,2021.2.3,Win32,60.41931001,m,1,0.6686,,,,,,,,0.6686,1,0,10,10,3,1,1001,MATRIX,m,,,,,,,,,,,,,,,,,,,,,,,,,,,,,,,,,,,,,,,,,,,,,,,,,,,,,,,,,,,,,,,,,,,
,,,,,,,,,,,,,,,,,,33,2022-02-12_11h46.43.714,lexical_decision_task_DD_L4,2021.2.3,Win32,60.41931001,z,1,0.569,,,,,,,,0.569,1,0,11,11,8,1,1001,ASLERT,z,,,,,,,,,,,,,,,,,,,,,,,,,,,,,,,,,,,,,,,,,,,,,,,,,,,,,,,,,,,,,,,,,,,
,,,,,,,,,,,,,,,,,,33,2022-02-12_11h46.43.714,lexical_decision_task_DD_L4,2021.2.3,Win32,60.41931001,m,1,0.568,,,,,,,,0.568,1,0,12,12,5,1,1001,OBTAIN,m,,,,,,,,,,,,,,,,,,,,,,,,,,,,,,,,,,,,,,,,,,,,,,,,,,,,,,,,,,,,,,,,,,,
,,,,,,,,,,,,,,,,,,33,2022-02-12_11h46.43.714,lexical_decision_task_DD_L4,2021.2.3,Win32,60.41931001,m,1,0.519,,,,,,,,0.519,1,0,13,13,2,1,1001,ALMOND,m,,,,,,,,,,,,,,,,,,,,,,,,,,,,,,,,,,,,,,,,,,,,,,,,,,,,,,,,,,,,,,,,,,,
,,,,,,,,,,,,,,,,,,33,2022-02-12_11h46.43.714,lexical_decision_task_DD_L4,2021.2.3,Win32,60.41931001,m,1,0.6227,,,,,,,,0.6227,1,0,14,14,1,1,1001,ADJUST,m,,,,,,,,,,,,,,,,,,,,,,,,,,,,,,,,,,,,,,,,,,,,,,,,,,,,,,,,,,,,,,,,,,,
,,,,,,,,,,,,,,,,,,33,2022-02-12_11h46.43.714,lexical_decision_task_DD_L4,2021.2.3,Win32,60.41931001,z,1,0.6511,,,,,,,,0.6511,1,0,15,15,12,1,1001,SPRINY,z,,,,,,,,,,,,,,,,,,,,,,,,,,,,,,,,,,,,,,,,,,,,,,,,,,,,,,,,,,,,,,,,,,,
space,0.545658287,-0.218487406,0,0,0,,,,,,,1,end_of_practice,"You have completed the practice trials. During the experimental trials, you will not receive feedback. 
Before you begin, please ensure that you are in a comfortable and quiet location and will not be disturbed for about 15 minutes, as we cannot use your data if you do not complete all the trials. 
 When you are ready to start the experimental trials, please press space or touch the button below.",,,,33,2022-02-12_11h46.43.714,lexical_decision_task_DD_L4,2021.2.3,Win32,60.41931001,,,,,,,,,,,,,,,,,,,,,2.6403,0,0,0,0,1,,,,,,,,,,,,,,,,,,,,,,,,,,,,,,,,,,,,,,,,,,,,,,,,,,,,,,,,,,,,,
,,,,,,,,,,,,,,,,,,33,2022-02-12_11h46.43.714,lexical_decision_task_DD_L4,2021.2.3,Win32,60.41931001,,,,,,,,,,,0.6341,1,,,,,,,,,,,,,,,z,1,0.6341,,,,,,,,0.545658287,-0.218487406,0,0,0,,0,0,0,95,1,HANTY,LB,old,z,./images/HANTYLB.png,,,,,,,,,,,,,,,,,,,,,,,,,,,,,,,,,,,
,,,,,,,,,,,,,,,,,,33,2022-02-12_11h46.43.714,lexical_decision_task_DD_L4,2021.2.3,Win32,60.41931001,,,,,,,,,,,0.4689,0,,,,,,,,,,,,,,,z,0,0.4689,,,,,,,,0.545658287,-0.218487406,0,0,0,,0,1,1,65,1,SPINE,LB,old,m,./images/SPINELB.png,,,,,,,,,,,,,,,,,,,,,,,,,,,,,,,,,,,
,,,,,,,,,,,,,,,,,,33,2022-02-12_11h46.43.714,lexical_decision_task_DD_L4,2021.2.3,Win32,60.41931001,,,,,,,,,,,1.1577,0,,,,,,,,,,,,,,,m,0,1.1577,,,,,,,,0.545658287,-0.218487406,0,0,0,,0,2,2,148,1,JOMS,HB,old,z,./images/JOMSHB.png,,,,,,,,,,,,,,,,,,,,,,,,,,,,,,,,,,,
,,,,,,,,,,,,,,,,,,33,2022-02-12_11h46.43.714,lexical_decision_task_DD_L4,2021.2.3,Win32,60.41931001,,,,,,,,,,,0.9251,0,,,,,,,,,,,,,,,m,0,0.9251,,,,,,,,0.545658287,-0.218487406,0,0,0,,0,3,3,97,1,CHIDS,HB,old,z,./images/CHIDSHB.png,,,,,,,,,,,,,,,,,,,,,,,,,,,,,,,,,,,
,,,,,,,,,,,,,,,,,,33,2022-02-12_11h46.43.714,lexical_decision_task_DD_L4,2021.2.3,Win32,60.41931001,,,,,,,,,,,0.8,1,,,,,,,,,,,,,,,z,1,0.8,,,,,,,,0.545658287,-0.218487406,0,0,0,,0,4,4,147,1,ZOLES,C,old,z,./images/ZOLES.png,,,,,,,,,,,,,,,,,,,,,,,,,,,,,,,,,,,
,,,,,,,,,,,,,,,,,,33,2022-02-12_11h46.43.714,lexical_decision_task_DD_L4,2021.2.3,Win32,60.41931001,,,,,,,,,,,0.7843,1,,,,,,,,,,,,,,,m,1,0.7843,,,,,,,,0.545658287,-0.218487406,0,0,0,,0,5,5,7,1,WAGON,HB,old,m,./images/WAGONHB.png,,,,,,,,,,,,,,,,,,,,,,,,,,,,,,,,,,,
,,,,,,,,,,,,,,,,,,33,2022-02-12_11h46.43.714,lexical_decision_task_DD_L4,2021.2.3,Win32,60.41931001,,,,,,,,,,,0.6505,1,,,,,,,,,,,,,,,m,1,0.6505,,,,,,,,0.545658287,-0.218487406,0,0,0,,0,6,6,60,1,CURRY,C,old,m,./images/CURRY.png,,,,,,,,,,,,,,,,,,,,,,,,,,,,,,,,,,,
,,,,,,,,,,,,,,,,,,33,2022-02-12_11h46.43.714,lexical_decision_task_DD_L4,2021.2.3,Win32,60.41931001,,,,,,,,,,,0.6514,1,,,,,,,,,,,,,,,z,1,0.6514,,,,,,,,0.545658287,-0.218487406,0,0,0,,0,7,7,144,1,NAIRY,C,old,z,./images/NAIRY.png,,,,,,,,,,,,,,,,,,,,,,,,,,,,,,,,,,,
,,,,,,,,,,,,,,,,,,33,2022-02-12_11h46.43.714,lexical_decision_task_DD_L4,2021.2.3,Win32,60.41931001,,,,,,,,,,,0.6,1,,,,,,,,,,,,,,,m,1,0.6,,,,,,,,0.545658287,-0.218487406,0,0,0,,0,8,8,14,1,FENCE,LB,old,m,./images/FENCELB.png,,,,,,,,,,,,,,,,,,,,,,,,,,,,,,,,,,,
,,,,,,,,,,,,,,,,,,33,2022-02-12_11h46.43.714,lexical_decision_task_DD_L4,2021.2.3,Win32,60.41931001,,,,,,,,,,,0.4848,1,,,,,,,,,,,,,,,m,1,0.4848,,,,,,,,0.545658287,-0.218487406,0,0,0,,0,9,9,38,1,ENGINE,LB,old,m,./images/ENGINELB.png,,,,,,,,,,,,,,,,,,,,,,,,,,,,,,,,,,,
,,,,,,,,,,,,,,,,,,33,2022-02-12_11h46.43.714,lexical_decision_task_DD_L4,2021.2.3,Win32,60.41931001,,,,,,,,,,,0.5167,1,,,,,,,,,,,,,,,m,1,0.5167,,,,,,,,0.545658287,-0.218487406,0,0,0,,0,10,10,51,1,SAUCE,C,old,m,./images/SAUCE.png,,,,,,,,,,,,,,,,,,,,,,,,,,,,,,,,,,,
,,,,,,,,,,,,,,,,,,33,2022-02-12_11h46.43.714,lexical_decision_task_DD_L4,2021.2.3,Win32,60.41931001,,,,,,,,,,,1.2104,1,,,,,,,,,,,,,,,z,1,1.2104,,,,,,,,0.545658287,-0.218487406,0,0,0,,0,11,11,118,1,BAVEL,HB,old,z,./images/BAVELHB.png,,,,,,,,,,,,,,,,,,,,,,,,,,,,,,,,,,,
,,,,,,,,,,,,,,,,,,33,2022-02-12_11h46.43.714,lexical_decision_task_DD_L4,2021.2.3,Win32,60.41931001,,,,,,,,,,,0.6852,0,,,,,,,,,,,,,,,m,0,0.6852,,,,,,,,0.545658287,-0.218487406,0,0,0,,0,12,12,92,1,PAIMS,LB,old,z,./images/PAIMSLB.png,,,,,,,,,,,,,,,,,,,,,,,,,,,,,,,,,,,
,,,,,,,,,,,,,,,,,,33,2022-02-12_11h46.43.714,lexical_decision_task_DD_L4,2021.2.3,Win32,60.41931001,,,,,,,,,,,0.5362,1,,,,,,,,,,,,,,,m,1,0.5362,,,,,,,,0.545658287,-0.218487406,0,0,0,,0,13,13,44,1,BASKET,LB,old,m,./images/BASKETLB.png,,,,,,,,,,,,,,,,,,,,,,,,,,,,,,,,,,,
,,,,,,,,,,,,,,,,,,33,2022-02-12_11h46.43.714,lexical_decision_task_DD_L4,2021.2.3,Win32,60.41931001,,,,,,,,,,,0.5631,1,,,,,,,,,,,,,,,m,1,0.5631,,,,,,,,0.545658287,-0.218487406,0,0,0,,0,14,14,21,1,DANCER,C,old,m,./images/DANCER.png,,,,,,,,,,,,,,,,,,,,,,,,,,,,,,,,,,,
,,,,,,,,,,,,,,,,,,33,2022-02-12_11h46.43.714,lexical_decision_task_DD_L4,2021.2.3,Win32,60.41931001,,,,,,,,,,,0.7032,1,,,,,,,,,,,,,,,m,1,0.7032,,,,,,,,0.545658287,-0.218487406,0,0,0,,0,15,15,47,1,LAGOON,LB,old,m,./images/LAGOONLB.png,,,,,,,,,,,,,,,,,,,,,,,,,,,,,,,,,,,
,,,,,,,,,,,,,,,,,,33,2022-02-12_11h46.43.714,lexical_decision_task_DD_L4,2021.2.3,Win32,60.41931001,,,,,,,,,,,0.7329,1,,,,,,,,,,,,,,,z,1,0.7329,,,,,,,,0.545658287,-0.218487406,0,0,0,,0,16,16,123,1,SEDGE,C,old,z,./images/SEDGE.png,,,,,,,,,,,,,,,,,,,,,,,,,,,,,,,,,,,
,,,,,,,,,,,,,,,,,,33,2022-02-12_11h46.43.714,lexical_decision_task_DD_L4,2021.2.3,Win32,60.41931001,,,,,,,,,,,0.5073,1,,,,,,,,,,,,,,,m,1,0.5073,,,,,,,,0.545658287,-0.218487406,0,0,0,,0,17,17,5,1,BAMBOO,LB,old,m,./images/BAMBOOLB.png,,,,,,,,,,,,,,,,,,,,,,,,,,,,,,,,,,,
,,,,,,,,,,,,,,,,,,33,2022-02-12_11h46.43.714,lexical_decision_task_DD_L4,2021.2.3,Win32,60.41931001,,,,,,,,,,,0.7499,1,,,,,,,,,,,,,,,z,1,0.7499,,,,,,,,0.545658287,-0.218487406,0,0,0,,0,18,18,91,1,SHENS,HB,old,z,./images/SHENSHB.png,,,,,,,,,,,,,,,,,,,,,,,,,,,,,,,,,,,
,,,,,,,,,,,,,,,,,,33,2022-02-12_11h46.43.714,lexical_decision_task_DD_L4,2021.2.3,Win32,60.41931001,,,,,,,,,,,0.5072,1,,,,,,,,,,,,,,,m,1,0.5072,,,,,,,,0.545658287,-0.218487406,0,0,0,,0,19,19,15,1,COLLAR,C,old,m,./images/COLLAR.png,,,,,,,,,,,,,,,,,,,,,,,,,,,,,,,,,,,
,,,,,,,,,,,,,,,,,,33,2022-02-12_11h46.43.714,lexical_decision_task_DD_L4,2021.2.3,Win32,60.41931001,,,,,,,,,,,0.8942,1,,,,,,,,,,,,,,,z,1,0.8942,,,,,,,,0.545658287,-0.218487406,0,0,0,,0,20,20,137,1,JOOST,LB,old,z,./images/JOOSTLB.png,,,,,,,,,,,,,,,,,,,,,,,,,,,,,,,,,,,
,,,,,,,,,,,,,,,,,,33,2022-02-12_11h46.43.714,lexical_decision_task_DD_L4,2021.2.3,Win32,60.41931001,,,,,,,,,,,1.6152,1,,,,,,,,,,,,,,,z,1,1.6152,,,,,,,,0.545658287,-0.218487406,0,0,0,,0,21,21,112,1,MYING,HB,old,z,./images/MYINGHB.png,,,,,,,,,,,,,,,,,,,,,,,,,,,,,,,,,,,
,,,,,,,,,,,,,,,,,,33,2022-02-12_11h46.43.714,lexical_decision_task_DD_L4,2021.2.3,Win32,60.41931001,,,,,,,,,,,0.8524,1,,,,,,,,,,,,,,,m,1,0.8524,,,,,,,,0.545658287,-0.218487406,0,0,0,,0,22,22,40,1,SNAKE,HB,old,m,./images/SNAKEHB.png,,,,,,,,,,,,,,,,,,,,,,,,,,,,,,,,,,,
,,,,,,,,,,,,,,,,,,33,2022-02-12_11h46.43.714,lexical_decision_task_DD_L4,2021.2.3,Win32,60.41931001,,,,,,,,,,,0.5819,1,,,,,,,,,,,,,,,z,1,0.5819,,,,,,,,0.545658287,-0.218487406,0,0,0,,0,23,23,129,1,PRANS,C,old,z,./images/PRANS.png,,,,,,,,,,,,,,,,,,,,,,,,,,,,,,,,,,,
,,,,,,,,,,,,,,,,,,33,2022-02-12_11h46.43.714,lexical_decision_task_DD_L4,2021.2.3,Win32,60.41931001,,,,,,,,,,,0.7278,1,,,,,,,,,,,,,,,z,1,0.7278,,,,,,,,0.545658287,-0.218487406,0,0,0,,0,24,24,101,1,GLEET,LB,old,z,./images/GLEETLB.png,,,,,,,,,,,,,,,,,,,,,,,,,,,,,,,,,,,
,,,,,,,,,,,,,,,,,,33,2022-02-12_11h46.43.714,lexical_decision_task_DD_L4,2021.2.3,Win32,60.41931001,,,,,,,,,,,0.6005,1,,,,,,,,,,,,,,,z,1,0.6005,,,,,,,,0.545658287,-0.218487406,0,0,0,,0,25,25,159,1,CUDDY,C,old,z,./images/CUDDY.png,,,,,,,,,,,,,,,,,,,,,,,,,,,,,,,,,,,
,,,,,,,,,,,,,,,,,,33,2022-02-12_11h46.43.714,lexical_decision_task_DD_L4,2021.2.3,Win32,60.41931001,,,,,,,,,,,0.8668,1,,,,,,,,,,,,,,,z,1,0.8668,,,,,,,,0.545658287,-0.218487406,0,0,0,,0,26,26,133,1,POWDY,HB,old,z,./images/POWDYHB.png,,,,,,,,,,,,,,,,,,,,,,,,,,,,,,,,,,,
,,,,,,,,,,,,,,,,,,33,2022-02-12_11h46.43.714,lexical_decision_task_DD_L4,2021.2.3,Win32,60.41931001,,,,,,,,,,,0.5847,1,,,,,,,,,,,,,,,z,1,0.5847,,,,,,,,0.545658287,-0.218487406,0,0,0,,0,27,27,108,1,GRUET,C,old,z,./images/GRUET.png,,,,,,,,,,,,,,,,,,,,,,,,,,,,,,,,,,,
,,,,,,,,,,,,,,,,,,33,2022-02-12_11h46.43.714,lexical_decision_task_DD_L4,2021.2.3,Win32,60.41931001,,,,,,,,,,,0.5657,1,,,,,,,,,,,,,,,m,1,0.5657,,,,,,,,0.545658287,-0.218487406,0,0,0,,0,28,28,69,1,ARROW,C,old,m,./images/ARROW.png,,,,,,,,,,,,,,,,,,,,,,,,,,,,,,,,,,,
,,,,,,,,,,,,,,,,,,33,2022-02-12_11h46.43.714,lexical_decision_task_DD_L4,2021.2.3,Win32,60.41931001,,,,,,,,,,,0.5392,1,,,,,,,,,,,,,,,z,1,0.5392,,,,,,,,0.545658287,-0.218487406,0,0,0,,0,29,29,102,1,DULLE,C,old,z,./images/DULLE.png,,,,,,,,,,,,,,,,,,,,,,,,,,,,,,,,,,,
,,,,,,,,,,,,,,,,,,33,2022-02-12_11h46.43.714,lexical_decision_task_DD_L4,2021.2.3,Win32,60.41931001,,,,,,,,,,,0.6238,1,,,,,,,,,,,,,,,m,1,0.6238,,,,,,,,0.545658287,-0.218487406,0,0,0,,0,30,30,2,1,STOVE,LB,old,m,./images/STOVELB.png,,,,,,,,,,,,,,,,,,,,,,,,,,,,,,,,,,,
,,,,,,,,,,,,,,,,,,33,2022-02-12_11h46.43.714,lexical_decision_task_DD_L4,2021.2.3,Win32,60.41931001,,,,,,,,,,,0.5735,1,,,,,,,,,,,,,,,m,1,0.5735,,,,,,,,0.545658287,-0.218487406,0,0,0,,0,31,31,48,1,SHIELD,C,old,m,./images/SHIELD.png,,,,,,,,,,,,,,,,,,,,,,,,,,,,,,,,,,,
,,,,,,,,,,,,,,,,,,33,2022-02-12_11h46.43.714,lexical_decision_task_DD_L4,2021.2.3,Win32,60.41931001,,,,,,,,,,,0.5893,1,,,,,,,,,,,,,,,m,1,0.5893,,,,,,,,0.545658287,-0.218487406,0,0,0,,0,32,32,63,1,BAKER,C,old,m,./images/BAKER.png,,,,,,,,,,,,,,,,,,,,,,,,,,,,,,,,,,,
,,,,,,,,,,,,,,,,,,33,2022-02-12_11h46.43.714,lexical_decision_task_DD_L4,2021.2.3,Win32,60.41931001,,,,,,,,,,,0.5578,1,,,,,,,,,,,,,,,z,1,0.5578,,,,,,,,0.545658287,-0.218487406,0,0,0,,0,33,33,111,1,HOSSE,C,old,z,./images/HOSSE.png,,,,,,,,,,,,,,,,,,,,,,,,,,,,,,,,,,,
,,,,,,,,,,,,,,,,,,33,2022-02-12_11h46.43.714,lexical_decision_task_DD_L4,2021.2.3,Win32,60.41931001,,,,,,,,,,,0.9448,1,,,,,,,,,,,,,,,m,1,0.9448,,,,,,,,0.545658287,-0.218487406,0,0,0,,0,34,34,64,1,BRIDE,HB,old,m,./images/BRIDEHB.png,,,,,,,,,,,,,,,,,,,,,,,,,,,,,,,,,,,
,,,,,,,,,,,,,,,,,,33,2022-02-12_11h46.43.714,lexical_decision_task_DD_L4,2021.2.3,Win32,60.41931001,,,,,,,,,,,0.7232,1,,,,,,,,,,,,,,,z,1,0.7232,,,,,,,,0.545658287,-0.218487406,0,0,0,,0,35,35,150,1,NOOLS,C,old,z,./images/NOOLS.png,,,,,,,,,,,,,,,,,,,,,,,,,,,,,,,,,,,
,,,,,,,,,,,,,,,,,,33,2022-02-12_11h46.43.714,lexical_decision_task_DD_L4,2021.2.3,Win32,60.41931001,,,,,,,,,,,0.5961,1,,,,,,,,,,,,,,,m,1,0.5961,,,,,,,,0.545658287,-0.218487406,0,0,0,,0,36,36,16,1,GRAPE,HB,old,m,./images/GRAPEHB.png,,,,,,,,,,,,,,,,,,,,,,,,,,,,,,,,,,,
,,,,,,,,,,,,,,,,,,33,2022-02-12_11h46.43.714,lexical_decision_task_DD_L4,2021.2.3,Win32,60.41931001,,,,,,,,,,,0.7852,1,,,,,,,,,,,,,,,m,1,0.7852,,,,,,,,0.545658287,-0.218487406,0,0,0,,0,37,37,70,1,BANANA,HB,old,m,./images/BANANAHB.png,,,,,,,,,,,,,,,,,,,,,,,,,,,,,,,,,,,
,,,,,,,,,,,,,,,,,,33,2022-02-12_11h46.43.714,lexical_decision_task_DD_L4,2021.2.3,Win32,60.41931001,,,,,,,,,,,0.5354,1,,,,,,,,,,,,,,,z,1,0.5354,,,,,,,,0.545658287,-0.218487406,0,0,0,,0,38,38,156,1,HIXES,C,old,z,./images/HIXES.png,,,,,,,,,,,,,,,,,,,,,,,,,,,,,,,,,,,
,,,,,,,,,,,,,,,,,,33,2022-02-12_11h46.43.714,lexical_decision_task_DD_L4,2021.2.3,Win32,60.41931001,,,,,,,,,,,0.6745,1,,,,,,,,,,,,,,,z,1,0.6745,,,,,,,,0.545658287,-0.218487406,0,0,0,,0,39,39,89,1,DRIEK,LB,old,z,./images/DRIEKLB.png,,,,,,,,,,,,,,,,,,,,,,,,,,,,,,,,,,,
,,,,,,,,,,,,,,,,,,33,2022-02-12_11h46.43.714,lexical_decision_task_DD_L4,2021.2.3,Win32,60.41931001,,,,,,,,,,,0.5907,1,,,,,,,,,,,,,,,m,1,0.5907,,,,,,,,0.545658287,-0.218487406,0,0,0,,0,40,40,81,1,DRILL,C,old,m,./images/DRILL.png,,,,,,,,,,,,,,,,,,,,,,,,,,,,,,,,,,,
,,,,,,,,,,,,,,,,,,33,2022-02-12_11h46.43.714,lexical_decision_task_DD_L4,2021.2.3,Win32,60.41931001,,,,,,,,,,,0.6017,1,,,,,,,,,,,,,,,z,1,0.6017,,,,,,,,0.645378177,-0.224089715,0,0,0,space,0,41,41,84,1,HAXES,C,old,z,./images/HAXES.png,4.8709,,,,,,,,,,,,,,,,,,,,,,,,,,,,,,,,,,
,,,,,,,,,,,,,,,,,,33,2022-02-12_11h46.43.714,lexical_decision_task_DD_L4,2021.2.3,Win32,60.41931001,,,,,,,,,,,0.7513,1,,,,,,,,,,,,,,,z,1,0.7513,,,,,,,,0.645378177,-0.224089715,0,0,0,,0,42,42,94,1,BLANS,HB,old,z,./images/BLANSHB.png,,,,,,,,,,,,,,,,,,,,,,,,,,,,,,,,,,,
,,,,,,,,,,,,,,,,,,33,2022-02-12_11h46.43.714,lexical_decision_task_DD_L4,2021.2.3,Win32,60.41931001,,,,,,,,,,,0.6397,1,,,,,,,,,,,,,,,m,1,0.6397,,,,,,,,0.645378177,-0.224089715,0,0,0,,0,43,43,6,1,STAIN,C,old,m,./images/STAIN.png,,,,,,,,,,,,,,,,,,,,,,,,,,,,,,,,,,,
,,,,,,,,,,,,,,,,,,33,2022-02-12_11h46.43.714,lexical_decision_task_DD_L4,2021.2.3,Win32,60.41931001,,,,,,,,,,,0.7274,1,,,,,,,,,,,,,,,m,1,0.7274,,,,,,,,0.645378177,-0.224089715,0,0,0,,0,44,44,31,1,STEAK,HB,old,m,./images/STEAKHB.png,,,,,,,,,,,,,,,,,,,,,,,,,,,,,,,,,,,
,,,,,,,,,,,,,,,,,,33,2022-02-12_11h46.43.714,lexical_decision_task_DD_L4,2021.2.3,Win32,60.41931001,,,,,,,,,,,0.675,1,,,,,,,,,,,,,,,m,1,0.675,,,,,,,,0.645378177,-0.224089715,0,0,0,,0,45,45,26,1,CLOUD,LB,old,m,./images/CLOUDLB.png,,,,,,,,,,,,,,,,,,,,,,,,,,,,,,,,,,,
,,,,,,,,,,,,,,,,,,33,2022-02-12_11h46.43.714,lexical_decision_task_DD_L4,2021.2.3,Win32,60.41931001,,,,,,,,,,,0.6498,1,,,,,,,,,,,,,,,z,1,0.6498,,,,,,,,0.645378177,-0.224089715,0,0,0,,0,46,46,122,1,BLOOT,LB,old,z,./images/BLOOTLB.png,,,,,,,,,,,,,,,,,,,,,,,,,,,,,,,,,,,
,,,,,,,,,,,,,,,,,,33,2022-02-12_11h46.43.714,lexical_decision_task_DD_L4,2021.2.3,Win32,60.41931001,,,,,,,,,,,0.9641,0,,,,,,,,,,,,,,,z,0,0.9641,,,,,,,,0.645378177,-0.224089715,0,0,0,,0,47,47,61,1,ARTIST,HB,old,m,./images/ARTISTHB.png,,,,,,,,,,,,,,,,,,,,,,,,,,,,,,,,,,,
,,,,,,,,,,,,,,,,,,33,2022-02-12_11h46.43.714,lexical_decision_task_DD_L4,2021.2.3,Win32,60.41931001,,,,,,,,,,,1.0066,1,,,,,,,,,,,,,,,z,1,1.0066,,,,,,,,0.645378177,-0.224089715,0,0,0,,0,48,48,145,1,LAMEL,HB,old,z,./images/LAMELHB.png,,,,,,,,,,,,,,,,,,,,,,,,,,,,,,,,,,,
,,,,,,,,,,,,,,,,,,33,2022-02-12_11h46.43.714,lexical_decision_task_DD_L4,2021.2.3,Win32,60.41931001,,,,,,,,,,,1.0137,1,,,,,,,,,,,,,,,z,1,1.0137,,,,,,,,0.645378177,-0.224089715,0,0,0,,0,49,49,106,1,CLUMS,HB,old,z,./images/CLUMSHB.png,,,,,,,,,,,,,,,,,,,,,,,,,,,,,,,,,,,
,,,,,,,,,,,,,,,,,,33,2022-02-12_11h46.43.714,lexical_decision_task_DD_L4,2021.2.3,Win32,60.41931001,,,,,,,,,,,0.5122,1,,,,,,,,,,,,,,,m,1,0.5122,,,,,,,,0.645378177,-0.224089715,0,0,0,,0,50,50,0,1,WALNUT,C,old,m,./images/WALNUT.png,,,,,,,,,,,,,,,,,,,,,,,,,,,,,,,,,,,
,,,,,,,,,,,,,,,,,,33,2022-02-12_11h46.43.714,lexical_decision_task_DD_L4,2021.2.3,Win32,60.41931001,,,,,,,,,,,1.0537,1,,,,,,,,,,,,,,,m,1,1.0537,,,,,,,,0.645378177,-0.224089715,0,0,0,,0,51,51,83,1,WHISKY,LB,old,m,./images/WHISKYLB.png,,,,,,,,,,,,,,,,,,,,,,,,,,,,,,,,,,,
,,,,,,,,,,,,,,,,,,33,2022-02-12_11h46.43.714,lexical_decision_task_DD_L4,2021.2.3,Win32,60.41931001,,,,,,,,,,,0.5457,1,,,,,,,,,,,,,,,m,1,0.5457,,,,,,,,0.645378177,-0.224089715,0,0,0,,0,52,52,68,1,VALLEY,LB,old,m,./images/VALLEYLB.png,,,,,,,,,,,,,,,,,,,,,,,,,,,,,,,,,,,
,,,,,,,,,,,,,,,,,,33,2022-02-12_11h46.43.714,lexical_decision_task_DD_L4,2021.2.3,Win32,60.41931001,,,,,,,,,,,0.6407,1,,,,,,,,,,,,,,,m,1,0.6407,,,,,,,,0.645378177,-0.224089715,0,0,0,,0,53,53,52,1,DESERT,HB,old,m,./images/DESERTHB.png,,,,,,,,,,,,,,,,,,,,,,,,,,,,,,,,,,,
,,,,,,,,,,,,,,,,,,33,2022-02-12_11h46.43.714,lexical_decision_task_DD_L4,2021.2.3,Win32,60.41931001,,,,,,,,,,,0.7902,1,,,,,,,,,,,,,,,m,1,0.7902,,,,,,,,0.645378177,-0.224089715,0,0,0,,0,54,54,34,1,RAZOR,HB,old,m,./images/RAZORHB.png,,,,,,,,,,,,,,,,,,,,,,,,,,,,,,,,,,,
,,,,,,,,,,,,,,,,,,33,2022-02-12_11h46.43.714,lexical_decision_task_DD_L4,2021.2.3,Win32,60.41931001,,,,,,,,,,,0.5553,1,,,,,,,,,,,,,,,m,1,0.5553,,,,,,,,0.645378177,-0.224089715,0,0,0,,0,55,55,30,1,SLOPE,C,old,m,./images/SLOPE.png,,,,,,,,,,,,,,,,,,,,,,,,,,,,,,,,,,,
,,,,,,,,,,,,,,,,,,33,2022-02-12_11h46.43.714,lexical_decision_task_DD_L4,2021.2.3,Win32,60.41931001,,,,,,,,,,,0.9972,1,,,,,,,,,,,,,,,z,1,0.9972,,,,,,,,0.645378177,-0.224089715,0,0,0,,0,56,56,160,1,VEETS,HB,old,z,./images/VEETSHB.png,,,,,,,,,,,,,,,,,,,,,,,,,,,,,,,,,,,
,,,,,,,,,,,,,,,,,,33,2022-02-12_11h46.43.714,lexical_decision_task_DD_L4,2021.2.3,Win32,60.41931001,,,,,,,,,,,0.7056,1,,,,,,,,,,,,,,,z,1,0.7056,,,,,,,,0.645378177,-0.224089715,0,0,0,,0,57,57,105,1,MOKER,C,old,z,./images/MOKER.png,,,,,,,,,,,,,,,,,,,,,,,,,,,,,,,,,,,
,,,,,,,,,,,,,,,,,,33,2022-02-12_11h46.43.714,lexical_decision_task_DD_L4,2021.2.3,Win32,60.41931001,,,,,,,,,,,0.8086,1,,,,,,,,,,,,,,,z,1,0.8086,,,,,,,,0.645378177,-0.224089715,0,0,0,,0,58,58,103,1,FLORT,HB,old,z,./images/FLORTHB.png,,,,,,,,,,,,,,,,,,,,,,,,,,,,,,,,,,,
,,,,,,,,,,,,,,,,,,33,2022-02-12_11h46.43.714,lexical_decision_task_DD_L4,2021.2.3,Win32,60.41931001,,,,,,,,,,,0.8453,0,,,,,,,,,,,,,,,m,0,0.8453,,,,,,,,0.645378177,-0.224089715,0,0,0,,0,59,59,136,1,WERVE,HB,old,z,./images/WERVEHB.png,,,,,,,,,,,,,,,,,,,,,,,,,,,,,,,,,,,
,,,,,,,,,,,,,,,,,,33,2022-02-12_11h46.43.714,lexical_decision_task_DD_L4,2021.2.3,Win32,60.41931001,,,,,,,,,,,0.9063,1,,,,,,,,,,,,,,,m,1,0.9063,,,,,,,,0.645378177,-0.224089715,0,0,0,,0,60,60,82,1,PEBBLE,HB,old,m,./images/PEBBLEHB.png,,,,,,,,,,,,,,,,,,,,,,,,,,,,,,,,,,,
,,,,,,,,,,,,,,,,,,33,2022-02-12_11h46.43.714,lexical_decision_task_DD_L4,2021.2.3,Win32,60.41931001,,,,,,,,,,,0.5656,1,,,,,,,,,,,,,,,z,1,0.5656,,,,,,,,0.645378177,-0.224089715,0,0,0,,0,61,61,153,1,CLUPS,C,old,z,./images/CLUPS.png,,,,,,,,,,,,,,,,,,,,,,,,,,,,,,,,,,,
,,,,,,,,,,,,,,,,,,33,2022-02-12_11h46.43.714,lexical_decision_task_DD_L4,2021.2.3,Win32,60.41931001,,,,,,,,,,,0.5706,1,,,,,,,,,,,,,,,m,1,0.5706,,,,,,,,0.645378177,-0.224089715,0,0,0,,0,62,62,59,1,BRUSH,LB,old,m,./images/BRUSHLB.png,,,,,,,,,,,,,,,,,,,,,,,,,,,,,,,,,,,
,,,,,,,,,,,,,,,,,,33,2022-02-12_11h46.43.714,lexical_decision_task_DD_L4,2021.2.3,Win32,60.41931001,,,,,,,,,,,0.5859,1,,,,,,,,,,,,,,,z,1,0.5859,,,,,,,,0.645378177,-0.224089715,0,0,0,,0,63,63,167,1,ZONET,LB,old,z,./images/ZONETLB.png,,,,,,,,,,,,,,,,,,,,,,,,,,,,,,,,,,,
,,,,,,,,,,,,,,,,,,33,2022-02-12_11h46.43.714,lexical_decision_task_DD_L4,2021.2.3,Win32,60.41931001,,,,,,,,,,,1.5222,0,,,,,,,,,,,,,,,z,0,1.5222,,,,,,,,0.645378177,-0.224089715,0,0,0,,0,64,64,37,1,TIGER,HB,old,m,./images/TIGERHB.png,,,,,,,,,,,,,,,,,,,,,,,,,,,,,,,,,,,
,,,,,,,,,,,,,,,,,,33,2022-02-12_11h46.43.714,lexical_decision_task_DD_L4,2021.2.3,Win32,60.41931001,,,,,,,,,,,0.6562,1,,,,,,,,,,,,,,,z,1,0.6562,,,,,,,,0.645378177,-0.224089715,0,0,0,,0,65,65,152,1,FRAIN,LB,old,z,./images/FRAINLB.png,,,,,,,,,,,,,,,,,,,,,,,,,,,,,,,,,,,
,,,,,,,,,,,,,,,,,,33,2022-02-12_11h46.43.714,lexical_decision_task_DD_L4,2021.2.3,Win32,60.41931001,,,,,,,,,,,0.5285,1,,,,,,,,,,,,,,,z,1,0.5285,,,,,,,,0.645378177,-0.224089715,0,0,0,,0,66,66,117,1,STEEG,C,old,z,./images/STEEG.png,,,,,,,,,,,,,,,,,,,,,,,,,,,,,,,,,,,
,,,,,,,,,,,,,,,,,,33,2022-02-12_11h46.43.714,lexical_decision_task_DD_L4,2021.2.3,Win32,60.41931001,,,,,,,,,,,0.8248,1,,,,,,,,,,,,,,,m,1,0.8248,,,,,,,,0.645378177,-0.224089715,0,0,0,,0,67,67,8,1,CLIFF,LB,old,m,./images/CLIFFLB.png,,,,,,,,,,,,,,,,,,,,,,,,,,,,,,,,,,,
,,,,,,,,,,,,,,,,,,33,2022-02-12_11h46.43.714,lexical_decision_task_DD_L4,2021.2.3,Win32,60.41931001,,,,,,,,,,,1.2366,0,,,,,,,,,,,,,,,z,0,1.2366,,,,,,,,0.645378177,-0.224089715,0,0,0,,0,68,68,76,1,MIDGET,HB,old,m,./images/MIDGETHB.png,,,,,,,,,,,,,,,,,,,,,,,,,,,,,,,,,,,
,,,,,,,,,,,,,,,,,,33,2022-02-12_11h46.43.714,lexical_decision_task_DD_L4,2021.2.3,Win32,60.41931001,,,,,,,,,,,0.5908,1,,,,,,,,,,,,,,,z,1,0.5908,,,,,,,,0.645378177,-0.224089715,0,0,0,,0,69,69,90,1,NEAST,C,old,z,./images/NEAST.png,,,,,,,,,,,,,,,,,,,,,,,,,,,,,,,,,,,
,,,,,,,,,,,,,,,,,,33,2022-02-12_11h46.43.714,lexical_decision_task_DD_L4,2021.2.3,Win32,60.41931001,,,,,,,,,,,0.5728,1,,,,,,,,,,,,,,,m,1,0.5728,,,,,,,,0.645378177,-0.224089715,0,0,0,,0,70,70,80,1,PLANET,LB,old,m,./images/PLANETLB.png,,,,,,,,,,,,,,,,,,,,,,,,,,,,,,,,,,,
,,,,,,,,,,,,,,,,,,33,2022-02-12_11h46.43.714,lexical_decision_task_DD_L4,2021.2.3,Win32,60.41931001,,,,,,,,,,,0.561,1,,,,,,,,,,,,,,,z,1,0.561,,,,,,,,0.645378177,-0.224089715,0,0,0,,0,71,71,141,1,PLEET,C,old,z,./images/PLEET.png,,,,,,,,,,,,,,,,,,,,,,,,,,,,,,,,,,,
,,,,,,,,,,,,,,,,,,33,2022-02-12_11h46.43.714,lexical_decision_task_DD_L4,2021.2.3,Win32,60.41931001,,,,,,,,,,,0.7113,1,,,,,,,,,,,,,,,m,1,0.7113,,,,,,,,0.645378177,-0.224089715,0,0,0,,0,72,72,20,1,GRANNY,LB,old,m,./images/GRANNYLB.png,,,,,,,,,,,,,,,,,,,,,,,,,,,,,,,,,,,
,,,,,,,,,,,,,,,,,,33,2022-02-12_11h46.43.714,lexical_decision_task_DD_L4,2021.2.3,Win32,60.41931001,,,,,,,,,,,0.8603,1,,,,,,,,,,,,,,,m,1,0.8603,,,,,,,,0.645378177,-0.224089715,0,0,0,,0,73,73,36,1,BOILER,C,old,m,./images/BOILER.png,,,,,,,,,,,,,,,,,,,,,,,,,,,,,,,,,,,
,,,,,,,,,,,,,,,,,,33,2022-02-12_11h46.43.714,lexical_decision_task_DD_L4,2021.2.3,Win32,60.41931001,,,,,,,,,,,1.0474,1,,,,,,,,,,,,,,,z,1,1.0474,,,,,,,,0.645378177,-0.224089715,0,0,0,,0,74,74,142,1,PLASK,HB,old,z,./images/PLASKHB.png,,,,,,,,,,,,,,,,,,,,,,,,,,,,,,,,,,,
,,,,,,,,,,,,,,,,,,33,2022-02-12_11h46.43.714,lexical_decision_task_DD_L4,2021.2.3,Win32,60.41931001,,,,,,,,,,,0.8621,1,,,,,,,,,,,,,,,m,1,0.8621,,,,,,,,0.645378177,-0.224089715,0,0,0,,0,75,75,13,1,BUNNY,HB,old,m,./images/BUNNYHB.png,,,,,,,,,,,,,,,,,,,,,,,,,,,,,,,,,,,
,,,,,,,,,,,,,,,,,,33,2022-02-12_11h46.43.714,lexical_decision_task_DD_L4,2021.2.3,Win32,60.41931001,,,,,,,,,,,0.7137,1,,,,,,,,,,,,,,,m,1,0.7137,,,,,,,,0.645378177,-0.224089715,0,0,0,,0,76,76,4,1,BOXER,HB,old,m,./images/BOXERHB.png,,,,,,,,,,,,,,,,,,,,,,,,,,,,,,,,,,,
,,,,,,,,,,,,,,,,,,33,2022-02-12_11h46.43.714,lexical_decision_task_DD_L4,2021.2.3,Win32,60.41931001,,,,,,,,,,,0.6371,1,,,,,,,,,,,,,,,z,1,0.6371,,,,,,,,0.645378177,-0.224089715,0,0,0,,0,77,77,155,1,CANGY,LB,old,z,./images/CANGYLB.png,,,,,,,,,,,,,,,,,,,,,,,,,,,,,,,,,,,
,,,,,,,,,,,,,,,,,,33,2022-02-12_11h46.43.714,lexical_decision_task_DD_L4,2021.2.3,Win32,60.41931001,,,,,,,,,,,0.8099,1,,,,,,,,,,,,,,,z,1,0.8099,,,,,,,,0.645378177,-0.224089715,0,0,0,,0,78,78,130,1,CRILL,HB,old,z,./images/CRILLHB.png,,,,,,,,,,,,,,,,,,,,,,,,,,,,,,,,,,,
,,,,,,,,,,,,,,,,,,33,2022-02-12_11h46.43.714,lexical_decision_task_DD_L4,2021.2.3,Win32,60.41931001,,,,,,,,,,,0.6328,1,,,,,,,,,,,,,,,z,1,0.6328,,,,,,,,0.645378177,-0.224089715,0,0,0,,0,79,79,164,1,SGREW,LB,old,z,./images/SGREWLB.png,,,,,,,,,,,,,,,,,,,,,,,,,,,,,,,,,,,
,,,,,,,,,,,,,,,,,,33,2022-02-12_11h46.43.714,lexical_decision_task_DD_L4,2021.2.3,Win32,60.41931001,,,,,,,,,,,0.7062,1,,,,,,,,,,,,,,,z,1,0.7062,,,,,,,,0.645378177,-0.224089715,0,0,0,,0,80,80,115,1,MAWNS,HB,old,z,./images/MAWNSHB.png,,,,,,,,,,,,,,,,,,,,,,,,,,,,,,,,,,,
,,,,,,,,,,,,,,,,,,33,2022-02-12_11h46.43.714,lexical_decision_task_DD_L4,2021.2.3,Win32,60.41931001,,,,,,,,,,,0.5306,1,,,,,,,,,,,,,,,m,1,0.5306,,,,,,,,0.645378177,-0.224089715,0,0,0,,0,81,81,27,1,BUTTER,C,old,m,./images/BUTTER.png,,,,,,,,,,,,,,,,,,,,,,,,,,,,,,,,,,,
,,,,,,,,,,,,,,,,,,33,2022-02-12_11h46.43.714,lexical_decision_task_DD_L4,2021.2.3,Win32,60.41931001,,,,,,,,,,,0.7911,1,,,,,,,,,,,,,,,m,1,0.7911,,,,,,,,0.645378177,-0.224089715,0,0,0,,0,82,82,17,1,PARADE,LB,old,m,./images/PARADELB.png,,,,,,,,,,,,,,,,,,,,,,,,,,,,,,,,,,,
,,,,,,,,,,,,,,,,,,33,2022-02-12_11h46.43.714,lexical_decision_task_DD_L4,2021.2.3,Win32,60.41931001,,,,,,,,,,,0.661,1,,,,,,,,,,,,,,,m,1,0.661,,,,,,,,0.645378177,-0.224089715,0,0,0,space,0,83,83,73,1,GLOVE,HB,old,m,./images/GLOVEHB.png,2.7122,,,,,,,,,,,,,,,,,,,,,,,,,,,,,,,,,,
,,,,,,,,,,,,,,,,,,33,2022-02-12_11h46.43.714,lexical_decision_task_DD_L4,2021.2.3,Win32,60.41931001,,,,,,,,,,,0.7662,1,,,,,,,,,,,,,,,z,1,0.7662,,,,,,,,0.645378177,-0.224089715,0,0,0,,0,84,84,163,1,GAMBA,HB,old,z,./images/GAMBAHB.png,,,,,,,,,,,,,,,,,,,,,,,,,,,,,,,,,,,
,,,,,,,,,,,,,,,,,,33,2022-02-12_11h46.43.714,lexical_decision_task_DD_L4,2021.2.3,Win32,60.41931001,,,,,,,,,,,0.5637,1,,,,,,,,,,,,,,,z,1,0.5637,,,,,,,,0.645378177,-0.224089715,0,0,0,,0,85,85,158,1,EGECT,LB,old,z,./images/EGECTLB.png,,,,,,,,,,,,,,,,,,,,,,,,,,,,,,,,,,,
,,,,,,,,,,,,,,,,,,33,2022-02-12_11h46.43.714,lexical_decision_task_DD_L4,2021.2.3,Win32,60.41931001,,,,,,,,,,,0.5736,1,,,,,,,,,,,,,,,m,1,0.5736,,,,,,,,0.645378177,-0.224089715,0,0,0,,0,86,86,18,1,PARCEL,C,old,m,./images/PARCEL.png,,,,,,,,,,,,,,,,,,,,,,,,,,,,,,,,,,,
,,,,,,,,,,,,,,,,,,33,2022-02-12_11h46.43.714,lexical_decision_task_DD_L4,2021.2.3,Win32,60.41931001,,,,,,,,,,,0.5694,1,,,,,,,,,,,,,,,z,1,0.5694,,,,,,,,0.645378177,-0.224089715,0,0,0,,0,87,87,146,1,MOOST,LB,old,z,./images/MOOSTLB.png,,,,,,,,,,,,,,,,,,,,,,,,,,,,,,,,,,,
,,,,,,,,,,,,,,,,,,33,2022-02-12_11h46.43.714,lexical_decision_task_DD_L4,2021.2.3,Win32,60.41931001,,,,,,,,,,,1.207,1,,,,,,,,,,,,,,,z,1,1.207,,,,,,,,0.645378177,-0.224089715,0,0,0,,0,88,88,151,1,TINKY,HB,old,z,./images/TINKYHB.png,,,,,,,,,,,,,,,,,,,,,,,,,,,,,,,,,,,
,,,,,,,,,,,,,,,,,,33,2022-02-12_11h46.43.714,lexical_decision_task_DD_L4,2021.2.3,Win32,60.41931001,,,,,,,,,,,0.8312,1,,,,,,,,,,,,,,,z,1,0.8312,,,,,,,,0.645378177,-0.224089715,0,0,0,,0,89,89,88,1,GLUSH,HB,old,z,./images/GLUSHHB.png,,,,,,,,,,,,,,,,,,,,,,,,,,,,,,,,,,,
,,,,,,,,,,,,,,,,,,33,2022-02-12_11h46.43.714,lexical_decision_task_DD_L4,2021.2.3,Win32,60.41931001,,,,,,,,,,,0.5525,1,,,,,,,,,,,,,,,z,1,0.5525,,,,,,,,0.645378177,-0.224089715,0,0,0,,0,90,90,116,1,BALGY,LB,old,z,./images/BALGYLB.png,,,,,,,,,,,,,,,,,,,,,,,,,,,,,,,,,,,
,,,,,,,,,,,,,,,,,,33,2022-02-12_11h46.43.714,lexical_decision_task_DD_L4,2021.2.3,Win32,60.41931001,,,,,,,,,,,0.8245,0,,,,,,,,,,,,,,,m,0,0.8245,,,,,,,,0.645378177,-0.224089715,0,0,0,,0,91,91,104,1,GITTY,LB,old,z,./images/GITTYLB.png,,,,,,,,,,,,,,,,,,,,,,,,,,,,,,,,,,,
,,,,,,,,,,,,,,,,,,33,2022-02-12_11h46.43.714,lexical_decision_task_DD_L4,2021.2.3,Win32,60.41931001,,,,,,,,,,,0.5608,1,,,,,,,,,,,,,,,m,1,0.5608,,,,,,,,0.645378177,-0.224089715,0,0,0,,0,92,92,74,1,JUMPER,LB,old,m,./images/JUMPERLB.png,,,,,,,,,,,,,,,,,,,,,,,,,,,,,,,,,,,
,,,,,,,,,,,,,,,,,,33,2022-02-12_11h46.43.714,lexical_decision_task_DD_L4,2021.2.3,Win32,60.41931001,,,,,,,,,,,1.1849,1,,,,,,,,,,,,,,,m,1,1.1849,,,,,,,,0.645378177,-0.224089715,0,0,0,,0,93,93,49,1,BISHOP,HB,old,m,./images/BISHOPHB.png,,,,,,,,,,,,,,,,,,,,,,,,,,,,,,,,,,,
,,,,,,,,,,,,,,,,,,33,2022-02-12_11h46.43.714,lexical_decision_task_DD_L4,2021.2.3,Win32,60.41931001,,,,,,,,,,,0.8947,1,,,,,,,,,,,,,,,z,1,0.8947,,,,,,,,0.645378177,-0.224089715,0,0,0,,0,94,94,96,1,KEAMS,C,old,z,./images/KEAMS.png,,,,,,,,,,,,,,,,,,,,,,,,,,,,,,,,,,,
,,,,,,,,,,,,,,,,,,33,2022-02-12_11h46.43.714,lexical_decision_task_DD_L4,2021.2.3,Win32,60.41931001,,,,,,,,,,,0.61,1,,,,,,,,,,,,,,,z,1,0.61,,,,,,,,0.645378177,-0.224089715,0,0,0,,0,95,95,113,1,LINEW,LB,old,z,./images/LINEWLB.png,,,,,,,,,,,,,,,,,,,,,,,,,,,,,,,,,,,
,,,,,,,,,,,,,,,,,,33,2022-02-12_11h46.43.714,lexical_decision_task_DD_L4,2021.2.3,Win32,60.41931001,,,,,,,,,,,0.6024,1,,,,,,,,,,,,,,,z,1,0.6024,,,,,,,,0.645378177,-0.224089715,0,0,0,,0,96,96,140,1,DOVET,LB,old,z,./images/DOVETLB.png,,,,,,,,,,,,,,,,,,,,,,,,,,,,,,,,,,,
,,,,,,,,,,,,,,,,,,33,2022-02-12_11h46.43.714,lexical_decision_task_DD_L4,2021.2.3,Win32,60.41931001,,,,,,,,,,,0.7203,1,,,,,,,,,,,,,,,m,1,0.7203,,,,,,,,0.645378177,-0.224089715,0,0,0,,0,97,97,41,1,STREAM,LB,old,m,./images/STREAMLB.png,,,,,,,,,,,,,,,,,,,,,,,,,,,,,,,,,,,
,,,,,,,,,,,,,,,,,,33,2022-02-12_11h46.43.714,lexical_decision_task_DD_L4,2021.2.3,Win32,60.41931001,,,,,,,,,,,0.7279,1,,,,,,,,,,,,,,,m,1,0.7279,,,,,,,,0.645378177,-0.224089715,0,0,0,,0,98,98,35,1,LLAMA,LB,old,m,./images/LLAMALB.png,,,,,,,,,,,,,,,,,,,,,,,,,,,,,,,,,,,
,,,,,,,,,,,,,,,,,,33,2022-02-12_11h46.43.714,lexical_decision_task_DD_L4,2021.2.3,Win32,60.41931001,,,,,,,,,,,1.2765,1,,,,,,,,,,,,,,,z,1,1.2765,,,,,,,,0.645378177,-0.224089715,0,0,0,,0,99,99,85,1,CHULK,HB,old,z,./images/CHULKHB.png,,,,,,,,,,,,,,,,,,,,,,,,,,,,,,,,,,,
,,,,,,,,,,,,,,,,,,33,2022-02-12_11h46.43.714,lexical_decision_task_DD_L4,2021.2.3,Win32,60.41931001,,,,,,,,,,,0.6416,1,,,,,,,,,,,,,,,m,1,0.6416,,,,,,,,0.645378177,-0.224089715,0,0,0,,0,100,100,29,1,PISTOL,LB,old,m,./images/PISTOLLB.png,,,,,,,,,,,,,,,,,,,,,,,,,,,,,,,,,,,
,,,,,,,,,,,,,,,,,,33,2022-02-12_11h46.43.714,lexical_decision_task_DD_L4,2021.2.3,Win32,60.41931001,,,,,,,,,,,0.5983,1,,,,,,,,,,,,,,,z,1,0.5983,,,,,,,,0.645378177,-0.224089715,0,0,0,,0,101,101,120,1,RINED,C,old,z,./images/RINED.png,,,,,,,,,,,,,,,,,,,,,,,,,,,,,,,,,,,
,,,,,,,,,,,,,,,,,,33,2022-02-12_11h46.43.714,lexical_decision_task_DD_L4,2021.2.3,Win32,60.41931001,,,,,,,,,,,0.6483,1,,,,,,,,,,,,,,,z,1,0.6483,,,,,,,,0.645378177,-0.224089715,0,0,0,,0,102,102,134,1,TROSS,LB,old,z,./images/TROSSLB.png,,,,,,,,,,,,,,,,,,,,,,,,,,,,,,,,,,,
,,,,,,,,,,,,,,,,,,33,2022-02-12_11h46.43.714,lexical_decision_task_DD_L4,2021.2.3,Win32,60.41931001,,,,,,,,,,,0.63,1,,,,,,,,,,,,,,,m,1,0.63,,,,,,,,0.645378177,-0.224089715,0,0,0,,0,103,103,66,1,STATUE,C,old,m,./images/STATUE.png,,,,,,,,,,,,,,,,,,,,,,,,,,,,,,,,,,,
,,,,,,,,,,,,,,,,,,33,2022-02-12_11h46.43.714,lexical_decision_task_DD_L4,2021.2.3,Win32,60.41931001,,,,,,,,,,,0.7696,1,,,,,,,,,,,,,,,m,1,0.7696,,,,,,,,0.645378177,-0.224089715,0,0,0,,0,104,104,53,1,POSTER,LB,old,m,./images/POSTERLB.png,,,,,,,,,,,,,,,,,,,,,,,,,,,,,,,,,,,
,,,,,,,,,,,,,,,,,,33,2022-02-12_11h46.43.714,lexical_decision_task_DD_L4,2021.2.3,Win32,60.41931001,,,,,,,,,,,0.5879,1,,,,,,,,,,,,,,,z,1,0.5879,,,,,,,,0.645378177,-0.224089715,0,0,0,,0,105,105,93,1,SMONE,C,old,z,./images/SMONE.png,,,,,,,,,,,,,,,,,,,,,,,,,,,,,,,,,,,
,,,,,,,,,,,,,,,,,,33,2022-02-12_11h46.43.714,lexical_decision_task_DD_L4,2021.2.3,Win32,60.41931001,,,,,,,,,,,0.5253,1,,,,,,,,,,,,,,,m,1,0.5253,,,,,,,,0.645378177,-0.224089715,0,0,0,,0,106,106,42,1,CHAIN,C,old,m,./images/CHAIN.png,,,,,,,,,,,,,,,,,,,,,,,,,,,,,,,,,,,
,,,,,,,,,,,,,,,,,,33,2022-02-12_11h46.43.714,lexical_decision_task_DD_L4,2021.2.3,Win32,60.41931001,,,,,,,,,,,0.6072,1,,,,,,,,,,,,,,,z,1,0.6072,,,,,,,,0.645378177,-0.224089715,0,0,0,,0,107,107,98,1,BAMPS,LB,old,z,./images/BAMPSLB.png,,,,,,,,,,,,,,,,,,,,,,,,,,,,,,,,,,,
,,,,,,,,,,,,,,,,,,33,2022-02-12_11h46.43.714,lexical_decision_task_DD_L4,2021.2.3,Win32,60.41931001,,,,,,,,,,,1.1609,0,,,,,,,,,,,,,,,m,0,1.1609,,,,,,,,0.645378177,-0.224089715,0,0,0,,0,108,108,139,1,BLEAR,HB,old,z,./images/BLEARHB.png,,,,,,,,,,,,,,,,,,,,,,,,,,,,,,,,,,,
,,,,,,,,,,,,,,,,,,33,2022-02-12_11h46.43.714,lexical_decision_task_DD_L4,2021.2.3,Win32,60.41931001,,,,,,,,,,,0.578,1,,,,,,,,,,,,,,,z,1,0.578,,,,,,,,0.645378177,-0.224089715,0,0,0,,0,109,109,87,1,TRING,C,old,z,./images/TRING.png,,,,,,,,,,,,,,,,,,,,,,,,,,,,,,,,,,,
,,,,,,,,,,,,,,,,,,33,2022-02-12_11h46.43.714,lexical_decision_task_DD_L4,2021.2.3,Win32,60.41931001,,,,,,,,,,,0.7098,1,,,,,,,,,,,,,,,z,1,0.7098,,,,,,,,0.645378177,-0.224089715,0,0,0,,0,110,110,110,1,CRUNK,LB,old,z,./images/CRUNKLB.png,,,,,,,,,,,,,,,,,,,,,,,,,,,,,,,,,,,
,,,,,,,,,,,,,,,,,,33,2022-02-12_11h46.43.714,lexical_decision_task_DD_L4,2021.2.3,Win32,60.41931001,,,,,,,,,,,1.0252,1,,,,,,,,,,,,,,,z,1,1.0252,,,,,,,,0.645378177,-0.224089715,0,0,0,,0,111,111,154,1,THINT,HB,old,z,./images/THINTHB.png,,,,,,,,,,,,,,,,,,,,,,,,,,,,,,,,,,,
,,,,,,,,,,,,,,,,,,33,2022-02-12_11h46.43.714,lexical_decision_task_DD_L4,2021.2.3,Win32,60.41931001,,,,,,,,,,,0.7166,1,,,,,,,,,,,,,,,z,1,0.7166,,,,,,,,0.645378177,-0.224089715,0,0,0,,0,112,112,100,1,DRIBS,HB,old,z,./images/DRIBSHB.png,,,,,,,,,,,,,,,,,,,,,,,,,,,,,,,,,,,
,,,,,,,,,,,,,,,,,,33,2022-02-12_11h46.43.714,lexical_decision_task_DD_L4,2021.2.3,Win32,60.41931001,,,,,,,,,,,0.5984,1,,,,,,,,,,,,,,,z,1,0.5984,,,,,,,,0.645378177,-0.224089715,0,0,0,,0,113,113,125,1,MOOKY,LB,old,z,./images/MOOKYLB.png,,,,,,,,,,,,,,,,,,,,,,,,,,,,,,,,,,,
,,,,,,,,,,,,,,,,,,33,2022-02-12_11h46.43.714,lexical_decision_task_DD_L4,2021.2.3,Win32,60.41931001,,,,,,,,,,,0.8693,1,,,,,,,,,,,,,,,z,1,0.8693,,,,,,,,0.645378177,-0.224089715,0,0,0,,0,114,114,121,1,CEERS,HB,old,z,./images/CEERSHB.png,,,,,,,,,,,,,,,,,,,,,,,,,,,,,,,,,,,
,,,,,,,,,,,,,,,,,,33,2022-02-12_11h46.43.714,lexical_decision_task_DD_L4,2021.2.3,Win32,60.41931001,,,,,,,,,,,0.6236,1,,,,,,,,,,,,,,,z,1,0.6236,,,,,,,,0.645378177,-0.224089715,0,0,0,,0,115,115,132,1,SCIFF,C,old,z,./images/SCIFF.png,,,,,,,,,,,,,,,,,,,,,,,,,,,,,,,,,,,
,,,,,,,,,,,,,,,,,,33,2022-02-12_11h46.43.714,lexical_decision_task_DD_L4,2021.2.3,Win32,60.41931001,,,,,,,,,,,0.6947,1,,,,,,,,,,,,,,,m,1,0.6947,,,,,,,,0.645378177,-0.224089715,0,0,0,,0,116,116,75,1,HAMMER,C,old,m,./images/HAMMER.png,,,,,,,,,,,,,,,,,,,,,,,,,,,,,,,,,,,
,,,,,,,,,,,,,,,,,,33,2022-02-12_11h46.43.714,lexical_decision_task_DD_L4,2021.2.3,Win32,60.41931001,,,,,,,,,,,0.5391,1,,,,,,,,,,,,,,,m,1,0.5391,,,,,,,,0.645378177,-0.224089715,0,0,0,,0,117,117,54,1,CHERRY,C,old,m,./images/CHERRY.png,,,,,,,,,,,,,,,,,,,,,,,,,,,,,,,,,,,
,,,,,,,,,,,,,,,,,,33,2022-02-12_11h46.43.714,lexical_decision_task_DD_L4,2021.2.3,Win32,60.41931001,,,,,,,,,,,0.7427,1,,,,,,,,,,,,,,,m,1,0.7427,,,,,,,,0.644257729,-0.222969198,0,0,0,,0,118,118,11,1,MEDAL,LB,old,m,./images/MEDALLB.png,,,,,,,,,,,,,,,,,,,,,,,,,,,,,,,,,,,
,,,,,,,,,,,,,,,,,,33,2022-02-12_11h46.43.714,lexical_decision_task_DD_L4,2021.2.3,Win32,60.41931001,,,,,,,,,,,0.6236,1,,,,,,,,,,,,,,,m,1,0.6236,,,,,,,,0.644257729,-0.222969198,0,0,0,,0,119,119,50,1,PILOT,LB,old,m,./images/PILOTLB.png,,,,,,,,,,,,,,,,,,,,,,,,,,,,,,,,,,,
,,,,,,,,,,,,,,,,,,33,2022-02-12_11h46.43.714,lexical_decision_task_DD_L4,2021.2.3,Win32,60.41931001,,,,,,,,,,,0.5853,1,,,,,,,,,,,,,,,z,1,0.5853,,,,,,,,0.644257729,-0.222969198,0,0,0,,0,120,120,161,1,BLAPS,LB,old,z,./images/BLAPSLB.png,,,,,,,,,,,,,,,,,,,,,,,,,,,,,,,,,,,
,,,,,,,,,,,,,,,,,,33,2022-02-12_11h46.43.714,lexical_decision_task_DD_L4,2021.2.3,Win32,60.41931001,,,,,,,,,,,0.6731,1,,,,,,,,,,,,,,,m,1,0.6731,,,,,,,,0.644257729,-0.222969198,0,0,0,,0,121,121,57,1,FERRY,C,old,m,./images/FERRY.png,,,,,,,,,,,,,,,,,,,,,,,,,,,,,,,,,,,
,,,,,,,,,,,,,,,,,,33,2022-02-12_11h46.43.714,lexical_decision_task_DD_L4,2021.2.3,Win32,60.41931001,,,,,,,,,,,0.5655,1,,,,,,,,,,,,,,,m,1,0.5655,,,,,,,,0.644257729,-0.222969198,0,0,0,,0,122,122,45,1,MONKEY,C,old,m,./images/MONKEY.png,,,,,,,,,,,,,,,,,,,,,,,,,,,,,,,,,,,
,,,,,,,,,,,,,,,,,,33,2022-02-12_11h46.43.714,lexical_decision_task_DD_L4,2021.2.3,Win32,60.41931001,,,,,,,,,,,1.1176,1,,,,,,,,,,,,,,,m,1,1.1176,,,,,,,,0.644257729,-0.222969198,0,0,0,,0,123,123,67,1,POKER,HB,old,m,./images/POKERHB.png,,,,,,,,,,,,,,,,,,,,,,,,,,,,,,,,,,,
,,,,,,,,,,,,,,,,,,33,2022-02-12_11h46.43.714,lexical_decision_task_DD_L4,2021.2.3,Win32,60.41931001,,,,,,,,,,,0.9111,1,,,,,,,,,,,,,,,m,1,0.9111,,,,,,,,0.644257729,-0.222969198,0,0,0,,0,124,124,22,1,CLOWN,HB,old,m,./images/CLOWNHB.png,,,,,,,,,,,,,,,,,,,,,,,,,,,,,,,,,,,
,,,,,,,,,,,,,,,,,,33,2022-02-12_11h46.43.714,lexical_decision_task_DD_L4,2021.2.3,Win32,60.41931001,,,,,,,,,,,0.6643,1,,,,,,,,,,,,,,,z,1,0.6643,,,,,,,,0.644257729,-0.222969198,0,0,0,space,0,125,125,124,1,TUNCH,HB,old,z,./images/TUNCHHB.png,5.6371,,,,,,,,,,,,,,,,,,,,,,,,,,,,,,,,,,
,,,,,,,,,,,,,,,,,,33,2022-02-12_11h46.43.714,lexical_decision_task_DD_L4,2021.2.3,Win32,60.41931001,,,,,,,,,,,0.674,1,,,,,,,,,,,,,,,z,1,0.674,,,,,,,,0.644257729,-0.222969198,0,0,0,,0,126,126,107,1,FASKS,LB,old,z,./images/FASKSLB.png,,,,,,,,,,,,,,,,,,,,,,,,,,,,,,,,,,,
,,,,,,,,,,,,,,,,,,33,2022-02-12_11h46.43.714,lexical_decision_task_DD_L4,2021.2.3,Win32,60.41931001,,,,,,,,,,,0.6862,1,,,,,,,,,,,,,,,m,1,0.6862,,,,,,,,0.644257729,-0.222969198,0,0,0,,0,127,127,12,1,BLOKE,C,old,m,./images/BLOKE.png,,,,,,,,,,,,,,,,,,,,,,,,,,,,,,,,,,,
,,,,,,,,,,,,,,,,,,33,2022-02-12_11h46.43.714,lexical_decision_task_DD_L4,2021.2.3,Win32,60.41931001,,,,,,,,,,,0.5267,1,,,,,,,,,,,,,,,z,1,0.5267,,,,,,,,0.644257729,-0.222969198,0,0,0,,0,128,128,131,1,NACES,LB,old,z,./images/NACESLB.png,,,,,,,,,,,,,,,,,,,,,,,,,,,,,,,,,,,
,,,,,,,,,,,,,,,,,,33,2022-02-12_11h46.43.714,lexical_decision_task_DD_L4,2021.2.3,Win32,60.41931001,,,,,,,,,,,1.0806,0,,,,,,,,,,,,,,,m,0,1.0806,,,,,,,,0.644257729,-0.222969198,0,0,0,,0,129,129,166,1,SHORY,HB,old,z,./images/SHORYHB.png,,,,,,,,,,,,,,,,,,,,,,,,,,,,,,,,,,,
,,,,,,,,,,,,,,,,,,33,2022-02-12_11h46.43.714,lexical_decision_task_DD_L4,2021.2.3,Win32,60.41931001,,,,,,,,,,,0.7067,1,,,,,,,,,,,,,,,z,1,0.7067,,,,,,,,0.644257729,-0.222969198,0,0,0,,0,130,130,157,1,INLER,HB,old,z,./images/INLERHB.png,,,,,,,,,,,,,,,,,,,,,,,,,,,,,,,,,,,
,,,,,,,,,,,,,,,,,,33,2022-02-12_11h46.43.714,lexical_decision_task_DD_L4,2021.2.3,Win32,60.41931001,,,,,,,,,,,1.0953,1,,,,,,,,,,,,,,,z,1,1.0953,,,,,,,,0.644257729,-0.222969198,0,0,0,,0,131,131,109,1,BURGE,HB,old,z,./images/BURGEHB.png,,,,,,,,,,,,,,,,,,,,,,,,,,,,,,,,,,,
,,,,,,,,,,,,,,,,,,33,2022-02-12_11h46.43.714,lexical_decision_task_DD_L4,2021.2.3,Win32,60.41931001,,,,,,,,,,,1.2528,1,,,,,,,,,,,,,,,m,1,1.2528,,,,,,,,0.644257729,-0.222969198,0,0,0,,0,132,132,79,1,RULER,HB,old,m,./images/RULERHB.png,,,,,,,,,,,,,,,,,,,,,,,,,,,,,,,,,,,
,,,,,,,,,,,,,,,,,,33,2022-02-12_11h46.43.714,lexical_decision_task_DD_L4,2021.2.3,Win32,60.41931001,,,,,,,,,,,0.566,1,,,,,,,,,,,,,,,z,1,0.566,,,,,,,,0.644257729,-0.222969198,0,0,0,,0,133,133,135,1,JOODY,C,old,z,./images/JOODY.png,,,,,,,,,,,,,,,,,,,,,,,,,,,,,,,,,,,
,,,,,,,,,,,,,,,,,,33,2022-02-12_11h46.43.714,lexical_decision_task_DD_L4,2021.2.3,Win32,60.41931001,,,,,,,,,,,0.6451,1,,,,,,,,,,,,,,,z,1,0.6451,,,,,,,,0.644257729,-0.222969198,0,0,0,,0,134,134,126,1,GUELS,C,old,z,./images/GUELS.png,,,,,,,,,,,,,,,,,,,,,,,,,,,,,,,,,,,
,,,,,,,,,,,,,,,,,,33,2022-02-12_11h46.43.714,lexical_decision_task_DD_L4,2021.2.3,Win32,60.41931001,,,,,,,,,,,0.6765,1,,,,,,,,,,,,,,,m,1,0.6765,,,,,,,,0.644257729,-0.222969198,0,0,0,,0,135,135,56,1,HEATER,LB,old,m,./images/HEATERLB.png,,,,,,,,,,,,,,,,,,,,,,,,,,,,,,,,,,,
,,,,,,,,,,,,,,,,,,33,2022-02-12_11h46.43.714,lexical_decision_task_DD_L4,2021.2.3,Win32,60.41931001,,,,,,,,,,,1,1,,,,,,,,,,,,,,,m,1,1,,,,,,,,0.644257729,-0.222969198,0,0,0,,0,136,136,25,1,CHALK,HB,old,m,./images/CHALKHB.png,,,,,,,,,,,,,,,,,,,,,,,,,,,,,,,,,,,
,,,,,,,,,,,,,,,,,,33,2022-02-12_11h46.43.714,lexical_decision_task_DD_L4,2021.2.3,Win32,60.41931001,,,,,,,,,,,0.664,1,,,,,,,,,,,,,,,z,1,0.664,,,,,,,,0.644257729,-0.222969198,0,0,0,,0,137,137,149,1,VEASE,LB,old,z,./images/VEASELB.png,,,,,,,,,,,,,,,,,,,,,,,,,,,,,,,,,,,
,,,,,,,,,,,,,,,,,,33,2022-02-12_11h46.43.714,lexical_decision_task_DD_L4,2021.2.3,Win32,60.41931001,,,,,,,,,,,0.6749,1,,,,,,,,,,,,,,,m,1,0.6749,,,,,,,,0.644257729,-0.222969198,0,0,0,,0,138,138,33,1,SAUNA,C,old,m,./images/SAUNA.png,,,,,,,,,,,,,,,,,,,,,,,,,,,,,,,,,,,
,,,,,,,,,,,,,,,,,,33,2022-02-12_11h46.43.714,lexical_decision_task_DD_L4,2021.2.3,Win32,60.41931001,,,,,,,,,,,0.5902,1,,,,,,,,,,,,,,,z,1,0.5902,,,,,,,,0.644257729,-0.222969198,0,0,0,,0,139,139,114,1,RIKES,C,old,z,./images/RIKES.png,,,,,,,,,,,,,,,,,,,,,,,,,,,,,,,,,,,
,,,,,,,,,,,,,,,,,,33,2022-02-12_11h46.43.714,lexical_decision_task_DD_L4,2021.2.3,Win32,60.41931001,,,,,,,,,,,0.7618,1,,,,,,,,,,,,,,,m,1,0.7618,,,,,,,,0.644257729,-0.222969198,0,0,0,,0,140,140,9,1,DIVER,C,old,m,./images/DIVER.png,,,,,,,,,,,,,,,,,,,,,,,,,,,,,,,,,,,
,,,,,,,,,,,,,,,,,,33,2022-02-12_11h46.43.714,lexical_decision_task_DD_L4,2021.2.3,Win32,60.41931001,,,,,,,,,,,0.6737,1,,,,,,,,,,,,,,,m,1,0.6737,,,,,,,,0.644257729,-0.222969198,0,0,0,,0,141,141,46,1,MUMMY,HB,old,m,./images/MUMMYHB.png,,,,,,,,,,,,,,,,,,,,,,,,,,,,,,,,,,,
,,,,,,,,,,,,,,,,,,33,2022-02-12_11h46.43.714,lexical_decision_task_DD_L4,2021.2.3,Win32,60.41931001,,,,,,,,,,,0.7027,1,,,,,,,,,,,,,,,z,1,0.7027,,,,,,,,0.644257729,-0.222969198,0,0,0,,0,142,142,138,1,PLICE,C,old,z,./images/PLICE.png,,,,,,,,,,,,,,,,,,,,,,,,,,,,,,,,,,,
,,,,,,,,,,,,,,,,,,33,2022-02-12_11h46.43.714,lexical_decision_task_DD_L4,2021.2.3,Win32,60.41931001,,,,,,,,,,,0.5632,1,,,,,,,,,,,,,,,m,1,0.5632,,,,,,,,0.644257729,-0.222969198,0,0,0,,0,143,143,71,1,BUBBLE,LB,old,m,./images/BUBBLELB.png,,,,,,,,,,,,,,,,,,,,,,,,,,,,,,,,,,,
,,,,,,,,,,,,,,,,,,33,2022-02-12_11h46.43.714,lexical_decision_task_DD_L4,2021.2.3,Win32,60.41931001,,,,,,,,,,,0.5116,1,,,,,,,,,,,,,,,z,1,0.5116,,,,,,,,0.644257729,-0.222969198,0,0,0,,0,144,144,99,1,BACKY,C,old,z,./images/BACKY.png,,,,,,,,,,,,,,,,,,,,,,,,,,,,,,,,,,,
,,,,,,,,,,,,,,,,,,33,2022-02-12_11h46.43.714,lexical_decision_task_DD_L4,2021.2.3,Win32,60.41931001,,,,,,,,,,,0.6818,1,,,,,,,,,,,,,,,z,1,0.6818,,,,,,,,0.644257729,-0.222969198,0,0,0,,0,145,145,86,1,AIFED,LB,old,z,./images/AIFEDLB.png,,,,,,,,,,,,,,,,,,,,,,,,,,,,,,,,,,,
,,,,,,,,,,,,,,,,,,33,2022-02-12_11h46.43.714,lexical_decision_task_DD_L4,2021.2.3,Win32,60.41931001,,,,,,,,,,,0.9062,1,,,,,,,,,,,,,,,m,1,0.9062,,,,,,,,0.644257729,-0.222969198,0,0,0,,0,146,146,3,1,CRATER,C,old,m,./images/CRATER.png,,,,,,,,,,,,,,,,,,,,,,,,,,,,,,,,,,,
,,,,,,,,,,,,,,,,,,33,2022-02-12_11h46.43.714,lexical_decision_task_DD_L4,2021.2.3,Win32,60.41931001,,,,,,,,,,,0.5522,1,,,,,,,,,,,,,,,m,1,0.5522,,,,,,,,0.644257729,-0.222969198,0,0,0,,0,147,147,62,1,MAMMAL,LB,old,m,./images/MAMMALLB.png,,,,,,,,,,,,,,,,,,,,,,,,,,,,,,,,,,,
,,,,,,,,,,,,,,,,,,33,2022-02-12_11h46.43.714,lexical_decision_task_DD_L4,2021.2.3,Win32,60.41931001,,,,,,,,,,,0.6128,1,,,,,,,,,,,,,,,z,1,0.6128,,,,,,,,0.644257729,-0.222969198,0,0,0,,0,148,148,162,1,LEICH,C,old,z,./images/LEICH.png,,,,,,,,,,,,,,,,,,,,,,,,,,,,,,,,,,,
,,,,,,,,,,,,,,,,,,33,2022-02-12_11h46.43.714,lexical_decision_task_DD_L4,2021.2.3,Win32,60.41931001,,,,,,,,,,,0.6259,1,,,,,,,,,,,,,,,m,1,0.6259,,,,,,,,0.644257729,-0.222969198,0,0,0,,0,149,149,77,1,WHEEL,LB,old,m,./images/WHEELLB.png,,,,,,,,,,,,,,,,,,,,,,,,,,,,,,,,,,,
,,,,,,,,,,,,,,,,,,33,2022-02-12_11h46.43.714,lexical_decision_task_DD_L4,2021.2.3,Win32,60.41931001,,,,,,,,,,,0.9574,1,,,,,,,,,,,,,,,z,1,0.9574,,,,,,,,0.644257729,-0.222969198,0,0,0,,0,150,150,143,1,MONGS,LB,old,z,./images/MONGSLB.png,,,,,,,,,,,,,,,,,,,,,,,,,,,,,,,,,,,
,,,,,,,,,,,,,,,,,,33,2022-02-12_11h46.43.714,lexical_decision_task_DD_L4,2021.2.3,Win32,60.41931001,,,,,,,,,,,0.7276,1,,,,,,,,,,,,,,,m,1,0.7276,,,,,,,,0.644257729,-0.222969198,0,0,0,,0,151,151,39,1,CANDY,C,old,m,./images/CANDY.png,,,,,,,,,,,,,,,,,,,,,,,,,,,,,,,,,,,
,,,,,,,,,,,,,,,,,,33,2022-02-12_11h46.43.714,lexical_decision_task_DD_L4,2021.2.3,Win32,60.41931001,,,,,,,,,,,1.5296,0,,,,,,,,,,,,,,,z,0,1.5296,,,,,,,,0.644257729,-0.222969198,0,0,0,,0,152,152,10,1,GARDEN,HB,old,m,./images/GARDENHB.png,,,,,,,,,,,,,,,,,,,,,,,,,,,,,,,,,,,
,,,,,,,,,,,,,,,,,,33,2022-02-12_11h46.43.714,lexical_decision_task_DD_L4,2021.2.3,Win32,60.41931001,,,,,,,,,,,0.9176,1,,,,,,,,,,,,,,,m,1,0.9176,,,,,,,,0.644257729,-0.222969198,0,0,0,,0,153,153,23,1,CLOTH,LB,old,m,./images/CLOTHLB.png,,,,,,,,,,,,,,,,,,,,,,,,,,,,,,,,,,,
,,,,,,,,,,,,,,,,,,33,2022-02-12_11h46.43.714,lexical_decision_task_DD_L4,2021.2.3,Win32,60.41931001,,,,,,,,,,,0.9912,1,,,,,,,,,,,,,,,m,1,0.9912,,,,,,,,0.644257729,-0.222969198,0,0,0,,0,154,154,58,1,CANOE,HB,old,m,./images/CANOEHB.png,,,,,,,,,,,,,,,,,,,,,,,,,,,,,,,,,,,
,,,,,,,,,,,,,,,,,,33,2022-02-12_11h46.43.714,lexical_decision_task_DD_L4,2021.2.3,Win32,60.41931001,,,,,,,,,,,5.0713,1,,,,,,,,,,,,,,,z,1,5.0713,,,,,,,,0.644257729,-0.222969198,0,0,0,,0,155,155,128,1,GRIFT,LB,old,z,./images/GRIFTLB.png,,,,,,,,,,,,,,,,,,,,,,,,,,,,,,,,,,,
,,,,,,,,,,,,,,,,,,33,2022-02-12_11h46.43.714,lexical_decision_task_DD_L4,2021.2.3,Win32,60.41931001,,,,,,,,,,,0.5799,1,,,,,,,,,,,,,,,z,1,0.5799,,,,,,,,0.644257729,-0.222969198,0,0,0,,0,156,156,119,1,PAFER,LB,old,z,./images/PAFERLB.png,,,,,,,,,,,,,,,,,,,,,,,,,,,,,,,,,,,
,,,,,,,,,,,,,,,,,,33,2022-02-12_11h46.43.714,lexical_decision_task_DD_L4,2021.2.3,Win32,60.41931001,,,,,,,,,,,0.5781,1,,,,,,,,,,,,,,,m,1,0.5781,,,,,,,,0.644257729,-0.222969198,0,0,0,,0,157,157,24,1,FLESH,C,old,m,./images/FLESH.png,,,,,,,,,,,,,,,,,,,,,,,,,,,,,,,,,,,
,,,,,,,,,,,,,,,,,,33,2022-02-12_11h46.43.714,lexical_decision_task_DD_L4,2021.2.3,Win32,60.41931001,,,,,,,,,,,0.5083,1,,,,,,,,,,,,,,,m,1,0.5083,,,,,,,,0.644257729,-0.222969198,0,0,0,,0,158,158,32,1,HOCKEY,LB,old,m,./images/HOCKEYLB.png,,,,,,,,,,,,,,,,,,,,,,,,,,,,,,,,,,,
,,,,,,,,,,,,,,,,,,33,2022-02-12_11h46.43.714,lexical_decision_task_DD_L4,2021.2.3,Win32,60.41931001,,,,,,,,,,,0.643,1,,,,,,,,,,,,,,,m,1,0.643,,,,,,,,0.644257729,-0.222969198,0,0,0,,0,159,159,43,1,STOOL,HB,old,m,./images/STOOLHB.png,,,,,,,,,,,,,,,,,,,,,,,,,,,,,,,,,,,
,,,,,,,,,,,,,,,,,,33,2022-02-12_11h46.43.714,lexical_decision_task_DD_L4,2021.2.3,Win32,60.41931001,,,,,,,,,,,0.567,1,,,,,,,,,,,,,,,m,1,0.567,,,,,,,,0.644257729,-0.222969198,0,0,0,,0,160,160,28,1,CASINO,HB,old,m,./images/CASINOHB.png,,,,,,,,,,,,,,,,,,,,,,,,,,,,,,,,,,,
,,,,,,,,,,,,,,,,,,33,2022-02-12_11h46.43.714,lexical_decision_task_DD_L4,2021.2.3,Win32,60.41931001,,,,,,,,,,,1.2393,1,,,,,,,,,,,,,,,z,1,1.2393,,,,,,,,0.644257729,-0.222969198,0,0,0,,0,161,161,127,1,NINDY,HB,old,z,./images/NINDYHB.png,,,,,,,,,,,,,,,,,,,,,,,,,,,,,,,,,,,
,,,,,,,,,,,,,,,,,,33,2022-02-12_11h46.43.714,lexical_decision_task_DD_L4,2021.2.3,Win32,60.41931001,,,,,,,,,,,0.6846,1,,,,,,,,,,,,,,,m,1,0.6846,,,,,,,,0.644257729,-0.222969198,0,0,0,,0,162,162,19,1,DONKEY,HB,old,m,./images/DONKEYHB.png,,,,,,,,,,,,,,,,,,,,,,,,,,,,,,,,,,,
,,,,,,,,,,,,,,,,,,33,2022-02-12_11h46.43.714,lexical_decision_task_DD_L4,2021.2.3,Win32,60.41931001,,,,,,,,,,,0.6745,1,,,,,,,,,,,,,,,m,1,0.6745,,,,,,,,0.644257729,-0.222969198,0,0,0,,0,163,163,1,1,TOWEL,HB,old,m,./images/TOWELHB.png,,,,,,,,,,,,,,,,,,,,,,,,,,,,,,,,,,,
,,,,,,,,,,,,,,,,,,33,2022-02-12_11h46.43.714,lexical_decision_task_DD_L4,2021.2.3,Win32,60.41931001,,,,,,,,,,,0.4647,1,,,,,,,,,,,,,,,m,1,0.4647,,,,,,,,0.644257729,-0.222969198,0,0,0,,0,164,164,78,1,BROOM,C,old,m,./images/BROOM.png,,,,,,,,,,,,,,,,,,,,,,,,,,,,,,,,,,,
,,,,,,,,,,,,,,,,,,33,2022-02-12_11h46.43.714,lexical_decision_task_DD_L4,2021.2.3,Win32,60.41931001,,,,,,,,,,,0.5009,1,,,,,,,,,,,,,,,m,1,0.5009,,,,,,,,0.644257729,-0.222969198,0,0,0,,0,165,165,72,1,FLASK,C,old,m,./images/FLASK.png,,,,,,,,,,,,,,,,,,,,,,,,,,,,,,,,,,,
,,,,,,,,,,,,,,,,,,33,2022-02-12_11h46.43.714,lexical_decision_task_DD_L4,2021.2.3,Win32,60.41931001,,,,,,,,,,,0.6348,1,,,,,,,,,,,,,,,z,1,0.6348,,,,,,,,0.644257729,-0.222969198,0,0,0,,0,166,166,165,1,TROWN,C,old,z,./images/TROWN.png,,,,,,,,,,,,,,,,,,,,,,,,,,,,,,,,,,,
,,,,,,,,,,,,,,,,,,33,2022-02-12_11h46.43.714,lexical_decision_task_DD_L4,2021.2.3,Win32,60.41931001,,,,,,,,,,,1.3533,1,,,,,,,,,,,,,,,m,1,1.3533,,,,,,,,0.644257729,-0.222969198,0,0,0,,0,167,167,55,1,ALLEY,HB,old,m,./images/ALLEYHB.png,,,,,,,,,,,,,,,,,,,,,,,,,,,,,,,,,,,
,,,,,,,,,,,,,,,,,,33,2022-02-12_11h46.43.714,lexical_decision_task_DD_L4,2021.2.3,Win32,60.41931001,,,,,,,,,,,,,,,,,,,,,,,,,,,,,,,,,,,,,,,,,,,,,,,,,How likely will it be that you will recognize the words presented slighly blurred on a scale of 0 (not likely) to 100 (most likely)?,,,,,0.005602257,-0.419047633,1,0,0,jol_adv,5,3.8026,0,0,0,1,1,,,,,,,,,,,,,,,,,,,,,
,,,,,,,,,,,,,,,,,,33,2022-02-12_11h46.43.714,lexical_decision_task_DD_L4,2021.2.3,Win32,60.41931001,,,,,,,,,,,,,,,,,,,,,,,,,,,,,,,,,,,,,,,,,,,,,,,,,How likely will it be that you will recognize the words presented very blurred on a scale of 0 (not likely) to 100 (most likely)?,,,,,,,,,,,4,5.4977,0,1,1,2,1,,,,,,,,,,,,,,,,,,,,,
,,,,,,,,,,,,,,,,,,33,2022-02-12_11h46.43.714,lexical_decision_task_DD_L4,2021.2.3,Win32,60.41931001,,,,,,,,,,,,,,,,,,,,,,,,,,,,,,,,,,,,,,,,,,,,,,,,,How likely will it be that you will recognize the words presented clearly on a scale of 0 (not likely) to 100 (most likely)?,,,,,,,,,,,6,6.3161,0,2,2,0,1,,,,,,,,,,,,,,,,,,,,,
,0.015686291,-0.395518221,1,0,0,instr_done_button,,,,,,1,test,"In the next phase you will be presented with the words from the the first phase. Your job is to decide whether you remember seeing the word or not. If you remember seeing the word press ""old"" or type ""m"". If you do not remember seeing the word press ""new"" or type ""z"". Please press the space bar or click on continue to begin. ",,,,33,2022-02-12_11h46.43.714,lexical_decision_task_DD_L4,2021.2.3,Win32,60.41931001,,,,,,,,,,,,,,,,,,,,,,,,,,,,,,,,,,,,,,,,,,,,,,,,,,,,,,,,,,,,,,,,,,,0,0,0,0,1,,,,,,,,,,,,,,,,
,0.012324946,-0.414565908,1,0,0,instr_done_button,,,,,,1,test,"In the next phase you will be presented with the words from the the first phase. Your job is to decide whether you remember seeing the word or not. If you remember seeing the word press ""old"" or type ""m"". If you do not remember seeing the word press ""new"" or type ""z"". Please press the space bar or click on continue to begin. ",,,,33,2022-02-12_11h46.43.714,lexical_decision_task_DD_L4,2021.2.3,Win32,60.41931001,,,,,,,,,,,,,,,,,,,,,,,,,,,,,,,,,,,,,,,,,,,,,,,,,,,,,,,,,,,,,,,,,,,1,0,1,0,1,,,,,,,,,,,,,,,,
space,0.012324946,-0.414565908,0,0,0,,,,,,,1,test,"In the next phase you will be presented with the words from the the first phase. Your job is to decide whether you remember seeing the word or not. If you remember seeing the word press ""old"" or type ""m"". If you do not remember seeing the word press ""new"" or type ""z"". Please press the space bar or click on continue to begin. ",,,,33,2022-02-12_11h46.43.714,lexical_decision_task_DD_L4,2021.2.3,Win32,60.41931001,,,,,,,,,,,,,,,,,,,,,0.9179,,,,,,,,,,,,,,,,,,,,,,,,,,,,,,,,,,,,,,,,,,,,,,2,0,2,0,1,,,,,,,,,,,,,,,,
,0.012324946,-0.414565908,1,0,0,instr_done_button,,,,,,1,test,"In the next phase you will be presented with the words from the the first phase. Your job is to decide whether you remember seeing the word or not. If you remember seeing the word press ""old"" or type ""m"". If you do not remember seeing the word press ""new"" or type ""z"". Please press the space bar or click on continue to begin. ",,,,33,2022-02-12_11h46.43.714,lexical_decision_task_DD_L4,2021.2.3,Win32,60.41931001,,,,,,,,,,,,,,,,,,,,,,,,,,,,,,,,,,,,,,,,,,,,,,,,,,,,,,,,,,,,,,,,,,,3,0,3,0,1,,,,,,,,,,,,,,,,
,0.05938377,-0.360784327,1,0,0,instr_done_button,,,,,,1,test,"In the next phase you will be presented with the words from the the first phase. Your job is to decide whether you remember seeing the word or not. If you remember seeing the word press ""old"" or type ""m"". If you do not remember seeing the word press ""new"" or type ""z"". Please press the space bar or click on continue to begin. ",,,,33,2022-02-12_11h46.43.714,lexical_decision_task_DD_L4,2021.2.3,Win32,60.41931001,,,,,,,,,,,,,,,,,,,,,,,,,,,,,,,,,,,,,,,,,,,,,,,,,,,,,,,,,,,,,,,,,,,4,0,4,0,1,,,,,,,,,,,,,,,,
,,,,,,,,,,,,,,,,,,33,2022-02-12_11h46.43.714,lexical_decision_task_DD_L4,2021.2.3,Win32,60.41931001,,,,,,,,,,,1.9821,1,,,,,,,,,,,,,,,,,,,,,,,,,0.05938377,-0.360784327,0,0,0,,,,,,,CEMENT,LB,z,y,./images/CEMENTLB.png,,,,,,,,,,,,,,,,,,,,z,1,1.9821,,,,,,,,0,0,0,158,1,
,,,,,,,,,,,,,,,,,,33,2022-02-12_11h46.43.714,lexical_decision_task_DD_L4,2021.2.3,Win32,60.41931001,,,,,,,,,,,0.9407,1,,,,,,,,,,,,,,,,,,,,,,,,,0.05938377,-0.360784327,0,0,0,,,,,,,RHINO,C,z,y,./images/RHINO.png,,,,,,,,,,,,,,,,,,,,z,1,0.9407,,,,,,,,0,1,1,93,1,
,,,,,,,,,,,,,,,,,,33,2022-02-12_11h46.43.714,lexical_decision_task_DD_L4,2021.2.3,Win32,60.41931001,,,,,,,,,,,1.0732,1,,,,,,,,,,,,,,,,,,,,,,,,,0.05938377,-0.360784327,0,0,0,,,,,,,DESERT,HB,m,y,./images/DESERTHB.png,,,,,,,,,,,,,,,,,,,,m,1,1.0732,,,,,,,,0,2,2,52,1,
,,,,,,,,,,,,,,,,,,33,2022-02-12_11h46.43.714,lexical_decision_task_DD_L4,2021.2.3,Win32,60.41931001,,,,,,,,,,,0.5814,1,,,,,,,,,,,,,,,,,,,,,,,,,0.05938377,-0.360784327,0,0,0,,,,,,,SNAKE,HB,m,y,./images/SNAKEHB.png,,,,,,,,,,,,,,,,,,,,m,1,0.5814,,,,,,,,0,3,3,40,1,
,,,,,,,,,,,,,,,,,,33,2022-02-12_11h46.43.714,lexical_decision_task_DD_L4,2021.2.3,Win32,60.41931001,,,,,,,,,,,0.5474,0,,,,,,,,,,,,,,,,,,,,,,,,,0.05938377,-0.360784327,0,0,0,,,,,,,CANYON,HB,z,y,./images/CANYONHB.png,,,,,,,,,,,,,,,,,,,,m,0,0.5474,,,,,,,,0,4,4,118,1,
,,,,,,,,,,,,,,,,,,33,2022-02-12_11h46.43.714,lexical_decision_task_DD_L4,2021.2.3,Win32,60.41931001,,,,,,,,,,,0.6358,1,,,,,,,,,,,,,,,,,,,,,,,,,0.05938377,-0.360784327,0,0,0,,,,,,,DOUGH,HB,z,y,./images/DOUGHHB.png,,,,,,,,,,,,,,,,,,,,z,1,0.6358,,,,,,,,0,5,5,103,1,
,,,,,,,,,,,,,,,,,,33,2022-02-12_11h46.43.714,lexical_decision_task_DD_L4,2021.2.3,Win32,60.41931001,,,,,,,,,,,0.648,1,,,,,,,,,,,,,,,,,,,,,,,,,0.05938377,-0.360784327,0,0,0,,,,,,,VALLEY,LB,m,y,./images/VALLEYLB.png,,,,,,,,,,,,,,,,,,,,m,1,0.648,,,,,,,,0,6,6,68,1,
,,,,,,,,,,,,,,,,,,33,2022-02-12_11h46.43.714,lexical_decision_task_DD_L4,2021.2.3,Win32,60.41931001,,,,,,,,,,,0.5583,1,,,,,,,,,,,,,,,,,,,,,,,,,0.05938377,-0.360784327,0,0,0,,,,,,,DRUMS,HB,z,y,./images/DRUMSHB.png,,,,,,,,,,,,,,,,,,,,z,1,0.5583,,,,,,,,0,7,7,133,1,
,,,,,,,,,,,,,,,,,,33,2022-02-12_11h46.43.714,lexical_decision_task_DD_L4,2021.2.3,Win32,60.41931001,,,,,,,,,,,0.7122,1,,,,,,,,,,,,,,,,,,,,,,,,,0.05938377,-0.360784327,0,0,0,,,,,,,LAGOON,LB,m,y,./images/LAGOONLB.png,,,,,,,,,,,,,,,,,,,,m,1,0.7122,,,,,,,,0,8,8,47,1,
,,,,,,,,,,,,,,,,,,33,2022-02-12_11h46.43.714,lexical_decision_task_DD_L4,2021.2.3,Win32,60.41931001,,,,,,,,,,,0.5121,1,,,,,,,,,,,,,,,,,,,,,,,,,0.05938377,-0.360784327,0,0,0,,,,,,,BAKER,C,m,y,./images/BAKER.png,,,,,,,,,,,,,,,,,,,,m,1,0.5121,,,,,,,,0,9,9,63,1,
,,,,,,,,,,,,,,,,,,33,2022-02-12_11h46.43.714,lexical_decision_task_DD_L4,2021.2.3,Win32,60.41931001,,,,,,,,,,,0.5909,1,,,,,,,,,,,,,,,,,,,,,,,,,0.05938377,-0.360784327,0,0,0,,,,,,,BISHOP,HB,m,y,./images/BISHOPHB.png,,,,,,,,,,,,,,,,,,,,m,1,0.5909,,,,,,,,0,10,10,49,1,
,,,,,,,,,,,,,,,,,,33,2022-02-12_11h46.43.714,lexical_decision_task_DD_L4,2021.2.3,Win32,60.41931001,,,,,,,,,,,0.7804,1,,,,,,,,,,,,,,,,,,,,,,,,,0.05938377,-0.360784327,0,0,0,,,,,,,BIRTH,HB,z,y,./images/BIRTHHB.png,,,,,,,,,,,,,,,,,,,,z,1,0.7804,,,,,,,,0,11,11,121,1,
,,,,,,,,,,,,,,,,,,33,2022-02-12_11h46.43.714,lexical_decision_task_DD_L4,2021.2.3,Win32,60.41931001,,,,,,,,,,,0.7737,1,,,,,,,,,,,,,,,,,,,,,,,,,0.05938377,-0.360784327,0,0,0,,,,,,,LIZARD,LB,z,y,./images/LIZARDLB.png,,,,,,,,,,,,,,,,,,,,z,1,0.7737,,,,,,,,0,12,12,128,1,
,,,,,,,,,,,,,,,,,,33,2022-02-12_11h46.43.714,lexical_decision_task_DD_L4,2021.2.3,Win32,60.41931001,,,,,,,,,,,0.6837,1,,,,,,,,,,,,,,,,,,,,,,,,,0.05938377,-0.360784327,0,0,0,,,,,,,BONNET,LB,z,y,./images/BONNETLB.png,,,,,,,,,,,,,,,,,,,,z,1,0.6837,,,,,,,,0,13,13,95,1,
,,,,,,,,,,,,,,,,,,33,2022-02-12_11h46.43.714,lexical_decision_task_DD_L4,2021.2.3,Win32,60.41931001,,,,,,,,,,,0.6547,1,,,,,,,,,,,,,,,,,,,,,,,,,0.05938377,-0.360784327,0,0,0,,,,,,,KIDNEY,C,z,y,./images/KIDNEY.png,,,,,,,,,,,,,,,,,,,,z,1,0.6547,,,,,,,,0,14,14,105,1,
,,,,,,,,,,,,,,,,,,33,2022-02-12_11h46.43.714,lexical_decision_task_DD_L4,2021.2.3,Win32,60.41931001,,,,,,,,,,,0.5572,1,,,,,,,,,,,,,,,,,,,,,,,,,0.05938377,-0.360784327,0,0,0,,,,,,,HAMMER,C,m,y,./images/HAMMER.png,,,,,,,,,,,,,,,,,,,,m,1,0.5572,,,,,,,,0,15,15,75,1,
,,,,,,,,,,,,,,,,,,33,2022-02-12_11h46.43.714,lexical_decision_task_DD_L4,2021.2.3,Win32,60.41931001,,,,,,,,,,,0.6294,1,,,,,,,,,,,,,,,,,,,,,,,,,0.05938377,-0.360784327,0,0,0,,,,,,,INFANT,HB,z,y,./images/INFANTHB.png,,,,,,,,,,,,,,,,,,,,z,1,0.6294,,,,,,,,0,16,16,160,1,
,,,,,,,,,,,,,,,,,,33,2022-02-12_11h46.43.714,lexical_decision_task_DD_L4,2021.2.3,Win32,60.41931001,,,,,,,,,,,0.5455,1,,,,,,,,,,,,,,,,,,,,,,,,,0.05938377,-0.360784327,0,0,0,,,,,,,ALLEY,HB,m,y,./images/ALLEYHB.png,,,,,,,,,,,,,,,,,,,,m,1,0.5455,,,,,,,,0,17,17,55,1,
,,,,,,,,,,,,,,,,,,33,2022-02-12_11h46.43.714,lexical_decision_task_DD_L4,2021.2.3,Win32,60.41931001,,,,,,,,,,,0.5739,0,,,,,,,,,,,,,,,,,,,,,,,,,0.05938377,-0.360784327,0,0,0,,,,,,,BABOON,HB,z,y,./images/BABOONHB.png,,,,,,,,,,,,,,,,,,,,m,0,0.5739,,,,,,,,0,18,18,142,1,
,,,,,,,,,,,,,,,,,,33,2022-02-12_11h46.43.714,lexical_decision_task_DD_L4,2021.2.3,Win32,60.41931001,,,,,,,,,,,1.3239,1,,,,,,,,,,,,,,,,,,,,,,,,,0.05938377,-0.360784327,0,0,0,,,,,,,BRUSH,LB,m,y,./images/BRUSHLB.png,,,,,,,,,,,,,,,,,,,,m,1,1.3239,,,,,,,,0,19,19,59,1,
,,,,,,,,,,,,,,,,,,33,2022-02-12_11h46.43.714,lexical_decision_task_DD_L4,2021.2.3,Win32,60.41931001,,,,,,,,,,,0.9665,1,,,,,,,,,,,,,,,,,,,,,,,,,0.05938377,-0.360784327,0,0,0,,,,,,,STRING,LB,z,y,./images/STRINGLB.png,,,,,,,,,,,,,,,,,,,,z,1,0.9665,,,,,,,,0,20,20,125,1,
,,,,,,,,,,,,,,,,,,33,2022-02-12_11h46.43.714,lexical_decision_task_DD_L4,2021.2.3,Win32,60.41931001,,,,,,,,,,,0.6612,1,,,,,,,,,,,,,,,,,,,,,,,,,0.05938377,-0.360784327,0,0,0,,,,,,,PAINT,HB,z,y,./images/PAINTHB.png,,,,,,,,,,,,,,,,,,,,z,1,0.6612,,,,,,,,0,21,21,91,1,
,,,,,,,,,,,,,,,,,,33,2022-02-12_11h46.43.714,lexical_decision_task_DD_L4,2021.2.3,Win32,60.41931001,,,,,,,,,,,0.9112,0,,,,,,,,,,,,,,,,,,,,,,,,,0.05938377,-0.360784327,0,0,0,,,,,,,PISTOL,LB,m,y,./images/PISTOLLB.png,,,,,,,,,,,,,,,,,,,,z,0,0.9112,,,,,,,,0,22,22,29,1,
,,,,,,,,,,,,,,,,,,33,2022-02-12_11h46.43.714,lexical_decision_task_DD_L4,2021.2.3,Win32,60.41931001,,,,,,,,,,,0.7161,0,,,,,,,,,,,,,,,,,,,,,,,,,0.05938377,-0.360784327,0,0,0,,,,,,,SHORE,C,z,y,./images/SHORE.png,,,,,,,,,,,,,,,,,,,,m,0,0.7161,,,,,,,,0,23,23,96,1,
,,,,,,,,,,,,,,,,,,33,2022-02-12_11h46.43.714,lexical_decision_task_DD_L4,2021.2.3,Win32,60.41931001,,,,,,,,,,,0.6114,1,,,,,,,,,,,,,,,,,,,,,,,,,0.05938377,-0.360784327,0,0,0,,,,,,,CANDY,C,m,y,./images/CANDY.png,,,,,,,,,,,,,,,,,,,,m,1,0.6114,,,,,,,,0,24,24,39,1,
,,,,,,,,,,,,,,,,,,33,2022-02-12_11h46.43.714,lexical_decision_task_DD_L4,2021.2.3,Win32,60.41931001,,,,,,,,,,,0.7065,1,,,,,,,,,,,,,,,,,,,,,,,,,0.05938377,-0.360784327,0,0,0,,,,,,,CRATER,C,m,y,./images/CRATER.png,,,,,,,,,,,,,,,,,,,,m,1,0.7065,,,,,,,,0,25,25,3,1,
,,,,,,,,,,,,,,,,,,33,2022-02-12_11h46.43.714,lexical_decision_task_DD_L4,2021.2.3,Win32,60.41931001,,,,,,,,,,,0.6945,1,,,,,,,,,,,,,,,,,,,,,,,,,0.05938377,-0.360784327,0,0,0,,,,,,,CURRY,C,m,y,./images/CURRY.png,,,,,,,,,,,,,,,,,,,,m,1,0.6945,,,,,,,,0,26,26,60,1,
,,,,,,,,,,,,,,,,,,33,2022-02-12_11h46.43.714,lexical_decision_task_DD_L4,2021.2.3,Win32,60.41931001,,,,,,,,,,,0.6276,1,,,,,,,,,,,,,,,,,,,,,,,,,0.05938377,-0.360784327,0,0,0,,,,,,,JELLY,HB,z,y,./images/JELLYHB.png,,,,,,,,,,,,,,,,,,,,z,1,0.6276,,,,,,,,0,27,27,148,1,
,,,,,,,,,,,,,,,,,,33,2022-02-12_11h46.43.714,lexical_decision_task_DD_L4,2021.2.3,Win32,60.41931001,,,,,,,,,,,0.7278,1,,,,,,,,,,,,,,,,,,,,,,,,,0.05938377,-0.360784327,0,0,0,,,,,,,URINE,HB,z,y,./images/URINEHB.png,,,,,,,,,,,,,,,,,,,,z,1,0.7278,,,,,,,,0,28,28,154,1,
,,,,,,,,,,,,,,,,,,33,2022-02-12_11h46.43.714,lexical_decision_task_DD_L4,2021.2.3,Win32,60.41931001,,,,,,,,,,,0.7108,1,,,,,,,,,,,,,,,,,,,,,,,,,0.05938377,-0.360784327,0,0,0,,,,,,,ATTIC,C,z,y,./images/ATTIC.png,,,,,,,,,,,,,,,,,,,,z,1,0.7108,,,,,,,,0,29,29,111,1,
,,,,,,,,,,,,,,,,,,33,2022-02-12_11h46.43.714,lexical_decision_task_DD_L4,2021.2.3,Win32,60.41931001,,,,,,,,,,,0.639,1,,,,,,,,,,,,,,,,,,,,,,,,,0.05938377,-0.360784327,0,0,0,,,,,,,CLOTH,LB,m,y,./images/CLOTHLB.png,,,,,,,,,,,,,,,,,,,,m,1,0.639,,,,,,,,0,30,30,23,1,
,,,,,,,,,,,,,,,,,,33,2022-02-12_11h46.43.714,lexical_decision_task_DD_L4,2021.2.3,Win32,60.41931001,,,,,,,,,,,0.7724,1,,,,,,,,,,,,,,,,,,,,,,,,,0.05938377,-0.360784327,0,0,0,,,,,,,FENCE,LB,m,y,./images/FENCELB.png,,,,,,,,,,,,,,,,,,,,m,1,0.7724,,,,,,,,0,31,31,14,1,
,,,,,,,,,,,,,,,,,,33,2022-02-12_11h46.43.714,lexical_decision_task_DD_L4,2021.2.3,Win32,60.41931001,,,,,,,,,,,0.9896,1,,,,,,,,,,,,,,,,,,,,,,,,,0.05938377,-0.360784327,0,0,0,,,,,,,POKER,HB,m,y,./images/POKERHB.png,,,,,,,,,,,,,,,,,,,,m,1,0.9896,,,,,,,,0,32,32,67,1,
,,,,,,,,,,,,,,,,,,33,2022-02-12_11h46.43.714,lexical_decision_task_DD_L4,2021.2.3,Win32,60.41931001,,,,,,,,,,,0.6584,1,,,,,,,,,,,,,,,,,,,,,,,,,0.05938377,-0.360784327,0,0,0,,,,,,,BRIDE,HB,m,y,./images/BRIDEHB.png,,,,,,,,,,,,,,,,,,,,m,1,0.6584,,,,,,,,0,33,33,64,1,
,,,,,,,,,,,,,,,,,,33,2022-02-12_11h46.43.714,lexical_decision_task_DD_L4,2021.2.3,Win32,60.41931001,,,,,,,,,,,0.5156,1,,,,,,,,,,,,,,,,,,,,,,,,,0.05938377,-0.360784327,0,0,0,,,,,,,MAMMAL,LB,m,y,./images/MAMMALLB.png,,,,,,,,,,,,,,,,,,,,m,1,0.5156,,,,,,,,0,34,34,62,1,
,,,,,,,,,,,,,,,,,,33,2022-02-12_11h46.43.714,lexical_decision_task_DD_L4,2021.2.3,Win32,60.41931001,,,,,,,,,,,0.5322,1,,,,,,,,,,,,,,,,,,,,,,,,,0.05938377,-0.360784327,0,0,0,,,,,,,GLOVE,HB,m,y,./images/GLOVEHB.png,,,,,,,,,,,,,,,,,,,,m,1,0.5322,,,,,,,,0,35,35,73,1,
,,,,,,,,,,,,,,,,,,33,2022-02-12_11h46.43.714,lexical_decision_task_DD_L4,2021.2.3,Win32,60.41931001,,,,,,,,,,,0.6532,1,,,,,,,,,,,,,,,,,,,,,,,,,0.05938377,-0.360784327,0,0,0,,,,,,,SAUCE,C,m,y,./images/SAUCE.png,,,,,,,,,,,,,,,,,,,,m,1,0.6532,,,,,,,,0,36,36,51,1,
,,,,,,,,,,,,,,,,,,33,2022-02-12_11h46.43.714,lexical_decision_task_DD_L4,2021.2.3,Win32,60.41931001,,,,,,,,,,,0.7278,1,,,,,,,,,,,,,,,,,,,,,,,,,0.05938377,-0.360784327,0,0,0,,,,,,,SPORT,C,z,y,./images/SPORT.png,,,,,,,,,,,,,,,,,,,,z,1,0.7278,,,,,,,,0,37,37,132,1,
,,,,,,,,,,,,,,,,,,33,2022-02-12_11h46.43.714,lexical_decision_task_DD_L4,2021.2.3,Win32,60.41931001,,,,,,,,,,,0.628,1,,,,,,,,,,,,,,,,,,,,,,,,,0.05938377,-0.360784327,0,0,0,,,,,,,MUMMY,HB,m,y,./images/MUMMYHB.png,,,,,,,,,,,,,,,,,,,,m,1,0.628,,,,,,,,0,38,38,46,1,
,,,,,,,,,,,,,,,,,,33,2022-02-12_11h46.43.714,lexical_decision_task_DD_L4,2021.2.3,Win32,60.41931001,,,,,,,,,,,0.7527,1,,,,,,,,,,,,,,,,,,,,,,,,,0.05938377,-0.360784327,0,0,0,,,,,,,JUMPER,LB,m,y,./images/JUMPERLB.png,,,,,,,,,,,,,,,,,,,,m,1,0.7527,,,,,,,,0,39,39,74,1,
,,,,,,,,,,,,,,,,,,33,2022-02-12_11h46.43.714,lexical_decision_task_DD_L4,2021.2.3,Win32,60.41931001,,,,,,,,,,,0.9869,0,,,,,,,,,,,,,,,,,,,,,,,,,0.05938377,-0.360784327,0,0,0,,,,,,,JUNGLE,LB,z,y,./images/JUNGLELB.png,,,,,,,,,,,,,,,,,,,,m,0,0.9869,,,,,,,,0,40,40,167,1,
,,,,,,,,,,,,,,,,,,33,2022-02-12_11h46.43.714,lexical_decision_task_DD_L4,2021.2.3,Win32,60.41931001,,,,,,,,,,,0.6239,1,,,,,,,,,,,,,,,,,,,,,,,,,0.097479009,-0.440336148,1,0,0,,,,,,,MOOSE,C,z,y,./images/MOOSE.png,,,,,,,,,,,,,,,,,,,,z,1,0.6239,,,,,,,,0,41,41,141,1,break_done_button
,,,,,,,,,,,,,,,,,,33,2022-02-12_11h46.43.714,lexical_decision_task_DD_L4,2021.2.3,Win32,60.41931001,,,,,,,,,,,2.7659,1,,,,,,,,,,,,,,,,,,,,,,,,,0.393277333,-0.168067305,0,0,0,,,,,,,RULER,HB,m,y,./images/RULERHB.png,,,,,,,,,,,,,,,,,,,,m,1,2.7659,,,,,,,,0,42,42,79,1,
,,,,,,,,,,,,,,,,,,33,2022-02-12_11h46.43.714,lexical_decision_task_DD_L4,2021.2.3,Win32,60.41931001,,,,,,,,,,,0.8388,0,,,,,,,,,,,,,,,,,,,,,,,,,0.393277333,-0.168067305,0,0,0,,,,,,,SNACK,HB,z,y,./images/SNACKHB.png,,,,,,,,,,,,,,,,,,,,m,0,0.8388,,,,,,,,0,43,43,157,1,
,,,,,,,,,,,,,,,,,,33,2022-02-12_11h46.43.714,lexical_decision_task_DD_L4,2021.2.3,Win32,60.41931001,,,,,,,,,,,0.5891,0,,,,,,,,,,,,,,,,,,,,,,,,,0.393277333,-0.168067305,0,0,0,,,,,,,PARADE,LB,m,y,./images/PARADELB.png,,,,,,,,,,,,,,,,,,,,z,0,0.5891,,,,,,,,0,44,44,17,1,
,,,,,,,,,,,,,,,,,,33,2022-02-12_11h46.43.714,lexical_decision_task_DD_L4,2021.2.3,Win32,60.41931001,,,,,,,,,,,1.0746,1,,,,,,,,,,,,,,,,,,,,,,,,,0.393277333,-0.168067305,0,0,0,,,,,,,FERRY,C,m,y,./images/FERRY.png,,,,,,,,,,,,,,,,,,,,m,1,1.0746,,,,,,,,0,45,45,57,1,
,,,,,,,,,,,,,,,,,,33,2022-02-12_11h46.43.714,lexical_decision_task_DD_L4,2021.2.3,Win32,60.41931001,,,,,,,,,,,0.7243,0,,,,,,,,,,,,,,,,,,,,,,,,,0.393277333,-0.168067305,0,0,0,,,,,,,MOTOR,HB,z,y,./images/MOTORHB.png,,,,,,,,,,,,,,,,,,,,m,0,0.7243,,,,,,,,0,46,46,97,1,
,,,,,,,,,,,,,,,,,,33,2022-02-12_11h46.43.714,lexical_decision_task_DD_L4,2021.2.3,Win32,60.41931001,,,,,,,,,,,0.5854,1,,,,,,,,,,,,,,,,,,,,,,,,,0.393277333,-0.168067305,0,0,0,,,,,,,COOKER,C,z,y,./images/COOKER.png,,,,,,,,,,,,,,,,,,,,z,1,0.5854,,,,,,,,0,47,47,153,1,
,,,,,,,,,,,,,,,,,,33,2022-02-12_11h46.43.714,lexical_decision_task_DD_L4,2021.2.3,Win32,60.41931001,,,,,,,,,,,0.6758,0,,,,,,,,,,,,,,,,,,,,,,,,,0.393277333,-0.168067305,0,0,0,,,,,,,BROOM,C,m,y,./images/BROOM.png,,,,,,,,,,,,,,,,,,,,z,0,0.6758,,,,,,,,0,48,48,78,1,
,,,,,,,,,,,,,,,,,,33,2022-02-12_11h46.43.714,lexical_decision_task_DD_L4,2021.2.3,Win32,60.41931001,,,,,,,,,,,0.6011,1,,,,,,,,,,,,,,,,,,,,,,,,,0.393277333,-0.168067305,0,0,0,,,,,,,TOWEL,HB,m,y,./images/TOWELHB.png,,,,,,,,,,,,,,,,,,,,m,1,0.6011,,,,,,,,0,49,49,1,1,
,,,,,,,,,,,,,,,,,,33,2022-02-12_11h46.43.714,lexical_decision_task_DD_L4,2021.2.3,Win32,60.41931001,,,,,,,,,,,1.0616,1,,,,,,,,,,,,,,,,,,,,,,,,,0.393277333,-0.168067305,0,0,0,,,,,,,STORM,C,z,y,./images/STORM.png,,,,,,,,,,,,,,,,,,,,z,1,1.0616,,,,,,,,0,50,50,114,1,
,,,,,,,,,,,,,,,,,,33,2022-02-12_11h46.43.714,lexical_decision_task_DD_L4,2021.2.3,Win32,60.41931001,,,,,,,,,,,0.7433,0,,,,,,,,,,,,,,,,,,,,,,,,,0.393277333,-0.168067305,0,0,0,,,,,,,CLOUD,LB,m,y,./images/CLOUDLB.png,,,,,,,,,,,,,,,,,,,,z,0,0.7433,,,,,,,,0,51,51,26,1,
,,,,,,,,,,,,,,,,,,33,2022-02-12_11h46.43.714,lexical_decision_task_DD_L4,2021.2.3,Win32,60.41931001,,,,,,,,,,,0.6839,1,,,,,,,,,,,,,,,,,,,,,,,,,0.393277333,-0.168067305,0,0,0,,,,,,,STAIN,C,m,y,./images/STAIN.png,,,,,,,,,,,,,,,,,,,,m,1,0.6839,,,,,,,,0,52,52,6,1,
,,,,,,,,,,,,,,,,,,33,2022-02-12_11h46.43.714,lexical_decision_task_DD_L4,2021.2.3,Win32,60.41931001,,,,,,,,,,,0.5841,1,,,,,,,,,,,,,,,,,,,,,,,,,0.393277333,-0.168067305,0,0,0,,,,,,,FLASK,C,m,y,./images/FLASK.png,,,,,,,,,,,,,,,,,,,,m,1,0.5841,,,,,,,,0,53,53,72,1,
,,,,,,,,,,,,,,,,,,33,2022-02-12_11h46.43.714,lexical_decision_task_DD_L4,2021.2.3,Win32,60.41931001,,,,,,,,,,,0.6272,0,,,,,,,,,,,,,,,,,,,,,,,,,0.393277333,-0.168067305,0,0,0,,,,,,,ARTIST,HB,m,y,./images/ARTISTHB.png,,,,,,,,,,,,,,,,,,,,z,0,0.6272,,,,,,,,0,54,54,61,1,
,,,,,,,,,,,,,,,,,,33,2022-02-12_11h46.43.714,lexical_decision_task_DD_L4,2021.2.3,Win32,60.41931001,,,,,,,,,,,0.7513,1,,,,,,,,,,,,,,,,,,,,,,,,,0.393277333,-0.168067305,0,0,0,,,,,,,SAUNA,C,m,y,./images/SAUNA.png,,,,,,,,,,,,,,,,,,,,m,1,0.7513,,,,,,,,0,55,55,33,1,
,,,,,,,,,,,,,,,,,,33,2022-02-12_11h46.43.714,lexical_decision_task_DD_L4,2021.2.3,Win32,60.41931001,,,,,,,,,,,0.6011,1,,,,,,,,,,,,,,,,,,,,,,,,,0.393277333,-0.168067305,0,0,0,,,,,,,DONKEY,HB,m,y,./images/DONKEYHB.png,,,,,,,,,,,,,,,,,,,,m,1,0.6011,,,,,,,,0,56,56,19,1,
,,,,,,,,,,,,,,,,,,33,2022-02-12_11h46.43.714,lexical_decision_task_DD_L4,2021.2.3,Win32,60.41931001,,,,,,,,,,,0.6171,1,,,,,,,,,,,,,,,,,,,,,,,,,0.393277333,-0.168067305,0,0,0,,,,,,,POSTER,LB,m,y,./images/POSTERLB.png,,,,,,,,,,,,,,,,,,,,m,1,0.6171,,,,,,,,0,57,57,53,1,
,,,,,,,,,,,,,,,,,,33,2022-02-12_11h46.43.714,lexical_decision_task_DD_L4,2021.2.3,Win32,60.41931001,,,,,,,,,,,0.7677,1,,,,,,,,,,,,,,,,,,,,,,,,,0.393277333,-0.168067305,0,0,0,,,,,,,COUCH,LB,z,y,./images/COUCHLB.png,,,,,,,,,,,,,,,,,,,,z,1,0.7677,,,,,,,,0,58,58,161,1,
,,,,,,,,,,,,,,,,,,33,2022-02-12_11h46.43.714,lexical_decision_task_DD_L4,2021.2.3,Win32,60.41931001,,,,,,,,,,,0.6872,1,,,,,,,,,,,,,,,,,,,,,,,,,0.393277333,-0.168067305,0,0,0,,,,,,,KITTEN,C,z,y,./images/KITTEN.png,,,,,,,,,,,,,,,,,,,,z,1,0.6872,,,,,,,,0,59,59,129,1,
,,,,,,,,,,,,,,,,,,33,2022-02-12_11h46.43.714,lexical_decision_task_DD_L4,2021.2.3,Win32,60.41931001,,,,,,,,,,,0.5347,1,,,,,,,,,,,,,,,,,,,,,,,,,0.393277333,-0.168067305,0,0,0,,,,,,,BEARD,LB,z,y,./images/BEARDLB.png,,,,,,,,,,,,,,,,,,,,z,1,0.5347,,,,,,,,0,60,60,86,1,
,,,,,,,,,,,,,,,,,,33,2022-02-12_11h46.43.714,lexical_decision_task_DD_L4,2021.2.3,Win32,60.41931001,,,,,,,,,,,0.8854,0,,,,,,,,,,,,,,,,,,,,,,,,,0.393277333,-0.168067305,0,0,0,,,,,,,DIVER,C,m,y,./images/DIVER.png,,,,,,,,,,,,,,,,,,,,z,0,0.8854,,,,,,,,0,61,61,9,1,
,,,,,,,,,,,,,,,,,,33,2022-02-12_11h46.43.714,lexical_decision_task_DD_L4,2021.2.3,Win32,60.41931001,,,,,,,,,,,0.7567,1,,,,,,,,,,,,,,,,,,,,,,,,,0.393277333,-0.168067305,0,0,0,,,,,,,BOXER,HB,m,y,./images/BOXERHB.png,,,,,,,,,,,,,,,,,,,,m,1,0.7567,,,,,,,,0,62,62,4,1,
,,,,,,,,,,,,,,,,,,33,2022-02-12_11h46.43.714,lexical_decision_task_DD_L4,2021.2.3,Win32,60.41931001,,,,,,,,,,,0.7892,1,,,,,,,,,,,,,,,,,,,,,,,,,0.393277333,-0.168067305,0,0,0,,,,,,,ONION,C,z,y,./images/ONION.png,,,,,,,,,,,,,,,,,,,,z,1,0.7892,,,,,,,,0,63,63,135,1,
,,,,,,,,,,,,,,,,,,33,2022-02-12_11h46.43.714,lexical_decision_task_DD_L4,2021.2.3,Win32,60.41931001,,,,,,,,,,,0.7324,1,,,,,,,,,,,,,,,,,,,,,,,,,0.393277333,-0.168067305,0,0,0,,,,,,,SHIELD,C,m,y,./images/SHIELD.png,,,,,,,,,,,,,,,,,,,,m,1,0.7324,,,,,,,,0,64,64,48,1,
,,,,,,,,,,,,,,,,,,33,2022-02-12_11h46.43.714,lexical_decision_task_DD_L4,2021.2.3,Win32,60.41931001,,,,,,,,,,,0.6046,1,,,,,,,,,,,,,,,,,,,,,,,,,0.393277333,-0.168067305,0,0,0,,,,,,,COLLAR,C,m,y,./images/COLLAR.png,,,,,,,,,,,,,,,,,,,,m,1,0.6046,,,,,,,,0,65,65,15,1,
,,,,,,,,,,,,,,,,,,33,2022-02-12_11h46.43.714,lexical_decision_task_DD_L4,2021.2.3,Win32,60.41931001,,,,,,,,,,,0.652,1,,,,,,,,,,,,,,,,,,,,,,,,,0.393277333,-0.168067305,0,0,0,,,,,,,MAGGOT,C,z,y,./images/MAGGOT.png,,,,,,,,,,,,,,,,,,,,z,1,0.652,,,,,,,,0,66,66,117,1,
,,,,,,,,,,,,,,,,,,33,2022-02-12_11h46.43.714,lexical_decision_task_DD_L4,2021.2.3,Win32,60.41931001,,,,,,,,,,,0.7698,1,,,,,,,,,,,,,,,,,,,,,,,,,0.393277333,-0.168067305,0,0,0,,,,,,,BASKET,LB,m,y,./images/BASKETLB.png,,,,,,,,,,,,,,,,,,,,m,1,0.7698,,,,,,,,0,67,67,44,1,
,,,,,,,,,,,,,,,,,,33,2022-02-12_11h46.43.714,lexical_decision_task_DD_L4,2021.2.3,Win32,60.41931001,,,,,,,,,,,1.535,0,,,,,,,,,,,,,,,,,,,,,,,,,0.393277333,-0.168067305,0,0,0,,,,,,,BUTTER,C,m,y,./images/BUTTER.png,,,,,,,,,,,,,,,,,,,,z,0,1.535,,,,,,,,0,68,68,27,1,
,,,,,,,,,,,,,,,,,,33,2022-02-12_11h46.43.714,lexical_decision_task_DD_L4,2021.2.3,Win32,60.41931001,,,,,,,,,,,1.2187,1,,,,,,,,,,,,,,,,,,,,,,,,,0.393277333,-0.168067305,0,0,0,,,,,,,MOSQUE,HB,z,y,./images/MOSQUEHB.png,,,,,,,,,,,,,,,,,,,,z,1,1.2187,,,,,,,,0,69,69,127,1,
,,,,,,,,,,,,,,,,,,33,2022-02-12_11h46.43.714,lexical_decision_task_DD_L4,2021.2.3,Win32,60.41931001,,,,,,,,,,,0.769,1,,,,,,,,,,,,,,,,,,,,,,,,,0.393277333,-0.168067305,0,0,0,,,,,,,PENCE,HB,z,y,./images/PENCEHB.png,,,,,,,,,,,,,,,,,,,,z,1,0.769,,,,,,,,0,70,70,100,1,
,,,,,,,,,,,,,,,,,,33,2022-02-12_11h46.43.714,lexical_decision_task_DD_L4,2021.2.3,Win32,60.41931001,,,,,,,,,,,0.9842,1,,,,,,,,,,,,,,,,,,,,,,,,,0.393277333,-0.168067305,0,0,0,,,,,,,CRADLE,LB,z,y,./images/CRADLELB.png,,,,,,,,,,,,,,,,,,,,z,1,0.9842,,,,,,,,0,71,71,104,1,
,,,,,,,,,,,,,,,,,,33,2022-02-12_11h46.43.714,lexical_decision_task_DD_L4,2021.2.3,Win32,60.41931001,,,,,,,,,,,0.8014,1,,,,,,,,,,,,,,,,,,,,,,,,,0.393277333,-0.168067305,0,0,0,,,,,,,WHEEL,LB,m,y,./images/WHEELLB.png,,,,,,,,,,,,,,,,,,,,m,1,0.8014,,,,,,,,0,72,72,77,1,
,,,,,,,,,,,,,,,,,,33,2022-02-12_11h46.43.714,lexical_decision_task_DD_L4,2021.2.3,Win32,60.41931001,,,,,,,,,,,0.8343,0,,,,,,,,,,,,,,,,,,,,,,,,,0.393277333,-0.168067305,0,0,0,,,,,,,CASINO,HB,m,y,./images/CASINOHB.png,,,,,,,,,,,,,,,,,,,,z,0,0.8343,,,,,,,,0,73,73,28,1,
,,,,,,,,,,,,,,,,,,33,2022-02-12_11h46.43.714,lexical_decision_task_DD_L4,2021.2.3,Win32,60.41931001,,,,,,,,,,,8.2478,1,,,,,,,,,,,,,,,,,,,,,,,,,0.393277333,-0.168067305,0,0,0,,,,,,,PICKLE,LB,z,y,./images/PICKLELB.png,,,,,,,,,,,,,,,,,,,,z,1,8.2478,,,,,,,,0,74,74,98,1,
,,,,,,,,,,,,,,,,,,33,2022-02-12_11h46.43.714,lexical_decision_task_DD_L4,2021.2.3,Win32,60.41931001,,,,,,,,,,,0.7183,0,,,,,,,,,,,,,,,,,,,,,,,,,0.393277333,-0.168067305,0,0,0,,,,,,,TIGER,HB,m,y,./images/TIGERHB.png,,,,,,,,,,,,,,,,,,,,z,0,0.7183,,,,,,,,0,75,75,37,1,
,,,,,,,,,,,,,,,,,,33,2022-02-12_11h46.43.714,lexical_decision_task_DD_L4,2021.2.3,Win32,60.41931001,,,,,,,,,,,1.0061,1,,,,,,,,,,,,,,,,,,,,,,,,,0.393277333,-0.168067305,0,0,0,,,,,,,CARPET,LB,z,y,./images/CARPETLB.png,,,,,,,,,,,,,,,,,,,,z,1,1.0061,,,,,,,,0,76,76,137,1,
,,,,,,,,,,,,,,,,,,33,2022-02-12_11h46.43.714,lexical_decision_task_DD_L4,2021.2.3,Win32,60.41931001,,,,,,,,,,,0.5672,1,,,,,,,,,,,,,,,,,,,,,,,,,0.393277333,-0.168067305,0,0,0,,,,,,,GARDEN,HB,m,y,./images/GARDENHB.png,,,,,,,,,,,,,,,,,,,,m,1,0.5672,,,,,,,,0,77,77,10,1,
,,,,,,,,,,,,,,,,,,33,2022-02-12_11h46.43.714,lexical_decision_task_DD_L4,2021.2.3,Win32,60.41931001,,,,,,,,,,,0.6057,1,,,,,,,,,,,,,,,,,,,,,,,,,0.393277333,-0.168067305,0,0,0,,,,,,,WHISKY,LB,m,y,./images/WHISKYLB.png,,,,,,,,,,,,,,,,,,,,m,1,0.6057,,,,,,,,0,78,78,83,1,
,,,,,,,,,,,,,,,,,,33,2022-02-12_11h46.43.714,lexical_decision_task_DD_L4,2021.2.3,Win32,60.41931001,,,,,,,,,,,0.5567,1,,,,,,,,,,,,,,,,,,,,,,,,,0.393277333,-0.168067305,0,0,0,,,,,,,TRIPOD,C,z,y,./images/TRIPOD.png,,,,,,,,,,,,,,,,,,,,z,1,0.5567,,,,,,,,0,79,79,138,1,
,,,,,,,,,,,,,,,,,,33,2022-02-12_11h46.43.714,lexical_decision_task_DD_L4,2021.2.3,Win32,60.41931001,,,,,,,,,,,0.5514,0,,,,,,,,,,,,,,,,,,,,,,,,,0.393277333,-0.168067305,0,0,0,,,,,,,ARROW,C,m,y,./images/ARROW.png,,,,,,,,,,,,,,,,,,,,z,0,0.5514,,,,,,,,0,80,80,69,1,
,,,,,,,,,,,,,,,,,,33,2022-02-12_11h46.43.714,lexical_decision_task_DD_L4,2021.2.3,Win32,60.41931001,,,,,,,,,,,0.7338,1,,,,,,,,,,,,,,,,,,,,,,,,,0.393277333,-0.168067305,0,0,0,,,,,,,PLANK,HB,z,y,./images/PLANKHB.png,,,,,,,,,,,,,,,,,,,,z,1,0.7338,,,,,,,,0,81,81,85,1,
,,,,,,,,,,,,,,,,,,33,2022-02-12_11h46.43.714,lexical_decision_task_DD_L4,2021.2.3,Win32,60.41931001,,,,,,,,,,,0.6944,1,,,,,,,,,,,,,,,,,,,,,,,,,0.393277333,-0.168067305,0,0,0,,,,,,,TULIP,LB,z,y,./images/TULIPLB.png,,,,,,,,,,,,,,,,,,,,z,1,0.6944,,,,,,,,0,82,82,92,1,
,,,,,,,,,,,,,,,,,,33,2022-02-12_11h46.43.714,lexical_decision_task_DD_L4,2021.2.3,Win32,60.41931001,,,,,,,,,,,0.7007,1,,,,,,,,,,,,,,,,,,,,,,,,,-0.066106428,-0.403361426,1,0,0,,,,,,,BARREL,LB,z,y,./images/BARRELLB.png,,,,,,,,,,,,,,,,,,,,z,1,0.7007,,,,,,,,0,83,83,116,1,break_done_button
,,,,,,,,,,,,,,,,,,33,2022-02-12_11h46.43.714,lexical_decision_task_DD_L4,2021.2.3,Win32,60.41931001,,,,,,,,,,,0.6777,1,,,,,,,,,,,,,,,,,,,,,,,,,0.168067245,-0.300280124,0,0,0,,,,,,,MUFFIN,HB,z,y,./images/MUFFINHB.png,,,,,,,,,,,,,,,,,,,,z,1,0.6777,,,,,,,,0,84,84,139,1,
,,,,,,,,,,,,,,,,,,33,2022-02-12_11h46.43.714,lexical_decision_task_DD_L4,2021.2.3,Win32,60.41931001,,,,,,,,,,,0.6535,1,,,,,,,,,,,,,,,,,,,,,,,,,0.168067245,-0.300280124,0,0,0,,,,,,,POODLE,C,z,y,./images/POODLE.png,,,,,,,,,,,,,,,,,,,,z,1,0.6535,,,,,,,,0,85,85,165,1,
,,,,,,,,,,,,,,,,,,33,2022-02-12_11h46.43.714,lexical_decision_task_DD_L4,2021.2.3,Win32,60.41931001,,,,,,,,,,,0.5948,1,,,,,,,,,,,,,,,,,,,,,,,,,0.168067245,-0.300280124,0,0,0,,,,,,,BANNER,HB,z,y,./images/BANNERHB.png,,,,,,,,,,,,,,,,,,,,z,1,0.5948,,,,,,,,0,86,86,136,1,
,,,,,,,,,,,,,,,,,,33,2022-02-12_11h46.43.714,lexical_decision_task_DD_L4,2021.2.3,Win32,60.41931001,,,,,,,,,,,0.786,0,,,,,,,,,,,,,,,,,,,,,,,,,0.168067245,-0.300280124,0,0,0,,,,,,,PURSE,LB,z,y,./images/PURSELB.png,,,,,,,,,,,,,,,,,,,,m,0,0.786,,,,,,,,0,87,87,146,1,
,,,,,,,,,,,,,,,,,,33,2022-02-12_11h46.43.714,lexical_decision_task_DD_L4,2021.2.3,Win32,60.41931001,,,,,,,,,,,0.6183,1,,,,,,,,,,,,,,,,,,,,,,,,,0.168067245,-0.300280124,0,0,0,,,,,,,CLOWN,HB,m,y,./images/CLOWNHB.png,,,,,,,,,,,,,,,,,,,,m,1,0.6183,,,,,,,,0,88,88,22,1,
,,,,,,,,,,,,,,,,,,33,2022-02-12_11h46.43.714,lexical_decision_task_DD_L4,2021.2.3,Win32,60.41931001,,,,,,,,,,,0.5753,1,,,,,,,,,,,,,,,,,,,,,,,,,0.168067245,-0.300280124,0,0,0,,,,,,,DANCER,C,m,y,./images/DANCER.png,,,,,,,,,,,,,,,,,,,,m,1,0.5753,,,,,,,,0,89,89,21,1,
,,,,,,,,,,,,,,,,,,33,2022-02-12_11h46.43.714,lexical_decision_task_DD_L4,2021.2.3,Win32,60.41931001,,,,,,,,,,,0.5682,1,,,,,,,,,,,,,,,,,,,,,,,,,0.168067245,-0.300280124,0,0,0,,,,,,,MALLET,LB,z,y,./images/MALLETLB.png,,,,,,,,,,,,,,,,,,,,z,1,0.5682,,,,,,,,0,90,90,134,1,
,,,,,,,,,,,,,,,,,,33,2022-02-12_11h46.43.714,lexical_decision_task_DD_L4,2021.2.3,Win32,60.41931001,,,,,,,,,,,0.7191,1,,,,,,,,,,,,,,,,,,,,,,,,,0.168067245,-0.300280124,0,0,0,,,,,,,SQUARE,C,z,y,./images/SQUARE.png,,,,,,,,,,,,,,,,,,,,z,1,0.7191,,,,,,,,0,91,91,90,1,
,,,,,,,,,,,,,,,,,,33,2022-02-12_11h46.43.714,lexical_decision_task_DD_L4,2021.2.3,Win32,60.41931001,,,,,,,,,,,0.6381,1,,,,,,,,,,,,,,,,,,,,,,,,,0.168067245,-0.300280124,0,0,0,,,,,,,BUBBLE,LB,m,y,./images/BUBBLELB.png,,,,,,,,,,,,,,,,,,,,m,1,0.6381,,,,,,,,0,92,92,71,1,
,,,,,,,,,,,,,,,,,,33,2022-02-12_11h46.43.714,lexical_decision_task_DD_L4,2021.2.3,Win32,60.41931001,,,,,,,,,,,1.1431,1,,,,,,,,,,,,,,,,,,,,,,,,,0.168067245,-0.300280124,0,0,0,,,,,,,PARCEL,C,m,y,./images/PARCEL.png,,,,,,,,,,,,,,,,,,,,m,1,1.1431,,,,,,,,0,93,93,18,1,
,,,,,,,,,,,,,,,,,,33,2022-02-12_11h46.43.714,lexical_decision_task_DD_L4,2021.2.3,Win32,60.41931001,,,,,,,,,,,0.6334,1,,,,,,,,,,,,,,,,,,,,,,,,,0.168067245,-0.300280124,0,0,0,,,,,,,NOOSE,C,z,y,./images/NOOSE.png,,,,,,,,,,,,,,,,,,,,z,1,0.6334,,,,,,,,0,94,94,156,1,
,,,,,,,,,,,,,,,,,,33,2022-02-12_11h46.43.714,lexical_decision_task_DD_L4,2021.2.3,Win32,60.41931001,,,,,,,,,,,0.9011,0,,,,,,,,,,,,,,,,,,,,,,,,,0.168067245,-0.300280124,0,0,0,,,,,,,PEBBLE,HB,m,y,./images/PEBBLEHB.png,,,,,,,,,,,,,,,,,,,,z,0,0.9011,,,,,,,,0,95,95,82,1,
,,,,,,,,,,,,,,,,,,33,2022-02-12_11h46.43.714,lexical_decision_task_DD_L4,2021.2.3,Win32,60.41931001,,,,,,,,,,,1.0677,1,,,,,,,,,,,,,,,,,,,,,,,,,0.168067245,-0.300280124,0,0,0,,,,,,,FALCON,HB,z,y,./images/FALCONHB.png,,,,,,,,,,,,,,,,,,,,z,1,1.0677,,,,,,,,0,96,96,112,1,
,,,,,,,,,,,,,,,,,,33,2022-02-12_11h46.43.714,lexical_decision_task_DD_L4,2021.2.3,Win32,60.41931001,,,,,,,,,,,0.734,1,,,,,,,,,,,,,,,,,,,,,,,,,0.168067245,-0.300280124,0,0,0,,,,,,,SHELF,C,z,y,./images/SHELF.png,,,,,,,,,,,,,,,,,,,,z,1,0.734,,,,,,,,0,97,97,123,1,
,,,,,,,,,,,,,,,,,,33,2022-02-12_11h46.43.714,lexical_decision_task_DD_L4,2021.2.3,Win32,60.41931001,,,,,,,,,,,0.6345,1,,,,,,,,,,,,,,,,,,,,,,,,,0.168067245,-0.300280124,0,0,0,,,,,,,JAGUAR,C,z,y,./images/JAGUAR.png,,,,,,,,,,,,,,,,,,,,z,1,0.6345,,,,,,,,0,98,98,102,1,
,,,,,,,,,,,,,,,,,,33,2022-02-12_11h46.43.714,lexical_decision_task_DD_L4,2021.2.3,Win32,60.41931001,,,,,,,,,,,0.5997,1,,,,,,,,,,,,,,,,,,,,,,,,,0.168067245,-0.300280124,0,0,0,,,,,,,SKIING,LB,z,y,./images/SKIINGLB.png,,,,,,,,,,,,,,,,,,,,z,1,0.5997,,,,,,,,0,99,99,101,1,
,,,,,,,,,,,,,,,,,,33,2022-02-12_11h46.43.714,lexical_decision_task_DD_L4,2021.2.3,Win32,60.41931001,,,,,,,,,,,0.8354,0,,,,,,,,,,,,,,,,,,,,,,,,,0.168067245,-0.300280124,0,0,0,,,,,,,SAILOR,HB,z,y,./images/SAILORHB.png,,,,,,,,,,,,,,,,,,,,m,0,0.8354,,,,,,,,0,100,100,151,1,
,,,,,,,,,,,,,,,,,,33,2022-02-12_11h46.43.714,lexical_decision_task_DD_L4,2021.2.3,Win32,60.41931001,,,,,,,,,,,0.8012,1,,,,,,,,,,,,,,,,,,,,,,,,,0.168067245,-0.300280124,0,0,0,,,,,,,CRUMB,LB,z,y,./images/CRUMBLB.png,,,,,,,,,,,,,,,,,,,,z,1,0.8012,,,,,,,,0,101,101,113,1,
,,,,,,,,,,,,,,,,,,33,2022-02-12_11h46.43.714,lexical_decision_task_DD_L4,2021.2.3,Win32,60.41931001,,,,,,,,,,,1.0512,1,,,,,,,,,,,,,,,,,,,,,,,,,0.168067245,-0.300280124,0,0,0,,,,,,,PLANET,LB,m,y,./images/PLANETLB.png,,,,,,,,,,,,,,,,,,,,m,1,1.0512,,,,,,,,0,102,102,80,1,
,,,,,,,,,,,,,,,,,,33,2022-02-12_11h46.43.714,lexical_decision_task_DD_L4,2021.2.3,Win32,60.41931001,,,,,,,,,,,0.5664,1,,,,,,,,,,,,,,,,,,,,,,,,,0.168067245,-0.300280124,0,0,0,,,,,,,SWEAT,C,z,y,./images/SWEAT.png,,,,,,,,,,,,,,,,,,,,z,1,0.5664,,,,,,,,0,103,103,150,1,
,,,,,,,,,,,,,,,,,,33,2022-02-12_11h46.43.714,lexical_decision_task_DD_L4,2021.2.3,Win32,60.41931001,,,,,,,,,,,0.974,0,,,,,,,,,,,,,,,,,,,,,,,,,0.168067245,-0.300280124,0,0,0,,,,,,,GRAPE,HB,m,y,./images/GRAPEHB.png,,,,,,,,,,,,,,,,,,,,z,0,0.974,,,,,,,,0,104,104,16,1,
,,,,,,,,,,,,,,,,,,33,2022-02-12_11h46.43.714,lexical_decision_task_DD_L4,2021.2.3,Win32,60.41931001,,,,,,,,,,,1.1589,1,,,,,,,,,,,,,,,,,,,,,,,,,0.168067245,-0.300280124,0,0,0,,,,,,,BERRY,LB,z,y,./images/BERRYLB.png,,,,,,,,,,,,,,,,,,,,z,1,1.1589,,,,,,,,0,105,105,131,1,
,,,,,,,,,,,,,,,,,,33,2022-02-12_11h46.43.714,lexical_decision_task_DD_L4,2021.2.3,Win32,60.41931001,,,,,,,,,,,0.6496,1,,,,,,,,,,,,,,,,,,,,,,,,,0.168067245,-0.300280124,0,0,0,,,,,,,FARMER,LB,z,y,./images/FARMERLB.png,,,,,,,,,,,,,,,,,,,,z,1,0.6496,,,,,,,,0,106,106,149,1,
,,,,,,,,,,,,,,,,,,33,2022-02-12_11h46.43.714,lexical_decision_task_DD_L4,2021.2.3,Win32,60.41931001,,,,,,,,,,,0.5838,1,,,,,,,,,,,,,,,,,,,,,,,,,0.168067245,-0.300280124,0,0,0,,,,,,,PASTA,LB,z,y,./images/PASTALB.png,,,,,,,,,,,,,,,,,,,,z,1,0.5838,,,,,,,,0,107,107,89,1,
,,,,,,,,,,,,,,,,,,33,2022-02-12_11h46.43.714,lexical_decision_task_DD_L4,2021.2.3,Win32,60.41931001,,,,,,,,,,,0.6088,1,,,,,,,,,,,,,,,,,,,,,,,,,0.168067245,-0.300280124,0,0,0,,,,,,,PEACH,LB,z,y,./images/PEACHLB.png,,,,,,,,,,,,,,,,,,,,z,1,0.6088,,,,,,,,0,108,108,119,1,
,,,,,,,,,,,,,,,,,,33,2022-02-12_11h46.43.714,lexical_decision_task_DD_L4,2021.2.3,Win32,60.41931001,,,,,,,,,,,0.8866,1,,,,,,,,,,,,,,,,,,,,,,,,,0.168067245,-0.300280124,0,0,0,,,,,,,CHALK,HB,m,y,./images/CHALKHB.png,,,,,,,,,,,,,,,,,,,,m,1,0.8866,,,,,,,,0,109,109,25,1,
,,,,,,,,,,,,,,,,,,33,2022-02-12_11h46.43.714,lexical_decision_task_DD_L4,2021.2.3,Win32,60.41931001,,,,,,,,,,,0.8684,0,,,,,,,,,,,,,,,,,,,,,,,,,0.168067245,-0.300280124,0,0,0,,,,,,,WALRUS,LB,z,y,./images/WALRUSLB.png,,,,,,,,,,,,,,,,,,,,m,0,0.8684,,,,,,,,0,110,110,107,1,
,,,,,,,,,,,,,,,,,,33,2022-02-12_11h46.43.714,lexical_decision_task_DD_L4,2021.2.3,Win32,60.41931001,,,,,,,,,,,0.5717,1,,,,,,,,,,,,,,,,,,,,,,,,,0.168067245,-0.300280124,0,0,0,,,,,,,BELLY,HB,z,y,./images/BELLYHB.png,,,,,,,,,,,,,,,,,,,,z,1,0.5717,,,,,,,,0,111,111,94,1,
,,,,,,,,,,,,,,,,,,33,2022-02-12_11h46.43.714,lexical_decision_task_DD_L4,2021.2.3,Win32,60.41931001,,,,,,,,,,,0.6737,1,,,,,,,,,,,,,,,,,,,,,,,,,0.168067245,-0.300280124,0,0,0,,,,,,,SPINE,LB,m,y,./images/SPINELB.png,,,,,,,,,,,,,,,,,,,,m,1,0.6737,,,,,,,,0,112,112,65,1,
,,,,,,,,,,,,,,,,,,33,2022-02-12_11h46.43.714,lexical_decision_task_DD_L4,2021.2.3,Win32,60.41931001,,,,,,,,,,,0.6892,1,,,,,,,,,,,,,,,,,,,,,,,,,0.168067245,-0.300280124,0,0,0,,,,,,,CRUST,HB,z,y,./images/CRUSTHB.png,,,,,,,,,,,,,,,,,,,,z,1,0.6892,,,,,,,,0,113,113,163,1,
,,,,,,,,,,,,,,,,,,33,2022-02-12_11h46.43.714,lexical_decision_task_DD_L4,2021.2.3,Win32,60.41931001,,,,,,,,,,,1.0364,1,,,,,,,,,,,,,,,,,,,,,,,,,0.168067245,-0.300280124,0,0,0,,,,,,,PEARL,HB,z,y,./images/PEARLHB.png,,,,,,,,,,,,,,,,,,,,z,1,1.0364,,,,,,,,0,114,114,130,1,
,,,,,,,,,,,,,,,,,,33,2022-02-12_11h46.43.714,lexical_decision_task_DD_L4,2021.2.3,Win32,60.41931001,,,,,,,,,,,0.8411,1,,,,,,,,,,,,,,,,,,,,,,,,,0.168067245,-0.300280124,0,0,0,,,,,,,CHAIN,C,m,y,./images/CHAIN.png,,,,,,,,,,,,,,,,,,,,m,1,0.8411,,,,,,,,0,115,115,42,1,
,,,,,,,,,,,,,,,,,,33,2022-02-12_11h46.43.714,lexical_decision_task_DD_L4,2021.2.3,Win32,60.41931001,,,,,,,,,,,0.849,0,,,,,,,,,,,,,,,,,,,,,,,,,0.168067245,-0.300280124,0,0,0,,,,,,,WEASEL,LB,z,y,./images/WEASELLB.png,,,,,,,,,,,,,,,,,,,,m,0,0.849,,,,,,,,0,116,116,164,1,
,,,,,,,,,,,,,,,,,,33,2022-02-12_11h46.43.714,lexical_decision_task_DD_L4,2021.2.3,Win32,60.41931001,,,,,,,,,,,0.6367,1,,,,,,,,,,,,,,,,,,,,,,,,,0.168067245,-0.300280124,0,0,0,,,,,,,GREASE,C,z,y,./images/GREASE.png,,,,,,,,,,,,,,,,,,,,z,1,0.6367,,,,,,,,0,117,117,99,1,
,,,,,,,,,,,,,,,,,,33,2022-02-12_11h46.43.714,lexical_decision_task_DD_L4,2021.2.3,Win32,60.41931001,,,,,,,,,,,0.6015,1,,,,,,,,,,,,,,,,,,,,,,,,,0.168067245,-0.300280124,0,0,0,,,,,,,MELON,HB,z,y,./images/MELONHB.png,,,,,,,,,,,,,,,,,,,,z,1,0.6015,,,,,,,,0,118,118,106,1,
,,,,,,,,,,,,,,,,,,33,2022-02-12_11h46.43.714,lexical_decision_task_DD_L4,2021.2.3,Win32,60.41931001,,,,,,,,,,,1.0493,1,,,,,,,,,,,,,,,,,,,,,,,,,0.168067245,-0.300280124,0,0,0,,,,,,,LADDER,LB,z,y,./images/LADDERLB.png,,,,,,,,,,,,,,,,,,,,z,1,1.0493,,,,,,,,0,119,119,122,1,
,,,,,,,,,,,,,,,,,,33,2022-02-12_11h46.43.714,lexical_decision_task_DD_L4,2021.2.3,Win32,60.41931001,,,,,,,,,,,0.6851,1,,,,,,,,,,,,,,,,,,,,,,,,,0.168067245,-0.300280124,0,0,0,,,,,,,THROAT,C,z,y,./images/THROAT.png,,,,,,,,,,,,,,,,,,,,z,1,0.6851,,,,,,,,0,120,120,120,1,
,,,,,,,,,,,,,,,,,,33,2022-02-12_11h46.43.714,lexical_decision_task_DD_L4,2021.2.3,Win32,60.41931001,,,,,,,,,,,0.7682,1,,,,,,,,,,,,,,,,,,,,,,,,,0.168067245,-0.300280124,0,0,0,,,,,,,HEATER,LB,m,y,./images/HEATERLB.png,,,,,,,,,,,,,,,,,,,,m,1,0.7682,,,,,,,,0,121,121,56,1,
,,,,,,,,,,,,,,,,,,33,2022-02-12_11h46.43.714,lexical_decision_task_DD_L4,2021.2.3,Win32,60.41931001,,,,,,,,,,,0.9086,1,,,,,,,,,,,,,,,,,,,,,,,,,0.168067245,-0.300280124,0,0,0,,,,,,,GRAIN,C,z,y,./images/GRAIN.png,,,,,,,,,,,,,,,,,,,,z,1,0.9086,,,,,,,,0,122,122,159,1,
,,,,,,,,,,,,,,,,,,33,2022-02-12_11h46.43.714,lexical_decision_task_DD_L4,2021.2.3,Win32,60.41931001,,,,,,,,,,,6.5777,1,,,,,,,,,,,,,,,,,,,,,,,,,0.168067245,-0.299159676,0,0,0,,,,,,,TORCH,LB,z,y,./images/TORCHLB.png,,,,,,,,,,,,,,,,,,,,z,1,6.5777,,,,,,,,0,123,123,152,1,
,,,,,,,,,,,,,,,,,,33,2022-02-12_11h46.43.714,lexical_decision_task_DD_L4,2021.2.3,Win32,60.41931001,,,,,,,,,,,0.7324,1,,,,,,,,,,,,,,,,,,,,,,,,,0.168067245,-0.299159676,0,0,0,,,,,,,CANOE,HB,m,y,./images/CANOEHB.png,,,,,,,,,,,,,,,,,,,,m,1,0.7324,,,,,,,,0,124,124,58,1,
,,,,,,,,,,,,,,,,,,33,2022-02-12_11h46.43.714,lexical_decision_task_DD_L4,2021.2.3,Win32,60.41931001,,,,,,,,,,,0.633,1,,,,,,,,,,,,,,,,,,,,,,,,,-0.030252085,-0.20952382,0,0,0,space,,,,,,TOMATO,C,z,y,./images/TOMATO.png,33.8918,,,,,,,,,,,,,,,,,,,z,1,0.633,,,,,,,,0,125,125,84,1,
,,,,,,,,,,,,,,,,,,33,2022-02-12_11h46.43.714,lexical_decision_task_DD_L4,2021.2.3,Win32,60.41931001,,,,,,,,,,,1.0123,1,,,,,,,,,,,,,,,,,,,,,,,,,-0.030252085,-0.20952382,0,0,0,,,,,,,BURIAL,LB,z,y,./images/BURIALLB.png,,,,,,,,,,,,,,,,,,,,z,1,1.0123,,,,,,,,0,126,126,143,1,
,,,,,,,,,,,,,,,,,,33,2022-02-12_11h46.43.714,lexical_decision_task_DD_L4,2021.2.3,Win32,60.41931001,,,,,,,,,,,0.5686,0,,,,,,,,,,,,,,,,,,,,,,,,,-0.030252085,-0.20952382,0,0,0,,,,,,,BOILER,C,m,y,./images/BOILER.png,,,,,,,,,,,,,,,,,,,,z,0,0.5686,,,,,,,,0,127,127,36,1,
,,,,,,,,,,,,,,,,,,33,2022-02-12_11h46.43.714,lexical_decision_task_DD_L4,2021.2.3,Win32,60.41931001,,,,,,,,,,,0.6604,1,,,,,,,,,,,,,,,,,,,,,,,,,-0.030252085,-0.20952382,0,0,0,,,,,,,BLOKE,C,m,y,./images/BLOKE.png,,,,,,,,,,,,,,,,,,,,m,1,0.6604,,,,,,,,0,128,128,12,1,
,,,,,,,,,,,,,,,,,,33,2022-02-12_11h46.43.714,lexical_decision_task_DD_L4,2021.2.3,Win32,60.41931001,,,,,,,,,,,0.5922,1,,,,,,,,,,,,,,,,,,,,,,,,,-0.030252085,-0.20952382,0,0,0,,,,,,,FLESH,C,m,y,./images/FLESH.png,,,,,,,,,,,,,,,,,,,,m,1,0.5922,,,,,,,,0,129,129,24,1,
,,,,,,,,,,,,,,,,,,33,2022-02-12_11h46.43.714,lexical_decision_task_DD_L4,2021.2.3,Win32,60.41931001,,,,,,,,,,,0.7677,1,,,,,,,,,,,,,,,,,,,,,,,,,-0.030252085,-0.20952382,0,0,0,,,,,,,SUNSET,HB,z,y,./images/SUNSETHB.png,,,,,,,,,,,,,,,,,,,,z,1,0.7677,,,,,,,,0,130,130,166,1,
,,,,,,,,,,,,,,,,,,33,2022-02-12_11h46.43.714,lexical_decision_task_DD_L4,2021.2.3,Win32,60.41931001,,,,,,,,,,,0.6779,1,,,,,,,,,,,,,,,,,,,,,,,,,-0.030252085,-0.20952382,0,0,0,,,,,,,STATUE,C,m,y,./images/STATUE.png,,,,,,,,,,,,,,,,,,,,m,1,0.6779,,,,,,,,0,131,131,66,1,
,,,,,,,,,,,,,,,,,,33,2022-02-12_11h46.43.714,lexical_decision_task_DD_L4,2021.2.3,Win32,60.41931001,,,,,,,,,,,0.7253,1,,,,,,,,,,,,,,,,,,,,,,,,,-0.030252085,-0.20952382,0,0,0,,,,,,,MUSCLE,HB,z,y,./images/MUSCLEHB.png,,,,,,,,,,,,,,,,,,,,z,1,0.7253,,,,,,,,0,132,132,88,1,
,,,,,,,,,,,,,,,,,,33,2022-02-12_11h46.43.714,lexical_decision_task_DD_L4,2021.2.3,Win32,60.41931001,,,,,,,,,,,0.573,1,,,,,,,,,,,,,,,,,,,,,,,,,-0.030252085,-0.20952382,0,0,0,,,,,,,WALNUT,C,m,y,./images/WALNUT.png,,,,,,,,,,,,,,,,,,,,m,1,0.573,,,,,,,,0,133,133,0,1,
,,,,,,,,,,,,,,,,,,33,2022-02-12_11h46.43.714,lexical_decision_task_DD_L4,2021.2.3,Win32,60.41931001,,,,,,,,,,,0.6165,1,,,,,,,,,,,,,,,,,,,,,,,,,-0.030252085,-0.20952382,0,0,0,,,,,,,WAGON,HB,m,y,./images/WAGONHB.png,,,,,,,,,,,,,,,,,,,,m,1,0.6165,,,,,,,,0,134,134,7,1,
,,,,,,,,,,,,,,,,,,33,2022-02-12_11h46.43.714,lexical_decision_task_DD_L4,2021.2.3,Win32,60.41931001,,,,,,,,,,,0.5766,0,,,,,,,,,,,,,,,,,,,,,,,,,-0.030252085,-0.20952382,0,0,0,,,,,,,CANDLE,HB,z,y,./images/CANDLEHB.png,,,,,,,,,,,,,,,,,,,,m,0,0.5766,,,,,,,,0,135,135,145,1,
,,,,,,,,,,,,,,,,,,33,2022-02-12_11h46.43.714,lexical_decision_task_DD_L4,2021.2.3,Win32,60.41931001,,,,,,,,,,,0.5677,1,,,,,,,,,,,,,,,,,,,,,,,,,-0.030252085,-0.20952382,0,0,0,,,,,,,QUILL,HB,z,y,./images/QUILLHB.png,,,,,,,,,,,,,,,,,,,,z,1,0.5677,,,,,,,,0,136,136,115,1,
,,,,,,,,,,,,,,,,,,33,2022-02-12_11h46.43.714,lexical_decision_task_DD_L4,2021.2.3,Win32,60.41931001,,,,,,,,,,,0.6174,1,,,,,,,,,,,,,,,,,,,,,,,,,-0.030252085,-0.20952382,0,0,0,,,,,,,SCREW,C,z,y,./images/SCREW.png,,,,,,,,,,,,,,,,,,,,z,1,0.6174,,,,,,,,0,137,137,108,1,
,,,,,,,,,,,,,,,,,,33,2022-02-12_11h46.43.714,lexical_decision_task_DD_L4,2021.2.3,Win32,60.41931001,,,,,,,,,,,0.6758,0,,,,,,,,,,,,,,,,,,,,,,,,,-0.030252085,-0.20952382,0,0,0,,,,,,,CHERRY,C,m,y,./images/CHERRY.png,,,,,,,,,,,,,,,,,,,,z,0,0.6758,,,,,,,,0,138,138,54,1,
,,,,,,,,,,,,,,,,,,33,2022-02-12_11h46.43.714,lexical_decision_task_DD_L4,2021.2.3,Win32,60.41931001,,,,,,,,,,,0.8038,0,,,,,,,,,,,,,,,,,,,,,,,,,-0.030252085,-0.20952382,0,0,0,,,,,,,SLOPE,C,m,y,./images/SLOPE.png,,,,,,,,,,,,,,,,,,,,z,0,0.8038,,,,,,,,0,139,139,30,1,
,,,,,,,,,,,,,,,,,,33,2022-02-12_11h46.43.714,lexical_decision_task_DD_L4,2021.2.3,Win32,60.41931001,,,,,,,,,,,0.6686,1,,,,,,,,,,,,,,,,,,,,,,,,,-0.030252085,-0.20952382,0,0,0,,,,,,,STOVE,LB,m,y,./images/STOVELB.png,,,,,,,,,,,,,,,,,,,,m,1,0.6686,,,,,,,,0,140,140,2,1,
,,,,,,,,,,,,,,,,,,33,2022-02-12_11h46.43.714,lexical_decision_task_DD_L4,2021.2.3,Win32,60.41931001,,,,,,,,,,,0.8515,1,,,,,,,,,,,,,,,,,,,,,,,,,-0.030252085,-0.20952382,0,0,0,,,,,,,WRIST,HB,z,y,./images/WRISTHB.png,,,,,,,,,,,,,,,,,,,,z,1,0.8515,,,,,,,,0,141,141,109,1,
,,,,,,,,,,,,,,,,,,33,2022-02-12_11h46.43.714,lexical_decision_task_DD_L4,2021.2.3,Win32,60.41931001,,,,,,,,,,,0.7725,1,,,,,,,,,,,,,,,,,,,,,,,,,-0.030252085,-0.20952382,0,0,0,,,,,,,RAZOR,HB,m,y,./images/RAZORHB.png,,,,,,,,,,,,,,,,,,,,m,1,0.7725,,,,,,,,0,142,142,34,1,
,,,,,,,,,,,,,,,,,,33,2022-02-12_11h46.43.714,lexical_decision_task_DD_L4,2021.2.3,Win32,60.41931001,,,,,,,,,,,0.7,0,,,,,,,,,,,,,,,,,,,,,,,,,-0.030252085,-0.20952382,0,0,0,,,,,,,BANANA,HB,m,y,./images/BANANAHB.png,,,,,,,,,,,,,,,,,,,,z,0,0.7,,,,,,,,0,143,143,70,1,
,,,,,,,,,,,,,,,,,,33,2022-02-12_11h46.43.714,lexical_decision_task_DD_L4,2021.2.3,Win32,60.41931001,,,,,,,,,,,0.6374,0,,,,,,,,,,,,,,,,,,,,,,,,,-0.030252085,-0.20952382,0,0,0,,,,,,,STOOL,HB,m,y,./images/STOOLHB.png,,,,,,,,,,,,,,,,,,,,z,0,0.6374,,,,,,,,0,144,144,43,1,
,,,,,,,,,,,,,,,,,,33,2022-02-12_11h46.43.714,lexical_decision_task_DD_L4,2021.2.3,Win32,60.41931001,,,,,,,,,,,0.5549,1,,,,,,,,,,,,,,,,,,,,,,,,,-0.030252085,-0.20952382,0,0,0,,,,,,,PIMPLE,LB,z,y,./images/PIMPLELB.png,,,,,,,,,,,,,,,,,,,,z,1,0.5549,,,,,,,,0,145,145,155,1,
,,,,,,,,,,,,,,,,,,33,2022-02-12_11h46.43.714,lexical_decision_task_DD_L4,2021.2.3,Win32,60.41931001,,,,,,,,,,,0.9455,1,,,,,,,,,,,,,,,,,,,,,,,,,-0.030252085,-0.20952382,0,0,0,,,,,,,LLAMA,LB,m,y,./images/LLAMALB.png,,,,,,,,,,,,,,,,,,,,m,1,0.9455,,,,,,,,0,146,146,35,1,
,,,,,,,,,,,,,,,,,,33,2022-02-12_11h46.43.714,lexical_decision_task_DD_L4,2021.2.3,Win32,60.41931001,,,,,,,,,,,1.1115,1,,,,,,,,,,,,,,,,,,,,,,,,,-0.030252085,-0.20952382,0,0,0,,,,,,,BAMBOO,LB,m,y,./images/BAMBOOLB.png,,,,,,,,,,,,,,,,,,,,m,1,1.1115,,,,,,,,0,147,147,5,1,
,,,,,,,,,,,,,,,,,,33,2022-02-12_11h46.43.714,lexical_decision_task_DD_L4,2021.2.3,Win32,60.41931001,,,,,,,,,,,0.6621,1,,,,,,,,,,,,,,,,,,,,,,,,,-0.030252085,-0.20952382,0,0,0,,,,,,,BUNNY,HB,m,y,./images/BUNNYHB.png,,,,,,,,,,,,,,,,,,,,m,1,0.6621,,,,,,,,0,148,148,13,1,
,,,,,,,,,,,,,,,,,,33,2022-02-12_11h46.43.714,lexical_decision_task_DD_L4,2021.2.3,Win32,60.41931001,,,,,,,,,,,0.6341,1,,,,,,,,,,,,,,,,,,,,,,,,,-0.030252085,-0.20952382,0,0,0,,,,,,,FINGER,C,z,y,./images/FINGER.png,,,,,,,,,,,,,,,,,,,,z,1,0.6341,,,,,,,,0,149,149,87,1,
,,,,,,,,,,,,,,,,,,33,2022-02-12_11h46.43.714,lexical_decision_task_DD_L4,2021.2.3,Win32,60.41931001,,,,,,,,,,,1.5079,1,,,,,,,,,,,,,,,,,,,,,,,,,-0.030252085,-0.20952382,0,0,0,,,,,,,STREAM,LB,m,y,./images/STREAMLB.png,,,,,,,,,,,,,,,,,,,,m,1,1.5079,,,,,,,,0,150,150,41,1,
,,,,,,,,,,,,,,,,,,33,2022-02-12_11h46.43.714,lexical_decision_task_DD_L4,2021.2.3,Win32,60.41931001,,,,,,,,,,,1.3494,1,,,,,,,,,,,,,,,,,,,,,,,,,-0.030252085,-0.20952382,0,0,0,,,,,,,LITTER,C,z,y,./images/LITTER.png,,,,,,,,,,,,,,,,,,,,z,1,1.3494,,,,,,,,0,151,151,162,1,
,,,,,,,,,,,,,,,,,,33,2022-02-12_11h46.43.714,lexical_decision_task_DD_L4,2021.2.3,Win32,60.41931001,,,,,,,,,,,0.8508,1,,,,,,,,,,,,,,,,,,,,,,,,,-0.030252085,-0.20952382,0,0,0,,,,,,,DRILL,C,m,y,./images/DRILL.png,,,,,,,,,,,,,,,,,,,,m,1,0.8508,,,,,,,,0,152,152,81,1,
,,,,,,,,,,,,,,,,,,33,2022-02-12_11h46.43.714,lexical_decision_task_DD_L4,2021.2.3,Win32,60.41931001,,,,,,,,,,,0.6838,1,,,,,,,,,,,,,,,,,,,,,,,,,-0.030252085,-0.20952382,0,0,0,,,,,,,HOCKEY,LB,m,y,./images/HOCKEYLB.png,,,,,,,,,,,,,,,,,,,,m,1,0.6838,,,,,,,,0,153,153,32,1,
,,,,,,,,,,,,,,,,,,33,2022-02-12_11h46.43.714,lexical_decision_task_DD_L4,2021.2.3,Win32,60.41931001,,,,,,,,,,,0.5546,1,,,,,,,,,,,,,,,,,,,,,,,,,-0.030252085,-0.20952382,0,0,0,,,,,,,MONKEY,C,m,y,./images/MONKEY.png,,,,,,,,,,,,,,,,,,,,m,1,0.5546,,,,,,,,0,154,154,45,1,
,,,,,,,,,,,,,,,,,,33,2022-02-12_11h46.43.714,lexical_decision_task_DD_L4,2021.2.3,Win32,60.41931001,,,,,,,,,,,0.6238,1,,,,,,,,,,,,,,,,,,,,,,,,,-0.030252085,-0.20952382,0,0,0,,,,,,,STEAK,HB,m,y,./images/STEAKHB.png,,,,,,,,,,,,,,,,,,,,m,1,0.6238,,,,,,,,0,155,155,31,1,
,,,,,,,,,,,,,,,,,,33,2022-02-12_11h46.43.714,lexical_decision_task_DD_L4,2021.2.3,Win32,60.41931001,,,,,,,,,,,0.6155,1,,,,,,,,,,,,,,,,,,,,,,,,,-0.030252085,-0.20952382,0,0,0,,,,,,,SWING,HB,z,y,./images/SWINGHB.png,,,,,,,,,,,,,,,,,,,,z,1,0.6155,,,,,,,,0,156,156,124,1,
,,,,,,,,,,,,,,,,,,33,2022-02-12_11h46.43.714,lexical_decision_task_DD_L4,2021.2.3,Win32,60.41931001,,,,,,,,,,,0.7662,0,,,,,,,,,,,,,,,,,,,,,,,,,-0.030252085,-0.20952382,0,0,0,,,,,,,SMOKER,LB,z,y,./images/SMOKERLB.png,,,,,,,,,,,,,,,,,,,,m,0,0.7662,,,,,,,,0,157,157,110,1,
,,,,,,,,,,,,,,,,,,33,2022-02-12_11h46.43.714,lexical_decision_task_DD_L4,2021.2.3,Win32,60.41931001,,,,,,,,,,,0.825,1,,,,,,,,,,,,,,,,,,,,,,,,,-0.030252085,-0.20952382,0,0,0,,,,,,,CLIFF,LB,m,y,./images/CLIFFLB.png,,,,,,,,,,,,,,,,,,,,m,1,0.825,,,,,,,,0,158,158,8,1,
,,,,,,,,,,,,,,,,,,33,2022-02-12_11h46.43.714,lexical_decision_task_DD_L4,2021.2.3,Win32,60.41931001,,,,,,,,,,,0.7207,1,,,,,,,,,,,,,,,,,,,,,,,,,-0.030252085,-0.20952382,0,0,0,,,,,,,GRANNY,LB,m,y,./images/GRANNYLB.png,,,,,,,,,,,,,,,,,,,,m,1,0.7207,,,,,,,,0,159,159,20,1,
